welcomeKey_resp.keys,welcomeKey_resp.rt,X Scale,Y Scale,rt_resp_4.keys,rt_resp_4.corr,rt_resp_4.rt,speedtest_2.thisRepN,speedtest_2.thisTrialN,speedtest_2.thisN,speedtest_2.thisIndex,speedtest_2.ran,numberSc,posX,positionLayout,participant,date,expName,psychopyVersion,OS,frameRate,ct_instrresp.keys,ct_instrresp.rt,key_resp_2.keys,key_resp_2.rt,ct_keyResp.keys,ct_keyResp.corr,ct_keyResp.rt,trials.thisRepN,trials.thisTrialN,trials.thisN,trials.thisIndex,trials.ran,leftNo,rightNo,displayProblem,numDistance,leftNo_size,rightNo_size,Dims,keyAnswer,TS_Loop.thisRepN,TS_Loop.thisTrialN,TS_Loop.thisN,TS_Loop.thisIndex,TS_Loop.ran,Condition,ActionInst,instrImage,mltptaskInst_resp.keys,mltptaskInst_resp.rt,continue_resp_2.keys,continue_resp_2.rt,multp_Answer,multi_RT,multiplyCorr,LoopingMultiply.thisRepN,LoopingMultiply.thisTrialN,LoopingMultiply.thisN,LoopingMultiply.thisIndex,LoopingMultiply.ran,factor1,multiplySign,factor2,multliplyProblem,physicalSize,orderOperand,sizeF1,sizeF2,mult_answer,trials_stroop.thisRepN,trials_stroop.thisTrialN,trials_stroop.thisN,trials_stroop.thisIndex,trials_stroop.ran,multiplicationFile,esckey_resp_2.keys,esckey_resp_2.rt
y,4.343,45,44.5,left,1,3.061,0,0,0,2,1,3,-200,left,653,2022-06-21_11h20.27.709,multiplicationStroop,2021.2.3,Win32,59.41770648,,,,,,,,,,,,,,,,,,,,,,,,,,,,,,,,,,,,,,,,,,,,,,,,,,,,,,,,,
,,,,right,1,0.431,0,1,1,11,1,4,200,right,653,2022-06-21_11h20.27.709,multiplicationStroop,2021.2.3,Win32,59.41770648,,,,,,,,,,,,,,,,,,,,,,,,,,,,,,,,,,,,,,,,,,,,,,,,,,,,,,,,,
,,,,left,1,0.3657,0,2,2,1,1,2,-200,left,653,2022-06-21_11h20.27.709,multiplicationStroop,2021.2.3,Win32,59.41770648,,,,,,,,,,,,,,,,,,,,,,,,,,,,,,,,,,,,,,,,,,,,,,,,,,,,,,,,,
,,,,right,1,0.3179,0,3,3,14,1,8,200,right,653,2022-06-21_11h20.27.709,multiplicationStroop,2021.2.3,Win32,59.41770648,,,,,,,,,,,,,,,,,,,,,,,,,,,,,,,,,,,,,,,,,,,,,,,,,,,,,,,,,
,,,,right,1,0.4854,0,4,4,8,1,1,200,right,653,2022-06-21_11h20.27.709,multiplicationStroop,2021.2.3,Win32,59.41770648,,,,,,,,,,,,,,,,,,,,,,,,,,,,,,,,,,,,,,,,,,,,,,,,,,,,,,,,,
,,,,left,1,0.4629,0,5,5,3,1,4,-200,left,653,2022-06-21_11h20.27.709,multiplicationStroop,2021.2.3,Win32,59.41770648,,,,,,,,,,,,,,,,,,,,,,,,,,,,,,,,,,,,,,,,,,,,,,,,,,,,,,,,,
,,,,left,1,0.3799,0,6,6,6,1,8,-200,left,653,2022-06-21_11h20.27.709,multiplicationStroop,2021.2.3,Win32,59.41770648,,,,,,,,,,,,,,,,,,,,,,,,,,,,,,,,,,,,,,,,,,,,,,,,,,,,,,,,,
,,,,right,1,0.3687,0,7,7,10,1,3,200,right,653,2022-06-21_11h20.27.709,multiplicationStroop,2021.2.3,Win32,59.41770648,,,,,,,,,,,,,,,,,,,,,,,,,,,,,,,,,,,,,,,,,,,,,,,,,,,,,,,,,
,,,,left,1,0.35,0,8,8,5,1,7,-200,left,653,2022-06-21_11h20.27.709,multiplicationStroop,2021.2.3,Win32,59.41770648,,,,,,,,,,,,,,,,,,,,,,,,,,,,,,,,,,,,,,,,,,,,,,,,,,,,,,,,,
,,,,left,1,0.3515,0,9,9,4,1,6,-200,left,653,2022-06-21_11h20.27.709,multiplicationStroop,2021.2.3,Win32,59.41770648,,,,,,,,,,,,,,,,,,,,,,,,,,,,,,,,,,,,,,,,,,,,,,,,,,,,,,,,,
,,,,left,1,0.3165,0,10,10,0,1,1,-200,left,653,2022-06-21_11h20.27.709,multiplicationStroop,2021.2.3,Win32,59.41770648,,,,,,,,,,,,,,,,,,,,,,,,,,,,,,,,,,,,,,,,,,,,,,,,,,,,,,,,,
,,,,right,1,0.3325,0,11,11,9,1,2,200,right,653,2022-06-21_11h20.27.709,multiplicationStroop,2021.2.3,Win32,59.41770648,,,,,,,,,,,,,,,,,,,,,,,,,,,,,,,,,,,,,,,,,,,,,,,,,,,,,,,,,
,,,,left,0,0.5519,0,12,12,12,1,6,200,right,653,2022-06-21_11h20.27.709,multiplicationStroop,2021.2.3,Win32,59.41770648,,,,,,,,,,,,,,,,,,,,,,,,,,,,,,,,,,,,,,,,,,,,,,,,,,,,,,,,,
,,,,right,1,0.5112,0,13,13,15,1,9,200,right,653,2022-06-21_11h20.27.709,multiplicationStroop,2021.2.3,Win32,59.41770648,,,,,,,,,,,,,,,,,,,,,,,,,,,,,,,,,,,,,,,,,,,,,,,,,,,,,,,,,
,,,,left,1,0.3467,0,14,14,7,1,9,-200,left,653,2022-06-21_11h20.27.709,multiplicationStroop,2021.2.3,Win32,59.41770648,,,,,,,,,,,,,,,,,,,,,,,,,,,,,,,,,,,,,,,,,,,,,,,,,,,,,,,,,
,,,,right,1,0.3457,0,15,15,13,1,7,200,right,653,2022-06-21_11h20.27.709,multiplicationStroop,2021.2.3,Win32,59.41770648,,,,,,,,,,,,,,,,,,,,,,,,,,,,,,,,,,,,,,,,,,,,,,,,,,,,,,,,,
,,,,right,1,0.4505,1,0,16,8,1,1,200,right,653,2022-06-21_11h20.27.709,multiplicationStroop,2021.2.3,Win32,59.41770648,,,,,,,,,,,,,,,,,,,,,,,,,,,,,,,,,,,,,,,,,,,,,,,,,,,,,,,,,
,,,,left,1,0.3294,1,1,17,2,1,3,-200,left,653,2022-06-21_11h20.27.709,multiplicationStroop,2021.2.3,Win32,59.41770648,,,,,,,,,,,,,,,,,,,,,,,,,,,,,,,,,,,,,,,,,,,,,,,,,,,,,,,,,
,,,,right,1,0.388,1,2,18,9,1,2,200,right,653,2022-06-21_11h20.27.709,multiplicationStroop,2021.2.3,Win32,59.41770648,,,,,,,,,,,,,,,,,,,,,,,,,,,,,,,,,,,,,,,,,,,,,,,,,,,,,,,,,
,,,,left,1,0.4107,1,3,19,0,1,1,-200,left,653,2022-06-21_11h20.27.709,multiplicationStroop,2021.2.3,Win32,59.41770648,,,,,,,,,,,,,,,,,,,,,,,,,,,,,,,,,,,,,,,,,,,,,,,,,,,,,,,,,
,,,,left,1,0.4285,1,4,20,1,1,2,-200,left,653,2022-06-21_11h20.27.709,multiplicationStroop,2021.2.3,Win32,59.41770648,,,,,,,,,,,,,,,,,,,,,,,,,,,,,,,,,,,,,,,,,,,,,,,,,,,,,,,,,
,,,,left,1,0.3486,1,5,21,3,1,4,-200,left,653,2022-06-21_11h20.27.709,multiplicationStroop,2021.2.3,Win32,59.41770648,,,,,,,,,,,,,,,,,,,,,,,,,,,,,,,,,,,,,,,,,,,,,,,,,,,,,,,,,
,,,,left,1,0.3945,1,6,22,7,1,9,-200,left,653,2022-06-21_11h20.27.709,multiplicationStroop,2021.2.3,Win32,59.41770648,,,,,,,,,,,,,,,,,,,,,,,,,,,,,,,,,,,,,,,,,,,,,,,,,,,,,,,,,
,,,,right,1,0.3696,1,7,23,14,1,8,200,right,653,2022-06-21_11h20.27.709,multiplicationStroop,2021.2.3,Win32,59.41770648,,,,,,,,,,,,,,,,,,,,,,,,,,,,,,,,,,,,,,,,,,,,,,,,,,,,,,,,,
,,,,right,1,0.4094,1,8,24,12,1,6,200,right,653,2022-06-21_11h20.27.709,multiplicationStroop,2021.2.3,Win32,59.41770648,,,,,,,,,,,,,,,,,,,,,,,,,,,,,,,,,,,,,,,,,,,,,,,,,,,,,,,,,
,,,,left,1,0.3183,1,9,25,4,1,6,-200,left,653,2022-06-21_11h20.27.709,multiplicationStroop,2021.2.3,Win32,59.41770648,,,,,,,,,,,,,,,,,,,,,,,,,,,,,,,,,,,,,,,,,,,,,,,,,,,,,,,,,
,,,,right,1,0.3256,1,10,26,13,1,7,200,right,653,2022-06-21_11h20.27.709,multiplicationStroop,2021.2.3,Win32,59.41770648,,,,,,,,,,,,,,,,,,,,,,,,,,,,,,,,,,,,,,,,,,,,,,,,,,,,,,,,,
,,,,right,1,0.4019,1,11,27,10,1,3,200,right,653,2022-06-21_11h20.27.709,multiplicationStroop,2021.2.3,Win32,59.41770648,,,,,,,,,,,,,,,,,,,,,,,,,,,,,,,,,,,,,,,,,,,,,,,,,,,,,,,,,
,,,,left,1,0.4279,1,12,28,5,1,7,-200,left,653,2022-06-21_11h20.27.709,multiplicationStroop,2021.2.3,Win32,59.41770648,,,,,,,,,,,,,,,,,,,,,,,,,,,,,,,,,,,,,,,,,,,,,,,,,,,,,,,,,
,,,,left,1,0.3686,1,13,29,6,1,8,-200,left,653,2022-06-21_11h20.27.709,multiplicationStroop,2021.2.3,Win32,59.41770648,,,,,,,,,,,,,,,,,,,,,,,,,,,,,,,,,,,,,,,,,,,,,,,,,,,,,,,,,
,,,,right,1,0.2866,1,14,30,15,1,9,200,right,653,2022-06-21_11h20.27.709,multiplicationStroop,2021.2.3,Win32,59.41770648,,,,,,,,,,,,,,,,,,,,,,,,,,,,,,,,,,,,,,,,,,,,,,,,,,,,,,,,,
,,,,right,1,0.3288,1,15,31,11,1,4,200,right,653,2022-06-21_11h20.27.709,multiplicationStroop,2021.2.3,Win32,59.41770648,,,,,,,,,,,,,,,,,,,,,,,,,,,,,,,,,,,,,,,,,,,,,,,,,,,,,,,,,
,,,,right,1,0.3448,2,0,32,10,1,3,200,right,653,2022-06-21_11h20.27.709,multiplicationStroop,2021.2.3,Win32,59.41770648,,,,,,,,,,,,,,,,,,,,,,,,,,,,,,,,,,,,,,,,,,,,,,,,,,,,,,,,,
,,,,left,1,0.3515,2,1,33,5,1,7,-200,left,653,2022-06-21_11h20.27.709,multiplicationStroop,2021.2.3,Win32,59.41770648,,,,,,,,,,,,,,,,,,,,,,,,,,,,,,,,,,,,,,,,,,,,,,,,,,,,,,,,,
,,,,left,1,0.3619,2,2,34,2,1,3,-200,left,653,2022-06-21_11h20.27.709,multiplicationStroop,2021.2.3,Win32,59.41770648,,,,,,,,,,,,,,,,,,,,,,,,,,,,,,,,,,,,,,,,,,,,,,,,,,,,,,,,,
,,,,left,1,0.3708,2,3,35,6,1,8,-200,left,653,2022-06-21_11h20.27.709,multiplicationStroop,2021.2.3,Win32,59.41770648,,,,,,,,,,,,,,,,,,,,,,,,,,,,,,,,,,,,,,,,,,,,,,,,,,,,,,,,,
,,,,left,1,0.4665,2,4,36,3,1,4,-200,left,653,2022-06-21_11h20.27.709,multiplicationStroop,2021.2.3,Win32,59.41770648,,,,,,,,,,,,,,,,,,,,,,,,,,,,,,,,,,,,,,,,,,,,,,,,,,,,,,,,,
,,,,left,1,0.4795,2,5,37,4,1,6,-200,left,653,2022-06-21_11h20.27.709,multiplicationStroop,2021.2.3,Win32,59.41770648,,,,,,,,,,,,,,,,,,,,,,,,,,,,,,,,,,,,,,,,,,,,,,,,,,,,,,,,,
,,,,right,1,0.4854,2,6,38,8,1,1,200,right,653,2022-06-21_11h20.27.709,multiplicationStroop,2021.2.3,Win32,59.41770648,,,,,,,,,,,,,,,,,,,,,,,,,,,,,,,,,,,,,,,,,,,,,,,,,,,,,,,,,
,,,,left,1,0.3099,2,7,39,0,1,1,-200,left,653,2022-06-21_11h20.27.709,multiplicationStroop,2021.2.3,Win32,59.41770648,,,,,,,,,,,,,,,,,,,,,,,,,,,,,,,,,,,,,,,,,,,,,,,,,,,,,,,,,
,,,,right,1,0.2837,2,8,40,11,1,4,200,right,653,2022-06-21_11h20.27.709,multiplicationStroop,2021.2.3,Win32,59.41770648,,,,,,,,,,,,,,,,,,,,,,,,,,,,,,,,,,,,,,,,,,,,,,,,,,,,,,,,,
,,,,left,1,0.3183,2,9,41,7,1,9,-200,left,653,2022-06-21_11h20.27.709,multiplicationStroop,2021.2.3,Win32,59.41770648,,,,,,,,,,,,,,,,,,,,,,,,,,,,,,,,,,,,,,,,,,,,,,,,,,,,,,,,,
,,,,left,1,0.3625,2,10,42,1,1,2,-200,left,653,2022-06-21_11h20.27.709,multiplicationStroop,2021.2.3,Win32,59.41770648,,,,,,,,,,,,,,,,,,,,,,,,,,,,,,,,,,,,,,,,,,,,,,,,,,,,,,,,,
,,,,right,1,0.3007,2,11,43,9,1,2,200,right,653,2022-06-21_11h20.27.709,multiplicationStroop,2021.2.3,Win32,59.41770648,,,,,,,,,,,,,,,,,,,,,,,,,,,,,,,,,,,,,,,,,,,,,,,,,,,,,,,,,
,,,,right,1,0.3873,2,12,44,15,1,9,200,right,653,2022-06-21_11h20.27.709,multiplicationStroop,2021.2.3,Win32,59.41770648,,,,,,,,,,,,,,,,,,,,,,,,,,,,,,,,,,,,,,,,,,,,,,,,,,,,,,,,,
,,,,right,1,0.3362,2,13,45,12,1,6,200,right,653,2022-06-21_11h20.27.709,multiplicationStroop,2021.2.3,Win32,59.41770648,,,,,,,,,,,,,,,,,,,,,,,,,,,,,,,,,,,,,,,,,,,,,,,,,,,,,,,,,
,,,,right,1,0.3282,2,14,46,14,1,8,200,right,653,2022-06-21_11h20.27.709,multiplicationStroop,2021.2.3,Win32,59.41770648,,,,,,,,,,,,,,,,,,,,,,,,,,,,,,,,,,,,,,,,,,,,,,,,,,,,,,,,,
,,,,right,1,0.2781,2,15,47,13,1,7,200,right,653,2022-06-21_11h20.27.709,multiplicationStroop,2021.2.3,Win32,59.41770648,,,,,,,,,,,,,,,,,,,,,,,,,,,,,,,,,,,,,,,,,,,,,,,,,,,,,,,,,
,,,,right,1,0.3041,3,0,48,13,1,7,200,right,653,2022-06-21_11h20.27.709,multiplicationStroop,2021.2.3,Win32,59.41770648,,,,,,,,,,,,,,,,,,,,,,,,,,,,,,,,,,,,,,,,,,,,,,,,,,,,,,,,,
,,,,left,1,0.4134,3,1,49,4,1,6,-200,left,653,2022-06-21_11h20.27.709,multiplicationStroop,2021.2.3,Win32,59.41770648,,,,,,,,,,,,,,,,,,,,,,,,,,,,,,,,,,,,,,,,,,,,,,,,,,,,,,,,,
,,,,right,1,0.3303,3,2,50,10,1,3,200,right,653,2022-06-21_11h20.27.709,multiplicationStroop,2021.2.3,Win32,59.41770648,,,,,,,,,,,,,,,,,,,,,,,,,,,,,,,,,,,,,,,,,,,,,,,,,,,,,,,,,
,,,,right,1,0.42,3,3,51,8,1,1,200,right,653,2022-06-21_11h20.27.709,multiplicationStroop,2021.2.3,Win32,59.41770648,,,,,,,,,,,,,,,,,,,,,,,,,,,,,,,,,,,,,,,,,,,,,,,,,,,,,,,,,
,,,,left,1,0.3552,3,4,52,0,1,1,-200,left,653,2022-06-21_11h20.27.709,multiplicationStroop,2021.2.3,Win32,59.41770648,,,,,,,,,,,,,,,,,,,,,,,,,,,,,,,,,,,,,,,,,,,,,,,,,,,,,,,,,
,,,,left,1,0.3294,3,5,53,6,1,8,-200,left,653,2022-06-21_11h20.27.709,multiplicationStroop,2021.2.3,Win32,59.41770648,,,,,,,,,,,,,,,,,,,,,,,,,,,,,,,,,,,,,,,,,,,,,,,,,,,,,,,,,
,,,,right,1,0.3617,3,6,54,11,1,4,200,right,653,2022-06-21_11h20.27.709,multiplicationStroop,2021.2.3,Win32,59.41770648,,,,,,,,,,,,,,,,,,,,,,,,,,,,,,,,,,,,,,,,,,,,,,,,,,,,,,,,,
,,,,left,1,0.3345,3,7,55,7,1,9,-200,left,653,2022-06-21_11h20.27.709,multiplicationStroop,2021.2.3,Win32,59.41770648,,,,,,,,,,,,,,,,,,,,,,,,,,,,,,,,,,,,,,,,,,,,,,,,,,,,,,,,,
,,,,right,1,0.2851,3,8,56,9,1,2,200,right,653,2022-06-21_11h20.27.709,multiplicationStroop,2021.2.3,Win32,59.41770648,,,,,,,,,,,,,,,,,,,,,,,,,,,,,,,,,,,,,,,,,,,,,,,,,,,,,,,,,
,,,,right,1,0.4461,3,9,57,12,1,6,200,right,653,2022-06-21_11h20.27.709,multiplicationStroop,2021.2.3,Win32,59.41770648,,,,,,,,,,,,,,,,,,,,,,,,,,,,,,,,,,,,,,,,,,,,,,,,,,,,,,,,,
,,,,left,1,0.4331,3,10,58,5,1,7,-200,left,653,2022-06-21_11h20.27.709,multiplicationStroop,2021.2.3,Win32,59.41770648,,,,,,,,,,,,,,,,,,,,,,,,,,,,,,,,,,,,,,,,,,,,,,,,,,,,,,,,,
,,,,left,1,0.5011,3,11,59,3,1,4,-200,left,653,2022-06-21_11h20.27.709,multiplicationStroop,2021.2.3,Win32,59.41770648,,,,,,,,,,,,,,,,,,,,,,,,,,,,,,,,,,,,,,,,,,,,,,,,,,,,,,,,,
,,,,right,1,0.4626,3,12,60,14,1,8,200,right,653,2022-06-21_11h20.27.709,multiplicationStroop,2021.2.3,Win32,59.41770648,,,,,,,,,,,,,,,,,,,,,,,,,,,,,,,,,,,,,,,,,,,,,,,,,,,,,,,,,
,,,,right,1,0.3503,3,13,61,15,1,9,200,right,653,2022-06-21_11h20.27.709,multiplicationStroop,2021.2.3,Win32,59.41770648,,,,,,,,,,,,,,,,,,,,,,,,,,,,,,,,,,,,,,,,,,,,,,,,,,,,,,,,,
,,,,left,1,0.3615,3,14,62,2,1,3,-200,left,653,2022-06-21_11h20.27.709,multiplicationStroop,2021.2.3,Win32,59.41770648,,,,,,,,,,,,,,,,,,,,,,,,,,,,,,,,,,,,,,,,,,,,,,,,,,,,,,,,,
,,,,right,0,0.3345,3,15,63,1,1,2,-200,left,653,2022-06-21_11h20.27.709,multiplicationStroop,2021.2.3,Win32,59.41770648,,,,,,,,,,,,,,,,,,,,,,,,,,,,,,,,,,,,,,,,,,,,,,,,,,,,,,,,,
,,,,,,,,,,,,,,,653,2022-06-21_11h20.27.709,multiplicationStroop,2021.2.3,Win32,59.41770648,space,1.2752,space,2.1999,left,1,0.4788,0,0,0,4,1,2,1,2 | 1,1,1.9756,1.4111,congruent,left,,,,,,stimulusFile/magnitude.xlsx,,,,,,,,,,,,,,,,,,,,,,,,,,,,,,,
,,,,,,,,,,,,,,,653,2022-06-21_11h20.27.709,multiplicationStroop,2021.2.3,Win32,59.41770648,,,,,right,0,0.529,0,1,1,38,1,8,6,8 | 6,2,1.4111,1.9756,incongruent,left,,,,,,stimulusFile/magnitude.xlsx,,,,,,,,,,,,,,,,,,,,,,,,,,,,,,,
,,,,,,,,,,,,,,,653,2022-06-21_11h20.27.709,multiplicationStroop,2021.2.3,Win32,59.41770648,,,,,left,0,0.7142,0,2,2,64,1,1,6,1 | 6,5,1.6933,1.6933,neutral,right,,,,,,stimulusFile/magnitude.xlsx,,,,,,,,,,,,,,,,,,,,,,,,,,,,,,,
,,,,,,,,,,,,,,,653,2022-06-21_11h20.27.709,multiplicationStroop,2021.2.3,Win32,59.41770648,,,,,left,1,0.4678,0,3,3,52,1,2,1,2 | 1,1,1.6933,1.6933,neutral,left,,,,,,stimulusFile/magnitude.xlsx,,,,,,,,,,,,,,,,,,,,,,,,,,,,,,,
,,,,,,,,,,,,,,,653,2022-06-21_11h20.27.709,multiplicationStroop,2021.2.3,Win32,59.41770648,,,,,right,0,0.5327,0,4,4,45,1,7,2,7 | 2,5,1.4111,1.9756,incongruent,left,,,,,,stimulusFile/magnitude.xlsx,,,,,,,,,,,,,,,,,,,,,,,,,,,,,,,
,,,,,,,,,,,,,,,653,2022-06-21_11h20.27.709,multiplicationStroop,2021.2.3,Win32,59.41770648,,,,,left,0,0.4466,0,5,5,33,1,2,4,2 | 4,2,1.9756,1.4111,incongruent,right,,,,,,stimulusFile/magnitude.xlsx,,,,,,,,,,,,,,,,,,,,,,,,,,,,,,,
,,,,,,,,,,,,,,,653,2022-06-21_11h20.27.709,multiplicationStroop,2021.2.3,Win32,59.41770648,,,,,left,1,0.3974,0,6,6,28,1,2,1,2 | 1,1,1.4111,1.9756,incongruent,left,,,,,,stimulusFile/magnitude.xlsx,,,,,,,,,,,,,,,,,,,,,,,,,,,,,,,
,,,,,,,,,,,,,,,653,2022-06-21_11h20.27.709,multiplicationStroop,2021.2.3,Win32,59.41770648,,,,,left,1,0.987,0,7,7,62,1,8,6,8 | 6,2,1.6933,1.6933,neutral,left,,,,,,stimulusFile/magnitude.xlsx,,,,,,,,,,,,,,,,,,,,,,,,,,,,,,,
,,,,,,,,,,,,,,,653,2022-06-21_11h20.27.709,multiplicationStroop,2021.2.3,Win32,59.41770648,,,,,right,0,0.8806,0,8,8,71,1,9,4,9 | 4,5,1.6933,1.6933,neutral,left,,,,,,stimulusFile/magnitude.xlsx,,,,,,,,,,,,,,,,,,,,,,,,,,,,,,,
,,,,,,,,,,,,,,,653,2022-06-21_11h20.27.709,multiplicationStroop,2021.2.3,Win32,59.41770648,,,,,right,1,0.6812,0,9,9,16,1,1,6,1 | 6,5,1.4111,1.9756,congruent,right,,,,,,stimulusFile/magnitude.xlsx,,,,,,,,,,,,,,,,,,,,,,,,,,,,,,,
,,,,,,,,,,,,,,,653,2022-06-21_11h20.27.709,multiplicationStroop,2021.2.3,Win32,59.41770648,,,,,left,1,0.5305,0,10,10,61,1,4,2,4 | 2,2,1.6933,1.6933,neutral,left,,,,,,stimulusFile/magnitude.xlsx,,,,,,,,,,,,,,,,,,,,,,,,,,,,,,,
,,,,,,,,,,,,,,,653,2022-06-21_11h20.27.709,multiplicationStroop,2021.2.3,Win32,59.41770648,,,,,right,0,0.6479,0,11,11,44,1,6,1,6 | 1,5,1.4111,1.9756,incongruent,left,,,,,,stimulusFile/magnitude.xlsx,,,,,,,,,,,,,,,,,,,,,,,,,,,,,,,
,,,,,,,,,,,,,,,653,2022-06-21_11h20.27.709,multiplicationStroop,2021.2.3,Win32,59.41770648,,,,,left,0,0.4815,0,12,12,41,1,2,7,2 | 7,5,1.9756,1.4111,incongruent,right,,,,,,stimulusFile/magnitude.xlsx,,,,,,,,,,,,,,,,,,,,,,,,,,,,,,,
,,,,,,,,,,,,,,,653,2022-06-21_11h20.27.709,multiplicationStroop,2021.2.3,Win32,59.41770648,,,,,right,1,0.4806,0,13,13,19,1,4,9,4 | 9,5,1.4111,1.9756,congruent,right,,,,,,stimulusFile/magnitude.xlsx,,,,,,,,,,,,,,,,,,,,,,,,,,,,,,,
,,,,,,,,,,,,,,,653,2022-06-21_11h20.27.709,multiplicationStroop,2021.2.3,Win32,59.41770648,,,,,right,0,0.7997,0,14,14,31,1,9,8,9 | 8,1,1.4111,1.9756,incongruent,left,,,,,,stimulusFile/magnitude.xlsx,,,,,,,,,,,,,,,,,,,,,,,,,,,,,,,
,,,,,,,,,,,,,,,653,2022-06-21_11h20.27.709,multiplicationStroop,2021.2.3,Win32,59.41770648,,,,,left,1,0.6477,0,15,15,63,1,9,7,9 | 7,2,1.6933,1.6933,neutral,left,,,,,,stimulusFile/magnitude.xlsx,,,,,,,,,,,,,,,,,,,,,,,,,,,,,,,
,,,,,,,,,,,,,,,653,2022-06-21_11h20.27.709,multiplicationStroop,2021.2.3,Win32,59.41770648,,,,,right,1,0.4809,0,16,16,0,1,1,2,1 | 2,1,1.4111,1.9756,congruent,right,,,,,,stimulusFile/magnitude.xlsx,,,,,,,,,,,,,,,,,,,,,,,,,,,,,,,
,,,,,,,,,,,,,,,653,2022-06-21_11h20.27.709,multiplicationStroop,2021.2.3,Win32,59.41770648,,,,,left,1,0.5476,0,17,17,69,1,7,2,7 | 2,5,1.6933,1.6933,neutral,left,,,,,,stimulusFile/magnitude.xlsx,,,,,,,,,,,,,,,,,,,,,,,,,,,,,,,
,,,,,,,,,,,,,,,653,2022-06-21_11h20.27.709,multiplicationStroop,2021.2.3,Win32,59.41770648,,,,,right,1,0.4652,0,18,18,3,1,8,9,8 | 9,1,1.4111,1.9756,congruent,right,,,,,,stimulusFile/magnitude.xlsx,,,,,,,,,,,,,,,,,,,,,,,,,,,,,,,
,,,,,,,,,,,,,,,653,2022-06-21_11h20.27.709,multiplicationStroop,2021.2.3,Win32,59.41770648,,,,,left,0,0.6018,0,19,19,40,1,1,6,1 | 6,5,1.9756,1.4111,incongruent,right,,,,,,stimulusFile/magnitude.xlsx,,,,,,,,,,,,,,,,,,,,,,,,,,,,,,,
,,,,,,,,,,,,,,,653,2022-06-21_11h20.27.709,multiplicationStroop,2021.2.3,Win32,59.41770648,,,,,right,1,0.4988,0,20,20,51,1,8,9,8 | 9,1,1.6933,1.6933,neutral,right,,,,,,stimulusFile/magnitude.xlsx,,,,,,,,,,,,,,,,,,,,,,,,,,,,,,,
,,,,,,,,,,,,,,,653,2022-06-21_11h20.27.709,multiplicationStroop,2021.2.3,Win32,59.41770648,,,,,left,1,0.4632,0,21,21,14,1,8,6,8 | 6,2,1.9756,1.4111,congruent,left,,,,,,stimulusFile/magnitude.xlsx,,,,,,,,,,,,,,,,,,,,,,,,,,,,,,,
,,,,,,,,,,,,,,,653,2022-06-21_11h20.27.709,multiplicationStroop,2021.2.3,Win32,59.41770648,,,,,left,1,0.5314,0,22,22,23,1,9,4,9 | 4,5,1.9756,1.4111,congruent,left,,,,,,stimulusFile/magnitude.xlsx,,,,,,,,,,,,,,,,,,,,,,,,,,,,,,,
,,,,,,,,,,,,,,,653,2022-06-21_11h20.27.709,multiplicationStroop,2021.2.3,Win32,59.41770648,,,,,left,1,0.5715,0,23,23,15,1,9,7,9 | 7,2,1.9756,1.4111,congruent,left,,,,,,stimulusFile/magnitude.xlsx,,,,,,,,,,,,,,,,,,,,,,,,,,,,,,,
,,,,,,,,,,,,,,,653,2022-06-21_11h20.27.709,multiplicationStroop,2021.2.3,Win32,59.41770648,,,,,right,1,0.7294,0,24,24,59,1,7,9,7 | 9,2,1.6933,1.6933,neutral,right,,,,,,stimulusFile/magnitude.xlsx,,,,,,,,,,,,,,,,,,,,,,,,,,,,,,,
,,,,,,,,,,,,,,,653,2022-06-21_11h20.27.709,multiplicationStroop,2021.2.3,Win32,59.41770648,,,,,right,0,0.931,0,25,25,37,1,4,2,4 | 2,2,1.4111,1.9756,incongruent,left,,,,,,stimulusFile/magnitude.xlsx,,,,,,,,,,,,,,,,,,,,,,,,,,,,,,,
,,,,,,,,,,,,,,,653,2022-06-21_11h20.27.709,multiplicationStroop,2021.2.3,Win32,59.41770648,,,,,right,0,0.684,0,26,26,29,1,4,3,4 | 3,1,1.4111,1.9756,incongruent,left,,,,,,stimulusFile/magnitude.xlsx,,,,,,,,,,,,,,,,,,,,,,,,,,,,,,,
,,,,,,,,,,,,,,,653,2022-06-21_11h20.27.709,multiplicationStroop,2021.2.3,Win32,59.41770648,,,,,left,1,0.514,0,27,27,54,1,7,6,7 | 6,1,1.6933,1.6933,neutral,left,,,,,,stimulusFile/magnitude.xlsx,,,,,,,,,,,,,,,,,,,,,,,,,,,,,,,
,,,,,,,,,,,,,,,653,2022-06-21_11h20.27.709,multiplicationStroop,2021.2.3,Win32,59.41770648,,,,,right,0,0.5814,0,28,28,46,1,8,3,8 | 3,5,1.4111,1.9756,incongruent,left,,,,,,stimulusFile/magnitude.xlsx,,,,,,,,,,,,,,,,,,,,,,,,,,,,,,,
,,,,,,,,,,,,,,,653,2022-06-21_11h20.27.709,multiplicationStroop,2021.2.3,Win32,59.41770648,,,,,right,0,0.8147,0,29,29,47,1,9,4,9 | 4,5,1.4111,1.9756,incongruent,left,,,,,,stimulusFile/magnitude.xlsx,,,,,,,,,,,,,,,,,,,,,,,,,,,,,,,
,,,,,,,,,,,,,,,653,2022-06-21_11h20.27.709,multiplicationStroop,2021.2.3,Win32,59.41770648,,,,,left,1,0.5976,0,30,30,20,1,6,1,6 | 1,5,1.9756,1.4111,congruent,left,,,,,,stimulusFile/magnitude.xlsx,,,,,,,,,,,,,,,,,,,,,,,,,,,,,,,
,,,,,,,,,,,,,,,653,2022-06-21_11h20.27.709,multiplicationStroop,2021.2.3,Win32,59.41770648,,,,,left,0,0.433,0,31,31,34,1,6,8,6 | 8,2,1.9756,1.4111,incongruent,right,,,,,,stimulusFile/magnitude.xlsx,,,,,,,,,,,,,,,,,,,,,,,,,,,,,,,
,,,,,,,,,,,,,,,653,2022-06-21_11h20.27.709,multiplicationStroop,2021.2.3,Win32,59.41770648,,,,,right,1,0.5155,0,32,32,56,1,1,3,1 | 3,2,1.6933,1.6933,neutral,right,,,,,,stimulusFile/magnitude.xlsx,,,,,,,,,,,,,,,,,,,,,,,,,,,,,,,
,,,,,,,,,,,,,,,653,2022-06-21_11h20.27.709,multiplicationStroop,2021.2.3,Win32,59.41770648,,,,,left,1,0.5809,0,33,33,55,1,9,8,9 | 8,1,1.6933,1.6933,neutral,left,,,,,,stimulusFile/magnitude.xlsx,,,,,,,,,,,,,,,,,,,,,,,,,,,,,,,
,,,,,,,,,,,,,,,653,2022-06-21_11h20.27.709,multiplicationStroop,2021.2.3,Win32,59.41770648,,,,,left,0,0.5955,0,34,34,32,1,1,3,1 | 3,2,1.9756,1.4111,incongruent,right,,,,,,stimulusFile/magnitude.xlsx,,,,,,,,,,,,,,,,,,,,,,,,,,,,,,,
,,,,,,,,,,,,,,,653,2022-06-21_11h20.27.709,multiplicationStroop,2021.2.3,Win32,59.41770648,,,,,left,0,0.668,0,35,35,24,1,1,2,1 | 2,1,1.9756,1.4111,incongruent,right,,,,,,stimulusFile/magnitude.xlsx,,,,,,,,,,,,,,,,,,,,,,,,,,,,,,,
,,,,,,,,,,,,,,,653,2022-06-21_11h20.27.709,multiplicationStroop,2021.2.3,Win32,59.41770648,,,,,left,1,2.4644,0,36,36,5,1,4,3,4 | 3,1,1.9756,1.4111,congruent,left,,,,,,stimulusFile/magnitude.xlsx,,,,,,,,,,,,,,,,,,,,,,,,,,,,,,,
,,,,,,,,,,,,,,,653,2022-06-21_11h20.27.709,multiplicationStroop,2021.2.3,Win32,59.41770648,,,,,left,0,0.6146,0,37,37,42,1,3,8,3 | 8,5,1.9756,1.4111,incongruent,right,,,,,,stimulusFile/magnitude.xlsx,,,,,,,,,,,,,,,,,,,,,,,,,,,,,,,
,,,,,,,,,,,,,,,653,2022-06-21_11h20.27.709,multiplicationStroop,2021.2.3,Win32,59.41770648,,,,,right,1,0.5983,0,38,38,67,1,4,9,4 | 9,5,1.6933,1.6933,neutral,right,,,,,,stimulusFile/magnitude.xlsx,,,,,,,,,,,,,,,,,,,,,,,,,,,,,,,
,,,,,,,,,,,,,,,653,2022-06-21_11h20.27.709,multiplicationStroop,2021.2.3,Win32,59.41770648,,,,,right,1,0.632,0,39,39,10,1,6,8,6 | 8,2,1.4111,1.9756,congruent,right,,,,,,stimulusFile/magnitude.xlsx,,,,,,,,,,,,,,,,,,,,,,,,,,,,,,,
,,,,,,,,,,,,,,,653,2022-06-21_11h20.27.709,multiplicationStroop,2021.2.3,Win32,59.41770648,,,,,right,1,0.4376,0,40,40,2,1,6,7,6 | 7,1,1.4111,1.9756,congruent,right,,,,,,stimulusFile/magnitude.xlsx,,,,,,,,,,,,,,,,,,,,,,,,,,,,,,,
,,,,,,,,,,,,,,,653,2022-06-21_11h20.27.709,multiplicationStroop,2021.2.3,Win32,59.41770648,,,,,right,1,0.4537,0,41,41,18,1,3,8,3 | 8,5,1.4111,1.9756,congruent,right,,,,,,stimulusFile/magnitude.xlsx,,,,,,,,,,,,,,,,,,,,,,,,,,,,,,,
,,,,,,,,,,,,,,,653,2022-06-21_11h20.27.709,multiplicationStroop,2021.2.3,Win32,59.41770648,,,,,right,1,0.5147,0,42,42,66,1,3,8,3 | 8,5,1.6933,1.6933,neutral,right,,,,,,stimulusFile/magnitude.xlsx,,,,,,,,,,,,,,,,,,,,,,,,,,,,,,,
,,,,,,,,,,,,,,,653,2022-06-21_11h20.27.709,multiplicationStroop,2021.2.3,Win32,59.41770648,,,,,right,0,0.6154,0,43,43,30,1,7,6,7 | 6,1,1.4111,1.9756,incongruent,left,,,,,,stimulusFile/magnitude.xlsx,,,,,,,,,,,,,,,,,,,,,,,,,,,,,,,
,,,,,,,,,,,,,,,653,2022-06-21_11h20.27.709,multiplicationStroop,2021.2.3,Win32,59.41770648,,,,,right,1,0.6955,0,44,44,50,1,6,7,6 | 7,1,1.6933,1.6933,neutral,right,,,,,,stimulusFile/magnitude.xlsx,,,,,,,,,,,,,,,,,,,,,,,,,,,,,,,
,,,,,,,,,,,,,,,653,2022-06-21_11h20.27.709,multiplicationStroop,2021.2.3,Win32,59.41770648,,,,,right,1,0.7974,0,45,45,11,1,7,9,7 | 9,2,1.4111,1.9756,congruent,right,,,,,,stimulusFile/magnitude.xlsx,,,,,,,,,,,,,,,,,,,,,,,,,,,,,,,
,,,,,,,,,,,,,,,653,2022-06-21_11h20.27.709,multiplicationStroop,2021.2.3,Win32,59.41770648,,,,,left,1,0.5806,0,46,46,7,1,9,8,9 | 8,1,1.9756,1.4111,congruent,left,,,,,,stimulusFile/magnitude.xlsx,,,,,,,,,,,,,,,,,,,,,,,,,,,,,,,
,,,,,,,,,,,,,,,653,2022-06-21_11h20.27.709,multiplicationStroop,2021.2.3,Win32,59.41770648,,,,,left,0,0.5801,0,47,47,26,1,6,7,6 | 7,1,1.9756,1.4111,incongruent,right,,,,,,stimulusFile/magnitude.xlsx,,,,,,,,,,,,,,,,,,,,,,,,,,,,,,,
,,,,,,,,,,,,,,,653,2022-06-21_11h20.27.709,multiplicationStroop,2021.2.3,Win32,59.41770648,,,,,left,0,0.7489,0,48,48,35,1,7,9,7 | 9,2,1.9756,1.4111,incongruent,right,,,,,,stimulusFile/magnitude.xlsx,,,,,,,,,,,,,,,,,,,,,,,,,,,,,,,
,,,,,,,,,,,,,,,653,2022-06-21_11h20.27.709,multiplicationStroop,2021.2.3,Win32,59.41770648,,,,,right,1,0.5477,0,49,49,1,1,3,4,3 | 4,1,1.4111,1.9756,congruent,right,,,,,,stimulusFile/magnitude.xlsx,,,,,,,,,,,,,,,,,,,,,,,,,,,,,,,
,,,,,,,,,,,,,,,653,2022-06-21_11h20.27.709,multiplicationStroop,2021.2.3,Win32,59.41770648,,,,,left,1,0.4485,0,50,50,6,1,7,6,7 | 6,1,1.9756,1.4111,congruent,left,,,,,,stimulusFile/magnitude.xlsx,,,,,,,,,,,,,,,,,,,,,,,,,,,,,,,
,,,,,,,,,,,,,,,653,2022-06-21_11h20.27.709,multiplicationStroop,2021.2.3,Win32,59.41770648,,,,,left,1,0.4981,0,51,51,39,1,9,7,9 | 7,2,1.4111,1.9756,incongruent,left,,,,,,stimulusFile/magnitude.xlsx,,,,,,,,,,,,,,,,,,,,,,,,,,,,,,,
,,,,,,,,,,,,,,,653,2022-06-21_11h20.27.709,multiplicationStroop,2021.2.3,Win32,59.41770648,,,,,right,1,0.6641,0,52,52,9,1,2,4,2 | 4,2,1.4111,1.9756,congruent,right,,,,,,stimulusFile/magnitude.xlsx,,,,,,,,,,,,,,,,,,,,,,,,,,,,,,,
,,,,,,,,,,,,,,,653,2022-06-21_11h20.27.709,multiplicationStroop,2021.2.3,Win32,59.41770648,,,,,right,1,0.5146,0,53,53,65,1,2,7,2 | 7,5,1.6933,1.6933,neutral,right,,,,,,stimulusFile/magnitude.xlsx,,,,,,,,,,,,,,,,,,,,,,,,,,,,,,,
,,,,,,,,,,,,,,,653,2022-06-21_11h20.27.709,multiplicationStroop,2021.2.3,Win32,59.41770648,,,,,left,1,0.8141,0,54,54,60,1,3,1,3 | 1,2,1.6933,1.6933,neutral,left,,,,,,stimulusFile/magnitude.xlsx,,,,,,,,,,,,,,,,,,,,,,,,,,,,,,,
,,,,,,,,,,,,,,,653,2022-06-21_11h20.27.709,multiplicationStroop,2021.2.3,Win32,59.41770648,,,,,right,1,0.4328,0,55,55,49,1,3,4,3 | 4,1,1.6933,1.6933,neutral,right,,,,,,stimulusFile/magnitude.xlsx,,,,,,,,,,,,,,,,,,,,,,,,,,,,,,,
,,,,,,,,,,,,,,,653,2022-06-21_11h20.27.709,multiplicationStroop,2021.2.3,Win32,59.41770648,,,,,left,1,0.5135,0,56,56,12,1,3,1,3 | 1,2,1.9756,1.4111,congruent,left,,,,,,stimulusFile/magnitude.xlsx,,,,,,,,,,,,,,,,,,,,,,,,,,,,,,,
,,,,,,,,,,,,,,,653,2022-06-21_11h20.27.709,multiplicationStroop,2021.2.3,Win32,59.41770648,,,,,left,1,0.6477,0,57,57,21,1,7,2,7 | 2,5,1.9756,1.4111,congruent,left,,,,,,stimulusFile/magnitude.xlsx,,,,,,,,,,,,,,,,,,,,,,,,,,,,,,,
,,,,,,,,,,,,,,,653,2022-06-21_11h20.27.709,multiplicationStroop,2021.2.3,Win32,59.41770648,,,,,right,1,0.6,0,58,58,17,1,2,7,2 | 7,5,1.4111,1.9756,congruent,right,,,,,,stimulusFile/magnitude.xlsx,,,,,,,,,,,,,,,,,,,,,,,,,,,,,,,
,,,,,,,,,,,,,,,653,2022-06-21_11h20.27.709,multiplicationStroop,2021.2.3,Win32,59.41770648,,,,,left,1,0.5145,0,59,59,22,1,8,3,8 | 3,5,1.9756,1.4111,congruent,left,,,,,,stimulusFile/magnitude.xlsx,,,,,,,,,,,,,,,,,,,,,,,,,,,,,,,
,,,,,,,,,,,,,,,653,2022-06-21_11h20.27.709,multiplicationStroop,2021.2.3,Win32,59.41770648,,,,,left,1,0.653,0,60,60,68,1,6,1,6 | 1,5,1.6933,1.6933,neutral,left,,,,,,stimulusFile/magnitude.xlsx,,,,,,,,,,,,,,,,,,,,,,,,,,,,,,,
,,,,,,,,,,,,,,,653,2022-06-21_11h20.27.709,multiplicationStroop,2021.2.3,Win32,59.41770648,,,,,right,1,0.5979,0,61,61,48,1,1,2,1 | 2,1,1.6933,1.6933,neutral,right,,,,,,stimulusFile/magnitude.xlsx,,,,,,,,,,,,,,,,,,,,,,,,,,,,,,,
,,,,,,,,,,,,,,,653,2022-06-21_11h20.27.709,multiplicationStroop,2021.2.3,Win32,59.41770648,,,,,left,0,0.615,0,62,62,27,1,8,9,8 | 9,1,1.9756,1.4111,incongruent,right,,,,,,stimulusFile/magnitude.xlsx,,,,,,,,,,,,,,,,,,,,,,,,,,,,,,,
,,,,,,,,,,,,,,,653,2022-06-21_11h20.27.709,multiplicationStroop,2021.2.3,Win32,59.41770648,,,,,right,1,0.948,0,63,63,57,1,2,4,2 | 4,2,1.6933,1.6933,neutral,right,,,,,,stimulusFile/magnitude.xlsx,,,,,,,,,,,,,,,,,,,,,,,,,,,,,,,
,,,,,,,,,,,,,,,653,2022-06-21_11h20.27.709,multiplicationStroop,2021.2.3,Win32,59.41770648,,,,,left,0,0.6341,0,64,64,25,1,3,4,3 | 4,1,1.9756,1.4111,incongruent,right,,,,,,stimulusFile/magnitude.xlsx,,,,,,,,,,,,,,,,,,,,,,,,,,,,,,,
,,,,,,,,,,,,,,,653,2022-06-21_11h20.27.709,multiplicationStroop,2021.2.3,Win32,59.41770648,,,,,left,1,0.5139,0,65,65,70,1,8,3,8 | 3,5,1.6933,1.6933,neutral,left,,,,,,stimulusFile/magnitude.xlsx,,,,,,,,,,,,,,,,,,,,,,,,,,,,,,,
,,,,,,,,,,,,,,,653,2022-06-21_11h20.27.709,multiplicationStroop,2021.2.3,Win32,59.41770648,,,,,left,1,0.4137,0,66,66,13,1,4,2,4 | 2,2,1.9756,1.4111,congruent,left,,,,,,stimulusFile/magnitude.xlsx,,,,,,,,,,,,,,,,,,,,,,,,,,,,,,,
,,,,,,,,,,,,,,,653,2022-06-21_11h20.27.709,multiplicationStroop,2021.2.3,Win32,59.41770648,,,,,left,1,0.5458,0,67,67,53,1,4,3,4 | 3,1,1.6933,1.6933,neutral,left,,,,,,stimulusFile/magnitude.xlsx,,,,,,,,,,,,,,,,,,,,,,,,,,,,,,,
,,,,,,,,,,,,,,,653,2022-06-21_11h20.27.709,multiplicationStroop,2021.2.3,Win32,59.41770648,,,,,right,1,0.53,0,68,68,8,1,1,3,1 | 3,2,1.4111,1.9756,congruent,right,,,,,,stimulusFile/magnitude.xlsx,,,,,,,,,,,,,,,,,,,,,,,,,,,,,,,
,,,,,,,,,,,,,,,653,2022-06-21_11h20.27.709,multiplicationStroop,2021.2.3,Win32,59.41770648,,,,,left,1,0.5498,0,69,69,36,1,3,1,3 | 1,2,1.4111,1.9756,incongruent,left,,,,,,stimulusFile/magnitude.xlsx,,,,,,,,,,,,,,,,,,,,,,,,,,,,,,,
,,,,,,,,,,,,,,,653,2022-06-21_11h20.27.709,multiplicationStroop,2021.2.3,Win32,59.41770648,,,,,left,0,0.6479,0,70,70,43,1,4,9,4 | 9,5,1.9756,1.4111,incongruent,right,,,,,,stimulusFile/magnitude.xlsx,,,,,,,,,,,,,,,,,,,,,,,,,,,,,,,
,,,,,,,,,,,,,,,653,2022-06-21_11h20.27.709,multiplicationStroop,2021.2.3,Win32,59.41770648,,,,,right,1,0.4989,0,71,71,58,1,6,8,6 | 8,2,1.6933,1.6933,neutral,right,,,,,,stimulusFile/magnitude.xlsx,,,,,,,,,,,,,,,,,,,,,,,,,,,,,,,
,,,,,,,,,,,,,,,653,2022-06-21_11h20.27.709,multiplicationStroop,2021.2.3,Win32,59.41770648,,,,,,,,,,,,,,,,,,,,,0,0,0,0,1,stimulusFile/magnitude.xlsx,NUMERICALLY larger (larger coefficient).,images/numericallyLarger.png,,,,,,,,,,,,,,,,,,,,,,,,,,,,,
,,,,,,,,,,,,,,,653,2022-06-21_11h20.27.709,multiplicationStroop,2021.2.3,Win32,59.41770648,space,1.4318,space,2.1871,right,1,0.5342,0,0,0,9,1,2,4,2 | 4,2,1.4111,1.9756,congruent,right,,,,,,stimulusFile/physical.xlsx,,,,,,,,,,,,,,,,,,,,,,,,,,,,,,,
,,,,,,,,,,,,,,,653,2022-06-21_11h20.27.709,multiplicationStroop,2021.2.3,Win32,59.41770648,,,,,left,1,0.5022,0,1,1,6,1,7,6,7 | 6,1,1.9756,1.4111,congruent,left,,,,,,stimulusFile/physical.xlsx,,,,,,,,,,,,,,,,,,,,,,,,,,,,,,,
,,,,,,,,,,,,,,,653,2022-06-21_11h20.27.709,multiplicationStroop,2021.2.3,Win32,59.41770648,,,,,right,1,0.4523,0,2,2,8,1,1,3,1 | 3,2,1.4111,1.9756,congruent,right,,,,,,stimulusFile/physical.xlsx,,,,,,,,,,,,,,,,,,,,,,,,,,,,,,,
,,,,,,,,,,,,,,,653,2022-06-21_11h20.27.709,multiplicationStroop,2021.2.3,Win32,59.41770648,,,,,right,1,0.4186,0,3,3,45,1,7,2,7 | 2,5,1.4111,1.9756,incongruent,right,,,,,,stimulusFile/physical.xlsx,,,,,,,,,,,,,,,,,,,,,,,,,,,,,,,
,,,,,,,,,,,,,,,653,2022-06-21_11h20.27.709,multiplicationStroop,2021.2.3,Win32,59.41770648,,,,,left,1,0.4683,0,4,4,27,1,8,9,8 | 9,1,1.9756,1.4111,incongruent,left,,,,,,stimulusFile/physical.xlsx,,,,,,,,,,,,,,,,,,,,,,,,,,,,,,,
,,,,,,,,,,,,,,,653,2022-06-21_11h20.27.709,multiplicationStroop,2021.2.3,Win32,59.41770648,,,,,left,1,0.5013,0,5,5,49,1,3,3,3 | 3,0,1.9756,1.4111,neutral,left,,,,,,stimulusFile/physical.xlsx,,,,,,,,,,,,,,,,,,,,,,,,,,,,,,,
,,,,,,,,,,,,,,,653,2022-06-21_11h20.27.709,multiplicationStroop,2021.2.3,Win32,59.41770648,,,,,right,1,0.5391,0,6,6,36,1,3,1,3 | 1,2,1.4111,1.9756,incongruent,right,,,,,,stimulusFile/physical.xlsx,,,,,,,,,,,,,,,,,,,,,,,,,,,,,,,
,,,,,,,,,,,,,,,653,2022-06-21_11h20.27.709,multiplicationStroop,2021.2.3,Win32,59.41770648,,,,,right,1,0.5518,0,7,7,17,1,2,7,2 | 7,5,1.4111,1.9756,congruent,right,,,,,,stimulusFile/physical.xlsx,,,,,,,,,,,,,,,,,,,,,,,,,,,,,,,
,,,,,,,,,,,,,,,653,2022-06-21_11h20.27.709,multiplicationStroop,2021.2.3,Win32,59.41770648,,,,,right,1,0.5513,0,8,8,39,1,9,7,9 | 7,2,1.4111,1.9756,incongruent,right,,,,,,stimulusFile/physical.xlsx,,,,,,,,,,,,,,,,,,,,,,,,,,,,,,,
,,,,,,,,,,,,,,,653,2022-06-21_11h20.27.709,multiplicationStroop,2021.2.3,Win32,59.41770648,,,,,left,1,0.6518,0,9,9,24,1,1,2,1 | 2,1,1.9756,1.4111,incongruent,left,,,,,,stimulusFile/physical.xlsx,,,,,,,,,,,,,,,,,,,,,,,,,,,,,,,
,,,,,,,,,,,,,,,653,2022-06-21_11h20.27.709,multiplicationStroop,2021.2.3,Win32,59.41770648,,,,,left,1,0.5848,0,10,10,22,1,8,3,8 | 3,5,1.9756,1.4111,congruent,left,,,,,,stimulusFile/physical.xlsx,,,,,,,,,,,,,,,,,,,,,,,,,,,,,,,
,,,,,,,,,,,,,,,653,2022-06-21_11h20.27.709,multiplicationStroop,2021.2.3,Win32,59.41770648,,,,,left,1,0.4863,0,11,11,23,1,9,4,9 | 4,5,1.9756,1.4111,congruent,left,,,,,,stimulusFile/physical.xlsx,,,,,,,,,,,,,,,,,,,,,,,,,,,,,,,
,,,,,,,,,,,,,,,653,2022-06-21_11h20.27.709,multiplicationStroop,2021.2.3,Win32,59.41770648,,,,,right,1,0.6349,0,12,12,37,1,4,2,4 | 2,2,1.4111,1.9756,incongruent,right,,,,,,stimulusFile/physical.xlsx,,,,,,,,,,,,,,,,,,,,,,,,,,,,,,,
,,,,,,,,,,,,,,,653,2022-06-21_11h20.27.709,multiplicationStroop,2021.2.3,Win32,59.41770648,,,,,left,1,0.468,0,13,13,15,1,9,7,9 | 7,2,1.9756,1.4111,congruent,left,,,,,,stimulusFile/physical.xlsx,,,,,,,,,,,,,,,,,,,,,,,,,,,,,,,
,,,,,,,,,,,,,,,653,2022-06-21_11h20.27.709,multiplicationStroop,2021.2.3,Win32,59.41770648,,,,,left,1,0.9893,0,14,14,70,1,8,8,8 | 8,0,1.9756,1.4111,neutral,left,,,,,,stimulusFile/physical.xlsx,,,,,,,,,,,,,,,,,,,,,,,,,,,,,,,
,,,,,,,,,,,,,,,653,2022-06-21_11h20.27.709,multiplicationStroop,2021.2.3,Win32,59.41770648,,,,,left,1,1.0766,0,15,15,33,1,2,4,2 | 4,2,1.9756,1.4111,incongruent,left,,,,,,stimulusFile/physical.xlsx,,,,,,,,,,,,,,,,,,,,,,,,,,,,,,,
,,,,,,,,,,,,,,,653,2022-06-21_11h20.27.709,multiplicationStroop,2021.2.3,Win32,59.41770648,,,,,right,1,0.5133,0,16,16,11,1,7,9,7 | 9,2,1.4111,1.9756,congruent,right,,,,,,stimulusFile/physical.xlsx,,,,,,,,,,,,,,,,,,,,,,,,,,,,,,,
,,,,,,,,,,,,,,,653,2022-06-21_11h20.27.709,multiplicationStroop,2021.2.3,Win32,59.41770648,,,,,right,1,0.462,0,17,17,59,1,7,7,7 | 7,0,1.4111,1.9756,neutral,right,,,,,,stimulusFile/physical.xlsx,,,,,,,,,,,,,,,,,,,,,,,,,,,,,,,
,,,,,,,,,,,,,,,653,2022-06-21_11h20.27.709,multiplicationStroop,2021.2.3,Win32,59.41770648,,,,,left,1,0.5791,0,18,18,14,1,8,6,8 | 6,2,1.9756,1.4111,congruent,left,,,,,,stimulusFile/physical.xlsx,,,,,,,,,,,,,,,,,,,,,,,,,,,,,,,
,,,,,,,,,,,,,,,653,2022-06-21_11h20.27.709,multiplicationStroop,2021.2.3,Win32,59.41770648,,,,,left,1,0.7965,0,19,19,50,1,6,6,6 | 6,0,1.9756,1.4111,neutral,left,,,,,,stimulusFile/physical.xlsx,,,,,,,,,,,,,,,,,,,,,,,,,,,,,,,
,,,,,,,,,,,,,,,653,2022-06-21_11h20.27.709,multiplicationStroop,2021.2.3,Win32,59.41770648,,,,,right,1,0.5155,0,20,20,31,1,9,8,9 | 8,1,1.4111,1.9756,incongruent,right,,,,,,stimulusFile/physical.xlsx,,,,,,,,,,,,,,,,,,,,,,,,,,,,,,,
,,,,,,,,,,,,,,,653,2022-06-21_11h20.27.709,multiplicationStroop,2021.2.3,Win32,59.41770648,,,,,right,1,0.681,0,21,21,30,1,7,6,7 | 6,1,1.4111,1.9756,incongruent,right,,,,,,stimulusFile/physical.xlsx,,,,,,,,,,,,,,,,,,,,,,,,,,,,,,,
,,,,,,,,,,,,,,,653,2022-06-21_11h20.27.709,multiplicationStroop,2021.2.3,Win32,59.41770648,,,,,right,1,0.5614,0,22,22,18,1,3,8,3 | 8,5,1.4111,1.9756,congruent,right,,,,,,stimulusFile/physical.xlsx,,,,,,,,,,,,,,,,,,,,,,,,,,,,,,,
,,,,,,,,,,,,,,,653,2022-06-21_11h20.27.709,multiplicationStroop,2021.2.3,Win32,59.41770648,,,,,left,1,0.6695,0,23,23,54,1,7,7,7 | 7,0,1.9756,1.4111,neutral,left,,,,,,stimulusFile/physical.xlsx,,,,,,,,,,,,,,,,,,,,,,,,,,,,,,,
,,,,,,,,,,,,,,,653,2022-06-21_11h20.27.709,multiplicationStroop,2021.2.3,Win32,59.41770648,,,,,right,1,0.5017,0,24,24,58,1,6,6,6 | 6,0,1.4111,1.9756,neutral,right,,,,,,stimulusFile/physical.xlsx,,,,,,,,,,,,,,,,,,,,,,,,,,,,,,,
,,,,,,,,,,,,,,,653,2022-06-21_11h20.27.709,multiplicationStroop,2021.2.3,Win32,59.41770648,,,,,right,1,0.5221,0,25,25,1,1,3,4,3 | 4,1,1.4111,1.9756,congruent,right,,,,,,stimulusFile/physical.xlsx,,,,,,,,,,,,,,,,,,,,,,,,,,,,,,,
,,,,,,,,,,,,,,,653,2022-06-21_11h20.27.709,multiplicationStroop,2021.2.3,Win32,59.41770648,,,,,left,1,0.6519,0,26,26,25,1,3,4,3 | 4,1,1.9756,1.4111,incongruent,left,,,,,,stimulusFile/physical.xlsx,,,,,,,,,,,,,,,,,,,,,,,,,,,,,,,
,,,,,,,,,,,,,,,653,2022-06-21_11h20.27.709,multiplicationStroop,2021.2.3,Win32,59.41770648,,,,,left,1,0.5396,0,27,27,68,1,6,6,6 | 6,0,1.9756,1.4111,neutral,left,,,,,,stimulusFile/physical.xlsx,,,,,,,,,,,,,,,,,,,,,,,,,,,,,,,
,,,,,,,,,,,,,,,653,2022-06-21_11h20.27.709,multiplicationStroop,2021.2.3,Win32,59.41770648,,,,,right,1,0.4516,0,28,28,10,1,6,8,6 | 8,2,1.4111,1.9756,congruent,right,,,,,,stimulusFile/physical.xlsx,,,,,,,,,,,,,,,,,,,,,,,,,,,,,,,
,,,,,,,,,,,,,,,653,2022-06-21_11h20.27.709,multiplicationStroop,2021.2.3,Win32,59.41770648,,,,,left,0,0.5215,0,29,29,16,1,1,6,1 | 6,5,1.4111,1.9756,congruent,right,,,,,,stimulusFile/physical.xlsx,,,,,,,,,,,,,,,,,,,,,,,,,,,,,,,
,,,,,,,,,,,,,,,653,2022-06-21_11h20.27.709,multiplicationStroop,2021.2.3,Win32,59.41770648,,,,,left,1,0.4734,0,30,30,35,1,7,9,7 | 9,2,1.9756,1.4111,incongruent,left,,,,,,stimulusFile/physical.xlsx,,,,,,,,,,,,,,,,,,,,,,,,,,,,,,,
,,,,,,,,,,,,,,,653,2022-06-21_11h20.27.709,multiplicationStroop,2021.2.3,Win32,59.41770648,,,,,left,0,0.4513,0,31,31,64,1,1,1,1 | 1,0,1.9756,1.4111,neutral,right,,,,,,stimulusFile/physical.xlsx,,,,,,,,,,,,,,,,,,,,,,,,,,,,,,,
,,,,,,,,,,,,,,,653,2022-06-21_11h20.27.709,multiplicationStroop,2021.2.3,Win32,59.41770648,,,,,left,1,0.401,0,32,32,41,1,2,7,2 | 7,5,1.9756,1.4111,incongruent,left,,,,,,stimulusFile/physical.xlsx,,,,,,,,,,,,,,,,,,,,,,,,,,,,,,,
,,,,,,,,,,,,,,,653,2022-06-21_11h20.27.709,multiplicationStroop,2021.2.3,Win32,59.41770648,,,,,right,0,0.3855,0,33,33,55,1,9,9,9 | 9,0,1.9756,1.4111,neutral,left,,,,,,stimulusFile/physical.xlsx,,,,,,,,,,,,,,,,,,,,,,,,,,,,,,,
,,,,,,,,,,,,,,,653,2022-06-21_11h20.27.709,multiplicationStroop,2021.2.3,Win32,59.41770648,,,,,left,1,0.2882,0,34,34,53,1,4,4,4 | 4,0,1.9756,1.4111,neutral,left,,,,,,stimulusFile/physical.xlsx,,,,,,,,,,,,,,,,,,,,,,,,,,,,,,,
,,,,,,,,,,,,,,,653,2022-06-21_11h20.27.709,multiplicationStroop,2021.2.3,Win32,59.41770648,,,,,left,1,0.5171,0,35,35,34,1,6,8,6 | 8,2,1.9756,1.4111,incongruent,left,,,,,,stimulusFile/physical.xlsx,,,,,,,,,,,,,,,,,,,,,,,,,,,,,,,
,,,,,,,,,,,,,,,653,2022-06-21_11h20.27.709,multiplicationStroop,2021.2.3,Win32,59.41770648,,,,,right,1,0.4348,0,36,36,3,1,8,9,8 | 9,1,1.4111,1.9756,congruent,right,,,,,,stimulusFile/physical.xlsx,,,,,,,,,,,,,,,,,,,,,,,,,,,,,,,
,,,,,,,,,,,,,,,653,2022-06-21_11h20.27.709,multiplicationStroop,2021.2.3,Win32,59.41770648,,,,,left,1,0.6023,0,37,37,43,1,4,9,4 | 9,5,1.9756,1.4111,incongruent,left,,,,,,stimulusFile/physical.xlsx,,,,,,,,,,,,,,,,,,,,,,,,,,,,,,,
,,,,,,,,,,,,,,,653,2022-06-21_11h20.27.709,multiplicationStroop,2021.2.3,Win32,59.41770648,,,,,left,1,0.5343,0,38,38,48,1,1,1,1 | 1,0,1.9756,1.4111,neutral,left,,,,,,stimulusFile/physical.xlsx,,,,,,,,,,,,,,,,,,,,,,,,,,,,,,,
,,,,,,,,,,,,,,,653,2022-06-21_11h20.27.709,multiplicationStroop,2021.2.3,Win32,59.41770648,,,,,left,1,0.4512,0,39,39,51,1,8,8,8 | 8,0,1.9756,1.4111,neutral,left,,,,,,stimulusFile/physical.xlsx,,,,,,,,,,,,,,,,,,,,,,,,,,,,,,,
,,,,,,,,,,,,,,,653,2022-06-21_11h20.27.709,multiplicationStroop,2021.2.3,Win32,59.41770648,,,,,left,1,0.357,0,40,40,4,1,2,1,2 | 1,1,1.9756,1.4111,congruent,left,,,,,,stimulusFile/physical.xlsx,,,,,,,,,,,,,,,,,,,,,,,,,,,,,,,
,,,,,,,,,,,,,,,653,2022-06-21_11h20.27.709,multiplicationStroop,2021.2.3,Win32,59.41770648,,,,,left,1,0.452,0,41,41,42,1,3,8,3 | 8,5,1.9756,1.4111,incongruent,left,,,,,,stimulusFile/physical.xlsx,,,,,,,,,,,,,,,,,,,,,,,,,,,,,,,
,,,,,,,,,,,,,,,653,2022-06-21_11h20.27.709,multiplicationStroop,2021.2.3,Win32,59.41770648,,,,,left,1,0.6846,0,42,42,26,1,6,7,6 | 7,1,1.9756,1.4111,incongruent,left,,,,,,stimulusFile/physical.xlsx,,,,,,,,,,,,,,,,,,,,,,,,,,,,,,,
,,,,,,,,,,,,,,,653,2022-06-21_11h20.27.709,multiplicationStroop,2021.2.3,Win32,59.41770648,,,,,right,1,1.2206,0,43,43,29,1,4,3,4 | 3,1,1.4111,1.9756,incongruent,right,,,,,,stimulusFile/physical.xlsx,,,,,,,,,,,,,,,,,,,,,,,,,,,,,,,
,,,,,,,,,,,,,,,653,2022-06-21_11h20.27.709,multiplicationStroop,2021.2.3,Win32,59.41770648,,,,,left,0,0.5014,0,44,44,44,1,6,1,6 | 1,5,1.4111,1.9756,incongruent,right,,,,,,stimulusFile/physical.xlsx,,,,,,,,,,,,,,,,,,,,,,,,,,,,,,,
,,,,,,,,,,,,,,,653,2022-06-21_11h20.27.709,multiplicationStroop,2021.2.3,Win32,59.41770648,,,,,left,1,0.4516,0,45,45,32,1,1,3,1 | 3,2,1.9756,1.4111,incongruent,left,,,,,,stimulusFile/physical.xlsx,,,,,,,,,,,,,,,,,,,,,,,,,,,,,,,
,,,,,,,,,,,,,,,653,2022-06-21_11h20.27.709,multiplicationStroop,2021.2.3,Win32,59.41770648,,,,,right,1,0.4689,0,46,46,65,1,2,2,2 | 2,0,1.4111,1.9756,neutral,right,,,,,,stimulusFile/physical.xlsx,,,,,,,,,,,,,,,,,,,,,,,,,,,,,,,
,,,,,,,,,,,,,,,653,2022-06-21_11h20.27.709,multiplicationStroop,2021.2.3,Win32,59.41770648,,,,,left,0,0.4682,0,47,47,66,1,3,3,3 | 3,0,1.9756,1.4111,neutral,right,,,,,,stimulusFile/physical.xlsx,,,,,,,,,,,,,,,,,,,,,,,,,,,,,,,
,,,,,,,,,,,,,,,653,2022-06-21_11h20.27.709,multiplicationStroop,2021.2.3,Win32,59.41770648,,,,,right,1,0.7011,0,48,48,57,1,2,2,2 | 2,0,1.4111,1.9756,neutral,right,,,,,,stimulusFile/physical.xlsx,,,,,,,,,,,,,,,,,,,,,,,,,,,,,,,
,,,,,,,,,,,,,,,653,2022-06-21_11h20.27.709,multiplicationStroop,2021.2.3,Win32,59.41770648,,,,,left,1,0.5179,0,49,49,12,1,3,1,3 | 1,2,1.9756,1.4111,congruent,left,,,,,,stimulusFile/physical.xlsx,,,,,,,,,,,,,,,,,,,,,,,,,,,,,,,
,,,,,,,,,,,,,,,653,2022-06-21_11h20.27.709,multiplicationStroop,2021.2.3,Win32,59.41770648,,,,,right,0,0.5236,0,50,50,69,1,7,7,7 | 7,0,1.4111,1.9756,neutral,left,,,,,,stimulusFile/physical.xlsx,,,,,,,,,,,,,,,,,,,,,,,,,,,,,,,
,,,,,,,,,,,,,,,653,2022-06-21_11h20.27.709,multiplicationStroop,2021.2.3,Win32,59.41770648,,,,,left,0,0.4688,0,51,51,28,1,2,1,2 | 1,1,1.4111,1.9756,incongruent,right,,,,,,stimulusFile/physical.xlsx,,,,,,,,,,,,,,,,,,,,,,,,,,,,,,,
,,,,,,,,,,,,,,,653,2022-06-21_11h20.27.709,multiplicationStroop,2021.2.3,Win32,59.41770648,,,,,left,1,0.4509,0,52,52,21,1,7,2,7 | 2,5,1.9756,1.4111,congruent,left,,,,,,stimulusFile/physical.xlsx,,,,,,,,,,,,,,,,,,,,,,,,,,,,,,,
,,,,,,,,,,,,,,,653,2022-06-21_11h20.27.709,multiplicationStroop,2021.2.3,Win32,59.41770648,,,,,right,1,0.5347,0,53,53,38,1,8,6,8 | 6,2,1.4111,1.9756,incongruent,right,,,,,,stimulusFile/physical.xlsx,,,,,,,,,,,,,,,,,,,,,,,,,,,,,,,
,,,,,,,,,,,,,,,653,2022-06-21_11h20.27.709,multiplicationStroop,2021.2.3,Win32,59.41770648,,,,,right,0,0.4865,0,54,54,71,1,9,9,9 | 9,0,1.4111,1.9756,neutral,left,,,,,,stimulusFile/physical.xlsx,,,,,,,,,,,,,,,,,,,,,,,,,,,,,,,
,,,,,,,,,,,,,,,653,2022-06-21_11h20.27.709,multiplicationStroop,2021.2.3,Win32,59.41770648,,,,,right,1,0.5512,0,55,55,60,1,3,3,3 | 3,0,1.4111,1.9756,neutral,right,,,,,,stimulusFile/physical.xlsx,,,,,,,,,,,,,,,,,,,,,,,,,,,,,,,
,,,,,,,,,,,,,,,653,2022-06-21_11h20.27.709,multiplicationStroop,2021.2.3,Win32,59.41770648,,,,,left,0,0.4395,0,56,56,2,1,6,7,6 | 7,1,1.4111,1.9756,congruent,right,,,,,,stimulusFile/physical.xlsx,,,,,,,,,,,,,,,,,,,,,,,,,,,,,,,
,,,,,,,,,,,,,,,653,2022-06-21_11h20.27.709,multiplicationStroop,2021.2.3,Win32,59.41770648,,,,,left,1,0.5396,0,57,57,5,1,4,3,4 | 3,1,1.9756,1.4111,congruent,left,,,,,,stimulusFile/physical.xlsx,,,,,,,,,,,,,,,,,,,,,,,,,,,,,,,
,,,,,,,,,,,,,,,653,2022-06-21_11h20.27.709,multiplicationStroop,2021.2.3,Win32,59.41770648,,,,,left,1,0.4367,0,58,58,7,1,9,8,9 | 8,1,1.9756,1.4111,congruent,left,,,,,,stimulusFile/physical.xlsx,,,,,,,,,,,,,,,,,,,,,,,,,,,,,,,
,,,,,,,,,,,,,,,653,2022-06-21_11h20.27.709,multiplicationStroop,2021.2.3,Win32,59.41770648,,,,,right,1,0.4703,0,59,59,61,1,4,4,4 | 4,0,1.4111,1.9756,neutral,right,,,,,,stimulusFile/physical.xlsx,,,,,,,,,,,,,,,,,,,,,,,,,,,,,,,
,,,,,,,,,,,,,,,653,2022-06-21_11h20.27.709,multiplicationStroop,2021.2.3,Win32,59.41770648,,,,,right,1,0.5018,0,60,60,63,1,9,9,9 | 9,0,1.4111,1.9756,neutral,right,,,,,,stimulusFile/physical.xlsx,,,,,,,,,,,,,,,,,,,,,,,,,,,,,,,
,,,,,,,,,,,,,,,653,2022-06-21_11h20.27.709,multiplicationStroop,2021.2.3,Win32,59.41770648,,,,,right,1,0.4884,0,61,61,0,1,1,2,1 | 2,1,1.4111,1.9756,congruent,right,,,,,,stimulusFile/physical.xlsx,,,,,,,,,,,,,,,,,,,,,,,,,,,,,,,
,,,,,,,,,,,,,,,653,2022-06-21_11h20.27.709,multiplicationStroop,2021.2.3,Win32,59.41770648,,,,,left,1,0.3869,0,62,62,20,1,6,1,6 | 1,5,1.9756,1.4111,congruent,left,,,,,,stimulusFile/physical.xlsx,,,,,,,,,,,,,,,,,,,,,,,,,,,,,,,
,,,,,,,,,,,,,,,653,2022-06-21_11h20.27.709,multiplicationStroop,2021.2.3,Win32,59.41770648,,,,,left,1,0.4372,0,63,63,13,1,4,2,4 | 2,2,1.9756,1.4111,congruent,left,,,,,,stimulusFile/physical.xlsx,,,,,,,,,,,,,,,,,,,,,,,,,,,,,,,
,,,,,,,,,,,,,,,653,2022-06-21_11h20.27.709,multiplicationStroop,2021.2.3,Win32,59.41770648,,,,,right,1,0.4852,0,64,64,67,1,4,4,4 | 4,0,1.4111,1.9756,neutral,right,,,,,,stimulusFile/physical.xlsx,,,,,,,,,,,,,,,,,,,,,,,,,,,,,,,
,,,,,,,,,,,,,,,653,2022-06-21_11h20.27.709,multiplicationStroop,2021.2.3,Win32,59.41770648,,,,,right,1,0.5513,0,65,65,19,1,4,9,4 | 9,5,1.4111,1.9756,congruent,right,,,,,,stimulusFile/physical.xlsx,,,,,,,,,,,,,,,,,,,,,,,,,,,,,,,
,,,,,,,,,,,,,,,653,2022-06-21_11h20.27.709,multiplicationStroop,2021.2.3,Win32,59.41770648,,,,,right,1,0.4187,0,66,66,47,1,9,4,9 | 4,5,1.4111,1.9756,incongruent,right,,,,,,stimulusFile/physical.xlsx,,,,,,,,,,,,,,,,,,,,,,,,,,,,,,,
,,,,,,,,,,,,,,,653,2022-06-21_11h20.27.709,multiplicationStroop,2021.2.3,Win32,59.41770648,,,,,left,0,0.5686,0,67,67,46,1,8,3,8 | 3,5,1.4111,1.9756,incongruent,right,,,,,,stimulusFile/physical.xlsx,,,,,,,,,,,,,,,,,,,,,,,,,,,,,,,
,,,,,,,,,,,,,,,653,2022-06-21_11h20.27.709,multiplicationStroop,2021.2.3,Win32,59.41770648,,,,,left,1,0.4892,0,68,68,52,1,2,2,2 | 2,0,1.9756,1.4111,neutral,left,,,,,,stimulusFile/physical.xlsx,,,,,,,,,,,,,,,,,,,,,,,,,,,,,,,
,,,,,,,,,,,,,,,653,2022-06-21_11h20.27.709,multiplicationStroop,2021.2.3,Win32,59.41770648,,,,,right,1,0.5344,0,69,69,56,1,1,1,1 | 1,0,1.4111,1.9756,neutral,right,,,,,,stimulusFile/physical.xlsx,,,,,,,,,,,,,,,,,,,,,,,,,,,,,,,
,,,,,,,,,,,,,,,653,2022-06-21_11h20.27.709,multiplicationStroop,2021.2.3,Win32,59.41770648,,,,,left,1,0.7342,0,70,70,40,1,1,6,1 | 6,5,1.9756,1.4111,incongruent,left,,,,,,stimulusFile/physical.xlsx,,,,,,,,,,,,,,,,,,,,,,,,,,,,,,,
,,,,,,,,,,,,,,,653,2022-06-21_11h20.27.709,multiplicationStroop,2021.2.3,Win32,59.41770648,,,,,right,1,0.6013,0,71,71,62,1,8,8,8 | 8,0,1.4111,1.9756,neutral,right,,,,,,stimulusFile/physical.xlsx,,,,,,,,,,,,,,,,,,,,,,,,,,,,,,,
,,,,,,,,,,,,,,,653,2022-06-21_11h20.27.709,multiplicationStroop,2021.2.3,Win32,59.41770648,,,,,,,,,,,,,,,,,,,,,0,1,1,1,1,stimulusFile/physical.xlsx,PHYSICALLY larger (larger font size).,images/physicallyLarger.png,,,,,,,,,,,,,,,,,,,,,,,,,,,,,
,,,,,,,,,,,,,,,653,2022-06-21_11h20.27.709,multiplicationStroop,2021.2.3,Win32,59.41770648,,,,,,,,,,,,,,,,,,,,,,,,,,,,,space,0.7381,space,1.7667,20,2.3791,1,0,0,0,20,1,5,×,4,5 × 4,neutral,largerFirst,1.5,1.5,20,,,,,,,,
,,,,,,,,,,,,,,,653,2022-06-21_11h20.27.709,multiplicationStroop,2021.2.3,Win32,59.41770648,,,,,,,,,,,,,,,,,,,,,,,,,,,,,,,,,24,2.5696,1,0,1,1,22,1,8,×,3,8 × 3,neutral,largerFirst,1.5,1.5,24,,,,,,,,
,,,,,,,,,,,,,,,653,2022-06-21_11h20.27.709,multiplicationStroop,2021.2.3,Win32,59.41770648,,,,,,,,,,,,,,,,,,,,,,,,,,,,,,,,,18,1.5484,1,0,2,2,18,1,9,×,2,9 × 2,neutral,largerFirst,1.5,1.5,18,,,,,,,,
,,,,,,,,,,,,,,,653,2022-06-21_11h20.27.709,multiplicationStroop,2021.2.3,Win32,59.41770648,,,,,,,,,,,,,,,,,,,,,,,,,,,,,,,,,6,1.8468,1,0,3,3,26,1,3,×,2,3 × 2,neutral,largerFirst,1.5,1.5,6,,,,,,,,
,,,,,,,,,,,,,,,653,2022-06-21_11h20.27.709,multiplicationStroop,2021.2.3,Win32,59.41770648,,,,,,,,,,,,,,,,,,,,,,,,,,,,,,,,,42,3.5313,1,0,4,4,6,1,6,×,7,6 × 7,neutral,smallerFirst,1.5,1.5,42,,,,,,,,
,,,,,,,,,,,,,,,653,2022-06-21_11h20.27.709,multiplicationStroop,2021.2.3,Win32,59.41770648,,,,,,,,,,,,,,,,,,,,,,,,,,,,,,,,,56,2.0809,1,0,5,5,9,1,7,×,8,7 × 8,neutral,smallerFirst,1.5,1.5,56,,,,,,,,
,,,,,,,,,,,,,,,653,2022-06-21_11h20.27.709,multiplicationStroop,2021.2.3,Win32,59.41770648,,,,,,,,,,,,,,,,,,,,,,,,,,,,,,,,,27,2.9478,1,0,6,6,14,1,9,×,3,9 × 3,neutral,largerFirst,1.5,1.5,27,,,,,,,,
,,,,,,,,,,,,,,,653,2022-06-21_11h20.27.709,multiplicationStroop,2021.2.3,Win32,59.41770648,,,,,,,,,,,,,,,,,,,,,,,,,,,,,,,,,8,1.7715,1,0,7,7,3,1,2,×,4,2 × 4,neutral,smallerFirst,1.5,1.5,8,,,,,,,,
,,,,,,,,,,,,,,,653,2022-06-21_11h20.27.709,multiplicationStroop,2021.2.3,Win32,59.41770648,,,,,,,,,,,,,,,,,,,,,,,,,,,,,,,,,35,2.9314,1,0,8,8,1,1,5,×,7,5 × 7,neutral,smallerFirst,1.5,1.5,35,,,,,,,,
,,,,,,,,,,,,,,,653,2022-06-21_11h20.27.709,multiplicationStroop,2021.2.3,Win32,59.41770648,,,,,,,,,,,,,,,,,,,,,,,,,,,,,,,,,9,2.8309,1,0,9,9,29,1,3,×,3,3 × 3,neutral,tie,1.5,1.5,9,,,,,,,,
,,,,,,,,,,,,,,,653,2022-06-21_11h20.27.709,multiplicationStroop,2021.2.3,Win32,59.41770648,,,,,,,,,,,,,,,,,,,,,,,,,,,,,,,,,14,1.6872,1,0,10,10,16,1,7,×,2,7 × 2,neutral,largerFirst,1.5,1.5,14,,,,,,,,
,,,,,,,,,,,,,,,653,2022-06-21_11h20.27.709,multiplicationStroop,2021.2.3,Win32,59.41770648,,,,,,,,,,,,,,,,,,,,,,,,,,,,,,,,,12,3.9488,1,0,11,11,25,1,6,×,2,6 × 2,neutral,largerFirst,1.5,1.5,12,,,,,,,,
,,,,,,,,,,,,,,,653,2022-06-21_11h20.27.709,multiplicationStroop,2021.2.3,Win32,59.41770648,,,,,,,,,,,,,,,,,,,,,,,,,,,,,,,,,25,2.0383,1,0,12,12,31,1,5,×,5,5 × 5,neutral,tie,1.5,1.5,25,,,,,,,,
,,,,,,,,,,,,,,,653,2022-06-21_11h20.27.709,multiplicationStroop,2021.2.3,Win32,59.41770648,,,,,,,,,,,,,,,,,,,,,,,,,,,,,,,,,4,1.5138,1,0,13,13,28,1,2,×,2,2 × 2,neutral,tie,1.5,1.5,4,,,,,,,,
,,,,,,,,,,,,,,,653,2022-06-21_11h20.27.709,multiplicationStroop,2021.2.3,Win32,59.41770648,,,,,,,,,,,,,,,,,,,,,,,,,,,,,,,,,81,4.5905,1,0,14,14,35,1,9,×,9,9 × 9,neutral,tie,1.5,1.5,81,,,,,,,,
,,,,,,,,,,,,,,,653,2022-06-21_11h20.27.709,multiplicationStroop,2021.2.3,Win32,59.41770648,,,,,,,,,,,,,,,,,,,,,,,,,,,,,,,,,40,1.9255,1,0,15,15,24,1,8,×,5,8 × 5,neutral,largerFirst,1.5,1.5,40,,,,,,,,
,,,,,,,,,,,,,,,653,2022-06-21_11h20.27.709,multiplicationStroop,2021.2.3,Win32,59.41770648,,,,,,,,,,,,,,,,,,,,,,,,,,,,,,,,,10,2.3653,1,0,16,16,4,1,2,×,5,2 × 5,neutral,smallerFirst,1.5,1.5,10,,,,,,,,
,,,,,,,,,,,,,,,653,2022-06-21_11h20.27.709,multiplicationStroop,2021.2.3,Win32,59.41770648,,,,,,,,,,,,,,,,,,,,,,,,,,,,,,,,,36,4.1519,1,0,17,17,27,1,9,×,4,9 × 4,neutral,largerFirst,1.5,1.5,36,,,,,,,,
,,,,,,,,,,,,,,,653,2022-06-21_11h20.27.709,multiplicationStroop,2021.2.3,Win32,59.41770648,,,,,,,,,,,,,,,,,,,,,,,,,,,,,,,,,45,6.9188,1,0,18,18,10,1,5,×,9,5 × 9,neutral,smallerFirst,1.5,1.5,45,,,,,,,,
,,,,,,,,,,,,,,,653,2022-06-21_11h20.27.709,multiplicationStroop,2021.2.3,Win32,59.41770648,,,,,,,,,,,,,,,,,,,,,,,,,,,,,,,,,16,2.8045,1,0,19,19,30,1,4,×,4,4 × 4,neutral,tie,1.5,1.5,16,,,,,,,,
,,,,,,,,,,,,,,,653,2022-06-21_11h20.27.709,multiplicationStroop,2021.2.3,Win32,59.41770648,,,,,,,,,,,,,,,,,,,,,,,,,,,,,,,,,49,2.9286,1,0,20,20,33,1,7,×,7,7 × 7,neutral,tie,1.5,1.5,49,,,,,,,,
,,,,,,,,,,,,,,,653,2022-06-21_11h20.27.709,multiplicationStroop,2021.2.3,Win32,59.41770648,,,,,,,,,,,,,,,,,,,,,,,,,,,,,,,,,64,1.7484,1,0,21,21,34,1,8,×,8,8 × 8,neutral,tie,1.5,1.5,64,,,,,,,,
,,,,,,,,,,,,,,,653,2022-06-21_11h20.27.709,multiplicationStroop,2021.2.3,Win32,59.41770648,,,,,,,,,,,,,,,,,,,,,,,,,,,,,,,,,24,1.7814,1,0,22,22,2,1,4,×,6,4 × 6,neutral,smallerFirst,1.5,1.5,24,,,,,,,,
,,,,,,,,,,,,,,,653,2022-06-21_11h20.27.709,multiplicationStroop,2021.2.3,Win32,59.41770648,,,,,,,,,,,,,,,,,,,,,,,,,,,,,,,,,28,2.015,1,0,23,23,17,1,7,×,4,7 × 4,neutral,largerFirst,1.5,1.5,28,,,,,,,,
,,,,,,,,,,,,,,,653,2022-06-21_11h20.27.709,multiplicationStroop,2021.2.3,Win32,59.41770648,,,,,,,,,,,,,,,,,,,,,,,,,,,,,,,,,32,2.0158,1,0,24,24,23,1,8,×,4,8 × 4,neutral,largerFirst,1.5,1.5,32,,,,,,,,
,,,,,,,,,,,,,,,653,2022-06-21_11h20.27.709,multiplicationStroop,2021.2.3,Win32,59.41770648,,,,,,,,,,,,,,,,,,,,,,,,,,,,,,,,,15,2.1172,1,0,25,25,5,1,3,×,5,3 × 5,neutral,smallerFirst,1.5,1.5,15,,,,,,,,
,,,,,,,,,,,,,,,653,2022-06-21_11h20.27.709,multiplicationStroop,2021.2.3,Win32,59.41770648,,,,,,,,,,,,,,,,,,,,,,,,,,,,,,,,,21,1.5621,1,0,26,26,8,1,3,×,7,3 × 7,neutral,smallerFirst,1.5,1.5,21,,,,,,,,
,,,,,,,,,,,,,,,653,2022-06-21_11h20.27.709,multiplicationStroop,2021.2.3,Win32,59.41770648,,,,,,,,,,,,,,,,,,,,,,,,,,,,,,,,,12,1.4816,1,0,27,27,21,1,4,×,3,4 × 3,neutral,largerFirst,1.5,1.5,12,,,,,,,,
,,,,,,,,,,,,,,,653,2022-06-21_11h20.27.709,multiplicationStroop,2021.2.3,Win32,59.41770648,,,,,,,,,,,,,,,,,,,,,,,,,,,,,,,,,16,3.2646,1,0,28,28,13,1,2,×,8,2 × 8,neutral,smallerFirst,1.5,1.5,16,,,,,,,,
,,,,,,,,,,,,,,,653,2022-06-21_11h20.27.709,multiplicationStroop,2021.2.3,Win32,59.41770648,,,,,,,,,,,,,,,,,,,,,,,,,,,,,,,,,36,2.5505,1,0,29,29,32,1,6,×,6,6 × 6,neutral,tie,1.5,1.5,36,,,,,,,,
,,,,,,,,,,,,,,,653,2022-06-21_11h20.27.709,multiplicationStroop,2021.2.3,Win32,59.41770648,,,,,,,,,,,,,,,,,,,,,,,,,,,,,,,,,48,2.5471,0,0,30,30,7,1,6,×,9,6 × 9,neutral,smallerFirst,1.5,1.5,54,,,,,,,,
,,,,,,,,,,,,,,,653,2022-06-21_11h20.27.709,multiplicationStroop,2021.2.3,Win32,59.41770648,,,,,,,,,,,,,,,,,,,,,,,,,,,,,,,,,48,2.2296,1,0,31,31,15,1,8,×,6,8 × 6,neutral,largerFirst,1.5,1.5,48,,,,,,,,
,,,,,,,,,,,,,,,653,2022-06-21_11h20.27.709,multiplicationStroop,2021.2.3,Win32,59.41770648,,,,,,,,,,,,,,,,,,,,,,,,,,,,,,,,,72,2.7638,1,0,32,32,11,1,8,×,9,8 × 9,neutral,smallerFirst,1.5,1.5,72,,,,,,,,
,,,,,,,,,,,,,,,653,2022-06-21_11h20.27.709,multiplicationStroop,2021.2.3,Win32,59.41770648,,,,,,,,,,,,,,,,,,,,,,,,,,,,,,,,,63,2.2303,1,0,33,33,12,1,7,×,9,7 × 9,neutral,smallerFirst,1.5,1.5,63,,,,,,,,
,,,,,,,,,,,,,,,653,2022-06-21_11h20.27.709,multiplicationStroop,2021.2.3,Win32,59.41770648,,,,,,,,,,,,,,,,,,,,,,,,,,,,,,,,,18,1.8148,1,0,34,34,0,1,3,×,6,3 × 6,neutral,smallerFirst,1.5,1.5,18,,,,,,,,
,,,,,,,,,,,,,,,653,2022-06-21_11h20.27.709,multiplicationStroop,2021.2.3,Win32,59.41770648,,,,,,,,,,,,,,,,,,,,,,,,,,,,,,,,,30,1.848,1,0,35,35,19,1,6,×,5,6 × 5,neutral,largerFirst,1.5,1.5,30,,,,,,,,
,,,,,,,,,,,,,,,653,2022-06-21_11h20.27.709,multiplicationStroop,2021.2.3,Win32,59.41770648,,,,,,,,,,,,,,,,,,,,,,,,,,,,,,,,,,,,,,,,,,,,,,,,,,0,0,0,1,1,stimulusFile/mult_blk2.xlsx,,
,,,,,,,,,,,,,,,653,2022-06-21_11h20.27.709,multiplicationStroop,2021.2.3,Win32,59.41770648,,,,,,,,,,,,,,,,,,,,,,,,,,,,,,,space,0.9176,20,1.7581,1,0,0,0,21,1,5,×,4,5 × 4,congruent,largerFirst,2,1,20,,,,,,,,
,,,,,,,,,,,,,,,653,2022-06-21_11h20.27.709,multiplicationStroop,2021.2.3,Win32,59.41770648,,,,,,,,,,,,,,,,,,,,,,,,,,,,,,,,,12,1.2157,1,0,1,1,5,1,2,×,6,2 × 6,congruent,smallerFirst,1,2,12,,,,,,,,
,,,,,,,,,,,,,,,653,2022-06-21_11h20.27.709,multiplicationStroop,2021.2.3,Win32,59.41770648,,,,,,,,,,,,,,,,,,,,,,,,,,,,,,,,,10,2.5988,1,0,2,2,10,1,2,×,5,2 × 5,congruent,smallerFirst,1,2,10,,,,,,,,
,,,,,,,,,,,,,,,653,2022-06-21_11h20.27.709,multiplicationStroop,2021.2.3,Win32,59.41770648,,,,,,,,,,,,,,,,,,,,,,,,,,,,,,,,,21,1.5159,1,0,3,3,2,1,3,×,7,3 × 7,congruent,smallerFirst,1,2,21,,,,,,,,
,,,,,,,,,,,,,,,653,2022-06-21_11h20.27.709,multiplicationStroop,2021.2.3,Win32,59.41770648,,,,,,,,,,,,,,,,,,,,,,,,,,,,,,,,,8,2.5822,1,0,4,4,23,1,4,×,2,4 × 2,congruent,largerFirst,2,1,8,,,,,,,,
,,,,,,,,,,,,,,,653,2022-06-21_11h20.27.709,multiplicationStroop,2021.2.3,Win32,59.41770648,,,,,,,,,,,,,,,,,,,,,,,,,,,,,,,,,25,1.8661,1,0,5,5,31,1,5,×,5,5 × 5,neutral,tie,1,2,25,,,,,,,,
,,,,,,,,,,,,,,,653,2022-06-21_11h20.27.709,multiplicationStroop,2021.2.3,Win32,59.41770648,,,,,,,,,,,,,,,,,,,,,,,,,,,,,,,,,72,1.916,1,0,6,6,3,1,8,×,9,8 × 9,congruent,smallerFirst,1,2,72,,,,,,,,
,,,,,,,,,,,,,,,653,2022-06-21_11h20.27.709,multiplicationStroop,2021.2.3,Win32,59.41770648,,,,,,,,,,,,,,,,,,,,,,,,,,,,,,,,,14,2.1297,1,0,7,7,0,1,2,×,7,2 × 7,congruent,smallerFirst,1,2,14,,,,,,,,
,,,,,,,,,,,,,,,653,2022-06-21_11h20.27.709,multiplicationStroop,2021.2.3,Win32,59.41770648,,,,,,,,,,,,,,,,,,,,,,,,,,,,,,,,,56,1.8655,1,0,8,8,22,1,8,×,7,8 × 7,congruent,largerFirst,2,1,56,,,,,,,,
,,,,,,,,,,,,,,,653,2022-06-21_11h20.27.709,multiplicationStroop,2021.2.3,Win32,59.41770648,,,,,,,,,,,,,,,,,,,,,,,,,,,,,,,,,39,2.0658,0,0,9,9,33,1,7,×,7,7 × 7,neutral,tie,1,2,49,,,,,,,,
,,,,,,,,,,,,,,,653,2022-06-21_11h20.27.709,multiplicationStroop,2021.2.3,Win32,59.41770648,,,,,,,,,,,,,,,,,,,,,,,,,,,,,,,,,81,1.9488,1,0,10,10,35,1,9,×,9,9 × 9,neutral,tie,1,2,81,,,,,,,,
,,,,,,,,,,,,,,,653,2022-06-21_11h20.27.709,multiplicationStroop,2021.2.3,Win32,59.41770648,,,,,,,,,,,,,,,,,,,,,,,,,,,,,,,,,30,1.7988,1,0,11,11,1,1,5,×,6,5 × 6,congruent,smallerFirst,1,2,30,,,,,,,,
,,,,,,,,,,,,,,,653,2022-06-21_11h20.27.709,multiplicationStroop,2021.2.3,Win32,59.41770648,,,,,,,,,,,,,,,,,,,,,,,,,,,,,,,,,16,1.6663,1,0,12,12,19,1,8,×,2,8 × 2,congruent,largerFirst,2,1,16,,,,,,,,
,,,,,,,,,,,,,,,653,2022-06-21_11h20.27.709,multiplicationStroop,2021.2.3,Win32,59.41770648,,,,,,,,,,,,,,,,,,,,,,,,,,,,,,,,,9,2.1819,1,0,13,13,29,1,3,×,3,3 × 3,neutral,tie,1,2,9,,,,,,,,
,,,,,,,,,,,,,,,653,2022-06-21_11h20.27.709,multiplicationStroop,2021.2.3,Win32,59.41770648,,,,,,,,,,,,,,,,,,,,,,,,,,,,,,,,,36,1.9165,1,0,14,14,32,1,6,×,6,6 × 6,neutral,tie,1,2,36,,,,,,,,
,,,,,,,,,,,,,,,653,2022-06-21_11h20.27.709,multiplicationStroop,2021.2.3,Win32,59.41770648,,,,,,,,,,,,,,,,,,,,,,,,,,,,,,,,,84,1.915,0,0,15,15,34,1,8,×,8,8 × 8,neutral,tie,1,2,64,,,,,,,,
,,,,,,,,,,,,,,,653,2022-06-21_11h20.27.709,multiplicationStroop,2021.2.3,Win32,59.41770648,,,,,,,,,,,,,,,,,,,,,,,,,,,,,,,,,27,2.2826,1,0,16,16,12,1,3,×,9,3 × 9,congruent,smallerFirst,1,2,27,,,,,,,,
,,,,,,,,,,,,,,,653,2022-06-21_11h20.27.709,multiplicationStroop,2021.2.3,Win32,59.41770648,,,,,,,,,,,,,,,,,,,,,,,,,,,,,,,,,18,1.9319,1,0,17,17,8,1,2,×,9,2 × 9,congruent,smallerFirst,1,2,18,,,,,,,,
,,,,,,,,,,,,,,,653,2022-06-21_11h20.27.709,multiplicationStroop,2021.2.3,Win32,59.41770648,,,,,,,,,,,,,,,,,,,,,,,,,,,,,,,,,28,3.699,1,0,18,18,13,1,4,×,7,4 × 7,congruent,smallerFirst,1,2,28,,,,,,,,
,,,,,,,,,,,,,,,653,2022-06-21_11h20.27.709,multiplicationStroop,2021.2.3,Win32,59.41770648,,,,,,,,,,,,,,,,,,,,,,,,,,,,,,,,,15,2.0042,1,0,19,19,18,1,5,×,3,5 × 3,congruent,largerFirst,2,1,15,,,,,,,,
,,,,,,,,,,,,,,,653,2022-06-21_11h20.27.709,multiplicationStroop,2021.2.3,Win32,59.41770648,,,,,,,,,,,,,,,,,,,,,,,,,,,,,,,,,45,2.2491,1,0,20,20,9,1,5,×,9,5 × 9,congruent,smallerFirst,1,2,45,,,,,,,,
,,,,,,,,,,,,,,,653,2022-06-21_11h20.27.709,multiplicationStroop,2021.2.3,Win32,59.41770648,,,,,,,,,,,,,,,,,,,,,,,,,,,,,,,,,36,2.0806,1,0,21,21,14,1,9,×,4,9 × 4,congruent,largerFirst,2,1,36,,,,,,,,
,,,,,,,,,,,,,,,653,2022-06-21_11h20.27.709,multiplicationStroop,2021.2.3,Win32,59.41770648,,,,,,,,,,,,,,,,,,,,,,,,,,,,,,,,,24,2.3307,1,0,22,22,24,1,8,×,3,8 × 3,congruent,largerFirst,2,1,24,,,,,,,,
,,,,,,,,,,,,,,,653,2022-06-21_11h20.27.709,multiplicationStroop,2021.2.3,Win32,59.41770648,,,,,,,,,,,,,,,,,,,,,,,,,,,,,,,,,54,2.7158,1,0,23,23,26,1,9,×,6,9 × 6,congruent,largerFirst,2,1,54,,,,,,,,
,,,,,,,,,,,,,,,653,2022-06-21_11h20.27.709,multiplicationStroop,2021.2.3,Win32,59.41770648,,,,,,,,,,,,,,,,,,,,,,,,,,,,,,,,,18,2.4951,1,0,24,24,25,1,6,×,3,6 × 3,congruent,largerFirst,2,1,18,,,,,,,,
,,,,,,,,,,,,,,,653,2022-06-21_11h20.27.709,multiplicationStroop,2021.2.3,Win32,59.41770648,,,,,,,,,,,,,,,,,,,,,,,,,,,,,,,,,35,2.2147,1,0,25,25,15,1,7,×,5,7 × 5,congruent,largerFirst,2,1,35,,,,,,,,
,,,,,,,,,,,,,,,653,2022-06-21_11h20.27.709,multiplicationStroop,2021.2.3,Win32,59.41770648,,,,,,,,,,,,,,,,,,,,,,,,,,,,,,,,,32,1.9807,1,0,26,26,6,1,4,×,8,4 × 8,congruent,smallerFirst,1,2,32,,,,,,,,
,,,,,,,,,,,,,,,653,2022-06-21_11h20.27.709,multiplicationStroop,2021.2.3,Win32,59.41770648,,,,,,,,,,,,,,,,,,,,,,,,,,,,,,,,,6,1.9142,1,0,27,27,27,1,3,×,2,3 × 2,congruent,largerFirst,2,1,6,,,,,,,,
,,,,,,,,,,,,,,,653,2022-06-21_11h20.27.709,multiplicationStroop,2021.2.3,Win32,59.41770648,,,,,,,,,,,,,,,,,,,,,,,,,,,,,,,,,40,3.0139,1,0,28,28,20,1,8,×,5,8 × 5,congruent,largerFirst,2,1,40,,,,,,,,
,,,,,,,,,,,,,,,653,2022-06-21_11h20.27.709,multiplicationStroop,2021.2.3,Win32,59.41770648,,,,,,,,,,,,,,,,,,,,,,,,,,,,,,,,,42,2.0982,1,0,29,29,17,1,7,×,6,7 × 6,congruent,largerFirst,2,1,42,,,,,,,,
,,,,,,,,,,,,,,,653,2022-06-21_11h20.27.709,multiplicationStroop,2021.2.3,Win32,59.41770648,,,,,,,,,,,,,,,,,,,,,,,,,,,,,,,,,4,1.4308,1,0,30,30,28,1,2,×,2,2 × 2,neutral,tie,1,2,4,,,,,,,,
,,,,,,,,,,,,,,,653,2022-06-21_11h20.27.709,multiplicationStroop,2021.2.3,Win32,59.41770648,,,,,,,,,,,,,,,,,,,,,,,,,,,,,,,,,48,3.1798,1,0,31,31,4,1,6,×,8,6 × 8,congruent,smallerFirst,1,2,48,,,,,,,,
,,,,,,,,,,,,,,,653,2022-06-21_11h20.27.709,multiplicationStroop,2021.2.3,Win32,59.41770648,,,,,,,,,,,,,,,,,,,,,,,,,,,,,,,,,63,2.2225,1,0,32,32,7,1,7,×,9,7 × 9,congruent,smallerFirst,1,2,63,,,,,,,,
,,,,,,,,,,,,,,,653,2022-06-21_11h20.27.709,multiplicationStroop,2021.2.3,Win32,59.41770648,,,,,,,,,,,,,,,,,,,,,,,,,,,,,,,,,24,2.2224,1,0,33,33,11,1,4,×,6,4 × 6,congruent,smallerFirst,1,2,24,,,,,,,,
,,,,,,,,,,,,,,,653,2022-06-21_11h20.27.709,multiplicationStroop,2021.2.3,Win32,59.41770648,,,,,,,,,,,,,,,,,,,,,,,,,,,,,,,,,16,1.732,1,0,34,34,30,1,4,×,4,4 × 4,neutral,tie,1,2,16,,,,,,,,
,,,,,,,,,,,,,,,653,2022-06-21_11h20.27.709,multiplicationStroop,2021.2.3,Win32,59.41770648,,,,,,,,,,,,,,,,,,,,,,,,,,,,,,,,,12,1.3151,1,0,35,35,16,1,4,×,3,4 × 3,congruent,largerFirst,2,1,12,,,,,,,,
,,,,,,,,,,,,,,,653,2022-06-21_11h20.27.709,multiplicationStroop,2021.2.3,Win32,59.41770648,,,,,,,,,,,,,,,,,,,,,,,,,,,,,,,,,,,,,,,,,,,,,,,,,,0,1,1,3,1,stimulusFile/mult_blk4_congruent.xlsx,,
,,,,,,,,,,,,,,,653,2022-06-21_11h20.27.709,multiplicationStroop,2021.2.3,Win32,59.41770648,,,,,,,,,,,,,,,,,,,,,,,,,,,,,,,space,0.7019,36,2.2806,1,0,0,0,32,1,6,×,6,6 × 6,neutral,tie,2,1,36,,,,,,,,
,,,,,,,,,,,,,,,653,2022-06-21_11h20.27.709,multiplicationStroop,2021.2.3,Win32,59.41770648,,,,,,,,,,,,,,,,,,,,,,,,,,,,,,,,,56,2.0414,1,0,1,1,8,1,7,×,8,7 × 8,congruent,smallerFirst,1,2,56,,,,,,,,
,,,,,,,,,,,,,,,653,2022-06-21_11h20.27.709,multiplicationStroop,2021.2.3,Win32,59.41770648,,,,,,,,,,,,,,,,,,,,,,,,,,,,,,,,,49,3.2554,1,0,2,2,33,1,7,×,7,7 × 7,neutral,tie,2,1,49,,,,,,,,
,,,,,,,,,,,,,,,653,2022-06-21_11h20.27.709,multiplicationStroop,2021.2.3,Win32,59.41770648,,,,,,,,,,,,,,,,,,,,,,,,,,,,,,,,,81,1.5714,1,0,3,3,35,1,9,×,9,9 × 9,neutral,tie,2,1,81,,,,,,,,
,,,,,,,,,,,,,,,653,2022-06-21_11h20.27.709,multiplicationStroop,2021.2.3,Win32,59.41770648,,,,,,,,,,,,,,,,,,,,,,,,,,,,,,,,,12,1.4822,1,0,4,4,2,1,3,×,4,3 × 4,congruent,smallerFirst,1,2,12,,,,,,,,
,,,,,,,,,,,,,,,653,2022-06-21_11h20.27.709,multiplicationStroop,2021.2.3,Win32,59.41770648,,,,,,,,,,,,,,,,,,,,,,,,,,,,,,,,,18,1.7807,1,0,5,5,22,1,9,×,2,9 × 2,congruent,largerFirst,2,1,18,,,,,,,,
,,,,,,,,,,,,,,,653,2022-06-21_11h20.27.709,multiplicationStroop,2021.2.3,Win32,59.41770648,,,,,,,,,,,,,,,,,,,,,,,,,,,,,,,,,14,1.8826,1,0,6,6,14,1,7,×,2,7 × 2,congruent,largerFirst,2,1,14,,,,,,,,
,,,,,,,,,,,,,,,653,2022-06-21_11h20.27.709,multiplicationStroop,2021.2.3,Win32,59.41770648,,,,,,,,,,,,,,,,,,,,,,,,,,,,,,,,,25,1.9982,1,0,7,7,31,1,5,×,5,5 × 5,neutral,tie,2,1,25,,,,,,,,
,,,,,,,,,,,,,,,653,2022-06-21_11h20.27.709,multiplicationStroop,2021.2.3,Win32,59.41770648,,,,,,,,,,,,,,,,,,,,,,,,,,,,,,,,,20,2.7655,1,0,8,8,7,1,4,×,5,4 × 5,congruent,smallerFirst,1,2,20,,,,,,,,
,,,,,,,,,,,,,,,653,2022-06-21_11h20.27.709,multiplicationStroop,2021.2.3,Win32,59.41770648,,,,,,,,,,,,,,,,,,,,,,,,,,,,,,,,,27,3.9985,1,0,9,9,26,1,9,×,3,9 × 3,congruent,largerFirst,2,1,27,,,,,,,,
,,,,,,,,,,,,,,,653,2022-06-21_11h20.27.709,multiplicationStroop,2021.2.3,Win32,59.41770648,,,,,,,,,,,,,,,,,,,,,,,,,,,,,,,,,54,2.6035,1,0,10,10,12,1,6,×,9,6 × 9,congruent,smallerFirst,1,2,54,,,,,,,,
,,,,,,,,,,,,,,,653,2022-06-21_11h20.27.709,multiplicationStroop,2021.2.3,Win32,59.41770648,,,,,,,,,,,,,,,,,,,,,,,,,,,,,,,,,10,1.5882,1,0,11,11,24,1,5,×,2,5 × 2,congruent,largerFirst,2,1,10,,,,,,,,
,,,,,,,,,,,,,,,653,2022-06-21_11h20.27.709,multiplicationStroop,2021.2.3,Win32,59.41770648,,,,,,,,,,,,,,,,,,,,,,,,,,,,,,,,,30,2.4245,1,0,12,12,15,1,6,×,5,6 × 5,congruent,largerFirst,2,1,30,,,,,,,,
,,,,,,,,,,,,,,,653,2022-06-21_11h20.27.709,multiplicationStroop,2021.2.3,Win32,59.41770648,,,,,,,,,,,,,,,,,,,,,,,,,,,,,,,,,42,2.5999,1,0,13,13,3,1,6,×,7,6 × 7,congruent,smallerFirst,1,2,42,,,,,,,,
,,,,,,,,,,,,,,,653,2022-06-21_11h20.27.709,multiplicationStroop,2021.2.3,Win32,59.41770648,,,,,,,,,,,,,,,,,,,,,,,,,,,,,,,,,21,6.1625,1,0,14,14,16,1,7,×,3,7 × 3,congruent,largerFirst,2,1,21,,,,,,,,
,,,,,,,,,,,,,,,653,2022-06-21_11h20.27.709,multiplicationStroop,2021.2.3,Win32,59.41770648,,,,,,,,,,,,,,,,,,,,,,,,,,,,,,,,,40,2.4168,1,0,15,15,6,1,5,×,8,5 × 8,congruent,smallerFirst,1,2,40,,,,,,,,
,,,,,,,,,,,,,,,653,2022-06-21_11h20.27.709,multiplicationStroop,2021.2.3,Win32,59.41770648,,,,,,,,,,,,,,,,,,,,,,,,,,,,,,,,,63,2.0813,1,0,16,16,21,1,9,×,7,9 × 7,congruent,largerFirst,2,1,63,,,,,,,,
,,,,,,,,,,,,,,,653,2022-06-21_11h20.27.709,multiplicationStroop,2021.2.3,Win32,59.41770648,,,,,,,,,,,,,,,,,,,,,,,,,,,,,,,,,4,1.5658,1,0,17,17,28,1,2,×,2,2 × 2,neutral,tie,2,1,4,,,,,,,,
,,,,,,,,,,,,,,,653,2022-06-21_11h20.27.709,multiplicationStroop,2021.2.3,Win32,59.41770648,,,,,,,,,,,,,,,,,,,,,,,,,,,,,,,,,15,2.1813,1,0,18,18,4,1,3,×,5,3 × 5,congruent,smallerFirst,1,2,15,,,,,,,,
,,,,,,,,,,,,,,,653,2022-06-21_11h20.27.709,multiplicationStroop,2021.2.3,Win32,59.41770648,,,,,,,,,,,,,,,,,,,,,,,,,,,,,,,,,28,3.1996,1,0,19,19,27,1,7,×,4,7 × 4,congruent,largerFirst,2,1,28,,,,,,,,
,,,,,,,,,,,,,,,653,2022-06-21_11h20.27.709,multiplicationStroop,2021.2.3,Win32,59.41770648,,,,,,,,,,,,,,,,,,,,,,,,,,,,,,,,,12,1.6287,1,0,20,20,19,1,6,×,2,6 × 2,congruent,largerFirst,2,1,12,,,,,,,,
,,,,,,,,,,,,,,,653,2022-06-21_11h20.27.709,multiplicationStroop,2021.2.3,Win32,59.41770648,,,,,,,,,,,,,,,,,,,,,,,,,,,,,,,,,24,2.332,1,0,21,21,25,1,6,×,4,6 × 4,congruent,largerFirst,2,1,24,,,,,,,,
,,,,,,,,,,,,,,,653,2022-06-21_11h20.27.709,multiplicationStroop,2021.2.3,Win32,59.41770648,,,,,,,,,,,,,,,,,,,,,,,,,,,,,,,,,36,2.1829,1,0,22,22,0,1,4,×,9,4 × 9,congruent,smallerFirst,1,2,36,,,,,,,,
,,,,,,,,,,,,,,,653,2022-06-21_11h20.27.709,multiplicationStroop,2021.2.3,Win32,59.41770648,,,,,,,,,,,,,,,,,,,,,,,,,,,,,,,,,16,1.9814,1,0,23,23,30,1,4,×,4,4 × 4,neutral,tie,2,1,16,,,,,,,,
,,,,,,,,,,,,,,,653,2022-06-21_11h20.27.709,multiplicationStroop,2021.2.3,Win32,59.41770648,,,,,,,,,,,,,,,,,,,,,,,,,,,,,,,,,48,2.9162,1,0,24,24,18,1,8,×,6,8 × 6,congruent,largerFirst,2,1,48,,,,,,,,
,,,,,,,,,,,,,,,653,2022-06-21_11h20.27.709,multiplicationStroop,2021.2.3,Win32,59.41770648,,,,,,,,,,,,,,,,,,,,,,,,,,,,,,,,,9,1.6148,1,0,25,25,29,1,3,×,3,3 × 3,neutral,tie,2,1,9,,,,,,,,
,,,,,,,,,,,,,,,653,2022-06-21_11h20.27.709,multiplicationStroop,2021.2.3,Win32,59.41770648,,,,,,,,,,,,,,,,,,,,,,,,,,,,,,,,,35,6.8625,1,0,26,26,1,1,5,×,7,5 × 7,congruent,smallerFirst,1,2,35,,,,,,,,
,,,,,,,,,,,,,,,653,2022-06-21_11h20.27.709,multiplicationStroop,2021.2.3,Win32,59.41770648,,,,,,,,,,,,,,,,,,,,,,,,,,,,,,,,,64,4.504,1,0,27,27,34,1,8,×,8,8 × 8,neutral,tie,2,1,64,,,,,,,,
,,,,,,,,,,,,,,,653,2022-06-21_11h20.27.709,multiplicationStroop,2021.2.3,Win32,59.41770648,,,,,,,,,,,,,,,,,,,,,,,,,,,,,,,,,18,2.0864,1,0,28,28,11,1,3,×,6,3 × 6,congruent,smallerFirst,1,2,18,,,,,,,,
,,,,,,,,,,,,,,,653,2022-06-21_11h20.27.709,multiplicationStroop,2021.2.3,Win32,59.41770648,,,,,,,,,,,,,,,,,,,,,,,,,,,,,,,,,16,1.897,1,0,29,29,5,1,2,×,8,2 × 8,congruent,smallerFirst,1,2,16,,,,,,,,
,,,,,,,,,,,,,,,653,2022-06-21_11h20.27.709,multiplicationStroop,2021.2.3,Win32,59.41770648,,,,,,,,,,,,,,,,,,,,,,,,,,,,,,,,,6,2.0474,1,0,30,30,13,1,2,×,3,2 × 3,congruent,smallerFirst,1,2,6,,,,,,,,
,,,,,,,,,,,,,,,653,2022-06-21_11h20.27.709,multiplicationStroop,2021.2.3,Win32,59.41770648,,,,,,,,,,,,,,,,,,,,,,,,,,,,,,,,,8,4.831,1,0,31,31,9,1,2,×,4,2 × 4,congruent,smallerFirst,1,2,8,,,,,,,,
,,,,,,,,,,,,,,,653,2022-06-21_11h20.27.709,multiplicationStroop,2021.2.3,Win32,59.41770648,,,,,,,,,,,,,,,,,,,,,,,,,,,,,,,,,32,2.1875,1,0,32,32,20,1,8,×,4,8 × 4,congruent,largerFirst,2,1,32,,,,,,,,
,,,,,,,,,,,,,,,653,2022-06-21_11h20.27.709,multiplicationStroop,2021.2.3,Win32,59.41770648,,,,,,,,,,,,,,,,,,,,,,,,,,,,,,,,,45,1.9326,1,0,33,33,23,1,9,×,5,9 × 5,congruent,largerFirst,2,1,45,,,,,,,,
,,,,,,,,,,,,,,,653,2022-06-21_11h20.27.709,multiplicationStroop,2021.2.3,Win32,59.41770648,,,,,,,,,,,,,,,,,,,,,,,,,,,,,,,,,72,3.1637,1,0,34,34,17,1,9,×,8,9 × 8,congruent,largerFirst,2,1,72,,,,,,,,
,,,,,,,,,,,,,,,653,2022-06-21_11h20.27.709,multiplicationStroop,2021.2.3,Win32,59.41770648,,,,,,,,,,,,,,,,,,,,,,,,,,,,,,,,,24,2.5616,1,0,35,35,10,1,3,×,8,3 × 8,congruent,smallerFirst,1,2,24,,,,,,,,
,,,,,,,,,,,,,,,653,2022-06-21_11h20.27.709,multiplicationStroop,2021.2.3,Win32,59.41770648,,,,,,,,,,,,,,,,,,,,,,,,,,,,,,,,,,,,,,,,,,,,,,,,,,0,2,2,2,1,stimulusFile/mult_blk3_congruent.xlsx,,
,,,,,,,,,,,,,,,653,2022-06-21_11h20.27.709,multiplicationStroop,2021.2.3,Win32,59.41770648,,,,,,,,,,,,,,,,,,,,,,,,,,,,,,,space,0.7682,27,3.4416,1,0,0,0,0,1,3,×,9,3 × 9,neutral,smallerFirst,1.5,1.5,27,,,,,,,,
,,,,,,,,,,,,,,,653,2022-06-21_11h20.27.709,multiplicationStroop,2021.2.3,Win32,59.41770648,,,,,,,,,,,,,,,,,,,,,,,,,,,,,,,,,73,1.8823,0,0,1,1,25,1,9,×,8,9 × 8,neutral,largerFirst,1.5,1.5,72,,,,,,,,
,,,,,,,,,,,,,,,653,2022-06-21_11h20.27.709,multiplicationStroop,2021.2.3,Win32,59.41770648,,,,,,,,,,,,,,,,,,,,,,,,,,,,,,,,,25,2.5487,1,0,2,2,31,1,5,×,5,5 × 5,neutral,tie,1.5,1.5,25,,,,,,,,
,,,,,,,,,,,,,,,653,2022-06-21_11h20.27.709,multiplicationStroop,2021.2.3,Win32,59.41770648,,,,,,,,,,,,,,,,,,,,,,,,,,,,,,,,,42,2.0311,1,0,3,3,20,1,7,×,6,7 × 6,neutral,largerFirst,1.5,1.5,42,,,,,,,,
,,,,,,,,,,,,,,,653,2022-06-21_11h20.27.709,multiplicationStroop,2021.2.3,Win32,59.41770648,,,,,,,,,,,,,,,,,,,,,,,,,,,,,,,,,8,1.6813,1,0,4,4,17,1,4,×,2,4 × 2,neutral,largerFirst,1.5,1.5,8,,,,,,,,
,,,,,,,,,,,,,,,653,2022-06-21_11h20.27.709,multiplicationStroop,2021.2.3,Win32,59.41770648,,,,,,,,,,,,,,,,,,,,,,,,,,,,,,,,,36,2.0813,1,0,5,5,32,1,6,×,6,6 × 6,neutral,tie,1.5,1.5,36,,,,,,,,
,,,,,,,,,,,,,,,653,2022-06-21_11h20.27.709,multiplicationStroop,2021.2.3,Win32,59.41770648,,,,,,,,,,,,,,,,,,,,,,,,,,,,,,,,,45,1.8151,1,0,6,6,24,1,9,×,5,9 × 5,neutral,largerFirst,1.5,1.5,45,,,,,,,,
,,,,,,,,,,,,,,,653,2022-06-21_11h20.27.709,multiplicationStroop,2021.2.3,Win32,59.41770648,,,,,,,,,,,,,,,,,,,,,,,,,,,,,,,,,81,3.797,1,0,7,7,35,1,9,×,9,9 × 9,neutral,tie,1.5,1.5,81,,,,,,,,
,,,,,,,,,,,,,,,653,2022-06-21_11h20.27.709,multiplicationStroop,2021.2.3,Win32,59.41770648,,,,,,,,,,,,,,,,,,,,,,,,,,,,,,,,,35,1.8781,1,0,8,8,15,1,7,×,5,7 × 5,neutral,largerFirst,1.5,1.5,35,,,,,,,,
,,,,,,,,,,,,,,,653,2022-06-21_11h20.27.709,multiplicationStroop,2021.2.3,Win32,59.41770648,,,,,,,,,,,,,,,,,,,,,,,,,,,,,,,,,28,3.5146,1,0,9,9,3,1,4,×,7,4 × 7,neutral,smallerFirst,1.5,1.5,28,,,,,,,,
,,,,,,,,,,,,,,,653,2022-06-21_11h20.27.709,multiplicationStroop,2021.2.3,Win32,59.41770648,,,,,,,,,,,,,,,,,,,,,,,,,,,,,,,,,12,1.3216,1,0,10,10,7,1,3,×,4,3 × 4,neutral,smallerFirst,1.5,1.5,12,,,,,,,,
,,,,,,,,,,,,,,,653,2022-06-21_11h20.27.709,multiplicationStroop,2021.2.3,Win32,59.41770648,,,,,,,,,,,,,,,,,,,,,,,,,,,,,,,,,48,2.5812,1,0,11,11,1,1,6,×,8,6 × 8,neutral,smallerFirst,1.5,1.5,48,,,,,,,,
,,,,,,,,,,,,,,,653,2022-06-21_11h20.27.709,multiplicationStroop,2021.2.3,Win32,59.41770648,,,,,,,,,,,,,,,,,,,,,,,,,,,,,,,,,4,1.4322,1,0,12,12,28,1,2,×,2,2 × 2,neutral,tie,1.5,1.5,4,,,,,,,,
,,,,,,,,,,,,,,,653,2022-06-21_11h20.27.709,multiplicationStroop,2021.2.3,Win32,59.41770648,,,,,,,,,,,,,,,,,,,,,,,,,,,,,,,,,63,2.0659,1,0,13,13,26,1,9,×,7,9 × 7,neutral,largerFirst,1.5,1.5,63,,,,,,,,
,,,,,,,,,,,,,,,653,2022-06-21_11h20.27.709,multiplicationStroop,2021.2.3,Win32,59.41770648,,,,,,,,,,,,,,,,,,,,,,,,,,,,,,,,,14,1.7462,1,0,14,14,2,1,2,×,7,2 × 7,neutral,smallerFirst,1.5,1.5,14,,,,,,,,
,,,,,,,,,,,,,,,653,2022-06-21_11h20.27.709,multiplicationStroop,2021.2.3,Win32,59.41770648,,,,,,,,,,,,,,,,,,,,,,,,,,,,,,,,,6,1.9311,1,0,15,15,12,1,2,×,3,2 × 3,neutral,smallerFirst,1.5,1.5,6,,,,,,,,
,,,,,,,,,,,,,,,653,2022-06-21_11h20.27.709,multiplicationStroop,2021.2.3,Win32,59.41770648,,,,,,,,,,,,,,,,,,,,,,,,,,,,,,,,,54,2.2471,1,0,16,16,21,1,9,×,6,9 × 6,neutral,largerFirst,1.5,1.5,54,,,,,,,,
,,,,,,,,,,,,,,,653,2022-06-21_11h20.27.709,multiplicationStroop,2021.2.3,Win32,59.41770648,,,,,,,,,,,,,,,,,,,,,,,,,,,,,,,,,16,1.9652,1,0,17,17,30,1,4,×,4,4 × 4,neutral,tie,1.5,1.5,16,,,,,,,,
,,,,,,,,,,,,,,,653,2022-06-21_11h20.27.709,multiplicationStroop,2021.2.3,Win32,59.41770648,,,,,,,,,,,,,,,,,,,,,,,,,,,,,,,,,64,2.548,1,0,18,18,34,1,8,×,8,8 × 8,neutral,tie,1.5,1.5,64,,,,,,,,
,,,,,,,,,,,,,,,653,2022-06-21_11h20.27.709,multiplicationStroop,2021.2.3,Win32,59.41770648,,,,,,,,,,,,,,,,,,,,,,,,,,,,,,,,,21,1.3713,1,0,19,19,22,1,7,×,3,7 × 3,neutral,largerFirst,1.5,1.5,21,,,,,,,,
,,,,,,,,,,,,,,,653,2022-06-21_11h20.27.709,multiplicationStroop,2021.2.3,Win32,59.41770648,,,,,,,,,,,,,,,,,,,,,,,,,,,,,,,,,18,1.7506,1,0,20,20,4,1,2,×,9,2 × 9,neutral,smallerFirst,1.5,1.5,18,,,,,,,,
,,,,,,,,,,,,,,,653,2022-06-21_11h20.27.709,multiplicationStroop,2021.2.3,Win32,59.41770648,,,,,,,,,,,,,,,,,,,,,,,,,,,,,,,,,24,1.9801,1,0,21,21,8,1,3,×,8,3 × 8,neutral,smallerFirst,1.5,1.5,24,,,,,,,,
,,,,,,,,,,,,,,,653,2022-06-21_11h20.27.709,multiplicationStroop,2021.2.3,Win32,59.41770648,,,,,,,,,,,,,,,,,,,,,,,,,,,,,,,,,9,1.4653,1,0,22,22,29,1,3,×,3,3 × 3,neutral,tie,1.5,1.5,9,,,,,,,,
,,,,,,,,,,,,,,,653,2022-06-21_11h20.27.709,multiplicationStroop,2021.2.3,Win32,59.41770648,,,,,,,,,,,,,,,,,,,,,,,,,,,,,,,,,12,1.3166,1,0,23,23,11,1,2,×,6,2 × 6,neutral,smallerFirst,1.5,1.5,12,,,,,,,,
,,,,,,,,,,,,,,,653,2022-06-21_11h20.27.709,multiplicationStroop,2021.2.3,Win32,59.41770648,,,,,,,,,,,,,,,,,,,,,,,,,,,,,,,,,49,2.1653,1,0,24,24,33,1,7,×,7,7 × 7,neutral,tie,1.5,1.5,49,,,,,,,,
,,,,,,,,,,,,,,,653,2022-06-21_11h20.27.709,multiplicationStroop,2021.2.3,Win32,59.41770648,,,,,,,,,,,,,,,,,,,,,,,,,,,,,,,,,36,2.031,1,0,25,25,13,1,4,×,9,4 × 9,neutral,smallerFirst,1.5,1.5,36,,,,,,,,
,,,,,,,,,,,,,,,653,2022-06-21_11h20.27.709,multiplicationStroop,2021.2.3,Win32,59.41770648,,,,,,,,,,,,,,,,,,,,,,,,,,,,,,,,,10,2.2809,1,0,26,26,18,1,5,×,2,5 × 2,neutral,largerFirst,1.5,1.5,10,,,,,,,,
,,,,,,,,,,,,,,,653,2022-06-21_11h20.27.709,multiplicationStroop,2021.2.3,Win32,59.41770648,,,,,,,,,,,,,,,,,,,,,,,,,,,,,,,,,32,3.6988,1,0,27,27,9,1,4,×,8,4 × 8,neutral,smallerFirst,1.5,1.5,32,,,,,,,,
,,,,,,,,,,,,,,,653,2022-06-21_11h20.27.709,multiplicationStroop,2021.2.3,Win32,59.41770648,,,,,,,,,,,,,,,,,,,,,,,,,,,,,,,,,15,2.0115,1,0,28,28,19,1,5,×,3,5 × 3,neutral,largerFirst,1.5,1.5,15,,,,,,,,
,,,,,,,,,,,,,,,653,2022-06-21_11h20.27.709,multiplicationStroop,2021.2.3,Win32,59.41770648,,,,,,,,,,,,,,,,,,,,,,,,,,,,,,,,,18,2.948,1,0,29,29,14,1,6,×,3,6 × 3,neutral,largerFirst,1.5,1.5,18,,,,,,,,
,,,,,,,,,,,,,,,653,2022-06-21_11h20.27.709,multiplicationStroop,2021.2.3,Win32,59.41770648,,,,,,,,,,,,,,,,,,,,,,,,,,,,,,,,,20,2.264,1,0,30,30,6,1,4,×,5,4 × 5,neutral,smallerFirst,1.5,1.5,20,,,,,,,,
,,,,,,,,,,,,,,,653,2022-06-21_11h20.27.709,multiplicationStroop,2021.2.3,Win32,59.41770648,,,,,,,,,,,,,,,,,,,,,,,,,,,,,,,,,16,2.3808,1,0,31,31,27,1,8,×,2,8 × 2,neutral,largerFirst,1.5,1.5,16,,,,,,,,
,,,,,,,,,,,,,,,653,2022-06-21_11h20.27.709,multiplicationStroop,2021.2.3,Win32,59.41770648,,,,,,,,,,,,,,,,,,,,,,,,,,,,,,,,,56,1.8042,1,0,32,32,23,1,8,×,7,8 × 7,neutral,largerFirst,1.5,1.5,56,,,,,,,,
,,,,,,,,,,,,,,,653,2022-06-21_11h20.27.709,multiplicationStroop,2021.2.3,Win32,59.41770648,,,,,,,,,,,,,,,,,,,,,,,,,,,,,,,,,40,3.0328,1,0,33,33,10,1,5,×,8,5 × 8,neutral,smallerFirst,1.5,1.5,40,,,,,,,,
,,,,,,,,,,,,,,,653,2022-06-21_11h20.27.709,multiplicationStroop,2021.2.3,Win32,59.41770648,,,,,,,,,,,,,,,,,,,,,,,,,,,,,,,,,24,2.5488,1,0,34,34,16,1,6,×,4,6 × 4,neutral,largerFirst,1.5,1.5,24,,,,,,,,
,,,,,,,,,,,,,,,653,2022-06-21_11h20.27.709,multiplicationStroop,2021.2.3,Win32,59.41770648,,,,,,,,,,,,,,,,,,,,,,,,,,,,,,,,,30,6.6312,1,0,35,35,5,1,5,×,6,5 × 6,neutral,smallerFirst,1.5,1.5,30,,,,,,,,
,,,,,,,,,,,,,,,653,2022-06-21_11h20.27.709,multiplicationStroop,2021.2.3,Win32,59.41770648,,,,,,,,,,,,,,,,,,,,,,,,,,,,,,,,,,,,,,,,,,,,,,,,,,0,3,3,0,1,stimulusFile/mult_blk1.xlsx,,
,,,,,,,,,,,,,,,653,2022-06-21_11h20.27.709,multiplicationStroop,2021.2.3,Win32,59.41770648,,,,,,,,,,,,,,,,,,,,,,,,,,,,,,,space,2.701,81,2.2196,1,0,0,0,35,1,9,×,9,9 × 9,incongruent,tie,1,2,81,,,,,,,,
,,,,,,,,,,,,,,,653,2022-06-21_11h20.27.709,multiplicationStroop,2021.2.3,Win32,59.41770648,,,,,,,,,,,,,,,,,,,,,,,,,,,,,,,,,49,3.3147,1,0,1,1,33,1,7,×,7,7 × 7,incongruent,tie,1,2,49,,,,,,,,
,,,,,,,,,,,,,,,653,2022-06-21_11h20.27.709,multiplicationStroop,2021.2.3,Win32,59.41770648,,,,,,,,,,,,,,,,,,,,,,,,,,,,,,,,,27,2.2949,1,0,2,2,18,1,9,×,3,9 × 3,incongruent,largerFirst,1,2,27,,,,,,,,
,,,,,,,,,,,,,,,653,2022-06-21_11h20.27.709,multiplicationStroop,2021.2.3,Win32,59.41770648,,,,,,,,,,,,,,,,,,,,,,,,,,,,,,,,,25,2.1499,1,0,3,3,31,1,5,×,5,5 × 5,incongruent,tie,1,2,25,,,,,,,,
,,,,,,,,,,,,,,,653,2022-06-21_11h20.27.709,multiplicationStroop,2021.2.3,Win32,59.41770648,,,,,,,,,,,,,,,,,,,,,,,,,,,,,,,,,6,1.7819,1,0,4,4,11,1,2,×,3,2 × 3,incongruent,smallerFirst,2,1,6,,,,,,,,
,,,,,,,,,,,,,,,653,2022-06-21_11h20.27.709,multiplicationStroop,2021.2.3,Win32,59.41770648,,,,,,,,,,,,,,,,,,,,,,,,,,,,,,,,,15,1.8494,1,0,5,5,10,1,3,×,5,3 × 5,incongruent,smallerFirst,2,1,15,,,,,,,,
,,,,,,,,,,,,,,,653,2022-06-21_11h20.27.709,multiplicationStroop,2021.2.3,Win32,59.41770648,,,,,,,,,,,,,,,,,,,,,,,,,,,,,,,,,45,2.1323,1,0,6,6,22,1,9,×,5,9 × 5,incongruent,largerFirst,1,2,45,,,,,,,,
,,,,,,,,,,,,,,,653,2022-06-21_11h20.27.709,multiplicationStroop,2021.2.3,Win32,59.41770648,,,,,,,,,,,,,,,,,,,,,,,,,,,,,,,,,24,3.9646,1,0,7,7,9,1,3,×,8,3 × 8,incongruent,smallerFirst,2,1,24,,,,,,,,
,,,,,,,,,,,,,,,653,2022-06-21_11h20.27.709,multiplicationStroop,2021.2.3,Win32,59.41770648,,,,,,,,,,,,,,,,,,,,,,,,,,,,,,,,,21,2.0377,1,0,8,8,26,1,7,×,3,7 × 3,incongruent,largerFirst,1,2,21,,,,,,,,
,,,,,,,,,,,,,,,653,2022-06-21_11h20.27.709,multiplicationStroop,2021.2.3,Win32,59.41770648,,,,,,,,,,,,,,,,,,,,,,,,,,,,,,,,,42,2.1824,1,0,9,9,17,1,7,×,6,7 × 6,incongruent,largerFirst,1,2,42,,,,,,,,
,,,,,,,,,,,,,,,653,2022-06-21_11h20.27.709,multiplicationStroop,2021.2.3,Win32,59.41770648,,,,,,,,,,,,,,,,,,,,,,,,,,,,,,,,,72,2.015,1,0,10,10,0,1,8,×,9,8 × 9,incongruent,smallerFirst,2,1,72,,,,,,,,
,,,,,,,,,,,,,,,653,2022-06-21_11h20.27.709,multiplicationStroop,2021.2.3,Win32,59.41770648,,,,,,,,,,,,,,,,,,,,,,,,,,,,,,,,,9,1.7326,1,0,11,11,29,1,3,×,3,3 × 3,incongruent,tie,1,2,9,,,,,,,,
,,,,,,,,,,,,,,,653,2022-06-21_11h20.27.709,multiplicationStroop,2021.2.3,Win32,59.41770648,,,,,,,,,,,,,,,,,,,,,,,,,,,,,,,,,20,4.3981,1,0,12,12,27,1,5,×,4,5 × 4,incongruent,largerFirst,1,2,20,,,,,,,,
,,,,,,,,,,,,,,,653,2022-06-21_11h20.27.709,multiplicationStroop,2021.2.3,Win32,59.41770648,,,,,,,,,,,,,,,,,,,,,,,,,,,,,,,,,10,1.6281,1,0,13,13,21,1,5,×,2,5 × 2,incongruent,largerFirst,1,2,10,,,,,,,,
,,,,,,,,,,,,,,,653,2022-06-21_11h20.27.709,multiplicationStroop,2021.2.3,Win32,59.41770648,,,,,,,,,,,,,,,,,,,,,,,,,,,,,,,,,35,2.3812,1,0,14,14,12,1,5,×,7,5 × 7,incongruent,smallerFirst,2,1,35,,,,,,,,
,,,,,,,,,,,,,,,653,2022-06-21_11h20.27.709,multiplicationStroop,2021.2.3,Win32,59.41770648,,,,,,,,,,,,,,,,,,,,,,,,,,,,,,,,,18,1.964,1,0,15,15,8,1,3,×,6,3 × 6,incongruent,smallerFirst,2,1,18,,,,,,,,
,,,,,,,,,,,,,,,653,2022-06-21_11h20.27.709,multiplicationStroop,2021.2.3,Win32,59.41770648,,,,,,,,,,,,,,,,,,,,,,,,,,,,,,,,,18,3.2157,1,0,16,16,2,1,2,×,9,2 × 9,incongruent,smallerFirst,2,1,18,,,,,,,,
,,,,,,,,,,,,,,,653,2022-06-21_11h20.27.709,multiplicationStroop,2021.2.3,Win32,59.41770648,,,,,,,,,,,,,,,,,,,,,,,,,,,,,,,,,16,2.1539,1,0,17,17,30,1,4,×,4,4 × 4,incongruent,tie,1,2,16,,,,,,,,
,,,,,,,,,,,,,,,653,2022-06-21_11h20.27.709,multiplicationStroop,2021.2.3,Win32,59.41770648,,,,,,,,,,,,,,,,,,,,,,,,,,,,,,,,,56,1.933,1,0,18,18,14,1,8,×,7,8 × 7,incongruent,largerFirst,1,2,56,,,,,,,,
,,,,,,,,,,,,,,,653,2022-06-21_11h20.27.709,multiplicationStroop,2021.2.3,Win32,59.41770648,,,,,,,,,,,,,,,,,,,,,,,,,,,,,,,,,8,2.1152,1,0,19,19,24,1,4,×,2,4 × 2,incongruent,largerFirst,1,2,8,,,,,,,,
,,,,,,,,,,,,,,,653,2022-06-21_11h20.27.709,multiplicationStroop,2021.2.3,Win32,59.41770648,,,,,,,,,,,,,,,,,,,,,,,,,,,,,,,,,36,2.0308,1,0,20,20,32,1,6,×,6,6 × 6,incongruent,tie,1,2,36,,,,,,,,
,,,,,,,,,,,,,,,653,2022-06-21_11h20.27.709,multiplicationStroop,2021.2.3,Win32,59.41770648,,,,,,,,,,,,,,,,,,,,,,,,,,,,,,,,,28,4.2473,0,0,21,21,20,1,6,×,4,6 × 4,incongruent,largerFirst,1,2,24,,,,,,,,
,,,,,,,,,,,,,,,653,2022-06-21_11h20.27.709,multiplicationStroop,2021.2.3,Win32,59.41770648,,,,,,,,,,,,,,,,,,,,,,,,,,,,,,,,,14,2.0673,1,0,22,22,4,1,2,×,7,2 × 7,incongruent,smallerFirst,2,1,14,,,,,,,,
,,,,,,,,,,,,,,,653,2022-06-21_11h20.27.709,multiplicationStroop,2021.2.3,Win32,59.41770648,,,,,,,,,,,,,,,,,,,,,,,,,,,,,,,,,36,2.1488,1,0,23,23,15,1,9,×,4,9 × 4,incongruent,largerFirst,1,2,36,,,,,,,,
,,,,,,,,,,,,,,,653,2022-06-21_11h20.27.709,multiplicationStroop,2021.2.3,Win32,59.41770648,,,,,,,,,,,,,,,,,,,,,,,,,,,,,,,,,32,4.0973,1,0,24,24,7,1,4,×,8,4 × 8,incongruent,smallerFirst,2,1,32,,,,,,,,
,,,,,,,,,,,,,,,653,2022-06-21_11h20.27.709,multiplicationStroop,2021.2.3,Win32,59.41770648,,,,,,,,,,,,,,,,,,,,,,,,,,,,,,,,,40,2.0791,1,0,25,25,13,1,5,×,8,5 × 8,incongruent,smallerFirst,2,1,40,,,,,,,,
,,,,,,,,,,,,,,,653,2022-06-21_11h20.27.709,multiplicationStroop,2021.2.3,Win32,59.41770648,,,,,,,,,,,,,,,,,,,,,,,,,,,,,,,,,16,1.7157,1,0,26,26,23,1,8,×,2,8 × 2,incongruent,largerFirst,1,2,16,,,,,,,,
,,,,,,,,,,,,,,,653,2022-06-21_11h20.27.709,multiplicationStroop,2021.2.3,Win32,59.41770648,,,,,,,,,,,,,,,,,,,,,,,,,,,,,,,,,28,2.0826,1,0,27,27,16,1,7,×,4,7 × 4,incongruent,largerFirst,1,2,28,,,,,,,,
,,,,,,,,,,,,,,,653,2022-06-21_11h20.27.709,multiplicationStroop,2021.2.3,Win32,59.41770648,,,,,,,,,,,,,,,,,,,,,,,,,,,,,,,,,4,1.4494,1,0,28,28,28,1,2,×,2,2 × 2,incongruent,tie,1,2,4,,,,,,,,
,,,,,,,,,,,,,,,653,2022-06-21_11h20.27.709,multiplicationStroop,2021.2.3,Win32,59.41770648,,,,,,,,,,,,,,,,,,,,,,,,,,,,,,,,,48,2.748,1,0,29,29,1,1,6,×,8,6 × 8,incongruent,smallerFirst,2,1,48,,,,,,,,
,,,,,,,,,,,,,,,653,2022-06-21_11h20.27.709,multiplicationStroop,2021.2.3,Win32,59.41770648,,,,,,,,,,,,,,,,,,,,,,,,,,,,,,,,,54,3.681,1,0,30,30,6,1,6,×,9,6 × 9,incongruent,smallerFirst,2,1,54,,,,,,,,
,,,,,,,,,,,,,,,653,2022-06-21_11h20.27.709,multiplicationStroop,2021.2.3,Win32,59.41770648,,,,,,,,,,,,,,,,,,,,,,,,,,,,,,,,,64,2.7196,1,0,31,31,34,1,8,×,8,8 × 8,incongruent,tie,1,2,64,,,,,,,,
,,,,,,,,,,,,,,,653,2022-06-21_11h20.27.709,multiplicationStroop,2021.2.3,Win32,59.41770648,,,,,,,,,,,,,,,,,,,,,,,,,,,,,,,,,12,2.2649,1,0,32,32,5,1,3,×,4,3 × 4,incongruent,smallerFirst,2,1,12,,,,,,,,
,,,,,,,,,,,,,,,653,2022-06-21_11h20.27.709,multiplicationStroop,2021.2.3,Win32,59.41770648,,,,,,,,,,,,,,,,,,,,,,,,,,,,,,,,,63,3.1141,1,0,33,33,3,1,7,×,9,7 × 9,incongruent,smallerFirst,2,1,63,,,,,,,,
,,,,,,,,,,,,,,,653,2022-06-21_11h20.27.709,multiplicationStroop,2021.2.3,Win32,59.41770648,,,,,,,,,,,,,,,,,,,,,,,,,,,,,,,,,12,2.9868,1,0,34,34,19,1,6,×,2,6 × 2,incongruent,largerFirst,1,2,12,,,,,,,,
,,,,,,,,,,,,,,,653,2022-06-21_11h20.27.709,multiplicationStroop,2021.2.3,Win32,59.41770648,,,,,,,,,,,,,,,,,,,,,,,,,,,,,,,,,30,1.7813,1,0,35,35,25,1,6,×,5,6 × 5,incongruent,largerFirst,1,2,30,,,,,,,,
,,,,,,,,,,,,,,,653,2022-06-21_11h20.27.709,multiplicationStroop,2021.2.3,Win32,59.41770648,,,,,,,,,,,,,,,,,,,,,,,,,,,,,,,,,,,,,,,,,,,,,,,,,,0,4,4,5,1,stimulusFile/mult_blk6_INcongruent.xlsx,,
,,,,,,,,,,,,,,,653,2022-06-21_11h20.27.709,multiplicationStroop,2021.2.3,Win32,59.41770648,,,,,,,,,,,,,,,,,,,,,,,,,,,,,,,space,0.9349,36,2.1237,1,0,0,0,32,1,6,×,6,6 × 6,neutral,tie,2,1,36,,,,,,,,
,,,,,,,,,,,,,,,653,2022-06-21_11h20.27.709,multiplicationStroop,2021.2.3,Win32,59.41770648,,,,,,,,,,,,,,,,,,,,,,,,,,,,,,,,,48,2.8475,0,0,1,1,3,1,6,×,7,6 × 7,incongruent,smallerFirst,2,1,42,,,,,,,,
,,,,,,,,,,,,,,,653,2022-06-21_11h20.27.709,multiplicationStroop,2021.2.3,Win32,59.41770648,,,,,,,,,,,,,,,,,,,,,,,,,,,,,,,,,16,2.3305,1,0,2,2,9,1,2,×,8,2 × 8,incongruent,smallerFirst,2,1,16,,,,,,,,
,,,,,,,,,,,,,,,653,2022-06-21_11h20.27.709,multiplicationStroop,2021.2.3,Win32,59.41770648,,,,,,,,,,,,,,,,,,,,,,,,,,,,,,,,,20,2.7819,1,0,3,3,13,1,4,×,5,4 × 5,incongruent,smallerFirst,2,1,20,,,,,,,,
,,,,,,,,,,,,,,,653,2022-06-21_11h20.27.709,multiplicationStroop,2021.2.3,Win32,59.41770648,,,,,,,,,,,,,,,,,,,,,,,,,,,,,,,,,54,3.2121,1,0,4,4,20,1,9,×,6,9 × 6,incongruent,largerFirst,1,2,54,,,,,,,,
,,,,,,,,,,,,,,,653,2022-06-21_11h20.27.709,multiplicationStroop,2021.2.3,Win32,59.41770648,,,,,,,,,,,,,,,,,,,,,,,,,,,,,,,,,45,2.7315,1,0,5,5,8,1,5,×,9,5 × 9,incongruent,smallerFirst,2,1,45,,,,,,,,
,,,,,,,,,,,,,,,653,2022-06-21_11h20.27.709,multiplicationStroop,2021.2.3,Win32,59.41770648,,,,,,,,,,,,,,,,,,,,,,,,,,,,,,,,,12,1.3518,1,0,6,6,5,1,2,×,6,2 × 6,incongruent,smallerFirst,2,1,12,,,,,,,,
,,,,,,,,,,,,,,,653,2022-06-21_11h20.27.709,multiplicationStroop,2021.2.3,Win32,59.41770648,,,,,,,,,,,,,,,,,,,,,,,,,,,,,,,,,9,1.4665,1,0,7,7,29,1,3,×,3,3 × 3,neutral,tie,2,1,9,,,,,,,,
,,,,,,,,,,,,,,,653,2022-06-21_11h20.27.709,multiplicationStroop,2021.2.3,Win32,59.41770648,,,,,,,,,,,,,,,,,,,,,,,,,,,,,,,,,27,2.5143,1,0,8,8,4,1,3,×,9,3 × 9,incongruent,smallerFirst,2,1,27,,,,,,,,
,,,,,,,,,,,,,,,653,2022-06-21_11h20.27.709,multiplicationStroop,2021.2.3,Win32,59.41770648,,,,,,,,,,,,,,,,,,,,,,,,,,,,,,,,,81,2.1821,1,0,9,9,35,1,9,×,9,9 × 9,neutral,tie,2,1,81,,,,,,,,
,,,,,,,,,,,,,,,653,2022-06-21_11h20.27.709,multiplicationStroop,2021.2.3,Win32,59.41770648,,,,,,,,,,,,,,,,,,,,,,,,,,,,,,,,,40,2.1318,1,0,10,10,27,1,8,×,5,8 × 5,incongruent,largerFirst,1,2,40,,,,,,,,
,,,,,,,,,,,,,,,653,2022-06-21_11h20.27.709,multiplicationStroop,2021.2.3,Win32,59.41770648,,,,,,,,,,,,,,,,,,,,,,,,,,,,,,,,,18,2.3211,1,0,11,11,22,1,6,×,3,6 × 3,incongruent,largerFirst,1,2,18,,,,,,,,
,,,,,,,,,,,,,,,653,2022-06-21_11h20.27.709,multiplicationStroop,2021.2.3,Win32,59.41770648,,,,,,,,,,,,,,,,,,,,,,,,,,,,,,,,,10,2.1155,1,0,12,12,7,1,2,×,5,2 × 5,incongruent,smallerFirst,2,1,10,,,,,,,,
,,,,,,,,,,,,,,,653,2022-06-21_11h20.27.709,multiplicationStroop,2021.2.3,Win32,59.41770648,,,,,,,,,,,,,,,,,,,,,,,,,,,,,,,,,4,1.4158,1,0,13,13,28,1,2,×,2,2 × 2,neutral,tie,2,1,4,,,,,,,,
,,,,,,,,,,,,,,,653,2022-06-21_11h20.27.709,multiplicationStroop,2021.2.3,Win32,59.41770648,,,,,,,,,,,,,,,,,,,,,,,,,,,,,,,,,32,2.1493,1,0,14,14,21,1,8,×,4,8 × 4,incongruent,largerFirst,1,2,32,,,,,,,,
,,,,,,,,,,,,,,,653,2022-06-21_11h20.27.709,multiplicationStroop,2021.2.3,Win32,59.41770648,,,,,,,,,,,,,,,,,,,,,,,,,,,,,,,,,8,2.1292,1,0,15,15,10,1,2,×,4,2 × 4,incongruent,smallerFirst,2,1,8,,,,,,,,
,,,,,,,,,,,,,,,653,2022-06-21_11h20.27.709,multiplicationStroop,2021.2.3,Win32,59.41770648,,,,,,,,,,,,,,,,,,,,,,,,,,,,,,,,,72,2.8625,1,0,16,16,14,1,9,×,8,9 × 8,incongruent,largerFirst,1,2,72,,,,,,,,
,,,,,,,,,,,,,,,653,2022-06-21_11h20.27.709,multiplicationStroop,2021.2.3,Win32,59.41770648,,,,,,,,,,,,,,,,,,,,,,,,,,,,,,,,,15,1.9639,1,0,17,17,24,1,5,×,3,5 × 3,incongruent,largerFirst,1,2,15,,,,,,,,
,,,,,,,,,,,,,,,653,2022-06-21_11h20.27.709,multiplicationStroop,2021.2.3,Win32,59.41770648,,,,,,,,,,,,,,,,,,,,,,,,,,,,,,,,,21,1.515,1,0,18,18,12,1,3,×,7,3 × 7,incongruent,smallerFirst,2,1,21,,,,,,,,
,,,,,,,,,,,,,,,653,2022-06-21_11h20.27.709,multiplicationStroop,2021.2.3,Win32,59.41770648,,,,,,,,,,,,,,,,,,,,,,,,,,,,,,,,,6,1.7831,1,0,19,19,25,1,3,×,2,3 × 2,incongruent,largerFirst,1,2,6,,,,,,,,
,,,,,,,,,,,,,,,653,2022-06-21_11h20.27.709,multiplicationStroop,2021.2.3,Win32,59.41770648,,,,,,,,,,,,,,,,,,,,,,,,,,,,,,,,,14,2.2325,1,0,20,20,18,1,7,×,2,7 × 2,incongruent,largerFirst,1,2,14,,,,,,,,
,,,,,,,,,,,,,,,653,2022-06-21_11h20.27.709,multiplicationStroop,2021.2.3,Win32,59.41770648,,,,,,,,,,,,,,,,,,,,,,,,,,,,,,,,,16,1.9814,1,0,21,21,30,1,4,×,4,4 × 4,neutral,tie,2,1,16,,,,,,,,
,,,,,,,,,,,,,,,653,2022-06-21_11h20.27.709,multiplicationStroop,2021.2.3,Win32,59.41770648,,,,,,,,,,,,,,,,,,,,,,,,,,,,,,,,,56,2.7663,1,0,22,22,0,1,7,×,8,7 × 8,incongruent,smallerFirst,2,1,56,,,,,,,,
,,,,,,,,,,,,,,,653,2022-06-21_11h20.27.709,multiplicationStroop,2021.2.3,Win32,59.41770648,,,,,,,,,,,,,,,,,,,,,,,,,,,,,,,,,49,2.0485,1,0,23,23,33,1,7,×,7,7 × 7,neutral,tie,2,1,49,,,,,,,,
,,,,,,,,,,,,,,,653,2022-06-21_11h20.27.709,multiplicationStroop,2021.2.3,Win32,59.41770648,,,,,,,,,,,,,,,,,,,,,,,,,,,,,,,,,28,4.181,1,0,24,24,2,1,4,×,7,4 × 7,incongruent,smallerFirst,2,1,28,,,,,,,,
,,,,,,,,,,,,,,,653,2022-06-21_11h20.27.709,multiplicationStroop,2021.2.3,Win32,59.41770648,,,,,,,,,,,,,,,,,,,,,,,,,,,,,,,,,25,2.0349,1,0,25,25,31,1,5,×,5,5 × 5,neutral,tie,2,1,25,,,,,,,,
,,,,,,,,,,,,,,,653,2022-06-21_11h20.27.709,multiplicationStroop,2021.2.3,Win32,59.41770648,,,,,,,,,,,,,,,,,,,,,,,,,,,,,,,,,30,1.9319,1,0,26,26,11,1,5,×,6,5 × 6,incongruent,smallerFirst,2,1,30,,,,,,,,
,,,,,,,,,,,,,,,653,2022-06-21_11h20.27.709,multiplicationStroop,2021.2.3,Win32,59.41770648,,,,,,,,,,,,,,,,,,,,,,,,,,,,,,,,,42,4.2314,0,0,27,27,17,1,9,×,7,9 × 7,incongruent,largerFirst,1,2,63,,,,,,,,
,,,,,,,,,,,,,,,653,2022-06-21_11h20.27.709,multiplicationStroop,2021.2.3,Win32,59.41770648,,,,,,,,,,,,,,,,,,,,,,,,,,,,,,,,,12,1.4455,1,0,28,28,19,1,4,×,3,4 × 3,incongruent,largerFirst,1,2,12,,,,,,,,
,,,,,,,,,,,,,,,653,2022-06-21_11h20.27.709,multiplicationStroop,2021.2.3,Win32,59.41770648,,,,,,,,,,,,,,,,,,,,,,,,,,,,,,,,,48,2.8231,1,0,29,29,15,1,8,×,6,8 × 6,incongruent,largerFirst,1,2,48,,,,,,,,
,,,,,,,,,,,,,,,653,2022-06-21_11h20.27.709,multiplicationStroop,2021.2.3,Win32,59.41770648,,,,,,,,,,,,,,,,,,,,,,,,,,,,,,,,,24,3.2537,1,0,30,30,6,1,4,×,6,4 × 6,incongruent,smallerFirst,2,1,24,,,,,,,,
,,,,,,,,,,,,,,,653,2022-06-21_11h20.27.709,multiplicationStroop,2021.2.3,Win32,59.41770648,,,,,,,,,,,,,,,,,,,,,,,,,,,,,,,,,24,4.1151,1,0,31,31,23,1,8,×,3,8 × 3,incongruent,largerFirst,1,2,24,,,,,,,,
,,,,,,,,,,,,,,,653,2022-06-21_11h20.27.709,multiplicationStroop,2021.2.3,Win32,59.41770648,,,,,,,,,,,,,,,,,,,,,,,,,,,,,,,,,35,3.4843,1,0,32,32,26,1,7,×,5,7 × 5,incongruent,largerFirst,1,2,35,,,,,,,,
,,,,,,,,,,,,,,,653,2022-06-21_11h20.27.709,multiplicationStroop,2021.2.3,Win32,59.41770648,,,,,,,,,,,,,,,,,,,,,,,,,,,,,,,,,32,8.2351,0,0,33,33,1,1,4,×,9,4 × 9,incongruent,smallerFirst,2,1,36,,,,,,,,
,,,,,,,,,,,,,,,653,2022-06-21_11h20.27.709,multiplicationStroop,2021.2.3,Win32,59.41770648,,,,,,,,,,,,,,,,,,,,,,,,,,,,,,,,,64,2.0005,1,0,34,34,34,1,8,×,8,8 × 8,neutral,tie,2,1,64,,,,,,,,
,,,,,,,,,,,,,,,653,2022-06-21_11h20.27.709,multiplicationStroop,2021.2.3,Win32,59.41770648,,,,,,,,,,,,,,,,,,,,,,,,,,,,,,,,,18,2.798,1,0,35,35,16,1,9,×,2,9 × 2,incongruent,largerFirst,1,2,18,,,,,,,,
,,,,,,,,,,,,,,,653,2022-06-21_11h20.27.709,multiplicationStroop,2021.2.3,Win32,59.41770648,,,,,,,,,,,,,,,,,,,,,,,,,,,,,,,,,,,,,,,,,,,,,,,,,,0,5,5,4,1,stimulusFile/mult_blk5_INcongruent.xlsx,,
,,,,,,,,,,,,,,,653,2022-06-21_11h20.27.709,multiplicationStroop,2021.2.3,Win32,59.41770648,,,,,,,,,,,,,,,,,,,,,,,,,,,,,,,,,,,,,,,,,,,,,,,,,,,,,,,,space,1.0923