welcomeKey_resp.keys,welcomeKey_resp.rt,X Scale,Y Scale,rt_resp_4.keys,rt_resp_4.corr,rt_resp_4.rt,speedtest_2.thisRepN,speedtest_2.thisTrialN,speedtest_2.thisN,speedtest_2.thisIndex,speedtest_2.ran,numberSc,posX,positionLayout,participant,date,expName,psychopyVersion,OS,frameRate,ct_instrresp.keys,ct_instrresp.rt,key_resp_2.keys,key_resp_2.rt,ct_keyResp.keys,ct_keyResp.corr,ct_keyResp.rt,trials.thisRepN,trials.thisTrialN,trials.thisN,trials.thisIndex,trials.ran,leftNo,rightNo,displayProblem,numDistance,leftNo_size,rightNo_size,Dims,keyAnswer,TS_Loop.thisRepN,TS_Loop.thisTrialN,TS_Loop.thisN,TS_Loop.thisIndex,TS_Loop.ran,Condition,ActionInst,instrImage,mltptaskInst_resp.keys,mltptaskInst_resp.rt,continue_resp_2.keys,continue_resp_2.rt,multp_Answer,multi_RT,multiplyCorr,LoopingMultiply.thisRepN,LoopingMultiply.thisTrialN,LoopingMultiply.thisN,LoopingMultiply.thisIndex,LoopingMultiply.ran,factor1,multiplySign,factor2,multliplyProblem,physicalSize,orderOperand,sizeF1,sizeF2,mult_answer,trials_stroop.thisRepN,trials_stroop.thisTrialN,trials_stroop.thisN,trials_stroop.thisIndex,trials_stroop.ran,multiplicationFile,esckey_resp_2.keys,esckey_resp_2.rt
y,22.3455,47,46.5,right,1,1.2146,0,0,0,12,1,6,200,right,656,2022-06-20_10h09.10.049,multiplicationStroop,2021.2.3,Win32,29.96524032,,,,,,,,,,,,,,,,,,,,,,,,,,,,,,,,,,,,,,,,,,,,,,,,,,,,,,,,,
,,,,left,1,0.5421,0,1,1,2,1,3,-200,left,656,2022-06-20_10h09.10.049,multiplicationStroop,2021.2.3,Win32,29.96524032,,,,,,,,,,,,,,,,,,,,,,,,,,,,,,,,,,,,,,,,,,,,,,,,,,,,,,,,,
,,,,right,1,0.4327,0,2,2,9,1,2,200,right,656,2022-06-20_10h09.10.049,multiplicationStroop,2021.2.3,Win32,29.96524032,,,,,,,,,,,,,,,,,,,,,,,,,,,,,,,,,,,,,,,,,,,,,,,,,,,,,,,,,
,,,,left,1,0.3899,0,3,3,7,1,9,-200,left,656,2022-06-20_10h09.10.049,multiplicationStroop,2021.2.3,Win32,29.96524032,,,,,,,,,,,,,,,,,,,,,,,,,,,,,,,,,,,,,,,,,,,,,,,,,,,,,,,,,
,,,,left,1,0.4824,0,4,4,4,1,6,-200,left,656,2022-06-20_10h09.10.049,multiplicationStroop,2021.2.3,Win32,29.96524032,,,,,,,,,,,,,,,,,,,,,,,,,,,,,,,,,,,,,,,,,,,,,,,,,,,,,,,,,
,,,,right,1,0.6058,0,5,5,15,1,9,200,right,656,2022-06-20_10h09.10.049,multiplicationStroop,2021.2.3,Win32,29.96524032,,,,,,,,,,,,,,,,,,,,,,,,,,,,,,,,,,,,,,,,,,,,,,,,,,,,,,,,,
,,,,left,1,0.4844,0,6,6,5,1,7,-200,left,656,2022-06-20_10h09.10.049,multiplicationStroop,2021.2.3,Win32,29.96524032,,,,,,,,,,,,,,,,,,,,,,,,,,,,,,,,,,,,,,,,,,,,,,,,,,,,,,,,,
,,,,right,1,0.7388,0,7,7,14,1,8,200,right,656,2022-06-20_10h09.10.049,multiplicationStroop,2021.2.3,Win32,29.96524032,,,,,,,,,,,,,,,,,,,,,,,,,,,,,,,,,,,,,,,,,,,,,,,,,,,,,,,,,
,,,,left,1,0.4493,0,8,8,1,1,2,-200,left,656,2022-06-20_10h09.10.049,multiplicationStroop,2021.2.3,Win32,29.96524032,,,,,,,,,,,,,,,,,,,,,,,,,,,,,,,,,,,,,,,,,,,,,,,,,,,,,,,,,
,,,,right,1,0.4018,0,9,9,10,1,3,200,right,656,2022-06-20_10h09.10.049,multiplicationStroop,2021.2.3,Win32,29.96524032,,,,,,,,,,,,,,,,,,,,,,,,,,,,,,,,,,,,,,,,,,,,,,,,,,,,,,,,,
,,,,right,1,0.4627,0,10,10,11,1,4,200,right,656,2022-06-20_10h09.10.049,multiplicationStroop,2021.2.3,Win32,29.96524032,,,,,,,,,,,,,,,,,,,,,,,,,,,,,,,,,,,,,,,,,,,,,,,,,,,,,,,,,
,,,,left,1,0.3988,0,11,11,3,1,4,-200,left,656,2022-06-20_10h09.10.049,multiplicationStroop,2021.2.3,Win32,29.96524032,,,,,,,,,,,,,,,,,,,,,,,,,,,,,,,,,,,,,,,,,,,,,,,,,,,,,,,,,
,,,,right,1,0.4001,0,12,12,8,1,1,200,right,656,2022-06-20_10h09.10.049,multiplicationStroop,2021.2.3,Win32,29.96524032,,,,,,,,,,,,,,,,,,,,,,,,,,,,,,,,,,,,,,,,,,,,,,,,,,,,,,,,,
,,,,left,1,0.4989,0,13,13,0,1,1,-200,left,656,2022-06-20_10h09.10.049,multiplicationStroop,2021.2.3,Win32,29.96524032,,,,,,,,,,,,,,,,,,,,,,,,,,,,,,,,,,,,,,,,,,,,,,,,,,,,,,,,,
,,,,left,1,0.5703,0,14,14,6,1,8,-200,left,656,2022-06-20_10h09.10.049,multiplicationStroop,2021.2.3,Win32,29.96524032,,,,,,,,,,,,,,,,,,,,,,,,,,,,,,,,,,,,,,,,,,,,,,,,,,,,,,,,,
,,,,right,1,0.4353,0,15,15,13,1,7,200,right,656,2022-06-20_10h09.10.049,multiplicationStroop,2021.2.3,Win32,29.96524032,,,,,,,,,,,,,,,,,,,,,,,,,,,,,,,,,,,,,,,,,,,,,,,,,,,,,,,,,
,,,,left,1,0.5235,1,0,16,3,1,4,-200,left,656,2022-06-20_10h09.10.049,multiplicationStroop,2021.2.3,Win32,29.96524032,,,,,,,,,,,,,,,,,,,,,,,,,,,,,,,,,,,,,,,,,,,,,,,,,,,,,,,,,
,,,,right,1,0.5239,1,1,17,12,1,6,200,right,656,2022-06-20_10h09.10.049,multiplicationStroop,2021.2.3,Win32,29.96524032,,,,,,,,,,,,,,,,,,,,,,,,,,,,,,,,,,,,,,,,,,,,,,,,,,,,,,,,,
,,,,left,1,0.6036,1,2,18,4,1,6,-200,left,656,2022-06-20_10h09.10.049,multiplicationStroop,2021.2.3,Win32,29.96524032,,,,,,,,,,,,,,,,,,,,,,,,,,,,,,,,,,,,,,,,,,,,,,,,,,,,,,,,,
,,,,right,1,0.576,1,3,19,10,1,3,200,right,656,2022-06-20_10h09.10.049,multiplicationStroop,2021.2.3,Win32,29.96524032,,,,,,,,,,,,,,,,,,,,,,,,,,,,,,,,,,,,,,,,,,,,,,,,,,,,,,,,,
,,,,right,1,0.6121,1,4,20,13,1,7,200,right,656,2022-06-20_10h09.10.049,multiplicationStroop,2021.2.3,Win32,29.96524032,,,,,,,,,,,,,,,,,,,,,,,,,,,,,,,,,,,,,,,,,,,,,,,,,,,,,,,,,
,,,,left,1,0.5262,1,5,21,2,1,3,-200,left,656,2022-06-20_10h09.10.049,multiplicationStroop,2021.2.3,Win32,29.96524032,,,,,,,,,,,,,,,,,,,,,,,,,,,,,,,,,,,,,,,,,,,,,,,,,,,,,,,,,
,,,,right,1,0.4843,1,6,22,9,1,2,200,right,656,2022-06-20_10h09.10.049,multiplicationStroop,2021.2.3,Win32,29.96524032,,,,,,,,,,,,,,,,,,,,,,,,,,,,,,,,,,,,,,,,,,,,,,,,,,,,,,,,,
,,,,left,1,0.5175,1,7,23,1,1,2,-200,left,656,2022-06-20_10h09.10.049,multiplicationStroop,2021.2.3,Win32,29.96524032,,,,,,,,,,,,,,,,,,,,,,,,,,,,,,,,,,,,,,,,,,,,,,,,,,,,,,,,,
,,,,left,1,0.6155,1,8,24,7,1,9,-200,left,656,2022-06-20_10h09.10.049,multiplicationStroop,2021.2.3,Win32,29.96524032,,,,,,,,,,,,,,,,,,,,,,,,,,,,,,,,,,,,,,,,,,,,,,,,,,,,,,,,,
,,,,right,1,0.5802,1,9,25,14,1,8,200,right,656,2022-06-20_10h09.10.049,multiplicationStroop,2021.2.3,Win32,29.96524032,,,,,,,,,,,,,,,,,,,,,,,,,,,,,,,,,,,,,,,,,,,,,,,,,,,,,,,,,
,,,,left,1,0.4532,1,10,26,6,1,8,-200,left,656,2022-06-20_10h09.10.049,multiplicationStroop,2021.2.3,Win32,29.96524032,,,,,,,,,,,,,,,,,,,,,,,,,,,,,,,,,,,,,,,,,,,,,,,,,,,,,,,,,
,,,,right,1,0.4396,1,11,27,11,1,4,200,right,656,2022-06-20_10h09.10.049,multiplicationStroop,2021.2.3,Win32,29.96524032,,,,,,,,,,,,,,,,,,,,,,,,,,,,,,,,,,,,,,,,,,,,,,,,,,,,,,,,,
,,,,left,1,0.3869,1,12,28,5,1,7,-200,left,656,2022-06-20_10h09.10.049,multiplicationStroop,2021.2.3,Win32,29.96524032,,,,,,,,,,,,,,,,,,,,,,,,,,,,,,,,,,,,,,,,,,,,,,,,,,,,,,,,,
,,,,left,1,0.513,1,13,29,0,1,1,-200,left,656,2022-06-20_10h09.10.049,multiplicationStroop,2021.2.3,Win32,29.96524032,,,,,,,,,,,,,,,,,,,,,,,,,,,,,,,,,,,,,,,,,,,,,,,,,,,,,,,,,
,,,,right,1,0.4302,1,14,30,8,1,1,200,right,656,2022-06-20_10h09.10.049,multiplicationStroop,2021.2.3,Win32,29.96524032,,,,,,,,,,,,,,,,,,,,,,,,,,,,,,,,,,,,,,,,,,,,,,,,,,,,,,,,,
,,,,right,1,0.4705,1,15,31,15,1,9,200,right,656,2022-06-20_10h09.10.049,multiplicationStroop,2021.2.3,Win32,29.96524032,,,,,,,,,,,,,,,,,,,,,,,,,,,,,,,,,,,,,,,,,,,,,,,,,,,,,,,,,
,,,,left,1,0.4824,2,0,32,0,1,1,-200,left,656,2022-06-20_10h09.10.049,multiplicationStroop,2021.2.3,Win32,29.96524032,,,,,,,,,,,,,,,,,,,,,,,,,,,,,,,,,,,,,,,,,,,,,,,,,,,,,,,,,
,,,,right,1,0.4259,2,1,33,10,1,3,200,right,656,2022-06-20_10h09.10.049,multiplicationStroop,2021.2.3,Win32,29.96524032,,,,,,,,,,,,,,,,,,,,,,,,,,,,,,,,,,,,,,,,,,,,,,,,,,,,,,,,,
,,,,right,1,0.4661,2,2,34,8,1,1,200,right,656,2022-06-20_10h09.10.049,multiplicationStroop,2021.2.3,Win32,29.96524032,,,,,,,,,,,,,,,,,,,,,,,,,,,,,,,,,,,,,,,,,,,,,,,,,,,,,,,,,
,,,,right,1,0.4328,2,3,35,15,1,9,200,right,656,2022-06-20_10h09.10.049,multiplicationStroop,2021.2.3,Win32,29.96524032,,,,,,,,,,,,,,,,,,,,,,,,,,,,,,,,,,,,,,,,,,,,,,,,,,,,,,,,,
,,,,left,1,0.6202,2,4,36,3,1,4,-200,left,656,2022-06-20_10h09.10.049,multiplicationStroop,2021.2.3,Win32,29.96524032,,,,,,,,,,,,,,,,,,,,,,,,,,,,,,,,,,,,,,,,,,,,,,,,,,,,,,,,,
,,,,right,1,0.4685,2,5,37,13,1,7,200,right,656,2022-06-20_10h09.10.049,multiplicationStroop,2021.2.3,Win32,29.96524032,,,,,,,,,,,,,,,,,,,,,,,,,,,,,,,,,,,,,,,,,,,,,,,,,,,,,,,,,
,,,,right,1,0.3893,2,6,38,9,1,2,200,right,656,2022-06-20_10h09.10.049,multiplicationStroop,2021.2.3,Win32,29.96524032,,,,,,,,,,,,,,,,,,,,,,,,,,,,,,,,,,,,,,,,,,,,,,,,,,,,,,,,,
,,,,right,1,0.4232,2,7,39,12,1,6,200,right,656,2022-06-20_10h09.10.049,multiplicationStroop,2021.2.3,Win32,29.96524032,,,,,,,,,,,,,,,,,,,,,,,,,,,,,,,,,,,,,,,,,,,,,,,,,,,,,,,,,
,,,,left,1,0.5248,2,8,40,4,1,6,-200,left,656,2022-06-20_10h09.10.049,multiplicationStroop,2021.2.3,Win32,29.96524032,,,,,,,,,,,,,,,,,,,,,,,,,,,,,,,,,,,,,,,,,,,,,,,,,,,,,,,,,
,,,,right,1,0.4861,2,9,41,11,1,4,200,right,656,2022-06-20_10h09.10.049,multiplicationStroop,2021.2.3,Win32,29.96524032,,,,,,,,,,,,,,,,,,,,,,,,,,,,,,,,,,,,,,,,,,,,,,,,,,,,,,,,,
,,,,left,1,0.5554,2,10,42,6,1,8,-200,left,656,2022-06-20_10h09.10.049,multiplicationStroop,2021.2.3,Win32,29.96524032,,,,,,,,,,,,,,,,,,,,,,,,,,,,,,,,,,,,,,,,,,,,,,,,,,,,,,,,,
,,,,right,1,0.4982,2,11,43,14,1,8,200,right,656,2022-06-20_10h09.10.049,multiplicationStroop,2021.2.3,Win32,29.96524032,,,,,,,,,,,,,,,,,,,,,,,,,,,,,,,,,,,,,,,,,,,,,,,,,,,,,,,,,
,,,,left,1,0.4234,2,12,44,7,1,9,-200,left,656,2022-06-20_10h09.10.049,multiplicationStroop,2021.2.3,Win32,29.96524032,,,,,,,,,,,,,,,,,,,,,,,,,,,,,,,,,,,,,,,,,,,,,,,,,,,,,,,,,
,,,,left,1,1.6823,2,13,45,5,1,7,-200,left,656,2022-06-20_10h09.10.049,multiplicationStroop,2021.2.3,Win32,29.96524032,,,,,,,,,,,,,,,,,,,,,,,,,,,,,,,,,,,,,,,,,,,,,,,,,,,,,,,,,
,,,,left,1,0.5008,2,14,46,2,1,3,-200,left,656,2022-06-20_10h09.10.049,multiplicationStroop,2021.2.3,Win32,29.96524032,,,,,,,,,,,,,,,,,,,,,,,,,,,,,,,,,,,,,,,,,,,,,,,,,,,,,,,,,
,,,,left,1,0.381,2,15,47,1,1,2,-200,left,656,2022-06-20_10h09.10.049,multiplicationStroop,2021.2.3,Win32,29.96524032,,,,,,,,,,,,,,,,,,,,,,,,,,,,,,,,,,,,,,,,,,,,,,,,,,,,,,,,,
,,,,left,1,0.364,3,0,48,5,1,7,-200,left,656,2022-06-20_10h09.10.049,multiplicationStroop,2021.2.3,Win32,29.96524032,,,,,,,,,,,,,,,,,,,,,,,,,,,,,,,,,,,,,,,,,,,,,,,,,,,,,,,,,
,,,,left,1,0.3944,3,1,49,7,1,9,-200,left,656,2022-06-20_10h09.10.049,multiplicationStroop,2021.2.3,Win32,29.96524032,,,,,,,,,,,,,,,,,,,,,,,,,,,,,,,,,,,,,,,,,,,,,,,,,,,,,,,,,
,,,,right,1,0.4358,3,2,50,10,1,3,200,right,656,2022-06-20_10h09.10.049,multiplicationStroop,2021.2.3,Win32,29.96524032,,,,,,,,,,,,,,,,,,,,,,,,,,,,,,,,,,,,,,,,,,,,,,,,,,,,,,,,,
,,,,right,1,0.4077,3,3,51,11,1,4,200,right,656,2022-06-20_10h09.10.049,multiplicationStroop,2021.2.3,Win32,29.96524032,,,,,,,,,,,,,,,,,,,,,,,,,,,,,,,,,,,,,,,,,,,,,,,,,,,,,,,,,
,,,,right,1,0.4335,3,4,52,12,1,6,200,right,656,2022-06-20_10h09.10.049,multiplicationStroop,2021.2.3,Win32,29.96524032,,,,,,,,,,,,,,,,,,,,,,,,,,,,,,,,,,,,,,,,,,,,,,,,,,,,,,,,,
,,,,right,1,0.4142,3,5,53,15,1,9,200,right,656,2022-06-20_10h09.10.049,multiplicationStroop,2021.2.3,Win32,29.96524032,,,,,,,,,,,,,,,,,,,,,,,,,,,,,,,,,,,,,,,,,,,,,,,,,,,,,,,,,
,,,,right,1,0.449,3,6,54,13,1,7,200,right,656,2022-06-20_10h09.10.049,multiplicationStroop,2021.2.3,Win32,29.96524032,,,,,,,,,,,,,,,,,,,,,,,,,,,,,,,,,,,,,,,,,,,,,,,,,,,,,,,,,
,,,,left,1,0.4663,3,7,55,6,1,8,-200,left,656,2022-06-20_10h09.10.049,multiplicationStroop,2021.2.3,Win32,29.96524032,,,,,,,,,,,,,,,,,,,,,,,,,,,,,,,,,,,,,,,,,,,,,,,,,,,,,,,,,
,,,,left,1,0.393,3,8,56,0,1,1,-200,left,656,2022-06-20_10h09.10.049,multiplicationStroop,2021.2.3,Win32,29.96524032,,,,,,,,,,,,,,,,,,,,,,,,,,,,,,,,,,,,,,,,,,,,,,,,,,,,,,,,,
,,,,left,1,0.4607,3,9,57,4,1,6,-200,left,656,2022-06-20_10h09.10.049,multiplicationStroop,2021.2.3,Win32,29.96524032,,,,,,,,,,,,,,,,,,,,,,,,,,,,,,,,,,,,,,,,,,,,,,,,,,,,,,,,,
,,,,left,1,0.4427,3,10,58,3,1,4,-200,left,656,2022-06-20_10h09.10.049,multiplicationStroop,2021.2.3,Win32,29.96524032,,,,,,,,,,,,,,,,,,,,,,,,,,,,,,,,,,,,,,,,,,,,,,,,,,,,,,,,,
,,,,right,1,0.481,3,11,59,9,1,2,200,right,656,2022-06-20_10h09.10.049,multiplicationStroop,2021.2.3,Win32,29.96524032,,,,,,,,,,,,,,,,,,,,,,,,,,,,,,,,,,,,,,,,,,,,,,,,,,,,,,,,,
,,,,left,1,0.4978,3,12,60,2,1,3,-200,left,656,2022-06-20_10h09.10.049,multiplicationStroop,2021.2.3,Win32,29.96524032,,,,,,,,,,,,,,,,,,,,,,,,,,,,,,,,,,,,,,,,,,,,,,,,,,,,,,,,,
,,,,right,1,0.364,3,13,61,8,1,1,200,right,656,2022-06-20_10h09.10.049,multiplicationStroop,2021.2.3,Win32,29.96524032,,,,,,,,,,,,,,,,,,,,,,,,,,,,,,,,,,,,,,,,,,,,,,,,,,,,,,,,,
,,,,right,1,0.4398,3,14,62,14,1,8,200,right,656,2022-06-20_10h09.10.049,multiplicationStroop,2021.2.3,Win32,29.96524032,,,,,,,,,,,,,,,,,,,,,,,,,,,,,,,,,,,,,,,,,,,,,,,,,,,,,,,,,
,,,,left,1,0.3903,3,15,63,1,1,2,-200,left,656,2022-06-20_10h09.10.049,multiplicationStroop,2021.2.3,Win32,29.96524032,,,,,,,,,,,,,,,,,,,,,,,,,,,,,,,,,,,,,,,,,,,,,,,,,,,,,,,,,
,,,,,,,,,,,,,,,656,2022-06-20_10h09.10.049,multiplicationStroop,2021.2.3,Win32,29.96524032,space,65.9061,space,7.5396,right,1,1.0653,0,0,0,18,1,3,8,3 | 8,5,1.4111,1.9756,congruent,right,,,,,,stimulusFile/magnitude.xlsx,,,,,,,,,,,,,,,,,,,,,,,,,,,,,,,
,,,,,,,,,,,,,,,656,2022-06-20_10h09.10.049,multiplicationStroop,2021.2.3,Win32,29.96524032,,,,,right,1,0.7445,0,1,1,43,1,4,9,4 | 9,5,1.9756,1.4111,incongruent,right,,,,,,stimulusFile/magnitude.xlsx,,,,,,,,,,,,,,,,,,,,,,,,,,,,,,,
,,,,,,,,,,,,,,,656,2022-06-20_10h09.10.049,multiplicationStroop,2021.2.3,Win32,29.96524032,,,,,left,1,0.7432,0,2,2,14,1,8,6,8 | 6,2,1.9756,1.4111,congruent,left,,,,,,stimulusFile/magnitude.xlsx,,,,,,,,,,,,,,,,,,,,,,,,,,,,,,,
,,,,,,,,,,,,,,,656,2022-06-20_10h09.10.049,multiplicationStroop,2021.2.3,Win32,29.96524032,,,,,left,1,1.1071,0,3,3,52,1,2,1,2 | 1,1,1.6933,1.6933,neutral,left,,,,,,stimulusFile/magnitude.xlsx,,,,,,,,,,,,,,,,,,,,,,,,,,,,,,,
,,,,,,,,,,,,,,,656,2022-06-20_10h09.10.049,multiplicationStroop,2021.2.3,Win32,29.96524032,,,,,left,1,0.8148,0,4,4,62,1,8,6,8 | 6,2,1.6933,1.6933,neutral,left,,,,,,stimulusFile/magnitude.xlsx,,,,,,,,,,,,,,,,,,,,,,,,,,,,,,,
,,,,,,,,,,,,,,,656,2022-06-20_10h09.10.049,multiplicationStroop,2021.2.3,Win32,29.96524032,,,,,right,1,0.756,0,5,5,50,1,6,7,6 | 7,1,1.6933,1.6933,neutral,right,,,,,,stimulusFile/magnitude.xlsx,,,,,,,,,,,,,,,,,,,,,,,,,,,,,,,
,,,,,,,,,,,,,,,656,2022-06-20_10h09.10.049,multiplicationStroop,2021.2.3,Win32,29.96524032,,,,,right,1,0.6335,0,6,6,66,1,3,8,3 | 8,5,1.6933,1.6933,neutral,right,,,,,,stimulusFile/magnitude.xlsx,,,,,,,,,,,,,,,,,,,,,,,,,,,,,,,
,,,,,,,,,,,,,,,656,2022-06-20_10h09.10.049,multiplicationStroop,2021.2.3,Win32,29.96524032,,,,,left,1,0.6636,0,7,7,47,1,9,4,9 | 4,5,1.4111,1.9756,incongruent,left,,,,,,stimulusFile/magnitude.xlsx,,,,,,,,,,,,,,,,,,,,,,,,,,,,,,,
,,,,,,,,,,,,,,,656,2022-06-20_10h09.10.049,multiplicationStroop,2021.2.3,Win32,29.96524032,,,,,right,1,0.5598,0,8,8,65,1,2,7,2 | 7,5,1.6933,1.6933,neutral,right,,,,,,stimulusFile/magnitude.xlsx,,,,,,,,,,,,,,,,,,,,,,,,,,,,,,,
,,,,,,,,,,,,,,,656,2022-06-20_10h09.10.049,multiplicationStroop,2021.2.3,Win32,29.96524032,,,,,right,1,0.516,0,9,9,10,1,6,8,6 | 8,2,1.4111,1.9756,congruent,right,,,,,,stimulusFile/magnitude.xlsx,,,,,,,,,,,,,,,,,,,,,,,,,,,,,,,
,,,,,,,,,,,,,,,656,2022-06-20_10h09.10.049,multiplicationStroop,2021.2.3,Win32,29.96524032,,,,,left,1,0.7851,0,10,10,30,1,7,6,7 | 6,1,1.4111,1.9756,incongruent,left,,,,,,stimulusFile/magnitude.xlsx,,,,,,,,,,,,,,,,,,,,,,,,,,,,,,,
,,,,,,,,,,,,,,,656,2022-06-20_10h09.10.049,multiplicationStroop,2021.2.3,Win32,29.96524032,,,,,left,1,0.7855,0,11,11,45,1,7,2,7 | 2,5,1.4111,1.9756,incongruent,left,,,,,,stimulusFile/magnitude.xlsx,,,,,,,,,,,,,,,,,,,,,,,,,,,,,,,
,,,,,,,,,,,,,,,656,2022-06-20_10h09.10.049,multiplicationStroop,2021.2.3,Win32,29.96524032,,,,,left,1,0.4812,0,12,12,21,1,7,2,7 | 2,5,1.9756,1.4111,congruent,left,,,,,,stimulusFile/magnitude.xlsx,,,,,,,,,,,,,,,,,,,,,,,,,,,,,,,
,,,,,,,,,,,,,,,656,2022-06-20_10h09.10.049,multiplicationStroop,2021.2.3,Win32,29.96524032,,,,,left,1,0.6025,0,13,13,22,1,8,3,8 | 3,5,1.9756,1.4111,congruent,left,,,,,,stimulusFile/magnitude.xlsx,,,,,,,,,,,,,,,,,,,,,,,,,,,,,,,
,,,,,,,,,,,,,,,656,2022-06-20_10h09.10.049,multiplicationStroop,2021.2.3,Win32,29.96524032,,,,,right,0,0.664,0,14,14,39,1,9,7,9 | 7,2,1.4111,1.9756,incongruent,left,,,,,,stimulusFile/magnitude.xlsx,,,,,,,,,,,,,,,,,,,,,,,,,,,,,,,
,,,,,,,,,,,,,,,656,2022-06-20_10h09.10.049,multiplicationStroop,2021.2.3,Win32,29.96524032,,,,,right,1,0.9907,0,15,15,8,1,1,3,1 | 3,2,1.4111,1.9756,congruent,right,,,,,,stimulusFile/magnitude.xlsx,,,,,,,,,,,,,,,,,,,,,,,,,,,,,,,
,,,,,,,,,,,,,,,656,2022-06-20_10h09.10.049,multiplicationStroop,2021.2.3,Win32,29.96524032,,,,,left,1,0.8488,0,16,16,55,1,9,8,9 | 8,1,1.6933,1.6933,neutral,left,,,,,,stimulusFile/magnitude.xlsx,,,,,,,,,,,,,,,,,,,,,,,,,,,,,,,
,,,,,,,,,,,,,,,656,2022-06-20_10h09.10.049,multiplicationStroop,2021.2.3,Win32,29.96524032,,,,,left,1,0.7726,0,17,17,61,1,4,2,4 | 2,2,1.6933,1.6933,neutral,left,,,,,,stimulusFile/magnitude.xlsx,,,,,,,,,,,,,,,,,,,,,,,,,,,,,,,
,,,,,,,,,,,,,,,656,2022-06-20_10h09.10.049,multiplicationStroop,2021.2.3,Win32,29.96524032,,,,,left,1,0.6674,0,18,18,71,1,9,4,9 | 4,5,1.6933,1.6933,neutral,left,,,,,,stimulusFile/magnitude.xlsx,,,,,,,,,,,,,,,,,,,,,,,,,,,,,,,
,,,,,,,,,,,,,,,656,2022-06-20_10h09.10.049,multiplicationStroop,2021.2.3,Win32,29.96524032,,,,,left,1,0.5606,0,19,19,23,1,9,4,9 | 4,5,1.9756,1.4111,congruent,left,,,,,,stimulusFile/magnitude.xlsx,,,,,,,,,,,,,,,,,,,,,,,,,,,,,,,
,,,,,,,,,,,,,,,656,2022-06-20_10h09.10.049,multiplicationStroop,2021.2.3,Win32,29.96524032,,,,,left,1,0.8704,0,20,20,60,1,3,1,3 | 1,2,1.6933,1.6933,neutral,left,,,,,,stimulusFile/magnitude.xlsx,,,,,,,,,,,,,,,,,,,,,,,,,,,,,,,
,,,,,,,,,,,,,,,656,2022-06-20_10h09.10.049,multiplicationStroop,2021.2.3,Win32,29.96524032,,,,,left,1,1.396,0,21,21,5,1,4,3,4 | 3,1,1.9756,1.4111,congruent,left,,,,,,stimulusFile/magnitude.xlsx,,,,,,,,,,,,,,,,,,,,,,,,,,,,,,,
,,,,,,,,,,,,,,,656,2022-06-20_10h09.10.049,multiplicationStroop,2021.2.3,Win32,29.96524032,,,,,left,1,0.5733,0,22,22,46,1,8,3,8 | 3,5,1.4111,1.9756,incongruent,left,,,,,,stimulusFile/magnitude.xlsx,,,,,,,,,,,,,,,,,,,,,,,,,,,,,,,
,,,,,,,,,,,,,,,656,2022-06-20_10h09.10.049,multiplicationStroop,2021.2.3,Win32,29.96524032,,,,,left,1,0.6632,0,23,23,6,1,7,6,7 | 6,1,1.9756,1.4111,congruent,left,,,,,,stimulusFile/magnitude.xlsx,,,,,,,,,,,,,,,,,,,,,,,,,,,,,,,
,,,,,,,,,,,,,,,656,2022-06-20_10h09.10.049,multiplicationStroop,2021.2.3,Win32,29.96524032,,,,,left,1,0.7346,0,24,24,13,1,4,2,4 | 2,2,1.9756,1.4111,congruent,left,,,,,,stimulusFile/magnitude.xlsx,,,,,,,,,,,,,,,,,,,,,,,,,,,,,,,
,,,,,,,,,,,,,,,656,2022-06-20_10h09.10.049,multiplicationStroop,2021.2.3,Win32,29.96524032,,,,,right,1,0.8736,0,25,25,48,1,1,2,1 | 2,1,1.6933,1.6933,neutral,right,,,,,,stimulusFile/magnitude.xlsx,,,,,,,,,,,,,,,,,,,,,,,,,,,,,,,
,,,,,,,,,,,,,,,656,2022-06-20_10h09.10.049,multiplicationStroop,2021.2.3,Win32,29.96524032,,,,,right,1,1.1913,0,26,26,35,1,7,9,7 | 9,2,1.9756,1.4111,incongruent,right,,,,,,stimulusFile/magnitude.xlsx,,,,,,,,,,,,,,,,,,,,,,,,,,,,,,,
,,,,,,,,,,,,,,,656,2022-06-20_10h09.10.049,multiplicationStroop,2021.2.3,Win32,29.96524032,,,,,right,1,0.9163,0,27,27,27,1,8,9,8 | 9,1,1.9756,1.4111,incongruent,right,,,,,,stimulusFile/magnitude.xlsx,,,,,,,,,,,,,,,,,,,,,,,,,,,,,,,
,,,,,,,,,,,,,,,656,2022-06-20_10h09.10.049,multiplicationStroop,2021.2.3,Win32,29.96524032,,,,,left,1,0.7234,0,28,28,4,1,2,1,2 | 1,1,1.9756,1.4111,congruent,left,,,,,,stimulusFile/magnitude.xlsx,,,,,,,,,,,,,,,,,,,,,,,,,,,,,,,
,,,,,,,,,,,,,,,656,2022-06-20_10h09.10.049,multiplicationStroop,2021.2.3,Win32,29.96524032,,,,,right,1,0.6989,0,29,29,17,1,2,7,2 | 7,5,1.4111,1.9756,congruent,right,,,,,,stimulusFile/magnitude.xlsx,,,,,,,,,,,,,,,,,,,,,,,,,,,,,,,
,,,,,,,,,,,,,,,656,2022-06-20_10h09.10.049,multiplicationStroop,2021.2.3,Win32,29.96524032,,,,,left,1,1.1876,0,30,30,36,1,3,1,3 | 1,2,1.4111,1.9756,incongruent,left,,,,,,stimulusFile/magnitude.xlsx,,,,,,,,,,,,,,,,,,,,,,,,,,,,,,,
,,,,,,,,,,,,,,,656,2022-06-20_10h09.10.049,multiplicationStroop,2021.2.3,Win32,29.96524032,,,,,right,1,1.1765,0,31,31,41,1,2,7,2 | 7,5,1.9756,1.4111,incongruent,right,,,,,,stimulusFile/magnitude.xlsx,,,,,,,,,,,,,,,,,,,,,,,,,,,,,,,
,,,,,,,,,,,,,,,656,2022-06-20_10h09.10.049,multiplicationStroop,2021.2.3,Win32,29.96524032,,,,,right,1,0.7806,0,32,32,33,1,2,4,2 | 4,2,1.9756,1.4111,incongruent,right,,,,,,stimulusFile/magnitude.xlsx,,,,,,,,,,,,,,,,,,,,,,,,,,,,,,,
,,,,,,,,,,,,,,,656,2022-06-20_10h09.10.049,multiplicationStroop,2021.2.3,Win32,29.96524032,,,,,right,1,0.6813,0,33,33,32,1,1,3,1 | 3,2,1.9756,1.4111,incongruent,right,,,,,,stimulusFile/magnitude.xlsx,,,,,,,,,,,,,,,,,,,,,,,,,,,,,,,
,,,,,,,,,,,,,,,656,2022-06-20_10h09.10.049,multiplicationStroop,2021.2.3,Win32,29.96524032,,,,,left,1,0.6549,0,34,34,70,1,8,3,8 | 3,5,1.6933,1.6933,neutral,left,,,,,,stimulusFile/magnitude.xlsx,,,,,,,,,,,,,,,,,,,,,,,,,,,,,,,
,,,,,,,,,,,,,,,656,2022-06-20_10h09.10.049,multiplicationStroop,2021.2.3,Win32,29.96524032,,,,,right,1,0.6721,0,35,35,24,1,1,2,1 | 2,1,1.9756,1.4111,incongruent,right,,,,,,stimulusFile/magnitude.xlsx,,,,,,,,,,,,,,,,,,,,,,,,,,,,,,,
,,,,,,,,,,,,,,,656,2022-06-20_10h09.10.049,multiplicationStroop,2021.2.3,Win32,29.96524032,,,,,left,1,0.5329,0,36,36,7,1,9,8,9 | 8,1,1.9756,1.4111,congruent,left,,,,,,stimulusFile/magnitude.xlsx,,,,,,,,,,,,,,,,,,,,,,,,,,,,,,,
,,,,,,,,,,,,,,,656,2022-06-20_10h09.10.049,multiplicationStroop,2021.2.3,Win32,29.96524032,,,,,left,1,0.6732,0,37,37,12,1,3,1,3 | 1,2,1.9756,1.4111,congruent,left,,,,,,stimulusFile/magnitude.xlsx,,,,,,,,,,,,,,,,,,,,,,,,,,,,,,,
,,,,,,,,,,,,,,,656,2022-06-20_10h09.10.049,multiplicationStroop,2021.2.3,Win32,29.96524032,,,,,right,1,0.67,0,38,38,3,1,8,9,8 | 9,1,1.4111,1.9756,congruent,right,,,,,,stimulusFile/magnitude.xlsx,,,,,,,,,,,,,,,,,,,,,,,,,,,,,,,
,,,,,,,,,,,,,,,656,2022-06-20_10h09.10.049,multiplicationStroop,2021.2.3,Win32,29.96524032,,,,,right,1,0.9149,0,39,39,26,1,6,7,6 | 7,1,1.9756,1.4111,incongruent,right,,,,,,stimulusFile/magnitude.xlsx,,,,,,,,,,,,,,,,,,,,,,,,,,,,,,,
,,,,,,,,,,,,,,,656,2022-06-20_10h09.10.049,multiplicationStroop,2021.2.3,Win32,29.96524032,,,,,right,1,0.7069,0,40,40,40,1,1,6,1 | 6,5,1.9756,1.4111,incongruent,right,,,,,,stimulusFile/magnitude.xlsx,,,,,,,,,,,,,,,,,,,,,,,,,,,,,,,
,,,,,,,,,,,,,,,656,2022-06-20_10h09.10.049,multiplicationStroop,2021.2.3,Win32,29.96524032,,,,,right,1,0.6378,0,41,41,42,1,3,8,3 | 8,5,1.9756,1.4111,incongruent,right,,,,,,stimulusFile/magnitude.xlsx,,,,,,,,,,,,,,,,,,,,,,,,,,,,,,,
,,,,,,,,,,,,,,,656,2022-06-20_10h09.10.049,multiplicationStroop,2021.2.3,Win32,29.96524032,,,,,right,1,0.6146,0,42,42,34,1,6,8,6 | 8,2,1.9756,1.4111,incongruent,right,,,,,,stimulusFile/magnitude.xlsx,,,,,,,,,,,,,,,,,,,,,,,,,,,,,,,
,,,,,,,,,,,,,,,656,2022-06-20_10h09.10.049,multiplicationStroop,2021.2.3,Win32,29.96524032,,,,,right,1,0.627,0,43,43,67,1,4,9,4 | 9,5,1.6933,1.6933,neutral,right,,,,,,stimulusFile/magnitude.xlsx,,,,,,,,,,,,,,,,,,,,,,,,,,,,,,,
,,,,,,,,,,,,,,,656,2022-06-20_10h09.10.049,multiplicationStroop,2021.2.3,Win32,29.96524032,,,,,right,1,0.7035,0,44,44,49,1,3,4,3 | 4,1,1.6933,1.6933,neutral,right,,,,,,stimulusFile/magnitude.xlsx,,,,,,,,,,,,,,,,,,,,,,,,,,,,,,,
,,,,,,,,,,,,,,,656,2022-06-20_10h09.10.049,multiplicationStroop,2021.2.3,Win32,29.96524032,,,,,left,1,1.067,0,45,45,63,1,9,7,9 | 7,2,1.6933,1.6933,neutral,left,,,,,,stimulusFile/magnitude.xlsx,,,,,,,,,,,,,,,,,,,,,,,,,,,,,,,
,,,,,,,,,,,,,,,656,2022-06-20_10h09.10.049,multiplicationStroop,2021.2.3,Win32,29.96524032,,,,,right,1,0.7144,0,46,46,51,1,8,9,8 | 9,1,1.6933,1.6933,neutral,right,,,,,,stimulusFile/magnitude.xlsx,,,,,,,,,,,,,,,,,,,,,,,,,,,,,,,
,,,,,,,,,,,,,,,656,2022-06-20_10h09.10.049,multiplicationStroop,2021.2.3,Win32,29.96524032,,,,,left,1,1.0479,0,47,47,29,1,4,3,4 | 3,1,1.4111,1.9756,incongruent,left,,,,,,stimulusFile/magnitude.xlsx,,,,,,,,,,,,,,,,,,,,,,,,,,,,,,,
,,,,,,,,,,,,,,,656,2022-06-20_10h09.10.049,multiplicationStroop,2021.2.3,Win32,29.96524032,,,,,left,1,2.3545,0,48,48,38,1,8,6,8 | 6,2,1.4111,1.9756,incongruent,left,,,,,,stimulusFile/magnitude.xlsx,,,,,,,,,,,,,,,,,,,,,,,,,,,,,,,
,,,,,,,,,,,,,,,656,2022-06-20_10h09.10.049,multiplicationStroop,2021.2.3,Win32,29.96524032,,,,,right,1,1.2498,0,49,49,59,1,7,9,7 | 9,2,1.6933,1.6933,neutral,right,,,,,,stimulusFile/magnitude.xlsx,,,,,,,,,,,,,,,,,,,,,,,,,,,,,,,
,,,,,,,,,,,,,,,656,2022-06-20_10h09.10.049,multiplicationStroop,2021.2.3,Win32,29.96524032,,,,,right,1,0.8673,0,50,50,2,1,6,7,6 | 7,1,1.4111,1.9756,congruent,right,,,,,,stimulusFile/magnitude.xlsx,,,,,,,,,,,,,,,,,,,,,,,,,,,,,,,
,,,,,,,,,,,,,,,656,2022-06-20_10h09.10.049,multiplicationStroop,2021.2.3,Win32,29.96524032,,,,,left,1,0.9294,0,51,51,20,1,6,1,6 | 1,5,1.9756,1.4111,congruent,left,,,,,,stimulusFile/magnitude.xlsx,,,,,,,,,,,,,,,,,,,,,,,,,,,,,,,
,,,,,,,,,,,,,,,656,2022-06-20_10h09.10.049,multiplicationStroop,2021.2.3,Win32,29.96524032,,,,,left,1,0.9122,0,52,52,54,1,7,6,7 | 6,1,1.6933,1.6933,neutral,left,,,,,,stimulusFile/magnitude.xlsx,,,,,,,,,,,,,,,,,,,,,,,,,,,,,,,
,,,,,,,,,,,,,,,656,2022-06-20_10h09.10.049,multiplicationStroop,2021.2.3,Win32,29.96524032,,,,,right,1,0.6832,0,53,53,16,1,1,6,1 | 6,5,1.4111,1.9756,congruent,right,,,,,,stimulusFile/magnitude.xlsx,,,,,,,,,,,,,,,,,,,,,,,,,,,,,,,
,,,,,,,,,,,,,,,656,2022-06-20_10h09.10.049,multiplicationStroop,2021.2.3,Win32,29.96524032,,,,,left,1,0.6544,0,54,54,53,1,4,3,4 | 3,1,1.6933,1.6933,neutral,left,,,,,,stimulusFile/magnitude.xlsx,,,,,,,,,,,,,,,,,,,,,,,,,,,,,,,
,,,,,,,,,,,,,,,656,2022-06-20_10h09.10.049,multiplicationStroop,2021.2.3,Win32,29.96524032,,,,,right,1,0.5813,0,55,55,64,1,1,6,1 | 6,5,1.6933,1.6933,neutral,right,,,,,,stimulusFile/magnitude.xlsx,,,,,,,,,,,,,,,,,,,,,,,,,,,,,,,
,,,,,,,,,,,,,,,656,2022-06-20_10h09.10.049,multiplicationStroop,2021.2.3,Win32,29.96524032,,,,,right,1,0.6068,0,56,56,19,1,4,9,4 | 9,5,1.4111,1.9756,congruent,right,,,,,,stimulusFile/magnitude.xlsx,,,,,,,,,,,,,,,,,,,,,,,,,,,,,,,
,,,,,,,,,,,,,,,656,2022-06-20_10h09.10.049,multiplicationStroop,2021.2.3,Win32,29.96524032,,,,,right,1,0.8503,0,57,57,58,1,6,8,6 | 8,2,1.6933,1.6933,neutral,right,,,,,,stimulusFile/magnitude.xlsx,,,,,,,,,,,,,,,,,,,,,,,,,,,,,,,
,,,,,,,,,,,,,,,656,2022-06-20_10h09.10.049,multiplicationStroop,2021.2.3,Win32,29.96524032,,,,,left,1,0.6687,0,58,58,68,1,6,1,6 | 1,5,1.6933,1.6933,neutral,left,,,,,,stimulusFile/magnitude.xlsx,,,,,,,,,,,,,,,,,,,,,,,,,,,,,,,
,,,,,,,,,,,,,,,656,2022-06-20_10h09.10.049,multiplicationStroop,2021.2.3,Win32,29.96524032,,,,,right,1,0.7152,0,59,59,1,1,3,4,3 | 4,1,1.4111,1.9756,congruent,right,,,,,,stimulusFile/magnitude.xlsx,,,,,,,,,,,,,,,,,,,,,,,,,,,,,,,
,,,,,,,,,,,,,,,656,2022-06-20_10h09.10.049,multiplicationStroop,2021.2.3,Win32,29.96524032,,,,,left,1,0.902,0,60,60,31,1,9,8,9 | 8,1,1.4111,1.9756,incongruent,left,,,,,,stimulusFile/magnitude.xlsx,,,,,,,,,,,,,,,,,,,,,,,,,,,,,,,
,,,,,,,,,,,,,,,656,2022-06-20_10h09.10.049,multiplicationStroop,2021.2.3,Win32,29.96524032,,,,,right,1,0.8236,0,61,61,9,1,2,4,2 | 4,2,1.4111,1.9756,congruent,right,,,,,,stimulusFile/magnitude.xlsx,,,,,,,,,,,,,,,,,,,,,,,,,,,,,,,
,,,,,,,,,,,,,,,656,2022-06-20_10h09.10.049,multiplicationStroop,2021.2.3,Win32,29.96524032,,,,,right,1,0.6974,0,62,62,11,1,7,9,7 | 9,2,1.4111,1.9756,congruent,right,,,,,,stimulusFile/magnitude.xlsx,,,,,,,,,,,,,,,,,,,,,,,,,,,,,,,
,,,,,,,,,,,,,,,656,2022-06-20_10h09.10.049,multiplicationStroop,2021.2.3,Win32,29.96524032,,,,,right,1,1.041,0,63,63,56,1,1,3,1 | 3,2,1.6933,1.6933,neutral,right,,,,,,stimulusFile/magnitude.xlsx,,,,,,,,,,,,,,,,,,,,,,,,,,,,,,,
,,,,,,,,,,,,,,,656,2022-06-20_10h09.10.049,multiplicationStroop,2021.2.3,Win32,29.96524032,,,,,left,1,0.7041,0,64,64,69,1,7,2,7 | 2,5,1.6933,1.6933,neutral,left,,,,,,stimulusFile/magnitude.xlsx,,,,,,,,,,,,,,,,,,,,,,,,,,,,,,,
,,,,,,,,,,,,,,,656,2022-06-20_10h09.10.049,multiplicationStroop,2021.2.3,Win32,29.96524032,,,,,right,1,1.3205,0,65,65,57,1,2,4,2 | 4,2,1.6933,1.6933,neutral,right,,,,,,stimulusFile/magnitude.xlsx,,,,,,,,,,,,,,,,,,,,,,,,,,,,,,,
,,,,,,,,,,,,,,,656,2022-06-20_10h09.10.049,multiplicationStroop,2021.2.3,Win32,29.96524032,,,,,left,1,0.6202,0,66,66,15,1,9,7,9 | 7,2,1.9756,1.4111,congruent,left,,,,,,stimulusFile/magnitude.xlsx,,,,,,,,,,,,,,,,,,,,,,,,,,,,,,,
,,,,,,,,,,,,,,,656,2022-06-20_10h09.10.049,multiplicationStroop,2021.2.3,Win32,29.96524032,,,,,left,1,1.2817,0,67,67,28,1,2,1,2 | 1,1,1.4111,1.9756,incongruent,left,,,,,,stimulusFile/magnitude.xlsx,,,,,,,,,,,,,,,,,,,,,,,,,,,,,,,
,,,,,,,,,,,,,,,656,2022-06-20_10h09.10.049,multiplicationStroop,2021.2.3,Win32,29.96524032,,,,,left,1,0.7927,0,68,68,37,1,4,2,4 | 2,2,1.4111,1.9756,incongruent,left,,,,,,stimulusFile/magnitude.xlsx,,,,,,,,,,,,,,,,,,,,,,,,,,,,,,,
,,,,,,,,,,,,,,,656,2022-06-20_10h09.10.049,multiplicationStroop,2021.2.3,Win32,29.96524032,,,,,right,1,1.2335,0,69,69,25,1,3,4,3 | 4,1,1.9756,1.4111,incongruent,right,,,,,,stimulusFile/magnitude.xlsx,,,,,,,,,,,,,,,,,,,,,,,,,,,,,,,
,,,,,,,,,,,,,,,656,2022-06-20_10h09.10.049,multiplicationStroop,2021.2.3,Win32,29.96524032,,,,,left,1,1.1157,0,70,70,44,1,6,1,6 | 1,5,1.4111,1.9756,incongruent,left,,,,,,stimulusFile/magnitude.xlsx,,,,,,,,,,,,,,,,,,,,,,,,,,,,,,,
,,,,,,,,,,,,,,,656,2022-06-20_10h09.10.049,multiplicationStroop,2021.2.3,Win32,29.96524032,,,,,right,1,0.5816,0,71,71,0,1,1,2,1 | 2,1,1.4111,1.9756,congruent,right,,,,,,stimulusFile/magnitude.xlsx,,,,,,,,,,,,,,,,,,,,,,,,,,,,,,,
,,,,,,,,,,,,,,,656,2022-06-20_10h09.10.049,multiplicationStroop,2021.2.3,Win32,29.96524032,,,,,,,,,,,,,,,,,,,,,0,0,0,0,1,stimulusFile/magnitude.xlsx,NUMERICALLY larger (larger coefficient).,images/numericallyLarger.png,,,,,,,,,,,,,,,,,,,,,,,,,,,,,
,,,,,,,,,,,,,,,656,2022-06-20_10h09.10.049,multiplicationStroop,2021.2.3,Win32,29.96524032,space,41.7196,space,10.5414,right,1,0.9662,0,0,0,65,1,2,2,2 | 2,0,1.4111,1.9756,neutral,right,,,,,,stimulusFile/physical.xlsx,,,,,,,,,,,,,,,,,,,,,,,,,,,,,,,
,,,,,,,,,,,,,,,656,2022-06-20_10h09.10.049,multiplicationStroop,2021.2.3,Win32,29.96524032,,,,,right,1,0.675,0,1,1,60,1,3,3,3 | 3,0,1.4111,1.9756,neutral,right,,,,,,stimulusFile/physical.xlsx,,,,,,,,,,,,,,,,,,,,,,,,,,,,,,,
,,,,,,,,,,,,,,,656,2022-06-20_10h09.10.049,multiplicationStroop,2021.2.3,Win32,29.96524032,,,,,left,1,1.959,0,2,2,33,1,2,4,2 | 4,2,1.9756,1.4111,incongruent,left,,,,,,stimulusFile/physical.xlsx,,,,,,,,,,,,,,,,,,,,,,,,,,,,,,,
,,,,,,,,,,,,,,,656,2022-06-20_10h09.10.049,multiplicationStroop,2021.2.3,Win32,29.96524032,,,,,left,1,1.8891,0,3,3,43,1,4,9,4 | 9,5,1.9756,1.4111,incongruent,left,,,,,,stimulusFile/physical.xlsx,,,,,,,,,,,,,,,,,,,,,,,,,,,,,,,
,,,,,,,,,,,,,,,656,2022-06-20_10h09.10.049,multiplicationStroop,2021.2.3,Win32,29.96524032,,,,,left,1,0.6043,0,4,4,23,1,9,4,9 | 4,5,1.9756,1.4111,congruent,left,,,,,,stimulusFile/physical.xlsx,,,,,,,,,,,,,,,,,,,,,,,,,,,,,,,
,,,,,,,,,,,,,,,656,2022-06-20_10h09.10.049,multiplicationStroop,2021.2.3,Win32,29.96524032,,,,,right,1,0.8326,0,5,5,44,1,6,1,6 | 1,5,1.4111,1.9756,incongruent,right,,,,,,stimulusFile/physical.xlsx,,,,,,,,,,,,,,,,,,,,,,,,,,,,,,,
,,,,,,,,,,,,,,,656,2022-06-20_10h09.10.049,multiplicationStroop,2021.2.3,Win32,29.96524032,,,,,right,1,0.994,0,6,6,30,1,7,6,7 | 6,1,1.4111,1.9756,incongruent,right,,,,,,stimulusFile/physical.xlsx,,,,,,,,,,,,,,,,,,,,,,,,,,,,,,,
,,,,,,,,,,,,,,,656,2022-06-20_10h09.10.049,multiplicationStroop,2021.2.3,Win32,29.96524032,,,,,right,1,0.6979,0,7,7,61,1,4,4,4 | 4,0,1.4111,1.9756,neutral,right,,,,,,stimulusFile/physical.xlsx,,,,,,,,,,,,,,,,,,,,,,,,,,,,,,,
,,,,,,,,,,,,,,,656,2022-06-20_10h09.10.049,multiplicationStroop,2021.2.3,Win32,29.96524032,,,,,left,1,0.6984,0,8,8,55,1,9,9,9 | 9,0,1.9756,1.4111,neutral,left,,,,,,stimulusFile/physical.xlsx,,,,,,,,,,,,,,,,,,,,,,,,,,,,,,,
,,,,,,,,,,,,,,,656,2022-06-20_10h09.10.049,multiplicationStroop,2021.2.3,Win32,29.96524032,,,,,left,1,0.747,0,9,9,21,1,7,2,7 | 2,5,1.9756,1.4111,congruent,left,,,,,,stimulusFile/physical.xlsx,,,,,,,,,,,,,,,,,,,,,,,,,,,,,,,
,,,,,,,,,,,,,,,656,2022-06-20_10h09.10.049,multiplicationStroop,2021.2.3,Win32,29.96524032,,,,,right,1,0.5839,0,10,10,38,1,8,6,8 | 6,2,1.4111,1.9756,incongruent,right,,,,,,stimulusFile/physical.xlsx,,,,,,,,,,,,,,,,,,,,,,,,,,,,,,,
,,,,,,,,,,,,,,,656,2022-06-20_10h09.10.049,multiplicationStroop,2021.2.3,Win32,29.96524032,,,,,right,1,0.6742,0,11,11,36,1,3,1,3 | 1,2,1.4111,1.9756,incongruent,right,,,,,,stimulusFile/physical.xlsx,,,,,,,,,,,,,,,,,,,,,,,,,,,,,,,
,,,,,,,,,,,,,,,656,2022-06-20_10h09.10.049,multiplicationStroop,2021.2.3,Win32,29.96524032,,,,,left,1,0.498,0,12,12,32,1,1,3,1 | 3,2,1.9756,1.4111,incongruent,left,,,,,,stimulusFile/physical.xlsx,,,,,,,,,,,,,,,,,,,,,,,,,,,,,,,
,,,,,,,,,,,,,,,656,2022-06-20_10h09.10.049,multiplicationStroop,2021.2.3,Win32,29.96524032,,,,,right,1,0.5361,0,13,13,2,1,6,7,6 | 7,1,1.4111,1.9756,congruent,right,,,,,,stimulusFile/physical.xlsx,,,,,,,,,,,,,,,,,,,,,,,,,,,,,,,
,,,,,,,,,,,,,,,656,2022-06-20_10h09.10.049,multiplicationStroop,2021.2.3,Win32,29.96524032,,,,,left,1,0.5794,0,14,14,35,1,7,9,7 | 9,2,1.9756,1.4111,incongruent,left,,,,,,stimulusFile/physical.xlsx,,,,,,,,,,,,,,,,,,,,,,,,,,,,,,,
,,,,,,,,,,,,,,,656,2022-06-20_10h09.10.049,multiplicationStroop,2021.2.3,Win32,29.96524032,,,,,right,1,0.5818,0,15,15,45,1,7,2,7 | 2,5,1.4111,1.9756,incongruent,right,,,,,,stimulusFile/physical.xlsx,,,,,,,,,,,,,,,,,,,,,,,,,,,,,,,
,,,,,,,,,,,,,,,656,2022-06-20_10h09.10.049,multiplicationStroop,2021.2.3,Win32,29.96524032,,,,,left,1,0.5995,0,16,16,52,1,2,2,2 | 2,0,1.9756,1.4111,neutral,left,,,,,,stimulusFile/physical.xlsx,,,,,,,,,,,,,,,,,,,,,,,,,,,,,,,
,,,,,,,,,,,,,,,656,2022-06-20_10h09.10.049,multiplicationStroop,2021.2.3,Win32,29.96524032,,,,,left,1,0.564,0,17,17,50,1,6,6,6 | 6,0,1.9756,1.4111,neutral,left,,,,,,stimulusFile/physical.xlsx,,,,,,,,,,,,,,,,,,,,,,,,,,,,,,,
,,,,,,,,,,,,,,,656,2022-06-20_10h09.10.049,multiplicationStroop,2021.2.3,Win32,29.96524032,,,,,left,1,1.9452,0,18,18,40,1,1,6,1 | 6,5,1.9756,1.4111,incongruent,left,,,,,,stimulusFile/physical.xlsx,,,,,,,,,,,,,,,,,,,,,,,,,,,,,,,
,,,,,,,,,,,,,,,656,2022-06-20_10h09.10.049,multiplicationStroop,2021.2.3,Win32,29.96524032,,,,,right,1,0.7312,0,19,19,58,1,6,6,6 | 6,0,1.4111,1.9756,neutral,right,,,,,,stimulusFile/physical.xlsx,,,,,,,,,,,,,,,,,,,,,,,,,,,,,,,
,,,,,,,,,,,,,,,656,2022-06-20_10h09.10.049,multiplicationStroop,2021.2.3,Win32,29.96524032,,,,,right,1,0.6036,0,20,20,11,1,7,9,7 | 9,2,1.4111,1.9756,congruent,right,,,,,,stimulusFile/physical.xlsx,,,,,,,,,,,,,,,,,,,,,,,,,,,,,,,
,,,,,,,,,,,,,,,656,2022-06-20_10h09.10.049,multiplicationStroop,2021.2.3,Win32,29.96524032,,,,,right,1,0.8538,0,21,21,39,1,9,7,9 | 7,2,1.4111,1.9756,incongruent,right,,,,,,stimulusFile/physical.xlsx,,,,,,,,,,,,,,,,,,,,,,,,,,,,,,,
,,,,,,,,,,,,,,,656,2022-06-20_10h09.10.049,multiplicationStroop,2021.2.3,Win32,29.96524032,,,,,left,1,0.6046,0,22,22,13,1,4,2,4 | 2,2,1.9756,1.4111,congruent,left,,,,,,stimulusFile/physical.xlsx,,,,,,,,,,,,,,,,,,,,,,,,,,,,,,,
,,,,,,,,,,,,,,,656,2022-06-20_10h09.10.049,multiplicationStroop,2021.2.3,Win32,29.96524032,,,,,left,0,0.651,0,23,23,64,1,1,1,1 | 1,0,1.9756,1.4111,neutral,right,,,,,,stimulusFile/physical.xlsx,,,,,,,,,,,,,,,,,,,,,,,,,,,,,,,
,,,,,,,,,,,,,,,656,2022-06-20_10h09.10.049,multiplicationStroop,2021.2.3,Win32,29.96524032,,,,,left,1,0.6558,0,24,24,42,1,3,8,3 | 8,5,1.9756,1.4111,incongruent,left,,,,,,stimulusFile/physical.xlsx,,,,,,,,,,,,,,,,,,,,,,,,,,,,,,,
,,,,,,,,,,,,,,,656,2022-06-20_10h09.10.049,multiplicationStroop,2021.2.3,Win32,29.96524032,,,,,left,1,0.6457,0,25,25,12,1,3,1,3 | 1,2,1.9756,1.4111,congruent,left,,,,,,stimulusFile/physical.xlsx,,,,,,,,,,,,,,,,,,,,,,,,,,,,,,,
,,,,,,,,,,,,,,,656,2022-06-20_10h09.10.049,multiplicationStroop,2021.2.3,Win32,29.96524032,,,,,left,1,1.1458,0,26,26,41,1,2,7,2 | 7,5,1.9756,1.4111,incongruent,left,,,,,,stimulusFile/physical.xlsx,,,,,,,,,,,,,,,,,,,,,,,,,,,,,,,
,,,,,,,,,,,,,,,656,2022-06-20_10h09.10.049,multiplicationStroop,2021.2.3,Win32,29.96524032,,,,,right,1,0.6287,0,27,27,19,1,4,9,4 | 9,5,1.4111,1.9756,congruent,right,,,,,,stimulusFile/physical.xlsx,,,,,,,,,,,,,,,,,,,,,,,,,,,,,,,
,,,,,,,,,,,,,,,656,2022-06-20_10h09.10.049,multiplicationStroop,2021.2.3,Win32,29.96524032,,,,,left,1,0.6198,0,28,28,70,1,8,8,8 | 8,0,1.9756,1.4111,neutral,left,,,,,,stimulusFile/physical.xlsx,,,,,,,,,,,,,,,,,,,,,,,,,,,,,,,
,,,,,,,,,,,,,,,656,2022-06-20_10h09.10.049,multiplicationStroop,2021.2.3,Win32,29.96524032,,,,,left,1,0.6141,0,29,29,22,1,8,3,8 | 3,5,1.9756,1.4111,congruent,left,,,,,,stimulusFile/physical.xlsx,,,,,,,,,,,,,,,,,,,,,,,,,,,,,,,
,,,,,,,,,,,,,,,656,2022-06-20_10h09.10.049,multiplicationStroop,2021.2.3,Win32,29.96524032,,,,,right,1,0.7717,0,30,30,29,1,4,3,4 | 3,1,1.4111,1.9756,incongruent,right,,,,,,stimulusFile/physical.xlsx,,,,,,,,,,,,,,,,,,,,,,,,,,,,,,,
,,,,,,,,,,,,,,,656,2022-06-20_10h09.10.049,multiplicationStroop,2021.2.3,Win32,29.96524032,,,,,right,1,0.5972,0,31,31,17,1,2,7,2 | 7,5,1.4111,1.9756,congruent,right,,,,,,stimulusFile/physical.xlsx,,,,,,,,,,,,,,,,,,,,,,,,,,,,,,,
,,,,,,,,,,,,,,,656,2022-06-20_10h09.10.049,multiplicationStroop,2021.2.3,Win32,29.96524032,,,,,left,1,0.6461,0,32,32,14,1,8,6,8 | 6,2,1.9756,1.4111,congruent,left,,,,,,stimulusFile/physical.xlsx,,,,,,,,,,,,,,,,,,,,,,,,,,,,,,,
,,,,,,,,,,,,,,,656,2022-06-20_10h09.10.049,multiplicationStroop,2021.2.3,Win32,29.96524032,,,,,right,1,0.5737,0,33,33,0,1,1,2,1 | 2,1,1.4111,1.9756,congruent,right,,,,,,stimulusFile/physical.xlsx,,,,,,,,,,,,,,,,,,,,,,,,,,,,,,,
,,,,,,,,,,,,,,,656,2022-06-20_10h09.10.049,multiplicationStroop,2021.2.3,Win32,29.96524032,,,,,left,1,0.5744,0,34,34,51,1,8,8,8 | 8,0,1.9756,1.4111,neutral,left,,,,,,stimulusFile/physical.xlsx,,,,,,,,,,,,,,,,,,,,,,,,,,,,,,,
,,,,,,,,,,,,,,,656,2022-06-20_10h09.10.049,multiplicationStroop,2021.2.3,Win32,29.96524032,,,,,left,1,0.5166,0,35,35,34,1,6,8,6 | 8,2,1.9756,1.4111,incongruent,left,,,,,,stimulusFile/physical.xlsx,,,,,,,,,,,,,,,,,,,,,,,,,,,,,,,
,,,,,,,,,,,,,,,656,2022-06-20_10h09.10.049,multiplicationStroop,2021.2.3,Win32,29.96524032,,,,,left,1,1.3332,0,36,36,25,1,3,4,3 | 4,1,1.9756,1.4111,incongruent,left,,,,,,stimulusFile/physical.xlsx,,,,,,,,,,,,,,,,,,,,,,,,,,,,,,,
,,,,,,,,,,,,,,,656,2022-06-20_10h09.10.049,multiplicationStroop,2021.2.3,Win32,29.96524032,,,,,right,1,0.837,0,37,37,62,1,8,8,8 | 8,0,1.4111,1.9756,neutral,right,,,,,,stimulusFile/physical.xlsx,,,,,,,,,,,,,,,,,,,,,,,,,,,,,,,
,,,,,,,,,,,,,,,656,2022-06-20_10h09.10.049,multiplicationStroop,2021.2.3,Win32,29.96524032,,,,,left,1,0.6471,0,38,38,54,1,7,7,7 | 7,0,1.9756,1.4111,neutral,left,,,,,,stimulusFile/physical.xlsx,,,,,,,,,,,,,,,,,,,,,,,,,,,,,,,
,,,,,,,,,,,,,,,656,2022-06-20_10h09.10.049,multiplicationStroop,2021.2.3,Win32,29.96524032,,,,,right,1,0.6877,0,39,39,31,1,9,8,9 | 8,1,1.4111,1.9756,incongruent,right,,,,,,stimulusFile/physical.xlsx,,,,,,,,,,,,,,,,,,,,,,,,,,,,,,,
,,,,,,,,,,,,,,,656,2022-06-20_10h09.10.049,multiplicationStroop,2021.2.3,Win32,29.96524032,,,,,left,1,0.5985,0,40,40,53,1,4,4,4 | 4,0,1.9756,1.4111,neutral,left,,,,,,stimulusFile/physical.xlsx,,,,,,,,,,,,,,,,,,,,,,,,,,,,,,,
,,,,,,,,,,,,,,,656,2022-06-20_10h09.10.049,multiplicationStroop,2021.2.3,Win32,29.96524032,,,,,right,0,0.5677,0,41,41,71,1,9,9,9 | 9,0,1.4111,1.9756,neutral,left,,,,,,stimulusFile/physical.xlsx,,,,,,,,,,,,,,,,,,,,,,,,,,,,,,,
,,,,,,,,,,,,,,,656,2022-06-20_10h09.10.049,multiplicationStroop,2021.2.3,Win32,29.96524032,,,,,right,1,0.6061,0,42,42,9,1,2,4,2 | 4,2,1.4111,1.9756,congruent,right,,,,,,stimulusFile/physical.xlsx,,,,,,,,,,,,,,,,,,,,,,,,,,,,,,,
,,,,,,,,,,,,,,,656,2022-06-20_10h09.10.049,multiplicationStroop,2021.2.3,Win32,29.96524032,,,,,right,1,0.6068,0,43,43,56,1,1,1,1 | 1,0,1.4111,1.9756,neutral,right,,,,,,stimulusFile/physical.xlsx,,,,,,,,,,,,,,,,,,,,,,,,,,,,,,,
,,,,,,,,,,,,,,,656,2022-06-20_10h09.10.049,multiplicationStroop,2021.2.3,Win32,29.96524032,,,,,left,1,0.6828,0,44,44,24,1,1,2,1 | 2,1,1.9756,1.4111,incongruent,left,,,,,,stimulusFile/physical.xlsx,,,,,,,,,,,,,,,,,,,,,,,,,,,,,,,
,,,,,,,,,,,,,,,656,2022-06-20_10h09.10.049,multiplicationStroop,2021.2.3,Win32,29.96524032,,,,,left,1,0.6159,0,45,45,27,1,8,9,8 | 9,1,1.9756,1.4111,incongruent,left,,,,,,stimulusFile/physical.xlsx,,,,,,,,,,,,,,,,,,,,,,,,,,,,,,,
,,,,,,,,,,,,,,,656,2022-06-20_10h09.10.049,multiplicationStroop,2021.2.3,Win32,29.96524032,,,,,left,1,0.735,0,46,46,26,1,6,7,6 | 7,1,1.9756,1.4111,incongruent,left,,,,,,stimulusFile/physical.xlsx,,,,,,,,,,,,,,,,,,,,,,,,,,,,,,,
,,,,,,,,,,,,,,,656,2022-06-20_10h09.10.049,multiplicationStroop,2021.2.3,Win32,29.96524032,,,,,right,1,0.7529,0,47,47,47,1,9,4,9 | 4,5,1.4111,1.9756,incongruent,right,,,,,,stimulusFile/physical.xlsx,,,,,,,,,,,,,,,,,,,,,,,,,,,,,,,
,,,,,,,,,,,,,,,656,2022-06-20_10h09.10.049,multiplicationStroop,2021.2.3,Win32,29.96524032,,,,,right,1,0.6495,0,48,48,28,1,2,1,2 | 1,1,1.4111,1.9756,incongruent,right,,,,,,stimulusFile/physical.xlsx,,,,,,,,,,,,,,,,,,,,,,,,,,,,,,,
,,,,,,,,,,,,,,,656,2022-06-20_10h09.10.049,multiplicationStroop,2021.2.3,Win32,29.96524032,,,,,left,1,0.5373,0,49,49,5,1,4,3,4 | 3,1,1.9756,1.4111,congruent,left,,,,,,stimulusFile/physical.xlsx,,,,,,,,,,,,,,,,,,,,,,,,,,,,,,,
,,,,,,,,,,,,,,,656,2022-06-20_10h09.10.049,multiplicationStroop,2021.2.3,Win32,29.96524032,,,,,left,1,0.6392,0,50,50,49,1,3,3,3 | 3,0,1.9756,1.4111,neutral,left,,,,,,stimulusFile/physical.xlsx,,,,,,,,,,,,,,,,,,,,,,,,,,,,,,,
,,,,,,,,,,,,,,,656,2022-06-20_10h09.10.049,multiplicationStroop,2021.2.3,Win32,29.96524032,,,,,right,1,0.6162,0,51,51,1,1,3,4,3 | 4,1,1.4111,1.9756,congruent,right,,,,,,stimulusFile/physical.xlsx,,,,,,,,,,,,,,,,,,,,,,,,,,,,,,,
,,,,,,,,,,,,,,,656,2022-06-20_10h09.10.049,multiplicationStroop,2021.2.3,Win32,29.96524032,,,,,right,1,0.5894,0,52,52,63,1,9,9,9 | 9,0,1.4111,1.9756,neutral,right,,,,,,stimulusFile/physical.xlsx,,,,,,,,,,,,,,,,,,,,,,,,,,,,,,,
,,,,,,,,,,,,,,,656,2022-06-20_10h09.10.049,multiplicationStroop,2021.2.3,Win32,29.96524032,,,,,left,1,0.5732,0,53,53,6,1,7,6,7 | 6,1,1.9756,1.4111,congruent,left,,,,,,stimulusFile/physical.xlsx,,,,,,,,,,,,,,,,,,,,,,,,,,,,,,,
,,,,,,,,,,,,,,,656,2022-06-20_10h09.10.049,multiplicationStroop,2021.2.3,Win32,29.96524032,,,,,left,1,0.6533,0,54,54,4,1,2,1,2 | 1,1,1.9756,1.4111,congruent,left,,,,,,stimulusFile/physical.xlsx,,,,,,,,,,,,,,,,,,,,,,,,,,,,,,,
,,,,,,,,,,,,,,,656,2022-06-20_10h09.10.049,multiplicationStroop,2021.2.3,Win32,29.96524032,,,,,right,1,0.6803,0,55,55,46,1,8,3,8 | 3,5,1.4111,1.9756,incongruent,right,,,,,,stimulusFile/physical.xlsx,,,,,,,,,,,,,,,,,,,,,,,,,,,,,,,
,,,,,,,,,,,,,,,656,2022-06-20_10h09.10.049,multiplicationStroop,2021.2.3,Win32,29.96524032,,,,,right,1,0.621,0,56,56,59,1,7,7,7 | 7,0,1.4111,1.9756,neutral,right,,,,,,stimulusFile/physical.xlsx,,,,,,,,,,,,,,,,,,,,,,,,,,,,,,,
,,,,,,,,,,,,,,,656,2022-06-20_10h09.10.049,multiplicationStroop,2021.2.3,Win32,29.96524032,,,,,right,1,0.7034,0,57,57,57,1,2,2,2 | 2,0,1.4111,1.9756,neutral,right,,,,,,stimulusFile/physical.xlsx,,,,,,,,,,,,,,,,,,,,,,,,,,,,,,,
,,,,,,,,,,,,,,,656,2022-06-20_10h09.10.049,multiplicationStroop,2021.2.3,Win32,29.96524032,,,,,right,1,0.5649,0,58,58,67,1,4,4,4 | 4,0,1.4111,1.9756,neutral,right,,,,,,stimulusFile/physical.xlsx,,,,,,,,,,,,,,,,,,,,,,,,,,,,,,,
,,,,,,,,,,,,,,,656,2022-06-20_10h09.10.049,multiplicationStroop,2021.2.3,Win32,29.96524032,,,,,left,0,0.6513,0,59,59,66,1,3,3,3 | 3,0,1.9756,1.4111,neutral,right,,,,,,stimulusFile/physical.xlsx,,,,,,,,,,,,,,,,,,,,,,,,,,,,,,,
,,,,,,,,,,,,,,,656,2022-06-20_10h09.10.049,multiplicationStroop,2021.2.3,Win32,29.96524032,,,,,right,1,0.5228,0,60,60,8,1,1,3,1 | 3,2,1.4111,1.9756,congruent,right,,,,,,stimulusFile/physical.xlsx,,,,,,,,,,,,,,,,,,,,,,,,,,,,,,,
,,,,,,,,,,,,,,,656,2022-06-20_10h09.10.049,multiplicationStroop,2021.2.3,Win32,29.96524032,,,,,left,1,0.8139,0,61,61,48,1,1,1,1 | 1,0,1.9756,1.4111,neutral,left,,,,,,stimulusFile/physical.xlsx,,,,,,,,,,,,,,,,,,,,,,,,,,,,,,,
,,,,,,,,,,,,,,,656,2022-06-20_10h09.10.049,multiplicationStroop,2021.2.3,Win32,29.96524032,,,,,right,1,0.6152,0,62,62,37,1,4,2,4 | 2,2,1.4111,1.9756,incongruent,right,,,,,,stimulusFile/physical.xlsx,,,,,,,,,,,,,,,,,,,,,,,,,,,,,,,
,,,,,,,,,,,,,,,656,2022-06-20_10h09.10.049,multiplicationStroop,2021.2.3,Win32,29.96524032,,,,,right,1,1.7963,0,63,63,3,1,8,9,8 | 9,1,1.4111,1.9756,congruent,right,,,,,,stimulusFile/physical.xlsx,,,,,,,,,,,,,,,,,,,,,,,,,,,,,,,
,,,,,,,,,,,,,,,656,2022-06-20_10h09.10.049,multiplicationStroop,2021.2.3,Win32,29.96524032,,,,,left,1,0.5706,0,64,64,15,1,9,7,9 | 7,2,1.9756,1.4111,congruent,left,,,,,,stimulusFile/physical.xlsx,,,,,,,,,,,,,,,,,,,,,,,,,,,,,,,
,,,,,,,,,,,,,,,656,2022-06-20_10h09.10.049,multiplicationStroop,2021.2.3,Win32,29.96524032,,,,,right,1,0.5345,0,65,65,16,1,1,6,1 | 6,5,1.4111,1.9756,congruent,right,,,,,,stimulusFile/physical.xlsx,,,,,,,,,,,,,,,,,,,,,,,,,,,,,,,
,,,,,,,,,,,,,,,656,2022-06-20_10h09.10.049,multiplicationStroop,2021.2.3,Win32,29.96524032,,,,,left,1,0.5194,0,66,66,7,1,9,8,9 | 8,1,1.9756,1.4111,congruent,left,,,,,,stimulusFile/physical.xlsx,,,,,,,,,,,,,,,,,,,,,,,,,,,,,,,
,,,,,,,,,,,,,,,656,2022-06-20_10h09.10.049,multiplicationStroop,2021.2.3,Win32,29.96524032,,,,,left,1,0.5054,0,67,67,20,1,6,1,6 | 1,5,1.9756,1.4111,congruent,left,,,,,,stimulusFile/physical.xlsx,,,,,,,,,,,,,,,,,,,,,,,,,,,,,,,
,,,,,,,,,,,,,,,656,2022-06-20_10h09.10.049,multiplicationStroop,2021.2.3,Win32,29.96524032,,,,,right,0,0.5803,0,68,68,69,1,7,7,7 | 7,0,1.4111,1.9756,neutral,left,,,,,,stimulusFile/physical.xlsx,,,,,,,,,,,,,,,,,,,,,,,,,,,,,,,
,,,,,,,,,,,,,,,656,2022-06-20_10h09.10.049,multiplicationStroop,2021.2.3,Win32,29.96524032,,,,,right,1,0.6146,0,69,69,18,1,3,8,3 | 8,5,1.4111,1.9756,congruent,right,,,,,,stimulusFile/physical.xlsx,,,,,,,,,,,,,,,,,,,,,,,,,,,,,,,
,,,,,,,,,,,,,,,656,2022-06-20_10h09.10.049,multiplicationStroop,2021.2.3,Win32,29.96524032,,,,,left,1,0.5791,0,70,70,68,1,6,6,6 | 6,0,1.9756,1.4111,neutral,left,,,,,,stimulusFile/physical.xlsx,,,,,,,,,,,,,,,,,,,,,,,,,,,,,,,
,,,,,,,,,,,,,,,656,2022-06-20_10h09.10.049,multiplicationStroop,2021.2.3,Win32,29.96524032,,,,,right,1,0.545,0,71,71,10,1,6,8,6 | 8,2,1.4111,1.9756,congruent,right,,,,,,stimulusFile/physical.xlsx,,,,,,,,,,,,,,,,,,,,,,,,,,,,,,,
,,,,,,,,,,,,,,,656,2022-06-20_10h09.10.049,multiplicationStroop,2021.2.3,Win32,29.96524032,,,,,,,,,,,,,,,,,,,,,0,1,1,1,1,stimulusFile/physical.xlsx,PHYSICALLY larger (larger font size).,images/physicallyLarger.png,,,,,,,,,,,,,,,,,,,,,,,,,,,,,
,,,,,,,,,,,,,,,656,2022-06-20_10h09.10.049,multiplicationStroop,2021.2.3,Win32,29.96524032,,,,,,,,,,,,,,,,,,,,,,,,,,,,,space,18.9484,space,2.8002,16,10.6335,1,0,0,0,19,1,8,×,2,8 × 2,congruent,largerFirst,2,1,16,,,,,,,,
,,,,,,,,,,,,,,,656,2022-06-20_10h09.10.049,multiplicationStroop,2021.2.3,Win32,29.96524032,,,,,,,,,,,,,,,,,,,,,,,,,,,,,,,,,14,2.9812,1,0,1,1,0,1,2,×,7,2 × 7,congruent,smallerFirst,1,2,14,,,,,,,,
,,,,,,,,,,,,,,,656,2022-06-20_10h09.10.049,multiplicationStroop,2021.2.3,Win32,29.96524032,,,,,,,,,,,,,,,,,,,,,,,,,,,,,,,,,36,5.591,1,0,2,2,14,1,9,×,4,9 × 4,congruent,largerFirst,2,1,36,,,,,,,,
,,,,,,,,,,,,,,,656,2022-06-20_10h09.10.049,multiplicationStroop,2021.2.3,Win32,29.96524032,,,,,,,,,,,,,,,,,,,,,,,,,,,,,,,,,40,4.1554,1,0,3,3,20,1,8,×,5,8 × 5,congruent,largerFirst,2,1,40,,,,,,,,
,,,,,,,,,,,,,,,656,2022-06-20_10h09.10.049,multiplicationStroop,2021.2.3,Win32,29.96524032,,,,,,,,,,,,,,,,,,,,,,,,,,,,,,,,,18,3.1626,1,0,4,4,8,1,2,×,9,2 × 9,congruent,smallerFirst,1,2,18,,,,,,,,
,,,,,,,,,,,,,,,656,2022-06-20_10h09.10.049,multiplicationStroop,2021.2.3,Win32,29.96524032,,,,,,,,,,,,,,,,,,,,,,,,,,,,,,,,,81,2.7322,1,0,5,5,35,1,9,×,9,9 × 9,neutral,tie,1,2,81,,,,,,,,
,,,,,,,,,,,,,,,656,2022-06-20_10h09.10.049,multiplicationStroop,2021.2.3,Win32,29.96524032,,,,,,,,,,,,,,,,,,,,,,,,,,,,,,,,,15,2.4219,1,0,6,6,18,1,5,×,3,5 × 3,congruent,largerFirst,2,1,15,,,,,,,,
,,,,,,,,,,,,,,,656,2022-06-20_10h09.10.049,multiplicationStroop,2021.2.3,Win32,29.96524032,,,,,,,,,,,,,,,,,,,,,,,,,,,,,,,,,64,2.5697,1,0,7,7,34,1,8,×,8,8 × 8,neutral,tie,1,2,64,,,,,,,,
,,,,,,,,,,,,,,,656,2022-06-20_10h09.10.049,multiplicationStroop,2021.2.3,Win32,29.96524032,,,,,,,,,,,,,,,,,,,,,,,,,,,,,,,,,24,7.7891,1,0,8,8,11,1,4,×,6,4 × 6,congruent,smallerFirst,1,2,24,,,,,,,,
,,,,,,,,,,,,,,,656,2022-06-20_10h09.10.049,multiplicationStroop,2021.2.3,Win32,29.96524032,,,,,,,,,,,,,,,,,,,,,,,,,,,,,,,,,6,2.9029,1,0,9,9,27,1,3,×,2,3 × 2,congruent,largerFirst,2,1,6,,,,,,,,
,,,,,,,,,,,,,,,656,2022-06-20_10h09.10.049,multiplicationStroop,2021.2.3,Win32,29.96524032,,,,,,,,,,,,,,,,,,,,,,,,,,,,,,,,,18,3.6871,0,0,10,10,12,1,3,×,9,3 × 9,congruent,smallerFirst,1,2,27,,,,,,,,
,,,,,,,,,,,,,,,656,2022-06-20_10h09.10.049,multiplicationStroop,2021.2.3,Win32,29.96524032,,,,,,,,,,,,,,,,,,,,,,,,,,,,,,,,,36,5.2096,0,0,11,11,7,1,7,×,9,7 × 9,congruent,smallerFirst,1,2,63,,,,,,,,
,,,,,,,,,,,,,,,656,2022-06-20_10h09.10.049,multiplicationStroop,2021.2.3,Win32,29.96524032,,,,,,,,,,,,,,,,,,,,,,,,,,,,,,,,,24,2.6176,1,0,12,12,24,1,8,×,3,8 × 3,congruent,largerFirst,2,1,24,,,,,,,,
,,,,,,,,,,,,,,,656,2022-06-20_10h09.10.049,multiplicationStroop,2021.2.3,Win32,29.96524032,,,,,,,,,,,,,,,,,,,,,,,,,,,,,,,,,4,2.0238,1,0,13,13,28,1,2,×,2,2 × 2,neutral,tie,1,2,4,,,,,,,,
,,,,,,,,,,,,,,,656,2022-06-20_10h09.10.049,multiplicationStroop,2021.2.3,Win32,29.96524032,,,,,,,,,,,,,,,,,,,,,,,,,,,,,,,,,49,4.0345,1,0,14,14,33,1,7,×,7,7 × 7,neutral,tie,1,2,49,,,,,,,,
,,,,,,,,,,,,,,,656,2022-06-20_10h09.10.049,multiplicationStroop,2021.2.3,Win32,29.96524032,,,,,,,,,,,,,,,,,,,,,,,,,,,,,,,,,21,2.1126,1,0,15,15,2,1,3,×,7,3 × 7,congruent,smallerFirst,1,2,21,,,,,,,,
,,,,,,,,,,,,,,,656,2022-06-20_10h09.10.049,multiplicationStroop,2021.2.3,Win32,29.96524032,,,,,,,,,,,,,,,,,,,,,,,,,,,,,,,,,18,3.8651,1,0,16,16,25,1,6,×,3,6 × 3,congruent,largerFirst,2,1,18,,,,,,,,
,,,,,,,,,,,,,,,656,2022-06-20_10h09.10.049,multiplicationStroop,2021.2.3,Win32,29.96524032,,,,,,,,,,,,,,,,,,,,,,,,,,,,,,,,,48,7.7001,1,0,17,17,4,1,6,×,8,6 × 8,congruent,smallerFirst,1,2,48,,,,,,,,
,,,,,,,,,,,,,,,656,2022-06-20_10h09.10.049,multiplicationStroop,2021.2.3,Win32,29.96524032,,,,,,,,,,,,,,,,,,,,,,,,,,,,,,,,,25,2.2679,1,0,18,18,31,1,5,×,5,5 × 5,neutral,tie,1,2,25,,,,,,,,
,,,,,,,,,,,,,,,656,2022-06-20_10h09.10.049,multiplicationStroop,2021.2.3,Win32,29.96524032,,,,,,,,,,,,,,,,,,,,,,,,,,,,,,,,,16,3.4944,1,0,19,19,30,1,4,×,4,4 × 4,neutral,tie,1,2,16,,,,,,,,
,,,,,,,,,,,,,,,656,2022-06-20_10h09.10.049,multiplicationStroop,2021.2.3,Win32,29.96524032,,,,,,,,,,,,,,,,,,,,,,,,,,,,,,,,,28,7.2201,1,0,20,20,13,1,4,×,7,4 × 7,congruent,smallerFirst,1,2,28,,,,,,,,
,,,,,,,,,,,,,,,656,2022-06-20_10h09.10.049,multiplicationStroop,2021.2.3,Win32,29.96524032,,,,,,,,,,,,,,,,,,,,,,,,,,,,,,,,,35,2.4697,1,0,21,21,15,1,7,×,5,7 × 5,congruent,largerFirst,2,1,35,,,,,,,,
,,,,,,,,,,,,,,,656,2022-06-20_10h09.10.049,multiplicationStroop,2021.2.3,Win32,29.96524032,,,,,,,,,,,,,,,,,,,,,,,,,,,,,,,,,9,4.058,1,0,22,22,29,1,3,×,3,3 × 3,neutral,tie,1,2,9,,,,,,,,
,,,,,,,,,,,,,,,656,2022-06-20_10h09.10.049,multiplicationStroop,2021.2.3,Win32,29.96524032,,,,,,,,,,,,,,,,,,,,,,,,,,,,,,,,,12,2.2679,1,0,23,23,16,1,4,×,3,4 × 3,congruent,largerFirst,2,1,12,,,,,,,,
,,,,,,,,,,,,,,,656,2022-06-20_10h09.10.049,multiplicationStroop,2021.2.3,Win32,29.96524032,,,,,,,,,,,,,,,,,,,,,,,,,,,,,,,,,36,2.5414,1,0,24,24,32,1,6,×,6,6 × 6,neutral,tie,1,2,36,,,,,,,,
,,,,,,,,,,,,,,,656,2022-06-20_10h09.10.049,multiplicationStroop,2021.2.3,Win32,29.96524032,,,,,,,,,,,,,,,,,,,,,,,,,,,,,,,,,42,4.9721,1,0,25,25,17,1,7,×,6,7 × 6,congruent,largerFirst,2,1,42,,,,,,,,
,,,,,,,,,,,,,,,656,2022-06-20_10h09.10.049,multiplicationStroop,2021.2.3,Win32,29.96524032,,,,,,,,,,,,,,,,,,,,,,,,,,,,,,,,,12,8.3754,1,0,26,26,5,1,2,×,6,2 × 6,congruent,smallerFirst,1,2,12,,,,,,,,
,,,,,,,,,,,,,,,656,2022-06-20_10h09.10.049,multiplicationStroop,2021.2.3,Win32,29.96524032,,,,,,,,,,,,,,,,,,,,,,,,,,,,,,,,,72,4.9852,1,0,27,27,3,1,8,×,9,8 × 9,congruent,smallerFirst,1,2,72,,,,,,,,
,,,,,,,,,,,,,,,656,2022-06-20_10h09.10.049,multiplicationStroop,2021.2.3,Win32,29.96524032,,,,,,,,,,,,,,,,,,,,,,,,,,,,,,,,,20,2.9359,1,0,28,28,21,1,5,×,4,5 × 4,congruent,largerFirst,2,1,20,,,,,,,,
,,,,,,,,,,,,,,,656,2022-06-20_10h09.10.049,multiplicationStroop,2021.2.3,Win32,29.96524032,,,,,,,,,,,,,,,,,,,,,,,,,,,,,,,,,56,6.3741,1,0,29,29,22,1,8,×,7,8 × 7,congruent,largerFirst,2,1,56,,,,,,,,
,,,,,,,,,,,,,,,656,2022-06-20_10h09.10.049,multiplicationStroop,2021.2.3,Win32,29.96524032,,,,,,,,,,,,,,,,,,,,,,,,,,,,,,,,,54,5.0597,1,0,30,30,26,1,9,×,6,9 × 6,congruent,largerFirst,2,1,54,,,,,,,,
,,,,,,,,,,,,,,,656,2022-06-20_10h09.10.049,multiplicationStroop,2021.2.3,Win32,29.96524032,,,,,,,,,,,,,,,,,,,,,,,,,,,,,,,,,8,2.8759,1,0,31,31,23,1,4,×,2,4 × 2,congruent,largerFirst,2,1,8,,,,,,,,
,,,,,,,,,,,,,,,656,2022-06-20_10h09.10.049,multiplicationStroop,2021.2.3,Win32,29.96524032,,,,,,,,,,,,,,,,,,,,,,,,,,,,,,,,,10,2.4588,1,0,32,32,10,1,2,×,5,2 × 5,congruent,smallerFirst,1,2,10,,,,,,,,
,,,,,,,,,,,,,,,656,2022-06-20_10h09.10.049,multiplicationStroop,2021.2.3,Win32,29.96524032,,,,,,,,,,,,,,,,,,,,,,,,,,,,,,,,,45,3.3001,1,0,33,33,9,1,5,×,9,5 × 9,congruent,smallerFirst,1,2,45,,,,,,,,
,,,,,,,,,,,,,,,656,2022-06-20_10h09.10.049,multiplicationStroop,2021.2.3,Win32,29.96524032,,,,,,,,,,,,,,,,,,,,,,,,,,,,,,,,,48,4.0572,0,0,34,34,6,1,4,×,8,4 × 8,congruent,smallerFirst,1,2,32,,,,,,,,
,,,,,,,,,,,,,,,656,2022-06-20_10h09.10.049,multiplicationStroop,2021.2.3,Win32,29.96524032,,,,,,,,,,,,,,,,,,,,,,,,,,,,,,,,,30,2.6207,1,0,35,35,1,1,5,×,6,5 × 6,congruent,smallerFirst,1,2,30,,,,,,,,
,,,,,,,,,,,,,,,656,2022-06-20_10h09.10.049,multiplicationStroop,2021.2.3,Win32,29.96524032,,,,,,,,,,,,,,,,,,,,,,,,,,,,,,,,,,,,,,,,,,,,,,,,,,0,0,0,3,1,stimulusFile/mult_blk4_congruent.xlsx,,
,,,,,,,,,,,,,,,656,2022-06-20_10h09.10.049,multiplicationStroop,2021.2.3,Win32,29.96524032,,,,,,,,,,,,,,,,,,,,,,,,,,,,,,,space,7.8741,48,8.6403,1,0,0,0,15,1,8,×,6,8 × 6,incongruent,largerFirst,1,2,48,,,,,,,,
,,,,,,,,,,,,,,,656,2022-06-20_10h09.10.049,multiplicationStroop,2021.2.3,Win32,29.96524032,,,,,,,,,,,,,,,,,,,,,,,,,,,,,,,,,72,3.9072,1,0,1,1,14,1,9,×,8,9 × 8,incongruent,largerFirst,1,2,72,,,,,,,,
,,,,,,,,,,,,,,,656,2022-06-20_10h09.10.049,multiplicationStroop,2021.2.3,Win32,29.96524032,,,,,,,,,,,,,,,,,,,,,,,,,,,,,,,,,35,7.9335,1,0,2,2,26,1,7,×,5,7 × 5,incongruent,largerFirst,1,2,35,,,,,,,,
,,,,,,,,,,,,,,,656,2022-06-20_10h09.10.049,multiplicationStroop,2021.2.3,Win32,29.96524032,,,,,,,,,,,,,,,,,,,,,,,,,,,,,,,,,54,3.6708,1,0,3,3,20,1,9,×,6,9 × 6,incongruent,largerFirst,1,2,54,,,,,,,,
,,,,,,,,,,,,,,,656,2022-06-20_10h09.10.049,multiplicationStroop,2021.2.3,Win32,29.96524032,,,,,,,,,,,,,,,,,,,,,,,,,,,,,,,,,30,2.7394,1,0,4,4,11,1,5,×,6,5 × 6,incongruent,smallerFirst,2,1,30,,,,,,,,
,,,,,,,,,,,,,,,656,2022-06-20_10h09.10.049,multiplicationStroop,2021.2.3,Win32,29.96524032,,,,,,,,,,,,,,,,,,,,,,,,,,,,,,,,,81,3.2541,1,0,5,5,35,1,9,×,9,9 × 9,neutral,tie,2,1,81,,,,,,,,
,,,,,,,,,,,,,,,656,2022-06-20_10h09.10.049,multiplicationStroop,2021.2.3,Win32,29.96524032,,,,,,,,,,,,,,,,,,,,,,,,,,,,,,,,,12,4.7145,1,0,6,6,5,1,2,×,6,2 × 6,incongruent,smallerFirst,2,1,12,,,,,,,,
,,,,,,,,,,,,,,,656,2022-06-20_10h09.10.049,multiplicationStroop,2021.2.3,Win32,29.96524032,,,,,,,,,,,,,,,,,,,,,,,,,,,,,,,,,36,2.4139,1,0,7,7,32,1,6,×,6,6 × 6,neutral,tie,2,1,36,,,,,,,,
,,,,,,,,,,,,,,,656,2022-06-20_10h09.10.049,multiplicationStroop,2021.2.3,Win32,29.96524032,,,,,,,,,,,,,,,,,,,,,,,,,,,,,,,,,56,6.0886,1,0,8,8,0,1,7,×,8,7 × 8,incongruent,smallerFirst,2,1,56,,,,,,,,
,,,,,,,,,,,,,,,656,2022-06-20_10h09.10.049,multiplicationStroop,2021.2.3,Win32,29.96524032,,,,,,,,,,,,,,,,,,,,,,,,,,,,,,,,,24,2.7494,1,0,9,9,6,1,4,×,6,4 × 6,incongruent,smallerFirst,2,1,24,,,,,,,,
,,,,,,,,,,,,,,,656,2022-06-20_10h09.10.049,multiplicationStroop,2021.2.3,Win32,29.96524032,,,,,,,,,,,,,,,,,,,,,,,,,,,,,,,,,63,9.1201,1,0,10,10,17,1,9,×,7,9 × 7,incongruent,largerFirst,1,2,63,,,,,,,,
,,,,,,,,,,,,,,,656,2022-06-20_10h09.10.049,multiplicationStroop,2021.2.3,Win32,29.96524032,,,,,,,,,,,,,,,,,,,,,,,,,,,,,,,,,25,2.8079,1,0,11,11,31,1,5,×,5,5 × 5,neutral,tie,2,1,25,,,,,,,,
,,,,,,,,,,,,,,,656,2022-06-20_10h09.10.049,multiplicationStroop,2021.2.3,Win32,29.96524032,,,,,,,,,,,,,,,,,,,,,,,,,,,,,,,,,49,3.8736,1,0,12,12,33,1,7,×,7,7 × 7,neutral,tie,2,1,49,,,,,,,,
,,,,,,,,,,,,,,,656,2022-06-20_10h09.10.049,multiplicationStroop,2021.2.3,Win32,29.96524032,,,,,,,,,,,,,,,,,,,,,,,,,,,,,,,,,21,2.4025,1,0,13,13,12,1,3,×,7,3 × 7,incongruent,smallerFirst,2,1,21,,,,,,,,
,,,,,,,,,,,,,,,656,2022-06-20_10h09.10.049,multiplicationStroop,2021.2.3,Win32,29.96524032,,,,,,,,,,,,,,,,,,,,,,,,,,,,,,,,,8,2.782,1,0,14,14,10,1,2,×,4,2 × 4,incongruent,smallerFirst,2,1,8,,,,,,,,
,,,,,,,,,,,,,,,656,2022-06-20_10h09.10.049,multiplicationStroop,2021.2.3,Win32,29.96524032,,,,,,,,,,,,,,,,,,,,,,,,,,,,,,,,,27,6.2672,1,0,15,15,4,1,3,×,9,3 × 9,incongruent,smallerFirst,2,1,27,,,,,,,,
,,,,,,,,,,,,,,,656,2022-06-20_10h09.10.049,multiplicationStroop,2021.2.3,Win32,29.96524032,,,,,,,,,,,,,,,,,,,,,,,,,,,,,,,,,12,2.3765,1,0,16,16,19,1,4,×,3,4 × 3,incongruent,largerFirst,1,2,12,,,,,,,,
,,,,,,,,,,,,,,,656,2022-06-20_10h09.10.049,multiplicationStroop,2021.2.3,Win32,29.96524032,,,,,,,,,,,,,,,,,,,,,,,,,,,,,,,,,20,2.6898,1,0,17,17,13,1,4,×,5,4 × 5,incongruent,smallerFirst,2,1,20,,,,,,,,
,,,,,,,,,,,,,,,656,2022-06-20_10h09.10.049,multiplicationStroop,2021.2.3,Win32,29.96524032,,,,,,,,,,,,,,,,,,,,,,,,,,,,,,,,,42,6.713,1,0,18,18,3,1,6,×,7,6 × 7,incongruent,smallerFirst,2,1,42,,,,,,,,
,,,,,,,,,,,,,,,656,2022-06-20_10h09.10.049,multiplicationStroop,2021.2.3,Win32,29.96524032,,,,,,,,,,,,,,,,,,,,,,,,,,,,,,,,,10,3.0571,1,0,19,19,7,1,2,×,5,2 × 5,incongruent,smallerFirst,2,1,10,,,,,,,,
,,,,,,,,,,,,,,,656,2022-06-20_10h09.10.049,multiplicationStroop,2021.2.3,Win32,29.96524032,,,,,,,,,,,,,,,,,,,,,,,,,,,,,,,,,15,4.1614,1,0,20,20,24,1,5,×,3,5 × 3,incongruent,largerFirst,1,2,15,,,,,,,,
,,,,,,,,,,,,,,,656,2022-06-20_10h09.10.049,multiplicationStroop,2021.2.3,Win32,29.96524032,,,,,,,,,,,,,,,,,,,,,,,,,,,,,,,,,18,2.6937,1,0,21,21,22,1,6,×,3,6 × 3,incongruent,largerFirst,1,2,18,,,,,,,,
,,,,,,,,,,,,,,,656,2022-06-20_10h09.10.049,multiplicationStroop,2021.2.3,Win32,29.96524032,,,,,,,,,,,,,,,,,,,,,,,,,,,,,,,,,28,6.2338,1,0,22,22,2,1,4,×,7,4 × 7,incongruent,smallerFirst,2,1,28,,,,,,,,
,,,,,,,,,,,,,,,656,2022-06-20_10h09.10.049,multiplicationStroop,2021.2.3,Win32,29.96524032,,,,,,,,,,,,,,,,,,,,,,,,,,,,,,,,,40,3.24,1,0,23,23,27,1,8,×,5,8 × 5,incongruent,largerFirst,1,2,40,,,,,,,,
,,,,,,,,,,,,,,,656,2022-06-20_10h09.10.049,multiplicationStroop,2021.2.3,Win32,29.96524032,,,,,,,,,,,,,,,,,,,,,,,,,,,,,,,,,14,2.2374,1,0,24,24,18,1,7,×,2,7 × 2,incongruent,largerFirst,1,2,14,,,,,,,,
,,,,,,,,,,,,,,,656,2022-06-20_10h09.10.049,multiplicationStroop,2021.2.3,Win32,29.96524032,,,,,,,,,,,,,,,,,,,,,,,,,,,,,,,,,32,6.3963,1,0,25,25,21,1,8,×,4,8 × 4,incongruent,largerFirst,1,2,32,,,,,,,,
,,,,,,,,,,,,,,,656,2022-06-20_10h09.10.049,multiplicationStroop,2021.2.3,Win32,29.96524032,,,,,,,,,,,,,,,,,,,,,,,,,,,,,,,,,45,3.641,1,0,26,26,8,1,5,×,9,5 × 9,incongruent,smallerFirst,2,1,45,,,,,,,,
,,,,,,,,,,,,,,,656,2022-06-20_10h09.10.049,multiplicationStroop,2021.2.3,Win32,29.96524032,,,,,,,,,,,,,,,,,,,,,,,,,,,,,,,,,4,2.0306,1,0,27,27,28,1,2,×,2,2 × 2,neutral,tie,2,1,4,,,,,,,,
,,,,,,,,,,,,,,,656,2022-06-20_10h09.10.049,multiplicationStroop,2021.2.3,Win32,29.96524032,,,,,,,,,,,,,,,,,,,,,,,,,,,,,,,,,18,2.6599,1,0,28,28,16,1,9,×,2,9 × 2,incongruent,largerFirst,1,2,18,,,,,,,,
,,,,,,,,,,,,,,,656,2022-06-20_10h09.10.049,multiplicationStroop,2021.2.3,Win32,29.96524032,,,,,,,,,,,,,,,,,,,,,,,,,,,,,,,,,9,3.3377,1,0,29,29,29,1,3,×,3,3 × 3,neutral,tie,2,1,9,,,,,,,,
,,,,,,,,,,,,,,,656,2022-06-20_10h09.10.049,multiplicationStroop,2021.2.3,Win32,29.96524032,,,,,,,,,,,,,,,,,,,,,,,,,,,,,,,,,36,3.226,1,0,30,30,1,1,4,×,9,4 × 9,incongruent,smallerFirst,2,1,36,,,,,,,,
,,,,,,,,,,,,,,,656,2022-06-20_10h09.10.049,multiplicationStroop,2021.2.3,Win32,29.96524032,,,,,,,,,,,,,,,,,,,,,,,,,,,,,,,,,16,2.6898,1,0,31,31,30,1,4,×,4,4 × 4,neutral,tie,2,1,16,,,,,,,,
,,,,,,,,,,,,,,,656,2022-06-20_10h09.10.049,multiplicationStroop,2021.2.3,Win32,29.96524032,,,,,,,,,,,,,,,,,,,,,,,,,,,,,,,,,6,2.2915,1,0,32,32,25,1,3,×,2,3 × 2,incongruent,largerFirst,1,2,6,,,,,,,,
,,,,,,,,,,,,,,,656,2022-06-20_10h09.10.049,multiplicationStroop,2021.2.3,Win32,29.96524032,,,,,,,,,,,,,,,,,,,,,,,,,,,,,,,,,64,3.4487,1,0,33,33,34,1,8,×,8,8 × 8,neutral,tie,2,1,64,,,,,,,,
,,,,,,,,,,,,,,,656,2022-06-20_10h09.10.049,multiplicationStroop,2021.2.3,Win32,29.96524032,,,,,,,,,,,,,,,,,,,,,,,,,,,,,,,,,16,7.5014,1,0,34,34,9,1,2,×,8,2 × 8,incongruent,smallerFirst,2,1,16,,,,,,,,
,,,,,,,,,,,,,,,656,2022-06-20_10h09.10.049,multiplicationStroop,2021.2.3,Win32,29.96524032,,,,,,,,,,,,,,,,,,,,,,,,,,,,,,,,,24,5.5785,1,0,35,35,23,1,8,×,3,8 × 3,incongruent,largerFirst,1,2,24,,,,,,,,
,,,,,,,,,,,,,,,656,2022-06-20_10h09.10.049,multiplicationStroop,2021.2.3,Win32,29.96524032,,,,,,,,,,,,,,,,,,,,,,,,,,,,,,,,,,,,,,,,,,,,,,,,,,0,1,1,4,1,stimulusFile/mult_blk5_INcongruent.xlsx,,
,,,,,,,,,,,,,,,656,2022-06-20_10h09.10.049,multiplicationStroop,2021.2.3,Win32,29.96524032,,,,,,,,,,,,,,,,,,,,,,,,,,,,,,,space,1.6899,14,3.6671,1,0,0,0,4,1,2,×,7,2 × 7,incongruent,smallerFirst,2,1,14,,,,,,,,
,,,,,,,,,,,,,,,656,2022-06-20_10h09.10.049,multiplicationStroop,2021.2.3,Win32,29.96524032,,,,,,,,,,,,,,,,,,,,,,,,,,,,,,,,,28,6.5291,1,0,1,1,16,1,7,×,4,7 × 4,incongruent,largerFirst,1,2,28,,,,,,,,
,,,,,,,,,,,,,,,656,2022-06-20_10h09.10.049,multiplicationStroop,2021.2.3,Win32,29.96524032,,,,,,,,,,,,,,,,,,,,,,,,,,,,,,,,,30,2.2919,1,0,2,2,25,1,6,×,5,6 × 5,incongruent,largerFirst,1,2,30,,,,,,,,
,,,,,,,,,,,,,,,656,2022-06-20_10h09.10.049,multiplicationStroop,2021.2.3,Win32,29.96524032,,,,,,,,,,,,,,,,,,,,,,,,,,,,,,,,,21,1.9411,1,0,3,3,26,1,7,×,3,7 × 3,incongruent,largerFirst,1,2,21,,,,,,,,
,,,,,,,,,,,,,,,656,2022-06-20_10h09.10.049,multiplicationStroop,2021.2.3,Win32,29.96524032,,,,,,,,,,,,,,,,,,,,,,,,,,,,,,,,,63,5.0553,1,0,4,4,3,1,7,×,9,7 × 9,incongruent,smallerFirst,2,1,63,,,,,,,,
,,,,,,,,,,,,,,,656,2022-06-20_10h09.10.049,multiplicationStroop,2021.2.3,Win32,29.96524032,,,,,,,,,,,,,,,,,,,,,,,,,,,,,,,,,72,4.5433,1,0,5,5,0,1,8,×,9,8 × 9,incongruent,smallerFirst,2,1,72,,,,,,,,
,,,,,,,,,,,,,,,656,2022-06-20_10h09.10.049,multiplicationStroop,2021.2.3,Win32,29.96524032,,,,,,,,,,,,,,,,,,,,,,,,,,,,,,,,,35,3.0121,1,0,6,6,12,1,5,×,7,5 × 7,incongruent,smallerFirst,2,1,35,,,,,,,,
,,,,,,,,,,,,,,,656,2022-06-20_10h09.10.049,multiplicationStroop,2021.2.3,Win32,29.96524032,,,,,,,,,,,,,,,,,,,,,,,,,,,,,,,,,24,2.4716,1,0,7,7,9,1,3,×,8,3 × 8,incongruent,smallerFirst,2,1,24,,,,,,,,
,,,,,,,,,,,,,,,656,2022-06-20_10h09.10.049,multiplicationStroop,2021.2.3,Win32,29.96524032,,,,,,,,,,,,,,,,,,,,,,,,,,,,,,,,,4,2.1184,1,0,8,8,28,1,2,×,2,2 × 2,incongruent,tie,1,2,4,,,,,,,,
,,,,,,,,,,,,,,,656,2022-06-20_10h09.10.049,multiplicationStroop,2021.2.3,Win32,29.96524032,,,,,,,,,,,,,,,,,,,,,,,,,,,,,,,,,25,2.3493,1,0,9,9,31,1,5,×,5,5 × 5,incongruent,tie,1,2,25,,,,,,,,
,,,,,,,,,,,,,,,656,2022-06-20_10h09.10.049,multiplicationStroop,2021.2.3,Win32,29.96524032,,,,,,,,,,,,,,,,,,,,,,,,,,,,,,,,,18,3.2677,1,0,10,10,2,1,2,×,9,2 × 9,incongruent,smallerFirst,2,1,18,,,,,,,,
,,,,,,,,,,,,,,,656,2022-06-20_10h09.10.049,multiplicationStroop,2021.2.3,Win32,29.96524032,,,,,,,,,,,,,,,,,,,,,,,,,,,,,,,,,32,5.562,1,0,11,11,7,1,4,×,8,4 × 8,incongruent,smallerFirst,2,1,32,,,,,,,,
,,,,,,,,,,,,,,,656,2022-06-20_10h09.10.049,multiplicationStroop,2021.2.3,Win32,29.96524032,,,,,,,,,,,,,,,,,,,,,,,,,,,,,,,,,6,2.2187,1,0,12,12,11,1,2,×,3,2 × 3,incongruent,smallerFirst,2,1,6,,,,,,,,
,,,,,,,,,,,,,,,656,2022-06-20_10h09.10.049,multiplicationStroop,2021.2.3,Win32,29.96524032,,,,,,,,,,,,,,,,,,,,,,,,,,,,,,,,,12,2.239,1,0,13,13,5,1,3,×,4,3 × 4,incongruent,smallerFirst,2,1,12,,,,,,,,
,,,,,,,,,,,,,,,656,2022-06-20_10h09.10.049,multiplicationStroop,2021.2.3,Win32,29.96524032,,,,,,,,,,,,,,,,,,,,,,,,,,,,,,,,,10,2.5649,1,0,14,14,21,1,5,×,2,5 × 2,incongruent,largerFirst,1,2,10,,,,,,,,
,,,,,,,,,,,,,,,656,2022-06-20_10h09.10.049,multiplicationStroop,2021.2.3,Win32,29.96524032,,,,,,,,,,,,,,,,,,,,,,,,,,,,,,,,,20,2.5738,1,0,15,15,27,1,5,×,4,5 × 4,incongruent,largerFirst,1,2,20,,,,,,,,
,,,,,,,,,,,,,,,656,2022-06-20_10h09.10.049,multiplicationStroop,2021.2.3,Win32,29.96524032,,,,,,,,,,,,,,,,,,,,,,,,,,,,,,,,,56,6.9949,1,0,16,16,14,1,8,×,7,8 × 7,incongruent,largerFirst,1,2,56,,,,,,,,
,,,,,,,,,,,,,,,656,2022-06-20_10h09.10.049,multiplicationStroop,2021.2.3,Win32,29.96524032,,,,,,,,,,,,,,,,,,,,,,,,,,,,,,,,,8,3.2092,1,0,17,17,24,1,4,×,2,4 × 2,incongruent,largerFirst,1,2,8,,,,,,,,
,,,,,,,,,,,,,,,656,2022-06-20_10h09.10.049,multiplicationStroop,2021.2.3,Win32,29.96524032,,,,,,,,,,,,,,,,,,,,,,,,,,,,,,,,,16,2.4867,1,0,18,18,23,1,8,×,2,8 × 2,incongruent,largerFirst,1,2,16,,,,,,,,
,,,,,,,,,,,,,,,656,2022-06-20_10h09.10.049,multiplicationStroop,2021.2.3,Win32,29.96524032,,,,,,,,,,,,,,,,,,,,,,,,,,,,,,,,,45,3.1692,1,0,19,19,22,1,9,×,5,9 × 5,incongruent,largerFirst,1,2,45,,,,,,,,
,,,,,,,,,,,,,,,656,2022-06-20_10h09.10.049,multiplicationStroop,2021.2.3,Win32,29.96524032,,,,,,,,,,,,,,,,,,,,,,,,,,,,,,,,,40,3.1605,1,0,20,20,13,1,5,×,8,5 × 8,incongruent,smallerFirst,2,1,40,,,,,,,,
,,,,,,,,,,,,,,,656,2022-06-20_10h09.10.049,multiplicationStroop,2021.2.3,Win32,29.96524032,,,,,,,,,,,,,,,,,,,,,,,,,,,,,,,,,81,9.5764,1,0,21,21,35,1,9,×,9,9 × 9,incongruent,tie,1,2,81,,,,,,,,
,,,,,,,,,,,,,,,656,2022-06-20_10h09.10.049,multiplicationStroop,2021.2.3,Win32,29.96524032,,,,,,,,,,,,,,,,,,,,,,,,,,,,,,,,,12,2.3759,1,0,22,22,19,1,6,×,2,6 × 2,incongruent,largerFirst,1,2,12,,,,,,,,
,,,,,,,,,,,,,,,656,2022-06-20_10h09.10.049,multiplicationStroop,2021.2.3,Win32,29.96524032,,,,,,,,,,,,,,,,,,,,,,,,,,,,,,,,,64,2.8133,1,0,23,23,34,1,8,×,8,8 × 8,incongruent,tie,1,2,64,,,,,,,,
,,,,,,,,,,,,,,,656,2022-06-20_10h09.10.049,multiplicationStroop,2021.2.3,Win32,29.96524032,,,,,,,,,,,,,,,,,,,,,,,,,,,,,,,,,36,2.4177,1,0,24,24,32,1,6,×,6,6 × 6,incongruent,tie,1,2,36,,,,,,,,
,,,,,,,,,,,,,,,656,2022-06-20_10h09.10.049,multiplicationStroop,2021.2.3,Win32,29.96524032,,,,,,,,,,,,,,,,,,,,,,,,,,,,,,,,,49,3.2131,1,0,25,25,33,1,7,×,7,7 × 7,incongruent,tie,1,2,49,,,,,,,,
,,,,,,,,,,,,,,,656,2022-06-20_10h09.10.049,multiplicationStroop,2021.2.3,Win32,29.96524032,,,,,,,,,,,,,,,,,,,,,,,,,,,,,,,,,15,3.0243,1,0,26,26,10,1,3,×,5,3 × 5,incongruent,smallerFirst,2,1,15,,,,,,,,
,,,,,,,,,,,,,,,656,2022-06-20_10h09.10.049,multiplicationStroop,2021.2.3,Win32,29.96524032,,,,,,,,,,,,,,,,,,,,,,,,,,,,,,,,,27,3.7564,1,0,27,27,18,1,9,×,3,9 × 3,incongruent,largerFirst,1,2,27,,,,,,,,
,,,,,,,,,,,,,,,656,2022-06-20_10h09.10.049,multiplicationStroop,2021.2.3,Win32,29.96524032,,,,,,,,,,,,,,,,,,,,,,,,,,,,,,,,,18,2.6486,1,0,28,28,8,1,3,×,6,3 × 6,incongruent,smallerFirst,2,1,18,,,,,,,,
,,,,,,,,,,,,,,,656,2022-06-20_10h09.10.049,multiplicationStroop,2021.2.3,Win32,29.96524032,,,,,,,,,,,,,,,,,,,,,,,,,,,,,,,,,36,2.9479,1,0,29,29,15,1,9,×,4,9 × 4,incongruent,largerFirst,1,2,36,,,,,,,,
,,,,,,,,,,,,,,,656,2022-06-20_10h09.10.049,multiplicationStroop,2021.2.3,Win32,29.96524032,,,,,,,,,,,,,,,,,,,,,,,,,,,,,,,,,42,6.8426,1,0,30,30,17,1,7,×,6,7 × 6,incongruent,largerFirst,1,2,42,,,,,,,,
,,,,,,,,,,,,,,,656,2022-06-20_10h09.10.049,multiplicationStroop,2021.2.3,Win32,29.96524032,,,,,,,,,,,,,,,,,,,,,,,,,,,,,,,,,24,6.2669,1,0,31,31,20,1,6,×,4,6 × 4,incongruent,largerFirst,1,2,24,,,,,,,,
,,,,,,,,,,,,,,,656,2022-06-20_10h09.10.049,multiplicationStroop,2021.2.3,Win32,29.96524032,,,,,,,,,,,,,,,,,,,,,,,,,,,,,,,,,48,8.1249,1,0,32,32,1,1,6,×,8,6 × 8,incongruent,smallerFirst,2,1,48,,,,,,,,
,,,,,,,,,,,,,,,656,2022-06-20_10h09.10.049,multiplicationStroop,2021.2.3,Win32,29.96524032,,,,,,,,,,,,,,,,,,,,,,,,,,,,,,,,,54,3.9713,1,0,33,33,6,1,6,×,9,6 × 9,incongruent,smallerFirst,2,1,54,,,,,,,,
,,,,,,,,,,,,,,,656,2022-06-20_10h09.10.049,multiplicationStroop,2021.2.3,Win32,29.96524032,,,,,,,,,,,,,,,,,,,,,,,,,,,,,,,,,9,2.4999,1,0,34,34,29,1,3,×,3,3 × 3,incongruent,tie,1,2,9,,,,,,,,
,,,,,,,,,,,,,,,656,2022-06-20_10h09.10.049,multiplicationStroop,2021.2.3,Win32,29.96524032,,,,,,,,,,,,,,,,,,,,,,,,,,,,,,,,,16,2.585,1,0,35,35,30,1,4,×,4,4 × 4,incongruent,tie,1,2,16,,,,,,,,
,,,,,,,,,,,,,,,656,2022-06-20_10h09.10.049,multiplicationStroop,2021.2.3,Win32,29.96524032,,,,,,,,,,,,,,,,,,,,,,,,,,,,,,,,,,,,,,,,,,,,,,,,,,0,2,2,5,1,stimulusFile/mult_blk6_INcongruent.xlsx,,
,,,,,,,,,,,,,,,656,2022-06-20_10h09.10.049,multiplicationStroop,2021.2.3,Win32,29.96524032,,,,,,,,,,,,,,,,,,,,,,,,,,,,,,,space,1.2156,15,2.2184,1,0,0,0,19,1,5,×,3,5 × 3,neutral,largerFirst,1.5,1.5,15,,,,,,,,
,,,,,,,,,,,,,,,656,2022-06-20_10h09.10.049,multiplicationStroop,2021.2.3,Win32,29.96524032,,,,,,,,,,,,,,,,,,,,,,,,,,,,,,,,,42,5.7876,1,0,1,1,20,1,7,×,6,7 × 6,neutral,largerFirst,1.5,1.5,42,,,,,,,,
,,,,,,,,,,,,,,,656,2022-06-20_10h09.10.049,multiplicationStroop,2021.2.3,Win32,29.96524032,,,,,,,,,,,,,,,,,,,,,,,,,,,,,,,,,27,4.1575,1,0,2,2,0,1,3,×,9,3 × 9,neutral,smallerFirst,1.5,1.5,27,,,,,,,,
,,,,,,,,,,,,,,,656,2022-06-20_10h09.10.049,multiplicationStroop,2021.2.3,Win32,29.96524032,,,,,,,,,,,,,,,,,,,,,,,,,,,,,,,,,24,2.5959,1,0,3,3,8,1,3,×,8,3 × 8,neutral,smallerFirst,1.5,1.5,24,,,,,,,,
,,,,,,,,,,,,,,,656,2022-06-20_10h09.10.049,multiplicationStroop,2021.2.3,Win32,29.96524032,,,,,,,,,,,,,,,,,,,,,,,,,,,,,,,,,10,2.3633,1,0,4,4,18,1,5,×,2,5 × 2,neutral,largerFirst,1.5,1.5,10,,,,,,,,
,,,,,,,,,,,,,,,656,2022-06-20_10h09.10.049,multiplicationStroop,2021.2.3,Win32,29.96524032,,,,,,,,,,,,,,,,,,,,,,,,,,,,,,,,,16,2.6212,1,0,5,5,30,1,4,×,4,4 × 4,neutral,tie,1.5,1.5,16,,,,,,,,
,,,,,,,,,,,,,,,656,2022-06-20_10h09.10.049,multiplicationStroop,2021.2.3,Win32,29.96524032,,,,,,,,,,,,,,,,,,,,,,,,,,,,,,,,,4,2.0017,1,0,6,6,28,1,2,×,2,2 × 2,neutral,tie,1.5,1.5,4,,,,,,,,
,,,,,,,,,,,,,,,656,2022-06-20_10h09.10.049,multiplicationStroop,2021.2.3,Win32,29.96524032,,,,,,,,,,,,,,,,,,,,,,,,,,,,,,,,,72,4.8813,1,0,7,7,25,1,9,×,8,9 × 8,neutral,largerFirst,1.5,1.5,72,,,,,,,,
,,,,,,,,,,,,,,,656,2022-06-20_10h09.10.049,multiplicationStroop,2021.2.3,Win32,29.96524032,,,,,,,,,,,,,,,,,,,,,,,,,,,,,,,,,36,4.2062,1,0,8,8,13,1,4,×,9,4 × 9,neutral,smallerFirst,1.5,1.5,36,,,,,,,,
,,,,,,,,,,,,,,,656,2022-06-20_10h09.10.049,multiplicationStroop,2021.2.3,Win32,29.96524032,,,,,,,,,,,,,,,,,,,,,,,,,,,,,,,,,32,5.5486,1,0,9,9,9,1,4,×,8,4 × 8,neutral,smallerFirst,1.5,1.5,32,,,,,,,,
,,,,,,,,,,,,,,,656,2022-06-20_10h09.10.049,multiplicationStroop,2021.2.3,Win32,29.96524032,,,,,,,,,,,,,,,,,,,,,,,,,,,,,,,,,18,3.2439,1,0,10,10,14,1,6,×,3,6 × 3,neutral,largerFirst,1.5,1.5,18,,,,,,,,
,,,,,,,,,,,,,,,656,2022-06-20_10h09.10.049,multiplicationStroop,2021.2.3,Win32,29.96524032,,,,,,,,,,,,,,,,,,,,,,,,,,,,,,,,,12,2.7328,1,0,11,11,11,1,2,×,6,2 × 6,neutral,smallerFirst,1.5,1.5,12,,,,,,,,
,,,,,,,,,,,,,,,656,2022-06-20_10h09.10.049,multiplicationStroop,2021.2.3,Win32,29.96524032,,,,,,,,,,,,,,,,,,,,,,,,,,,,,,,,,56,10.5281,1,0,12,12,23,1,8,×,7,8 × 7,neutral,largerFirst,1.5,1.5,56,,,,,,,,
,,,,,,,,,,,,,,,656,2022-06-20_10h09.10.049,multiplicationStroop,2021.2.3,Win32,29.96524032,,,,,,,,,,,,,,,,,,,,,,,,,,,,,,,,,18,2.8208,1,0,13,13,4,1,2,×,9,2 × 9,neutral,smallerFirst,1.5,1.5,18,,,,,,,,
,,,,,,,,,,,,,,,656,2022-06-20_10h09.10.049,multiplicationStroop,2021.2.3,Win32,29.96524032,,,,,,,,,,,,,,,,,,,,,,,,,,,,,,,,,48,6.9546,1,0,14,14,1,1,6,×,8,6 × 8,neutral,smallerFirst,1.5,1.5,48,,,,,,,,
,,,,,,,,,,,,,,,656,2022-06-20_10h09.10.049,multiplicationStroop,2021.2.3,Win32,29.96524032,,,,,,,,,,,,,,,,,,,,,,,,,,,,,,,,,28,6.9194,1,0,15,15,3,1,4,×,7,4 × 7,neutral,smallerFirst,1.5,1.5,28,,,,,,,,
,,,,,,,,,,,,,,,656,2022-06-20_10h09.10.049,multiplicationStroop,2021.2.3,Win32,29.96524032,,,,,,,,,,,,,,,,,,,,,,,,,,,,,,,,,64,3.2867,1,0,16,16,34,1,8,×,8,8 × 8,neutral,tie,1.5,1.5,64,,,,,,,,
,,,,,,,,,,,,,,,656,2022-06-20_10h09.10.049,multiplicationStroop,2021.2.3,Win32,29.96524032,,,,,,,,,,,,,,,,,,,,,,,,,,,,,,,,,63,5.0493,1,0,17,17,26,1,9,×,7,9 × 7,neutral,largerFirst,1.5,1.5,63,,,,,,,,
,,,,,,,,,,,,,,,656,2022-06-20_10h09.10.049,multiplicationStroop,2021.2.3,Win32,29.96524032,,,,,,,,,,,,,,,,,,,,,,,,,,,,,,,,,24,2.3222,1,0,18,18,16,1,6,×,4,6 × 4,neutral,largerFirst,1.5,1.5,24,,,,,,,,
,,,,,,,,,,,,,,,656,2022-06-20_10h09.10.049,multiplicationStroop,2021.2.3,Win32,29.96524032,,,,,,,,,,,,,,,,,,,,,,,,,,,,,,,,,12,4.5406,1,0,19,19,7,1,3,×,4,3 × 4,neutral,smallerFirst,1.5,1.5,12,,,,,,,,
,,,,,,,,,,,,,,,656,2022-06-20_10h09.10.049,multiplicationStroop,2021.2.3,Win32,29.96524032,,,,,,,,,,,,,,,,,,,,,,,,,,,,,,,,,35,2.2072,1,0,20,20,15,1,7,×,5,7 × 5,neutral,largerFirst,1.5,1.5,35,,,,,,,,
,,,,,,,,,,,,,,,656,2022-06-20_10h09.10.049,multiplicationStroop,2021.2.3,Win32,29.96524032,,,,,,,,,,,,,,,,,,,,,,,,,,,,,,,,,54,8.5659,1,0,21,21,21,1,9,×,6,9 × 6,neutral,largerFirst,1.5,1.5,54,,,,,,,,
,,,,,,,,,,,,,,,656,2022-06-20_10h09.10.049,multiplicationStroop,2021.2.3,Win32,29.96524032,,,,,,,,,,,,,,,,,,,,,,,,,,,,,,,,,81,4.0037,1,0,22,22,35,1,9,×,9,9 × 9,neutral,tie,1.5,1.5,81,,,,,,,,
,,,,,,,,,,,,,,,656,2022-06-20_10h09.10.049,multiplicationStroop,2021.2.3,Win32,29.96524032,,,,,,,,,,,,,,,,,,,,,,,,,,,,,,,,,40,3.4147,1,0,23,23,10,1,5,×,8,5 × 8,neutral,smallerFirst,1.5,1.5,40,,,,,,,,
,,,,,,,,,,,,,,,656,2022-06-20_10h09.10.049,multiplicationStroop,2021.2.3,Win32,29.96524032,,,,,,,,,,,,,,,,,,,,,,,,,,,,,,,,,9,2.4991,1,0,24,24,29,1,3,×,3,3 × 3,neutral,tie,1.5,1.5,9,,,,,,,,
,,,,,,,,,,,,,,,656,2022-06-20_10h09.10.049,multiplicationStroop,2021.2.3,Win32,29.96524032,,,,,,,,,,,,,,,,,,,,,,,,,,,,,,,,,21,2.8063,1,0,25,25,22,1,7,×,3,7 × 3,neutral,largerFirst,1.5,1.5,21,,,,,,,,
,,,,,,,,,,,,,,,656,2022-06-20_10h09.10.049,multiplicationStroop,2021.2.3,Win32,29.96524032,,,,,,,,,,,,,,,,,,,,,,,,,,,,,,,,,25,2.7928,1,0,26,26,31,1,5,×,5,5 × 5,neutral,tie,1.5,1.5,25,,,,,,,,
,,,,,,,,,,,,,,,656,2022-06-20_10h09.10.049,multiplicationStroop,2021.2.3,Win32,29.96524032,,,,,,,,,,,,,,,,,,,,,,,,,,,,,,,,,20,2.4762,1,0,27,27,6,1,4,×,5,4 × 5,neutral,smallerFirst,1.5,1.5,20,,,,,,,,
,,,,,,,,,,,,,,,656,2022-06-20_10h09.10.049,multiplicationStroop,2021.2.3,Win32,29.96524032,,,,,,,,,,,,,,,,,,,,,,,,,,,,,,,,,45,3.5096,1,0,28,28,24,1,9,×,5,9 × 5,neutral,largerFirst,1.5,1.5,45,,,,,,,,
,,,,,,,,,,,,,,,656,2022-06-20_10h09.10.049,multiplicationStroop,2021.2.3,Win32,29.96524032,,,,,,,,,,,,,,,,,,,,,,,,,,,,,,,,,8,2.3496,1,0,29,29,17,1,4,×,2,4 × 2,neutral,largerFirst,1.5,1.5,8,,,,,,,,
,,,,,,,,,,,,,,,656,2022-06-20_10h09.10.049,multiplicationStroop,2021.2.3,Win32,29.96524032,,,,,,,,,,,,,,,,,,,,,,,,,,,,,,,,,36,2.2123,1,0,30,30,32,1,6,×,6,6 × 6,neutral,tie,1.5,1.5,36,,,,,,,,
,,,,,,,,,,,,,,,656,2022-06-20_10h09.10.049,multiplicationStroop,2021.2.3,Win32,29.96524032,,,,,,,,,,,,,,,,,,,,,,,,,,,,,,,,,16,2.6161,1,0,31,31,27,1,8,×,2,8 × 2,neutral,largerFirst,1.5,1.5,16,,,,,,,,
,,,,,,,,,,,,,,,656,2022-06-20_10h09.10.049,multiplicationStroop,2021.2.3,Win32,29.96524032,,,,,,,,,,,,,,,,,,,,,,,,,,,,,,,,,30,2.8688,1,0,32,32,5,1,5,×,6,5 × 6,neutral,smallerFirst,1.5,1.5,30,,,,,,,,
,,,,,,,,,,,,,,,656,2022-06-20_10h09.10.049,multiplicationStroop,2021.2.3,Win32,29.96524032,,,,,,,,,,,,,,,,,,,,,,,,,,,,,,,,,14,2.6991,1,0,33,33,2,1,2,×,7,2 × 7,neutral,smallerFirst,1.5,1.5,14,,,,,,,,
,,,,,,,,,,,,,,,656,2022-06-20_10h09.10.049,multiplicationStroop,2021.2.3,Win32,29.96524032,,,,,,,,,,,,,,,,,,,,,,,,,,,,,,,,,49,3.5316,1,0,34,34,33,1,7,×,7,7 × 7,neutral,tie,1.5,1.5,49,,,,,,,,
,,,,,,,,,,,,,,,656,2022-06-20_10h09.10.049,multiplicationStroop,2021.2.3,Win32,29.96524032,,,,,,,,,,,,,,,,,,,,,,,,,,,,,,,,,6,2.3207,1,0,35,35,12,1,2,×,3,2 × 3,neutral,smallerFirst,1.5,1.5,6,,,,,,,,
,,,,,,,,,,,,,,,656,2022-06-20_10h09.10.049,multiplicationStroop,2021.2.3,Win32,29.96524032,,,,,,,,,,,,,,,,,,,,,,,,,,,,,,,,,,,,,,,,,,,,,,,,,,0,3,3,0,1,stimulusFile/mult_blk1.xlsx,,
,,,,,,,,,,,,,,,656,2022-06-20_10h09.10.049,multiplicationStroop,2021.2.3,Win32,29.96524032,,,,,,,,,,,,,,,,,,,,,,,,,,,,,,,space,2.3902,54,4.1036,1,0,0,0,12,1,6,×,9,6 × 9,congruent,smallerFirst,1,2,54,,,,,,,,
,,,,,,,,,,,,,,,656,2022-06-20_10h09.10.049,multiplicationStroop,2021.2.3,Win32,29.96524032,,,,,,,,,,,,,,,,,,,,,,,,,,,,,,,,,12,2.7967,1,0,1,1,2,1,3,×,4,3 × 4,congruent,smallerFirst,1,2,12,,,,,,,,
,,,,,,,,,,,,,,,656,2022-06-20_10h09.10.049,multiplicationStroop,2021.2.3,Win32,29.96524032,,,,,,,,,,,,,,,,,,,,,,,,,,,,,,,,,9,2.3534,1,0,2,2,29,1,3,×,3,3 × 3,neutral,tie,2,1,9,,,,,,,,
,,,,,,,,,,,,,,,656,2022-06-20_10h09.10.049,multiplicationStroop,2021.2.3,Win32,29.96524032,,,,,,,,,,,,,,,,,,,,,,,,,,,,,,,,,64,4.165,1,0,3,3,34,1,8,×,8,8 × 8,neutral,tie,2,1,64,,,,,,,,
,,,,,,,,,,,,,,,656,2022-06-20_10h09.10.049,multiplicationStroop,2021.2.3,Win32,29.96524032,,,,,,,,,,,,,,,,,,,,,,,,,,,,,,,,,40,3.6509,1,0,4,4,6,1,5,×,8,5 × 8,congruent,smallerFirst,1,2,40,,,,,,,,
,,,,,,,,,,,,,,,656,2022-06-20_10h09.10.049,multiplicationStroop,2021.2.3,Win32,29.96524032,,,,,,,,,,,,,,,,,,,,,,,,,,,,,,,,,32,10.4297,1,0,5,5,20,1,8,×,4,8 × 4,congruent,largerFirst,2,1,32,,,,,,,,
,,,,,,,,,,,,,,,656,2022-06-20_10h09.10.049,multiplicationStroop,2021.2.3,Win32,29.96524032,,,,,,,,,,,,,,,,,,,,,,,,,,,,,,,,,56,2.6206,1,0,6,6,8,1,7,×,8,7 × 8,congruent,smallerFirst,1,2,56,,,,,,,,
,,,,,,,,,,,,,,,656,2022-06-20_10h09.10.049,multiplicationStroop,2021.2.3,Win32,29.96524032,,,,,,,,,,,,,,,,,,,,,,,,,,,,,,,,,21,2.2218,1,0,7,7,16,1,7,×,3,7 × 3,congruent,largerFirst,2,1,21,,,,,,,,
,,,,,,,,,,,,,,,656,2022-06-20_10h09.10.049,multiplicationStroop,2021.2.3,Win32,29.96524032,,,,,,,,,,,,,,,,,,,,,,,,,,,,,,,,,42,4.2912,1,0,8,8,3,1,6,×,7,6 × 7,congruent,smallerFirst,1,2,42,,,,,,,,
,,,,,,,,,,,,,,,656,2022-06-20_10h09.10.049,multiplicationStroop,2021.2.3,Win32,29.96524032,,,,,,,,,,,,,,,,,,,,,,,,,,,,,,,,,14,2.4631,1,0,9,9,14,1,7,×,2,7 × 2,congruent,largerFirst,2,1,14,,,,,,,,
,,,,,,,,,,,,,,,656,2022-06-20_10h09.10.049,multiplicationStroop,2021.2.3,Win32,29.96524032,,,,,,,,,,,,,,,,,,,,,,,,,,,,,,,,,35,2.4527,1,0,10,10,1,1,5,×,7,5 × 7,congruent,smallerFirst,1,2,35,,,,,,,,
,,,,,,,,,,,,,,,656,2022-06-20_10h09.10.049,multiplicationStroop,2021.2.3,Win32,29.96524032,,,,,,,,,,,,,,,,,,,,,,,,,,,,,,,,,36,2.3741,1,0,11,11,32,1,6,×,6,6 × 6,neutral,tie,2,1,36,,,,,,,,
,,,,,,,,,,,,,,,656,2022-06-20_10h09.10.049,multiplicationStroop,2021.2.3,Win32,29.96524032,,,,,,,,,,,,,,,,,,,,,,,,,,,,,,,,,25,2.702,1,0,12,12,31,1,5,×,5,5 × 5,neutral,tie,2,1,25,,,,,,,,
,,,,,,,,,,,,,,,656,2022-06-20_10h09.10.049,multiplicationStroop,2021.2.3,Win32,29.96524032,,,,,,,,,,,,,,,,,,,,,,,,,,,,,,,,,4,2.2766,1,0,13,13,28,1,2,×,2,2 × 2,neutral,tie,2,1,4,,,,,,,,
,,,,,,,,,,,,,,,656,2022-06-20_10h09.10.049,multiplicationStroop,2021.2.3,Win32,29.96524032,,,,,,,,,,,,,,,,,,,,,,,,,,,,,,,,,15,2.6676,1,0,14,14,4,1,3,×,5,3 × 5,congruent,smallerFirst,1,2,15,,,,,,,,
,,,,,,,,,,,,,,,656,2022-06-20_10h09.10.049,multiplicationStroop,2021.2.3,Win32,29.96524032,,,,,,,,,,,,,,,,,,,,,,,,,,,,,,,,,72,4.8455,1,0,15,15,17,1,9,×,8,9 × 8,congruent,largerFirst,2,1,72,,,,,,,,
,,,,,,,,,,,,,,,656,2022-06-20_10h09.10.049,multiplicationStroop,2021.2.3,Win32,29.96524032,,,,,,,,,,,,,,,,,,,,,,,,,,,,,,,,,45,7.353,1,0,16,16,23,1,9,×,5,9 × 5,congruent,largerFirst,2,1,45,,,,,,,,
,,,,,,,,,,,,,,,656,2022-06-20_10h09.10.049,multiplicationStroop,2021.2.3,Win32,29.96524032,,,,,,,,,,,,,,,,,,,,,,,,,,,,,,,,,12,2.242,1,0,17,17,19,1,6,×,2,6 × 2,congruent,largerFirst,2,1,12,,,,,,,,
,,,,,,,,,,,,,,,656,2022-06-20_10h09.10.049,multiplicationStroop,2021.2.3,Win32,29.96524032,,,,,,,,,,,,,,,,,,,,,,,,,,,,,,,,,63,6.6894,1,0,18,18,21,1,9,×,7,9 × 7,congruent,largerFirst,2,1,63,,,,,,,,
,,,,,,,,,,,,,,,656,2022-06-20_10h09.10.049,multiplicationStroop,2021.2.3,Win32,29.96524032,,,,,,,,,,,,,,,,,,,,,,,,,,,,,,,,,18,2.9763,1,0,19,19,11,1,3,×,6,3 × 6,congruent,smallerFirst,1,2,18,,,,,,,,
,,,,,,,,,,,,,,,656,2022-06-20_10h09.10.049,multiplicationStroop,2021.2.3,Win32,29.96524032,,,,,,,,,,,,,,,,,,,,,,,,,,,,,,,,,18,3.8813,0,0,20,20,26,1,9,×,3,9 × 3,congruent,largerFirst,2,1,27,,,,,,,,
,,,,,,,,,,,,,,,656,2022-06-20_10h09.10.049,multiplicationStroop,2021.2.3,Win32,29.96524032,,,,,,,,,,,,,,,,,,,,,,,,,,,,,,,,,48,6.5621,1,0,21,21,18,1,8,×,6,8 × 6,congruent,largerFirst,2,1,48,,,,,,,,
,,,,,,,,,,,,,,,656,2022-06-20_10h09.10.049,multiplicationStroop,2021.2.3,Win32,29.96524032,,,,,,,,,,,,,,,,,,,,,,,,,,,,,,,,,8,3.0992,1,0,22,22,9,1,2,×,4,2 × 4,congruent,smallerFirst,1,2,8,,,,,,,,
,,,,,,,,,,,,,,,656,2022-06-20_10h09.10.049,multiplicationStroop,2021.2.3,Win32,29.96524032,,,,,,,,,,,,,,,,,,,,,,,,,,,,,,,,,16,2.6187,1,0,23,23,30,1,4,×,4,4 × 4,neutral,tie,2,1,16,,,,,,,,
,,,,,,,,,,,,,,,656,2022-06-20_10h09.10.049,multiplicationStroop,2021.2.3,Win32,29.96524032,,,,,,,,,,,,,,,,,,,,,,,,,,,,,,,,,20,2.6712,1,0,24,24,7,1,4,×,5,4 × 5,congruent,smallerFirst,1,2,20,,,,,,,,
,,,,,,,,,,,,,,,656,2022-06-20_10h09.10.049,multiplicationStroop,2021.2.3,Win32,29.96524032,,,,,,,,,,,,,,,,,,,,,,,,,,,,,,,,,24,2.0881,1,0,25,25,25,1,6,×,4,6 × 4,congruent,largerFirst,2,1,24,,,,,,,,
,,,,,,,,,,,,,,,656,2022-06-20_10h09.10.049,multiplicationStroop,2021.2.3,Win32,29.96524032,,,,,,,,,,,,,,,,,,,,,,,,,,,,,,,,,16,2.2182,1,0,26,26,5,1,2,×,8,2 × 8,congruent,smallerFirst,1,2,16,,,,,,,,
,,,,,,,,,,,,,,,656,2022-06-20_10h09.10.049,multiplicationStroop,2021.2.3,Win32,29.96524032,,,,,,,,,,,,,,,,,,,,,,,,,,,,,,,,,30,2.6966,1,0,27,27,15,1,6,×,5,6 × 5,congruent,largerFirst,2,1,30,,,,,,,,
,,,,,,,,,,,,,,,656,2022-06-20_10h09.10.049,multiplicationStroop,2021.2.3,Win32,29.96524032,,,,,,,,,,,,,,,,,,,,,,,,,,,,,,,,,18,2.9628,1,0,28,28,22,1,9,×,2,9 × 2,congruent,largerFirst,2,1,18,,,,,,,,
,,,,,,,,,,,,,,,656,2022-06-20_10h09.10.049,multiplicationStroop,2021.2.3,Win32,29.96524032,,,,,,,,,,,,,,,,,,,,,,,,,,,,,,,,,6,2.573,1,0,29,29,13,1,2,×,3,2 × 3,congruent,smallerFirst,1,2,6,,,,,,,,
,,,,,,,,,,,,,,,656,2022-06-20_10h09.10.049,multiplicationStroop,2021.2.3,Win32,29.96524032,,,,,,,,,,,,,,,,,,,,,,,,,,,,,,,,,49,3.3363,1,0,30,30,33,1,7,×,7,7 × 7,neutral,tie,2,1,49,,,,,,,,
,,,,,,,,,,,,,,,656,2022-06-20_10h09.10.049,multiplicationStroop,2021.2.3,Win32,29.96524032,,,,,,,,,,,,,,,,,,,,,,,,,,,,,,,,,24,2.2901,1,0,31,31,10,1,3,×,8,3 × 8,congruent,smallerFirst,1,2,24,,,,,,,,
,,,,,,,,,,,,,,,656,2022-06-20_10h09.10.049,multiplicationStroop,2021.2.3,Win32,29.96524032,,,,,,,,,,,,,,,,,,,,,,,,,,,,,,,,,28,5.9715,1,0,32,32,27,1,7,×,4,7 × 4,congruent,largerFirst,2,1,28,,,,,,,,
,,,,,,,,,,,,,,,656,2022-06-20_10h09.10.049,multiplicationStroop,2021.2.3,Win32,29.96524032,,,,,,,,,,,,,,,,,,,,,,,,,,,,,,,,,81,3.2297,1,0,33,33,35,1,9,×,9,9 × 9,neutral,tie,2,1,81,,,,,,,,
,,,,,,,,,,,,,,,656,2022-06-20_10h09.10.049,multiplicationStroop,2021.2.3,Win32,29.96524032,,,,,,,,,,,,,,,,,,,,,,,,,,,,,,,,,10,2.9147,1,0,34,34,24,1,5,×,2,5 × 2,congruent,largerFirst,2,1,10,,,,,,,,
,,,,,,,,,,,,,,,656,2022-06-20_10h09.10.049,multiplicationStroop,2021.2.3,Win32,29.96524032,,,,,,,,,,,,,,,,,,,,,,,,,,,,,,,,,36,6.6085,1,0,35,35,0,1,4,×,9,4 × 9,congruent,smallerFirst,1,2,36,,,,,,,,
,,,,,,,,,,,,,,,656,2022-06-20_10h09.10.049,multiplicationStroop,2021.2.3,Win32,29.96524032,,,,,,,,,,,,,,,,,,,,,,,,,,,,,,,,,,,,,,,,,,,,,,,,,,0,4,4,2,1,stimulusFile/mult_blk3_congruent.xlsx,,
,,,,,,,,,,,,,,,656,2022-06-20_10h09.10.049,multiplicationStroop,2021.2.3,Win32,29.96524032,,,,,,,,,,,,,,,,,,,,,,,,,,,,,,,space,1.1771,36,2.6627,1,0,0,0,32,1,6,×,6,6 × 6,neutral,tie,1.5,1.5,36,,,,,,,,
,,,,,,,,,,,,,,,656,2022-06-20_10h09.10.049,multiplicationStroop,2021.2.3,Win32,29.96524032,,,,,,,,,,,,,,,,,,,,,,,,,,,,,,,,,42,6.4179,1,0,1,1,6,1,6,×,7,6 × 7,neutral,smallerFirst,1.5,1.5,42,,,,,,,,
,,,,,,,,,,,,,,,656,2022-06-20_10h09.10.049,multiplicationStroop,2021.2.3,Win32,29.96524032,,,,,,,,,,,,,,,,,,,,,,,,,,,,,,,,,32,5.0497,1,0,2,2,23,1,8,×,4,8 × 4,neutral,largerFirst,1.5,1.5,32,,,,,,,,
,,,,,,,,,,,,,,,656,2022-06-20_10h09.10.049,multiplicationStroop,2021.2.3,Win32,29.96524032,,,,,,,,,,,,,,,,,,,,,,,,,,,,,,,,,18,2.6307,1,0,3,3,18,1,9,×,2,9 × 2,neutral,largerFirst,1.5,1.5,18,,,,,,,,
,,,,,,,,,,,,,,,656,2022-06-20_10h09.10.049,multiplicationStroop,2021.2.3,Win32,29.96524032,,,,,,,,,,,,,,,,,,,,,,,,,,,,,,,,,40,2.7696,1,0,4,4,24,1,8,×,5,8 × 5,neutral,largerFirst,1.5,1.5,40,,,,,,,,
,,,,,,,,,,,,,,,656,2022-06-20_10h09.10.049,multiplicationStroop,2021.2.3,Win32,29.96524032,,,,,,,,,,,,,,,,,,,,,,,,,,,,,,,,,24,2.27,1,0,5,5,22,1,8,×,3,8 × 3,neutral,largerFirst,1.5,1.5,24,,,,,,,,
,,,,,,,,,,,,,,,656,2022-06-20_10h09.10.049,multiplicationStroop,2021.2.3,Win32,29.96524032,,,,,,,,,,,,,,,,,,,,,,,,,,,,,,,,,4,1.908,1,0,6,6,28,1,2,×,2,2 × 2,neutral,tie,1.5,1.5,4,,,,,,,,
,,,,,,,,,,,,,,,656,2022-06-20_10h09.10.049,multiplicationStroop,2021.2.3,Win32,29.96524032,,,,,,,,,,,,,,,,,,,,,,,,,,,,,,,,,6,2.1003,1,0,7,7,26,1,3,×,2,3 × 2,neutral,largerFirst,1.5,1.5,6,,,,,,,,
,,,,,,,,,,,,,,,656,2022-06-20_10h09.10.049,multiplicationStroop,2021.2.3,Win32,29.96524032,,,,,,,,,,,,,,,,,,,,,,,,,,,,,,,,,54,3.8081,1,0,8,8,7,1,6,×,9,6 × 9,neutral,smallerFirst,1.5,1.5,54,,,,,,,,
,,,,,,,,,,,,,,,656,2022-06-20_10h09.10.049,multiplicationStroop,2021.2.3,Win32,29.96524032,,,,,,,,,,,,,,,,,,,,,,,,,,,,,,,,,20,2.7445,1,0,9,9,20,1,5,×,4,5 × 4,neutral,largerFirst,1.5,1.5,20,,,,,,,,
,,,,,,,,,,,,,,,656,2022-06-20_10h09.10.049,multiplicationStroop,2021.2.3,Win32,29.96524032,,,,,,,,,,,,,,,,,,,,,,,,,,,,,,,,,64,2.5903,1,0,10,10,34,1,8,×,8,8 × 8,neutral,tie,1.5,1.5,64,,,,,,,,
,,,,,,,,,,,,,,,656,2022-06-20_10h09.10.049,multiplicationStroop,2021.2.3,Win32,29.96524032,,,,,,,,,,,,,,,,,,,,,,,,,,,,,,,,,16,2.4372,1,0,11,11,13,1,2,×,8,2 × 8,neutral,smallerFirst,1.5,1.5,16,,,,,,,,
,,,,,,,,,,,,,,,656,2022-06-20_10h09.10.049,multiplicationStroop,2021.2.3,Win32,29.96524032,,,,,,,,,,,,,,,,,,,,,,,,,,,,,,,,,14,2.638,1,0,12,12,16,1,7,×,2,7 × 2,neutral,largerFirst,1.5,1.5,14,,,,,,,,
,,,,,,,,,,,,,,,656,2022-06-20_10h09.10.049,multiplicationStroop,2021.2.3,Win32,29.96524032,,,,,,,,,,,,,,,,,,,,,,,,,,,,,,,,,12,2.751,1,0,13,13,25,1,6,×,2,6 × 2,neutral,largerFirst,1.5,1.5,12,,,,,,,,
,,,,,,,,,,,,,,,656,2022-06-20_10h09.10.049,multiplicationStroop,2021.2.3,Win32,29.96524032,,,,,,,,,,,,,,,,,,,,,,,,,,,,,,,,,15,3.1576,1,0,14,14,5,1,3,×,5,3 × 5,neutral,smallerFirst,1.5,1.5,15,,,,,,,,
,,,,,,,,,,,,,,,656,2022-06-20_10h09.10.049,multiplicationStroop,2021.2.3,Win32,29.96524032,,,,,,,,,,,,,,,,,,,,,,,,,,,,,,,,,48,6.8312,1,0,15,15,15,1,8,×,6,8 × 6,neutral,largerFirst,1.5,1.5,48,,,,,,,,
,,,,,,,,,,,,,,,656,2022-06-20_10h09.10.049,multiplicationStroop,2021.2.3,Win32,29.96524032,,,,,,,,,,,,,,,,,,,,,,,,,,,,,,,,,16,2.7518,1,0,16,16,30,1,4,×,4,4 × 4,neutral,tie,1.5,1.5,16,,,,,,,,
,,,,,,,,,,,,,,,656,2022-06-20_10h09.10.049,multiplicationStroop,2021.2.3,Win32,29.96524032,,,,,,,,,,,,,,,,,,,,,,,,,,,,,,,,,36,3.8798,1,0,17,17,27,1,9,×,4,9 × 4,neutral,largerFirst,1.5,1.5,36,,,,,,,,
,,,,,,,,,,,,,,,656,2022-06-20_10h09.10.049,multiplicationStroop,2021.2.3,Win32,29.96524032,,,,,,,,,,,,,,,,,,,,,,,,,,,,,,,,,9,2.3822,1,0,18,18,29,1,3,×,3,3 × 3,neutral,tie,1.5,1.5,9,,,,,,,,
,,,,,,,,,,,,,,,656,2022-06-20_10h09.10.049,multiplicationStroop,2021.2.3,Win32,29.96524032,,,,,,,,,,,,,,,,,,,,,,,,,,,,,,,,,49,3.2014,1,0,19,19,33,1,7,×,7,7 × 7,neutral,tie,1.5,1.5,49,,,,,,,,
,,,,,,,,,,,,,,,656,2022-06-20_10h09.10.049,multiplicationStroop,2021.2.3,Win32,29.96524032,,,,,,,,,,,,,,,,,,,,,,,,,,,,,,,,,35,2.2326,1,0,20,20,1,1,5,×,7,5 × 7,neutral,smallerFirst,1.5,1.5,35,,,,,,,,
,,,,,,,,,,,,,,,656,2022-06-20_10h09.10.049,multiplicationStroop,2021.2.3,Win32,29.96524032,,,,,,,,,,,,,,,,,,,,,,,,,,,,,,,,,30,2.7647,1,0,21,21,19,1,6,×,5,6 × 5,neutral,largerFirst,1.5,1.5,30,,,,,,,,
,,,,,,,,,,,,,,,656,2022-06-20_10h09.10.049,multiplicationStroop,2021.2.3,Win32,29.96524032,,,,,,,,,,,,,,,,,,,,,,,,,,,,,,,,,54,4.9981,0,0,22,22,10,1,5,×,9,5 × 9,neutral,smallerFirst,1.5,1.5,45,,,,,,,,
,,,,,,,,,,,,,,,656,2022-06-20_10h09.10.049,multiplicationStroop,2021.2.3,Win32,29.96524032,,,,,,,,,,,,,,,,,,,,,,,,,,,,,,,,,12,2.3582,1,0,23,23,21,1,4,×,3,4 × 3,neutral,largerFirst,1.5,1.5,12,,,,,,,,
,,,,,,,,,,,,,,,656,2022-06-20_10h09.10.049,multiplicationStroop,2021.2.3,Win32,29.96524032,,,,,,,,,,,,,,,,,,,,,,,,,,,,,,,,,28,3.6406,1,0,24,24,17,1,7,×,4,7 × 4,neutral,largerFirst,1.5,1.5,28,,,,,,,,
,,,,,,,,,,,,,,,656,2022-06-20_10h09.10.049,multiplicationStroop,2021.2.3,Win32,29.96524032,,,,,,,,,,,,,,,,,,,,,,,,,,,,,,,,,25,3.918,1,0,25,25,31,1,5,×,5,5 × 5,neutral,tie,1.5,1.5,25,,,,,,,,
,,,,,,,,,,,,,,,656,2022-06-20_10h09.10.049,multiplicationStroop,2021.2.3,Win32,29.96524032,,,,,,,,,,,,,,,,,,,,,,,,,,,,,,,,,8,2.3161,1,0,26,26,3,1,2,×,4,2 × 4,neutral,smallerFirst,1.5,1.5,8,,,,,,,,
,,,,,,,,,,,,,,,656,2022-06-20_10h09.10.049,multiplicationStroop,2021.2.3,Win32,29.96524032,,,,,,,,,,,,,,,,,,,,,,,,,,,,,,,,,21,2.3378,1,0,27,27,8,1,3,×,7,3 × 7,neutral,smallerFirst,1.5,1.5,21,,,,,,,,
,,,,,,,,,,,,,,,656,2022-06-20_10h09.10.049,multiplicationStroop,2021.2.3,Win32,29.96524032,,,,,,,,,,,,,,,,,,,,,,,,,,,,,,,,,56,3.1234,1,0,28,28,9,1,7,×,8,7 × 8,neutral,smallerFirst,1.5,1.5,56,,,,,,,,
,,,,,,,,,,,,,,,656,2022-06-20_10h09.10.049,multiplicationStroop,2021.2.3,Win32,29.96524032,,,,,,,,,,,,,,,,,,,,,,,,,,,,,,,,,81,3.5611,1,0,29,29,35,1,9,×,9,9 × 9,neutral,tie,1.5,1.5,81,,,,,,,,
,,,,,,,,,,,,,,,656,2022-06-20_10h09.10.049,multiplicationStroop,2021.2.3,Win32,29.96524032,,,,,,,,,,,,,,,,,,,,,,,,,,,,,,,,,63,4.6322,1,0,30,30,12,1,7,×,9,7 × 9,neutral,smallerFirst,1.5,1.5,63,,,,,,,,
,,,,,,,,,,,,,,,656,2022-06-20_10h09.10.049,multiplicationStroop,2021.2.3,Win32,29.96524032,,,,,,,,,,,,,,,,,,,,,,,,,,,,,,,,,18,2.6153,1,0,31,31,0,1,3,×,6,3 × 6,neutral,smallerFirst,1.5,1.5,18,,,,,,,,
,,,,,,,,,,,,,,,656,2022-06-20_10h09.10.049,multiplicationStroop,2021.2.3,Win32,29.96524032,,,,,,,,,,,,,,,,,,,,,,,,,,,,,,,,,27,4.3296,1,0,32,32,14,1,9,×,3,9 × 3,neutral,largerFirst,1.5,1.5,27,,,,,,,,
,,,,,,,,,,,,,,,656,2022-06-20_10h09.10.049,multiplicationStroop,2021.2.3,Win32,29.96524032,,,,,,,,,,,,,,,,,,,,,,,,,,,,,,,,,72,4.284,1,0,33,33,11,1,8,×,9,8 × 9,neutral,smallerFirst,1.5,1.5,72,,,,,,,,
,,,,,,,,,,,,,,,656,2022-06-20_10h09.10.049,multiplicationStroop,2021.2.3,Win32,29.96524032,,,,,,,,,,,,,,,,,,,,,,,,,,,,,,,,,10,2.997,1,0,34,34,4,1,2,×,5,2 × 5,neutral,smallerFirst,1.5,1.5,10,,,,,,,,
,,,,,,,,,,,,,,,656,2022-06-20_10h09.10.049,multiplicationStroop,2021.2.3,Win32,29.96524032,,,,,,,,,,,,,,,,,,,,,,,,,,,,,,,,,24,3.1591,1,0,35,35,2,1,4,×,6,4 × 6,neutral,smallerFirst,1.5,1.5,24,,,,,,,,
,,,,,,,,,,,,,,,656,2022-06-20_10h09.10.049,multiplicationStroop,2021.2.3,Win32,29.96524032,,,,,,,,,,,,,,,,,,,,,,,,,,,,,,,,,,,,,,,,,,,,,,,,,,0,5,5,1,1,stimulusFile/mult_blk2.xlsx,,
,,,,,,,,,,,,,,,656,2022-06-20_10h09.10.049,multiplicationStroop,2021.2.3,Win32,29.96524032,,,,,,,,,,,,,,,,,,,,,,,,,,,,,,,,,,,,,,,,,,,,,,,,,,,,,,,,space,44.4111