welcomeKey_resp.keys,welcomeKey_resp.rt,X Scale,Y Scale,rt_resp_4.keys,rt_resp_4.corr,rt_resp_4.rt,speedtest_2.thisRepN,speedtest_2.thisTrialN,speedtest_2.thisN,speedtest_2.thisIndex,speedtest_2.ran,numberSc,posX,positionLayout,participant,date,expName,psychopyVersion,OS,frameRate,ct_instrresp.keys,ct_instrresp.rt,key_resp_2.keys,key_resp_2.rt,ct_keyResp.keys,ct_keyResp.corr,ct_keyResp.rt,trials.thisRepN,trials.thisTrialN,trials.thisN,trials.thisIndex,trials.ran,leftNo,rightNo,displayProblem,numDistance,leftNo_size,rightNo_size,Dims,keyAnswer,TS_Loop.thisRepN,TS_Loop.thisTrialN,TS_Loop.thisN,TS_Loop.thisIndex,TS_Loop.ran,Condition,ActionInst,instrImage,mltptaskInst_resp.keys,mltptaskInst_resp.rt,continue_resp_2.keys,continue_resp_2.rt,multp_Answer,multi_RT,multiplyCorr,LoopingMultiply.thisRepN,LoopingMultiply.thisTrialN,LoopingMultiply.thisN,LoopingMultiply.thisIndex,LoopingMultiply.ran,factor1,multiplySign,factor2,multliplyProblem,physicalSize,orderOperand,sizeF1,sizeF2,mult_answer,trials_stroop.thisRepN,trials_stroop.thisTrialN,trials_stroop.thisN,trials_stroop.thisIndex,trials_stroop.ran,multiplicationFile,esckey_resp_2.keys,esckey_resp_2.rt
y,9.4205,44.8,44.3,left,1,1.1009,0,0,0,3,1,4,-200,left,657,2022-06-15_20h05.19.811,multiplicationStroop,2021.2.3,Win32,61.32335807,,,,,,,,,,,,,,,,,,,,,,,,,,,,,,,,,,,,,,,,,,,,,,,,,,,,,,,,,
,,,,left,1,0.6505,0,1,1,4,1,6,-200,left,657,2022-06-15_20h05.19.811,multiplicationStroop,2021.2.3,Win32,61.32335807,,,,,,,,,,,,,,,,,,,,,,,,,,,,,,,,,,,,,,,,,,,,,,,,,,,,,,,,,
,,,,right,1,0.4149,0,2,2,13,1,7,200,right,657,2022-06-15_20h05.19.811,multiplicationStroop,2021.2.3,Win32,61.32335807,,,,,,,,,,,,,,,,,,,,,,,,,,,,,,,,,,,,,,,,,,,,,,,,,,,,,,,,,
,,,,right,1,0.5852,0,3,3,15,1,9,200,right,657,2022-06-15_20h05.19.811,multiplicationStroop,2021.2.3,Win32,61.32335807,,,,,,,,,,,,,,,,,,,,,,,,,,,,,,,,,,,,,,,,,,,,,,,,,,,,,,,,,
,,,,right,1,0.4786,0,4,4,11,1,4,200,right,657,2022-06-15_20h05.19.811,multiplicationStroop,2021.2.3,Win32,61.32335807,,,,,,,,,,,,,,,,,,,,,,,,,,,,,,,,,,,,,,,,,,,,,,,,,,,,,,,,,
,,,,left,1,0.386,0,5,5,1,1,2,-200,left,657,2022-06-15_20h05.19.811,multiplicationStroop,2021.2.3,Win32,61.32335807,,,,,,,,,,,,,,,,,,,,,,,,,,,,,,,,,,,,,,,,,,,,,,,,,,,,,,,,,
,,,,right,1,0.3154,0,6,6,8,1,1,200,right,657,2022-06-15_20h05.19.811,multiplicationStroop,2021.2.3,Win32,61.32335807,,,,,,,,,,,,,,,,,,,,,,,,,,,,,,,,,,,,,,,,,,,,,,,,,,,,,,,,,
,,,,left,1,0.3519,0,7,7,0,1,1,-200,left,657,2022-06-15_20h05.19.811,multiplicationStroop,2021.2.3,Win32,61.32335807,,,,,,,,,,,,,,,,,,,,,,,,,,,,,,,,,,,,,,,,,,,,,,,,,,,,,,,,,
,,,,left,1,0.4305,0,8,8,7,1,9,-200,left,657,2022-06-15_20h05.19.811,multiplicationStroop,2021.2.3,Win32,61.32335807,,,,,,,,,,,,,,,,,,,,,,,,,,,,,,,,,,,,,,,,,,,,,,,,,,,,,,,,,
,,,,right,1,0.3458,0,9,9,12,1,6,200,right,657,2022-06-15_20h05.19.811,multiplicationStroop,2021.2.3,Win32,61.32335807,,,,,,,,,,,,,,,,,,,,,,,,,,,,,,,,,,,,,,,,,,,,,,,,,,,,,,,,,
,,,,left,1,0.3859,0,10,10,2,1,3,-200,left,657,2022-06-15_20h05.19.811,multiplicationStroop,2021.2.3,Win32,61.32335807,,,,,,,,,,,,,,,,,,,,,,,,,,,,,,,,,,,,,,,,,,,,,,,,,,,,,,,,,
,,,,left,1,0.43,0,11,11,5,1,7,-200,left,657,2022-06-15_20h05.19.811,multiplicationStroop,2021.2.3,Win32,61.32335807,,,,,,,,,,,,,,,,,,,,,,,,,,,,,,,,,,,,,,,,,,,,,,,,,,,,,,,,,
,,,,left,1,0.4995,0,12,12,6,1,8,-200,left,657,2022-06-15_20h05.19.811,multiplicationStroop,2021.2.3,Win32,61.32335807,,,,,,,,,,,,,,,,,,,,,,,,,,,,,,,,,,,,,,,,,,,,,,,,,,,,,,,,,
,,,,right,1,0.379,0,13,13,9,1,2,200,right,657,2022-06-15_20h05.19.811,multiplicationStroop,2021.2.3,Win32,61.32335807,,,,,,,,,,,,,,,,,,,,,,,,,,,,,,,,,,,,,,,,,,,,,,,,,,,,,,,,,
,,,,right,1,0.4958,0,14,14,10,1,3,200,right,657,2022-06-15_20h05.19.811,multiplicationStroop,2021.2.3,Win32,61.32335807,,,,,,,,,,,,,,,,,,,,,,,,,,,,,,,,,,,,,,,,,,,,,,,,,,,,,,,,,
,,,,right,1,0.3825,0,15,15,14,1,8,200,right,657,2022-06-15_20h05.19.811,multiplicationStroop,2021.2.3,Win32,61.32335807,,,,,,,,,,,,,,,,,,,,,,,,,,,,,,,,,,,,,,,,,,,,,,,,,,,,,,,,,
,,,,left,1,0.4669,1,0,16,5,1,7,-200,left,657,2022-06-15_20h05.19.811,multiplicationStroop,2021.2.3,Win32,61.32335807,,,,,,,,,,,,,,,,,,,,,,,,,,,,,,,,,,,,,,,,,,,,,,,,,,,,,,,,,
,,,,left,1,0.4544,1,1,17,6,1,8,-200,left,657,2022-06-15_20h05.19.811,multiplicationStroop,2021.2.3,Win32,61.32335807,,,,,,,,,,,,,,,,,,,,,,,,,,,,,,,,,,,,,,,,,,,,,,,,,,,,,,,,,
,,,,right,1,0.3644,1,2,18,8,1,1,200,right,657,2022-06-15_20h05.19.811,multiplicationStroop,2021.2.3,Win32,61.32335807,,,,,,,,,,,,,,,,,,,,,,,,,,,,,,,,,,,,,,,,,,,,,,,,,,,,,,,,,
,,,,left,1,0.2972,1,3,19,7,1,9,-200,left,657,2022-06-15_20h05.19.811,multiplicationStroop,2021.2.3,Win32,61.32335807,,,,,,,,,,,,,,,,,,,,,,,,,,,,,,,,,,,,,,,,,,,,,,,,,,,,,,,,,
,,,,left,1,0.3468,1,4,20,4,1,6,-200,left,657,2022-06-15_20h05.19.811,multiplicationStroop,2021.2.3,Win32,61.32335807,,,,,,,,,,,,,,,,,,,,,,,,,,,,,,,,,,,,,,,,,,,,,,,,,,,,,,,,,
,,,,right,1,0.3459,1,5,21,15,1,9,200,right,657,2022-06-15_20h05.19.811,multiplicationStroop,2021.2.3,Win32,61.32335807,,,,,,,,,,,,,,,,,,,,,,,,,,,,,,,,,,,,,,,,,,,,,,,,,,,,,,,,,
,,,,right,1,0.4668,1,6,22,14,1,8,200,right,657,2022-06-15_20h05.19.811,multiplicationStroop,2021.2.3,Win32,61.32335807,,,,,,,,,,,,,,,,,,,,,,,,,,,,,,,,,,,,,,,,,,,,,,,,,,,,,,,,,
,,,,right,1,0.3291,1,7,23,9,1,2,200,right,657,2022-06-15_20h05.19.811,multiplicationStroop,2021.2.3,Win32,61.32335807,,,,,,,,,,,,,,,,,,,,,,,,,,,,,,,,,,,,,,,,,,,,,,,,,,,,,,,,,
,,,,left,1,0.3497,1,8,24,2,1,3,-200,left,657,2022-06-15_20h05.19.811,multiplicationStroop,2021.2.3,Win32,61.32335807,,,,,,,,,,,,,,,,,,,,,,,,,,,,,,,,,,,,,,,,,,,,,,,,,,,,,,,,,
,,,,left,1,0.3496,1,9,25,3,1,4,-200,left,657,2022-06-15_20h05.19.811,multiplicationStroop,2021.2.3,Win32,61.32335807,,,,,,,,,,,,,,,,,,,,,,,,,,,,,,,,,,,,,,,,,,,,,,,,,,,,,,,,,
,,,,right,1,0.3285,1,10,26,10,1,3,200,right,657,2022-06-15_20h05.19.811,multiplicationStroop,2021.2.3,Win32,61.32335807,,,,,,,,,,,,,,,,,,,,,,,,,,,,,,,,,,,,,,,,,,,,,,,,,,,,,,,,,
,,,,left,1,0.3361,1,11,27,1,1,2,-200,left,657,2022-06-15_20h05.19.811,multiplicationStroop,2021.2.3,Win32,61.32335807,,,,,,,,,,,,,,,,,,,,,,,,,,,,,,,,,,,,,,,,,,,,,,,,,,,,,,,,,
,,,,right,1,0.2718,1,12,28,13,1,7,200,right,657,2022-06-15_20h05.19.811,multiplicationStroop,2021.2.3,Win32,61.32335807,,,,,,,,,,,,,,,,,,,,,,,,,,,,,,,,,,,,,,,,,,,,,,,,,,,,,,,,,
,,,,right,1,0.4344,1,13,29,12,1,6,200,right,657,2022-06-15_20h05.19.811,multiplicationStroop,2021.2.3,Win32,61.32335807,,,,,,,,,,,,,,,,,,,,,,,,,,,,,,,,,,,,,,,,,,,,,,,,,,,,,,,,,
,,,,left,1,0.3172,1,14,30,0,1,1,-200,left,657,2022-06-15_20h05.19.811,multiplicationStroop,2021.2.3,Win32,61.32335807,,,,,,,,,,,,,,,,,,,,,,,,,,,,,,,,,,,,,,,,,,,,,,,,,,,,,,,,,
,,,,right,1,0.2844,1,15,31,11,1,4,200,right,657,2022-06-15_20h05.19.811,multiplicationStroop,2021.2.3,Win32,61.32335807,,,,,,,,,,,,,,,,,,,,,,,,,,,,,,,,,,,,,,,,,,,,,,,,,,,,,,,,,
,,,,left,1,0.3479,2,0,32,2,1,3,-200,left,657,2022-06-15_20h05.19.811,multiplicationStroop,2021.2.3,Win32,61.32335807,,,,,,,,,,,,,,,,,,,,,,,,,,,,,,,,,,,,,,,,,,,,,,,,,,,,,,,,,
,,,,left,1,0.4171,2,1,33,3,1,4,-200,left,657,2022-06-15_20h05.19.811,multiplicationStroop,2021.2.3,Win32,61.32335807,,,,,,,,,,,,,,,,,,,,,,,,,,,,,,,,,,,,,,,,,,,,,,,,,,,,,,,,,
,,,,left,1,0.3452,2,2,34,5,1,7,-200,left,657,2022-06-15_20h05.19.811,multiplicationStroop,2021.2.3,Win32,61.32335807,,,,,,,,,,,,,,,,,,,,,,,,,,,,,,,,,,,,,,,,,,,,,,,,,,,,,,,,,
,,,,right,1,0.3137,2,3,35,8,1,1,200,right,657,2022-06-15_20h05.19.811,multiplicationStroop,2021.2.3,Win32,61.32335807,,,,,,,,,,,,,,,,,,,,,,,,,,,,,,,,,,,,,,,,,,,,,,,,,,,,,,,,,
,,,,right,1,0.3626,2,4,36,14,1,8,200,right,657,2022-06-15_20h05.19.811,multiplicationStroop,2021.2.3,Win32,61.32335807,,,,,,,,,,,,,,,,,,,,,,,,,,,,,,,,,,,,,,,,,,,,,,,,,,,,,,,,,
,,,,right,1,0.2963,2,5,37,11,1,4,200,right,657,2022-06-15_20h05.19.811,multiplicationStroop,2021.2.3,Win32,61.32335807,,,,,,,,,,,,,,,,,,,,,,,,,,,,,,,,,,,,,,,,,,,,,,,,,,,,,,,,,
,,,,right,1,0.337,2,6,38,12,1,6,200,right,657,2022-06-15_20h05.19.811,multiplicationStroop,2021.2.3,Win32,61.32335807,,,,,,,,,,,,,,,,,,,,,,,,,,,,,,,,,,,,,,,,,,,,,,,,,,,,,,,,,
,,,,left,1,0.3788,2,7,39,6,1,8,-200,left,657,2022-06-15_20h05.19.811,multiplicationStroop,2021.2.3,Win32,61.32335807,,,,,,,,,,,,,,,,,,,,,,,,,,,,,,,,,,,,,,,,,,,,,,,,,,,,,,,,,
,,,,right,1,0.3872,2,8,40,15,1,9,200,right,657,2022-06-15_20h05.19.811,multiplicationStroop,2021.2.3,Win32,61.32335807,,,,,,,,,,,,,,,,,,,,,,,,,,,,,,,,,,,,,,,,,,,,,,,,,,,,,,,,,
,,,,right,1,0.3625,2,9,41,13,1,7,200,right,657,2022-06-15_20h05.19.811,multiplicationStroop,2021.2.3,Win32,61.32335807,,,,,,,,,,,,,,,,,,,,,,,,,,,,,,,,,,,,,,,,,,,,,,,,,,,,,,,,,
,,,,left,1,0.3967,2,10,42,7,1,9,-200,left,657,2022-06-15_20h05.19.811,multiplicationStroop,2021.2.3,Win32,61.32335807,,,,,,,,,,,,,,,,,,,,,,,,,,,,,,,,,,,,,,,,,,,,,,,,,,,,,,,,,
,,,,right,1,0.3338,2,11,43,9,1,2,200,right,657,2022-06-15_20h05.19.811,multiplicationStroop,2021.2.3,Win32,61.32335807,,,,,,,,,,,,,,,,,,,,,,,,,,,,,,,,,,,,,,,,,,,,,,,,,,,,,,,,,
,,,,right,1,0.4357,2,12,44,10,1,3,200,right,657,2022-06-15_20h05.19.811,multiplicationStroop,2021.2.3,Win32,61.32335807,,,,,,,,,,,,,,,,,,,,,,,,,,,,,,,,,,,,,,,,,,,,,,,,,,,,,,,,,
,,,,left,1,0.362,2,13,45,4,1,6,-200,left,657,2022-06-15_20h05.19.811,multiplicationStroop,2021.2.3,Win32,61.32335807,,,,,,,,,,,,,,,,,,,,,,,,,,,,,,,,,,,,,,,,,,,,,,,,,,,,,,,,,
,,,,left,1,0.3651,2,14,46,0,1,1,-200,left,657,2022-06-15_20h05.19.811,multiplicationStroop,2021.2.3,Win32,61.32335807,,,,,,,,,,,,,,,,,,,,,,,,,,,,,,,,,,,,,,,,,,,,,,,,,,,,,,,,,
,,,,left,1,0.3041,2,15,47,1,1,2,-200,left,657,2022-06-15_20h05.19.811,multiplicationStroop,2021.2.3,Win32,61.32335807,,,,,,,,,,,,,,,,,,,,,,,,,,,,,,,,,,,,,,,,,,,,,,,,,,,,,,,,,
,,,,left,1,0.2953,3,0,48,6,1,8,-200,left,657,2022-06-15_20h05.19.811,multiplicationStroop,2021.2.3,Win32,61.32335807,,,,,,,,,,,,,,,,,,,,,,,,,,,,,,,,,,,,,,,,,,,,,,,,,,,,,,,,,
,,,,left,1,0.3169,3,1,49,0,1,1,-200,left,657,2022-06-15_20h05.19.811,multiplicationStroop,2021.2.3,Win32,61.32335807,,,,,,,,,,,,,,,,,,,,,,,,,,,,,,,,,,,,,,,,,,,,,,,,,,,,,,,,,
,,,,right,1,0.4658,3,2,50,15,1,9,200,right,657,2022-06-15_20h05.19.811,multiplicationStroop,2021.2.3,Win32,61.32335807,,,,,,,,,,,,,,,,,,,,,,,,,,,,,,,,,,,,,,,,,,,,,,,,,,,,,,,,,
,,,,left,1,0.3459,3,3,51,1,1,2,-200,left,657,2022-06-15_20h05.19.811,multiplicationStroop,2021.2.3,Win32,61.32335807,,,,,,,,,,,,,,,,,,,,,,,,,,,,,,,,,,,,,,,,,,,,,,,,,,,,,,,,,
,,,,right,1,0.3194,3,4,52,12,1,6,200,right,657,2022-06-15_20h05.19.811,multiplicationStroop,2021.2.3,Win32,61.32335807,,,,,,,,,,,,,,,,,,,,,,,,,,,,,,,,,,,,,,,,,,,,,,,,,,,,,,,,,
,,,,right,1,0.4298,3,5,53,10,1,3,200,right,657,2022-06-15_20h05.19.811,multiplicationStroop,2021.2.3,Win32,61.32335807,,,,,,,,,,,,,,,,,,,,,,,,,,,,,,,,,,,,,,,,,,,,,,,,,,,,,,,,,
,,,,left,1,0.3784,3,6,54,7,1,9,-200,left,657,2022-06-15_20h05.19.811,multiplicationStroop,2021.2.3,Win32,61.32335807,,,,,,,,,,,,,,,,,,,,,,,,,,,,,,,,,,,,,,,,,,,,,,,,,,,,,,,,,
,,,,right,1,0.3809,3,7,55,14,1,8,200,right,657,2022-06-15_20h05.19.811,multiplicationStroop,2021.2.3,Win32,61.32335807,,,,,,,,,,,,,,,,,,,,,,,,,,,,,,,,,,,,,,,,,,,,,,,,,,,,,,,,,
,,,,right,1,0.5165,3,8,56,13,1,7,200,right,657,2022-06-15_20h05.19.811,multiplicationStroop,2021.2.3,Win32,61.32335807,,,,,,,,,,,,,,,,,,,,,,,,,,,,,,,,,,,,,,,,,,,,,,,,,,,,,,,,,
,,,,left,1,0.3802,3,9,57,4,1,6,-200,left,657,2022-06-15_20h05.19.811,multiplicationStroop,2021.2.3,Win32,61.32335807,,,,,,,,,,,,,,,,,,,,,,,,,,,,,,,,,,,,,,,,,,,,,,,,,,,,,,,,,
,,,,right,1,0.3134,3,10,58,8,1,1,200,right,657,2022-06-15_20h05.19.811,multiplicationStroop,2021.2.3,Win32,61.32335807,,,,,,,,,,,,,,,,,,,,,,,,,,,,,,,,,,,,,,,,,,,,,,,,,,,,,,,,,
,,,,left,1,0.3126,3,11,59,2,1,3,-200,left,657,2022-06-15_20h05.19.811,multiplicationStroop,2021.2.3,Win32,61.32335807,,,,,,,,,,,,,,,,,,,,,,,,,,,,,,,,,,,,,,,,,,,,,,,,,,,,,,,,,
,,,,right,1,0.3289,3,12,60,9,1,2,200,right,657,2022-06-15_20h05.19.811,multiplicationStroop,2021.2.3,Win32,61.32335807,,,,,,,,,,,,,,,,,,,,,,,,,,,,,,,,,,,,,,,,,,,,,,,,,,,,,,,,,
,,,,right,1,0.5358,3,13,61,11,1,4,200,right,657,2022-06-15_20h05.19.811,multiplicationStroop,2021.2.3,Win32,61.32335807,,,,,,,,,,,,,,,,,,,,,,,,,,,,,,,,,,,,,,,,,,,,,,,,,,,,,,,,,
,,,,left,1,0.5029,3,14,62,5,1,7,-200,left,657,2022-06-15_20h05.19.811,multiplicationStroop,2021.2.3,Win32,61.32335807,,,,,,,,,,,,,,,,,,,,,,,,,,,,,,,,,,,,,,,,,,,,,,,,,,,,,,,,,
,,,,left,1,0.3616,3,15,63,3,1,4,-200,left,657,2022-06-15_20h05.19.811,multiplicationStroop,2021.2.3,Win32,61.32335807,,,,,,,,,,,,,,,,,,,,,,,,,,,,,,,,,,,,,,,,,,,,,,,,,,,,,,,,,
,,,,,,,,,,,,,,,657,2022-06-15_20h05.19.811,multiplicationStroop,2021.2.3,Win32,61.32335807,space,2.0121,space,4.3348,left,1,0.7631,0,0,0,4,1,2,1,2 | 1,1,1.9756,1.4111,congruent,left,,,,,,stimulusFile/magnitude.xlsx,,,,,,,,,,,,,,,,,,,,,,,,,,,,,,,
,,,,,,,,,,,,,,,657,2022-06-15_20h05.19.811,multiplicationStroop,2021.2.3,Win32,61.32335807,,,,,right,1,0.5986,0,1,1,57,1,2,4,2 | 4,2,1.6933,1.6933,neutral,right,,,,,,stimulusFile/magnitude.xlsx,,,,,,,,,,,,,,,,,,,,,,,,,,,,,,,
,,,,,,,,,,,,,,,657,2022-06-15_20h05.19.811,multiplicationStroop,2021.2.3,Win32,61.32335807,,,,,left,1,0.5142,0,2,2,70,1,8,3,8 | 3,5,1.6933,1.6933,neutral,left,,,,,,stimulusFile/magnitude.xlsx,,,,,,,,,,,,,,,,,,,,,,,,,,,,,,,
,,,,,,,,,,,,,,,657,2022-06-15_20h05.19.811,multiplicationStroop,2021.2.3,Win32,61.32335807,,,,,left,1,0.6626,0,3,3,6,1,7,6,7 | 6,1,1.9756,1.4111,congruent,left,,,,,,stimulusFile/magnitude.xlsx,,,,,,,,,,,,,,,,,,,,,,,,,,,,,,,
,,,,,,,,,,,,,,,657,2022-06-15_20h05.19.811,multiplicationStroop,2021.2.3,Win32,61.32335807,,,,,right,0,0.4244,0,4,4,38,1,8,6,8 | 6,2,1.4111,1.9756,incongruent,left,,,,,,stimulusFile/magnitude.xlsx,,,,,,,,,,,,,,,,,,,,,,,,,,,,,,,
,,,,,,,,,,,,,,,657,2022-06-15_20h05.19.811,multiplicationStroop,2021.2.3,Win32,61.32335807,,,,,left,0,0.5263,0,5,5,26,1,6,7,6 | 7,1,1.9756,1.4111,incongruent,right,,,,,,stimulusFile/magnitude.xlsx,,,,,,,,,,,,,,,,,,,,,,,,,,,,,,,
,,,,,,,,,,,,,,,657,2022-06-15_20h05.19.811,multiplicationStroop,2021.2.3,Win32,61.32335807,,,,,left,1,0.5815,0,6,6,7,1,9,8,9 | 8,1,1.9756,1.4111,congruent,left,,,,,,stimulusFile/magnitude.xlsx,,,,,,,,,,,,,,,,,,,,,,,,,,,,,,,
,,,,,,,,,,,,,,,657,2022-06-15_20h05.19.811,multiplicationStroop,2021.2.3,Win32,61.32335807,,,,,left,1,0.8107,0,7,7,14,1,8,6,8 | 6,2,1.9756,1.4111,congruent,left,,,,,,stimulusFile/magnitude.xlsx,,,,,,,,,,,,,,,,,,,,,,,,,,,,,,,
,,,,,,,,,,,,,,,657,2022-06-15_20h05.19.811,multiplicationStroop,2021.2.3,Win32,61.32335807,,,,,right,0,0.4776,0,8,8,31,1,9,8,9 | 8,1,1.4111,1.9756,incongruent,left,,,,,,stimulusFile/magnitude.xlsx,,,,,,,,,,,,,,,,,,,,,,,,,,,,,,,
,,,,,,,,,,,,,,,657,2022-06-15_20h05.19.811,multiplicationStroop,2021.2.3,Win32,61.32335807,,,,,right,1,0.4983,0,9,9,1,1,3,4,3 | 4,1,1.4111,1.9756,congruent,right,,,,,,stimulusFile/magnitude.xlsx,,,,,,,,,,,,,,,,,,,,,,,,,,,,,,,
,,,,,,,,,,,,,,,657,2022-06-15_20h05.19.811,multiplicationStroop,2021.2.3,Win32,61.32335807,,,,,left,1,0.5786,0,10,10,21,1,7,2,7 | 2,5,1.9756,1.4111,congruent,left,,,,,,stimulusFile/magnitude.xlsx,,,,,,,,,,,,,,,,,,,,,,,,,,,,,,,
,,,,,,,,,,,,,,,657,2022-06-15_20h05.19.811,multiplicationStroop,2021.2.3,Win32,61.32335807,,,,,right,1,0.5854,0,11,11,56,1,1,3,1 | 3,2,1.6933,1.6933,neutral,right,,,,,,stimulusFile/magnitude.xlsx,,,,,,,,,,,,,,,,,,,,,,,,,,,,,,,
,,,,,,,,,,,,,,,657,2022-06-15_20h05.19.811,multiplicationStroop,2021.2.3,Win32,61.32335807,,,,,left,0,0.532,0,12,12,66,1,3,8,3 | 8,5,1.6933,1.6933,neutral,right,,,,,,stimulusFile/magnitude.xlsx,,,,,,,,,,,,,,,,,,,,,,,,,,,,,,,
,,,,,,,,,,,,,,,657,2022-06-15_20h05.19.811,multiplicationStroop,2021.2.3,Win32,61.32335807,,,,,right,0,0.5524,0,13,13,63,1,9,7,9 | 7,2,1.6933,1.6933,neutral,left,,,,,,stimulusFile/magnitude.xlsx,,,,,,,,,,,,,,,,,,,,,,,,,,,,,,,
,,,,,,,,,,,,,,,657,2022-06-15_20h05.19.811,multiplicationStroop,2021.2.3,Win32,61.32335807,,,,,right,0,1.1477,0,14,14,29,1,4,3,4 | 3,1,1.4111,1.9756,incongruent,left,,,,,,stimulusFile/magnitude.xlsx,,,,,,,,,,,,,,,,,,,,,,,,,,,,,,,
,,,,,,,,,,,,,,,657,2022-06-15_20h05.19.811,multiplicationStroop,2021.2.3,Win32,61.32335807,,,,,left,0,0.6682,0,15,15,27,1,8,9,8 | 9,1,1.9756,1.4111,incongruent,right,,,,,,stimulusFile/magnitude.xlsx,,,,,,,,,,,,,,,,,,,,,,,,,,,,,,,
,,,,,,,,,,,,,,,657,2022-06-15_20h05.19.811,multiplicationStroop,2021.2.3,Win32,61.32335807,,,,,right,1,0.4703,0,16,16,67,1,4,9,4 | 9,5,1.6933,1.6933,neutral,right,,,,,,stimulusFile/magnitude.xlsx,,,,,,,,,,,,,,,,,,,,,,,,,,,,,,,
,,,,,,,,,,,,,,,657,2022-06-15_20h05.19.811,multiplicationStroop,2021.2.3,Win32,61.32335807,,,,,left,1,0.5366,0,17,17,28,1,2,1,2 | 1,1,1.4111,1.9756,incongruent,left,,,,,,stimulusFile/magnitude.xlsx,,,,,,,,,,,,,,,,,,,,,,,,,,,,,,,
,,,,,,,,,,,,,,,657,2022-06-15_20h05.19.811,multiplicationStroop,2021.2.3,Win32,61.32335807,,,,,right,1,0.5191,0,18,18,16,1,1,6,1 | 6,5,1.4111,1.9756,congruent,right,,,,,,stimulusFile/magnitude.xlsx,,,,,,,,,,,,,,,,,,,,,,,,,,,,,,,
,,,,,,,,,,,,,,,657,2022-06-15_20h05.19.811,multiplicationStroop,2021.2.3,Win32,61.32335807,,,,,right,0,0.5022,0,19,19,36,1,3,1,3 | 1,2,1.4111,1.9756,incongruent,left,,,,,,stimulusFile/magnitude.xlsx,,,,,,,,,,,,,,,,,,,,,,,,,,,,,,,
,,,,,,,,,,,,,,,657,2022-06-15_20h05.19.811,multiplicationStroop,2021.2.3,Win32,61.32335807,,,,,left,0,0.5513,0,20,20,42,1,3,8,3 | 8,5,1.9756,1.4111,incongruent,right,,,,,,stimulusFile/magnitude.xlsx,,,,,,,,,,,,,,,,,,,,,,,,,,,,,,,
,,,,,,,,,,,,,,,657,2022-06-15_20h05.19.811,multiplicationStroop,2021.2.3,Win32,61.32335807,,,,,right,1,0.536,0,21,21,59,1,7,9,7 | 9,2,1.6933,1.6933,neutral,right,,,,,,stimulusFile/magnitude.xlsx,,,,,,,,,,,,,,,,,,,,,,,,,,,,,,,
,,,,,,,,,,,,,,,657,2022-06-15_20h05.19.811,multiplicationStroop,2021.2.3,Win32,61.32335807,,,,,left,1,0.4852,0,22,22,13,1,4,2,4 | 2,2,1.9756,1.4111,congruent,left,,,,,,stimulusFile/magnitude.xlsx,,,,,,,,,,,,,,,,,,,,,,,,,,,,,,,
,,,,,,,,,,,,,,,657,2022-06-15_20h05.19.811,multiplicationStroop,2021.2.3,Win32,61.32335807,,,,,right,1,0.5363,0,23,23,2,1,6,7,6 | 7,1,1.4111,1.9756,congruent,right,,,,,,stimulusFile/magnitude.xlsx,,,,,,,,,,,,,,,,,,,,,,,,,,,,,,,
,,,,,,,,,,,,,,,657,2022-06-15_20h05.19.811,multiplicationStroop,2021.2.3,Win32,61.32335807,,,,,left,1,0.5679,0,24,24,71,1,9,4,9 | 4,5,1.6933,1.6933,neutral,left,,,,,,stimulusFile/magnitude.xlsx,,,,,,,,,,,,,,,,,,,,,,,,,,,,,,,
,,,,,,,,,,,,,,,657,2022-06-15_20h05.19.811,multiplicationStroop,2021.2.3,Win32,61.32335807,,,,,right,1,0.4525,0,25,25,3,1,8,9,8 | 9,1,1.4111,1.9756,congruent,right,,,,,,stimulusFile/magnitude.xlsx,,,,,,,,,,,,,,,,,,,,,,,,,,,,,,,
,,,,,,,,,,,,,,,657,2022-06-15_20h05.19.811,multiplicationStroop,2021.2.3,Win32,61.32335807,,,,,left,1,0.5177,0,26,26,54,1,7,6,7 | 6,1,1.6933,1.6933,neutral,left,,,,,,stimulusFile/magnitude.xlsx,,,,,,,,,,,,,,,,,,,,,,,,,,,,,,,
,,,,,,,,,,,,,,,657,2022-06-15_20h05.19.811,multiplicationStroop,2021.2.3,Win32,61.32335807,,,,,left,1,0.5399,0,27,27,52,1,2,1,2 | 1,1,1.6933,1.6933,neutral,left,,,,,,stimulusFile/magnitude.xlsx,,,,,,,,,,,,,,,,,,,,,,,,,,,,,,,
,,,,,,,,,,,,,,,657,2022-06-15_20h05.19.811,multiplicationStroop,2021.2.3,Win32,61.32335807,,,,,left,1,0.4731,0,28,28,23,1,9,4,9 | 4,5,1.9756,1.4111,congruent,left,,,,,,stimulusFile/magnitude.xlsx,,,,,,,,,,,,,,,,,,,,,,,,,,,,,,,
,,,,,,,,,,,,,,,657,2022-06-15_20h05.19.811,multiplicationStroop,2021.2.3,Win32,61.32335807,,,,,left,0,0.6197,0,29,29,41,1,2,7,2 | 7,5,1.9756,1.4111,incongruent,right,,,,,,stimulusFile/magnitude.xlsx,,,,,,,,,,,,,,,,,,,,,,,,,,,,,,,
,,,,,,,,,,,,,,,657,2022-06-15_20h05.19.811,multiplicationStroop,2021.2.3,Win32,61.32335807,,,,,right,1,0.5512,0,30,30,65,1,2,7,2 | 7,5,1.6933,1.6933,neutral,right,,,,,,stimulusFile/magnitude.xlsx,,,,,,,,,,,,,,,,,,,,,,,,,,,,,,,
,,,,,,,,,,,,,,,657,2022-06-15_20h05.19.811,multiplicationStroop,2021.2.3,Win32,61.32335807,,,,,right,0,0.5672,0,31,31,46,1,8,3,8 | 3,5,1.4111,1.9756,incongruent,left,,,,,,stimulusFile/magnitude.xlsx,,,,,,,,,,,,,,,,,,,,,,,,,,,,,,,
,,,,,,,,,,,,,,,657,2022-06-15_20h05.19.811,multiplicationStroop,2021.2.3,Win32,61.32335807,,,,,right,1,0.5509,0,32,32,10,1,6,8,6 | 8,2,1.4111,1.9756,congruent,right,,,,,,stimulusFile/magnitude.xlsx,,,,,,,,,,,,,,,,,,,,,,,,,,,,,,,
,,,,,,,,,,,,,,,657,2022-06-15_20h05.19.811,multiplicationStroop,2021.2.3,Win32,61.32335807,,,,,left,0,0.5732,0,33,33,24,1,1,2,1 | 2,1,1.9756,1.4111,incongruent,right,,,,,,stimulusFile/magnitude.xlsx,,,,,,,,,,,,,,,,,,,,,,,,,,,,,,,
,,,,,,,,,,,,,,,657,2022-06-15_20h05.19.811,multiplicationStroop,2021.2.3,Win32,61.32335807,,,,,right,0,0.4016,0,34,34,37,1,4,2,4 | 2,2,1.4111,1.9756,incongruent,left,,,,,,stimulusFile/magnitude.xlsx,,,,,,,,,,,,,,,,,,,,,,,,,,,,,,,
,,,,,,,,,,,,,,,657,2022-06-15_20h05.19.811,multiplicationStroop,2021.2.3,Win32,61.32335807,,,,,left,0,0.6012,0,35,35,43,1,4,9,4 | 9,5,1.9756,1.4111,incongruent,right,,,,,,stimulusFile/magnitude.xlsx,,,,,,,,,,,,,,,,,,,,,,,,,,,,,,,
,,,,,,,,,,,,,,,657,2022-06-15_20h05.19.811,multiplicationStroop,2021.2.3,Win32,61.32335807,,,,,right,0,1.787,0,36,36,69,1,7,2,7 | 2,5,1.6933,1.6933,neutral,left,,,,,,stimulusFile/magnitude.xlsx,,,,,,,,,,,,,,,,,,,,,,,,,,,,,,,
,,,,,,,,,,,,,,,657,2022-06-15_20h05.19.811,multiplicationStroop,2021.2.3,Win32,61.32335807,,,,,right,1,0.5511,0,37,37,19,1,4,9,4 | 9,5,1.4111,1.9756,congruent,right,,,,,,stimulusFile/magnitude.xlsx,,,,,,,,,,,,,,,,,,,,,,,,,,,,,,,
,,,,,,,,,,,,,,,657,2022-06-15_20h05.19.811,multiplicationStroop,2021.2.3,Win32,61.32335807,,,,,right,1,0.9204,0,38,38,58,1,6,8,6 | 8,2,1.6933,1.6933,neutral,right,,,,,,stimulusFile/magnitude.xlsx,,,,,,,,,,,,,,,,,,,,,,,,,,,,,,,
,,,,,,,,,,,,,,,657,2022-06-15_20h05.19.811,multiplicationStroop,2021.2.3,Win32,61.32335807,,,,,right,1,1.1515,0,39,39,51,1,8,9,8 | 9,1,1.6933,1.6933,neutral,right,,,,,,stimulusFile/magnitude.xlsx,,,,,,,,,,,,,,,,,,,,,,,,,,,,,,,
,,,,,,,,,,,,,,,657,2022-06-15_20h05.19.811,multiplicationStroop,2021.2.3,Win32,61.32335807,,,,,left,0,0.5847,0,40,40,64,1,1,6,1 | 6,5,1.6933,1.6933,neutral,right,,,,,,stimulusFile/magnitude.xlsx,,,,,,,,,,,,,,,,,,,,,,,,,,,,,,,
,,,,,,,,,,,,,,,657,2022-06-15_20h05.19.811,multiplicationStroop,2021.2.3,Win32,61.32335807,,,,,left,1,0.4177,0,41,41,68,1,6,1,6 | 1,5,1.6933,1.6933,neutral,left,,,,,,stimulusFile/magnitude.xlsx,,,,,,,,,,,,,,,,,,,,,,,,,,,,,,,
,,,,,,,,,,,,,,,657,2022-06-15_20h05.19.811,multiplicationStroop,2021.2.3,Win32,61.32335807,,,,,right,1,0.4857,0,42,42,8,1,1,3,1 | 3,2,1.4111,1.9756,congruent,right,,,,,,stimulusFile/magnitude.xlsx,,,,,,,,,,,,,,,,,,,,,,,,,,,,,,,
,,,,,,,,,,,,,,,657,2022-06-15_20h05.19.811,multiplicationStroop,2021.2.3,Win32,61.32335807,,,,,left,1,0.4888,0,43,43,20,1,6,1,6 | 1,5,1.9756,1.4111,congruent,left,,,,,,stimulusFile/magnitude.xlsx,,,,,,,,,,,,,,,,,,,,,,,,,,,,,,,
,,,,,,,,,,,,,,,657,2022-06-15_20h05.19.811,multiplicationStroop,2021.2.3,Win32,61.32335807,,,,,left,1,0.4678,0,44,44,15,1,9,7,9 | 7,2,1.9756,1.4111,congruent,left,,,,,,stimulusFile/magnitude.xlsx,,,,,,,,,,,,,,,,,,,,,,,,,,,,,,,
,,,,,,,,,,,,,,,657,2022-06-15_20h05.19.811,multiplicationStroop,2021.2.3,Win32,61.32335807,,,,,left,0,0.6679,0,45,45,32,1,1,3,1 | 3,2,1.9756,1.4111,incongruent,right,,,,,,stimulusFile/magnitude.xlsx,,,,,,,,,,,,,,,,,,,,,,,,,,,,,,,
,,,,,,,,,,,,,,,657,2022-06-15_20h05.19.811,multiplicationStroop,2021.2.3,Win32,61.32335807,,,,,right,0,0.5209,0,46,46,39,1,9,7,9 | 7,2,1.4111,1.9756,incongruent,left,,,,,,stimulusFile/magnitude.xlsx,,,,,,,,,,,,,,,,,,,,,,,,,,,,,,,
,,,,,,,,,,,,,,,657,2022-06-15_20h05.19.811,multiplicationStroop,2021.2.3,Win32,61.32335807,,,,,left,1,0.5371,0,47,47,55,1,9,8,9 | 8,1,1.6933,1.6933,neutral,left,,,,,,stimulusFile/magnitude.xlsx,,,,,,,,,,,,,,,,,,,,,,,,,,,,,,,
,,,,,,,,,,,,,,,657,2022-06-15_20h05.19.811,multiplicationStroop,2021.2.3,Win32,61.32335807,,,,,left,0,0.8342,0,48,48,25,1,3,4,3 | 4,1,1.9756,1.4111,incongruent,right,,,,,,stimulusFile/magnitude.xlsx,,,,,,,,,,,,,,,,,,,,,,,,,,,,,,,
,,,,,,,,,,,,,,,657,2022-06-15_20h05.19.811,multiplicationStroop,2021.2.3,Win32,61.32335807,,,,,right,1,0.4507,0,49,49,11,1,7,9,7 | 9,2,1.4111,1.9756,congruent,right,,,,,,stimulusFile/magnitude.xlsx,,,,,,,,,,,,,,,,,,,,,,,,,,,,,,,
,,,,,,,,,,,,,,,657,2022-06-15_20h05.19.811,multiplicationStroop,2021.2.3,Win32,61.32335807,,,,,left,0,0.5512,0,50,50,40,1,1,6,1 | 6,5,1.9756,1.4111,incongruent,right,,,,,,stimulusFile/magnitude.xlsx,,,,,,,,,,,,,,,,,,,,,,,,,,,,,,,
,,,,,,,,,,,,,,,657,2022-06-15_20h05.19.811,multiplicationStroop,2021.2.3,Win32,61.32335807,,,,,left,0,0.5543,0,51,51,35,1,7,9,7 | 9,2,1.9756,1.4111,incongruent,right,,,,,,stimulusFile/magnitude.xlsx,,,,,,,,,,,,,,,,,,,,,,,,,,,,,,,
,,,,,,,,,,,,,,,657,2022-06-15_20h05.19.811,multiplicationStroop,2021.2.3,Win32,61.32335807,,,,,left,1,0.4883,0,52,52,12,1,3,1,3 | 1,2,1.9756,1.4111,congruent,left,,,,,,stimulusFile/magnitude.xlsx,,,,,,,,,,,,,,,,,,,,,,,,,,,,,,,
,,,,,,,,,,,,,,,657,2022-06-15_20h05.19.811,multiplicationStroop,2021.2.3,Win32,61.32335807,,,,,left,0,0.551,0,53,53,34,1,6,8,6 | 8,2,1.9756,1.4111,incongruent,right,,,,,,stimulusFile/magnitude.xlsx,,,,,,,,,,,,,,,,,,,,,,,,,,,,,,,
,,,,,,,,,,,,,,,657,2022-06-15_20h05.19.811,multiplicationStroop,2021.2.3,Win32,61.32335807,,,,,right,0,0.551,0,54,54,62,1,8,6,8 | 6,2,1.6933,1.6933,neutral,left,,,,,,stimulusFile/magnitude.xlsx,,,,,,,,,,,,,,,,,,,,,,,,,,,,,,,
,,,,,,,,,,,,,,,657,2022-06-15_20h05.19.811,multiplicationStroop,2021.2.3,Win32,61.32335807,,,,,left,0,0.4512,0,55,55,50,1,6,7,6 | 7,1,1.6933,1.6933,neutral,right,,,,,,stimulusFile/magnitude.xlsx,,,,,,,,,,,,,,,,,,,,,,,,,,,,,,,
,,,,,,,,,,,,,,,657,2022-06-15_20h05.19.811,multiplicationStroop,2021.2.3,Win32,61.32335807,,,,,left,1,0.5013,0,56,56,22,1,8,3,8 | 3,5,1.9756,1.4111,congruent,left,,,,,,stimulusFile/magnitude.xlsx,,,,,,,,,,,,,,,,,,,,,,,,,,,,,,,
,,,,,,,,,,,,,,,657,2022-06-15_20h05.19.811,multiplicationStroop,2021.2.3,Win32,61.32335807,,,,,right,1,0.5044,0,57,57,49,1,3,4,3 | 4,1,1.6933,1.6933,neutral,right,,,,,,stimulusFile/magnitude.xlsx,,,,,,,,,,,,,,,,,,,,,,,,,,,,,,,
,,,,,,,,,,,,,,,657,2022-06-15_20h05.19.811,multiplicationStroop,2021.2.3,Win32,61.32335807,,,,,left,1,0.4345,0,58,58,60,1,3,1,3 | 1,2,1.6933,1.6933,neutral,left,,,,,,stimulusFile/magnitude.xlsx,,,,,,,,,,,,,,,,,,,,,,,,,,,,,,,
,,,,,,,,,,,,,,,657,2022-06-15_20h05.19.811,multiplicationStroop,2021.2.3,Win32,61.32335807,,,,,right,0,0.5363,0,59,59,47,1,9,4,9 | 4,5,1.4111,1.9756,incongruent,left,,,,,,stimulusFile/magnitude.xlsx,,,,,,,,,,,,,,,,,,,,,,,,,,,,,,,
,,,,,,,,,,,,,,,657,2022-06-15_20h05.19.811,multiplicationStroop,2021.2.3,Win32,61.32335807,,,,,right,1,0.5029,0,60,60,17,1,2,7,2 | 7,5,1.4111,1.9756,congruent,right,,,,,,stimulusFile/magnitude.xlsx,,,,,,,,,,,,,,,,,,,,,,,,,,,,,,,
,,,,,,,,,,,,,,,657,2022-06-15_20h05.19.811,multiplicationStroop,2021.2.3,Win32,61.32335807,,,,,left,1,0.4338,0,61,61,61,1,4,2,4 | 2,2,1.6933,1.6933,neutral,left,,,,,,stimulusFile/magnitude.xlsx,,,,,,,,,,,,,,,,,,,,,,,,,,,,,,,
,,,,,,,,,,,,,,,657,2022-06-15_20h05.19.811,multiplicationStroop,2021.2.3,Win32,61.32335807,,,,,right,1,0.4569,0,62,62,9,1,2,4,2 | 4,2,1.4111,1.9756,congruent,right,,,,,,stimulusFile/magnitude.xlsx,,,,,,,,,,,,,,,,,,,,,,,,,,,,,,,
,,,,,,,,,,,,,,,657,2022-06-15_20h05.19.811,multiplicationStroop,2021.2.3,Win32,61.32335807,,,,,left,1,0.5176,0,63,63,44,1,6,1,6 | 1,5,1.4111,1.9756,incongruent,left,,,,,,stimulusFile/magnitude.xlsx,,,,,,,,,,,,,,,,,,,,,,,,,,,,,,,
,,,,,,,,,,,,,,,657,2022-06-15_20h05.19.811,multiplicationStroop,2021.2.3,Win32,61.32335807,,,,,left,1,0.518,0,64,64,5,1,4,3,4 | 3,1,1.9756,1.4111,congruent,left,,,,,,stimulusFile/magnitude.xlsx,,,,,,,,,,,,,,,,,,,,,,,,,,,,,,,
,,,,,,,,,,,,,,,657,2022-06-15_20h05.19.811,multiplicationStroop,2021.2.3,Win32,61.32335807,,,,,right,0,0.4844,0,65,65,30,1,7,6,7 | 6,1,1.4111,1.9756,incongruent,left,,,,,,stimulusFile/magnitude.xlsx,,,,,,,,,,,,,,,,,,,,,,,,,,,,,,,
,,,,,,,,,,,,,,,657,2022-06-15_20h05.19.811,multiplicationStroop,2021.2.3,Win32,61.32335807,,,,,right,1,0.4545,0,66,66,18,1,3,8,3 | 8,5,1.4111,1.9756,congruent,right,,,,,,stimulusFile/magnitude.xlsx,,,,,,,,,,,,,,,,,,,,,,,,,,,,,,,
,,,,,,,,,,,,,,,657,2022-06-15_20h05.19.811,multiplicationStroop,2021.2.3,Win32,61.32335807,,,,,right,1,0.7013,0,67,67,0,1,1,2,1 | 2,1,1.4111,1.9756,congruent,right,,,,,,stimulusFile/magnitude.xlsx,,,,,,,,,,,,,,,,,,,,,,,,,,,,,,,
,,,,,,,,,,,,,,,657,2022-06-15_20h05.19.811,multiplicationStroop,2021.2.3,Win32,61.32335807,,,,,left,0,0.5559,0,68,68,48,1,1,2,1 | 2,1,1.6933,1.6933,neutral,right,,,,,,stimulusFile/magnitude.xlsx,,,,,,,,,,,,,,,,,,,,,,,,,,,,,,,
,,,,,,,,,,,,,,,657,2022-06-15_20h05.19.811,multiplicationStroop,2021.2.3,Win32,61.32335807,,,,,left,0,0.6009,0,69,69,33,1,2,4,2 | 4,2,1.9756,1.4111,incongruent,right,,,,,,stimulusFile/magnitude.xlsx,,,,,,,,,,,,,,,,,,,,,,,,,,,,,,,
,,,,,,,,,,,,,,,657,2022-06-15_20h05.19.811,multiplicationStroop,2021.2.3,Win32,61.32335807,,,,,right,0,0.6177,0,70,70,45,1,7,2,7 | 2,5,1.4111,1.9756,incongruent,left,,,,,,stimulusFile/magnitude.xlsx,,,,,,,,,,,,,,,,,,,,,,,,,,,,,,,
,,,,,,,,,,,,,,,657,2022-06-15_20h05.19.811,multiplicationStroop,2021.2.3,Win32,61.32335807,,,,,left,1,0.4014,0,71,71,53,1,4,3,4 | 3,1,1.6933,1.6933,neutral,left,,,,,,stimulusFile/magnitude.xlsx,,,,,,,,,,,,,,,,,,,,,,,,,,,,,,,
,,,,,,,,,,,,,,,657,2022-06-15_20h05.19.811,multiplicationStroop,2021.2.3,Win32,61.32335807,,,,,,,,,,,,,,,,,,,,,0,0,0,0,1,stimulusFile/magnitude.xlsx,NUMERICALLY larger (larger coefficient).,images/numericallyLarger.png,,,,,,,,,,,,,,,,,,,,,,,,,,,,,
,,,,,,,,,,,,,,,657,2022-06-15_20h05.19.811,multiplicationStroop,2021.2.3,Win32,61.32335807,space,0.9845,space,1.1841,left,1,0.5682,0,0,0,25,1,3,4,3 | 4,1,1.9756,1.4111,incongruent,left,,,,,,stimulusFile/physical.xlsx,,,,,,,,,,,,,,,,,,,,,,,,,,,,,,,
,,,,,,,,,,,,,,,657,2022-06-15_20h05.19.811,multiplicationStroop,2021.2.3,Win32,61.32335807,,,,,left,1,0.4348,0,1,1,4,1,2,1,2 | 1,1,1.9756,1.4111,congruent,left,,,,,,stimulusFile/physical.xlsx,,,,,,,,,,,,,,,,,,,,,,,,,,,,,,,
,,,,,,,,,,,,,,,657,2022-06-15_20h05.19.811,multiplicationStroop,2021.2.3,Win32,61.32335807,,,,,right,1,0.4051,0,2,2,16,1,1,6,1 | 6,5,1.4111,1.9756,congruent,right,,,,,,stimulusFile/physical.xlsx,,,,,,,,,,,,,,,,,,,,,,,,,,,,,,,
,,,,,,,,,,,,,,,657,2022-06-15_20h05.19.811,multiplicationStroop,2021.2.3,Win32,61.32335807,,,,,right,1,0.6036,0,3,3,67,1,4,4,4 | 4,0,1.4111,1.9756,neutral,right,,,,,,stimulusFile/physical.xlsx,,,,,,,,,,,,,,,,,,,,,,,,,,,,,,,
,,,,,,,,,,,,,,,657,2022-06-15_20h05.19.811,multiplicationStroop,2021.2.3,Win32,61.32335807,,,,,right,1,0.4509,0,4,4,11,1,7,9,7 | 9,2,1.4111,1.9756,congruent,right,,,,,,stimulusFile/physical.xlsx,,,,,,,,,,,,,,,,,,,,,,,,,,,,,,,
,,,,,,,,,,,,,,,657,2022-06-15_20h05.19.811,multiplicationStroop,2021.2.3,Win32,61.32335807,,,,,left,1,0.518,0,5,5,68,1,6,6,6 | 6,0,1.9756,1.4111,neutral,left,,,,,,stimulusFile/physical.xlsx,,,,,,,,,,,,,,,,,,,,,,,,,,,,,,,
,,,,,,,,,,,,,,,657,2022-06-15_20h05.19.811,multiplicationStroop,2021.2.3,Win32,61.32335807,,,,,left,1,0.6865,0,6,6,35,1,7,9,7 | 9,2,1.9756,1.4111,incongruent,left,,,,,,stimulusFile/physical.xlsx,,,,,,,,,,,,,,,,,,,,,,,,,,,,,,,
,,,,,,,,,,,,,,,657,2022-06-15_20h05.19.811,multiplicationStroop,2021.2.3,Win32,61.32335807,,,,,right,1,0.4685,0,7,7,0,1,1,2,1 | 2,1,1.4111,1.9756,congruent,right,,,,,,stimulusFile/physical.xlsx,,,,,,,,,,,,,,,,,,,,,,,,,,,,,,,
,,,,,,,,,,,,,,,657,2022-06-15_20h05.19.811,multiplicationStroop,2021.2.3,Win32,61.32335807,,,,,right,1,0.4345,0,8,8,30,1,7,6,7 | 6,1,1.4111,1.9756,incongruent,right,,,,,,stimulusFile/physical.xlsx,,,,,,,,,,,,,,,,,,,,,,,,,,,,,,,
,,,,,,,,,,,,,,,657,2022-06-15_20h05.19.811,multiplicationStroop,2021.2.3,Win32,61.32335807,,,,,left,0,0.5001,0,9,9,46,1,8,3,8 | 3,5,1.4111,1.9756,incongruent,right,,,,,,stimulusFile/physical.xlsx,,,,,,,,,,,,,,,,,,,,,,,,,,,,,,,
,,,,,,,,,,,,,,,657,2022-06-15_20h05.19.811,multiplicationStroop,2021.2.3,Win32,61.32335807,,,,,left,1,0.6893,0,10,10,43,1,4,9,4 | 9,5,1.9756,1.4111,incongruent,left,,,,,,stimulusFile/physical.xlsx,,,,,,,,,,,,,,,,,,,,,,,,,,,,,,,
,,,,,,,,,,,,,,,657,2022-06-15_20h05.19.811,multiplicationStroop,2021.2.3,Win32,61.32335807,,,,,left,1,0.6341,0,11,11,41,1,2,7,2 | 7,5,1.9756,1.4111,incongruent,left,,,,,,stimulusFile/physical.xlsx,,,,,,,,,,,,,,,,,,,,,,,,,,,,,,,
,,,,,,,,,,,,,,,657,2022-06-15_20h05.19.811,multiplicationStroop,2021.2.3,Win32,61.32335807,,,,,left,1,0.5514,0,12,12,70,1,8,8,8 | 8,0,1.9756,1.4111,neutral,left,,,,,,stimulusFile/physical.xlsx,,,,,,,,,,,,,,,,,,,,,,,,,,,,,,,
,,,,,,,,,,,,,,,657,2022-06-15_20h05.19.811,multiplicationStroop,2021.2.3,Win32,61.32335807,,,,,right,1,0.5013,0,13,13,56,1,1,1,1 | 1,0,1.4111,1.9756,neutral,right,,,,,,stimulusFile/physical.xlsx,,,,,,,,,,,,,,,,,,,,,,,,,,,,,,,
,,,,,,,,,,,,,,,657,2022-06-15_20h05.19.811,multiplicationStroop,2021.2.3,Win32,61.32335807,,,,,right,1,0.4675,0,14,14,17,1,2,7,2 | 7,5,1.4111,1.9756,congruent,right,,,,,,stimulusFile/physical.xlsx,,,,,,,,,,,,,,,,,,,,,,,,,,,,,,,
,,,,,,,,,,,,,,,657,2022-06-15_20h05.19.811,multiplicationStroop,2021.2.3,Win32,61.32335807,,,,,right,1,0.4531,0,15,15,3,1,8,9,8 | 9,1,1.4111,1.9756,congruent,right,,,,,,stimulusFile/physical.xlsx,,,,,,,,,,,,,,,,,,,,,,,,,,,,,,,
,,,,,,,,,,,,,,,657,2022-06-15_20h05.19.811,multiplicationStroop,2021.2.3,Win32,61.32335807,,,,,left,1,0.5238,0,16,16,23,1,9,4,9 | 4,5,1.9756,1.4111,congruent,left,,,,,,stimulusFile/physical.xlsx,,,,,,,,,,,,,,,,,,,,,,,,,,,,,,,
,,,,,,,,,,,,,,,657,2022-06-15_20h05.19.811,multiplicationStroop,2021.2.3,Win32,61.32335807,,,,,right,1,0.4382,0,17,17,18,1,3,8,3 | 8,5,1.4111,1.9756,congruent,right,,,,,,stimulusFile/physical.xlsx,,,,,,,,,,,,,,,,,,,,,,,,,,,,,,,
,,,,,,,,,,,,,,,657,2022-06-15_20h05.19.811,multiplicationStroop,2021.2.3,Win32,61.32335807,,,,,left,1,0.518,0,18,18,50,1,6,6,6 | 6,0,1.9756,1.4111,neutral,left,,,,,,stimulusFile/physical.xlsx,,,,,,,,,,,,,,,,,,,,,,,,,,,,,,,
,,,,,,,,,,,,,,,657,2022-06-15_20h05.19.811,multiplicationStroop,2021.2.3,Win32,61.32335807,,,,,left,1,0.4708,0,19,19,21,1,7,2,7 | 2,5,1.9756,1.4111,congruent,left,,,,,,stimulusFile/physical.xlsx,,,,,,,,,,,,,,,,,,,,,,,,,,,,,,,
,,,,,,,,,,,,,,,657,2022-06-15_20h05.19.811,multiplicationStroop,2021.2.3,Win32,61.32335807,,,,,right,1,0.5348,0,20,20,60,1,3,3,3 | 3,0,1.4111,1.9756,neutral,right,,,,,,stimulusFile/physical.xlsx,,,,,,,,,,,,,,,,,,,,,,,,,,,,,,,
,,,,,,,,,,,,,,,657,2022-06-15_20h05.19.811,multiplicationStroop,2021.2.3,Win32,61.32335807,,,,,left,1,0.5565,0,21,21,27,1,8,9,8 | 9,1,1.9756,1.4111,incongruent,left,,,,,,stimulusFile/physical.xlsx,,,,,,,,,,,,,,,,,,,,,,,,,,,,,,,
,,,,,,,,,,,,,,,657,2022-06-15_20h05.19.811,multiplicationStroop,2021.2.3,Win32,61.32335807,,,,,right,1,0.5185,0,22,22,37,1,4,2,4 | 2,2,1.4111,1.9756,incongruent,right,,,,,,stimulusFile/physical.xlsx,,,,,,,,,,,,,,,,,,,,,,,,,,,,,,,
,,,,,,,,,,,,,,,657,2022-06-15_20h05.19.811,multiplicationStroop,2021.2.3,Win32,61.32335807,,,,,left,1,0.4,0,23,23,49,1,3,3,3 | 3,0,1.9756,1.4111,neutral,left,,,,,,stimulusFile/physical.xlsx,,,,,,,,,,,,,,,,,,,,,,,,,,,,,,,
,,,,,,,,,,,,,,,657,2022-06-15_20h05.19.811,multiplicationStroop,2021.2.3,Win32,61.32335807,,,,,right,1,0.5518,0,24,24,44,1,6,1,6 | 1,5,1.4111,1.9756,incongruent,right,,,,,,stimulusFile/physical.xlsx,,,,,,,,,,,,,,,,,,,,,,,,,,,,,,,
,,,,,,,,,,,,,,,657,2022-06-15_20h05.19.811,multiplicationStroop,2021.2.3,Win32,61.32335807,,,,,right,1,0.9349,0,25,25,39,1,9,7,9 | 7,2,1.4111,1.9756,incongruent,right,,,,,,stimulusFile/physical.xlsx,,,,,,,,,,,,,,,,,,,,,,,,,,,,,,,
,,,,,,,,,,,,,,,657,2022-06-15_20h05.19.811,multiplicationStroop,2021.2.3,Win32,61.32335807,,,,,right,1,0.7014,0,26,26,29,1,4,3,4 | 3,1,1.4111,1.9756,incongruent,right,,,,,,stimulusFile/physical.xlsx,,,,,,,,,,,,,,,,,,,,,,,,,,,,,,,
,,,,,,,,,,,,,,,657,2022-06-15_20h05.19.811,multiplicationStroop,2021.2.3,Win32,61.32335807,,,,,right,1,0.4847,0,27,27,65,1,2,2,2 | 2,0,1.4111,1.9756,neutral,right,,,,,,stimulusFile/physical.xlsx,,,,,,,,,,,,,,,,,,,,,,,,,,,,,,,
,,,,,,,,,,,,,,,657,2022-06-15_20h05.19.811,multiplicationStroop,2021.2.3,Win32,61.32335807,,,,,right,1,0.4845,0,28,28,31,1,9,8,9 | 8,1,1.4111,1.9756,incongruent,right,,,,,,stimulusFile/physical.xlsx,,,,,,,,,,,,,,,,,,,,,,,,,,,,,,,
,,,,,,,,,,,,,,,657,2022-06-15_20h05.19.811,multiplicationStroop,2021.2.3,Win32,61.32335807,,,,,left,1,0.4534,0,29,29,13,1,4,2,4 | 2,2,1.9756,1.4111,congruent,left,,,,,,stimulusFile/physical.xlsx,,,,,,,,,,,,,,,,,,,,,,,,,,,,,,,
,,,,,,,,,,,,,,,657,2022-06-15_20h05.19.811,multiplicationStroop,2021.2.3,Win32,61.32335807,,,,,right,0,0.4512,0,30,30,69,1,7,7,7 | 7,0,1.4111,1.9756,neutral,left,,,,,,stimulusFile/physical.xlsx,,,,,,,,,,,,,,,,,,,,,,,,,,,,,,,
,,,,,,,,,,,,,,,657,2022-06-15_20h05.19.811,multiplicationStroop,2021.2.3,Win32,61.32335807,,,,,left,1,0.5343,0,31,31,48,1,1,1,1 | 1,0,1.9756,1.4111,neutral,left,,,,,,stimulusFile/physical.xlsx,,,,,,,,,,,,,,,,,,,,,,,,,,,,,,,
,,,,,,,,,,,,,,,657,2022-06-15_20h05.19.811,multiplicationStroop,2021.2.3,Win32,61.32335807,,,,,right,1,0.4011,0,32,32,57,1,2,2,2 | 2,0,1.4111,1.9756,neutral,right,,,,,,stimulusFile/physical.xlsx,,,,,,,,,,,,,,,,,,,,,,,,,,,,,,,
,,,,,,,,,,,,,,,657,2022-06-15_20h05.19.811,multiplicationStroop,2021.2.3,Win32,61.32335807,,,,,left,1,0.4029,0,33,33,20,1,6,1,6 | 1,5,1.9756,1.4111,congruent,left,,,,,,stimulusFile/physical.xlsx,,,,,,,,,,,,,,,,,,,,,,,,,,,,,,,
,,,,,,,,,,,,,,,657,2022-06-15_20h05.19.811,multiplicationStroop,2021.2.3,Win32,61.32335807,,,,,left,1,0.4511,0,34,34,12,1,3,1,3 | 1,2,1.9756,1.4111,congruent,left,,,,,,stimulusFile/physical.xlsx,,,,,,,,,,,,,,,,,,,,,,,,,,,,,,,
,,,,,,,,,,,,,,,657,2022-06-15_20h05.19.811,multiplicationStroop,2021.2.3,Win32,61.32335807,,,,,left,1,0.5014,0,35,35,52,1,2,2,2 | 2,0,1.9756,1.4111,neutral,left,,,,,,stimulusFile/physical.xlsx,,,,,,,,,,,,,,,,,,,,,,,,,,,,,,,
,,,,,,,,,,,,,,,657,2022-06-15_20h05.19.811,multiplicationStroop,2021.2.3,Win32,61.32335807,,,,,left,0,0.5845,0,36,36,64,1,1,1,1 | 1,0,1.9756,1.4111,neutral,right,,,,,,stimulusFile/physical.xlsx,,,,,,,,,,,,,,,,,,,,,,,,,,,,,,,
,,,,,,,,,,,,,,,657,2022-06-15_20h05.19.811,multiplicationStroop,2021.2.3,Win32,61.32335807,,,,,right,0,0.523,0,37,37,34,1,6,8,6 | 8,2,1.9756,1.4111,incongruent,left,,,,,,stimulusFile/physical.xlsx,,,,,,,,,,,,,,,,,,,,,,,,,,,,,,,
,,,,,,,,,,,,,,,657,2022-06-15_20h05.19.811,multiplicationStroop,2021.2.3,Win32,61.32335807,,,,,left,0,0.7875,0,38,38,28,1,2,1,2 | 1,1,1.4111,1.9756,incongruent,right,,,,,,stimulusFile/physical.xlsx,,,,,,,,,,,,,,,,,,,,,,,,,,,,,,,
,,,,,,,,,,,,,,,657,2022-06-15_20h05.19.811,multiplicationStroop,2021.2.3,Win32,61.32335807,,,,,left,1,0.5011,0,39,39,5,1,4,3,4 | 3,1,1.9756,1.4111,congruent,left,,,,,,stimulusFile/physical.xlsx,,,,,,,,,,,,,,,,,,,,,,,,,,,,,,,
,,,,,,,,,,,,,,,657,2022-06-15_20h05.19.811,multiplicationStroop,2021.2.3,Win32,61.32335807,,,,,right,1,0.3851,0,40,40,10,1,6,8,6 | 8,2,1.4111,1.9756,congruent,right,,,,,,stimulusFile/physical.xlsx,,,,,,,,,,,,,,,,,,,,,,,,,,,,,,,
,,,,,,,,,,,,,,,657,2022-06-15_20h05.19.811,multiplicationStroop,2021.2.3,Win32,61.32335807,,,,,right,1,0.5011,0,41,41,8,1,1,3,1 | 3,2,1.4111,1.9756,congruent,right,,,,,,stimulusFile/physical.xlsx,,,,,,,,,,,,,,,,,,,,,,,,,,,,,,,
,,,,,,,,,,,,,,,657,2022-06-15_20h05.19.811,multiplicationStroop,2021.2.3,Win32,61.32335807,,,,,left,1,0.5177,0,42,42,7,1,9,8,9 | 8,1,1.9756,1.4111,congruent,left,,,,,,stimulusFile/physical.xlsx,,,,,,,,,,,,,,,,,,,,,,,,,,,,,,,
,,,,,,,,,,,,,,,657,2022-06-15_20h05.19.811,multiplicationStroop,2021.2.3,Win32,61.32335807,,,,,left,1,0.6671,0,43,43,26,1,6,7,6 | 7,1,1.9756,1.4111,incongruent,left,,,,,,stimulusFile/physical.xlsx,,,,,,,,,,,,,,,,,,,,,,,,,,,,,,,
,,,,,,,,,,,,,,,657,2022-06-15_20h05.19.811,multiplicationStroop,2021.2.3,Win32,61.32335807,,,,,right,1,0.4878,0,44,44,9,1,2,4,2 | 4,2,1.4111,1.9756,congruent,right,,,,,,stimulusFile/physical.xlsx,,,,,,,,,,,,,,,,,,,,,,,,,,,,,,,
,,,,,,,,,,,,,,,657,2022-06-15_20h05.19.811,multiplicationStroop,2021.2.3,Win32,61.32335807,,,,,left,1,0.3683,0,45,45,15,1,9,7,9 | 7,2,1.9756,1.4111,congruent,left,,,,,,stimulusFile/physical.xlsx,,,,,,,,,,,,,,,,,,,,,,,,,,,,,,,
,,,,,,,,,,,,,,,657,2022-06-15_20h05.19.811,multiplicationStroop,2021.2.3,Win32,61.32335807,,,,,right,1,0.3903,0,46,46,59,1,7,7,7 | 7,0,1.4111,1.9756,neutral,right,,,,,,stimulusFile/physical.xlsx,,,,,,,,,,,,,,,,,,,,,,,,,,,,,,,
,,,,,,,,,,,,,,,657,2022-06-15_20h05.19.811,multiplicationStroop,2021.2.3,Win32,61.32335807,,,,,right,1,0.7008,0,47,47,45,1,7,2,7 | 2,5,1.4111,1.9756,incongruent,right,,,,,,stimulusFile/physical.xlsx,,,,,,,,,,,,,,,,,,,,,,,,,,,,,,,
,,,,,,,,,,,,,,,657,2022-06-15_20h05.19.811,multiplicationStroop,2021.2.3,Win32,61.32335807,,,,,right,1,0.535,0,48,48,61,1,4,4,4 | 4,0,1.4111,1.9756,neutral,right,,,,,,stimulusFile/physical.xlsx,,,,,,,,,,,,,,,,,,,,,,,,,,,,,,,
,,,,,,,,,,,,,,,657,2022-06-15_20h05.19.811,multiplicationStroop,2021.2.3,Win32,61.32335807,,,,,left,1,0.4345,0,49,49,54,1,7,7,7 | 7,0,1.9756,1.4111,neutral,left,,,,,,stimulusFile/physical.xlsx,,,,,,,,,,,,,,,,,,,,,,,,,,,,,,,
,,,,,,,,,,,,,,,657,2022-06-15_20h05.19.811,multiplicationStroop,2021.2.3,Win32,61.32335807,,,,,left,1,0.5214,0,50,50,53,1,4,4,4 | 4,0,1.9756,1.4111,neutral,left,,,,,,stimulusFile/physical.xlsx,,,,,,,,,,,,,,,,,,,,,,,,,,,,,,,
,,,,,,,,,,,,,,,657,2022-06-15_20h05.19.811,multiplicationStroop,2021.2.3,Win32,61.32335807,,,,,right,0,0.4016,0,51,51,71,1,9,9,9 | 9,0,1.4111,1.9756,neutral,left,,,,,,stimulusFile/physical.xlsx,,,,,,,,,,,,,,,,,,,,,,,,,,,,,,,
,,,,,,,,,,,,,,,657,2022-06-15_20h05.19.811,multiplicationStroop,2021.2.3,Win32,61.32335807,,,,,left,0,0.3851,0,52,52,36,1,3,1,3 | 1,2,1.4111,1.9756,incongruent,right,,,,,,stimulusFile/physical.xlsx,,,,,,,,,,,,,,,,,,,,,,,,,,,,,,,
,,,,,,,,,,,,,,,657,2022-06-15_20h05.19.811,multiplicationStroop,2021.2.3,Win32,61.32335807,,,,,left,1,0.5174,0,53,53,6,1,7,6,7 | 6,1,1.9756,1.4111,congruent,left,,,,,,stimulusFile/physical.xlsx,,,,,,,,,,,,,,,,,,,,,,,,,,,,,,,
,,,,,,,,,,,,,,,657,2022-06-15_20h05.19.811,multiplicationStroop,2021.2.3,Win32,61.32335807,,,,,right,1,0.4031,0,54,54,62,1,8,8,8 | 8,0,1.4111,1.9756,neutral,right,,,,,,stimulusFile/physical.xlsx,,,,,,,,,,,,,,,,,,,,,,,,,,,,,,,
,,,,,,,,,,,,,,,657,2022-06-15_20h05.19.811,multiplicationStroop,2021.2.3,Win32,61.32335807,,,,,right,1,0.5343,0,55,55,1,1,3,4,3 | 4,1,1.4111,1.9756,congruent,right,,,,,,stimulusFile/physical.xlsx,,,,,,,,,,,,,,,,,,,,,,,,,,,,,,,
,,,,,,,,,,,,,,,657,2022-06-15_20h05.19.811,multiplicationStroop,2021.2.3,Win32,61.32335807,,,,,left,1,0.4901,0,56,56,55,1,9,9,9 | 9,0,1.9756,1.4111,neutral,left,,,,,,stimulusFile/physical.xlsx,,,,,,,,,,,,,,,,,,,,,,,,,,,,,,,
,,,,,,,,,,,,,,,657,2022-06-15_20h05.19.811,multiplicationStroop,2021.2.3,Win32,61.32335807,,,,,left,1,0.5841,0,57,57,40,1,1,6,1 | 6,5,1.9756,1.4111,incongruent,left,,,,,,stimulusFile/physical.xlsx,,,,,,,,,,,,,,,,,,,,,,,,,,,,,,,
,,,,,,,,,,,,,,,657,2022-06-15_20h05.19.811,multiplicationStroop,2021.2.3,Win32,61.32335807,,,,,left,1,0.4014,0,58,58,14,1,8,6,8 | 6,2,1.9756,1.4111,congruent,left,,,,,,stimulusFile/physical.xlsx,,,,,,,,,,,,,,,,,,,,,,,,,,,,,,,
,,,,,,,,,,,,,,,657,2022-06-15_20h05.19.811,multiplicationStroop,2021.2.3,Win32,61.32335807,,,,,right,1,0.6681,0,59,59,47,1,9,4,9 | 4,5,1.4111,1.9756,incongruent,right,,,,,,stimulusFile/physical.xlsx,,,,,,,,,,,,,,,,,,,,,,,,,,,,,,,
,,,,,,,,,,,,,,,657,2022-06-15_20h05.19.811,multiplicationStroop,2021.2.3,Win32,61.32335807,,,,,right,1,0.4721,0,60,60,38,1,8,6,8 | 6,2,1.4111,1.9756,incongruent,right,,,,,,stimulusFile/physical.xlsx,,,,,,,,,,,,,,,,,,,,,,,,,,,,,,,
,,,,,,,,,,,,,,,657,2022-06-15_20h05.19.811,multiplicationStroop,2021.2.3,Win32,61.32335807,,,,,right,1,0.5009,0,61,61,2,1,6,7,6 | 7,1,1.4111,1.9756,congruent,right,,,,,,stimulusFile/physical.xlsx,,,,,,,,,,,,,,,,,,,,,,,,,,,,,,,
,,,,,,,,,,,,,,,657,2022-06-15_20h05.19.811,multiplicationStroop,2021.2.3,Win32,61.32335807,,,,,right,1,0.5561,0,62,62,63,1,9,9,9 | 9,0,1.4111,1.9756,neutral,right,,,,,,stimulusFile/physical.xlsx,,,,,,,,,,,,,,,,,,,,,,,,,,,,,,,
,,,,,,,,,,,,,,,657,2022-06-15_20h05.19.811,multiplicationStroop,2021.2.3,Win32,61.32335807,,,,,left,0,0.4509,0,63,63,66,1,3,3,3 | 3,0,1.9756,1.4111,neutral,right,,,,,,stimulusFile/physical.xlsx,,,,,,,,,,,,,,,,,,,,,,,,,,,,,,,
,,,,,,,,,,,,,,,657,2022-06-15_20h05.19.811,multiplicationStroop,2021.2.3,Win32,61.32335807,,,,,left,1,0.5515,0,64,64,24,1,1,2,1 | 2,1,1.9756,1.4111,incongruent,left,,,,,,stimulusFile/physical.xlsx,,,,,,,,,,,,,,,,,,,,,,,,,,,,,,,
,,,,,,,,,,,,,,,657,2022-06-15_20h05.19.811,multiplicationStroop,2021.2.3,Win32,61.32335807,,,,,right,1,0.5011,0,65,65,58,1,6,6,6 | 6,0,1.4111,1.9756,neutral,right,,,,,,stimulusFile/physical.xlsx,,,,,,,,,,,,,,,,,,,,,,,,,,,,,,,
,,,,,,,,,,,,,,,657,2022-06-15_20h05.19.811,multiplicationStroop,2021.2.3,Win32,61.32335807,,,,,left,1,0.5848,0,66,66,33,1,2,4,2 | 4,2,1.9756,1.4111,incongruent,left,,,,,,stimulusFile/physical.xlsx,,,,,,,,,,,,,,,,,,,,,,,,,,,,,,,
,,,,,,,,,,,,,,,657,2022-06-15_20h05.19.811,multiplicationStroop,2021.2.3,Win32,61.32335807,,,,,left,1,0.6178,0,67,67,42,1,3,8,3 | 8,5,1.9756,1.4111,incongruent,left,,,,,,stimulusFile/physical.xlsx,,,,,,,,,,,,,,,,,,,,,,,,,,,,,,,
,,,,,,,,,,,,,,,657,2022-06-15_20h05.19.811,multiplicationStroop,2021.2.3,Win32,61.32335807,,,,,right,1,0.4179,0,68,68,19,1,4,9,4 | 9,5,1.4111,1.9756,congruent,right,,,,,,stimulusFile/physical.xlsx,,,,,,,,,,,,,,,,,,,,,,,,,,,,,,,
,,,,,,,,,,,,,,,657,2022-06-15_20h05.19.811,multiplicationStroop,2021.2.3,Win32,61.32335807,,,,,left,1,0.5178,0,69,69,22,1,8,3,8 | 3,5,1.9756,1.4111,congruent,left,,,,,,stimulusFile/physical.xlsx,,,,,,,,,,,,,,,,,,,,,,,,,,,,,,,
,,,,,,,,,,,,,,,657,2022-06-15_20h05.19.811,multiplicationStroop,2021.2.3,Win32,61.32335807,,,,,left,1,0.7061,0,70,70,51,1,8,8,8 | 8,0,1.9756,1.4111,neutral,left,,,,,,stimulusFile/physical.xlsx,,,,,,,,,,,,,,,,,,,,,,,,,,,,,,,
,,,,,,,,,,,,,,,657,2022-06-15_20h05.19.811,multiplicationStroop,2021.2.3,Win32,61.32335807,,,,,left,1,0.5174,0,71,71,32,1,1,3,1 | 3,2,1.9756,1.4111,incongruent,left,,,,,,stimulusFile/physical.xlsx,,,,,,,,,,,,,,,,,,,,,,,,,,,,,,,
,,,,,,,,,,,,,,,657,2022-06-15_20h05.19.811,multiplicationStroop,2021.2.3,Win32,61.32335807,,,,,,,,,,,,,,,,,,,,,0,1,1,1,1,stimulusFile/physical.xlsx,PHYSICALLY larger (larger font size).,images/physicallyLarger.png,,,,,,,,,,,,,,,,,,,,,,,,,,,,,
,,,,,,,,,,,,,,,657,2022-06-15_20h05.19.811,multiplicationStroop,2021.2.3,Win32,61.32335807,,,,,,,,,,,,,,,,,,,,,,,,,,,,,space,1.7003,space,2.1284,25,3.336,1,0,0,0,31,1,5,×,5,5 × 5,neutral,tie,2,1,25,,,,,,,,
,,,,,,,,,,,,,,,657,2022-06-15_20h05.19.811,multiplicationStroop,2021.2.3,Win32,61.32335807,,,,,,,,,,,,,,,,,,,,,,,,,,,,,,,,,16,1.7632,1,0,1,1,30,1,4,×,4,4 × 4,neutral,tie,2,1,16,,,,,,,,
,,,,,,,,,,,,,,,657,2022-06-15_20h05.19.811,multiplicationStroop,2021.2.3,Win32,61.32335807,,,,,,,,,,,,,,,,,,,,,,,,,,,,,,,,,9,1.5494,1,0,2,2,29,1,3,×,3,3 × 3,neutral,tie,2,1,9,,,,,,,,
,,,,,,,,,,,,,,,657,2022-06-15_20h05.19.811,multiplicationStroop,2021.2.3,Win32,61.32335807,,,,,,,,,,,,,,,,,,,,,,,,,,,,,,,,,40,2.7152,1,0,3,3,6,1,5,×,8,5 × 8,congruent,smallerFirst,1,2,40,,,,,,,,
,,,,,,,,,,,,,,,657,2022-06-15_20h05.19.811,multiplicationStroop,2021.2.3,Win32,61.32335807,,,,,,,,,,,,,,,,,,,,,,,,,,,,,,,,,20,2.5144,1,0,4,4,7,1,4,×,5,4 × 5,congruent,smallerFirst,1,2,20,,,,,,,,
,,,,,,,,,,,,,,,657,2022-06-15_20h05.19.811,multiplicationStroop,2021.2.3,Win32,61.32335807,,,,,,,,,,,,,,,,,,,,,,,,,,,,,,,,,24,1.9193,1,0,5,5,10,1,3,×,8,3 × 8,congruent,smallerFirst,1,2,24,,,,,,,,
,,,,,,,,,,,,,,,657,2022-06-15_20h05.19.811,multiplicationStroop,2021.2.3,Win32,61.32335807,,,,,,,,,,,,,,,,,,,,,,,,,,,,,,,,,4,1.649,1,0,6,6,28,1,2,×,2,2 × 2,neutral,tie,2,1,4,,,,,,,,
,,,,,,,,,,,,,,,657,2022-06-15_20h05.19.811,multiplicationStroop,2021.2.3,Win32,61.32335807,,,,,,,,,,,,,,,,,,,,,,,,,,,,,,,,,28,2.9138,1,0,7,7,27,1,7,×,4,7 × 4,congruent,largerFirst,2,1,28,,,,,,,,
,,,,,,,,,,,,,,,657,2022-06-15_20h05.19.811,multiplicationStroop,2021.2.3,Win32,61.32335807,,,,,,,,,,,,,,,,,,,,,,,,,,,,,,,,,32,2.4545,1,0,8,8,20,1,8,×,4,8 × 4,congruent,largerFirst,2,1,32,,,,,,,,
,,,,,,,,,,,,,,,657,2022-06-15_20h05.19.811,multiplicationStroop,2021.2.3,Win32,61.32335807,,,,,,,,,,,,,,,,,,,,,,,,,,,,,,,,,18,1.9328,1,0,9,9,22,1,9,×,2,9 × 2,congruent,largerFirst,2,1,18,,,,,,,,
,,,,,,,,,,,,,,,657,2022-06-15_20h05.19.811,multiplicationStroop,2021.2.3,Win32,61.32335807,,,,,,,,,,,,,,,,,,,,,,,,,,,,,,,,,14,1.8766,1,0,10,10,14,1,7,×,2,7 × 2,congruent,largerFirst,2,1,14,,,,,,,,
,,,,,,,,,,,,,,,657,2022-06-15_20h05.19.811,multiplicationStroop,2021.2.3,Win32,61.32335807,,,,,,,,,,,,,,,,,,,,,,,,,,,,,,,,,64,2.1145,1,0,11,11,34,1,8,×,8,8 × 8,neutral,tie,2,1,64,,,,,,,,
,,,,,,,,,,,,,,,657,2022-06-15_20h05.19.811,multiplicationStroop,2021.2.3,Win32,61.32335807,,,,,,,,,,,,,,,,,,,,,,,,,,,,,,,,,35,2.3985,1,0,12,12,1,1,5,×,7,5 × 7,congruent,smallerFirst,1,2,35,,,,,,,,
,,,,,,,,,,,,,,,657,2022-06-15_20h05.19.811,multiplicationStroop,2021.2.3,Win32,61.32335807,,,,,,,,,,,,,,,,,,,,,,,,,,,,,,,,,54,2.699,0,0,13,13,17,1,9,×,8,9 × 8,congruent,largerFirst,2,1,72,,,,,,,,
,,,,,,,,,,,,,,,657,2022-06-15_20h05.19.811,multiplicationStroop,2021.2.3,Win32,61.32335807,,,,,,,,,,,,,,,,,,,,,,,,,,,,,,,,,63,4.5701,1,0,14,14,21,1,9,×,7,9 × 7,congruent,largerFirst,2,1,63,,,,,,,,
,,,,,,,,,,,,,,,657,2022-06-15_20h05.19.811,multiplicationStroop,2021.2.3,Win32,61.32335807,,,,,,,,,,,,,,,,,,,,,,,,,,,,,,,,,8,1.7834,1,0,15,15,9,1,2,×,4,2 × 4,congruent,smallerFirst,1,2,8,,,,,,,,
,,,,,,,,,,,,,,,657,2022-06-15_20h05.19.811,multiplicationStroop,2021.2.3,Win32,61.32335807,,,,,,,,,,,,,,,,,,,,,,,,,,,,,,,,,49,3.3043,1,0,16,16,33,1,7,×,7,7 × 7,neutral,tie,2,1,49,,,,,,,,
,,,,,,,,,,,,,,,657,2022-06-15_20h05.19.811,multiplicationStroop,2021.2.3,Win32,61.32335807,,,,,,,,,,,,,,,,,,,,,,,,,,,,,,,,,21,1.532,1,0,17,17,16,1,7,×,3,7 × 3,congruent,largerFirst,2,1,21,,,,,,,,
,,,,,,,,,,,,,,,657,2022-06-15_20h05.19.811,multiplicationStroop,2021.2.3,Win32,61.32335807,,,,,,,,,,,,,,,,,,,,,,,,,,,,,,,,,81,1.5828,1,0,18,18,35,1,9,×,9,9 × 9,neutral,tie,2,1,81,,,,,,,,
,,,,,,,,,,,,,,,657,2022-06-15_20h05.19.811,multiplicationStroop,2021.2.3,Win32,61.32335807,,,,,,,,,,,,,,,,,,,,,,,,,,,,,,,,,18,2.0786,1,0,19,19,11,1,3,×,6,3 × 6,congruent,smallerFirst,1,2,18,,,,,,,,
,,,,,,,,,,,,,,,657,2022-06-15_20h05.19.811,multiplicationStroop,2021.2.3,Win32,61.32335807,,,,,,,,,,,,,,,,,,,,,,,,,,,,,,,,,36,3.165,1,0,20,20,0,1,4,×,9,4 × 9,congruent,smallerFirst,1,2,36,,,,,,,,
,,,,,,,,,,,,,,,657,2022-06-15_20h05.19.811,multiplicationStroop,2021.2.3,Win32,61.32335807,,,,,,,,,,,,,,,,,,,,,,,,,,,,,,,,,36,1.971,1,0,21,21,32,1,6,×,6,6 × 6,neutral,tie,2,1,36,,,,,,,,
,,,,,,,,,,,,,,,657,2022-06-15_20h05.19.811,multiplicationStroop,2021.2.3,Win32,61.32335807,,,,,,,,,,,,,,,,,,,,,,,,,,,,,,,,,10,1.8997,1,0,22,22,24,1,5,×,2,5 × 2,congruent,largerFirst,2,1,10,,,,,,,,
,,,,,,,,,,,,,,,657,2022-06-15_20h05.19.811,multiplicationStroop,2021.2.3,Win32,61.32335807,,,,,,,,,,,,,,,,,,,,,,,,,,,,,,,,,24,2.0483,1,0,23,23,25,1,6,×,4,6 × 4,congruent,largerFirst,2,1,24,,,,,,,,
,,,,,,,,,,,,,,,657,2022-06-15_20h05.19.811,multiplicationStroop,2021.2.3,Win32,61.32335807,,,,,,,,,,,,,,,,,,,,,,,,,,,,,,,,,35,2.2809,0,0,24,24,23,1,9,×,5,9 × 5,congruent,largerFirst,2,1,45,,,,,,,,
,,,,,,,,,,,,,,,657,2022-06-15_20h05.19.811,multiplicationStroop,2021.2.3,Win32,61.32335807,,,,,,,,,,,,,,,,,,,,,,,,,,,,,,,,,12,1.4288,1,0,25,25,2,1,3,×,4,3 × 4,congruent,smallerFirst,1,2,12,,,,,,,,
,,,,,,,,,,,,,,,657,2022-06-15_20h05.19.811,multiplicationStroop,2021.2.3,Win32,61.32335807,,,,,,,,,,,,,,,,,,,,,,,,,,,,,,,,,42,2.1473,1,0,26,26,3,1,6,×,7,6 × 7,congruent,smallerFirst,1,2,42,,,,,,,,
,,,,,,,,,,,,,,,657,2022-06-15_20h05.19.811,multiplicationStroop,2021.2.3,Win32,61.32335807,,,,,,,,,,,,,,,,,,,,,,,,,,,,,,,,,534,3.6646,0,0,27,27,12,1,6,×,9,6 × 9,congruent,smallerFirst,1,2,54,,,,,,,,
,,,,,,,,,,,,,,,657,2022-06-15_20h05.19.811,multiplicationStroop,2021.2.3,Win32,61.32335807,,,,,,,,,,,,,,,,,,,,,,,,,,,,,,,,,56,3.9206,1,0,28,28,8,1,7,×,8,7 × 8,congruent,smallerFirst,1,2,56,,,,,,,,
,,,,,,,,,,,,,,,657,2022-06-15_20h05.19.811,multiplicationStroop,2021.2.3,Win32,61.32335807,,,,,,,,,,,,,,,,,,,,,,,,,,,,,,,,,6,2.8294,1,0,29,29,13,1,2,×,3,2 × 3,congruent,smallerFirst,1,2,6,,,,,,,,
,,,,,,,,,,,,,,,657,2022-06-15_20h05.19.811,multiplicationStroop,2021.2.3,Win32,61.32335807,,,,,,,,,,,,,,,,,,,,,,,,,,,,,,,,,16,2.2211,1,0,30,30,5,1,2,×,8,2 × 8,congruent,smallerFirst,1,2,16,,,,,,,,
,,,,,,,,,,,,,,,657,2022-06-15_20h05.19.811,multiplicationStroop,2021.2.3,Win32,61.32335807,,,,,,,,,,,,,,,,,,,,,,,,,,,,,,,,,15,1.8074,1,0,31,31,4,1,3,×,5,3 × 5,congruent,smallerFirst,1,2,15,,,,,,,,
,,,,,,,,,,,,,,,657,2022-06-15_20h05.19.811,multiplicationStroop,2021.2.3,Win32,61.32335807,,,,,,,,,,,,,,,,,,,,,,,,,,,,,,,,,27,1.9156,1,0,32,32,26,1,9,×,3,9 × 3,congruent,largerFirst,2,1,27,,,,,,,,
,,,,,,,,,,,,,,,657,2022-06-15_20h05.19.811,multiplicationStroop,2021.2.3,Win32,61.32335807,,,,,,,,,,,,,,,,,,,,,,,,,,,,,,,,,12,2.7977,1,0,33,33,19,1,6,×,2,6 × 2,congruent,largerFirst,2,1,12,,,,,,,,
,,,,,,,,,,,,,,,657,2022-06-15_20h05.19.811,multiplicationStroop,2021.2.3,Win32,61.32335807,,,,,,,,,,,,,,,,,,,,,,,,,,,,,,,,,30,1.9655,1,0,34,34,15,1,6,×,5,6 × 5,congruent,largerFirst,2,1,30,,,,,,,,
,,,,,,,,,,,,,,,657,2022-06-15_20h05.19.811,multiplicationStroop,2021.2.3,Win32,61.32335807,,,,,,,,,,,,,,,,,,,,,,,,,,,,,,,,,48,4.1132,1,0,35,35,18,1,8,×,6,8 × 6,congruent,largerFirst,2,1,48,,,,,,,,
,,,,,,,,,,,,,,,657,2022-06-15_20h05.19.811,multiplicationStroop,2021.2.3,Win32,61.32335807,,,,,,,,,,,,,,,,,,,,,,,,,,,,,,,,,,,,,,,,,,,,,,,,,,0,0,0,2,1,stimulusFile/mult_blk3_congruent.xlsx,,
,,,,,,,,,,,,,,,657,2022-06-15_20h05.19.811,multiplicationStroop,2021.2.3,Win32,61.32335807,,,,,,,,,,,,,,,,,,,,,,,,,,,,,,,space,1.0506,72,2.2439,1,0,0,0,3,1,8,×,9,8 × 9,congruent,smallerFirst,1,2,72,,,,,,,,
,,,,,,,,,,,,,,,657,2022-06-15_20h05.19.811,multiplicationStroop,2021.2.3,Win32,61.32335807,,,,,,,,,,,,,,,,,,,,,,,,,,,,,,,,,36,2.4822,1,0,1,1,14,1,9,×,4,9 × 4,congruent,largerFirst,2,1,36,,,,,,,,
,,,,,,,,,,,,,,,657,2022-06-15_20h05.19.811,multiplicationStroop,2021.2.3,Win32,61.32335807,,,,,,,,,,,,,,,,,,,,,,,,,,,,,,,,,18,1.7661,1,0,2,2,25,1,6,×,3,6 × 3,congruent,largerFirst,2,1,18,,,,,,,,
,,,,,,,,,,,,,,,657,2022-06-15_20h05.19.811,multiplicationStroop,2021.2.3,Win32,61.32335807,,,,,,,,,,,,,,,,,,,,,,,,,,,,,,,,,36,2.3493,1,0,3,3,32,1,6,×,6,6 × 6,neutral,tie,1,2,36,,,,,,,,
,,,,,,,,,,,,,,,657,2022-06-15_20h05.19.811,multiplicationStroop,2021.2.3,Win32,61.32335807,,,,,,,,,,,,,,,,,,,,,,,,,,,,,,,,,16,1.6823,1,0,4,4,19,1,8,×,2,8 × 2,congruent,largerFirst,2,1,16,,,,,,,,
,,,,,,,,,,,,,,,657,2022-06-15_20h05.19.811,multiplicationStroop,2021.2.3,Win32,61.32335807,,,,,,,,,,,,,,,,,,,,,,,,,,,,,,,,,48,2.2653,1,0,5,5,4,1,6,×,8,6 × 8,congruent,smallerFirst,1,2,48,,,,,,,,
,,,,,,,,,,,,,,,657,2022-06-15_20h05.19.811,multiplicationStroop,2021.2.3,Win32,61.32335807,,,,,,,,,,,,,,,,,,,,,,,,,,,,,,,,,40,1.7497,1,0,6,6,20,1,8,×,5,8 × 5,congruent,largerFirst,2,1,40,,,,,,,,
,,,,,,,,,,,,,,,657,2022-06-15_20h05.19.811,multiplicationStroop,2021.2.3,Win32,61.32335807,,,,,,,,,,,,,,,,,,,,,,,,,,,,,,,,,12,2.0654,1,0,7,7,16,1,4,×,3,4 × 3,congruent,largerFirst,2,1,12,,,,,,,,
,,,,,,,,,,,,,,,657,2022-06-15_20h05.19.811,multiplicationStroop,2021.2.3,Win32,61.32335807,,,,,,,,,,,,,,,,,,,,,,,,,,,,,,,,,12,1.7148,1,0,8,8,5,1,2,×,6,2 × 6,congruent,smallerFirst,1,2,12,,,,,,,,
,,,,,,,,,,,,,,,657,2022-06-15_20h05.19.811,multiplicationStroop,2021.2.3,Win32,61.32335807,,,,,,,,,,,,,,,,,,,,,,,,,,,,,,,,,18,1.7991,1,0,9,9,8,1,2,×,9,2 × 9,congruent,smallerFirst,1,2,18,,,,,,,,
,,,,,,,,,,,,,,,657,2022-06-15_20h05.19.811,multiplicationStroop,2021.2.3,Win32,61.32335807,,,,,,,,,,,,,,,,,,,,,,,,,,,,,,,,,25,1.9491,1,0,10,10,31,1,5,×,5,5 × 5,neutral,tie,1,2,25,,,,,,,,
,,,,,,,,,,,,,,,657,2022-06-15_20h05.19.811,multiplicationStroop,2021.2.3,Win32,61.32335807,,,,,,,,,,,,,,,,,,,,,,,,,,,,,,,,,6,1.8156,1,0,11,11,27,1,3,×,2,3 × 2,congruent,largerFirst,2,1,6,,,,,,,,
,,,,,,,,,,,,,,,657,2022-06-15_20h05.19.811,multiplicationStroop,2021.2.3,Win32,61.32335807,,,,,,,,,,,,,,,,,,,,,,,,,,,,,,,,,20,2.2825,1,0,12,12,21,1,5,×,4,5 × 4,congruent,largerFirst,2,1,20,,,,,,,,
,,,,,,,,,,,,,,,657,2022-06-15_20h05.19.811,multiplicationStroop,2021.2.3,Win32,61.32335807,,,,,,,,,,,,,,,,,,,,,,,,,,,,,,,,,35,2.8326,1,0,13,13,15,1,7,×,5,7 × 5,congruent,largerFirst,2,1,35,,,,,,,,
,,,,,,,,,,,,,,,657,2022-06-15_20h05.19.811,multiplicationStroop,2021.2.3,Win32,61.32335807,,,,,,,,,,,,,,,,,,,,,,,,,,,,,,,,,15,1.6227,1,0,14,14,18,1,5,×,3,5 × 3,congruent,largerFirst,2,1,15,,,,,,,,
,,,,,,,,,,,,,,,657,2022-06-15_20h05.19.811,multiplicationStroop,2021.2.3,Win32,61.32335807,,,,,,,,,,,,,,,,,,,,,,,,,,,,,,,,,28,2.2827,0,0,15,15,12,1,3,×,9,3 × 9,congruent,smallerFirst,1,2,27,,,,,,,,
,,,,,,,,,,,,,,,657,2022-06-15_20h05.19.811,multiplicationStroop,2021.2.3,Win32,61.32335807,,,,,,,,,,,,,,,,,,,,,,,,,,,,,,,,,32,2.0154,1,0,16,16,6,1,4,×,8,4 × 8,congruent,smallerFirst,1,2,32,,,,,,,,
,,,,,,,,,,,,,,,657,2022-06-15_20h05.19.811,multiplicationStroop,2021.2.3,Win32,61.32335807,,,,,,,,,,,,,,,,,,,,,,,,,,,,,,,,,4,1.6163,1,0,17,17,28,1,2,×,2,2 × 2,neutral,tie,1,2,4,,,,,,,,
,,,,,,,,,,,,,,,657,2022-06-15_20h05.19.811,multiplicationStroop,2021.2.3,Win32,61.32335807,,,,,,,,,,,,,,,,,,,,,,,,,,,,,,,,,21,1.5467,1,0,18,18,2,1,3,×,7,3 × 7,congruent,smallerFirst,1,2,21,,,,,,,,
,,,,,,,,,,,,,,,657,2022-06-15_20h05.19.811,multiplicationStroop,2021.2.3,Win32,61.32335807,,,,,,,,,,,,,,,,,,,,,,,,,,,,,,,,,56,1.9322,1,0,19,19,22,1,8,×,7,8 × 7,congruent,largerFirst,2,1,56,,,,,,,,
,,,,,,,,,,,,,,,657,2022-06-15_20h05.19.811,multiplicationStroop,2021.2.3,Win32,61.32335807,,,,,,,,,,,,,,,,,,,,,,,,,,,,,,,,,8,2.0662,1,0,20,20,23,1,4,×,2,4 × 2,congruent,largerFirst,2,1,8,,,,,,,,
,,,,,,,,,,,,,,,657,2022-06-15_20h05.19.811,multiplicationStroop,2021.2.3,Win32,61.32335807,,,,,,,,,,,,,,,,,,,,,,,,,,,,,,,,,64,1.9991,1,0,21,21,34,1,8,×,8,8 × 8,neutral,tie,1,2,64,,,,,,,,
,,,,,,,,,,,,,,,657,2022-06-15_20h05.19.811,multiplicationStroop,2021.2.3,Win32,61.32335807,,,,,,,,,,,,,,,,,,,,,,,,,,,,,,,,,24,1.865,1,0,22,22,11,1,4,×,6,4 × 6,congruent,smallerFirst,1,2,24,,,,,,,,
,,,,,,,,,,,,,,,657,2022-06-15_20h05.19.811,multiplicationStroop,2021.2.3,Win32,61.32335807,,,,,,,,,,,,,,,,,,,,,,,,,,,,,,,,,14,2.1824,1,0,23,23,0,1,2,×,7,2 × 7,congruent,smallerFirst,1,2,14,,,,,,,,
,,,,,,,,,,,,,,,657,2022-06-15_20h05.19.811,multiplicationStroop,2021.2.3,Win32,61.32335807,,,,,,,,,,,,,,,,,,,,,,,,,,,,,,,,,28,1.9321,1,0,24,24,13,1,4,×,7,4 × 7,congruent,smallerFirst,1,2,28,,,,,,,,
,,,,,,,,,,,,,,,657,2022-06-15_20h05.19.811,multiplicationStroop,2021.2.3,Win32,61.32335807,,,,,,,,,,,,,,,,,,,,,,,,,,,,,,,,,30,2.449,1,0,25,25,1,1,5,×,6,5 × 6,congruent,smallerFirst,1,2,30,,,,,,,,
,,,,,,,,,,,,,,,657,2022-06-15_20h05.19.811,multiplicationStroop,2021.2.3,Win32,61.32335807,,,,,,,,,,,,,,,,,,,,,,,,,,,,,,,,,54,2.0155,1,0,26,26,26,1,9,×,6,9 × 6,congruent,largerFirst,2,1,54,,,,,,,,
,,,,,,,,,,,,,,,657,2022-06-15_20h05.19.811,multiplicationStroop,2021.2.3,Win32,61.32335807,,,,,,,,,,,,,,,,,,,,,,,,,,,,,,,,,10,1.7835,1,0,27,27,10,1,2,×,5,2 × 5,congruent,smallerFirst,1,2,10,,,,,,,,
,,,,,,,,,,,,,,,657,2022-06-15_20h05.19.811,multiplicationStroop,2021.2.3,Win32,61.32335807,,,,,,,,,,,,,,,,,,,,,,,,,,,,,,,,,42,2.5082,1,0,28,28,17,1,7,×,6,7 × 6,congruent,largerFirst,2,1,42,,,,,,,,
,,,,,,,,,,,,,,,657,2022-06-15_20h05.19.811,multiplicationStroop,2021.2.3,Win32,61.32335807,,,,,,,,,,,,,,,,,,,,,,,,,,,,,,,,,9,1.666,1,0,29,29,29,1,3,×,3,3 × 3,neutral,tie,1,2,9,,,,,,,,
,,,,,,,,,,,,,,,657,2022-06-15_20h05.19.811,multiplicationStroop,2021.2.3,Win32,61.32335807,,,,,,,,,,,,,,,,,,,,,,,,,,,,,,,,,45,1.848,1,0,30,30,9,1,5,×,9,5 × 9,congruent,smallerFirst,1,2,45,,,,,,,,
,,,,,,,,,,,,,,,657,2022-06-15_20h05.19.811,multiplicationStroop,2021.2.3,Win32,61.32335807,,,,,,,,,,,,,,,,,,,,,,,,,,,,,,,,,63,2.6156,1,0,31,31,7,1,7,×,9,7 × 9,congruent,smallerFirst,1,2,63,,,,,,,,
,,,,,,,,,,,,,,,657,2022-06-15_20h05.19.811,multiplicationStroop,2021.2.3,Win32,61.32335807,,,,,,,,,,,,,,,,,,,,,,,,,,,,,,,,,16,1.9994,1,0,32,32,30,1,4,×,4,4 × 4,neutral,tie,1,2,16,,,,,,,,
,,,,,,,,,,,,,,,657,2022-06-15_20h05.19.811,multiplicationStroop,2021.2.3,Win32,61.32335807,,,,,,,,,,,,,,,,,,,,,,,,,,,,,,,,,24,7.148,1,0,33,33,24,1,8,×,3,8 × 3,congruent,largerFirst,2,1,24,,,,,,,,
,,,,,,,,,,,,,,,657,2022-06-15_20h05.19.811,multiplicationStroop,2021.2.3,Win32,61.32335807,,,,,,,,,,,,,,,,,,,,,,,,,,,,,,,,,49,2.035,1,0,34,34,33,1,7,×,7,7 × 7,neutral,tie,1,2,49,,,,,,,,
,,,,,,,,,,,,,,,657,2022-06-15_20h05.19.811,multiplicationStroop,2021.2.3,Win32,61.32335807,,,,,,,,,,,,,,,,,,,,,,,,,,,,,,,,,81,1.4972,1,0,35,35,35,1,9,×,9,9 × 9,neutral,tie,1,2,81,,,,,,,,
,,,,,,,,,,,,,,,657,2022-06-15_20h05.19.811,multiplicationStroop,2021.2.3,Win32,61.32335807,,,,,,,,,,,,,,,,,,,,,,,,,,,,,,,,,,,,,,,,,,,,,,,,,,0,1,1,3,1,stimulusFile/mult_blk4_congruent.xlsx,,
,,,,,,,,,,,,,,,657,2022-06-15_20h05.19.811,multiplicationStroop,2021.2.3,Win32,61.32335807,,,,,,,,,,,,,,,,,,,,,,,,,,,,,,,space,1.081,35,2.3276,1,0,0,0,12,1,5,×,7,5 × 7,incongruent,smallerFirst,2,1,35,,,,,,,,
,,,,,,,,,,,,,,,657,2022-06-15_20h05.19.811,multiplicationStroop,2021.2.3,Win32,61.32335807,,,,,,,,,,,,,,,,,,,,,,,,,,,,,,,,,40,2.1319,1,0,1,1,13,1,5,×,8,5 × 8,incongruent,smallerFirst,2,1,40,,,,,,,,
,,,,,,,,,,,,,,,657,2022-06-15_20h05.19.811,multiplicationStroop,2021.2.3,Win32,61.32335807,,,,,,,,,,,,,,,,,,,,,,,,,,,,,,,,,8,1.7661,1,0,2,2,24,1,4,×,2,4 × 2,incongruent,largerFirst,1,2,8,,,,,,,,
,,,,,,,,,,,,,,,657,2022-06-15_20h05.19.811,multiplicationStroop,2021.2.3,Win32,61.32335807,,,,,,,,,,,,,,,,,,,,,,,,,,,,,,,,,9,1.5326,1,0,3,3,29,1,3,×,3,3 × 3,incongruent,tie,1,2,9,,,,,,,,
,,,,,,,,,,,,,,,657,2022-06-15_20h05.19.811,multiplicationStroop,2021.2.3,Win32,61.32335807,,,,,,,,,,,,,,,,,,,,,,,,,,,,,,,,,24,2.2316,1,0,4,4,20,1,6,×,4,6 × 4,incongruent,largerFirst,1,2,24,,,,,,,,
,,,,,,,,,,,,,,,657,2022-06-15_20h05.19.811,multiplicationStroop,2021.2.3,Win32,61.32335807,,,,,,,,,,,,,,,,,,,,,,,,,,,,,,,,,18,2.4326,1,0,5,5,8,1,3,×,6,3 × 6,incongruent,smallerFirst,2,1,18,,,,,,,,
,,,,,,,,,,,,,,,657,2022-06-15_20h05.19.811,multiplicationStroop,2021.2.3,Win32,61.32335807,,,,,,,,,,,,,,,,,,,,,,,,,,,,,,,,,14,1.7934,1,0,6,6,4,1,2,×,7,2 × 7,incongruent,smallerFirst,2,1,14,,,,,,,,
,,,,,,,,,,,,,,,657,2022-06-15_20h05.19.811,multiplicationStroop,2021.2.3,Win32,61.32335807,,,,,,,,,,,,,,,,,,,,,,,,,,,,,,,,,81,1.4995,1,0,7,7,35,1,9,×,9,9 × 9,incongruent,tie,1,2,81,,,,,,,,
,,,,,,,,,,,,,,,657,2022-06-15_20h05.19.811,multiplicationStroop,2021.2.3,Win32,61.32335807,,,,,,,,,,,,,,,,,,,,,,,,,,,,,,,,,16,2.5654,1,0,8,8,23,1,8,×,2,8 × 2,incongruent,largerFirst,1,2,16,,,,,,,,
,,,,,,,,,,,,,,,657,2022-06-15_20h05.19.811,multiplicationStroop,2021.2.3,Win32,61.32335807,,,,,,,,,,,,,,,,,,,,,,,,,,,,,,,,,21,2.1552,1,0,9,9,26,1,7,×,3,7 × 3,incongruent,largerFirst,1,2,21,,,,,,,,
,,,,,,,,,,,,,,,657,2022-06-15_20h05.19.811,multiplicationStroop,2021.2.3,Win32,61.32335807,,,,,,,,,,,,,,,,,,,,,,,,,,,,,,,,,12,1.8987,1,0,10,10,19,1,6,×,2,6 × 2,incongruent,largerFirst,1,2,12,,,,,,,,
,,,,,,,,,,,,,,,657,2022-06-15_20h05.19.811,multiplicationStroop,2021.2.3,Win32,61.32335807,,,,,,,,,,,,,,,,,,,,,,,,,,,,,,,,,10,1.4315,1,0,11,11,21,1,5,×,2,5 × 2,incongruent,largerFirst,1,2,10,,,,,,,,
,,,,,,,,,,,,,,,657,2022-06-15_20h05.19.811,multiplicationStroop,2021.2.3,Win32,61.32335807,,,,,,,,,,,,,,,,,,,,,,,,,,,,,,,,,64,1.9979,1,0,12,12,34,1,8,×,8,8 × 8,incongruent,tie,1,2,64,,,,,,,,
,,,,,,,,,,,,,,,657,2022-06-15_20h05.19.811,multiplicationStroop,2021.2.3,Win32,61.32335807,,,,,,,,,,,,,,,,,,,,,,,,,,,,,,,,,27,2.9471,1,0,13,13,18,1,9,×,3,9 × 3,incongruent,largerFirst,1,2,27,,,,,,,,
,,,,,,,,,,,,,,,657,2022-06-15_20h05.19.811,multiplicationStroop,2021.2.3,Win32,61.32335807,,,,,,,,,,,,,,,,,,,,,,,,,,,,,,,,,56,1.7989,1,0,14,14,14,1,8,×,7,8 × 7,incongruent,largerFirst,1,2,56,,,,,,,,
,,,,,,,,,,,,,,,657,2022-06-15_20h05.19.811,multiplicationStroop,2021.2.3,Win32,61.32335807,,,,,,,,,,,,,,,,,,,,,,,,,,,,,,,,,24,2.0972,1,0,15,15,9,1,3,×,8,3 × 8,incongruent,smallerFirst,2,1,24,,,,,,,,
,,,,,,,,,,,,,,,657,2022-06-15_20h05.19.811,multiplicationStroop,2021.2.3,Win32,61.32335807,,,,,,,,,,,,,,,,,,,,,,,,,,,,,,,,,36,2.6143,1,0,16,16,32,1,6,×,6,6 × 6,incongruent,tie,1,2,36,,,,,,,,
,,,,,,,,,,,,,,,657,2022-06-15_20h05.19.811,multiplicationStroop,2021.2.3,Win32,61.32335807,,,,,,,,,,,,,,,,,,,,,,,,,,,,,,,,,12,1.5976,1,0,17,17,5,1,3,×,4,3 × 4,incongruent,smallerFirst,2,1,12,,,,,,,,
,,,,,,,,,,,,,,,657,2022-06-15_20h05.19.811,multiplicationStroop,2021.2.3,Win32,61.32335807,,,,,,,,,,,,,,,,,,,,,,,,,,,,,,,,,30,1.7983,1,0,18,18,25,1,6,×,5,6 × 5,incongruent,largerFirst,1,2,30,,,,,,,,
,,,,,,,,,,,,,,,657,2022-06-15_20h05.19.811,multiplicationStroop,2021.2.3,Win32,61.32335807,,,,,,,,,,,,,,,,,,,,,,,,,,,,,,,,,49,2.1149,1,0,19,19,33,1,7,×,7,7 × 7,incongruent,tie,1,2,49,,,,,,,,
,,,,,,,,,,,,,,,657,2022-06-15_20h05.19.811,multiplicationStroop,2021.2.3,Win32,61.32335807,,,,,,,,,,,,,,,,,,,,,,,,,,,,,,,,,54,2.1816,1,0,20,20,6,1,6,×,9,6 × 9,incongruent,smallerFirst,2,1,54,,,,,,,,
,,,,,,,,,,,,,,,657,2022-06-15_20h05.19.811,multiplicationStroop,2021.2.3,Win32,61.32335807,,,,,,,,,,,,,,,,,,,,,,,,,,,,,,,,,32,2.9141,1,0,21,21,7,1,4,×,8,4 × 8,incongruent,smallerFirst,2,1,32,,,,,,,,
,,,,,,,,,,,,,,,657,2022-06-15_20h05.19.811,multiplicationStroop,2021.2.3,Win32,61.32335807,,,,,,,,,,,,,,,,,,,,,,,,,,,,,,,,,63,2.3149,1,0,22,22,3,1,7,×,9,7 × 9,incongruent,smallerFirst,2,1,63,,,,,,,,
,,,,,,,,,,,,,,,657,2022-06-15_20h05.19.811,multiplicationStroop,2021.2.3,Win32,61.32335807,,,,,,,,,,,,,,,,,,,,,,,,,,,,,,,,,28,3.297,1,0,23,23,16,1,7,×,4,7 × 4,incongruent,largerFirst,1,2,28,,,,,,,,
,,,,,,,,,,,,,,,657,2022-06-15_20h05.19.811,multiplicationStroop,2021.2.3,Win32,61.32335807,,,,,,,,,,,,,,,,,,,,,,,,,,,,,,,,,36,2.4156,1,0,24,24,15,1,9,×,4,9 × 4,incongruent,largerFirst,1,2,36,,,,,,,,
,,,,,,,,,,,,,,,657,2022-06-15_20h05.19.811,multiplicationStroop,2021.2.3,Win32,61.32335807,,,,,,,,,,,,,,,,,,,,,,,,,,,,,,,,,42,2.6851,1,0,25,25,17,1,7,×,6,7 × 6,incongruent,largerFirst,1,2,42,,,,,,,,
,,,,,,,,,,,,,,,657,2022-06-15_20h05.19.811,multiplicationStroop,2021.2.3,Win32,61.32335807,,,,,,,,,,,,,,,,,,,,,,,,,,,,,,,,,45,2.248,1,0,26,26,22,1,9,×,5,9 × 5,incongruent,largerFirst,1,2,45,,,,,,,,
,,,,,,,,,,,,,,,657,2022-06-15_20h05.19.811,multiplicationStroop,2021.2.3,Win32,61.32335807,,,,,,,,,,,,,,,,,,,,,,,,,,,,,,,,,16,1.9978,1,0,27,27,30,1,4,×,4,4 × 4,incongruent,tie,1,2,16,,,,,,,,
,,,,,,,,,,,,,,,657,2022-06-15_20h05.19.811,multiplicationStroop,2021.2.3,Win32,61.32335807,,,,,,,,,,,,,,,,,,,,,,,,,,,,,,,,,6,3.1986,1,0,28,28,11,1,2,×,3,2 × 3,incongruent,smallerFirst,2,1,6,,,,,,,,
,,,,,,,,,,,,,,,657,2022-06-15_20h05.19.811,multiplicationStroop,2021.2.3,Win32,61.32335807,,,,,,,,,,,,,,,,,,,,,,,,,,,,,,,,,72,2.9858,1,0,29,29,0,1,8,×,9,8 × 9,incongruent,smallerFirst,2,1,72,,,,,,,,
,,,,,,,,,,,,,,,657,2022-06-15_20h05.19.811,multiplicationStroop,2021.2.3,Win32,61.32335807,,,,,,,,,,,,,,,,,,,,,,,,,,,,,,,,,20,1.6307,1,0,30,30,27,1,5,×,4,5 × 4,incongruent,largerFirst,1,2,20,,,,,,,,
,,,,,,,,,,,,,,,657,2022-06-15_20h05.19.811,multiplicationStroop,2021.2.3,Win32,61.32335807,,,,,,,,,,,,,,,,,,,,,,,,,,,,,,,,,18,1.8829,1,0,31,31,2,1,2,×,9,2 × 9,incongruent,smallerFirst,2,1,18,,,,,,,,
,,,,,,,,,,,,,,,657,2022-06-15_20h05.19.811,multiplicationStroop,2021.2.3,Win32,61.32335807,,,,,,,,,,,,,,,,,,,,,,,,,,,,,,,,,25,1.8146,1,0,32,32,31,1,5,×,5,5 × 5,incongruent,tie,1,2,25,,,,,,,,
,,,,,,,,,,,,,,,657,2022-06-15_20h05.19.811,multiplicationStroop,2021.2.3,Win32,61.32335807,,,,,,,,,,,,,,,,,,,,,,,,,,,,,,,,,15,2.1152,1,0,33,33,10,1,3,×,5,3 × 5,incongruent,smallerFirst,2,1,15,,,,,,,,
,,,,,,,,,,,,,,,657,2022-06-15_20h05.19.811,multiplicationStroop,2021.2.3,Win32,61.32335807,,,,,,,,,,,,,,,,,,,,,,,,,,,,,,,,,48,2.7816,1,0,34,34,1,1,6,×,8,6 × 8,incongruent,smallerFirst,2,1,48,,,,,,,,
,,,,,,,,,,,,,,,657,2022-06-15_20h05.19.811,multiplicationStroop,2021.2.3,Win32,61.32335807,,,,,,,,,,,,,,,,,,,,,,,,,,,,,,,,,4,1.5493,1,0,35,35,28,1,2,×,2,2 × 2,incongruent,tie,1,2,4,,,,,,,,
,,,,,,,,,,,,,,,657,2022-06-15_20h05.19.811,multiplicationStroop,2021.2.3,Win32,61.32335807,,,,,,,,,,,,,,,,,,,,,,,,,,,,,,,,,,,,,,,,,,,,,,,,,,0,2,2,5,1,stimulusFile/mult_blk6_INcongruent.xlsx,,
,,,,,,,,,,,,,,,657,2022-06-15_20h05.19.811,multiplicationStroop,2021.2.3,Win32,61.32335807,,,,,,,,,,,,,,,,,,,,,,,,,,,,,,,space,0.8515,32,2.7504,1,0,0,0,23,1,8,×,4,8 × 4,neutral,largerFirst,1.5,1.5,32,,,,,,,,
,,,,,,,,,,,,,,,657,2022-06-15_20h05.19.811,multiplicationStroop,2021.2.3,Win32,61.32335807,,,,,,,,,,,,,,,,,,,,,,,,,,,,,,,,,42,5.1545,1,0,1,1,6,1,6,×,7,6 × 7,neutral,smallerFirst,1.5,1.5,42,,,,,,,,
,,,,,,,,,,,,,,,657,2022-06-15_20h05.19.811,multiplicationStroop,2021.2.3,Win32,61.32335807,,,,,,,,,,,,,,,,,,,,,,,,,,,,,,,,,54,5.9355,1,0,2,2,7,1,6,×,9,6 × 9,neutral,smallerFirst,1.5,1.5,54,,,,,,,,
,,,,,,,,,,,,,,,657,2022-06-15_20h05.19.811,multiplicationStroop,2021.2.3,Win32,61.32335807,,,,,,,,,,,,,,,,,,,,,,,,,,,,,,,,,20,1.89,1,0,3,3,20,1,5,×,4,5 × 4,neutral,largerFirst,1.5,1.5,20,,,,,,,,
,,,,,,,,,,,,,,,657,2022-06-15_20h05.19.811,multiplicationStroop,2021.2.3,Win32,61.32335807,,,,,,,,,,,,,,,,,,,,,,,,,,,,,,,,,81,1.7289,1,0,4,4,35,1,9,×,9,9 × 9,neutral,tie,1.5,1.5,81,,,,,,,,
,,,,,,,,,,,,,,,657,2022-06-15_20h05.19.811,multiplicationStroop,2021.2.3,Win32,61.32335807,,,,,,,,,,,,,,,,,,,,,,,,,,,,,,,,,6,1.8165,1,0,5,5,26,1,3,×,2,3 × 2,neutral,largerFirst,1.5,1.5,6,,,,,,,,
,,,,,,,,,,,,,,,657,2022-06-15_20h05.19.811,multiplicationStroop,2021.2.3,Win32,61.32335807,,,,,,,,,,,,,,,,,,,,,,,,,,,,,,,,,24,2.0955,1,0,6,6,2,1,4,×,6,4 × 6,neutral,smallerFirst,1.5,1.5,24,,,,,,,,
,,,,,,,,,,,,,,,657,2022-06-15_20h05.19.811,multiplicationStroop,2021.2.3,Win32,61.32335807,,,,,,,,,,,,,,,,,,,,,,,,,,,,,,,,,10,1.5269,1,0,7,7,4,1,2,×,5,2 × 5,neutral,smallerFirst,1.5,1.5,10,,,,,,,,
,,,,,,,,,,,,,,,657,2022-06-15_20h05.19.811,multiplicationStroop,2021.2.3,Win32,61.32335807,,,,,,,,,,,,,,,,,,,,,,,,,,,,,,,,,15,1.7219,0,0,8,8,22,1,8,×,3,8 × 3,neutral,largerFirst,1.5,1.5,24,,,,,,,,
,,,,,,,,,,,,,,,657,2022-06-15_20h05.19.811,multiplicationStroop,2021.2.3,Win32,61.32335807,,,,,,,,,,,,,,,,,,,,,,,,,,,,,,,,,32,2.399,0,0,9,9,27,1,9,×,4,9 × 4,neutral,largerFirst,1.5,1.5,36,,,,,,,,
,,,,,,,,,,,,,,,657,2022-06-15_20h05.19.811,multiplicationStroop,2021.2.3,Win32,61.32335807,,,,,,,,,,,,,,,,,,,,,,,,,,,,,,,,,56,2.1328,1,0,10,10,9,1,7,×,8,7 × 8,neutral,smallerFirst,1.5,1.5,56,,,,,,,,
,,,,,,,,,,,,,,,657,2022-06-15_20h05.19.811,multiplicationStroop,2021.2.3,Win32,61.32335807,,,,,,,,,,,,,,,,,,,,,,,,,,,,,,,,,28,2.3317,1,0,11,11,17,1,7,×,4,7 × 4,neutral,largerFirst,1.5,1.5,28,,,,,,,,
,,,,,,,,,,,,,,,657,2022-06-15_20h05.19.811,multiplicationStroop,2021.2.3,Win32,61.32335807,,,,,,,,,,,,,,,,,,,,,,,,,,,,,,,,,36,1.9321,1,0,12,12,32,1,6,×,6,6 × 6,neutral,tie,1.5,1.5,36,,,,,,,,
,,,,,,,,,,,,,,,657,2022-06-15_20h05.19.811,multiplicationStroop,2021.2.3,Win32,61.32335807,,,,,,,,,,,,,,,,,,,,,,,,,,,,,,,,,27,2.1818,1,0,13,13,14,1,9,×,3,9 × 3,neutral,largerFirst,1.5,1.5,27,,,,,,,,
,,,,,,,,,,,,,,,657,2022-06-15_20h05.19.811,multiplicationStroop,2021.2.3,Win32,61.32335807,,,,,,,,,,,,,,,,,,,,,,,,,,,,,,,,,12,1.4657,1,0,14,14,21,1,4,×,3,4 × 3,neutral,largerFirst,1.5,1.5,12,,,,,,,,
,,,,,,,,,,,,,,,657,2022-06-15_20h05.19.811,multiplicationStroop,2021.2.3,Win32,61.32335807,,,,,,,,,,,,,,,,,,,,,,,,,,,,,,,,,16,1.8325,1,0,15,15,30,1,4,×,4,4 × 4,neutral,tie,1.5,1.5,16,,,,,,,,
,,,,,,,,,,,,,,,657,2022-06-15_20h05.19.811,multiplicationStroop,2021.2.3,Win32,61.32335807,,,,,,,,,,,,,,,,,,,,,,,,,,,,,,,,,16,1.9985,1,0,16,16,13,1,2,×,8,2 × 8,neutral,smallerFirst,1.5,1.5,16,,,,,,,,
,,,,,,,,,,,,,,,657,2022-06-15_20h05.19.811,multiplicationStroop,2021.2.3,Win32,61.32335807,,,,,,,,,,,,,,,,,,,,,,,,,,,,,,,,,15,1.6975,1,0,17,17,5,1,3,×,5,3 × 5,neutral,smallerFirst,1.5,1.5,15,,,,,,,,
,,,,,,,,,,,,,,,657,2022-06-15_20h05.19.811,multiplicationStroop,2021.2.3,Win32,61.32335807,,,,,,,,,,,,,,,,,,,,,,,,,,,,,,,,,18,2.033,1,0,18,18,0,1,3,×,6,3 × 6,neutral,smallerFirst,1.5,1.5,18,,,,,,,,
,,,,,,,,,,,,,,,657,2022-06-15_20h05.19.811,multiplicationStroop,2021.2.3,Win32,61.32335807,,,,,,,,,,,,,,,,,,,,,,,,,,,,,,,,,18,1.7153,1,0,19,19,18,1,9,×,2,9 × 2,neutral,largerFirst,1.5,1.5,18,,,,,,,,
,,,,,,,,,,,,,,,657,2022-06-15_20h05.19.811,multiplicationStroop,2021.2.3,Win32,61.32335807,,,,,,,,,,,,,,,,,,,,,,,,,,,,,,,,,12,1.9144,1,0,20,20,25,1,6,×,2,6 × 2,neutral,largerFirst,1.5,1.5,12,,,,,,,,
,,,,,,,,,,,,,,,657,2022-06-15_20h05.19.811,multiplicationStroop,2021.2.3,Win32,61.32335807,,,,,,,,,,,,,,,,,,,,,,,,,,,,,,,,,40,2.1325,1,0,21,21,24,1,8,×,5,8 × 5,neutral,largerFirst,1.5,1.5,40,,,,,,,,
,,,,,,,,,,,,,,,657,2022-06-15_20h05.19.811,multiplicationStroop,2021.2.3,Win32,61.32335807,,,,,,,,,,,,,,,,,,,,,,,,,,,,,,,,,48,2.4976,1,0,22,22,15,1,8,×,6,8 × 6,neutral,largerFirst,1.5,1.5,48,,,,,,,,
,,,,,,,,,,,,,,,657,2022-06-15_20h05.19.811,multiplicationStroop,2021.2.3,Win32,61.32335807,,,,,,,,,,,,,,,,,,,,,,,,,,,,,,,,,9,1.4323,1,0,23,23,29,1,3,×,3,3 × 3,neutral,tie,1.5,1.5,9,,,,,,,,
,,,,,,,,,,,,,,,657,2022-06-15_20h05.19.811,multiplicationStroop,2021.2.3,Win32,61.32335807,,,,,,,,,,,,,,,,,,,,,,,,,,,,,,,,,35,2.1149,1,0,24,24,1,1,5,×,7,5 × 7,neutral,smallerFirst,1.5,1.5,35,,,,,,,,
,,,,,,,,,,,,,,,657,2022-06-15_20h05.19.811,multiplicationStroop,2021.2.3,Win32,61.32335807,,,,,,,,,,,,,,,,,,,,,,,,,,,,,,,,,8,1.6156,1,0,25,25,3,1,2,×,4,2 × 4,neutral,smallerFirst,1.5,1.5,8,,,,,,,,
,,,,,,,,,,,,,,,657,2022-06-15_20h05.19.811,multiplicationStroop,2021.2.3,Win32,61.32335807,,,,,,,,,,,,,,,,,,,,,,,,,,,,,,,,,72,2.8986,1,0,26,26,11,1,8,×,9,8 × 9,neutral,smallerFirst,1.5,1.5,72,,,,,,,,
,,,,,,,,,,,,,,,657,2022-06-15_20h05.19.811,multiplicationStroop,2021.2.3,Win32,61.32335807,,,,,,,,,,,,,,,,,,,,,,,,,,,,,,,,,49,2.9146,1,0,27,27,33,1,7,×,7,7 × 7,neutral,tie,1.5,1.5,49,,,,,,,,
,,,,,,,,,,,,,,,657,2022-06-15_20h05.19.811,multiplicationStroop,2021.2.3,Win32,61.32335807,,,,,,,,,,,,,,,,,,,,,,,,,,,,,,,,,45,1.9148,1,0,28,28,10,1,5,×,9,5 × 9,neutral,smallerFirst,1.5,1.5,45,,,,,,,,
,,,,,,,,,,,,,,,657,2022-06-15_20h05.19.811,multiplicationStroop,2021.2.3,Win32,61.32335807,,,,,,,,,,,,,,,,,,,,,,,,,,,,,,,,,21,1.4817,1,0,29,29,8,1,3,×,7,3 × 7,neutral,smallerFirst,1.5,1.5,21,,,,,,,,
,,,,,,,,,,,,,,,657,2022-06-15_20h05.19.811,multiplicationStroop,2021.2.3,Win32,61.32335807,,,,,,,,,,,,,,,,,,,,,,,,,,,,,,,,,14,2.1486,1,0,30,30,16,1,7,×,2,7 × 2,neutral,largerFirst,1.5,1.5,14,,,,,,,,
,,,,,,,,,,,,,,,657,2022-06-15_20h05.19.811,multiplicationStroop,2021.2.3,Win32,61.32335807,,,,,,,,,,,,,,,,,,,,,,,,,,,,,,,,,4,1.4817,1,0,31,31,28,1,2,×,2,2 × 2,neutral,tie,1.5,1.5,4,,,,,,,,
,,,,,,,,,,,,,,,657,2022-06-15_20h05.19.811,multiplicationStroop,2021.2.3,Win32,61.32335807,,,,,,,,,,,,,,,,,,,,,,,,,,,,,,,,,25,2.0488,1,0,32,32,31,1,5,×,5,5 × 5,neutral,tie,1.5,1.5,25,,,,,,,,
,,,,,,,,,,,,,,,657,2022-06-15_20h05.19.811,multiplicationStroop,2021.2.3,Win32,61.32335807,,,,,,,,,,,,,,,,,,,,,,,,,,,,,,,,,30,1.9483,1,0,33,33,19,1,6,×,5,6 × 5,neutral,largerFirst,1.5,1.5,30,,,,,,,,
,,,,,,,,,,,,,,,657,2022-06-15_20h05.19.811,multiplicationStroop,2021.2.3,Win32,61.32335807,,,,,,,,,,,,,,,,,,,,,,,,,,,,,,,,,64,2.0992,1,0,34,34,34,1,8,×,8,8 × 8,neutral,tie,1.5,1.5,64,,,,,,,,
,,,,,,,,,,,,,,,657,2022-06-15_20h05.19.811,multiplicationStroop,2021.2.3,Win32,61.32335807,,,,,,,,,,,,,,,,,,,,,,,,,,,,,,,,,63,2.4331,1,0,35,35,12,1,7,×,9,7 × 9,neutral,smallerFirst,1.5,1.5,63,,,,,,,,
,,,,,,,,,,,,,,,657,2022-06-15_20h05.19.811,multiplicationStroop,2021.2.3,Win32,61.32335807,,,,,,,,,,,,,,,,,,,,,,,,,,,,,,,,,,,,,,,,,,,,,,,,,,0,3,3,1,1,stimulusFile/mult_blk2.xlsx,,
,,,,,,,,,,,,,,,657,2022-06-15_20h05.19.811,multiplicationStroop,2021.2.3,Win32,61.32335807,,,,,,,,,,,,,,,,,,,,,,,,,,,,,,,space,0.9346,36,2.6342,1,0,0,0,13,1,4,×,9,4 × 9,neutral,smallerFirst,1.5,1.5,36,,,,,,,,
,,,,,,,,,,,,,,,657,2022-06-15_20h05.19.811,multiplicationStroop,2021.2.3,Win32,61.32335807,,,,,,,,,,,,,,,,,,,,,,,,,,,,,,,,,24,1.9978,1,0,1,1,8,1,3,×,8,3 × 8,neutral,smallerFirst,1.5,1.5,24,,,,,,,,
,,,,,,,,,,,,,,,657,2022-06-15_20h05.19.811,multiplicationStroop,2021.2.3,Win32,61.32335807,,,,,,,,,,,,,,,,,,,,,,,,,,,,,,,,,27,1.983,1,0,2,2,0,1,3,×,9,3 × 9,neutral,smallerFirst,1.5,1.5,27,,,,,,,,
,,,,,,,,,,,,,,,657,2022-06-15_20h05.19.811,multiplicationStroop,2021.2.3,Win32,61.32335807,,,,,,,,,,,,,,,,,,,,,,,,,,,,,,,,,4,1.5174,1,0,3,3,28,1,2,×,2,2 × 2,neutral,tie,1.5,1.5,4,,,,,,,,
,,,,,,,,,,,,,,,657,2022-06-15_20h05.19.811,multiplicationStroop,2021.2.3,Win32,61.32335807,,,,,,,,,,,,,,,,,,,,,,,,,,,,,,,,,21,1.7452,1,0,4,4,22,1,7,×,3,7 × 3,neutral,largerFirst,1.5,1.5,21,,,,,,,,
,,,,,,,,,,,,,,,657,2022-06-15_20h05.19.811,multiplicationStroop,2021.2.3,Win32,61.32335807,,,,,,,,,,,,,,,,,,,,,,,,,,,,,,,,,18,1.881,1,0,5,5,14,1,6,×,3,6 × 3,neutral,largerFirst,1.5,1.5,18,,,,,,,,
,,,,,,,,,,,,,,,657,2022-06-15_20h05.19.811,multiplicationStroop,2021.2.3,Win32,61.32335807,,,,,,,,,,,,,,,,,,,,,,,,,,,,,,,,,20,2.0979,1,0,6,6,6,1,4,×,5,4 × 5,neutral,smallerFirst,1.5,1.5,20,,,,,,,,
,,,,,,,,,,,,,,,657,2022-06-15_20h05.19.811,multiplicationStroop,2021.2.3,Win32,61.32335807,,,,,,,,,,,,,,,,,,,,,,,,,,,,,,,,,16,3.0322,1,0,7,7,30,1,4,×,4,4 × 4,neutral,tie,1.5,1.5,16,,,,,,,,
,,,,,,,,,,,,,,,657,2022-06-15_20h05.19.811,multiplicationStroop,2021.2.3,Win32,61.32335807,,,,,,,,,,,,,,,,,,,,,,,,,,,,,,,,,54,3.0463,1,0,8,8,21,1,9,×,6,9 × 6,neutral,largerFirst,1.5,1.5,54,,,,,,,,
,,,,,,,,,,,,,,,657,2022-06-15_20h05.19.811,multiplicationStroop,2021.2.3,Win32,61.32335807,,,,,,,,,,,,,,,,,,,,,,,,,,,,,,,,,24,1.9448,1,0,9,9,16,1,6,×,4,6 × 4,neutral,largerFirst,1.5,1.5,24,,,,,,,,
,,,,,,,,,,,,,,,657,2022-06-15_20h05.19.811,multiplicationStroop,2021.2.3,Win32,61.32335807,,,,,,,,,,,,,,,,,,,,,,,,,,,,,,,,,16,2.6806,1,0,10,10,27,1,8,×,2,8 × 2,neutral,largerFirst,1.5,1.5,16,,,,,,,,
,,,,,,,,,,,,,,,657,2022-06-15_20h05.19.811,multiplicationStroop,2021.2.3,Win32,61.32335807,,,,,,,,,,,,,,,,,,,,,,,,,,,,,,,,,14,1.6821,1,0,11,11,2,1,2,×,7,2 × 7,neutral,smallerFirst,1.5,1.5,14,,,,,,,,
,,,,,,,,,,,,,,,657,2022-06-15_20h05.19.811,multiplicationStroop,2021.2.3,Win32,61.32335807,,,,,,,,,,,,,,,,,,,,,,,,,,,,,,,,,49,3.0487,1,0,12,12,33,1,7,×,7,7 × 7,neutral,tie,1.5,1.5,49,,,,,,,,
,,,,,,,,,,,,,,,657,2022-06-15_20h05.19.811,multiplicationStroop,2021.2.3,Win32,61.32335807,,,,,,,,,,,,,,,,,,,,,,,,,,,,,,,,,56,1.815,1,0,13,13,23,1,8,×,7,8 × 7,neutral,largerFirst,1.5,1.5,56,,,,,,,,
,,,,,,,,,,,,,,,657,2022-06-15_20h05.19.811,multiplicationStroop,2021.2.3,Win32,61.32335807,,,,,,,,,,,,,,,,,,,,,,,,,,,,,,,,,30,1.934,1,0,14,14,5,1,5,×,6,5 × 6,neutral,smallerFirst,1.5,1.5,30,,,,,,,,
,,,,,,,,,,,,,,,657,2022-06-15_20h05.19.811,multiplicationStroop,2021.2.3,Win32,61.32335807,,,,,,,,,,,,,,,,,,,,,,,,,,,,,,,,,8,1.7459,1,0,15,15,17,1,4,×,2,4 × 2,neutral,largerFirst,1.5,1.5,8,,,,,,,,
,,,,,,,,,,,,,,,657,2022-06-15_20h05.19.811,multiplicationStroop,2021.2.3,Win32,61.32335807,,,,,,,,,,,,,,,,,,,,,,,,,,,,,,,,,32,2.198,1,0,16,16,9,1,4,×,8,4 × 8,neutral,smallerFirst,1.5,1.5,32,,,,,,,,
,,,,,,,,,,,,,,,657,2022-06-15_20h05.19.811,multiplicationStroop,2021.2.3,Win32,61.32335807,,,,,,,,,,,,,,,,,,,,,,,,,,,,,,,,,45,1.8982,1,0,17,17,24,1,9,×,5,9 × 5,neutral,largerFirst,1.5,1.5,45,,,,,,,,
,,,,,,,,,,,,,,,657,2022-06-15_20h05.19.811,multiplicationStroop,2021.2.3,Win32,61.32335807,,,,,,,,,,,,,,,,,,,,,,,,,,,,,,,,,9,1.7654,1,0,18,18,29,1,3,×,3,3 × 3,neutral,tie,1.5,1.5,9,,,,,,,,
,,,,,,,,,,,,,,,657,2022-06-15_20h05.19.811,multiplicationStroop,2021.2.3,Win32,61.32335807,,,,,,,,,,,,,,,,,,,,,,,,,,,,,,,,,12,1.466,1,0,19,19,11,1,2,×,6,2 × 6,neutral,smallerFirst,1.5,1.5,12,,,,,,,,
,,,,,,,,,,,,,,,657,2022-06-15_20h05.19.811,multiplicationStroop,2021.2.3,Win32,61.32335807,,,,,,,,,,,,,,,,,,,,,,,,,,,,,,,,,63,3.1994,1,0,20,20,26,1,9,×,7,9 × 7,neutral,largerFirst,1.5,1.5,63,,,,,,,,
,,,,,,,,,,,,,,,657,2022-06-15_20h05.19.811,multiplicationStroop,2021.2.3,Win32,61.32335807,,,,,,,,,,,,,,,,,,,,,,,,,,,,,,,,,35,1.9652,1,0,21,21,15,1,7,×,5,7 × 5,neutral,largerFirst,1.5,1.5,35,,,,,,,,
,,,,,,,,,,,,,,,657,2022-06-15_20h05.19.811,multiplicationStroop,2021.2.3,Win32,61.32335807,,,,,,,,,,,,,,,,,,,,,,,,,,,,,,,,,15,1.9658,1,0,22,22,19,1,5,×,3,5 × 3,neutral,largerFirst,1.5,1.5,15,,,,,,,,
,,,,,,,,,,,,,,,657,2022-06-15_20h05.19.811,multiplicationStroop,2021.2.3,Win32,61.32335807,,,,,,,,,,,,,,,,,,,,,,,,,,,,,,,,,36,2.1823,1,0,23,23,32,1,6,×,6,6 × 6,neutral,tie,1.5,1.5,36,,,,,,,,
,,,,,,,,,,,,,,,657,2022-06-15_20h05.19.811,multiplicationStroop,2021.2.3,Win32,61.32335807,,,,,,,,,,,,,,,,,,,,,,,,,,,,,,,,,10,1.499,1,0,24,24,18,1,5,×,2,5 × 2,neutral,largerFirst,1.5,1.5,10,,,,,,,,
,,,,,,,,,,,,,,,657,2022-06-15_20h05.19.811,multiplicationStroop,2021.2.3,Win32,61.32335807,,,,,,,,,,,,,,,,,,,,,,,,,,,,,,,,,64,2.1157,1,0,25,25,34,1,8,×,8,8 × 8,neutral,tie,1.5,1.5,64,,,,,,,,
,,,,,,,,,,,,,,,657,2022-06-15_20h05.19.811,multiplicationStroop,2021.2.3,Win32,61.32335807,,,,,,,,,,,,,,,,,,,,,,,,,,,,,,,,,72,3.065,1,0,26,26,25,1,9,×,8,9 × 8,neutral,largerFirst,1.5,1.5,72,,,,,,,,
,,,,,,,,,,,,,,,657,2022-06-15_20h05.19.811,multiplicationStroop,2021.2.3,Win32,61.32335807,,,,,,,,,,,,,,,,,,,,,,,,,,,,,,,,,54,2.5888,0,0,27,27,20,1,7,×,6,7 × 6,neutral,largerFirst,1.5,1.5,42,,,,,,,,
,,,,,,,,,,,,,,,657,2022-06-15_20h05.19.811,multiplicationStroop,2021.2.3,Win32,61.32335807,,,,,,,,,,,,,,,,,,,,,,,,,,,,,,,,,28,2.8821,1,0,28,28,3,1,4,×,7,4 × 7,neutral,smallerFirst,1.5,1.5,28,,,,,,,,
,,,,,,,,,,,,,,,657,2022-06-15_20h05.19.811,multiplicationStroop,2021.2.3,Win32,61.32335807,,,,,,,,,,,,,,,,,,,,,,,,,,,,,,,,,18,1.7661,1,0,29,29,4,1,2,×,9,2 × 9,neutral,smallerFirst,1.5,1.5,18,,,,,,,,
,,,,,,,,,,,,,,,657,2022-06-15_20h05.19.811,multiplicationStroop,2021.2.3,Win32,61.32335807,,,,,,,,,,,,,,,,,,,,,,,,,,,,,,,,,12,1.4326,1,0,30,30,7,1,3,×,4,3 × 4,neutral,smallerFirst,1.5,1.5,12,,,,,,,,
,,,,,,,,,,,,,,,657,2022-06-15_20h05.19.811,multiplicationStroop,2021.2.3,Win32,61.32335807,,,,,,,,,,,,,,,,,,,,,,,,,,,,,,,,,25,1.7656,1,0,31,31,31,1,5,×,5,5 × 5,neutral,tie,1.5,1.5,25,,,,,,,,
,,,,,,,,,,,,,,,657,2022-06-15_20h05.19.811,multiplicationStroop,2021.2.3,Win32,61.32335807,,,,,,,,,,,,,,,,,,,,,,,,,,,,,,,,,81,1.6159,1,0,32,32,35,1,9,×,9,9 × 9,neutral,tie,1.5,1.5,81,,,,,,,,
,,,,,,,,,,,,,,,657,2022-06-15_20h05.19.811,multiplicationStroop,2021.2.3,Win32,61.32335807,,,,,,,,,,,,,,,,,,,,,,,,,,,,,,,,,40,1.9823,1,0,33,33,10,1,5,×,8,5 × 8,neutral,smallerFirst,1.5,1.5,40,,,,,,,,
,,,,,,,,,,,,,,,657,2022-06-15_20h05.19.811,multiplicationStroop,2021.2.3,Win32,61.32335807,,,,,,,,,,,,,,,,,,,,,,,,,,,,,,,,,48,2.4991,1,0,34,34,1,1,6,×,8,6 × 8,neutral,smallerFirst,1.5,1.5,48,,,,,,,,
,,,,,,,,,,,,,,,657,2022-06-15_20h05.19.811,multiplicationStroop,2021.2.3,Win32,61.32335807,,,,,,,,,,,,,,,,,,,,,,,,,,,,,,,,,6,1.749,1,0,35,35,12,1,2,×,3,2 × 3,neutral,smallerFirst,1.5,1.5,6,,,,,,,,
,,,,,,,,,,,,,,,657,2022-06-15_20h05.19.811,multiplicationStroop,2021.2.3,Win32,61.32335807,,,,,,,,,,,,,,,,,,,,,,,,,,,,,,,,,,,,,,,,,,,,,,,,,,0,4,4,0,1,stimulusFile/mult_blk1.xlsx,,
,,,,,,,,,,,,,,,657,2022-06-15_20h05.19.811,multiplicationStroop,2021.2.3,Win32,61.32335807,,,,,,,,,,,,,,,,,,,,,,,,,,,,,,,space,1.0515,27,2.7501,1,0,0,0,4,1,3,×,9,3 × 9,incongruent,smallerFirst,2,1,27,,,,,,,,
,,,,,,,,,,,,,,,657,2022-06-15_20h05.19.811,multiplicationStroop,2021.2.3,Win32,61.32335807,,,,,,,,,,,,,,,,,,,,,,,,,,,,,,,,,32,2.3044,1,0,1,1,21,1,8,×,4,8 × 4,incongruent,largerFirst,1,2,32,,,,,,,,
,,,,,,,,,,,,,,,657,2022-06-15_20h05.19.811,multiplicationStroop,2021.2.3,Win32,61.32335807,,,,,,,,,,,,,,,,,,,,,,,,,,,,,,,,,15,1.8325,1,0,2,2,24,1,5,×,3,5 × 3,incongruent,largerFirst,1,2,15,,,,,,,,
,,,,,,,,,,,,,,,657,2022-06-15_20h05.19.811,multiplicationStroop,2021.2.3,Win32,61.32335807,,,,,,,,,,,,,,,,,,,,,,,,,,,,,,,,,81,1.5656,1,0,3,3,35,1,9,×,9,9 × 9,neutral,tie,2,1,81,,,,,,,,
,,,,,,,,,,,,,,,657,2022-06-15_20h05.19.811,multiplicationStroop,2021.2.3,Win32,61.32335807,,,,,,,,,,,,,,,,,,,,,,,,,,,,,,,,,12,1.3824,1,0,4,4,19,1,4,×,3,4 × 3,incongruent,largerFirst,1,2,12,,,,,,,,
,,,,,,,,,,,,,,,657,2022-06-15_20h05.19.811,multiplicationStroop,2021.2.3,Win32,61.32335807,,,,,,,,,,,,,,,,,,,,,,,,,,,,,,,,,45,1.8992,1,0,5,5,8,1,5,×,9,5 × 9,incongruent,smallerFirst,2,1,45,,,,,,,,
,,,,,,,,,,,,,,,657,2022-06-15_20h05.19.811,multiplicationStroop,2021.2.3,Win32,61.32335807,,,,,,,,,,,,,,,,,,,,,,,,,,,,,,,,,6,1.7658,1,0,6,6,25,1,3,×,2,3 × 2,incongruent,largerFirst,1,2,6,,,,,,,,
,,,,,,,,,,,,,,,657,2022-06-15_20h05.19.811,multiplicationStroop,2021.2.3,Win32,61.32335807,,,,,,,,,,,,,,,,,,,,,,,,,,,,,,,,,8,1.7159,1,0,7,7,10,1,2,×,4,2 × 4,incongruent,smallerFirst,2,1,8,,,,,,,,
,,,,,,,,,,,,,,,657,2022-06-15_20h05.19.811,multiplicationStroop,2021.2.3,Win32,61.32335807,,,,,,,,,,,,,,,,,,,,,,,,,,,,,,,,,64,2.4817,1,0,8,8,34,1,8,×,8,8 × 8,neutral,tie,2,1,64,,,,,,,,
,,,,,,,,,,,,,,,657,2022-06-15_20h05.19.811,multiplicationStroop,2021.2.3,Win32,61.32335807,,,,,,,,,,,,,,,,,,,,,,,,,,,,,,,,,28,2.7156,1,0,9,9,2,1,4,×,7,4 × 7,incongruent,smallerFirst,2,1,28,,,,,,,,
,,,,,,,,,,,,,,,657,2022-06-15_20h05.19.811,multiplicationStroop,2021.2.3,Win32,61.32335807,,,,,,,,,,,,,,,,,,,,,,,,,,,,,,,,,30,2.3493,1,0,10,10,11,1,5,×,6,5 × 6,incongruent,smallerFirst,2,1,30,,,,,,,,
,,,,,,,,,,,,,,,657,2022-06-15_20h05.19.811,multiplicationStroop,2021.2.3,Win32,61.32335807,,,,,,,,,,,,,,,,,,,,,,,,,,,,,,,,,42,2.7317,1,0,11,11,3,1,6,×,7,6 × 7,incongruent,smallerFirst,2,1,42,,,,,,,,
,,,,,,,,,,,,,,,657,2022-06-15_20h05.19.811,multiplicationStroop,2021.2.3,Win32,61.32335807,,,,,,,,,,,,,,,,,,,,,,,,,,,,,,,,,24,1.9996,1,0,12,12,6,1,4,×,6,4 × 6,incongruent,smallerFirst,2,1,24,,,,,,,,
,,,,,,,,,,,,,,,657,2022-06-15_20h05.19.811,multiplicationStroop,2021.2.3,Win32,61.32335807,,,,,,,,,,,,,,,,,,,,,,,,,,,,,,,,,16,1.8827,1,0,13,13,9,1,2,×,8,2 × 8,incongruent,smallerFirst,2,1,16,,,,,,,,
,,,,,,,,,,,,,,,657,2022-06-15_20h05.19.811,multiplicationStroop,2021.2.3,Win32,61.32335807,,,,,,,,,,,,,,,,,,,,,,,,,,,,,,,,,35,1.9487,1,0,14,14,26,1,7,×,5,7 × 5,incongruent,largerFirst,1,2,35,,,,,,,,
,,,,,,,,,,,,,,,657,2022-06-15_20h05.19.811,multiplicationStroop,2021.2.3,Win32,61.32335807,,,,,,,,,,,,,,,,,,,,,,,,,,,,,,,,,14,1.9826,1,0,15,15,18,1,7,×,2,7 × 2,incongruent,largerFirst,1,2,14,,,,,,,,
,,,,,,,,,,,,,,,657,2022-06-15_20h05.19.811,multiplicationStroop,2021.2.3,Win32,61.32335807,,,,,,,,,,,,,,,,,,,,,,,,,,,,,,,,,20,1.8658,1,0,16,16,13,1,4,×,5,4 × 5,incongruent,smallerFirst,2,1,20,,,,,,,,
,,,,,,,,,,,,,,,657,2022-06-15_20h05.19.811,multiplicationStroop,2021.2.3,Win32,61.32335807,,,,,,,,,,,,,,,,,,,,,,,,,,,,,,,,,25,1.7324,1,0,17,17,31,1,5,×,5,5 × 5,neutral,tie,2,1,25,,,,,,,,
,,,,,,,,,,,,,,,657,2022-06-15_20h05.19.811,multiplicationStroop,2021.2.3,Win32,61.32335807,,,,,,,,,,,,,,,,,,,,,,,,,,,,,,,,,36,1.9323,1,0,18,18,32,1,6,×,6,6 × 6,neutral,tie,2,1,36,,,,,,,,
,,,,,,,,,,,,,,,657,2022-06-15_20h05.19.811,multiplicationStroop,2021.2.3,Win32,61.32335807,,,,,,,,,,,,,,,,,,,,,,,,,,,,,,,,,9,1.4995,1,0,19,19,29,1,3,×,3,3 × 3,neutral,tie,2,1,9,,,,,,,,
,,,,,,,,,,,,,,,657,2022-06-15_20h05.19.811,multiplicationStroop,2021.2.3,Win32,61.32335807,,,,,,,,,,,,,,,,,,,,,,,,,,,,,,,,,54,2.3488,1,0,20,20,20,1,9,×,6,9 × 6,incongruent,largerFirst,1,2,54,,,,,,,,
,,,,,,,,,,,,,,,657,2022-06-15_20h05.19.811,multiplicationStroop,2021.2.3,Win32,61.32335807,,,,,,,,,,,,,,,,,,,,,,,,,,,,,,,,,24,4.6981,1,0,21,21,23,1,8,×,3,8 × 3,incongruent,largerFirst,1,2,24,,,,,,,,
,,,,,,,,,,,,,,,657,2022-06-15_20h05.19.811,multiplicationStroop,2021.2.3,Win32,61.32335807,,,,,,,,,,,,,,,,,,,,,,,,,,,,,,,,,56,2.0336,1,0,22,22,0,1,7,×,8,7 × 8,incongruent,smallerFirst,2,1,56,,,,,,,,
,,,,,,,,,,,,,,,657,2022-06-15_20h05.19.811,multiplicationStroop,2021.2.3,Win32,61.32335807,,,,,,,,,,,,,,,,,,,,,,,,,,,,,,,,,18,1.6484,1,0,23,23,16,1,9,×,2,9 × 2,incongruent,largerFirst,1,2,18,,,,,,,,
,,,,,,,,,,,,,,,657,2022-06-15_20h05.19.811,multiplicationStroop,2021.2.3,Win32,61.32335807,,,,,,,,,,,,,,,,,,,,,,,,,,,,,,,,,18,2.0324,1,0,24,24,22,1,6,×,3,6 × 3,incongruent,largerFirst,1,2,18,,,,,,,,
,,,,,,,,,,,,,,,657,2022-06-15_20h05.19.811,multiplicationStroop,2021.2.3,Win32,61.32335807,,,,,,,,,,,,,,,,,,,,,,,,,,,,,,,,,36,2.6491,1,0,25,25,1,1,4,×,9,4 × 9,incongruent,smallerFirst,2,1,36,,,,,,,,
,,,,,,,,,,,,,,,657,2022-06-15_20h05.19.811,multiplicationStroop,2021.2.3,Win32,61.32335807,,,,,,,,,,,,,,,,,,,,,,,,,,,,,,,,,21,1.632,1,0,26,26,12,1,3,×,7,3 × 7,incongruent,smallerFirst,2,1,21,,,,,,,,
,,,,,,,,,,,,,,,657,2022-06-15_20h05.19.811,multiplicationStroop,2021.2.3,Win32,61.32335807,,,,,,,,,,,,,,,,,,,,,,,,,,,,,,,,,12,1.3827,1,0,27,27,5,1,2,×,6,2 × 6,incongruent,smallerFirst,2,1,12,,,,,,,,
,,,,,,,,,,,,,,,657,2022-06-15_20h05.19.811,multiplicationStroop,2021.2.3,Win32,61.32335807,,,,,,,,,,,,,,,,,,,,,,,,,,,,,,,,,49,2.1488,1,0,28,28,33,1,7,×,7,7 × 7,neutral,tie,2,1,49,,,,,,,,
,,,,,,,,,,,,,,,657,2022-06-15_20h05.19.811,multiplicationStroop,2021.2.3,Win32,61.32335807,,,,,,,,,,,,,,,,,,,,,,,,,,,,,,,,,48,4.3819,1,0,29,29,15,1,8,×,6,8 × 6,incongruent,largerFirst,1,2,48,,,,,,,,
,,,,,,,,,,,,,,,657,2022-06-15_20h05.19.811,multiplicationStroop,2021.2.3,Win32,61.32335807,,,,,,,,,,,,,,,,,,,,,,,,,,,,,,,,,4,1.4668,1,0,30,30,28,1,2,×,2,2 × 2,neutral,tie,2,1,4,,,,,,,,
,,,,,,,,,,,,,,,657,2022-06-15_20h05.19.811,multiplicationStroop,2021.2.3,Win32,61.32335807,,,,,,,,,,,,,,,,,,,,,,,,,,,,,,,,,16,1.8157,1,0,31,31,30,1,4,×,4,4 × 4,neutral,tie,2,1,16,,,,,,,,
,,,,,,,,,,,,,,,657,2022-06-15_20h05.19.811,multiplicationStroop,2021.2.3,Win32,61.32335807,,,,,,,,,,,,,,,,,,,,,,,,,,,,,,,,,40,1.7156,1,0,32,32,27,1,8,×,5,8 × 5,incongruent,largerFirst,1,2,40,,,,,,,,
,,,,,,,,,,,,,,,657,2022-06-15_20h05.19.811,multiplicationStroop,2021.2.3,Win32,61.32335807,,,,,,,,,,,,,,,,,,,,,,,,,,,,,,,,,73,1.7991,0,0,33,33,14,1,9,×,8,9 × 8,incongruent,largerFirst,1,2,72,,,,,,,,
,,,,,,,,,,,,,,,657,2022-06-15_20h05.19.811,multiplicationStroop,2021.2.3,Win32,61.32335807,,,,,,,,,,,,,,,,,,,,,,,,,,,,,,,,,63,2.3657,1,0,34,34,17,1,9,×,7,9 × 7,incongruent,largerFirst,1,2,63,,,,,,,,
,,,,,,,,,,,,,,,657,2022-06-15_20h05.19.811,multiplicationStroop,2021.2.3,Win32,61.32335807,,,,,,,,,,,,,,,,,,,,,,,,,,,,,,,,,10,1.683,1,0,35,35,7,1,2,×,5,2 × 5,incongruent,smallerFirst,2,1,10,,,,,,,,
,,,,,,,,,,,,,,,657,2022-06-15_20h05.19.811,multiplicationStroop,2021.2.3,Win32,61.32335807,,,,,,,,,,,,,,,,,,,,,,,,,,,,,,,,,,,,,,,,,,,,,,,,,,0,5,5,4,1,stimulusFile/mult_blk5_INcongruent.xlsx,,
,,,,,,,,,,,,,,,657,2022-06-15_20h05.19.811,multiplicationStroop,2021.2.3,Win32,61.32335807,,,,,,,,,,,,,,,,,,,,,,,,,,,,,,,,,,,,,,,,,,,,,,,,,,,,,,,,space,4.2169