welcomeKey_resp.keys,welcomeKey_resp.rt,X Scale,Y Scale,rt_resp_4.keys,rt_resp_4.corr,rt_resp_4.rt,speedtest_2.thisRepN,speedtest_2.thisTrialN,speedtest_2.thisN,speedtest_2.thisIndex,speedtest_2.ran,numberSc,posX,positionLayout,participant,date,expName,psychopyVersion,OS,frameRate,ct_instrresp.keys,ct_instrresp.rt,key_resp_2.keys,key_resp_2.rt,ct_keyResp.keys,ct_keyResp.corr,ct_keyResp.rt,trials.thisRepN,trials.thisTrialN,trials.thisN,trials.thisIndex,trials.ran,leftNo,rightNo,displayProblem,numDistance,leftNo_size,rightNo_size,Dims,keyAnswer,TS_Loop.thisRepN,TS_Loop.thisTrialN,TS_Loop.thisN,TS_Loop.thisIndex,TS_Loop.ran,Condition,ActionInst,instrImage,mltptaskInst_resp.keys,mltptaskInst_resp.rt,continue_resp_2.keys,continue_resp_2.rt,multp_Answer,multi_RT,multiplyCorr,LoopingMultiply.thisRepN,LoopingMultiply.thisTrialN,LoopingMultiply.thisN,LoopingMultiply.thisIndex,LoopingMultiply.ran,factor1,multiplySign,factor2,multliplyProblem,physicalSize,orderOperand,sizeF1,sizeF2,mult_answer,trials_stroop.thisRepN,trials_stroop.thisTrialN,trials_stroop.thisN,trials_stroop.thisIndex,trials_stroop.ran,multiplicationFile,esckey_resp_2.keys,esckey_resp_2.rt
y,2.5006,45.3,43.8,right,1,1.8958,0,0,0,14,1,8,200,right,658,2022-06-15_20h44.42.411,multiplicationStroop,2021.2.3,Win32,59.64096141,,,,,,,,,,,,,,,,,,,,,,,,,,,,,,,,,,,,,,,,,,,,,,,,,,,,,,,,,
,,,,right,1,0.5347,0,1,1,8,1,1,200,right,658,2022-06-15_20h44.42.411,multiplicationStroop,2021.2.3,Win32,59.64096141,,,,,,,,,,,,,,,,,,,,,,,,,,,,,,,,,,,,,,,,,,,,,,,,,,,,,,,,,
,,,,right,1,0.9681,0,2,2,9,1,2,200,right,658,2022-06-15_20h44.42.411,multiplicationStroop,2021.2.3,Win32,59.64096141,,,,,,,,,,,,,,,,,,,,,,,,,,,,,,,,,,,,,,,,,,,,,,,,,,,,,,,,,
,,,,left,1,0.4178,0,3,3,5,1,7,-200,left,658,2022-06-15_20h44.42.411,multiplicationStroop,2021.2.3,Win32,59.64096141,,,,,,,,,,,,,,,,,,,,,,,,,,,,,,,,,,,,,,,,,,,,,,,,,,,,,,,,,
,,,,left,1,0.3715,0,4,4,0,1,1,-200,left,658,2022-06-15_20h44.42.411,multiplicationStroop,2021.2.3,Win32,59.64096141,,,,,,,,,,,,,,,,,,,,,,,,,,,,,,,,,,,,,,,,,,,,,,,,,,,,,,,,,
,,,,left,1,0.3676,0,5,5,3,1,4,-200,left,658,2022-06-15_20h44.42.411,multiplicationStroop,2021.2.3,Win32,59.64096141,,,,,,,,,,,,,,,,,,,,,,,,,,,,,,,,,,,,,,,,,,,,,,,,,,,,,,,,,
,,,,left,1,0.4179,0,6,6,6,1,8,-200,left,658,2022-06-15_20h44.42.411,multiplicationStroop,2021.2.3,Win32,59.64096141,,,,,,,,,,,,,,,,,,,,,,,,,,,,,,,,,,,,,,,,,,,,,,,,,,,,,,,,,
,,,,left,1,0.3402,0,7,7,1,1,2,-200,left,658,2022-06-15_20h44.42.411,multiplicationStroop,2021.2.3,Win32,59.64096141,,,,,,,,,,,,,,,,,,,,,,,,,,,,,,,,,,,,,,,,,,,,,,,,,,,,,,,,,
,,,,right,1,0.3512,0,8,8,12,1,6,200,right,658,2022-06-15_20h44.42.411,multiplicationStroop,2021.2.3,Win32,59.64096141,,,,,,,,,,,,,,,,,,,,,,,,,,,,,,,,,,,,,,,,,,,,,,,,,,,,,,,,,
,,,,left,1,0.4347,0,9,9,2,1,3,-200,left,658,2022-06-15_20h44.42.411,multiplicationStroop,2021.2.3,Win32,59.64096141,,,,,,,,,,,,,,,,,,,,,,,,,,,,,,,,,,,,,,,,,,,,,,,,,,,,,,,,,
,,,,right,1,0.3013,0,10,10,13,1,7,200,right,658,2022-06-15_20h44.42.411,multiplicationStroop,2021.2.3,Win32,59.64096141,,,,,,,,,,,,,,,,,,,,,,,,,,,,,,,,,,,,,,,,,,,,,,,,,,,,,,,,,
,,,,right,1,0.3869,0,11,11,10,1,3,200,right,658,2022-06-15_20h44.42.411,multiplicationStroop,2021.2.3,Win32,59.64096141,,,,,,,,,,,,,,,,,,,,,,,,,,,,,,,,,,,,,,,,,,,,,,,,,,,,,,,,,
,,,,right,1,0.3345,0,12,12,11,1,4,200,right,658,2022-06-15_20h44.42.411,multiplicationStroop,2021.2.3,Win32,59.64096141,,,,,,,,,,,,,,,,,,,,,,,,,,,,,,,,,,,,,,,,,,,,,,,,,,,,,,,,,
,,,,left,1,0.3861,0,13,13,7,1,9,-200,left,658,2022-06-15_20h44.42.411,multiplicationStroop,2021.2.3,Win32,59.64096141,,,,,,,,,,,,,,,,,,,,,,,,,,,,,,,,,,,,,,,,,,,,,,,,,,,,,,,,,
,,,,right,1,0.3013,0,14,14,15,1,9,200,right,658,2022-06-15_20h44.42.411,multiplicationStroop,2021.2.3,Win32,59.64096141,,,,,,,,,,,,,,,,,,,,,,,,,,,,,,,,,,,,,,,,,,,,,,,,,,,,,,,,,
,,,,left,1,0.3364,0,15,15,4,1,6,-200,left,658,2022-06-15_20h44.42.411,multiplicationStroop,2021.2.3,Win32,59.64096141,,,,,,,,,,,,,,,,,,,,,,,,,,,,,,,,,,,,,,,,,,,,,,,,,,,,,,,,,
,,,,right,1,0.3009,1,0,16,10,1,3,200,right,658,2022-06-15_20h44.42.411,multiplicationStroop,2021.2.3,Win32,59.64096141,,,,,,,,,,,,,,,,,,,,,,,,,,,,,,,,,,,,,,,,,,,,,,,,,,,,,,,,,
,,,,right,1,0.3848,1,1,17,9,1,2,200,right,658,2022-06-15_20h44.42.411,multiplicationStroop,2021.2.3,Win32,59.64096141,,,,,,,,,,,,,,,,,,,,,,,,,,,,,,,,,,,,,,,,,,,,,,,,,,,,,,,,,
,,,,left,1,0.3238,1,2,18,7,1,9,-200,left,658,2022-06-15_20h44.42.411,multiplicationStroop,2021.2.3,Win32,59.64096141,,,,,,,,,,,,,,,,,,,,,,,,,,,,,,,,,,,,,,,,,,,,,,,,,,,,,,,,,
,,,,right,1,0.3057,1,3,19,13,1,7,200,right,658,2022-06-15_20h44.42.411,multiplicationStroop,2021.2.3,Win32,59.64096141,,,,,,,,,,,,,,,,,,,,,,,,,,,,,,,,,,,,,,,,,,,,,,,,,,,,,,,,,
,,,,left,1,0.3232,1,4,20,3,1,4,-200,left,658,2022-06-15_20h44.42.411,multiplicationStroop,2021.2.3,Win32,59.64096141,,,,,,,,,,,,,,,,,,,,,,,,,,,,,,,,,,,,,,,,,,,,,,,,,,,,,,,,,
,,,,left,1,0.3685,1,5,21,2,1,3,-200,left,658,2022-06-15_20h44.42.411,multiplicationStroop,2021.2.3,Win32,59.64096141,,,,,,,,,,,,,,,,,,,,,,,,,,,,,,,,,,,,,,,,,,,,,,,,,,,,,,,,,
,,,,left,1,0.3211,1,6,22,4,1,6,-200,left,658,2022-06-15_20h44.42.411,multiplicationStroop,2021.2.3,Win32,59.64096141,,,,,,,,,,,,,,,,,,,,,,,,,,,,,,,,,,,,,,,,,,,,,,,,,,,,,,,,,
,,,,right,1,0.3564,1,7,23,15,1,9,200,right,658,2022-06-15_20h44.42.411,multiplicationStroop,2021.2.3,Win32,59.64096141,,,,,,,,,,,,,,,,,,,,,,,,,,,,,,,,,,,,,,,,,,,,,,,,,,,,,,,,,
,,,,right,1,0.3512,1,8,24,14,1,8,200,right,658,2022-06-15_20h44.42.411,multiplicationStroop,2021.2.3,Win32,59.64096141,,,,,,,,,,,,,,,,,,,,,,,,,,,,,,,,,,,,,,,,,,,,,,,,,,,,,,,,,
,,,,left,1,0.3505,1,9,25,5,1,7,-200,left,658,2022-06-15_20h44.42.411,multiplicationStroop,2021.2.3,Win32,59.64096141,,,,,,,,,,,,,,,,,,,,,,,,,,,,,,,,,,,,,,,,,,,,,,,,,,,,,,,,,
,,,,right,1,0.3509,1,10,26,8,1,1,200,right,658,2022-06-15_20h44.42.411,multiplicationStroop,2021.2.3,Win32,59.64096141,,,,,,,,,,,,,,,,,,,,,,,,,,,,,,,,,,,,,,,,,,,,,,,,,,,,,,,,,
,,,,right,1,0.435,1,11,27,11,1,4,200,right,658,2022-06-15_20h44.42.411,multiplicationStroop,2021.2.3,Win32,59.64096141,,,,,,,,,,,,,,,,,,,,,,,,,,,,,,,,,,,,,,,,,,,,,,,,,,,,,,,,,
,,,,right,1,0.385,1,12,28,12,1,6,200,right,658,2022-06-15_20h44.42.411,multiplicationStroop,2021.2.3,Win32,59.64096141,,,,,,,,,,,,,,,,,,,,,,,,,,,,,,,,,,,,,,,,,,,,,,,,,,,,,,,,,
,,,,left,1,0.3847,1,13,29,0,1,1,-200,left,658,2022-06-15_20h44.42.411,multiplicationStroop,2021.2.3,Win32,59.64096141,,,,,,,,,,,,,,,,,,,,,,,,,,,,,,,,,,,,,,,,,,,,,,,,,,,,,,,,,
,,,,left,1,0.418,1,14,30,1,1,2,-200,left,658,2022-06-15_20h44.42.411,multiplicationStroop,2021.2.3,Win32,59.64096141,,,,,,,,,,,,,,,,,,,,,,,,,,,,,,,,,,,,,,,,,,,,,,,,,,,,,,,,,
,,,,left,1,0.3176,1,15,31,6,1,8,-200,left,658,2022-06-15_20h44.42.411,multiplicationStroop,2021.2.3,Win32,59.64096141,,,,,,,,,,,,,,,,,,,,,,,,,,,,,,,,,,,,,,,,,,,,,,,,,,,,,,,,,
,,,,left,1,0.3229,2,0,32,6,1,8,-200,left,658,2022-06-15_20h44.42.411,multiplicationStroop,2021.2.3,Win32,59.64096141,,,,,,,,,,,,,,,,,,,,,,,,,,,,,,,,,,,,,,,,,,,,,,,,,,,,,,,,,
,,,,right,1,0.368,2,1,33,14,1,8,200,right,658,2022-06-15_20h44.42.411,multiplicationStroop,2021.2.3,Win32,59.64096141,,,,,,,,,,,,,,,,,,,,,,,,,,,,,,,,,,,,,,,,,,,,,,,,,,,,,,,,,
,,,,left,1,0.3349,2,2,34,7,1,9,-200,left,658,2022-06-15_20h44.42.411,multiplicationStroop,2021.2.3,Win32,59.64096141,,,,,,,,,,,,,,,,,,,,,,,,,,,,,,,,,,,,,,,,,,,,,,,,,,,,,,,,,
,,,,left,1,0.3514,2,3,35,1,1,2,-200,left,658,2022-06-15_20h44.42.411,multiplicationStroop,2021.2.3,Win32,59.64096141,,,,,,,,,,,,,,,,,,,,,,,,,,,,,,,,,,,,,,,,,,,,,,,,,,,,,,,,,
,,,,left,1,0.3015,2,4,36,3,1,4,-200,left,658,2022-06-15_20h44.42.411,multiplicationStroop,2021.2.3,Win32,59.64096141,,,,,,,,,,,,,,,,,,,,,,,,,,,,,,,,,,,,,,,,,,,,,,,,,,,,,,,,,
,,,,right,1,0.3514,2,5,37,15,1,9,200,right,658,2022-06-15_20h44.42.411,multiplicationStroop,2021.2.3,Win32,59.64096141,,,,,,,,,,,,,,,,,,,,,,,,,,,,,,,,,,,,,,,,,,,,,,,,,,,,,,,,,
,,,,right,1,0.3564,2,6,38,12,1,6,200,right,658,2022-06-15_20h44.42.411,multiplicationStroop,2021.2.3,Win32,59.64096141,,,,,,,,,,,,,,,,,,,,,,,,,,,,,,,,,,,,,,,,,,,,,,,,,,,,,,,,,
,,,,left,1,0.4335,2,7,39,4,1,6,-200,left,658,2022-06-15_20h44.42.411,multiplicationStroop,2021.2.3,Win32,59.64096141,,,,,,,,,,,,,,,,,,,,,,,,,,,,,,,,,,,,,,,,,,,,,,,,,,,,,,,,,
,,,,left,1,0.3072,2,8,40,5,1,7,-200,left,658,2022-06-15_20h44.42.411,multiplicationStroop,2021.2.3,Win32,59.64096141,,,,,,,,,,,,,,,,,,,,,,,,,,,,,,,,,,,,,,,,,,,,,,,,,,,,,,,,,
,,,,left,1,0.3513,2,9,41,2,1,3,-200,left,658,2022-06-15_20h44.42.411,multiplicationStroop,2021.2.3,Win32,59.64096141,,,,,,,,,,,,,,,,,,,,,,,,,,,,,,,,,,,,,,,,,,,,,,,,,,,,,,,,,
,,,,right,1,0.3362,2,10,42,13,1,7,200,right,658,2022-06-15_20h44.42.411,multiplicationStroop,2021.2.3,Win32,59.64096141,,,,,,,,,,,,,,,,,,,,,,,,,,,,,,,,,,,,,,,,,,,,,,,,,,,,,,,,,
,,,,right,1,0.3346,2,11,43,10,1,3,200,right,658,2022-06-15_20h44.42.411,multiplicationStroop,2021.2.3,Win32,59.64096141,,,,,,,,,,,,,,,,,,,,,,,,,,,,,,,,,,,,,,,,,,,,,,,,,,,,,,,,,
,,,,right,1,0.3014,2,12,44,11,1,4,200,right,658,2022-06-15_20h44.42.411,multiplicationStroop,2021.2.3,Win32,59.64096141,,,,,,,,,,,,,,,,,,,,,,,,,,,,,,,,,,,,,,,,,,,,,,,,,,,,,,,,,
,,,,left,1,0.4346,2,13,45,0,1,1,-200,left,658,2022-06-15_20h44.42.411,multiplicationStroop,2021.2.3,Win32,59.64096141,,,,,,,,,,,,,,,,,,,,,,,,,,,,,,,,,,,,,,,,,,,,,,,,,,,,,,,,,
,,,,right,1,0.3844,2,14,46,8,1,1,200,right,658,2022-06-15_20h44.42.411,multiplicationStroop,2021.2.3,Win32,59.64096141,,,,,,,,,,,,,,,,,,,,,,,,,,,,,,,,,,,,,,,,,,,,,,,,,,,,,,,,,
,,,,right,1,0.3676,2,15,47,9,1,2,200,right,658,2022-06-15_20h44.42.411,multiplicationStroop,2021.2.3,Win32,59.64096141,,,,,,,,,,,,,,,,,,,,,,,,,,,,,,,,,,,,,,,,,,,,,,,,,,,,,,,,,
,,,,right,1,0.2844,3,0,48,12,1,6,200,right,658,2022-06-15_20h44.42.411,multiplicationStroop,2021.2.3,Win32,59.64096141,,,,,,,,,,,,,,,,,,,,,,,,,,,,,,,,,,,,,,,,,,,,,,,,,,,,,,,,,
,,,,left,1,0.3515,3,1,49,7,1,9,-200,left,658,2022-06-15_20h44.42.411,multiplicationStroop,2021.2.3,Win32,59.64096141,,,,,,,,,,,,,,,,,,,,,,,,,,,,,,,,,,,,,,,,,,,,,,,,,,,,,,,,,
,,,,left,1,0.3198,3,2,50,3,1,4,-200,left,658,2022-06-15_20h44.42.411,multiplicationStroop,2021.2.3,Win32,59.64096141,,,,,,,,,,,,,,,,,,,,,,,,,,,,,,,,,,,,,,,,,,,,,,,,,,,,,,,,,
,,,,left,1,0.3179,3,3,51,5,1,7,-200,left,658,2022-06-15_20h44.42.411,multiplicationStroop,2021.2.3,Win32,59.64096141,,,,,,,,,,,,,,,,,,,,,,,,,,,,,,,,,,,,,,,,,,,,,,,,,,,,,,,,,
,,,,right,1,0.3343,3,4,52,8,1,1,200,right,658,2022-06-15_20h44.42.411,multiplicationStroop,2021.2.3,Win32,59.64096141,,,,,,,,,,,,,,,,,,,,,,,,,,,,,,,,,,,,,,,,,,,,,,,,,,,,,,,,,
,,,,left,1,0.4537,3,5,53,0,1,1,-200,left,658,2022-06-15_20h44.42.411,multiplicationStroop,2021.2.3,Win32,59.64096141,,,,,,,,,,,,,,,,,,,,,,,,,,,,,,,,,,,,,,,,,,,,,,,,,,,,,,,,,
,,,,right,1,0.3354,3,6,54,15,1,9,200,right,658,2022-06-15_20h44.42.411,multiplicationStroop,2021.2.3,Win32,59.64096141,,,,,,,,,,,,,,,,,,,,,,,,,,,,,,,,,,,,,,,,,,,,,,,,,,,,,,,,,
,,,,right,1,0.3846,3,7,55,13,1,7,200,right,658,2022-06-15_20h44.42.411,multiplicationStroop,2021.2.3,Win32,59.64096141,,,,,,,,,,,,,,,,,,,,,,,,,,,,,,,,,,,,,,,,,,,,,,,,,,,,,,,,,
,,,,left,1,0.3341,3,8,56,6,1,8,-200,left,658,2022-06-15_20h44.42.411,multiplicationStroop,2021.2.3,Win32,59.64096141,,,,,,,,,,,,,,,,,,,,,,,,,,,,,,,,,,,,,,,,,,,,,,,,,,,,,,,,,
,,,,right,1,0.3036,3,9,57,11,1,4,200,right,658,2022-06-15_20h44.42.411,multiplicationStroop,2021.2.3,Win32,59.64096141,,,,,,,,,,,,,,,,,,,,,,,,,,,,,,,,,,,,,,,,,,,,,,,,,,,,,,,,,
,,,,left,1,0.3067,3,10,58,1,1,2,-200,left,658,2022-06-15_20h44.42.411,multiplicationStroop,2021.2.3,Win32,59.64096141,,,,,,,,,,,,,,,,,,,,,,,,,,,,,,,,,,,,,,,,,,,,,,,,,,,,,,,,,
,,,,right,1,0.3018,3,11,59,10,1,3,200,right,658,2022-06-15_20h44.42.411,multiplicationStroop,2021.2.3,Win32,59.64096141,,,,,,,,,,,,,,,,,,,,,,,,,,,,,,,,,,,,,,,,,,,,,,,,,,,,,,,,,
,,,,left,1,0.3185,3,12,60,4,1,6,-200,left,658,2022-06-15_20h44.42.411,multiplicationStroop,2021.2.3,Win32,59.64096141,,,,,,,,,,,,,,,,,,,,,,,,,,,,,,,,,,,,,,,,,,,,,,,,,,,,,,,,,
,,,,right,1,0.2873,3,13,61,14,1,8,200,right,658,2022-06-15_20h44.42.411,multiplicationStroop,2021.2.3,Win32,59.64096141,,,,,,,,,,,,,,,,,,,,,,,,,,,,,,,,,,,,,,,,,,,,,,,,,,,,,,,,,
,,,,left,1,0.2846,3,14,62,2,1,3,-200,left,658,2022-06-15_20h44.42.411,multiplicationStroop,2021.2.3,Win32,59.64096141,,,,,,,,,,,,,,,,,,,,,,,,,,,,,,,,,,,,,,,,,,,,,,,,,,,,,,,,,
,,,,right,1,0.3011,3,15,63,9,1,2,200,right,658,2022-06-15_20h44.42.411,multiplicationStroop,2021.2.3,Win32,59.64096141,,,,,,,,,,,,,,,,,,,,,,,,,,,,,,,,,,,,,,,,,,,,,,,,,,,,,,,,,
,,,,,,,,,,,,,,,658,2022-06-15_20h44.42.411,multiplicationStroop,2021.2.3,Win32,59.64096141,space,1.6667,space,1.3138,right,1,0.9715,0,0,0,19,1,4,9,4 | 9,5,1.4111,1.9756,congruent,right,,,,,,stimulusFile/physical.xlsx,,,,,,,,,,,,,,,,,,,,,,,,,,,,,,,
,,,,,,,,,,,,,,,658,2022-06-15_20h44.42.411,multiplicationStroop,2021.2.3,Win32,59.64096141,,,,,right,1,0.4829,0,1,1,18,1,3,8,3 | 8,5,1.4111,1.9756,congruent,right,,,,,,stimulusFile/physical.xlsx,,,,,,,,,,,,,,,,,,,,,,,,,,,,,,,
,,,,,,,,,,,,,,,658,2022-06-15_20h44.42.411,multiplicationStroop,2021.2.3,Win32,59.64096141,,,,,right,1,0.7642,0,2,2,45,1,7,2,7 | 2,5,1.4111,1.9756,incongruent,right,,,,,,stimulusFile/physical.xlsx,,,,,,,,,,,,,,,,,,,,,,,,,,,,,,,
,,,,,,,,,,,,,,,658,2022-06-15_20h44.42.411,multiplicationStroop,2021.2.3,Win32,59.64096141,,,,,left,1,0.4894,0,3,3,34,1,6,8,6 | 8,2,1.9756,1.4111,incongruent,left,,,,,,stimulusFile/physical.xlsx,,,,,,,,,,,,,,,,,,,,,,,,,,,,,,,
,,,,,,,,,,,,,,,658,2022-06-15_20h44.42.411,multiplicationStroop,2021.2.3,Win32,59.64096141,,,,,right,1,0.5967,0,4,4,47,1,9,4,9 | 4,5,1.4111,1.9756,incongruent,right,,,,,,stimulusFile/physical.xlsx,,,,,,,,,,,,,,,,,,,,,,,,,,,,,,,
,,,,,,,,,,,,,,,658,2022-06-15_20h44.42.411,multiplicationStroop,2021.2.3,Win32,59.64096141,,,,,left,1,0.5177,0,5,5,50,1,6,6,6 | 6,0,1.9756,1.4111,neutral,left,,,,,,stimulusFile/physical.xlsx,,,,,,,,,,,,,,,,,,,,,,,,,,,,,,,
,,,,,,,,,,,,,,,658,2022-06-15_20h44.42.411,multiplicationStroop,2021.2.3,Win32,59.64096141,,,,,left,1,0.6602,0,6,6,48,1,1,1,1 | 1,0,1.9756,1.4111,neutral,left,,,,,,stimulusFile/physical.xlsx,,,,,,,,,,,,,,,,,,,,,,,,,,,,,,,
,,,,,,,,,,,,,,,658,2022-06-15_20h44.42.411,multiplicationStroop,2021.2.3,Win32,59.64096141,,,,,left,1,0.5144,0,7,7,14,1,8,6,8 | 6,2,1.9756,1.4111,congruent,left,,,,,,stimulusFile/physical.xlsx,,,,,,,,,,,,,,,,,,,,,,,,,,,,,,,
,,,,,,,,,,,,,,,658,2022-06-15_20h44.42.411,multiplicationStroop,2021.2.3,Win32,59.64096141,,,,,left,1,0.5527,0,8,8,68,1,6,6,6 | 6,0,1.9756,1.4111,neutral,left,,,,,,stimulusFile/physical.xlsx,,,,,,,,,,,,,,,,,,,,,,,,,,,,,,,
,,,,,,,,,,,,,,,658,2022-06-15_20h44.42.411,multiplicationStroop,2021.2.3,Win32,59.64096141,,,,,right,1,0.5151,0,9,9,29,1,4,3,4 | 3,1,1.4111,1.9756,incongruent,right,,,,,,stimulusFile/physical.xlsx,,,,,,,,,,,,,,,,,,,,,,,,,,,,,,,
,,,,,,,,,,,,,,,658,2022-06-15_20h44.42.411,multiplicationStroop,2021.2.3,Win32,59.64096141,,,,,left,1,0.4112,0,10,10,42,1,3,8,3 | 8,5,1.9756,1.4111,incongruent,left,,,,,,stimulusFile/physical.xlsx,,,,,,,,,,,,,,,,,,,,,,,,,,,,,,,
,,,,,,,,,,,,,,,658,2022-06-15_20h44.42.411,multiplicationStroop,2021.2.3,Win32,59.64096141,,,,,right,1,0.4945,0,11,11,46,1,8,3,8 | 3,5,1.4111,1.9756,incongruent,right,,,,,,stimulusFile/physical.xlsx,,,,,,,,,,,,,,,,,,,,,,,,,,,,,,,
,,,,,,,,,,,,,,,658,2022-06-15_20h44.42.411,multiplicationStroop,2021.2.3,Win32,59.64096141,,,,,left,1,0.4469,0,12,12,21,1,7,2,7 | 2,5,1.9756,1.4111,congruent,left,,,,,,stimulusFile/physical.xlsx,,,,,,,,,,,,,,,,,,,,,,,,,,,,,,,
,,,,,,,,,,,,,,,658,2022-06-15_20h44.42.411,multiplicationStroop,2021.2.3,Win32,59.64096141,,,,,right,1,0.4289,0,13,13,3,1,8,9,8 | 9,1,1.4111,1.9756,congruent,right,,,,,,stimulusFile/physical.xlsx,,,,,,,,,,,,,,,,,,,,,,,,,,,,,,,
,,,,,,,,,,,,,,,658,2022-06-15_20h44.42.411,multiplicationStroop,2021.2.3,Win32,59.64096141,,,,,right,1,0.5641,0,14,14,59,1,7,7,7 | 7,0,1.4111,1.9756,neutral,right,,,,,,stimulusFile/physical.xlsx,,,,,,,,,,,,,,,,,,,,,,,,,,,,,,,
,,,,,,,,,,,,,,,658,2022-06-15_20h44.42.411,multiplicationStroop,2021.2.3,Win32,59.64096141,,,,,left,1,0.4977,0,15,15,24,1,1,2,1 | 2,1,1.9756,1.4111,incongruent,left,,,,,,stimulusFile/physical.xlsx,,,,,,,,,,,,,,,,,,,,,,,,,,,,,,,
,,,,,,,,,,,,,,,658,2022-06-15_20h44.42.411,multiplicationStroop,2021.2.3,Win32,59.64096141,,,,,right,1,0.5318,0,16,16,37,1,4,2,4 | 2,2,1.4111,1.9756,incongruent,right,,,,,,stimulusFile/physical.xlsx,,,,,,,,,,,,,,,,,,,,,,,,,,,,,,,
,,,,,,,,,,,,,,,658,2022-06-15_20h44.42.411,multiplicationStroop,2021.2.3,Win32,59.64096141,,,,,right,1,0.5452,0,17,17,67,1,4,4,4 | 4,0,1.4111,1.9756,neutral,right,,,,,,stimulusFile/physical.xlsx,,,,,,,,,,,,,,,,,,,,,,,,,,,,,,,
,,,,,,,,,,,,,,,658,2022-06-15_20h44.42.411,multiplicationStroop,2021.2.3,Win32,59.64096141,,,,,left,1,0.5102,0,18,18,52,1,2,2,2 | 2,0,1.9756,1.4111,neutral,left,,,,,,stimulusFile/physical.xlsx,,,,,,,,,,,,,,,,,,,,,,,,,,,,,,,
,,,,,,,,,,,,,,,658,2022-06-15_20h44.42.411,multiplicationStroop,2021.2.3,Win32,59.64096141,,,,,left,0,0.4773,0,19,19,36,1,3,1,3 | 1,2,1.4111,1.9756,incongruent,right,,,,,,stimulusFile/physical.xlsx,,,,,,,,,,,,,,,,,,,,,,,,,,,,,,,
,,,,,,,,,,,,,,,658,2022-06-15_20h44.42.411,multiplicationStroop,2021.2.3,Win32,59.64096141,,,,,left,0,0.4813,0,20,20,66,1,3,3,3 | 3,0,1.9756,1.4111,neutral,right,,,,,,stimulusFile/physical.xlsx,,,,,,,,,,,,,,,,,,,,,,,,,,,,,,,
,,,,,,,,,,,,,,,658,2022-06-15_20h44.42.411,multiplicationStroop,2021.2.3,Win32,59.64096141,,,,,right,0,0.3943,0,21,21,71,1,9,9,9 | 9,0,1.4111,1.9756,neutral,left,,,,,,stimulusFile/physical.xlsx,,,,,,,,,,,,,,,,,,,,,,,,,,,,,,,
,,,,,,,,,,,,,,,658,2022-06-15_20h44.42.411,multiplicationStroop,2021.2.3,Win32,59.64096141,,,,,left,1,0.5104,0,22,22,32,1,1,3,1 | 3,2,1.9756,1.4111,incongruent,left,,,,,,stimulusFile/physical.xlsx,,,,,,,,,,,,,,,,,,,,,,,,,,,,,,,
,,,,,,,,,,,,,,,658,2022-06-15_20h44.42.411,multiplicationStroop,2021.2.3,Win32,59.64096141,,,,,left,1,0.5097,0,23,23,27,1,8,9,8 | 9,1,1.9756,1.4111,incongruent,left,,,,,,stimulusFile/physical.xlsx,,,,,,,,,,,,,,,,,,,,,,,,,,,,,,,
,,,,,,,,,,,,,,,658,2022-06-15_20h44.42.411,multiplicationStroop,2021.2.3,Win32,59.64096141,,,,,left,1,0.545,0,24,24,35,1,7,9,7 | 9,2,1.9756,1.4111,incongruent,left,,,,,,stimulusFile/physical.xlsx,,,,,,,,,,,,,,,,,,,,,,,,,,,,,,,
,,,,,,,,,,,,,,,658,2022-06-15_20h44.42.411,multiplicationStroop,2021.2.3,Win32,59.64096141,,,,,left,1,0.3825,0,25,25,54,1,7,7,7 | 7,0,1.9756,1.4111,neutral,left,,,,,,stimulusFile/physical.xlsx,,,,,,,,,,,,,,,,,,,,,,,,,,,,,,,
,,,,,,,,,,,,,,,658,2022-06-15_20h44.42.411,multiplicationStroop,2021.2.3,Win32,59.64096141,,,,,right,1,0.4942,0,26,26,58,1,6,6,6 | 6,0,1.4111,1.9756,neutral,right,,,,,,stimulusFile/physical.xlsx,,,,,,,,,,,,,,,,,,,,,,,,,,,,,,,
,,,,,,,,,,,,,,,658,2022-06-15_20h44.42.411,multiplicationStroop,2021.2.3,Win32,59.64096141,,,,,left,1,0.5076,0,27,27,6,1,7,6,7 | 6,1,1.9756,1.4111,congruent,left,,,,,,stimulusFile/physical.xlsx,,,,,,,,,,,,,,,,,,,,,,,,,,,,,,,
,,,,,,,,,,,,,,,658,2022-06-15_20h44.42.411,multiplicationStroop,2021.2.3,Win32,59.64096141,,,,,left,1,0.444,0,28,28,7,1,9,8,9 | 8,1,1.9756,1.4111,congruent,left,,,,,,stimulusFile/physical.xlsx,,,,,,,,,,,,,,,,,,,,,,,,,,,,,,,
,,,,,,,,,,,,,,,658,2022-06-15_20h44.42.411,multiplicationStroop,2021.2.3,Win32,59.64096141,,,,,right,1,0.4983,0,29,29,1,1,3,4,3 | 4,1,1.4111,1.9756,congruent,right,,,,,,stimulusFile/physical.xlsx,,,,,,,,,,,,,,,,,,,,,,,,,,,,,,,
,,,,,,,,,,,,,,,658,2022-06-15_20h44.42.411,multiplicationStroop,2021.2.3,Win32,59.64096141,,,,,right,1,0.5628,0,30,30,62,1,8,8,8 | 8,0,1.4111,1.9756,neutral,right,,,,,,stimulusFile/physical.xlsx,,,,,,,,,,,,,,,,,,,,,,,,,,,,,,,
,,,,,,,,,,,,,,,658,2022-06-15_20h44.42.411,multiplicationStroop,2021.2.3,Win32,59.64096141,,,,,right,1,0.4336,0,31,31,31,1,9,8,9 | 8,1,1.4111,1.9756,incongruent,right,,,,,,stimulusFile/physical.xlsx,,,,,,,,,,,,,,,,,,,,,,,,,,,,,,,
,,,,,,,,,,,,,,,658,2022-06-15_20h44.42.411,multiplicationStroop,2021.2.3,Win32,59.64096141,,,,,left,1,0.4322,0,32,32,12,1,3,1,3 | 1,2,1.9756,1.4111,congruent,left,,,,,,stimulusFile/physical.xlsx,,,,,,,,,,,,,,,,,,,,,,,,,,,,,,,
,,,,,,,,,,,,,,,658,2022-06-15_20h44.42.411,multiplicationStroop,2021.2.3,Win32,59.64096141,,,,,left,1,0.432,0,33,33,5,1,4,3,4 | 3,1,1.9756,1.4111,congruent,left,,,,,,stimulusFile/physical.xlsx,,,,,,,,,,,,,,,,,,,,,,,,,,,,,,,
,,,,,,,,,,,,,,,658,2022-06-15_20h44.42.411,multiplicationStroop,2021.2.3,Win32,59.64096141,,,,,right,1,0.5176,0,34,34,9,1,2,4,2 | 4,2,1.4111,1.9756,congruent,right,,,,,,stimulusFile/physical.xlsx,,,,,,,,,,,,,,,,,,,,,,,,,,,,,,,
,,,,,,,,,,,,,,,658,2022-06-15_20h44.42.411,multiplicationStroop,2021.2.3,Win32,59.64096141,,,,,right,1,0.5328,0,35,35,56,1,1,1,1 | 1,0,1.4111,1.9756,neutral,right,,,,,,stimulusFile/physical.xlsx,,,,,,,,,,,,,,,,,,,,,,,,,,,,,,,
,,,,,,,,,,,,,,,658,2022-06-15_20h44.42.411,multiplicationStroop,2021.2.3,Win32,59.64096141,,,,,left,1,0.4809,0,36,36,13,1,4,2,4 | 2,2,1.9756,1.4111,congruent,left,,,,,,stimulusFile/physical.xlsx,,,,,,,,,,,,,,,,,,,,,,,,,,,,,,,
,,,,,,,,,,,,,,,658,2022-06-15_20h44.42.411,multiplicationStroop,2021.2.3,Win32,59.64096141,,,,,left,1,0.4271,0,37,37,55,1,9,9,9 | 9,0,1.9756,1.4111,neutral,left,,,,,,stimulusFile/physical.xlsx,,,,,,,,,,,,,,,,,,,,,,,,,,,,,,,
,,,,,,,,,,,,,,,658,2022-06-15_20h44.42.411,multiplicationStroop,2021.2.3,Win32,59.64096141,,,,,right,1,0.514,0,38,38,65,1,2,2,2 | 2,0,1.4111,1.9756,neutral,right,,,,,,stimulusFile/physical.xlsx,,,,,,,,,,,,,,,,,,,,,,,,,,,,,,,
,,,,,,,,,,,,,,,658,2022-06-15_20h44.42.411,multiplicationStroop,2021.2.3,Win32,59.64096141,,,,,left,1,0.4933,0,39,39,15,1,9,7,9 | 7,2,1.9756,1.4111,congruent,left,,,,,,stimulusFile/physical.xlsx,,,,,,,,,,,,,,,,,,,,,,,,,,,,,,,
,,,,,,,,,,,,,,,658,2022-06-15_20h44.42.411,multiplicationStroop,2021.2.3,Win32,59.64096141,,,,,left,1,0.6186,0,40,40,43,1,4,9,4 | 9,5,1.9756,1.4111,incongruent,left,,,,,,stimulusFile/physical.xlsx,,,,,,,,,,,,,,,,,,,,,,,,,,,,,,,
,,,,,,,,,,,,,,,658,2022-06-15_20h44.42.411,multiplicationStroop,2021.2.3,Win32,59.64096141,,,,,left,1,0.3977,0,41,41,4,1,2,1,2 | 1,1,1.9756,1.4111,congruent,left,,,,,,stimulusFile/physical.xlsx,,,,,,,,,,,,,,,,,,,,,,,,,,,,,,,
,,,,,,,,,,,,,,,658,2022-06-15_20h44.42.411,multiplicationStroop,2021.2.3,Win32,59.64096141,,,,,left,0,0.3651,0,42,42,44,1,6,1,6 | 1,5,1.4111,1.9756,incongruent,right,,,,,,stimulusFile/physical.xlsx,,,,,,,,,,,,,,,,,,,,,,,,,,,,,,,
,,,,,,,,,,,,,,,658,2022-06-15_20h44.42.411,multiplicationStroop,2021.2.3,Win32,59.64096141,,,,,left,1,0.4933,0,43,43,22,1,8,3,8 | 3,5,1.9756,1.4111,congruent,left,,,,,,stimulusFile/physical.xlsx,,,,,,,,,,,,,,,,,,,,,,,,,,,,,,,
,,,,,,,,,,,,,,,658,2022-06-15_20h44.42.411,multiplicationStroop,2021.2.3,Win32,59.64096141,,,,,left,1,0.4178,0,44,44,26,1,6,7,6 | 7,1,1.9756,1.4111,incongruent,left,,,,,,stimulusFile/physical.xlsx,,,,,,,,,,,,,,,,,,,,,,,,,,,,,,,
,,,,,,,,,,,,,,,658,2022-06-15_20h44.42.411,multiplicationStroop,2021.2.3,Win32,59.64096141,,,,,right,1,0.5285,0,45,45,30,1,7,6,7 | 6,1,1.4111,1.9756,incongruent,right,,,,,,stimulusFile/physical.xlsx,,,,,,,,,,,,,,,,,,,,,,,,,,,,,,,
,,,,,,,,,,,,,,,658,2022-06-15_20h44.42.411,multiplicationStroop,2021.2.3,Win32,59.64096141,,,,,right,1,0.5364,0,46,46,60,1,3,3,3 | 3,0,1.4111,1.9756,neutral,right,,,,,,stimulusFile/physical.xlsx,,,,,,,,,,,,,,,,,,,,,,,,,,,,,,,
,,,,,,,,,,,,,,,658,2022-06-15_20h44.42.411,multiplicationStroop,2021.2.3,Win32,59.64096141,,,,,right,1,0.4105,0,47,47,63,1,9,9,9 | 9,0,1.4111,1.9756,neutral,right,,,,,,stimulusFile/physical.xlsx,,,,,,,,,,,,,,,,,,,,,,,,,,,,,,,
,,,,,,,,,,,,,,,658,2022-06-15_20h44.42.411,multiplicationStroop,2021.2.3,Win32,59.64096141,,,,,right,0,0.4625,0,48,48,69,1,7,7,7 | 7,0,1.4111,1.9756,neutral,left,,,,,,stimulusFile/physical.xlsx,,,,,,,,,,,,,,,,,,,,,,,,,,,,,,,
,,,,,,,,,,,,,,,658,2022-06-15_20h44.42.411,multiplicationStroop,2021.2.3,Win32,59.64096141,,,,,right,1,0.5947,0,49,49,38,1,8,6,8 | 6,2,1.4111,1.9756,incongruent,right,,,,,,stimulusFile/physical.xlsx,,,,,,,,,,,,,,,,,,,,,,,,,,,,,,,
,,,,,,,,,,,,,,,658,2022-06-15_20h44.42.411,multiplicationStroop,2021.2.3,Win32,59.64096141,,,,,right,1,0.402,0,50,50,11,1,7,9,7 | 9,2,1.4111,1.9756,congruent,right,,,,,,stimulusFile/physical.xlsx,,,,,,,,,,,,,,,,,,,,,,,,,,,,,,,
,,,,,,,,,,,,,,,658,2022-06-15_20h44.42.411,multiplicationStroop,2021.2.3,Win32,59.64096141,,,,,right,1,0.3767,0,51,51,61,1,4,4,4 | 4,0,1.4111,1.9756,neutral,right,,,,,,stimulusFile/physical.xlsx,,,,,,,,,,,,,,,,,,,,,,,,,,,,,,,
,,,,,,,,,,,,,,,658,2022-06-15_20h44.42.411,multiplicationStroop,2021.2.3,Win32,59.64096141,,,,,right,1,0.3452,0,52,52,39,1,9,7,9 | 7,2,1.4111,1.9756,incongruent,right,,,,,,stimulusFile/physical.xlsx,,,,,,,,,,,,,,,,,,,,,,,,,,,,,,,
,,,,,,,,,,,,,,,658,2022-06-15_20h44.42.411,multiplicationStroop,2021.2.3,Win32,59.64096141,,,,,right,1,0.6442,0,53,53,0,1,1,2,1 | 2,1,1.4111,1.9756,congruent,right,,,,,,stimulusFile/physical.xlsx,,,,,,,,,,,,,,,,,,,,,,,,,,,,,,,
,,,,,,,,,,,,,,,658,2022-06-15_20h44.42.411,multiplicationStroop,2021.2.3,Win32,59.64096141,,,,,left,1,0.5775,0,54,54,53,1,4,4,4 | 4,0,1.9756,1.4111,neutral,left,,,,,,stimulusFile/physical.xlsx,,,,,,,,,,,,,,,,,,,,,,,,,,,,,,,
,,,,,,,,,,,,,,,658,2022-06-15_20h44.42.411,multiplicationStroop,2021.2.3,Win32,59.64096141,,,,,left,1,0.3992,0,55,55,25,1,3,4,3 | 4,1,1.9756,1.4111,incongruent,left,,,,,,stimulusFile/physical.xlsx,,,,,,,,,,,,,,,,,,,,,,,,,,,,,,,
,,,,,,,,,,,,,,,658,2022-06-15_20h44.42.411,multiplicationStroop,2021.2.3,Win32,59.64096141,,,,,right,1,0.4369,0,56,56,16,1,1,6,1 | 6,5,1.4111,1.9756,congruent,right,,,,,,stimulusFile/physical.xlsx,,,,,,,,,,,,,,,,,,,,,,,,,,,,,,,
,,,,,,,,,,,,,,,658,2022-06-15_20h44.42.411,multiplicationStroop,2021.2.3,Win32,59.64096141,,,,,right,1,0.3646,0,57,57,2,1,6,7,6 | 7,1,1.4111,1.9756,congruent,right,,,,,,stimulusFile/physical.xlsx,,,,,,,,,,,,,,,,,,,,,,,,,,,,,,,
,,,,,,,,,,,,,,,658,2022-06-15_20h44.42.411,multiplicationStroop,2021.2.3,Win32,59.64096141,,,,,right,1,0.7925,0,58,58,28,1,2,1,2 | 1,1,1.4111,1.9756,incongruent,right,,,,,,stimulusFile/physical.xlsx,,,,,,,,,,,,,,,,,,,,,,,,,,,,,,,
,,,,,,,,,,,,,,,658,2022-06-15_20h44.42.411,multiplicationStroop,2021.2.3,Win32,59.64096141,,,,,right,1,0.3759,0,59,59,10,1,6,8,6 | 8,2,1.4111,1.9756,congruent,right,,,,,,stimulusFile/physical.xlsx,,,,,,,,,,,,,,,,,,,,,,,,,,,,,,,
,,,,,,,,,,,,,,,658,2022-06-15_20h44.42.411,multiplicationStroop,2021.2.3,Win32,59.64096141,,,,,left,1,0.6345,0,60,60,40,1,1,6,1 | 6,5,1.9756,1.4111,incongruent,left,,,,,,stimulusFile/physical.xlsx,,,,,,,,,,,,,,,,,,,,,,,,,,,,,,,
,,,,,,,,,,,,,,,658,2022-06-15_20h44.42.411,multiplicationStroop,2021.2.3,Win32,59.64096141,,,,,right,1,0.4609,0,61,61,57,1,2,2,2 | 2,0,1.4111,1.9756,neutral,right,,,,,,stimulusFile/physical.xlsx,,,,,,,,,,,,,,,,,,,,,,,,,,,,,,,
,,,,,,,,,,,,,,,658,2022-06-15_20h44.42.411,multiplicationStroop,2021.2.3,Win32,59.64096141,,,,,right,1,0.4334,0,62,62,8,1,1,3,1 | 3,2,1.4111,1.9756,congruent,right,,,,,,stimulusFile/physical.xlsx,,,,,,,,,,,,,,,,,,,,,,,,,,,,,,,
,,,,,,,,,,,,,,,658,2022-06-15_20h44.42.411,multiplicationStroop,2021.2.3,Win32,59.64096141,,,,,left,1,0.4642,0,63,63,49,1,3,3,3 | 3,0,1.9756,1.4111,neutral,left,,,,,,stimulusFile/physical.xlsx,,,,,,,,,,,,,,,,,,,,,,,,,,,,,,,
,,,,,,,,,,,,,,,658,2022-06-15_20h44.42.411,multiplicationStroop,2021.2.3,Win32,59.64096141,,,,,left,0,0.4111,0,64,64,64,1,1,1,1 | 1,0,1.9756,1.4111,neutral,right,,,,,,stimulusFile/physical.xlsx,,,,,,,,,,,,,,,,,,,,,,,,,,,,,,,
,,,,,,,,,,,,,,,658,2022-06-15_20h44.42.411,multiplicationStroop,2021.2.3,Win32,59.64096141,,,,,left,1,0.4997,0,65,65,70,1,8,8,8 | 8,0,1.9756,1.4111,neutral,left,,,,,,stimulusFile/physical.xlsx,,,,,,,,,,,,,,,,,,,,,,,,,,,,,,,
,,,,,,,,,,,,,,,658,2022-06-15_20h44.42.411,multiplicationStroop,2021.2.3,Win32,59.64096141,,,,,left,1,0.4438,0,66,66,33,1,2,4,2 | 4,2,1.9756,1.4111,incongruent,left,,,,,,stimulusFile/physical.xlsx,,,,,,,,,,,,,,,,,,,,,,,,,,,,,,,
,,,,,,,,,,,,,,,658,2022-06-15_20h44.42.411,multiplicationStroop,2021.2.3,Win32,59.64096141,,,,,left,1,0.4104,0,67,67,20,1,6,1,6 | 1,5,1.9756,1.4111,congruent,left,,,,,,stimulusFile/physical.xlsx,,,,,,,,,,,,,,,,,,,,,,,,,,,,,,,
,,,,,,,,,,,,,,,658,2022-06-15_20h44.42.411,multiplicationStroop,2021.2.3,Win32,59.64096141,,,,,right,1,0.5263,0,68,68,17,1,2,7,2 | 7,5,1.4111,1.9756,congruent,right,,,,,,stimulusFile/physical.xlsx,,,,,,,,,,,,,,,,,,,,,,,,,,,,,,,
,,,,,,,,,,,,,,,658,2022-06-15_20h44.42.411,multiplicationStroop,2021.2.3,Win32,59.64096141,,,,,left,1,0.5214,0,69,69,51,1,8,8,8 | 8,0,1.9756,1.4111,neutral,left,,,,,,stimulusFile/physical.xlsx,,,,,,,,,,,,,,,,,,,,,,,,,,,,,,,
,,,,,,,,,,,,,,,658,2022-06-15_20h44.42.411,multiplicationStroop,2021.2.3,Win32,59.64096141,,,,,left,1,0.4508,0,70,70,23,1,9,4,9 | 4,5,1.9756,1.4111,congruent,left,,,,,,stimulusFile/physical.xlsx,,,,,,,,,,,,,,,,,,,,,,,,,,,,,,,
,,,,,,,,,,,,,,,658,2022-06-15_20h44.42.411,multiplicationStroop,2021.2.3,Win32,59.64096141,,,,,left,1,0.4228,0,71,71,41,1,2,7,2 | 7,5,1.9756,1.4111,incongruent,left,,,,,,stimulusFile/physical.xlsx,,,,,,,,,,,,,,,,,,,,,,,,,,,,,,,
,,,,,,,,,,,,,,,658,2022-06-15_20h44.42.411,multiplicationStroop,2021.2.3,Win32,59.64096141,,,,,,,,,,,,,,,,,,,,,0,0,0,1,1,stimulusFile/physical.xlsx,PHYSICALLY larger (larger font size).,images/physicallyLarger.png,,,,,,,,,,,,,,,,,,,,,,,,,,,,,
,,,,,,,,,,,,,,,658,2022-06-15_20h44.42.411,multiplicationStroop,2021.2.3,Win32,59.64096141,space,0.9182,space,0.8457,left,1,0.5017,0,0,0,69,1,7,2,7 | 2,5,1.6933,1.6933,neutral,left,,,,,,stimulusFile/magnitude.xlsx,,,,,,,,,,,,,,,,,,,,,,,,,,,,,,,
,,,,,,,,,,,,,,,658,2022-06-15_20h44.42.411,multiplicationStroop,2021.2.3,Win32,59.64096141,,,,,left,1,0.4183,0,1,1,23,1,9,4,9 | 4,5,1.9756,1.4111,congruent,left,,,,,,stimulusFile/magnitude.xlsx,,,,,,,,,,,,,,,,,,,,,,,,,,,,,,,
,,,,,,,,,,,,,,,658,2022-06-15_20h44.42.411,multiplicationStroop,2021.2.3,Win32,59.64096141,,,,,right,1,0.4524,0,2,2,11,1,7,9,7 | 9,2,1.4111,1.9756,congruent,right,,,,,,stimulusFile/magnitude.xlsx,,,,,,,,,,,,,,,,,,,,,,,,,,,,,,,
,,,,,,,,,,,,,,,658,2022-06-15_20h44.42.411,multiplicationStroop,2021.2.3,Win32,59.64096141,,,,,left,1,0.4014,0,3,3,21,1,7,2,7 | 2,5,1.9756,1.4111,congruent,left,,,,,,stimulusFile/magnitude.xlsx,,,,,,,,,,,,,,,,,,,,,,,,,,,,,,,
,,,,,,,,,,,,,,,658,2022-06-15_20h44.42.411,multiplicationStroop,2021.2.3,Win32,59.64096141,,,,,right,1,0.4562,0,4,4,42,1,3,8,3 | 8,5,1.9756,1.4111,incongruent,right,,,,,,stimulusFile/magnitude.xlsx,,,,,,,,,,,,,,,,,,,,,,,,,,,,,,,
,,,,,,,,,,,,,,,658,2022-06-15_20h44.42.411,multiplicationStroop,2021.2.3,Win32,59.64096141,,,,,left,0,0.3011,0,5,5,66,1,3,8,3 | 8,5,1.6933,1.6933,neutral,right,,,,,,stimulusFile/magnitude.xlsx,,,,,,,,,,,,,,,,,,,,,,,,,,,,,,,
,,,,,,,,,,,,,,,658,2022-06-15_20h44.42.411,multiplicationStroop,2021.2.3,Win32,59.64096141,,,,,left,1,0.3348,0,6,6,12,1,3,1,3 | 1,2,1.9756,1.4111,congruent,left,,,,,,stimulusFile/magnitude.xlsx,,,,,,,,,,,,,,,,,,,,,,,,,,,,,,,
,,,,,,,,,,,,,,,658,2022-06-15_20h44.42.411,multiplicationStroop,2021.2.3,Win32,59.64096141,,,,,right,1,0.4844,0,7,7,56,1,1,3,1 | 3,2,1.6933,1.6933,neutral,right,,,,,,stimulusFile/magnitude.xlsx,,,,,,,,,,,,,,,,,,,,,,,,,,,,,,,
,,,,,,,,,,,,,,,658,2022-06-15_20h44.42.411,multiplicationStroop,2021.2.3,Win32,59.64096141,,,,,left,1,0.4394,0,8,8,46,1,8,3,8 | 3,5,1.4111,1.9756,incongruent,left,,,,,,stimulusFile/magnitude.xlsx,,,,,,,,,,,,,,,,,,,,,,,,,,,,,,,
,,,,,,,,,,,,,,,658,2022-06-15_20h44.42.411,multiplicationStroop,2021.2.3,Win32,59.64096141,,,,,left,1,0.4179,0,9,9,44,1,6,1,6 | 1,5,1.4111,1.9756,incongruent,left,,,,,,stimulusFile/magnitude.xlsx,,,,,,,,,,,,,,,,,,,,,,,,,,,,,,,
,,,,,,,,,,,,,,,658,2022-06-15_20h44.42.411,multiplicationStroop,2021.2.3,Win32,59.64096141,,,,,right,0,0.456,0,10,10,31,1,9,8,9 | 8,1,1.4111,1.9756,incongruent,left,,,,,,stimulusFile/magnitude.xlsx,,,,,,,,,,,,,,,,,,,,,,,,,,,,,,,
,,,,,,,,,,,,,,,658,2022-06-15_20h44.42.411,multiplicationStroop,2021.2.3,Win32,59.64096141,,,,,right,0,0.6512,0,11,11,29,1,4,3,4 | 3,1,1.4111,1.9756,incongruent,left,,,,,,stimulusFile/magnitude.xlsx,,,,,,,,,,,,,,,,,,,,,,,,,,,,,,,
,,,,,,,,,,,,,,,658,2022-06-15_20h44.42.411,multiplicationStroop,2021.2.3,Win32,59.64096141,,,,,right,1,0.6058,0,12,12,51,1,8,9,8 | 9,1,1.6933,1.6933,neutral,right,,,,,,stimulusFile/magnitude.xlsx,,,,,,,,,,,,,,,,,,,,,,,,,,,,,,,
,,,,,,,,,,,,,,,658,2022-06-15_20h44.42.411,multiplicationStroop,2021.2.3,Win32,59.64096141,,,,,left,0,0.6722,0,13,13,8,1,1,3,1 | 3,2,1.4111,1.9756,congruent,right,,,,,,stimulusFile/magnitude.xlsx,,,,,,,,,,,,,,,,,,,,,,,,,,,,,,,
,,,,,,,,,,,,,,,658,2022-06-15_20h44.42.411,multiplicationStroop,2021.2.3,Win32,59.64096141,,,,,right,1,0.418,0,14,14,17,1,2,7,2 | 7,5,1.4111,1.9756,congruent,right,,,,,,stimulusFile/magnitude.xlsx,,,,,,,,,,,,,,,,,,,,,,,,,,,,,,,
,,,,,,,,,,,,,,,658,2022-06-15_20h44.42.411,multiplicationStroop,2021.2.3,Win32,59.64096141,,,,,right,1,0.5674,0,15,15,67,1,4,9,4 | 9,5,1.6933,1.6933,neutral,right,,,,,,stimulusFile/magnitude.xlsx,,,,,,,,,,,,,,,,,,,,,,,,,,,,,,,
,,,,,,,,,,,,,,,658,2022-06-15_20h44.42.411,multiplicationStroop,2021.2.3,Win32,59.64096141,,,,,right,1,0.4517,0,16,16,18,1,3,8,3 | 8,5,1.4111,1.9756,congruent,right,,,,,,stimulusFile/magnitude.xlsx,,,,,,,,,,,,,,,,,,,,,,,,,,,,,,,
,,,,,,,,,,,,,,,658,2022-06-15_20h44.42.411,multiplicationStroop,2021.2.3,Win32,59.64096141,,,,,right,1,0.4526,0,17,17,16,1,1,6,1 | 6,5,1.4111,1.9756,congruent,right,,,,,,stimulusFile/magnitude.xlsx,,,,,,,,,,,,,,,,,,,,,,,,,,,,,,,
,,,,,,,,,,,,,,,658,2022-06-15_20h44.42.411,multiplicationStroop,2021.2.3,Win32,59.64096141,,,,,left,1,0.6014,0,18,18,55,1,9,8,9 | 8,1,1.6933,1.6933,neutral,left,,,,,,stimulusFile/magnitude.xlsx,,,,,,,,,,,,,,,,,,,,,,,,,,,,,,,
,,,,,,,,,,,,,,,658,2022-06-15_20h44.42.411,multiplicationStroop,2021.2.3,Win32,59.64096141,,,,,right,1,0.3852,0,19,19,0,1,1,2,1 | 2,1,1.4111,1.9756,congruent,right,,,,,,stimulusFile/magnitude.xlsx,,,,,,,,,,,,,,,,,,,,,,,,,,,,,,,
,,,,,,,,,,,,,,,658,2022-06-15_20h44.42.411,multiplicationStroop,2021.2.3,Win32,59.64096141,,,,,right,0,0.5364,0,20,20,47,1,9,4,9 | 4,5,1.4111,1.9756,incongruent,left,,,,,,stimulusFile/magnitude.xlsx,,,,,,,,,,,,,,,,,,,,,,,,,,,,,,,
,,,,,,,,,,,,,,,658,2022-06-15_20h44.42.411,multiplicationStroop,2021.2.3,Win32,59.64096141,,,,,left,0,0.6694,0,21,21,64,1,1,6,1 | 6,5,1.6933,1.6933,neutral,right,,,,,,stimulusFile/magnitude.xlsx,,,,,,,,,,,,,,,,,,,,,,,,,,,,,,,
,,,,,,,,,,,,,,,658,2022-06-15_20h44.42.411,multiplicationStroop,2021.2.3,Win32,59.64096141,,,,,right,0,0.3739,0,22,22,6,1,7,6,7 | 6,1,1.9756,1.4111,congruent,left,,,,,,stimulusFile/magnitude.xlsx,,,,,,,,,,,,,,,,,,,,,,,,,,,,,,,
,,,,,,,,,,,,,,,658,2022-06-15_20h44.42.411,multiplicationStroop,2021.2.3,Win32,59.64096141,,,,,left,1,0.3012,0,23,23,45,1,7,2,7 | 2,5,1.4111,1.9756,incongruent,left,,,,,,stimulusFile/magnitude.xlsx,,,,,,,,,,,,,,,,,,,,,,,,,,,,,,,
,,,,,,,,,,,,,,,658,2022-06-15_20h44.42.411,multiplicationStroop,2021.2.3,Win32,59.64096141,,,,,right,1,0.5014,0,24,24,49,1,3,4,3 | 4,1,1.6933,1.6933,neutral,right,,,,,,stimulusFile/magnitude.xlsx,,,,,,,,,,,,,,,,,,,,,,,,,,,,,,,
,,,,,,,,,,,,,,,658,2022-06-15_20h44.42.411,multiplicationStroop,2021.2.3,Win32,59.64096141,,,,,left,0,0.4902,0,25,25,65,1,2,7,2 | 7,5,1.6933,1.6933,neutral,right,,,,,,stimulusFile/magnitude.xlsx,,,,,,,,,,,,,,,,,,,,,,,,,,,,,,,
,,,,,,,,,,,,,,,658,2022-06-15_20h44.42.411,multiplicationStroop,2021.2.3,Win32,59.64096141,,,,,left,1,0.6717,0,26,26,71,1,9,4,9 | 4,5,1.6933,1.6933,neutral,left,,,,,,stimulusFile/magnitude.xlsx,,,,,,,,,,,,,,,,,,,,,,,,,,,,,,,
,,,,,,,,,,,,,,,658,2022-06-15_20h44.42.411,multiplicationStroop,2021.2.3,Win32,59.64096141,,,,,left,0,0.4847,0,27,27,43,1,4,9,4 | 9,5,1.9756,1.4111,incongruent,right,,,,,,stimulusFile/magnitude.xlsx,,,,,,,,,,,,,,,,,,,,,,,,,,,,,,,
,,,,,,,,,,,,,,,658,2022-06-15_20h44.42.411,multiplicationStroop,2021.2.3,Win32,59.64096141,,,,,left,1,0.521,0,28,28,7,1,9,8,9 | 8,1,1.9756,1.4111,congruent,left,,,,,,stimulusFile/magnitude.xlsx,,,,,,,,,,,,,,,,,,,,,,,,,,,,,,,
,,,,,,,,,,,,,,,658,2022-06-15_20h44.42.411,multiplicationStroop,2021.2.3,Win32,59.64096141,,,,,left,0,0.4223,0,29,29,34,1,6,8,6 | 8,2,1.9756,1.4111,incongruent,right,,,,,,stimulusFile/magnitude.xlsx,,,,,,,,,,,,,,,,,,,,,,,,,,,,,,,
,,,,,,,,,,,,,,,658,2022-06-15_20h44.42.411,multiplicationStroop,2021.2.3,Win32,59.64096141,,,,,left,1,0.4681,0,30,30,14,1,8,6,8 | 6,2,1.9756,1.4111,congruent,left,,,,,,stimulusFile/magnitude.xlsx,,,,,,,,,,,,,,,,,,,,,,,,,,,,,,,
,,,,,,,,,,,,,,,658,2022-06-15_20h44.42.411,multiplicationStroop,2021.2.3,Win32,59.64096141,,,,,right,0,0.6512,0,31,31,61,1,4,2,4 | 2,2,1.6933,1.6933,neutral,left,,,,,,stimulusFile/magnitude.xlsx,,,,,,,,,,,,,,,,,,,,,,,,,,,,,,,
,,,,,,,,,,,,,,,658,2022-06-15_20h44.42.411,multiplicationStroop,2021.2.3,Win32,59.64096141,,,,,left,0,0.4332,0,32,32,24,1,1,2,1 | 2,1,1.9756,1.4111,incongruent,right,,,,,,stimulusFile/magnitude.xlsx,,,,,,,,,,,,,,,,,,,,,,,,,,,,,,,
,,,,,,,,,,,,,,,658,2022-06-15_20h44.42.411,multiplicationStroop,2021.2.3,Win32,59.64096141,,,,,right,1,0.5017,0,33,33,57,1,2,4,2 | 4,2,1.6933,1.6933,neutral,right,,,,,,stimulusFile/magnitude.xlsx,,,,,,,,,,,,,,,,,,,,,,,,,,,,,,,
,,,,,,,,,,,,,,,658,2022-06-15_20h44.42.411,multiplicationStroop,2021.2.3,Win32,59.64096141,,,,,left,1,0.401,0,34,34,20,1,6,1,6 | 1,5,1.9756,1.4111,congruent,left,,,,,,stimulusFile/magnitude.xlsx,,,,,,,,,,,,,,,,,,,,,,,,,,,,,,,
,,,,,,,,,,,,,,,658,2022-06-15_20h44.42.411,multiplicationStroop,2021.2.3,Win32,59.64096141,,,,,left,0,0.4344,0,35,35,32,1,1,3,1 | 3,2,1.9756,1.4111,incongruent,right,,,,,,stimulusFile/magnitude.xlsx,,,,,,,,,,,,,,,,,,,,,,,,,,,,,,,
,,,,,,,,,,,,,,,658,2022-06-15_20h44.42.411,multiplicationStroop,2021.2.3,Win32,59.64096141,,,,,right,0,0.5352,0,36,36,37,1,4,2,4 | 2,2,1.4111,1.9756,incongruent,left,,,,,,stimulusFile/magnitude.xlsx,,,,,,,,,,,,,,,,,,,,,,,,,,,,,,,
,,,,,,,,,,,,,,,658,2022-06-15_20h44.42.411,multiplicationStroop,2021.2.3,Win32,59.64096141,,,,,left,1,0.5176,0,37,37,15,1,9,7,9 | 7,2,1.9756,1.4111,congruent,left,,,,,,stimulusFile/magnitude.xlsx,,,,,,,,,,,,,,,,,,,,,,,,,,,,,,,
,,,,,,,,,,,,,,,658,2022-06-15_20h44.42.411,multiplicationStroop,2021.2.3,Win32,59.64096141,,,,,left,1,0.4349,0,38,38,68,1,6,1,6 | 1,5,1.6933,1.6933,neutral,left,,,,,,stimulusFile/magnitude.xlsx,,,,,,,,,,,,,,,,,,,,,,,,,,,,,,,
,,,,,,,,,,,,,,,658,2022-06-15_20h44.42.411,multiplicationStroop,2021.2.3,Win32,59.64096141,,,,,left,1,0.5341,0,39,39,70,1,8,3,8 | 3,5,1.6933,1.6933,neutral,left,,,,,,stimulusFile/magnitude.xlsx,,,,,,,,,,,,,,,,,,,,,,,,,,,,,,,
,,,,,,,,,,,,,,,658,2022-06-15_20h44.42.411,multiplicationStroop,2021.2.3,Win32,59.64096141,,,,,left,0,0.5346,0,40,40,26,1,6,7,6 | 7,1,1.9756,1.4111,incongruent,right,,,,,,stimulusFile/magnitude.xlsx,,,,,,,,,,,,,,,,,,,,,,,,,,,,,,,
,,,,,,,,,,,,,,,658,2022-06-15_20h44.42.411,multiplicationStroop,2021.2.3,Win32,59.64096141,,,,,right,1,0.5044,0,41,41,9,1,2,4,2 | 4,2,1.4111,1.9756,congruent,right,,,,,,stimulusFile/magnitude.xlsx,,,,,,,,,,,,,,,,,,,,,,,,,,,,,,,
,,,,,,,,,,,,,,,658,2022-06-15_20h44.42.411,multiplicationStroop,2021.2.3,Win32,59.64096141,,,,,left,0,0.5174,0,42,42,33,1,2,4,2 | 4,2,1.9756,1.4111,incongruent,right,,,,,,stimulusFile/magnitude.xlsx,,,,,,,,,,,,,,,,,,,,,,,,,,,,,,,
,,,,,,,,,,,,,,,658,2022-06-15_20h44.42.411,multiplicationStroop,2021.2.3,Win32,59.64096141,,,,,right,0,0.7845,0,43,43,28,1,2,1,2 | 1,1,1.4111,1.9756,incongruent,left,,,,,,stimulusFile/magnitude.xlsx,,,,,,,,,,,,,,,,,,,,,,,,,,,,,,,
,,,,,,,,,,,,,,,658,2022-06-15_20h44.42.411,multiplicationStroop,2021.2.3,Win32,59.64096141,,,,,right,1,0.4848,0,44,44,10,1,6,8,6 | 8,2,1.4111,1.9756,congruent,right,,,,,,stimulusFile/magnitude.xlsx,,,,,,,,,,,,,,,,,,,,,,,,,,,,,,,
,,,,,,,,,,,,,,,658,2022-06-15_20h44.42.411,multiplicationStroop,2021.2.3,Win32,59.64096141,,,,,left,0,0.5053,0,45,45,41,1,2,7,2 | 7,5,1.9756,1.4111,incongruent,right,,,,,,stimulusFile/magnitude.xlsx,,,,,,,,,,,,,,,,,,,,,,,,,,,,,,,
,,,,,,,,,,,,,,,658,2022-06-15_20h44.42.411,multiplicationStroop,2021.2.3,Win32,59.64096141,,,,,right,1,0.4345,0,46,46,3,1,8,9,8 | 9,1,1.4111,1.9756,congruent,right,,,,,,stimulusFile/magnitude.xlsx,,,,,,,,,,,,,,,,,,,,,,,,,,,,,,,
,,,,,,,,,,,,,,,658,2022-06-15_20h44.42.411,multiplicationStroop,2021.2.3,Win32,59.64096141,,,,,right,0,0.5018,0,47,47,36,1,3,1,3 | 1,2,1.4111,1.9756,incongruent,left,,,,,,stimulusFile/magnitude.xlsx,,,,,,,,,,,,,,,,,,,,,,,,,,,,,,,
,,,,,,,,,,,,,,,658,2022-06-15_20h44.42.411,multiplicationStroop,2021.2.3,Win32,59.64096141,,,,,left,1,0.4681,0,48,48,13,1,4,2,4 | 2,2,1.9756,1.4111,congruent,left,,,,,,stimulusFile/magnitude.xlsx,,,,,,,,,,,,,,,,,,,,,,,,,,,,,,,
,,,,,,,,,,,,,,,658,2022-06-15_20h44.42.411,multiplicationStroop,2021.2.3,Win32,59.64096141,,,,,left,1,0.4191,0,49,49,60,1,3,1,3 | 1,2,1.6933,1.6933,neutral,left,,,,,,stimulusFile/magnitude.xlsx,,,,,,,,,,,,,,,,,,,,,,,,,,,,,,,
,,,,,,,,,,,,,,,658,2022-06-15_20h44.42.411,multiplicationStroop,2021.2.3,Win32,59.64096141,,,,,right,0,0.4677,0,50,50,54,1,7,6,7 | 6,1,1.6933,1.6933,neutral,left,,,,,,stimulusFile/magnitude.xlsx,,,,,,,,,,,,,,,,,,,,,,,,,,,,,,,
,,,,,,,,,,,,,,,658,2022-06-15_20h44.42.411,multiplicationStroop,2021.2.3,Win32,59.64096141,,,,,left,0,0.3348,0,51,51,59,1,7,9,7 | 9,2,1.6933,1.6933,neutral,right,,,,,,stimulusFile/magnitude.xlsx,,,,,,,,,,,,,,,,,,,,,,,,,,,,,,,
,,,,,,,,,,,,,,,658,2022-06-15_20h44.42.411,multiplicationStroop,2021.2.3,Win32,59.64096141,,,,,right,0,0.4178,0,52,52,30,1,7,6,7 | 6,1,1.4111,1.9756,incongruent,left,,,,,,stimulusFile/magnitude.xlsx,,,,,,,,,,,,,,,,,,,,,,,,,,,,,,,
,,,,,,,,,,,,,,,658,2022-06-15_20h44.42.411,multiplicationStroop,2021.2.3,Win32,59.64096141,,,,,left,1,0.5028,0,53,53,63,1,9,7,9 | 7,2,1.6933,1.6933,neutral,left,,,,,,stimulusFile/magnitude.xlsx,,,,,,,,,,,,,,,,,,,,,,,,,,,,,,,
,,,,,,,,,,,,,,,658,2022-06-15_20h44.42.411,multiplicationStroop,2021.2.3,Win32,59.64096141,,,,,right,1,0.4507,0,54,54,19,1,4,9,4 | 9,5,1.4111,1.9756,congruent,right,,,,,,stimulusFile/magnitude.xlsx,,,,,,,,,,,,,,,,,,,,,,,,,,,,,,,
,,,,,,,,,,,,,,,658,2022-06-15_20h44.42.411,multiplicationStroop,2021.2.3,Win32,59.64096141,,,,,right,0,0.4179,0,55,55,38,1,8,6,8 | 6,2,1.4111,1.9756,incongruent,left,,,,,,stimulusFile/magnitude.xlsx,,,,,,,,,,,,,,,,,,,,,,,,,,,,,,,
,,,,,,,,,,,,,,,658,2022-06-15_20h44.42.411,multiplicationStroop,2021.2.3,Win32,59.64096141,,,,,left,0,0.6846,0,56,56,48,1,1,2,1 | 2,1,1.6933,1.6933,neutral,right,,,,,,stimulusFile/magnitude.xlsx,,,,,,,,,,,,,,,,,,,,,,,,,,,,,,,
,,,,,,,,,,,,,,,658,2022-06-15_20h44.42.411,multiplicationStroop,2021.2.3,Win32,59.64096141,,,,,left,1,0.5009,0,57,57,5,1,4,3,4 | 3,1,1.9756,1.4111,congruent,left,,,,,,stimulusFile/magnitude.xlsx,,,,,,,,,,,,,,,,,,,,,,,,,,,,,,,
,,,,,,,,,,,,,,,658,2022-06-15_20h44.42.411,multiplicationStroop,2021.2.3,Win32,59.64096141,,,,,left,1,0.4352,0,58,58,22,1,8,3,8 | 3,5,1.9756,1.4111,congruent,left,,,,,,stimulusFile/magnitude.xlsx,,,,,,,,,,,,,,,,,,,,,,,,,,,,,,,
,,,,,,,,,,,,,,,658,2022-06-15_20h44.42.411,multiplicationStroop,2021.2.3,Win32,59.64096141,,,,,left,1,0.9215,0,59,59,53,1,4,3,4 | 3,1,1.6933,1.6933,neutral,left,,,,,,stimulusFile/magnitude.xlsx,,,,,,,,,,,,,,,,,,,,,,,,,,,,,,,
,,,,,,,,,,,,,,,658,2022-06-15_20h44.42.411,multiplicationStroop,2021.2.3,Win32,59.64096141,,,,,right,1,0.4182,0,60,60,2,1,6,7,6 | 7,1,1.4111,1.9756,congruent,right,,,,,,stimulusFile/magnitude.xlsx,,,,,,,,,,,,,,,,,,,,,,,,,,,,,,,
,,,,,,,,,,,,,,,658,2022-06-15_20h44.42.411,multiplicationStroop,2021.2.3,Win32,59.64096141,,,,,left,0,0.6547,0,61,61,40,1,1,6,1 | 6,5,1.9756,1.4111,incongruent,right,,,,,,stimulusFile/magnitude.xlsx,,,,,,,,,,,,,,,,,,,,,,,,,,,,,,,
,,,,,,,,,,,,,,,658,2022-06-15_20h44.42.411,multiplicationStroop,2021.2.3,Win32,59.64096141,,,,,right,0,0.6343,0,62,62,62,1,8,6,8 | 6,2,1.6933,1.6933,neutral,left,,,,,,stimulusFile/magnitude.xlsx,,,,,,,,,,,,,,,,,,,,,,,,,,,,,,,
,,,,,,,,,,,,,,,658,2022-06-15_20h44.42.411,multiplicationStroop,2021.2.3,Win32,59.64096141,,,,,left,0,0.3513,0,63,63,25,1,3,4,3 | 4,1,1.9756,1.4111,incongruent,right,,,,,,stimulusFile/magnitude.xlsx,,,,,,,,,,,,,,,,,,,,,,,,,,,,,,,
,,,,,,,,,,,,,,,658,2022-06-15_20h44.42.411,multiplicationStroop,2021.2.3,Win32,59.64096141,,,,,left,0,0.6372,0,64,64,58,1,6,8,6 | 8,2,1.6933,1.6933,neutral,right,,,,,,stimulusFile/magnitude.xlsx,,,,,,,,,,,,,,,,,,,,,,,,,,,,,,,
,,,,,,,,,,,,,,,658,2022-06-15_20h44.42.411,multiplicationStroop,2021.2.3,Win32,59.64096141,,,,,left,0,0.4198,0,65,65,50,1,6,7,6 | 7,1,1.6933,1.6933,neutral,right,,,,,,stimulusFile/magnitude.xlsx,,,,,,,,,,,,,,,,,,,,,,,,,,,,,,,
,,,,,,,,,,,,,,,658,2022-06-15_20h44.42.411,multiplicationStroop,2021.2.3,Win32,59.64096141,,,,,right,0,0.4721,0,66,66,39,1,9,7,9 | 7,2,1.4111,1.9756,incongruent,left,,,,,,stimulusFile/magnitude.xlsx,,,,,,,,,,,,,,,,,,,,,,,,,,,,,,,
,,,,,,,,,,,,,,,658,2022-06-15_20h44.42.411,multiplicationStroop,2021.2.3,Win32,59.64096141,,,,,right,1,0.372,0,67,67,1,1,3,4,3 | 4,1,1.4111,1.9756,congruent,right,,,,,,stimulusFile/magnitude.xlsx,,,,,,,,,,,,,,,,,,,,,,,,,,,,,,,
,,,,,,,,,,,,,,,658,2022-06-15_20h44.42.411,multiplicationStroop,2021.2.3,Win32,59.64096141,,,,,left,1,0.5209,0,68,68,52,1,2,1,2 | 1,1,1.6933,1.6933,neutral,left,,,,,,stimulusFile/magnitude.xlsx,,,,,,,,,,,,,,,,,,,,,,,,,,,,,,,
,,,,,,,,,,,,,,,658,2022-06-15_20h44.42.411,multiplicationStroop,2021.2.3,Win32,59.64096141,,,,,left,1,0.5347,0,69,69,4,1,2,1,2 | 1,1,1.9756,1.4111,congruent,left,,,,,,stimulusFile/magnitude.xlsx,,,,,,,,,,,,,,,,,,,,,,,,,,,,,,,
,,,,,,,,,,,,,,,658,2022-06-15_20h44.42.411,multiplicationStroop,2021.2.3,Win32,59.64096141,,,,,left,0,0.5685,0,70,70,35,1,7,9,7 | 9,2,1.9756,1.4111,incongruent,right,,,,,,stimulusFile/magnitude.xlsx,,,,,,,,,,,,,,,,,,,,,,,,,,,,,,,
,,,,,,,,,,,,,,,658,2022-06-15_20h44.42.411,multiplicationStroop,2021.2.3,Win32,59.64096141,,,,,left,0,0.4014,0,71,71,27,1,8,9,8 | 9,1,1.9756,1.4111,incongruent,right,,,,,,stimulusFile/magnitude.xlsx,,,,,,,,,,,,,,,,,,,,,,,,,,,,,,,
,,,,,,,,,,,,,,,658,2022-06-15_20h44.42.411,multiplicationStroop,2021.2.3,Win32,59.64096141,,,,,,,,,,,,,,,,,,,,,0,1,1,0,1,stimulusFile/magnitude.xlsx,NUMERICALLY larger (larger coefficient).,images/numericallyLarger.png,,,,,,,,,,,,,,,,,,,,,,,,,,,,,
,,,,,,,,,,,,,,,658,2022-06-15_20h44.42.411,multiplicationStroop,2021.2.3,Win32,59.64096141,,,,,,,,,,,,,,,,,,,,,,,,,,,,,space,0.6671,space,1.0494,81,2.0852,1,0,0,0,35,1,9,×,9,9 × 9,neutral,tie,1.5,1.5,81,,,,,,,,
,,,,,,,,,,,,,,,658,2022-06-15_20h44.42.411,multiplicationStroop,2021.2.3,Win32,59.64096141,,,,,,,,,,,,,,,,,,,,,,,,,,,,,,,,,9,3.1153,1,0,1,1,29,1,3,×,3,3 × 3,neutral,tie,1.5,1.5,9,,,,,,,,
,,,,,,,,,,,,,,,658,2022-06-15_20h44.42.411,multiplicationStroop,2021.2.3,Win32,59.64096141,,,,,,,,,,,,,,,,,,,,,,,,,,,,,,,,,35,2.2326,1,0,2,2,15,1,7,×,5,7 × 5,neutral,largerFirst,1.5,1.5,35,,,,,,,,
,,,,,,,,,,,,,,,658,2022-06-15_20h44.42.411,multiplicationStroop,2021.2.3,Win32,59.64096141,,,,,,,,,,,,,,,,,,,,,,,,,,,,,,,,,8,1.6658,1,0,3,3,17,1,4,×,2,4 × 2,neutral,largerFirst,1.5,1.5,8,,,,,,,,
,,,,,,,,,,,,,,,658,2022-06-15_20h44.42.411,multiplicationStroop,2021.2.3,Win32,59.64096141,,,,,,,,,,,,,,,,,,,,,,,,,,,,,,,,,45,1.8155,1,0,4,4,24,1,9,×,5,9 × 5,neutral,largerFirst,1.5,1.5,45,,,,,,,,
,,,,,,,,,,,,,,,658,2022-06-15_20h44.42.411,multiplicationStroop,2021.2.3,Win32,59.64096141,,,,,,,,,,,,,,,,,,,,,,,,,,,,,,,,,16,2.6151,1,0,5,5,30,1,4,×,4,4 × 4,neutral,tie,1.5,1.5,16,,,,,,,,
,,,,,,,,,,,,,,,658,2022-06-15_20h44.42.411,multiplicationStroop,2021.2.3,Win32,59.64096141,,,,,,,,,,,,,,,,,,,,,,,,,,,,,,,,,32,2.2485,1,0,6,6,9,1,4,×,8,4 × 8,neutral,smallerFirst,1.5,1.5,32,,,,,,,,
,,,,,,,,,,,,,,,658,2022-06-15_20h44.42.411,multiplicationStroop,2021.2.3,Win32,59.64096141,,,,,,,,,,,,,,,,,,,,,,,,,,,,,,,,,20,2.4654,1,0,7,7,6,1,4,×,5,4 × 5,neutral,smallerFirst,1.5,1.5,20,,,,,,,,
,,,,,,,,,,,,,,,658,2022-06-15_20h44.42.411,multiplicationStroop,2021.2.3,Win32,59.64096141,,,,,,,,,,,,,,,,,,,,,,,,,,,,,,,,,72,1.9195,1,0,8,8,25,1,9,×,8,9 × 8,neutral,largerFirst,1.5,1.5,72,,,,,,,,
,,,,,,,,,,,,,,,658,2022-06-15_20h44.42.411,multiplicationStroop,2021.2.3,Win32,59.64096141,,,,,,,,,,,,,,,,,,,,,,,,,,,,,,,,,12,1.4656,1,0,9,9,11,1,2,×,6,2 × 6,neutral,smallerFirst,1.5,1.5,12,,,,,,,,
,,,,,,,,,,,,,,,658,2022-06-15_20h44.42.411,multiplicationStroop,2021.2.3,Win32,59.64096141,,,,,,,,,,,,,,,,,,,,,,,,,,,,,,,,,10,1.7159,1,0,10,10,18,1,5,×,2,5 × 2,neutral,largerFirst,1.5,1.5,10,,,,,,,,
,,,,,,,,,,,,,,,658,2022-06-15_20h44.42.411,multiplicationStroop,2021.2.3,Win32,59.64096141,,,,,,,,,,,,,,,,,,,,,,,,,,,,,,,,,21,1.4658,1,0,11,11,22,1,7,×,3,7 × 3,neutral,largerFirst,1.5,1.5,21,,,,,,,,
,,,,,,,,,,,,,,,658,2022-06-15_20h44.42.411,multiplicationStroop,2021.2.3,Win32,59.64096141,,,,,,,,,,,,,,,,,,,,,,,,,,,,,,,,,40,2.4484,1,0,12,12,10,1,5,×,8,5 × 8,neutral,smallerFirst,1.5,1.5,40,,,,,,,,
,,,,,,,,,,,,,,,658,2022-06-15_20h44.42.411,multiplicationStroop,2021.2.3,Win32,59.64096141,,,,,,,,,,,,,,,,,,,,,,,,,,,,,,,,,30,1.6327,1,0,13,13,5,1,5,×,6,5 × 6,neutral,smallerFirst,1.5,1.5,30,,,,,,,,
,,,,,,,,,,,,,,,658,2022-06-15_20h44.42.411,multiplicationStroop,2021.2.3,Win32,59.64096141,,,,,,,,,,,,,,,,,,,,,,,,,,,,,,,,,6,1.8658,1,0,14,14,12,1,2,×,3,2 × 3,neutral,smallerFirst,1.5,1.5,6,,,,,,,,
,,,,,,,,,,,,,,,658,2022-06-15_20h44.42.411,multiplicationStroop,2021.2.3,Win32,59.64096141,,,,,,,,,,,,,,,,,,,,,,,,,,,,,,,,,24,2.1983,1,0,15,15,8,1,3,×,8,3 × 8,neutral,smallerFirst,1.5,1.5,24,,,,,,,,
,,,,,,,,,,,,,,,658,2022-06-15_20h44.42.411,multiplicationStroop,2021.2.3,Win32,59.64096141,,,,,,,,,,,,,,,,,,,,,,,,,,,,,,,,,4,1.5159,1,0,16,16,28,1,2,×,2,2 × 2,neutral,tie,1.5,1.5,4,,,,,,,,
,,,,,,,,,,,,,,,658,2022-06-15_20h44.42.411,multiplicationStroop,2021.2.3,Win32,59.64096141,,,,,,,,,,,,,,,,,,,,,,,,,,,,,,,,,16,2.9992,1,0,17,17,27,1,8,×,2,8 × 2,neutral,largerFirst,1.5,1.5,16,,,,,,,,
,,,,,,,,,,,,,,,658,2022-06-15_20h44.42.411,multiplicationStroop,2021.2.3,Win32,59.64096141,,,,,,,,,,,,,,,,,,,,,,,,,,,,,,,,,28,2.4985,1,0,18,18,3,1,4,×,7,4 × 7,neutral,smallerFirst,1.5,1.5,28,,,,,,,,
,,,,,,,,,,,,,,,658,2022-06-15_20h44.42.411,multiplicationStroop,2021.2.3,Win32,59.64096141,,,,,,,,,,,,,,,,,,,,,,,,,,,,,,,,,32,2.438,0,0,19,19,13,1,4,×,9,4 × 9,neutral,smallerFirst,1.5,1.5,36,,,,,,,,
,,,,,,,,,,,,,,,658,2022-06-15_20h44.42.411,multiplicationStroop,2021.2.3,Win32,59.64096141,,,,,,,,,,,,,,,,,,,,,,,,,,,,,,,,,25,2.6319,1,0,20,20,31,1,5,×,5,5 × 5,neutral,tie,1.5,1.5,25,,,,,,,,
,,,,,,,,,,,,,,,658,2022-06-15_20h44.42.411,multiplicationStroop,2021.2.3,Win32,59.64096141,,,,,,,,,,,,,,,,,,,,,,,,,,,,,,,,,49,2.2491,1,0,21,21,33,1,7,×,7,7 × 7,neutral,tie,1.5,1.5,49,,,,,,,,
,,,,,,,,,,,,,,,658,2022-06-15_20h44.42.411,multiplicationStroop,2021.2.3,Win32,59.64096141,,,,,,,,,,,,,,,,,,,,,,,,,,,,,,,,,27,2.5656,1,0,22,22,0,1,3,×,9,3 × 9,neutral,smallerFirst,1.5,1.5,27,,,,,,,,
,,,,,,,,,,,,,,,658,2022-06-15_20h44.42.411,multiplicationStroop,2021.2.3,Win32,59.64096141,,,,,,,,,,,,,,,,,,,,,,,,,,,,,,,,,56,2.0035,1,0,23,23,23,1,8,×,7,8 × 7,neutral,largerFirst,1.5,1.5,56,,,,,,,,
,,,,,,,,,,,,,,,658,2022-06-15_20h44.42.411,multiplicationStroop,2021.2.3,Win32,59.64096141,,,,,,,,,,,,,,,,,,,,,,,,,,,,,,,,,15,2.3487,1,0,24,24,19,1,5,×,3,5 × 3,neutral,largerFirst,1.5,1.5,15,,,,,,,,
,,,,,,,,,,,,,,,658,2022-06-15_20h44.42.411,multiplicationStroop,2021.2.3,Win32,59.64096141,,,,,,,,,,,,,,,,,,,,,,,,,,,,,,,,,54,3.1152,1,0,25,25,21,1,9,×,6,9 × 6,neutral,largerFirst,1.5,1.5,54,,,,,,,,
,,,,,,,,,,,,,,,658,2022-06-15_20h44.42.411,multiplicationStroop,2021.2.3,Win32,59.64096141,,,,,,,,,,,,,,,,,,,,,,,,,,,,,,,,,63,2.0487,1,0,26,26,26,1,9,×,7,9 × 7,neutral,largerFirst,1.5,1.5,63,,,,,,,,
,,,,,,,,,,,,,,,658,2022-06-15_20h44.42.411,multiplicationStroop,2021.2.3,Win32,59.64096141,,,,,,,,,,,,,,,,,,,,,,,,,,,,,,,,,14,1.6994,1,0,27,27,2,1,2,×,7,2 × 7,neutral,smallerFirst,1.5,1.5,14,,,,,,,,
,,,,,,,,,,,,,,,658,2022-06-15_20h44.42.411,multiplicationStroop,2021.2.3,Win32,59.64096141,,,,,,,,,,,,,,,,,,,,,,,,,,,,,,,,,24,2.1987,1,0,28,28,16,1,6,×,4,6 × 4,neutral,largerFirst,1.5,1.5,24,,,,,,,,
,,,,,,,,,,,,,,,658,2022-06-15_20h44.42.411,multiplicationStroop,2021.2.3,Win32,59.64096141,,,,,,,,,,,,,,,,,,,,,,,,,,,,,,,,,48,3.0486,1,0,29,29,1,1,6,×,8,6 × 8,neutral,smallerFirst,1.5,1.5,48,,,,,,,,
,,,,,,,,,,,,,,,658,2022-06-15_20h44.42.411,multiplicationStroop,2021.2.3,Win32,59.64096141,,,,,,,,,,,,,,,,,,,,,,,,,,,,,,,,,18,2.5878,1,0,30,30,14,1,6,×,3,6 × 3,neutral,largerFirst,1.5,1.5,18,,,,,,,,
,,,,,,,,,,,,,,,658,2022-06-15_20h44.42.411,multiplicationStroop,2021.2.3,Win32,59.64096141,,,,,,,,,,,,,,,,,,,,,,,,,,,,,,,,,36,2.3492,1,0,31,31,32,1,6,×,6,6 × 6,neutral,tie,1.5,1.5,36,,,,,,,,
,,,,,,,,,,,,,,,658,2022-06-15_20h44.42.411,multiplicationStroop,2021.2.3,Win32,59.64096141,,,,,,,,,,,,,,,,,,,,,,,,,,,,,,,,,18,1.5156,1,0,32,32,4,1,2,×,9,2 × 9,neutral,smallerFirst,1.5,1.5,18,,,,,,,,
,,,,,,,,,,,,,,,658,2022-06-15_20h44.42.411,multiplicationStroop,2021.2.3,Win32,59.64096141,,,,,,,,,,,,,,,,,,,,,,,,,,,,,,,,,12,1.466,1,0,33,33,7,1,3,×,4,3 × 4,neutral,smallerFirst,1.5,1.5,12,,,,,,,,
,,,,,,,,,,,,,,,658,2022-06-15_20h44.42.411,multiplicationStroop,2021.2.3,Win32,59.64096141,,,,,,,,,,,,,,,,,,,,,,,,,,,,,,,,,64,1.9158,1,0,34,34,34,1,8,×,8,8 × 8,neutral,tie,1.5,1.5,64,,,,,,,,
,,,,,,,,,,,,,,,658,2022-06-15_20h44.42.411,multiplicationStroop,2021.2.3,Win32,59.64096141,,,,,,,,,,,,,,,,,,,,,,,,,,,,,,,,,42,2.7817,1,0,35,35,20,1,7,×,6,7 × 6,neutral,largerFirst,1.5,1.5,42,,,,,,,,
,,,,,,,,,,,,,,,658,2022-06-15_20h44.42.411,multiplicationStroop,2021.2.3,Win32,59.64096141,,,,,,,,,,,,,,,,,,,,,,,,,,,,,,,,,,,,,,,,,,,,,,,,,,0,0,0,0,1,stimulusFile/mult_blk1.xlsx,,
,,,,,,,,,,,,,,,658,2022-06-15_20h44.42.411,multiplicationStroop,2021.2.3,Win32,59.64096141,,,,,,,,,,,,,,,,,,,,,,,,,,,,,,,space,0.8635,28,2.3178,1,0,0,0,13,1,4,×,7,4 × 7,congruent,smallerFirst,1,2,28,,,,,,,,
,,,,,,,,,,,,,,,658,2022-06-15_20h44.42.411,multiplicationStroop,2021.2.3,Win32,59.64096141,,,,,,,,,,,,,,,,,,,,,,,,,,,,,,,,,12,1.449,1,0,1,1,16,1,4,×,3,4 × 3,congruent,largerFirst,2,1,12,,,,,,,,
,,,,,,,,,,,,,,,658,2022-06-15_20h44.42.411,multiplicationStroop,2021.2.3,Win32,59.64096141,,,,,,,,,,,,,,,,,,,,,,,,,,,,,,,,,56,1.9323,1,0,2,2,22,1,8,×,7,8 × 7,congruent,largerFirst,2,1,56,,,,,,,,
,,,,,,,,,,,,,,,658,2022-06-15_20h44.42.411,multiplicationStroop,2021.2.3,Win32,59.64096141,,,,,,,,,,,,,,,,,,,,,,,,,,,,,,,,,72,2.6993,1,0,3,3,3,1,8,×,9,8 × 9,congruent,smallerFirst,1,2,72,,,,,,,,
,,,,,,,,,,,,,,,658,2022-06-15_20h44.42.411,multiplicationStroop,2021.2.3,Win32,59.64096141,,,,,,,,,,,,,,,,,,,,,,,,,,,,,,,,,36,2.0538,1,0,4,4,14,1,9,×,4,9 × 4,congruent,largerFirst,2,1,36,,,,,,,,
,,,,,,,,,,,,,,,658,2022-06-15_20h44.42.411,multiplicationStroop,2021.2.3,Win32,59.64096141,,,,,,,,,,,,,,,,,,,,,,,,,,,,,,,,,15,1.999,1,0,5,5,18,1,5,×,3,5 × 3,congruent,largerFirst,2,1,15,,,,,,,,
,,,,,,,,,,,,,,,658,2022-06-15_20h44.42.411,multiplicationStroop,2021.2.3,Win32,59.64096141,,,,,,,,,,,,,,,,,,,,,,,,,,,,,,,,,24,3.1159,1,0,6,6,24,1,8,×,3,8 × 3,congruent,largerFirst,2,1,24,,,,,,,,
,,,,,,,,,,,,,,,658,2022-06-15_20h44.42.411,multiplicationStroop,2021.2.3,Win32,59.64096141,,,,,,,,,,,,,,,,,,,,,,,,,,,,,,,,,35,2.2325,1,0,7,7,15,1,7,×,5,7 × 5,congruent,largerFirst,2,1,35,,,,,,,,
,,,,,,,,,,,,,,,658,2022-06-15_20h44.42.411,multiplicationStroop,2021.2.3,Win32,59.64096141,,,,,,,,,,,,,,,,,,,,,,,,,,,,,,,,,32,5.215,1,0,8,8,6,1,4,×,8,4 × 8,congruent,smallerFirst,1,2,32,,,,,,,,
,,,,,,,,,,,,,,,658,2022-06-15_20h44.42.411,multiplicationStroop,2021.2.3,Win32,59.64096141,,,,,,,,,,,,,,,,,,,,,,,,,,,,,,,,,25,2.0211,1,0,9,9,31,1,5,×,5,5 × 5,neutral,tie,1,2,25,,,,,,,,
,,,,,,,,,,,,,,,658,2022-06-15_20h44.42.411,multiplicationStroop,2021.2.3,Win32,59.64096141,,,,,,,,,,,,,,,,,,,,,,,,,,,,,,,,,48,2.249,1,0,10,10,4,1,6,×,8,6 × 8,congruent,smallerFirst,1,2,48,,,,,,,,
,,,,,,,,,,,,,,,658,2022-06-15_20h44.42.411,multiplicationStroop,2021.2.3,Win32,59.64096141,,,,,,,,,,,,,,,,,,,,,,,,,,,,,,,,,36,2.4821,1,0,11,11,32,1,6,×,6,6 × 6,neutral,tie,1,2,36,,,,,,,,
,,,,,,,,,,,,,,,658,2022-06-15_20h44.42.411,multiplicationStroop,2021.2.3,Win32,59.64096141,,,,,,,,,,,,,,,,,,,,,,,,,,,,,,,,,18,1.9494,1,0,12,12,8,1,2,×,9,2 × 9,congruent,smallerFirst,1,2,18,,,,,,,,
,,,,,,,,,,,,,,,658,2022-06-15_20h44.42.411,multiplicationStroop,2021.2.3,Win32,59.64096141,,,,,,,,,,,,,,,,,,,,,,,,,,,,,,,,,30,1.6656,1,0,13,13,1,1,5,×,6,5 × 6,congruent,smallerFirst,1,2,30,,,,,,,,
,,,,,,,,,,,,,,,658,2022-06-15_20h44.42.411,multiplicationStroop,2021.2.3,Win32,59.64096141,,,,,,,,,,,,,,,,,,,,,,,,,,,,,,,,,4,1.3828,1,0,14,14,28,1,2,×,2,2 × 2,neutral,tie,1,2,4,,,,,,,,
,,,,,,,,,,,,,,,658,2022-06-15_20h44.42.411,multiplicationStroop,2021.2.3,Win32,59.64096141,,,,,,,,,,,,,,,,,,,,,,,,,,,,,,,,,64,1.8658,1,0,15,15,34,1,8,×,8,8 × 8,neutral,tie,1,2,64,,,,,,,,
,,,,,,,,,,,,,,,658,2022-06-15_20h44.42.411,multiplicationStroop,2021.2.3,Win32,59.64096141,,,,,,,,,,,,,,,,,,,,,,,,,,,,,,,,,24,1.9493,1,0,16,16,11,1,4,×,6,4 × 6,congruent,smallerFirst,1,2,24,,,,,,,,
,,,,,,,,,,,,,,,658,2022-06-15_20h44.42.411,multiplicationStroop,2021.2.3,Win32,59.64096141,,,,,,,,,,,,,,,,,,,,,,,,,,,,,,,,,14,2.0323,1,0,17,17,0,1,2,×,7,2 × 7,congruent,smallerFirst,1,2,14,,,,,,,,
,,,,,,,,,,,,,,,658,2022-06-15_20h44.42.411,multiplicationStroop,2021.2.3,Win32,59.64096141,,,,,,,,,,,,,,,,,,,,,,,,,,,,,,,,,72,2.4822,0,0,18,18,7,1,7,×,9,7 × 9,congruent,smallerFirst,1,2,63,,,,,,,,
,,,,,,,,,,,,,,,658,2022-06-15_20h44.42.411,multiplicationStroop,2021.2.3,Win32,59.64096141,,,,,,,,,,,,,,,,,,,,,,,,,,,,,,,,,20,2.1662,1,0,19,19,21,1,5,×,4,5 × 4,congruent,largerFirst,2,1,20,,,,,,,,
,,,,,,,,,,,,,,,658,2022-06-15_20h44.42.411,multiplicationStroop,2021.2.3,Win32,59.64096141,,,,,,,,,,,,,,,,,,,,,,,,,,,,,,,,,18,1.8821,1,0,20,20,25,1,6,×,3,6 × 3,congruent,largerFirst,2,1,18,,,,,,,,
,,,,,,,,,,,,,,,658,2022-06-15_20h44.42.411,multiplicationStroop,2021.2.3,Win32,59.64096141,,,,,,,,,,,,,,,,,,,,,,,,,,,,,,,,,81,2.1492,1,0,21,21,35,1,9,×,9,9 × 9,neutral,tie,1,2,81,,,,,,,,
,,,,,,,,,,,,,,,658,2022-06-15_20h44.42.411,multiplicationStroop,2021.2.3,Win32,59.64096141,,,,,,,,,,,,,,,,,,,,,,,,,,,,,,,,,12,1.2823,1,0,22,22,5,1,2,×,6,2 × 6,congruent,smallerFirst,1,2,12,,,,,,,,
,,,,,,,,,,,,,,,658,2022-06-15_20h44.42.411,multiplicationStroop,2021.2.3,Win32,59.64096141,,,,,,,,,,,,,,,,,,,,,,,,,,,,,,,,,9,2.1825,1,0,23,23,29,1,3,×,3,3 × 3,neutral,tie,1,2,9,,,,,,,,
,,,,,,,,,,,,,,,658,2022-06-15_20h44.42.411,multiplicationStroop,2021.2.3,Win32,59.64096141,,,,,,,,,,,,,,,,,,,,,,,,,,,,,,,,,16,1.5327,1,0,24,24,19,1,8,×,2,8 × 2,congruent,largerFirst,2,1,16,,,,,,,,
,,,,,,,,,,,,,,,658,2022-06-15_20h44.42.411,multiplicationStroop,2021.2.3,Win32,59.64096141,,,,,,,,,,,,,,,,,,,,,,,,,,,,,,,,,45,1.8823,1,0,25,25,9,1,5,×,9,5 × 9,congruent,smallerFirst,1,2,45,,,,,,,,
,,,,,,,,,,,,,,,658,2022-06-15_20h44.42.411,multiplicationStroop,2021.2.3,Win32,59.64096141,,,,,,,,,,,,,,,,,,,,,,,,,,,,,,,,,21,1.3656,1,0,26,26,2,1,3,×,7,3 × 7,congruent,smallerFirst,1,2,21,,,,,,,,
,,,,,,,,,,,,,,,658,2022-06-15_20h44.42.411,multiplicationStroop,2021.2.3,Win32,59.64096141,,,,,,,,,,,,,,,,,,,,,,,,,,,,,,,,,40,1.6994,1,0,27,27,20,1,8,×,5,8 × 5,congruent,largerFirst,2,1,40,,,,,,,,
,,,,,,,,,,,,,,,658,2022-06-15_20h44.42.411,multiplicationStroop,2021.2.3,Win32,59.64096141,,,,,,,,,,,,,,,,,,,,,,,,,,,,,,,,,43,2.0153,0,0,28,28,17,1,7,×,6,7 × 6,congruent,largerFirst,2,1,42,,,,,,,,
,,,,,,,,,,,,,,,658,2022-06-15_20h44.42.411,multiplicationStroop,2021.2.3,Win32,59.64096141,,,,,,,,,,,,,,,,,,,,,,,,,,,,,,,,,18,1.7656,0,0,29,29,12,1,3,×,9,3 × 9,congruent,smallerFirst,1,2,27,,,,,,,,
,,,,,,,,,,,,,,,658,2022-06-15_20h44.42.411,multiplicationStroop,2021.2.3,Win32,59.64096141,,,,,,,,,,,,,,,,,,,,,,,,,,,,,,,,,54,2.0988,1,0,30,30,26,1,9,×,6,9 × 6,congruent,largerFirst,2,1,54,,,,,,,,
,,,,,,,,,,,,,,,658,2022-06-15_20h44.42.411,multiplicationStroop,2021.2.3,Win32,59.64096141,,,,,,,,,,,,,,,,,,,,,,,,,,,,,,,,,8,1.533,1,0,31,31,23,1,4,×,2,4 × 2,congruent,largerFirst,2,1,8,,,,,,,,
,,,,,,,,,,,,,,,658,2022-06-15_20h44.42.411,multiplicationStroop,2021.2.3,Win32,59.64096141,,,,,,,,,,,,,,,,,,,,,,,,,,,,,,,,,16,1.7158,1,0,32,32,30,1,4,×,4,4 × 4,neutral,tie,1,2,16,,,,,,,,
,,,,,,,,,,,,,,,658,2022-06-15_20h44.42.411,multiplicationStroop,2021.2.3,Win32,59.64096141,,,,,,,,,,,,,,,,,,,,,,,,,,,,,,,,,49,2.0488,1,0,33,33,33,1,7,×,7,7 × 7,neutral,tie,1,2,49,,,,,,,,
,,,,,,,,,,,,,,,658,2022-06-15_20h44.42.411,multiplicationStroop,2021.2.3,Win32,59.64096141,,,,,,,,,,,,,,,,,,,,,,,,,,,,,,,,,10,2.3155,1,0,34,34,10,1,2,×,5,2 × 5,congruent,smallerFirst,1,2,10,,,,,,,,
,,,,,,,,,,,,,,,658,2022-06-15_20h44.42.411,multiplicationStroop,2021.2.3,Win32,59.64096141,,,,,,,,,,,,,,,,,,,,,,,,,,,,,,,,,6,1.6829,1,0,35,35,27,1,3,×,2,3 × 2,congruent,largerFirst,2,1,6,,,,,,,,
,,,,,,,,,,,,,,,658,2022-06-15_20h44.42.411,multiplicationStroop,2021.2.3,Win32,59.64096141,,,,,,,,,,,,,,,,,,,,,,,,,,,,,,,,,,,,,,,,,,,,,,,,,,0,1,1,3,1,stimulusFile/mult_blk4_congruent.xlsx,,
,,,,,,,,,,,,,,,658,2022-06-15_20h44.42.411,multiplicationStroop,2021.2.3,Win32,59.64096141,,,,,,,,,,,,,,,,,,,,,,,,,,,,,,,space,0.7799,45,1.9158,1,0,0,0,23,1,9,×,5,9 × 5,congruent,largerFirst,2,1,45,,,,,,,,
,,,,,,,,,,,,,,,658,2022-06-15_20h44.42.411,multiplicationStroop,2021.2.3,Win32,59.64096141,,,,,,,,,,,,,,,,,,,,,,,,,,,,,,,,,16,2.2659,1,0,1,1,30,1,4,×,4,4 × 4,neutral,tie,2,1,16,,,,,,,,
,,,,,,,,,,,,,,,658,2022-06-15_20h44.42.411,multiplicationStroop,2021.2.3,Win32,59.64096141,,,,,,,,,,,,,,,,,,,,,,,,,,,,,,,,,32,2.1319,1,0,2,2,20,1,8,×,4,8 × 4,congruent,largerFirst,2,1,32,,,,,,,,
,,,,,,,,,,,,,,,658,2022-06-15_20h44.42.411,multiplicationStroop,2021.2.3,Win32,59.64096141,,,,,,,,,,,,,,,,,,,,,,,,,,,,,,,,,16,3.0656,1,0,3,3,5,1,2,×,8,2 × 8,congruent,smallerFirst,1,2,16,,,,,,,,
,,,,,,,,,,,,,,,658,2022-06-15_20h44.42.411,multiplicationStroop,2021.2.3,Win32,59.64096141,,,,,,,,,,,,,,,,,,,,,,,,,,,,,,,,,42,2.6695,1,0,4,4,3,1,6,×,7,6 × 7,congruent,smallerFirst,1,2,42,,,,,,,,
,,,,,,,,,,,,,,,658,2022-06-15_20h44.42.411,multiplicationStroop,2021.2.3,Win32,59.64096141,,,,,,,,,,,,,,,,,,,,,,,,,,,,,,,,,14,1.8657,1,0,5,5,14,1,7,×,2,7 × 2,congruent,largerFirst,2,1,14,,,,,,,,
,,,,,,,,,,,,,,,658,2022-06-15_20h44.42.411,multiplicationStroop,2021.2.3,Win32,59.64096141,,,,,,,,,,,,,,,,,,,,,,,,,,,,,,,,,27,6.6816,1,0,6,6,26,1,9,×,3,9 × 3,congruent,largerFirst,2,1,27,,,,,,,,
,,,,,,,,,,,,,,,658,2022-06-15_20h44.42.411,multiplicationStroop,2021.2.3,Win32,59.64096141,,,,,,,,,,,,,,,,,,,,,,,,,,,,,,,,,72,2.666,1,0,7,7,17,1,9,×,8,9 × 8,congruent,largerFirst,2,1,72,,,,,,,,
,,,,,,,,,,,,,,,658,2022-06-15_20h44.42.411,multiplicationStroop,2021.2.3,Win32,59.64096141,,,,,,,,,,,,,,,,,,,,,,,,,,,,,,,,,81,1.453,1,0,8,8,35,1,9,×,9,9 × 9,neutral,tie,2,1,81,,,,,,,,
,,,,,,,,,,,,,,,658,2022-06-15_20h44.42.411,multiplicationStroop,2021.2.3,Win32,59.64096141,,,,,,,,,,,,,,,,,,,,,,,,,,,,,,,,,21,1.3314,1,0,9,9,16,1,7,×,3,7 × 3,congruent,largerFirst,2,1,21,,,,,,,,
,,,,,,,,,,,,,,,658,2022-06-15_20h44.42.411,multiplicationStroop,2021.2.3,Win32,59.64096141,,,,,,,,,,,,,,,,,,,,,,,,,,,,,,,,,12,1.5661,1,0,10,10,19,1,6,×,2,6 × 2,congruent,largerFirst,2,1,12,,,,,,,,
,,,,,,,,,,,,,,,658,2022-06-15_20h44.42.411,multiplicationStroop,2021.2.3,Win32,59.64096141,,,,,,,,,,,,,,,,,,,,,,,,,,,,,,,,,18,2.2474,1,0,11,11,22,1,9,×,2,9 × 2,congruent,largerFirst,2,1,18,,,,,,,,
,,,,,,,,,,,,,,,658,2022-06-15_20h44.42.411,multiplicationStroop,2021.2.3,Win32,59.64096141,,,,,,,,,,,,,,,,,,,,,,,,,,,,,,,,,40,2.1323,1,0,12,12,6,1,5,×,8,5 × 8,congruent,smallerFirst,1,2,40,,,,,,,,
,,,,,,,,,,,,,,,658,2022-06-15_20h44.42.411,multiplicationStroop,2021.2.3,Win32,59.64096141,,,,,,,,,,,,,,,,,,,,,,,,,,,,,,,,,4,1.4314,1,0,13,13,28,1,2,×,2,2 × 2,neutral,tie,2,1,4,,,,,,,,
,,,,,,,,,,,,,,,658,2022-06-15_20h44.42.411,multiplicationStroop,2021.2.3,Win32,59.64096141,,,,,,,,,,,,,,,,,,,,,,,,,,,,,,,,,30,1.8323,1,0,14,14,15,1,6,×,5,6 × 5,congruent,largerFirst,2,1,30,,,,,,,,
,,,,,,,,,,,,,,,658,2022-06-15_20h44.42.411,multiplicationStroop,2021.2.3,Win32,59.64096141,,,,,,,,,,,,,,,,,,,,,,,,,,,,,,,,,24,2.0491,1,0,15,15,10,1,3,×,8,3 × 8,congruent,smallerFirst,1,2,24,,,,,,,,
,,,,,,,,,,,,,,,658,2022-06-15_20h44.42.411,multiplicationStroop,2021.2.3,Win32,59.64096141,,,,,,,,,,,,,,,,,,,,,,,,,,,,,,,,,64,2.0159,1,0,16,16,34,1,8,×,8,8 × 8,neutral,tie,2,1,64,,,,,,,,
,,,,,,,,,,,,,,,658,2022-06-15_20h44.42.411,multiplicationStroop,2021.2.3,Win32,59.64096141,,,,,,,,,,,,,,,,,,,,,,,,,,,,,,,,,9,1.4163,1,0,17,17,29,1,3,×,3,3 × 3,neutral,tie,2,1,9,,,,,,,,
,,,,,,,,,,,,,,,658,2022-06-15_20h44.42.411,multiplicationStroop,2021.2.3,Win32,59.64096141,,,,,,,,,,,,,,,,,,,,,,,,,,,,,,,,,15,8.9476,1,0,18,18,4,1,3,×,5,3 × 5,congruent,smallerFirst,1,2,15,,,,,,,,
,,,,,,,,,,,,,,,658,2022-06-15_20h44.42.411,multiplicationStroop,2021.2.3,Win32,59.64096141,,,,,,,,,,,,,,,,,,,,,,,,,,,,,,,,,6,1.7644,1,0,19,19,13,1,2,×,3,2 × 3,congruent,smallerFirst,1,2,6,,,,,,,,
,,,,,,,,,,,,,,,658,2022-06-15_20h44.42.411,multiplicationStroop,2021.2.3,Win32,59.64096141,,,,,,,,,,,,,,,,,,,,,,,,,,,,,,,,,32,3.0985,0,0,20,20,0,1,4,×,9,4 × 9,congruent,smallerFirst,1,2,36,,,,,,,,
,,,,,,,,,,,,,,,658,2022-06-15_20h44.42.411,multiplicationStroop,2021.2.3,Win32,59.64096141,,,,,,,,,,,,,,,,,,,,,,,,,,,,,,,,,48,2.398,1,0,21,21,18,1,8,×,6,8 × 6,congruent,largerFirst,2,1,48,,,,,,,,
,,,,,,,,,,,,,,,658,2022-06-15_20h44.42.411,multiplicationStroop,2021.2.3,Win32,59.64096141,,,,,,,,,,,,,,,,,,,,,,,,,,,,,,,,,12,1.4847,1,0,22,22,2,1,3,×,4,3 × 4,congruent,smallerFirst,1,2,12,,,,,,,,
,,,,,,,,,,,,,,,658,2022-06-15_20h44.42.411,multiplicationStroop,2021.2.3,Win32,59.64096141,,,,,,,,,,,,,,,,,,,,,,,,,,,,,,,,,25,1.799,1,0,23,23,31,1,5,×,5,5 × 5,neutral,tie,2,1,25,,,,,,,,
,,,,,,,,,,,,,,,658,2022-06-15_20h44.42.411,multiplicationStroop,2021.2.3,Win32,59.64096141,,,,,,,,,,,,,,,,,,,,,,,,,,,,,,,,,45,2.6144,0,0,24,24,1,1,5,×,7,5 × 7,congruent,smallerFirst,1,2,35,,,,,,,,
,,,,,,,,,,,,,,,658,2022-06-15_20h44.42.411,multiplicationStroop,2021.2.3,Win32,59.64096141,,,,,,,,,,,,,,,,,,,,,,,,,,,,,,,,,18,3.5384,1,0,25,25,11,1,3,×,6,3 × 6,congruent,smallerFirst,1,2,18,,,,,,,,
,,,,,,,,,,,,,,,658,2022-06-15_20h44.42.411,multiplicationStroop,2021.2.3,Win32,59.64096141,,,,,,,,,,,,,,,,,,,,,,,,,,,,,,,,,63,2.3657,1,0,26,26,21,1,9,×,7,9 × 7,congruent,largerFirst,2,1,63,,,,,,,,
,,,,,,,,,,,,,,,658,2022-06-15_20h44.42.411,multiplicationStroop,2021.2.3,Win32,59.64096141,,,,,,,,,,,,,,,,,,,,,,,,,,,,,,,,,8,1.5325,1,0,27,27,9,1,2,×,4,2 × 4,congruent,smallerFirst,1,2,8,,,,,,,,
,,,,,,,,,,,,,,,658,2022-06-15_20h44.42.411,multiplicationStroop,2021.2.3,Win32,59.64096141,,,,,,,,,,,,,,,,,,,,,,,,,,,,,,,,,49,2.182,1,0,28,28,33,1,7,×,7,7 × 7,neutral,tie,2,1,49,,,,,,,,
,,,,,,,,,,,,,,,658,2022-06-15_20h44.42.411,multiplicationStroop,2021.2.3,Win32,59.64096141,,,,,,,,,,,,,,,,,,,,,,,,,,,,,,,,,36,1.766,1,0,29,29,32,1,6,×,6,6 × 6,neutral,tie,2,1,36,,,,,,,,
,,,,,,,,,,,,,,,658,2022-06-15_20h44.42.411,multiplicationStroop,2021.2.3,Win32,59.64096141,,,,,,,,,,,,,,,,,,,,,,,,,,,,,,,,,10,1.466,1,0,30,30,24,1,5,×,2,5 × 2,congruent,largerFirst,2,1,10,,,,,,,,
,,,,,,,,,,,,,,,658,2022-06-15_20h44.42.411,multiplicationStroop,2021.2.3,Win32,59.64096141,,,,,,,,,,,,,,,,,,,,,,,,,,,,,,,,,20,2.1992,1,0,31,31,7,1,4,×,5,4 × 5,congruent,smallerFirst,1,2,20,,,,,,,,
,,,,,,,,,,,,,,,658,2022-06-15_20h44.42.411,multiplicationStroop,2021.2.3,Win32,59.64096141,,,,,,,,,,,,,,,,,,,,,,,,,,,,,,,,,42,2.8155,0,0,32,32,12,1,6,×,9,6 × 9,congruent,smallerFirst,1,2,54,,,,,,,,
,,,,,,,,,,,,,,,658,2022-06-15_20h44.42.411,multiplicationStroop,2021.2.3,Win32,59.64096141,,,,,,,,,,,,,,,,,,,,,,,,,,,,,,,,,56,2.7491,1,0,33,33,8,1,7,×,8,7 × 8,congruent,smallerFirst,1,2,56,,,,,,,,
,,,,,,,,,,,,,,,658,2022-06-15_20h44.42.411,multiplicationStroop,2021.2.3,Win32,59.64096141,,,,,,,,,,,,,,,,,,,,,,,,,,,,,,,,,28,1.9033,1,0,34,34,27,1,7,×,4,7 × 4,congruent,largerFirst,2,1,28,,,,,,,,
,,,,,,,,,,,,,,,658,2022-06-15_20h44.42.411,multiplicationStroop,2021.2.3,Win32,59.64096141,,,,,,,,,,,,,,,,,,,,,,,,,,,,,,,,,24,1.816,1,0,35,35,25,1,6,×,4,6 × 4,congruent,largerFirst,2,1,24,,,,,,,,
,,,,,,,,,,,,,,,658,2022-06-15_20h44.42.411,multiplicationStroop,2021.2.3,Win32,59.64096141,,,,,,,,,,,,,,,,,,,,,,,,,,,,,,,,,,,,,,,,,,,,,,,,,,0,2,2,2,1,stimulusFile/mult_blk3_congruent.xlsx,,
,,,,,,,,,,,,,,,658,2022-06-15_20h44.42.411,multiplicationStroop,2021.2.3,Win32,59.64096141,,,,,,,,,,,,,,,,,,,,,,,,,,,,,,,space,0.7994,49,2.1684,1,0,0,0,33,1,7,×,7,7 × 7,neutral,tie,1.5,1.5,49,,,,,,,,
,,,,,,,,,,,,,,,658,2022-06-15_20h44.42.411,multiplicationStroop,2021.2.3,Win32,59.64096141,,,,,,,,,,,,,,,,,,,,,,,,,,,,,,,,,287,2.5823,0,0,1,1,14,1,9,×,3,9 × 3,neutral,largerFirst,1.5,1.5,27,,,,,,,,
,,,,,,,,,,,,,,,658,2022-06-15_20h44.42.411,multiplicationStroop,2021.2.3,Win32,59.64096141,,,,,,,,,,,,,,,,,,,,,,,,,,,,,,,,,4,1.3825,1,0,2,2,28,1,2,×,2,2 × 2,neutral,tie,1.5,1.5,4,,,,,,,,
,,,,,,,,,,,,,,,658,2022-06-15_20h44.42.411,multiplicationStroop,2021.2.3,Win32,59.64096141,,,,,,,,,,,,,,,,,,,,,,,,,,,,,,,,,16,1.7324,1,0,3,3,30,1,4,×,4,4 × 4,neutral,tie,1.5,1.5,16,,,,,,,,
,,,,,,,,,,,,,,,658,2022-06-15_20h44.42.411,multiplicationStroop,2021.2.3,Win32,59.64096141,,,,,,,,,,,,,,,,,,,,,,,,,,,,,,,,,54,2.9491,1,0,4,4,7,1,6,×,9,6 × 9,neutral,smallerFirst,1.5,1.5,54,,,,,,,,
,,,,,,,,,,,,,,,658,2022-06-15_20h44.42.411,multiplicationStroop,2021.2.3,Win32,59.64096141,,,,,,,,,,,,,,,,,,,,,,,,,,,,,,,,,8,1.5334,1,0,5,5,3,1,2,×,4,2 × 4,neutral,smallerFirst,1.5,1.5,8,,,,,,,,
,,,,,,,,,,,,,,,658,2022-06-15_20h44.42.411,multiplicationStroop,2021.2.3,Win32,59.64096141,,,,,,,,,,,,,,,,,,,,,,,,,,,,,,,,,30,1.849,1,0,6,6,19,1,6,×,5,6 × 5,neutral,largerFirst,1.5,1.5,30,,,,,,,,
,,,,,,,,,,,,,,,658,2022-06-15_20h44.42.411,multiplicationStroop,2021.2.3,Win32,59.64096141,,,,,,,,,,,,,,,,,,,,,,,,,,,,,,,,,56,1.9823,1,0,7,7,9,1,7,×,8,7 × 8,neutral,smallerFirst,1.5,1.5,56,,,,,,,,
,,,,,,,,,,,,,,,658,2022-06-15_20h44.42.411,multiplicationStroop,2021.2.3,Win32,59.64096141,,,,,,,,,,,,,,,,,,,,,,,,,,,,,,,,,18,1.5826,1,0,8,8,18,1,9,×,2,9 × 2,neutral,largerFirst,1.5,1.5,18,,,,,,,,
,,,,,,,,,,,,,,,658,2022-06-15_20h44.42.411,multiplicationStroop,2021.2.3,Win32,59.64096141,,,,,,,,,,,,,,,,,,,,,,,,,,,,,,,,,15,1.6821,1,0,9,9,5,1,3,×,5,3 × 5,neutral,smallerFirst,1.5,1.5,15,,,,,,,,
,,,,,,,,,,,,,,,658,2022-06-15_20h44.42.411,multiplicationStroop,2021.2.3,Win32,59.64096141,,,,,,,,,,,,,,,,,,,,,,,,,,,,,,,,,63,2.3165,1,0,10,10,12,1,7,×,9,7 × 9,neutral,smallerFirst,1.5,1.5,63,,,,,,,,
,,,,,,,,,,,,,,,658,2022-06-15_20h44.42.411,multiplicationStroop,2021.2.3,Win32,59.64096141,,,,,,,,,,,,,,,,,,,,,,,,,,,,,,,,,6,2.3315,1,0,11,11,26,1,3,×,2,3 × 2,neutral,largerFirst,1.5,1.5,6,,,,,,,,
,,,,,,,,,,,,,,,658,2022-06-15_20h44.42.411,multiplicationStroop,2021.2.3,Win32,59.64096141,,,,,,,,,,,,,,,,,,,,,,,,,,,,,,,,,12,1.3994,1,0,12,12,21,1,4,×,3,4 × 3,neutral,largerFirst,1.5,1.5,12,,,,,,,,
,,,,,,,,,,,,,,,658,2022-06-15_20h44.42.411,multiplicationStroop,2021.2.3,Win32,59.64096141,,,,,,,,,,,,,,,,,,,,,,,,,,,,,,,,,32,4.9819,1,0,13,13,23,1,8,×,4,8 × 4,neutral,largerFirst,1.5,1.5,32,,,,,,,,
,,,,,,,,,,,,,,,658,2022-06-15_20h44.42.411,multiplicationStroop,2021.2.3,Win32,59.64096141,,,,,,,,,,,,,,,,,,,,,,,,,,,,,,,,,40,2.036,1,0,14,14,24,1,8,×,5,8 × 5,neutral,largerFirst,1.5,1.5,40,,,,,,,,
,,,,,,,,,,,,,,,658,2022-06-15_20h44.42.411,multiplicationStroop,2021.2.3,Win32,59.64096141,,,,,,,,,,,,,,,,,,,,,,,,,,,,,,,,,35,2.0993,1,0,15,15,1,1,5,×,7,5 × 7,neutral,smallerFirst,1.5,1.5,35,,,,,,,,
,,,,,,,,,,,,,,,658,2022-06-15_20h44.42.411,multiplicationStroop,2021.2.3,Win32,59.64096141,,,,,,,,,,,,,,,,,,,,,,,,,,,,,,,,,48,4.2488,1,0,16,16,15,1,8,×,6,8 × 6,neutral,largerFirst,1.5,1.5,48,,,,,,,,
,,,,,,,,,,,,,,,658,2022-06-15_20h44.42.411,multiplicationStroop,2021.2.3,Win32,59.64096141,,,,,,,,,,,,,,,,,,,,,,,,,,,,,,,,,62,1.7507,0,0,17,17,34,1,8,×,8,8 × 8,neutral,tie,1.5,1.5,64,,,,,,,,
,,,,,,,,,,,,,,,658,2022-06-15_20h44.42.411,multiplicationStroop,2021.2.3,Win32,59.64096141,,,,,,,,,,,,,,,,,,,,,,,,,,,,,,,,,36,2.2154,1,0,18,18,27,1,9,×,4,9 × 4,neutral,largerFirst,1.5,1.5,36,,,,,,,,
,,,,,,,,,,,,,,,658,2022-06-15_20h44.42.411,multiplicationStroop,2021.2.3,Win32,59.64096141,,,,,,,,,,,,,,,,,,,,,,,,,,,,,,,,,20,1.55,1,0,19,19,20,1,5,×,4,5 × 4,neutral,largerFirst,1.5,1.5,20,,,,,,,,
,,,,,,,,,,,,,,,658,2022-06-15_20h44.42.411,multiplicationStroop,2021.2.3,Win32,59.64096141,,,,,,,,,,,,,,,,,,,,,,,,,,,,,,,,,42,4.6155,1,0,20,20,6,1,6,×,7,6 × 7,neutral,smallerFirst,1.5,1.5,42,,,,,,,,
,,,,,,,,,,,,,,,658,2022-06-15_20h44.42.411,multiplicationStroop,2021.2.3,Win32,59.64096141,,,,,,,,,,,,,,,,,,,,,,,,,,,,,,,,,16,1.6337,1,0,21,21,13,1,2,×,8,2 × 8,neutral,smallerFirst,1.5,1.5,16,,,,,,,,
,,,,,,,,,,,,,,,658,2022-06-15_20h44.42.411,multiplicationStroop,2021.2.3,Win32,59.64096141,,,,,,,,,,,,,,,,,,,,,,,,,,,,,,,,,9,1.6492,1,0,22,22,29,1,3,×,3,3 × 3,neutral,tie,1.5,1.5,9,,,,,,,,
,,,,,,,,,,,,,,,658,2022-06-15_20h44.42.411,multiplicationStroop,2021.2.3,Win32,59.64096141,,,,,,,,,,,,,,,,,,,,,,,,,,,,,,,,,14,1.6985,1,0,23,23,16,1,7,×,2,7 × 2,neutral,largerFirst,1.5,1.5,14,,,,,,,,
,,,,,,,,,,,,,,,658,2022-06-15_20h44.42.411,multiplicationStroop,2021.2.3,Win32,59.64096141,,,,,,,,,,,,,,,,,,,,,,,,,,,,,,,,,36,2.2988,1,0,24,24,32,1,6,×,6,6 × 6,neutral,tie,1.5,1.5,36,,,,,,,,
,,,,,,,,,,,,,,,658,2022-06-15_20h44.42.411,multiplicationStroop,2021.2.3,Win32,59.64096141,,,,,,,,,,,,,,,,,,,,,,,,,,,,,,,,,21,1.499,1,0,25,25,8,1,3,×,7,3 × 7,neutral,smallerFirst,1.5,1.5,21,,,,,,,,
,,,,,,,,,,,,,,,658,2022-06-15_20h44.42.411,multiplicationStroop,2021.2.3,Win32,59.64096141,,,,,,,,,,,,,,,,,,,,,,,,,,,,,,,,,12,1.5161,1,0,26,26,25,1,6,×,2,6 × 2,neutral,largerFirst,1.5,1.5,12,,,,,,,,
,,,,,,,,,,,,,,,658,2022-06-15_20h44.42.411,multiplicationStroop,2021.2.3,Win32,59.64096141,,,,,,,,,,,,,,,,,,,,,,,,,,,,,,,,,10,1.399,1,0,27,27,4,1,2,×,5,2 × 5,neutral,smallerFirst,1.5,1.5,10,,,,,,,,
,,,,,,,,,,,,,,,658,2022-06-15_20h44.42.411,multiplicationStroop,2021.2.3,Win32,59.64096141,,,,,,,,,,,,,,,,,,,,,,,,,,,,,,,,,45,1.9825,1,0,28,28,10,1,5,×,9,5 × 9,neutral,smallerFirst,1.5,1.5,45,,,,,,,,
,,,,,,,,,,,,,,,658,2022-06-15_20h44.42.411,multiplicationStroop,2021.2.3,Win32,59.64096141,,,,,,,,,,,,,,,,,,,,,,,,,,,,,,,,,42,2.3656,0,0,29,29,17,1,7,×,4,7 × 4,neutral,largerFirst,1.5,1.5,28,,,,,,,,
,,,,,,,,,,,,,,,658,2022-06-15_20h44.42.411,multiplicationStroop,2021.2.3,Win32,59.64096141,,,,,,,,,,,,,,,,,,,,,,,,,,,,,,,,,18,2.0828,1,0,30,30,0,1,3,×,6,3 × 6,neutral,smallerFirst,1.5,1.5,18,,,,,,,,
,,,,,,,,,,,,,,,658,2022-06-15_20h44.42.411,multiplicationStroop,2021.2.3,Win32,59.64096141,,,,,,,,,,,,,,,,,,,,,,,,,,,,,,,,,25,1.6661,1,0,31,31,31,1,5,×,5,5 × 5,neutral,tie,1.5,1.5,25,,,,,,,,
,,,,,,,,,,,,,,,658,2022-06-15_20h44.42.411,multiplicationStroop,2021.2.3,Win32,59.64096141,,,,,,,,,,,,,,,,,,,,,,,,,,,,,,,,,81,1.9157,1,0,32,32,35,1,9,×,9,9 × 9,neutral,tie,1.5,1.5,81,,,,,,,,
,,,,,,,,,,,,,,,658,2022-06-15_20h44.42.411,multiplicationStroop,2021.2.3,Win32,59.64096141,,,,,,,,,,,,,,,,,,,,,,,,,,,,,,,,,72,2.1992,1,0,33,33,11,1,8,×,9,8 × 9,neutral,smallerFirst,1.5,1.5,72,,,,,,,,
,,,,,,,,,,,,,,,658,2022-06-15_20h44.42.411,multiplicationStroop,2021.2.3,Win32,59.64096141,,,,,,,,,,,,,,,,,,,,,,,,,,,,,,,,,24,1.7337,1,0,34,34,2,1,4,×,6,4 × 6,neutral,smallerFirst,1.5,1.5,24,,,,,,,,
,,,,,,,,,,,,,,,658,2022-06-15_20h44.42.411,multiplicationStroop,2021.2.3,Win32,59.64096141,,,,,,,,,,,,,,,,,,,,,,,,,,,,,,,,,24,2.8651,1,0,35,35,22,1,8,×,3,8 × 3,neutral,largerFirst,1.5,1.5,24,,,,,,,,
,,,,,,,,,,,,,,,658,2022-06-15_20h44.42.411,multiplicationStroop,2021.2.3,Win32,59.64096141,,,,,,,,,,,,,,,,,,,,,,,,,,,,,,,,,,,,,,,,,,,,,,,,,,0,3,3,1,1,stimulusFile/mult_blk2.xlsx,,
,,,,,,,,,,,,,,,658,2022-06-15_20h44.42.411,multiplicationStroop,2021.2.3,Win32,59.64096141,,,,,,,,,,,,,,,,,,,,,,,,,,,,,,,space,1.1072,15,1.6327,1,0,0,0,10,1,3,×,5,3 × 5,incongruent,smallerFirst,2,1,15,,,,,,,,
,,,,,,,,,,,,,,,658,2022-06-15_20h44.42.411,multiplicationStroop,2021.2.3,Win32,59.64096141,,,,,,,,,,,,,,,,,,,,,,,,,,,,,,,,,81,1.7484,1,0,1,1,35,1,9,×,9,9 × 9,incongruent,tie,1,2,81,,,,,,,,
,,,,,,,,,,,,,,,658,2022-06-15_20h44.42.411,multiplicationStroop,2021.2.3,Win32,59.64096141,,,,,,,,,,,,,,,,,,,,,,,,,,,,,,,,,36,3.3328,1,0,2,2,15,1,9,×,4,9 × 4,incongruent,largerFirst,1,2,36,,,,,,,,
,,,,,,,,,,,,,,,658,2022-06-15_20h44.42.411,multiplicationStroop,2021.2.3,Win32,59.64096141,,,,,,,,,,,,,,,,,,,,,,,,,,,,,,,,,30,2.0161,1,0,3,3,25,1,6,×,5,6 × 5,incongruent,largerFirst,1,2,30,,,,,,,,
,,,,,,,,,,,,,,,658,2022-06-15_20h44.42.411,multiplicationStroop,2021.2.3,Win32,59.64096141,,,,,,,,,,,,,,,,,,,,,,,,,,,,,,,,,24,1.9322,1,0,4,4,20,1,6,×,4,6 × 4,incongruent,largerFirst,1,2,24,,,,,,,,
,,,,,,,,,,,,,,,658,2022-06-15_20h44.42.411,multiplicationStroop,2021.2.3,Win32,59.64096141,,,,,,,,,,,,,,,,,,,,,,,,,,,,,,,,,62,2.3322,0,0,5,5,3,1,7,×,9,7 × 9,incongruent,smallerFirst,2,1,63,,,,,,,,
,,,,,,,,,,,,,,,658,2022-06-15_20h44.42.411,multiplicationStroop,2021.2.3,Win32,59.64096141,,,,,,,,,,,,,,,,,,,,,,,,,,,,,,,,,19,1.6659,0,0,6,6,2,1,2,×,9,2 × 9,incongruent,smallerFirst,2,1,18,,,,,,,,
,,,,,,,,,,,,,,,658,2022-06-15_20h44.42.411,multiplicationStroop,2021.2.3,Win32,59.64096141,,,,,,,,,,,,,,,,,,,,,,,,,,,,,,,,,42,6.3652,1,0,7,7,17,1,7,×,6,7 × 6,incongruent,largerFirst,1,2,42,,,,,,,,
,,,,,,,,,,,,,,,658,2022-06-15_20h44.42.411,multiplicationStroop,2021.2.3,Win32,59.64096141,,,,,,,,,,,,,,,,,,,,,,,,,,,,,,,,,45,2.0849,1,0,8,8,22,1,9,×,5,9 × 5,incongruent,largerFirst,1,2,45,,,,,,,,
,,,,,,,,,,,,,,,658,2022-06-15_20h44.42.411,multiplicationStroop,2021.2.3,Win32,59.64096141,,,,,,,,,,,,,,,,,,,,,,,,,,,,,,,,,32,2.5659,1,0,9,9,7,1,4,×,8,4 × 8,incongruent,smallerFirst,2,1,32,,,,,,,,
,,,,,,,,,,,,,,,658,2022-06-15_20h44.42.411,multiplicationStroop,2021.2.3,Win32,59.64096141,,,,,,,,,,,,,,,,,,,,,,,,,,,,,,,,,12,1.3156,1,0,10,10,19,1,6,×,2,6 × 2,incongruent,largerFirst,1,2,12,,,,,,,,
,,,,,,,,,,,,,,,658,2022-06-15_20h44.42.411,multiplicationStroop,2021.2.3,Win32,59.64096141,,,,,,,,,,,,,,,,,,,,,,,,,,,,,,,,,64,7.2147,1,0,11,11,34,1,8,×,8,8 × 8,incongruent,tie,1,2,64,,,,,,,,
,,,,,,,,,,,,,,,658,2022-06-15_20h44.42.411,multiplicationStroop,2021.2.3,Win32,59.64096141,,,,,,,,,,,,,,,,,,,,,,,,,,,,,,,,,12,1.5792,1,0,12,12,5,1,3,×,4,3 × 4,incongruent,smallerFirst,2,1,12,,,,,,,,
,,,,,,,,,,,,,,,658,2022-06-15_20h44.42.411,multiplicationStroop,2021.2.3,Win32,59.64096141,,,,,,,,,,,,,,,,,,,,,,,,,,,,,,,,,20,1.6826,1,0,13,13,27,1,5,×,4,5 × 4,incongruent,largerFirst,1,2,20,,,,,,,,
,,,,,,,,,,,,,,,658,2022-06-15_20h44.42.411,multiplicationStroop,2021.2.3,Win32,59.64096141,,,,,,,,,,,,,,,,,,,,,,,,,,,,,,,,,72,2.2825,1,0,14,14,0,1,8,×,9,8 × 9,incongruent,smallerFirst,2,1,72,,,,,,,,
,,,,,,,,,,,,,,,658,2022-06-15_20h44.42.411,multiplicationStroop,2021.2.3,Win32,59.64096141,,,,,,,,,,,,,,,,,,,,,,,,,,,,,,,,,14,2.4984,1,0,15,15,4,1,2,×,7,2 × 7,incongruent,smallerFirst,2,1,14,,,,,,,,
,,,,,,,,,,,,,,,658,2022-06-15_20h44.42.411,multiplicationStroop,2021.2.3,Win32,59.64096141,,,,,,,,,,,,,,,,,,,,,,,,,,,,,,,,,24,3.1879,1,0,16,16,9,1,3,×,8,3 × 8,incongruent,smallerFirst,2,1,24,,,,,,,,
,,,,,,,,,,,,,,,658,2022-06-15_20h44.42.411,multiplicationStroop,2021.2.3,Win32,59.64096141,,,,,,,,,,,,,,,,,,,,,,,,,,,,,,,,,36,2.3646,1,0,17,17,32,1,6,×,6,6 × 6,incongruent,tie,1,2,36,,,,,,,,
,,,,,,,,,,,,,,,658,2022-06-15_20h44.42.411,multiplicationStroop,2021.2.3,Win32,59.64096141,,,,,,,,,,,,,,,,,,,,,,,,,,,,,,,,,40,2.0811,1,0,18,18,13,1,5,×,8,5 × 8,incongruent,smallerFirst,2,1,40,,,,,,,,
,,,,,,,,,,,,,,,658,2022-06-15_20h44.42.411,multiplicationStroop,2021.2.3,Win32,59.64096141,,,,,,,,,,,,,,,,,,,,,,,,,,,,,,,,,35,2.6155,1,0,19,19,12,1,5,×,7,5 × 7,incongruent,smallerFirst,2,1,35,,,,,,,,
,,,,,,,,,,,,,,,658,2022-06-15_20h44.42.411,multiplicationStroop,2021.2.3,Win32,59.64096141,,,,,,,,,,,,,,,,,,,,,,,,,,,,,,,,,54,2.4049,1,0,20,20,6,1,6,×,9,6 × 9,incongruent,smallerFirst,2,1,54,,,,,,,,
,,,,,,,,,,,,,,,658,2022-06-15_20h44.42.411,multiplicationStroop,2021.2.3,Win32,59.64096141,,,,,,,,,,,,,,,,,,,,,,,,,,,,,,,,,4,1.4812,1,0,21,21,28,1,2,×,2,2 × 2,incongruent,tie,1,2,4,,,,,,,,
,,,,,,,,,,,,,,,658,2022-06-15_20h44.42.411,multiplicationStroop,2021.2.3,Win32,59.64096141,,,,,,,,,,,,,,,,,,,,,,,,,,,,,,,,,10,1.6988,1,0,22,22,21,1,5,×,2,5 × 2,incongruent,largerFirst,1,2,10,,,,,,,,
,,,,,,,,,,,,,,,658,2022-06-15_20h44.42.411,multiplicationStroop,2021.2.3,Win32,59.64096141,,,,,,,,,,,,,,,,,,,,,,,,,,,,,,,,,21,1.4306,1,0,23,23,26,1,7,×,3,7 × 3,incongruent,largerFirst,1,2,21,,,,,,,,
,,,,,,,,,,,,,,,658,2022-06-15_20h44.42.411,multiplicationStroop,2021.2.3,Win32,59.64096141,,,,,,,,,,,,,,,,,,,,,,,,,,,,,,,,,49,4.5146,1,0,24,24,33,1,7,×,7,7 × 7,incongruent,tie,1,2,49,,,,,,,,
,,,,,,,,,,,,,,,658,2022-06-15_20h44.42.411,multiplicationStroop,2021.2.3,Win32,59.64096141,,,,,,,,,,,,,,,,,,,,,,,,,,,,,,,,,27,1.8884,1,0,25,25,18,1,9,×,3,9 × 3,incongruent,largerFirst,1,2,27,,,,,,,,
,,,,,,,,,,,,,,,658,2022-06-15_20h44.42.411,multiplicationStroop,2021.2.3,Win32,59.64096141,,,,,,,,,,,,,,,,,,,,,,,,,,,,,,,,,72,2.3824,0,0,26,26,1,1,6,×,8,6 × 8,incongruent,smallerFirst,2,1,48,,,,,,,,
,,,,,,,,,,,,,,,658,2022-06-15_20h44.42.411,multiplicationStroop,2021.2.3,Win32,59.64096141,,,,,,,,,,,,,,,,,,,,,,,,,,,,,,,,,16,1.7633,1,0,27,27,23,1,8,×,2,8 × 2,incongruent,largerFirst,1,2,16,,,,,,,,
,,,,,,,,,,,,,,,658,2022-06-15_20h44.42.411,multiplicationStroop,2021.2.3,Win32,59.64096141,,,,,,,,,,,,,,,,,,,,,,,,,,,,,,,,,18,2.7817,1,0,28,28,8,1,3,×,6,3 × 6,incongruent,smallerFirst,2,1,18,,,,,,,,
,,,,,,,,,,,,,,,658,2022-06-15_20h44.42.411,multiplicationStroop,2021.2.3,Win32,59.64096141,,,,,,,,,,,,,,,,,,,,,,,,,,,,,,,,,56,1.8164,1,0,29,29,14,1,8,×,7,8 × 7,incongruent,largerFirst,1,2,56,,,,,,,,
,,,,,,,,,,,,,,,658,2022-06-15_20h44.42.411,multiplicationStroop,2021.2.3,Win32,59.64096141,,,,,,,,,,,,,,,,,,,,,,,,,,,,,,,,,25,1.8489,1,0,30,30,31,1,5,×,5,5 × 5,incongruent,tie,1,2,25,,,,,,,,
,,,,,,,,,,,,,,,658,2022-06-15_20h44.42.411,multiplicationStroop,2021.2.3,Win32,59.64096141,,,,,,,,,,,,,,,,,,,,,,,,,,,,,,,,,28,2.4131,1,0,31,31,16,1,7,×,4,7 × 4,incongruent,largerFirst,1,2,28,,,,,,,,
,,,,,,,,,,,,,,,658,2022-06-15_20h44.42.411,multiplicationStroop,2021.2.3,Win32,59.64096141,,,,,,,,,,,,,,,,,,,,,,,,,,,,,,,,,6,1.7978,1,0,32,32,11,1,2,×,3,2 × 3,incongruent,smallerFirst,2,1,6,,,,,,,,
,,,,,,,,,,,,,,,658,2022-06-15_20h44.42.411,multiplicationStroop,2021.2.3,Win32,59.64096141,,,,,,,,,,,,,,,,,,,,,,,,,,,,,,,,,8,1.5664,1,0,33,33,24,1,4,×,2,4 × 2,incongruent,largerFirst,1,2,8,,,,,,,,
,,,,,,,,,,,,,,,658,2022-06-15_20h44.42.411,multiplicationStroop,2021.2.3,Win32,59.64096141,,,,,,,,,,,,,,,,,,,,,,,,,,,,,,,,,9,1.598,1,0,34,34,29,1,3,×,3,3 × 3,incongruent,tie,1,2,9,,,,,,,,
,,,,,,,,,,,,,,,658,2022-06-15_20h44.42.411,multiplicationStroop,2021.2.3,Win32,59.64096141,,,,,,,,,,,,,,,,,,,,,,,,,,,,,,,,,16,1.7153,1,0,35,35,30,1,4,×,4,4 × 4,incongruent,tie,1,2,16,,,,,,,,
,,,,,,,,,,,,,,,658,2022-06-15_20h44.42.411,multiplicationStroop,2021.2.3,Win32,59.64096141,,,,,,,,,,,,,,,,,,,,,,,,,,,,,,,,,,,,,,,,,,,,,,,,,,0,4,4,5,1,stimulusFile/mult_blk6_INcongruent.xlsx,,
,,,,,,,,,,,,,,,658,2022-06-15_20h44.42.411,multiplicationStroop,2021.2.3,Win32,59.64096141,,,,,,,,,,,,,,,,,,,,,,,,,,,,,,,space,0.8171,18,2.0875,1,0,0,0,22,1,6,×,3,6 × 3,incongruent,largerFirst,1,2,18,,,,,,,,
,,,,,,,,,,,,,,,658,2022-06-15_20h44.42.411,multiplicationStroop,2021.2.3,Win32,59.64096141,,,,,,,,,,,,,,,,,,,,,,,,,,,,,,,,,4,1.3143,1,0,1,1,28,1,2,×,2,2 × 2,neutral,tie,2,1,4,,,,,,,,
,,,,,,,,,,,,,,,658,2022-06-15_20h44.42.411,multiplicationStroop,2021.2.3,Win32,59.64096141,,,,,,,,,,,,,,,,,,,,,,,,,,,,,,,,,24,2.1489,1,0,2,2,23,1,8,×,3,8 × 3,incongruent,largerFirst,1,2,24,,,,,,,,
,,,,,,,,,,,,,,,658,2022-06-15_20h44.42.411,multiplicationStroop,2021.2.3,Win32,59.64096141,,,,,,,,,,,,,,,,,,,,,,,,,,,,,,,,,40,3.0154,1,0,3,3,27,1,8,×,5,8 × 5,incongruent,largerFirst,1,2,40,,,,,,,,
,,,,,,,,,,,,,,,658,2022-06-15_20h44.42.411,multiplicationStroop,2021.2.3,Win32,59.64096141,,,,,,,,,,,,,,,,,,,,,,,,,,,,,,,,,12,1.6055,1,0,4,4,19,1,4,×,3,4 × 3,incongruent,largerFirst,1,2,12,,,,,,,,
,,,,,,,,,,,,,,,658,2022-06-15_20h44.42.411,multiplicationStroop,2021.2.3,Win32,59.64096141,,,,,,,,,,,,,,,,,,,,,,,,,,,,,,,,,20,2.9489,1,0,5,5,13,1,4,×,5,4 × 5,incongruent,smallerFirst,2,1,20,,,,,,,,
,,,,,,,,,,,,,,,658,2022-06-15_20h44.42.411,multiplicationStroop,2021.2.3,Win32,59.64096141,,,,,,,,,,,,,,,,,,,,,,,,,,,,,,,,,36,2.3986,1,0,6,6,1,1,4,×,9,4 × 9,incongruent,smallerFirst,2,1,36,,,,,,,,
,,,,,,,,,,,,,,,658,2022-06-15_20h44.42.411,multiplicationStroop,2021.2.3,Win32,59.64096141,,,,,,,,,,,,,,,,,,,,,,,,,,,,,,,,,10,1.4159,1,0,7,7,7,1,2,×,5,2 × 5,incongruent,smallerFirst,2,1,10,,,,,,,,
,,,,,,,,,,,,,,,658,2022-06-15_20h44.42.411,multiplicationStroop,2021.2.3,Win32,59.64096141,,,,,,,,,,,,,,,,,,,,,,,,,,,,,,,,,16,1.6646,1,0,8,8,30,1,4,×,4,4 × 4,neutral,tie,2,1,16,,,,,,,,
,,,,,,,,,,,,,,,658,2022-06-15_20h44.42.411,multiplicationStroop,2021.2.3,Win32,59.64096141,,,,,,,,,,,,,,,,,,,,,,,,,,,,,,,,,8,2.6482,1,0,9,9,10,1,2,×,4,2 × 4,incongruent,smallerFirst,2,1,8,,,,,,,,
,,,,,,,,,,,,,,,658,2022-06-15_20h44.42.411,multiplicationStroop,2021.2.3,Win32,59.64096141,,,,,,,,,,,,,,,,,,,,,,,,,,,,,,,,,21,1.5481,1,0,10,10,12,1,3,×,7,3 × 7,incongruent,smallerFirst,2,1,21,,,,,,,,
,,,,,,,,,,,,,,,658,2022-06-15_20h44.42.411,multiplicationStroop,2021.2.3,Win32,59.64096141,,,,,,,,,,,,,,,,,,,,,,,,,,,,,,,,,12,1.5313,1,0,11,11,5,1,2,×,6,2 × 6,incongruent,smallerFirst,2,1,12,,,,,,,,
,,,,,,,,,,,,,,,658,2022-06-15_20h44.42.411,multiplicationStroop,2021.2.3,Win32,59.64096141,,,,,,,,,,,,,,,,,,,,,,,,,,,,,,,,,28,2.799,1,0,12,12,2,1,4,×,7,4 × 7,incongruent,smallerFirst,2,1,28,,,,,,,,
,,,,,,,,,,,,,,,658,2022-06-15_20h44.42.411,multiplicationStroop,2021.2.3,Win32,59.64096141,,,,,,,,,,,,,,,,,,,,,,,,,,,,,,,,,9,1.4648,1,0,13,13,29,1,3,×,3,3 × 3,neutral,tie,2,1,9,,,,,,,,
,,,,,,,,,,,,,,,658,2022-06-15_20h44.42.411,multiplicationStroop,2021.2.3,Win32,59.64096141,,,,,,,,,,,,,,,,,,,,,,,,,,,,,,,,,15,1.5983,1,0,14,14,24,1,5,×,3,5 × 3,incongruent,largerFirst,1,2,15,,,,,,,,
,,,,,,,,,,,,,,,658,2022-06-15_20h44.42.411,multiplicationStroop,2021.2.3,Win32,59.64096141,,,,,,,,,,,,,,,,,,,,,,,,,,,,,,,,,30,3.083,1,0,15,15,11,1,5,×,6,5 × 6,incongruent,smallerFirst,2,1,30,,,,,,,,
,,,,,,,,,,,,,,,658,2022-06-15_20h44.42.411,multiplicationStroop,2021.2.3,Win32,59.64096141,,,,,,,,,,,,,,,,,,,,,,,,,,,,,,,,,16,1.7805,1,0,16,16,9,1,2,×,8,2 × 8,incongruent,smallerFirst,2,1,16,,,,,,,,
,,,,,,,,,,,,,,,658,2022-06-15_20h44.42.411,multiplicationStroop,2021.2.3,Win32,59.64096141,,,,,,,,,,,,,,,,,,,,,,,,,,,,,,,,,48,2.1642,1,0,17,17,15,1,8,×,6,8 × 6,incongruent,largerFirst,1,2,48,,,,,,,,
,,,,,,,,,,,,,,,658,2022-06-15_20h44.42.411,multiplicationStroop,2021.2.3,Win32,59.64096141,,,,,,,,,,,,,,,,,,,,,,,,,,,,,,,,,25,1.832,1,0,18,18,31,1,5,×,5,5 × 5,neutral,tie,2,1,25,,,,,,,,
,,,,,,,,,,,,,,,658,2022-06-15_20h44.42.411,multiplicationStroop,2021.2.3,Win32,59.64096141,,,,,,,,,,,,,,,,,,,,,,,,,,,,,,,,,64,1.8978,1,0,19,19,34,1,8,×,8,8 × 8,neutral,tie,2,1,64,,,,,,,,
,,,,,,,,,,,,,,,658,2022-06-15_20h44.42.411,multiplicationStroop,2021.2.3,Win32,59.64096141,,,,,,,,,,,,,,,,,,,,,,,,,,,,,,,,,56,1.8483,0,0,20,20,20,1,9,×,6,9 × 6,incongruent,largerFirst,1,2,54,,,,,,,,
,,,,,,,,,,,,,,,658,2022-06-15_20h44.42.411,multiplicationStroop,2021.2.3,Win32,59.64096141,,,,,,,,,,,,,,,,,,,,,,,,,,,,,,,,,49,2.4472,1,0,21,21,33,1,7,×,7,7 × 7,neutral,tie,2,1,49,,,,,,,,
,,,,,,,,,,,,,,,658,2022-06-15_20h44.42.411,multiplicationStroop,2021.2.3,Win32,59.64096141,,,,,,,,,,,,,,,,,,,,,,,,,,,,,,,,,72,2.4654,1,0,22,22,14,1,9,×,8,9 × 8,incongruent,largerFirst,1,2,72,,,,,,,,
,,,,,,,,,,,,,,,658,2022-06-15_20h44.42.411,multiplicationStroop,2021.2.3,Win32,59.64096141,,,,,,,,,,,,,,,,,,,,,,,,,,,,,,,,,35,1.9822,1,0,23,23,26,1,7,×,5,7 × 5,incongruent,largerFirst,1,2,35,,,,,,,,
,,,,,,,,,,,,,,,658,2022-06-15_20h44.42.411,multiplicationStroop,2021.2.3,Win32,59.64096141,,,,,,,,,,,,,,,,,,,,,,,,,,,,,,,,,14,2.5997,1,0,24,24,18,1,7,×,2,7 × 2,incongruent,largerFirst,1,2,14,,,,,,,,
,,,,,,,,,,,,,,,658,2022-06-15_20h44.42.411,multiplicationStroop,2021.2.3,Win32,59.64096141,,,,,,,,,,,,,,,,,,,,,,,,,,,,,,,,,56,1.9704,1,0,25,25,0,1,7,×,8,7 × 8,incongruent,smallerFirst,2,1,56,,,,,,,,
,,,,,,,,,,,,,,,658,2022-06-15_20h44.42.411,multiplicationStroop,2021.2.3,Win32,59.64096141,,,,,,,,,,,,,,,,,,,,,,,,,,,,,,,,,63,1.8144,1,0,26,26,17,1,9,×,7,9 × 7,incongruent,largerFirst,1,2,63,,,,,,,,
,,,,,,,,,,,,,,,658,2022-06-15_20h44.42.411,multiplicationStroop,2021.2.3,Win32,59.64096141,,,,,,,,,,,,,,,,,,,,,,,,,,,,,,,,,18,1.6165,1,0,27,27,16,1,9,×,2,9 × 2,incongruent,largerFirst,1,2,18,,,,,,,,
,,,,,,,,,,,,,,,658,2022-06-15_20h44.42.411,multiplicationStroop,2021.2.3,Win32,59.64096141,,,,,,,,,,,,,,,,,,,,,,,,,,,,,,,,,81,1.7647,1,0,28,28,35,1,9,×,9,9 × 9,neutral,tie,2,1,81,,,,,,,,
,,,,,,,,,,,,,,,658,2022-06-15_20h44.42.411,multiplicationStroop,2021.2.3,Win32,59.64096141,,,,,,,,,,,,,,,,,,,,,,,,,,,,,,,,,27,1.9151,1,0,29,29,4,1,3,×,9,3 × 9,incongruent,smallerFirst,2,1,27,,,,,,,,
,,,,,,,,,,,,,,,658,2022-06-15_20h44.42.411,multiplicationStroop,2021.2.3,Win32,59.64096141,,,,,,,,,,,,,,,,,,,,,,,,,,,,,,,,,36,1.8646,1,0,30,30,32,1,6,×,6,6 × 6,neutral,tie,2,1,36,,,,,,,,
,,,,,,,,,,,,,,,658,2022-06-15_20h44.42.411,multiplicationStroop,2021.2.3,Win32,59.64096141,,,,,,,,,,,,,,,,,,,,,,,,,,,,,,,,,45,3.6487,1,0,31,31,8,1,5,×,9,5 × 9,incongruent,smallerFirst,2,1,45,,,,,,,,
,,,,,,,,,,,,,,,658,2022-06-15_20h44.42.411,multiplicationStroop,2021.2.3,Win32,59.64096141,,,,,,,,,,,,,,,,,,,,,,,,,,,,,,,,,32,5.0721,1,0,32,32,21,1,8,×,4,8 × 4,incongruent,largerFirst,1,2,32,,,,,,,,
,,,,,,,,,,,,,,,658,2022-06-15_20h44.42.411,multiplicationStroop,2021.2.3,Win32,59.64096141,,,,,,,,,,,,,,,,,,,,,,,,,,,,,,,,,24,1.9886,1,0,33,33,6,1,4,×,6,4 × 6,incongruent,smallerFirst,2,1,24,,,,,,,,
,,,,,,,,,,,,,,,658,2022-06-15_20h44.42.411,multiplicationStroop,2021.2.3,Win32,59.64096141,,,,,,,,,,,,,,,,,,,,,,,,,,,,,,,,,6,1.7316,1,0,34,34,25,1,3,×,2,3 × 2,incongruent,largerFirst,1,2,6,,,,,,,,
,,,,,,,,,,,,,,,658,2022-06-15_20h44.42.411,multiplicationStroop,2021.2.3,Win32,59.64096141,,,,,,,,,,,,,,,,,,,,,,,,,,,,,,,,,43,2.9475,0,0,35,35,3,1,6,×,7,6 × 7,incongruent,smallerFirst,2,1,42,,,,,,,,
,,,,,,,,,,,,,,,658,2022-06-15_20h44.42.411,multiplicationStroop,2021.2.3,Win32,59.64096141,,,,,,,,,,,,,,,,,,,,,,,,,,,,,,,,,,,,,,,,,,,,,,,,,,0,5,5,4,1,stimulusFile/mult_blk5_INcongruent.xlsx,,
,,,,,,,,,,,,,,,658,2022-06-15_20h44.42.411,multiplicationStroop,2021.2.3,Win32,59.64096141,,,,,,,,,,,,,,,,,,,,,,,,,,,,,,,,,,,,,,,,,,,,,,,,,,,,,,,,space,1.7555