welcomeKey_resp.keys,welcomeKey_resp.rt,X Scale,Y Scale,rt_resp_4.keys,rt_resp_4.corr,rt_resp_4.rt,speedtest_2.thisRepN,speedtest_2.thisTrialN,speedtest_2.thisN,speedtest_2.thisIndex,speedtest_2.ran,numberSc,posX,positionLayout,participant,date,expName,psychopyVersion,OS,frameRate,ct_instrresp.keys,ct_instrresp.rt,key_resp_2.keys,key_resp_2.rt,ct_keyResp.keys,ct_keyResp.corr,ct_keyResp.rt,trials.thisRepN,trials.thisTrialN,trials.thisN,trials.thisIndex,trials.ran,leftNo,rightNo,displayProblem,numDistance,leftNo_size,rightNo_size,Dims,keyAnswer,TS_Loop.thisRepN,TS_Loop.thisTrialN,TS_Loop.thisN,TS_Loop.thisIndex,TS_Loop.ran,Condition,ActionInst,instrImage,mltptaskInst_resp.keys,mltptaskInst_resp.rt,continue_resp_2.keys,continue_resp_2.rt,multp_Answer,multi_RT,multiplyCorr,LoopingMultiply.thisRepN,LoopingMultiply.thisTrialN,LoopingMultiply.thisN,LoopingMultiply.thisIndex,LoopingMultiply.ran,factor1,multiplySign,factor2,multliplyProblem,physicalSize,orderOperand,sizeF1,sizeF2,mult_answer,trials_stroop.thisRepN,trials_stroop.thisTrialN,trials_stroop.thisN,trials_stroop.thisIndex,trials_stroop.ran,multiplicationFile,esckey_resp_2.keys,esckey_resp_2.rt
y,21.3858,41,41.3,left,1,2.1004,0,0,0,0,1,1,-200,left,667,2022-06-02_10h27.10.487,multiplicationStroop,2021.2.3,Win32,60.35003018,,,,,,,,,,,,,,,,,,,,,,,,,,,,,,,,,,,,,,,,,,,,,,,,,,,,,,,,,
,,,,left,1,0.7512,0,1,1,4,1,6,-200,left,667,2022-06-02_10h27.10.487,multiplicationStroop,2021.2.3,Win32,60.35003018,,,,,,,,,,,,,,,,,,,,,,,,,,,,,,,,,,,,,,,,,,,,,,,,,,,,,,,,,
,,,,right,1,0.5423,0,2,2,12,1,6,200,right,667,2022-06-02_10h27.10.487,multiplicationStroop,2021.2.3,Win32,60.35003018,,,,,,,,,,,,,,,,,,,,,,,,,,,,,,,,,,,,,,,,,,,,,,,,,,,,,,,,,
,,,,left,1,0.5567,0,3,3,2,1,3,-200,left,667,2022-06-02_10h27.10.487,multiplicationStroop,2021.2.3,Win32,60.35003018,,,,,,,,,,,,,,,,,,,,,,,,,,,,,,,,,,,,,,,,,,,,,,,,,,,,,,,,,
,,,,left,1,0.5545,0,4,4,3,1,4,-200,left,667,2022-06-02_10h27.10.487,multiplicationStroop,2021.2.3,Win32,60.35003018,,,,,,,,,,,,,,,,,,,,,,,,,,,,,,,,,,,,,,,,,,,,,,,,,,,,,,,,,
,,,,right,1,1.4354,0,5,5,9,1,2,200,right,667,2022-06-02_10h27.10.487,multiplicationStroop,2021.2.3,Win32,60.35003018,,,,,,,,,,,,,,,,,,,,,,,,,,,,,,,,,,,,,,,,,,,,,,,,,,,,,,,,,
,,,,left,1,0.7702,0,6,6,7,1,9,-200,left,667,2022-06-02_10h27.10.487,multiplicationStroop,2021.2.3,Win32,60.35003018,,,,,,,,,,,,,,,,,,,,,,,,,,,,,,,,,,,,,,,,,,,,,,,,,,,,,,,,,
,,,,right,1,0.7117,0,7,7,13,1,7,200,right,667,2022-06-02_10h27.10.487,multiplicationStroop,2021.2.3,Win32,60.35003018,,,,,,,,,,,,,,,,,,,,,,,,,,,,,,,,,,,,,,,,,,,,,,,,,,,,,,,,,
,,,,right,1,1.0876,0,8,8,15,1,9,200,right,667,2022-06-02_10h27.10.487,multiplicationStroop,2021.2.3,Win32,60.35003018,,,,,,,,,,,,,,,,,,,,,,,,,,,,,,,,,,,,,,,,,,,,,,,,,,,,,,,,,
,,,,right,1,0.6012,0,9,9,10,1,3,200,right,667,2022-06-02_10h27.10.487,multiplicationStroop,2021.2.3,Win32,60.35003018,,,,,,,,,,,,,,,,,,,,,,,,,,,,,,,,,,,,,,,,,,,,,,,,,,,,,,,,,
,,,,left,1,0.6096,0,10,10,6,1,8,-200,left,667,2022-06-02_10h27.10.487,multiplicationStroop,2021.2.3,Win32,60.35003018,,,,,,,,,,,,,,,,,,,,,,,,,,,,,,,,,,,,,,,,,,,,,,,,,,,,,,,,,
,,,,left,1,0.621,0,11,11,1,1,2,-200,left,667,2022-06-02_10h27.10.487,multiplicationStroop,2021.2.3,Win32,60.35003018,,,,,,,,,,,,,,,,,,,,,,,,,,,,,,,,,,,,,,,,,,,,,,,,,,,,,,,,,
,,,,right,1,0.5537,0,12,12,8,1,1,200,right,667,2022-06-02_10h27.10.487,multiplicationStroop,2021.2.3,Win32,60.35003018,,,,,,,,,,,,,,,,,,,,,,,,,,,,,,,,,,,,,,,,,,,,,,,,,,,,,,,,,
,,,,left,1,0.6174,0,13,13,5,1,7,-200,left,667,2022-06-02_10h27.10.487,multiplicationStroop,2021.2.3,Win32,60.35003018,,,,,,,,,,,,,,,,,,,,,,,,,,,,,,,,,,,,,,,,,,,,,,,,,,,,,,,,,
,,,,right,1,0.6099,0,14,14,14,1,8,200,right,667,2022-06-02_10h27.10.487,multiplicationStroop,2021.2.3,Win32,60.35003018,,,,,,,,,,,,,,,,,,,,,,,,,,,,,,,,,,,,,,,,,,,,,,,,,,,,,,,,,
,,,,right,1,0.6217,0,15,15,11,1,4,200,right,667,2022-06-02_10h27.10.487,multiplicationStroop,2021.2.3,Win32,60.35003018,,,,,,,,,,,,,,,,,,,,,,,,,,,,,,,,,,,,,,,,,,,,,,,,,,,,,,,,,
,,,,left,1,0.5722,1,0,16,3,1,4,-200,left,667,2022-06-02_10h27.10.487,multiplicationStroop,2021.2.3,Win32,60.35003018,,,,,,,,,,,,,,,,,,,,,,,,,,,,,,,,,,,,,,,,,,,,,,,,,,,,,,,,,
,,,,left,1,0.5682,1,1,17,6,1,8,-200,left,667,2022-06-02_10h27.10.487,multiplicationStroop,2021.2.3,Win32,60.35003018,,,,,,,,,,,,,,,,,,,,,,,,,,,,,,,,,,,,,,,,,,,,,,,,,,,,,,,,,
,,,,right,1,0.9022,1,2,18,11,1,4,200,right,667,2022-06-02_10h27.10.487,multiplicationStroop,2021.2.3,Win32,60.35003018,,,,,,,,,,,,,,,,,,,,,,,,,,,,,,,,,,,,,,,,,,,,,,,,,,,,,,,,,
,,,,left,1,0.5177,1,3,19,0,1,1,-200,left,667,2022-06-02_10h27.10.487,multiplicationStroop,2021.2.3,Win32,60.35003018,,,,,,,,,,,,,,,,,,,,,,,,,,,,,,,,,,,,,,,,,,,,,,,,,,,,,,,,,
,,,,right,1,0.4343,1,4,20,12,1,6,200,right,667,2022-06-02_10h27.10.487,multiplicationStroop,2021.2.3,Win32,60.35003018,,,,,,,,,,,,,,,,,,,,,,,,,,,,,,,,,,,,,,,,,,,,,,,,,,,,,,,,,
,,,,right,1,0.6447,1,5,21,9,1,2,200,right,667,2022-06-02_10h27.10.487,multiplicationStroop,2021.2.3,Win32,60.35003018,,,,,,,,,,,,,,,,,,,,,,,,,,,,,,,,,,,,,,,,,,,,,,,,,,,,,,,,,
,,,,left,1,0.4177,1,6,22,4,1,6,-200,left,667,2022-06-02_10h27.10.487,multiplicationStroop,2021.2.3,Win32,60.35003018,,,,,,,,,,,,,,,,,,,,,,,,,,,,,,,,,,,,,,,,,,,,,,,,,,,,,,,,,
,,,,right,1,0.354,1,7,23,8,1,1,200,right,667,2022-06-02_10h27.10.487,multiplicationStroop,2021.2.3,Win32,60.35003018,,,,,,,,,,,,,,,,,,,,,,,,,,,,,,,,,,,,,,,,,,,,,,,,,,,,,,,,,
,,,,left,1,0.4074,1,8,24,1,1,2,-200,left,667,2022-06-02_10h27.10.487,multiplicationStroop,2021.2.3,Win32,60.35003018,,,,,,,,,,,,,,,,,,,,,,,,,,,,,,,,,,,,,,,,,,,,,,,,,,,,,,,,,
,,,,right,1,0.4595,1,9,25,14,1,8,200,right,667,2022-06-02_10h27.10.487,multiplicationStroop,2021.2.3,Win32,60.35003018,,,,,,,,,,,,,,,,,,,,,,,,,,,,,,,,,,,,,,,,,,,,,,,,,,,,,,,,,
,,,,right,1,0.4515,1,10,26,13,1,7,200,right,667,2022-06-02_10h27.10.487,multiplicationStroop,2021.2.3,Win32,60.35003018,,,,,,,,,,,,,,,,,,,,,,,,,,,,,,,,,,,,,,,,,,,,,,,,,,,,,,,,,
,,,,left,1,0.3673,1,11,27,7,1,9,-200,left,667,2022-06-02_10h27.10.487,multiplicationStroop,2021.2.3,Win32,60.35003018,,,,,,,,,,,,,,,,,,,,,,,,,,,,,,,,,,,,,,,,,,,,,,,,,,,,,,,,,
,,,,right,1,0.3724,1,12,28,10,1,3,200,right,667,2022-06-02_10h27.10.487,multiplicationStroop,2021.2.3,Win32,60.35003018,,,,,,,,,,,,,,,,,,,,,,,,,,,,,,,,,,,,,,,,,,,,,,,,,,,,,,,,,
,,,,right,1,0.4428,1,13,29,15,1,9,200,right,667,2022-06-02_10h27.10.487,multiplicationStroop,2021.2.3,Win32,60.35003018,,,,,,,,,,,,,,,,,,,,,,,,,,,,,,,,,,,,,,,,,,,,,,,,,,,,,,,,,
,,,,left,1,0.3674,1,14,30,5,1,7,-200,left,667,2022-06-02_10h27.10.487,multiplicationStroop,2021.2.3,Win32,60.35003018,,,,,,,,,,,,,,,,,,,,,,,,,,,,,,,,,,,,,,,,,,,,,,,,,,,,,,,,,
,,,,left,1,0.3856,1,15,31,2,1,3,-200,left,667,2022-06-02_10h27.10.487,multiplicationStroop,2021.2.3,Win32,60.35003018,,,,,,,,,,,,,,,,,,,,,,,,,,,,,,,,,,,,,,,,,,,,,,,,,,,,,,,,,
,,,,right,1,0.4214,2,0,32,12,1,6,200,right,667,2022-06-02_10h27.10.487,multiplicationStroop,2021.2.3,Win32,60.35003018,,,,,,,,,,,,,,,,,,,,,,,,,,,,,,,,,,,,,,,,,,,,,,,,,,,,,,,,,
,,,,right,1,0.3661,2,1,33,13,1,7,200,right,667,2022-06-02_10h27.10.487,multiplicationStroop,2021.2.3,Win32,60.35003018,,,,,,,,,,,,,,,,,,,,,,,,,,,,,,,,,,,,,,,,,,,,,,,,,,,,,,,,,
,,,,left,1,0.4176,2,2,34,1,1,2,-200,left,667,2022-06-02_10h27.10.487,multiplicationStroop,2021.2.3,Win32,60.35003018,,,,,,,,,,,,,,,,,,,,,,,,,,,,,,,,,,,,,,,,,,,,,,,,,,,,,,,,,
,,,,left,1,0.4185,2,3,35,3,1,4,-200,left,667,2022-06-02_10h27.10.487,multiplicationStroop,2021.2.3,Win32,60.35003018,,,,,,,,,,,,,,,,,,,,,,,,,,,,,,,,,,,,,,,,,,,,,,,,,,,,,,,,,
,,,,left,1,0.3586,2,4,36,2,1,3,-200,left,667,2022-06-02_10h27.10.487,multiplicationStroop,2021.2.3,Win32,60.35003018,,,,,,,,,,,,,,,,,,,,,,,,,,,,,,,,,,,,,,,,,,,,,,,,,,,,,,,,,
,,,,left,1,0.3676,2,5,37,4,1,6,-200,left,667,2022-06-02_10h27.10.487,multiplicationStroop,2021.2.3,Win32,60.35003018,,,,,,,,,,,,,,,,,,,,,,,,,,,,,,,,,,,,,,,,,,,,,,,,,,,,,,,,,
,,,,right,1,0.7844,2,6,38,8,1,1,200,right,667,2022-06-02_10h27.10.487,multiplicationStroop,2021.2.3,Win32,60.35003018,,,,,,,,,,,,,,,,,,,,,,,,,,,,,,,,,,,,,,,,,,,,,,,,,,,,,,,,,
,,,,right,1,0.6447,2,7,39,14,1,8,200,right,667,2022-06-02_10h27.10.487,multiplicationStroop,2021.2.3,Win32,60.35003018,,,,,,,,,,,,,,,,,,,,,,,,,,,,,,,,,,,,,,,,,,,,,,,,,,,,,,,,,
,,,,left,1,0.8944,2,8,40,7,1,9,-200,left,667,2022-06-02_10h27.10.487,multiplicationStroop,2021.2.3,Win32,60.35003018,,,,,,,,,,,,,,,,,,,,,,,,,,,,,,,,,,,,,,,,,,,,,,,,,,,,,,,,,
,,,,right,1,0.3678,2,9,41,11,1,4,200,right,667,2022-06-02_10h27.10.487,multiplicationStroop,2021.2.3,Win32,60.35003018,,,,,,,,,,,,,,,,,,,,,,,,,,,,,,,,,,,,,,,,,,,,,,,,,,,,,,,,,
,,,,left,1,0.3725,2,10,42,6,1,8,-200,left,667,2022-06-02_10h27.10.487,multiplicationStroop,2021.2.3,Win32,60.35003018,,,,,,,,,,,,,,,,,,,,,,,,,,,,,,,,,,,,,,,,,,,,,,,,,,,,,,,,,
,,,,right,1,0.3773,2,11,43,10,1,3,200,right,667,2022-06-02_10h27.10.487,multiplicationStroop,2021.2.3,Win32,60.35003018,,,,,,,,,,,,,,,,,,,,,,,,,,,,,,,,,,,,,,,,,,,,,,,,,,,,,,,,,
,,,,right,1,0.3844,2,12,44,15,1,9,200,right,667,2022-06-02_10h27.10.487,multiplicationStroop,2021.2.3,Win32,60.35003018,,,,,,,,,,,,,,,,,,,,,,,,,,,,,,,,,,,,,,,,,,,,,,,,,,,,,,,,,
,,,,right,1,0.3712,2,13,45,9,1,2,200,right,667,2022-06-02_10h27.10.487,multiplicationStroop,2021.2.3,Win32,60.35003018,,,,,,,,,,,,,,,,,,,,,,,,,,,,,,,,,,,,,,,,,,,,,,,,,,,,,,,,,
,,,,left,1,0.4879,2,14,46,5,1,7,-200,left,667,2022-06-02_10h27.10.487,multiplicationStroop,2021.2.3,Win32,60.35003018,,,,,,,,,,,,,,,,,,,,,,,,,,,,,,,,,,,,,,,,,,,,,,,,,,,,,,,,,
,,,,left,1,0.5047,2,15,47,0,1,1,-200,left,667,2022-06-02_10h27.10.487,multiplicationStroop,2021.2.3,Win32,60.35003018,,,,,,,,,,,,,,,,,,,,,,,,,,,,,,,,,,,,,,,,,,,,,,,,,,,,,,,,,
,,,,left,1,0.3506,3,0,48,4,1,6,-200,left,667,2022-06-02_10h27.10.487,multiplicationStroop,2021.2.3,Win32,60.35003018,,,,,,,,,,,,,,,,,,,,,,,,,,,,,,,,,,,,,,,,,,,,,,,,,,,,,,,,,
,,,,left,1,0.3677,3,1,49,3,1,4,-200,left,667,2022-06-02_10h27.10.487,multiplicationStroop,2021.2.3,Win32,60.35003018,,,,,,,,,,,,,,,,,,,,,,,,,,,,,,,,,,,,,,,,,,,,,,,,,,,,,,,,,
,,,,left,1,0.6013,3,2,50,6,1,8,-200,left,667,2022-06-02_10h27.10.487,multiplicationStroop,2021.2.3,Win32,60.35003018,,,,,,,,,,,,,,,,,,,,,,,,,,,,,,,,,,,,,,,,,,,,,,,,,,,,,,,,,
,,,,right,1,0.451,3,3,51,15,1,9,200,right,667,2022-06-02_10h27.10.487,multiplicationStroop,2021.2.3,Win32,60.35003018,,,,,,,,,,,,,,,,,,,,,,,,,,,,,,,,,,,,,,,,,,,,,,,,,,,,,,,,,
,,,,left,1,0.5179,3,4,52,1,1,2,-200,left,667,2022-06-02_10h27.10.487,multiplicationStroop,2021.2.3,Win32,60.35003018,,,,,,,,,,,,,,,,,,,,,,,,,,,,,,,,,,,,,,,,,,,,,,,,,,,,,,,,,
,,,,right,1,0.5766,3,5,53,11,1,4,200,right,667,2022-06-02_10h27.10.487,multiplicationStroop,2021.2.3,Win32,60.35003018,,,,,,,,,,,,,,,,,,,,,,,,,,,,,,,,,,,,,,,,,,,,,,,,,,,,,,,,,
,,,,right,1,0.4512,3,6,54,10,1,3,200,right,667,2022-06-02_10h27.10.487,multiplicationStroop,2021.2.3,Win32,60.35003018,,,,,,,,,,,,,,,,,,,,,,,,,,,,,,,,,,,,,,,,,,,,,,,,,,,,,,,,,
,,,,right,1,0.336,3,7,55,9,1,2,200,right,667,2022-06-02_10h27.10.487,multiplicationStroop,2021.2.3,Win32,60.35003018,,,,,,,,,,,,,,,,,,,,,,,,,,,,,,,,,,,,,,,,,,,,,,,,,,,,,,,,,
,,,,left,1,0.4221,3,8,56,2,1,3,-200,left,667,2022-06-02_10h27.10.487,multiplicationStroop,2021.2.3,Win32,60.35003018,,,,,,,,,,,,,,,,,,,,,,,,,,,,,,,,,,,,,,,,,,,,,,,,,,,,,,,,,
,,,,right,1,0.4254,3,9,57,13,1,7,200,right,667,2022-06-02_10h27.10.487,multiplicationStroop,2021.2.3,Win32,60.35003018,,,,,,,,,,,,,,,,,,,,,,,,,,,,,,,,,,,,,,,,,,,,,,,,,,,,,,,,,
,,,,left,1,0.4169,3,10,58,0,1,1,-200,left,667,2022-06-02_10h27.10.487,multiplicationStroop,2021.2.3,Win32,60.35003018,,,,,,,,,,,,,,,,,,,,,,,,,,,,,,,,,,,,,,,,,,,,,,,,,,,,,,,,,
,,,,right,1,0.4337,3,11,59,8,1,1,200,right,667,2022-06-02_10h27.10.487,multiplicationStroop,2021.2.3,Win32,60.35003018,,,,,,,,,,,,,,,,,,,,,,,,,,,,,,,,,,,,,,,,,,,,,,,,,,,,,,,,,
,,,,left,1,0.4343,3,12,60,7,1,9,-200,left,667,2022-06-02_10h27.10.487,multiplicationStroop,2021.2.3,Win32,60.35003018,,,,,,,,,,,,,,,,,,,,,,,,,,,,,,,,,,,,,,,,,,,,,,,,,,,,,,,,,
,,,,right,1,0.39,3,13,61,14,1,8,200,right,667,2022-06-02_10h27.10.487,multiplicationStroop,2021.2.3,Win32,60.35003018,,,,,,,,,,,,,,,,,,,,,,,,,,,,,,,,,,,,,,,,,,,,,,,,,,,,,,,,,
,,,,left,1,0.4169,3,14,62,5,1,7,-200,left,667,2022-06-02_10h27.10.487,multiplicationStroop,2021.2.3,Win32,60.35003018,,,,,,,,,,,,,,,,,,,,,,,,,,,,,,,,,,,,,,,,,,,,,,,,,,,,,,,,,
,,,,right,1,0.3838,3,15,63,12,1,6,200,right,667,2022-06-02_10h27.10.487,multiplicationStroop,2021.2.3,Win32,60.35003018,,,,,,,,,,,,,,,,,,,,,,,,,,,,,,,,,,,,,,,,,,,,,,,,,,,,,,,,,
,,,,,,,,,,,,,,,667,2022-06-02_10h27.10.487,multiplicationStroop,2021.2.3,Win32,60.35003018,space,170.8146,space,28.393,left,1,2.5265,0,0,0,14,1,8,6,8 | 6,2,1.9756,1.4111,congruent,left,,,,,,stimulusFile/magnitude.xlsx,,,,,,,,,,,,,,,,,,,,,,,,,,,,,,,
,,,,,,,,,,,,,,,667,2022-06-02_10h27.10.487,multiplicationStroop,2021.2.3,Win32,60.35003018,,,,,left,1,1.2531,0,1,1,29,1,4,3,4 | 3,1,1.4111,1.9756,incongruent,left,,,,,,stimulusFile/magnitude.xlsx,,,,,,,,,,,,,,,,,,,,,,,,,,,,,,,
,,,,,,,,,,,,,,,667,2022-06-02_10h27.10.487,multiplicationStroop,2021.2.3,Win32,60.35003018,,,,,right,1,0.9303,0,2,2,0,1,1,2,1 | 2,1,1.4111,1.9756,congruent,right,,,,,,stimulusFile/magnitude.xlsx,,,,,,,,,,,,,,,,,,,,,,,,,,,,,,,
,,,,,,,,,,,,,,,667,2022-06-02_10h27.10.487,multiplicationStroop,2021.2.3,Win32,60.35003018,,,,,left,1,0.9319,0,3,3,39,1,9,7,9 | 7,2,1.4111,1.9756,incongruent,left,,,,,,stimulusFile/magnitude.xlsx,,,,,,,,,,,,,,,,,,,,,,,,,,,,,,,
,,,,,,,,,,,,,,,667,2022-06-02_10h27.10.487,multiplicationStroop,2021.2.3,Win32,60.35003018,,,,,right,1,0.9637,0,4,4,35,1,7,9,7 | 9,2,1.9756,1.4111,incongruent,right,,,,,,stimulusFile/magnitude.xlsx,,,,,,,,,,,,,,,,,,,,,,,,,,,,,,,
,,,,,,,,,,,,,,,667,2022-06-02_10h27.10.487,multiplicationStroop,2021.2.3,Win32,60.35003018,,,,,left,1,0.7991,0,5,5,52,1,2,1,2 | 1,1,1.6933,1.6933,neutral,left,,,,,,stimulusFile/magnitude.xlsx,,,,,,,,,,,,,,,,,,,,,,,,,,,,,,,
,,,,,,,,,,,,,,,667,2022-06-02_10h27.10.487,multiplicationStroop,2021.2.3,Win32,60.35003018,,,,,right,1,0.7452,0,6,6,67,1,4,9,4 | 9,5,1.6933,1.6933,neutral,right,,,,,,stimulusFile/magnitude.xlsx,,,,,,,,,,,,,,,,,,,,,,,,,,,,,,,
,,,,,,,,,,,,,,,667,2022-06-02_10h27.10.487,multiplicationStroop,2021.2.3,Win32,60.35003018,,,,,right,1,0.7628,0,7,7,8,1,1,3,1 | 3,2,1.4111,1.9756,congruent,right,,,,,,stimulusFile/magnitude.xlsx,,,,,,,,,,,,,,,,,,,,,,,,,,,,,,,
,,,,,,,,,,,,,,,667,2022-06-02_10h27.10.487,multiplicationStroop,2021.2.3,Win32,60.35003018,,,,,right,1,0.9086,0,8,8,11,1,7,9,7 | 9,2,1.4111,1.9756,congruent,right,,,,,,stimulusFile/magnitude.xlsx,,,,,,,,,,,,,,,,,,,,,,,,,,,,,,,
,,,,,,,,,,,,,,,667,2022-06-02_10h27.10.487,multiplicationStroop,2021.2.3,Win32,60.35003018,,,,,left,1,0.7477,0,9,9,5,1,4,3,4 | 3,1,1.9756,1.4111,congruent,left,,,,,,stimulusFile/magnitude.xlsx,,,,,,,,,,,,,,,,,,,,,,,,,,,,,,,
,,,,,,,,,,,,,,,667,2022-06-02_10h27.10.487,multiplicationStroop,2021.2.3,Win32,60.35003018,,,,,right,1,0.8843,0,10,10,9,1,2,4,2 | 4,2,1.4111,1.9756,congruent,right,,,,,,stimulusFile/magnitude.xlsx,,,,,,,,,,,,,,,,,,,,,,,,,,,,,,,
,,,,,,,,,,,,,,,667,2022-06-02_10h27.10.487,multiplicationStroop,2021.2.3,Win32,60.35003018,,,,,left,1,1.3666,0,11,11,63,1,9,7,9 | 7,2,1.6933,1.6933,neutral,left,,,,,,stimulusFile/magnitude.xlsx,,,,,,,,,,,,,,,,,,,,,,,,,,,,,,,
,,,,,,,,,,,,,,,667,2022-06-02_10h27.10.487,multiplicationStroop,2021.2.3,Win32,60.35003018,,,,,left,1,0.9644,0,12,12,6,1,7,6,7 | 6,1,1.9756,1.4111,congruent,left,,,,,,stimulusFile/magnitude.xlsx,,,,,,,,,,,,,,,,,,,,,,,,,,,,,,,
,,,,,,,,,,,,,,,667,2022-06-02_10h27.10.487,multiplicationStroop,2021.2.3,Win32,60.35003018,,,,,right,1,0.6845,0,13,13,33,1,2,4,2 | 4,2,1.9756,1.4111,incongruent,right,,,,,,stimulusFile/magnitude.xlsx,,,,,,,,,,,,,,,,,,,,,,,,,,,,,,,
,,,,,,,,,,,,,,,667,2022-06-02_10h27.10.487,multiplicationStroop,2021.2.3,Win32,60.35003018,,,,,right,1,0.8729,0,14,14,2,1,6,7,6 | 7,1,1.4111,1.9756,congruent,right,,,,,,stimulusFile/magnitude.xlsx,,,,,,,,,,,,,,,,,,,,,,,,,,,,,,,
,,,,,,,,,,,,,,,667,2022-06-02_10h27.10.487,multiplicationStroop,2021.2.3,Win32,60.35003018,,,,,left,1,0.7157,0,15,15,71,1,9,4,9 | 4,5,1.6933,1.6933,neutral,left,,,,,,stimulusFile/magnitude.xlsx,,,,,,,,,,,,,,,,,,,,,,,,,,,,,,,
,,,,,,,,,,,,,,,667,2022-06-02_10h27.10.487,multiplicationStroop,2021.2.3,Win32,60.35003018,,,,,left,1,1.2291,0,16,16,7,1,9,8,9 | 8,1,1.9756,1.4111,congruent,left,,,,,,stimulusFile/magnitude.xlsx,,,,,,,,,,,,,,,,,,,,,,,,,,,,,,,
,,,,,,,,,,,,,,,667,2022-06-02_10h27.10.487,multiplicationStroop,2021.2.3,Win32,60.35003018,,,,,left,1,0.8186,0,17,17,70,1,8,3,8 | 3,5,1.6933,1.6933,neutral,left,,,,,,stimulusFile/magnitude.xlsx,,,,,,,,,,,,,,,,,,,,,,,,,,,,,,,
,,,,,,,,,,,,,,,667,2022-06-02_10h27.10.487,multiplicationStroop,2021.2.3,Win32,60.35003018,,,,,left,1,0.9172,0,18,18,36,1,3,1,3 | 1,2,1.4111,1.9756,incongruent,left,,,,,,stimulusFile/magnitude.xlsx,,,,,,,,,,,,,,,,,,,,,,,,,,,,,,,
,,,,,,,,,,,,,,,667,2022-06-02_10h27.10.487,multiplicationStroop,2021.2.3,Win32,60.35003018,,,,,right,1,1.7196,0,19,19,43,1,4,9,4 | 9,5,1.9756,1.4111,incongruent,right,,,,,,stimulusFile/magnitude.xlsx,,,,,,,,,,,,,,,,,,,,,,,,,,,,,,,
,,,,,,,,,,,,,,,667,2022-06-02_10h27.10.487,multiplicationStroop,2021.2.3,Win32,60.35003018,,,,,right,1,0.7081,0,20,20,66,1,3,8,3 | 8,5,1.6933,1.6933,neutral,right,,,,,,stimulusFile/magnitude.xlsx,,,,,,,,,,,,,,,,,,,,,,,,,,,,,,,
,,,,,,,,,,,,,,,667,2022-06-02_10h27.10.487,multiplicationStroop,2021.2.3,Win32,60.35003018,,,,,left,1,0.7948,0,21,21,20,1,6,1,6 | 1,5,1.9756,1.4111,congruent,left,,,,,,stimulusFile/magnitude.xlsx,,,,,,,,,,,,,,,,,,,,,,,,,,,,,,,
,,,,,,,,,,,,,,,667,2022-06-02_10h27.10.487,multiplicationStroop,2021.2.3,Win32,60.35003018,,,,,right,1,1.2158,0,22,22,57,1,2,4,2 | 4,2,1.6933,1.6933,neutral,right,,,,,,stimulusFile/magnitude.xlsx,,,,,,,,,,,,,,,,,,,,,,,,,,,,,,,
,,,,,,,,,,,,,,,667,2022-06-02_10h27.10.487,multiplicationStroop,2021.2.3,Win32,60.35003018,,,,,left,1,0.6276,0,23,23,4,1,2,1,2 | 1,1,1.9756,1.4111,congruent,left,,,,,,stimulusFile/magnitude.xlsx,,,,,,,,,,,,,,,,,,,,,,,,,,,,,,,
,,,,,,,,,,,,,,,667,2022-06-02_10h27.10.487,multiplicationStroop,2021.2.3,Win32,60.35003018,,,,,left,1,0.7197,0,24,24,68,1,6,1,6 | 1,5,1.6933,1.6933,neutral,left,,,,,,stimulusFile/magnitude.xlsx,,,,,,,,,,,,,,,,,,,,,,,,,,,,,,,
,,,,,,,,,,,,,,,667,2022-06-02_10h27.10.487,multiplicationStroop,2021.2.3,Win32,60.35003018,,,,,left,1,0.9646,0,25,25,30,1,7,6,7 | 6,1,1.4111,1.9756,incongruent,left,,,,,,stimulusFile/magnitude.xlsx,,,,,,,,,,,,,,,,,,,,,,,,,,,,,,,
,,,,,,,,,,,,,,,667,2022-06-02_10h27.10.487,multiplicationStroop,2021.2.3,Win32,60.35003018,,,,,left,1,0.7548,0,26,26,47,1,9,4,9 | 4,5,1.4111,1.9756,incongruent,left,,,,,,stimulusFile/magnitude.xlsx,,,,,,,,,,,,,,,,,,,,,,,,,,,,,,,
,,,,,,,,,,,,,,,667,2022-06-02_10h27.10.487,multiplicationStroop,2021.2.3,Win32,60.35003018,,,,,right,1,0.713,0,27,27,32,1,1,3,1 | 3,2,1.9756,1.4111,incongruent,right,,,,,,stimulusFile/magnitude.xlsx,,,,,,,,,,,,,,,,,,,,,,,,,,,,,,,
,,,,,,,,,,,,,,,667,2022-06-02_10h27.10.487,multiplicationStroop,2021.2.3,Win32,60.35003018,,,,,right,1,0.8172,0,28,28,25,1,3,4,3 | 4,1,1.9756,1.4111,incongruent,right,,,,,,stimulusFile/magnitude.xlsx,,,,,,,,,,,,,,,,,,,,,,,,,,,,,,,
,,,,,,,,,,,,,,,667,2022-06-02_10h27.10.487,multiplicationStroop,2021.2.3,Win32,60.35003018,,,,,right,1,0.7893,0,29,29,10,1,6,8,6 | 8,2,1.4111,1.9756,congruent,right,,,,,,stimulusFile/magnitude.xlsx,,,,,,,,,,,,,,,,,,,,,,,,,,,,,,,
,,,,,,,,,,,,,,,667,2022-06-02_10h27.10.487,multiplicationStroop,2021.2.3,Win32,60.35003018,,,,,left,1,0.6042,0,30,30,45,1,7,2,7 | 2,5,1.4111,1.9756,incongruent,left,,,,,,stimulusFile/magnitude.xlsx,,,,,,,,,,,,,,,,,,,,,,,,,,,,,,,
,,,,,,,,,,,,,,,667,2022-06-02_10h27.10.487,multiplicationStroop,2021.2.3,Win32,60.35003018,,,,,right,1,0.6305,0,31,31,24,1,1,2,1 | 2,1,1.9756,1.4111,incongruent,right,,,,,,stimulusFile/magnitude.xlsx,,,,,,,,,,,,,,,,,,,,,,,,,,,,,,,
,,,,,,,,,,,,,,,667,2022-06-02_10h27.10.487,multiplicationStroop,2021.2.3,Win32,60.35003018,,,,,right,1,1.0285,0,32,32,3,1,8,9,8 | 9,1,1.4111,1.9756,congruent,right,,,,,,stimulusFile/magnitude.xlsx,,,,,,,,,,,,,,,,,,,,,,,,,,,,,,,
,,,,,,,,,,,,,,,667,2022-06-02_10h27.10.487,multiplicationStroop,2021.2.3,Win32,60.35003018,,,,,left,1,0.586,0,33,33,53,1,4,3,4 | 3,1,1.6933,1.6933,neutral,left,,,,,,stimulusFile/magnitude.xlsx,,,,,,,,,,,,,,,,,,,,,,,,,,,,,,,
,,,,,,,,,,,,,,,667,2022-06-02_10h27.10.487,multiplicationStroop,2021.2.3,Win32,60.35003018,,,,,left,1,0.7134,0,34,34,37,1,4,2,4 | 2,2,1.4111,1.9756,incongruent,left,,,,,,stimulusFile/magnitude.xlsx,,,,,,,,,,,,,,,,,,,,,,,,,,,,,,,
,,,,,,,,,,,,,,,667,2022-06-02_10h27.10.487,multiplicationStroop,2021.2.3,Win32,60.35003018,,,,,left,1,0.7845,0,35,35,15,1,9,7,9 | 7,2,1.9756,1.4111,congruent,left,,,,,,stimulusFile/magnitude.xlsx,,,,,,,,,,,,,,,,,,,,,,,,,,,,,,,
,,,,,,,,,,,,,,,667,2022-06-02_10h27.10.487,multiplicationStroop,2021.2.3,Win32,60.35003018,,,,,left,1,0.8043,0,36,36,54,1,7,6,7 | 6,1,1.6933,1.6933,neutral,left,,,,,,stimulusFile/magnitude.xlsx,,,,,,,,,,,,,,,,,,,,,,,,,,,,,,,
,,,,,,,,,,,,,,,667,2022-06-02_10h27.10.487,multiplicationStroop,2021.2.3,Win32,60.35003018,,,,,left,1,0.6969,0,37,37,21,1,7,2,7 | 2,5,1.9756,1.4111,congruent,left,,,,,,stimulusFile/magnitude.xlsx,,,,,,,,,,,,,,,,,,,,,,,,,,,,,,,
,,,,,,,,,,,,,,,667,2022-06-02_10h27.10.487,multiplicationStroop,2021.2.3,Win32,60.35003018,,,,,right,1,1.2,0,38,38,26,1,6,7,6 | 7,1,1.9756,1.4111,incongruent,right,,,,,,stimulusFile/magnitude.xlsx,,,,,,,,,,,,,,,,,,,,,,,,,,,,,,,
,,,,,,,,,,,,,,,667,2022-06-02_10h27.10.487,multiplicationStroop,2021.2.3,Win32,60.35003018,,,,,right,1,0.7413,0,39,39,58,1,6,8,6 | 8,2,1.6933,1.6933,neutral,right,,,,,,stimulusFile/magnitude.xlsx,,,,,,,,,,,,,,,,,,,,,,,,,,,,,,,
,,,,,,,,,,,,,,,667,2022-06-02_10h27.10.487,multiplicationStroop,2021.2.3,Win32,60.35003018,,,,,right,1,0.763,0,40,40,16,1,1,6,1 | 6,5,1.4111,1.9756,congruent,right,,,,,,stimulusFile/magnitude.xlsx,,,,,,,,,,,,,,,,,,,,,,,,,,,,,,,
,,,,,,,,,,,,,,,667,2022-06-02_10h27.10.487,multiplicationStroop,2021.2.3,Win32,60.35003018,,,,,right,1,0.6109,0,41,41,40,1,1,6,1 | 6,5,1.9756,1.4111,incongruent,right,,,,,,stimulusFile/magnitude.xlsx,,,,,,,,,,,,,,,,,,,,,,,,,,,,,,,
,,,,,,,,,,,,,,,667,2022-06-02_10h27.10.487,multiplicationStroop,2021.2.3,Win32,60.35003018,,,,,right,1,0.9873,0,42,42,27,1,8,9,8 | 9,1,1.9756,1.4111,incongruent,right,,,,,,stimulusFile/magnitude.xlsx,,,,,,,,,,,,,,,,,,,,,,,,,,,,,,,
,,,,,,,,,,,,,,,667,2022-06-02_10h27.10.487,multiplicationStroop,2021.2.3,Win32,60.35003018,,,,,left,1,0.7925,0,43,43,46,1,8,3,8 | 3,5,1.4111,1.9756,incongruent,left,,,,,,stimulusFile/magnitude.xlsx,,,,,,,,,,,,,,,,,,,,,,,,,,,,,,,
,,,,,,,,,,,,,,,667,2022-06-02_10h27.10.487,multiplicationStroop,2021.2.3,Win32,60.35003018,,,,,right,1,0.5437,0,44,44,41,1,2,7,2 | 7,5,1.9756,1.4111,incongruent,right,,,,,,stimulusFile/magnitude.xlsx,,,,,,,,,,,,,,,,,,,,,,,,,,,,,,,
,,,,,,,,,,,,,,,667,2022-06-02_10h27.10.487,multiplicationStroop,2021.2.3,Win32,60.35003018,,,,,right,1,0.9435,0,45,45,50,1,6,7,6 | 7,1,1.6933,1.6933,neutral,right,,,,,,stimulusFile/magnitude.xlsx,,,,,,,,,,,,,,,,,,,,,,,,,,,,,,,
,,,,,,,,,,,,,,,667,2022-06-02_10h27.10.487,multiplicationStroop,2021.2.3,Win32,60.35003018,,,,,right,1,0.6488,0,46,46,19,1,4,9,4 | 9,5,1.4111,1.9756,congruent,right,,,,,,stimulusFile/magnitude.xlsx,,,,,,,,,,,,,,,,,,,,,,,,,,,,,,,
,,,,,,,,,,,,,,,667,2022-06-02_10h27.10.487,multiplicationStroop,2021.2.3,Win32,60.35003018,,,,,right,1,0.6752,0,47,47,17,1,2,7,2 | 7,5,1.4111,1.9756,congruent,right,,,,,,stimulusFile/magnitude.xlsx,,,,,,,,,,,,,,,,,,,,,,,,,,,,,,,
,,,,,,,,,,,,,,,667,2022-06-02_10h27.10.487,multiplicationStroop,2021.2.3,Win32,60.35003018,,,,,right,1,0.849,0,48,48,34,1,6,8,6 | 8,2,1.9756,1.4111,incongruent,right,,,,,,stimulusFile/magnitude.xlsx,,,,,,,,,,,,,,,,,,,,,,,,,,,,,,,
,,,,,,,,,,,,,,,667,2022-06-02_10h27.10.487,multiplicationStroop,2021.2.3,Win32,60.35003018,,,,,left,1,0.6869,0,49,49,13,1,4,2,4 | 2,2,1.9756,1.4111,congruent,left,,,,,,stimulusFile/magnitude.xlsx,,,,,,,,,,,,,,,,,,,,,,,,,,,,,,,
,,,,,,,,,,,,,,,667,2022-06-02_10h27.10.487,multiplicationStroop,2021.2.3,Win32,60.35003018,,,,,left,1,0.7128,0,50,50,62,1,8,6,8 | 6,2,1.6933,1.6933,neutral,left,,,,,,stimulusFile/magnitude.xlsx,,,,,,,,,,,,,,,,,,,,,,,,,,,,,,,
,,,,,,,,,,,,,,,667,2022-06-02_10h27.10.487,multiplicationStroop,2021.2.3,Win32,60.35003018,,,,,right,1,0.6132,0,51,51,42,1,3,8,3 | 8,5,1.9756,1.4111,incongruent,right,,,,,,stimulusFile/magnitude.xlsx,,,,,,,,,,,,,,,,,,,,,,,,,,,,,,,
,,,,,,,,,,,,,,,667,2022-06-02_10h27.10.487,multiplicationStroop,2021.2.3,Win32,60.35003018,,,,,left,1,0.682,0,52,52,23,1,9,4,9 | 4,5,1.9756,1.4111,congruent,left,,,,,,stimulusFile/magnitude.xlsx,,,,,,,,,,,,,,,,,,,,,,,,,,,,,,,
,,,,,,,,,,,,,,,667,2022-06-02_10h27.10.487,multiplicationStroop,2021.2.3,Win32,60.35003018,,,,,left,1,0.6593,0,53,53,44,1,6,1,6 | 1,5,1.4111,1.9756,incongruent,left,,,,,,stimulusFile/magnitude.xlsx,,,,,,,,,,,,,,,,,,,,,,,,,,,,,,,
,,,,,,,,,,,,,,,667,2022-06-02_10h27.10.487,multiplicationStroop,2021.2.3,Win32,60.35003018,,,,,right,1,0.5594,0,54,54,65,1,2,7,2 | 7,5,1.6933,1.6933,neutral,right,,,,,,stimulusFile/magnitude.xlsx,,,,,,,,,,,,,,,,,,,,,,,,,,,,,,,
,,,,,,,,,,,,,,,667,2022-06-02_10h27.10.487,multiplicationStroop,2021.2.3,Win32,60.35003018,,,,,right,1,0.8259,0,55,55,51,1,8,9,8 | 9,1,1.6933,1.6933,neutral,right,,,,,,stimulusFile/magnitude.xlsx,,,,,,,,,,,,,,,,,,,,,,,,,,,,,,,
,,,,,,,,,,,,,,,667,2022-06-02_10h27.10.487,multiplicationStroop,2021.2.3,Win32,60.35003018,,,,,left,1,0.7528,0,56,56,12,1,3,1,3 | 1,2,1.9756,1.4111,congruent,left,,,,,,stimulusFile/magnitude.xlsx,,,,,,,,,,,,,,,,,,,,,,,,,,,,,,,
,,,,,,,,,,,,,,,667,2022-06-02_10h27.10.487,multiplicationStroop,2021.2.3,Win32,60.35003018,,,,,right,1,0.629,0,57,57,18,1,3,8,3 | 8,5,1.4111,1.9756,congruent,right,,,,,,stimulusFile/magnitude.xlsx,,,,,,,,,,,,,,,,,,,,,,,,,,,,,,,
,,,,,,,,,,,,,,,667,2022-06-02_10h27.10.487,multiplicationStroop,2021.2.3,Win32,60.35003018,,,,,right,1,0.6243,0,58,58,64,1,1,6,1 | 6,5,1.6933,1.6933,neutral,right,,,,,,stimulusFile/magnitude.xlsx,,,,,,,,,,,,,,,,,,,,,,,,,,,,,,,
,,,,,,,,,,,,,,,667,2022-06-02_10h27.10.487,multiplicationStroop,2021.2.3,Win32,60.35003018,,,,,right,1,0.8134,0,59,59,56,1,1,3,1 | 3,2,1.6933,1.6933,neutral,right,,,,,,stimulusFile/magnitude.xlsx,,,,,,,,,,,,,,,,,,,,,,,,,,,,,,,
,,,,,,,,,,,,,,,667,2022-06-02_10h27.10.487,multiplicationStroop,2021.2.3,Win32,60.35003018,,,,,left,1,0.6109,0,60,60,22,1,8,3,8 | 3,5,1.9756,1.4111,congruent,left,,,,,,stimulusFile/magnitude.xlsx,,,,,,,,,,,,,,,,,,,,,,,,,,,,,,,
,,,,,,,,,,,,,,,667,2022-06-02_10h27.10.487,multiplicationStroop,2021.2.3,Win32,60.35003018,,,,,right,1,0.7156,0,61,61,49,1,3,4,3 | 4,1,1.6933,1.6933,neutral,right,,,,,,stimulusFile/magnitude.xlsx,,,,,,,,,,,,,,,,,,,,,,,,,,,,,,,
,,,,,,,,,,,,,,,667,2022-06-02_10h27.10.487,multiplicationStroop,2021.2.3,Win32,60.35003018,,,,,left,1,0.6592,0,62,62,38,1,8,6,8 | 6,2,1.4111,1.9756,incongruent,left,,,,,,stimulusFile/magnitude.xlsx,,,,,,,,,,,,,,,,,,,,,,,,,,,,,,,
,,,,,,,,,,,,,,,667,2022-06-02_10h27.10.487,multiplicationStroop,2021.2.3,Win32,60.35003018,,,,,left,1,0.7801,0,63,63,31,1,9,8,9 | 8,1,1.4111,1.9756,incongruent,left,,,,,,stimulusFile/magnitude.xlsx,,,,,,,,,,,,,,,,,,,,,,,,,,,,,,,
,,,,,,,,,,,,,,,667,2022-06-02_10h27.10.487,multiplicationStroop,2021.2.3,Win32,60.35003018,,,,,left,1,0.6089,0,64,64,60,1,3,1,3 | 1,2,1.6933,1.6933,neutral,left,,,,,,stimulusFile/magnitude.xlsx,,,,,,,,,,,,,,,,,,,,,,,,,,,,,,,
,,,,,,,,,,,,,,,667,2022-06-02_10h27.10.487,multiplicationStroop,2021.2.3,Win32,60.35003018,,,,,right,1,0.7338,0,65,65,59,1,7,9,7 | 9,2,1.6933,1.6933,neutral,right,,,,,,stimulusFile/magnitude.xlsx,,,,,,,,,,,,,,,,,,,,,,,,,,,,,,,
,,,,,,,,,,,,,,,667,2022-06-02_10h27.10.487,multiplicationStroop,2021.2.3,Win32,60.35003018,,,,,left,1,0.6429,0,66,66,55,1,9,8,9 | 8,1,1.6933,1.6933,neutral,left,,,,,,stimulusFile/magnitude.xlsx,,,,,,,,,,,,,,,,,,,,,,,,,,,,,,,
,,,,,,,,,,,,,,,667,2022-06-02_10h27.10.487,multiplicationStroop,2021.2.3,Win32,60.35003018,,,,,left,1,0.6196,0,67,67,61,1,4,2,4 | 2,2,1.6933,1.6933,neutral,left,,,,,,stimulusFile/magnitude.xlsx,,,,,,,,,,,,,,,,,,,,,,,,,,,,,,,
,,,,,,,,,,,,,,,667,2022-06-02_10h27.10.487,multiplicationStroop,2021.2.3,Win32,60.35003018,,,,,left,1,0.9992,0,68,68,28,1,2,1,2 | 1,1,1.4111,1.9756,incongruent,left,,,,,,stimulusFile/magnitude.xlsx,,,,,,,,,,,,,,,,,,,,,,,,,,,,,,,
,,,,,,,,,,,,,,,667,2022-06-02_10h27.10.487,multiplicationStroop,2021.2.3,Win32,60.35003018,,,,,right,1,0.6601,0,69,69,1,1,3,4,3 | 4,1,1.4111,1.9756,congruent,right,,,,,,stimulusFile/magnitude.xlsx,,,,,,,,,,,,,,,,,,,,,,,,,,,,,,,
,,,,,,,,,,,,,,,667,2022-06-02_10h27.10.487,multiplicationStroop,2021.2.3,Win32,60.35003018,,,,,right,1,0.5915,0,70,70,48,1,1,2,1 | 2,1,1.6933,1.6933,neutral,right,,,,,,stimulusFile/magnitude.xlsx,,,,,,,,,,,,,,,,,,,,,,,,,,,,,,,
,,,,,,,,,,,,,,,667,2022-06-02_10h27.10.487,multiplicationStroop,2021.2.3,Win32,60.35003018,,,,,left,1,0.5901,0,71,71,69,1,7,2,7 | 2,5,1.6933,1.6933,neutral,left,,,,,,stimulusFile/magnitude.xlsx,,,,,,,,,,,,,,,,,,,,,,,,,,,,,,,
,,,,,,,,,,,,,,,667,2022-06-02_10h27.10.487,multiplicationStroop,2021.2.3,Win32,60.35003018,,,,,,,,,,,,,,,,,,,,,0,0,0,0,1,stimulusFile/magnitude.xlsx,NUMERICALLY larger (larger coefficient).,images/numericallyLarger.png,,,,,,,,,,,,,,,,,,,,,,,,,,,,,
,,,,,,,,,,,,,,,667,2022-06-02_10h27.10.487,multiplicationStroop,2021.2.3,Win32,60.35003018,space,15.0097,space,8.4068,left,1,1.2365,0,0,0,68,1,6,6,6 | 6,0,1.9756,1.4111,neutral,left,,,,,,stimulusFile/physical.xlsx,,,,,,,,,,,,,,,,,,,,,,,,,,,,,,,
,,,,,,,,,,,,,,,667,2022-06-02_10h27.10.487,multiplicationStroop,2021.2.3,Win32,60.35003018,,,,,left,1,0.7935,0,1,1,23,1,9,4,9 | 4,5,1.9756,1.4111,congruent,left,,,,,,stimulusFile/physical.xlsx,,,,,,,,,,,,,,,,,,,,,,,,,,,,,,,
,,,,,,,,,,,,,,,667,2022-06-02_10h27.10.487,multiplicationStroop,2021.2.3,Win32,60.35003018,,,,,left,1,0.9403,0,2,2,27,1,8,9,8 | 9,1,1.9756,1.4111,incongruent,left,,,,,,stimulusFile/physical.xlsx,,,,,,,,,,,,,,,,,,,,,,,,,,,,,,,
,,,,,,,,,,,,,,,667,2022-06-02_10h27.10.487,multiplicationStroop,2021.2.3,Win32,60.35003018,,,,,right,1,0.7826,0,3,3,3,1,8,9,8 | 9,1,1.4111,1.9756,congruent,right,,,,,,stimulusFile/physical.xlsx,,,,,,,,,,,,,,,,,,,,,,,,,,,,,,,
,,,,,,,,,,,,,,,667,2022-06-02_10h27.10.487,multiplicationStroop,2021.2.3,Win32,60.35003018,,,,,left,1,0.6365,0,4,4,53,1,4,4,4 | 4,0,1.9756,1.4111,neutral,left,,,,,,stimulusFile/physical.xlsx,,,,,,,,,,,,,,,,,,,,,,,,,,,,,,,
,,,,,,,,,,,,,,,667,2022-06-02_10h27.10.487,multiplicationStroop,2021.2.3,Win32,60.35003018,,,,,left,1,0.8228,0,5,5,41,1,2,7,2 | 7,5,1.9756,1.4111,incongruent,left,,,,,,stimulusFile/physical.xlsx,,,,,,,,,,,,,,,,,,,,,,,,,,,,,,,
,,,,,,,,,,,,,,,667,2022-06-02_10h27.10.487,multiplicationStroop,2021.2.3,Win32,60.35003018,,,,,right,1,0.6354,0,6,6,8,1,1,3,1 | 3,2,1.4111,1.9756,congruent,right,,,,,,stimulusFile/physical.xlsx,,,,,,,,,,,,,,,,,,,,,,,,,,,,,,,
,,,,,,,,,,,,,,,667,2022-06-02_10h27.10.487,multiplicationStroop,2021.2.3,Win32,60.35003018,,,,,right,1,0.7892,0,7,7,61,1,4,4,4 | 4,0,1.4111,1.9756,neutral,right,,,,,,stimulusFile/physical.xlsx,,,,,,,,,,,,,,,,,,,,,,,,,,,,,,,
,,,,,,,,,,,,,,,667,2022-06-02_10h27.10.487,multiplicationStroop,2021.2.3,Win32,60.35003018,,,,,left,1,0.9692,0,8,8,6,1,7,6,7 | 6,1,1.9756,1.4111,congruent,left,,,,,,stimulusFile/physical.xlsx,,,,,,,,,,,,,,,,,,,,,,,,,,,,,,,
,,,,,,,,,,,,,,,667,2022-06-02_10h27.10.487,multiplicationStroop,2021.2.3,Win32,60.35003018,,,,,right,1,0.6156,0,9,9,18,1,3,8,3 | 8,5,1.4111,1.9756,congruent,right,,,,,,stimulusFile/physical.xlsx,,,,,,,,,,,,,,,,,,,,,,,,,,,,,,,
,,,,,,,,,,,,,,,667,2022-06-02_10h27.10.487,multiplicationStroop,2021.2.3,Win32,60.35003018,,,,,left,1,0.583,0,10,10,48,1,1,1,1 | 1,0,1.9756,1.4111,neutral,left,,,,,,stimulusFile/physical.xlsx,,,,,,,,,,,,,,,,,,,,,,,,,,,,,,,
,,,,,,,,,,,,,,,667,2022-06-02_10h27.10.487,multiplicationStroop,2021.2.3,Win32,60.35003018,,,,,right,1,0.5246,0,11,11,56,1,1,1,1 | 1,0,1.4111,1.9756,neutral,right,,,,,,stimulusFile/physical.xlsx,,,,,,,,,,,,,,,,,,,,,,,,,,,,,,,
,,,,,,,,,,,,,,,667,2022-06-02_10h27.10.487,multiplicationStroop,2021.2.3,Win32,60.35003018,,,,,left,1,0.8499,0,12,12,32,1,1,3,1 | 3,2,1.9756,1.4111,incongruent,left,,,,,,stimulusFile/physical.xlsx,,,,,,,,,,,,,,,,,,,,,,,,,,,,,,,
,,,,,,,,,,,,,,,667,2022-06-02_10h27.10.487,multiplicationStroop,2021.2.3,Win32,60.35003018,,,,,right,1,0.6208,0,13,13,0,1,1,2,1 | 2,1,1.4111,1.9756,congruent,right,,,,,,stimulusFile/physical.xlsx,,,,,,,,,,,,,,,,,,,,,,,,,,,,,,,
,,,,,,,,,,,,,,,667,2022-06-02_10h27.10.487,multiplicationStroop,2021.2.3,Win32,60.35003018,,,,,right,1,0.6832,0,14,14,59,1,7,7,7 | 7,0,1.4111,1.9756,neutral,right,,,,,,stimulusFile/physical.xlsx,,,,,,,,,,,,,,,,,,,,,,,,,,,,,,,
,,,,,,,,,,,,,,,667,2022-06-02_10h27.10.487,multiplicationStroop,2021.2.3,Win32,60.35003018,,,,,left,1,0.753,0,15,15,26,1,6,7,6 | 7,1,1.9756,1.4111,incongruent,left,,,,,,stimulusFile/physical.xlsx,,,,,,,,,,,,,,,,,,,,,,,,,,,,,,,
,,,,,,,,,,,,,,,667,2022-06-02_10h27.10.487,multiplicationStroop,2021.2.3,Win32,60.35003018,,,,,right,1,0.6657,0,16,16,11,1,7,9,7 | 9,2,1.4111,1.9756,congruent,right,,,,,,stimulusFile/physical.xlsx,,,,,,,,,,,,,,,,,,,,,,,,,,,,,,,
,,,,,,,,,,,,,,,667,2022-06-02_10h27.10.487,multiplicationStroop,2021.2.3,Win32,60.35003018,,,,,left,1,0.5922,0,17,17,12,1,3,1,3 | 1,2,1.9756,1.4111,congruent,left,,,,,,stimulusFile/physical.xlsx,,,,,,,,,,,,,,,,,,,,,,,,,,,,,,,
,,,,,,,,,,,,,,,667,2022-06-02_10h27.10.487,multiplicationStroop,2021.2.3,Win32,60.35003018,,,,,left,1,0.8768,0,18,18,49,1,3,3,3 | 3,0,1.9756,1.4111,neutral,left,,,,,,stimulusFile/physical.xlsx,,,,,,,,,,,,,,,,,,,,,,,,,,,,,,,
,,,,,,,,,,,,,,,667,2022-06-02_10h27.10.487,multiplicationStroop,2021.2.3,Win32,60.35003018,,,,,right,1,0.5557,0,19,19,2,1,6,7,6 | 7,1,1.4111,1.9756,congruent,right,,,,,,stimulusFile/physical.xlsx,,,,,,,,,,,,,,,,,,,,,,,,,,,,,,,
,,,,,,,,,,,,,,,667,2022-06-02_10h27.10.487,multiplicationStroop,2021.2.3,Win32,60.35003018,,,,,left,1,0.5716,0,20,20,14,1,8,6,8 | 6,2,1.9756,1.4111,congruent,left,,,,,,stimulusFile/physical.xlsx,,,,,,,,,,,,,,,,,,,,,,,,,,,,,,,
,,,,,,,,,,,,,,,667,2022-06-02_10h27.10.487,multiplicationStroop,2021.2.3,Win32,60.35003018,,,,,left,1,0.7751,0,21,21,42,1,3,8,3 | 8,5,1.9756,1.4111,incongruent,left,,,,,,stimulusFile/physical.xlsx,,,,,,,,,,,,,,,,,,,,,,,,,,,,,,,
,,,,,,,,,,,,,,,667,2022-06-02_10h27.10.487,multiplicationStroop,2021.2.3,Win32,60.35003018,,,,,left,1,0.5394,0,22,22,4,1,2,1,2 | 1,1,1.9756,1.4111,congruent,left,,,,,,stimulusFile/physical.xlsx,,,,,,,,,,,,,,,,,,,,,,,,,,,,,,,
,,,,,,,,,,,,,,,667,2022-06-02_10h27.10.487,multiplicationStroop,2021.2.3,Win32,60.35003018,,,,,right,1,0.5216,0,23,23,9,1,2,4,2 | 4,2,1.4111,1.9756,congruent,right,,,,,,stimulusFile/physical.xlsx,,,,,,,,,,,,,,,,,,,,,,,,,,,,,,,
,,,,,,,,,,,,,,,667,2022-06-02_10h27.10.487,multiplicationStroop,2021.2.3,Win32,60.35003018,,,,,left,1,0.783,0,24,24,54,1,7,7,7 | 7,0,1.9756,1.4111,neutral,left,,,,,,stimulusFile/physical.xlsx,,,,,,,,,,,,,,,,,,,,,,,,,,,,,,,
,,,,,,,,,,,,,,,667,2022-06-02_10h27.10.487,multiplicationStroop,2021.2.3,Win32,60.35003018,,,,,left,1,0.8506,0,25,25,51,1,8,8,8 | 8,0,1.9756,1.4111,neutral,left,,,,,,stimulusFile/physical.xlsx,,,,,,,,,,,,,,,,,,,,,,,,,,,,,,,
,,,,,,,,,,,,,,,667,2022-06-02_10h27.10.487,multiplicationStroop,2021.2.3,Win32,60.35003018,,,,,left,1,0.7821,0,26,26,52,1,2,2,2 | 2,0,1.9756,1.4111,neutral,left,,,,,,stimulusFile/physical.xlsx,,,,,,,,,,,,,,,,,,,,,,,,,,,,,,,
,,,,,,,,,,,,,,,667,2022-06-02_10h27.10.487,multiplicationStroop,2021.2.3,Win32,60.35003018,,,,,right,1,0.6151,0,27,27,47,1,9,4,9 | 4,5,1.4111,1.9756,incongruent,right,,,,,,stimulusFile/physical.xlsx,,,,,,,,,,,,,,,,,,,,,,,,,,,,,,,
,,,,,,,,,,,,,,,667,2022-06-02_10h27.10.487,multiplicationStroop,2021.2.3,Win32,60.35003018,,,,,right,1,0.6234,0,28,28,67,1,4,4,4 | 4,0,1.4111,1.9756,neutral,right,,,,,,stimulusFile/physical.xlsx,,,,,,,,,,,,,,,,,,,,,,,,,,,,,,,
,,,,,,,,,,,,,,,667,2022-06-02_10h27.10.487,multiplicationStroop,2021.2.3,Win32,60.35003018,,,,,left,1,0.8,0,29,29,20,1,6,1,6 | 1,5,1.9756,1.4111,congruent,left,,,,,,stimulusFile/physical.xlsx,,,,,,,,,,,,,,,,,,,,,,,,,,,,,,,
,,,,,,,,,,,,,,,667,2022-06-02_10h27.10.487,multiplicationStroop,2021.2.3,Win32,60.35003018,,,,,right,0,1.3395,0,30,30,69,1,7,7,7 | 7,0,1.4111,1.9756,neutral,left,,,,,,stimulusFile/physical.xlsx,,,,,,,,,,,,,,,,,,,,,,,,,,,,,,,
,,,,,,,,,,,,,,,667,2022-06-02_10h27.10.487,multiplicationStroop,2021.2.3,Win32,60.35003018,,,,,right,1,0.6497,0,31,31,65,1,2,2,2 | 2,0,1.4111,1.9756,neutral,right,,,,,,stimulusFile/physical.xlsx,,,,,,,,,,,,,,,,,,,,,,,,,,,,,,,
,,,,,,,,,,,,,,,667,2022-06-02_10h27.10.487,multiplicationStroop,2021.2.3,Win32,60.35003018,,,,,left,1,0.7558,0,32,32,25,1,3,4,3 | 4,1,1.9756,1.4111,incongruent,left,,,,,,stimulusFile/physical.xlsx,,,,,,,,,,,,,,,,,,,,,,,,,,,,,,,
,,,,,,,,,,,,,,,667,2022-06-02_10h27.10.487,multiplicationStroop,2021.2.3,Win32,60.35003018,,,,,right,1,0.7025,0,33,33,10,1,6,8,6 | 8,2,1.4111,1.9756,congruent,right,,,,,,stimulusFile/physical.xlsx,,,,,,,,,,,,,,,,,,,,,,,,,,,,,,,
,,,,,,,,,,,,,,,667,2022-06-02_10h27.10.487,multiplicationStroop,2021.2.3,Win32,60.35003018,,,,,right,1,0.7514,0,34,34,45,1,7,2,7 | 2,5,1.4111,1.9756,incongruent,right,,,,,,stimulusFile/physical.xlsx,,,,,,,,,,,,,,,,,,,,,,,,,,,,,,,
,,,,,,,,,,,,,,,667,2022-06-02_10h27.10.487,multiplicationStroop,2021.2.3,Win32,60.35003018,,,,,right,1,0.6687,0,35,35,30,1,7,6,7 | 6,1,1.4111,1.9756,incongruent,right,,,,,,stimulusFile/physical.xlsx,,,,,,,,,,,,,,,,,,,,,,,,,,,,,,,
,,,,,,,,,,,,,,,667,2022-06-02_10h27.10.487,multiplicationStroop,2021.2.3,Win32,60.35003018,,,,,right,1,0.6096,0,36,36,58,1,6,6,6 | 6,0,1.4111,1.9756,neutral,right,,,,,,stimulusFile/physical.xlsx,,,,,,,,,,,,,,,,,,,,,,,,,,,,,,,
,,,,,,,,,,,,,,,667,2022-06-02_10h27.10.487,multiplicationStroop,2021.2.3,Win32,60.35003018,,,,,left,1,0.8585,0,37,37,35,1,7,9,7 | 9,2,1.9756,1.4111,incongruent,left,,,,,,stimulusFile/physical.xlsx,,,,,,,,,,,,,,,,,,,,,,,,,,,,,,,
,,,,,,,,,,,,,,,667,2022-06-02_10h27.10.487,multiplicationStroop,2021.2.3,Win32,60.35003018,,,,,right,1,0.9397,0,38,38,38,1,8,6,8 | 6,2,1.4111,1.9756,incongruent,right,,,,,,stimulusFile/physical.xlsx,,,,,,,,,,,,,,,,,,,,,,,,,,,,,,,
,,,,,,,,,,,,,,,667,2022-06-02_10h27.10.487,multiplicationStroop,2021.2.3,Win32,60.35003018,,,,,left,0,0.5694,0,39,39,64,1,1,1,1 | 1,0,1.9756,1.4111,neutral,right,,,,,,stimulusFile/physical.xlsx,,,,,,,,,,,,,,,,,,,,,,,,,,,,,,,
,,,,,,,,,,,,,,,667,2022-06-02_10h27.10.487,multiplicationStroop,2021.2.3,Win32,60.35003018,,,,,right,0,0.7326,0,40,40,71,1,9,9,9 | 9,0,1.4111,1.9756,neutral,left,,,,,,stimulusFile/physical.xlsx,,,,,,,,,,,,,,,,,,,,,,,,,,,,,,,
,,,,,,,,,,,,,,,667,2022-06-02_10h27.10.487,multiplicationStroop,2021.2.3,Win32,60.35003018,,,,,left,1,0.8695,0,41,41,40,1,1,6,1 | 6,5,1.9756,1.4111,incongruent,left,,,,,,stimulusFile/physical.xlsx,,,,,,,,,,,,,,,,,,,,,,,,,,,,,,,
,,,,,,,,,,,,,,,667,2022-06-02_10h27.10.487,multiplicationStroop,2021.2.3,Win32,60.35003018,,,,,left,1,0.7349,0,42,42,33,1,2,4,2 | 4,2,1.9756,1.4111,incongruent,left,,,,,,stimulusFile/physical.xlsx,,,,,,,,,,,,,,,,,,,,,,,,,,,,,,,
,,,,,,,,,,,,,,,667,2022-06-02_10h27.10.487,multiplicationStroop,2021.2.3,Win32,60.35003018,,,,,left,1,0.7084,0,43,43,15,1,9,7,9 | 7,2,1.9756,1.4111,congruent,left,,,,,,stimulusFile/physical.xlsx,,,,,,,,,,,,,,,,,,,,,,,,,,,,,,,
,,,,,,,,,,,,,,,667,2022-06-02_10h27.10.487,multiplicationStroop,2021.2.3,Win32,60.35003018,,,,,right,1,0.5566,0,44,44,16,1,1,6,1 | 6,5,1.4111,1.9756,congruent,right,,,,,,stimulusFile/physical.xlsx,,,,,,,,,,,,,,,,,,,,,,,,,,,,,,,
,,,,,,,,,,,,,,,667,2022-06-02_10h27.10.487,multiplicationStroop,2021.2.3,Win32,60.35003018,,,,,left,1,0.4902,0,45,45,55,1,9,9,9 | 9,0,1.9756,1.4111,neutral,left,,,,,,stimulusFile/physical.xlsx,,,,,,,,,,,,,,,,,,,,,,,,,,,,,,,
,,,,,,,,,,,,,,,667,2022-06-02_10h27.10.487,multiplicationStroop,2021.2.3,Win32,60.35003018,,,,,left,1,0.6193,0,46,46,5,1,4,3,4 | 3,1,1.9756,1.4111,congruent,left,,,,,,stimulusFile/physical.xlsx,,,,,,,,,,,,,,,,,,,,,,,,,,,,,,,
,,,,,,,,,,,,,,,667,2022-06-02_10h27.10.487,multiplicationStroop,2021.2.3,Win32,60.35003018,,,,,right,1,0.6661,0,47,47,29,1,4,3,4 | 3,1,1.4111,1.9756,incongruent,right,,,,,,stimulusFile/physical.xlsx,,,,,,,,,,,,,,,,,,,,,,,,,,,,,,,
,,,,,,,,,,,,,,,667,2022-06-02_10h27.10.487,multiplicationStroop,2021.2.3,Win32,60.35003018,,,,,right,1,0.5899,0,48,48,31,1,9,8,9 | 8,1,1.4111,1.9756,incongruent,right,,,,,,stimulusFile/physical.xlsx,,,,,,,,,,,,,,,,,,,,,,,,,,,,,,,
,,,,,,,,,,,,,,,667,2022-06-02_10h27.10.487,multiplicationStroop,2021.2.3,Win32,60.35003018,,,,,right,1,0.5719,0,49,49,63,1,9,9,9 | 9,0,1.4111,1.9756,neutral,right,,,,,,stimulusFile/physical.xlsx,,,,,,,,,,,,,,,,,,,,,,,,,,,,,,,
,,,,,,,,,,,,,,,667,2022-06-02_10h27.10.487,multiplicationStroop,2021.2.3,Win32,60.35003018,,,,,right,1,0.8882,0,50,50,46,1,8,3,8 | 3,5,1.4111,1.9756,incongruent,right,,,,,,stimulusFile/physical.xlsx,,,,,,,,,,,,,,,,,,,,,,,,,,,,,,,
,,,,,,,,,,,,,,,667,2022-06-02_10h27.10.487,multiplicationStroop,2021.2.3,Win32,60.35003018,,,,,left,1,0.5525,0,51,51,43,1,4,9,4 | 9,5,1.9756,1.4111,incongruent,left,,,,,,stimulusFile/physical.xlsx,,,,,,,,,,,,,,,,,,,,,,,,,,,,,,,
,,,,,,,,,,,,,,,667,2022-06-02_10h27.10.487,multiplicationStroop,2021.2.3,Win32,60.35003018,,,,,right,1,0.6329,0,52,52,39,1,9,7,9 | 7,2,1.4111,1.9756,incongruent,right,,,,,,stimulusFile/physical.xlsx,,,,,,,,,,,,,,,,,,,,,,,,,,,,,,,
,,,,,,,,,,,,,,,667,2022-06-02_10h27.10.487,multiplicationStroop,2021.2.3,Win32,60.35003018,,,,,right,1,0.7365,0,53,53,44,1,6,1,6 | 1,5,1.4111,1.9756,incongruent,right,,,,,,stimulusFile/physical.xlsx,,,,,,,,,,,,,,,,,,,,,,,,,,,,,,,
,,,,,,,,,,,,,,,667,2022-06-02_10h27.10.487,multiplicationStroop,2021.2.3,Win32,60.35003018,,,,,right,1,0.718,0,54,54,28,1,2,1,2 | 1,1,1.4111,1.9756,incongruent,right,,,,,,stimulusFile/physical.xlsx,,,,,,,,,,,,,,,,,,,,,,,,,,,,,,,
,,,,,,,,,,,,,,,667,2022-06-02_10h27.10.487,multiplicationStroop,2021.2.3,Win32,60.35003018,,,,,right,1,0.5884,0,55,55,19,1,4,9,4 | 9,5,1.4111,1.9756,congruent,right,,,,,,stimulusFile/physical.xlsx,,,,,,,,,,,,,,,,,,,,,,,,,,,,,,,
,,,,,,,,,,,,,,,667,2022-06-02_10h27.10.487,multiplicationStroop,2021.2.3,Win32,60.35003018,,,,,left,1,0.8752,0,56,56,34,1,6,8,6 | 8,2,1.9756,1.4111,incongruent,left,,,,,,stimulusFile/physical.xlsx,,,,,,,,,,,,,,,,,,,,,,,,,,,,,,,
,,,,,,,,,,,,,,,667,2022-06-02_10h27.10.487,multiplicationStroop,2021.2.3,Win32,60.35003018,,,,,left,0,0.6824,0,57,57,66,1,3,3,3 | 3,0,1.9756,1.4111,neutral,right,,,,,,stimulusFile/physical.xlsx,,,,,,,,,,,,,,,,,,,,,,,,,,,,,,,
,,,,,,,,,,,,,,,667,2022-06-02_10h27.10.487,multiplicationStroop,2021.2.3,Win32,60.35003018,,,,,left,1,0.7867,0,58,58,13,1,4,2,4 | 2,2,1.9756,1.4111,congruent,left,,,,,,stimulusFile/physical.xlsx,,,,,,,,,,,,,,,,,,,,,,,,,,,,,,,
,,,,,,,,,,,,,,,667,2022-06-02_10h27.10.487,multiplicationStroop,2021.2.3,Win32,60.35003018,,,,,right,1,0.6153,0,59,59,37,1,4,2,4 | 2,2,1.4111,1.9756,incongruent,right,,,,,,stimulusFile/physical.xlsx,,,,,,,,,,,,,,,,,,,,,,,,,,,,,,,
,,,,,,,,,,,,,,,667,2022-06-02_10h27.10.487,multiplicationStroop,2021.2.3,Win32,60.35003018,,,,,right,1,0.5993,0,60,60,17,1,2,7,2 | 7,5,1.4111,1.9756,congruent,right,,,,,,stimulusFile/physical.xlsx,,,,,,,,,,,,,,,,,,,,,,,,,,,,,,,
,,,,,,,,,,,,,,,667,2022-06-02_10h27.10.487,multiplicationStroop,2021.2.3,Win32,60.35003018,,,,,left,1,0.669,0,61,61,21,1,7,2,7 | 2,5,1.9756,1.4111,congruent,left,,,,,,stimulusFile/physical.xlsx,,,,,,,,,,,,,,,,,,,,,,,,,,,,,,,
,,,,,,,,,,,,,,,667,2022-06-02_10h27.10.487,multiplicationStroop,2021.2.3,Win32,60.35003018,,,,,left,1,0.6016,0,62,62,50,1,6,6,6 | 6,0,1.9756,1.4111,neutral,left,,,,,,stimulusFile/physical.xlsx,,,,,,,,,,,,,,,,,,,,,,,,,,,,,,,
,,,,,,,,,,,,,,,667,2022-06-02_10h27.10.487,multiplicationStroop,2021.2.3,Win32,60.35003018,,,,,left,1,0.935,0,63,63,24,1,1,2,1 | 2,1,1.9756,1.4111,incongruent,left,,,,,,stimulusFile/physical.xlsx,,,,,,,,,,,,,,,,,,,,,,,,,,,,,,,
,,,,,,,,,,,,,,,667,2022-06-02_10h27.10.487,multiplicationStroop,2021.2.3,Win32,60.35003018,,,,,left,1,0.9159,0,64,64,22,1,8,3,8 | 3,5,1.9756,1.4111,congruent,left,,,,,,stimulusFile/physical.xlsx,,,,,,,,,,,,,,,,,,,,,,,,,,,,,,,
,,,,,,,,,,,,,,,667,2022-06-02_10h27.10.487,multiplicationStroop,2021.2.3,Win32,60.35003018,,,,,right,1,0.637,0,65,65,62,1,8,8,8 | 8,0,1.4111,1.9756,neutral,right,,,,,,stimulusFile/physical.xlsx,,,,,,,,,,,,,,,,,,,,,,,,,,,,,,,
,,,,,,,,,,,,,,,667,2022-06-02_10h27.10.487,multiplicationStroop,2021.2.3,Win32,60.35003018,,,,,right,1,0.6671,0,66,66,57,1,2,2,2 | 2,0,1.4111,1.9756,neutral,right,,,,,,stimulusFile/physical.xlsx,,,,,,,,,,,,,,,,,,,,,,,,,,,,,,,
,,,,,,,,,,,,,,,667,2022-06-02_10h27.10.487,multiplicationStroop,2021.2.3,Win32,60.35003018,,,,,right,1,0.5843,0,67,67,60,1,3,3,3 | 3,0,1.4111,1.9756,neutral,right,,,,,,stimulusFile/physical.xlsx,,,,,,,,,,,,,,,,,,,,,,,,,,,,,,,
,,,,,,,,,,,,,,,667,2022-06-02_10h27.10.487,multiplicationStroop,2021.2.3,Win32,60.35003018,,,,,right,1,0.5756,0,68,68,36,1,3,1,3 | 1,2,1.4111,1.9756,incongruent,right,,,,,,stimulusFile/physical.xlsx,,,,,,,,,,,,,,,,,,,,,,,,,,,,,,,
,,,,,,,,,,,,,,,667,2022-06-02_10h27.10.487,multiplicationStroop,2021.2.3,Win32,60.35003018,,,,,left,1,0.6684,0,69,69,7,1,9,8,9 | 8,1,1.9756,1.4111,congruent,left,,,,,,stimulusFile/physical.xlsx,,,,,,,,,,,,,,,,,,,,,,,,,,,,,,,
,,,,,,,,,,,,,,,667,2022-06-02_10h27.10.487,multiplicationStroop,2021.2.3,Win32,60.35003018,,,,,left,1,0.8386,0,70,70,70,1,8,8,8 | 8,0,1.9756,1.4111,neutral,left,,,,,,stimulusFile/physical.xlsx,,,,,,,,,,,,,,,,,,,,,,,,,,,,,,,
,,,,,,,,,,,,,,,667,2022-06-02_10h27.10.487,multiplicationStroop,2021.2.3,Win32,60.35003018,,,,,right,1,0.7,0,71,71,1,1,3,4,3 | 4,1,1.4111,1.9756,congruent,right,,,,,,stimulusFile/physical.xlsx,,,,,,,,,,,,,,,,,,,,,,,,,,,,,,,
,,,,,,,,,,,,,,,667,2022-06-02_10h27.10.487,multiplicationStroop,2021.2.3,Win32,60.35003018,,,,,,,,,,,,,,,,,,,,,0,1,1,1,1,stimulusFile/physical.xlsx,PHYSICALLY larger (larger font size).,images/physicallyLarger.png,,,,,,,,,,,,,,,,,,,,,,,,,,,,,
,,,,,,,,,,,,,,,667,2022-06-02_10h27.10.487,multiplicationStroop,2021.2.3,Win32,60.35003018,,,,,,,,,,,,,,,,,,,,,,,,,,,,,space,27.1616,space,2.4924,6,5.7832,1,0,0,0,25,1,3,×,2,3 × 2,incongruent,largerFirst,1,2,6,,,,,,,,
,,,,,,,,,,,,,,,667,2022-06-02_10h27.10.487,multiplicationStroop,2021.2.3,Win32,60.35003018,,,,,,,,,,,,,,,,,,,,,,,,,,,,,,,,,8,2.1931,1,0,1,1,10,1,2,×,4,2 × 4,incongruent,smallerFirst,2,1,8,,,,,,,,
,,,,,,,,,,,,,,,667,2022-06-02_10h27.10.487,multiplicationStroop,2021.2.3,Win32,60.35003018,,,,,,,,,,,,,,,,,,,,,,,,,,,,,,,,,36,5.5899,1,0,2,2,1,1,4,×,9,4 × 9,incongruent,smallerFirst,2,1,36,,,,,,,,
,,,,,,,,,,,,,,,667,2022-06-02_10h27.10.487,multiplicationStroop,2021.2.3,Win32,60.35003018,,,,,,,,,,,,,,,,,,,,,,,,,,,,,,,,,81,5.8128,1,0,3,3,35,1,9,×,9,9 × 9,neutral,tie,2,1,81,,,,,,,,
,,,,,,,,,,,,,,,667,2022-06-02_10h27.10.487,multiplicationStroop,2021.2.3,Win32,60.35003018,,,,,,,,,,,,,,,,,,,,,,,,,,,,,,,,,18,2.9111,1,0,4,4,16,1,9,×,2,9 × 2,incongruent,largerFirst,1,2,18,,,,,,,,
,,,,,,,,,,,,,,,667,2022-06-02_10h27.10.487,multiplicationStroop,2021.2.3,Win32,60.35003018,,,,,,,,,,,,,,,,,,,,,,,,,,,,,,,,,10,3.2096,1,0,5,5,7,1,2,×,5,2 × 5,incongruent,smallerFirst,2,1,10,,,,,,,,
,,,,,,,,,,,,,,,667,2022-06-02_10h27.10.487,multiplicationStroop,2021.2.3,Win32,60.35003018,,,,,,,,,,,,,,,,,,,,,,,,,,,,,,,,,42,5.0796,1,0,6,6,3,1,6,×,7,6 × 7,incongruent,smallerFirst,2,1,42,,,,,,,,
,,,,,,,,,,,,,,,667,2022-06-02_10h27.10.487,multiplicationStroop,2021.2.3,Win32,60.35003018,,,,,,,,,,,,,,,,,,,,,,,,,,,,,,,,,9,3.4115,1,0,7,7,29,1,3,×,3,3 × 3,neutral,tie,2,1,9,,,,,,,,
,,,,,,,,,,,,,,,667,2022-06-02_10h27.10.487,multiplicationStroop,2021.2.3,Win32,60.35003018,,,,,,,,,,,,,,,,,,,,,,,,,,,,,,,,,72,4.9304,1,0,8,8,14,1,9,×,8,9 × 8,incongruent,largerFirst,1,2,72,,,,,,,,
,,,,,,,,,,,,,,,667,2022-06-02_10h27.10.487,multiplicationStroop,2021.2.3,Win32,60.35003018,,,,,,,,,,,,,,,,,,,,,,,,,,,,,,,,,45,4.3943,1,0,9,9,8,1,5,×,9,5 × 9,incongruent,smallerFirst,2,1,45,,,,,,,,
,,,,,,,,,,,,,,,667,2022-06-02_10h27.10.487,multiplicationStroop,2021.2.3,Win32,60.35003018,,,,,,,,,,,,,,,,,,,,,,,,,,,,,,,,,16,2.7591,1,0,10,10,30,1,4,×,4,4 × 4,neutral,tie,2,1,16,,,,,,,,
,,,,,,,,,,,,,,,667,2022-06-02_10h27.10.487,multiplicationStroop,2021.2.3,Win32,60.35003018,,,,,,,,,,,,,,,,,,,,,,,,,,,,,,,,,15,2.0936,1,0,11,11,24,1,5,×,3,5 × 3,incongruent,largerFirst,1,2,15,,,,,,,,
,,,,,,,,,,,,,,,667,2022-06-02_10h27.10.487,multiplicationStroop,2021.2.3,Win32,60.35003018,,,,,,,,,,,,,,,,,,,,,,,,,,,,,,,,,27,3.0703,1,0,12,12,4,1,3,×,9,3 × 9,incongruent,smallerFirst,2,1,27,,,,,,,,
,,,,,,,,,,,,,,,667,2022-06-02_10h27.10.487,multiplicationStroop,2021.2.3,Win32,60.35003018,,,,,,,,,,,,,,,,,,,,,,,,,,,,,,,,,24,5.5215,1,0,13,13,23,1,8,×,3,8 × 3,incongruent,largerFirst,1,2,24,,,,,,,,
,,,,,,,,,,,,,,,667,2022-06-02_10h27.10.487,multiplicationStroop,2021.2.3,Win32,60.35003018,,,,,,,,,,,,,,,,,,,,,,,,,,,,,,,,,14,2.3109,1,0,14,14,18,1,7,×,2,7 × 2,incongruent,largerFirst,1,2,14,,,,,,,,
,,,,,,,,,,,,,,,667,2022-06-02_10h27.10.487,multiplicationStroop,2021.2.3,Win32,60.35003018,,,,,,,,,,,,,,,,,,,,,,,,,,,,,,,,,48,5.6207,1,0,15,15,15,1,8,×,6,8 × 6,incongruent,largerFirst,1,2,48,,,,,,,,
,,,,,,,,,,,,,,,667,2022-06-02_10h27.10.487,multiplicationStroop,2021.2.3,Win32,60.35003018,,,,,,,,,,,,,,,,,,,,,,,,,,,,,,,,,49,6.9325,1,0,16,16,33,1,7,×,7,7 × 7,neutral,tie,2,1,49,,,,,,,,
,,,,,,,,,,,,,,,667,2022-06-02_10h27.10.487,multiplicationStroop,2021.2.3,Win32,60.35003018,,,,,,,,,,,,,,,,,,,,,,,,,,,,,,,,,24,4.4609,1,0,17,17,6,1,4,×,6,4 × 6,incongruent,smallerFirst,2,1,24,,,,,,,,
,,,,,,,,,,,,,,,667,2022-06-02_10h27.10.487,multiplicationStroop,2021.2.3,Win32,60.35003018,,,,,,,,,,,,,,,,,,,,,,,,,,,,,,,,,16,2.5105,1,0,18,18,9,1,2,×,8,2 × 8,incongruent,smallerFirst,2,1,16,,,,,,,,
,,,,,,,,,,,,,,,667,2022-06-02_10h27.10.487,multiplicationStroop,2021.2.3,Win32,60.35003018,,,,,,,,,,,,,,,,,,,,,,,,,,,,,,,,,64,2.7694,1,0,19,19,34,1,8,×,8,8 × 8,neutral,tie,2,1,64,,,,,,,,
,,,,,,,,,,,,,,,667,2022-06-02_10h27.10.487,multiplicationStroop,2021.2.3,Win32,60.35003018,,,,,,,,,,,,,,,,,,,,,,,,,,,,,,,,,30,2.9547,1,0,20,20,11,1,5,×,6,5 × 6,incongruent,smallerFirst,2,1,30,,,,,,,,
,,,,,,,,,,,,,,,667,2022-06-02_10h27.10.487,multiplicationStroop,2021.2.3,Win32,60.35003018,,,,,,,,,,,,,,,,,,,,,,,,,,,,,,,,,32,4.8261,1,0,21,21,21,1,8,×,4,8 × 4,incongruent,largerFirst,1,2,32,,,,,,,,
,,,,,,,,,,,,,,,667,2022-06-02_10h27.10.487,multiplicationStroop,2021.2.3,Win32,60.35003018,,,,,,,,,,,,,,,,,,,,,,,,,,,,,,,,,25,2.31,1,0,22,22,31,1,5,×,5,5 × 5,neutral,tie,2,1,25,,,,,,,,
,,,,,,,,,,,,,,,667,2022-06-02_10h27.10.487,multiplicationStroop,2021.2.3,Win32,60.35003018,,,,,,,,,,,,,,,,,,,,,,,,,,,,,,,,,56,6.5561,1,0,23,23,0,1,7,×,8,7 × 8,incongruent,smallerFirst,2,1,56,,,,,,,,
,,,,,,,,,,,,,,,667,2022-06-02_10h27.10.487,multiplicationStroop,2021.2.3,Win32,60.35003018,,,,,,,,,,,,,,,,,,,,,,,,,,,,,,,,,35,2.493,1,0,24,24,26,1,7,×,5,7 × 5,incongruent,largerFirst,1,2,35,,,,,,,,
,,,,,,,,,,,,,,,667,2022-06-02_10h27.10.487,multiplicationStroop,2021.2.3,Win32,60.35003018,,,,,,,,,,,,,,,,,,,,,,,,,,,,,,,,,20,2.2337,1,0,25,25,13,1,4,×,5,4 × 5,incongruent,smallerFirst,2,1,20,,,,,,,,
,,,,,,,,,,,,,,,667,2022-06-02_10h27.10.487,multiplicationStroop,2021.2.3,Win32,60.35003018,,,,,,,,,,,,,,,,,,,,,,,,,,,,,,,,,12,2.3361,1,0,26,26,5,1,2,×,6,2 × 6,incongruent,smallerFirst,2,1,12,,,,,,,,
,,,,,,,,,,,,,,,667,2022-06-02_10h27.10.487,multiplicationStroop,2021.2.3,Win32,60.35003018,,,,,,,,,,,,,,,,,,,,,,,,,,,,,,,,,28,5.1712,1,0,27,27,2,1,4,×,7,4 × 7,incongruent,smallerFirst,2,1,28,,,,,,,,
,,,,,,,,,,,,,,,667,2022-06-02_10h27.10.487,multiplicationStroop,2021.2.3,Win32,60.35003018,,,,,,,,,,,,,,,,,,,,,,,,,,,,,,,,,18,3.7294,1,0,28,28,22,1,6,×,3,6 × 3,incongruent,largerFirst,1,2,18,,,,,,,,
,,,,,,,,,,,,,,,667,2022-06-02_10h27.10.487,multiplicationStroop,2021.2.3,Win32,60.35003018,,,,,,,,,,,,,,,,,,,,,,,,,,,,,,,,,12,1.7837,1,0,29,29,19,1,4,×,3,4 × 3,incongruent,largerFirst,1,2,12,,,,,,,,
,,,,,,,,,,,,,,,667,2022-06-02_10h27.10.487,multiplicationStroop,2021.2.3,Win32,60.35003018,,,,,,,,,,,,,,,,,,,,,,,,,,,,,,,,,54,4.9553,1,0,30,30,20,1,9,×,6,9 × 6,incongruent,largerFirst,1,2,54,,,,,,,,
,,,,,,,,,,,,,,,667,2022-06-02_10h27.10.487,multiplicationStroop,2021.2.3,Win32,60.35003018,,,,,,,,,,,,,,,,,,,,,,,,,,,,,,,,,36,3.2764,1,0,31,31,32,1,6,×,6,6 × 6,neutral,tie,2,1,36,,,,,,,,
,,,,,,,,,,,,,,,667,2022-06-02_10h27.10.487,multiplicationStroop,2021.2.3,Win32,60.35003018,,,,,,,,,,,,,,,,,,,,,,,,,,,,,,,,,40,2.2529,1,0,32,32,27,1,8,×,5,8 × 5,incongruent,largerFirst,1,2,40,,,,,,,,
,,,,,,,,,,,,,,,667,2022-06-02_10h27.10.487,multiplicationStroop,2021.2.3,Win32,60.35003018,,,,,,,,,,,,,,,,,,,,,,,,,,,,,,,,,21,2.259,1,0,33,33,12,1,3,×,7,3 × 7,incongruent,smallerFirst,2,1,21,,,,,,,,
,,,,,,,,,,,,,,,667,2022-06-02_10h27.10.487,multiplicationStroop,2021.2.3,Win32,60.35003018,,,,,,,,,,,,,,,,,,,,,,,,,,,,,,,,,4,1.8864,1,0,34,34,28,1,2,×,2,2 × 2,neutral,tie,2,1,4,,,,,,,,
,,,,,,,,,,,,,,,667,2022-06-02_10h27.10.487,multiplicationStroop,2021.2.3,Win32,60.35003018,,,,,,,,,,,,,,,,,,,,,,,,,,,,,,,,,63,6.422,1,0,35,35,17,1,9,×,7,9 × 7,incongruent,largerFirst,1,2,63,,,,,,,,
,,,,,,,,,,,,,,,667,2022-06-02_10h27.10.487,multiplicationStroop,2021.2.3,Win32,60.35003018,,,,,,,,,,,,,,,,,,,,,,,,,,,,,,,,,,,,,,,,,,,,,,,,,,0,0,0,4,1,stimulusFile/mult_blk5_INcongruent.xlsx,,
,,,,,,,,,,,,,,,667,2022-06-02_10h27.10.487,multiplicationStroop,2021.2.3,Win32,60.35003018,,,,,,,,,,,,,,,,,,,,,,,,,,,,,,,space,7.6213,12,1.7712,1,0,0,0,19,1,6,×,2,6 × 2,congruent,largerFirst,2,1,12,,,,,,,,
,,,,,,,,,,,,,,,667,2022-06-02_10h27.10.487,multiplicationStroop,2021.2.3,Win32,60.35003018,,,,,,,,,,,,,,,,,,,,,,,,,,,,,,,,,32,4.2702,1,0,1,1,20,1,8,×,4,8 × 4,congruent,largerFirst,2,1,32,,,,,,,,
,,,,,,,,,,,,,,,667,2022-06-02_10h27.10.487,multiplicationStroop,2021.2.3,Win32,60.35003018,,,,,,,,,,,,,,,,,,,,,,,,,,,,,,,,,30,2.793,1,0,2,2,15,1,6,×,5,6 × 5,congruent,largerFirst,2,1,30,,,,,,,,
,,,,,,,,,,,,,,,667,2022-06-02_10h27.10.487,multiplicationStroop,2021.2.3,Win32,60.35003018,,,,,,,,,,,,,,,,,,,,,,,,,,,,,,,,,49,2.7039,1,0,3,3,33,1,7,×,7,7 × 7,neutral,tie,2,1,49,,,,,,,,
,,,,,,,,,,,,,,,667,2022-06-02_10h27.10.487,multiplicationStroop,2021.2.3,Win32,60.35003018,,,,,,,,,,,,,,,,,,,,,,,,,,,,,,,,,8,2.6509,1,0,4,4,9,1,2,×,4,2 × 4,congruent,smallerFirst,1,2,8,,,,,,,,
,,,,,,,,,,,,,,,667,2022-06-02_10h27.10.487,multiplicationStroop,2021.2.3,Win32,60.35003018,,,,,,,,,,,,,,,,,,,,,,,,,,,,,,,,,16,2.294,1,0,5,5,5,1,2,×,8,2 × 8,congruent,smallerFirst,1,2,16,,,,,,,,
,,,,,,,,,,,,,,,667,2022-06-02_10h27.10.487,multiplicationStroop,2021.2.3,Win32,60.35003018,,,,,,,,,,,,,,,,,,,,,,,,,,,,,,,,,9,2.6343,1,0,6,6,29,1,3,×,3,3 × 3,neutral,tie,2,1,9,,,,,,,,
,,,,,,,,,,,,,,,667,2022-06-02_10h27.10.487,multiplicationStroop,2021.2.3,Win32,60.35003018,,,,,,,,,,,,,,,,,,,,,,,,,,,,,,,,,12,2.3524,1,0,7,7,2,1,3,×,4,3 × 4,congruent,smallerFirst,1,2,12,,,,,,,,
,,,,,,,,,,,,,,,667,2022-06-02_10h27.10.487,multiplicationStroop,2021.2.3,Win32,60.35003018,,,,,,,,,,,,,,,,,,,,,,,,,,,,,,,,,42,4.1876,1,0,8,8,3,1,6,×,7,6 × 7,congruent,smallerFirst,1,2,42,,,,,,,,
,,,,,,,,,,,,,,,667,2022-06-02_10h27.10.487,multiplicationStroop,2021.2.3,Win32,60.35003018,,,,,,,,,,,,,,,,,,,,,,,,,,,,,,,,,6,1.9269,1,0,9,9,13,1,2,×,3,2 × 3,congruent,smallerFirst,1,2,6,,,,,,,,
,,,,,,,,,,,,,,,667,2022-06-02_10h27.10.487,multiplicationStroop,2021.2.3,Win32,60.35003018,,,,,,,,,,,,,,,,,,,,,,,,,,,,,,,,,16,2.8197,1,0,10,10,30,1,4,×,4,4 × 4,neutral,tie,2,1,16,,,,,,,,
,,,,,,,,,,,,,,,667,2022-06-02_10h27.10.487,multiplicationStroop,2021.2.3,Win32,60.35003018,,,,,,,,,,,,,,,,,,,,,,,,,,,,,,,,,72,4.7944,1,0,11,11,17,1,9,×,8,9 × 8,congruent,largerFirst,2,1,72,,,,,,,,
,,,,,,,,,,,,,,,667,2022-06-02_10h27.10.487,multiplicationStroop,2021.2.3,Win32,60.35003018,,,,,,,,,,,,,,,,,,,,,,,,,,,,,,,,,14,3.2621,1,0,12,12,14,1,7,×,2,7 × 2,congruent,largerFirst,2,1,14,,,,,,,,
,,,,,,,,,,,,,,,667,2022-06-02_10h27.10.487,multiplicationStroop,2021.2.3,Win32,60.35003018,,,,,,,,,,,,,,,,,,,,,,,,,,,,,,,,,15,1.9591,1,0,13,13,4,1,3,×,5,3 × 5,congruent,smallerFirst,1,2,15,,,,,,,,
,,,,,,,,,,,,,,,667,2022-06-02_10h27.10.487,multiplicationStroop,2021.2.3,Win32,60.35003018,,,,,,,,,,,,,,,,,,,,,,,,,,,,,,,,,4,1.5331,1,0,14,14,28,1,2,×,2,2 × 2,neutral,tie,2,1,4,,,,,,,,
,,,,,,,,,,,,,,,667,2022-06-02_10h27.10.487,multiplicationStroop,2021.2.3,Win32,60.35003018,,,,,,,,,,,,,,,,,,,,,,,,,,,,,,,,,45,2.1519,1,0,15,15,23,1,9,×,5,9 × 5,congruent,largerFirst,2,1,45,,,,,,,,
,,,,,,,,,,,,,,,667,2022-06-02_10h27.10.487,multiplicationStroop,2021.2.3,Win32,60.35003018,,,,,,,,,,,,,,,,,,,,,,,,,,,,,,,,,20,2.0613,1,0,16,16,7,1,4,×,5,4 × 5,congruent,smallerFirst,1,2,20,,,,,,,,
,,,,,,,,,,,,,,,667,2022-06-02_10h27.10.487,multiplicationStroop,2021.2.3,Win32,60.35003018,,,,,,,,,,,,,,,,,,,,,,,,,,,,,,,,,24,2.8513,1,0,17,17,10,1,3,×,8,3 × 8,congruent,smallerFirst,1,2,24,,,,,,,,
,,,,,,,,,,,,,,,667,2022-06-02_10h27.10.487,multiplicationStroop,2021.2.3,Win32,60.35003018,,,,,,,,,,,,,,,,,,,,,,,,,,,,,,,,,56,4.7887,1,0,18,18,8,1,7,×,8,7 × 8,congruent,smallerFirst,1,2,56,,,,,,,,
,,,,,,,,,,,,,,,667,2022-06-02_10h27.10.487,multiplicationStroop,2021.2.3,Win32,60.35003018,,,,,,,,,,,,,,,,,,,,,,,,,,,,,,,,,25,2.6937,1,0,19,19,31,1,5,×,5,5 × 5,neutral,tie,2,1,25,,,,,,,,
,,,,,,,,,,,,,,,667,2022-06-02_10h27.10.487,multiplicationStroop,2021.2.3,Win32,60.35003018,,,,,,,,,,,,,,,,,,,,,,,,,,,,,,,,,28,5.3474,1,0,20,20,27,1,7,×,4,7 × 4,congruent,largerFirst,2,1,28,,,,,,,,
,,,,,,,,,,,,,,,667,2022-06-02_10h27.10.487,multiplicationStroop,2021.2.3,Win32,60.35003018,,,,,,,,,,,,,,,,,,,,,,,,,,,,,,,,,18,2.0249,1,0,21,21,22,1,9,×,2,9 × 2,congruent,largerFirst,2,1,18,,,,,,,,
,,,,,,,,,,,,,,,667,2022-06-02_10h27.10.487,multiplicationStroop,2021.2.3,Win32,60.35003018,,,,,,,,,,,,,,,,,,,,,,,,,,,,,,,,,18,4.1544,1,0,22,22,11,1,3,×,6,3 × 6,congruent,smallerFirst,1,2,18,,,,,,,,
,,,,,,,,,,,,,,,667,2022-06-02_10h27.10.487,multiplicationStroop,2021.2.3,Win32,60.35003018,,,,,,,,,,,,,,,,,,,,,,,,,,,,,,,,,36,5.6481,1,0,23,23,0,1,4,×,9,4 × 9,congruent,smallerFirst,1,2,36,,,,,,,,
,,,,,,,,,,,,,,,667,2022-06-02_10h27.10.487,multiplicationStroop,2021.2.3,Win32,60.35003018,,,,,,,,,,,,,,,,,,,,,,,,,,,,,,,,,21,1.9754,1,0,24,24,16,1,7,×,3,7 × 3,congruent,largerFirst,2,1,21,,,,,,,,
,,,,,,,,,,,,,,,667,2022-06-02_10h27.10.487,multiplicationStroop,2021.2.3,Win32,60.35003018,,,,,,,,,,,,,,,,,,,,,,,,,,,,,,,,,81,4.9703,1,0,25,25,35,1,9,×,9,9 × 9,neutral,tie,2,1,81,,,,,,,,
,,,,,,,,,,,,,,,667,2022-06-02_10h27.10.487,multiplicationStroop,2021.2.3,Win32,60.35003018,,,,,,,,,,,,,,,,,,,,,,,,,,,,,,,,,24,3.9286,1,0,26,26,25,1,6,×,4,6 × 4,congruent,largerFirst,2,1,24,,,,,,,,
,,,,,,,,,,,,,,,667,2022-06-02_10h27.10.487,multiplicationStroop,2021.2.3,Win32,60.35003018,,,,,,,,,,,,,,,,,,,,,,,,,,,,,,,,,63,4.3641,1,0,27,27,21,1,9,×,7,9 × 7,congruent,largerFirst,2,1,63,,,,,,,,
,,,,,,,,,,,,,,,667,2022-06-02_10h27.10.487,multiplicationStroop,2021.2.3,Win32,60.35003018,,,,,,,,,,,,,,,,,,,,,,,,,,,,,,,,,10,2.5607,1,0,28,28,24,1,5,×,2,5 × 2,congruent,largerFirst,2,1,10,,,,,,,,
,,,,,,,,,,,,,,,667,2022-06-02_10h27.10.487,multiplicationStroop,2021.2.3,Win32,60.35003018,,,,,,,,,,,,,,,,,,,,,,,,,,,,,,,,,48,4.737,1,0,29,29,18,1,8,×,6,8 × 6,congruent,largerFirst,2,1,48,,,,,,,,
,,,,,,,,,,,,,,,667,2022-06-02_10h27.10.487,multiplicationStroop,2021.2.3,Win32,60.35003018,,,,,,,,,,,,,,,,,,,,,,,,,,,,,,,,,35,3.3768,1,0,30,30,1,1,5,×,7,5 × 7,congruent,smallerFirst,1,2,35,,,,,,,,
,,,,,,,,,,,,,,,667,2022-06-02_10h27.10.487,multiplicationStroop,2021.2.3,Win32,60.35003018,,,,,,,,,,,,,,,,,,,,,,,,,,,,,,,,,64,5.2388,1,0,31,31,34,1,8,×,8,8 × 8,neutral,tie,2,1,64,,,,,,,,
,,,,,,,,,,,,,,,667,2022-06-02_10h27.10.487,multiplicationStroop,2021.2.3,Win32,60.35003018,,,,,,,,,,,,,,,,,,,,,,,,,,,,,,,,,36,2.8274,1,0,32,32,32,1,6,×,6,6 × 6,neutral,tie,2,1,36,,,,,,,,
,,,,,,,,,,,,,,,667,2022-06-02_10h27.10.487,multiplicationStroop,2021.2.3,Win32,60.35003018,,,,,,,,,,,,,,,,,,,,,,,,,,,,,,,,,27,5.4723,1,0,33,33,26,1,9,×,3,9 × 3,congruent,largerFirst,2,1,27,,,,,,,,
,,,,,,,,,,,,,,,667,2022-06-02_10h27.10.487,multiplicationStroop,2021.2.3,Win32,60.35003018,,,,,,,,,,,,,,,,,,,,,,,,,,,,,,,,,40,2.0607,1,0,34,34,6,1,5,×,8,5 × 8,congruent,smallerFirst,1,2,40,,,,,,,,
,,,,,,,,,,,,,,,667,2022-06-02_10h27.10.487,multiplicationStroop,2021.2.3,Win32,60.35003018,,,,,,,,,,,,,,,,,,,,,,,,,,,,,,,,,54,4.9874,1,0,35,35,12,1,6,×,9,6 × 9,congruent,smallerFirst,1,2,54,,,,,,,,
,,,,,,,,,,,,,,,667,2022-06-02_10h27.10.487,multiplicationStroop,2021.2.3,Win32,60.35003018,,,,,,,,,,,,,,,,,,,,,,,,,,,,,,,,,,,,,,,,,,,,,,,,,,0,1,1,2,1,stimulusFile/mult_blk3_congruent.xlsx,,
,,,,,,,,,,,,,,,667,2022-06-02_10h27.10.487,multiplicationStroop,2021.2.3,Win32,60.35003018,,,,,,,,,,,,,,,,,,,,,,,,,,,,,,,space,3.2769,12,2.2302,1,0,0,0,19,1,6,×,2,6 × 2,incongruent,largerFirst,1,2,12,,,,,,,,
,,,,,,,,,,,,,,,667,2022-06-02_10h27.10.487,multiplicationStroop,2021.2.3,Win32,60.35003018,,,,,,,,,,,,,,,,,,,,,,,,,,,,,,,,,40,3.2023,1,0,1,1,13,1,5,×,8,5 × 8,incongruent,smallerFirst,2,1,40,,,,,,,,
,,,,,,,,,,,,,,,667,2022-06-02_10h27.10.487,multiplicationStroop,2021.2.3,Win32,60.35003018,,,,,,,,,,,,,,,,,,,,,,,,,,,,,,,,,30,3.5268,1,0,2,2,25,1,6,×,5,6 × 5,incongruent,largerFirst,1,2,30,,,,,,,,
,,,,,,,,,,,,,,,667,2022-06-02_10h27.10.487,multiplicationStroop,2021.2.3,Win32,60.35003018,,,,,,,,,,,,,,,,,,,,,,,,,,,,,,,,,45,1.9607,1,0,3,3,22,1,9,×,5,9 × 5,incongruent,largerFirst,1,2,45,,,,,,,,
,,,,,,,,,,,,,,,667,2022-06-02_10h27.10.487,multiplicationStroop,2021.2.3,Win32,60.35003018,,,,,,,,,,,,,,,,,,,,,,,,,,,,,,,,,6,2.802,1,0,4,4,11,1,2,×,3,2 × 3,incongruent,smallerFirst,2,1,6,,,,,,,,
,,,,,,,,,,,,,,,667,2022-06-02_10h27.10.487,multiplicationStroop,2021.2.3,Win32,60.35003018,,,,,,,,,,,,,,,,,,,,,,,,,,,,,,,,,12,1.8679,1,0,5,5,5,1,3,×,4,3 × 4,incongruent,smallerFirst,2,1,12,,,,,,,,
,,,,,,,,,,,,,,,667,2022-06-02_10h27.10.487,multiplicationStroop,2021.2.3,Win32,60.35003018,,,,,,,,,,,,,,,,,,,,,,,,,,,,,,,,,24,4.5541,1,0,6,6,9,1,3,×,8,3 × 8,incongruent,smallerFirst,2,1,24,,,,,,,,
,,,,,,,,,,,,,,,667,2022-06-02_10h27.10.487,multiplicationStroop,2021.2.3,Win32,60.35003018,,,,,,,,,,,,,,,,,,,,,,,,,,,,,,,,,24,4.411,1,0,7,7,20,1,6,×,4,6 × 4,incongruent,largerFirst,1,2,24,,,,,,,,
,,,,,,,,,,,,,,,667,2022-06-02_10h27.10.487,multiplicationStroop,2021.2.3,Win32,60.35003018,,,,,,,,,,,,,,,,,,,,,,,,,,,,,,,,,81,2.0768,1,0,8,8,35,1,9,×,9,9 × 9,incongruent,tie,1,2,81,,,,,,,,
,,,,,,,,,,,,,,,667,2022-06-02_10h27.10.487,multiplicationStroop,2021.2.3,Win32,60.35003018,,,,,,,,,,,,,,,,,,,,,,,,,,,,,,,,,32,4.7879,1,0,9,9,7,1,4,×,8,4 × 8,incongruent,smallerFirst,2,1,32,,,,,,,,
,,,,,,,,,,,,,,,667,2022-06-02_10h27.10.487,multiplicationStroop,2021.2.3,Win32,60.35003018,,,,,,,,,,,,,,,,,,,,,,,,,,,,,,,,,49,4.0947,1,0,10,10,33,1,7,×,7,7 × 7,incongruent,tie,1,2,49,,,,,,,,
,,,,,,,,,,,,,,,667,2022-06-02_10h27.10.487,multiplicationStroop,2021.2.3,Win32,60.35003018,,,,,,,,,,,,,,,,,,,,,,,,,,,,,,,,,21,2.1596,1,0,11,11,26,1,7,×,3,7 × 3,incongruent,largerFirst,1,2,21,,,,,,,,
,,,,,,,,,,,,,,,667,2022-06-02_10h27.10.487,multiplicationStroop,2021.2.3,Win32,60.35003018,,,,,,,,,,,,,,,,,,,,,,,,,,,,,,,,,36,2.7695,1,0,12,12,32,1,6,×,6,6 × 6,incongruent,tie,1,2,36,,,,,,,,
,,,,,,,,,,,,,,,667,2022-06-02_10h27.10.487,multiplicationStroop,2021.2.3,Win32,60.35003018,,,,,,,,,,,,,,,,,,,,,,,,,,,,,,,,,28,2.7437,1,0,13,13,16,1,7,×,4,7 × 4,incongruent,largerFirst,1,2,28,,,,,,,,
,,,,,,,,,,,,,,,667,2022-06-02_10h27.10.487,multiplicationStroop,2021.2.3,Win32,60.35003018,,,,,,,,,,,,,,,,,,,,,,,,,,,,,,,,,36,4.5051,1,0,14,14,15,1,9,×,4,9 × 4,incongruent,largerFirst,1,2,36,,,,,,,,
,,,,,,,,,,,,,,,667,2022-06-02_10h27.10.487,multiplicationStroop,2021.2.3,Win32,60.35003018,,,,,,,,,,,,,,,,,,,,,,,,,,,,,,,,,54,4.8631,1,0,15,15,6,1,6,×,9,6 × 9,incongruent,smallerFirst,2,1,54,,,,,,,,
,,,,,,,,,,,,,,,667,2022-06-02_10h27.10.487,multiplicationStroop,2021.2.3,Win32,60.35003018,,,,,,,,,,,,,,,,,,,,,,,,,,,,,,,,,63,5.1958,1,0,16,16,3,1,7,×,9,7 × 9,incongruent,smallerFirst,2,1,63,,,,,,,,
,,,,,,,,,,,,,,,667,2022-06-02_10h27.10.487,multiplicationStroop,2021.2.3,Win32,60.35003018,,,,,,,,,,,,,,,,,,,,,,,,,,,,,,,,,16,2.2252,1,0,17,17,23,1,8,×,2,8 × 2,incongruent,largerFirst,1,2,16,,,,,,,,
,,,,,,,,,,,,,,,667,2022-06-02_10h27.10.487,multiplicationStroop,2021.2.3,Win32,60.35003018,,,,,,,,,,,,,,,,,,,,,,,,,,,,,,,,,8,2.1524,1,0,18,18,24,1,4,×,2,4 × 2,incongruent,largerFirst,1,2,8,,,,,,,,
,,,,,,,,,,,,,,,667,2022-06-02_10h27.10.487,multiplicationStroop,2021.2.3,Win32,60.35003018,,,,,,,,,,,,,,,,,,,,,,,,,,,,,,,,,18,2.9688,1,0,19,19,8,1,3,×,6,3 × 6,incongruent,smallerFirst,2,1,18,,,,,,,,
,,,,,,,,,,,,,,,667,2022-06-02_10h27.10.487,multiplicationStroop,2021.2.3,Win32,60.35003018,,,,,,,,,,,,,,,,,,,,,,,,,,,,,,,,,16,2.0938,1,0,20,20,30,1,4,×,4,4 × 4,incongruent,tie,1,2,16,,,,,,,,
,,,,,,,,,,,,,,,667,2022-06-02_10h27.10.487,multiplicationStroop,2021.2.3,Win32,60.35003018,,,,,,,,,,,,,,,,,,,,,,,,,,,,,,,,,20,2.1672,1,0,21,21,27,1,5,×,4,5 × 4,incongruent,largerFirst,1,2,20,,,,,,,,
,,,,,,,,,,,,,,,667,2022-06-02_10h27.10.487,multiplicationStroop,2021.2.3,Win32,60.35003018,,,,,,,,,,,,,,,,,,,,,,,,,,,,,,,,,27,6.1231,1,0,22,22,18,1,9,×,3,9 × 3,incongruent,largerFirst,1,2,27,,,,,,,,
,,,,,,,,,,,,,,,667,2022-06-02_10h27.10.487,multiplicationStroop,2021.2.3,Win32,60.35003018,,,,,,,,,,,,,,,,,,,,,,,,,,,,,,,,,14,1.9259,1,0,23,23,4,1,2,×,7,2 × 7,incongruent,smallerFirst,2,1,14,,,,,,,,
,,,,,,,,,,,,,,,667,2022-06-02_10h27.10.487,multiplicationStroop,2021.2.3,Win32,60.35003018,,,,,,,,,,,,,,,,,,,,,,,,,,,,,,,,,64,2.5028,1,0,24,24,34,1,8,×,8,8 × 8,incongruent,tie,1,2,64,,,,,,,,
,,,,,,,,,,,,,,,667,2022-06-02_10h27.10.487,multiplicationStroop,2021.2.3,Win32,60.35003018,,,,,,,,,,,,,,,,,,,,,,,,,,,,,,,,,18,2.2355,1,0,25,25,2,1,2,×,9,2 × 9,incongruent,smallerFirst,2,1,18,,,,,,,,
,,,,,,,,,,,,,,,667,2022-06-02_10h27.10.487,multiplicationStroop,2021.2.3,Win32,60.35003018,,,,,,,,,,,,,,,,,,,,,,,,,,,,,,,,,9,1.9838,1,0,26,26,29,1,3,×,3,3 × 3,incongruent,tie,1,2,9,,,,,,,,
,,,,,,,,,,,,,,,667,2022-06-02_10h27.10.487,multiplicationStroop,2021.2.3,Win32,60.35003018,,,,,,,,,,,,,,,,,,,,,,,,,,,,,,,,,42,4.1385,1,0,27,27,17,1,7,×,6,7 × 6,incongruent,largerFirst,1,2,42,,,,,,,,
,,,,,,,,,,,,,,,667,2022-06-02_10h27.10.487,multiplicationStroop,2021.2.3,Win32,60.35003018,,,,,,,,,,,,,,,,,,,,,,,,,,,,,,,,,72,5.5288,1,0,28,28,0,1,8,×,9,8 × 9,incongruent,smallerFirst,2,1,72,,,,,,,,
,,,,,,,,,,,,,,,667,2022-06-02_10h27.10.487,multiplicationStroop,2021.2.3,Win32,60.35003018,,,,,,,,,,,,,,,,,,,,,,,,,,,,,,,,,25,2.6273,1,0,29,29,31,1,5,×,5,5 × 5,incongruent,tie,1,2,25,,,,,,,,
,,,,,,,,,,,,,,,667,2022-06-02_10h27.10.487,multiplicationStroop,2021.2.3,Win32,60.35003018,,,,,,,,,,,,,,,,,,,,,,,,,,,,,,,,,15,1.9858,1,0,30,30,10,1,3,×,5,3 × 5,incongruent,smallerFirst,2,1,15,,,,,,,,
,,,,,,,,,,,,,,,667,2022-06-02_10h27.10.487,multiplicationStroop,2021.2.3,Win32,60.35003018,,,,,,,,,,,,,,,,,,,,,,,,,,,,,,,,,48,4.9703,1,0,31,31,1,1,6,×,8,6 × 8,incongruent,smallerFirst,2,1,48,,,,,,,,
,,,,,,,,,,,,,,,667,2022-06-02_10h27.10.487,multiplicationStroop,2021.2.3,Win32,60.35003018,,,,,,,,,,,,,,,,,,,,,,,,,,,,,,,,,56,5.1963,1,0,32,32,14,1,8,×,7,8 × 7,incongruent,largerFirst,1,2,56,,,,,,,,
,,,,,,,,,,,,,,,667,2022-06-02_10h27.10.487,multiplicationStroop,2021.2.3,Win32,60.35003018,,,,,,,,,,,,,,,,,,,,,,,,,,,,,,,,,4,1.8094,1,0,33,33,28,1,2,×,2,2 × 2,incongruent,tie,1,2,4,,,,,,,,
,,,,,,,,,,,,,,,667,2022-06-02_10h27.10.487,multiplicationStroop,2021.2.3,Win32,60.35003018,,,,,,,,,,,,,,,,,,,,,,,,,,,,,,,,,10,1.9685,1,0,34,34,21,1,5,×,2,5 × 2,incongruent,largerFirst,1,2,10,,,,,,,,
,,,,,,,,,,,,,,,667,2022-06-02_10h27.10.487,multiplicationStroop,2021.2.3,Win32,60.35003018,,,,,,,,,,,,,,,,,,,,,,,,,,,,,,,,,35,2.5361,1,0,35,35,12,1,5,×,7,5 × 7,incongruent,smallerFirst,2,1,35,,,,,,,,
,,,,,,,,,,,,,,,667,2022-06-02_10h27.10.487,multiplicationStroop,2021.2.3,Win32,60.35003018,,,,,,,,,,,,,,,,,,,,,,,,,,,,,,,,,,,,,,,,,,,,,,,,,,0,2,2,5,1,stimulusFile/mult_blk6_INcongruent.xlsx,,
,,,,,,,,,,,,,,,667,2022-06-02_10h27.10.487,multiplicationStroop,2021.2.3,Win32,60.35003018,,,,,,,,,,,,,,,,,,,,,,,,,,,,,,,space,4.5726,24,4.1191,1,0,0,0,22,1,8,×,3,8 × 3,neutral,largerFirst,1.5,1.5,24,,,,,,,,
,,,,,,,,,,,,,,,667,2022-06-02_10h27.10.487,multiplicationStroop,2021.2.3,Win32,60.35003018,,,,,,,,,,,,,,,,,,,,,,,,,,,,,,,,,25,2.3429,1,0,1,1,31,1,5,×,5,5 × 5,neutral,tie,1.5,1.5,25,,,,,,,,
,,,,,,,,,,,,,,,667,2022-06-02_10h27.10.487,multiplicationStroop,2021.2.3,Win32,60.35003018,,,,,,,,,,,,,,,,,,,,,,,,,,,,,,,,,9,1.9009,1,0,2,2,29,1,3,×,3,3 × 3,neutral,tie,1.5,1.5,9,,,,,,,,
,,,,,,,,,,,,,,,667,2022-06-02_10h27.10.487,multiplicationStroop,2021.2.3,Win32,60.35003018,,,,,,,,,,,,,,,,,,,,,,,,,,,,,,,,,12,1.8524,1,0,3,3,25,1,6,×,2,6 × 2,neutral,largerFirst,1.5,1.5,12,,,,,,,,
,,,,,,,,,,,,,,,667,2022-06-02_10h27.10.487,multiplicationStroop,2021.2.3,Win32,60.35003018,,,,,,,,,,,,,,,,,,,,,,,,,,,,,,,,,64,2.2351,1,0,4,4,34,1,8,×,8,8 × 8,neutral,tie,1.5,1.5,64,,,,,,,,
,,,,,,,,,,,,,,,667,2022-06-02_10h27.10.487,multiplicationStroop,2021.2.3,Win32,60.35003018,,,,,,,,,,,,,,,,,,,,,,,,,,,,,,,,,35,2.8683,1,0,5,5,1,1,5,×,7,5 × 7,neutral,smallerFirst,1.5,1.5,35,,,,,,,,
,,,,,,,,,,,,,,,667,2022-06-02_10h27.10.487,multiplicationStroop,2021.2.3,Win32,60.35003018,,,,,,,,,,,,,,,,,,,,,,,,,,,,,,,,,54,3.8465,1,0,6,6,7,1,6,×,9,6 × 9,neutral,smallerFirst,1.5,1.5,54,,,,,,,,
,,,,,,,,,,,,,,,667,2022-06-02_10h27.10.487,multiplicationStroop,2021.2.3,Win32,60.35003018,,,,,,,,,,,,,,,,,,,,,,,,,,,,,,,,,10,2.1084,1,0,7,7,4,1,2,×,5,2 × 5,neutral,smallerFirst,1.5,1.5,10,,,,,,,,
,,,,,,,,,,,,,,,667,2022-06-02_10h27.10.487,multiplicationStroop,2021.2.3,Win32,60.35003018,,,,,,,,,,,,,,,,,,,,,,,,,,,,,,,,,49,2.8362,1,0,8,8,33,1,7,×,7,7 × 7,neutral,tie,1.5,1.5,49,,,,,,,,
,,,,,,,,,,,,,,,667,2022-06-02_10h27.10.487,multiplicationStroop,2021.2.3,Win32,60.35003018,,,,,,,,,,,,,,,,,,,,,,,,,,,,,,,,,18,2.2521,1,0,9,9,0,1,3,×,6,3 × 6,neutral,smallerFirst,1.5,1.5,18,,,,,,,,
,,,,,,,,,,,,,,,667,2022-06-02_10h27.10.487,multiplicationStroop,2021.2.3,Win32,60.35003018,,,,,,,,,,,,,,,,,,,,,,,,,,,,,,,,,28,6.3914,1,0,10,10,17,1,7,×,4,7 × 4,neutral,largerFirst,1.5,1.5,28,,,,,,,,
,,,,,,,,,,,,,,,667,2022-06-02_10h27.10.487,multiplicationStroop,2021.2.3,Win32,60.35003018,,,,,,,,,,,,,,,,,,,,,,,,,,,,,,,,,8,2.7924,1,0,11,11,3,1,2,×,4,2 × 4,neutral,smallerFirst,1.5,1.5,8,,,,,,,,
,,,,,,,,,,,,,,,667,2022-06-02_10h27.10.487,multiplicationStroop,2021.2.3,Win32,60.35003018,,,,,,,,,,,,,,,,,,,,,,,,,,,,,,,,,16,2.6292,1,0,12,12,13,1,2,×,8,2 × 8,neutral,smallerFirst,1.5,1.5,16,,,,,,,,
,,,,,,,,,,,,,,,667,2022-06-02_10h27.10.487,multiplicationStroop,2021.2.3,Win32,60.35003018,,,,,,,,,,,,,,,,,,,,,,,,,,,,,,,,,6,2.1501,1,0,13,13,26,1,3,×,2,3 × 2,neutral,largerFirst,1.5,1.5,6,,,,,,,,
,,,,,,,,,,,,,,,667,2022-06-02_10h27.10.487,multiplicationStroop,2021.2.3,Win32,60.35003018,,,,,,,,,,,,,,,,,,,,,,,,,,,,,,,,,16,2.0866,1,0,14,14,30,1,4,×,4,4 × 4,neutral,tie,1.5,1.5,16,,,,,,,,
,,,,,,,,,,,,,,,667,2022-06-02_10h27.10.487,multiplicationStroop,2021.2.3,Win32,60.35003018,,,,,,,,,,,,,,,,,,,,,,,,,,,,,,,,,4,1.9168,1,0,15,15,28,1,2,×,2,2 × 2,neutral,tie,1.5,1.5,4,,,,,,,,
,,,,,,,,,,,,,,,667,2022-06-02_10h27.10.487,multiplicationStroop,2021.2.3,Win32,60.35003018,,,,,,,,,,,,,,,,,,,,,,,,,,,,,,,,,27,2.654,1,0,16,16,14,1,9,×,3,9 × 3,neutral,largerFirst,1.5,1.5,27,,,,,,,,
,,,,,,,,,,,,,,,667,2022-06-02_10h27.10.487,multiplicationStroop,2021.2.3,Win32,60.35003018,,,,,,,,,,,,,,,,,,,,,,,,,,,,,,,,,15,2.2098,1,0,17,17,5,1,3,×,5,3 × 5,neutral,smallerFirst,1.5,1.5,15,,,,,,,,
,,,,,,,,,,,,,,,667,2022-06-02_10h27.10.487,multiplicationStroop,2021.2.3,Win32,60.35003018,,,,,,,,,,,,,,,,,,,,,,,,,,,,,,,,,48,4.7702,1,0,18,18,15,1,8,×,6,8 × 6,neutral,largerFirst,1.5,1.5,48,,,,,,,,
,,,,,,,,,,,,,,,667,2022-06-02_10h27.10.487,multiplicationStroop,2021.2.3,Win32,60.35003018,,,,,,,,,,,,,,,,,,,,,,,,,,,,,,,,,45,2.4764,1,0,19,19,10,1,5,×,9,5 × 9,neutral,smallerFirst,1.5,1.5,45,,,,,,,,
,,,,,,,,,,,,,,,667,2022-06-02_10h27.10.487,multiplicationStroop,2021.2.3,Win32,60.35003018,,,,,,,,,,,,,,,,,,,,,,,,,,,,,,,,,32,4.288,1,0,20,20,23,1,8,×,4,8 × 4,neutral,largerFirst,1.5,1.5,32,,,,,,,,
,,,,,,,,,,,,,,,667,2022-06-02_10h27.10.487,multiplicationStroop,2021.2.3,Win32,60.35003018,,,,,,,,,,,,,,,,,,,,,,,,,,,,,,,,,36,5.2625,1,0,21,21,27,1,9,×,4,9 × 4,neutral,largerFirst,1.5,1.5,36,,,,,,,,
,,,,,,,,,,,,,,,667,2022-06-02_10h27.10.487,multiplicationStroop,2021.2.3,Win32,60.35003018,,,,,,,,,,,,,,,,,,,,,,,,,,,,,,,,,36,2.6116,1,0,22,22,32,1,6,×,6,6 × 6,neutral,tie,1.5,1.5,36,,,,,,,,
,,,,,,,,,,,,,,,667,2022-06-02_10h27.10.487,multiplicationStroop,2021.2.3,Win32,60.35003018,,,,,,,,,,,,,,,,,,,,,,,,,,,,,,,,,72,5.571,1,0,23,23,11,1,8,×,9,8 × 9,neutral,smallerFirst,1.5,1.5,72,,,,,,,,
,,,,,,,,,,,,,,,667,2022-06-02_10h27.10.487,multiplicationStroop,2021.2.3,Win32,60.35003018,,,,,,,,,,,,,,,,,,,,,,,,,,,,,,,,,24,5.3799,1,0,24,24,2,1,4,×,6,4 × 6,neutral,smallerFirst,1.5,1.5,24,,,,,,,,
,,,,,,,,,,,,,,,667,2022-06-02_10h27.10.487,multiplicationStroop,2021.2.3,Win32,60.35003018,,,,,,,,,,,,,,,,,,,,,,,,,,,,,,,,,21,1.8258,1,0,25,25,8,1,3,×,7,3 × 7,neutral,smallerFirst,1.5,1.5,21,,,,,,,,
,,,,,,,,,,,,,,,667,2022-06-02_10h27.10.487,multiplicationStroop,2021.2.3,Win32,60.35003018,,,,,,,,,,,,,,,,,,,,,,,,,,,,,,,,,30,4.4198,1,0,26,26,19,1,6,×,5,6 × 5,neutral,largerFirst,1.5,1.5,30,,,,,,,,
,,,,,,,,,,,,,,,667,2022-06-02_10h27.10.487,multiplicationStroop,2021.2.3,Win32,60.35003018,,,,,,,,,,,,,,,,,,,,,,,,,,,,,,,,,12,2.6602,1,0,27,27,21,1,4,×,3,4 × 3,neutral,largerFirst,1.5,1.5,12,,,,,,,,
,,,,,,,,,,,,,,,667,2022-06-02_10h27.10.487,multiplicationStroop,2021.2.3,Win32,60.35003018,,,,,,,,,,,,,,,,,,,,,,,,,,,,,,,,,18,2.2531,1,0,28,28,18,1,9,×,2,9 × 2,neutral,largerFirst,1.5,1.5,18,,,,,,,,
,,,,,,,,,,,,,,,667,2022-06-02_10h27.10.487,multiplicationStroop,2021.2.3,Win32,60.35003018,,,,,,,,,,,,,,,,,,,,,,,,,,,,,,,,,14,1.8181,1,0,29,29,16,1,7,×,2,7 × 2,neutral,largerFirst,1.5,1.5,14,,,,,,,,
,,,,,,,,,,,,,,,667,2022-06-02_10h27.10.487,multiplicationStroop,2021.2.3,Win32,60.35003018,,,,,,,,,,,,,,,,,,,,,,,,,,,,,,,,,20,2.1849,1,0,30,30,20,1,5,×,4,5 × 4,neutral,largerFirst,1.5,1.5,20,,,,,,,,
,,,,,,,,,,,,,,,667,2022-06-02_10h27.10.487,multiplicationStroop,2021.2.3,Win32,60.35003018,,,,,,,,,,,,,,,,,,,,,,,,,,,,,,,,,81,2.1843,1,0,31,31,35,1,9,×,9,9 × 9,neutral,tie,1.5,1.5,81,,,,,,,,
,,,,,,,,,,,,,,,667,2022-06-02_10h27.10.487,multiplicationStroop,2021.2.3,Win32,60.35003018,,,,,,,,,,,,,,,,,,,,,,,,,,,,,,,,,56,5.4715,1,0,32,32,9,1,7,×,8,7 × 8,neutral,smallerFirst,1.5,1.5,56,,,,,,,,
,,,,,,,,,,,,,,,667,2022-06-02_10h27.10.487,multiplicationStroop,2021.2.3,Win32,60.35003018,,,,,,,,,,,,,,,,,,,,,,,,,,,,,,,,,40,2.9281,1,0,33,33,24,1,8,×,5,8 × 5,neutral,largerFirst,1.5,1.5,40,,,,,,,,
,,,,,,,,,,,,,,,667,2022-06-02_10h27.10.487,multiplicationStroop,2021.2.3,Win32,60.35003018,,,,,,,,,,,,,,,,,,,,,,,,,,,,,,,,,63,4.3459,1,0,34,34,12,1,7,×,9,7 × 9,neutral,smallerFirst,1.5,1.5,63,,,,,,,,
,,,,,,,,,,,,,,,667,2022-06-02_10h27.10.487,multiplicationStroop,2021.2.3,Win32,60.35003018,,,,,,,,,,,,,,,,,,,,,,,,,,,,,,,,,42,4.3622,1,0,35,35,6,1,6,×,7,6 × 7,neutral,smallerFirst,1.5,1.5,42,,,,,,,,
,,,,,,,,,,,,,,,667,2022-06-02_10h27.10.487,multiplicationStroop,2021.2.3,Win32,60.35003018,,,,,,,,,,,,,,,,,,,,,,,,,,,,,,,,,,,,,,,,,,,,,,,,,,0,3,3,1,1,stimulusFile/mult_blk2.xlsx,,
,,,,,,,,,,,,,,,667,2022-06-02_10h27.10.487,multiplicationStroop,2021.2.3,Win32,60.35003018,,,,,,,,,,,,,,,,,,,,,,,,,,,,,,,space,2.6435,27,6.0816,1,0,0,0,12,1,3,×,9,3 × 9,congruent,smallerFirst,1,2,27,,,,,,,,
,,,,,,,,,,,,,,,667,2022-06-02_10h27.10.487,multiplicationStroop,2021.2.3,Win32,60.35003018,,,,,,,,,,,,,,,,,,,,,,,,,,,,,,,,,20,2.0585,1,0,1,1,21,1,5,×,4,5 × 4,congruent,largerFirst,2,1,20,,,,,,,,
,,,,,,,,,,,,,,,667,2022-06-02_10h27.10.487,multiplicationStroop,2021.2.3,Win32,60.35003018,,,,,,,,,,,,,,,,,,,,,,,,,,,,,,,,,28,3.0368,1,0,2,2,13,1,4,×,7,4 × 7,congruent,smallerFirst,1,2,28,,,,,,,,
,,,,,,,,,,,,,,,667,2022-06-02_10h27.10.487,multiplicationStroop,2021.2.3,Win32,60.35003018,,,,,,,,,,,,,,,,,,,,,,,,,,,,,,,,,54,4.4954,1,0,3,3,26,1,9,×,6,9 × 6,congruent,largerFirst,2,1,54,,,,,,,,
,,,,,,,,,,,,,,,667,2022-06-02_10h27.10.487,multiplicationStroop,2021.2.3,Win32,60.35003018,,,,,,,,,,,,,,,,,,,,,,,,,,,,,,,,,25,2.8945,1,0,4,4,31,1,5,×,5,5 × 5,neutral,tie,1,2,25,,,,,,,,
,,,,,,,,,,,,,,,667,2022-06-02_10h27.10.487,multiplicationStroop,2021.2.3,Win32,60.35003018,,,,,,,,,,,,,,,,,,,,,,,,,,,,,,,,,6,2.1268,1,0,5,5,27,1,3,×,2,3 × 2,congruent,largerFirst,2,1,6,,,,,,,,
,,,,,,,,,,,,,,,667,2022-06-02_10h27.10.487,multiplicationStroop,2021.2.3,Win32,60.35003018,,,,,,,,,,,,,,,,,,,,,,,,,,,,,,,,,9,2.1682,1,0,6,6,29,1,3,×,3,3 × 3,neutral,tie,1,2,9,,,,,,,,
,,,,,,,,,,,,,,,667,2022-06-02_10h27.10.487,multiplicationStroop,2021.2.3,Win32,60.35003018,,,,,,,,,,,,,,,,,,,,,,,,,,,,,,,,,18,2.402,1,0,7,7,8,1,2,×,9,2 × 9,congruent,smallerFirst,1,2,18,,,,,,,,
,,,,,,,,,,,,,,,667,2022-06-02_10h27.10.487,multiplicationStroop,2021.2.3,Win32,60.35003018,,,,,,,,,,,,,,,,,,,,,,,,,,,,,,,,,36,2.6018,1,0,8,8,32,1,6,×,6,6 × 6,neutral,tie,1,2,36,,,,,,,,
,,,,,,,,,,,,,,,667,2022-06-02_10h27.10.487,multiplicationStroop,2021.2.3,Win32,60.35003018,,,,,,,,,,,,,,,,,,,,,,,,,,,,,,,,,63,4.62,1,0,9,9,7,1,7,×,9,7 × 9,congruent,smallerFirst,1,2,63,,,,,,,,
,,,,,,,,,,,,,,,667,2022-06-02_10h27.10.487,multiplicationStroop,2021.2.3,Win32,60.35003018,,,,,,,,,,,,,,,,,,,,,,,,,,,,,,,,,12,1.8601,1,0,10,10,5,1,2,×,6,2 × 6,congruent,smallerFirst,1,2,12,,,,,,,,
,,,,,,,,,,,,,,,667,2022-06-02_10h27.10.487,multiplicationStroop,2021.2.3,Win32,60.35003018,,,,,,,,,,,,,,,,,,,,,,,,,,,,,,,,,32,4.404,1,0,11,11,6,1,4,×,8,4 × 8,congruent,smallerFirst,1,2,32,,,,,,,,
,,,,,,,,,,,,,,,667,2022-06-02_10h27.10.487,multiplicationStroop,2021.2.3,Win32,60.35003018,,,,,,,,,,,,,,,,,,,,,,,,,,,,,,,,,64,5.7131,1,0,12,12,34,1,8,×,8,8 × 8,neutral,tie,1,2,64,,,,,,,,
,,,,,,,,,,,,,,,667,2022-06-02_10h27.10.487,multiplicationStroop,2021.2.3,Win32,60.35003018,,,,,,,,,,,,,,,,,,,,,,,,,,,,,,,,,42,4.361,1,0,13,13,17,1,7,×,6,7 × 6,congruent,largerFirst,2,1,42,,,,,,,,
,,,,,,,,,,,,,,,667,2022-06-02_10h27.10.487,multiplicationStroop,2021.2.3,Win32,60.35003018,,,,,,,,,,,,,,,,,,,,,,,,,,,,,,,,,14,2.0101,1,0,14,14,0,1,2,×,7,2 × 7,congruent,smallerFirst,1,2,14,,,,,,,,
,,,,,,,,,,,,,,,667,2022-06-02_10h27.10.487,multiplicationStroop,2021.2.3,Win32,60.35003018,,,,,,,,,,,,,,,,,,,,,,,,,,,,,,,,,40,2.3356,1,0,15,15,20,1,8,×,5,8 × 5,congruent,largerFirst,2,1,40,,,,,,,,
,,,,,,,,,,,,,,,667,2022-06-02_10h27.10.487,multiplicationStroop,2021.2.3,Win32,60.35003018,,,,,,,,,,,,,,,,,,,,,,,,,,,,,,,,,18,2.5507,1,0,16,16,25,1,6,×,3,6 × 3,congruent,largerFirst,2,1,18,,,,,,,,
,,,,,,,,,,,,,,,667,2022-06-02_10h27.10.487,multiplicationStroop,2021.2.3,Win32,60.35003018,,,,,,,,,,,,,,,,,,,,,,,,,,,,,,,,,16,2.4865,1,0,17,17,19,1,8,×,2,8 × 2,congruent,largerFirst,2,1,16,,,,,,,,
,,,,,,,,,,,,,,,667,2022-06-02_10h27.10.487,multiplicationStroop,2021.2.3,Win32,60.35003018,,,,,,,,,,,,,,,,,,,,,,,,,,,,,,,,,4,2.9595,1,0,18,18,28,1,2,×,2,2 × 2,neutral,tie,1,2,4,,,,,,,,
,,,,,,,,,,,,,,,667,2022-06-02_10h27.10.487,multiplicationStroop,2021.2.3,Win32,60.35003018,,,,,,,,,,,,,,,,,,,,,,,,,,,,,,,,,15,2.0188,1,0,19,19,18,1,5,×,3,5 × 3,congruent,largerFirst,2,1,15,,,,,,,,
,,,,,,,,,,,,,,,667,2022-06-02_10h27.10.487,multiplicationStroop,2021.2.3,Win32,60.35003018,,,,,,,,,,,,,,,,,,,,,,,,,,,,,,,,,36,4.3377,1,0,20,20,14,1,9,×,4,9 × 4,congruent,largerFirst,2,1,36,,,,,,,,
,,,,,,,,,,,,,,,667,2022-06-02_10h27.10.487,multiplicationStroop,2021.2.3,Win32,60.35003018,,,,,,,,,,,,,,,,,,,,,,,,,,,,,,,,,10,2.0259,1,0,21,21,10,1,2,×,5,2 × 5,congruent,smallerFirst,1,2,10,,,,,,,,
,,,,,,,,,,,,,,,667,2022-06-02_10h27.10.487,multiplicationStroop,2021.2.3,Win32,60.35003018,,,,,,,,,,,,,,,,,,,,,,,,,,,,,,,,,30,2.2698,1,0,22,22,1,1,5,×,6,5 × 6,congruent,smallerFirst,1,2,30,,,,,,,,
,,,,,,,,,,,,,,,667,2022-06-02_10h27.10.487,multiplicationStroop,2021.2.3,Win32,60.35003018,,,,,,,,,,,,,,,,,,,,,,,,,,,,,,,,,49,7.1237,1,0,23,23,33,1,7,×,7,7 × 7,neutral,tie,1,2,49,,,,,,,,
,,,,,,,,,,,,,,,667,2022-06-02_10h27.10.487,multiplicationStroop,2021.2.3,Win32,60.35003018,,,,,,,,,,,,,,,,,,,,,,,,,,,,,,,,,81,2.5078,1,0,24,24,35,1,9,×,9,9 × 9,neutral,tie,1,2,81,,,,,,,,
,,,,,,,,,,,,,,,667,2022-06-02_10h27.10.487,multiplicationStroop,2021.2.3,Win32,60.35003018,,,,,,,,,,,,,,,,,,,,,,,,,,,,,,,,,8,4.1219,1,0,25,25,23,1,4,×,2,4 × 2,congruent,largerFirst,2,1,8,,,,,,,,
,,,,,,,,,,,,,,,667,2022-06-02_10h27.10.487,multiplicationStroop,2021.2.3,Win32,60.35003018,,,,,,,,,,,,,,,,,,,,,,,,,,,,,,,,,56,4.612,1,0,26,26,22,1,8,×,7,8 × 7,congruent,largerFirst,2,1,56,,,,,,,,
,,,,,,,,,,,,,,,667,2022-06-02_10h27.10.487,multiplicationStroop,2021.2.3,Win32,60.35003018,,,,,,,,,,,,,,,,,,,,,,,,,,,,,,,,,35,3.7111,1,0,27,27,15,1,7,×,5,7 × 5,congruent,largerFirst,2,1,35,,,,,,,,
,,,,,,,,,,,,,,,667,2022-06-02_10h27.10.487,multiplicationStroop,2021.2.3,Win32,60.35003018,,,,,,,,,,,,,,,,,,,,,,,,,,,,,,,,,12,3.1264,1,0,28,28,16,1,4,×,3,4 × 3,congruent,largerFirst,2,1,12,,,,,,,,
,,,,,,,,,,,,,,,667,2022-06-02_10h27.10.487,multiplicationStroop,2021.2.3,Win32,60.35003018,,,,,,,,,,,,,,,,,,,,,,,,,,,,,,,,,45,2.7607,1,0,29,29,9,1,5,×,9,5 × 9,congruent,smallerFirst,1,2,45,,,,,,,,
,,,,,,,,,,,,,,,667,2022-06-02_10h27.10.487,multiplicationStroop,2021.2.3,Win32,60.35003018,,,,,,,,,,,,,,,,,,,,,,,,,,,,,,,,,24,7.2568,1,0,30,30,24,1,8,×,3,8 × 3,congruent,largerFirst,2,1,24,,,,,,,,
,,,,,,,,,,,,,,,667,2022-06-02_10h27.10.487,multiplicationStroop,2021.2.3,Win32,60.35003018,,,,,,,,,,,,,,,,,,,,,,,,,,,,,,,,,48,5.5287,1,0,31,31,4,1,6,×,8,6 × 8,congruent,smallerFirst,1,2,48,,,,,,,,
,,,,,,,,,,,,,,,667,2022-06-02_10h27.10.487,multiplicationStroop,2021.2.3,Win32,60.35003018,,,,,,,,,,,,,,,,,,,,,,,,,,,,,,,,,21,2.4435,1,0,32,32,2,1,3,×,7,3 × 7,congruent,smallerFirst,1,2,21,,,,,,,,
,,,,,,,,,,,,,,,667,2022-06-02_10h27.10.487,multiplicationStroop,2021.2.3,Win32,60.35003018,,,,,,,,,,,,,,,,,,,,,,,,,,,,,,,,,72,4.2536,1,0,33,33,3,1,8,×,9,8 × 9,congruent,smallerFirst,1,2,72,,,,,,,,
,,,,,,,,,,,,,,,667,2022-06-02_10h27.10.487,multiplicationStroop,2021.2.3,Win32,60.35003018,,,,,,,,,,,,,,,,,,,,,,,,,,,,,,,,,16,4.8804,1,0,34,34,30,1,4,×,4,4 × 4,neutral,tie,1,2,16,,,,,,,,
,,,,,,,,,,,,,,,667,2022-06-02_10h27.10.487,multiplicationStroop,2021.2.3,Win32,60.35003018,,,,,,,,,,,,,,,,,,,,,,,,,,,,,,,,,24,5.6621,1,0,35,35,11,1,4,×,6,4 × 6,congruent,smallerFirst,1,2,24,,,,,,,,
,,,,,,,,,,,,,,,667,2022-06-02_10h27.10.487,multiplicationStroop,2021.2.3,Win32,60.35003018,,,,,,,,,,,,,,,,,,,,,,,,,,,,,,,,,,,,,,,,,,,,,,,,,,0,4,4,3,1,stimulusFile/mult_blk4_congruent.xlsx,,
,,,,,,,,,,,,,,,667,2022-06-02_10h27.10.487,multiplicationStroop,2021.2.3,Win32,60.35003018,,,,,,,,,,,,,,,,,,,,,,,,,,,,,,,space,2.3706,16,2.7588,1,0,0,0,30,1,4,×,4,4 × 4,neutral,tie,1.5,1.5,16,,,,,,,,
,,,,,,,,,,,,,,,667,2022-06-02_10h27.10.487,multiplicationStroop,2021.2.3,Win32,60.35003018,,,,,,,,,,,,,,,,,,,,,,,,,,,,,,,,,54,4.3536,1,0,1,1,21,1,9,×,6,9 × 6,neutral,largerFirst,1.5,1.5,54,,,,,,,,
,,,,,,,,,,,,,,,667,2022-06-02_10h27.10.487,multiplicationStroop,2021.2.3,Win32,60.35003018,,,,,,,,,,,,,,,,,,,,,,,,,,,,,,,,,40,2.4423,1,0,2,2,10,1,5,×,8,5 × 8,neutral,smallerFirst,1.5,1.5,40,,,,,,,,
,,,,,,,,,,,,,,,667,2022-06-02_10h27.10.487,multiplicationStroop,2021.2.3,Win32,60.35003018,,,,,,,,,,,,,,,,,,,,,,,,,,,,,,,,,72,4.521,1,0,3,3,25,1,9,×,8,9 × 8,neutral,largerFirst,1.5,1.5,72,,,,,,,,
,,,,,,,,,,,,,,,667,2022-06-02_10h27.10.487,multiplicationStroop,2021.2.3,Win32,60.35003018,,,,,,,,,,,,,,,,,,,,,,,,,,,,,,,,,25,2.7935,1,0,4,4,31,1,5,×,5,5 × 5,neutral,tie,1.5,1.5,25,,,,,,,,
,,,,,,,,,,,,,,,667,2022-06-02_10h27.10.487,multiplicationStroop,2021.2.3,Win32,60.35003018,,,,,,,,,,,,,,,,,,,,,,,,,,,,,,,,,63,4.8298,1,0,5,5,26,1,9,×,7,9 × 7,neutral,largerFirst,1.5,1.5,63,,,,,,,,
,,,,,,,,,,,,,,,667,2022-06-02_10h27.10.487,multiplicationStroop,2021.2.3,Win32,60.35003018,,,,,,,,,,,,,,,,,,,,,,,,,,,,,,,,,56,4.8793,1,0,6,6,23,1,8,×,7,8 × 7,neutral,largerFirst,1.5,1.5,56,,,,,,,,
,,,,,,,,,,,,,,,667,2022-06-02_10h27.10.487,multiplicationStroop,2021.2.3,Win32,60.35003018,,,,,,,,,,,,,,,,,,,,,,,,,,,,,,,,,42,4.4112,1,0,7,7,20,1,7,×,6,7 × 6,neutral,largerFirst,1.5,1.5,42,,,,,,,,
,,,,,,,,,,,,,,,667,2022-06-02_10h27.10.487,multiplicationStroop,2021.2.3,Win32,60.35003018,,,,,,,,,,,,,,,,,,,,,,,,,,,,,,,,,8,2.544,1,0,8,8,17,1,4,×,2,4 × 2,neutral,largerFirst,1.5,1.5,8,,,,,,,,
,,,,,,,,,,,,,,,667,2022-06-02_10h27.10.487,multiplicationStroop,2021.2.3,Win32,60.35003018,,,,,,,,,,,,,,,,,,,,,,,,,,,,,,,,,64,2.4351,1,0,9,9,34,1,8,×,8,8 × 8,neutral,tie,1.5,1.5,64,,,,,,,,
,,,,,,,,,,,,,,,667,2022-06-02_10h27.10.487,multiplicationStroop,2021.2.3,Win32,60.35003018,,,,,,,,,,,,,,,,,,,,,,,,,,,,,,,,,18,2.9683,1,0,10,10,14,1,6,×,3,6 × 3,neutral,largerFirst,1.5,1.5,18,,,,,,,,
,,,,,,,,,,,,,,,667,2022-06-02_10h27.10.487,multiplicationStroop,2021.2.3,Win32,60.35003018,,,,,,,,,,,,,,,,,,,,,,,,,,,,,,,,,16,1.976,1,0,11,11,27,1,8,×,2,8 × 2,neutral,largerFirst,1.5,1.5,16,,,,,,,,
,,,,,,,,,,,,,,,667,2022-06-02_10h27.10.487,multiplicationStroop,2021.2.3,Win32,60.35003018,,,,,,,,,,,,,,,,,,,,,,,,,,,,,,,,,12,1.6849,1,0,12,12,7,1,3,×,4,3 × 4,neutral,smallerFirst,1.5,1.5,12,,,,,,,,
,,,,,,,,,,,,,,,667,2022-06-02_10h27.10.487,multiplicationStroop,2021.2.3,Win32,60.35003018,,,,,,,,,,,,,,,,,,,,,,,,,,,,,,,,,45,2.3197,1,0,13,13,24,1,9,×,5,9 × 5,neutral,largerFirst,1.5,1.5,45,,,,,,,,
,,,,,,,,,,,,,,,667,2022-06-02_10h27.10.487,multiplicationStroop,2021.2.3,Win32,60.35003018,,,,,,,,,,,,,,,,,,,,,,,,,,,,,,,,,36,2.7935,1,0,14,14,32,1,6,×,6,6 × 6,neutral,tie,1.5,1.5,36,,,,,,,,
,,,,,,,,,,,,,,,667,2022-06-02_10h27.10.487,multiplicationStroop,2021.2.3,Win32,60.35003018,,,,,,,,,,,,,,,,,,,,,,,,,,,,,,,,,12,1.7001,1,0,15,15,11,1,2,×,6,2 × 6,neutral,smallerFirst,1.5,1.5,12,,,,,,,,
,,,,,,,,,,,,,,,667,2022-06-02_10h27.10.487,multiplicationStroop,2021.2.3,Win32,60.35003018,,,,,,,,,,,,,,,,,,,,,,,,,,,,,,,,,24,4.6861,1,0,16,16,16,1,6,×,4,6 × 4,neutral,largerFirst,1.5,1.5,24,,,,,,,,
,,,,,,,,,,,,,,,667,2022-06-02_10h27.10.487,multiplicationStroop,2021.2.3,Win32,60.35003018,,,,,,,,,,,,,,,,,,,,,,,,,,,,,,,,,28,4.9472,1,0,17,17,3,1,4,×,7,4 × 7,neutral,smallerFirst,1.5,1.5,28,,,,,,,,
,,,,,,,,,,,,,,,667,2022-06-02_10h27.10.487,multiplicationStroop,2021.2.3,Win32,60.35003018,,,,,,,,,,,,,,,,,,,,,,,,,,,,,,,,,10,1.8752,1,0,18,18,18,1,5,×,2,5 × 2,neutral,largerFirst,1.5,1.5,10,,,,,,,,
,,,,,,,,,,,,,,,667,2022-06-02_10h27.10.487,multiplicationStroop,2021.2.3,Win32,60.35003018,,,,,,,,,,,,,,,,,,,,,,,,,,,,,,,,,18,2.1862,1,0,19,19,4,1,2,×,9,2 × 9,neutral,smallerFirst,1.5,1.5,18,,,,,,,,
,,,,,,,,,,,,,,,667,2022-06-02_10h27.10.487,multiplicationStroop,2021.2.3,Win32,60.35003018,,,,,,,,,,,,,,,,,,,,,,,,,,,,,,,,,4,1.7342,1,0,20,20,28,1,2,×,2,2 × 2,neutral,tie,1.5,1.5,4,,,,,,,,
,,,,,,,,,,,,,,,667,2022-06-02_10h27.10.487,multiplicationStroop,2021.2.3,Win32,60.35003018,,,,,,,,,,,,,,,,,,,,,,,,,,,,,,,,,20,1.9673,1,0,21,21,6,1,4,×,5,4 × 5,neutral,smallerFirst,1.5,1.5,20,,,,,,,,
,,,,,,,,,,,,,,,667,2022-06-02_10h27.10.487,multiplicationStroop,2021.2.3,Win32,60.35003018,,,,,,,,,,,,,,,,,,,,,,,,,,,,,,,,,24,3.5042,1,0,22,22,8,1,3,×,8,3 × 8,neutral,smallerFirst,1.5,1.5,24,,,,,,,,
,,,,,,,,,,,,,,,667,2022-06-02_10h27.10.487,multiplicationStroop,2021.2.3,Win32,60.35003018,,,,,,,,,,,,,,,,,,,,,,,,,,,,,,,,,81,2.1507,1,0,23,23,35,1,9,×,9,9 × 9,neutral,tie,1.5,1.5,81,,,,,,,,
,,,,,,,,,,,,,,,667,2022-06-02_10h27.10.487,multiplicationStroop,2021.2.3,Win32,60.35003018,,,,,,,,,,,,,,,,,,,,,,,,,,,,,,,,,32,4.7372,1,0,24,24,9,1,4,×,8,4 × 8,neutral,smallerFirst,1.5,1.5,32,,,,,,,,
,,,,,,,,,,,,,,,667,2022-06-02_10h27.10.487,multiplicationStroop,2021.2.3,Win32,60.35003018,,,,,,,,,,,,,,,,,,,,,,,,,,,,,,,,,6,1.9765,1,0,25,25,12,1,2,×,3,2 × 3,neutral,smallerFirst,1.5,1.5,6,,,,,,,,
,,,,,,,,,,,,,,,667,2022-06-02_10h27.10.487,multiplicationStroop,2021.2.3,Win32,60.35003018,,,,,,,,,,,,,,,,,,,,,,,,,,,,,,,,,49,2.685,1,0,26,26,33,1,7,×,7,7 × 7,neutral,tie,1.5,1.5,49,,,,,,,,
,,,,,,,,,,,,,,,667,2022-06-02_10h27.10.487,multiplicationStroop,2021.2.3,Win32,60.35003018,,,,,,,,,,,,,,,,,,,,,,,,,,,,,,,,,36,4.489,1,0,27,27,13,1,4,×,9,4 × 9,neutral,smallerFirst,1.5,1.5,36,,,,,,,,
,,,,,,,,,,,,,,,667,2022-06-02_10h27.10.487,multiplicationStroop,2021.2.3,Win32,60.35003018,,,,,,,,,,,,,,,,,,,,,,,,,,,,,,,,,9,2.0077,1,0,28,28,29,1,3,×,3,3 × 3,neutral,tie,1.5,1.5,9,,,,,,,,
,,,,,,,,,,,,,,,667,2022-06-02_10h27.10.487,multiplicationStroop,2021.2.3,Win32,60.35003018,,,,,,,,,,,,,,,,,,,,,,,,,,,,,,,,,14,1.9028,1,0,29,29,2,1,2,×,7,2 × 7,neutral,smallerFirst,1.5,1.5,14,,,,,,,,
,,,,,,,,,,,,,,,667,2022-06-02_10h27.10.487,multiplicationStroop,2021.2.3,Win32,60.35003018,,,,,,,,,,,,,,,,,,,,,,,,,,,,,,,,,21,1.968,1,0,30,30,22,1,7,×,3,7 × 3,neutral,largerFirst,1.5,1.5,21,,,,,,,,
,,,,,,,,,,,,,,,667,2022-06-02_10h27.10.487,multiplicationStroop,2021.2.3,Win32,60.35003018,,,,,,,,,,,,,,,,,,,,,,,,,,,,,,,,,35,2.5687,1,0,31,31,15,1,7,×,5,7 × 5,neutral,largerFirst,1.5,1.5,35,,,,,,,,
,,,,,,,,,,,,,,,667,2022-06-02_10h27.10.487,multiplicationStroop,2021.2.3,Win32,60.35003018,,,,,,,,,,,,,,,,,,,,,,,,,,,,,,,,,15,2.2011,1,0,32,32,19,1,5,×,3,5 × 3,neutral,largerFirst,1.5,1.5,15,,,,,,,,
,,,,,,,,,,,,,,,667,2022-06-02_10h27.10.487,multiplicationStroop,2021.2.3,Win32,60.35003018,,,,,,,,,,,,,,,,,,,,,,,,,,,,,,,,,27,3.2599,1,0,33,33,0,1,3,×,9,3 × 9,neutral,smallerFirst,1.5,1.5,27,,,,,,,,
,,,,,,,,,,,,,,,667,2022-06-02_10h27.10.487,multiplicationStroop,2021.2.3,Win32,60.35003018,,,,,,,,,,,,,,,,,,,,,,,,,,,,,,,,,30,2.7195,1,0,34,34,5,1,5,×,6,5 × 6,neutral,smallerFirst,1.5,1.5,30,,,,,,,,
,,,,,,,,,,,,,,,667,2022-06-02_10h27.10.487,multiplicationStroop,2021.2.3,Win32,60.35003018,,,,,,,,,,,,,,,,,,,,,,,,,,,,,,,,,48,4.8634,1,0,35,35,1,1,6,×,8,6 × 8,neutral,smallerFirst,1.5,1.5,48,,,,,,,,
,,,,,,,,,,,,,,,667,2022-06-02_10h27.10.487,multiplicationStroop,2021.2.3,Win32,60.35003018,,,,,,,,,,,,,,,,,,,,,,,,,,,,,,,,,,,,,,,,,,,,,,,,,,0,5,5,0,1,stimulusFile/mult_blk1.xlsx,,
,,,,,,,,,,,,,,,667,2022-06-02_10h27.10.487,multiplicationStroop,2021.2.3,Win32,60.35003018,,,,,,,,,,,,,,,,,,,,,,,,,,,,,,,,,,,,,,,,,,,,,,,,,,,,,,,,space,12.9761