welcomeKey_resp.keys,welcomeKey_resp.rt,X Scale,Y Scale,rt_resp_4.keys,rt_resp_4.corr,rt_resp_4.rt,speedtest_2.thisRepN,speedtest_2.thisTrialN,speedtest_2.thisN,speedtest_2.thisIndex,speedtest_2.ran,numberSc,posX,positionLayout,participant,date,expName,psychopyVersion,OS,frameRate,ct_instrresp.keys,ct_instrresp.rt,key_resp_2.keys,key_resp_2.rt,ct_keyResp.keys,ct_keyResp.corr,ct_keyResp.rt,trials.thisRepN,trials.thisTrialN,trials.thisN,trials.thisIndex,trials.ran,leftNo,rightNo,displayProblem,numDistance,leftNo_size,rightNo_size,Dims,keyAnswer,TS_Loop.thisRepN,TS_Loop.thisTrialN,TS_Loop.thisN,TS_Loop.thisIndex,TS_Loop.ran,Condition,ActionInst,instrImage,mltptaskInst_resp.keys,mltptaskInst_resp.rt,continue_resp_2.keys,continue_resp_2.rt,multp_Answer,multi_RT,multiplyCorr,LoopingMultiply.thisRepN,LoopingMultiply.thisTrialN,LoopingMultiply.thisN,LoopingMultiply.thisIndex,LoopingMultiply.ran,factor1,multiplySign,factor2,multliplyProblem,physicalSize,orderOperand,sizeF1,sizeF2,mult_answer,trials_stroop.thisRepN,trials_stroop.thisTrialN,trials_stroop.thisN,trials_stroop.thisIndex,trials_stroop.ran,multiplicationFile,esckey_resp_2.keys,esckey_resp_2.rt
y,4.7511,61.1,52.9,left,1,0.7882,0,0,0,1,1,2,-200,left,674,2022-04-18_21h21.44.856,multiplicationStroop,2021.2.3,Win32,60.25185274,,,,,,,,,,,,,,,,,,,,,,,,,,,,,,,,,,,,,,,,,,,,,,,,,,,,,,,,,
,,,,right,1,0.7144,0,1,1,9,1,2,200,right,674,2022-04-18_21h21.44.856,multiplicationStroop,2021.2.3,Win32,60.25185274,,,,,,,,,,,,,,,,,,,,,,,,,,,,,,,,,,,,,,,,,,,,,,,,,,,,,,,,,
,,,,left,1,0.386,0,2,2,6,1,8,-200,left,674,2022-04-18_21h21.44.856,multiplicationStroop,2021.2.3,Win32,60.25185274,,,,,,,,,,,,,,,,,,,,,,,,,,,,,,,,,,,,,,,,,,,,,,,,,,,,,,,,,
,,,,right,1,0.3401,0,3,3,13,1,7,200,right,674,2022-04-18_21h21.44.856,multiplicationStroop,2021.2.3,Win32,60.25185274,,,,,,,,,,,,,,,,,,,,,,,,,,,,,,,,,,,,,,,,,,,,,,,,,,,,,,,,,
,,,,left,0,0.3707,0,4,4,15,1,9,200,right,674,2022-04-18_21h21.44.856,multiplicationStroop,2021.2.3,Win32,60.25185274,,,,,,,,,,,,,,,,,,,,,,,,,,,,,,,,,,,,,,,,,,,,,,,,,,,,,,,,,
,,,,left,1,0.7091,0,5,5,0,1,1,-200,left,674,2022-04-18_21h21.44.856,multiplicationStroop,2021.2.3,Win32,60.25185274,,,,,,,,,,,,,,,,,,,,,,,,,,,,,,,,,,,,,,,,,,,,,,,,,,,,,,,,,
,,,,right,1,0.5483,0,6,6,8,1,1,200,right,674,2022-04-18_21h21.44.856,multiplicationStroop,2021.2.3,Win32,60.25185274,,,,,,,,,,,,,,,,,,,,,,,,,,,,,,,,,,,,,,,,,,,,,,,,,,,,,,,,,
,,,,left,1,0.4967,0,7,7,7,1,9,-200,left,674,2022-04-18_21h21.44.856,multiplicationStroop,2021.2.3,Win32,60.25185274,,,,,,,,,,,,,,,,,,,,,,,,,,,,,,,,,,,,,,,,,,,,,,,,,,,,,,,,,
,,,,right,1,0.4789,0,8,8,11,1,4,200,right,674,2022-04-18_21h21.44.856,multiplicationStroop,2021.2.3,Win32,60.25185274,,,,,,,,,,,,,,,,,,,,,,,,,,,,,,,,,,,,,,,,,,,,,,,,,,,,,,,,,
,,,,left,1,0.445,0,9,9,2,1,3,-200,left,674,2022-04-18_21h21.44.856,multiplicationStroop,2021.2.3,Win32,60.25185274,,,,,,,,,,,,,,,,,,,,,,,,,,,,,,,,,,,,,,,,,,,,,,,,,,,,,,,,,
,,,,left,1,0.6245,0,10,10,3,1,4,-200,left,674,2022-04-18_21h21.44.856,multiplicationStroop,2021.2.3,Win32,60.25185274,,,,,,,,,,,,,,,,,,,,,,,,,,,,,,,,,,,,,,,,,,,,,,,,,,,,,,,,,
,,,,right,1,0.431,0,11,11,12,1,6,200,right,674,2022-04-18_21h21.44.856,multiplicationStroop,2021.2.3,Win32,60.25185274,,,,,,,,,,,,,,,,,,,,,,,,,,,,,,,,,,,,,,,,,,,,,,,,,,,,,,,,,
,,,,right,1,0.4327,0,12,12,14,1,8,200,right,674,2022-04-18_21h21.44.856,multiplicationStroop,2021.2.3,Win32,60.25185274,,,,,,,,,,,,,,,,,,,,,,,,,,,,,,,,,,,,,,,,,,,,,,,,,,,,,,,,,
,,,,right,1,0.4019,0,13,13,10,1,3,200,right,674,2022-04-18_21h21.44.856,multiplicationStroop,2021.2.3,Win32,60.25185274,,,,,,,,,,,,,,,,,,,,,,,,,,,,,,,,,,,,,,,,,,,,,,,,,,,,,,,,,
,,,,left,1,0.746,0,14,14,4,1,6,-200,left,674,2022-04-18_21h21.44.856,multiplicationStroop,2021.2.3,Win32,60.25185274,,,,,,,,,,,,,,,,,,,,,,,,,,,,,,,,,,,,,,,,,,,,,,,,,,,,,,,,,
,,,,left,1,0.4963,0,15,15,5,1,7,-200,left,674,2022-04-18_21h21.44.856,multiplicationStroop,2021.2.3,Win32,60.25185274,,,,,,,,,,,,,,,,,,,,,,,,,,,,,,,,,,,,,,,,,,,,,,,,,,,,,,,,,
,,,,right,1,0.5127,1,0,16,14,1,8,200,right,674,2022-04-18_21h21.44.856,multiplicationStroop,2021.2.3,Win32,60.25185274,,,,,,,,,,,,,,,,,,,,,,,,,,,,,,,,,,,,,,,,,,,,,,,,,,,,,,,,,
,,,,right,1,0.3544,1,1,17,11,1,4,200,right,674,2022-04-18_21h21.44.856,multiplicationStroop,2021.2.3,Win32,60.25185274,,,,,,,,,,,,,,,,,,,,,,,,,,,,,,,,,,,,,,,,,,,,,,,,,,,,,,,,,
,,,,left,1,0.5032,1,2,18,2,1,3,-200,left,674,2022-04-18_21h21.44.856,multiplicationStroop,2021.2.3,Win32,60.25185274,,,,,,,,,,,,,,,,,,,,,,,,,,,,,,,,,,,,,,,,,,,,,,,,,,,,,,,,,
,,,,left,1,0.3869,1,3,19,5,1,7,-200,left,674,2022-04-18_21h21.44.856,multiplicationStroop,2021.2.3,Win32,60.25185274,,,,,,,,,,,,,,,,,,,,,,,,,,,,,,,,,,,,,,,,,,,,,,,,,,,,,,,,,
,,,,left,1,0.417,1,4,20,3,1,4,-200,left,674,2022-04-18_21h21.44.856,multiplicationStroop,2021.2.3,Win32,60.25185274,,,,,,,,,,,,,,,,,,,,,,,,,,,,,,,,,,,,,,,,,,,,,,,,,,,,,,,,,
,,,,left,1,0.5147,1,5,21,7,1,9,-200,left,674,2022-04-18_21h21.44.856,multiplicationStroop,2021.2.3,Win32,60.25185274,,,,,,,,,,,,,,,,,,,,,,,,,,,,,,,,,,,,,,,,,,,,,,,,,,,,,,,,,
,,,,right,1,0.741,1,6,22,15,1,9,200,right,674,2022-04-18_21h21.44.856,multiplicationStroop,2021.2.3,Win32,60.25185274,,,,,,,,,,,,,,,,,,,,,,,,,,,,,,,,,,,,,,,,,,,,,,,,,,,,,,,,,
,,,,left,1,0.8666,1,7,23,0,1,1,-200,left,674,2022-04-18_21h21.44.856,multiplicationStroop,2021.2.3,Win32,60.25185274,,,,,,,,,,,,,,,,,,,,,,,,,,,,,,,,,,,,,,,,,,,,,,,,,,,,,,,,,
,,,,right,1,0.5693,1,8,24,13,1,7,200,right,674,2022-04-18_21h21.44.856,multiplicationStroop,2021.2.3,Win32,60.25185274,,,,,,,,,,,,,,,,,,,,,,,,,,,,,,,,,,,,,,,,,,,,,,,,,,,,,,,,,
,,,,right,1,0.575,1,9,25,12,1,6,200,right,674,2022-04-18_21h21.44.856,multiplicationStroop,2021.2.3,Win32,60.25185274,,,,,,,,,,,,,,,,,,,,,,,,,,,,,,,,,,,,,,,,,,,,,,,,,,,,,,,,,
,,,,left,1,1.277,1,10,26,4,1,6,-200,left,674,2022-04-18_21h21.44.856,multiplicationStroop,2021.2.3,Win32,60.25185274,,,,,,,,,,,,,,,,,,,,,,,,,,,,,,,,,,,,,,,,,,,,,,,,,,,,,,,,,
,,,,left,1,0.5548,1,11,27,6,1,8,-200,left,674,2022-04-18_21h21.44.856,multiplicationStroop,2021.2.3,Win32,60.25185274,,,,,,,,,,,,,,,,,,,,,,,,,,,,,,,,,,,,,,,,,,,,,,,,,,,,,,,,,
,,,,right,1,0.5028,1,12,28,8,1,1,200,right,674,2022-04-18_21h21.44.856,multiplicationStroop,2021.2.3,Win32,60.25185274,,,,,,,,,,,,,,,,,,,,,,,,,,,,,,,,,,,,,,,,,,,,,,,,,,,,,,,,,
,,,,right,1,0.6626,1,13,29,9,1,2,200,right,674,2022-04-18_21h21.44.856,multiplicationStroop,2021.2.3,Win32,60.25185274,,,,,,,,,,,,,,,,,,,,,,,,,,,,,,,,,,,,,,,,,,,,,,,,,,,,,,,,,
,,,,right,1,0.504,1,14,30,10,1,3,200,right,674,2022-04-18_21h21.44.856,multiplicationStroop,2021.2.3,Win32,60.25185274,,,,,,,,,,,,,,,,,,,,,,,,,,,,,,,,,,,,,,,,,,,,,,,,,,,,,,,,,
,,,,left,1,0.5026,1,15,31,1,1,2,-200,left,674,2022-04-18_21h21.44.856,multiplicationStroop,2021.2.3,Win32,60.25185274,,,,,,,,,,,,,,,,,,,,,,,,,,,,,,,,,,,,,,,,,,,,,,,,,,,,,,,,,
,,,,right,1,0.6264,2,0,32,12,1,6,200,right,674,2022-04-18_21h21.44.856,multiplicationStroop,2021.2.3,Win32,60.25185274,,,,,,,,,,,,,,,,,,,,,,,,,,,,,,,,,,,,,,,,,,,,,,,,,,,,,,,,,
,,,,left,1,0.5384,2,1,33,0,1,1,-200,left,674,2022-04-18_21h21.44.856,multiplicationStroop,2021.2.3,Win32,60.25185274,,,,,,,,,,,,,,,,,,,,,,,,,,,,,,,,,,,,,,,,,,,,,,,,,,,,,,,,,
,,,,left,1,0.5137,2,2,34,1,1,2,-200,left,674,2022-04-18_21h21.44.856,multiplicationStroop,2021.2.3,Win32,60.25185274,,,,,,,,,,,,,,,,,,,,,,,,,,,,,,,,,,,,,,,,,,,,,,,,,,,,,,,,,
,,,,right,1,0.4969,2,3,35,10,1,3,200,right,674,2022-04-18_21h21.44.856,multiplicationStroop,2021.2.3,Win32,60.25185274,,,,,,,,,,,,,,,,,,,,,,,,,,,,,,,,,,,,,,,,,,,,,,,,,,,,,,,,,
,,,,left,1,0.4387,2,4,36,5,1,7,-200,left,674,2022-04-18_21h21.44.856,multiplicationStroop,2021.2.3,Win32,60.25185274,,,,,,,,,,,,,,,,,,,,,,,,,,,,,,,,,,,,,,,,,,,,,,,,,,,,,,,,,
,,,,right,1,0.4301,2,5,37,15,1,9,200,right,674,2022-04-18_21h21.44.856,multiplicationStroop,2021.2.3,Win32,60.25185274,,,,,,,,,,,,,,,,,,,,,,,,,,,,,,,,,,,,,,,,,,,,,,,,,,,,,,,,,
,,,,left,1,0.3746,2,6,38,4,1,6,-200,left,674,2022-04-18_21h21.44.856,multiplicationStroop,2021.2.3,Win32,60.25185274,,,,,,,,,,,,,,,,,,,,,,,,,,,,,,,,,,,,,,,,,,,,,,,,,,,,,,,,,
,,,,right,1,0.4152,2,7,39,14,1,8,200,right,674,2022-04-18_21h21.44.856,multiplicationStroop,2021.2.3,Win32,60.25185274,,,,,,,,,,,,,,,,,,,,,,,,,,,,,,,,,,,,,,,,,,,,,,,,,,,,,,,,,
,,,,left,1,0.3339,2,8,40,3,1,4,-200,left,674,2022-04-18_21h21.44.856,multiplicationStroop,2021.2.3,Win32,60.25185274,,,,,,,,,,,,,,,,,,,,,,,,,,,,,,,,,,,,,,,,,,,,,,,,,,,,,,,,,
,,,,left,1,0.6796,2,9,41,6,1,8,-200,left,674,2022-04-18_21h21.44.856,multiplicationStroop,2021.2.3,Win32,60.25185274,,,,,,,,,,,,,,,,,,,,,,,,,,,,,,,,,,,,,,,,,,,,,,,,,,,,,,,,,
,,,,right,1,0.4738,2,10,42,13,1,7,200,right,674,2022-04-18_21h21.44.856,multiplicationStroop,2021.2.3,Win32,60.25185274,,,,,,,,,,,,,,,,,,,,,,,,,,,,,,,,,,,,,,,,,,,,,,,,,,,,,,,,,
,,,,right,1,0.5132,2,11,43,8,1,1,200,right,674,2022-04-18_21h21.44.856,multiplicationStroop,2021.2.3,Win32,60.25185274,,,,,,,,,,,,,,,,,,,,,,,,,,,,,,,,,,,,,,,,,,,,,,,,,,,,,,,,,
,,,,left,1,0.4301,2,12,44,2,1,3,-200,left,674,2022-04-18_21h21.44.856,multiplicationStroop,2021.2.3,Win32,60.25185274,,,,,,,,,,,,,,,,,,,,,,,,,,,,,,,,,,,,,,,,,,,,,,,,,,,,,,,,,
,,,,right,1,0.4325,2,13,45,11,1,4,200,right,674,2022-04-18_21h21.44.856,multiplicationStroop,2021.2.3,Win32,60.25185274,,,,,,,,,,,,,,,,,,,,,,,,,,,,,,,,,,,,,,,,,,,,,,,,,,,,,,,,,
,,,,left,1,0.3831,2,14,46,7,1,9,-200,left,674,2022-04-18_21h21.44.856,multiplicationStroop,2021.2.3,Win32,60.25185274,,,,,,,,,,,,,,,,,,,,,,,,,,,,,,,,,,,,,,,,,,,,,,,,,,,,,,,,,
,,,,right,1,0.3888,2,15,47,9,1,2,200,right,674,2022-04-18_21h21.44.856,multiplicationStroop,2021.2.3,Win32,60.25185274,,,,,,,,,,,,,,,,,,,,,,,,,,,,,,,,,,,,,,,,,,,,,,,,,,,,,,,,,
,,,,right,1,0.7195,3,0,48,12,1,6,200,right,674,2022-04-18_21h21.44.856,multiplicationStroop,2021.2.3,Win32,60.25185274,,,,,,,,,,,,,,,,,,,,,,,,,,,,,,,,,,,,,,,,,,,,,,,,,,,,,,,,,
,,,,left,1,0.4186,3,1,49,4,1,6,-200,left,674,2022-04-18_21h21.44.856,multiplicationStroop,2021.2.3,Win32,60.25185274,,,,,,,,,,,,,,,,,,,,,,,,,,,,,,,,,,,,,,,,,,,,,,,,,,,,,,,,,
,,,,left,1,0.4494,3,2,50,3,1,4,-200,left,674,2022-04-18_21h21.44.856,multiplicationStroop,2021.2.3,Win32,60.25185274,,,,,,,,,,,,,,,,,,,,,,,,,,,,,,,,,,,,,,,,,,,,,,,,,,,,,,,,,
,,,,right,1,0.4531,3,3,51,14,1,8,200,right,674,2022-04-18_21h21.44.856,multiplicationStroop,2021.2.3,Win32,60.25185274,,,,,,,,,,,,,,,,,,,,,,,,,,,,,,,,,,,,,,,,,,,,,,,,,,,,,,,,,
,,,,right,1,0.4852,3,4,52,13,1,7,200,right,674,2022-04-18_21h21.44.856,multiplicationStroop,2021.2.3,Win32,60.25185274,,,,,,,,,,,,,,,,,,,,,,,,,,,,,,,,,,,,,,,,,,,,,,,,,,,,,,,,,
,,,,left,0,0.5563,3,5,53,9,1,2,200,right,674,2022-04-18_21h21.44.856,multiplicationStroop,2021.2.3,Win32,60.25185274,,,,,,,,,,,,,,,,,,,,,,,,,,,,,,,,,,,,,,,,,,,,,,,,,,,,,,,,,
,,,,left,1,0.9142,3,6,54,6,1,8,-200,left,674,2022-04-18_21h21.44.856,multiplicationStroop,2021.2.3,Win32,60.25185274,,,,,,,,,,,,,,,,,,,,,,,,,,,,,,,,,,,,,,,,,,,,,,,,,,,,,,,,,
,,,,left,1,0.4565,3,7,55,5,1,7,-200,left,674,2022-04-18_21h21.44.856,multiplicationStroop,2021.2.3,Win32,60.25185274,,,,,,,,,,,,,,,,,,,,,,,,,,,,,,,,,,,,,,,,,,,,,,,,,,,,,,,,,
,,,,left,1,0.4499,3,8,56,0,1,1,-200,left,674,2022-04-18_21h21.44.856,multiplicationStroop,2021.2.3,Win32,60.25185274,,,,,,,,,,,,,,,,,,,,,,,,,,,,,,,,,,,,,,,,,,,,,,,,,,,,,,,,,
,,,,right,1,0.493,3,9,57,8,1,1,200,right,674,2022-04-18_21h21.44.856,multiplicationStroop,2021.2.3,Win32,60.25185274,,,,,,,,,,,,,,,,,,,,,,,,,,,,,,,,,,,,,,,,,,,,,,,,,,,,,,,,,
,,,,right,1,0.6998,3,10,58,10,1,3,200,right,674,2022-04-18_21h21.44.856,multiplicationStroop,2021.2.3,Win32,60.25185274,,,,,,,,,,,,,,,,,,,,,,,,,,,,,,,,,,,,,,,,,,,,,,,,,,,,,,,,,
,,,,left,1,0.6623,3,11,59,2,1,3,-200,left,674,2022-04-18_21h21.44.856,multiplicationStroop,2021.2.3,Win32,60.25185274,,,,,,,,,,,,,,,,,,,,,,,,,,,,,,,,,,,,,,,,,,,,,,,,,,,,,,,,,
,,,,left,1,0.4348,3,12,60,7,1,9,-200,left,674,2022-04-18_21h21.44.856,multiplicationStroop,2021.2.3,Win32,60.25185274,,,,,,,,,,,,,,,,,,,,,,,,,,,,,,,,,,,,,,,,,,,,,,,,,,,,,,,,,
,,,,right,1,0.5296,3,13,61,11,1,4,200,right,674,2022-04-18_21h21.44.856,multiplicationStroop,2021.2.3,Win32,60.25185274,,,,,,,,,,,,,,,,,,,,,,,,,,,,,,,,,,,,,,,,,,,,,,,,,,,,,,,,,
,,,,right,1,0.3633,3,14,62,15,1,9,200,right,674,2022-04-18_21h21.44.856,multiplicationStroop,2021.2.3,Win32,60.25185274,,,,,,,,,,,,,,,,,,,,,,,,,,,,,,,,,,,,,,,,,,,,,,,,,,,,,,,,,
,,,,left,1,0.5542,3,15,63,1,1,2,-200,left,674,2022-04-18_21h21.44.856,multiplicationStroop,2021.2.3,Win32,60.25185274,,,,,,,,,,,,,,,,,,,,,,,,,,,,,,,,,,,,,,,,,,,,,,,,,,,,,,,,,
,,,,,,,,,,,,,,,674,2022-04-18_21h21.44.856,multiplicationStroop,2021.2.3,Win32,60.25185274,space,5.2606,space,3.8064,right,1,0.9189,0,0,0,3,1,8,9,8 | 9,1,1.4111,1.9756,congruent,right,,,,,,stimulusFile/magnitude.xlsx,,,,,,,,,,,,,,,,,,,,,,,,,,,,,,,
,,,,,,,,,,,,,,,674,2022-04-18_21h21.44.856,multiplicationStroop,2021.2.3,Win32,60.25185274,,,,,left,1,0.6706,0,1,1,5,1,4,3,4 | 3,1,1.9756,1.4111,congruent,left,,,,,,stimulusFile/magnitude.xlsx,,,,,,,,,,,,,,,,,,,,,,,,,,,,,,,
,,,,,,,,,,,,,,,674,2022-04-18_21h21.44.856,multiplicationStroop,2021.2.3,Win32,60.25185274,,,,,left,1,0.901,0,2,2,55,1,9,8,9 | 8,1,1.6933,1.6933,neutral,left,,,,,,stimulusFile/magnitude.xlsx,,,,,,,,,,,,,,,,,,,,,,,,,,,,,,,
,,,,,,,,,,,,,,,674,2022-04-18_21h21.44.856,multiplicationStroop,2021.2.3,Win32,60.25185274,,,,,right,1,0.7176,0,3,3,16,1,1,6,1 | 6,5,1.4111,1.9756,congruent,right,,,,,,stimulusFile/magnitude.xlsx,,,,,,,,,,,,,,,,,,,,,,,,,,,,,,,
,,,,,,,,,,,,,,,674,2022-04-18_21h21.44.856,multiplicationStroop,2021.2.3,Win32,60.25185274,,,,,right,0,0.7343,0,4,4,31,1,9,8,9 | 8,1,1.4111,1.9756,incongruent,left,,,,,,stimulusFile/magnitude.xlsx,,,,,,,,,,,,,,,,,,,,,,,,,,,,,,,
,,,,,,,,,,,,,,,674,2022-04-18_21h21.44.856,multiplicationStroop,2021.2.3,Win32,60.25185274,,,,,right,0,1.3431,0,5,5,70,1,8,3,8 | 3,5,1.6933,1.6933,neutral,left,,,,,,stimulusFile/magnitude.xlsx,,,,,,,,,,,,,,,,,,,,,,,,,,,,,,,
,,,,,,,,,,,,,,,674,2022-04-18_21h21.44.856,multiplicationStroop,2021.2.3,Win32,60.25185274,,,,,right,1,0.6173,0,6,6,9,1,2,4,2 | 4,2,1.4111,1.9756,congruent,right,,,,,,stimulusFile/magnitude.xlsx,,,,,,,,,,,,,,,,,,,,,,,,,,,,,,,
,,,,,,,,,,,,,,,674,2022-04-18_21h21.44.856,multiplicationStroop,2021.2.3,Win32,60.25185274,,,,,left,0,0.6833,0,7,7,43,1,4,9,4 | 9,5,1.9756,1.4111,incongruent,right,,,,,,stimulusFile/magnitude.xlsx,,,,,,,,,,,,,,,,,,,,,,,,,,,,,,,
,,,,,,,,,,,,,,,674,2022-04-18_21h21.44.856,multiplicationStroop,2021.2.3,Win32,60.25185274,,,,,left,0,0.5677,0,8,8,26,1,6,7,6 | 7,1,1.9756,1.4111,incongruent,right,,,,,,stimulusFile/magnitude.xlsx,,,,,,,,,,,,,,,,,,,,,,,,,,,,,,,
,,,,,,,,,,,,,,,674,2022-04-18_21h21.44.856,multiplicationStroop,2021.2.3,Win32,60.25185274,,,,,right,1,0.6679,0,9,9,18,1,3,8,3 | 8,5,1.4111,1.9756,congruent,right,,,,,,stimulusFile/magnitude.xlsx,,,,,,,,,,,,,,,,,,,,,,,,,,,,,,,
,,,,,,,,,,,,,,,674,2022-04-18_21h21.44.856,multiplicationStroop,2021.2.3,Win32,60.25185274,,,,,left,1,1.4287,0,10,10,68,1,6,1,6 | 1,5,1.6933,1.6933,neutral,left,,,,,,stimulusFile/magnitude.xlsx,,,,,,,,,,,,,,,,,,,,,,,,,,,,,,,
,,,,,,,,,,,,,,,674,2022-04-18_21h21.44.856,multiplicationStroop,2021.2.3,Win32,60.25185274,,,,,left,1,0.6243,0,11,11,20,1,6,1,6 | 1,5,1.9756,1.4111,congruent,left,,,,,,stimulusFile/magnitude.xlsx,,,,,,,,,,,,,,,,,,,,,,,,,,,,,,,
,,,,,,,,,,,,,,,674,2022-04-18_21h21.44.856,multiplicationStroop,2021.2.3,Win32,60.25185274,,,,,right,1,0.7009,0,12,12,1,1,3,4,3 | 4,1,1.4111,1.9756,congruent,right,,,,,,stimulusFile/magnitude.xlsx,,,,,,,,,,,,,,,,,,,,,,,,,,,,,,,
,,,,,,,,,,,,,,,674,2022-04-18_21h21.44.856,multiplicationStroop,2021.2.3,Win32,60.25185274,,,,,left,0,1.2011,0,13,13,35,1,7,9,7 | 9,2,1.9756,1.4111,incongruent,right,,,,,,stimulusFile/magnitude.xlsx,,,,,,,,,,,,,,,,,,,,,,,,,,,,,,,
,,,,,,,,,,,,,,,674,2022-04-18_21h21.44.856,multiplicationStroop,2021.2.3,Win32,60.25185274,,,,,left,1,0.6015,0,14,14,12,1,3,1,3 | 1,2,1.9756,1.4111,congruent,left,,,,,,stimulusFile/magnitude.xlsx,,,,,,,,,,,,,,,,,,,,,,,,,,,,,,,
,,,,,,,,,,,,,,,674,2022-04-18_21h21.44.856,multiplicationStroop,2021.2.3,Win32,60.25185274,,,,,right,0,1.0004,0,15,15,39,1,9,7,9 | 7,2,1.4111,1.9756,incongruent,left,,,,,,stimulusFile/magnitude.xlsx,,,,,,,,,,,,,,,,,,,,,,,,,,,,,,,
,,,,,,,,,,,,,,,674,2022-04-18_21h21.44.856,multiplicationStroop,2021.2.3,Win32,60.25185274,,,,,left,1,0.5409,0,16,16,14,1,8,6,8 | 6,2,1.9756,1.4111,congruent,left,,,,,,stimulusFile/magnitude.xlsx,,,,,,,,,,,,,,,,,,,,,,,,,,,,,,,
,,,,,,,,,,,,,,,674,2022-04-18_21h21.44.856,multiplicationStroop,2021.2.3,Win32,60.25185274,,,,,right,0,0.4735,0,17,17,54,1,7,6,7 | 6,1,1.6933,1.6933,neutral,left,,,,,,stimulusFile/magnitude.xlsx,,,,,,,,,,,,,,,,,,,,,,,,,,,,,,,
,,,,,,,,,,,,,,,674,2022-04-18_21h21.44.856,multiplicationStroop,2021.2.3,Win32,60.25185274,,,,,left,0,2.4204,0,18,18,50,1,6,7,6 | 7,1,1.6933,1.6933,neutral,right,,,,,,stimulusFile/magnitude.xlsx,,,,,,,,,,,,,,,,,,,,,,,,,,,,,,,
,,,,,,,,,,,,,,,674,2022-04-18_21h21.44.856,multiplicationStroop,2021.2.3,Win32,60.25185274,,,,,left,1,4.0836,0,19,19,69,1,7,2,7 | 2,5,1.6933,1.6933,neutral,left,,,,,,stimulusFile/magnitude.xlsx,,,,,,,,,,,,,,,,,,,,,,,,,,,,,,,
,,,,,,,,,,,,,,,674,2022-04-18_21h21.44.856,multiplicationStroop,2021.2.3,Win32,60.25185274,,,,,left,1,0.8094,0,20,20,23,1,9,4,9 | 4,5,1.9756,1.4111,congruent,left,,,,,,stimulusFile/magnitude.xlsx,,,,,,,,,,,,,,,,,,,,,,,,,,,,,,,
,,,,,,,,,,,,,,,674,2022-04-18_21h21.44.856,multiplicationStroop,2021.2.3,Win32,60.25185274,,,,,right,1,1.2675,0,21,21,66,1,3,8,3 | 8,5,1.6933,1.6933,neutral,right,,,,,,stimulusFile/magnitude.xlsx,,,,,,,,,,,,,,,,,,,,,,,,,,,,,,,
,,,,,,,,,,,,,,,674,2022-04-18_21h21.44.856,multiplicationStroop,2021.2.3,Win32,60.25185274,,,,,left,1,0.6677,0,22,22,13,1,4,2,4 | 2,2,1.9756,1.4111,congruent,left,,,,,,stimulusFile/magnitude.xlsx,,,,,,,,,,,,,,,,,,,,,,,,,,,,,,,
,,,,,,,,,,,,,,,674,2022-04-18_21h21.44.856,multiplicationStroop,2021.2.3,Win32,60.25185274,,,,,left,1,0.6218,0,23,23,6,1,7,6,7 | 6,1,1.9756,1.4111,congruent,left,,,,,,stimulusFile/magnitude.xlsx,,,,,,,,,,,,,,,,,,,,,,,,,,,,,,,
,,,,,,,,,,,,,,,674,2022-04-18_21h21.44.856,multiplicationStroop,2021.2.3,Win32,60.25185274,,,,,left,1,0.6273,0,24,24,4,1,2,1,2 | 1,1,1.9756,1.4111,congruent,left,,,,,,stimulusFile/magnitude.xlsx,,,,,,,,,,,,,,,,,,,,,,,,,,,,,,,
,,,,,,,,,,,,,,,674,2022-04-18_21h21.44.856,multiplicationStroop,2021.2.3,Win32,60.25185274,,,,,left,0,0.5629,0,25,25,40,1,1,6,1 | 6,5,1.9756,1.4111,incongruent,right,,,,,,stimulusFile/magnitude.xlsx,,,,,,,,,,,,,,,,,,,,,,,,,,,,,,,
,,,,,,,,,,,,,,,674,2022-04-18_21h21.44.856,multiplicationStroop,2021.2.3,Win32,60.25185274,,,,,left,0,0.8176,0,26,26,41,1,2,7,2 | 7,5,1.9756,1.4111,incongruent,right,,,,,,stimulusFile/magnitude.xlsx,,,,,,,,,,,,,,,,,,,,,,,,,,,,,,,
,,,,,,,,,,,,,,,674,2022-04-18_21h21.44.856,multiplicationStroop,2021.2.3,Win32,60.25185274,,,,,right,1,0.5844,0,27,27,8,1,1,3,1 | 3,2,1.4111,1.9756,congruent,right,,,,,,stimulusFile/magnitude.xlsx,,,,,,,,,,,,,,,,,,,,,,,,,,,,,,,
,,,,,,,,,,,,,,,674,2022-04-18_21h21.44.856,multiplicationStroop,2021.2.3,Win32,60.25185274,,,,,right,0,0.5294,0,28,28,47,1,9,4,9 | 4,5,1.4111,1.9756,incongruent,left,,,,,,stimulusFile/magnitude.xlsx,,,,,,,,,,,,,,,,,,,,,,,,,,,,,,,
,,,,,,,,,,,,,,,674,2022-04-18_21h21.44.856,multiplicationStroop,2021.2.3,Win32,60.25185274,,,,,left,0,0.7343,0,29,29,27,1,8,9,8 | 9,1,1.9756,1.4111,incongruent,right,,,,,,stimulusFile/magnitude.xlsx,,,,,,,,,,,,,,,,,,,,,,,,,,,,,,,
,,,,,,,,,,,,,,,674,2022-04-18_21h21.44.856,multiplicationStroop,2021.2.3,Win32,60.25185274,,,,,right,0,1.1883,0,30,30,61,1,4,2,4 | 2,2,1.6933,1.6933,neutral,left,,,,,,stimulusFile/magnitude.xlsx,,,,,,,,,,,,,,,,,,,,,,,,,,,,,,,
,,,,,,,,,,,,,,,674,2022-04-18_21h21.44.856,multiplicationStroop,2021.2.3,Win32,60.25185274,,,,,right,1,0.7172,0,31,31,0,1,1,2,1 | 2,1,1.4111,1.9756,congruent,right,,,,,,stimulusFile/magnitude.xlsx,,,,,,,,,,,,,,,,,,,,,,,,,,,,,,,
,,,,,,,,,,,,,,,674,2022-04-18_21h21.44.856,multiplicationStroop,2021.2.3,Win32,60.25185274,,,,,left,0,0.6515,0,32,32,42,1,3,8,3 | 8,5,1.9756,1.4111,incongruent,right,,,,,,stimulusFile/magnitude.xlsx,,,,,,,,,,,,,,,,,,,,,,,,,,,,,,,
,,,,,,,,,,,,,,,674,2022-04-18_21h21.44.856,multiplicationStroop,2021.2.3,Win32,60.25185274,,,,,left,0,1.405,0,33,33,57,1,2,4,2 | 4,2,1.6933,1.6933,neutral,right,,,,,,stimulusFile/magnitude.xlsx,,,,,,,,,,,,,,,,,,,,,,,,,,,,,,,
,,,,,,,,,,,,,,,674,2022-04-18_21h21.44.856,multiplicationStroop,2021.2.3,Win32,60.25185274,,,,,right,1,0.8921,0,34,34,51,1,8,9,8 | 9,1,1.6933,1.6933,neutral,right,,,,,,stimulusFile/magnitude.xlsx,,,,,,,,,,,,,,,,,,,,,,,,,,,,,,,
,,,,,,,,,,,,,,,674,2022-04-18_21h21.44.856,multiplicationStroop,2021.2.3,Win32,60.25185274,,,,,right,1,0.8414,0,35,35,11,1,7,9,7 | 9,2,1.4111,1.9756,congruent,right,,,,,,stimulusFile/magnitude.xlsx,,,,,,,,,,,,,,,,,,,,,,,,,,,,,,,
,,,,,,,,,,,,,,,674,2022-04-18_21h21.44.856,multiplicationStroop,2021.2.3,Win32,60.25185274,,,,,right,0,0.8551,0,36,36,28,1,2,1,2 | 1,1,1.4111,1.9756,incongruent,left,,,,,,stimulusFile/magnitude.xlsx,,,,,,,,,,,,,,,,,,,,,,,,,,,,,,,
,,,,,,,,,,,,,,,674,2022-04-18_21h21.44.856,multiplicationStroop,2021.2.3,Win32,60.25185274,,,,,left,0,0.7017,0,37,37,24,1,1,2,1 | 2,1,1.9756,1.4111,incongruent,right,,,,,,stimulusFile/magnitude.xlsx,,,,,,,,,,,,,,,,,,,,,,,,,,,,,,,
,,,,,,,,,,,,,,,674,2022-04-18_21h21.44.856,multiplicationStroop,2021.2.3,Win32,60.25185274,,,,,left,0,0.769,0,38,38,58,1,6,8,6 | 8,2,1.6933,1.6933,neutral,right,,,,,,stimulusFile/magnitude.xlsx,,,,,,,,,,,,,,,,,,,,,,,,,,,,,,,
,,,,,,,,,,,,,,,674,2022-04-18_21h21.44.856,multiplicationStroop,2021.2.3,Win32,60.25185274,,,,,left,1,2.0553,0,39,39,60,1,3,1,3 | 1,2,1.6933,1.6933,neutral,left,,,,,,stimulusFile/magnitude.xlsx,,,,,,,,,,,,,,,,,,,,,,,,,,,,,,,
,,,,,,,,,,,,,,,674,2022-04-18_21h21.44.856,multiplicationStroop,2021.2.3,Win32,60.25185274,,,,,left,0,0.9283,0,40,40,25,1,3,4,3 | 4,1,1.9756,1.4111,incongruent,right,,,,,,stimulusFile/magnitude.xlsx,,,,,,,,,,,,,,,,,,,,,,,,,,,,,,,
,,,,,,,,,,,,,,,674,2022-04-18_21h21.44.856,multiplicationStroop,2021.2.3,Win32,60.25185274,,,,,right,1,0.5178,0,41,41,17,1,2,7,2 | 7,5,1.4111,1.9756,congruent,right,,,,,,stimulusFile/magnitude.xlsx,,,,,,,,,,,,,,,,,,,,,,,,,,,,,,,
,,,,,,,,,,,,,,,674,2022-04-18_21h21.44.856,multiplicationStroop,2021.2.3,Win32,60.25185274,,,,,right,1,0.5584,0,42,42,19,1,4,9,4 | 9,5,1.4111,1.9756,congruent,right,,,,,,stimulusFile/magnitude.xlsx,,,,,,,,,,,,,,,,,,,,,,,,,,,,,,,
,,,,,,,,,,,,,,,674,2022-04-18_21h21.44.856,multiplicationStroop,2021.2.3,Win32,60.25185274,,,,,right,0,0.5604,0,43,43,44,1,6,1,6 | 1,5,1.4111,1.9756,incongruent,left,,,,,,stimulusFile/magnitude.xlsx,,,,,,,,,,,,,,,,,,,,,,,,,,,,,,,
,,,,,,,,,,,,,,,674,2022-04-18_21h21.44.856,multiplicationStroop,2021.2.3,Win32,60.25185274,,,,,left,0,0.7123,0,44,44,56,1,1,3,1 | 3,2,1.6933,1.6933,neutral,right,,,,,,stimulusFile/magnitude.xlsx,,,,,,,,,,,,,,,,,,,,,,,,,,,,,,,
,,,,,,,,,,,,,,,674,2022-04-18_21h21.44.856,multiplicationStroop,2021.2.3,Win32,60.25185274,,,,,right,0,0.584,0,45,45,30,1,7,6,7 | 6,1,1.4111,1.9756,incongruent,left,,,,,,stimulusFile/magnitude.xlsx,,,,,,,,,,,,,,,,,,,,,,,,,,,,,,,
,,,,,,,,,,,,,,,674,2022-04-18_21h21.44.856,multiplicationStroop,2021.2.3,Win32,60.25185274,,,,,right,1,0.5932,0,46,46,2,1,6,7,6 | 7,1,1.4111,1.9756,congruent,right,,,,,,stimulusFile/magnitude.xlsx,,,,,,,,,,,,,,,,,,,,,,,,,,,,,,,
,,,,,,,,,,,,,,,674,2022-04-18_21h21.44.856,multiplicationStroop,2021.2.3,Win32,60.25185274,,,,,right,1,0.6711,0,47,47,67,1,4,9,4 | 9,5,1.6933,1.6933,neutral,right,,,,,,stimulusFile/magnitude.xlsx,,,,,,,,,,,,,,,,,,,,,,,,,,,,,,,
,,,,,,,,,,,,,,,674,2022-04-18_21h21.44.856,multiplicationStroop,2021.2.3,Win32,60.25185274,,,,,left,1,0.7032,0,48,48,71,1,9,4,9 | 4,5,1.6933,1.6933,neutral,left,,,,,,stimulusFile/magnitude.xlsx,,,,,,,,,,,,,,,,,,,,,,,,,,,,,,,
,,,,,,,,,,,,,,,674,2022-04-18_21h21.44.856,multiplicationStroop,2021.2.3,Win32,60.25185274,,,,,right,0,0.7815,0,49,49,63,1,9,7,9 | 7,2,1.6933,1.6933,neutral,left,,,,,,stimulusFile/magnitude.xlsx,,,,,,,,,,,,,,,,,,,,,,,,,,,,,,,
,,,,,,,,,,,,,,,674,2022-04-18_21h21.44.856,multiplicationStroop,2021.2.3,Win32,60.25185274,,,,,right,0,0.7707,0,50,50,36,1,3,1,3 | 1,2,1.4111,1.9756,incongruent,left,,,,,,stimulusFile/magnitude.xlsx,,,,,,,,,,,,,,,,,,,,,,,,,,,,,,,
,,,,,,,,,,,,,,,674,2022-04-18_21h21.44.856,multiplicationStroop,2021.2.3,Win32,60.25185274,,,,,left,1,0.8516,0,51,51,52,1,2,1,2 | 1,1,1.6933,1.6933,neutral,left,,,,,,stimulusFile/magnitude.xlsx,,,,,,,,,,,,,,,,,,,,,,,,,,,,,,,
,,,,,,,,,,,,,,,674,2022-04-18_21h21.44.856,multiplicationStroop,2021.2.3,Win32,60.25185274,,,,,right,0,0.5883,0,52,52,46,1,8,3,8 | 3,5,1.4111,1.9756,incongruent,left,,,,,,stimulusFile/magnitude.xlsx,,,,,,,,,,,,,,,,,,,,,,,,,,,,,,,
,,,,,,,,,,,,,,,674,2022-04-18_21h21.44.856,multiplicationStroop,2021.2.3,Win32,60.25185274,,,,,right,0,0.6027,0,53,53,38,1,8,6,8 | 6,2,1.4111,1.9756,incongruent,left,,,,,,stimulusFile/magnitude.xlsx,,,,,,,,,,,,,,,,,,,,,,,,,,,,,,,
,,,,,,,,,,,,,,,674,2022-04-18_21h21.44.856,multiplicationStroop,2021.2.3,Win32,60.25185274,,,,,left,0,0.7342,0,54,54,65,1,2,7,2 | 7,5,1.6933,1.6933,neutral,right,,,,,,stimulusFile/magnitude.xlsx,,,,,,,,,,,,,,,,,,,,,,,,,,,,,,,
,,,,,,,,,,,,,,,674,2022-04-18_21h21.44.856,multiplicationStroop,2021.2.3,Win32,60.25185274,,,,,right,1,0.5883,0,55,55,48,1,1,2,1 | 2,1,1.6933,1.6933,neutral,right,,,,,,stimulusFile/magnitude.xlsx,,,,,,,,,,,,,,,,,,,,,,,,,,,,,,,
,,,,,,,,,,,,,,,674,2022-04-18_21h21.44.856,multiplicationStroop,2021.2.3,Win32,60.25185274,,,,,right,0,0.6343,0,56,56,29,1,4,3,4 | 3,1,1.4111,1.9756,incongruent,left,,,,,,stimulusFile/magnitude.xlsx,,,,,,,,,,,,,,,,,,,,,,,,,,,,,,,
,,,,,,,,,,,,,,,674,2022-04-18_21h21.44.856,multiplicationStroop,2021.2.3,Win32,60.25185274,,,,,right,1,1.434,0,57,57,49,1,3,4,3 | 4,1,1.6933,1.6933,neutral,right,,,,,,stimulusFile/magnitude.xlsx,,,,,,,,,,,,,,,,,,,,,,,,,,,,,,,
,,,,,,,,,,,,,,,674,2022-04-18_21h21.44.856,multiplicationStroop,2021.2.3,Win32,60.25185274,,,,,right,1,0.601,0,58,58,10,1,6,8,6 | 8,2,1.4111,1.9756,congruent,right,,,,,,stimulusFile/magnitude.xlsx,,,,,,,,,,,,,,,,,,,,,,,,,,,,,,,
,,,,,,,,,,,,,,,674,2022-04-18_21h21.44.856,multiplicationStroop,2021.2.3,Win32,60.25185274,,,,,right,0,0.8216,0,59,59,53,1,4,3,4 | 3,1,1.6933,1.6933,neutral,left,,,,,,stimulusFile/magnitude.xlsx,,,,,,,,,,,,,,,,,,,,,,,,,,,,,,,
,,,,,,,,,,,,,,,674,2022-04-18_21h21.44.856,multiplicationStroop,2021.2.3,Win32,60.25185274,,,,,left,1,0.623,0,60,60,21,1,7,2,7 | 2,5,1.9756,1.4111,congruent,left,,,,,,stimulusFile/magnitude.xlsx,,,,,,,,,,,,,,,,,,,,,,,,,,,,,,,
,,,,,,,,,,,,,,,674,2022-04-18_21h21.44.856,multiplicationStroop,2021.2.3,Win32,60.25185274,,,,,left,1,0.4845,0,61,61,15,1,9,7,9 | 7,2,1.9756,1.4111,congruent,left,,,,,,stimulusFile/magnitude.xlsx,,,,,,,,,,,,,,,,,,,,,,,,,,,,,,,
,,,,,,,,,,,,,,,674,2022-04-18_21h21.44.856,multiplicationStroop,2021.2.3,Win32,60.25185274,,,,,right,0,0.4515,0,62,62,62,1,8,6,8 | 6,2,1.6933,1.6933,neutral,left,,,,,,stimulusFile/magnitude.xlsx,,,,,,,,,,,,,,,,,,,,,,,,,,,,,,,
,,,,,,,,,,,,,,,674,2022-04-18_21h21.44.856,multiplicationStroop,2021.2.3,Win32,60.25185274,,,,,left,0,0.6749,0,63,63,32,1,1,3,1 | 3,2,1.9756,1.4111,incongruent,right,,,,,,stimulusFile/magnitude.xlsx,,,,,,,,,,,,,,,,,,,,,,,,,,,,,,,
,,,,,,,,,,,,,,,674,2022-04-18_21h21.44.856,multiplicationStroop,2021.2.3,Win32,60.25185274,,,,,left,0,0.8245,0,64,64,64,1,1,6,1 | 6,5,1.6933,1.6933,neutral,right,,,,,,stimulusFile/magnitude.xlsx,,,,,,,,,,,,,,,,,,,,,,,,,,,,,,,
,,,,,,,,,,,,,,,674,2022-04-18_21h21.44.856,multiplicationStroop,2021.2.3,Win32,60.25185274,,,,,left,0,0.6091,0,65,65,33,1,2,4,2 | 4,2,1.9756,1.4111,incongruent,right,,,,,,stimulusFile/magnitude.xlsx,,,,,,,,,,,,,,,,,,,,,,,,,,,,,,,
,,,,,,,,,,,,,,,674,2022-04-18_21h21.44.856,multiplicationStroop,2021.2.3,Win32,60.25185274,,,,,right,1,0.5829,0,66,66,59,1,7,9,7 | 9,2,1.6933,1.6933,neutral,right,,,,,,stimulusFile/magnitude.xlsx,,,,,,,,,,,,,,,,,,,,,,,,,,,,,,,
,,,,,,,,,,,,,,,674,2022-04-18_21h21.44.856,multiplicationStroop,2021.2.3,Win32,60.25185274,,,,,left,1,0.6177,0,67,67,7,1,9,8,9 | 8,1,1.9756,1.4111,congruent,left,,,,,,stimulusFile/magnitude.xlsx,,,,,,,,,,,,,,,,,,,,,,,,,,,,,,,
,,,,,,,,,,,,,,,674,2022-04-18_21h21.44.856,multiplicationStroop,2021.2.3,Win32,60.25185274,,,,,right,0,0.4566,0,68,68,45,1,7,2,7 | 2,5,1.4111,1.9756,incongruent,left,,,,,,stimulusFile/magnitude.xlsx,,,,,,,,,,,,,,,,,,,,,,,,,,,,,,,
,,,,,,,,,,,,,,,674,2022-04-18_21h21.44.856,multiplicationStroop,2021.2.3,Win32,60.25185274,,,,,left,1,0.4511,0,69,69,22,1,8,3,8 | 3,5,1.9756,1.4111,congruent,left,,,,,,stimulusFile/magnitude.xlsx,,,,,,,,,,,,,,,,,,,,,,,,,,,,,,,
,,,,,,,,,,,,,,,674,2022-04-18_21h21.44.856,multiplicationStroop,2021.2.3,Win32,60.25185274,,,,,left,0,0.6761,0,70,70,34,1,6,8,6 | 8,2,1.9756,1.4111,incongruent,right,,,,,,stimulusFile/magnitude.xlsx,,,,,,,,,,,,,,,,,,,,,,,,,,,,,,,
,,,,,,,,,,,,,,,674,2022-04-18_21h21.44.856,multiplicationStroop,2021.2.3,Win32,60.25185274,,,,,right,0,0.5842,0,71,71,37,1,4,2,4 | 2,2,1.4111,1.9756,incongruent,left,,,,,,stimulusFile/magnitude.xlsx,,,,,,,,,,,,,,,,,,,,,,,,,,,,,,,
,,,,,,,,,,,,,,,674,2022-04-18_21h21.44.856,multiplicationStroop,2021.2.3,Win32,60.25185274,,,,,,,,,,,,,,,,,,,,,0,0,0,0,1,stimulusFile/magnitude.xlsx,NUMERICALLY larger (larger coefficient).,images/numericallyLarger.png,,,,,,,,,,,,,,,,,,,,,,,,,,,,,
,,,,,,,,,,,,,,,674,2022-04-18_21h21.44.856,multiplicationStroop,2021.2.3,Win32,60.25185274,space,1.3175,space,2.2715,right,1,0.5802,0,0,0,1,1,3,4,3 | 4,1,1.4111,1.9756,congruent,right,,,,,,stimulusFile/physical.xlsx,,,,,,,,,,,,,,,,,,,,,,,,,,,,,,,
,,,,,,,,,,,,,,,674,2022-04-18_21h21.44.856,multiplicationStroop,2021.2.3,Win32,60.25185274,,,,,right,1,0.4132,0,1,1,9,1,2,4,2 | 4,2,1.4111,1.9756,congruent,right,,,,,,stimulusFile/physical.xlsx,,,,,,,,,,,,,,,,,,,,,,,,,,,,,,,
,,,,,,,,,,,,,,,674,2022-04-18_21h21.44.856,multiplicationStroop,2021.2.3,Win32,60.25185274,,,,,left,1,0.4441,0,2,2,5,1,4,3,4 | 3,1,1.9756,1.4111,congruent,left,,,,,,stimulusFile/physical.xlsx,,,,,,,,,,,,,,,,,,,,,,,,,,,,,,,
,,,,,,,,,,,,,,,674,2022-04-18_21h21.44.856,multiplicationStroop,2021.2.3,Win32,60.25185274,,,,,right,1,0.4308,0,3,3,45,1,7,2,7 | 2,5,1.4111,1.9756,incongruent,right,,,,,,stimulusFile/physical.xlsx,,,,,,,,,,,,,,,,,,,,,,,,,,,,,,,
,,,,,,,,,,,,,,,674,2022-04-18_21h21.44.856,multiplicationStroop,2021.2.3,Win32,60.25185274,,,,,right,1,0.4677,0,4,4,30,1,7,6,7 | 6,1,1.4111,1.9756,incongruent,right,,,,,,stimulusFile/physical.xlsx,,,,,,,,,,,,,,,,,,,,,,,,,,,,,,,
,,,,,,,,,,,,,,,674,2022-04-18_21h21.44.856,multiplicationStroop,2021.2.3,Win32,60.25185274,,,,,left,1,0.4178,0,5,5,51,1,8,8,8 | 8,0,1.9756,1.4111,neutral,left,,,,,,stimulusFile/physical.xlsx,,,,,,,,,,,,,,,,,,,,,,,,,,,,,,,
,,,,,,,,,,,,,,,674,2022-04-18_21h21.44.856,multiplicationStroop,2021.2.3,Win32,60.25185274,,,,,left,1,0.8301,0,6,6,21,1,7,2,7 | 2,5,1.9756,1.4111,congruent,left,,,,,,stimulusFile/physical.xlsx,,,,,,,,,,,,,,,,,,,,,,,,,,,,,,,
,,,,,,,,,,,,,,,674,2022-04-18_21h21.44.856,multiplicationStroop,2021.2.3,Win32,60.25185274,,,,,left,1,0.4545,0,7,7,15,1,9,7,9 | 7,2,1.9756,1.4111,congruent,left,,,,,,stimulusFile/physical.xlsx,,,,,,,,,,,,,,,,,,,,,,,,,,,,,,,
,,,,,,,,,,,,,,,674,2022-04-18_21h21.44.856,multiplicationStroop,2021.2.3,Win32,60.25185274,,,,,left,1,0.6986,0,8,8,12,1,3,1,3 | 1,2,1.9756,1.4111,congruent,left,,,,,,stimulusFile/physical.xlsx,,,,,,,,,,,,,,,,,,,,,,,,,,,,,,,
,,,,,,,,,,,,,,,674,2022-04-18_21h21.44.856,multiplicationStroop,2021.2.3,Win32,60.25185274,,,,,right,1,0.4828,0,9,9,63,1,9,9,9 | 9,0,1.4111,1.9756,neutral,right,,,,,,stimulusFile/physical.xlsx,,,,,,,,,,,,,,,,,,,,,,,,,,,,,,,
,,,,,,,,,,,,,,,674,2022-04-18_21h21.44.856,multiplicationStroop,2021.2.3,Win32,60.25185274,,,,,right,1,0.4827,0,10,10,58,1,6,6,6 | 6,0,1.4111,1.9756,neutral,right,,,,,,stimulusFile/physical.xlsx,,,,,,,,,,,,,,,,,,,,,,,,,,,,,,,
,,,,,,,,,,,,,,,674,2022-04-18_21h21.44.856,multiplicationStroop,2021.2.3,Win32,60.25185274,,,,,right,1,0.4993,0,11,11,59,1,7,7,7 | 7,0,1.4111,1.9756,neutral,right,,,,,,stimulusFile/physical.xlsx,,,,,,,,,,,,,,,,,,,,,,,,,,,,,,,
,,,,,,,,,,,,,,,674,2022-04-18_21h21.44.856,multiplicationStroop,2021.2.3,Win32,60.25185274,,,,,right,1,0.4804,0,12,12,17,1,2,7,2 | 7,5,1.4111,1.9756,congruent,right,,,,,,stimulusFile/physical.xlsx,,,,,,,,,,,,,,,,,,,,,,,,,,,,,,,
,,,,,,,,,,,,,,,674,2022-04-18_21h21.44.856,multiplicationStroop,2021.2.3,Win32,60.25185274,,,,,right,1,0.4454,0,13,13,28,1,2,1,2 | 1,1,1.4111,1.9756,incongruent,right,,,,,,stimulusFile/physical.xlsx,,,,,,,,,,,,,,,,,,,,,,,,,,,,,,,
,,,,,,,,,,,,,,,674,2022-04-18_21h21.44.856,multiplicationStroop,2021.2.3,Win32,60.25185274,,,,,right,1,0.4551,0,14,14,2,1,6,7,6 | 7,1,1.4111,1.9756,congruent,right,,,,,,stimulusFile/physical.xlsx,,,,,,,,,,,,,,,,,,,,,,,,,,,,,,,
,,,,,,,,,,,,,,,674,2022-04-18_21h21.44.856,multiplicationStroop,2021.2.3,Win32,60.25185274,,,,,right,1,0.4609,0,15,15,0,1,1,2,1 | 2,1,1.4111,1.9756,congruent,right,,,,,,stimulusFile/physical.xlsx,,,,,,,,,,,,,,,,,,,,,,,,,,,,,,,
,,,,,,,,,,,,,,,674,2022-04-18_21h21.44.856,multiplicationStroop,2021.2.3,Win32,60.25185274,,,,,left,1,0.552,0,16,16,50,1,6,6,6 | 6,0,1.9756,1.4111,neutral,left,,,,,,stimulusFile/physical.xlsx,,,,,,,,,,,,,,,,,,,,,,,,,,,,,,,
,,,,,,,,,,,,,,,674,2022-04-18_21h21.44.856,multiplicationStroop,2021.2.3,Win32,60.25185274,,,,,right,1,0.478,0,17,17,37,1,4,2,4 | 2,2,1.4111,1.9756,incongruent,right,,,,,,stimulusFile/physical.xlsx,,,,,,,,,,,,,,,,,,,,,,,,,,,,,,,
,,,,,,,,,,,,,,,674,2022-04-18_21h21.44.856,multiplicationStroop,2021.2.3,Win32,60.25185274,,,,,right,1,0.4489,0,18,18,8,1,1,3,1 | 3,2,1.4111,1.9756,congruent,right,,,,,,stimulusFile/physical.xlsx,,,,,,,,,,,,,,,,,,,,,,,,,,,,,,,
,,,,,,,,,,,,,,,674,2022-04-18_21h21.44.856,multiplicationStroop,2021.2.3,Win32,60.25185274,,,,,right,1,0.5267,0,19,19,62,1,8,8,8 | 8,0,1.4111,1.9756,neutral,right,,,,,,stimulusFile/physical.xlsx,,,,,,,,,,,,,,,,,,,,,,,,,,,,,,,
,,,,,,,,,,,,,,,674,2022-04-18_21h21.44.856,multiplicationStroop,2021.2.3,Win32,60.25185274,,,,,left,1,0.4439,0,20,20,27,1,8,9,8 | 9,1,1.9756,1.4111,incongruent,left,,,,,,stimulusFile/physical.xlsx,,,,,,,,,,,,,,,,,,,,,,,,,,,,,,,
,,,,,,,,,,,,,,,674,2022-04-18_21h21.44.856,multiplicationStroop,2021.2.3,Win32,60.25185274,,,,,left,1,0.5288,0,21,21,54,1,7,7,7 | 7,0,1.9756,1.4111,neutral,left,,,,,,stimulusFile/physical.xlsx,,,,,,,,,,,,,,,,,,,,,,,,,,,,,,,
,,,,,,,,,,,,,,,674,2022-04-18_21h21.44.856,multiplicationStroop,2021.2.3,Win32,60.25185274,,,,,left,0,0.6274,0,22,22,66,1,3,3,3 | 3,0,1.9756,1.4111,neutral,right,,,,,,stimulusFile/physical.xlsx,,,,,,,,,,,,,,,,,,,,,,,,,,,,,,,
,,,,,,,,,,,,,,,674,2022-04-18_21h21.44.856,multiplicationStroop,2021.2.3,Win32,60.25185274,,,,,right,1,0.55,0,23,23,29,1,4,3,4 | 3,1,1.4111,1.9756,incongruent,right,,,,,,stimulusFile/physical.xlsx,,,,,,,,,,,,,,,,,,,,,,,,,,,,,,,
,,,,,,,,,,,,,,,674,2022-04-18_21h21.44.856,multiplicationStroop,2021.2.3,Win32,60.25185274,,,,,right,1,0.6137,0,24,24,18,1,3,8,3 | 8,5,1.4111,1.9756,congruent,right,,,,,,stimulusFile/physical.xlsx,,,,,,,,,,,,,,,,,,,,,,,,,,,,,,,
,,,,,,,,,,,,,,,674,2022-04-18_21h21.44.856,multiplicationStroop,2021.2.3,Win32,60.25185274,,,,,right,1,0.5901,0,25,25,57,1,2,2,2 | 2,0,1.4111,1.9756,neutral,right,,,,,,stimulusFile/physical.xlsx,,,,,,,,,,,,,,,,,,,,,,,,,,,,,,,
,,,,,,,,,,,,,,,674,2022-04-18_21h21.44.856,multiplicationStroop,2021.2.3,Win32,60.25185274,,,,,left,1,0.5406,0,26,26,53,1,4,4,4 | 4,0,1.9756,1.4111,neutral,left,,,,,,stimulusFile/physical.xlsx,,,,,,,,,,,,,,,,,,,,,,,,,,,,,,,
,,,,,,,,,,,,,,,674,2022-04-18_21h21.44.856,multiplicationStroop,2021.2.3,Win32,60.25185274,,,,,left,1,0.7168,0,27,27,14,1,8,6,8 | 6,2,1.9756,1.4111,congruent,left,,,,,,stimulusFile/physical.xlsx,,,,,,,,,,,,,,,,,,,,,,,,,,,,,,,
,,,,,,,,,,,,,,,674,2022-04-18_21h21.44.856,multiplicationStroop,2021.2.3,Win32,60.25185274,,,,,right,1,0.5729,0,28,28,31,1,9,8,9 | 8,1,1.4111,1.9756,incongruent,right,,,,,,stimulusFile/physical.xlsx,,,,,,,,,,,,,,,,,,,,,,,,,,,,,,,
,,,,,,,,,,,,,,,674,2022-04-18_21h21.44.856,multiplicationStroop,2021.2.3,Win32,60.25185274,,,,,right,1,0.6112,0,29,29,44,1,6,1,6 | 1,5,1.4111,1.9756,incongruent,right,,,,,,stimulusFile/physical.xlsx,,,,,,,,,,,,,,,,,,,,,,,,,,,,,,,
,,,,,,,,,,,,,,,674,2022-04-18_21h21.44.856,multiplicationStroop,2021.2.3,Win32,60.25185274,,,,,right,1,0.5225,0,30,30,65,1,2,2,2 | 2,0,1.4111,1.9756,neutral,right,,,,,,stimulusFile/physical.xlsx,,,,,,,,,,,,,,,,,,,,,,,,,,,,,,,
,,,,,,,,,,,,,,,674,2022-04-18_21h21.44.856,multiplicationStroop,2021.2.3,Win32,60.25185274,,,,,left,0,0.5897,0,31,31,64,1,1,1,1 | 1,0,1.9756,1.4111,neutral,right,,,,,,stimulusFile/physical.xlsx,,,,,,,,,,,,,,,,,,,,,,,,,,,,,,,
,,,,,,,,,,,,,,,674,2022-04-18_21h21.44.856,multiplicationStroop,2021.2.3,Win32,60.25185274,,,,,right,1,0.4772,0,32,32,3,1,8,9,8 | 9,1,1.4111,1.9756,congruent,right,,,,,,stimulusFile/physical.xlsx,,,,,,,,,,,,,,,,,,,,,,,,,,,,,,,
,,,,,,,,,,,,,,,674,2022-04-18_21h21.44.856,multiplicationStroop,2021.2.3,Win32,60.25185274,,,,,right,1,0.5057,0,33,33,60,1,3,3,3 | 3,0,1.4111,1.9756,neutral,right,,,,,,stimulusFile/physical.xlsx,,,,,,,,,,,,,,,,,,,,,,,,,,,,,,,
,,,,,,,,,,,,,,,674,2022-04-18_21h21.44.856,multiplicationStroop,2021.2.3,Win32,60.25185274,,,,,left,1,0.4798,0,34,34,68,1,6,6,6 | 6,0,1.9756,1.4111,neutral,left,,,,,,stimulusFile/physical.xlsx,,,,,,,,,,,,,,,,,,,,,,,,,,,,,,,
,,,,,,,,,,,,,,,674,2022-04-18_21h21.44.856,multiplicationStroop,2021.2.3,Win32,60.25185274,,,,,right,1,0.4614,0,35,35,67,1,4,4,4 | 4,0,1.4111,1.9756,neutral,right,,,,,,stimulusFile/physical.xlsx,,,,,,,,,,,,,,,,,,,,,,,,,,,,,,,
,,,,,,,,,,,,,,,674,2022-04-18_21h21.44.856,multiplicationStroop,2021.2.3,Win32,60.25185274,,,,,left,1,0.4817,0,36,36,41,1,2,7,2 | 7,5,1.9756,1.4111,incongruent,left,,,,,,stimulusFile/physical.xlsx,,,,,,,,,,,,,,,,,,,,,,,,,,,,,,,
,,,,,,,,,,,,,,,674,2022-04-18_21h21.44.856,multiplicationStroop,2021.2.3,Win32,60.25185274,,,,,left,1,0.674,0,37,37,4,1,2,1,2 | 1,1,1.9756,1.4111,congruent,left,,,,,,stimulusFile/physical.xlsx,,,,,,,,,,,,,,,,,,,,,,,,,,,,,,,
,,,,,,,,,,,,,,,674,2022-04-18_21h21.44.856,multiplicationStroop,2021.2.3,Win32,60.25185274,,,,,right,1,0.4698,0,38,38,47,1,9,4,9 | 4,5,1.4111,1.9756,incongruent,right,,,,,,stimulusFile/physical.xlsx,,,,,,,,,,,,,,,,,,,,,,,,,,,,,,,
,,,,,,,,,,,,,,,674,2022-04-18_21h21.44.856,multiplicationStroop,2021.2.3,Win32,60.25185274,,,,,left,1,0.6554,0,39,39,48,1,1,1,1 | 1,0,1.9756,1.4111,neutral,left,,,,,,stimulusFile/physical.xlsx,,,,,,,,,,,,,,,,,,,,,,,,,,,,,,,
,,,,,,,,,,,,,,,674,2022-04-18_21h21.44.856,multiplicationStroop,2021.2.3,Win32,60.25185274,,,,,right,1,0.5199,0,40,40,16,1,1,6,1 | 6,5,1.4111,1.9756,congruent,right,,,,,,stimulusFile/physical.xlsx,,,,,,,,,,,,,,,,,,,,,,,,,,,,,,,
,,,,,,,,,,,,,,,674,2022-04-18_21h21.44.856,multiplicationStroop,2021.2.3,Win32,60.25185274,,,,,left,1,0.5979,0,41,41,52,1,2,2,2 | 2,0,1.9756,1.4111,neutral,left,,,,,,stimulusFile/physical.xlsx,,,,,,,,,,,,,,,,,,,,,,,,,,,,,,,
,,,,,,,,,,,,,,,674,2022-04-18_21h21.44.856,multiplicationStroop,2021.2.3,Win32,60.25185274,,,,,left,1,0.6013,0,42,42,35,1,7,9,7 | 9,2,1.9756,1.4111,incongruent,left,,,,,,stimulusFile/physical.xlsx,,,,,,,,,,,,,,,,,,,,,,,,,,,,,,,
,,,,,,,,,,,,,,,674,2022-04-18_21h21.44.856,multiplicationStroop,2021.2.3,Win32,60.25185274,,,,,left,1,0.5349,0,43,43,23,1,9,4,9 | 4,5,1.9756,1.4111,congruent,left,,,,,,stimulusFile/physical.xlsx,,,,,,,,,,,,,,,,,,,,,,,,,,,,,,,
,,,,,,,,,,,,,,,674,2022-04-18_21h21.44.856,multiplicationStroop,2021.2.3,Win32,60.25185274,,,,,left,1,0.4843,0,44,44,13,1,4,2,4 | 2,2,1.9756,1.4111,congruent,left,,,,,,stimulusFile/physical.xlsx,,,,,,,,,,,,,,,,,,,,,,,,,,,,,,,
,,,,,,,,,,,,,,,674,2022-04-18_21h21.44.856,multiplicationStroop,2021.2.3,Win32,60.25185274,,,,,left,1,0.6654,0,45,45,49,1,3,3,3 | 3,0,1.9756,1.4111,neutral,left,,,,,,stimulusFile/physical.xlsx,,,,,,,,,,,,,,,,,,,,,,,,,,,,,,,
,,,,,,,,,,,,,,,674,2022-04-18_21h21.44.856,multiplicationStroop,2021.2.3,Win32,60.25185274,,,,,left,1,0.4294,0,46,46,22,1,8,3,8 | 3,5,1.9756,1.4111,congruent,left,,,,,,stimulusFile/physical.xlsx,,,,,,,,,,,,,,,,,,,,,,,,,,,,,,,
,,,,,,,,,,,,,,,674,2022-04-18_21h21.44.856,multiplicationStroop,2021.2.3,Win32,60.25185274,,,,,right,1,0.5017,0,47,47,46,1,8,3,8 | 3,5,1.4111,1.9756,incongruent,right,,,,,,stimulusFile/physical.xlsx,,,,,,,,,,,,,,,,,,,,,,,,,,,,,,,
,,,,,,,,,,,,,,,674,2022-04-18_21h21.44.856,multiplicationStroop,2021.2.3,Win32,60.25185274,,,,,left,1,0.5266,0,48,48,26,1,6,7,6 | 7,1,1.9756,1.4111,incongruent,left,,,,,,stimulusFile/physical.xlsx,,,,,,,,,,,,,,,,,,,,,,,,,,,,,,,
,,,,,,,,,,,,,,,674,2022-04-18_21h21.44.856,multiplicationStroop,2021.2.3,Win32,60.25185274,,,,,left,1,0.5118,0,49,49,33,1,2,4,2 | 4,2,1.9756,1.4111,incongruent,left,,,,,,stimulusFile/physical.xlsx,,,,,,,,,,,,,,,,,,,,,,,,,,,,,,,
,,,,,,,,,,,,,,,674,2022-04-18_21h21.44.856,multiplicationStroop,2021.2.3,Win32,60.25185274,,,,,right,1,0.4386,0,50,50,61,1,4,4,4 | 4,0,1.4111,1.9756,neutral,right,,,,,,stimulusFile/physical.xlsx,,,,,,,,,,,,,,,,,,,,,,,,,,,,,,,
,,,,,,,,,,,,,,,674,2022-04-18_21h21.44.856,multiplicationStroop,2021.2.3,Win32,60.25185274,,,,,left,1,0.5036,0,51,51,6,1,7,6,7 | 6,1,1.9756,1.4111,congruent,left,,,,,,stimulusFile/physical.xlsx,,,,,,,,,,,,,,,,,,,,,,,,,,,,,,,
,,,,,,,,,,,,,,,674,2022-04-18_21h21.44.856,multiplicationStroop,2021.2.3,Win32,60.25185274,,,,,right,0,0.4072,0,52,52,71,1,9,9,9 | 9,0,1.4111,1.9756,neutral,left,,,,,,stimulusFile/physical.xlsx,,,,,,,,,,,,,,,,,,,,,,,,,,,,,,,
,,,,,,,,,,,,,,,674,2022-04-18_21h21.44.856,multiplicationStroop,2021.2.3,Win32,60.25185274,,,,,right,1,0.5862,0,53,53,10,1,6,8,6 | 8,2,1.4111,1.9756,congruent,right,,,,,,stimulusFile/physical.xlsx,,,,,,,,,,,,,,,,,,,,,,,,,,,,,,,
,,,,,,,,,,,,,,,674,2022-04-18_21h21.44.856,multiplicationStroop,2021.2.3,Win32,60.25185274,,,,,right,1,0.5514,0,54,54,56,1,1,1,1 | 1,0,1.4111,1.9756,neutral,right,,,,,,stimulusFile/physical.xlsx,,,,,,,,,,,,,,,,,,,,,,,,,,,,,,,
,,,,,,,,,,,,,,,674,2022-04-18_21h21.44.856,multiplicationStroop,2021.2.3,Win32,60.25185274,,,,,left,1,0.4689,0,55,55,34,1,6,8,6 | 8,2,1.9756,1.4111,incongruent,left,,,,,,stimulusFile/physical.xlsx,,,,,,,,,,,,,,,,,,,,,,,,,,,,,,,
,,,,,,,,,,,,,,,674,2022-04-18_21h21.44.856,multiplicationStroop,2021.2.3,Win32,60.25185274,,,,,right,1,0.4822,0,56,56,19,1,4,9,4 | 9,5,1.4111,1.9756,congruent,right,,,,,,stimulusFile/physical.xlsx,,,,,,,,,,,,,,,,,,,,,,,,,,,,,,,
,,,,,,,,,,,,,,,674,2022-04-18_21h21.44.856,multiplicationStroop,2021.2.3,Win32,60.25185274,,,,,left,0,0.4477,0,57,57,36,1,3,1,3 | 1,2,1.4111,1.9756,incongruent,right,,,,,,stimulusFile/physical.xlsx,,,,,,,,,,,,,,,,,,,,,,,,,,,,,,,
,,,,,,,,,,,,,,,674,2022-04-18_21h21.44.856,multiplicationStroop,2021.2.3,Win32,60.25185274,,,,,left,1,1.0808,0,58,58,32,1,1,3,1 | 3,2,1.9756,1.4111,incongruent,left,,,,,,stimulusFile/physical.xlsx,,,,,,,,,,,,,,,,,,,,,,,,,,,,,,,
,,,,,,,,,,,,,,,674,2022-04-18_21h21.44.856,multiplicationStroop,2021.2.3,Win32,60.25185274,,,,,left,1,0.5566,0,59,59,25,1,3,4,3 | 4,1,1.9756,1.4111,incongruent,left,,,,,,stimulusFile/physical.xlsx,,,,,,,,,,,,,,,,,,,,,,,,,,,,,,,
,,,,,,,,,,,,,,,674,2022-04-18_21h21.44.856,multiplicationStroop,2021.2.3,Win32,60.25185274,,,,,left,1,0.5156,0,60,60,43,1,4,9,4 | 9,5,1.9756,1.4111,incongruent,left,,,,,,stimulusFile/physical.xlsx,,,,,,,,,,,,,,,,,,,,,,,,,,,,,,,
,,,,,,,,,,,,,,,674,2022-04-18_21h21.44.856,multiplicationStroop,2021.2.3,Win32,60.25185274,,,,,left,1,0.4469,0,61,61,20,1,6,1,6 | 1,5,1.9756,1.4111,congruent,left,,,,,,stimulusFile/physical.xlsx,,,,,,,,,,,,,,,,,,,,,,,,,,,,,,,
,,,,,,,,,,,,,,,674,2022-04-18_21h21.44.856,multiplicationStroop,2021.2.3,Win32,60.25185274,,,,,left,1,0.5009,0,62,62,55,1,9,9,9 | 9,0,1.9756,1.4111,neutral,left,,,,,,stimulusFile/physical.xlsx,,,,,,,,,,,,,,,,,,,,,,,,,,,,,,,
,,,,,,,,,,,,,,,674,2022-04-18_21h21.44.856,multiplicationStroop,2021.2.3,Win32,60.25185274,,,,,right,0,0.4811,0,63,63,42,1,3,8,3 | 8,5,1.9756,1.4111,incongruent,left,,,,,,stimulusFile/physical.xlsx,,,,,,,,,,,,,,,,,,,,,,,,,,,,,,,
,,,,,,,,,,,,,,,674,2022-04-18_21h21.44.856,multiplicationStroop,2021.2.3,Win32,60.25185274,,,,,left,1,0.8732,0,64,64,7,1,9,8,9 | 8,1,1.9756,1.4111,congruent,left,,,,,,stimulusFile/physical.xlsx,,,,,,,,,,,,,,,,,,,,,,,,,,,,,,,
,,,,,,,,,,,,,,,674,2022-04-18_21h21.44.856,multiplicationStroop,2021.2.3,Win32,60.25185274,,,,,left,1,0.7176,0,65,65,24,1,1,2,1 | 2,1,1.9756,1.4111,incongruent,left,,,,,,stimulusFile/physical.xlsx,,,,,,,,,,,,,,,,,,,,,,,,,,,,,,,
,,,,,,,,,,,,,,,674,2022-04-18_21h21.44.856,multiplicationStroop,2021.2.3,Win32,60.25185274,,,,,right,1,0.5693,0,66,66,39,1,9,7,9 | 7,2,1.4111,1.9756,incongruent,right,,,,,,stimulusFile/physical.xlsx,,,,,,,,,,,,,,,,,,,,,,,,,,,,,,,
,,,,,,,,,,,,,,,674,2022-04-18_21h21.44.856,multiplicationStroop,2021.2.3,Win32,60.25185274,,,,,right,1,0.5677,0,67,67,38,1,8,6,8 | 6,2,1.4111,1.9756,incongruent,right,,,,,,stimulusFile/physical.xlsx,,,,,,,,,,,,,,,,,,,,,,,,,,,,,,,
,,,,,,,,,,,,,,,674,2022-04-18_21h21.44.856,multiplicationStroop,2021.2.3,Win32,60.25185274,,,,,right,0,0.5796,0,68,68,69,1,7,7,7 | 7,0,1.4111,1.9756,neutral,left,,,,,,stimulusFile/physical.xlsx,,,,,,,,,,,,,,,,,,,,,,,,,,,,,,,
,,,,,,,,,,,,,,,674,2022-04-18_21h21.44.856,multiplicationStroop,2021.2.3,Win32,60.25185274,,,,,left,1,0.5669,0,69,69,40,1,1,6,1 | 6,5,1.9756,1.4111,incongruent,left,,,,,,stimulusFile/physical.xlsx,,,,,,,,,,,,,,,,,,,,,,,,,,,,,,,
,,,,,,,,,,,,,,,674,2022-04-18_21h21.44.856,multiplicationStroop,2021.2.3,Win32,60.25185274,,,,,right,1,0.4471,0,70,70,11,1,7,9,7 | 9,2,1.4111,1.9756,congruent,right,,,,,,stimulusFile/physical.xlsx,,,,,,,,,,,,,,,,,,,,,,,,,,,,,,,
,,,,,,,,,,,,,,,674,2022-04-18_21h21.44.856,multiplicationStroop,2021.2.3,Win32,60.25185274,,,,,left,1,0.4609,0,71,71,70,1,8,8,8 | 8,0,1.9756,1.4111,neutral,left,,,,,,stimulusFile/physical.xlsx,,,,,,,,,,,,,,,,,,,,,,,,,,,,,,,
,,,,,,,,,,,,,,,674,2022-04-18_21h21.44.856,multiplicationStroop,2021.2.3,Win32,60.25185274,,,,,,,,,,,,,,,,,,,,,0,1,1,1,1,stimulusFile/physical.xlsx,PHYSICALLY larger (larger font size).,images/physicallyLarger.png,,,,,,,,,,,,,,,,,,,,,,,,,,,,,
,,,,,,,,,,,,,,,674,2022-04-18_21h21.44.856,multiplicationStroop,2021.2.3,Win32,60.25185274,,,,,,,,,,,,,,,,,,,,,,,,,,,,,space,1.5958,space,1.6554,54,8.3491,0,0,0,0,10,1,5,×,9,5 × 9,neutral,smallerFirst,1.5,1.5,45,,,,,,,,
,,,,,,,,,,,,,,,674,2022-04-18_21h21.44.856,multiplicationStroop,2021.2.3,Win32,60.25185274,,,,,,,,,,,,,,,,,,,,,,,,,,,,,,,,,4,2.1712,1,0,1,1,28,1,2,×,2,2 × 2,neutral,tie,1.5,1.5,4,,,,,,,,
,,,,,,,,,,,,,,,674,2022-04-18_21h21.44.856,multiplicationStroop,2021.2.3,Win32,60.25185274,,,,,,,,,,,,,,,,,,,,,,,,,,,,,,,,,40,2.0662,1,0,2,2,24,1,8,×,5,8 × 5,neutral,largerFirst,1.5,1.5,40,,,,,,,,
,,,,,,,,,,,,,,,674,2022-04-18_21h21.44.856,multiplicationStroop,2021.2.3,Win32,60.25185274,,,,,,,,,,,,,,,,,,,,,,,,,,,,,,,,,8,2.0326,1,0,3,3,3,1,2,×,4,2 × 4,neutral,smallerFirst,1.5,1.5,8,,,,,,,,
,,,,,,,,,,,,,,,674,2022-04-18_21h21.44.856,multiplicationStroop,2021.2.3,Win32,60.25185274,,,,,,,,,,,,,,,,,,,,,,,,,,,,,,,,,20,4.083,1,0,4,4,20,1,5,×,4,5 × 4,neutral,largerFirst,1.5,1.5,20,,,,,,,,
,,,,,,,,,,,,,,,674,2022-04-18_21h21.44.856,multiplicationStroop,2021.2.3,Win32,60.25185274,,,,,,,,,,,,,,,,,,,,,,,,,,,,,,,,,28,1.9393,1,0,5,5,17,1,7,×,4,7 × 4,neutral,largerFirst,1.5,1.5,28,,,,,,,,
,,,,,,,,,,,,,,,674,2022-04-18_21h21.44.856,multiplicationStroop,2021.2.3,Win32,60.25185274,,,,,,,,,,,,,,,,,,,,,,,,,,,,,,,,,49,2.0163,1,0,6,6,33,1,7,×,7,7 × 7,neutral,tie,1.5,1.5,49,,,,,,,,
,,,,,,,,,,,,,,,674,2022-04-18_21h21.44.856,multiplicationStroop,2021.2.3,Win32,60.25185274,,,,,,,,,,,,,,,,,,,,,,,,,,,,,,,,,24,1.8496,1,0,7,7,22,1,8,×,3,8 × 3,neutral,largerFirst,1.5,1.5,24,,,,,,,,
,,,,,,,,,,,,,,,674,2022-04-18_21h21.44.856,multiplicationStroop,2021.2.3,Win32,60.25185274,,,,,,,,,,,,,,,,,,,,,,,,,,,,,,,,,16,2.0825,1,0,8,8,30,1,4,×,4,4 × 4,neutral,tie,1.5,1.5,16,,,,,,,,
,,,,,,,,,,,,,,,674,2022-04-18_21h21.44.856,multiplicationStroop,2021.2.3,Win32,60.25185274,,,,,,,,,,,,,,,,,,,,,,,,,,,,,,,,,35,2.2833,1,0,9,9,1,1,5,×,7,5 × 7,neutral,smallerFirst,1.5,1.5,35,,,,,,,,
,,,,,,,,,,,,,,,674,2022-04-18_21h21.44.856,multiplicationStroop,2021.2.3,Win32,60.25185274,,,,,,,,,,,,,,,,,,,,,,,,,,,,,,,,,81,2.7326,1,0,10,10,35,1,9,×,9,9 × 9,neutral,tie,1.5,1.5,81,,,,,,,,
,,,,,,,,,,,,,,,674,2022-04-18_21h21.44.856,multiplicationStroop,2021.2.3,Win32,60.25185274,,,,,,,,,,,,,,,,,,,,,,,,,,,,,,,,,10,1.7061,1,0,11,11,4,1,2,×,5,2 × 5,neutral,smallerFirst,1.5,1.5,10,,,,,,,,
,,,,,,,,,,,,,,,674,2022-04-18_21h21.44.856,multiplicationStroop,2021.2.3,Win32,60.25185274,,,,,,,,,,,,,,,,,,,,,,,,,,,,,,,,,18,1.7991,1,0,12,12,18,1,9,×,2,9 × 2,neutral,largerFirst,1.5,1.5,18,,,,,,,,
,,,,,,,,,,,,,,,674,2022-04-18_21h21.44.856,multiplicationStroop,2021.2.3,Win32,60.25185274,,,,,,,,,,,,,,,,,,,,,,,,,,,,,,,,,36,1.7993,1,0,13,13,27,1,9,×,4,9 × 4,neutral,largerFirst,1.5,1.5,36,,,,,,,,
,,,,,,,,,,,,,,,674,2022-04-18_21h21.44.856,multiplicationStroop,2021.2.3,Win32,60.25185274,,,,,,,,,,,,,,,,,,,,,,,,,,,,,,,,,63,2.8993,1,0,14,14,12,1,7,×,9,7 × 9,neutral,smallerFirst,1.5,1.5,63,,,,,,,,
,,,,,,,,,,,,,,,674,2022-04-18_21h21.44.856,multiplicationStroop,2021.2.3,Win32,60.25185274,,,,,,,,,,,,,,,,,,,,,,,,,,,,,,,,,18,1.9056,1,0,15,15,0,1,3,×,6,3 × 6,neutral,smallerFirst,1.5,1.5,18,,,,,,,,
,,,,,,,,,,,,,,,674,2022-04-18_21h21.44.856,multiplicationStroop,2021.2.3,Win32,60.25185274,,,,,,,,,,,,,,,,,,,,,,,,,,,,,,,,,32,1.9829,1,0,16,16,23,1,8,×,4,8 × 4,neutral,largerFirst,1.5,1.5,32,,,,,,,,
,,,,,,,,,,,,,,,674,2022-04-18_21h21.44.856,multiplicationStroop,2021.2.3,Win32,60.25185274,,,,,,,,,,,,,,,,,,,,,,,,,,,,,,,,,56,1.8659,1,0,17,17,9,1,7,×,8,7 × 8,neutral,smallerFirst,1.5,1.5,56,,,,,,,,
,,,,,,,,,,,,,,,674,2022-04-18_21h21.44.856,multiplicationStroop,2021.2.3,Win32,60.25185274,,,,,,,,,,,,,,,,,,,,,,,,,,,,,,,,,54,1.7163,1,0,18,18,7,1,6,×,9,6 × 9,neutral,smallerFirst,1.5,1.5,54,,,,,,,,
,,,,,,,,,,,,,,,674,2022-04-18_21h21.44.856,multiplicationStroop,2021.2.3,Win32,60.25185274,,,,,,,,,,,,,,,,,,,,,,,,,,,,,,,,,30,1.7996,1,0,19,19,19,1,6,×,5,6 × 5,neutral,largerFirst,1.5,1.5,30,,,,,,,,
,,,,,,,,,,,,,,,674,2022-04-18_21h21.44.856,multiplicationStroop,2021.2.3,Win32,60.25185274,,,,,,,,,,,,,,,,,,,,,,,,,,,,,,,,,12,1.5162,1,0,20,20,25,1,6,×,2,6 × 2,neutral,largerFirst,1.5,1.5,12,,,,,,,,
,,,,,,,,,,,,,,,674,2022-04-18_21h21.44.856,multiplicationStroop,2021.2.3,Win32,60.25185274,,,,,,,,,,,,,,,,,,,,,,,,,,,,,,,,,27,2.0327,1,0,21,21,14,1,9,×,3,9 × 3,neutral,largerFirst,1.5,1.5,27,,,,,,,,
,,,,,,,,,,,,,,,674,2022-04-18_21h21.44.856,multiplicationStroop,2021.2.3,Win32,60.25185274,,,,,,,,,,,,,,,,,,,,,,,,,,,,,,,,,25,2.1663,1,0,22,22,31,1,5,×,5,5 × 5,neutral,tie,1.5,1.5,25,,,,,,,,
,,,,,,,,,,,,,,,674,2022-04-18_21h21.44.856,multiplicationStroop,2021.2.3,Win32,60.25185274,,,,,,,,,,,,,,,,,,,,,,,,,,,,,,,,,21,1.616,1,0,23,23,8,1,3,×,7,3 × 7,neutral,smallerFirst,1.5,1.5,21,,,,,,,,
,,,,,,,,,,,,,,,674,2022-04-18_21h21.44.856,multiplicationStroop,2021.2.3,Win32,60.25185274,,,,,,,,,,,,,,,,,,,,,,,,,,,,,,,,,6,2.0663,1,0,24,24,26,1,3,×,2,3 × 2,neutral,largerFirst,1.5,1.5,6,,,,,,,,
,,,,,,,,,,,,,,,674,2022-04-18_21h21.44.856,multiplicationStroop,2021.2.3,Win32,60.25185274,,,,,,,,,,,,,,,,,,,,,,,,,,,,,,,,,42,2.7495,1,0,25,25,6,1,6,×,7,6 × 7,neutral,smallerFirst,1.5,1.5,42,,,,,,,,
,,,,,,,,,,,,,,,674,2022-04-18_21h21.44.856,multiplicationStroop,2021.2.3,Win32,60.25185274,,,,,,,,,,,,,,,,,,,,,,,,,,,,,,,,,12,1.4162,1,0,26,26,21,1,4,×,3,4 × 3,neutral,largerFirst,1.5,1.5,12,,,,,,,,
,,,,,,,,,,,,,,,674,2022-04-18_21h21.44.856,multiplicationStroop,2021.2.3,Win32,60.25185274,,,,,,,,,,,,,,,,,,,,,,,,,,,,,,,,,48,2.2828,1,0,27,27,15,1,8,×,6,8 × 6,neutral,largerFirst,1.5,1.5,48,,,,,,,,
,,,,,,,,,,,,,,,674,2022-04-18_21h21.44.856,multiplicationStroop,2021.2.3,Win32,60.25185274,,,,,,,,,,,,,,,,,,,,,,,,,,,,,,,,,15,2.8162,1,0,28,28,5,1,3,×,5,3 × 5,neutral,smallerFirst,1.5,1.5,15,,,,,,,,
,,,,,,,,,,,,,,,674,2022-04-18_21h21.44.856,multiplicationStroop,2021.2.3,Win32,60.25185274,,,,,,,,,,,,,,,,,,,,,,,,,,,,,,,,,72,2.656,1,0,29,29,11,1,8,×,9,8 × 9,neutral,smallerFirst,1.5,1.5,72,,,,,,,,
,,,,,,,,,,,,,,,674,2022-04-18_21h21.44.856,multiplicationStroop,2021.2.3,Win32,60.25185274,,,,,,,,,,,,,,,,,,,,,,,,,,,,,,,,,16,1.9164,1,0,30,30,13,1,2,×,8,2 × 8,neutral,smallerFirst,1.5,1.5,16,,,,,,,,
,,,,,,,,,,,,,,,674,2022-04-18_21h21.44.856,multiplicationStroop,2021.2.3,Win32,60.25185274,,,,,,,,,,,,,,,,,,,,,,,,,,,,,,,,,9,1.6994,1,0,31,31,29,1,3,×,3,3 × 3,neutral,tie,1.5,1.5,9,,,,,,,,
,,,,,,,,,,,,,,,674,2022-04-18_21h21.44.856,multiplicationStroop,2021.2.3,Win32,60.25185274,,,,,,,,,,,,,,,,,,,,,,,,,,,,,,,,,64,2.2164,1,0,32,32,34,1,8,×,8,8 × 8,neutral,tie,1.5,1.5,64,,,,,,,,
,,,,,,,,,,,,,,,674,2022-04-18_21h21.44.856,multiplicationStroop,2021.2.3,Win32,60.25185274,,,,,,,,,,,,,,,,,,,,,,,,,,,,,,,,,24,1.5994,1,0,33,33,2,1,4,×,6,4 × 6,neutral,smallerFirst,1.5,1.5,24,,,,,,,,
,,,,,,,,,,,,,,,674,2022-04-18_21h21.44.856,multiplicationStroop,2021.2.3,Win32,60.25185274,,,,,,,,,,,,,,,,,,,,,,,,,,,,,,,,,36,2.0492,1,0,34,34,32,1,6,×,6,6 × 6,neutral,tie,1.5,1.5,36,,,,,,,,
,,,,,,,,,,,,,,,674,2022-04-18_21h21.44.856,multiplicationStroop,2021.2.3,Win32,60.25185274,,,,,,,,,,,,,,,,,,,,,,,,,,,,,,,,,14,1.5663,1,0,35,35,16,1,7,×,2,7 × 2,neutral,largerFirst,1.5,1.5,14,,,,,,,,
,,,,,,,,,,,,,,,674,2022-04-18_21h21.44.856,multiplicationStroop,2021.2.3,Win32,60.25185274,,,,,,,,,,,,,,,,,,,,,,,,,,,,,,,,,,,,,,,,,,,,,,,,,,0,0,0,1,1,stimulusFile/mult_blk2.xlsx,,
,,,,,,,,,,,,,,,674,2022-04-18_21h21.44.856,multiplicationStroop,2021.2.3,Win32,60.25185274,,,,,,,,,,,,,,,,,,,,,,,,,,,,,,,space,1.5249,9,3.0832,1,0,0,0,29,1,3,×,3,3 × 3,neutral,tie,2,1,9,,,,,,,,
,,,,,,,,,,,,,,,674,2022-04-18_21h21.44.856,multiplicationStroop,2021.2.3,Win32,60.25185274,,,,,,,,,,,,,,,,,,,,,,,,,,,,,,,,,32,1.6558,1,0,1,1,21,1,8,×,4,8 × 4,incongruent,largerFirst,1,2,32,,,,,,,,
,,,,,,,,,,,,,,,674,2022-04-18_21h21.44.856,multiplicationStroop,2021.2.3,Win32,60.25185274,,,,,,,,,,,,,,,,,,,,,,,,,,,,,,,,,12,1.5329,1,0,2,2,19,1,4,×,3,4 × 3,incongruent,largerFirst,1,2,12,,,,,,,,
,,,,,,,,,,,,,,,674,2022-04-18_21h21.44.856,multiplicationStroop,2021.2.3,Win32,60.25185274,,,,,,,,,,,,,,,,,,,,,,,,,,,,,,,,,81,2.3828,1,0,3,3,35,1,9,×,9,9 × 9,neutral,tie,2,1,81,,,,,,,,
,,,,,,,,,,,,,,,674,2022-04-18_21h21.44.856,multiplicationStroop,2021.2.3,Win32,60.25185274,,,,,,,,,,,,,,,,,,,,,,,,,,,,,,,,,56,1.7231,1,0,4,4,0,1,7,×,8,7 × 8,incongruent,smallerFirst,2,1,56,,,,,,,,
,,,,,,,,,,,,,,,674,2022-04-18_21h21.44.856,multiplicationStroop,2021.2.3,Win32,60.25185274,,,,,,,,,,,,,,,,,,,,,,,,,,,,,,,,,18,1.7829,1,0,5,5,22,1,6,×,3,6 × 3,incongruent,largerFirst,1,2,18,,,,,,,,
,,,,,,,,,,,,,,,674,2022-04-18_21h21.44.856,multiplicationStroop,2021.2.3,Win32,60.25185274,,,,,,,,,,,,,,,,,,,,,,,,,,,,,,,,,8,2.1495,1,0,6,6,10,1,2,×,4,2 × 4,incongruent,smallerFirst,2,1,8,,,,,,,,
,,,,,,,,,,,,,,,674,2022-04-18_21h21.44.856,multiplicationStroop,2021.2.3,Win32,60.25185274,,,,,,,,,,,,,,,,,,,,,,,,,,,,,,,,,4,1.7828,1,0,7,7,28,1,2,×,2,2 × 2,neutral,tie,2,1,4,,,,,,,,
,,,,,,,,,,,,,,,674,2022-04-18_21h21.44.856,multiplicationStroop,2021.2.3,Win32,60.25185274,,,,,,,,,,,,,,,,,,,,,,,,,,,,,,,,,36,1.7661,1,0,8,8,1,1,4,×,9,4 × 9,incongruent,smallerFirst,2,1,36,,,,,,,,
,,,,,,,,,,,,,,,674,2022-04-18_21h21.44.856,multiplicationStroop,2021.2.3,Win32,60.25185274,,,,,,,,,,,,,,,,,,,,,,,,,,,,,,,,,40,1.866,1,0,9,9,27,1,8,×,5,8 × 5,incongruent,largerFirst,1,2,40,,,,,,,,
,,,,,,,,,,,,,,,674,2022-04-18_21h21.44.856,multiplicationStroop,2021.2.3,Win32,60.25185274,,,,,,,,,,,,,,,,,,,,,,,,,,,,,,,,,16,1.9329,1,0,10,10,30,1,4,×,4,4 × 4,neutral,tie,2,1,16,,,,,,,,
,,,,,,,,,,,,,,,674,2022-04-18_21h21.44.856,multiplicationStroop,2021.2.3,Win32,60.25185274,,,,,,,,,,,,,,,,,,,,,,,,,,,,,,,,,16,1.933,1,0,11,11,9,1,2,×,8,2 × 8,incongruent,smallerFirst,2,1,16,,,,,,,,
,,,,,,,,,,,,,,,674,2022-04-18_21h21.44.856,multiplicationStroop,2021.2.3,Win32,60.25185274,,,,,,,,,,,,,,,,,,,,,,,,,,,,,,,,,25,1.6495,1,0,12,12,31,1,5,×,5,5 × 5,neutral,tie,2,1,25,,,,,,,,
,,,,,,,,,,,,,,,674,2022-04-18_21h21.44.856,multiplicationStroop,2021.2.3,Win32,60.25185274,,,,,,,,,,,,,,,,,,,,,,,,,,,,,,,,,14,1.5994,1,0,13,13,18,1,7,×,2,7 × 2,incongruent,largerFirst,1,2,14,,,,,,,,
,,,,,,,,,,,,,,,674,2022-04-18_21h21.44.856,multiplicationStroop,2021.2.3,Win32,60.25185274,,,,,,,,,,,,,,,,,,,,,,,,,,,,,,,,,10,1.6996,1,0,14,14,7,1,2,×,5,2 × 5,incongruent,smallerFirst,2,1,10,,,,,,,,
,,,,,,,,,,,,,,,674,2022-04-18_21h21.44.856,multiplicationStroop,2021.2.3,Win32,60.25185274,,,,,,,,,,,,,,,,,,,,,,,,,,,,,,,,,35,1.7664,1,0,15,15,26,1,7,×,5,7 × 5,incongruent,largerFirst,1,2,35,,,,,,,,
,,,,,,,,,,,,,,,674,2022-04-18_21h21.44.856,multiplicationStroop,2021.2.3,Win32,60.25185274,,,,,,,,,,,,,,,,,,,,,,,,,,,,,,,,,63,2.9326,1,0,16,16,17,1,9,×,7,9 × 7,incongruent,largerFirst,1,2,63,,,,,,,,
,,,,,,,,,,,,,,,674,2022-04-18_21h21.44.856,multiplicationStroop,2021.2.3,Win32,60.25185274,,,,,,,,,,,,,,,,,,,,,,,,,,,,,,,,,12,1.5393,1,0,17,17,5,1,2,×,6,2 × 6,incongruent,smallerFirst,2,1,12,,,,,,,,
,,,,,,,,,,,,,,,674,2022-04-18_21h21.44.856,multiplicationStroop,2021.2.3,Win32,60.25185274,,,,,,,,,,,,,,,,,,,,,,,,,,,,,,,,,27,2.033,1,0,18,18,4,1,3,×,9,3 × 9,incongruent,smallerFirst,2,1,27,,,,,,,,
,,,,,,,,,,,,,,,674,2022-04-18_21h21.44.856,multiplicationStroop,2021.2.3,Win32,60.25185274,,,,,,,,,,,,,,,,,,,,,,,,,,,,,,,,,42,1.8162,1,0,19,19,3,1,6,×,7,6 × 7,incongruent,smallerFirst,2,1,42,,,,,,,,
,,,,,,,,,,,,,,,674,2022-04-18_21h21.44.856,multiplicationStroop,2021.2.3,Win32,60.25185274,,,,,,,,,,,,,,,,,,,,,,,,,,,,,,,,,72,2.216,1,0,20,20,14,1,9,×,8,9 × 8,incongruent,largerFirst,1,2,72,,,,,,,,
,,,,,,,,,,,,,,,674,2022-04-18_21h21.44.856,multiplicationStroop,2021.2.3,Win32,60.25185274,,,,,,,,,,,,,,,,,,,,,,,,,,,,,,,,,24,1.866,1,0,21,21,23,1,8,×,3,8 × 3,incongruent,largerFirst,1,2,24,,,,,,,,
,,,,,,,,,,,,,,,674,2022-04-18_21h21.44.856,multiplicationStroop,2021.2.3,Win32,60.25185274,,,,,,,,,,,,,,,,,,,,,,,,,,,,,,,,,30,1.8331,1,0,22,22,11,1,5,×,6,5 × 6,incongruent,smallerFirst,2,1,30,,,,,,,,
,,,,,,,,,,,,,,,674,2022-04-18_21h21.44.856,multiplicationStroop,2021.2.3,Win32,60.25185274,,,,,,,,,,,,,,,,,,,,,,,,,,,,,,,,,45,2.1493,1,0,23,23,8,1,5,×,9,5 × 9,incongruent,smallerFirst,2,1,45,,,,,,,,
,,,,,,,,,,,,,,,674,2022-04-18_21h21.44.856,multiplicationStroop,2021.2.3,Win32,60.25185274,,,,,,,,,,,,,,,,,,,,,,,,,,,,,,,,,18,3.0661,1,0,24,24,16,1,9,×,2,9 × 2,incongruent,largerFirst,1,2,18,,,,,,,,
,,,,,,,,,,,,,,,674,2022-04-18_21h21.44.856,multiplicationStroop,2021.2.3,Win32,60.25185274,,,,,,,,,,,,,,,,,,,,,,,,,,,,,,,,,49,2.3495,1,0,25,25,33,1,7,×,7,7 × 7,neutral,tie,2,1,49,,,,,,,,
,,,,,,,,,,,,,,,674,2022-04-18_21h21.44.856,multiplicationStroop,2021.2.3,Win32,60.25185274,,,,,,,,,,,,,,,,,,,,,,,,,,,,,,,,,48,2.1497,1,0,26,26,15,1,8,×,6,8 × 6,incongruent,largerFirst,1,2,48,,,,,,,,
,,,,,,,,,,,,,,,674,2022-04-18_21h21.44.856,multiplicationStroop,2021.2.3,Win32,60.25185274,,,,,,,,,,,,,,,,,,,,,,,,,,,,,,,,,28,2.783,1,0,27,27,2,1,4,×,7,4 × 7,incongruent,smallerFirst,2,1,28,,,,,,,,
,,,,,,,,,,,,,,,674,2022-04-18_21h21.44.856,multiplicationStroop,2021.2.3,Win32,60.25185274,,,,,,,,,,,,,,,,,,,,,,,,,,,,,,,,,54,1.8395,1,0,28,28,20,1,9,×,6,9 × 6,incongruent,largerFirst,1,2,54,,,,,,,,
,,,,,,,,,,,,,,,674,2022-04-18_21h21.44.856,multiplicationStroop,2021.2.3,Win32,60.25185274,,,,,,,,,,,,,,,,,,,,,,,,,,,,,,,,,36,2.1495,1,0,29,29,32,1,6,×,6,6 × 6,neutral,tie,2,1,36,,,,,,,,
,,,,,,,,,,,,,,,674,2022-04-18_21h21.44.856,multiplicationStroop,2021.2.3,Win32,60.25185274,,,,,,,,,,,,,,,,,,,,,,,,,,,,,,,,,21,1.6827,1,0,30,30,12,1,3,×,7,3 × 7,incongruent,smallerFirst,2,1,21,,,,,,,,
,,,,,,,,,,,,,,,674,2022-04-18_21h21.44.856,multiplicationStroop,2021.2.3,Win32,60.25185274,,,,,,,,,,,,,,,,,,,,,,,,,,,,,,,,,20,1.9161,1,0,31,31,13,1,4,×,5,4 × 5,incongruent,smallerFirst,2,1,20,,,,,,,,
,,,,,,,,,,,,,,,674,2022-04-18_21h21.44.856,multiplicationStroop,2021.2.3,Win32,60.25185274,,,,,,,,,,,,,,,,,,,,,,,,,,,,,,,,,6,1.7663,1,0,32,32,25,1,3,×,2,3 × 2,incongruent,largerFirst,1,2,6,,,,,,,,
,,,,,,,,,,,,,,,674,2022-04-18_21h21.44.856,multiplicationStroop,2021.2.3,Win32,60.25185274,,,,,,,,,,,,,,,,,,,,,,,,,,,,,,,,,64,2.6328,1,0,33,33,34,1,8,×,8,8 × 8,neutral,tie,2,1,64,,,,,,,,
,,,,,,,,,,,,,,,674,2022-04-18_21h21.44.856,multiplicationStroop,2021.2.3,Win32,60.25185274,,,,,,,,,,,,,,,,,,,,,,,,,,,,,,,,,15,2.4326,1,0,34,34,24,1,5,×,3,5 × 3,incongruent,largerFirst,1,2,15,,,,,,,,
,,,,,,,,,,,,,,,674,2022-04-18_21h21.44.856,multiplicationStroop,2021.2.3,Win32,60.25185274,,,,,,,,,,,,,,,,,,,,,,,,,,,,,,,,,24,2.0997,1,0,35,35,6,1,4,×,6,4 × 6,incongruent,smallerFirst,2,1,24,,,,,,,,
,,,,,,,,,,,,,,,674,2022-04-18_21h21.44.856,multiplicationStroop,2021.2.3,Win32,60.25185274,,,,,,,,,,,,,,,,,,,,,,,,,,,,,,,,,,,,,,,,,,,,,,,,,,0,1,1,4,1,stimulusFile/mult_blk5_INcongruent.xlsx,,
,,,,,,,,,,,,,,,674,2022-04-18_21h21.44.856,multiplicationStroop,2021.2.3,Win32,60.25185274,,,,,,,,,,,,,,,,,,,,,,,,,,,,,,,space,1.1421,18,2.6012,1,0,0,0,2,1,2,×,9,2 × 9,incongruent,smallerFirst,2,1,18,,,,,,,,
,,,,,,,,,,,,,,,674,2022-04-18_21h21.44.856,multiplicationStroop,2021.2.3,Win32,60.25185274,,,,,,,,,,,,,,,,,,,,,,,,,,,,,,,,,8,1.9663,1,0,1,1,24,1,4,×,2,4 × 2,incongruent,largerFirst,1,2,8,,,,,,,,
,,,,,,,,,,,,,,,674,2022-04-18_21h21.44.856,multiplicationStroop,2021.2.3,Win32,60.25185274,,,,,,,,,,,,,,,,,,,,,,,,,,,,,,,,,16,2.1661,1,0,2,2,30,1,4,×,4,4 × 4,incongruent,tie,1,2,16,,,,,,,,
,,,,,,,,,,,,,,,674,2022-04-18_21h21.44.856,multiplicationStroop,2021.2.3,Win32,60.25185274,,,,,,,,,,,,,,,,,,,,,,,,,,,,,,,,,36,1.9329,1,0,3,3,15,1,9,×,4,9 × 4,incongruent,largerFirst,1,2,36,,,,,,,,
,,,,,,,,,,,,,,,674,2022-04-18_21h21.44.856,multiplicationStroop,2021.2.3,Win32,60.25185274,,,,,,,,,,,,,,,,,,,,,,,,,,,,,,,,,12,1.6497,1,0,4,4,19,1,6,×,2,6 × 2,incongruent,largerFirst,1,2,12,,,,,,,,
,,,,,,,,,,,,,,,674,2022-04-18_21h21.44.856,multiplicationStroop,2021.2.3,Win32,60.25185274,,,,,,,,,,,,,,,,,,,,,,,,,,,,,,,,,36,2.566,1,0,5,5,32,1,6,×,6,6 × 6,incongruent,tie,1,2,36,,,,,,,,
,,,,,,,,,,,,,,,674,2022-04-18_21h21.44.856,multiplicationStroop,2021.2.3,Win32,60.25185274,,,,,,,,,,,,,,,,,,,,,,,,,,,,,,,,,30,1.8331,1,0,6,6,25,1,6,×,5,6 × 5,incongruent,largerFirst,1,2,30,,,,,,,,
,,,,,,,,,,,,,,,674,2022-04-18_21h21.44.856,multiplicationStroop,2021.2.3,Win32,60.25185274,,,,,,,,,,,,,,,,,,,,,,,,,,,,,,,,,10,1.6163,1,0,7,7,21,1,5,×,2,5 × 2,incongruent,largerFirst,1,2,10,,,,,,,,
,,,,,,,,,,,,,,,674,2022-04-18_21h21.44.856,multiplicationStroop,2021.2.3,Win32,60.25185274,,,,,,,,,,,,,,,,,,,,,,,,,,,,,,,,,15,1.8664,1,0,8,8,10,1,3,×,5,3 × 5,incongruent,smallerFirst,2,1,15,,,,,,,,
,,,,,,,,,,,,,,,674,2022-04-18_21h21.44.856,multiplicationStroop,2021.2.3,Win32,60.25185274,,,,,,,,,,,,,,,,,,,,,,,,,,,,,,,,,20,1.8825,1,0,9,9,27,1,5,×,4,5 × 4,incongruent,largerFirst,1,2,20,,,,,,,,
,,,,,,,,,,,,,,,674,2022-04-18_21h21.44.856,multiplicationStroop,2021.2.3,Win32,60.25185274,,,,,,,,,,,,,,,,,,,,,,,,,,,,,,,,,28,2.3663,1,0,10,10,16,1,7,×,4,7 × 4,incongruent,largerFirst,1,2,28,,,,,,,,
,,,,,,,,,,,,,,,674,2022-04-18_21h21.44.856,multiplicationStroop,2021.2.3,Win32,60.25185274,,,,,,,,,,,,,,,,,,,,,,,,,,,,,,,,,72,2.0661,1,0,11,11,0,1,8,×,9,8 × 9,incongruent,smallerFirst,2,1,72,,,,,,,,
,,,,,,,,,,,,,,,674,2022-04-18_21h21.44.856,multiplicationStroop,2021.2.3,Win32,60.25185274,,,,,,,,,,,,,,,,,,,,,,,,,,,,,,,,,42,1.7995,1,0,12,12,17,1,7,×,6,7 × 6,incongruent,largerFirst,1,2,42,,,,,,,,
,,,,,,,,,,,,,,,674,2022-04-18_21h21.44.856,multiplicationStroop,2021.2.3,Win32,60.25185274,,,,,,,,,,,,,,,,,,,,,,,,,,,,,,,,,81,2.0996,1,0,13,13,35,1,9,×,9,9 × 9,incongruent,tie,1,2,81,,,,,,,,
,,,,,,,,,,,,,,,674,2022-04-18_21h21.44.856,multiplicationStroop,2021.2.3,Win32,60.25185274,,,,,,,,,,,,,,,,,,,,,,,,,,,,,,,,,24,1.5996,1,0,14,14,9,1,3,×,8,3 × 8,incongruent,smallerFirst,2,1,24,,,,,,,,
,,,,,,,,,,,,,,,674,2022-04-18_21h21.44.856,multiplicationStroop,2021.2.3,Win32,60.25185274,,,,,,,,,,,,,,,,,,,,,,,,,,,,,,,,,9,1.7994,1,0,15,15,29,1,3,×,3,3 × 3,incongruent,tie,1,2,9,,,,,,,,
,,,,,,,,,,,,,,,674,2022-04-18_21h21.44.856,multiplicationStroop,2021.2.3,Win32,60.25185274,,,,,,,,,,,,,,,,,,,,,,,,,,,,,,,,,14,1.833,1,0,16,16,4,1,2,×,7,2 × 7,incongruent,smallerFirst,2,1,14,,,,,,,,
,,,,,,,,,,,,,,,674,2022-04-18_21h21.44.856,multiplicationStroop,2021.2.3,Win32,60.25185274,,,,,,,,,,,,,,,,,,,,,,,,,,,,,,,,,27,2.0996,1,0,17,17,18,1,9,×,3,9 × 3,incongruent,largerFirst,1,2,27,,,,,,,,
,,,,,,,,,,,,,,,674,2022-04-18_21h21.44.856,multiplicationStroop,2021.2.3,Win32,60.25185274,,,,,,,,,,,,,,,,,,,,,,,,,,,,,,,,,48,2.0726,1,0,18,18,1,1,6,×,8,6 × 8,incongruent,smallerFirst,2,1,48,,,,,,,,
,,,,,,,,,,,,,,,674,2022-04-18_21h21.44.856,multiplicationStroop,2021.2.3,Win32,60.25185274,,,,,,,,,,,,,,,,,,,,,,,,,,,,,,,,,24,1.5162,1,0,19,19,20,1,6,×,4,6 × 4,incongruent,largerFirst,1,2,24,,,,,,,,
,,,,,,,,,,,,,,,674,2022-04-18_21h21.44.856,multiplicationStroop,2021.2.3,Win32,60.25185274,,,,,,,,,,,,,,,,,,,,,,,,,,,,,,,,,6,1.7826,1,0,20,20,11,1,2,×,3,2 × 3,incongruent,smallerFirst,2,1,6,,,,,,,,
,,,,,,,,,,,,,,,674,2022-04-18_21h21.44.856,multiplicationStroop,2021.2.3,Win32,60.25185274,,,,,,,,,,,,,,,,,,,,,,,,,,,,,,,,,63,2.3663,1,0,21,21,3,1,7,×,9,7 × 9,incongruent,smallerFirst,2,1,63,,,,,,,,
,,,,,,,,,,,,,,,674,2022-04-18_21h21.44.856,multiplicationStroop,2021.2.3,Win32,60.25185274,,,,,,,,,,,,,,,,,,,,,,,,,,,,,,,,,45,1.9493,1,0,22,22,22,1,9,×,5,9 × 5,incongruent,largerFirst,1,2,45,,,,,,,,
,,,,,,,,,,,,,,,674,2022-04-18_21h21.44.856,multiplicationStroop,2021.2.3,Win32,60.25185274,,,,,,,,,,,,,,,,,,,,,,,,,,,,,,,,,12,1.4329,1,0,23,23,5,1,3,×,4,3 × 4,incongruent,smallerFirst,2,1,12,,,,,,,,
,,,,,,,,,,,,,,,674,2022-04-18_21h21.44.856,multiplicationStroop,2021.2.3,Win32,60.25185274,,,,,,,,,,,,,,,,,,,,,,,,,,,,,,,,,21,1.3663,1,0,24,24,26,1,7,×,3,7 × 3,incongruent,largerFirst,1,2,21,,,,,,,,
,,,,,,,,,,,,,,,674,2022-04-18_21h21.44.856,multiplicationStroop,2021.2.3,Win32,60.25185274,,,,,,,,,,,,,,,,,,,,,,,,,,,,,,,,,32,2.0494,1,0,25,25,7,1,4,×,8,4 × 8,incongruent,smallerFirst,2,1,32,,,,,,,,
,,,,,,,,,,,,,,,674,2022-04-18_21h21.44.856,multiplicationStroop,2021.2.3,Win32,60.25185274,,,,,,,,,,,,,,,,,,,,,,,,,,,,,,,,,40,1.7996,1,0,26,26,13,1,5,×,8,5 × 8,incongruent,smallerFirst,2,1,40,,,,,,,,
,,,,,,,,,,,,,,,674,2022-04-18_21h21.44.856,multiplicationStroop,2021.2.3,Win32,60.25185274,,,,,,,,,,,,,,,,,,,,,,,,,,,,,,,,,25,1.8825,1,0,27,27,31,1,5,×,5,5 × 5,incongruent,tie,1,2,25,,,,,,,,
,,,,,,,,,,,,,,,674,2022-04-18_21h21.44.856,multiplicationStroop,2021.2.3,Win32,60.25185274,,,,,,,,,,,,,,,,,,,,,,,,,,,,,,,,,56,2.083,1,0,28,28,14,1,8,×,7,8 × 7,incongruent,largerFirst,1,2,56,,,,,,,,
,,,,,,,,,,,,,,,674,2022-04-18_21h21.44.856,multiplicationStroop,2021.2.3,Win32,60.25185274,,,,,,,,,,,,,,,,,,,,,,,,,,,,,,,,,18,1.9659,1,0,29,29,8,1,3,×,6,3 × 6,incongruent,smallerFirst,2,1,18,,,,,,,,
,,,,,,,,,,,,,,,674,2022-04-18_21h21.44.856,multiplicationStroop,2021.2.3,Win32,60.25185274,,,,,,,,,,,,,,,,,,,,,,,,,,,,,,,,,16,1.9496,1,0,30,30,23,1,8,×,2,8 × 2,incongruent,largerFirst,1,2,16,,,,,,,,
,,,,,,,,,,,,,,,674,2022-04-18_21h21.44.856,multiplicationStroop,2021.2.3,Win32,60.25185274,,,,,,,,,,,,,,,,,,,,,,,,,,,,,,,,,49,2.6328,1,0,31,31,33,1,7,×,7,7 × 7,incongruent,tie,1,2,49,,,,,,,,
,,,,,,,,,,,,,,,674,2022-04-18_21h21.44.856,multiplicationStroop,2021.2.3,Win32,60.25185274,,,,,,,,,,,,,,,,,,,,,,,,,,,,,,,,,54,1.9996,1,0,32,32,6,1,6,×,9,6 × 9,incongruent,smallerFirst,2,1,54,,,,,,,,
,,,,,,,,,,,,,,,674,2022-04-18_21h21.44.856,multiplicationStroop,2021.2.3,Win32,60.25185274,,,,,,,,,,,,,,,,,,,,,,,,,,,,,,,,,35,2.6494,1,0,33,33,12,1,5,×,7,5 × 7,incongruent,smallerFirst,2,1,35,,,,,,,,
,,,,,,,,,,,,,,,674,2022-04-18_21h21.44.856,multiplicationStroop,2021.2.3,Win32,60.25185274,,,,,,,,,,,,,,,,,,,,,,,,,,,,,,,,,4,1.6996,1,0,34,34,28,1,2,×,2,2 × 2,incongruent,tie,1,2,4,,,,,,,,
,,,,,,,,,,,,,,,674,2022-04-18_21h21.44.856,multiplicationStroop,2021.2.3,Win32,60.25185274,,,,,,,,,,,,,,,,,,,,,,,,,,,,,,,,,64,2.583,1,0,35,35,34,1,8,×,8,8 × 8,incongruent,tie,1,2,64,,,,,,,,
,,,,,,,,,,,,,,,674,2022-04-18_21h21.44.856,multiplicationStroop,2021.2.3,Win32,60.25185274,,,,,,,,,,,,,,,,,,,,,,,,,,,,,,,,,,,,,,,,,,,,,,,,,,0,2,2,5,1,stimulusFile/mult_blk6_INcongruent.xlsx,,
,,,,,,,,,,,,,,,674,2022-04-18_21h21.44.856,multiplicationStroop,2021.2.3,Win32,60.25185274,,,,,,,,,,,,,,,,,,,,,,,,,,,,,,,space,1.1102,81,2.2368,1,0,0,0,35,1,9,×,9,9 × 9,neutral,tie,1.5,1.5,81,,,,,,,,
,,,,,,,,,,,,,,,674,2022-04-18_21h21.44.856,multiplicationStroop,2021.2.3,Win32,60.25185274,,,,,,,,,,,,,,,,,,,,,,,,,,,,,,,,,15,1.616,1,0,1,1,19,1,5,×,3,5 × 3,neutral,largerFirst,1.5,1.5,15,,,,,,,,
,,,,,,,,,,,,,,,674,2022-04-18_21h21.44.856,multiplicationStroop,2021.2.3,Win32,60.25185274,,,,,,,,,,,,,,,,,,,,,,,,,,,,,,,,,6,1.833,1,0,2,2,12,1,2,×,3,2 × 3,neutral,smallerFirst,1.5,1.5,6,,,,,,,,
,,,,,,,,,,,,,,,674,2022-04-18_21h21.44.856,multiplicationStroop,2021.2.3,Win32,60.25185274,,,,,,,,,,,,,,,,,,,,,,,,,,,,,,,,,30,2.1494,1,0,3,3,5,1,5,×,6,5 × 6,neutral,smallerFirst,1.5,1.5,30,,,,,,,,
,,,,,,,,,,,,,,,674,2022-04-18_21h21.44.856,multiplicationStroop,2021.2.3,Win32,60.25185274,,,,,,,,,,,,,,,,,,,,,,,,,,,,,,,,,40,3.0496,1,0,4,4,10,1,5,×,8,5 × 8,neutral,smallerFirst,1.5,1.5,40,,,,,,,,
,,,,,,,,,,,,,,,674,2022-04-18_21h21.44.856,multiplicationStroop,2021.2.3,Win32,60.25185274,,,,,,,,,,,,,,,,,,,,,,,,,,,,,,,,,24,2.4665,1,0,5,5,8,1,3,×,8,3 × 8,neutral,smallerFirst,1.5,1.5,24,,,,,,,,
,,,,,,,,,,,,,,,674,2022-04-18_21h21.44.856,multiplicationStroop,2021.2.3,Win32,60.25185274,,,,,,,,,,,,,,,,,,,,,,,,,,,,,,,,,32,2.7226,1,0,6,6,9,1,4,×,8,4 × 8,neutral,smallerFirst,1.5,1.5,32,,,,,,,,
,,,,,,,,,,,,,,,674,2022-04-18_21h21.44.856,multiplicationStroop,2021.2.3,Win32,60.25185274,,,,,,,,,,,,,,,,,,,,,,,,,,,,,,,,,20,1.933,1,0,7,7,6,1,4,×,5,4 × 5,neutral,smallerFirst,1.5,1.5,20,,,,,,,,
,,,,,,,,,,,,,,,674,2022-04-18_21h21.44.856,multiplicationStroop,2021.2.3,Win32,60.25185274,,,,,,,,,,,,,,,,,,,,,,,,,,,,,,,,,45,1.8995,1,0,8,8,24,1,9,×,5,9 × 5,neutral,largerFirst,1.5,1.5,45,,,,,,,,
,,,,,,,,,,,,,,,674,2022-04-18_21h21.44.856,multiplicationStroop,2021.2.3,Win32,60.25185274,,,,,,,,,,,,,,,,,,,,,,,,,,,,,,,,,12,1.7992,1,0,9,9,11,1,2,×,6,2 × 6,neutral,smallerFirst,1.5,1.5,12,,,,,,,,
,,,,,,,,,,,,,,,674,2022-04-18_21h21.44.856,multiplicationStroop,2021.2.3,Win32,60.25185274,,,,,,,,,,,,,,,,,,,,,,,,,,,,,,,,,36,2.6329,1,0,10,10,13,1,4,×,9,4 × 9,neutral,smallerFirst,1.5,1.5,36,,,,,,,,
,,,,,,,,,,,,,,,674,2022-04-18_21h21.44.856,multiplicationStroop,2021.2.3,Win32,60.25185274,,,,,,,,,,,,,,,,,,,,,,,,,,,,,,,,,28,1.9162,1,0,11,11,3,1,4,×,7,4 × 7,neutral,smallerFirst,1.5,1.5,28,,,,,,,,
,,,,,,,,,,,,,,,674,2022-04-18_21h21.44.856,multiplicationStroop,2021.2.3,Win32,60.25185274,,,,,,,,,,,,,,,,,,,,,,,,,,,,,,,,,48,2.3161,1,0,12,12,1,1,6,×,8,6 × 8,neutral,smallerFirst,1.5,1.5,48,,,,,,,,
,,,,,,,,,,,,,,,674,2022-04-18_21h21.44.856,multiplicationStroop,2021.2.3,Win32,60.25185274,,,,,,,,,,,,,,,,,,,,,,,,,,,,,,,,,56,1.9664,1,0,13,13,23,1,8,×,7,8 × 7,neutral,largerFirst,1.5,1.5,56,,,,,,,,
,,,,,,,,,,,,,,,674,2022-04-18_21h21.44.856,multiplicationStroop,2021.2.3,Win32,60.25185274,,,,,,,,,,,,,,,,,,,,,,,,,,,,,,,,,35,3.3326,1,0,14,14,15,1,7,×,5,7 × 5,neutral,largerFirst,1.5,1.5,35,,,,,,,,
,,,,,,,,,,,,,,,674,2022-04-18_21h21.44.856,multiplicationStroop,2021.2.3,Win32,60.25185274,,,,,,,,,,,,,,,,,,,,,,,,,,,,,,,,,21,2.0726,1,0,15,15,22,1,7,×,3,7 × 3,neutral,largerFirst,1.5,1.5,21,,,,,,,,
,,,,,,,,,,,,,,,674,2022-04-18_21h21.44.856,multiplicationStroop,2021.2.3,Win32,60.25185274,,,,,,,,,,,,,,,,,,,,,,,,,,,,,,,,,54,2.2663,1,0,16,16,21,1,9,×,6,9 × 6,neutral,largerFirst,1.5,1.5,54,,,,,,,,
,,,,,,,,,,,,,,,674,2022-04-18_21h21.44.856,multiplicationStroop,2021.2.3,Win32,60.25185274,,,,,,,,,,,,,,,,,,,,,,,,,,,,,,,,,14,2.1661,1,0,17,17,2,1,2,×,7,2 × 7,neutral,smallerFirst,1.5,1.5,14,,,,,,,,
,,,,,,,,,,,,,,,674,2022-04-18_21h21.44.856,multiplicationStroop,2021.2.3,Win32,60.25185274,,,,,,,,,,,,,,,,,,,,,,,,,,,,,,,,,24,2.1496,1,0,18,18,16,1,6,×,4,6 × 4,neutral,largerFirst,1.5,1.5,24,,,,,,,,
,,,,,,,,,,,,,,,674,2022-04-18_21h21.44.856,multiplicationStroop,2021.2.3,Win32,60.25185274,,,,,,,,,,,,,,,,,,,,,,,,,,,,,,,,,8,1.933,1,0,19,19,17,1,4,×,2,4 × 2,neutral,largerFirst,1.5,1.5,8,,,,,,,,
,,,,,,,,,,,,,,,674,2022-04-18_21h21.44.856,multiplicationStroop,2021.2.3,Win32,60.25185274,,,,,,,,,,,,,,,,,,,,,,,,,,,,,,,,,49,2.2327,1,0,20,20,33,1,7,×,7,7 × 7,neutral,tie,1.5,1.5,49,,,,,,,,
,,,,,,,,,,,,,,,674,2022-04-18_21h21.44.856,multiplicationStroop,2021.2.3,Win32,60.25185274,,,,,,,,,,,,,,,,,,,,,,,,,,,,,,,,,72,8.1662,1,0,21,21,25,1,9,×,8,9 × 8,neutral,largerFirst,1.5,1.5,72,,,,,,,,
,,,,,,,,,,,,,,,674,2022-04-18_21h21.44.856,multiplicationStroop,2021.2.3,Win32,60.25185274,,,,,,,,,,,,,,,,,,,,,,,,,,,,,,,,,27,2.9396,1,0,22,22,0,1,3,×,9,3 × 9,neutral,smallerFirst,1.5,1.5,27,,,,,,,,
,,,,,,,,,,,,,,,674,2022-04-18_21h21.44.856,multiplicationStroop,2021.2.3,Win32,60.25185274,,,,,,,,,,,,,,,,,,,,,,,,,,,,,,,,,18,2.3394,1,0,23,23,4,1,2,×,9,2 × 9,neutral,smallerFirst,1.5,1.5,18,,,,,,,,
,,,,,,,,,,,,,,,674,2022-04-18_21h21.44.856,multiplicationStroop,2021.2.3,Win32,60.25185274,,,,,,,,,,,,,,,,,,,,,,,,,,,,,,,,,63,2.4498,1,0,24,24,26,1,9,×,7,9 × 7,neutral,largerFirst,1.5,1.5,63,,,,,,,,
,,,,,,,,,,,,,,,674,2022-04-18_21h21.44.856,multiplicationStroop,2021.2.3,Win32,60.25185274,,,,,,,,,,,,,,,,,,,,,,,,,,,,,,,,,42,2.1162,1,0,25,25,20,1,7,×,6,7 × 6,neutral,largerFirst,1.5,1.5,42,,,,,,,,
,,,,,,,,,,,,,,,674,2022-04-18_21h21.44.856,multiplicationStroop,2021.2.3,Win32,60.25185274,,,,,,,,,,,,,,,,,,,,,,,,,,,,,,,,,18,2.316,1,0,26,26,14,1,6,×,3,6 × 3,neutral,largerFirst,1.5,1.5,18,,,,,,,,
,,,,,,,,,,,,,,,674,2022-04-18_21h21.44.856,multiplicationStroop,2021.2.3,Win32,60.25185274,,,,,,,,,,,,,,,,,,,,,,,,,,,,,,,,,9,1.9562,1,0,27,27,29,1,3,×,3,3 × 3,neutral,tie,1.5,1.5,9,,,,,,,,
,,,,,,,,,,,,,,,674,2022-04-18_21h21.44.856,multiplicationStroop,2021.2.3,Win32,60.25185274,,,,,,,,,,,,,,,,,,,,,,,,,,,,,,,,,4,1.8328,1,0,28,28,28,1,2,×,2,2 × 2,neutral,tie,1.5,1.5,4,,,,,,,,
,,,,,,,,,,,,,,,674,2022-04-18_21h21.44.856,multiplicationStroop,2021.2.3,Win32,60.25185274,,,,,,,,,,,,,,,,,,,,,,,,,,,,,,,,,36,2.1495,1,0,29,29,32,1,6,×,6,6 × 6,neutral,tie,1.5,1.5,36,,,,,,,,
,,,,,,,,,,,,,,,674,2022-04-18_21h21.44.856,multiplicationStroop,2021.2.3,Win32,60.25185274,,,,,,,,,,,,,,,,,,,,,,,,,,,,,,,,,12,2.0828,1,0,30,30,7,1,3,×,4,3 × 4,neutral,smallerFirst,1.5,1.5,12,,,,,,,,
,,,,,,,,,,,,,,,674,2022-04-18_21h21.44.856,multiplicationStroop,2021.2.3,Win32,60.25185274,,,,,,,,,,,,,,,,,,,,,,,,,,,,,,,,,25,2.3245,1,0,31,31,31,1,5,×,5,5 × 5,neutral,tie,1.5,1.5,25,,,,,,,,
,,,,,,,,,,,,,,,674,2022-04-18_21h21.44.856,multiplicationStroop,2021.2.3,Win32,60.25185274,,,,,,,,,,,,,,,,,,,,,,,,,,,,,,,,,16,2.1164,1,0,32,32,30,1,4,×,4,4 × 4,neutral,tie,1.5,1.5,16,,,,,,,,
,,,,,,,,,,,,,,,674,2022-04-18_21h21.44.856,multiplicationStroop,2021.2.3,Win32,60.25185274,,,,,,,,,,,,,,,,,,,,,,,,,,,,,,,,,64,2.3827,1,0,33,33,34,1,8,×,8,8 × 8,neutral,tie,1.5,1.5,64,,,,,,,,
,,,,,,,,,,,,,,,674,2022-04-18_21h21.44.856,multiplicationStroop,2021.2.3,Win32,60.25185274,,,,,,,,,,,,,,,,,,,,,,,,,,,,,,,,,10,1.9497,1,0,34,34,18,1,5,×,2,5 × 2,neutral,largerFirst,1.5,1.5,10,,,,,,,,
,,,,,,,,,,,,,,,674,2022-04-18_21h21.44.856,multiplicationStroop,2021.2.3,Win32,60.25185274,,,,,,,,,,,,,,,,,,,,,,,,,,,,,,,,,16,2.0661,1,0,35,35,27,1,8,×,2,8 × 2,neutral,largerFirst,1.5,1.5,16,,,,,,,,
,,,,,,,,,,,,,,,674,2022-04-18_21h21.44.856,multiplicationStroop,2021.2.3,Win32,60.25185274,,,,,,,,,,,,,,,,,,,,,,,,,,,,,,,,,,,,,,,,,,,,,,,,,,0,3,3,0,1,stimulusFile/mult_blk1.xlsx,,
,,,,,,,,,,,,,,,674,2022-04-18_21h21.44.856,multiplicationStroop,2021.2.3,Win32,60.25185274,,,,,,,,,,,,,,,,,,,,,,,,,,,,,,,space,1.1436,12,1.9714,1,0,0,0,19,1,6,×,2,6 × 2,congruent,largerFirst,2,1,12,,,,,,,,
,,,,,,,,,,,,,,,674,2022-04-18_21h21.44.856,multiplicationStroop,2021.2.3,Win32,60.25185274,,,,,,,,,,,,,,,,,,,,,,,,,,,,,,,,,4,1.7995,1,0,1,1,28,1,2,×,2,2 × 2,neutral,tie,2,1,4,,,,,,,,
,,,,,,,,,,,,,,,674,2022-04-18_21h21.44.856,multiplicationStroop,2021.2.3,Win32,60.25185274,,,,,,,,,,,,,,,,,,,,,,,,,,,,,,,,,45,2.5663,1,0,2,2,23,1,9,×,5,9 × 5,congruent,largerFirst,2,1,45,,,,,,,,
,,,,,,,,,,,,,,,674,2022-04-18_21h21.44.856,multiplicationStroop,2021.2.3,Win32,60.25185274,,,,,,,,,,,,,,,,,,,,,,,,,,,,,,,,,32,1.9062,1,0,3,3,20,1,8,×,4,8 × 4,congruent,largerFirst,2,1,32,,,,,,,,
,,,,,,,,,,,,,,,674,2022-04-18_21h21.44.856,multiplicationStroop,2021.2.3,Win32,60.25185274,,,,,,,,,,,,,,,,,,,,,,,,,,,,,,,,,10,1.9662,1,0,4,4,24,1,5,×,2,5 × 2,congruent,largerFirst,2,1,10,,,,,,,,
,,,,,,,,,,,,,,,674,2022-04-18_21h21.44.856,multiplicationStroop,2021.2.3,Win32,60.25185274,,,,,,,,,,,,,,,,,,,,,,,,,,,,,,,,,64,2.2831,1,0,5,5,34,1,8,×,8,8 × 8,neutral,tie,2,1,64,,,,,,,,
,,,,,,,,,,,,,,,674,2022-04-18_21h21.44.856,multiplicationStroop,2021.2.3,Win32,60.25185274,,,,,,,,,,,,,,,,,,,,,,,,,,,,,,,,,35,2.1495,1,0,6,6,1,1,5,×,7,5 × 7,congruent,smallerFirst,1,2,35,,,,,,,,
,,,,,,,,,,,,,,,674,2022-04-18_21h21.44.856,multiplicationStroop,2021.2.3,Win32,60.25185274,,,,,,,,,,,,,,,,,,,,,,,,,,,,,,,,,15,2.3827,1,0,7,7,4,1,3,×,5,3 × 5,congruent,smallerFirst,1,2,15,,,,,,,,
,,,,,,,,,,,,,,,674,2022-04-18_21h21.44.856,multiplicationStroop,2021.2.3,Win32,60.25185274,,,,,,,,,,,,,,,,,,,,,,,,,,,,,,,,,42,2.033,1,0,8,8,3,1,6,×,7,6 × 7,congruent,smallerFirst,1,2,42,,,,,,,,
,,,,,,,,,,,,,,,674,2022-04-18_21h21.44.856,multiplicationStroop,2021.2.3,Win32,60.25185274,,,,,,,,,,,,,,,,,,,,,,,,,,,,,,,,,56,1.9495,1,0,9,9,8,1,7,×,8,7 × 8,congruent,smallerFirst,1,2,56,,,,,,,,
,,,,,,,,,,,,,,,674,2022-04-18_21h21.44.856,multiplicationStroop,2021.2.3,Win32,60.25185274,,,,,,,,,,,,,,,,,,,,,,,,,,,,,,,,,24,2.0164,1,0,10,10,10,1,3,×,8,3 × 8,congruent,smallerFirst,1,2,24,,,,,,,,
,,,,,,,,,,,,,,,674,2022-04-18_21h21.44.856,multiplicationStroop,2021.2.3,Win32,60.25185274,,,,,,,,,,,,,,,,,,,,,,,,,,,,,,,,,25,2.3164,1,0,11,11,31,1,5,×,5,5 × 5,neutral,tie,2,1,25,,,,,,,,
,,,,,,,,,,,,,,,674,2022-04-18_21h21.44.856,multiplicationStroop,2021.2.3,Win32,60.25185274,,,,,,,,,,,,,,,,,,,,,,,,,,,,,,,,,72,2.4327,1,0,12,12,17,1,9,×,8,9 × 8,congruent,largerFirst,2,1,72,,,,,,,,
,,,,,,,,,,,,,,,674,2022-04-18_21h21.44.856,multiplicationStroop,2021.2.3,Win32,60.25185274,,,,,,,,,,,,,,,,,,,,,,,,,,,,,,,,,49,2.1164,1,0,13,13,33,1,7,×,7,7 × 7,neutral,tie,2,1,49,,,,,,,,
,,,,,,,,,,,,,,,674,2022-04-18_21h21.44.856,multiplicationStroop,2021.2.3,Win32,60.25185274,,,,,,,,,,,,,,,,,,,,,,,,,,,,,,,,,27,3.3994,1,0,14,14,26,1,9,×,3,9 × 3,congruent,largerFirst,2,1,27,,,,,,,,
,,,,,,,,,,,,,,,674,2022-04-18_21h21.44.856,multiplicationStroop,2021.2.3,Win32,60.25185274,,,,,,,,,,,,,,,,,,,,,,,,,,,,,,,,,48,2.4391,1,0,15,15,18,1,8,×,6,8 × 6,congruent,largerFirst,2,1,48,,,,,,,,
,,,,,,,,,,,,,,,674,2022-04-18_21h21.44.856,multiplicationStroop,2021.2.3,Win32,60.25185274,,,,,,,,,,,,,,,,,,,,,,,,,,,,,,,,,9,1.7663,1,0,16,16,29,1,3,×,3,3 × 3,neutral,tie,2,1,9,,,,,,,,
,,,,,,,,,,,,,,,674,2022-04-18_21h21.44.856,multiplicationStroop,2021.2.3,Win32,60.25185274,,,,,,,,,,,,,,,,,,,,,,,,,,,,,,,,,8,1.9165,1,0,17,17,9,1,2,×,4,2 × 4,congruent,smallerFirst,1,2,8,,,,,,,,
,,,,,,,,,,,,,,,674,2022-04-18_21h21.44.856,multiplicationStroop,2021.2.3,Win32,60.25185274,,,,,,,,,,,,,,,,,,,,,,,,,,,,,,,,,21,1.3995,1,0,18,18,16,1,7,×,3,7 × 3,congruent,largerFirst,2,1,21,,,,,,,,
,,,,,,,,,,,,,,,674,2022-04-18_21h21.44.856,multiplicationStroop,2021.2.3,Win32,60.25185274,,,,,,,,,,,,,,,,,,,,,,,,,,,,,,,,,36,3.1168,1,0,19,19,32,1,6,×,6,6 × 6,neutral,tie,2,1,36,,,,,,,,
,,,,,,,,,,,,,,,674,2022-04-18_21h21.44.856,multiplicationStroop,2021.2.3,Win32,60.25185274,,,,,,,,,,,,,,,,,,,,,,,,,,,,,,,,,12,1.5222,1,0,20,20,2,1,3,×,4,3 × 4,congruent,smallerFirst,1,2,12,,,,,,,,
,,,,,,,,,,,,,,,674,2022-04-18_21h21.44.856,multiplicationStroop,2021.2.3,Win32,60.25185274,,,,,,,,,,,,,,,,,,,,,,,,,,,,,,,,,20,1.7996,1,0,21,21,7,1,4,×,5,4 × 5,congruent,smallerFirst,1,2,20,,,,,,,,
,,,,,,,,,,,,,,,674,2022-04-18_21h21.44.856,multiplicationStroop,2021.2.3,Win32,60.25185274,,,,,,,,,,,,,,,,,,,,,,,,,,,,,,,,,36,2.083,1,0,22,22,0,1,4,×,9,4 × 9,congruent,smallerFirst,1,2,36,,,,,,,,
,,,,,,,,,,,,,,,674,2022-04-18_21h21.44.856,multiplicationStroop,2021.2.3,Win32,60.25185274,,,,,,,,,,,,,,,,,,,,,,,,,,,,,,,,,40,1.6829,1,0,23,23,6,1,5,×,8,5 × 8,congruent,smallerFirst,1,2,40,,,,,,,,
,,,,,,,,,,,,,,,674,2022-04-18_21h21.44.856,multiplicationStroop,2021.2.3,Win32,60.25185274,,,,,,,,,,,,,,,,,,,,,,,,,,,,,,,,,30,1.6829,1,0,24,24,15,1,6,×,5,6 × 5,congruent,largerFirst,2,1,30,,,,,,,,
,,,,,,,,,,,,,,,674,2022-04-18_21h21.44.856,multiplicationStroop,2021.2.3,Win32,60.25185274,,,,,,,,,,,,,,,,,,,,,,,,,,,,,,,,,6,2.3328,1,0,25,25,13,1,2,×,3,2 × 3,congruent,smallerFirst,1,2,6,,,,,,,,
,,,,,,,,,,,,,,,674,2022-04-18_21h21.44.856,multiplicationStroop,2021.2.3,Win32,60.25185274,,,,,,,,,,,,,,,,,,,,,,,,,,,,,,,,,18,1.9331,1,0,26,26,22,1,9,×,2,9 × 2,congruent,largerFirst,2,1,18,,,,,,,,
,,,,,,,,,,,,,,,674,2022-04-18_21h21.44.856,multiplicationStroop,2021.2.3,Win32,60.25185274,,,,,,,,,,,,,,,,,,,,,,,,,,,,,,,,,54,1.7993,1,0,27,27,12,1,6,×,9,6 × 9,congruent,smallerFirst,1,2,54,,,,,,,,
,,,,,,,,,,,,,,,674,2022-04-18_21h21.44.856,multiplicationStroop,2021.2.3,Win32,60.25185274,,,,,,,,,,,,,,,,,,,,,,,,,,,,,,,,,16,2.166,1,0,28,28,5,1,2,×,8,2 × 8,congruent,smallerFirst,1,2,16,,,,,,,,
,,,,,,,,,,,,,,,674,2022-04-18_21h21.44.856,multiplicationStroop,2021.2.3,Win32,60.25185274,,,,,,,,,,,,,,,,,,,,,,,,,,,,,,,,,24,2.1164,1,0,29,29,25,1,6,×,4,6 × 4,congruent,largerFirst,2,1,24,,,,,,,,
,,,,,,,,,,,,,,,674,2022-04-18_21h21.44.856,multiplicationStroop,2021.2.3,Win32,60.25185274,,,,,,,,,,,,,,,,,,,,,,,,,,,,,,,,,16,2.266,1,0,30,30,30,1,4,×,4,4 × 4,neutral,tie,2,1,16,,,,,,,,
,,,,,,,,,,,,,,,674,2022-04-18_21h21.44.856,multiplicationStroop,2021.2.3,Win32,60.25185274,,,,,,,,,,,,,,,,,,,,,,,,,,,,,,,,,18,2.0162,1,0,31,31,11,1,3,×,6,3 × 6,congruent,smallerFirst,1,2,18,,,,,,,,
,,,,,,,,,,,,,,,674,2022-04-18_21h21.44.856,multiplicationStroop,2021.2.3,Win32,60.25185274,,,,,,,,,,,,,,,,,,,,,,,,,,,,,,,,,14,2.0662,1,0,32,32,14,1,7,×,2,7 × 2,congruent,largerFirst,2,1,14,,,,,,,,
,,,,,,,,,,,,,,,674,2022-04-18_21h21.44.856,multiplicationStroop,2021.2.3,Win32,60.25185274,,,,,,,,,,,,,,,,,,,,,,,,,,,,,,,,,28,2.3998,1,0,33,33,27,1,7,×,4,7 × 4,congruent,largerFirst,2,1,28,,,,,,,,
,,,,,,,,,,,,,,,674,2022-04-18_21h21.44.856,multiplicationStroop,2021.2.3,Win32,60.25185274,,,,,,,,,,,,,,,,,,,,,,,,,,,,,,,,,81,1.8496,1,0,34,34,35,1,9,×,9,9 × 9,neutral,tie,2,1,81,,,,,,,,
,,,,,,,,,,,,,,,674,2022-04-18_21h21.44.856,multiplicationStroop,2021.2.3,Win32,60.25185274,,,,,,,,,,,,,,,,,,,,,,,,,,,,,,,,,63,2.1829,1,0,35,35,21,1,9,×,7,9 × 7,congruent,largerFirst,2,1,63,,,,,,,,
,,,,,,,,,,,,,,,674,2022-04-18_21h21.44.856,multiplicationStroop,2021.2.3,Win32,60.25185274,,,,,,,,,,,,,,,,,,,,,,,,,,,,,,,,,,,,,,,,,,,,,,,,,,0,4,4,2,1,stimulusFile/mult_blk3_congruent.xlsx,,
,,,,,,,,,,,,,,,674,2022-04-18_21h21.44.856,multiplicationStroop,2021.2.3,Win32,60.25185274,,,,,,,,,,,,,,,,,,,,,,,,,,,,,,,space,0.9813,16,2.2333,1,0,0,0,30,1,4,×,4,4 × 4,neutral,tie,1,2,16,,,,,,,,
,,,,,,,,,,,,,,,674,2022-04-18_21h21.44.856,multiplicationStroop,2021.2.3,Win32,60.25185274,,,,,,,,,,,,,,,,,,,,,,,,,,,,,,,,,25,1.7664,1,0,1,1,31,1,5,×,5,5 × 5,neutral,tie,1,2,25,,,,,,,,
,,,,,,,,,,,,,,,674,2022-04-18_21h21.44.856,multiplicationStroop,2021.2.3,Win32,60.25185274,,,,,,,,,,,,,,,,,,,,,,,,,,,,,,,,,28,2.0994,1,0,2,2,13,1,4,×,7,4 × 7,congruent,smallerFirst,1,2,28,,,,,,,,
,,,,,,,,,,,,,,,674,2022-04-18_21h21.44.856,multiplicationStroop,2021.2.3,Win32,60.25185274,,,,,,,,,,,,,,,,,,,,,,,,,,,,,,,,,9,1.7164,1,0,3,3,29,1,3,×,3,3 × 3,neutral,tie,1,2,9,,,,,,,,
,,,,,,,,,,,,,,,674,2022-04-18_21h21.44.856,multiplicationStroop,2021.2.3,Win32,60.25185274,,,,,,,,,,,,,,,,,,,,,,,,,,,,,,,,,24,2.0326,1,0,4,4,11,1,4,×,6,4 × 6,congruent,smallerFirst,1,2,24,,,,,,,,
,,,,,,,,,,,,,,,674,2022-04-18_21h21.44.856,multiplicationStroop,2021.2.3,Win32,60.25185274,,,,,,,,,,,,,,,,,,,,,,,,,,,,,,,,,27,2.0996,1,0,5,5,12,1,3,×,9,3 × 9,congruent,smallerFirst,1,2,27,,,,,,,,
,,,,,,,,,,,,,,,674,2022-04-18_21h21.44.856,multiplicationStroop,2021.2.3,Win32,60.25185274,,,,,,,,,,,,,,,,,,,,,,,,,,,,,,,,,10,3.5329,1,0,6,6,10,1,2,×,5,2 × 5,congruent,smallerFirst,1,2,10,,,,,,,,
,,,,,,,,,,,,,,,674,2022-04-18_21h21.44.856,multiplicationStroop,2021.2.3,Win32,60.25185274,,,,,,,,,,,,,,,,,,,,,,,,,,,,,,,,,30,4.2561,1,0,7,7,1,1,5,×,6,5 × 6,congruent,smallerFirst,1,2,30,,,,,,,,
,,,,,,,,,,,,,,,674,2022-04-18_21h21.44.856,multiplicationStroop,2021.2.3,Win32,60.25185274,,,,,,,,,,,,,,,,,,,,,,,,,,,,,,,,,6,1.9558,1,0,8,8,27,1,3,×,2,3 × 2,congruent,largerFirst,2,1,6,,,,,,,,
,,,,,,,,,,,,,,,674,2022-04-18_21h21.44.856,multiplicationStroop,2021.2.3,Win32,60.25185274,,,,,,,,,,,,,,,,,,,,,,,,,,,,,,,,,45,1.6659,1,0,9,9,9,1,5,×,9,5 × 9,congruent,smallerFirst,1,2,45,,,,,,,,
,,,,,,,,,,,,,,,674,2022-04-18_21h21.44.856,multiplicationStroop,2021.2.3,Win32,60.25185274,,,,,,,,,,,,,,,,,,,,,,,,,,,,,,,,,18,2.133,1,0,10,10,8,1,2,×,9,2 × 9,congruent,smallerFirst,1,2,18,,,,,,,,
,,,,,,,,,,,,,,,674,2022-04-18_21h21.44.856,multiplicationStroop,2021.2.3,Win32,60.25185274,,,,,,,,,,,,,,,,,,,,,,,,,,,,,,,,,14,1.9828,1,0,11,11,0,1,2,×,7,2 × 7,congruent,smallerFirst,1,2,14,,,,,,,,
,,,,,,,,,,,,,,,674,2022-04-18_21h21.44.856,multiplicationStroop,2021.2.3,Win32,60.25185274,,,,,,,,,,,,,,,,,,,,,,,,,,,,,,,,,48,1.9829,1,0,12,12,4,1,6,×,8,6 × 8,congruent,smallerFirst,1,2,48,,,,,,,,
,,,,,,,,,,,,,,,674,2022-04-18_21h21.44.856,multiplicationStroop,2021.2.3,Win32,60.25185274,,,,,,,,,,,,,,,,,,,,,,,,,,,,,,,,,20,1.9165,1,0,13,13,21,1,5,×,4,5 × 4,congruent,largerFirst,2,1,20,,,,,,,,
,,,,,,,,,,,,,,,674,2022-04-18_21h21.44.856,multiplicationStroop,2021.2.3,Win32,60.25185274,,,,,,,,,,,,,,,,,,,,,,,,,,,,,,,,,12,1.5492,1,0,14,14,5,1,2,×,6,2 × 6,congruent,smallerFirst,1,2,12,,,,,,,,
,,,,,,,,,,,,,,,674,2022-04-18_21h21.44.856,multiplicationStroop,2021.2.3,Win32,60.25185274,,,,,,,,,,,,,,,,,,,,,,,,,,,,,,,,,64,2.1665,1,0,15,15,34,1,8,×,8,8 × 8,neutral,tie,1,2,64,,,,,,,,
,,,,,,,,,,,,,,,674,2022-04-18_21h21.44.856,multiplicationStroop,2021.2.3,Win32,60.25185274,,,,,,,,,,,,,,,,,,,,,,,,,,,,,,,,,81,1.8058,1,0,16,16,35,1,9,×,9,9 × 9,neutral,tie,1,2,81,,,,,,,,
,,,,,,,,,,,,,,,674,2022-04-18_21h21.44.856,multiplicationStroop,2021.2.3,Win32,60.25185274,,,,,,,,,,,,,,,,,,,,,,,,,,,,,,,,,40,1.7998,1,0,17,17,20,1,8,×,5,8 × 5,congruent,largerFirst,2,1,40,,,,,,,,
,,,,,,,,,,,,,,,674,2022-04-18_21h21.44.856,multiplicationStroop,2021.2.3,Win32,60.25185274,,,,,,,,,,,,,,,,,,,,,,,,,,,,,,,,,54,1.8331,1,0,18,18,26,1,9,×,6,9 × 6,congruent,largerFirst,2,1,54,,,,,,,,
,,,,,,,,,,,,,,,674,2022-04-18_21h21.44.856,multiplicationStroop,2021.2.3,Win32,60.25185274,,,,,,,,,,,,,,,,,,,,,,,,,,,,,,,,,63,2.0994,1,0,19,19,7,1,7,×,9,7 × 9,congruent,smallerFirst,1,2,63,,,,,,,,
,,,,,,,,,,,,,,,674,2022-04-18_21h21.44.856,multiplicationStroop,2021.2.3,Win32,60.25185274,,,,,,,,,,,,,,,,,,,,,,,,,,,,,,,,,49,2.2662,1,0,20,20,33,1,7,×,7,7 × 7,neutral,tie,1,2,49,,,,,,,,
,,,,,,,,,,,,,,,674,2022-04-18_21h21.44.856,multiplicationStroop,2021.2.3,Win32,60.25185274,,,,,,,,,,,,,,,,,,,,,,,,,,,,,,,,,8,1.8163,1,0,21,21,23,1,4,×,2,4 × 2,congruent,largerFirst,2,1,8,,,,,,,,
,,,,,,,,,,,,,,,674,2022-04-18_21h21.44.856,multiplicationStroop,2021.2.3,Win32,60.25185274,,,,,,,,,,,,,,,,,,,,,,,,,,,,,,,,,56,2.0162,1,0,22,22,22,1,8,×,7,8 × 7,congruent,largerFirst,2,1,56,,,,,,,,
,,,,,,,,,,,,,,,674,2022-04-18_21h21.44.856,multiplicationStroop,2021.2.3,Win32,60.25185274,,,,,,,,,,,,,,,,,,,,,,,,,,,,,,,,,21,1.5831,1,0,23,23,2,1,3,×,7,3 × 7,congruent,smallerFirst,1,2,21,,,,,,,,
,,,,,,,,,,,,,,,674,2022-04-18_21h21.44.856,multiplicationStroop,2021.2.3,Win32,60.25185274,,,,,,,,,,,,,,,,,,,,,,,,,,,,,,,,,36,2.3829,1,0,24,24,32,1,6,×,6,6 × 6,neutral,tie,1,2,36,,,,,,,,
,,,,,,,,,,,,,,,674,2022-04-18_21h21.44.856,multiplicationStroop,2021.2.3,Win32,60.25185274,,,,,,,,,,,,,,,,,,,,,,,,,,,,,,,,,36,2.9494,1,0,25,25,14,1,9,×,4,9 × 4,congruent,largerFirst,2,1,36,,,,,,,,
,,,,,,,,,,,,,,,674,2022-04-18_21h21.44.856,multiplicationStroop,2021.2.3,Win32,60.25185274,,,,,,,,,,,,,,,,,,,,,,,,,,,,,,,,,18,2.2395,1,0,26,26,25,1,6,×,3,6 × 3,congruent,largerFirst,2,1,18,,,,,,,,
,,,,,,,,,,,,,,,674,2022-04-18_21h21.44.856,multiplicationStroop,2021.2.3,Win32,60.25185274,,,,,,,,,,,,,,,,,,,,,,,,,,,,,,,,,35,2.0163,1,0,27,27,15,1,7,×,5,7 × 5,congruent,largerFirst,2,1,35,,,,,,,,
,,,,,,,,,,,,,,,674,2022-04-18_21h21.44.856,multiplicationStroop,2021.2.3,Win32,60.25185274,,,,,,,,,,,,,,,,,,,,,,,,,,,,,,,,,72,2.3664,1,0,28,28,3,1,8,×,9,8 × 9,congruent,smallerFirst,1,2,72,,,,,,,,
,,,,,,,,,,,,,,,674,2022-04-18_21h21.44.856,multiplicationStroop,2021.2.3,Win32,60.25185274,,,,,,,,,,,,,,,,,,,,,,,,,,,,,,,,,12,1.3661,1,0,29,29,16,1,4,×,3,4 × 3,congruent,largerFirst,2,1,12,,,,,,,,
,,,,,,,,,,,,,,,674,2022-04-18_21h21.44.856,multiplicationStroop,2021.2.3,Win32,60.25185274,,,,,,,,,,,,,,,,,,,,,,,,,,,,,,,,,15,1.5831,1,0,30,30,18,1,5,×,3,5 × 3,congruent,largerFirst,2,1,15,,,,,,,,
,,,,,,,,,,,,,,,674,2022-04-18_21h21.44.856,multiplicationStroop,2021.2.3,Win32,60.25185274,,,,,,,,,,,,,,,,,,,,,,,,,,,,,,,,,16,1.7326,1,0,31,31,19,1,8,×,2,8 × 2,congruent,largerFirst,2,1,16,,,,,,,,
,,,,,,,,,,,,,,,674,2022-04-18_21h21.44.856,multiplicationStroop,2021.2.3,Win32,60.25185274,,,,,,,,,,,,,,,,,,,,,,,,,,,,,,,,,32,1.933,1,0,32,32,6,1,4,×,8,4 × 8,congruent,smallerFirst,1,2,32,,,,,,,,
,,,,,,,,,,,,,,,674,2022-04-18_21h21.44.856,multiplicationStroop,2021.2.3,Win32,60.25185274,,,,,,,,,,,,,,,,,,,,,,,,,,,,,,,,,24,2.1165,1,0,33,33,24,1,8,×,3,8 × 3,congruent,largerFirst,2,1,24,,,,,,,,
,,,,,,,,,,,,,,,674,2022-04-18_21h21.44.856,multiplicationStroop,2021.2.3,Win32,60.25185274,,,,,,,,,,,,,,,,,,,,,,,,,,,,,,,,,4,1.4327,1,0,34,34,28,1,2,×,2,2 × 2,neutral,tie,1,2,4,,,,,,,,
,,,,,,,,,,,,,,,674,2022-04-18_21h21.44.856,multiplicationStroop,2021.2.3,Win32,60.25185274,,,,,,,,,,,,,,,,,,,,,,,,,,,,,,,,,42,1.933,1,0,35,35,17,1,7,×,6,7 × 6,congruent,largerFirst,2,1,42,,,,,,,,
,,,,,,,,,,,,,,,674,2022-04-18_21h21.44.856,multiplicationStroop,2021.2.3,Win32,60.25185274,,,,,,,,,,,,,,,,,,,,,,,,,,,,,,,,,,,,,,,,,,,,,,,,,,0,5,5,3,1,stimulusFile/mult_blk4_congruent.xlsx,,
,,,,,,,,,,,,,,,674,2022-04-18_21h21.44.856,multiplicationStroop,2021.2.3,Win32,60.25185274,,,,,,,,,,,,,,,,,,,,,,,,,,,,,,,,,,,,,,,,,,,,,,,,,,,,,,,,space,1.6005