welcomeKey_resp.keys,welcomeKey_resp.rt,X Scale,Y Scale,rt_resp_4.keys,rt_resp_4.corr,rt_resp_4.rt,speedtest_2.thisRepN,speedtest_2.thisTrialN,speedtest_2.thisN,speedtest_2.thisIndex,speedtest_2.ran,numberSc,posX,positionLayout,participant,date,expName,psychopyVersion,OS,frameRate,ct_instrresp.keys,ct_instrresp.rt,key_resp_2.keys,key_resp_2.rt,ct_keyResp.keys,ct_keyResp.corr,ct_keyResp.rt,trials.thisRepN,trials.thisTrialN,trials.thisN,trials.thisIndex,trials.ran,leftNo,rightNo,displayProblem,numDistance,leftNo_size,rightNo_size,Dims,keyAnswer,TS_Loop.thisRepN,TS_Loop.thisTrialN,TS_Loop.thisN,TS_Loop.thisIndex,TS_Loop.ran,Condition,ActionInst,instrImage,mltptaskInst_resp.keys,mltptaskInst_resp.rt,continue_resp_2.keys,continue_resp_2.rt,multp_Answer,multi_RT,multiplyCorr,LoopingMultiply.thisRepN,LoopingMultiply.thisTrialN,LoopingMultiply.thisN,LoopingMultiply.thisIndex,LoopingMultiply.ran,factor1,multiplySign,factor2,multliplyProblem,physicalSize,orderOperand,sizeF1,sizeF2,mult_answer,trials_stroop.thisRepN,trials_stroop.thisTrialN,trials_stroop.thisN,trials_stroop.thisIndex,trials_stroop.ran,multiplicationFile,esckey_resp_2.keys,esckey_resp_2.rt
y,9.9162,31.5,32.8,left,1,0.6379,0,0,0,5,1,7,-200,left,675,2022-04-11_11h17.49.412,multiplicationStroop,2021.2.3,Win32,59.79788315,,,,,,,,,,,,,,,,,,,,,,,,,,,,,,,,,,,,,,,,,,,,,,,,,,,,,,,,,
,,,,right,1,0.4026,0,1,1,10,1,3,200,right,675,2022-04-11_11h17.49.412,multiplicationStroop,2021.2.3,Win32,59.79788315,,,,,,,,,,,,,,,,,,,,,,,,,,,,,,,,,,,,,,,,,,,,,,,,,,,,,,,,,
,,,,right,1,0.534,0,2,2,14,1,8,200,right,675,2022-04-11_11h17.49.412,multiplicationStroop,2021.2.3,Win32,59.79788315,,,,,,,,,,,,,,,,,,,,,,,,,,,,,,,,,,,,,,,,,,,,,,,,,,,,,,,,,
,,,,right,1,0.4144,0,3,3,13,1,7,200,right,675,2022-04-11_11h17.49.412,multiplicationStroop,2021.2.3,Win32,59.79788315,,,,,,,,,,,,,,,,,,,,,,,,,,,,,,,,,,,,,,,,,,,,,,,,,,,,,,,,,
,,,,left,1,0.3579,0,4,4,3,1,4,-200,left,675,2022-04-11_11h17.49.412,multiplicationStroop,2021.2.3,Win32,59.79788315,,,,,,,,,,,,,,,,,,,,,,,,,,,,,,,,,,,,,,,,,,,,,,,,,,,,,,,,,
,,,,left,1,0.397,0,5,5,4,1,6,-200,left,675,2022-04-11_11h17.49.412,multiplicationStroop,2021.2.3,Win32,59.79788315,,,,,,,,,,,,,,,,,,,,,,,,,,,,,,,,,,,,,,,,,,,,,,,,,,,,,,,,,
,,,,right,1,0.3204,0,6,6,8,1,1,200,right,675,2022-04-11_11h17.49.412,multiplicationStroop,2021.2.3,Win32,59.79788315,,,,,,,,,,,,,,,,,,,,,,,,,,,,,,,,,,,,,,,,,,,,,,,,,,,,,,,,,
,,,,left,1,0.3886,0,7,7,6,1,8,-200,left,675,2022-04-11_11h17.49.412,multiplicationStroop,2021.2.3,Win32,59.79788315,,,,,,,,,,,,,,,,,,,,,,,,,,,,,,,,,,,,,,,,,,,,,,,,,,,,,,,,,
,,,,right,1,0.3166,0,8,8,12,1,6,200,right,675,2022-04-11_11h17.49.412,multiplicationStroop,2021.2.3,Win32,59.79788315,,,,,,,,,,,,,,,,,,,,,,,,,,,,,,,,,,,,,,,,,,,,,,,,,,,,,,,,,
,,,,right,1,0.4864,0,9,9,15,1,9,200,right,675,2022-04-11_11h17.49.412,multiplicationStroop,2021.2.3,Win32,59.79788315,,,,,,,,,,,,,,,,,,,,,,,,,,,,,,,,,,,,,,,,,,,,,,,,,,,,,,,,,
,,,,right,1,0.3678,0,10,10,11,1,4,200,right,675,2022-04-11_11h17.49.412,multiplicationStroop,2021.2.3,Win32,59.79788315,,,,,,,,,,,,,,,,,,,,,,,,,,,,,,,,,,,,,,,,,,,,,,,,,,,,,,,,,
,,,,left,1,0.3395,0,11,11,7,1,9,-200,left,675,2022-04-11_11h17.49.412,multiplicationStroop,2021.2.3,Win32,59.79788315,,,,,,,,,,,,,,,,,,,,,,,,,,,,,,,,,,,,,,,,,,,,,,,,,,,,,,,,,
,,,,right,1,0.4812,0,12,12,9,1,2,200,right,675,2022-04-11_11h17.49.412,multiplicationStroop,2021.2.3,Win32,59.79788315,,,,,,,,,,,,,,,,,,,,,,,,,,,,,,,,,,,,,,,,,,,,,,,,,,,,,,,,,
,,,,left,1,0.5711,0,13,13,2,1,3,-200,left,675,2022-04-11_11h17.49.412,multiplicationStroop,2021.2.3,Win32,59.79788315,,,,,,,,,,,,,,,,,,,,,,,,,,,,,,,,,,,,,,,,,,,,,,,,,,,,,,,,,
,,,,left,1,0.4768,0,14,14,0,1,1,-200,left,675,2022-04-11_11h17.49.412,multiplicationStroop,2021.2.3,Win32,59.79788315,,,,,,,,,,,,,,,,,,,,,,,,,,,,,,,,,,,,,,,,,,,,,,,,,,,,,,,,,
,,,,left,1,0.3566,0,15,15,1,1,2,-200,left,675,2022-04-11_11h17.49.412,multiplicationStroop,2021.2.3,Win32,59.79788315,,,,,,,,,,,,,,,,,,,,,,,,,,,,,,,,,,,,,,,,,,,,,,,,,,,,,,,,,
,,,,left,1,0.5373,1,0,16,2,1,3,-200,left,675,2022-04-11_11h17.49.412,multiplicationStroop,2021.2.3,Win32,59.79788315,,,,,,,,,,,,,,,,,,,,,,,,,,,,,,,,,,,,,,,,,,,,,,,,,,,,,,,,,
,,,,right,1,0.4245,1,1,17,11,1,4,200,right,675,2022-04-11_11h17.49.412,multiplicationStroop,2021.2.3,Win32,59.79788315,,,,,,,,,,,,,,,,,,,,,,,,,,,,,,,,,,,,,,,,,,,,,,,,,,,,,,,,,
,,,,right,1,0.4658,1,2,18,13,1,7,200,right,675,2022-04-11_11h17.49.412,multiplicationStroop,2021.2.3,Win32,59.79788315,,,,,,,,,,,,,,,,,,,,,,,,,,,,,,,,,,,,,,,,,,,,,,,,,,,,,,,,,
,,,,left,1,0.4433,1,3,19,3,1,4,-200,left,675,2022-04-11_11h17.49.412,multiplicationStroop,2021.2.3,Win32,59.79788315,,,,,,,,,,,,,,,,,,,,,,,,,,,,,,,,,,,,,,,,,,,,,,,,,,,,,,,,,
,,,,right,1,0.3231,1,4,20,15,1,9,200,right,675,2022-04-11_11h17.49.412,multiplicationStroop,2021.2.3,Win32,59.79788315,,,,,,,,,,,,,,,,,,,,,,,,,,,,,,,,,,,,,,,,,,,,,,,,,,,,,,,,,
,,,,left,1,0.3338,1,5,21,5,1,7,-200,left,675,2022-04-11_11h17.49.412,multiplicationStroop,2021.2.3,Win32,59.79788315,,,,,,,,,,,,,,,,,,,,,,,,,,,,,,,,,,,,,,,,,,,,,,,,,,,,,,,,,
,,,,left,1,0.4813,1,6,22,4,1,6,-200,left,675,2022-04-11_11h17.49.412,multiplicationStroop,2021.2.3,Win32,59.79788315,,,,,,,,,,,,,,,,,,,,,,,,,,,,,,,,,,,,,,,,,,,,,,,,,,,,,,,,,
,,,,right,1,0.3751,1,7,23,14,1,8,200,right,675,2022-04-11_11h17.49.412,multiplicationStroop,2021.2.3,Win32,59.79788315,,,,,,,,,,,,,,,,,,,,,,,,,,,,,,,,,,,,,,,,,,,,,,,,,,,,,,,,,
,,,,right,1,0.4914,1,8,24,10,1,3,200,right,675,2022-04-11_11h17.49.412,multiplicationStroop,2021.2.3,Win32,59.79788315,,,,,,,,,,,,,,,,,,,,,,,,,,,,,,,,,,,,,,,,,,,,,,,,,,,,,,,,,
,,,,right,1,0.4258,1,9,25,8,1,1,200,right,675,2022-04-11_11h17.49.412,multiplicationStroop,2021.2.3,Win32,59.79788315,,,,,,,,,,,,,,,,,,,,,,,,,,,,,,,,,,,,,,,,,,,,,,,,,,,,,,,,,
,,,,left,1,0.3565,1,10,26,1,1,2,-200,left,675,2022-04-11_11h17.49.412,multiplicationStroop,2021.2.3,Win32,59.79788315,,,,,,,,,,,,,,,,,,,,,,,,,,,,,,,,,,,,,,,,,,,,,,,,,,,,,,,,,
,,,,left,1,0.4894,1,11,27,0,1,1,-200,left,675,2022-04-11_11h17.49.412,multiplicationStroop,2021.2.3,Win32,59.79788315,,,,,,,,,,,,,,,,,,,,,,,,,,,,,,,,,,,,,,,,,,,,,,,,,,,,,,,,,
,,,,left,1,0.4097,1,12,28,7,1,9,-200,left,675,2022-04-11_11h17.49.412,multiplicationStroop,2021.2.3,Win32,59.79788315,,,,,,,,,,,,,,,,,,,,,,,,,,,,,,,,,,,,,,,,,,,,,,,,,,,,,,,,,
,,,,left,1,0.4929,1,13,29,6,1,8,-200,left,675,2022-04-11_11h17.49.412,multiplicationStroop,2021.2.3,Win32,59.79788315,,,,,,,,,,,,,,,,,,,,,,,,,,,,,,,,,,,,,,,,,,,,,,,,,,,,,,,,,
,,,,right,1,0.4359,1,14,30,12,1,6,200,right,675,2022-04-11_11h17.49.412,multiplicationStroop,2021.2.3,Win32,59.79788315,,,,,,,,,,,,,,,,,,,,,,,,,,,,,,,,,,,,,,,,,,,,,,,,,,,,,,,,,
,,,,right,1,0.7517,1,15,31,9,1,2,200,right,675,2022-04-11_11h17.49.412,multiplicationStroop,2021.2.3,Win32,59.79788315,,,,,,,,,,,,,,,,,,,,,,,,,,,,,,,,,,,,,,,,,,,,,,,,,,,,,,,,,
,,,,right,1,0.5851,2,0,32,11,1,4,200,right,675,2022-04-11_11h17.49.412,multiplicationStroop,2021.2.3,Win32,59.79788315,,,,,,,,,,,,,,,,,,,,,,,,,,,,,,,,,,,,,,,,,,,,,,,,,,,,,,,,,
,,,,left,1,0.4884,2,1,33,3,1,4,-200,left,675,2022-04-11_11h17.49.412,multiplicationStroop,2021.2.3,Win32,59.79788315,,,,,,,,,,,,,,,,,,,,,,,,,,,,,,,,,,,,,,,,,,,,,,,,,,,,,,,,,
,,,,right,1,0.4355,2,2,34,15,1,9,200,right,675,2022-04-11_11h17.49.412,multiplicationStroop,2021.2.3,Win32,59.79788315,,,,,,,,,,,,,,,,,,,,,,,,,,,,,,,,,,,,,,,,,,,,,,,,,,,,,,,,,
,,,,left,1,0.3406,2,3,35,1,1,2,-200,left,675,2022-04-11_11h17.49.412,multiplicationStroop,2021.2.3,Win32,59.79788315,,,,,,,,,,,,,,,,,,,,,,,,,,,,,,,,,,,,,,,,,,,,,,,,,,,,,,,,,
,,,,right,1,0.3154,2,4,36,8,1,1,200,right,675,2022-04-11_11h17.49.412,multiplicationStroop,2021.2.3,Win32,59.79788315,,,,,,,,,,,,,,,,,,,,,,,,,,,,,,,,,,,,,,,,,,,,,,,,,,,,,,,,,
,,,,left,1,0.3207,2,5,37,2,1,3,-200,left,675,2022-04-11_11h17.49.412,multiplicationStroop,2021.2.3,Win32,59.79788315,,,,,,,,,,,,,,,,,,,,,,,,,,,,,,,,,,,,,,,,,,,,,,,,,,,,,,,,,
,,,,right,1,0.2653,2,6,38,14,1,8,200,right,675,2022-04-11_11h17.49.412,multiplicationStroop,2021.2.3,Win32,59.79788315,,,,,,,,,,,,,,,,,,,,,,,,,,,,,,,,,,,,,,,,,,,,,,,,,,,,,,,,,
,,,,left,1,0.3145,2,7,39,4,1,6,-200,left,675,2022-04-11_11h17.49.412,multiplicationStroop,2021.2.3,Win32,59.79788315,,,,,,,,,,,,,,,,,,,,,,,,,,,,,,,,,,,,,,,,,,,,,,,,,,,,,,,,,
,,,,right,1,0.3002,2,8,40,10,1,3,200,right,675,2022-04-11_11h17.49.412,multiplicationStroop,2021.2.3,Win32,59.79788315,,,,,,,,,,,,,,,,,,,,,,,,,,,,,,,,,,,,,,,,,,,,,,,,,,,,,,,,,
,,,,left,1,0.3348,2,9,41,5,1,7,-200,left,675,2022-04-11_11h17.49.412,multiplicationStroop,2021.2.3,Win32,59.79788315,,,,,,,,,,,,,,,,,,,,,,,,,,,,,,,,,,,,,,,,,,,,,,,,,,,,,,,,,
,,,,left,1,0.4764,2,10,42,7,1,9,-200,left,675,2022-04-11_11h17.49.412,multiplicationStroop,2021.2.3,Win32,59.79788315,,,,,,,,,,,,,,,,,,,,,,,,,,,,,,,,,,,,,,,,,,,,,,,,,,,,,,,,,
,,,,left,1,0.373,2,11,43,0,1,1,-200,left,675,2022-04-11_11h17.49.412,multiplicationStroop,2021.2.3,Win32,59.79788315,,,,,,,,,,,,,,,,,,,,,,,,,,,,,,,,,,,,,,,,,,,,,,,,,,,,,,,,,
,,,,right,1,0.3219,2,12,44,13,1,7,200,right,675,2022-04-11_11h17.49.412,multiplicationStroop,2021.2.3,Win32,59.79788315,,,,,,,,,,,,,,,,,,,,,,,,,,,,,,,,,,,,,,,,,,,,,,,,,,,,,,,,,
,,,,right,1,0.3599,2,13,45,12,1,6,200,right,675,2022-04-11_11h17.49.412,multiplicationStroop,2021.2.3,Win32,59.79788315,,,,,,,,,,,,,,,,,,,,,,,,,,,,,,,,,,,,,,,,,,,,,,,,,,,,,,,,,
,,,,left,1,0.501,2,14,46,6,1,8,-200,left,675,2022-04-11_11h17.49.412,multiplicationStroop,2021.2.3,Win32,59.79788315,,,,,,,,,,,,,,,,,,,,,,,,,,,,,,,,,,,,,,,,,,,,,,,,,,,,,,,,,
,,,,right,1,0.403,2,15,47,9,1,2,200,right,675,2022-04-11_11h17.49.412,multiplicationStroop,2021.2.3,Win32,59.79788315,,,,,,,,,,,,,,,,,,,,,,,,,,,,,,,,,,,,,,,,,,,,,,,,,,,,,,,,,
,,,,right,1,0.479,3,0,48,15,1,9,200,right,675,2022-04-11_11h17.49.412,multiplicationStroop,2021.2.3,Win32,59.79788315,,,,,,,,,,,,,,,,,,,,,,,,,,,,,,,,,,,,,,,,,,,,,,,,,,,,,,,,,
,,,,left,1,0.3993,3,1,49,1,1,2,-200,left,675,2022-04-11_11h17.49.412,multiplicationStroop,2021.2.3,Win32,59.79788315,,,,,,,,,,,,,,,,,,,,,,,,,,,,,,,,,,,,,,,,,,,,,,,,,,,,,,,,,
,,,,right,1,0.3252,3,2,50,9,1,2,200,right,675,2022-04-11_11h17.49.412,multiplicationStroop,2021.2.3,Win32,59.79788315,,,,,,,,,,,,,,,,,,,,,,,,,,,,,,,,,,,,,,,,,,,,,,,,,,,,,,,,,
,,,,right,1,0.4004,3,3,51,14,1,8,200,right,675,2022-04-11_11h17.49.412,multiplicationStroop,2021.2.3,Win32,59.79788315,,,,,,,,,,,,,,,,,,,,,,,,,,,,,,,,,,,,,,,,,,,,,,,,,,,,,,,,,
,,,,right,1,0.4349,3,4,52,8,1,1,200,right,675,2022-04-11_11h17.49.412,multiplicationStroop,2021.2.3,Win32,59.79788315,,,,,,,,,,,,,,,,,,,,,,,,,,,,,,,,,,,,,,,,,,,,,,,,,,,,,,,,,
,,,,right,1,0.4468,3,5,53,12,1,6,200,right,675,2022-04-11_11h17.49.412,multiplicationStroop,2021.2.3,Win32,59.79788315,,,,,,,,,,,,,,,,,,,,,,,,,,,,,,,,,,,,,,,,,,,,,,,,,,,,,,,,,
,,,,left,1,0.4152,3,6,54,3,1,4,-200,left,675,2022-04-11_11h17.49.412,multiplicationStroop,2021.2.3,Win32,59.79788315,,,,,,,,,,,,,,,,,,,,,,,,,,,,,,,,,,,,,,,,,,,,,,,,,,,,,,,,,
,,,,left,1,0.3604,3,7,55,2,1,3,-200,left,675,2022-04-11_11h17.49.412,multiplicationStroop,2021.2.3,Win32,59.79788315,,,,,,,,,,,,,,,,,,,,,,,,,,,,,,,,,,,,,,,,,,,,,,,,,,,,,,,,,
,,,,left,1,0.3669,3,8,56,7,1,9,-200,left,675,2022-04-11_11h17.49.412,multiplicationStroop,2021.2.3,Win32,59.79788315,,,,,,,,,,,,,,,,,,,,,,,,,,,,,,,,,,,,,,,,,,,,,,,,,,,,,,,,,
,,,,right,1,0.3719,3,9,57,13,1,7,200,right,675,2022-04-11_11h17.49.412,multiplicationStroop,2021.2.3,Win32,59.79788315,,,,,,,,,,,,,,,,,,,,,,,,,,,,,,,,,,,,,,,,,,,,,,,,,,,,,,,,,
,,,,left,1,0.3783,3,10,58,5,1,7,-200,left,675,2022-04-11_11h17.49.412,multiplicationStroop,2021.2.3,Win32,59.79788315,,,,,,,,,,,,,,,,,,,,,,,,,,,,,,,,,,,,,,,,,,,,,,,,,,,,,,,,,
,,,,right,1,0.3227,3,11,59,11,1,4,200,right,675,2022-04-11_11h17.49.412,multiplicationStroop,2021.2.3,Win32,59.79788315,,,,,,,,,,,,,,,,,,,,,,,,,,,,,,,,,,,,,,,,,,,,,,,,,,,,,,,,,
,,,,left,1,0.2829,3,12,60,4,1,6,-200,left,675,2022-04-11_11h17.49.412,multiplicationStroop,2021.2.3,Win32,59.79788315,,,,,,,,,,,,,,,,,,,,,,,,,,,,,,,,,,,,,,,,,,,,,,,,,,,,,,,,,
,,,,right,1,0.306,3,13,61,10,1,3,200,right,675,2022-04-11_11h17.49.412,multiplicationStroop,2021.2.3,Win32,59.79788315,,,,,,,,,,,,,,,,,,,,,,,,,,,,,,,,,,,,,,,,,,,,,,,,,,,,,,,,,
,,,,left,1,0.2892,3,14,62,0,1,1,-200,left,675,2022-04-11_11h17.49.412,multiplicationStroop,2021.2.3,Win32,59.79788315,,,,,,,,,,,,,,,,,,,,,,,,,,,,,,,,,,,,,,,,,,,,,,,,,,,,,,,,,
,,,,left,1,0.4408,3,15,63,6,1,8,-200,left,675,2022-04-11_11h17.49.412,multiplicationStroop,2021.2.3,Win32,59.79788315,,,,,,,,,,,,,,,,,,,,,,,,,,,,,,,,,,,,,,,,,,,,,,,,,,,,,,,,,
,,,,,,,,,,,,,,,675,2022-04-11_11h17.49.412,multiplicationStroop,2021.2.3,Win32,59.79788315,space,20.3274,space,4.8181,right,1,1.2148,0,0,0,37,1,4,2,4 | 2,2,1.4111,1.9756,incongruent,right,,,,,,stimulusFile/physical.xlsx,,,,,,,,,,,,,,,,,,,,,,,,,,,,,,,
,,,,,,,,,,,,,,,675,2022-04-11_11h17.49.412,multiplicationStroop,2021.2.3,Win32,59.79788315,,,,,left,1,0.5587,0,1,1,54,1,7,7,7 | 7,0,1.9756,1.4111,neutral,left,,,,,,stimulusFile/physical.xlsx,,,,,,,,,,,,,,,,,,,,,,,,,,,,,,,
,,,,,,,,,,,,,,,675,2022-04-11_11h17.49.412,multiplicationStroop,2021.2.3,Win32,59.79788315,,,,,left,1,0.6281,0,2,2,32,1,1,3,1 | 3,2,1.9756,1.4111,incongruent,left,,,,,,stimulusFile/physical.xlsx,,,,,,,,,,,,,,,,,,,,,,,,,,,,,,,
,,,,,,,,,,,,,,,675,2022-04-11_11h17.49.412,multiplicationStroop,2021.2.3,Win32,59.79788315,,,,,left,1,0.5111,0,3,3,20,1,6,1,6 | 1,5,1.9756,1.4111,congruent,left,,,,,,stimulusFile/physical.xlsx,,,,,,,,,,,,,,,,,,,,,,,,,,,,,,,
,,,,,,,,,,,,,,,675,2022-04-11_11h17.49.412,multiplicationStroop,2021.2.3,Win32,59.79788315,,,,,left,1,0.5244,0,4,4,50,1,6,6,6 | 6,0,1.9756,1.4111,neutral,left,,,,,,stimulusFile/physical.xlsx,,,,,,,,,,,,,,,,,,,,,,,,,,,,,,,
,,,,,,,,,,,,,,,675,2022-04-11_11h17.49.412,multiplicationStroop,2021.2.3,Win32,59.79788315,,,,,left,1,0.9961,0,5,5,40,1,1,6,1 | 6,5,1.9756,1.4111,incongruent,left,,,,,,stimulusFile/physical.xlsx,,,,,,,,,,,,,,,,,,,,,,,,,,,,,,,
,,,,,,,,,,,,,,,675,2022-04-11_11h17.49.412,multiplicationStroop,2021.2.3,Win32,59.79788315,,,,,right,1,0.6015,0,6,6,61,1,4,4,4 | 4,0,1.4111,1.9756,neutral,right,,,,,,stimulusFile/physical.xlsx,,,,,,,,,,,,,,,,,,,,,,,,,,,,,,,
,,,,,,,,,,,,,,,675,2022-04-11_11h17.49.412,multiplicationStroop,2021.2.3,Win32,59.79788315,,,,,left,1,0.4871,0,7,7,6,1,7,6,7 | 6,1,1.9756,1.4111,congruent,left,,,,,,stimulusFile/physical.xlsx,,,,,,,,,,,,,,,,,,,,,,,,,,,,,,,
,,,,,,,,,,,,,,,675,2022-04-11_11h17.49.412,multiplicationStroop,2021.2.3,Win32,59.79788315,,,,,left,1,0.6742,0,8,8,42,1,3,8,3 | 8,5,1.9756,1.4111,incongruent,left,,,,,,stimulusFile/physical.xlsx,,,,,,,,,,,,,,,,,,,,,,,,,,,,,,,
,,,,,,,,,,,,,,,675,2022-04-11_11h17.49.412,multiplicationStroop,2021.2.3,Win32,59.79788315,,,,,right,1,0.5804,0,9,9,29,1,4,3,4 | 3,1,1.4111,1.9756,incongruent,right,,,,,,stimulusFile/physical.xlsx,,,,,,,,,,,,,,,,,,,,,,,,,,,,,,,
,,,,,,,,,,,,,,,675,2022-04-11_11h17.49.412,multiplicationStroop,2021.2.3,Win32,59.79788315,,,,,left,1,0.6371,0,10,10,27,1,8,9,8 | 9,1,1.9756,1.4111,incongruent,left,,,,,,stimulusFile/physical.xlsx,,,,,,,,,,,,,,,,,,,,,,,,,,,,,,,
,,,,,,,,,,,,,,,675,2022-04-11_11h17.49.412,multiplicationStroop,2021.2.3,Win32,59.79788315,,,,,right,1,0.623,0,11,11,28,1,2,1,2 | 1,1,1.4111,1.9756,incongruent,right,,,,,,stimulusFile/physical.xlsx,,,,,,,,,,,,,,,,,,,,,,,,,,,,,,,
,,,,,,,,,,,,,,,675,2022-04-11_11h17.49.412,multiplicationStroop,2021.2.3,Win32,59.79788315,,,,,right,1,0.5166,0,12,12,9,1,2,4,2 | 4,2,1.4111,1.9756,congruent,right,,,,,,stimulusFile/physical.xlsx,,,,,,,,,,,,,,,,,,,,,,,,,,,,,,,
,,,,,,,,,,,,,,,675,2022-04-11_11h17.49.412,multiplicationStroop,2021.2.3,Win32,59.79788315,,,,,left,1,0.4708,0,13,13,48,1,1,1,1 | 1,0,1.9756,1.4111,neutral,left,,,,,,stimulusFile/physical.xlsx,,,,,,,,,,,,,,,,,,,,,,,,,,,,,,,
,,,,,,,,,,,,,,,675,2022-04-11_11h17.49.412,multiplicationStroop,2021.2.3,Win32,59.79788315,,,,,right,1,0.5752,0,14,14,59,1,7,7,7 | 7,0,1.4111,1.9756,neutral,right,,,,,,stimulusFile/physical.xlsx,,,,,,,,,,,,,,,,,,,,,,,,,,,,,,,
,,,,,,,,,,,,,,,675,2022-04-11_11h17.49.412,multiplicationStroop,2021.2.3,Win32,59.79788315,,,,,right,1,0.5629,0,15,15,56,1,1,1,1 | 1,0,1.4111,1.9756,neutral,right,,,,,,stimulusFile/physical.xlsx,,,,,,,,,,,,,,,,,,,,,,,,,,,,,,,
,,,,,,,,,,,,,,,675,2022-04-11_11h17.49.412,multiplicationStroop,2021.2.3,Win32,59.79788315,,,,,right,1,0.6228,0,16,16,10,1,6,8,6 | 8,2,1.4111,1.9756,congruent,right,,,,,,stimulusFile/physical.xlsx,,,,,,,,,,,,,,,,,,,,,,,,,,,,,,,
,,,,,,,,,,,,,,,675,2022-04-11_11h17.49.412,multiplicationStroop,2021.2.3,Win32,59.79788315,,,,,left,1,0.5201,0,17,17,24,1,1,2,1 | 2,1,1.9756,1.4111,incongruent,left,,,,,,stimulusFile/physical.xlsx,,,,,,,,,,,,,,,,,,,,,,,,,,,,,,,
,,,,,,,,,,,,,,,675,2022-04-11_11h17.49.412,multiplicationStroop,2021.2.3,Win32,59.79788315,,,,,right,1,0.55,0,18,18,65,1,2,2,2 | 2,0,1.4111,1.9756,neutral,right,,,,,,stimulusFile/physical.xlsx,,,,,,,,,,,,,,,,,,,,,,,,,,,,,,,
,,,,,,,,,,,,,,,675,2022-04-11_11h17.49.412,multiplicationStroop,2021.2.3,Win32,59.79788315,,,,,right,1,0.5868,0,19,19,46,1,8,3,8 | 3,5,1.4111,1.9756,incongruent,right,,,,,,stimulusFile/physical.xlsx,,,,,,,,,,,,,,,,,,,,,,,,,,,,,,,
,,,,,,,,,,,,,,,675,2022-04-11_11h17.49.412,multiplicationStroop,2021.2.3,Win32,59.79788315,,,,,right,1,0.5124,0,20,20,62,1,8,8,8 | 8,0,1.4111,1.9756,neutral,right,,,,,,stimulusFile/physical.xlsx,,,,,,,,,,,,,,,,,,,,,,,,,,,,,,,
,,,,,,,,,,,,,,,675,2022-04-11_11h17.49.412,multiplicationStroop,2021.2.3,Win32,59.79788315,,,,,right,1,0.4839,0,21,21,60,1,3,3,3 | 3,0,1.4111,1.9756,neutral,right,,,,,,stimulusFile/physical.xlsx,,,,,,,,,,,,,,,,,,,,,,,,,,,,,,,
,,,,,,,,,,,,,,,675,2022-04-11_11h17.49.412,multiplicationStroop,2021.2.3,Win32,59.79788315,,,,,right,1,0.5068,0,22,22,47,1,9,4,9 | 4,5,1.4111,1.9756,incongruent,right,,,,,,stimulusFile/physical.xlsx,,,,,,,,,,,,,,,,,,,,,,,,,,,,,,,
,,,,,,,,,,,,,,,675,2022-04-11_11h17.49.412,multiplicationStroop,2021.2.3,Win32,59.79788315,,,,,left,1,0.5557,0,23,23,12,1,3,1,3 | 1,2,1.9756,1.4111,congruent,left,,,,,,stimulusFile/physical.xlsx,,,,,,,,,,,,,,,,,,,,,,,,,,,,,,,
,,,,,,,,,,,,,,,675,2022-04-11_11h17.49.412,multiplicationStroop,2021.2.3,Win32,59.79788315,,,,,right,1,0.5266,0,24,24,57,1,2,2,2 | 2,0,1.4111,1.9756,neutral,right,,,,,,stimulusFile/physical.xlsx,,,,,,,,,,,,,,,,,,,,,,,,,,,,,,,
,,,,,,,,,,,,,,,675,2022-04-11_11h17.49.412,multiplicationStroop,2021.2.3,Win32,59.79788315,,,,,right,0,0.5723,0,25,25,69,1,7,7,7 | 7,0,1.4111,1.9756,neutral,left,,,,,,stimulusFile/physical.xlsx,,,,,,,,,,,,,,,,,,,,,,,,,,,,,,,
,,,,,,,,,,,,,,,675,2022-04-11_11h17.49.412,multiplicationStroop,2021.2.3,Win32,59.79788315,,,,,left,1,0.5125,0,26,26,7,1,9,8,9 | 8,1,1.9756,1.4111,congruent,left,,,,,,stimulusFile/physical.xlsx,,,,,,,,,,,,,,,,,,,,,,,,,,,,,,,
,,,,,,,,,,,,,,,675,2022-04-11_11h17.49.412,multiplicationStroop,2021.2.3,Win32,59.79788315,,,,,right,1,0.4697,0,27,27,1,1,3,4,3 | 4,1,1.4111,1.9756,congruent,right,,,,,,stimulusFile/physical.xlsx,,,,,,,,,,,,,,,,,,,,,,,,,,,,,,,
,,,,,,,,,,,,,,,675,2022-04-11_11h17.49.412,multiplicationStroop,2021.2.3,Win32,59.79788315,,,,,right,1,0.4987,0,28,28,19,1,4,9,4 | 9,5,1.4111,1.9756,congruent,right,,,,,,stimulusFile/physical.xlsx,,,,,,,,,,,,,,,,,,,,,,,,,,,,,,,
,,,,,,,,,,,,,,,675,2022-04-11_11h17.49.412,multiplicationStroop,2021.2.3,Win32,59.79788315,,,,,right,1,0.5177,0,29,29,2,1,6,7,6 | 7,1,1.4111,1.9756,congruent,right,,,,,,stimulusFile/physical.xlsx,,,,,,,,,,,,,,,,,,,,,,,,,,,,,,,
,,,,,,,,,,,,,,,675,2022-04-11_11h17.49.412,multiplicationStroop,2021.2.3,Win32,59.79788315,,,,,right,1,0.7235,0,30,30,16,1,1,6,1 | 6,5,1.4111,1.9756,congruent,right,,,,,,stimulusFile/physical.xlsx,,,,,,,,,,,,,,,,,,,,,,,,,,,,,,,
,,,,,,,,,,,,,,,675,2022-04-11_11h17.49.412,multiplicationStroop,2021.2.3,Win32,59.79788315,,,,,right,1,0.4646,0,31,31,17,1,2,7,2 | 7,5,1.4111,1.9756,congruent,right,,,,,,stimulusFile/physical.xlsx,,,,,,,,,,,,,,,,,,,,,,,,,,,,,,,
,,,,,,,,,,,,,,,675,2022-04-11_11h17.49.412,multiplicationStroop,2021.2.3,Win32,59.79788315,,,,,left,1,0.5356,0,32,32,49,1,3,3,3 | 3,0,1.9756,1.4111,neutral,left,,,,,,stimulusFile/physical.xlsx,,,,,,,,,,,,,,,,,,,,,,,,,,,,,,,
,,,,,,,,,,,,,,,675,2022-04-11_11h17.49.412,multiplicationStroop,2021.2.3,Win32,59.79788315,,,,,left,1,0.4485,0,33,33,5,1,4,3,4 | 3,1,1.9756,1.4111,congruent,left,,,,,,stimulusFile/physical.xlsx,,,,,,,,,,,,,,,,,,,,,,,,,,,,,,,
,,,,,,,,,,,,,,,675,2022-04-11_11h17.49.412,multiplicationStroop,2021.2.3,Win32,59.79788315,,,,,right,0,0.5337,0,34,34,71,1,9,9,9 | 9,0,1.4111,1.9756,neutral,left,,,,,,stimulusFile/physical.xlsx,,,,,,,,,,,,,,,,,,,,,,,,,,,,,,,
,,,,,,,,,,,,,,,675,2022-04-11_11h17.49.412,multiplicationStroop,2021.2.3,Win32,59.79788315,,,,,left,1,0.5331,0,35,35,53,1,4,4,4 | 4,0,1.9756,1.4111,neutral,left,,,,,,stimulusFile/physical.xlsx,,,,,,,,,,,,,,,,,,,,,,,,,,,,,,,
,,,,,,,,,,,,,,,675,2022-04-11_11h17.49.412,multiplicationStroop,2021.2.3,Win32,59.79788315,,,,,left,1,0.5362,0,36,36,34,1,6,8,6 | 8,2,1.9756,1.4111,incongruent,left,,,,,,stimulusFile/physical.xlsx,,,,,,,,,,,,,,,,,,,,,,,,,,,,,,,
,,,,,,,,,,,,,,,675,2022-04-11_11h17.49.412,multiplicationStroop,2021.2.3,Win32,59.79788315,,,,,right,1,0.5891,0,37,37,31,1,9,8,9 | 8,1,1.4111,1.9756,incongruent,right,,,,,,stimulusFile/physical.xlsx,,,,,,,,,,,,,,,,,,,,,,,,,,,,,,,
,,,,,,,,,,,,,,,675,2022-04-11_11h17.49.412,multiplicationStroop,2021.2.3,Win32,59.79788315,,,,,left,1,0.4726,0,38,38,15,1,9,7,9 | 7,2,1.9756,1.4111,congruent,left,,,,,,stimulusFile/physical.xlsx,,,,,,,,,,,,,,,,,,,,,,,,,,,,,,,
,,,,,,,,,,,,,,,675,2022-04-11_11h17.49.412,multiplicationStroop,2021.2.3,Win32,59.79788315,,,,,left,1,0.5207,0,39,39,13,1,4,2,4 | 2,2,1.9756,1.4111,congruent,left,,,,,,stimulusFile/physical.xlsx,,,,,,,,,,,,,,,,,,,,,,,,,,,,,,,
,,,,,,,,,,,,,,,675,2022-04-11_11h17.49.412,multiplicationStroop,2021.2.3,Win32,59.79788315,,,,,right,1,0.888,0,40,40,30,1,7,6,7 | 6,1,1.4111,1.9756,incongruent,right,,,,,,stimulusFile/physical.xlsx,,,,,,,,,,,,,,,,,,,,,,,,,,,,,,,
,,,,,,,,,,,,,,,675,2022-04-11_11h17.49.412,multiplicationStroop,2021.2.3,Win32,59.79788315,,,,,left,1,0.6685,0,41,41,14,1,8,6,8 | 6,2,1.9756,1.4111,congruent,left,,,,,,stimulusFile/physical.xlsx,,,,,,,,,,,,,,,,,,,,,,,,,,,,,,,
,,,,,,,,,,,,,,,675,2022-04-11_11h17.49.412,multiplicationStroop,2021.2.3,Win32,59.79788315,,,,,left,0,0.5802,0,42,42,66,1,3,3,3 | 3,0,1.9756,1.4111,neutral,right,,,,,,stimulusFile/physical.xlsx,,,,,,,,,,,,,,,,,,,,,,,,,,,,,,,
,,,,,,,,,,,,,,,675,2022-04-11_11h17.49.412,multiplicationStroop,2021.2.3,Win32,59.79788315,,,,,right,1,0.6333,0,43,43,11,1,7,9,7 | 9,2,1.4111,1.9756,congruent,right,,,,,,stimulusFile/physical.xlsx,,,,,,,,,,,,,,,,,,,,,,,,,,,,,,,
,,,,,,,,,,,,,,,675,2022-04-11_11h17.49.412,multiplicationStroop,2021.2.3,Win32,59.79788315,,,,,right,1,0.6328,0,44,44,44,1,6,1,6 | 1,5,1.4111,1.9756,incongruent,right,,,,,,stimulusFile/physical.xlsx,,,,,,,,,,,,,,,,,,,,,,,,,,,,,,,
,,,,,,,,,,,,,,,675,2022-04-11_11h17.49.412,multiplicationStroop,2021.2.3,Win32,59.79788315,,,,,right,1,0.5223,0,45,45,36,1,3,1,3 | 1,2,1.4111,1.9756,incongruent,right,,,,,,stimulusFile/physical.xlsx,,,,,,,,,,,,,,,,,,,,,,,,,,,,,,,
,,,,,,,,,,,,,,,675,2022-04-11_11h17.49.412,multiplicationStroop,2021.2.3,Win32,59.79788315,,,,,left,1,0.5663,0,46,46,23,1,9,4,9 | 4,5,1.9756,1.4111,congruent,left,,,,,,stimulusFile/physical.xlsx,,,,,,,,,,,,,,,,,,,,,,,,,,,,,,,
,,,,,,,,,,,,,,,675,2022-04-11_11h17.49.412,multiplicationStroop,2021.2.3,Win32,59.79788315,,,,,left,1,0.9831,0,47,47,25,1,3,4,3 | 4,1,1.9756,1.4111,incongruent,left,,,,,,stimulusFile/physical.xlsx,,,,,,,,,,,,,,,,,,,,,,,,,,,,,,,
,,,,,,,,,,,,,,,675,2022-04-11_11h17.49.412,multiplicationStroop,2021.2.3,Win32,59.79788315,,,,,left,1,0.631,0,48,48,70,1,8,8,8 | 8,0,1.9756,1.4111,neutral,left,,,,,,stimulusFile/physical.xlsx,,,,,,,,,,,,,,,,,,,,,,,,,,,,,,,
,,,,,,,,,,,,,,,675,2022-04-11_11h17.49.412,multiplicationStroop,2021.2.3,Win32,59.79788315,,,,,right,1,0.5733,0,49,49,58,1,6,6,6 | 6,0,1.4111,1.9756,neutral,right,,,,,,stimulusFile/physical.xlsx,,,,,,,,,,,,,,,,,,,,,,,,,,,,,,,
,,,,,,,,,,,,,,,675,2022-04-11_11h17.49.412,multiplicationStroop,2021.2.3,Win32,59.79788315,,,,,right,1,0.5043,0,50,50,8,1,1,3,1 | 3,2,1.4111,1.9756,congruent,right,,,,,,stimulusFile/physical.xlsx,,,,,,,,,,,,,,,,,,,,,,,,,,,,,,,
,,,,,,,,,,,,,,,675,2022-04-11_11h17.49.412,multiplicationStroop,2021.2.3,Win32,59.79788315,,,,,right,1,0.4798,0,51,51,38,1,8,6,8 | 6,2,1.4111,1.9756,incongruent,right,,,,,,stimulusFile/physical.xlsx,,,,,,,,,,,,,,,,,,,,,,,,,,,,,,,
,,,,,,,,,,,,,,,675,2022-04-11_11h17.49.412,multiplicationStroop,2021.2.3,Win32,59.79788315,,,,,right,1,0.4887,0,52,52,3,1,8,9,8 | 9,1,1.4111,1.9756,congruent,right,,,,,,stimulusFile/physical.xlsx,,,,,,,,,,,,,,,,,,,,,,,,,,,,,,,
,,,,,,,,,,,,,,,675,2022-04-11_11h17.49.412,multiplicationStroop,2021.2.3,Win32,59.79788315,,,,,left,1,0.55,0,53,53,22,1,8,3,8 | 3,5,1.9756,1.4111,congruent,left,,,,,,stimulusFile/physical.xlsx,,,,,,,,,,,,,,,,,,,,,,,,,,,,,,,
,,,,,,,,,,,,,,,675,2022-04-11_11h17.49.412,multiplicationStroop,2021.2.3,Win32,59.79788315,,,,,left,1,0.4497,0,54,54,21,1,7,2,7 | 2,5,1.9756,1.4111,congruent,left,,,,,,stimulusFile/physical.xlsx,,,,,,,,,,,,,,,,,,,,,,,,,,,,,,,
,,,,,,,,,,,,,,,675,2022-04-11_11h17.49.412,multiplicationStroop,2021.2.3,Win32,59.79788315,,,,,left,1,0.4923,0,55,55,55,1,9,9,9 | 9,0,1.9756,1.4111,neutral,left,,,,,,stimulusFile/physical.xlsx,,,,,,,,,,,,,,,,,,,,,,,,,,,,,,,
,,,,,,,,,,,,,,,675,2022-04-11_11h17.49.412,multiplicationStroop,2021.2.3,Win32,59.79788315,,,,,right,1,0.6426,0,56,56,63,1,9,9,9 | 9,0,1.4111,1.9756,neutral,right,,,,,,stimulusFile/physical.xlsx,,,,,,,,,,,,,,,,,,,,,,,,,,,,,,,
,,,,,,,,,,,,,,,675,2022-04-11_11h17.49.412,multiplicationStroop,2021.2.3,Win32,59.79788315,,,,,left,1,0.4831,0,57,57,35,1,7,9,7 | 9,2,1.9756,1.4111,incongruent,left,,,,,,stimulusFile/physical.xlsx,,,,,,,,,,,,,,,,,,,,,,,,,,,,,,,
,,,,,,,,,,,,,,,675,2022-04-11_11h17.49.412,multiplicationStroop,2021.2.3,Win32,59.79788315,,,,,right,1,0.8265,0,58,58,18,1,3,8,3 | 8,5,1.4111,1.9756,congruent,right,,,,,,stimulusFile/physical.xlsx,,,,,,,,,,,,,,,,,,,,,,,,,,,,,,,
,,,,,,,,,,,,,,,675,2022-04-11_11h17.49.412,multiplicationStroop,2021.2.3,Win32,59.79788315,,,,,left,1,0.4666,0,59,59,51,1,8,8,8 | 8,0,1.9756,1.4111,neutral,left,,,,,,stimulusFile/physical.xlsx,,,,,,,,,,,,,,,,,,,,,,,,,,,,,,,
,,,,,,,,,,,,,,,675,2022-04-11_11h17.49.412,multiplicationStroop,2021.2.3,Win32,59.79788315,,,,,left,1,0.7873,0,60,60,41,1,2,7,2 | 7,5,1.9756,1.4111,incongruent,left,,,,,,stimulusFile/physical.xlsx,,,,,,,,,,,,,,,,,,,,,,,,,,,,,,,
,,,,,,,,,,,,,,,675,2022-04-11_11h17.49.412,multiplicationStroop,2021.2.3,Win32,59.79788315,,,,,right,1,0.5251,0,61,61,67,1,4,4,4 | 4,0,1.4111,1.9756,neutral,right,,,,,,stimulusFile/physical.xlsx,,,,,,,,,,,,,,,,,,,,,,,,,,,,,,,
,,,,,,,,,,,,,,,675,2022-04-11_11h17.49.412,multiplicationStroop,2021.2.3,Win32,59.79788315,,,,,left,1,0.6198,0,62,62,52,1,2,2,2 | 2,0,1.9756,1.4111,neutral,left,,,,,,stimulusFile/physical.xlsx,,,,,,,,,,,,,,,,,,,,,,,,,,,,,,,
,,,,,,,,,,,,,,,675,2022-04-11_11h17.49.412,multiplicationStroop,2021.2.3,Win32,59.79788315,,,,,left,1,0.4694,0,63,63,26,1,6,7,6 | 7,1,1.9756,1.4111,incongruent,left,,,,,,stimulusFile/physical.xlsx,,,,,,,,,,,,,,,,,,,,,,,,,,,,,,,
,,,,,,,,,,,,,,,675,2022-04-11_11h17.49.412,multiplicationStroop,2021.2.3,Win32,59.79788315,,,,,left,1,0.5625,0,64,64,68,1,6,6,6 | 6,0,1.9756,1.4111,neutral,left,,,,,,stimulusFile/physical.xlsx,,,,,,,,,,,,,,,,,,,,,,,,,,,,,,,
,,,,,,,,,,,,,,,675,2022-04-11_11h17.49.412,multiplicationStroop,2021.2.3,Win32,59.79788315,,,,,left,1,0.5215,0,65,65,43,1,4,9,4 | 9,5,1.9756,1.4111,incongruent,left,,,,,,stimulusFile/physical.xlsx,,,,,,,,,,,,,,,,,,,,,,,,,,,,,,,
,,,,,,,,,,,,,,,675,2022-04-11_11h17.49.412,multiplicationStroop,2021.2.3,Win32,59.79788315,,,,,left,1,0.5202,0,66,66,4,1,2,1,2 | 1,1,1.9756,1.4111,congruent,left,,,,,,stimulusFile/physical.xlsx,,,,,,,,,,,,,,,,,,,,,,,,,,,,,,,
,,,,,,,,,,,,,,,675,2022-04-11_11h17.49.412,multiplicationStroop,2021.2.3,Win32,59.79788315,,,,,right,1,0.513,0,67,67,45,1,7,2,7 | 2,5,1.4111,1.9756,incongruent,right,,,,,,stimulusFile/physical.xlsx,,,,,,,,,,,,,,,,,,,,,,,,,,,,,,,
,,,,,,,,,,,,,,,675,2022-04-11_11h17.49.412,multiplicationStroop,2021.2.3,Win32,59.79788315,,,,,left,0,0.5963,0,68,68,64,1,1,1,1 | 1,0,1.9756,1.4111,neutral,right,,,,,,stimulusFile/physical.xlsx,,,,,,,,,,,,,,,,,,,,,,,,,,,,,,,
,,,,,,,,,,,,,,,675,2022-04-11_11h17.49.412,multiplicationStroop,2021.2.3,Win32,59.79788315,,,,,left,1,0.6693,0,69,69,33,1,2,4,2 | 4,2,1.9756,1.4111,incongruent,left,,,,,,stimulusFile/physical.xlsx,,,,,,,,,,,,,,,,,,,,,,,,,,,,,,,
,,,,,,,,,,,,,,,675,2022-04-11_11h17.49.412,multiplicationStroop,2021.2.3,Win32,59.79788315,,,,,right,1,0.565,0,70,70,39,1,9,7,9 | 7,2,1.4111,1.9756,incongruent,right,,,,,,stimulusFile/physical.xlsx,,,,,,,,,,,,,,,,,,,,,,,,,,,,,,,
,,,,,,,,,,,,,,,675,2022-04-11_11h17.49.412,multiplicationStroop,2021.2.3,Win32,59.79788315,,,,,right,1,0.5135,0,71,71,0,1,1,2,1 | 2,1,1.4111,1.9756,congruent,right,,,,,,stimulusFile/physical.xlsx,,,,,,,,,,,,,,,,,,,,,,,,,,,,,,,
,,,,,,,,,,,,,,,675,2022-04-11_11h17.49.412,multiplicationStroop,2021.2.3,Win32,59.79788315,,,,,,,,,,,,,,,,,,,,,0,0,0,1,1,stimulusFile/physical.xlsx,PHYSICALLY larger (larger font size).,images/physicallyLarger.png,,,,,,,,,,,,,,,,,,,,,,,,,,,,,
,,,,,,,,,,,,,,,675,2022-04-11_11h17.49.412,multiplicationStroop,2021.2.3,Win32,59.79788315,space,12.0656,space,1.991,left,1,0.8419,0,0,0,15,1,9,7,9 | 7,2,1.9756,1.4111,congruent,left,,,,,,stimulusFile/magnitude.xlsx,,,,,,,,,,,,,,,,,,,,,,,,,,,,,,,
,,,,,,,,,,,,,,,675,2022-04-11_11h17.49.412,multiplicationStroop,2021.2.3,Win32,59.79788315,,,,,right,1,1.691,0,1,1,32,1,1,3,1 | 3,2,1.9756,1.4111,incongruent,right,,,,,,stimulusFile/magnitude.xlsx,,,,,,,,,,,,,,,,,,,,,,,,,,,,,,,
,,,,,,,,,,,,,,,675,2022-04-11_11h17.49.412,multiplicationStroop,2021.2.3,Win32,59.79788315,,,,,right,1,1.4319,0,2,2,17,1,2,7,2 | 7,5,1.4111,1.9756,congruent,right,,,,,,stimulusFile/magnitude.xlsx,,,,,,,,,,,,,,,,,,,,,,,,,,,,,,,
,,,,,,,,,,,,,,,675,2022-04-11_11h17.49.412,multiplicationStroop,2021.2.3,Win32,59.79788315,,,,,left,1,0.7713,0,3,3,23,1,9,4,9 | 4,5,1.9756,1.4111,congruent,left,,,,,,stimulusFile/magnitude.xlsx,,,,,,,,,,,,,,,,,,,,,,,,,,,,,,,
,,,,,,,,,,,,,,,675,2022-04-11_11h17.49.412,multiplicationStroop,2021.2.3,Win32,59.79788315,,,,,left,1,1.168,0,4,4,36,1,3,1,3 | 1,2,1.4111,1.9756,incongruent,left,,,,,,stimulusFile/magnitude.xlsx,,,,,,,,,,,,,,,,,,,,,,,,,,,,,,,
,,,,,,,,,,,,,,,675,2022-04-11_11h17.49.412,multiplicationStroop,2021.2.3,Win32,59.79788315,,,,,left,1,0.8334,0,5,5,21,1,7,2,7 | 2,5,1.9756,1.4111,congruent,left,,,,,,stimulusFile/magnitude.xlsx,,,,,,,,,,,,,,,,,,,,,,,,,,,,,,,
,,,,,,,,,,,,,,,675,2022-04-11_11h17.49.412,multiplicationStroop,2021.2.3,Win32,59.79788315,,,,,right,1,1.1919,0,6,6,43,1,4,9,4 | 9,5,1.9756,1.4111,incongruent,right,,,,,,stimulusFile/magnitude.xlsx,,,,,,,,,,,,,,,,,,,,,,,,,,,,,,,
,,,,,,,,,,,,,,,675,2022-04-11_11h17.49.412,multiplicationStroop,2021.2.3,Win32,59.79788315,,,,,right,1,1.2413,0,7,7,10,1,6,8,6 | 8,2,1.4111,1.9756,congruent,right,,,,,,stimulusFile/magnitude.xlsx,,,,,,,,,,,,,,,,,,,,,,,,,,,,,,,
,,,,,,,,,,,,,,,675,2022-04-11_11h17.49.412,multiplicationStroop,2021.2.3,Win32,59.79788315,,,,,left,1,0.9316,0,8,8,6,1,7,6,7 | 6,1,1.9756,1.4111,congruent,left,,,,,,stimulusFile/magnitude.xlsx,,,,,,,,,,,,,,,,,,,,,,,,,,,,,,,
,,,,,,,,,,,,,,,675,2022-04-11_11h17.49.412,multiplicationStroop,2021.2.3,Win32,59.79788315,,,,,right,1,0.5639,0,9,9,66,1,3,8,3 | 8,5,1.6933,1.6933,neutral,right,,,,,,stimulusFile/magnitude.xlsx,,,,,,,,,,,,,,,,,,,,,,,,,,,,,,,
,,,,,,,,,,,,,,,675,2022-04-11_11h17.49.412,multiplicationStroop,2021.2.3,Win32,59.79788315,,,,,right,1,0.5587,0,10,10,19,1,4,9,4 | 9,5,1.4111,1.9756,congruent,right,,,,,,stimulusFile/magnitude.xlsx,,,,,,,,,,,,,,,,,,,,,,,,,,,,,,,
,,,,,,,,,,,,,,,675,2022-04-11_11h17.49.412,multiplicationStroop,2021.2.3,Win32,59.79788315,,,,,left,0,0.98,0,11,11,64,1,1,6,1 | 6,5,1.6933,1.6933,neutral,right,,,,,,stimulusFile/magnitude.xlsx,,,,,,,,,,,,,,,,,,,,,,,,,,,,,,,
,,,,,,,,,,,,,,,675,2022-04-11_11h17.49.412,multiplicationStroop,2021.2.3,Win32,59.79788315,,,,,left,1,1.3101,0,12,12,20,1,6,1,6 | 1,5,1.9756,1.4111,congruent,left,,,,,,stimulusFile/magnitude.xlsx,,,,,,,,,,,,,,,,,,,,,,,,,,,,,,,
,,,,,,,,,,,,,,,675,2022-04-11_11h17.49.412,multiplicationStroop,2021.2.3,Win32,59.79788315,,,,,left,1,1.4733,0,13,13,37,1,4,2,4 | 2,2,1.4111,1.9756,incongruent,left,,,,,,stimulusFile/magnitude.xlsx,,,,,,,,,,,,,,,,,,,,,,,,,,,,,,,
,,,,,,,,,,,,,,,675,2022-04-11_11h17.49.412,multiplicationStroop,2021.2.3,Win32,59.79788315,,,,,left,1,0.6531,0,14,14,12,1,3,1,3 | 1,2,1.9756,1.4111,congruent,left,,,,,,stimulusFile/magnitude.xlsx,,,,,,,,,,,,,,,,,,,,,,,,,,,,,,,
,,,,,,,,,,,,,,,675,2022-04-11_11h17.49.412,multiplicationStroop,2021.2.3,Win32,59.79788315,,,,,right,1,0.7589,0,15,15,59,1,7,9,7 | 9,2,1.6933,1.6933,neutral,right,,,,,,stimulusFile/magnitude.xlsx,,,,,,,,,,,,,,,,,,,,,,,,,,,,,,,
,,,,,,,,,,,,,,,675,2022-04-11_11h17.49.412,multiplicationStroop,2021.2.3,Win32,59.79788315,,,,,left,1,1.0051,0,16,16,71,1,9,4,9 | 4,5,1.6933,1.6933,neutral,left,,,,,,stimulusFile/magnitude.xlsx,,,,,,,,,,,,,,,,,,,,,,,,,,,,,,,
,,,,,,,,,,,,,,,675,2022-04-11_11h17.49.412,multiplicationStroop,2021.2.3,Win32,59.79788315,,,,,right,1,0.8348,0,17,17,8,1,1,3,1 | 3,2,1.4111,1.9756,congruent,right,,,,,,stimulusFile/magnitude.xlsx,,,,,,,,,,,,,,,,,,,,,,,,,,,,,,,
,,,,,,,,,,,,,,,675,2022-04-11_11h17.49.412,multiplicationStroop,2021.2.3,Win32,59.79788315,,,,,right,1,0.9058,0,18,18,35,1,7,9,7 | 9,2,1.9756,1.4111,incongruent,right,,,,,,stimulusFile/magnitude.xlsx,,,,,,,,,,,,,,,,,,,,,,,,,,,,,,,
,,,,,,,,,,,,,,,675,2022-04-11_11h17.49.412,multiplicationStroop,2021.2.3,Win32,59.79788315,,,,,right,1,1.3927,0,19,19,34,1,6,8,6 | 8,2,1.9756,1.4111,incongruent,right,,,,,,stimulusFile/magnitude.xlsx,,,,,,,,,,,,,,,,,,,,,,,,,,,,,,,
,,,,,,,,,,,,,,,675,2022-04-11_11h17.49.412,multiplicationStroop,2021.2.3,Win32,59.79788315,,,,,right,1,1.0988,0,20,20,3,1,8,9,8 | 9,1,1.4111,1.9756,congruent,right,,,,,,stimulusFile/magnitude.xlsx,,,,,,,,,,,,,,,,,,,,,,,,,,,,,,,
,,,,,,,,,,,,,,,675,2022-04-11_11h17.49.412,multiplicationStroop,2021.2.3,Win32,59.79788315,,,,,right,1,1.037,0,21,21,50,1,6,7,6 | 7,1,1.6933,1.6933,neutral,right,,,,,,stimulusFile/magnitude.xlsx,,,,,,,,,,,,,,,,,,,,,,,,,,,,,,,
,,,,,,,,,,,,,,,675,2022-04-11_11h17.49.412,multiplicationStroop,2021.2.3,Win32,59.79788315,,,,,right,1,1.2767,0,22,22,48,1,1,2,1 | 2,1,1.6933,1.6933,neutral,right,,,,,,stimulusFile/magnitude.xlsx,,,,,,,,,,,,,,,,,,,,,,,,,,,,,,,
,,,,,,,,,,,,,,,675,2022-04-11_11h17.49.412,multiplicationStroop,2021.2.3,Win32,59.79788315,,,,,left,1,0.8761,0,23,23,69,1,7,2,7 | 2,5,1.6933,1.6933,neutral,left,,,,,,stimulusFile/magnitude.xlsx,,,,,,,,,,,,,,,,,,,,,,,,,,,,,,,
,,,,,,,,,,,,,,,675,2022-04-11_11h17.49.412,multiplicationStroop,2021.2.3,Win32,59.79788315,,,,,left,1,0.8808,0,24,24,29,1,4,3,4 | 3,1,1.4111,1.9756,incongruent,left,,,,,,stimulusFile/magnitude.xlsx,,,,,,,,,,,,,,,,,,,,,,,,,,,,,,,
,,,,,,,,,,,,,,,675,2022-04-11_11h17.49.412,multiplicationStroop,2021.2.3,Win32,59.79788315,,,,,right,1,0.7427,0,25,25,0,1,1,2,1 | 2,1,1.4111,1.9756,congruent,right,,,,,,stimulusFile/magnitude.xlsx,,,,,,,,,,,,,,,,,,,,,,,,,,,,,,,
,,,,,,,,,,,,,,,675,2022-04-11_11h17.49.412,multiplicationStroop,2021.2.3,Win32,59.79788315,,,,,left,1,0.6582,0,26,26,5,1,4,3,4 | 3,1,1.9756,1.4111,congruent,left,,,,,,stimulusFile/magnitude.xlsx,,,,,,,,,,,,,,,,,,,,,,,,,,,,,,,
,,,,,,,,,,,,,,,675,2022-04-11_11h17.49.412,multiplicationStroop,2021.2.3,Win32,59.79788315,,,,,right,1,0.715,0,27,27,57,1,2,4,2 | 4,2,1.6933,1.6933,neutral,right,,,,,,stimulusFile/magnitude.xlsx,,,,,,,,,,,,,,,,,,,,,,,,,,,,,,,
,,,,,,,,,,,,,,,675,2022-04-11_11h17.49.412,multiplicationStroop,2021.2.3,Win32,59.79788315,,,,,left,1,0.6647,0,28,28,28,1,2,1,2 | 1,1,1.4111,1.9756,incongruent,left,,,,,,stimulusFile/magnitude.xlsx,,,,,,,,,,,,,,,,,,,,,,,,,,,,,,,
,,,,,,,,,,,,,,,675,2022-04-11_11h17.49.412,multiplicationStroop,2021.2.3,Win32,59.79788315,,,,,left,1,0.615,0,29,29,13,1,4,2,4 | 2,2,1.9756,1.4111,congruent,left,,,,,,stimulusFile/magnitude.xlsx,,,,,,,,,,,,,,,,,,,,,,,,,,,,,,,
,,,,,,,,,,,,,,,675,2022-04-11_11h17.49.412,multiplicationStroop,2021.2.3,Win32,59.79788315,,,,,right,1,0.7125,0,30,30,58,1,6,8,6 | 8,2,1.6933,1.6933,neutral,right,,,,,,stimulusFile/magnitude.xlsx,,,,,,,,,,,,,,,,,,,,,,,,,,,,,,,
,,,,,,,,,,,,,,,675,2022-04-11_11h17.49.412,multiplicationStroop,2021.2.3,Win32,59.79788315,,,,,right,1,0.9186,0,31,31,51,1,8,9,8 | 9,1,1.6933,1.6933,neutral,right,,,,,,stimulusFile/magnitude.xlsx,,,,,,,,,,,,,,,,,,,,,,,,,,,,,,,
,,,,,,,,,,,,,,,675,2022-04-11_11h17.49.412,multiplicationStroop,2021.2.3,Win32,59.79788315,,,,,right,1,0.6426,0,32,32,42,1,3,8,3 | 8,5,1.9756,1.4111,incongruent,right,,,,,,stimulusFile/magnitude.xlsx,,,,,,,,,,,,,,,,,,,,,,,,,,,,,,,
,,,,,,,,,,,,,,,675,2022-04-11_11h17.49.412,multiplicationStroop,2021.2.3,Win32,59.79788315,,,,,right,1,0.516,0,33,33,18,1,3,8,3 | 8,5,1.4111,1.9756,congruent,right,,,,,,stimulusFile/magnitude.xlsx,,,,,,,,,,,,,,,,,,,,,,,,,,,,,,,
,,,,,,,,,,,,,,,675,2022-04-11_11h17.49.412,multiplicationStroop,2021.2.3,Win32,59.79788315,,,,,left,1,0.882,0,34,34,63,1,9,7,9 | 7,2,1.6933,1.6933,neutral,left,,,,,,stimulusFile/magnitude.xlsx,,,,,,,,,,,,,,,,,,,,,,,,,,,,,,,
,,,,,,,,,,,,,,,675,2022-04-11_11h17.49.412,multiplicationStroop,2021.2.3,Win32,59.79788315,,,,,left,1,0.5832,0,35,35,47,1,9,4,9 | 4,5,1.4111,1.9756,incongruent,left,,,,,,stimulusFile/magnitude.xlsx,,,,,,,,,,,,,,,,,,,,,,,,,,,,,,,
,,,,,,,,,,,,,,,675,2022-04-11_11h17.49.412,multiplicationStroop,2021.2.3,Win32,59.79788315,,,,,left,1,0.5469,0,36,36,70,1,8,3,8 | 3,5,1.6933,1.6933,neutral,left,,,,,,stimulusFile/magnitude.xlsx,,,,,,,,,,,,,,,,,,,,,,,,,,,,,,,
,,,,,,,,,,,,,,,675,2022-04-11_11h17.49.412,multiplicationStroop,2021.2.3,Win32,59.79788315,,,,,left,1,0.5829,0,37,37,68,1,6,1,6 | 1,5,1.6933,1.6933,neutral,left,,,,,,stimulusFile/magnitude.xlsx,,,,,,,,,,,,,,,,,,,,,,,,,,,,,,,
,,,,,,,,,,,,,,,675,2022-04-11_11h17.49.412,multiplicationStroop,2021.2.3,Win32,59.79788315,,,,,right,1,0.5651,0,38,38,24,1,1,2,1 | 2,1,1.9756,1.4111,incongruent,right,,,,,,stimulusFile/magnitude.xlsx,,,,,,,,,,,,,,,,,,,,,,,,,,,,,,,
,,,,,,,,,,,,,,,675,2022-04-11_11h17.49.412,multiplicationStroop,2021.2.3,Win32,59.79788315,,,,,right,1,0.5604,0,39,39,40,1,1,6,1 | 6,5,1.9756,1.4111,incongruent,right,,,,,,stimulusFile/magnitude.xlsx,,,,,,,,,,,,,,,,,,,,,,,,,,,,,,,
,,,,,,,,,,,,,,,675,2022-04-11_11h17.49.412,multiplicationStroop,2021.2.3,Win32,59.79788315,,,,,left,1,0.6095,0,40,40,53,1,4,3,4 | 3,1,1.6933,1.6933,neutral,left,,,,,,stimulusFile/magnitude.xlsx,,,,,,,,,,,,,,,,,,,,,,,,,,,,,,,
,,,,,,,,,,,,,,,675,2022-04-11_11h17.49.412,multiplicationStroop,2021.2.3,Win32,59.79788315,,,,,left,1,0.6831,0,41,41,7,1,9,8,9 | 8,1,1.9756,1.4111,congruent,left,,,,,,stimulusFile/magnitude.xlsx,,,,,,,,,,,,,,,,,,,,,,,,,,,,,,,
,,,,,,,,,,,,,,,675,2022-04-11_11h17.49.412,multiplicationStroop,2021.2.3,Win32,59.79788315,,,,,left,1,0.7964,0,42,42,62,1,8,6,8 | 6,2,1.6933,1.6933,neutral,left,,,,,,stimulusFile/magnitude.xlsx,,,,,,,,,,,,,,,,,,,,,,,,,,,,,,,
,,,,,,,,,,,,,,,675,2022-04-11_11h17.49.412,multiplicationStroop,2021.2.3,Win32,59.79788315,,,,,left,1,0.6637,0,43,43,39,1,9,7,9 | 7,2,1.4111,1.9756,incongruent,left,,,,,,stimulusFile/magnitude.xlsx,,,,,,,,,,,,,,,,,,,,,,,,,,,,,,,
,,,,,,,,,,,,,,,675,2022-04-11_11h17.49.412,multiplicationStroop,2021.2.3,Win32,59.79788315,,,,,left,1,0.7803,0,44,44,54,1,7,6,7 | 6,1,1.6933,1.6933,neutral,left,,,,,,stimulusFile/magnitude.xlsx,,,,,,,,,,,,,,,,,,,,,,,,,,,,,,,
,,,,,,,,,,,,,,,675,2022-04-11_11h17.49.412,multiplicationStroop,2021.2.3,Win32,59.79788315,,,,,left,1,0.5662,0,45,45,38,1,8,6,8 | 6,2,1.4111,1.9756,incongruent,left,,,,,,stimulusFile/magnitude.xlsx,,,,,,,,,,,,,,,,,,,,,,,,,,,,,,,
,,,,,,,,,,,,,,,675,2022-04-11_11h17.49.412,multiplicationStroop,2021.2.3,Win32,59.79788315,,,,,right,1,0.5859,0,46,46,67,1,4,9,4 | 9,5,1.6933,1.6933,neutral,right,,,,,,stimulusFile/magnitude.xlsx,,,,,,,,,,,,,,,,,,,,,,,,,,,,,,,
,,,,,,,,,,,,,,,675,2022-04-11_11h17.49.412,multiplicationStroop,2021.2.3,Win32,59.79788315,,,,,left,1,0.6472,0,47,47,52,1,2,1,2 | 1,1,1.6933,1.6933,neutral,left,,,,,,stimulusFile/magnitude.xlsx,,,,,,,,,,,,,,,,,,,,,,,,,,,,,,,
,,,,,,,,,,,,,,,675,2022-04-11_11h17.49.412,multiplicationStroop,2021.2.3,Win32,59.79788315,,,,,left,1,0.741,0,48,48,46,1,8,3,8 | 3,5,1.4111,1.9756,incongruent,left,,,,,,stimulusFile/magnitude.xlsx,,,,,,,,,,,,,,,,,,,,,,,,,,,,,,,
,,,,,,,,,,,,,,,675,2022-04-11_11h17.49.412,multiplicationStroop,2021.2.3,Win32,59.79788315,,,,,right,1,1.0571,0,49,49,27,1,8,9,8 | 9,1,1.9756,1.4111,incongruent,right,,,,,,stimulusFile/magnitude.xlsx,,,,,,,,,,,,,,,,,,,,,,,,,,,,,,,
,,,,,,,,,,,,,,,675,2022-04-11_11h17.49.412,multiplicationStroop,2021.2.3,Win32,59.79788315,,,,,left,1,0.92,0,50,50,61,1,4,2,4 | 2,2,1.6933,1.6933,neutral,left,,,,,,stimulusFile/magnitude.xlsx,,,,,,,,,,,,,,,,,,,,,,,,,,,,,,,
,,,,,,,,,,,,,,,675,2022-04-11_11h17.49.412,multiplicationStroop,2021.2.3,Win32,59.79788315,,,,,left,0,0.6298,0,51,51,9,1,2,4,2 | 4,2,1.4111,1.9756,congruent,right,,,,,,stimulusFile/magnitude.xlsx,,,,,,,,,,,,,,,,,,,,,,,,,,,,,,,
,,,,,,,,,,,,,,,675,2022-04-11_11h17.49.412,multiplicationStroop,2021.2.3,Win32,59.79788315,,,,,right,1,2.1253,0,52,52,26,1,6,7,6 | 7,1,1.9756,1.4111,incongruent,right,,,,,,stimulusFile/magnitude.xlsx,,,,,,,,,,,,,,,,,,,,,,,,,,,,,,,
,,,,,,,,,,,,,,,675,2022-04-11_11h17.49.412,multiplicationStroop,2021.2.3,Win32,59.79788315,,,,,right,1,0.7493,0,53,53,2,1,6,7,6 | 7,1,1.4111,1.9756,congruent,right,,,,,,stimulusFile/magnitude.xlsx,,,,,,,,,,,,,,,,,,,,,,,,,,,,,,,
,,,,,,,,,,,,,,,675,2022-04-11_11h17.49.412,multiplicationStroop,2021.2.3,Win32,59.79788315,,,,,left,1,0.9696,0,54,54,14,1,8,6,8 | 6,2,1.9756,1.4111,congruent,left,,,,,,stimulusFile/magnitude.xlsx,,,,,,,,,,,,,,,,,,,,,,,,,,,,,,,
,,,,,,,,,,,,,,,675,2022-04-11_11h17.49.412,multiplicationStroop,2021.2.3,Win32,59.79788315,,,,,left,1,0.9643,0,55,55,45,1,7,2,7 | 2,5,1.4111,1.9756,incongruent,left,,,,,,stimulusFile/magnitude.xlsx,,,,,,,,,,,,,,,,,,,,,,,,,,,,,,,
,,,,,,,,,,,,,,,675,2022-04-11_11h17.49.412,multiplicationStroop,2021.2.3,Win32,59.79788315,,,,,right,1,0.702,0,56,56,33,1,2,4,2 | 4,2,1.9756,1.4111,incongruent,right,,,,,,stimulusFile/magnitude.xlsx,,,,,,,,,,,,,,,,,,,,,,,,,,,,,,,
,,,,,,,,,,,,,,,675,2022-04-11_11h17.49.412,multiplicationStroop,2021.2.3,Win32,59.79788315,,,,,right,1,0.6626,0,57,57,25,1,3,4,3 | 4,1,1.9756,1.4111,incongruent,right,,,,,,stimulusFile/magnitude.xlsx,,,,,,,,,,,,,,,,,,,,,,,,,,,,,,,
,,,,,,,,,,,,,,,675,2022-04-11_11h17.49.412,multiplicationStroop,2021.2.3,Win32,59.79788315,,,,,left,1,0.5564,0,58,58,44,1,6,1,6 | 1,5,1.4111,1.9756,incongruent,left,,,,,,stimulusFile/magnitude.xlsx,,,,,,,,,,,,,,,,,,,,,,,,,,,,,,,
,,,,,,,,,,,,,,,675,2022-04-11_11h17.49.412,multiplicationStroop,2021.2.3,Win32,59.79788315,,,,,left,1,0.6655,0,59,59,55,1,9,8,9 | 8,1,1.6933,1.6933,neutral,left,,,,,,stimulusFile/magnitude.xlsx,,,,,,,,,,,,,,,,,,,,,,,,,,,,,,,
,,,,,,,,,,,,,,,675,2022-04-11_11h17.49.412,multiplicationStroop,2021.2.3,Win32,59.79788315,,,,,left,1,0.7044,0,60,60,22,1,8,3,8 | 3,5,1.9756,1.4111,congruent,left,,,,,,stimulusFile/magnitude.xlsx,,,,,,,,,,,,,,,,,,,,,,,,,,,,,,,
,,,,,,,,,,,,,,,675,2022-04-11_11h17.49.412,multiplicationStroop,2021.2.3,Win32,59.79788315,,,,,right,1,0.9774,0,61,61,41,1,2,7,2 | 7,5,1.9756,1.4111,incongruent,right,,,,,,stimulusFile/magnitude.xlsx,,,,,,,,,,,,,,,,,,,,,,,,,,,,,,,
,,,,,,,,,,,,,,,675,2022-04-11_11h17.49.412,multiplicationStroop,2021.2.3,Win32,59.79788315,,,,,right,1,0.7682,0,62,62,49,1,3,4,3 | 4,1,1.6933,1.6933,neutral,right,,,,,,stimulusFile/magnitude.xlsx,,,,,,,,,,,,,,,,,,,,,,,,,,,,,,,
,,,,,,,,,,,,,,,675,2022-04-11_11h17.49.412,multiplicationStroop,2021.2.3,Win32,59.79788315,,,,,left,1,0.9191,0,63,63,60,1,3,1,3 | 1,2,1.6933,1.6933,neutral,left,,,,,,stimulusFile/magnitude.xlsx,,,,,,,,,,,,,,,,,,,,,,,,,,,,,,,
,,,,,,,,,,,,,,,675,2022-04-11_11h17.49.412,multiplicationStroop,2021.2.3,Win32,59.79788315,,,,,left,1,0.6644,0,64,64,4,1,2,1,2 | 1,1,1.9756,1.4111,congruent,left,,,,,,stimulusFile/magnitude.xlsx,,,,,,,,,,,,,,,,,,,,,,,,,,,,,,,
,,,,,,,,,,,,,,,675,2022-04-11_11h17.49.412,multiplicationStroop,2021.2.3,Win32,59.79788315,,,,,right,1,0.7133,0,65,65,11,1,7,9,7 | 9,2,1.4111,1.9756,congruent,right,,,,,,stimulusFile/magnitude.xlsx,,,,,,,,,,,,,,,,,,,,,,,,,,,,,,,
,,,,,,,,,,,,,,,675,2022-04-11_11h17.49.412,multiplicationStroop,2021.2.3,Win32,59.79788315,,,,,right,0,1.0192,0,66,66,30,1,7,6,7 | 6,1,1.4111,1.9756,incongruent,left,,,,,,stimulusFile/magnitude.xlsx,,,,,,,,,,,,,,,,,,,,,,,,,,,,,,,
,,,,,,,,,,,,,,,675,2022-04-11_11h17.49.412,multiplicationStroop,2021.2.3,Win32,59.79788315,,,,,right,1,1.2607,0,67,67,1,1,3,4,3 | 4,1,1.4111,1.9756,congruent,right,,,,,,stimulusFile/magnitude.xlsx,,,,,,,,,,,,,,,,,,,,,,,,,,,,,,,
,,,,,,,,,,,,,,,675,2022-04-11_11h17.49.412,multiplicationStroop,2021.2.3,Win32,59.79788315,,,,,right,1,0.739,0,68,68,56,1,1,3,1 | 3,2,1.6933,1.6933,neutral,right,,,,,,stimulusFile/magnitude.xlsx,,,,,,,,,,,,,,,,,,,,,,,,,,,,,,,
,,,,,,,,,,,,,,,675,2022-04-11_11h17.49.412,multiplicationStroop,2021.2.3,Win32,59.79788315,,,,,right,1,0.7437,0,69,69,16,1,1,6,1 | 6,5,1.4111,1.9756,congruent,right,,,,,,stimulusFile/magnitude.xlsx,,,,,,,,,,,,,,,,,,,,,,,,,,,,,,,
,,,,,,,,,,,,,,,675,2022-04-11_11h17.49.412,multiplicationStroop,2021.2.3,Win32,59.79788315,,,,,right,1,0.9319,0,70,70,65,1,2,7,2 | 7,5,1.6933,1.6933,neutral,right,,,,,,stimulusFile/magnitude.xlsx,,,,,,,,,,,,,,,,,,,,,,,,,,,,,,,
,,,,,,,,,,,,,,,675,2022-04-11_11h17.49.412,multiplicationStroop,2021.2.3,Win32,59.79788315,,,,,left,1,0.9192,0,71,71,31,1,9,8,9 | 8,1,1.4111,1.9756,incongruent,left,,,,,,stimulusFile/magnitude.xlsx,,,,,,,,,,,,,,,,,,,,,,,,,,,,,,,
,,,,,,,,,,,,,,,675,2022-04-11_11h17.49.412,multiplicationStroop,2021.2.3,Win32,59.79788315,,,,,,,,,,,,,,,,,,,,,0,1,1,0,1,stimulusFile/magnitude.xlsx,NUMERICALLY larger (larger coefficient).,images/numericallyLarger.png,,,,,,,,,,,,,,,,,,,,,,,,,,,,,
,,,,,,,,,,,,,,,675,2022-04-11_11h17.49.412,multiplicationStroop,2021.2.3,Win32,59.79788315,,,,,,,,,,,,,,,,,,,,,,,,,,,,,space,15.3506,space,2.0768,12,3.7161,1,0,0,0,5,1,2,×,6,2 × 6,congruent,smallerFirst,1,2,12,,,,,,,,
,,,,,,,,,,,,,,,675,2022-04-11_11h17.49.412,multiplicationStroop,2021.2.3,Win32,59.79788315,,,,,,,,,,,,,,,,,,,,,,,,,,,,,,,,,9,1.8562,1,0,1,1,29,1,3,×,3,3 × 3,neutral,tie,1,2,9,,,,,,,,
,,,,,,,,,,,,,,,675,2022-04-11_11h17.49.412,multiplicationStroop,2021.2.3,Win32,59.79788315,,,,,,,,,,,,,,,,,,,,,,,,,,,,,,,,,64,2.4918,1,0,2,2,34,1,8,×,8,8 × 8,neutral,tie,1,2,64,,,,,,,,
,,,,,,,,,,,,,,,675,2022-04-11_11h17.49.412,multiplicationStroop,2021.2.3,Win32,59.79788315,,,,,,,,,,,,,,,,,,,,,,,,,,,,,,,,,48,2.8685,1,0,3,3,4,1,6,×,8,6 × 8,congruent,smallerFirst,1,2,48,,,,,,,,
,,,,,,,,,,,,,,,675,2022-04-11_11h17.49.412,multiplicationStroop,2021.2.3,Win32,59.79788315,,,,,,,,,,,,,,,,,,,,,,,,,,,,,,,,,20,2.3578,1,0,4,4,21,1,5,×,4,5 × 4,congruent,largerFirst,2,1,20,,,,,,,,
,,,,,,,,,,,,,,,675,2022-04-11_11h17.49.412,multiplicationStroop,2021.2.3,Win32,59.79788315,,,,,,,,,,,,,,,,,,,,,,,,,,,,,,,,,42,2.5588,1,0,5,5,17,1,7,×,6,7 × 6,congruent,largerFirst,2,1,42,,,,,,,,
,,,,,,,,,,,,,,,675,2022-04-11_11h17.49.412,multiplicationStroop,2021.2.3,Win32,59.79788315,,,,,,,,,,,,,,,,,,,,,,,,,,,,,,,,,49,2.7927,1,0,6,6,33,1,7,×,7,7 × 7,neutral,tie,1,2,49,,,,,,,,
,,,,,,,,,,,,,,,675,2022-04-11_11h17.49.412,multiplicationStroop,2021.2.3,Win32,59.79788315,,,,,,,,,,,,,,,,,,,,,,,,,,,,,,,,,14,2.1157,1,0,7,7,0,1,2,×,7,2 × 7,congruent,smallerFirst,1,2,14,,,,,,,,
,,,,,,,,,,,,,,,675,2022-04-11_11h17.49.412,multiplicationStroop,2021.2.3,Win32,59.79788315,,,,,,,,,,,,,,,,,,,,,,,,,,,,,,,,,32,2.5085,1,0,8,8,6,1,4,×,8,4 × 8,congruent,smallerFirst,1,2,32,,,,,,,,
,,,,,,,,,,,,,,,675,2022-04-11_11h17.49.412,multiplicationStroop,2021.2.3,Win32,59.79788315,,,,,,,,,,,,,,,,,,,,,,,,,,,,,,,,,18,2.1904,1,0,9,9,25,1,6,×,3,6 × 3,congruent,largerFirst,2,1,18,,,,,,,,
,,,,,,,,,,,,,,,675,2022-04-11_11h17.49.412,multiplicationStroop,2021.2.3,Win32,59.79788315,,,,,,,,,,,,,,,,,,,,,,,,,,,,,,,,,28,2.3415,1,0,10,10,13,1,4,×,7,4 × 7,congruent,smallerFirst,1,2,28,,,,,,,,
,,,,,,,,,,,,,,,675,2022-04-11_11h17.49.412,multiplicationStroop,2021.2.3,Win32,59.79788315,,,,,,,,,,,,,,,,,,,,,,,,,,,,,,,,,16,1.9399,1,0,11,11,30,1,4,×,4,4 × 4,neutral,tie,1,2,16,,,,,,,,
,,,,,,,,,,,,,,,675,2022-04-11_11h17.49.412,multiplicationStroop,2021.2.3,Win32,59.79788315,,,,,,,,,,,,,,,,,,,,,,,,,,,,,,,,,36,2.5252,1,0,12,12,14,1,9,×,4,9 × 4,congruent,largerFirst,2,1,36,,,,,,,,
,,,,,,,,,,,,,,,675,2022-04-11_11h17.49.412,multiplicationStroop,2021.2.3,Win32,59.79788315,,,,,,,,,,,,,,,,,,,,,,,,,,,,,,,,,40,1.8985,1,0,13,13,20,1,8,×,5,8 × 5,congruent,largerFirst,2,1,40,,,,,,,,
,,,,,,,,,,,,,,,675,2022-04-11_11h17.49.412,multiplicationStroop,2021.2.3,Win32,59.79788315,,,,,,,,,,,,,,,,,,,,,,,,,,,,,,,,,30,2.2074,1,0,14,14,1,1,5,×,6,5 × 6,congruent,smallerFirst,1,2,30,,,,,,,,
,,,,,,,,,,,,,,,675,2022-04-11_11h17.49.412,multiplicationStroop,2021.2.3,Win32,59.79788315,,,,,,,,,,,,,,,,,,,,,,,,,,,,,,,,,27,2.1406,1,0,15,15,12,1,3,×,9,3 × 9,congruent,smallerFirst,1,2,27,,,,,,,,
,,,,,,,,,,,,,,,675,2022-04-11_11h17.49.412,multiplicationStroop,2021.2.3,Win32,59.79788315,,,,,,,,,,,,,,,,,,,,,,,,,,,,,,,,,54,2.0734,1,0,16,16,26,1,9,×,6,9 × 6,congruent,largerFirst,2,1,54,,,,,,,,
,,,,,,,,,,,,,,,675,2022-04-11_11h17.49.412,multiplicationStroop,2021.2.3,Win32,59.79788315,,,,,,,,,,,,,,,,,,,,,,,,,,,,,,,,,6,2.6092,1,0,17,17,27,1,3,×,2,3 × 2,congruent,largerFirst,2,1,6,,,,,,,,
,,,,,,,,,,,,,,,675,2022-04-11_11h17.49.412,multiplicationStroop,2021.2.3,Win32,59.79788315,,,,,,,,,,,,,,,,,,,,,,,,,,,,,,,,,10,1.9063,1,0,18,18,10,1,2,×,5,2 × 5,congruent,smallerFirst,1,2,10,,,,,,,,
,,,,,,,,,,,,,,,675,2022-04-11_11h17.49.412,multiplicationStroop,2021.2.3,Win32,59.79788315,,,,,,,,,,,,,,,,,,,,,,,,,,,,,,,,,25,2.3413,1,0,19,19,31,1,5,×,5,5 × 5,neutral,tie,1,2,25,,,,,,,,
,,,,,,,,,,,,,,,675,2022-04-11_11h17.49.412,multiplicationStroop,2021.2.3,Win32,59.79788315,,,,,,,,,,,,,,,,,,,,,,,,,,,,,,,,,35,2.1238,1,0,20,20,15,1,7,×,5,7 × 5,congruent,largerFirst,2,1,35,,,,,,,,
,,,,,,,,,,,,,,,675,2022-04-11_11h17.49.412,multiplicationStroop,2021.2.3,Win32,59.79788315,,,,,,,,,,,,,,,,,,,,,,,,,,,,,,,,,56,3.4617,1,0,21,21,22,1,8,×,7,8 × 7,congruent,largerFirst,2,1,56,,,,,,,,
,,,,,,,,,,,,,,,675,2022-04-11_11h17.49.412,multiplicationStroop,2021.2.3,Win32,59.79788315,,,,,,,,,,,,,,,,,,,,,,,,,,,,,,,,,45,2.2667,1,0,22,22,9,1,5,×,9,5 × 9,congruent,smallerFirst,1,2,45,,,,,,,,
,,,,,,,,,,,,,,,675,2022-04-11_11h17.49.412,multiplicationStroop,2021.2.3,Win32,59.79788315,,,,,,,,,,,,,,,,,,,,,,,,,,,,,,,,,72,2.6087,1,0,23,23,3,1,8,×,9,8 × 9,congruent,smallerFirst,1,2,72,,,,,,,,
,,,,,,,,,,,,,,,675,2022-04-11_11h17.49.412,multiplicationStroop,2021.2.3,Win32,59.79788315,,,,,,,,,,,,,,,,,,,,,,,,,,,,,,,,,15,2.1324,1,0,24,24,18,1,5,×,3,5 × 3,congruent,largerFirst,2,1,15,,,,,,,,
,,,,,,,,,,,,,,,675,2022-04-11_11h17.49.412,multiplicationStroop,2021.2.3,Win32,59.79788315,,,,,,,,,,,,,,,,,,,,,,,,,,,,,,,,,36,2.7092,1,0,25,25,32,1,6,×,6,6 × 6,neutral,tie,1,2,36,,,,,,,,
,,,,,,,,,,,,,,,675,2022-04-11_11h17.49.412,multiplicationStroop,2021.2.3,Win32,59.79788315,,,,,,,,,,,,,,,,,,,,,,,,,,,,,,,,,12,1.7559,1,0,26,26,16,1,4,×,3,4 × 3,congruent,largerFirst,2,1,12,,,,,,,,
,,,,,,,,,,,,,,,675,2022-04-11_11h17.49.412,multiplicationStroop,2021.2.3,Win32,59.79788315,,,,,,,,,,,,,,,,,,,,,,,,,,,,,,,,,24,2.408,1,0,27,27,11,1,4,×,6,4 × 6,congruent,smallerFirst,1,2,24,,,,,,,,
,,,,,,,,,,,,,,,675,2022-04-11_11h17.49.412,multiplicationStroop,2021.2.3,Win32,59.79788315,,,,,,,,,,,,,,,,,,,,,,,,,,,,,,,,,24,2.2911,1,0,28,28,24,1,8,×,3,8 × 3,congruent,largerFirst,2,1,24,,,,,,,,
,,,,,,,,,,,,,,,675,2022-04-11_11h17.49.412,multiplicationStroop,2021.2.3,Win32,59.79788315,,,,,,,,,,,,,,,,,,,,,,,,,,,,,,,,,4,3.1272,1,0,29,29,28,1,2,×,2,2 × 2,neutral,tie,1,2,4,,,,,,,,
,,,,,,,,,,,,,,,675,2022-04-11_11h17.49.412,multiplicationStroop,2021.2.3,Win32,59.79788315,,,,,,,,,,,,,,,,,,,,,,,,,,,,,,,,,63,3.6377,1,0,30,30,7,1,7,×,9,7 × 9,congruent,smallerFirst,1,2,63,,,,,,,,
,,,,,,,,,,,,,,,675,2022-04-11_11h17.49.412,multiplicationStroop,2021.2.3,Win32,59.79788315,,,,,,,,,,,,,,,,,,,,,,,,,,,,,,,,,16,2.2161,1,0,31,31,19,1,8,×,2,8 × 2,congruent,largerFirst,2,1,16,,,,,,,,
,,,,,,,,,,,,,,,675,2022-04-11_11h17.49.412,multiplicationStroop,2021.2.3,Win32,59.79788315,,,,,,,,,,,,,,,,,,,,,,,,,,,,,,,,,21,2.7418,1,0,32,32,2,1,3,×,7,3 × 7,congruent,smallerFirst,1,2,21,,,,,,,,
,,,,,,,,,,,,,,,675,2022-04-11_11h17.49.412,multiplicationStroop,2021.2.3,Win32,59.79788315,,,,,,,,,,,,,,,,,,,,,,,,,,,,,,,,,18,2.3414,1,0,33,33,8,1,2,×,9,2 × 9,congruent,smallerFirst,1,2,18,,,,,,,,
,,,,,,,,,,,,,,,675,2022-04-11_11h17.49.412,multiplicationStroop,2021.2.3,Win32,59.79788315,,,,,,,,,,,,,,,,,,,,,,,,,,,,,,,,,8,2.0904,1,0,34,34,23,1,4,×,2,4 × 2,congruent,largerFirst,2,1,8,,,,,,,,
,,,,,,,,,,,,,,,675,2022-04-11_11h17.49.412,multiplicationStroop,2021.2.3,Win32,59.79788315,,,,,,,,,,,,,,,,,,,,,,,,,,,,,,,,,81,4.365,1,0,35,35,35,1,9,×,9,9 × 9,neutral,tie,1,2,81,,,,,,,,
,,,,,,,,,,,,,,,675,2022-04-11_11h17.49.412,multiplicationStroop,2021.2.3,Win32,59.79788315,,,,,,,,,,,,,,,,,,,,,,,,,,,,,,,,,,,,,,,,,,,,,,,,,,0,0,0,3,1,stimulusFile/mult_blk4_congruent.xlsx,,
,,,,,,,,,,,,,,,675,2022-04-11_11h17.49.412,multiplicationStroop,2021.2.3,Win32,59.79788315,,,,,,,,,,,,,,,,,,,,,,,,,,,,,,,space,1.5909,56,2.8946,1,0,0,0,23,1,8,×,7,8 × 7,neutral,largerFirst,1.5,1.5,56,,,,,,,,
,,,,,,,,,,,,,,,675,2022-04-11_11h17.49.412,multiplicationStroop,2021.2.3,Win32,59.79788315,,,,,,,,,,,,,,,,,,,,,,,,,,,,,,,,,64,2.1822,1,0,1,1,34,1,8,×,8,8 × 8,neutral,tie,1.5,1.5,64,,,,,,,,
,,,,,,,,,,,,,,,675,2022-04-11_11h17.49.412,multiplicationStroop,2021.2.3,Win32,59.79788315,,,,,,,,,,,,,,,,,,,,,,,,,,,,,,,,,18,2.5921,1,0,2,2,14,1,6,×,3,6 × 3,neutral,largerFirst,1.5,1.5,18,,,,,,,,
,,,,,,,,,,,,,,,675,2022-04-11_11h17.49.412,multiplicationStroop,2021.2.3,Win32,59.79788315,,,,,,,,,,,,,,,,,,,,,,,,,,,,,,,,,49,2.358,1,0,3,3,33,1,7,×,7,7 × 7,neutral,tie,1.5,1.5,49,,,,,,,,
,,,,,,,,,,,,,,,675,2022-04-11_11h17.49.412,multiplicationStroop,2021.2.3,Win32,59.79788315,,,,,,,,,,,,,,,,,,,,,,,,,,,,,,,,,25,1.9064,1,0,4,4,31,1,5,×,5,5 × 5,neutral,tie,1.5,1.5,25,,,,,,,,
,,,,,,,,,,,,,,,675,2022-04-11_11h17.49.412,multiplicationStroop,2021.2.3,Win32,59.79788315,,,,,,,,,,,,,,,,,,,,,,,,,,,,,,,,,24,1.9564,1,0,5,5,8,1,3,×,8,3 × 8,neutral,smallerFirst,1.5,1.5,24,,,,,,,,
,,,,,,,,,,,,,,,675,2022-04-11_11h17.49.412,multiplicationStroop,2021.2.3,Win32,59.79788315,,,,,,,,,,,,,,,,,,,,,,,,,,,,,,,,,4,1.8226,1,0,6,6,28,1,2,×,2,2 × 2,neutral,tie,1.5,1.5,4,,,,,,,,
,,,,,,,,,,,,,,,675,2022-04-11_11h17.49.412,multiplicationStroop,2021.2.3,Win32,59.79788315,,,,,,,,,,,,,,,,,,,,,,,,,,,,,,,,,81,2.4586,1,0,7,7,35,1,9,×,9,9 × 9,neutral,tie,1.5,1.5,81,,,,,,,,
,,,,,,,,,,,,,,,675,2022-04-11_11h17.49.412,multiplicationStroop,2021.2.3,Win32,59.79788315,,,,,,,,,,,,,,,,,,,,,,,,,,,,,,,,,18,2.7092,1,0,8,8,4,1,2,×,9,2 × 9,neutral,smallerFirst,1.5,1.5,18,,,,,,,,
,,,,,,,,,,,,,,,675,2022-04-11_11h17.49.412,multiplicationStroop,2021.2.3,Win32,59.79788315,,,,,,,,,,,,,,,,,,,,,,,,,,,,,,,,,72,2.701,1,0,9,9,25,1,9,×,8,9 × 8,neutral,largerFirst,1.5,1.5,72,,,,,,,,
,,,,,,,,,,,,,,,675,2022-04-11_11h17.49.412,multiplicationStroop,2021.2.3,Win32,59.79788315,,,,,,,,,,,,,,,,,,,,,,,,,,,,,,,,,21,1.7558,1,0,10,10,22,1,7,×,3,7 × 3,neutral,largerFirst,1.5,1.5,21,,,,,,,,
,,,,,,,,,,,,,,,675,2022-04-11_11h17.49.412,multiplicationStroop,2021.2.3,Win32,59.79788315,,,,,,,,,,,,,,,,,,,,,,,,,,,,,,,,,9,1.7224,1,0,11,11,29,1,3,×,3,3 × 3,neutral,tie,1.5,1.5,9,,,,,,,,
,,,,,,,,,,,,,,,675,2022-04-11_11h17.49.412,multiplicationStroop,2021.2.3,Win32,59.79788315,,,,,,,,,,,,,,,,,,,,,,,,,,,,,,,,,42,2.5753,1,0,12,12,20,1,7,×,6,7 × 6,neutral,largerFirst,1.5,1.5,42,,,,,,,,
,,,,,,,,,,,,,,,675,2022-04-11_11h17.49.412,multiplicationStroop,2021.2.3,Win32,59.79788315,,,,,,,,,,,,,,,,,,,,,,,,,,,,,,,,,40,2.1071,1,0,13,13,10,1,5,×,8,5 × 8,neutral,smallerFirst,1.5,1.5,40,,,,,,,,
,,,,,,,,,,,,,,,675,2022-04-11_11h17.49.412,multiplicationStroop,2021.2.3,Win32,59.79788315,,,,,,,,,,,,,,,,,,,,,,,,,,,,,,,,,36,2.4584,1,0,14,14,13,1,4,×,9,4 × 9,neutral,smallerFirst,1.5,1.5,36,,,,,,,,
,,,,,,,,,,,,,,,675,2022-04-11_11h17.49.412,multiplicationStroop,2021.2.3,Win32,59.79788315,,,,,,,,,,,,,,,,,,,,,,,,,,,,,,,,,35,2.4081,1,0,15,15,15,1,7,×,5,7 × 5,neutral,largerFirst,1.5,1.5,35,,,,,,,,
,,,,,,,,,,,,,,,675,2022-04-11_11h17.49.412,multiplicationStroop,2021.2.3,Win32,59.79788315,,,,,,,,,,,,,,,,,,,,,,,,,,,,,,,,,16,3.387,1,0,16,16,30,1,4,×,4,4 × 4,neutral,tie,1.5,1.5,16,,,,,,,,
,,,,,,,,,,,,,,,675,2022-04-11_11h17.49.412,multiplicationStroop,2021.2.3,Win32,59.79788315,,,,,,,,,,,,,,,,,,,,,,,,,,,,,,,,,63,2.5587,1,0,17,17,26,1,9,×,7,9 × 7,neutral,largerFirst,1.5,1.5,63,,,,,,,,
,,,,,,,,,,,,,,,675,2022-04-11_11h17.49.412,multiplicationStroop,2021.2.3,Win32,59.79788315,,,,,,,,,,,,,,,,,,,,,,,,,,,,,,,,,14,1.7978,1,0,18,18,2,1,2,×,7,2 × 7,neutral,smallerFirst,1.5,1.5,14,,,,,,,,
,,,,,,,,,,,,,,,675,2022-04-11_11h17.49.412,multiplicationStroop,2021.2.3,Win32,59.79788315,,,,,,,,,,,,,,,,,,,,,,,,,,,,,,,,,24,2.0068,1,0,19,19,16,1,6,×,4,6 × 4,neutral,largerFirst,1.5,1.5,24,,,,,,,,
,,,,,,,,,,,,,,,675,2022-04-11_11h17.49.412,multiplicationStroop,2021.2.3,Win32,59.79788315,,,,,,,,,,,,,,,,,,,,,,,,,,,,,,,,,30,2.3914,1,0,20,20,5,1,5,×,6,5 × 6,neutral,smallerFirst,1.5,1.5,30,,,,,,,,
,,,,,,,,,,,,,,,675,2022-04-11_11h17.49.412,multiplicationStroop,2021.2.3,Win32,59.79788315,,,,,,,,,,,,,,,,,,,,,,,,,,,,,,,,,6,2.9856,1,0,21,21,12,1,2,×,3,2 × 3,neutral,smallerFirst,1.5,1.5,6,,,,,,,,
,,,,,,,,,,,,,,,675,2022-04-11_11h17.49.412,multiplicationStroop,2021.2.3,Win32,59.79788315,,,,,,,,,,,,,,,,,,,,,,,,,,,,,,,,,12,1.8224,1,0,22,22,11,1,2,×,6,2 × 6,neutral,smallerFirst,1.5,1.5,12,,,,,,,,
,,,,,,,,,,,,,,,675,2022-04-11_11h17.49.412,multiplicationStroop,2021.2.3,Win32,59.79788315,,,,,,,,,,,,,,,,,,,,,,,,,,,,,,,,,28,2.1743,1,0,23,23,3,1,4,×,7,4 × 7,neutral,smallerFirst,1.5,1.5,28,,,,,,,,
,,,,,,,,,,,,,,,675,2022-04-11_11h17.49.412,multiplicationStroop,2021.2.3,Win32,59.79788315,,,,,,,,,,,,,,,,,,,,,,,,,,,,,,,,,15,2.0569,1,0,24,24,19,1,5,×,3,5 × 3,neutral,largerFirst,1.5,1.5,15,,,,,,,,
,,,,,,,,,,,,,,,675,2022-04-11_11h17.49.412,multiplicationStroop,2021.2.3,Win32,59.79788315,,,,,,,,,,,,,,,,,,,,,,,,,,,,,,,,,36,2.0235,1,0,25,25,32,1,6,×,6,6 × 6,neutral,tie,1.5,1.5,36,,,,,,,,
,,,,,,,,,,,,,,,675,2022-04-11_11h17.49.412,multiplicationStroop,2021.2.3,Win32,59.79788315,,,,,,,,,,,,,,,,,,,,,,,,,,,,,,,,,20,3.3951,1,0,26,26,6,1,4,×,5,4 × 5,neutral,smallerFirst,1.5,1.5,20,,,,,,,,
,,,,,,,,,,,,,,,675,2022-04-11_11h17.49.412,multiplicationStroop,2021.2.3,Win32,59.79788315,,,,,,,,,,,,,,,,,,,,,,,,,,,,,,,,,27,3.0191,1,0,27,27,0,1,3,×,9,3 × 9,neutral,smallerFirst,1.5,1.5,27,,,,,,,,
,,,,,,,,,,,,,,,675,2022-04-11_11h17.49.412,multiplicationStroop,2021.2.3,Win32,59.79788315,,,,,,,,,,,,,,,,,,,,,,,,,,,,,,,,,54,2.7426,1,0,28,28,21,1,9,×,6,9 × 6,neutral,largerFirst,1.5,1.5,54,,,,,,,,
,,,,,,,,,,,,,,,675,2022-04-11_11h17.49.412,multiplicationStroop,2021.2.3,Win32,59.79788315,,,,,,,,,,,,,,,,,,,,,,,,,,,,,,,,,12,1.8648,1,0,29,29,7,1,3,×,4,3 × 4,neutral,smallerFirst,1.5,1.5,12,,,,,,,,
,,,,,,,,,,,,,,,675,2022-04-11_11h17.49.412,multiplicationStroop,2021.2.3,Win32,59.79788315,,,,,,,,,,,,,,,,,,,,,,,,,,,,,,,,,8,1.739,1,0,30,30,17,1,4,×,2,4 × 2,neutral,largerFirst,1.5,1.5,8,,,,,,,,
,,,,,,,,,,,,,,,675,2022-04-11_11h17.49.412,multiplicationStroop,2021.2.3,Win32,59.79788315,,,,,,,,,,,,,,,,,,,,,,,,,,,,,,,,,32,2.7092,1,0,31,31,9,1,4,×,8,4 × 8,neutral,smallerFirst,1.5,1.5,32,,,,,,,,
,,,,,,,,,,,,,,,675,2022-04-11_11h17.49.412,multiplicationStroop,2021.2.3,Win32,59.79788315,,,,,,,,,,,,,,,,,,,,,,,,,,,,,,,,,10,1.7392,1,0,32,32,18,1,5,×,2,5 × 2,neutral,largerFirst,1.5,1.5,10,,,,,,,,
,,,,,,,,,,,,,,,675,2022-04-11_11h17.49.412,multiplicationStroop,2021.2.3,Win32,59.79788315,,,,,,,,,,,,,,,,,,,,,,,,,,,,,,,,,45,1.8896,1,0,33,33,24,1,9,×,5,9 × 5,neutral,largerFirst,1.5,1.5,45,,,,,,,,
,,,,,,,,,,,,,,,675,2022-04-11_11h17.49.412,multiplicationStroop,2021.2.3,Win32,59.79788315,,,,,,,,,,,,,,,,,,,,,,,,,,,,,,,,,48,1.9899,1,0,34,34,1,1,6,×,8,6 × 8,neutral,smallerFirst,1.5,1.5,48,,,,,,,,
,,,,,,,,,,,,,,,675,2022-04-11_11h17.49.412,multiplicationStroop,2021.2.3,Win32,59.79788315,,,,,,,,,,,,,,,,,,,,,,,,,,,,,,,,,16,1.823,1,0,35,35,27,1,8,×,2,8 × 2,neutral,largerFirst,1.5,1.5,16,,,,,,,,
,,,,,,,,,,,,,,,675,2022-04-11_11h17.49.412,multiplicationStroop,2021.2.3,Win32,59.79788315,,,,,,,,,,,,,,,,,,,,,,,,,,,,,,,,,,,,,,,,,,,,,,,,,,0,1,1,0,1,stimulusFile/mult_blk1.xlsx,,
,,,,,,,,,,,,,,,675,2022-04-11_11h17.49.412,multiplicationStroop,2021.2.3,Win32,59.79788315,,,,,,,,,,,,,,,,,,,,,,,,,,,,,,,space,2.0807,9,2.0136,1,0,0,0,29,1,3,×,3,3 × 3,neutral,tie,2,1,9,,,,,,,,
,,,,,,,,,,,,,,,675,2022-04-11_11h17.49.412,multiplicationStroop,2021.2.3,Win32,59.79788315,,,,,,,,,,,,,,,,,,,,,,,,,,,,,,,,,20,2.1072,1,0,1,1,13,1,4,×,5,4 × 5,incongruent,smallerFirst,2,1,20,,,,,,,,
,,,,,,,,,,,,,,,675,2022-04-11_11h17.49.412,multiplicationStroop,2021.2.3,Win32,59.79788315,,,,,,,,,,,,,,,,,,,,,,,,,,,,,,,,,24,3.7127,1,0,2,2,23,1,8,×,3,8 × 3,incongruent,largerFirst,1,2,24,,,,,,,,
,,,,,,,,,,,,,,,675,2022-04-11_11h17.49.412,multiplicationStroop,2021.2.3,Win32,59.79788315,,,,,,,,,,,,,,,,,,,,,,,,,,,,,,,,,56,3.3536,1,0,3,3,0,1,7,×,8,7 × 8,incongruent,smallerFirst,2,1,56,,,,,,,,
,,,,,,,,,,,,,,,675,2022-04-11_11h17.49.412,multiplicationStroop,2021.2.3,Win32,59.79788315,,,,,,,,,,,,,,,,,,,,,,,,,,,,,,,,,25,2.0736,1,0,4,4,31,1,5,×,5,5 × 5,neutral,tie,2,1,25,,,,,,,,
,,,,,,,,,,,,,,,675,2022-04-11_11h17.49.412,multiplicationStroop,2021.2.3,Win32,59.79788315,,,,,,,,,,,,,,,,,,,,,,,,,,,,,,,,,40,2.0234,1,0,5,5,27,1,8,×,5,8 × 5,incongruent,largerFirst,1,2,40,,,,,,,,
,,,,,,,,,,,,,,,675,2022-04-11_11h17.49.412,multiplicationStroop,2021.2.3,Win32,59.79788315,,,,,,,,,,,,,,,,,,,,,,,,,,,,,,,,,72,3.2111,1,0,6,6,14,1,9,×,8,9 × 8,incongruent,largerFirst,1,2,72,,,,,,,,
,,,,,,,,,,,,,,,675,2022-04-11_11h17.49.412,multiplicationStroop,2021.2.3,Win32,59.79788315,,,,,,,,,,,,,,,,,,,,,,,,,,,,,,,,,6,2.3668,1,0,7,7,25,1,3,×,2,3 × 2,incongruent,largerFirst,1,2,6,,,,,,,,
,,,,,,,,,,,,,,,675,2022-04-11_11h17.49.412,multiplicationStroop,2021.2.3,Win32,59.79788315,,,,,,,,,,,,,,,,,,,,,,,,,,,,,,,,,16,2.1575,1,0,8,8,30,1,4,×,4,4 × 4,neutral,tie,2,1,16,,,,,,,,
,,,,,,,,,,,,,,,675,2022-04-11_11h17.49.412,multiplicationStroop,2021.2.3,Win32,59.79788315,,,,,,,,,,,,,,,,,,,,,,,,,,,,,,,,,35,2.3076,1,0,9,9,26,1,7,×,5,7 × 5,incongruent,largerFirst,1,2,35,,,,,,,,
,,,,,,,,,,,,,,,675,2022-04-11_11h17.49.412,multiplicationStroop,2021.2.3,Win32,59.79788315,,,,,,,,,,,,,,,,,,,,,,,,,,,,,,,,,81,2.4083,1,0,10,10,35,1,9,×,9,9 × 9,neutral,tie,2,1,81,,,,,,,,
,,,,,,,,,,,,,,,675,2022-04-11_11h17.49.412,multiplicationStroop,2021.2.3,Win32,59.79788315,,,,,,,,,,,,,,,,,,,,,,,,,,,,,,,,,15,2.0153,1,0,11,11,24,1,5,×,3,5 × 3,incongruent,largerFirst,1,2,15,,,,,,,,
,,,,,,,,,,,,,,,675,2022-04-11_11h17.49.412,multiplicationStroop,2021.2.3,Win32,59.79788315,,,,,,,,,,,,,,,,,,,,,,,,,,,,,,,,,16,2.5587,1,0,12,12,9,1,2,×,8,2 × 8,incongruent,smallerFirst,2,1,16,,,,,,,,
,,,,,,,,,,,,,,,675,2022-04-11_11h17.49.412,multiplicationStroop,2021.2.3,Win32,59.79788315,,,,,,,,,,,,,,,,,,,,,,,,,,,,,,,,,48,4.2479,1,0,13,13,15,1,8,×,6,8 × 6,incongruent,largerFirst,1,2,48,,,,,,,,
,,,,,,,,,,,,,,,675,2022-04-11_11h17.49.412,multiplicationStroop,2021.2.3,Win32,59.79788315,,,,,,,,,,,,,,,,,,,,,,,,,,,,,,,,,28,3.3867,1,0,14,14,2,1,4,×,7,4 × 7,incongruent,smallerFirst,2,1,28,,,,,,,,
,,,,,,,,,,,,,,,675,2022-04-11_11h17.49.412,multiplicationStroop,2021.2.3,Win32,59.79788315,,,,,,,,,,,,,,,,,,,,,,,,,,,,,,,,,12,1.9818,1,0,15,15,19,1,4,×,3,4 × 3,incongruent,largerFirst,1,2,12,,,,,,,,
,,,,,,,,,,,,,,,675,2022-04-11_11h17.49.412,multiplicationStroop,2021.2.3,Win32,59.79788315,,,,,,,,,,,,,,,,,,,,,,,,,,,,,,,,,49,2.7258,1,0,16,16,33,1,7,×,7,7 × 7,neutral,tie,2,1,49,,,,,,,,
,,,,,,,,,,,,,,,675,2022-04-11_11h17.49.412,multiplicationStroop,2021.2.3,Win32,59.79788315,,,,,,,,,,,,,,,,,,,,,,,,,,,,,,,,,18,2.6088,1,0,17,17,16,1,9,×,2,9 × 2,incongruent,largerFirst,1,2,18,,,,,,,,
,,,,,,,,,,,,,,,675,2022-04-11_11h17.49.412,multiplicationStroop,2021.2.3,Win32,59.79788315,,,,,,,,,,,,,,,,,,,,,,,,,,,,,,,,,21,2.2244,1,0,18,18,12,1,3,×,7,3 × 7,incongruent,smallerFirst,2,1,21,,,,,,,,
,,,,,,,,,,,,,,,675,2022-04-11_11h17.49.412,multiplicationStroop,2021.2.3,Win32,59.79788315,,,,,,,,,,,,,,,,,,,,,,,,,,,,,,,,,12,2.057,1,0,19,19,5,1,2,×,6,2 × 6,incongruent,smallerFirst,2,1,12,,,,,,,,
,,,,,,,,,,,,,,,675,2022-04-11_11h17.49.412,multiplicationStroop,2021.2.3,Win32,59.79788315,,,,,,,,,,,,,,,,,,,,,,,,,,,,,,,,,36,3.3449,1,0,20,20,1,1,4,×,9,4 × 9,incongruent,smallerFirst,2,1,36,,,,,,,,
,,,,,,,,,,,,,,,675,2022-04-11_11h17.49.412,multiplicationStroop,2021.2.3,Win32,59.79788315,,,,,,,,,,,,,,,,,,,,,,,,,,,,,,,,,64,4.3234,1,0,21,21,34,1,8,×,8,8 × 8,neutral,tie,2,1,64,,,,,,,,
,,,,,,,,,,,,,,,675,2022-04-11_11h17.49.412,multiplicationStroop,2021.2.3,Win32,59.79788315,,,,,,,,,,,,,,,,,,,,,,,,,,,,,,,,,32,2.3335,1,0,22,22,21,1,8,×,4,8 × 4,incongruent,largerFirst,1,2,32,,,,,,,,
,,,,,,,,,,,,,,,675,2022-04-11_11h17.49.412,multiplicationStroop,2021.2.3,Win32,59.79788315,,,,,,,,,,,,,,,,,,,,,,,,,,,,,,,,,8,2.6256,1,0,23,23,10,1,2,×,4,2 × 4,incongruent,smallerFirst,2,1,8,,,,,,,,
,,,,,,,,,,,,,,,675,2022-04-11_11h17.49.412,multiplicationStroop,2021.2.3,Win32,59.79788315,,,,,,,,,,,,,,,,,,,,,,,,,,,,,,,,,24,2.8012,1,0,24,24,6,1,4,×,6,4 × 6,incongruent,smallerFirst,2,1,24,,,,,,,,
,,,,,,,,,,,,,,,675,2022-04-11_11h17.49.412,multiplicationStroop,2021.2.3,Win32,59.79788315,,,,,,,,,,,,,,,,,,,,,,,,,,,,,,,,,45,2.4948,1,0,25,25,8,1,5,×,9,5 × 9,incongruent,smallerFirst,2,1,45,,,,,,,,
,,,,,,,,,,,,,,,675,2022-04-11_11h17.49.412,multiplicationStroop,2021.2.3,Win32,59.79788315,,,,,,,,,,,,,,,,,,,,,,,,,,,,,,,,,30,2.1211,1,0,26,26,11,1,5,×,6,5 × 6,incongruent,smallerFirst,2,1,30,,,,,,,,
,,,,,,,,,,,,,,,675,2022-04-11_11h17.49.412,multiplicationStroop,2021.2.3,Win32,59.79788315,,,,,,,,,,,,,,,,,,,,,,,,,,,,,,,,,42,2.4582,1,0,27,27,3,1,6,×,7,6 × 7,incongruent,smallerFirst,2,1,42,,,,,,,,
,,,,,,,,,,,,,,,675,2022-04-11_11h17.49.412,multiplicationStroop,2021.2.3,Win32,59.79788315,,,,,,,,,,,,,,,,,,,,,,,,,,,,,,,,,54,2.3828,1,0,28,28,20,1,9,×,6,9 × 6,incongruent,largerFirst,1,2,54,,,,,,,,
,,,,,,,,,,,,,,,675,2022-04-11_11h17.49.412,multiplicationStroop,2021.2.3,Win32,59.79788315,,,,,,,,,,,,,,,,,,,,,,,,,,,,,,,,,36,2.1406,1,0,29,29,32,1,6,×,6,6 × 6,neutral,tie,2,1,36,,,,,,,,
,,,,,,,,,,,,,,,675,2022-04-11_11h17.49.412,multiplicationStroop,2021.2.3,Win32,59.79788315,,,,,,,,,,,,,,,,,,,,,,,,,,,,,,,,,63,4.0807,1,0,30,30,17,1,9,×,7,9 × 7,incongruent,largerFirst,1,2,63,,,,,,,,
,,,,,,,,,,,,,,,675,2022-04-11_11h17.49.412,multiplicationStroop,2021.2.3,Win32,59.79788315,,,,,,,,,,,,,,,,,,,,,,,,,,,,,,,,,10,2.2325,1,0,31,31,7,1,2,×,5,2 × 5,incongruent,smallerFirst,2,1,10,,,,,,,,
,,,,,,,,,,,,,,,675,2022-04-11_11h17.49.412,multiplicationStroop,2021.2.3,Win32,59.79788315,,,,,,,,,,,,,,,,,,,,,,,,,,,,,,,,,14,1.9401,1,0,32,32,18,1,7,×,2,7 × 2,incongruent,largerFirst,1,2,14,,,,,,,,
,,,,,,,,,,,,,,,675,2022-04-11_11h17.49.412,multiplicationStroop,2021.2.3,Win32,59.79788315,,,,,,,,,,,,,,,,,,,,,,,,,,,,,,,,,4,1.7726,1,0,33,33,28,1,2,×,2,2 × 2,neutral,tie,2,1,4,,,,,,,,
,,,,,,,,,,,,,,,675,2022-04-11_11h17.49.412,multiplicationStroop,2021.2.3,Win32,59.79788315,,,,,,,,,,,,,,,,,,,,,,,,,,,,,,,,,27,2.1573,1,0,34,34,4,1,3,×,9,3 × 9,incongruent,smallerFirst,2,1,27,,,,,,,,
,,,,,,,,,,,,,,,675,2022-04-11_11h17.49.412,multiplicationStroop,2021.2.3,Win32,59.79788315,,,,,,,,,,,,,,,,,,,,,,,,,,,,,,,,,18,3.9802,1,0,35,35,22,1,6,×,3,6 × 3,incongruent,largerFirst,1,2,18,,,,,,,,
,,,,,,,,,,,,,,,675,2022-04-11_11h17.49.412,multiplicationStroop,2021.2.3,Win32,59.79788315,,,,,,,,,,,,,,,,,,,,,,,,,,,,,,,,,,,,,,,,,,,,,,,,,,0,2,2,4,1,stimulusFile/mult_blk5_INcongruent.xlsx,,
,,,,,,,,,,,,,,,675,2022-04-11_11h17.49.412,multiplicationStroop,2021.2.3,Win32,59.79788315,,,,,,,,,,,,,,,,,,,,,,,,,,,,,,,space,2.0498,24,2.0857,1,0,0,0,22,1,8,×,3,8 × 3,neutral,largerFirst,1.5,1.5,24,,,,,,,,
,,,,,,,,,,,,,,,675,2022-04-11_11h17.49.412,multiplicationStroop,2021.2.3,Win32,59.79788315,,,,,,,,,,,,,,,,,,,,,,,,,,,,,,,,,8,2.174,1,0,1,1,3,1,2,×,4,2 × 4,neutral,smallerFirst,1.5,1.5,8,,,,,,,,
,,,,,,,,,,,,,,,675,2022-04-11_11h17.49.412,multiplicationStroop,2021.2.3,Win32,59.79788315,,,,,,,,,,,,,,,,,,,,,,,,,,,,,,,,,12,1.7894,1,0,2,2,21,1,4,×,3,4 × 3,neutral,largerFirst,1.5,1.5,12,,,,,,,,
,,,,,,,,,,,,,,,675,2022-04-11_11h17.49.412,multiplicationStroop,2021.2.3,Win32,59.79788315,,,,,,,,,,,,,,,,,,,,,,,,,,,,,,,,,30,1.9399,1,0,3,3,19,1,6,×,5,6 × 5,neutral,largerFirst,1.5,1.5,30,,,,,,,,
,,,,,,,,,,,,,,,675,2022-04-11_11h17.49.412,multiplicationStroop,2021.2.3,Win32,59.79788315,,,,,,,,,,,,,,,,,,,,,,,,,,,,,,,,,40,2.2073,1,0,4,4,24,1,8,×,5,8 × 5,neutral,largerFirst,1.5,1.5,40,,,,,,,,
,,,,,,,,,,,,,,,675,2022-04-11_11h17.49.412,multiplicationStroop,2021.2.3,Win32,59.79788315,,,,,,,,,,,,,,,,,,,,,,,,,,,,,,,,,49,2.0737,1,0,5,5,33,1,7,×,7,7 × 7,neutral,tie,1.5,1.5,49,,,,,,,,
,,,,,,,,,,,,,,,675,2022-04-11_11h17.49.412,multiplicationStroop,2021.2.3,Win32,59.79788315,,,,,,,,,,,,,,,,,,,,,,,,,,,,,,,,,45,1.8728,1,0,6,6,10,1,5,×,9,5 × 9,neutral,smallerFirst,1.5,1.5,45,,,,,,,,
,,,,,,,,,,,,,,,675,2022-04-11_11h17.49.412,multiplicationStroop,2021.2.3,Win32,59.79788315,,,,,,,,,,,,,,,,,,,,,,,,,,,,,,,,,54,3.1439,1,0,7,7,7,1,6,×,9,6 × 9,neutral,smallerFirst,1.5,1.5,54,,,,,,,,
,,,,,,,,,,,,,,,675,2022-04-11_11h17.49.412,multiplicationStroop,2021.2.3,Win32,59.79788315,,,,,,,,,,,,,,,,,,,,,,,,,,,,,,,,,24,2.4838,1,0,8,8,2,1,4,×,6,4 × 6,neutral,smallerFirst,1.5,1.5,24,,,,,,,,
,,,,,,,,,,,,,,,675,2022-04-11_11h17.49.412,multiplicationStroop,2021.2.3,Win32,59.79788315,,,,,,,,,,,,,,,,,,,,,,,,,,,,,,,,,4,1.5719,1,0,9,9,28,1,2,×,2,2 × 2,neutral,tie,1.5,1.5,4,,,,,,,,
,,,,,,,,,,,,,,,675,2022-04-11_11h17.49.412,multiplicationStroop,2021.2.3,Win32,59.79788315,,,,,,,,,,,,,,,,,,,,,,,,,,,,,,,,,42,2.726,1,0,10,10,6,1,6,×,7,6 × 7,neutral,smallerFirst,1.5,1.5,42,,,,,,,,
,,,,,,,,,,,,,,,675,2022-04-11_11h17.49.412,multiplicationStroop,2021.2.3,Win32,59.79788315,,,,,,,,,,,,,,,,,,,,,,,,,,,,,,,,,20,3.4284,1,0,11,11,20,1,5,×,4,5 × 4,neutral,largerFirst,1.5,1.5,20,,,,,,,,
,,,,,,,,,,,,,,,675,2022-04-11_11h17.49.412,multiplicationStroop,2021.2.3,Win32,59.79788315,,,,,,,,,,,,,,,,,,,,,,,,,,,,,,,,,15,2.2327,1,0,12,12,5,1,3,×,5,3 × 5,neutral,smallerFirst,1.5,1.5,15,,,,,,,,
,,,,,,,,,,,,,,,675,2022-04-11_11h17.49.412,multiplicationStroop,2021.2.3,Win32,59.79788315,,,,,,,,,,,,,,,,,,,,,,,,,,,,,,,,,27,2.5921,1,0,13,13,14,1,9,×,3,9 × 3,neutral,largerFirst,1.5,1.5,27,,,,,,,,
,,,,,,,,,,,,,,,675,2022-04-11_11h17.49.412,multiplicationStroop,2021.2.3,Win32,59.79788315,,,,,,,,,,,,,,,,,,,,,,,,,,,,,,,,,12,3.0439,1,0,14,14,25,1,6,×,2,6 × 2,neutral,largerFirst,1.5,1.5,12,,,,,,,,
,,,,,,,,,,,,,,,675,2022-04-11_11h17.49.412,multiplicationStroop,2021.2.3,Win32,59.79788315,,,,,,,,,,,,,,,,,,,,,,,,,,,,,,,,,18,2.7845,1,0,15,15,18,1,9,×,2,9 × 2,neutral,largerFirst,1.5,1.5,18,,,,,,,,
,,,,,,,,,,,,,,,675,2022-04-11_11h17.49.412,multiplicationStroop,2021.2.3,Win32,59.79788315,,,,,,,,,,,,,,,,,,,,,,,,,,,,,,,,,48,2.1072,1,0,16,16,15,1,8,×,6,8 × 6,neutral,largerFirst,1.5,1.5,48,,,,,,,,
,,,,,,,,,,,,,,,675,2022-04-11_11h17.49.412,multiplicationStroop,2021.2.3,Win32,59.79788315,,,,,,,,,,,,,,,,,,,,,,,,,,,,,,,,,28,3.3111,1,0,17,17,17,1,7,×,4,7 × 4,neutral,largerFirst,1.5,1.5,28,,,,,,,,
,,,,,,,,,,,,,,,675,2022-04-11_11h17.49.412,multiplicationStroop,2021.2.3,Win32,59.79788315,,,,,,,,,,,,,,,,,,,,,,,,,,,,,,,,,21,1.865,1,0,18,18,8,1,3,×,7,3 × 7,neutral,smallerFirst,1.5,1.5,21,,,,,,,,
,,,,,,,,,,,,,,,675,2022-04-11_11h17.49.412,multiplicationStroop,2021.2.3,Win32,59.79788315,,,,,,,,,,,,,,,,,,,,,,,,,,,,,,,,,32,2.7928,1,0,19,19,23,1,8,×,4,8 × 4,neutral,largerFirst,1.5,1.5,32,,,,,,,,
,,,,,,,,,,,,,,,675,2022-04-11_11h17.49.412,multiplicationStroop,2021.2.3,Win32,59.79788315,,,,,,,,,,,,,,,,,,,,,,,,,,,,,,,,,35,2.6759,1,0,20,20,1,1,5,×,7,5 × 7,neutral,smallerFirst,1.5,1.5,35,,,,,,,,
,,,,,,,,,,,,,,,675,2022-04-11_11h17.49.412,multiplicationStroop,2021.2.3,Win32,59.79788315,,,,,,,,,,,,,,,,,,,,,,,,,,,,,,,,,64,3.0522,1,0,21,21,34,1,8,×,8,8 × 8,neutral,tie,1.5,1.5,64,,,,,,,,
,,,,,,,,,,,,,,,675,2022-04-11_11h17.49.412,multiplicationStroop,2021.2.3,Win32,59.79788315,,,,,,,,,,,,,,,,,,,,,,,,,,,,,,,,,63,3.7964,1,0,22,22,12,1,7,×,9,7 × 9,neutral,smallerFirst,1.5,1.5,63,,,,,,,,
,,,,,,,,,,,,,,,675,2022-04-11_11h17.49.412,multiplicationStroop,2021.2.3,Win32,59.79788315,,,,,,,,,,,,,,,,,,,,,,,,,,,,,,,,,72,3.0358,1,0,23,23,11,1,8,×,9,8 × 9,neutral,smallerFirst,1.5,1.5,72,,,,,,,,
,,,,,,,,,,,,,,,675,2022-04-11_11h17.49.412,multiplicationStroop,2021.2.3,Win32,59.79788315,,,,,,,,,,,,,,,,,,,,,,,,,,,,,,,,,16,2.4669,1,0,24,24,30,1,4,×,4,4 × 4,neutral,tie,1.5,1.5,16,,,,,,,,
,,,,,,,,,,,,,,,675,2022-04-11_11h17.49.412,multiplicationStroop,2021.2.3,Win32,59.79788315,,,,,,,,,,,,,,,,,,,,,,,,,,,,,,,,,81,4.3651,1,0,25,25,35,1,9,×,9,9 × 9,neutral,tie,1.5,1.5,81,,,,,,,,
,,,,,,,,,,,,,,,675,2022-04-11_11h17.49.412,multiplicationStroop,2021.2.3,Win32,59.79788315,,,,,,,,,,,,,,,,,,,,,,,,,,,,,,,,,10,2.1661,1,0,26,26,4,1,2,×,5,2 × 5,neutral,smallerFirst,1.5,1.5,10,,,,,,,,
,,,,,,,,,,,,,,,675,2022-04-11_11h17.49.412,multiplicationStroop,2021.2.3,Win32,59.79788315,,,,,,,,,,,,,,,,,,,,,,,,,,,,,,,,,14,1.9732,1,0,27,27,16,1,7,×,2,7 × 2,neutral,largerFirst,1.5,1.5,14,,,,,,,,
,,,,,,,,,,,,,,,675,2022-04-11_11h17.49.412,multiplicationStroop,2021.2.3,Win32,59.79788315,,,,,,,,,,,,,,,,,,,,,,,,,,,,,,,,,16,2.107,1,0,28,28,13,1,2,×,8,2 × 8,neutral,smallerFirst,1.5,1.5,16,,,,,,,,
,,,,,,,,,,,,,,,675,2022-04-11_11h17.49.412,multiplicationStroop,2021.2.3,Win32,59.79788315,,,,,,,,,,,,,,,,,,,,,,,,,,,,,,,,,36,2.8265,1,0,29,29,27,1,9,×,4,9 × 4,neutral,largerFirst,1.5,1.5,36,,,,,,,,
,,,,,,,,,,,,,,,675,2022-04-11_11h17.49.412,multiplicationStroop,2021.2.3,Win32,59.79788315,,,,,,,,,,,,,,,,,,,,,,,,,,,,,,,,,18,2.5417,1,0,30,30,0,1,3,×,6,3 × 6,neutral,smallerFirst,1.5,1.5,18,,,,,,,,
,,,,,,,,,,,,,,,675,2022-04-11_11h17.49.412,multiplicationStroop,2021.2.3,Win32,59.79788315,,,,,,,,,,,,,,,,,,,,,,,,,,,,,,,,,9,1.6976,1,0,31,31,29,1,3,×,3,3 × 3,neutral,tie,1.5,1.5,9,,,,,,,,
,,,,,,,,,,,,,,,675,2022-04-11_11h17.49.412,multiplicationStroop,2021.2.3,Win32,59.79788315,,,,,,,,,,,,,,,,,,,,,,,,,,,,,,,,,25,3.9636,1,0,32,32,31,1,5,×,5,5 × 5,neutral,tie,1.5,1.5,25,,,,,,,,
,,,,,,,,,,,,,,,675,2022-04-11_11h17.49.412,multiplicationStroop,2021.2.3,Win32,59.79788315,,,,,,,,,,,,,,,,,,,,,,,,,,,,,,,,,36,2.0658,1,0,33,33,32,1,6,×,6,6 × 6,neutral,tie,1.5,1.5,36,,,,,,,,
,,,,,,,,,,,,,,,675,2022-04-11_11h17.49.412,multiplicationStroop,2021.2.3,Win32,59.79788315,,,,,,,,,,,,,,,,,,,,,,,,,,,,,,,,,56,2.4416,1,0,34,34,9,1,7,×,8,7 × 8,neutral,smallerFirst,1.5,1.5,56,,,,,,,,
,,,,,,,,,,,,,,,675,2022-04-11_11h17.49.412,multiplicationStroop,2021.2.3,Win32,59.79788315,,,,,,,,,,,,,,,,,,,,,,,,,,,,,,,,,6,1.9398,1,0,35,35,26,1,3,×,2,3 × 2,neutral,largerFirst,1.5,1.5,6,,,,,,,,
,,,,,,,,,,,,,,,675,2022-04-11_11h17.49.412,multiplicationStroop,2021.2.3,Win32,59.79788315,,,,,,,,,,,,,,,,,,,,,,,,,,,,,,,,,,,,,,,,,,,,,,,,,,0,3,3,1,1,stimulusFile/mult_blk2.xlsx,,
,,,,,,,,,,,,,,,675,2022-04-11_11h17.49.412,multiplicationStroop,2021.2.3,Win32,59.79788315,,,,,,,,,,,,,,,,,,,,,,,,,,,,,,,space,2.0685,81,2.7673,1,0,0,0,35,1,9,×,9,9 × 9,incongruent,tie,1,2,81,,,,,,,,
,,,,,,,,,,,,,,,675,2022-04-11_11h17.49.412,multiplicationStroop,2021.2.3,Win32,59.79788315,,,,,,,,,,,,,,,,,,,,,,,,,,,,,,,,,72,3.512,1,0,1,1,0,1,8,×,9,8 × 9,incongruent,smallerFirst,2,1,72,,,,,,,,
,,,,,,,,,,,,,,,675,2022-04-11_11h17.49.412,multiplicationStroop,2021.2.3,Win32,59.79788315,,,,,,,,,,,,,,,,,,,,,,,,,,,,,,,,,36,1.965,1,0,2,2,32,1,6,×,6,6 × 6,incongruent,tie,1,2,36,,,,,,,,
,,,,,,,,,,,,,,,675,2022-04-11_11h17.49.412,multiplicationStroop,2021.2.3,Win32,59.79788315,,,,,,,,,,,,,,,,,,,,,,,,,,,,,,,,,15,1.923,1,0,3,3,10,1,3,×,5,3 × 5,incongruent,smallerFirst,2,1,15,,,,,,,,
,,,,,,,,,,,,,,,675,2022-04-11_11h17.49.412,multiplicationStroop,2021.2.3,Win32,59.79788315,,,,,,,,,,,,,,,,,,,,,,,,,,,,,,,,,25,1.8733,1,0,4,4,31,1,5,×,5,5 × 5,incongruent,tie,1,2,25,,,,,,,,
,,,,,,,,,,,,,,,675,2022-04-11_11h17.49.412,multiplicationStroop,2021.2.3,Win32,59.79788315,,,,,,,,,,,,,,,,,,,,,,,,,,,,,,,,,24,1.9564,1,0,5,5,20,1,6,×,4,6 × 4,incongruent,largerFirst,1,2,24,,,,,,,,
,,,,,,,,,,,,,,,675,2022-04-11_11h17.49.412,multiplicationStroop,2021.2.3,Win32,59.79788315,,,,,,,,,,,,,,,,,,,,,,,,,,,,,,,,,54,2.5919,1,0,6,6,6,1,6,×,9,6 × 9,incongruent,smallerFirst,2,1,54,,,,,,,,
,,,,,,,,,,,,,,,675,2022-04-11_11h17.49.412,multiplicationStroop,2021.2.3,Win32,59.79788315,,,,,,,,,,,,,,,,,,,,,,,,,,,,,,,,,20,2.2904,1,0,7,7,27,1,5,×,4,5 × 4,incongruent,largerFirst,1,2,20,,,,,,,,
,,,,,,,,,,,,,,,675,2022-04-11_11h17.49.412,multiplicationStroop,2021.2.3,Win32,59.79788315,,,,,,,,,,,,,,,,,,,,,,,,,,,,,,,,,42,2.8096,1,0,8,8,17,1,7,×,6,7 × 6,incongruent,largerFirst,1,2,42,,,,,,,,
,,,,,,,,,,,,,,,675,2022-04-11_11h17.49.412,multiplicationStroop,2021.2.3,Win32,59.79788315,,,,,,,,,,,,,,,,,,,,,,,,,,,,,,,,,30,2.8519,1,0,9,9,25,1,6,×,5,6 × 5,incongruent,largerFirst,1,2,30,,,,,,,,
,,,,,,,,,,,,,,,675,2022-04-11_11h17.49.412,multiplicationStroop,2021.2.3,Win32,59.79788315,,,,,,,,,,,,,,,,,,,,,,,,,,,,,,,,,21,1.806,1,0,10,10,26,1,7,×,3,7 × 3,incongruent,largerFirst,1,2,21,,,,,,,,
,,,,,,,,,,,,,,,675,2022-04-11_11h17.49.412,multiplicationStroop,2021.2.3,Win32,59.79788315,,,,,,,,,,,,,,,,,,,,,,,,,,,,,,,,,48,2.8264,1,0,11,11,1,1,6,×,8,6 × 8,incongruent,smallerFirst,2,1,48,,,,,,,,
,,,,,,,,,,,,,,,675,2022-04-11_11h17.49.412,multiplicationStroop,2021.2.3,Win32,59.79788315,,,,,,,,,,,,,,,,,,,,,,,,,,,,,,,,,56,3.0771,1,0,12,12,14,1,8,×,7,8 × 7,incongruent,largerFirst,1,2,56,,,,,,,,
,,,,,,,,,,,,,,,675,2022-04-11_11h17.49.412,multiplicationStroop,2021.2.3,Win32,59.79788315,,,,,,,,,,,,,,,,,,,,,,,,,,,,,,,,,18,2.1829,1,0,13,13,2,1,2,×,9,2 × 9,incongruent,smallerFirst,2,1,18,,,,,,,,
,,,,,,,,,,,,,,,675,2022-04-11_11h17.49.412,multiplicationStroop,2021.2.3,Win32,59.79788315,,,,,,,,,,,,,,,,,,,,,,,,,,,,,,,,,35,2.057,1,0,14,14,12,1,5,×,7,5 × 7,incongruent,smallerFirst,2,1,35,,,,,,,,
,,,,,,,,,,,,,,,675,2022-04-11_11h17.49.412,multiplicationStroop,2021.2.3,Win32,59.79788315,,,,,,,,,,,,,,,,,,,,,,,,,,,,,,,,,32,2.425,1,0,15,15,7,1,4,×,8,4 × 8,incongruent,smallerFirst,2,1,32,,,,,,,,
,,,,,,,,,,,,,,,675,2022-04-11_11h17.49.412,multiplicationStroop,2021.2.3,Win32,59.79788315,,,,,,,,,,,,,,,,,,,,,,,,,,,,,,,,,6,1.8898,1,0,16,16,11,1,2,×,3,2 × 3,incongruent,smallerFirst,2,1,6,,,,,,,,
,,,,,,,,,,,,,,,675,2022-04-11_11h17.49.412,multiplicationStroop,2021.2.3,Win32,59.79788315,,,,,,,,,,,,,,,,,,,,,,,,,,,,,,,,,40,2.3246,1,0,17,17,13,1,5,×,8,5 × 8,incongruent,smallerFirst,2,1,40,,,,,,,,
,,,,,,,,,,,,,,,675,2022-04-11_11h17.49.412,multiplicationStroop,2021.2.3,Win32,59.79788315,,,,,,,,,,,,,,,,,,,,,,,,,,,,,,,,,12,2.1906,1,0,18,18,5,1,3,×,4,3 × 4,incongruent,smallerFirst,2,1,12,,,,,,,,
,,,,,,,,,,,,,,,675,2022-04-11_11h17.49.412,multiplicationStroop,2021.2.3,Win32,59.79788315,,,,,,,,,,,,,,,,,,,,,,,,,,,,,,,,,36,2.007,1,0,19,19,15,1,9,×,4,9 × 4,incongruent,largerFirst,1,2,36,,,,,,,,
,,,,,,,,,,,,,,,675,2022-04-11_11h17.49.412,multiplicationStroop,2021.2.3,Win32,59.79788315,,,,,,,,,,,,,,,,,,,,,,,,,,,,,,,,,28,2.3078,1,0,20,20,16,1,7,×,4,7 × 4,incongruent,largerFirst,1,2,28,,,,,,,,
,,,,,,,,,,,,,,,675,2022-04-11_11h17.49.412,multiplicationStroop,2021.2.3,Win32,59.79788315,,,,,,,,,,,,,,,,,,,,,,,,,,,,,,,,,27,2.4669,1,0,21,21,18,1,9,×,3,9 × 3,incongruent,largerFirst,1,2,27,,,,,,,,
,,,,,,,,,,,,,,,675,2022-04-11_11h17.49.412,multiplicationStroop,2021.2.3,Win32,59.79788315,,,,,,,,,,,,,,,,,,,,,,,,,,,,,,,,,16,2.3245,1,0,22,22,23,1,8,×,2,8 × 2,incongruent,largerFirst,1,2,16,,,,,,,,
,,,,,,,,,,,,,,,675,2022-04-11_11h17.49.412,multiplicationStroop,2021.2.3,Win32,59.79788315,,,,,,,,,,,,,,,,,,,,,,,,,,,,,,,,,9,1.9062,1,0,23,23,29,1,3,×,3,3 × 3,incongruent,tie,1,2,9,,,,,,,,
,,,,,,,,,,,,,,,675,2022-04-11_11h17.49.412,multiplicationStroop,2021.2.3,Win32,59.79788315,,,,,,,,,,,,,,,,,,,,,,,,,,,,,,,,,14,2.3246,1,0,24,24,4,1,2,×,7,2 × 7,incongruent,smallerFirst,2,1,14,,,,,,,,
,,,,,,,,,,,,,,,675,2022-04-11_11h17.49.412,multiplicationStroop,2021.2.3,Win32,59.79788315,,,,,,,,,,,,,,,,,,,,,,,,,,,,,,,,,24,2.3247,1,0,25,25,9,1,3,×,8,3 × 8,incongruent,smallerFirst,2,1,24,,,,,,,,
,,,,,,,,,,,,,,,675,2022-04-11_11h17.49.412,multiplicationStroop,2021.2.3,Win32,59.79788315,,,,,,,,,,,,,,,,,,,,,,,,,,,,,,,,,49,2.3579,1,0,26,26,33,1,7,×,7,7 × 7,incongruent,tie,1,2,49,,,,,,,,
,,,,,,,,,,,,,,,675,2022-04-11_11h17.49.412,multiplicationStroop,2021.2.3,Win32,59.79788315,,,,,,,,,,,,,,,,,,,,,,,,,,,,,,,,,12,1.9817,1,0,27,27,19,1,6,×,2,6 × 2,incongruent,largerFirst,1,2,12,,,,,,,,
,,,,,,,,,,,,,,,675,2022-04-11_11h17.49.412,multiplicationStroop,2021.2.3,Win32,59.79788315,,,,,,,,,,,,,,,,,,,,,,,,,,,,,,,,,64,2.8932,1,0,28,28,34,1,8,×,8,8 × 8,incongruent,tie,1,2,64,,,,,,,,
,,,,,,,,,,,,,,,675,2022-04-11_11h17.49.412,multiplicationStroop,2021.2.3,Win32,59.79788315,,,,,,,,,,,,,,,,,,,,,,,,,,,,,,,,,18,2.4583,1,0,29,29,8,1,3,×,6,3 × 6,incongruent,smallerFirst,2,1,18,,,,,,,,
,,,,,,,,,,,,,,,675,2022-04-11_11h17.49.412,multiplicationStroop,2021.2.3,Win32,59.79788315,,,,,,,,,,,,,,,,,,,,,,,,,,,,,,,,,10,3.2276,1,0,30,30,21,1,5,×,2,5 × 2,incongruent,largerFirst,1,2,10,,,,,,,,
,,,,,,,,,,,,,,,675,2022-04-11_11h17.49.412,multiplicationStroop,2021.2.3,Win32,59.79788315,,,,,,,,,,,,,,,,,,,,,,,,,,,,,,,,,8,1.7477,1,0,31,31,24,1,4,×,2,4 × 2,incongruent,largerFirst,1,2,8,,,,,,,,
,,,,,,,,,,,,,,,675,2022-04-11_11h17.49.412,multiplicationStroop,2021.2.3,Win32,59.79788315,,,,,,,,,,,,,,,,,,,,,,,,,,,,,,,,,16,2.0905,1,0,32,32,30,1,4,×,4,4 × 4,incongruent,tie,1,2,16,,,,,,,,
,,,,,,,,,,,,,,,675,2022-04-11_11h17.49.412,multiplicationStroop,2021.2.3,Win32,59.79788315,,,,,,,,,,,,,,,,,,,,,,,,,,,,,,,,,4,1.7055,1,0,33,33,28,1,2,×,2,2 × 2,incongruent,tie,1,2,4,,,,,,,,
,,,,,,,,,,,,,,,675,2022-04-11_11h17.49.412,multiplicationStroop,2021.2.3,Win32,59.79788315,,,,,,,,,,,,,,,,,,,,,,,,,,,,,,,,,45,2.3918,1,0,34,34,22,1,9,×,5,9 × 5,incongruent,largerFirst,1,2,45,,,,,,,,
,,,,,,,,,,,,,,,675,2022-04-11_11h17.49.412,multiplicationStroop,2021.2.3,Win32,59.79788315,,,,,,,,,,,,,,,,,,,,,,,,,,,,,,,,,63,3.6124,1,0,35,35,3,1,7,×,9,7 × 9,incongruent,smallerFirst,2,1,63,,,,,,,,
,,,,,,,,,,,,,,,675,2022-04-11_11h17.49.412,multiplicationStroop,2021.2.3,Win32,59.79788315,,,,,,,,,,,,,,,,,,,,,,,,,,,,,,,,,,,,,,,,,,,,,,,,,,0,4,4,5,1,stimulusFile/mult_blk6_INcongruent.xlsx,,
,,,,,,,,,,,,,,,675,2022-04-11_11h17.49.412,multiplicationStroop,2021.2.3,Win32,59.79788315,,,,,,,,,,,,,,,,,,,,,,,,,,,,,,,space,1.583,16,3.4325,1,0,0,0,30,1,4,×,4,4 × 4,neutral,tie,2,1,16,,,,,,,,
,,,,,,,,,,,,,,,675,2022-04-11_11h17.49.412,multiplicationStroop,2021.2.3,Win32,59.79788315,,,,,,,,,,,,,,,,,,,,,,,,,,,,,,,,,48,2.5174,1,0,1,1,18,1,8,×,6,8 × 6,congruent,largerFirst,2,1,48,,,,,,,,
,,,,,,,,,,,,,,,675,2022-04-11_11h17.49.412,multiplicationStroop,2021.2.3,Win32,59.79788315,,,,,,,,,,,,,,,,,,,,,,,,,,,,,,,,,36,3.2612,1,0,2,2,0,1,4,×,9,4 × 9,congruent,smallerFirst,1,2,36,,,,,,,,
,,,,,,,,,,,,,,,675,2022-04-11_11h17.49.412,multiplicationStroop,2021.2.3,Win32,59.79788315,,,,,,,,,,,,,,,,,,,,,,,,,,,,,,,,,10,2.1662,1,0,3,3,24,1,5,×,2,5 × 2,congruent,largerFirst,2,1,10,,,,,,,,
,,,,,,,,,,,,,,,675,2022-04-11_11h17.49.412,multiplicationStroop,2021.2.3,Win32,59.79788315,,,,,,,,,,,,,,,,,,,,,,,,,,,,,,,,,18,2.174,1,0,4,4,11,1,3,×,6,3 × 6,congruent,smallerFirst,1,2,18,,,,,,,,
,,,,,,,,,,,,,,,675,2022-04-11_11h17.49.412,multiplicationStroop,2021.2.3,Win32,59.79788315,,,,,,,,,,,,,,,,,,,,,,,,,,,,,,,,,54,2.6423,1,0,5,5,12,1,6,×,9,6 × 9,congruent,smallerFirst,1,2,54,,,,,,,,
,,,,,,,,,,,,,,,675,2022-04-11_11h17.49.412,multiplicationStroop,2021.2.3,Win32,59.79788315,,,,,,,,,,,,,,,,,,,,,,,,,,,,,,,,,30,2.6088,1,0,6,6,15,1,6,×,5,6 × 5,congruent,largerFirst,2,1,30,,,,,,,,
,,,,,,,,,,,,,,,675,2022-04-11_11h17.49.412,multiplicationStroop,2021.2.3,Win32,59.79788315,,,,,,,,,,,,,,,,,,,,,,,,,,,,,,,,,4,2.4171,1,0,7,7,28,1,2,×,2,2 × 2,neutral,tie,2,1,4,,,,,,,,
,,,,,,,,,,,,,,,675,2022-04-11_11h17.49.412,multiplicationStroop,2021.2.3,Win32,59.79788315,,,,,,,,,,,,,,,,,,,,,,,,,,,,,,,,,12,1.8564,1,0,8,8,2,1,3,×,4,3 × 4,congruent,smallerFirst,1,2,12,,,,,,,,
,,,,,,,,,,,,,,,675,2022-04-11_11h17.49.412,multiplicationStroop,2021.2.3,Win32,59.79788315,,,,,,,,,,,,,,,,,,,,,,,,,,,,,,,,,9,1.8227,1,0,9,9,29,1,3,×,3,3 × 3,neutral,tie,2,1,9,,,,,,,,
,,,,,,,,,,,,,,,675,2022-04-11_11h17.49.412,multiplicationStroop,2021.2.3,Win32,59.79788315,,,,,,,,,,,,,,,,,,,,,,,,,,,,,,,,,15,3.7127,1,0,10,10,4,1,3,×,5,3 × 5,congruent,smallerFirst,1,2,15,,,,,,,,
,,,,,,,,,,,,,,,675,2022-04-11_11h17.49.412,multiplicationStroop,2021.2.3,Win32,59.79788315,,,,,,,,,,,,,,,,,,,,,,,,,,,,,,,,,45,2.9519,1,0,11,11,23,1,9,×,5,9 × 5,congruent,largerFirst,2,1,45,,,,,,,,
,,,,,,,,,,,,,,,675,2022-04-11_11h17.49.412,multiplicationStroop,2021.2.3,Win32,59.79788315,,,,,,,,,,,,,,,,,,,,,,,,,,,,,,,,,63,2.7427,1,0,12,12,21,1,9,×,7,9 × 7,congruent,largerFirst,2,1,63,,,,,,,,
,,,,,,,,,,,,,,,675,2022-04-11_11h17.49.412,multiplicationStroop,2021.2.3,Win32,59.79788315,,,,,,,,,,,,,,,,,,,,,,,,,,,,,,,,,32,3.069,1,0,13,13,20,1,8,×,4,8 × 4,congruent,largerFirst,2,1,32,,,,,,,,
,,,,,,,,,,,,,,,675,2022-04-11_11h17.49.412,multiplicationStroop,2021.2.3,Win32,59.79788315,,,,,,,,,,,,,,,,,,,,,,,,,,,,,,,,,21,1.9398,1,0,14,14,16,1,7,×,3,7 × 3,congruent,largerFirst,2,1,21,,,,,,,,
,,,,,,,,,,,,,,,675,2022-04-11_11h17.49.412,multiplicationStroop,2021.2.3,Win32,59.79788315,,,,,,,,,,,,,,,,,,,,,,,,,,,,,,,,,40,2.7259,1,0,15,15,6,1,5,×,8,5 × 8,congruent,smallerFirst,1,2,40,,,,,,,,
,,,,,,,,,,,,,,,675,2022-04-11_11h17.49.412,multiplicationStroop,2021.2.3,Win32,59.79788315,,,,,,,,,,,,,,,,,,,,,,,,,,,,,,,,,20,2.9936,1,0,16,16,7,1,4,×,5,4 × 5,congruent,smallerFirst,1,2,20,,,,,,,,
,,,,,,,,,,,,,,,675,2022-04-11_11h17.49.412,multiplicationStroop,2021.2.3,Win32,59.79788315,,,,,,,,,,,,,,,,,,,,,,,,,,,,,,,,,64,2.0992,1,0,17,17,34,1,8,×,8,8 × 8,neutral,tie,2,1,64,,,,,,,,
,,,,,,,,,,,,,,,675,2022-04-11_11h17.49.412,multiplicationStroop,2021.2.3,Win32,59.79788315,,,,,,,,,,,,,,,,,,,,,,,,,,,,,,,,,27,2.4584,1,0,18,18,26,1,9,×,3,9 × 3,congruent,largerFirst,2,1,27,,,,,,,,
,,,,,,,,,,,,,,,675,2022-04-11_11h17.49.412,multiplicationStroop,2021.2.3,Win32,59.79788315,,,,,,,,,,,,,,,,,,,,,,,,,,,,,,,,,42,3.1774,1,0,19,19,3,1,6,×,7,6 × 7,congruent,smallerFirst,1,2,42,,,,,,,,
,,,,,,,,,,,,,,,675,2022-04-11_11h17.49.412,multiplicationStroop,2021.2.3,Win32,59.79788315,,,,,,,,,,,,,,,,,,,,,,,,,,,,,,,,,18,2.1492,1,0,20,20,22,1,9,×,2,9 × 2,congruent,largerFirst,2,1,18,,,,,,,,
,,,,,,,,,,,,,,,675,2022-04-11_11h17.49.412,multiplicationStroop,2021.2.3,Win32,59.79788315,,,,,,,,,,,,,,,,,,,,,,,,,,,,,,,,,81,2.3414,1,0,21,21,35,1,9,×,9,9 × 9,neutral,tie,2,1,81,,,,,,,,
,,,,,,,,,,,,,,,675,2022-04-11_11h17.49.412,multiplicationStroop,2021.2.3,Win32,59.79788315,,,,,,,,,,,,,,,,,,,,,,,,,,,,,,,,,35,2.7593,1,0,22,22,1,1,5,×,7,5 × 7,congruent,smallerFirst,1,2,35,,,,,,,,
,,,,,,,,,,,,,,,675,2022-04-11_11h17.49.412,multiplicationStroop,2021.2.3,Win32,59.79788315,,,,,,,,,,,,,,,,,,,,,,,,,,,,,,,,,24,2.0737,1,0,23,23,10,1,3,×,8,3 × 8,congruent,smallerFirst,1,2,24,,,,,,,,
,,,,,,,,,,,,,,,675,2022-04-11_11h17.49.412,multiplicationStroop,2021.2.3,Win32,59.79788315,,,,,,,,,,,,,,,,,,,,,,,,,,,,,,,,,12,1.8395,1,0,24,24,19,1,6,×,2,6 × 2,congruent,largerFirst,2,1,12,,,,,,,,
,,,,,,,,,,,,,,,675,2022-04-11_11h17.49.412,multiplicationStroop,2021.2.3,Win32,59.79788315,,,,,,,,,,,,,,,,,,,,,,,,,,,,,,,,,36,1.9566,1,0,25,25,32,1,6,×,6,6 × 6,neutral,tie,2,1,36,,,,,,,,
,,,,,,,,,,,,,,,675,2022-04-11_11h17.49.412,multiplicationStroop,2021.2.3,Win32,59.79788315,,,,,,,,,,,,,,,,,,,,,,,,,,,,,,,,,25,2.2075,1,0,26,26,31,1,5,×,5,5 × 5,neutral,tie,2,1,25,,,,,,,,
,,,,,,,,,,,,,,,675,2022-04-11_11h17.49.412,multiplicationStroop,2021.2.3,Win32,59.79788315,,,,,,,,,,,,,,,,,,,,,,,,,,,,,,,,,28,2.1907,1,0,27,27,27,1,7,×,4,7 × 4,congruent,largerFirst,2,1,28,,,,,,,,
,,,,,,,,,,,,,,,675,2022-04-11_11h17.49.412,multiplicationStroop,2021.2.3,Win32,59.79788315,,,,,,,,,,,,,,,,,,,,,,,,,,,,,,,,,6,1.9819,1,0,28,28,13,1,2,×,3,2 × 3,congruent,smallerFirst,1,2,6,,,,,,,,
,,,,,,,,,,,,,,,675,2022-04-11_11h17.49.412,multiplicationStroop,2021.2.3,Win32,59.79788315,,,,,,,,,,,,,,,,,,,,,,,,,,,,,,,,,49,2.358,1,0,29,29,33,1,7,×,7,7 × 7,neutral,tie,2,1,49,,,,,,,,
,,,,,,,,,,,,,,,675,2022-04-11_11h17.49.412,multiplicationStroop,2021.2.3,Win32,59.79788315,,,,,,,,,,,,,,,,,,,,,,,,,,,,,,,,,8,1.9565,1,0,30,30,9,1,2,×,4,2 × 4,congruent,smallerFirst,1,2,8,,,,,,,,
,,,,,,,,,,,,,,,675,2022-04-11_11h17.49.412,multiplicationStroop,2021.2.3,Win32,59.79788315,,,,,,,,,,,,,,,,,,,,,,,,,,,,,,,,,24,1.7227,1,0,31,31,25,1,6,×,4,6 × 4,congruent,largerFirst,2,1,24,,,,,,,,
,,,,,,,,,,,,,,,675,2022-04-11_11h17.49.412,multiplicationStroop,2021.2.3,Win32,59.79788315,,,,,,,,,,,,,,,,,,,,,,,,,,,,,,,,,56,2.5922,1,0,32,32,8,1,7,×,8,7 × 8,congruent,smallerFirst,1,2,56,,,,,,,,
,,,,,,,,,,,,,,,675,2022-04-11_11h17.49.412,multiplicationStroop,2021.2.3,Win32,59.79788315,,,,,,,,,,,,,,,,,,,,,,,,,,,,,,,,,14,1.9064,1,0,33,33,14,1,7,×,2,7 × 2,congruent,largerFirst,2,1,14,,,,,,,,
,,,,,,,,,,,,,,,675,2022-04-11_11h17.49.412,multiplicationStroop,2021.2.3,Win32,59.79788315,,,,,,,,,,,,,,,,,,,,,,,,,,,,,,,,,72,3.9303,1,0,34,34,17,1,9,×,8,9 × 8,congruent,largerFirst,2,1,72,,,,,,,,
,,,,,,,,,,,,,,,675,2022-04-11_11h17.49.412,multiplicationStroop,2021.2.3,Win32,59.79788315,,,,,,,,,,,,,,,,,,,,,,,,,,,,,,,,,16,2.768,1,0,35,35,5,1,2,×,8,2 × 8,congruent,smallerFirst,1,2,16,,,,,,,,
,,,,,,,,,,,,,,,675,2022-04-11_11h17.49.412,multiplicationStroop,2021.2.3,Win32,59.79788315,,,,,,,,,,,,,,,,,,,,,,,,,,,,,,,,,,,,,,,,,,,,,,,,,,0,5,5,2,1,stimulusFile/mult_blk3_congruent.xlsx,,
,,,,,,,,,,,,,,,675,2022-04-11_11h17.49.412,multiplicationStroop,2021.2.3,Win32,59.79788315,,,,,,,,,,,,,,,,,,,,,,,,,,,,,,,,,,,,,,,,,,,,,,,,,,,,,,,,space,5.2262