welcomeKey_resp.keys,welcomeKey_resp.rt,X Scale,Y Scale,rt_resp_4.keys,rt_resp_4.corr,rt_resp_4.rt,speedtest_2.thisRepN,speedtest_2.thisTrialN,speedtest_2.thisN,speedtest_2.thisIndex,speedtest_2.ran,numberSc,posX,positionLayout,participant,date,expName,psychopyVersion,OS,frameRate,ct_instrresp.keys,ct_instrresp.rt,key_resp_2.keys,key_resp_2.rt,ct_keyResp.keys,ct_keyResp.corr,ct_keyResp.rt,trials.thisRepN,trials.thisTrialN,trials.thisN,trials.thisIndex,trials.ran,leftNo,rightNo,displayProblem,numDistance,leftNo_size,rightNo_size,Dims,keyAnswer,TS_Loop.thisRepN,TS_Loop.thisTrialN,TS_Loop.thisN,TS_Loop.thisIndex,TS_Loop.ran,Condition,ActionInst,instrImage,mltptaskInst_resp.keys,mltptaskInst_resp.rt,continue_resp_2.keys,continue_resp_2.rt,multp_Answer,multi_RT,multiplyCorr,LoopingMultiply.thisRepN,LoopingMultiply.thisTrialN,LoopingMultiply.thisN,LoopingMultiply.thisIndex,LoopingMultiply.ran,factor1,multiplySign,factor2,multliplyProblem,physicalSize,orderOperand,sizeF1,sizeF2,mult_answer,trials_stroop.thisRepN,trials_stroop.thisTrialN,trials_stroop.thisN,trials_stroop.thisIndex,trials_stroop.ran,multiplicationFile,esckey_resp_2.keys,esckey_resp_2.rt
y,12.6238,44.9,44.5,left,1,0.4381,0,0,0,2,1,3,-200,left,676,2022-04-07_09h20.58.098,multiplicationStroop,2021.2.3,Win32,60.10699044,,,,,,,,,,,,,,,,,,,,,,,,,,,,,,,,,,,,,,,,,,,,,,,,,,,,,,,,,
,,,,right,1,0.4432,0,1,1,8,1,1,200,right,676,2022-04-07_09h20.58.098,multiplicationStroop,2021.2.3,Win32,60.10699044,,,,,,,,,,,,,,,,,,,,,,,,,,,,,,,,,,,,,,,,,,,,,,,,,,,,,,,,,
,,,,left,1,0.5401,0,2,2,0,1,1,-200,left,676,2022-04-07_09h20.58.098,multiplicationStroop,2021.2.3,Win32,60.10699044,,,,,,,,,,,,,,,,,,,,,,,,,,,,,,,,,,,,,,,,,,,,,,,,,,,,,,,,,
,,,,left,1,0.4686,0,3,3,5,1,7,-200,left,676,2022-04-07_09h20.58.098,multiplicationStroop,2021.2.3,Win32,60.10699044,,,,,,,,,,,,,,,,,,,,,,,,,,,,,,,,,,,,,,,,,,,,,,,,,,,,,,,,,
,,,,left,1,0.468,0,4,4,3,1,4,-200,left,676,2022-04-07_09h20.58.098,multiplicationStroop,2021.2.3,Win32,60.10699044,,,,,,,,,,,,,,,,,,,,,,,,,,,,,,,,,,,,,,,,,,,,,,,,,,,,,,,,,
,,,,right,1,0.3517,0,5,5,15,1,9,200,right,676,2022-04-07_09h20.58.098,multiplicationStroop,2021.2.3,Win32,60.10699044,,,,,,,,,,,,,,,,,,,,,,,,,,,,,,,,,,,,,,,,,,,,,,,,,,,,,,,,,
,,,,right,1,0.601,0,6,6,13,1,7,200,right,676,2022-04-07_09h20.58.098,multiplicationStroop,2021.2.3,Win32,60.10699044,,,,,,,,,,,,,,,,,,,,,,,,,,,,,,,,,,,,,,,,,,,,,,,,,,,,,,,,,
,,,,right,1,0.4913,0,7,7,14,1,8,200,right,676,2022-04-07_09h20.58.098,multiplicationStroop,2021.2.3,Win32,60.10699044,,,,,,,,,,,,,,,,,,,,,,,,,,,,,,,,,,,,,,,,,,,,,,,,,,,,,,,,,
,,,,left,1,0.3342,0,8,8,1,1,2,-200,left,676,2022-04-07_09h20.58.098,multiplicationStroop,2021.2.3,Win32,60.10699044,,,,,,,,,,,,,,,,,,,,,,,,,,,,,,,,,,,,,,,,,,,,,,,,,,,,,,,,,
,,,,right,1,0.3345,0,9,9,12,1,6,200,right,676,2022-04-07_09h20.58.098,multiplicationStroop,2021.2.3,Win32,60.10699044,,,,,,,,,,,,,,,,,,,,,,,,,,,,,,,,,,,,,,,,,,,,,,,,,,,,,,,,,
,,,,left,1,0.374,0,10,10,4,1,6,-200,left,676,2022-04-07_09h20.58.098,multiplicationStroop,2021.2.3,Win32,60.10699044,,,,,,,,,,,,,,,,,,,,,,,,,,,,,,,,,,,,,,,,,,,,,,,,,,,,,,,,,
,,,,left,1,0.4362,0,11,11,7,1,9,-200,left,676,2022-04-07_09h20.58.098,multiplicationStroop,2021.2.3,Win32,60.10699044,,,,,,,,,,,,,,,,,,,,,,,,,,,,,,,,,,,,,,,,,,,,,,,,,,,,,,,,,
,,,,left,1,0.3345,0,12,12,6,1,8,-200,left,676,2022-04-07_09h20.58.098,multiplicationStroop,2021.2.3,Win32,60.10699044,,,,,,,,,,,,,,,,,,,,,,,,,,,,,,,,,,,,,,,,,,,,,,,,,,,,,,,,,
,,,,right,1,0.3009,0,13,13,10,1,3,200,right,676,2022-04-07_09h20.58.098,multiplicationStroop,2021.2.3,Win32,60.10699044,,,,,,,,,,,,,,,,,,,,,,,,,,,,,,,,,,,,,,,,,,,,,,,,,,,,,,,,,
,,,,right,1,0.3073,0,14,14,9,1,2,200,right,676,2022-04-07_09h20.58.098,multiplicationStroop,2021.2.3,Win32,60.10699044,,,,,,,,,,,,,,,,,,,,,,,,,,,,,,,,,,,,,,,,,,,,,,,,,,,,,,,,,
,,,,right,1,0.3216,0,15,15,11,1,4,200,right,676,2022-04-07_09h20.58.098,multiplicationStroop,2021.2.3,Win32,60.10699044,,,,,,,,,,,,,,,,,,,,,,,,,,,,,,,,,,,,,,,,,,,,,,,,,,,,,,,,,
,,,,left,1,0.5044,1,0,16,7,1,9,-200,left,676,2022-04-07_09h20.58.098,multiplicationStroop,2021.2.3,Win32,60.10699044,,,,,,,,,,,,,,,,,,,,,,,,,,,,,,,,,,,,,,,,,,,,,,,,,,,,,,,,,
,,,,right,1,0.3008,1,1,17,12,1,6,200,right,676,2022-04-07_09h20.58.098,multiplicationStroop,2021.2.3,Win32,60.10699044,,,,,,,,,,,,,,,,,,,,,,,,,,,,,,,,,,,,,,,,,,,,,,,,,,,,,,,,,
,,,,left,1,0.4849,1,2,18,5,1,7,-200,left,676,2022-04-07_09h20.58.098,multiplicationStroop,2021.2.3,Win32,60.10699044,,,,,,,,,,,,,,,,,,,,,,,,,,,,,,,,,,,,,,,,,,,,,,,,,,,,,,,,,
,,,,right,1,0.4108,1,3,19,9,1,2,200,right,676,2022-04-07_09h20.58.098,multiplicationStroop,2021.2.3,Win32,60.10699044,,,,,,,,,,,,,,,,,,,,,,,,,,,,,,,,,,,,,,,,,,,,,,,,,,,,,,,,,
,,,,right,1,0.4244,1,4,20,11,1,4,200,right,676,2022-04-07_09h20.58.098,multiplicationStroop,2021.2.3,Win32,60.10699044,,,,,,,,,,,,,,,,,,,,,,,,,,,,,,,,,,,,,,,,,,,,,,,,,,,,,,,,,
,,,,left,1,0.6015,1,5,21,2,1,3,-200,left,676,2022-04-07_09h20.58.098,multiplicationStroop,2021.2.3,Win32,60.10699044,,,,,,,,,,,,,,,,,,,,,,,,,,,,,,,,,,,,,,,,,,,,,,,,,,,,,,,,,
,,,,left,1,0.4014,1,6,22,0,1,1,-200,left,676,2022-04-07_09h20.58.098,multiplicationStroop,2021.2.3,Win32,60.10699044,,,,,,,,,,,,,,,,,,,,,,,,,,,,,,,,,,,,,,,,,,,,,,,,,,,,,,,,,
,,,,left,1,0.3574,1,7,23,3,1,4,-200,left,676,2022-04-07_09h20.58.098,multiplicationStroop,2021.2.3,Win32,60.10699044,,,,,,,,,,,,,,,,,,,,,,,,,,,,,,,,,,,,,,,,,,,,,,,,,,,,,,,,,
,,,,right,1,0.3349,1,8,24,8,1,1,200,right,676,2022-04-07_09h20.58.098,multiplicationStroop,2021.2.3,Win32,60.10699044,,,,,,,,,,,,,,,,,,,,,,,,,,,,,,,,,,,,,,,,,,,,,,,,,,,,,,,,,
,,,,left,1,0.344,1,9,25,1,1,2,-200,left,676,2022-04-07_09h20.58.098,multiplicationStroop,2021.2.3,Win32,60.10699044,,,,,,,,,,,,,,,,,,,,,,,,,,,,,,,,,,,,,,,,,,,,,,,,,,,,,,,,,
,,,,left,1,0.3093,1,10,26,4,1,6,-200,left,676,2022-04-07_09h20.58.098,multiplicationStroop,2021.2.3,Win32,60.10699044,,,,,,,,,,,,,,,,,,,,,,,,,,,,,,,,,,,,,,,,,,,,,,,,,,,,,,,,,
,,,,right,1,0.318,1,11,27,14,1,8,200,right,676,2022-04-07_09h20.58.098,multiplicationStroop,2021.2.3,Win32,60.10699044,,,,,,,,,,,,,,,,,,,,,,,,,,,,,,,,,,,,,,,,,,,,,,,,,,,,,,,,,
,,,,right,1,0.3175,1,12,28,13,1,7,200,right,676,2022-04-07_09h20.58.098,multiplicationStroop,2021.2.3,Win32,60.10699044,,,,,,,,,,,,,,,,,,,,,,,,,,,,,,,,,,,,,,,,,,,,,,,,,,,,,,,,,
,,,,right,1,0.3061,1,13,29,10,1,3,200,right,676,2022-04-07_09h20.58.098,multiplicationStroop,2021.2.3,Win32,60.10699044,,,,,,,,,,,,,,,,,,,,,,,,,,,,,,,,,,,,,,,,,,,,,,,,,,,,,,,,,
,,,,right,1,0.3517,1,14,30,15,1,9,200,right,676,2022-04-07_09h20.58.098,multiplicationStroop,2021.2.3,Win32,60.10699044,,,,,,,,,,,,,,,,,,,,,,,,,,,,,,,,,,,,,,,,,,,,,,,,,,,,,,,,,
,,,,left,1,0.4086,1,15,31,6,1,8,-200,left,676,2022-04-07_09h20.58.098,multiplicationStroop,2021.2.3,Win32,60.10699044,,,,,,,,,,,,,,,,,,,,,,,,,,,,,,,,,,,,,,,,,,,,,,,,,,,,,,,,,
,,,,right,1,0.2861,2,0,32,12,1,6,200,right,676,2022-04-07_09h20.58.098,multiplicationStroop,2021.2.3,Win32,60.10699044,,,,,,,,,,,,,,,,,,,,,,,,,,,,,,,,,,,,,,,,,,,,,,,,,,,,,,,,,
,,,,left,1,0.2858,2,1,33,2,1,3,-200,left,676,2022-04-07_09h20.58.098,multiplicationStroop,2021.2.3,Win32,60.10699044,,,,,,,,,,,,,,,,,,,,,,,,,,,,,,,,,,,,,,,,,,,,,,,,,,,,,,,,,
,,,,right,1,0.2402,2,2,34,15,1,9,200,right,676,2022-04-07_09h20.58.098,multiplicationStroop,2021.2.3,Win32,60.10699044,,,,,,,,,,,,,,,,,,,,,,,,,,,,,,,,,,,,,,,,,,,,,,,,,,,,,,,,,
,,,,right,1,0.4691,2,3,35,14,1,8,200,right,676,2022-04-07_09h20.58.098,multiplicationStroop,2021.2.3,Win32,60.10699044,,,,,,,,,,,,,,,,,,,,,,,,,,,,,,,,,,,,,,,,,,,,,,,,,,,,,,,,,
,,,,left,1,0.4608,2,4,36,7,1,9,-200,left,676,2022-04-07_09h20.58.098,multiplicationStroop,2021.2.3,Win32,60.10699044,,,,,,,,,,,,,,,,,,,,,,,,,,,,,,,,,,,,,,,,,,,,,,,,,,,,,,,,,
,,,,right,0,0.3178,2,5,37,1,1,2,-200,left,676,2022-04-07_09h20.58.098,multiplicationStroop,2021.2.3,Win32,60.10699044,,,,,,,,,,,,,,,,,,,,,,,,,,,,,,,,,,,,,,,,,,,,,,,,,,,,,,,,,
,,,,left,1,0.4894,2,6,38,0,1,1,-200,left,676,2022-04-07_09h20.58.098,multiplicationStroop,2021.2.3,Win32,60.10699044,,,,,,,,,,,,,,,,,,,,,,,,,,,,,,,,,,,,,,,,,,,,,,,,,,,,,,,,,
,,,,left,1,0.5179,2,7,39,6,1,8,-200,left,676,2022-04-07_09h20.58.098,multiplicationStroop,2021.2.3,Win32,60.10699044,,,,,,,,,,,,,,,,,,,,,,,,,,,,,,,,,,,,,,,,,,,,,,,,,,,,,,,,,
,,,,left,1,0.3296,2,8,40,5,1,7,-200,left,676,2022-04-07_09h20.58.098,multiplicationStroop,2021.2.3,Win32,60.10699044,,,,,,,,,,,,,,,,,,,,,,,,,,,,,,,,,,,,,,,,,,,,,,,,,,,,,,,,,
,,,,right,1,0.2848,2,9,41,11,1,4,200,right,676,2022-04-07_09h20.58.098,multiplicationStroop,2021.2.3,Win32,60.10699044,,,,,,,,,,,,,,,,,,,,,,,,,,,,,,,,,,,,,,,,,,,,,,,,,,,,,,,,,
,,,,right,1,0.4518,2,10,42,10,1,3,200,right,676,2022-04-07_09h20.58.098,multiplicationStroop,2021.2.3,Win32,60.10699044,,,,,,,,,,,,,,,,,,,,,,,,,,,,,,,,,,,,,,,,,,,,,,,,,,,,,,,,,
,,,,right,1,0.3508,2,11,43,8,1,1,200,right,676,2022-04-07_09h20.58.098,multiplicationStroop,2021.2.3,Win32,60.10699044,,,,,,,,,,,,,,,,,,,,,,,,,,,,,,,,,,,,,,,,,,,,,,,,,,,,,,,,,
,,,,right,1,0.3347,2,12,44,9,1,2,200,right,676,2022-04-07_09h20.58.098,multiplicationStroop,2021.2.3,Win32,60.10699044,,,,,,,,,,,,,,,,,,,,,,,,,,,,,,,,,,,,,,,,,,,,,,,,,,,,,,,,,
,,,,left,1,0.3592,2,13,45,3,1,4,-200,left,676,2022-04-07_09h20.58.098,multiplicationStroop,2021.2.3,Win32,60.10699044,,,,,,,,,,,,,,,,,,,,,,,,,,,,,,,,,,,,,,,,,,,,,,,,,,,,,,,,,
,,,,left,1,0.2683,2,14,46,4,1,6,-200,left,676,2022-04-07_09h20.58.098,multiplicationStroop,2021.2.3,Win32,60.10699044,,,,,,,,,,,,,,,,,,,,,,,,,,,,,,,,,,,,,,,,,,,,,,,,,,,,,,,,,
,,,,right,1,0.3684,2,15,47,13,1,7,200,right,676,2022-04-07_09h20.58.098,multiplicationStroop,2021.2.3,Win32,60.10699044,,,,,,,,,,,,,,,,,,,,,,,,,,,,,,,,,,,,,,,,,,,,,,,,,,,,,,,,,
,,,,left,1,0.31,3,0,48,2,1,3,-200,left,676,2022-04-07_09h20.58.098,multiplicationStroop,2021.2.3,Win32,60.10699044,,,,,,,,,,,,,,,,,,,,,,,,,,,,,,,,,,,,,,,,,,,,,,,,,,,,,,,,,
,,,,right,1,0.301,3,1,49,13,1,7,200,right,676,2022-04-07_09h20.58.098,multiplicationStroop,2021.2.3,Win32,60.10699044,,,,,,,,,,,,,,,,,,,,,,,,,,,,,,,,,,,,,,,,,,,,,,,,,,,,,,,,,
,,,,left,1,0.4011,3,2,50,4,1,6,-200,left,676,2022-04-07_09h20.58.098,multiplicationStroop,2021.2.3,Win32,60.10699044,,,,,,,,,,,,,,,,,,,,,,,,,,,,,,,,,,,,,,,,,,,,,,,,,,,,,,,,,
,,,,right,1,0.2839,3,3,51,8,1,1,200,right,676,2022-04-07_09h20.58.098,multiplicationStroop,2021.2.3,Win32,60.10699044,,,,,,,,,,,,,,,,,,,,,,,,,,,,,,,,,,,,,,,,,,,,,,,,,,,,,,,,,
,,,,right,1,0.485,3,4,52,11,1,4,200,right,676,2022-04-07_09h20.58.098,multiplicationStroop,2021.2.3,Win32,60.10699044,,,,,,,,,,,,,,,,,,,,,,,,,,,,,,,,,,,,,,,,,,,,,,,,,,,,,,,,,
,,,,left,1,0.3507,3,5,53,3,1,4,-200,left,676,2022-04-07_09h20.58.098,multiplicationStroop,2021.2.3,Win32,60.10699044,,,,,,,,,,,,,,,,,,,,,,,,,,,,,,,,,,,,,,,,,,,,,,,,,,,,,,,,,
,,,,left,1,0.3878,3,6,54,1,1,2,-200,left,676,2022-04-07_09h20.58.098,multiplicationStroop,2021.2.3,Win32,60.10699044,,,,,,,,,,,,,,,,,,,,,,,,,,,,,,,,,,,,,,,,,,,,,,,,,,,,,,,,,
,,,,left,1,0.3246,3,7,55,0,1,1,-200,left,676,2022-04-07_09h20.58.098,multiplicationStroop,2021.2.3,Win32,60.10699044,,,,,,,,,,,,,,,,,,,,,,,,,,,,,,,,,,,,,,,,,,,,,,,,,,,,,,,,,
,,,,right,1,0.4176,3,8,56,15,1,9,200,right,676,2022-04-07_09h20.58.098,multiplicationStroop,2021.2.3,Win32,60.10699044,,,,,,,,,,,,,,,,,,,,,,,,,,,,,,,,,,,,,,,,,,,,,,,,,,,,,,,,,
,,,,right,1,0.4012,3,9,57,12,1,6,200,right,676,2022-04-07_09h20.58.098,multiplicationStroop,2021.2.3,Win32,60.10699044,,,,,,,,,,,,,,,,,,,,,,,,,,,,,,,,,,,,,,,,,,,,,,,,,,,,,,,,,
,,,,right,1,0.3565,3,10,58,9,1,2,200,right,676,2022-04-07_09h20.58.098,multiplicationStroop,2021.2.3,Win32,60.10699044,,,,,,,,,,,,,,,,,,,,,,,,,,,,,,,,,,,,,,,,,,,,,,,,,,,,,,,,,
,,,,left,1,0.3512,3,11,59,6,1,8,-200,left,676,2022-04-07_09h20.58.098,multiplicationStroop,2021.2.3,Win32,60.10699044,,,,,,,,,,,,,,,,,,,,,,,,,,,,,,,,,,,,,,,,,,,,,,,,,,,,,,,,,
,,,,left,1,0.3678,3,12,60,5,1,7,-200,left,676,2022-04-07_09h20.58.098,multiplicationStroop,2021.2.3,Win32,60.10699044,,,,,,,,,,,,,,,,,,,,,,,,,,,,,,,,,,,,,,,,,,,,,,,,,,,,,,,,,
,,,,left,1,0.3189,3,13,61,7,1,9,-200,left,676,2022-04-07_09h20.58.098,multiplicationStroop,2021.2.3,Win32,60.10699044,,,,,,,,,,,,,,,,,,,,,,,,,,,,,,,,,,,,,,,,,,,,,,,,,,,,,,,,,
,,,,right,1,0.3849,3,14,62,10,1,3,200,right,676,2022-04-07_09h20.58.098,multiplicationStroop,2021.2.3,Win32,60.10699044,,,,,,,,,,,,,,,,,,,,,,,,,,,,,,,,,,,,,,,,,,,,,,,,,,,,,,,,,
,,,,right,1,0.4253,3,15,63,14,1,8,200,right,676,2022-04-07_09h20.58.098,multiplicationStroop,2021.2.3,Win32,60.10699044,,,,,,,,,,,,,,,,,,,,,,,,,,,,,,,,,,,,,,,,,,,,,,,,,,,,,,,,,
,,,,,,,,,,,,,,,676,2022-04-07_09h20.58.098,multiplicationStroop,2021.2.3,Win32,60.10699044,space,19.8181,space,10.8969,right,0,2.3522,0,0,0,36,1,3,1,3 | 1,2,1.4111,1.9756,incongruent,left,,,,,,stimulusFile/magnitude.xlsx,,,,,,,,,,,,,,,,,,,,,,,,,,,,,,,
,,,,,,,,,,,,,,,676,2022-04-07_09h20.58.098,multiplicationStroop,2021.2.3,Win32,60.10699044,,,,,left,0,1.2437,0,1,1,41,1,2,7,2 | 7,5,1.9756,1.4111,incongruent,right,,,,,,stimulusFile/magnitude.xlsx,,,,,,,,,,,,,,,,,,,,,,,,,,,,,,,
,,,,,,,,,,,,,,,676,2022-04-07_09h20.58.098,multiplicationStroop,2021.2.3,Win32,60.10699044,,,,,left,1,3.1762,0,2,2,61,1,4,2,4 | 2,2,1.6933,1.6933,neutral,left,,,,,,stimulusFile/magnitude.xlsx,,,,,,,,,,,,,,,,,,,,,,,,,,,,,,,
,,,,,,,,,,,,,,,676,2022-04-07_09h20.58.098,multiplicationStroop,2021.2.3,Win32,60.10699044,,,,,left,1,0.5458,0,3,3,21,1,7,2,7 | 2,5,1.9756,1.4111,congruent,left,,,,,,stimulusFile/magnitude.xlsx,,,,,,,,,,,,,,,,,,,,,,,,,,,,,,,
,,,,,,,,,,,,,,,676,2022-04-07_09h20.58.098,multiplicationStroop,2021.2.3,Win32,60.10699044,,,,,left,1,0.8732,0,4,4,15,1,9,7,9 | 7,2,1.9756,1.4111,congruent,left,,,,,,stimulusFile/magnitude.xlsx,,,,,,,,,,,,,,,,,,,,,,,,,,,,,,,
,,,,,,,,,,,,,,,676,2022-04-07_09h20.58.098,multiplicationStroop,2021.2.3,Win32,60.10699044,,,,,right,0,0.5918,0,5,5,31,1,9,8,9 | 8,1,1.4111,1.9756,incongruent,left,,,,,,stimulusFile/magnitude.xlsx,,,,,,,,,,,,,,,,,,,,,,,,,,,,,,,
,,,,,,,,,,,,,,,676,2022-04-07_09h20.58.098,multiplicationStroop,2021.2.3,Win32,60.10699044,,,,,right,1,0.5275,0,6,6,16,1,1,6,1 | 6,5,1.4111,1.9756,congruent,right,,,,,,stimulusFile/magnitude.xlsx,,,,,,,,,,,,,,,,,,,,,,,,,,,,,,,
,,,,,,,,,,,,,,,676,2022-04-07_09h20.58.098,multiplicationStroop,2021.2.3,Win32,60.10699044,,,,,right,1,0.8486,0,7,7,11,1,7,9,7 | 9,2,1.4111,1.9756,congruent,right,,,,,,stimulusFile/magnitude.xlsx,,,,,,,,,,,,,,,,,,,,,,,,,,,,,,,
,,,,,,,,,,,,,,,676,2022-04-07_09h20.58.098,multiplicationStroop,2021.2.3,Win32,60.10699044,,,,,left,1,0.4914,0,8,8,4,1,2,1,2 | 1,1,1.9756,1.4111,congruent,left,,,,,,stimulusFile/magnitude.xlsx,,,,,,,,,,,,,,,,,,,,,,,,,,,,,,,
,,,,,,,,,,,,,,,676,2022-04-07_09h20.58.098,multiplicationStroop,2021.2.3,Win32,60.10699044,,,,,right,1,0.4463,0,9,9,51,1,8,9,8 | 9,1,1.6933,1.6933,neutral,right,,,,,,stimulusFile/magnitude.xlsx,,,,,,,,,,,,,,,,,,,,,,,,,,,,,,,
,,,,,,,,,,,,,,,676,2022-04-07_09h20.58.098,multiplicationStroop,2021.2.3,Win32,60.10699044,,,,,left,0,0.7778,0,10,10,48,1,1,2,1 | 2,1,1.6933,1.6933,neutral,right,,,,,,stimulusFile/magnitude.xlsx,,,,,,,,,,,,,,,,,,,,,,,,,,,,,,,
,,,,,,,,,,,,,,,676,2022-04-07_09h20.58.098,multiplicationStroop,2021.2.3,Win32,60.10699044,,,,,left,1,0.5346,0,11,11,5,1,4,3,4 | 3,1,1.9756,1.4111,congruent,left,,,,,,stimulusFile/magnitude.xlsx,,,,,,,,,,,,,,,,,,,,,,,,,,,,,,,
,,,,,,,,,,,,,,,676,2022-04-07_09h20.58.098,multiplicationStroop,2021.2.3,Win32,60.10699044,,,,,right,0,1.6357,0,12,12,28,1,2,1,2 | 1,1,1.4111,1.9756,incongruent,left,,,,,,stimulusFile/magnitude.xlsx,,,,,,,,,,,,,,,,,,,,,,,,,,,,,,,
,,,,,,,,,,,,,,,676,2022-04-07_09h20.58.098,multiplicationStroop,2021.2.3,Win32,60.10699044,,,,,right,1,0.7987,0,13,13,19,1,4,9,4 | 9,5,1.4111,1.9756,congruent,right,,,,,,stimulusFile/magnitude.xlsx,,,,,,,,,,,,,,,,,,,,,,,,,,,,,,,
,,,,,,,,,,,,,,,676,2022-04-07_09h20.58.098,multiplicationStroop,2021.2.3,Win32,60.10699044,,,,,left,1,0.752,0,14,14,52,1,2,1,2 | 1,1,1.6933,1.6933,neutral,left,,,,,,stimulusFile/magnitude.xlsx,,,,,,,,,,,,,,,,,,,,,,,,,,,,,,,
,,,,,,,,,,,,,,,676,2022-04-07_09h20.58.098,multiplicationStroop,2021.2.3,Win32,60.10699044,,,,,left,0,0.7529,0,15,15,43,1,4,9,4 | 9,5,1.9756,1.4111,incongruent,right,,,,,,stimulusFile/magnitude.xlsx,,,,,,,,,,,,,,,,,,,,,,,,,,,,,,,
,,,,,,,,,,,,,,,676,2022-04-07_09h20.58.098,multiplicationStroop,2021.2.3,Win32,60.10699044,,,,,right,0,0.66,0,16,16,47,1,9,4,9 | 4,5,1.4111,1.9756,incongruent,left,,,,,,stimulusFile/magnitude.xlsx,,,,,,,,,,,,,,,,,,,,,,,,,,,,,,,
,,,,,,,,,,,,,,,676,2022-04-07_09h20.58.098,multiplicationStroop,2021.2.3,Win32,60.10699044,,,,,left,0,0.7894,0,17,17,65,1,2,7,2 | 7,5,1.6933,1.6933,neutral,right,,,,,,stimulusFile/magnitude.xlsx,,,,,,,,,,,,,,,,,,,,,,,,,,,,,,,
,,,,,,,,,,,,,,,676,2022-04-07_09h20.58.098,multiplicationStroop,2021.2.3,Win32,60.10699044,,,,,right,1,0.5521,0,18,18,0,1,1,2,1 | 2,1,1.4111,1.9756,congruent,right,,,,,,stimulusFile/magnitude.xlsx,,,,,,,,,,,,,,,,,,,,,,,,,,,,,,,
,,,,,,,,,,,,,,,676,2022-04-07_09h20.58.098,multiplicationStroop,2021.2.3,Win32,60.10699044,,,,,left,0,0.4369,0,19,19,25,1,3,4,3 | 4,1,1.9756,1.4111,incongruent,right,,,,,,stimulusFile/magnitude.xlsx,,,,,,,,,,,,,,,,,,,,,,,,,,,,,,,
,,,,,,,,,,,,,,,676,2022-04-07_09h20.58.098,multiplicationStroop,2021.2.3,Win32,60.10699044,,,,,right,0,0.6508,0,20,20,38,1,8,6,8 | 6,2,1.4111,1.9756,incongruent,left,,,,,,stimulusFile/magnitude.xlsx,,,,,,,,,,,,,,,,,,,,,,,,,,,,,,,
,,,,,,,,,,,,,,,676,2022-04-07_09h20.58.098,multiplicationStroop,2021.2.3,Win32,60.10699044,,,,,right,1,0.5059,0,21,21,17,1,2,7,2 | 7,5,1.4111,1.9756,congruent,right,,,,,,stimulusFile/magnitude.xlsx,,,,,,,,,,,,,,,,,,,,,,,,,,,,,,,
,,,,,,,,,,,,,,,676,2022-04-07_09h20.58.098,multiplicationStroop,2021.2.3,Win32,60.10699044,,,,,right,0,0.7511,0,22,22,37,1,4,2,4 | 2,2,1.4111,1.9756,incongruent,left,,,,,,stimulusFile/magnitude.xlsx,,,,,,,,,,,,,,,,,,,,,,,,,,,,,,,
,,,,,,,,,,,,,,,676,2022-04-07_09h20.58.098,multiplicationStroop,2021.2.3,Win32,60.10699044,,,,,left,1,0.4679,0,23,23,70,1,8,3,8 | 3,5,1.6933,1.6933,neutral,left,,,,,,stimulusFile/magnitude.xlsx,,,,,,,,,,,,,,,,,,,,,,,,,,,,,,,
,,,,,,,,,,,,,,,676,2022-04-07_09h20.58.098,multiplicationStroop,2021.2.3,Win32,60.10699044,,,,,right,1,0.4511,0,24,24,18,1,3,8,3 | 8,5,1.4111,1.9756,congruent,right,,,,,,stimulusFile/magnitude.xlsx,,,,,,,,,,,,,,,,,,,,,,,,,,,,,,,
,,,,,,,,,,,,,,,676,2022-04-07_09h20.58.098,multiplicationStroop,2021.2.3,Win32,60.10699044,,,,,left,1,0.453,0,25,25,69,1,7,2,7 | 2,5,1.6933,1.6933,neutral,left,,,,,,stimulusFile/magnitude.xlsx,,,,,,,,,,,,,,,,,,,,,,,,,,,,,,,
,,,,,,,,,,,,,,,676,2022-04-07_09h20.58.098,multiplicationStroop,2021.2.3,Win32,60.10699044,,,,,right,0,1.6704,0,26,26,55,1,9,8,9 | 8,1,1.6933,1.6933,neutral,left,,,,,,stimulusFile/magnitude.xlsx,,,,,,,,,,,,,,,,,,,,,,,,,,,,,,,
,,,,,,,,,,,,,,,676,2022-04-07_09h20.58.098,multiplicationStroop,2021.2.3,Win32,60.10699044,,,,,right,0,1.8697,0,27,27,54,1,7,6,7 | 6,1,1.6933,1.6933,neutral,left,,,,,,stimulusFile/magnitude.xlsx,,,,,,,,,,,,,,,,,,,,,,,,,,,,,,,
,,,,,,,,,,,,,,,676,2022-04-07_09h20.58.098,multiplicationStroop,2021.2.3,Win32,60.10699044,,,,,right,0,0.8839,0,28,28,29,1,4,3,4 | 3,1,1.4111,1.9756,incongruent,left,,,,,,stimulusFile/magnitude.xlsx,,,,,,,,,,,,,,,,,,,,,,,,,,,,,,,
,,,,,,,,,,,,,,,676,2022-04-07_09h20.58.098,multiplicationStroop,2021.2.3,Win32,60.10699044,,,,,left,0,0.587,0,29,29,35,1,7,9,7 | 9,2,1.9756,1.4111,incongruent,right,,,,,,stimulusFile/magnitude.xlsx,,,,,,,,,,,,,,,,,,,,,,,,,,,,,,,
,,,,,,,,,,,,,,,676,2022-04-07_09h20.58.098,multiplicationStroop,2021.2.3,Win32,60.10699044,,,,,left,1,0.5339,0,30,30,7,1,9,8,9 | 8,1,1.9756,1.4111,congruent,left,,,,,,stimulusFile/magnitude.xlsx,,,,,,,,,,,,,,,,,,,,,,,,,,,,,,,
,,,,,,,,,,,,,,,676,2022-04-07_09h20.58.098,multiplicationStroop,2021.2.3,Win32,60.10699044,,,,,left,0,0.5046,0,31,31,42,1,3,8,3 | 8,5,1.9756,1.4111,incongruent,right,,,,,,stimulusFile/magnitude.xlsx,,,,,,,,,,,,,,,,,,,,,,,,,,,,,,,
,,,,,,,,,,,,,,,676,2022-04-07_09h20.58.098,multiplicationStroop,2021.2.3,Win32,60.10699044,,,,,right,1,0.4441,0,32,32,10,1,6,8,6 | 8,2,1.4111,1.9756,congruent,right,,,,,,stimulusFile/magnitude.xlsx,,,,,,,,,,,,,,,,,,,,,,,,,,,,,,,
,,,,,,,,,,,,,,,676,2022-04-07_09h20.58.098,multiplicationStroop,2021.2.3,Win32,60.10699044,,,,,left,1,1.5508,0,33,33,22,1,8,3,8 | 3,5,1.9756,1.4111,congruent,left,,,,,,stimulusFile/magnitude.xlsx,,,,,,,,,,,,,,,,,,,,,,,,,,,,,,,
,,,,,,,,,,,,,,,676,2022-04-07_09h20.58.098,multiplicationStroop,2021.2.3,Win32,60.10699044,,,,,right,1,0.6678,0,34,34,49,1,3,4,3 | 4,1,1.6933,1.6933,neutral,right,,,,,,stimulusFile/magnitude.xlsx,,,,,,,,,,,,,,,,,,,,,,,,,,,,,,,
,,,,,,,,,,,,,,,676,2022-04-07_09h20.58.098,multiplicationStroop,2021.2.3,Win32,60.10699044,,,,,left,1,0.4573,0,35,35,6,1,7,6,7 | 6,1,1.9756,1.4111,congruent,left,,,,,,stimulusFile/magnitude.xlsx,,,,,,,,,,,,,,,,,,,,,,,,,,,,,,,
,,,,,,,,,,,,,,,676,2022-04-07_09h20.58.098,multiplicationStroop,2021.2.3,Win32,60.10699044,,,,,right,1,0.5852,0,36,36,2,1,6,7,6 | 7,1,1.4111,1.9756,congruent,right,,,,,,stimulusFile/magnitude.xlsx,,,,,,,,,,,,,,,,,,,,,,,,,,,,,,,
,,,,,,,,,,,,,,,676,2022-04-07_09h20.58.098,multiplicationStroop,2021.2.3,Win32,60.10699044,,,,,left,0,0.6896,0,37,37,56,1,1,3,1 | 3,2,1.6933,1.6933,neutral,right,,,,,,stimulusFile/magnitude.xlsx,,,,,,,,,,,,,,,,,,,,,,,,,,,,,,,
,,,,,,,,,,,,,,,676,2022-04-07_09h20.58.098,multiplicationStroop,2021.2.3,Win32,60.10699044,,,,,right,1,0.5083,0,38,38,9,1,2,4,2 | 4,2,1.4111,1.9756,congruent,right,,,,,,stimulusFile/magnitude.xlsx,,,,,,,,,,,,,,,,,,,,,,,,,,,,,,,
,,,,,,,,,,,,,,,676,2022-04-07_09h20.58.098,multiplicationStroop,2021.2.3,Win32,60.10699044,,,,,right,1,0.839,0,39,39,58,1,6,8,6 | 8,2,1.6933,1.6933,neutral,right,,,,,,stimulusFile/magnitude.xlsx,,,,,,,,,,,,,,,,,,,,,,,,,,,,,,,
,,,,,,,,,,,,,,,676,2022-04-07_09h20.58.098,multiplicationStroop,2021.2.3,Win32,60.10699044,,,,,right,0,0.569,0,40,40,39,1,9,7,9 | 7,2,1.4111,1.9756,incongruent,left,,,,,,stimulusFile/magnitude.xlsx,,,,,,,,,,,,,,,,,,,,,,,,,,,,,,,
,,,,,,,,,,,,,,,676,2022-04-07_09h20.58.098,multiplicationStroop,2021.2.3,Win32,60.10699044,,,,,left,1,0.5839,0,41,41,60,1,3,1,3 | 1,2,1.6933,1.6933,neutral,left,,,,,,stimulusFile/magnitude.xlsx,,,,,,,,,,,,,,,,,,,,,,,,,,,,,,,
,,,,,,,,,,,,,,,676,2022-04-07_09h20.58.098,multiplicationStroop,2021.2.3,Win32,60.10699044,,,,,left,1,0.5677,0,42,42,13,1,4,2,4 | 2,2,1.9756,1.4111,congruent,left,,,,,,stimulusFile/magnitude.xlsx,,,,,,,,,,,,,,,,,,,,,,,,,,,,,,,
,,,,,,,,,,,,,,,676,2022-04-07_09h20.58.098,multiplicationStroop,2021.2.3,Win32,60.10699044,,,,,left,0,1.7676,0,43,43,57,1,2,4,2 | 4,2,1.6933,1.6933,neutral,right,,,,,,stimulusFile/magnitude.xlsx,,,,,,,,,,,,,,,,,,,,,,,,,,,,,,,
,,,,,,,,,,,,,,,676,2022-04-07_09h20.58.098,multiplicationStroop,2021.2.3,Win32,60.10699044,,,,,left,0,1.4711,0,44,44,64,1,1,6,1 | 6,5,1.6933,1.6933,neutral,right,,,,,,stimulusFile/magnitude.xlsx,,,,,,,,,,,,,,,,,,,,,,,,,,,,,,,
,,,,,,,,,,,,,,,676,2022-04-07_09h20.58.098,multiplicationStroop,2021.2.3,Win32,60.10699044,,,,,right,0,0.6348,0,45,45,30,1,7,6,7 | 6,1,1.4111,1.9756,incongruent,left,,,,,,stimulusFile/magnitude.xlsx,,,,,,,,,,,,,,,,,,,,,,,,,,,,,,,
,,,,,,,,,,,,,,,676,2022-04-07_09h20.58.098,multiplicationStroop,2021.2.3,Win32,60.10699044,,,,,left,1,0.5067,0,46,46,46,1,8,3,8 | 3,5,1.4111,1.9756,incongruent,left,,,,,,stimulusFile/magnitude.xlsx,,,,,,,,,,,,,,,,,,,,,,,,,,,,,,,
,,,,,,,,,,,,,,,676,2022-04-07_09h20.58.098,multiplicationStroop,2021.2.3,Win32,60.10699044,,,,,left,0,2.3404,0,47,47,34,1,6,8,6 | 8,2,1.9756,1.4111,incongruent,right,,,,,,stimulusFile/magnitude.xlsx,,,,,,,,,,,,,,,,,,,,,,,,,,,,,,,
,,,,,,,,,,,,,,,676,2022-04-07_09h20.58.098,multiplicationStroop,2021.2.3,Win32,60.10699044,,,,,right,1,0.4514,0,48,48,1,1,3,4,3 | 4,1,1.4111,1.9756,congruent,right,,,,,,stimulusFile/magnitude.xlsx,,,,,,,,,,,,,,,,,,,,,,,,,,,,,,,
,,,,,,,,,,,,,,,676,2022-04-07_09h20.58.098,multiplicationStroop,2021.2.3,Win32,60.10699044,,,,,right,1,0.5525,0,49,49,8,1,1,3,1 | 3,2,1.4111,1.9756,congruent,right,,,,,,stimulusFile/magnitude.xlsx,,,,,,,,,,,,,,,,,,,,,,,,,,,,,,,
,,,,,,,,,,,,,,,676,2022-04-07_09h20.58.098,multiplicationStroop,2021.2.3,Win32,60.10699044,,,,,left,0,0.5512,0,50,50,32,1,1,3,1 | 3,2,1.9756,1.4111,incongruent,right,,,,,,stimulusFile/magnitude.xlsx,,,,,,,,,,,,,,,,,,,,,,,,,,,,,,,
,,,,,,,,,,,,,,,676,2022-04-07_09h20.58.098,multiplicationStroop,2021.2.3,Win32,60.10699044,,,,,left,1,1.0005,0,51,51,68,1,6,1,6 | 1,5,1.6933,1.6933,neutral,left,,,,,,stimulusFile/magnitude.xlsx,,,,,,,,,,,,,,,,,,,,,,,,,,,,,,,
,,,,,,,,,,,,,,,676,2022-04-07_09h20.58.098,multiplicationStroop,2021.2.3,Win32,60.10699044,,,,,left,0,0.5721,0,52,52,24,1,1,2,1 | 2,1,1.9756,1.4111,incongruent,right,,,,,,stimulusFile/magnitude.xlsx,,,,,,,,,,,,,,,,,,,,,,,,,,,,,,,
,,,,,,,,,,,,,,,676,2022-04-07_09h20.58.098,multiplicationStroop,2021.2.3,Win32,60.10699044,,,,,left,1,0.3839,0,53,53,12,1,3,1,3 | 1,2,1.9756,1.4111,congruent,left,,,,,,stimulusFile/magnitude.xlsx,,,,,,,,,,,,,,,,,,,,,,,,,,,,,,,
,,,,,,,,,,,,,,,676,2022-04-07_09h20.58.098,multiplicationStroop,2021.2.3,Win32,60.10699044,,,,,left,0,0.6685,0,54,54,40,1,1,6,1 | 6,5,1.9756,1.4111,incongruent,right,,,,,,stimulusFile/magnitude.xlsx,,,,,,,,,,,,,,,,,,,,,,,,,,,,,,,
,,,,,,,,,,,,,,,676,2022-04-07_09h20.58.098,multiplicationStroop,2021.2.3,Win32,60.10699044,,,,,left,1,0.4348,0,55,55,14,1,8,6,8 | 6,2,1.9756,1.4111,congruent,left,,,,,,stimulusFile/magnitude.xlsx,,,,,,,,,,,,,,,,,,,,,,,,,,,,,,,
,,,,,,,,,,,,,,,676,2022-04-07_09h20.58.098,multiplicationStroop,2021.2.3,Win32,60.10699044,,,,,left,0,0.3581,0,56,56,27,1,8,9,8 | 9,1,1.9756,1.4111,incongruent,right,,,,,,stimulusFile/magnitude.xlsx,,,,,,,,,,,,,,,,,,,,,,,,,,,,,,,
,,,,,,,,,,,,,,,676,2022-04-07_09h20.58.098,multiplicationStroop,2021.2.3,Win32,60.10699044,,,,,right,0,0.6344,0,57,57,44,1,6,1,6 | 1,5,1.4111,1.9756,incongruent,left,,,,,,stimulusFile/magnitude.xlsx,,,,,,,,,,,,,,,,,,,,,,,,,,,,,,,
,,,,,,,,,,,,,,,676,2022-04-07_09h20.58.098,multiplicationStroop,2021.2.3,Win32,60.10699044,,,,,left,1,0.5229,0,58,58,71,1,9,4,9 | 4,5,1.6933,1.6933,neutral,left,,,,,,stimulusFile/magnitude.xlsx,,,,,,,,,,,,,,,,,,,,,,,,,,,,,,,
,,,,,,,,,,,,,,,676,2022-04-07_09h20.58.098,multiplicationStroop,2021.2.3,Win32,60.10699044,,,,,right,1,0.89,0,59,59,50,1,6,7,6 | 7,1,1.6933,1.6933,neutral,right,,,,,,stimulusFile/magnitude.xlsx,,,,,,,,,,,,,,,,,,,,,,,,,,,,,,,
,,,,,,,,,,,,,,,676,2022-04-07_09h20.58.098,multiplicationStroop,2021.2.3,Win32,60.10699044,,,,,left,1,0.4013,0,60,60,23,1,9,4,9 | 4,5,1.9756,1.4111,congruent,left,,,,,,stimulusFile/magnitude.xlsx,,,,,,,,,,,,,,,,,,,,,,,,,,,,,,,
,,,,,,,,,,,,,,,676,2022-04-07_09h20.58.098,multiplicationStroop,2021.2.3,Win32,60.10699044,,,,,right,0,0.8742,0,61,61,45,1,7,2,7 | 2,5,1.4111,1.9756,incongruent,left,,,,,,stimulusFile/magnitude.xlsx,,,,,,,,,,,,,,,,,,,,,,,,,,,,,,,
,,,,,,,,,,,,,,,676,2022-04-07_09h20.58.098,multiplicationStroop,2021.2.3,Win32,60.10699044,,,,,left,1,0.651,0,62,62,53,1,4,3,4 | 3,1,1.6933,1.6933,neutral,left,,,,,,stimulusFile/magnitude.xlsx,,,,,,,,,,,,,,,,,,,,,,,,,,,,,,,
,,,,,,,,,,,,,,,676,2022-04-07_09h20.58.098,multiplicationStroop,2021.2.3,Win32,60.10699044,,,,,left,0,0.6015,0,63,63,67,1,4,9,4 | 9,5,1.6933,1.6933,neutral,right,,,,,,stimulusFile/magnitude.xlsx,,,,,,,,,,,,,,,,,,,,,,,,,,,,,,,
,,,,,,,,,,,,,,,676,2022-04-07_09h20.58.098,multiplicationStroop,2021.2.3,Win32,60.10699044,,,,,right,1,0.8373,0,64,64,3,1,8,9,8 | 9,1,1.4111,1.9756,congruent,right,,,,,,stimulusFile/magnitude.xlsx,,,,,,,,,,,,,,,,,,,,,,,,,,,,,,,
,,,,,,,,,,,,,,,676,2022-04-07_09h20.58.098,multiplicationStroop,2021.2.3,Win32,60.10699044,,,,,left,1,0.5182,0,65,65,20,1,6,1,6 | 1,5,1.9756,1.4111,congruent,left,,,,,,stimulusFile/magnitude.xlsx,,,,,,,,,,,,,,,,,,,,,,,,,,,,,,,
,,,,,,,,,,,,,,,676,2022-04-07_09h20.58.098,multiplicationStroop,2021.2.3,Win32,60.10699044,,,,,left,0,0.725,0,66,66,26,1,6,7,6 | 7,1,1.9756,1.4111,incongruent,right,,,,,,stimulusFile/magnitude.xlsx,,,,,,,,,,,,,,,,,,,,,,,,,,,,,,,
,,,,,,,,,,,,,,,676,2022-04-07_09h20.58.098,multiplicationStroop,2021.2.3,Win32,60.10699044,,,,,right,0,1.6422,0,67,67,62,1,8,6,8 | 6,2,1.6933,1.6933,neutral,left,,,,,,stimulusFile/magnitude.xlsx,,,,,,,,,,,,,,,,,,,,,,,,,,,,,,,
,,,,,,,,,,,,,,,676,2022-04-07_09h20.58.098,multiplicationStroop,2021.2.3,Win32,60.10699044,,,,,right,1,1.5915,0,68,68,59,1,7,9,7 | 9,2,1.6933,1.6933,neutral,right,,,,,,stimulusFile/magnitude.xlsx,,,,,,,,,,,,,,,,,,,,,,,,,,,,,,,
,,,,,,,,,,,,,,,676,2022-04-07_09h20.58.098,multiplicationStroop,2021.2.3,Win32,60.10699044,,,,,left,0,0.4841,0,69,69,33,1,2,4,2 | 4,2,1.9756,1.4111,incongruent,right,,,,,,stimulusFile/magnitude.xlsx,,,,,,,,,,,,,,,,,,,,,,,,,,,,,,,
,,,,,,,,,,,,,,,676,2022-04-07_09h20.58.098,multiplicationStroop,2021.2.3,Win32,60.10699044,,,,,right,1,0.7228,0,70,70,66,1,3,8,3 | 8,5,1.6933,1.6933,neutral,right,,,,,,stimulusFile/magnitude.xlsx,,,,,,,,,,,,,,,,,,,,,,,,,,,,,,,
,,,,,,,,,,,,,,,676,2022-04-07_09h20.58.098,multiplicationStroop,2021.2.3,Win32,60.10699044,,,,,left,1,0.5856,0,71,71,63,1,9,7,9 | 7,2,1.6933,1.6933,neutral,left,,,,,,stimulusFile/magnitude.xlsx,,,,,,,,,,,,,,,,,,,,,,,,,,,,,,,
,,,,,,,,,,,,,,,676,2022-04-07_09h20.58.098,multiplicationStroop,2021.2.3,Win32,60.10699044,,,,,,,,,,,,,,,,,,,,,0,0,0,0,1,stimulusFile/magnitude.xlsx,NUMERICALLY larger (larger coefficient).,images/numericallyLarger.png,,,,,,,,,,,,,,,,,,,,,,,,,,,,,
,,,,,,,,,,,,,,,676,2022-04-07_09h20.58.098,multiplicationStroop,2021.2.3,Win32,60.10699044,space,7.9696,space,3.4741,right,1,0.7777,0,0,0,9,1,2,4,2 | 4,2,1.4111,1.9756,congruent,right,,,,,,stimulusFile/physical.xlsx,,,,,,,,,,,,,,,,,,,,,,,,,,,,,,,
,,,,,,,,,,,,,,,676,2022-04-07_09h20.58.098,multiplicationStroop,2021.2.3,Win32,60.10699044,,,,,right,1,0.8788,0,1,1,29,1,4,3,4 | 3,1,1.4111,1.9756,incongruent,right,,,,,,stimulusFile/physical.xlsx,,,,,,,,,,,,,,,,,,,,,,,,,,,,,,,
,,,,,,,,,,,,,,,676,2022-04-07_09h20.58.098,multiplicationStroop,2021.2.3,Win32,60.10699044,,,,,left,1,0.9378,0,2,2,50,1,6,6,6 | 6,0,1.9756,1.4111,neutral,left,,,,,,stimulusFile/physical.xlsx,,,,,,,,,,,,,,,,,,,,,,,,,,,,,,,
,,,,,,,,,,,,,,,676,2022-04-07_09h20.58.098,multiplicationStroop,2021.2.3,Win32,60.10699044,,,,,left,0,0.6674,0,3,3,66,1,3,3,3 | 3,0,1.9756,1.4111,neutral,right,,,,,,stimulusFile/physical.xlsx,,,,,,,,,,,,,,,,,,,,,,,,,,,,,,,
,,,,,,,,,,,,,,,676,2022-04-07_09h20.58.098,multiplicationStroop,2021.2.3,Win32,60.10699044,,,,,left,1,0.494,0,4,4,22,1,8,3,8 | 3,5,1.9756,1.4111,congruent,left,,,,,,stimulusFile/physical.xlsx,,,,,,,,,,,,,,,,,,,,,,,,,,,,,,,
,,,,,,,,,,,,,,,676,2022-04-07_09h20.58.098,multiplicationStroop,2021.2.3,Win32,60.10699044,,,,,right,1,0.5321,0,5,5,16,1,1,6,1 | 6,5,1.4111,1.9756,congruent,right,,,,,,stimulusFile/physical.xlsx,,,,,,,,,,,,,,,,,,,,,,,,,,,,,,,
,,,,,,,,,,,,,,,676,2022-04-07_09h20.58.098,multiplicationStroop,2021.2.3,Win32,60.10699044,,,,,left,1,0.5523,0,6,6,7,1,9,8,9 | 8,1,1.9756,1.4111,congruent,left,,,,,,stimulusFile/physical.xlsx,,,,,,,,,,,,,,,,,,,,,,,,,,,,,,,
,,,,,,,,,,,,,,,676,2022-04-07_09h20.58.098,multiplicationStroop,2021.2.3,Win32,60.10699044,,,,,right,1,0.512,0,7,7,3,1,8,9,8 | 9,1,1.4111,1.9756,congruent,right,,,,,,stimulusFile/physical.xlsx,,,,,,,,,,,,,,,,,,,,,,,,,,,,,,,
,,,,,,,,,,,,,,,676,2022-04-07_09h20.58.098,multiplicationStroop,2021.2.3,Win32,60.10699044,,,,,right,1,0.5414,0,8,8,0,1,1,2,1 | 2,1,1.4111,1.9756,congruent,right,,,,,,stimulusFile/physical.xlsx,,,,,,,,,,,,,,,,,,,,,,,,,,,,,,,
,,,,,,,,,,,,,,,676,2022-04-07_09h20.58.098,multiplicationStroop,2021.2.3,Win32,60.10699044,,,,,right,1,0.8344,0,9,9,63,1,9,9,9 | 9,0,1.4111,1.9756,neutral,right,,,,,,stimulusFile/physical.xlsx,,,,,,,,,,,,,,,,,,,,,,,,,,,,,,,
,,,,,,,,,,,,,,,676,2022-04-07_09h20.58.098,multiplicationStroop,2021.2.3,Win32,60.10699044,,,,,right,1,0.5606,0,10,10,8,1,1,3,1 | 3,2,1.4111,1.9756,congruent,right,,,,,,stimulusFile/physical.xlsx,,,,,,,,,,,,,,,,,,,,,,,,,,,,,,,
,,,,,,,,,,,,,,,676,2022-04-07_09h20.58.098,multiplicationStroop,2021.2.3,Win32,60.10699044,,,,,left,1,0.4725,0,11,11,35,1,7,9,7 | 9,2,1.9756,1.4111,incongruent,left,,,,,,stimulusFile/physical.xlsx,,,,,,,,,,,,,,,,,,,,,,,,,,,,,,,
,,,,,,,,,,,,,,,676,2022-04-07_09h20.58.098,multiplicationStroop,2021.2.3,Win32,60.10699044,,,,,left,1,0.6948,0,12,12,27,1,8,9,8 | 9,1,1.9756,1.4111,incongruent,left,,,,,,stimulusFile/physical.xlsx,,,,,,,,,,,,,,,,,,,,,,,,,,,,,,,
,,,,,,,,,,,,,,,676,2022-04-07_09h20.58.098,multiplicationStroop,2021.2.3,Win32,60.10699044,,,,,right,1,0.5727,0,13,13,31,1,9,8,9 | 8,1,1.4111,1.9756,incongruent,right,,,,,,stimulusFile/physical.xlsx,,,,,,,,,,,,,,,,,,,,,,,,,,,,,,,
,,,,,,,,,,,,,,,676,2022-04-07_09h20.58.098,multiplicationStroop,2021.2.3,Win32,60.10699044,,,,,left,1,0.5235,0,14,14,24,1,1,2,1 | 2,1,1.9756,1.4111,incongruent,left,,,,,,stimulusFile/physical.xlsx,,,,,,,,,,,,,,,,,,,,,,,,,,,,,,,
,,,,,,,,,,,,,,,676,2022-04-07_09h20.58.098,multiplicationStroop,2021.2.3,Win32,60.10699044,,,,,left,1,0.5255,0,15,15,54,1,7,7,7 | 7,0,1.9756,1.4111,neutral,left,,,,,,stimulusFile/physical.xlsx,,,,,,,,,,,,,,,,,,,,,,,,,,,,,,,
,,,,,,,,,,,,,,,676,2022-04-07_09h20.58.098,multiplicationStroop,2021.2.3,Win32,60.10699044,,,,,left,1,0.6453,0,16,16,34,1,6,8,6 | 8,2,1.9756,1.4111,incongruent,left,,,,,,stimulusFile/physical.xlsx,,,,,,,,,,,,,,,,,,,,,,,,,,,,,,,
,,,,,,,,,,,,,,,676,2022-04-07_09h20.58.098,multiplicationStroop,2021.2.3,Win32,60.10699044,,,,,right,1,0.5782,0,17,17,46,1,8,3,8 | 3,5,1.4111,1.9756,incongruent,right,,,,,,stimulusFile/physical.xlsx,,,,,,,,,,,,,,,,,,,,,,,,,,,,,,,
,,,,,,,,,,,,,,,676,2022-04-07_09h20.58.098,multiplicationStroop,2021.2.3,Win32,60.10699044,,,,,right,1,0.5898,0,18,18,57,1,2,2,2 | 2,0,1.4111,1.9756,neutral,right,,,,,,stimulusFile/physical.xlsx,,,,,,,,,,,,,,,,,,,,,,,,,,,,,,,
,,,,,,,,,,,,,,,676,2022-04-07_09h20.58.098,multiplicationStroop,2021.2.3,Win32,60.10699044,,,,,right,1,0.8767,0,19,19,2,1,6,7,6 | 7,1,1.4111,1.9756,congruent,right,,,,,,stimulusFile/physical.xlsx,,,,,,,,,,,,,,,,,,,,,,,,,,,,,,,
,,,,,,,,,,,,,,,676,2022-04-07_09h20.58.098,multiplicationStroop,2021.2.3,Win32,60.10699044,,,,,left,1,0.4591,0,20,20,5,1,4,3,4 | 3,1,1.9756,1.4111,congruent,left,,,,,,stimulusFile/physical.xlsx,,,,,,,,,,,,,,,,,,,,,,,,,,,,,,,
,,,,,,,,,,,,,,,676,2022-04-07_09h20.58.098,multiplicationStroop,2021.2.3,Win32,60.10699044,,,,,right,1,0.6457,0,21,21,59,1,7,7,7 | 7,0,1.4111,1.9756,neutral,right,,,,,,stimulusFile/physical.xlsx,,,,,,,,,,,,,,,,,,,,,,,,,,,,,,,
,,,,,,,,,,,,,,,676,2022-04-07_09h20.58.098,multiplicationStroop,2021.2.3,Win32,60.10699044,,,,,right,1,0.5493,0,22,22,19,1,4,9,4 | 9,5,1.4111,1.9756,congruent,right,,,,,,stimulusFile/physical.xlsx,,,,,,,,,,,,,,,,,,,,,,,,,,,,,,,
,,,,,,,,,,,,,,,676,2022-04-07_09h20.58.098,multiplicationStroop,2021.2.3,Win32,60.10699044,,,,,left,1,0.4098,0,23,23,53,1,4,4,4 | 4,0,1.9756,1.4111,neutral,left,,,,,,stimulusFile/physical.xlsx,,,,,,,,,,,,,,,,,,,,,,,,,,,,,,,
,,,,,,,,,,,,,,,676,2022-04-07_09h20.58.098,multiplicationStroop,2021.2.3,Win32,60.10699044,,,,,right,1,0.5545,0,24,24,60,1,3,3,3 | 3,0,1.4111,1.9756,neutral,right,,,,,,stimulusFile/physical.xlsx,,,,,,,,,,,,,,,,,,,,,,,,,,,,,,,
,,,,,,,,,,,,,,,676,2022-04-07_09h20.58.098,multiplicationStroop,2021.2.3,Win32,60.10699044,,,,,left,1,0.4159,0,25,25,43,1,4,9,4 | 9,5,1.9756,1.4111,incongruent,left,,,,,,stimulusFile/physical.xlsx,,,,,,,,,,,,,,,,,,,,,,,,,,,,,,,
,,,,,,,,,,,,,,,676,2022-04-07_09h20.58.098,multiplicationStroop,2021.2.3,Win32,60.10699044,,,,,right,1,0.4414,0,26,26,11,1,7,9,7 | 9,2,1.4111,1.9756,congruent,right,,,,,,stimulusFile/physical.xlsx,,,,,,,,,,,,,,,,,,,,,,,,,,,,,,,
,,,,,,,,,,,,,,,676,2022-04-07_09h20.58.098,multiplicationStroop,2021.2.3,Win32,60.10699044,,,,,left,1,0.4904,0,27,27,52,1,2,2,2 | 2,0,1.9756,1.4111,neutral,left,,,,,,stimulusFile/physical.xlsx,,,,,,,,,,,,,,,,,,,,,,,,,,,,,,,
,,,,,,,,,,,,,,,676,2022-04-07_09h20.58.098,multiplicationStroop,2021.2.3,Win32,60.10699044,,,,,right,1,0.4559,0,28,28,58,1,6,6,6 | 6,0,1.4111,1.9756,neutral,right,,,,,,stimulusFile/physical.xlsx,,,,,,,,,,,,,,,,,,,,,,,,,,,,,,,
,,,,,,,,,,,,,,,676,2022-04-07_09h20.58.098,multiplicationStroop,2021.2.3,Win32,60.10699044,,,,,right,0,0.8175,0,29,29,71,1,9,9,9 | 9,0,1.4111,1.9756,neutral,left,,,,,,stimulusFile/physical.xlsx,,,,,,,,,,,,,,,,,,,,,,,,,,,,,,,
,,,,,,,,,,,,,,,676,2022-04-07_09h20.58.098,multiplicationStroop,2021.2.3,Win32,60.10699044,,,,,left,0,0.7997,0,30,30,47,1,9,4,9 | 4,5,1.4111,1.9756,incongruent,right,,,,,,stimulusFile/physical.xlsx,,,,,,,,,,,,,,,,,,,,,,,,,,,,,,,
,,,,,,,,,,,,,,,676,2022-04-07_09h20.58.098,multiplicationStroop,2021.2.3,Win32,60.10699044,,,,,right,1,0.6514,0,31,31,28,1,2,1,2 | 1,1,1.4111,1.9756,incongruent,right,,,,,,stimulusFile/physical.xlsx,,,,,,,,,,,,,,,,,,,,,,,,,,,,,,,
,,,,,,,,,,,,,,,676,2022-04-07_09h20.58.098,multiplicationStroop,2021.2.3,Win32,60.10699044,,,,,left,1,0.5252,0,32,32,13,1,4,2,4 | 2,2,1.9756,1.4111,congruent,left,,,,,,stimulusFile/physical.xlsx,,,,,,,,,,,,,,,,,,,,,,,,,,,,,,,
,,,,,,,,,,,,,,,676,2022-04-07_09h20.58.098,multiplicationStroop,2021.2.3,Win32,60.10699044,,,,,right,1,0.4898,0,33,33,67,1,4,4,4 | 4,0,1.4111,1.9756,neutral,right,,,,,,stimulusFile/physical.xlsx,,,,,,,,,,,,,,,,,,,,,,,,,,,,,,,
,,,,,,,,,,,,,,,676,2022-04-07_09h20.58.098,multiplicationStroop,2021.2.3,Win32,60.10699044,,,,,left,1,0.4849,0,34,34,6,1,7,6,7 | 6,1,1.9756,1.4111,congruent,left,,,,,,stimulusFile/physical.xlsx,,,,,,,,,,,,,,,,,,,,,,,,,,,,,,,
,,,,,,,,,,,,,,,676,2022-04-07_09h20.58.098,multiplicationStroop,2021.2.3,Win32,60.10699044,,,,,right,1,0.4747,0,35,35,1,1,3,4,3 | 4,1,1.4111,1.9756,congruent,right,,,,,,stimulusFile/physical.xlsx,,,,,,,,,,,,,,,,,,,,,,,,,,,,,,,
,,,,,,,,,,,,,,,676,2022-04-07_09h20.58.098,multiplicationStroop,2021.2.3,Win32,60.10699044,,,,,left,1,0.4516,0,36,36,70,1,8,8,8 | 8,0,1.9756,1.4111,neutral,left,,,,,,stimulusFile/physical.xlsx,,,,,,,,,,,,,,,,,,,,,,,,,,,,,,,
,,,,,,,,,,,,,,,676,2022-04-07_09h20.58.098,multiplicationStroop,2021.2.3,Win32,60.10699044,,,,,left,1,0.6562,0,37,37,15,1,9,7,9 | 7,2,1.9756,1.4111,congruent,left,,,,,,stimulusFile/physical.xlsx,,,,,,,,,,,,,,,,,,,,,,,,,,,,,,,
,,,,,,,,,,,,,,,676,2022-04-07_09h20.58.098,multiplicationStroop,2021.2.3,Win32,60.10699044,,,,,left,1,0.618,0,38,38,48,1,1,1,1 | 1,0,1.9756,1.4111,neutral,left,,,,,,stimulusFile/physical.xlsx,,,,,,,,,,,,,,,,,,,,,,,,,,,,,,,
,,,,,,,,,,,,,,,676,2022-04-07_09h20.58.098,multiplicationStroop,2021.2.3,Win32,60.10699044,,,,,right,1,0.4203,0,39,39,39,1,9,7,9 | 7,2,1.4111,1.9756,incongruent,right,,,,,,stimulusFile/physical.xlsx,,,,,,,,,,,,,,,,,,,,,,,,,,,,,,,
,,,,,,,,,,,,,,,676,2022-04-07_09h20.58.098,multiplicationStroop,2021.2.3,Win32,60.10699044,,,,,right,1,0.5772,0,40,40,37,1,4,2,4 | 2,2,1.4111,1.9756,incongruent,right,,,,,,stimulusFile/physical.xlsx,,,,,,,,,,,,,,,,,,,,,,,,,,,,,,,
,,,,,,,,,,,,,,,676,2022-04-07_09h20.58.098,multiplicationStroop,2021.2.3,Win32,60.10699044,,,,,right,1,0.6513,0,41,41,17,1,2,7,2 | 7,5,1.4111,1.9756,congruent,right,,,,,,stimulusFile/physical.xlsx,,,,,,,,,,,,,,,,,,,,,,,,,,,,,,,
,,,,,,,,,,,,,,,676,2022-04-07_09h20.58.098,multiplicationStroop,2021.2.3,Win32,60.10699044,,,,,right,1,1.0566,0,42,42,38,1,8,6,8 | 6,2,1.4111,1.9756,incongruent,right,,,,,,stimulusFile/physical.xlsx,,,,,,,,,,,,,,,,,,,,,,,,,,,,,,,
,,,,,,,,,,,,,,,676,2022-04-07_09h20.58.098,multiplicationStroop,2021.2.3,Win32,60.10699044,,,,,left,1,0.5013,0,43,43,49,1,3,3,3 | 3,0,1.9756,1.4111,neutral,left,,,,,,stimulusFile/physical.xlsx,,,,,,,,,,,,,,,,,,,,,,,,,,,,,,,
,,,,,,,,,,,,,,,676,2022-04-07_09h20.58.098,multiplicationStroop,2021.2.3,Win32,60.10699044,,,,,left,1,1.1312,0,44,44,42,1,3,8,3 | 8,5,1.9756,1.4111,incongruent,left,,,,,,stimulusFile/physical.xlsx,,,,,,,,,,,,,,,,,,,,,,,,,,,,,,,
,,,,,,,,,,,,,,,676,2022-04-07_09h20.58.098,multiplicationStroop,2021.2.3,Win32,60.10699044,,,,,right,1,0.8863,0,45,45,36,1,3,1,3 | 1,2,1.4111,1.9756,incongruent,right,,,,,,stimulusFile/physical.xlsx,,,,,,,,,,,,,,,,,,,,,,,,,,,,,,,
,,,,,,,,,,,,,,,676,2022-04-07_09h20.58.098,multiplicationStroop,2021.2.3,Win32,60.10699044,,,,,right,1,0.5411,0,46,46,61,1,4,4,4 | 4,0,1.4111,1.9756,neutral,right,,,,,,stimulusFile/physical.xlsx,,,,,,,,,,,,,,,,,,,,,,,,,,,,,,,
,,,,,,,,,,,,,,,676,2022-04-07_09h20.58.098,multiplicationStroop,2021.2.3,Win32,60.10699044,,,,,right,1,0.6027,0,47,47,56,1,1,1,1 | 1,0,1.4111,1.9756,neutral,right,,,,,,stimulusFile/physical.xlsx,,,,,,,,,,,,,,,,,,,,,,,,,,,,,,,
,,,,,,,,,,,,,,,676,2022-04-07_09h20.58.098,multiplicationStroop,2021.2.3,Win32,60.10699044,,,,,right,1,0.5178,0,48,48,10,1,6,8,6 | 8,2,1.4111,1.9756,congruent,right,,,,,,stimulusFile/physical.xlsx,,,,,,,,,,,,,,,,,,,,,,,,,,,,,,,
,,,,,,,,,,,,,,,676,2022-04-07_09h20.58.098,multiplicationStroop,2021.2.3,Win32,60.10699044,,,,,right,1,2.4028,0,49,49,30,1,7,6,7 | 6,1,1.4111,1.9756,incongruent,right,,,,,,stimulusFile/physical.xlsx,,,,,,,,,,,,,,,,,,,,,,,,,,,,,,,
,,,,,,,,,,,,,,,676,2022-04-07_09h20.58.098,multiplicationStroop,2021.2.3,Win32,60.10699044,,,,,left,1,0.6508,0,50,50,55,1,9,9,9 | 9,0,1.9756,1.4111,neutral,left,,,,,,stimulusFile/physical.xlsx,,,,,,,,,,,,,,,,,,,,,,,,,,,,,,,
,,,,,,,,,,,,,,,676,2022-04-07_09h20.58.098,multiplicationStroop,2021.2.3,Win32,60.10699044,,,,,right,1,0.4868,0,51,51,18,1,3,8,3 | 8,5,1.4111,1.9756,congruent,right,,,,,,stimulusFile/physical.xlsx,,,,,,,,,,,,,,,,,,,,,,,,,,,,,,,
,,,,,,,,,,,,,,,676,2022-04-07_09h20.58.098,multiplicationStroop,2021.2.3,Win32,60.10699044,,,,,left,1,0.4777,0,52,52,4,1,2,1,2 | 1,1,1.9756,1.4111,congruent,left,,,,,,stimulusFile/physical.xlsx,,,,,,,,,,,,,,,,,,,,,,,,,,,,,,,
,,,,,,,,,,,,,,,676,2022-04-07_09h20.58.098,multiplicationStroop,2021.2.3,Win32,60.10699044,,,,,left,1,0.502,0,53,53,12,1,3,1,3 | 1,2,1.9756,1.4111,congruent,left,,,,,,stimulusFile/physical.xlsx,,,,,,,,,,,,,,,,,,,,,,,,,,,,,,,
,,,,,,,,,,,,,,,676,2022-04-07_09h20.58.098,multiplicationStroop,2021.2.3,Win32,60.10699044,,,,,left,1,0.9429,0,54,54,32,1,1,3,1 | 3,2,1.9756,1.4111,incongruent,left,,,,,,stimulusFile/physical.xlsx,,,,,,,,,,,,,,,,,,,,,,,,,,,,,,,
,,,,,,,,,,,,,,,676,2022-04-07_09h20.58.098,multiplicationStroop,2021.2.3,Win32,60.10699044,,,,,right,1,0.4746,0,55,55,45,1,7,2,7 | 2,5,1.4111,1.9756,incongruent,right,,,,,,stimulusFile/physical.xlsx,,,,,,,,,,,,,,,,,,,,,,,,,,,,,,,
,,,,,,,,,,,,,,,676,2022-04-07_09h20.58.098,multiplicationStroop,2021.2.3,Win32,60.10699044,,,,,left,1,0.4445,0,56,56,40,1,1,6,1 | 6,5,1.9756,1.4111,incongruent,left,,,,,,stimulusFile/physical.xlsx,,,,,,,,,,,,,,,,,,,,,,,,,,,,,,,
,,,,,,,,,,,,,,,676,2022-04-07_09h20.58.098,multiplicationStroop,2021.2.3,Win32,60.10699044,,,,,left,1,0.4727,0,57,57,21,1,7,2,7 | 2,5,1.9756,1.4111,congruent,left,,,,,,stimulusFile/physical.xlsx,,,,,,,,,,,,,,,,,,,,,,,,,,,,,,,
,,,,,,,,,,,,,,,676,2022-04-07_09h20.58.098,multiplicationStroop,2021.2.3,Win32,60.10699044,,,,,right,0,0.6875,0,58,58,41,1,2,7,2 | 7,5,1.9756,1.4111,incongruent,left,,,,,,stimulusFile/physical.xlsx,,,,,,,,,,,,,,,,,,,,,,,,,,,,,,,
,,,,,,,,,,,,,,,676,2022-04-07_09h20.58.098,multiplicationStroop,2021.2.3,Win32,60.10699044,,,,,left,1,0.5554,0,59,59,26,1,6,7,6 | 7,1,1.9756,1.4111,incongruent,left,,,,,,stimulusFile/physical.xlsx,,,,,,,,,,,,,,,,,,,,,,,,,,,,,,,
,,,,,,,,,,,,,,,676,2022-04-07_09h20.58.098,multiplicationStroop,2021.2.3,Win32,60.10699044,,,,,left,1,0.4188,0,60,60,20,1,6,1,6 | 1,5,1.9756,1.4111,congruent,left,,,,,,stimulusFile/physical.xlsx,,,,,,,,,,,,,,,,,,,,,,,,,,,,,,,
,,,,,,,,,,,,,,,676,2022-04-07_09h20.58.098,multiplicationStroop,2021.2.3,Win32,60.10699044,,,,,left,1,0.5372,0,61,61,51,1,8,8,8 | 8,0,1.9756,1.4111,neutral,left,,,,,,stimulusFile/physical.xlsx,,,,,,,,,,,,,,,,,,,,,,,,,,,,,,,
,,,,,,,,,,,,,,,676,2022-04-07_09h20.58.098,multiplicationStroop,2021.2.3,Win32,60.10699044,,,,,right,1,0.5193,0,62,62,62,1,8,8,8 | 8,0,1.4111,1.9756,neutral,right,,,,,,stimulusFile/physical.xlsx,,,,,,,,,,,,,,,,,,,,,,,,,,,,,,,
,,,,,,,,,,,,,,,676,2022-04-07_09h20.58.098,multiplicationStroop,2021.2.3,Win32,60.10699044,,,,,left,1,0.4553,0,63,63,33,1,2,4,2 | 4,2,1.9756,1.4111,incongruent,left,,,,,,stimulusFile/physical.xlsx,,,,,,,,,,,,,,,,,,,,,,,,,,,,,,,
,,,,,,,,,,,,,,,676,2022-04-07_09h20.58.098,multiplicationStroop,2021.2.3,Win32,60.10699044,,,,,right,1,0.5686,0,64,64,44,1,6,1,6 | 1,5,1.4111,1.9756,incongruent,right,,,,,,stimulusFile/physical.xlsx,,,,,,,,,,,,,,,,,,,,,,,,,,,,,,,
,,,,,,,,,,,,,,,676,2022-04-07_09h20.58.098,multiplicationStroop,2021.2.3,Win32,60.10699044,,,,,right,0,0.5354,0,65,65,69,1,7,7,7 | 7,0,1.4111,1.9756,neutral,left,,,,,,stimulusFile/physical.xlsx,,,,,,,,,,,,,,,,,,,,,,,,,,,,,,,
,,,,,,,,,,,,,,,676,2022-04-07_09h20.58.098,multiplicationStroop,2021.2.3,Win32,60.10699044,,,,,left,1,0.5024,0,66,66,68,1,6,6,6 | 6,0,1.9756,1.4111,neutral,left,,,,,,stimulusFile/physical.xlsx,,,,,,,,,,,,,,,,,,,,,,,,,,,,,,,
,,,,,,,,,,,,,,,676,2022-04-07_09h20.58.098,multiplicationStroop,2021.2.3,Win32,60.10699044,,,,,left,1,0.5022,0,67,67,25,1,3,4,3 | 4,1,1.9756,1.4111,incongruent,left,,,,,,stimulusFile/physical.xlsx,,,,,,,,,,,,,,,,,,,,,,,,,,,,,,,
,,,,,,,,,,,,,,,676,2022-04-07_09h20.58.098,multiplicationStroop,2021.2.3,Win32,60.10699044,,,,,left,1,0.5187,0,68,68,23,1,9,4,9 | 4,5,1.9756,1.4111,congruent,left,,,,,,stimulusFile/physical.xlsx,,,,,,,,,,,,,,,,,,,,,,,,,,,,,,,
,,,,,,,,,,,,,,,676,2022-04-07_09h20.58.098,multiplicationStroop,2021.2.3,Win32,60.10699044,,,,,right,1,0.5397,0,69,69,65,1,2,2,2 | 2,0,1.4111,1.9756,neutral,right,,,,,,stimulusFile/physical.xlsx,,,,,,,,,,,,,,,,,,,,,,,,,,,,,,,
,,,,,,,,,,,,,,,676,2022-04-07_09h20.58.098,multiplicationStroop,2021.2.3,Win32,60.10699044,,,,,left,0,0.4847,0,70,70,64,1,1,1,1 | 1,0,1.9756,1.4111,neutral,right,,,,,,stimulusFile/physical.xlsx,,,,,,,,,,,,,,,,,,,,,,,,,,,,,,,
,,,,,,,,,,,,,,,676,2022-04-07_09h20.58.098,multiplicationStroop,2021.2.3,Win32,60.10699044,,,,,left,1,0.4095,0,71,71,14,1,8,6,8 | 6,2,1.9756,1.4111,congruent,left,,,,,,stimulusFile/physical.xlsx,,,,,,,,,,,,,,,,,,,,,,,,,,,,,,,
,,,,,,,,,,,,,,,676,2022-04-07_09h20.58.098,multiplicationStroop,2021.2.3,Win32,60.10699044,,,,,,,,,,,,,,,,,,,,,0,1,1,1,1,stimulusFile/physical.xlsx,PHYSICALLY larger (larger font size).,images/physicallyLarger.png,,,,,,,,,,,,,,,,,,,,,,,,,,,,,
,,,,,,,,,,,,,,,676,2022-04-07_09h20.58.098,multiplicationStroop,2021.2.3,Win32,60.10699044,,,,,,,,,,,,,,,,,,,,,,,,,,,,,space,10.9911,space,1.6968,12,2.4885,1,0,0,0,21,1,4,×,3,4 × 3,neutral,largerFirst,1.5,1.5,12,,,,,,,,
,,,,,,,,,,,,,,,676,2022-04-07_09h20.58.098,multiplicationStroop,2021.2.3,Win32,60.10699044,,,,,,,,,,,,,,,,,,,,,,,,,,,,,,,,,35,2.8786,1,0,1,1,1,1,5,×,7,5 × 7,neutral,smallerFirst,1.5,1.5,35,,,,,,,,
,,,,,,,,,,,,,,,676,2022-04-07_09h20.58.098,multiplicationStroop,2021.2.3,Win32,60.10699044,,,,,,,,,,,,,,,,,,,,,,,,,,,,,,,,,40,1.9974,1,0,2,2,24,1,8,×,5,8 × 5,neutral,largerFirst,1.5,1.5,40,,,,,,,,
,,,,,,,,,,,,,,,676,2022-04-07_09h20.58.098,multiplicationStroop,2021.2.3,Win32,60.10699044,,,,,,,,,,,,,,,,,,,,,,,,,,,,,,,,,36,5.6144,1,0,3,3,27,1,9,×,4,9 × 4,neutral,largerFirst,1.5,1.5,36,,,,,,,,
,,,,,,,,,,,,,,,676,2022-04-07_09h20.58.098,multiplicationStroop,2021.2.3,Win32,60.10699044,,,,,,,,,,,,,,,,,,,,,,,,,,,,,,,,,64,2.0336,1,0,4,4,34,1,8,×,8,8 × 8,neutral,tie,1.5,1.5,64,,,,,,,,
,,,,,,,,,,,,,,,676,2022-04-07_09h20.58.098,multiplicationStroop,2021.2.3,Win32,60.10699044,,,,,,,,,,,,,,,,,,,,,,,,,,,,,,,,,28,2.8146,1,0,5,5,17,1,7,×,4,7 × 4,neutral,largerFirst,1.5,1.5,28,,,,,,,,
,,,,,,,,,,,,,,,676,2022-04-07_09h20.58.098,multiplicationStroop,2021.2.3,Win32,60.10699044,,,,,,,,,,,,,,,,,,,,,,,,,,,,,,,,,81,2.1651,1,0,6,6,35,1,9,×,9,9 × 9,neutral,tie,1.5,1.5,81,,,,,,,,
,,,,,,,,,,,,,,,676,2022-04-07_09h20.58.098,multiplicationStroop,2021.2.3,Win32,60.10699044,,,,,,,,,,,,,,,,,,,,,,,,,,,,,,,,,27,2.0821,1,0,7,7,14,1,9,×,3,9 × 3,neutral,largerFirst,1.5,1.5,27,,,,,,,,
,,,,,,,,,,,,,,,676,2022-04-07_09h20.58.098,multiplicationStroop,2021.2.3,Win32,60.10699044,,,,,,,,,,,,,,,,,,,,,,,,,,,,,,,,,42,3.8991,1,0,8,8,6,1,6,×,7,6 × 7,neutral,smallerFirst,1.5,1.5,42,,,,,,,,
,,,,,,,,,,,,,,,676,2022-04-07_09h20.58.098,multiplicationStroop,2021.2.3,Win32,60.10699044,,,,,,,,,,,,,,,,,,,,,,,,,,,,,,,,,24,2.1714,1,0,9,9,2,1,4,×,6,4 × 6,neutral,smallerFirst,1.5,1.5,24,,,,,,,,
,,,,,,,,,,,,,,,676,2022-04-07_09h20.58.098,multiplicationStroop,2021.2.3,Win32,60.10699044,,,,,,,,,,,,,,,,,,,,,,,,,,,,,,,,,8,2.0149,1,0,10,10,3,1,2,×,4,2 × 4,neutral,smallerFirst,1.5,1.5,8,,,,,,,,
,,,,,,,,,,,,,,,676,2022-04-07_09h20.58.098,multiplicationStroop,2021.2.3,Win32,60.10699044,,,,,,,,,,,,,,,,,,,,,,,,,,,,,,,,,10,1.6496,1,0,11,11,4,1,2,×,5,2 × 5,neutral,smallerFirst,1.5,1.5,10,,,,,,,,
,,,,,,,,,,,,,,,676,2022-04-07_09h20.58.098,multiplicationStroop,2021.2.3,Win32,60.10699044,,,,,,,,,,,,,,,,,,,,,,,,,,,,,,,,,56,2.9986,0,0,12,12,12,1,7,×,9,7 × 9,neutral,smallerFirst,1.5,1.5,63,,,,,,,,
,,,,,,,,,,,,,,,676,2022-04-07_09h20.58.098,multiplicationStroop,2021.2.3,Win32,60.10699044,,,,,,,,,,,,,,,,,,,,,,,,,,,,,,,,,6,1.8349,1,0,13,13,26,1,3,×,2,3 × 2,neutral,largerFirst,1.5,1.5,6,,,,,,,,
,,,,,,,,,,,,,,,676,2022-04-07_09h20.58.098,multiplicationStroop,2021.2.3,Win32,60.10699044,,,,,,,,,,,,,,,,,,,,,,,,,,,,,,,,,18,3.5378,1,0,14,14,18,1,9,×,2,9 × 2,neutral,largerFirst,1.5,1.5,18,,,,,,,,
,,,,,,,,,,,,,,,676,2022-04-07_09h20.58.098,multiplicationStroop,2021.2.3,Win32,60.10699044,,,,,,,,,,,,,,,,,,,,,,,,,,,,,,,,,15,1.6766,1,0,15,15,5,1,3,×,5,3 × 5,neutral,smallerFirst,1.5,1.5,15,,,,,,,,
,,,,,,,,,,,,,,,676,2022-04-07_09h20.58.098,multiplicationStroop,2021.2.3,Win32,60.10699044,,,,,,,,,,,,,,,,,,,,,,,,,,,,,,,,,56,2.3978,1,0,16,16,9,1,7,×,8,7 × 8,neutral,smallerFirst,1.5,1.5,56,,,,,,,,
,,,,,,,,,,,,,,,676,2022-04-07_09h20.58.098,multiplicationStroop,2021.2.3,Win32,60.10699044,,,,,,,,,,,,,,,,,,,,,,,,,,,,,,,,,24,2.7824,1,0,17,17,22,1,8,×,3,8 × 3,neutral,largerFirst,1.5,1.5,24,,,,,,,,
,,,,,,,,,,,,,,,676,2022-04-07_09h20.58.098,multiplicationStroop,2021.2.3,Win32,60.10699044,,,,,,,,,,,,,,,,,,,,,,,,,,,,,,,,,4,1.7007,1,0,18,18,28,1,2,×,2,2 × 2,neutral,tie,1.5,1.5,4,,,,,,,,
,,,,,,,,,,,,,,,676,2022-04-07_09h20.58.098,multiplicationStroop,2021.2.3,Win32,60.10699044,,,,,,,,,,,,,,,,,,,,,,,,,,,,,,,,,72,3.4996,1,0,19,19,11,1,8,×,9,8 × 9,neutral,smallerFirst,1.5,1.5,72,,,,,,,,
,,,,,,,,,,,,,,,676,2022-04-07_09h20.58.098,multiplicationStroop,2021.2.3,Win32,60.10699044,,,,,,,,,,,,,,,,,,,,,,,,,,,,,,,,,45,1.9156,1,0,20,20,10,1,5,×,9,5 × 9,neutral,smallerFirst,1.5,1.5,45,,,,,,,,
,,,,,,,,,,,,,,,676,2022-04-07_09h20.58.098,multiplicationStroop,2021.2.3,Win32,60.10699044,,,,,,,,,,,,,,,,,,,,,,,,,,,,,,,,,9,1.8491,1,0,21,21,29,1,3,×,3,3 × 3,neutral,tie,1.5,1.5,9,,,,,,,,
,,,,,,,,,,,,,,,676,2022-04-07_09h20.58.098,multiplicationStroop,2021.2.3,Win32,60.10699044,,,,,,,,,,,,,,,,,,,,,,,,,,,,,,,,,16,1.7993,1,0,22,22,13,1,2,×,8,2 × 8,neutral,smallerFirst,1.5,1.5,16,,,,,,,,
,,,,,,,,,,,,,,,676,2022-04-07_09h20.58.098,multiplicationStroop,2021.2.3,Win32,60.10699044,,,,,,,,,,,,,,,,,,,,,,,,,,,,,,,,,30,1.9823,1,0,23,23,19,1,6,×,5,6 × 5,neutral,largerFirst,1.5,1.5,30,,,,,,,,
,,,,,,,,,,,,,,,676,2022-04-07_09h20.58.098,multiplicationStroop,2021.2.3,Win32,60.10699044,,,,,,,,,,,,,,,,,,,,,,,,,,,,,,,,,54,2.5321,1,0,24,24,7,1,6,×,9,6 × 9,neutral,smallerFirst,1.5,1.5,54,,,,,,,,
,,,,,,,,,,,,,,,676,2022-04-07_09h20.58.098,multiplicationStroop,2021.2.3,Win32,60.10699044,,,,,,,,,,,,,,,,,,,,,,,,,,,,,,,,,14,1.6658,1,0,25,25,16,1,7,×,2,7 × 2,neutral,largerFirst,1.5,1.5,14,,,,,,,,
,,,,,,,,,,,,,,,676,2022-04-07_09h20.58.098,multiplicationStroop,2021.2.3,Win32,60.10699044,,,,,,,,,,,,,,,,,,,,,,,,,,,,,,,,,20,1.9993,1,0,26,26,20,1,5,×,4,5 × 4,neutral,largerFirst,1.5,1.5,20,,,,,,,,
,,,,,,,,,,,,,,,676,2022-04-07_09h20.58.098,multiplicationStroop,2021.2.3,Win32,60.10699044,,,,,,,,,,,,,,,,,,,,,,,,,,,,,,,,,21,2.6155,1,0,27,27,8,1,3,×,7,3 × 7,neutral,smallerFirst,1.5,1.5,21,,,,,,,,
,,,,,,,,,,,,,,,676,2022-04-07_09h20.58.098,multiplicationStroop,2021.2.3,Win32,60.10699044,,,,,,,,,,,,,,,,,,,,,,,,,,,,,,,,,36,1.9992,1,0,28,28,32,1,6,×,6,6 × 6,neutral,tie,1.5,1.5,36,,,,,,,,
,,,,,,,,,,,,,,,676,2022-04-07_09h20.58.098,multiplicationStroop,2021.2.3,Win32,60.10699044,,,,,,,,,,,,,,,,,,,,,,,,,,,,,,,,,48,3.4322,1,0,29,29,15,1,8,×,6,8 × 6,neutral,largerFirst,1.5,1.5,48,,,,,,,,
,,,,,,,,,,,,,,,676,2022-04-07_09h20.58.098,multiplicationStroop,2021.2.3,Win32,60.10699044,,,,,,,,,,,,,,,,,,,,,,,,,,,,,,,,,18,1.8509,1,0,30,30,0,1,3,×,6,3 × 6,neutral,smallerFirst,1.5,1.5,18,,,,,,,,
,,,,,,,,,,,,,,,676,2022-04-07_09h20.58.098,multiplicationStroop,2021.2.3,Win32,60.10699044,,,,,,,,,,,,,,,,,,,,,,,,,,,,,,,,,12,1.498,1,0,31,31,25,1,6,×,2,6 × 2,neutral,largerFirst,1.5,1.5,12,,,,,,,,
,,,,,,,,,,,,,,,676,2022-04-07_09h20.58.098,multiplicationStroop,2021.2.3,Win32,60.10699044,,,,,,,,,,,,,,,,,,,,,,,,,,,,,,,,,25,1.7656,1,0,32,32,31,1,5,×,5,5 × 5,neutral,tie,1.5,1.5,25,,,,,,,,
,,,,,,,,,,,,,,,676,2022-04-07_09h20.58.098,multiplicationStroop,2021.2.3,Win32,60.10699044,,,,,,,,,,,,,,,,,,,,,,,,,,,,,,,,,16,1.699,1,0,33,33,30,1,4,×,4,4 × 4,neutral,tie,1.5,1.5,16,,,,,,,,
,,,,,,,,,,,,,,,676,2022-04-07_09h20.58.098,multiplicationStroop,2021.2.3,Win32,60.10699044,,,,,,,,,,,,,,,,,,,,,,,,,,,,,,,,,32,2.2326,1,0,34,34,23,1,8,×,4,8 × 4,neutral,largerFirst,1.5,1.5,32,,,,,,,,
,,,,,,,,,,,,,,,676,2022-04-07_09h20.58.098,multiplicationStroop,2021.2.3,Win32,60.10699044,,,,,,,,,,,,,,,,,,,,,,,,,,,,,,,,,49,3.0321,1,0,35,35,33,1,7,×,7,7 × 7,neutral,tie,1.5,1.5,49,,,,,,,,
,,,,,,,,,,,,,,,676,2022-04-07_09h20.58.098,multiplicationStroop,2021.2.3,Win32,60.10699044,,,,,,,,,,,,,,,,,,,,,,,,,,,,,,,,,,,,,,,,,,,,,,,,,,0,0,0,1,1,stimulusFile/mult_blk2.xlsx,,
,,,,,,,,,,,,,,,676,2022-04-07_09h20.58.098,multiplicationStroop,2021.2.3,Win32,60.10699044,,,,,,,,,,,,,,,,,,,,,,,,,,,,,,,space,1.8657,14,2.3924,1,0,0,0,14,1,7,×,2,7 × 2,congruent,largerFirst,2,1,14,,,,,,,,
,,,,,,,,,,,,,,,676,2022-04-07_09h20.58.098,multiplicationStroop,2021.2.3,Win32,60.10699044,,,,,,,,,,,,,,,,,,,,,,,,,,,,,,,,,15,1.7328,1,0,1,1,4,1,3,×,5,3 × 5,congruent,smallerFirst,1,2,15,,,,,,,,
,,,,,,,,,,,,,,,676,2022-04-07_09h20.58.098,multiplicationStroop,2021.2.3,Win32,60.10699044,,,,,,,,,,,,,,,,,,,,,,,,,,,,,,,,,28,1.8987,1,0,2,2,27,1,7,×,4,7 × 4,congruent,largerFirst,2,1,28,,,,,,,,
,,,,,,,,,,,,,,,676,2022-04-07_09h20.58.098,multiplicationStroop,2021.2.3,Win32,60.10699044,,,,,,,,,,,,,,,,,,,,,,,,,,,,,,,,,25,1.6992,1,0,3,3,31,1,5,×,5,5 × 5,neutral,tie,2,1,25,,,,,,,,
,,,,,,,,,,,,,,,676,2022-04-07_09h20.58.098,multiplicationStroop,2021.2.3,Win32,60.10699044,,,,,,,,,,,,,,,,,,,,,,,,,,,,,,,,,64,2.0325,1,0,4,4,34,1,8,×,8,8 × 8,neutral,tie,2,1,64,,,,,,,,
,,,,,,,,,,,,,,,676,2022-04-07_09h20.58.098,multiplicationStroop,2021.2.3,Win32,60.10699044,,,,,,,,,,,,,,,,,,,,,,,,,,,,,,,,,21,1.4657,1,0,5,5,16,1,7,×,3,7 × 3,congruent,largerFirst,2,1,21,,,,,,,,
,,,,,,,,,,,,,,,676,2022-04-07_09h20.58.098,multiplicationStroop,2021.2.3,Win32,60.10699044,,,,,,,,,,,,,,,,,,,,,,,,,,,,,,,,,30,2.1987,1,0,6,6,15,1,6,×,5,6 × 5,congruent,largerFirst,2,1,30,,,,,,,,
,,,,,,,,,,,,,,,676,2022-04-07_09h20.58.098,multiplicationStroop,2021.2.3,Win32,60.10699044,,,,,,,,,,,,,,,,,,,,,,,,,,,,,,,,,24,1.6994,1,0,7,7,25,1,6,×,4,6 × 4,congruent,largerFirst,2,1,24,,,,,,,,
,,,,,,,,,,,,,,,676,2022-04-07_09h20.58.098,multiplicationStroop,2021.2.3,Win32,60.10699044,,,,,,,,,,,,,,,,,,,,,,,,,,,,,,,,,20,2.6989,1,0,8,8,7,1,4,×,5,4 × 5,congruent,smallerFirst,1,2,20,,,,,,,,
,,,,,,,,,,,,,,,676,2022-04-07_09h20.58.098,multiplicationStroop,2021.2.3,Win32,60.10699044,,,,,,,,,,,,,,,,,,,,,,,,,,,,,,,,,8,1.7821,1,0,9,9,9,1,2,×,4,2 × 4,congruent,smallerFirst,1,2,8,,,,,,,,
,,,,,,,,,,,,,,,676,2022-04-07_09h20.58.098,multiplicationStroop,2021.2.3,Win32,60.10699044,,,,,,,,,,,,,,,,,,,,,,,,,,,,,,,,,16,1.7494,1,0,10,10,5,1,2,×,8,2 × 8,congruent,smallerFirst,1,2,16,,,,,,,,
,,,,,,,,,,,,,,,676,2022-04-07_09h20.58.098,multiplicationStroop,2021.2.3,Win32,60.10699044,,,,,,,,,,,,,,,,,,,,,,,,,,,,,,,,,16,1.8494,1,0,11,11,30,1,4,×,4,4 × 4,neutral,tie,2,1,16,,,,,,,,
,,,,,,,,,,,,,,,676,2022-04-07_09h20.58.098,multiplicationStroop,2021.2.3,Win32,60.10699044,,,,,,,,,,,,,,,,,,,,,,,,,,,,,,,,,4,1.4825,1,0,12,12,28,1,2,×,2,2 × 2,neutral,tie,2,1,4,,,,,,,,
,,,,,,,,,,,,,,,676,2022-04-07_09h20.58.098,multiplicationStroop,2021.2.3,Win32,60.10699044,,,,,,,,,,,,,,,,,,,,,,,,,,,,,,,,,27,3.2484,1,0,13,13,26,1,9,×,3,9 × 3,congruent,largerFirst,2,1,27,,,,,,,,
,,,,,,,,,,,,,,,676,2022-04-07_09h20.58.098,multiplicationStroop,2021.2.3,Win32,60.10699044,,,,,,,,,,,,,,,,,,,,,,,,,,,,,,,,,18,2.9323,1,0,14,14,11,1,3,×,6,3 × 6,congruent,smallerFirst,1,2,18,,,,,,,,
,,,,,,,,,,,,,,,676,2022-04-07_09h20.58.098,multiplicationStroop,2021.2.3,Win32,60.10699044,,,,,,,,,,,,,,,,,,,,,,,,,,,,,,,,,18,1.6675,1,0,15,15,22,1,9,×,2,9 × 2,congruent,largerFirst,2,1,18,,,,,,,,
,,,,,,,,,,,,,,,676,2022-04-07_09h20.58.098,multiplicationStroop,2021.2.3,Win32,60.10699044,,,,,,,,,,,,,,,,,,,,,,,,,,,,,,,,,42,3.632,1,0,16,16,3,1,6,×,7,6 × 7,congruent,smallerFirst,1,2,42,,,,,,,,
,,,,,,,,,,,,,,,676,2022-04-07_09h20.58.098,multiplicationStroop,2021.2.3,Win32,60.10699044,,,,,,,,,,,,,,,,,,,,,,,,,,,,,,,,,36,2.4174,1,0,17,17,32,1,6,×,6,6 × 6,neutral,tie,2,1,36,,,,,,,,
,,,,,,,,,,,,,,,676,2022-04-07_09h20.58.098,multiplicationStroop,2021.2.3,Win32,60.10699044,,,,,,,,,,,,,,,,,,,,,,,,,,,,,,,,,36,2.5488,1,0,18,18,0,1,4,×,9,4 × 9,congruent,smallerFirst,1,2,36,,,,,,,,
,,,,,,,,,,,,,,,676,2022-04-07_09h20.58.098,multiplicationStroop,2021.2.3,Win32,60.10699044,,,,,,,,,,,,,,,,,,,,,,,,,,,,,,,,,48,3.3511,1,0,19,19,18,1,8,×,6,8 × 6,congruent,largerFirst,2,1,48,,,,,,,,
,,,,,,,,,,,,,,,676,2022-04-07_09h20.58.098,multiplicationStroop,2021.2.3,Win32,60.10699044,,,,,,,,,,,,,,,,,,,,,,,,,,,,,,,,,40,2.1493,1,0,20,20,6,1,5,×,8,5 × 8,congruent,smallerFirst,1,2,40,,,,,,,,
,,,,,,,,,,,,,,,676,2022-04-07_09h20.58.098,multiplicationStroop,2021.2.3,Win32,60.10699044,,,,,,,,,,,,,,,,,,,,,,,,,,,,,,,,,12,1.8673,1,0,21,21,2,1,3,×,4,3 × 4,congruent,smallerFirst,1,2,12,,,,,,,,
,,,,,,,,,,,,,,,676,2022-04-07_09h20.58.098,multiplicationStroop,2021.2.3,Win32,60.10699044,,,,,,,,,,,,,,,,,,,,,,,,,,,,,,,,,27,2.9988,0,0,22,22,17,1,9,×,8,9 × 8,congruent,largerFirst,2,1,72,,,,,,,,
,,,,,,,,,,,,,,,676,2022-04-07_09h20.58.098,multiplicationStroop,2021.2.3,Win32,60.10699044,,,,,,,,,,,,,,,,,,,,,,,,,,,,,,,,,12,1.4348,1,0,23,23,19,1,6,×,2,6 × 2,congruent,largerFirst,2,1,12,,,,,,,,
,,,,,,,,,,,,,,,676,2022-04-07_09h20.58.098,multiplicationStroop,2021.2.3,Win32,60.10699044,,,,,,,,,,,,,,,,,,,,,,,,,,,,,,,,,63,3.3159,1,0,24,24,21,1,9,×,7,9 × 7,congruent,largerFirst,2,1,63,,,,,,,,
,,,,,,,,,,,,,,,676,2022-04-07_09h20.58.098,multiplicationStroop,2021.2.3,Win32,60.10699044,,,,,,,,,,,,,,,,,,,,,,,,,,,,,,,,,54,2.9339,1,0,25,25,12,1,6,×,9,6 × 9,congruent,smallerFirst,1,2,54,,,,,,,,
,,,,,,,,,,,,,,,676,2022-04-07_09h20.58.098,multiplicationStroop,2021.2.3,Win32,60.10699044,,,,,,,,,,,,,,,,,,,,,,,,,,,,,,,,,35,1.8384,1,0,26,26,1,1,5,×,7,5 × 7,congruent,smallerFirst,1,2,35,,,,,,,,
,,,,,,,,,,,,,,,676,2022-04-07_09h20.58.098,multiplicationStroop,2021.2.3,Win32,60.10699044,,,,,,,,,,,,,,,,,,,,,,,,,,,,,,,,,6,2.0655,1,0,27,27,13,1,2,×,3,2 × 3,congruent,smallerFirst,1,2,6,,,,,,,,
,,,,,,,,,,,,,,,676,2022-04-07_09h20.58.098,multiplicationStroop,2021.2.3,Win32,60.10699044,,,,,,,,,,,,,,,,,,,,,,,,,,,,,,,,,1,1.761,0,0,28,28,24,1,5,×,2,5 × 2,congruent,largerFirst,2,1,10,,,,,,,,
,,,,,,,,,,,,,,,676,2022-04-07_09h20.58.098,multiplicationStroop,2021.2.3,Win32,60.10699044,,,,,,,,,,,,,,,,,,,,,,,,,,,,,,,,,9,1.7154,1,0,29,29,29,1,3,×,3,3 × 3,neutral,tie,2,1,9,,,,,,,,
,,,,,,,,,,,,,,,676,2022-04-07_09h20.58.098,multiplicationStroop,2021.2.3,Win32,60.10699044,,,,,,,,,,,,,,,,,,,,,,,,,,,,,,,,,24,2.1814,1,0,30,30,10,1,3,×,8,3 × 8,congruent,smallerFirst,1,2,24,,,,,,,,
,,,,,,,,,,,,,,,676,2022-04-07_09h20.58.098,multiplicationStroop,2021.2.3,Win32,60.10699044,,,,,,,,,,,,,,,,,,,,,,,,,,,,,,,,,56,2.7484,1,0,31,31,8,1,7,×,8,7 × 8,congruent,smallerFirst,1,2,56,,,,,,,,
,,,,,,,,,,,,,,,676,2022-04-07_09h20.58.098,multiplicationStroop,2021.2.3,Win32,60.10699044,,,,,,,,,,,,,,,,,,,,,,,,,,,,,,,,,49,2.8476,1,0,32,32,33,1,7,×,7,7 × 7,neutral,tie,2,1,49,,,,,,,,
,,,,,,,,,,,,,,,676,2022-04-07_09h20.58.098,multiplicationStroop,2021.2.3,Win32,60.10699044,,,,,,,,,,,,,,,,,,,,,,,,,,,,,,,,,81,3.3306,1,0,33,33,35,1,9,×,9,9 × 9,neutral,tie,2,1,81,,,,,,,,
,,,,,,,,,,,,,,,676,2022-04-07_09h20.58.098,multiplicationStroop,2021.2.3,Win32,60.10699044,,,,,,,,,,,,,,,,,,,,,,,,,,,,,,,,,32,4.6508,1,0,34,34,20,1,8,×,4,8 × 4,congruent,largerFirst,2,1,32,,,,,,,,
,,,,,,,,,,,,,,,676,2022-04-07_09h20.58.098,multiplicationStroop,2021.2.3,Win32,60.10699044,,,,,,,,,,,,,,,,,,,,,,,,,,,,,,,,,45,3.2842,1,0,35,35,23,1,9,×,5,9 × 5,congruent,largerFirst,2,1,45,,,,,,,,
,,,,,,,,,,,,,,,676,2022-04-07_09h20.58.098,multiplicationStroop,2021.2.3,Win32,60.10699044,,,,,,,,,,,,,,,,,,,,,,,,,,,,,,,,,,,,,,,,,,,,,,,,,,0,1,1,2,1,stimulusFile/mult_blk3_congruent.xlsx,,
,,,,,,,,,,,,,,,676,2022-04-07_09h20.58.098,multiplicationStroop,2021.2.3,Win32,60.10699044,,,,,,,,,,,,,,,,,,,,,,,,,,,,,,,space,1.1213,28,2.6306,1,0,0,0,2,1,4,×,7,4 × 7,incongruent,smallerFirst,2,1,28,,,,,,,,
,,,,,,,,,,,,,,,676,2022-04-07_09h20.58.098,multiplicationStroop,2021.2.3,Win32,60.10699044,,,,,,,,,,,,,,,,,,,,,,,,,,,,,,,,,16,2.0477,1,0,1,1,9,1,2,×,8,2 × 8,incongruent,smallerFirst,2,1,16,,,,,,,,
,,,,,,,,,,,,,,,676,2022-04-07_09h20.58.098,multiplicationStroop,2021.2.3,Win32,60.10699044,,,,,,,,,,,,,,,,,,,,,,,,,,,,,,,,,27,2.8983,1,0,2,2,4,1,3,×,9,3 × 9,incongruent,smallerFirst,2,1,27,,,,,,,,
,,,,,,,,,,,,,,,676,2022-04-07_09h20.58.098,multiplicationStroop,2021.2.3,Win32,60.10699044,,,,,,,,,,,,,,,,,,,,,,,,,,,,,,,,,4,1.4812,1,0,3,3,28,1,2,×,2,2 × 2,neutral,tie,2,1,4,,,,,,,,
,,,,,,,,,,,,,,,676,2022-04-07_09h20.58.098,multiplicationStroop,2021.2.3,Win32,60.10699044,,,,,,,,,,,,,,,,,,,,,,,,,,,,,,,,,24,1.6317,1,0,4,4,6,1,4,×,6,4 × 6,incongruent,smallerFirst,2,1,24,,,,,,,,
,,,,,,,,,,,,,,,676,2022-04-07_09h20.58.098,multiplicationStroop,2021.2.3,Win32,60.10699044,,,,,,,,,,,,,,,,,,,,,,,,,,,,,,,,,15,1.5828,1,0,5,5,24,1,5,×,3,5 × 3,incongruent,largerFirst,1,2,15,,,,,,,,
,,,,,,,,,,,,,,,676,2022-04-07_09h20.58.098,multiplicationStroop,2021.2.3,Win32,60.10699044,,,,,,,,,,,,,,,,,,,,,,,,,,,,,,,,,14,2.1472,1,0,6,6,18,1,7,×,2,7 × 2,incongruent,largerFirst,1,2,14,,,,,,,,
,,,,,,,,,,,,,,,676,2022-04-07_09h20.58.098,multiplicationStroop,2021.2.3,Win32,60.10699044,,,,,,,,,,,,,,,,,,,,,,,,,,,,,,,,,8,2.1312,1,0,7,7,10,1,2,×,4,2 × 4,incongruent,smallerFirst,2,1,8,,,,,,,,
,,,,,,,,,,,,,,,676,2022-04-07_09h20.58.098,multiplicationStroop,2021.2.3,Win32,60.10699044,,,,,,,,,,,,,,,,,,,,,,,,,,,,,,,,,16,1.5976,1,0,8,8,30,1,4,×,4,4 × 4,neutral,tie,2,1,16,,,,,,,,
,,,,,,,,,,,,,,,676,2022-04-07_09h20.58.098,multiplicationStroop,2021.2.3,Win32,60.10699044,,,,,,,,,,,,,,,,,,,,,,,,,,,,,,,,,18,1.8479,1,0,9,9,22,1,6,×,3,6 × 3,incongruent,largerFirst,1,2,18,,,,,,,,
,,,,,,,,,,,,,,,676,2022-04-07_09h20.58.098,multiplicationStroop,2021.2.3,Win32,60.10699044,,,,,,,,,,,,,,,,,,,,,,,,,,,,,,,,,48,2.9804,1,0,10,10,15,1,8,×,6,8 × 6,incongruent,largerFirst,1,2,48,,,,,,,,
,,,,,,,,,,,,,,,676,2022-04-07_09h20.58.098,multiplicationStroop,2021.2.3,Win32,60.10699044,,,,,,,,,,,,,,,,,,,,,,,,,,,,,,,,,20,2.6653,1,0,11,11,13,1,4,×,5,4 × 5,incongruent,smallerFirst,2,1,20,,,,,,,,
,,,,,,,,,,,,,,,676,2022-04-07_09h20.58.098,multiplicationStroop,2021.2.3,Win32,60.10699044,,,,,,,,,,,,,,,,,,,,,,,,,,,,,,,,,25,3.0819,1,0,12,12,31,1,5,×,5,5 × 5,neutral,tie,2,1,25,,,,,,,,
,,,,,,,,,,,,,,,676,2022-04-07_09h20.58.098,multiplicationStroop,2021.2.3,Win32,60.10699044,,,,,,,,,,,,,,,,,,,,,,,,,,,,,,,,,42,3.0332,1,0,13,13,3,1,6,×,7,6 × 7,incongruent,smallerFirst,2,1,42,,,,,,,,
,,,,,,,,,,,,,,,676,2022-04-07_09h20.58.098,multiplicationStroop,2021.2.3,Win32,60.10699044,,,,,,,,,,,,,,,,,,,,,,,,,,,,,,,,,30,3.0983,1,0,14,14,11,1,5,×,6,5 × 6,incongruent,smallerFirst,2,1,30,,,,,,,,
,,,,,,,,,,,,,,,676,2022-04-07_09h20.58.098,multiplicationStroop,2021.2.3,Win32,60.10699044,,,,,,,,,,,,,,,,,,,,,,,,,,,,,,,,,5,1.6325,0,0,15,15,25,1,3,×,2,3 × 2,incongruent,largerFirst,1,2,6,,,,,,,,
,,,,,,,,,,,,,,,676,2022-04-07_09h20.58.098,multiplicationStroop,2021.2.3,Win32,60.10699044,,,,,,,,,,,,,,,,,,,,,,,,,,,,,,,,,9,1.6991,1,0,16,16,29,1,3,×,3,3 × 3,neutral,tie,2,1,9,,,,,,,,
,,,,,,,,,,,,,,,676,2022-04-07_09h20.58.098,multiplicationStroop,2021.2.3,Win32,60.10699044,,,,,,,,,,,,,,,,,,,,,,,,,,,,,,,,,12,1.5155,1,0,17,17,19,1,4,×,3,4 × 3,incongruent,largerFirst,1,2,12,,,,,,,,
,,,,,,,,,,,,,,,676,2022-04-07_09h20.58.098,multiplicationStroop,2021.2.3,Win32,60.10699044,,,,,,,,,,,,,,,,,,,,,,,,,,,,,,,,,72,2.8944,1,0,18,18,14,1,9,×,8,9 × 8,incongruent,largerFirst,1,2,72,,,,,,,,
,,,,,,,,,,,,,,,676,2022-04-07_09h20.58.098,multiplicationStroop,2021.2.3,Win32,60.10699044,,,,,,,,,,,,,,,,,,,,,,,,,,,,,,,,,24,2.0529,1,0,19,19,23,1,8,×,3,8 × 3,incongruent,largerFirst,1,2,24,,,,,,,,
,,,,,,,,,,,,,,,676,2022-04-07_09h20.58.098,multiplicationStroop,2021.2.3,Win32,60.10699044,,,,,,,,,,,,,,,,,,,,,,,,,,,,,,,,,10,1.8827,1,0,20,20,7,1,2,×,5,2 × 5,incongruent,smallerFirst,2,1,10,,,,,,,,
,,,,,,,,,,,,,,,676,2022-04-07_09h20.58.098,multiplicationStroop,2021.2.3,Win32,60.10699044,,,,,,,,,,,,,,,,,,,,,,,,,,,,,,,,,56,2.5821,1,0,21,21,0,1,7,×,8,7 × 8,incongruent,smallerFirst,2,1,56,,,,,,,,
,,,,,,,,,,,,,,,676,2022-04-07_09h20.58.098,multiplicationStroop,2021.2.3,Win32,60.10699044,,,,,,,,,,,,,,,,,,,,,,,,,,,,,,,,,40,2.0657,1,0,22,22,27,1,8,×,5,8 × 5,incongruent,largerFirst,1,2,40,,,,,,,,
,,,,,,,,,,,,,,,676,2022-04-07_09h20.58.098,multiplicationStroop,2021.2.3,Win32,60.10699044,,,,,,,,,,,,,,,,,,,,,,,,,,,,,,,,,45,2.4156,1,0,23,23,8,1,5,×,9,5 × 9,incongruent,smallerFirst,2,1,45,,,,,,,,
,,,,,,,,,,,,,,,676,2022-04-07_09h20.58.098,multiplicationStroop,2021.2.3,Win32,60.10699044,,,,,,,,,,,,,,,,,,,,,,,,,,,,,,,,,63,4.2822,1,0,24,24,17,1,9,×,7,9 × 7,incongruent,largerFirst,1,2,63,,,,,,,,
,,,,,,,,,,,,,,,676,2022-04-07_09h20.58.098,multiplicationStroop,2021.2.3,Win32,60.10699044,,,,,,,,,,,,,,,,,,,,,,,,,,,,,,,,,64,2.6339,1,0,25,25,34,1,8,×,8,8 × 8,neutral,tie,2,1,64,,,,,,,,
,,,,,,,,,,,,,,,676,2022-04-07_09h20.58.098,multiplicationStroop,2021.2.3,Win32,60.10699044,,,,,,,,,,,,,,,,,,,,,,,,,,,,,,,,,49,1.9661,1,0,26,26,33,1,7,×,7,7 × 7,neutral,tie,2,1,49,,,,,,,,
,,,,,,,,,,,,,,,676,2022-04-07_09h20.58.098,multiplicationStroop,2021.2.3,Win32,60.10699044,,,,,,,,,,,,,,,,,,,,,,,,,,,,,,,,,43,3.2489,0,0,27,27,21,1,8,×,4,8 × 4,incongruent,largerFirst,1,2,32,,,,,,,,
,,,,,,,,,,,,,,,676,2022-04-07_09h20.58.098,multiplicationStroop,2021.2.3,Win32,60.10699044,,,,,,,,,,,,,,,,,,,,,,,,,,,,,,,,,81,1.9487,1,0,28,28,35,1,9,×,9,9 × 9,neutral,tie,2,1,81,,,,,,,,
,,,,,,,,,,,,,,,676,2022-04-07_09h20.58.098,multiplicationStroop,2021.2.3,Win32,60.10699044,,,,,,,,,,,,,,,,,,,,,,,,,,,,,,,,,35,1.7827,0,0,29,29,32,1,6,×,6,6 × 6,neutral,tie,2,1,36,,,,,,,,
,,,,,,,,,,,,,,,676,2022-04-07_09h20.58.098,multiplicationStroop,2021.2.3,Win32,60.10699044,,,,,,,,,,,,,,,,,,,,,,,,,,,,,,,,,54,1.9325,1,0,30,30,20,1,9,×,6,9 × 6,incongruent,largerFirst,1,2,54,,,,,,,,
,,,,,,,,,,,,,,,676,2022-04-07_09h20.58.098,multiplicationStroop,2021.2.3,Win32,60.10699044,,,,,,,,,,,,,,,,,,,,,,,,,,,,,,,,,35,1.8489,1,0,31,31,26,1,7,×,5,7 × 5,incongruent,largerFirst,1,2,35,,,,,,,,
,,,,,,,,,,,,,,,676,2022-04-07_09h20.58.098,multiplicationStroop,2021.2.3,Win32,60.10699044,,,,,,,,,,,,,,,,,,,,,,,,,,,,,,,,,12,1.7998,1,0,32,32,5,1,2,×,6,2 × 6,incongruent,smallerFirst,2,1,12,,,,,,,,
,,,,,,,,,,,,,,,676,2022-04-07_09h20.58.098,multiplicationStroop,2021.2.3,Win32,60.10699044,,,,,,,,,,,,,,,,,,,,,,,,,,,,,,,,,36,4.4315,1,0,33,33,1,1,4,×,9,4 × 9,incongruent,smallerFirst,2,1,36,,,,,,,,
,,,,,,,,,,,,,,,676,2022-04-07_09h20.58.098,multiplicationStroop,2021.2.3,Win32,60.10699044,,,,,,,,,,,,,,,,,,,,,,,,,,,,,,,,,18,2.6512,1,0,34,34,16,1,9,×,2,9 × 2,incongruent,largerFirst,1,2,18,,,,,,,,
,,,,,,,,,,,,,,,676,2022-04-07_09h20.58.098,multiplicationStroop,2021.2.3,Win32,60.10699044,,,,,,,,,,,,,,,,,,,,,,,,,,,,,,,,,21,1.6173,1,0,35,35,12,1,3,×,7,3 × 7,incongruent,smallerFirst,2,1,21,,,,,,,,
,,,,,,,,,,,,,,,676,2022-04-07_09h20.58.098,multiplicationStroop,2021.2.3,Win32,60.10699044,,,,,,,,,,,,,,,,,,,,,,,,,,,,,,,,,,,,,,,,,,,,,,,,,,0,2,2,4,1,stimulusFile/mult_blk5_INcongruent.xlsx,,
,,,,,,,,,,,,,,,676,2022-04-07_09h20.58.098,multiplicationStroop,2021.2.3,Win32,60.10699044,,,,,,,,,,,,,,,,,,,,,,,,,,,,,,,space,1.0718,4,1.6935,1,0,0,0,28,1,2,×,2,2 × 2,neutral,tie,1.5,1.5,4,,,,,,,,
,,,,,,,,,,,,,,,676,2022-04-07_09h20.58.098,multiplicationStroop,2021.2.3,Win32,60.10699044,,,,,,,,,,,,,,,,,,,,,,,,,,,,,,,,,48,2.8987,1,0,1,1,1,1,6,×,8,6 × 8,neutral,smallerFirst,1.5,1.5,48,,,,,,,,
,,,,,,,,,,,,,,,676,2022-04-07_09h20.58.098,multiplicationStroop,2021.2.3,Win32,60.10699044,,,,,,,,,,,,,,,,,,,,,,,,,,,,,,,,,63,2.3653,1,0,2,2,26,1,9,×,7,9 × 7,neutral,largerFirst,1.5,1.5,63,,,,,,,,
,,,,,,,,,,,,,,,676,2022-04-07_09h20.58.098,multiplicationStroop,2021.2.3,Win32,60.10699044,,,,,,,,,,,,,,,,,,,,,,,,,,,,,,,,,35,1.864,1,0,3,3,15,1,7,×,5,7 × 5,neutral,largerFirst,1.5,1.5,35,,,,,,,,
,,,,,,,,,,,,,,,676,2022-04-07_09h20.58.098,multiplicationStroop,2021.2.3,Win32,60.10699044,,,,,,,,,,,,,,,,,,,,,,,,,,,,,,,,,12,1.4656,1,0,4,4,11,1,2,×,6,2 × 6,neutral,smallerFirst,1.5,1.5,12,,,,,,,,
,,,,,,,,,,,,,,,676,2022-04-07_09h20.58.098,multiplicationStroop,2021.2.3,Win32,60.10699044,,,,,,,,,,,,,,,,,,,,,,,,,,,,,,,,,10,1.6811,1,0,5,5,18,1,5,×,2,5 × 2,neutral,largerFirst,1.5,1.5,10,,,,,,,,
,,,,,,,,,,,,,,,676,2022-04-07_09h20.58.098,multiplicationStroop,2021.2.3,Win32,60.10699044,,,,,,,,,,,,,,,,,,,,,,,,,,,,,,,,,30,2.0142,1,0,6,6,5,1,5,×,6,5 × 6,neutral,smallerFirst,1.5,1.5,30,,,,,,,,
,,,,,,,,,,,,,,,676,2022-04-07_09h20.58.098,multiplicationStroop,2021.2.3,Win32,60.10699044,,,,,,,,,,,,,,,,,,,,,,,,,,,,,,,,,25,1.815,1,0,7,7,31,1,5,×,5,5 × 5,neutral,tie,1.5,1.5,25,,,,,,,,
,,,,,,,,,,,,,,,676,2022-04-07_09h20.58.098,multiplicationStroop,2021.2.3,Win32,60.10699044,,,,,,,,,,,,,,,,,,,,,,,,,,,,,,,,,14,2.1814,1,0,8,8,2,1,2,×,7,2 × 7,neutral,smallerFirst,1.5,1.5,14,,,,,,,,
,,,,,,,,,,,,,,,676,2022-04-07_09h20.58.098,multiplicationStroop,2021.2.3,Win32,60.10699044,,,,,,,,,,,,,,,,,,,,,,,,,,,,,,,,,42,3.6313,1,0,9,9,20,1,7,×,6,7 × 6,neutral,largerFirst,1.5,1.5,42,,,,,,,,
,,,,,,,,,,,,,,,676,2022-04-07_09h20.58.098,multiplicationStroop,2021.2.3,Win32,60.10699044,,,,,,,,,,,,,,,,,,,,,,,,,,,,,,,,,45,8.433,1,0,10,10,24,1,9,×,5,9 × 5,neutral,largerFirst,1.5,1.5,45,,,,,,,,
,,,,,,,,,,,,,,,676,2022-04-07_09h20.58.098,multiplicationStroop,2021.2.3,Win32,60.10699044,,,,,,,,,,,,,,,,,,,,,,,,,,,,,,,,,36,2.534,1,0,11,11,13,1,4,×,9,4 × 9,neutral,smallerFirst,1.5,1.5,36,,,,,,,,
,,,,,,,,,,,,,,,676,2022-04-07_09h20.58.098,multiplicationStroop,2021.2.3,Win32,60.10699044,,,,,,,,,,,,,,,,,,,,,,,,,,,,,,,,,27,4.1978,1,0,12,12,0,1,3,×,9,3 × 9,neutral,smallerFirst,1.5,1.5,27,,,,,,,,
,,,,,,,,,,,,,,,676,2022-04-07_09h20.58.098,multiplicationStroop,2021.2.3,Win32,60.10699044,,,,,,,,,,,,,,,,,,,,,,,,,,,,,,,,,54,2.8672,1,0,13,13,21,1,9,×,6,9 × 6,neutral,largerFirst,1.5,1.5,54,,,,,,,,
,,,,,,,,,,,,,,,676,2022-04-07_09h20.58.098,multiplicationStroop,2021.2.3,Win32,60.10699044,,,,,,,,,,,,,,,,,,,,,,,,,,,,,,,,,64,2.4479,0,0,14,14,23,1,8,×,7,8 × 7,neutral,largerFirst,1.5,1.5,56,,,,,,,,
,,,,,,,,,,,,,,,676,2022-04-07_09h20.58.098,multiplicationStroop,2021.2.3,Win32,60.10699044,,,,,,,,,,,,,,,,,,,,,,,,,,,,,,,,,28,3.0341,1,0,15,15,3,1,4,×,7,4 × 7,neutral,smallerFirst,1.5,1.5,28,,,,,,,,
,,,,,,,,,,,,,,,676,2022-04-07_09h20.58.098,multiplicationStroop,2021.2.3,Win32,60.10699044,,,,,,,,,,,,,,,,,,,,,,,,,,,,,,,,,81,1.6658,1,0,16,16,35,1,9,×,9,9 × 9,neutral,tie,1.5,1.5,81,,,,,,,,
,,,,,,,,,,,,,,,676,2022-04-07_09h20.58.098,multiplicationStroop,2021.2.3,Win32,60.10699044,,,,,,,,,,,,,,,,,,,,,,,,,,,,,,,,,24,2.0818,1,0,17,17,8,1,3,×,8,3 × 8,neutral,smallerFirst,1.5,1.5,24,,,,,,,,
,,,,,,,,,,,,,,,676,2022-04-07_09h20.58.098,multiplicationStroop,2021.2.3,Win32,60.10699044,,,,,,,,,,,,,,,,,,,,,,,,,,,,,,,,,18,2.2135,1,0,18,18,14,1,6,×,3,6 × 3,neutral,largerFirst,1.5,1.5,18,,,,,,,,
,,,,,,,,,,,,,,,676,2022-04-07_09h20.58.098,multiplicationStroop,2021.2.3,Win32,60.10699044,,,,,,,,,,,,,,,,,,,,,,,,,,,,,,,,,15,1.5977,1,0,19,19,19,1,5,×,3,5 × 3,neutral,largerFirst,1.5,1.5,15,,,,,,,,
,,,,,,,,,,,,,,,676,2022-04-07_09h20.58.098,multiplicationStroop,2021.2.3,Win32,60.10699044,,,,,,,,,,,,,,,,,,,,,,,,,,,,,,,,,64,1.9825,1,0,20,20,34,1,8,×,8,8 × 8,neutral,tie,1.5,1.5,64,,,,,,,,
,,,,,,,,,,,,,,,676,2022-04-07_09h20.58.098,multiplicationStroop,2021.2.3,Win32,60.10699044,,,,,,,,,,,,,,,,,,,,,,,,,,,,,,,,,36,3.447,0,0,21,21,9,1,4,×,8,4 × 8,neutral,smallerFirst,1.5,1.5,32,,,,,,,,
,,,,,,,,,,,,,,,676,2022-04-07_09h20.58.098,multiplicationStroop,2021.2.3,Win32,60.10699044,,,,,,,,,,,,,,,,,,,,,,,,,,,,,,,,,8,2.9569,1,0,22,22,17,1,4,×,2,4 × 2,neutral,largerFirst,1.5,1.5,8,,,,,,,,
,,,,,,,,,,,,,,,676,2022-04-07_09h20.58.098,multiplicationStroop,2021.2.3,Win32,60.10699044,,,,,,,,,,,,,,,,,,,,,,,,,,,,,,,,,12,1.549,1,0,23,23,7,1,3,×,4,3 × 4,neutral,smallerFirst,1.5,1.5,12,,,,,,,,
,,,,,,,,,,,,,,,676,2022-04-07_09h20.58.098,multiplicationStroop,2021.2.3,Win32,60.10699044,,,,,,,,,,,,,,,,,,,,,,,,,,,,,,,,,21,1.6144,1,0,24,24,22,1,7,×,3,7 × 3,neutral,largerFirst,1.5,1.5,21,,,,,,,,
,,,,,,,,,,,,,,,676,2022-04-07_09h20.58.098,multiplicationStroop,2021.2.3,Win32,60.10699044,,,,,,,,,,,,,,,,,,,,,,,,,,,,,,,,,24,2.6813,1,0,25,25,16,1,6,×,4,6 × 4,neutral,largerFirst,1.5,1.5,24,,,,,,,,
,,,,,,,,,,,,,,,676,2022-04-07_09h20.58.098,multiplicationStroop,2021.2.3,Win32,60.10699044,,,,,,,,,,,,,,,,,,,,,,,,,,,,,,,,,16,1.916,1,0,26,26,27,1,8,×,2,8 × 2,neutral,largerFirst,1.5,1.5,16,,,,,,,,
,,,,,,,,,,,,,,,676,2022-04-07_09h20.58.098,multiplicationStroop,2021.2.3,Win32,60.10699044,,,,,,,,,,,,,,,,,,,,,,,,,,,,,,,,,36,2.0815,1,0,27,27,32,1,6,×,6,6 × 6,neutral,tie,1.5,1.5,36,,,,,,,,
,,,,,,,,,,,,,,,676,2022-04-07_09h20.58.098,multiplicationStroop,2021.2.3,Win32,60.10699044,,,,,,,,,,,,,,,,,,,,,,,,,,,,,,,,,72,4.2466,1,0,28,28,25,1,9,×,8,9 × 8,neutral,largerFirst,1.5,1.5,72,,,,,,,,
,,,,,,,,,,,,,,,676,2022-04-07_09h20.58.098,multiplicationStroop,2021.2.3,Win32,60.10699044,,,,,,,,,,,,,,,,,,,,,,,,,,,,,,,,,49,4.1006,1,0,29,29,33,1,7,×,7,7 × 7,neutral,tie,1.5,1.5,49,,,,,,,,
,,,,,,,,,,,,,,,676,2022-04-07_09h20.58.098,multiplicationStroop,2021.2.3,Win32,60.10699044,,,,,,,,,,,,,,,,,,,,,,,,,,,,,,,,,20,2.5671,1,0,30,30,6,1,4,×,5,4 × 5,neutral,smallerFirst,1.5,1.5,20,,,,,,,,
,,,,,,,,,,,,,,,676,2022-04-07_09h20.58.098,multiplicationStroop,2021.2.3,Win32,60.10699044,,,,,,,,,,,,,,,,,,,,,,,,,,,,,,,,,18,1.7314,1,0,31,31,4,1,2,×,9,2 × 9,neutral,smallerFirst,1.5,1.5,18,,,,,,,,
,,,,,,,,,,,,,,,676,2022-04-07_09h20.58.098,multiplicationStroop,2021.2.3,Win32,60.10699044,,,,,,,,,,,,,,,,,,,,,,,,,,,,,,,,,9,3.0149,1,0,32,32,29,1,3,×,3,3 × 3,neutral,tie,1.5,1.5,9,,,,,,,,
,,,,,,,,,,,,,,,676,2022-04-07_09h20.58.098,multiplicationStroop,2021.2.3,Win32,60.10699044,,,,,,,,,,,,,,,,,,,,,,,,,,,,,,,,,6,2.6054,1,0,33,33,12,1,2,×,3,2 × 3,neutral,smallerFirst,1.5,1.5,6,,,,,,,,
,,,,,,,,,,,,,,,676,2022-04-07_09h20.58.098,multiplicationStroop,2021.2.3,Win32,60.10699044,,,,,,,,,,,,,,,,,,,,,,,,,,,,,,,,,40,1.915,1,0,34,34,10,1,5,×,8,5 × 8,neutral,smallerFirst,1.5,1.5,40,,,,,,,,
,,,,,,,,,,,,,,,676,2022-04-07_09h20.58.098,multiplicationStroop,2021.2.3,Win32,60.10699044,,,,,,,,,,,,,,,,,,,,,,,,,,,,,,,,,16,1.7315,1,0,35,35,30,1,4,×,4,4 × 4,neutral,tie,1.5,1.5,16,,,,,,,,
,,,,,,,,,,,,,,,676,2022-04-07_09h20.58.098,multiplicationStroop,2021.2.3,Win32,60.10699044,,,,,,,,,,,,,,,,,,,,,,,,,,,,,,,,,,,,,,,,,,,,,,,,,,0,3,3,0,1,stimulusFile/mult_blk1.xlsx,,
,,,,,,,,,,,,,,,676,2022-04-07_09h20.58.098,multiplicationStroop,2021.2.3,Win32,60.10699044,,,,,,,,,,,,,,,,,,,,,,,,,,,,,,,space,0.9704,6,1.8433,1,0,0,0,27,1,3,×,2,3 × 2,congruent,largerFirst,2,1,6,,,,,,,,
,,,,,,,,,,,,,,,676,2022-04-07_09h20.58.098,multiplicationStroop,2021.2.3,Win32,60.10699044,,,,,,,,,,,,,,,,,,,,,,,,,,,,,,,,,18,1.6305,1,0,1,1,8,1,2,×,9,2 × 9,congruent,smallerFirst,1,2,18,,,,,,,,
,,,,,,,,,,,,,,,676,2022-04-07_09h20.58.098,multiplicationStroop,2021.2.3,Win32,60.10699044,,,,,,,,,,,,,,,,,,,,,,,,,,,,,,,,,27,1.8659,1,0,2,2,12,1,3,×,9,3 × 9,congruent,smallerFirst,1,2,27,,,,,,,,
,,,,,,,,,,,,,,,676,2022-04-07_09h20.58.098,multiplicationStroop,2021.2.3,Win32,60.10699044,,,,,,,,,,,,,,,,,,,,,,,,,,,,,,,,,63,4.6316,1,0,3,3,7,1,7,×,9,7 × 9,congruent,smallerFirst,1,2,63,,,,,,,,
,,,,,,,,,,,,,,,676,2022-04-07_09h20.58.098,multiplicationStroop,2021.2.3,Win32,60.10699044,,,,,,,,,,,,,,,,,,,,,,,,,,,,,,,,,20,1.7344,1,0,4,4,21,1,5,×,4,5 × 4,congruent,largerFirst,2,1,20,,,,,,,,
,,,,,,,,,,,,,,,676,2022-04-07_09h20.58.098,multiplicationStroop,2021.2.3,Win32,60.10699044,,,,,,,,,,,,,,,,,,,,,,,,,,,,,,,,,9,1.6982,1,0,5,5,29,1,3,×,3,3 × 3,neutral,tie,1,2,9,,,,,,,,
,,,,,,,,,,,,,,,676,2022-04-07_09h20.58.098,multiplicationStroop,2021.2.3,Win32,60.10699044,,,,,,,,,,,,,,,,,,,,,,,,,,,,,,,,,56,2.0482,1,0,6,6,22,1,8,×,7,8 × 7,congruent,largerFirst,2,1,56,,,,,,,,
,,,,,,,,,,,,,,,676,2022-04-07_09h20.58.098,multiplicationStroop,2021.2.3,Win32,60.10699044,,,,,,,,,,,,,,,,,,,,,,,,,,,,,,,,,40,1.7649,1,0,7,7,20,1,8,×,5,8 × 5,congruent,largerFirst,2,1,40,,,,,,,,
,,,,,,,,,,,,,,,676,2022-04-07_09h20.58.098,multiplicationStroop,2021.2.3,Win32,60.10699044,,,,,,,,,,,,,,,,,,,,,,,,,,,,,,,,,42,2.3496,1,0,8,8,17,1,7,×,6,7 × 6,congruent,largerFirst,2,1,42,,,,,,,,
,,,,,,,,,,,,,,,676,2022-04-07_09h20.58.098,multiplicationStroop,2021.2.3,Win32,60.10699044,,,,,,,,,,,,,,,,,,,,,,,,,,,,,,,,,12,1.714,1,0,9,9,16,1,4,×,3,4 × 3,congruent,largerFirst,2,1,12,,,,,,,,
,,,,,,,,,,,,,,,676,2022-04-07_09h20.58.098,multiplicationStroop,2021.2.3,Win32,60.10699044,,,,,,,,,,,,,,,,,,,,,,,,,,,,,,,,,8,1.7813,1,0,10,10,23,1,4,×,2,4 × 2,congruent,largerFirst,2,1,8,,,,,,,,
,,,,,,,,,,,,,,,676,2022-04-07_09h20.58.098,multiplicationStroop,2021.2.3,Win32,60.10699044,,,,,,,,,,,,,,,,,,,,,,,,,,,,,,,,,15,1.5991,1,0,11,11,18,1,5,×,3,5 × 3,congruent,largerFirst,2,1,15,,,,,,,,
,,,,,,,,,,,,,,,676,2022-04-07_09h20.58.098,multiplicationStroop,2021.2.3,Win32,60.10699044,,,,,,,,,,,,,,,,,,,,,,,,,,,,,,,,,30,2.0974,1,0,12,12,1,1,5,×,6,5 × 6,congruent,smallerFirst,1,2,30,,,,,,,,
,,,,,,,,,,,,,,,676,2022-04-07_09h20.58.098,multiplicationStroop,2021.2.3,Win32,60.10699044,,,,,,,,,,,,,,,,,,,,,,,,,,,,,,,,,64,2.0646,1,0,13,13,34,1,8,×,8,8 × 8,neutral,tie,1,2,64,,,,,,,,
,,,,,,,,,,,,,,,676,2022-04-07_09h20.58.098,multiplicationStroop,2021.2.3,Win32,60.10699044,,,,,,,,,,,,,,,,,,,,,,,,,,,,,,,,,36,2.8817,1,0,14,14,14,1,9,×,4,9 × 4,congruent,largerFirst,2,1,36,,,,,,,,
,,,,,,,,,,,,,,,676,2022-04-07_09h20.58.098,multiplicationStroop,2021.2.3,Win32,60.10699044,,,,,,,,,,,,,,,,,,,,,,,,,,,,,,,,,16,1.9824,1,0,15,15,19,1,8,×,2,8 × 2,congruent,largerFirst,2,1,16,,,,,,,,
,,,,,,,,,,,,,,,676,2022-04-07_09h20.58.098,multiplicationStroop,2021.2.3,Win32,60.10699044,,,,,,,,,,,,,,,,,,,,,,,,,,,,,,,,,16,1.9647,1,0,16,16,30,1,4,×,4,4 × 4,neutral,tie,1,2,16,,,,,,,,
,,,,,,,,,,,,,,,676,2022-04-07_09h20.58.098,multiplicationStroop,2021.2.3,Win32,60.10699044,,,,,,,,,,,,,,,,,,,,,,,,,,,,,,,,,32,2.0315,1,0,17,17,6,1,4,×,8,4 × 8,congruent,smallerFirst,1,2,32,,,,,,,,
,,,,,,,,,,,,,,,676,2022-04-07_09h20.58.098,multiplicationStroop,2021.2.3,Win32,60.10699044,,,,,,,,,,,,,,,,,,,,,,,,,,,,,,,,,18,1.9157,1,0,18,18,25,1,6,×,3,6 × 3,congruent,largerFirst,2,1,18,,,,,,,,
,,,,,,,,,,,,,,,676,2022-04-07_09h20.58.098,multiplicationStroop,2021.2.3,Win32,60.10699044,,,,,,,,,,,,,,,,,,,,,,,,,,,,,,,,,36,1.9478,1,0,19,19,32,1,6,×,6,6 × 6,neutral,tie,1,2,36,,,,,,,,
,,,,,,,,,,,,,,,676,2022-04-07_09h20.58.098,multiplicationStroop,2021.2.3,Win32,60.10699044,,,,,,,,,,,,,,,,,,,,,,,,,,,,,,,,,4,1.6316,1,0,20,20,28,1,2,×,2,2 × 2,neutral,tie,1,2,4,,,,,,,,
,,,,,,,,,,,,,,,676,2022-04-07_09h20.58.098,multiplicationStroop,2021.2.3,Win32,60.10699044,,,,,,,,,,,,,,,,,,,,,,,,,,,,,,,,,81,2.1649,1,0,21,21,35,1,9,×,9,9 × 9,neutral,tie,1,2,81,,,,,,,,
,,,,,,,,,,,,,,,676,2022-04-07_09h20.58.098,multiplicationStroop,2021.2.3,Win32,60.10699044,,,,,,,,,,,,,,,,,,,,,,,,,,,,,,,,,24,1.8318,1,0,22,22,24,1,8,×,3,8 × 3,congruent,largerFirst,2,1,24,,,,,,,,
,,,,,,,,,,,,,,,676,2022-04-07_09h20.58.098,multiplicationStroop,2021.2.3,Win32,60.10699044,,,,,,,,,,,,,,,,,,,,,,,,,,,,,,,,,14,1.7654,1,0,23,23,0,1,2,×,7,2 × 7,congruent,smallerFirst,1,2,14,,,,,,,,
,,,,,,,,,,,,,,,676,2022-04-07_09h20.58.098,multiplicationStroop,2021.2.3,Win32,60.10699044,,,,,,,,,,,,,,,,,,,,,,,,,,,,,,,,,35,2.0973,1,0,24,24,15,1,7,×,5,7 × 5,congruent,largerFirst,2,1,35,,,,,,,,
,,,,,,,,,,,,,,,676,2022-04-07_09h20.58.098,multiplicationStroop,2021.2.3,Win32,60.10699044,,,,,,,,,,,,,,,,,,,,,,,,,,,,,,,,,25,2.4488,1,0,25,25,31,1,5,×,5,5 × 5,neutral,tie,1,2,25,,,,,,,,
,,,,,,,,,,,,,,,676,2022-04-07_09h20.58.098,multiplicationStroop,2021.2.3,Win32,60.10699044,,,,,,,,,,,,,,,,,,,,,,,,,,,,,,,,,10,1.5807,1,0,26,26,10,1,2,×,5,2 × 5,congruent,smallerFirst,1,2,10,,,,,,,,
,,,,,,,,,,,,,,,676,2022-04-07_09h20.58.098,multiplicationStroop,2021.2.3,Win32,60.10699044,,,,,,,,,,,,,,,,,,,,,,,,,,,,,,,,,28,2.5481,1,0,27,27,13,1,4,×,7,4 × 7,congruent,smallerFirst,1,2,28,,,,,,,,
,,,,,,,,,,,,,,,676,2022-04-07_09h20.58.098,multiplicationStroop,2021.2.3,Win32,60.10699044,,,,,,,,,,,,,,,,,,,,,,,,,,,,,,,,,56,1.8489,0,0,28,28,26,1,9,×,6,9 × 6,congruent,largerFirst,2,1,54,,,,,,,,
,,,,,,,,,,,,,,,676,2022-04-07_09h20.58.098,multiplicationStroop,2021.2.3,Win32,60.10699044,,,,,,,,,,,,,,,,,,,,,,,,,,,,,,,,,49,1.93,1,0,29,29,33,1,7,×,7,7 × 7,neutral,tie,1,2,49,,,,,,,,
,,,,,,,,,,,,,,,676,2022-04-07_09h20.58.098,multiplicationStroop,2021.2.3,Win32,60.10699044,,,,,,,,,,,,,,,,,,,,,,,,,,,,,,,,,24,2.1165,1,0,30,30,11,1,4,×,6,4 × 6,congruent,smallerFirst,1,2,24,,,,,,,,
,,,,,,,,,,,,,,,676,2022-04-07_09h20.58.098,multiplicationStroop,2021.2.3,Win32,60.10699044,,,,,,,,,,,,,,,,,,,,,,,,,,,,,,,,,35,1.9825,0,0,31,31,9,1,5,×,9,5 × 9,congruent,smallerFirst,1,2,45,,,,,,,,
,,,,,,,,,,,,,,,676,2022-04-07_09h20.58.098,multiplicationStroop,2021.2.3,Win32,60.10699044,,,,,,,,,,,,,,,,,,,,,,,,,,,,,,,,,48,2.9818,1,0,32,32,4,1,6,×,8,6 × 8,congruent,smallerFirst,1,2,48,,,,,,,,
,,,,,,,,,,,,,,,676,2022-04-07_09h20.58.098,multiplicationStroop,2021.2.3,Win32,60.10699044,,,,,,,,,,,,,,,,,,,,,,,,,,,,,,,,,72,2.7848,1,0,33,33,3,1,8,×,9,8 × 9,congruent,smallerFirst,1,2,72,,,,,,,,
,,,,,,,,,,,,,,,676,2022-04-07_09h20.58.098,multiplicationStroop,2021.2.3,Win32,60.10699044,,,,,,,,,,,,,,,,,,,,,,,,,,,,,,,,,12,1.4153,1,0,34,34,5,1,2,×,6,2 × 6,congruent,smallerFirst,1,2,12,,,,,,,,
,,,,,,,,,,,,,,,676,2022-04-07_09h20.58.098,multiplicationStroop,2021.2.3,Win32,60.10699044,,,,,,,,,,,,,,,,,,,,,,,,,,,,,,,,,21,1.8642,1,0,35,35,2,1,3,×,7,3 × 7,congruent,smallerFirst,1,2,21,,,,,,,,
,,,,,,,,,,,,,,,676,2022-04-07_09h20.58.098,multiplicationStroop,2021.2.3,Win32,60.10699044,,,,,,,,,,,,,,,,,,,,,,,,,,,,,,,,,,,,,,,,,,,,,,,,,,0,4,4,3,1,stimulusFile/mult_blk4_congruent.xlsx,,
,,,,,,,,,,,,,,,676,2022-04-07_09h20.58.098,multiplicationStroop,2021.2.3,Win32,60.10699044,,,,,,,,,,,,,,,,,,,,,,,,,,,,,,,space,0.9015,21,2.4597,0,0,0,0,9,1,3,×,8,3 × 8,incongruent,smallerFirst,2,1,24,,,,,,,,
,,,,,,,,,,,,,,,676,2022-04-07_09h20.58.098,multiplicationStroop,2021.2.3,Win32,60.10699044,,,,,,,,,,,,,,,,,,,,,,,,,,,,,,,,,36,3.7641,1,0,1,1,15,1,9,×,4,9 × 4,incongruent,largerFirst,1,2,36,,,,,,,,
,,,,,,,,,,,,,,,676,2022-04-07_09h20.58.098,multiplicationStroop,2021.2.3,Win32,60.10699044,,,,,,,,,,,,,,,,,,,,,,,,,,,,,,,,,21,1.3851,1,0,2,2,26,1,7,×,3,7 × 3,incongruent,largerFirst,1,2,21,,,,,,,,
,,,,,,,,,,,,,,,676,2022-04-07_09h20.58.098,multiplicationStroop,2021.2.3,Win32,60.10699044,,,,,,,,,,,,,,,,,,,,,,,,,,,,,,,,,27,1.9644,1,0,3,3,18,1,9,×,3,9 × 3,incongruent,largerFirst,1,2,27,,,,,,,,
,,,,,,,,,,,,,,,676,2022-04-07_09h20.58.098,multiplicationStroop,2021.2.3,Win32,60.10699044,,,,,,,,,,,,,,,,,,,,,,,,,,,,,,,,,64,3.3154,1,0,4,4,34,1,8,×,8,8 × 8,incongruent,tie,1,2,64,,,,,,,,
,,,,,,,,,,,,,,,676,2022-04-07_09h20.58.098,multiplicationStroop,2021.2.3,Win32,60.10699044,,,,,,,,,,,,,,,,,,,,,,,,,,,,,,,,,9,1.6409,1,0,5,5,29,1,3,×,3,3 × 3,incongruent,tie,1,2,9,,,,,,,,
,,,,,,,,,,,,,,,676,2022-04-07_09h20.58.098,multiplicationStroop,2021.2.3,Win32,60.10699044,,,,,,,,,,,,,,,,,,,,,,,,,,,,,,,,,72,2.6959,1,0,6,6,0,1,8,×,9,8 × 9,incongruent,smallerFirst,2,1,72,,,,,,,,
,,,,,,,,,,,,,,,676,2022-04-07_09h20.58.098,multiplicationStroop,2021.2.3,Win32,60.10699044,,,,,,,,,,,,,,,,,,,,,,,,,,,,,,,,,36,2.7312,0,0,7,7,7,1,4,×,8,4 × 8,incongruent,smallerFirst,2,1,32,,,,,,,,
,,,,,,,,,,,,,,,676,2022-04-07_09h20.58.098,multiplicationStroop,2021.2.3,Win32,60.10699044,,,,,,,,,,,,,,,,,,,,,,,,,,,,,,,,,24,1.6312,1,0,8,8,20,1,6,×,4,6 × 4,incongruent,largerFirst,1,2,24,,,,,,,,
,,,,,,,,,,,,,,,676,2022-04-07_09h20.58.098,multiplicationStroop,2021.2.3,Win32,60.10699044,,,,,,,,,,,,,,,,,,,,,,,,,,,,,,,,,54,2.3652,1,0,9,9,6,1,6,×,9,6 × 9,incongruent,smallerFirst,2,1,54,,,,,,,,
,,,,,,,,,,,,,,,676,2022-04-07_09h20.58.098,multiplicationStroop,2021.2.3,Win32,60.10699044,,,,,,,,,,,,,,,,,,,,,,,,,,,,,,,,,45,1.898,1,0,10,10,22,1,9,×,5,9 × 5,incongruent,largerFirst,1,2,45,,,,,,,,
,,,,,,,,,,,,,,,676,2022-04-07_09h20.58.098,multiplicationStroop,2021.2.3,Win32,60.10699044,,,,,,,,,,,,,,,,,,,,,,,,,,,,,,,,,48,4.014,1,0,11,11,1,1,6,×,8,6 × 8,incongruent,smallerFirst,2,1,48,,,,,,,,
,,,,,,,,,,,,,,,676,2022-04-07_09h20.58.098,multiplicationStroop,2021.2.3,Win32,60.10699044,,,,,,,,,,,,,,,,,,,,,,,,,,,,,,,,,16,2.3178,1,0,12,12,23,1,8,×,2,8 × 2,incongruent,largerFirst,1,2,16,,,,,,,,
,,,,,,,,,,,,,,,676,2022-04-07_09h20.58.098,multiplicationStroop,2021.2.3,Win32,60.10699044,,,,,,,,,,,,,,,,,,,,,,,,,,,,,,,,,18,2.2811,1,0,13,13,8,1,3,×,6,3 × 6,incongruent,smallerFirst,2,1,18,,,,,,,,
,,,,,,,,,,,,,,,676,2022-04-07_09h20.58.098,multiplicationStroop,2021.2.3,Win32,60.10699044,,,,,,,,,,,,,,,,,,,,,,,,,,,,,,,,,49,3.0816,1,0,14,14,33,1,7,×,7,7 × 7,incongruent,tie,1,2,49,,,,,,,,
,,,,,,,,,,,,,,,676,2022-04-07_09h20.58.098,multiplicationStroop,2021.2.3,Win32,60.10699044,,,,,,,,,,,,,,,,,,,,,,,,,,,,,,,,,25,2.1344,1,0,15,15,31,1,5,×,5,5 × 5,incongruent,tie,1,2,25,,,,,,,,
,,,,,,,,,,,,,,,676,2022-04-07_09h20.58.098,multiplicationStroop,2021.2.3,Win32,60.10699044,,,,,,,,,,,,,,,,,,,,,,,,,,,,,,,,,63,2.8987,1,0,16,16,3,1,7,×,9,7 × 9,incongruent,smallerFirst,2,1,63,,,,,,,,
,,,,,,,,,,,,,,,676,2022-04-07_09h20.58.098,multiplicationStroop,2021.2.3,Win32,60.10699044,,,,,,,,,,,,,,,,,,,,,,,,,,,,,,,,,12,1.351,1,0,17,17,19,1,6,×,2,6 × 2,incongruent,largerFirst,1,2,12,,,,,,,,
,,,,,,,,,,,,,,,676,2022-04-07_09h20.58.098,multiplicationStroop,2021.2.3,Win32,60.10699044,,,,,,,,,,,,,,,,,,,,,,,,,,,,,,,,,81,1.6153,1,0,18,18,35,1,9,×,9,9 × 9,incongruent,tie,1,2,81,,,,,,,,
,,,,,,,,,,,,,,,676,2022-04-07_09h20.58.098,multiplicationStroop,2021.2.3,Win32,60.10699044,,,,,,,,,,,,,,,,,,,,,,,,,,,,,,,,,4,1.5816,1,0,19,19,28,1,2,×,2,2 × 2,incongruent,tie,1,2,4,,,,,,,,
,,,,,,,,,,,,,,,676,2022-04-07_09h20.58.098,multiplicationStroop,2021.2.3,Win32,60.10699044,,,,,,,,,,,,,,,,,,,,,,,,,,,,,,,,,12,1.9152,1,0,20,20,5,1,3,×,4,3 × 4,incongruent,smallerFirst,2,1,12,,,,,,,,
,,,,,,,,,,,,,,,676,2022-04-07_09h20.58.098,multiplicationStroop,2021.2.3,Win32,60.10699044,,,,,,,,,,,,,,,,,,,,,,,,,,,,,,,,,35,2.4654,1,0,21,21,12,1,5,×,7,5 × 7,incongruent,smallerFirst,2,1,35,,,,,,,,
,,,,,,,,,,,,,,,676,2022-04-07_09h20.58.098,multiplicationStroop,2021.2.3,Win32,60.10699044,,,,,,,,,,,,,,,,,,,,,,,,,,,,,,,,,8,1.6824,1,0,22,22,24,1,4,×,2,4 × 2,incongruent,largerFirst,1,2,8,,,,,,,,
,,,,,,,,,,,,,,,676,2022-04-07_09h20.58.098,multiplicationStroop,2021.2.3,Win32,60.10699044,,,,,,,,,,,,,,,,,,,,,,,,,,,,,,,,,18,2.931,1,0,23,23,2,1,2,×,9,2 × 9,incongruent,smallerFirst,2,1,18,,,,,,,,
,,,,,,,,,,,,,,,676,2022-04-07_09h20.58.098,multiplicationStroop,2021.2.3,Win32,60.10699044,,,,,,,,,,,,,,,,,,,,,,,,,,,,,,,,,30,2.2307,1,0,24,24,25,1,6,×,5,6 × 5,incongruent,largerFirst,1,2,30,,,,,,,,
,,,,,,,,,,,,,,,676,2022-04-07_09h20.58.098,multiplicationStroop,2021.2.3,Win32,60.10699044,,,,,,,,,,,,,,,,,,,,,,,,,,,,,,,,,6,1.8984,1,0,25,25,11,1,2,×,3,2 × 3,incongruent,smallerFirst,2,1,6,,,,,,,,
,,,,,,,,,,,,,,,676,2022-04-07_09h20.58.098,multiplicationStroop,2021.2.3,Win32,60.10699044,,,,,,,,,,,,,,,,,,,,,,,,,,,,,,,,,16,2.4318,1,0,26,26,30,1,4,×,4,4 × 4,incongruent,tie,1,2,16,,,,,,,,
,,,,,,,,,,,,,,,676,2022-04-07_09h20.58.098,multiplicationStroop,2021.2.3,Win32,60.10699044,,,,,,,,,,,,,,,,,,,,,,,,,,,,,,,,,14,1.5006,1,0,27,27,4,1,2,×,7,2 × 7,incongruent,smallerFirst,2,1,14,,,,,,,,
,,,,,,,,,,,,,,,676,2022-04-07_09h20.58.098,multiplicationStroop,2021.2.3,Win32,60.10699044,,,,,,,,,,,,,,,,,,,,,,,,,,,,,,,,,15,1.866,1,0,28,28,10,1,3,×,5,3 × 5,incongruent,smallerFirst,2,1,15,,,,,,,,
,,,,,,,,,,,,,,,676,2022-04-07_09h20.58.098,multiplicationStroop,2021.2.3,Win32,60.10699044,,,,,,,,,,,,,,,,,,,,,,,,,,,,,,,,,10,1.5811,1,0,29,29,21,1,5,×,2,5 × 2,incongruent,largerFirst,1,2,10,,,,,,,,
,,,,,,,,,,,,,,,676,2022-04-07_09h20.58.098,multiplicationStroop,2021.2.3,Win32,60.10699044,,,,,,,,,,,,,,,,,,,,,,,,,,,,,,,,,20,2.9816,1,0,30,30,27,1,5,×,4,5 × 4,incongruent,largerFirst,1,2,20,,,,,,,,
,,,,,,,,,,,,,,,676,2022-04-07_09h20.58.098,multiplicationStroop,2021.2.3,Win32,60.10699044,,,,,,,,,,,,,,,,,,,,,,,,,,,,,,,,,42,2.1844,1,0,31,31,17,1,7,×,6,7 × 6,incongruent,largerFirst,1,2,42,,,,,,,,
,,,,,,,,,,,,,,,676,2022-04-07_09h20.58.098,multiplicationStroop,2021.2.3,Win32,60.10699044,,,,,,,,,,,,,,,,,,,,,,,,,,,,,,,,,36,2.0814,1,0,32,32,32,1,6,×,6,6 × 6,incongruent,tie,1,2,36,,,,,,,,
,,,,,,,,,,,,,,,676,2022-04-07_09h20.58.098,multiplicationStroop,2021.2.3,Win32,60.10699044,,,,,,,,,,,,,,,,,,,,,,,,,,,,,,,,,40,2.5815,1,0,33,33,13,1,5,×,8,5 × 8,incongruent,smallerFirst,2,1,40,,,,,,,,
,,,,,,,,,,,,,,,676,2022-04-07_09h20.58.098,multiplicationStroop,2021.2.3,Win32,60.10699044,,,,,,,,,,,,,,,,,,,,,,,,,,,,,,,,,56,1.9481,1,0,34,34,14,1,8,×,7,8 × 7,incongruent,largerFirst,1,2,56,,,,,,,,
,,,,,,,,,,,,,,,676,2022-04-07_09h20.58.098,multiplicationStroop,2021.2.3,Win32,60.10699044,,,,,,,,,,,,,,,,,,,,,,,,,,,,,,,,,28,2.1985,1,0,35,35,16,1,7,×,4,7 × 4,incongruent,largerFirst,1,2,28,,,,,,,,
,,,,,,,,,,,,,,,676,2022-04-07_09h20.58.098,multiplicationStroop,2021.2.3,Win32,60.10699044,,,,,,,,,,,,,,,,,,,,,,,,,,,,,,,,,,,,,,,,,,,,,,,,,,0,5,5,5,1,stimulusFile/mult_blk6_INcongruent.xlsx,,
,,,,,,,,,,,,,,,676,2022-04-07_09h20.58.098,multiplicationStroop,2021.2.3,Win32,60.10699044,,,,,,,,,,,,,,,,,,,,,,,,,,,,,,,,,,,,,,,,,,,,,,,,,,,,,,,,space,6.6563