welcomeKey_resp.keys,welcomeKey_resp.rt,X Scale,Y Scale,rt_resp_4.keys,rt_resp_4.corr,rt_resp_4.rt,speedtest_2.thisRepN,speedtest_2.thisTrialN,speedtest_2.thisN,speedtest_2.thisIndex,speedtest_2.ran,numberSc,posX,positionLayout,participant,date,expName,psychopyVersion,OS,frameRate,ct_instrresp.keys,ct_instrresp.rt,key_resp_2.keys,key_resp_2.rt,ct_keyResp.keys,ct_keyResp.corr,ct_keyResp.rt,trials.thisRepN,trials.thisTrialN,trials.thisN,trials.thisIndex,trials.ran,leftNo,rightNo,displayProblem,numDistance,leftNo_size,rightNo_size,Dims,keyAnswer,TS_Loop.thisRepN,TS_Loop.thisTrialN,TS_Loop.thisN,TS_Loop.thisIndex,TS_Loop.ran,Condition,ActionInst,instrImage,mltptaskInst_resp.keys,mltptaskInst_resp.rt,continue_resp_2.keys,continue_resp_2.rt,multp_Answer,multi_RT,multiplyCorr,LoopingMultiply.thisRepN,LoopingMultiply.thisTrialN,LoopingMultiply.thisN,LoopingMultiply.thisIndex,LoopingMultiply.ran,factor1,multiplySign,factor2,multliplyProblem,physicalSize,orderOperand,sizeF1,sizeF2,mult_answer,trials_stroop.thisRepN,trials_stroop.thisTrialN,trials_stroop.thisN,trials_stroop.thisIndex,trials_stroop.ran,multiplicationFile,esckey_resp_2.keys,esckey_resp_2.rt
y,6.1482,44.6,45.2,right,1,3.0164,0,0,0,8,1,1,200,right,679,2022-02-09_23h46.51.020,multiplicationStroop,2021.2.3,Win32,59.97720866,,,,,,,,,,,,,,,,,,,,,,,,,,,,,,,,,,,,,,,,,,,,,,,,,,,,,,,,,
,,,,right,1,0.5549,0,1,1,11,1,4,200,right,679,2022-02-09_23h46.51.020,multiplicationStroop,2021.2.3,Win32,59.97720866,,,,,,,,,,,,,,,,,,,,,,,,,,,,,,,,,,,,,,,,,,,,,,,,,,,,,,,,,
,,,,right,1,0.2898,0,2,2,9,1,2,200,right,679,2022-02-09_23h46.51.020,multiplicationStroop,2021.2.3,Win32,59.97720866,,,,,,,,,,,,,,,,,,,,,,,,,,,,,,,,,,,,,,,,,,,,,,,,,,,,,,,,,
,,,,right,1,0.3352,0,3,3,15,1,9,200,right,679,2022-02-09_23h46.51.020,multiplicationStroop,2021.2.3,Win32,59.97720866,,,,,,,,,,,,,,,,,,,,,,,,,,,,,,,,,,,,,,,,,,,,,,,,,,,,,,,,,
,,,,right,1,0.3182,0,4,4,12,1,6,200,right,679,2022-02-09_23h46.51.020,multiplicationStroop,2021.2.3,Win32,59.97720866,,,,,,,,,,,,,,,,,,,,,,,,,,,,,,,,,,,,,,,,,,,,,,,,,,,,,,,,,
,,,,left,1,0.3224,0,5,5,2,1,3,-200,left,679,2022-02-09_23h46.51.020,multiplicationStroop,2021.2.3,Win32,59.97720866,,,,,,,,,,,,,,,,,,,,,,,,,,,,,,,,,,,,,,,,,,,,,,,,,,,,,,,,,
,,,,right,1,0.2668,0,6,6,14,1,8,200,right,679,2022-02-09_23h46.51.020,multiplicationStroop,2021.2.3,Win32,59.97720866,,,,,,,,,,,,,,,,,,,,,,,,,,,,,,,,,,,,,,,,,,,,,,,,,,,,,,,,,
,,,,right,1,0.3385,0,7,7,13,1,7,200,right,679,2022-02-09_23h46.51.020,multiplicationStroop,2021.2.3,Win32,59.97720866,,,,,,,,,,,,,,,,,,,,,,,,,,,,,,,,,,,,,,,,,,,,,,,,,,,,,,,,,
,,,,left,1,0.359,0,8,8,1,1,2,-200,left,679,2022-02-09_23h46.51.020,multiplicationStroop,2021.2.3,Win32,59.97720866,,,,,,,,,,,,,,,,,,,,,,,,,,,,,,,,,,,,,,,,,,,,,,,,,,,,,,,,,
,,,,right,1,0.26,0,9,9,10,1,3,200,right,679,2022-02-09_23h46.51.020,multiplicationStroop,2021.2.3,Win32,59.97720866,,,,,,,,,,,,,,,,,,,,,,,,,,,,,,,,,,,,,,,,,,,,,,,,,,,,,,,,,
,,,,left,1,0.2724,0,10,10,4,1,6,-200,left,679,2022-02-09_23h46.51.020,multiplicationStroop,2021.2.3,Win32,59.97720866,,,,,,,,,,,,,,,,,,,,,,,,,,,,,,,,,,,,,,,,,,,,,,,,,,,,,,,,,
,,,,left,1,0.354,0,11,11,5,1,7,-200,left,679,2022-02-09_23h46.51.020,multiplicationStroop,2021.2.3,Win32,59.97720866,,,,,,,,,,,,,,,,,,,,,,,,,,,,,,,,,,,,,,,,,,,,,,,,,,,,,,,,,
,,,,left,1,0.2814,0,12,12,6,1,8,-200,left,679,2022-02-09_23h46.51.020,multiplicationStroop,2021.2.3,Win32,59.97720866,,,,,,,,,,,,,,,,,,,,,,,,,,,,,,,,,,,,,,,,,,,,,,,,,,,,,,,,,
,,,,left,1,0.2693,0,13,13,0,1,1,-200,left,679,2022-02-09_23h46.51.020,multiplicationStroop,2021.2.3,Win32,59.97720866,,,,,,,,,,,,,,,,,,,,,,,,,,,,,,,,,,,,,,,,,,,,,,,,,,,,,,,,,
,,,,left,1,0.3103,0,14,14,7,1,9,-200,left,679,2022-02-09_23h46.51.020,multiplicationStroop,2021.2.3,Win32,59.97720866,,,,,,,,,,,,,,,,,,,,,,,,,,,,,,,,,,,,,,,,,,,,,,,,,,,,,,,,,
,,,,left,1,0.2996,0,15,15,3,1,4,-200,left,679,2022-02-09_23h46.51.020,multiplicationStroop,2021.2.3,Win32,59.97720866,,,,,,,,,,,,,,,,,,,,,,,,,,,,,,,,,,,,,,,,,,,,,,,,,,,,,,,,,
,,,,left,1,0.2909,1,0,16,7,1,9,-200,left,679,2022-02-09_23h46.51.020,multiplicationStroop,2021.2.3,Win32,59.97720866,,,,,,,,,,,,,,,,,,,,,,,,,,,,,,,,,,,,,,,,,,,,,,,,,,,,,,,,,
,,,,right,1,0.4204,1,1,17,11,1,4,200,right,679,2022-02-09_23h46.51.020,multiplicationStroop,2021.2.3,Win32,59.97720866,,,,,,,,,,,,,,,,,,,,,,,,,,,,,,,,,,,,,,,,,,,,,,,,,,,,,,,,,
,,,,left,1,0.2838,1,2,18,4,1,6,-200,left,679,2022-02-09_23h46.51.020,multiplicationStroop,2021.2.3,Win32,59.97720866,,,,,,,,,,,,,,,,,,,,,,,,,,,,,,,,,,,,,,,,,,,,,,,,,,,,,,,,,
,,,,left,1,0.4641,1,3,19,2,1,3,-200,left,679,2022-02-09_23h46.51.020,multiplicationStroop,2021.2.3,Win32,59.97720866,,,,,,,,,,,,,,,,,,,,,,,,,,,,,,,,,,,,,,,,,,,,,,,,,,,,,,,,,
,,,,right,1,0.3209,1,4,20,12,1,6,200,right,679,2022-02-09_23h46.51.020,multiplicationStroop,2021.2.3,Win32,59.97720866,,,,,,,,,,,,,,,,,,,,,,,,,,,,,,,,,,,,,,,,,,,,,,,,,,,,,,,,,
,,,,left,1,0.0682,1,5,21,5,1,7,-200,left,679,2022-02-09_23h46.51.020,multiplicationStroop,2021.2.3,Win32,59.97720866,,,,,,,,,,,,,,,,,,,,,,,,,,,,,,,,,,,,,,,,,,,,,,,,,,,,,,,,,
,,,,left,1,0.4003,1,6,22,6,1,8,-200,left,679,2022-02-09_23h46.51.020,multiplicationStroop,2021.2.3,Win32,59.97720866,,,,,,,,,,,,,,,,,,,,,,,,,,,,,,,,,,,,,,,,,,,,,,,,,,,,,,,,,
,,,,left,1,0.4045,1,7,23,0,1,1,-200,left,679,2022-02-09_23h46.51.020,multiplicationStroop,2021.2.3,Win32,59.97720866,,,,,,,,,,,,,,,,,,,,,,,,,,,,,,,,,,,,,,,,,,,,,,,,,,,,,,,,,
,,,,right,1,0.3201,1,8,24,14,1,8,200,right,679,2022-02-09_23h46.51.020,multiplicationStroop,2021.2.3,Win32,59.97720866,,,,,,,,,,,,,,,,,,,,,,,,,,,,,,,,,,,,,,,,,,,,,,,,,,,,,,,,,
,,,,left,0,0.0501,1,9,25,13,1,7,200,right,679,2022-02-09_23h46.51.020,multiplicationStroop,2021.2.3,Win32,59.97720866,,,,,,,,,,,,,,,,,,,,,,,,,,,,,,,,,,,,,,,,,,,,,,,,,,,,,,,,,
,,,,left,1,0.8216,1,10,26,3,1,4,-200,left,679,2022-02-09_23h46.51.020,multiplicationStroop,2021.2.3,Win32,59.97720866,,,,,,,,,,,,,,,,,,,,,,,,,,,,,,,,,,,,,,,,,,,,,,,,,,,,,,,,,
,,,,right,1,0.368,1,11,27,15,1,9,200,right,679,2022-02-09_23h46.51.020,multiplicationStroop,2021.2.3,Win32,59.97720866,,,,,,,,,,,,,,,,,,,,,,,,,,,,,,,,,,,,,,,,,,,,,,,,,,,,,,,,,
,,,,right,1,0.3392,1,12,28,9,1,2,200,right,679,2022-02-09_23h46.51.020,multiplicationStroop,2021.2.3,Win32,59.97720866,,,,,,,,,,,,,,,,,,,,,,,,,,,,,,,,,,,,,,,,,,,,,,,,,,,,,,,,,
,,,,right,1,0.2971,1,13,29,10,1,3,200,right,679,2022-02-09_23h46.51.020,multiplicationStroop,2021.2.3,Win32,59.97720866,,,,,,,,,,,,,,,,,,,,,,,,,,,,,,,,,,,,,,,,,,,,,,,,,,,,,,,,,
,,,,left,1,0.3827,1,14,30,1,1,2,-200,left,679,2022-02-09_23h46.51.020,multiplicationStroop,2021.2.3,Win32,59.97720866,,,,,,,,,,,,,,,,,,,,,,,,,,,,,,,,,,,,,,,,,,,,,,,,,,,,,,,,,
,,,,right,1,0.2644,1,15,31,8,1,1,200,right,679,2022-02-09_23h46.51.020,multiplicationStroop,2021.2.3,Win32,59.97720866,,,,,,,,,,,,,,,,,,,,,,,,,,,,,,,,,,,,,,,,,,,,,,,,,,,,,,,,,
,,,,right,1,0.3821,2,0,32,14,1,8,200,right,679,2022-02-09_23h46.51.020,multiplicationStroop,2021.2.3,Win32,59.97720866,,,,,,,,,,,,,,,,,,,,,,,,,,,,,,,,,,,,,,,,,,,,,,,,,,,,,,,,,
,,,,left,1,0.3343,2,1,33,4,1,6,-200,left,679,2022-02-09_23h46.51.020,multiplicationStroop,2021.2.3,Win32,59.97720866,,,,,,,,,,,,,,,,,,,,,,,,,,,,,,,,,,,,,,,,,,,,,,,,,,,,,,,,,
,,,,right,1,0.2739,2,2,34,8,1,1,200,right,679,2022-02-09_23h46.51.020,multiplicationStroop,2021.2.3,Win32,59.97720866,,,,,,,,,,,,,,,,,,,,,,,,,,,,,,,,,,,,,,,,,,,,,,,,,,,,,,,,,
,,,,right,1,0.3539,2,3,35,10,1,3,200,right,679,2022-02-09_23h46.51.020,multiplicationStroop,2021.2.3,Win32,59.97720866,,,,,,,,,,,,,,,,,,,,,,,,,,,,,,,,,,,,,,,,,,,,,,,,,,,,,,,,,
,,,,right,1,0.2972,2,4,36,11,1,4,200,right,679,2022-02-09_23h46.51.020,multiplicationStroop,2021.2.3,Win32,59.97720866,,,,,,,,,,,,,,,,,,,,,,,,,,,,,,,,,,,,,,,,,,,,,,,,,,,,,,,,,
,,,,right,0,0.2761,2,5,37,2,1,3,-200,left,679,2022-02-09_23h46.51.020,multiplicationStroop,2021.2.3,Win32,59.97720866,,,,,,,,,,,,,,,,,,,,,,,,,,,,,,,,,,,,,,,,,,,,,,,,,,,,,,,,,
,,,,right,1,0.4238,2,6,38,9,1,2,200,right,679,2022-02-09_23h46.51.020,multiplicationStroop,2021.2.3,Win32,59.97720866,,,,,,,,,,,,,,,,,,,,,,,,,,,,,,,,,,,,,,,,,,,,,,,,,,,,,,,,,
,,,,left,1,0.3838,2,7,39,5,1,7,-200,left,679,2022-02-09_23h46.51.020,multiplicationStroop,2021.2.3,Win32,59.97720866,,,,,,,,,,,,,,,,,,,,,,,,,,,,,,,,,,,,,,,,,,,,,,,,,,,,,,,,,
,,,,right,1,0.2854,2,8,40,12,1,6,200,right,679,2022-02-09_23h46.51.020,multiplicationStroop,2021.2.3,Win32,59.97720866,,,,,,,,,,,,,,,,,,,,,,,,,,,,,,,,,,,,,,,,,,,,,,,,,,,,,,,,,
,,,,left,1,0.303,2,9,41,6,1,8,-200,left,679,2022-02-09_23h46.51.020,multiplicationStroop,2021.2.3,Win32,59.97720866,,,,,,,,,,,,,,,,,,,,,,,,,,,,,,,,,,,,,,,,,,,,,,,,,,,,,,,,,
,,,,right,1,0.3068,2,10,42,13,1,7,200,right,679,2022-02-09_23h46.51.020,multiplicationStroop,2021.2.3,Win32,59.97720866,,,,,,,,,,,,,,,,,,,,,,,,,,,,,,,,,,,,,,,,,,,,,,,,,,,,,,,,,
,,,,left,1,0.3126,2,11,43,0,1,1,-200,left,679,2022-02-09_23h46.51.020,multiplicationStroop,2021.2.3,Win32,59.97720866,,,,,,,,,,,,,,,,,,,,,,,,,,,,,,,,,,,,,,,,,,,,,,,,,,,,,,,,,
,,,,left,1,0.3837,2,12,44,1,1,2,-200,left,679,2022-02-09_23h46.51.020,multiplicationStroop,2021.2.3,Win32,59.97720866,,,,,,,,,,,,,,,,,,,,,,,,,,,,,,,,,,,,,,,,,,,,,,,,,,,,,,,,,
,,,,left,1,0.4009,2,13,45,7,1,9,-200,left,679,2022-02-09_23h46.51.020,multiplicationStroop,2021.2.3,Win32,59.97720866,,,,,,,,,,,,,,,,,,,,,,,,,,,,,,,,,,,,,,,,,,,,,,,,,,,,,,,,,
,,,,left,1,0.2838,2,14,46,3,1,4,-200,left,679,2022-02-09_23h46.51.020,multiplicationStroop,2021.2.3,Win32,59.97720866,,,,,,,,,,,,,,,,,,,,,,,,,,,,,,,,,,,,,,,,,,,,,,,,,,,,,,,,,
,,,,right,1,0.5008,2,15,47,15,1,9,200,right,679,2022-02-09_23h46.51.020,multiplicationStroop,2021.2.3,Win32,59.97720866,,,,,,,,,,,,,,,,,,,,,,,,,,,,,,,,,,,,,,,,,,,,,,,,,,,,,,,,,
,,,,right,1,0.3508,3,0,48,9,1,2,200,right,679,2022-02-09_23h46.51.020,multiplicationStroop,2021.2.3,Win32,59.97720866,,,,,,,,,,,,,,,,,,,,,,,,,,,,,,,,,,,,,,,,,,,,,,,,,,,,,,,,,
,,,,right,1,0.3215,3,1,49,10,1,3,200,right,679,2022-02-09_23h46.51.020,multiplicationStroop,2021.2.3,Win32,59.97720866,,,,,,,,,,,,,,,,,,,,,,,,,,,,,,,,,,,,,,,,,,,,,,,,,,,,,,,,,
,,,,right,1,0.2786,3,2,50,11,1,4,200,right,679,2022-02-09_23h46.51.020,multiplicationStroop,2021.2.3,Win32,59.97720866,,,,,,,,,,,,,,,,,,,,,,,,,,,,,,,,,,,,,,,,,,,,,,,,,,,,,,,,,
,,,,right,1,0.2945,3,3,51,14,1,8,200,right,679,2022-02-09_23h46.51.020,multiplicationStroop,2021.2.3,Win32,59.97720866,,,,,,,,,,,,,,,,,,,,,,,,,,,,,,,,,,,,,,,,,,,,,,,,,,,,,,,,,
,,,,right,1,0.3172,3,4,52,13,1,7,200,right,679,2022-02-09_23h46.51.020,multiplicationStroop,2021.2.3,Win32,59.97720866,,,,,,,,,,,,,,,,,,,,,,,,,,,,,,,,,,,,,,,,,,,,,,,,,,,,,,,,,
,,,,right,1,0.3165,3,5,53,12,1,6,200,right,679,2022-02-09_23h46.51.020,multiplicationStroop,2021.2.3,Win32,59.97720866,,,,,,,,,,,,,,,,,,,,,,,,,,,,,,,,,,,,,,,,,,,,,,,,,,,,,,,,,
,,,,left,1,0.3799,3,6,54,7,1,9,-200,left,679,2022-02-09_23h46.51.020,multiplicationStroop,2021.2.3,Win32,59.97720866,,,,,,,,,,,,,,,,,,,,,,,,,,,,,,,,,,,,,,,,,,,,,,,,,,,,,,,,,
,,,,left,1,0.3797,3,7,55,3,1,4,-200,left,679,2022-02-09_23h46.51.020,multiplicationStroop,2021.2.3,Win32,59.97720866,,,,,,,,,,,,,,,,,,,,,,,,,,,,,,,,,,,,,,,,,,,,,,,,,,,,,,,,,
,,,,left,1,0.3008,3,8,56,6,1,8,-200,left,679,2022-02-09_23h46.51.020,multiplicationStroop,2021.2.3,Win32,59.97720866,,,,,,,,,,,,,,,,,,,,,,,,,,,,,,,,,,,,,,,,,,,,,,,,,,,,,,,,,
,,,,left,1,0.2176,3,9,57,5,1,7,-200,left,679,2022-02-09_23h46.51.020,multiplicationStroop,2021.2.3,Win32,59.97720866,,,,,,,,,,,,,,,,,,,,,,,,,,,,,,,,,,,,,,,,,,,,,,,,,,,,,,,,,
,,,,right,1,0.4004,3,10,58,15,1,9,200,right,679,2022-02-09_23h46.51.020,multiplicationStroop,2021.2.3,Win32,59.97720866,,,,,,,,,,,,,,,,,,,,,,,,,,,,,,,,,,,,,,,,,,,,,,,,,,,,,,,,,
,,,,left,1,0.2575,3,11,59,0,1,1,-200,left,679,2022-02-09_23h46.51.020,multiplicationStroop,2021.2.3,Win32,59.97720866,,,,,,,,,,,,,,,,,,,,,,,,,,,,,,,,,,,,,,,,,,,,,,,,,,,,,,,,,
,,,,left,1,0.3704,3,12,60,1,1,2,-200,left,679,2022-02-09_23h46.51.020,multiplicationStroop,2021.2.3,Win32,59.97720866,,,,,,,,,,,,,,,,,,,,,,,,,,,,,,,,,,,,,,,,,,,,,,,,,,,,,,,,,
,,,,left,1,0.087,3,13,61,4,1,6,-200,left,679,2022-02-09_23h46.51.020,multiplicationStroop,2021.2.3,Win32,59.97720866,,,,,,,,,,,,,,,,,,,,,,,,,,,,,,,,,,,,,,,,,,,,,,,,,,,,,,,,,
,,,,right,1,0.3861,3,14,62,8,1,1,200,right,679,2022-02-09_23h46.51.020,multiplicationStroop,2021.2.3,Win32,59.97720866,,,,,,,,,,,,,,,,,,,,,,,,,,,,,,,,,,,,,,,,,,,,,,,,,,,,,,,,,
,,,,left,1,0.1578,3,15,63,2,1,3,-200,left,679,2022-02-09_23h46.51.020,multiplicationStroop,2021.2.3,Win32,59.97720866,,,,,,,,,,,,,,,,,,,,,,,,,,,,,,,,,,,,,,,,,,,,,,,,,,,,,,,,,
,,,,,,,,,,,,,,,679,2022-02-09_23h46.51.020,multiplicationStroop,2021.2.3,Win32,59.97720866,space,11.8688,space,11.4578,left,1,0.5971,0,0,0,34,1,6,8,6 | 8,2,1.9756,1.4111,incongruent,left,,,,,,stimulusFile/physical.xlsx,,,,,,,,,,,,,,,,,,,,,,,,,,,,,,,
,,,,,,,,,,,,,,,679,2022-02-09_23h46.51.020,multiplicationStroop,2021.2.3,Win32,59.97720866,,,,,left,0,0.5067,0,1,1,36,1,3,1,3 | 1,2,1.4111,1.9756,incongruent,right,,,,,,stimulusFile/physical.xlsx,,,,,,,,,,,,,,,,,,,,,,,,,,,,,,,
,,,,,,,,,,,,,,,679,2022-02-09_23h46.51.020,multiplicationStroop,2021.2.3,Win32,59.97720866,,,,,left,1,0.5106,0,2,2,33,1,2,4,2 | 4,2,1.9756,1.4111,incongruent,left,,,,,,stimulusFile/physical.xlsx,,,,,,,,,,,,,,,,,,,,,,,,,,,,,,,
,,,,,,,,,,,,,,,679,2022-02-09_23h46.51.020,multiplicationStroop,2021.2.3,Win32,59.97720866,,,,,left,1,0.5046,0,3,3,54,1,7,7,7 | 7,0,1.9756,1.4111,neutral,left,,,,,,stimulusFile/physical.xlsx,,,,,,,,,,,,,,,,,,,,,,,,,,,,,,,
,,,,,,,,,,,,,,,679,2022-02-09_23h46.51.020,multiplicationStroop,2021.2.3,Win32,59.97720866,,,,,right,0,0.4705,0,4,4,69,1,7,7,7 | 7,0,1.4111,1.9756,neutral,left,,,,,,stimulusFile/physical.xlsx,,,,,,,,,,,,,,,,,,,,,,,,,,,,,,,
,,,,,,,,,,,,,,,679,2022-02-09_23h46.51.020,multiplicationStroop,2021.2.3,Win32,59.97720866,,,,,right,1,0.8088,0,5,5,44,1,6,1,6 | 1,5,1.4111,1.9756,incongruent,right,,,,,,stimulusFile/physical.xlsx,,,,,,,,,,,,,,,,,,,,,,,,,,,,,,,
,,,,,,,,,,,,,,,679,2022-02-09_23h46.51.020,multiplicationStroop,2021.2.3,Win32,59.97720866,,,,,left,1,0.5005,0,6,6,42,1,3,8,3 | 8,5,1.9756,1.4111,incongruent,left,,,,,,stimulusFile/physical.xlsx,,,,,,,,,,,,,,,,,,,,,,,,,,,,,,,
,,,,,,,,,,,,,,,679,2022-02-09_23h46.51.020,multiplicationStroop,2021.2.3,Win32,59.97720866,,,,,left,1,0.7003,0,7,7,25,1,3,4,3 | 4,1,1.9756,1.4111,incongruent,left,,,,,,stimulusFile/physical.xlsx,,,,,,,,,,,,,,,,,,,,,,,,,,,,,,,
,,,,,,,,,,,,,,,679,2022-02-09_23h46.51.020,multiplicationStroop,2021.2.3,Win32,59.97720866,,,,,right,1,0.511,0,8,8,29,1,4,3,4 | 3,1,1.4111,1.9756,incongruent,right,,,,,,stimulusFile/physical.xlsx,,,,,,,,,,,,,,,,,,,,,,,,,,,,,,,
,,,,,,,,,,,,,,,679,2022-02-09_23h46.51.020,multiplicationStroop,2021.2.3,Win32,59.97720866,,,,,left,1,0.5226,0,9,9,21,1,7,2,7 | 2,5,1.9756,1.4111,congruent,left,,,,,,stimulusFile/physical.xlsx,,,,,,,,,,,,,,,,,,,,,,,,,,,,,,,
,,,,,,,,,,,,,,,679,2022-02-09_23h46.51.020,multiplicationStroop,2021.2.3,Win32,59.97720866,,,,,right,1,0.5353,0,10,10,9,1,2,4,2 | 4,2,1.4111,1.9756,congruent,right,,,,,,stimulusFile/physical.xlsx,,,,,,,,,,,,,,,,,,,,,,,,,,,,,,,
,,,,,,,,,,,,,,,679,2022-02-09_23h46.51.020,multiplicationStroop,2021.2.3,Win32,59.97720866,,,,,left,1,0.6336,0,11,11,49,1,3,3,3 | 3,0,1.9756,1.4111,neutral,left,,,,,,stimulusFile/physical.xlsx,,,,,,,,,,,,,,,,,,,,,,,,,,,,,,,
,,,,,,,,,,,,,,,679,2022-02-09_23h46.51.020,multiplicationStroop,2021.2.3,Win32,59.97720866,,,,,right,1,0.4724,0,12,12,19,1,4,9,4 | 9,5,1.4111,1.9756,congruent,right,,,,,,stimulusFile/physical.xlsx,,,,,,,,,,,,,,,,,,,,,,,,,,,,,,,
,,,,,,,,,,,,,,,679,2022-02-09_23h46.51.020,multiplicationStroop,2021.2.3,Win32,59.97720866,,,,,right,1,0.5263,0,13,13,59,1,7,7,7 | 7,0,1.4111,1.9756,neutral,right,,,,,,stimulusFile/physical.xlsx,,,,,,,,,,,,,,,,,,,,,,,,,,,,,,,
,,,,,,,,,,,,,,,679,2022-02-09_23h46.51.020,multiplicationStroop,2021.2.3,Win32,59.97720866,,,,,right,1,0.5716,0,14,14,31,1,9,8,9 | 8,1,1.4111,1.9756,incongruent,right,,,,,,stimulusFile/physical.xlsx,,,,,,,,,,,,,,,,,,,,,,,,,,,,,,,
,,,,,,,,,,,,,,,679,2022-02-09_23h46.51.020,multiplicationStroop,2021.2.3,Win32,59.97720866,,,,,left,1,0.7337,0,15,15,12,1,3,1,3 | 1,2,1.9756,1.4111,congruent,left,,,,,,stimulusFile/physical.xlsx,,,,,,,,,,,,,,,,,,,,,,,,,,,,,,,
,,,,,,,,,,,,,,,679,2022-02-09_23h46.51.020,multiplicationStroop,2021.2.3,Win32,59.97720866,,,,,right,1,0.4261,0,16,16,8,1,1,3,1 | 3,2,1.4111,1.9756,congruent,right,,,,,,stimulusFile/physical.xlsx,,,,,,,,,,,,,,,,,,,,,,,,,,,,,,,
,,,,,,,,,,,,,,,679,2022-02-09_23h46.51.020,multiplicationStroop,2021.2.3,Win32,59.97720866,,,,,left,1,0.5273,0,17,17,55,1,9,9,9 | 9,0,1.9756,1.4111,neutral,left,,,,,,stimulusFile/physical.xlsx,,,,,,,,,,,,,,,,,,,,,,,,,,,,,,,
,,,,,,,,,,,,,,,679,2022-02-09_23h46.51.020,multiplicationStroop,2021.2.3,Win32,59.97720866,,,,,right,1,0.4721,0,18,18,56,1,1,1,1 | 1,0,1.4111,1.9756,neutral,right,,,,,,stimulusFile/physical.xlsx,,,,,,,,,,,,,,,,,,,,,,,,,,,,,,,
,,,,,,,,,,,,,,,679,2022-02-09_23h46.51.020,multiplicationStroop,2021.2.3,Win32,59.97720866,,,,,right,1,0.6251,0,19,19,39,1,9,7,9 | 7,2,1.4111,1.9756,incongruent,right,,,,,,stimulusFile/physical.xlsx,,,,,,,,,,,,,,,,,,,,,,,,,,,,,,,
,,,,,,,,,,,,,,,679,2022-02-09_23h46.51.020,multiplicationStroop,2021.2.3,Win32,59.97720866,,,,,left,1,0.626,0,20,20,24,1,1,2,1 | 2,1,1.9756,1.4111,incongruent,left,,,,,,stimulusFile/physical.xlsx,,,,,,,,,,,,,,,,,,,,,,,,,,,,,,,
,,,,,,,,,,,,,,,679,2022-02-09_23h46.51.020,multiplicationStroop,2021.2.3,Win32,59.97720866,,,,,left,1,0.5009,0,21,21,13,1,4,2,4 | 2,2,1.9756,1.4111,congruent,left,,,,,,stimulusFile/physical.xlsx,,,,,,,,,,,,,,,,,,,,,,,,,,,,,,,
,,,,,,,,,,,,,,,679,2022-02-09_23h46.51.020,multiplicationStroop,2021.2.3,Win32,59.97720866,,,,,left,0,0.5189,0,22,22,66,1,3,3,3 | 3,0,1.9756,1.4111,neutral,right,,,,,,stimulusFile/physical.xlsx,,,,,,,,,,,,,,,,,,,,,,,,,,,,,,,
,,,,,,,,,,,,,,,679,2022-02-09_23h46.51.020,multiplicationStroop,2021.2.3,Win32,59.97720866,,,,,left,1,0.6609,0,23,23,26,1,6,7,6 | 7,1,1.9756,1.4111,incongruent,left,,,,,,stimulusFile/physical.xlsx,,,,,,,,,,,,,,,,,,,,,,,,,,,,,,,
,,,,,,,,,,,,,,,679,2022-02-09_23h46.51.020,multiplicationStroop,2021.2.3,Win32,59.97720866,,,,,left,1,0.5171,0,24,24,5,1,4,3,4 | 3,1,1.9756,1.4111,congruent,left,,,,,,stimulusFile/physical.xlsx,,,,,,,,,,,,,,,,,,,,,,,,,,,,,,,
,,,,,,,,,,,,,,,679,2022-02-09_23h46.51.020,multiplicationStroop,2021.2.3,Win32,59.97720866,,,,,left,1,0.489,0,25,25,20,1,6,1,6 | 1,5,1.9756,1.4111,congruent,left,,,,,,stimulusFile/physical.xlsx,,,,,,,,,,,,,,,,,,,,,,,,,,,,,,,
,,,,,,,,,,,,,,,679,2022-02-09_23h46.51.020,multiplicationStroop,2021.2.3,Win32,59.97720866,,,,,right,1,0.5025,0,26,26,45,1,7,2,7 | 2,5,1.4111,1.9756,incongruent,right,,,,,,stimulusFile/physical.xlsx,,,,,,,,,,,,,,,,,,,,,,,,,,,,,,,
,,,,,,,,,,,,,,,679,2022-02-09_23h46.51.020,multiplicationStroop,2021.2.3,Win32,59.97720866,,,,,left,1,0.4855,0,27,27,22,1,8,3,8 | 3,5,1.9756,1.4111,congruent,left,,,,,,stimulusFile/physical.xlsx,,,,,,,,,,,,,,,,,,,,,,,,,,,,,,,
,,,,,,,,,,,,,,,679,2022-02-09_23h46.51.020,multiplicationStroop,2021.2.3,Win32,59.97720866,,,,,left,1,0.4931,0,28,28,52,1,2,2,2 | 2,0,1.9756,1.4111,neutral,left,,,,,,stimulusFile/physical.xlsx,,,,,,,,,,,,,,,,,,,,,,,,,,,,,,,
,,,,,,,,,,,,,,,679,2022-02-09_23h46.51.020,multiplicationStroop,2021.2.3,Win32,59.97720866,,,,,left,1,0.7121,0,29,29,27,1,8,9,8 | 9,1,1.9756,1.4111,incongruent,left,,,,,,stimulusFile/physical.xlsx,,,,,,,,,,,,,,,,,,,,,,,,,,,,,,,
,,,,,,,,,,,,,,,679,2022-02-09_23h46.51.020,multiplicationStroop,2021.2.3,Win32,59.97720866,,,,,right,1,0.5427,0,30,30,63,1,9,9,9 | 9,0,1.4111,1.9756,neutral,right,,,,,,stimulusFile/physical.xlsx,,,,,,,,,,,,,,,,,,,,,,,,,,,,,,,
,,,,,,,,,,,,,,,679,2022-02-09_23h46.51.020,multiplicationStroop,2021.2.3,Win32,59.97720866,,,,,left,0,0.4796,0,31,31,64,1,1,1,1 | 1,0,1.9756,1.4111,neutral,right,,,,,,stimulusFile/physical.xlsx,,,,,,,,,,,,,,,,,,,,,,,,,,,,,,,
,,,,,,,,,,,,,,,679,2022-02-09_23h46.51.020,multiplicationStroop,2021.2.3,Win32,59.97720866,,,,,left,1,0.5172,0,32,32,43,1,4,9,4 | 9,5,1.9756,1.4111,incongruent,left,,,,,,stimulusFile/physical.xlsx,,,,,,,,,,,,,,,,,,,,,,,,,,,,,,,
,,,,,,,,,,,,,,,679,2022-02-09_23h46.51.020,multiplicationStroop,2021.2.3,Win32,59.97720866,,,,,right,1,0.4943,0,33,33,2,1,6,7,6 | 7,1,1.4111,1.9756,congruent,right,,,,,,stimulusFile/physical.xlsx,,,,,,,,,,,,,,,,,,,,,,,,,,,,,,,
,,,,,,,,,,,,,,,679,2022-02-09_23h46.51.020,multiplicationStroop,2021.2.3,Win32,59.97720866,,,,,right,1,0.6007,0,34,34,62,1,8,8,8 | 8,0,1.4111,1.9756,neutral,right,,,,,,stimulusFile/physical.xlsx,,,,,,,,,,,,,,,,,,,,,,,,,,,,,,,
,,,,,,,,,,,,,,,679,2022-02-09_23h46.51.020,multiplicationStroop,2021.2.3,Win32,59.97720866,,,,,left,1,0.5557,0,35,35,70,1,8,8,8 | 8,0,1.9756,1.4111,neutral,left,,,,,,stimulusFile/physical.xlsx,,,,,,,,,,,,,,,,,,,,,,,,,,,,,,,
,,,,,,,,,,,,,,,679,2022-02-09_23h46.51.020,multiplicationStroop,2021.2.3,Win32,59.97720866,,,,,right,1,0.5095,0,36,36,57,1,2,2,2 | 2,0,1.4111,1.9756,neutral,right,,,,,,stimulusFile/physical.xlsx,,,,,,,,,,,,,,,,,,,,,,,,,,,,,,,
,,,,,,,,,,,,,,,679,2022-02-09_23h46.51.020,multiplicationStroop,2021.2.3,Win32,59.97720866,,,,,right,1,0.6037,0,37,37,47,1,9,4,9 | 4,5,1.4111,1.9756,incongruent,right,,,,,,stimulusFile/physical.xlsx,,,,,,,,,,,,,,,,,,,,,,,,,,,,,,,
,,,,,,,,,,,,,,,679,2022-02-09_23h46.51.020,multiplicationStroop,2021.2.3,Win32,59.97720866,,,,,right,1,0.5002,0,38,38,17,1,2,7,2 | 7,5,1.4111,1.9756,congruent,right,,,,,,stimulusFile/physical.xlsx,,,,,,,,,,,,,,,,,,,,,,,,,,,,,,,
,,,,,,,,,,,,,,,679,2022-02-09_23h46.51.020,multiplicationStroop,2021.2.3,Win32,59.97720866,,,,,left,1,0.4887,0,39,39,15,1,9,7,9 | 7,2,1.9756,1.4111,congruent,left,,,,,,stimulusFile/physical.xlsx,,,,,,,,,,,,,,,,,,,,,,,,,,,,,,,
,,,,,,,,,,,,,,,679,2022-02-09_23h46.51.020,multiplicationStroop,2021.2.3,Win32,59.97720866,,,,,right,1,0.4391,0,40,40,11,1,7,9,7 | 9,2,1.4111,1.9756,congruent,right,,,,,,stimulusFile/physical.xlsx,,,,,,,,,,,,,,,,,,,,,,,,,,,,,,,
,,,,,,,,,,,,,,,679,2022-02-09_23h46.51.020,multiplicationStroop,2021.2.3,Win32,59.97720866,,,,,right,1,0.5747,0,41,41,58,1,6,6,6 | 6,0,1.4111,1.9756,neutral,right,,,,,,stimulusFile/physical.xlsx,,,,,,,,,,,,,,,,,,,,,,,,,,,,,,,
,,,,,,,,,,,,,,,679,2022-02-09_23h46.51.020,multiplicationStroop,2021.2.3,Win32,59.97720866,,,,,left,1,0.4776,0,42,42,4,1,2,1,2 | 1,1,1.9756,1.4111,congruent,left,,,,,,stimulusFile/physical.xlsx,,,,,,,,,,,,,,,,,,,,,,,,,,,,,,,
,,,,,,,,,,,,,,,679,2022-02-09_23h46.51.020,multiplicationStroop,2021.2.3,Win32,59.97720866,,,,,right,1,0.3846,0,43,43,60,1,3,3,3 | 3,0,1.4111,1.9756,neutral,right,,,,,,stimulusFile/physical.xlsx,,,,,,,,,,,,,,,,,,,,,,,,,,,,,,,
,,,,,,,,,,,,,,,679,2022-02-09_23h46.51.020,multiplicationStroop,2021.2.3,Win32,59.97720866,,,,,right,1,0.5412,0,44,44,61,1,4,4,4 | 4,0,1.4111,1.9756,neutral,right,,,,,,stimulusFile/physical.xlsx,,,,,,,,,,,,,,,,,,,,,,,,,,,,,,,
,,,,,,,,,,,,,,,679,2022-02-09_23h46.51.020,multiplicationStroop,2021.2.3,Win32,59.97720866,,,,,left,1,0.5427,0,45,45,23,1,9,4,9 | 4,5,1.9756,1.4111,congruent,left,,,,,,stimulusFile/physical.xlsx,,,,,,,,,,,,,,,,,,,,,,,,,,,,,,,
,,,,,,,,,,,,,,,679,2022-02-09_23h46.51.020,multiplicationStroop,2021.2.3,Win32,59.97720866,,,,,left,1,0.7238,0,46,46,7,1,9,8,9 | 8,1,1.9756,1.4111,congruent,left,,,,,,stimulusFile/physical.xlsx,,,,,,,,,,,,,,,,,,,,,,,,,,,,,,,
,,,,,,,,,,,,,,,679,2022-02-09_23h46.51.020,multiplicationStroop,2021.2.3,Win32,59.97720866,,,,,right,1,0.4917,0,47,47,65,1,2,2,2 | 2,0,1.4111,1.9756,neutral,right,,,,,,stimulusFile/physical.xlsx,,,,,,,,,,,,,,,,,,,,,,,,,,,,,,,
,,,,,,,,,,,,,,,679,2022-02-09_23h46.51.020,multiplicationStroop,2021.2.3,Win32,59.97720866,,,,,right,1,0.4521,0,48,48,0,1,1,2,1 | 2,1,1.4111,1.9756,congruent,right,,,,,,stimulusFile/physical.xlsx,,,,,,,,,,,,,,,,,,,,,,,,,,,,,,,
,,,,,,,,,,,,,,,679,2022-02-09_23h46.51.020,multiplicationStroop,2021.2.3,Win32,59.97720866,,,,,right,0,0.5726,0,49,49,71,1,9,9,9 | 9,0,1.4111,1.9756,neutral,left,,,,,,stimulusFile/physical.xlsx,,,,,,,,,,,,,,,,,,,,,,,,,,,,,,,
,,,,,,,,,,,,,,,679,2022-02-09_23h46.51.020,multiplicationStroop,2021.2.3,Win32,59.97720866,,,,,right,1,0.5502,0,50,50,10,1,6,8,6 | 8,2,1.4111,1.9756,congruent,right,,,,,,stimulusFile/physical.xlsx,,,,,,,,,,,,,,,,,,,,,,,,,,,,,,,
,,,,,,,,,,,,,,,679,2022-02-09_23h46.51.020,multiplicationStroop,2021.2.3,Win32,59.97720866,,,,,left,1,0.4567,0,51,51,53,1,4,4,4 | 4,0,1.9756,1.4111,neutral,left,,,,,,stimulusFile/physical.xlsx,,,,,,,,,,,,,,,,,,,,,,,,,,,,,,,
,,,,,,,,,,,,,,,679,2022-02-09_23h46.51.020,multiplicationStroop,2021.2.3,Win32,59.97720866,,,,,right,1,0.5175,0,52,52,37,1,4,2,4 | 2,2,1.4111,1.9756,incongruent,right,,,,,,stimulusFile/physical.xlsx,,,,,,,,,,,,,,,,,,,,,,,,,,,,,,,
,,,,,,,,,,,,,,,679,2022-02-09_23h46.51.020,multiplicationStroop,2021.2.3,Win32,59.97720866,,,,,left,1,0.4611,0,53,53,51,1,8,8,8 | 8,0,1.9756,1.4111,neutral,left,,,,,,stimulusFile/physical.xlsx,,,,,,,,,,,,,,,,,,,,,,,,,,,,,,,
,,,,,,,,,,,,,,,679,2022-02-09_23h46.51.020,multiplicationStroop,2021.2.3,Win32,59.97720866,,,,,left,1,0.6841,0,54,54,32,1,1,3,1 | 3,2,1.9756,1.4111,incongruent,left,,,,,,stimulusFile/physical.xlsx,,,,,,,,,,,,,,,,,,,,,,,,,,,,,,,
,,,,,,,,,,,,,,,679,2022-02-09_23h46.51.020,multiplicationStroop,2021.2.3,Win32,59.97720866,,,,,right,1,0.4288,0,55,55,30,1,7,6,7 | 6,1,1.4111,1.9756,incongruent,right,,,,,,stimulusFile/physical.xlsx,,,,,,,,,,,,,,,,,,,,,,,,,,,,,,,
,,,,,,,,,,,,,,,679,2022-02-09_23h46.51.020,multiplicationStroop,2021.2.3,Win32,59.97720866,,,,,right,1,0.5016,0,56,56,18,1,3,8,3 | 8,5,1.4111,1.9756,congruent,right,,,,,,stimulusFile/physical.xlsx,,,,,,,,,,,,,,,,,,,,,,,,,,,,,,,
,,,,,,,,,,,,,,,679,2022-02-09_23h46.51.020,multiplicationStroop,2021.2.3,Win32,59.97720866,,,,,right,1,0.5003,0,57,57,67,1,4,4,4 | 4,0,1.4111,1.9756,neutral,right,,,,,,stimulusFile/physical.xlsx,,,,,,,,,,,,,,,,,,,,,,,,,,,,,,,
,,,,,,,,,,,,,,,679,2022-02-09_23h46.51.020,multiplicationStroop,2021.2.3,Win32,59.97720866,,,,,right,1,0.4882,0,58,58,38,1,8,6,8 | 6,2,1.4111,1.9756,incongruent,right,,,,,,stimulusFile/physical.xlsx,,,,,,,,,,,,,,,,,,,,,,,,,,,,,,,
,,,,,,,,,,,,,,,679,2022-02-09_23h46.51.020,multiplicationStroop,2021.2.3,Win32,59.97720866,,,,,left,1,0.4353,0,59,59,48,1,1,1,1 | 1,0,1.9756,1.4111,neutral,left,,,,,,stimulusFile/physical.xlsx,,,,,,,,,,,,,,,,,,,,,,,,,,,,,,,
,,,,,,,,,,,,,,,679,2022-02-09_23h46.51.020,multiplicationStroop,2021.2.3,Win32,59.97720866,,,,,left,1,0.5338,0,60,60,6,1,7,6,7 | 6,1,1.9756,1.4111,congruent,left,,,,,,stimulusFile/physical.xlsx,,,,,,,,,,,,,,,,,,,,,,,,,,,,,,,
,,,,,,,,,,,,,,,679,2022-02-09_23h46.51.020,multiplicationStroop,2021.2.3,Win32,59.97720866,,,,,left,1,0.4006,0,61,61,41,1,2,7,2 | 7,5,1.9756,1.4111,incongruent,left,,,,,,stimulusFile/physical.xlsx,,,,,,,,,,,,,,,,,,,,,,,,,,,,,,,
,,,,,,,,,,,,,,,679,2022-02-09_23h46.51.020,multiplicationStroop,2021.2.3,Win32,59.97720866,,,,,right,1,0.4346,0,62,62,3,1,8,9,8 | 9,1,1.4111,1.9756,congruent,right,,,,,,stimulusFile/physical.xlsx,,,,,,,,,,,,,,,,,,,,,,,,,,,,,,,
,,,,,,,,,,,,,,,679,2022-02-09_23h46.51.020,multiplicationStroop,2021.2.3,Win32,59.97720866,,,,,right,1,0.7004,0,63,63,28,1,2,1,2 | 1,1,1.4111,1.9756,incongruent,right,,,,,,stimulusFile/physical.xlsx,,,,,,,,,,,,,,,,,,,,,,,,,,,,,,,
,,,,,,,,,,,,,,,679,2022-02-09_23h46.51.020,multiplicationStroop,2021.2.3,Win32,59.97720866,,,,,right,1,0.501,0,64,64,46,1,8,3,8 | 3,5,1.4111,1.9756,incongruent,right,,,,,,stimulusFile/physical.xlsx,,,,,,,,,,,,,,,,,,,,,,,,,,,,,,,
,,,,,,,,,,,,,,,679,2022-02-09_23h46.51.020,multiplicationStroop,2021.2.3,Win32,59.97720866,,,,,left,1,0.4524,0,65,65,14,1,8,6,8 | 6,2,1.9756,1.4111,congruent,left,,,,,,stimulusFile/physical.xlsx,,,,,,,,,,,,,,,,,,,,,,,,,,,,,,,
,,,,,,,,,,,,,,,679,2022-02-09_23h46.51.020,multiplicationStroop,2021.2.3,Win32,59.97720866,,,,,left,1,0.5182,0,66,66,35,1,7,9,7 | 9,2,1.9756,1.4111,incongruent,left,,,,,,stimulusFile/physical.xlsx,,,,,,,,,,,,,,,,,,,,,,,,,,,,,,,
,,,,,,,,,,,,,,,679,2022-02-09_23h46.51.020,multiplicationStroop,2021.2.3,Win32,59.97720866,,,,,right,1,0.4184,0,67,67,16,1,1,6,1 | 6,5,1.4111,1.9756,congruent,right,,,,,,stimulusFile/physical.xlsx,,,,,,,,,,,,,,,,,,,,,,,,,,,,,,,
,,,,,,,,,,,,,,,679,2022-02-09_23h46.51.020,multiplicationStroop,2021.2.3,Win32,59.97720866,,,,,left,1,0.4672,0,68,68,50,1,6,6,6 | 6,0,1.9756,1.4111,neutral,left,,,,,,stimulusFile/physical.xlsx,,,,,,,,,,,,,,,,,,,,,,,,,,,,,,,
,,,,,,,,,,,,,,,679,2022-02-09_23h46.51.020,multiplicationStroop,2021.2.3,Win32,59.97720866,,,,,right,0,0.3842,0,69,69,40,1,1,6,1 | 6,5,1.9756,1.4111,incongruent,left,,,,,,stimulusFile/physical.xlsx,,,,,,,,,,,,,,,,,,,,,,,,,,,,,,,
,,,,,,,,,,,,,,,679,2022-02-09_23h46.51.020,multiplicationStroop,2021.2.3,Win32,59.97720866,,,,,left,1,0.5669,0,70,70,68,1,6,6,6 | 6,0,1.9756,1.4111,neutral,left,,,,,,stimulusFile/physical.xlsx,,,,,,,,,,,,,,,,,,,,,,,,,,,,,,,
,,,,,,,,,,,,,,,679,2022-02-09_23h46.51.020,multiplicationStroop,2021.2.3,Win32,59.97720866,,,,,right,1,0.4882,0,71,71,1,1,3,4,3 | 4,1,1.4111,1.9756,congruent,right,,,,,,stimulusFile/physical.xlsx,,,,,,,,,,,,,,,,,,,,,,,,,,,,,,,
,,,,,,,,,,,,,,,679,2022-02-09_23h46.51.020,multiplicationStroop,2021.2.3,Win32,59.97720866,,,,,,,,,,,,,,,,,,,,,0,0,0,1,1,stimulusFile/physical.xlsx,PHYSICALLY larger (larger font size).,images/physicallyLarger.png,,,,,,,,,,,,,,,,,,,,,,,,,,,,,
,,,,,,,,,,,,,,,679,2022-02-09_23h46.51.020,multiplicationStroop,2021.2.3,Win32,59.97720866,space,5.0521,space,2.2781,left,1,0.6188,0,0,0,53,1,4,3,4 | 3,1,1.6933,1.6933,neutral,left,,,,,,stimulusFile/magnitude.xlsx,,,,,,,,,,,,,,,,,,,,,,,,,,,,,,,
,,,,,,,,,,,,,,,679,2022-02-09_23h46.51.020,multiplicationStroop,2021.2.3,Win32,59.97720866,,,,,right,1,0.5356,0,1,1,67,1,4,9,4 | 9,5,1.6933,1.6933,neutral,right,,,,,,stimulusFile/magnitude.xlsx,,,,,,,,,,,,,,,,,,,,,,,,,,,,,,,
,,,,,,,,,,,,,,,679,2022-02-09_23h46.51.020,multiplicationStroop,2021.2.3,Win32,59.97720866,,,,,left,1,0.393,0,2,2,60,1,3,1,3 | 1,2,1.6933,1.6933,neutral,left,,,,,,stimulusFile/magnitude.xlsx,,,,,,,,,,,,,,,,,,,,,,,,,,,,,,,
,,,,,,,,,,,,,,,679,2022-02-09_23h46.51.020,multiplicationStroop,2021.2.3,Win32,59.97720866,,,,,left,1,1.3413,0,3,3,15,1,9,7,9 | 7,2,1.9756,1.4111,congruent,left,,,,,,stimulusFile/magnitude.xlsx,,,,,,,,,,,,,,,,,,,,,,,,,,,,,,,
,,,,,,,,,,,,,,,679,2022-02-09_23h46.51.020,multiplicationStroop,2021.2.3,Win32,59.97720866,,,,,left,1,0.6767,0,4,4,14,1,8,6,8 | 6,2,1.9756,1.4111,congruent,left,,,,,,stimulusFile/magnitude.xlsx,,,,,,,,,,,,,,,,,,,,,,,,,,,,,,,
,,,,,,,,,,,,,,,679,2022-02-09_23h46.51.020,multiplicationStroop,2021.2.3,Win32,59.97720866,,,,,left,1,0.6251,0,5,5,52,1,2,1,2 | 1,1,1.6933,1.6933,neutral,left,,,,,,stimulusFile/magnitude.xlsx,,,,,,,,,,,,,,,,,,,,,,,,,,,,,,,
,,,,,,,,,,,,,,,679,2022-02-09_23h46.51.020,multiplicationStroop,2021.2.3,Win32,59.97720866,,,,,right,1,0.5384,0,6,6,34,1,6,8,6 | 8,2,1.9756,1.4111,incongruent,right,,,,,,stimulusFile/magnitude.xlsx,,,,,,,,,,,,,,,,,,,,,,,,,,,,,,,
,,,,,,,,,,,,,,,679,2022-02-09_23h46.51.020,multiplicationStroop,2021.2.3,Win32,59.97720866,,,,,right,1,0.5201,0,7,7,32,1,1,3,1 | 3,2,1.9756,1.4111,incongruent,right,,,,,,stimulusFile/magnitude.xlsx,,,,,,,,,,,,,,,,,,,,,,,,,,,,,,,
,,,,,,,,,,,,,,,679,2022-02-09_23h46.51.020,multiplicationStroop,2021.2.3,Win32,59.97720866,,,,,right,1,0.5569,0,8,8,41,1,2,7,2 | 7,5,1.9756,1.4111,incongruent,right,,,,,,stimulusFile/magnitude.xlsx,,,,,,,,,,,,,,,,,,,,,,,,,,,,,,,
,,,,,,,,,,,,,,,679,2022-02-09_23h46.51.020,multiplicationStroop,2021.2.3,Win32,59.97720866,,,,,right,1,0.4748,0,9,9,49,1,3,4,3 | 4,1,1.6933,1.6933,neutral,right,,,,,,stimulusFile/magnitude.xlsx,,,,,,,,,,,,,,,,,,,,,,,,,,,,,,,
,,,,,,,,,,,,,,,679,2022-02-09_23h46.51.020,multiplicationStroop,2021.2.3,Win32,59.97720866,,,,,right,0,0.4638,0,10,10,31,1,9,8,9 | 8,1,1.4111,1.9756,incongruent,left,,,,,,stimulusFile/magnitude.xlsx,,,,,,,,,,,,,,,,,,,,,,,,,,,,,,,
,,,,,,,,,,,,,,,679,2022-02-09_23h46.51.020,multiplicationStroop,2021.2.3,Win32,59.97720866,,,,,right,1,0.5699,0,11,11,2,1,6,7,6 | 7,1,1.4111,1.9756,congruent,right,,,,,,stimulusFile/magnitude.xlsx,,,,,,,,,,,,,,,,,,,,,,,,,,,,,,,
,,,,,,,,,,,,,,,679,2022-02-09_23h46.51.020,multiplicationStroop,2021.2.3,Win32,59.97720866,,,,,left,1,0.4583,0,12,12,4,1,2,1,2 | 1,1,1.9756,1.4111,congruent,left,,,,,,stimulusFile/magnitude.xlsx,,,,,,,,,,,,,,,,,,,,,,,,,,,,,,,
,,,,,,,,,,,,,,,679,2022-02-09_23h46.51.020,multiplicationStroop,2021.2.3,Win32,59.97720866,,,,,right,1,0.4847,0,13,13,24,1,1,2,1 | 2,1,1.9756,1.4111,incongruent,right,,,,,,stimulusFile/magnitude.xlsx,,,,,,,,,,,,,,,,,,,,,,,,,,,,,,,
,,,,,,,,,,,,,,,679,2022-02-09_23h46.51.020,multiplicationStroop,2021.2.3,Win32,59.97720866,,,,,right,1,0.5051,0,14,14,17,1,2,7,2 | 7,5,1.4111,1.9756,congruent,right,,,,,,stimulusFile/magnitude.xlsx,,,,,,,,,,,,,,,,,,,,,,,,,,,,,,,
,,,,,,,,,,,,,,,679,2022-02-09_23h46.51.020,multiplicationStroop,2021.2.3,Win32,59.97720866,,,,,right,1,0.7168,0,15,15,26,1,6,7,6 | 7,1,1.9756,1.4111,incongruent,right,,,,,,stimulusFile/magnitude.xlsx,,,,,,,,,,,,,,,,,,,,,,,,,,,,,,,
,,,,,,,,,,,,,,,679,2022-02-09_23h46.51.020,multiplicationStroop,2021.2.3,Win32,59.97720866,,,,,left,1,0.5792,0,16,16,68,1,6,1,6 | 1,5,1.6933,1.6933,neutral,left,,,,,,stimulusFile/magnitude.xlsx,,,,,,,,,,,,,,,,,,,,,,,,,,,,,,,
,,,,,,,,,,,,,,,679,2022-02-09_23h46.51.020,multiplicationStroop,2021.2.3,Win32,59.97720866,,,,,right,1,0.5244,0,17,17,65,1,2,7,2 | 7,5,1.6933,1.6933,neutral,right,,,,,,stimulusFile/magnitude.xlsx,,,,,,,,,,,,,,,,,,,,,,,,,,,,,,,
,,,,,,,,,,,,,,,679,2022-02-09_23h46.51.020,multiplicationStroop,2021.2.3,Win32,59.97720866,,,,,right,0,0.5921,0,18,18,37,1,4,2,4 | 2,2,1.4111,1.9756,incongruent,left,,,,,,stimulusFile/magnitude.xlsx,,,,,,,,,,,,,,,,,,,,,,,,,,,,,,,
,,,,,,,,,,,,,,,679,2022-02-09_23h46.51.020,multiplicationStroop,2021.2.3,Win32,59.97720866,,,,,left,1,0.8761,0,19,19,62,1,8,6,8 | 6,2,1.6933,1.6933,neutral,left,,,,,,stimulusFile/magnitude.xlsx,,,,,,,,,,,,,,,,,,,,,,,,,,,,,,,
,,,,,,,,,,,,,,,679,2022-02-09_23h46.51.020,multiplicationStroop,2021.2.3,Win32,59.97720866,,,,,left,1,1.1888,0,20,20,36,1,3,1,3 | 1,2,1.4111,1.9756,incongruent,left,,,,,,stimulusFile/magnitude.xlsx,,,,,,,,,,,,,,,,,,,,,,,,,,,,,,,
,,,,,,,,,,,,,,,679,2022-02-09_23h46.51.020,multiplicationStroop,2021.2.3,Win32,59.97720866,,,,,right,0,0.9802,0,21,21,29,1,4,3,4 | 3,1,1.4111,1.9756,incongruent,left,,,,,,stimulusFile/magnitude.xlsx,,,,,,,,,,,,,,,,,,,,,,,,,,,,,,,
,,,,,,,,,,,,,,,679,2022-02-09_23h46.51.020,multiplicationStroop,2021.2.3,Win32,59.97720866,,,,,left,1,0.8342,0,22,22,6,1,7,6,7 | 6,1,1.9756,1.4111,congruent,left,,,,,,stimulusFile/magnitude.xlsx,,,,,,,,,,,,,,,,,,,,,,,,,,,,,,,
,,,,,,,,,,,,,,,679,2022-02-09_23h46.51.020,multiplicationStroop,2021.2.3,Win32,59.97720866,,,,,left,1,0.5339,0,23,23,63,1,9,7,9 | 7,2,1.6933,1.6933,neutral,left,,,,,,stimulusFile/magnitude.xlsx,,,,,,,,,,,,,,,,,,,,,,,,,,,,,,,
,,,,,,,,,,,,,,,679,2022-02-09_23h46.51.020,multiplicationStroop,2021.2.3,Win32,59.97720866,,,,,right,1,0.7343,0,24,24,27,1,8,9,8 | 9,1,1.9756,1.4111,incongruent,right,,,,,,stimulusFile/magnitude.xlsx,,,,,,,,,,,,,,,,,,,,,,,,,,,,,,,
,,,,,,,,,,,,,,,679,2022-02-09_23h46.51.020,multiplicationStroop,2021.2.3,Win32,59.97720866,,,,,right,1,0.5616,0,25,25,10,1,6,8,6 | 8,2,1.4111,1.9756,congruent,right,,,,,,stimulusFile/magnitude.xlsx,,,,,,,,,,,,,,,,,,,,,,,,,,,,,,,
,,,,,,,,,,,,,,,679,2022-02-09_23h46.51.020,multiplicationStroop,2021.2.3,Win32,59.97720866,,,,,right,1,0.9229,0,26,26,33,1,2,4,2 | 4,2,1.9756,1.4111,incongruent,right,,,,,,stimulusFile/magnitude.xlsx,,,,,,,,,,,,,,,,,,,,,,,,,,,,,,,
,,,,,,,,,,,,,,,679,2022-02-09_23h46.51.020,multiplicationStroop,2021.2.3,Win32,59.97720866,,,,,left,1,0.5724,0,27,27,23,1,9,4,9 | 4,5,1.9756,1.4111,congruent,left,,,,,,stimulusFile/magnitude.xlsx,,,,,,,,,,,,,,,,,,,,,,,,,,,,,,,
,,,,,,,,,,,,,,,679,2022-02-09_23h46.51.020,multiplicationStroop,2021.2.3,Win32,59.97720866,,,,,left,1,0.4764,0,28,28,20,1,6,1,6 | 1,5,1.9756,1.4111,congruent,left,,,,,,stimulusFile/magnitude.xlsx,,,,,,,,,,,,,,,,,,,,,,,,,,,,,,,
,,,,,,,,,,,,,,,679,2022-02-09_23h46.51.020,multiplicationStroop,2021.2.3,Win32,59.97720866,,,,,left,1,0.4875,0,29,29,12,1,3,1,3 | 1,2,1.9756,1.4111,congruent,left,,,,,,stimulusFile/magnitude.xlsx,,,,,,,,,,,,,,,,,,,,,,,,,,,,,,,
,,,,,,,,,,,,,,,679,2022-02-09_23h46.51.020,multiplicationStroop,2021.2.3,Win32,59.97720866,,,,,left,1,0.884,0,30,30,38,1,8,6,8 | 6,2,1.4111,1.9756,incongruent,left,,,,,,stimulusFile/magnitude.xlsx,,,,,,,,,,,,,,,,,,,,,,,,,,,,,,,
,,,,,,,,,,,,,,,679,2022-02-09_23h46.51.020,multiplicationStroop,2021.2.3,Win32,59.97720866,,,,,right,1,0.9342,0,31,31,11,1,7,9,7 | 9,2,1.4111,1.9756,congruent,right,,,,,,stimulusFile/magnitude.xlsx,,,,,,,,,,,,,,,,,,,,,,,,,,,,,,,
,,,,,,,,,,,,,,,679,2022-02-09_23h46.51.020,multiplicationStroop,2021.2.3,Win32,59.97720866,,,,,left,1,0.7462,0,32,32,71,1,9,4,9 | 4,5,1.6933,1.6933,neutral,left,,,,,,stimulusFile/magnitude.xlsx,,,,,,,,,,,,,,,,,,,,,,,,,,,,,,,
,,,,,,,,,,,,,,,679,2022-02-09_23h46.51.020,multiplicationStroop,2021.2.3,Win32,59.97720866,,,,,left,1,0.5599,0,33,33,61,1,4,2,4 | 2,2,1.6933,1.6933,neutral,left,,,,,,stimulusFile/magnitude.xlsx,,,,,,,,,,,,,,,,,,,,,,,,,,,,,,,
,,,,,,,,,,,,,,,679,2022-02-09_23h46.51.020,multiplicationStroop,2021.2.3,Win32,59.97720866,,,,,right,1,0.684,0,34,34,35,1,7,9,7 | 9,2,1.9756,1.4111,incongruent,right,,,,,,stimulusFile/magnitude.xlsx,,,,,,,,,,,,,,,,,,,,,,,,,,,,,,,
,,,,,,,,,,,,,,,679,2022-02-09_23h46.51.020,multiplicationStroop,2021.2.3,Win32,59.97720866,,,,,left,1,0.5246,0,35,35,5,1,4,3,4 | 3,1,1.9756,1.4111,congruent,left,,,,,,stimulusFile/magnitude.xlsx,,,,,,,,,,,,,,,,,,,,,,,,,,,,,,,
,,,,,,,,,,,,,,,679,2022-02-09_23h46.51.020,multiplicationStroop,2021.2.3,Win32,59.97720866,,,,,right,1,0.6241,0,36,36,51,1,8,9,8 | 9,1,1.6933,1.6933,neutral,right,,,,,,stimulusFile/magnitude.xlsx,,,,,,,,,,,,,,,,,,,,,,,,,,,,,,,
,,,,,,,,,,,,,,,679,2022-02-09_23h46.51.020,multiplicationStroop,2021.2.3,Win32,59.97720866,,,,,right,1,0.8674,0,37,37,42,1,3,8,3 | 8,5,1.9756,1.4111,incongruent,right,,,,,,stimulusFile/magnitude.xlsx,,,,,,,,,,,,,,,,,,,,,,,,,,,,,,,
,,,,,,,,,,,,,,,679,2022-02-09_23h46.51.020,multiplicationStroop,2021.2.3,Win32,59.97720866,,,,,left,1,0.5006,0,38,38,70,1,8,3,8 | 3,5,1.6933,1.6933,neutral,left,,,,,,stimulusFile/magnitude.xlsx,,,,,,,,,,,,,,,,,,,,,,,,,,,,,,,
,,,,,,,,,,,,,,,679,2022-02-09_23h46.51.020,multiplicationStroop,2021.2.3,Win32,59.97720866,,,,,right,1,0.4572,0,39,39,1,1,3,4,3 | 4,1,1.4111,1.9756,congruent,right,,,,,,stimulusFile/magnitude.xlsx,,,,,,,,,,,,,,,,,,,,,,,,,,,,,,,
,,,,,,,,,,,,,,,679,2022-02-09_23h46.51.020,multiplicationStroop,2021.2.3,Win32,59.97720866,,,,,right,1,0.6345,0,40,40,9,1,2,4,2 | 4,2,1.4111,1.9756,congruent,right,,,,,,stimulusFile/magnitude.xlsx,,,,,,,,,,,,,,,,,,,,,,,,,,,,,,,
,,,,,,,,,,,,,,,679,2022-02-09_23h46.51.020,multiplicationStroop,2021.2.3,Win32,59.97720866,,,,,right,1,0.7175,0,41,41,48,1,1,2,1 | 2,1,1.6933,1.6933,neutral,right,,,,,,stimulusFile/magnitude.xlsx,,,,,,,,,,,,,,,,,,,,,,,,,,,,,,,
,,,,,,,,,,,,,,,679,2022-02-09_23h46.51.020,multiplicationStroop,2021.2.3,Win32,59.97720866,,,,,right,1,0.6238,0,42,42,19,1,4,9,4 | 9,5,1.4111,1.9756,congruent,right,,,,,,stimulusFile/magnitude.xlsx,,,,,,,,,,,,,,,,,,,,,,,,,,,,,,,
,,,,,,,,,,,,,,,679,2022-02-09_23h46.51.020,multiplicationStroop,2021.2.3,Win32,59.97720866,,,,,right,1,0.641,0,43,43,59,1,7,9,7 | 9,2,1.6933,1.6933,neutral,right,,,,,,stimulusFile/magnitude.xlsx,,,,,,,,,,,,,,,,,,,,,,,,,,,,,,,
,,,,,,,,,,,,,,,679,2022-02-09_23h46.51.020,multiplicationStroop,2021.2.3,Win32,59.97720866,,,,,right,1,0.6544,0,44,44,40,1,1,6,1 | 6,5,1.9756,1.4111,incongruent,right,,,,,,stimulusFile/magnitude.xlsx,,,,,,,,,,,,,,,,,,,,,,,,,,,,,,,
,,,,,,,,,,,,,,,679,2022-02-09_23h46.51.020,multiplicationStroop,2021.2.3,Win32,59.97720866,,,,,right,1,0.6471,0,45,45,58,1,6,8,6 | 8,2,1.6933,1.6933,neutral,right,,,,,,stimulusFile/magnitude.xlsx,,,,,,,,,,,,,,,,,,,,,,,,,,,,,,,
,,,,,,,,,,,,,,,679,2022-02-09_23h46.51.020,multiplicationStroop,2021.2.3,Win32,59.97720866,,,,,right,1,0.5743,0,46,46,16,1,1,6,1 | 6,5,1.4111,1.9756,congruent,right,,,,,,stimulusFile/magnitude.xlsx,,,,,,,,,,,,,,,,,,,,,,,,,,,,,,,
,,,,,,,,,,,,,,,679,2022-02-09_23h46.51.020,multiplicationStroop,2021.2.3,Win32,59.97720866,,,,,left,1,0.5436,0,47,47,54,1,7,6,7 | 6,1,1.6933,1.6933,neutral,left,,,,,,stimulusFile/magnitude.xlsx,,,,,,,,,,,,,,,,,,,,,,,,,,,,,,,
,,,,,,,,,,,,,,,679,2022-02-09_23h46.51.020,multiplicationStroop,2021.2.3,Win32,59.97720866,,,,,right,1,0.5838,0,48,48,18,1,3,8,3 | 8,5,1.4111,1.9756,congruent,right,,,,,,stimulusFile/magnitude.xlsx,,,,,,,,,,,,,,,,,,,,,,,,,,,,,,,
,,,,,,,,,,,,,,,679,2022-02-09_23h46.51.020,multiplicationStroop,2021.2.3,Win32,59.97720866,,,,,left,1,0.5857,0,49,49,46,1,8,3,8 | 3,5,1.4111,1.9756,incongruent,left,,,,,,stimulusFile/magnitude.xlsx,,,,,,,,,,,,,,,,,,,,,,,,,,,,,,,
,,,,,,,,,,,,,,,679,2022-02-09_23h46.51.020,multiplicationStroop,2021.2.3,Win32,59.97720866,,,,,left,1,0.5772,0,50,50,44,1,6,1,6 | 1,5,1.4111,1.9756,incongruent,left,,,,,,stimulusFile/magnitude.xlsx,,,,,,,,,,,,,,,,,,,,,,,,,,,,,,,
,,,,,,,,,,,,,,,679,2022-02-09_23h46.51.020,multiplicationStroop,2021.2.3,Win32,59.97720866,,,,,left,1,0.7007,0,51,51,7,1,9,8,9 | 8,1,1.9756,1.4111,congruent,left,,,,,,stimulusFile/magnitude.xlsx,,,,,,,,,,,,,,,,,,,,,,,,,,,,,,,
,,,,,,,,,,,,,,,679,2022-02-09_23h46.51.020,multiplicationStroop,2021.2.3,Win32,59.97720866,,,,,left,1,0.5244,0,52,52,69,1,7,2,7 | 2,5,1.6933,1.6933,neutral,left,,,,,,stimulusFile/magnitude.xlsx,,,,,,,,,,,,,,,,,,,,,,,,,,,,,,,
,,,,,,,,,,,,,,,679,2022-02-09_23h46.51.020,multiplicationStroop,2021.2.3,Win32,59.97720866,,,,,right,1,0.5672,0,53,53,50,1,6,7,6 | 7,1,1.6933,1.6933,neutral,right,,,,,,stimulusFile/magnitude.xlsx,,,,,,,,,,,,,,,,,,,,,,,,,,,,,,,
,,,,,,,,,,,,,,,679,2022-02-09_23h46.51.020,multiplicationStroop,2021.2.3,Win32,59.97720866,,,,,left,1,0.6008,0,54,54,47,1,9,4,9 | 4,5,1.4111,1.9756,incongruent,left,,,,,,stimulusFile/magnitude.xlsx,,,,,,,,,,,,,,,,,,,,,,,,,,,,,,,
,,,,,,,,,,,,,,,679,2022-02-09_23h46.51.020,multiplicationStroop,2021.2.3,Win32,59.97720866,,,,,left,1,0.6175,0,55,55,39,1,9,7,9 | 7,2,1.4111,1.9756,incongruent,left,,,,,,stimulusFile/magnitude.xlsx,,,,,,,,,,,,,,,,,,,,,,,,,,,,,,,
,,,,,,,,,,,,,,,679,2022-02-09_23h46.51.020,multiplicationStroop,2021.2.3,Win32,59.97720866,,,,,right,1,0.5684,0,56,56,3,1,8,9,8 | 9,1,1.4111,1.9756,congruent,right,,,,,,stimulusFile/magnitude.xlsx,,,,,,,,,,,,,,,,,,,,,,,,,,,,,,,
,,,,,,,,,,,,,,,679,2022-02-09_23h46.51.020,multiplicationStroop,2021.2.3,Win32,59.97720866,,,,,left,1,0.5504,0,57,57,28,1,2,1,2 | 1,1,1.4111,1.9756,incongruent,left,,,,,,stimulusFile/magnitude.xlsx,,,,,,,,,,,,,,,,,,,,,,,,,,,,,,,
,,,,,,,,,,,,,,,679,2022-02-09_23h46.51.020,multiplicationStroop,2021.2.3,Win32,59.97720866,,,,,left,1,0.5299,0,58,58,55,1,9,8,9 | 8,1,1.6933,1.6933,neutral,left,,,,,,stimulusFile/magnitude.xlsx,,,,,,,,,,,,,,,,,,,,,,,,,,,,,,,
,,,,,,,,,,,,,,,679,2022-02-09_23h46.51.020,multiplicationStroop,2021.2.3,Win32,59.97720866,,,,,left,1,0.5176,0,59,59,45,1,7,2,7 | 2,5,1.4111,1.9756,incongruent,left,,,,,,stimulusFile/magnitude.xlsx,,,,,,,,,,,,,,,,,,,,,,,,,,,,,,,
,,,,,,,,,,,,,,,679,2022-02-09_23h46.51.020,multiplicationStroop,2021.2.3,Win32,59.97720866,,,,,right,1,0.4509,0,60,60,8,1,1,3,1 | 3,2,1.4111,1.9756,congruent,right,,,,,,stimulusFile/magnitude.xlsx,,,,,,,,,,,,,,,,,,,,,,,,,,,,,,,
,,,,,,,,,,,,,,,679,2022-02-09_23h46.51.020,multiplicationStroop,2021.2.3,Win32,59.97720866,,,,,right,1,0.5572,0,61,61,0,1,1,2,1 | 2,1,1.4111,1.9756,congruent,right,,,,,,stimulusFile/magnitude.xlsx,,,,,,,,,,,,,,,,,,,,,,,,,,,,,,,
,,,,,,,,,,,,,,,679,2022-02-09_23h46.51.020,multiplicationStroop,2021.2.3,Win32,59.97720866,,,,,right,1,0.7416,0,62,62,43,1,4,9,4 | 9,5,1.9756,1.4111,incongruent,right,,,,,,stimulusFile/magnitude.xlsx,,,,,,,,,,,,,,,,,,,,,,,,,,,,,,,
,,,,,,,,,,,,,,,679,2022-02-09_23h46.51.020,multiplicationStroop,2021.2.3,Win32,59.97720866,,,,,left,1,0.4921,0,63,63,22,1,8,3,8 | 3,5,1.9756,1.4111,congruent,left,,,,,,stimulusFile/magnitude.xlsx,,,,,,,,,,,,,,,,,,,,,,,,,,,,,,,
,,,,,,,,,,,,,,,679,2022-02-09_23h46.51.020,multiplicationStroop,2021.2.3,Win32,59.97720866,,,,,right,1,0.5341,0,64,64,64,1,1,6,1 | 6,5,1.6933,1.6933,neutral,right,,,,,,stimulusFile/magnitude.xlsx,,,,,,,,,,,,,,,,,,,,,,,,,,,,,,,
,,,,,,,,,,,,,,,679,2022-02-09_23h46.51.020,multiplicationStroop,2021.2.3,Win32,59.97720866,,,,,left,1,0.4398,0,65,65,21,1,7,2,7 | 2,5,1.9756,1.4111,congruent,left,,,,,,stimulusFile/magnitude.xlsx,,,,,,,,,,,,,,,,,,,,,,,,,,,,,,,
,,,,,,,,,,,,,,,679,2022-02-09_23h46.51.020,multiplicationStroop,2021.2.3,Win32,59.97720866,,,,,right,1,0.4727,0,66,66,66,1,3,8,3 | 8,5,1.6933,1.6933,neutral,right,,,,,,stimulusFile/magnitude.xlsx,,,,,,,,,,,,,,,,,,,,,,,,,,,,,,,
,,,,,,,,,,,,,,,679,2022-02-09_23h46.51.020,multiplicationStroop,2021.2.3,Win32,59.97720866,,,,,right,1,0.5689,0,67,67,57,1,2,4,2 | 4,2,1.6933,1.6933,neutral,right,,,,,,stimulusFile/magnitude.xlsx,,,,,,,,,,,,,,,,,,,,,,,,,,,,,,,
,,,,,,,,,,,,,,,679,2022-02-09_23h46.51.020,multiplicationStroop,2021.2.3,Win32,59.97720866,,,,,left,1,0.7093,0,68,68,30,1,7,6,7 | 6,1,1.4111,1.9756,incongruent,left,,,,,,stimulusFile/magnitude.xlsx,,,,,,,,,,,,,,,,,,,,,,,,,,,,,,,
,,,,,,,,,,,,,,,679,2022-02-09_23h46.51.020,multiplicationStroop,2021.2.3,Win32,59.97720866,,,,,left,1,0.503,0,69,69,13,1,4,2,4 | 2,2,1.9756,1.4111,congruent,left,,,,,,stimulusFile/magnitude.xlsx,,,,,,,,,,,,,,,,,,,,,,,,,,,,,,,
,,,,,,,,,,,,,,,679,2022-02-09_23h46.51.020,multiplicationStroop,2021.2.3,Win32,59.97720866,,,,,right,1,0.5051,0,70,70,56,1,1,3,1 | 3,2,1.6933,1.6933,neutral,right,,,,,,stimulusFile/magnitude.xlsx,,,,,,,,,,,,,,,,,,,,,,,,,,,,,,,
,,,,,,,,,,,,,,,679,2022-02-09_23h46.51.020,multiplicationStroop,2021.2.3,Win32,59.97720866,,,,,left,0,0.5173,0,71,71,25,1,3,4,3 | 4,1,1.9756,1.4111,incongruent,right,,,,,,stimulusFile/magnitude.xlsx,,,,,,,,,,,,,,,,,,,,,,,,,,,,,,,
,,,,,,,,,,,,,,,679,2022-02-09_23h46.51.020,multiplicationStroop,2021.2.3,Win32,59.97720866,,,,,,,,,,,,,,,,,,,,,0,1,1,0,1,stimulusFile/magnitude.xlsx,NUMERICALLY larger (larger coefficient).,images/numericallyLarger.png,,,,,,,,,,,,,,,,,,,,,,,,,,,,,
,,,,,,,,,,,,,,,679,2022-02-09_23h46.51.020,multiplicationStroop,2021.2.3,Win32,59.97720866,,,,,,,,,,,,,,,,,,,,,,,,,,,,,space,5.8732,space,1.3329,9,1.8149,1,0,0,0,29,1,3,×,3,3 × 3,neutral,tie,1.5,1.5,9,,,,,,,,
,,,,,,,,,,,,,,,679,2022-02-09_23h46.51.020,multiplicationStroop,2021.2.3,Win32,59.97720866,,,,,,,,,,,,,,,,,,,,,,,,,,,,,,,,,45,2.0829,1,0,1,1,10,1,5,×,9,5 × 9,neutral,smallerFirst,1.5,1.5,45,,,,,,,,
,,,,,,,,,,,,,,,679,2022-02-09_23h46.51.020,multiplicationStroop,2021.2.3,Win32,59.97720866,,,,,,,,,,,,,,,,,,,,,,,,,,,,,,,,,12,1.4996,1,0,2,2,25,1,6,×,2,6 × 2,neutral,largerFirst,1.5,1.5,12,,,,,,,,
,,,,,,,,,,,,,,,679,2022-02-09_23h46.51.020,multiplicationStroop,2021.2.3,Win32,59.97720866,,,,,,,,,,,,,,,,,,,,,,,,,,,,,,,,,81,3.3497,1,0,3,3,35,1,9,×,9,9 × 9,neutral,tie,1.5,1.5,81,,,,,,,,
,,,,,,,,,,,,,,,679,2022-02-09_23h46.51.020,multiplicationStroop,2021.2.3,Win32,59.97720866,,,,,,,,,,,,,,,,,,,,,,,,,,,,,,,,,36,2.3662,1,0,4,4,32,1,6,×,6,6 × 6,neutral,tie,1.5,1.5,36,,,,,,,,
,,,,,,,,,,,,,,,679,2022-02-09_23h46.51.020,multiplicationStroop,2021.2.3,Win32,59.97720866,,,,,,,,,,,,,,,,,,,,,,,,,,,,,,,,,15,1.6098,1,0,5,5,5,1,3,×,5,3 × 5,neutral,smallerFirst,1.5,1.5,15,,,,,,,,
,,,,,,,,,,,,,,,679,2022-02-09_23h46.51.020,multiplicationStroop,2021.2.3,Win32,59.97720866,,,,,,,,,,,,,,,,,,,,,,,,,,,,,,,,,8,1.4162,1,0,6,6,3,1,2,×,4,2 × 4,neutral,smallerFirst,1.5,1.5,8,,,,,,,,
,,,,,,,,,,,,,,,679,2022-02-09_23h46.51.020,multiplicationStroop,2021.2.3,Win32,59.97720866,,,,,,,,,,,,,,,,,,,,,,,,,,,,,,,,,30,1.6997,1,0,7,7,19,1,6,×,5,6 × 5,neutral,largerFirst,1.5,1.5,30,,,,,,,,
,,,,,,,,,,,,,,,679,2022-02-09_23h46.51.020,multiplicationStroop,2021.2.3,Win32,59.97720866,,,,,,,,,,,,,,,,,,,,,,,,,,,,,,,,,35,1.5329,1,0,8,8,1,1,5,×,7,5 × 7,neutral,smallerFirst,1.5,1.5,35,,,,,,,,
,,,,,,,,,,,,,,,679,2022-02-09_23h46.51.020,multiplicationStroop,2021.2.3,Win32,59.97720866,,,,,,,,,,,,,,,,,,,,,,,,,,,,,,,,,18,1.6331,1,0,9,9,0,1,3,×,6,3 × 6,neutral,smallerFirst,1.5,1.5,18,,,,,,,,
,,,,,,,,,,,,,,,679,2022-02-09_23h46.51.020,multiplicationStroop,2021.2.3,Win32,59.97720866,,,,,,,,,,,,,,,,,,,,,,,,,,,,,,,,,54,3.6995,1,0,10,10,7,1,6,×,9,6 × 9,neutral,smallerFirst,1.5,1.5,54,,,,,,,,
,,,,,,,,,,,,,,,679,2022-02-09_23h46.51.020,multiplicationStroop,2021.2.3,Win32,59.97720866,,,,,,,,,,,,,,,,,,,,,,,,,,,,,,,,,12,1.6999,1,0,11,11,21,1,4,×,3,4 × 3,neutral,largerFirst,1.5,1.5,12,,,,,,,,
,,,,,,,,,,,,,,,679,2022-02-09_23h46.51.020,multiplicationStroop,2021.2.3,Win32,59.97720866,,,,,,,,,,,,,,,,,,,,,,,,,,,,,,,,,18,1.5995,1,0,12,12,18,1,9,×,2,9 × 2,neutral,largerFirst,1.5,1.5,18,,,,,,,,
,,,,,,,,,,,,,,,679,2022-02-09_23h46.51.020,multiplicationStroop,2021.2.3,Win32,59.97720866,,,,,,,,,,,,,,,,,,,,,,,,,,,,,,,,,24,1.4662,1,0,13,13,22,1,8,×,3,8 × 3,neutral,largerFirst,1.5,1.5,24,,,,,,,,
,,,,,,,,,,,,,,,679,2022-02-09_23h46.51.020,multiplicationStroop,2021.2.3,Win32,59.97720866,,,,,,,,,,,,,,,,,,,,,,,,,,,,,,,,,49,1.9495,1,0,14,14,33,1,7,×,7,7 × 7,neutral,tie,1.5,1.5,49,,,,,,,,
,,,,,,,,,,,,,,,679,2022-02-09_23h46.51.020,multiplicationStroop,2021.2.3,Win32,59.97720866,,,,,,,,,,,,,,,,,,,,,,,,,,,,,,,,,72,1.8664,1,0,15,15,11,1,8,×,9,8 × 9,neutral,smallerFirst,1.5,1.5,72,,,,,,,,
,,,,,,,,,,,,,,,679,2022-02-09_23h46.51.020,multiplicationStroop,2021.2.3,Win32,59.97720866,,,,,,,,,,,,,,,,,,,,,,,,,,,,,,,,,56,1.4993,1,0,16,16,9,1,7,×,8,7 × 8,neutral,smallerFirst,1.5,1.5,56,,,,,,,,
,,,,,,,,,,,,,,,679,2022-02-09_23h46.51.020,multiplicationStroop,2021.2.3,Win32,59.97720866,,,,,,,,,,,,,,,,,,,,,,,,,,,,,,,,,42,3.6332,1,0,17,17,6,1,6,×,7,6 × 7,neutral,smallerFirst,1.5,1.5,42,,,,,,,,
,,,,,,,,,,,,,,,679,2022-02-09_23h46.51.020,multiplicationStroop,2021.2.3,Win32,59.97720866,,,,,,,,,,,,,,,,,,,,,,,,,,,,,,,,,20,1.66,1,0,18,18,20,1,5,×,4,5 × 4,neutral,largerFirst,1.5,1.5,20,,,,,,,,
,,,,,,,,,,,,,,,679,2022-02-09_23h46.51.020,multiplicationStroop,2021.2.3,Win32,59.97720866,,,,,,,,,,,,,,,,,,,,,,,,,,,,,,,,,27,1.6327,1,0,19,19,14,1,9,×,3,9 × 3,neutral,largerFirst,1.5,1.5,27,,,,,,,,
,,,,,,,,,,,,,,,679,2022-02-09_23h46.51.020,multiplicationStroop,2021.2.3,Win32,59.97720866,,,,,,,,,,,,,,,,,,,,,,,,,,,,,,,,,63,2.4329,1,0,20,20,12,1,7,×,9,7 × 9,neutral,smallerFirst,1.5,1.5,63,,,,,,,,
,,,,,,,,,,,,,,,679,2022-02-09_23h46.51.020,multiplicationStroop,2021.2.3,Win32,59.97720866,,,,,,,,,,,,,,,,,,,,,,,,,,,,,,,,,4,1.3832,1,0,21,21,28,1,2,×,2,2 × 2,neutral,tie,1.5,1.5,4,,,,,,,,
,,,,,,,,,,,,,,,679,2022-02-09_23h46.51.020,multiplicationStroop,2021.2.3,Win32,59.97720866,,,,,,,,,,,,,,,,,,,,,,,,,,,,,,,,,64,2.5828,1,0,22,22,34,1,8,×,8,8 × 8,neutral,tie,1.5,1.5,64,,,,,,,,
,,,,,,,,,,,,,,,679,2022-02-09_23h46.51.020,multiplicationStroop,2021.2.3,Win32,59.97720866,,,,,,,,,,,,,,,,,,,,,,,,,,,,,,,,,14,1.4665,1,0,23,23,16,1,7,×,2,7 × 2,neutral,largerFirst,1.5,1.5,14,,,,,,,,
,,,,,,,,,,,,,,,679,2022-02-09_23h46.51.020,multiplicationStroop,2021.2.3,Win32,59.97720866,,,,,,,,,,,,,,,,,,,,,,,,,,,,,,,,,6,1.4329,1,0,24,24,26,1,3,×,2,3 × 2,neutral,largerFirst,1.5,1.5,6,,,,,,,,
,,,,,,,,,,,,,,,679,2022-02-09_23h46.51.020,multiplicationStroop,2021.2.3,Win32,59.97720866,,,,,,,,,,,,,,,,,,,,,,,,,,,,,,,,,25,1.5997,1,0,25,25,31,1,5,×,5,5 × 5,neutral,tie,1.5,1.5,25,,,,,,,,
,,,,,,,,,,,,,,,679,2022-02-09_23h46.51.020,multiplicationStroop,2021.2.3,Win32,59.97720866,,,,,,,,,,,,,,,,,,,,,,,,,,,,,,,,,40,1.6498,1,0,26,26,24,1,8,×,5,8 × 5,neutral,largerFirst,1.5,1.5,40,,,,,,,,
,,,,,,,,,,,,,,,679,2022-02-09_23h46.51.020,multiplicationStroop,2021.2.3,Win32,59.97720866,,,,,,,,,,,,,,,,,,,,,,,,,,,,,,,,,21,1.6494,1,0,27,27,8,1,3,×,7,3 × 7,neutral,smallerFirst,1.5,1.5,21,,,,,,,,
,,,,,,,,,,,,,,,679,2022-02-09_23h46.51.020,multiplicationStroop,2021.2.3,Win32,59.97720866,,,,,,,,,,,,,,,,,,,,,,,,,,,,,,,,,28,1.7166,1,0,28,28,17,1,7,×,4,7 × 4,neutral,largerFirst,1.5,1.5,28,,,,,,,,
,,,,,,,,,,,,,,,679,2022-02-09_23h46.51.020,multiplicationStroop,2021.2.3,Win32,59.97720866,,,,,,,,,,,,,,,,,,,,,,,,,,,,,,,,,10,1.583,1,0,29,29,4,1,2,×,5,2 × 5,neutral,smallerFirst,1.5,1.5,10,,,,,,,,
,,,,,,,,,,,,,,,679,2022-02-09_23h46.51.020,multiplicationStroop,2021.2.3,Win32,59.97720866,,,,,,,,,,,,,,,,,,,,,,,,,,,,,,,,,32,1.4664,1,0,30,30,23,1,8,×,4,8 × 4,neutral,largerFirst,1.5,1.5,32,,,,,,,,
,,,,,,,,,,,,,,,679,2022-02-09_23h46.51.020,multiplicationStroop,2021.2.3,Win32,59.97720866,,,,,,,,,,,,,,,,,,,,,,,,,,,,,,,,,48,1.8495,1,0,31,31,15,1,8,×,6,8 × 6,neutral,largerFirst,1.5,1.5,48,,,,,,,,
,,,,,,,,,,,,,,,679,2022-02-09_23h46.51.020,multiplicationStroop,2021.2.3,Win32,59.97720866,,,,,,,,,,,,,,,,,,,,,,,,,,,,,,,,,16,1.4999,1,0,32,32,13,1,2,×,8,2 × 8,neutral,smallerFirst,1.5,1.5,16,,,,,,,,
,,,,,,,,,,,,,,,679,2022-02-09_23h46.51.020,multiplicationStroop,2021.2.3,Win32,59.97720866,,,,,,,,,,,,,,,,,,,,,,,,,,,,,,,,,24,1.4665,1,0,33,33,2,1,4,×,6,4 × 6,neutral,smallerFirst,1.5,1.5,24,,,,,,,,
,,,,,,,,,,,,,,,679,2022-02-09_23h46.51.020,multiplicationStroop,2021.2.3,Win32,59.97720866,,,,,,,,,,,,,,,,,,,,,,,,,,,,,,,,,36,1.6162,1,0,34,34,27,1,9,×,4,9 × 4,neutral,largerFirst,1.5,1.5,36,,,,,,,,
,,,,,,,,,,,,,,,679,2022-02-09_23h46.51.020,multiplicationStroop,2021.2.3,Win32,59.97720866,,,,,,,,,,,,,,,,,,,,,,,,,,,,,,,,,16,1.7828,1,0,35,35,30,1,4,×,4,4 × 4,neutral,tie,1.5,1.5,16,,,,,,,,
,,,,,,,,,,,,,,,679,2022-02-09_23h46.51.020,multiplicationStroop,2021.2.3,Win32,59.97720866,,,,,,,,,,,,,,,,,,,,,,,,,,,,,,,,,,,,,,,,,,,,,,,,,,0,0,0,1,1,stimulusFile/mult_blk2.xlsx,,
,,,,,,,,,,,,,,,679,2022-02-09_23h46.51.020,multiplicationStroop,2021.2.3,Win32,59.97720866,,,,,,,,,,,,,,,,,,,,,,,,,,,,,,,space,3.4302,25,2.1933,1,0,0,0,31,1,5,×,5,5 × 5,incongruent,tie,1,2,25,,,,,,,,
,,,,,,,,,,,,,,,679,2022-02-09_23h46.51.020,multiplicationStroop,2021.2.3,Win32,59.97720866,,,,,,,,,,,,,,,,,,,,,,,,,,,,,,,,,42,2.3663,1,0,1,1,17,1,7,×,6,7 × 6,incongruent,largerFirst,1,2,42,,,,,,,,
,,,,,,,,,,,,,,,679,2022-02-09_23h46.51.020,multiplicationStroop,2021.2.3,Win32,59.97720866,,,,,,,,,,,,,,,,,,,,,,,,,,,,,,,,,6,1.4595,1,0,2,2,11,1,2,×,3,2 × 3,incongruent,smallerFirst,2,1,6,,,,,,,,
,,,,,,,,,,,,,,,679,2022-02-09_23h46.51.020,multiplicationStroop,2021.2.3,Win32,59.97720866,,,,,,,,,,,,,,,,,,,,,,,,,,,,,,,,,54,2.1498,1,0,3,3,6,1,6,×,9,6 × 9,incongruent,smallerFirst,2,1,54,,,,,,,,
,,,,,,,,,,,,,,,679,2022-02-09_23h46.51.020,multiplicationStroop,2021.2.3,Win32,59.97720866,,,,,,,,,,,,,,,,,,,,,,,,,,,,,,,,,9,1.4498,1,0,4,4,29,1,3,×,3,3 × 3,incongruent,tie,1,2,9,,,,,,,,
,,,,,,,,,,,,,,,679,2022-02-09_23h46.51.020,multiplicationStroop,2021.2.3,Win32,59.97720866,,,,,,,,,,,,,,,,,,,,,,,,,,,,,,,,,27,1.6329,1,0,5,5,18,1,9,×,3,9 × 3,incongruent,largerFirst,1,2,27,,,,,,,,
,,,,,,,,,,,,,,,679,2022-02-09_23h46.51.020,multiplicationStroop,2021.2.3,Win32,59.97720866,,,,,,,,,,,,,,,,,,,,,,,,,,,,,,,,,36,1.7995,1,0,6,6,32,1,6,×,6,6 × 6,incongruent,tie,1,2,36,,,,,,,,
,,,,,,,,,,,,,,,679,2022-02-09_23h46.51.020,multiplicationStroop,2021.2.3,Win32,59.97720866,,,,,,,,,,,,,,,,,,,,,,,,,,,,,,,,,82,1.9495,0,0,7,7,23,1,8,×,2,8 × 2,incongruent,largerFirst,1,2,16,,,,,,,,
,,,,,,,,,,,,,,,679,2022-02-09_23h46.51.020,multiplicationStroop,2021.2.3,Win32,59.97720866,,,,,,,,,,,,,,,,,,,,,,,,,,,,,,,,,12,1.583,1,0,8,8,19,1,6,×,2,6 × 2,incongruent,largerFirst,1,2,12,,,,,,,,
,,,,,,,,,,,,,,,679,2022-02-09_23h46.51.020,multiplicationStroop,2021.2.3,Win32,59.97720866,,,,,,,,,,,,,,,,,,,,,,,,,,,,,,,,,64,1.9998,1,0,9,9,34,1,8,×,8,8 × 8,incongruent,tie,1,2,64,,,,,,,,
,,,,,,,,,,,,,,,679,2022-02-09_23h46.51.020,multiplicationStroop,2021.2.3,Win32,59.97720866,,,,,,,,,,,,,,,,,,,,,,,,,,,,,,,,,20,1.6663,1,0,10,10,27,1,5,×,4,5 × 4,incongruent,largerFirst,1,2,20,,,,,,,,
,,,,,,,,,,,,,,,679,2022-02-09_23h46.51.020,multiplicationStroop,2021.2.3,Win32,59.97720866,,,,,,,,,,,,,,,,,,,,,,,,,,,,,,,,,72,1.9664,1,0,11,11,0,1,8,×,9,8 × 9,incongruent,smallerFirst,2,1,72,,,,,,,,
,,,,,,,,,,,,,,,679,2022-02-09_23h46.51.020,multiplicationStroop,2021.2.3,Win32,59.97720866,,,,,,,,,,,,,,,,,,,,,,,,,,,,,,,,,32,1.5497,1,0,12,12,7,1,4,×,8,4 × 8,incongruent,smallerFirst,2,1,32,,,,,,,,
,,,,,,,,,,,,,,,679,2022-02-09_23h46.51.020,multiplicationStroop,2021.2.3,Win32,59.97720866,,,,,,,,,,,,,,,,,,,,,,,,,,,,,,,,,14,1.633,1,0,13,13,4,1,2,×,7,2 × 7,incongruent,smallerFirst,2,1,14,,,,,,,,
,,,,,,,,,,,,,,,679,2022-02-09_23h46.51.020,multiplicationStroop,2021.2.3,Win32,59.97720866,,,,,,,,,,,,,,,,,,,,,,,,,,,,,,,,,16,1.783,1,0,14,14,30,1,4,×,4,4 × 4,incongruent,tie,1,2,16,,,,,,,,
,,,,,,,,,,,,,,,679,2022-02-09_23h46.51.020,multiplicationStroop,2021.2.3,Win32,59.97720866,,,,,,,,,,,,,,,,,,,,,,,,,,,,,,,,,56,1.6996,1,0,15,15,14,1,8,×,7,8 × 7,incongruent,largerFirst,1,2,56,,,,,,,,
,,,,,,,,,,,,,,,679,2022-02-09_23h46.51.020,multiplicationStroop,2021.2.3,Win32,59.97720866,,,,,,,,,,,,,,,,,,,,,,,,,,,,,,,,,18,1.5999,1,0,16,16,2,1,2,×,9,2 × 9,incongruent,smallerFirst,2,1,18,,,,,,,,
,,,,,,,,,,,,,,,679,2022-02-09_23h46.51.020,multiplicationStroop,2021.2.3,Win32,59.97720866,,,,,,,,,,,,,,,,,,,,,,,,,,,,,,,,,18,1.9162,1,0,17,17,8,1,3,×,6,3 × 6,incongruent,smallerFirst,2,1,18,,,,,,,,
,,,,,,,,,,,,,,,679,2022-02-09_23h46.51.020,multiplicationStroop,2021.2.3,Win32,59.97720866,,,,,,,,,,,,,,,,,,,,,,,,,,,,,,,,,81,2.1664,1,0,18,18,35,1,9,×,9,9 × 9,incongruent,tie,1,2,81,,,,,,,,
,,,,,,,,,,,,,,,679,2022-02-09_23h46.51.020,multiplicationStroop,2021.2.3,Win32,59.97720866,,,,,,,,,,,,,,,,,,,,,,,,,,,,,,,,,30,1.6093,1,0,19,19,25,1,6,×,5,6 × 5,incongruent,largerFirst,1,2,30,,,,,,,,
,,,,,,,,,,,,,,,679,2022-02-09_23h46.51.020,multiplicationStroop,2021.2.3,Win32,59.97720866,,,,,,,,,,,,,,,,,,,,,,,,,,,,,,,,,12,1.3166,1,0,20,20,5,1,3,×,4,3 × 4,incongruent,smallerFirst,2,1,12,,,,,,,,
,,,,,,,,,,,,,,,679,2022-02-09_23h46.51.020,multiplicationStroop,2021.2.3,Win32,59.97720866,,,,,,,,,,,,,,,,,,,,,,,,,,,,,,,,,35,1.6828,1,0,21,21,12,1,5,×,7,5 × 7,incongruent,smallerFirst,2,1,35,,,,,,,,
,,,,,,,,,,,,,,,679,2022-02-09_23h46.51.020,multiplicationStroop,2021.2.3,Win32,59.97720866,,,,,,,,,,,,,,,,,,,,,,,,,,,,,,,,,49,2.4998,1,0,22,22,33,1,7,×,7,7 × 7,incongruent,tie,1,2,49,,,,,,,,
,,,,,,,,,,,,,,,679,2022-02-09_23h46.51.020,multiplicationStroop,2021.2.3,Win32,59.97720866,,,,,,,,,,,,,,,,,,,,,,,,,,,,,,,,,63,3.7498,1,0,23,23,3,1,7,×,9,7 × 9,incongruent,smallerFirst,2,1,63,,,,,,,,
,,,,,,,,,,,,,,,679,2022-02-09_23h46.51.020,multiplicationStroop,2021.2.3,Win32,59.97720866,,,,,,,,,,,,,,,,,,,,,,,,,,,,,,,,,24,3.36,1,0,24,24,20,1,6,×,4,6 × 4,incongruent,largerFirst,1,2,24,,,,,,,,
,,,,,,,,,,,,,,,679,2022-02-09_23h46.51.020,multiplicationStroop,2021.2.3,Win32,59.97720866,,,,,,,,,,,,,,,,,,,,,,,,,,,,,,,,,21,1.3598,1,0,25,25,26,1,7,×,3,7 × 3,incongruent,largerFirst,1,2,21,,,,,,,,
,,,,,,,,,,,,,,,679,2022-02-09_23h46.51.020,multiplicationStroop,2021.2.3,Win32,59.97720866,,,,,,,,,,,,,,,,,,,,,,,,,,,,,,,,,10,1.5162,1,0,26,26,21,1,5,×,2,5 × 2,incongruent,largerFirst,1,2,10,,,,,,,,
,,,,,,,,,,,,,,,679,2022-02-09_23h46.51.020,multiplicationStroop,2021.2.3,Win32,59.97720866,,,,,,,,,,,,,,,,,,,,,,,,,,,,,,,,,24,1.6997,1,0,27,27,9,1,3,×,8,3 × 8,incongruent,smallerFirst,2,1,24,,,,,,,,
,,,,,,,,,,,,,,,679,2022-02-09_23h46.51.020,multiplicationStroop,2021.2.3,Win32,59.97720866,,,,,,,,,,,,,,,,,,,,,,,,,,,,,,,,,4,1.2996,1,0,28,28,28,1,2,×,2,2 × 2,incongruent,tie,1,2,4,,,,,,,,
,,,,,,,,,,,,,,,679,2022-02-09_23h46.51.020,multiplicationStroop,2021.2.3,Win32,59.97720866,,,,,,,,,,,,,,,,,,,,,,,,,,,,,,,,,28,1.5664,1,0,29,29,16,1,7,×,4,7 × 4,incongruent,largerFirst,1,2,28,,,,,,,,
,,,,,,,,,,,,,,,679,2022-02-09_23h46.51.020,multiplicationStroop,2021.2.3,Win32,59.97720866,,,,,,,,,,,,,,,,,,,,,,,,,,,,,,,,,8,1.6329,1,0,30,30,24,1,4,×,2,4 × 2,incongruent,largerFirst,1,2,8,,,,,,,,
,,,,,,,,,,,,,,,679,2022-02-09_23h46.51.020,multiplicationStroop,2021.2.3,Win32,59.97720866,,,,,,,,,,,,,,,,,,,,,,,,,,,,,,,,,48,1.8999,1,0,31,31,1,1,6,×,8,6 × 8,incongruent,smallerFirst,2,1,48,,,,,,,,
,,,,,,,,,,,,,,,679,2022-02-09_23h46.51.020,multiplicationStroop,2021.2.3,Win32,59.97720866,,,,,,,,,,,,,,,,,,,,,,,,,,,,,,,,,40,2.1494,1,0,32,32,13,1,5,×,8,5 × 8,incongruent,smallerFirst,2,1,40,,,,,,,,
,,,,,,,,,,,,,,,679,2022-02-09_23h46.51.020,multiplicationStroop,2021.2.3,Win32,59.97720866,,,,,,,,,,,,,,,,,,,,,,,,,,,,,,,,,45,1.5498,1,0,33,33,22,1,9,×,5,9 × 5,incongruent,largerFirst,1,2,45,,,,,,,,
,,,,,,,,,,,,,,,679,2022-02-09_23h46.51.020,multiplicationStroop,2021.2.3,Win32,59.97720866,,,,,,,,,,,,,,,,,,,,,,,,,,,,,,,,,15,1.5495,1,0,34,34,10,1,3,×,5,3 × 5,incongruent,smallerFirst,2,1,15,,,,,,,,
,,,,,,,,,,,,,,,679,2022-02-09_23h46.51.020,multiplicationStroop,2021.2.3,Win32,59.97720866,,,,,,,,,,,,,,,,,,,,,,,,,,,,,,,,,36,1.6665,1,0,35,35,15,1,9,×,4,9 × 4,incongruent,largerFirst,1,2,36,,,,,,,,
,,,,,,,,,,,,,,,679,2022-02-09_23h46.51.020,multiplicationStroop,2021.2.3,Win32,59.97720866,,,,,,,,,,,,,,,,,,,,,,,,,,,,,,,,,,,,,,,,,,,,,,,,,,0,1,1,5,1,stimulusFile/mult_blk6_INcongruent.xlsx,,
,,,,,,,,,,,,,,,679,2022-02-09_23h46.51.020,multiplicationStroop,2021.2.3,Win32,59.97720866,,,,,,,,,,,,,,,,,,,,,,,,,,,,,,,space,1.4746,25,1.5605,1,0,0,0,31,1,5,×,5,5 × 5,neutral,tie,1.5,1.5,25,,,,,,,,
,,,,,,,,,,,,,,,679,2022-02-09_23h46.51.020,multiplicationStroop,2021.2.3,Win32,59.97720866,,,,,,,,,,,,,,,,,,,,,,,,,,,,,,,,,18,1.6661,1,0,1,1,4,1,2,×,9,2 × 9,neutral,smallerFirst,1.5,1.5,18,,,,,,,,
,,,,,,,,,,,,,,,679,2022-02-09_23h46.51.020,multiplicationStroop,2021.2.3,Win32,59.97720866,,,,,,,,,,,,,,,,,,,,,,,,,,,,,,,,,42,2.333,1,0,2,2,20,1,7,×,6,7 × 6,neutral,largerFirst,1.5,1.5,42,,,,,,,,
,,,,,,,,,,,,,,,679,2022-02-09_23h46.51.020,multiplicationStroop,2021.2.3,Win32,59.97720866,,,,,,,,,,,,,,,,,,,,,,,,,,,,,,,,,54,1.6996,1,0,3,3,21,1,9,×,6,9 × 6,neutral,largerFirst,1.5,1.5,54,,,,,,,,
,,,,,,,,,,,,,,,679,2022-02-09_23h46.51.020,multiplicationStroop,2021.2.3,Win32,59.97720866,,,,,,,,,,,,,,,,,,,,,,,,,,,,,,,,,10,1.6329,1,0,4,4,18,1,5,×,2,5 × 2,neutral,largerFirst,1.5,1.5,10,,,,,,,,
,,,,,,,,,,,,,,,679,2022-02-09_23h46.51.020,multiplicationStroop,2021.2.3,Win32,59.97720866,,,,,,,,,,,,,,,,,,,,,,,,,,,,,,,,,12,1.3331,1,0,5,5,7,1,3,×,4,3 × 4,neutral,smallerFirst,1.5,1.5,12,,,,,,,,
,,,,,,,,,,,,,,,679,2022-02-09_23h46.51.020,multiplicationStroop,2021.2.3,Win32,59.97720866,,,,,,,,,,,,,,,,,,,,,,,,,,,,,,,,,48,1.7328,1,0,6,6,1,1,6,×,8,6 × 8,neutral,smallerFirst,1.5,1.5,48,,,,,,,,
,,,,,,,,,,,,,,,679,2022-02-09_23h46.51.020,multiplicationStroop,2021.2.3,Win32,59.97720866,,,,,,,,,,,,,,,,,,,,,,,,,,,,,,,,,16,1.5165,1,0,7,7,27,1,8,×,2,8 × 2,neutral,largerFirst,1.5,1.5,16,,,,,,,,
,,,,,,,,,,,,,,,679,2022-02-09_23h46.51.020,multiplicationStroop,2021.2.3,Win32,59.97720866,,,,,,,,,,,,,,,,,,,,,,,,,,,,,,,,,40,1.583,1,0,8,8,10,1,5,×,8,5 × 8,neutral,smallerFirst,1.5,1.5,40,,,,,,,,
,,,,,,,,,,,,,,,679,2022-02-09_23h46.51.020,multiplicationStroop,2021.2.3,Win32,59.97720866,,,,,,,,,,,,,,,,,,,,,,,,,,,,,,,,,24,1.6329,1,0,9,9,8,1,3,×,8,3 × 8,neutral,smallerFirst,1.5,1.5,24,,,,,,,,
,,,,,,,,,,,,,,,679,2022-02-09_23h46.51.020,multiplicationStroop,2021.2.3,Win32,59.97720866,,,,,,,,,,,,,,,,,,,,,,,,,,,,,,,,,30,1.5663,1,0,10,10,5,1,5,×,6,5 × 6,neutral,smallerFirst,1.5,1.5,30,,,,,,,,
,,,,,,,,,,,,,,,679,2022-02-09_23h46.51.020,multiplicationStroop,2021.2.3,Win32,59.97720866,,,,,,,,,,,,,,,,,,,,,,,,,,,,,,,,,14,1.3998,1,0,11,11,2,1,2,×,7,2 × 7,neutral,smallerFirst,1.5,1.5,14,,,,,,,,
,,,,,,,,,,,,,,,679,2022-02-09_23h46.51.020,multiplicationStroop,2021.2.3,Win32,59.97720866,,,,,,,,,,,,,,,,,,,,,,,,,,,,,,,,,28,1.7162,1,0,12,12,3,1,4,×,7,4 × 7,neutral,smallerFirst,1.5,1.5,28,,,,,,,,
,,,,,,,,,,,,,,,679,2022-02-09_23h46.51.020,multiplicationStroop,2021.2.3,Win32,59.97720866,,,,,,,,,,,,,,,,,,,,,,,,,,,,,,,,,20,1.5498,1,0,13,13,6,1,4,×,5,4 × 5,neutral,smallerFirst,1.5,1.5,20,,,,,,,,
,,,,,,,,,,,,,,,679,2022-02-09_23h46.51.020,multiplicationStroop,2021.2.3,Win32,59.97720866,,,,,,,,,,,,,,,,,,,,,,,,,,,,,,,,,18,1.5662,1,0,14,14,14,1,6,×,3,6 × 3,neutral,largerFirst,1.5,1.5,18,,,,,,,,
,,,,,,,,,,,,,,,679,2022-02-09_23h46.51.020,multiplicationStroop,2021.2.3,Win32,59.97720866,,,,,,,,,,,,,,,,,,,,,,,,,,,,,,,,,15,1.6665,1,0,15,15,19,1,5,×,3,5 × 3,neutral,largerFirst,1.5,1.5,15,,,,,,,,
,,,,,,,,,,,,,,,679,2022-02-09_23h46.51.020,multiplicationStroop,2021.2.3,Win32,59.97720866,,,,,,,,,,,,,,,,,,,,,,,,,,,,,,,,,8,1.533,1,0,16,16,17,1,4,×,2,4 × 2,neutral,largerFirst,1.5,1.5,8,,,,,,,,
,,,,,,,,,,,,,,,679,2022-02-09_23h46.51.020,multiplicationStroop,2021.2.3,Win32,59.97720866,,,,,,,,,,,,,,,,,,,,,,,,,,,,,,,,,4,1.1664,1,0,17,17,28,1,2,×,2,2 × 2,neutral,tie,1.5,1.5,4,,,,,,,,
,,,,,,,,,,,,,,,679,2022-02-09_23h46.51.020,multiplicationStroop,2021.2.3,Win32,59.97720866,,,,,,,,,,,,,,,,,,,,,,,,,,,,,,,,,32,2.166,1,0,18,18,9,1,4,×,8,4 × 8,neutral,smallerFirst,1.5,1.5,32,,,,,,,,
,,,,,,,,,,,,,,,679,2022-02-09_23h46.51.020,multiplicationStroop,2021.2.3,Win32,59.97720866,,,,,,,,,,,,,,,,,,,,,,,,,,,,,,,,,64,1.5997,1,0,19,19,34,1,8,×,8,8 × 8,neutral,tie,1.5,1.5,64,,,,,,,,
,,,,,,,,,,,,,,,679,2022-02-09_23h46.51.020,multiplicationStroop,2021.2.3,Win32,59.97720866,,,,,,,,,,,,,,,,,,,,,,,,,,,,,,,,,63,3.7166,1,0,20,20,26,1,9,×,7,9 × 7,neutral,largerFirst,1.5,1.5,63,,,,,,,,
,,,,,,,,,,,,,,,679,2022-02-09_23h46.51.020,multiplicationStroop,2021.2.3,Win32,59.97720866,,,,,,,,,,,,,,,,,,,,,,,,,,,,,,,,,45,2.1097,1,0,21,21,24,1,9,×,5,9 × 5,neutral,largerFirst,1.5,1.5,45,,,,,,,,
,,,,,,,,,,,,,,,679,2022-02-09_23h46.51.020,multiplicationStroop,2021.2.3,Win32,59.97720866,,,,,,,,,,,,,,,,,,,,,,,,,,,,,,,,,81,1.4666,1,0,22,22,35,1,9,×,9,9 × 9,neutral,tie,1.5,1.5,81,,,,,,,,
,,,,,,,,,,,,,,,679,2022-02-09_23h46.51.020,multiplicationStroop,2021.2.3,Win32,59.97720866,,,,,,,,,,,,,,,,,,,,,,,,,,,,,,,,,36,1.6664,1,0,23,23,32,1,6,×,6,6 × 6,neutral,tie,1.5,1.5,36,,,,,,,,
,,,,,,,,,,,,,,,679,2022-02-09_23h46.51.020,multiplicationStroop,2021.2.3,Win32,59.97720866,,,,,,,,,,,,,,,,,,,,,,,,,,,,,,,,,36,3.5494,1,0,24,24,13,1,4,×,9,4 × 9,neutral,smallerFirst,1.5,1.5,36,,,,,,,,
,,,,,,,,,,,,,,,679,2022-02-09_23h46.51.020,multiplicationStroop,2021.2.3,Win32,59.97720866,,,,,,,,,,,,,,,,,,,,,,,,,,,,,,,,,72,1.8933,1,0,25,25,25,1,9,×,8,9 × 8,neutral,largerFirst,1.5,1.5,72,,,,,,,,
,,,,,,,,,,,,,,,679,2022-02-09_23h46.51.020,multiplicationStroop,2021.2.3,Win32,59.97720866,,,,,,,,,,,,,,,,,,,,,,,,,,,,,,,,,27,1.8997,1,0,26,26,0,1,3,×,9,3 × 9,neutral,smallerFirst,1.5,1.5,27,,,,,,,,
,,,,,,,,,,,,,,,679,2022-02-09_23h46.51.020,multiplicationStroop,2021.2.3,Win32,59.97720866,,,,,,,,,,,,,,,,,,,,,,,,,,,,,,,,,21,1.3663,1,0,27,27,22,1,7,×,3,7 × 3,neutral,largerFirst,1.5,1.5,21,,,,,,,,
,,,,,,,,,,,,,,,679,2022-02-09_23h46.51.020,multiplicationStroop,2021.2.3,Win32,59.97720866,,,,,,,,,,,,,,,,,,,,,,,,,,,,,,,,,12,1.983,1,0,28,28,11,1,2,×,6,2 × 6,neutral,smallerFirst,1.5,1.5,12,,,,,,,,
,,,,,,,,,,,,,,,679,2022-02-09_23h46.51.020,multiplicationStroop,2021.2.3,Win32,59.97720866,,,,,,,,,,,,,,,,,,,,,,,,,,,,,,,,,16,1.5996,1,0,29,29,30,1,4,×,4,4 × 4,neutral,tie,1.5,1.5,16,,,,,,,,
,,,,,,,,,,,,,,,679,2022-02-09_23h46.51.020,multiplicationStroop,2021.2.3,Win32,59.97720866,,,,,,,,,,,,,,,,,,,,,,,,,,,,,,,,,56,1.6833,1,0,30,30,23,1,8,×,7,8 × 7,neutral,largerFirst,1.5,1.5,56,,,,,,,,
,,,,,,,,,,,,,,,679,2022-02-09_23h46.51.020,multiplicationStroop,2021.2.3,Win32,59.97720866,,,,,,,,,,,,,,,,,,,,,,,,,,,,,,,,,49,1.7495,1,0,31,31,33,1,7,×,7,7 × 7,neutral,tie,1.5,1.5,49,,,,,,,,
,,,,,,,,,,,,,,,679,2022-02-09_23h46.51.020,multiplicationStroop,2021.2.3,Win32,59.97720866,,,,,,,,,,,,,,,,,,,,,,,,,,,,,,,,,9,1.583,1,0,32,32,29,1,3,×,3,3 × 3,neutral,tie,1.5,1.5,9,,,,,,,,
,,,,,,,,,,,,,,,679,2022-02-09_23h46.51.020,multiplicationStroop,2021.2.3,Win32,59.97720866,,,,,,,,,,,,,,,,,,,,,,,,,,,,,,,,,35,2.5996,1,0,33,33,15,1,7,×,5,7 × 5,neutral,largerFirst,1.5,1.5,35,,,,,,,,
,,,,,,,,,,,,,,,679,2022-02-09_23h46.51.020,multiplicationStroop,2021.2.3,Win32,59.97720866,,,,,,,,,,,,,,,,,,,,,,,,,,,,,,,,,6,1.2995,1,0,34,34,12,1,2,×,3,2 × 3,neutral,smallerFirst,1.5,1.5,6,,,,,,,,
,,,,,,,,,,,,,,,679,2022-02-09_23h46.51.020,multiplicationStroop,2021.2.3,Win32,59.97720866,,,,,,,,,,,,,,,,,,,,,,,,,,,,,,,,,24,1.4497,1,0,35,35,16,1,6,×,4,6 × 4,neutral,largerFirst,1.5,1.5,24,,,,,,,,
,,,,,,,,,,,,,,,679,2022-02-09_23h46.51.020,multiplicationStroop,2021.2.3,Win32,59.97720866,,,,,,,,,,,,,,,,,,,,,,,,,,,,,,,,,,,,,,,,,,,,,,,,,,0,2,2,0,1,stimulusFile/mult_blk1.xlsx,,
,,,,,,,,,,,,,,,679,2022-02-09_23h46.51.020,multiplicationStroop,2021.2.3,Win32,59.97720866,,,,,,,,,,,,,,,,,,,,,,,,,,,,,,,space,0.9614,35,1.7276,1,0,0,0,1,1,5,×,7,5 × 7,congruent,smallerFirst,1,2,35,,,,,,,,
,,,,,,,,,,,,,,,679,2022-02-09_23h46.51.020,multiplicationStroop,2021.2.3,Win32,59.97720866,,,,,,,,,,,,,,,,,,,,,,,,,,,,,,,,,42,1.6329,1,0,1,1,3,1,6,×,7,6 × 7,congruent,smallerFirst,1,2,42,,,,,,,,
,,,,,,,,,,,,,,,679,2022-02-09_23h46.51.020,multiplicationStroop,2021.2.3,Win32,59.97720866,,,,,,,,,,,,,,,,,,,,,,,,,,,,,,,,,36,1.9331,1,0,2,2,32,1,6,×,6,6 × 6,neutral,tie,2,1,36,,,,,,,,
,,,,,,,,,,,,,,,679,2022-02-09_23h46.51.020,multiplicationStroop,2021.2.3,Win32,59.97720866,,,,,,,,,,,,,,,,,,,,,,,,,,,,,,,,,48,2.1163,1,0,3,3,18,1,8,×,6,8 × 6,congruent,largerFirst,2,1,48,,,,,,,,
,,,,,,,,,,,,,,,679,2022-02-09_23h46.51.020,multiplicationStroop,2021.2.3,Win32,59.97720866,,,,,,,,,,,,,,,,,,,,,,,,,,,,,,,,,24,1.5331,1,0,4,4,10,1,3,×,8,3 × 8,congruent,smallerFirst,1,2,24,,,,,,,,
,,,,,,,,,,,,,,,679,2022-02-09_23h46.51.020,multiplicationStroop,2021.2.3,Win32,59.97720866,,,,,,,,,,,,,,,,,,,,,,,,,,,,,,,,,56,1.9663,1,0,5,5,8,1,7,×,8,7 × 8,congruent,smallerFirst,1,2,56,,,,,,,,
,,,,,,,,,,,,,,,679,2022-02-09_23h46.51.020,multiplicationStroop,2021.2.3,Win32,59.97720866,,,,,,,,,,,,,,,,,,,,,,,,,,,,,,,,,16,2.566,1,0,6,6,5,1,2,×,8,2 × 8,congruent,smallerFirst,1,2,16,,,,,,,,
,,,,,,,,,,,,,,,679,2022-02-09_23h46.51.020,multiplicationStroop,2021.2.3,Win32,59.97720866,,,,,,,,,,,,,,,,,,,,,,,,,,,,,,,,,45,2.3935,1,0,7,7,23,1,9,×,5,9 × 5,congruent,largerFirst,2,1,45,,,,,,,,
,,,,,,,,,,,,,,,679,2022-02-09_23h46.51.020,multiplicationStroop,2021.2.3,Win32,59.97720866,,,,,,,,,,,,,,,,,,,,,,,,,,,,,,,,,81,1.5666,1,0,8,8,35,1,9,×,9,9 × 9,neutral,tie,2,1,81,,,,,,,,
,,,,,,,,,,,,,,,679,2022-02-09_23h46.51.020,multiplicationStroop,2021.2.3,Win32,59.97720866,,,,,,,,,,,,,,,,,,,,,,,,,,,,,,,,,12,1.7164,1,0,9,9,19,1,6,×,2,6 × 2,congruent,largerFirst,2,1,12,,,,,,,,
,,,,,,,,,,,,,,,679,2022-02-09_23h46.51.020,multiplicationStroop,2021.2.3,Win32,59.97720866,,,,,,,,,,,,,,,,,,,,,,,,,,,,,,,,,9,1.4329,1,0,10,10,29,1,3,×,3,3 × 3,neutral,tie,2,1,9,,,,,,,,
,,,,,,,,,,,,,,,679,2022-02-09_23h46.51.020,multiplicationStroop,2021.2.3,Win32,59.97720866,,,,,,,,,,,,,,,,,,,,,,,,,,,,,,,,,32,2.0496,1,0,11,11,20,1,8,×,4,8 × 4,congruent,largerFirst,2,1,32,,,,,,,,
,,,,,,,,,,,,,,,679,2022-02-09_23h46.51.020,multiplicationStroop,2021.2.3,Win32,59.97720866,,,,,,,,,,,,,,,,,,,,,,,,,,,,,,,,,63,4.0333,1,0,12,12,21,1,9,×,7,9 × 7,congruent,largerFirst,2,1,63,,,,,,,,
,,,,,,,,,,,,,,,679,2022-02-09_23h46.51.020,multiplicationStroop,2021.2.3,Win32,59.97720866,,,,,,,,,,,,,,,,,,,,,,,,,,,,,,,,,18,1.6101,1,0,13,13,11,1,3,×,6,3 × 6,congruent,smallerFirst,1,2,18,,,,,,,,
,,,,,,,,,,,,,,,679,2022-02-09_23h46.51.020,multiplicationStroop,2021.2.3,Win32,59.97720866,,,,,,,,,,,,,,,,,,,,,,,,,,,,,,,,,16,1.5831,1,0,14,14,30,1,4,×,4,4 × 4,neutral,tie,2,1,16,,,,,,,,
,,,,,,,,,,,,,,,679,2022-02-09_23h46.51.020,multiplicationStroop,2021.2.3,Win32,59.97720866,,,,,,,,,,,,,,,,,,,,,,,,,,,,,,,,,28,2.3494,1,0,15,15,27,1,7,×,4,7 × 4,congruent,largerFirst,2,1,28,,,,,,,,
,,,,,,,,,,,,,,,679,2022-02-09_23h46.51.020,multiplicationStroop,2021.2.3,Win32,59.97720866,,,,,,,,,,,,,,,,,,,,,,,,,,,,,,,,,27,1.7164,1,0,16,16,26,1,9,×,3,9 × 3,congruent,largerFirst,2,1,27,,,,,,,,
,,,,,,,,,,,,,,,679,2022-02-09_23h46.51.020,multiplicationStroop,2021.2.3,Win32,59.97720866,,,,,,,,,,,,,,,,,,,,,,,,,,,,,,,,,20,1.4664,1,0,17,17,7,1,4,×,5,4 × 5,congruent,smallerFirst,1,2,20,,,,,,,,
,,,,,,,,,,,,,,,679,2022-02-09_23h46.51.020,multiplicationStroop,2021.2.3,Win32,59.97720866,,,,,,,,,,,,,,,,,,,,,,,,,,,,,,,,,36,1.6498,1,0,18,18,0,1,4,×,9,4 × 9,congruent,smallerFirst,1,2,36,,,,,,,,
,,,,,,,,,,,,,,,679,2022-02-09_23h46.51.020,multiplicationStroop,2021.2.3,Win32,59.97720866,,,,,,,,,,,,,,,,,,,,,,,,,,,,,,,,,40,1.7995,1,0,19,19,6,1,5,×,8,5 × 8,congruent,smallerFirst,1,2,40,,,,,,,,
,,,,,,,,,,,,,,,679,2022-02-09_23h46.51.020,multiplicationStroop,2021.2.3,Win32,59.97720866,,,,,,,,,,,,,,,,,,,,,,,,,,,,,,,,,49,2.6996,1,0,20,20,33,1,7,×,7,7 × 7,neutral,tie,2,1,49,,,,,,,,
,,,,,,,,,,,,,,,679,2022-02-09_23h46.51.020,multiplicationStroop,2021.2.3,Win32,59.97720866,,,,,,,,,,,,,,,,,,,,,,,,,,,,,,,,,21,1.3764,1,0,21,21,16,1,7,×,3,7 × 3,congruent,largerFirst,2,1,21,,,,,,,,
,,,,,,,,,,,,,,,679,2022-02-09_23h46.51.020,multiplicationStroop,2021.2.3,Win32,59.97720866,,,,,,,,,,,,,,,,,,,,,,,,,,,,,,,,,30,1.4495,1,0,22,22,15,1,6,×,5,6 × 5,congruent,largerFirst,2,1,30,,,,,,,,
,,,,,,,,,,,,,,,679,2022-02-09_23h46.51.020,multiplicationStroop,2021.2.3,Win32,59.97720866,,,,,,,,,,,,,,,,,,,,,,,,,,,,,,,,,4,1.2332,1,0,23,23,28,1,2,×,2,2 × 2,neutral,tie,2,1,4,,,,,,,,
,,,,,,,,,,,,,,,679,2022-02-09_23h46.51.020,multiplicationStroop,2021.2.3,Win32,59.97720866,,,,,,,,,,,,,,,,,,,,,,,,,,,,,,,,,64,2.5664,1,0,24,24,34,1,8,×,8,8 × 8,neutral,tie,2,1,64,,,,,,,,
,,,,,,,,,,,,,,,679,2022-02-09_23h46.51.020,multiplicationStroop,2021.2.3,Win32,59.97720866,,,,,,,,,,,,,,,,,,,,,,,,,,,,,,,,,6,1.4165,1,0,25,25,13,1,2,×,3,2 × 3,congruent,smallerFirst,1,2,6,,,,,,,,
,,,,,,,,,,,,,,,679,2022-02-09_23h46.51.020,multiplicationStroop,2021.2.3,Win32,59.97720866,,,,,,,,,,,,,,,,,,,,,,,,,,,,,,,,,14,1.4492,1,0,26,26,14,1,7,×,2,7 × 2,congruent,largerFirst,2,1,14,,,,,,,,
,,,,,,,,,,,,,,,679,2022-02-09_23h46.51.020,multiplicationStroop,2021.2.3,Win32,59.97720866,,,,,,,,,,,,,,,,,,,,,,,,,,,,,,,,,15,1.3665,1,0,27,27,4,1,3,×,5,3 × 5,congruent,smallerFirst,1,2,15,,,,,,,,
,,,,,,,,,,,,,,,679,2022-02-09_23h46.51.020,multiplicationStroop,2021.2.3,Win32,59.97720866,,,,,,,,,,,,,,,,,,,,,,,,,,,,,,,,,18,1.6168,1,0,28,28,22,1,9,×,2,9 × 2,congruent,largerFirst,2,1,18,,,,,,,,
,,,,,,,,,,,,,,,679,2022-02-09_23h46.51.020,multiplicationStroop,2021.2.3,Win32,59.97720866,,,,,,,,,,,,,,,,,,,,,,,,,,,,,,,,,54,1.4661,1,0,29,29,12,1,6,×,9,6 × 9,congruent,smallerFirst,1,2,54,,,,,,,,
,,,,,,,,,,,,,,,679,2022-02-09_23h46.51.020,multiplicationStroop,2021.2.3,Win32,59.97720866,,,,,,,,,,,,,,,,,,,,,,,,,,,,,,,,,25,1.4831,1,0,30,30,31,1,5,×,5,5 × 5,neutral,tie,2,1,25,,,,,,,,
,,,,,,,,,,,,,,,679,2022-02-09_23h46.51.020,multiplicationStroop,2021.2.3,Win32,59.97720866,,,,,,,,,,,,,,,,,,,,,,,,,,,,,,,,,72,1.7163,1,0,31,31,17,1,9,×,8,9 × 8,congruent,largerFirst,2,1,72,,,,,,,,
,,,,,,,,,,,,,,,679,2022-02-09_23h46.51.020,multiplicationStroop,2021.2.3,Win32,59.97720866,,,,,,,,,,,,,,,,,,,,,,,,,,,,,,,,,10,1.5161,1,0,32,32,24,1,5,×,2,5 × 2,congruent,largerFirst,2,1,10,,,,,,,,
,,,,,,,,,,,,,,,679,2022-02-09_23h46.51.020,multiplicationStroop,2021.2.3,Win32,59.97720866,,,,,,,,,,,,,,,,,,,,,,,,,,,,,,,,,8,1.383,1,0,33,33,9,1,2,×,4,2 × 4,congruent,smallerFirst,1,2,8,,,,,,,,
,,,,,,,,,,,,,,,679,2022-02-09_23h46.51.020,multiplicationStroop,2021.2.3,Win32,59.97720866,,,,,,,,,,,,,,,,,,,,,,,,,,,,,,,,,12,1.5163,1,0,34,34,2,1,3,×,4,3 × 4,congruent,smallerFirst,1,2,12,,,,,,,,
,,,,,,,,,,,,,,,679,2022-02-09_23h46.51.020,multiplicationStroop,2021.2.3,Win32,59.97720866,,,,,,,,,,,,,,,,,,,,,,,,,,,,,,,,,24,1.6492,1,0,35,35,25,1,6,×,4,6 × 4,congruent,largerFirst,2,1,24,,,,,,,,
,,,,,,,,,,,,,,,679,2022-02-09_23h46.51.020,multiplicationStroop,2021.2.3,Win32,59.97720866,,,,,,,,,,,,,,,,,,,,,,,,,,,,,,,,,,,,,,,,,,,,,,,,,,0,3,3,2,1,stimulusFile/mult_blk3_congruent.xlsx,,
,,,,,,,,,,,,,,,679,2022-02-09_23h46.51.020,multiplicationStroop,2021.2.3,Win32,59.97720866,,,,,,,,,,,,,,,,,,,,,,,,,,,,,,,space,1.4866,42,1.88,1,0,0,0,17,1,7,×,6,7 × 6,congruent,largerFirst,2,1,42,,,,,,,,
,,,,,,,,,,,,,,,679,2022-02-09_23h46.51.020,multiplicationStroop,2021.2.3,Win32,59.97720866,,,,,,,,,,,,,,,,,,,,,,,,,,,,,,,,,25,1.6157,1,0,1,1,31,1,5,×,5,5 × 5,neutral,tie,1,2,25,,,,,,,,
,,,,,,,,,,,,,,,679,2022-02-09_23h46.51.020,multiplicationStroop,2021.2.3,Win32,59.97720866,,,,,,,,,,,,,,,,,,,,,,,,,,,,,,,,,35,2.2487,1,0,2,2,15,1,7,×,5,7 × 5,congruent,largerFirst,2,1,35,,,,,,,,
,,,,,,,,,,,,,,,679,2022-02-09_23h46.51.020,multiplicationStroop,2021.2.3,Win32,59.97720866,,,,,,,,,,,,,,,,,,,,,,,,,,,,,,,,,16,1.5321,1,0,3,3,19,1,8,×,2,8 × 2,congruent,largerFirst,2,1,16,,,,,,,,
,,,,,,,,,,,,,,,679,2022-02-09_23h46.51.020,multiplicationStroop,2021.2.3,Win32,59.97720866,,,,,,,,,,,,,,,,,,,,,,,,,,,,,,,,,64,1.9988,1,0,4,4,34,1,8,×,8,8 × 8,neutral,tie,1,2,64,,,,,,,,
,,,,,,,,,,,,,,,679,2022-02-09_23h46.51.020,multiplicationStroop,2021.2.3,Win32,59.97720866,,,,,,,,,,,,,,,,,,,,,,,,,,,,,,,,,15,1.5156,1,0,5,5,18,1,5,×,3,5 × 3,congruent,largerFirst,2,1,15,,,,,,,,
,,,,,,,,,,,,,,,679,2022-02-09_23h46.51.020,multiplicationStroop,2021.2.3,Win32,59.97720866,,,,,,,,,,,,,,,,,,,,,,,,,,,,,,,,,36,2.5649,1,0,6,6,32,1,6,×,6,6 × 6,neutral,tie,1,2,36,,,,,,,,
,,,,,,,,,,,,,,,679,2022-02-09_23h46.51.020,multiplicationStroop,2021.2.3,Win32,59.97720866,,,,,,,,,,,,,,,,,,,,,,,,,,,,,,,,,20,1.66,1,0,7,7,21,1,5,×,4,5 × 4,congruent,largerFirst,2,1,20,,,,,,,,
,,,,,,,,,,,,,,,679,2022-02-09_23h46.51.020,multiplicationStroop,2021.2.3,Win32,59.97720866,,,,,,,,,,,,,,,,,,,,,,,,,,,,,,,,,6,1.7656,1,0,8,8,27,1,3,×,2,3 × 2,congruent,largerFirst,2,1,6,,,,,,,,
,,,,,,,,,,,,,,,679,2022-02-09_23h46.51.020,multiplicationStroop,2021.2.3,Win32,59.97720866,,,,,,,,,,,,,,,,,,,,,,,,,,,,,,,,,12,1.3481,1,0,9,9,5,1,2,×,6,2 × 6,congruent,smallerFirst,1,2,12,,,,,,,,
,,,,,,,,,,,,,,,679,2022-02-09_23h46.51.020,multiplicationStroop,2021.2.3,Win32,59.97720866,,,,,,,,,,,,,,,,,,,,,,,,,,,,,,,,,14,1.4325,1,0,10,10,0,1,2,×,7,2 × 7,congruent,smallerFirst,1,2,14,,,,,,,,
,,,,,,,,,,,,,,,679,2022-02-09_23h46.51.020,multiplicationStroop,2021.2.3,Win32,59.97720866,,,,,,,,,,,,,,,,,,,,,,,,,,,,,,,,,24,1.8158,1,0,11,11,11,1,4,×,6,4 × 6,congruent,smallerFirst,1,2,24,,,,,,,,
,,,,,,,,,,,,,,,679,2022-02-09_23h46.51.020,multiplicationStroop,2021.2.3,Win32,59.97720866,,,,,,,,,,,,,,,,,,,,,,,,,,,,,,,,,40,1.6652,1,0,12,12,20,1,8,×,5,8 × 5,congruent,largerFirst,2,1,40,,,,,,,,
,,,,,,,,,,,,,,,679,2022-02-09_23h46.51.020,multiplicationStroop,2021.2.3,Win32,59.97720866,,,,,,,,,,,,,,,,,,,,,,,,,,,,,,,,,45,1.4494,1,0,13,13,9,1,5,×,9,5 × 9,congruent,smallerFirst,1,2,45,,,,,,,,
,,,,,,,,,,,,,,,679,2022-02-09_23h46.51.020,multiplicationStroop,2021.2.3,Win32,59.97720866,,,,,,,,,,,,,,,,,,,,,,,,,,,,,,,,,18,1.5487,1,0,14,14,25,1,6,×,3,6 × 3,congruent,largerFirst,2,1,18,,,,,,,,
,,,,,,,,,,,,,,,679,2022-02-09_23h46.51.020,multiplicationStroop,2021.2.3,Win32,59.97720866,,,,,,,,,,,,,,,,,,,,,,,,,,,,,,,,,63,3.0156,1,0,15,15,7,1,7,×,9,7 × 9,congruent,smallerFirst,1,2,63,,,,,,,,
,,,,,,,,,,,,,,,679,2022-02-09_23h46.51.020,multiplicationStroop,2021.2.3,Win32,59.97720866,,,,,,,,,,,,,,,,,,,,,,,,,,,,,,,,,81,1.7757,1,0,16,16,35,1,9,×,9,9 × 9,neutral,tie,1,2,81,,,,,,,,
,,,,,,,,,,,,,,,679,2022-02-09_23h46.51.020,multiplicationStroop,2021.2.3,Win32,59.97720866,,,,,,,,,,,,,,,,,,,,,,,,,,,,,,,,,36,1.7659,1,0,17,17,14,1,9,×,4,9 × 4,congruent,largerFirst,2,1,36,,,,,,,,
,,,,,,,,,,,,,,,679,2022-02-09_23h46.51.020,multiplicationStroop,2021.2.3,Win32,59.97720866,,,,,,,,,,,,,,,,,,,,,,,,,,,,,,,,,16,1.5324,1,0,18,18,30,1,4,×,4,4 × 4,neutral,tie,1,2,16,,,,,,,,
,,,,,,,,,,,,,,,679,2022-02-09_23h46.51.020,multiplicationStroop,2021.2.3,Win32,59.97720866,,,,,,,,,,,,,,,,,,,,,,,,,,,,,,,,,49,1.932,1,0,19,19,33,1,7,×,7,7 × 7,neutral,tie,1,2,49,,,,,,,,
,,,,,,,,,,,,,,,679,2022-02-09_23h46.51.020,multiplicationStroop,2021.2.3,Win32,59.97720866,,,,,,,,,,,,,,,,,,,,,,,,,,,,,,,,,48,1.9821,1,0,20,20,4,1,6,×,8,6 × 8,congruent,smallerFirst,1,2,48,,,,,,,,
,,,,,,,,,,,,,,,679,2022-02-09_23h46.51.020,multiplicationStroop,2021.2.3,Win32,59.97720866,,,,,,,,,,,,,,,,,,,,,,,,,,,,,,,,,54,1.7488,1,0,21,21,26,1,9,×,6,9 × 6,congruent,largerFirst,2,1,54,,,,,,,,
,,,,,,,,,,,,,,,679,2022-02-09_23h46.51.020,multiplicationStroop,2021.2.3,Win32,59.97720866,,,,,,,,,,,,,,,,,,,,,,,,,,,,,,,,,10,1.4488,1,0,22,22,10,1,2,×,5,2 × 5,congruent,smallerFirst,1,2,10,,,,,,,,
,,,,,,,,,,,,,,,679,2022-02-09_23h46.51.020,multiplicationStroop,2021.2.3,Win32,59.97720866,,,,,,,,,,,,,,,,,,,,,,,,,,,,,,,,,24,1.7821,1,0,23,23,24,1,8,×,3,8 × 3,congruent,largerFirst,2,1,24,,,,,,,,
,,,,,,,,,,,,,,,679,2022-02-09_23h46.51.020,multiplicationStroop,2021.2.3,Win32,59.97720866,,,,,,,,,,,,,,,,,,,,,,,,,,,,,,,,,4,1.2645,1,0,24,24,28,1,2,×,2,2 × 2,neutral,tie,1,2,4,,,,,,,,
,,,,,,,,,,,,,,,679,2022-02-09_23h46.51.020,multiplicationStroop,2021.2.3,Win32,59.97720866,,,,,,,,,,,,,,,,,,,,,,,,,,,,,,,,,21,1.4159,1,0,25,25,2,1,3,×,7,3 × 7,congruent,smallerFirst,1,2,21,,,,,,,,
,,,,,,,,,,,,,,,679,2022-02-09_23h46.51.020,multiplicationStroop,2021.2.3,Win32,59.97720866,,,,,,,,,,,,,,,,,,,,,,,,,,,,,,,,,56,1.7982,1,0,26,26,22,1,8,×,7,8 × 7,congruent,largerFirst,2,1,56,,,,,,,,
,,,,,,,,,,,,,,,679,2022-02-09_23h46.51.020,multiplicationStroop,2021.2.3,Win32,59.97720866,,,,,,,,,,,,,,,,,,,,,,,,,,,,,,,,,12,1.2991,1,0,27,27,16,1,4,×,3,4 × 3,congruent,largerFirst,2,1,12,,,,,,,,
,,,,,,,,,,,,,,,679,2022-02-09_23h46.51.020,multiplicationStroop,2021.2.3,Win32,59.97720866,,,,,,,,,,,,,,,,,,,,,,,,,,,,,,,,,27,1.8822,1,0,28,28,12,1,3,×,9,3 × 9,congruent,smallerFirst,1,2,27,,,,,,,,
,,,,,,,,,,,,,,,679,2022-02-09_23h46.51.020,multiplicationStroop,2021.2.3,Win32,59.97720866,,,,,,,,,,,,,,,,,,,,,,,,,,,,,,,,,18,1.6817,1,0,29,29,8,1,2,×,9,2 × 9,congruent,smallerFirst,1,2,18,,,,,,,,
,,,,,,,,,,,,,,,679,2022-02-09_23h46.51.020,multiplicationStroop,2021.2.3,Win32,59.97720866,,,,,,,,,,,,,,,,,,,,,,,,,,,,,,,,,72,2.099,1,0,30,30,3,1,8,×,9,8 × 9,congruent,smallerFirst,1,2,72,,,,,,,,
,,,,,,,,,,,,,,,679,2022-02-09_23h46.51.020,multiplicationStroop,2021.2.3,Win32,59.97720866,,,,,,,,,,,,,,,,,,,,,,,,,,,,,,,,,28,1.9816,1,0,31,31,13,1,4,×,7,4 × 7,congruent,smallerFirst,1,2,28,,,,,,,,
,,,,,,,,,,,,,,,679,2022-02-09_23h46.51.020,multiplicationStroop,2021.2.3,Win32,59.97720866,,,,,,,,,,,,,,,,,,,,,,,,,,,,,,,,,9,1.4831,1,0,32,32,29,1,3,×,3,3 × 3,neutral,tie,1,2,9,,,,,,,,
,,,,,,,,,,,,,,,679,2022-02-09_23h46.51.020,multiplicationStroop,2021.2.3,Win32,59.97720866,,,,,,,,,,,,,,,,,,,,,,,,,,,,,,,,,32,1.3997,1,0,33,33,6,1,4,×,8,4 × 8,congruent,smallerFirst,1,2,32,,,,,,,,
,,,,,,,,,,,,,,,679,2022-02-09_23h46.51.020,multiplicationStroop,2021.2.3,Win32,59.97720866,,,,,,,,,,,,,,,,,,,,,,,,,,,,,,,,,8,1.8162,1,0,34,34,23,1,4,×,2,4 × 2,congruent,largerFirst,2,1,8,,,,,,,,
,,,,,,,,,,,,,,,679,2022-02-09_23h46.51.020,multiplicationStroop,2021.2.3,Win32,59.97720866,,,,,,,,,,,,,,,,,,,,,,,,,,,,,,,,,30,1.5497,1,0,35,35,1,1,5,×,6,5 × 6,congruent,smallerFirst,1,2,30,,,,,,,,
,,,,,,,,,,,,,,,679,2022-02-09_23h46.51.020,multiplicationStroop,2021.2.3,Win32,59.97720866,,,,,,,,,,,,,,,,,,,,,,,,,,,,,,,,,,,,,,,,,,,,,,,,,,0,4,4,3,1,stimulusFile/mult_blk4_congruent.xlsx,,
,,,,,,,,,,,,,,,679,2022-02-09_23h46.51.020,multiplicationStroop,2021.2.3,Win32,59.97720866,,,,,,,,,,,,,,,,,,,,,,,,,,,,,,,space,0.8931,16,3.2919,1,0,0,0,9,1,2,×,8,2 × 8,incongruent,smallerFirst,2,1,16,,,,,,,,
,,,,,,,,,,,,,,,679,2022-02-09_23h46.51.020,multiplicationStroop,2021.2.3,Win32,59.97720866,,,,,,,,,,,,,,,,,,,,,,,,,,,,,,,,,20,1.4099,1,0,1,1,13,1,4,×,5,4 × 5,incongruent,smallerFirst,2,1,20,,,,,,,,
,,,,,,,,,,,,,,,679,2022-02-09_23h46.51.020,multiplicationStroop,2021.2.3,Win32,59.97720866,,,,,,,,,,,,,,,,,,,,,,,,,,,,,,,,,25,1.6663,1,0,2,2,31,1,5,×,5,5 × 5,neutral,tie,2,1,25,,,,,,,,
,,,,,,,,,,,,,,,679,2022-02-09_23h46.51.020,multiplicationStroop,2021.2.3,Win32,59.97720866,,,,,,,,,,,,,,,,,,,,,,,,,,,,,,,,,49,1.8998,1,0,3,3,33,1,7,×,7,7 × 7,neutral,tie,2,1,49,,,,,,,,
,,,,,,,,,,,,,,,679,2022-02-09_23h46.51.020,multiplicationStroop,2021.2.3,Win32,59.97720866,,,,,,,,,,,,,,,,,,,,,,,,,,,,,,,,,72,1.5828,1,0,4,4,14,1,9,×,8,9 × 8,incongruent,largerFirst,1,2,72,,,,,,,,
,,,,,,,,,,,,,,,679,2022-02-09_23h46.51.020,multiplicationStroop,2021.2.3,Win32,59.97720866,,,,,,,,,,,,,,,,,,,,,,,,,,,,,,,,,8,1.4331,1,0,5,5,10,1,2,×,4,2 × 4,incongruent,smallerFirst,2,1,8,,,,,,,,
,,,,,,,,,,,,,,,679,2022-02-09_23h46.51.020,multiplicationStroop,2021.2.3,Win32,59.97720866,,,,,,,,,,,,,,,,,,,,,,,,,,,,,,,,,30,1.5994,1,0,6,6,11,1,5,×,6,5 × 6,incongruent,smallerFirst,2,1,30,,,,,,,,
,,,,,,,,,,,,,,,679,2022-02-09_23h46.51.020,multiplicationStroop,2021.2.3,Win32,59.97720866,,,,,,,,,,,,,,,,,,,,,,,,,,,,,,,,,18,1.4668,1,0,7,7,16,1,9,×,2,9 × 2,incongruent,largerFirst,1,2,18,,,,,,,,
,,,,,,,,,,,,,,,679,2022-02-09_23h46.51.020,multiplicationStroop,2021.2.3,Win32,59.97720866,,,,,,,,,,,,,,,,,,,,,,,,,,,,,,,,,40,1.683,1,0,8,8,27,1,8,×,5,8 × 5,incongruent,largerFirst,1,2,40,,,,,,,,
,,,,,,,,,,,,,,,679,2022-02-09_23h46.51.020,multiplicationStroop,2021.2.3,Win32,59.97720866,,,,,,,,,,,,,,,,,,,,,,,,,,,,,,,,,48,1.8498,1,0,9,9,15,1,8,×,6,8 × 6,incongruent,largerFirst,1,2,48,,,,,,,,
,,,,,,,,,,,,,,,679,2022-02-09_23h46.51.020,multiplicationStroop,2021.2.3,Win32,59.97720866,,,,,,,,,,,,,,,,,,,,,,,,,,,,,,,,,32,1.5496,1,0,10,10,21,1,8,×,4,8 × 4,incongruent,largerFirst,1,2,32,,,,,,,,
,,,,,,,,,,,,,,,679,2022-02-09_23h46.51.020,multiplicationStroop,2021.2.3,Win32,59.97720866,,,,,,,,,,,,,,,,,,,,,,,,,,,,,,,,,12,1.3829,1,0,11,11,19,1,4,×,3,4 × 3,incongruent,largerFirst,1,2,12,,,,,,,,
,,,,,,,,,,,,,,,679,2022-02-09_23h46.51.020,multiplicationStroop,2021.2.3,Win32,59.97720866,,,,,,,,,,,,,,,,,,,,,,,,,,,,,,,,,45,1.6331,1,0,12,12,8,1,5,×,9,5 × 9,incongruent,smallerFirst,2,1,45,,,,,,,,
,,,,,,,,,,,,,,,679,2022-02-09_23h46.51.020,multiplicationStroop,2021.2.3,Win32,59.97720866,,,,,,,,,,,,,,,,,,,,,,,,,,,,,,,,,18,1.5495,1,0,13,13,22,1,6,×,3,6 × 3,incongruent,largerFirst,1,2,18,,,,,,,,
,,,,,,,,,,,,,,,679,2022-02-09_23h46.51.020,multiplicationStroop,2021.2.3,Win32,59.97720866,,,,,,,,,,,,,,,,,,,,,,,,,,,,,,,,,24,1.5833,1,0,14,14,6,1,4,×,6,4 × 6,incongruent,smallerFirst,2,1,24,,,,,,,,
,,,,,,,,,,,,,,,679,2022-02-09_23h46.51.020,multiplicationStroop,2021.2.3,Win32,59.97720866,,,,,,,,,,,,,,,,,,,,,,,,,,,,,,,,,12,1.4664,1,0,15,15,5,1,2,×,6,2 × 6,incongruent,smallerFirst,2,1,12,,,,,,,,
,,,,,,,,,,,,,,,679,2022-02-09_23h46.51.020,multiplicationStroop,2021.2.3,Win32,59.97720866,,,,,,,,,,,,,,,,,,,,,,,,,,,,,,,,,24,1.8828,1,0,16,16,23,1,8,×,3,8 × 3,incongruent,largerFirst,1,2,24,,,,,,,,
,,,,,,,,,,,,,,,679,2022-02-09_23h46.51.020,multiplicationStroop,2021.2.3,Win32,59.97720866,,,,,,,,,,,,,,,,,,,,,,,,,,,,,,,,,15,1.6998,1,0,17,17,24,1,5,×,3,5 × 3,incongruent,largerFirst,1,2,15,,,,,,,,
,,,,,,,,,,,,,,,679,2022-02-09_23h46.51.020,multiplicationStroop,2021.2.3,Win32,59.97720866,,,,,,,,,,,,,,,,,,,,,,,,,,,,,,,,,14,1.8664,1,0,18,18,18,1,7,×,2,7 × 2,incongruent,largerFirst,1,2,14,,,,,,,,
,,,,,,,,,,,,,,,679,2022-02-09_23h46.51.020,multiplicationStroop,2021.2.3,Win32,59.97720866,,,,,,,,,,,,,,,,,,,,,,,,,,,,,,,,,54,1.8831,1,0,19,19,20,1,9,×,6,9 × 6,incongruent,largerFirst,1,2,54,,,,,,,,
,,,,,,,,,,,,,,,679,2022-02-09_23h46.51.020,multiplicationStroop,2021.2.3,Win32,59.97720866,,,,,,,,,,,,,,,,,,,,,,,,,,,,,,,,,35,2.7328,1,0,20,20,26,1,7,×,5,7 × 5,incongruent,largerFirst,1,2,35,,,,,,,,
,,,,,,,,,,,,,,,679,2022-02-09_23h46.51.020,multiplicationStroop,2021.2.3,Win32,59.97720866,,,,,,,,,,,,,,,,,,,,,,,,,,,,,,,,,16,1.6829,1,0,21,21,30,1,4,×,4,4 × 4,neutral,tie,2,1,16,,,,,,,,
,,,,,,,,,,,,,,,679,2022-02-09_23h46.51.020,multiplicationStroop,2021.2.3,Win32,59.97720866,,,,,,,,,,,,,,,,,,,,,,,,,,,,,,,,,21,2.2498,1,0,22,22,12,1,3,×,7,3 × 7,incongruent,smallerFirst,2,1,21,,,,,,,,
,,,,,,,,,,,,,,,679,2022-02-09_23h46.51.020,multiplicationStroop,2021.2.3,Win32,59.97720866,,,,,,,,,,,,,,,,,,,,,,,,,,,,,,,,,36,2.183,1,0,23,23,1,1,4,×,9,4 × 9,incongruent,smallerFirst,2,1,36,,,,,,,,
,,,,,,,,,,,,,,,679,2022-02-09_23h46.51.020,multiplicationStroop,2021.2.3,Win32,59.97720866,,,,,,,,,,,,,,,,,,,,,,,,,,,,,,,,,81,1.5664,1,0,24,24,35,1,9,×,9,9 × 9,neutral,tie,2,1,81,,,,,,,,
,,,,,,,,,,,,,,,679,2022-02-09_23h46.51.020,multiplicationStroop,2021.2.3,Win32,59.97720866,,,,,,,,,,,,,,,,,,,,,,,,,,,,,,,,,28,1.8162,1,0,25,25,2,1,4,×,7,4 × 7,incongruent,smallerFirst,2,1,28,,,,,,,,
,,,,,,,,,,,,,,,679,2022-02-09_23h46.51.020,multiplicationStroop,2021.2.3,Win32,59.97720866,,,,,,,,,,,,,,,,,,,,,,,,,,,,,,,,,63,2.2831,1,0,26,26,17,1,9,×,7,9 × 7,incongruent,largerFirst,1,2,63,,,,,,,,
,,,,,,,,,,,,,,,679,2022-02-09_23h46.51.020,multiplicationStroop,2021.2.3,Win32,59.97720866,,,,,,,,,,,,,,,,,,,,,,,,,,,,,,,,,27,1.6162,1,0,27,27,4,1,3,×,9,3 × 9,incongruent,smallerFirst,2,1,27,,,,,,,,
,,,,,,,,,,,,,,,679,2022-02-09_23h46.51.020,multiplicationStroop,2021.2.3,Win32,59.97720866,,,,,,,,,,,,,,,,,,,,,,,,,,,,,,,,,64,1.9832,1,0,28,28,34,1,8,×,8,8 × 8,neutral,tie,2,1,64,,,,,,,,
,,,,,,,,,,,,,,,679,2022-02-09_23h46.51.020,multiplicationStroop,2021.2.3,Win32,59.97720866,,,,,,,,,,,,,,,,,,,,,,,,,,,,,,,,,36,2.0996,1,0,29,29,32,1,6,×,6,6 × 6,neutral,tie,2,1,36,,,,,,,,
,,,,,,,,,,,,,,,679,2022-02-09_23h46.51.020,multiplicationStroop,2021.2.3,Win32,59.97720866,,,,,,,,,,,,,,,,,,,,,,,,,,,,,,,,,42,2.2497,1,0,30,30,3,1,6,×,7,6 × 7,incongruent,smallerFirst,2,1,42,,,,,,,,
,,,,,,,,,,,,,,,679,2022-02-09_23h46.51.020,multiplicationStroop,2021.2.3,Win32,59.97720866,,,,,,,,,,,,,,,,,,,,,,,,,,,,,,,,,56,1.6831,1,0,31,31,0,1,7,×,8,7 × 8,incongruent,smallerFirst,2,1,56,,,,,,,,
,,,,,,,,,,,,,,,679,2022-02-09_23h46.51.020,multiplicationStroop,2021.2.3,Win32,59.97720866,,,,,,,,,,,,,,,,,,,,,,,,,,,,,,,,,6,1.433,1,0,32,32,25,1,3,×,2,3 × 2,incongruent,largerFirst,1,2,6,,,,,,,,
,,,,,,,,,,,,,,,679,2022-02-09_23h46.51.020,multiplicationStroop,2021.2.3,Win32,59.97720866,,,,,,,,,,,,,,,,,,,,,,,,,,,,,,,,,9,1.4493,1,0,33,33,29,1,3,×,3,3 × 3,neutral,tie,2,1,9,,,,,,,,
,,,,,,,,,,,,,,,679,2022-02-09_23h46.51.020,multiplicationStroop,2021.2.3,Win32,59.97720866,,,,,,,,,,,,,,,,,,,,,,,,,,,,,,,,,10,2.233,1,0,34,34,7,1,2,×,5,2 × 5,incongruent,smallerFirst,2,1,10,,,,,,,,
,,,,,,,,,,,,,,,679,2022-02-09_23h46.51.020,multiplicationStroop,2021.2.3,Win32,59.97720866,,,,,,,,,,,,,,,,,,,,,,,,,,,,,,,,,4,1.3664,1,0,35,35,28,1,2,×,2,2 × 2,neutral,tie,2,1,4,,,,,,,,
,,,,,,,,,,,,,,,679,2022-02-09_23h46.51.020,multiplicationStroop,2021.2.3,Win32,59.97720866,,,,,,,,,,,,,,,,,,,,,,,,,,,,,,,,,,,,,,,,,,,,,,,,,,0,5,5,4,1,stimulusFile/mult_blk5_INcongruent.xlsx,,
,,,,,,,,,,,,,,,679,2022-02-09_23h46.51.020,multiplicationStroop,2021.2.3,Win32,59.97720866,,,,,,,,,,,,,,,,,,,,,,,,,,,,,,,,,,,,,,,,,,,,,,,,,,,,,,,,space,3.8263