welcomeKey_resp.keys,welcomeKey_resp.rt,X Scale,Y Scale,rt_resp_4.keys,rt_resp_4.corr,rt_resp_4.rt,speedtest_2.thisRepN,speedtest_2.thisTrialN,speedtest_2.thisN,speedtest_2.thisIndex,speedtest_2.ran,numberSc,posX,positionLayout,participant,date,expName,psychopyVersion,OS,frameRate,ct_instrresp.keys,ct_instrresp.rt,key_resp_2.keys,key_resp_2.rt,ct_keyResp.keys,ct_keyResp.corr,ct_keyResp.rt,trials.thisRepN,trials.thisTrialN,trials.thisN,trials.thisIndex,trials.ran,leftNo,rightNo,displayProblem,numDistance,leftNo_size,rightNo_size,Dims,keyAnswer,TS_Loop.thisRepN,TS_Loop.thisTrialN,TS_Loop.thisN,TS_Loop.thisIndex,TS_Loop.ran,Condition,ActionInst,instrImage,mltptaskInst_resp.keys,mltptaskInst_resp.rt,continue_resp_2.keys,continue_resp_2.rt,multp_Answer,multi_RT,multiplyCorr,LoopingMultiply.thisRepN,LoopingMultiply.thisTrialN,LoopingMultiply.thisN,LoopingMultiply.thisIndex,LoopingMultiply.ran,factor1,multiplySign,factor2,multliplyProblem,physicalSize,orderOperand,sizeF1,sizeF2,mult_answer,trials_stroop.thisRepN,trials_stroop.thisTrialN,trials_stroop.thisN,trials_stroop.thisIndex,trials_stroop.ran,multiplicationFile,esckey_resp_2.keys,esckey_resp_2.rt
y,7.8543,59.9,46.3,right,1,0.6936,0,0,0,13,1,7,200,right,681,2022-02-06_11h26.58.537,multiplicationStroop,2021.2.3,Win32,59.80861244,,,,,,,,,,,,,,,,,,,,,,,,,,,,,,,,,,,,,,,,,,,,,,,,,,,,,,,,,
,,,,left,1,0.3958,0,1,1,2,1,3,-200,left,681,2022-02-06_11h26.58.537,multiplicationStroop,2021.2.3,Win32,59.80861244,,,,,,,,,,,,,,,,,,,,,,,,,,,,,,,,,,,,,,,,,,,,,,,,,,,,,,,,,
,,,,left,1,0.9468,0,2,2,1,1,2,-200,left,681,2022-02-06_11h26.58.537,multiplicationStroop,2021.2.3,Win32,59.80861244,,,,,,,,,,,,,,,,,,,,,,,,,,,,,,,,,,,,,,,,,,,,,,,,,,,,,,,,,
,,,,right,1,0.4684,0,3,3,8,1,1,200,right,681,2022-02-06_11h26.58.537,multiplicationStroop,2021.2.3,Win32,59.80861244,,,,,,,,,,,,,,,,,,,,,,,,,,,,,,,,,,,,,,,,,,,,,,,,,,,,,,,,,
,,,,left,1,0.4181,0,4,4,4,1,6,-200,left,681,2022-02-06_11h26.58.537,multiplicationStroop,2021.2.3,Win32,59.80861244,,,,,,,,,,,,,,,,,,,,,,,,,,,,,,,,,,,,,,,,,,,,,,,,,,,,,,,,,
,,,,right,1,0.3819,0,5,5,11,1,4,200,right,681,2022-02-06_11h26.58.537,multiplicationStroop,2021.2.3,Win32,59.80861244,,,,,,,,,,,,,,,,,,,,,,,,,,,,,,,,,,,,,,,,,,,,,,,,,,,,,,,,,
,,,,left,1,0.3632,0,6,6,0,1,1,-200,left,681,2022-02-06_11h26.58.537,multiplicationStroop,2021.2.3,Win32,59.80861244,,,,,,,,,,,,,,,,,,,,,,,,,,,,,,,,,,,,,,,,,,,,,,,,,,,,,,,,,
,,,,right,1,0.3397,0,7,7,10,1,3,200,right,681,2022-02-06_11h26.58.537,multiplicationStroop,2021.2.3,Win32,59.80861244,,,,,,,,,,,,,,,,,,,,,,,,,,,,,,,,,,,,,,,,,,,,,,,,,,,,,,,,,
,,,,left,1,0.2884,0,8,8,3,1,4,-200,left,681,2022-02-06_11h26.58.537,multiplicationStroop,2021.2.3,Win32,59.80861244,,,,,,,,,,,,,,,,,,,,,,,,,,,,,,,,,,,,,,,,,,,,,,,,,,,,,,,,,
,,,,right,1,0.3299,0,9,9,12,1,6,200,right,681,2022-02-06_11h26.58.537,multiplicationStroop,2021.2.3,Win32,59.80861244,,,,,,,,,,,,,,,,,,,,,,,,,,,,,,,,,,,,,,,,,,,,,,,,,,,,,,,,,
,,,,right,1,0.5293,0,10,10,9,1,2,200,right,681,2022-02-06_11h26.58.537,multiplicationStroop,2021.2.3,Win32,59.80861244,,,,,,,,,,,,,,,,,,,,,,,,,,,,,,,,,,,,,,,,,,,,,,,,,,,,,,,,,
,,,,left,1,0.3993,0,11,11,5,1,7,-200,left,681,2022-02-06_11h26.58.537,multiplicationStroop,2021.2.3,Win32,59.80861244,,,,,,,,,,,,,,,,,,,,,,,,,,,,,,,,,,,,,,,,,,,,,,,,,,,,,,,,,
,,,,left,1,0.3563,0,12,12,6,1,8,-200,left,681,2022-02-06_11h26.58.537,multiplicationStroop,2021.2.3,Win32,59.80861244,,,,,,,,,,,,,,,,,,,,,,,,,,,,,,,,,,,,,,,,,,,,,,,,,,,,,,,,,
,,,,right,1,0.3609,0,13,13,14,1,8,200,right,681,2022-02-06_11h26.58.537,multiplicationStroop,2021.2.3,Win32,59.80861244,,,,,,,,,,,,,,,,,,,,,,,,,,,,,,,,,,,,,,,,,,,,,,,,,,,,,,,,,
,,,,right,1,0.3808,0,14,14,15,1,9,200,right,681,2022-02-06_11h26.58.537,multiplicationStroop,2021.2.3,Win32,59.80861244,,,,,,,,,,,,,,,,,,,,,,,,,,,,,,,,,,,,,,,,,,,,,,,,,,,,,,,,,
,,,,left,1,0.4951,0,15,15,7,1,9,-200,left,681,2022-02-06_11h26.58.537,multiplicationStroop,2021.2.3,Win32,59.80861244,,,,,,,,,,,,,,,,,,,,,,,,,,,,,,,,,,,,,,,,,,,,,,,,,,,,,,,,,
,,,,left,1,0.3397,1,0,16,0,1,1,-200,left,681,2022-02-06_11h26.58.537,multiplicationStroop,2021.2.3,Win32,59.80861244,,,,,,,,,,,,,,,,,,,,,,,,,,,,,,,,,,,,,,,,,,,,,,,,,,,,,,,,,
,,,,left,1,0.3698,1,1,17,1,1,2,-200,left,681,2022-02-06_11h26.58.537,multiplicationStroop,2021.2.3,Win32,59.80861244,,,,,,,,,,,,,,,,,,,,,,,,,,,,,,,,,,,,,,,,,,,,,,,,,,,,,,,,,
,,,,right,1,0.3379,1,2,18,15,1,9,200,right,681,2022-02-06_11h26.58.537,multiplicationStroop,2021.2.3,Win32,59.80861244,,,,,,,,,,,,,,,,,,,,,,,,,,,,,,,,,,,,,,,,,,,,,,,,,,,,,,,,,
,,,,right,1,0.3372,1,3,19,10,1,3,200,right,681,2022-02-06_11h26.58.537,multiplicationStroop,2021.2.3,Win32,59.80861244,,,,,,,,,,,,,,,,,,,,,,,,,,,,,,,,,,,,,,,,,,,,,,,,,,,,,,,,,
,,,,right,1,0.3149,1,4,20,9,1,2,200,right,681,2022-02-06_11h26.58.537,multiplicationStroop,2021.2.3,Win32,59.80861244,,,,,,,,,,,,,,,,,,,,,,,,,,,,,,,,,,,,,,,,,,,,,,,,,,,,,,,,,
,,,,left,1,0.3301,1,5,21,4,1,6,-200,left,681,2022-02-06_11h26.58.537,multiplicationStroop,2021.2.3,Win32,59.80861244,,,,,,,,,,,,,,,,,,,,,,,,,,,,,,,,,,,,,,,,,,,,,,,,,,,,,,,,,
,,,,right,1,0.4073,1,6,22,12,1,6,200,right,681,2022-02-06_11h26.58.537,multiplicationStroop,2021.2.3,Win32,59.80861244,,,,,,,,,,,,,,,,,,,,,,,,,,,,,,,,,,,,,,,,,,,,,,,,,,,,,,,,,
,,,,right,1,0.3623,1,7,23,13,1,7,200,right,681,2022-02-06_11h26.58.537,multiplicationStroop,2021.2.3,Win32,59.80861244,,,,,,,,,,,,,,,,,,,,,,,,,,,,,,,,,,,,,,,,,,,,,,,,,,,,,,,,,
,,,,right,1,0.4108,1,8,24,14,1,8,200,right,681,2022-02-06_11h26.58.537,multiplicationStroop,2021.2.3,Win32,59.80861244,,,,,,,,,,,,,,,,,,,,,,,,,,,,,,,,,,,,,,,,,,,,,,,,,,,,,,,,,
,,,,right,1,0.298,1,9,25,8,1,1,200,right,681,2022-02-06_11h26.58.537,multiplicationStroop,2021.2.3,Win32,59.80861244,,,,,,,,,,,,,,,,,,,,,,,,,,,,,,,,,,,,,,,,,,,,,,,,,,,,,,,,,
,,,,left,1,0.404,1,10,26,6,1,8,-200,left,681,2022-02-06_11h26.58.537,multiplicationStroop,2021.2.3,Win32,59.80861244,,,,,,,,,,,,,,,,,,,,,,,,,,,,,,,,,,,,,,,,,,,,,,,,,,,,,,,,,
,,,,left,1,0.3386,1,11,27,7,1,9,-200,left,681,2022-02-06_11h26.58.537,multiplicationStroop,2021.2.3,Win32,59.80861244,,,,,,,,,,,,,,,,,,,,,,,,,,,,,,,,,,,,,,,,,,,,,,,,,,,,,,,,,
,,,,left,1,0.4126,1,12,28,2,1,3,-200,left,681,2022-02-06_11h26.58.537,multiplicationStroop,2021.2.3,Win32,59.80861244,,,,,,,,,,,,,,,,,,,,,,,,,,,,,,,,,,,,,,,,,,,,,,,,,,,,,,,,,
,,,,left,1,0.3312,1,13,29,3,1,4,-200,left,681,2022-02-06_11h26.58.537,multiplicationStroop,2021.2.3,Win32,59.80861244,,,,,,,,,,,,,,,,,,,,,,,,,,,,,,,,,,,,,,,,,,,,,,,,,,,,,,,,,
,,,,right,1,0.3568,1,14,30,11,1,4,200,right,681,2022-02-06_11h26.58.537,multiplicationStroop,2021.2.3,Win32,59.80861244,,,,,,,,,,,,,,,,,,,,,,,,,,,,,,,,,,,,,,,,,,,,,,,,,,,,,,,,,
,,,,left,1,0.383,1,15,31,5,1,7,-200,left,681,2022-02-06_11h26.58.537,multiplicationStroop,2021.2.3,Win32,59.80861244,,,,,,,,,,,,,,,,,,,,,,,,,,,,,,,,,,,,,,,,,,,,,,,,,,,,,,,,,
,,,,right,1,0.3136,2,0,32,11,1,4,200,right,681,2022-02-06_11h26.58.537,multiplicationStroop,2021.2.3,Win32,59.80861244,,,,,,,,,,,,,,,,,,,,,,,,,,,,,,,,,,,,,,,,,,,,,,,,,,,,,,,,,
,,,,left,1,0.3129,2,1,33,1,1,2,-200,left,681,2022-02-06_11h26.58.537,multiplicationStroop,2021.2.3,Win32,59.80861244,,,,,,,,,,,,,,,,,,,,,,,,,,,,,,,,,,,,,,,,,,,,,,,,,,,,,,,,,
,,,,right,1,0.3001,2,2,34,8,1,1,200,right,681,2022-02-06_11h26.58.537,multiplicationStroop,2021.2.3,Win32,59.80861244,,,,,,,,,,,,,,,,,,,,,,,,,,,,,,,,,,,,,,,,,,,,,,,,,,,,,,,,,
,,,,right,1,0.4194,2,3,35,10,1,3,200,right,681,2022-02-06_11h26.58.537,multiplicationStroop,2021.2.3,Win32,59.80861244,,,,,,,,,,,,,,,,,,,,,,,,,,,,,,,,,,,,,,,,,,,,,,,,,,,,,,,,,
,,,,left,1,0.4455,2,4,36,5,1,7,-200,left,681,2022-02-06_11h26.58.537,multiplicationStroop,2021.2.3,Win32,59.80861244,,,,,,,,,,,,,,,,,,,,,,,,,,,,,,,,,,,,,,,,,,,,,,,,,,,,,,,,,
,,,,left,1,0.3551,2,5,37,0,1,1,-200,left,681,2022-02-06_11h26.58.537,multiplicationStroop,2021.2.3,Win32,59.80861244,,,,,,,,,,,,,,,,,,,,,,,,,,,,,,,,,,,,,,,,,,,,,,,,,,,,,,,,,
,,,,left,1,0.4133,2,6,38,2,1,3,-200,left,681,2022-02-06_11h26.58.537,multiplicationStroop,2021.2.3,Win32,59.80861244,,,,,,,,,,,,,,,,,,,,,,,,,,,,,,,,,,,,,,,,,,,,,,,,,,,,,,,,,
,,,,left,1,0.3467,2,7,39,3,1,4,-200,left,681,2022-02-06_11h26.58.537,multiplicationStroop,2021.2.3,Win32,59.80861244,,,,,,,,,,,,,,,,,,,,,,,,,,,,,,,,,,,,,,,,,,,,,,,,,,,,,,,,,
,,,,right,1,0.3656,2,8,40,12,1,6,200,right,681,2022-02-06_11h26.58.537,multiplicationStroop,2021.2.3,Win32,59.80861244,,,,,,,,,,,,,,,,,,,,,,,,,,,,,,,,,,,,,,,,,,,,,,,,,,,,,,,,,
,,,,left,1,0.3382,2,9,41,4,1,6,-200,left,681,2022-02-06_11h26.58.537,multiplicationStroop,2021.2.3,Win32,59.80861244,,,,,,,,,,,,,,,,,,,,,,,,,,,,,,,,,,,,,,,,,,,,,,,,,,,,,,,,,
,,,,right,1,0.3635,2,10,42,9,1,2,200,right,681,2022-02-06_11h26.58.537,multiplicationStroop,2021.2.3,Win32,59.80861244,,,,,,,,,,,,,,,,,,,,,,,,,,,,,,,,,,,,,,,,,,,,,,,,,,,,,,,,,
,,,,left,1,0.3021,2,11,43,6,1,8,-200,left,681,2022-02-06_11h26.58.537,multiplicationStroop,2021.2.3,Win32,59.80861244,,,,,,,,,,,,,,,,,,,,,,,,,,,,,,,,,,,,,,,,,,,,,,,,,,,,,,,,,
,,,,right,1,0.2863,2,12,44,14,1,8,200,right,681,2022-02-06_11h26.58.537,multiplicationStroop,2021.2.3,Win32,59.80861244,,,,,,,,,,,,,,,,,,,,,,,,,,,,,,,,,,,,,,,,,,,,,,,,,,,,,,,,,
,,,,left,1,0.2816,2,13,45,7,1,9,-200,left,681,2022-02-06_11h26.58.537,multiplicationStroop,2021.2.3,Win32,59.80861244,,,,,,,,,,,,,,,,,,,,,,,,,,,,,,,,,,,,,,,,,,,,,,,,,,,,,,,,,
,,,,right,1,0.3303,2,14,46,13,1,7,200,right,681,2022-02-06_11h26.58.537,multiplicationStroop,2021.2.3,Win32,59.80861244,,,,,,,,,,,,,,,,,,,,,,,,,,,,,,,,,,,,,,,,,,,,,,,,,,,,,,,,,
,,,,right,1,0.4668,2,15,47,15,1,9,200,right,681,2022-02-06_11h26.58.537,multiplicationStroop,2021.2.3,Win32,59.80861244,,,,,,,,,,,,,,,,,,,,,,,,,,,,,,,,,,,,,,,,,,,,,,,,,,,,,,,,,
,,,,right,1,0.4324,3,0,48,8,1,1,200,right,681,2022-02-06_11h26.58.537,multiplicationStroop,2021.2.3,Win32,59.80861244,,,,,,,,,,,,,,,,,,,,,,,,,,,,,,,,,,,,,,,,,,,,,,,,,,,,,,,,,
,,,,left,1,0.6287,3,1,49,1,1,2,-200,left,681,2022-02-06_11h26.58.537,multiplicationStroop,2021.2.3,Win32,59.80861244,,,,,,,,,,,,,,,,,,,,,,,,,,,,,,,,,,,,,,,,,,,,,,,,,,,,,,,,,
,,,,right,1,0.666,3,2,50,15,1,9,200,right,681,2022-02-06_11h26.58.537,multiplicationStroop,2021.2.3,Win32,59.80861244,,,,,,,,,,,,,,,,,,,,,,,,,,,,,,,,,,,,,,,,,,,,,,,,,,,,,,,,,
,,,,left,1,0.5027,3,3,51,3,1,4,-200,left,681,2022-02-06_11h26.58.537,multiplicationStroop,2021.2.3,Win32,59.80861244,,,,,,,,,,,,,,,,,,,,,,,,,,,,,,,,,,,,,,,,,,,,,,,,,,,,,,,,,
,,,,left,1,0.3535,3,4,52,5,1,7,-200,left,681,2022-02-06_11h26.58.537,multiplicationStroop,2021.2.3,Win32,59.80861244,,,,,,,,,,,,,,,,,,,,,,,,,,,,,,,,,,,,,,,,,,,,,,,,,,,,,,,,,
,,,,left,1,0.3054,3,5,53,4,1,6,-200,left,681,2022-02-06_11h26.58.537,multiplicationStroop,2021.2.3,Win32,59.80861244,,,,,,,,,,,,,,,,,,,,,,,,,,,,,,,,,,,,,,,,,,,,,,,,,,,,,,,,,
,,,,right,1,0.3977,3,6,54,11,1,4,200,right,681,2022-02-06_11h26.58.537,multiplicationStroop,2021.2.3,Win32,59.80861244,,,,,,,,,,,,,,,,,,,,,,,,,,,,,,,,,,,,,,,,,,,,,,,,,,,,,,,,,
,,,,right,1,0.4563,3,7,55,12,1,6,200,right,681,2022-02-06_11h26.58.537,multiplicationStroop,2021.2.3,Win32,59.80861244,,,,,,,,,,,,,,,,,,,,,,,,,,,,,,,,,,,,,,,,,,,,,,,,,,,,,,,,,
,,,,left,1,0.3845,3,8,56,6,1,8,-200,left,681,2022-02-06_11h26.58.537,multiplicationStroop,2021.2.3,Win32,59.80861244,,,,,,,,,,,,,,,,,,,,,,,,,,,,,,,,,,,,,,,,,,,,,,,,,,,,,,,,,
,,,,right,1,0.3986,3,9,57,10,1,3,200,right,681,2022-02-06_11h26.58.537,multiplicationStroop,2021.2.3,Win32,59.80861244,,,,,,,,,,,,,,,,,,,,,,,,,,,,,,,,,,,,,,,,,,,,,,,,,,,,,,,,,
,,,,left,1,0.3303,3,10,58,0,1,1,-200,left,681,2022-02-06_11h26.58.537,multiplicationStroop,2021.2.3,Win32,59.80861244,,,,,,,,,,,,,,,,,,,,,,,,,,,,,,,,,,,,,,,,,,,,,,,,,,,,,,,,,
,,,,right,1,0.3409,3,11,59,9,1,2,200,right,681,2022-02-06_11h26.58.537,multiplicationStroop,2021.2.3,Win32,59.80861244,,,,,,,,,,,,,,,,,,,,,,,,,,,,,,,,,,,,,,,,,,,,,,,,,,,,,,,,,
,,,,left,1,0.289,3,12,60,2,1,3,-200,left,681,2022-02-06_11h26.58.537,multiplicationStroop,2021.2.3,Win32,59.80861244,,,,,,,,,,,,,,,,,,,,,,,,,,,,,,,,,,,,,,,,,,,,,,,,,,,,,,,,,
,,,,right,1,0.3306,3,13,61,14,1,8,200,right,681,2022-02-06_11h26.58.537,multiplicationStroop,2021.2.3,Win32,59.80861244,,,,,,,,,,,,,,,,,,,,,,,,,,,,,,,,,,,,,,,,,,,,,,,,,,,,,,,,,
,,,,right,1,0.351,3,14,62,13,1,7,200,right,681,2022-02-06_11h26.58.537,multiplicationStroop,2021.2.3,Win32,59.80861244,,,,,,,,,,,,,,,,,,,,,,,,,,,,,,,,,,,,,,,,,,,,,,,,,,,,,,,,,
,,,,left,1,0.3154,3,15,63,7,1,9,-200,left,681,2022-02-06_11h26.58.537,multiplicationStroop,2021.2.3,Win32,59.80861244,,,,,,,,,,,,,,,,,,,,,,,,,,,,,,,,,,,,,,,,,,,,,,,,,,,,,,,,,
,,,,,,,,,,,,,,,681,2022-02-06_11h26.58.537,multiplicationStroop,2021.2.3,Win32,59.80861244,space,7.4258,space,2.335,left,0,1.4029,0,0,0,66,1,3,3,3 | 3,0,1.9756,1.4111,neutral,right,,,,,,stimulusFile/physical.xlsx,,,,,,,,,,,,,,,,,,,,,,,,,,,,,,,
,,,,,,,,,,,,,,,681,2022-02-06_11h26.58.537,multiplicationStroop,2021.2.3,Win32,59.80861244,,,,,right,1,0.5686,0,1,1,2,1,6,7,6 | 7,1,1.4111,1.9756,congruent,right,,,,,,stimulusFile/physical.xlsx,,,,,,,,,,,,,,,,,,,,,,,,,,,,,,,
,,,,,,,,,,,,,,,681,2022-02-06_11h26.58.537,multiplicationStroop,2021.2.3,Win32,59.80861244,,,,,right,1,0.485,0,2,2,0,1,1,2,1 | 2,1,1.4111,1.9756,congruent,right,,,,,,stimulusFile/physical.xlsx,,,,,,,,,,,,,,,,,,,,,,,,,,,,,,,
,,,,,,,,,,,,,,,681,2022-02-06_11h26.58.537,multiplicationStroop,2021.2.3,Win32,59.80861244,,,,,left,1,0.4687,0,3,3,34,1,6,8,6 | 8,2,1.9756,1.4111,incongruent,left,,,,,,stimulusFile/physical.xlsx,,,,,,,,,,,,,,,,,,,,,,,,,,,,,,,
,,,,,,,,,,,,,,,681,2022-02-06_11h26.58.537,multiplicationStroop,2021.2.3,Win32,59.80861244,,,,,right,1,0.4626,0,4,4,10,1,6,8,6 | 8,2,1.4111,1.9756,congruent,right,,,,,,stimulusFile/physical.xlsx,,,,,,,,,,,,,,,,,,,,,,,,,,,,,,,
,,,,,,,,,,,,,,,681,2022-02-06_11h26.58.537,multiplicationStroop,2021.2.3,Win32,59.80861244,,,,,left,1,0.4601,0,5,5,7,1,9,8,9 | 8,1,1.9756,1.4111,congruent,left,,,,,,stimulusFile/physical.xlsx,,,,,,,,,,,,,,,,,,,,,,,,,,,,,,,
,,,,,,,,,,,,,,,681,2022-02-06_11h26.58.537,multiplicationStroop,2021.2.3,Win32,59.80861244,,,,,left,1,0.4715,0,6,6,27,1,8,9,8 | 9,1,1.9756,1.4111,incongruent,left,,,,,,stimulusFile/physical.xlsx,,,,,,,,,,,,,,,,,,,,,,,,,,,,,,,
,,,,,,,,,,,,,,,681,2022-02-06_11h26.58.537,multiplicationStroop,2021.2.3,Win32,59.80861244,,,,,right,1,0.5166,0,7,7,46,1,8,3,8 | 3,5,1.4111,1.9756,incongruent,right,,,,,,stimulusFile/physical.xlsx,,,,,,,,,,,,,,,,,,,,,,,,,,,,,,,
,,,,,,,,,,,,,,,681,2022-02-06_11h26.58.537,multiplicationStroop,2021.2.3,Win32,59.80861244,,,,,left,1,0.3911,0,8,8,55,1,9,9,9 | 9,0,1.9756,1.4111,neutral,left,,,,,,stimulusFile/physical.xlsx,,,,,,,,,,,,,,,,,,,,,,,,,,,,,,,
,,,,,,,,,,,,,,,681,2022-02-06_11h26.58.537,multiplicationStroop,2021.2.3,Win32,59.80861244,,,,,right,0,0.5382,0,9,9,71,1,9,9,9 | 9,0,1.4111,1.9756,neutral,left,,,,,,stimulusFile/physical.xlsx,,,,,,,,,,,,,,,,,,,,,,,,,,,,,,,
,,,,,,,,,,,,,,,681,2022-02-06_11h26.58.537,multiplicationStroop,2021.2.3,Win32,59.80861244,,,,,left,1,0.3955,0,10,10,12,1,3,1,3 | 1,2,1.9756,1.4111,congruent,left,,,,,,stimulusFile/physical.xlsx,,,,,,,,,,,,,,,,,,,,,,,,,,,,,,,
,,,,,,,,,,,,,,,681,2022-02-06_11h26.58.537,multiplicationStroop,2021.2.3,Win32,59.80861244,,,,,left,1,0.6043,0,11,11,32,1,1,3,1 | 3,2,1.9756,1.4111,incongruent,left,,,,,,stimulusFile/physical.xlsx,,,,,,,,,,,,,,,,,,,,,,,,,,,,,,,
,,,,,,,,,,,,,,,681,2022-02-06_11h26.58.537,multiplicationStroop,2021.2.3,Win32,59.80861244,,,,,right,1,0.4823,0,12,12,3,1,8,9,8 | 9,1,1.4111,1.9756,congruent,right,,,,,,stimulusFile/physical.xlsx,,,,,,,,,,,,,,,,,,,,,,,,,,,,,,,
,,,,,,,,,,,,,,,681,2022-02-06_11h26.58.537,multiplicationStroop,2021.2.3,Win32,59.80861244,,,,,right,1,0.4988,0,13,13,36,1,3,1,3 | 1,2,1.4111,1.9756,incongruent,right,,,,,,stimulusFile/physical.xlsx,,,,,,,,,,,,,,,,,,,,,,,,,,,,,,,
,,,,,,,,,,,,,,,681,2022-02-06_11h26.58.537,multiplicationStroop,2021.2.3,Win32,59.80861244,,,,,right,1,0.5186,0,14,14,19,1,4,9,4 | 9,5,1.4111,1.9756,congruent,right,,,,,,stimulusFile/physical.xlsx,,,,,,,,,,,,,,,,,,,,,,,,,,,,,,,
,,,,,,,,,,,,,,,681,2022-02-06_11h26.58.537,multiplicationStroop,2021.2.3,Win32,59.80861244,,,,,left,1,0.4872,0,15,15,68,1,6,6,6 | 6,0,1.9756,1.4111,neutral,left,,,,,,stimulusFile/physical.xlsx,,,,,,,,,,,,,,,,,,,,,,,,,,,,,,,
,,,,,,,,,,,,,,,681,2022-02-06_11h26.58.537,multiplicationStroop,2021.2.3,Win32,59.80861244,,,,,right,1,0.5969,0,16,16,28,1,2,1,2 | 1,1,1.4111,1.9756,incongruent,right,,,,,,stimulusFile/physical.xlsx,,,,,,,,,,,,,,,,,,,,,,,,,,,,,,,
,,,,,,,,,,,,,,,681,2022-02-06_11h26.58.537,multiplicationStroop,2021.2.3,Win32,59.80861244,,,,,left,1,0.4993,0,17,17,26,1,6,7,6 | 7,1,1.9756,1.4111,incongruent,left,,,,,,stimulusFile/physical.xlsx,,,,,,,,,,,,,,,,,,,,,,,,,,,,,,,
,,,,,,,,,,,,,,,681,2022-02-06_11h26.58.537,multiplicationStroop,2021.2.3,Win32,59.80861244,,,,,right,1,0.5144,0,18,18,1,1,3,4,3 | 4,1,1.4111,1.9756,congruent,right,,,,,,stimulusFile/physical.xlsx,,,,,,,,,,,,,,,,,,,,,,,,,,,,,,,
,,,,,,,,,,,,,,,681,2022-02-06_11h26.58.537,multiplicationStroop,2021.2.3,Win32,59.80861244,,,,,left,1,0.6119,0,19,19,41,1,2,7,2 | 7,5,1.9756,1.4111,incongruent,left,,,,,,stimulusFile/physical.xlsx,,,,,,,,,,,,,,,,,,,,,,,,,,,,,,,
,,,,,,,,,,,,,,,681,2022-02-06_11h26.58.537,multiplicationStroop,2021.2.3,Win32,59.80861244,,,,,left,1,0.7468,0,20,20,70,1,8,8,8 | 8,0,1.9756,1.4111,neutral,left,,,,,,stimulusFile/physical.xlsx,,,,,,,,,,,,,,,,,,,,,,,,,,,,,,,
,,,,,,,,,,,,,,,681,2022-02-06_11h26.58.537,multiplicationStroop,2021.2.3,Win32,59.80861244,,,,,right,1,0.5065,0,21,21,16,1,1,6,1 | 6,5,1.4111,1.9756,congruent,right,,,,,,stimulusFile/physical.xlsx,,,,,,,,,,,,,,,,,,,,,,,,,,,,,,,
,,,,,,,,,,,,,,,681,2022-02-06_11h26.58.537,multiplicationStroop,2021.2.3,Win32,59.80861244,,,,,left,1,0.4436,0,22,22,13,1,4,2,4 | 2,2,1.9756,1.4111,congruent,left,,,,,,stimulusFile/physical.xlsx,,,,,,,,,,,,,,,,,,,,,,,,,,,,,,,
,,,,,,,,,,,,,,,681,2022-02-06_11h26.58.537,multiplicationStroop,2021.2.3,Win32,59.80861244,,,,,left,1,0.5474,0,23,23,48,1,1,1,1 | 1,0,1.9756,1.4111,neutral,left,,,,,,stimulusFile/physical.xlsx,,,,,,,,,,,,,,,,,,,,,,,,,,,,,,,
,,,,,,,,,,,,,,,681,2022-02-06_11h26.58.537,multiplicationStroop,2021.2.3,Win32,59.80861244,,,,,left,1,0.6775,0,24,24,50,1,6,6,6 | 6,0,1.9756,1.4111,neutral,left,,,,,,stimulusFile/physical.xlsx,,,,,,,,,,,,,,,,,,,,,,,,,,,,,,,
,,,,,,,,,,,,,,,681,2022-02-06_11h26.58.537,multiplicationStroop,2021.2.3,Win32,59.80861244,,,,,right,0,0.4551,0,25,25,69,1,7,7,7 | 7,0,1.4111,1.9756,neutral,left,,,,,,stimulusFile/physical.xlsx,,,,,,,,,,,,,,,,,,,,,,,,,,,,,,,
,,,,,,,,,,,,,,,681,2022-02-06_11h26.58.537,multiplicationStroop,2021.2.3,Win32,59.80861244,,,,,left,1,2.0693,0,26,26,43,1,4,9,4 | 9,5,1.9756,1.4111,incongruent,left,,,,,,stimulusFile/physical.xlsx,,,,,,,,,,,,,,,,,,,,,,,,,,,,,,,
,,,,,,,,,,,,,,,681,2022-02-06_11h26.58.537,multiplicationStroop,2021.2.3,Win32,59.80861244,,,,,left,1,0.613,0,27,27,54,1,7,7,7 | 7,0,1.9756,1.4111,neutral,left,,,,,,stimulusFile/physical.xlsx,,,,,,,,,,,,,,,,,,,,,,,,,,,,,,,
,,,,,,,,,,,,,,,681,2022-02-06_11h26.58.537,multiplicationStroop,2021.2.3,Win32,59.80861244,,,,,right,1,0.5872,0,28,28,31,1,9,8,9 | 8,1,1.4111,1.9756,incongruent,right,,,,,,stimulusFile/physical.xlsx,,,,,,,,,,,,,,,,,,,,,,,,,,,,,,,
,,,,,,,,,,,,,,,681,2022-02-06_11h26.58.537,multiplicationStroop,2021.2.3,Win32,59.80861244,,,,,left,1,0.7939,0,29,29,14,1,8,6,8 | 6,2,1.9756,1.4111,congruent,left,,,,,,stimulusFile/physical.xlsx,,,,,,,,,,,,,,,,,,,,,,,,,,,,,,,
,,,,,,,,,,,,,,,681,2022-02-06_11h26.58.537,multiplicationStroop,2021.2.3,Win32,59.80861244,,,,,right,1,0.7454,0,30,30,29,1,4,3,4 | 3,1,1.4111,1.9756,incongruent,right,,,,,,stimulusFile/physical.xlsx,,,,,,,,,,,,,,,,,,,,,,,,,,,,,,,
,,,,,,,,,,,,,,,681,2022-02-06_11h26.58.537,multiplicationStroop,2021.2.3,Win32,59.80861244,,,,,right,1,0.7133,0,31,31,39,1,9,7,9 | 7,2,1.4111,1.9756,incongruent,right,,,,,,stimulusFile/physical.xlsx,,,,,,,,,,,,,,,,,,,,,,,,,,,,,,,
,,,,,,,,,,,,,,,681,2022-02-06_11h26.58.537,multiplicationStroop,2021.2.3,Win32,59.80861244,,,,,right,1,0.666,0,32,32,17,1,2,7,2 | 7,5,1.4111,1.9756,congruent,right,,,,,,stimulusFile/physical.xlsx,,,,,,,,,,,,,,,,,,,,,,,,,,,,,,,
,,,,,,,,,,,,,,,681,2022-02-06_11h26.58.537,multiplicationStroop,2021.2.3,Win32,59.80861244,,,,,left,1,0.6093,0,33,33,23,1,9,4,9 | 4,5,1.9756,1.4111,congruent,left,,,,,,stimulusFile/physical.xlsx,,,,,,,,,,,,,,,,,,,,,,,,,,,,,,,
,,,,,,,,,,,,,,,681,2022-02-06_11h26.58.537,multiplicationStroop,2021.2.3,Win32,59.80861244,,,,,left,1,0.4993,0,34,34,15,1,9,7,9 | 7,2,1.9756,1.4111,congruent,left,,,,,,stimulusFile/physical.xlsx,,,,,,,,,,,,,,,,,,,,,,,,,,,,,,,
,,,,,,,,,,,,,,,681,2022-02-06_11h26.58.537,multiplicationStroop,2021.2.3,Win32,59.80861244,,,,,right,1,0.6334,0,35,35,47,1,9,4,9 | 4,5,1.4111,1.9756,incongruent,right,,,,,,stimulusFile/physical.xlsx,,,,,,,,,,,,,,,,,,,,,,,,,,,,,,,
,,,,,,,,,,,,,,,681,2022-02-06_11h26.58.537,multiplicationStroop,2021.2.3,Win32,59.80861244,,,,,right,1,0.6941,0,36,36,58,1,6,6,6 | 6,0,1.4111,1.9756,neutral,right,,,,,,stimulusFile/physical.xlsx,,,,,,,,,,,,,,,,,,,,,,,,,,,,,,,
,,,,,,,,,,,,,,,681,2022-02-06_11h26.58.537,multiplicationStroop,2021.2.3,Win32,59.80861244,,,,,left,1,0.6068,0,37,37,49,1,3,3,3 | 3,0,1.9756,1.4111,neutral,left,,,,,,stimulusFile/physical.xlsx,,,,,,,,,,,,,,,,,,,,,,,,,,,,,,,
,,,,,,,,,,,,,,,681,2022-02-06_11h26.58.537,multiplicationStroop,2021.2.3,Win32,59.80861244,,,,,right,1,0.6451,0,38,38,60,1,3,3,3 | 3,0,1.4111,1.9756,neutral,right,,,,,,stimulusFile/physical.xlsx,,,,,,,,,,,,,,,,,,,,,,,,,,,,,,,
,,,,,,,,,,,,,,,681,2022-02-06_11h26.58.537,multiplicationStroop,2021.2.3,Win32,59.80861244,,,,,right,1,0.6876,0,39,39,9,1,2,4,2 | 4,2,1.4111,1.9756,congruent,right,,,,,,stimulusFile/physical.xlsx,,,,,,,,,,,,,,,,,,,,,,,,,,,,,,,
,,,,,,,,,,,,,,,681,2022-02-06_11h26.58.537,multiplicationStroop,2021.2.3,Win32,59.80861244,,,,,right,1,0.6682,0,40,40,62,1,8,8,8 | 8,0,1.4111,1.9756,neutral,right,,,,,,stimulusFile/physical.xlsx,,,,,,,,,,,,,,,,,,,,,,,,,,,,,,,
,,,,,,,,,,,,,,,681,2022-02-06_11h26.58.537,multiplicationStroop,2021.2.3,Win32,59.80861244,,,,,left,1,0.6275,0,41,41,53,1,4,4,4 | 4,0,1.9756,1.4111,neutral,left,,,,,,stimulusFile/physical.xlsx,,,,,,,,,,,,,,,,,,,,,,,,,,,,,,,
,,,,,,,,,,,,,,,681,2022-02-06_11h26.58.537,multiplicationStroop,2021.2.3,Win32,59.80861244,,,,,right,1,0.5098,0,42,42,8,1,1,3,1 | 3,2,1.4111,1.9756,congruent,right,,,,,,stimulusFile/physical.xlsx,,,,,,,,,,,,,,,,,,,,,,,,,,,,,,,
,,,,,,,,,,,,,,,681,2022-02-06_11h26.58.537,multiplicationStroop,2021.2.3,Win32,59.80861244,,,,,left,1,0.3794,0,43,43,52,1,2,2,2 | 2,0,1.9756,1.4111,neutral,left,,,,,,stimulusFile/physical.xlsx,,,,,,,,,,,,,,,,,,,,,,,,,,,,,,,
,,,,,,,,,,,,,,,681,2022-02-06_11h26.58.537,multiplicationStroop,2021.2.3,Win32,59.80861244,,,,,right,1,0.5326,0,44,44,38,1,8,6,8 | 6,2,1.4111,1.9756,incongruent,right,,,,,,stimulusFile/physical.xlsx,,,,,,,,,,,,,,,,,,,,,,,,,,,,,,,
,,,,,,,,,,,,,,,681,2022-02-06_11h26.58.537,multiplicationStroop,2021.2.3,Win32,59.80861244,,,,,right,1,0.6035,0,45,45,61,1,4,4,4 | 4,0,1.4111,1.9756,neutral,right,,,,,,stimulusFile/physical.xlsx,,,,,,,,,,,,,,,,,,,,,,,,,,,,,,,
,,,,,,,,,,,,,,,681,2022-02-06_11h26.58.537,multiplicationStroop,2021.2.3,Win32,59.80861244,,,,,left,1,0.4685,0,46,46,5,1,4,3,4 | 3,1,1.9756,1.4111,congruent,left,,,,,,stimulusFile/physical.xlsx,,,,,,,,,,,,,,,,,,,,,,,,,,,,,,,
,,,,,,,,,,,,,,,681,2022-02-06_11h26.58.537,multiplicationStroop,2021.2.3,Win32,59.80861244,,,,,left,1,0.4826,0,47,47,35,1,7,9,7 | 9,2,1.9756,1.4111,incongruent,left,,,,,,stimulusFile/physical.xlsx,,,,,,,,,,,,,,,,,,,,,,,,,,,,,,,
,,,,,,,,,,,,,,,681,2022-02-06_11h26.58.537,multiplicationStroop,2021.2.3,Win32,59.80861244,,,,,left,1,0.9454,0,48,48,6,1,7,6,7 | 6,1,1.9756,1.4111,congruent,left,,,,,,stimulusFile/physical.xlsx,,,,,,,,,,,,,,,,,,,,,,,,,,,,,,,
,,,,,,,,,,,,,,,681,2022-02-06_11h26.58.537,multiplicationStroop,2021.2.3,Win32,59.80861244,,,,,left,1,1.0147,0,49,49,42,1,3,8,3 | 8,5,1.9756,1.4111,incongruent,left,,,,,,stimulusFile/physical.xlsx,,,,,,,,,,,,,,,,,,,,,,,,,,,,,,,
,,,,,,,,,,,,,,,681,2022-02-06_11h26.58.537,multiplicationStroop,2021.2.3,Win32,59.80861244,,,,,right,1,0.5368,0,50,50,67,1,4,4,4 | 4,0,1.4111,1.9756,neutral,right,,,,,,stimulusFile/physical.xlsx,,,,,,,,,,,,,,,,,,,,,,,,,,,,,,,
,,,,,,,,,,,,,,,681,2022-02-06_11h26.58.537,multiplicationStroop,2021.2.3,Win32,59.80861244,,,,,right,1,0.9355,0,51,51,37,1,4,2,4 | 2,2,1.4111,1.9756,incongruent,right,,,,,,stimulusFile/physical.xlsx,,,,,,,,,,,,,,,,,,,,,,,,,,,,,,,
,,,,,,,,,,,,,,,681,2022-02-06_11h26.58.537,multiplicationStroop,2021.2.3,Win32,59.80861244,,,,,left,1,0.4559,0,52,52,4,1,2,1,2 | 1,1,1.9756,1.4111,congruent,left,,,,,,stimulusFile/physical.xlsx,,,,,,,,,,,,,,,,,,,,,,,,,,,,,,,
,,,,,,,,,,,,,,,681,2022-02-06_11h26.58.537,multiplicationStroop,2021.2.3,Win32,59.80861244,,,,,left,1,0.5447,0,53,53,51,1,8,8,8 | 8,0,1.9756,1.4111,neutral,left,,,,,,stimulusFile/physical.xlsx,,,,,,,,,,,,,,,,,,,,,,,,,,,,,,,
,,,,,,,,,,,,,,,681,2022-02-06_11h26.58.537,multiplicationStroop,2021.2.3,Win32,59.80861244,,,,,right,1,0.4989,0,54,54,18,1,3,8,3 | 8,5,1.4111,1.9756,congruent,right,,,,,,stimulusFile/physical.xlsx,,,,,,,,,,,,,,,,,,,,,,,,,,,,,,,
,,,,,,,,,,,,,,,681,2022-02-06_11h26.58.537,multiplicationStroop,2021.2.3,Win32,59.80861244,,,,,right,1,0.6945,0,55,55,65,1,2,2,2 | 2,0,1.4111,1.9756,neutral,right,,,,,,stimulusFile/physical.xlsx,,,,,,,,,,,,,,,,,,,,,,,,,,,,,,,
,,,,,,,,,,,,,,,681,2022-02-06_11h26.58.537,multiplicationStroop,2021.2.3,Win32,59.80861244,,,,,right,1,0.6852,0,56,56,44,1,6,1,6 | 1,5,1.4111,1.9756,incongruent,right,,,,,,stimulusFile/physical.xlsx,,,,,,,,,,,,,,,,,,,,,,,,,,,,,,,
,,,,,,,,,,,,,,,681,2022-02-06_11h26.58.537,multiplicationStroop,2021.2.3,Win32,59.80861244,,,,,right,1,0.6882,0,57,57,63,1,9,9,9 | 9,0,1.4111,1.9756,neutral,right,,,,,,stimulusFile/physical.xlsx,,,,,,,,,,,,,,,,,,,,,,,,,,,,,,,
,,,,,,,,,,,,,,,681,2022-02-06_11h26.58.537,multiplicationStroop,2021.2.3,Win32,59.80861244,,,,,right,1,0.5785,0,58,58,30,1,7,6,7 | 6,1,1.4111,1.9756,incongruent,right,,,,,,stimulusFile/physical.xlsx,,,,,,,,,,,,,,,,,,,,,,,,,,,,,,,
,,,,,,,,,,,,,,,681,2022-02-06_11h26.58.537,multiplicationStroop,2021.2.3,Win32,59.80861244,,,,,left,1,0.6978,0,59,59,21,1,7,2,7 | 2,5,1.9756,1.4111,congruent,left,,,,,,stimulusFile/physical.xlsx,,,,,,,,,,,,,,,,,,,,,,,,,,,,,,,
,,,,,,,,,,,,,,,681,2022-02-06_11h26.58.537,multiplicationStroop,2021.2.3,Win32,59.80861244,,,,,right,1,0.514,0,60,60,59,1,7,7,7 | 7,0,1.4111,1.9756,neutral,right,,,,,,stimulusFile/physical.xlsx,,,,,,,,,,,,,,,,,,,,,,,,,,,,,,,
,,,,,,,,,,,,,,,681,2022-02-06_11h26.58.537,multiplicationStroop,2021.2.3,Win32,59.80861244,,,,,right,1,0.6145,0,61,61,11,1,7,9,7 | 9,2,1.4111,1.9756,congruent,right,,,,,,stimulusFile/physical.xlsx,,,,,,,,,,,,,,,,,,,,,,,,,,,,,,,
,,,,,,,,,,,,,,,681,2022-02-06_11h26.58.537,multiplicationStroop,2021.2.3,Win32,59.80861244,,,,,left,1,0.4466,0,62,62,33,1,2,4,2 | 4,2,1.9756,1.4111,incongruent,left,,,,,,stimulusFile/physical.xlsx,,,,,,,,,,,,,,,,,,,,,,,,,,,,,,,
,,,,,,,,,,,,,,,681,2022-02-06_11h26.58.537,multiplicationStroop,2021.2.3,Win32,59.80861244,,,,,left,1,1.2192,0,63,63,40,1,1,6,1 | 6,5,1.9756,1.4111,incongruent,left,,,,,,stimulusFile/physical.xlsx,,,,,,,,,,,,,,,,,,,,,,,,,,,,,,,
,,,,,,,,,,,,,,,681,2022-02-06_11h26.58.537,multiplicationStroop,2021.2.3,Win32,59.80861244,,,,,left,1,0.7771,0,64,64,25,1,3,4,3 | 4,1,1.9756,1.4111,incongruent,left,,,,,,stimulusFile/physical.xlsx,,,,,,,,,,,,,,,,,,,,,,,,,,,,,,,
,,,,,,,,,,,,,,,681,2022-02-06_11h26.58.537,multiplicationStroop,2021.2.3,Win32,59.80861244,,,,,right,1,0.513,0,65,65,56,1,1,1,1 | 1,0,1.4111,1.9756,neutral,right,,,,,,stimulusFile/physical.xlsx,,,,,,,,,,,,,,,,,,,,,,,,,,,,,,,
,,,,,,,,,,,,,,,681,2022-02-06_11h26.58.537,multiplicationStroop,2021.2.3,Win32,59.80861244,,,,,right,1,0.9132,0,66,66,57,1,2,2,2 | 2,0,1.4111,1.9756,neutral,right,,,,,,stimulusFile/physical.xlsx,,,,,,,,,,,,,,,,,,,,,,,,,,,,,,,
,,,,,,,,,,,,,,,681,2022-02-06_11h26.58.537,multiplicationStroop,2021.2.3,Win32,59.80861244,,,,,left,1,0.527,0,67,67,22,1,8,3,8 | 3,5,1.9756,1.4111,congruent,left,,,,,,stimulusFile/physical.xlsx,,,,,,,,,,,,,,,,,,,,,,,,,,,,,,,
,,,,,,,,,,,,,,,681,2022-02-06_11h26.58.537,multiplicationStroop,2021.2.3,Win32,59.80861244,,,,,left,1,0.5269,0,68,68,20,1,6,1,6 | 1,5,1.9756,1.4111,congruent,left,,,,,,stimulusFile/physical.xlsx,,,,,,,,,,,,,,,,,,,,,,,,,,,,,,,
,,,,,,,,,,,,,,,681,2022-02-06_11h26.58.537,multiplicationStroop,2021.2.3,Win32,59.80861244,,,,,left,0,0.8001,0,69,69,64,1,1,1,1 | 1,0,1.9756,1.4111,neutral,right,,,,,,stimulusFile/physical.xlsx,,,,,,,,,,,,,,,,,,,,,,,,,,,,,,,
,,,,,,,,,,,,,,,681,2022-02-06_11h26.58.537,multiplicationStroop,2021.2.3,Win32,59.80861244,,,,,right,1,1.2137,0,70,70,45,1,7,2,7 | 2,5,1.4111,1.9756,incongruent,right,,,,,,stimulusFile/physical.xlsx,,,,,,,,,,,,,,,,,,,,,,,,,,,,,,,
,,,,,,,,,,,,,,,681,2022-02-06_11h26.58.537,multiplicationStroop,2021.2.3,Win32,59.80861244,,,,,left,1,0.761,0,71,71,24,1,1,2,1 | 2,1,1.9756,1.4111,incongruent,left,,,,,,stimulusFile/physical.xlsx,,,,,,,,,,,,,,,,,,,,,,,,,,,,,,,
,,,,,,,,,,,,,,,681,2022-02-06_11h26.58.537,multiplicationStroop,2021.2.3,Win32,59.80861244,,,,,,,,,,,,,,,,,,,,,0,0,0,1,1,stimulusFile/physical.xlsx,PHYSICALLY larger (larger font size).,images/physicallyLarger.png,,,,,,,,,,,,,,,,,,,,,,,,,,,,,
,,,,,,,,,,,,,,,681,2022-02-06_11h26.58.537,multiplicationStroop,2021.2.3,Win32,59.80861244,space,11.3685,space,4.0232,right,0,0.505,0,0,0,63,1,9,7,9 | 7,2,1.6933,1.6933,neutral,left,,,,,,stimulusFile/magnitude.xlsx,,,,,,,,,,,,,,,,,,,,,,,,,,,,,,,
,,,,,,,,,,,,,,,681,2022-02-06_11h26.58.537,multiplicationStroop,2021.2.3,Win32,59.80861244,,,,,left,1,4.0618,0,1,1,71,1,9,4,9 | 4,5,1.6933,1.6933,neutral,left,,,,,,stimulusFile/magnitude.xlsx,,,,,,,,,,,,,,,,,,,,,,,,,,,,,,,
,,,,,,,,,,,,,,,681,2022-02-06_11h26.58.537,multiplicationStroop,2021.2.3,Win32,59.80861244,,,,,right,0,0.5206,0,2,2,39,1,9,7,9 | 7,2,1.4111,1.9756,incongruent,left,,,,,,stimulusFile/magnitude.xlsx,,,,,,,,,,,,,,,,,,,,,,,,,,,,,,,
,,,,,,,,,,,,,,,681,2022-02-06_11h26.58.537,multiplicationStroop,2021.2.3,Win32,59.80861244,,,,,right,0,2.443,0,3,3,29,1,4,3,4 | 3,1,1.4111,1.9756,incongruent,left,,,,,,stimulusFile/magnitude.xlsx,,,,,,,,,,,,,,,,,,,,,,,,,,,,,,,
,,,,,,,,,,,,,,,681,2022-02-06_11h26.58.537,multiplicationStroop,2021.2.3,Win32,59.80861244,,,,,right,1,2.6081,0,4,4,57,1,2,4,2 | 4,2,1.6933,1.6933,neutral,right,,,,,,stimulusFile/magnitude.xlsx,,,,,,,,,,,,,,,,,,,,,,,,,,,,,,,
,,,,,,,,,,,,,,,681,2022-02-06_11h26.58.537,multiplicationStroop,2021.2.3,Win32,59.80861244,,,,,left,1,1.9107,0,5,5,47,1,9,4,9 | 4,5,1.4111,1.9756,incongruent,left,,,,,,stimulusFile/magnitude.xlsx,,,,,,,,,,,,,,,,,,,,,,,,,,,,,,,
,,,,,,,,,,,,,,,681,2022-02-06_11h26.58.537,multiplicationStroop,2021.2.3,Win32,59.80861244,,,,,left,1,1.5786,0,6,6,21,1,7,2,7 | 2,5,1.9756,1.4111,congruent,left,,,,,,stimulusFile/magnitude.xlsx,,,,,,,,,,,,,,,,,,,,,,,,,,,,,,,
,,,,,,,,,,,,,,,681,2022-02-06_11h26.58.537,multiplicationStroop,2021.2.3,Win32,59.80861244,,,,,right,1,0.8491,0,7,7,56,1,1,3,1 | 3,2,1.6933,1.6933,neutral,right,,,,,,stimulusFile/magnitude.xlsx,,,,,,,,,,,,,,,,,,,,,,,,,,,,,,,
,,,,,,,,,,,,,,,681,2022-02-06_11h26.58.537,multiplicationStroop,2021.2.3,Win32,59.80861244,,,,,right,1,0.5462,0,8,8,16,1,1,6,1 | 6,5,1.4111,1.9756,congruent,right,,,,,,stimulusFile/magnitude.xlsx,,,,,,,,,,,,,,,,,,,,,,,,,,,,,,,
,,,,,,,,,,,,,,,681,2022-02-06_11h26.58.537,multiplicationStroop,2021.2.3,Win32,59.80861244,,,,,left,1,0.5122,0,9,9,23,1,9,4,9 | 4,5,1.9756,1.4111,congruent,left,,,,,,stimulusFile/magnitude.xlsx,,,,,,,,,,,,,,,,,,,,,,,,,,,,,,,
,,,,,,,,,,,,,,,681,2022-02-06_11h26.58.537,multiplicationStroop,2021.2.3,Win32,59.80861244,,,,,left,1,1.1684,0,10,10,46,1,8,3,8 | 3,5,1.4111,1.9756,incongruent,left,,,,,,stimulusFile/magnitude.xlsx,,,,,,,,,,,,,,,,,,,,,,,,,,,,,,,
,,,,,,,,,,,,,,,681,2022-02-06_11h26.58.537,multiplicationStroop,2021.2.3,Win32,59.80861244,,,,,right,1,1.1111,0,11,11,40,1,1,6,1 | 6,5,1.9756,1.4111,incongruent,right,,,,,,stimulusFile/magnitude.xlsx,,,,,,,,,,,,,,,,,,,,,,,,,,,,,,,
,,,,,,,,,,,,,,,681,2022-02-06_11h26.58.537,multiplicationStroop,2021.2.3,Win32,59.80861244,,,,,right,1,1.2504,0,12,12,48,1,1,2,1 | 2,1,1.6933,1.6933,neutral,right,,,,,,stimulusFile/magnitude.xlsx,,,,,,,,,,,,,,,,,,,,,,,,,,,,,,,
,,,,,,,,,,,,,,,681,2022-02-06_11h26.58.537,multiplicationStroop,2021.2.3,Win32,59.80861244,,,,,right,1,0.6284,0,13,13,17,1,2,7,2 | 7,5,1.4111,1.9756,congruent,right,,,,,,stimulusFile/magnitude.xlsx,,,,,,,,,,,,,,,,,,,,,,,,,,,,,,,
,,,,,,,,,,,,,,,681,2022-02-06_11h26.58.537,multiplicationStroop,2021.2.3,Win32,59.80861244,,,,,right,1,0.8202,0,14,14,66,1,3,8,3 | 8,5,1.6933,1.6933,neutral,right,,,,,,stimulusFile/magnitude.xlsx,,,,,,,,,,,,,,,,,,,,,,,,,,,,,,,
,,,,,,,,,,,,,,,681,2022-02-06_11h26.58.537,multiplicationStroop,2021.2.3,Win32,59.80861244,,,,,right,1,0.845,0,15,15,24,1,1,2,1 | 2,1,1.9756,1.4111,incongruent,right,,,,,,stimulusFile/magnitude.xlsx,,,,,,,,,,,,,,,,,,,,,,,,,,,,,,,
,,,,,,,,,,,,,,,681,2022-02-06_11h26.58.537,multiplicationStroop,2021.2.3,Win32,59.80861244,,,,,left,1,1.1041,0,16,16,70,1,8,3,8 | 3,5,1.6933,1.6933,neutral,left,,,,,,stimulusFile/magnitude.xlsx,,,,,,,,,,,,,,,,,,,,,,,,,,,,,,,
,,,,,,,,,,,,,,,681,2022-02-06_11h26.58.537,multiplicationStroop,2021.2.3,Win32,59.80861244,,,,,left,1,1.1169,0,17,17,60,1,3,1,3 | 1,2,1.6933,1.6933,neutral,left,,,,,,stimulusFile/magnitude.xlsx,,,,,,,,,,,,,,,,,,,,,,,,,,,,,,,
,,,,,,,,,,,,,,,681,2022-02-06_11h26.58.537,multiplicationStroop,2021.2.3,Win32,59.80861244,,,,,left,1,0.586,0,18,18,13,1,4,2,4 | 2,2,1.9756,1.4111,congruent,left,,,,,,stimulusFile/magnitude.xlsx,,,,,,,,,,,,,,,,,,,,,,,,,,,,,,,
,,,,,,,,,,,,,,,681,2022-02-06_11h26.58.537,multiplicationStroop,2021.2.3,Win32,59.80861244,,,,,left,1,0.9107,0,19,19,62,1,8,6,8 | 6,2,1.6933,1.6933,neutral,left,,,,,,stimulusFile/magnitude.xlsx,,,,,,,,,,,,,,,,,,,,,,,,,,,,,,,
,,,,,,,,,,,,,,,681,2022-02-06_11h26.58.537,multiplicationStroop,2021.2.3,Win32,59.80861244,,,,,right,1,0.5812,0,20,20,1,1,3,4,3 | 4,1,1.4111,1.9756,congruent,right,,,,,,stimulusFile/magnitude.xlsx,,,,,,,,,,,,,,,,,,,,,,,,,,,,,,,
,,,,,,,,,,,,,,,681,2022-02-06_11h26.58.537,multiplicationStroop,2021.2.3,Win32,59.80861244,,,,,right,0,0.8017,0,21,21,44,1,6,1,6 | 1,5,1.4111,1.9756,incongruent,left,,,,,,stimulusFile/magnitude.xlsx,,,,,,,,,,,,,,,,,,,,,,,,,,,,,,,
,,,,,,,,,,,,,,,681,2022-02-06_11h26.58.537,multiplicationStroop,2021.2.3,Win32,59.80861244,,,,,left,1,0.7444,0,22,22,31,1,9,8,9 | 8,1,1.4111,1.9756,incongruent,left,,,,,,stimulusFile/magnitude.xlsx,,,,,,,,,,,,,,,,,,,,,,,,,,,,,,,
,,,,,,,,,,,,,,,681,2022-02-06_11h26.58.537,multiplicationStroop,2021.2.3,Win32,59.80861244,,,,,right,1,1.1441,0,23,23,41,1,2,7,2 | 7,5,1.9756,1.4111,incongruent,right,,,,,,stimulusFile/magnitude.xlsx,,,,,,,,,,,,,,,,,,,,,,,,,,,,,,,
,,,,,,,,,,,,,,,681,2022-02-06_11h26.58.537,multiplicationStroop,2021.2.3,Win32,59.80861244,,,,,right,1,0.7605,0,24,24,3,1,8,9,8 | 9,1,1.4111,1.9756,congruent,right,,,,,,stimulusFile/magnitude.xlsx,,,,,,,,,,,,,,,,,,,,,,,,,,,,,,,
,,,,,,,,,,,,,,,681,2022-02-06_11h26.58.537,multiplicationStroop,2021.2.3,Win32,59.80861244,,,,,right,1,0.5634,0,25,25,19,1,4,9,4 | 9,5,1.4111,1.9756,congruent,right,,,,,,stimulusFile/magnitude.xlsx,,,,,,,,,,,,,,,,,,,,,,,,,,,,,,,
,,,,,,,,,,,,,,,681,2022-02-06_11h26.58.537,multiplicationStroop,2021.2.3,Win32,59.80861244,,,,,left,1,0.6269,0,26,26,6,1,7,6,7 | 6,1,1.9756,1.4111,congruent,left,,,,,,stimulusFile/magnitude.xlsx,,,,,,,,,,,,,,,,,,,,,,,,,,,,,,,
,,,,,,,,,,,,,,,681,2022-02-06_11h26.58.537,multiplicationStroop,2021.2.3,Win32,59.80861244,,,,,right,1,0.6611,0,27,27,65,1,2,7,2 | 7,5,1.6933,1.6933,neutral,right,,,,,,stimulusFile/magnitude.xlsx,,,,,,,,,,,,,,,,,,,,,,,,,,,,,,,
,,,,,,,,,,,,,,,681,2022-02-06_11h26.58.537,multiplicationStroop,2021.2.3,Win32,59.80861244,,,,,left,1,0.9961,0,28,28,45,1,7,2,7 | 2,5,1.4111,1.9756,incongruent,left,,,,,,stimulusFile/magnitude.xlsx,,,,,,,,,,,,,,,,,,,,,,,,,,,,,,,
,,,,,,,,,,,,,,,681,2022-02-06_11h26.58.537,multiplicationStroop,2021.2.3,Win32,59.80861244,,,,,right,1,0.8135,0,29,29,43,1,4,9,4 | 9,5,1.9756,1.4111,incongruent,right,,,,,,stimulusFile/magnitude.xlsx,,,,,,,,,,,,,,,,,,,,,,,,,,,,,,,
,,,,,,,,,,,,,,,681,2022-02-06_11h26.58.537,multiplicationStroop,2021.2.3,Win32,59.80861244,,,,,right,1,0.7649,0,30,30,67,1,4,9,4 | 9,5,1.6933,1.6933,neutral,right,,,,,,stimulusFile/magnitude.xlsx,,,,,,,,,,,,,,,,,,,,,,,,,,,,,,,
,,,,,,,,,,,,,,,681,2022-02-06_11h26.58.537,multiplicationStroop,2021.2.3,Win32,59.80861244,,,,,left,1,0.635,0,31,31,5,1,4,3,4 | 3,1,1.9756,1.4111,congruent,left,,,,,,stimulusFile/magnitude.xlsx,,,,,,,,,,,,,,,,,,,,,,,,,,,,,,,
,,,,,,,,,,,,,,,681,2022-02-06_11h26.58.537,multiplicationStroop,2021.2.3,Win32,59.80861244,,,,,right,1,0.6362,0,32,32,33,1,2,4,2 | 4,2,1.9756,1.4111,incongruent,right,,,,,,stimulusFile/magnitude.xlsx,,,,,,,,,,,,,,,,,,,,,,,,,,,,,,,
,,,,,,,,,,,,,,,681,2022-02-06_11h26.58.537,multiplicationStroop,2021.2.3,Win32,59.80861244,,,,,right,1,0.8619,0,33,33,26,1,6,7,6 | 7,1,1.9756,1.4111,incongruent,right,,,,,,stimulusFile/magnitude.xlsx,,,,,,,,,,,,,,,,,,,,,,,,,,,,,,,
,,,,,,,,,,,,,,,681,2022-02-06_11h26.58.537,multiplicationStroop,2021.2.3,Win32,59.80861244,,,,,right,1,0.5358,0,34,34,32,1,1,3,1 | 3,2,1.9756,1.4111,incongruent,right,,,,,,stimulusFile/magnitude.xlsx,,,,,,,,,,,,,,,,,,,,,,,,,,,,,,,
,,,,,,,,,,,,,,,681,2022-02-06_11h26.58.537,multiplicationStroop,2021.2.3,Win32,59.80861244,,,,,left,1,0.518,0,35,35,22,1,8,3,8 | 3,5,1.9756,1.4111,congruent,left,,,,,,stimulusFile/magnitude.xlsx,,,,,,,,,,,,,,,,,,,,,,,,,,,,,,,
,,,,,,,,,,,,,,,681,2022-02-06_11h26.58.537,multiplicationStroop,2021.2.3,Win32,59.80861244,,,,,right,0,0.689,0,36,36,36,1,3,1,3 | 1,2,1.4111,1.9756,incongruent,left,,,,,,stimulusFile/magnitude.xlsx,,,,,,,,,,,,,,,,,,,,,,,,,,,,,,,
,,,,,,,,,,,,,,,681,2022-02-06_11h26.58.537,multiplicationStroop,2021.2.3,Win32,59.80861244,,,,,left,1,1.269,0,37,37,14,1,8,6,8 | 6,2,1.9756,1.4111,congruent,left,,,,,,stimulusFile/magnitude.xlsx,,,,,,,,,,,,,,,,,,,,,,,,,,,,,,,
,,,,,,,,,,,,,,,681,2022-02-06_11h26.58.537,multiplicationStroop,2021.2.3,Win32,59.80861244,,,,,left,1,0.9167,0,38,38,30,1,7,6,7 | 6,1,1.4111,1.9756,incongruent,left,,,,,,stimulusFile/magnitude.xlsx,,,,,,,,,,,,,,,,,,,,,,,,,,,,,,,
,,,,,,,,,,,,,,,681,2022-02-06_11h26.58.537,multiplicationStroop,2021.2.3,Win32,59.80861244,,,,,left,1,1.0134,0,39,39,52,1,2,1,2 | 1,1,1.6933,1.6933,neutral,left,,,,,,stimulusFile/magnitude.xlsx,,,,,,,,,,,,,,,,,,,,,,,,,,,,,,,
,,,,,,,,,,,,,,,681,2022-02-06_11h26.58.537,multiplicationStroop,2021.2.3,Win32,59.80861244,,,,,left,1,0.6685,0,40,40,69,1,7,2,7 | 2,5,1.6933,1.6933,neutral,left,,,,,,stimulusFile/magnitude.xlsx,,,,,,,,,,,,,,,,,,,,,,,,,,,,,,,
,,,,,,,,,,,,,,,681,2022-02-06_11h26.58.537,multiplicationStroop,2021.2.3,Win32,59.80861244,,,,,left,1,0.7774,0,41,41,38,1,8,6,8 | 6,2,1.4111,1.9756,incongruent,left,,,,,,stimulusFile/magnitude.xlsx,,,,,,,,,,,,,,,,,,,,,,,,,,,,,,,
,,,,,,,,,,,,,,,681,2022-02-06_11h26.58.537,multiplicationStroop,2021.2.3,Win32,59.80861244,,,,,right,1,0.6442,0,42,42,50,1,6,7,6 | 7,1,1.6933,1.6933,neutral,right,,,,,,stimulusFile/magnitude.xlsx,,,,,,,,,,,,,,,,,,,,,,,,,,,,,,,
,,,,,,,,,,,,,,,681,2022-02-06_11h26.58.537,multiplicationStroop,2021.2.3,Win32,59.80861244,,,,,left,1,0.735,0,43,43,54,1,7,6,7 | 6,1,1.6933,1.6933,neutral,left,,,,,,stimulusFile/magnitude.xlsx,,,,,,,,,,,,,,,,,,,,,,,,,,,,,,,
,,,,,,,,,,,,,,,681,2022-02-06_11h26.58.537,multiplicationStroop,2021.2.3,Win32,59.80861244,,,,,left,1,0.6998,0,44,44,68,1,6,1,6 | 1,5,1.6933,1.6933,neutral,left,,,,,,stimulusFile/magnitude.xlsx,,,,,,,,,,,,,,,,,,,,,,,,,,,,,,,
,,,,,,,,,,,,,,,681,2022-02-06_11h26.58.537,multiplicationStroop,2021.2.3,Win32,59.80861244,,,,,right,1,0.5987,0,45,45,42,1,3,8,3 | 8,5,1.9756,1.4111,incongruent,right,,,,,,stimulusFile/magnitude.xlsx,,,,,,,,,,,,,,,,,,,,,,,,,,,,,,,
,,,,,,,,,,,,,,,681,2022-02-06_11h26.58.537,multiplicationStroop,2021.2.3,Win32,59.80861244,,,,,left,1,0.6316,0,46,46,7,1,9,8,9 | 8,1,1.9756,1.4111,congruent,left,,,,,,stimulusFile/magnitude.xlsx,,,,,,,,,,,,,,,,,,,,,,,,,,,,,,,
,,,,,,,,,,,,,,,681,2022-02-06_11h26.58.537,multiplicationStroop,2021.2.3,Win32,59.80861244,,,,,right,1,0.5904,0,47,47,8,1,1,3,1 | 3,2,1.4111,1.9756,congruent,right,,,,,,stimulusFile/magnitude.xlsx,,,,,,,,,,,,,,,,,,,,,,,,,,,,,,,
,,,,,,,,,,,,,,,681,2022-02-06_11h26.58.537,multiplicationStroop,2021.2.3,Win32,59.80861244,,,,,left,1,0.5613,0,48,48,53,1,4,3,4 | 3,1,1.6933,1.6933,neutral,left,,,,,,stimulusFile/magnitude.xlsx,,,,,,,,,,,,,,,,,,,,,,,,,,,,,,,
,,,,,,,,,,,,,,,681,2022-02-06_11h26.58.537,multiplicationStroop,2021.2.3,Win32,59.80861244,,,,,left,1,0.5674,0,49,49,15,1,9,7,9 | 7,2,1.9756,1.4111,congruent,left,,,,,,stimulusFile/magnitude.xlsx,,,,,,,,,,,,,,,,,,,,,,,,,,,,,,,
,,,,,,,,,,,,,,,681,2022-02-06_11h26.58.537,multiplicationStroop,2021.2.3,Win32,59.80861244,,,,,right,1,0.6297,0,50,50,35,1,7,9,7 | 9,2,1.9756,1.4111,incongruent,right,,,,,,stimulusFile/magnitude.xlsx,,,,,,,,,,,,,,,,,,,,,,,,,,,,,,,
,,,,,,,,,,,,,,,681,2022-02-06_11h26.58.537,multiplicationStroop,2021.2.3,Win32,59.80861244,,,,,right,1,0.6937,0,51,51,34,1,6,8,6 | 8,2,1.9756,1.4111,incongruent,right,,,,,,stimulusFile/magnitude.xlsx,,,,,,,,,,,,,,,,,,,,,,,,,,,,,,,
,,,,,,,,,,,,,,,681,2022-02-06_11h26.58.537,multiplicationStroop,2021.2.3,Win32,59.80861244,,,,,left,1,0.5781,0,52,52,37,1,4,2,4 | 2,2,1.4111,1.9756,incongruent,left,,,,,,stimulusFile/magnitude.xlsx,,,,,,,,,,,,,,,,,,,,,,,,,,,,,,,
,,,,,,,,,,,,,,,681,2022-02-06_11h26.58.537,multiplicationStroop,2021.2.3,Win32,59.80861244,,,,,left,1,0.6157,0,53,53,20,1,6,1,6 | 1,5,1.9756,1.4111,congruent,left,,,,,,stimulusFile/magnitude.xlsx,,,,,,,,,,,,,,,,,,,,,,,,,,,,,,,
,,,,,,,,,,,,,,,681,2022-02-06_11h26.58.537,multiplicationStroop,2021.2.3,Win32,59.80861244,,,,,right,1,0.6331,0,54,54,0,1,1,2,1 | 2,1,1.4111,1.9756,congruent,right,,,,,,stimulusFile/magnitude.xlsx,,,,,,,,,,,,,,,,,,,,,,,,,,,,,,,
,,,,,,,,,,,,,,,681,2022-02-06_11h26.58.537,multiplicationStroop,2021.2.3,Win32,59.80861244,,,,,left,1,0.6312,0,55,55,28,1,2,1,2 | 1,1,1.4111,1.9756,incongruent,left,,,,,,stimulusFile/magnitude.xlsx,,,,,,,,,,,,,,,,,,,,,,,,,,,,,,,
,,,,,,,,,,,,,,,681,2022-02-06_11h26.58.537,multiplicationStroop,2021.2.3,Win32,59.80861244,,,,,right,1,0.7771,0,56,56,25,1,3,4,3 | 4,1,1.9756,1.4111,incongruent,right,,,,,,stimulusFile/magnitude.xlsx,,,,,,,,,,,,,,,,,,,,,,,,,,,,,,,
,,,,,,,,,,,,,,,681,2022-02-06_11h26.58.537,multiplicationStroop,2021.2.3,Win32,59.80861244,,,,,right,1,0.6511,0,57,57,2,1,6,7,6 | 7,1,1.4111,1.9756,congruent,right,,,,,,stimulusFile/magnitude.xlsx,,,,,,,,,,,,,,,,,,,,,,,,,,,,,,,
,,,,,,,,,,,,,,,681,2022-02-06_11h26.58.537,multiplicationStroop,2021.2.3,Win32,59.80861244,,,,,left,1,0.6812,0,58,58,61,1,4,2,4 | 2,2,1.6933,1.6933,neutral,left,,,,,,stimulusFile/magnitude.xlsx,,,,,,,,,,,,,,,,,,,,,,,,,,,,,,,
,,,,,,,,,,,,,,,681,2022-02-06_11h26.58.537,multiplicationStroop,2021.2.3,Win32,59.80861244,,,,,right,1,0.5939,0,59,59,58,1,6,8,6 | 8,2,1.6933,1.6933,neutral,right,,,,,,stimulusFile/magnitude.xlsx,,,,,,,,,,,,,,,,,,,,,,,,,,,,,,,
,,,,,,,,,,,,,,,681,2022-02-06_11h26.58.537,multiplicationStroop,2021.2.3,Win32,59.80861244,,,,,right,1,0.6199,0,60,60,9,1,2,4,2 | 4,2,1.4111,1.9756,congruent,right,,,,,,stimulusFile/magnitude.xlsx,,,,,,,,,,,,,,,,,,,,,,,,,,,,,,,
,,,,,,,,,,,,,,,681,2022-02-06_11h26.58.537,multiplicationStroop,2021.2.3,Win32,59.80861244,,,,,left,1,0.6131,0,61,61,4,1,2,1,2 | 1,1,1.9756,1.4111,congruent,left,,,,,,stimulusFile/magnitude.xlsx,,,,,,,,,,,,,,,,,,,,,,,,,,,,,,,
,,,,,,,,,,,,,,,681,2022-02-06_11h26.58.537,multiplicationStroop,2021.2.3,Win32,59.80861244,,,,,right,1,1.0629,0,62,62,10,1,6,8,6 | 8,2,1.4111,1.9756,congruent,right,,,,,,stimulusFile/magnitude.xlsx,,,,,,,,,,,,,,,,,,,,,,,,,,,,,,,
,,,,,,,,,,,,,,,681,2022-02-06_11h26.58.537,multiplicationStroop,2021.2.3,Win32,59.80861244,,,,,left,1,0.5799,0,63,63,12,1,3,1,3 | 1,2,1.9756,1.4111,congruent,left,,,,,,stimulusFile/magnitude.xlsx,,,,,,,,,,,,,,,,,,,,,,,,,,,,,,,
,,,,,,,,,,,,,,,681,2022-02-06_11h26.58.537,multiplicationStroop,2021.2.3,Win32,59.80861244,,,,,left,1,0.6996,0,64,64,55,1,9,8,9 | 8,1,1.6933,1.6933,neutral,left,,,,,,stimulusFile/magnitude.xlsx,,,,,,,,,,,,,,,,,,,,,,,,,,,,,,,
,,,,,,,,,,,,,,,681,2022-02-06_11h26.58.537,multiplicationStroop,2021.2.3,Win32,59.80861244,,,,,right,1,0.6451,0,65,65,11,1,7,9,7 | 9,2,1.4111,1.9756,congruent,right,,,,,,stimulusFile/magnitude.xlsx,,,,,,,,,,,,,,,,,,,,,,,,,,,,,,,
,,,,,,,,,,,,,,,681,2022-02-06_11h26.58.537,multiplicationStroop,2021.2.3,Win32,59.80861244,,,,,right,1,0.7107,0,66,66,59,1,7,9,7 | 9,2,1.6933,1.6933,neutral,right,,,,,,stimulusFile/magnitude.xlsx,,,,,,,,,,,,,,,,,,,,,,,,,,,,,,,
,,,,,,,,,,,,,,,681,2022-02-06_11h26.58.537,multiplicationStroop,2021.2.3,Win32,59.80861244,,,,,right,1,0.7445,0,67,67,49,1,3,4,3 | 4,1,1.6933,1.6933,neutral,right,,,,,,stimulusFile/magnitude.xlsx,,,,,,,,,,,,,,,,,,,,,,,,,,,,,,,
,,,,,,,,,,,,,,,681,2022-02-06_11h26.58.537,multiplicationStroop,2021.2.3,Win32,59.80861244,,,,,right,1,0.7599,0,68,68,18,1,3,8,3 | 8,5,1.4111,1.9756,congruent,right,,,,,,stimulusFile/magnitude.xlsx,,,,,,,,,,,,,,,,,,,,,,,,,,,,,,,
,,,,,,,,,,,,,,,681,2022-02-06_11h26.58.537,multiplicationStroop,2021.2.3,Win32,59.80861244,,,,,right,1,0.7209,0,69,69,64,1,1,6,1 | 6,5,1.6933,1.6933,neutral,right,,,,,,stimulusFile/magnitude.xlsx,,,,,,,,,,,,,,,,,,,,,,,,,,,,,,,
,,,,,,,,,,,,,,,681,2022-02-06_11h26.58.537,multiplicationStroop,2021.2.3,Win32,59.80861244,,,,,right,1,0.6611,0,70,70,51,1,8,9,8 | 9,1,1.6933,1.6933,neutral,right,,,,,,stimulusFile/magnitude.xlsx,,,,,,,,,,,,,,,,,,,,,,,,,,,,,,,
,,,,,,,,,,,,,,,681,2022-02-06_11h26.58.537,multiplicationStroop,2021.2.3,Win32,59.80861244,,,,,right,1,0.7108,0,71,71,27,1,8,9,8 | 9,1,1.9756,1.4111,incongruent,right,,,,,,stimulusFile/magnitude.xlsx,,,,,,,,,,,,,,,,,,,,,,,,,,,,,,,
,,,,,,,,,,,,,,,681,2022-02-06_11h26.58.537,multiplicationStroop,2021.2.3,Win32,59.80861244,,,,,,,,,,,,,,,,,,,,,0,1,1,0,1,stimulusFile/magnitude.xlsx,NUMERICALLY larger (larger coefficient).,images/numericallyLarger.png,,,,,,,,,,,,,,,,,,,,,,,,,,,,,
,,,,,,,,,,,,,,,681,2022-02-06_11h26.58.537,multiplicationStroop,2021.2.3,Win32,59.80861244,,,,,,,,,,,,,,,,,,,,,,,,,,,,,space,8.7907,space,1.0622,32,3.8986,1,0,0,0,9,1,4,×,8,4 × 8,neutral,smallerFirst,1.5,1.5,32,,,,,,,,
,,,,,,,,,,,,,,,681,2022-02-06_11h26.58.537,multiplicationStroop,2021.2.3,Win32,59.80861244,,,,,,,,,,,,,,,,,,,,,,,,,,,,,,,,,4,1.4352,1,0,1,1,28,1,2,×,2,2 × 2,neutral,tie,1.5,1.5,4,,,,,,,,
,,,,,,,,,,,,,,,681,2022-02-06_11h26.58.537,multiplicationStroop,2021.2.3,Win32,59.80861244,,,,,,,,,,,,,,,,,,,,,,,,,,,,,,,,,81,4.1619,1,0,2,2,35,1,9,×,9,9 × 9,neutral,tie,1.5,1.5,81,,,,,,,,
,,,,,,,,,,,,,,,681,2022-02-06_11h26.58.537,multiplicationStroop,2021.2.3,Win32,59.80861244,,,,,,,,,,,,,,,,,,,,,,,,,,,,,,,,,24,1.4201,1,0,3,3,16,1,6,×,4,6 × 4,neutral,largerFirst,1.5,1.5,24,,,,,,,,
,,,,,,,,,,,,,,,681,2022-02-06_11h26.58.537,multiplicationStroop,2021.2.3,Win32,59.80861244,,,,,,,,,,,,,,,,,,,,,,,,,,,,,,,,,20,1.9311,1,0,4,4,6,1,4,×,5,4 × 5,neutral,smallerFirst,1.5,1.5,20,,,,,,,,
,,,,,,,,,,,,,,,681,2022-02-06_11h26.58.537,multiplicationStroop,2021.2.3,Win32,59.80861244,,,,,,,,,,,,,,,,,,,,,,,,,,,,,,,,,64,2.6297,1,0,5,5,34,1,8,×,8,8 × 8,neutral,tie,1.5,1.5,64,,,,,,,,
,,,,,,,,,,,,,,,681,2022-02-06_11h26.58.537,multiplicationStroop,2021.2.3,Win32,59.80861244,,,,,,,,,,,,,,,,,,,,,,,,,,,,,,,,,18,2.0212,1,0,6,6,14,1,6,×,3,6 × 3,neutral,largerFirst,1.5,1.5,18,,,,,,,,
,,,,,,,,,,,,,,,681,2022-02-06_11h26.58.537,multiplicationStroop,2021.2.3,Win32,59.80861244,,,,,,,,,,,,,,,,,,,,,,,,,,,,,,,,,28,2.6313,1,0,7,7,3,1,4,×,7,4 × 7,neutral,smallerFirst,1.5,1.5,28,,,,,,,,
,,,,,,,,,,,,,,,681,2022-02-06_11h26.58.537,multiplicationStroop,2021.2.3,Win32,59.80861244,,,,,,,,,,,,,,,,,,,,,,,,,,,,,,,,,9,1.7307,1,0,8,8,29,1,3,×,3,3 × 3,neutral,tie,1.5,1.5,9,,,,,,,,
,,,,,,,,,,,,,,,681,2022-02-06_11h26.58.537,multiplicationStroop,2021.2.3,Win32,59.80861244,,,,,,,,,,,,,,,,,,,,,,,,,,,,,,,,,25,1.6308,1,0,9,9,31,1,5,×,5,5 × 5,neutral,tie,1.5,1.5,25,,,,,,,,
,,,,,,,,,,,,,,,681,2022-02-06_11h26.58.537,multiplicationStroop,2021.2.3,Win32,59.80861244,,,,,,,,,,,,,,,,,,,,,,,,,,,,,,,,,49,1.9648,1,0,10,10,33,1,7,×,7,7 × 7,neutral,tie,1.5,1.5,49,,,,,,,,
,,,,,,,,,,,,,,,681,2022-02-06_11h26.58.537,multiplicationStroop,2021.2.3,Win32,59.80861244,,,,,,,,,,,,,,,,,,,,,,,,,,,,,,,,,8,1.797,1,0,11,11,17,1,4,×,2,4 × 2,neutral,largerFirst,1.5,1.5,8,,,,,,,,
,,,,,,,,,,,,,,,681,2022-02-06_11h26.58.537,multiplicationStroop,2021.2.3,Win32,59.80861244,,,,,,,,,,,,,,,,,,,,,,,,,,,,,,,,,72,2.4142,1,0,12,12,25,1,9,×,8,9 × 8,neutral,largerFirst,1.5,1.5,72,,,,,,,,
,,,,,,,,,,,,,,,681,2022-02-06_11h26.58.537,multiplicationStroop,2021.2.3,Win32,59.80861244,,,,,,,,,,,,,,,,,,,,,,,,,,,,,,,,,24,1.681,1,0,13,13,8,1,3,×,8,3 × 8,neutral,smallerFirst,1.5,1.5,24,,,,,,,,
,,,,,,,,,,,,,,,681,2022-02-06_11h26.58.537,multiplicationStroop,2021.2.3,Win32,59.80861244,,,,,,,,,,,,,,,,,,,,,,,,,,,,,,,,,15,1.7474,1,0,14,14,19,1,5,×,3,5 × 3,neutral,largerFirst,1.5,1.5,15,,,,,,,,
,,,,,,,,,,,,,,,681,2022-02-06_11h26.58.537,multiplicationStroop,2021.2.3,Win32,59.80861244,,,,,,,,,,,,,,,,,,,,,,,,,,,,,,,,,36,2.6963,1,0,15,15,32,1,6,×,6,6 × 6,neutral,tie,1.5,1.5,36,,,,,,,,
,,,,,,,,,,,,,,,681,2022-02-06_11h26.58.537,multiplicationStroop,2021.2.3,Win32,59.80861244,,,,,,,,,,,,,,,,,,,,,,,,,,,,,,,,,36,1.9977,1,0,16,16,13,1,4,×,9,4 × 9,neutral,smallerFirst,1.5,1.5,36,,,,,,,,
,,,,,,,,,,,,,,,681,2022-02-06_11h26.58.537,multiplicationStroop,2021.2.3,Win32,59.80861244,,,,,,,,,,,,,,,,,,,,,,,,,,,,,,,,,40,2.6968,1,0,17,17,10,1,5,×,8,5 × 8,neutral,smallerFirst,1.5,1.5,40,,,,,,,,
,,,,,,,,,,,,,,,681,2022-02-06_11h26.58.537,multiplicationStroop,2021.2.3,Win32,59.80861244,,,,,,,,,,,,,,,,,,,,,,,,,,,,,,,,,42,1.9141,1,0,18,18,20,1,7,×,6,7 × 6,neutral,largerFirst,1.5,1.5,42,,,,,,,,
,,,,,,,,,,,,,,,681,2022-02-06_11h26.58.537,multiplicationStroop,2021.2.3,Win32,59.80861244,,,,,,,,,,,,,,,,,,,,,,,,,,,,,,,,,30,1.8307,1,0,19,19,5,1,5,×,6,5 × 6,neutral,smallerFirst,1.5,1.5,30,,,,,,,,
,,,,,,,,,,,,,,,681,2022-02-06_11h26.58.537,multiplicationStroop,2021.2.3,Win32,59.80861244,,,,,,,,,,,,,,,,,,,,,,,,,,,,,,,,,27,2.0307,1,0,20,20,0,1,3,×,9,3 × 9,neutral,smallerFirst,1.5,1.5,27,,,,,,,,
,,,,,,,,,,,,,,,681,2022-02-06_11h26.58.537,multiplicationStroop,2021.2.3,Win32,59.80861244,,,,,,,,,,,,,,,,,,,,,,,,,,,,,,,,,45,1.6978,1,0,21,21,24,1,9,×,5,9 × 5,neutral,largerFirst,1.5,1.5,45,,,,,,,,
,,,,,,,,,,,,,,,681,2022-02-06_11h26.58.537,multiplicationStroop,2021.2.3,Win32,59.80861244,,,,,,,,,,,,,,,,,,,,,,,,,,,,,,,,,63,2.298,1,0,22,22,26,1,9,×,7,9 × 7,neutral,largerFirst,1.5,1.5,63,,,,,,,,
,,,,,,,,,,,,,,,681,2022-02-06_11h26.58.537,multiplicationStroop,2021.2.3,Win32,59.80861244,,,,,,,,,,,,,,,,,,,,,,,,,,,,,,,,,18,2.1131,1,0,23,23,4,1,2,×,9,2 × 9,neutral,smallerFirst,1.5,1.5,18,,,,,,,,
,,,,,,,,,,,,,,,681,2022-02-06_11h26.58.537,multiplicationStroop,2021.2.3,Win32,59.80861244,,,,,,,,,,,,,,,,,,,,,,,,,,,,,,,,,14,1.4982,1,0,24,24,2,1,2,×,7,2 × 7,neutral,smallerFirst,1.5,1.5,14,,,,,,,,
,,,,,,,,,,,,,,,681,2022-02-06_11h26.58.537,multiplicationStroop,2021.2.3,Win32,59.80861244,,,,,,,,,,,,,,,,,,,,,,,,,,,,,,,,,12,1.4806,1,0,25,25,11,1,2,×,6,2 × 6,neutral,smallerFirst,1.5,1.5,12,,,,,,,,
,,,,,,,,,,,,,,,681,2022-02-06_11h26.58.537,multiplicationStroop,2021.2.3,Win32,59.80861244,,,,,,,,,,,,,,,,,,,,,,,,,,,,,,,,,16,1.6815,1,0,26,26,30,1,4,×,4,4 × 4,neutral,tie,1.5,1.5,16,,,,,,,,
,,,,,,,,,,,,,,,681,2022-02-06_11h26.58.537,multiplicationStroop,2021.2.3,Win32,59.80861244,,,,,,,,,,,,,,,,,,,,,,,,,,,,,,,,,6,1.7465,1,0,27,27,12,1,2,×,3,2 × 3,neutral,smallerFirst,1.5,1.5,6,,,,,,,,
,,,,,,,,,,,,,,,681,2022-02-06_11h26.58.537,multiplicationStroop,2021.2.3,Win32,59.80861244,,,,,,,,,,,,,,,,,,,,,,,,,,,,,,,,,21,1.3814,1,0,28,28,22,1,7,×,3,7 × 3,neutral,largerFirst,1.5,1.5,21,,,,,,,,
,,,,,,,,,,,,,,,681,2022-02-06_11h26.58.537,multiplicationStroop,2021.2.3,Win32,59.80861244,,,,,,,,,,,,,,,,,,,,,,,,,,,,,,,,,12,1.3316,1,0,29,29,7,1,3,×,4,3 × 4,neutral,smallerFirst,1.5,1.5,12,,,,,,,,
,,,,,,,,,,,,,,,681,2022-02-06_11h26.58.537,multiplicationStroop,2021.2.3,Win32,59.80861244,,,,,,,,,,,,,,,,,,,,,,,,,,,,,,,,,10,1.7805,1,0,30,30,18,1,5,×,2,5 × 2,neutral,largerFirst,1.5,1.5,10,,,,,,,,
,,,,,,,,,,,,,,,681,2022-02-06_11h26.58.537,multiplicationStroop,2021.2.3,Win32,59.80861244,,,,,,,,,,,,,,,,,,,,,,,,,,,,,,,,,48,4.9284,1,0,31,31,1,1,6,×,8,6 × 8,neutral,smallerFirst,1.5,1.5,48,,,,,,,,
,,,,,,,,,,,,,,,681,2022-02-06_11h26.58.537,multiplicationStroop,2021.2.3,Win32,59.80861244,,,,,,,,,,,,,,,,,,,,,,,,,,,,,,,,,54,2.0187,1,0,32,32,21,1,9,×,6,9 × 6,neutral,largerFirst,1.5,1.5,54,,,,,,,,
,,,,,,,,,,,,,,,681,2022-02-06_11h26.58.537,multiplicationStroop,2021.2.3,Win32,59.80861244,,,,,,,,,,,,,,,,,,,,,,,,,,,,,,,,,16,2.1975,1,0,33,33,27,1,8,×,2,8 × 2,neutral,largerFirst,1.5,1.5,16,,,,,,,,
,,,,,,,,,,,,,,,681,2022-02-06_11h26.58.537,multiplicationStroop,2021.2.3,Win32,59.80861244,,,,,,,,,,,,,,,,,,,,,,,,,,,,,,,,,35,2.5463,1,0,34,34,15,1,7,×,5,7 × 5,neutral,largerFirst,1.5,1.5,35,,,,,,,,
,,,,,,,,,,,,,,,681,2022-02-06_11h26.58.537,multiplicationStroop,2021.2.3,Win32,59.80861244,,,,,,,,,,,,,,,,,,,,,,,,,,,,,,,,,56,3.6013,1,0,35,35,23,1,8,×,7,8 × 7,neutral,largerFirst,1.5,1.5,56,,,,,,,,
,,,,,,,,,,,,,,,681,2022-02-06_11h26.58.537,multiplicationStroop,2021.2.3,Win32,59.80861244,,,,,,,,,,,,,,,,,,,,,,,,,,,,,,,,,,,,,,,,,,,,,,,,,,0,0,0,0,1,stimulusFile/mult_blk1.xlsx,,
,,,,,,,,,,,,,,,681,2022-02-06_11h26.58.537,multiplicationStroop,2021.2.3,Win32,59.80861244,,,,,,,,,,,,,,,,,,,,,,,,,,,,,,,space,12.6012,20,2.7756,1,0,0,0,13,1,4,×,5,4 × 5,incongruent,smallerFirst,2,1,20,,,,,,,,
,,,,,,,,,,,,,,,681,2022-02-06_11h26.58.537,multiplicationStroop,2021.2.3,Win32,59.80861244,,,,,,,,,,,,,,,,,,,,,,,,,,,,,,,,,10,1.9132,1,0,1,1,7,1,2,×,5,2 × 5,incongruent,smallerFirst,2,1,10,,,,,,,,
,,,,,,,,,,,,,,,681,2022-02-06_11h26.58.537,multiplicationStroop,2021.2.3,Win32,59.80861244,,,,,,,,,,,,,,,,,,,,,,,,,,,,,,,,,35,2.8137,0,0,2,2,33,1,7,×,7,7 × 7,neutral,tie,2,1,49,,,,,,,,
,,,,,,,,,,,,,,,681,2022-02-06_11h26.58.537,multiplicationStroop,2021.2.3,Win32,59.80861244,,,,,,,,,,,,,,,,,,,,,,,,,,,,,,,,,12,1.3989,1,0,3,3,5,1,2,×,6,2 × 6,incongruent,smallerFirst,2,1,12,,,,,,,,
,,,,,,,,,,,,,,,681,2022-02-06_11h26.58.537,multiplicationStroop,2021.2.3,Win32,59.80861244,,,,,,,,,,,,,,,,,,,,,,,,,,,,,,,,,12,1.3473,1,0,4,4,19,1,4,×,3,4 × 3,incongruent,largerFirst,1,2,12,,,,,,,,
,,,,,,,,,,,,,,,681,2022-02-06_11h26.58.537,multiplicationStroop,2021.2.3,Win32,59.80861244,,,,,,,,,,,,,,,,,,,,,,,,,,,,,,,,,40,1.8471,1,0,5,5,27,1,8,×,5,8 × 5,incongruent,largerFirst,1,2,40,,,,,,,,
,,,,,,,,,,,,,,,681,2022-02-06_11h26.58.537,multiplicationStroop,2021.2.3,Win32,59.80861244,,,,,,,,,,,,,,,,,,,,,,,,,,,,,,,,,18,1.9806,1,0,6,6,16,1,9,×,2,9 × 2,incongruent,largerFirst,1,2,18,,,,,,,,
,,,,,,,,,,,,,,,681,2022-02-06_11h26.58.537,multiplicationStroop,2021.2.3,Win32,59.80861244,,,,,,,,,,,,,,,,,,,,,,,,,,,,,,,,,81,3.2302,1,0,7,7,35,1,9,×,9,9 × 9,neutral,tie,2,1,81,,,,,,,,
,,,,,,,,,,,,,,,681,2022-02-06_11h26.58.537,multiplicationStroop,2021.2.3,Win32,59.80861244,,,,,,,,,,,,,,,,,,,,,,,,,,,,,,,,,63,2.6133,1,0,8,8,17,1,9,×,7,9 × 7,incongruent,largerFirst,1,2,63,,,,,,,,
,,,,,,,,,,,,,,,681,2022-02-06_11h26.58.537,multiplicationStroop,2021.2.3,Win32,59.80861244,,,,,,,,,,,,,,,,,,,,,,,,,,,,,,,,,9,1.6479,1,0,9,9,29,1,3,×,3,3 × 3,neutral,tie,2,1,9,,,,,,,,
,,,,,,,,,,,,,,,681,2022-02-06_11h26.58.537,multiplicationStroop,2021.2.3,Win32,59.80861244,,,,,,,,,,,,,,,,,,,,,,,,,,,,,,,,,45,1.6979,1,0,10,10,8,1,5,×,9,5 × 9,incongruent,smallerFirst,2,1,45,,,,,,,,
,,,,,,,,,,,,,,,681,2022-02-06_11h26.58.537,multiplicationStroop,2021.2.3,Win32,59.80861244,,,,,,,,,,,,,,,,,,,,,,,,,,,,,,,,,16,2.0157,1,0,11,11,9,1,2,×,8,2 × 8,incongruent,smallerFirst,2,1,16,,,,,,,,
,,,,,,,,,,,,,,,681,2022-02-06_11h26.58.537,multiplicationStroop,2021.2.3,Win32,59.80861244,,,,,,,,,,,,,,,,,,,,,,,,,,,,,,,,,25,1.4955,1,0,12,12,31,1,5,×,5,5 × 5,neutral,tie,2,1,25,,,,,,,,
,,,,,,,,,,,,,,,681,2022-02-06_11h26.58.537,multiplicationStroop,2021.2.3,Win32,59.80861244,,,,,,,,,,,,,,,,,,,,,,,,,,,,,,,,,24,1.4814,1,0,13,13,6,1,4,×,6,4 × 6,incongruent,smallerFirst,2,1,24,,,,,,,,
,,,,,,,,,,,,,,,681,2022-02-06_11h26.58.537,multiplicationStroop,2021.2.3,Win32,59.80861244,,,,,,,,,,,,,,,,,,,,,,,,,,,,,,,,,18,2.0973,1,0,14,14,22,1,6,×,3,6 × 3,incongruent,largerFirst,1,2,18,,,,,,,,
,,,,,,,,,,,,,,,681,2022-02-06_11h26.58.537,multiplicationStroop,2021.2.3,Win32,59.80861244,,,,,,,,,,,,,,,,,,,,,,,,,,,,,,,,,16,1.6141,1,0,15,15,30,1,4,×,4,4 × 4,neutral,tie,2,1,16,,,,,,,,
,,,,,,,,,,,,,,,681,2022-02-06_11h26.58.537,multiplicationStroop,2021.2.3,Win32,59.80861244,,,,,,,,,,,,,,,,,,,,,,,,,,,,,,,,,15,1.5657,1,0,16,16,24,1,5,×,3,5 × 3,incongruent,largerFirst,1,2,15,,,,,,,,
,,,,,,,,,,,,,,,681,2022-02-06_11h26.58.537,multiplicationStroop,2021.2.3,Win32,59.80861244,,,,,,,,,,,,,,,,,,,,,,,,,,,,,,,,,42,1.6316,1,0,17,17,3,1,6,×,7,6 × 7,incongruent,smallerFirst,2,1,42,,,,,,,,
,,,,,,,,,,,,,,,681,2022-02-06_11h26.58.537,multiplicationStroop,2021.2.3,Win32,59.80861244,,,,,,,,,,,,,,,,,,,,,,,,,,,,,,,,,21,1.3979,1,0,18,18,12,1,3,×,7,3 × 7,incongruent,smallerFirst,2,1,21,,,,,,,,
,,,,,,,,,,,,,,,681,2022-02-06_11h26.58.537,multiplicationStroop,2021.2.3,Win32,59.80861244,,,,,,,,,,,,,,,,,,,,,,,,,,,,,,,,,6,1.4317,1,0,19,19,25,1,3,×,2,3 × 2,incongruent,largerFirst,1,2,6,,,,,,,,
,,,,,,,,,,,,,,,681,2022-02-06_11h26.58.537,multiplicationStroop,2021.2.3,Win32,59.80861244,,,,,,,,,,,,,,,,,,,,,,,,,,,,,,,,,28,1.9634,1,0,20,20,2,1,4,×,7,4 × 7,incongruent,smallerFirst,2,1,28,,,,,,,,
,,,,,,,,,,,,,,,681,2022-02-06_11h26.58.537,multiplicationStroop,2021.2.3,Win32,59.80861244,,,,,,,,,,,,,,,,,,,,,,,,,,,,,,,,,32,1.5643,1,0,21,21,21,1,8,×,4,8 × 4,incongruent,largerFirst,1,2,32,,,,,,,,
,,,,,,,,,,,,,,,681,2022-02-06_11h26.58.537,multiplicationStroop,2021.2.3,Win32,59.80861244,,,,,,,,,,,,,,,,,,,,,,,,,,,,,,,,,72,2.2468,1,0,22,22,14,1,9,×,8,9 × 8,incongruent,largerFirst,1,2,72,,,,,,,,
,,,,,,,,,,,,,,,681,2022-02-06_11h26.58.537,multiplicationStroop,2021.2.3,Win32,59.80861244,,,,,,,,,,,,,,,,,,,,,,,,,,,,,,,,,36,1.8981,1,0,23,23,32,1,6,×,6,6 × 6,neutral,tie,2,1,36,,,,,,,,
,,,,,,,,,,,,,,,681,2022-02-06_11h26.58.537,multiplicationStroop,2021.2.3,Win32,59.80861244,,,,,,,,,,,,,,,,,,,,,,,,,,,,,,,,,56,1.7146,1,0,24,24,0,1,7,×,8,7 × 8,incongruent,smallerFirst,2,1,56,,,,,,,,
,,,,,,,,,,,,,,,681,2022-02-06_11h26.58.537,multiplicationStroop,2021.2.3,Win32,59.80861244,,,,,,,,,,,,,,,,,,,,,,,,,,,,,,,,,30,1.7308,1,0,25,25,11,1,5,×,6,5 × 6,incongruent,smallerFirst,2,1,30,,,,,,,,
,,,,,,,,,,,,,,,681,2022-02-06_11h26.58.537,multiplicationStroop,2021.2.3,Win32,59.80861244,,,,,,,,,,,,,,,,,,,,,,,,,,,,,,,,,27,1.9657,1,0,26,26,4,1,3,×,9,3 × 9,incongruent,smallerFirst,2,1,27,,,,,,,,
,,,,,,,,,,,,,,,681,2022-02-06_11h26.58.537,multiplicationStroop,2021.2.3,Win32,59.80861244,,,,,,,,,,,,,,,,,,,,,,,,,,,,,,,,,64,1.996,1,0,27,27,34,1,8,×,8,8 × 8,neutral,tie,2,1,64,,,,,,,,
,,,,,,,,,,,,,,,681,2022-02-06_11h26.58.537,multiplicationStroop,2021.2.3,Win32,59.80861244,,,,,,,,,,,,,,,,,,,,,,,,,,,,,,,,,54,1.714,1,0,28,28,20,1,9,×,6,9 × 6,incongruent,largerFirst,1,2,54,,,,,,,,
,,,,,,,,,,,,,,,681,2022-02-06_11h26.58.537,multiplicationStroop,2021.2.3,Win32,59.80861244,,,,,,,,,,,,,,,,,,,,,,,,,,,,,,,,,14,1.4316,1,0,29,29,18,1,7,×,2,7 × 2,incongruent,largerFirst,1,2,14,,,,,,,,
,,,,,,,,,,,,,,,681,2022-02-06_11h26.58.537,multiplicationStroop,2021.2.3,Win32,59.80861244,,,,,,,,,,,,,,,,,,,,,,,,,,,,,,,,,8,1.797,1,0,30,30,10,1,2,×,4,2 × 4,incongruent,smallerFirst,2,1,8,,,,,,,,
,,,,,,,,,,,,,,,681,2022-02-06_11h26.58.537,multiplicationStroop,2021.2.3,Win32,59.80861244,,,,,,,,,,,,,,,,,,,,,,,,,,,,,,,,,4,1.4646,1,0,31,31,28,1,2,×,2,2 × 2,neutral,tie,2,1,4,,,,,,,,
,,,,,,,,,,,,,,,681,2022-02-06_11h26.58.537,multiplicationStroop,2021.2.3,Win32,59.80861244,,,,,,,,,,,,,,,,,,,,,,,,,,,,,,,,,48,2.5971,1,0,32,32,15,1,8,×,6,8 × 6,incongruent,largerFirst,1,2,48,,,,,,,,
,,,,,,,,,,,,,,,681,2022-02-06_11h26.58.537,multiplicationStroop,2021.2.3,Win32,59.80861244,,,,,,,,,,,,,,,,,,,,,,,,,,,,,,,,,35,1.702,1,0,33,33,26,1,7,×,5,7 × 5,incongruent,largerFirst,1,2,35,,,,,,,,
,,,,,,,,,,,,,,,681,2022-02-06_11h26.58.537,multiplicationStroop,2021.2.3,Win32,59.80861244,,,,,,,,,,,,,,,,,,,,,,,,,,,,,,,,,24,1.5476,1,0,34,34,23,1,8,×,3,8 × 3,incongruent,largerFirst,1,2,24,,,,,,,,
,,,,,,,,,,,,,,,681,2022-02-06_11h26.58.537,multiplicationStroop,2021.2.3,Win32,59.80861244,,,,,,,,,,,,,,,,,,,,,,,,,,,,,,,,,36,2.9637,1,0,35,35,1,1,4,×,9,4 × 9,incongruent,smallerFirst,2,1,36,,,,,,,,
,,,,,,,,,,,,,,,681,2022-02-06_11h26.58.537,multiplicationStroop,2021.2.3,Win32,59.80861244,,,,,,,,,,,,,,,,,,,,,,,,,,,,,,,,,,,,,,,,,,,,,,,,,,0,1,1,4,1,stimulusFile/mult_blk5_INcongruent.xlsx,,
,,,,,,,,,,,,,,,681,2022-02-06_11h26.58.537,multiplicationStroop,2021.2.3,Win32,59.80861244,,,,,,,,,,,,,,,,,,,,,,,,,,,,,,,space,1.0174,16,1.8326,1,0,0,0,5,1,2,×,8,2 × 8,congruent,smallerFirst,1,2,16,,,,,,,,
,,,,,,,,,,,,,,,681,2022-02-06_11h26.58.537,multiplicationStroop,2021.2.3,Win32,59.80861244,,,,,,,,,,,,,,,,,,,,,,,,,,,,,,,,,35,1.4809,1,0,1,1,1,1,5,×,7,5 × 7,congruent,smallerFirst,1,2,35,,,,,,,,
,,,,,,,,,,,,,,,681,2022-02-06_11h26.58.537,multiplicationStroop,2021.2.3,Win32,59.80861244,,,,,,,,,,,,,,,,,,,,,,,,,,,,,,,,,54,1.8141,1,0,2,2,12,1,6,×,9,6 × 9,congruent,smallerFirst,1,2,54,,,,,,,,
,,,,,,,,,,,,,,,681,2022-02-06_11h26.58.537,multiplicationStroop,2021.2.3,Win32,59.80861244,,,,,,,,,,,,,,,,,,,,,,,,,,,,,,,,,4,1.2982,1,0,3,3,28,1,2,×,2,2 × 2,neutral,tie,2,1,4,,,,,,,,
,,,,,,,,,,,,,,,681,2022-02-06_11h26.58.537,multiplicationStroop,2021.2.3,Win32,59.80861244,,,,,,,,,,,,,,,,,,,,,,,,,,,,,,,,,30,2.014,1,0,4,4,15,1,6,×,5,6 × 5,congruent,largerFirst,2,1,30,,,,,,,,
,,,,,,,,,,,,,,,681,2022-02-06_11h26.58.537,multiplicationStroop,2021.2.3,Win32,59.80861244,,,,,,,,,,,,,,,,,,,,,,,,,,,,,,,,,63,4.8287,1,0,5,5,21,1,9,×,7,9 × 7,congruent,largerFirst,2,1,63,,,,,,,,
,,,,,,,,,,,,,,,681,2022-02-06_11h26.58.537,multiplicationStroop,2021.2.3,Win32,59.80861244,,,,,,,,,,,,,,,,,,,,,,,,,,,,,,,,,24,1.771,1,0,6,6,10,1,3,×,8,3 × 8,congruent,smallerFirst,1,2,24,,,,,,,,
,,,,,,,,,,,,,,,681,2022-02-06_11h26.58.537,multiplicationStroop,2021.2.3,Win32,59.80861244,,,,,,,,,,,,,,,,,,,,,,,,,,,,,,,,,81,3.879,1,0,7,7,35,1,9,×,9,9 × 9,neutral,tie,2,1,81,,,,,,,,
,,,,,,,,,,,,,,,681,2022-02-06_11h26.58.537,multiplicationStroop,2021.2.3,Win32,59.80861244,,,,,,,,,,,,,,,,,,,,,,,,,,,,,,,,,36,2.1184,1,0,8,8,0,1,4,×,9,4 × 9,congruent,smallerFirst,1,2,36,,,,,,,,
,,,,,,,,,,,,,,,681,2022-02-06_11h26.58.537,multiplicationStroop,2021.2.3,Win32,59.80861244,,,,,,,,,,,,,,,,,,,,,,,,,,,,,,,,,42,3.0631,1,0,9,9,3,1,6,×,7,6 × 7,congruent,smallerFirst,1,2,42,,,,,,,,
,,,,,,,,,,,,,,,681,2022-02-06_11h26.58.537,multiplicationStroop,2021.2.3,Win32,59.80861244,,,,,,,,,,,,,,,,,,,,,,,,,,,,,,,,,56,1.8977,1,0,10,10,8,1,7,×,8,7 × 8,congruent,smallerFirst,1,2,56,,,,,,,,
,,,,,,,,,,,,,,,681,2022-02-06_11h26.58.537,multiplicationStroop,2021.2.3,Win32,59.80861244,,,,,,,,,,,,,,,,,,,,,,,,,,,,,,,,,36,2.0288,1,0,11,11,32,1,6,×,6,6 × 6,neutral,tie,2,1,36,,,,,,,,
,,,,,,,,,,,,,,,681,2022-02-06_11h26.58.537,multiplicationStroop,2021.2.3,Win32,59.80861244,,,,,,,,,,,,,,,,,,,,,,,,,,,,,,,,,6,1.7312,1,0,12,12,13,1,2,×,3,2 × 3,congruent,smallerFirst,1,2,6,,,,,,,,
,,,,,,,,,,,,,,,681,2022-02-06_11h26.58.537,multiplicationStroop,2021.2.3,Win32,59.80861244,,,,,,,,,,,,,,,,,,,,,,,,,,,,,,,,,21,1.2813,1,0,13,13,16,1,7,×,3,7 × 3,congruent,largerFirst,2,1,21,,,,,,,,
,,,,,,,,,,,,,,,681,2022-02-06_11h26.58.537,multiplicationStroop,2021.2.3,Win32,59.80861244,,,,,,,,,,,,,,,,,,,,,,,,,,,,,,,,,45,1.9644,1,0,14,14,23,1,9,×,5,9 × 5,congruent,largerFirst,2,1,45,,,,,,,,
,,,,,,,,,,,,,,,681,2022-02-06_11h26.58.537,multiplicationStroop,2021.2.3,Win32,59.80861244,,,,,,,,,,,,,,,,,,,,,,,,,,,,,,,,,10,1.8641,1,0,15,15,24,1,5,×,2,5 × 2,congruent,largerFirst,2,1,10,,,,,,,,
,,,,,,,,,,,,,,,681,2022-02-06_11h26.58.537,multiplicationStroop,2021.2.3,Win32,59.80861244,,,,,,,,,,,,,,,,,,,,,,,,,,,,,,,,,72,2.9969,1,0,16,16,17,1,9,×,8,9 × 8,congruent,largerFirst,2,1,72,,,,,,,,
,,,,,,,,,,,,,,,681,2022-02-06_11h26.58.537,multiplicationStroop,2021.2.3,Win32,59.80861244,,,,,,,,,,,,,,,,,,,,,,,,,,,,,,,,,32,2.2969,1,0,17,17,20,1,8,×,4,8 × 4,congruent,largerFirst,2,1,32,,,,,,,,
,,,,,,,,,,,,,,,681,2022-02-06_11h26.58.537,multiplicationStroop,2021.2.3,Win32,59.80861244,,,,,,,,,,,,,,,,,,,,,,,,,,,,,,,,,9,1.6639,1,0,18,18,29,1,3,×,3,3 × 3,neutral,tie,2,1,9,,,,,,,,
,,,,,,,,,,,,,,,681,2022-02-06_11h26.58.537,multiplicationStroop,2021.2.3,Win32,59.80861244,,,,,,,,,,,,,,,,,,,,,,,,,,,,,,,,,24,1.5822,1,0,19,19,25,1,6,×,4,6 × 4,congruent,largerFirst,2,1,24,,,,,,,,
,,,,,,,,,,,,,,,681,2022-02-06_11h26.58.537,multiplicationStroop,2021.2.3,Win32,59.80861244,,,,,,,,,,,,,,,,,,,,,,,,,,,,,,,,,18,2.0965,1,0,20,20,11,1,3,×,6,3 × 6,congruent,smallerFirst,1,2,18,,,,,,,,
,,,,,,,,,,,,,,,681,2022-02-06_11h26.58.537,multiplicationStroop,2021.2.3,Win32,59.80861244,,,,,,,,,,,,,,,,,,,,,,,,,,,,,,,,,14,1.548,1,0,21,21,14,1,7,×,2,7 × 2,congruent,largerFirst,2,1,14,,,,,,,,
,,,,,,,,,,,,,,,681,2022-02-06_11h26.58.537,multiplicationStroop,2021.2.3,Win32,59.80861244,,,,,,,,,,,,,,,,,,,,,,,,,,,,,,,,,49,4.2123,1,0,22,22,33,1,7,×,7,7 × 7,neutral,tie,2,1,49,,,,,,,,
,,,,,,,,,,,,,,,681,2022-02-06_11h26.58.537,multiplicationStroop,2021.2.3,Win32,59.80861244,,,,,,,,,,,,,,,,,,,,,,,,,,,,,,,,,25,1.5853,1,0,23,23,31,1,5,×,5,5 × 5,neutral,tie,2,1,25,,,,,,,,
,,,,,,,,,,,,,,,681,2022-02-06_11h26.58.537,multiplicationStroop,2021.2.3,Win32,59.80861244,,,,,,,,,,,,,,,,,,,,,,,,,,,,,,,,,18,1.7649,1,0,24,24,22,1,9,×,2,9 × 2,congruent,largerFirst,2,1,18,,,,,,,,
,,,,,,,,,,,,,,,681,2022-02-06_11h26.58.537,multiplicationStroop,2021.2.3,Win32,59.80861244,,,,,,,,,,,,,,,,,,,,,,,,,,,,,,,,,40,1.8974,1,0,25,25,6,1,5,×,8,5 × 8,congruent,smallerFirst,1,2,40,,,,,,,,
,,,,,,,,,,,,,,,681,2022-02-06_11h26.58.537,multiplicationStroop,2021.2.3,Win32,59.80861244,,,,,,,,,,,,,,,,,,,,,,,,,,,,,,,,,12,1.2809,1,0,26,26,19,1,6,×,2,6 × 2,congruent,largerFirst,2,1,12,,,,,,,,
,,,,,,,,,,,,,,,681,2022-02-06_11h26.58.537,multiplicationStroop,2021.2.3,Win32,59.80861244,,,,,,,,,,,,,,,,,,,,,,,,,,,,,,,,,64,2.1468,1,0,27,27,34,1,8,×,8,8 × 8,neutral,tie,2,1,64,,,,,,,,
,,,,,,,,,,,,,,,681,2022-02-06_11h26.58.537,multiplicationStroop,2021.2.3,Win32,59.80861244,,,,,,,,,,,,,,,,,,,,,,,,,,,,,,,,,16,1.7318,1,0,28,28,30,1,4,×,4,4 × 4,neutral,tie,2,1,16,,,,,,,,
,,,,,,,,,,,,,,,681,2022-02-06_11h26.58.537,multiplicationStroop,2021.2.3,Win32,59.80861244,,,,,,,,,,,,,,,,,,,,,,,,,,,,,,,,,27,1.9977,1,0,29,29,26,1,9,×,3,9 × 3,congruent,largerFirst,2,1,27,,,,,,,,
,,,,,,,,,,,,,,,681,2022-02-06_11h26.58.537,multiplicationStroop,2021.2.3,Win32,59.80861244,,,,,,,,,,,,,,,,,,,,,,,,,,,,,,,,,8,1.9644,1,0,30,30,9,1,2,×,4,2 × 4,congruent,smallerFirst,1,2,8,,,,,,,,
,,,,,,,,,,,,,,,681,2022-02-06_11h26.58.537,multiplicationStroop,2021.2.3,Win32,59.80861244,,,,,,,,,,,,,,,,,,,,,,,,,,,,,,,,,15,1.6803,1,0,31,31,4,1,3,×,5,3 × 5,congruent,smallerFirst,1,2,15,,,,,,,,
,,,,,,,,,,,,,,,681,2022-02-06_11h26.58.537,multiplicationStroop,2021.2.3,Win32,59.80861244,,,,,,,,,,,,,,,,,,,,,,,,,,,,,,,,,48,2.0143,1,0,32,32,18,1,8,×,6,8 × 6,congruent,largerFirst,2,1,48,,,,,,,,
,,,,,,,,,,,,,,,681,2022-02-06_11h26.58.537,multiplicationStroop,2021.2.3,Win32,59.80861244,,,,,,,,,,,,,,,,,,,,,,,,,,,,,,,,,12,1.365,1,0,33,33,2,1,3,×,4,3 × 4,congruent,smallerFirst,1,2,12,,,,,,,,
,,,,,,,,,,,,,,,681,2022-02-06_11h26.58.537,multiplicationStroop,2021.2.3,Win32,59.80861244,,,,,,,,,,,,,,,,,,,,,,,,,,,,,,,,,20,1.7644,1,0,34,34,7,1,4,×,5,4 × 5,congruent,smallerFirst,1,2,20,,,,,,,,
,,,,,,,,,,,,,,,681,2022-02-06_11h26.58.537,multiplicationStroop,2021.2.3,Win32,59.80861244,,,,,,,,,,,,,,,,,,,,,,,,,,,,,,,,,28,1.7968,1,0,35,35,27,1,7,×,4,7 × 4,congruent,largerFirst,2,1,28,,,,,,,,
,,,,,,,,,,,,,,,681,2022-02-06_11h26.58.537,multiplicationStroop,2021.2.3,Win32,59.80861244,,,,,,,,,,,,,,,,,,,,,,,,,,,,,,,,,,,,,,,,,,,,,,,,,,0,2,2,2,1,stimulusFile/mult_blk3_congruent.xlsx,,
,,,,,,,,,,,,,,,681,2022-02-06_11h26.58.537,multiplicationStroop,2021.2.3,Win32,59.80861244,,,,,,,,,,,,,,,,,,,,,,,,,,,,,,,space,0.9612,4,1.6032,1,0,0,0,28,1,2,×,2,2 × 2,incongruent,tie,1,2,4,,,,,,,,
,,,,,,,,,,,,,,,681,2022-02-06_11h26.58.537,multiplicationStroop,2021.2.3,Win32,59.80861244,,,,,,,,,,,,,,,,,,,,,,,,,,,,,,,,,12,1.3976,1,0,1,1,5,1,3,×,4,3 × 4,incongruent,smallerFirst,2,1,12,,,,,,,,
,,,,,,,,,,,,,,,681,2022-02-06_11h26.58.537,multiplicationStroop,2021.2.3,Win32,59.80861244,,,,,,,,,,,,,,,,,,,,,,,,,,,,,,,,,14,2.1472,1,0,2,2,4,1,2,×,7,2 × 7,incongruent,smallerFirst,2,1,14,,,,,,,,
,,,,,,,,,,,,,,,681,2022-02-06_11h26.58.537,multiplicationStroop,2021.2.3,Win32,59.80861244,,,,,,,,,,,,,,,,,,,,,,,,,,,,,,,,,21,1.4976,1,0,3,3,26,1,7,×,3,7 × 3,incongruent,largerFirst,1,2,21,,,,,,,,
,,,,,,,,,,,,,,,681,2022-02-06_11h26.58.537,multiplicationStroop,2021.2.3,Win32,59.80861244,,,,,,,,,,,,,,,,,,,,,,,,,,,,,,,,,15,1.5151,1,0,4,4,10,1,3,×,5,3 × 5,incongruent,smallerFirst,2,1,15,,,,,,,,
,,,,,,,,,,,,,,,681,2022-02-06_11h26.58.537,multiplicationStroop,2021.2.3,Win32,59.80861244,,,,,,,,,,,,,,,,,,,,,,,,,,,,,,,,,24,1.5977,1,0,5,5,9,1,3,×,8,3 × 8,incongruent,smallerFirst,2,1,24,,,,,,,,
,,,,,,,,,,,,,,,681,2022-02-06_11h26.58.537,multiplicationStroop,2021.2.3,Win32,59.80861244,,,,,,,,,,,,,,,,,,,,,,,,,,,,,,,,,24,1.5968,1,0,6,6,20,1,6,×,4,6 × 4,incongruent,largerFirst,1,2,24,,,,,,,,
,,,,,,,,,,,,,,,681,2022-02-06_11h26.58.537,multiplicationStroop,2021.2.3,Win32,59.80861244,,,,,,,,,,,,,,,,,,,,,,,,,,,,,,,,,27,2.0135,1,0,7,7,18,1,9,×,3,9 × 3,incongruent,largerFirst,1,2,27,,,,,,,,
,,,,,,,,,,,,,,,681,2022-02-06_11h26.58.537,multiplicationStroop,2021.2.3,Win32,59.80861244,,,,,,,,,,,,,,,,,,,,,,,,,,,,,,,,,20,2.0144,1,0,8,8,27,1,5,×,4,5 × 4,incongruent,largerFirst,1,2,20,,,,,,,,
,,,,,,,,,,,,,,,681,2022-02-06_11h26.58.537,multiplicationStroop,2021.2.3,Win32,59.80861244,,,,,,,,,,,,,,,,,,,,,,,,,,,,,,,,,12,1.3747,1,0,9,9,19,1,6,×,2,6 × 2,incongruent,largerFirst,1,2,12,,,,,,,,
,,,,,,,,,,,,,,,681,2022-02-06_11h26.58.537,multiplicationStroop,2021.2.3,Win32,59.80861244,,,,,,,,,,,,,,,,,,,,,,,,,,,,,,,,,56,1.613,1,0,10,10,14,1,8,×,7,8 × 7,incongruent,largerFirst,1,2,56,,,,,,,,
,,,,,,,,,,,,,,,681,2022-02-06_11h26.58.537,multiplicationStroop,2021.2.3,Win32,59.80861244,,,,,,,,,,,,,,,,,,,,,,,,,,,,,,,,,36,1.5473,1,0,11,11,32,1,6,×,6,6 × 6,incongruent,tie,1,2,36,,,,,,,,
,,,,,,,,,,,,,,,681,2022-02-06_11h26.58.537,multiplicationStroop,2021.2.3,Win32,59.80861244,,,,,,,,,,,,,,,,,,,,,,,,,,,,,,,,,18,1.9811,1,0,12,12,8,1,3,×,6,3 × 6,incongruent,smallerFirst,2,1,18,,,,,,,,
,,,,,,,,,,,,,,,681,2022-02-06_11h26.58.537,multiplicationStroop,2021.2.3,Win32,59.80861244,,,,,,,,,,,,,,,,,,,,,,,,,,,,,,,,,16,1.7311,1,0,13,13,23,1,8,×,2,8 × 2,incongruent,largerFirst,1,2,16,,,,,,,,
,,,,,,,,,,,,,,,681,2022-02-06_11h26.58.537,multiplicationStroop,2021.2.3,Win32,59.80861244,,,,,,,,,,,,,,,,,,,,,,,,,,,,,,,,,10,2.2967,1,0,14,14,21,1,5,×,2,5 × 2,incongruent,largerFirst,1,2,10,,,,,,,,
,,,,,,,,,,,,,,,681,2022-02-06_11h26.58.537,multiplicationStroop,2021.2.3,Win32,59.80861244,,,,,,,,,,,,,,,,,,,,,,,,,,,,,,,,,9,1.5647,1,0,15,15,29,1,3,×,3,3 × 3,incongruent,tie,1,2,9,,,,,,,,
,,,,,,,,,,,,,,,681,2022-02-06_11h26.58.537,multiplicationStroop,2021.2.3,Win32,59.80861244,,,,,,,,,,,,,,,,,,,,,,,,,,,,,,,,,35,1.5647,1,0,16,16,12,1,5,×,7,5 × 7,incongruent,smallerFirst,2,1,35,,,,,,,,
,,,,,,,,,,,,,,,681,2022-02-06_11h26.58.537,multiplicationStroop,2021.2.3,Win32,59.80861244,,,,,,,,,,,,,,,,,,,,,,,,,,,,,,,,,30,1.831,1,0,17,17,25,1,6,×,5,6 × 5,incongruent,largerFirst,1,2,30,,,,,,,,
,,,,,,,,,,,,,,,681,2022-02-06_11h26.58.537,multiplicationStroop,2021.2.3,Win32,59.80861244,,,,,,,,,,,,,,,,,,,,,,,,,,,,,,,,,72,2.4134,1,0,18,18,0,1,8,×,9,8 × 9,incongruent,smallerFirst,2,1,72,,,,,,,,
,,,,,,,,,,,,,,,681,2022-02-06_11h26.58.537,multiplicationStroop,2021.2.3,Win32,59.80861244,,,,,,,,,,,,,,,,,,,,,,,,,,,,,,,,,45,1.6143,1,0,19,19,22,1,9,×,5,9 × 5,incongruent,largerFirst,1,2,45,,,,,,,,
,,,,,,,,,,,,,,,681,2022-02-06_11h26.58.537,multiplicationStroop,2021.2.3,Win32,59.80861244,,,,,,,,,,,,,,,,,,,,,,,,,,,,,,,,,48,4.0119,1,0,20,20,1,1,6,×,8,6 × 8,incongruent,smallerFirst,2,1,48,,,,,,,,
,,,,,,,,,,,,,,,681,2022-02-06_11h26.58.537,multiplicationStroop,2021.2.3,Win32,59.80861244,,,,,,,,,,,,,,,,,,,,,,,,,,,,,,,,,63,2.6521,1,0,21,21,3,1,7,×,9,7 × 9,incongruent,smallerFirst,2,1,63,,,,,,,,
,,,,,,,,,,,,,,,681,2022-02-06_11h26.58.537,multiplicationStroop,2021.2.3,Win32,59.80861244,,,,,,,,,,,,,,,,,,,,,,,,,,,,,,,,,8,1.8019,1,0,22,22,24,1,4,×,2,4 × 2,incongruent,largerFirst,1,2,8,,,,,,,,
,,,,,,,,,,,,,,,681,2022-02-06_11h26.58.537,multiplicationStroop,2021.2.3,Win32,59.80861244,,,,,,,,,,,,,,,,,,,,,,,,,,,,,,,,,49,1.9986,1,0,23,23,33,1,7,×,7,7 × 7,incongruent,tie,1,2,49,,,,,,,,
,,,,,,,,,,,,,,,681,2022-02-06_11h26.58.537,multiplicationStroop,2021.2.3,Win32,59.80861244,,,,,,,,,,,,,,,,,,,,,,,,,,,,,,,,,16,1.7133,1,0,24,24,30,1,4,×,4,4 × 4,incongruent,tie,1,2,16,,,,,,,,
,,,,,,,,,,,,,,,681,2022-02-06_11h26.58.537,multiplicationStroop,2021.2.3,Win32,59.80861244,,,,,,,,,,,,,,,,,,,,,,,,,,,,,,,,,42,2.5139,1,0,25,25,17,1,7,×,6,7 × 6,incongruent,largerFirst,1,2,42,,,,,,,,
,,,,,,,,,,,,,,,681,2022-02-06_11h26.58.537,multiplicationStroop,2021.2.3,Win32,59.80861244,,,,,,,,,,,,,,,,,,,,,,,,,,,,,,,,,81,2.4197,1,0,26,26,35,1,9,×,9,9 × 9,incongruent,tie,1,2,81,,,,,,,,
,,,,,,,,,,,,,,,681,2022-02-06_11h26.58.537,multiplicationStroop,2021.2.3,Win32,59.80861244,,,,,,,,,,,,,,,,,,,,,,,,,,,,,,,,,18,1.8806,1,0,27,27,2,1,2,×,9,2 × 9,incongruent,smallerFirst,2,1,18,,,,,,,,
,,,,,,,,,,,,,,,681,2022-02-06_11h26.58.537,multiplicationStroop,2021.2.3,Win32,59.80861244,,,,,,,,,,,,,,,,,,,,,,,,,,,,,,,,,32,1.5979,1,0,28,28,7,1,4,×,8,4 × 8,incongruent,smallerFirst,2,1,32,,,,,,,,
,,,,,,,,,,,,,,,681,2022-02-06_11h26.58.537,multiplicationStroop,2021.2.3,Win32,59.80861244,,,,,,,,,,,,,,,,,,,,,,,,,,,,,,,,,28,1.8972,1,0,29,29,16,1,7,×,4,7 × 4,incongruent,largerFirst,1,2,28,,,,,,,,
,,,,,,,,,,,,,,,681,2022-02-06_11h26.58.537,multiplicationStroop,2021.2.3,Win32,59.80861244,,,,,,,,,,,,,,,,,,,,,,,,,,,,,,,,,25,1.8643,1,0,30,30,31,1,5,×,5,5 × 5,incongruent,tie,1,2,25,,,,,,,,
,,,,,,,,,,,,,,,681,2022-02-06_11h26.58.537,multiplicationStroop,2021.2.3,Win32,59.80861244,,,,,,,,,,,,,,,,,,,,,,,,,,,,,,,,,64,2.4639,1,0,31,31,34,1,8,×,8,8 × 8,incongruent,tie,1,2,64,,,,,,,,
,,,,,,,,,,,,,,,681,2022-02-06_11h26.58.537,multiplicationStroop,2021.2.3,Win32,59.80861244,,,,,,,,,,,,,,,,,,,,,,,,,,,,,,,,,40,1.9196,1,0,32,32,13,1,5,×,8,5 × 8,incongruent,smallerFirst,2,1,40,,,,,,,,
,,,,,,,,,,,,,,,681,2022-02-06_11h26.58.537,multiplicationStroop,2021.2.3,Win32,59.80861244,,,,,,,,,,,,,,,,,,,,,,,,,,,,,,,,,6,1.5645,1,0,33,33,11,1,2,×,3,2 × 3,incongruent,smallerFirst,2,1,6,,,,,,,,
,,,,,,,,,,,,,,,681,2022-02-06_11h26.58.537,multiplicationStroop,2021.2.3,Win32,59.80861244,,,,,,,,,,,,,,,,,,,,,,,,,,,,,,,,,54,2.8964,1,0,34,34,6,1,6,×,9,6 × 9,incongruent,smallerFirst,2,1,54,,,,,,,,
,,,,,,,,,,,,,,,681,2022-02-06_11h26.58.537,multiplicationStroop,2021.2.3,Win32,59.80861244,,,,,,,,,,,,,,,,,,,,,,,,,,,,,,,,,36,2.2531,1,0,35,35,15,1,9,×,4,9 × 4,incongruent,largerFirst,1,2,36,,,,,,,,
,,,,,,,,,,,,,,,681,2022-02-06_11h26.58.537,multiplicationStroop,2021.2.3,Win32,59.80861244,,,,,,,,,,,,,,,,,,,,,,,,,,,,,,,,,,,,,,,,,,,,,,,,,,0,3,3,5,1,stimulusFile/mult_blk6_INcongruent.xlsx,,
,,,,,,,,,,,,,,,681,2022-02-06_11h26.58.537,multiplicationStroop,2021.2.3,Win32,59.80861244,,,,,,,,,,,,,,,,,,,,,,,,,,,,,,,space,0.8953,8,1.601,1,0,0,0,3,1,2,×,4,2 × 4,neutral,smallerFirst,1.5,1.5,8,,,,,,,,
,,,,,,,,,,,,,,,681,2022-02-06_11h26.58.537,multiplicationStroop,2021.2.3,Win32,59.80861244,,,,,,,,,,,,,,,,,,,,,,,,,,,,,,,,,27,1.7971,1,0,1,1,14,1,9,×,3,9 × 3,neutral,largerFirst,1.5,1.5,27,,,,,,,,
,,,,,,,,,,,,,,,681,2022-02-06_11h26.58.537,multiplicationStroop,2021.2.3,Win32,59.80861244,,,,,,,,,,,,,,,,,,,,,,,,,,,,,,,,,14,1.498,1,0,2,2,16,1,7,×,2,7 × 2,neutral,largerFirst,1.5,1.5,14,,,,,,,,
,,,,,,,,,,,,,,,681,2022-02-06_11h26.58.537,multiplicationStroop,2021.2.3,Win32,59.80861244,,,,,,,,,,,,,,,,,,,,,,,,,,,,,,,,,21,1.4974,1,0,3,3,8,1,3,×,7,3 × 7,neutral,smallerFirst,1.5,1.5,21,,,,,,,,
,,,,,,,,,,,,,,,681,2022-02-06_11h26.58.537,multiplicationStroop,2021.2.3,Win32,59.80861244,,,,,,,,,,,,,,,,,,,,,,,,,,,,,,,,,45,1.515,1,0,4,4,10,1,5,×,9,5 × 9,neutral,smallerFirst,1.5,1.5,45,,,,,,,,
,,,,,,,,,,,,,,,681,2022-02-06_11h26.58.537,multiplicationStroop,2021.2.3,Win32,59.80861244,,,,,,,,,,,,,,,,,,,,,,,,,,,,,,,,,36,1.7973,1,0,5,5,32,1,6,×,6,6 × 6,neutral,tie,1.5,1.5,36,,,,,,,,
,,,,,,,,,,,,,,,681,2022-02-06_11h26.58.537,multiplicationStroop,2021.2.3,Win32,59.80861244,,,,,,,,,,,,,,,,,,,,,,,,,,,,,,,,,24,1.4318,1,0,6,6,22,1,8,×,3,8 × 3,neutral,largerFirst,1.5,1.5,24,,,,,,,,
,,,,,,,,,,,,,,,681,2022-02-06_11h26.58.537,multiplicationStroop,2021.2.3,Win32,59.80861244,,,,,,,,,,,,,,,,,,,,,,,,,,,,,,,,,28,1.8471,1,0,7,7,17,1,7,×,4,7 × 4,neutral,largerFirst,1.5,1.5,28,,,,,,,,
,,,,,,,,,,,,,,,681,2022-02-06_11h26.58.537,multiplicationStroop,2021.2.3,Win32,59.80861244,,,,,,,,,,,,,,,,,,,,,,,,,,,,,,,,,25,1.4316,1,0,8,8,31,1,5,×,5,5 × 5,neutral,tie,1.5,1.5,25,,,,,,,,
,,,,,,,,,,,,,,,681,2022-02-06_11h26.58.537,multiplicationStroop,2021.2.3,Win32,59.80861244,,,,,,,,,,,,,,,,,,,,,,,,,,,,,,,,,63,2.1966,1,0,9,9,12,1,7,×,9,7 × 9,neutral,smallerFirst,1.5,1.5,63,,,,,,,,
,,,,,,,,,,,,,,,681,2022-02-06_11h26.58.537,multiplicationStroop,2021.2.3,Win32,59.80861244,,,,,,,,,,,,,,,,,,,,,,,,,,,,,,,,,36,1.8475,1,0,10,10,27,1,9,×,4,9 × 4,neutral,largerFirst,1.5,1.5,36,,,,,,,,
,,,,,,,,,,,,,,,681,2022-02-06_11h26.58.537,multiplicationStroop,2021.2.3,Win32,59.80861244,,,,,,,,,,,,,,,,,,,,,,,,,,,,,,,,,72,3.2966,1,0,11,11,11,1,8,×,9,8 × 9,neutral,smallerFirst,1.5,1.5,72,,,,,,,,
,,,,,,,,,,,,,,,681,2022-02-06_11h26.58.537,multiplicationStroop,2021.2.3,Win32,59.80861244,,,,,,,,,,,,,,,,,,,,,,,,,,,,,,,,,9,1.5475,1,0,12,12,29,1,3,×,3,3 × 3,neutral,tie,1.5,1.5,9,,,,,,,,
,,,,,,,,,,,,,,,681,2022-02-06_11h26.58.537,multiplicationStroop,2021.2.3,Win32,59.80861244,,,,,,,,,,,,,,,,,,,,,,,,,,,,,,,,,10,1.6812,1,0,13,13,4,1,2,×,5,2 × 5,neutral,smallerFirst,1.5,1.5,10,,,,,,,,
,,,,,,,,,,,,,,,681,2022-02-06_11h26.58.537,multiplicationStroop,2021.2.3,Win32,59.80861244,,,,,,,,,,,,,,,,,,,,,,,,,,,,,,,,,40,1.9144,1,0,14,14,24,1,8,×,5,8 × 5,neutral,largerFirst,1.5,1.5,40,,,,,,,,
,,,,,,,,,,,,,,,681,2022-02-06_11h26.58.537,multiplicationStroop,2021.2.3,Win32,59.80861244,,,,,,,,,,,,,,,,,,,,,,,,,,,,,,,,,4,1.4308,1,0,15,15,28,1,2,×,2,2 × 2,neutral,tie,1.5,1.5,4,,,,,,,,
,,,,,,,,,,,,,,,681,2022-02-06_11h26.58.537,multiplicationStroop,2021.2.3,Win32,59.80861244,,,,,,,,,,,,,,,,,,,,,,,,,,,,,,,,,64,1.7641,1,0,16,16,34,1,8,×,8,8 × 8,neutral,tie,1.5,1.5,64,,,,,,,,
,,,,,,,,,,,,,,,681,2022-02-06_11h26.58.537,multiplicationStroop,2021.2.3,Win32,59.80861244,,,,,,,,,,,,,,,,,,,,,,,,,,,,,,,,,30,1.7482,1,0,17,17,19,1,6,×,5,6 × 5,neutral,largerFirst,1.5,1.5,30,,,,,,,,
,,,,,,,,,,,,,,,681,2022-02-06_11h26.58.537,multiplicationStroop,2021.2.3,Win32,59.80861244,,,,,,,,,,,,,,,,,,,,,,,,,,,,,,,,,54,7.7087,1,0,18,18,7,1,6,×,9,6 × 9,neutral,smallerFirst,1.5,1.5,54,,,,,,,,
,,,,,,,,,,,,,,,681,2022-02-06_11h26.58.537,multiplicationStroop,2021.2.3,Win32,59.80861244,,,,,,,,,,,,,,,,,,,,,,,,,,,,,,,,,20,3.0204,1,0,19,19,20,1,5,×,4,5 × 4,neutral,largerFirst,1.5,1.5,20,,,,,,,,
,,,,,,,,,,,,,,,681,2022-02-06_11h26.58.537,multiplicationStroop,2021.2.3,Win32,59.80861244,,,,,,,,,,,,,,,,,,,,,,,,,,,,,,,,,56,1.8142,1,0,20,20,9,1,7,×,8,7 × 8,neutral,smallerFirst,1.5,1.5,56,,,,,,,,
,,,,,,,,,,,,,,,681,2022-02-06_11h26.58.537,multiplicationStroop,2021.2.3,Win32,59.80861244,,,,,,,,,,,,,,,,,,,,,,,,,,,,,,,,,16,2.247,1,0,21,21,30,1,4,×,4,4 × 4,neutral,tie,1.5,1.5,16,,,,,,,,
,,,,,,,,,,,,,,,681,2022-02-06_11h26.58.537,multiplicationStroop,2021.2.3,Win32,59.80861244,,,,,,,,,,,,,,,,,,,,,,,,,,,,,,,,,24,1.6322,1,0,22,22,2,1,4,×,6,4 × 6,neutral,smallerFirst,1.5,1.5,24,,,,,,,,
,,,,,,,,,,,,,,,681,2022-02-06_11h26.58.537,multiplicationStroop,2021.2.3,Win32,59.80861244,,,,,,,,,,,,,,,,,,,,,,,,,,,,,,,,,35,2.43,0,0,23,23,6,1,6,×,7,6 × 7,neutral,smallerFirst,1.5,1.5,42,,,,,,,,
,,,,,,,,,,,,,,,681,2022-02-06_11h26.58.537,multiplicationStroop,2021.2.3,Win32,59.80861244,,,,,,,,,,,,,,,,,,,,,,,,,,,,,,,,,32,4.428,1,0,24,24,23,1,8,×,4,8 × 4,neutral,largerFirst,1.5,1.5,32,,,,,,,,
,,,,,,,,,,,,,,,681,2022-02-06_11h26.58.537,multiplicationStroop,2021.2.3,Win32,59.80861244,,,,,,,,,,,,,,,,,,,,,,,,,,,,,,,,,49,1.8526,1,0,25,25,33,1,7,×,7,7 × 7,neutral,tie,1.5,1.5,49,,,,,,,,
,,,,,,,,,,,,,,,681,2022-02-06_11h26.58.537,multiplicationStroop,2021.2.3,Win32,59.80861244,,,,,,,,,,,,,,,,,,,,,,,,,,,,,,,,,18,1.9643,1,0,26,26,0,1,3,×,6,3 × 6,neutral,smallerFirst,1.5,1.5,18,,,,,,,,
,,,,,,,,,,,,,,,681,2022-02-06_11h26.58.537,multiplicationStroop,2021.2.3,Win32,59.80861244,,,,,,,,,,,,,,,,,,,,,,,,,,,,,,,,,12,1.5474,1,0,27,27,21,1,4,×,3,4 × 3,neutral,largerFirst,1.5,1.5,12,,,,,,,,
,,,,,,,,,,,,,,,681,2022-02-06_11h26.58.537,multiplicationStroop,2021.2.3,Win32,59.80861244,,,,,,,,,,,,,,,,,,,,,,,,,,,,,,,,,48,2.114,1,0,28,28,15,1,8,×,6,8 × 6,neutral,largerFirst,1.5,1.5,48,,,,,,,,
,,,,,,,,,,,,,,,681,2022-02-06_11h26.58.537,multiplicationStroop,2021.2.3,Win32,59.80861244,,,,,,,,,,,,,,,,,,,,,,,,,,,,,,,,,16,1.7147,1,0,29,29,13,1,2,×,8,2 × 8,neutral,smallerFirst,1.5,1.5,16,,,,,,,,
,,,,,,,,,,,,,,,681,2022-02-06_11h26.58.537,multiplicationStroop,2021.2.3,Win32,59.80861244,,,,,,,,,,,,,,,,,,,,,,,,,,,,,,,,,81,2.6634,1,0,30,30,35,1,9,×,9,9 × 9,neutral,tie,1.5,1.5,81,,,,,,,,
,,,,,,,,,,,,,,,681,2022-02-06_11h26.58.537,multiplicationStroop,2021.2.3,Win32,59.80861244,,,,,,,,,,,,,,,,,,,,,,,,,,,,,,,,,15,1.981,1,0,31,31,5,1,3,×,5,3 × 5,neutral,smallerFirst,1.5,1.5,15,,,,,,,,
,,,,,,,,,,,,,,,681,2022-02-06_11h26.58.537,multiplicationStroop,2021.2.3,Win32,59.80861244,,,,,,,,,,,,,,,,,,,,,,,,,,,,,,,,,12,1.3482,1,0,32,32,25,1,6,×,2,6 × 2,neutral,largerFirst,1.5,1.5,12,,,,,,,,
,,,,,,,,,,,,,,,681,2022-02-06_11h26.58.537,multiplicationStroop,2021.2.3,Win32,59.80861244,,,,,,,,,,,,,,,,,,,,,,,,,,,,,,,,,18,1.9466,1,0,33,33,18,1,9,×,2,9 × 2,neutral,largerFirst,1.5,1.5,18,,,,,,,,
,,,,,,,,,,,,,,,681,2022-02-06_11h26.58.537,multiplicationStroop,2021.2.3,Win32,59.80861244,,,,,,,,,,,,,,,,,,,,,,,,,,,,,,,,,6,1.7984,1,0,34,34,26,1,3,×,2,3 × 2,neutral,largerFirst,1.5,1.5,6,,,,,,,,
,,,,,,,,,,,,,,,681,2022-02-06_11h26.58.537,multiplicationStroop,2021.2.3,Win32,59.80861244,,,,,,,,,,,,,,,,,,,,,,,,,,,,,,,,,35,1.7157,1,0,35,35,1,1,5,×,7,5 × 7,neutral,smallerFirst,1.5,1.5,35,,,,,,,,
,,,,,,,,,,,,,,,681,2022-02-06_11h26.58.537,multiplicationStroop,2021.2.3,Win32,59.80861244,,,,,,,,,,,,,,,,,,,,,,,,,,,,,,,,,,,,,,,,,,,,,,,,,,0,4,4,1,1,stimulusFile/mult_blk2.xlsx,,
,,,,,,,,,,,,,,,681,2022-02-06_11h26.58.537,multiplicationStroop,2021.2.3,Win32,59.80861244,,,,,,,,,,,,,,,,,,,,,,,,,,,,,,,space,0.9294,30,2.1829,1,0,0,0,1,1,5,×,6,5 × 6,congruent,smallerFirst,1,2,30,,,,,,,,
,,,,,,,,,,,,,,,681,2022-02-06_11h26.58.537,multiplicationStroop,2021.2.3,Win32,59.80861244,,,,,,,,,,,,,,,,,,,,,,,,,,,,,,,,,81,2.3812,1,0,1,1,35,1,9,×,9,9 × 9,neutral,tie,1,2,81,,,,,,,,
,,,,,,,,,,,,,,,681,2022-02-06_11h26.58.537,multiplicationStroop,2021.2.3,Win32,59.80861244,,,,,,,,,,,,,,,,,,,,,,,,,,,,,,,,,14,1.3649,1,0,2,2,0,1,2,×,7,2 × 7,congruent,smallerFirst,1,2,14,,,,,,,,
,,,,,,,,,,,,,,,681,2022-02-06_11h26.58.537,multiplicationStroop,2021.2.3,Win32,59.80861244,,,,,,,,,,,,,,,,,,,,,,,,,,,,,,,,,63,2.4296,1,0,3,3,7,1,7,×,9,7 × 9,congruent,smallerFirst,1,2,63,,,,,,,,
,,,,,,,,,,,,,,,681,2022-02-06_11h26.58.537,multiplicationStroop,2021.2.3,Win32,59.80861244,,,,,,,,,,,,,,,,,,,,,,,,,,,,,,,,,48,2.9298,1,0,4,4,4,1,6,×,8,6 × 8,congruent,smallerFirst,1,2,48,,,,,,,,
,,,,,,,,,,,,,,,681,2022-02-06_11h26.58.537,multiplicationStroop,2021.2.3,Win32,59.80861244,,,,,,,,,,,,,,,,,,,,,,,,,,,,,,,,,12,1.2863,1,0,5,5,16,1,4,×,3,4 × 3,congruent,largerFirst,2,1,12,,,,,,,,
,,,,,,,,,,,,,,,681,2022-02-06_11h26.58.537,multiplicationStroop,2021.2.3,Win32,59.80861244,,,,,,,,,,,,,,,,,,,,,,,,,,,,,,,,,40,1.9478,1,0,6,6,20,1,8,×,5,8 × 5,congruent,largerFirst,2,1,40,,,,,,,,
,,,,,,,,,,,,,,,681,2022-02-06_11h26.58.537,multiplicationStroop,2021.2.3,Win32,59.80861244,,,,,,,,,,,,,,,,,,,,,,,,,,,,,,,,,10,1.5637,1,0,7,7,10,1,2,×,5,2 × 5,congruent,smallerFirst,1,2,10,,,,,,,,
,,,,,,,,,,,,,,,681,2022-02-06_11h26.58.537,multiplicationStroop,2021.2.3,Win32,59.80861244,,,,,,,,,,,,,,,,,,,,,,,,,,,,,,,,,18,2.1477,1,0,8,8,25,1,6,×,3,6 × 3,congruent,largerFirst,2,1,18,,,,,,,,
,,,,,,,,,,,,,,,681,2022-02-06_11h26.58.537,multiplicationStroop,2021.2.3,Win32,59.80861244,,,,,,,,,,,,,,,,,,,,,,,,,,,,,,,,,15,1.531,1,0,9,9,18,1,5,×,3,5 × 3,congruent,largerFirst,2,1,15,,,,,,,,
,,,,,,,,,,,,,,,681,2022-02-06_11h26.58.537,multiplicationStroop,2021.2.3,Win32,59.80861244,,,,,,,,,,,,,,,,,,,,,,,,,,,,,,,,,72,2.3138,1,0,10,10,3,1,8,×,9,8 × 9,congruent,smallerFirst,1,2,72,,,,,,,,
,,,,,,,,,,,,,,,681,2022-02-06_11h26.58.537,multiplicationStroop,2021.2.3,Win32,59.80861244,,,,,,,,,,,,,,,,,,,,,,,,,,,,,,,,,24,1.7145,1,0,11,11,24,1,8,×,3,8 × 3,congruent,largerFirst,2,1,24,,,,,,,,
,,,,,,,,,,,,,,,681,2022-02-06_11h26.58.537,multiplicationStroop,2021.2.3,Win32,59.80861244,,,,,,,,,,,,,,,,,,,,,,,,,,,,,,,,,28,1.8807,1,0,12,12,13,1,4,×,7,4 × 7,congruent,smallerFirst,1,2,28,,,,,,,,
,,,,,,,,,,,,,,,681,2022-02-06_11h26.58.537,multiplicationStroop,2021.2.3,Win32,59.80861244,,,,,,,,,,,,,,,,,,,,,,,,,,,,,,,,,32,1.7145,1,0,13,13,6,1,4,×,8,4 × 8,congruent,smallerFirst,1,2,32,,,,,,,,
,,,,,,,,,,,,,,,681,2022-02-06_11h26.58.537,multiplicationStroop,2021.2.3,Win32,59.80861244,,,,,,,,,,,,,,,,,,,,,,,,,,,,,,,,,4,1.3638,1,0,14,14,28,1,2,×,2,2 × 2,neutral,tie,1,2,4,,,,,,,,
,,,,,,,,,,,,,,,681,2022-02-06_11h26.58.537,multiplicationStroop,2021.2.3,Win32,59.80861244,,,,,,,,,,,,,,,,,,,,,,,,,,,,,,,,,27,3.1806,1,0,15,15,12,1,3,×,9,3 × 9,congruent,smallerFirst,1,2,27,,,,,,,,
,,,,,,,,,,,,,,,681,2022-02-06_11h26.58.537,multiplicationStroop,2021.2.3,Win32,59.80861244,,,,,,,,,,,,,,,,,,,,,,,,,,,,,,,,,49,2.0533,1,0,16,16,33,1,7,×,7,7 × 7,neutral,tie,1,2,49,,,,,,,,
,,,,,,,,,,,,,,,681,2022-02-06_11h26.58.537,multiplicationStroop,2021.2.3,Win32,59.80861244,,,,,,,,,,,,,,,,,,,,,,,,,,,,,,,,,36,2.4128,1,0,17,17,14,1,9,×,4,9 × 4,congruent,largerFirst,2,1,36,,,,,,,,
,,,,,,,,,,,,,,,681,2022-02-06_11h26.58.537,multiplicationStroop,2021.2.3,Win32,59.80861244,,,,,,,,,,,,,,,,,,,,,,,,,,,,,,,,,36,1.9311,1,0,18,18,32,1,6,×,6,6 × 6,neutral,tie,1,2,36,,,,,,,,
,,,,,,,,,,,,,,,681,2022-02-06_11h26.58.537,multiplicationStroop,2021.2.3,Win32,59.80861244,,,,,,,,,,,,,,,,,,,,,,,,,,,,,,,,,16,1.865,1,0,19,19,30,1,4,×,4,4 × 4,neutral,tie,1,2,16,,,,,,,,
,,,,,,,,,,,,,,,681,2022-02-06_11h26.58.537,multiplicationStroop,2021.2.3,Win32,59.80861244,,,,,,,,,,,,,,,,,,,,,,,,,,,,,,,,,45,2.0132,1,0,20,20,9,1,5,×,9,5 × 9,congruent,smallerFirst,1,2,45,,,,,,,,
,,,,,,,,,,,,,,,681,2022-02-06_11h26.58.537,multiplicationStroop,2021.2.3,Win32,59.80861244,,,,,,,,,,,,,,,,,,,,,,,,,,,,,,,,,20,1.8647,1,0,21,21,21,1,5,×,4,5 × 4,congruent,largerFirst,2,1,20,,,,,,,,
,,,,,,,,,,,,,,,681,2022-02-06_11h26.58.537,multiplicationStroop,2021.2.3,Win32,59.80861244,,,,,,,,,,,,,,,,,,,,,,,,,,,,,,,,,24,1.7311,1,0,22,22,11,1,4,×,6,4 × 6,congruent,smallerFirst,1,2,24,,,,,,,,
,,,,,,,,,,,,,,,681,2022-02-06_11h26.58.537,multiplicationStroop,2021.2.3,Win32,59.80861244,,,,,,,,,,,,,,,,,,,,,,,,,,,,,,,,,8,1.7972,1,0,23,23,23,1,4,×,2,4 × 2,congruent,largerFirst,2,1,8,,,,,,,,
,,,,,,,,,,,,,,,681,2022-02-06_11h26.58.537,multiplicationStroop,2021.2.3,Win32,59.80861244,,,,,,,,,,,,,,,,,,,,,,,,,,,,,,,,,6,1.6149,1,0,24,24,27,1,3,×,2,3 × 2,congruent,largerFirst,2,1,6,,,,,,,,
,,,,,,,,,,,,,,,681,2022-02-06_11h26.58.537,multiplicationStroop,2021.2.3,Win32,59.80861244,,,,,,,,,,,,,,,,,,,,,,,,,,,,,,,,,42,2.9788,1,0,25,25,17,1,7,×,6,7 × 6,congruent,largerFirst,2,1,42,,,,,,,,
,,,,,,,,,,,,,,,681,2022-02-06_11h26.58.537,multiplicationStroop,2021.2.3,Win32,59.80861244,,,,,,,,,,,,,,,,,,,,,,,,,,,,,,,,,18,2.198,1,0,26,26,8,1,2,×,9,2 × 9,congruent,smallerFirst,1,2,18,,,,,,,,
,,,,,,,,,,,,,,,681,2022-02-06_11h26.58.537,multiplicationStroop,2021.2.3,Win32,59.80861244,,,,,,,,,,,,,,,,,,,,,,,,,,,,,,,,,12,1.7978,1,0,27,27,5,1,2,×,6,2 × 6,congruent,smallerFirst,1,2,12,,,,,,,,
,,,,,,,,,,,,,,,681,2022-02-06_11h26.58.537,multiplicationStroop,2021.2.3,Win32,59.80861244,,,,,,,,,,,,,,,,,,,,,,,,,,,,,,,,,25,1.8811,1,0,28,28,31,1,5,×,5,5 × 5,neutral,tie,1,2,25,,,,,,,,
,,,,,,,,,,,,,,,681,2022-02-06_11h26.58.537,multiplicationStroop,2021.2.3,Win32,59.80861244,,,,,,,,,,,,,,,,,,,,,,,,,,,,,,,,,9,3.213,1,0,29,29,29,1,3,×,3,3 × 3,neutral,tie,1,2,9,,,,,,,,
,,,,,,,,,,,,,,,681,2022-02-06_11h26.58.537,multiplicationStroop,2021.2.3,Win32,59.80861244,,,,,,,,,,,,,,,,,,,,,,,,,,,,,,,,,54,2.635,1,0,30,30,26,1,9,×,6,9 × 6,congruent,largerFirst,2,1,54,,,,,,,,
,,,,,,,,,,,,,,,681,2022-02-06_11h26.58.537,multiplicationStroop,2021.2.3,Win32,59.80861244,,,,,,,,,,,,,,,,,,,,,,,,,,,,,,,,,64,2.1307,1,0,31,31,34,1,8,×,8,8 × 8,neutral,tie,1,2,64,,,,,,,,
,,,,,,,,,,,,,,,681,2022-02-06_11h26.58.537,multiplicationStroop,2021.2.3,Win32,59.80861244,,,,,,,,,,,,,,,,,,,,,,,,,,,,,,,,,56,3.5461,1,0,32,32,22,1,8,×,7,8 × 7,congruent,largerFirst,2,1,56,,,,,,,,
,,,,,,,,,,,,,,,681,2022-02-06_11h26.58.537,multiplicationStroop,2021.2.3,Win32,59.80861244,,,,,,,,,,,,,,,,,,,,,,,,,,,,,,,,,21,1.6179,1,0,33,33,2,1,3,×,7,3 × 7,congruent,smallerFirst,1,2,21,,,,,,,,
,,,,,,,,,,,,,,,681,2022-02-06_11h26.58.537,multiplicationStroop,2021.2.3,Win32,59.80861244,,,,,,,,,,,,,,,,,,,,,,,,,,,,,,,,,16,1.9146,1,0,34,34,19,1,8,×,2,8 × 2,congruent,largerFirst,2,1,16,,,,,,,,
,,,,,,,,,,,,,,,681,2022-02-06_11h26.58.537,multiplicationStroop,2021.2.3,Win32,59.80861244,,,,,,,,,,,,,,,,,,,,,,,,,,,,,,,,,35,2.2967,1,0,35,35,15,1,7,×,5,7 × 5,congruent,largerFirst,2,1,35,,,,,,,,
,,,,,,,,,,,,,,,681,2022-02-06_11h26.58.537,multiplicationStroop,2021.2.3,Win32,59.80861244,,,,,,,,,,,,,,,,,,,,,,,,,,,,,,,,,,,,,,,,,,,,,,,,,,0,5,5,3,1,stimulusFile/mult_blk4_congruent.xlsx,,
,,,,,,,,,,,,,,,681,2022-02-06_11h26.58.537,multiplicationStroop,2021.2.3,Win32,59.80861244,,,,,,,,,,,,,,,,,,,,,,,,,,,,,,,,,,,,,,,,,,,,,,,,,,,,,,,,space,6.8472