welcomeKey_resp.keys,welcomeKey_resp.rt,X Scale,Y Scale,rt_resp_4.keys,rt_resp_4.corr,rt_resp_4.rt,speedtest_2.thisRepN,speedtest_2.thisTrialN,speedtest_2.thisN,speedtest_2.thisIndex,speedtest_2.ran,numberSc,posX,positionLayout,participant,date,expName,psychopyVersion,OS,frameRate,ct_instrresp.keys,ct_instrresp.rt,key_resp_2.keys,key_resp_2.rt,ct_keyResp.keys,ct_keyResp.corr,ct_keyResp.rt,trials.thisRepN,trials.thisTrialN,trials.thisN,trials.thisIndex,trials.ran,leftNo,rightNo,displayProblem,numDistance,leftNo_size,rightNo_size,Dims,keyAnswer,TS_Loop.thisRepN,TS_Loop.thisTrialN,TS_Loop.thisN,TS_Loop.thisIndex,TS_Loop.ran,Condition,ActionInst,instrImage,mltptaskInst_resp.keys,mltptaskInst_resp.rt,continue_resp_2.keys,continue_resp_2.rt,multp_Answer,multi_RT,multiplyCorr,LoopingMultiply.thisRepN,LoopingMultiply.thisTrialN,LoopingMultiply.thisN,LoopingMultiply.thisIndex,LoopingMultiply.ran,factor1,multiplySign,factor2,multliplyProblem,physicalSize,orderOperand,sizeF1,sizeF2,mult_answer,trials_stroop.thisRepN,trials_stroop.thisTrialN,trials_stroop.thisN,trials_stroop.thisIndex,trials_stroop.ran,multiplicationFile,esckey_resp_2.keys,esckey_resp_2.rt
y,8.7694,56.1,55.8,left,1,0.4424,0,0,0,4,1,6,-200,left,682,2022-03-06_21h49.14.127,multiplicationStroop,2021.2.3,Win32,60.02040694,,,,,,,,,,,,,,,,,,,,,,,,,,,,,,,,,,,,,,,,,,,,,,,,,,,,,,,,,
,,,,left,1,0.316,0,1,1,3,1,4,-200,left,682,2022-03-06_21h49.14.127,multiplicationStroop,2021.2.3,Win32,60.02040694,,,,,,,,,,,,,,,,,,,,,,,,,,,,,,,,,,,,,,,,,,,,,,,,,,,,,,,,,
,,,,right,1,0.2971,0,2,2,11,1,4,200,right,682,2022-03-06_21h49.14.127,multiplicationStroop,2021.2.3,Win32,60.02040694,,,,,,,,,,,,,,,,,,,,,,,,,,,,,,,,,,,,,,,,,,,,,,,,,,,,,,,,,
,,,,left,1,0.297,0,3,3,1,1,2,-200,left,682,2022-03-06_21h49.14.127,multiplicationStroop,2021.2.3,Win32,60.02040694,,,,,,,,,,,,,,,,,,,,,,,,,,,,,,,,,,,,,,,,,,,,,,,,,,,,,,,,,
,,,,left,1,0.3179,0,4,4,7,1,9,-200,left,682,2022-03-06_21h49.14.127,multiplicationStroop,2021.2.3,Win32,60.02040694,,,,,,,,,,,,,,,,,,,,,,,,,,,,,,,,,,,,,,,,,,,,,,,,,,,,,,,,,
,,,,right,1,0.3471,0,5,5,14,1,8,200,right,682,2022-03-06_21h49.14.127,multiplicationStroop,2021.2.3,Win32,60.02040694,,,,,,,,,,,,,,,,,,,,,,,,,,,,,,,,,,,,,,,,,,,,,,,,,,,,,,,,,
,,,,left,1,0.2624,0,6,6,2,1,3,-200,left,682,2022-03-06_21h49.14.127,multiplicationStroop,2021.2.3,Win32,60.02040694,,,,,,,,,,,,,,,,,,,,,,,,,,,,,,,,,,,,,,,,,,,,,,,,,,,,,,,,,
,,,,left,1,0.312,0,7,7,5,1,7,-200,left,682,2022-03-06_21h49.14.127,multiplicationStroop,2021.2.3,Win32,60.02040694,,,,,,,,,,,,,,,,,,,,,,,,,,,,,,,,,,,,,,,,,,,,,,,,,,,,,,,,,
,,,,right,1,0.2713,0,8,8,10,1,3,200,right,682,2022-03-06_21h49.14.127,multiplicationStroop,2021.2.3,Win32,60.02040694,,,,,,,,,,,,,,,,,,,,,,,,,,,,,,,,,,,,,,,,,,,,,,,,,,,,,,,,,
,,,,right,1,0.3056,0,9,9,8,1,1,200,right,682,2022-03-06_21h49.14.127,multiplicationStroop,2021.2.3,Win32,60.02040694,,,,,,,,,,,,,,,,,,,,,,,,,,,,,,,,,,,,,,,,,,,,,,,,,,,,,,,,,
,,,,right,1,0.284,0,10,10,12,1,6,200,right,682,2022-03-06_21h49.14.127,multiplicationStroop,2021.2.3,Win32,60.02040694,,,,,,,,,,,,,,,,,,,,,,,,,,,,,,,,,,,,,,,,,,,,,,,,,,,,,,,,,
,,,,left,1,0.2842,0,11,11,6,1,8,-200,left,682,2022-03-06_21h49.14.127,multiplicationStroop,2021.2.3,Win32,60.02040694,,,,,,,,,,,,,,,,,,,,,,,,,,,,,,,,,,,,,,,,,,,,,,,,,,,,,,,,,
,,,,right,1,0.3162,0,12,12,13,1,7,200,right,682,2022-03-06_21h49.14.127,multiplicationStroop,2021.2.3,Win32,60.02040694,,,,,,,,,,,,,,,,,,,,,,,,,,,,,,,,,,,,,,,,,,,,,,,,,,,,,,,,,
,,,,right,1,0.3251,0,13,13,15,1,9,200,right,682,2022-03-06_21h49.14.127,multiplicationStroop,2021.2.3,Win32,60.02040694,,,,,,,,,,,,,,,,,,,,,,,,,,,,,,,,,,,,,,,,,,,,,,,,,,,,,,,,,
,,,,right,1,0.2696,0,14,14,9,1,2,200,right,682,2022-03-06_21h49.14.127,multiplicationStroop,2021.2.3,Win32,60.02040694,,,,,,,,,,,,,,,,,,,,,,,,,,,,,,,,,,,,,,,,,,,,,,,,,,,,,,,,,
,,,,left,1,0.3332,0,15,15,0,1,1,-200,left,682,2022-03-06_21h49.14.127,multiplicationStroop,2021.2.3,Win32,60.02040694,,,,,,,,,,,,,,,,,,,,,,,,,,,,,,,,,,,,,,,,,,,,,,,,,,,,,,,,,
,,,,right,1,0.3466,1,0,16,12,1,6,200,right,682,2022-03-06_21h49.14.127,multiplicationStroop,2021.2.3,Win32,60.02040694,,,,,,,,,,,,,,,,,,,,,,,,,,,,,,,,,,,,,,,,,,,,,,,,,,,,,,,,,
,,,,left,1,0.2685,1,1,17,6,1,8,-200,left,682,2022-03-06_21h49.14.127,multiplicationStroop,2021.2.3,Win32,60.02040694,,,,,,,,,,,,,,,,,,,,,,,,,,,,,,,,,,,,,,,,,,,,,,,,,,,,,,,,,
,,,,left,1,0.3396,1,2,18,4,1,6,-200,left,682,2022-03-06_21h49.14.127,multiplicationStroop,2021.2.3,Win32,60.02040694,,,,,,,,,,,,,,,,,,,,,,,,,,,,,,,,,,,,,,,,,,,,,,,,,,,,,,,,,
,,,,right,1,0.2909,1,3,19,14,1,8,200,right,682,2022-03-06_21h49.14.127,multiplicationStroop,2021.2.3,Win32,60.02040694,,,,,,,,,,,,,,,,,,,,,,,,,,,,,,,,,,,,,,,,,,,,,,,,,,,,,,,,,
,,,,right,1,0.3628,1,4,20,8,1,1,200,right,682,2022-03-06_21h49.14.127,multiplicationStroop,2021.2.3,Win32,60.02040694,,,,,,,,,,,,,,,,,,,,,,,,,,,,,,,,,,,,,,,,,,,,,,,,,,,,,,,,,
,,,,left,1,0.29,1,5,21,0,1,1,-200,left,682,2022-03-06_21h49.14.127,multiplicationStroop,2021.2.3,Win32,60.02040694,,,,,,,,,,,,,,,,,,,,,,,,,,,,,,,,,,,,,,,,,,,,,,,,,,,,,,,,,
,,,,right,1,0.2685,1,6,22,15,1,9,200,right,682,2022-03-06_21h49.14.127,multiplicationStroop,2021.2.3,Win32,60.02040694,,,,,,,,,,,,,,,,,,,,,,,,,,,,,,,,,,,,,,,,,,,,,,,,,,,,,,,,,
,,,,right,1,0.3965,1,7,23,10,1,3,200,right,682,2022-03-06_21h49.14.127,multiplicationStroop,2021.2.3,Win32,60.02040694,,,,,,,,,,,,,,,,,,,,,,,,,,,,,,,,,,,,,,,,,,,,,,,,,,,,,,,,,
,,,,left,1,0.32,1,8,24,7,1,9,-200,left,682,2022-03-06_21h49.14.127,multiplicationStroop,2021.2.3,Win32,60.02040694,,,,,,,,,,,,,,,,,,,,,,,,,,,,,,,,,,,,,,,,,,,,,,,,,,,,,,,,,
,,,,left,1,0.3178,1,9,25,1,1,2,-200,left,682,2022-03-06_21h49.14.127,multiplicationStroop,2021.2.3,Win32,60.02040694,,,,,,,,,,,,,,,,,,,,,,,,,,,,,,,,,,,,,,,,,,,,,,,,,,,,,,,,,
,,,,left,1,0.2783,1,10,26,5,1,7,-200,left,682,2022-03-06_21h49.14.127,multiplicationStroop,2021.2.3,Win32,60.02040694,,,,,,,,,,,,,,,,,,,,,,,,,,,,,,,,,,,,,,,,,,,,,,,,,,,,,,,,,
,,,,right,1,0.308,1,11,27,13,1,7,200,right,682,2022-03-06_21h49.14.127,multiplicationStroop,2021.2.3,Win32,60.02040694,,,,,,,,,,,,,,,,,,,,,,,,,,,,,,,,,,,,,,,,,,,,,,,,,,,,,,,,,
,,,,right,1,0.2524,1,12,28,9,1,2,200,right,682,2022-03-06_21h49.14.127,multiplicationStroop,2021.2.3,Win32,60.02040694,,,,,,,,,,,,,,,,,,,,,,,,,,,,,,,,,,,,,,,,,,,,,,,,,,,,,,,,,
,,,,right,1,0.2802,1,13,29,11,1,4,200,right,682,2022-03-06_21h49.14.127,multiplicationStroop,2021.2.3,Win32,60.02040694,,,,,,,,,,,,,,,,,,,,,,,,,,,,,,,,,,,,,,,,,,,,,,,,,,,,,,,,,
,,,,left,1,0.367,1,14,30,3,1,4,-200,left,682,2022-03-06_21h49.14.127,multiplicationStroop,2021.2.3,Win32,60.02040694,,,,,,,,,,,,,,,,,,,,,,,,,,,,,,,,,,,,,,,,,,,,,,,,,,,,,,,,,
,,,,left,1,0.2843,1,15,31,2,1,3,-200,left,682,2022-03-06_21h49.14.127,multiplicationStroop,2021.2.3,Win32,60.02040694,,,,,,,,,,,,,,,,,,,,,,,,,,,,,,,,,,,,,,,,,,,,,,,,,,,,,,,,,
,,,,left,1,0.2716,2,0,32,1,1,2,-200,left,682,2022-03-06_21h49.14.127,multiplicationStroop,2021.2.3,Win32,60.02040694,,,,,,,,,,,,,,,,,,,,,,,,,,,,,,,,,,,,,,,,,,,,,,,,,,,,,,,,,
,,,,left,1,0.2794,2,1,33,7,1,9,-200,left,682,2022-03-06_21h49.14.127,multiplicationStroop,2021.2.3,Win32,60.02040694,,,,,,,,,,,,,,,,,,,,,,,,,,,,,,,,,,,,,,,,,,,,,,,,,,,,,,,,,
,,,,right,1,0.2858,2,2,34,13,1,7,200,right,682,2022-03-06_21h49.14.127,multiplicationStroop,2021.2.3,Win32,60.02040694,,,,,,,,,,,,,,,,,,,,,,,,,,,,,,,,,,,,,,,,,,,,,,,,,,,,,,,,,
,,,,right,1,0.3163,2,3,35,12,1,6,200,right,682,2022-03-06_21h49.14.127,multiplicationStroop,2021.2.3,Win32,60.02040694,,,,,,,,,,,,,,,,,,,,,,,,,,,,,,,,,,,,,,,,,,,,,,,,,,,,,,,,,
,,,,right,1,0.2625,2,4,36,8,1,1,200,right,682,2022-03-06_21h49.14.127,multiplicationStroop,2021.2.3,Win32,60.02040694,,,,,,,,,,,,,,,,,,,,,,,,,,,,,,,,,,,,,,,,,,,,,,,,,,,,,,,,,
,,,,left,1,0.2695,2,5,37,5,1,7,-200,left,682,2022-03-06_21h49.14.127,multiplicationStroop,2021.2.3,Win32,60.02040694,,,,,,,,,,,,,,,,,,,,,,,,,,,,,,,,,,,,,,,,,,,,,,,,,,,,,,,,,
,,,,right,1,0.2896,2,6,38,14,1,8,200,right,682,2022-03-06_21h49.14.127,multiplicationStroop,2021.2.3,Win32,60.02040694,,,,,,,,,,,,,,,,,,,,,,,,,,,,,,,,,,,,,,,,,,,,,,,,,,,,,,,,,
,,,,left,1,0.2531,2,7,39,6,1,8,-200,left,682,2022-03-06_21h49.14.127,multiplicationStroop,2021.2.3,Win32,60.02040694,,,,,,,,,,,,,,,,,,,,,,,,,,,,,,,,,,,,,,,,,,,,,,,,,,,,,,,,,
,,,,right,1,0.2547,2,8,40,10,1,3,200,right,682,2022-03-06_21h49.14.127,multiplicationStroop,2021.2.3,Win32,60.02040694,,,,,,,,,,,,,,,,,,,,,,,,,,,,,,,,,,,,,,,,,,,,,,,,,,,,,,,,,
,,,,right,1,0.3359,2,9,41,15,1,9,200,right,682,2022-03-06_21h49.14.127,multiplicationStroop,2021.2.3,Win32,60.02040694,,,,,,,,,,,,,,,,,,,,,,,,,,,,,,,,,,,,,,,,,,,,,,,,,,,,,,,,,
,,,,left,1,0.3135,2,10,42,4,1,6,-200,left,682,2022-03-06_21h49.14.127,multiplicationStroop,2021.2.3,Win32,60.02040694,,,,,,,,,,,,,,,,,,,,,,,,,,,,,,,,,,,,,,,,,,,,,,,,,,,,,,,,,
,,,,left,1,0.2876,2,11,43,3,1,4,-200,left,682,2022-03-06_21h49.14.127,multiplicationStroop,2021.2.3,Win32,60.02040694,,,,,,,,,,,,,,,,,,,,,,,,,,,,,,,,,,,,,,,,,,,,,,,,,,,,,,,,,
,,,,right,1,0.3872,2,12,44,11,1,4,200,right,682,2022-03-06_21h49.14.127,multiplicationStroop,2021.2.3,Win32,60.02040694,,,,,,,,,,,,,,,,,,,,,,,,,,,,,,,,,,,,,,,,,,,,,,,,,,,,,,,,,
,,,,right,1,0.279,2,13,45,9,1,2,200,right,682,2022-03-06_21h49.14.127,multiplicationStroop,2021.2.3,Win32,60.02040694,,,,,,,,,,,,,,,,,,,,,,,,,,,,,,,,,,,,,,,,,,,,,,,,,,,,,,,,,
,,,,left,1,0.3198,2,14,46,0,1,1,-200,left,682,2022-03-06_21h49.14.127,multiplicationStroop,2021.2.3,Win32,60.02040694,,,,,,,,,,,,,,,,,,,,,,,,,,,,,,,,,,,,,,,,,,,,,,,,,,,,,,,,,
,,,,left,1,0.3294,2,15,47,2,1,3,-200,left,682,2022-03-06_21h49.14.127,multiplicationStroop,2021.2.3,Win32,60.02040694,,,,,,,,,,,,,,,,,,,,,,,,,,,,,,,,,,,,,,,,,,,,,,,,,,,,,,,,,
,,,,right,1,0.2791,3,0,48,11,1,4,200,right,682,2022-03-06_21h49.14.127,multiplicationStroop,2021.2.3,Win32,60.02040694,,,,,,,,,,,,,,,,,,,,,,,,,,,,,,,,,,,,,,,,,,,,,,,,,,,,,,,,,
,,,,left,1,0.2789,3,1,49,5,1,7,-200,left,682,2022-03-06_21h49.14.127,multiplicationStroop,2021.2.3,Win32,60.02040694,,,,,,,,,,,,,,,,,,,,,,,,,,,,,,,,,,,,,,,,,,,,,,,,,,,,,,,,,
,,,,left,1,0.3236,3,2,50,2,1,3,-200,left,682,2022-03-06_21h49.14.127,multiplicationStroop,2021.2.3,Win32,60.02040694,,,,,,,,,,,,,,,,,,,,,,,,,,,,,,,,,,,,,,,,,,,,,,,,,,,,,,,,,
,,,,right,1,0.3197,3,3,51,15,1,9,200,right,682,2022-03-06_21h49.14.127,multiplicationStroop,2021.2.3,Win32,60.02040694,,,,,,,,,,,,,,,,,,,,,,,,,,,,,,,,,,,,,,,,,,,,,,,,,,,,,,,,,
,,,,left,1,0.2964,3,4,52,3,1,4,-200,left,682,2022-03-06_21h49.14.127,multiplicationStroop,2021.2.3,Win32,60.02040694,,,,,,,,,,,,,,,,,,,,,,,,,,,,,,,,,,,,,,,,,,,,,,,,,,,,,,,,,
,,,,left,1,0.28,3,5,53,4,1,6,-200,left,682,2022-03-06_21h49.14.127,multiplicationStroop,2021.2.3,Win32,60.02040694,,,,,,,,,,,,,,,,,,,,,,,,,,,,,,,,,,,,,,,,,,,,,,,,,,,,,,,,,
,,,,right,1,0.2966,3,6,54,8,1,1,200,right,682,2022-03-06_21h49.14.127,multiplicationStroop,2021.2.3,Win32,60.02040694,,,,,,,,,,,,,,,,,,,,,,,,,,,,,,,,,,,,,,,,,,,,,,,,,,,,,,,,,
,,,,left,0,0.2836,3,7,55,13,1,7,200,right,682,2022-03-06_21h49.14.127,multiplicationStroop,2021.2.3,Win32,60.02040694,,,,,,,,,,,,,,,,,,,,,,,,,,,,,,,,,,,,,,,,,,,,,,,,,,,,,,,,,
,,,,left,1,0.4046,3,8,56,1,1,2,-200,left,682,2022-03-06_21h49.14.127,multiplicationStroop,2021.2.3,Win32,60.02040694,,,,,,,,,,,,,,,,,,,,,,,,,,,,,,,,,,,,,,,,,,,,,,,,,,,,,,,,,
,,,,right,1,0.3598,3,9,57,12,1,6,200,right,682,2022-03-06_21h49.14.127,multiplicationStroop,2021.2.3,Win32,60.02040694,,,,,,,,,,,,,,,,,,,,,,,,,,,,,,,,,,,,,,,,,,,,,,,,,,,,,,,,,
,,,,left,1,0.2948,3,10,58,7,1,9,-200,left,682,2022-03-06_21h49.14.127,multiplicationStroop,2021.2.3,Win32,60.02040694,,,,,,,,,,,,,,,,,,,,,,,,,,,,,,,,,,,,,,,,,,,,,,,,,,,,,,,,,
,,,,right,1,0.3356,3,11,59,9,1,2,200,right,682,2022-03-06_21h49.14.127,multiplicationStroop,2021.2.3,Win32,60.02040694,,,,,,,,,,,,,,,,,,,,,,,,,,,,,,,,,,,,,,,,,,,,,,,,,,,,,,,,,
,,,,left,1,0.2721,3,12,60,0,1,1,-200,left,682,2022-03-06_21h49.14.127,multiplicationStroop,2021.2.3,Win32,60.02040694,,,,,,,,,,,,,,,,,,,,,,,,,,,,,,,,,,,,,,,,,,,,,,,,,,,,,,,,,
,,,,right,1,0.3212,3,13,61,10,1,3,200,right,682,2022-03-06_21h49.14.127,multiplicationStroop,2021.2.3,Win32,60.02040694,,,,,,,,,,,,,,,,,,,,,,,,,,,,,,,,,,,,,,,,,,,,,,,,,,,,,,,,,
,,,,left,1,0.326,3,14,62,6,1,8,-200,left,682,2022-03-06_21h49.14.127,multiplicationStroop,2021.2.3,Win32,60.02040694,,,,,,,,,,,,,,,,,,,,,,,,,,,,,,,,,,,,,,,,,,,,,,,,,,,,,,,,,
,,,,right,1,0.2846,3,15,63,14,1,8,200,right,682,2022-03-06_21h49.14.127,multiplicationStroop,2021.2.3,Win32,60.02040694,,,,,,,,,,,,,,,,,,,,,,,,,,,,,,,,,,,,,,,,,,,,,,,,,,,,,,,,,
,,,,,,,,,,,,,,,682,2022-03-06_21h49.14.127,multiplicationStroop,2021.2.3,Win32,60.02040694,space,14.2812,space,6.7339,left,1,0.7831,0,0,0,12,1,3,1,3 | 1,2,1.9756,1.4111,congruent,left,,,,,,stimulusFile/magnitude.xlsx,,,,,,,,,,,,,,,,,,,,,,,,,,,,,,,
,,,,,,,,,,,,,,,682,2022-03-06_21h49.14.127,multiplicationStroop,2021.2.3,Win32,60.02040694,,,,,right,0,0.6911,0,1,1,31,1,9,8,9 | 8,1,1.4111,1.9756,incongruent,left,,,,,,stimulusFile/magnitude.xlsx,,,,,,,,,,,,,,,,,,,,,,,,,,,,,,,
,,,,,,,,,,,,,,,682,2022-03-06_21h49.14.127,multiplicationStroop,2021.2.3,Win32,60.02040694,,,,,right,1,1.0158,0,2,2,8,1,1,3,1 | 3,2,1.4111,1.9756,congruent,right,,,,,,stimulusFile/magnitude.xlsx,,,,,,,,,,,,,,,,,,,,,,,,,,,,,,,
,,,,,,,,,,,,,,,682,2022-03-06_21h49.14.127,multiplicationStroop,2021.2.3,Win32,60.02040694,,,,,right,1,0.742,0,3,3,25,1,3,4,3 | 4,1,1.9756,1.4111,incongruent,right,,,,,,stimulusFile/magnitude.xlsx,,,,,,,,,,,,,,,,,,,,,,,,,,,,,,,
,,,,,,,,,,,,,,,682,2022-03-06_21h49.14.127,multiplicationStroop,2021.2.3,Win32,60.02040694,,,,,left,1,0.5669,0,4,4,45,1,7,2,7 | 2,5,1.4111,1.9756,incongruent,left,,,,,,stimulusFile/magnitude.xlsx,,,,,,,,,,,,,,,,,,,,,,,,,,,,,,,
,,,,,,,,,,,,,,,682,2022-03-06_21h49.14.127,multiplicationStroop,2021.2.3,Win32,60.02040694,,,,,right,1,1.0927,0,5,5,65,1,2,7,2 | 7,5,1.6933,1.6933,neutral,right,,,,,,stimulusFile/magnitude.xlsx,,,,,,,,,,,,,,,,,,,,,,,,,,,,,,,
,,,,,,,,,,,,,,,682,2022-03-06_21h49.14.127,multiplicationStroop,2021.2.3,Win32,60.02040694,,,,,left,1,0.8969,0,6,6,28,1,2,1,2 | 1,1,1.4111,1.9756,incongruent,left,,,,,,stimulusFile/magnitude.xlsx,,,,,,,,,,,,,,,,,,,,,,,,,,,,,,,
,,,,,,,,,,,,,,,682,2022-03-06_21h49.14.127,multiplicationStroop,2021.2.3,Win32,60.02040694,,,,,right,1,1.104,0,7,7,58,1,6,8,6 | 8,2,1.6933,1.6933,neutral,right,,,,,,stimulusFile/magnitude.xlsx,,,,,,,,,,,,,,,,,,,,,,,,,,,,,,,
,,,,,,,,,,,,,,,682,2022-03-06_21h49.14.127,multiplicationStroop,2021.2.3,Win32,60.02040694,,,,,right,1,0.6171,0,8,8,17,1,2,7,2 | 7,5,1.4111,1.9756,congruent,right,,,,,,stimulusFile/magnitude.xlsx,,,,,,,,,,,,,,,,,,,,,,,,,,,,,,,
,,,,,,,,,,,,,,,682,2022-03-06_21h49.14.127,multiplicationStroop,2021.2.3,Win32,60.02040694,,,,,right,1,0.7823,0,9,9,66,1,3,8,3 | 8,5,1.6933,1.6933,neutral,right,,,,,,stimulusFile/magnitude.xlsx,,,,,,,,,,,,,,,,,,,,,,,,,,,,,,,
,,,,,,,,,,,,,,,682,2022-03-06_21h49.14.127,multiplicationStroop,2021.2.3,Win32,60.02040694,,,,,right,1,0.9646,0,10,10,9,1,2,4,2 | 4,2,1.4111,1.9756,congruent,right,,,,,,stimulusFile/magnitude.xlsx,,,,,,,,,,,,,,,,,,,,,,,,,,,,,,,
,,,,,,,,,,,,,,,682,2022-03-06_21h49.14.127,multiplicationStroop,2021.2.3,Win32,60.02040694,,,,,left,1,0.8824,0,11,11,36,1,3,1,3 | 1,2,1.4111,1.9756,incongruent,left,,,,,,stimulusFile/magnitude.xlsx,,,,,,,,,,,,,,,,,,,,,,,,,,,,,,,
,,,,,,,,,,,,,,,682,2022-03-06_21h49.14.127,multiplicationStroop,2021.2.3,Win32,60.02040694,,,,,left,1,0.8533,0,12,12,14,1,8,6,8 | 6,2,1.9756,1.4111,congruent,left,,,,,,stimulusFile/magnitude.xlsx,,,,,,,,,,,,,,,,,,,,,,,,,,,,,,,
,,,,,,,,,,,,,,,682,2022-03-06_21h49.14.127,multiplicationStroop,2021.2.3,Win32,60.02040694,,,,,right,1,0.6301,0,13,13,40,1,1,6,1 | 6,5,1.9756,1.4111,incongruent,right,,,,,,stimulusFile/magnitude.xlsx,,,,,,,,,,,,,,,,,,,,,,,,,,,,,,,
,,,,,,,,,,,,,,,682,2022-03-06_21h49.14.127,multiplicationStroop,2021.2.3,Win32,60.02040694,,,,,right,1,0.71,0,14,14,18,1,3,8,3 | 8,5,1.4111,1.9756,congruent,right,,,,,,stimulusFile/magnitude.xlsx,,,,,,,,,,,,,,,,,,,,,,,,,,,,,,,
,,,,,,,,,,,,,,,682,2022-03-06_21h49.14.127,multiplicationStroop,2021.2.3,Win32,60.02040694,,,,,left,1,0.5936,0,15,15,68,1,6,1,6 | 1,5,1.6933,1.6933,neutral,left,,,,,,stimulusFile/magnitude.xlsx,,,,,,,,,,,,,,,,,,,,,,,,,,,,,,,
,,,,,,,,,,,,,,,682,2022-03-06_21h49.14.127,multiplicationStroop,2021.2.3,Win32,60.02040694,,,,,left,1,0.5661,0,16,16,6,1,7,6,7 | 6,1,1.9756,1.4111,congruent,left,,,,,,stimulusFile/magnitude.xlsx,,,,,,,,,,,,,,,,,,,,,,,,,,,,,,,
,,,,,,,,,,,,,,,682,2022-03-06_21h49.14.127,multiplicationStroop,2021.2.3,Win32,60.02040694,,,,,right,1,0.7003,0,17,17,49,1,3,4,3 | 4,1,1.6933,1.6933,neutral,right,,,,,,stimulusFile/magnitude.xlsx,,,,,,,,,,,,,,,,,,,,,,,,,,,,,,,
,,,,,,,,,,,,,,,682,2022-03-06_21h49.14.127,multiplicationStroop,2021.2.3,Win32,60.02040694,,,,,left,1,0.6324,0,18,18,38,1,8,6,8 | 6,2,1.4111,1.9756,incongruent,left,,,,,,stimulusFile/magnitude.xlsx,,,,,,,,,,,,,,,,,,,,,,,,,,,,,,,
,,,,,,,,,,,,,,,682,2022-03-06_21h49.14.127,multiplicationStroop,2021.2.3,Win32,60.02040694,,,,,right,1,0.6682,0,19,19,24,1,1,2,1 | 2,1,1.9756,1.4111,incongruent,right,,,,,,stimulusFile/magnitude.xlsx,,,,,,,,,,,,,,,,,,,,,,,,,,,,,,,
,,,,,,,,,,,,,,,682,2022-03-06_21h49.14.127,multiplicationStroop,2021.2.3,Win32,60.02040694,,,,,right,1,0.6108,0,20,20,57,1,2,4,2 | 4,2,1.6933,1.6933,neutral,right,,,,,,stimulusFile/magnitude.xlsx,,,,,,,,,,,,,,,,,,,,,,,,,,,,,,,
,,,,,,,,,,,,,,,682,2022-03-06_21h49.14.127,multiplicationStroop,2021.2.3,Win32,60.02040694,,,,,left,1,0.7189,0,21,21,63,1,9,7,9 | 7,2,1.6933,1.6933,neutral,left,,,,,,stimulusFile/magnitude.xlsx,,,,,,,,,,,,,,,,,,,,,,,,,,,,,,,
,,,,,,,,,,,,,,,682,2022-03-06_21h49.14.127,multiplicationStroop,2021.2.3,Win32,60.02040694,,,,,right,1,0.8558,0,22,22,26,1,6,7,6 | 7,1,1.9756,1.4111,incongruent,right,,,,,,stimulusFile/magnitude.xlsx,,,,,,,,,,,,,,,,,,,,,,,,,,,,,,,
,,,,,,,,,,,,,,,682,2022-03-06_21h49.14.127,multiplicationStroop,2021.2.3,Win32,60.02040694,,,,,right,1,0.619,0,23,23,0,1,1,2,1 | 2,1,1.4111,1.9756,congruent,right,,,,,,stimulusFile/magnitude.xlsx,,,,,,,,,,,,,,,,,,,,,,,,,,,,,,,
,,,,,,,,,,,,,,,682,2022-03-06_21h49.14.127,multiplicationStroop,2021.2.3,Win32,60.02040694,,,,,right,1,0.565,0,24,24,67,1,4,9,4 | 9,5,1.6933,1.6933,neutral,right,,,,,,stimulusFile/magnitude.xlsx,,,,,,,,,,,,,,,,,,,,,,,,,,,,,,,
,,,,,,,,,,,,,,,682,2022-03-06_21h49.14.127,multiplicationStroop,2021.2.3,Win32,60.02040694,,,,,left,1,0.5664,0,25,25,44,1,6,1,6 | 1,5,1.4111,1.9756,incongruent,left,,,,,,stimulusFile/magnitude.xlsx,,,,,,,,,,,,,,,,,,,,,,,,,,,,,,,
,,,,,,,,,,,,,,,682,2022-03-06_21h49.14.127,multiplicationStroop,2021.2.3,Win32,60.02040694,,,,,left,1,0.5859,0,26,26,13,1,4,2,4 | 2,2,1.9756,1.4111,congruent,left,,,,,,stimulusFile/magnitude.xlsx,,,,,,,,,,,,,,,,,,,,,,,,,,,,,,,
,,,,,,,,,,,,,,,682,2022-03-06_21h49.14.127,multiplicationStroop,2021.2.3,Win32,60.02040694,,,,,right,1,0.547,0,27,27,3,1,8,9,8 | 9,1,1.4111,1.9756,congruent,right,,,,,,stimulusFile/magnitude.xlsx,,,,,,,,,,,,,,,,,,,,,,,,,,,,,,,
,,,,,,,,,,,,,,,682,2022-03-06_21h49.14.127,multiplicationStroop,2021.2.3,Win32,60.02040694,,,,,right,1,0.799,0,28,28,43,1,4,9,4 | 9,5,1.9756,1.4111,incongruent,right,,,,,,stimulusFile/magnitude.xlsx,,,,,,,,,,,,,,,,,,,,,,,,,,,,,,,
,,,,,,,,,,,,,,,682,2022-03-06_21h49.14.127,multiplicationStroop,2021.2.3,Win32,60.02040694,,,,,left,1,0.6136,0,29,29,60,1,3,1,3 | 1,2,1.6933,1.6933,neutral,left,,,,,,stimulusFile/magnitude.xlsx,,,,,,,,,,,,,,,,,,,,,,,,,,,,,,,
,,,,,,,,,,,,,,,682,2022-03-06_21h49.14.127,multiplicationStroop,2021.2.3,Win32,60.02040694,,,,,left,1,0.6781,0,30,30,46,1,8,3,8 | 3,5,1.4111,1.9756,incongruent,left,,,,,,stimulusFile/magnitude.xlsx,,,,,,,,,,,,,,,,,,,,,,,,,,,,,,,
,,,,,,,,,,,,,,,682,2022-03-06_21h49.14.127,multiplicationStroop,2021.2.3,Win32,60.02040694,,,,,left,1,0.4766,0,31,31,20,1,6,1,6 | 1,5,1.9756,1.4111,congruent,left,,,,,,stimulusFile/magnitude.xlsx,,,,,,,,,,,,,,,,,,,,,,,,,,,,,,,
,,,,,,,,,,,,,,,682,2022-03-06_21h49.14.127,multiplicationStroop,2021.2.3,Win32,60.02040694,,,,,right,1,0.8024,0,32,32,19,1,4,9,4 | 9,5,1.4111,1.9756,congruent,right,,,,,,stimulusFile/magnitude.xlsx,,,,,,,,,,,,,,,,,,,,,,,,,,,,,,,
,,,,,,,,,,,,,,,682,2022-03-06_21h49.14.127,multiplicationStroop,2021.2.3,Win32,60.02040694,,,,,left,1,0.4758,0,33,33,15,1,9,7,9 | 7,2,1.9756,1.4111,congruent,left,,,,,,stimulusFile/magnitude.xlsx,,,,,,,,,,,,,,,,,,,,,,,,,,,,,,,
,,,,,,,,,,,,,,,682,2022-03-06_21h49.14.127,multiplicationStroop,2021.2.3,Win32,60.02040694,,,,,right,1,0.6342,0,34,34,35,1,7,9,7 | 9,2,1.9756,1.4111,incongruent,right,,,,,,stimulusFile/magnitude.xlsx,,,,,,,,,,,,,,,,,,,,,,,,,,,,,,,
,,,,,,,,,,,,,,,682,2022-03-06_21h49.14.127,multiplicationStroop,2021.2.3,Win32,60.02040694,,,,,left,1,0.6104,0,35,35,69,1,7,2,7 | 2,5,1.6933,1.6933,neutral,left,,,,,,stimulusFile/magnitude.xlsx,,,,,,,,,,,,,,,,,,,,,,,,,,,,,,,
,,,,,,,,,,,,,,,682,2022-03-06_21h49.14.127,multiplicationStroop,2021.2.3,Win32,60.02040694,,,,,right,1,0.6013,0,36,36,11,1,7,9,7 | 9,2,1.4111,1.9756,congruent,right,,,,,,stimulusFile/magnitude.xlsx,,,,,,,,,,,,,,,,,,,,,,,,,,,,,,,
,,,,,,,,,,,,,,,682,2022-03-06_21h49.14.127,multiplicationStroop,2021.2.3,Win32,60.02040694,,,,,left,1,0.6872,0,37,37,30,1,7,6,7 | 6,1,1.4111,1.9756,incongruent,left,,,,,,stimulusFile/magnitude.xlsx,,,,,,,,,,,,,,,,,,,,,,,,,,,,,,,
,,,,,,,,,,,,,,,682,2022-03-06_21h49.14.127,multiplicationStroop,2021.2.3,Win32,60.02040694,,,,,left,1,0.9208,0,38,38,53,1,4,3,4 | 3,1,1.6933,1.6933,neutral,left,,,,,,stimulusFile/magnitude.xlsx,,,,,,,,,,,,,,,,,,,,,,,,,,,,,,,
,,,,,,,,,,,,,,,682,2022-03-06_21h49.14.127,multiplicationStroop,2021.2.3,Win32,60.02040694,,,,,left,1,0.7692,0,39,39,39,1,9,7,9 | 7,2,1.4111,1.9756,incongruent,left,,,,,,stimulusFile/magnitude.xlsx,,,,,,,,,,,,,,,,,,,,,,,,,,,,,,,
,,,,,,,,,,,,,,,682,2022-03-06_21h49.14.127,multiplicationStroop,2021.2.3,Win32,60.02040694,,,,,left,1,0.6437,0,40,40,4,1,2,1,2 | 1,1,1.9756,1.4111,congruent,left,,,,,,stimulusFile/magnitude.xlsx,,,,,,,,,,,,,,,,,,,,,,,,,,,,,,,
,,,,,,,,,,,,,,,682,2022-03-06_21h49.14.127,multiplicationStroop,2021.2.3,Win32,60.02040694,,,,,right,1,0.6513,0,41,41,2,1,6,7,6 | 7,1,1.4111,1.9756,congruent,right,,,,,,stimulusFile/magnitude.xlsx,,,,,,,,,,,,,,,,,,,,,,,,,,,,,,,
,,,,,,,,,,,,,,,682,2022-03-06_21h49.14.127,multiplicationStroop,2021.2.3,Win32,60.02040694,,,,,left,1,0.4905,0,42,42,7,1,9,8,9 | 8,1,1.9756,1.4111,congruent,left,,,,,,stimulusFile/magnitude.xlsx,,,,,,,,,,,,,,,,,,,,,,,,,,,,,,,
,,,,,,,,,,,,,,,682,2022-03-06_21h49.14.127,multiplicationStroop,2021.2.3,Win32,60.02040694,,,,,right,1,0.5831,0,43,43,59,1,7,9,7 | 9,2,1.6933,1.6933,neutral,right,,,,,,stimulusFile/magnitude.xlsx,,,,,,,,,,,,,,,,,,,,,,,,,,,,,,,
,,,,,,,,,,,,,,,682,2022-03-06_21h49.14.127,multiplicationStroop,2021.2.3,Win32,60.02040694,,,,,left,1,0.5183,0,44,44,22,1,8,3,8 | 3,5,1.9756,1.4111,congruent,left,,,,,,stimulusFile/magnitude.xlsx,,,,,,,,,,,,,,,,,,,,,,,,,,,,,,,
,,,,,,,,,,,,,,,682,2022-03-06_21h49.14.127,multiplicationStroop,2021.2.3,Win32,60.02040694,,,,,right,1,0.6008,0,45,45,64,1,1,6,1 | 6,5,1.6933,1.6933,neutral,right,,,,,,stimulusFile/magnitude.xlsx,,,,,,,,,,,,,,,,,,,,,,,,,,,,,,,
,,,,,,,,,,,,,,,682,2022-03-06_21h49.14.127,multiplicationStroop,2021.2.3,Win32,60.02040694,,,,,left,1,0.5515,0,46,46,52,1,2,1,2 | 1,1,1.6933,1.6933,neutral,left,,,,,,stimulusFile/magnitude.xlsx,,,,,,,,,,,,,,,,,,,,,,,,,,,,,,,
,,,,,,,,,,,,,,,682,2022-03-06_21h49.14.127,multiplicationStroop,2021.2.3,Win32,60.02040694,,,,,right,1,0.5344,0,47,47,10,1,6,8,6 | 8,2,1.4111,1.9756,congruent,right,,,,,,stimulusFile/magnitude.xlsx,,,,,,,,,,,,,,,,,,,,,,,,,,,,,,,
,,,,,,,,,,,,,,,682,2022-03-06_21h49.14.127,multiplicationStroop,2021.2.3,Win32,60.02040694,,,,,left,1,0.5018,0,48,48,71,1,9,4,9 | 4,5,1.6933,1.6933,neutral,left,,,,,,stimulusFile/magnitude.xlsx,,,,,,,,,,,,,,,,,,,,,,,,,,,,,,,
,,,,,,,,,,,,,,,682,2022-03-06_21h49.14.127,multiplicationStroop,2021.2.3,Win32,60.02040694,,,,,right,1,0.7424,0,49,49,34,1,6,8,6 | 8,2,1.9756,1.4111,incongruent,right,,,,,,stimulusFile/magnitude.xlsx,,,,,,,,,,,,,,,,,,,,,,,,,,,,,,,
,,,,,,,,,,,,,,,682,2022-03-06_21h49.14.127,multiplicationStroop,2021.2.3,Win32,60.02040694,,,,,right,1,0.552,0,50,50,41,1,2,7,2 | 7,5,1.9756,1.4111,incongruent,right,,,,,,stimulusFile/magnitude.xlsx,,,,,,,,,,,,,,,,,,,,,,,,,,,,,,,
,,,,,,,,,,,,,,,682,2022-03-06_21h49.14.127,multiplicationStroop,2021.2.3,Win32,60.02040694,,,,,right,1,1.4678,0,51,51,56,1,1,3,1 | 3,2,1.6933,1.6933,neutral,right,,,,,,stimulusFile/magnitude.xlsx,,,,,,,,,,,,,,,,,,,,,,,,,,,,,,,
,,,,,,,,,,,,,,,682,2022-03-06_21h49.14.127,multiplicationStroop,2021.2.3,Win32,60.02040694,,,,,left,1,0.5354,0,52,52,21,1,7,2,7 | 2,5,1.9756,1.4111,congruent,left,,,,,,stimulusFile/magnitude.xlsx,,,,,,,,,,,,,,,,,,,,,,,,,,,,,,,
,,,,,,,,,,,,,,,682,2022-03-06_21h49.14.127,multiplicationStroop,2021.2.3,Win32,60.02040694,,,,,right,1,0.7348,0,53,53,27,1,8,9,8 | 9,1,1.9756,1.4111,incongruent,right,,,,,,stimulusFile/magnitude.xlsx,,,,,,,,,,,,,,,,,,,,,,,,,,,,,,,
,,,,,,,,,,,,,,,682,2022-03-06_21h49.14.127,multiplicationStroop,2021.2.3,Win32,60.02040694,,,,,left,1,0.7069,0,54,54,29,1,4,3,4 | 3,1,1.4111,1.9756,incongruent,left,,,,,,stimulusFile/magnitude.xlsx,,,,,,,,,,,,,,,,,,,,,,,,,,,,,,,
,,,,,,,,,,,,,,,682,2022-03-06_21h49.14.127,multiplicationStroop,2021.2.3,Win32,60.02040694,,,,,right,1,0.6038,0,55,55,1,1,3,4,3 | 4,1,1.4111,1.9756,congruent,right,,,,,,stimulusFile/magnitude.xlsx,,,,,,,,,,,,,,,,,,,,,,,,,,,,,,,
,,,,,,,,,,,,,,,682,2022-03-06_21h49.14.127,multiplicationStroop,2021.2.3,Win32,60.02040694,,,,,left,1,0.6349,0,56,56,55,1,9,8,9 | 8,1,1.6933,1.6933,neutral,left,,,,,,stimulusFile/magnitude.xlsx,,,,,,,,,,,,,,,,,,,,,,,,,,,,,,,
,,,,,,,,,,,,,,,682,2022-03-06_21h49.14.127,multiplicationStroop,2021.2.3,Win32,60.02040694,,,,,left,1,0.6182,0,57,57,70,1,8,3,8 | 3,5,1.6933,1.6933,neutral,left,,,,,,stimulusFile/magnitude.xlsx,,,,,,,,,,,,,,,,,,,,,,,,,,,,,,,
,,,,,,,,,,,,,,,682,2022-03-06_21h49.14.127,multiplicationStroop,2021.2.3,Win32,60.02040694,,,,,right,1,0.5885,0,58,58,33,1,2,4,2 | 4,2,1.9756,1.4111,incongruent,right,,,,,,stimulusFile/magnitude.xlsx,,,,,,,,,,,,,,,,,,,,,,,,,,,,,,,
,,,,,,,,,,,,,,,682,2022-03-06_21h49.14.127,multiplicationStroop,2021.2.3,Win32,60.02040694,,,,,right,1,0.6017,0,59,59,51,1,8,9,8 | 9,1,1.6933,1.6933,neutral,right,,,,,,stimulusFile/magnitude.xlsx,,,,,,,,,,,,,,,,,,,,,,,,,,,,,,,
,,,,,,,,,,,,,,,682,2022-03-06_21h49.14.127,multiplicationStroop,2021.2.3,Win32,60.02040694,,,,,right,1,0.5592,0,60,60,16,1,1,6,1 | 6,5,1.4111,1.9756,congruent,right,,,,,,stimulusFile/magnitude.xlsx,,,,,,,,,,,,,,,,,,,,,,,,,,,,,,,
,,,,,,,,,,,,,,,682,2022-03-06_21h49.14.127,multiplicationStroop,2021.2.3,Win32,60.02040694,,,,,left,1,0.5014,0,61,61,23,1,9,4,9 | 4,5,1.9756,1.4111,congruent,left,,,,,,stimulusFile/magnitude.xlsx,,,,,,,,,,,,,,,,,,,,,,,,,,,,,,,
,,,,,,,,,,,,,,,682,2022-03-06_21h49.14.127,multiplicationStroop,2021.2.3,Win32,60.02040694,,,,,left,1,0.7549,0,62,62,62,1,8,6,8 | 6,2,1.6933,1.6933,neutral,left,,,,,,stimulusFile/magnitude.xlsx,,,,,,,,,,,,,,,,,,,,,,,,,,,,,,,
,,,,,,,,,,,,,,,682,2022-03-06_21h49.14.127,multiplicationStroop,2021.2.3,Win32,60.02040694,,,,,right,1,0.6013,0,63,63,42,1,3,8,3 | 8,5,1.9756,1.4111,incongruent,right,,,,,,stimulusFile/magnitude.xlsx,,,,,,,,,,,,,,,,,,,,,,,,,,,,,,,
,,,,,,,,,,,,,,,682,2022-03-06_21h49.14.127,multiplicationStroop,2021.2.3,Win32,60.02040694,,,,,right,1,0.6345,0,64,64,32,1,1,3,1 | 3,2,1.9756,1.4111,incongruent,right,,,,,,stimulusFile/magnitude.xlsx,,,,,,,,,,,,,,,,,,,,,,,,,,,,,,,
,,,,,,,,,,,,,,,682,2022-03-06_21h49.14.127,multiplicationStroop,2021.2.3,Win32,60.02040694,,,,,right,0,0.6514,0,65,65,54,1,7,6,7 | 6,1,1.6933,1.6933,neutral,left,,,,,,stimulusFile/magnitude.xlsx,,,,,,,,,,,,,,,,,,,,,,,,,,,,,,,
,,,,,,,,,,,,,,,682,2022-03-06_21h49.14.127,multiplicationStroop,2021.2.3,Win32,60.02040694,,,,,right,1,0.6939,0,66,66,48,1,1,2,1 | 2,1,1.6933,1.6933,neutral,right,,,,,,stimulusFile/magnitude.xlsx,,,,,,,,,,,,,,,,,,,,,,,,,,,,,,,
,,,,,,,,,,,,,,,682,2022-03-06_21h49.14.127,multiplicationStroop,2021.2.3,Win32,60.02040694,,,,,right,1,0.6119,0,67,67,50,1,6,7,6 | 7,1,1.6933,1.6933,neutral,right,,,,,,stimulusFile/magnitude.xlsx,,,,,,,,,,,,,,,,,,,,,,,,,,,,,,,
,,,,,,,,,,,,,,,682,2022-03-06_21h49.14.127,multiplicationStroop,2021.2.3,Win32,60.02040694,,,,,left,1,0.7347,0,68,68,37,1,4,2,4 | 2,2,1.4111,1.9756,incongruent,left,,,,,,stimulusFile/magnitude.xlsx,,,,,,,,,,,,,,,,,,,,,,,,,,,,,,,
,,,,,,,,,,,,,,,682,2022-03-06_21h49.14.127,multiplicationStroop,2021.2.3,Win32,60.02040694,,,,,left,1,0.5922,0,69,69,47,1,9,4,9 | 4,5,1.4111,1.9756,incongruent,left,,,,,,stimulusFile/magnitude.xlsx,,,,,,,,,,,,,,,,,,,,,,,,,,,,,,,
,,,,,,,,,,,,,,,682,2022-03-06_21h49.14.127,multiplicationStroop,2021.2.3,Win32,60.02040694,,,,,left,1,0.5217,0,70,70,5,1,4,3,4 | 3,1,1.9756,1.4111,congruent,left,,,,,,stimulusFile/magnitude.xlsx,,,,,,,,,,,,,,,,,,,,,,,,,,,,,,,
,,,,,,,,,,,,,,,682,2022-03-06_21h49.14.127,multiplicationStroop,2021.2.3,Win32,60.02040694,,,,,left,1,0.454,0,71,71,61,1,4,2,4 | 2,2,1.6933,1.6933,neutral,left,,,,,,stimulusFile/magnitude.xlsx,,,,,,,,,,,,,,,,,,,,,,,,,,,,,,,
,,,,,,,,,,,,,,,682,2022-03-06_21h49.14.127,multiplicationStroop,2021.2.3,Win32,60.02040694,,,,,,,,,,,,,,,,,,,,,0,0,0,0,1,stimulusFile/magnitude.xlsx,NUMERICALLY larger (larger coefficient).,images/numericallyLarger.png,,,,,,,,,,,,,,,,,,,,,,,,,,,,,
,,,,,,,,,,,,,,,682,2022-03-06_21h49.14.127,multiplicationStroop,2021.2.3,Win32,60.02040694,space,3.3258,space,3.4107,right,1,0.4769,0,0,0,19,1,4,9,4 | 9,5,1.4111,1.9756,congruent,right,,,,,,stimulusFile/physical.xlsx,,,,,,,,,,,,,,,,,,,,,,,,,,,,,,,
,,,,,,,,,,,,,,,682,2022-03-06_21h49.14.127,multiplicationStroop,2021.2.3,Win32,60.02040694,,,,,right,1,0.4347,0,1,1,39,1,9,7,9 | 7,2,1.4111,1.9756,incongruent,right,,,,,,stimulusFile/physical.xlsx,,,,,,,,,,,,,,,,,,,,,,,,,,,,,,,
,,,,,,,,,,,,,,,682,2022-03-06_21h49.14.127,multiplicationStroop,2021.2.3,Win32,60.02040694,,,,,right,1,0.5562,0,2,2,10,1,6,8,6 | 8,2,1.4111,1.9756,congruent,right,,,,,,stimulusFile/physical.xlsx,,,,,,,,,,,,,,,,,,,,,,,,,,,,,,,
,,,,,,,,,,,,,,,682,2022-03-06_21h49.14.127,multiplicationStroop,2021.2.3,Win32,60.02040694,,,,,left,0,0.8181,0,3,3,66,1,3,3,3 | 3,0,1.9756,1.4111,neutral,right,,,,,,stimulusFile/physical.xlsx,,,,,,,,,,,,,,,,,,,,,,,,,,,,,,,
,,,,,,,,,,,,,,,682,2022-03-06_21h49.14.127,multiplicationStroop,2021.2.3,Win32,60.02040694,,,,,right,0,0.4696,0,4,4,71,1,9,9,9 | 9,0,1.4111,1.9756,neutral,left,,,,,,stimulusFile/physical.xlsx,,,,,,,,,,,,,,,,,,,,,,,,,,,,,,,
,,,,,,,,,,,,,,,682,2022-03-06_21h49.14.127,multiplicationStroop,2021.2.3,Win32,60.02040694,,,,,right,1,0.5193,0,5,5,47,1,9,4,9 | 4,5,1.4111,1.9756,incongruent,right,,,,,,stimulusFile/physical.xlsx,,,,,,,,,,,,,,,,,,,,,,,,,,,,,,,
,,,,,,,,,,,,,,,682,2022-03-06_21h49.14.127,multiplicationStroop,2021.2.3,Win32,60.02040694,,,,,left,1,0.468,0,6,6,53,1,4,4,4 | 4,0,1.9756,1.4111,neutral,left,,,,,,stimulusFile/physical.xlsx,,,,,,,,,,,,,,,,,,,,,,,,,,,,,,,
,,,,,,,,,,,,,,,682,2022-03-06_21h49.14.127,multiplicationStroop,2021.2.3,Win32,60.02040694,,,,,left,1,0.4843,0,7,7,15,1,9,7,9 | 7,2,1.9756,1.4111,congruent,left,,,,,,stimulusFile/physical.xlsx,,,,,,,,,,,,,,,,,,,,,,,,,,,,,,,
,,,,,,,,,,,,,,,682,2022-03-06_21h49.14.127,multiplicationStroop,2021.2.3,Win32,60.02040694,,,,,left,0,0.6241,0,8,8,64,1,1,1,1 | 1,0,1.9756,1.4111,neutral,right,,,,,,stimulusFile/physical.xlsx,,,,,,,,,,,,,,,,,,,,,,,,,,,,,,,
,,,,,,,,,,,,,,,682,2022-03-06_21h49.14.127,multiplicationStroop,2021.2.3,Win32,60.02040694,,,,,right,1,0.5074,0,9,9,59,1,7,7,7 | 7,0,1.4111,1.9756,neutral,right,,,,,,stimulusFile/physical.xlsx,,,,,,,,,,,,,,,,,,,,,,,,,,,,,,,
,,,,,,,,,,,,,,,682,2022-03-06_21h49.14.127,multiplicationStroop,2021.2.3,Win32,60.02040694,,,,,left,1,0.4772,0,10,10,12,1,3,1,3 | 1,2,1.9756,1.4111,congruent,left,,,,,,stimulusFile/physical.xlsx,,,,,,,,,,,,,,,,,,,,,,,,,,,,,,,
,,,,,,,,,,,,,,,682,2022-03-06_21h49.14.127,multiplicationStroop,2021.2.3,Win32,60.02040694,,,,,right,1,0.4853,0,11,11,56,1,1,1,1 | 1,0,1.4111,1.9756,neutral,right,,,,,,stimulusFile/physical.xlsx,,,,,,,,,,,,,,,,,,,,,,,,,,,,,,,
,,,,,,,,,,,,,,,682,2022-03-06_21h49.14.127,multiplicationStroop,2021.2.3,Win32,60.02040694,,,,,left,1,0.5372,0,12,12,24,1,1,2,1 | 2,1,1.9756,1.4111,incongruent,left,,,,,,stimulusFile/physical.xlsx,,,,,,,,,,,,,,,,,,,,,,,,,,,,,,,
,,,,,,,,,,,,,,,682,2022-03-06_21h49.14.127,multiplicationStroop,2021.2.3,Win32,60.02040694,,,,,left,1,0.5526,0,13,13,50,1,6,6,6 | 6,0,1.9756,1.4111,neutral,left,,,,,,stimulusFile/physical.xlsx,,,,,,,,,,,,,,,,,,,,,,,,,,,,,,,
,,,,,,,,,,,,,,,682,2022-03-06_21h49.14.127,multiplicationStroop,2021.2.3,Win32,60.02040694,,,,,left,1,0.4913,0,14,14,48,1,1,1,1 | 1,0,1.9756,1.4111,neutral,left,,,,,,stimulusFile/physical.xlsx,,,,,,,,,,,,,,,,,,,,,,,,,,,,,,,
,,,,,,,,,,,,,,,682,2022-03-06_21h49.14.127,multiplicationStroop,2021.2.3,Win32,60.02040694,,,,,right,1,0.4934,0,15,15,46,1,8,3,8 | 3,5,1.4111,1.9756,incongruent,right,,,,,,stimulusFile/physical.xlsx,,,,,,,,,,,,,,,,,,,,,,,,,,,,,,,
,,,,,,,,,,,,,,,682,2022-03-06_21h49.14.127,multiplicationStroop,2021.2.3,Win32,60.02040694,,,,,left,1,0.5011,0,16,16,55,1,9,9,9 | 9,0,1.9756,1.4111,neutral,left,,,,,,stimulusFile/physical.xlsx,,,,,,,,,,,,,,,,,,,,,,,,,,,,,,,
,,,,,,,,,,,,,,,682,2022-03-06_21h49.14.127,multiplicationStroop,2021.2.3,Win32,60.02040694,,,,,left,1,0.4551,0,17,17,43,1,4,9,4 | 9,5,1.9756,1.4111,incongruent,left,,,,,,stimulusFile/physical.xlsx,,,,,,,,,,,,,,,,,,,,,,,,,,,,,,,
,,,,,,,,,,,,,,,682,2022-03-06_21h49.14.127,multiplicationStroop,2021.2.3,Win32,60.02040694,,,,,right,1,0.4513,0,18,18,63,1,9,9,9 | 9,0,1.4111,1.9756,neutral,right,,,,,,stimulusFile/physical.xlsx,,,,,,,,,,,,,,,,,,,,,,,,,,,,,,,
,,,,,,,,,,,,,,,682,2022-03-06_21h49.14.127,multiplicationStroop,2021.2.3,Win32,60.02040694,,,,,right,1,0.5415,0,19,19,58,1,6,6,6 | 6,0,1.4111,1.9756,neutral,right,,,,,,stimulusFile/physical.xlsx,,,,,,,,,,,,,,,,,,,,,,,,,,,,,,,
,,,,,,,,,,,,,,,682,2022-03-06_21h49.14.127,multiplicationStroop,2021.2.3,Win32,60.02040694,,,,,right,1,0.5353,0,20,20,0,1,1,2,1 | 2,1,1.4111,1.9756,congruent,right,,,,,,stimulusFile/physical.xlsx,,,,,,,,,,,,,,,,,,,,,,,,,,,,,,,
,,,,,,,,,,,,,,,682,2022-03-06_21h49.14.127,multiplicationStroop,2021.2.3,Win32,60.02040694,,,,,right,1,0.4882,0,21,21,16,1,1,6,1 | 6,5,1.4111,1.9756,congruent,right,,,,,,stimulusFile/physical.xlsx,,,,,,,,,,,,,,,,,,,,,,,,,,,,,,,
,,,,,,,,,,,,,,,682,2022-03-06_21h49.14.127,multiplicationStroop,2021.2.3,Win32,60.02040694,,,,,left,1,0.418,0,22,22,27,1,8,9,8 | 9,1,1.9756,1.4111,incongruent,left,,,,,,stimulusFile/physical.xlsx,,,,,,,,,,,,,,,,,,,,,,,,,,,,,,,
,,,,,,,,,,,,,,,682,2022-03-06_21h49.14.127,multiplicationStroop,2021.2.3,Win32,60.02040694,,,,,right,1,0.4583,0,23,23,61,1,4,4,4 | 4,0,1.4111,1.9756,neutral,right,,,,,,stimulusFile/physical.xlsx,,,,,,,,,,,,,,,,,,,,,,,,,,,,,,,
,,,,,,,,,,,,,,,682,2022-03-06_21h49.14.127,multiplicationStroop,2021.2.3,Win32,60.02040694,,,,,right,1,0.7696,0,24,24,28,1,2,1,2 | 1,1,1.4111,1.9756,incongruent,right,,,,,,stimulusFile/physical.xlsx,,,,,,,,,,,,,,,,,,,,,,,,,,,,,,,
,,,,,,,,,,,,,,,682,2022-03-06_21h49.14.127,multiplicationStroop,2021.2.3,Win32,60.02040694,,,,,left,1,0.4677,0,25,25,33,1,2,4,2 | 4,2,1.9756,1.4111,incongruent,left,,,,,,stimulusFile/physical.xlsx,,,,,,,,,,,,,,,,,,,,,,,,,,,,,,,
,,,,,,,,,,,,,,,682,2022-03-06_21h49.14.127,multiplicationStroop,2021.2.3,Win32,60.02040694,,,,,right,1,0.5182,0,26,26,67,1,4,4,4 | 4,0,1.4111,1.9756,neutral,right,,,,,,stimulusFile/physical.xlsx,,,,,,,,,,,,,,,,,,,,,,,,,,,,,,,
,,,,,,,,,,,,,,,682,2022-03-06_21h49.14.127,multiplicationStroop,2021.2.3,Win32,60.02040694,,,,,right,1,0.5682,0,27,27,18,1,3,8,3 | 8,5,1.4111,1.9756,congruent,right,,,,,,stimulusFile/physical.xlsx,,,,,,,,,,,,,,,,,,,,,,,,,,,,,,,
,,,,,,,,,,,,,,,682,2022-03-06_21h49.14.127,multiplicationStroop,2021.2.3,Win32,60.02040694,,,,,right,1,0.8451,0,28,28,38,1,8,6,8 | 6,2,1.4111,1.9756,incongruent,right,,,,,,stimulusFile/physical.xlsx,,,,,,,,,,,,,,,,,,,,,,,,,,,,,,,
,,,,,,,,,,,,,,,682,2022-03-06_21h49.14.127,multiplicationStroop,2021.2.3,Win32,60.02040694,,,,,right,1,0.6085,0,29,29,65,1,2,2,2 | 2,0,1.4111,1.9756,neutral,right,,,,,,stimulusFile/physical.xlsx,,,,,,,,,,,,,,,,,,,,,,,,,,,,,,,
,,,,,,,,,,,,,,,682,2022-03-06_21h49.14.127,multiplicationStroop,2021.2.3,Win32,60.02040694,,,,,right,1,0.485,0,30,30,31,1,9,8,9 | 8,1,1.4111,1.9756,incongruent,right,,,,,,stimulusFile/physical.xlsx,,,,,,,,,,,,,,,,,,,,,,,,,,,,,,,
,,,,,,,,,,,,,,,682,2022-03-06_21h49.14.127,multiplicationStroop,2021.2.3,Win32,60.02040694,,,,,left,1,0.6344,0,31,31,25,1,3,4,3 | 4,1,1.9756,1.4111,incongruent,left,,,,,,stimulusFile/physical.xlsx,,,,,,,,,,,,,,,,,,,,,,,,,,,,,,,
,,,,,,,,,,,,,,,682,2022-03-06_21h49.14.127,multiplicationStroop,2021.2.3,Win32,60.02040694,,,,,left,1,0.5345,0,32,32,41,1,2,7,2 | 7,5,1.9756,1.4111,incongruent,left,,,,,,stimulusFile/physical.xlsx,,,,,,,,,,,,,,,,,,,,,,,,,,,,,,,
,,,,,,,,,,,,,,,682,2022-03-06_21h49.14.127,multiplicationStroop,2021.2.3,Win32,60.02040694,,,,,left,1,0.5182,0,33,33,22,1,8,3,8 | 3,5,1.9756,1.4111,congruent,left,,,,,,stimulusFile/physical.xlsx,,,,,,,,,,,,,,,,,,,,,,,,,,,,,,,
,,,,,,,,,,,,,,,682,2022-03-06_21h49.14.127,multiplicationStroop,2021.2.3,Win32,60.02040694,,,,,left,1,0.6676,0,34,34,35,1,7,9,7 | 9,2,1.9756,1.4111,incongruent,left,,,,,,stimulusFile/physical.xlsx,,,,,,,,,,,,,,,,,,,,,,,,,,,,,,,
,,,,,,,,,,,,,,,682,2022-03-06_21h49.14.127,multiplicationStroop,2021.2.3,Win32,60.02040694,,,,,left,1,0.5012,0,35,35,7,1,9,8,9 | 8,1,1.9756,1.4111,congruent,left,,,,,,stimulusFile/physical.xlsx,,,,,,,,,,,,,,,,,,,,,,,,,,,,,,,
,,,,,,,,,,,,,,,682,2022-03-06_21h49.14.127,multiplicationStroop,2021.2.3,Win32,60.02040694,,,,,left,1,0.441,0,36,36,21,1,7,2,7 | 2,5,1.9756,1.4111,congruent,left,,,,,,stimulusFile/physical.xlsx,,,,,,,,,,,,,,,,,,,,,,,,,,,,,,,
,,,,,,,,,,,,,,,682,2022-03-06_21h49.14.127,multiplicationStroop,2021.2.3,Win32,60.02040694,,,,,right,1,0.5013,0,37,37,60,1,3,3,3 | 3,0,1.4111,1.9756,neutral,right,,,,,,stimulusFile/physical.xlsx,,,,,,,,,,,,,,,,,,,,,,,,,,,,,,,
,,,,,,,,,,,,,,,682,2022-03-06_21h49.14.127,multiplicationStroop,2021.2.3,Win32,60.02040694,,,,,right,1,0.4745,0,38,38,11,1,7,9,7 | 9,2,1.4111,1.9756,congruent,right,,,,,,stimulusFile/physical.xlsx,,,,,,,,,,,,,,,,,,,,,,,,,,,,,,,
,,,,,,,,,,,,,,,682,2022-03-06_21h49.14.127,multiplicationStroop,2021.2.3,Win32,60.02040694,,,,,left,1,0.4848,0,39,39,49,1,3,3,3 | 3,0,1.9756,1.4111,neutral,left,,,,,,stimulusFile/physical.xlsx,,,,,,,,,,,,,,,,,,,,,,,,,,,,,,,
,,,,,,,,,,,,,,,682,2022-03-06_21h49.14.127,multiplicationStroop,2021.2.3,Win32,60.02040694,,,,,right,1,0.485,0,40,40,62,1,8,8,8 | 8,0,1.4111,1.9756,neutral,right,,,,,,stimulusFile/physical.xlsx,,,,,,,,,,,,,,,,,,,,,,,,,,,,,,,
,,,,,,,,,,,,,,,682,2022-03-06_21h49.14.127,multiplicationStroop,2021.2.3,Win32,60.02040694,,,,,right,1,0.5594,0,41,41,36,1,3,1,3 | 1,2,1.4111,1.9756,incongruent,right,,,,,,stimulusFile/physical.xlsx,,,,,,,,,,,,,,,,,,,,,,,,,,,,,,,
,,,,,,,,,,,,,,,682,2022-03-06_21h49.14.127,multiplicationStroop,2021.2.3,Win32,60.02040694,,,,,left,1,0.4944,0,42,42,34,1,6,8,6 | 8,2,1.9756,1.4111,incongruent,left,,,,,,stimulusFile/physical.xlsx,,,,,,,,,,,,,,,,,,,,,,,,,,,,,,,
,,,,,,,,,,,,,,,682,2022-03-06_21h49.14.127,multiplicationStroop,2021.2.3,Win32,60.02040694,,,,,right,1,1.2203,0,43,43,44,1,6,1,6 | 1,5,1.4111,1.9756,incongruent,right,,,,,,stimulusFile/physical.xlsx,,,,,,,,,,,,,,,,,,,,,,,,,,,,,,,
,,,,,,,,,,,,,,,682,2022-03-06_21h49.14.127,multiplicationStroop,2021.2.3,Win32,60.02040694,,,,,left,1,0.5934,0,44,44,6,1,7,6,7 | 6,1,1.9756,1.4111,congruent,left,,,,,,stimulusFile/physical.xlsx,,,,,,,,,,,,,,,,,,,,,,,,,,,,,,,
,,,,,,,,,,,,,,,682,2022-03-06_21h49.14.127,multiplicationStroop,2021.2.3,Win32,60.02040694,,,,,left,1,0.7071,0,45,45,5,1,4,3,4 | 3,1,1.9756,1.4111,congruent,left,,,,,,stimulusFile/physical.xlsx,,,,,,,,,,,,,,,,,,,,,,,,,,,,,,,
,,,,,,,,,,,,,,,682,2022-03-06_21h49.14.127,multiplicationStroop,2021.2.3,Win32,60.02040694,,,,,left,1,0.5085,0,46,46,52,1,2,2,2 | 2,0,1.9756,1.4111,neutral,left,,,,,,stimulusFile/physical.xlsx,,,,,,,,,,,,,,,,,,,,,,,,,,,,,,,
,,,,,,,,,,,,,,,682,2022-03-06_21h49.14.127,multiplicationStroop,2021.2.3,Win32,60.02040694,,,,,left,1,0.4847,0,47,47,4,1,2,1,2 | 1,1,1.9756,1.4111,congruent,left,,,,,,stimulusFile/physical.xlsx,,,,,,,,,,,,,,,,,,,,,,,,,,,,,,,
,,,,,,,,,,,,,,,682,2022-03-06_21h49.14.127,multiplicationStroop,2021.2.3,Win32,60.02040694,,,,,right,1,0.49,0,48,48,3,1,8,9,8 | 9,1,1.4111,1.9756,congruent,right,,,,,,stimulusFile/physical.xlsx,,,,,,,,,,,,,,,,,,,,,,,,,,,,,,,
,,,,,,,,,,,,,,,682,2022-03-06_21h49.14.127,multiplicationStroop,2021.2.3,Win32,60.02040694,,,,,left,1,0.5354,0,49,49,14,1,8,6,8 | 6,2,1.9756,1.4111,congruent,left,,,,,,stimulusFile/physical.xlsx,,,,,,,,,,,,,,,,,,,,,,,,,,,,,,,
,,,,,,,,,,,,,,,682,2022-03-06_21h49.14.127,multiplicationStroop,2021.2.3,Win32,60.02040694,,,,,left,1,0.4915,0,50,50,70,1,8,8,8 | 8,0,1.9756,1.4111,neutral,left,,,,,,stimulusFile/physical.xlsx,,,,,,,,,,,,,,,,,,,,,,,,,,,,,,,
,,,,,,,,,,,,,,,682,2022-03-06_21h49.14.127,multiplicationStroop,2021.2.3,Win32,60.02040694,,,,,right,1,0.456,0,51,51,17,1,2,7,2 | 7,5,1.4111,1.9756,congruent,right,,,,,,stimulusFile/physical.xlsx,,,,,,,,,,,,,,,,,,,,,,,,,,,,,,,
,,,,,,,,,,,,,,,682,2022-03-06_21h49.14.127,multiplicationStroop,2021.2.3,Win32,60.02040694,,,,,left,1,0.4593,0,52,52,13,1,4,2,4 | 2,2,1.9756,1.4111,congruent,left,,,,,,stimulusFile/physical.xlsx,,,,,,,,,,,,,,,,,,,,,,,,,,,,,,,
,,,,,,,,,,,,,,,682,2022-03-06_21h49.14.127,multiplicationStroop,2021.2.3,Win32,60.02040694,,,,,left,0,0.4864,0,53,53,37,1,4,2,4 | 2,2,1.4111,1.9756,incongruent,right,,,,,,stimulusFile/physical.xlsx,,,,,,,,,,,,,,,,,,,,,,,,,,,,,,,
,,,,,,,,,,,,,,,682,2022-03-06_21h49.14.127,multiplicationStroop,2021.2.3,Win32,60.02040694,,,,,left,1,0.5123,0,54,54,32,1,1,3,1 | 3,2,1.9756,1.4111,incongruent,left,,,,,,stimulusFile/physical.xlsx,,,,,,,,,,,,,,,,,,,,,,,,,,,,,,,
,,,,,,,,,,,,,,,682,2022-03-06_21h49.14.127,multiplicationStroop,2021.2.3,Win32,60.02040694,,,,,left,1,0.5527,0,55,55,23,1,9,4,9 | 4,5,1.9756,1.4111,congruent,left,,,,,,stimulusFile/physical.xlsx,,,,,,,,,,,,,,,,,,,,,,,,,,,,,,,
,,,,,,,,,,,,,,,682,2022-03-06_21h49.14.127,multiplicationStroop,2021.2.3,Win32,60.02040694,,,,,left,1,0.5719,0,56,56,68,1,6,6,6 | 6,0,1.9756,1.4111,neutral,left,,,,,,stimulusFile/physical.xlsx,,,,,,,,,,,,,,,,,,,,,,,,,,,,,,,
,,,,,,,,,,,,,,,682,2022-03-06_21h49.14.127,multiplicationStroop,2021.2.3,Win32,60.02040694,,,,,right,1,0.5344,0,57,57,29,1,4,3,4 | 3,1,1.4111,1.9756,incongruent,right,,,,,,stimulusFile/physical.xlsx,,,,,,,,,,,,,,,,,,,,,,,,,,,,,,,
,,,,,,,,,,,,,,,682,2022-03-06_21h49.14.127,multiplicationStroop,2021.2.3,Win32,60.02040694,,,,,left,1,0.5214,0,58,58,20,1,6,1,6 | 1,5,1.9756,1.4111,congruent,left,,,,,,stimulusFile/physical.xlsx,,,,,,,,,,,,,,,,,,,,,,,,,,,,,,,
,,,,,,,,,,,,,,,682,2022-03-06_21h49.14.127,multiplicationStroop,2021.2.3,Win32,60.02040694,,,,,right,1,0.6344,0,59,59,45,1,7,2,7 | 2,5,1.4111,1.9756,incongruent,right,,,,,,stimulusFile/physical.xlsx,,,,,,,,,,,,,,,,,,,,,,,,,,,,,,,
,,,,,,,,,,,,,,,682,2022-03-06_21h49.14.127,multiplicationStroop,2021.2.3,Win32,60.02040694,,,,,right,1,0.702,0,60,60,57,1,2,2,2 | 2,0,1.4111,1.9756,neutral,right,,,,,,stimulusFile/physical.xlsx,,,,,,,,,,,,,,,,,,,,,,,,,,,,,,,
,,,,,,,,,,,,,,,682,2022-03-06_21h49.14.127,multiplicationStroop,2021.2.3,Win32,60.02040694,,,,,right,1,0.4712,0,61,61,2,1,6,7,6 | 7,1,1.4111,1.9756,congruent,right,,,,,,stimulusFile/physical.xlsx,,,,,,,,,,,,,,,,,,,,,,,,,,,,,,,
,,,,,,,,,,,,,,,682,2022-03-06_21h49.14.127,multiplicationStroop,2021.2.3,Win32,60.02040694,,,,,right,1,0.5513,0,62,62,8,1,1,3,1 | 3,2,1.4111,1.9756,congruent,right,,,,,,stimulusFile/physical.xlsx,,,,,,,,,,,,,,,,,,,,,,,,,,,,,,,
,,,,,,,,,,,,,,,682,2022-03-06_21h49.14.127,multiplicationStroop,2021.2.3,Win32,60.02040694,,,,,left,1,0.6563,0,63,63,51,1,8,8,8 | 8,0,1.9756,1.4111,neutral,left,,,,,,stimulusFile/physical.xlsx,,,,,,,,,,,,,,,,,,,,,,,,,,,,,,,
,,,,,,,,,,,,,,,682,2022-03-06_21h49.14.127,multiplicationStroop,2021.2.3,Win32,60.02040694,,,,,left,1,0.4681,0,64,64,42,1,3,8,3 | 8,5,1.9756,1.4111,incongruent,left,,,,,,stimulusFile/physical.xlsx,,,,,,,,,,,,,,,,,,,,,,,,,,,,,,,
,,,,,,,,,,,,,,,682,2022-03-06_21h49.14.127,multiplicationStroop,2021.2.3,Win32,60.02040694,,,,,right,1,0.4529,0,65,65,1,1,3,4,3 | 4,1,1.4111,1.9756,congruent,right,,,,,,stimulusFile/physical.xlsx,,,,,,,,,,,,,,,,,,,,,,,,,,,,,,,
,,,,,,,,,,,,,,,682,2022-03-06_21h49.14.127,multiplicationStroop,2021.2.3,Win32,60.02040694,,,,,left,1,0.5012,0,66,66,40,1,1,6,1 | 6,5,1.9756,1.4111,incongruent,left,,,,,,stimulusFile/physical.xlsx,,,,,,,,,,,,,,,,,,,,,,,,,,,,,,,
,,,,,,,,,,,,,,,682,2022-03-06_21h49.14.127,multiplicationStroop,2021.2.3,Win32,60.02040694,,,,,right,1,0.5181,0,67,67,30,1,7,6,7 | 6,1,1.4111,1.9756,incongruent,right,,,,,,stimulusFile/physical.xlsx,,,,,,,,,,,,,,,,,,,,,,,,,,,,,,,
,,,,,,,,,,,,,,,682,2022-03-06_21h49.14.127,multiplicationStroop,2021.2.3,Win32,60.02040694,,,,,right,0,0.5191,0,68,68,69,1,7,7,7 | 7,0,1.4111,1.9756,neutral,left,,,,,,stimulusFile/physical.xlsx,,,,,,,,,,,,,,,,,,,,,,,,,,,,,,,
,,,,,,,,,,,,,,,682,2022-03-06_21h49.14.127,multiplicationStroop,2021.2.3,Win32,60.02040694,,,,,left,1,0.5781,0,69,69,54,1,7,7,7 | 7,0,1.9756,1.4111,neutral,left,,,,,,stimulusFile/physical.xlsx,,,,,,,,,,,,,,,,,,,,,,,,,,,,,,,
,,,,,,,,,,,,,,,682,2022-03-06_21h49.14.127,multiplicationStroop,2021.2.3,Win32,60.02040694,,,,,left,1,0.5321,0,70,70,26,1,6,7,6 | 7,1,1.9756,1.4111,incongruent,left,,,,,,stimulusFile/physical.xlsx,,,,,,,,,,,,,,,,,,,,,,,,,,,,,,,
,,,,,,,,,,,,,,,682,2022-03-06_21h49.14.127,multiplicationStroop,2021.2.3,Win32,60.02040694,,,,,right,1,0.4454,0,71,71,9,1,2,4,2 | 4,2,1.4111,1.9756,congruent,right,,,,,,stimulusFile/physical.xlsx,,,,,,,,,,,,,,,,,,,,,,,,,,,,,,,
,,,,,,,,,,,,,,,682,2022-03-06_21h49.14.127,multiplicationStroop,2021.2.3,Win32,60.02040694,,,,,,,,,,,,,,,,,,,,,0,1,1,1,1,stimulusFile/physical.xlsx,PHYSICALLY larger (larger font size).,images/physicallyLarger.png,,,,,,,,,,,,,,,,,,,,,,,,,,,,,
,,,,,,,,,,,,,,,682,2022-03-06_21h49.14.127,multiplicationStroop,2021.2.3,Win32,60.02040694,,,,,,,,,,,,,,,,,,,,,,,,,,,,,space,8.1227,space,2.5355,49,3.6825,1,0,0,0,33,1,7,×,7,7 × 7,neutral,tie,1,2,49,,,,,,,,
,,,,,,,,,,,,,,,682,2022-03-06_21h49.14.127,multiplicationStroop,2021.2.3,Win32,60.02040694,,,,,,,,,,,,,,,,,,,,,,,,,,,,,,,,,16,1.8726,1,0,1,1,19,1,8,×,2,8 × 2,congruent,largerFirst,2,1,16,,,,,,,,
,,,,,,,,,,,,,,,682,2022-03-06_21h49.14.127,multiplicationStroop,2021.2.3,Win32,60.02040694,,,,,,,,,,,,,,,,,,,,,,,,,,,,,,,,,18,1.7817,1,0,2,2,8,1,2,×,9,2 × 9,congruent,smallerFirst,1,2,18,,,,,,,,
,,,,,,,,,,,,,,,682,2022-03-06_21h49.14.127,multiplicationStroop,2021.2.3,Win32,60.02040694,,,,,,,,,,,,,,,,,,,,,,,,,,,,,,,,,72,8.5006,1,0,3,3,3,1,8,×,9,8 × 9,congruent,smallerFirst,1,2,72,,,,,,,,
,,,,,,,,,,,,,,,682,2022-03-06_21h49.14.127,multiplicationStroop,2021.2.3,Win32,60.02040694,,,,,,,,,,,,,,,,,,,,,,,,,,,,,,,,,25,2.4401,1,0,4,4,31,1,5,×,5,5 × 5,neutral,tie,1,2,25,,,,,,,,
,,,,,,,,,,,,,,,682,2022-03-06_21h49.14.127,multiplicationStroop,2021.2.3,Win32,60.02040694,,,,,,,,,,,,,,,,,,,,,,,,,,,,,,,,,36,6.3642,1,0,5,5,32,1,6,×,6,6 × 6,neutral,tie,1,2,36,,,,,,,,
,,,,,,,,,,,,,,,682,2022-03-06_21h49.14.127,multiplicationStroop,2021.2.3,Win32,60.02040694,,,,,,,,,,,,,,,,,,,,,,,,,,,,,,,,,24,2.0905,1,0,6,6,24,1,8,×,3,8 × 3,congruent,largerFirst,2,1,24,,,,,,,,
,,,,,,,,,,,,,,,682,2022-03-06_21h49.14.127,multiplicationStroop,2021.2.3,Win32,60.02040694,,,,,,,,,,,,,,,,,,,,,,,,,,,,,,,,,63,2.7824,1,0,7,7,7,1,7,×,9,7 × 9,congruent,smallerFirst,1,2,63,,,,,,,,
,,,,,,,,,,,,,,,682,2022-03-06_21h49.14.127,multiplicationStroop,2021.2.3,Win32,60.02040694,,,,,,,,,,,,,,,,,,,,,,,,,,,,,,,,,14,1.5989,1,0,8,8,0,1,2,×,7,2 × 7,congruent,smallerFirst,1,2,14,,,,,,,,
,,,,,,,,,,,,,,,682,2022-03-06_21h49.14.127,multiplicationStroop,2021.2.3,Win32,60.02040694,,,,,,,,,,,,,,,,,,,,,,,,,,,,,,,,,27,3.2319,1,0,9,9,12,1,3,×,9,3 × 9,congruent,smallerFirst,1,2,27,,,,,,,,
,,,,,,,,,,,,,,,682,2022-03-06_21h49.14.127,multiplicationStroop,2021.2.3,Win32,60.02040694,,,,,,,,,,,,,,,,,,,,,,,,,,,,,,,,,32,2.3323,1,0,10,10,6,1,4,×,8,4 × 8,congruent,smallerFirst,1,2,32,,,,,,,,
,,,,,,,,,,,,,,,682,2022-03-06_21h49.14.127,multiplicationStroop,2021.2.3,Win32,60.02040694,,,,,,,,,,,,,,,,,,,,,,,,,,,,,,,,,28,3.9062,1,0,11,11,13,1,4,×,7,4 × 7,congruent,smallerFirst,1,2,28,,,,,,,,
,,,,,,,,,,,,,,,682,2022-03-06_21h49.14.127,multiplicationStroop,2021.2.3,Win32,60.02040694,,,,,,,,,,,,,,,,,,,,,,,,,,,,,,,,,54,5.2315,1,0,12,12,26,1,9,×,6,9 × 6,congruent,largerFirst,2,1,54,,,,,,,,
,,,,,,,,,,,,,,,682,2022-03-06_21h49.14.127,multiplicationStroop,2021.2.3,Win32,60.02040694,,,,,,,,,,,,,,,,,,,,,,,,,,,,,,,,,40,2.5403,1,0,13,13,20,1,8,×,5,8 × 5,congruent,largerFirst,2,1,40,,,,,,,,
,,,,,,,,,,,,,,,682,2022-03-06_21h49.14.127,multiplicationStroop,2021.2.3,Win32,60.02040694,,,,,,,,,,,,,,,,,,,,,,,,,,,,,,,,,15,1.9489,1,0,14,14,18,1,5,×,3,5 × 3,congruent,largerFirst,2,1,15,,,,,,,,
,,,,,,,,,,,,,,,682,2022-03-06_21h49.14.127,multiplicationStroop,2021.2.3,Win32,60.02040694,,,,,,,,,,,,,,,,,,,,,,,,,,,,,,,,,56,6.7472,1,0,15,15,22,1,8,×,7,8 × 7,congruent,largerFirst,2,1,56,,,,,,,,
,,,,,,,,,,,,,,,682,2022-03-06_21h49.14.127,multiplicationStroop,2021.2.3,Win32,60.02040694,,,,,,,,,,,,,,,,,,,,,,,,,,,,,,,,,9,1.9236,1,0,16,16,29,1,3,×,3,3 × 3,neutral,tie,1,2,9,,,,,,,,
,,,,,,,,,,,,,,,682,2022-03-06_21h49.14.127,multiplicationStroop,2021.2.3,Win32,60.02040694,,,,,,,,,,,,,,,,,,,,,,,,,,,,,,,,,42,3.4656,0,0,17,17,4,1,6,×,8,6 × 8,congruent,smallerFirst,1,2,48,,,,,,,,
,,,,,,,,,,,,,,,682,2022-03-06_21h49.14.127,multiplicationStroop,2021.2.3,Win32,60.02040694,,,,,,,,,,,,,,,,,,,,,,,,,,,,,,,,,24,2.1656,1,0,18,18,11,1,4,×,6,4 × 6,congruent,smallerFirst,1,2,24,,,,,,,,
,,,,,,,,,,,,,,,682,2022-03-06_21h49.14.127,multiplicationStroop,2021.2.3,Win32,60.02040694,,,,,,,,,,,,,,,,,,,,,,,,,,,,,,,,,8,1.9327,1,0,19,19,23,1,4,×,2,4 × 2,congruent,largerFirst,2,1,8,,,,,,,,
,,,,,,,,,,,,,,,682,2022-03-06_21h49.14.127,multiplicationStroop,2021.2.3,Win32,60.02040694,,,,,,,,,,,,,,,,,,,,,,,,,,,,,,,,,10,1.732,1,0,20,20,10,1,2,×,5,2 × 5,congruent,smallerFirst,1,2,10,,,,,,,,
,,,,,,,,,,,,,,,682,2022-03-06_21h49.14.127,multiplicationStroop,2021.2.3,Win32,60.02040694,,,,,,,,,,,,,,,,,,,,,,,,,,,,,,,,,4,1.6771,1,0,21,21,28,1,2,×,2,2 × 2,neutral,tie,1,2,4,,,,,,,,
,,,,,,,,,,,,,,,682,2022-03-06_21h49.14.127,multiplicationStroop,2021.2.3,Win32,60.02040694,,,,,,,,,,,,,,,,,,,,,,,,,,,,,,,,,81,4.7475,1,0,22,22,35,1,9,×,9,9 × 9,neutral,tie,1,2,81,,,,,,,,
,,,,,,,,,,,,,,,682,2022-03-06_21h49.14.127,multiplicationStroop,2021.2.3,Win32,60.02040694,,,,,,,,,,,,,,,,,,,,,,,,,,,,,,,,,6,2.9523,1,0,23,23,27,1,3,×,2,3 × 2,congruent,largerFirst,2,1,6,,,,,,,,
,,,,,,,,,,,,,,,682,2022-03-06_21h49.14.127,multiplicationStroop,2021.2.3,Win32,60.02040694,,,,,,,,,,,,,,,,,,,,,,,,,,,,,,,,,20,1.8729,1,0,24,24,21,1,5,×,4,5 × 4,congruent,largerFirst,2,1,20,,,,,,,,
,,,,,,,,,,,,,,,682,2022-03-06_21h49.14.127,multiplicationStroop,2021.2.3,Win32,60.02040694,,,,,,,,,,,,,,,,,,,,,,,,,,,,,,,,,21,2.5152,1,0,25,25,2,1,3,×,7,3 × 7,congruent,smallerFirst,1,2,21,,,,,,,,
,,,,,,,,,,,,,,,682,2022-03-06_21h49.14.127,multiplicationStroop,2021.2.3,Win32,60.02040694,,,,,,,,,,,,,,,,,,,,,,,,,,,,,,,,,42,6.1473,1,0,26,26,17,1,7,×,6,7 × 6,congruent,largerFirst,2,1,42,,,,,,,,
,,,,,,,,,,,,,,,682,2022-03-06_21h49.14.127,multiplicationStroop,2021.2.3,Win32,60.02040694,,,,,,,,,,,,,,,,,,,,,,,,,,,,,,,,,36,3.006,1,0,27,27,14,1,9,×,4,9 × 4,congruent,largerFirst,2,1,36,,,,,,,,
,,,,,,,,,,,,,,,682,2022-03-06_21h49.14.127,multiplicationStroop,2021.2.3,Win32,60.02040694,,,,,,,,,,,,,,,,,,,,,,,,,,,,,,,,,30,1.9556,1,0,28,28,1,1,5,×,6,5 × 6,congruent,smallerFirst,1,2,30,,,,,,,,
,,,,,,,,,,,,,,,682,2022-03-06_21h49.14.127,multiplicationStroop,2021.2.3,Win32,60.02040694,,,,,,,,,,,,,,,,,,,,,,,,,,,,,,,,,18,2.9651,1,0,29,29,25,1,6,×,3,6 × 3,congruent,largerFirst,2,1,18,,,,,,,,
,,,,,,,,,,,,,,,682,2022-03-06_21h49.14.127,multiplicationStroop,2021.2.3,Win32,60.02040694,,,,,,,,,,,,,,,,,,,,,,,,,,,,,,,,,45,2.1152,1,0,30,30,9,1,5,×,9,5 × 9,congruent,smallerFirst,1,2,45,,,,,,,,
,,,,,,,,,,,,,,,682,2022-03-06_21h49.14.127,multiplicationStroop,2021.2.3,Win32,60.02040694,,,,,,,,,,,,,,,,,,,,,,,,,,,,,,,,,16,2.7147,1,0,31,31,30,1,4,×,4,4 × 4,neutral,tie,1,2,16,,,,,,,,
,,,,,,,,,,,,,,,682,2022-03-06_21h49.14.127,multiplicationStroop,2021.2.3,Win32,60.02040694,,,,,,,,,,,,,,,,,,,,,,,,,,,,,,,,,64,4.4141,1,0,32,32,34,1,8,×,8,8 × 8,neutral,tie,1,2,64,,,,,,,,
,,,,,,,,,,,,,,,682,2022-03-06_21h49.14.127,multiplicationStroop,2021.2.3,Win32,60.02040694,,,,,,,,,,,,,,,,,,,,,,,,,,,,,,,,,12,3.7059,1,0,33,33,5,1,2,×,6,2 × 6,congruent,smallerFirst,1,2,12,,,,,,,,
,,,,,,,,,,,,,,,682,2022-03-06_21h49.14.127,multiplicationStroop,2021.2.3,Win32,60.02040694,,,,,,,,,,,,,,,,,,,,,,,,,,,,,,,,,35,3.4891,1,0,34,34,15,1,7,×,5,7 × 5,congruent,largerFirst,2,1,35,,,,,,,,
,,,,,,,,,,,,,,,682,2022-03-06_21h49.14.127,multiplicationStroop,2021.2.3,Win32,60.02040694,,,,,,,,,,,,,,,,,,,,,,,,,,,,,,,,,12,2.1484,1,0,35,35,16,1,4,×,3,4 × 3,congruent,largerFirst,2,1,12,,,,,,,,
,,,,,,,,,,,,,,,682,2022-03-06_21h49.14.127,multiplicationStroop,2021.2.3,Win32,60.02040694,,,,,,,,,,,,,,,,,,,,,,,,,,,,,,,,,,,,,,,,,,,,,,,,,,0,0,0,3,1,stimulusFile/mult_blk4_congruent.xlsx,,
,,,,,,,,,,,,,,,682,2022-03-06_21h49.14.127,multiplicationStroop,2021.2.3,Win32,60.02040694,,,,,,,,,,,,,,,,,,,,,,,,,,,,,,,space,57.623,15,2.0275,1,0,0,0,19,1,5,×,3,5 × 3,neutral,largerFirst,1.5,1.5,15,,,,,,,,
,,,,,,,,,,,,,,,682,2022-03-06_21h49.14.127,multiplicationStroop,2021.2.3,Win32,60.02040694,,,,,,,,,,,,,,,,,,,,,,,,,,,,,,,,,4,1.5991,1,0,1,1,28,1,2,×,2,2 × 2,neutral,tie,1.5,1.5,4,,,,,,,,
,,,,,,,,,,,,,,,682,2022-03-06_21h49.14.127,multiplicationStroop,2021.2.3,Win32,60.02040694,,,,,,,,,,,,,,,,,,,,,,,,,,,,,,,,,12,2.049,1,0,2,2,11,1,2,×,6,2 × 6,neutral,smallerFirst,1.5,1.5,12,,,,,,,,
,,,,,,,,,,,,,,,682,2022-03-06_21h49.14.127,multiplicationStroop,2021.2.3,Win32,60.02040694,,,,,,,,,,,,,,,,,,,,,,,,,,,,,,,,,18,1.6156,1,0,3,3,4,1,2,×,9,2 × 9,neutral,smallerFirst,1.5,1.5,18,,,,,,,,
,,,,,,,,,,,,,,,682,2022-03-06_21h49.14.127,multiplicationStroop,2021.2.3,Win32,60.02040694,,,,,,,,,,,,,,,,,,,,,,,,,,,,,,,,,30,2.049,1,0,4,4,5,1,5,×,6,5 × 6,neutral,smallerFirst,1.5,1.5,30,,,,,,,,
,,,,,,,,,,,,,,,682,2022-03-06_21h49.14.127,multiplicationStroop,2021.2.3,Win32,60.02040694,,,,,,,,,,,,,,,,,,,,,,,,,,,,,,,,,24,2.2822,1,0,5,5,8,1,3,×,8,3 × 8,neutral,smallerFirst,1.5,1.5,24,,,,,,,,
,,,,,,,,,,,,,,,682,2022-03-06_21h49.14.127,multiplicationStroop,2021.2.3,Win32,60.02040694,,,,,,,,,,,,,,,,,,,,,,,,,,,,,,,,,32,2.5819,1,0,6,6,9,1,4,×,8,4 × 8,neutral,smallerFirst,1.5,1.5,32,,,,,,,,
,,,,,,,,,,,,,,,682,2022-03-06_21h49.14.127,multiplicationStroop,2021.2.3,Win32,60.02040694,,,,,,,,,,,,,,,,,,,,,,,,,,,,,,,,,24,3.066,1,0,7,7,16,1,6,×,4,6 × 4,neutral,largerFirst,1.5,1.5,24,,,,,,,,
,,,,,,,,,,,,,,,682,2022-03-06_21h49.14.127,multiplicationStroop,2021.2.3,Win32,60.02040694,,,,,,,,,,,,,,,,,,,,,,,,,,,,,,,,,10,1.5883,1,0,8,8,18,1,5,×,2,5 × 2,neutral,largerFirst,1.5,1.5,10,,,,,,,,
,,,,,,,,,,,,,,,682,2022-03-06_21h49.14.127,multiplicationStroop,2021.2.3,Win32,60.02040694,,,,,,,,,,,,,,,,,,,,,,,,,,,,,,,,,63,4.3643,1,0,9,9,26,1,9,×,7,9 × 7,neutral,largerFirst,1.5,1.5,63,,,,,,,,
,,,,,,,,,,,,,,,682,2022-03-06_21h49.14.127,multiplicationStroop,2021.2.3,Win32,60.02040694,,,,,,,,,,,,,,,,,,,,,,,,,,,,,,,,,6,2.1895,1,0,10,10,12,1,2,×,3,2 × 3,neutral,smallerFirst,1.5,1.5,6,,,,,,,,
,,,,,,,,,,,,,,,682,2022-03-06_21h49.14.127,multiplicationStroop,2021.2.3,Win32,60.02040694,,,,,,,,,,,,,,,,,,,,,,,,,,,,,,,,,42,2.4982,1,0,11,11,20,1,7,×,6,7 × 6,neutral,largerFirst,1.5,1.5,42,,,,,,,,
,,,,,,,,,,,,,,,682,2022-03-06_21h49.14.127,multiplicationStroop,2021.2.3,Win32,60.02040694,,,,,,,,,,,,,,,,,,,,,,,,,,,,,,,,,54,2.4315,1,0,12,12,21,1,9,×,6,9 × 6,neutral,largerFirst,1.5,1.5,54,,,,,,,,
,,,,,,,,,,,,,,,682,2022-03-06_21h49.14.127,multiplicationStroop,2021.2.3,Win32,60.02040694,,,,,,,,,,,,,,,,,,,,,,,,,,,,,,,,,8,1.656,1,0,13,13,17,1,4,×,2,4 × 2,neutral,largerFirst,1.5,1.5,8,,,,,,,,
,,,,,,,,,,,,,,,682,2022-03-06_21h49.14.127,multiplicationStroop,2021.2.3,Win32,60.02040694,,,,,,,,,,,,,,,,,,,,,,,,,,,,,,,,,21,3.3481,1,0,14,14,22,1,7,×,3,7 × 3,neutral,largerFirst,1.5,1.5,21,,,,,,,,
,,,,,,,,,,,,,,,682,2022-03-06_21h49.14.127,multiplicationStroop,2021.2.3,Win32,60.02040694,,,,,,,,,,,,,,,,,,,,,,,,,,,,,,,,,14,1.832,1,0,15,15,2,1,2,×,7,2 × 7,neutral,smallerFirst,1.5,1.5,14,,,,,,,,
,,,,,,,,,,,,,,,682,2022-03-06_21h49.14.127,multiplicationStroop,2021.2.3,Win32,60.02040694,,,,,,,,,,,,,,,,,,,,,,,,,,,,,,,,,45,2.1485,1,0,16,16,24,1,9,×,5,9 × 5,neutral,largerFirst,1.5,1.5,45,,,,,,,,
,,,,,,,,,,,,,,,682,2022-03-06_21h49.14.127,multiplicationStroop,2021.2.3,Win32,60.02040694,,,,,,,,,,,,,,,,,,,,,,,,,,,,,,,,,35,1.9983,1,0,17,17,15,1,7,×,5,7 × 5,neutral,largerFirst,1.5,1.5,35,,,,,,,,
,,,,,,,,,,,,,,,682,2022-03-06_21h49.14.127,multiplicationStroop,2021.2.3,Win32,60.02040694,,,,,,,,,,,,,,,,,,,,,,,,,,,,,,,,,36,2.8479,1,0,18,18,32,1,6,×,6,6 × 6,neutral,tie,1.5,1.5,36,,,,,,,,
,,,,,,,,,,,,,,,682,2022-03-06_21h49.14.127,multiplicationStroop,2021.2.3,Win32,60.02040694,,,,,,,,,,,,,,,,,,,,,,,,,,,,,,,,,16,3.2724,1,0,19,19,27,1,8,×,2,8 × 2,neutral,largerFirst,1.5,1.5,16,,,,,,,,
,,,,,,,,,,,,,,,682,2022-03-06_21h49.14.127,multiplicationStroop,2021.2.3,Win32,60.02040694,,,,,,,,,,,,,,,,,,,,,,,,,,,,,,,,,18,2.1478,1,0,20,20,14,1,6,×,3,6 × 3,neutral,largerFirst,1.5,1.5,18,,,,,,,,
,,,,,,,,,,,,,,,682,2022-03-06_21h49.14.127,multiplicationStroop,2021.2.3,Win32,60.02040694,,,,,,,,,,,,,,,,,,,,,,,,,,,,,,,,,56,6.847,1,0,21,21,23,1,8,×,7,8 × 7,neutral,largerFirst,1.5,1.5,56,,,,,,,,
,,,,,,,,,,,,,,,682,2022-03-06_21h49.14.127,multiplicationStroop,2021.2.3,Win32,60.02040694,,,,,,,,,,,,,,,,,,,,,,,,,,,,,,,,,49,9.6362,1,0,22,22,33,1,7,×,7,7 × 7,neutral,tie,1.5,1.5,49,,,,,,,,
,,,,,,,,,,,,,,,682,2022-03-06_21h49.14.127,multiplicationStroop,2021.2.3,Win32,60.02040694,,,,,,,,,,,,,,,,,,,,,,,,,,,,,,,,,48,3.5042,1,0,23,23,1,1,6,×,8,6 × 8,neutral,smallerFirst,1.5,1.5,48,,,,,,,,
,,,,,,,,,,,,,,,682,2022-03-06_21h49.14.127,multiplicationStroop,2021.2.3,Win32,60.02040694,,,,,,,,,,,,,,,,,,,,,,,,,,,,,,,,,72,6.0967,1,0,24,24,25,1,9,×,8,9 × 8,neutral,largerFirst,1.5,1.5,72,,,,,,,,
,,,,,,,,,,,,,,,682,2022-03-06_21h49.14.127,multiplicationStroop,2021.2.3,Win32,60.02040694,,,,,,,,,,,,,,,,,,,,,,,,,,,,,,,,,20,2.3561,1,0,25,25,6,1,4,×,5,4 × 5,neutral,smallerFirst,1.5,1.5,20,,,,,,,,
,,,,,,,,,,,,,,,682,2022-03-06_21h49.14.127,multiplicationStroop,2021.2.3,Win32,60.02040694,,,,,,,,,,,,,,,,,,,,,,,,,,,,,,,,,9,2.3318,1,0,26,26,29,1,3,×,3,3 × 3,neutral,tie,1.5,1.5,9,,,,,,,,
,,,,,,,,,,,,,,,682,2022-03-06_21h49.14.127,multiplicationStroop,2021.2.3,Win32,60.02040694,,,,,,,,,,,,,,,,,,,,,,,,,,,,,,,,,36,3.4889,1,0,27,27,13,1,4,×,9,4 × 9,neutral,smallerFirst,1.5,1.5,36,,,,,,,,
,,,,,,,,,,,,,,,682,2022-03-06_21h49.14.127,multiplicationStroop,2021.2.3,Win32,60.02040694,,,,,,,,,,,,,,,,,,,,,,,,,,,,,,,,,28,2.7971,1,0,28,28,3,1,4,×,7,4 × 7,neutral,smallerFirst,1.5,1.5,28,,,,,,,,
,,,,,,,,,,,,,,,682,2022-03-06_21h49.14.127,multiplicationStroop,2021.2.3,Win32,60.02040694,,,,,,,,,,,,,,,,,,,,,,,,,,,,,,,,,64,6.1712,1,0,29,29,34,1,8,×,8,8 × 8,neutral,tie,1.5,1.5,64,,,,,,,,
,,,,,,,,,,,,,,,682,2022-03-06_21h49.14.127,multiplicationStroop,2021.2.3,Win32,60.02040694,,,,,,,,,,,,,,,,,,,,,,,,,,,,,,,,,16,2.6894,1,0,30,30,30,1,4,×,4,4 × 4,neutral,tie,1.5,1.5,16,,,,,,,,
,,,,,,,,,,,,,,,682,2022-03-06_21h49.14.127,multiplicationStroop,2021.2.3,Win32,60.02040694,,,,,,,,,,,,,,,,,,,,,,,,,,,,,,,,,12,1.6818,1,0,31,31,7,1,3,×,4,3 × 4,neutral,smallerFirst,1.5,1.5,12,,,,,,,,
,,,,,,,,,,,,,,,682,2022-03-06_21h49.14.127,multiplicationStroop,2021.2.3,Win32,60.02040694,,,,,,,,,,,,,,,,,,,,,,,,,,,,,,,,,40,2.5814,1,0,32,32,10,1,5,×,8,5 × 8,neutral,smallerFirst,1.5,1.5,40,,,,,,,,
,,,,,,,,,,,,,,,682,2022-03-06_21h49.14.127,multiplicationStroop,2021.2.3,Win32,60.02040694,,,,,,,,,,,,,,,,,,,,,,,,,,,,,,,,,81,2.6981,1,0,33,33,35,1,9,×,9,9 × 9,neutral,tie,1.5,1.5,81,,,,,,,,
,,,,,,,,,,,,,,,682,2022-03-06_21h49.14.127,multiplicationStroop,2021.2.3,Win32,60.02040694,,,,,,,,,,,,,,,,,,,,,,,,,,,,,,,,,27,3.1556,1,0,34,34,0,1,3,×,9,3 × 9,neutral,smallerFirst,1.5,1.5,27,,,,,,,,
,,,,,,,,,,,,,,,682,2022-03-06_21h49.14.127,multiplicationStroop,2021.2.3,Win32,60.02040694,,,,,,,,,,,,,,,,,,,,,,,,,,,,,,,,,25,3.0648,1,0,35,35,31,1,5,×,5,5 × 5,neutral,tie,1.5,1.5,25,,,,,,,,
,,,,,,,,,,,,,,,682,2022-03-06_21h49.14.127,multiplicationStroop,2021.2.3,Win32,60.02040694,,,,,,,,,,,,,,,,,,,,,,,,,,,,,,,,,,,,,,,,,,,,,,,,,,0,1,1,0,1,stimulusFile/mult_blk1.xlsx,,
,,,,,,,,,,,,,,,682,2022-03-06_21h49.14.127,multiplicationStroop,2021.2.3,Win32,60.02040694,,,,,,,,,,,,,,,,,,,,,,,,,,,,,,,space,119.7206,45,2.4499,1,0,0,0,23,1,9,×,5,9 × 5,congruent,largerFirst,2,1,45,,,,,,,,
,,,,,,,,,,,,,,,682,2022-03-06_21h49.14.127,multiplicationStroop,2021.2.3,Win32,60.02040694,,,,,,,,,,,,,,,,,,,,,,,,,,,,,,,,,16,3.8147,1,0,1,1,5,1,2,×,8,2 × 8,congruent,smallerFirst,1,2,16,,,,,,,,
,,,,,,,,,,,,,,,682,2022-03-06_21h49.14.127,multiplicationStroop,2021.2.3,Win32,60.02040694,,,,,,,,,,,,,,,,,,,,,,,,,,,,,,,,,10,1.6562,1,0,2,2,24,1,5,×,2,5 × 2,congruent,largerFirst,2,1,10,,,,,,,,
,,,,,,,,,,,,,,,682,2022-03-06_21h49.14.127,multiplicationStroop,2021.2.3,Win32,60.02040694,,,,,,,,,,,,,,,,,,,,,,,,,,,,,,,,,40,2.3157,1,0,3,3,6,1,5,×,8,5 × 8,congruent,smallerFirst,1,2,40,,,,,,,,
,,,,,,,,,,,,,,,682,2022-03-06_21h49.14.127,multiplicationStroop,2021.2.3,Win32,60.02040694,,,,,,,,,,,,,,,,,,,,,,,,,,,,,,,,,12,1.6395,1,0,4,4,19,1,6,×,2,6 × 2,congruent,largerFirst,2,1,12,,,,,,,,
,,,,,,,,,,,,,,,682,2022-03-06_21h49.14.127,multiplicationStroop,2021.2.3,Win32,60.02040694,,,,,,,,,,,,,,,,,,,,,,,,,,,,,,,,,56,3.6317,1,0,5,5,8,1,7,×,8,7 × 8,congruent,smallerFirst,1,2,56,,,,,,,,
,,,,,,,,,,,,,,,682,2022-03-06_21h49.14.127,multiplicationStroop,2021.2.3,Win32,60.02040694,,,,,,,,,,,,,,,,,,,,,,,,,,,,,,,,,6,2.4066,1,0,6,6,13,1,2,×,3,2 × 3,congruent,smallerFirst,1,2,6,,,,,,,,
,,,,,,,,,,,,,,,682,2022-03-06_21h49.14.127,multiplicationStroop,2021.2.3,Win32,60.02040694,,,,,,,,,,,,,,,,,,,,,,,,,,,,,,,,,49,1.7823,1,0,7,7,33,1,7,×,7,7 × 7,neutral,tie,2,1,49,,,,,,,,
,,,,,,,,,,,,,,,682,2022-03-06_21h49.14.127,multiplicationStroop,2021.2.3,Win32,60.02040694,,,,,,,,,,,,,,,,,,,,,,,,,,,,,,,,,27,2.1155,1,0,8,8,26,1,9,×,3,9 × 3,congruent,largerFirst,2,1,27,,,,,,,,
,,,,,,,,,,,,,,,682,2022-03-06_21h49.14.127,multiplicationStroop,2021.2.3,Win32,60.02040694,,,,,,,,,,,,,,,,,,,,,,,,,,,,,,,,,16,2.0991,1,0,9,9,30,1,4,×,4,4 × 4,neutral,tie,2,1,16,,,,,,,,
,,,,,,,,,,,,,,,682,2022-03-06_21h49.14.127,multiplicationStroop,2021.2.3,Win32,60.02040694,,,,,,,,,,,,,,,,,,,,,,,,,,,,,,,,,36,6.4808,1,0,10,10,0,1,4,×,9,4 × 9,congruent,smallerFirst,1,2,36,,,,,,,,
,,,,,,,,,,,,,,,682,2022-03-06_21h49.14.127,multiplicationStroop,2021.2.3,Win32,60.02040694,,,,,,,,,,,,,,,,,,,,,,,,,,,,,,,,,36,3.7872,1,0,11,11,32,1,6,×,6,6 × 6,neutral,tie,2,1,36,,,,,,,,
,,,,,,,,,,,,,,,682,2022-03-06_21h49.14.127,multiplicationStroop,2021.2.3,Win32,60.02040694,,,,,,,,,,,,,,,,,,,,,,,,,,,,,,,,,81,1.7561,1,0,12,12,35,1,9,×,9,9 × 9,neutral,tie,2,1,81,,,,,,,,
,,,,,,,,,,,,,,,682,2022-03-06_21h49.14.127,multiplicationStroop,2021.2.3,Win32,60.02040694,,,,,,,,,,,,,,,,,,,,,,,,,,,,,,,,,72,3.7816,0,0,13,13,34,1,8,×,8,8 × 8,neutral,tie,2,1,64,,,,,,,,
,,,,,,,,,,,,,,,682,2022-03-06_21h49.14.127,multiplicationStroop,2021.2.3,Win32,60.02040694,,,,,,,,,,,,,,,,,,,,,,,,,,,,,,,,,18,4.5384,1,0,14,14,11,1,3,×,6,3 × 6,congruent,smallerFirst,1,2,18,,,,,,,,
,,,,,,,,,,,,,,,682,2022-03-06_21h49.14.127,multiplicationStroop,2021.2.3,Win32,60.02040694,,,,,,,,,,,,,,,,,,,,,,,,,,,,,,,,,30,2.5896,1,0,15,15,15,1,6,×,5,6 × 5,congruent,largerFirst,2,1,30,,,,,,,,
,,,,,,,,,,,,,,,682,2022-03-06_21h49.14.127,multiplicationStroop,2021.2.3,Win32,60.02040694,,,,,,,,,,,,,,,,,,,,,,,,,,,,,,,,,32,4.3811,1,0,16,16,20,1,8,×,4,8 × 4,congruent,largerFirst,2,1,32,,,,,,,,
,,,,,,,,,,,,,,,682,2022-03-06_21h49.14.127,multiplicationStroop,2021.2.3,Win32,60.02040694,,,,,,,,,,,,,,,,,,,,,,,,,,,,,,,,,35,3.2724,1,0,17,17,1,1,5,×,7,5 × 7,congruent,smallerFirst,1,2,35,,,,,,,,
,,,,,,,,,,,,,,,682,2022-03-06_21h49.14.127,multiplicationStroop,2021.2.3,Win32,60.02040694,,,,,,,,,,,,,,,,,,,,,,,,,,,,,,,,,24,2.5229,1,0,18,18,25,1,6,×,4,6 × 4,congruent,largerFirst,2,1,24,,,,,,,,
,,,,,,,,,,,,,,,682,2022-03-06_21h49.14.127,multiplicationStroop,2021.2.3,Win32,60.02040694,,,,,,,,,,,,,,,,,,,,,,,,,,,,,,,,,4,1.6819,1,0,19,19,28,1,2,×,2,2 × 2,neutral,tie,2,1,4,,,,,,,,
,,,,,,,,,,,,,,,682,2022-03-06_21h49.14.127,multiplicationStroop,2021.2.3,Win32,60.02040694,,,,,,,,,,,,,,,,,,,,,,,,,,,,,,,,,63,3.1649,0,0,20,20,12,1,6,×,9,6 × 9,congruent,smallerFirst,1,2,54,,,,,,,,
,,,,,,,,,,,,,,,682,2022-03-06_21h49.14.127,multiplicationStroop,2021.2.3,Win32,60.02040694,,,,,,,,,,,,,,,,,,,,,,,,,,,,,,,,,72,4.6983,1,0,21,21,17,1,9,×,8,9 × 8,congruent,largerFirst,2,1,72,,,,,,,,
,,,,,,,,,,,,,,,682,2022-03-06_21h49.14.127,multiplicationStroop,2021.2.3,Win32,60.02040694,,,,,,,,,,,,,,,,,,,,,,,,,,,,,,,,,9,2.656,1,0,22,22,29,1,3,×,3,3 × 3,neutral,tie,2,1,9,,,,,,,,
,,,,,,,,,,,,,,,682,2022-03-06_21h49.14.127,multiplicationStroop,2021.2.3,Win32,60.02040694,,,,,,,,,,,,,,,,,,,,,,,,,,,,,,,,,12,4.0981,1,0,23,23,2,1,3,×,4,3 × 4,congruent,smallerFirst,1,2,12,,,,,,,,
,,,,,,,,,,,,,,,682,2022-03-06_21h49.14.127,multiplicationStroop,2021.2.3,Win32,60.02040694,,,,,,,,,,,,,,,,,,,,,,,,,,,,,,,,,25,2.6558,1,0,24,24,31,1,5,×,5,5 × 5,neutral,tie,2,1,25,,,,,,,,
,,,,,,,,,,,,,,,682,2022-03-06_21h49.14.127,multiplicationStroop,2021.2.3,Win32,60.02040694,,,,,,,,,,,,,,,,,,,,,,,,,,,,,,,,,28,8.3873,1,0,25,25,27,1,7,×,4,7 × 4,congruent,largerFirst,2,1,28,,,,,,,,
,,,,,,,,,,,,,,,682,2022-03-06_21h49.14.127,multiplicationStroop,2021.2.3,Win32,60.02040694,,,,,,,,,,,,,,,,,,,,,,,,,,,,,,,,,20,2.5218,1,0,26,26,7,1,4,×,5,4 × 5,congruent,smallerFirst,1,2,20,,,,,,,,
,,,,,,,,,,,,,,,682,2022-03-06_21h49.14.127,multiplicationStroop,2021.2.3,Win32,60.02040694,,,,,,,,,,,,,,,,,,,,,,,,,,,,,,,,,8,4.881,1,0,27,27,9,1,2,×,4,2 × 4,congruent,smallerFirst,1,2,8,,,,,,,,
,,,,,,,,,,,,,,,682,2022-03-06_21h49.14.127,multiplicationStroop,2021.2.3,Win32,60.02040694,,,,,,,,,,,,,,,,,,,,,,,,,,,,,,,,,24,2.6061,1,0,28,28,10,1,3,×,8,3 × 8,congruent,smallerFirst,1,2,24,,,,,,,,
,,,,,,,,,,,,,,,682,2022-03-06_21h49.14.127,multiplicationStroop,2021.2.3,Win32,60.02040694,,,,,,,,,,,,,,,,,,,,,,,,,,,,,,,,,48,2.6728,1,0,29,29,18,1,8,×,6,8 × 6,congruent,largerFirst,2,1,48,,,,,,,,
,,,,,,,,,,,,,,,682,2022-03-06_21h49.14.127,multiplicationStroop,2021.2.3,Win32,60.02040694,,,,,,,,,,,,,,,,,,,,,,,,,,,,,,,,,42,2.2647,1,0,30,30,3,1,6,×,7,6 × 7,congruent,smallerFirst,1,2,42,,,,,,,,
,,,,,,,,,,,,,,,682,2022-03-06_21h49.14.127,multiplicationStroop,2021.2.3,Win32,60.02040694,,,,,,,,,,,,,,,,,,,,,,,,,,,,,,,,,18,1.9986,1,0,31,31,22,1,9,×,2,9 × 2,congruent,largerFirst,2,1,18,,,,,,,,
,,,,,,,,,,,,,,,682,2022-03-06_21h49.14.127,multiplicationStroop,2021.2.3,Win32,60.02040694,,,,,,,,,,,,,,,,,,,,,,,,,,,,,,,,,14,2.1817,1,0,32,32,14,1,7,×,2,7 × 2,congruent,largerFirst,2,1,14,,,,,,,,
,,,,,,,,,,,,,,,682,2022-03-06_21h49.14.127,multiplicationStroop,2021.2.3,Win32,60.02040694,,,,,,,,,,,,,,,,,,,,,,,,,,,,,,,,,15,1.6815,1,0,33,33,4,1,3,×,5,3 × 5,congruent,smallerFirst,1,2,15,,,,,,,,
,,,,,,,,,,,,,,,682,2022-03-06_21h49.14.127,multiplicationStroop,2021.2.3,Win32,60.02040694,,,,,,,,,,,,,,,,,,,,,,,,,,,,,,,,,63,11.229,1,0,34,34,21,1,9,×,7,9 × 7,congruent,largerFirst,2,1,63,,,,,,,,
,,,,,,,,,,,,,,,682,2022-03-06_21h49.14.127,multiplicationStroop,2021.2.3,Win32,60.02040694,,,,,,,,,,,,,,,,,,,,,,,,,,,,,,,,,15,2.4213,0,0,35,35,16,1,7,×,3,7 × 3,congruent,largerFirst,2,1,21,,,,,,,,
,,,,,,,,,,,,,,,682,2022-03-06_21h49.14.127,multiplicationStroop,2021.2.3,Win32,60.02040694,,,,,,,,,,,,,,,,,,,,,,,,,,,,,,,,,,,,,,,,,,,,,,,,,,0,2,2,2,1,stimulusFile/mult_blk3_congruent.xlsx,,
,,,,,,,,,,,,,,,682,2022-03-06_21h49.14.127,multiplicationStroop,2021.2.3,Win32,60.02040694,,,,,,,,,,,,,,,,,,,,,,,,,,,,,,,space,0.918,16,1.9839,1,0,0,0,13,1,2,×,8,2 × 8,neutral,smallerFirst,1.5,1.5,16,,,,,,,,
,,,,,,,,,,,,,,,682,2022-03-06_21h49.14.127,multiplicationStroop,2021.2.3,Win32,60.02040694,,,,,,,,,,,,,,,,,,,,,,,,,,,,,,,,,21,2.6152,1,0,1,1,8,1,3,×,7,3 × 7,neutral,smallerFirst,1.5,1.5,21,,,,,,,,
,,,,,,,,,,,,,,,682,2022-03-06_21h49.14.127,multiplicationStroop,2021.2.3,Win32,60.02040694,,,,,,,,,,,,,,,,,,,,,,,,,,,,,,,,,24,2.5988,1,0,2,2,2,1,4,×,6,4 × 6,neutral,smallerFirst,1.5,1.5,24,,,,,,,,
,,,,,,,,,,,,,,,682,2022-03-06_21h49.14.127,multiplicationStroop,2021.2.3,Win32,60.02040694,,,,,,,,,,,,,,,,,,,,,,,,,,,,,,,,,81,1.7234,1,0,3,3,35,1,9,×,9,9 × 9,neutral,tie,1.5,1.5,81,,,,,,,,
,,,,,,,,,,,,,,,682,2022-03-06_21h49.14.127,multiplicationStroop,2021.2.3,Win32,60.02040694,,,,,,,,,,,,,,,,,,,,,,,,,,,,,,,,,8,2.3323,1,0,4,4,3,1,2,×,4,2 × 4,neutral,smallerFirst,1.5,1.5,8,,,,,,,,
,,,,,,,,,,,,,,,682,2022-03-06_21h49.14.127,multiplicationStroop,2021.2.3,Win32,60.02040694,,,,,,,,,,,,,,,,,,,,,,,,,,,,,,,,,36,2.6322,1,0,5,5,27,1,9,×,4,9 × 4,neutral,largerFirst,1.5,1.5,36,,,,,,,,
,,,,,,,,,,,,,,,682,2022-03-06_21h49.14.127,multiplicationStroop,2021.2.3,Win32,60.02040694,,,,,,,,,,,,,,,,,,,,,,,,,,,,,,,,,18,1.7323,1,0,6,6,18,1,9,×,2,9 × 2,neutral,largerFirst,1.5,1.5,18,,,,,,,,
,,,,,,,,,,,,,,,682,2022-03-06_21h49.14.127,multiplicationStroop,2021.2.3,Win32,60.02040694,,,,,,,,,,,,,,,,,,,,,,,,,,,,,,,,,72,2.6488,1,0,7,7,11,1,8,×,9,8 × 9,neutral,smallerFirst,1.5,1.5,72,,,,,,,,
,,,,,,,,,,,,,,,682,2022-03-06_21h49.14.127,multiplicationStroop,2021.2.3,Win32,60.02040694,,,,,,,,,,,,,,,,,,,,,,,,,,,,,,,,,48,2.6987,1,0,8,8,15,1,8,×,6,8 × 6,neutral,largerFirst,1.5,1.5,48,,,,,,,,
,,,,,,,,,,,,,,,682,2022-03-06_21h49.14.127,multiplicationStroop,2021.2.3,Win32,60.02040694,,,,,,,,,,,,,,,,,,,,,,,,,,,,,,,,,42,5.0219,1,0,9,9,6,1,6,×,7,6 × 7,neutral,smallerFirst,1.5,1.5,42,,,,,,,,
,,,,,,,,,,,,,,,682,2022-03-06_21h49.14.127,multiplicationStroop,2021.2.3,Win32,60.02040694,,,,,,,,,,,,,,,,,,,,,,,,,,,,,,,,,30,1.7897,1,0,10,10,19,1,6,×,5,6 × 5,neutral,largerFirst,1.5,1.5,30,,,,,,,,
,,,,,,,,,,,,,,,682,2022-03-06_21h49.14.127,multiplicationStroop,2021.2.3,Win32,60.02040694,,,,,,,,,,,,,,,,,,,,,,,,,,,,,,,,,18,1.7657,1,0,11,11,0,1,3,×,6,3 × 6,neutral,smallerFirst,1.5,1.5,18,,,,,,,,
,,,,,,,,,,,,,,,682,2022-03-06_21h49.14.127,multiplicationStroop,2021.2.3,Win32,60.02040694,,,,,,,,,,,,,,,,,,,,,,,,,,,,,,,,,63,3.1483,1,0,12,12,12,1,7,×,9,7 × 9,neutral,smallerFirst,1.5,1.5,63,,,,,,,,
,,,,,,,,,,,,,,,682,2022-03-06_21h49.14.127,multiplicationStroop,2021.2.3,Win32,60.02040694,,,,,,,,,,,,,,,,,,,,,,,,,,,,,,,,,12,1.8227,1,0,13,13,25,1,6,×,2,6 × 2,neutral,largerFirst,1.5,1.5,12,,,,,,,,
,,,,,,,,,,,,,,,682,2022-03-06_21h49.14.127,multiplicationStroop,2021.2.3,Win32,60.02040694,,,,,,,,,,,,,,,,,,,,,,,,,,,,,,,,,2,2.3152,0,0,14,14,31,1,5,×,5,5 × 5,neutral,tie,1.5,1.5,25,,,,,,,,
,,,,,,,,,,,,,,,682,2022-03-06_21h49.14.127,multiplicationStroop,2021.2.3,Win32,60.02040694,,,,,,,,,,,,,,,,,,,,,,,,,,,,,,,,,32,3.3057,1,0,15,15,23,1,8,×,4,8 × 4,neutral,largerFirst,1.5,1.5,32,,,,,,,,
,,,,,,,,,,,,,,,682,2022-03-06_21h49.14.127,multiplicationStroop,2021.2.3,Win32,60.02040694,,,,,,,,,,,,,,,,,,,,,,,,,,,,,,,,,35,2.2815,1,0,16,16,1,1,5,×,7,5 × 7,neutral,smallerFirst,1.5,1.5,35,,,,,,,,
,,,,,,,,,,,,,,,682,2022-03-06_21h49.14.127,multiplicationStroop,2021.2.3,Win32,60.02040694,,,,,,,,,,,,,,,,,,,,,,,,,,,,,,,,,15,2.2292,1,0,17,17,5,1,3,×,5,3 × 5,neutral,smallerFirst,1.5,1.5,15,,,,,,,,
,,,,,,,,,,,,,,,682,2022-03-06_21h49.14.127,multiplicationStroop,2021.2.3,Win32,60.02040694,,,,,,,,,,,,,,,,,,,,,,,,,,,,,,,,,40,2.1226,1,0,18,18,24,1,8,×,5,8 × 5,neutral,largerFirst,1.5,1.5,40,,,,,,,,
,,,,,,,,,,,,,,,682,2022-03-06_21h49.14.127,multiplicationStroop,2021.2.3,Win32,60.02040694,,,,,,,,,,,,,,,,,,,,,,,,,,,,,,,,,45,2.115,1,0,19,19,10,1,5,×,9,5 × 9,neutral,smallerFirst,1.5,1.5,45,,,,,,,,
,,,,,,,,,,,,,,,682,2022-03-06_21h49.14.127,multiplicationStroop,2021.2.3,Win32,60.02040694,,,,,,,,,,,,,,,,,,,,,,,,,,,,,,,,,49,2.2821,1,0,20,20,33,1,7,×,7,7 × 7,neutral,tie,1.5,1.5,49,,,,,,,,
,,,,,,,,,,,,,,,682,2022-03-06_21h49.14.127,multiplicationStroop,2021.2.3,Win32,60.02040694,,,,,,,,,,,,,,,,,,,,,,,,,,,,,,,,,14,1.4482,1,0,21,21,16,1,7,×,2,7 × 2,neutral,largerFirst,1.5,1.5,14,,,,,,,,
,,,,,,,,,,,,,,,682,2022-03-06_21h49.14.127,multiplicationStroop,2021.2.3,Win32,60.02040694,,,,,,,,,,,,,,,,,,,,,,,,,,,,,,,,,20,1.6148,1,0,22,22,20,1,5,×,4,5 × 4,neutral,largerFirst,1.5,1.5,20,,,,,,,,
,,,,,,,,,,,,,,,682,2022-03-06_21h49.14.127,multiplicationStroop,2021.2.3,Win32,60.02040694,,,,,,,,,,,,,,,,,,,,,,,,,,,,,,,,,6,2.1982,1,0,23,23,26,1,3,×,2,3 × 2,neutral,largerFirst,1.5,1.5,6,,,,,,,,
,,,,,,,,,,,,,,,682,2022-03-06_21h49.14.127,multiplicationStroop,2021.2.3,Win32,60.02040694,,,,,,,,,,,,,,,,,,,,,,,,,,,,,,,,,12,1.5987,1,0,24,24,21,1,4,×,3,4 × 3,neutral,largerFirst,1.5,1.5,12,,,,,,,,
,,,,,,,,,,,,,,,682,2022-03-06_21h49.14.127,multiplicationStroop,2021.2.3,Win32,60.02040694,,,,,,,,,,,,,,,,,,,,,,,,,,,,,,,,,4,1.4482,1,0,25,25,28,1,2,×,2,2 × 2,neutral,tie,1.5,1.5,4,,,,,,,,
,,,,,,,,,,,,,,,682,2022-03-06_21h49.14.127,multiplicationStroop,2021.2.3,Win32,60.02040694,,,,,,,,,,,,,,,,,,,,,,,,,,,,,,,,,24,2.7819,1,0,26,26,22,1,8,×,3,8 × 3,neutral,largerFirst,1.5,1.5,24,,,,,,,,
,,,,,,,,,,,,,,,682,2022-03-06_21h49.14.127,multiplicationStroop,2021.2.3,Win32,60.02040694,,,,,,,,,,,,,,,,,,,,,,,,,,,,,,,,,56,4.4308,1,0,27,27,9,1,7,×,8,7 × 8,neutral,smallerFirst,1.5,1.5,56,,,,,,,,
,,,,,,,,,,,,,,,682,2022-03-06_21h49.14.127,multiplicationStroop,2021.2.3,Win32,60.02040694,,,,,,,,,,,,,,,,,,,,,,,,,,,,,,,,,10,1.606,1,0,28,28,4,1,2,×,5,2 × 5,neutral,smallerFirst,1.5,1.5,10,,,,,,,,
,,,,,,,,,,,,,,,682,2022-03-06_21h49.14.127,multiplicationStroop,2021.2.3,Win32,60.02040694,,,,,,,,,,,,,,,,,,,,,,,,,,,,,,,,,54,4.8812,1,0,29,29,7,1,6,×,9,6 × 9,neutral,smallerFirst,1.5,1.5,54,,,,,,,,
,,,,,,,,,,,,,,,682,2022-03-06_21h49.14.127,multiplicationStroop,2021.2.3,Win32,60.02040694,,,,,,,,,,,,,,,,,,,,,,,,,,,,,,,,,64,3.4721,1,0,30,30,34,1,8,×,8,8 × 8,neutral,tie,1.5,1.5,64,,,,,,,,
,,,,,,,,,,,,,,,682,2022-03-06_21h49.14.127,multiplicationStroop,2021.2.3,Win32,60.02040694,,,,,,,,,,,,,,,,,,,,,,,,,,,,,,,,,28,2.7562,1,0,31,31,17,1,7,×,4,7 × 4,neutral,largerFirst,1.5,1.5,28,,,,,,,,
,,,,,,,,,,,,,,,682,2022-03-06_21h49.14.127,multiplicationStroop,2021.2.3,Win32,60.02040694,,,,,,,,,,,,,,,,,,,,,,,,,,,,,,,,,16,2.9645,1,0,32,32,30,1,4,×,4,4 × 4,neutral,tie,1.5,1.5,16,,,,,,,,
,,,,,,,,,,,,,,,682,2022-03-06_21h49.14.127,multiplicationStroop,2021.2.3,Win32,60.02040694,,,,,,,,,,,,,,,,,,,,,,,,,,,,,,,,,9,3.5316,1,0,33,33,29,1,3,×,3,3 × 3,neutral,tie,1.5,1.5,9,,,,,,,,
,,,,,,,,,,,,,,,682,2022-03-06_21h49.14.127,multiplicationStroop,2021.2.3,Win32,60.02040694,,,,,,,,,,,,,,,,,,,,,,,,,,,,,,,,,27,4.2133,1,0,34,34,14,1,9,×,3,9 × 3,neutral,largerFirst,1.5,1.5,27,,,,,,,,
,,,,,,,,,,,,,,,682,2022-03-06_21h49.14.127,multiplicationStroop,2021.2.3,Win32,60.02040694,,,,,,,,,,,,,,,,,,,,,,,,,,,,,,,,,36,2.1377,1,0,35,35,32,1,6,×,6,6 × 6,neutral,tie,1.5,1.5,36,,,,,,,,
,,,,,,,,,,,,,,,682,2022-03-06_21h49.14.127,multiplicationStroop,2021.2.3,Win32,60.02040694,,,,,,,,,,,,,,,,,,,,,,,,,,,,,,,,,,,,,,,,,,,,,,,,,,0,3,3,1,1,stimulusFile/mult_blk2.xlsx,,
,,,,,,,,,,,,,,,682,2022-03-06_21h49.14.127,multiplicationStroop,2021.2.3,Win32,60.02040694,,,,,,,,,,,,,,,,,,,,,,,,,,,,,,,space,0.9342,64,4.8257,1,0,0,0,34,1,8,×,8,8 × 8,incongruent,tie,1,2,64,,,,,,,,
,,,,,,,,,,,,,,,682,2022-03-06_21h49.14.127,multiplicationStroop,2021.2.3,Win32,60.02040694,,,,,,,,,,,,,,,,,,,,,,,,,,,,,,,,,36,2.9747,1,0,1,1,15,1,9,×,4,9 × 4,incongruent,largerFirst,1,2,36,,,,,,,,
,,,,,,,,,,,,,,,682,2022-03-06_21h49.14.127,multiplicationStroop,2021.2.3,Win32,60.02040694,,,,,,,,,,,,,,,,,,,,,,,,,,,,,,,,,16,2.0898,1,0,2,2,30,1,4,×,4,4 × 4,incongruent,tie,1,2,16,,,,,,,,
,,,,,,,,,,,,,,,682,2022-03-06_21h49.14.127,multiplicationStroop,2021.2.3,Win32,60.02040694,,,,,,,,,,,,,,,,,,,,,,,,,,,,,,,,,20,1.8333,1,0,3,3,27,1,5,×,4,5 × 4,incongruent,largerFirst,1,2,20,,,,,,,,
,,,,,,,,,,,,,,,682,2022-03-06_21h49.14.127,multiplicationStroop,2021.2.3,Win32,60.02040694,,,,,,,,,,,,,,,,,,,,,,,,,,,,,,,,,18,1.8983,1,0,4,4,2,1,2,×,9,2 × 9,incongruent,smallerFirst,2,1,18,,,,,,,,
,,,,,,,,,,,,,,,682,2022-03-06_21h49.14.127,multiplicationStroop,2021.2.3,Win32,60.02040694,,,,,,,,,,,,,,,,,,,,,,,,,,,,,,,,,28,4.0648,1,0,5,5,16,1,7,×,4,7 × 4,incongruent,largerFirst,1,2,28,,,,,,,,
,,,,,,,,,,,,,,,682,2022-03-06_21h49.14.127,multiplicationStroop,2021.2.3,Win32,60.02040694,,,,,,,,,,,,,,,,,,,,,,,,,,,,,,,,,16,2.424,1,0,6,6,23,1,8,×,2,8 × 2,incongruent,largerFirst,1,2,16,,,,,,,,
,,,,,,,,,,,,,,,682,2022-03-06_21h49.14.127,multiplicationStroop,2021.2.3,Win32,60.02040694,,,,,,,,,,,,,,,,,,,,,,,,,,,,,,,,,30,2.1737,1,0,7,7,25,1,6,×,5,6 × 5,incongruent,largerFirst,1,2,30,,,,,,,,
,,,,,,,,,,,,,,,682,2022-03-06_21h49.14.127,multiplicationStroop,2021.2.3,Win32,60.02040694,,,,,,,,,,,,,,,,,,,,,,,,,,,,,,,,,12,2.1819,1,0,8,8,19,1,6,×,2,6 × 2,incongruent,largerFirst,1,2,12,,,,,,,,
,,,,,,,,,,,,,,,682,2022-03-06_21h49.14.127,multiplicationStroop,2021.2.3,Win32,60.02040694,,,,,,,,,,,,,,,,,,,,,,,,,,,,,,,,,49,1.8322,1,0,9,9,33,1,7,×,7,7 × 7,incongruent,tie,1,2,49,,,,,,,,
,,,,,,,,,,,,,,,682,2022-03-06_21h49.14.127,multiplicationStroop,2021.2.3,Win32,60.02040694,,,,,,,,,,,,,,,,,,,,,,,,,,,,,,,,,45,2.0489,1,0,10,10,22,1,9,×,5,9 × 5,incongruent,largerFirst,1,2,45,,,,,,,,
,,,,,,,,,,,,,,,682,2022-03-06_21h49.14.127,multiplicationStroop,2021.2.3,Win32,60.02040694,,,,,,,,,,,,,,,,,,,,,,,,,,,,,,,,,24,2.3161,1,0,11,11,9,1,3,×,8,3 × 8,incongruent,smallerFirst,2,1,24,,,,,,,,
,,,,,,,,,,,,,,,682,2022-03-06_21h49.14.127,multiplicationStroop,2021.2.3,Win32,60.02040694,,,,,,,,,,,,,,,,,,,,,,,,,,,,,,,,,8,1.8987,1,0,12,12,24,1,4,×,2,4 × 2,incongruent,largerFirst,1,2,8,,,,,,,,
,,,,,,,,,,,,,,,682,2022-03-06_21h49.14.127,multiplicationStroop,2021.2.3,Win32,60.02040694,,,,,,,,,,,,,,,,,,,,,,,,,,,,,,,,,25,1.7156,1,0,13,13,31,1,5,×,5,5 × 5,incongruent,tie,1,2,25,,,,,,,,
,,,,,,,,,,,,,,,682,2022-03-06_21h49.14.127,multiplicationStroop,2021.2.3,Win32,60.02040694,,,,,,,,,,,,,,,,,,,,,,,,,,,,,,,,,54,5.0147,0,0,14,14,14,1,8,×,7,8 × 7,incongruent,largerFirst,1,2,56,,,,,,,,
,,,,,,,,,,,,,,,682,2022-03-06_21h49.14.127,multiplicationStroop,2021.2.3,Win32,60.02040694,,,,,,,,,,,,,,,,,,,,,,,,,,,,,,,,,42,4.4239,0,0,15,15,1,1,6,×,8,6 × 8,incongruent,smallerFirst,2,1,48,,,,,,,,
,,,,,,,,,,,,,,,682,2022-03-06_21h49.14.127,multiplicationStroop,2021.2.3,Win32,60.02040694,,,,,,,,,,,,,,,,,,,,,,,,,,,,,,,,,54,6.1904,1,0,16,16,6,1,6,×,9,6 × 9,incongruent,smallerFirst,2,1,54,,,,,,,,
,,,,,,,,,,,,,,,682,2022-03-06_21h49.14.127,multiplicationStroop,2021.2.3,Win32,60.02040694,,,,,,,,,,,,,,,,,,,,,,,,,,,,,,,,,40,2.1574,1,0,17,17,13,1,5,×,8,5 × 8,incongruent,smallerFirst,2,1,40,,,,,,,,
,,,,,,,,,,,,,,,682,2022-03-06_21h49.14.127,multiplicationStroop,2021.2.3,Win32,60.02040694,,,,,,,,,,,,,,,,,,,,,,,,,,,,,,,,,9,1.4989,1,0,18,18,29,1,3,×,3,3 × 3,incongruent,tie,1,2,9,,,,,,,,
,,,,,,,,,,,,,,,682,2022-03-06_21h49.14.127,multiplicationStroop,2021.2.3,Win32,60.02040694,,,,,,,,,,,,,,,,,,,,,,,,,,,,,,,,,18,2.0156,0,0,19,19,18,1,9,×,3,9 × 3,incongruent,largerFirst,1,2,27,,,,,,,,
,,,,,,,,,,,,,,,682,2022-03-06_21h49.14.127,multiplicationStroop,2021.2.3,Win32,60.02040694,,,,,,,,,,,,,,,,,,,,,,,,,,,,,,,,,18,2.9987,1,0,20,20,8,1,3,×,6,3 × 6,incongruent,smallerFirst,2,1,18,,,,,,,,
,,,,,,,,,,,,,,,682,2022-03-06_21h49.14.127,multiplicationStroop,2021.2.3,Win32,60.02040694,,,,,,,,,,,,,,,,,,,,,,,,,,,,,,,,,21,2.6571,1,0,21,21,26,1,7,×,3,7 × 3,incongruent,largerFirst,1,2,21,,,,,,,,
,,,,,,,,,,,,,,,682,2022-03-06_21h49.14.127,multiplicationStroop,2021.2.3,Win32,60.02040694,,,,,,,,,,,,,,,,,,,,,,,,,,,,,,,,,12,2.1327,1,0,22,22,5,1,3,×,4,3 × 4,incongruent,smallerFirst,2,1,12,,,,,,,,
,,,,,,,,,,,,,,,682,2022-03-06_21h49.14.127,multiplicationStroop,2021.2.3,Win32,60.02040694,,,,,,,,,,,,,,,,,,,,,,,,,,,,,,,,,10,2.0487,1,0,23,23,21,1,5,×,2,5 × 2,incongruent,largerFirst,1,2,10,,,,,,,,
,,,,,,,,,,,,,,,682,2022-03-06_21h49.14.127,multiplicationStroop,2021.2.3,Win32,60.02040694,,,,,,,,,,,,,,,,,,,,,,,,,,,,,,,,,14,2.1489,1,0,24,24,4,1,2,×,7,2 × 7,incongruent,smallerFirst,2,1,14,,,,,,,,
,,,,,,,,,,,,,,,682,2022-03-06_21h49.14.127,multiplicationStroop,2021.2.3,Win32,60.02040694,,,,,,,,,,,,,,,,,,,,,,,,,,,,,,,,,42,1.9825,1,0,25,25,17,1,7,×,6,7 × 6,incongruent,largerFirst,1,2,42,,,,,,,,
,,,,,,,,,,,,,,,682,2022-03-06_21h49.14.127,multiplicationStroop,2021.2.3,Win32,60.02040694,,,,,,,,,,,,,,,,,,,,,,,,,,,,,,,,,6,1.6487,1,0,26,26,11,1,2,×,3,2 × 3,incongruent,smallerFirst,2,1,6,,,,,,,,
,,,,,,,,,,,,,,,682,2022-03-06_21h49.14.127,multiplicationStroop,2021.2.3,Win32,60.02040694,,,,,,,,,,,,,,,,,,,,,,,,,,,,,,,,,15,1.5823,1,0,27,27,10,1,3,×,5,3 × 5,incongruent,smallerFirst,2,1,15,,,,,,,,
,,,,,,,,,,,,,,,682,2022-03-06_21h49.14.127,multiplicationStroop,2021.2.3,Win32,60.02040694,,,,,,,,,,,,,,,,,,,,,,,,,,,,,,,,,35,2.1162,1,0,28,28,12,1,5,×,7,5 × 7,incongruent,smallerFirst,2,1,35,,,,,,,,
,,,,,,,,,,,,,,,682,2022-03-06_21h49.14.127,multiplicationStroop,2021.2.3,Win32,60.02040694,,,,,,,,,,,,,,,,,,,,,,,,,,,,,,,,,72,3.6644,1,0,29,29,0,1,8,×,9,8 × 9,incongruent,smallerFirst,2,1,72,,,,,,,,
,,,,,,,,,,,,,,,682,2022-03-06_21h49.14.127,multiplicationStroop,2021.2.3,Win32,60.02040694,,,,,,,,,,,,,,,,,,,,,,,,,,,,,,,,,81,1.7243,1,0,30,30,35,1,9,×,9,9 × 9,incongruent,tie,1,2,81,,,,,,,,
,,,,,,,,,,,,,,,682,2022-03-06_21h49.14.127,multiplicationStroop,2021.2.3,Win32,60.02040694,,,,,,,,,,,,,,,,,,,,,,,,,,,,,,,,,4,1.6321,1,0,31,31,28,1,2,×,2,2 × 2,incongruent,tie,1,2,4,,,,,,,,
,,,,,,,,,,,,,,,682,2022-03-06_21h49.14.127,multiplicationStroop,2021.2.3,Win32,60.02040694,,,,,,,,,,,,,,,,,,,,,,,,,,,,,,,,,63,3.5819,1,0,32,32,3,1,7,×,9,7 × 9,incongruent,smallerFirst,2,1,63,,,,,,,,
,,,,,,,,,,,,,,,682,2022-03-06_21h49.14.127,multiplicationStroop,2021.2.3,Win32,60.02040694,,,,,,,,,,,,,,,,,,,,,,,,,,,,,,,,,24,3.7565,1,0,33,33,20,1,6,×,4,6 × 4,incongruent,largerFirst,1,2,24,,,,,,,,
,,,,,,,,,,,,,,,682,2022-03-06_21h49.14.127,multiplicationStroop,2021.2.3,Win32,60.02040694,,,,,,,,,,,,,,,,,,,,,,,,,,,,,,,,,32,3.0402,1,0,34,34,7,1,4,×,8,4 × 8,incongruent,smallerFirst,2,1,32,,,,,,,,
,,,,,,,,,,,,,,,682,2022-03-06_21h49.14.127,multiplicationStroop,2021.2.3,Win32,60.02040694,,,,,,,,,,,,,,,,,,,,,,,,,,,,,,,,,36,2.0825,1,0,35,35,32,1,6,×,6,6 × 6,incongruent,tie,1,2,36,,,,,,,,
,,,,,,,,,,,,,,,682,2022-03-06_21h49.14.127,multiplicationStroop,2021.2.3,Win32,60.02040694,,,,,,,,,,,,,,,,,,,,,,,,,,,,,,,,,,,,,,,,,,,,,,,,,,0,4,4,5,1,stimulusFile/mult_blk6_INcongruent.xlsx,,
,,,,,,,,,,,,,,,682,2022-03-06_21h49.14.127,multiplicationStroop,2021.2.3,Win32,60.02040694,,,,,,,,,,,,,,,,,,,,,,,,,,,,,,,space,0.9,63,2.8571,1,0,0,0,17,1,9,×,7,9 × 7,incongruent,largerFirst,1,2,63,,,,,,,,
,,,,,,,,,,,,,,,682,2022-03-06_21h49.14.127,multiplicationStroop,2021.2.3,Win32,60.02040694,,,,,,,,,,,,,,,,,,,,,,,,,,,,,,,,,36,2.1323,1,0,1,1,32,1,6,×,6,6 × 6,neutral,tie,2,1,36,,,,,,,,
,,,,,,,,,,,,,,,682,2022-03-06_21h49.14.127,multiplicationStroop,2021.2.3,Win32,60.02040694,,,,,,,,,,,,,,,,,,,,,,,,,,,,,,,,,28,6.9757,1,0,2,2,2,1,4,×,7,4 × 7,incongruent,smallerFirst,2,1,28,,,,,,,,
,,,,,,,,,,,,,,,682,2022-03-06_21h49.14.127,multiplicationStroop,2021.2.3,Win32,60.02040694,,,,,,,,,,,,,,,,,,,,,,,,,,,,,,,,,45,1.773,1,0,3,3,8,1,5,×,9,5 × 9,incongruent,smallerFirst,2,1,45,,,,,,,,
,,,,,,,,,,,,,,,682,2022-03-06_21h49.14.127,multiplicationStroop,2021.2.3,Win32,60.02040694,,,,,,,,,,,,,,,,,,,,,,,,,,,,,,,,,4,1.3153,1,0,4,4,28,1,2,×,2,2 × 2,neutral,tie,2,1,4,,,,,,,,
,,,,,,,,,,,,,,,682,2022-03-06_21h49.14.127,multiplicationStroop,2021.2.3,Win32,60.02040694,,,,,,,,,,,,,,,,,,,,,,,,,,,,,,,,,6,1.4315,1,0,5,5,25,1,3,×,2,3 × 2,incongruent,largerFirst,1,2,6,,,,,,,,
,,,,,,,,,,,,,,,682,2022-03-06_21h49.14.127,multiplicationStroop,2021.2.3,Win32,60.02040694,,,,,,,,,,,,,,,,,,,,,,,,,,,,,,,,,12,2.0154,1,0,6,6,5,1,2,×,6,2 × 6,incongruent,smallerFirst,2,1,12,,,,,,,,
,,,,,,,,,,,,,,,682,2022-03-06_21h49.14.127,multiplicationStroop,2021.2.3,Win32,60.02040694,,,,,,,,,,,,,,,,,,,,,,,,,,,,,,,,,72,7.6298,1,0,7,7,14,1,9,×,8,9 × 8,incongruent,largerFirst,1,2,72,,,,,,,,
,,,,,,,,,,,,,,,682,2022-03-06_21h49.14.127,multiplicationStroop,2021.2.3,Win32,60.02040694,,,,,,,,,,,,,,,,,,,,,,,,,,,,,,,,,16,1.8537,1,0,8,8,9,1,2,×,8,2 × 8,incongruent,smallerFirst,2,1,16,,,,,,,,
,,,,,,,,,,,,,,,682,2022-03-06_21h49.14.127,multiplicationStroop,2021.2.3,Win32,60.02040694,,,,,,,,,,,,,,,,,,,,,,,,,,,,,,,,,56,4.2473,1,0,9,9,0,1,7,×,8,7 × 8,incongruent,smallerFirst,2,1,56,,,,,,,,
,,,,,,,,,,,,,,,682,2022-03-06_21h49.14.127,multiplicationStroop,2021.2.3,Win32,60.02040694,,,,,,,,,,,,,,,,,,,,,,,,,,,,,,,,,36,3.8891,1,0,10,10,1,1,4,×,9,4 × 9,incongruent,smallerFirst,2,1,36,,,,,,,,
,,,,,,,,,,,,,,,682,2022-03-06_21h49.14.127,multiplicationStroop,2021.2.3,Win32,60.02040694,,,,,,,,,,,,,,,,,,,,,,,,,,,,,,,,,27,2.7728,1,0,11,11,4,1,3,×,9,3 × 9,incongruent,smallerFirst,2,1,27,,,,,,,,
,,,,,,,,,,,,,,,682,2022-03-06_21h49.14.127,multiplicationStroop,2021.2.3,Win32,60.02040694,,,,,,,,,,,,,,,,,,,,,,,,,,,,,,,,,27,1.3656,0,0,12,12,12,1,3,×,7,3 × 7,incongruent,smallerFirst,2,1,21,,,,,,,,
,,,,,,,,,,,,,,,682,2022-03-06_21h49.14.127,multiplicationStroop,2021.2.3,Win32,60.02040694,,,,,,,,,,,,,,,,,,,,,,,,,,,,,,,,,15,1.7155,1,0,13,13,24,1,5,×,3,5 × 3,incongruent,largerFirst,1,2,15,,,,,,,,
,,,,,,,,,,,,,,,682,2022-03-06_21h49.14.127,multiplicationStroop,2021.2.3,Win32,60.02040694,,,,,,,,,,,,,,,,,,,,,,,,,,,,,,,,,18,1.9323,1,0,14,14,22,1,6,×,3,6 × 3,incongruent,largerFirst,1,2,18,,,,,,,,
,,,,,,,,,,,,,,,682,2022-03-06_21h49.14.127,multiplicationStroop,2021.2.3,Win32,60.02040694,,,,,,,,,,,,,,,,,,,,,,,,,,,,,,,,,32,1.7988,1,0,15,15,21,1,8,×,4,8 × 4,incongruent,largerFirst,1,2,32,,,,,,,,
,,,,,,,,,,,,,,,682,2022-03-06_21h49.14.127,multiplicationStroop,2021.2.3,Win32,60.02040694,,,,,,,,,,,,,,,,,,,,,,,,,,,,,,,,,14,1.382,1,0,16,16,18,1,7,×,2,7 × 2,incongruent,largerFirst,1,2,14,,,,,,,,
,,,,,,,,,,,,,,,682,2022-03-06_21h49.14.127,multiplicationStroop,2021.2.3,Win32,60.02040694,,,,,,,,,,,,,,,,,,,,,,,,,,,,,,,,,30,1.999,1,0,17,17,11,1,5,×,6,5 × 6,incongruent,smallerFirst,2,1,30,,,,,,,,
,,,,,,,,,,,,,,,682,2022-03-06_21h49.14.127,multiplicationStroop,2021.2.3,Win32,60.02040694,,,,,,,,,,,,,,,,,,,,,,,,,,,,,,,,,48,2.5148,1,0,18,18,15,1,8,×,6,8 × 6,incongruent,largerFirst,1,2,48,,,,,,,,
,,,,,,,,,,,,,,,682,2022-03-06_21h49.14.127,multiplicationStroop,2021.2.3,Win32,60.02040694,,,,,,,,,,,,,,,,,,,,,,,,,,,,,,,,,12,1.79,1,0,19,19,19,1,4,×,3,4 × 3,incongruent,largerFirst,1,2,12,,,,,,,,
,,,,,,,,,,,,,,,682,2022-03-06_21h49.14.127,multiplicationStroop,2021.2.3,Win32,60.02040694,,,,,,,,,,,,,,,,,,,,,,,,,,,,,,,,,25,1.7653,1,0,20,20,31,1,5,×,5,5 × 5,neutral,tie,2,1,25,,,,,,,,
,,,,,,,,,,,,,,,682,2022-03-06_21h49.14.127,multiplicationStroop,2021.2.3,Win32,60.02040694,,,,,,,,,,,,,,,,,,,,,,,,,,,,,,,,,49,1.8319,1,0,21,21,33,1,7,×,7,7 × 7,neutral,tie,2,1,49,,,,,,,,
,,,,,,,,,,,,,,,682,2022-03-06_21h49.14.127,multiplicationStroop,2021.2.3,Win32,60.02040694,,,,,,,,,,,,,,,,,,,,,,,,,,,,,,,,,20,2.2153,1,0,22,22,13,1,4,×,5,4 × 5,incongruent,smallerFirst,2,1,20,,,,,,,,
,,,,,,,,,,,,,,,682,2022-03-06_21h49.14.127,multiplicationStroop,2021.2.3,Win32,60.02040694,,,,,,,,,,,,,,,,,,,,,,,,,,,,,,,,,16,2.1652,1,0,23,23,30,1,4,×,4,4 × 4,neutral,tie,2,1,16,,,,,,,,
,,,,,,,,,,,,,,,682,2022-03-06_21h49.14.127,multiplicationStroop,2021.2.3,Win32,60.02040694,,,,,,,,,,,,,,,,,,,,,,,,,,,,,,,,,54,5.564,1,0,24,24,20,1,9,×,6,9 × 6,incongruent,largerFirst,1,2,54,,,,,,,,
,,,,,,,,,,,,,,,682,2022-03-06_21h49.14.127,multiplicationStroop,2021.2.3,Win32,60.02040694,,,,,,,,,,,,,,,,,,,,,,,,,,,,,,,,,18,1.7909,1,0,25,25,16,1,9,×,2,9 × 2,incongruent,largerFirst,1,2,18,,,,,,,,
,,,,,,,,,,,,,,,682,2022-03-06_21h49.14.127,multiplicationStroop,2021.2.3,Win32,60.02040694,,,,,,,,,,,,,,,,,,,,,,,,,,,,,,,,,24,2.5319,1,0,26,26,23,1,8,×,3,8 × 3,incongruent,largerFirst,1,2,24,,,,,,,,
,,,,,,,,,,,,,,,682,2022-03-06_21h49.14.127,multiplicationStroop,2021.2.3,Win32,60.02040694,,,,,,,,,,,,,,,,,,,,,,,,,,,,,,,,,9,1.6821,1,0,27,27,29,1,3,×,3,3 × 3,neutral,tie,2,1,9,,,,,,,,
,,,,,,,,,,,,,,,682,2022-03-06_21h49.14.127,multiplicationStroop,2021.2.3,Win32,60.02040694,,,,,,,,,,,,,,,,,,,,,,,,,,,,,,,,,35,1.7156,1,0,28,28,26,1,7,×,5,7 × 5,incongruent,largerFirst,1,2,35,,,,,,,,
,,,,,,,,,,,,,,,682,2022-03-06_21h49.14.127,multiplicationStroop,2021.2.3,Win32,60.02040694,,,,,,,,,,,,,,,,,,,,,,,,,,,,,,,,,10,1.5653,1,0,29,29,7,1,2,×,5,2 × 5,incongruent,smallerFirst,2,1,10,,,,,,,,
,,,,,,,,,,,,,,,682,2022-03-06_21h49.14.127,multiplicationStroop,2021.2.3,Win32,60.02040694,,,,,,,,,,,,,,,,,,,,,,,,,,,,,,,,,64,3.198,1,0,30,30,34,1,8,×,8,8 × 8,neutral,tie,2,1,64,,,,,,,,
,,,,,,,,,,,,,,,682,2022-03-06_21h49.14.127,multiplicationStroop,2021.2.3,Win32,60.02040694,,,,,,,,,,,,,,,,,,,,,,,,,,,,,,,,,81,1.7987,1,0,31,31,35,1,9,×,9,9 × 9,neutral,tie,2,1,81,,,,,,,,
,,,,,,,,,,,,,,,682,2022-03-06_21h49.14.127,multiplicationStroop,2021.2.3,Win32,60.02040694,,,,,,,,,,,,,,,,,,,,,,,,,,,,,,,,,8,1.7485,1,0,32,32,10,1,2,×,4,2 × 4,incongruent,smallerFirst,2,1,8,,,,,,,,
,,,,,,,,,,,,,,,682,2022-03-06_21h49.14.127,multiplicationStroop,2021.2.3,Win32,60.02040694,,,,,,,,,,,,,,,,,,,,,,,,,,,,,,,,,40,1.7821,1,0,33,33,27,1,8,×,5,8 × 5,incongruent,largerFirst,1,2,40,,,,,,,,
,,,,,,,,,,,,,,,682,2022-03-06_21h49.14.127,multiplicationStroop,2021.2.3,Win32,60.02040694,,,,,,,,,,,,,,,,,,,,,,,,,,,,,,,,,42,2.6978,1,0,34,34,3,1,6,×,7,6 × 7,incongruent,smallerFirst,2,1,42,,,,,,,,
,,,,,,,,,,,,,,,682,2022-03-06_21h49.14.127,multiplicationStroop,2021.2.3,Win32,60.02040694,,,,,,,,,,,,,,,,,,,,,,,,,,,,,,,,,36,2.365,0,0,35,35,6,1,4,×,6,4 × 6,incongruent,smallerFirst,2,1,24,,,,,,,,
,,,,,,,,,,,,,,,682,2022-03-06_21h49.14.127,multiplicationStroop,2021.2.3,Win32,60.02040694,,,,,,,,,,,,,,,,,,,,,,,,,,,,,,,,,,,,,,,,,,,,,,,,,,0,5,5,4,1,stimulusFile/mult_blk5_INcongruent.xlsx,,
,,,,,,,,,,,,,,,682,2022-03-06_21h49.14.127,multiplicationStroop,2021.2.3,Win32,60.02040694,,,,,,,,,,,,,,,,,,,,,,,,,,,,,,,,,,,,,,,,,,,,,,,,,,,,,,,,space,1.1789