welcomeKey_resp.keys,welcomeKey_resp.rt,X Scale,Y Scale,rt_resp_4.keys,rt_resp_4.corr,rt_resp_4.rt,speedtest_2.thisRepN,speedtest_2.thisTrialN,speedtest_2.thisN,speedtest_2.thisIndex,speedtest_2.ran,numberSc,posX,positionLayout,participant,date,expName,psychopyVersion,OS,frameRate,ct_instrresp.keys,ct_instrresp.rt,key_resp_2.keys,key_resp_2.rt,ct_keyResp.keys,ct_keyResp.corr,ct_keyResp.rt,trials.thisRepN,trials.thisTrialN,trials.thisN,trials.thisIndex,trials.ran,leftNo,rightNo,displayProblem,numDistance,leftNo_size,rightNo_size,Dims,keyAnswer,TS_Loop.thisRepN,TS_Loop.thisTrialN,TS_Loop.thisN,TS_Loop.thisIndex,TS_Loop.ran,Condition,ActionInst,instrImage,mltptaskInst_resp.keys,mltptaskInst_resp.rt,continue_resp_2.keys,continue_resp_2.rt,multp_Answer,multi_RT,multiplyCorr,LoopingMultiply.thisRepN,LoopingMultiply.thisTrialN,LoopingMultiply.thisN,LoopingMultiply.thisIndex,LoopingMultiply.ran,factor1,multiplySign,factor2,multliplyProblem,physicalSize,orderOperand,sizeF1,sizeF2,mult_answer,trials_stroop.thisRepN,trials_stroop.thisTrialN,trials_stroop.thisN,trials_stroop.thisIndex,trials_stroop.ran,multiplicationFile,esckey_resp_2.keys,esckey_resp_2.rt
y,5.0614,59.9,59.7,right,1,0.6528,0,0,0,14,1,8,200,right,683,2022-02-08_15h41.50.135,multiplicationStroop,2021.2.3,Win32,60.03842459,,,,,,,,,,,,,,,,,,,,,,,,,,,,,,,,,,,,,,,,,,,,,,,,,,,,,,,,,
,,,,right,1,0.3675,0,1,1,13,1,7,200,right,683,2022-02-08_15h41.50.135,multiplicationStroop,2021.2.3,Win32,60.03842459,,,,,,,,,,,,,,,,,,,,,,,,,,,,,,,,,,,,,,,,,,,,,,,,,,,,,,,,,
,,,,left,1,0.3679,0,2,2,0,1,1,-200,left,683,2022-02-08_15h41.50.135,multiplicationStroop,2021.2.3,Win32,60.03842459,,,,,,,,,,,,,,,,,,,,,,,,,,,,,,,,,,,,,,,,,,,,,,,,,,,,,,,,,
,,,,left,1,0.3944,0,3,3,3,1,4,-200,left,683,2022-02-08_15h41.50.135,multiplicationStroop,2021.2.3,Win32,60.03842459,,,,,,,,,,,,,,,,,,,,,,,,,,,,,,,,,,,,,,,,,,,,,,,,,,,,,,,,,
,,,,right,1,0.3043,0,4,4,9,1,2,200,right,683,2022-02-08_15h41.50.135,multiplicationStroop,2021.2.3,Win32,60.03842459,,,,,,,,,,,,,,,,,,,,,,,,,,,,,,,,,,,,,,,,,,,,,,,,,,,,,,,,,
,,,,right,1,0.3454,0,5,5,12,1,6,200,right,683,2022-02-08_15h41.50.135,multiplicationStroop,2021.2.3,Win32,60.03842459,,,,,,,,,,,,,,,,,,,,,,,,,,,,,,,,,,,,,,,,,,,,,,,,,,,,,,,,,
,,,,right,1,0.3174,0,6,6,10,1,3,200,right,683,2022-02-08_15h41.50.135,multiplicationStroop,2021.2.3,Win32,60.03842459,,,,,,,,,,,,,,,,,,,,,,,,,,,,,,,,,,,,,,,,,,,,,,,,,,,,,,,,,
,,,,left,1,0.6011,0,7,7,7,1,9,-200,left,683,2022-02-08_15h41.50.135,multiplicationStroop,2021.2.3,Win32,60.03842459,,,,,,,,,,,,,,,,,,,,,,,,,,,,,,,,,,,,,,,,,,,,,,,,,,,,,,,,,
,,,,right,1,0.2848,0,8,8,15,1,9,200,right,683,2022-02-08_15h41.50.135,multiplicationStroop,2021.2.3,Win32,60.03842459,,,,,,,,,,,,,,,,,,,,,,,,,,,,,,,,,,,,,,,,,,,,,,,,,,,,,,,,,
,,,,right,1,0.319,0,9,9,11,1,4,200,right,683,2022-02-08_15h41.50.135,multiplicationStroop,2021.2.3,Win32,60.03842459,,,,,,,,,,,,,,,,,,,,,,,,,,,,,,,,,,,,,,,,,,,,,,,,,,,,,,,,,
,,,,left,1,0.3727,0,10,10,1,1,2,-200,left,683,2022-02-08_15h41.50.135,multiplicationStroop,2021.2.3,Win32,60.03842459,,,,,,,,,,,,,,,,,,,,,,,,,,,,,,,,,,,,,,,,,,,,,,,,,,,,,,,,,
,,,,right,1,0.2857,0,11,11,8,1,1,200,right,683,2022-02-08_15h41.50.135,multiplicationStroop,2021.2.3,Win32,60.03842459,,,,,,,,,,,,,,,,,,,,,,,,,,,,,,,,,,,,,,,,,,,,,,,,,,,,,,,,,
,,,,left,1,0.3539,0,12,12,4,1,6,-200,left,683,2022-02-08_15h41.50.135,multiplicationStroop,2021.2.3,Win32,60.03842459,,,,,,,,,,,,,,,,,,,,,,,,,,,,,,,,,,,,,,,,,,,,,,,,,,,,,,,,,
,,,,left,1,0.3593,0,13,13,2,1,3,-200,left,683,2022-02-08_15h41.50.135,multiplicationStroop,2021.2.3,Win32,60.03842459,,,,,,,,,,,,,,,,,,,,,,,,,,,,,,,,,,,,,,,,,,,,,,,,,,,,,,,,,
,,,,left,1,0.3063,0,14,14,5,1,7,-200,left,683,2022-02-08_15h41.50.135,multiplicationStroop,2021.2.3,Win32,60.03842459,,,,,,,,,,,,,,,,,,,,,,,,,,,,,,,,,,,,,,,,,,,,,,,,,,,,,,,,,
,,,,left,1,0.3473,0,15,15,6,1,8,-200,left,683,2022-02-08_15h41.50.135,multiplicationStroop,2021.2.3,Win32,60.03842459,,,,,,,,,,,,,,,,,,,,,,,,,,,,,,,,,,,,,,,,,,,,,,,,,,,,,,,,,
,,,,right,1,0.3318,1,0,16,14,1,8,200,right,683,2022-02-08_15h41.50.135,multiplicationStroop,2021.2.3,Win32,60.03842459,,,,,,,,,,,,,,,,,,,,,,,,,,,,,,,,,,,,,,,,,,,,,,,,,,,,,,,,,
,,,,right,1,0.2918,1,1,17,9,1,2,200,right,683,2022-02-08_15h41.50.135,multiplicationStroop,2021.2.3,Win32,60.03842459,,,,,,,,,,,,,,,,,,,,,,,,,,,,,,,,,,,,,,,,,,,,,,,,,,,,,,,,,
,,,,right,1,0.332,1,2,18,13,1,7,200,right,683,2022-02-08_15h41.50.135,multiplicationStroop,2021.2.3,Win32,60.03842459,,,,,,,,,,,,,,,,,,,,,,,,,,,,,,,,,,,,,,,,,,,,,,,,,,,,,,,,,
,,,,right,1,0.2985,1,3,19,12,1,6,200,right,683,2022-02-08_15h41.50.135,multiplicationStroop,2021.2.3,Win32,60.03842459,,,,,,,,,,,,,,,,,,,,,,,,,,,,,,,,,,,,,,,,,,,,,,,,,,,,,,,,,
,,,,right,1,0.2973,1,4,20,8,1,1,200,right,683,2022-02-08_15h41.50.135,multiplicationStroop,2021.2.3,Win32,60.03842459,,,,,,,,,,,,,,,,,,,,,,,,,,,,,,,,,,,,,,,,,,,,,,,,,,,,,,,,,
,,,,right,1,0.297,1,5,21,11,1,4,200,right,683,2022-02-08_15h41.50.135,multiplicationStroop,2021.2.3,Win32,60.03842459,,,,,,,,,,,,,,,,,,,,,,,,,,,,,,,,,,,,,,,,,,,,,,,,,,,,,,,,,
,,,,left,1,0.2894,1,6,22,5,1,7,-200,left,683,2022-02-08_15h41.50.135,multiplicationStroop,2021.2.3,Win32,60.03842459,,,,,,,,,,,,,,,,,,,,,,,,,,,,,,,,,,,,,,,,,,,,,,,,,,,,,,,,,
,,,,right,1,0.242,1,7,23,15,1,9,200,right,683,2022-02-08_15h41.50.135,multiplicationStroop,2021.2.3,Win32,60.03842459,,,,,,,,,,,,,,,,,,,,,,,,,,,,,,,,,,,,,,,,,,,,,,,,,,,,,,,,,
,,,,left,1,0.3135,1,8,24,4,1,6,-200,left,683,2022-02-08_15h41.50.135,multiplicationStroop,2021.2.3,Win32,60.03842459,,,,,,,,,,,,,,,,,,,,,,,,,,,,,,,,,,,,,,,,,,,,,,,,,,,,,,,,,
,,,,right,1,0.2582,1,9,25,10,1,3,200,right,683,2022-02-08_15h41.50.135,multiplicationStroop,2021.2.3,Win32,60.03842459,,,,,,,,,,,,,,,,,,,,,,,,,,,,,,,,,,,,,,,,,,,,,,,,,,,,,,,,,
,,,,left,1,0.315,1,10,26,1,1,2,-200,left,683,2022-02-08_15h41.50.135,multiplicationStroop,2021.2.3,Win32,60.03842459,,,,,,,,,,,,,,,,,,,,,,,,,,,,,,,,,,,,,,,,,,,,,,,,,,,,,,,,,
,,,,left,1,0.3048,1,11,27,0,1,1,-200,left,683,2022-02-08_15h41.50.135,multiplicationStroop,2021.2.3,Win32,60.03842459,,,,,,,,,,,,,,,,,,,,,,,,,,,,,,,,,,,,,,,,,,,,,,,,,,,,,,,,,
,,,,left,1,0.2839,1,12,28,2,1,3,-200,left,683,2022-02-08_15h41.50.135,multiplicationStroop,2021.2.3,Win32,60.03842459,,,,,,,,,,,,,,,,,,,,,,,,,,,,,,,,,,,,,,,,,,,,,,,,,,,,,,,,,
,,,,left,1,0.3214,1,13,29,6,1,8,-200,left,683,2022-02-08_15h41.50.135,multiplicationStroop,2021.2.3,Win32,60.03842459,,,,,,,,,,,,,,,,,,,,,,,,,,,,,,,,,,,,,,,,,,,,,,,,,,,,,,,,,
,,,,left,1,0.2821,1,14,30,3,1,4,-200,left,683,2022-02-08_15h41.50.135,multiplicationStroop,2021.2.3,Win32,60.03842459,,,,,,,,,,,,,,,,,,,,,,,,,,,,,,,,,,,,,,,,,,,,,,,,,,,,,,,,,
,,,,left,1,0.3015,1,15,31,7,1,9,-200,left,683,2022-02-08_15h41.50.135,multiplicationStroop,2021.2.3,Win32,60.03842459,,,,,,,,,,,,,,,,,,,,,,,,,,,,,,,,,,,,,,,,,,,,,,,,,,,,,,,,,
,,,,left,1,0.2825,2,0,32,0,1,1,-200,left,683,2022-02-08_15h41.50.135,multiplicationStroop,2021.2.3,Win32,60.03842459,,,,,,,,,,,,,,,,,,,,,,,,,,,,,,,,,,,,,,,,,,,,,,,,,,,,,,,,,
,,,,right,1,0.3277,2,1,33,10,1,3,200,right,683,2022-02-08_15h41.50.135,multiplicationStroop,2021.2.3,Win32,60.03842459,,,,,,,,,,,,,,,,,,,,,,,,,,,,,,,,,,,,,,,,,,,,,,,,,,,,,,,,,
,,,,right,1,0.3472,2,2,34,15,1,9,200,right,683,2022-02-08_15h41.50.135,multiplicationStroop,2021.2.3,Win32,60.03842459,,,,,,,,,,,,,,,,,,,,,,,,,,,,,,,,,,,,,,,,,,,,,,,,,,,,,,,,,
,,,,left,1,0.3635,2,3,35,5,1,7,-200,left,683,2022-02-08_15h41.50.135,multiplicationStroop,2021.2.3,Win32,60.03842459,,,,,,,,,,,,,,,,,,,,,,,,,,,,,,,,,,,,,,,,,,,,,,,,,,,,,,,,,
,,,,left,1,0.3308,2,4,36,7,1,9,-200,left,683,2022-02-08_15h41.50.135,multiplicationStroop,2021.2.3,Win32,60.03842459,,,,,,,,,,,,,,,,,,,,,,,,,,,,,,,,,,,,,,,,,,,,,,,,,,,,,,,,,
,,,,left,1,0.2543,2,5,37,3,1,4,-200,left,683,2022-02-08_15h41.50.135,multiplicationStroop,2021.2.3,Win32,60.03842459,,,,,,,,,,,,,,,,,,,,,,,,,,,,,,,,,,,,,,,,,,,,,,,,,,,,,,,,,
,,,,right,1,0.2991,2,6,38,8,1,1,200,right,683,2022-02-08_15h41.50.135,multiplicationStroop,2021.2.3,Win32,60.03842459,,,,,,,,,,,,,,,,,,,,,,,,,,,,,,,,,,,,,,,,,,,,,,,,,,,,,,,,,
,,,,right,1,0.3133,2,7,39,11,1,4,200,right,683,2022-02-08_15h41.50.135,multiplicationStroop,2021.2.3,Win32,60.03842459,,,,,,,,,,,,,,,,,,,,,,,,,,,,,,,,,,,,,,,,,,,,,,,,,,,,,,,,,
,,,,right,1,0.2079,2,8,40,9,1,2,200,right,683,2022-02-08_15h41.50.135,multiplicationStroop,2021.2.3,Win32,60.03842459,,,,,,,,,,,,,,,,,,,,,,,,,,,,,,,,,,,,,,,,,,,,,,,,,,,,,,,,,
,,,,right,1,0.2465,2,9,41,14,1,8,200,right,683,2022-02-08_15h41.50.135,multiplicationStroop,2021.2.3,Win32,60.03842459,,,,,,,,,,,,,,,,,,,,,,,,,,,,,,,,,,,,,,,,,,,,,,,,,,,,,,,,,
,,,,right,1,0.2811,2,10,42,13,1,7,200,right,683,2022-02-08_15h41.50.135,multiplicationStroop,2021.2.3,Win32,60.03842459,,,,,,,,,,,,,,,,,,,,,,,,,,,,,,,,,,,,,,,,,,,,,,,,,,,,,,,,,
,,,,left,1,0.2853,2,11,43,4,1,6,-200,left,683,2022-02-08_15h41.50.135,multiplicationStroop,2021.2.3,Win32,60.03842459,,,,,,,,,,,,,,,,,,,,,,,,,,,,,,,,,,,,,,,,,,,,,,,,,,,,,,,,,
,,,,left,1,0.3008,2,12,44,1,1,2,-200,left,683,2022-02-08_15h41.50.135,multiplicationStroop,2021.2.3,Win32,60.03842459,,,,,,,,,,,,,,,,,,,,,,,,,,,,,,,,,,,,,,,,,,,,,,,,,,,,,,,,,
,,,,left,1,0.2639,2,13,45,2,1,3,-200,left,683,2022-02-08_15h41.50.135,multiplicationStroop,2021.2.3,Win32,60.03842459,,,,,,,,,,,,,,,,,,,,,,,,,,,,,,,,,,,,,,,,,,,,,,,,,,,,,,,,,
,,,,left,1,0.2672,2,14,46,6,1,8,-200,left,683,2022-02-08_15h41.50.135,multiplicationStroop,2021.2.3,Win32,60.03842459,,,,,,,,,,,,,,,,,,,,,,,,,,,,,,,,,,,,,,,,,,,,,,,,,,,,,,,,,
,,,,right,1,0.5646,2,15,47,12,1,6,200,right,683,2022-02-08_15h41.50.135,multiplicationStroop,2021.2.3,Win32,60.03842459,,,,,,,,,,,,,,,,,,,,,,,,,,,,,,,,,,,,,,,,,,,,,,,,,,,,,,,,,
,,,,right,1,0.2667,3,0,48,15,1,9,200,right,683,2022-02-08_15h41.50.135,multiplicationStroop,2021.2.3,Win32,60.03842459,,,,,,,,,,,,,,,,,,,,,,,,,,,,,,,,,,,,,,,,,,,,,,,,,,,,,,,,,
,,,,right,1,0.2403,3,1,49,9,1,2,200,right,683,2022-02-08_15h41.50.135,multiplicationStroop,2021.2.3,Win32,60.03842459,,,,,,,,,,,,,,,,,,,,,,,,,,,,,,,,,,,,,,,,,,,,,,,,,,,,,,,,,
,,,,right,0,0.2688,3,2,50,7,1,9,-200,left,683,2022-02-08_15h41.50.135,multiplicationStroop,2021.2.3,Win32,60.03842459,,,,,,,,,,,,,,,,,,,,,,,,,,,,,,,,,,,,,,,,,,,,,,,,,,,,,,,,,
,,,,right,1,0.3717,3,3,51,12,1,6,200,right,683,2022-02-08_15h41.50.135,multiplicationStroop,2021.2.3,Win32,60.03842459,,,,,,,,,,,,,,,,,,,,,,,,,,,,,,,,,,,,,,,,,,,,,,,,,,,,,,,,,
,,,,left,1,0.3087,3,4,52,4,1,6,-200,left,683,2022-02-08_15h41.50.135,multiplicationStroop,2021.2.3,Win32,60.03842459,,,,,,,,,,,,,,,,,,,,,,,,,,,,,,,,,,,,,,,,,,,,,,,,,,,,,,,,,
,,,,left,1,0.5019,3,5,53,5,1,7,-200,left,683,2022-02-08_15h41.50.135,multiplicationStroop,2021.2.3,Win32,60.03842459,,,,,,,,,,,,,,,,,,,,,,,,,,,,,,,,,,,,,,,,,,,,,,,,,,,,,,,,,
,,,,right,1,0.3193,3,6,54,10,1,3,200,right,683,2022-02-08_15h41.50.135,multiplicationStroop,2021.2.3,Win32,60.03842459,,,,,,,,,,,,,,,,,,,,,,,,,,,,,,,,,,,,,,,,,,,,,,,,,,,,,,,,,
,,,,left,1,0.4493,3,7,55,2,1,3,-200,left,683,2022-02-08_15h41.50.135,multiplicationStroop,2021.2.3,Win32,60.03842459,,,,,,,,,,,,,,,,,,,,,,,,,,,,,,,,,,,,,,,,,,,,,,,,,,,,,,,,,
,,,,left,1,0.3488,3,8,56,6,1,8,-200,left,683,2022-02-08_15h41.50.135,multiplicationStroop,2021.2.3,Win32,60.03842459,,,,,,,,,,,,,,,,,,,,,,,,,,,,,,,,,,,,,,,,,,,,,,,,,,,,,,,,,
,,,,right,1,0.4067,3,9,57,13,1,7,200,right,683,2022-02-08_15h41.50.135,multiplicationStroop,2021.2.3,Win32,60.03842459,,,,,,,,,,,,,,,,,,,,,,,,,,,,,,,,,,,,,,,,,,,,,,,,,,,,,,,,,
,,,,right,1,0.3475,3,10,58,8,1,1,200,right,683,2022-02-08_15h41.50.135,multiplicationStroop,2021.2.3,Win32,60.03842459,,,,,,,,,,,,,,,,,,,,,,,,,,,,,,,,,,,,,,,,,,,,,,,,,,,,,,,,,
,,,,right,1,0.3208,3,11,59,14,1,8,200,right,683,2022-02-08_15h41.50.135,multiplicationStroop,2021.2.3,Win32,60.03842459,,,,,,,,,,,,,,,,,,,,,,,,,,,,,,,,,,,,,,,,,,,,,,,,,,,,,,,,,
,,,,left,1,0.348,3,12,60,0,1,1,-200,left,683,2022-02-08_15h41.50.135,multiplicationStroop,2021.2.3,Win32,60.03842459,,,,,,,,,,,,,,,,,,,,,,,,,,,,,,,,,,,,,,,,,,,,,,,,,,,,,,,,,
,,,,left,1,0.337,3,13,61,1,1,2,-200,left,683,2022-02-08_15h41.50.135,multiplicationStroop,2021.2.3,Win32,60.03842459,,,,,,,,,,,,,,,,,,,,,,,,,,,,,,,,,,,,,,,,,,,,,,,,,,,,,,,,,
,,,,right,1,0.347,3,14,62,11,1,4,200,right,683,2022-02-08_15h41.50.135,multiplicationStroop,2021.2.3,Win32,60.03842459,,,,,,,,,,,,,,,,,,,,,,,,,,,,,,,,,,,,,,,,,,,,,,,,,,,,,,,,,
,,,,left,1,0.2939,3,15,63,3,1,4,-200,left,683,2022-02-08_15h41.50.135,multiplicationStroop,2021.2.3,Win32,60.03842459,,,,,,,,,,,,,,,,,,,,,,,,,,,,,,,,,,,,,,,,,,,,,,,,,,,,,,,,,
,,,,,,,,,,,,,,,683,2022-02-08_15h41.50.135,multiplicationStroop,2021.2.3,Win32,60.03842459,space,12.5854,space,4.5834,right,1,0.6926,0,0,0,2,1,6,7,6 | 7,1,1.4111,1.9756,congruent,right,,,,,,stimulusFile/physical.xlsx,,,,,,,,,,,,,,,,,,,,,,,,,,,,,,,
,,,,,,,,,,,,,,,683,2022-02-08_15h41.50.135,multiplicationStroop,2021.2.3,Win32,60.03842459,,,,,left,1,0.462,0,1,1,49,1,3,3,3 | 3,0,1.9756,1.4111,neutral,left,,,,,,stimulusFile/physical.xlsx,,,,,,,,,,,,,,,,,,,,,,,,,,,,,,,
,,,,,,,,,,,,,,,683,2022-02-08_15h41.50.135,multiplicationStroop,2021.2.3,Win32,60.03842459,,,,,right,1,0.4025,0,2,2,29,1,4,3,4 | 3,1,1.4111,1.9756,incongruent,right,,,,,,stimulusFile/physical.xlsx,,,,,,,,,,,,,,,,,,,,,,,,,,,,,,,
,,,,,,,,,,,,,,,683,2022-02-08_15h41.50.135,multiplicationStroop,2021.2.3,Win32,60.03842459,,,,,right,1,0.478,0,3,3,1,1,3,4,3 | 4,1,1.4111,1.9756,congruent,right,,,,,,stimulusFile/physical.xlsx,,,,,,,,,,,,,,,,,,,,,,,,,,,,,,,
,,,,,,,,,,,,,,,683,2022-02-08_15h41.50.135,multiplicationStroop,2021.2.3,Win32,60.03842459,,,,,right,1,0.4398,0,4,4,67,1,4,4,4 | 4,0,1.4111,1.9756,neutral,right,,,,,,stimulusFile/physical.xlsx,,,,,,,,,,,,,,,,,,,,,,,,,,,,,,,
,,,,,,,,,,,,,,,683,2022-02-08_15h41.50.135,multiplicationStroop,2021.2.3,Win32,60.03842459,,,,,right,1,0.5321,0,5,5,37,1,4,2,4 | 2,2,1.4111,1.9756,incongruent,right,,,,,,stimulusFile/physical.xlsx,,,,,,,,,,,,,,,,,,,,,,,,,,,,,,,
,,,,,,,,,,,,,,,683,2022-02-08_15h41.50.135,multiplicationStroop,2021.2.3,Win32,60.03842459,,,,,left,1,0.4481,0,6,6,14,1,8,6,8 | 6,2,1.9756,1.4111,congruent,left,,,,,,stimulusFile/physical.xlsx,,,,,,,,,,,,,,,,,,,,,,,,,,,,,,,
,,,,,,,,,,,,,,,683,2022-02-08_15h41.50.135,multiplicationStroop,2021.2.3,Win32,60.03842459,,,,,right,1,0.4728,0,7,7,30,1,7,6,7 | 6,1,1.4111,1.9756,incongruent,right,,,,,,stimulusFile/physical.xlsx,,,,,,,,,,,,,,,,,,,,,,,,,,,,,,,
,,,,,,,,,,,,,,,683,2022-02-08_15h41.50.135,multiplicationStroop,2021.2.3,Win32,60.03842459,,,,,right,1,0.4232,0,8,8,38,1,8,6,8 | 6,2,1.4111,1.9756,incongruent,right,,,,,,stimulusFile/physical.xlsx,,,,,,,,,,,,,,,,,,,,,,,,,,,,,,,
,,,,,,,,,,,,,,,683,2022-02-08_15h41.50.135,multiplicationStroop,2021.2.3,Win32,60.03842459,,,,,right,1,0.7082,0,9,9,28,1,2,1,2 | 1,1,1.4111,1.9756,incongruent,right,,,,,,stimulusFile/physical.xlsx,,,,,,,,,,,,,,,,,,,,,,,,,,,,,,,
,,,,,,,,,,,,,,,683,2022-02-08_15h41.50.135,multiplicationStroop,2021.2.3,Win32,60.03842459,,,,,left,1,0.5426,0,10,10,33,1,2,4,2 | 4,2,1.9756,1.4111,incongruent,left,,,,,,stimulusFile/physical.xlsx,,,,,,,,,,,,,,,,,,,,,,,,,,,,,,,
,,,,,,,,,,,,,,,683,2022-02-08_15h41.50.135,multiplicationStroop,2021.2.3,Win32,60.03842459,,,,,left,1,0.444,0,11,11,24,1,1,2,1 | 2,1,1.9756,1.4111,incongruent,left,,,,,,stimulusFile/physical.xlsx,,,,,,,,,,,,,,,,,,,,,,,,,,,,,,,
,,,,,,,,,,,,,,,683,2022-02-08_15h41.50.135,multiplicationStroop,2021.2.3,Win32,60.03842459,,,,,right,1,0.5927,0,12,12,31,1,9,8,9 | 8,1,1.4111,1.9756,incongruent,right,,,,,,stimulusFile/physical.xlsx,,,,,,,,,,,,,,,,,,,,,,,,,,,,,,,
,,,,,,,,,,,,,,,683,2022-02-08_15h41.50.135,multiplicationStroop,2021.2.3,Win32,60.03842459,,,,,right,1,0.4598,0,13,13,18,1,3,8,3 | 8,5,1.4111,1.9756,congruent,right,,,,,,stimulusFile/physical.xlsx,,,,,,,,,,,,,,,,,,,,,,,,,,,,,,,
,,,,,,,,,,,,,,,683,2022-02-08_15h41.50.135,multiplicationStroop,2021.2.3,Win32,60.03842459,,,,,left,1,0.4614,0,14,14,5,1,4,3,4 | 3,1,1.9756,1.4111,congruent,left,,,,,,stimulusFile/physical.xlsx,,,,,,,,,,,,,,,,,,,,,,,,,,,,,,,
,,,,,,,,,,,,,,,683,2022-02-08_15h41.50.135,multiplicationStroop,2021.2.3,Win32,60.03842459,,,,,left,1,0.3452,0,15,15,53,1,4,4,4 | 4,0,1.9756,1.4111,neutral,left,,,,,,stimulusFile/physical.xlsx,,,,,,,,,,,,,,,,,,,,,,,,,,,,,,,
,,,,,,,,,,,,,,,683,2022-02-08_15h41.50.135,multiplicationStroop,2021.2.3,Win32,60.03842459,,,,,right,1,0.4375,0,16,16,63,1,9,9,9 | 9,0,1.4111,1.9756,neutral,right,,,,,,stimulusFile/physical.xlsx,,,,,,,,,,,,,,,,,,,,,,,,,,,,,,,
,,,,,,,,,,,,,,,683,2022-02-08_15h41.50.135,multiplicationStroop,2021.2.3,Win32,60.03842459,,,,,right,1,0.6898,0,17,17,36,1,3,1,3 | 1,2,1.4111,1.9756,incongruent,right,,,,,,stimulusFile/physical.xlsx,,,,,,,,,,,,,,,,,,,,,,,,,,,,,,,
,,,,,,,,,,,,,,,683,2022-02-08_15h41.50.135,multiplicationStroop,2021.2.3,Win32,60.03842459,,,,,right,1,0.4496,0,18,18,3,1,8,9,8 | 9,1,1.4111,1.9756,congruent,right,,,,,,stimulusFile/physical.xlsx,,,,,,,,,,,,,,,,,,,,,,,,,,,,,,,
,,,,,,,,,,,,,,,683,2022-02-08_15h41.50.135,multiplicationStroop,2021.2.3,Win32,60.03842459,,,,,right,1,0.4771,0,19,19,16,1,1,6,1 | 6,5,1.4111,1.9756,congruent,right,,,,,,stimulusFile/physical.xlsx,,,,,,,,,,,,,,,,,,,,,,,,,,,,,,,
,,,,,,,,,,,,,,,683,2022-02-08_15h41.50.135,multiplicationStroop,2021.2.3,Win32,60.03842459,,,,,right,1,0.7186,0,20,20,56,1,1,1,1 | 1,0,1.4111,1.9756,neutral,right,,,,,,stimulusFile/physical.xlsx,,,,,,,,,,,,,,,,,,,,,,,,,,,,,,,
,,,,,,,,,,,,,,,683,2022-02-08_15h41.50.135,multiplicationStroop,2021.2.3,Win32,60.03842459,,,,,left,1,0.8309,0,21,21,40,1,1,6,1 | 6,5,1.9756,1.4111,incongruent,left,,,,,,stimulusFile/physical.xlsx,,,,,,,,,,,,,,,,,,,,,,,,,,,,,,,
,,,,,,,,,,,,,,,683,2022-02-08_15h41.50.135,multiplicationStroop,2021.2.3,Win32,60.03842459,,,,,left,1,0.3804,0,22,22,50,1,6,6,6 | 6,0,1.9756,1.4111,neutral,left,,,,,,stimulusFile/physical.xlsx,,,,,,,,,,,,,,,,,,,,,,,,,,,,,,,
,,,,,,,,,,,,,,,683,2022-02-08_15h41.50.135,multiplicationStroop,2021.2.3,Win32,60.03842459,,,,,right,1,0.618,0,23,23,60,1,3,3,3 | 3,0,1.4111,1.9756,neutral,right,,,,,,stimulusFile/physical.xlsx,,,,,,,,,,,,,,,,,,,,,,,,,,,,,,,
,,,,,,,,,,,,,,,683,2022-02-08_15h41.50.135,multiplicationStroop,2021.2.3,Win32,60.03842459,,,,,left,1,0.3699,0,24,24,4,1,2,1,2 | 1,1,1.9756,1.4111,congruent,left,,,,,,stimulusFile/physical.xlsx,,,,,,,,,,,,,,,,,,,,,,,,,,,,,,,
,,,,,,,,,,,,,,,683,2022-02-08_15h41.50.135,multiplicationStroop,2021.2.3,Win32,60.03842459,,,,,left,0,0.3301,0,25,25,64,1,1,1,1 | 1,0,1.9756,1.4111,neutral,right,,,,,,stimulusFile/physical.xlsx,,,,,,,,,,,,,,,,,,,,,,,,,,,,,,,
,,,,,,,,,,,,,,,683,2022-02-08_15h41.50.135,multiplicationStroop,2021.2.3,Win32,60.03842459,,,,,left,1,0.2845,0,26,26,51,1,8,8,8 | 8,0,1.9756,1.4111,neutral,left,,,,,,stimulusFile/physical.xlsx,,,,,,,,,,,,,,,,,,,,,,,,,,,,,,,
,,,,,,,,,,,,,,,683,2022-02-08_15h41.50.135,multiplicationStroop,2021.2.3,Win32,60.03842459,,,,,left,1,0.297,0,27,27,34,1,6,8,6 | 8,2,1.9756,1.4111,incongruent,left,,,,,,stimulusFile/physical.xlsx,,,,,,,,,,,,,,,,,,,,,,,,,,,,,,,
,,,,,,,,,,,,,,,683,2022-02-08_15h41.50.135,multiplicationStroop,2021.2.3,Win32,60.03842459,,,,,left,1,0.2873,0,28,28,23,1,9,4,9 | 4,5,1.9756,1.4111,congruent,left,,,,,,stimulusFile/physical.xlsx,,,,,,,,,,,,,,,,,,,,,,,,,,,,,,,
,,,,,,,,,,,,,,,683,2022-02-08_15h41.50.135,multiplicationStroop,2021.2.3,Win32,60.03842459,,,,,right,1,0.4169,0,29,29,65,1,2,2,2 | 2,0,1.4111,1.9756,neutral,right,,,,,,stimulusFile/physical.xlsx,,,,,,,,,,,,,,,,,,,,,,,,,,,,,,,
,,,,,,,,,,,,,,,683,2022-02-08_15h41.50.135,multiplicationStroop,2021.2.3,Win32,60.03842459,,,,,left,1,0.4027,0,30,30,68,1,6,6,6 | 6,0,1.9756,1.4111,neutral,left,,,,,,stimulusFile/physical.xlsx,,,,,,,,,,,,,,,,,,,,,,,,,,,,,,,
,,,,,,,,,,,,,,,683,2022-02-08_15h41.50.135,multiplicationStroop,2021.2.3,Win32,60.03842459,,,,,right,1,0.4979,0,31,31,10,1,6,8,6 | 8,2,1.4111,1.9756,congruent,right,,,,,,stimulusFile/physical.xlsx,,,,,,,,,,,,,,,,,,,,,,,,,,,,,,,
,,,,,,,,,,,,,,,683,2022-02-08_15h41.50.135,multiplicationStroop,2021.2.3,Win32,60.03842459,,,,,right,1,0.4969,0,32,32,58,1,6,6,6 | 6,0,1.4111,1.9756,neutral,right,,,,,,stimulusFile/physical.xlsx,,,,,,,,,,,,,,,,,,,,,,,,,,,,,,,
,,,,,,,,,,,,,,,683,2022-02-08_15h41.50.135,multiplicationStroop,2021.2.3,Win32,60.03842459,,,,,left,1,0.5625,0,33,33,7,1,9,8,9 | 8,1,1.9756,1.4111,congruent,left,,,,,,stimulusFile/physical.xlsx,,,,,,,,,,,,,,,,,,,,,,,,,,,,,,,
,,,,,,,,,,,,,,,683,2022-02-08_15h41.50.135,multiplicationStroop,2021.2.3,Win32,60.03842459,,,,,left,1,0.3679,0,34,34,25,1,3,4,3 | 4,1,1.9756,1.4111,incongruent,left,,,,,,stimulusFile/physical.xlsx,,,,,,,,,,,,,,,,,,,,,,,,,,,,,,,
,,,,,,,,,,,,,,,683,2022-02-08_15h41.50.135,multiplicationStroop,2021.2.3,Win32,60.03842459,,,,,left,1,0.5182,0,35,35,54,1,7,7,7 | 7,0,1.9756,1.4111,neutral,left,,,,,,stimulusFile/physical.xlsx,,,,,,,,,,,,,,,,,,,,,,,,,,,,,,,
,,,,,,,,,,,,,,,683,2022-02-08_15h41.50.135,multiplicationStroop,2021.2.3,Win32,60.03842459,,,,,right,1,0.4629,0,36,36,0,1,1,2,1 | 2,1,1.4111,1.9756,congruent,right,,,,,,stimulusFile/physical.xlsx,,,,,,,,,,,,,,,,,,,,,,,,,,,,,,,
,,,,,,,,,,,,,,,683,2022-02-08_15h41.50.135,multiplicationStroop,2021.2.3,Win32,60.03842459,,,,,right,1,0.586,0,37,37,9,1,2,4,2 | 4,2,1.4111,1.9756,congruent,right,,,,,,stimulusFile/physical.xlsx,,,,,,,,,,,,,,,,,,,,,,,,,,,,,,,
,,,,,,,,,,,,,,,683,2022-02-08_15h41.50.135,multiplicationStroop,2021.2.3,Win32,60.03842459,,,,,right,1,0.528,0,38,38,8,1,1,3,1 | 3,2,1.4111,1.9756,congruent,right,,,,,,stimulusFile/physical.xlsx,,,,,,,,,,,,,,,,,,,,,,,,,,,,,,,
,,,,,,,,,,,,,,,683,2022-02-08_15h41.50.135,multiplicationStroop,2021.2.3,Win32,60.03842459,,,,,right,1,0.4543,0,39,39,45,1,7,2,7 | 2,5,1.4111,1.9756,incongruent,right,,,,,,stimulusFile/physical.xlsx,,,,,,,,,,,,,,,,,,,,,,,,,,,,,,,
,,,,,,,,,,,,,,,683,2022-02-08_15h41.50.135,multiplicationStroop,2021.2.3,Win32,60.03842459,,,,,left,1,0.4566,0,40,40,12,1,3,1,3 | 1,2,1.9756,1.4111,congruent,left,,,,,,stimulusFile/physical.xlsx,,,,,,,,,,,,,,,,,,,,,,,,,,,,,,,
,,,,,,,,,,,,,,,683,2022-02-08_15h41.50.135,multiplicationStroop,2021.2.3,Win32,60.03842459,,,,,left,1,0.3959,0,41,41,27,1,8,9,8 | 9,1,1.9756,1.4111,incongruent,left,,,,,,stimulusFile/physical.xlsx,,,,,,,,,,,,,,,,,,,,,,,,,,,,,,,
,,,,,,,,,,,,,,,683,2022-02-08_15h41.50.135,multiplicationStroop,2021.2.3,Win32,60.03842459,,,,,left,1,0.4349,0,42,42,43,1,4,9,4 | 9,5,1.9756,1.4111,incongruent,left,,,,,,stimulusFile/physical.xlsx,,,,,,,,,,,,,,,,,,,,,,,,,,,,,,,
,,,,,,,,,,,,,,,683,2022-02-08_15h41.50.135,multiplicationStroop,2021.2.3,Win32,60.03842459,,,,,left,0,0.2995,0,43,43,17,1,2,7,2 | 7,5,1.4111,1.9756,congruent,right,,,,,,stimulusFile/physical.xlsx,,,,,,,,,,,,,,,,,,,,,,,,,,,,,,,
,,,,,,,,,,,,,,,683,2022-02-08_15h41.50.135,multiplicationStroop,2021.2.3,Win32,60.03842459,,,,,right,0,0.7277,0,44,44,71,1,9,9,9 | 9,0,1.4111,1.9756,neutral,left,,,,,,stimulusFile/physical.xlsx,,,,,,,,,,,,,,,,,,,,,,,,,,,,,,,
,,,,,,,,,,,,,,,683,2022-02-08_15h41.50.135,multiplicationStroop,2021.2.3,Win32,60.03842459,,,,,right,1,0.4655,0,45,45,11,1,7,9,7 | 9,2,1.4111,1.9756,congruent,right,,,,,,stimulusFile/physical.xlsx,,,,,,,,,,,,,,,,,,,,,,,,,,,,,,,
,,,,,,,,,,,,,,,683,2022-02-08_15h41.50.135,multiplicationStroop,2021.2.3,Win32,60.03842459,,,,,left,1,0.5172,0,46,46,6,1,7,6,7 | 6,1,1.9756,1.4111,congruent,left,,,,,,stimulusFile/physical.xlsx,,,,,,,,,,,,,,,,,,,,,,,,,,,,,,,
,,,,,,,,,,,,,,,683,2022-02-08_15h41.50.135,multiplicationStroop,2021.2.3,Win32,60.03842459,,,,,left,1,0.5459,0,47,47,70,1,8,8,8 | 8,0,1.9756,1.4111,neutral,left,,,,,,stimulusFile/physical.xlsx,,,,,,,,,,,,,,,,,,,,,,,,,,,,,,,
,,,,,,,,,,,,,,,683,2022-02-08_15h41.50.135,multiplicationStroop,2021.2.3,Win32,60.03842459,,,,,left,1,0.4366,0,48,48,22,1,8,3,8 | 3,5,1.9756,1.4111,congruent,left,,,,,,stimulusFile/physical.xlsx,,,,,,,,,,,,,,,,,,,,,,,,,,,,,,,
,,,,,,,,,,,,,,,683,2022-02-08_15h41.50.135,multiplicationStroop,2021.2.3,Win32,60.03842459,,,,,left,0,0.3706,0,49,49,39,1,9,7,9 | 7,2,1.4111,1.9756,incongruent,right,,,,,,stimulusFile/physical.xlsx,,,,,,,,,,,,,,,,,,,,,,,,,,,,,,,
,,,,,,,,,,,,,,,683,2022-02-08_15h41.50.135,multiplicationStroop,2021.2.3,Win32,60.03842459,,,,,right,0,0.5094,0,50,50,69,1,7,7,7 | 7,0,1.4111,1.9756,neutral,left,,,,,,stimulusFile/physical.xlsx,,,,,,,,,,,,,,,,,,,,,,,,,,,,,,,
,,,,,,,,,,,,,,,683,2022-02-08_15h41.50.135,multiplicationStroop,2021.2.3,Win32,60.03842459,,,,,right,1,0.4966,0,51,51,62,1,8,8,8 | 8,0,1.4111,1.9756,neutral,right,,,,,,stimulusFile/physical.xlsx,,,,,,,,,,,,,,,,,,,,,,,,,,,,,,,
,,,,,,,,,,,,,,,683,2022-02-08_15h41.50.135,multiplicationStroop,2021.2.3,Win32,60.03842459,,,,,left,0,0.5239,0,52,52,66,1,3,3,3 | 3,0,1.9756,1.4111,neutral,right,,,,,,stimulusFile/physical.xlsx,,,,,,,,,,,,,,,,,,,,,,,,,,,,,,,
,,,,,,,,,,,,,,,683,2022-02-08_15h41.50.135,multiplicationStroop,2021.2.3,Win32,60.03842459,,,,,right,1,0.5331,0,53,53,44,1,6,1,6 | 1,5,1.4111,1.9756,incongruent,right,,,,,,stimulusFile/physical.xlsx,,,,,,,,,,,,,,,,,,,,,,,,,,,,,,,
,,,,,,,,,,,,,,,683,2022-02-08_15h41.50.135,multiplicationStroop,2021.2.3,Win32,60.03842459,,,,,left,1,0.4519,0,54,54,41,1,2,7,2 | 7,5,1.9756,1.4111,incongruent,left,,,,,,stimulusFile/physical.xlsx,,,,,,,,,,,,,,,,,,,,,,,,,,,,,,,
,,,,,,,,,,,,,,,683,2022-02-08_15h41.50.135,multiplicationStroop,2021.2.3,Win32,60.03842459,,,,,left,1,0.428,0,55,55,42,1,3,8,3 | 8,5,1.9756,1.4111,incongruent,left,,,,,,stimulusFile/physical.xlsx,,,,,,,,,,,,,,,,,,,,,,,,,,,,,,,
,,,,,,,,,,,,,,,683,2022-02-08_15h41.50.135,multiplicationStroop,2021.2.3,Win32,60.03842459,,,,,left,1,0.4304,0,56,56,35,1,7,9,7 | 9,2,1.9756,1.4111,incongruent,left,,,,,,stimulusFile/physical.xlsx,,,,,,,,,,,,,,,,,,,,,,,,,,,,,,,
,,,,,,,,,,,,,,,683,2022-02-08_15h41.50.135,multiplicationStroop,2021.2.3,Win32,60.03842459,,,,,right,1,0.4347,0,57,57,47,1,9,4,9 | 4,5,1.4111,1.9756,incongruent,right,,,,,,stimulusFile/physical.xlsx,,,,,,,,,,,,,,,,,,,,,,,,,,,,,,,
,,,,,,,,,,,,,,,683,2022-02-08_15h41.50.135,multiplicationStroop,2021.2.3,Win32,60.03842459,,,,,right,1,0.5357,0,58,58,46,1,8,3,8 | 3,5,1.4111,1.9756,incongruent,right,,,,,,stimulusFile/physical.xlsx,,,,,,,,,,,,,,,,,,,,,,,,,,,,,,,
,,,,,,,,,,,,,,,683,2022-02-08_15h41.50.135,multiplicationStroop,2021.2.3,Win32,60.03842459,,,,,right,1,0.6615,0,59,59,57,1,2,2,2 | 2,0,1.4111,1.9756,neutral,right,,,,,,stimulusFile/physical.xlsx,,,,,,,,,,,,,,,,,,,,,,,,,,,,,,,
,,,,,,,,,,,,,,,683,2022-02-08_15h41.50.135,multiplicationStroop,2021.2.3,Win32,60.03842459,,,,,left,1,0.5216,0,60,60,21,1,7,2,7 | 2,5,1.9756,1.4111,congruent,left,,,,,,stimulusFile/physical.xlsx,,,,,,,,,,,,,,,,,,,,,,,,,,,,,,,
,,,,,,,,,,,,,,,683,2022-02-08_15h41.50.135,multiplicationStroop,2021.2.3,Win32,60.03842459,,,,,left,1,0.4944,0,61,61,32,1,1,3,1 | 3,2,1.9756,1.4111,incongruent,left,,,,,,stimulusFile/physical.xlsx,,,,,,,,,,,,,,,,,,,,,,,,,,,,,,,
,,,,,,,,,,,,,,,683,2022-02-08_15h41.50.135,multiplicationStroop,2021.2.3,Win32,60.03842459,,,,,left,1,0.3461,0,62,62,55,1,9,9,9 | 9,0,1.9756,1.4111,neutral,left,,,,,,stimulusFile/physical.xlsx,,,,,,,,,,,,,,,,,,,,,,,,,,,,,,,
,,,,,,,,,,,,,,,683,2022-02-08_15h41.50.135,multiplicationStroop,2021.2.3,Win32,60.03842459,,,,,left,1,0.3476,0,63,63,15,1,9,7,9 | 7,2,1.9756,1.4111,congruent,left,,,,,,stimulusFile/physical.xlsx,,,,,,,,,,,,,,,,,,,,,,,,,,,,,,,
,,,,,,,,,,,,,,,683,2022-02-08_15h41.50.135,multiplicationStroop,2021.2.3,Win32,60.03842459,,,,,right,1,0.438,0,64,64,19,1,4,9,4 | 9,5,1.4111,1.9756,congruent,right,,,,,,stimulusFile/physical.xlsx,,,,,,,,,,,,,,,,,,,,,,,,,,,,,,,
,,,,,,,,,,,,,,,683,2022-02-08_15h41.50.135,multiplicationStroop,2021.2.3,Win32,60.03842459,,,,,left,1,0.432,0,65,65,48,1,1,1,1 | 1,0,1.9756,1.4111,neutral,left,,,,,,stimulusFile/physical.xlsx,,,,,,,,,,,,,,,,,,,,,,,,,,,,,,,
,,,,,,,,,,,,,,,683,2022-02-08_15h41.50.135,multiplicationStroop,2021.2.3,Win32,60.03842459,,,,,left,1,0.3514,0,66,66,26,1,6,7,6 | 7,1,1.9756,1.4111,incongruent,left,,,,,,stimulusFile/physical.xlsx,,,,,,,,,,,,,,,,,,,,,,,,,,,,,,,
,,,,,,,,,,,,,,,683,2022-02-08_15h41.50.135,multiplicationStroop,2021.2.3,Win32,60.03842459,,,,,left,1,0.3207,0,67,67,20,1,6,1,6 | 1,5,1.9756,1.4111,congruent,left,,,,,,stimulusFile/physical.xlsx,,,,,,,,,,,,,,,,,,,,,,,,,,,,,,,
,,,,,,,,,,,,,,,683,2022-02-08_15h41.50.135,multiplicationStroop,2021.2.3,Win32,60.03842459,,,,,left,1,0.2816,0,68,68,13,1,4,2,4 | 2,2,1.9756,1.4111,congruent,left,,,,,,stimulusFile/physical.xlsx,,,,,,,,,,,,,,,,,,,,,,,,,,,,,,,
,,,,,,,,,,,,,,,683,2022-02-08_15h41.50.135,multiplicationStroop,2021.2.3,Win32,60.03842459,,,,,left,1,0.5331,0,69,69,52,1,2,2,2 | 2,0,1.9756,1.4111,neutral,left,,,,,,stimulusFile/physical.xlsx,,,,,,,,,,,,,,,,,,,,,,,,,,,,,,,
,,,,,,,,,,,,,,,683,2022-02-08_15h41.50.135,multiplicationStroop,2021.2.3,Win32,60.03842459,,,,,left,0,0.293,0,70,70,61,1,4,4,4 | 4,0,1.4111,1.9756,neutral,right,,,,,,stimulusFile/physical.xlsx,,,,,,,,,,,,,,,,,,,,,,,,,,,,,,,
,,,,,,,,,,,,,,,683,2022-02-08_15h41.50.135,multiplicationStroop,2021.2.3,Win32,60.03842459,,,,,right,1,0.4621,0,71,71,59,1,7,7,7 | 7,0,1.4111,1.9756,neutral,right,,,,,,stimulusFile/physical.xlsx,,,,,,,,,,,,,,,,,,,,,,,,,,,,,,,
,,,,,,,,,,,,,,,683,2022-02-08_15h41.50.135,multiplicationStroop,2021.2.3,Win32,60.03842459,,,,,,,,,,,,,,,,,,,,,0,0,0,1,1,stimulusFile/physical.xlsx,PHYSICALLY larger (larger font size).,images/physicallyLarger.png,,,,,,,,,,,,,,,,,,,,,,,,,,,,,
,,,,,,,,,,,,,,,683,2022-02-08_15h41.50.135,multiplicationStroop,2021.2.3,Win32,60.03842459,space,6.7845,space,1.8266,right,1,0.6089,0,0,0,19,1,4,9,4 | 9,5,1.4111,1.9756,congruent,right,,,,,,stimulusFile/magnitude.xlsx,,,,,,,,,,,,,,,,,,,,,,,,,,,,,,,
,,,,,,,,,,,,,,,683,2022-02-08_15h41.50.135,multiplicationStroop,2021.2.3,Win32,60.03842459,,,,,right,1,0.7448,0,1,1,64,1,1,6,1 | 6,5,1.6933,1.6933,neutral,right,,,,,,stimulusFile/magnitude.xlsx,,,,,,,,,,,,,,,,,,,,,,,,,,,,,,,
,,,,,,,,,,,,,,,683,2022-02-08_15h41.50.135,multiplicationStroop,2021.2.3,Win32,60.03842459,,,,,left,1,0.6355,0,2,2,46,1,8,3,8 | 3,5,1.4111,1.9756,incongruent,left,,,,,,stimulusFile/magnitude.xlsx,,,,,,,,,,,,,,,,,,,,,,,,,,,,,,,
,,,,,,,,,,,,,,,683,2022-02-08_15h41.50.135,multiplicationStroop,2021.2.3,Win32,60.03842459,,,,,right,1,0.7743,0,3,3,8,1,1,3,1 | 3,2,1.4111,1.9756,congruent,right,,,,,,stimulusFile/magnitude.xlsx,,,,,,,,,,,,,,,,,,,,,,,,,,,,,,,
,,,,,,,,,,,,,,,683,2022-02-08_15h41.50.135,multiplicationStroop,2021.2.3,Win32,60.03842459,,,,,right,1,0.7442,0,4,4,67,1,4,9,4 | 9,5,1.6933,1.6933,neutral,right,,,,,,stimulusFile/magnitude.xlsx,,,,,,,,,,,,,,,,,,,,,,,,,,,,,,,
,,,,,,,,,,,,,,,683,2022-02-08_15h41.50.135,multiplicationStroop,2021.2.3,Win32,60.03842459,,,,,right,0,0.4621,0,5,5,31,1,9,8,9 | 8,1,1.4111,1.9756,incongruent,left,,,,,,stimulusFile/magnitude.xlsx,,,,,,,,,,,,,,,,,,,,,,,,,,,,,,,
,,,,,,,,,,,,,,,683,2022-02-08_15h41.50.135,multiplicationStroop,2021.2.3,Win32,60.03842459,,,,,left,1,1.1611,0,6,6,12,1,3,1,3 | 1,2,1.9756,1.4111,congruent,left,,,,,,stimulusFile/magnitude.xlsx,,,,,,,,,,,,,,,,,,,,,,,,,,,,,,,
,,,,,,,,,,,,,,,683,2022-02-08_15h41.50.135,multiplicationStroop,2021.2.3,Win32,60.03842459,,,,,left,1,0.6017,0,7,7,37,1,4,2,4 | 2,2,1.4111,1.9756,incongruent,left,,,,,,stimulusFile/magnitude.xlsx,,,,,,,,,,,,,,,,,,,,,,,,,,,,,,,
,,,,,,,,,,,,,,,683,2022-02-08_15h41.50.135,multiplicationStroop,2021.2.3,Win32,60.03842459,,,,,right,1,0.7632,0,8,8,34,1,6,8,6 | 8,2,1.9756,1.4111,incongruent,right,,,,,,stimulusFile/magnitude.xlsx,,,,,,,,,,,,,,,,,,,,,,,,,,,,,,,
,,,,,,,,,,,,,,,683,2022-02-08_15h41.50.135,multiplicationStroop,2021.2.3,Win32,60.03842459,,,,,left,1,0.7105,0,9,9,68,1,6,1,6 | 1,5,1.6933,1.6933,neutral,left,,,,,,stimulusFile/magnitude.xlsx,,,,,,,,,,,,,,,,,,,,,,,,,,,,,,,
,,,,,,,,,,,,,,,683,2022-02-08_15h41.50.135,multiplicationStroop,2021.2.3,Win32,60.03842459,,,,,right,1,0.6633,0,10,10,59,1,7,9,7 | 9,2,1.6933,1.6933,neutral,right,,,,,,stimulusFile/magnitude.xlsx,,,,,,,,,,,,,,,,,,,,,,,,,,,,,,,
,,,,,,,,,,,,,,,683,2022-02-08_15h41.50.135,multiplicationStroop,2021.2.3,Win32,60.03842459,,,,,right,1,0.6423,0,11,11,18,1,3,8,3 | 8,5,1.4111,1.9756,congruent,right,,,,,,stimulusFile/magnitude.xlsx,,,,,,,,,,,,,,,,,,,,,,,,,,,,,,,
,,,,,,,,,,,,,,,683,2022-02-08_15h41.50.135,multiplicationStroop,2021.2.3,Win32,60.03842459,,,,,left,1,0.8589,0,12,12,6,1,7,6,7 | 6,1,1.9756,1.4111,congruent,left,,,,,,stimulusFile/magnitude.xlsx,,,,,,,,,,,,,,,,,,,,,,,,,,,,,,,
,,,,,,,,,,,,,,,683,2022-02-08_15h41.50.135,multiplicationStroop,2021.2.3,Win32,60.03842459,,,,,left,1,0.5429,0,13,13,13,1,4,2,4 | 2,2,1.9756,1.4111,congruent,left,,,,,,stimulusFile/magnitude.xlsx,,,,,,,,,,,,,,,,,,,,,,,,,,,,,,,
,,,,,,,,,,,,,,,683,2022-02-08_15h41.50.135,multiplicationStroop,2021.2.3,Win32,60.03842459,,,,,right,1,0.499,0,14,14,40,1,1,6,1 | 6,5,1.9756,1.4111,incongruent,right,,,,,,stimulusFile/magnitude.xlsx,,,,,,,,,,,,,,,,,,,,,,,,,,,,,,,
,,,,,,,,,,,,,,,683,2022-02-08_15h41.50.135,multiplicationStroop,2021.2.3,Win32,60.03842459,,,,,left,1,1.1384,0,15,15,45,1,7,2,7 | 2,5,1.4111,1.9756,incongruent,left,,,,,,stimulusFile/magnitude.xlsx,,,,,,,,,,,,,,,,,,,,,,,,,,,,,,,
,,,,,,,,,,,,,,,683,2022-02-08_15h41.50.135,multiplicationStroop,2021.2.3,Win32,60.03842459,,,,,left,1,0.6304,0,16,16,69,1,7,2,7 | 2,5,1.6933,1.6933,neutral,left,,,,,,stimulusFile/magnitude.xlsx,,,,,,,,,,,,,,,,,,,,,,,,,,,,,,,
,,,,,,,,,,,,,,,683,2022-02-08_15h41.50.135,multiplicationStroop,2021.2.3,Win32,60.03842459,,,,,right,1,0.6338,0,17,17,48,1,1,2,1 | 2,1,1.6933,1.6933,neutral,right,,,,,,stimulusFile/magnitude.xlsx,,,,,,,,,,,,,,,,,,,,,,,,,,,,,,,
,,,,,,,,,,,,,,,683,2022-02-08_15h41.50.135,multiplicationStroop,2021.2.3,Win32,60.03842459,,,,,left,1,0.5684,0,18,18,60,1,3,1,3 | 1,2,1.6933,1.6933,neutral,left,,,,,,stimulusFile/magnitude.xlsx,,,,,,,,,,,,,,,,,,,,,,,,,,,,,,,
,,,,,,,,,,,,,,,683,2022-02-08_15h41.50.135,multiplicationStroop,2021.2.3,Win32,60.03842459,,,,,left,1,0.8129,0,19,19,62,1,8,6,8 | 6,2,1.6933,1.6933,neutral,left,,,,,,stimulusFile/magnitude.xlsx,,,,,,,,,,,,,,,,,,,,,,,,,,,,,,,
,,,,,,,,,,,,,,,683,2022-02-08_15h41.50.135,multiplicationStroop,2021.2.3,Win32,60.03842459,,,,,right,1,0.5461,0,20,20,50,1,6,7,6 | 7,1,1.6933,1.6933,neutral,right,,,,,,stimulusFile/magnitude.xlsx,,,,,,,,,,,,,,,,,,,,,,,,,,,,,,,
,,,,,,,,,,,,,,,683,2022-02-08_15h41.50.135,multiplicationStroop,2021.2.3,Win32,60.03842459,,,,,left,1,0.6721,0,21,21,36,1,3,1,3 | 1,2,1.4111,1.9756,incongruent,left,,,,,,stimulusFile/magnitude.xlsx,,,,,,,,,,,,,,,,,,,,,,,,,,,,,,,
,,,,,,,,,,,,,,,683,2022-02-08_15h41.50.135,multiplicationStroop,2021.2.3,Win32,60.03842459,,,,,left,1,0.4879,0,22,22,70,1,8,3,8 | 3,5,1.6933,1.6933,neutral,left,,,,,,stimulusFile/magnitude.xlsx,,,,,,,,,,,,,,,,,,,,,,,,,,,,,,,
,,,,,,,,,,,,,,,683,2022-02-08_15h41.50.135,multiplicationStroop,2021.2.3,Win32,60.03842459,,,,,right,1,0.6752,0,23,23,43,1,4,9,4 | 9,5,1.9756,1.4111,incongruent,right,,,,,,stimulusFile/magnitude.xlsx,,,,,,,,,,,,,,,,,,,,,,,,,,,,,,,
,,,,,,,,,,,,,,,683,2022-02-08_15h41.50.135,multiplicationStroop,2021.2.3,Win32,60.03842459,,,,,left,1,0.4727,0,24,24,22,1,8,3,8 | 3,5,1.9756,1.4111,congruent,left,,,,,,stimulusFile/magnitude.xlsx,,,,,,,,,,,,,,,,,,,,,,,,,,,,,,,
,,,,,,,,,,,,,,,683,2022-02-08_15h41.50.135,multiplicationStroop,2021.2.3,Win32,60.03842459,,,,,right,1,0.6778,0,25,25,11,1,7,9,7 | 9,2,1.4111,1.9756,congruent,right,,,,,,stimulusFile/magnitude.xlsx,,,,,,,,,,,,,,,,,,,,,,,,,,,,,,,
,,,,,,,,,,,,,,,683,2022-02-08_15h41.50.135,multiplicationStroop,2021.2.3,Win32,60.03842459,,,,,left,1,0.5803,0,26,26,28,1,2,1,2 | 1,1,1.4111,1.9756,incongruent,left,,,,,,stimulusFile/magnitude.xlsx,,,,,,,,,,,,,,,,,,,,,,,,,,,,,,,
,,,,,,,,,,,,,,,683,2022-02-08_15h41.50.135,multiplicationStroop,2021.2.3,Win32,60.03842459,,,,,right,1,0.6628,0,27,27,58,1,6,8,6 | 8,2,1.6933,1.6933,neutral,right,,,,,,stimulusFile/magnitude.xlsx,,,,,,,,,,,,,,,,,,,,,,,,,,,,,,,
,,,,,,,,,,,,,,,683,2022-02-08_15h41.50.135,multiplicationStroop,2021.2.3,Win32,60.03842459,,,,,right,1,0.6133,0,28,28,33,1,2,4,2 | 4,2,1.9756,1.4111,incongruent,right,,,,,,stimulusFile/magnitude.xlsx,,,,,,,,,,,,,,,,,,,,,,,,,,,,,,,
,,,,,,,,,,,,,,,683,2022-02-08_15h41.50.135,multiplicationStroop,2021.2.3,Win32,60.03842459,,,,,right,1,0.4781,0,29,29,17,1,2,7,2 | 7,5,1.4111,1.9756,congruent,right,,,,,,stimulusFile/magnitude.xlsx,,,,,,,,,,,,,,,,,,,,,,,,,,,,,,,
,,,,,,,,,,,,,,,683,2022-02-08_15h41.50.135,multiplicationStroop,2021.2.3,Win32,60.03842459,,,,,left,1,0.7277,0,30,30,29,1,4,3,4 | 3,1,1.4111,1.9756,incongruent,left,,,,,,stimulusFile/magnitude.xlsx,,,,,,,,,,,,,,,,,,,,,,,,,,,,,,,
,,,,,,,,,,,,,,,683,2022-02-08_15h41.50.135,multiplicationStroop,2021.2.3,Win32,60.03842459,,,,,right,1,0.736,0,31,31,27,1,8,9,8 | 9,1,1.9756,1.4111,incongruent,right,,,,,,stimulusFile/magnitude.xlsx,,,,,,,,,,,,,,,,,,,,,,,,,,,,,,,
,,,,,,,,,,,,,,,683,2022-02-08_15h41.50.135,multiplicationStroop,2021.2.3,Win32,60.03842459,,,,,left,1,1.2746,0,32,32,14,1,8,6,8 | 6,2,1.9756,1.4111,congruent,left,,,,,,stimulusFile/magnitude.xlsx,,,,,,,,,,,,,,,,,,,,,,,,,,,,,,,
,,,,,,,,,,,,,,,683,2022-02-08_15h41.50.135,multiplicationStroop,2021.2.3,Win32,60.03842459,,,,,right,1,0.9323,0,33,33,57,1,2,4,2 | 4,2,1.6933,1.6933,neutral,right,,,,,,stimulusFile/magnitude.xlsx,,,,,,,,,,,,,,,,,,,,,,,,,,,,,,,
,,,,,,,,,,,,,,,683,2022-02-08_15h41.50.135,multiplicationStroop,2021.2.3,Win32,60.03842459,,,,,left,1,1.2011,0,34,34,53,1,4,3,4 | 3,1,1.6933,1.6933,neutral,left,,,,,,stimulusFile/magnitude.xlsx,,,,,,,,,,,,,,,,,,,,,,,,,,,,,,,
,,,,,,,,,,,,,,,683,2022-02-08_15h41.50.135,multiplicationStroop,2021.2.3,Win32,60.03842459,,,,,right,1,0.5358,0,35,35,66,1,3,8,3 | 8,5,1.6933,1.6933,neutral,right,,,,,,stimulusFile/magnitude.xlsx,,,,,,,,,,,,,,,,,,,,,,,,,,,,,,,
,,,,,,,,,,,,,,,683,2022-02-08_15h41.50.135,multiplicationStroop,2021.2.3,Win32,60.03842459,,,,,left,1,0.4936,0,36,36,23,1,9,4,9 | 4,5,1.9756,1.4111,congruent,left,,,,,,stimulusFile/magnitude.xlsx,,,,,,,,,,,,,,,,,,,,,,,,,,,,,,,
,,,,,,,,,,,,,,,683,2022-02-08_15h41.50.135,multiplicationStroop,2021.2.3,Win32,60.03842459,,,,,right,1,0.9523,0,37,37,3,1,8,9,8 | 9,1,1.4111,1.9756,congruent,right,,,,,,stimulusFile/magnitude.xlsx,,,,,,,,,,,,,,,,,,,,,,,,,,,,,,,
,,,,,,,,,,,,,,,683,2022-02-08_15h41.50.135,multiplicationStroop,2021.2.3,Win32,60.03842459,,,,,left,1,0.5,0,38,38,5,1,4,3,4 | 3,1,1.9756,1.4111,congruent,left,,,,,,stimulusFile/magnitude.xlsx,,,,,,,,,,,,,,,,,,,,,,,,,,,,,,,
,,,,,,,,,,,,,,,683,2022-02-08_15h41.50.135,multiplicationStroop,2021.2.3,Win32,60.03842459,,,,,left,1,0.5702,0,39,39,39,1,9,7,9 | 7,2,1.4111,1.9756,incongruent,left,,,,,,stimulusFile/magnitude.xlsx,,,,,,,,,,,,,,,,,,,,,,,,,,,,,,,
,,,,,,,,,,,,,,,683,2022-02-08_15h41.50.135,multiplicationStroop,2021.2.3,Win32,60.03842459,,,,,right,1,0.6162,0,40,40,51,1,8,9,8 | 9,1,1.6933,1.6933,neutral,right,,,,,,stimulusFile/magnitude.xlsx,,,,,,,,,,,,,,,,,,,,,,,,,,,,,,,
,,,,,,,,,,,,,,,683,2022-02-08_15h41.50.135,multiplicationStroop,2021.2.3,Win32,60.03842459,,,,,left,1,0.7716,0,41,41,54,1,7,6,7 | 6,1,1.6933,1.6933,neutral,left,,,,,,stimulusFile/magnitude.xlsx,,,,,,,,,,,,,,,,,,,,,,,,,,,,,,,
,,,,,,,,,,,,,,,683,2022-02-08_15h41.50.135,multiplicationStroop,2021.2.3,Win32,60.03842459,,,,,right,1,0.5942,0,42,42,56,1,1,3,1 | 3,2,1.6933,1.6933,neutral,right,,,,,,stimulusFile/magnitude.xlsx,,,,,,,,,,,,,,,,,,,,,,,,,,,,,,,
,,,,,,,,,,,,,,,683,2022-02-08_15h41.50.135,multiplicationStroop,2021.2.3,Win32,60.03842459,,,,,left,1,0.4614,0,43,43,4,1,2,1,2 | 1,1,1.9756,1.4111,congruent,left,,,,,,stimulusFile/magnitude.xlsx,,,,,,,,,,,,,,,,,,,,,,,,,,,,,,,
,,,,,,,,,,,,,,,683,2022-02-08_15h41.50.135,multiplicationStroop,2021.2.3,Win32,60.03842459,,,,,left,1,0.5776,0,44,44,61,1,4,2,4 | 2,2,1.6933,1.6933,neutral,left,,,,,,stimulusFile/magnitude.xlsx,,,,,,,,,,,,,,,,,,,,,,,,,,,,,,,
,,,,,,,,,,,,,,,683,2022-02-08_15h41.50.135,multiplicationStroop,2021.2.3,Win32,60.03842459,,,,,right,1,0.7098,0,45,45,35,1,7,9,7 | 9,2,1.9756,1.4111,incongruent,right,,,,,,stimulusFile/magnitude.xlsx,,,,,,,,,,,,,,,,,,,,,,,,,,,,,,,
,,,,,,,,,,,,,,,683,2022-02-08_15h41.50.135,multiplicationStroop,2021.2.3,Win32,60.03842459,,,,,left,1,0.6575,0,46,46,55,1,9,8,9 | 8,1,1.6933,1.6933,neutral,left,,,,,,stimulusFile/magnitude.xlsx,,,,,,,,,,,,,,,,,,,,,,,,,,,,,,,
,,,,,,,,,,,,,,,683,2022-02-08_15h41.50.135,multiplicationStroop,2021.2.3,Win32,60.03842459,,,,,right,1,0.7047,0,47,47,26,1,6,7,6 | 7,1,1.9756,1.4111,incongruent,right,,,,,,stimulusFile/magnitude.xlsx,,,,,,,,,,,,,,,,,,,,,,,,,,,,,,,
,,,,,,,,,,,,,,,683,2022-02-08_15h41.50.135,multiplicationStroop,2021.2.3,Win32,60.03842459,,,,,left,1,0.6117,0,48,48,63,1,9,7,9 | 7,2,1.6933,1.6933,neutral,left,,,,,,stimulusFile/magnitude.xlsx,,,,,,,,,,,,,,,,,,,,,,,,,,,,,,,
,,,,,,,,,,,,,,,683,2022-02-08_15h41.50.135,multiplicationStroop,2021.2.3,Win32,60.03842459,,,,,right,1,0.822,0,49,49,49,1,3,4,3 | 4,1,1.6933,1.6933,neutral,right,,,,,,stimulusFile/magnitude.xlsx,,,,,,,,,,,,,,,,,,,,,,,,,,,,,,,
,,,,,,,,,,,,,,,683,2022-02-08_15h41.50.135,multiplicationStroop,2021.2.3,Win32,60.03842459,,,,,left,1,0.5178,0,50,50,21,1,7,2,7 | 2,5,1.9756,1.4111,congruent,left,,,,,,stimulusFile/magnitude.xlsx,,,,,,,,,,,,,,,,,,,,,,,,,,,,,,,
,,,,,,,,,,,,,,,683,2022-02-08_15h41.50.135,multiplicationStroop,2021.2.3,Win32,60.03842459,,,,,left,1,0.488,0,51,51,15,1,9,7,9 | 7,2,1.9756,1.4111,congruent,left,,,,,,stimulusFile/magnitude.xlsx,,,,,,,,,,,,,,,,,,,,,,,,,,,,,,,
,,,,,,,,,,,,,,,683,2022-02-08_15h41.50.135,multiplicationStroop,2021.2.3,Win32,60.03842459,,,,,right,1,0.5743,0,52,52,41,1,2,7,2 | 7,5,1.9756,1.4111,incongruent,right,,,,,,stimulusFile/magnitude.xlsx,,,,,,,,,,,,,,,,,,,,,,,,,,,,,,,
,,,,,,,,,,,,,,,683,2022-02-08_15h41.50.135,multiplicationStroop,2021.2.3,Win32,60.03842459,,,,,right,1,0.4889,0,53,53,16,1,1,6,1 | 6,5,1.4111,1.9756,congruent,right,,,,,,stimulusFile/magnitude.xlsx,,,,,,,,,,,,,,,,,,,,,,,,,,,,,,,
,,,,,,,,,,,,,,,683,2022-02-08_15h41.50.135,multiplicationStroop,2021.2.3,Win32,60.03842459,,,,,left,1,1.5056,0,54,54,30,1,7,6,7 | 6,1,1.4111,1.9756,incongruent,left,,,,,,stimulusFile/magnitude.xlsx,,,,,,,,,,,,,,,,,,,,,,,,,,,,,,,
,,,,,,,,,,,,,,,683,2022-02-08_15h41.50.135,multiplicationStroop,2021.2.3,Win32,60.03842459,,,,,right,1,1.0552,0,55,55,1,1,3,4,3 | 4,1,1.4111,1.9756,congruent,right,,,,,,stimulusFile/magnitude.xlsx,,,,,,,,,,,,,,,,,,,,,,,,,,,,,,,
,,,,,,,,,,,,,,,683,2022-02-08_15h41.50.135,multiplicationStroop,2021.2.3,Win32,60.03842459,,,,,right,1,0.5306,0,56,56,9,1,2,4,2 | 4,2,1.4111,1.9756,congruent,right,,,,,,stimulusFile/magnitude.xlsx,,,,,,,,,,,,,,,,,,,,,,,,,,,,,,,
,,,,,,,,,,,,,,,683,2022-02-08_15h41.50.135,multiplicationStroop,2021.2.3,Win32,60.03842459,,,,,right,1,0.9273,0,57,57,32,1,1,3,1 | 3,2,1.9756,1.4111,incongruent,right,,,,,,stimulusFile/magnitude.xlsx,,,,,,,,,,,,,,,,,,,,,,,,,,,,,,,
,,,,,,,,,,,,,,,683,2022-02-08_15h41.50.135,multiplicationStroop,2021.2.3,Win32,60.03842459,,,,,right,1,0.7443,0,58,58,25,1,3,4,3 | 4,1,1.9756,1.4111,incongruent,right,,,,,,stimulusFile/magnitude.xlsx,,,,,,,,,,,,,,,,,,,,,,,,,,,,,,,
,,,,,,,,,,,,,,,683,2022-02-08_15h41.50.135,multiplicationStroop,2021.2.3,Win32,60.03842459,,,,,left,1,0.6126,0,59,59,47,1,9,4,9 | 4,5,1.4111,1.9756,incongruent,left,,,,,,stimulusFile/magnitude.xlsx,,,,,,,,,,,,,,,,,,,,,,,,,,,,,,,
,,,,,,,,,,,,,,,683,2022-02-08_15h41.50.135,multiplicationStroop,2021.2.3,Win32,60.03842459,,,,,right,1,0.6305,0,60,60,42,1,3,8,3 | 8,5,1.9756,1.4111,incongruent,right,,,,,,stimulusFile/magnitude.xlsx,,,,,,,,,,,,,,,,,,,,,,,,,,,,,,,
,,,,,,,,,,,,,,,683,2022-02-08_15h41.50.135,multiplicationStroop,2021.2.3,Win32,60.03842459,,,,,right,1,1.2761,0,61,61,2,1,6,7,6 | 7,1,1.4111,1.9756,congruent,right,,,,,,stimulusFile/magnitude.xlsx,,,,,,,,,,,,,,,,,,,,,,,,,,,,,,,
,,,,,,,,,,,,,,,683,2022-02-08_15h41.50.135,multiplicationStroop,2021.2.3,Win32,60.03842459,,,,,right,1,0.5024,0,62,62,10,1,6,8,6 | 8,2,1.4111,1.9756,congruent,right,,,,,,stimulusFile/magnitude.xlsx,,,,,,,,,,,,,,,,,,,,,,,,,,,,,,,
,,,,,,,,,,,,,,,683,2022-02-08_15h41.50.135,multiplicationStroop,2021.2.3,Win32,60.03842459,,,,,left,1,0.7114,0,63,63,7,1,9,8,9 | 8,1,1.9756,1.4111,congruent,left,,,,,,stimulusFile/magnitude.xlsx,,,,,,,,,,,,,,,,,,,,,,,,,,,,,,,
,,,,,,,,,,,,,,,683,2022-02-08_15h41.50.135,multiplicationStroop,2021.2.3,Win32,60.03842459,,,,,right,1,0.7497,0,64,64,65,1,2,7,2 | 7,5,1.6933,1.6933,neutral,right,,,,,,stimulusFile/magnitude.xlsx,,,,,,,,,,,,,,,,,,,,,,,,,,,,,,,
,,,,,,,,,,,,,,,683,2022-02-08_15h41.50.135,multiplicationStroop,2021.2.3,Win32,60.03842459,,,,,left,1,1.5287,0,65,65,38,1,8,6,8 | 6,2,1.4111,1.9756,incongruent,left,,,,,,stimulusFile/magnitude.xlsx,,,,,,,,,,,,,,,,,,,,,,,,,,,,,,,
,,,,,,,,,,,,,,,683,2022-02-08_15h41.50.135,multiplicationStroop,2021.2.3,Win32,60.03842459,,,,,left,1,0.5283,0,66,66,20,1,6,1,6 | 1,5,1.9756,1.4111,congruent,left,,,,,,stimulusFile/magnitude.xlsx,,,,,,,,,,,,,,,,,,,,,,,,,,,,,,,
,,,,,,,,,,,,,,,683,2022-02-08_15h41.50.135,multiplicationStroop,2021.2.3,Win32,60.03842459,,,,,left,1,0.5184,0,67,67,71,1,9,4,9 | 4,5,1.6933,1.6933,neutral,left,,,,,,stimulusFile/magnitude.xlsx,,,,,,,,,,,,,,,,,,,,,,,,,,,,,,,
,,,,,,,,,,,,,,,683,2022-02-08_15h41.50.135,multiplicationStroop,2021.2.3,Win32,60.03842459,,,,,right,1,0.5276,0,68,68,24,1,1,2,1 | 2,1,1.9756,1.4111,incongruent,right,,,,,,stimulusFile/magnitude.xlsx,,,,,,,,,,,,,,,,,,,,,,,,,,,,,,,
,,,,,,,,,,,,,,,683,2022-02-08_15h41.50.135,multiplicationStroop,2021.2.3,Win32,60.03842459,,,,,left,1,0.4772,0,69,69,44,1,6,1,6 | 1,5,1.4111,1.9756,incongruent,left,,,,,,stimulusFile/magnitude.xlsx,,,,,,,,,,,,,,,,,,,,,,,,,,,,,,,
,,,,,,,,,,,,,,,683,2022-02-08_15h41.50.135,multiplicationStroop,2021.2.3,Win32,60.03842459,,,,,right,1,0.4866,0,70,70,0,1,1,2,1 | 2,1,1.4111,1.9756,congruent,right,,,,,,stimulusFile/magnitude.xlsx,,,,,,,,,,,,,,,,,,,,,,,,,,,,,,,
,,,,,,,,,,,,,,,683,2022-02-08_15h41.50.135,multiplicationStroop,2021.2.3,Win32,60.03842459,,,,,left,1,0.4721,0,71,71,52,1,2,1,2 | 1,1,1.6933,1.6933,neutral,left,,,,,,stimulusFile/magnitude.xlsx,,,,,,,,,,,,,,,,,,,,,,,,,,,,,,,
,,,,,,,,,,,,,,,683,2022-02-08_15h41.50.135,multiplicationStroop,2021.2.3,Win32,60.03842459,,,,,,,,,,,,,,,,,,,,,0,1,1,0,1,stimulusFile/magnitude.xlsx,NUMERICALLY larger (larger coefficient).,images/numericallyLarger.png,,,,,,,,,,,,,,,,,,,,,,,,,,,,,
,,,,,,,,,,,,,,,683,2022-02-08_15h41.50.135,multiplicationStroop,2021.2.3,Win32,60.03842459,,,,,,,,,,,,,,,,,,,,,,,,,,,,,space,3.137,space,1.55,49,2.5205,1,0,0,0,33,1,7,×,7,7 × 7,neutral,tie,1.5,1.5,49,,,,,,,,
,,,,,,,,,,,,,,,683,2022-02-08_15h41.50.135,multiplicationStroop,2021.2.3,Win32,60.03842459,,,,,,,,,,,,,,,,,,,,,,,,,,,,,,,,,36,1.8141,1,0,1,1,32,1,6,×,6,6 × 6,neutral,tie,1.5,1.5,36,,,,,,,,
,,,,,,,,,,,,,,,683,2022-02-08_15h41.50.135,multiplicationStroop,2021.2.3,Win32,60.03842459,,,,,,,,,,,,,,,,,,,,,,,,,,,,,,,,,14,1.3652,1,0,2,2,16,1,7,×,2,7 × 2,neutral,largerFirst,1.5,1.5,14,,,,,,,,
,,,,,,,,,,,,,,,683,2022-02-08_15h41.50.135,multiplicationStroop,2021.2.3,Win32,60.03842459,,,,,,,,,,,,,,,,,,,,,,,,,,,,,,,,,81,2.1034,1,0,3,3,35,1,9,×,9,9 × 9,neutral,tie,1.5,1.5,81,,,,,,,,
,,,,,,,,,,,,,,,683,2022-02-08_15h41.50.135,multiplicationStroop,2021.2.3,Win32,60.03842459,,,,,,,,,,,,,,,,,,,,,,,,,,,,,,,,,40,1.7013,0,0,4,4,10,1,5,×,9,5 × 9,neutral,smallerFirst,1.5,1.5,45,,,,,,,,
,,,,,,,,,,,,,,,683,2022-02-08_15h41.50.135,multiplicationStroop,2021.2.3,Win32,60.03842459,,,,,,,,,,,,,,,,,,,,,,,,,,,,,,,,,15,1.8818,1,0,5,5,5,1,3,×,5,3 × 5,neutral,smallerFirst,1.5,1.5,15,,,,,,,,
,,,,,,,,,,,,,,,683,2022-02-08_15h41.50.135,multiplicationStroop,2021.2.3,Win32,60.03842459,,,,,,,,,,,,,,,,,,,,,,,,,,,,,,,,,12,1.2654,1,0,6,6,21,1,4,×,3,4 × 3,neutral,largerFirst,1.5,1.5,12,,,,,,,,
,,,,,,,,,,,,,,,683,2022-02-08_15h41.50.135,multiplicationStroop,2021.2.3,Win32,60.03842459,,,,,,,,,,,,,,,,,,,,,,,,,,,,,,,,,36,1.6483,1,0,7,7,27,1,9,×,4,9 × 4,neutral,largerFirst,1.5,1.5,36,,,,,,,,
,,,,,,,,,,,,,,,683,2022-02-08_15h41.50.135,multiplicationStroop,2021.2.3,Win32,60.03842459,,,,,,,,,,,,,,,,,,,,,,,,,,,,,,,,,12,1.1154,1,0,8,8,25,1,6,×,2,6 × 2,neutral,largerFirst,1.5,1.5,12,,,,,,,,
,,,,,,,,,,,,,,,683,2022-02-08_15h41.50.135,multiplicationStroop,2021.2.3,Win32,60.03842459,,,,,,,,,,,,,,,,,,,,,,,,,,,,,,,,,18,1.537,1,0,9,9,18,1,9,×,2,9 × 2,neutral,largerFirst,1.5,1.5,18,,,,,,,,
,,,,,,,,,,,,,,,683,2022-02-08_15h41.50.135,multiplicationStroop,2021.2.3,Win32,60.03842459,,,,,,,,,,,,,,,,,,,,,,,,,,,,,,,,,16,1.5611,1,0,10,10,13,1,2,×,8,2 × 8,neutral,smallerFirst,1.5,1.5,16,,,,,,,,
,,,,,,,,,,,,,,,683,2022-02-08_15h41.50.135,multiplicationStroop,2021.2.3,Win32,60.03842459,,,,,,,,,,,,,,,,,,,,,,,,,,,,,,,,,21,1.2483,1,0,11,11,8,1,3,×,7,3 × 7,neutral,smallerFirst,1.5,1.5,21,,,,,,,,
,,,,,,,,,,,,,,,683,2022-02-08_15h41.50.135,multiplicationStroop,2021.2.3,Win32,60.03842459,,,,,,,,,,,,,,,,,,,,,,,,,,,,,,,,,24,1.6316,1,0,12,12,2,1,4,×,6,4 × 6,neutral,smallerFirst,1.5,1.5,24,,,,,,,,
,,,,,,,,,,,,,,,683,2022-02-08_15h41.50.135,multiplicationStroop,2021.2.3,Win32,60.03842459,,,,,,,,,,,,,,,,,,,,,,,,,,,,,,,,,63,2.5315,1,0,13,13,12,1,7,×,9,7 × 9,neutral,smallerFirst,1.5,1.5,63,,,,,,,,
,,,,,,,,,,,,,,,683,2022-02-08_15h41.50.135,multiplicationStroop,2021.2.3,Win32,60.03842459,,,,,,,,,,,,,,,,,,,,,,,,,,,,,,,,,40,1.473,1,0,14,14,24,1,8,×,5,8 × 5,neutral,largerFirst,1.5,1.5,40,,,,,,,,
,,,,,,,,,,,,,,,683,2022-02-08_15h41.50.135,multiplicationStroop,2021.2.3,Win32,60.03842459,,,,,,,,,,,,,,,,,,,,,,,,,,,,,,,,,25,1.4317,1,0,15,15,31,1,5,×,5,5 × 5,neutral,tie,1.5,1.5,25,,,,,,,,
,,,,,,,,,,,,,,,683,2022-02-08_15h41.50.135,multiplicationStroop,2021.2.3,Win32,60.03842459,,,,,,,,,,,,,,,,,,,,,,,,,,,,,,,,,32,1.4652,1,0,16,16,23,1,8,×,4,8 × 4,neutral,largerFirst,1.5,1.5,32,,,,,,,,
,,,,,,,,,,,,,,,683,2022-02-08_15h41.50.135,multiplicationStroop,2021.2.3,Win32,60.03842459,,,,,,,,,,,,,,,,,,,,,,,,,,,,,,,,,30,1.5319,1,0,17,17,19,1,6,×,5,6 × 5,neutral,largerFirst,1.5,1.5,30,,,,,,,,
,,,,,,,,,,,,,,,683,2022-02-08_15h41.50.135,multiplicationStroop,2021.2.3,Win32,60.03842459,,,,,,,,,,,,,,,,,,,,,,,,,,,,,,,,,48,1.9648,1,0,18,18,15,1,8,×,6,8 × 6,neutral,largerFirst,1.5,1.5,48,,,,,,,,
,,,,,,,,,,,,,,,683,2022-02-08_15h41.50.135,multiplicationStroop,2021.2.3,Win32,60.03842459,,,,,,,,,,,,,,,,,,,,,,,,,,,,,,,,,16,1.6198,1,0,19,19,30,1,4,×,4,4 × 4,neutral,tie,1.5,1.5,16,,,,,,,,
,,,,,,,,,,,,,,,683,2022-02-08_15h41.50.135,multiplicationStroop,2021.2.3,Win32,60.03842459,,,,,,,,,,,,,,,,,,,,,,,,,,,,,,,,,9,1.3107,1,0,20,20,29,1,3,×,3,3 × 3,neutral,tie,1.5,1.5,9,,,,,,,,
,,,,,,,,,,,,,,,683,2022-02-08_15h41.50.135,multiplicationStroop,2021.2.3,Win32,60.03842459,,,,,,,,,,,,,,,,,,,,,,,,,,,,,,,,,72,1.682,1,0,21,21,11,1,8,×,9,8 × 9,neutral,smallerFirst,1.5,1.5,72,,,,,,,,
,,,,,,,,,,,,,,,683,2022-02-08_15h41.50.135,multiplicationStroop,2021.2.3,Win32,60.03842459,,,,,,,,,,,,,,,,,,,,,,,,,,,,,,,,,8,2.4312,1,0,22,22,3,1,2,×,4,2 × 4,neutral,smallerFirst,1.5,1.5,8,,,,,,,,
,,,,,,,,,,,,,,,683,2022-02-08_15h41.50.135,multiplicationStroop,2021.2.3,Win32,60.03842459,,,,,,,,,,,,,,,,,,,,,,,,,,,,,,,,,6,1.5822,1,0,23,23,26,1,3,×,2,3 × 2,neutral,largerFirst,1.5,1.5,6,,,,,,,,
,,,,,,,,,,,,,,,683,2022-02-08_15h41.50.135,multiplicationStroop,2021.2.3,Win32,60.03842459,,,,,,,,,,,,,,,,,,,,,,,,,,,,,,,,,10,1.2644,1,0,24,24,4,1,2,×,5,2 × 5,neutral,smallerFirst,1.5,1.5,10,,,,,,,,
,,,,,,,,,,,,,,,683,2022-02-08_15h41.50.135,multiplicationStroop,2021.2.3,Win32,60.03842459,,,,,,,,,,,,,,,,,,,,,,,,,,,,,,,,,42,2.4148,1,0,25,25,6,1,6,×,7,6 × 7,neutral,smallerFirst,1.5,1.5,42,,,,,,,,
,,,,,,,,,,,,,,,683,2022-02-08_15h41.50.135,multiplicationStroop,2021.2.3,Win32,60.03842459,,,,,,,,,,,,,,,,,,,,,,,,,,,,,,,,,4,1.1772,1,0,26,26,28,1,2,×,2,2 × 2,neutral,tie,1.5,1.5,4,,,,,,,,
,,,,,,,,,,,,,,,683,2022-02-08_15h41.50.135,multiplicationStroop,2021.2.3,Win32,60.03842459,,,,,,,,,,,,,,,,,,,,,,,,,,,,,,,,,20,1.2757,1,0,27,27,20,1,5,×,4,5 × 4,neutral,largerFirst,1.5,1.5,20,,,,,,,,
,,,,,,,,,,,,,,,683,2022-02-08_15h41.50.135,multiplicationStroop,2021.2.3,Win32,60.03842459,,,,,,,,,,,,,,,,,,,,,,,,,,,,,,,,,28,1.9651,1,0,28,28,17,1,7,×,4,7 × 4,neutral,largerFirst,1.5,1.5,28,,,,,,,,
,,,,,,,,,,,,,,,683,2022-02-08_15h41.50.135,multiplicationStroop,2021.2.3,Win32,60.03842459,,,,,,,,,,,,,,,,,,,,,,,,,,,,,,,,,24,1.7987,1,0,29,29,22,1,8,×,3,8 × 3,neutral,largerFirst,1.5,1.5,24,,,,,,,,
,,,,,,,,,,,,,,,683,2022-02-08_15h41.50.135,multiplicationStroop,2021.2.3,Win32,60.03842459,,,,,,,,,,,,,,,,,,,,,,,,,,,,,,,,,54,1.6646,1,0,30,30,7,1,6,×,9,6 × 9,neutral,smallerFirst,1.5,1.5,54,,,,,,,,
,,,,,,,,,,,,,,,683,2022-02-08_15h41.50.135,multiplicationStroop,2021.2.3,Win32,60.03842459,,,,,,,,,,,,,,,,,,,,,,,,,,,,,,,,,35,1.3987,1,0,31,31,1,1,5,×,7,5 × 7,neutral,smallerFirst,1.5,1.5,35,,,,,,,,
,,,,,,,,,,,,,,,683,2022-02-08_15h41.50.135,multiplicationStroop,2021.2.3,Win32,60.03842459,,,,,,,,,,,,,,,,,,,,,,,,,,,,,,,,,27,1.7485,1,0,32,32,14,1,9,×,3,9 × 3,neutral,largerFirst,1.5,1.5,27,,,,,,,,
,,,,,,,,,,,,,,,683,2022-02-08_15h41.50.135,multiplicationStroop,2021.2.3,Win32,60.03842459,,,,,,,,,,,,,,,,,,,,,,,,,,,,,,,,,64,1.4652,1,0,33,33,34,1,8,×,8,8 × 8,neutral,tie,1.5,1.5,64,,,,,,,,
,,,,,,,,,,,,,,,683,2022-02-08_15h41.50.135,multiplicationStroop,2021.2.3,Win32,60.03842459,,,,,,,,,,,,,,,,,,,,,,,,,,,,,,,,,18,1.9484,1,0,34,34,0,1,3,×,6,3 × 6,neutral,smallerFirst,1.5,1.5,18,,,,,,,,
,,,,,,,,,,,,,,,683,2022-02-08_15h41.50.135,multiplicationStroop,2021.2.3,Win32,60.03842459,,,,,,,,,,,,,,,,,,,,,,,,,,,,,,,,,56,4.4026,1,0,35,35,9,1,7,×,8,7 × 8,neutral,smallerFirst,1.5,1.5,56,,,,,,,,
,,,,,,,,,,,,,,,683,2022-02-08_15h41.50.135,multiplicationStroop,2021.2.3,Win32,60.03842459,,,,,,,,,,,,,,,,,,,,,,,,,,,,,,,,,,,,,,,,,,,,,,,,,,0,0,0,1,1,stimulusFile/mult_blk2.xlsx,,
,,,,,,,,,,,,,,,683,2022-02-08_15h41.50.135,multiplicationStroop,2021.2.3,Win32,60.03842459,,,,,,,,,,,,,,,,,,,,,,,,,,,,,,,space,1.3096,24,1.9046,1,0,0,0,24,1,8,×,3,8 × 3,congruent,largerFirst,2,1,24,,,,,,,,
,,,,,,,,,,,,,,,683,2022-02-08_15h41.50.135,multiplicationStroop,2021.2.3,Win32,60.03842459,,,,,,,,,,,,,,,,,,,,,,,,,,,,,,,,,42,2.2485,1,0,1,1,17,1,7,×,6,7 × 6,congruent,largerFirst,2,1,42,,,,,,,,
,,,,,,,,,,,,,,,683,2022-02-08_15h41.50.135,multiplicationStroop,2021.2.3,Win32,60.03842459,,,,,,,,,,,,,,,,,,,,,,,,,,,,,,,,,54,1.5986,1,0,2,2,26,1,9,×,6,9 × 6,congruent,largerFirst,2,1,54,,,,,,,,
,,,,,,,,,,,,,,,683,2022-02-08_15h41.50.135,multiplicationStroop,2021.2.3,Win32,60.03842459,,,,,,,,,,,,,,,,,,,,,,,,,,,,,,,,,14,1.6821,1,0,3,3,0,1,2,×,7,2 × 7,congruent,smallerFirst,1,2,14,,,,,,,,
,,,,,,,,,,,,,,,683,2022-02-08_15h41.50.135,multiplicationStroop,2021.2.3,Win32,60.03842459,,,,,,,,,,,,,,,,,,,,,,,,,,,,,,,,,9,1.2484,1,0,4,4,29,1,3,×,3,3 × 3,neutral,tie,1,2,9,,,,,,,,
,,,,,,,,,,,,,,,683,2022-02-08_15h41.50.135,multiplicationStroop,2021.2.3,Win32,60.03842459,,,,,,,,,,,,,,,,,,,,,,,,,,,,,,,,,16,2.1653,1,0,5,5,30,1,4,×,4,4 × 4,neutral,tie,1,2,16,,,,,,,,
,,,,,,,,,,,,,,,683,2022-02-08_15h41.50.135,multiplicationStroop,2021.2.3,Win32,60.03842459,,,,,,,,,,,,,,,,,,,,,,,,,,,,,,,,,4,1.1324,1,0,6,6,28,1,2,×,2,2 × 2,neutral,tie,1,2,4,,,,,,,,
,,,,,,,,,,,,,,,683,2022-02-08_15h41.50.135,multiplicationStroop,2021.2.3,Win32,60.03842459,,,,,,,,,,,,,,,,,,,,,,,,,,,,,,,,,81,1.7321,1,0,7,7,35,1,9,×,9,9 × 9,neutral,tie,1,2,81,,,,,,,,
,,,,,,,,,,,,,,,683,2022-02-08_15h41.50.135,multiplicationStroop,2021.2.3,Win32,60.03842459,,,,,,,,,,,,,,,,,,,,,,,,,,,,,,,,,12,1.132,1,0,8,8,16,1,4,×,3,4 × 3,congruent,largerFirst,2,1,12,,,,,,,,
,,,,,,,,,,,,,,,683,2022-02-08_15h41.50.135,multiplicationStroop,2021.2.3,Win32,60.03842459,,,,,,,,,,,,,,,,,,,,,,,,,,,,,,,,,64,1.5657,1,0,9,9,34,1,8,×,8,8 × 8,neutral,tie,1,2,64,,,,,,,,
,,,,,,,,,,,,,,,683,2022-02-08_15h41.50.135,multiplicationStroop,2021.2.3,Win32,60.03842459,,,,,,,,,,,,,,,,,,,,,,,,,,,,,,,,,12,1.165,0,0,10,10,23,1,4,×,2,4 × 2,congruent,largerFirst,2,1,8,,,,,,,,
,,,,,,,,,,,,,,,683,2022-02-08_15h41.50.135,multiplicationStroop,2021.2.3,Win32,60.03842459,,,,,,,,,,,,,,,,,,,,,,,,,,,,,,,,,10,1.5821,1,0,11,11,10,1,2,×,5,2 × 5,congruent,smallerFirst,1,2,10,,,,,,,,
,,,,,,,,,,,,,,,683,2022-02-08_15h41.50.135,multiplicationStroop,2021.2.3,Win32,60.03842459,,,,,,,,,,,,,,,,,,,,,,,,,,,,,,,,,72,1.682,1,0,12,12,3,1,8,×,9,8 × 9,congruent,smallerFirst,1,2,72,,,,,,,,
,,,,,,,,,,,,,,,683,2022-02-08_15h41.50.135,multiplicationStroop,2021.2.3,Win32,60.03842459,,,,,,,,,,,,,,,,,,,,,,,,,,,,,,,,,48,1.6648,1,0,13,13,4,1,6,×,8,6 × 8,congruent,smallerFirst,1,2,48,,,,,,,,
,,,,,,,,,,,,,,,683,2022-02-08_15h41.50.135,multiplicationStroop,2021.2.3,Win32,60.03842459,,,,,,,,,,,,,,,,,,,,,,,,,,,,,,,,,36,1.9318,1,0,14,14,32,1,6,×,6,6 × 6,neutral,tie,1,2,36,,,,,,,,
,,,,,,,,,,,,,,,683,2022-02-08_15h41.50.135,multiplicationStroop,2021.2.3,Win32,60.03842459,,,,,,,,,,,,,,,,,,,,,,,,,,,,,,,,,28,1.8155,1,0,15,15,13,1,4,×,7,4 × 7,congruent,smallerFirst,1,2,28,,,,,,,,
,,,,,,,,,,,,,,,683,2022-02-08_15h41.50.135,multiplicationStroop,2021.2.3,Win32,60.03842459,,,,,,,,,,,,,,,,,,,,,,,,,,,,,,,,,36,2.3648,1,0,16,16,14,1,9,×,4,9 × 4,congruent,largerFirst,2,1,36,,,,,,,,
,,,,,,,,,,,,,,,683,2022-02-08_15h41.50.135,multiplicationStroop,2021.2.3,Win32,60.03842459,,,,,,,,,,,,,,,,,,,,,,,,,,,,,,,,,18,1.5656,1,0,17,17,8,1,2,×,9,2 × 9,congruent,smallerFirst,1,2,18,,,,,,,,
,,,,,,,,,,,,,,,683,2022-02-08_15h41.50.135,multiplicationStroop,2021.2.3,Win32,60.03842459,,,,,,,,,,,,,,,,,,,,,,,,,,,,,,,,,63,2.0812,1,0,18,18,7,1,7,×,9,7 × 9,congruent,smallerFirst,1,2,63,,,,,,,,
,,,,,,,,,,,,,,,683,2022-02-08_15h41.50.135,multiplicationStroop,2021.2.3,Win32,60.03842459,,,,,,,,,,,,,,,,,,,,,,,,,,,,,,,,,6,1.982,1,0,19,19,27,1,3,×,2,3 × 2,congruent,largerFirst,2,1,6,,,,,,,,
,,,,,,,,,,,,,,,683,2022-02-08_15h41.50.135,multiplicationStroop,2021.2.3,Win32,60.03842459,,,,,,,,,,,,,,,,,,,,,,,,,,,,,,,,,27,2.132,1,0,20,20,12,1,3,×,9,3 × 9,congruent,smallerFirst,1,2,27,,,,,,,,
,,,,,,,,,,,,,,,683,2022-02-08_15h41.50.135,multiplicationStroop,2021.2.3,Win32,60.03842459,,,,,,,,,,,,,,,,,,,,,,,,,,,,,,,,,49,1.5486,1,0,21,21,33,1,7,×,7,7 × 7,neutral,tie,1,2,49,,,,,,,,
,,,,,,,,,,,,,,,683,2022-02-08_15h41.50.135,multiplicationStroop,2021.2.3,Win32,60.03842459,,,,,,,,,,,,,,,,,,,,,,,,,,,,,,,,,18,2.2982,1,0,22,22,25,1,6,×,3,6 × 3,congruent,largerFirst,2,1,18,,,,,,,,
,,,,,,,,,,,,,,,683,2022-02-08_15h41.50.135,multiplicationStroop,2021.2.3,Win32,60.03842459,,,,,,,,,,,,,,,,,,,,,,,,,,,,,,,,,16,1.6651,1,0,23,23,19,1,8,×,2,8 × 2,congruent,largerFirst,2,1,16,,,,,,,,
,,,,,,,,,,,,,,,683,2022-02-08_15h41.50.135,multiplicationStroop,2021.2.3,Win32,60.03842459,,,,,,,,,,,,,,,,,,,,,,,,,,,,,,,,,24,1.3494,1,0,24,24,11,1,4,×,6,4 × 6,congruent,smallerFirst,1,2,24,,,,,,,,
,,,,,,,,,,,,,,,683,2022-02-08_15h41.50.135,multiplicationStroop,2021.2.3,Win32,60.03842459,,,,,,,,,,,,,,,,,,,,,,,,,,,,,,,,,20,1.3651,1,0,25,25,21,1,5,×,4,5 × 4,congruent,largerFirst,2,1,20,,,,,,,,
,,,,,,,,,,,,,,,683,2022-02-08_15h41.50.135,multiplicationStroop,2021.2.3,Win32,60.03842459,,,,,,,,,,,,,,,,,,,,,,,,,,,,,,,,,32,1.6814,1,0,26,26,6,1,4,×,8,4 × 8,congruent,smallerFirst,1,2,32,,,,,,,,
,,,,,,,,,,,,,,,683,2022-02-08_15h41.50.135,multiplicationStroop,2021.2.3,Win32,60.03842459,,,,,,,,,,,,,,,,,,,,,,,,,,,,,,,,,40,1.5154,1,0,27,27,20,1,8,×,5,8 × 5,congruent,largerFirst,2,1,40,,,,,,,,
,,,,,,,,,,,,,,,683,2022-02-08_15h41.50.135,multiplicationStroop,2021.2.3,Win32,60.03842459,,,,,,,,,,,,,,,,,,,,,,,,,,,,,,,,,25,1.5153,1,0,28,28,31,1,5,×,5,5 × 5,neutral,tie,1,2,25,,,,,,,,
,,,,,,,,,,,,,,,683,2022-02-08_15h41.50.135,multiplicationStroop,2021.2.3,Win32,60.03842459,,,,,,,,,,,,,,,,,,,,,,,,,,,,,,,,,15,1.3808,1,0,29,29,18,1,5,×,3,5 × 3,congruent,largerFirst,2,1,15,,,,,,,,
,,,,,,,,,,,,,,,683,2022-02-08_15h41.50.135,multiplicationStroop,2021.2.3,Win32,60.03842459,,,,,,,,,,,,,,,,,,,,,,,,,,,,,,,,,45,1.5652,1,0,30,30,9,1,5,×,9,5 × 9,congruent,smallerFirst,1,2,45,,,,,,,,
,,,,,,,,,,,,,,,683,2022-02-08_15h41.50.135,multiplicationStroop,2021.2.3,Win32,60.03842459,,,,,,,,,,,,,,,,,,,,,,,,,,,,,,,,,30,1.3653,1,0,31,31,1,1,5,×,6,5 × 6,congruent,smallerFirst,1,2,30,,,,,,,,
,,,,,,,,,,,,,,,683,2022-02-08_15h41.50.135,multiplicationStroop,2021.2.3,Win32,60.03842459,,,,,,,,,,,,,,,,,,,,,,,,,,,,,,,,,25,1.3323,0,0,32,32,15,1,7,×,5,7 × 5,congruent,largerFirst,2,1,35,,,,,,,,
,,,,,,,,,,,,,,,683,2022-02-08_15h41.50.135,multiplicationStroop,2021.2.3,Win32,60.03842459,,,,,,,,,,,,,,,,,,,,,,,,,,,,,,,,,48,1.982,0,0,33,33,22,1,8,×,7,8 × 7,congruent,largerFirst,2,1,56,,,,,,,,
,,,,,,,,,,,,,,,683,2022-02-08_15h41.50.135,multiplicationStroop,2021.2.3,Win32,60.03842459,,,,,,,,,,,,,,,,,,,,,,,,,,,,,,,,,21,2.3813,1,0,34,34,2,1,3,×,7,3 × 7,congruent,smallerFirst,1,2,21,,,,,,,,
,,,,,,,,,,,,,,,683,2022-02-08_15h41.50.135,multiplicationStroop,2021.2.3,Win32,60.03842459,,,,,,,,,,,,,,,,,,,,,,,,,,,,,,,,,12,1.2986,1,0,35,35,5,1,2,×,6,2 × 6,congruent,smallerFirst,1,2,12,,,,,,,,
,,,,,,,,,,,,,,,683,2022-02-08_15h41.50.135,multiplicationStroop,2021.2.3,Win32,60.03842459,,,,,,,,,,,,,,,,,,,,,,,,,,,,,,,,,,,,,,,,,,,,,,,,,,0,1,1,3,1,stimulusFile/mult_blk4_congruent.xlsx,,
,,,,,,,,,,,,,,,683,2022-02-08_15h41.50.135,multiplicationStroop,2021.2.3,Win32,60.03842459,,,,,,,,,,,,,,,,,,,,,,,,,,,,,,,space,1.0683,32,1.4357,1,0,0,0,21,1,8,×,4,8 × 4,incongruent,largerFirst,1,2,32,,,,,,,,
,,,,,,,,,,,,,,,683,2022-02-08_15h41.50.135,multiplicationStroop,2021.2.3,Win32,60.03842459,,,,,,,,,,,,,,,,,,,,,,,,,,,,,,,,,21,1.315,1,0,1,1,12,1,3,×,7,3 × 7,incongruent,smallerFirst,2,1,21,,,,,,,,
,,,,,,,,,,,,,,,683,2022-02-08_15h41.50.135,multiplicationStroop,2021.2.3,Win32,60.03842459,,,,,,,,,,,,,,,,,,,,,,,,,,,,,,,,,54,1.549,1,0,2,2,20,1,9,×,6,9 × 6,incongruent,largerFirst,1,2,54,,,,,,,,
,,,,,,,,,,,,,,,683,2022-02-08_15h41.50.135,multiplicationStroop,2021.2.3,Win32,60.03842459,,,,,,,,,,,,,,,,,,,,,,,,,,,,,,,,,8,1.5313,1,0,3,3,10,1,2,×,4,2 × 4,incongruent,smallerFirst,2,1,8,,,,,,,,
,,,,,,,,,,,,,,,683,2022-02-08_15h41.50.135,multiplicationStroop,2021.2.3,Win32,60.03842459,,,,,,,,,,,,,,,,,,,,,,,,,,,,,,,,,15,1.349,1,0,4,4,24,1,5,×,3,5 × 3,incongruent,largerFirst,1,2,15,,,,,,,,
,,,,,,,,,,,,,,,683,2022-02-08_15h41.50.135,multiplicationStroop,2021.2.3,Win32,60.03842459,,,,,,,,,,,,,,,,,,,,,,,,,,,,,,,,,64,1.7489,1,0,5,5,34,1,8,×,8,8 × 8,neutral,tie,2,1,64,,,,,,,,
,,,,,,,,,,,,,,,683,2022-02-08_15h41.50.135,multiplicationStroop,2021.2.3,Win32,60.03842459,,,,,,,,,,,,,,,,,,,,,,,,,,,,,,,,,10,1.2634,1,0,6,6,7,1,2,×,5,2 × 5,incongruent,smallerFirst,2,1,10,,,,,,,,
,,,,,,,,,,,,,,,683,2022-02-08_15h41.50.135,multiplicationStroop,2021.2.3,Win32,60.03842459,,,,,,,,,,,,,,,,,,,,,,,,,,,,,,,,,18,1.5983,1,0,7,7,16,1,9,×,2,9 × 2,incongruent,largerFirst,1,2,18,,,,,,,,
,,,,,,,,,,,,,,,683,2022-02-08_15h41.50.135,multiplicationStroop,2021.2.3,Win32,60.03842459,,,,,,,,,,,,,,,,,,,,,,,,,,,,,,,,,72,1.848,1,0,8,8,14,1,9,×,8,9 × 8,incongruent,largerFirst,1,2,72,,,,,,,,
,,,,,,,,,,,,,,,683,2022-02-08_15h41.50.135,multiplicationStroop,2021.2.3,Win32,60.03842459,,,,,,,,,,,,,,,,,,,,,,,,,,,,,,,,,24,1.6656,1,0,9,9,23,1,8,×,3,8 × 3,incongruent,largerFirst,1,2,24,,,,,,,,
,,,,,,,,,,,,,,,683,2022-02-08_15h41.50.135,multiplicationStroop,2021.2.3,Win32,60.03842459,,,,,,,,,,,,,,,,,,,,,,,,,,,,,,,,,20,1.2658,1,0,10,10,13,1,4,×,5,4 × 5,incongruent,smallerFirst,2,1,20,,,,,,,,
,,,,,,,,,,,,,,,683,2022-02-08_15h41.50.135,multiplicationStroop,2021.2.3,Win32,60.03842459,,,,,,,,,,,,,,,,,,,,,,,,,,,,,,,,,40,1.415,1,0,11,11,27,1,8,×,5,8 × 5,incongruent,largerFirst,1,2,40,,,,,,,,
,,,,,,,,,,,,,,,683,2022-02-08_15h41.50.135,multiplicationStroop,2021.2.3,Win32,60.03842459,,,,,,,,,,,,,,,,,,,,,,,,,,,,,,,,,25,2.1983,1,0,12,12,31,1,5,×,5,5 × 5,neutral,tie,2,1,25,,,,,,,,
,,,,,,,,,,,,,,,683,2022-02-08_15h41.50.135,multiplicationStroop,2021.2.3,Win32,60.03842459,,,,,,,,,,,,,,,,,,,,,,,,,,,,,,,,,36,3.2649,1,0,13,13,1,1,4,×,9,4 × 9,incongruent,smallerFirst,2,1,36,,,,,,,,
,,,,,,,,,,,,,,,683,2022-02-08_15h41.50.135,multiplicationStroop,2021.2.3,Win32,60.03842459,,,,,,,,,,,,,,,,,,,,,,,,,,,,,,,,,36,1.7821,1,0,14,14,32,1,6,×,6,6 × 6,neutral,tie,2,1,36,,,,,,,,
,,,,,,,,,,,,,,,683,2022-02-08_15h41.50.135,multiplicationStroop,2021.2.3,Win32,60.03842459,,,,,,,,,,,,,,,,,,,,,,,,,,,,,,,,,35,2.8311,1,0,15,15,26,1,7,×,5,7 × 5,incongruent,largerFirst,1,2,35,,,,,,,,
,,,,,,,,,,,,,,,683,2022-02-08_15h41.50.135,multiplicationStroop,2021.2.3,Win32,60.03842459,,,,,,,,,,,,,,,,,,,,,,,,,,,,,,,,,16,1.6055,1,0,16,16,30,1,4,×,4,4 × 4,neutral,tie,2,1,16,,,,,,,,
,,,,,,,,,,,,,,,683,2022-02-08_15h41.50.135,multiplicationStroop,2021.2.3,Win32,60.03842459,,,,,,,,,,,,,,,,,,,,,,,,,,,,,,,,,16,1.9651,1,0,17,17,9,1,2,×,8,2 × 8,incongruent,smallerFirst,2,1,16,,,,,,,,
,,,,,,,,,,,,,,,683,2022-02-08_15h41.50.135,multiplicationStroop,2021.2.3,Win32,60.03842459,,,,,,,,,,,,,,,,,,,,,,,,,,,,,,,,,24,1.5487,0,0,18,18,18,1,7,×,2,7 × 2,incongruent,largerFirst,1,2,14,,,,,,,,
,,,,,,,,,,,,,,,683,2022-02-08_15h41.50.135,multiplicationStroop,2021.2.3,Win32,60.03842459,,,,,,,,,,,,,,,,,,,,,,,,,,,,,,,,,9,1.4822,1,0,19,19,29,1,3,×,3,3 × 3,neutral,tie,2,1,9,,,,,,,,
,,,,,,,,,,,,,,,683,2022-02-08_15h41.50.135,multiplicationStroop,2021.2.3,Win32,60.03842459,,,,,,,,,,,,,,,,,,,,,,,,,,,,,,,,,18,1.5321,1,0,20,20,22,1,6,×,3,6 × 3,incongruent,largerFirst,1,2,18,,,,,,,,
,,,,,,,,,,,,,,,683,2022-02-08_15h41.50.135,multiplicationStroop,2021.2.3,Win32,60.03842459,,,,,,,,,,,,,,,,,,,,,,,,,,,,,,,,,42,1.7817,1,0,21,21,3,1,6,×,7,6 × 7,incongruent,smallerFirst,2,1,42,,,,,,,,
,,,,,,,,,,,,,,,683,2022-02-08_15h41.50.135,multiplicationStroop,2021.2.3,Win32,60.03842459,,,,,,,,,,,,,,,,,,,,,,,,,,,,,,,,,12,1.1158,1,0,22,22,19,1,4,×,3,4 × 3,incongruent,largerFirst,1,2,12,,,,,,,,
,,,,,,,,,,,,,,,683,2022-02-08_15h41.50.135,multiplicationStroop,2021.2.3,Win32,60.03842459,,,,,,,,,,,,,,,,,,,,,,,,,,,,,,,,,30,2.4147,1,0,23,23,11,1,5,×,6,5 × 6,incongruent,smallerFirst,2,1,30,,,,,,,,
,,,,,,,,,,,,,,,683,2022-02-08_15h41.50.135,multiplicationStroop,2021.2.3,Win32,60.03842459,,,,,,,,,,,,,,,,,,,,,,,,,,,,,,,,,27,1.6155,1,0,24,24,4,1,3,×,9,3 × 9,incongruent,smallerFirst,2,1,27,,,,,,,,
,,,,,,,,,,,,,,,683,2022-02-08_15h41.50.135,multiplicationStroop,2021.2.3,Win32,60.03842459,,,,,,,,,,,,,,,,,,,,,,,,,,,,,,,,,4,1.2155,1,0,25,25,28,1,2,×,2,2 × 2,neutral,tie,2,1,4,,,,,,,,
,,,,,,,,,,,,,,,683,2022-02-08_15h41.50.135,multiplicationStroop,2021.2.3,Win32,60.03842459,,,,,,,,,,,,,,,,,,,,,,,,,,,,,,,,,49,1.8983,1,0,26,26,33,1,7,×,7,7 × 7,neutral,tie,2,1,49,,,,,,,,
,,,,,,,,,,,,,,,683,2022-02-08_15h41.50.135,multiplicationStroop,2021.2.3,Win32,60.03842459,,,,,,,,,,,,,,,,,,,,,,,,,,,,,,,,,24,1.4322,1,0,27,27,6,1,4,×,6,4 × 6,incongruent,smallerFirst,2,1,24,,,,,,,,
,,,,,,,,,,,,,,,683,2022-02-08_15h41.50.135,multiplicationStroop,2021.2.3,Win32,60.03842459,,,,,,,,,,,,,,,,,,,,,,,,,,,,,,,,,6,1.4324,1,0,28,28,25,1,3,×,2,3 × 2,incongruent,largerFirst,1,2,6,,,,,,,,
,,,,,,,,,,,,,,,683,2022-02-08_15h41.50.135,multiplicationStroop,2021.2.3,Win32,60.03842459,,,,,,,,,,,,,,,,,,,,,,,,,,,,,,,,,45,1.615,1,0,29,29,8,1,5,×,9,5 × 9,incongruent,smallerFirst,2,1,45,,,,,,,,
,,,,,,,,,,,,,,,683,2022-02-08_15h41.50.135,multiplicationStroop,2021.2.3,Win32,60.03842459,,,,,,,,,,,,,,,,,,,,,,,,,,,,,,,,,56,3.8642,1,0,30,30,0,1,7,×,8,7 × 8,incongruent,smallerFirst,2,1,56,,,,,,,,
,,,,,,,,,,,,,,,683,2022-02-08_15h41.50.135,multiplicationStroop,2021.2.3,Win32,60.03842459,,,,,,,,,,,,,,,,,,,,,,,,,,,,,,,,,12,1.1224,1,0,31,31,5,1,2,×,6,2 × 6,incongruent,smallerFirst,2,1,12,,,,,,,,
,,,,,,,,,,,,,,,683,2022-02-08_15h41.50.135,multiplicationStroop,2021.2.3,Win32,60.03842459,,,,,,,,,,,,,,,,,,,,,,,,,,,,,,,,,36,1.7153,0,0,32,32,17,1,9,×,7,9 × 7,incongruent,largerFirst,1,2,63,,,,,,,,
,,,,,,,,,,,,,,,683,2022-02-08_15h41.50.135,multiplicationStroop,2021.2.3,Win32,60.03842459,,,,,,,,,,,,,,,,,,,,,,,,,,,,,,,,,28,1.5491,1,0,33,33,2,1,4,×,7,4 × 7,incongruent,smallerFirst,2,1,28,,,,,,,,
,,,,,,,,,,,,,,,683,2022-02-08_15h41.50.135,multiplicationStroop,2021.2.3,Win32,60.03842459,,,,,,,,,,,,,,,,,,,,,,,,,,,,,,,,,81,1.8313,1,0,34,34,35,1,9,×,9,9 × 9,neutral,tie,2,1,81,,,,,,,,
,,,,,,,,,,,,,,,683,2022-02-08_15h41.50.135,multiplicationStroop,2021.2.3,Win32,60.03842459,,,,,,,,,,,,,,,,,,,,,,,,,,,,,,,,,48,1.7655,1,0,35,35,15,1,8,×,6,8 × 6,incongruent,largerFirst,1,2,48,,,,,,,,
,,,,,,,,,,,,,,,683,2022-02-08_15h41.50.135,multiplicationStroop,2021.2.3,Win32,60.03842459,,,,,,,,,,,,,,,,,,,,,,,,,,,,,,,,,,,,,,,,,,,,,,,,,,0,2,2,4,1,stimulusFile/mult_blk5_INcongruent.xlsx,,
,,,,,,,,,,,,,,,683,2022-02-08_15h41.50.135,multiplicationStroop,2021.2.3,Win32,60.03842459,,,,,,,,,,,,,,,,,,,,,,,,,,,,,,,space,1.1568,40,1.598,1,0,0,0,13,1,5,×,8,5 × 8,incongruent,smallerFirst,2,1,40,,,,,,,,
,,,,,,,,,,,,,,,683,2022-02-08_15h41.50.135,multiplicationStroop,2021.2.3,Win32,60.03842459,,,,,,,,,,,,,,,,,,,,,,,,,,,,,,,,,48,1.7149,1,0,1,1,1,1,6,×,8,6 × 8,incongruent,smallerFirst,2,1,48,,,,,,,,
,,,,,,,,,,,,,,,683,2022-02-08_15h41.50.135,multiplicationStroop,2021.2.3,Win32,60.03842459,,,,,,,,,,,,,,,,,,,,,,,,,,,,,,,,,35,1.3317,1,0,2,2,12,1,5,×,7,5 × 7,incongruent,smallerFirst,2,1,35,,,,,,,,
,,,,,,,,,,,,,,,683,2022-02-08_15h41.50.135,multiplicationStroop,2021.2.3,Win32,60.03842459,,,,,,,,,,,,,,,,,,,,,,,,,,,,,,,,,16,1.7151,1,0,3,3,30,1,4,×,4,4 × 4,incongruent,tie,1,2,16,,,,,,,,
,,,,,,,,,,,,,,,683,2022-02-08_15h41.50.135,multiplicationStroop,2021.2.3,Win32,60.03842459,,,,,,,,,,,,,,,,,,,,,,,,,,,,,,,,,54,1.7325,1,0,4,4,6,1,6,×,9,6 × 9,incongruent,smallerFirst,2,1,54,,,,,,,,
,,,,,,,,,,,,,,,683,2022-02-08_15h41.50.135,multiplicationStroop,2021.2.3,Win32,60.03842459,,,,,,,,,,,,,,,,,,,,,,,,,,,,,,,,,14,1.2647,1,0,5,5,4,1,2,×,7,2 × 7,incongruent,smallerFirst,2,1,14,,,,,,,,
,,,,,,,,,,,,,,,683,2022-02-08_15h41.50.135,multiplicationStroop,2021.2.3,Win32,60.03842459,,,,,,,,,,,,,,,,,,,,,,,,,,,,,,,,,4,1.2156,1,0,6,6,28,1,2,×,2,2 × 2,incongruent,tie,1,2,4,,,,,,,,
,,,,,,,,,,,,,,,683,2022-02-08_15h41.50.135,multiplicationStroop,2021.2.3,Win32,60.03842459,,,,,,,,,,,,,,,,,,,,,,,,,,,,,,,,,42,4.281,1,0,7,7,17,1,7,×,6,7 × 6,incongruent,largerFirst,1,2,42,,,,,,,,
,,,,,,,,,,,,,,,683,2022-02-08_15h41.50.135,multiplicationStroop,2021.2.3,Win32,60.03842459,,,,,,,,,,,,,,,,,,,,,,,,,,,,,,,,,12,1.2534,1,0,8,8,5,1,3,×,4,3 × 4,incongruent,smallerFirst,2,1,12,,,,,,,,
,,,,,,,,,,,,,,,683,2022-02-08_15h41.50.135,multiplicationStroop,2021.2.3,Win32,60.03842459,,,,,,,,,,,,,,,,,,,,,,,,,,,,,,,,,18,1.5987,1,0,9,9,8,1,3,×,6,3 × 6,incongruent,smallerFirst,2,1,18,,,,,,,,
,,,,,,,,,,,,,,,683,2022-02-08_15h41.50.135,multiplicationStroop,2021.2.3,Win32,60.03842459,,,,,,,,,,,,,,,,,,,,,,,,,,,,,,,,,27,1.482,1,0,10,10,18,1,9,×,3,9 × 3,incongruent,largerFirst,1,2,27,,,,,,,,
,,,,,,,,,,,,,,,683,2022-02-08_15h41.50.135,multiplicationStroop,2021.2.3,Win32,60.03842459,,,,,,,,,,,,,,,,,,,,,,,,,,,,,,,,,6,1.3819,1,0,11,11,11,1,2,×,3,2 × 3,incongruent,smallerFirst,2,1,6,,,,,,,,
,,,,,,,,,,,,,,,683,2022-02-08_15h41.50.135,multiplicationStroop,2021.2.3,Win32,60.03842459,,,,,,,,,,,,,,,,,,,,,,,,,,,,,,,,,81,1.6981,1,0,12,12,35,1,9,×,9,9 × 9,incongruent,tie,1,2,81,,,,,,,,
,,,,,,,,,,,,,,,683,2022-02-08_15h41.50.135,multiplicationStroop,2021.2.3,Win32,60.03842459,,,,,,,,,,,,,,,,,,,,,,,,,,,,,,,,,9,1.2992,1,0,13,13,29,1,3,×,3,3 × 3,incongruent,tie,1,2,9,,,,,,,,
,,,,,,,,,,,,,,,683,2022-02-08_15h41.50.135,multiplicationStroop,2021.2.3,Win32,60.03842459,,,,,,,,,,,,,,,,,,,,,,,,,,,,,,,,,36,1.5819,1,0,14,14,32,1,6,×,6,6 × 6,incongruent,tie,1,2,36,,,,,,,,
,,,,,,,,,,,,,,,683,2022-02-08_15h41.50.135,multiplicationStroop,2021.2.3,Win32,60.03842459,,,,,,,,,,,,,,,,,,,,,,,,,,,,,,,,,72,1.732,1,0,15,15,0,1,8,×,9,8 × 9,incongruent,smallerFirst,2,1,72,,,,,,,,
,,,,,,,,,,,,,,,683,2022-02-08_15h41.50.135,multiplicationStroop,2021.2.3,Win32,60.03842459,,,,,,,,,,,,,,,,,,,,,,,,,,,,,,,,,36,1.7321,1,0,16,16,15,1,9,×,4,9 × 4,incongruent,largerFirst,1,2,36,,,,,,,,
,,,,,,,,,,,,,,,683,2022-02-08_15h41.50.135,multiplicationStroop,2021.2.3,Win32,60.03842459,,,,,,,,,,,,,,,,,,,,,,,,,,,,,,,,,24,1.4156,1,0,17,17,20,1,6,×,4,6 × 4,incongruent,largerFirst,1,2,24,,,,,,,,
,,,,,,,,,,,,,,,683,2022-02-08_15h41.50.135,multiplicationStroop,2021.2.3,Win32,60.03842459,,,,,,,,,,,,,,,,,,,,,,,,,,,,,,,,,30,1.5986,1,0,18,18,25,1,6,×,5,6 × 5,incongruent,largerFirst,1,2,30,,,,,,,,
,,,,,,,,,,,,,,,683,2022-02-08_15h41.50.135,multiplicationStroop,2021.2.3,Win32,60.03842459,,,,,,,,,,,,,,,,,,,,,,,,,,,,,,,,,10,1.3321,1,0,19,19,21,1,5,×,2,5 × 2,incongruent,largerFirst,1,2,10,,,,,,,,
,,,,,,,,,,,,,,,683,2022-02-08_15h41.50.135,multiplicationStroop,2021.2.3,Win32,60.03842459,,,,,,,,,,,,,,,,,,,,,,,,,,,,,,,,,16,1.7154,1,0,20,20,23,1,8,×,2,8 × 2,incongruent,largerFirst,1,2,16,,,,,,,,
,,,,,,,,,,,,,,,683,2022-02-08_15h41.50.135,multiplicationStroop,2021.2.3,Win32,60.03842459,,,,,,,,,,,,,,,,,,,,,,,,,,,,,,,,,8,1.4316,1,0,21,21,24,1,4,×,2,4 × 2,incongruent,largerFirst,1,2,8,,,,,,,,
,,,,,,,,,,,,,,,683,2022-02-08_15h41.50.135,multiplicationStroop,2021.2.3,Win32,60.03842459,,,,,,,,,,,,,,,,,,,,,,,,,,,,,,,,,21,1.3324,1,0,22,22,26,1,7,×,3,7 × 3,incongruent,largerFirst,1,2,21,,,,,,,,
,,,,,,,,,,,,,,,683,2022-02-08_15h41.50.135,multiplicationStroop,2021.2.3,Win32,60.03842459,,,,,,,,,,,,,,,,,,,,,,,,,,,,,,,,,64,1.7982,1,0,23,23,34,1,8,×,8,8 × 8,incongruent,tie,1,2,64,,,,,,,,
,,,,,,,,,,,,,,,683,2022-02-08_15h41.50.135,multiplicationStroop,2021.2.3,Win32,60.03842459,,,,,,,,,,,,,,,,,,,,,,,,,,,,,,,,,56,1.5821,1,0,24,24,14,1,8,×,7,8 × 7,incongruent,largerFirst,1,2,56,,,,,,,,
,,,,,,,,,,,,,,,683,2022-02-08_15h41.50.135,multiplicationStroop,2021.2.3,Win32,60.03842459,,,,,,,,,,,,,,,,,,,,,,,,,,,,,,,,,25,1.3989,1,0,25,25,31,1,5,×,5,5 × 5,incongruent,tie,1,2,25,,,,,,,,
,,,,,,,,,,,,,,,683,2022-02-08_15h41.50.135,multiplicationStroop,2021.2.3,Win32,60.03842459,,,,,,,,,,,,,,,,,,,,,,,,,,,,,,,,,28,1.6315,1,0,26,26,16,1,7,×,4,7 × 4,incongruent,largerFirst,1,2,28,,,,,,,,
,,,,,,,,,,,,,,,683,2022-02-08_15h41.50.135,multiplicationStroop,2021.2.3,Win32,60.03842459,,,,,,,,,,,,,,,,,,,,,,,,,,,,,,,,,18,1.4653,1,0,27,27,2,1,2,×,9,2 × 9,incongruent,smallerFirst,2,1,18,,,,,,,,
,,,,,,,,,,,,,,,683,2022-02-08_15h41.50.135,multiplicationStroop,2021.2.3,Win32,60.03842459,,,,,,,,,,,,,,,,,,,,,,,,,,,,,,,,,63,4.7141,1,0,28,28,3,1,7,×,9,7 × 9,incongruent,smallerFirst,2,1,63,,,,,,,,
,,,,,,,,,,,,,,,683,2022-02-08_15h41.50.135,multiplicationStroop,2021.2.3,Win32,60.03842459,,,,,,,,,,,,,,,,,,,,,,,,,,,,,,,,,20,1.373,1,0,29,29,27,1,5,×,4,5 × 4,incongruent,largerFirst,1,2,20,,,,,,,,
,,,,,,,,,,,,,,,683,2022-02-08_15h41.50.135,multiplicationStroop,2021.2.3,Win32,60.03842459,,,,,,,,,,,,,,,,,,,,,,,,,,,,,,,,,32,1.599,1,0,30,30,7,1,4,×,8,4 × 8,incongruent,smallerFirst,2,1,32,,,,,,,,
,,,,,,,,,,,,,,,683,2022-02-08_15h41.50.135,multiplicationStroop,2021.2.3,Win32,60.03842459,,,,,,,,,,,,,,,,,,,,,,,,,,,,,,,,,24,1.4981,1,0,31,31,9,1,3,×,8,3 × 8,incongruent,smallerFirst,2,1,24,,,,,,,,
,,,,,,,,,,,,,,,683,2022-02-08_15h41.50.135,multiplicationStroop,2021.2.3,Win32,60.03842459,,,,,,,,,,,,,,,,,,,,,,,,,,,,,,,,,45,1.5155,1,0,32,32,22,1,9,×,5,9 × 5,incongruent,largerFirst,1,2,45,,,,,,,,
,,,,,,,,,,,,,,,683,2022-02-08_15h41.50.135,multiplicationStroop,2021.2.3,Win32,60.03842459,,,,,,,,,,,,,,,,,,,,,,,,,,,,,,,,,15,1.3324,1,0,33,33,10,1,3,×,5,3 × 5,incongruent,smallerFirst,2,1,15,,,,,,,,
,,,,,,,,,,,,,,,683,2022-02-08_15h41.50.135,multiplicationStroop,2021.2.3,Win32,60.03842459,,,,,,,,,,,,,,,,,,,,,,,,,,,,,,,,,12,1.2314,1,0,34,34,19,1,6,×,2,6 × 2,incongruent,largerFirst,1,2,12,,,,,,,,
,,,,,,,,,,,,,,,683,2022-02-08_15h41.50.135,multiplicationStroop,2021.2.3,Win32,60.03842459,,,,,,,,,,,,,,,,,,,,,,,,,,,,,,,,,49,1.4988,1,0,35,35,33,1,7,×,7,7 × 7,incongruent,tie,1,2,49,,,,,,,,
,,,,,,,,,,,,,,,683,2022-02-08_15h41.50.135,multiplicationStroop,2021.2.3,Win32,60.03842459,,,,,,,,,,,,,,,,,,,,,,,,,,,,,,,,,,,,,,,,,,,,,,,,,,0,3,3,5,1,stimulusFile/mult_blk6_INcongruent.xlsx,,
,,,,,,,,,,,,,,,683,2022-02-08_15h41.50.135,multiplicationStroop,2021.2.3,Win32,60.03842459,,,,,,,,,,,,,,,,,,,,,,,,,,,,,,,space,0.9971,21,1.2476,1,0,0,0,16,1,7,×,3,7 × 3,congruent,largerFirst,2,1,21,,,,,,,,
,,,,,,,,,,,,,,,683,2022-02-08_15h41.50.135,multiplicationStroop,2021.2.3,Win32,60.03842459,,,,,,,,,,,,,,,,,,,,,,,,,,,,,,,,,15,1.3987,1,0,1,1,4,1,3,×,5,3 × 5,congruent,smallerFirst,1,2,15,,,,,,,,
,,,,,,,,,,,,,,,683,2022-02-08_15h41.50.135,multiplicationStroop,2021.2.3,Win32,60.03842459,,,,,,,,,,,,,,,,,,,,,,,,,,,,,,,,,8,1.3994,1,0,2,2,9,1,2,×,4,2 × 4,congruent,smallerFirst,1,2,8,,,,,,,,
,,,,,,,,,,,,,,,683,2022-02-08_15h41.50.135,multiplicationStroop,2021.2.3,Win32,60.03842459,,,,,,,,,,,,,,,,,,,,,,,,,,,,,,,,,9,1.3151,1,0,3,3,29,1,3,×,3,3 × 3,neutral,tie,2,1,9,,,,,,,,
,,,,,,,,,,,,,,,683,2022-02-08_15h41.50.135,multiplicationStroop,2021.2.3,Win32,60.03842459,,,,,,,,,,,,,,,,,,,,,,,,,,,,,,,,,32,1.4818,1,0,4,4,20,1,8,×,4,8 × 4,congruent,largerFirst,2,1,32,,,,,,,,
,,,,,,,,,,,,,,,683,2022-02-08_15h41.50.135,multiplicationStroop,2021.2.3,Win32,60.03842459,,,,,,,,,,,,,,,,,,,,,,,,,,,,,,,,,10,1.2314,1,0,5,5,24,1,5,×,2,5 × 2,congruent,largerFirst,2,1,10,,,,,,,,
,,,,,,,,,,,,,,,683,2022-02-08_15h41.50.135,multiplicationStroop,2021.2.3,Win32,60.03842459,,,,,,,,,,,,,,,,,,,,,,,,,,,,,,,,,24,1.315,1,0,6,6,10,1,3,×,8,3 × 8,congruent,smallerFirst,1,2,24,,,,,,,,
,,,,,,,,,,,,,,,683,2022-02-08_15h41.50.135,multiplicationStroop,2021.2.3,Win32,60.03842459,,,,,,,,,,,,,,,,,,,,,,,,,,,,,,,,,16,1.6149,1,0,7,7,5,1,2,×,8,2 × 8,congruent,smallerFirst,1,2,16,,,,,,,,
,,,,,,,,,,,,,,,683,2022-02-08_15h41.50.135,multiplicationStroop,2021.2.3,Win32,60.03842459,,,,,,,,,,,,,,,,,,,,,,,,,,,,,,,,,27,2.2318,1,0,8,8,26,1,9,×,3,9 × 3,congruent,largerFirst,2,1,27,,,,,,,,
,,,,,,,,,,,,,,,683,2022-02-08_15h41.50.135,multiplicationStroop,2021.2.3,Win32,60.03842459,,,,,,,,,,,,,,,,,,,,,,,,,,,,,,,,,4,1.0658,1,0,9,9,28,1,2,×,2,2 × 2,neutral,tie,2,1,4,,,,,,,,
,,,,,,,,,,,,,,,683,2022-02-08_15h41.50.135,multiplicationStroop,2021.2.3,Win32,60.03842459,,,,,,,,,,,,,,,,,,,,,,,,,,,,,,,,,36,1.6318,1,0,10,10,0,1,4,×,9,4 × 9,congruent,smallerFirst,1,2,36,,,,,,,,
,,,,,,,,,,,,,,,683,2022-02-08_15h41.50.135,multiplicationStroop,2021.2.3,Win32,60.03842459,,,,,,,,,,,,,,,,,,,,,,,,,,,,,,,,,12,1.1487,1,0,11,11,19,1,6,×,2,6 × 2,congruent,largerFirst,2,1,12,,,,,,,,
,,,,,,,,,,,,,,,683,2022-02-08_15h41.50.135,multiplicationStroop,2021.2.3,Win32,60.03842459,,,,,,,,,,,,,,,,,,,,,,,,,,,,,,,,,48,2.0153,0,0,12,12,3,1,6,×,7,6 × 7,congruent,smallerFirst,1,2,42,,,,,,,,
,,,,,,,,,,,,,,,683,2022-02-08_15h41.50.135,multiplicationStroop,2021.2.3,Win32,60.03842459,,,,,,,,,,,,,,,,,,,,,,,,,,,,,,,,,24,1.6819,1,0,13,13,25,1,6,×,4,6 × 4,congruent,largerFirst,2,1,24,,,,,,,,
,,,,,,,,,,,,,,,683,2022-02-08_15h41.50.135,multiplicationStroop,2021.2.3,Win32,60.03842459,,,,,,,,,,,,,,,,,,,,,,,,,,,,,,,,,81,1.4658,1,0,14,14,35,1,9,×,9,9 × 9,neutral,tie,2,1,81,,,,,,,,
,,,,,,,,,,,,,,,683,2022-02-08_15h41.50.135,multiplicationStroop,2021.2.3,Win32,60.03842459,,,,,,,,,,,,,,,,,,,,,,,,,,,,,,,,,18,1.148,1,0,15,15,22,1,9,×,2,9 × 2,congruent,largerFirst,2,1,18,,,,,,,,
,,,,,,,,,,,,,,,683,2022-02-08_15h41.50.135,multiplicationStroop,2021.2.3,Win32,60.03842459,,,,,,,,,,,,,,,,,,,,,,,,,,,,,,,,,12,1.1158,1,0,16,16,2,1,3,×,4,3 × 4,congruent,smallerFirst,1,2,12,,,,,,,,
,,,,,,,,,,,,,,,683,2022-02-08_15h41.50.135,multiplicationStroop,2021.2.3,Win32,60.03842459,,,,,,,,,,,,,,,,,,,,,,,,,,,,,,,,,20,1.4491,1,0,17,17,7,1,4,×,5,4 × 5,congruent,smallerFirst,1,2,20,,,,,,,,
,,,,,,,,,,,,,,,683,2022-02-08_15h41.50.135,multiplicationStroop,2021.2.3,Win32,60.03842459,,,,,,,,,,,,,,,,,,,,,,,,,,,,,,,,,56,2.0983,1,0,18,18,8,1,7,×,8,7 × 8,congruent,smallerFirst,1,2,56,,,,,,,,
,,,,,,,,,,,,,,,683,2022-02-08_15h41.50.135,multiplicationStroop,2021.2.3,Win32,60.03842459,,,,,,,,,,,,,,,,,,,,,,,,,,,,,,,,,3,1.5154,0,0,19,19,32,1,6,×,6,6 × 6,neutral,tie,2,1,36,,,,,,,,
,,,,,,,,,,,,,,,683,2022-02-08_15h41.50.135,multiplicationStroop,2021.2.3,Win32,60.03842459,,,,,,,,,,,,,,,,,,,,,,,,,,,,,,,,,64,3.2632,1,0,20,20,34,1,8,×,8,8 × 8,neutral,tie,2,1,64,,,,,,,,
,,,,,,,,,,,,,,,683,2022-02-08_15h41.50.135,multiplicationStroop,2021.2.3,Win32,60.03842459,,,,,,,,,,,,,,,,,,,,,,,,,,,,,,,,,35,1.3657,1,0,21,21,1,1,5,×,7,5 × 7,congruent,smallerFirst,1,2,35,,,,,,,,
,,,,,,,,,,,,,,,683,2022-02-08_15h41.50.135,multiplicationStroop,2021.2.3,Win32,60.03842459,,,,,,,,,,,,,,,,,,,,,,,,,,,,,,,,,72,1.8818,1,0,22,22,17,1,9,×,8,9 × 8,congruent,largerFirst,2,1,72,,,,,,,,
,,,,,,,,,,,,,,,683,2022-02-08_15h41.50.135,multiplicationStroop,2021.2.3,Win32,60.03842459,,,,,,,,,,,,,,,,,,,,,,,,,,,,,,,,,40,1.5153,1,0,23,23,6,1,5,×,8,5 × 8,congruent,smallerFirst,1,2,40,,,,,,,,
,,,,,,,,,,,,,,,683,2022-02-08_15h41.50.135,multiplicationStroop,2021.2.3,Win32,60.03842459,,,,,,,,,,,,,,,,,,,,,,,,,,,,,,,,,16,1.6321,1,0,24,24,30,1,4,×,4,4 × 4,neutral,tie,2,1,16,,,,,,,,
,,,,,,,,,,,,,,,683,2022-02-08_15h41.50.135,multiplicationStroop,2021.2.3,Win32,60.03842459,,,,,,,,,,,,,,,,,,,,,,,,,,,,,,,,,6,1.8154,1,0,25,25,13,1,2,×,3,2 × 3,congruent,smallerFirst,1,2,6,,,,,,,,
,,,,,,,,,,,,,,,683,2022-02-08_15h41.50.135,multiplicationStroop,2021.2.3,Win32,60.03842459,,,,,,,,,,,,,,,,,,,,,,,,,,,,,,,,,42,3.6808,0,0,26,26,18,1,8,×,6,8 × 6,congruent,largerFirst,2,1,48,,,,,,,,
,,,,,,,,,,,,,,,683,2022-02-08_15h41.50.135,multiplicationStroop,2021.2.3,Win32,60.03842459,,,,,,,,,,,,,,,,,,,,,,,,,,,,,,,,,49,2.2817,1,0,27,27,33,1,7,×,7,7 × 7,neutral,tie,2,1,49,,,,,,,,
,,,,,,,,,,,,,,,683,2022-02-08_15h41.50.135,multiplicationStroop,2021.2.3,Win32,60.03842459,,,,,,,,,,,,,,,,,,,,,,,,,,,,,,,,,25,1.3399,1,0,28,28,31,1,5,×,5,5 × 5,neutral,tie,2,1,25,,,,,,,,
,,,,,,,,,,,,,,,683,2022-02-08_15h41.50.135,multiplicationStroop,2021.2.3,Win32,60.03842459,,,,,,,,,,,,,,,,,,,,,,,,,,,,,,,,,30,1.3658,1,0,29,29,15,1,6,×,5,6 × 5,congruent,largerFirst,2,1,30,,,,,,,,
,,,,,,,,,,,,,,,683,2022-02-08_15h41.50.135,multiplicationStroop,2021.2.3,Win32,60.03842459,,,,,,,,,,,,,,,,,,,,,,,,,,,,,,,,,63,3.6807,1,0,30,30,21,1,9,×,7,9 × 7,congruent,largerFirst,2,1,63,,,,,,,,
,,,,,,,,,,,,,,,683,2022-02-08_15h41.50.135,multiplicationStroop,2021.2.3,Win32,60.03842459,,,,,,,,,,,,,,,,,,,,,,,,,,,,,,,,,14,1.2224,1,0,31,31,14,1,7,×,2,7 × 2,congruent,largerFirst,2,1,14,,,,,,,,
,,,,,,,,,,,,,,,683,2022-02-08_15h41.50.135,multiplicationStroop,2021.2.3,Win32,60.03842459,,,,,,,,,,,,,,,,,,,,,,,,,,,,,,,,,45,1.9146,1,0,32,32,23,1,9,×,5,9 × 5,congruent,largerFirst,2,1,45,,,,,,,,
,,,,,,,,,,,,,,,683,2022-02-08_15h41.50.135,multiplicationStroop,2021.2.3,Win32,60.03842459,,,,,,,,,,,,,,,,,,,,,,,,,,,,,,,,,28,1.7657,1,0,33,33,27,1,7,×,4,7 × 4,congruent,largerFirst,2,1,28,,,,,,,,
,,,,,,,,,,,,,,,683,2022-02-08_15h41.50.135,multiplicationStroop,2021.2.3,Win32,60.03842459,,,,,,,,,,,,,,,,,,,,,,,,,,,,,,,,,54,1.4821,1,0,34,34,12,1,6,×,9,6 × 9,congruent,smallerFirst,1,2,54,,,,,,,,
,,,,,,,,,,,,,,,683,2022-02-08_15h41.50.135,multiplicationStroop,2021.2.3,Win32,60.03842459,,,,,,,,,,,,,,,,,,,,,,,,,,,,,,,,,18,1.5147,1,0,35,35,11,1,3,×,6,3 × 6,congruent,smallerFirst,1,2,18,,,,,,,,
,,,,,,,,,,,,,,,683,2022-02-08_15h41.50.135,multiplicationStroop,2021.2.3,Win32,60.03842459,,,,,,,,,,,,,,,,,,,,,,,,,,,,,,,,,,,,,,,,,,,,,,,,,,0,4,4,2,1,stimulusFile/mult_blk3_congruent.xlsx,,
,,,,,,,,,,,,,,,683,2022-02-08_15h41.50.135,multiplicationStroop,2021.2.3,Win32,60.03842459,,,,,,,,,,,,,,,,,,,,,,,,,,,,,,,space,0.8488,4,1.299,1,0,0,0,28,1,2,×,2,2 × 2,neutral,tie,1.5,1.5,4,,,,,,,,
,,,,,,,,,,,,,,,683,2022-02-08_15h41.50.135,multiplicationStroop,2021.2.3,Win32,60.03842459,,,,,,,,,,,,,,,,,,,,,,,,,,,,,,,,,36,1.582,1,0,1,1,32,1,6,×,6,6 × 6,neutral,tie,1.5,1.5,36,,,,,,,,
,,,,,,,,,,,,,,,683,2022-02-08_15h41.50.135,multiplicationStroop,2021.2.3,Win32,60.03842459,,,,,,,,,,,,,,,,,,,,,,,,,,,,,,,,,15,1.3156,1,0,2,2,19,1,5,×,3,5 × 3,neutral,largerFirst,1.5,1.5,15,,,,,,,,
,,,,,,,,,,,,,,,683,2022-02-08_15h41.50.135,multiplicationStroop,2021.2.3,Win32,60.03842459,,,,,,,,,,,,,,,,,,,,,,,,,,,,,,,,,18,1.5816,1,0,3,3,14,1,6,×,3,6 × 3,neutral,largerFirst,1.5,1.5,18,,,,,,,,
,,,,,,,,,,,,,,,683,2022-02-08_15h41.50.135,multiplicationStroop,2021.2.3,Win32,60.03842459,,,,,,,,,,,,,,,,,,,,,,,,,,,,,,,,,8,1.4155,1,0,4,4,17,1,4,×,2,4 × 2,neutral,largerFirst,1.5,1.5,8,,,,,,,,
,,,,,,,,,,,,,,,683,2022-02-08_15h41.50.135,multiplicationStroop,2021.2.3,Win32,60.03842459,,,,,,,,,,,,,,,,,,,,,,,,,,,,,,,,,12,1.1989,1,0,5,5,11,1,2,×,6,2 × 6,neutral,smallerFirst,1.5,1.5,12,,,,,,,,
,,,,,,,,,,,,,,,683,2022-02-08_15h41.50.135,multiplicationStroop,2021.2.3,Win32,60.03842459,,,,,,,,,,,,,,,,,,,,,,,,,,,,,,,,,21,1.2322,1,0,6,6,22,1,7,×,3,7 × 3,neutral,largerFirst,1.5,1.5,21,,,,,,,,
,,,,,,,,,,,,,,,683,2022-02-08_15h41.50.135,multiplicationStroop,2021.2.3,Win32,60.03842459,,,,,,,,,,,,,,,,,,,,,,,,,,,,,,,,,35,1.5986,1,0,7,7,15,1,7,×,5,7 × 5,neutral,largerFirst,1.5,1.5,35,,,,,,,,
,,,,,,,,,,,,,,,683,2022-02-08_15h41.50.135,multiplicationStroop,2021.2.3,Win32,60.03842459,,,,,,,,,,,,,,,,,,,,,,,,,,,,,,,,,49,1.5155,1,0,8,8,33,1,7,×,7,7 × 7,neutral,tie,1.5,1.5,49,,,,,,,,
,,,,,,,,,,,,,,,683,2022-02-08_15h41.50.135,multiplicationStroop,2021.2.3,Win32,60.03842459,,,,,,,,,,,,,,,,,,,,,,,,,,,,,,,,,12,1.1993,1,0,9,9,7,1,3,×,4,3 × 4,neutral,smallerFirst,1.5,1.5,12,,,,,,,,
,,,,,,,,,,,,,,,683,2022-02-08_15h41.50.135,multiplicationStroop,2021.2.3,Win32,60.03842459,,,,,,,,,,,,,,,,,,,,,,,,,,,,,,,,,64,1.5649,1,0,10,10,34,1,8,×,8,8 × 8,neutral,tie,1.5,1.5,64,,,,,,,,
,,,,,,,,,,,,,,,683,2022-02-08_15h41.50.135,multiplicationStroop,2021.2.3,Win32,60.03842459,,,,,,,,,,,,,,,,,,,,,,,,,,,,,,,,,42,2.5148,1,0,11,11,20,1,7,×,6,7 × 6,neutral,largerFirst,1.5,1.5,42,,,,,,,,
,,,,,,,,,,,,,,,683,2022-02-08_15h41.50.135,multiplicationStroop,2021.2.3,Win32,60.03842459,,,,,,,,,,,,,,,,,,,,,,,,,,,,,,,,,27,2.4151,1,0,12,12,0,1,3,×,9,3 × 9,neutral,smallerFirst,1.5,1.5,27,,,,,,,,
,,,,,,,,,,,,,,,683,2022-02-08_15h41.50.135,multiplicationStroop,2021.2.3,Win32,60.03842459,,,,,,,,,,,,,,,,,,,,,,,,,,,,,,,,,81,1.9153,1,0,13,13,35,1,9,×,9,9 × 9,neutral,tie,1.5,1.5,81,,,,,,,,
,,,,,,,,,,,,,,,683,2022-02-08_15h41.50.135,multiplicationStroop,2021.2.3,Win32,60.03842459,,,,,,,,,,,,,,,,,,,,,,,,,,,,,,,,,73,2.0653,0,0,14,14,25,1,9,×,8,9 × 8,neutral,largerFirst,1.5,1.5,72,,,,,,,,
,,,,,,,,,,,,,,,683,2022-02-08_15h41.50.135,multiplicationStroop,2021.2.3,Win32,60.03842459,,,,,,,,,,,,,,,,,,,,,,,,,,,,,,,,,56,1.7318,1,0,15,15,23,1,8,×,7,8 × 7,neutral,largerFirst,1.5,1.5,56,,,,,,,,
,,,,,,,,,,,,,,,683,2022-02-08_15h41.50.135,multiplicationStroop,2021.2.3,Win32,60.03842459,,,,,,,,,,,,,,,,,,,,,,,,,,,,,,,,,63,1.8818,1,0,16,16,26,1,9,×,7,9 × 7,neutral,largerFirst,1.5,1.5,63,,,,,,,,
,,,,,,,,,,,,,,,683,2022-02-08_15h41.50.135,multiplicationStroop,2021.2.3,Win32,60.03842459,,,,,,,,,,,,,,,,,,,,,,,,,,,,,,,,,24,1.7651,1,0,17,17,8,1,3,×,8,3 × 8,neutral,smallerFirst,1.5,1.5,24,,,,,,,,
,,,,,,,,,,,,,,,683,2022-02-08_15h41.50.135,multiplicationStroop,2021.2.3,Win32,60.03842459,,,,,,,,,,,,,,,,,,,,,,,,,,,,,,,,,45,1.4152,1,0,18,18,24,1,9,×,5,9 × 5,neutral,largerFirst,1.5,1.5,45,,,,,,,,
,,,,,,,,,,,,,,,683,2022-02-08_15h41.50.135,multiplicationStroop,2021.2.3,Win32,60.03842459,,,,,,,,,,,,,,,,,,,,,,,,,,,,,,,,,28,1.5989,1,0,19,19,3,1,4,×,7,4 × 7,neutral,smallerFirst,1.5,1.5,28,,,,,,,,
,,,,,,,,,,,,,,,683,2022-02-08_15h41.50.135,multiplicationStroop,2021.2.3,Win32,60.03842459,,,,,,,,,,,,,,,,,,,,,,,,,,,,,,,,,14,1.2325,1,0,20,20,2,1,2,×,7,2 × 7,neutral,smallerFirst,1.5,1.5,14,,,,,,,,
,,,,,,,,,,,,,,,683,2022-02-08_15h41.50.135,multiplicationStroop,2021.2.3,Win32,60.03842459,,,,,,,,,,,,,,,,,,,,,,,,,,,,,,,,,20,1.4649,1,0,21,21,6,1,4,×,5,4 × 5,neutral,smallerFirst,1.5,1.5,20,,,,,,,,
,,,,,,,,,,,,,,,683,2022-02-08_15h41.50.135,multiplicationStroop,2021.2.3,Win32,60.03842459,,,,,,,,,,,,,,,,,,,,,,,,,,,,,,,,,16,1.6157,1,0,22,22,27,1,8,×,2,8 × 2,neutral,largerFirst,1.5,1.5,16,,,,,,,,
,,,,,,,,,,,,,,,683,2022-02-08_15h41.50.135,multiplicationStroop,2021.2.3,Win32,60.03842459,,,,,,,,,,,,,,,,,,,,,,,,,,,,,,,,,32,2.1484,1,0,23,23,9,1,4,×,8,4 × 8,neutral,smallerFirst,1.5,1.5,32,,,,,,,,
,,,,,,,,,,,,,,,683,2022-02-08_15h41.50.135,multiplicationStroop,2021.2.3,Win32,60.03842459,,,,,,,,,,,,,,,,,,,,,,,,,,,,,,,,,45,1.4819,0,0,24,24,13,1,4,×,9,4 × 9,neutral,smallerFirst,1.5,1.5,36,,,,,,,,
,,,,,,,,,,,,,,,683,2022-02-08_15h41.50.135,multiplicationStroop,2021.2.3,Win32,60.03842459,,,,,,,,,,,,,,,,,,,,,,,,,,,,,,,,,48,3.8141,1,0,25,25,1,1,6,×,8,6 × 8,neutral,smallerFirst,1.5,1.5,48,,,,,,,,
,,,,,,,,,,,,,,,683,2022-02-08_15h41.50.135,multiplicationStroop,2021.2.3,Win32,60.03842459,,,,,,,,,,,,,,,,,,,,,,,,,,,,,,,,,16,1.6655,1,0,26,26,30,1,4,×,4,4 × 4,neutral,tie,1.5,1.5,16,,,,,,,,
,,,,,,,,,,,,,,,683,2022-02-08_15h41.50.135,multiplicationStroop,2021.2.3,Win32,60.03842459,,,,,,,,,,,,,,,,,,,,,,,,,,,,,,,,,9,1.3158,1,0,27,27,29,1,3,×,3,3 × 3,neutral,tie,1.5,1.5,9,,,,,,,,
,,,,,,,,,,,,,,,683,2022-02-08_15h41.50.135,multiplicationStroop,2021.2.3,Win32,60.03842459,,,,,,,,,,,,,,,,,,,,,,,,,,,,,,,,,63,3.5307,0,0,28,28,21,1,9,×,6,9 × 6,neutral,largerFirst,1.5,1.5,54,,,,,,,,
,,,,,,,,,,,,,,,683,2022-02-08_15h41.50.135,multiplicationStroop,2021.2.3,Win32,60.03842459,,,,,,,,,,,,,,,,,,,,,,,,,,,,,,,,,6,1.3894,1,0,29,29,12,1,2,×,3,2 × 3,neutral,smallerFirst,1.5,1.5,6,,,,,,,,
,,,,,,,,,,,,,,,683,2022-02-08_15h41.50.135,multiplicationStroop,2021.2.3,Win32,60.03842459,,,,,,,,,,,,,,,,,,,,,,,,,,,,,,,,,30,1.4986,1,0,30,30,5,1,5,×,6,5 × 6,neutral,smallerFirst,1.5,1.5,30,,,,,,,,
,,,,,,,,,,,,,,,683,2022-02-08_15h41.50.135,multiplicationStroop,2021.2.3,Win32,60.03842459,,,,,,,,,,,,,,,,,,,,,,,,,,,,,,,,,18,1.6823,1,0,31,31,4,1,2,×,9,2 × 9,neutral,smallerFirst,1.5,1.5,18,,,,,,,,
,,,,,,,,,,,,,,,683,2022-02-08_15h41.50.135,multiplicationStroop,2021.2.3,Win32,60.03842459,,,,,,,,,,,,,,,,,,,,,,,,,,,,,,,,,10,1.3153,1,0,32,32,18,1,5,×,2,5 × 2,neutral,largerFirst,1.5,1.5,10,,,,,,,,
,,,,,,,,,,,,,,,683,2022-02-08_15h41.50.135,multiplicationStroop,2021.2.3,Win32,60.03842459,,,,,,,,,,,,,,,,,,,,,,,,,,,,,,,,,25,1.4654,1,0,33,33,31,1,5,×,5,5 × 5,neutral,tie,1.5,1.5,25,,,,,,,,
,,,,,,,,,,,,,,,683,2022-02-08_15h41.50.135,multiplicationStroop,2021.2.3,Win32,60.03842459,,,,,,,,,,,,,,,,,,,,,,,,,,,,,,,,,40,1.4986,1,0,34,34,10,1,5,×,8,5 × 8,neutral,smallerFirst,1.5,1.5,40,,,,,,,,
,,,,,,,,,,,,,,,683,2022-02-08_15h41.50.135,multiplicationStroop,2021.2.3,Win32,60.03842459,,,,,,,,,,,,,,,,,,,,,,,,,,,,,,,,,24,1.4662,1,0,35,35,16,1,6,×,4,6 × 4,neutral,largerFirst,1.5,1.5,24,,,,,,,,
,,,,,,,,,,,,,,,683,2022-02-08_15h41.50.135,multiplicationStroop,2021.2.3,Win32,60.03842459,,,,,,,,,,,,,,,,,,,,,,,,,,,,,,,,,,,,,,,,,,,,,,,,,,0,5,5,0,1,stimulusFile/mult_blk1.xlsx,,
,,,,,,,,,,,,,,,683,2022-02-08_15h41.50.135,multiplicationStroop,2021.2.3,Win32,60.03842459,,,,,,,,,,,,,,,,,,,,,,,,,,,,,,,,,,,,,,,,,,,,,,,,,,,,,,,,space,3.0528