welcomeKey_resp.keys,welcomeKey_resp.rt,X Scale,Y Scale,rt_resp_4.keys,rt_resp_4.corr,rt_resp_4.rt,speedtest_2.thisRepN,speedtest_2.thisTrialN,speedtest_2.thisN,speedtest_2.thisIndex,speedtest_2.ran,numberSc,posX,positionLayout,participant,date,expName,psychopyVersion,OS,frameRate,ct_instrresp.keys,ct_instrresp.rt,key_resp_2.keys,key_resp_2.rt,ct_keyResp.keys,ct_keyResp.corr,ct_keyResp.rt,trials.thisRepN,trials.thisTrialN,trials.thisN,trials.thisIndex,trials.ran,leftNo,rightNo,displayProblem,numDistance,leftNo_size,rightNo_size,Dims,keyAnswer,TS_Loop.thisRepN,TS_Loop.thisTrialN,TS_Loop.thisN,TS_Loop.thisIndex,TS_Loop.ran,Condition,ActionInst,instrImage,mltptaskInst_resp.keys,mltptaskInst_resp.rt,continue_resp_2.keys,continue_resp_2.rt,multp_Answer,multi_RT,multiplyCorr,LoopingMultiply.thisRepN,LoopingMultiply.thisTrialN,LoopingMultiply.thisN,LoopingMultiply.thisIndex,LoopingMultiply.ran,factor1,multiplySign,factor2,multliplyProblem,physicalSize,orderOperand,sizeF1,sizeF2,mult_answer,trials_stroop.thisRepN,trials_stroop.thisTrialN,trials_stroop.thisN,trials_stroop.thisIndex,trials_stroop.ran,multiplicationFile,esckey_resp_2.keys,esckey_resp_2.rt
y,10.7522,44.1,44.6,left,1,0.5409,0,0,0,5,1,7,-200,left,684,2022-02-19_12h09.03.568,multiplicationStroop,2021.2.3,Win32,60.03121623,,,,,,,,,,,,,,,,,,,,,,,,,,,,,,,,,,,,,,,,,,,,,,,,,,,,,,,,,
,,,,right,1,0.5059,0,1,1,8,1,1,200,right,684,2022-02-19_12h09.03.568,multiplicationStroop,2021.2.3,Win32,60.03121623,,,,,,,,,,,,,,,,,,,,,,,,,,,,,,,,,,,,,,,,,,,,,,,,,,,,,,,,,
,,,,left,1,0.4559,0,2,2,7,1,9,-200,left,684,2022-02-19_12h09.03.568,multiplicationStroop,2021.2.3,Win32,60.03121623,,,,,,,,,,,,,,,,,,,,,,,,,,,,,,,,,,,,,,,,,,,,,,,,,,,,,,,,,
,,,,left,1,0.4502,0,3,3,0,1,1,-200,left,684,2022-02-19_12h09.03.568,multiplicationStroop,2021.2.3,Win32,60.03121623,,,,,,,,,,,,,,,,,,,,,,,,,,,,,,,,,,,,,,,,,,,,,,,,,,,,,,,,,
,,,,left,1,0.4187,0,4,4,2,1,3,-200,left,684,2022-02-19_12h09.03.568,multiplicationStroop,2021.2.3,Win32,60.03121623,,,,,,,,,,,,,,,,,,,,,,,,,,,,,,,,,,,,,,,,,,,,,,,,,,,,,,,,,
,,,,right,1,0.3904,0,5,5,11,1,4,200,right,684,2022-02-19_12h09.03.568,multiplicationStroop,2021.2.3,Win32,60.03121623,,,,,,,,,,,,,,,,,,,,,,,,,,,,,,,,,,,,,,,,,,,,,,,,,,,,,,,,,
,,,,right,1,0.4483,0,6,6,10,1,3,200,right,684,2022-02-19_12h09.03.568,multiplicationStroop,2021.2.3,Win32,60.03121623,,,,,,,,,,,,,,,,,,,,,,,,,,,,,,,,,,,,,,,,,,,,,,,,,,,,,,,,,
,,,,left,1,0.4009,0,7,7,6,1,8,-200,left,684,2022-02-19_12h09.03.568,multiplicationStroop,2021.2.3,Win32,60.03121623,,,,,,,,,,,,,,,,,,,,,,,,,,,,,,,,,,,,,,,,,,,,,,,,,,,,,,,,,
,,,,right,1,0.4187,0,8,8,13,1,7,200,right,684,2022-02-19_12h09.03.568,multiplicationStroop,2021.2.3,Win32,60.03121623,,,,,,,,,,,,,,,,,,,,,,,,,,,,,,,,,,,,,,,,,,,,,,,,,,,,,,,,,
,,,,left,1,0.3671,0,9,9,4,1,6,-200,left,684,2022-02-19_12h09.03.568,multiplicationStroop,2021.2.3,Win32,60.03121623,,,,,,,,,,,,,,,,,,,,,,,,,,,,,,,,,,,,,,,,,,,,,,,,,,,,,,,,,
,,,,left,1,0.4892,0,10,10,3,1,4,-200,left,684,2022-02-19_12h09.03.568,multiplicationStroop,2021.2.3,Win32,60.03121623,,,,,,,,,,,,,,,,,,,,,,,,,,,,,,,,,,,,,,,,,,,,,,,,,,,,,,,,,
,,,,right,1,0.4264,0,11,11,12,1,6,200,right,684,2022-02-19_12h09.03.568,multiplicationStroop,2021.2.3,Win32,60.03121623,,,,,,,,,,,,,,,,,,,,,,,,,,,,,,,,,,,,,,,,,,,,,,,,,,,,,,,,,
,,,,right,1,0.4539,0,12,12,9,1,2,200,right,684,2022-02-19_12h09.03.568,multiplicationStroop,2021.2.3,Win32,60.03121623,,,,,,,,,,,,,,,,,,,,,,,,,,,,,,,,,,,,,,,,,,,,,,,,,,,,,,,,,
,,,,left,1,0.4512,0,13,13,1,1,2,-200,left,684,2022-02-19_12h09.03.568,multiplicationStroop,2021.2.3,Win32,60.03121623,,,,,,,,,,,,,,,,,,,,,,,,,,,,,,,,,,,,,,,,,,,,,,,,,,,,,,,,,
,,,,right,1,0.4737,0,14,14,15,1,9,200,right,684,2022-02-19_12h09.03.568,multiplicationStroop,2021.2.3,Win32,60.03121623,,,,,,,,,,,,,,,,,,,,,,,,,,,,,,,,,,,,,,,,,,,,,,,,,,,,,,,,,
,,,,right,1,0.45,0,15,15,14,1,8,200,right,684,2022-02-19_12h09.03.568,multiplicationStroop,2021.2.3,Win32,60.03121623,,,,,,,,,,,,,,,,,,,,,,,,,,,,,,,,,,,,,,,,,,,,,,,,,,,,,,,,,
,,,,left,1,0.4338,1,0,16,0,1,1,-200,left,684,2022-02-19_12h09.03.568,multiplicationStroop,2021.2.3,Win32,60.03121623,,,,,,,,,,,,,,,,,,,,,,,,,,,,,,,,,,,,,,,,,,,,,,,,,,,,,,,,,
,,,,left,1,0.4552,1,1,17,7,1,9,-200,left,684,2022-02-19_12h09.03.568,multiplicationStroop,2021.2.3,Win32,60.03121623,,,,,,,,,,,,,,,,,,,,,,,,,,,,,,,,,,,,,,,,,,,,,,,,,,,,,,,,,
,,,,left,1,0.4001,1,2,18,4,1,6,-200,left,684,2022-02-19_12h09.03.568,multiplicationStroop,2021.2.3,Win32,60.03121623,,,,,,,,,,,,,,,,,,,,,,,,,,,,,,,,,,,,,,,,,,,,,,,,,,,,,,,,,
,,,,left,1,0.512,1,3,19,6,1,8,-200,left,684,2022-02-19_12h09.03.568,multiplicationStroop,2021.2.3,Win32,60.03121623,,,,,,,,,,,,,,,,,,,,,,,,,,,,,,,,,,,,,,,,,,,,,,,,,,,,,,,,,
,,,,left,1,0.4167,1,4,20,3,1,4,-200,left,684,2022-02-19_12h09.03.568,multiplicationStroop,2021.2.3,Win32,60.03121623,,,,,,,,,,,,,,,,,,,,,,,,,,,,,,,,,,,,,,,,,,,,,,,,,,,,,,,,,
,,,,right,1,0.4847,1,5,21,15,1,9,200,right,684,2022-02-19_12h09.03.568,multiplicationStroop,2021.2.3,Win32,60.03121623,,,,,,,,,,,,,,,,,,,,,,,,,,,,,,,,,,,,,,,,,,,,,,,,,,,,,,,,,
,,,,right,1,0.4008,1,6,22,12,1,6,200,right,684,2022-02-19_12h09.03.568,multiplicationStroop,2021.2.3,Win32,60.03121623,,,,,,,,,,,,,,,,,,,,,,,,,,,,,,,,,,,,,,,,,,,,,,,,,,,,,,,,,
,,,,right,1,0.3498,1,7,23,13,1,7,200,right,684,2022-02-19_12h09.03.568,multiplicationStroop,2021.2.3,Win32,60.03121623,,,,,,,,,,,,,,,,,,,,,,,,,,,,,,,,,,,,,,,,,,,,,,,,,,,,,,,,,
,,,,right,1,0.3567,1,8,24,14,1,8,200,right,684,2022-02-19_12h09.03.568,multiplicationStroop,2021.2.3,Win32,60.03121623,,,,,,,,,,,,,,,,,,,,,,,,,,,,,,,,,,,,,,,,,,,,,,,,,,,,,,,,,
,,,,left,1,0.4278,1,9,25,1,1,2,-200,left,684,2022-02-19_12h09.03.568,multiplicationStroop,2021.2.3,Win32,60.03121623,,,,,,,,,,,,,,,,,,,,,,,,,,,,,,,,,,,,,,,,,,,,,,,,,,,,,,,,,
,,,,right,1,0.3862,1,10,26,11,1,4,200,right,684,2022-02-19_12h09.03.568,multiplicationStroop,2021.2.3,Win32,60.03121623,,,,,,,,,,,,,,,,,,,,,,,,,,,,,,,,,,,,,,,,,,,,,,,,,,,,,,,,,
,,,,right,1,0.4511,1,11,27,9,1,2,200,right,684,2022-02-19_12h09.03.568,multiplicationStroop,2021.2.3,Win32,60.03121623,,,,,,,,,,,,,,,,,,,,,,,,,,,,,,,,,,,,,,,,,,,,,,,,,,,,,,,,,
,,,,left,1,0.4149,1,12,28,5,1,7,-200,left,684,2022-02-19_12h09.03.568,multiplicationStroop,2021.2.3,Win32,60.03121623,,,,,,,,,,,,,,,,,,,,,,,,,,,,,,,,,,,,,,,,,,,,,,,,,,,,,,,,,
,,,,left,1,0.3888,1,13,29,2,1,3,-200,left,684,2022-02-19_12h09.03.568,multiplicationStroop,2021.2.3,Win32,60.03121623,,,,,,,,,,,,,,,,,,,,,,,,,,,,,,,,,,,,,,,,,,,,,,,,,,,,,,,,,
,,,,right,1,0.3567,1,14,30,8,1,1,200,right,684,2022-02-19_12h09.03.568,multiplicationStroop,2021.2.3,Win32,60.03121623,,,,,,,,,,,,,,,,,,,,,,,,,,,,,,,,,,,,,,,,,,,,,,,,,,,,,,,,,
,,,,right,1,0.3817,1,15,31,10,1,3,200,right,684,2022-02-19_12h09.03.568,multiplicationStroop,2021.2.3,Win32,60.03121623,,,,,,,,,,,,,,,,,,,,,,,,,,,,,,,,,,,,,,,,,,,,,,,,,,,,,,,,,
,,,,right,1,0.3663,2,0,32,8,1,1,200,right,684,2022-02-19_12h09.03.568,multiplicationStroop,2021.2.3,Win32,60.03121623,,,,,,,,,,,,,,,,,,,,,,,,,,,,,,,,,,,,,,,,,,,,,,,,,,,,,,,,,
,,,,right,1,0.3556,2,1,33,15,1,9,200,right,684,2022-02-19_12h09.03.568,multiplicationStroop,2021.2.3,Win32,60.03121623,,,,,,,,,,,,,,,,,,,,,,,,,,,,,,,,,,,,,,,,,,,,,,,,,,,,,,,,,
,,,,right,1,0.3371,2,2,34,14,1,8,200,right,684,2022-02-19_12h09.03.568,multiplicationStroop,2021.2.3,Win32,60.03121623,,,,,,,,,,,,,,,,,,,,,,,,,,,,,,,,,,,,,,,,,,,,,,,,,,,,,,,,,
,,,,left,1,0.499,2,3,35,5,1,7,-200,left,684,2022-02-19_12h09.03.568,multiplicationStroop,2021.2.3,Win32,60.03121623,,,,,,,,,,,,,,,,,,,,,,,,,,,,,,,,,,,,,,,,,,,,,,,,,,,,,,,,,
,,,,left,1,0.3652,2,4,36,4,1,6,-200,left,684,2022-02-19_12h09.03.568,multiplicationStroop,2021.2.3,Win32,60.03121623,,,,,,,,,,,,,,,,,,,,,,,,,,,,,,,,,,,,,,,,,,,,,,,,,,,,,,,,,
,,,,right,1,0.4307,2,5,37,11,1,4,200,right,684,2022-02-19_12h09.03.568,multiplicationStroop,2021.2.3,Win32,60.03121623,,,,,,,,,,,,,,,,,,,,,,,,,,,,,,,,,,,,,,,,,,,,,,,,,,,,,,,,,
,,,,right,1,0.4181,2,6,38,12,1,6,200,right,684,2022-02-19_12h09.03.568,multiplicationStroop,2021.2.3,Win32,60.03121623,,,,,,,,,,,,,,,,,,,,,,,,,,,,,,,,,,,,,,,,,,,,,,,,,,,,,,,,,
,,,,right,1,0.2917,2,7,39,9,1,2,200,right,684,2022-02-19_12h09.03.568,multiplicationStroop,2021.2.3,Win32,60.03121623,,,,,,,,,,,,,,,,,,,,,,,,,,,,,,,,,,,,,,,,,,,,,,,,,,,,,,,,,
,,,,left,1,0.3839,2,8,40,3,1,4,-200,left,684,2022-02-19_12h09.03.568,multiplicationStroop,2021.2.3,Win32,60.03121623,,,,,,,,,,,,,,,,,,,,,,,,,,,,,,,,,,,,,,,,,,,,,,,,,,,,,,,,,
,,,,left,1,0.4005,2,9,41,2,1,3,-200,left,684,2022-02-19_12h09.03.568,multiplicationStroop,2021.2.3,Win32,60.03121623,,,,,,,,,,,,,,,,,,,,,,,,,,,,,,,,,,,,,,,,,,,,,,,,,,,,,,,,,
,,,,right,1,0.4253,2,10,42,13,1,7,200,right,684,2022-02-19_12h09.03.568,multiplicationStroop,2021.2.3,Win32,60.03121623,,,,,,,,,,,,,,,,,,,,,,,,,,,,,,,,,,,,,,,,,,,,,,,,,,,,,,,,,
,,,,right,1,0.3897,2,11,43,10,1,3,200,right,684,2022-02-19_12h09.03.568,multiplicationStroop,2021.2.3,Win32,60.03121623,,,,,,,,,,,,,,,,,,,,,,,,,,,,,,,,,,,,,,,,,,,,,,,,,,,,,,,,,
,,,,left,1,0.4663,2,12,44,1,1,2,-200,left,684,2022-02-19_12h09.03.568,multiplicationStroop,2021.2.3,Win32,60.03121623,,,,,,,,,,,,,,,,,,,,,,,,,,,,,,,,,,,,,,,,,,,,,,,,,,,,,,,,,
,,,,left,1,0.3942,2,13,45,7,1,9,-200,left,684,2022-02-19_12h09.03.568,multiplicationStroop,2021.2.3,Win32,60.03121623,,,,,,,,,,,,,,,,,,,,,,,,,,,,,,,,,,,,,,,,,,,,,,,,,,,,,,,,,
,,,,left,1,0.3712,2,14,46,0,1,1,-200,left,684,2022-02-19_12h09.03.568,multiplicationStroop,2021.2.3,Win32,60.03121623,,,,,,,,,,,,,,,,,,,,,,,,,,,,,,,,,,,,,,,,,,,,,,,,,,,,,,,,,
,,,,left,1,0.3499,2,15,47,6,1,8,-200,left,684,2022-02-19_12h09.03.568,multiplicationStroop,2021.2.3,Win32,60.03121623,,,,,,,,,,,,,,,,,,,,,,,,,,,,,,,,,,,,,,,,,,,,,,,,,,,,,,,,,
,,,,left,1,0.3599,3,0,48,3,1,4,-200,left,684,2022-02-19_12h09.03.568,multiplicationStroop,2021.2.3,Win32,60.03121623,,,,,,,,,,,,,,,,,,,,,,,,,,,,,,,,,,,,,,,,,,,,,,,,,,,,,,,,,
,,,,left,1,0.3337,3,1,49,5,1,7,-200,left,684,2022-02-19_12h09.03.568,multiplicationStroop,2021.2.3,Win32,60.03121623,,,,,,,,,,,,,,,,,,,,,,,,,,,,,,,,,,,,,,,,,,,,,,,,,,,,,,,,,
,,,,left,1,0.3221,3,2,50,6,1,8,-200,left,684,2022-02-19_12h09.03.568,multiplicationStroop,2021.2.3,Win32,60.03121623,,,,,,,,,,,,,,,,,,,,,,,,,,,,,,,,,,,,,,,,,,,,,,,,,,,,,,,,,
,,,,left,1,0.3379,3,3,51,4,1,6,-200,left,684,2022-02-19_12h09.03.568,multiplicationStroop,2021.2.3,Win32,60.03121623,,,,,,,,,,,,,,,,,,,,,,,,,,,,,,,,,,,,,,,,,,,,,,,,,,,,,,,,,
,,,,right,1,0.4458,3,4,52,11,1,4,200,right,684,2022-02-19_12h09.03.568,multiplicationStroop,2021.2.3,Win32,60.03121623,,,,,,,,,,,,,,,,,,,,,,,,,,,,,,,,,,,,,,,,,,,,,,,,,,,,,,,,,
,,,,left,1,0.4139,3,5,53,7,1,9,-200,left,684,2022-02-19_12h09.03.568,multiplicationStroop,2021.2.3,Win32,60.03121623,,,,,,,,,,,,,,,,,,,,,,,,,,,,,,,,,,,,,,,,,,,,,,,,,,,,,,,,,
,,,,right,1,0.4497,3,6,54,14,1,8,200,right,684,2022-02-19_12h09.03.568,multiplicationStroop,2021.2.3,Win32,60.03121623,,,,,,,,,,,,,,,,,,,,,,,,,,,,,,,,,,,,,,,,,,,,,,,,,,,,,,,,,
,,,,right,1,0.3706,3,7,55,8,1,1,200,right,684,2022-02-19_12h09.03.568,multiplicationStroop,2021.2.3,Win32,60.03121623,,,,,,,,,,,,,,,,,,,,,,,,,,,,,,,,,,,,,,,,,,,,,,,,,,,,,,,,,
,,,,right,1,0.3413,3,8,56,10,1,3,200,right,684,2022-02-19_12h09.03.568,multiplicationStroop,2021.2.3,Win32,60.03121623,,,,,,,,,,,,,,,,,,,,,,,,,,,,,,,,,,,,,,,,,,,,,,,,,,,,,,,,,
,,,,right,1,0.3553,3,9,57,12,1,6,200,right,684,2022-02-19_12h09.03.568,multiplicationStroop,2021.2.3,Win32,60.03121623,,,,,,,,,,,,,,,,,,,,,,,,,,,,,,,,,,,,,,,,,,,,,,,,,,,,,,,,,
,,,,left,1,0.4169,3,10,58,2,1,3,-200,left,684,2022-02-19_12h09.03.568,multiplicationStroop,2021.2.3,Win32,60.03121623,,,,,,,,,,,,,,,,,,,,,,,,,,,,,,,,,,,,,,,,,,,,,,,,,,,,,,,,,
,,,,left,1,0.3387,3,11,59,0,1,1,-200,left,684,2022-02-19_12h09.03.568,multiplicationStroop,2021.2.3,Win32,60.03121623,,,,,,,,,,,,,,,,,,,,,,,,,,,,,,,,,,,,,,,,,,,,,,,,,,,,,,,,,
,,,,right,1,0.4006,3,12,60,9,1,2,200,right,684,2022-02-19_12h09.03.568,multiplicationStroop,2021.2.3,Win32,60.03121623,,,,,,,,,,,,,,,,,,,,,,,,,,,,,,,,,,,,,,,,,,,,,,,,,,,,,,,,,
,,,,left,1,0.4391,3,13,61,1,1,2,-200,left,684,2022-02-19_12h09.03.568,multiplicationStroop,2021.2.3,Win32,60.03121623,,,,,,,,,,,,,,,,,,,,,,,,,,,,,,,,,,,,,,,,,,,,,,,,,,,,,,,,,
,,,,right,1,0.3994,3,14,62,15,1,9,200,right,684,2022-02-19_12h09.03.568,multiplicationStroop,2021.2.3,Win32,60.03121623,,,,,,,,,,,,,,,,,,,,,,,,,,,,,,,,,,,,,,,,,,,,,,,,,,,,,,,,,
,,,,right,1,0.3839,3,15,63,13,1,7,200,right,684,2022-02-19_12h09.03.568,multiplicationStroop,2021.2.3,Win32,60.03121623,,,,,,,,,,,,,,,,,,,,,,,,,,,,,,,,,,,,,,,,,,,,,,,,,,,,,,,,,
,,,,,,,,,,,,,,,684,2022-02-19_12h09.03.568,multiplicationStroop,2021.2.3,Win32,60.03121623,space,11.5629,space,7.5841,right,1,0.7672,0,0,0,16,1,1,6,1 | 6,5,1.4111,1.9756,congruent,right,,,,,,stimulusFile/physical.xlsx,,,,,,,,,,,,,,,,,,,,,,,,,,,,,,,
,,,,,,,,,,,,,,,684,2022-02-19_12h09.03.568,multiplicationStroop,2021.2.3,Win32,60.03121623,,,,,right,1,0.5802,0,1,1,63,1,9,9,9 | 9,0,1.4111,1.9756,neutral,right,,,,,,stimulusFile/physical.xlsx,,,,,,,,,,,,,,,,,,,,,,,,,,,,,,,
,,,,,,,,,,,,,,,684,2022-02-19_12h09.03.568,multiplicationStroop,2021.2.3,Win32,60.03121623,,,,,left,1,0.5489,0,2,2,49,1,3,3,3 | 3,0,1.9756,1.4111,neutral,left,,,,,,stimulusFile/physical.xlsx,,,,,,,,,,,,,,,,,,,,,,,,,,,,,,,
,,,,,,,,,,,,,,,684,2022-02-19_12h09.03.568,multiplicationStroop,2021.2.3,Win32,60.03121623,,,,,right,1,0.4892,0,3,3,44,1,6,1,6 | 1,5,1.4111,1.9756,incongruent,right,,,,,,stimulusFile/physical.xlsx,,,,,,,,,,,,,,,,,,,,,,,,,,,,,,,
,,,,,,,,,,,,,,,684,2022-02-19_12h09.03.568,multiplicationStroop,2021.2.3,Win32,60.03121623,,,,,left,1,0.5851,0,4,4,26,1,6,7,6 | 7,1,1.9756,1.4111,incongruent,left,,,,,,stimulusFile/physical.xlsx,,,,,,,,,,,,,,,,,,,,,,,,,,,,,,,
,,,,,,,,,,,,,,,684,2022-02-19_12h09.03.568,multiplicationStroop,2021.2.3,Win32,60.03121623,,,,,left,1,0.5701,0,5,5,33,1,2,4,2 | 4,2,1.9756,1.4111,incongruent,left,,,,,,stimulusFile/physical.xlsx,,,,,,,,,,,,,,,,,,,,,,,,,,,,,,,
,,,,,,,,,,,,,,,684,2022-02-19_12h09.03.568,multiplicationStroop,2021.2.3,Win32,60.03121623,,,,,left,1,0.4861,0,6,6,5,1,4,3,4 | 3,1,1.9756,1.4111,congruent,left,,,,,,stimulusFile/physical.xlsx,,,,,,,,,,,,,,,,,,,,,,,,,,,,,,,
,,,,,,,,,,,,,,,684,2022-02-19_12h09.03.568,multiplicationStroop,2021.2.3,Win32,60.03121623,,,,,left,1,0.5851,0,7,7,51,1,8,8,8 | 8,0,1.9756,1.4111,neutral,left,,,,,,stimulusFile/physical.xlsx,,,,,,,,,,,,,,,,,,,,,,,,,,,,,,,
,,,,,,,,,,,,,,,684,2022-02-19_12h09.03.568,multiplicationStroop,2021.2.3,Win32,60.03121623,,,,,left,1,0.5028,0,8,8,70,1,8,8,8 | 8,0,1.9756,1.4111,neutral,left,,,,,,stimulusFile/physical.xlsx,,,,,,,,,,,,,,,,,,,,,,,,,,,,,,,
,,,,,,,,,,,,,,,684,2022-02-19_12h09.03.568,multiplicationStroop,2021.2.3,Win32,60.03121623,,,,,left,1,0.6763,0,9,9,42,1,3,8,3 | 8,5,1.9756,1.4111,incongruent,left,,,,,,stimulusFile/physical.xlsx,,,,,,,,,,,,,,,,,,,,,,,,,,,,,,,
,,,,,,,,,,,,,,,684,2022-02-19_12h09.03.568,multiplicationStroop,2021.2.3,Win32,60.03121623,,,,,right,1,0.599,0,10,10,1,1,3,4,3 | 4,1,1.4111,1.9756,congruent,right,,,,,,stimulusFile/physical.xlsx,,,,,,,,,,,,,,,,,,,,,,,,,,,,,,,
,,,,,,,,,,,,,,,684,2022-02-19_12h09.03.568,multiplicationStroop,2021.2.3,Win32,60.03121623,,,,,left,1,0.5619,0,11,11,43,1,4,9,4 | 9,5,1.9756,1.4111,incongruent,left,,,,,,stimulusFile/physical.xlsx,,,,,,,,,,,,,,,,,,,,,,,,,,,,,,,
,,,,,,,,,,,,,,,684,2022-02-19_12h09.03.568,multiplicationStroop,2021.2.3,Win32,60.03121623,,,,,left,1,0.569,0,12,12,50,1,6,6,6 | 6,0,1.9756,1.4111,neutral,left,,,,,,stimulusFile/physical.xlsx,,,,,,,,,,,,,,,,,,,,,,,,,,,,,,,
,,,,,,,,,,,,,,,684,2022-02-19_12h09.03.568,multiplicationStroop,2021.2.3,Win32,60.03121623,,,,,right,1,0.4864,0,13,13,37,1,4,2,4 | 2,2,1.4111,1.9756,incongruent,right,,,,,,stimulusFile/physical.xlsx,,,,,,,,,,,,,,,,,,,,,,,,,,,,,,,
,,,,,,,,,,,,,,,684,2022-02-19_12h09.03.568,multiplicationStroop,2021.2.3,Win32,60.03121623,,,,,left,0,0.5839,0,14,14,64,1,1,1,1 | 1,0,1.9756,1.4111,neutral,right,,,,,,stimulusFile/physical.xlsx,,,,,,,,,,,,,,,,,,,,,,,,,,,,,,,
,,,,,,,,,,,,,,,684,2022-02-19_12h09.03.568,multiplicationStroop,2021.2.3,Win32,60.03121623,,,,,right,1,0.5584,0,15,15,61,1,4,4,4 | 4,0,1.4111,1.9756,neutral,right,,,,,,stimulusFile/physical.xlsx,,,,,,,,,,,,,,,,,,,,,,,,,,,,,,,
,,,,,,,,,,,,,,,684,2022-02-19_12h09.03.568,multiplicationStroop,2021.2.3,Win32,60.03121623,,,,,right,1,0.5527,0,16,16,19,1,4,9,4 | 9,5,1.4111,1.9756,congruent,right,,,,,,stimulusFile/physical.xlsx,,,,,,,,,,,,,,,,,,,,,,,,,,,,,,,
,,,,,,,,,,,,,,,684,2022-02-19_12h09.03.568,multiplicationStroop,2021.2.3,Win32,60.03121623,,,,,left,1,0.5153,0,17,17,68,1,6,6,6 | 6,0,1.9756,1.4111,neutral,left,,,,,,stimulusFile/physical.xlsx,,,,,,,,,,,,,,,,,,,,,,,,,,,,,,,
,,,,,,,,,,,,,,,684,2022-02-19_12h09.03.568,multiplicationStroop,2021.2.3,Win32,60.03121623,,,,,left,1,0.5677,0,18,18,54,1,7,7,7 | 7,0,1.9756,1.4111,neutral,left,,,,,,stimulusFile/physical.xlsx,,,,,,,,,,,,,,,,,,,,,,,,,,,,,,,
,,,,,,,,,,,,,,,684,2022-02-19_12h09.03.568,multiplicationStroop,2021.2.3,Win32,60.03121623,,,,,right,1,0.562,0,19,19,8,1,1,3,1 | 3,2,1.4111,1.9756,congruent,right,,,,,,stimulusFile/physical.xlsx,,,,,,,,,,,,,,,,,,,,,,,,,,,,,,,
,,,,,,,,,,,,,,,684,2022-02-19_12h09.03.568,multiplicationStroop,2021.2.3,Win32,60.03121623,,,,,right,0,0.5082,0,20,20,71,1,9,9,9 | 9,0,1.4111,1.9756,neutral,left,,,,,,stimulusFile/physical.xlsx,,,,,,,,,,,,,,,,,,,,,,,,,,,,,,,
,,,,,,,,,,,,,,,684,2022-02-19_12h09.03.568,multiplicationStroop,2021.2.3,Win32,60.03121623,,,,,left,1,0.5554,0,21,21,20,1,6,1,6 | 1,5,1.9756,1.4111,congruent,left,,,,,,stimulusFile/physical.xlsx,,,,,,,,,,,,,,,,,,,,,,,,,,,,,,,
,,,,,,,,,,,,,,,684,2022-02-19_12h09.03.568,multiplicationStroop,2021.2.3,Win32,60.03121623,,,,,right,1,0.4808,0,22,22,62,1,8,8,8 | 8,0,1.4111,1.9756,neutral,right,,,,,,stimulusFile/physical.xlsx,,,,,,,,,,,,,,,,,,,,,,,,,,,,,,,
,,,,,,,,,,,,,,,684,2022-02-19_12h09.03.568,multiplicationStroop,2021.2.3,Win32,60.03121623,,,,,right,1,0.5196,0,23,23,58,1,6,6,6 | 6,0,1.4111,1.9756,neutral,right,,,,,,stimulusFile/physical.xlsx,,,,,,,,,,,,,,,,,,,,,,,,,,,,,,,
,,,,,,,,,,,,,,,684,2022-02-19_12h09.03.568,multiplicationStroop,2021.2.3,Win32,60.03121623,,,,,left,0,0.5801,0,24,24,66,1,3,3,3 | 3,0,1.9756,1.4111,neutral,right,,,,,,stimulusFile/physical.xlsx,,,,,,,,,,,,,,,,,,,,,,,,,,,,,,,
,,,,,,,,,,,,,,,684,2022-02-19_12h09.03.568,multiplicationStroop,2021.2.3,Win32,60.03121623,,,,,left,1,0.4725,0,25,25,15,1,9,7,9 | 7,2,1.9756,1.4111,congruent,left,,,,,,stimulusFile/physical.xlsx,,,,,,,,,,,,,,,,,,,,,,,,,,,,,,,
,,,,,,,,,,,,,,,684,2022-02-19_12h09.03.568,multiplicationStroop,2021.2.3,Win32,60.03121623,,,,,left,1,0.4565,0,26,26,53,1,4,4,4 | 4,0,1.9756,1.4111,neutral,left,,,,,,stimulusFile/physical.xlsx,,,,,,,,,,,,,,,,,,,,,,,,,,,,,,,
,,,,,,,,,,,,,,,684,2022-02-19_12h09.03.568,multiplicationStroop,2021.2.3,Win32,60.03121623,,,,,right,1,0.5863,0,27,27,60,1,3,3,3 | 3,0,1.4111,1.9756,neutral,right,,,,,,stimulusFile/physical.xlsx,,,,,,,,,,,,,,,,,,,,,,,,,,,,,,,
,,,,,,,,,,,,,,,684,2022-02-19_12h09.03.568,multiplicationStroop,2021.2.3,Win32,60.03121623,,,,,right,1,0.5163,0,28,28,29,1,4,3,4 | 3,1,1.4111,1.9756,incongruent,right,,,,,,stimulusFile/physical.xlsx,,,,,,,,,,,,,,,,,,,,,,,,,,,,,,,
,,,,,,,,,,,,,,,684,2022-02-19_12h09.03.568,multiplicationStroop,2021.2.3,Win32,60.03121623,,,,,right,1,0.4476,0,29,29,0,1,1,2,1 | 2,1,1.4111,1.9756,congruent,right,,,,,,stimulusFile/physical.xlsx,,,,,,,,,,,,,,,,,,,,,,,,,,,,,,,
,,,,,,,,,,,,,,,684,2022-02-19_12h09.03.568,multiplicationStroop,2021.2.3,Win32,60.03121623,,,,,left,1,0.5024,0,30,30,12,1,3,1,3 | 1,2,1.9756,1.4111,congruent,left,,,,,,stimulusFile/physical.xlsx,,,,,,,,,,,,,,,,,,,,,,,,,,,,,,,
,,,,,,,,,,,,,,,684,2022-02-19_12h09.03.568,multiplicationStroop,2021.2.3,Win32,60.03121623,,,,,left,1,0.5261,0,31,31,27,1,8,9,8 | 9,1,1.9756,1.4111,incongruent,left,,,,,,stimulusFile/physical.xlsx,,,,,,,,,,,,,,,,,,,,,,,,,,,,,,,
,,,,,,,,,,,,,,,684,2022-02-19_12h09.03.568,multiplicationStroop,2021.2.3,Win32,60.03121623,,,,,right,1,0.5815,0,32,32,38,1,8,6,8 | 6,2,1.4111,1.9756,incongruent,right,,,,,,stimulusFile/physical.xlsx,,,,,,,,,,,,,,,,,,,,,,,,,,,,,,,
,,,,,,,,,,,,,,,684,2022-02-19_12h09.03.568,multiplicationStroop,2021.2.3,Win32,60.03121623,,,,,right,1,0.4848,0,33,33,30,1,7,6,7 | 6,1,1.4111,1.9756,incongruent,right,,,,,,stimulusFile/physical.xlsx,,,,,,,,,,,,,,,,,,,,,,,,,,,,,,,
,,,,,,,,,,,,,,,684,2022-02-19_12h09.03.568,multiplicationStroop,2021.2.3,Win32,60.03121623,,,,,right,1,0.4704,0,34,34,11,1,7,9,7 | 9,2,1.4111,1.9756,congruent,right,,,,,,stimulusFile/physical.xlsx,,,,,,,,,,,,,,,,,,,,,,,,,,,,,,,
,,,,,,,,,,,,,,,684,2022-02-19_12h09.03.568,multiplicationStroop,2021.2.3,Win32,60.03121623,,,,,left,1,0.4787,0,35,35,14,1,8,6,8 | 6,2,1.9756,1.4111,congruent,left,,,,,,stimulusFile/physical.xlsx,,,,,,,,,,,,,,,,,,,,,,,,,,,,,,,
,,,,,,,,,,,,,,,684,2022-02-19_12h09.03.568,multiplicationStroop,2021.2.3,Win32,60.03121623,,,,,right,1,0.498,0,36,36,9,1,2,4,2 | 4,2,1.4111,1.9756,congruent,right,,,,,,stimulusFile/physical.xlsx,,,,,,,,,,,,,,,,,,,,,,,,,,,,,,,
,,,,,,,,,,,,,,,684,2022-02-19_12h09.03.568,multiplicationStroop,2021.2.3,Win32,60.03121623,,,,,right,1,0.5576,0,37,37,2,1,6,7,6 | 7,1,1.4111,1.9756,congruent,right,,,,,,stimulusFile/physical.xlsx,,,,,,,,,,,,,,,,,,,,,,,,,,,,,,,
,,,,,,,,,,,,,,,684,2022-02-19_12h09.03.568,multiplicationStroop,2021.2.3,Win32,60.03121623,,,,,left,1,0.983,0,38,38,34,1,6,8,6 | 8,2,1.9756,1.4111,incongruent,left,,,,,,stimulusFile/physical.xlsx,,,,,,,,,,,,,,,,,,,,,,,,,,,,,,,
,,,,,,,,,,,,,,,684,2022-02-19_12h09.03.568,multiplicationStroop,2021.2.3,Win32,60.03121623,,,,,right,0,0.9029,0,39,39,69,1,7,7,7 | 7,0,1.4111,1.9756,neutral,left,,,,,,stimulusFile/physical.xlsx,,,,,,,,,,,,,,,,,,,,,,,,,,,,,,,
,,,,,,,,,,,,,,,684,2022-02-19_12h09.03.568,multiplicationStroop,2021.2.3,Win32,60.03121623,,,,,left,1,0.4969,0,40,40,25,1,3,4,3 | 4,1,1.9756,1.4111,incongruent,left,,,,,,stimulusFile/physical.xlsx,,,,,,,,,,,,,,,,,,,,,,,,,,,,,,,
,,,,,,,,,,,,,,,684,2022-02-19_12h09.03.568,multiplicationStroop,2021.2.3,Win32,60.03121623,,,,,right,1,0.4148,0,41,41,18,1,3,8,3 | 8,5,1.4111,1.9756,congruent,right,,,,,,stimulusFile/physical.xlsx,,,,,,,,,,,,,,,,,,,,,,,,,,,,,,,
,,,,,,,,,,,,,,,684,2022-02-19_12h09.03.568,multiplicationStroop,2021.2.3,Win32,60.03121623,,,,,right,0,0.4496,0,42,42,24,1,1,2,1 | 2,1,1.9756,1.4111,incongruent,left,,,,,,stimulusFile/physical.xlsx,,,,,,,,,,,,,,,,,,,,,,,,,,,,,,,
,,,,,,,,,,,,,,,684,2022-02-19_12h09.03.568,multiplicationStroop,2021.2.3,Win32,60.03121623,,,,,right,1,1.2777,0,43,43,28,1,2,1,2 | 1,1,1.4111,1.9756,incongruent,right,,,,,,stimulusFile/physical.xlsx,,,,,,,,,,,,,,,,,,,,,,,,,,,,,,,
,,,,,,,,,,,,,,,684,2022-02-19_12h09.03.568,multiplicationStroop,2021.2.3,Win32,60.03121623,,,,,left,1,0.5172,0,44,44,35,1,7,9,7 | 9,2,1.9756,1.4111,incongruent,left,,,,,,stimulusFile/physical.xlsx,,,,,,,,,,,,,,,,,,,,,,,,,,,,,,,
,,,,,,,,,,,,,,,684,2022-02-19_12h09.03.568,multiplicationStroop,2021.2.3,Win32,60.03121623,,,,,right,1,0.6355,0,45,45,47,1,9,4,9 | 4,5,1.4111,1.9756,incongruent,right,,,,,,stimulusFile/physical.xlsx,,,,,,,,,,,,,,,,,,,,,,,,,,,,,,,
,,,,,,,,,,,,,,,684,2022-02-19_12h09.03.568,multiplicationStroop,2021.2.3,Win32,60.03121623,,,,,left,1,0.5404,0,46,46,22,1,8,3,8 | 3,5,1.9756,1.4111,congruent,left,,,,,,stimulusFile/physical.xlsx,,,,,,,,,,,,,,,,,,,,,,,,,,,,,,,
,,,,,,,,,,,,,,,684,2022-02-19_12h09.03.568,multiplicationStroop,2021.2.3,Win32,60.03121623,,,,,left,1,0.6266,0,47,47,55,1,9,9,9 | 9,0,1.9756,1.4111,neutral,left,,,,,,stimulusFile/physical.xlsx,,,,,,,,,,,,,,,,,,,,,,,,,,,,,,,
,,,,,,,,,,,,,,,684,2022-02-19_12h09.03.568,multiplicationStroop,2021.2.3,Win32,60.03121623,,,,,left,1,0.5382,0,48,48,7,1,9,8,9 | 8,1,1.9756,1.4111,congruent,left,,,,,,stimulusFile/physical.xlsx,,,,,,,,,,,,,,,,,,,,,,,,,,,,,,,
,,,,,,,,,,,,,,,684,2022-02-19_12h09.03.568,multiplicationStroop,2021.2.3,Win32,60.03121623,,,,,left,1,0.7905,0,49,49,4,1,2,1,2 | 1,1,1.9756,1.4111,congruent,left,,,,,,stimulusFile/physical.xlsx,,,,,,,,,,,,,,,,,,,,,,,,,,,,,,,
,,,,,,,,,,,,,,,684,2022-02-19_12h09.03.568,multiplicationStroop,2021.2.3,Win32,60.03121623,,,,,right,1,0.5494,0,50,50,36,1,3,1,3 | 1,2,1.4111,1.9756,incongruent,right,,,,,,stimulusFile/physical.xlsx,,,,,,,,,,,,,,,,,,,,,,,,,,,,,,,
,,,,,,,,,,,,,,,684,2022-02-19_12h09.03.568,multiplicationStroop,2021.2.3,Win32,60.03121623,,,,,left,1,0.6147,0,51,51,21,1,7,2,7 | 2,5,1.9756,1.4111,congruent,left,,,,,,stimulusFile/physical.xlsx,,,,,,,,,,,,,,,,,,,,,,,,,,,,,,,
,,,,,,,,,,,,,,,684,2022-02-19_12h09.03.568,multiplicationStroop,2021.2.3,Win32,60.03121623,,,,,right,1,0.5662,0,52,52,39,1,9,7,9 | 7,2,1.4111,1.9756,incongruent,right,,,,,,stimulusFile/physical.xlsx,,,,,,,,,,,,,,,,,,,,,,,,,,,,,,,
,,,,,,,,,,,,,,,684,2022-02-19_12h09.03.568,multiplicationStroop,2021.2.3,Win32,60.03121623,,,,,right,1,0.9205,0,53,53,67,1,4,4,4 | 4,0,1.4111,1.9756,neutral,right,,,,,,stimulusFile/physical.xlsx,,,,,,,,,,,,,,,,,,,,,,,,,,,,,,,
,,,,,,,,,,,,,,,684,2022-02-19_12h09.03.568,multiplicationStroop,2021.2.3,Win32,60.03121623,,,,,left,1,0.5649,0,54,54,6,1,7,6,7 | 6,1,1.9756,1.4111,congruent,left,,,,,,stimulusFile/physical.xlsx,,,,,,,,,,,,,,,,,,,,,,,,,,,,,,,
,,,,,,,,,,,,,,,684,2022-02-19_12h09.03.568,multiplicationStroop,2021.2.3,Win32,60.03121623,,,,,right,1,0.5491,0,55,55,45,1,7,2,7 | 2,5,1.4111,1.9756,incongruent,right,,,,,,stimulusFile/physical.xlsx,,,,,,,,,,,,,,,,,,,,,,,,,,,,,,,
,,,,,,,,,,,,,,,684,2022-02-19_12h09.03.568,multiplicationStroop,2021.2.3,Win32,60.03121623,,,,,right,1,0.6535,0,56,56,56,1,1,1,1 | 1,0,1.4111,1.9756,neutral,right,,,,,,stimulusFile/physical.xlsx,,,,,,,,,,,,,,,,,,,,,,,,,,,,,,,
,,,,,,,,,,,,,,,684,2022-02-19_12h09.03.568,multiplicationStroop,2021.2.3,Win32,60.03121623,,,,,right,1,0.5321,0,57,57,3,1,8,9,8 | 9,1,1.4111,1.9756,congruent,right,,,,,,stimulusFile/physical.xlsx,,,,,,,,,,,,,,,,,,,,,,,,,,,,,,,
,,,,,,,,,,,,,,,684,2022-02-19_12h09.03.568,multiplicationStroop,2021.2.3,Win32,60.03121623,,,,,left,1,0.564,0,58,58,52,1,2,2,2 | 2,0,1.9756,1.4111,neutral,left,,,,,,stimulusFile/physical.xlsx,,,,,,,,,,,,,,,,,,,,,,,,,,,,,,,
,,,,,,,,,,,,,,,684,2022-02-19_12h09.03.568,multiplicationStroop,2021.2.3,Win32,60.03121623,,,,,left,1,0.6067,0,59,59,41,1,2,7,2 | 7,5,1.9756,1.4111,incongruent,left,,,,,,stimulusFile/physical.xlsx,,,,,,,,,,,,,,,,,,,,,,,,,,,,,,,
,,,,,,,,,,,,,,,684,2022-02-19_12h09.03.568,multiplicationStroop,2021.2.3,Win32,60.03121623,,,,,left,1,0.5714,0,60,60,23,1,9,4,9 | 4,5,1.9756,1.4111,congruent,left,,,,,,stimulusFile/physical.xlsx,,,,,,,,,,,,,,,,,,,,,,,,,,,,,,,
,,,,,,,,,,,,,,,684,2022-02-19_12h09.03.568,multiplicationStroop,2021.2.3,Win32,60.03121623,,,,,left,1,0.6321,0,61,61,48,1,1,1,1 | 1,0,1.9756,1.4111,neutral,left,,,,,,stimulusFile/physical.xlsx,,,,,,,,,,,,,,,,,,,,,,,,,,,,,,,
,,,,,,,,,,,,,,,684,2022-02-19_12h09.03.568,multiplicationStroop,2021.2.3,Win32,60.03121623,,,,,right,1,0.656,0,62,62,10,1,6,8,6 | 8,2,1.4111,1.9756,congruent,right,,,,,,stimulusFile/physical.xlsx,,,,,,,,,,,,,,,,,,,,,,,,,,,,,,,
,,,,,,,,,,,,,,,684,2022-02-19_12h09.03.568,multiplicationStroop,2021.2.3,Win32,60.03121623,,,,,right,1,0.5,0,63,63,31,1,9,8,9 | 8,1,1.4111,1.9756,incongruent,right,,,,,,stimulusFile/physical.xlsx,,,,,,,,,,,,,,,,,,,,,,,,,,,,,,,
,,,,,,,,,,,,,,,684,2022-02-19_12h09.03.568,multiplicationStroop,2021.2.3,Win32,60.03121623,,,,,right,1,0.5571,0,64,64,57,1,2,2,2 | 2,0,1.4111,1.9756,neutral,right,,,,,,stimulusFile/physical.xlsx,,,,,,,,,,,,,,,,,,,,,,,,,,,,,,,
,,,,,,,,,,,,,,,684,2022-02-19_12h09.03.568,multiplicationStroop,2021.2.3,Win32,60.03121623,,,,,right,1,0.5478,0,65,65,59,1,7,7,7 | 7,0,1.4111,1.9756,neutral,right,,,,,,stimulusFile/physical.xlsx,,,,,,,,,,,,,,,,,,,,,,,,,,,,,,,
,,,,,,,,,,,,,,,684,2022-02-19_12h09.03.568,multiplicationStroop,2021.2.3,Win32,60.03121623,,,,,right,1,0.7072,0,66,66,17,1,2,7,2 | 7,5,1.4111,1.9756,congruent,right,,,,,,stimulusFile/physical.xlsx,,,,,,,,,,,,,,,,,,,,,,,,,,,,,,,
,,,,,,,,,,,,,,,684,2022-02-19_12h09.03.568,multiplicationStroop,2021.2.3,Win32,60.03121623,,,,,right,1,0.7448,0,67,67,46,1,8,3,8 | 3,5,1.4111,1.9756,incongruent,right,,,,,,stimulusFile/physical.xlsx,,,,,,,,,,,,,,,,,,,,,,,,,,,,,,,
,,,,,,,,,,,,,,,684,2022-02-19_12h09.03.568,multiplicationStroop,2021.2.3,Win32,60.03121623,,,,,right,1,0.4733,0,68,68,65,1,2,2,2 | 2,0,1.4111,1.9756,neutral,right,,,,,,stimulusFile/physical.xlsx,,,,,,,,,,,,,,,,,,,,,,,,,,,,,,,
,,,,,,,,,,,,,,,684,2022-02-19_12h09.03.568,multiplicationStroop,2021.2.3,Win32,60.03121623,,,,,left,1,0.6124,0,69,69,32,1,1,3,1 | 3,2,1.9756,1.4111,incongruent,left,,,,,,stimulusFile/physical.xlsx,,,,,,,,,,,,,,,,,,,,,,,,,,,,,,,
,,,,,,,,,,,,,,,684,2022-02-19_12h09.03.568,multiplicationStroop,2021.2.3,Win32,60.03121623,,,,,left,1,0.5372,0,70,70,40,1,1,6,1 | 6,5,1.9756,1.4111,incongruent,left,,,,,,stimulusFile/physical.xlsx,,,,,,,,,,,,,,,,,,,,,,,,,,,,,,,
,,,,,,,,,,,,,,,684,2022-02-19_12h09.03.568,multiplicationStroop,2021.2.3,Win32,60.03121623,,,,,left,1,0.4858,0,71,71,13,1,4,2,4 | 2,2,1.9756,1.4111,congruent,left,,,,,,stimulusFile/physical.xlsx,,,,,,,,,,,,,,,,,,,,,,,,,,,,,,,
,,,,,,,,,,,,,,,684,2022-02-19_12h09.03.568,multiplicationStroop,2021.2.3,Win32,60.03121623,,,,,,,,,,,,,,,,,,,,,0,0,0,1,1,stimulusFile/physical.xlsx,PHYSICALLY larger (larger font size).,images/physicallyLarger.png,,,,,,,,,,,,,,,,,,,,,,,,,,,,,
,,,,,,,,,,,,,,,684,2022-02-19_12h09.03.568,multiplicationStroop,2021.2.3,Win32,60.03121623,space,13.9422,space,4.5674,left,1,0.8147,0,0,0,55,1,9,8,9 | 8,1,1.6933,1.6933,neutral,left,,,,,,stimulusFile/magnitude.xlsx,,,,,,,,,,,,,,,,,,,,,,,,,,,,,,,
,,,,,,,,,,,,,,,684,2022-02-19_12h09.03.568,multiplicationStroop,2021.2.3,Win32,60.03121623,,,,,right,1,0.701,0,1,1,17,1,2,7,2 | 7,5,1.4111,1.9756,congruent,right,,,,,,stimulusFile/magnitude.xlsx,,,,,,,,,,,,,,,,,,,,,,,,,,,,,,,
,,,,,,,,,,,,,,,684,2022-02-19_12h09.03.568,multiplicationStroop,2021.2.3,Win32,60.03121623,,,,,left,1,0.6082,0,2,2,70,1,8,3,8 | 3,5,1.6933,1.6933,neutral,left,,,,,,stimulusFile/magnitude.xlsx,,,,,,,,,,,,,,,,,,,,,,,,,,,,,,,
,,,,,,,,,,,,,,,684,2022-02-19_12h09.03.568,multiplicationStroop,2021.2.3,Win32,60.03121623,,,,,right,1,0.6318,0,3,3,18,1,3,8,3 | 8,5,1.4111,1.9756,congruent,right,,,,,,stimulusFile/magnitude.xlsx,,,,,,,,,,,,,,,,,,,,,,,,,,,,,,,
,,,,,,,,,,,,,,,684,2022-02-19_12h09.03.568,multiplicationStroop,2021.2.3,Win32,60.03121623,,,,,left,1,0.5906,0,4,4,15,1,9,7,9 | 7,2,1.9756,1.4111,congruent,left,,,,,,stimulusFile/magnitude.xlsx,,,,,,,,,,,,,,,,,,,,,,,,,,,,,,,
,,,,,,,,,,,,,,,684,2022-02-19_12h09.03.568,multiplicationStroop,2021.2.3,Win32,60.03121623,,,,,left,1,0.6702,0,5,5,53,1,4,3,4 | 3,1,1.6933,1.6933,neutral,left,,,,,,stimulusFile/magnitude.xlsx,,,,,,,,,,,,,,,,,,,,,,,,,,,,,,,
,,,,,,,,,,,,,,,684,2022-02-19_12h09.03.568,multiplicationStroop,2021.2.3,Win32,60.03121623,,,,,left,1,0.8638,0,6,6,71,1,9,4,9 | 4,5,1.6933,1.6933,neutral,left,,,,,,stimulusFile/magnitude.xlsx,,,,,,,,,,,,,,,,,,,,,,,,,,,,,,,
,,,,,,,,,,,,,,,684,2022-02-19_12h09.03.568,multiplicationStroop,2021.2.3,Win32,60.03121623,,,,,right,1,0.8981,0,7,7,2,1,6,7,6 | 7,1,1.4111,1.9756,congruent,right,,,,,,stimulusFile/magnitude.xlsx,,,,,,,,,,,,,,,,,,,,,,,,,,,,,,,
,,,,,,,,,,,,,,,684,2022-02-19_12h09.03.568,multiplicationStroop,2021.2.3,Win32,60.03121623,,,,,right,1,0.7825,0,8,8,25,1,3,4,3 | 4,1,1.9756,1.4111,incongruent,right,,,,,,stimulusFile/magnitude.xlsx,,,,,,,,,,,,,,,,,,,,,,,,,,,,,,,
,,,,,,,,,,,,,,,684,2022-02-19_12h09.03.568,multiplicationStroop,2021.2.3,Win32,60.03121623,,,,,right,1,0.9144,0,9,9,43,1,4,9,4 | 9,5,1.9756,1.4111,incongruent,right,,,,,,stimulusFile/magnitude.xlsx,,,,,,,,,,,,,,,,,,,,,,,,,,,,,,,
,,,,,,,,,,,,,,,684,2022-02-19_12h09.03.568,multiplicationStroop,2021.2.3,Win32,60.03121623,,,,,right,1,0.9994,0,10,10,3,1,8,9,8 | 9,1,1.4111,1.9756,congruent,right,,,,,,stimulusFile/magnitude.xlsx,,,,,,,,,,,,,,,,,,,,,,,,,,,,,,,
,,,,,,,,,,,,,,,684,2022-02-19_12h09.03.568,multiplicationStroop,2021.2.3,Win32,60.03121623,,,,,left,1,0.5774,0,11,11,12,1,3,1,3 | 1,2,1.9756,1.4111,congruent,left,,,,,,stimulusFile/magnitude.xlsx,,,,,,,,,,,,,,,,,,,,,,,,,,,,,,,
,,,,,,,,,,,,,,,684,2022-02-19_12h09.03.568,multiplicationStroop,2021.2.3,Win32,60.03121623,,,,,right,1,0.575,0,12,12,64,1,1,6,1 | 6,5,1.6933,1.6933,neutral,right,,,,,,stimulusFile/magnitude.xlsx,,,,,,,,,,,,,,,,,,,,,,,,,,,,,,,
,,,,,,,,,,,,,,,684,2022-02-19_12h09.03.568,multiplicationStroop,2021.2.3,Win32,60.03121623,,,,,right,1,0.6731,0,13,13,58,1,6,8,6 | 8,2,1.6933,1.6933,neutral,right,,,,,,stimulusFile/magnitude.xlsx,,,,,,,,,,,,,,,,,,,,,,,,,,,,,,,
,,,,,,,,,,,,,,,684,2022-02-19_12h09.03.568,multiplicationStroop,2021.2.3,Win32,60.03121623,,,,,right,1,0.831,0,14,14,34,1,6,8,6 | 8,2,1.9756,1.4111,incongruent,right,,,,,,stimulusFile/magnitude.xlsx,,,,,,,,,,,,,,,,,,,,,,,,,,,,,,,
,,,,,,,,,,,,,,,684,2022-02-19_12h09.03.568,multiplicationStroop,2021.2.3,Win32,60.03121623,,,,,right,1,0.7211,0,15,15,49,1,3,4,3 | 4,1,1.6933,1.6933,neutral,right,,,,,,stimulusFile/magnitude.xlsx,,,,,,,,,,,,,,,,,,,,,,,,,,,,,,,
,,,,,,,,,,,,,,,684,2022-02-19_12h09.03.568,multiplicationStroop,2021.2.3,Win32,60.03121623,,,,,left,1,0.653,0,16,16,6,1,7,6,7 | 6,1,1.9756,1.4111,congruent,left,,,,,,stimulusFile/magnitude.xlsx,,,,,,,,,,,,,,,,,,,,,,,,,,,,,,,
,,,,,,,,,,,,,,,684,2022-02-19_12h09.03.568,multiplicationStroop,2021.2.3,Win32,60.03121623,,,,,left,1,0.5189,0,17,17,5,1,4,3,4 | 3,1,1.9756,1.4111,congruent,left,,,,,,stimulusFile/magnitude.xlsx,,,,,,,,,,,,,,,,,,,,,,,,,,,,,,,
,,,,,,,,,,,,,,,684,2022-02-19_12h09.03.568,multiplicationStroop,2021.2.3,Win32,60.03121623,,,,,right,1,0.808,0,18,18,50,1,6,7,6 | 7,1,1.6933,1.6933,neutral,right,,,,,,stimulusFile/magnitude.xlsx,,,,,,,,,,,,,,,,,,,,,,,,,,,,,,,
,,,,,,,,,,,,,,,684,2022-02-19_12h09.03.568,multiplicationStroop,2021.2.3,Win32,60.03121623,,,,,left,1,0.9129,0,19,19,36,1,3,1,3 | 1,2,1.4111,1.9756,incongruent,left,,,,,,stimulusFile/magnitude.xlsx,,,,,,,,,,,,,,,,,,,,,,,,,,,,,,,
,,,,,,,,,,,,,,,684,2022-02-19_12h09.03.568,multiplicationStroop,2021.2.3,Win32,60.03121623,,,,,right,1,0.8834,0,20,20,41,1,2,7,2 | 7,5,1.9756,1.4111,incongruent,right,,,,,,stimulusFile/magnitude.xlsx,,,,,,,,,,,,,,,,,,,,,,,,,,,,,,,
,,,,,,,,,,,,,,,684,2022-02-19_12h09.03.568,multiplicationStroop,2021.2.3,Win32,60.03121623,,,,,right,1,0.5996,0,21,21,10,1,6,8,6 | 8,2,1.4111,1.9756,congruent,right,,,,,,stimulusFile/magnitude.xlsx,,,,,,,,,,,,,,,,,,,,,,,,,,,,,,,
,,,,,,,,,,,,,,,684,2022-02-19_12h09.03.568,multiplicationStroop,2021.2.3,Win32,60.03121623,,,,,right,1,0.8069,0,22,22,26,1,6,7,6 | 7,1,1.9756,1.4111,incongruent,right,,,,,,stimulusFile/magnitude.xlsx,,,,,,,,,,,,,,,,,,,,,,,,,,,,,,,
,,,,,,,,,,,,,,,684,2022-02-19_12h09.03.568,multiplicationStroop,2021.2.3,Win32,60.03121623,,,,,left,1,0.5975,0,23,23,4,1,2,1,2 | 1,1,1.9756,1.4111,congruent,left,,,,,,stimulusFile/magnitude.xlsx,,,,,,,,,,,,,,,,,,,,,,,,,,,,,,,
,,,,,,,,,,,,,,,684,2022-02-19_12h09.03.568,multiplicationStroop,2021.2.3,Win32,60.03121623,,,,,right,1,0.6666,0,24,24,51,1,8,9,8 | 9,1,1.6933,1.6933,neutral,right,,,,,,stimulusFile/magnitude.xlsx,,,,,,,,,,,,,,,,,,,,,,,,,,,,,,,
,,,,,,,,,,,,,,,684,2022-02-19_12h09.03.568,multiplicationStroop,2021.2.3,Win32,60.03121623,,,,,left,1,0.6138,0,25,25,14,1,8,6,8 | 6,2,1.9756,1.4111,congruent,left,,,,,,stimulusFile/magnitude.xlsx,,,,,,,,,,,,,,,,,,,,,,,,,,,,,,,
,,,,,,,,,,,,,,,684,2022-02-19_12h09.03.568,multiplicationStroop,2021.2.3,Win32,60.03121623,,,,,left,1,0.7496,0,26,26,61,1,4,2,4 | 2,2,1.6933,1.6933,neutral,left,,,,,,stimulusFile/magnitude.xlsx,,,,,,,,,,,,,,,,,,,,,,,,,,,,,,,
,,,,,,,,,,,,,,,684,2022-02-19_12h09.03.568,multiplicationStroop,2021.2.3,Win32,60.03121623,,,,,right,1,0.5516,0,27,27,0,1,1,2,1 | 2,1,1.4111,1.9756,congruent,right,,,,,,stimulusFile/magnitude.xlsx,,,,,,,,,,,,,,,,,,,,,,,,,,,,,,,
,,,,,,,,,,,,,,,684,2022-02-19_12h09.03.568,multiplicationStroop,2021.2.3,Win32,60.03121623,,,,,left,1,0.7988,0,28,28,69,1,7,2,7 | 2,5,1.6933,1.6933,neutral,left,,,,,,stimulusFile/magnitude.xlsx,,,,,,,,,,,,,,,,,,,,,,,,,,,,,,,
,,,,,,,,,,,,,,,684,2022-02-19_12h09.03.568,multiplicationStroop,2021.2.3,Win32,60.03121623,,,,,left,1,0.5559,0,29,29,13,1,4,2,4 | 2,2,1.9756,1.4111,congruent,left,,,,,,stimulusFile/magnitude.xlsx,,,,,,,,,,,,,,,,,,,,,,,,,,,,,,,
,,,,,,,,,,,,,,,684,2022-02-19_12h09.03.568,multiplicationStroop,2021.2.3,Win32,60.03121623,,,,,right,1,0.5813,0,30,30,1,1,3,4,3 | 4,1,1.4111,1.9756,congruent,right,,,,,,stimulusFile/magnitude.xlsx,,,,,,,,,,,,,,,,,,,,,,,,,,,,,,,
,,,,,,,,,,,,,,,684,2022-02-19_12h09.03.568,multiplicationStroop,2021.2.3,Win32,60.03121623,,,,,left,1,0.8249,0,31,31,28,1,2,1,2 | 1,1,1.4111,1.9756,incongruent,left,,,,,,stimulusFile/magnitude.xlsx,,,,,,,,,,,,,,,,,,,,,,,,,,,,,,,
,,,,,,,,,,,,,,,684,2022-02-19_12h09.03.568,multiplicationStroop,2021.2.3,Win32,60.03121623,,,,,left,1,0.6199,0,32,32,68,1,6,1,6 | 1,5,1.6933,1.6933,neutral,left,,,,,,stimulusFile/magnitude.xlsx,,,,,,,,,,,,,,,,,,,,,,,,,,,,,,,
,,,,,,,,,,,,,,,684,2022-02-19_12h09.03.568,multiplicationStroop,2021.2.3,Win32,60.03121623,,,,,left,1,0.6786,0,33,33,52,1,2,1,2 | 1,1,1.6933,1.6933,neutral,left,,,,,,stimulusFile/magnitude.xlsx,,,,,,,,,,,,,,,,,,,,,,,,,,,,,,,
,,,,,,,,,,,,,,,684,2022-02-19_12h09.03.568,multiplicationStroop,2021.2.3,Win32,60.03121623,,,,,right,1,0.6619,0,34,34,11,1,7,9,7 | 9,2,1.4111,1.9756,congruent,right,,,,,,stimulusFile/magnitude.xlsx,,,,,,,,,,,,,,,,,,,,,,,,,,,,,,,
,,,,,,,,,,,,,,,684,2022-02-19_12h09.03.568,multiplicationStroop,2021.2.3,Win32,60.03121623,,,,,right,1,0.6697,0,35,35,35,1,7,9,7 | 9,2,1.9756,1.4111,incongruent,right,,,,,,stimulusFile/magnitude.xlsx,,,,,,,,,,,,,,,,,,,,,,,,,,,,,,,
,,,,,,,,,,,,,,,684,2022-02-19_12h09.03.568,multiplicationStroop,2021.2.3,Win32,60.03121623,,,,,right,1,0.5492,0,36,36,40,1,1,6,1 | 6,5,1.9756,1.4111,incongruent,right,,,,,,stimulusFile/magnitude.xlsx,,,,,,,,,,,,,,,,,,,,,,,,,,,,,,,
,,,,,,,,,,,,,,,684,2022-02-19_12h09.03.568,multiplicationStroop,2021.2.3,Win32,60.03121623,,,,,right,1,0.6492,0,37,37,24,1,1,2,1 | 2,1,1.9756,1.4111,incongruent,right,,,,,,stimulusFile/magnitude.xlsx,,,,,,,,,,,,,,,,,,,,,,,,,,,,,,,
,,,,,,,,,,,,,,,684,2022-02-19_12h09.03.568,multiplicationStroop,2021.2.3,Win32,60.03121623,,,,,left,1,0.5391,0,38,38,7,1,9,8,9 | 8,1,1.9756,1.4111,congruent,left,,,,,,stimulusFile/magnitude.xlsx,,,,,,,,,,,,,,,,,,,,,,,,,,,,,,,
,,,,,,,,,,,,,,,684,2022-02-19_12h09.03.568,multiplicationStroop,2021.2.3,Win32,60.03121623,,,,,right,1,0.5481,0,39,39,9,1,2,4,2 | 4,2,1.4111,1.9756,congruent,right,,,,,,stimulusFile/magnitude.xlsx,,,,,,,,,,,,,,,,,,,,,,,,,,,,,,,
,,,,,,,,,,,,,,,684,2022-02-19_12h09.03.568,multiplicationStroop,2021.2.3,Win32,60.03121623,,,,,right,1,0.7321,0,40,40,32,1,1,3,1 | 3,2,1.9756,1.4111,incongruent,right,,,,,,stimulusFile/magnitude.xlsx,,,,,,,,,,,,,,,,,,,,,,,,,,,,,,,
,,,,,,,,,,,,,,,684,2022-02-19_12h09.03.568,multiplicationStroop,2021.2.3,Win32,60.03121623,,,,,right,1,0.4838,0,41,41,16,1,1,6,1 | 6,5,1.4111,1.9756,congruent,right,,,,,,stimulusFile/magnitude.xlsx,,,,,,,,,,,,,,,,,,,,,,,,,,,,,,,
,,,,,,,,,,,,,,,684,2022-02-19_12h09.03.568,multiplicationStroop,2021.2.3,Win32,60.03121623,,,,,left,1,0.5303,0,42,42,22,1,8,3,8 | 3,5,1.9756,1.4111,congruent,left,,,,,,stimulusFile/magnitude.xlsx,,,,,,,,,,,,,,,,,,,,,,,,,,,,,,,
,,,,,,,,,,,,,,,684,2022-02-19_12h09.03.568,multiplicationStroop,2021.2.3,Win32,60.03121623,,,,,left,1,0.7457,0,43,43,30,1,7,6,7 | 6,1,1.4111,1.9756,incongruent,left,,,,,,stimulusFile/magnitude.xlsx,,,,,,,,,,,,,,,,,,,,,,,,,,,,,,,
,,,,,,,,,,,,,,,684,2022-02-19_12h09.03.568,multiplicationStroop,2021.2.3,Win32,60.03121623,,,,,left,1,0.5676,0,44,44,38,1,8,6,8 | 6,2,1.4111,1.9756,incongruent,left,,,,,,stimulusFile/magnitude.xlsx,,,,,,,,,,,,,,,,,,,,,,,,,,,,,,,
,,,,,,,,,,,,,,,684,2022-02-19_12h09.03.568,multiplicationStroop,2021.2.3,Win32,60.03121623,,,,,left,1,0.4342,0,45,45,23,1,9,4,9 | 4,5,1.9756,1.4111,congruent,left,,,,,,stimulusFile/magnitude.xlsx,,,,,,,,,,,,,,,,,,,,,,,,,,,,,,,
,,,,,,,,,,,,,,,684,2022-02-19_12h09.03.568,multiplicationStroop,2021.2.3,Win32,60.03121623,,,,,left,1,0.5806,0,46,46,54,1,7,6,7 | 6,1,1.6933,1.6933,neutral,left,,,,,,stimulusFile/magnitude.xlsx,,,,,,,,,,,,,,,,,,,,,,,,,,,,,,,
,,,,,,,,,,,,,,,684,2022-02-19_12h09.03.568,multiplicationStroop,2021.2.3,Win32,60.03121623,,,,,left,1,0.6152,0,47,47,45,1,7,2,7 | 2,5,1.4111,1.9756,incongruent,left,,,,,,stimulusFile/magnitude.xlsx,,,,,,,,,,,,,,,,,,,,,,,,,,,,,,,
,,,,,,,,,,,,,,,684,2022-02-19_12h09.03.568,multiplicationStroop,2021.2.3,Win32,60.03121623,,,,,left,1,0.527,0,48,48,63,1,9,7,9 | 7,2,1.6933,1.6933,neutral,left,,,,,,stimulusFile/magnitude.xlsx,,,,,,,,,,,,,,,,,,,,,,,,,,,,,,,
,,,,,,,,,,,,,,,684,2022-02-19_12h09.03.568,multiplicationStroop,2021.2.3,Win32,60.03121623,,,,,left,1,0.5204,0,49,49,47,1,9,4,9 | 4,5,1.4111,1.9756,incongruent,left,,,,,,stimulusFile/magnitude.xlsx,,,,,,,,,,,,,,,,,,,,,,,,,,,,,,,
,,,,,,,,,,,,,,,684,2022-02-19_12h09.03.568,multiplicationStroop,2021.2.3,Win32,60.03121623,,,,,left,1,0.6984,0,50,50,46,1,8,3,8 | 3,5,1.4111,1.9756,incongruent,left,,,,,,stimulusFile/magnitude.xlsx,,,,,,,,,,,,,,,,,,,,,,,,,,,,,,,
,,,,,,,,,,,,,,,684,2022-02-19_12h09.03.568,multiplicationStroop,2021.2.3,Win32,60.03121623,,,,,left,1,0.5504,0,51,51,44,1,6,1,6 | 1,5,1.4111,1.9756,incongruent,left,,,,,,stimulusFile/magnitude.xlsx,,,,,,,,,,,,,,,,,,,,,,,,,,,,,,,
,,,,,,,,,,,,,,,684,2022-02-19_12h09.03.568,multiplicationStroop,2021.2.3,Win32,60.03121623,,,,,right,1,0.7248,0,52,52,57,1,2,4,2 | 4,2,1.6933,1.6933,neutral,right,,,,,,stimulusFile/magnitude.xlsx,,,,,,,,,,,,,,,,,,,,,,,,,,,,,,,
,,,,,,,,,,,,,,,684,2022-02-19_12h09.03.568,multiplicationStroop,2021.2.3,Win32,60.03121623,,,,,right,1,0.5532,0,53,53,66,1,3,8,3 | 8,5,1.6933,1.6933,neutral,right,,,,,,stimulusFile/magnitude.xlsx,,,,,,,,,,,,,,,,,,,,,,,,,,,,,,,
,,,,,,,,,,,,,,,684,2022-02-19_12h09.03.568,multiplicationStroop,2021.2.3,Win32,60.03121623,,,,,left,0,0.5978,0,54,54,27,1,8,9,8 | 9,1,1.9756,1.4111,incongruent,right,,,,,,stimulusFile/magnitude.xlsx,,,,,,,,,,,,,,,,,,,,,,,,,,,,,,,
,,,,,,,,,,,,,,,684,2022-02-19_12h09.03.568,multiplicationStroop,2021.2.3,Win32,60.03121623,,,,,right,1,0.6202,0,55,55,33,1,2,4,2 | 4,2,1.9756,1.4111,incongruent,right,,,,,,stimulusFile/magnitude.xlsx,,,,,,,,,,,,,,,,,,,,,,,,,,,,,,,
,,,,,,,,,,,,,,,684,2022-02-19_12h09.03.568,multiplicationStroop,2021.2.3,Win32,60.03121623,,,,,right,0,0.546,0,56,56,31,1,9,8,9 | 8,1,1.4111,1.9756,incongruent,left,,,,,,stimulusFile/magnitude.xlsx,,,,,,,,,,,,,,,,,,,,,,,,,,,,,,,
,,,,,,,,,,,,,,,684,2022-02-19_12h09.03.568,multiplicationStroop,2021.2.3,Win32,60.03121623,,,,,right,1,0.6723,0,57,57,8,1,1,3,1 | 3,2,1.4111,1.9756,congruent,right,,,,,,stimulusFile/magnitude.xlsx,,,,,,,,,,,,,,,,,,,,,,,,,,,,,,,
,,,,,,,,,,,,,,,684,2022-02-19_12h09.03.568,multiplicationStroop,2021.2.3,Win32,60.03121623,,,,,left,1,0.6442,0,58,58,60,1,3,1,3 | 1,2,1.6933,1.6933,neutral,left,,,,,,stimulusFile/magnitude.xlsx,,,,,,,,,,,,,,,,,,,,,,,,,,,,,,,
,,,,,,,,,,,,,,,684,2022-02-19_12h09.03.568,multiplicationStroop,2021.2.3,Win32,60.03121623,,,,,right,1,0.5517,0,59,59,56,1,1,3,1 | 3,2,1.6933,1.6933,neutral,right,,,,,,stimulusFile/magnitude.xlsx,,,,,,,,,,,,,,,,,,,,,,,,,,,,,,,
,,,,,,,,,,,,,,,684,2022-02-19_12h09.03.568,multiplicationStroop,2021.2.3,Win32,60.03121623,,,,,left,1,0.6573,0,60,60,37,1,4,2,4 | 2,2,1.4111,1.9756,incongruent,left,,,,,,stimulusFile/magnitude.xlsx,,,,,,,,,,,,,,,,,,,,,,,,,,,,,,,
,,,,,,,,,,,,,,,684,2022-02-19_12h09.03.568,multiplicationStroop,2021.2.3,Win32,60.03121623,,,,,left,1,0.5393,0,61,61,29,1,4,3,4 | 3,1,1.4111,1.9756,incongruent,left,,,,,,stimulusFile/magnitude.xlsx,,,,,,,,,,,,,,,,,,,,,,,,,,,,,,,
,,,,,,,,,,,,,,,684,2022-02-19_12h09.03.568,multiplicationStroop,2021.2.3,Win32,60.03121623,,,,,right,1,0.6689,0,62,62,19,1,4,9,4 | 9,5,1.4111,1.9756,congruent,right,,,,,,stimulusFile/magnitude.xlsx,,,,,,,,,,,,,,,,,,,,,,,,,,,,,,,
,,,,,,,,,,,,,,,684,2022-02-19_12h09.03.568,multiplicationStroop,2021.2.3,Win32,60.03121623,,,,,right,1,0.7165,0,63,63,42,1,3,8,3 | 8,5,1.9756,1.4111,incongruent,right,,,,,,stimulusFile/magnitude.xlsx,,,,,,,,,,,,,,,,,,,,,,,,,,,,,,,
,,,,,,,,,,,,,,,684,2022-02-19_12h09.03.568,multiplicationStroop,2021.2.3,Win32,60.03121623,,,,,left,1,0.5771,0,64,64,62,1,8,6,8 | 6,2,1.6933,1.6933,neutral,left,,,,,,stimulusFile/magnitude.xlsx,,,,,,,,,,,,,,,,,,,,,,,,,,,,,,,
,,,,,,,,,,,,,,,684,2022-02-19_12h09.03.568,multiplicationStroop,2021.2.3,Win32,60.03121623,,,,,left,1,0.5231,0,65,65,20,1,6,1,6 | 1,5,1.9756,1.4111,congruent,left,,,,,,stimulusFile/magnitude.xlsx,,,,,,,,,,,,,,,,,,,,,,,,,,,,,,,
,,,,,,,,,,,,,,,684,2022-02-19_12h09.03.568,multiplicationStroop,2021.2.3,Win32,60.03121623,,,,,left,1,0.7308,0,66,66,39,1,9,7,9 | 7,2,1.4111,1.9756,incongruent,left,,,,,,stimulusFile/magnitude.xlsx,,,,,,,,,,,,,,,,,,,,,,,,,,,,,,,
,,,,,,,,,,,,,,,684,2022-02-19_12h09.03.568,multiplicationStroop,2021.2.3,Win32,60.03121623,,,,,right,1,0.5994,0,67,67,65,1,2,7,2 | 7,5,1.6933,1.6933,neutral,right,,,,,,stimulusFile/magnitude.xlsx,,,,,,,,,,,,,,,,,,,,,,,,,,,,,,,
,,,,,,,,,,,,,,,684,2022-02-19_12h09.03.568,multiplicationStroop,2021.2.3,Win32,60.03121623,,,,,left,1,0.5311,0,68,68,21,1,7,2,7 | 2,5,1.9756,1.4111,congruent,left,,,,,,stimulusFile/magnitude.xlsx,,,,,,,,,,,,,,,,,,,,,,,,,,,,,,,
,,,,,,,,,,,,,,,684,2022-02-19_12h09.03.568,multiplicationStroop,2021.2.3,Win32,60.03121623,,,,,right,1,0.6458,0,69,69,59,1,7,9,7 | 9,2,1.6933,1.6933,neutral,right,,,,,,stimulusFile/magnitude.xlsx,,,,,,,,,,,,,,,,,,,,,,,,,,,,,,,
,,,,,,,,,,,,,,,684,2022-02-19_12h09.03.568,multiplicationStroop,2021.2.3,Win32,60.03121623,,,,,right,1,0.5323,0,70,70,67,1,4,9,4 | 9,5,1.6933,1.6933,neutral,right,,,,,,stimulusFile/magnitude.xlsx,,,,,,,,,,,,,,,,,,,,,,,,,,,,,,,
,,,,,,,,,,,,,,,684,2022-02-19_12h09.03.568,multiplicationStroop,2021.2.3,Win32,60.03121623,,,,,right,1,0.5493,0,71,71,48,1,1,2,1 | 2,1,1.6933,1.6933,neutral,right,,,,,,stimulusFile/magnitude.xlsx,,,,,,,,,,,,,,,,,,,,,,,,,,,,,,,
,,,,,,,,,,,,,,,684,2022-02-19_12h09.03.568,multiplicationStroop,2021.2.3,Win32,60.03121623,,,,,,,,,,,,,,,,,,,,,0,1,1,0,1,stimulusFile/magnitude.xlsx,NUMERICALLY larger (larger coefficient).,images/numericallyLarger.png,,,,,,,,,,,,,,,,,,,,,,,,,,,,,
,,,,,,,,,,,,,,,684,2022-02-19_12h09.03.568,multiplicationStroop,2021.2.3,Win32,60.03121623,,,,,,,,,,,,,,,,,,,,,,,,,,,,,space,10.0779,space,2.0855,56,4.0024,0,0,0,0,17,1,7,×,6,7 × 6,congruent,largerFirst,2,1,42,,,,,,,,
,,,,,,,,,,,,,,,684,2022-02-19_12h09.03.568,multiplicationStroop,2021.2.3,Win32,60.03121623,,,,,,,,,,,,,,,,,,,,,,,,,,,,,,,,,9,1.6662,1,0,1,1,29,1,3,×,3,3 × 3,neutral,tie,1,2,9,,,,,,,,
,,,,,,,,,,,,,,,684,2022-02-19_12h09.03.568,multiplicationStroop,2021.2.3,Win32,60.03121623,,,,,,,,,,,,,,,,,,,,,,,,,,,,,,,,,18,2.2795,1,0,2,2,25,1,6,×,3,6 × 3,congruent,largerFirst,2,1,18,,,,,,,,
,,,,,,,,,,,,,,,684,2022-02-19_12h09.03.568,multiplicationStroop,2021.2.3,Win32,60.03121623,,,,,,,,,,,,,,,,,,,,,,,,,,,,,,,,,54,5.9479,1,0,3,3,26,1,9,×,6,9 × 6,congruent,largerFirst,2,1,54,,,,,,,,
,,,,,,,,,,,,,,,684,2022-02-19_12h09.03.568,multiplicationStroop,2021.2.3,Win32,60.03121623,,,,,,,,,,,,,,,,,,,,,,,,,,,,,,,,,56,2.0117,1,0,4,4,22,1,8,×,7,8 × 7,congruent,largerFirst,2,1,56,,,,,,,,
,,,,,,,,,,,,,,,684,2022-02-19_12h09.03.568,multiplicationStroop,2021.2.3,Win32,60.03121623,,,,,,,,,,,,,,,,,,,,,,,,,,,,,,,,,72,3.2145,1,0,5,5,3,1,8,×,9,8 × 9,congruent,smallerFirst,1,2,72,,,,,,,,
,,,,,,,,,,,,,,,684,2022-02-19_12h09.03.568,multiplicationStroop,2021.2.3,Win32,60.03121623,,,,,,,,,,,,,,,,,,,,,,,,,,,,,,,,,36,7.4305,1,0,6,6,14,1,9,×,4,9 × 4,congruent,largerFirst,2,1,36,,,,,,,,
,,,,,,,,,,,,,,,684,2022-02-19_12h09.03.568,multiplicationStroop,2021.2.3,Win32,60.03121623,,,,,,,,,,,,,,,,,,,,,,,,,,,,,,,,,14,1.8155,1,0,7,7,0,1,2,×,7,2 × 7,congruent,smallerFirst,1,2,14,,,,,,,,
,,,,,,,,,,,,,,,684,2022-02-19_12h09.03.568,multiplicationStroop,2021.2.3,Win32,60.03121623,,,,,,,,,,,,,,,,,,,,,,,,,,,,,,,,,16,2.0153,1,0,8,8,30,1,4,×,4,4 × 4,neutral,tie,1,2,16,,,,,,,,
,,,,,,,,,,,,,,,684,2022-02-19_12h09.03.568,multiplicationStroop,2021.2.3,Win32,60.03121623,,,,,,,,,,,,,,,,,,,,,,,,,,,,,,,,,12,1.615,1,0,9,9,5,1,2,×,6,2 × 6,congruent,smallerFirst,1,2,12,,,,,,,,
,,,,,,,,,,,,,,,684,2022-02-19_12h09.03.568,multiplicationStroop,2021.2.3,Win32,60.03121623,,,,,,,,,,,,,,,,,,,,,,,,,,,,,,,,,32,2.6311,1,0,10,10,6,1,4,×,8,4 × 8,congruent,smallerFirst,1,2,32,,,,,,,,
,,,,,,,,,,,,,,,684,2022-02-19_12h09.03.568,multiplicationStroop,2021.2.3,Win32,60.03121623,,,,,,,,,,,,,,,,,,,,,,,,,,,,,,,,,48,2.8732,1,0,11,11,4,1,6,×,8,6 × 8,congruent,smallerFirst,1,2,48,,,,,,,,
,,,,,,,,,,,,,,,684,2022-02-19_12h09.03.568,multiplicationStroop,2021.2.3,Win32,60.03121623,,,,,,,,,,,,,,,,,,,,,,,,,,,,,,,,,28,4.9736,1,0,12,12,13,1,4,×,7,4 × 7,congruent,smallerFirst,1,2,28,,,,,,,,
,,,,,,,,,,,,,,,684,2022-02-19_12h09.03.568,multiplicationStroop,2021.2.3,Win32,60.03121623,,,,,,,,,,,,,,,,,,,,,,,,,,,,,,,,,10,1.816,1,0,13,13,10,1,2,×,5,2 × 5,congruent,smallerFirst,1,2,10,,,,,,,,
,,,,,,,,,,,,,,,684,2022-02-19_12h09.03.568,multiplicationStroop,2021.2.3,Win32,60.03121623,,,,,,,,,,,,,,,,,,,,,,,,,,,,,,,,,8,1.9816,1,0,14,14,23,1,4,×,2,4 × 2,congruent,largerFirst,2,1,8,,,,,,,,
,,,,,,,,,,,,,,,684,2022-02-19_12h09.03.568,multiplicationStroop,2021.2.3,Win32,60.03121623,,,,,,,,,,,,,,,,,,,,,,,,,,,,,,,,,27,4.5643,1,0,15,15,12,1,3,×,9,3 × 9,congruent,smallerFirst,1,2,27,,,,,,,,
,,,,,,,,,,,,,,,684,2022-02-19_12h09.03.568,multiplicationStroop,2021.2.3,Win32,60.03121623,,,,,,,,,,,,,,,,,,,,,,,,,,,,,,,,,4,1.4975,1,0,16,16,28,1,2,×,2,2 × 2,neutral,tie,1,2,4,,,,,,,,
,,,,,,,,,,,,,,,684,2022-02-19_12h09.03.568,multiplicationStroop,2021.2.3,Win32,60.03121623,,,,,,,,,,,,,,,,,,,,,,,,,,,,,,,,,63,3.134,1,0,17,17,7,1,7,×,9,7 × 9,congruent,smallerFirst,1,2,63,,,,,,,,
,,,,,,,,,,,,,,,684,2022-02-19_12h09.03.568,multiplicationStroop,2021.2.3,Win32,60.03121623,,,,,,,,,,,,,,,,,,,,,,,,,,,,,,,,,24,2.5453,1,0,18,18,11,1,4,×,6,4 × 6,congruent,smallerFirst,1,2,24,,,,,,,,
,,,,,,,,,,,,,,,684,2022-02-19_12h09.03.568,multiplicationStroop,2021.2.3,Win32,60.03121623,,,,,,,,,,,,,,,,,,,,,,,,,,,,,,,,,6,1.9953,1,0,19,19,27,1,3,×,2,3 × 2,congruent,largerFirst,2,1,6,,,,,,,,
,,,,,,,,,,,,,,,684,2022-02-19_12h09.03.568,multiplicationStroop,2021.2.3,Win32,60.03121623,,,,,,,,,,,,,,,,,,,,,,,,,,,,,,,,,64,8.7803,1,0,20,20,34,1,8,×,8,8 × 8,neutral,tie,1,2,64,,,,,,,,
,,,,,,,,,,,,,,,684,2022-02-19_12h09.03.568,multiplicationStroop,2021.2.3,Win32,60.03121623,,,,,,,,,,,,,,,,,,,,,,,,,,,,,,,,,21,2.1664,1,0,21,21,2,1,3,×,7,3 × 7,congruent,smallerFirst,1,2,21,,,,,,,,
,,,,,,,,,,,,,,,684,2022-02-19_12h09.03.568,multiplicationStroop,2021.2.3,Win32,60.03121623,,,,,,,,,,,,,,,,,,,,,,,,,,,,,,,,,24,5.9775,1,0,22,22,24,1,8,×,3,8 × 3,congruent,largerFirst,2,1,24,,,,,,,,
,,,,,,,,,,,,,,,684,2022-02-19_12h09.03.568,multiplicationStroop,2021.2.3,Win32,60.03121623,,,,,,,,,,,,,,,,,,,,,,,,,,,,,,,,,30,2.332,1,0,23,23,1,1,5,×,6,5 × 6,congruent,smallerFirst,1,2,30,,,,,,,,
,,,,,,,,,,,,,,,684,2022-02-19_12h09.03.568,multiplicationStroop,2021.2.3,Win32,60.03121623,,,,,,,,,,,,,,,,,,,,,,,,,,,,,,,,,35,2.4657,1,0,24,24,15,1,7,×,5,7 × 5,congruent,largerFirst,2,1,35,,,,,,,,
,,,,,,,,,,,,,,,684,2022-02-19_12h09.03.568,multiplicationStroop,2021.2.3,Win32,60.03121623,,,,,,,,,,,,,,,,,,,,,,,,,,,,,,,,,12,1.5153,1,0,25,25,16,1,4,×,3,4 × 3,congruent,largerFirst,2,1,12,,,,,,,,
,,,,,,,,,,,,,,,684,2022-02-19_12h09.03.568,multiplicationStroop,2021.2.3,Win32,60.03121623,,,,,,,,,,,,,,,,,,,,,,,,,,,,,,,,,81,3.0302,1,0,26,26,35,1,9,×,9,9 × 9,neutral,tie,1,2,81,,,,,,,,
,,,,,,,,,,,,,,,684,2022-02-19_12h09.03.568,multiplicationStroop,2021.2.3,Win32,60.03121623,,,,,,,,,,,,,,,,,,,,,,,,,,,,,,,,,25,1.9109,1,0,27,27,31,1,5,×,5,5 × 5,neutral,tie,1,2,25,,,,,,,,
,,,,,,,,,,,,,,,684,2022-02-19_12h09.03.568,multiplicationStroop,2021.2.3,Win32,60.03121623,,,,,,,,,,,,,,,,,,,,,,,,,,,,,,,,,45,3.5475,1,0,28,28,9,1,5,×,9,5 × 9,congruent,smallerFirst,1,2,45,,,,,,,,
,,,,,,,,,,,,,,,684,2022-02-19_12h09.03.568,multiplicationStroop,2021.2.3,Win32,60.03121623,,,,,,,,,,,,,,,,,,,,,,,,,,,,,,,,,49,2.936,1,0,29,29,33,1,7,×,7,7 × 7,neutral,tie,1,2,49,,,,,,,,
,,,,,,,,,,,,,,,684,2022-02-19_12h09.03.568,multiplicationStroop,2021.2.3,Win32,60.03121623,,,,,,,,,,,,,,,,,,,,,,,,,,,,,,,,,20,2.0308,1,0,30,30,21,1,5,×,4,5 × 4,congruent,largerFirst,2,1,20,,,,,,,,
,,,,,,,,,,,,,,,684,2022-02-19_12h09.03.568,multiplicationStroop,2021.2.3,Win32,60.03121623,,,,,,,,,,,,,,,,,,,,,,,,,,,,,,,,,40,2.6307,1,0,31,31,20,1,8,×,5,8 × 5,congruent,largerFirst,2,1,40,,,,,,,,
,,,,,,,,,,,,,,,684,2022-02-19_12h09.03.568,multiplicationStroop,2021.2.3,Win32,60.03121623,,,,,,,,,,,,,,,,,,,,,,,,,,,,,,,,,36,1.9655,1,0,32,32,32,1,6,×,6,6 × 6,neutral,tie,1,2,36,,,,,,,,
,,,,,,,,,,,,,,,684,2022-02-19_12h09.03.568,multiplicationStroop,2021.2.3,Win32,60.03121623,,,,,,,,,,,,,,,,,,,,,,,,,,,,,,,,,18,1.9812,1,0,33,33,8,1,2,×,9,2 × 9,congruent,smallerFirst,1,2,18,,,,,,,,
,,,,,,,,,,,,,,,684,2022-02-19_12h09.03.568,multiplicationStroop,2021.2.3,Win32,60.03121623,,,,,,,,,,,,,,,,,,,,,,,,,,,,,,,,,16,2.4809,1,0,34,34,19,1,8,×,2,8 × 2,congruent,largerFirst,2,1,16,,,,,,,,
,,,,,,,,,,,,,,,684,2022-02-19_12h09.03.568,multiplicationStroop,2021.2.3,Win32,60.03121623,,,,,,,,,,,,,,,,,,,,,,,,,,,,,,,,,15,2.3531,1,0,35,35,18,1,5,×,3,5 × 3,congruent,largerFirst,2,1,15,,,,,,,,
,,,,,,,,,,,,,,,684,2022-02-19_12h09.03.568,multiplicationStroop,2021.2.3,Win32,60.03121623,,,,,,,,,,,,,,,,,,,,,,,,,,,,,,,,,,,,,,,,,,,,,,,,,,0,0,0,3,1,stimulusFile/mult_blk4_congruent.xlsx,,
,,,,,,,,,,,,,,,684,2022-02-19_12h09.03.568,multiplicationStroop,2021.2.3,Win32,60.03121623,,,,,,,,,,,,,,,,,,,,,,,,,,,,,,,space,2.5364,24,2.6684,1,0,0,0,25,1,6,×,4,6 × 4,congruent,largerFirst,2,1,24,,,,,,,,
,,,,,,,,,,,,,,,684,2022-02-19_12h09.03.568,multiplicationStroop,2021.2.3,Win32,60.03121623,,,,,,,,,,,,,,,,,,,,,,,,,,,,,,,,,14,2.2985,1,0,1,1,14,1,7,×,2,7 × 2,congruent,largerFirst,2,1,14,,,,,,,,
,,,,,,,,,,,,,,,684,2022-02-19_12h09.03.568,multiplicationStroop,2021.2.3,Win32,60.03121623,,,,,,,,,,,,,,,,,,,,,,,,,,,,,,,,,48,9.6138,1,0,2,2,18,1,8,×,6,8 × 6,congruent,largerFirst,2,1,48,,,,,,,,
,,,,,,,,,,,,,,,684,2022-02-19_12h09.03.568,multiplicationStroop,2021.2.3,Win32,60.03121623,,,,,,,,,,,,,,,,,,,,,,,,,,,,,,,,,27,2.5094,1,0,3,3,26,1,9,×,3,9 × 3,congruent,largerFirst,2,1,27,,,,,,,,
,,,,,,,,,,,,,,,684,2022-02-19_12h09.03.568,multiplicationStroop,2021.2.3,Win32,60.03121623,,,,,,,,,,,,,,,,,,,,,,,,,,,,,,,,,18,2.5958,1,0,4,4,22,1,9,×,2,9 × 2,congruent,largerFirst,2,1,18,,,,,,,,
,,,,,,,,,,,,,,,684,2022-02-19_12h09.03.568,multiplicationStroop,2021.2.3,Win32,60.03121623,,,,,,,,,,,,,,,,,,,,,,,,,,,,,,,,,32,4.0319,1,0,5,5,20,1,8,×,4,8 × 4,congruent,largerFirst,2,1,32,,,,,,,,
,,,,,,,,,,,,,,,684,2022-02-19_12h09.03.568,multiplicationStroop,2021.2.3,Win32,60.03121623,,,,,,,,,,,,,,,,,,,,,,,,,,,,,,,,,36,8.3788,1,0,6,6,0,1,4,×,9,4 × 9,congruent,smallerFirst,1,2,36,,,,,,,,
,,,,,,,,,,,,,,,684,2022-02-19_12h09.03.568,multiplicationStroop,2021.2.3,Win32,60.03121623,,,,,,,,,,,,,,,,,,,,,,,,,,,,,,,,,9,1.4682,1,0,7,7,29,1,3,×,3,3 × 3,neutral,tie,2,1,9,,,,,,,,
,,,,,,,,,,,,,,,684,2022-02-19_12h09.03.568,multiplicationStroop,2021.2.3,Win32,60.03121623,,,,,,,,,,,,,,,,,,,,,,,,,,,,,,,,,25,1.8663,1,0,8,8,31,1,5,×,5,5 × 5,neutral,tie,2,1,25,,,,,,,,
,,,,,,,,,,,,,,,684,2022-02-19_12h09.03.568,multiplicationStroop,2021.2.3,Win32,60.03121623,,,,,,,,,,,,,,,,,,,,,,,,,,,,,,,,,30,1.9299,1,0,9,9,15,1,6,×,5,6 × 5,congruent,largerFirst,2,1,30,,,,,,,,
,,,,,,,,,,,,,,,684,2022-02-19_12h09.03.568,multiplicationStroop,2021.2.3,Win32,60.03121623,,,,,,,,,,,,,,,,,,,,,,,,,,,,,,,,,4,1.4463,1,0,10,10,28,1,2,×,2,2 × 2,neutral,tie,2,1,4,,,,,,,,
,,,,,,,,,,,,,,,684,2022-02-19_12h09.03.568,multiplicationStroop,2021.2.3,Win32,60.03121623,,,,,,,,,,,,,,,,,,,,,,,,,,,,,,,,,72,5.2169,1,0,11,11,17,1,9,×,8,9 × 8,congruent,largerFirst,2,1,72,,,,,,,,
,,,,,,,,,,,,,,,684,2022-02-19_12h09.03.568,multiplicationStroop,2021.2.3,Win32,60.03121623,,,,,,,,,,,,,,,,,,,,,,,,,,,,,,,,,6,1.7361,1,0,12,12,13,1,2,×,3,2 × 3,congruent,smallerFirst,1,2,6,,,,,,,,
,,,,,,,,,,,,,,,684,2022-02-19_12h09.03.568,multiplicationStroop,2021.2.3,Win32,60.03121623,,,,,,,,,,,,,,,,,,,,,,,,,,,,,,,,,56,2.0607,0,0,13,13,3,1,6,×,7,6 × 7,congruent,smallerFirst,1,2,42,,,,,,,,
,,,,,,,,,,,,,,,684,2022-02-19_12h09.03.568,multiplicationStroop,2021.2.3,Win32,60.03121623,,,,,,,,,,,,,,,,,,,,,,,,,,,,,,,,,12,6.7149,1,0,14,14,2,1,3,×,4,3 × 4,congruent,smallerFirst,1,2,12,,,,,,,,
,,,,,,,,,,,,,,,684,2022-02-19_12h09.03.568,multiplicationStroop,2021.2.3,Win32,60.03121623,,,,,,,,,,,,,,,,,,,,,,,,,,,,,,,,,16,2.4159,1,0,15,15,30,1,4,×,4,4 × 4,neutral,tie,2,1,16,,,,,,,,
,,,,,,,,,,,,,,,684,2022-02-19_12h09.03.568,multiplicationStroop,2021.2.3,Win32,60.03121623,,,,,,,,,,,,,,,,,,,,,,,,,,,,,,,,,63,5.3159,1,0,16,16,21,1,9,×,7,9 × 7,congruent,largerFirst,2,1,63,,,,,,,,
,,,,,,,,,,,,,,,684,2022-02-19_12h09.03.568,multiplicationStroop,2021.2.3,Win32,60.03121623,,,,,,,,,,,,,,,,,,,,,,,,,,,,,,,,,81,6.6141,1,0,17,17,35,1,9,×,9,9 × 9,neutral,tie,2,1,81,,,,,,,,
,,,,,,,,,,,,,,,684,2022-02-19_12h09.03.568,multiplicationStroop,2021.2.3,Win32,60.03121623,,,,,,,,,,,,,,,,,,,,,,,,,,,,,,,,,45,4.526,1,0,18,18,23,1,9,×,5,9 × 5,congruent,largerFirst,2,1,45,,,,,,,,
,,,,,,,,,,,,,,,684,2022-02-19_12h09.03.568,multiplicationStroop,2021.2.3,Win32,60.03121623,,,,,,,,,,,,,,,,,,,,,,,,,,,,,,,,,56,4.4369,1,0,19,19,8,1,7,×,8,7 × 8,congruent,smallerFirst,1,2,56,,,,,,,,
,,,,,,,,,,,,,,,684,2022-02-19_12h09.03.568,multiplicationStroop,2021.2.3,Win32,60.03121623,,,,,,,,,,,,,,,,,,,,,,,,,,,,,,,,,36,2.0153,1,0,20,20,32,1,6,×,6,6 × 6,neutral,tie,2,1,36,,,,,,,,
,,,,,,,,,,,,,,,684,2022-02-19_12h09.03.568,multiplicationStroop,2021.2.3,Win32,60.03121623,,,,,,,,,,,,,,,,,,,,,,,,,,,,,,,,,35,1.7975,1,0,21,21,1,1,5,×,7,5 × 7,congruent,smallerFirst,1,2,35,,,,,,,,
,,,,,,,,,,,,,,,684,2022-02-19_12h09.03.568,multiplicationStroop,2021.2.3,Win32,60.03121623,,,,,,,,,,,,,,,,,,,,,,,,,,,,,,,,,28,3.348,1,0,22,22,27,1,7,×,4,7 × 4,congruent,largerFirst,2,1,28,,,,,,,,
,,,,,,,,,,,,,,,684,2022-02-19_12h09.03.568,multiplicationStroop,2021.2.3,Win32,60.03121623,,,,,,,,,,,,,,,,,,,,,,,,,,,,,,,,,54,7.4481,1,0,23,23,12,1,6,×,9,6 × 9,congruent,smallerFirst,1,2,54,,,,,,,,
,,,,,,,,,,,,,,,684,2022-02-19_12h09.03.568,multiplicationStroop,2021.2.3,Win32,60.03121623,,,,,,,,,,,,,,,,,,,,,,,,,,,,,,,,,10,2.1999,1,0,24,24,24,1,5,×,2,5 × 2,congruent,largerFirst,2,1,10,,,,,,,,
,,,,,,,,,,,,,,,684,2022-02-19_12h09.03.568,multiplicationStroop,2021.2.3,Win32,60.03121623,,,,,,,,,,,,,,,,,,,,,,,,,,,,,,,,,64,6.0155,1,0,25,25,34,1,8,×,8,8 × 8,neutral,tie,2,1,64,,,,,,,,
,,,,,,,,,,,,,,,684,2022-02-19_12h09.03.568,multiplicationStroop,2021.2.3,Win32,60.03121623,,,,,,,,,,,,,,,,,,,,,,,,,,,,,,,,,40,2.0827,1,0,26,26,6,1,5,×,8,5 × 8,congruent,smallerFirst,1,2,40,,,,,,,,
,,,,,,,,,,,,,,,684,2022-02-19_12h09.03.568,multiplicationStroop,2021.2.3,Win32,60.03121623,,,,,,,,,,,,,,,,,,,,,,,,,,,,,,,,,49,2.5488,1,0,27,27,33,1,7,×,7,7 × 7,neutral,tie,2,1,49,,,,,,,,
,,,,,,,,,,,,,,,684,2022-02-19_12h09.03.568,multiplicationStroop,2021.2.3,Win32,60.03121623,,,,,,,,,,,,,,,,,,,,,,,,,,,,,,,,,8,1.7804,1,0,28,28,9,1,2,×,4,2 × 4,congruent,smallerFirst,1,2,8,,,,,,,,
,,,,,,,,,,,,,,,684,2022-02-19_12h09.03.568,multiplicationStroop,2021.2.3,Win32,60.03121623,,,,,,,,,,,,,,,,,,,,,,,,,,,,,,,,,20,1.9819,1,0,29,29,7,1,4,×,5,4 × 5,congruent,smallerFirst,1,2,20,,,,,,,,
,,,,,,,,,,,,,,,684,2022-02-19_12h09.03.568,multiplicationStroop,2021.2.3,Win32,60.03121623,,,,,,,,,,,,,,,,,,,,,,,,,,,,,,,,,16,1.8967,1,0,30,30,5,1,2,×,8,2 × 8,congruent,smallerFirst,1,2,16,,,,,,,,
,,,,,,,,,,,,,,,684,2022-02-19_12h09.03.568,multiplicationStroop,2021.2.3,Win32,60.03121623,,,,,,,,,,,,,,,,,,,,,,,,,,,,,,,,,15,1.8493,1,0,31,31,4,1,3,×,5,3 × 5,congruent,smallerFirst,1,2,15,,,,,,,,
,,,,,,,,,,,,,,,684,2022-02-19_12h09.03.568,multiplicationStroop,2021.2.3,Win32,60.03121623,,,,,,,,,,,,,,,,,,,,,,,,,,,,,,,,,18,2.4984,1,0,32,32,11,1,3,×,6,3 × 6,congruent,smallerFirst,1,2,18,,,,,,,,
,,,,,,,,,,,,,,,684,2022-02-19_12h09.03.568,multiplicationStroop,2021.2.3,Win32,60.03121623,,,,,,,,,,,,,,,,,,,,,,,,,,,,,,,,,24,2.4146,1,0,33,33,10,1,3,×,8,3 × 8,congruent,smallerFirst,1,2,24,,,,,,,,
,,,,,,,,,,,,,,,684,2022-02-19_12h09.03.568,multiplicationStroop,2021.2.3,Win32,60.03121623,,,,,,,,,,,,,,,,,,,,,,,,,,,,,,,,,21,1.9148,1,0,34,34,16,1,7,×,3,7 × 3,congruent,largerFirst,2,1,21,,,,,,,,
,,,,,,,,,,,,,,,684,2022-02-19_12h09.03.568,multiplicationStroop,2021.2.3,Win32,60.03121623,,,,,,,,,,,,,,,,,,,,,,,,,,,,,,,,,12,2.132,1,0,35,35,19,1,6,×,2,6 × 2,congruent,largerFirst,2,1,12,,,,,,,,
,,,,,,,,,,,,,,,684,2022-02-19_12h09.03.568,multiplicationStroop,2021.2.3,Win32,60.03121623,,,,,,,,,,,,,,,,,,,,,,,,,,,,,,,,,,,,,,,,,,,,,,,,,,0,1,1,2,1,stimulusFile/mult_blk3_congruent.xlsx,,
,,,,,,,,,,,,,,,684,2022-02-19_12h09.03.568,multiplicationStroop,2021.2.3,Win32,60.03121623,,,,,,,,,,,,,,,,,,,,,,,,,,,,,,,space,2.413,72,3.2928,1,0,0,0,11,1,8,×,9,8 × 9,neutral,smallerFirst,1.5,1.5,72,,,,,,,,
,,,,,,,,,,,,,,,684,2022-02-19_12h09.03.568,multiplicationStroop,2021.2.3,Win32,60.03121623,,,,,,,,,,,,,,,,,,,,,,,,,,,,,,,,,24,2.2591,1,0,1,1,2,1,4,×,6,4 × 6,neutral,smallerFirst,1.5,1.5,24,,,,,,,,
,,,,,,,,,,,,,,,684,2022-02-19_12h09.03.568,multiplicationStroop,2021.2.3,Win32,60.03121623,,,,,,,,,,,,,,,,,,,,,,,,,,,,,,,,,48,7.0452,1,0,2,2,15,1,8,×,6,8 × 6,neutral,largerFirst,1.5,1.5,48,,,,,,,,
,,,,,,,,,,,,,,,684,2022-02-19_12h09.03.568,multiplicationStroop,2021.2.3,Win32,60.03121623,,,,,,,,,,,,,,,,,,,,,,,,,,,,,,,,,30,2.9813,1,0,3,3,19,1,6,×,5,6 × 5,neutral,largerFirst,1.5,1.5,30,,,,,,,,
,,,,,,,,,,,,,,,684,2022-02-19_12h09.03.568,multiplicationStroop,2021.2.3,Win32,60.03121623,,,,,,,,,,,,,,,,,,,,,,,,,,,,,,,,,24,3.4131,1,0,4,4,22,1,8,×,3,8 × 3,neutral,largerFirst,1.5,1.5,24,,,,,,,,
,,,,,,,,,,,,,,,684,2022-02-19_12h09.03.568,multiplicationStroop,2021.2.3,Win32,60.03121623,,,,,,,,,,,,,,,,,,,,,,,,,,,,,,,,,8,1.5985,1,0,5,5,3,1,2,×,4,2 × 4,neutral,smallerFirst,1.5,1.5,8,,,,,,,,
,,,,,,,,,,,,,,,684,2022-02-19_12h09.03.568,multiplicationStroop,2021.2.3,Win32,60.03121623,,,,,,,,,,,,,,,,,,,,,,,,,,,,,,,,,54,5.7977,1,0,6,6,7,1,6,×,9,6 × 9,neutral,smallerFirst,1.5,1.5,54,,,,,,,,
,,,,,,,,,,,,,,,684,2022-02-19_12h09.03.568,multiplicationStroop,2021.2.3,Win32,60.03121623,,,,,,,,,,,,,,,,,,,,,,,,,,,,,,,,,40,1.9522,1,0,7,7,24,1,8,×,5,8 × 5,neutral,largerFirst,1.5,1.5,40,,,,,,,,
,,,,,,,,,,,,,,,684,2022-02-19_12h09.03.568,multiplicationStroop,2021.2.3,Win32,60.03121623,,,,,,,,,,,,,,,,,,,,,,,,,,,,,,,,,4,1.3158,1,0,8,8,28,1,2,×,2,2 × 2,neutral,tie,1.5,1.5,4,,,,,,,,
,,,,,,,,,,,,,,,684,2022-02-19_12h09.03.568,multiplicationStroop,2021.2.3,Win32,60.03121623,,,,,,,,,,,,,,,,,,,,,,,,,,,,,,,,,45,2.9135,1,0,9,9,10,1,5,×,9,5 × 9,neutral,smallerFirst,1.5,1.5,45,,,,,,,,
,,,,,,,,,,,,,,,684,2022-02-19_12h09.03.568,multiplicationStroop,2021.2.3,Win32,60.03121623,,,,,,,,,,,,,,,,,,,,,,,,,,,,,,,,,36,1.8541,1,0,10,10,32,1,6,×,6,6 × 6,neutral,tie,1.5,1.5,36,,,,,,,,
,,,,,,,,,,,,,,,684,2022-02-19_12h09.03.568,multiplicationStroop,2021.2.3,Win32,60.03121623,,,,,,,,,,,,,,,,,,,,,,,,,,,,,,,,,14,1.9266,1,0,11,11,16,1,7,×,2,7 × 2,neutral,largerFirst,1.5,1.5,14,,,,,,,,
,,,,,,,,,,,,,,,684,2022-02-19_12h09.03.568,multiplicationStroop,2021.2.3,Win32,60.03121623,,,,,,,,,,,,,,,,,,,,,,,,,,,,,,,,,6,1.6491,1,0,12,12,26,1,3,×,2,3 × 2,neutral,largerFirst,1.5,1.5,6,,,,,,,,
,,,,,,,,,,,,,,,684,2022-02-19_12h09.03.568,multiplicationStroop,2021.2.3,Win32,60.03121623,,,,,,,,,,,,,,,,,,,,,,,,,,,,,,,,,64,4.3147,1,0,13,13,34,1,8,×,8,8 × 8,neutral,tie,1.5,1.5,64,,,,,,,,
,,,,,,,,,,,,,,,684,2022-02-19_12h09.03.568,multiplicationStroop,2021.2.3,Win32,60.03121623,,,,,,,,,,,,,,,,,,,,,,,,,,,,,,,,,10,1.7832,1,0,14,14,4,1,2,×,5,2 × 5,neutral,smallerFirst,1.5,1.5,10,,,,,,,,
,,,,,,,,,,,,,,,684,2022-02-19_12h09.03.568,multiplicationStroop,2021.2.3,Win32,60.03121623,,,,,,,,,,,,,,,,,,,,,,,,,,,,,,,,,32,4.0793,1,0,15,15,23,1,8,×,4,8 × 4,neutral,largerFirst,1.5,1.5,32,,,,,,,,
,,,,,,,,,,,,,,,684,2022-02-19_12h09.03.568,multiplicationStroop,2021.2.3,Win32,60.03121623,,,,,,,,,,,,,,,,,,,,,,,,,,,,,,,,,42,6.3947,1,0,16,16,6,1,6,×,7,6 × 7,neutral,smallerFirst,1.5,1.5,42,,,,,,,,
,,,,,,,,,,,,,,,684,2022-02-19_12h09.03.568,multiplicationStroop,2021.2.3,Win32,60.03121623,,,,,,,,,,,,,,,,,,,,,,,,,,,,,,,,,12,1.6477,1,0,17,17,21,1,4,×,3,4 × 3,neutral,largerFirst,1.5,1.5,12,,,,,,,,
,,,,,,,,,,,,,,,684,2022-02-19_12h09.03.568,multiplicationStroop,2021.2.3,Win32,60.03121623,,,,,,,,,,,,,,,,,,,,,,,,,,,,,,,,,56,4.6315,1,0,18,18,9,1,7,×,8,7 × 8,neutral,smallerFirst,1.5,1.5,56,,,,,,,,
,,,,,,,,,,,,,,,684,2022-02-19_12h09.03.568,multiplicationStroop,2021.2.3,Win32,60.03121623,,,,,,,,,,,,,,,,,,,,,,,,,,,,,,,,,63,5.0931,1,0,19,19,12,1,7,×,9,7 × 9,neutral,smallerFirst,1.5,1.5,63,,,,,,,,
,,,,,,,,,,,,,,,684,2022-02-19_12h09.03.568,multiplicationStroop,2021.2.3,Win32,60.03121623,,,,,,,,,,,,,,,,,,,,,,,,,,,,,,,,,20,2.9199,1,0,20,20,20,1,5,×,4,5 × 4,neutral,largerFirst,1.5,1.5,20,,,,,,,,
,,,,,,,,,,,,,,,684,2022-02-19_12h09.03.568,multiplicationStroop,2021.2.3,Win32,60.03121623,,,,,,,,,,,,,,,,,,,,,,,,,,,,,,,,,27,5.4018,1,0,21,21,14,1,9,×,3,9 × 3,neutral,largerFirst,1.5,1.5,27,,,,,,,,
,,,,,,,,,,,,,,,684,2022-02-19_12h09.03.568,multiplicationStroop,2021.2.3,Win32,60.03121623,,,,,,,,,,,,,,,,,,,,,,,,,,,,,,,,,16,1.9301,1,0,22,22,13,1,2,×,8,2 × 8,neutral,smallerFirst,1.5,1.5,16,,,,,,,,
,,,,,,,,,,,,,,,684,2022-02-19_12h09.03.568,multiplicationStroop,2021.2.3,Win32,60.03121623,,,,,,,,,,,,,,,,,,,,,,,,,,,,,,,,,21,1.6148,1,0,23,23,8,1,3,×,7,3 × 7,neutral,smallerFirst,1.5,1.5,21,,,,,,,,
,,,,,,,,,,,,,,,684,2022-02-19_12h09.03.568,multiplicationStroop,2021.2.3,Win32,60.03121623,,,,,,,,,,,,,,,,,,,,,,,,,,,,,,,,,9,1.4479,1,0,24,24,29,1,3,×,3,3 × 3,neutral,tie,1.5,1.5,9,,,,,,,,
,,,,,,,,,,,,,,,684,2022-02-19_12h09.03.568,multiplicationStroop,2021.2.3,Win32,60.03121623,,,,,,,,,,,,,,,,,,,,,,,,,,,,,,,,,36,7.115,1,0,25,25,27,1,9,×,4,9 × 4,neutral,largerFirst,1.5,1.5,36,,,,,,,,
,,,,,,,,,,,,,,,684,2022-02-19_12h09.03.568,multiplicationStroop,2021.2.3,Win32,60.03121623,,,,,,,,,,,,,,,,,,,,,,,,,,,,,,,,,16,1.7441,1,0,26,26,30,1,4,×,4,4 × 4,neutral,tie,1.5,1.5,16,,,,,,,,
,,,,,,,,,,,,,,,684,2022-02-19_12h09.03.568,multiplicationStroop,2021.2.3,Win32,60.03121623,,,,,,,,,,,,,,,,,,,,,,,,,,,,,,,,,15,1.6998,1,0,27,27,5,1,3,×,5,3 × 5,neutral,smallerFirst,1.5,1.5,15,,,,,,,,
,,,,,,,,,,,,,,,684,2022-02-19_12h09.03.568,multiplicationStroop,2021.2.3,Win32,60.03121623,,,,,,,,,,,,,,,,,,,,,,,,,,,,,,,,,35,2.0497,1,0,28,28,1,1,5,×,7,5 × 7,neutral,smallerFirst,1.5,1.5,35,,,,,,,,
,,,,,,,,,,,,,,,684,2022-02-19_12h09.03.568,multiplicationStroop,2021.2.3,Win32,60.03121623,,,,,,,,,,,,,,,,,,,,,,,,,,,,,,,,,49,1.9968,1,0,29,29,33,1,7,×,7,7 × 7,neutral,tie,1.5,1.5,49,,,,,,,,
,,,,,,,,,,,,,,,684,2022-02-19_12h09.03.568,multiplicationStroop,2021.2.3,Win32,60.03121623,,,,,,,,,,,,,,,,,,,,,,,,,,,,,,,,,28,3.7971,1,0,30,30,17,1,7,×,4,7 × 4,neutral,largerFirst,1.5,1.5,28,,,,,,,,
,,,,,,,,,,,,,,,684,2022-02-19_12h09.03.568,multiplicationStroop,2021.2.3,Win32,60.03121623,,,,,,,,,,,,,,,,,,,,,,,,,,,,,,,,,81,2.8869,1,0,31,31,35,1,9,×,9,9 × 9,neutral,tie,1.5,1.5,81,,,,,,,,
,,,,,,,,,,,,,,,684,2022-02-19_12h09.03.568,multiplicationStroop,2021.2.3,Win32,60.03121623,,,,,,,,,,,,,,,,,,,,,,,,,,,,,,,,,12,1.5359,1,0,32,32,25,1,6,×,2,6 × 2,neutral,largerFirst,1.5,1.5,12,,,,,,,,
,,,,,,,,,,,,,,,684,2022-02-19_12h09.03.568,multiplicationStroop,2021.2.3,Win32,60.03121623,,,,,,,,,,,,,,,,,,,,,,,,,,,,,,,,,18,3.214,1,0,33,33,0,1,3,×,6,3 × 6,neutral,smallerFirst,1.5,1.5,18,,,,,,,,
,,,,,,,,,,,,,,,684,2022-02-19_12h09.03.568,multiplicationStroop,2021.2.3,Win32,60.03121623,,,,,,,,,,,,,,,,,,,,,,,,,,,,,,,,,18,2.5649,1,0,34,34,18,1,9,×,2,9 × 2,neutral,largerFirst,1.5,1.5,18,,,,,,,,
,,,,,,,,,,,,,,,684,2022-02-19_12h09.03.568,multiplicationStroop,2021.2.3,Win32,60.03121623,,,,,,,,,,,,,,,,,,,,,,,,,,,,,,,,,25,2.0984,1,0,35,35,31,1,5,×,5,5 × 5,neutral,tie,1.5,1.5,25,,,,,,,,
,,,,,,,,,,,,,,,684,2022-02-19_12h09.03.568,multiplicationStroop,2021.2.3,Win32,60.03121623,,,,,,,,,,,,,,,,,,,,,,,,,,,,,,,,,,,,,,,,,,,,,,,,,,0,2,2,1,1,stimulusFile/mult_blk2.xlsx,,
,,,,,,,,,,,,,,,684,2022-02-19_12h09.03.568,multiplicationStroop,2021.2.3,Win32,60.03121623,,,,,,,,,,,,,,,,,,,,,,,,,,,,,,,space,1.6678,72,3.0668,1,0,0,0,25,1,9,×,8,9 × 8,neutral,largerFirst,1.5,1.5,72,,,,,,,,
,,,,,,,,,,,,,,,684,2022-02-19_12h09.03.568,multiplicationStroop,2021.2.3,Win32,60.03121623,,,,,,,,,,,,,,,,,,,,,,,,,,,,,,,,,36,1.9375,1,0,1,1,32,1,6,×,6,6 × 6,neutral,tie,1.5,1.5,36,,,,,,,,
,,,,,,,,,,,,,,,684,2022-02-19_12h09.03.568,multiplicationStroop,2021.2.3,Win32,60.03121623,,,,,,,,,,,,,,,,,,,,,,,,,,,,,,,,,42,1.9294,1,0,2,2,20,1,7,×,6,7 × 6,neutral,largerFirst,1.5,1.5,42,,,,,,,,
,,,,,,,,,,,,,,,684,2022-02-19_12h09.03.568,multiplicationStroop,2021.2.3,Win32,60.03121623,,,,,,,,,,,,,,,,,,,,,,,,,,,,,,,,,49,1.7642,1,0,3,3,33,1,7,×,7,7 × 7,neutral,tie,1.5,1.5,49,,,,,,,,
,,,,,,,,,,,,,,,684,2022-02-19_12h09.03.568,multiplicationStroop,2021.2.3,Win32,60.03121623,,,,,,,,,,,,,,,,,,,,,,,,,,,,,,,,,40,2.065,1,0,4,4,10,1,5,×,8,5 × 8,neutral,smallerFirst,1.5,1.5,40,,,,,,,,
,,,,,,,,,,,,,,,684,2022-02-19_12h09.03.568,multiplicationStroop,2021.2.3,Win32,60.03121623,,,,,,,,,,,,,,,,,,,,,,,,,,,,,,,,,14,1.8156,1,0,5,5,2,1,2,×,7,2 × 7,neutral,smallerFirst,1.5,1.5,14,,,,,,,,
,,,,,,,,,,,,,,,684,2022-02-19_12h09.03.568,multiplicationStroop,2021.2.3,Win32,60.03121623,,,,,,,,,,,,,,,,,,,,,,,,,,,,,,,,,18,2.2315,1,0,6,6,4,1,2,×,9,2 × 9,neutral,smallerFirst,1.5,1.5,18,,,,,,,,
,,,,,,,,,,,,,,,684,2022-02-19_12h09.03.568,multiplicationStroop,2021.2.3,Win32,60.03121623,,,,,,,,,,,,,,,,,,,,,,,,,,,,,,,,,18,2.1485,1,0,7,7,14,1,6,×,3,6 × 3,neutral,largerFirst,1.5,1.5,18,,,,,,,,
,,,,,,,,,,,,,,,684,2022-02-19_12h09.03.568,multiplicationStroop,2021.2.3,Win32,60.03121623,,,,,,,,,,,,,,,,,,,,,,,,,,,,,,,,,30,1.7285,1,0,8,8,5,1,5,×,6,5 × 6,neutral,smallerFirst,1.5,1.5,30,,,,,,,,
,,,,,,,,,,,,,,,684,2022-02-19_12h09.03.568,multiplicationStroop,2021.2.3,Win32,60.03121623,,,,,,,,,,,,,,,,,,,,,,,,,,,,,,,,,12,1.7816,1,0,9,9,11,1,2,×,6,2 × 6,neutral,smallerFirst,1.5,1.5,12,,,,,,,,
,,,,,,,,,,,,,,,684,2022-02-19_12h09.03.568,multiplicationStroop,2021.2.3,Win32,60.03121623,,,,,,,,,,,,,,,,,,,,,,,,,,,,,,,,,32,2.1977,1,0,10,10,9,1,4,×,8,4 × 8,neutral,smallerFirst,1.5,1.5,32,,,,,,,,
,,,,,,,,,,,,,,,684,2022-02-19_12h09.03.568,multiplicationStroop,2021.2.3,Win32,60.03121623,,,,,,,,,,,,,,,,,,,,,,,,,,,,,,,,,25,1.6446,1,0,11,11,31,1,5,×,5,5 × 5,neutral,tie,1.5,1.5,25,,,,,,,,
,,,,,,,,,,,,,,,684,2022-02-19_12h09.03.568,multiplicationStroop,2021.2.3,Win32,60.03121623,,,,,,,,,,,,,,,,,,,,,,,,,,,,,,,,,35,1.8324,1,0,12,12,15,1,7,×,5,7 × 5,neutral,largerFirst,1.5,1.5,35,,,,,,,,
,,,,,,,,,,,,,,,684,2022-02-19_12h09.03.568,multiplicationStroop,2021.2.3,Win32,60.03121623,,,,,,,,,,,,,,,,,,,,,,,,,,,,,,,,,36,5.3641,1,0,13,13,13,1,4,×,9,4 × 9,neutral,smallerFirst,1.5,1.5,36,,,,,,,,
,,,,,,,,,,,,,,,684,2022-02-19_12h09.03.568,multiplicationStroop,2021.2.3,Win32,60.03121623,,,,,,,,,,,,,,,,,,,,,,,,,,,,,,,,,27,3.6139,1,0,14,14,0,1,3,×,9,3 × 9,neutral,smallerFirst,1.5,1.5,27,,,,,,,,
,,,,,,,,,,,,,,,684,2022-02-19_12h09.03.568,multiplicationStroop,2021.2.3,Win32,60.03121623,,,,,,,,,,,,,,,,,,,,,,,,,,,,,,,,,20,1.9632,1,0,15,15,6,1,4,×,5,4 × 5,neutral,smallerFirst,1.5,1.5,20,,,,,,,,
,,,,,,,,,,,,,,,684,2022-02-19_12h09.03.568,multiplicationStroop,2021.2.3,Win32,60.03121623,,,,,,,,,,,,,,,,,,,,,,,,,,,,,,,,,28,2.1321,1,0,16,16,3,1,4,×,7,4 × 7,neutral,smallerFirst,1.5,1.5,28,,,,,,,,
,,,,,,,,,,,,,,,684,2022-02-19_12h09.03.568,multiplicationStroop,2021.2.3,Win32,60.03121623,,,,,,,,,,,,,,,,,,,,,,,,,,,,,,,,,8,1.648,1,0,17,17,17,1,4,×,2,4 × 2,neutral,largerFirst,1.5,1.5,8,,,,,,,,
,,,,,,,,,,,,,,,684,2022-02-19_12h09.03.568,multiplicationStroop,2021.2.3,Win32,60.03121623,,,,,,,,,,,,,,,,,,,,,,,,,,,,,,,,,12,1.615,1,0,18,18,7,1,3,×,4,3 × 4,neutral,smallerFirst,1.5,1.5,12,,,,,,,,
,,,,,,,,,,,,,,,684,2022-02-19_12h09.03.568,multiplicationStroop,2021.2.3,Win32,60.03121623,,,,,,,,,,,,,,,,,,,,,,,,,,,,,,,,,21,1.6658,1,0,19,19,22,1,7,×,3,7 × 3,neutral,largerFirst,1.5,1.5,21,,,,,,,,
,,,,,,,,,,,,,,,684,2022-02-19_12h09.03.568,multiplicationStroop,2021.2.3,Win32,60.03121623,,,,,,,,,,,,,,,,,,,,,,,,,,,,,,,,,10,1.7977,1,0,20,20,18,1,5,×,2,5 × 2,neutral,largerFirst,1.5,1.5,10,,,,,,,,
,,,,,,,,,,,,,,,684,2022-02-19_12h09.03.568,multiplicationStroop,2021.2.3,Win32,60.03121623,,,,,,,,,,,,,,,,,,,,,,,,,,,,,,,,,81,2.2324,1,0,21,21,35,1,9,×,9,9 × 9,neutral,tie,1.5,1.5,81,,,,,,,,
,,,,,,,,,,,,,,,684,2022-02-19_12h09.03.568,multiplicationStroop,2021.2.3,Win32,60.03121623,,,,,,,,,,,,,,,,,,,,,,,,,,,,,,,,,24,7.9472,1,0,22,22,16,1,6,×,4,6 × 4,neutral,largerFirst,1.5,1.5,24,,,,,,,,
,,,,,,,,,,,,,,,684,2022-02-19_12h09.03.568,multiplicationStroop,2021.2.3,Win32,60.03121623,,,,,,,,,,,,,,,,,,,,,,,,,,,,,,,,,56,7.5153,1,0,23,23,23,1,8,×,7,8 × 7,neutral,largerFirst,1.5,1.5,56,,,,,,,,
,,,,,,,,,,,,,,,684,2022-02-19_12h09.03.568,multiplicationStroop,2021.2.3,Win32,60.03121623,,,,,,,,,,,,,,,,,,,,,,,,,,,,,,,,,16,1.8133,1,0,24,24,30,1,4,×,4,4 × 4,neutral,tie,1.5,1.5,16,,,,,,,,
,,,,,,,,,,,,,,,684,2022-02-19_12h09.03.568,multiplicationStroop,2021.2.3,Win32,60.03121623,,,,,,,,,,,,,,,,,,,,,,,,,,,,,,,,,15,1.6453,1,0,25,25,19,1,5,×,3,5 × 3,neutral,largerFirst,1.5,1.5,15,,,,,,,,
,,,,,,,,,,,,,,,684,2022-02-19_12h09.03.568,multiplicationStroop,2021.2.3,Win32,60.03121623,,,,,,,,,,,,,,,,,,,,,,,,,,,,,,,,,45,2.6678,1,0,26,26,24,1,9,×,5,9 × 5,neutral,largerFirst,1.5,1.5,45,,,,,,,,
,,,,,,,,,,,,,,,684,2022-02-19_12h09.03.568,multiplicationStroop,2021.2.3,Win32,60.03121623,,,,,,,,,,,,,,,,,,,,,,,,,,,,,,,,,4,2.9062,1,0,27,27,28,1,2,×,2,2 × 2,neutral,tie,1.5,1.5,4,,,,,,,,
,,,,,,,,,,,,,,,684,2022-02-19_12h09.03.568,multiplicationStroop,2021.2.3,Win32,60.03121623,,,,,,,,,,,,,,,,,,,,,,,,,,,,,,,,,6,1.799,1,0,28,28,12,1,2,×,3,2 × 3,neutral,smallerFirst,1.5,1.5,6,,,,,,,,
,,,,,,,,,,,,,,,684,2022-02-19_12h09.03.568,multiplicationStroop,2021.2.3,Win32,60.03121623,,,,,,,,,,,,,,,,,,,,,,,,,,,,,,,,,63,3.7813,1,0,29,29,26,1,9,×,7,9 × 7,neutral,largerFirst,1.5,1.5,63,,,,,,,,
,,,,,,,,,,,,,,,684,2022-02-19_12h09.03.568,multiplicationStroop,2021.2.3,Win32,60.03121623,,,,,,,,,,,,,,,,,,,,,,,,,,,,,,,,,64,6.2477,1,0,30,30,34,1,8,×,8,8 × 8,neutral,tie,1.5,1.5,64,,,,,,,,
,,,,,,,,,,,,,,,684,2022-02-19_12h09.03.568,multiplicationStroop,2021.2.3,Win32,60.03121623,,,,,,,,,,,,,,,,,,,,,,,,,,,,,,,,,54,6.2653,1,0,31,31,21,1,9,×,6,9 × 6,neutral,largerFirst,1.5,1.5,54,,,,,,,,
,,,,,,,,,,,,,,,684,2022-02-19_12h09.03.568,multiplicationStroop,2021.2.3,Win32,60.03121623,,,,,,,,,,,,,,,,,,,,,,,,,,,,,,,,,9,1.5822,1,0,32,32,29,1,3,×,3,3 × 3,neutral,tie,1.5,1.5,9,,,,,,,,
,,,,,,,,,,,,,,,684,2022-02-19_12h09.03.568,multiplicationStroop,2021.2.3,Win32,60.03121623,,,,,,,,,,,,,,,,,,,,,,,,,,,,,,,,,24,4.6142,1,0,33,33,8,1,3,×,8,3 × 8,neutral,smallerFirst,1.5,1.5,24,,,,,,,,
,,,,,,,,,,,,,,,684,2022-02-19_12h09.03.568,multiplicationStroop,2021.2.3,Win32,60.03121623,,,,,,,,,,,,,,,,,,,,,,,,,,,,,,,,,16,2.1129,1,0,34,34,27,1,8,×,2,8 × 2,neutral,largerFirst,1.5,1.5,16,,,,,,,,
,,,,,,,,,,,,,,,684,2022-02-19_12h09.03.568,multiplicationStroop,2021.2.3,Win32,60.03121623,,,,,,,,,,,,,,,,,,,,,,,,,,,,,,,,,48,6.3821,1,0,35,35,1,1,6,×,8,6 × 8,neutral,smallerFirst,1.5,1.5,48,,,,,,,,
,,,,,,,,,,,,,,,684,2022-02-19_12h09.03.568,multiplicationStroop,2021.2.3,Win32,60.03121623,,,,,,,,,,,,,,,,,,,,,,,,,,,,,,,,,,,,,,,,,,,,,,,,,,0,3,3,0,1,stimulusFile/mult_blk1.xlsx,,
,,,,,,,,,,,,,,,684,2022-02-19_12h09.03.568,multiplicationStroop,2021.2.3,Win32,60.03121623,,,,,,,,,,,,,,,,,,,,,,,,,,,,,,,space,3.0016,16,2.6116,1,0,0,0,9,1,2,×,8,2 × 8,incongruent,smallerFirst,2,1,16,,,,,,,,
,,,,,,,,,,,,,,,684,2022-02-19_12h09.03.568,multiplicationStroop,2021.2.3,Win32,60.03121623,,,,,,,,,,,,,,,,,,,,,,,,,,,,,,,,,45,2.3802,1,0,1,1,8,1,5,×,9,5 × 9,incongruent,smallerFirst,2,1,45,,,,,,,,
,,,,,,,,,,,,,,,684,2022-02-19_12h09.03.568,multiplicationStroop,2021.2.3,Win32,60.03121623,,,,,,,,,,,,,,,,,,,,,,,,,,,,,,,,,40,2.032,1,0,2,2,27,1,8,×,5,8 × 5,incongruent,largerFirst,1,2,40,,,,,,,,
,,,,,,,,,,,,,,,684,2022-02-19_12h09.03.568,multiplicationStroop,2021.2.3,Win32,60.03121623,,,,,,,,,,,,,,,,,,,,,,,,,,,,,,,,,8,1.6312,1,0,3,3,10,1,2,×,4,2 × 4,incongruent,smallerFirst,2,1,8,,,,,,,,
,,,,,,,,,,,,,,,684,2022-02-19_12h09.03.568,multiplicationStroop,2021.2.3,Win32,60.03121623,,,,,,,,,,,,,,,,,,,,,,,,,,,,,,,,,81,4.1988,1,0,4,4,35,1,9,×,9,9 × 9,neutral,tie,2,1,81,,,,,,,,
,,,,,,,,,,,,,,,684,2022-02-19_12h09.03.568,multiplicationStroop,2021.2.3,Win32,60.03121623,,,,,,,,,,,,,,,,,,,,,,,,,,,,,,,,,36,3.2834,1,0,5,5,1,1,4,×,9,4 × 9,incongruent,smallerFirst,2,1,36,,,,,,,,
,,,,,,,,,,,,,,,684,2022-02-19_12h09.03.568,multiplicationStroop,2021.2.3,Win32,60.03121623,,,,,,,,,,,,,,,,,,,,,,,,,,,,,,,,,48,4.2152,1,0,6,6,15,1,8,×,6,8 × 6,incongruent,largerFirst,1,2,48,,,,,,,,
,,,,,,,,,,,,,,,684,2022-02-19_12h09.03.568,multiplicationStroop,2021.2.3,Win32,60.03121623,,,,,,,,,,,,,,,,,,,,,,,,,,,,,,,,,72,2.4178,1,0,7,7,14,1,9,×,8,9 × 8,incongruent,largerFirst,1,2,72,,,,,,,,
,,,,,,,,,,,,,,,684,2022-02-19_12h09.03.568,multiplicationStroop,2021.2.3,Win32,60.03121623,,,,,,,,,,,,,,,,,,,,,,,,,,,,,,,,,16,1.9816,1,0,8,8,30,1,4,×,4,4 × 4,neutral,tie,2,1,16,,,,,,,,
,,,,,,,,,,,,,,,684,2022-02-19_12h09.03.568,multiplicationStroop,2021.2.3,Win32,60.03121623,,,,,,,,,,,,,,,,,,,,,,,,,,,,,,,,,25,1.7658,1,0,9,9,31,1,5,×,5,5 × 5,neutral,tie,2,1,25,,,,,,,,
,,,,,,,,,,,,,,,684,2022-02-19_12h09.03.568,multiplicationStroop,2021.2.3,Win32,60.03121623,,,,,,,,,,,,,,,,,,,,,,,,,,,,,,,,,42,1.8927,1,0,10,10,3,1,6,×,7,6 × 7,incongruent,smallerFirst,2,1,42,,,,,,,,
,,,,,,,,,,,,,,,684,2022-02-19_12h09.03.568,multiplicationStroop,2021.2.3,Win32,60.03121623,,,,,,,,,,,,,,,,,,,,,,,,,,,,,,,,,63,2.7641,1,0,11,11,17,1,9,×,7,9 × 7,incongruent,largerFirst,1,2,63,,,,,,,,
,,,,,,,,,,,,,,,684,2022-02-19_12h09.03.568,multiplicationStroop,2021.2.3,Win32,60.03121623,,,,,,,,,,,,,,,,,,,,,,,,,,,,,,,,,15,2.0516,1,0,12,12,24,1,5,×,3,5 × 3,incongruent,largerFirst,1,2,15,,,,,,,,
,,,,,,,,,,,,,,,684,2022-02-19_12h09.03.568,multiplicationStroop,2021.2.3,Win32,60.03121623,,,,,,,,,,,,,,,,,,,,,,,,,,,,,,,,,21,1.6452,1,0,13,13,12,1,3,×,7,3 × 7,incongruent,smallerFirst,2,1,21,,,,,,,,
,,,,,,,,,,,,,,,684,2022-02-19_12h09.03.568,multiplicationStroop,2021.2.3,Win32,60.03121623,,,,,,,,,,,,,,,,,,,,,,,,,,,,,,,,,48,3.9981,0,0,14,14,21,1,8,×,4,8 × 4,incongruent,largerFirst,1,2,32,,,,,,,,
,,,,,,,,,,,,,,,684,2022-02-19_12h09.03.568,multiplicationStroop,2021.2.3,Win32,60.03121623,,,,,,,,,,,,,,,,,,,,,,,,,,,,,,,,,24,3.9144,1,0,15,15,6,1,4,×,6,4 × 6,incongruent,smallerFirst,2,1,24,,,,,,,,
,,,,,,,,,,,,,,,684,2022-02-19_12h09.03.568,multiplicationStroop,2021.2.3,Win32,60.03121623,,,,,,,,,,,,,,,,,,,,,,,,,,,,,,,,,36,1.9303,1,0,16,16,32,1,6,×,6,6 × 6,neutral,tie,2,1,36,,,,,,,,
,,,,,,,,,,,,,,,684,2022-02-19_12h09.03.568,multiplicationStroop,2021.2.3,Win32,60.03121623,,,,,,,,,,,,,,,,,,,,,,,,,,,,,,,,,6,2.5651,1,0,17,17,25,1,3,×,2,3 × 2,incongruent,largerFirst,1,2,6,,,,,,,,
,,,,,,,,,,,,,,,684,2022-02-19_12h09.03.568,multiplicationStroop,2021.2.3,Win32,60.03121623,,,,,,,,,,,,,,,,,,,,,,,,,,,,,,,,,20,1.7485,1,0,18,18,13,1,4,×,5,4 × 5,incongruent,smallerFirst,2,1,20,,,,,,,,
,,,,,,,,,,,,,,,684,2022-02-19_12h09.03.568,multiplicationStroop,2021.2.3,Win32,60.03121623,,,,,,,,,,,,,,,,,,,,,,,,,,,,,,,,,28,2.595,1,0,19,19,2,1,4,×,7,4 × 7,incongruent,smallerFirst,2,1,28,,,,,,,,
,,,,,,,,,,,,,,,684,2022-02-19_12h09.03.568,multiplicationStroop,2021.2.3,Win32,60.03121623,,,,,,,,,,,,,,,,,,,,,,,,,,,,,,,,,64,6.6185,1,0,20,20,34,1,8,×,8,8 × 8,neutral,tie,2,1,64,,,,,,,,
,,,,,,,,,,,,,,,684,2022-02-19_12h09.03.568,multiplicationStroop,2021.2.3,Win32,60.03121623,,,,,,,,,,,,,,,,,,,,,,,,,,,,,,,,,24,3.012,1,0,21,21,23,1,8,×,3,8 × 3,incongruent,largerFirst,1,2,24,,,,,,,,
,,,,,,,,,,,,,,,684,2022-02-19_12h09.03.568,multiplicationStroop,2021.2.3,Win32,60.03121623,,,,,,,,,,,,,,,,,,,,,,,,,,,,,,,,,30,1.9145,1,0,22,22,11,1,5,×,6,5 × 6,incongruent,smallerFirst,2,1,30,,,,,,,,
,,,,,,,,,,,,,,,684,2022-02-19_12h09.03.568,multiplicationStroop,2021.2.3,Win32,60.03121623,,,,,,,,,,,,,,,,,,,,,,,,,,,,,,,,,14,1.6661,1,0,23,23,18,1,7,×,2,7 × 2,incongruent,largerFirst,1,2,14,,,,,,,,
,,,,,,,,,,,,,,,684,2022-02-19_12h09.03.568,multiplicationStroop,2021.2.3,Win32,60.03121623,,,,,,,,,,,,,,,,,,,,,,,,,,,,,,,,,18,2.6845,1,0,24,24,22,1,6,×,3,6 × 3,incongruent,largerFirst,1,2,18,,,,,,,,
,,,,,,,,,,,,,,,684,2022-02-19_12h09.03.568,multiplicationStroop,2021.2.3,Win32,60.03121623,,,,,,,,,,,,,,,,,,,,,,,,,,,,,,,,,10,1.6301,1,0,25,25,7,1,2,×,5,2 × 5,incongruent,smallerFirst,2,1,10,,,,,,,,
,,,,,,,,,,,,,,,684,2022-02-19_12h09.03.568,multiplicationStroop,2021.2.3,Win32,60.03121623,,,,,,,,,,,,,,,,,,,,,,,,,,,,,,,,,56,3.6809,0,0,26,26,20,1,9,×,6,9 × 6,incongruent,largerFirst,1,2,54,,,,,,,,
,,,,,,,,,,,,,,,684,2022-02-19_12h09.03.568,multiplicationStroop,2021.2.3,Win32,60.03121623,,,,,,,,,,,,,,,,,,,,,,,,,,,,,,,,,9,1.9828,1,0,27,27,29,1,3,×,3,3 × 3,neutral,tie,2,1,9,,,,,,,,
,,,,,,,,,,,,,,,684,2022-02-19_12h09.03.568,multiplicationStroop,2021.2.3,Win32,60.03121623,,,,,,,,,,,,,,,,,,,,,,,,,,,,,,,,,12,4.3316,1,0,28,28,5,1,2,×,6,2 × 6,incongruent,smallerFirst,2,1,12,,,,,,,,
,,,,,,,,,,,,,,,684,2022-02-19_12h09.03.568,multiplicationStroop,2021.2.3,Win32,60.03121623,,,,,,,,,,,,,,,,,,,,,,,,,,,,,,,,,4,3.4305,1,0,29,29,28,1,2,×,2,2 × 2,neutral,tie,2,1,4,,,,,,,,
,,,,,,,,,,,,,,,684,2022-02-19_12h09.03.568,multiplicationStroop,2021.2.3,Win32,60.03121623,,,,,,,,,,,,,,,,,,,,,,,,,,,,,,,,,18,1.8994,1,0,30,30,16,1,9,×,2,9 × 2,incongruent,largerFirst,1,2,18,,,,,,,,
,,,,,,,,,,,,,,,684,2022-02-19_12h09.03.568,multiplicationStroop,2021.2.3,Win32,60.03121623,,,,,,,,,,,,,,,,,,,,,,,,,,,,,,,,,12,1.4958,1,0,31,31,19,1,4,×,3,4 × 3,incongruent,largerFirst,1,2,12,,,,,,,,
,,,,,,,,,,,,,,,684,2022-02-19_12h09.03.568,multiplicationStroop,2021.2.3,Win32,60.03121623,,,,,,,,,,,,,,,,,,,,,,,,,,,,,,,,,27,4.1331,1,0,32,32,4,1,3,×,9,3 × 9,incongruent,smallerFirst,2,1,27,,,,,,,,
,,,,,,,,,,,,,,,684,2022-02-19_12h09.03.568,multiplicationStroop,2021.2.3,Win32,60.03121623,,,,,,,,,,,,,,,,,,,,,,,,,,,,,,,,,49,2.3658,1,0,33,33,33,1,7,×,7,7 × 7,neutral,tie,2,1,49,,,,,,,,
,,,,,,,,,,,,,,,684,2022-02-19_12h09.03.568,multiplicationStroop,2021.2.3,Win32,60.03121623,,,,,,,,,,,,,,,,,,,,,,,,,,,,,,,,,35,2.2479,1,0,34,34,26,1,7,×,5,7 × 5,incongruent,largerFirst,1,2,35,,,,,,,,
,,,,,,,,,,,,,,,684,2022-02-19_12h09.03.568,multiplicationStroop,2021.2.3,Win32,60.03121623,,,,,,,,,,,,,,,,,,,,,,,,,,,,,,,,,56,5.0639,1,0,35,35,0,1,7,×,8,7 × 8,incongruent,smallerFirst,2,1,56,,,,,,,,
,,,,,,,,,,,,,,,684,2022-02-19_12h09.03.568,multiplicationStroop,2021.2.3,Win32,60.03121623,,,,,,,,,,,,,,,,,,,,,,,,,,,,,,,,,,,,,,,,,,,,,,,,,,0,4,4,4,1,stimulusFile/mult_blk5_INcongruent.xlsx,,
,,,,,,,,,,,,,,,684,2022-02-19_12h09.03.568,multiplicationStroop,2021.2.3,Win32,60.03121623,,,,,,,,,,,,,,,,,,,,,,,,,,,,,,,space,1.2936,81,2.065,1,0,0,0,35,1,9,×,9,9 × 9,incongruent,tie,1,2,81,,,,,,,,
,,,,,,,,,,,,,,,684,2022-02-19_12h09.03.568,multiplicationStroop,2021.2.3,Win32,60.03121623,,,,,,,,,,,,,,,,,,,,,,,,,,,,,,,,,21,2.4115,1,0,1,1,26,1,7,×,3,7 × 3,incongruent,largerFirst,1,2,21,,,,,,,,
,,,,,,,,,,,,,,,684,2022-02-19_12h09.03.568,multiplicationStroop,2021.2.3,Win32,60.03121623,,,,,,,,,,,,,,,,,,,,,,,,,,,,,,,,,16,1.6673,1,0,2,2,30,1,4,×,4,4 × 4,incongruent,tie,1,2,16,,,,,,,,
,,,,,,,,,,,,,,,684,2022-02-19_12h09.03.568,multiplicationStroop,2021.2.3,Win32,60.03121623,,,,,,,,,,,,,,,,,,,,,,,,,,,,,,,,,48,3.297,1,0,3,3,1,1,6,×,8,6 × 8,incongruent,smallerFirst,2,1,48,,,,,,,,
,,,,,,,,,,,,,,,684,2022-02-19_12h09.03.568,multiplicationStroop,2021.2.3,Win32,60.03121623,,,,,,,,,,,,,,,,,,,,,,,,,,,,,,,,,42,3.1987,1,0,4,4,17,1,7,×,6,7 × 6,incongruent,largerFirst,1,2,42,,,,,,,,
,,,,,,,,,,,,,,,684,2022-02-19_12h09.03.568,multiplicationStroop,2021.2.3,Win32,60.03121623,,,,,,,,,,,,,,,,,,,,,,,,,,,,,,,,,45,2.483,1,0,5,5,22,1,9,×,5,9 × 5,incongruent,largerFirst,1,2,45,,,,,,,,
,,,,,,,,,,,,,,,684,2022-02-19_12h09.03.568,multiplicationStroop,2021.2.3,Win32,60.03121623,,,,,,,,,,,,,,,,,,,,,,,,,,,,,,,,,12,1.4981,1,0,6,6,5,1,3,×,4,3 × 4,incongruent,smallerFirst,2,1,12,,,,,,,,
,,,,,,,,,,,,,,,684,2022-02-19_12h09.03.568,multiplicationStroop,2021.2.3,Win32,60.03121623,,,,,,,,,,,,,,,,,,,,,,,,,,,,,,,,,24,2.8302,1,0,7,7,9,1,3,×,8,3 × 8,incongruent,smallerFirst,2,1,24,,,,,,,,
,,,,,,,,,,,,,,,684,2022-02-19_12h09.03.568,multiplicationStroop,2021.2.3,Win32,60.03121623,,,,,,,,,,,,,,,,,,,,,,,,,,,,,,,,,10,1.5826,1,0,8,8,21,1,5,×,2,5 × 2,incongruent,largerFirst,1,2,10,,,,,,,,
,,,,,,,,,,,,,,,684,2022-02-19_12h09.03.568,multiplicationStroop,2021.2.3,Win32,60.03121623,,,,,,,,,,,,,,,,,,,,,,,,,,,,,,,,,27,2.7818,1,0,9,9,18,1,9,×,3,9 × 3,incongruent,largerFirst,1,2,27,,,,,,,,
,,,,,,,,,,,,,,,684,2022-02-19_12h09.03.568,multiplicationStroop,2021.2.3,Win32,60.03121623,,,,,,,,,,,,,,,,,,,,,,,,,,,,,,,,,54,7.0143,1,0,10,10,6,1,6,×,9,6 × 9,incongruent,smallerFirst,2,1,54,,,,,,,,
,,,,,,,,,,,,,,,684,2022-02-19_12h09.03.568,multiplicationStroop,2021.2.3,Win32,60.03121623,,,,,,,,,,,,,,,,,,,,,,,,,,,,,,,,,18,2.0005,1,0,11,11,2,1,2,×,9,2 × 9,incongruent,smallerFirst,2,1,18,,,,,,,,
,,,,,,,,,,,,,,,684,2022-02-19_12h09.03.568,multiplicationStroop,2021.2.3,Win32,60.03121623,,,,,,,,,,,,,,,,,,,,,,,,,,,,,,,,,72,2.7461,1,0,12,12,0,1,8,×,9,8 × 9,incongruent,smallerFirst,2,1,72,,,,,,,,
,,,,,,,,,,,,,,,684,2022-02-19_12h09.03.568,multiplicationStroop,2021.2.3,Win32,60.03121623,,,,,,,,,,,,,,,,,,,,,,,,,,,,,,,,,30,1.9194,1,0,13,13,25,1,6,×,5,6 × 5,incongruent,largerFirst,1,2,30,,,,,,,,
,,,,,,,,,,,,,,,684,2022-02-19_12h09.03.568,multiplicationStroop,2021.2.3,Win32,60.03121623,,,,,,,,,,,,,,,,,,,,,,,,,,,,,,,,,4,1.3273,1,0,14,14,28,1,2,×,2,2 × 2,incongruent,tie,1,2,4,,,,,,,,
,,,,,,,,,,,,,,,684,2022-02-19_12h09.03.568,multiplicationStroop,2021.2.3,Win32,60.03121623,,,,,,,,,,,,,,,,,,,,,,,,,,,,,,,,,16,1.8316,1,0,15,15,23,1,8,×,2,8 × 2,incongruent,largerFirst,1,2,16,,,,,,,,
,,,,,,,,,,,,,,,684,2022-02-19_12h09.03.568,multiplicationStroop,2021.2.3,Win32,60.03121623,,,,,,,,,,,,,,,,,,,,,,,,,,,,,,,,,12,1.9149,1,0,16,16,19,1,6,×,2,6 × 2,incongruent,largerFirst,1,2,12,,,,,,,,
,,,,,,,,,,,,,,,684,2022-02-19_12h09.03.568,multiplicationStroop,2021.2.3,Win32,60.03121623,,,,,,,,,,,,,,,,,,,,,,,,,,,,,,,,,9,1.5979,1,0,17,17,29,1,3,×,3,3 × 3,incongruent,tie,1,2,9,,,,,,,,
,,,,,,,,,,,,,,,684,2022-02-19_12h09.03.568,multiplicationStroop,2021.2.3,Win32,60.03121623,,,,,,,,,,,,,,,,,,,,,,,,,,,,,,,,,20,1.9862,1,0,18,18,27,1,5,×,4,5 × 4,incongruent,largerFirst,1,2,20,,,,,,,,
,,,,,,,,,,,,,,,684,2022-02-19_12h09.03.568,multiplicationStroop,2021.2.3,Win32,60.03121623,,,,,,,,,,,,,,,,,,,,,,,,,,,,,,,,,35,1.8115,1,0,19,19,12,1,5,×,7,5 × 7,incongruent,smallerFirst,2,1,35,,,,,,,,
,,,,,,,,,,,,,,,684,2022-02-19_12h09.03.568,multiplicationStroop,2021.2.3,Win32,60.03121623,,,,,,,,,,,,,,,,,,,,,,,,,,,,,,,,,36,2.0009,1,0,20,20,32,1,6,×,6,6 × 6,incongruent,tie,1,2,36,,,,,,,,
,,,,,,,,,,,,,,,684,2022-02-19_12h09.03.568,multiplicationStroop,2021.2.3,Win32,60.03121623,,,,,,,,,,,,,,,,,,,,,,,,,,,,,,,,,15,4.0793,1,0,21,21,10,1,3,×,5,3 × 5,incongruent,smallerFirst,2,1,15,,,,,,,,
,,,,,,,,,,,,,,,684,2022-02-19_12h09.03.568,multiplicationStroop,2021.2.3,Win32,60.03121623,,,,,,,,,,,,,,,,,,,,,,,,,,,,,,,,,18,2.6861,1,0,22,22,8,1,3,×,6,3 × 6,incongruent,smallerFirst,2,1,18,,,,,,,,
,,,,,,,,,,,,,,,684,2022-02-19_12h09.03.568,multiplicationStroop,2021.2.3,Win32,60.03121623,,,,,,,,,,,,,,,,,,,,,,,,,,,,,,,,,56,7.4237,1,0,23,23,14,1,8,×,7,8 × 7,incongruent,largerFirst,1,2,56,,,,,,,,
,,,,,,,,,,,,,,,684,2022-02-19_12h09.03.568,multiplicationStroop,2021.2.3,Win32,60.03121623,,,,,,,,,,,,,,,,,,,,,,,,,,,,,,,,,49,3.1604,1,0,24,24,33,1,7,×,7,7 × 7,incongruent,tie,1,2,49,,,,,,,,
,,,,,,,,,,,,,,,684,2022-02-19_12h09.03.568,multiplicationStroop,2021.2.3,Win32,60.03121623,,,,,,,,,,,,,,,,,,,,,,,,,,,,,,,,,24,6.4989,1,0,25,25,20,1,6,×,4,6 × 4,incongruent,largerFirst,1,2,24,,,,,,,,
,,,,,,,,,,,,,,,684,2022-02-19_12h09.03.568,multiplicationStroop,2021.2.3,Win32,60.03121623,,,,,,,,,,,,,,,,,,,,,,,,,,,,,,,,,36,7.2965,1,0,26,26,15,1,9,×,4,9 × 4,incongruent,largerFirst,1,2,36,,,,,,,,
,,,,,,,,,,,,,,,684,2022-02-19_12h09.03.568,multiplicationStroop,2021.2.3,Win32,60.03121623,,,,,,,,,,,,,,,,,,,,,,,,,,,,,,,,,63,2.6307,1,0,27,27,3,1,7,×,9,7 × 9,incongruent,smallerFirst,2,1,63,,,,,,,,
,,,,,,,,,,,,,,,684,2022-02-19_12h09.03.568,multiplicationStroop,2021.2.3,Win32,60.03121623,,,,,,,,,,,,,,,,,,,,,,,,,,,,,,,,,32,7.8121,1,0,28,28,7,1,4,×,8,4 × 8,incongruent,smallerFirst,2,1,32,,,,,,,,
,,,,,,,,,,,,,,,684,2022-02-19_12h09.03.568,multiplicationStroop,2021.2.3,Win32,60.03121623,,,,,,,,,,,,,,,,,,,,,,,,,,,,,,,,,8,2.1856,1,0,29,29,24,1,4,×,2,4 × 2,incongruent,largerFirst,1,2,8,,,,,,,,
,,,,,,,,,,,,,,,684,2022-02-19_12h09.03.568,multiplicationStroop,2021.2.3,Win32,60.03121623,,,,,,,,,,,,,,,,,,,,,,,,,,,,,,,,,28,6.0775,1,0,30,30,16,1,7,×,4,7 × 4,incongruent,largerFirst,1,2,28,,,,,,,,
,,,,,,,,,,,,,,,684,2022-02-19_12h09.03.568,multiplicationStroop,2021.2.3,Win32,60.03121623,,,,,,,,,,,,,,,,,,,,,,,,,,,,,,,,,6,1.8002,1,0,31,31,11,1,2,×,3,2 × 3,incongruent,smallerFirst,2,1,6,,,,,,,,
,,,,,,,,,,,,,,,684,2022-02-19_12h09.03.568,multiplicationStroop,2021.2.3,Win32,60.03121623,,,,,,,,,,,,,,,,,,,,,,,,,,,,,,,,,40,2.0974,1,0,32,32,13,1,5,×,8,5 × 8,incongruent,smallerFirst,2,1,40,,,,,,,,
,,,,,,,,,,,,,,,684,2022-02-19_12h09.03.568,multiplicationStroop,2021.2.3,Win32,60.03121623,,,,,,,,,,,,,,,,,,,,,,,,,,,,,,,,,25,1.8146,1,0,33,33,31,1,5,×,5,5 × 5,incongruent,tie,1,2,25,,,,,,,,
,,,,,,,,,,,,,,,684,2022-02-19_12h09.03.568,multiplicationStroop,2021.2.3,Win32,60.03121623,,,,,,,,,,,,,,,,,,,,,,,,,,,,,,,,,64,5.9988,1,0,34,34,34,1,8,×,8,8 × 8,incongruent,tie,1,2,64,,,,,,,,
,,,,,,,,,,,,,,,684,2022-02-19_12h09.03.568,multiplicationStroop,2021.2.3,Win32,60.03121623,,,,,,,,,,,,,,,,,,,,,,,,,,,,,,,,,14,1.6664,1,0,35,35,4,1,2,×,7,2 × 7,incongruent,smallerFirst,2,1,14,,,,,,,,
,,,,,,,,,,,,,,,684,2022-02-19_12h09.03.568,multiplicationStroop,2021.2.3,Win32,60.03121623,,,,,,,,,,,,,,,,,,,,,,,,,,,,,,,,,,,,,,,,,,,,,,,,,,0,5,5,5,1,stimulusFile/mult_blk6_INcongruent.xlsx,,
,,,,,,,,,,,,,,,684,2022-02-19_12h09.03.568,multiplicationStroop,2021.2.3,Win32,60.03121623,,,,,,,,,,,,,,,,,,,,,,,,,,,,,,,,,,,,,,,,,,,,,,,,,,,,,,,,space,4.1664