welcomeKey_resp.keys,welcomeKey_resp.rt,X Scale,Y Scale,rt_resp_4.keys,rt_resp_4.corr,rt_resp_4.rt,speedtest_2.thisRepN,speedtest_2.thisTrialN,speedtest_2.thisN,speedtest_2.thisIndex,speedtest_2.ran,numberSc,posX,positionLayout,participant,date,expName,psychopyVersion,OS,frameRate,ct_instrresp.keys,ct_instrresp.rt,key_resp_2.keys,key_resp_2.rt,ct_keyResp.keys,ct_keyResp.corr,ct_keyResp.rt,trials.thisRepN,trials.thisTrialN,trials.thisN,trials.thisIndex,trials.ran,leftNo,rightNo,displayProblem,numDistance,leftNo_size,rightNo_size,Dims,keyAnswer,TS_Loop.thisRepN,TS_Loop.thisTrialN,TS_Loop.thisN,TS_Loop.thisIndex,TS_Loop.ran,Condition,ActionInst,instrImage,mltptaskInst_resp.keys,mltptaskInst_resp.rt,continue_resp_2.keys,continue_resp_2.rt,multp_Answer,multi_RT,multiplyCorr,LoopingMultiply.thisRepN,LoopingMultiply.thisTrialN,LoopingMultiply.thisN,LoopingMultiply.thisIndex,LoopingMultiply.ran,factor1,multiplySign,factor2,multliplyProblem,physicalSize,orderOperand,sizeF1,sizeF2,mult_answer,trials_stroop.thisRepN,trials_stroop.thisTrialN,trials_stroop.thisN,trials_stroop.thisIndex,trials_stroop.ran,multiplicationFile,esckey_resp_2.keys,esckey_resp_2.rt
y,4.3808,44.8,44.8,left,1,1.9498,0,0,0,6,1,8,-200,left,685,2022-02-08_13h12.25.900,multiplicationStroop,2021.2.3,Win32,60.90133983,,,,,,,,,,,,,,,,,,,,,,,,,,,,,,,,,,,,,,,,,,,,,,,,,,,,,,,,,
,,,,right,1,0.5236,0,1,1,11,1,4,200,right,685,2022-02-08_13h12.25.900,multiplicationStroop,2021.2.3,Win32,60.90133983,,,,,,,,,,,,,,,,,,,,,,,,,,,,,,,,,,,,,,,,,,,,,,,,,,,,,,,,,
,,,,left,1,1.1168,0,2,2,0,1,1,-200,left,685,2022-02-08_13h12.25.900,multiplicationStroop,2021.2.3,Win32,60.90133983,,,,,,,,,,,,,,,,,,,,,,,,,,,,,,,,,,,,,,,,,,,,,,,,,,,,,,,,,
,,,,left,1,0.7643,0,3,3,1,1,2,-200,left,685,2022-02-08_13h12.25.900,multiplicationStroop,2021.2.3,Win32,60.90133983,,,,,,,,,,,,,,,,,,,,,,,,,,,,,,,,,,,,,,,,,,,,,,,,,,,,,,,,,
,,,,right,1,0.3666,0,4,4,14,1,8,200,right,685,2022-02-08_13h12.25.900,multiplicationStroop,2021.2.3,Win32,60.90133983,,,,,,,,,,,,,,,,,,,,,,,,,,,,,,,,,,,,,,,,,,,,,,,,,,,,,,,,,
,,,,right,1,0.3703,0,5,5,8,1,1,200,right,685,2022-02-08_13h12.25.900,multiplicationStroop,2021.2.3,Win32,60.90133983,,,,,,,,,,,,,,,,,,,,,,,,,,,,,,,,,,,,,,,,,,,,,,,,,,,,,,,,,
,,,,left,1,0.3536,0,6,6,5,1,7,-200,left,685,2022-02-08_13h12.25.900,multiplicationStroop,2021.2.3,Win32,60.90133983,,,,,,,,,,,,,,,,,,,,,,,,,,,,,,,,,,,,,,,,,,,,,,,,,,,,,,,,,
,,,,right,1,0.2547,0,7,7,15,1,9,200,right,685,2022-02-08_13h12.25.900,multiplicationStroop,2021.2.3,Win32,60.90133983,,,,,,,,,,,,,,,,,,,,,,,,,,,,,,,,,,,,,,,,,,,,,,,,,,,,,,,,,
,,,,left,1,0.3183,0,8,8,2,1,3,-200,left,685,2022-02-08_13h12.25.900,multiplicationStroop,2021.2.3,Win32,60.90133983,,,,,,,,,,,,,,,,,,,,,,,,,,,,,,,,,,,,,,,,,,,,,,,,,,,,,,,,,
,,,,left,1,0.4228,0,9,9,3,1,4,-200,left,685,2022-02-08_13h12.25.900,multiplicationStroop,2021.2.3,Win32,60.90133983,,,,,,,,,,,,,,,,,,,,,,,,,,,,,,,,,,,,,,,,,,,,,,,,,,,,,,,,,
,,,,right,1,0.3029,0,10,10,10,1,3,200,right,685,2022-02-08_13h12.25.900,multiplicationStroop,2021.2.3,Win32,60.90133983,,,,,,,,,,,,,,,,,,,,,,,,,,,,,,,,,,,,,,,,,,,,,,,,,,,,,,,,,
,,,,left,1,0.3108,0,11,11,4,1,6,-200,left,685,2022-02-08_13h12.25.900,multiplicationStroop,2021.2.3,Win32,60.90133983,,,,,,,,,,,,,,,,,,,,,,,,,,,,,,,,,,,,,,,,,,,,,,,,,,,,,,,,,
,,,,right,1,0.2706,0,12,12,12,1,6,200,right,685,2022-02-08_13h12.25.900,multiplicationStroop,2021.2.3,Win32,60.90133983,,,,,,,,,,,,,,,,,,,,,,,,,,,,,,,,,,,,,,,,,,,,,,,,,,,,,,,,,
,,,,right,1,0.3666,0,13,13,13,1,7,200,right,685,2022-02-08_13h12.25.900,multiplicationStroop,2021.2.3,Win32,60.90133983,,,,,,,,,,,,,,,,,,,,,,,,,,,,,,,,,,,,,,,,,,,,,,,,,,,,,,,,,
,,,,left,1,0.3233,0,14,14,7,1,9,-200,left,685,2022-02-08_13h12.25.900,multiplicationStroop,2021.2.3,Win32,60.90133983,,,,,,,,,,,,,,,,,,,,,,,,,,,,,,,,,,,,,,,,,,,,,,,,,,,,,,,,,
,,,,right,1,0.2655,0,15,15,9,1,2,200,right,685,2022-02-08_13h12.25.900,multiplicationStroop,2021.2.3,Win32,60.90133983,,,,,,,,,,,,,,,,,,,,,,,,,,,,,,,,,,,,,,,,,,,,,,,,,,,,,,,,,
,,,,left,1,0.2633,1,0,16,6,1,8,-200,left,685,2022-02-08_13h12.25.900,multiplicationStroop,2021.2.3,Win32,60.90133983,,,,,,,,,,,,,,,,,,,,,,,,,,,,,,,,,,,,,,,,,,,,,,,,,,,,,,,,,
,,,,right,1,0.2535,1,1,17,11,1,4,200,right,685,2022-02-08_13h12.25.900,multiplicationStroop,2021.2.3,Win32,60.90133983,,,,,,,,,,,,,,,,,,,,,,,,,,,,,,,,,,,,,,,,,,,,,,,,,,,,,,,,,
,,,,left,1,0.2912,1,2,18,5,1,7,-200,left,685,2022-02-08_13h12.25.900,multiplicationStroop,2021.2.3,Win32,60.90133983,,,,,,,,,,,,,,,,,,,,,,,,,,,,,,,,,,,,,,,,,,,,,,,,,,,,,,,,,
,,,,right,1,0.2433,1,3,19,15,1,9,200,right,685,2022-02-08_13h12.25.900,multiplicationStroop,2021.2.3,Win32,60.90133983,,,,,,,,,,,,,,,,,,,,,,,,,,,,,,,,,,,,,,,,,,,,,,,,,,,,,,,,,
,,,,left,1,0.2497,1,4,20,1,1,2,-200,left,685,2022-02-08_13h12.25.900,multiplicationStroop,2021.2.3,Win32,60.90133983,,,,,,,,,,,,,,,,,,,,,,,,,,,,,,,,,,,,,,,,,,,,,,,,,,,,,,,,,
,,,,right,0,0.2156,1,5,21,7,1,9,-200,left,685,2022-02-08_13h12.25.900,multiplicationStroop,2021.2.3,Win32,60.90133983,,,,,,,,,,,,,,,,,,,,,,,,,,,,,,,,,,,,,,,,,,,,,,,,,,,,,,,,,
,,,,left,1,0.5672,1,6,22,3,1,4,-200,left,685,2022-02-08_13h12.25.900,multiplicationStroop,2021.2.3,Win32,60.90133983,,,,,,,,,,,,,,,,,,,,,,,,,,,,,,,,,,,,,,,,,,,,,,,,,,,,,,,,,
,,,,left,1,0.3672,1,7,23,4,1,6,-200,left,685,2022-02-08_13h12.25.900,multiplicationStroop,2021.2.3,Win32,60.90133983,,,,,,,,,,,,,,,,,,,,,,,,,,,,,,,,,,,,,,,,,,,,,,,,,,,,,,,,,
,,,,right,1,0.3744,1,8,24,12,1,6,200,right,685,2022-02-08_13h12.25.900,multiplicationStroop,2021.2.3,Win32,60.90133983,,,,,,,,,,,,,,,,,,,,,,,,,,,,,,,,,,,,,,,,,,,,,,,,,,,,,,,,,
,,,,right,1,0.3567,1,9,25,13,1,7,200,right,685,2022-02-08_13h12.25.900,multiplicationStroop,2021.2.3,Win32,60.90133983,,,,,,,,,,,,,,,,,,,,,,,,,,,,,,,,,,,,,,,,,,,,,,,,,,,,,,,,,
,,,,right,1,0.4479,1,10,26,14,1,8,200,right,685,2022-02-08_13h12.25.900,multiplicationStroop,2021.2.3,Win32,60.90133983,,,,,,,,,,,,,,,,,,,,,,,,,,,,,,,,,,,,,,,,,,,,,,,,,,,,,,,,,
,,,,right,1,0.4874,1,11,27,8,1,1,200,right,685,2022-02-08_13h12.25.900,multiplicationStroop,2021.2.3,Win32,60.90133983,,,,,,,,,,,,,,,,,,,,,,,,,,,,,,,,,,,,,,,,,,,,,,,,,,,,,,,,,
,,,,left,1,0.3487,1,12,28,0,1,1,-200,left,685,2022-02-08_13h12.25.900,multiplicationStroop,2021.2.3,Win32,60.90133983,,,,,,,,,,,,,,,,,,,,,,,,,,,,,,,,,,,,,,,,,,,,,,,,,,,,,,,,,
,,,,right,1,0.2673,1,13,29,10,1,3,200,right,685,2022-02-08_13h12.25.900,multiplicationStroop,2021.2.3,Win32,60.90133983,,,,,,,,,,,,,,,,,,,,,,,,,,,,,,,,,,,,,,,,,,,,,,,,,,,,,,,,,
,,,,left,1,0.3063,1,14,30,2,1,3,-200,left,685,2022-02-08_13h12.25.900,multiplicationStroop,2021.2.3,Win32,60.90133983,,,,,,,,,,,,,,,,,,,,,,,,,,,,,,,,,,,,,,,,,,,,,,,,,,,,,,,,,
,,,,right,1,0.2993,1,15,31,9,1,2,200,right,685,2022-02-08_13h12.25.900,multiplicationStroop,2021.2.3,Win32,60.90133983,,,,,,,,,,,,,,,,,,,,,,,,,,,,,,,,,,,,,,,,,,,,,,,,,,,,,,,,,
,,,,left,1,0.2232,2,0,32,5,1,7,-200,left,685,2022-02-08_13h12.25.900,multiplicationStroop,2021.2.3,Win32,60.90133983,,,,,,,,,,,,,,,,,,,,,,,,,,,,,,,,,,,,,,,,,,,,,,,,,,,,,,,,,
,,,,right,1,0.2517,2,1,33,12,1,6,200,right,685,2022-02-08_13h12.25.900,multiplicationStroop,2021.2.3,Win32,60.90133983,,,,,,,,,,,,,,,,,,,,,,,,,,,,,,,,,,,,,,,,,,,,,,,,,,,,,,,,,
,,,,left,1,0.3118,2,2,34,1,1,2,-200,left,685,2022-02-08_13h12.25.900,multiplicationStroop,2021.2.3,Win32,60.90133983,,,,,,,,,,,,,,,,,,,,,,,,,,,,,,,,,,,,,,,,,,,,,,,,,,,,,,,,,
,,,,right,1,0.2429,2,3,35,14,1,8,200,right,685,2022-02-08_13h12.25.900,multiplicationStroop,2021.2.3,Win32,60.90133983,,,,,,,,,,,,,,,,,,,,,,,,,,,,,,,,,,,,,,,,,,,,,,,,,,,,,,,,,
,,,,left,1,0.2884,2,4,36,4,1,6,-200,left,685,2022-02-08_13h12.25.900,multiplicationStroop,2021.2.3,Win32,60.90133983,,,,,,,,,,,,,,,,,,,,,,,,,,,,,,,,,,,,,,,,,,,,,,,,,,,,,,,,,
,,,,right,1,0.2652,2,5,37,10,1,3,200,right,685,2022-02-08_13h12.25.900,multiplicationStroop,2021.2.3,Win32,60.90133983,,,,,,,,,,,,,,,,,,,,,,,,,,,,,,,,,,,,,,,,,,,,,,,,,,,,,,,,,
,,,,right,1,0.5001,2,6,38,8,1,1,200,right,685,2022-02-08_13h12.25.900,multiplicationStroop,2021.2.3,Win32,60.90133983,,,,,,,,,,,,,,,,,,,,,,,,,,,,,,,,,,,,,,,,,,,,,,,,,,,,,,,,,
,,,,left,1,0.335,2,7,39,2,1,3,-200,left,685,2022-02-08_13h12.25.900,multiplicationStroop,2021.2.3,Win32,60.90133983,,,,,,,,,,,,,,,,,,,,,,,,,,,,,,,,,,,,,,,,,,,,,,,,,,,,,,,,,
,,,,left,1,0.4668,2,8,40,6,1,8,-200,left,685,2022-02-08_13h12.25.900,multiplicationStroop,2021.2.3,Win32,60.90133983,,,,,,,,,,,,,,,,,,,,,,,,,,,,,,,,,,,,,,,,,,,,,,,,,,,,,,,,,
,,,,left,1,0.3122,2,9,41,0,1,1,-200,left,685,2022-02-08_13h12.25.900,multiplicationStroop,2021.2.3,Win32,60.90133983,,,,,,,,,,,,,,,,,,,,,,,,,,,,,,,,,,,,,,,,,,,,,,,,,,,,,,,,,
,,,,right,1,0.3103,2,10,42,9,1,2,200,right,685,2022-02-08_13h12.25.900,multiplicationStroop,2021.2.3,Win32,60.90133983,,,,,,,,,,,,,,,,,,,,,,,,,,,,,,,,,,,,,,,,,,,,,,,,,,,,,,,,,
,,,,right,1,0.361,2,11,43,11,1,4,200,right,685,2022-02-08_13h12.25.900,multiplicationStroop,2021.2.3,Win32,60.90133983,,,,,,,,,,,,,,,,,,,,,,,,,,,,,,,,,,,,,,,,,,,,,,,,,,,,,,,,,
,,,,right,1,0.2655,2,12,44,15,1,9,200,right,685,2022-02-08_13h12.25.900,multiplicationStroop,2021.2.3,Win32,60.90133983,,,,,,,,,,,,,,,,,,,,,,,,,,,,,,,,,,,,,,,,,,,,,,,,,,,,,,,,,
,,,,right,1,0.3058,2,13,45,13,1,7,200,right,685,2022-02-08_13h12.25.900,multiplicationStroop,2021.2.3,Win32,60.90133983,,,,,,,,,,,,,,,,,,,,,,,,,,,,,,,,,,,,,,,,,,,,,,,,,,,,,,,,,
,,,,left,1,0.3885,2,14,46,3,1,4,-200,left,685,2022-02-08_13h12.25.900,multiplicationStroop,2021.2.3,Win32,60.90133983,,,,,,,,,,,,,,,,,,,,,,,,,,,,,,,,,,,,,,,,,,,,,,,,,,,,,,,,,
,,,,left,1,0.3562,2,15,47,7,1,9,-200,left,685,2022-02-08_13h12.25.900,multiplicationStroop,2021.2.3,Win32,60.90133983,,,,,,,,,,,,,,,,,,,,,,,,,,,,,,,,,,,,,,,,,,,,,,,,,,,,,,,,,
,,,,right,1,0.3322,3,0,48,9,1,2,200,right,685,2022-02-08_13h12.25.900,multiplicationStroop,2021.2.3,Win32,60.90133983,,,,,,,,,,,,,,,,,,,,,,,,,,,,,,,,,,,,,,,,,,,,,,,,,,,,,,,,,
,,,,right,1,0.2999,3,1,49,15,1,9,200,right,685,2022-02-08_13h12.25.900,multiplicationStroop,2021.2.3,Win32,60.90133983,,,,,,,,,,,,,,,,,,,,,,,,,,,,,,,,,,,,,,,,,,,,,,,,,,,,,,,,,
,,,,left,1,0.364,3,2,50,5,1,7,-200,left,685,2022-02-08_13h12.25.900,multiplicationStroop,2021.2.3,Win32,60.90133983,,,,,,,,,,,,,,,,,,,,,,,,,,,,,,,,,,,,,,,,,,,,,,,,,,,,,,,,,
,,,,left,1,0.3774,3,3,51,1,1,2,-200,left,685,2022-02-08_13h12.25.900,multiplicationStroop,2021.2.3,Win32,60.90133983,,,,,,,,,,,,,,,,,,,,,,,,,,,,,,,,,,,,,,,,,,,,,,,,,,,,,,,,,
,,,,left,1,0.3533,3,4,52,0,1,1,-200,left,685,2022-02-08_13h12.25.900,multiplicationStroop,2021.2.3,Win32,60.90133983,,,,,,,,,,,,,,,,,,,,,,,,,,,,,,,,,,,,,,,,,,,,,,,,,,,,,,,,,
,,,,left,1,0.3666,3,5,53,7,1,9,-200,left,685,2022-02-08_13h12.25.900,multiplicationStroop,2021.2.3,Win32,60.90133983,,,,,,,,,,,,,,,,,,,,,,,,,,,,,,,,,,,,,,,,,,,,,,,,,,,,,,,,,
,,,,left,1,0.31,3,6,54,6,1,8,-200,left,685,2022-02-08_13h12.25.900,multiplicationStroop,2021.2.3,Win32,60.90133983,,,,,,,,,,,,,,,,,,,,,,,,,,,,,,,,,,,,,,,,,,,,,,,,,,,,,,,,,
,,,,right,1,0.3073,3,7,55,11,1,4,200,right,685,2022-02-08_13h12.25.900,multiplicationStroop,2021.2.3,Win32,60.90133983,,,,,,,,,,,,,,,,,,,,,,,,,,,,,,,,,,,,,,,,,,,,,,,,,,,,,,,,,
,,,,right,1,0.3412,3,8,56,10,1,3,200,right,685,2022-02-08_13h12.25.900,multiplicationStroop,2021.2.3,Win32,60.90133983,,,,,,,,,,,,,,,,,,,,,,,,,,,,,,,,,,,,,,,,,,,,,,,,,,,,,,,,,
,,,,left,1,0.4073,3,9,57,3,1,4,-200,left,685,2022-02-08_13h12.25.900,multiplicationStroop,2021.2.3,Win32,60.90133983,,,,,,,,,,,,,,,,,,,,,,,,,,,,,,,,,,,,,,,,,,,,,,,,,,,,,,,,,
,,,,left,1,0.3147,3,10,58,4,1,6,-200,left,685,2022-02-08_13h12.25.900,multiplicationStroop,2021.2.3,Win32,60.90133983,,,,,,,,,,,,,,,,,,,,,,,,,,,,,,,,,,,,,,,,,,,,,,,,,,,,,,,,,
,,,,right,1,0.3884,3,11,59,13,1,7,200,right,685,2022-02-08_13h12.25.900,multiplicationStroop,2021.2.3,Win32,60.90133983,,,,,,,,,,,,,,,,,,,,,,,,,,,,,,,,,,,,,,,,,,,,,,,,,,,,,,,,,
,,,,right,1,0.2856,3,12,60,12,1,6,200,right,685,2022-02-08_13h12.25.900,multiplicationStroop,2021.2.3,Win32,60.90133983,,,,,,,,,,,,,,,,,,,,,,,,,,,,,,,,,,,,,,,,,,,,,,,,,,,,,,,,,
,,,,right,1,0.3152,3,13,61,14,1,8,200,right,685,2022-02-08_13h12.25.900,multiplicationStroop,2021.2.3,Win32,60.90133983,,,,,,,,,,,,,,,,,,,,,,,,,,,,,,,,,,,,,,,,,,,,,,,,,,,,,,,,,
,,,,left,1,0.354,3,14,62,2,1,3,-200,left,685,2022-02-08_13h12.25.900,multiplicationStroop,2021.2.3,Win32,60.90133983,,,,,,,,,,,,,,,,,,,,,,,,,,,,,,,,,,,,,,,,,,,,,,,,,,,,,,,,,
,,,,right,1,0.3195,3,15,63,8,1,1,200,right,685,2022-02-08_13h12.25.900,multiplicationStroop,2021.2.3,Win32,60.90133983,,,,,,,,,,,,,,,,,,,,,,,,,,,,,,,,,,,,,,,,,,,,,,,,,,,,,,,,,
,,,,,,,,,,,,,,,685,2022-02-08_13h12.25.900,multiplicationStroop,2021.2.3,Win32,60.90133983,space,5.0109,space,1.9213,left,1,1.2992,0,0,0,49,1,3,3,3 | 3,0,1.9756,1.4111,neutral,left,,,,,,stimulusFile/physical.xlsx,,,,,,,,,,,,,,,,,,,,,,,,,,,,,,,
,,,,,,,,,,,,,,,685,2022-02-08_13h12.25.900,multiplicationStroop,2021.2.3,Win32,60.90133983,,,,,left,1,0.52,0,1,1,35,1,7,9,7 | 9,2,1.9756,1.4111,incongruent,left,,,,,,stimulusFile/physical.xlsx,,,,,,,,,,,,,,,,,,,,,,,,,,,,,,,
,,,,,,,,,,,,,,,685,2022-02-08_13h12.25.900,multiplicationStroop,2021.2.3,Win32,60.90133983,,,,,left,1,0.7792,0,2,2,68,1,6,6,6 | 6,0,1.9756,1.4111,neutral,left,,,,,,stimulusFile/physical.xlsx,,,,,,,,,,,,,,,,,,,,,,,,,,,,,,,
,,,,,,,,,,,,,,,685,2022-02-08_13h12.25.900,multiplicationStroop,2021.2.3,Win32,60.90133983,,,,,left,1,0.9394,0,3,3,22,1,8,3,8 | 3,5,1.9756,1.4111,congruent,left,,,,,,stimulusFile/physical.xlsx,,,,,,,,,,,,,,,,,,,,,,,,,,,,,,,
,,,,,,,,,,,,,,,685,2022-02-08_13h12.25.900,multiplicationStroop,2021.2.3,Win32,60.90133983,,,,,left,1,1.0262,0,4,4,40,1,1,6,1 | 6,5,1.9756,1.4111,incongruent,left,,,,,,stimulusFile/physical.xlsx,,,,,,,,,,,,,,,,,,,,,,,,,,,,,,,
,,,,,,,,,,,,,,,685,2022-02-08_13h12.25.900,multiplicationStroop,2021.2.3,Win32,60.90133983,,,,,left,0,1.1121,0,5,5,66,1,3,3,3 | 3,0,1.9756,1.4111,neutral,right,,,,,,stimulusFile/physical.xlsx,,,,,,,,,,,,,,,,,,,,,,,,,,,,,,,
,,,,,,,,,,,,,,,685,2022-02-08_13h12.25.900,multiplicationStroop,2021.2.3,Win32,60.90133983,,,,,right,1,0.7645,0,6,6,47,1,9,4,9 | 4,5,1.4111,1.9756,incongruent,right,,,,,,stimulusFile/physical.xlsx,,,,,,,,,,,,,,,,,,,,,,,,,,,,,,,
,,,,,,,,,,,,,,,685,2022-02-08_13h12.25.900,multiplicationStroop,2021.2.3,Win32,60.90133983,,,,,right,0,0.5212,0,7,7,71,1,9,9,9 | 9,0,1.4111,1.9756,neutral,left,,,,,,stimulusFile/physical.xlsx,,,,,,,,,,,,,,,,,,,,,,,,,,,,,,,
,,,,,,,,,,,,,,,685,2022-02-08_13h12.25.900,multiplicationStroop,2021.2.3,Win32,60.90133983,,,,,left,1,0.4751,0,8,8,48,1,1,1,1 | 1,0,1.9756,1.4111,neutral,left,,,,,,stimulusFile/physical.xlsx,,,,,,,,,,,,,,,,,,,,,,,,,,,,,,,
,,,,,,,,,,,,,,,685,2022-02-08_13h12.25.900,multiplicationStroop,2021.2.3,Win32,60.90133983,,,,,left,1,0.5425,0,9,9,70,1,8,8,8 | 8,0,1.9756,1.4111,neutral,left,,,,,,stimulusFile/physical.xlsx,,,,,,,,,,,,,,,,,,,,,,,,,,,,,,,
,,,,,,,,,,,,,,,685,2022-02-08_13h12.25.900,multiplicationStroop,2021.2.3,Win32,60.90133983,,,,,left,1,0.6108,0,10,10,7,1,9,8,9 | 8,1,1.9756,1.4111,congruent,left,,,,,,stimulusFile/physical.xlsx,,,,,,,,,,,,,,,,,,,,,,,,,,,,,,,
,,,,,,,,,,,,,,,685,2022-02-08_13h12.25.900,multiplicationStroop,2021.2.3,Win32,60.90133983,,,,,left,1,0.5079,0,11,11,13,1,4,2,4 | 2,2,1.9756,1.4111,congruent,left,,,,,,stimulusFile/physical.xlsx,,,,,,,,,,,,,,,,,,,,,,,,,,,,,,,
,,,,,,,,,,,,,,,685,2022-02-08_13h12.25.900,multiplicationStroop,2021.2.3,Win32,60.90133983,,,,,right,1,0.548,0,12,12,11,1,7,9,7 | 9,2,1.4111,1.9756,congruent,right,,,,,,stimulusFile/physical.xlsx,,,,,,,,,,,,,,,,,,,,,,,,,,,,,,,
,,,,,,,,,,,,,,,685,2022-02-08_13h12.25.900,multiplicationStroop,2021.2.3,Win32,60.90133983,,,,,right,1,0.5763,0,13,13,65,1,2,2,2 | 2,0,1.4111,1.9756,neutral,right,,,,,,stimulusFile/physical.xlsx,,,,,,,,,,,,,,,,,,,,,,,,,,,,,,,
,,,,,,,,,,,,,,,685,2022-02-08_13h12.25.900,multiplicationStroop,2021.2.3,Win32,60.90133983,,,,,right,1,0.4405,0,14,14,17,1,2,7,2 | 7,5,1.4111,1.9756,congruent,right,,,,,,stimulusFile/physical.xlsx,,,,,,,,,,,,,,,,,,,,,,,,,,,,,,,
,,,,,,,,,,,,,,,685,2022-02-08_13h12.25.900,multiplicationStroop,2021.2.3,Win32,60.90133983,,,,,right,0,0.5321,0,15,15,69,1,7,7,7 | 7,0,1.4111,1.9756,neutral,left,,,,,,stimulusFile/physical.xlsx,,,,,,,,,,,,,,,,,,,,,,,,,,,,,,,
,,,,,,,,,,,,,,,685,2022-02-08_13h12.25.900,multiplicationStroop,2021.2.3,Win32,60.90133983,,,,,left,1,0.5667,0,16,16,54,1,7,7,7 | 7,0,1.9756,1.4111,neutral,left,,,,,,stimulusFile/physical.xlsx,,,,,,,,,,,,,,,,,,,,,,,,,,,,,,,
,,,,,,,,,,,,,,,685,2022-02-08_13h12.25.900,multiplicationStroop,2021.2.3,Win32,60.90133983,,,,,right,1,1.3095,0,17,17,8,1,1,3,1 | 3,2,1.4111,1.9756,congruent,right,,,,,,stimulusFile/physical.xlsx,,,,,,,,,,,,,,,,,,,,,,,,,,,,,,,
,,,,,,,,,,,,,,,685,2022-02-08_13h12.25.900,multiplicationStroop,2021.2.3,Win32,60.90133983,,,,,left,0,0.5379,0,18,18,64,1,1,1,1 | 1,0,1.9756,1.4111,neutral,right,,,,,,stimulusFile/physical.xlsx,,,,,,,,,,,,,,,,,,,,,,,,,,,,,,,
,,,,,,,,,,,,,,,685,2022-02-08_13h12.25.900,multiplicationStroop,2021.2.3,Win32,60.90133983,,,,,right,1,0.416,0,19,19,3,1,8,9,8 | 9,1,1.4111,1.9756,congruent,right,,,,,,stimulusFile/physical.xlsx,,,,,,,,,,,,,,,,,,,,,,,,,,,,,,,
,,,,,,,,,,,,,,,685,2022-02-08_13h12.25.900,multiplicationStroop,2021.2.3,Win32,60.90133983,,,,,left,1,0.5326,0,20,20,32,1,1,3,1 | 3,2,1.9756,1.4111,incongruent,left,,,,,,stimulusFile/physical.xlsx,,,,,,,,,,,,,,,,,,,,,,,,,,,,,,,
,,,,,,,,,,,,,,,685,2022-02-08_13h12.25.900,multiplicationStroop,2021.2.3,Win32,60.90133983,,,,,right,1,0.4862,0,21,21,30,1,7,6,7 | 6,1,1.4111,1.9756,incongruent,right,,,,,,stimulusFile/physical.xlsx,,,,,,,,,,,,,,,,,,,,,,,,,,,,,,,
,,,,,,,,,,,,,,,685,2022-02-08_13h12.25.900,multiplicationStroop,2021.2.3,Win32,60.90133983,,,,,left,1,0.5814,0,22,22,50,1,6,6,6 | 6,0,1.9756,1.4111,neutral,left,,,,,,stimulusFile/physical.xlsx,,,,,,,,,,,,,,,,,,,,,,,,,,,,,,,
,,,,,,,,,,,,,,,685,2022-02-08_13h12.25.900,multiplicationStroop,2021.2.3,Win32,60.90133983,,,,,left,1,0.5746,0,23,23,4,1,2,1,2 | 1,1,1.9756,1.4111,congruent,left,,,,,,stimulusFile/physical.xlsx,,,,,,,,,,,,,,,,,,,,,,,,,,,,,,,
,,,,,,,,,,,,,,,685,2022-02-08_13h12.25.900,multiplicationStroop,2021.2.3,Win32,60.90133983,,,,,left,1,1.0597,0,24,24,12,1,3,1,3 | 1,2,1.9756,1.4111,congruent,left,,,,,,stimulusFile/physical.xlsx,,,,,,,,,,,,,,,,,,,,,,,,,,,,,,,
,,,,,,,,,,,,,,,685,2022-02-08_13h12.25.900,multiplicationStroop,2021.2.3,Win32,60.90133983,,,,,right,1,0.6275,0,25,25,36,1,3,1,3 | 1,2,1.4111,1.9756,incongruent,right,,,,,,stimulusFile/physical.xlsx,,,,,,,,,,,,,,,,,,,,,,,,,,,,,,,
,,,,,,,,,,,,,,,685,2022-02-08_13h12.25.900,multiplicationStroop,2021.2.3,Win32,60.90133983,,,,,left,1,0.4949,0,26,26,52,1,2,2,2 | 2,0,1.9756,1.4111,neutral,left,,,,,,stimulusFile/physical.xlsx,,,,,,,,,,,,,,,,,,,,,,,,,,,,,,,
,,,,,,,,,,,,,,,685,2022-02-08_13h12.25.900,multiplicationStroop,2021.2.3,Win32,60.90133983,,,,,right,1,0.4736,0,27,27,60,1,3,3,3 | 3,0,1.4111,1.9756,neutral,right,,,,,,stimulusFile/physical.xlsx,,,,,,,,,,,,,,,,,,,,,,,,,,,,,,,
,,,,,,,,,,,,,,,685,2022-02-08_13h12.25.900,multiplicationStroop,2021.2.3,Win32,60.90133983,,,,,left,1,0.4973,0,28,28,14,1,8,6,8 | 6,2,1.9756,1.4111,congruent,left,,,,,,stimulusFile/physical.xlsx,,,,,,,,,,,,,,,,,,,,,,,,,,,,,,,
,,,,,,,,,,,,,,,685,2022-02-08_13h12.25.900,multiplicationStroop,2021.2.3,Win32,60.90133983,,,,,right,1,0.6711,0,29,29,63,1,9,9,9 | 9,0,1.4111,1.9756,neutral,right,,,,,,stimulusFile/physical.xlsx,,,,,,,,,,,,,,,,,,,,,,,,,,,,,,,
,,,,,,,,,,,,,,,685,2022-02-08_13h12.25.900,multiplicationStroop,2021.2.3,Win32,60.90133983,,,,,left,1,0.4236,0,30,30,34,1,6,8,6 | 8,2,1.9756,1.4111,incongruent,left,,,,,,stimulusFile/physical.xlsx,,,,,,,,,,,,,,,,,,,,,,,,,,,,,,,
,,,,,,,,,,,,,,,685,2022-02-08_13h12.25.900,multiplicationStroop,2021.2.3,Win32,60.90133983,,,,,right,1,0.5145,0,31,31,59,1,7,7,7 | 7,0,1.4111,1.9756,neutral,right,,,,,,stimulusFile/physical.xlsx,,,,,,,,,,,,,,,,,,,,,,,,,,,,,,,
,,,,,,,,,,,,,,,685,2022-02-08_13h12.25.900,multiplicationStroop,2021.2.3,Win32,60.90133983,,,,,left,1,0.4736,0,32,32,42,1,3,8,3 | 8,5,1.9756,1.4111,incongruent,left,,,,,,stimulusFile/physical.xlsx,,,,,,,,,,,,,,,,,,,,,,,,,,,,,,,
,,,,,,,,,,,,,,,685,2022-02-08_13h12.25.900,multiplicationStroop,2021.2.3,Win32,60.90133983,,,,,right,1,0.5341,0,33,33,56,1,1,1,1 | 1,0,1.4111,1.9756,neutral,right,,,,,,stimulusFile/physical.xlsx,,,,,,,,,,,,,,,,,,,,,,,,,,,,,,,
,,,,,,,,,,,,,,,685,2022-02-08_13h12.25.900,multiplicationStroop,2021.2.3,Win32,60.90133983,,,,,left,1,0.5056,0,34,34,41,1,2,7,2 | 7,5,1.9756,1.4111,incongruent,left,,,,,,stimulusFile/physical.xlsx,,,,,,,,,,,,,,,,,,,,,,,,,,,,,,,
,,,,,,,,,,,,,,,685,2022-02-08_13h12.25.900,multiplicationStroop,2021.2.3,Win32,60.90133983,,,,,right,1,0.4265,0,35,35,1,1,3,4,3 | 4,1,1.4111,1.9756,congruent,right,,,,,,stimulusFile/physical.xlsx,,,,,,,,,,,,,,,,,,,,,,,,,,,,,,,
,,,,,,,,,,,,,,,685,2022-02-08_13h12.25.900,multiplicationStroop,2021.2.3,Win32,60.90133983,,,,,left,1,0.5822,0,36,36,53,1,4,4,4 | 4,0,1.9756,1.4111,neutral,left,,,,,,stimulusFile/physical.xlsx,,,,,,,,,,,,,,,,,,,,,,,,,,,,,,,
,,,,,,,,,,,,,,,685,2022-02-08_13h12.25.900,multiplicationStroop,2021.2.3,Win32,60.90133983,,,,,right,1,0.4398,0,37,37,38,1,8,6,8 | 6,2,1.4111,1.9756,incongruent,right,,,,,,stimulusFile/physical.xlsx,,,,,,,,,,,,,,,,,,,,,,,,,,,,,,,
,,,,,,,,,,,,,,,685,2022-02-08_13h12.25.900,multiplicationStroop,2021.2.3,Win32,60.90133983,,,,,right,1,0.5724,0,38,38,37,1,4,2,4 | 2,2,1.4111,1.9756,incongruent,right,,,,,,stimulusFile/physical.xlsx,,,,,,,,,,,,,,,,,,,,,,,,,,,,,,,
,,,,,,,,,,,,,,,685,2022-02-08_13h12.25.900,multiplicationStroop,2021.2.3,Win32,60.90133983,,,,,left,1,0.4481,0,39,39,20,1,6,1,6 | 1,5,1.9756,1.4111,congruent,left,,,,,,stimulusFile/physical.xlsx,,,,,,,,,,,,,,,,,,,,,,,,,,,,,,,
,,,,,,,,,,,,,,,685,2022-02-08_13h12.25.900,multiplicationStroop,2021.2.3,Win32,60.90133983,,,,,right,1,0.4373,0,40,40,31,1,9,8,9 | 8,1,1.4111,1.9756,incongruent,right,,,,,,stimulusFile/physical.xlsx,,,,,,,,,,,,,,,,,,,,,,,,,,,,,,,
,,,,,,,,,,,,,,,685,2022-02-08_13h12.25.900,multiplicationStroop,2021.2.3,Win32,60.90133983,,,,,right,1,0.6145,0,41,41,9,1,2,4,2 | 4,2,1.4111,1.9756,congruent,right,,,,,,stimulusFile/physical.xlsx,,,,,,,,,,,,,,,,,,,,,,,,,,,,,,,
,,,,,,,,,,,,,,,685,2022-02-08_13h12.25.900,multiplicationStroop,2021.2.3,Win32,60.90133983,,,,,right,1,0.5143,0,42,42,19,1,4,9,4 | 9,5,1.4111,1.9756,congruent,right,,,,,,stimulusFile/physical.xlsx,,,,,,,,,,,,,,,,,,,,,,,,,,,,,,,
,,,,,,,,,,,,,,,685,2022-02-08_13h12.25.900,multiplicationStroop,2021.2.3,Win32,60.90133983,,,,,left,1,0.4256,0,43,43,33,1,2,4,2 | 4,2,1.9756,1.4111,incongruent,left,,,,,,stimulusFile/physical.xlsx,,,,,,,,,,,,,,,,,,,,,,,,,,,,,,,
,,,,,,,,,,,,,,,685,2022-02-08_13h12.25.900,multiplicationStroop,2021.2.3,Win32,60.90133983,,,,,left,1,0.4935,0,44,44,21,1,7,2,7 | 2,5,1.9756,1.4111,congruent,left,,,,,,stimulusFile/physical.xlsx,,,,,,,,,,,,,,,,,,,,,,,,,,,,,,,
,,,,,,,,,,,,,,,685,2022-02-08_13h12.25.900,multiplicationStroop,2021.2.3,Win32,60.90133983,,,,,right,1,0.5153,0,45,45,16,1,1,6,1 | 6,5,1.4111,1.9756,congruent,right,,,,,,stimulusFile/physical.xlsx,,,,,,,,,,,,,,,,,,,,,,,,,,,,,,,
,,,,,,,,,,,,,,,685,2022-02-08_13h12.25.900,multiplicationStroop,2021.2.3,Win32,60.90133983,,,,,right,1,0.6548,0,46,46,0,1,1,2,1 | 2,1,1.4111,1.9756,congruent,right,,,,,,stimulusFile/physical.xlsx,,,,,,,,,,,,,,,,,,,,,,,,,,,,,,,
,,,,,,,,,,,,,,,685,2022-02-08_13h12.25.900,multiplicationStroop,2021.2.3,Win32,60.90133983,,,,,left,1,0.4281,0,47,47,15,1,9,7,9 | 7,2,1.9756,1.4111,congruent,left,,,,,,stimulusFile/physical.xlsx,,,,,,,,,,,,,,,,,,,,,,,,,,,,,,,
,,,,,,,,,,,,,,,685,2022-02-08_13h12.25.900,multiplicationStroop,2021.2.3,Win32,60.90133983,,,,,right,0,0.4044,0,48,48,5,1,4,3,4 | 3,1,1.9756,1.4111,congruent,left,,,,,,stimulusFile/physical.xlsx,,,,,,,,,,,,,,,,,,,,,,,,,,,,,,,
,,,,,,,,,,,,,,,685,2022-02-08_13h12.25.900,multiplicationStroop,2021.2.3,Win32,60.90133983,,,,,right,1,0.5998,0,49,49,61,1,4,4,4 | 4,0,1.4111,1.9756,neutral,right,,,,,,stimulusFile/physical.xlsx,,,,,,,,,,,,,,,,,,,,,,,,,,,,,,,
,,,,,,,,,,,,,,,685,2022-02-08_13h12.25.900,multiplicationStroop,2021.2.3,Win32,60.90133983,,,,,left,1,0.5241,0,50,50,27,1,8,9,8 | 9,1,1.9756,1.4111,incongruent,left,,,,,,stimulusFile/physical.xlsx,,,,,,,,,,,,,,,,,,,,,,,,,,,,,,,
,,,,,,,,,,,,,,,685,2022-02-08_13h12.25.900,multiplicationStroop,2021.2.3,Win32,60.90133983,,,,,left,1,0.5505,0,51,51,23,1,9,4,9 | 4,5,1.9756,1.4111,congruent,left,,,,,,stimulusFile/physical.xlsx,,,,,,,,,,,,,,,,,,,,,,,,,,,,,,,
,,,,,,,,,,,,,,,685,2022-02-08_13h12.25.900,multiplicationStroop,2021.2.3,Win32,60.90133983,,,,,left,1,0.4941,0,52,52,55,1,9,9,9 | 9,0,1.9756,1.4111,neutral,left,,,,,,stimulusFile/physical.xlsx,,,,,,,,,,,,,,,,,,,,,,,,,,,,,,,
,,,,,,,,,,,,,,,685,2022-02-08_13h12.25.900,multiplicationStroop,2021.2.3,Win32,60.90133983,,,,,left,1,1.0223,0,53,53,6,1,7,6,7 | 6,1,1.9756,1.4111,congruent,left,,,,,,stimulusFile/physical.xlsx,,,,,,,,,,,,,,,,,,,,,,,,,,,,,,,
,,,,,,,,,,,,,,,685,2022-02-08_13h12.25.900,multiplicationStroop,2021.2.3,Win32,60.90133983,,,,,left,1,0.5722,0,54,54,51,1,8,8,8 | 8,0,1.9756,1.4111,neutral,left,,,,,,stimulusFile/physical.xlsx,,,,,,,,,,,,,,,,,,,,,,,,,,,,,,,
,,,,,,,,,,,,,,,685,2022-02-08_13h12.25.900,multiplicationStroop,2021.2.3,Win32,60.90133983,,,,,left,1,0.5035,0,55,55,25,1,3,4,3 | 4,1,1.9756,1.4111,incongruent,left,,,,,,stimulusFile/physical.xlsx,,,,,,,,,,,,,,,,,,,,,,,,,,,,,,,
,,,,,,,,,,,,,,,685,2022-02-08_13h12.25.900,multiplicationStroop,2021.2.3,Win32,60.90133983,,,,,right,1,0.5596,0,56,56,57,1,2,2,2 | 2,0,1.4111,1.9756,neutral,right,,,,,,stimulusFile/physical.xlsx,,,,,,,,,,,,,,,,,,,,,,,,,,,,,,,
,,,,,,,,,,,,,,,685,2022-02-08_13h12.25.900,multiplicationStroop,2021.2.3,Win32,60.90133983,,,,,left,1,0.4659,0,57,57,26,1,6,7,6 | 7,1,1.9756,1.4111,incongruent,left,,,,,,stimulusFile/physical.xlsx,,,,,,,,,,,,,,,,,,,,,,,,,,,,,,,
,,,,,,,,,,,,,,,685,2022-02-08_13h12.25.900,multiplicationStroop,2021.2.3,Win32,60.90133983,,,,,right,1,0.4256,0,58,58,62,1,8,8,8 | 8,0,1.4111,1.9756,neutral,right,,,,,,stimulusFile/physical.xlsx,,,,,,,,,,,,,,,,,,,,,,,,,,,,,,,
,,,,,,,,,,,,,,,685,2022-02-08_13h12.25.900,multiplicationStroop,2021.2.3,Win32,60.90133983,,,,,right,1,0.8592,0,59,59,44,1,6,1,6 | 1,5,1.4111,1.9756,incongruent,right,,,,,,stimulusFile/physical.xlsx,,,,,,,,,,,,,,,,,,,,,,,,,,,,,,,
,,,,,,,,,,,,,,,685,2022-02-08_13h12.25.900,multiplicationStroop,2021.2.3,Win32,60.90133983,,,,,right,1,0.5656,0,60,60,29,1,4,3,4 | 3,1,1.4111,1.9756,incongruent,right,,,,,,stimulusFile/physical.xlsx,,,,,,,,,,,,,,,,,,,,,,,,,,,,,,,
,,,,,,,,,,,,,,,685,2022-02-08_13h12.25.900,multiplicationStroop,2021.2.3,Win32,60.90133983,,,,,right,1,0.4546,0,61,61,39,1,9,7,9 | 7,2,1.4111,1.9756,incongruent,right,,,,,,stimulusFile/physical.xlsx,,,,,,,,,,,,,,,,,,,,,,,,,,,,,,,
,,,,,,,,,,,,,,,685,2022-02-08_13h12.25.900,multiplicationStroop,2021.2.3,Win32,60.90133983,,,,,right,1,0.4894,0,62,62,45,1,7,2,7 | 2,5,1.4111,1.9756,incongruent,right,,,,,,stimulusFile/physical.xlsx,,,,,,,,,,,,,,,,,,,,,,,,,,,,,,,
,,,,,,,,,,,,,,,685,2022-02-08_13h12.25.900,multiplicationStroop,2021.2.3,Win32,60.90133983,,,,,right,1,0.4665,0,63,63,28,1,2,1,2 | 1,1,1.4111,1.9756,incongruent,right,,,,,,stimulusFile/physical.xlsx,,,,,,,,,,,,,,,,,,,,,,,,,,,,,,,
,,,,,,,,,,,,,,,685,2022-02-08_13h12.25.900,multiplicationStroop,2021.2.3,Win32,60.90133983,,,,,right,1,0.5125,0,64,64,10,1,6,8,6 | 8,2,1.4111,1.9756,congruent,right,,,,,,stimulusFile/physical.xlsx,,,,,,,,,,,,,,,,,,,,,,,,,,,,,,,
,,,,,,,,,,,,,,,685,2022-02-08_13h12.25.900,multiplicationStroop,2021.2.3,Win32,60.90133983,,,,,right,1,0.4073,0,65,65,18,1,3,8,3 | 8,5,1.4111,1.9756,congruent,right,,,,,,stimulusFile/physical.xlsx,,,,,,,,,,,,,,,,,,,,,,,,,,,,,,,
,,,,,,,,,,,,,,,685,2022-02-08_13h12.25.900,multiplicationStroop,2021.2.3,Win32,60.90133983,,,,,left,1,0.5815,0,66,66,24,1,1,2,1 | 2,1,1.9756,1.4111,incongruent,left,,,,,,stimulusFile/physical.xlsx,,,,,,,,,,,,,,,,,,,,,,,,,,,,,,,
,,,,,,,,,,,,,,,685,2022-02-08_13h12.25.900,multiplicationStroop,2021.2.3,Win32,60.90133983,,,,,right,1,0.4561,0,67,67,46,1,8,3,8 | 3,5,1.4111,1.9756,incongruent,right,,,,,,stimulusFile/physical.xlsx,,,,,,,,,,,,,,,,,,,,,,,,,,,,,,,
,,,,,,,,,,,,,,,685,2022-02-08_13h12.25.900,multiplicationStroop,2021.2.3,Win32,60.90133983,,,,,left,0,0.3446,0,68,68,2,1,6,7,6 | 7,1,1.4111,1.9756,congruent,right,,,,,,stimulusFile/physical.xlsx,,,,,,,,,,,,,,,,,,,,,,,,,,,,,,,
,,,,,,,,,,,,,,,685,2022-02-08_13h12.25.900,multiplicationStroop,2021.2.3,Win32,60.90133983,,,,,left,1,1.3224,0,69,69,43,1,4,9,4 | 9,5,1.9756,1.4111,incongruent,left,,,,,,stimulusFile/physical.xlsx,,,,,,,,,,,,,,,,,,,,,,,,,,,,,,,
,,,,,,,,,,,,,,,685,2022-02-08_13h12.25.900,multiplicationStroop,2021.2.3,Win32,60.90133983,,,,,right,1,0.4793,0,70,70,67,1,4,4,4 | 4,0,1.4111,1.9756,neutral,right,,,,,,stimulusFile/physical.xlsx,,,,,,,,,,,,,,,,,,,,,,,,,,,,,,,
,,,,,,,,,,,,,,,685,2022-02-08_13h12.25.900,multiplicationStroop,2021.2.3,Win32,60.90133983,,,,,right,1,0.5251,0,71,71,58,1,6,6,6 | 6,0,1.4111,1.9756,neutral,right,,,,,,stimulusFile/physical.xlsx,,,,,,,,,,,,,,,,,,,,,,,,,,,,,,,
,,,,,,,,,,,,,,,685,2022-02-08_13h12.25.900,multiplicationStroop,2021.2.3,Win32,60.90133983,,,,,,,,,,,,,,,,,,,,,0,0,0,1,1,stimulusFile/physical.xlsx,PHYSICALLY larger (larger font size).,images/physicallyLarger.png,,,,,,,,,,,,,,,,,,,,,,,,,,,,,
,,,,,,,,,,,,,,,685,2022-02-08_13h12.25.900,multiplicationStroop,2021.2.3,Win32,60.90133983,space,2.6288,space,1.3443,right,1,2.416,0,0,0,40,1,1,6,1 | 6,5,1.9756,1.4111,incongruent,right,,,,,,stimulusFile/magnitude.xlsx,,,,,,,,,,,,,,,,,,,,,,,,,,,,,,,
,,,,,,,,,,,,,,,685,2022-02-08_13h12.25.900,multiplicationStroop,2021.2.3,Win32,60.90133983,,,,,left,1,2.5456,0,1,1,5,1,4,3,4 | 3,1,1.9756,1.4111,congruent,left,,,,,,stimulusFile/magnitude.xlsx,,,,,,,,,,,,,,,,,,,,,,,,,,,,,,,
,,,,,,,,,,,,,,,685,2022-02-08_13h12.25.900,multiplicationStroop,2021.2.3,Win32,60.90133983,,,,,left,1,0.7263,0,2,2,71,1,9,4,9 | 4,5,1.6933,1.6933,neutral,left,,,,,,stimulusFile/magnitude.xlsx,,,,,,,,,,,,,,,,,,,,,,,,,,,,,,,
,,,,,,,,,,,,,,,685,2022-02-08_13h12.25.900,multiplicationStroop,2021.2.3,Win32,60.90133983,,,,,right,1,1.3061,0,3,3,66,1,3,8,3 | 8,5,1.6933,1.6933,neutral,right,,,,,,stimulusFile/magnitude.xlsx,,,,,,,,,,,,,,,,,,,,,,,,,,,,,,,
,,,,,,,,,,,,,,,685,2022-02-08_13h12.25.900,multiplicationStroop,2021.2.3,Win32,60.90133983,,,,,left,1,0.8935,0,4,4,37,1,4,2,4 | 2,2,1.4111,1.9756,incongruent,left,,,,,,stimulusFile/magnitude.xlsx,,,,,,,,,,,,,,,,,,,,,,,,,,,,,,,
,,,,,,,,,,,,,,,685,2022-02-08_13h12.25.900,multiplicationStroop,2021.2.3,Win32,60.90133983,,,,,right,1,0.7565,0,5,5,27,1,8,9,8 | 9,1,1.9756,1.4111,incongruent,right,,,,,,stimulusFile/magnitude.xlsx,,,,,,,,,,,,,,,,,,,,,,,,,,,,,,,
,,,,,,,,,,,,,,,685,2022-02-08_13h12.25.900,multiplicationStroop,2021.2.3,Win32,60.90133983,,,,,right,1,0.7866,0,6,6,57,1,2,4,2 | 4,2,1.6933,1.6933,neutral,right,,,,,,stimulusFile/magnitude.xlsx,,,,,,,,,,,,,,,,,,,,,,,,,,,,,,,
,,,,,,,,,,,,,,,685,2022-02-08_13h12.25.900,multiplicationStroop,2021.2.3,Win32,60.90133983,,,,,right,1,0.6605,0,7,7,41,1,2,7,2 | 7,5,1.9756,1.4111,incongruent,right,,,,,,stimulusFile/magnitude.xlsx,,,,,,,,,,,,,,,,,,,,,,,,,,,,,,,
,,,,,,,,,,,,,,,685,2022-02-08_13h12.25.900,multiplicationStroop,2021.2.3,Win32,60.90133983,,,,,left,1,0.5334,0,8,8,20,1,6,1,6 | 1,5,1.9756,1.4111,congruent,left,,,,,,stimulusFile/magnitude.xlsx,,,,,,,,,,,,,,,,,,,,,,,,,,,,,,,
,,,,,,,,,,,,,,,685,2022-02-08_13h12.25.900,multiplicationStroop,2021.2.3,Win32,60.90133983,,,,,right,1,0.5987,0,9,9,49,1,3,4,3 | 4,1,1.6933,1.6933,neutral,right,,,,,,stimulusFile/magnitude.xlsx,,,,,,,,,,,,,,,,,,,,,,,,,,,,,,,
,,,,,,,,,,,,,,,685,2022-02-08_13h12.25.900,multiplicationStroop,2021.2.3,Win32,60.90133983,,,,,right,1,0.8247,0,10,10,56,1,1,3,1 | 3,2,1.6933,1.6933,neutral,right,,,,,,stimulusFile/magnitude.xlsx,,,,,,,,,,,,,,,,,,,,,,,,,,,,,,,
,,,,,,,,,,,,,,,685,2022-02-08_13h12.25.900,multiplicationStroop,2021.2.3,Win32,60.90133983,,,,,left,1,0.7317,0,11,11,31,1,9,8,9 | 8,1,1.4111,1.9756,incongruent,left,,,,,,stimulusFile/magnitude.xlsx,,,,,,,,,,,,,,,,,,,,,,,,,,,,,,,
,,,,,,,,,,,,,,,685,2022-02-08_13h12.25.900,multiplicationStroop,2021.2.3,Win32,60.90133983,,,,,left,1,0.7205,0,12,12,70,1,8,3,8 | 3,5,1.6933,1.6933,neutral,left,,,,,,stimulusFile/magnitude.xlsx,,,,,,,,,,,,,,,,,,,,,,,,,,,,,,,
,,,,,,,,,,,,,,,685,2022-02-08_13h12.25.900,multiplicationStroop,2021.2.3,Win32,60.90133983,,,,,left,1,0.5171,0,13,13,60,1,3,1,3 | 1,2,1.6933,1.6933,neutral,left,,,,,,stimulusFile/magnitude.xlsx,,,,,,,,,,,,,,,,,,,,,,,,,,,,,,,
,,,,,,,,,,,,,,,685,2022-02-08_13h12.25.900,multiplicationStroop,2021.2.3,Win32,60.90133983,,,,,right,1,0.5196,0,14,14,17,1,2,7,2 | 7,5,1.4111,1.9756,congruent,right,,,,,,stimulusFile/magnitude.xlsx,,,,,,,,,,,,,,,,,,,,,,,,,,,,,,,
,,,,,,,,,,,,,,,685,2022-02-08_13h12.25.900,multiplicationStroop,2021.2.3,Win32,60.90133983,,,,,left,1,0.5642,0,15,15,46,1,8,3,8 | 3,5,1.4111,1.9756,incongruent,left,,,,,,stimulusFile/magnitude.xlsx,,,,,,,,,,,,,,,,,,,,,,,,,,,,,,,
,,,,,,,,,,,,,,,685,2022-02-08_13h12.25.900,multiplicationStroop,2021.2.3,Win32,60.90133983,,,,,right,1,0.6087,0,16,16,43,1,4,9,4 | 9,5,1.9756,1.4111,incongruent,right,,,,,,stimulusFile/magnitude.xlsx,,,,,,,,,,,,,,,,,,,,,,,,,,,,,,,
,,,,,,,,,,,,,,,685,2022-02-08_13h12.25.900,multiplicationStroop,2021.2.3,Win32,60.90133983,,,,,left,1,1.132,0,17,17,29,1,4,3,4 | 3,1,1.4111,1.9756,incongruent,left,,,,,,stimulusFile/magnitude.xlsx,,,,,,,,,,,,,,,,,,,,,,,,,,,,,,,
,,,,,,,,,,,,,,,685,2022-02-08_13h12.25.900,multiplicationStroop,2021.2.3,Win32,60.90133983,,,,,left,0,0.7645,0,18,18,32,1,1,3,1 | 3,2,1.9756,1.4111,incongruent,right,,,,,,stimulusFile/magnitude.xlsx,,,,,,,,,,,,,,,,,,,,,,,,,,,,,,,
,,,,,,,,,,,,,,,685,2022-02-08_13h12.25.900,multiplicationStroop,2021.2.3,Win32,60.90133983,,,,,left,1,1.4553,0,19,19,68,1,6,1,6 | 1,5,1.6933,1.6933,neutral,left,,,,,,stimulusFile/magnitude.xlsx,,,,,,,,,,,,,,,,,,,,,,,,,,,,,,,
,,,,,,,,,,,,,,,685,2022-02-08_13h12.25.900,multiplicationStroop,2021.2.3,Win32,60.90133983,,,,,right,1,0.6426,0,20,20,65,1,2,7,2 | 7,5,1.6933,1.6933,neutral,right,,,,,,stimulusFile/magnitude.xlsx,,,,,,,,,,,,,,,,,,,,,,,,,,,,,,,
,,,,,,,,,,,,,,,685,2022-02-08_13h12.25.900,multiplicationStroop,2021.2.3,Win32,60.90133983,,,,,left,1,0.7373,0,21,21,47,1,9,4,9 | 4,5,1.4111,1.9756,incongruent,left,,,,,,stimulusFile/magnitude.xlsx,,,,,,,,,,,,,,,,,,,,,,,,,,,,,,,
,,,,,,,,,,,,,,,685,2022-02-08_13h12.25.900,multiplicationStroop,2021.2.3,Win32,60.90133983,,,,,right,1,0.9152,0,22,22,33,1,2,4,2 | 4,2,1.9756,1.4111,incongruent,right,,,,,,stimulusFile/magnitude.xlsx,,,,,,,,,,,,,,,,,,,,,,,,,,,,,,,
,,,,,,,,,,,,,,,685,2022-02-08_13h12.25.900,multiplicationStroop,2021.2.3,Win32,60.90133983,,,,,right,1,0.9317,0,23,23,64,1,1,6,1 | 6,5,1.6933,1.6933,neutral,right,,,,,,stimulusFile/magnitude.xlsx,,,,,,,,,,,,,,,,,,,,,,,,,,,,,,,
,,,,,,,,,,,,,,,685,2022-02-08_13h12.25.900,multiplicationStroop,2021.2.3,Win32,60.90133983,,,,,left,1,0.6497,0,24,24,4,1,2,1,2 | 1,1,1.9756,1.4111,congruent,left,,,,,,stimulusFile/magnitude.xlsx,,,,,,,,,,,,,,,,,,,,,,,,,,,,,,,
,,,,,,,,,,,,,,,685,2022-02-08_13h12.25.900,multiplicationStroop,2021.2.3,Win32,60.90133983,,,,,right,1,0.6559,0,25,25,51,1,8,9,8 | 9,1,1.6933,1.6933,neutral,right,,,,,,stimulusFile/magnitude.xlsx,,,,,,,,,,,,,,,,,,,,,,,,,,,,,,,
,,,,,,,,,,,,,,,685,2022-02-08_13h12.25.900,multiplicationStroop,2021.2.3,Win32,60.90133983,,,,,left,1,0.5056,0,26,26,12,1,3,1,3 | 1,2,1.9756,1.4111,congruent,left,,,,,,stimulusFile/magnitude.xlsx,,,,,,,,,,,,,,,,,,,,,,,,,,,,,,,
,,,,,,,,,,,,,,,685,2022-02-08_13h12.25.900,multiplicationStroop,2021.2.3,Win32,60.90133983,,,,,right,1,0.4841,0,27,27,59,1,7,9,7 | 9,2,1.6933,1.6933,neutral,right,,,,,,stimulusFile/magnitude.xlsx,,,,,,,,,,,,,,,,,,,,,,,,,,,,,,,
,,,,,,,,,,,,,,,685,2022-02-08_13h12.25.900,multiplicationStroop,2021.2.3,Win32,60.90133983,,,,,right,1,0.7338,0,28,28,8,1,1,3,1 | 3,2,1.4111,1.9756,congruent,right,,,,,,stimulusFile/magnitude.xlsx,,,,,,,,,,,,,,,,,,,,,,,,,,,,,,,
,,,,,,,,,,,,,,,685,2022-02-08_13h12.25.900,multiplicationStroop,2021.2.3,Win32,60.90133983,,,,,right,1,0.5064,0,29,29,11,1,7,9,7 | 9,2,1.4111,1.9756,congruent,right,,,,,,stimulusFile/magnitude.xlsx,,,,,,,,,,,,,,,,,,,,,,,,,,,,,,,
,,,,,,,,,,,,,,,685,2022-02-08_13h12.25.900,multiplicationStroop,2021.2.3,Win32,60.90133983,,,,,right,1,0.8728,0,30,30,0,1,1,2,1 | 2,1,1.4111,1.9756,congruent,right,,,,,,stimulusFile/magnitude.xlsx,,,,,,,,,,,,,,,,,,,,,,,,,,,,,,,
,,,,,,,,,,,,,,,685,2022-02-08_13h12.25.900,multiplicationStroop,2021.2.3,Win32,60.90133983,,,,,right,1,0.6585,0,31,31,10,1,6,8,6 | 8,2,1.4111,1.9756,congruent,right,,,,,,stimulusFile/magnitude.xlsx,,,,,,,,,,,,,,,,,,,,,,,,,,,,,,,
,,,,,,,,,,,,,,,685,2022-02-08_13h12.25.900,multiplicationStroop,2021.2.3,Win32,60.90133983,,,,,left,1,0.8238,0,32,32,53,1,4,3,4 | 3,1,1.6933,1.6933,neutral,left,,,,,,stimulusFile/magnitude.xlsx,,,,,,,,,,,,,,,,,,,,,,,,,,,,,,,
,,,,,,,,,,,,,,,685,2022-02-08_13h12.25.900,multiplicationStroop,2021.2.3,Win32,60.90133983,,,,,right,1,1.0106,0,33,33,42,1,3,8,3 | 8,5,1.9756,1.4111,incongruent,right,,,,,,stimulusFile/magnitude.xlsx,,,,,,,,,,,,,,,,,,,,,,,,,,,,,,,
,,,,,,,,,,,,,,,685,2022-02-08_13h12.25.900,multiplicationStroop,2021.2.3,Win32,60.90133983,,,,,right,1,1.1925,0,34,34,58,1,6,8,6 | 8,2,1.6933,1.6933,neutral,right,,,,,,stimulusFile/magnitude.xlsx,,,,,,,,,,,,,,,,,,,,,,,,,,,,,,,
,,,,,,,,,,,,,,,685,2022-02-08_13h12.25.900,multiplicationStroop,2021.2.3,Win32,60.90133983,,,,,right,1,0.6816,0,35,35,1,1,3,4,3 | 4,1,1.4111,1.9756,congruent,right,,,,,,stimulusFile/magnitude.xlsx,,,,,,,,,,,,,,,,,,,,,,,,,,,,,,,
,,,,,,,,,,,,,,,685,2022-02-08_13h12.25.900,multiplicationStroop,2021.2.3,Win32,60.90133983,,,,,left,1,0.5921,0,36,36,69,1,7,2,7 | 2,5,1.6933,1.6933,neutral,left,,,,,,stimulusFile/magnitude.xlsx,,,,,,,,,,,,,,,,,,,,,,,,,,,,,,,
,,,,,,,,,,,,,,,685,2022-02-08_13h12.25.900,multiplicationStroop,2021.2.3,Win32,60.90133983,,,,,right,1,0.4858,0,37,37,18,1,3,8,3 | 8,5,1.4111,1.9756,congruent,right,,,,,,stimulusFile/magnitude.xlsx,,,,,,,,,,,,,,,,,,,,,,,,,,,,,,,
,,,,,,,,,,,,,,,685,2022-02-08_13h12.25.900,multiplicationStroop,2021.2.3,Win32,60.90133983,,,,,left,1,0.5635,0,38,38,44,1,6,1,6 | 1,5,1.4111,1.9756,incongruent,left,,,,,,stimulusFile/magnitude.xlsx,,,,,,,,,,,,,,,,,,,,,,,,,,,,,,,
,,,,,,,,,,,,,,,685,2022-02-08_13h12.25.900,multiplicationStroop,2021.2.3,Win32,60.90133983,,,,,left,1,0.8229,0,39,39,15,1,9,7,9 | 7,2,1.9756,1.4111,congruent,left,,,,,,stimulusFile/magnitude.xlsx,,,,,,,,,,,,,,,,,,,,,,,,,,,,,,,
,,,,,,,,,,,,,,,685,2022-02-08_13h12.25.900,multiplicationStroop,2021.2.3,Win32,60.90133983,,,,,left,1,0.674,0,40,40,7,1,9,8,9 | 8,1,1.9756,1.4111,congruent,left,,,,,,stimulusFile/magnitude.xlsx,,,,,,,,,,,,,,,,,,,,,,,,,,,,,,,
,,,,,,,,,,,,,,,685,2022-02-08_13h12.25.900,multiplicationStroop,2021.2.3,Win32,60.90133983,,,,,left,1,0.7334,0,41,41,45,1,7,2,7 | 2,5,1.4111,1.9756,incongruent,left,,,,,,stimulusFile/magnitude.xlsx,,,,,,,,,,,,,,,,,,,,,,,,,,,,,,,
,,,,,,,,,,,,,,,685,2022-02-08_13h12.25.900,multiplicationStroop,2021.2.3,Win32,60.90133983,,,,,right,1,0.821,0,42,42,48,1,1,2,1 | 2,1,1.6933,1.6933,neutral,right,,,,,,stimulusFile/magnitude.xlsx,,,,,,,,,,,,,,,,,,,,,,,,,,,,,,,
,,,,,,,,,,,,,,,685,2022-02-08_13h12.25.900,multiplicationStroop,2021.2.3,Win32,60.90133983,,,,,left,1,0.4682,0,43,43,23,1,9,4,9 | 4,5,1.9756,1.4111,congruent,left,,,,,,stimulusFile/magnitude.xlsx,,,,,,,,,,,,,,,,,,,,,,,,,,,,,,,
,,,,,,,,,,,,,,,685,2022-02-08_13h12.25.900,multiplicationStroop,2021.2.3,Win32,60.90133983,,,,,left,1,0.7653,0,44,44,21,1,7,2,7 | 2,5,1.9756,1.4111,congruent,left,,,,,,stimulusFile/magnitude.xlsx,,,,,,,,,,,,,,,,,,,,,,,,,,,,,,,
,,,,,,,,,,,,,,,685,2022-02-08_13h12.25.900,multiplicationStroop,2021.2.3,Win32,60.90133983,,,,,right,1,1.0582,0,45,45,26,1,6,7,6 | 7,1,1.9756,1.4111,incongruent,right,,,,,,stimulusFile/magnitude.xlsx,,,,,,,,,,,,,,,,,,,,,,,,,,,,,,,
,,,,,,,,,,,,,,,685,2022-02-08_13h12.25.900,multiplicationStroop,2021.2.3,Win32,60.90133983,,,,,right,1,0.5158,0,46,46,9,1,2,4,2 | 4,2,1.4111,1.9756,congruent,right,,,,,,stimulusFile/magnitude.xlsx,,,,,,,,,,,,,,,,,,,,,,,,,,,,,,,
,,,,,,,,,,,,,,,685,2022-02-08_13h12.25.900,multiplicationStroop,2021.2.3,Win32,60.90133983,,,,,left,0,0.8393,0,47,47,35,1,7,9,7 | 9,2,1.9756,1.4111,incongruent,right,,,,,,stimulusFile/magnitude.xlsx,,,,,,,,,,,,,,,,,,,,,,,,,,,,,,,
,,,,,,,,,,,,,,,685,2022-02-08_13h12.25.900,multiplicationStroop,2021.2.3,Win32,60.90133983,,,,,left,1,1.1206,0,48,48,63,1,9,7,9 | 7,2,1.6933,1.6933,neutral,left,,,,,,stimulusFile/magnitude.xlsx,,,,,,,,,,,,,,,,,,,,,,,,,,,,,,,
,,,,,,,,,,,,,,,685,2022-02-08_13h12.25.900,multiplicationStroop,2021.2.3,Win32,60.90133983,,,,,right,1,0.5186,0,49,49,19,1,4,9,4 | 9,5,1.4111,1.9756,congruent,right,,,,,,stimulusFile/magnitude.xlsx,,,,,,,,,,,,,,,,,,,,,,,,,,,,,,,
,,,,,,,,,,,,,,,685,2022-02-08_13h12.25.900,multiplicationStroop,2021.2.3,Win32,60.90133983,,,,,right,1,0.5937,0,50,50,67,1,4,9,4 | 9,5,1.6933,1.6933,neutral,right,,,,,,stimulusFile/magnitude.xlsx,,,,,,,,,,,,,,,,,,,,,,,,,,,,,,,
,,,,,,,,,,,,,,,685,2022-02-08_13h12.25.900,multiplicationStroop,2021.2.3,Win32,60.90133983,,,,,left,1,0.7313,0,51,51,52,1,2,1,2 | 1,1,1.6933,1.6933,neutral,left,,,,,,stimulusFile/magnitude.xlsx,,,,,,,,,,,,,,,,,,,,,,,,,,,,,,,
,,,,,,,,,,,,,,,685,2022-02-08_13h12.25.900,multiplicationStroop,2021.2.3,Win32,60.90133983,,,,,right,0,0.6351,0,52,52,62,1,8,6,8 | 6,2,1.6933,1.6933,neutral,left,,,,,,stimulusFile/magnitude.xlsx,,,,,,,,,,,,,,,,,,,,,,,,,,,,,,,
,,,,,,,,,,,,,,,685,2022-02-08_13h12.25.900,multiplicationStroop,2021.2.3,Win32,60.90133983,,,,,right,1,1.1812,0,53,53,25,1,3,4,3 | 4,1,1.9756,1.4111,incongruent,right,,,,,,stimulusFile/magnitude.xlsx,,,,,,,,,,,,,,,,,,,,,,,,,,,,,,,
,,,,,,,,,,,,,,,685,2022-02-08_13h12.25.900,multiplicationStroop,2021.2.3,Win32,60.90133983,,,,,right,1,0.7236,0,54,54,3,1,8,9,8 | 9,1,1.4111,1.9756,congruent,right,,,,,,stimulusFile/magnitude.xlsx,,,,,,,,,,,,,,,,,,,,,,,,,,,,,,,
,,,,,,,,,,,,,,,685,2022-02-08_13h12.25.900,multiplicationStroop,2021.2.3,Win32,60.90133983,,,,,right,1,0.5808,0,55,55,16,1,1,6,1 | 6,5,1.4111,1.9756,congruent,right,,,,,,stimulusFile/magnitude.xlsx,,,,,,,,,,,,,,,,,,,,,,,,,,,,,,,
,,,,,,,,,,,,,,,685,2022-02-08_13h12.25.900,multiplicationStroop,2021.2.3,Win32,60.90133983,,,,,left,1,1.1983,0,56,56,28,1,2,1,2 | 1,1,1.4111,1.9756,incongruent,left,,,,,,stimulusFile/magnitude.xlsx,,,,,,,,,,,,,,,,,,,,,,,,,,,,,,,
,,,,,,,,,,,,,,,685,2022-02-08_13h12.25.900,multiplicationStroop,2021.2.3,Win32,60.90133983,,,,,left,1,0.7677,0,57,57,39,1,9,7,9 | 7,2,1.4111,1.9756,incongruent,left,,,,,,stimulusFile/magnitude.xlsx,,,,,,,,,,,,,,,,,,,,,,,,,,,,,,,
,,,,,,,,,,,,,,,685,2022-02-08_13h12.25.900,multiplicationStroop,2021.2.3,Win32,60.90133983,,,,,left,1,0.948,0,58,58,6,1,7,6,7 | 6,1,1.9756,1.4111,congruent,left,,,,,,stimulusFile/magnitude.xlsx,,,,,,,,,,,,,,,,,,,,,,,,,,,,,,,
,,,,,,,,,,,,,,,685,2022-02-08_13h12.25.900,multiplicationStroop,2021.2.3,Win32,60.90133983,,,,,left,1,0.8886,0,59,59,36,1,3,1,3 | 1,2,1.4111,1.9756,incongruent,left,,,,,,stimulusFile/magnitude.xlsx,,,,,,,,,,,,,,,,,,,,,,,,,,,,,,,
,,,,,,,,,,,,,,,685,2022-02-08_13h12.25.900,multiplicationStroop,2021.2.3,Win32,60.90133983,,,,,left,1,0.8496,0,60,60,55,1,9,8,9 | 8,1,1.6933,1.6933,neutral,left,,,,,,stimulusFile/magnitude.xlsx,,,,,,,,,,,,,,,,,,,,,,,,,,,,,,,
,,,,,,,,,,,,,,,685,2022-02-08_13h12.25.900,multiplicationStroop,2021.2.3,Win32,60.90133983,,,,,left,1,0.941,0,61,61,13,1,4,2,4 | 2,2,1.9756,1.4111,congruent,left,,,,,,stimulusFile/magnitude.xlsx,,,,,,,,,,,,,,,,,,,,,,,,,,,,,,,
,,,,,,,,,,,,,,,685,2022-02-08_13h12.25.900,multiplicationStroop,2021.2.3,Win32,60.90133983,,,,,right,1,0.951,0,62,62,24,1,1,2,1 | 2,1,1.9756,1.4111,incongruent,right,,,,,,stimulusFile/magnitude.xlsx,,,,,,,,,,,,,,,,,,,,,,,,,,,,,,,
,,,,,,,,,,,,,,,685,2022-02-08_13h12.25.900,multiplicationStroop,2021.2.3,Win32,60.90133983,,,,,left,1,0.8704,0,63,63,38,1,8,6,8 | 6,2,1.4111,1.9756,incongruent,left,,,,,,stimulusFile/magnitude.xlsx,,,,,,,,,,,,,,,,,,,,,,,,,,,,,,,
,,,,,,,,,,,,,,,685,2022-02-08_13h12.25.900,multiplicationStroop,2021.2.3,Win32,60.90133983,,,,,left,1,0.533,0,64,64,22,1,8,3,8 | 3,5,1.9756,1.4111,congruent,left,,,,,,stimulusFile/magnitude.xlsx,,,,,,,,,,,,,,,,,,,,,,,,,,,,,,,
,,,,,,,,,,,,,,,685,2022-02-08_13h12.25.900,multiplicationStroop,2021.2.3,Win32,60.90133983,,,,,left,1,0.834,0,65,65,61,1,4,2,4 | 2,2,1.6933,1.6933,neutral,left,,,,,,stimulusFile/magnitude.xlsx,,,,,,,,,,,,,,,,,,,,,,,,,,,,,,,
,,,,,,,,,,,,,,,685,2022-02-08_13h12.25.900,multiplicationStroop,2021.2.3,Win32,60.90133983,,,,,left,1,0.779,0,66,66,54,1,7,6,7 | 6,1,1.6933,1.6933,neutral,left,,,,,,stimulusFile/magnitude.xlsx,,,,,,,,,,,,,,,,,,,,,,,,,,,,,,,
,,,,,,,,,,,,,,,685,2022-02-08_13h12.25.900,multiplicationStroop,2021.2.3,Win32,60.90133983,,,,,left,1,0.5153,0,67,67,14,1,8,6,8 | 6,2,1.9756,1.4111,congruent,left,,,,,,stimulusFile/magnitude.xlsx,,,,,,,,,,,,,,,,,,,,,,,,,,,,,,,
,,,,,,,,,,,,,,,685,2022-02-08_13h12.25.900,multiplicationStroop,2021.2.3,Win32,60.90133983,,,,,right,1,1.0331,0,68,68,34,1,6,8,6 | 8,2,1.9756,1.4111,incongruent,right,,,,,,stimulusFile/magnitude.xlsx,,,,,,,,,,,,,,,,,,,,,,,,,,,,,,,
,,,,,,,,,,,,,,,685,2022-02-08_13h12.25.900,multiplicationStroop,2021.2.3,Win32,60.90133983,,,,,left,1,1.101,0,69,69,30,1,7,6,7 | 6,1,1.4111,1.9756,incongruent,left,,,,,,stimulusFile/magnitude.xlsx,,,,,,,,,,,,,,,,,,,,,,,,,,,,,,,
,,,,,,,,,,,,,,,685,2022-02-08_13h12.25.900,multiplicationStroop,2021.2.3,Win32,60.90133983,,,,,right,1,0.681,0,70,70,50,1,6,7,6 | 7,1,1.6933,1.6933,neutral,right,,,,,,stimulusFile/magnitude.xlsx,,,,,,,,,,,,,,,,,,,,,,,,,,,,,,,
,,,,,,,,,,,,,,,685,2022-02-08_13h12.25.900,multiplicationStroop,2021.2.3,Win32,60.90133983,,,,,right,1,0.6741,0,71,71,2,1,6,7,6 | 7,1,1.4111,1.9756,congruent,right,,,,,,stimulusFile/magnitude.xlsx,,,,,,,,,,,,,,,,,,,,,,,,,,,,,,,
,,,,,,,,,,,,,,,685,2022-02-08_13h12.25.900,multiplicationStroop,2021.2.3,Win32,60.90133983,,,,,,,,,,,,,,,,,,,,,0,1,1,0,1,stimulusFile/magnitude.xlsx,NUMERICALLY larger (larger coefficient).,images/numericallyLarger.png,,,,,,,,,,,,,,,,,,,,,,,,,,,,,
,,,,,,,,,,,,,,,685,2022-02-08_13h12.25.900,multiplicationStroop,2021.2.3,Win32,60.90133983,,,,,,,,,,,,,,,,,,,,,,,,,,,,,space,9.7959,space,3.188,24,3.3421,1,0,0,0,9,1,3,×,8,3 × 8,incongruent,smallerFirst,2,1,24,,,,,,,,
,,,,,,,,,,,,,,,685,2022-02-08_13h12.25.900,multiplicationStroop,2021.2.3,Win32,60.90133983,,,,,,,,,,,,,,,,,,,,,,,,,,,,,,,,,36,2.9944,1,0,1,1,15,1,9,×,4,9 × 4,incongruent,largerFirst,1,2,36,,,,,,,,
,,,,,,,,,,,,,,,685,2022-02-08_13h12.25.900,multiplicationStroop,2021.2.3,Win32,60.90133983,,,,,,,,,,,,,,,,,,,,,,,,,,,,,,,,,36,2.4326,1,0,2,2,32,1,6,×,6,6 × 6,incongruent,tie,1,2,36,,,,,,,,
,,,,,,,,,,,,,,,685,2022-02-08_13h12.25.900,multiplicationStroop,2021.2.3,Win32,60.90133983,,,,,,,,,,,,,,,,,,,,,,,,,,,,,,,,,40,1.8664,1,0,3,3,13,1,5,×,8,5 × 8,incongruent,smallerFirst,2,1,40,,,,,,,,
,,,,,,,,,,,,,,,685,2022-02-08_13h12.25.900,multiplicationStroop,2021.2.3,Win32,60.90133983,,,,,,,,,,,,,,,,,,,,,,,,,,,,,,,,,16,1.6322,1,0,4,4,23,1,8,×,2,8 × 2,incongruent,largerFirst,1,2,16,,,,,,,,
,,,,,,,,,,,,,,,685,2022-02-08_13h12.25.900,multiplicationStroop,2021.2.3,Win32,60.90133983,,,,,,,,,,,,,,,,,,,,,,,,,,,,,,,,,18,1.7661,1,0,5,5,2,1,2,×,9,2 × 9,incongruent,smallerFirst,2,1,18,,,,,,,,
,,,,,,,,,,,,,,,685,2022-02-08_13h12.25.900,multiplicationStroop,2021.2.3,Win32,60.90133983,,,,,,,,,,,,,,,,,,,,,,,,,,,,,,,,,20,1.8165,1,0,6,6,27,1,5,×,4,5 × 4,incongruent,largerFirst,1,2,20,,,,,,,,
,,,,,,,,,,,,,,,685,2022-02-08_13h12.25.900,multiplicationStroop,2021.2.3,Win32,60.90133983,,,,,,,,,,,,,,,,,,,,,,,,,,,,,,,,,15,1.5835,1,0,7,7,10,1,3,×,5,3 × 5,incongruent,smallerFirst,2,1,15,,,,,,,,
,,,,,,,,,,,,,,,685,2022-02-08_13h12.25.900,multiplicationStroop,2021.2.3,Win32,60.90133983,,,,,,,,,,,,,,,,,,,,,,,,,,,,,,,,,24,3.2824,0,0,8,8,5,1,3,×,4,3 × 4,incongruent,smallerFirst,2,1,12,,,,,,,,
,,,,,,,,,,,,,,,685,2022-02-08_13h12.25.900,multiplicationStroop,2021.2.3,Win32,60.90133983,,,,,,,,,,,,,,,,,,,,,,,,,,,,,,,,,8,1.8326,1,0,9,9,24,1,4,×,2,4 × 2,incongruent,largerFirst,1,2,8,,,,,,,,
,,,,,,,,,,,,,,,685,2022-02-08_13h12.25.900,multiplicationStroop,2021.2.3,Win32,60.90133983,,,,,,,,,,,,,,,,,,,,,,,,,,,,,,,,,54,2.2996,1,0,10,10,6,1,6,×,9,6 × 9,incongruent,smallerFirst,2,1,54,,,,,,,,
,,,,,,,,,,,,,,,685,2022-02-08_13h12.25.900,multiplicationStroop,2021.2.3,Win32,60.90133983,,,,,,,,,,,,,,,,,,,,,,,,,,,,,,,,,45,1.9611,1,0,11,11,22,1,9,×,5,9 × 5,incongruent,largerFirst,1,2,45,,,,,,,,
,,,,,,,,,,,,,,,685,2022-02-08_13h12.25.900,multiplicationStroop,2021.2.3,Win32,60.90133983,,,,,,,,,,,,,,,,,,,,,,,,,,,,,,,,,30,1.9661,1,0,12,12,25,1,6,×,5,6 × 5,incongruent,largerFirst,1,2,30,,,,,,,,
,,,,,,,,,,,,,,,685,2022-02-08_13h12.25.900,multiplicationStroop,2021.2.3,Win32,60.90133983,,,,,,,,,,,,,,,,,,,,,,,,,,,,,,,,,21,1.7501,1,0,13,13,26,1,7,×,3,7 × 3,incongruent,largerFirst,1,2,21,,,,,,,,
,,,,,,,,,,,,,,,685,2022-02-08_13h12.25.900,multiplicationStroop,2021.2.3,Win32,60.90133983,,,,,,,,,,,,,,,,,,,,,,,,,,,,,,,,,32,3.4154,1,0,14,14,7,1,4,×,8,4 × 8,incongruent,smallerFirst,2,1,32,,,,,,,,
,,,,,,,,,,,,,,,685,2022-02-08_13h12.25.900,multiplicationStroop,2021.2.3,Win32,60.90133983,,,,,,,,,,,,,,,,,,,,,,,,,,,,,,,,,16,2.645,1,0,15,15,30,1,4,×,4,4 × 4,incongruent,tie,1,2,16,,,,,,,,
,,,,,,,,,,,,,,,685,2022-02-08_13h12.25.900,multiplicationStroop,2021.2.3,Win32,60.90133983,,,,,,,,,,,,,,,,,,,,,,,,,,,,,,,,,48,3.3995,1,0,16,16,1,1,6,×,8,6 × 8,incongruent,smallerFirst,2,1,48,,,,,,,,
,,,,,,,,,,,,,,,685,2022-02-08_13h12.25.900,multiplicationStroop,2021.2.3,Win32,60.90133983,,,,,,,,,,,,,,,,,,,,,,,,,,,,,,,,,56,2.2106,1,0,17,17,14,1,8,×,7,8 × 7,incongruent,largerFirst,1,2,56,,,,,,,,
,,,,,,,,,,,,,,,685,2022-02-08_13h12.25.900,multiplicationStroop,2021.2.3,Win32,60.90133983,,,,,,,,,,,,,,,,,,,,,,,,,,,,,,,,,49,2.3329,0,0,18,18,35,1,9,×,9,9 × 9,incongruent,tie,1,2,81,,,,,,,,
,,,,,,,,,,,,,,,685,2022-02-08_13h12.25.900,multiplicationStroop,2021.2.3,Win32,60.90133983,,,,,,,,,,,,,,,,,,,,,,,,,,,,,,,,,72,2.9665,1,0,19,19,0,1,8,×,9,8 × 9,incongruent,smallerFirst,2,1,72,,,,,,,,
,,,,,,,,,,,,,,,685,2022-02-08_13h12.25.900,multiplicationStroop,2021.2.3,Win32,60.90133983,,,,,,,,,,,,,,,,,,,,,,,,,,,,,,,,,63,2.5592,1,0,20,20,3,1,7,×,9,7 × 9,incongruent,smallerFirst,2,1,63,,,,,,,,
,,,,,,,,,,,,,,,685,2022-02-08_13h12.25.900,multiplicationStroop,2021.2.3,Win32,60.90133983,,,,,,,,,,,,,,,,,,,,,,,,,,,,,,,,,25,1.9835,1,0,21,21,31,1,5,×,5,5 × 5,incongruent,tie,1,2,25,,,,,,,,
,,,,,,,,,,,,,,,685,2022-02-08_13h12.25.900,multiplicationStroop,2021.2.3,Win32,60.90133983,,,,,,,,,,,,,,,,,,,,,,,,,,,,,,,,,4,1.4332,1,0,22,22,28,1,2,×,2,2 × 2,incongruent,tie,1,2,4,,,,,,,,
,,,,,,,,,,,,,,,685,2022-02-08_13h12.25.900,multiplicationStroop,2021.2.3,Win32,60.90133983,,,,,,,,,,,,,,,,,,,,,,,,,,,,,,,,,28,1.9823,1,0,23,23,16,1,7,×,4,7 × 4,incongruent,largerFirst,1,2,28,,,,,,,,
,,,,,,,,,,,,,,,685,2022-02-08_13h12.25.900,multiplicationStroop,2021.2.3,Win32,60.90133983,,,,,,,,,,,,,,,,,,,,,,,,,,,,,,,,,42,3.4663,1,0,24,24,17,1,7,×,6,7 × 6,incongruent,largerFirst,1,2,42,,,,,,,,
,,,,,,,,,,,,,,,685,2022-02-08_13h12.25.900,multiplicationStroop,2021.2.3,Win32,60.90133983,,,,,,,,,,,,,,,,,,,,,,,,,,,,,,,,,10,1.7445,1,0,25,25,21,1,5,×,2,5 × 2,incongruent,largerFirst,1,2,10,,,,,,,,
,,,,,,,,,,,,,,,685,2022-02-08_13h12.25.900,multiplicationStroop,2021.2.3,Win32,60.90133983,,,,,,,,,,,,,,,,,,,,,,,,,,,,,,,,,12,1.4316,1,0,26,26,19,1,6,×,2,6 × 2,incongruent,largerFirst,1,2,12,,,,,,,,
,,,,,,,,,,,,,,,685,2022-02-08_13h12.25.900,multiplicationStroop,2021.2.3,Win32,60.90133983,,,,,,,,,,,,,,,,,,,,,,,,,,,,,,,,,18,1.7003,1,0,27,27,8,1,3,×,6,3 × 6,incongruent,smallerFirst,2,1,18,,,,,,,,
,,,,,,,,,,,,,,,685,2022-02-08_13h12.25.900,multiplicationStroop,2021.2.3,Win32,60.90133983,,,,,,,,,,,,,,,,,,,,,,,,,,,,,,,,,64,2.0663,1,0,28,28,34,1,8,×,8,8 × 8,incongruent,tie,1,2,64,,,,,,,,
,,,,,,,,,,,,,,,685,2022-02-08_13h12.25.900,multiplicationStroop,2021.2.3,Win32,60.90133983,,,,,,,,,,,,,,,,,,,,,,,,,,,,,,,,,9,1.5164,1,0,29,29,29,1,3,×,3,3 × 3,incongruent,tie,1,2,9,,,,,,,,
,,,,,,,,,,,,,,,685,2022-02-08_13h12.25.900,multiplicationStroop,2021.2.3,Win32,60.90133983,,,,,,,,,,,,,,,,,,,,,,,,,,,,,,,,,27,2.116,1,0,30,30,18,1,9,×,3,9 × 3,incongruent,largerFirst,1,2,27,,,,,,,,
,,,,,,,,,,,,,,,685,2022-02-08_13h12.25.900,multiplicationStroop,2021.2.3,Win32,60.90133983,,,,,,,,,,,,,,,,,,,,,,,,,,,,,,,,,24,1.8321,1,0,31,31,20,1,6,×,4,6 × 4,incongruent,largerFirst,1,2,24,,,,,,,,
,,,,,,,,,,,,,,,685,2022-02-08_13h12.25.900,multiplicationStroop,2021.2.3,Win32,60.90133983,,,,,,,,,,,,,,,,,,,,,,,,,,,,,,,,,14,3.4004,1,0,32,32,4,1,2,×,7,2 × 7,incongruent,smallerFirst,2,1,14,,,,,,,,
,,,,,,,,,,,,,,,685,2022-02-08_13h12.25.900,multiplicationStroop,2021.2.3,Win32,60.90133983,,,,,,,,,,,,,,,,,,,,,,,,,,,,,,,,,35,2.2494,1,0,33,33,12,1,5,×,7,5 × 7,incongruent,smallerFirst,2,1,35,,,,,,,,
,,,,,,,,,,,,,,,685,2022-02-08_13h12.25.900,multiplicationStroop,2021.2.3,Win32,60.90133983,,,,,,,,,,,,,,,,,,,,,,,,,,,,,,,,,6,1.6435,1,0,34,34,11,1,2,×,3,2 × 3,incongruent,smallerFirst,2,1,6,,,,,,,,
,,,,,,,,,,,,,,,685,2022-02-08_13h12.25.900,multiplicationStroop,2021.2.3,Win32,60.90133983,,,,,,,,,,,,,,,,,,,,,,,,,,,,,,,,,49,1.883,1,0,35,35,33,1,7,×,7,7 × 7,incongruent,tie,1,2,49,,,,,,,,
,,,,,,,,,,,,,,,685,2022-02-08_13h12.25.900,multiplicationStroop,2021.2.3,Win32,60.90133983,,,,,,,,,,,,,,,,,,,,,,,,,,,,,,,,,,,,,,,,,,,,,,,,,,0,0,0,5,1,stimulusFile/mult_blk6_INcongruent.xlsx,,
,,,,,,,,,,,,,,,685,2022-02-08_13h12.25.900,multiplicationStroop,2021.2.3,Win32,60.90133983,,,,,,,,,,,,,,,,,,,,,,,,,,,,,,,space,1.6145,48,2.3092,1,0,0,0,4,1,6,×,8,6 × 8,congruent,smallerFirst,1,2,48,,,,,,,,
,,,,,,,,,,,,,,,685,2022-02-08_13h12.25.900,multiplicationStroop,2021.2.3,Win32,60.90133983,,,,,,,,,,,,,,,,,,,,,,,,,,,,,,,,,27,2.1163,1,0,1,1,12,1,3,×,9,3 × 9,congruent,smallerFirst,1,2,27,,,,,,,,
,,,,,,,,,,,,,,,685,2022-02-08_13h12.25.900,multiplicationStroop,2021.2.3,Win32,60.90133983,,,,,,,,,,,,,,,,,,,,,,,,,,,,,,,,,63,2.466,1,0,2,2,7,1,7,×,9,7 × 9,congruent,smallerFirst,1,2,63,,,,,,,,
,,,,,,,,,,,,,,,685,2022-02-08_13h12.25.900,multiplicationStroop,2021.2.3,Win32,60.90133983,,,,,,,,,,,,,,,,,,,,,,,,,,,,,,,,,16,1.8114,1,0,3,3,30,1,4,×,4,4 × 4,neutral,tie,1,2,16,,,,,,,,
,,,,,,,,,,,,,,,685,2022-02-08_13h12.25.900,multiplicationStroop,2021.2.3,Win32,60.90133983,,,,,,,,,,,,,,,,,,,,,,,,,,,,,,,,,56,1.9661,1,0,4,4,22,1,8,×,7,8 × 7,congruent,largerFirst,2,1,56,,,,,,,,
,,,,,,,,,,,,,,,685,2022-02-08_13h12.25.900,multiplicationStroop,2021.2.3,Win32,60.90133983,,,,,,,,,,,,,,,,,,,,,,,,,,,,,,,,,36,2.666,1,0,5,5,32,1,6,×,6,6 × 6,neutral,tie,1,2,36,,,,,,,,
,,,,,,,,,,,,,,,685,2022-02-08_13h12.25.900,multiplicationStroop,2021.2.3,Win32,60.90133983,,,,,,,,,,,,,,,,,,,,,,,,,,,,,,,,,15,2.0658,1,0,6,6,18,1,5,×,3,5 × 3,congruent,largerFirst,2,1,15,,,,,,,,
,,,,,,,,,,,,,,,685,2022-02-08_13h12.25.900,multiplicationStroop,2021.2.3,Win32,60.90133983,,,,,,,,,,,,,,,,,,,,,,,,,,,,,,,,,18,3.2999,1,0,7,7,25,1,6,×,3,6 × 3,congruent,largerFirst,2,1,18,,,,,,,,
,,,,,,,,,,,,,,,685,2022-02-08_13h12.25.900,multiplicationStroop,2021.2.3,Win32,60.90133983,,,,,,,,,,,,,,,,,,,,,,,,,,,,,,,,,9,1.5271,1,0,8,8,29,1,3,×,3,3 × 3,neutral,tie,1,2,9,,,,,,,,
,,,,,,,,,,,,,,,685,2022-02-08_13h12.25.900,multiplicationStroop,2021.2.3,Win32,60.90133983,,,,,,,,,,,,,,,,,,,,,,,,,,,,,,,,,42,2.1167,1,0,9,9,17,1,7,×,6,7 × 6,congruent,largerFirst,2,1,42,,,,,,,,
,,,,,,,,,,,,,,,685,2022-02-08_13h12.25.900,multiplicationStroop,2021.2.3,Win32,60.90133983,,,,,,,,,,,,,,,,,,,,,,,,,,,,,,,,,8,1.7662,1,0,10,10,23,1,4,×,2,4 × 2,congruent,largerFirst,2,1,8,,,,,,,,
,,,,,,,,,,,,,,,685,2022-02-08_13h12.25.900,multiplicationStroop,2021.2.3,Win32,60.90133983,,,,,,,,,,,,,,,,,,,,,,,,,,,,,,,,,6,2.1158,1,0,11,11,27,1,3,×,2,3 × 2,congruent,largerFirst,2,1,6,,,,,,,,
,,,,,,,,,,,,,,,685,2022-02-08_13h12.25.900,multiplicationStroop,2021.2.3,Win32,60.90133983,,,,,,,,,,,,,,,,,,,,,,,,,,,,,,,,,49,2.4158,1,0,12,12,33,1,7,×,7,7 × 7,neutral,tie,1,2,49,,,,,,,,
,,,,,,,,,,,,,,,685,2022-02-08_13h12.25.900,multiplicationStroop,2021.2.3,Win32,60.90133983,,,,,,,,,,,,,,,,,,,,,,,,,,,,,,,,,28,3.8949,1,0,13,13,13,1,4,×,7,4 × 7,congruent,smallerFirst,1,2,28,,,,,,,,
,,,,,,,,,,,,,,,685,2022-02-08_13h12.25.900,multiplicationStroop,2021.2.3,Win32,60.90133983,,,,,,,,,,,,,,,,,,,,,,,,,,,,,,,,,14,2.8992,1,0,14,14,0,1,2,×,7,2 × 7,congruent,smallerFirst,1,2,14,,,,,,,,
,,,,,,,,,,,,,,,685,2022-02-08_13h12.25.900,multiplicationStroop,2021.2.3,Win32,60.90133983,,,,,,,,,,,,,,,,,,,,,,,,,,,,,,,,,18,6.1276,1,0,15,15,8,1,2,×,9,2 × 9,congruent,smallerFirst,1,2,18,,,,,,,,
,,,,,,,,,,,,,,,685,2022-02-08_13h12.25.900,multiplicationStroop,2021.2.3,Win32,60.90133983,,,,,,,,,,,,,,,,,,,,,,,,,,,,,,,,,30,3.2103,1,0,16,16,1,1,5,×,6,5 × 6,congruent,smallerFirst,1,2,30,,,,,,,,
,,,,,,,,,,,,,,,685,2022-02-08_13h12.25.900,multiplicationStroop,2021.2.3,Win32,60.90133983,,,,,,,,,,,,,,,,,,,,,,,,,,,,,,,,,49,3.2778,0,0,17,17,35,1,9,×,9,9 × 9,neutral,tie,1,2,81,,,,,,,,
,,,,,,,,,,,,,,,685,2022-02-08_13h12.25.900,multiplicationStroop,2021.2.3,Win32,60.90133983,,,,,,,,,,,,,,,,,,,,,,,,,,,,,,,,,35,2.2983,1,0,18,18,15,1,7,×,5,7 × 5,congruent,largerFirst,2,1,35,,,,,,,,
,,,,,,,,,,,,,,,685,2022-02-08_13h12.25.900,multiplicationStroop,2021.2.3,Win32,60.90133983,,,,,,,,,,,,,,,,,,,,,,,,,,,,,,,,,21,1.5163,1,0,19,19,2,1,3,×,7,3 × 7,congruent,smallerFirst,1,2,21,,,,,,,,
,,,,,,,,,,,,,,,685,2022-02-08_13h12.25.900,multiplicationStroop,2021.2.3,Win32,60.90133983,,,,,,,,,,,,,,,,,,,,,,,,,,,,,,,,,45,2.1997,1,0,20,20,9,1,5,×,9,5 × 9,congruent,smallerFirst,1,2,45,,,,,,,,
,,,,,,,,,,,,,,,685,2022-02-08_13h12.25.900,multiplicationStroop,2021.2.3,Win32,60.90133983,,,,,,,,,,,,,,,,,,,,,,,,,,,,,,,,,4,1.6167,1,0,21,21,28,1,2,×,2,2 × 2,neutral,tie,1,2,4,,,,,,,,
,,,,,,,,,,,,,,,685,2022-02-08_13h12.25.900,multiplicationStroop,2021.2.3,Win32,60.90133983,,,,,,,,,,,,,,,,,,,,,,,,,,,,,,,,,12,1.6157,1,0,22,22,5,1,2,×,6,2 × 6,congruent,smallerFirst,1,2,12,,,,,,,,
,,,,,,,,,,,,,,,685,2022-02-08_13h12.25.900,multiplicationStroop,2021.2.3,Win32,60.90133983,,,,,,,,,,,,,,,,,,,,,,,,,,,,,,,,,64,2.6496,1,0,23,23,34,1,8,×,8,8 × 8,neutral,tie,1,2,64,,,,,,,,
,,,,,,,,,,,,,,,685,2022-02-08_13h12.25.900,multiplicationStroop,2021.2.3,Win32,60.90133983,,,,,,,,,,,,,,,,,,,,,,,,,,,,,,,,,24,1.9323,1,0,24,24,24,1,8,×,3,8 × 3,congruent,largerFirst,2,1,24,,,,,,,,
,,,,,,,,,,,,,,,685,2022-02-08_13h12.25.900,multiplicationStroop,2021.2.3,Win32,60.90133983,,,,,,,,,,,,,,,,,,,,,,,,,,,,,,,,,20,1.6663,1,0,25,25,21,1,5,×,4,5 × 4,congruent,largerFirst,2,1,20,,,,,,,,
,,,,,,,,,,,,,,,685,2022-02-08_13h12.25.900,multiplicationStroop,2021.2.3,Win32,60.90133983,,,,,,,,,,,,,,,,,,,,,,,,,,,,,,,,,72,2.5992,1,0,26,26,3,1,8,×,9,8 × 9,congruent,smallerFirst,1,2,72,,,,,,,,
,,,,,,,,,,,,,,,685,2022-02-08_13h12.25.900,multiplicationStroop,2021.2.3,Win32,60.90133983,,,,,,,,,,,,,,,,,,,,,,,,,,,,,,,,,24,2.083,1,0,27,27,11,1,4,×,6,4 × 6,congruent,smallerFirst,1,2,24,,,,,,,,
,,,,,,,,,,,,,,,685,2022-02-08_13h12.25.900,multiplicationStroop,2021.2.3,Win32,60.90133983,,,,,,,,,,,,,,,,,,,,,,,,,,,,,,,,,16,2.033,1,0,28,28,19,1,8,×,2,8 × 2,congruent,largerFirst,2,1,16,,,,,,,,
,,,,,,,,,,,,,,,685,2022-02-08_13h12.25.900,multiplicationStroop,2021.2.3,Win32,60.90133983,,,,,,,,,,,,,,,,,,,,,,,,,,,,,,,,,32,1.7655,1,0,29,29,6,1,4,×,8,4 × 8,congruent,smallerFirst,1,2,32,,,,,,,,
,,,,,,,,,,,,,,,685,2022-02-08_13h12.25.900,multiplicationStroop,2021.2.3,Win32,60.90133983,,,,,,,,,,,,,,,,,,,,,,,,,,,,,,,,,12,1.6496,1,0,30,30,16,1,4,×,3,4 × 3,congruent,largerFirst,2,1,12,,,,,,,,
,,,,,,,,,,,,,,,685,2022-02-08_13h12.25.900,multiplicationStroop,2021.2.3,Win32,60.90133983,,,,,,,,,,,,,,,,,,,,,,,,,,,,,,,,,36,4.1154,1,0,31,31,14,1,9,×,4,9 × 4,congruent,largerFirst,2,1,36,,,,,,,,
,,,,,,,,,,,,,,,685,2022-02-08_13h12.25.900,multiplicationStroop,2021.2.3,Win32,60.90133983,,,,,,,,,,,,,,,,,,,,,,,,,,,,,,,,,40,1.9445,1,0,32,32,20,1,8,×,5,8 × 5,congruent,largerFirst,2,1,40,,,,,,,,
,,,,,,,,,,,,,,,685,2022-02-08_13h12.25.900,multiplicationStroop,2021.2.3,Win32,60.90133983,,,,,,,,,,,,,,,,,,,,,,,,,,,,,,,,,54,2.0662,1,0,33,33,26,1,9,×,6,9 × 6,congruent,largerFirst,2,1,54,,,,,,,,
,,,,,,,,,,,,,,,685,2022-02-08_13h12.25.900,multiplicationStroop,2021.2.3,Win32,60.90133983,,,,,,,,,,,,,,,,,,,,,,,,,,,,,,,,,10,1.6506,1,0,34,34,10,1,2,×,5,2 × 5,congruent,smallerFirst,1,2,10,,,,,,,,
,,,,,,,,,,,,,,,685,2022-02-08_13h12.25.900,multiplicationStroop,2021.2.3,Win32,60.90133983,,,,,,,,,,,,,,,,,,,,,,,,,,,,,,,,,25,2.1659,1,0,35,35,31,1,5,×,5,5 × 5,neutral,tie,1,2,25,,,,,,,,
,,,,,,,,,,,,,,,685,2022-02-08_13h12.25.900,multiplicationStroop,2021.2.3,Win32,60.90133983,,,,,,,,,,,,,,,,,,,,,,,,,,,,,,,,,,,,,,,,,,,,,,,,,,0,1,1,3,1,stimulusFile/mult_blk4_congruent.xlsx,,
,,,,,,,,,,,,,,,685,2022-02-08_13h12.25.900,multiplicationStroop,2021.2.3,Win32,60.90133983,,,,,,,,,,,,,,,,,,,,,,,,,,,,,,,space,2.939,25,1.775,1,0,0,0,31,1,5,×,5,5 × 5,neutral,tie,2,1,25,,,,,,,,
,,,,,,,,,,,,,,,685,2022-02-08_13h12.25.900,multiplicationStroop,2021.2.3,Win32,60.90133983,,,,,,,,,,,,,,,,,,,,,,,,,,,,,,,,,9,1.5825,1,0,1,1,29,1,3,×,3,3 × 3,neutral,tie,2,1,9,,,,,,,,
,,,,,,,,,,,,,,,685,2022-02-08_13h12.25.900,multiplicationStroop,2021.2.3,Win32,60.90133983,,,,,,,,,,,,,,,,,,,,,,,,,,,,,,,,,20,1.6326,1,0,2,2,7,1,4,×,5,4 × 5,congruent,smallerFirst,1,2,20,,,,,,,,
,,,,,,,,,,,,,,,685,2022-02-08_13h12.25.900,multiplicationStroop,2021.2.3,Win32,60.90133983,,,,,,,,,,,,,,,,,,,,,,,,,,,,,,,,,42,1.6501,1,0,3,3,3,1,6,×,7,6 × 7,congruent,smallerFirst,1,2,42,,,,,,,,
,,,,,,,,,,,,,,,685,2022-02-08_13h12.25.900,multiplicationStroop,2021.2.3,Win32,60.90133983,,,,,,,,,,,,,,,,,,,,,,,,,,,,,,,,,16,2.1987,1,0,4,4,5,1,2,×,8,2 × 8,congruent,smallerFirst,1,2,16,,,,,,,,
,,,,,,,,,,,,,,,685,2022-02-08_13h12.25.900,multiplicationStroop,2021.2.3,Win32,60.90133983,,,,,,,,,,,,,,,,,,,,,,,,,,,,,,,,,8,1.5667,1,0,5,5,9,1,2,×,4,2 × 4,congruent,smallerFirst,1,2,8,,,,,,,,
,,,,,,,,,,,,,,,685,2022-02-08_13h12.25.900,multiplicationStroop,2021.2.3,Win32,60.90133983,,,,,,,,,,,,,,,,,,,,,,,,,,,,,,,,,18,2.0994,1,0,6,6,22,1,9,×,2,9 × 2,congruent,largerFirst,2,1,18,,,,,,,,
,,,,,,,,,,,,,,,685,2022-02-08_13h12.25.900,multiplicationStroop,2021.2.3,Win32,60.90133983,,,,,,,,,,,,,,,,,,,,,,,,,,,,,,,,,16,2.0163,1,0,7,7,30,1,4,×,4,4 × 4,neutral,tie,2,1,16,,,,,,,,
,,,,,,,,,,,,,,,685,2022-02-08_13h12.25.900,multiplicationStroop,2021.2.3,Win32,60.90133983,,,,,,,,,,,,,,,,,,,,,,,,,,,,,,,,,6,1.7162,1,0,8,8,13,1,2,×,3,2 × 3,congruent,smallerFirst,1,2,6,,,,,,,,
,,,,,,,,,,,,,,,685,2022-02-08_13h12.25.900,multiplicationStroop,2021.2.3,Win32,60.90133983,,,,,,,,,,,,,,,,,,,,,,,,,,,,,,,,,21,1.5332,1,0,9,9,16,1,7,×,3,7 × 3,congruent,largerFirst,2,1,21,,,,,,,,
,,,,,,,,,,,,,,,685,2022-02-08_13h12.25.900,multiplicationStroop,2021.2.3,Win32,60.90133983,,,,,,,,,,,,,,,,,,,,,,,,,,,,,,,,,45,2.0824,1,0,10,10,23,1,9,×,5,9 × 5,congruent,largerFirst,2,1,45,,,,,,,,
,,,,,,,,,,,,,,,685,2022-02-08_13h12.25.900,multiplicationStroop,2021.2.3,Win32,60.90133983,,,,,,,,,,,,,,,,,,,,,,,,,,,,,,,,,49,2.1662,1,0,11,11,33,1,7,×,7,7 × 7,neutral,tie,2,1,49,,,,,,,,
,,,,,,,,,,,,,,,685,2022-02-08_13h12.25.900,multiplicationStroop,2021.2.3,Win32,60.90133983,,,,,,,,,,,,,,,,,,,,,,,,,,,,,,,,,56,2.0613,1,0,12,12,8,1,7,×,8,7 × 8,congruent,smallerFirst,1,2,56,,,,,,,,
,,,,,,,,,,,,,,,685,2022-02-08_13h12.25.900,multiplicationStroop,2021.2.3,Win32,60.90133983,,,,,,,,,,,,,,,,,,,,,,,,,,,,,,,,,24,2.7158,1,0,13,13,25,1,6,×,4,6 × 4,congruent,largerFirst,2,1,24,,,,,,,,
,,,,,,,,,,,,,,,685,2022-02-08_13h12.25.900,multiplicationStroop,2021.2.3,Win32,60.90133983,,,,,,,,,,,,,,,,,,,,,,,,,,,,,,,,,64,2.0167,1,0,14,14,34,1,8,×,8,8 × 8,neutral,tie,2,1,64,,,,,,,,
,,,,,,,,,,,,,,,685,2022-02-08_13h12.25.900,multiplicationStroop,2021.2.3,Win32,60.90133983,,,,,,,,,,,,,,,,,,,,,,,,,,,,,,,,,18,2.4323,1,0,15,15,11,1,3,×,6,3 × 6,congruent,smallerFirst,1,2,18,,,,,,,,
,,,,,,,,,,,,,,,685,2022-02-08_13h12.25.900,multiplicationStroop,2021.2.3,Win32,60.90133983,,,,,,,,,,,,,,,,,,,,,,,,,,,,,,,,,35,3.4665,1,0,16,16,1,1,5,×,7,5 × 7,congruent,smallerFirst,1,2,35,,,,,,,,
,,,,,,,,,,,,,,,685,2022-02-08_13h12.25.900,multiplicationStroop,2021.2.3,Win32,60.90133983,,,,,,,,,,,,,,,,,,,,,,,,,,,,,,,,,12,2.2109,1,0,17,17,2,1,3,×,4,3 × 4,congruent,smallerFirst,1,2,12,,,,,,,,
,,,,,,,,,,,,,,,685,2022-02-08_13h12.25.900,multiplicationStroop,2021.2.3,Win32,60.90133983,,,,,,,,,,,,,,,,,,,,,,,,,,,,,,,,,63,2.3332,1,0,18,18,21,1,9,×,7,9 × 7,congruent,largerFirst,2,1,63,,,,,,,,
,,,,,,,,,,,,,,,685,2022-02-08_13h12.25.900,multiplicationStroop,2021.2.3,Win32,60.90133983,,,,,,,,,,,,,,,,,,,,,,,,,,,,,,,,,40,1.8991,1,0,19,19,6,1,5,×,8,5 × 8,congruent,smallerFirst,1,2,40,,,,,,,,
,,,,,,,,,,,,,,,685,2022-02-08_13h12.25.900,multiplicationStroop,2021.2.3,Win32,60.90133983,,,,,,,,,,,,,,,,,,,,,,,,,,,,,,,,,27,2.3663,1,0,20,20,26,1,9,×,3,9 × 3,congruent,largerFirst,2,1,27,,,,,,,,
,,,,,,,,,,,,,,,685,2022-02-08_13h12.25.900,multiplicationStroop,2021.2.3,Win32,60.90133983,,,,,,,,,,,,,,,,,,,,,,,,,,,,,,,,,10,1.6328,1,0,21,21,24,1,5,×,2,5 × 2,congruent,largerFirst,2,1,10,,,,,,,,
,,,,,,,,,,,,,,,685,2022-02-08_13h12.25.900,multiplicationStroop,2021.2.3,Win32,60.90133983,,,,,,,,,,,,,,,,,,,,,,,,,,,,,,,,,15,1.5327,1,0,22,22,4,1,3,×,5,3 × 5,congruent,smallerFirst,1,2,15,,,,,,,,
,,,,,,,,,,,,,,,685,2022-02-08_13h12.25.900,multiplicationStroop,2021.2.3,Win32,60.90133983,,,,,,,,,,,,,,,,,,,,,,,,,,,,,,,,,36,2.2996,1,0,23,23,32,1,6,×,6,6 × 6,neutral,tie,2,1,36,,,,,,,,
,,,,,,,,,,,,,,,685,2022-02-08_13h12.25.900,multiplicationStroop,2021.2.3,Win32,60.90133983,,,,,,,,,,,,,,,,,,,,,,,,,,,,,,,,,48,2.1828,1,0,24,24,18,1,8,×,6,8 × 6,congruent,largerFirst,2,1,48,,,,,,,,
,,,,,,,,,,,,,,,685,2022-02-08_13h12.25.900,multiplicationStroop,2021.2.3,Win32,60.90133983,,,,,,,,,,,,,,,,,,,,,,,,,,,,,,,,,4,1.4328,1,0,25,25,28,1,2,×,2,2 × 2,neutral,tie,2,1,4,,,,,,,,
,,,,,,,,,,,,,,,685,2022-02-08_13h12.25.900,multiplicationStroop,2021.2.3,Win32,60.90133983,,,,,,,,,,,,,,,,,,,,,,,,,,,,,,,,,32,1.7327,1,0,26,26,20,1,8,×,4,8 × 4,congruent,largerFirst,2,1,32,,,,,,,,
,,,,,,,,,,,,,,,685,2022-02-08_13h12.25.900,multiplicationStroop,2021.2.3,Win32,60.90133983,,,,,,,,,,,,,,,,,,,,,,,,,,,,,,,,,14,1.5997,1,0,27,27,14,1,7,×,2,7 × 2,congruent,largerFirst,2,1,14,,,,,,,,
,,,,,,,,,,,,,,,685,2022-02-08_13h12.25.900,multiplicationStroop,2021.2.3,Win32,60.90133983,,,,,,,,,,,,,,,,,,,,,,,,,,,,,,,,,81,2.0993,1,0,28,28,35,1,9,×,9,9 × 9,neutral,tie,2,1,81,,,,,,,,
,,,,,,,,,,,,,,,685,2022-02-08_13h12.25.900,multiplicationStroop,2021.2.3,Win32,60.90133983,,,,,,,,,,,,,,,,,,,,,,,,,,,,,,,,,12,2.4932,1,0,29,29,19,1,6,×,2,6 × 2,congruent,largerFirst,2,1,12,,,,,,,,
,,,,,,,,,,,,,,,685,2022-02-08_13h12.25.900,multiplicationStroop,2021.2.3,Win32,60.90133983,,,,,,,,,,,,,,,,,,,,,,,,,,,,,,,,,24,2.0161,1,0,30,30,10,1,3,×,8,3 × 8,congruent,smallerFirst,1,2,24,,,,,,,,
,,,,,,,,,,,,,,,685,2022-02-08_13h12.25.900,multiplicationStroop,2021.2.3,Win32,60.90133983,,,,,,,,,,,,,,,,,,,,,,,,,,,,,,,,,36,1.8665,1,0,31,31,0,1,4,×,9,4 × 9,congruent,smallerFirst,1,2,36,,,,,,,,
,,,,,,,,,,,,,,,685,2022-02-08_13h12.25.900,multiplicationStroop,2021.2.3,Win32,60.90133983,,,,,,,,,,,,,,,,,,,,,,,,,,,,,,,,,28,2.4001,1,0,32,32,27,1,7,×,4,7 × 4,congruent,largerFirst,2,1,28,,,,,,,,
,,,,,,,,,,,,,,,685,2022-02-08_13h12.25.900,multiplicationStroop,2021.2.3,Win32,60.90133983,,,,,,,,,,,,,,,,,,,,,,,,,,,,,,,,,54,1.8158,1,0,33,33,12,1,6,×,9,6 × 9,congruent,smallerFirst,1,2,54,,,,,,,,
,,,,,,,,,,,,,,,685,2022-02-08_13h12.25.900,multiplicationStroop,2021.2.3,Win32,60.90133983,,,,,,,,,,,,,,,,,,,,,,,,,,,,,,,,,7,2.4664,0,0,34,34,17,1,9,×,8,9 × 8,congruent,largerFirst,2,1,72,,,,,,,,
,,,,,,,,,,,,,,,685,2022-02-08_13h12.25.900,multiplicationStroop,2021.2.3,Win32,60.90133983,,,,,,,,,,,,,,,,,,,,,,,,,,,,,,,,,30,2.3493,1,0,35,35,15,1,6,×,5,6 × 5,congruent,largerFirst,2,1,30,,,,,,,,
,,,,,,,,,,,,,,,685,2022-02-08_13h12.25.900,multiplicationStroop,2021.2.3,Win32,60.90133983,,,,,,,,,,,,,,,,,,,,,,,,,,,,,,,,,,,,,,,,,,,,,,,,,,0,2,2,2,1,stimulusFile/mult_blk3_congruent.xlsx,,
,,,,,,,,,,,,,,,685,2022-02-08_13h12.25.900,multiplicationStroop,2021.2.3,Win32,60.90133983,,,,,,,,,,,,,,,,,,,,,,,,,,,,,,,space,3.1029,16,2.1365,1,0,0,0,30,1,4,×,4,4 × 4,neutral,tie,2,1,16,,,,,,,,
,,,,,,,,,,,,,,,685,2022-02-08_13h12.25.900,multiplicationStroop,2021.2.3,Win32,60.90133983,,,,,,,,,,,,,,,,,,,,,,,,,,,,,,,,,12,1.3661,1,0,1,1,5,1,2,×,6,2 × 6,incongruent,smallerFirst,2,1,12,,,,,,,,
,,,,,,,,,,,,,,,685,2022-02-08_13h12.25.900,multiplicationStroop,2021.2.3,Win32,60.90133983,,,,,,,,,,,,,,,,,,,,,,,,,,,,,,,,,4,1.3163,1,0,2,2,28,1,2,×,2,2 × 2,neutral,tie,2,1,4,,,,,,,,
,,,,,,,,,,,,,,,685,2022-02-08_13h12.25.900,multiplicationStroop,2021.2.3,Win32,60.90133983,,,,,,,,,,,,,,,,,,,,,,,,,,,,,,,,,3,1.6994,0,0,3,3,26,1,7,×,5,7 × 5,incongruent,largerFirst,1,2,35,,,,,,,,
,,,,,,,,,,,,,,,685,2022-02-08_13h12.25.900,multiplicationStroop,2021.2.3,Win32,60.90133983,,,,,,,,,,,,,,,,,,,,,,,,,,,,,,,,,25,2.0328,1,0,4,4,31,1,5,×,5,5 × 5,neutral,tie,2,1,25,,,,,,,,
,,,,,,,,,,,,,,,685,2022-02-08_13h12.25.900,multiplicationStroop,2021.2.3,Win32,60.90133983,,,,,,,,,,,,,,,,,,,,,,,,,,,,,,,,,8,2.0328,1,0,5,5,10,1,2,×,4,2 × 4,incongruent,smallerFirst,2,1,8,,,,,,,,
,,,,,,,,,,,,,,,685,2022-02-08_13h12.25.900,multiplicationStroop,2021.2.3,Win32,60.90133983,,,,,,,,,,,,,,,,,,,,,,,,,,,,,,,,,21,1.6834,1,0,6,6,12,1,3,×,7,3 × 7,incongruent,smallerFirst,2,1,21,,,,,,,,
,,,,,,,,,,,,,,,685,2022-02-08_13h12.25.900,multiplicationStroop,2021.2.3,Win32,60.90133983,,,,,,,,,,,,,,,,,,,,,,,,,,,,,,,,,16,1.8494,1,0,7,7,9,1,2,×,8,2 × 8,incongruent,smallerFirst,2,1,16,,,,,,,,
,,,,,,,,,,,,,,,685,2022-02-08_13h12.25.900,multiplicationStroop,2021.2.3,Win32,60.90133983,,,,,,,,,,,,,,,,,,,,,,,,,,,,,,,,,18,2.0996,1,0,8,8,22,1,6,×,3,6 × 3,incongruent,largerFirst,1,2,18,,,,,,,,
,,,,,,,,,,,,,,,685,2022-02-08_13h12.25.900,multiplicationStroop,2021.2.3,Win32,60.90133983,,,,,,,,,,,,,,,,,,,,,,,,,,,,,,,,,24,3.0326,1,0,9,9,6,1,4,×,6,4 × 6,incongruent,smallerFirst,2,1,24,,,,,,,,
,,,,,,,,,,,,,,,685,2022-02-08_13h12.25.900,multiplicationStroop,2021.2.3,Win32,60.90133983,,,,,,,,,,,,,,,,,,,,,,,,,,,,,,,,,12,1.7825,1,0,10,10,19,1,4,×,3,4 × 3,incongruent,largerFirst,1,2,12,,,,,,,,
,,,,,,,,,,,,,,,685,2022-02-08_13h12.25.900,multiplicationStroop,2021.2.3,Win32,60.90133983,,,,,,,,,,,,,,,,,,,,,,,,,,,,,,,,,15,1.5168,1,0,11,11,24,1,5,×,3,5 × 3,incongruent,largerFirst,1,2,15,,,,,,,,
,,,,,,,,,,,,,,,685,2022-02-08_13h12.25.900,multiplicationStroop,2021.2.3,Win32,60.90133983,,,,,,,,,,,,,,,,,,,,,,,,,,,,,,,,,6,2.0993,1,0,12,12,25,1,3,×,2,3 × 2,incongruent,largerFirst,1,2,6,,,,,,,,
,,,,,,,,,,,,,,,685,2022-02-08_13h12.25.900,multiplicationStroop,2021.2.3,Win32,60.90133983,,,,,,,,,,,,,,,,,,,,,,,,,,,,,,,,,54,2.9661,1,0,13,13,20,1,9,×,6,9 × 6,incongruent,largerFirst,1,2,54,,,,,,,,
,,,,,,,,,,,,,,,685,2022-02-08_13h12.25.900,multiplicationStroop,2021.2.3,Win32,60.90133983,,,,,,,,,,,,,,,,,,,,,,,,,,,,,,,,,36,1.7106,1,0,14,14,32,1,6,×,6,6 × 6,neutral,tie,2,1,36,,,,,,,,
,,,,,,,,,,,,,,,685,2022-02-08_13h12.25.900,multiplicationStroop,2021.2.3,Win32,60.90133983,,,,,,,,,,,,,,,,,,,,,,,,,,,,,,,,,18,2.0487,1,0,15,15,16,1,9,×,2,9 × 2,incongruent,largerFirst,1,2,18,,,,,,,,
,,,,,,,,,,,,,,,685,2022-02-08_13h12.25.900,multiplicationStroop,2021.2.3,Win32,60.90133983,,,,,,,,,,,,,,,,,,,,,,,,,,,,,,,,,56,2.0497,1,0,16,16,0,1,7,×,8,7 × 8,incongruent,smallerFirst,2,1,56,,,,,,,,
,,,,,,,,,,,,,,,685,2022-02-08_13h12.25.900,multiplicationStroop,2021.2.3,Win32,60.90133983,,,,,,,,,,,,,,,,,,,,,,,,,,,,,,,,,9,1.9167,1,0,17,17,29,1,3,×,3,3 × 3,neutral,tie,2,1,9,,,,,,,,
,,,,,,,,,,,,,,,685,2022-02-08_13h12.25.900,multiplicationStroop,2021.2.3,Win32,60.90133983,,,,,,,,,,,,,,,,,,,,,,,,,,,,,,,,,20,2.3828,1,0,18,18,13,1,4,×,5,4 × 5,incongruent,smallerFirst,2,1,20,,,,,,,,
,,,,,,,,,,,,,,,685,2022-02-08_13h12.25.900,multiplicationStroop,2021.2.3,Win32,60.90133983,,,,,,,,,,,,,,,,,,,,,,,,,,,,,,,,,64,2.0442,1,0,19,19,34,1,8,×,8,8 × 8,neutral,tie,2,1,64,,,,,,,,
,,,,,,,,,,,,,,,685,2022-02-08_13h12.25.900,multiplicationStroop,2021.2.3,Win32,60.90133983,,,,,,,,,,,,,,,,,,,,,,,,,,,,,,,,,14,1.7332,1,0,20,20,18,1,7,×,2,7 × 2,incongruent,largerFirst,1,2,14,,,,,,,,
,,,,,,,,,,,,,,,685,2022-02-08_13h12.25.900,multiplicationStroop,2021.2.3,Win32,60.90133983,,,,,,,,,,,,,,,,,,,,,,,,,,,,,,,,,45,2.4994,1,0,21,21,8,1,5,×,9,5 × 9,incongruent,smallerFirst,2,1,45,,,,,,,,
,,,,,,,,,,,,,,,685,2022-02-08_13h12.25.900,multiplicationStroop,2021.2.3,Win32,60.90133983,,,,,,,,,,,,,,,,,,,,,,,,,,,,,,,,,48,2.3994,1,0,22,22,15,1,8,×,6,8 × 6,incongruent,largerFirst,1,2,48,,,,,,,,
,,,,,,,,,,,,,,,685,2022-02-08_13h12.25.900,multiplicationStroop,2021.2.3,Win32,60.90133983,,,,,,,,,,,,,,,,,,,,,,,,,,,,,,,,,24,1.6822,1,0,23,23,23,1,8,×,3,8 × 3,incongruent,largerFirst,1,2,24,,,,,,,,
,,,,,,,,,,,,,,,685,2022-02-08_13h12.25.900,multiplicationStroop,2021.2.3,Win32,60.90133983,,,,,,,,,,,,,,,,,,,,,,,,,,,,,,,,,32,1.8498,0,0,24,24,2,1,4,×,7,4 × 7,incongruent,smallerFirst,2,1,28,,,,,,,,
,,,,,,,,,,,,,,,685,2022-02-08_13h12.25.900,multiplicationStroop,2021.2.3,Win32,60.90133983,,,,,,,,,,,,,,,,,,,,,,,,,,,,,,,,,10,2.2165,1,0,25,25,7,1,2,×,5,2 × 5,incongruent,smallerFirst,2,1,10,,,,,,,,
,,,,,,,,,,,,,,,685,2022-02-08_13h12.25.900,multiplicationStroop,2021.2.3,Win32,60.90133983,,,,,,,,,,,,,,,,,,,,,,,,,,,,,,,,,40,2.4662,1,0,26,26,27,1,8,×,5,8 × 5,incongruent,largerFirst,1,2,40,,,,,,,,
,,,,,,,,,,,,,,,685,2022-02-08_13h12.25.900,multiplicationStroop,2021.2.3,Win32,60.90133983,,,,,,,,,,,,,,,,,,,,,,,,,,,,,,,,,81,1.6659,1,0,27,27,35,1,9,×,9,9 × 9,neutral,tie,2,1,81,,,,,,,,
,,,,,,,,,,,,,,,685,2022-02-08_13h12.25.900,multiplicationStroop,2021.2.3,Win32,60.90133983,,,,,,,,,,,,,,,,,,,,,,,,,,,,,,,,,36,2.7997,1,0,28,28,1,1,4,×,9,4 × 9,incongruent,smallerFirst,2,1,36,,,,,,,,
,,,,,,,,,,,,,,,685,2022-02-08_13h12.25.900,multiplicationStroop,2021.2.3,Win32,60.90133983,,,,,,,,,,,,,,,,,,,,,,,,,,,,,,,,,30,1.816,1,0,29,29,11,1,5,×,6,5 × 6,incongruent,smallerFirst,2,1,30,,,,,,,,
,,,,,,,,,,,,,,,685,2022-02-08_13h12.25.900,multiplicationStroop,2021.2.3,Win32,60.90133983,,,,,,,,,,,,,,,,,,,,,,,,,,,,,,,,,42,2.5989,1,0,30,30,3,1,6,×,7,6 × 7,incongruent,smallerFirst,2,1,42,,,,,,,,
,,,,,,,,,,,,,,,685,2022-02-08_13h12.25.900,multiplicationStroop,2021.2.3,Win32,60.90133983,,,,,,,,,,,,,,,,,,,,,,,,,,,,,,,,,27,2.7287,1,0,31,31,4,1,3,×,9,3 × 9,incongruent,smallerFirst,2,1,27,,,,,,,,
,,,,,,,,,,,,,,,685,2022-02-08_13h12.25.900,multiplicationStroop,2021.2.3,Win32,60.90133983,,,,,,,,,,,,,,,,,,,,,,,,,,,,,,,,,72,3.733,1,0,32,32,14,1,9,×,8,9 × 8,incongruent,largerFirst,1,2,72,,,,,,,,
,,,,,,,,,,,,,,,685,2022-02-08_13h12.25.900,multiplicationStroop,2021.2.3,Win32,60.90133983,,,,,,,,,,,,,,,,,,,,,,,,,,,,,,,,,32,2.2106,1,0,33,33,21,1,8,×,4,8 × 4,incongruent,largerFirst,1,2,32,,,,,,,,
,,,,,,,,,,,,,,,685,2022-02-08_13h12.25.900,multiplicationStroop,2021.2.3,Win32,60.90133983,,,,,,,,,,,,,,,,,,,,,,,,,,,,,,,,,49,2.9499,1,0,34,34,33,1,7,×,7,7 × 7,neutral,tie,2,1,49,,,,,,,,
,,,,,,,,,,,,,,,685,2022-02-08_13h12.25.900,multiplicationStroop,2021.2.3,Win32,60.90133983,,,,,,,,,,,,,,,,,,,,,,,,,,,,,,,,,63,2.5155,1,0,35,35,17,1,9,×,7,9 × 7,incongruent,largerFirst,1,2,63,,,,,,,,
,,,,,,,,,,,,,,,685,2022-02-08_13h12.25.900,multiplicationStroop,2021.2.3,Win32,60.90133983,,,,,,,,,,,,,,,,,,,,,,,,,,,,,,,,,,,,,,,,,,,,,,,,,,0,3,3,4,1,stimulusFile/mult_blk5_INcongruent.xlsx,,
,,,,,,,,,,,,,,,685,2022-02-08_13h12.25.900,multiplicationStroop,2021.2.3,Win32,60.90133983,,,,,,,,,,,,,,,,,,,,,,,,,,,,,,,space,1.7394,30,1.9424,1,0,0,0,19,1,6,×,5,6 × 5,neutral,largerFirst,1.5,1.5,30,,,,,,,,
,,,,,,,,,,,,,,,685,2022-02-08_13h12.25.900,multiplicationStroop,2021.2.3,Win32,60.90133983,,,,,,,,,,,,,,,,,,,,,,,,,,,,,,,,,10,1.4332,1,0,1,1,4,1,2,×,5,2 × 5,neutral,smallerFirst,1.5,1.5,10,,,,,,,,
,,,,,,,,,,,,,,,685,2022-02-08_13h12.25.900,multiplicationStroop,2021.2.3,Win32,60.90133983,,,,,,,,,,,,,,,,,,,,,,,,,,,,,,,,,56,2.3661,1,0,2,2,9,1,7,×,8,7 × 8,neutral,smallerFirst,1.5,1.5,56,,,,,,,,
,,,,,,,,,,,,,,,685,2022-02-08_13h12.25.900,multiplicationStroop,2021.2.3,Win32,60.90133983,,,,,,,,,,,,,,,,,,,,,,,,,,,,,,,,,15,1.5666,1,0,3,3,5,1,3,×,5,3 × 5,neutral,smallerFirst,1.5,1.5,15,,,,,,,,
,,,,,,,,,,,,,,,685,2022-02-08_13h12.25.900,multiplicationStroop,2021.2.3,Win32,60.90133983,,,,,,,,,,,,,,,,,,,,,,,,,,,,,,,,,9,1.7155,1,0,4,4,29,1,3,×,3,3 × 3,neutral,tie,1.5,1.5,9,,,,,,,,
,,,,,,,,,,,,,,,685,2022-02-08_13h12.25.900,multiplicationStroop,2021.2.3,Win32,60.90133983,,,,,,,,,,,,,,,,,,,,,,,,,,,,,,,,,81,1.6835,1,0,5,5,35,1,9,×,9,9 × 9,neutral,tie,1.5,1.5,81,,,,,,,,
,,,,,,,,,,,,,,,685,2022-02-08_13h12.25.900,multiplicationStroop,2021.2.3,Win32,60.90133983,,,,,,,,,,,,,,,,,,,,,,,,,,,,,,,,,36,2.7659,1,0,6,6,27,1,9,×,4,9 × 4,neutral,largerFirst,1.5,1.5,36,,,,,,,,
,,,,,,,,,,,,,,,685,2022-02-08_13h12.25.900,multiplicationStroop,2021.2.3,Win32,60.90133983,,,,,,,,,,,,,,,,,,,,,,,,,,,,,,,,,6,1.5999,1,0,7,7,26,1,3,×,2,3 × 2,neutral,largerFirst,1.5,1.5,6,,,,,,,,
,,,,,,,,,,,,,,,685,2022-02-08_13h12.25.900,multiplicationStroop,2021.2.3,Win32,60.90133983,,,,,,,,,,,,,,,,,,,,,,,,,,,,,,,,,13,1.4496,0,0,8,8,21,1,4,×,3,4 × 3,neutral,largerFirst,1.5,1.5,12,,,,,,,,
,,,,,,,,,,,,,,,685,2022-02-08_13h12.25.900,multiplicationStroop,2021.2.3,Win32,60.90133983,,,,,,,,,,,,,,,,,,,,,,,,,,,,,,,,,25,2.3325,1,0,9,9,31,1,5,×,5,5 × 5,neutral,tie,1.5,1.5,25,,,,,,,,
,,,,,,,,,,,,,,,685,2022-02-08_13h12.25.900,multiplicationStroop,2021.2.3,Win32,60.90133983,,,,,,,,,,,,,,,,,,,,,,,,,,,,,,,,,27,1.916,1,0,10,10,14,1,9,×,3,9 × 3,neutral,largerFirst,1.5,1.5,27,,,,,,,,
,,,,,,,,,,,,,,,685,2022-02-08_13h12.25.900,multiplicationStroop,2021.2.3,Win32,60.90133983,,,,,,,,,,,,,,,,,,,,,,,,,,,,,,,,,48,2.15,1,0,11,11,15,1,8,×,6,8 × 6,neutral,largerFirst,1.5,1.5,48,,,,,,,,
,,,,,,,,,,,,,,,685,2022-02-08_13h12.25.900,multiplicationStroop,2021.2.3,Win32,60.90133983,,,,,,,,,,,,,,,,,,,,,,,,,,,,,,,,,8,1.7328,1,0,12,12,3,1,2,×,4,2 × 4,neutral,smallerFirst,1.5,1.5,8,,,,,,,,
,,,,,,,,,,,,,,,685,2022-02-08_13h12.25.900,multiplicationStroop,2021.2.3,Win32,60.90133983,,,,,,,,,,,,,,,,,,,,,,,,,,,,,,,,,42,2.7166,1,0,13,13,6,1,6,×,7,6 × 7,neutral,smallerFirst,1.5,1.5,42,,,,,,,,
,,,,,,,,,,,,,,,685,2022-02-08_13h12.25.900,multiplicationStroop,2021.2.3,Win32,60.90133983,,,,,,,,,,,,,,,,,,,,,,,,,,,,,,,,,40,2.0659,1,0,14,14,24,1,8,×,5,8 × 5,neutral,largerFirst,1.5,1.5,40,,,,,,,,
,,,,,,,,,,,,,,,685,2022-02-08_13h12.25.900,multiplicationStroop,2021.2.3,Win32,60.90133983,,,,,,,,,,,,,,,,,,,,,,,,,,,,,,,,,63,2.1327,1,0,15,15,12,1,7,×,9,7 × 9,neutral,smallerFirst,1.5,1.5,63,,,,,,,,
,,,,,,,,,,,,,,,685,2022-02-08_13h12.25.900,multiplicationStroop,2021.2.3,Win32,60.90133983,,,,,,,,,,,,,,,,,,,,,,,,,,,,,,,,,16,2.3001,1,0,16,16,13,1,2,×,8,2 × 8,neutral,smallerFirst,1.5,1.5,16,,,,,,,,
,,,,,,,,,,,,,,,685,2022-02-08_13h12.25.900,multiplicationStroop,2021.2.3,Win32,60.90133983,,,,,,,,,,,,,,,,,,,,,,,,,,,,,,,,,54,3.1156,1,0,17,17,7,1,6,×,9,6 × 9,neutral,smallerFirst,1.5,1.5,54,,,,,,,,
,,,,,,,,,,,,,,,685,2022-02-08_13h12.25.900,multiplicationStroop,2021.2.3,Win32,60.90133983,,,,,,,,,,,,,,,,,,,,,,,,,,,,,,,,,12,1.3942,1,0,18,18,25,1,6,×,2,6 × 2,neutral,largerFirst,1.5,1.5,12,,,,,,,,
,,,,,,,,,,,,,,,685,2022-02-08_13h12.25.900,multiplicationStroop,2021.2.3,Win32,60.90133983,,,,,,,,,,,,,,,,,,,,,,,,,,,,,,,,,49,1.8664,1,0,19,19,33,1,7,×,7,7 × 7,neutral,tie,1.5,1.5,49,,,,,,,,
,,,,,,,,,,,,,,,685,2022-02-08_13h12.25.900,multiplicationStroop,2021.2.3,Win32,60.90133983,,,,,,,,,,,,,,,,,,,,,,,,,,,,,,,,,35,1.9492,1,0,20,20,1,1,5,×,7,5 × 7,neutral,smallerFirst,1.5,1.5,35,,,,,,,,
,,,,,,,,,,,,,,,685,2022-02-08_13h12.25.900,multiplicationStroop,2021.2.3,Win32,60.90133983,,,,,,,,,,,,,,,,,,,,,,,,,,,,,,,,,4,1.2995,1,0,21,21,28,1,2,×,2,2 × 2,neutral,tie,1.5,1.5,4,,,,,,,,
,,,,,,,,,,,,,,,685,2022-02-08_13h12.25.900,multiplicationStroop,2021.2.3,Win32,60.90133983,,,,,,,,,,,,,,,,,,,,,,,,,,,,,,,,,24,1.7328,1,0,22,22,22,1,8,×,3,8 × 3,neutral,largerFirst,1.5,1.5,24,,,,,,,,
,,,,,,,,,,,,,,,685,2022-02-08_13h12.25.900,multiplicationStroop,2021.2.3,Win32,60.90133983,,,,,,,,,,,,,,,,,,,,,,,,,,,,,,,,,64,2.0993,1,0,23,23,34,1,8,×,8,8 × 8,neutral,tie,1.5,1.5,64,,,,,,,,
,,,,,,,,,,,,,,,685,2022-02-08_13h12.25.900,multiplicationStroop,2021.2.3,Win32,60.90133983,,,,,,,,,,,,,,,,,,,,,,,,,,,,,,,,,16,1.9659,1,0,24,24,30,1,4,×,4,4 × 4,neutral,tie,1.5,1.5,16,,,,,,,,
,,,,,,,,,,,,,,,685,2022-02-08_13h12.25.900,multiplicationStroop,2021.2.3,Win32,60.90133983,,,,,,,,,,,,,,,,,,,,,,,,,,,,,,,,,24,1.7667,1,0,25,25,2,1,4,×,6,4 × 6,neutral,smallerFirst,1.5,1.5,24,,,,,,,,
,,,,,,,,,,,,,,,685,2022-02-08_13h12.25.900,multiplicationStroop,2021.2.3,Win32,60.90133983,,,,,,,,,,,,,,,,,,,,,,,,,,,,,,,,,46,2.4156,0,0,26,26,10,1,5,×,9,5 × 9,neutral,smallerFirst,1.5,1.5,45,,,,,,,,
,,,,,,,,,,,,,,,685,2022-02-08_13h12.25.900,multiplicationStroop,2021.2.3,Win32,60.90133983,,,,,,,,,,,,,,,,,,,,,,,,,,,,,,,,,18,2.4827,1,0,27,27,18,1,9,×,2,9 × 2,neutral,largerFirst,1.5,1.5,18,,,,,,,,
,,,,,,,,,,,,,,,685,2022-02-08_13h12.25.900,multiplicationStroop,2021.2.3,Win32,60.90133983,,,,,,,,,,,,,,,,,,,,,,,,,,,,,,,,,21,1.4666,1,0,28,28,8,1,3,×,7,3 × 7,neutral,smallerFirst,1.5,1.5,21,,,,,,,,
,,,,,,,,,,,,,,,685,2022-02-08_13h12.25.900,multiplicationStroop,2021.2.3,Win32,60.90133983,,,,,,,,,,,,,,,,,,,,,,,,,,,,,,,,,20,1.5166,1,0,29,29,20,1,5,×,4,5 × 4,neutral,largerFirst,1.5,1.5,20,,,,,,,,
,,,,,,,,,,,,,,,685,2022-02-08_13h12.25.900,multiplicationStroop,2021.2.3,Win32,60.90133983,,,,,,,,,,,,,,,,,,,,,,,,,,,,,,,,,18,1.7662,1,0,30,30,0,1,3,×,6,3 × 6,neutral,smallerFirst,1.5,1.5,18,,,,,,,,
,,,,,,,,,,,,,,,685,2022-02-08_13h12.25.900,multiplicationStroop,2021.2.3,Win32,60.90133983,,,,,,,,,,,,,,,,,,,,,,,,,,,,,,,,,32,1.6661,1,0,31,31,23,1,8,×,4,8 × 4,neutral,largerFirst,1.5,1.5,32,,,,,,,,
,,,,,,,,,,,,,,,685,2022-02-08_13h12.25.900,multiplicationStroop,2021.2.3,Win32,60.90133983,,,,,,,,,,,,,,,,,,,,,,,,,,,,,,,,,36,2.0496,1,0,32,32,32,1,6,×,6,6 × 6,neutral,tie,1.5,1.5,36,,,,,,,,
,,,,,,,,,,,,,,,685,2022-02-08_13h12.25.900,multiplicationStroop,2021.2.3,Win32,60.90133983,,,,,,,,,,,,,,,,,,,,,,,,,,,,,,,,,72,2.5155,1,0,33,33,11,1,8,×,9,8 × 9,neutral,smallerFirst,1.5,1.5,72,,,,,,,,
,,,,,,,,,,,,,,,685,2022-02-08_13h12.25.900,multiplicationStroop,2021.2.3,Win32,60.90133983,,,,,,,,,,,,,,,,,,,,,,,,,,,,,,,,,28,2.666,1,0,34,34,17,1,7,×,4,7 × 4,neutral,largerFirst,1.5,1.5,28,,,,,,,,
,,,,,,,,,,,,,,,685,2022-02-08_13h12.25.900,multiplicationStroop,2021.2.3,Win32,60.90133983,,,,,,,,,,,,,,,,,,,,,,,,,,,,,,,,,14,1.5999,1,0,35,35,16,1,7,×,2,7 × 2,neutral,largerFirst,1.5,1.5,14,,,,,,,,
,,,,,,,,,,,,,,,685,2022-02-08_13h12.25.900,multiplicationStroop,2021.2.3,Win32,60.90133983,,,,,,,,,,,,,,,,,,,,,,,,,,,,,,,,,,,,,,,,,,,,,,,,,,0,4,4,1,1,stimulusFile/mult_blk2.xlsx,,
,,,,,,,,,,,,,,,685,2022-02-08_13h12.25.900,multiplicationStroop,2021.2.3,Win32,60.90133983,,,,,,,,,,,,,,,,,,,,,,,,,,,,,,,space,1.2504,27,2.2783,1,0,0,0,0,1,3,×,9,3 × 9,neutral,smallerFirst,1.5,1.5,27,,,,,,,,
,,,,,,,,,,,,,,,685,2022-02-08_13h12.25.900,multiplicationStroop,2021.2.3,Win32,60.90133983,,,,,,,,,,,,,,,,,,,,,,,,,,,,,,,,,24,1.5325,1,0,1,1,8,1,3,×,8,3 × 8,neutral,smallerFirst,1.5,1.5,24,,,,,,,,
,,,,,,,,,,,,,,,685,2022-02-08_13h12.25.900,multiplicationStroop,2021.2.3,Win32,60.90133983,,,,,,,,,,,,,,,,,,,,,,,,,,,,,,,,,24,2.4332,1,0,2,2,16,1,6,×,4,6 × 4,neutral,largerFirst,1.5,1.5,24,,,,,,,,
,,,,,,,,,,,,,,,685,2022-02-08_13h12.25.900,multiplicationStroop,2021.2.3,Win32,60.90133983,,,,,,,,,,,,,,,,,,,,,,,,,,,,,,,,,32,1.5497,1,0,3,3,9,1,4,×,8,4 × 8,neutral,smallerFirst,1.5,1.5,32,,,,,,,,
,,,,,,,,,,,,,,,685,2022-02-08_13h12.25.900,multiplicationStroop,2021.2.3,Win32,60.90133983,,,,,,,,,,,,,,,,,,,,,,,,,,,,,,,,,35,1.7994,1,0,4,4,15,1,7,×,5,7 × 5,neutral,largerFirst,1.5,1.5,35,,,,,,,,
,,,,,,,,,,,,,,,685,2022-02-08_13h12.25.900,multiplicationStroop,2021.2.3,Win32,60.90133983,,,,,,,,,,,,,,,,,,,,,,,,,,,,,,,,,12,1.3162,1,0,5,5,11,1,2,×,6,2 × 6,neutral,smallerFirst,1.5,1.5,12,,,,,,,,
,,,,,,,,,,,,,,,685,2022-02-08_13h12.25.900,multiplicationStroop,2021.2.3,Win32,60.90133983,,,,,,,,,,,,,,,,,,,,,,,,,,,,,,,,,30,1.7493,1,0,6,6,5,1,5,×,6,5 × 6,neutral,smallerFirst,1.5,1.5,30,,,,,,,,
,,,,,,,,,,,,,,,685,2022-02-08_13h12.25.900,multiplicationStroop,2021.2.3,Win32,60.90133983,,,,,,,,,,,,,,,,,,,,,,,,,,,,,,,,,48,3.4828,1,0,7,7,1,1,6,×,8,6 × 8,neutral,smallerFirst,1.5,1.5,48,,,,,,,,
,,,,,,,,,,,,,,,685,2022-02-08_13h12.25.900,multiplicationStroop,2021.2.3,Win32,60.90133983,,,,,,,,,,,,,,,,,,,,,,,,,,,,,,,,,40,2.2773,1,0,8,8,10,1,5,×,8,5 × 8,neutral,smallerFirst,1.5,1.5,40,,,,,,,,
,,,,,,,,,,,,,,,685,2022-02-08_13h12.25.900,multiplicationStroop,2021.2.3,Win32,60.90133983,,,,,,,,,,,,,,,,,,,,,,,,,,,,,,,,,18,1.9663,1,0,9,9,4,1,2,×,9,2 × 9,neutral,smallerFirst,1.5,1.5,18,,,,,,,,
,,,,,,,,,,,,,,,685,2022-02-08_13h12.25.900,multiplicationStroop,2021.2.3,Win32,60.90133983,,,,,,,,,,,,,,,,,,,,,,,,,,,,,,,,,10,1.3831,1,0,10,10,18,1,5,×,2,5 × 2,neutral,largerFirst,1.5,1.5,10,,,,,,,,
,,,,,,,,,,,,,,,685,2022-02-08_13h12.25.900,multiplicationStroop,2021.2.3,Win32,60.90133983,,,,,,,,,,,,,,,,,,,,,,,,,,,,,,,,,20,1.6322,1,0,11,11,6,1,4,×,5,4 × 5,neutral,smallerFirst,1.5,1.5,20,,,,,,,,
,,,,,,,,,,,,,,,685,2022-02-08_13h12.25.900,multiplicationStroop,2021.2.3,Win32,60.90133983,,,,,,,,,,,,,,,,,,,,,,,,,,,,,,,,,8,1.5,1,0,12,12,17,1,4,×,2,4 × 2,neutral,largerFirst,1.5,1.5,8,,,,,,,,
,,,,,,,,,,,,,,,685,2022-02-08_13h12.25.900,multiplicationStroop,2021.2.3,Win32,60.90133983,,,,,,,,,,,,,,,,,,,,,,,,,,,,,,,,,42,1.733,1,0,13,13,20,1,7,×,6,7 × 6,neutral,largerFirst,1.5,1.5,42,,,,,,,,
,,,,,,,,,,,,,,,685,2022-02-08_13h12.25.900,multiplicationStroop,2021.2.3,Win32,60.90133983,,,,,,,,,,,,,,,,,,,,,,,,,,,,,,,,,54,2.3332,1,0,14,14,21,1,9,×,6,9 × 6,neutral,largerFirst,1.5,1.5,54,,,,,,,,
,,,,,,,,,,,,,,,685,2022-02-08_13h12.25.900,multiplicationStroop,2021.2.3,Win32,60.90133983,,,,,,,,,,,,,,,,,,,,,,,,,,,,,,,,,16,2.9157,1,0,15,15,30,1,4,×,4,4 × 4,neutral,tie,1.5,1.5,16,,,,,,,,
,,,,,,,,,,,,,,,685,2022-02-08_13h12.25.900,multiplicationStroop,2021.2.3,Win32,60.90133983,,,,,,,,,,,,,,,,,,,,,,,,,,,,,,,,,81,1.8775,1,0,16,16,35,1,9,×,9,9 × 9,neutral,tie,1.5,1.5,81,,,,,,,,
,,,,,,,,,,,,,,,685,2022-02-08_13h12.25.900,multiplicationStroop,2021.2.3,Win32,60.90133983,,,,,,,,,,,,,,,,,,,,,,,,,,,,,,,,,18,1.7327,1,0,17,17,14,1,6,×,3,6 × 3,neutral,largerFirst,1.5,1.5,18,,,,,,,,
,,,,,,,,,,,,,,,685,2022-02-08_13h12.25.900,multiplicationStroop,2021.2.3,Win32,60.90133983,,,,,,,,,,,,,,,,,,,,,,,,,,,,,,,,,16,2.3331,1,0,18,18,27,1,8,×,2,8 × 2,neutral,largerFirst,1.5,1.5,16,,,,,,,,
,,,,,,,,,,,,,,,685,2022-02-08_13h12.25.900,multiplicationStroop,2021.2.3,Win32,60.90133983,,,,,,,,,,,,,,,,,,,,,,,,,,,,,,,,,64,1.7101,1,0,19,19,34,1,8,×,8,8 × 8,neutral,tie,1.5,1.5,64,,,,,,,,
,,,,,,,,,,,,,,,685,2022-02-08_13h12.25.900,multiplicationStroop,2021.2.3,Win32,60.90133983,,,,,,,,,,,,,,,,,,,,,,,,,,,,,,,,,49,3.5666,1,0,20,20,33,1,7,×,7,7 × 7,neutral,tie,1.5,1.5,49,,,,,,,,
,,,,,,,,,,,,,,,685,2022-02-08_13h12.25.900,multiplicationStroop,2021.2.3,Win32,60.90133983,,,,,,,,,,,,,,,,,,,,,,,,,,,,,,,,,15,1.7939,1,0,21,21,19,1,5,×,3,5 × 3,neutral,largerFirst,1.5,1.5,15,,,,,,,,
,,,,,,,,,,,,,,,685,2022-02-08_13h12.25.900,multiplicationStroop,2021.2.3,Win32,60.90133983,,,,,,,,,,,,,,,,,,,,,,,,,,,,,,,,,4,1.299,1,0,22,22,28,1,2,×,2,2 × 2,neutral,tie,1.5,1.5,4,,,,,,,,
,,,,,,,,,,,,,,,685,2022-02-08_13h12.25.900,multiplicationStroop,2021.2.3,Win32,60.90133983,,,,,,,,,,,,,,,,,,,,,,,,,,,,,,,,,9,1.8165,1,0,23,23,29,1,3,×,3,3 × 3,neutral,tie,1.5,1.5,9,,,,,,,,
,,,,,,,,,,,,,,,685,2022-02-08_13h12.25.900,multiplicationStroop,2021.2.3,Win32,60.90133983,,,,,,,,,,,,,,,,,,,,,,,,,,,,,,,,,45,2.2499,1,0,24,24,24,1,9,×,5,9 × 5,neutral,largerFirst,1.5,1.5,45,,,,,,,,
,,,,,,,,,,,,,,,685,2022-02-08_13h12.25.900,multiplicationStroop,2021.2.3,Win32,60.90133983,,,,,,,,,,,,,,,,,,,,,,,,,,,,,,,,,56,1.8659,1,0,25,25,23,1,8,×,7,8 × 7,neutral,largerFirst,1.5,1.5,56,,,,,,,,
,,,,,,,,,,,,,,,685,2022-02-08_13h12.25.900,multiplicationStroop,2021.2.3,Win32,60.90133983,,,,,,,,,,,,,,,,,,,,,,,,,,,,,,,,,28,3.8335,1,0,26,26,3,1,4,×,7,4 × 7,neutral,smallerFirst,1.5,1.5,28,,,,,,,,
,,,,,,,,,,,,,,,685,2022-02-08_13h12.25.900,multiplicationStroop,2021.2.3,Win32,60.90133983,,,,,,,,,,,,,,,,,,,,,,,,,,,,,,,,,14,1.9102,1,0,27,27,2,1,2,×,7,2 × 7,neutral,smallerFirst,1.5,1.5,14,,,,,,,,
,,,,,,,,,,,,,,,685,2022-02-08_13h12.25.900,multiplicationStroop,2021.2.3,Win32,60.90133983,,,,,,,,,,,,,,,,,,,,,,,,,,,,,,,,,36,2.4998,1,0,28,28,32,1,6,×,6,6 × 6,neutral,tie,1.5,1.5,36,,,,,,,,
,,,,,,,,,,,,,,,685,2022-02-08_13h12.25.900,multiplicationStroop,2021.2.3,Win32,60.90133983,,,,,,,,,,,,,,,,,,,,,,,,,,,,,,,,,72,4.5835,1,0,29,29,25,1,9,×,8,9 × 8,neutral,largerFirst,1.5,1.5,72,,,,,,,,
,,,,,,,,,,,,,,,685,2022-02-08_13h12.25.900,multiplicationStroop,2021.2.3,Win32,60.90133983,,,,,,,,,,,,,,,,,,,,,,,,,,,,,,,,,12,1.2938,1,0,30,30,7,1,3,×,4,3 × 4,neutral,smallerFirst,1.5,1.5,12,,,,,,,,
,,,,,,,,,,,,,,,685,2022-02-08_13h12.25.900,multiplicationStroop,2021.2.3,Win32,60.90133983,,,,,,,,,,,,,,,,,,,,,,,,,,,,,,,,,25,1.6495,1,0,31,31,31,1,5,×,5,5 × 5,neutral,tie,1.5,1.5,25,,,,,,,,
,,,,,,,,,,,,,,,685,2022-02-08_13h12.25.900,multiplicationStroop,2021.2.3,Win32,60.90133983,,,,,,,,,,,,,,,,,,,,,,,,,,,,,,,,,6,1.9665,1,0,32,32,12,1,2,×,3,2 × 3,neutral,smallerFirst,1.5,1.5,6,,,,,,,,
,,,,,,,,,,,,,,,685,2022-02-08_13h12.25.900,multiplicationStroop,2021.2.3,Win32,60.90133983,,,,,,,,,,,,,,,,,,,,,,,,,,,,,,,,,21,1.3168,1,0,33,33,22,1,7,×,3,7 × 3,neutral,largerFirst,1.5,1.5,21,,,,,,,,
,,,,,,,,,,,,,,,685,2022-02-08_13h12.25.900,multiplicationStroop,2021.2.3,Win32,60.90133983,,,,,,,,,,,,,,,,,,,,,,,,,,,,,,,,,63,2.249,1,0,34,34,26,1,9,×,7,9 × 7,neutral,largerFirst,1.5,1.5,63,,,,,,,,
,,,,,,,,,,,,,,,685,2022-02-08_13h12.25.900,multiplicationStroop,2021.2.3,Win32,60.90133983,,,,,,,,,,,,,,,,,,,,,,,,,,,,,,,,,36,3.0496,1,0,35,35,13,1,4,×,9,4 × 9,neutral,smallerFirst,1.5,1.5,36,,,,,,,,
,,,,,,,,,,,,,,,685,2022-02-08_13h12.25.900,multiplicationStroop,2021.2.3,Win32,60.90133983,,,,,,,,,,,,,,,,,,,,,,,,,,,,,,,,,,,,,,,,,,,,,,,,,,0,5,5,0,1,stimulusFile/mult_blk1.xlsx,,
,,,,,,,,,,,,,,,685,2022-02-08_13h12.25.900,multiplicationStroop,2021.2.3,Win32,60.90133983,,,,,,,,,,,,,,,,,,,,,,,,,,,,,,,,,,,,,,,,,,,,,,,,,,,,,,,,space,4.1151