welcomeKey_resp.keys,welcomeKey_resp.rt,X Scale,Y Scale,rt_resp_4.keys,rt_resp_4.corr,rt_resp_4.rt,speedtest_2.thisRepN,speedtest_2.thisTrialN,speedtest_2.thisN,speedtest_2.thisIndex,speedtest_2.ran,numberSc,posX,positionLayout,participant,date,expName,psychopyVersion,OS,frameRate,ct_instrresp.keys,ct_instrresp.rt,key_resp_2.keys,key_resp_2.rt,ct_keyResp.keys,ct_keyResp.corr,ct_keyResp.rt,trials.thisRepN,trials.thisTrialN,trials.thisN,trials.thisIndex,trials.ran,leftNo,rightNo,displayProblem,numDistance,leftNo_size,rightNo_size,Dims,keyAnswer,TS_Loop.thisRepN,TS_Loop.thisTrialN,TS_Loop.thisN,TS_Loop.thisIndex,TS_Loop.ran,Condition,ActionInst,instrImage,mltptaskInst_resp.keys,mltptaskInst_resp.rt,continue_resp_2.keys,continue_resp_2.rt,multp_Answer,multi_RT,multiplyCorr,LoopingMultiply.thisRepN,LoopingMultiply.thisTrialN,LoopingMultiply.thisN,LoopingMultiply.thisIndex,LoopingMultiply.ran,factor1,multiplySign,factor2,multliplyProblem,physicalSize,orderOperand,sizeF1,sizeF2,mult_answer,trials_stroop.thisRepN,trials_stroop.thisTrialN,trials_stroop.thisN,trials_stroop.thisIndex,trials_stroop.ran,multiplicationFile,esckey_resp_2.keys,esckey_resp_2.rt
y,6.5859,50.1,50.3,left,1,0.595,0,0,0,0,1,1,-200,left,686,2022-02-03_10h22.39.219,multiplicationStroop,2021.2.3,MacIntel,60.0024001,,,,,,,,,,,,,,,,,,,,,,,,,,,,,,,,,,,,,,,,,,,,,,,,,,,,,,,,,
,,,,right,1,0.3896,0,1,1,8,1,1,200,right,686,2022-02-03_10h22.39.219,multiplicationStroop,2021.2.3,MacIntel,60.0024001,,,,,,,,,,,,,,,,,,,,,,,,,,,,,,,,,,,,,,,,,,,,,,,,,,,,,,,,,
,,,,right,1,0.3352,0,2,2,14,1,8,200,right,686,2022-02-03_10h22.39.219,multiplicationStroop,2021.2.3,MacIntel,60.0024001,,,,,,,,,,,,,,,,,,,,,,,,,,,,,,,,,,,,,,,,,,,,,,,,,,,,,,,,,
,,,,left,1,0.3012,0,3,3,6,1,8,-200,left,686,2022-02-03_10h22.39.219,multiplicationStroop,2021.2.3,MacIntel,60.0024001,,,,,,,,,,,,,,,,,,,,,,,,,,,,,,,,,,,,,,,,,,,,,,,,,,,,,,,,,
,,,,left,1,0.3169,0,4,4,3,1,4,-200,left,686,2022-02-03_10h22.39.219,multiplicationStroop,2021.2.3,MacIntel,60.0024001,,,,,,,,,,,,,,,,,,,,,,,,,,,,,,,,,,,,,,,,,,,,,,,,,,,,,,,,,
,,,,right,1,0.2523,0,5,5,13,1,7,200,right,686,2022-02-03_10h22.39.219,multiplicationStroop,2021.2.3,MacIntel,60.0024001,,,,,,,,,,,,,,,,,,,,,,,,,,,,,,,,,,,,,,,,,,,,,,,,,,,,,,,,,
,,,,right,1,0.2984,0,6,6,9,1,2,200,right,686,2022-02-03_10h22.39.219,multiplicationStroop,2021.2.3,MacIntel,60.0024001,,,,,,,,,,,,,,,,,,,,,,,,,,,,,,,,,,,,,,,,,,,,,,,,,,,,,,,,,
,,,,left,1,0.2994,0,7,7,5,1,7,-200,left,686,2022-02-03_10h22.39.219,multiplicationStroop,2021.2.3,MacIntel,60.0024001,,,,,,,,,,,,,,,,,,,,,,,,,,,,,,,,,,,,,,,,,,,,,,,,,,,,,,,,,
,,,,right,1,0.3159,0,8,8,15,1,9,200,right,686,2022-02-03_10h22.39.219,multiplicationStroop,2021.2.3,MacIntel,60.0024001,,,,,,,,,,,,,,,,,,,,,,,,,,,,,,,,,,,,,,,,,,,,,,,,,,,,,,,,,
,,,,right,1,0.316,0,9,9,11,1,4,200,right,686,2022-02-03_10h22.39.219,multiplicationStroop,2021.2.3,MacIntel,60.0024001,,,,,,,,,,,,,,,,,,,,,,,,,,,,,,,,,,,,,,,,,,,,,,,,,,,,,,,,,
,,,,left,1,0.2835,0,10,10,7,1,9,-200,left,686,2022-02-03_10h22.39.219,multiplicationStroop,2021.2.3,MacIntel,60.0024001,,,,,,,,,,,,,,,,,,,,,,,,,,,,,,,,,,,,,,,,,,,,,,,,,,,,,,,,,
,,,,left,1,0.3201,0,11,11,2,1,3,-200,left,686,2022-02-03_10h22.39.219,multiplicationStroop,2021.2.3,MacIntel,60.0024001,,,,,,,,,,,,,,,,,,,,,,,,,,,,,,,,,,,,,,,,,,,,,,,,,,,,,,,,,
,,,,right,1,0.368,0,12,12,12,1,6,200,right,686,2022-02-03_10h22.39.219,multiplicationStroop,2021.2.3,MacIntel,60.0024001,,,,,,,,,,,,,,,,,,,,,,,,,,,,,,,,,,,,,,,,,,,,,,,,,,,,,,,,,
,,,,left,1,0.2891,0,13,13,1,1,2,-200,left,686,2022-02-03_10h22.39.219,multiplicationStroop,2021.2.3,MacIntel,60.0024001,,,,,,,,,,,,,,,,,,,,,,,,,,,,,,,,,,,,,,,,,,,,,,,,,,,,,,,,,
,,,,left,1,0.3331,0,14,14,4,1,6,-200,left,686,2022-02-03_10h22.39.219,multiplicationStroop,2021.2.3,MacIntel,60.0024001,,,,,,,,,,,,,,,,,,,,,,,,,,,,,,,,,,,,,,,,,,,,,,,,,,,,,,,,,
,,,,right,1,0.2831,0,15,15,10,1,3,200,right,686,2022-02-03_10h22.39.219,multiplicationStroop,2021.2.3,MacIntel,60.0024001,,,,,,,,,,,,,,,,,,,,,,,,,,,,,,,,,,,,,,,,,,,,,,,,,,,,,,,,,
,,,,right,1,0.2993,1,0,16,9,1,2,200,right,686,2022-02-03_10h22.39.219,multiplicationStroop,2021.2.3,MacIntel,60.0024001,,,,,,,,,,,,,,,,,,,,,,,,,,,,,,,,,,,,,,,,,,,,,,,,,,,,,,,,,
,,,,right,1,0.2871,1,1,17,14,1,8,200,right,686,2022-02-03_10h22.39.219,multiplicationStroop,2021.2.3,MacIntel,60.0024001,,,,,,,,,,,,,,,,,,,,,,,,,,,,,,,,,,,,,,,,,,,,,,,,,,,,,,,,,
,,,,right,1,0.3005,1,2,18,11,1,4,200,right,686,2022-02-03_10h22.39.219,multiplicationStroop,2021.2.3,MacIntel,60.0024001,,,,,,,,,,,,,,,,,,,,,,,,,,,,,,,,,,,,,,,,,,,,,,,,,,,,,,,,,
,,,,left,1,0.2861,1,3,19,5,1,7,-200,left,686,2022-02-03_10h22.39.219,multiplicationStroop,2021.2.3,MacIntel,60.0024001,,,,,,,,,,,,,,,,,,,,,,,,,,,,,,,,,,,,,,,,,,,,,,,,,,,,,,,,,
,,,,left,1,0.2994,1,4,20,0,1,1,-200,left,686,2022-02-03_10h22.39.219,multiplicationStroop,2021.2.3,MacIntel,60.0024001,,,,,,,,,,,,,,,,,,,,,,,,,,,,,,,,,,,,,,,,,,,,,,,,,,,,,,,,,
,,,,right,1,0.2819,1,5,21,8,1,1,200,right,686,2022-02-03_10h22.39.219,multiplicationStroop,2021.2.3,MacIntel,60.0024001,,,,,,,,,,,,,,,,,,,,,,,,,,,,,,,,,,,,,,,,,,,,,,,,,,,,,,,,,
,,,,left,1,0.3161,1,6,22,3,1,4,-200,left,686,2022-02-03_10h22.39.219,multiplicationStroop,2021.2.3,MacIntel,60.0024001,,,,,,,,,,,,,,,,,,,,,,,,,,,,,,,,,,,,,,,,,,,,,,,,,,,,,,,,,
,,,,left,1,0.3018,1,7,23,4,1,6,-200,left,686,2022-02-03_10h22.39.219,multiplicationStroop,2021.2.3,MacIntel,60.0024001,,,,,,,,,,,,,,,,,,,,,,,,,,,,,,,,,,,,,,,,,,,,,,,,,,,,,,,,,
,,,,right,1,0.2666,1,8,24,12,1,6,200,right,686,2022-02-03_10h22.39.219,multiplicationStroop,2021.2.3,MacIntel,60.0024001,,,,,,,,,,,,,,,,,,,,,,,,,,,,,,,,,,,,,,,,,,,,,,,,,,,,,,,,,
,,,,left,1,0.3,1,9,25,1,1,2,-200,left,686,2022-02-03_10h22.39.219,multiplicationStroop,2021.2.3,MacIntel,60.0024001,,,,,,,,,,,,,,,,,,,,,,,,,,,,,,,,,,,,,,,,,,,,,,,,,,,,,,,,,
,,,,left,1,0.3175,1,10,26,7,1,9,-200,left,686,2022-02-03_10h22.39.219,multiplicationStroop,2021.2.3,MacIntel,60.0024001,,,,,,,,,,,,,,,,,,,,,,,,,,,,,,,,,,,,,,,,,,,,,,,,,,,,,,,,,
,,,,right,1,0.2511,1,11,27,10,1,3,200,right,686,2022-02-03_10h22.39.219,multiplicationStroop,2021.2.3,MacIntel,60.0024001,,,,,,,,,,,,,,,,,,,,,,,,,,,,,,,,,,,,,,,,,,,,,,,,,,,,,,,,,
,,,,left,1,0.2901,1,12,28,2,1,3,-200,left,686,2022-02-03_10h22.39.219,multiplicationStroop,2021.2.3,MacIntel,60.0024001,,,,,,,,,,,,,,,,,,,,,,,,,,,,,,,,,,,,,,,,,,,,,,,,,,,,,,,,,
,,,,right,1,0.2673,1,13,29,15,1,9,200,right,686,2022-02-03_10h22.39.219,multiplicationStroop,2021.2.3,MacIntel,60.0024001,,,,,,,,,,,,,,,,,,,,,,,,,,,,,,,,,,,,,,,,,,,,,,,,,,,,,,,,,
,,,,left,1,0.2665,1,14,30,6,1,8,-200,left,686,2022-02-03_10h22.39.219,multiplicationStroop,2021.2.3,MacIntel,60.0024001,,,,,,,,,,,,,,,,,,,,,,,,,,,,,,,,,,,,,,,,,,,,,,,,,,,,,,,,,
,,,,right,1,0.2562,1,15,31,13,1,7,200,right,686,2022-02-03_10h22.39.219,multiplicationStroop,2021.2.3,MacIntel,60.0024001,,,,,,,,,,,,,,,,,,,,,,,,,,,,,,,,,,,,,,,,,,,,,,,,,,,,,,,,,
,,,,right,1,0.3522,2,0,32,14,1,8,200,right,686,2022-02-03_10h22.39.219,multiplicationStroop,2021.2.3,MacIntel,60.0024001,,,,,,,,,,,,,,,,,,,,,,,,,,,,,,,,,,,,,,,,,,,,,,,,,,,,,,,,,
,,,,right,1,0.2992,2,1,33,11,1,4,200,right,686,2022-02-03_10h22.39.219,multiplicationStroop,2021.2.3,MacIntel,60.0024001,,,,,,,,,,,,,,,,,,,,,,,,,,,,,,,,,,,,,,,,,,,,,,,,,,,,,,,,,
,,,,right,1,0.2826,2,2,34,15,1,9,200,right,686,2022-02-03_10h22.39.219,multiplicationStroop,2021.2.3,MacIntel,60.0024001,,,,,,,,,,,,,,,,,,,,,,,,,,,,,,,,,,,,,,,,,,,,,,,,,,,,,,,,,
,,,,right,1,0.2503,2,3,35,10,1,3,200,right,686,2022-02-03_10h22.39.219,multiplicationStroop,2021.2.3,MacIntel,60.0024001,,,,,,,,,,,,,,,,,,,,,,,,,,,,,,,,,,,,,,,,,,,,,,,,,,,,,,,,,
,,,,left,1,0.3198,2,4,36,2,1,3,-200,left,686,2022-02-03_10h22.39.219,multiplicationStroop,2021.2.3,MacIntel,60.0024001,,,,,,,,,,,,,,,,,,,,,,,,,,,,,,,,,,,,,,,,,,,,,,,,,,,,,,,,,
,,,,left,1,0.3341,2,5,37,3,1,4,-200,left,686,2022-02-03_10h22.39.219,multiplicationStroop,2021.2.3,MacIntel,60.0024001,,,,,,,,,,,,,,,,,,,,,,,,,,,,,,,,,,,,,,,,,,,,,,,,,,,,,,,,,
,,,,right,1,0.2681,2,6,38,9,1,2,200,right,686,2022-02-03_10h22.39.219,multiplicationStroop,2021.2.3,MacIntel,60.0024001,,,,,,,,,,,,,,,,,,,,,,,,,,,,,,,,,,,,,,,,,,,,,,,,,,,,,,,,,
,,,,left,1,0.2841,2,7,39,5,1,7,-200,left,686,2022-02-03_10h22.39.219,multiplicationStroop,2021.2.3,MacIntel,60.0024001,,,,,,,,,,,,,,,,,,,,,,,,,,,,,,,,,,,,,,,,,,,,,,,,,,,,,,,,,
,,,,left,1,0.3157,2,8,40,1,1,2,-200,left,686,2022-02-03_10h22.39.219,multiplicationStroop,2021.2.3,MacIntel,60.0024001,,,,,,,,,,,,,,,,,,,,,,,,,,,,,,,,,,,,,,,,,,,,,,,,,,,,,,,,,
,,,,left,1,0.3038,2,9,41,7,1,9,-200,left,686,2022-02-03_10h22.39.219,multiplicationStroop,2021.2.3,MacIntel,60.0024001,,,,,,,,,,,,,,,,,,,,,,,,,,,,,,,,,,,,,,,,,,,,,,,,,,,,,,,,,
,,,,left,1,0.3002,2,10,42,4,1,6,-200,left,686,2022-02-03_10h22.39.219,multiplicationStroop,2021.2.3,MacIntel,60.0024001,,,,,,,,,,,,,,,,,,,,,,,,,,,,,,,,,,,,,,,,,,,,,,,,,,,,,,,,,
,,,,right,1,0.2891,2,11,43,13,1,7,200,right,686,2022-02-03_10h22.39.219,multiplicationStroop,2021.2.3,MacIntel,60.0024001,,,,,,,,,,,,,,,,,,,,,,,,,,,,,,,,,,,,,,,,,,,,,,,,,,,,,,,,,
,,,,left,1,0.2362,2,12,44,0,1,1,-200,left,686,2022-02-03_10h22.39.219,multiplicationStroop,2021.2.3,MacIntel,60.0024001,,,,,,,,,,,,,,,,,,,,,,,,,,,,,,,,,,,,,,,,,,,,,,,,,,,,,,,,,
,,,,right,1,0.2493,2,13,45,8,1,1,200,right,686,2022-02-03_10h22.39.219,multiplicationStroop,2021.2.3,MacIntel,60.0024001,,,,,,,,,,,,,,,,,,,,,,,,,,,,,,,,,,,,,,,,,,,,,,,,,,,,,,,,,
,,,,left,1,0.2505,2,14,46,6,1,8,-200,left,686,2022-02-03_10h22.39.219,multiplicationStroop,2021.2.3,MacIntel,60.0024001,,,,,,,,,,,,,,,,,,,,,,,,,,,,,,,,,,,,,,,,,,,,,,,,,,,,,,,,,
,,,,right,1,0.2198,2,15,47,12,1,6,200,right,686,2022-02-03_10h22.39.219,multiplicationStroop,2021.2.3,MacIntel,60.0024001,,,,,,,,,,,,,,,,,,,,,,,,,,,,,,,,,,,,,,,,,,,,,,,,,,,,,,,,,
,,,,left,1,0.317,3,0,48,5,1,7,-200,left,686,2022-02-03_10h22.39.219,multiplicationStroop,2021.2.3,MacIntel,60.0024001,,,,,,,,,,,,,,,,,,,,,,,,,,,,,,,,,,,,,,,,,,,,,,,,,,,,,,,,,
,,,,left,1,0.4001,3,1,49,7,1,9,-200,left,686,2022-02-03_10h22.39.219,multiplicationStroop,2021.2.3,MacIntel,60.0024001,,,,,,,,,,,,,,,,,,,,,,,,,,,,,,,,,,,,,,,,,,,,,,,,,,,,,,,,,
,,,,right,1,0.2869,3,2,50,10,1,3,200,right,686,2022-02-03_10h22.39.219,multiplicationStroop,2021.2.3,MacIntel,60.0024001,,,,,,,,,,,,,,,,,,,,,,,,,,,,,,,,,,,,,,,,,,,,,,,,,,,,,,,,,
,,,,right,1,0.3328,3,3,51,13,1,7,200,right,686,2022-02-03_10h22.39.219,multiplicationStroop,2021.2.3,MacIntel,60.0024001,,,,,,,,,,,,,,,,,,,,,,,,,,,,,,,,,,,,,,,,,,,,,,,,,,,,,,,,,
,,,,left,1,0.2833,3,4,52,6,1,8,-200,left,686,2022-02-03_10h22.39.219,multiplicationStroop,2021.2.3,MacIntel,60.0024001,,,,,,,,,,,,,,,,,,,,,,,,,,,,,,,,,,,,,,,,,,,,,,,,,,,,,,,,,
,,,,left,1,0.3333,3,5,53,3,1,4,-200,left,686,2022-02-03_10h22.39.219,multiplicationStroop,2021.2.3,MacIntel,60.0024001,,,,,,,,,,,,,,,,,,,,,,,,,,,,,,,,,,,,,,,,,,,,,,,,,,,,,,,,,
,,,,right,1,0.2499,3,6,54,8,1,1,200,right,686,2022-02-03_10h22.39.219,multiplicationStroop,2021.2.3,MacIntel,60.0024001,,,,,,,,,,,,,,,,,,,,,,,,,,,,,,,,,,,,,,,,,,,,,,,,,,,,,,,,,
,,,,right,1,0.3171,3,7,55,11,1,4,200,right,686,2022-02-03_10h22.39.219,multiplicationStroop,2021.2.3,MacIntel,60.0024001,,,,,,,,,,,,,,,,,,,,,,,,,,,,,,,,,,,,,,,,,,,,,,,,,,,,,,,,,
,,,,right,1,0.3,3,8,56,15,1,9,200,right,686,2022-02-03_10h22.39.219,multiplicationStroop,2021.2.3,MacIntel,60.0024001,,,,,,,,,,,,,,,,,,,,,,,,,,,,,,,,,,,,,,,,,,,,,,,,,,,,,,,,,
,,,,right,1,0.2671,3,9,57,12,1,6,200,right,686,2022-02-03_10h22.39.219,multiplicationStroop,2021.2.3,MacIntel,60.0024001,,,,,,,,,,,,,,,,,,,,,,,,,,,,,,,,,,,,,,,,,,,,,,,,,,,,,,,,,
,,,,left,1,0.4345,3,10,58,0,1,1,-200,left,686,2022-02-03_10h22.39.219,multiplicationStroop,2021.2.3,MacIntel,60.0024001,,,,,,,,,,,,,,,,,,,,,,,,,,,,,,,,,,,,,,,,,,,,,,,,,,,,,,,,,
,,,,left,1,0.3045,3,11,59,2,1,3,-200,left,686,2022-02-03_10h22.39.219,multiplicationStroop,2021.2.3,MacIntel,60.0024001,,,,,,,,,,,,,,,,,,,,,,,,,,,,,,,,,,,,,,,,,,,,,,,,,,,,,,,,,
,,,,right,1,0.2572,3,12,60,9,1,2,200,right,686,2022-02-03_10h22.39.219,multiplicationStroop,2021.2.3,MacIntel,60.0024001,,,,,,,,,,,,,,,,,,,,,,,,,,,,,,,,,,,,,,,,,,,,,,,,,,,,,,,,,
,,,,left,1,0.2843,3,13,61,1,1,2,-200,left,686,2022-02-03_10h22.39.219,multiplicationStroop,2021.2.3,MacIntel,60.0024001,,,,,,,,,,,,,,,,,,,,,,,,,,,,,,,,,,,,,,,,,,,,,,,,,,,,,,,,,
,,,,left,1,0.3199,3,14,62,4,1,6,-200,left,686,2022-02-03_10h22.39.219,multiplicationStroop,2021.2.3,MacIntel,60.0024001,,,,,,,,,,,,,,,,,,,,,,,,,,,,,,,,,,,,,,,,,,,,,,,,,,,,,,,,,
,,,,right,1,0.233,3,15,63,14,1,8,200,right,686,2022-02-03_10h22.39.219,multiplicationStroop,2021.2.3,MacIntel,60.0024001,,,,,,,,,,,,,,,,,,,,,,,,,,,,,,,,,,,,,,,,,,,,,,,,,,,,,,,,,
,,,,,,,,,,,,,,,686,2022-02-03_10h22.39.219,multiplicationStroop,2021.2.3,MacIntel,60.0024001,space,8.7331,space,5.7497,left,1,0.7886,0,0,0,52,1,2,2,2 | 2,0,1.9756,1.4111,neutral,left,,,,,,stimulusFile/physical.xlsx,,,,,,,,,,,,,,,,,,,,,,,,,,,,,,,
,,,,,,,,,,,,,,,686,2022-02-03_10h22.39.219,multiplicationStroop,2021.2.3,MacIntel,60.0024001,,,,,right,1,0.4676,0,1,1,30,1,7,6,7 | 6,1,1.4111,1.9756,incongruent,right,,,,,,stimulusFile/physical.xlsx,,,,,,,,,,,,,,,,,,,,,,,,,,,,,,,
,,,,,,,,,,,,,,,686,2022-02-03_10h22.39.219,multiplicationStroop,2021.2.3,MacIntel,60.0024001,,,,,left,1,0.4641,0,2,2,51,1,8,8,8 | 8,0,1.9756,1.4111,neutral,left,,,,,,stimulusFile/physical.xlsx,,,,,,,,,,,,,,,,,,,,,,,,,,,,,,,
,,,,,,,,,,,,,,,686,2022-02-03_10h22.39.219,multiplicationStroop,2021.2.3,MacIntel,60.0024001,,,,,right,1,0.3822,0,3,3,11,1,7,9,7 | 9,2,1.4111,1.9756,congruent,right,,,,,,stimulusFile/physical.xlsx,,,,,,,,,,,,,,,,,,,,,,,,,,,,,,,
,,,,,,,,,,,,,,,686,2022-02-03_10h22.39.219,multiplicationStroop,2021.2.3,MacIntel,60.0024001,,,,,left,1,0.4315,0,4,4,53,1,4,4,4 | 4,0,1.9756,1.4111,neutral,left,,,,,,stimulusFile/physical.xlsx,,,,,,,,,,,,,,,,,,,,,,,,,,,,,,,
,,,,,,,,,,,,,,,686,2022-02-03_10h22.39.219,multiplicationStroop,2021.2.3,MacIntel,60.0024001,,,,,right,1,0.3322,0,5,5,31,1,9,8,9 | 8,1,1.4111,1.9756,incongruent,right,,,,,,stimulusFile/physical.xlsx,,,,,,,,,,,,,,,,,,,,,,,,,,,,,,,
,,,,,,,,,,,,,,,686,2022-02-03_10h22.39.219,multiplicationStroop,2021.2.3,MacIntel,60.0024001,,,,,right,1,0.4385,0,6,6,16,1,1,6,1 | 6,5,1.4111,1.9756,congruent,right,,,,,,stimulusFile/physical.xlsx,,,,,,,,,,,,,,,,,,,,,,,,,,,,,,,
,,,,,,,,,,,,,,,686,2022-02-03_10h22.39.219,multiplicationStroop,2021.2.3,MacIntel,60.0024001,,,,,right,1,0.4631,0,7,7,9,1,2,4,2 | 4,2,1.4111,1.9756,congruent,right,,,,,,stimulusFile/physical.xlsx,,,,,,,,,,,,,,,,,,,,,,,,,,,,,,,
,,,,,,,,,,,,,,,686,2022-02-03_10h22.39.219,multiplicationStroop,2021.2.3,MacIntel,60.0024001,,,,,left,1,0.431,0,8,8,7,1,9,8,9 | 8,1,1.9756,1.4111,congruent,left,,,,,,stimulusFile/physical.xlsx,,,,,,,,,,,,,,,,,,,,,,,,,,,,,,,
,,,,,,,,,,,,,,,686,2022-02-03_10h22.39.219,multiplicationStroop,2021.2.3,MacIntel,60.0024001,,,,,left,1,0.435,0,9,9,34,1,6,8,6 | 8,2,1.9756,1.4111,incongruent,left,,,,,,stimulusFile/physical.xlsx,,,,,,,,,,,,,,,,,,,,,,,,,,,,,,,
,,,,,,,,,,,,,,,686,2022-02-03_10h22.39.219,multiplicationStroop,2021.2.3,MacIntel,60.0024001,,,,,left,1,0.5665,0,10,10,70,1,8,8,8 | 8,0,1.9756,1.4111,neutral,left,,,,,,stimulusFile/physical.xlsx,,,,,,,,,,,,,,,,,,,,,,,,,,,,,,,
,,,,,,,,,,,,,,,686,2022-02-03_10h22.39.219,multiplicationStroop,2021.2.3,MacIntel,60.0024001,,,,,right,1,0.4157,0,11,11,19,1,4,9,4 | 9,5,1.4111,1.9756,congruent,right,,,,,,stimulusFile/physical.xlsx,,,,,,,,,,,,,,,,,,,,,,,,,,,,,,,
,,,,,,,,,,,,,,,686,2022-02-03_10h22.39.219,multiplicationStroop,2021.2.3,MacIntel,60.0024001,,,,,right,1,0.4865,0,12,12,8,1,1,3,1 | 3,2,1.4111,1.9756,congruent,right,,,,,,stimulusFile/physical.xlsx,,,,,,,,,,,,,,,,,,,,,,,,,,,,,,,
,,,,,,,,,,,,,,,686,2022-02-03_10h22.39.219,multiplicationStroop,2021.2.3,MacIntel,60.0024001,,,,,right,1,0.4644,0,13,13,39,1,9,7,9 | 7,2,1.4111,1.9756,incongruent,right,,,,,,stimulusFile/physical.xlsx,,,,,,,,,,,,,,,,,,,,,,,,,,,,,,,
,,,,,,,,,,,,,,,686,2022-02-03_10h22.39.219,multiplicationStroop,2021.2.3,MacIntel,60.0024001,,,,,left,1,0.5326,0,14,14,43,1,4,9,4 | 9,5,1.9756,1.4111,incongruent,left,,,,,,stimulusFile/physical.xlsx,,,,,,,,,,,,,,,,,,,,,,,,,,,,,,,
,,,,,,,,,,,,,,,686,2022-02-03_10h22.39.219,multiplicationStroop,2021.2.3,MacIntel,60.0024001,,,,,right,1,0.4051,0,15,15,61,1,4,4,4 | 4,0,1.4111,1.9756,neutral,right,,,,,,stimulusFile/physical.xlsx,,,,,,,,,,,,,,,,,,,,,,,,,,,,,,,
,,,,,,,,,,,,,,,686,2022-02-03_10h22.39.219,multiplicationStroop,2021.2.3,MacIntel,60.0024001,,,,,left,1,0.4331,0,16,16,35,1,7,9,7 | 9,2,1.9756,1.4111,incongruent,left,,,,,,stimulusFile/physical.xlsx,,,,,,,,,,,,,,,,,,,,,,,,,,,,,,,
,,,,,,,,,,,,,,,686,2022-02-03_10h22.39.219,multiplicationStroop,2021.2.3,MacIntel,60.0024001,,,,,right,1,0.4479,0,17,17,47,1,9,4,9 | 4,5,1.4111,1.9756,incongruent,right,,,,,,stimulusFile/physical.xlsx,,,,,,,,,,,,,,,,,,,,,,,,,,,,,,,
,,,,,,,,,,,,,,,686,2022-02-03_10h22.39.219,multiplicationStroop,2021.2.3,MacIntel,60.0024001,,,,,right,1,0.5479,0,18,18,60,1,3,3,3 | 3,0,1.4111,1.9756,neutral,right,,,,,,stimulusFile/physical.xlsx,,,,,,,,,,,,,,,,,,,,,,,,,,,,,,,
,,,,,,,,,,,,,,,686,2022-02-03_10h22.39.219,multiplicationStroop,2021.2.3,MacIntel,60.0024001,,,,,left,0,0.4813,0,19,19,64,1,1,1,1 | 1,0,1.9756,1.4111,neutral,right,,,,,,stimulusFile/physical.xlsx,,,,,,,,,,,,,,,,,,,,,,,,,,,,,,,
,,,,,,,,,,,,,,,686,2022-02-03_10h22.39.219,multiplicationStroop,2021.2.3,MacIntel,60.0024001,,,,,left,1,0.5666,0,20,20,27,1,8,9,8 | 9,1,1.9756,1.4111,incongruent,left,,,,,,stimulusFile/physical.xlsx,,,,,,,,,,,,,,,,,,,,,,,,,,,,,,,
,,,,,,,,,,,,,,,686,2022-02-03_10h22.39.219,multiplicationStroop,2021.2.3,MacIntel,60.0024001,,,,,right,1,0.4542,0,21,21,63,1,9,9,9 | 9,0,1.4111,1.9756,neutral,right,,,,,,stimulusFile/physical.xlsx,,,,,,,,,,,,,,,,,,,,,,,,,,,,,,,
,,,,,,,,,,,,,,,686,2022-02-03_10h22.39.219,multiplicationStroop,2021.2.3,MacIntel,60.0024001,,,,,right,1,0.5176,0,22,22,38,1,8,6,8 | 6,2,1.4111,1.9756,incongruent,right,,,,,,stimulusFile/physical.xlsx,,,,,,,,,,,,,,,,,,,,,,,,,,,,,,,
,,,,,,,,,,,,,,,686,2022-02-03_10h22.39.219,multiplicationStroop,2021.2.3,MacIntel,60.0024001,,,,,right,1,0.4327,0,23,23,45,1,7,2,7 | 2,5,1.4111,1.9756,incongruent,right,,,,,,stimulusFile/physical.xlsx,,,,,,,,,,,,,,,,,,,,,,,,,,,,,,,
,,,,,,,,,,,,,,,686,2022-02-03_10h22.39.219,multiplicationStroop,2021.2.3,MacIntel,60.0024001,,,,,right,1,0.4819,0,24,24,46,1,8,3,8 | 3,5,1.4111,1.9756,incongruent,right,,,,,,stimulusFile/physical.xlsx,,,,,,,,,,,,,,,,,,,,,,,,,,,,,,,
,,,,,,,,,,,,,,,686,2022-02-03_10h22.39.219,multiplicationStroop,2021.2.3,MacIntel,60.0024001,,,,,left,1,0.4794,0,25,25,24,1,1,2,1 | 2,1,1.9756,1.4111,incongruent,left,,,,,,stimulusFile/physical.xlsx,,,,,,,,,,,,,,,,,,,,,,,,,,,,,,,
,,,,,,,,,,,,,,,686,2022-02-03_10h22.39.219,multiplicationStroop,2021.2.3,MacIntel,60.0024001,,,,,right,1,0.4513,0,26,26,28,1,2,1,2 | 1,1,1.4111,1.9756,incongruent,right,,,,,,stimulusFile/physical.xlsx,,,,,,,,,,,,,,,,,,,,,,,,,,,,,,,
,,,,,,,,,,,,,,,686,2022-02-03_10h22.39.219,multiplicationStroop,2021.2.3,MacIntel,60.0024001,,,,,left,1,0.4316,0,27,27,15,1,9,7,9 | 7,2,1.9756,1.4111,congruent,left,,,,,,stimulusFile/physical.xlsx,,,,,,,,,,,,,,,,,,,,,,,,,,,,,,,
,,,,,,,,,,,,,,,686,2022-02-03_10h22.39.219,multiplicationStroop,2021.2.3,MacIntel,60.0024001,,,,,left,1,0.4989,0,28,28,33,1,2,4,2 | 4,2,1.9756,1.4111,incongruent,left,,,,,,stimulusFile/physical.xlsx,,,,,,,,,,,,,,,,,,,,,,,,,,,,,,,
,,,,,,,,,,,,,,,686,2022-02-03_10h22.39.219,multiplicationStroop,2021.2.3,MacIntel,60.0024001,,,,,right,1,0.383,0,29,29,37,1,4,2,4 | 2,2,1.4111,1.9756,incongruent,right,,,,,,stimulusFile/physical.xlsx,,,,,,,,,,,,,,,,,,,,,,,,,,,,,,,
,,,,,,,,,,,,,,,686,2022-02-03_10h22.39.219,multiplicationStroop,2021.2.3,MacIntel,60.0024001,,,,,left,1,0.4814,0,30,30,50,1,6,6,6 | 6,0,1.9756,1.4111,neutral,left,,,,,,stimulusFile/physical.xlsx,,,,,,,,,,,,,,,,,,,,,,,,,,,,,,,
,,,,,,,,,,,,,,,686,2022-02-03_10h22.39.219,multiplicationStroop,2021.2.3,MacIntel,60.0024001,,,,,right,1,0.3827,0,31,31,36,1,3,1,3 | 1,2,1.4111,1.9756,incongruent,right,,,,,,stimulusFile/physical.xlsx,,,,,,,,,,,,,,,,,,,,,,,,,,,,,,,
,,,,,,,,,,,,,,,686,2022-02-03_10h22.39.219,multiplicationStroop,2021.2.3,MacIntel,60.0024001,,,,,left,1,0.4825,0,32,32,40,1,1,6,1 | 6,5,1.9756,1.4111,incongruent,left,,,,,,stimulusFile/physical.xlsx,,,,,,,,,,,,,,,,,,,,,,,,,,,,,,,
,,,,,,,,,,,,,,,686,2022-02-03_10h22.39.219,multiplicationStroop,2021.2.3,MacIntel,60.0024001,,,,,right,1,0.3849,0,33,33,59,1,7,7,7 | 7,0,1.4111,1.9756,neutral,right,,,,,,stimulusFile/physical.xlsx,,,,,,,,,,,,,,,,,,,,,,,,,,,,,,,
,,,,,,,,,,,,,,,686,2022-02-03_10h22.39.219,multiplicationStroop,2021.2.3,MacIntel,60.0024001,,,,,left,1,0.3647,0,34,34,49,1,3,3,3 | 3,0,1.9756,1.4111,neutral,left,,,,,,stimulusFile/physical.xlsx,,,,,,,,,,,,,,,,,,,,,,,,,,,,,,,
,,,,,,,,,,,,,,,686,2022-02-03_10h22.39.219,multiplicationStroop,2021.2.3,MacIntel,60.0024001,,,,,left,1,0.5145,0,35,35,21,1,7,2,7 | 2,5,1.9756,1.4111,congruent,left,,,,,,stimulusFile/physical.xlsx,,,,,,,,,,,,,,,,,,,,,,,,,,,,,,,
,,,,,,,,,,,,,,,686,2022-02-03_10h22.39.219,multiplicationStroop,2021.2.3,MacIntel,60.0024001,,,,,left,1,0.3655,0,36,36,42,1,3,8,3 | 8,5,1.9756,1.4111,incongruent,left,,,,,,stimulusFile/physical.xlsx,,,,,,,,,,,,,,,,,,,,,,,,,,,,,,,
,,,,,,,,,,,,,,,686,2022-02-03_10h22.39.219,multiplicationStroop,2021.2.3,MacIntel,60.0024001,,,,,left,1,0.5552,0,37,37,20,1,6,1,6 | 1,5,1.9756,1.4111,congruent,left,,,,,,stimulusFile/physical.xlsx,,,,,,,,,,,,,,,,,,,,,,,,,,,,,,,
,,,,,,,,,,,,,,,686,2022-02-03_10h22.39.219,multiplicationStroop,2021.2.3,MacIntel,60.0024001,,,,,left,1,0.417,0,38,38,23,1,9,4,9 | 4,5,1.9756,1.4111,congruent,left,,,,,,stimulusFile/physical.xlsx,,,,,,,,,,,,,,,,,,,,,,,,,,,,,,,
,,,,,,,,,,,,,,,686,2022-02-03_10h22.39.219,multiplicationStroop,2021.2.3,MacIntel,60.0024001,,,,,left,1,0.4329,0,39,39,41,1,2,7,2 | 7,5,1.9756,1.4111,incongruent,left,,,,,,stimulusFile/physical.xlsx,,,,,,,,,,,,,,,,,,,,,,,,,,,,,,,
,,,,,,,,,,,,,,,686,2022-02-03_10h22.39.219,multiplicationStroop,2021.2.3,MacIntel,60.0024001,,,,,right,1,0.4992,0,40,40,56,1,1,1,1 | 1,0,1.4111,1.9756,neutral,right,,,,,,stimulusFile/physical.xlsx,,,,,,,,,,,,,,,,,,,,,,,,,,,,,,,
,,,,,,,,,,,,,,,686,2022-02-03_10h22.39.219,multiplicationStroop,2021.2.3,MacIntel,60.0024001,,,,,right,1,0.4552,0,41,41,29,1,4,3,4 | 3,1,1.4111,1.9756,incongruent,right,,,,,,stimulusFile/physical.xlsx,,,,,,,,,,,,,,,,,,,,,,,,,,,,,,,
,,,,,,,,,,,,,,,686,2022-02-03_10h22.39.219,multiplicationStroop,2021.2.3,MacIntel,60.0024001,,,,,left,1,0.4827,0,42,42,14,1,8,6,8 | 6,2,1.9756,1.4111,congruent,left,,,,,,stimulusFile/physical.xlsx,,,,,,,,,,,,,,,,,,,,,,,,,,,,,,,
,,,,,,,,,,,,,,,686,2022-02-03_10h22.39.219,multiplicationStroop,2021.2.3,MacIntel,60.0024001,,,,,right,1,0.4155,0,43,43,67,1,4,4,4 | 4,0,1.4111,1.9756,neutral,right,,,,,,stimulusFile/physical.xlsx,,,,,,,,,,,,,,,,,,,,,,,,,,,,,,,
,,,,,,,,,,,,,,,686,2022-02-03_10h22.39.219,multiplicationStroop,2021.2.3,MacIntel,60.0024001,,,,,left,1,0.3652,0,44,44,12,1,3,1,3 | 1,2,1.9756,1.4111,congruent,left,,,,,,stimulusFile/physical.xlsx,,,,,,,,,,,,,,,,,,,,,,,,,,,,,,,
,,,,,,,,,,,,,,,686,2022-02-03_10h22.39.219,multiplicationStroop,2021.2.3,MacIntel,60.0024001,,,,,right,1,0.3221,0,45,45,2,1,6,7,6 | 7,1,1.4111,1.9756,congruent,right,,,,,,stimulusFile/physical.xlsx,,,,,,,,,,,,,,,,,,,,,,,,,,,,,,,
,,,,,,,,,,,,,,,686,2022-02-03_10h22.39.219,multiplicationStroop,2021.2.3,MacIntel,60.0024001,,,,,left,1,0.4166,0,46,46,32,1,1,3,1 | 3,2,1.9756,1.4111,incongruent,left,,,,,,stimulusFile/physical.xlsx,,,,,,,,,,,,,,,,,,,,,,,,,,,,,,,
,,,,,,,,,,,,,,,686,2022-02-03_10h22.39.219,multiplicationStroop,2021.2.3,MacIntel,60.0024001,,,,,right,1,0.3821,0,47,47,18,1,3,8,3 | 8,5,1.4111,1.9756,congruent,right,,,,,,stimulusFile/physical.xlsx,,,,,,,,,,,,,,,,,,,,,,,,,,,,,,,
,,,,,,,,,,,,,,,686,2022-02-03_10h22.39.219,multiplicationStroop,2021.2.3,MacIntel,60.0024001,,,,,right,1,0.5997,0,48,48,44,1,6,1,6 | 1,5,1.4111,1.9756,incongruent,right,,,,,,stimulusFile/physical.xlsx,,,,,,,,,,,,,,,,,,,,,,,,,,,,,,,
,,,,,,,,,,,,,,,686,2022-02-03_10h22.39.219,multiplicationStroop,2021.2.3,MacIntel,60.0024001,,,,,right,1,0.4197,0,49,49,58,1,6,6,6 | 6,0,1.4111,1.9756,neutral,right,,,,,,stimulusFile/physical.xlsx,,,,,,,,,,,,,,,,,,,,,,,,,,,,,,,
,,,,,,,,,,,,,,,686,2022-02-03_10h22.39.219,multiplicationStroop,2021.2.3,MacIntel,60.0024001,,,,,right,1,0.4541,0,50,50,62,1,8,8,8 | 8,0,1.4111,1.9756,neutral,right,,,,,,stimulusFile/physical.xlsx,,,,,,,,,,,,,,,,,,,,,,,,,,,,,,,
,,,,,,,,,,,,,,,686,2022-02-03_10h22.39.219,multiplicationStroop,2021.2.3,MacIntel,60.0024001,,,,,left,1,0.4651,0,51,51,5,1,4,3,4 | 3,1,1.9756,1.4111,congruent,left,,,,,,stimulusFile/physical.xlsx,,,,,,,,,,,,,,,,,,,,,,,,,,,,,,,
,,,,,,,,,,,,,,,686,2022-02-03_10h22.39.219,multiplicationStroop,2021.2.3,MacIntel,60.0024001,,,,,left,1,0.416,0,52,52,22,1,8,3,8 | 3,5,1.9756,1.4111,congruent,left,,,,,,stimulusFile/physical.xlsx,,,,,,,,,,,,,,,,,,,,,,,,,,,,,,,
,,,,,,,,,,,,,,,686,2022-02-03_10h22.39.219,multiplicationStroop,2021.2.3,MacIntel,60.0024001,,,,,right,1,0.4003,0,53,53,17,1,2,7,2 | 7,5,1.4111,1.9756,congruent,right,,,,,,stimulusFile/physical.xlsx,,,,,,,,,,,,,,,,,,,,,,,,,,,,,,,
,,,,,,,,,,,,,,,686,2022-02-03_10h22.39.219,multiplicationStroop,2021.2.3,MacIntel,60.0024001,,,,,left,1,0.3981,0,54,54,4,1,2,1,2 | 1,1,1.9756,1.4111,congruent,left,,,,,,stimulusFile/physical.xlsx,,,,,,,,,,,,,,,,,,,,,,,,,,,,,,,
,,,,,,,,,,,,,,,686,2022-02-03_10h22.39.219,multiplicationStroop,2021.2.3,MacIntel,60.0024001,,,,,right,0,0.3365,0,55,55,69,1,7,7,7 | 7,0,1.4111,1.9756,neutral,left,,,,,,stimulusFile/physical.xlsx,,,,,,,,,,,,,,,,,,,,,,,,,,,,,,,
,,,,,,,,,,,,,,,686,2022-02-03_10h22.39.219,multiplicationStroop,2021.2.3,MacIntel,60.0024001,,,,,left,1,0.501,0,56,56,26,1,6,7,6 | 7,1,1.9756,1.4111,incongruent,left,,,,,,stimulusFile/physical.xlsx,,,,,,,,,,,,,,,,,,,,,,,,,,,,,,,
,,,,,,,,,,,,,,,686,2022-02-03_10h22.39.219,multiplicationStroop,2021.2.3,MacIntel,60.0024001,,,,,right,1,0.3361,0,57,57,66,1,3,3,3 | 3,0,1.9756,1.4111,neutral,right,,,,,,stimulusFile/physical.xlsx,,,,,,,,,,,,,,,,,,,,,,,,,,,,,,,
,,,,,,,,,,,,,,,686,2022-02-03_10h22.39.219,multiplicationStroop,2021.2.3,MacIntel,60.0024001,,,,,right,0,0.4374,0,58,58,55,1,9,9,9 | 9,0,1.9756,1.4111,neutral,left,,,,,,stimulusFile/physical.xlsx,,,,,,,,,,,,,,,,,,,,,,,,,,,,,,,
,,,,,,,,,,,,,,,686,2022-02-03_10h22.39.219,multiplicationStroop,2021.2.3,MacIntel,60.0024001,,,,,right,1,0.5979,0,59,59,3,1,8,9,8 | 9,1,1.4111,1.9756,congruent,right,,,,,,stimulusFile/physical.xlsx,,,,,,,,,,,,,,,,,,,,,,,,,,,,,,,
,,,,,,,,,,,,,,,686,2022-02-03_10h22.39.219,multiplicationStroop,2021.2.3,MacIntel,60.0024001,,,,,left,1,0.548,0,60,60,68,1,6,6,6 | 6,0,1.9756,1.4111,neutral,left,,,,,,stimulusFile/physical.xlsx,,,,,,,,,,,,,,,,,,,,,,,,,,,,,,,
,,,,,,,,,,,,,,,686,2022-02-03_10h22.39.219,multiplicationStroop,2021.2.3,MacIntel,60.0024001,,,,,left,1,0.4332,0,61,61,6,1,7,6,7 | 6,1,1.9756,1.4111,congruent,left,,,,,,stimulusFile/physical.xlsx,,,,,,,,,,,,,,,,,,,,,,,,,,,,,,,
,,,,,,,,,,,,,,,686,2022-02-03_10h22.39.219,multiplicationStroop,2021.2.3,MacIntel,60.0024001,,,,,right,1,0.4488,0,62,62,65,1,2,2,2 | 2,0,1.4111,1.9756,neutral,right,,,,,,stimulusFile/physical.xlsx,,,,,,,,,,,,,,,,,,,,,,,,,,,,,,,
,,,,,,,,,,,,,,,686,2022-02-03_10h22.39.219,multiplicationStroop,2021.2.3,MacIntel,60.0024001,,,,,right,1,0.3999,0,63,63,0,1,1,2,1 | 2,1,1.4111,1.9756,congruent,right,,,,,,stimulusFile/physical.xlsx,,,,,,,,,,,,,,,,,,,,,,,,,,,,,,,
,,,,,,,,,,,,,,,686,2022-02-03_10h22.39.219,multiplicationStroop,2021.2.3,MacIntel,60.0024001,,,,,left,1,0.3677,0,64,64,13,1,4,2,4 | 2,2,1.9756,1.4111,congruent,left,,,,,,stimulusFile/physical.xlsx,,,,,,,,,,,,,,,,,,,,,,,,,,,,,,,
,,,,,,,,,,,,,,,686,2022-02-03_10h22.39.219,multiplicationStroop,2021.2.3,MacIntel,60.0024001,,,,,left,1,0.5196,0,65,65,54,1,7,7,7 | 7,0,1.9756,1.4111,neutral,left,,,,,,stimulusFile/physical.xlsx,,,,,,,,,,,,,,,,,,,,,,,,,,,,,,,
,,,,,,,,,,,,,,,686,2022-02-03_10h22.39.219,multiplicationStroop,2021.2.3,MacIntel,60.0024001,,,,,left,1,0.482,0,66,66,48,1,1,1,1 | 1,0,1.9756,1.4111,neutral,left,,,,,,stimulusFile/physical.xlsx,,,,,,,,,,,,,,,,,,,,,,,,,,,,,,,
,,,,,,,,,,,,,,,686,2022-02-03_10h22.39.219,multiplicationStroop,2021.2.3,MacIntel,60.0024001,,,,,right,1,0.4307,0,67,67,10,1,6,8,6 | 8,2,1.4111,1.9756,congruent,right,,,,,,stimulusFile/physical.xlsx,,,,,,,,,,,,,,,,,,,,,,,,,,,,,,,
,,,,,,,,,,,,,,,686,2022-02-03_10h22.39.219,multiplicationStroop,2021.2.3,MacIntel,60.0024001,,,,,left,1,0.3647,0,68,68,25,1,3,4,3 | 4,1,1.9756,1.4111,incongruent,left,,,,,,stimulusFile/physical.xlsx,,,,,,,,,,,,,,,,,,,,,,,,,,,,,,,
,,,,,,,,,,,,,,,686,2022-02-03_10h22.39.219,multiplicationStroop,2021.2.3,MacIntel,60.0024001,,,,,right,1,0.4683,0,69,69,57,1,2,2,2 | 2,0,1.4111,1.9756,neutral,right,,,,,,stimulusFile/physical.xlsx,,,,,,,,,,,,,,,,,,,,,,,,,,,,,,,
,,,,,,,,,,,,,,,686,2022-02-03_10h22.39.219,multiplicationStroop,2021.2.3,MacIntel,60.0024001,,,,,right,1,0.568,0,70,70,1,1,3,4,3 | 4,1,1.4111,1.9756,congruent,right,,,,,,stimulusFile/physical.xlsx,,,,,,,,,,,,,,,,,,,,,,,,,,,,,,,
,,,,,,,,,,,,,,,686,2022-02-03_10h22.39.219,multiplicationStroop,2021.2.3,MacIntel,60.0024001,,,,,right,0,0.484,0,71,71,71,1,9,9,9 | 9,0,1.4111,1.9756,neutral,left,,,,,,stimulusFile/physical.xlsx,,,,,,,,,,,,,,,,,,,,,,,,,,,,,,,
,,,,,,,,,,,,,,,686,2022-02-03_10h22.39.219,multiplicationStroop,2021.2.3,MacIntel,60.0024001,,,,,,,,,,,,,,,,,,,,,0,0,0,1,1,stimulusFile/physical.xlsx,PHYSICALLY larger (larger font size).,images/physicallyLarger.png,,,,,,,,,,,,,,,,,,,,,,,,,,,,,
,,,,,,,,,,,,,,,686,2022-02-03_10h22.39.219,multiplicationStroop,2021.2.3,MacIntel,60.0024001,space,10.4874,space,5.1551,right,1,0.4987,0,0,0,9,1,2,4,2 | 4,2,1.4111,1.9756,congruent,right,,,,,,stimulusFile/magnitude.xlsx,,,,,,,,,,,,,,,,,,,,,,,,,,,,,,,
,,,,,,,,,,,,,,,686,2022-02-03_10h22.39.219,multiplicationStroop,2021.2.3,MacIntel,60.0024001,,,,,left,1,0.5806,0,1,1,70,1,8,3,8 | 3,5,1.6933,1.6933,neutral,left,,,,,,stimulusFile/magnitude.xlsx,,,,,,,,,,,,,,,,,,,,,,,,,,,,,,,
,,,,,,,,,,,,,,,686,2022-02-03_10h22.39.219,multiplicationStroop,2021.2.3,MacIntel,60.0024001,,,,,left,1,0.531,0,2,2,60,1,3,1,3 | 1,2,1.6933,1.6933,neutral,left,,,,,,stimulusFile/magnitude.xlsx,,,,,,,,,,,,,,,,,,,,,,,,,,,,,,,
,,,,,,,,,,,,,,,686,2022-02-03_10h22.39.219,multiplicationStroop,2021.2.3,MacIntel,60.0024001,,,,,right,1,0.487,0,3,3,66,1,3,8,3 | 8,5,1.6933,1.6933,neutral,right,,,,,,stimulusFile/magnitude.xlsx,,,,,,,,,,,,,,,,,,,,,,,,,,,,,,,
,,,,,,,,,,,,,,,686,2022-02-03_10h22.39.219,multiplicationStroop,2021.2.3,MacIntel,60.0024001,,,,,right,1,0.698,0,4,4,57,1,2,4,2 | 4,2,1.6933,1.6933,neutral,right,,,,,,stimulusFile/magnitude.xlsx,,,,,,,,,,,,,,,,,,,,,,,,,,,,,,,
,,,,,,,,,,,,,,,686,2022-02-03_10h22.39.219,multiplicationStroop,2021.2.3,MacIntel,60.0024001,,,,,left,1,0.6153,0,5,5,68,1,6,1,6 | 1,5,1.6933,1.6933,neutral,left,,,,,,stimulusFile/magnitude.xlsx,,,,,,,,,,,,,,,,,,,,,,,,,,,,,,,
,,,,,,,,,,,,,,,686,2022-02-03_10h22.39.219,multiplicationStroop,2021.2.3,MacIntel,60.0024001,,,,,right,0,0.5475,0,6,6,37,1,4,2,4 | 2,2,1.4111,1.9756,incongruent,left,,,,,,stimulusFile/magnitude.xlsx,,,,,,,,,,,,,,,,,,,,,,,,,,,,,,,
,,,,,,,,,,,,,,,686,2022-02-03_10h22.39.219,multiplicationStroop,2021.2.3,MacIntel,60.0024001,,,,,right,1,0.6652,0,7,7,48,1,1,2,1 | 2,1,1.6933,1.6933,neutral,right,,,,,,stimulusFile/magnitude.xlsx,,,,,,,,,,,,,,,,,,,,,,,,,,,,,,,
,,,,,,,,,,,,,,,686,2022-02-03_10h22.39.219,multiplicationStroop,2021.2.3,MacIntel,60.0024001,,,,,right,1,0.5821,0,8,8,49,1,3,4,3 | 4,1,1.6933,1.6933,neutral,right,,,,,,stimulusFile/magnitude.xlsx,,,,,,,,,,,,,,,,,,,,,,,,,,,,,,,
,,,,,,,,,,,,,,,686,2022-02-03_10h22.39.219,multiplicationStroop,2021.2.3,MacIntel,60.0024001,,,,,right,1,0.5498,0,9,9,43,1,4,9,4 | 9,5,1.9756,1.4111,incongruent,right,,,,,,stimulusFile/magnitude.xlsx,,,,,,,,,,,,,,,,,,,,,,,,,,,,,,,
,,,,,,,,,,,,,,,686,2022-02-03_10h22.39.219,multiplicationStroop,2021.2.3,MacIntel,60.0024001,,,,,left,1,0.6808,0,10,10,53,1,4,3,4 | 3,1,1.6933,1.6933,neutral,left,,,,,,stimulusFile/magnitude.xlsx,,,,,,,,,,,,,,,,,,,,,,,,,,,,,,,
,,,,,,,,,,,,,,,686,2022-02-03_10h22.39.219,multiplicationStroop,2021.2.3,MacIntel,60.0024001,,,,,right,1,0.4832,0,11,11,18,1,3,8,3 | 8,5,1.4111,1.9756,congruent,right,,,,,,stimulusFile/magnitude.xlsx,,,,,,,,,,,,,,,,,,,,,,,,,,,,,,,
,,,,,,,,,,,,,,,686,2022-02-03_10h22.39.219,multiplicationStroop,2021.2.3,MacIntel,60.0024001,,,,,left,1,0.7317,0,12,12,28,1,2,1,2 | 1,1,1.4111,1.9756,incongruent,left,,,,,,stimulusFile/magnitude.xlsx,,,,,,,,,,,,,,,,,,,,,,,,,,,,,,,
,,,,,,,,,,,,,,,686,2022-02-03_10h22.39.219,multiplicationStroop,2021.2.3,MacIntel,60.0024001,,,,,left,1,0.7006,0,13,13,15,1,9,7,9 | 7,2,1.9756,1.4111,congruent,left,,,,,,stimulusFile/magnitude.xlsx,,,,,,,,,,,,,,,,,,,,,,,,,,,,,,,
,,,,,,,,,,,,,,,686,2022-02-03_10h22.39.219,multiplicationStroop,2021.2.3,MacIntel,60.0024001,,,,,right,1,0.4505,0,14,14,19,1,4,9,4 | 9,5,1.4111,1.9756,congruent,right,,,,,,stimulusFile/magnitude.xlsx,,,,,,,,,,,,,,,,,,,,,,,,,,,,,,,
,,,,,,,,,,,,,,,686,2022-02-03_10h22.39.219,multiplicationStroop,2021.2.3,MacIntel,60.0024001,,,,,right,1,0.4983,0,15,15,16,1,1,6,1 | 6,5,1.4111,1.9756,congruent,right,,,,,,stimulusFile/magnitude.xlsx,,,,,,,,,,,,,,,,,,,,,,,,,,,,,,,
,,,,,,,,,,,,,,,686,2022-02-03_10h22.39.219,multiplicationStroop,2021.2.3,MacIntel,60.0024001,,,,,left,1,0.4679,0,16,16,61,1,4,2,4 | 2,2,1.6933,1.6933,neutral,left,,,,,,stimulusFile/magnitude.xlsx,,,,,,,,,,,,,,,,,,,,,,,,,,,,,,,
,,,,,,,,,,,,,,,686,2022-02-03_10h22.39.219,multiplicationStroop,2021.2.3,MacIntel,60.0024001,,,,,left,1,0.7317,0,17,17,55,1,9,8,9 | 8,1,1.6933,1.6933,neutral,left,,,,,,stimulusFile/magnitude.xlsx,,,,,,,,,,,,,,,,,,,,,,,,,,,,,,,
,,,,,,,,,,,,,,,686,2022-02-03_10h22.39.219,multiplicationStroop,2021.2.3,MacIntel,60.0024001,,,,,right,1,0.4469,0,18,18,11,1,7,9,7 | 9,2,1.4111,1.9756,congruent,right,,,,,,stimulusFile/magnitude.xlsx,,,,,,,,,,,,,,,,,,,,,,,,,,,,,,,
,,,,,,,,,,,,,,,686,2022-02-03_10h22.39.219,multiplicationStroop,2021.2.3,MacIntel,60.0024001,,,,,right,1,0.6654,0,19,19,51,1,8,9,8 | 9,1,1.6933,1.6933,neutral,right,,,,,,stimulusFile/magnitude.xlsx,,,,,,,,,,,,,,,,,,,,,,,,,,,,,,,
,,,,,,,,,,,,,,,686,2022-02-03_10h22.39.219,multiplicationStroop,2021.2.3,MacIntel,60.0024001,,,,,left,1,0.4673,0,20,20,22,1,8,3,8 | 3,5,1.9756,1.4111,congruent,left,,,,,,stimulusFile/magnitude.xlsx,,,,,,,,,,,,,,,,,,,,,,,,,,,,,,,
,,,,,,,,,,,,,,,686,2022-02-03_10h22.39.219,multiplicationStroop,2021.2.3,MacIntel,60.0024001,,,,,right,1,0.5993,0,21,21,27,1,8,9,8 | 9,1,1.9756,1.4111,incongruent,right,,,,,,stimulusFile/magnitude.xlsx,,,,,,,,,,,,,,,,,,,,,,,,,,,,,,,
,,,,,,,,,,,,,,,686,2022-02-03_10h22.39.219,multiplicationStroop,2021.2.3,MacIntel,60.0024001,,,,,right,1,0.7351,0,22,22,42,1,3,8,3 | 8,5,1.9756,1.4111,incongruent,right,,,,,,stimulusFile/magnitude.xlsx,,,,,,,,,,,,,,,,,,,,,,,,,,,,,,,
,,,,,,,,,,,,,,,686,2022-02-03_10h22.39.219,multiplicationStroop,2021.2.3,MacIntel,60.0024001,,,,,left,1,0.5981,0,23,23,63,1,9,7,9 | 7,2,1.6933,1.6933,neutral,left,,,,,,stimulusFile/magnitude.xlsx,,,,,,,,,,,,,,,,,,,,,,,,,,,,,,,
,,,,,,,,,,,,,,,686,2022-02-03_10h22.39.219,multiplicationStroop,2021.2.3,MacIntel,60.0024001,,,,,left,1,0.5156,0,24,24,69,1,7,2,7 | 2,5,1.6933,1.6933,neutral,left,,,,,,stimulusFile/magnitude.xlsx,,,,,,,,,,,,,,,,,,,,,,,,,,,,,,,
,,,,,,,,,,,,,,,686,2022-02-03_10h22.39.219,multiplicationStroop,2021.2.3,MacIntel,60.0024001,,,,,right,1,0.554,0,25,25,58,1,6,8,6 | 8,2,1.6933,1.6933,neutral,right,,,,,,stimulusFile/magnitude.xlsx,,,,,,,,,,,,,,,,,,,,,,,,,,,,,,,
,,,,,,,,,,,,,,,686,2022-02-03_10h22.39.219,multiplicationStroop,2021.2.3,MacIntel,60.0024001,,,,,left,1,0.5653,0,26,26,62,1,8,6,8 | 6,2,1.6933,1.6933,neutral,left,,,,,,stimulusFile/magnitude.xlsx,,,,,,,,,,,,,,,,,,,,,,,,,,,,,,,
,,,,,,,,,,,,,,,686,2022-02-03_10h22.39.219,multiplicationStroop,2021.2.3,MacIntel,60.0024001,,,,,right,1,0.5473,0,27,27,67,1,4,9,4 | 9,5,1.6933,1.6933,neutral,right,,,,,,stimulusFile/magnitude.xlsx,,,,,,,,,,,,,,,,,,,,,,,,,,,,,,,
,,,,,,,,,,,,,,,686,2022-02-03_10h22.39.219,multiplicationStroop,2021.2.3,MacIntel,60.0024001,,,,,right,1,0.9337,0,28,28,25,1,3,4,3 | 4,1,1.9756,1.4111,incongruent,right,,,,,,stimulusFile/magnitude.xlsx,,,,,,,,,,,,,,,,,,,,,,,,,,,,,,,
,,,,,,,,,,,,,,,686,2022-02-03_10h22.39.219,multiplicationStroop,2021.2.3,MacIntel,60.0024001,,,,,right,1,0.6377,0,29,29,10,1,6,8,6 | 8,2,1.4111,1.9756,congruent,right,,,,,,stimulusFile/magnitude.xlsx,,,,,,,,,,,,,,,,,,,,,,,,,,,,,,,
,,,,,,,,,,,,,,,686,2022-02-03_10h22.39.219,multiplicationStroop,2021.2.3,MacIntel,60.0024001,,,,,left,1,0.6846,0,30,30,39,1,9,7,9 | 7,2,1.4111,1.9756,incongruent,left,,,,,,stimulusFile/magnitude.xlsx,,,,,,,,,,,,,,,,,,,,,,,,,,,,,,,
,,,,,,,,,,,,,,,686,2022-02-03_10h22.39.219,multiplicationStroop,2021.2.3,MacIntel,60.0024001,,,,,left,1,0.3993,0,31,31,7,1,9,8,9 | 8,1,1.9756,1.4111,congruent,left,,,,,,stimulusFile/magnitude.xlsx,,,,,,,,,,,,,,,,,,,,,,,,,,,,,,,
,,,,,,,,,,,,,,,686,2022-02-03_10h22.39.219,multiplicationStroop,2021.2.3,MacIntel,60.0024001,,,,,left,1,0.6017,0,32,32,13,1,4,2,4 | 2,2,1.9756,1.4111,congruent,left,,,,,,stimulusFile/magnitude.xlsx,,,,,,,,,,,,,,,,,,,,,,,,,,,,,,,
,,,,,,,,,,,,,,,686,2022-02-03_10h22.39.219,multiplicationStroop,2021.2.3,MacIntel,60.0024001,,,,,right,1,0.5493,0,33,33,41,1,2,7,2 | 7,5,1.9756,1.4111,incongruent,right,,,,,,stimulusFile/magnitude.xlsx,,,,,,,,,,,,,,,,,,,,,,,,,,,,,,,
,,,,,,,,,,,,,,,686,2022-02-03_10h22.39.219,multiplicationStroop,2021.2.3,MacIntel,60.0024001,,,,,left,0,0.5868,0,34,34,26,1,6,7,6 | 7,1,1.9756,1.4111,incongruent,right,,,,,,stimulusFile/magnitude.xlsx,,,,,,,,,,,,,,,,,,,,,,,,,,,,,,,
,,,,,,,,,,,,,,,686,2022-02-03_10h22.39.219,multiplicationStroop,2021.2.3,MacIntel,60.0024001,,,,,left,1,0.5327,0,35,35,45,1,7,2,7 | 2,5,1.4111,1.9756,incongruent,left,,,,,,stimulusFile/magnitude.xlsx,,,,,,,,,,,,,,,,,,,,,,,,,,,,,,,
,,,,,,,,,,,,,,,686,2022-02-03_10h22.39.219,multiplicationStroop,2021.2.3,MacIntel,60.0024001,,,,,left,1,0.7811,0,36,36,38,1,8,6,8 | 6,2,1.4111,1.9756,incongruent,left,,,,,,stimulusFile/magnitude.xlsx,,,,,,,,,,,,,,,,,,,,,,,,,,,,,,,
,,,,,,,,,,,,,,,686,2022-02-03_10h22.39.219,multiplicationStroop,2021.2.3,MacIntel,60.0024001,,,,,right,1,0.73,0,37,37,33,1,2,4,2 | 4,2,1.9756,1.4111,incongruent,right,,,,,,stimulusFile/magnitude.xlsx,,,,,,,,,,,,,,,,,,,,,,,,,,,,,,,
,,,,,,,,,,,,,,,686,2022-02-03_10h22.39.219,multiplicationStroop,2021.2.3,MacIntel,60.0024001,,,,,right,1,0.8151,0,38,38,59,1,7,9,7 | 9,2,1.6933,1.6933,neutral,right,,,,,,stimulusFile/magnitude.xlsx,,,,,,,,,,,,,,,,,,,,,,,,,,,,,,,
,,,,,,,,,,,,,,,686,2022-02-03_10h22.39.219,multiplicationStroop,2021.2.3,MacIntel,60.0024001,,,,,left,1,0.5989,0,39,39,14,1,8,6,8 | 6,2,1.9756,1.4111,congruent,left,,,,,,stimulusFile/magnitude.xlsx,,,,,,,,,,,,,,,,,,,,,,,,,,,,,,,
,,,,,,,,,,,,,,,686,2022-02-03_10h22.39.219,multiplicationStroop,2021.2.3,MacIntel,60.0024001,,,,,left,1,0.5647,0,40,40,20,1,6,1,6 | 1,5,1.9756,1.4111,congruent,left,,,,,,stimulusFile/magnitude.xlsx,,,,,,,,,,,,,,,,,,,,,,,,,,,,,,,
,,,,,,,,,,,,,,,686,2022-02-03_10h22.39.219,multiplicationStroop,2021.2.3,MacIntel,60.0024001,,,,,right,1,0.6662,0,41,41,32,1,1,3,1 | 3,2,1.9756,1.4111,incongruent,right,,,,,,stimulusFile/magnitude.xlsx,,,,,,,,,,,,,,,,,,,,,,,,,,,,,,,
,,,,,,,,,,,,,,,686,2022-02-03_10h22.39.219,multiplicationStroop,2021.2.3,MacIntel,60.0024001,,,,,left,1,0.5476,0,42,42,12,1,3,1,3 | 1,2,1.9756,1.4111,congruent,left,,,,,,stimulusFile/magnitude.xlsx,,,,,,,,,,,,,,,,,,,,,,,,,,,,,,,
,,,,,,,,,,,,,,,686,2022-02-03_10h22.39.219,multiplicationStroop,2021.2.3,MacIntel,60.0024001,,,,,right,1,0.5648,0,43,43,34,1,6,8,6 | 8,2,1.9756,1.4111,incongruent,right,,,,,,stimulusFile/magnitude.xlsx,,,,,,,,,,,,,,,,,,,,,,,,,,,,,,,
,,,,,,,,,,,,,,,686,2022-02-03_10h22.39.219,multiplicationStroop,2021.2.3,MacIntel,60.0024001,,,,,right,1,0.5549,0,44,44,17,1,2,7,2 | 7,5,1.4111,1.9756,congruent,right,,,,,,stimulusFile/magnitude.xlsx,,,,,,,,,,,,,,,,,,,,,,,,,,,,,,,
,,,,,,,,,,,,,,,686,2022-02-03_10h22.39.219,multiplicationStroop,2021.2.3,MacIntel,60.0024001,,,,,right,1,0.7388,0,45,45,50,1,6,7,6 | 7,1,1.6933,1.6933,neutral,right,,,,,,stimulusFile/magnitude.xlsx,,,,,,,,,,,,,,,,,,,,,,,,,,,,,,,
,,,,,,,,,,,,,,,686,2022-02-03_10h22.39.219,multiplicationStroop,2021.2.3,MacIntel,60.0024001,,,,,left,1,0.5474,0,46,46,21,1,7,2,7 | 2,5,1.9756,1.4111,congruent,left,,,,,,stimulusFile/magnitude.xlsx,,,,,,,,,,,,,,,,,,,,,,,,,,,,,,,
,,,,,,,,,,,,,,,686,2022-02-03_10h22.39.219,multiplicationStroop,2021.2.3,MacIntel,60.0024001,,,,,right,1,0.4658,0,47,47,65,1,2,7,2 | 7,5,1.6933,1.6933,neutral,right,,,,,,stimulusFile/magnitude.xlsx,,,,,,,,,,,,,,,,,,,,,,,,,,,,,,,
,,,,,,,,,,,,,,,686,2022-02-03_10h22.39.219,multiplicationStroop,2021.2.3,MacIntel,60.0024001,,,,,right,1,0.7142,0,48,48,1,1,3,4,3 | 4,1,1.4111,1.9756,congruent,right,,,,,,stimulusFile/magnitude.xlsx,,,,,,,,,,,,,,,,,,,,,,,,,,,,,,,
,,,,,,,,,,,,,,,686,2022-02-03_10h22.39.219,multiplicationStroop,2021.2.3,MacIntel,60.0024001,,,,,left,1,0.6338,0,49,49,47,1,9,4,9 | 4,5,1.4111,1.9756,incongruent,left,,,,,,stimulusFile/magnitude.xlsx,,,,,,,,,,,,,,,,,,,,,,,,,,,,,,,
,,,,,,,,,,,,,,,686,2022-02-03_10h22.39.219,multiplicationStroop,2021.2.3,MacIntel,60.0024001,,,,,right,1,0.5194,0,50,50,40,1,1,6,1 | 6,5,1.9756,1.4111,incongruent,right,,,,,,stimulusFile/magnitude.xlsx,,,,,,,,,,,,,,,,,,,,,,,,,,,,,,,
,,,,,,,,,,,,,,,686,2022-02-03_10h22.39.219,multiplicationStroop,2021.2.3,MacIntel,60.0024001,,,,,left,1,0.6149,0,51,51,46,1,8,3,8 | 3,5,1.4111,1.9756,incongruent,left,,,,,,stimulusFile/magnitude.xlsx,,,,,,,,,,,,,,,,,,,,,,,,,,,,,,,
,,,,,,,,,,,,,,,686,2022-02-03_10h22.39.219,multiplicationStroop,2021.2.3,MacIntel,60.0024001,,,,,right,1,0.6029,0,52,52,35,1,7,9,7 | 9,2,1.9756,1.4111,incongruent,right,,,,,,stimulusFile/magnitude.xlsx,,,,,,,,,,,,,,,,,,,,,,,,,,,,,,,
,,,,,,,,,,,,,,,686,2022-02-03_10h22.39.219,multiplicationStroop,2021.2.3,MacIntel,60.0024001,,,,,right,1,0.7316,0,53,53,56,1,1,3,1 | 3,2,1.6933,1.6933,neutral,right,,,,,,stimulusFile/magnitude.xlsx,,,,,,,,,,,,,,,,,,,,,,,,,,,,,,,
,,,,,,,,,,,,,,,686,2022-02-03_10h22.39.219,multiplicationStroop,2021.2.3,MacIntel,60.0024001,,,,,left,1,0.5808,0,54,54,52,1,2,1,2 | 1,1,1.6933,1.6933,neutral,left,,,,,,stimulusFile/magnitude.xlsx,,,,,,,,,,,,,,,,,,,,,,,,,,,,,,,
,,,,,,,,,,,,,,,686,2022-02-03_10h22.39.219,multiplicationStroop,2021.2.3,MacIntel,60.0024001,,,,,right,1,0.5656,0,55,55,24,1,1,2,1 | 2,1,1.9756,1.4111,incongruent,right,,,,,,stimulusFile/magnitude.xlsx,,,,,,,,,,,,,,,,,,,,,,,,,,,,,,,
,,,,,,,,,,,,,,,686,2022-02-03_10h22.39.219,multiplicationStroop,2021.2.3,MacIntel,60.0024001,,,,,left,1,0.8151,0,56,56,54,1,7,6,7 | 6,1,1.6933,1.6933,neutral,left,,,,,,stimulusFile/magnitude.xlsx,,,,,,,,,,,,,,,,,,,,,,,,,,,,,,,
,,,,,,,,,,,,,,,686,2022-02-03_10h22.39.219,multiplicationStroop,2021.2.3,MacIntel,60.0024001,,,,,left,1,0.6301,0,57,57,36,1,3,1,3 | 1,2,1.4111,1.9756,incongruent,left,,,,,,stimulusFile/magnitude.xlsx,,,,,,,,,,,,,,,,,,,,,,,,,,,,,,,
,,,,,,,,,,,,,,,686,2022-02-03_10h22.39.219,multiplicationStroop,2021.2.3,MacIntel,60.0024001,,,,,right,1,0.5308,0,58,58,3,1,8,9,8 | 9,1,1.4111,1.9756,congruent,right,,,,,,stimulusFile/magnitude.xlsx,,,,,,,,,,,,,,,,,,,,,,,,,,,,,,,
,,,,,,,,,,,,,,,686,2022-02-03_10h22.39.219,multiplicationStroop,2021.2.3,MacIntel,60.0024001,,,,,right,1,0.5323,0,59,59,64,1,1,6,1 | 6,5,1.6933,1.6933,neutral,right,,,,,,stimulusFile/magnitude.xlsx,,,,,,,,,,,,,,,,,,,,,,,,,,,,,,,
,,,,,,,,,,,,,,,686,2022-02-03_10h22.39.219,multiplicationStroop,2021.2.3,MacIntel,60.0024001,,,,,left,1,0.5325,0,60,60,23,1,9,4,9 | 4,5,1.9756,1.4111,congruent,left,,,,,,stimulusFile/magnitude.xlsx,,,,,,,,,,,,,,,,,,,,,,,,,,,,,,,
,,,,,,,,,,,,,,,686,2022-02-03_10h22.39.219,multiplicationStroop,2021.2.3,MacIntel,60.0024001,,,,,left,1,0.6339,0,61,61,5,1,4,3,4 | 3,1,1.9756,1.4111,congruent,left,,,,,,stimulusFile/magnitude.xlsx,,,,,,,,,,,,,,,,,,,,,,,,,,,,,,,
,,,,,,,,,,,,,,,686,2022-02-03_10h22.39.219,multiplicationStroop,2021.2.3,MacIntel,60.0024001,,,,,right,1,0.5985,0,62,62,8,1,1,3,1 | 3,2,1.4111,1.9756,congruent,right,,,,,,stimulusFile/magnitude.xlsx,,,,,,,,,,,,,,,,,,,,,,,,,,,,,,,
,,,,,,,,,,,,,,,686,2022-02-03_10h22.39.219,multiplicationStroop,2021.2.3,MacIntel,60.0024001,,,,,left,1,0.8683,0,63,63,31,1,9,8,9 | 8,1,1.4111,1.9756,incongruent,left,,,,,,stimulusFile/magnitude.xlsx,,,,,,,,,,,,,,,,,,,,,,,,,,,,,,,
,,,,,,,,,,,,,,,686,2022-02-03_10h22.39.219,multiplicationStroop,2021.2.3,MacIntel,60.0024001,,,,,left,1,0.7316,0,64,64,71,1,9,4,9 | 4,5,1.6933,1.6933,neutral,left,,,,,,stimulusFile/magnitude.xlsx,,,,,,,,,,,,,,,,,,,,,,,,,,,,,,,
,,,,,,,,,,,,,,,686,2022-02-03_10h22.39.219,multiplicationStroop,2021.2.3,MacIntel,60.0024001,,,,,left,1,0.7647,0,65,65,6,1,7,6,7 | 6,1,1.9756,1.4111,congruent,left,,,,,,stimulusFile/magnitude.xlsx,,,,,,,,,,,,,,,,,,,,,,,,,,,,,,,
,,,,,,,,,,,,,,,686,2022-02-03_10h22.39.219,multiplicationStroop,2021.2.3,MacIntel,60.0024001,,,,,left,1,0.5133,0,66,66,44,1,6,1,6 | 1,5,1.4111,1.9756,incongruent,left,,,,,,stimulusFile/magnitude.xlsx,,,,,,,,,,,,,,,,,,,,,,,,,,,,,,,
,,,,,,,,,,,,,,,686,2022-02-03_10h22.39.219,multiplicationStroop,2021.2.3,MacIntel,60.0024001,,,,,right,0,0.7323,0,67,67,29,1,4,3,4 | 3,1,1.4111,1.9756,incongruent,left,,,,,,stimulusFile/magnitude.xlsx,,,,,,,,,,,,,,,,,,,,,,,,,,,,,,,
,,,,,,,,,,,,,,,686,2022-02-03_10h22.39.219,multiplicationStroop,2021.2.3,MacIntel,60.0024001,,,,,left,1,0.7153,0,68,68,4,1,2,1,2 | 1,1,1.9756,1.4111,congruent,left,,,,,,stimulusFile/magnitude.xlsx,,,,,,,,,,,,,,,,,,,,,,,,,,,,,,,
,,,,,,,,,,,,,,,686,2022-02-03_10h22.39.219,multiplicationStroop,2021.2.3,MacIntel,60.0024001,,,,,left,1,0.8863,0,69,69,30,1,7,6,7 | 6,1,1.4111,1.9756,incongruent,left,,,,,,stimulusFile/magnitude.xlsx,,,,,,,,,,,,,,,,,,,,,,,,,,,,,,,
,,,,,,,,,,,,,,,686,2022-02-03_10h22.39.219,multiplicationStroop,2021.2.3,MacIntel,60.0024001,,,,,right,1,0.598,0,70,70,2,1,6,7,6 | 7,1,1.4111,1.9756,congruent,right,,,,,,stimulusFile/magnitude.xlsx,,,,,,,,,,,,,,,,,,,,,,,,,,,,,,,
,,,,,,,,,,,,,,,686,2022-02-03_10h22.39.219,multiplicationStroop,2021.2.3,MacIntel,60.0024001,,,,,right,1,0.6207,0,71,71,0,1,1,2,1 | 2,1,1.4111,1.9756,congruent,right,,,,,,stimulusFile/magnitude.xlsx,,,,,,,,,,,,,,,,,,,,,,,,,,,,,,,
,,,,,,,,,,,,,,,686,2022-02-03_10h22.39.219,multiplicationStroop,2021.2.3,MacIntel,60.0024001,,,,,,,,,,,,,,,,,,,,,0,1,1,0,1,stimulusFile/magnitude.xlsx,NUMERICALLY larger (larger coefficient).,images/numericallyLarger.png,,,,,,,,,,,,,,,,,,,,,,,,,,,,,
,,,,,,,,,,,,,,,686,2022-02-03_10h22.39.219,multiplicationStroop,2021.2.3,MacIntel,60.0024001,,,,,,,,,,,,,,,,,,,,,,,,,,,,,space,8.7633,space,2.3977,30,2.1557,1,0,0,0,1,1,5,×,6,5 × 6,congruent,smallerFirst,1,2,30,,,,,,,,
,,,,,,,,,,,,,,,686,2022-02-03_10h22.39.219,multiplicationStroop,2021.2.3,MacIntel,60.0024001,,,,,,,,,,,,,,,,,,,,,,,,,,,,,,,,,21,1.3329,1,0,1,1,2,1,3,×,7,3 × 7,congruent,smallerFirst,1,2,21,,,,,,,,
,,,,,,,,,,,,,,,686,2022-02-03_10h22.39.219,multiplicationStroop,2021.2.3,MacIntel,60.0024001,,,,,,,,,,,,,,,,,,,,,,,,,,,,,,,,,49,1.6657,1,0,2,2,33,1,7,×,7,7 × 7,neutral,tie,1,2,49,,,,,,,,
,,,,,,,,,,,,,,,686,2022-02-03_10h22.39.219,multiplicationStroop,2021.2.3,MacIntel,60.0024001,,,,,,,,,,,,,,,,,,,,,,,,,,,,,,,,,45,1.6488,1,0,3,3,9,1,5,×,9,5 × 9,congruent,smallerFirst,1,2,45,,,,,,,,
,,,,,,,,,,,,,,,686,2022-02-03_10h22.39.219,multiplicationStroop,2021.2.3,MacIntel,60.0024001,,,,,,,,,,,,,,,,,,,,,,,,,,,,,,,,,18,1.6007,1,0,4,4,25,1,6,×,3,6 × 3,congruent,largerFirst,2,1,18,,,,,,,,
,,,,,,,,,,,,,,,686,2022-02-03_10h22.39.219,multiplicationStroop,2021.2.3,MacIntel,60.0024001,,,,,,,,,,,,,,,,,,,,,,,,,,,,,,,,,36,2.1323,1,0,5,5,14,1,9,×,4,9 × 4,congruent,largerFirst,2,1,36,,,,,,,,
,,,,,,,,,,,,,,,686,2022-02-03_10h22.39.219,multiplicationStroop,2021.2.3,MacIntel,60.0024001,,,,,,,,,,,,,,,,,,,,,,,,,,,,,,,,,20,1.6829,1,0,6,6,21,1,5,×,4,5 × 4,congruent,largerFirst,2,1,20,,,,,,,,
,,,,,,,,,,,,,,,686,2022-02-03_10h22.39.219,multiplicationStroop,2021.2.3,MacIntel,60.0024001,,,,,,,,,,,,,,,,,,,,,,,,,,,,,,,,,12,1.1985,1,0,7,7,16,1,4,×,3,4 × 3,congruent,largerFirst,2,1,12,,,,,,,,
,,,,,,,,,,,,,,,686,2022-02-03_10h22.39.219,multiplicationStroop,2021.2.3,MacIntel,60.0024001,,,,,,,,,,,,,,,,,,,,,,,,,,,,,,,,,56,1.4997,1,0,8,8,22,1,8,×,7,8 × 7,congruent,largerFirst,2,1,56,,,,,,,,
,,,,,,,,,,,,,,,686,2022-02-03_10h22.39.219,multiplicationStroop,2021.2.3,MacIntel,60.0024001,,,,,,,,,,,,,,,,,,,,,,,,,,,,,,,,,48,2.05,1,0,9,9,4,1,6,×,8,6 × 8,congruent,smallerFirst,1,2,48,,,,,,,,
,,,,,,,,,,,,,,,686,2022-02-03_10h22.39.219,multiplicationStroop,2021.2.3,MacIntel,60.0024001,,,,,,,,,,,,,,,,,,,,,,,,,,,,,,,,,16,1.5329,1,0,10,10,30,1,4,×,4,4 × 4,neutral,tie,1,2,16,,,,,,,,
,,,,,,,,,,,,,,,686,2022-02-03_10h22.39.219,multiplicationStroop,2021.2.3,MacIntel,60.0024001,,,,,,,,,,,,,,,,,,,,,,,,,,,,,,,,,14,1.3659,1,0,11,11,0,1,2,×,7,2 × 7,congruent,smallerFirst,1,2,14,,,,,,,,
,,,,,,,,,,,,,,,686,2022-02-03_10h22.39.219,multiplicationStroop,2021.2.3,MacIntel,60.0024001,,,,,,,,,,,,,,,,,,,,,,,,,,,,,,,,,16,1.4332,1,0,12,12,19,1,8,×,2,8 × 2,congruent,largerFirst,2,1,16,,,,,,,,
,,,,,,,,,,,,,,,686,2022-02-03_10h22.39.219,multiplicationStroop,2021.2.3,MacIntel,60.0024001,,,,,,,,,,,,,,,,,,,,,,,,,,,,,,,,,36,1.5996,1,0,13,13,32,1,6,×,6,6 × 6,neutral,tie,1,2,36,,,,,,,,
,,,,,,,,,,,,,,,686,2022-02-03_10h22.39.219,multiplicationStroop,2021.2.3,MacIntel,60.0024001,,,,,,,,,,,,,,,,,,,,,,,,,,,,,,,,,24,2.0661,1,0,14,14,24,1,8,×,3,8 × 3,congruent,largerFirst,2,1,24,,,,,,,,
,,,,,,,,,,,,,,,686,2022-02-03_10h22.39.219,multiplicationStroop,2021.2.3,MacIntel,60.0024001,,,,,,,,,,,,,,,,,,,,,,,,,,,,,,,,,8,1.583,1,0,15,15,23,1,4,×,2,4 × 2,congruent,largerFirst,2,1,8,,,,,,,,
,,,,,,,,,,,,,,,686,2022-02-03_10h22.39.219,multiplicationStroop,2021.2.3,MacIntel,60.0024001,,,,,,,,,,,,,,,,,,,,,,,,,,,,,,,,,15,1.2996,1,0,16,16,18,1,5,×,3,5 × 3,congruent,largerFirst,2,1,15,,,,,,,,
,,,,,,,,,,,,,,,686,2022-02-03_10h22.39.219,multiplicationStroop,2021.2.3,MacIntel,60.0024001,,,,,,,,,,,,,,,,,,,,,,,,,,,,,,,,,32,3.1349,1,0,17,17,6,1,4,×,8,4 × 8,congruent,smallerFirst,1,2,32,,,,,,,,
,,,,,,,,,,,,,,,686,2022-02-03_10h22.39.219,multiplicationStroop,2021.2.3,MacIntel,60.0024001,,,,,,,,,,,,,,,,,,,,,,,,,,,,,,,,,40,1.6976,1,0,18,18,20,1,8,×,5,8 × 5,congruent,largerFirst,2,1,40,,,,,,,,
,,,,,,,,,,,,,,,686,2022-02-03_10h22.39.219,multiplicationStroop,2021.2.3,MacIntel,60.0024001,,,,,,,,,,,,,,,,,,,,,,,,,,,,,,,,,24,1.6327,1,0,19,19,11,1,4,×,6,4 × 6,congruent,smallerFirst,1,2,24,,,,,,,,
,,,,,,,,,,,,,,,686,2022-02-03_10h22.39.219,multiplicationStroop,2021.2.3,MacIntel,60.0024001,,,,,,,,,,,,,,,,,,,,,,,,,,,,,,,,,28,2.3673,1,0,20,20,13,1,4,×,7,4 × 7,congruent,smallerFirst,1,2,28,,,,,,,,
,,,,,,,,,,,,,,,686,2022-02-03_10h22.39.219,multiplicationStroop,2021.2.3,MacIntel,60.0024001,,,,,,,,,,,,,,,,,,,,,,,,,,,,,,,,,25,1.4985,1,0,21,21,31,1,5,×,5,5 × 5,neutral,tie,1,2,25,,,,,,,,
,,,,,,,,,,,,,,,686,2022-02-03_10h22.39.219,multiplicationStroop,2021.2.3,MacIntel,60.0024001,,,,,,,,,,,,,,,,,,,,,,,,,,,,,,,,,27,1.6661,1,0,22,22,12,1,3,×,9,3 × 9,congruent,smallerFirst,1,2,27,,,,,,,,
,,,,,,,,,,,,,,,686,2022-02-03_10h22.39.219,multiplicationStroop,2021.2.3,MacIntel,60.0024001,,,,,,,,,,,,,,,,,,,,,,,,,,,,,,,,,9,1.2673,1,0,23,23,29,1,3,×,3,3 × 3,neutral,tie,1,2,9,,,,,,,,
,,,,,,,,,,,,,,,686,2022-02-03_10h22.39.219,multiplicationStroop,2021.2.3,MacIntel,60.0024001,,,,,,,,,,,,,,,,,,,,,,,,,,,,,,,,,72,4.5989,1,0,24,24,3,1,8,×,9,8 × 9,congruent,smallerFirst,1,2,72,,,,,,,,
,,,,,,,,,,,,,,,686,2022-02-03_10h22.39.219,multiplicationStroop,2021.2.3,MacIntel,60.0024001,,,,,,,,,,,,,,,,,,,,,,,,,,,,,,,,,64,1.888,1,0,25,25,34,1,8,×,8,8 × 8,neutral,tie,1,2,64,,,,,,,,
,,,,,,,,,,,,,,,686,2022-02-03_10h22.39.219,multiplicationStroop,2021.2.3,MacIntel,60.0024001,,,,,,,,,,,,,,,,,,,,,,,,,,,,,,,,,18,1.565,1,0,26,26,8,1,2,×,9,2 × 9,congruent,smallerFirst,1,2,18,,,,,,,,
,,,,,,,,,,,,,,,686,2022-02-03_10h22.39.219,multiplicationStroop,2021.2.3,MacIntel,60.0024001,,,,,,,,,,,,,,,,,,,,,,,,,,,,,,,,,63,2.0006,1,0,27,27,7,1,7,×,9,7 × 9,congruent,smallerFirst,1,2,63,,,,,,,,
,,,,,,,,,,,,,,,686,2022-02-03_10h22.39.219,multiplicationStroop,2021.2.3,MacIntel,60.0024001,,,,,,,,,,,,,,,,,,,,,,,,,,,,,,,,,81,1.6498,1,0,28,28,35,1,9,×,9,9 × 9,neutral,tie,1,2,81,,,,,,,,
,,,,,,,,,,,,,,,686,2022-02-03_10h22.39.219,multiplicationStroop,2021.2.3,MacIntel,60.0024001,,,,,,,,,,,,,,,,,,,,,,,,,,,,,,,,,12,1.3486,1,0,29,29,5,1,2,×,6,2 × 6,congruent,smallerFirst,1,2,12,,,,,,,,
,,,,,,,,,,,,,,,686,2022-02-03_10h22.39.219,multiplicationStroop,2021.2.3,MacIntel,60.0024001,,,,,,,,,,,,,,,,,,,,,,,,,,,,,,,,,10,1.7994,1,0,30,30,10,1,2,×,5,2 × 5,congruent,smallerFirst,1,2,10,,,,,,,,
,,,,,,,,,,,,,,,686,2022-02-03_10h22.39.219,multiplicationStroop,2021.2.3,MacIntel,60.0024001,,,,,,,,,,,,,,,,,,,,,,,,,,,,,,,,,6,1.3988,1,0,31,31,27,1,3,×,2,3 × 2,congruent,largerFirst,2,1,6,,,,,,,,
,,,,,,,,,,,,,,,686,2022-02-03_10h22.39.219,multiplicationStroop,2021.2.3,MacIntel,60.0024001,,,,,,,,,,,,,,,,,,,,,,,,,,,,,,,,,35,1.9994,1,0,32,32,15,1,7,×,5,7 × 5,congruent,largerFirst,2,1,35,,,,,,,,
,,,,,,,,,,,,,,,686,2022-02-03_10h22.39.219,multiplicationStroop,2021.2.3,MacIntel,60.0024001,,,,,,,,,,,,,,,,,,,,,,,,,,,,,,,,,54,2.084,1,0,33,33,26,1,9,×,6,9 × 6,congruent,largerFirst,2,1,54,,,,,,,,
,,,,,,,,,,,,,,,686,2022-02-03_10h22.39.219,multiplicationStroop,2021.2.3,MacIntel,60.0024001,,,,,,,,,,,,,,,,,,,,,,,,,,,,,,,,,4,1.549,1,0,34,34,28,1,2,×,2,2 × 2,neutral,tie,1,2,4,,,,,,,,
,,,,,,,,,,,,,,,686,2022-02-03_10h22.39.219,multiplicationStroop,2021.2.3,MacIntel,60.0024001,,,,,,,,,,,,,,,,,,,,,,,,,,,,,,,,,42,3.1332,1,0,35,35,17,1,7,×,6,7 × 6,congruent,largerFirst,2,1,42,,,,,,,,
,,,,,,,,,,,,,,,686,2022-02-03_10h22.39.219,multiplicationStroop,2021.2.3,MacIntel,60.0024001,,,,,,,,,,,,,,,,,,,,,,,,,,,,,,,,,,,,,,,,,,,,,,,,,,0,0,0,3,1,stimulusFile/mult_blk4_congruent.xlsx,,
,,,,,,,,,,,,,,,686,2022-02-03_10h22.39.219,multiplicationStroop,2021.2.3,MacIntel,60.0024001,,,,,,,,,,,,,,,,,,,,,,,,,,,,,,,space,3.0119,18,1.6403,1,0,0,0,14,1,6,×,3,6 × 3,neutral,largerFirst,1.5,1.5,18,,,,,,,,
,,,,,,,,,,,,,,,686,2022-02-03_10h22.39.219,multiplicationStroop,2021.2.3,MacIntel,60.0024001,,,,,,,,,,,,,,,,,,,,,,,,,,,,,,,,,8,1.5136,1,0,1,1,17,1,4,×,2,4 × 2,neutral,largerFirst,1.5,1.5,8,,,,,,,,
,,,,,,,,,,,,,,,686,2022-02-03_10h22.39.219,multiplicationStroop,2021.2.3,MacIntel,60.0024001,,,,,,,,,,,,,,,,,,,,,,,,,,,,,,,,,9,1.2168,1,0,2,2,29,1,3,×,3,3 × 3,neutral,tie,1.5,1.5,9,,,,,,,,
,,,,,,,,,,,,,,,686,2022-02-03_10h22.39.219,multiplicationStroop,2021.2.3,MacIntel,60.0024001,,,,,,,,,,,,,,,,,,,,,,,,,,,,,,,,,63,2.0831,1,0,3,3,26,1,9,×,7,9 × 7,neutral,largerFirst,1.5,1.5,63,,,,,,,,
,,,,,,,,,,,,,,,686,2022-02-03_10h22.39.219,multiplicationStroop,2021.2.3,MacIntel,60.0024001,,,,,,,,,,,,,,,,,,,,,,,,,,,,,,,,,24,1.4562,1,0,4,4,16,1,6,×,4,6 × 4,neutral,largerFirst,1.5,1.5,24,,,,,,,,
,,,,,,,,,,,,,,,686,2022-02-03_10h22.39.219,multiplicationStroop,2021.2.3,MacIntel,60.0024001,,,,,,,,,,,,,,,,,,,,,,,,,,,,,,,,,40,1.533,1,0,5,5,10,1,5,×,8,5 × 8,neutral,smallerFirst,1.5,1.5,40,,,,,,,,
,,,,,,,,,,,,,,,686,2022-02-03_10h22.39.219,multiplicationStroop,2021.2.3,MacIntel,60.0024001,,,,,,,,,,,,,,,,,,,,,,,,,,,,,,,,,14,1.3002,1,0,6,6,2,1,2,×,7,2 × 7,neutral,smallerFirst,1.5,1.5,14,,,,,,,,
,,,,,,,,,,,,,,,686,2022-02-03_10h22.39.219,multiplicationStroop,2021.2.3,MacIntel,60.0024001,,,,,,,,,,,,,,,,,,,,,,,,,,,,,,,,,28,1.7825,1,0,7,7,3,1,4,×,7,4 × 7,neutral,smallerFirst,1.5,1.5,28,,,,,,,,
,,,,,,,,,,,,,,,686,2022-02-03_10h22.39.219,multiplicationStroop,2021.2.3,MacIntel,60.0024001,,,,,,,,,,,,,,,,,,,,,,,,,,,,,,,,,15,1.2638,1,0,8,8,19,1,5,×,3,5 × 3,neutral,largerFirst,1.5,1.5,15,,,,,,,,
,,,,,,,,,,,,,,,686,2022-02-03_10h22.39.219,multiplicationStroop,2021.2.3,MacIntel,60.0024001,,,,,,,,,,,,,,,,,,,,,,,,,,,,,,,,,27,1.8992,1,0,9,9,0,1,3,×,9,3 × 9,neutral,smallerFirst,1.5,1.5,27,,,,,,,,
,,,,,,,,,,,,,,,686,2022-02-03_10h22.39.219,multiplicationStroop,2021.2.3,MacIntel,60.0024001,,,,,,,,,,,,,,,,,,,,,,,,,,,,,,,,,12,1.2845,1,0,10,10,11,1,2,×,6,2 × 6,neutral,smallerFirst,1.5,1.5,12,,,,,,,,
,,,,,,,,,,,,,,,686,2022-02-03_10h22.39.219,multiplicationStroop,2021.2.3,MacIntel,60.0024001,,,,,,,,,,,,,,,,,,,,,,,,,,,,,,,,,54,1.5473,1,0,11,11,21,1,9,×,6,9 × 6,neutral,largerFirst,1.5,1.5,54,,,,,,,,
,,,,,,,,,,,,,,,686,2022-02-03_10h22.39.219,multiplicationStroop,2021.2.3,MacIntel,60.0024001,,,,,,,,,,,,,,,,,,,,,,,,,,,,,,,,,56,1.45,1,0,12,12,23,1,8,×,7,8 × 7,neutral,largerFirst,1.5,1.5,56,,,,,,,,
,,,,,,,,,,,,,,,686,2022-02-03_10h22.39.219,multiplicationStroop,2021.2.3,MacIntel,60.0024001,,,,,,,,,,,,,,,,,,,,,,,,,,,,,,,,,30,1.6654,1,0,13,13,5,1,5,×,6,5 × 6,neutral,smallerFirst,1.5,1.5,30,,,,,,,,
,,,,,,,,,,,,,,,686,2022-02-03_10h22.39.219,multiplicationStroop,2021.2.3,MacIntel,60.0024001,,,,,,,,,,,,,,,,,,,,,,,,,,,,,,,,,16,1.4999,1,0,14,14,30,1,4,×,4,4 × 4,neutral,tie,1.5,1.5,16,,,,,,,,
,,,,,,,,,,,,,,,686,2022-02-03_10h22.39.219,multiplicationStroop,2021.2.3,MacIntel,60.0024001,,,,,,,,,,,,,,,,,,,,,,,,,,,,,,,,,36,1.5672,1,0,15,15,32,1,6,×,6,6 × 6,neutral,tie,1.5,1.5,36,,,,,,,,
,,,,,,,,,,,,,,,686,2022-02-03_10h22.39.219,multiplicationStroop,2021.2.3,MacIntel,60.0024001,,,,,,,,,,,,,,,,,,,,,,,,,,,,,,,,,20,1.582,1,0,16,16,6,1,4,×,5,4 × 5,neutral,smallerFirst,1.5,1.5,20,,,,,,,,
,,,,,,,,,,,,,,,686,2022-02-03_10h22.39.219,multiplicationStroop,2021.2.3,MacIntel,60.0024001,,,,,,,,,,,,,,,,,,,,,,,,,,,,,,,,,24,1.8825,1,0,17,17,8,1,3,×,8,3 × 8,neutral,smallerFirst,1.5,1.5,24,,,,,,,,
,,,,,,,,,,,,,,,686,2022-02-03_10h22.39.219,multiplicationStroop,2021.2.3,MacIntel,60.0024001,,,,,,,,,,,,,,,,,,,,,,,,,,,,,,,,,6,1.2834,1,0,18,18,12,1,2,×,3,2 × 3,neutral,smallerFirst,1.5,1.5,6,,,,,,,,
,,,,,,,,,,,,,,,686,2022-02-03_10h22.39.219,multiplicationStroop,2021.2.3,MacIntel,60.0024001,,,,,,,,,,,,,,,,,,,,,,,,,,,,,,,,,12,1.4666,1,0,19,19,7,1,3,×,4,3 × 4,neutral,smallerFirst,1.5,1.5,12,,,,,,,,
,,,,,,,,,,,,,,,686,2022-02-03_10h22.39.219,multiplicationStroop,2021.2.3,MacIntel,60.0024001,,,,,,,,,,,,,,,,,,,,,,,,,,,,,,,,,45,1.8159,1,0,20,20,24,1,9,×,5,9 × 5,neutral,largerFirst,1.5,1.5,45,,,,,,,,
,,,,,,,,,,,,,,,686,2022-02-03_10h22.39.219,multiplicationStroop,2021.2.3,MacIntel,60.0024001,,,,,,,,,,,,,,,,,,,,,,,,,,,,,,,,,16,1.7173,1,0,21,21,27,1,8,×,2,8 × 2,neutral,largerFirst,1.5,1.5,16,,,,,,,,
,,,,,,,,,,,,,,,686,2022-02-03_10h22.39.219,multiplicationStroop,2021.2.3,MacIntel,60.0024001,,,,,,,,,,,,,,,,,,,,,,,,,,,,,,,,,10,1.2481,1,0,22,22,18,1,5,×,2,5 × 2,neutral,largerFirst,1.5,1.5,10,,,,,,,,
,,,,,,,,,,,,,,,686,2022-02-03_10h22.39.219,multiplicationStroop,2021.2.3,MacIntel,60.0024001,,,,,,,,,,,,,,,,,,,,,,,,,,,,,,,,,72,3.1339,1,0,23,23,25,1,9,×,8,9 × 8,neutral,largerFirst,1.5,1.5,72,,,,,,,,
,,,,,,,,,,,,,,,686,2022-02-03_10h22.39.219,multiplicationStroop,2021.2.3,MacIntel,60.0024001,,,,,,,,,,,,,,,,,,,,,,,,,,,,,,,,,25,1.8223,1,0,24,24,31,1,5,×,5,5 × 5,neutral,tie,1.5,1.5,25,,,,,,,,
,,,,,,,,,,,,,,,686,2022-02-03_10h22.39.219,multiplicationStroop,2021.2.3,MacIntel,60.0024001,,,,,,,,,,,,,,,,,,,,,,,,,,,,,,,,,32,1.9827,1,0,25,25,9,1,4,×,8,4 × 8,neutral,smallerFirst,1.5,1.5,32,,,,,,,,
,,,,,,,,,,,,,,,686,2022-02-03_10h22.39.219,multiplicationStroop,2021.2.3,MacIntel,60.0024001,,,,,,,,,,,,,,,,,,,,,,,,,,,,,,,,,4,1.3505,1,0,26,26,28,1,2,×,2,2 × 2,neutral,tie,1.5,1.5,4,,,,,,,,
,,,,,,,,,,,,,,,686,2022-02-03_10h22.39.219,multiplicationStroop,2021.2.3,MacIntel,60.0024001,,,,,,,,,,,,,,,,,,,,,,,,,,,,,,,,,48,1.9987,1,0,27,27,1,1,6,×,8,6 × 8,neutral,smallerFirst,1.5,1.5,48,,,,,,,,
,,,,,,,,,,,,,,,686,2022-02-03_10h22.39.219,multiplicationStroop,2021.2.3,MacIntel,60.0024001,,,,,,,,,,,,,,,,,,,,,,,,,,,,,,,,,64,1.5839,1,0,28,28,34,1,8,×,8,8 × 8,neutral,tie,1.5,1.5,64,,,,,,,,
,,,,,,,,,,,,,,,686,2022-02-03_10h22.39.219,multiplicationStroop,2021.2.3,MacIntel,60.0024001,,,,,,,,,,,,,,,,,,,,,,,,,,,,,,,,,42,2.3666,1,0,29,29,20,1,7,×,6,7 × 6,neutral,largerFirst,1.5,1.5,42,,,,,,,,
,,,,,,,,,,,,,,,686,2022-02-03_10h22.39.219,multiplicationStroop,2021.2.3,MacIntel,60.0024001,,,,,,,,,,,,,,,,,,,,,,,,,,,,,,,,,81,1.6479,1,0,30,30,35,1,9,×,9,9 × 9,neutral,tie,1.5,1.5,81,,,,,,,,
,,,,,,,,,,,,,,,686,2022-02-03_10h22.39.219,multiplicationStroop,2021.2.3,MacIntel,60.0024001,,,,,,,,,,,,,,,,,,,,,,,,,,,,,,,,,21,1.3496,1,0,31,31,22,1,7,×,3,7 × 3,neutral,largerFirst,1.5,1.5,21,,,,,,,,
,,,,,,,,,,,,,,,686,2022-02-03_10h22.39.219,multiplicationStroop,2021.2.3,MacIntel,60.0024001,,,,,,,,,,,,,,,,,,,,,,,,,,,,,,,,,18,1.568,1,0,32,32,4,1,2,×,9,2 × 9,neutral,smallerFirst,1.5,1.5,18,,,,,,,,
,,,,,,,,,,,,,,,686,2022-02-03_10h22.39.219,multiplicationStroop,2021.2.3,MacIntel,60.0024001,,,,,,,,,,,,,,,,,,,,,,,,,,,,,,,,,49,1.8143,1,0,33,33,33,1,7,×,7,7 × 7,neutral,tie,1.5,1.5,49,,,,,,,,
,,,,,,,,,,,,,,,686,2022-02-03_10h22.39.219,multiplicationStroop,2021.2.3,MacIntel,60.0024001,,,,,,,,,,,,,,,,,,,,,,,,,,,,,,,,,36,2.4664,1,0,34,34,13,1,4,×,9,4 × 9,neutral,smallerFirst,1.5,1.5,36,,,,,,,,
,,,,,,,,,,,,,,,686,2022-02-03_10h22.39.219,multiplicationStroop,2021.2.3,MacIntel,60.0024001,,,,,,,,,,,,,,,,,,,,,,,,,,,,,,,,,35,2.6049,1,0,35,35,15,1,7,×,5,7 × 5,neutral,largerFirst,1.5,1.5,35,,,,,,,,
,,,,,,,,,,,,,,,686,2022-02-03_10h22.39.219,multiplicationStroop,2021.2.3,MacIntel,60.0024001,,,,,,,,,,,,,,,,,,,,,,,,,,,,,,,,,,,,,,,,,,,,,,,,,,0,1,1,0,1,stimulusFile/mult_blk1.xlsx,,
,,,,,,,,,,,,,,,686,2022-02-03_10h22.39.219,multiplicationStroop,2021.2.3,MacIntel,60.0024001,,,,,,,,,,,,,,,,,,,,,,,,,,,,,,,space,2.8822,18,1.4072,1,0,0,0,18,1,9,×,2,9 × 2,neutral,largerFirst,1.5,1.5,18,,,,,,,,
,,,,,,,,,,,,,,,686,2022-02-03_10h22.39.219,multiplicationStroop,2021.2.3,MacIntel,60.0024001,,,,,,,,,,,,,,,,,,,,,,,,,,,,,,,,,9,1.1663,1,0,1,1,29,1,3,×,3,3 × 3,neutral,tie,1.5,1.5,9,,,,,,,,
,,,,,,,,,,,,,,,686,2022-02-03_10h22.39.219,multiplicationStroop,2021.2.3,MacIntel,60.0024001,,,,,,,,,,,,,,,,,,,,,,,,,,,,,,,,,25,1.2479,1,0,2,2,31,1,5,×,5,5 × 5,neutral,tie,1.5,1.5,25,,,,,,,,
,,,,,,,,,,,,,,,686,2022-02-03_10h22.39.219,multiplicationStroop,2021.2.3,MacIntel,60.0024001,,,,,,,,,,,,,,,,,,,,,,,,,,,,,,,,,63,1.7334,1,0,3,3,12,1,7,×,9,7 × 9,neutral,smallerFirst,1.5,1.5,63,,,,,,,,
,,,,,,,,,,,,,,,686,2022-02-03_10h22.39.219,multiplicationStroop,2021.2.3,MacIntel,60.0024001,,,,,,,,,,,,,,,,,,,,,,,,,,,,,,,,,27,1.5326,1,0,4,4,14,1,9,×,3,9 × 3,neutral,largerFirst,1.5,1.5,27,,,,,,,,
,,,,,,,,,,,,,,,686,2022-02-03_10h22.39.219,multiplicationStroop,2021.2.3,MacIntel,60.0024001,,,,,,,,,,,,,,,,,,,,,,,,,,,,,,,,,49,2.3996,1,0,5,5,33,1,7,×,7,7 × 7,neutral,tie,1.5,1.5,49,,,,,,,,
,,,,,,,,,,,,,,,686,2022-02-03_10h22.39.219,multiplicationStroop,2021.2.3,MacIntel,60.0024001,,,,,,,,,,,,,,,,,,,,,,,,,,,,,,,,,48,1.6674,1,0,6,6,15,1,8,×,6,8 × 6,neutral,largerFirst,1.5,1.5,48,,,,,,,,
,,,,,,,,,,,,,,,686,2022-02-03_10h22.39.219,multiplicationStroop,2021.2.3,MacIntel,60.0024001,,,,,,,,,,,,,,,,,,,,,,,,,,,,,,,,,18,2.0821,1,0,7,7,0,1,3,×,6,3 × 6,neutral,smallerFirst,1.5,1.5,18,,,,,,,,
,,,,,,,,,,,,,,,686,2022-02-03_10h22.39.219,multiplicationStroop,2021.2.3,MacIntel,60.0024001,,,,,,,,,,,,,,,,,,,,,,,,,,,,,,,,,4,1.2161,1,0,8,8,28,1,2,×,2,2 × 2,neutral,tie,1.5,1.5,4,,,,,,,,
,,,,,,,,,,,,,,,686,2022-02-03_10h22.39.219,multiplicationStroop,2021.2.3,MacIntel,60.0024001,,,,,,,,,,,,,,,,,,,,,,,,,,,,,,,,,32,2.0815,1,0,9,9,23,1,8,×,4,8 × 4,neutral,largerFirst,1.5,1.5,32,,,,,,,,
,,,,,,,,,,,,,,,686,2022-02-03_10h22.39.219,multiplicationStroop,2021.2.3,MacIntel,60.0024001,,,,,,,,,,,,,,,,,,,,,,,,,,,,,,,,,36,1.4505,1,0,10,10,32,1,6,×,6,6 × 6,neutral,tie,1.5,1.5,36,,,,,,,,
,,,,,,,,,,,,,,,686,2022-02-03_10h22.39.219,multiplicationStroop,2021.2.3,MacIntel,60.0024001,,,,,,,,,,,,,,,,,,,,,,,,,,,,,,,,,56,2.1162,1,0,11,11,9,1,7,×,8,7 × 8,neutral,smallerFirst,1.5,1.5,56,,,,,,,,
,,,,,,,,,,,,,,,686,2022-02-03_10h22.39.219,multiplicationStroop,2021.2.3,MacIntel,60.0024001,,,,,,,,,,,,,,,,,,,,,,,,,,,,,,,,,20,1.9477,1,0,12,12,20,1,5,×,4,5 × 4,neutral,largerFirst,1.5,1.5,20,,,,,,,,
,,,,,,,,,,,,,,,686,2022-02-03_10h22.39.219,multiplicationStroop,2021.2.3,MacIntel,60.0024001,,,,,,,,,,,,,,,,,,,,,,,,,,,,,,,,,45,6.3841,1,0,13,13,10,1,5,×,9,5 × 9,neutral,smallerFirst,1.5,1.5,45,,,,,,,,
,,,,,,,,,,,,,,,686,2022-02-03_10h22.39.219,multiplicationStroop,2021.2.3,MacIntel,60.0024001,,,,,,,,,,,,,,,,,,,,,,,,,,,,,,,,,40,1.8549,1,0,14,14,24,1,8,×,5,8 × 5,neutral,largerFirst,1.5,1.5,40,,,,,,,,
,,,,,,,,,,,,,,,686,2022-02-03_10h22.39.219,multiplicationStroop,2021.2.3,MacIntel,60.0024001,,,,,,,,,,,,,,,,,,,,,,,,,,,,,,,,,81,1.8326,1,0,15,15,35,1,9,×,9,9 × 9,neutral,tie,1.5,1.5,81,,,,,,,,
,,,,,,,,,,,,,,,686,2022-02-03_10h22.39.219,multiplicationStroop,2021.2.3,MacIntel,60.0024001,,,,,,,,,,,,,,,,,,,,,,,,,,,,,,,,,28,2.1316,1,0,16,16,17,1,7,×,4,7 × 4,neutral,largerFirst,1.5,1.5,28,,,,,,,,
,,,,,,,,,,,,,,,686,2022-02-03_10h22.39.219,multiplicationStroop,2021.2.3,MacIntel,60.0024001,,,,,,,,,,,,,,,,,,,,,,,,,,,,,,,,,15,1.4493,1,0,17,17,5,1,3,×,5,3 × 5,neutral,smallerFirst,1.5,1.5,15,,,,,,,,
,,,,,,,,,,,,,,,686,2022-02-03_10h22.39.219,multiplicationStroop,2021.2.3,MacIntel,60.0024001,,,,,,,,,,,,,,,,,,,,,,,,,,,,,,,,,6,1.2999,1,0,18,18,26,1,3,×,2,3 × 2,neutral,largerFirst,1.5,1.5,6,,,,,,,,
,,,,,,,,,,,,,,,686,2022-02-03_10h22.39.219,multiplicationStroop,2021.2.3,MacIntel,60.0024001,,,,,,,,,,,,,,,,,,,,,,,,,,,,,,,,,21,1.4675,1,0,19,19,8,1,3,×,7,3 × 7,neutral,smallerFirst,1.5,1.5,21,,,,,,,,
,,,,,,,,,,,,,,,686,2022-02-03_10h22.39.219,multiplicationStroop,2021.2.3,MacIntel,60.0024001,,,,,,,,,,,,,,,,,,,,,,,,,,,,,,,,,10,1.6149,1,0,20,20,4,1,2,×,5,2 × 5,neutral,smallerFirst,1.5,1.5,10,,,,,,,,
,,,,,,,,,,,,,,,686,2022-02-03_10h22.39.219,multiplicationStroop,2021.2.3,MacIntel,60.0024001,,,,,,,,,,,,,,,,,,,,,,,,,,,,,,,,,42,2.2334,1,0,21,21,6,1,6,×,7,6 × 7,neutral,smallerFirst,1.5,1.5,42,,,,,,,,
,,,,,,,,,,,,,,,686,2022-02-03_10h22.39.219,multiplicationStroop,2021.2.3,MacIntel,60.0024001,,,,,,,,,,,,,,,,,,,,,,,,,,,,,,,,,36,2.9486,1,0,22,22,27,1,9,×,4,9 × 4,neutral,largerFirst,1.5,1.5,36,,,,,,,,
,,,,,,,,,,,,,,,686,2022-02-03_10h22.39.219,multiplicationStroop,2021.2.3,MacIntel,60.0024001,,,,,,,,,,,,,,,,,,,,,,,,,,,,,,,,,54,1.7732,1,0,23,23,7,1,6,×,9,6 × 9,neutral,smallerFirst,1.5,1.5,54,,,,,,,,
,,,,,,,,,,,,,,,686,2022-02-03_10h22.39.219,multiplicationStroop,2021.2.3,MacIntel,60.0024001,,,,,,,,,,,,,,,,,,,,,,,,,,,,,,,,,12,1.4674,1,0,24,24,25,1,6,×,2,6 × 2,neutral,largerFirst,1.5,1.5,12,,,,,,,,
,,,,,,,,,,,,,,,686,2022-02-03_10h22.39.219,multiplicationStroop,2021.2.3,MacIntel,60.0024001,,,,,,,,,,,,,,,,,,,,,,,,,,,,,,,,,8,1.5482,1,0,25,25,3,1,2,×,4,2 × 4,neutral,smallerFirst,1.5,1.5,8,,,,,,,,
,,,,,,,,,,,,,,,686,2022-02-03_10h22.39.219,multiplicationStroop,2021.2.3,MacIntel,60.0024001,,,,,,,,,,,,,,,,,,,,,,,,,,,,,,,,,24,1.5006,1,0,26,26,2,1,4,×,6,4 × 6,neutral,smallerFirst,1.5,1.5,24,,,,,,,,
,,,,,,,,,,,,,,,686,2022-02-03_10h22.39.219,multiplicationStroop,2021.2.3,MacIntel,60.0024001,,,,,,,,,,,,,,,,,,,,,,,,,,,,,,,,,72,3.0324,1,0,27,27,11,1,8,×,9,8 × 9,neutral,smallerFirst,1.5,1.5,72,,,,,,,,
,,,,,,,,,,,,,,,686,2022-02-03_10h22.39.219,multiplicationStroop,2021.2.3,MacIntel,60.0024001,,,,,,,,,,,,,,,,,,,,,,,,,,,,,,,,,12,1.9215,1,0,28,28,21,1,4,×,3,4 × 3,neutral,largerFirst,1.5,1.5,12,,,,,,,,
,,,,,,,,,,,,,,,686,2022-02-03_10h22.39.219,multiplicationStroop,2021.2.3,MacIntel,60.0024001,,,,,,,,,,,,,,,,,,,,,,,,,,,,,,,,,16,1.5168,1,0,29,29,30,1,4,×,4,4 × 4,neutral,tie,1.5,1.5,16,,,,,,,,
,,,,,,,,,,,,,,,686,2022-02-03_10h22.39.219,multiplicationStroop,2021.2.3,MacIntel,60.0024001,,,,,,,,,,,,,,,,,,,,,,,,,,,,,,,,,35,1.5675,1,0,30,30,1,1,5,×,7,5 × 7,neutral,smallerFirst,1.5,1.5,35,,,,,,,,
,,,,,,,,,,,,,,,686,2022-02-03_10h22.39.219,multiplicationStroop,2021.2.3,MacIntel,60.0024001,,,,,,,,,,,,,,,,,,,,,,,,,,,,,,,,,14,1.6485,1,0,31,31,16,1,7,×,2,7 × 2,neutral,largerFirst,1.5,1.5,14,,,,,,,,
,,,,,,,,,,,,,,,686,2022-02-03_10h22.39.219,multiplicationStroop,2021.2.3,MacIntel,60.0024001,,,,,,,,,,,,,,,,,,,,,,,,,,,,,,,,,24,2.1488,1,0,32,32,22,1,8,×,3,8 × 3,neutral,largerFirst,1.5,1.5,24,,,,,,,,
,,,,,,,,,,,,,,,686,2022-02-03_10h22.39.219,multiplicationStroop,2021.2.3,MacIntel,60.0024001,,,,,,,,,,,,,,,,,,,,,,,,,,,,,,,,,30,1.6996,1,0,33,33,19,1,6,×,5,6 × 5,neutral,largerFirst,1.5,1.5,30,,,,,,,,
,,,,,,,,,,,,,,,686,2022-02-03_10h22.39.219,multiplicationStroop,2021.2.3,MacIntel,60.0024001,,,,,,,,,,,,,,,,,,,,,,,,,,,,,,,,,64,1.7822,1,0,34,34,34,1,8,×,8,8 × 8,neutral,tie,1.5,1.5,64,,,,,,,,
,,,,,,,,,,,,,,,686,2022-02-03_10h22.39.219,multiplicationStroop,2021.2.3,MacIntel,60.0024001,,,,,,,,,,,,,,,,,,,,,,,,,,,,,,,,,16,1.4344,1,0,35,35,13,1,2,×,8,2 × 8,neutral,smallerFirst,1.5,1.5,16,,,,,,,,
,,,,,,,,,,,,,,,686,2022-02-03_10h22.39.219,multiplicationStroop,2021.2.3,MacIntel,60.0024001,,,,,,,,,,,,,,,,,,,,,,,,,,,,,,,,,,,,,,,,,,,,,,,,,,0,2,2,1,1,stimulusFile/mult_blk2.xlsx,,
,,,,,,,,,,,,,,,686,2022-02-03_10h22.39.219,multiplicationStroop,2021.2.3,MacIntel,60.0024001,,,,,,,,,,,,,,,,,,,,,,,,,,,,,,,space,3.6502,40,1.9482,1,0,0,0,6,1,5,×,8,5 × 8,congruent,smallerFirst,1,2,40,,,,,,,,
,,,,,,,,,,,,,,,686,2022-02-03_10h22.39.219,multiplicationStroop,2021.2.3,MacIntel,60.0024001,,,,,,,,,,,,,,,,,,,,,,,,,,,,,,,,,56,1.601,1,0,1,1,8,1,7,×,8,7 × 8,congruent,smallerFirst,1,2,56,,,,,,,,
,,,,,,,,,,,,,,,686,2022-02-03_10h22.39.219,multiplicationStroop,2021.2.3,MacIntel,60.0024001,,,,,,,,,,,,,,,,,,,,,,,,,,,,,,,,,25,1.5988,1,0,2,2,31,1,5,×,5,5 × 5,neutral,tie,2,1,25,,,,,,,,
,,,,,,,,,,,,,,,686,2022-02-03_10h22.39.219,multiplicationStroop,2021.2.3,MacIntel,60.0024001,,,,,,,,,,,,,,,,,,,,,,,,,,,,,,,,,10,1.281,1,0,3,3,24,1,5,×,2,5 × 2,congruent,largerFirst,2,1,10,,,,,,,,
,,,,,,,,,,,,,,,686,2022-02-03_10h22.39.219,multiplicationStroop,2021.2.3,MacIntel,60.0024001,,,,,,,,,,,,,,,,,,,,,,,,,,,,,,,,,64,1.7502,1,0,4,4,34,1,8,×,8,8 × 8,neutral,tie,2,1,64,,,,,,,,
,,,,,,,,,,,,,,,686,2022-02-03_10h22.39.219,multiplicationStroop,2021.2.3,MacIntel,60.0024001,,,,,,,,,,,,,,,,,,,,,,,,,,,,,,,,,81,2.6657,1,0,5,5,35,1,9,×,9,9 × 9,neutral,tie,2,1,81,,,,,,,,
,,,,,,,,,,,,,,,686,2022-02-03_10h22.39.219,multiplicationStroop,2021.2.3,MacIntel,60.0024001,,,,,,,,,,,,,,,,,,,,,,,,,,,,,,,,,49,1.8553,1,0,6,6,33,1,7,×,7,7 × 7,neutral,tie,2,1,49,,,,,,,,
,,,,,,,,,,,,,,,686,2022-02-03_10h22.39.219,multiplicationStroop,2021.2.3,MacIntel,60.0024001,,,,,,,,,,,,,,,,,,,,,,,,,,,,,,,,,32,1.4496,1,0,7,7,20,1,8,×,4,8 × 4,congruent,largerFirst,2,1,32,,,,,,,,
,,,,,,,,,,,,,,,686,2022-02-03_10h22.39.219,multiplicationStroop,2021.2.3,MacIntel,60.0024001,,,,,,,,,,,,,,,,,,,,,,,,,,,,,,,,,14,1.4993,1,0,8,8,14,1,7,×,2,7 × 2,congruent,largerFirst,2,1,14,,,,,,,,
,,,,,,,,,,,,,,,686,2022-02-03_10h22.39.219,multiplicationStroop,2021.2.3,MacIntel,60.0024001,,,,,,,,,,,,,,,,,,,,,,,,,,,,,,,,,6,1.4825,1,0,9,9,13,1,2,×,3,2 × 3,congruent,smallerFirst,1,2,6,,,,,,,,
,,,,,,,,,,,,,,,686,2022-02-03_10h22.39.219,multiplicationStroop,2021.2.3,MacIntel,60.0024001,,,,,,,,,,,,,,,,,,,,,,,,,,,,,,,,,54,1.5836,1,0,10,10,12,1,6,×,9,6 × 9,congruent,smallerFirst,1,2,54,,,,,,,,
,,,,,,,,,,,,,,,686,2022-02-03_10h22.39.219,multiplicationStroop,2021.2.3,MacIntel,60.0024001,,,,,,,,,,,,,,,,,,,,,,,,,,,,,,,,,21,1.3994,1,0,11,11,16,1,7,×,3,7 × 3,congruent,largerFirst,2,1,21,,,,,,,,
,,,,,,,,,,,,,,,686,2022-02-03_10h22.39.219,multiplicationStroop,2021.2.3,MacIntel,60.0024001,,,,,,,,,,,,,,,,,,,,,,,,,,,,,,,,,24,1.8323,1,0,12,12,10,1,3,×,8,3 × 8,congruent,smallerFirst,1,2,24,,,,,,,,
,,,,,,,,,,,,,,,686,2022-02-03_10h22.39.219,multiplicationStroop,2021.2.3,MacIntel,60.0024001,,,,,,,,,,,,,,,,,,,,,,,,,,,,,,,,,63,2.2839,1,0,13,13,21,1,9,×,7,9 × 7,congruent,largerFirst,2,1,63,,,,,,,,
,,,,,,,,,,,,,,,686,2022-02-03_10h22.39.219,multiplicationStroop,2021.2.3,MacIntel,60.0024001,,,,,,,,,,,,,,,,,,,,,,,,,,,,,,,,,12,1.3322,1,0,14,14,19,1,6,×,2,6 × 2,congruent,largerFirst,2,1,12,,,,,,,,
,,,,,,,,,,,,,,,686,2022-02-03_10h22.39.219,multiplicationStroop,2021.2.3,MacIntel,60.0024001,,,,,,,,,,,,,,,,,,,,,,,,,,,,,,,,,42,1.8675,1,0,15,15,3,1,6,×,7,6 × 7,congruent,smallerFirst,1,2,42,,,,,,,,
,,,,,,,,,,,,,,,686,2022-02-03_10h22.39.219,multiplicationStroop,2021.2.3,MacIntel,60.0024001,,,,,,,,,,,,,,,,,,,,,,,,,,,,,,,,,15,1.2997,1,0,16,16,4,1,3,×,5,3 × 5,congruent,smallerFirst,1,2,15,,,,,,,,
,,,,,,,,,,,,,,,686,2022-02-03_10h22.39.219,multiplicationStroop,2021.2.3,MacIntel,60.0024001,,,,,,,,,,,,,,,,,,,,,,,,,,,,,,,,,45,2.1318,1,0,17,17,23,1,9,×,5,9 × 5,congruent,largerFirst,2,1,45,,,,,,,,
,,,,,,,,,,,,,,,686,2022-02-03_10h22.39.219,multiplicationStroop,2021.2.3,MacIntel,60.0024001,,,,,,,,,,,,,,,,,,,,,,,,,,,,,,,,,36,1.6496,1,0,18,18,32,1,6,×,6,6 × 6,neutral,tie,2,1,36,,,,,,,,
,,,,,,,,,,,,,,,686,2022-02-03_10h22.39.219,multiplicationStroop,2021.2.3,MacIntel,60.0024001,,,,,,,,,,,,,,,,,,,,,,,,,,,,,,,,,28,2.0828,1,0,19,19,27,1,7,×,4,7 × 4,congruent,largerFirst,2,1,28,,,,,,,,
,,,,,,,,,,,,,,,686,2022-02-03_10h22.39.219,multiplicationStroop,2021.2.3,MacIntel,60.0024001,,,,,,,,,,,,,,,,,,,,,,,,,,,,,,,,,48,2.0164,1,0,20,20,18,1,8,×,6,8 × 6,congruent,largerFirst,2,1,48,,,,,,,,
,,,,,,,,,,,,,,,686,2022-02-03_10h22.39.219,multiplicationStroop,2021.2.3,MacIntel,60.0024001,,,,,,,,,,,,,,,,,,,,,,,,,,,,,,,,,72,2.1507,1,0,21,21,17,1,9,×,8,9 × 8,congruent,largerFirst,2,1,72,,,,,,,,
,,,,,,,,,,,,,,,686,2022-02-03_10h22.39.219,multiplicationStroop,2021.2.3,MacIntel,60.0024001,,,,,,,,,,,,,,,,,,,,,,,,,,,,,,,,,18,1.6822,1,0,22,22,11,1,3,×,6,3 × 6,congruent,smallerFirst,1,2,18,,,,,,,,
,,,,,,,,,,,,,,,686,2022-02-03_10h22.39.219,multiplicationStroop,2021.2.3,MacIntel,60.0024001,,,,,,,,,,,,,,,,,,,,,,,,,,,,,,,,,8,1.2828,1,0,23,23,9,1,2,×,4,2 × 4,congruent,smallerFirst,1,2,8,,,,,,,,
,,,,,,,,,,,,,,,686,2022-02-03_10h22.39.219,multiplicationStroop,2021.2.3,MacIntel,60.0024001,,,,,,,,,,,,,,,,,,,,,,,,,,,,,,,,,4,1.2488,1,0,24,24,28,1,2,×,2,2 × 2,neutral,tie,2,1,4,,,,,,,,
,,,,,,,,,,,,,,,686,2022-02-03_10h22.39.219,multiplicationStroop,2021.2.3,MacIntel,60.0024001,,,,,,,,,,,,,,,,,,,,,,,,,,,,,,,,,24,1.5162,1,0,25,25,25,1,6,×,4,6 × 4,congruent,largerFirst,2,1,24,,,,,,,,
,,,,,,,,,,,,,,,686,2022-02-03_10h22.39.219,multiplicationStroop,2021.2.3,MacIntel,60.0024001,,,,,,,,,,,,,,,,,,,,,,,,,,,,,,,,,9,1.4008,1,0,26,26,29,1,3,×,3,3 × 3,neutral,tie,2,1,9,,,,,,,,
,,,,,,,,,,,,,,,686,2022-02-03_10h22.39.219,multiplicationStroop,2021.2.3,MacIntel,60.0024001,,,,,,,,,,,,,,,,,,,,,,,,,,,,,,,,,18,1.7814,1,0,27,27,22,1,9,×,2,9 × 2,congruent,largerFirst,2,1,18,,,,,,,,
,,,,,,,,,,,,,,,686,2022-02-03_10h22.39.219,multiplicationStroop,2021.2.3,MacIntel,60.0024001,,,,,,,,,,,,,,,,,,,,,,,,,,,,,,,,,27,3.3716,1,0,28,28,26,1,9,×,3,9 × 3,congruent,largerFirst,2,1,27,,,,,,,,
,,,,,,,,,,,,,,,686,2022-02-03_10h22.39.219,multiplicationStroop,2021.2.3,MacIntel,60.0024001,,,,,,,,,,,,,,,,,,,,,,,,,,,,,,,,,12,1.2276,1,0,29,29,2,1,3,×,4,3 × 4,congruent,smallerFirst,1,2,12,,,,,,,,
,,,,,,,,,,,,,,,686,2022-02-03_10h22.39.219,multiplicationStroop,2021.2.3,MacIntel,60.0024001,,,,,,,,,,,,,,,,,,,,,,,,,,,,,,,,,35,1.6659,1,0,30,30,1,1,5,×,7,5 × 7,congruent,smallerFirst,1,2,35,,,,,,,,
,,,,,,,,,,,,,,,686,2022-02-03_10h22.39.219,multiplicationStroop,2021.2.3,MacIntel,60.0024001,,,,,,,,,,,,,,,,,,,,,,,,,,,,,,,,,20,1.6503,1,0,31,31,7,1,4,×,5,4 × 5,congruent,smallerFirst,1,2,20,,,,,,,,
,,,,,,,,,,,,,,,686,2022-02-03_10h22.39.219,multiplicationStroop,2021.2.3,MacIntel,60.0024001,,,,,,,,,,,,,,,,,,,,,,,,,,,,,,,,,16,1.4506,1,0,32,32,5,1,2,×,8,2 × 8,congruent,smallerFirst,1,2,16,,,,,,,,
,,,,,,,,,,,,,,,686,2022-02-03_10h22.39.219,multiplicationStroop,2021.2.3,MacIntel,60.0024001,,,,,,,,,,,,,,,,,,,,,,,,,,,,,,,,,39,1.7155,0,0,33,33,0,1,4,×,9,4 × 9,congruent,smallerFirst,1,2,36,,,,,,,,
,,,,,,,,,,,,,,,686,2022-02-03_10h22.39.219,multiplicationStroop,2021.2.3,MacIntel,60.0024001,,,,,,,,,,,,,,,,,,,,,,,,,,,,,,,,,16,1.5993,1,0,34,34,30,1,4,×,4,4 × 4,neutral,tie,2,1,16,,,,,,,,
,,,,,,,,,,,,,,,686,2022-02-03_10h22.39.219,multiplicationStroop,2021.2.3,MacIntel,60.0024001,,,,,,,,,,,,,,,,,,,,,,,,,,,,,,,,,30,1.5991,1,0,35,35,15,1,6,×,5,6 × 5,congruent,largerFirst,2,1,30,,,,,,,,
,,,,,,,,,,,,,,,686,2022-02-03_10h22.39.219,multiplicationStroop,2021.2.3,MacIntel,60.0024001,,,,,,,,,,,,,,,,,,,,,,,,,,,,,,,,,,,,,,,,,,,,,,,,,,0,3,3,2,1,stimulusFile/mult_blk3_congruent.xlsx,,
,,,,,,,,,,,,,,,686,2022-02-03_10h22.39.219,multiplicationStroop,2021.2.3,MacIntel,60.0024001,,,,,,,,,,,,,,,,,,,,,,,,,,,,,,,space,2.983,49,1.5747,1,0,0,0,33,1,7,×,7,7 × 7,incongruent,tie,1,2,49,,,,,,,,
,,,,,,,,,,,,,,,686,2022-02-03_10h22.39.219,multiplicationStroop,2021.2.3,MacIntel,60.0024001,,,,,,,,,,,,,,,,,,,,,,,,,,,,,,,,,72,2.0495,1,0,1,1,0,1,8,×,9,8 × 9,incongruent,smallerFirst,2,1,72,,,,,,,,
,,,,,,,,,,,,,,,686,2022-02-03_10h22.39.219,multiplicationStroop,2021.2.3,MacIntel,60.0024001,,,,,,,,,,,,,,,,,,,,,,,,,,,,,,,,,81,1.5989,1,0,2,2,35,1,9,×,9,9 × 9,incongruent,tie,1,2,81,,,,,,,,
,,,,,,,,,,,,,,,686,2022-02-03_10h22.39.219,multiplicationStroop,2021.2.3,MacIntel,60.0024001,,,,,,,,,,,,,,,,,,,,,,,,,,,,,,,,,45,1.9838,1,0,3,3,22,1,9,×,5,9 × 5,incongruent,largerFirst,1,2,45,,,,,,,,
,,,,,,,,,,,,,,,686,2022-02-03_10h22.39.219,multiplicationStroop,2021.2.3,MacIntel,60.0024001,,,,,,,,,,,,,,,,,,,,,,,,,,,,,,,,,32,1.6987,1,0,4,4,7,1,4,×,8,4 × 8,incongruent,smallerFirst,2,1,32,,,,,,,,
,,,,,,,,,,,,,,,686,2022-02-03_10h22.39.219,multiplicationStroop,2021.2.3,MacIntel,60.0024001,,,,,,,,,,,,,,,,,,,,,,,,,,,,,,,,,24,1.4167,1,0,5,5,20,1,6,×,4,6 × 4,incongruent,largerFirst,1,2,24,,,,,,,,
,,,,,,,,,,,,,,,686,2022-02-03_10h22.39.219,multiplicationStroop,2021.2.3,MacIntel,60.0024001,,,,,,,,,,,,,,,,,,,,,,,,,,,,,,,,,16,1.4502,1,0,6,6,23,1,8,×,2,8 × 2,incongruent,largerFirst,1,2,16,,,,,,,,
,,,,,,,,,,,,,,,686,2022-02-03_10h22.39.219,multiplicationStroop,2021.2.3,MacIntel,60.0024001,,,,,,,,,,,,,,,,,,,,,,,,,,,,,,,,,12,1.3827,1,0,7,7,5,1,3,×,4,3 × 4,incongruent,smallerFirst,2,1,12,,,,,,,,
,,,,,,,,,,,,,,,686,2022-02-03_10h22.39.219,multiplicationStroop,2021.2.3,MacIntel,60.0024001,,,,,,,,,,,,,,,,,,,,,,,,,,,,,,,,,36,1.4821,1,0,8,8,32,1,6,×,6,6 × 6,incongruent,tie,1,2,36,,,,,,,,
,,,,,,,,,,,,,,,686,2022-02-03_10h22.39.219,multiplicationStroop,2021.2.3,MacIntel,60.0024001,,,,,,,,,,,,,,,,,,,,,,,,,,,,,,,,,48,1.6672,1,0,9,9,1,1,6,×,8,6 × 8,incongruent,smallerFirst,2,1,48,,,,,,,,
,,,,,,,,,,,,,,,686,2022-02-03_10h22.39.219,multiplicationStroop,2021.2.3,MacIntel,60.0024001,,,,,,,,,,,,,,,,,,,,,,,,,,,,,,,,,6,1.5983,1,0,10,10,11,1,2,×,3,2 × 3,incongruent,smallerFirst,2,1,6,,,,,,,,
,,,,,,,,,,,,,,,686,2022-02-03_10h22.39.219,multiplicationStroop,2021.2.3,MacIntel,60.0024001,,,,,,,,,,,,,,,,,,,,,,,,,,,,,,,,,9,1.8344,1,0,11,11,29,1,3,×,3,3 × 3,incongruent,tie,1,2,9,,,,,,,,
,,,,,,,,,,,,,,,686,2022-02-03_10h22.39.219,multiplicationStroop,2021.2.3,MacIntel,60.0024001,,,,,,,,,,,,,,,,,,,,,,,,,,,,,,,,,12,1.2154,1,0,12,12,19,1,6,×,2,6 × 2,incongruent,largerFirst,1,2,12,,,,,,,,
,,,,,,,,,,,,,,,686,2022-02-03_10h22.39.219,multiplicationStroop,2021.2.3,MacIntel,60.0024001,,,,,,,,,,,,,,,,,,,,,,,,,,,,,,,,,24,1.7336,1,0,13,13,9,1,3,×,8,3 × 8,incongruent,smallerFirst,2,1,24,,,,,,,,
,,,,,,,,,,,,,,,686,2022-02-03_10h22.39.219,multiplicationStroop,2021.2.3,MacIntel,60.0024001,,,,,,,,,,,,,,,,,,,,,,,,,,,,,,,,,20,1.548,1,0,14,14,27,1,5,×,4,5 × 4,incongruent,largerFirst,1,2,20,,,,,,,,
,,,,,,,,,,,,,,,686,2022-02-03_10h22.39.219,multiplicationStroop,2021.2.3,MacIntel,60.0024001,,,,,,,,,,,,,,,,,,,,,,,,,,,,,,,,,18,1.3988,1,0,15,15,2,1,2,×,9,2 × 9,incongruent,smallerFirst,2,1,18,,,,,,,,
,,,,,,,,,,,,,,,686,2022-02-03_10h22.39.219,multiplicationStroop,2021.2.3,MacIntel,60.0024001,,,,,,,,,,,,,,,,,,,,,,,,,,,,,,,,,8,1.2844,1,0,16,16,24,1,4,×,2,4 × 2,incongruent,largerFirst,1,2,8,,,,,,,,
,,,,,,,,,,,,,,,686,2022-02-03_10h22.39.219,multiplicationStroop,2021.2.3,MacIntel,60.0024001,,,,,,,,,,,,,,,,,,,,,,,,,,,,,,,,,14,1.398,1,0,17,17,4,1,2,×,7,2 × 7,incongruent,smallerFirst,2,1,14,,,,,,,,
,,,,,,,,,,,,,,,686,2022-02-03_10h22.39.219,multiplicationStroop,2021.2.3,MacIntel,60.0024001,,,,,,,,,,,,,,,,,,,,,,,,,,,,,,,,,54,1.6166,1,0,18,18,6,1,6,×,9,6 × 9,incongruent,smallerFirst,2,1,54,,,,,,,,
,,,,,,,,,,,,,,,686,2022-02-03_10h22.39.219,multiplicationStroop,2021.2.3,MacIntel,60.0024001,,,,,,,,,,,,,,,,,,,,,,,,,,,,,,,,,56,1.5994,1,0,19,19,14,1,8,×,7,8 × 7,incongruent,largerFirst,1,2,56,,,,,,,,
,,,,,,,,,,,,,,,686,2022-02-03_10h22.39.219,multiplicationStroop,2021.2.3,MacIntel,60.0024001,,,,,,,,,,,,,,,,,,,,,,,,,,,,,,,,,21,1.3164,1,0,20,20,26,1,7,×,3,7 × 3,incongruent,largerFirst,1,2,21,,,,,,,,
,,,,,,,,,,,,,,,686,2022-02-03_10h22.39.219,multiplicationStroop,2021.2.3,MacIntel,60.0024001,,,,,,,,,,,,,,,,,,,,,,,,,,,,,,,,,42,2.0341,1,0,21,21,17,1,7,×,6,7 × 6,incongruent,largerFirst,1,2,42,,,,,,,,
,,,,,,,,,,,,,,,686,2022-02-03_10h22.39.219,multiplicationStroop,2021.2.3,MacIntel,60.0024001,,,,,,,,,,,,,,,,,,,,,,,,,,,,,,,,,40,1.6984,1,0,22,22,13,1,5,×,8,5 × 8,incongruent,smallerFirst,2,1,40,,,,,,,,
,,,,,,,,,,,,,,,686,2022-02-03_10h22.39.219,multiplicationStroop,2021.2.3,MacIntel,60.0024001,,,,,,,,,,,,,,,,,,,,,,,,,,,,,,,,,36,1.9827,1,0,23,23,15,1,9,×,4,9 × 4,incongruent,largerFirst,1,2,36,,,,,,,,
,,,,,,,,,,,,,,,686,2022-02-03_10h22.39.219,multiplicationStroop,2021.2.3,MacIntel,60.0024001,,,,,,,,,,,,,,,,,,,,,,,,,,,,,,,,,64,1.849,1,0,24,24,34,1,8,×,8,8 × 8,incongruent,tie,1,2,64,,,,,,,,
,,,,,,,,,,,,,,,686,2022-02-03_10h22.39.219,multiplicationStroop,2021.2.3,MacIntel,60.0024001,,,,,,,,,,,,,,,,,,,,,,,,,,,,,,,,,10,1.2832,1,0,25,25,21,1,5,×,2,5 × 2,incongruent,largerFirst,1,2,10,,,,,,,,
,,,,,,,,,,,,,,,686,2022-02-03_10h22.39.219,multiplicationStroop,2021.2.3,MacIntel,60.0024001,,,,,,,,,,,,,,,,,,,,,,,,,,,,,,,,,15,1.3333,1,0,26,26,10,1,3,×,5,3 × 5,incongruent,smallerFirst,2,1,15,,,,,,,,
,,,,,,,,,,,,,,,686,2022-02-03_10h22.39.219,multiplicationStroop,2021.2.3,MacIntel,60.0024001,,,,,,,,,,,,,,,,,,,,,,,,,,,,,,,,,18,2.0328,1,0,27,27,8,1,3,×,6,3 × 6,incongruent,smallerFirst,2,1,18,,,,,,,,
,,,,,,,,,,,,,,,686,2022-02-03_10h22.39.219,multiplicationStroop,2021.2.3,MacIntel,60.0024001,,,,,,,,,,,,,,,,,,,,,,,,,,,,,,,,,35,1.6164,1,0,28,28,12,1,5,×,7,5 × 7,incongruent,smallerFirst,2,1,35,,,,,,,,
,,,,,,,,,,,,,,,686,2022-02-03_10h22.39.219,multiplicationStroop,2021.2.3,MacIntel,60.0024001,,,,,,,,,,,,,,,,,,,,,,,,,,,,,,,,,30,1.6997,1,0,29,29,25,1,6,×,5,6 × 5,incongruent,largerFirst,1,2,30,,,,,,,,
,,,,,,,,,,,,,,,686,2022-02-03_10h22.39.219,multiplicationStroop,2021.2.3,MacIntel,60.0024001,,,,,,,,,,,,,,,,,,,,,,,,,,,,,,,,,28,1.8831,1,0,30,30,16,1,7,×,4,7 × 4,incongruent,largerFirst,1,2,28,,,,,,,,
,,,,,,,,,,,,,,,686,2022-02-03_10h22.39.219,multiplicationStroop,2021.2.3,MacIntel,60.0024001,,,,,,,,,,,,,,,,,,,,,,,,,,,,,,,,,27,2.1491,1,0,31,31,18,1,9,×,3,9 × 3,incongruent,largerFirst,1,2,27,,,,,,,,
,,,,,,,,,,,,,,,686,2022-02-03_10h22.39.219,multiplicationStroop,2021.2.3,MacIntel,60.0024001,,,,,,,,,,,,,,,,,,,,,,,,,,,,,,,,,35,1.9498,0,0,32,32,31,1,5,×,5,5 × 5,incongruent,tie,1,2,25,,,,,,,,
,,,,,,,,,,,,,,,686,2022-02-03_10h22.39.219,multiplicationStroop,2021.2.3,MacIntel,60.0024001,,,,,,,,,,,,,,,,,,,,,,,,,,,,,,,,,16,1.5503,1,0,33,33,30,1,4,×,4,4 × 4,incongruent,tie,1,2,16,,,,,,,,
,,,,,,,,,,,,,,,686,2022-02-03_10h22.39.219,multiplicationStroop,2021.2.3,MacIntel,60.0024001,,,,,,,,,,,,,,,,,,,,,,,,,,,,,,,,,63,1.8664,1,0,34,34,3,1,7,×,9,7 × 9,incongruent,smallerFirst,2,1,63,,,,,,,,
,,,,,,,,,,,,,,,686,2022-02-03_10h22.39.219,multiplicationStroop,2021.2.3,MacIntel,60.0024001,,,,,,,,,,,,,,,,,,,,,,,,,,,,,,,,,4,2.4642,1,0,35,35,28,1,2,×,2,2 × 2,incongruent,tie,1,2,4,,,,,,,,
,,,,,,,,,,,,,,,686,2022-02-03_10h22.39.219,multiplicationStroop,2021.2.3,MacIntel,60.0024001,,,,,,,,,,,,,,,,,,,,,,,,,,,,,,,,,,,,,,,,,,,,,,,,,,0,4,4,5,1,stimulusFile/mult_blk6_INcongruent.xlsx,,
,,,,,,,,,,,,,,,686,2022-02-03_10h22.39.219,multiplicationStroop,2021.2.3,MacIntel,60.0024001,,,,,,,,,,,,,,,,,,,,,,,,,,,,,,,space,2.0845,36,1.9059,1,0,0,0,1,1,4,×,9,4 × 9,incongruent,smallerFirst,2,1,36,,,,,,,,
,,,,,,,,,,,,,,,686,2022-02-03_10h22.39.219,multiplicationStroop,2021.2.3,MacIntel,60.0024001,,,,,,,,,,,,,,,,,,,,,,,,,,,,,,,,,30,1.4495,1,0,1,1,11,1,5,×,6,5 × 6,incongruent,smallerFirst,2,1,30,,,,,,,,
,,,,,,,,,,,,,,,686,2022-02-03_10h22.39.219,multiplicationStroop,2021.2.3,MacIntel,60.0024001,,,,,,,,,,,,,,,,,,,,,,,,,,,,,,,,,16,1.3327,1,0,2,2,30,1,4,×,4,4 × 4,neutral,tie,2,1,16,,,,,,,,
,,,,,,,,,,,,,,,686,2022-02-03_10h22.39.219,multiplicationStroop,2021.2.3,MacIntel,60.0024001,,,,,,,,,,,,,,,,,,,,,,,,,,,,,,,,,9,1.3497,1,0,3,3,29,1,3,×,3,3 × 3,neutral,tie,2,1,9,,,,,,,,
,,,,,,,,,,,,,,,686,2022-02-03_10h22.39.219,multiplicationStroop,2021.2.3,MacIntel,60.0024001,,,,,,,,,,,,,,,,,,,,,,,,,,,,,,,,,63,2.116,1,0,4,4,17,1,9,×,7,9 × 7,incongruent,largerFirst,1,2,63,,,,,,,,
,,,,,,,,,,,,,,,686,2022-02-03_10h22.39.219,multiplicationStroop,2021.2.3,MacIntel,60.0024001,,,,,,,,,,,,,,,,,,,,,,,,,,,,,,,,,16,1.5177,1,0,5,5,9,1,2,×,8,2 × 8,incongruent,smallerFirst,2,1,16,,,,,,,,
,,,,,,,,,,,,,,,686,2022-02-03_10h22.39.219,multiplicationStroop,2021.2.3,MacIntel,60.0024001,,,,,,,,,,,,,,,,,,,,,,,,,,,,,,,,,1,1.565,0,0,6,6,22,1,6,×,3,6 × 3,incongruent,largerFirst,1,2,18,,,,,,,,
,,,,,,,,,,,,,,,686,2022-02-03_10h22.39.219,multiplicationStroop,2021.2.3,MacIntel,60.0024001,,,,,,,,,,,,,,,,,,,,,,,,,,,,,,,,,40,2.2837,1,0,7,7,27,1,8,×,5,8 × 5,incongruent,largerFirst,1,2,40,,,,,,,,
,,,,,,,,,,,,,,,686,2022-02-03_10h22.39.219,multiplicationStroop,2021.2.3,MacIntel,60.0024001,,,,,,,,,,,,,,,,,,,,,,,,,,,,,,,,,20,1.6812,1,0,8,8,13,1,4,×,5,4 × 5,incongruent,smallerFirst,2,1,20,,,,,,,,
,,,,,,,,,,,,,,,686,2022-02-03_10h22.39.219,multiplicationStroop,2021.2.3,MacIntel,60.0024001,,,,,,,,,,,,,,,,,,,,,,,,,,,,,,,,,8,1.4825,1,0,9,9,10,1,2,×,4,2 × 4,incongruent,smallerFirst,2,1,8,,,,,,,,
,,,,,,,,,,,,,,,686,2022-02-03_10h22.39.219,multiplicationStroop,2021.2.3,MacIntel,60.0024001,,,,,,,,,,,,,,,,,,,,,,,,,,,,,,,,,56,1.6325,1,0,10,10,0,1,7,×,8,7 × 8,incongruent,smallerFirst,2,1,56,,,,,,,,
,,,,,,,,,,,,,,,686,2022-02-03_10h22.39.219,multiplicationStroop,2021.2.3,MacIntel,60.0024001,,,,,,,,,,,,,,,,,,,,,,,,,,,,,,,,,81,1.5842,1,0,11,11,35,1,9,×,9,9 × 9,neutral,tie,2,1,81,,,,,,,,
,,,,,,,,,,,,,,,686,2022-02-03_10h22.39.219,multiplicationStroop,2021.2.3,MacIntel,60.0024001,,,,,,,,,,,,,,,,,,,,,,,,,,,,,,,,,27,2.0334,1,0,12,12,4,1,3,×,9,3 × 9,incongruent,smallerFirst,2,1,27,,,,,,,,
,,,,,,,,,,,,,,,686,2022-02-03_10h22.39.219,multiplicationStroop,2021.2.3,MacIntel,60.0024001,,,,,,,,,,,,,,,,,,,,,,,,,,,,,,,,,45,1.8141,1,0,13,13,8,1,5,×,9,5 × 9,incongruent,smallerFirst,2,1,45,,,,,,,,
,,,,,,,,,,,,,,,686,2022-02-03_10h22.39.219,multiplicationStroop,2021.2.3,MacIntel,60.0024001,,,,,,,,,,,,,,,,,,,,,,,,,,,,,,,,,4,1.5337,1,0,14,14,28,1,2,×,2,2 × 2,neutral,tie,2,1,4,,,,,,,,
,,,,,,,,,,,,,,,686,2022-02-03_10h22.39.219,multiplicationStroop,2021.2.3,MacIntel,60.0024001,,,,,,,,,,,,,,,,,,,,,,,,,,,,,,,,,28,1.9159,1,0,15,15,2,1,4,×,7,4 × 7,incongruent,smallerFirst,2,1,28,,,,,,,,
,,,,,,,,,,,,,,,686,2022-02-03_10h22.39.219,multiplicationStroop,2021.2.3,MacIntel,60.0024001,,,,,,,,,,,,,,,,,,,,,,,,,,,,,,,,,36,1.7,1,0,16,16,32,1,6,×,6,6 × 6,neutral,tie,2,1,36,,,,,,,,
,,,,,,,,,,,,,,,686,2022-02-03_10h22.39.219,multiplicationStroop,2021.2.3,MacIntel,60.0024001,,,,,,,,,,,,,,,,,,,,,,,,,,,,,,,,,18,1.6995,1,0,17,17,16,1,9,×,2,9 × 2,incongruent,largerFirst,1,2,18,,,,,,,,
,,,,,,,,,,,,,,,686,2022-02-03_10h22.39.219,multiplicationStroop,2021.2.3,MacIntel,60.0024001,,,,,,,,,,,,,,,,,,,,,,,,,,,,,,,,,35,1.4833,1,0,18,18,26,1,7,×,5,7 × 5,incongruent,largerFirst,1,2,35,,,,,,,,
,,,,,,,,,,,,,,,686,2022-02-03_10h22.39.219,multiplicationStroop,2021.2.3,MacIntel,60.0024001,,,,,,,,,,,,,,,,,,,,,,,,,,,,,,,,,72,2.2335,1,0,19,19,14,1,9,×,8,9 × 8,incongruent,largerFirst,1,2,72,,,,,,,,
,,,,,,,,,,,,,,,686,2022-02-03_10h22.39.219,multiplicationStroop,2021.2.3,MacIntel,60.0024001,,,,,,,,,,,,,,,,,,,,,,,,,,,,,,,,,6,1.4813,1,0,20,20,25,1,3,×,2,3 × 2,incongruent,largerFirst,1,2,6,,,,,,,,
,,,,,,,,,,,,,,,686,2022-02-03_10h22.39.219,multiplicationStroop,2021.2.3,MacIntel,60.0024001,,,,,,,,,,,,,,,,,,,,,,,,,,,,,,,,,12,1.6836,1,0,21,21,5,1,2,×,6,2 × 6,incongruent,smallerFirst,2,1,12,,,,,,,,
,,,,,,,,,,,,,,,686,2022-02-03_10h22.39.219,multiplicationStroop,2021.2.3,MacIntel,60.0024001,,,,,,,,,,,,,,,,,,,,,,,,,,,,,,,,,32,1.8988,1,0,22,22,21,1,8,×,4,8 × 4,incongruent,largerFirst,1,2,32,,,,,,,,
,,,,,,,,,,,,,,,686,2022-02-03_10h22.39.219,multiplicationStroop,2021.2.3,MacIntel,60.0024001,,,,,,,,,,,,,,,,,,,,,,,,,,,,,,,,,48,1.7497,1,0,23,23,15,1,8,×,6,8 × 6,incongruent,largerFirst,1,2,48,,,,,,,,
,,,,,,,,,,,,,,,686,2022-02-03_10h22.39.219,multiplicationStroop,2021.2.3,MacIntel,60.0024001,,,,,,,,,,,,,,,,,,,,,,,,,,,,,,,,,49,2.1659,1,0,24,24,33,1,7,×,7,7 × 7,neutral,tie,2,1,49,,,,,,,,
,,,,,,,,,,,,,,,686,2022-02-03_10h22.39.219,multiplicationStroop,2021.2.3,MacIntel,60.0024001,,,,,,,,,,,,,,,,,,,,,,,,,,,,,,,,,21,1.4907,1,0,25,25,12,1,3,×,7,3 × 7,incongruent,smallerFirst,2,1,21,,,,,,,,
,,,,,,,,,,,,,,,686,2022-02-03_10h22.39.219,multiplicationStroop,2021.2.3,MacIntel,60.0024001,,,,,,,,,,,,,,,,,,,,,,,,,,,,,,,,,24,1.3995,1,0,26,26,6,1,4,×,6,4 × 6,incongruent,smallerFirst,2,1,24,,,,,,,,
,,,,,,,,,,,,,,,686,2022-02-03_10h22.39.219,multiplicationStroop,2021.2.3,MacIntel,60.0024001,,,,,,,,,,,,,,,,,,,,,,,,,,,,,,,,,64,1.8662,1,0,27,27,34,1,8,×,8,8 × 8,neutral,tie,2,1,64,,,,,,,,
,,,,,,,,,,,,,,,686,2022-02-03_10h22.39.219,multiplicationStroop,2021.2.3,MacIntel,60.0024001,,,,,,,,,,,,,,,,,,,,,,,,,,,,,,,,,25,1.366,1,0,28,28,31,1,5,×,5,5 × 5,neutral,tie,2,1,25,,,,,,,,
,,,,,,,,,,,,,,,686,2022-02-03_10h22.39.219,multiplicationStroop,2021.2.3,MacIntel,60.0024001,,,,,,,,,,,,,,,,,,,,,,,,,,,,,,,,,14,1.6841,1,0,29,29,18,1,7,×,2,7 × 2,incongruent,largerFirst,1,2,14,,,,,,,,
,,,,,,,,,,,,,,,686,2022-02-03_10h22.39.219,multiplicationStroop,2021.2.3,MacIntel,60.0024001,,,,,,,,,,,,,,,,,,,,,,,,,,,,,,,,,15,1.5155,1,0,30,30,24,1,5,×,3,5 × 3,incongruent,largerFirst,1,2,15,,,,,,,,
,,,,,,,,,,,,,,,686,2022-02-03_10h22.39.219,multiplicationStroop,2021.2.3,MacIntel,60.0024001,,,,,,,,,,,,,,,,,,,,,,,,,,,,,,,,,42,1.8331,1,0,31,31,3,1,6,×,7,6 × 7,incongruent,smallerFirst,2,1,42,,,,,,,,
,,,,,,,,,,,,,,,686,2022-02-03_10h22.39.219,multiplicationStroop,2021.2.3,MacIntel,60.0024001,,,,,,,,,,,,,,,,,,,,,,,,,,,,,,,,,24,1.7655,1,0,32,32,23,1,8,×,3,8 × 3,incongruent,largerFirst,1,2,24,,,,,,,,
,,,,,,,,,,,,,,,686,2022-02-03_10h22.39.219,multiplicationStroop,2021.2.3,MacIntel,60.0024001,,,,,,,,,,,,,,,,,,,,,,,,,,,,,,,,,54,2.1161,1,0,33,33,20,1,9,×,6,9 × 6,incongruent,largerFirst,1,2,54,,,,,,,,
,,,,,,,,,,,,,,,686,2022-02-03_10h22.39.219,multiplicationStroop,2021.2.3,MacIntel,60.0024001,,,,,,,,,,,,,,,,,,,,,,,,,,,,,,,,,10,1.5667,1,0,34,34,7,1,2,×,5,2 × 5,incongruent,smallerFirst,2,1,10,,,,,,,,
,,,,,,,,,,,,,,,686,2022-02-03_10h22.39.219,multiplicationStroop,2021.2.3,MacIntel,60.0024001,,,,,,,,,,,,,,,,,,,,,,,,,,,,,,,,,12,1.2648,1,0,35,35,19,1,4,×,3,4 × 3,incongruent,largerFirst,1,2,12,,,,,,,,
,,,,,,,,,,,,,,,686,2022-02-03_10h22.39.219,multiplicationStroop,2021.2.3,MacIntel,60.0024001,,,,,,,,,,,,,,,,,,,,,,,,,,,,,,,,,,,,,,,,,,,,,,,,,,0,5,5,4,1,stimulusFile/mult_blk5_INcongruent.xlsx,,
,,,,,,,,,,,,,,,686,2022-02-03_10h22.39.219,multiplicationStroop,2021.2.3,MacIntel,60.0024001,,,,,,,,,,,,,,,,,,,,,,,,,,,,,,,,,,,,,,,,,,,,,,,,,,,,,,,,space,6.9067