welcomeKey_resp.keys,welcomeKey_resp.rt,X Scale,Y Scale,rt_resp_4.keys,rt_resp_4.corr,rt_resp_4.rt,speedtest_2.thisRepN,speedtest_2.thisTrialN,speedtest_2.thisN,speedtest_2.thisIndex,speedtest_2.ran,numberSc,posX,positionLayout,participant,date,expName,psychopyVersion,OS,frameRate,ct_instrresp.keys,ct_instrresp.rt,key_resp_2.keys,key_resp_2.rt,ct_keyResp.keys,ct_keyResp.corr,ct_keyResp.rt,trials.thisRepN,trials.thisTrialN,trials.thisN,trials.thisIndex,trials.ran,leftNo,rightNo,displayProblem,numDistance,leftNo_size,rightNo_size,Dims,keyAnswer,TS_Loop.thisRepN,TS_Loop.thisTrialN,TS_Loop.thisN,TS_Loop.thisIndex,TS_Loop.ran,Condition,ActionInst,instrImage,mltptaskInst_resp.keys,mltptaskInst_resp.rt,continue_resp_2.keys,continue_resp_2.rt,multp_Answer,multi_RT,multiplyCorr,LoopingMultiply.thisRepN,LoopingMultiply.thisTrialN,LoopingMultiply.thisN,LoopingMultiply.thisIndex,LoopingMultiply.ran,factor1,multiplySign,factor2,multliplyProblem,physicalSize,orderOperand,sizeF1,sizeF2,mult_answer,trials_stroop.thisRepN,trials_stroop.thisTrialN,trials_stroop.thisN,trials_stroop.thisIndex,trials_stroop.ran,multiplicationFile,esckey_resp_2.keys,esckey_resp_2.rt
y,5.6663,45.3,44.9,right,1,0.6287,0,0,0,14,1,8,200,right,687,2022-02-05_14h20.49.721,multiplicationStroop,2021.2.3,Win32,59.75143403,,,,,,,,,,,,,,,,,,,,,,,,,,,,,,,,,,,,,,,,,,,,,,,,,,,,,,,,,
,,,,right,1,0.2848,0,1,1,15,1,9,200,right,687,2022-02-05_14h20.49.721,multiplicationStroop,2021.2.3,Win32,59.75143403,,,,,,,,,,,,,,,,,,,,,,,,,,,,,,,,,,,,,,,,,,,,,,,,,,,,,,,,,
,,,,left,1,0.2902,0,2,2,2,1,3,-200,left,687,2022-02-05_14h20.49.721,multiplicationStroop,2021.2.3,Win32,59.75143403,,,,,,,,,,,,,,,,,,,,,,,,,,,,,,,,,,,,,,,,,,,,,,,,,,,,,,,,,
,,,,right,1,0.3135,0,3,3,13,1,7,200,right,687,2022-02-05_14h20.49.721,multiplicationStroop,2021.2.3,Win32,59.75143403,,,,,,,,,,,,,,,,,,,,,,,,,,,,,,,,,,,,,,,,,,,,,,,,,,,,,,,,,
,,,,right,1,0.2428,0,4,4,11,1,4,200,right,687,2022-02-05_14h20.49.721,multiplicationStroop,2021.2.3,Win32,59.75143403,,,,,,,,,,,,,,,,,,,,,,,,,,,,,,,,,,,,,,,,,,,,,,,,,,,,,,,,,
,,,,left,1,0.264,0,5,5,0,1,1,-200,left,687,2022-02-05_14h20.49.721,multiplicationStroop,2021.2.3,Win32,59.75143403,,,,,,,,,,,,,,,,,,,,,,,,,,,,,,,,,,,,,,,,,,,,,,,,,,,,,,,,,
,,,,left,1,0.2925,0,6,6,3,1,4,-200,left,687,2022-02-05_14h20.49.721,multiplicationStroop,2021.2.3,Win32,59.75143403,,,,,,,,,,,,,,,,,,,,,,,,,,,,,,,,,,,,,,,,,,,,,,,,,,,,,,,,,
,,,,right,1,0.2475,0,7,7,10,1,3,200,right,687,2022-02-05_14h20.49.721,multiplicationStroop,2021.2.3,Win32,59.75143403,,,,,,,,,,,,,,,,,,,,,,,,,,,,,,,,,,,,,,,,,,,,,,,,,,,,,,,,,
,,,,right,0,0.2382,0,8,8,6,1,8,-200,left,687,2022-02-05_14h20.49.721,multiplicationStroop,2021.2.3,Win32,59.75143403,,,,,,,,,,,,,,,,,,,,,,,,,,,,,,,,,,,,,,,,,,,,,,,,,,,,,,,,,
,,,,left,1,0.3589,0,9,9,4,1,6,-200,left,687,2022-02-05_14h20.49.721,multiplicationStroop,2021.2.3,Win32,59.75143403,,,,,,,,,,,,,,,,,,,,,,,,,,,,,,,,,,,,,,,,,,,,,,,,,,,,,,,,,
,,,,right,1,0.2817,0,10,10,12,1,6,200,right,687,2022-02-05_14h20.49.721,multiplicationStroop,2021.2.3,Win32,59.75143403,,,,,,,,,,,,,,,,,,,,,,,,,,,,,,,,,,,,,,,,,,,,,,,,,,,,,,,,,
,,,,left,1,0.2168,0,11,11,7,1,9,-200,left,687,2022-02-05_14h20.49.721,multiplicationStroop,2021.2.3,Win32,59.75143403,,,,,,,,,,,,,,,,,,,,,,,,,,,,,,,,,,,,,,,,,,,,,,,,,,,,,,,,,
,,,,left,1,0.24,0,12,12,1,1,2,-200,left,687,2022-02-05_14h20.49.721,multiplicationStroop,2021.2.3,Win32,59.75143403,,,,,,,,,,,,,,,,,,,,,,,,,,,,,,,,,,,,,,,,,,,,,,,,,,,,,,,,,
,,,,right,1,0.2552,0,13,13,8,1,1,200,right,687,2022-02-05_14h20.49.721,multiplicationStroop,2021.2.3,Win32,59.75143403,,,,,,,,,,,,,,,,,,,,,,,,,,,,,,,,,,,,,,,,,,,,,,,,,,,,,,,,,
,,,,right,1,0.2696,0,14,14,9,1,2,200,right,687,2022-02-05_14h20.49.721,multiplicationStroop,2021.2.3,Win32,59.75143403,,,,,,,,,,,,,,,,,,,,,,,,,,,,,,,,,,,,,,,,,,,,,,,,,,,,,,,,,
,,,,left,1,0.2665,0,15,15,5,1,7,-200,left,687,2022-02-05_14h20.49.721,multiplicationStroop,2021.2.3,Win32,59.75143403,,,,,,,,,,,,,,,,,,,,,,,,,,,,,,,,,,,,,,,,,,,,,,,,,,,,,,,,,
,,,,left,1,0.2888,1,0,16,1,1,2,-200,left,687,2022-02-05_14h20.49.721,multiplicationStroop,2021.2.3,Win32,59.75143403,,,,,,,,,,,,,,,,,,,,,,,,,,,,,,,,,,,,,,,,,,,,,,,,,,,,,,,,,
,,,,right,1,0.2839,1,1,17,9,1,2,200,right,687,2022-02-05_14h20.49.721,multiplicationStroop,2021.2.3,Win32,59.75143403,,,,,,,,,,,,,,,,,,,,,,,,,,,,,,,,,,,,,,,,,,,,,,,,,,,,,,,,,
,,,,left,1,0.3166,1,2,18,0,1,1,-200,left,687,2022-02-05_14h20.49.721,multiplicationStroop,2021.2.3,Win32,59.75143403,,,,,,,,,,,,,,,,,,,,,,,,,,,,,,,,,,,,,,,,,,,,,,,,,,,,,,,,,
,,,,left,1,0.2748,1,3,19,7,1,9,-200,left,687,2022-02-05_14h20.49.721,multiplicationStroop,2021.2.3,Win32,59.75143403,,,,,,,,,,,,,,,,,,,,,,,,,,,,,,,,,,,,,,,,,,,,,,,,,,,,,,,,,
,,,,left,1,0.2412,1,4,20,3,1,4,-200,left,687,2022-02-05_14h20.49.721,multiplicationStroop,2021.2.3,Win32,59.75143403,,,,,,,,,,,,,,,,,,,,,,,,,,,,,,,,,,,,,,,,,,,,,,,,,,,,,,,,,
,,,,left,1,0.2707,1,5,21,5,1,7,-200,left,687,2022-02-05_14h20.49.721,multiplicationStroop,2021.2.3,Win32,59.75143403,,,,,,,,,,,,,,,,,,,,,,,,,,,,,,,,,,,,,,,,,,,,,,,,,,,,,,,,,
,,,,left,1,0.2452,1,6,22,4,1,6,-200,left,687,2022-02-05_14h20.49.721,multiplicationStroop,2021.2.3,Win32,59.75143403,,,,,,,,,,,,,,,,,,,,,,,,,,,,,,,,,,,,,,,,,,,,,,,,,,,,,,,,,
,,,,right,1,0.2894,1,7,23,13,1,7,200,right,687,2022-02-05_14h20.49.721,multiplicationStroop,2021.2.3,Win32,59.75143403,,,,,,,,,,,,,,,,,,,,,,,,,,,,,,,,,,,,,,,,,,,,,,,,,,,,,,,,,
,,,,left,1,0.2504,1,8,24,2,1,3,-200,left,687,2022-02-05_14h20.49.721,multiplicationStroop,2021.2.3,Win32,59.75143403,,,,,,,,,,,,,,,,,,,,,,,,,,,,,,,,,,,,,,,,,,,,,,,,,,,,,,,,,
,,,,right,1,0.287,1,9,25,8,1,1,200,right,687,2022-02-05_14h20.49.721,multiplicationStroop,2021.2.3,Win32,59.75143403,,,,,,,,,,,,,,,,,,,,,,,,,,,,,,,,,,,,,,,,,,,,,,,,,,,,,,,,,
,,,,right,1,0.3007,1,10,26,12,1,6,200,right,687,2022-02-05_14h20.49.721,multiplicationStroop,2021.2.3,Win32,59.75143403,,,,,,,,,,,,,,,,,,,,,,,,,,,,,,,,,,,,,,,,,,,,,,,,,,,,,,,,,
,,,,right,1,0.2502,1,11,27,10,1,3,200,right,687,2022-02-05_14h20.49.721,multiplicationStroop,2021.2.3,Win32,59.75143403,,,,,,,,,,,,,,,,,,,,,,,,,,,,,,,,,,,,,,,,,,,,,,,,,,,,,,,,,
,,,,right,1,0.231,1,12,28,15,1,9,200,right,687,2022-02-05_14h20.49.721,multiplicationStroop,2021.2.3,Win32,59.75143403,,,,,,,,,,,,,,,,,,,,,,,,,,,,,,,,,,,,,,,,,,,,,,,,,,,,,,,,,
,,,,right,1,0.1932,1,13,29,11,1,4,200,right,687,2022-02-05_14h20.49.721,multiplicationStroop,2021.2.3,Win32,59.75143403,,,,,,,,,,,,,,,,,,,,,,,,,,,,,,,,,,,,,,,,,,,,,,,,,,,,,,,,,
,,,,right,0,0.1745,1,14,30,6,1,8,-200,left,687,2022-02-05_14h20.49.721,multiplicationStroop,2021.2.3,Win32,59.75143403,,,,,,,,,,,,,,,,,,,,,,,,,,,,,,,,,,,,,,,,,,,,,,,,,,,,,,,,,
,,,,right,1,0.3365,1,15,31,14,1,8,200,right,687,2022-02-05_14h20.49.721,multiplicationStroop,2021.2.3,Win32,59.75143403,,,,,,,,,,,,,,,,,,,,,,,,,,,,,,,,,,,,,,,,,,,,,,,,,,,,,,,,,
,,,,right,1,0.2496,2,0,32,9,1,2,200,right,687,2022-02-05_14h20.49.721,multiplicationStroop,2021.2.3,Win32,59.75143403,,,,,,,,,,,,,,,,,,,,,,,,,,,,,,,,,,,,,,,,,,,,,,,,,,,,,,,,,
,,,,right,1,0.2675,2,1,33,14,1,8,200,right,687,2022-02-05_14h20.49.721,multiplicationStroop,2021.2.3,Win32,59.75143403,,,,,,,,,,,,,,,,,,,,,,,,,,,,,,,,,,,,,,,,,,,,,,,,,,,,,,,,,
,,,,right,1,0.2509,2,2,34,8,1,1,200,right,687,2022-02-05_14h20.49.721,multiplicationStroop,2021.2.3,Win32,59.75143403,,,,,,,,,,,,,,,,,,,,,,,,,,,,,,,,,,,,,,,,,,,,,,,,,,,,,,,,,
,,,,left,1,0.3404,2,3,35,2,1,3,-200,left,687,2022-02-05_14h20.49.721,multiplicationStroop,2021.2.3,Win32,59.75143403,,,,,,,,,,,,,,,,,,,,,,,,,,,,,,,,,,,,,,,,,,,,,,,,,,,,,,,,,
,,,,right,1,0.3076,2,4,36,13,1,7,200,right,687,2022-02-05_14h20.49.721,multiplicationStroop,2021.2.3,Win32,59.75143403,,,,,,,,,,,,,,,,,,,,,,,,,,,,,,,,,,,,,,,,,,,,,,,,,,,,,,,,,
,,,,left,1,0.2582,2,5,37,5,1,7,-200,left,687,2022-02-05_14h20.49.721,multiplicationStroop,2021.2.3,Win32,59.75143403,,,,,,,,,,,,,,,,,,,,,,,,,,,,,,,,,,,,,,,,,,,,,,,,,,,,,,,,,
,,,,left,1,0.3152,2,6,38,0,1,1,-200,left,687,2022-02-05_14h20.49.721,multiplicationStroop,2021.2.3,Win32,59.75143403,,,,,,,,,,,,,,,,,,,,,,,,,,,,,,,,,,,,,,,,,,,,,,,,,,,,,,,,,
,,,,right,1,0.257,2,7,39,10,1,3,200,right,687,2022-02-05_14h20.49.721,multiplicationStroop,2021.2.3,Win32,59.75143403,,,,,,,,,,,,,,,,,,,,,,,,,,,,,,,,,,,,,,,,,,,,,,,,,,,,,,,,,
,,,,left,1,0.2728,2,8,40,1,1,2,-200,left,687,2022-02-05_14h20.49.721,multiplicationStroop,2021.2.3,Win32,59.75143403,,,,,,,,,,,,,,,,,,,,,,,,,,,,,,,,,,,,,,,,,,,,,,,,,,,,,,,,,
,,,,left,1,0.2808,2,9,41,3,1,4,-200,left,687,2022-02-05_14h20.49.721,multiplicationStroop,2021.2.3,Win32,59.75143403,,,,,,,,,,,,,,,,,,,,,,,,,,,,,,,,,,,,,,,,,,,,,,,,,,,,,,,,,
,,,,right,1,0.3051,2,10,42,15,1,9,200,right,687,2022-02-05_14h20.49.721,multiplicationStroop,2021.2.3,Win32,59.75143403,,,,,,,,,,,,,,,,,,,,,,,,,,,,,,,,,,,,,,,,,,,,,,,,,,,,,,,,,
,,,,left,1,0.251,2,11,43,4,1,6,-200,left,687,2022-02-05_14h20.49.721,multiplicationStroop,2021.2.3,Win32,59.75143403,,,,,,,,,,,,,,,,,,,,,,,,,,,,,,,,,,,,,,,,,,,,,,,,,,,,,,,,,
,,,,right,1,0.2663,2,12,44,12,1,6,200,right,687,2022-02-05_14h20.49.721,multiplicationStroop,2021.2.3,Win32,59.75143403,,,,,,,,,,,,,,,,,,,,,,,,,,,,,,,,,,,,,,,,,,,,,,,,,,,,,,,,,
,,,,left,1,0.2634,2,13,45,7,1,9,-200,left,687,2022-02-05_14h20.49.721,multiplicationStroop,2021.2.3,Win32,59.75143403,,,,,,,,,,,,,,,,,,,,,,,,,,,,,,,,,,,,,,,,,,,,,,,,,,,,,,,,,
,,,,right,1,0.2745,2,14,46,11,1,4,200,right,687,2022-02-05_14h20.49.721,multiplicationStroop,2021.2.3,Win32,59.75143403,,,,,,,,,,,,,,,,,,,,,,,,,,,,,,,,,,,,,,,,,,,,,,,,,,,,,,,,,
,,,,left,1,0.2381,2,15,47,6,1,8,-200,left,687,2022-02-05_14h20.49.721,multiplicationStroop,2021.2.3,Win32,59.75143403,,,,,,,,,,,,,,,,,,,,,,,,,,,,,,,,,,,,,,,,,,,,,,,,,,,,,,,,,
,,,,left,1,0.326,3,0,48,2,1,3,-200,left,687,2022-02-05_14h20.49.721,multiplicationStroop,2021.2.3,Win32,59.75143403,,,,,,,,,,,,,,,,,,,,,,,,,,,,,,,,,,,,,,,,,,,,,,,,,,,,,,,,,
,,,,right,1,0.2896,3,1,49,15,1,9,200,right,687,2022-02-05_14h20.49.721,multiplicationStroop,2021.2.3,Win32,59.75143403,,,,,,,,,,,,,,,,,,,,,,,,,,,,,,,,,,,,,,,,,,,,,,,,,,,,,,,,,
,,,,left,1,0.2473,3,2,50,4,1,6,-200,left,687,2022-02-05_14h20.49.721,multiplicationStroop,2021.2.3,Win32,59.75143403,,,,,,,,,,,,,,,,,,,,,,,,,,,,,,,,,,,,,,,,,,,,,,,,,,,,,,,,,
,,,,right,1,0.2643,3,3,51,9,1,2,200,right,687,2022-02-05_14h20.49.721,multiplicationStroop,2021.2.3,Win32,59.75143403,,,,,,,,,,,,,,,,,,,,,,,,,,,,,,,,,,,,,,,,,,,,,,,,,,,,,,,,,
,,,,right,1,0.2863,3,4,52,10,1,3,200,right,687,2022-02-05_14h20.49.721,multiplicationStroop,2021.2.3,Win32,59.75143403,,,,,,,,,,,,,,,,,,,,,,,,,,,,,,,,,,,,,,,,,,,,,,,,,,,,,,,,,
,,,,right,1,0.2428,3,5,53,14,1,8,200,right,687,2022-02-05_14h20.49.721,multiplicationStroop,2021.2.3,Win32,59.75143403,,,,,,,,,,,,,,,,,,,,,,,,,,,,,,,,,,,,,,,,,,,,,,,,,,,,,,,,,
,,,,right,1,0.259,3,6,54,12,1,6,200,right,687,2022-02-05_14h20.49.721,multiplicationStroop,2021.2.3,Win32,59.75143403,,,,,,,,,,,,,,,,,,,,,,,,,,,,,,,,,,,,,,,,,,,,,,,,,,,,,,,,,
,,,,left,1,0.3311,3,7,55,0,1,1,-200,left,687,2022-02-05_14h20.49.721,multiplicationStroop,2021.2.3,Win32,59.75143403,,,,,,,,,,,,,,,,,,,,,,,,,,,,,,,,,,,,,,,,,,,,,,,,,,,,,,,,,
,,,,left,1,0.3811,3,8,56,3,1,4,-200,left,687,2022-02-05_14h20.49.721,multiplicationStroop,2021.2.3,Win32,59.75143403,,,,,,,,,,,,,,,,,,,,,,,,,,,,,,,,,,,,,,,,,,,,,,,,,,,,,,,,,
,,,,right,1,0.2837,3,9,57,8,1,1,200,right,687,2022-02-05_14h20.49.721,multiplicationStroop,2021.2.3,Win32,59.75143403,,,,,,,,,,,,,,,,,,,,,,,,,,,,,,,,,,,,,,,,,,,,,,,,,,,,,,,,,
,,,,right,1,0.2845,3,10,58,11,1,4,200,right,687,2022-02-05_14h20.49.721,multiplicationStroop,2021.2.3,Win32,59.75143403,,,,,,,,,,,,,,,,,,,,,,,,,,,,,,,,,,,,,,,,,,,,,,,,,,,,,,,,,
,,,,left,1,0.3269,3,11,59,7,1,9,-200,left,687,2022-02-05_14h20.49.721,multiplicationStroop,2021.2.3,Win32,59.75143403,,,,,,,,,,,,,,,,,,,,,,,,,,,,,,,,,,,,,,,,,,,,,,,,,,,,,,,,,
,,,,left,1,0.2537,3,12,60,5,1,7,-200,left,687,2022-02-05_14h20.49.721,multiplicationStroop,2021.2.3,Win32,59.75143403,,,,,,,,,,,,,,,,,,,,,,,,,,,,,,,,,,,,,,,,,,,,,,,,,,,,,,,,,
,,,,left,1,0.2889,3,13,61,1,1,2,-200,left,687,2022-02-05_14h20.49.721,multiplicationStroop,2021.2.3,Win32,59.75143403,,,,,,,,,,,,,,,,,,,,,,,,,,,,,,,,,,,,,,,,,,,,,,,,,,,,,,,,,
,,,,right,1,0.295,3,14,62,13,1,7,200,right,687,2022-02-05_14h20.49.721,multiplicationStroop,2021.2.3,Win32,59.75143403,,,,,,,,,,,,,,,,,,,,,,,,,,,,,,,,,,,,,,,,,,,,,,,,,,,,,,,,,
,,,,left,1,0.2883,3,15,63,6,1,8,-200,left,687,2022-02-05_14h20.49.721,multiplicationStroop,2021.2.3,Win32,59.75143403,,,,,,,,,,,,,,,,,,,,,,,,,,,,,,,,,,,,,,,,,,,,,,,,,,,,,,,,,
,,,,,,,,,,,,,,,687,2022-02-05_14h20.49.721,multiplicationStroop,2021.2.3,Win32,59.75143403,space,9.6239,space,6.3606,left,1,0.8951,0,0,0,27,1,8,9,8 | 9,1,1.9756,1.4111,incongruent,left,,,,,,stimulusFile/physical.xlsx,,,,,,,,,,,,,,,,,,,,,,,,,,,,,,,
,,,,,,,,,,,,,,,687,2022-02-05_14h20.49.721,multiplicationStroop,2021.2.3,Win32,59.75143403,,,,,left,1,0.6511,0,1,1,70,1,8,8,8 | 8,0,1.9756,1.4111,neutral,left,,,,,,stimulusFile/physical.xlsx,,,,,,,,,,,,,,,,,,,,,,,,,,,,,,,
,,,,,,,,,,,,,,,687,2022-02-05_14h20.49.721,multiplicationStroop,2021.2.3,Win32,59.75143403,,,,,left,1,0.4826,0,2,2,13,1,4,2,4 | 2,2,1.9756,1.4111,congruent,left,,,,,,stimulusFile/physical.xlsx,,,,,,,,,,,,,,,,,,,,,,,,,,,,,,,
,,,,,,,,,,,,,,,687,2022-02-05_14h20.49.721,multiplicationStroop,2021.2.3,Win32,59.75143403,,,,,left,1,0.4337,0,3,3,14,1,8,6,8 | 6,2,1.9756,1.4111,congruent,left,,,,,,stimulusFile/physical.xlsx,,,,,,,,,,,,,,,,,,,,,,,,,,,,,,,
,,,,,,,,,,,,,,,687,2022-02-05_14h20.49.721,multiplicationStroop,2021.2.3,Win32,59.75143403,,,,,right,1,0.4072,0,4,4,57,1,2,2,2 | 2,0,1.4111,1.9756,neutral,right,,,,,,stimulusFile/physical.xlsx,,,,,,,,,,,,,,,,,,,,,,,,,,,,,,,
,,,,,,,,,,,,,,,687,2022-02-05_14h20.49.721,multiplicationStroop,2021.2.3,Win32,59.75143403,,,,,left,1,0.4343,0,5,5,42,1,3,8,3 | 8,5,1.9756,1.4111,incongruent,left,,,,,,stimulusFile/physical.xlsx,,,,,,,,,,,,,,,,,,,,,,,,,,,,,,,
,,,,,,,,,,,,,,,687,2022-02-05_14h20.49.721,multiplicationStroop,2021.2.3,Win32,59.75143403,,,,,right,1,0.3995,0,6,6,30,1,7,6,7 | 6,1,1.4111,1.9756,incongruent,right,,,,,,stimulusFile/physical.xlsx,,,,,,,,,,,,,,,,,,,,,,,,,,,,,,,
,,,,,,,,,,,,,,,687,2022-02-05_14h20.49.721,multiplicationStroop,2021.2.3,Win32,59.75143403,,,,,left,1,0.4322,0,7,7,33,1,2,4,2 | 4,2,1.9756,1.4111,incongruent,left,,,,,,stimulusFile/physical.xlsx,,,,,,,,,,,,,,,,,,,,,,,,,,,,,,,
,,,,,,,,,,,,,,,687,2022-02-05_14h20.49.721,multiplicationStroop,2021.2.3,Win32,59.75143403,,,,,left,1,0.4249,0,8,8,23,1,9,4,9 | 4,5,1.9756,1.4111,congruent,left,,,,,,stimulusFile/physical.xlsx,,,,,,,,,,,,,,,,,,,,,,,,,,,,,,,
,,,,,,,,,,,,,,,687,2022-02-05_14h20.49.721,multiplicationStroop,2021.2.3,Win32,59.75143403,,,,,left,1,0.4641,0,9,9,68,1,6,6,6 | 6,0,1.9756,1.4111,neutral,left,,,,,,stimulusFile/physical.xlsx,,,,,,,,,,,,,,,,,,,,,,,,,,,,,,,
,,,,,,,,,,,,,,,687,2022-02-05_14h20.49.721,multiplicationStroop,2021.2.3,Win32,59.75143403,,,,,right,1,0.4708,0,10,10,0,1,1,2,1 | 2,1,1.4111,1.9756,congruent,right,,,,,,stimulusFile/physical.xlsx,,,,,,,,,,,,,,,,,,,,,,,,,,,,,,,
,,,,,,,,,,,,,,,687,2022-02-05_14h20.49.721,multiplicationStroop,2021.2.3,Win32,59.75143403,,,,,right,1,0.4479,0,11,11,63,1,9,9,9 | 9,0,1.4111,1.9756,neutral,right,,,,,,stimulusFile/physical.xlsx,,,,,,,,,,,,,,,,,,,,,,,,,,,,,,,
,,,,,,,,,,,,,,,687,2022-02-05_14h20.49.721,multiplicationStroop,2021.2.3,Win32,59.75143403,,,,,right,1,0.3944,0,12,12,18,1,3,8,3 | 8,5,1.4111,1.9756,congruent,right,,,,,,stimulusFile/physical.xlsx,,,,,,,,,,,,,,,,,,,,,,,,,,,,,,,
,,,,,,,,,,,,,,,687,2022-02-05_14h20.49.721,multiplicationStroop,2021.2.3,Win32,59.75143403,,,,,left,1,0.4401,0,13,13,26,1,6,7,6 | 7,1,1.9756,1.4111,incongruent,left,,,,,,stimulusFile/physical.xlsx,,,,,,,,,,,,,,,,,,,,,,,,,,,,,,,
,,,,,,,,,,,,,,,687,2022-02-05_14h20.49.721,multiplicationStroop,2021.2.3,Win32,59.75143403,,,,,right,1,0.3404,0,14,14,8,1,1,3,1 | 3,2,1.4111,1.9756,congruent,right,,,,,,stimulusFile/physical.xlsx,,,,,,,,,,,,,,,,,,,,,,,,,,,,,,,
,,,,,,,,,,,,,,,687,2022-02-05_14h20.49.721,multiplicationStroop,2021.2.3,Win32,59.75143403,,,,,right,1,0.3639,0,15,15,60,1,3,3,3 | 3,0,1.4111,1.9756,neutral,right,,,,,,stimulusFile/physical.xlsx,,,,,,,,,,,,,,,,,,,,,,,,,,,,,,,
,,,,,,,,,,,,,,,687,2022-02-05_14h20.49.721,multiplicationStroop,2021.2.3,Win32,59.75143403,,,,,right,1,0.358,0,16,16,3,1,8,9,8 | 9,1,1.4111,1.9756,congruent,right,,,,,,stimulusFile/physical.xlsx,,,,,,,,,,,,,,,,,,,,,,,,,,,,,,,
,,,,,,,,,,,,,,,687,2022-02-05_14h20.49.721,multiplicationStroop,2021.2.3,Win32,59.75143403,,,,,left,1,0.4361,0,17,17,50,1,6,6,6 | 6,0,1.9756,1.4111,neutral,left,,,,,,stimulusFile/physical.xlsx,,,,,,,,,,,,,,,,,,,,,,,,,,,,,,,
,,,,,,,,,,,,,,,687,2022-02-05_14h20.49.721,multiplicationStroop,2021.2.3,Win32,59.75143403,,,,,right,1,0.3807,0,18,18,39,1,9,7,9 | 7,2,1.4111,1.9756,incongruent,right,,,,,,stimulusFile/physical.xlsx,,,,,,,,,,,,,,,,,,,,,,,,,,,,,,,
,,,,,,,,,,,,,,,687,2022-02-05_14h20.49.721,multiplicationStroop,2021.2.3,Win32,59.75143403,,,,,left,1,0.5608,0,19,19,7,1,9,8,9 | 8,1,1.9756,1.4111,congruent,left,,,,,,stimulusFile/physical.xlsx,,,,,,,,,,,,,,,,,,,,,,,,,,,,,,,
,,,,,,,,,,,,,,,687,2022-02-05_14h20.49.721,multiplicationStroop,2021.2.3,Win32,59.75143403,,,,,right,1,0.4034,0,20,20,45,1,7,2,7 | 2,5,1.4111,1.9756,incongruent,right,,,,,,stimulusFile/physical.xlsx,,,,,,,,,,,,,,,,,,,,,,,,,,,,,,,
,,,,,,,,,,,,,,,687,2022-02-05_14h20.49.721,multiplicationStroop,2021.2.3,Win32,59.75143403,,,,,left,1,0.4261,0,21,21,20,1,6,1,6 | 1,5,1.9756,1.4111,congruent,left,,,,,,stimulusFile/physical.xlsx,,,,,,,,,,,,,,,,,,,,,,,,,,,,,,,
,,,,,,,,,,,,,,,687,2022-02-05_14h20.49.721,multiplicationStroop,2021.2.3,Win32,59.75143403,,,,,left,1,0.5192,0,22,22,25,1,3,4,3 | 4,1,1.9756,1.4111,incongruent,left,,,,,,stimulusFile/physical.xlsx,,,,,,,,,,,,,,,,,,,,,,,,,,,,,,,
,,,,,,,,,,,,,,,687,2022-02-05_14h20.49.721,multiplicationStroop,2021.2.3,Win32,59.75143403,,,,,right,1,0.3808,0,23,23,19,1,4,9,4 | 9,5,1.4111,1.9756,congruent,right,,,,,,stimulusFile/physical.xlsx,,,,,,,,,,,,,,,,,,,,,,,,,,,,,,,
,,,,,,,,,,,,,,,687,2022-02-05_14h20.49.721,multiplicationStroop,2021.2.3,Win32,59.75143403,,,,,left,1,0.5518,0,24,24,6,1,7,6,7 | 6,1,1.9756,1.4111,congruent,left,,,,,,stimulusFile/physical.xlsx,,,,,,,,,,,,,,,,,,,,,,,,,,,,,,,
,,,,,,,,,,,,,,,687,2022-02-05_14h20.49.721,multiplicationStroop,2021.2.3,Win32,59.75143403,,,,,left,1,0.4515,0,25,25,12,1,3,1,3 | 1,2,1.9756,1.4111,congruent,left,,,,,,stimulusFile/physical.xlsx,,,,,,,,,,,,,,,,,,,,,,,,,,,,,,,
,,,,,,,,,,,,,,,687,2022-02-05_14h20.49.721,multiplicationStroop,2021.2.3,Win32,59.75143403,,,,,left,1,0.4698,0,26,26,34,1,6,8,6 | 8,2,1.9756,1.4111,incongruent,left,,,,,,stimulusFile/physical.xlsx,,,,,,,,,,,,,,,,,,,,,,,,,,,,,,,
,,,,,,,,,,,,,,,687,2022-02-05_14h20.49.721,multiplicationStroop,2021.2.3,Win32,59.75143403,,,,,right,1,0.4501,0,27,27,29,1,4,3,4 | 3,1,1.4111,1.9756,incongruent,right,,,,,,stimulusFile/physical.xlsx,,,,,,,,,,,,,,,,,,,,,,,,,,,,,,,
,,,,,,,,,,,,,,,687,2022-02-05_14h20.49.721,multiplicationStroop,2021.2.3,Win32,59.75143403,,,,,right,1,0.4205,0,28,28,36,1,3,1,3 | 1,2,1.4111,1.9756,incongruent,right,,,,,,stimulusFile/physical.xlsx,,,,,,,,,,,,,,,,,,,,,,,,,,,,,,,
,,,,,,,,,,,,,,,687,2022-02-05_14h20.49.721,multiplicationStroop,2021.2.3,Win32,59.75143403,,,,,left,1,0.5642,0,29,29,15,1,9,7,9 | 7,2,1.9756,1.4111,congruent,left,,,,,,stimulusFile/physical.xlsx,,,,,,,,,,,,,,,,,,,,,,,,,,,,,,,
,,,,,,,,,,,,,,,687,2022-02-05_14h20.49.721,multiplicationStroop,2021.2.3,Win32,59.75143403,,,,,right,1,0.407,0,30,30,11,1,7,9,7 | 9,2,1.4111,1.9756,congruent,right,,,,,,stimulusFile/physical.xlsx,,,,,,,,,,,,,,,,,,,,,,,,,,,,,,,
,,,,,,,,,,,,,,,687,2022-02-05_14h20.49.721,multiplicationStroop,2021.2.3,Win32,59.75143403,,,,,left,0,0.4917,0,31,31,66,1,3,3,3 | 3,0,1.9756,1.4111,neutral,right,,,,,,stimulusFile/physical.xlsx,,,,,,,,,,,,,,,,,,,,,,,,,,,,,,,
,,,,,,,,,,,,,,,687,2022-02-05_14h20.49.721,multiplicationStroop,2021.2.3,Win32,59.75143403,,,,,left,1,0.4506,0,32,32,4,1,2,1,2 | 1,1,1.9756,1.4111,congruent,left,,,,,,stimulusFile/physical.xlsx,,,,,,,,,,,,,,,,,,,,,,,,,,,,,,,
,,,,,,,,,,,,,,,687,2022-02-05_14h20.49.721,multiplicationStroop,2021.2.3,Win32,59.75143403,,,,,left,1,0.4651,0,33,33,51,1,8,8,8 | 8,0,1.9756,1.4111,neutral,left,,,,,,stimulusFile/physical.xlsx,,,,,,,,,,,,,,,,,,,,,,,,,,,,,,,
,,,,,,,,,,,,,,,687,2022-02-05_14h20.49.721,multiplicationStroop,2021.2.3,Win32,59.75143403,,,,,right,1,0.4164,0,34,34,1,1,3,4,3 | 4,1,1.4111,1.9756,congruent,right,,,,,,stimulusFile/physical.xlsx,,,,,,,,,,,,,,,,,,,,,,,,,,,,,,,
,,,,,,,,,,,,,,,687,2022-02-05_14h20.49.721,multiplicationStroop,2021.2.3,Win32,59.75143403,,,,,left,1,0.4006,0,35,35,35,1,7,9,7 | 9,2,1.9756,1.4111,incongruent,left,,,,,,stimulusFile/physical.xlsx,,,,,,,,,,,,,,,,,,,,,,,,,,,,,,,
,,,,,,,,,,,,,,,687,2022-02-05_14h20.49.721,multiplicationStroop,2021.2.3,Win32,59.75143403,,,,,left,1,0.6471,0,36,36,48,1,1,1,1 | 1,0,1.9756,1.4111,neutral,left,,,,,,stimulusFile/physical.xlsx,,,,,,,,,,,,,,,,,,,,,,,,,,,,,,,
,,,,,,,,,,,,,,,687,2022-02-05_14h20.49.721,multiplicationStroop,2021.2.3,Win32,59.75143403,,,,,right,1,0.3736,0,37,37,2,1,6,7,6 | 7,1,1.4111,1.9756,congruent,right,,,,,,stimulusFile/physical.xlsx,,,,,,,,,,,,,,,,,,,,,,,,,,,,,,,
,,,,,,,,,,,,,,,687,2022-02-05_14h20.49.721,multiplicationStroop,2021.2.3,Win32,59.75143403,,,,,left,1,0.5691,0,38,38,40,1,1,6,1 | 6,5,1.9756,1.4111,incongruent,left,,,,,,stimulusFile/physical.xlsx,,,,,,,,,,,,,,,,,,,,,,,,,,,,,,,
,,,,,,,,,,,,,,,687,2022-02-05_14h20.49.721,multiplicationStroop,2021.2.3,Win32,59.75143403,,,,,left,1,0.4324,0,39,39,53,1,4,4,4 | 4,0,1.9756,1.4111,neutral,left,,,,,,stimulusFile/physical.xlsx,,,,,,,,,,,,,,,,,,,,,,,,,,,,,,,
,,,,,,,,,,,,,,,687,2022-02-05_14h20.49.721,multiplicationStroop,2021.2.3,Win32,59.75143403,,,,,left,1,0.5028,0,40,40,41,1,2,7,2 | 7,5,1.9756,1.4111,incongruent,left,,,,,,stimulusFile/physical.xlsx,,,,,,,,,,,,,,,,,,,,,,,,,,,,,,,
,,,,,,,,,,,,,,,687,2022-02-05_14h20.49.721,multiplicationStroop,2021.2.3,Win32,59.75143403,,,,,right,1,0.4348,0,41,41,62,1,8,8,8 | 8,0,1.4111,1.9756,neutral,right,,,,,,stimulusFile/physical.xlsx,,,,,,,,,,,,,,,,,,,,,,,,,,,,,,,
,,,,,,,,,,,,,,,687,2022-02-05_14h20.49.721,multiplicationStroop,2021.2.3,Win32,59.75143403,,,,,left,1,0.4444,0,42,42,21,1,7,2,7 | 2,5,1.9756,1.4111,congruent,left,,,,,,stimulusFile/physical.xlsx,,,,,,,,,,,,,,,,,,,,,,,,,,,,,,,
,,,,,,,,,,,,,,,687,2022-02-05_14h20.49.721,multiplicationStroop,2021.2.3,Win32,59.75143403,,,,,right,1,0.4301,0,43,43,46,1,8,3,8 | 3,5,1.4111,1.9756,incongruent,right,,,,,,stimulusFile/physical.xlsx,,,,,,,,,,,,,,,,,,,,,,,,,,,,,,,
,,,,,,,,,,,,,,,687,2022-02-05_14h20.49.721,multiplicationStroop,2021.2.3,Win32,59.75143403,,,,,left,1,0.441,0,44,44,32,1,1,3,1 | 3,2,1.9756,1.4111,incongruent,left,,,,,,stimulusFile/physical.xlsx,,,,,,,,,,,,,,,,,,,,,,,,,,,,,,,
,,,,,,,,,,,,,,,687,2022-02-05_14h20.49.721,multiplicationStroop,2021.2.3,Win32,59.75143403,,,,,right,1,0.3969,0,45,45,47,1,9,4,9 | 4,5,1.4111,1.9756,incongruent,right,,,,,,stimulusFile/physical.xlsx,,,,,,,,,,,,,,,,,,,,,,,,,,,,,,,
,,,,,,,,,,,,,,,687,2022-02-05_14h20.49.721,multiplicationStroop,2021.2.3,Win32,59.75143403,,,,,right,1,0.4188,0,46,46,59,1,7,7,7 | 7,0,1.4111,1.9756,neutral,right,,,,,,stimulusFile/physical.xlsx,,,,,,,,,,,,,,,,,,,,,,,,,,,,,,,
,,,,,,,,,,,,,,,687,2022-02-05_14h20.49.721,multiplicationStroop,2021.2.3,Win32,59.75143403,,,,,right,1,0.3942,0,47,47,56,1,1,1,1 | 1,0,1.4111,1.9756,neutral,right,,,,,,stimulusFile/physical.xlsx,,,,,,,,,,,,,,,,,,,,,,,,,,,,,,,
,,,,,,,,,,,,,,,687,2022-02-05_14h20.49.721,multiplicationStroop,2021.2.3,Win32,59.75143403,,,,,left,1,0.501,0,48,48,55,1,9,9,9 | 9,0,1.9756,1.4111,neutral,left,,,,,,stimulusFile/physical.xlsx,,,,,,,,,,,,,,,,,,,,,,,,,,,,,,,
,,,,,,,,,,,,,,,687,2022-02-05_14h20.49.721,multiplicationStroop,2021.2.3,Win32,59.75143403,,,,,left,0,0.3296,0,49,49,58,1,6,6,6 | 6,0,1.4111,1.9756,neutral,right,,,,,,stimulusFile/physical.xlsx,,,,,,,,,,,,,,,,,,,,,,,,,,,,,,,
,,,,,,,,,,,,,,,687,2022-02-05_14h20.49.721,multiplicationStroop,2021.2.3,Win32,59.75143403,,,,,right,1,0.5377,0,50,50,38,1,8,6,8 | 6,2,1.4111,1.9756,incongruent,right,,,,,,stimulusFile/physical.xlsx,,,,,,,,,,,,,,,,,,,,,,,,,,,,,,,
,,,,,,,,,,,,,,,687,2022-02-05_14h20.49.721,multiplicationStroop,2021.2.3,Win32,59.75143403,,,,,left,0,0.5167,0,51,51,10,1,6,8,6 | 8,2,1.4111,1.9756,congruent,right,,,,,,stimulusFile/physical.xlsx,,,,,,,,,,,,,,,,,,,,,,,,,,,,,,,
,,,,,,,,,,,,,,,687,2022-02-05_14h20.49.721,multiplicationStroop,2021.2.3,Win32,59.75143403,,,,,right,1,0.7274,0,52,52,65,1,2,2,2 | 2,0,1.4111,1.9756,neutral,right,,,,,,stimulusFile/physical.xlsx,,,,,,,,,,,,,,,,,,,,,,,,,,,,,,,
,,,,,,,,,,,,,,,687,2022-02-05_14h20.49.721,multiplicationStroop,2021.2.3,Win32,59.75143403,,,,,right,1,0.3839,0,53,53,17,1,2,7,2 | 7,5,1.4111,1.9756,congruent,right,,,,,,stimulusFile/physical.xlsx,,,,,,,,,,,,,,,,,,,,,,,,,,,,,,,
,,,,,,,,,,,,,,,687,2022-02-05_14h20.49.721,multiplicationStroop,2021.2.3,Win32,59.75143403,,,,,left,1,0.4168,0,54,54,5,1,4,3,4 | 3,1,1.9756,1.4111,congruent,left,,,,,,stimulusFile/physical.xlsx,,,,,,,,,,,,,,,,,,,,,,,,,,,,,,,
,,,,,,,,,,,,,,,687,2022-02-05_14h20.49.721,multiplicationStroop,2021.2.3,Win32,59.75143403,,,,,right,1,0.3328,0,55,55,16,1,1,6,1 | 6,5,1.4111,1.9756,congruent,right,,,,,,stimulusFile/physical.xlsx,,,,,,,,,,,,,,,,,,,,,,,,,,,,,,,
,,,,,,,,,,,,,,,687,2022-02-05_14h20.49.721,multiplicationStroop,2021.2.3,Win32,59.75143403,,,,,left,1,0.4162,0,56,56,52,1,2,2,2 | 2,0,1.9756,1.4111,neutral,left,,,,,,stimulusFile/physical.xlsx,,,,,,,,,,,,,,,,,,,,,,,,,,,,,,,
,,,,,,,,,,,,,,,687,2022-02-05_14h20.49.721,multiplicationStroop,2021.2.3,Win32,59.75143403,,,,,left,1,0.4824,0,57,57,54,1,7,7,7 | 7,0,1.9756,1.4111,neutral,left,,,,,,stimulusFile/physical.xlsx,,,,,,,,,,,,,,,,,,,,,,,,,,,,,,,
,,,,,,,,,,,,,,,687,2022-02-05_14h20.49.721,multiplicationStroop,2021.2.3,Win32,59.75143403,,,,,right,0,0.3295,0,58,58,24,1,1,2,1 | 2,1,1.9756,1.4111,incongruent,left,,,,,,stimulusFile/physical.xlsx,,,,,,,,,,,,,,,,,,,,,,,,,,,,,,,
,,,,,,,,,,,,,,,687,2022-02-05_14h20.49.721,multiplicationStroop,2021.2.3,Win32,59.75143403,,,,,right,0,0.4002,0,59,59,69,1,7,7,7 | 7,0,1.4111,1.9756,neutral,left,,,,,,stimulusFile/physical.xlsx,,,,,,,,,,,,,,,,,,,,,,,,,,,,,,,
,,,,,,,,,,,,,,,687,2022-02-05_14h20.49.721,multiplicationStroop,2021.2.3,Win32,59.75143403,,,,,right,0,0.3762,0,60,60,71,1,9,9,9 | 9,0,1.4111,1.9756,neutral,left,,,,,,stimulusFile/physical.xlsx,,,,,,,,,,,,,,,,,,,,,,,,,,,,,,,
,,,,,,,,,,,,,,,687,2022-02-05_14h20.49.721,multiplicationStroop,2021.2.3,Win32,59.75143403,,,,,right,1,0.3764,0,61,61,67,1,4,4,4 | 4,0,1.4111,1.9756,neutral,right,,,,,,stimulusFile/physical.xlsx,,,,,,,,,,,,,,,,,,,,,,,,,,,,,,,
,,,,,,,,,,,,,,,687,2022-02-05_14h20.49.721,multiplicationStroop,2021.2.3,Win32,59.75143403,,,,,left,1,0.4246,0,62,62,49,1,3,3,3 | 3,0,1.9756,1.4111,neutral,left,,,,,,stimulusFile/physical.xlsx,,,,,,,,,,,,,,,,,,,,,,,,,,,,,,,
,,,,,,,,,,,,,,,687,2022-02-05_14h20.49.721,multiplicationStroop,2021.2.3,Win32,59.75143403,,,,,left,0,0.425,0,63,63,64,1,1,1,1 | 1,0,1.9756,1.4111,neutral,right,,,,,,stimulusFile/physical.xlsx,,,,,,,,,,,,,,,,,,,,,,,,,,,,,,,
,,,,,,,,,,,,,,,687,2022-02-05_14h20.49.721,multiplicationStroop,2021.2.3,Win32,59.75143403,,,,,right,1,0.389,0,64,64,28,1,2,1,2 | 1,1,1.4111,1.9756,incongruent,right,,,,,,stimulusFile/physical.xlsx,,,,,,,,,,,,,,,,,,,,,,,,,,,,,,,
,,,,,,,,,,,,,,,687,2022-02-05_14h20.49.721,multiplicationStroop,2021.2.3,Win32,59.75143403,,,,,right,1,0.4163,0,65,65,61,1,4,4,4 | 4,0,1.4111,1.9756,neutral,right,,,,,,stimulusFile/physical.xlsx,,,,,,,,,,,,,,,,,,,,,,,,,,,,,,,
,,,,,,,,,,,,,,,687,2022-02-05_14h20.49.721,multiplicationStroop,2021.2.3,Win32,59.75143403,,,,,right,1,0.3483,0,66,66,37,1,4,2,4 | 2,2,1.4111,1.9756,incongruent,right,,,,,,stimulusFile/physical.xlsx,,,,,,,,,,,,,,,,,,,,,,,,,,,,,,,
,,,,,,,,,,,,,,,687,2022-02-05_14h20.49.721,multiplicationStroop,2021.2.3,Win32,59.75143403,,,,,left,1,0.7167,0,67,67,22,1,8,3,8 | 3,5,1.9756,1.4111,congruent,left,,,,,,stimulusFile/physical.xlsx,,,,,,,,,,,,,,,,,,,,,,,,,,,,,,,
,,,,,,,,,,,,,,,687,2022-02-05_14h20.49.721,multiplicationStroop,2021.2.3,Win32,59.75143403,,,,,right,1,0.4045,0,68,68,31,1,9,8,9 | 8,1,1.4111,1.9756,incongruent,right,,,,,,stimulusFile/physical.xlsx,,,,,,,,,,,,,,,,,,,,,,,,,,,,,,,
,,,,,,,,,,,,,,,687,2022-02-05_14h20.49.721,multiplicationStroop,2021.2.3,Win32,59.75143403,,,,,right,1,0.4689,0,69,69,9,1,2,4,2 | 4,2,1.4111,1.9756,congruent,right,,,,,,stimulusFile/physical.xlsx,,,,,,,,,,,,,,,,,,,,,,,,,,,,,,,
,,,,,,,,,,,,,,,687,2022-02-05_14h20.49.721,multiplicationStroop,2021.2.3,Win32,59.75143403,,,,,right,1,0.6169,0,70,70,44,1,6,1,6 | 1,5,1.4111,1.9756,incongruent,right,,,,,,stimulusFile/physical.xlsx,,,,,,,,,,,,,,,,,,,,,,,,,,,,,,,
,,,,,,,,,,,,,,,687,2022-02-05_14h20.49.721,multiplicationStroop,2021.2.3,Win32,59.75143403,,,,,left,1,0.6304,0,71,71,43,1,4,9,4 | 9,5,1.9756,1.4111,incongruent,left,,,,,,stimulusFile/physical.xlsx,,,,,,,,,,,,,,,,,,,,,,,,,,,,,,,
,,,,,,,,,,,,,,,687,2022-02-05_14h20.49.721,multiplicationStroop,2021.2.3,Win32,59.75143403,,,,,,,,,,,,,,,,,,,,,0,0,0,1,1,stimulusFile/physical.xlsx,PHYSICALLY larger (larger font size).,images/physicallyLarger.png,,,,,,,,,,,,,,,,,,,,,,,,,,,,,
,,,,,,,,,,,,,,,687,2022-02-05_14h20.49.721,multiplicationStroop,2021.2.3,Win32,59.75143403,space,4.3231,space,8.1595,right,1,0.5333,0,0,0,27,1,8,9,8 | 9,1,1.9756,1.4111,incongruent,right,,,,,,stimulusFile/magnitude.xlsx,,,,,,,,,,,,,,,,,,,,,,,,,,,,,,,
,,,,,,,,,,,,,,,687,2022-02-05_14h20.49.721,multiplicationStroop,2021.2.3,Win32,59.75143403,,,,,right,1,0.501,0,1,1,11,1,7,9,7 | 9,2,1.4111,1.9756,congruent,right,,,,,,stimulusFile/magnitude.xlsx,,,,,,,,,,,,,,,,,,,,,,,,,,,,,,,
,,,,,,,,,,,,,,,687,2022-02-05_14h20.49.721,multiplicationStroop,2021.2.3,Win32,59.75143403,,,,,right,1,0.4438,0,2,2,59,1,7,9,7 | 9,2,1.6933,1.6933,neutral,right,,,,,,stimulusFile/magnitude.xlsx,,,,,,,,,,,,,,,,,,,,,,,,,,,,,,,
,,,,,,,,,,,,,,,687,2022-02-05_14h20.49.721,multiplicationStroop,2021.2.3,Win32,59.75143403,,,,,right,1,0.4217,0,3,3,3,1,8,9,8 | 9,1,1.4111,1.9756,congruent,right,,,,,,stimulusFile/magnitude.xlsx,,,,,,,,,,,,,,,,,,,,,,,,,,,,,,,
,,,,,,,,,,,,,,,687,2022-02-05_14h20.49.721,multiplicationStroop,2021.2.3,Win32,59.75143403,,,,,left,1,0.4867,0,4,4,4,1,2,1,2 | 1,1,1.9756,1.4111,congruent,left,,,,,,stimulusFile/magnitude.xlsx,,,,,,,,,,,,,,,,,,,,,,,,,,,,,,,
,,,,,,,,,,,,,,,687,2022-02-05_14h20.49.721,multiplicationStroop,2021.2.3,Win32,59.75143403,,,,,right,1,0.5222,0,5,5,41,1,2,7,2 | 7,5,1.9756,1.4111,incongruent,right,,,,,,stimulusFile/magnitude.xlsx,,,,,,,,,,,,,,,,,,,,,,,,,,,,,,,
,,,,,,,,,,,,,,,687,2022-02-05_14h20.49.721,multiplicationStroop,2021.2.3,Win32,59.75143403,,,,,left,1,0.7936,0,6,6,55,1,9,8,9 | 8,1,1.6933,1.6933,neutral,left,,,,,,stimulusFile/magnitude.xlsx,,,,,,,,,,,,,,,,,,,,,,,,,,,,,,,
,,,,,,,,,,,,,,,687,2022-02-05_14h20.49.721,multiplicationStroop,2021.2.3,Win32,59.75143403,,,,,left,1,0.548,0,7,7,68,1,6,1,6 | 1,5,1.6933,1.6933,neutral,left,,,,,,stimulusFile/magnitude.xlsx,,,,,,,,,,,,,,,,,,,,,,,,,,,,,,,
,,,,,,,,,,,,,,,687,2022-02-05_14h20.49.721,multiplicationStroop,2021.2.3,Win32,59.75143403,,,,,left,1,0.4415,0,8,8,5,1,4,3,4 | 3,1,1.9756,1.4111,congruent,left,,,,,,stimulusFile/magnitude.xlsx,,,,,,,,,,,,,,,,,,,,,,,,,,,,,,,
,,,,,,,,,,,,,,,687,2022-02-05_14h20.49.721,multiplicationStroop,2021.2.3,Win32,59.75143403,,,,,right,1,0.5084,0,9,9,19,1,4,9,4 | 9,5,1.4111,1.9756,congruent,right,,,,,,stimulusFile/magnitude.xlsx,,,,,,,,,,,,,,,,,,,,,,,,,,,,,,,
,,,,,,,,,,,,,,,687,2022-02-05_14h20.49.721,multiplicationStroop,2021.2.3,Win32,59.75143403,,,,,left,1,0.6104,0,10,10,30,1,7,6,7 | 6,1,1.4111,1.9756,incongruent,left,,,,,,stimulusFile/magnitude.xlsx,,,,,,,,,,,,,,,,,,,,,,,,,,,,,,,
,,,,,,,,,,,,,,,687,2022-02-05_14h20.49.721,multiplicationStroop,2021.2.3,Win32,59.75143403,,,,,left,1,0.6938,0,11,11,62,1,8,6,8 | 6,2,1.6933,1.6933,neutral,left,,,,,,stimulusFile/magnitude.xlsx,,,,,,,,,,,,,,,,,,,,,,,,,,,,,,,
,,,,,,,,,,,,,,,687,2022-02-05_14h20.49.721,multiplicationStroop,2021.2.3,Win32,59.75143403,,,,,left,1,0.5231,0,12,12,63,1,9,7,9 | 7,2,1.6933,1.6933,neutral,left,,,,,,stimulusFile/magnitude.xlsx,,,,,,,,,,,,,,,,,,,,,,,,,,,,,,,
,,,,,,,,,,,,,,,687,2022-02-05_14h20.49.721,multiplicationStroop,2021.2.3,Win32,59.75143403,,,,,left,1,0.6767,0,13,13,14,1,8,6,8 | 6,2,1.9756,1.4111,congruent,left,,,,,,stimulusFile/magnitude.xlsx,,,,,,,,,,,,,,,,,,,,,,,,,,,,,,,
,,,,,,,,,,,,,,,687,2022-02-05_14h20.49.721,multiplicationStroop,2021.2.3,Win32,59.75143403,,,,,right,1,0.4263,0,14,14,2,1,6,7,6 | 7,1,1.4111,1.9756,congruent,right,,,,,,stimulusFile/magnitude.xlsx,,,,,,,,,,,,,,,,,,,,,,,,,,,,,,,
,,,,,,,,,,,,,,,687,2022-02-05_14h20.49.721,multiplicationStroop,2021.2.3,Win32,59.75143403,,,,,left,1,0.4265,0,15,15,20,1,6,1,6 | 1,5,1.9756,1.4111,congruent,left,,,,,,stimulusFile/magnitude.xlsx,,,,,,,,,,,,,,,,,,,,,,,,,,,,,,,
,,,,,,,,,,,,,,,687,2022-02-05_14h20.49.721,multiplicationStroop,2021.2.3,Win32,59.75143403,,,,,left,1,0.5646,0,16,16,28,1,2,1,2 | 1,1,1.4111,1.9756,incongruent,left,,,,,,stimulusFile/magnitude.xlsx,,,,,,,,,,,,,,,,,,,,,,,,,,,,,,,
,,,,,,,,,,,,,,,687,2022-02-05_14h20.49.721,multiplicationStroop,2021.2.3,Win32,59.75143403,,,,,right,1,0.4326,0,17,17,32,1,1,3,1 | 3,2,1.9756,1.4111,incongruent,right,,,,,,stimulusFile/magnitude.xlsx,,,,,,,,,,,,,,,,,,,,,,,,,,,,,,,
,,,,,,,,,,,,,,,687,2022-02-05_14h20.49.721,multiplicationStroop,2021.2.3,Win32,59.75143403,,,,,left,1,0.3571,0,18,18,44,1,6,1,6 | 1,5,1.4111,1.9756,incongruent,left,,,,,,stimulusFile/magnitude.xlsx,,,,,,,,,,,,,,,,,,,,,,,,,,,,,,,
,,,,,,,,,,,,,,,687,2022-02-05_14h20.49.721,multiplicationStroop,2021.2.3,Win32,59.75143403,,,,,left,1,0.582,0,19,19,38,1,8,6,8 | 6,2,1.4111,1.9756,incongruent,left,,,,,,stimulusFile/magnitude.xlsx,,,,,,,,,,,,,,,,,,,,,,,,,,,,,,,
,,,,,,,,,,,,,,,687,2022-02-05_14h20.49.721,multiplicationStroop,2021.2.3,Win32,59.75143403,,,,,right,1,0.4823,0,20,20,42,1,3,8,3 | 8,5,1.9756,1.4111,incongruent,right,,,,,,stimulusFile/magnitude.xlsx,,,,,,,,,,,,,,,,,,,,,,,,,,,,,,,
,,,,,,,,,,,,,,,687,2022-02-05_14h20.49.721,multiplicationStroop,2021.2.3,Win32,59.75143403,,,,,right,1,0.6859,0,21,21,43,1,4,9,4 | 9,5,1.9756,1.4111,incongruent,right,,,,,,stimulusFile/magnitude.xlsx,,,,,,,,,,,,,,,,,,,,,,,,,,,,,,,
,,,,,,,,,,,,,,,687,2022-02-05_14h20.49.721,multiplicationStroop,2021.2.3,Win32,59.75143403,,,,,right,1,0.5213,0,22,22,10,1,6,8,6 | 8,2,1.4111,1.9756,congruent,right,,,,,,stimulusFile/magnitude.xlsx,,,,,,,,,,,,,,,,,,,,,,,,,,,,,,,
,,,,,,,,,,,,,,,687,2022-02-05_14h20.49.721,multiplicationStroop,2021.2.3,Win32,59.75143403,,,,,right,1,0.6663,0,23,23,0,1,1,2,1 | 2,1,1.4111,1.9756,congruent,right,,,,,,stimulusFile/magnitude.xlsx,,,,,,,,,,,,,,,,,,,,,,,,,,,,,,,
,,,,,,,,,,,,,,,687,2022-02-05_14h20.49.721,multiplicationStroop,2021.2.3,Win32,59.75143403,,,,,right,1,0.5395,0,24,24,49,1,3,4,3 | 4,1,1.6933,1.6933,neutral,right,,,,,,stimulusFile/magnitude.xlsx,,,,,,,,,,,,,,,,,,,,,,,,,,,,,,,
,,,,,,,,,,,,,,,687,2022-02-05_14h20.49.721,multiplicationStroop,2021.2.3,Win32,59.75143403,,,,,left,1,0.5199,0,25,25,61,1,4,2,4 | 2,2,1.6933,1.6933,neutral,left,,,,,,stimulusFile/magnitude.xlsx,,,,,,,,,,,,,,,,,,,,,,,,,,,,,,,
,,,,,,,,,,,,,,,687,2022-02-05_14h20.49.721,multiplicationStroop,2021.2.3,Win32,59.75143403,,,,,left,1,0.4327,0,26,26,60,1,3,1,3 | 1,2,1.6933,1.6933,neutral,left,,,,,,stimulusFile/magnitude.xlsx,,,,,,,,,,,,,,,,,,,,,,,,,,,,,,,
,,,,,,,,,,,,,,,687,2022-02-05_14h20.49.721,multiplicationStroop,2021.2.3,Win32,59.75143403,,,,,right,1,0.5661,0,27,27,50,1,6,7,6 | 7,1,1.6933,1.6933,neutral,right,,,,,,stimulusFile/magnitude.xlsx,,,,,,,,,,,,,,,,,,,,,,,,,,,,,,,
,,,,,,,,,,,,,,,687,2022-02-05_14h20.49.721,multiplicationStroop,2021.2.3,Win32,59.75143403,,,,,left,1,0.483,0,28,28,46,1,8,3,8 | 3,5,1.4111,1.9756,incongruent,left,,,,,,stimulusFile/magnitude.xlsx,,,,,,,,,,,,,,,,,,,,,,,,,,,,,,,
,,,,,,,,,,,,,,,687,2022-02-05_14h20.49.721,multiplicationStroop,2021.2.3,Win32,59.75143403,,,,,right,1,0.5868,0,29,29,56,1,1,3,1 | 3,2,1.6933,1.6933,neutral,right,,,,,,stimulusFile/magnitude.xlsx,,,,,,,,,,,,,,,,,,,,,,,,,,,,,,,
,,,,,,,,,,,,,,,687,2022-02-05_14h20.49.721,multiplicationStroop,2021.2.3,Win32,59.75143403,,,,,left,1,0.3941,0,30,30,12,1,3,1,3 | 1,2,1.9756,1.4111,congruent,left,,,,,,stimulusFile/magnitude.xlsx,,,,,,,,,,,,,,,,,,,,,,,,,,,,,,,
,,,,,,,,,,,,,,,687,2022-02-05_14h20.49.721,multiplicationStroop,2021.2.3,Win32,59.75143403,,,,,right,1,0.7553,0,31,31,64,1,1,6,1 | 6,5,1.6933,1.6933,neutral,right,,,,,,stimulusFile/magnitude.xlsx,,,,,,,,,,,,,,,,,,,,,,,,,,,,,,,
,,,,,,,,,,,,,,,687,2022-02-05_14h20.49.721,multiplicationStroop,2021.2.3,Win32,59.75143403,,,,,left,1,0.4511,0,32,32,7,1,9,8,9 | 8,1,1.9756,1.4111,congruent,left,,,,,,stimulusFile/magnitude.xlsx,,,,,,,,,,,,,,,,,,,,,,,,,,,,,,,
,,,,,,,,,,,,,,,687,2022-02-05_14h20.49.721,multiplicationStroop,2021.2.3,Win32,59.75143403,,,,,right,1,0.4663,0,33,33,57,1,2,4,2 | 4,2,1.6933,1.6933,neutral,right,,,,,,stimulusFile/magnitude.xlsx,,,,,,,,,,,,,,,,,,,,,,,,,,,,,,,
,,,,,,,,,,,,,,,687,2022-02-05_14h20.49.721,multiplicationStroop,2021.2.3,Win32,59.75143403,,,,,right,1,0.4935,0,34,34,66,1,3,8,3 | 8,5,1.6933,1.6933,neutral,right,,,,,,stimulusFile/magnitude.xlsx,,,,,,,,,,,,,,,,,,,,,,,,,,,,,,,
,,,,,,,,,,,,,,,687,2022-02-05_14h20.49.721,multiplicationStroop,2021.2.3,Win32,59.75143403,,,,,right,1,0.4447,0,35,35,65,1,2,7,2 | 7,5,1.6933,1.6933,neutral,right,,,,,,stimulusFile/magnitude.xlsx,,,,,,,,,,,,,,,,,,,,,,,,,,,,,,,
,,,,,,,,,,,,,,,687,2022-02-05_14h20.49.721,multiplicationStroop,2021.2.3,Win32,59.75143403,,,,,left,1,0.3845,0,36,36,13,1,4,2,4 | 2,2,1.9756,1.4111,congruent,left,,,,,,stimulusFile/magnitude.xlsx,,,,,,,,,,,,,,,,,,,,,,,,,,,,,,,
,,,,,,,,,,,,,,,687,2022-02-05_14h20.49.721,multiplicationStroop,2021.2.3,Win32,59.75143403,,,,,left,1,0.3584,0,37,37,52,1,2,1,2 | 1,1,1.6933,1.6933,neutral,left,,,,,,stimulusFile/magnitude.xlsx,,,,,,,,,,,,,,,,,,,,,,,,,,,,,,,
,,,,,,,,,,,,,,,687,2022-02-05_14h20.49.721,multiplicationStroop,2021.2.3,Win32,59.75143403,,,,,left,1,0.427,0,38,38,37,1,4,2,4 | 2,2,1.4111,1.9756,incongruent,left,,,,,,stimulusFile/magnitude.xlsx,,,,,,,,,,,,,,,,,,,,,,,,,,,,,,,
,,,,,,,,,,,,,,,687,2022-02-05_14h20.49.721,multiplicationStroop,2021.2.3,Win32,59.75143403,,,,,left,1,0.7679,0,39,39,54,1,7,6,7 | 6,1,1.6933,1.6933,neutral,left,,,,,,stimulusFile/magnitude.xlsx,,,,,,,,,,,,,,,,,,,,,,,,,,,,,,,
,,,,,,,,,,,,,,,687,2022-02-05_14h20.49.721,multiplicationStroop,2021.2.3,Win32,59.75143403,,,,,left,1,0.5638,0,40,40,53,1,4,3,4 | 3,1,1.6933,1.6933,neutral,left,,,,,,stimulusFile/magnitude.xlsx,,,,,,,,,,,,,,,,,,,,,,,,,,,,,,,
,,,,,,,,,,,,,,,687,2022-02-05_14h20.49.721,multiplicationStroop,2021.2.3,Win32,59.75143403,,,,,right,1,0.5504,0,41,41,58,1,6,8,6 | 8,2,1.6933,1.6933,neutral,right,,,,,,stimulusFile/magnitude.xlsx,,,,,,,,,,,,,,,,,,,,,,,,,,,,,,,
,,,,,,,,,,,,,,,687,2022-02-05_14h20.49.721,multiplicationStroop,2021.2.3,Win32,59.75143403,,,,,left,1,0.4539,0,42,42,6,1,7,6,7 | 6,1,1.9756,1.4111,congruent,left,,,,,,stimulusFile/magnitude.xlsx,,,,,,,,,,,,,,,,,,,,,,,,,,,,,,,
,,,,,,,,,,,,,,,687,2022-02-05_14h20.49.721,multiplicationStroop,2021.2.3,Win32,59.75143403,,,,,right,1,0.5469,0,43,43,34,1,6,8,6 | 8,2,1.9756,1.4111,incongruent,right,,,,,,stimulusFile/magnitude.xlsx,,,,,,,,,,,,,,,,,,,,,,,,,,,,,,,
,,,,,,,,,,,,,,,687,2022-02-05_14h20.49.721,multiplicationStroop,2021.2.3,Win32,59.75143403,,,,,right,1,0.711,0,44,44,51,1,8,9,8 | 9,1,1.6933,1.6933,neutral,right,,,,,,stimulusFile/magnitude.xlsx,,,,,,,,,,,,,,,,,,,,,,,,,,,,,,,
,,,,,,,,,,,,,,,687,2022-02-05_14h20.49.721,multiplicationStroop,2021.2.3,Win32,59.75143403,,,,,left,1,0.487,0,45,45,22,1,8,3,8 | 3,5,1.9756,1.4111,congruent,left,,,,,,stimulusFile/magnitude.xlsx,,,,,,,,,,,,,,,,,,,,,,,,,,,,,,,
,,,,,,,,,,,,,,,687,2022-02-05_14h20.49.721,multiplicationStroop,2021.2.3,Win32,59.75143403,,,,,right,1,0.454,0,46,46,48,1,1,2,1 | 2,1,1.6933,1.6933,neutral,right,,,,,,stimulusFile/magnitude.xlsx,,,,,,,,,,,,,,,,,,,,,,,,,,,,,,,
,,,,,,,,,,,,,,,687,2022-02-05_14h20.49.721,multiplicationStroop,2021.2.3,Win32,59.75143403,,,,,right,1,0.3635,0,47,47,24,1,1,2,1 | 2,1,1.9756,1.4111,incongruent,right,,,,,,stimulusFile/magnitude.xlsx,,,,,,,,,,,,,,,,,,,,,,,,,,,,,,,
,,,,,,,,,,,,,,,687,2022-02-05_14h20.49.721,multiplicationStroop,2021.2.3,Win32,59.75143403,,,,,right,1,0.4186,0,48,48,67,1,4,9,4 | 9,5,1.6933,1.6933,neutral,right,,,,,,stimulusFile/magnitude.xlsx,,,,,,,,,,,,,,,,,,,,,,,,,,,,,,,
,,,,,,,,,,,,,,,687,2022-02-05_14h20.49.721,multiplicationStroop,2021.2.3,Win32,59.75143403,,,,,left,1,0.5648,0,49,49,71,1,9,4,9 | 4,5,1.6933,1.6933,neutral,left,,,,,,stimulusFile/magnitude.xlsx,,,,,,,,,,,,,,,,,,,,,,,,,,,,,,,
,,,,,,,,,,,,,,,687,2022-02-05_14h20.49.721,multiplicationStroop,2021.2.3,Win32,59.75143403,,,,,right,1,0.3996,0,50,50,16,1,1,6,1 | 6,5,1.4111,1.9756,congruent,right,,,,,,stimulusFile/magnitude.xlsx,,,,,,,,,,,,,,,,,,,,,,,,,,,,,,,
,,,,,,,,,,,,,,,687,2022-02-05_14h20.49.721,multiplicationStroop,2021.2.3,Win32,59.75143403,,,,,left,1,0.489,0,51,51,21,1,7,2,7 | 2,5,1.9756,1.4111,congruent,left,,,,,,stimulusFile/magnitude.xlsx,,,,,,,,,,,,,,,,,,,,,,,,,,,,,,,
,,,,,,,,,,,,,,,687,2022-02-05_14h20.49.721,multiplicationStroop,2021.2.3,Win32,59.75143403,,,,,right,0,0.4186,0,52,52,31,1,9,8,9 | 8,1,1.4111,1.9756,incongruent,left,,,,,,stimulusFile/magnitude.xlsx,,,,,,,,,,,,,,,,,,,,,,,,,,,,,,,
,,,,,,,,,,,,,,,687,2022-02-05_14h20.49.721,multiplicationStroop,2021.2.3,Win32,59.75143403,,,,,left,1,0.6252,0,53,53,45,1,7,2,7 | 2,5,1.4111,1.9756,incongruent,left,,,,,,stimulusFile/magnitude.xlsx,,,,,,,,,,,,,,,,,,,,,,,,,,,,,,,
,,,,,,,,,,,,,,,687,2022-02-05_14h20.49.721,multiplicationStroop,2021.2.3,Win32,59.75143403,,,,,right,1,0.5911,0,54,54,26,1,6,7,6 | 7,1,1.9756,1.4111,incongruent,right,,,,,,stimulusFile/magnitude.xlsx,,,,,,,,,,,,,,,,,,,,,,,,,,,,,,,
,,,,,,,,,,,,,,,687,2022-02-05_14h20.49.721,multiplicationStroop,2021.2.3,Win32,59.75143403,,,,,right,1,0.4833,0,55,55,9,1,2,4,2 | 4,2,1.4111,1.9756,congruent,right,,,,,,stimulusFile/magnitude.xlsx,,,,,,,,,,,,,,,,,,,,,,,,,,,,,,,
,,,,,,,,,,,,,,,687,2022-02-05_14h20.49.721,multiplicationStroop,2021.2.3,Win32,59.75143403,,,,,right,1,0.4578,0,56,56,1,1,3,4,3 | 4,1,1.4111,1.9756,congruent,right,,,,,,stimulusFile/magnitude.xlsx,,,,,,,,,,,,,,,,,,,,,,,,,,,,,,,
,,,,,,,,,,,,,,,687,2022-02-05_14h20.49.721,multiplicationStroop,2021.2.3,Win32,59.75143403,,,,,right,1,0.5437,0,57,57,8,1,1,3,1 | 3,2,1.4111,1.9756,congruent,right,,,,,,stimulusFile/magnitude.xlsx,,,,,,,,,,,,,,,,,,,,,,,,,,,,,,,
,,,,,,,,,,,,,,,687,2022-02-05_14h20.49.721,multiplicationStroop,2021.2.3,Win32,59.75143403,,,,,left,1,0.4633,0,58,58,69,1,7,2,7 | 2,5,1.6933,1.6933,neutral,left,,,,,,stimulusFile/magnitude.xlsx,,,,,,,,,,,,,,,,,,,,,,,,,,,,,,,
,,,,,,,,,,,,,,,687,2022-02-05_14h20.49.721,multiplicationStroop,2021.2.3,Win32,59.75143403,,,,,left,1,0.6548,0,59,59,47,1,9,4,9 | 4,5,1.4111,1.9756,incongruent,left,,,,,,stimulusFile/magnitude.xlsx,,,,,,,,,,,,,,,,,,,,,,,,,,,,,,,
,,,,,,,,,,,,,,,687,2022-02-05_14h20.49.721,multiplicationStroop,2021.2.3,Win32,59.75143403,,,,,right,1,0.4741,0,60,60,17,1,2,7,2 | 7,5,1.4111,1.9756,congruent,right,,,,,,stimulusFile/magnitude.xlsx,,,,,,,,,,,,,,,,,,,,,,,,,,,,,,,
,,,,,,,,,,,,,,,687,2022-02-05_14h20.49.721,multiplicationStroop,2021.2.3,Win32,59.75143403,,,,,right,1,0.4565,0,61,61,18,1,3,8,3 | 8,5,1.4111,1.9756,congruent,right,,,,,,stimulusFile/magnitude.xlsx,,,,,,,,,,,,,,,,,,,,,,,,,,,,,,,
,,,,,,,,,,,,,,,687,2022-02-05_14h20.49.721,multiplicationStroop,2021.2.3,Win32,59.75143403,,,,,left,1,0.4723,0,62,62,29,1,4,3,4 | 3,1,1.4111,1.9756,incongruent,left,,,,,,stimulusFile/magnitude.xlsx,,,,,,,,,,,,,,,,,,,,,,,,,,,,,,,
,,,,,,,,,,,,,,,687,2022-02-05_14h20.49.721,multiplicationStroop,2021.2.3,Win32,59.75143403,,,,,left,1,0.8227,0,63,63,70,1,8,3,8 | 3,5,1.6933,1.6933,neutral,left,,,,,,stimulusFile/magnitude.xlsx,,,,,,,,,,,,,,,,,,,,,,,,,,,,,,,
,,,,,,,,,,,,,,,687,2022-02-05_14h20.49.721,multiplicationStroop,2021.2.3,Win32,59.75143403,,,,,left,0,0.3927,0,64,64,35,1,7,9,7 | 9,2,1.9756,1.4111,incongruent,right,,,,,,stimulusFile/magnitude.xlsx,,,,,,,,,,,,,,,,,,,,,,,,,,,,,,,
,,,,,,,,,,,,,,,687,2022-02-05_14h20.49.721,multiplicationStroop,2021.2.3,Win32,59.75143403,,,,,right,1,0.5832,0,65,65,40,1,1,6,1 | 6,5,1.9756,1.4111,incongruent,right,,,,,,stimulusFile/magnitude.xlsx,,,,,,,,,,,,,,,,,,,,,,,,,,,,,,,
,,,,,,,,,,,,,,,687,2022-02-05_14h20.49.721,multiplicationStroop,2021.2.3,Win32,59.75143403,,,,,left,1,0.4581,0,66,66,15,1,9,7,9 | 7,2,1.9756,1.4111,congruent,left,,,,,,stimulusFile/magnitude.xlsx,,,,,,,,,,,,,,,,,,,,,,,,,,,,,,,
,,,,,,,,,,,,,,,687,2022-02-05_14h20.49.721,multiplicationStroop,2021.2.3,Win32,59.75143403,,,,,right,1,0.5058,0,67,67,33,1,2,4,2 | 4,2,1.9756,1.4111,incongruent,right,,,,,,stimulusFile/magnitude.xlsx,,,,,,,,,,,,,,,,,,,,,,,,,,,,,,,
,,,,,,,,,,,,,,,687,2022-02-05_14h20.49.721,multiplicationStroop,2021.2.3,Win32,59.75143403,,,,,right,0,0.385,0,68,68,39,1,9,7,9 | 7,2,1.4111,1.9756,incongruent,left,,,,,,stimulusFile/magnitude.xlsx,,,,,,,,,,,,,,,,,,,,,,,,,,,,,,,
,,,,,,,,,,,,,,,687,2022-02-05_14h20.49.721,multiplicationStroop,2021.2.3,Win32,59.75143403,,,,,left,1,0.5393,0,69,69,23,1,9,4,9 | 4,5,1.9756,1.4111,congruent,left,,,,,,stimulusFile/magnitude.xlsx,,,,,,,,,,,,,,,,,,,,,,,,,,,,,,,
,,,,,,,,,,,,,,,687,2022-02-05_14h20.49.721,multiplicationStroop,2021.2.3,Win32,59.75143403,,,,,right,1,0.6432,0,70,70,25,1,3,4,3 | 4,1,1.9756,1.4111,incongruent,right,,,,,,stimulusFile/magnitude.xlsx,,,,,,,,,,,,,,,,,,,,,,,,,,,,,,,
,,,,,,,,,,,,,,,687,2022-02-05_14h20.49.721,multiplicationStroop,2021.2.3,Win32,59.75143403,,,,,left,1,0.6632,0,71,71,36,1,3,1,3 | 1,2,1.4111,1.9756,incongruent,left,,,,,,stimulusFile/magnitude.xlsx,,,,,,,,,,,,,,,,,,,,,,,,,,,,,,,
,,,,,,,,,,,,,,,687,2022-02-05_14h20.49.721,multiplicationStroop,2021.2.3,Win32,59.75143403,,,,,,,,,,,,,,,,,,,,,0,1,1,0,1,stimulusFile/magnitude.xlsx,NUMERICALLY larger (larger coefficient).,images/numericallyLarger.png,,,,,,,,,,,,,,,,,,,,,,,,,,,,,
,,,,,,,,,,,,,,,687,2022-02-05_14h20.49.721,multiplicationStroop,2021.2.3,Win32,59.75143403,,,,,,,,,,,,,,,,,,,,,,,,,,,,,space,6.0843,space,2.1068,45,3.0749,1,0,0,0,22,1,9,×,5,9 × 5,incongruent,largerFirst,1,2,45,,,,,,,,
,,,,,,,,,,,,,,,687,2022-02-05_14h20.49.721,multiplicationStroop,2021.2.3,Win32,59.75143403,,,,,,,,,,,,,,,,,,,,,,,,,,,,,,,,,64,1.9427,1,0,1,1,34,1,8,×,8,8 × 8,incongruent,tie,1,2,64,,,,,,,,
,,,,,,,,,,,,,,,687,2022-02-05_14h20.49.721,multiplicationStroop,2021.2.3,Win32,59.75143403,,,,,,,,,,,,,,,,,,,,,,,,,,,,,,,,,21,1.7656,1,0,2,2,26,1,7,×,3,7 × 3,incongruent,largerFirst,1,2,21,,,,,,,,
,,,,,,,,,,,,,,,687,2022-02-05_14h20.49.721,multiplicationStroop,2021.2.3,Win32,59.75143403,,,,,,,,,,,,,,,,,,,,,,,,,,,,,,,,,49,1.8489,1,0,3,3,33,1,7,×,7,7 × 7,incongruent,tie,1,2,49,,,,,,,,
,,,,,,,,,,,,,,,687,2022-02-05_14h20.49.721,multiplicationStroop,2021.2.3,Win32,59.75143403,,,,,,,,,,,,,,,,,,,,,,,,,,,,,,,,,18,1.9817,1,0,4,4,2,1,2,×,9,2 × 9,incongruent,smallerFirst,2,1,18,,,,,,,,
,,,,,,,,,,,,,,,687,2022-02-05_14h20.49.721,multiplicationStroop,2021.2.3,Win32,59.75143403,,,,,,,,,,,,,,,,,,,,,,,,,,,,,,,,,10,1.5489,1,0,5,5,21,1,5,×,2,5 × 2,incongruent,largerFirst,1,2,10,,,,,,,,
,,,,,,,,,,,,,,,687,2022-02-05_14h20.49.721,multiplicationStroop,2021.2.3,Win32,59.75143403,,,,,,,,,,,,,,,,,,,,,,,,,,,,,,,,,12,1.6154,1,0,6,6,5,1,3,×,4,3 × 4,incongruent,smallerFirst,2,1,12,,,,,,,,
,,,,,,,,,,,,,,,687,2022-02-05_14h20.49.721,multiplicationStroop,2021.2.3,Win32,59.75143403,,,,,,,,,,,,,,,,,,,,,,,,,,,,,,,,,27,1.7324,1,0,7,7,18,1,9,×,3,9 × 3,incongruent,largerFirst,1,2,27,,,,,,,,
,,,,,,,,,,,,,,,687,2022-02-05_14h20.49.721,multiplicationStroop,2021.2.3,Win32,59.75143403,,,,,,,,,,,,,,,,,,,,,,,,,,,,,,,,,28,2.1487,1,0,8,8,16,1,7,×,4,7 × 4,incongruent,largerFirst,1,2,28,,,,,,,,
,,,,,,,,,,,,,,,687,2022-02-05_14h20.49.721,multiplicationStroop,2021.2.3,Win32,59.75143403,,,,,,,,,,,,,,,,,,,,,,,,,,,,,,,,,6,1.6654,1,0,9,9,11,1,2,×,3,2 × 3,incongruent,smallerFirst,2,1,6,,,,,,,,
,,,,,,,,,,,,,,,687,2022-02-05_14h20.49.721,multiplicationStroop,2021.2.3,Win32,59.75143403,,,,,,,,,,,,,,,,,,,,,,,,,,,,,,,,,30,1.8155,1,0,10,10,25,1,6,×,5,6 × 5,incongruent,largerFirst,1,2,30,,,,,,,,
,,,,,,,,,,,,,,,687,2022-02-05_14h20.49.721,multiplicationStroop,2021.2.3,Win32,59.75143403,,,,,,,,,,,,,,,,,,,,,,,,,,,,,,,,,15,1.6322,1,0,11,11,10,1,3,×,5,3 × 5,incongruent,smallerFirst,2,1,15,,,,,,,,
,,,,,,,,,,,,,,,687,2022-02-05_14h20.49.721,multiplicationStroop,2021.2.3,Win32,59.75143403,,,,,,,,,,,,,,,,,,,,,,,,,,,,,,,,,81,2.0154,1,0,12,12,35,1,9,×,9,9 × 9,incongruent,tie,1,2,81,,,,,,,,
,,,,,,,,,,,,,,,687,2022-02-05_14h20.49.721,multiplicationStroop,2021.2.3,Win32,59.75143403,,,,,,,,,,,,,,,,,,,,,,,,,,,,,,,,,54,1.8154,1,0,13,13,6,1,6,×,9,6 × 9,incongruent,smallerFirst,2,1,54,,,,,,,,
,,,,,,,,,,,,,,,687,2022-02-05_14h20.49.721,multiplicationStroop,2021.2.3,Win32,59.75143403,,,,,,,,,,,,,,,,,,,,,,,,,,,,,,,,,24,3.0317,1,0,14,14,9,1,3,×,8,3 × 8,incongruent,smallerFirst,2,1,24,,,,,,,,
,,,,,,,,,,,,,,,687,2022-02-05_14h20.49.721,multiplicationStroop,2021.2.3,Win32,59.75143403,,,,,,,,,,,,,,,,,,,,,,,,,,,,,,,,,18,1.7487,1,0,15,15,8,1,3,×,6,3 × 6,incongruent,smallerFirst,2,1,18,,,,,,,,
,,,,,,,,,,,,,,,687,2022-02-05_14h20.49.721,multiplicationStroop,2021.2.3,Win32,59.75143403,,,,,,,,,,,,,,,,,,,,,,,,,,,,,,,,,72,1.9656,1,0,16,16,0,1,8,×,9,8 × 9,incongruent,smallerFirst,2,1,72,,,,,,,,
,,,,,,,,,,,,,,,687,2022-02-05_14h20.49.721,multiplicationStroop,2021.2.3,Win32,59.75143403,,,,,,,,,,,,,,,,,,,,,,,,,,,,,,,,,36,1.7823,1,0,17,17,32,1,6,×,6,6 × 6,incongruent,tie,1,2,36,,,,,,,,
,,,,,,,,,,,,,,,687,2022-02-05_14h20.49.721,multiplicationStroop,2021.2.3,Win32,59.75143403,,,,,,,,,,,,,,,,,,,,,,,,,,,,,,,,,63,2.5983,1,0,18,18,3,1,7,×,9,7 × 9,incongruent,smallerFirst,2,1,63,,,,,,,,
,,,,,,,,,,,,,,,687,2022-02-05_14h20.49.721,multiplicationStroop,2021.2.3,Win32,59.75143403,,,,,,,,,,,,,,,,,,,,,,,,,,,,,,,,,32,1.4825,1,0,19,19,7,1,4,×,8,4 × 8,incongruent,smallerFirst,2,1,32,,,,,,,,
,,,,,,,,,,,,,,,687,2022-02-05_14h20.49.721,multiplicationStroop,2021.2.3,Win32,59.75143403,,,,,,,,,,,,,,,,,,,,,,,,,,,,,,,,,14,1.4656,1,0,20,20,4,1,2,×,7,2 × 7,incongruent,smallerFirst,2,1,14,,,,,,,,
,,,,,,,,,,,,,,,687,2022-02-05_14h20.49.721,multiplicationStroop,2021.2.3,Win32,59.75143403,,,,,,,,,,,,,,,,,,,,,,,,,,,,,,,,,16,1.3989,1,0,21,21,23,1,8,×,2,8 × 2,incongruent,largerFirst,1,2,16,,,,,,,,
,,,,,,,,,,,,,,,687,2022-02-05_14h20.49.721,multiplicationStroop,2021.2.3,Win32,59.75143403,,,,,,,,,,,,,,,,,,,,,,,,,,,,,,,,,21,2.4486,0,0,22,22,27,1,5,×,4,5 × 4,incongruent,largerFirst,1,2,20,,,,,,,,
,,,,,,,,,,,,,,,687,2022-02-05_14h20.49.721,multiplicationStroop,2021.2.3,Win32,59.75143403,,,,,,,,,,,,,,,,,,,,,,,,,,,,,,,,,56,1.9989,1,0,23,23,14,1,8,×,7,8 × 7,incongruent,largerFirst,1,2,56,,,,,,,,
,,,,,,,,,,,,,,,687,2022-02-05_14h20.49.721,multiplicationStroop,2021.2.3,Win32,59.75143403,,,,,,,,,,,,,,,,,,,,,,,,,,,,,,,,,12,1.399,1,0,24,24,19,1,6,×,2,6 × 2,incongruent,largerFirst,1,2,12,,,,,,,,
,,,,,,,,,,,,,,,687,2022-02-05_14h20.49.721,multiplicationStroop,2021.2.3,Win32,59.75143403,,,,,,,,,,,,,,,,,,,,,,,,,,,,,,,,,36,1.8822,1,0,25,25,15,1,9,×,4,9 × 4,incongruent,largerFirst,1,2,36,,,,,,,,
,,,,,,,,,,,,,,,687,2022-02-05_14h20.49.721,multiplicationStroop,2021.2.3,Win32,59.75143403,,,,,,,,,,,,,,,,,,,,,,,,,,,,,,,,,40,1.6324,1,0,26,26,13,1,5,×,8,5 × 8,incongruent,smallerFirst,2,1,40,,,,,,,,
,,,,,,,,,,,,,,,687,2022-02-05_14h20.49.721,multiplicationStroop,2021.2.3,Win32,59.75143403,,,,,,,,,,,,,,,,,,,,,,,,,,,,,,,,,16,1.8988,1,0,27,27,30,1,4,×,4,4 × 4,incongruent,tie,1,2,16,,,,,,,,
,,,,,,,,,,,,,,,687,2022-02-05_14h20.49.721,multiplicationStroop,2021.2.3,Win32,59.75143403,,,,,,,,,,,,,,,,,,,,,,,,,,,,,,,,,35,2.2153,1,0,28,28,12,1,5,×,7,5 × 7,incongruent,smallerFirst,2,1,35,,,,,,,,
,,,,,,,,,,,,,,,687,2022-02-05_14h20.49.721,multiplicationStroop,2021.2.3,Win32,59.75143403,,,,,,,,,,,,,,,,,,,,,,,,,,,,,,,,,48,1.982,1,0,29,29,1,1,6,×,8,6 × 8,incongruent,smallerFirst,2,1,48,,,,,,,,
,,,,,,,,,,,,,,,687,2022-02-05_14h20.49.721,multiplicationStroop,2021.2.3,Win32,59.75143403,,,,,,,,,,,,,,,,,,,,,,,,,,,,,,,,,9,1.4489,1,0,30,30,29,1,3,×,3,3 × 3,incongruent,tie,1,2,9,,,,,,,,
,,,,,,,,,,,,,,,687,2022-02-05_14h20.49.721,multiplicationStroop,2021.2.3,Win32,59.75143403,,,,,,,,,,,,,,,,,,,,,,,,,,,,,,,,,24,1.6657,1,0,31,31,20,1,6,×,4,6 × 4,incongruent,largerFirst,1,2,24,,,,,,,,
,,,,,,,,,,,,,,,687,2022-02-05_14h20.49.721,multiplicationStroop,2021.2.3,Win32,59.75143403,,,,,,,,,,,,,,,,,,,,,,,,,,,,,,,,,8,1.6489,1,0,32,32,24,1,4,×,2,4 × 2,incongruent,largerFirst,1,2,8,,,,,,,,
,,,,,,,,,,,,,,,687,2022-02-05_14h20.49.721,multiplicationStroop,2021.2.3,Win32,59.75143403,,,,,,,,,,,,,,,,,,,,,,,,,,,,,,,,,42,3.4814,1,0,33,33,17,1,7,×,6,7 × 6,incongruent,largerFirst,1,2,42,,,,,,,,
,,,,,,,,,,,,,,,687,2022-02-05_14h20.49.721,multiplicationStroop,2021.2.3,Win32,59.75143403,,,,,,,,,,,,,,,,,,,,,,,,,,,,,,,,,25,1.4267,1,0,34,34,31,1,5,×,5,5 × 5,incongruent,tie,1,2,25,,,,,,,,
,,,,,,,,,,,,,,,687,2022-02-05_14h20.49.721,multiplicationStroop,2021.2.3,Win32,59.75143403,,,,,,,,,,,,,,,,,,,,,,,,,,,,,,,,,4,1.2992,1,0,35,35,28,1,2,×,2,2 × 2,incongruent,tie,1,2,4,,,,,,,,
,,,,,,,,,,,,,,,687,2022-02-05_14h20.49.721,multiplicationStroop,2021.2.3,Win32,59.75143403,,,,,,,,,,,,,,,,,,,,,,,,,,,,,,,,,,,,,,,,,,,,,,,,,,0,0,0,5,1,stimulusFile/mult_blk6_INcongruent.xlsx,,
,,,,,,,,,,,,,,,687,2022-02-05_14h20.49.721,multiplicationStroop,2021.2.3,Win32,59.75143403,,,,,,,,,,,,,,,,,,,,,,,,,,,,,,,space,1.3773,14,1.5929,1,0,0,0,14,1,7,×,2,7 × 2,congruent,largerFirst,2,1,14,,,,,,,,
,,,,,,,,,,,,,,,687,2022-02-05_14h20.49.721,multiplicationStroop,2021.2.3,Win32,59.75143403,,,,,,,,,,,,,,,,,,,,,,,,,,,,,,,,,30,1.7323,1,0,1,1,15,1,6,×,5,6 × 5,congruent,largerFirst,2,1,30,,,,,,,,
,,,,,,,,,,,,,,,687,2022-02-05_14h20.49.721,multiplicationStroop,2021.2.3,Win32,59.75143403,,,,,,,,,,,,,,,,,,,,,,,,,,,,,,,,,32,1.4491,1,0,2,2,20,1,8,×,4,8 × 4,congruent,largerFirst,2,1,32,,,,,,,,
,,,,,,,,,,,,,,,687,2022-02-05_14h20.49.721,multiplicationStroop,2021.2.3,Win32,59.75143403,,,,,,,,,,,,,,,,,,,,,,,,,,,,,,,,,64,1.7321,1,0,3,3,34,1,8,×,8,8 × 8,neutral,tie,2,1,64,,,,,,,,
,,,,,,,,,,,,,,,687,2022-02-05_14h20.49.721,multiplicationStroop,2021.2.3,Win32,59.75143403,,,,,,,,,,,,,,,,,,,,,,,,,,,,,,,,,10,1.4325,1,0,4,4,24,1,5,×,2,5 × 2,congruent,largerFirst,2,1,10,,,,,,,,
,,,,,,,,,,,,,,,687,2022-02-05_14h20.49.721,multiplicationStroop,2021.2.3,Win32,59.75143403,,,,,,,,,,,,,,,,,,,,,,,,,,,,,,,,,12,1.2491,1,0,5,5,19,1,6,×,2,6 × 2,congruent,largerFirst,2,1,12,,,,,,,,
,,,,,,,,,,,,,,,687,2022-02-05_14h20.49.721,multiplicationStroop,2021.2.3,Win32,59.75143403,,,,,,,,,,,,,,,,,,,,,,,,,,,,,,,,,48,1.5821,1,0,6,6,18,1,8,×,6,8 × 6,congruent,largerFirst,2,1,48,,,,,,,,
,,,,,,,,,,,,,,,687,2022-02-05_14h20.49.721,multiplicationStroop,2021.2.3,Win32,59.75143403,,,,,,,,,,,,,,,,,,,,,,,,,,,,,,,,,15,1.4656,1,0,7,7,4,1,3,×,5,3 × 5,congruent,smallerFirst,1,2,15,,,,,,,,
,,,,,,,,,,,,,,,687,2022-02-05_14h20.49.721,multiplicationStroop,2021.2.3,Win32,59.75143403,,,,,,,,,,,,,,,,,,,,,,,,,,,,,,,,,18,1.9986,1,0,8,8,11,1,3,×,6,3 × 6,congruent,smallerFirst,1,2,18,,,,,,,,
,,,,,,,,,,,,,,,687,2022-02-05_14h20.49.721,multiplicationStroop,2021.2.3,Win32,59.75143403,,,,,,,,,,,,,,,,,,,,,,,,,,,,,,,,,40,1.4658,1,0,9,9,6,1,5,×,8,5 × 8,congruent,smallerFirst,1,2,40,,,,,,,,
,,,,,,,,,,,,,,,687,2022-02-05_14h20.49.721,multiplicationStroop,2021.2.3,Win32,59.75143403,,,,,,,,,,,,,,,,,,,,,,,,,,,,,,,,,20,1.5989,1,0,10,10,7,1,4,×,5,4 × 5,congruent,smallerFirst,1,2,20,,,,,,,,
,,,,,,,,,,,,,,,687,2022-02-05_14h20.49.721,multiplicationStroop,2021.2.3,Win32,59.75143403,,,,,,,,,,,,,,,,,,,,,,,,,,,,,,,,,18,1.5491,1,0,11,11,22,1,9,×,2,9 × 2,congruent,largerFirst,2,1,18,,,,,,,,
,,,,,,,,,,,,,,,687,2022-02-05_14h20.49.721,multiplicationStroop,2021.2.3,Win32,59.75143403,,,,,,,,,,,,,,,,,,,,,,,,,,,,,,,,,25,1.5157,1,0,12,12,31,1,5,×,5,5 × 5,neutral,tie,2,1,25,,,,,,,,
,,,,,,,,,,,,,,,687,2022-02-05_14h20.49.721,multiplicationStroop,2021.2.3,Win32,59.75143403,,,,,,,,,,,,,,,,,,,,,,,,,,,,,,,,,8,1.3489,1,0,13,13,9,1,2,×,4,2 × 4,congruent,smallerFirst,1,2,8,,,,,,,,
,,,,,,,,,,,,,,,687,2022-02-05_14h20.49.721,multiplicationStroop,2021.2.3,Win32,59.75143403,,,,,,,,,,,,,,,,,,,,,,,,,,,,,,,,,54,1.8326,1,0,14,14,12,1,6,×,9,6 × 9,congruent,smallerFirst,1,2,54,,,,,,,,
,,,,,,,,,,,,,,,687,2022-02-05_14h20.49.721,multiplicationStroop,2021.2.3,Win32,59.75143403,,,,,,,,,,,,,,,,,,,,,,,,,,,,,,,,,28,1.8317,1,0,15,15,27,1,7,×,4,7 × 4,congruent,largerFirst,2,1,28,,,,,,,,
,,,,,,,,,,,,,,,687,2022-02-05_14h20.49.721,multiplicationStroop,2021.2.3,Win32,59.75143403,,,,,,,,,,,,,,,,,,,,,,,,,,,,,,,,,16,1.4656,1,0,16,16,30,1,4,×,4,4 × 4,neutral,tie,2,1,16,,,,,,,,
,,,,,,,,,,,,,,,687,2022-02-05_14h20.49.721,multiplicationStroop,2021.2.3,Win32,59.75143403,,,,,,,,,,,,,,,,,,,,,,,,,,,,,,,,,36,1.8657,1,0,17,17,32,1,6,×,6,6 × 6,neutral,tie,2,1,36,,,,,,,,
,,,,,,,,,,,,,,,687,2022-02-05_14h20.49.721,multiplicationStroop,2021.2.3,Win32,59.75143403,,,,,,,,,,,,,,,,,,,,,,,,,,,,,,,,,35,1.9488,1,0,18,18,1,1,5,×,7,5 × 7,congruent,smallerFirst,1,2,35,,,,,,,,
,,,,,,,,,,,,,,,687,2022-02-05_14h20.49.721,multiplicationStroop,2021.2.3,Win32,59.75143403,,,,,,,,,,,,,,,,,,,,,,,,,,,,,,,,,36,5.2804,1,0,19,19,0,1,4,×,9,4 × 9,congruent,smallerFirst,1,2,36,,,,,,,,
,,,,,,,,,,,,,,,687,2022-02-05_14h20.49.721,multiplicationStroop,2021.2.3,Win32,59.75143403,,,,,,,,,,,,,,,,,,,,,,,,,,,,,,,,,37,1.7597,0,0,20,20,26,1,9,×,3,9 × 3,congruent,largerFirst,2,1,27,,,,,,,,
,,,,,,,,,,,,,,,687,2022-02-05_14h20.49.721,multiplicationStroop,2021.2.3,Win32,59.75143403,,,,,,,,,,,,,,,,,,,,,,,,,,,,,,,,,21,1.4992,1,0,21,21,16,1,7,×,3,7 × 3,congruent,largerFirst,2,1,21,,,,,,,,
,,,,,,,,,,,,,,,687,2022-02-05_14h20.49.721,multiplicationStroop,2021.2.3,Win32,59.75143403,,,,,,,,,,,,,,,,,,,,,,,,,,,,,,,,,24,1.5488,1,0,22,22,25,1,6,×,4,6 × 4,congruent,largerFirst,2,1,24,,,,,,,,
,,,,,,,,,,,,,,,687,2022-02-05_14h20.49.721,multiplicationStroop,2021.2.3,Win32,59.75143403,,,,,,,,,,,,,,,,,,,,,,,,,,,,,,,,,56,1.7325,1,0,23,23,8,1,7,×,8,7 × 8,congruent,smallerFirst,1,2,56,,,,,,,,
,,,,,,,,,,,,,,,687,2022-02-05_14h20.49.721,multiplicationStroop,2021.2.3,Win32,59.75143403,,,,,,,,,,,,,,,,,,,,,,,,,,,,,,,,,6,1.3322,1,0,24,24,13,1,2,×,3,2 × 3,congruent,smallerFirst,1,2,6,,,,,,,,
,,,,,,,,,,,,,,,687,2022-02-05_14h20.49.721,multiplicationStroop,2021.2.3,Win32,59.75143403,,,,,,,,,,,,,,,,,,,,,,,,,,,,,,,,,49,2.432,1,0,25,25,33,1,7,×,7,7 × 7,neutral,tie,2,1,49,,,,,,,,
,,,,,,,,,,,,,,,687,2022-02-05_14h20.49.721,multiplicationStroop,2021.2.3,Win32,59.75143403,,,,,,,,,,,,,,,,,,,,,,,,,,,,,,,,,24,1.2659,1,0,26,26,10,1,3,×,8,3 × 8,congruent,smallerFirst,1,2,24,,,,,,,,
,,,,,,,,,,,,,,,687,2022-02-05_14h20.49.721,multiplicationStroop,2021.2.3,Win32,59.75143403,,,,,,,,,,,,,,,,,,,,,,,,,,,,,,,,,4,1.1821,1,0,27,27,28,1,2,×,2,2 × 2,neutral,tie,2,1,4,,,,,,,,
,,,,,,,,,,,,,,,687,2022-02-05_14h20.49.721,multiplicationStroop,2021.2.3,Win32,59.75143403,,,,,,,,,,,,,,,,,,,,,,,,,,,,,,,,,45,1.9486,1,0,28,28,23,1,9,×,5,9 × 5,congruent,largerFirst,2,1,45,,,,,,,,
,,,,,,,,,,,,,,,687,2022-02-05_14h20.49.721,multiplicationStroop,2021.2.3,Win32,59.75143403,,,,,,,,,,,,,,,,,,,,,,,,,,,,,,,,,12,3.8647,1,0,29,29,2,1,3,×,4,3 × 4,congruent,smallerFirst,1,2,12,,,,,,,,
,,,,,,,,,,,,,,,687,2022-02-05_14h20.49.721,multiplicationStroop,2021.2.3,Win32,59.75143403,,,,,,,,,,,,,,,,,,,,,,,,,,,,,,,,,72,2.0262,1,0,30,30,17,1,9,×,8,9 × 8,congruent,largerFirst,2,1,72,,,,,,,,
,,,,,,,,,,,,,,,687,2022-02-05_14h20.49.721,multiplicationStroop,2021.2.3,Win32,59.75143403,,,,,,,,,,,,,,,,,,,,,,,,,,,,,,,,,16,1.3822,1,0,31,31,5,1,2,×,8,2 × 8,congruent,smallerFirst,1,2,16,,,,,,,,
,,,,,,,,,,,,,,,687,2022-02-05_14h20.49.721,multiplicationStroop,2021.2.3,Win32,59.75143403,,,,,,,,,,,,,,,,,,,,,,,,,,,,,,,,,42,2.0656,1,0,32,32,3,1,6,×,7,6 × 7,congruent,smallerFirst,1,2,42,,,,,,,,
,,,,,,,,,,,,,,,687,2022-02-05_14h20.49.721,multiplicationStroop,2021.2.3,Win32,59.75143403,,,,,,,,,,,,,,,,,,,,,,,,,,,,,,,,,81,1.6823,1,0,33,33,35,1,9,×,9,9 × 9,neutral,tie,2,1,81,,,,,,,,
,,,,,,,,,,,,,,,687,2022-02-05_14h20.49.721,multiplicationStroop,2021.2.3,Win32,59.75143403,,,,,,,,,,,,,,,,,,,,,,,,,,,,,,,,,9,1.3322,1,0,34,34,29,1,3,×,3,3 × 3,neutral,tie,2,1,9,,,,,,,,
,,,,,,,,,,,,,,,687,2022-02-05_14h20.49.721,multiplicationStroop,2021.2.3,Win32,59.75143403,,,,,,,,,,,,,,,,,,,,,,,,,,,,,,,,,63,2.6317,1,0,35,35,21,1,9,×,7,9 × 7,congruent,largerFirst,2,1,63,,,,,,,,
,,,,,,,,,,,,,,,687,2022-02-05_14h20.49.721,multiplicationStroop,2021.2.3,Win32,59.75143403,,,,,,,,,,,,,,,,,,,,,,,,,,,,,,,,,,,,,,,,,,,,,,,,,,0,1,1,2,1,stimulusFile/mult_blk3_congruent.xlsx,,
,,,,,,,,,,,,,,,687,2022-02-05_14h20.49.721,multiplicationStroop,2021.2.3,Win32,59.75143403,,,,,,,,,,,,,,,,,,,,,,,,,,,,,,,space,1.0013,14,1.1589,1,0,0,0,0,1,2,×,7,2 × 7,congruent,smallerFirst,1,2,14,,,,,,,,
,,,,,,,,,,,,,,,687,2022-02-05_14h20.49.721,multiplicationStroop,2021.2.3,Win32,59.75143403,,,,,,,,,,,,,,,,,,,,,,,,,,,,,,,,,25,1.2825,1,0,1,1,31,1,5,×,5,5 × 5,neutral,tie,1,2,25,,,,,,,,
,,,,,,,,,,,,,,,687,2022-02-05_14h20.49.721,multiplicationStroop,2021.2.3,Win32,59.75143403,,,,,,,,,,,,,,,,,,,,,,,,,,,,,,,,,15,2.0987,1,0,2,2,18,1,5,×,3,5 × 3,congruent,largerFirst,2,1,15,,,,,,,,
,,,,,,,,,,,,,,,687,2022-02-05_14h20.49.721,multiplicationStroop,2021.2.3,Win32,59.75143403,,,,,,,,,,,,,,,,,,,,,,,,,,,,,,,,,36,1.7157,1,0,3,3,32,1,6,×,6,6 × 6,neutral,tie,1,2,36,,,,,,,,
,,,,,,,,,,,,,,,687,2022-02-05_14h20.49.721,multiplicationStroop,2021.2.3,Win32,59.75143403,,,,,,,,,,,,,,,,,,,,,,,,,,,,,,,,,8,1.3325,1,0,4,4,23,1,4,×,2,4 × 2,congruent,largerFirst,2,1,8,,,,,,,,
,,,,,,,,,,,,,,,687,2022-02-05_14h20.49.721,multiplicationStroop,2021.2.3,Win32,59.75143403,,,,,,,,,,,,,,,,,,,,,,,,,,,,,,,,,16,2.0486,1,0,5,5,30,1,4,×,4,4 × 4,neutral,tie,1,2,16,,,,,,,,
,,,,,,,,,,,,,,,687,2022-02-05_14h20.49.721,multiplicationStroop,2021.2.3,Win32,59.75143403,,,,,,,,,,,,,,,,,,,,,,,,,,,,,,,,,30,1.8155,1,0,6,6,1,1,5,×,6,5 × 6,congruent,smallerFirst,1,2,30,,,,,,,,
,,,,,,,,,,,,,,,687,2022-02-05_14h20.49.721,multiplicationStroop,2021.2.3,Win32,59.75143403,,,,,,,,,,,,,,,,,,,,,,,,,,,,,,,,,10,1.3824,1,0,7,7,10,1,2,×,5,2 × 5,congruent,smallerFirst,1,2,10,,,,,,,,
,,,,,,,,,,,,,,,687,2022-02-05_14h20.49.721,multiplicationStroop,2021.2.3,Win32,59.75143403,,,,,,,,,,,,,,,,,,,,,,,,,,,,,,,,,18,1.7323,1,0,8,8,8,1,2,×,9,2 × 9,congruent,smallerFirst,1,2,18,,,,,,,,
,,,,,,,,,,,,,,,687,2022-02-05_14h20.49.721,multiplicationStroop,2021.2.3,Win32,59.75143403,,,,,,,,,,,,,,,,,,,,,,,,,,,,,,,,,56,1.8322,1,0,9,9,22,1,8,×,7,8 × 7,congruent,largerFirst,2,1,56,,,,,,,,
,,,,,,,,,,,,,,,687,2022-02-05_14h20.49.721,multiplicationStroop,2021.2.3,Win32,59.75143403,,,,,,,,,,,,,,,,,,,,,,,,,,,,,,,,,16,1.416,1,0,10,10,19,1,8,×,2,8 × 2,congruent,largerFirst,2,1,16,,,,,,,,
,,,,,,,,,,,,,,,687,2022-02-05_14h20.49.721,multiplicationStroop,2021.2.3,Win32,59.75143403,,,,,,,,,,,,,,,,,,,,,,,,,,,,,,,,,24,2.1652,1,0,11,11,24,1,8,×,3,8 × 3,congruent,largerFirst,2,1,24,,,,,,,,
,,,,,,,,,,,,,,,687,2022-02-05_14h20.49.721,multiplicationStroop,2021.2.3,Win32,59.75143403,,,,,,,,,,,,,,,,,,,,,,,,,,,,,,,,,9,1.3158,1,0,12,12,29,1,3,×,3,3 × 3,neutral,tie,1,2,9,,,,,,,,
,,,,,,,,,,,,,,,687,2022-02-05_14h20.49.721,multiplicationStroop,2021.2.3,Win32,59.75143403,,,,,,,,,,,,,,,,,,,,,,,,,,,,,,,,,32,1.4655,1,0,13,13,6,1,4,×,8,4 × 8,congruent,smallerFirst,1,2,32,,,,,,,,
,,,,,,,,,,,,,,,687,2022-02-05_14h20.49.721,multiplicationStroop,2021.2.3,Win32,59.75143403,,,,,,,,,,,,,,,,,,,,,,,,,,,,,,,,,48,1.8155,1,0,14,14,4,1,6,×,8,6 × 8,congruent,smallerFirst,1,2,48,,,,,,,,
,,,,,,,,,,,,,,,687,2022-02-05_14h20.49.721,multiplicationStroop,2021.2.3,Win32,59.75143403,,,,,,,,,,,,,,,,,,,,,,,,,,,,,,,,,36,3.5813,1,0,15,15,14,1,9,×,4,9 × 4,congruent,largerFirst,2,1,36,,,,,,,,
,,,,,,,,,,,,,,,687,2022-02-05_14h20.49.721,multiplicationStroop,2021.2.3,Win32,59.75143403,,,,,,,,,,,,,,,,,,,,,,,,,,,,,,,,,12,1.9099,1,0,16,16,16,1,4,×,3,4 × 3,congruent,largerFirst,2,1,12,,,,,,,,
,,,,,,,,,,,,,,,687,2022-02-05_14h20.49.721,multiplicationStroop,2021.2.3,Win32,59.75143403,,,,,,,,,,,,,,,,,,,,,,,,,,,,,,,,,64,1.5489,1,0,17,17,34,1,8,×,8,8 × 8,neutral,tie,1,2,64,,,,,,,,
,,,,,,,,,,,,,,,687,2022-02-05_14h20.49.721,multiplicationStroop,2021.2.3,Win32,59.75143403,,,,,,,,,,,,,,,,,,,,,,,,,,,,,,,,,6,2.082,1,0,18,18,27,1,3,×,2,3 × 2,congruent,largerFirst,2,1,6,,,,,,,,
,,,,,,,,,,,,,,,687,2022-02-05_14h20.49.721,multiplicationStroop,2021.2.3,Win32,59.75143403,,,,,,,,,,,,,,,,,,,,,,,,,,,,,,,,,21,1.2991,1,0,19,19,2,1,3,×,7,3 × 7,congruent,smallerFirst,1,2,21,,,,,,,,
,,,,,,,,,,,,,,,687,2022-02-05_14h20.49.721,multiplicationStroop,2021.2.3,Win32,59.75143403,,,,,,,,,,,,,,,,,,,,,,,,,,,,,,,,,40,1.8989,1,0,20,20,20,1,8,×,5,8 × 5,congruent,largerFirst,2,1,40,,,,,,,,
,,,,,,,,,,,,,,,687,2022-02-05_14h20.49.721,multiplicationStroop,2021.2.3,Win32,59.75143403,,,,,,,,,,,,,,,,,,,,,,,,,,,,,,,,,72,2.3488,1,0,21,21,3,1,8,×,9,8 × 9,congruent,smallerFirst,1,2,72,,,,,,,,
,,,,,,,,,,,,,,,687,2022-02-05_14h20.49.721,multiplicationStroop,2021.2.3,Win32,59.75143403,,,,,,,,,,,,,,,,,,,,,,,,,,,,,,,,,24,1.9987,1,0,22,22,11,1,4,×,6,4 × 6,congruent,smallerFirst,1,2,24,,,,,,,,
,,,,,,,,,,,,,,,687,2022-02-05_14h20.49.721,multiplicationStroop,2021.2.3,Win32,59.75143403,,,,,,,,,,,,,,,,,,,,,,,,,,,,,,,,,12,1.4492,1,0,23,23,5,1,2,×,6,2 × 6,congruent,smallerFirst,1,2,12,,,,,,,,
,,,,,,,,,,,,,,,687,2022-02-05_14h20.49.721,multiplicationStroop,2021.2.3,Win32,59.75143403,,,,,,,,,,,,,,,,,,,,,,,,,,,,,,,,,45,1.7488,1,0,24,24,9,1,5,×,9,5 × 9,congruent,smallerFirst,1,2,45,,,,,,,,
,,,,,,,,,,,,,,,687,2022-02-05_14h20.49.721,multiplicationStroop,2021.2.3,Win32,59.75143403,,,,,,,,,,,,,,,,,,,,,,,,,,,,,,,,,28,1.832,1,0,25,25,13,1,4,×,7,4 × 7,congruent,smallerFirst,1,2,28,,,,,,,,
,,,,,,,,,,,,,,,687,2022-02-05_14h20.49.721,multiplicationStroop,2021.2.3,Win32,59.75143403,,,,,,,,,,,,,,,,,,,,,,,,,,,,,,,,,27,1.8822,1,0,26,26,12,1,3,×,9,3 × 9,congruent,smallerFirst,1,2,27,,,,,,,,
,,,,,,,,,,,,,,,687,2022-02-05_14h20.49.721,multiplicationStroop,2021.2.3,Win32,59.75143403,,,,,,,,,,,,,,,,,,,,,,,,,,,,,,,,,81,1.4324,1,0,27,27,35,1,9,×,9,9 × 9,neutral,tie,1,2,81,,,,,,,,
,,,,,,,,,,,,,,,687,2022-02-05_14h20.49.721,multiplicationStroop,2021.2.3,Win32,59.75143403,,,,,,,,,,,,,,,,,,,,,,,,,,,,,,,,,35,1.5987,1,0,28,28,15,1,7,×,5,7 × 5,congruent,largerFirst,2,1,35,,,,,,,,
,,,,,,,,,,,,,,,687,2022-02-05_14h20.49.721,multiplicationStroop,2021.2.3,Win32,59.75143403,,,,,,,,,,,,,,,,,,,,,,,,,,,,,,,,,54,1.8323,1,0,29,29,26,1,9,×,6,9 × 6,congruent,largerFirst,2,1,54,,,,,,,,
,,,,,,,,,,,,,,,687,2022-02-05_14h20.49.721,multiplicationStroop,2021.2.3,Win32,59.75143403,,,,,,,,,,,,,,,,,,,,,,,,,,,,,,,,,42,1.7657,1,0,30,30,17,1,7,×,6,7 × 6,congruent,largerFirst,2,1,42,,,,,,,,
,,,,,,,,,,,,,,,687,2022-02-05_14h20.49.721,multiplicationStroop,2021.2.3,Win32,59.75143403,,,,,,,,,,,,,,,,,,,,,,,,,,,,,,,,,63,2.1984,1,0,31,31,7,1,7,×,9,7 × 9,congruent,smallerFirst,1,2,63,,,,,,,,
,,,,,,,,,,,,,,,687,2022-02-05_14h20.49.721,multiplicationStroop,2021.2.3,Win32,59.75143403,,,,,,,,,,,,,,,,,,,,,,,,,,,,,,,,,4,1.1326,1,0,32,32,28,1,2,×,2,2 × 2,neutral,tie,1,2,4,,,,,,,,
,,,,,,,,,,,,,,,687,2022-02-05_14h20.49.721,multiplicationStroop,2021.2.3,Win32,59.75143403,,,,,,,,,,,,,,,,,,,,,,,,,,,,,,,,,20,1.7321,1,0,33,33,21,1,5,×,4,5 × 4,congruent,largerFirst,2,1,20,,,,,,,,
,,,,,,,,,,,,,,,687,2022-02-05_14h20.49.721,multiplicationStroop,2021.2.3,Win32,59.75143403,,,,,,,,,,,,,,,,,,,,,,,,,,,,,,,,,49,1.9822,1,0,34,34,33,1,7,×,7,7 × 7,neutral,tie,1,2,49,,,,,,,,
,,,,,,,,,,,,,,,687,2022-02-05_14h20.49.721,multiplicationStroop,2021.2.3,Win32,59.75143403,,,,,,,,,,,,,,,,,,,,,,,,,,,,,,,,,18,1.5988,1,0,35,35,25,1,6,×,3,6 × 3,congruent,largerFirst,2,1,18,,,,,,,,
,,,,,,,,,,,,,,,687,2022-02-05_14h20.49.721,multiplicationStroop,2021.2.3,Win32,59.75143403,,,,,,,,,,,,,,,,,,,,,,,,,,,,,,,,,,,,,,,,,,,,,,,,,,0,2,2,3,1,stimulusFile/mult_blk4_congruent.xlsx,,
,,,,,,,,,,,,,,,687,2022-02-05_14h20.49.721,multiplicationStroop,2021.2.3,Win32,59.75143403,,,,,,,,,,,,,,,,,,,,,,,,,,,,,,,space,0.9157,81,1.4905,1,0,0,0,35,1,9,×,9,9 × 9,neutral,tie,1.5,1.5,81,,,,,,,,
,,,,,,,,,,,,,,,687,2022-02-05_14h20.49.721,multiplicationStroop,2021.2.3,Win32,59.75143403,,,,,,,,,,,,,,,,,,,,,,,,,,,,,,,,,24,1.7322,1,0,1,1,8,1,3,×,8,3 × 8,neutral,smallerFirst,1.5,1.5,24,,,,,,,,
,,,,,,,,,,,,,,,687,2022-02-05_14h20.49.721,multiplicationStroop,2021.2.3,Win32,59.75143403,,,,,,,,,,,,,,,,,,,,,,,,,,,,,,,,,48,1.7987,1,0,2,2,1,1,6,×,8,6 × 8,neutral,smallerFirst,1.5,1.5,48,,,,,,,,
,,,,,,,,,,,,,,,687,2022-02-05_14h20.49.721,multiplicationStroop,2021.2.3,Win32,59.75143403,,,,,,,,,,,,,,,,,,,,,,,,,,,,,,,,,56,1.682,1,0,3,3,23,1,8,×,7,8 × 7,neutral,largerFirst,1.5,1.5,56,,,,,,,,
,,,,,,,,,,,,,,,687,2022-02-05_14h20.49.721,multiplicationStroop,2021.2.3,Win32,59.75143403,,,,,,,,,,,,,,,,,,,,,,,,,,,,,,,,,16,1.599,1,0,4,4,27,1,8,×,2,8 × 2,neutral,largerFirst,1.5,1.5,16,,,,,,,,
,,,,,,,,,,,,,,,687,2022-02-05_14h20.49.721,multiplicationStroop,2021.2.3,Win32,59.75143403,,,,,,,,,,,,,,,,,,,,,,,,,,,,,,,,,64,1.7158,1,0,5,5,34,1,8,×,8,8 × 8,neutral,tie,1.5,1.5,64,,,,,,,,
,,,,,,,,,,,,,,,687,2022-02-05_14h20.49.721,multiplicationStroop,2021.2.3,Win32,59.75143403,,,,,,,,,,,,,,,,,,,,,,,,,,,,,,,,,18,2.0654,1,0,6,6,14,1,6,×,3,6 × 3,neutral,largerFirst,1.5,1.5,18,,,,,,,,
,,,,,,,,,,,,,,,687,2022-02-05_14h20.49.721,multiplicationStroop,2021.2.3,Win32,59.75143403,,,,,,,,,,,,,,,,,,,,,,,,,,,,,,,,,27,1.6321,1,0,7,7,0,1,3,×,9,3 × 9,neutral,smallerFirst,1.5,1.5,27,,,,,,,,
,,,,,,,,,,,,,,,687,2022-02-05_14h20.49.721,multiplicationStroop,2021.2.3,Win32,59.75143403,,,,,,,,,,,,,,,,,,,,,,,,,,,,,,,,,18,1.8823,1,0,8,8,4,1,2,×,9,2 × 9,neutral,smallerFirst,1.5,1.5,18,,,,,,,,
,,,,,,,,,,,,,,,687,2022-02-05_14h20.49.721,multiplicationStroop,2021.2.3,Win32,59.75143403,,,,,,,,,,,,,,,,,,,,,,,,,,,,,,,,,12,1.2992,1,0,9,9,11,1,2,×,6,2 × 6,neutral,smallerFirst,1.5,1.5,12,,,,,,,,
,,,,,,,,,,,,,,,687,2022-02-05_14h20.49.721,multiplicationStroop,2021.2.3,Win32,59.75143403,,,,,,,,,,,,,,,,,,,,,,,,,,,,,,,,,45,1.499,1,0,10,10,24,1,9,×,5,9 × 5,neutral,largerFirst,1.5,1.5,45,,,,,,,,
,,,,,,,,,,,,,,,687,2022-02-05_14h20.49.721,multiplicationStroop,2021.2.3,Win32,59.75143403,,,,,,,,,,,,,,,,,,,,,,,,,,,,,,,,,6,1.3324,1,0,11,11,12,1,2,×,3,2 × 3,neutral,smallerFirst,1.5,1.5,6,,,,,,,,
,,,,,,,,,,,,,,,687,2022-02-05_14h20.49.721,multiplicationStroop,2021.2.3,Win32,59.75143403,,,,,,,,,,,,,,,,,,,,,,,,,,,,,,,,,8,1.3657,1,0,12,12,17,1,4,×,2,4 × 2,neutral,largerFirst,1.5,1.5,8,,,,,,,,
,,,,,,,,,,,,,,,687,2022-02-05_14h20.49.721,multiplicationStroop,2021.2.3,Win32,59.75143403,,,,,,,,,,,,,,,,,,,,,,,,,,,,,,,,,14,1.3323,1,0,13,13,2,1,2,×,7,2 × 7,neutral,smallerFirst,1.5,1.5,14,,,,,,,,
,,,,,,,,,,,,,,,687,2022-02-05_14h20.49.721,multiplicationStroop,2021.2.3,Win32,59.75143403,,,,,,,,,,,,,,,,,,,,,,,,,,,,,,,,,15,1.9318,1,0,14,14,19,1,5,×,3,5 × 3,neutral,largerFirst,1.5,1.5,15,,,,,,,,
,,,,,,,,,,,,,,,687,2022-02-05_14h20.49.721,multiplicationStroop,2021.2.3,Win32,59.75143403,,,,,,,,,,,,,,,,,,,,,,,,,,,,,,,,,54,1.7156,1,0,15,15,21,1,9,×,6,9 × 6,neutral,largerFirst,1.5,1.5,54,,,,,,,,
,,,,,,,,,,,,,,,687,2022-02-05_14h20.49.721,multiplicationStroop,2021.2.3,Win32,59.75143403,,,,,,,,,,,,,,,,,,,,,,,,,,,,,,,,,72,2.2651,1,0,16,16,25,1,9,×,8,9 × 8,neutral,largerFirst,1.5,1.5,72,,,,,,,,
,,,,,,,,,,,,,,,687,2022-02-05_14h20.49.721,multiplicationStroop,2021.2.3,Win32,59.75143403,,,,,,,,,,,,,,,,,,,,,,,,,,,,,,,,,36,1.6822,1,0,17,17,32,1,6,×,6,6 × 6,neutral,tie,1.5,1.5,36,,,,,,,,
,,,,,,,,,,,,,,,687,2022-02-05_14h20.49.721,multiplicationStroop,2021.2.3,Win32,59.75143403,,,,,,,,,,,,,,,,,,,,,,,,,,,,,,,,,9,1.3657,1,0,18,18,29,1,3,×,3,3 × 3,neutral,tie,1.5,1.5,9,,,,,,,,
,,,,,,,,,,,,,,,687,2022-02-05_14h20.49.721,multiplicationStroop,2021.2.3,Win32,59.75143403,,,,,,,,,,,,,,,,,,,,,,,,,,,,,,,,,42,2.332,0,0,19,19,26,1,9,×,7,9 × 7,neutral,largerFirst,1.5,1.5,63,,,,,,,,
,,,,,,,,,,,,,,,687,2022-02-05_14h20.49.721,multiplicationStroop,2021.2.3,Win32,59.75143403,,,,,,,,,,,,,,,,,,,,,,,,,,,,,,,,,30,2.2765,1,0,20,20,5,1,5,×,6,5 × 6,neutral,smallerFirst,1.5,1.5,30,,,,,,,,
,,,,,,,,,,,,,,,687,2022-02-05_14h20.49.721,multiplicationStroop,2021.2.3,Win32,59.75143403,,,,,,,,,,,,,,,,,,,,,,,,,,,,,,,,,4,1.0489,1,0,21,21,28,1,2,×,2,2 × 2,neutral,tie,1.5,1.5,4,,,,,,,,
,,,,,,,,,,,,,,,687,2022-02-05_14h20.49.721,multiplicationStroop,2021.2.3,Win32,59.75143403,,,,,,,,,,,,,,,,,,,,,,,,,,,,,,,,,40,1.5989,1,0,22,22,10,1,5,×,8,5 × 8,neutral,smallerFirst,1.5,1.5,40,,,,,,,,
,,,,,,,,,,,,,,,687,2022-02-05_14h20.49.721,multiplicationStroop,2021.2.3,Win32,59.75143403,,,,,,,,,,,,,,,,,,,,,,,,,,,,,,,,,32,1.5492,1,0,23,23,9,1,4,×,8,4 × 8,neutral,smallerFirst,1.5,1.5,32,,,,,,,,
,,,,,,,,,,,,,,,687,2022-02-05_14h20.49.721,multiplicationStroop,2021.2.3,Win32,59.75143403,,,,,,,,,,,,,,,,,,,,,,,,,,,,,,,,,28,1.532,1,0,24,24,3,1,4,×,7,4 × 7,neutral,smallerFirst,1.5,1.5,28,,,,,,,,
,,,,,,,,,,,,,,,687,2022-02-05_14h20.49.721,multiplicationStroop,2021.2.3,Win32,59.75143403,,,,,,,,,,,,,,,,,,,,,,,,,,,,,,,,,25,1.4325,1,0,25,25,31,1,5,×,5,5 × 5,neutral,tie,1.5,1.5,25,,,,,,,,
,,,,,,,,,,,,,,,687,2022-02-05_14h20.49.721,multiplicationStroop,2021.2.3,Win32,59.75143403,,,,,,,,,,,,,,,,,,,,,,,,,,,,,,,,,12,1.2492,1,0,26,26,7,1,3,×,4,3 × 4,neutral,smallerFirst,1.5,1.5,12,,,,,,,,
,,,,,,,,,,,,,,,687,2022-02-05_14h20.49.721,multiplicationStroop,2021.2.3,Win32,59.75143403,,,,,,,,,,,,,,,,,,,,,,,,,,,,,,,,,24,1.6988,1,0,27,27,16,1,6,×,4,6 × 4,neutral,largerFirst,1.5,1.5,24,,,,,,,,
,,,,,,,,,,,,,,,687,2022-02-05_14h20.49.721,multiplicationStroop,2021.2.3,Win32,59.75143403,,,,,,,,,,,,,,,,,,,,,,,,,,,,,,,,,20,1.5157,1,0,28,28,6,1,4,×,5,4 × 5,neutral,smallerFirst,1.5,1.5,20,,,,,,,,
,,,,,,,,,,,,,,,687,2022-02-05_14h20.49.721,multiplicationStroop,2021.2.3,Win32,59.75143403,,,,,,,,,,,,,,,,,,,,,,,,,,,,,,,,,49,1.4988,1,0,29,29,33,1,7,×,7,7 × 7,neutral,tie,1.5,1.5,49,,,,,,,,
,,,,,,,,,,,,,,,687,2022-02-05_14h20.49.721,multiplicationStroop,2021.2.3,Win32,59.75143403,,,,,,,,,,,,,,,,,,,,,,,,,,,,,,,,,21,2.8983,1,0,30,30,22,1,7,×,3,7 × 3,neutral,largerFirst,1.5,1.5,21,,,,,,,,
,,,,,,,,,,,,,,,687,2022-02-05_14h20.49.721,multiplicationStroop,2021.2.3,Win32,59.75143403,,,,,,,,,,,,,,,,,,,,,,,,,,,,,,,,,16,1.5268,1,0,31,31,30,1,4,×,4,4 × 4,neutral,tie,1.5,1.5,16,,,,,,,,
,,,,,,,,,,,,,,,687,2022-02-05_14h20.49.721,multiplicationStroop,2021.2.3,Win32,59.75143403,,,,,,,,,,,,,,,,,,,,,,,,,,,,,,,,,35,1.982,1,0,32,32,15,1,7,×,5,7 × 5,neutral,largerFirst,1.5,1.5,35,,,,,,,,
,,,,,,,,,,,,,,,687,2022-02-05_14h20.49.721,multiplicationStroop,2021.2.3,Win32,59.75143403,,,,,,,,,,,,,,,,,,,,,,,,,,,,,,,,,36,2.9318,1,0,33,33,13,1,4,×,9,4 × 9,neutral,smallerFirst,1.5,1.5,36,,,,,,,,
,,,,,,,,,,,,,,,687,2022-02-05_14h20.49.721,multiplicationStroop,2021.2.3,Win32,59.75143403,,,,,,,,,,,,,,,,,,,,,,,,,,,,,,,,,10,1.4267,1,0,34,34,18,1,5,×,2,5 × 2,neutral,largerFirst,1.5,1.5,10,,,,,,,,
,,,,,,,,,,,,,,,687,2022-02-05_14h20.49.721,multiplicationStroop,2021.2.3,Win32,59.75143403,,,,,,,,,,,,,,,,,,,,,,,,,,,,,,,,,42,1.4824,1,0,35,35,20,1,7,×,6,7 × 6,neutral,largerFirst,1.5,1.5,42,,,,,,,,
,,,,,,,,,,,,,,,687,2022-02-05_14h20.49.721,multiplicationStroop,2021.2.3,Win32,59.75143403,,,,,,,,,,,,,,,,,,,,,,,,,,,,,,,,,,,,,,,,,,,,,,,,,,0,3,3,0,1,stimulusFile/mult_blk1.xlsx,,
,,,,,,,,,,,,,,,687,2022-02-05_14h20.49.721,multiplicationStroop,2021.2.3,Win32,59.75143403,,,,,,,,,,,,,,,,,,,,,,,,,,,,,,,space,1.2724,15,1.4248,1,0,0,0,24,1,5,×,3,5 × 3,incongruent,largerFirst,1,2,15,,,,,,,,
,,,,,,,,,,,,,,,687,2022-02-05_14h20.49.721,multiplicationStroop,2021.2.3,Win32,59.75143403,,,,,,,,,,,,,,,,,,,,,,,,,,,,,,,,,19,1.4824,0,0,1,1,16,1,9,×,2,9 × 2,incongruent,largerFirst,1,2,18,,,,,,,,
,,,,,,,,,,,,,,,687,2022-02-05_14h20.49.721,multiplicationStroop,2021.2.3,Win32,59.75143403,,,,,,,,,,,,,,,,,,,,,,,,,,,,,,,,,10,1.4324,1,0,2,2,7,1,2,×,5,2 × 5,incongruent,smallerFirst,2,1,10,,,,,,,,
,,,,,,,,,,,,,,,687,2022-02-05_14h20.49.721,multiplicationStroop,2021.2.3,Win32,59.75143403,,,,,,,,,,,,,,,,,,,,,,,,,,,,,,,,,40,1.5657,1,0,3,3,27,1,8,×,5,8 × 5,incongruent,largerFirst,1,2,40,,,,,,,,
,,,,,,,,,,,,,,,687,2022-02-05_14h20.49.721,multiplicationStroop,2021.2.3,Win32,59.75143403,,,,,,,,,,,,,,,,,,,,,,,,,,,,,,,,,81,1.7151,1,0,4,4,35,1,9,×,9,9 × 9,neutral,tie,2,1,81,,,,,,,,
,,,,,,,,,,,,,,,687,2022-02-05_14h20.49.721,multiplicationStroop,2021.2.3,Win32,59.75143403,,,,,,,,,,,,,,,,,,,,,,,,,,,,,,,,,16,1.5159,1,0,5,5,9,1,2,×,8,2 × 8,incongruent,smallerFirst,2,1,16,,,,,,,,
,,,,,,,,,,,,,,,687,2022-02-05_14h20.49.721,multiplicationStroop,2021.2.3,Win32,59.75143403,,,,,,,,,,,,,,,,,,,,,,,,,,,,,,,,,64,1.582,1,0,6,6,34,1,8,×,8,8 × 8,neutral,tie,2,1,64,,,,,,,,
,,,,,,,,,,,,,,,687,2022-02-05_14h20.49.721,multiplicationStroop,2021.2.3,Win32,59.75143403,,,,,,,,,,,,,,,,,,,,,,,,,,,,,,,,,4,1.2151,1,0,7,7,28,1,2,×,2,2 × 2,neutral,tie,2,1,4,,,,,,,,
,,,,,,,,,,,,,,,687,2022-02-05_14h20.49.721,multiplicationStroop,2021.2.3,Win32,59.75143403,,,,,,,,,,,,,,,,,,,,,,,,,,,,,,,,,14,1.3657,1,0,8,8,18,1,7,×,2,7 × 2,incongruent,largerFirst,1,2,14,,,,,,,,
,,,,,,,,,,,,,,,687,2022-02-05_14h20.49.721,multiplicationStroop,2021.2.3,Win32,59.75143403,,,,,,,,,,,,,,,,,,,,,,,,,,,,,,,,,42,1.5323,1,0,9,9,3,1,6,×,7,6 × 7,incongruent,smallerFirst,2,1,42,,,,,,,,
,,,,,,,,,,,,,,,687,2022-02-05_14h20.49.721,multiplicationStroop,2021.2.3,Win32,59.75143403,,,,,,,,,,,,,,,,,,,,,,,,,,,,,,,,,21,1.649,1,0,10,10,12,1,3,×,7,3 × 7,incongruent,smallerFirst,2,1,21,,,,,,,,
,,,,,,,,,,,,,,,687,2022-02-05_14h20.49.721,multiplicationStroop,2021.2.3,Win32,59.75143403,,,,,,,,,,,,,,,,,,,,,,,,,,,,,,,,,8,1.6654,1,0,11,11,10,1,2,×,4,2 × 4,incongruent,smallerFirst,2,1,8,,,,,,,,
,,,,,,,,,,,,,,,687,2022-02-05_14h20.49.721,multiplicationStroop,2021.2.3,Win32,59.75143403,,,,,,,,,,,,,,,,,,,,,,,,,,,,,,,,,27,2.1988,1,0,12,12,4,1,3,×,9,3 × 9,incongruent,smallerFirst,2,1,27,,,,,,,,
,,,,,,,,,,,,,,,687,2022-02-05_14h20.49.721,multiplicationStroop,2021.2.3,Win32,59.75143403,,,,,,,,,,,,,,,,,,,,,,,,,,,,,,,,,6,1.4825,1,0,13,13,25,1,3,×,2,3 × 2,incongruent,largerFirst,1,2,6,,,,,,,,
,,,,,,,,,,,,,,,687,2022-02-05_14h20.49.721,multiplicationStroop,2021.2.3,Win32,59.75143403,,,,,,,,,,,,,,,,,,,,,,,,,,,,,,,,,36,1.5988,1,0,14,14,32,1,6,×,6,6 × 6,neutral,tie,2,1,36,,,,,,,,
,,,,,,,,,,,,,,,687,2022-02-05_14h20.49.721,multiplicationStroop,2021.2.3,Win32,59.75143403,,,,,,,,,,,,,,,,,,,,,,,,,,,,,,,,,63,2.9483,1,0,15,15,17,1,9,×,7,9 × 7,incongruent,largerFirst,1,2,63,,,,,,,,
,,,,,,,,,,,,,,,687,2022-02-05_14h20.49.721,multiplicationStroop,2021.2.3,Win32,59.75143403,,,,,,,,,,,,,,,,,,,,,,,,,,,,,,,,,48,2.3817,1,0,16,16,15,1,8,×,6,8 × 6,incongruent,largerFirst,1,2,48,,,,,,,,
,,,,,,,,,,,,,,,687,2022-02-05_14h20.49.721,multiplicationStroop,2021.2.3,Win32,59.75143403,,,,,,,,,,,,,,,,,,,,,,,,,,,,,,,,,24,1.6988,1,0,17,17,6,1,4,×,6,4 × 6,incongruent,smallerFirst,2,1,24,,,,,,,,
,,,,,,,,,,,,,,,687,2022-02-05_14h20.49.721,multiplicationStroop,2021.2.3,Win32,59.75143403,,,,,,,,,,,,,,,,,,,,,,,,,,,,,,,,,49,2.0991,1,0,18,18,33,1,7,×,7,7 × 7,neutral,tie,2,1,49,,,,,,,,
,,,,,,,,,,,,,,,687,2022-02-05_14h20.49.721,multiplicationStroop,2021.2.3,Win32,59.75143403,,,,,,,,,,,,,,,,,,,,,,,,,,,,,,,,,24,1.4318,1,0,19,19,23,1,8,×,3,8 × 3,incongruent,largerFirst,1,2,24,,,,,,,,
,,,,,,,,,,,,,,,687,2022-02-05_14h20.49.721,multiplicationStroop,2021.2.3,Win32,59.75143403,,,,,,,,,,,,,,,,,,,,,,,,,,,,,,,,,28,2.282,1,0,20,20,2,1,4,×,7,4 × 7,incongruent,smallerFirst,2,1,28,,,,,,,,
,,,,,,,,,,,,,,,687,2022-02-05_14h20.49.721,multiplicationStroop,2021.2.3,Win32,59.75143403,,,,,,,,,,,,,,,,,,,,,,,,,,,,,,,,,18,2.3152,1,0,21,21,22,1,6,×,3,6 × 3,incongruent,largerFirst,1,2,18,,,,,,,,
,,,,,,,,,,,,,,,687,2022-02-05_14h20.49.721,multiplicationStroop,2021.2.3,Win32,59.75143403,,,,,,,,,,,,,,,,,,,,,,,,,,,,,,,,,16,1.7155,1,0,22,22,30,1,4,×,4,4 × 4,neutral,tie,2,1,16,,,,,,,,
,,,,,,,,,,,,,,,687,2022-02-05_14h20.49.721,multiplicationStroop,2021.2.3,Win32,59.75143403,,,,,,,,,,,,,,,,,,,,,,,,,,,,,,,,,32,1.6821,1,0,23,23,21,1,8,×,4,8 × 4,incongruent,largerFirst,1,2,32,,,,,,,,
,,,,,,,,,,,,,,,687,2022-02-05_14h20.49.721,multiplicationStroop,2021.2.3,Win32,59.75143403,,,,,,,,,,,,,,,,,,,,,,,,,,,,,,,,,45,1.6323,1,0,24,24,8,1,5,×,9,5 × 9,incongruent,smallerFirst,2,1,45,,,,,,,,
,,,,,,,,,,,,,,,687,2022-02-05_14h20.49.721,multiplicationStroop,2021.2.3,Win32,59.75143403,,,,,,,,,,,,,,,,,,,,,,,,,,,,,,,,,54,1.7156,1,0,25,25,20,1,9,×,6,9 × 6,incongruent,largerFirst,1,2,54,,,,,,,,
,,,,,,,,,,,,,,,687,2022-02-05_14h20.49.721,multiplicationStroop,2021.2.3,Win32,59.75143403,,,,,,,,,,,,,,,,,,,,,,,,,,,,,,,,,9,1.5824,1,0,26,26,29,1,3,×,3,3 × 3,neutral,tie,2,1,9,,,,,,,,
,,,,,,,,,,,,,,,687,2022-02-05_14h20.49.721,multiplicationStroop,2021.2.3,Win32,59.75143403,,,,,,,,,,,,,,,,,,,,,,,,,,,,,,,,,36,2.5818,1,0,27,27,1,1,4,×,9,4 × 9,incongruent,smallerFirst,2,1,36,,,,,,,,
,,,,,,,,,,,,,,,687,2022-02-05_14h20.49.721,multiplicationStroop,2021.2.3,Win32,59.75143403,,,,,,,,,,,,,,,,,,,,,,,,,,,,,,,,,72,2.0255,1,0,28,28,14,1,9,×,8,9 × 8,incongruent,largerFirst,1,2,72,,,,,,,,
,,,,,,,,,,,,,,,687,2022-02-05_14h20.49.721,multiplicationStroop,2021.2.3,Win32,59.75143403,,,,,,,,,,,,,,,,,,,,,,,,,,,,,,,,,12,1.3824,1,0,29,29,19,1,4,×,3,4 × 3,incongruent,largerFirst,1,2,12,,,,,,,,
,,,,,,,,,,,,,,,687,2022-02-05_14h20.49.721,multiplicationStroop,2021.2.3,Win32,59.75143403,,,,,,,,,,,,,,,,,,,,,,,,,,,,,,,,,25,1.299,1,0,30,30,31,1,5,×,5,5 × 5,neutral,tie,2,1,25,,,,,,,,
,,,,,,,,,,,,,,,687,2022-02-05_14h20.49.721,multiplicationStroop,2021.2.3,Win32,59.75143403,,,,,,,,,,,,,,,,,,,,,,,,,,,,,,,,,20,1.4992,1,0,31,31,13,1,4,×,5,4 × 5,incongruent,smallerFirst,2,1,20,,,,,,,,
,,,,,,,,,,,,,,,687,2022-02-05_14h20.49.721,multiplicationStroop,2021.2.3,Win32,59.75143403,,,,,,,,,,,,,,,,,,,,,,,,,,,,,,,,,12,1.6156,1,0,32,32,5,1,2,×,6,2 × 6,incongruent,smallerFirst,2,1,12,,,,,,,,
,,,,,,,,,,,,,,,687,2022-02-05_14h20.49.721,multiplicationStroop,2021.2.3,Win32,59.75143403,,,,,,,,,,,,,,,,,,,,,,,,,,,,,,,,,35,1.8819,1,0,33,33,26,1,7,×,5,7 × 5,incongruent,largerFirst,1,2,35,,,,,,,,
,,,,,,,,,,,,,,,687,2022-02-05_14h20.49.721,multiplicationStroop,2021.2.3,Win32,59.75143403,,,,,,,,,,,,,,,,,,,,,,,,,,,,,,,,,56,1.6491,1,0,34,34,0,1,7,×,8,7 × 8,incongruent,smallerFirst,2,1,56,,,,,,,,
,,,,,,,,,,,,,,,687,2022-02-05_14h20.49.721,multiplicationStroop,2021.2.3,Win32,59.75143403,,,,,,,,,,,,,,,,,,,,,,,,,,,,,,,,,30,1.6317,1,0,35,35,11,1,5,×,6,5 × 6,incongruent,smallerFirst,2,1,30,,,,,,,,
,,,,,,,,,,,,,,,687,2022-02-05_14h20.49.721,multiplicationStroop,2021.2.3,Win32,59.75143403,,,,,,,,,,,,,,,,,,,,,,,,,,,,,,,,,,,,,,,,,,,,,,,,,,0,4,4,4,1,stimulusFile/mult_blk5_INcongruent.xlsx,,
,,,,,,,,,,,,,,,687,2022-02-05_14h20.49.721,multiplicationStroop,2021.2.3,Win32,59.75143403,,,,,,,,,,,,,,,,,,,,,,,,,,,,,,,space,0.8377,24,1.4926,1,0,0,0,2,1,4,×,6,4 × 6,neutral,smallerFirst,1.5,1.5,24,,,,,,,,
,,,,,,,,,,,,,,,687,2022-02-05_14h20.49.721,multiplicationStroop,2021.2.3,Win32,59.75143403,,,,,,,,,,,,,,,,,,,,,,,,,,,,,,,,,24,1.6156,1,0,1,1,22,1,8,×,3,8 × 3,neutral,largerFirst,1.5,1.5,24,,,,,,,,
,,,,,,,,,,,,,,,687,2022-02-05_14h20.49.721,multiplicationStroop,2021.2.3,Win32,59.75143403,,,,,,,,,,,,,,,,,,,,,,,,,,,,,,,,,21,1.5657,1,0,2,2,8,1,3,×,7,3 × 7,neutral,smallerFirst,1.5,1.5,21,,,,,,,,
,,,,,,,,,,,,,,,687,2022-02-05_14h20.49.721,multiplicationStroop,2021.2.3,Win32,59.75143403,,,,,,,,,,,,,,,,,,,,,,,,,,,,,,,,,35,1.8988,1,0,3,3,1,1,5,×,7,5 × 7,neutral,smallerFirst,1.5,1.5,35,,,,,,,,
,,,,,,,,,,,,,,,687,2022-02-05_14h20.49.721,multiplicationStroop,2021.2.3,Win32,59.75143403,,,,,,,,,,,,,,,,,,,,,,,,,,,,,,,,,27,2.2152,1,0,4,4,14,1,9,×,3,9 × 3,neutral,largerFirst,1.5,1.5,27,,,,,,,,
,,,,,,,,,,,,,,,687,2022-02-05_14h20.49.721,multiplicationStroop,2021.2.3,Win32,59.75143403,,,,,,,,,,,,,,,,,,,,,,,,,,,,,,,,,32,1.7155,1,0,5,5,23,1,8,×,4,8 × 4,neutral,largerFirst,1.5,1.5,32,,,,,,,,
,,,,,,,,,,,,,,,687,2022-02-05_14h20.49.721,multiplicationStroop,2021.2.3,Win32,59.75143403,,,,,,,,,,,,,,,,,,,,,,,,,,,,,,,,,18,1.699,1,0,6,6,18,1,9,×,2,9 × 2,neutral,largerFirst,1.5,1.5,18,,,,,,,,
,,,,,,,,,,,,,,,687,2022-02-05_14h20.49.721,multiplicationStroop,2021.2.3,Win32,59.75143403,,,,,,,,,,,,,,,,,,,,,,,,,,,,,,,,,25,1.4988,1,0,7,7,31,1,5,×,5,5 × 5,neutral,tie,1.5,1.5,25,,,,,,,,
,,,,,,,,,,,,,,,687,2022-02-05_14h20.49.721,multiplicationStroop,2021.2.3,Win32,59.75143403,,,,,,,,,,,,,,,,,,,,,,,,,,,,,,,,,72,2.0823,1,0,8,8,11,1,8,×,9,8 × 9,neutral,smallerFirst,1.5,1.5,72,,,,,,,,
,,,,,,,,,,,,,,,687,2022-02-05_14h20.49.721,multiplicationStroop,2021.2.3,Win32,59.75143403,,,,,,,,,,,,,,,,,,,,,,,,,,,,,,,,,16,1.6489,1,0,9,9,30,1,4,×,4,4 × 4,neutral,tie,1.5,1.5,16,,,,,,,,
,,,,,,,,,,,,,,,687,2022-02-05_14h20.49.721,multiplicationStroop,2021.2.3,Win32,59.75143403,,,,,,,,,,,,,,,,,,,,,,,,,,,,,,,,,15,1.3488,1,0,10,10,5,1,3,×,5,3 × 5,neutral,smallerFirst,1.5,1.5,15,,,,,,,,
,,,,,,,,,,,,,,,687,2022-02-05_14h20.49.721,multiplicationStroop,2021.2.3,Win32,59.75143403,,,,,,,,,,,,,,,,,,,,,,,,,,,,,,,,,36,1.699,1,0,11,11,32,1,6,×,6,6 × 6,neutral,tie,1.5,1.5,36,,,,,,,,
,,,,,,,,,,,,,,,687,2022-02-05_14h20.49.721,multiplicationStroop,2021.2.3,Win32,59.75143403,,,,,,,,,,,,,,,,,,,,,,,,,,,,,,,,,6,2.0319,1,0,12,12,26,1,3,×,2,3 × 2,neutral,largerFirst,1.5,1.5,6,,,,,,,,
,,,,,,,,,,,,,,,687,2022-02-05_14h20.49.721,multiplicationStroop,2021.2.3,Win32,59.75143403,,,,,,,,,,,,,,,,,,,,,,,,,,,,,,,,,8,1.9322,1,0,13,13,3,1,2,×,4,2 × 4,neutral,smallerFirst,1.5,1.5,8,,,,,,,,
,,,,,,,,,,,,,,,687,2022-02-05_14h20.49.721,multiplicationStroop,2021.2.3,Win32,59.75143403,,,,,,,,,,,,,,,,,,,,,,,,,,,,,,,,,63,3.881,1,0,14,14,12,1,7,×,9,7 × 9,neutral,smallerFirst,1.5,1.5,63,,,,,,,,
,,,,,,,,,,,,,,,687,2022-02-05_14h20.49.721,multiplicationStroop,2021.2.3,Win32,59.75143403,,,,,,,,,,,,,,,,,,,,,,,,,,,,,,,,,12,1.3432,1,0,15,15,25,1,6,×,2,6 × 2,neutral,largerFirst,1.5,1.5,12,,,,,,,,
,,,,,,,,,,,,,,,687,2022-02-05_14h20.49.721,multiplicationStroop,2021.2.3,Win32,59.75143403,,,,,,,,,,,,,,,,,,,,,,,,,,,,,,,,,30,1.8153,1,0,16,16,19,1,6,×,5,6 × 5,neutral,largerFirst,1.5,1.5,30,,,,,,,,
,,,,,,,,,,,,,,,687,2022-02-05_14h20.49.721,multiplicationStroop,2021.2.3,Win32,59.75143403,,,,,,,,,,,,,,,,,,,,,,,,,,,,,,,,,54,1.499,1,0,17,17,7,1,6,×,9,6 × 9,neutral,smallerFirst,1.5,1.5,54,,,,,,,,
,,,,,,,,,,,,,,,687,2022-02-05_14h20.49.721,multiplicationStroop,2021.2.3,Win32,59.75143403,,,,,,,,,,,,,,,,,,,,,,,,,,,,,,,,,49,1.4989,1,0,18,18,33,1,7,×,7,7 × 7,neutral,tie,1.5,1.5,49,,,,,,,,
,,,,,,,,,,,,,,,687,2022-02-05_14h20.49.721,multiplicationStroop,2021.2.3,Win32,59.75143403,,,,,,,,,,,,,,,,,,,,,,,,,,,,,,,,,40,1.4992,1,0,19,19,24,1,8,×,5,8 × 5,neutral,largerFirst,1.5,1.5,40,,,,,,,,
,,,,,,,,,,,,,,,687,2022-02-05_14h20.49.721,multiplicationStroop,2021.2.3,Win32,59.75143403,,,,,,,,,,,,,,,,,,,,,,,,,,,,,,,,,36,2.365,1,0,20,20,27,1,9,×,4,9 × 4,neutral,largerFirst,1.5,1.5,36,,,,,,,,
,,,,,,,,,,,,,,,687,2022-02-05_14h20.49.721,multiplicationStroop,2021.2.3,Win32,59.75143403,,,,,,,,,,,,,,,,,,,,,,,,,,,,,,,,,4,1.9154,0,0,21,21,15,1,8,×,6,8 × 6,neutral,largerFirst,1.5,1.5,48,,,,,,,,
,,,,,,,,,,,,,,,687,2022-02-05_14h20.49.721,multiplicationStroop,2021.2.3,Win32,59.75143403,,,,,,,,,,,,,,,,,,,,,,,,,,,,,,,,,16,1.7489,1,0,22,22,13,1,2,×,8,2 × 8,neutral,smallerFirst,1.5,1.5,16,,,,,,,,
,,,,,,,,,,,,,,,687,2022-02-05_14h20.49.721,multiplicationStroop,2021.2.3,Win32,59.75143403,,,,,,,,,,,,,,,,,,,,,,,,,,,,,,,,,10,1.4658,1,0,23,23,4,1,2,×,5,2 × 5,neutral,smallerFirst,1.5,1.5,10,,,,,,,,
,,,,,,,,,,,,,,,687,2022-02-05_14h20.49.721,multiplicationStroop,2021.2.3,Win32,59.75143403,,,,,,,,,,,,,,,,,,,,,,,,,,,,,,,,,81,1.4492,1,0,24,24,35,1,9,×,9,9 × 9,neutral,tie,1.5,1.5,81,,,,,,,,
,,,,,,,,,,,,,,,687,2022-02-05_14h20.49.721,multiplicationStroop,2021.2.3,Win32,59.75143403,,,,,,,,,,,,,,,,,,,,,,,,,,,,,,,,,28,2.0153,1,0,25,25,17,1,7,×,4,7 × 4,neutral,largerFirst,1.5,1.5,28,,,,,,,,
,,,,,,,,,,,,,,,687,2022-02-05_14h20.49.721,multiplicationStroop,2021.2.3,Win32,59.75143403,,,,,,,,,,,,,,,,,,,,,,,,,,,,,,,,,9,1.3156,1,0,26,26,29,1,3,×,3,3 × 3,neutral,tie,1.5,1.5,9,,,,,,,,
,,,,,,,,,,,,,,,687,2022-02-05_14h20.49.721,multiplicationStroop,2021.2.3,Win32,59.75143403,,,,,,,,,,,,,,,,,,,,,,,,,,,,,,,,,4,1.0992,1,0,27,27,28,1,2,×,2,2 × 2,neutral,tie,1.5,1.5,4,,,,,,,,
,,,,,,,,,,,,,,,687,2022-02-05_14h20.49.721,multiplicationStroop,2021.2.3,Win32,59.75143403,,,,,,,,,,,,,,,,,,,,,,,,,,,,,,,,,56,1.5822,1,0,28,28,9,1,7,×,8,7 × 8,neutral,smallerFirst,1.5,1.5,56,,,,,,,,
,,,,,,,,,,,,,,,687,2022-02-05_14h20.49.721,multiplicationStroop,2021.2.3,Win32,59.75143403,,,,,,,,,,,,,,,,,,,,,,,,,,,,,,,,,20,1.5822,1,0,29,29,20,1,5,×,4,5 × 4,neutral,largerFirst,1.5,1.5,20,,,,,,,,
,,,,,,,,,,,,,,,687,2022-02-05_14h20.49.721,multiplicationStroop,2021.2.3,Win32,59.75143403,,,,,,,,,,,,,,,,,,,,,,,,,,,,,,,,,64,1.8488,1,0,30,30,34,1,8,×,8,8 × 8,neutral,tie,1.5,1.5,64,,,,,,,,
,,,,,,,,,,,,,,,687,2022-02-05_14h20.49.721,multiplicationStroop,2021.2.3,Win32,59.75143403,,,,,,,,,,,,,,,,,,,,,,,,,,,,,,,,,18,2.0655,1,0,31,31,0,1,3,×,6,3 × 6,neutral,smallerFirst,1.5,1.5,18,,,,,,,,
,,,,,,,,,,,,,,,687,2022-02-05_14h20.49.721,multiplicationStroop,2021.2.3,Win32,59.75143403,,,,,,,,,,,,,,,,,,,,,,,,,,,,,,,,,14,1.4489,1,0,32,32,16,1,7,×,2,7 × 2,neutral,largerFirst,1.5,1.5,14,,,,,,,,
,,,,,,,,,,,,,,,687,2022-02-05_14h20.49.721,multiplicationStroop,2021.2.3,Win32,59.75143403,,,,,,,,,,,,,,,,,,,,,,,,,,,,,,,,,48,2.4819,0,0,33,33,6,1,6,×,7,6 × 7,neutral,smallerFirst,1.5,1.5,42,,,,,,,,
,,,,,,,,,,,,,,,687,2022-02-05_14h20.49.721,multiplicationStroop,2021.2.3,Win32,59.75143403,,,,,,,,,,,,,,,,,,,,,,,,,,,,,,,,,45,1.7488,1,0,34,34,10,1,5,×,9,5 × 9,neutral,smallerFirst,1.5,1.5,45,,,,,,,,
,,,,,,,,,,,,,,,687,2022-02-05_14h20.49.721,multiplicationStroop,2021.2.3,Win32,59.75143403,,,,,,,,,,,,,,,,,,,,,,,,,,,,,,,,,12,1.3824,1,0,35,35,21,1,4,×,3,4 × 3,neutral,largerFirst,1.5,1.5,12,,,,,,,,
,,,,,,,,,,,,,,,687,2022-02-05_14h20.49.721,multiplicationStroop,2021.2.3,Win32,59.75143403,,,,,,,,,,,,,,,,,,,,,,,,,,,,,,,,,,,,,,,,,,,,,,,,,,0,5,5,1,1,stimulusFile/mult_blk2.xlsx,,
,,,,,,,,,,,,,,,687,2022-02-05_14h20.49.721,multiplicationStroop,2021.2.3,Win32,59.75143403,,,,,,,,,,,,,,,,,,,,,,,,,,,,,,,,,,,,,,,,,,,,,,,,,,,,,,,,space,2.5958