welcomeKey_resp.keys,welcomeKey_resp.rt,X Scale,Y Scale,rt_resp_4.keys,rt_resp_4.corr,rt_resp_4.rt,speedtest_2.thisRepN,speedtest_2.thisTrialN,speedtest_2.thisN,speedtest_2.thisIndex,speedtest_2.ran,numberSc,posX,positionLayout,participant,date,expName,psychopyVersion,OS,frameRate,ct_instrresp.keys,ct_instrresp.rt,key_resp_2.keys,key_resp_2.rt,ct_keyResp.keys,ct_keyResp.corr,ct_keyResp.rt,trials.thisRepN,trials.thisTrialN,trials.thisN,trials.thisIndex,trials.ran,leftNo,rightNo,displayProblem,numDistance,leftNo_size,rightNo_size,Dims,keyAnswer,TS_Loop.thisRepN,TS_Loop.thisTrialN,TS_Loop.thisN,TS_Loop.thisIndex,TS_Loop.ran,Condition,ActionInst,instrImage,mltptaskInst_resp.keys,mltptaskInst_resp.rt,continue_resp_2.keys,continue_resp_2.rt,multp_Answer,multi_RT,multiplyCorr,LoopingMultiply.thisRepN,LoopingMultiply.thisTrialN,LoopingMultiply.thisN,LoopingMultiply.thisIndex,LoopingMultiply.ran,factor1,multiplySign,factor2,multliplyProblem,physicalSize,orderOperand,sizeF1,sizeF2,mult_answer,trials_stroop.thisRepN,trials_stroop.thisTrialN,trials_stroop.thisN,trials_stroop.thisIndex,trials_stroop.ran,multiplicationFile,esckey_resp_2.keys,esckey_resp_2.rt
y,7.2607,44.4,45.1,right,1,0.9139,0,0,0,9,1,2,200,right,689,2022-02-03_09h31.14.351,multiplicationStroop,2021.2.3,Win32,59.94844434,,,,,,,,,,,,,,,,,,,,,,,,,,,,,,,,,,,,,,,,,,,,,,,,,,,,,,,,,
,,,,left,1,1.4689,0,1,1,7,1,9,-200,left,689,2022-02-03_09h31.14.351,multiplicationStroop,2021.2.3,Win32,59.94844434,,,,,,,,,,,,,,,,,,,,,,,,,,,,,,,,,,,,,,,,,,,,,,,,,,,,,,,,,
,,,,right,1,0.3959,0,2,2,14,1,8,200,right,689,2022-02-03_09h31.14.351,multiplicationStroop,2021.2.3,Win32,59.94844434,,,,,,,,,,,,,,,,,,,,,,,,,,,,,,,,,,,,,,,,,,,,,,,,,,,,,,,,,
,,,,right,1,0.4945,0,3,3,10,1,3,200,right,689,2022-02-03_09h31.14.351,multiplicationStroop,2021.2.3,Win32,59.94844434,,,,,,,,,,,,,,,,,,,,,,,,,,,,,,,,,,,,,,,,,,,,,,,,,,,,,,,,,
,,,,right,1,0.4025,0,4,4,11,1,4,200,right,689,2022-02-03_09h31.14.351,multiplicationStroop,2021.2.3,Win32,59.94844434,,,,,,,,,,,,,,,,,,,,,,,,,,,,,,,,,,,,,,,,,,,,,,,,,,,,,,,,,
,,,,left,1,0.3458,0,5,5,4,1,6,-200,left,689,2022-02-03_09h31.14.351,multiplicationStroop,2021.2.3,Win32,59.94844434,,,,,,,,,,,,,,,,,,,,,,,,,,,,,,,,,,,,,,,,,,,,,,,,,,,,,,,,,
,,,,left,1,0.3635,0,6,6,6,1,8,-200,left,689,2022-02-03_09h31.14.351,multiplicationStroop,2021.2.3,Win32,59.94844434,,,,,,,,,,,,,,,,,,,,,,,,,,,,,,,,,,,,,,,,,,,,,,,,,,,,,,,,,
,,,,left,1,0.3421,0,7,7,3,1,4,-200,left,689,2022-02-03_09h31.14.351,multiplicationStroop,2021.2.3,Win32,59.94844434,,,,,,,,,,,,,,,,,,,,,,,,,,,,,,,,,,,,,,,,,,,,,,,,,,,,,,,,,
,,,,left,1,0.3252,0,8,8,2,1,3,-200,left,689,2022-02-03_09h31.14.351,multiplicationStroop,2021.2.3,Win32,59.94844434,,,,,,,,,,,,,,,,,,,,,,,,,,,,,,,,,,,,,,,,,,,,,,,,,,,,,,,,,
,,,,left,1,0.3138,0,9,9,1,1,2,-200,left,689,2022-02-03_09h31.14.351,multiplicationStroop,2021.2.3,Win32,59.94844434,,,,,,,,,,,,,,,,,,,,,,,,,,,,,,,,,,,,,,,,,,,,,,,,,,,,,,,,,
,,,,right,1,0.3816,0,10,10,12,1,6,200,right,689,2022-02-03_09h31.14.351,multiplicationStroop,2021.2.3,Win32,59.94844434,,,,,,,,,,,,,,,,,,,,,,,,,,,,,,,,,,,,,,,,,,,,,,,,,,,,,,,,,
,,,,right,1,0.3462,0,11,11,13,1,7,200,right,689,2022-02-03_09h31.14.351,multiplicationStroop,2021.2.3,Win32,59.94844434,,,,,,,,,,,,,,,,,,,,,,,,,,,,,,,,,,,,,,,,,,,,,,,,,,,,,,,,,
,,,,left,1,0.3218,0,12,12,5,1,7,-200,left,689,2022-02-03_09h31.14.351,multiplicationStroop,2021.2.3,Win32,59.94844434,,,,,,,,,,,,,,,,,,,,,,,,,,,,,,,,,,,,,,,,,,,,,,,,,,,,,,,,,
,,,,right,1,0.321,0,13,13,15,1,9,200,right,689,2022-02-03_09h31.14.351,multiplicationStroop,2021.2.3,Win32,59.94844434,,,,,,,,,,,,,,,,,,,,,,,,,,,,,,,,,,,,,,,,,,,,,,,,,,,,,,,,,
,,,,right,1,0.3505,0,14,14,8,1,1,200,right,689,2022-02-03_09h31.14.351,multiplicationStroop,2021.2.3,Win32,59.94844434,,,,,,,,,,,,,,,,,,,,,,,,,,,,,,,,,,,,,,,,,,,,,,,,,,,,,,,,,
,,,,left,1,0.3376,0,15,15,0,1,1,-200,left,689,2022-02-03_09h31.14.351,multiplicationStroop,2021.2.3,Win32,59.94844434,,,,,,,,,,,,,,,,,,,,,,,,,,,,,,,,,,,,,,,,,,,,,,,,,,,,,,,,,
,,,,right,1,0.2683,1,0,16,10,1,3,200,right,689,2022-02-03_09h31.14.351,multiplicationStroop,2021.2.3,Win32,59.94844434,,,,,,,,,,,,,,,,,,,,,,,,,,,,,,,,,,,,,,,,,,,,,,,,,,,,,,,,,
,,,,right,1,0.3634,1,1,17,15,1,9,200,right,689,2022-02-03_09h31.14.351,multiplicationStroop,2021.2.3,Win32,59.94844434,,,,,,,,,,,,,,,,,,,,,,,,,,,,,,,,,,,,,,,,,,,,,,,,,,,,,,,,,
,,,,left,1,0.3965,1,2,18,6,1,8,-200,left,689,2022-02-03_09h31.14.351,multiplicationStroop,2021.2.3,Win32,59.94844434,,,,,,,,,,,,,,,,,,,,,,,,,,,,,,,,,,,,,,,,,,,,,,,,,,,,,,,,,
,,,,right,1,0.3017,1,3,19,13,1,7,200,right,689,2022-02-03_09h31.14.351,multiplicationStroop,2021.2.3,Win32,59.94844434,,,,,,,,,,,,,,,,,,,,,,,,,,,,,,,,,,,,,,,,,,,,,,,,,,,,,,,,,
,,,,left,1,0.3483,1,4,20,1,1,2,-200,left,689,2022-02-03_09h31.14.351,multiplicationStroop,2021.2.3,Win32,59.94844434,,,,,,,,,,,,,,,,,,,,,,,,,,,,,,,,,,,,,,,,,,,,,,,,,,,,,,,,,
,,,,left,1,0.4703,1,5,21,4,1,6,-200,left,689,2022-02-03_09h31.14.351,multiplicationStroop,2021.2.3,Win32,59.94844434,,,,,,,,,,,,,,,,,,,,,,,,,,,,,,,,,,,,,,,,,,,,,,,,,,,,,,,,,
,,,,right,1,0.318,1,6,22,12,1,6,200,right,689,2022-02-03_09h31.14.351,multiplicationStroop,2021.2.3,Win32,59.94844434,,,,,,,,,,,,,,,,,,,,,,,,,,,,,,,,,,,,,,,,,,,,,,,,,,,,,,,,,
,,,,right,1,0.4726,1,7,23,11,1,4,200,right,689,2022-02-03_09h31.14.351,multiplicationStroop,2021.2.3,Win32,59.94844434,,,,,,,,,,,,,,,,,,,,,,,,,,,,,,,,,,,,,,,,,,,,,,,,,,,,,,,,,
,,,,left,1,0.6297,1,8,24,2,1,3,-200,left,689,2022-02-03_09h31.14.351,multiplicationStroop,2021.2.3,Win32,59.94844434,,,,,,,,,,,,,,,,,,,,,,,,,,,,,,,,,,,,,,,,,,,,,,,,,,,,,,,,,
,,,,right,1,0.3494,1,9,25,14,1,8,200,right,689,2022-02-03_09h31.14.351,multiplicationStroop,2021.2.3,Win32,59.94844434,,,,,,,,,,,,,,,,,,,,,,,,,,,,,,,,,,,,,,,,,,,,,,,,,,,,,,,,,
,,,,left,1,0.3541,1,10,26,7,1,9,-200,left,689,2022-02-03_09h31.14.351,multiplicationStroop,2021.2.3,Win32,59.94844434,,,,,,,,,,,,,,,,,,,,,,,,,,,,,,,,,,,,,,,,,,,,,,,,,,,,,,,,,
,,,,right,1,0.3359,1,11,27,9,1,2,200,right,689,2022-02-03_09h31.14.351,multiplicationStroop,2021.2.3,Win32,59.94844434,,,,,,,,,,,,,,,,,,,,,,,,,,,,,,,,,,,,,,,,,,,,,,,,,,,,,,,,,
,,,,left,1,0.3358,1,12,28,0,1,1,-200,left,689,2022-02-03_09h31.14.351,multiplicationStroop,2021.2.3,Win32,59.94844434,,,,,,,,,,,,,,,,,,,,,,,,,,,,,,,,,,,,,,,,,,,,,,,,,,,,,,,,,
,,,,right,1,0.2692,1,13,29,8,1,1,200,right,689,2022-02-03_09h31.14.351,multiplicationStroop,2021.2.3,Win32,59.94844434,,,,,,,,,,,,,,,,,,,,,,,,,,,,,,,,,,,,,,,,,,,,,,,,,,,,,,,,,
,,,,left,1,0.2294,1,14,30,5,1,7,-200,left,689,2022-02-03_09h31.14.351,multiplicationStroop,2021.2.3,Win32,59.94844434,,,,,,,,,,,,,,,,,,,,,,,,,,,,,,,,,,,,,,,,,,,,,,,,,,,,,,,,,
,,,,right,0,0.2807,1,15,31,3,1,4,-200,left,689,2022-02-03_09h31.14.351,multiplicationStroop,2021.2.3,Win32,59.94844434,,,,,,,,,,,,,,,,,,,,,,,,,,,,,,,,,,,,,,,,,,,,,,,,,,,,,,,,,
,,,,left,1,0.6219,2,0,32,7,1,9,-200,left,689,2022-02-03_09h31.14.351,multiplicationStroop,2021.2.3,Win32,59.94844434,,,,,,,,,,,,,,,,,,,,,,,,,,,,,,,,,,,,,,,,,,,,,,,,,,,,,,,,,
,,,,right,1,0.3613,2,1,33,11,1,4,200,right,689,2022-02-03_09h31.14.351,multiplicationStroop,2021.2.3,Win32,59.94844434,,,,,,,,,,,,,,,,,,,,,,,,,,,,,,,,,,,,,,,,,,,,,,,,,,,,,,,,,
,,,,right,1,0.3419,2,2,34,9,1,2,200,right,689,2022-02-03_09h31.14.351,multiplicationStroop,2021.2.3,Win32,59.94844434,,,,,,,,,,,,,,,,,,,,,,,,,,,,,,,,,,,,,,,,,,,,,,,,,,,,,,,,,
,,,,left,1,0.3653,2,3,35,0,1,1,-200,left,689,2022-02-03_09h31.14.351,multiplicationStroop,2021.2.3,Win32,59.94844434,,,,,,,,,,,,,,,,,,,,,,,,,,,,,,,,,,,,,,,,,,,,,,,,,,,,,,,,,
,,,,right,1,0.2958,2,4,36,14,1,8,200,right,689,2022-02-03_09h31.14.351,multiplicationStroop,2021.2.3,Win32,59.94844434,,,,,,,,,,,,,,,,,,,,,,,,,,,,,,,,,,,,,,,,,,,,,,,,,,,,,,,,,
,,,,right,1,0.3661,2,5,37,13,1,7,200,right,689,2022-02-03_09h31.14.351,multiplicationStroop,2021.2.3,Win32,59.94844434,,,,,,,,,,,,,,,,,,,,,,,,,,,,,,,,,,,,,,,,,,,,,,,,,,,,,,,,,
,,,,right,1,0.3296,2,6,38,10,1,3,200,right,689,2022-02-03_09h31.14.351,multiplicationStroop,2021.2.3,Win32,59.94844434,,,,,,,,,,,,,,,,,,,,,,,,,,,,,,,,,,,,,,,,,,,,,,,,,,,,,,,,,
,,,,left,1,0.3815,2,7,39,6,1,8,-200,left,689,2022-02-03_09h31.14.351,multiplicationStroop,2021.2.3,Win32,59.94844434,,,,,,,,,,,,,,,,,,,,,,,,,,,,,,,,,,,,,,,,,,,,,,,,,,,,,,,,,
,,,,left,1,0.3456,2,8,40,2,1,3,-200,left,689,2022-02-03_09h31.14.351,multiplicationStroop,2021.2.3,Win32,59.94844434,,,,,,,,,,,,,,,,,,,,,,,,,,,,,,,,,,,,,,,,,,,,,,,,,,,,,,,,,
,,,,right,1,0.3625,2,9,41,8,1,1,200,right,689,2022-02-03_09h31.14.351,multiplicationStroop,2021.2.3,Win32,59.94844434,,,,,,,,,,,,,,,,,,,,,,,,,,,,,,,,,,,,,,,,,,,,,,,,,,,,,,,,,
,,,,left,1,0.3641,2,10,42,3,1,4,-200,left,689,2022-02-03_09h31.14.351,multiplicationStroop,2021.2.3,Win32,59.94844434,,,,,,,,,,,,,,,,,,,,,,,,,,,,,,,,,,,,,,,,,,,,,,,,,,,,,,,,,
,,,,right,1,0.3262,2,11,43,12,1,6,200,right,689,2022-02-03_09h31.14.351,multiplicationStroop,2021.2.3,Win32,59.94844434,,,,,,,,,,,,,,,,,,,,,,,,,,,,,,,,,,,,,,,,,,,,,,,,,,,,,,,,,
,,,,right,1,0.3638,2,12,44,15,1,9,200,right,689,2022-02-03_09h31.14.351,multiplicationStroop,2021.2.3,Win32,59.94844434,,,,,,,,,,,,,,,,,,,,,,,,,,,,,,,,,,,,,,,,,,,,,,,,,,,,,,,,,
,,,,left,1,0.3739,2,13,45,1,1,2,-200,left,689,2022-02-03_09h31.14.351,multiplicationStroop,2021.2.3,Win32,59.94844434,,,,,,,,,,,,,,,,,,,,,,,,,,,,,,,,,,,,,,,,,,,,,,,,,,,,,,,,,
,,,,left,1,0.3404,2,14,46,5,1,7,-200,left,689,2022-02-03_09h31.14.351,multiplicationStroop,2021.2.3,Win32,59.94844434,,,,,,,,,,,,,,,,,,,,,,,,,,,,,,,,,,,,,,,,,,,,,,,,,,,,,,,,,
,,,,left,1,0.4388,2,15,47,4,1,6,-200,left,689,2022-02-03_09h31.14.351,multiplicationStroop,2021.2.3,Win32,59.94844434,,,,,,,,,,,,,,,,,,,,,,,,,,,,,,,,,,,,,,,,,,,,,,,,,,,,,,,,,
,,,,right,1,0.3867,3,0,48,14,1,8,200,right,689,2022-02-03_09h31.14.351,multiplicationStroop,2021.2.3,Win32,59.94844434,,,,,,,,,,,,,,,,,,,,,,,,,,,,,,,,,,,,,,,,,,,,,,,,,,,,,,,,,
,,,,left,1,0.3969,3,1,49,1,1,2,-200,left,689,2022-02-03_09h31.14.351,multiplicationStroop,2021.2.3,Win32,59.94844434,,,,,,,,,,,,,,,,,,,,,,,,,,,,,,,,,,,,,,,,,,,,,,,,,,,,,,,,,
,,,,right,1,0.3088,3,2,50,8,1,1,200,right,689,2022-02-03_09h31.14.351,multiplicationStroop,2021.2.3,Win32,59.94844434,,,,,,,,,,,,,,,,,,,,,,,,,,,,,,,,,,,,,,,,,,,,,,,,,,,,,,,,,
,,,,left,1,0.3217,3,3,51,5,1,7,-200,left,689,2022-02-03_09h31.14.351,multiplicationStroop,2021.2.3,Win32,59.94844434,,,,,,,,,,,,,,,,,,,,,,,,,,,,,,,,,,,,,,,,,,,,,,,,,,,,,,,,,
,,,,left,1,0.3718,3,4,52,6,1,8,-200,left,689,2022-02-03_09h31.14.351,multiplicationStroop,2021.2.3,Win32,59.94844434,,,,,,,,,,,,,,,,,,,,,,,,,,,,,,,,,,,,,,,,,,,,,,,,,,,,,,,,,
,,,,right,1,0.3653,3,5,53,11,1,4,200,right,689,2022-02-03_09h31.14.351,multiplicationStroop,2021.2.3,Win32,59.94844434,,,,,,,,,,,,,,,,,,,,,,,,,,,,,,,,,,,,,,,,,,,,,,,,,,,,,,,,,
,,,,left,1,0.29,3,6,54,4,1,6,-200,left,689,2022-02-03_09h31.14.351,multiplicationStroop,2021.2.3,Win32,59.94844434,,,,,,,,,,,,,,,,,,,,,,,,,,,,,,,,,,,,,,,,,,,,,,,,,,,,,,,,,
,,,,right,1,0.2794,3,7,55,13,1,7,200,right,689,2022-02-03_09h31.14.351,multiplicationStroop,2021.2.3,Win32,59.94844434,,,,,,,,,,,,,,,,,,,,,,,,,,,,,,,,,,,,,,,,,,,,,,,,,,,,,,,,,
,,,,right,1,0.365,3,8,56,12,1,6,200,right,689,2022-02-03_09h31.14.351,multiplicationStroop,2021.2.3,Win32,59.94844434,,,,,,,,,,,,,,,,,,,,,,,,,,,,,,,,,,,,,,,,,,,,,,,,,,,,,,,,,
,,,,right,1,0.3478,3,9,57,15,1,9,200,right,689,2022-02-03_09h31.14.351,multiplicationStroop,2021.2.3,Win32,59.94844434,,,,,,,,,,,,,,,,,,,,,,,,,,,,,,,,,,,,,,,,,,,,,,,,,,,,,,,,,
,,,,left,1,0.3629,3,10,58,0,1,1,-200,left,689,2022-02-03_09h31.14.351,multiplicationStroop,2021.2.3,Win32,59.94844434,,,,,,,,,,,,,,,,,,,,,,,,,,,,,,,,,,,,,,,,,,,,,,,,,,,,,,,,,
,,,,right,1,0.296,3,11,59,10,1,3,200,right,689,2022-02-03_09h31.14.351,multiplicationStroop,2021.2.3,Win32,59.94844434,,,,,,,,,,,,,,,,,,,,,,,,,,,,,,,,,,,,,,,,,,,,,,,,,,,,,,,,,
,,,,left,1,0.3685,3,12,60,3,1,4,-200,left,689,2022-02-03_09h31.14.351,multiplicationStroop,2021.2.3,Win32,59.94844434,,,,,,,,,,,,,,,,,,,,,,,,,,,,,,,,,,,,,,,,,,,,,,,,,,,,,,,,,
,,,,right,1,0.2624,3,13,61,9,1,2,200,right,689,2022-02-03_09h31.14.351,multiplicationStroop,2021.2.3,Win32,59.94844434,,,,,,,,,,,,,,,,,,,,,,,,,,,,,,,,,,,,,,,,,,,,,,,,,,,,,,,,,
,,,,left,1,0.2459,3,14,62,7,1,9,-200,left,689,2022-02-03_09h31.14.351,multiplicationStroop,2021.2.3,Win32,59.94844434,,,,,,,,,,,,,,,,,,,,,,,,,,,,,,,,,,,,,,,,,,,,,,,,,,,,,,,,,
,,,,left,1,0.3603,3,15,63,2,1,3,-200,left,689,2022-02-03_09h31.14.351,multiplicationStroop,2021.2.3,Win32,59.94844434,,,,,,,,,,,,,,,,,,,,,,,,,,,,,,,,,,,,,,,,,,,,,,,,,,,,,,,,,
,,,,,,,,,,,,,,,689,2022-02-03_09h31.14.351,multiplicationStroop,2021.2.3,Win32,59.94844434,space,16.3865,space,7.1727,right,1,0.8997,0,0,0,0,1,1,2,1 | 2,1,1.4111,1.9756,congruent,right,,,,,,stimulusFile/physical.xlsx,,,,,,,,,,,,,,,,,,,,,,,,,,,,,,,
,,,,,,,,,,,,,,,689,2022-02-03_09h31.14.351,multiplicationStroop,2021.2.3,Win32,59.94844434,,,,,left,1,0.6137,0,1,1,12,1,3,1,3 | 1,2,1.9756,1.4111,congruent,left,,,,,,stimulusFile/physical.xlsx,,,,,,,,,,,,,,,,,,,,,,,,,,,,,,,
,,,,,,,,,,,,,,,689,2022-02-03_09h31.14.351,multiplicationStroop,2021.2.3,Win32,59.94844434,,,,,right,1,0.7382,0,2,2,28,1,2,1,2 | 1,1,1.4111,1.9756,incongruent,right,,,,,,stimulusFile/physical.xlsx,,,,,,,,,,,,,,,,,,,,,,,,,,,,,,,
,,,,,,,,,,,,,,,689,2022-02-03_09h31.14.351,multiplicationStroop,2021.2.3,Win32,59.94844434,,,,,left,1,0.6328,0,3,3,54,1,7,7,7 | 7,0,1.9756,1.4111,neutral,left,,,,,,stimulusFile/physical.xlsx,,,,,,,,,,,,,,,,,,,,,,,,,,,,,,,
,,,,,,,,,,,,,,,689,2022-02-03_09h31.14.351,multiplicationStroop,2021.2.3,Win32,59.94844434,,,,,right,1,0.5679,0,4,4,58,1,6,6,6 | 6,0,1.4111,1.9756,neutral,right,,,,,,stimulusFile/physical.xlsx,,,,,,,,,,,,,,,,,,,,,,,,,,,,,,,
,,,,,,,,,,,,,,,689,2022-02-03_09h31.14.351,multiplicationStroop,2021.2.3,Win32,59.94844434,,,,,right,1,0.519,0,5,5,63,1,9,9,9 | 9,0,1.4111,1.9756,neutral,right,,,,,,stimulusFile/physical.xlsx,,,,,,,,,,,,,,,,,,,,,,,,,,,,,,,
,,,,,,,,,,,,,,,689,2022-02-03_09h31.14.351,multiplicationStroop,2021.2.3,Win32,59.94844434,,,,,left,1,0.5079,0,6,6,42,1,3,8,3 | 8,5,1.9756,1.4111,incongruent,left,,,,,,stimulusFile/physical.xlsx,,,,,,,,,,,,,,,,,,,,,,,,,,,,,,,
,,,,,,,,,,,,,,,689,2022-02-03_09h31.14.351,multiplicationStroop,2021.2.3,Win32,59.94844434,,,,,right,1,0.547,0,7,7,10,1,6,8,6 | 8,2,1.4111,1.9756,congruent,right,,,,,,stimulusFile/physical.xlsx,,,,,,,,,,,,,,,,,,,,,,,,,,,,,,,
,,,,,,,,,,,,,,,689,2022-02-03_09h31.14.351,multiplicationStroop,2021.2.3,Win32,59.94844434,,,,,left,1,0.5256,0,8,8,4,1,2,1,2 | 1,1,1.9756,1.4111,congruent,left,,,,,,stimulusFile/physical.xlsx,,,,,,,,,,,,,,,,,,,,,,,,,,,,,,,
,,,,,,,,,,,,,,,689,2022-02-03_09h31.14.351,multiplicationStroop,2021.2.3,Win32,59.94844434,,,,,right,1,0.4843,0,9,9,17,1,2,7,2 | 7,5,1.4111,1.9756,congruent,right,,,,,,stimulusFile/physical.xlsx,,,,,,,,,,,,,,,,,,,,,,,,,,,,,,,
,,,,,,,,,,,,,,,689,2022-02-03_09h31.14.351,multiplicationStroop,2021.2.3,Win32,59.94844434,,,,,left,1,0.4875,0,10,10,20,1,6,1,6 | 1,5,1.9756,1.4111,congruent,left,,,,,,stimulusFile/physical.xlsx,,,,,,,,,,,,,,,,,,,,,,,,,,,,,,,
,,,,,,,,,,,,,,,689,2022-02-03_09h31.14.351,multiplicationStroop,2021.2.3,Win32,59.94844434,,,,,left,1,0.5753,0,11,11,34,1,6,8,6 | 8,2,1.9756,1.4111,incongruent,left,,,,,,stimulusFile/physical.xlsx,,,,,,,,,,,,,,,,,,,,,,,,,,,,,,,
,,,,,,,,,,,,,,,689,2022-02-03_09h31.14.351,multiplicationStroop,2021.2.3,Win32,59.94844434,,,,,right,0,0.4826,0,12,12,71,1,9,9,9 | 9,0,1.4111,1.9756,neutral,left,,,,,,stimulusFile/physical.xlsx,,,,,,,,,,,,,,,,,,,,,,,,,,,,,,,
,,,,,,,,,,,,,,,689,2022-02-03_09h31.14.351,multiplicationStroop,2021.2.3,Win32,59.94844434,,,,,right,1,0.6758,0,13,13,1,1,3,4,3 | 4,1,1.4111,1.9756,congruent,right,,,,,,stimulusFile/physical.xlsx,,,,,,,,,,,,,,,,,,,,,,,,,,,,,,,
,,,,,,,,,,,,,,,689,2022-02-03_09h31.14.351,multiplicationStroop,2021.2.3,Win32,59.94844434,,,,,left,1,0.503,0,14,14,48,1,1,1,1 | 1,0,1.9756,1.4111,neutral,left,,,,,,stimulusFile/physical.xlsx,,,,,,,,,,,,,,,,,,,,,,,,,,,,,,,
,,,,,,,,,,,,,,,689,2022-02-03_09h31.14.351,multiplicationStroop,2021.2.3,Win32,59.94844434,,,,,left,1,0.8852,0,15,15,70,1,8,8,8 | 8,0,1.9756,1.4111,neutral,left,,,,,,stimulusFile/physical.xlsx,,,,,,,,,,,,,,,,,,,,,,,,,,,,,,,
,,,,,,,,,,,,,,,689,2022-02-03_09h31.14.351,multiplicationStroop,2021.2.3,Win32,59.94844434,,,,,right,1,0.6545,0,16,16,45,1,7,2,7 | 2,5,1.4111,1.9756,incongruent,right,,,,,,stimulusFile/physical.xlsx,,,,,,,,,,,,,,,,,,,,,,,,,,,,,,,
,,,,,,,,,,,,,,,689,2022-02-03_09h31.14.351,multiplicationStroop,2021.2.3,Win32,59.94844434,,,,,right,1,0.6967,0,17,17,60,1,3,3,3 | 3,0,1.4111,1.9756,neutral,right,,,,,,stimulusFile/physical.xlsx,,,,,,,,,,,,,,,,,,,,,,,,,,,,,,,
,,,,,,,,,,,,,,,689,2022-02-03_09h31.14.351,multiplicationStroop,2021.2.3,Win32,59.94844434,,,,,left,1,0.864,0,18,18,25,1,3,4,3 | 4,1,1.9756,1.4111,incongruent,left,,,,,,stimulusFile/physical.xlsx,,,,,,,,,,,,,,,,,,,,,,,,,,,,,,,
,,,,,,,,,,,,,,,689,2022-02-03_09h31.14.351,multiplicationStroop,2021.2.3,Win32,59.94844434,,,,,right,1,0.5421,0,19,19,2,1,6,7,6 | 7,1,1.4111,1.9756,congruent,right,,,,,,stimulusFile/physical.xlsx,,,,,,,,,,,,,,,,,,,,,,,,,,,,,,,
,,,,,,,,,,,,,,,689,2022-02-03_09h31.14.351,multiplicationStroop,2021.2.3,Win32,59.94844434,,,,,left,1,0.9978,0,20,20,27,1,8,9,8 | 9,1,1.9756,1.4111,incongruent,left,,,,,,stimulusFile/physical.xlsx,,,,,,,,,,,,,,,,,,,,,,,,,,,,,,,
,,,,,,,,,,,,,,,689,2022-02-03_09h31.14.351,multiplicationStroop,2021.2.3,Win32,59.94844434,,,,,left,1,0.9007,0,21,21,6,1,7,6,7 | 6,1,1.9756,1.4111,congruent,left,,,,,,stimulusFile/physical.xlsx,,,,,,,,,,,,,,,,,,,,,,,,,,,,,,,
,,,,,,,,,,,,,,,689,2022-02-03_09h31.14.351,multiplicationStroop,2021.2.3,Win32,59.94844434,,,,,left,1,1.0103,0,22,22,13,1,4,2,4 | 2,2,1.9756,1.4111,congruent,left,,,,,,stimulusFile/physical.xlsx,,,,,,,,,,,,,,,,,,,,,,,,,,,,,,,
,,,,,,,,,,,,,,,689,2022-02-03_09h31.14.351,multiplicationStroop,2021.2.3,Win32,59.94844434,,,,,left,1,0.7876,0,23,23,14,1,8,6,8 | 6,2,1.9756,1.4111,congruent,left,,,,,,stimulusFile/physical.xlsx,,,,,,,,,,,,,,,,,,,,,,,,,,,,,,,
,,,,,,,,,,,,,,,689,2022-02-03_09h31.14.351,multiplicationStroop,2021.2.3,Win32,59.94844434,,,,,right,0,0.6673,0,24,24,40,1,1,6,1 | 6,5,1.9756,1.4111,incongruent,left,,,,,,stimulusFile/physical.xlsx,,,,,,,,,,,,,,,,,,,,,,,,,,,,,,,
,,,,,,,,,,,,,,,689,2022-02-03_09h31.14.351,multiplicationStroop,2021.2.3,Win32,59.94844434,,,,,right,1,1.2943,0,25,25,18,1,3,8,3 | 8,5,1.4111,1.9756,congruent,right,,,,,,stimulusFile/physical.xlsx,,,,,,,,,,,,,,,,,,,,,,,,,,,,,,,
,,,,,,,,,,,,,,,689,2022-02-03_09h31.14.351,multiplicationStroop,2021.2.3,Win32,59.94844434,,,,,left,1,0.6893,0,26,26,7,1,9,8,9 | 8,1,1.9756,1.4111,congruent,left,,,,,,stimulusFile/physical.xlsx,,,,,,,,,,,,,,,,,,,,,,,,,,,,,,,
,,,,,,,,,,,,,,,689,2022-02-03_09h31.14.351,multiplicationStroop,2021.2.3,Win32,59.94844434,,,,,right,1,0.8096,0,27,27,37,1,4,2,4 | 2,2,1.4111,1.9756,incongruent,right,,,,,,stimulusFile/physical.xlsx,,,,,,,,,,,,,,,,,,,,,,,,,,,,,,,
,,,,,,,,,,,,,,,689,2022-02-03_09h31.14.351,multiplicationStroop,2021.2.3,Win32,59.94844434,,,,,left,1,0.5952,0,28,28,21,1,7,2,7 | 2,5,1.9756,1.4111,congruent,left,,,,,,stimulusFile/physical.xlsx,,,,,,,,,,,,,,,,,,,,,,,,,,,,,,,
,,,,,,,,,,,,,,,689,2022-02-03_09h31.14.351,multiplicationStroop,2021.2.3,Win32,59.94844434,,,,,left,1,0.5923,0,29,29,22,1,8,3,8 | 3,5,1.9756,1.4111,congruent,left,,,,,,stimulusFile/physical.xlsx,,,,,,,,,,,,,,,,,,,,,,,,,,,,,,,
,,,,,,,,,,,,,,,689,2022-02-03_09h31.14.351,multiplicationStroop,2021.2.3,Win32,59.94844434,,,,,left,1,0.6661,0,30,30,53,1,4,4,4 | 4,0,1.9756,1.4111,neutral,left,,,,,,stimulusFile/physical.xlsx,,,,,,,,,,,,,,,,,,,,,,,,,,,,,,,
,,,,,,,,,,,,,,,689,2022-02-03_09h31.14.351,multiplicationStroop,2021.2.3,Win32,59.94844434,,,,,right,1,0.6706,0,31,31,57,1,2,2,2 | 2,0,1.4111,1.9756,neutral,right,,,,,,stimulusFile/physical.xlsx,,,,,,,,,,,,,,,,,,,,,,,,,,,,,,,
,,,,,,,,,,,,,,,689,2022-02-03_09h31.14.351,multiplicationStroop,2021.2.3,Win32,59.94844434,,,,,left,1,0.5459,0,32,32,23,1,9,4,9 | 4,5,1.9756,1.4111,congruent,left,,,,,,stimulusFile/physical.xlsx,,,,,,,,,,,,,,,,,,,,,,,,,,,,,,,
,,,,,,,,,,,,,,,689,2022-02-03_09h31.14.351,multiplicationStroop,2021.2.3,Win32,59.94844434,,,,,right,1,0.5492,0,33,33,67,1,4,4,4 | 4,0,1.4111,1.9756,neutral,right,,,,,,stimulusFile/physical.xlsx,,,,,,,,,,,,,,,,,,,,,,,,,,,,,,,
,,,,,,,,,,,,,,,689,2022-02-03_09h31.14.351,multiplicationStroop,2021.2.3,Win32,59.94844434,,,,,left,1,0.5925,0,34,34,68,1,6,6,6 | 6,0,1.9756,1.4111,neutral,left,,,,,,stimulusFile/physical.xlsx,,,,,,,,,,,,,,,,,,,,,,,,,,,,,,,
,,,,,,,,,,,,,,,689,2022-02-03_09h31.14.351,multiplicationStroop,2021.2.3,Win32,59.94844434,,,,,left,1,0.9627,0,35,35,26,1,6,7,6 | 7,1,1.9756,1.4111,incongruent,left,,,,,,stimulusFile/physical.xlsx,,,,,,,,,,,,,,,,,,,,,,,,,,,,,,,
,,,,,,,,,,,,,,,689,2022-02-03_09h31.14.351,multiplicationStroop,2021.2.3,Win32,59.94844434,,,,,right,1,0.6655,0,36,36,46,1,8,3,8 | 3,5,1.4111,1.9756,incongruent,right,,,,,,stimulusFile/physical.xlsx,,,,,,,,,,,,,,,,,,,,,,,,,,,,,,,
,,,,,,,,,,,,,,,689,2022-02-03_09h31.14.351,multiplicationStroop,2021.2.3,Win32,59.94844434,,,,,right,1,0.6295,0,37,37,11,1,7,9,7 | 9,2,1.4111,1.9756,congruent,right,,,,,,stimulusFile/physical.xlsx,,,,,,,,,,,,,,,,,,,,,,,,,,,,,,,
,,,,,,,,,,,,,,,689,2022-02-03_09h31.14.351,multiplicationStroop,2021.2.3,Win32,59.94844434,,,,,left,1,0.5938,0,38,38,55,1,9,9,9 | 9,0,1.9756,1.4111,neutral,left,,,,,,stimulusFile/physical.xlsx,,,,,,,,,,,,,,,,,,,,,,,,,,,,,,,
,,,,,,,,,,,,,,,689,2022-02-03_09h31.14.351,multiplicationStroop,2021.2.3,Win32,59.94844434,,,,,left,1,1.1259,0,39,39,41,1,2,7,2 | 7,5,1.9756,1.4111,incongruent,left,,,,,,stimulusFile/physical.xlsx,,,,,,,,,,,,,,,,,,,,,,,,,,,,,,,
,,,,,,,,,,,,,,,689,2022-02-03_09h31.14.351,multiplicationStroop,2021.2.3,Win32,59.94844434,,,,,right,1,0.564,0,40,40,44,1,6,1,6 | 1,5,1.4111,1.9756,incongruent,right,,,,,,stimulusFile/physical.xlsx,,,,,,,,,,,,,,,,,,,,,,,,,,,,,,,
,,,,,,,,,,,,,,,689,2022-02-03_09h31.14.351,multiplicationStroop,2021.2.3,Win32,59.94844434,,,,,left,1,0.7528,0,41,41,50,1,6,6,6 | 6,0,1.9756,1.4111,neutral,left,,,,,,stimulusFile/physical.xlsx,,,,,,,,,,,,,,,,,,,,,,,,,,,,,,,
,,,,,,,,,,,,,,,689,2022-02-03_09h31.14.351,multiplicationStroop,2021.2.3,Win32,59.94844434,,,,,right,1,0.4746,0,42,42,62,1,8,8,8 | 8,0,1.4111,1.9756,neutral,right,,,,,,stimulusFile/physical.xlsx,,,,,,,,,,,,,,,,,,,,,,,,,,,,,,,
,,,,,,,,,,,,,,,689,2022-02-03_09h31.14.351,multiplicationStroop,2021.2.3,Win32,59.94844434,,,,,right,1,0.6023,0,43,43,29,1,4,3,4 | 3,1,1.4111,1.9756,incongruent,right,,,,,,stimulusFile/physical.xlsx,,,,,,,,,,,,,,,,,,,,,,,,,,,,,,,
,,,,,,,,,,,,,,,689,2022-02-03_09h31.14.351,multiplicationStroop,2021.2.3,Win32,59.94844434,,,,,right,1,0.5637,0,44,44,16,1,1,6,1 | 6,5,1.4111,1.9756,congruent,right,,,,,,stimulusFile/physical.xlsx,,,,,,,,,,,,,,,,,,,,,,,,,,,,,,,
,,,,,,,,,,,,,,,689,2022-02-03_09h31.14.351,multiplicationStroop,2021.2.3,Win32,59.94844434,,,,,right,1,0.5025,0,45,45,30,1,7,6,7 | 6,1,1.4111,1.9756,incongruent,right,,,,,,stimulusFile/physical.xlsx,,,,,,,,,,,,,,,,,,,,,,,,,,,,,,,
,,,,,,,,,,,,,,,689,2022-02-03_09h31.14.351,multiplicationStroop,2021.2.3,Win32,59.94844434,,,,,left,1,0.5271,0,46,46,52,1,2,2,2 | 2,0,1.9756,1.4111,neutral,left,,,,,,stimulusFile/physical.xlsx,,,,,,,,,,,,,,,,,,,,,,,,,,,,,,,
,,,,,,,,,,,,,,,689,2022-02-03_09h31.14.351,multiplicationStroop,2021.2.3,Win32,59.94844434,,,,,left,1,0.8658,0,47,47,43,1,4,9,4 | 9,5,1.9756,1.4111,incongruent,left,,,,,,stimulusFile/physical.xlsx,,,,,,,,,,,,,,,,,,,,,,,,,,,,,,,
,,,,,,,,,,,,,,,689,2022-02-03_09h31.14.351,multiplicationStroop,2021.2.3,Win32,59.94844434,,,,,right,0,0.5106,0,48,48,69,1,7,7,7 | 7,0,1.4111,1.9756,neutral,left,,,,,,stimulusFile/physical.xlsx,,,,,,,,,,,,,,,,,,,,,,,,,,,,,,,
,,,,,,,,,,,,,,,689,2022-02-03_09h31.14.351,multiplicationStroop,2021.2.3,Win32,59.94844434,,,,,right,1,0.4834,0,49,49,59,1,7,7,7 | 7,0,1.4111,1.9756,neutral,right,,,,,,stimulusFile/physical.xlsx,,,,,,,,,,,,,,,,,,,,,,,,,,,,,,,
,,,,,,,,,,,,,,,689,2022-02-03_09h31.14.351,multiplicationStroop,2021.2.3,Win32,59.94844434,,,,,left,1,0.5483,0,50,50,33,1,2,4,2 | 4,2,1.9756,1.4111,incongruent,left,,,,,,stimulusFile/physical.xlsx,,,,,,,,,,,,,,,,,,,,,,,,,,,,,,,
,,,,,,,,,,,,,,,689,2022-02-03_09h31.14.351,multiplicationStroop,2021.2.3,Win32,59.94844434,,,,,right,1,0.4753,0,51,51,8,1,1,3,1 | 3,2,1.4111,1.9756,congruent,right,,,,,,stimulusFile/physical.xlsx,,,,,,,,,,,,,,,,,,,,,,,,,,,,,,,
,,,,,,,,,,,,,,,689,2022-02-03_09h31.14.351,multiplicationStroop,2021.2.3,Win32,59.94844434,,,,,left,1,0.5063,0,52,52,49,1,3,3,3 | 3,0,1.9756,1.4111,neutral,left,,,,,,stimulusFile/physical.xlsx,,,,,,,,,,,,,,,,,,,,,,,,,,,,,,,
,,,,,,,,,,,,,,,689,2022-02-03_09h31.14.351,multiplicationStroop,2021.2.3,Win32,59.94844434,,,,,right,1,0.4791,0,53,53,65,1,2,2,2 | 2,0,1.4111,1.9756,neutral,right,,,,,,stimulusFile/physical.xlsx,,,,,,,,,,,,,,,,,,,,,,,,,,,,,,,
,,,,,,,,,,,,,,,689,2022-02-03_09h31.14.351,multiplicationStroop,2021.2.3,Win32,59.94844434,,,,,right,1,0.5563,0,54,54,39,1,9,7,9 | 7,2,1.4111,1.9756,incongruent,right,,,,,,stimulusFile/physical.xlsx,,,,,,,,,,,,,,,,,,,,,,,,,,,,,,,
,,,,,,,,,,,,,,,689,2022-02-03_09h31.14.351,multiplicationStroop,2021.2.3,Win32,59.94844434,,,,,right,1,0.8807,0,55,55,61,1,4,4,4 | 4,0,1.4111,1.9756,neutral,right,,,,,,stimulusFile/physical.xlsx,,,,,,,,,,,,,,,,,,,,,,,,,,,,,,,
,,,,,,,,,,,,,,,689,2022-02-03_09h31.14.351,multiplicationStroop,2021.2.3,Win32,59.94844434,,,,,left,0,1.0578,0,56,56,66,1,3,3,3 | 3,0,1.9756,1.4111,neutral,right,,,,,,stimulusFile/physical.xlsx,,,,,,,,,,,,,,,,,,,,,,,,,,,,,,,
,,,,,,,,,,,,,,,689,2022-02-03_09h31.14.351,multiplicationStroop,2021.2.3,Win32,59.94844434,,,,,left,0,0.598,0,57,57,64,1,1,1,1 | 1,0,1.9756,1.4111,neutral,right,,,,,,stimulusFile/physical.xlsx,,,,,,,,,,,,,,,,,,,,,,,,,,,,,,,
,,,,,,,,,,,,,,,689,2022-02-03_09h31.14.351,multiplicationStroop,2021.2.3,Win32,59.94844434,,,,,right,1,0.5443,0,58,58,31,1,9,8,9 | 8,1,1.4111,1.9756,incongruent,right,,,,,,stimulusFile/physical.xlsx,,,,,,,,,,,,,,,,,,,,,,,,,,,,,,,
,,,,,,,,,,,,,,,689,2022-02-03_09h31.14.351,multiplicationStroop,2021.2.3,Win32,59.94844434,,,,,right,1,0.717,0,59,59,47,1,9,4,9 | 4,5,1.4111,1.9756,incongruent,right,,,,,,stimulusFile/physical.xlsx,,,,,,,,,,,,,,,,,,,,,,,,,,,,,,,
,,,,,,,,,,,,,,,689,2022-02-03_09h31.14.351,multiplicationStroop,2021.2.3,Win32,59.94844434,,,,,right,1,0.5801,0,60,60,3,1,8,9,8 | 9,1,1.4111,1.9756,congruent,right,,,,,,stimulusFile/physical.xlsx,,,,,,,,,,,,,,,,,,,,,,,,,,,,,,,
,,,,,,,,,,,,,,,689,2022-02-03_09h31.14.351,multiplicationStroop,2021.2.3,Win32,59.94844434,,,,,right,1,0.5849,0,61,61,38,1,8,6,8 | 6,2,1.4111,1.9756,incongruent,right,,,,,,stimulusFile/physical.xlsx,,,,,,,,,,,,,,,,,,,,,,,,,,,,,,,
,,,,,,,,,,,,,,,689,2022-02-03_09h31.14.351,multiplicationStroop,2021.2.3,Win32,59.94844434,,,,,left,1,0.5676,0,62,62,5,1,4,3,4 | 3,1,1.9756,1.4111,congruent,left,,,,,,stimulusFile/physical.xlsx,,,,,,,,,,,,,,,,,,,,,,,,,,,,,,,
,,,,,,,,,,,,,,,689,2022-02-03_09h31.14.351,multiplicationStroop,2021.2.3,Win32,59.94844434,,,,,right,1,0.5368,0,63,63,9,1,2,4,2 | 4,2,1.4111,1.9756,congruent,right,,,,,,stimulusFile/physical.xlsx,,,,,,,,,,,,,,,,,,,,,,,,,,,,,,,
,,,,,,,,,,,,,,,689,2022-02-03_09h31.14.351,multiplicationStroop,2021.2.3,Win32,59.94844434,,,,,right,1,0.6266,0,64,64,19,1,4,9,4 | 9,5,1.4111,1.9756,congruent,right,,,,,,stimulusFile/physical.xlsx,,,,,,,,,,,,,,,,,,,,,,,,,,,,,,,
,,,,,,,,,,,,,,,689,2022-02-03_09h31.14.351,multiplicationStroop,2021.2.3,Win32,59.94844434,,,,,left,1,0.6006,0,65,65,35,1,7,9,7 | 9,2,1.9756,1.4111,incongruent,left,,,,,,stimulusFile/physical.xlsx,,,,,,,,,,,,,,,,,,,,,,,,,,,,,,,
,,,,,,,,,,,,,,,689,2022-02-03_09h31.14.351,multiplicationStroop,2021.2.3,Win32,59.94844434,,,,,right,1,0.61,0,66,66,56,1,1,1,1 | 1,0,1.4111,1.9756,neutral,right,,,,,,stimulusFile/physical.xlsx,,,,,,,,,,,,,,,,,,,,,,,,,,,,,,,
,,,,,,,,,,,,,,,689,2022-02-03_09h31.14.351,multiplicationStroop,2021.2.3,Win32,59.94844434,,,,,right,1,1.2824,0,67,67,36,1,3,1,3 | 1,2,1.4111,1.9756,incongruent,right,,,,,,stimulusFile/physical.xlsx,,,,,,,,,,,,,,,,,,,,,,,,,,,,,,,
,,,,,,,,,,,,,,,689,2022-02-03_09h31.14.351,multiplicationStroop,2021.2.3,Win32,59.94844434,,,,,left,1,0.64,0,68,68,24,1,1,2,1 | 2,1,1.9756,1.4111,incongruent,left,,,,,,stimulusFile/physical.xlsx,,,,,,,,,,,,,,,,,,,,,,,,,,,,,,,
,,,,,,,,,,,,,,,689,2022-02-03_09h31.14.351,multiplicationStroop,2021.2.3,Win32,59.94844434,,,,,left,1,1.2916,0,69,69,51,1,8,8,8 | 8,0,1.9756,1.4111,neutral,left,,,,,,stimulusFile/physical.xlsx,,,,,,,,,,,,,,,,,,,,,,,,,,,,,,,
,,,,,,,,,,,,,,,689,2022-02-03_09h31.14.351,multiplicationStroop,2021.2.3,Win32,59.94844434,,,,,left,1,0.8803,0,70,70,32,1,1,3,1 | 3,2,1.9756,1.4111,incongruent,left,,,,,,stimulusFile/physical.xlsx,,,,,,,,,,,,,,,,,,,,,,,,,,,,,,,
,,,,,,,,,,,,,,,689,2022-02-03_09h31.14.351,multiplicationStroop,2021.2.3,Win32,59.94844434,,,,,left,1,0.7471,0,71,71,15,1,9,7,9 | 7,2,1.9756,1.4111,congruent,left,,,,,,stimulusFile/physical.xlsx,,,,,,,,,,,,,,,,,,,,,,,,,,,,,,,
,,,,,,,,,,,,,,,689,2022-02-03_09h31.14.351,multiplicationStroop,2021.2.3,Win32,59.94844434,,,,,,,,,,,,,,,,,,,,,0,0,0,1,1,stimulusFile/physical.xlsx,PHYSICALLY larger (larger font size).,images/physicallyLarger.png,,,,,,,,,,,,,,,,,,,,,,,,,,,,,
,,,,,,,,,,,,,,,689,2022-02-03_09h31.14.351,multiplicationStroop,2021.2.3,Win32,59.94844434,space,6.3466,space,3.9561,right,1,1.2906,0,0,0,42,1,3,8,3 | 8,5,1.9756,1.4111,incongruent,right,,,,,,stimulusFile/magnitude.xlsx,,,,,,,,,,,,,,,,,,,,,,,,,,,,,,,
,,,,,,,,,,,,,,,689,2022-02-03_09h31.14.351,multiplicationStroop,2021.2.3,Win32,59.94844434,,,,,left,1,1.133,0,1,1,5,1,4,3,4 | 3,1,1.9756,1.4111,congruent,left,,,,,,stimulusFile/magnitude.xlsx,,,,,,,,,,,,,,,,,,,,,,,,,,,,,,,
,,,,,,,,,,,,,,,689,2022-02-03_09h31.14.351,multiplicationStroop,2021.2.3,Win32,59.94844434,,,,,left,1,0.7704,0,2,2,53,1,4,3,4 | 3,1,1.6933,1.6933,neutral,left,,,,,,stimulusFile/magnitude.xlsx,,,,,,,,,,,,,,,,,,,,,,,,,,,,,,,
,,,,,,,,,,,,,,,689,2022-02-03_09h31.14.351,multiplicationStroop,2021.2.3,Win32,59.94844434,,,,,right,1,0.8086,0,3,3,34,1,6,8,6 | 8,2,1.9756,1.4111,incongruent,right,,,,,,stimulusFile/magnitude.xlsx,,,,,,,,,,,,,,,,,,,,,,,,,,,,,,,
,,,,,,,,,,,,,,,689,2022-02-03_09h31.14.351,multiplicationStroop,2021.2.3,Win32,59.94844434,,,,,left,1,1.0331,0,4,4,14,1,8,6,8 | 6,2,1.9756,1.4111,congruent,left,,,,,,stimulusFile/magnitude.xlsx,,,,,,,,,,,,,,,,,,,,,,,,,,,,,,,
,,,,,,,,,,,,,,,689,2022-02-03_09h31.14.351,multiplicationStroop,2021.2.3,Win32,59.94844434,,,,,right,1,0.7108,0,5,5,11,1,7,9,7 | 9,2,1.4111,1.9756,congruent,right,,,,,,stimulusFile/magnitude.xlsx,,,,,,,,,,,,,,,,,,,,,,,,,,,,,,,
,,,,,,,,,,,,,,,689,2022-02-03_09h31.14.351,multiplicationStroop,2021.2.3,Win32,59.94844434,,,,,right,1,0.8069,0,6,6,26,1,6,7,6 | 7,1,1.9756,1.4111,incongruent,right,,,,,,stimulusFile/magnitude.xlsx,,,,,,,,,,,,,,,,,,,,,,,,,,,,,,,
,,,,,,,,,,,,,,,689,2022-02-03_09h31.14.351,multiplicationStroop,2021.2.3,Win32,59.94844434,,,,,right,1,0.6609,0,7,7,16,1,1,6,1 | 6,5,1.4111,1.9756,congruent,right,,,,,,stimulusFile/magnitude.xlsx,,,,,,,,,,,,,,,,,,,,,,,,,,,,,,,
,,,,,,,,,,,,,,,689,2022-02-03_09h31.14.351,multiplicationStroop,2021.2.3,Win32,59.94844434,,,,,right,1,0.5947,0,8,8,40,1,1,6,1 | 6,5,1.9756,1.4111,incongruent,right,,,,,,stimulusFile/magnitude.xlsx,,,,,,,,,,,,,,,,,,,,,,,,,,,,,,,
,,,,,,,,,,,,,,,689,2022-02-03_09h31.14.351,multiplicationStroop,2021.2.3,Win32,59.94844434,,,,,left,1,0.8831,0,9,9,69,1,7,2,7 | 2,5,1.6933,1.6933,neutral,left,,,,,,stimulusFile/magnitude.xlsx,,,,,,,,,,,,,,,,,,,,,,,,,,,,,,,
,,,,,,,,,,,,,,,689,2022-02-03_09h31.14.351,multiplicationStroop,2021.2.3,Win32,59.94844434,,,,,left,1,1.1783,0,10,10,38,1,8,6,8 | 6,2,1.4111,1.9756,incongruent,left,,,,,,stimulusFile/magnitude.xlsx,,,,,,,,,,,,,,,,,,,,,,,,,,,,,,,
,,,,,,,,,,,,,,,689,2022-02-03_09h31.14.351,multiplicationStroop,2021.2.3,Win32,59.94844434,,,,,left,1,0.7396,0,11,11,22,1,8,3,8 | 3,5,1.9756,1.4111,congruent,left,,,,,,stimulusFile/magnitude.xlsx,,,,,,,,,,,,,,,,,,,,,,,,,,,,,,,
,,,,,,,,,,,,,,,689,2022-02-03_09h31.14.351,multiplicationStroop,2021.2.3,Win32,59.94844434,,,,,left,1,0.6282,0,12,12,12,1,3,1,3 | 1,2,1.9756,1.4111,congruent,left,,,,,,stimulusFile/magnitude.xlsx,,,,,,,,,,,,,,,,,,,,,,,,,,,,,,,
,,,,,,,,,,,,,,,689,2022-02-03_09h31.14.351,multiplicationStroop,2021.2.3,Win32,59.94844434,,,,,left,1,0.5502,0,13,13,20,1,6,1,6 | 1,5,1.9756,1.4111,congruent,left,,,,,,stimulusFile/magnitude.xlsx,,,,,,,,,,,,,,,,,,,,,,,,,,,,,,,
,,,,,,,,,,,,,,,689,2022-02-03_09h31.14.351,multiplicationStroop,2021.2.3,Win32,59.94844434,,,,,left,1,0.952,0,14,14,29,1,4,3,4 | 3,1,1.4111,1.9756,incongruent,left,,,,,,stimulusFile/magnitude.xlsx,,,,,,,,,,,,,,,,,,,,,,,,,,,,,,,
,,,,,,,,,,,,,,,689,2022-02-03_09h31.14.351,multiplicationStroop,2021.2.3,Win32,59.94844434,,,,,left,1,0.9879,0,15,15,7,1,9,8,9 | 8,1,1.9756,1.4111,congruent,left,,,,,,stimulusFile/magnitude.xlsx,,,,,,,,,,,,,,,,,,,,,,,,,,,,,,,
,,,,,,,,,,,,,,,689,2022-02-03_09h31.14.351,multiplicationStroop,2021.2.3,Win32,59.94844434,,,,,left,1,0.5666,0,16,16,23,1,9,4,9 | 4,5,1.9756,1.4111,congruent,left,,,,,,stimulusFile/magnitude.xlsx,,,,,,,,,,,,,,,,,,,,,,,,,,,,,,,
,,,,,,,,,,,,,,,689,2022-02-03_09h31.14.351,multiplicationStroop,2021.2.3,Win32,59.94844434,,,,,right,1,0.7563,0,17,17,3,1,8,9,8 | 9,1,1.4111,1.9756,congruent,right,,,,,,stimulusFile/magnitude.xlsx,,,,,,,,,,,,,,,,,,,,,,,,,,,,,,,
,,,,,,,,,,,,,,,689,2022-02-03_09h31.14.351,multiplicationStroop,2021.2.3,Win32,59.94844434,,,,,right,1,0.9071,0,18,18,32,1,1,3,1 | 3,2,1.9756,1.4111,incongruent,right,,,,,,stimulusFile/magnitude.xlsx,,,,,,,,,,,,,,,,,,,,,,,,,,,,,,,
,,,,,,,,,,,,,,,689,2022-02-03_09h31.14.351,multiplicationStroop,2021.2.3,Win32,59.94844434,,,,,right,1,0.6583,0,19,19,59,1,7,9,7 | 9,2,1.6933,1.6933,neutral,right,,,,,,stimulusFile/magnitude.xlsx,,,,,,,,,,,,,,,,,,,,,,,,,,,,,,,
,,,,,,,,,,,,,,,689,2022-02-03_09h31.14.351,multiplicationStroop,2021.2.3,Win32,59.94844434,,,,,left,1,1.0874,0,20,20,31,1,9,8,9 | 8,1,1.4111,1.9756,incongruent,left,,,,,,stimulusFile/magnitude.xlsx,,,,,,,,,,,,,,,,,,,,,,,,,,,,,,,
,,,,,,,,,,,,,,,689,2022-02-03_09h31.14.351,multiplicationStroop,2021.2.3,Win32,59.94844434,,,,,right,1,0.6383,0,21,21,43,1,4,9,4 | 9,5,1.9756,1.4111,incongruent,right,,,,,,stimulusFile/magnitude.xlsx,,,,,,,,,,,,,,,,,,,,,,,,,,,,,,,
,,,,,,,,,,,,,,,689,2022-02-03_09h31.14.351,multiplicationStroop,2021.2.3,Win32,59.94844434,,,,,right,1,0.7775,0,22,22,57,1,2,4,2 | 4,2,1.6933,1.6933,neutral,right,,,,,,stimulusFile/magnitude.xlsx,,,,,,,,,,,,,,,,,,,,,,,,,,,,,,,
,,,,,,,,,,,,,,,689,2022-02-03_09h31.14.351,multiplicationStroop,2021.2.3,Win32,59.94844434,,,,,right,1,0.7523,0,23,23,41,1,2,7,2 | 7,5,1.9756,1.4111,incongruent,right,,,,,,stimulusFile/magnitude.xlsx,,,,,,,,,,,,,,,,,,,,,,,,,,,,,,,
,,,,,,,,,,,,,,,689,2022-02-03_09h31.14.351,multiplicationStroop,2021.2.3,Win32,59.94844434,,,,,left,1,0.9282,0,24,24,71,1,9,4,9 | 4,5,1.6933,1.6933,neutral,left,,,,,,stimulusFile/magnitude.xlsx,,,,,,,,,,,,,,,,,,,,,,,,,,,,,,,
,,,,,,,,,,,,,,,689,2022-02-03_09h31.14.351,multiplicationStroop,2021.2.3,Win32,59.94844434,,,,,left,1,0.8954,0,25,25,60,1,3,1,3 | 1,2,1.6933,1.6933,neutral,left,,,,,,stimulusFile/magnitude.xlsx,,,,,,,,,,,,,,,,,,,,,,,,,,,,,,,
,,,,,,,,,,,,,,,689,2022-02-03_09h31.14.351,multiplicationStroop,2021.2.3,Win32,59.94844434,,,,,left,1,0.8098,0,26,26,45,1,7,2,7 | 2,5,1.4111,1.9756,incongruent,left,,,,,,stimulusFile/magnitude.xlsx,,,,,,,,,,,,,,,,,,,,,,,,,,,,,,,
,,,,,,,,,,,,,,,689,2022-02-03_09h31.14.351,multiplicationStroop,2021.2.3,Win32,59.94844434,,,,,right,1,0.6832,0,27,27,10,1,6,8,6 | 8,2,1.4111,1.9756,congruent,right,,,,,,stimulusFile/magnitude.xlsx,,,,,,,,,,,,,,,,,,,,,,,,,,,,,,,
,,,,,,,,,,,,,,,689,2022-02-03_09h31.14.351,multiplicationStroop,2021.2.3,Win32,59.94844434,,,,,left,1,0.7536,0,28,28,37,1,4,2,4 | 2,2,1.4111,1.9756,incongruent,left,,,,,,stimulusFile/magnitude.xlsx,,,,,,,,,,,,,,,,,,,,,,,,,,,,,,,
,,,,,,,,,,,,,,,689,2022-02-03_09h31.14.351,multiplicationStroop,2021.2.3,Win32,59.94844434,,,,,right,1,0.6594,0,29,29,9,1,2,4,2 | 4,2,1.4111,1.9756,congruent,right,,,,,,stimulusFile/magnitude.xlsx,,,,,,,,,,,,,,,,,,,,,,,,,,,,,,,
,,,,,,,,,,,,,,,689,2022-02-03_09h31.14.351,multiplicationStroop,2021.2.3,Win32,59.94844434,,,,,left,1,0.6838,0,30,30,21,1,7,2,7 | 2,5,1.9756,1.4111,congruent,left,,,,,,stimulusFile/magnitude.xlsx,,,,,,,,,,,,,,,,,,,,,,,,,,,,,,,
,,,,,,,,,,,,,,,689,2022-02-03_09h31.14.351,multiplicationStroop,2021.2.3,Win32,59.94844434,,,,,left,1,0.8204,0,31,31,68,1,6,1,6 | 1,5,1.6933,1.6933,neutral,left,,,,,,stimulusFile/magnitude.xlsx,,,,,,,,,,,,,,,,,,,,,,,,,,,,,,,
,,,,,,,,,,,,,,,689,2022-02-03_09h31.14.351,multiplicationStroop,2021.2.3,Win32,59.94844434,,,,,left,1,0.884,0,32,32,4,1,2,1,2 | 1,1,1.9756,1.4111,congruent,left,,,,,,stimulusFile/magnitude.xlsx,,,,,,,,,,,,,,,,,,,,,,,,,,,,,,,
,,,,,,,,,,,,,,,689,2022-02-03_09h31.14.351,multiplicationStroop,2021.2.3,Win32,59.94844434,,,,,left,1,0.6951,0,33,33,61,1,4,2,4 | 2,2,1.6933,1.6933,neutral,left,,,,,,stimulusFile/magnitude.xlsx,,,,,,,,,,,,,,,,,,,,,,,,,,,,,,,
,,,,,,,,,,,,,,,689,2022-02-03_09h31.14.351,multiplicationStroop,2021.2.3,Win32,59.94844434,,,,,left,1,0.6102,0,34,34,70,1,8,3,8 | 3,5,1.6933,1.6933,neutral,left,,,,,,stimulusFile/magnitude.xlsx,,,,,,,,,,,,,,,,,,,,,,,,,,,,,,,
,,,,,,,,,,,,,,,689,2022-02-03_09h31.14.351,multiplicationStroop,2021.2.3,Win32,59.94844434,,,,,right,1,0.5723,0,35,35,17,1,2,7,2 | 7,5,1.4111,1.9756,congruent,right,,,,,,stimulusFile/magnitude.xlsx,,,,,,,,,,,,,,,,,,,,,,,,,,,,,,,
,,,,,,,,,,,,,,,689,2022-02-03_09h31.14.351,multiplicationStroop,2021.2.3,Win32,59.94844434,,,,,right,1,0.6413,0,36,36,48,1,1,2,1 | 2,1,1.6933,1.6933,neutral,right,,,,,,stimulusFile/magnitude.xlsx,,,,,,,,,,,,,,,,,,,,,,,,,,,,,,,
,,,,,,,,,,,,,,,689,2022-02-03_09h31.14.351,multiplicationStroop,2021.2.3,Win32,59.94844434,,,,,left,1,0.9168,0,37,37,30,1,7,6,7 | 6,1,1.4111,1.9756,incongruent,left,,,,,,stimulusFile/magnitude.xlsx,,,,,,,,,,,,,,,,,,,,,,,,,,,,,,,
,,,,,,,,,,,,,,,689,2022-02-03_09h31.14.351,multiplicationStroop,2021.2.3,Win32,59.94844434,,,,,left,1,1.0097,0,38,38,44,1,6,1,6 | 1,5,1.4111,1.9756,incongruent,left,,,,,,stimulusFile/magnitude.xlsx,,,,,,,,,,,,,,,,,,,,,,,,,,,,,,,
,,,,,,,,,,,,,,,689,2022-02-03_09h31.14.351,multiplicationStroop,2021.2.3,Win32,59.94844434,,,,,right,1,0.6368,0,39,39,65,1,2,7,2 | 7,5,1.6933,1.6933,neutral,right,,,,,,stimulusFile/magnitude.xlsx,,,,,,,,,,,,,,,,,,,,,,,,,,,,,,,
,,,,,,,,,,,,,,,689,2022-02-03_09h31.14.351,multiplicationStroop,2021.2.3,Win32,59.94844434,,,,,right,1,0.9393,0,40,40,49,1,3,4,3 | 4,1,1.6933,1.6933,neutral,right,,,,,,stimulusFile/magnitude.xlsx,,,,,,,,,,,,,,,,,,,,,,,,,,,,,,,
,,,,,,,,,,,,,,,689,2022-02-03_09h31.14.351,multiplicationStroop,2021.2.3,Win32,59.94844434,,,,,left,1,0.5588,0,41,41,52,1,2,1,2 | 1,1,1.6933,1.6933,neutral,left,,,,,,stimulusFile/magnitude.xlsx,,,,,,,,,,,,,,,,,,,,,,,,,,,,,,,
,,,,,,,,,,,,,,,689,2022-02-03_09h31.14.351,multiplicationStroop,2021.2.3,Win32,59.94844434,,,,,right,1,0.7526,0,42,42,35,1,7,9,7 | 9,2,1.9756,1.4111,incongruent,right,,,,,,stimulusFile/magnitude.xlsx,,,,,,,,,,,,,,,,,,,,,,,,,,,,,,,
,,,,,,,,,,,,,,,689,2022-02-03_09h31.14.351,multiplicationStroop,2021.2.3,Win32,59.94844434,,,,,right,1,0.7632,0,43,43,56,1,1,3,1 | 3,2,1.6933,1.6933,neutral,right,,,,,,stimulusFile/magnitude.xlsx,,,,,,,,,,,,,,,,,,,,,,,,,,,,,,,
,,,,,,,,,,,,,,,689,2022-02-03_09h31.14.351,multiplicationStroop,2021.2.3,Win32,59.94844434,,,,,right,1,0.7714,0,44,44,50,1,6,7,6 | 7,1,1.6933,1.6933,neutral,right,,,,,,stimulusFile/magnitude.xlsx,,,,,,,,,,,,,,,,,,,,,,,,,,,,,,,
,,,,,,,,,,,,,,,689,2022-02-03_09h31.14.351,multiplicationStroop,2021.2.3,Win32,59.94844434,,,,,right,1,0.8563,0,45,45,24,1,1,2,1 | 2,1,1.9756,1.4111,incongruent,right,,,,,,stimulusFile/magnitude.xlsx,,,,,,,,,,,,,,,,,,,,,,,,,,,,,,,
,,,,,,,,,,,,,,,689,2022-02-03_09h31.14.351,multiplicationStroop,2021.2.3,Win32,59.94844434,,,,,right,1,0.6267,0,46,46,64,1,1,6,1 | 6,5,1.6933,1.6933,neutral,right,,,,,,stimulusFile/magnitude.xlsx,,,,,,,,,,,,,,,,,,,,,,,,,,,,,,,
,,,,,,,,,,,,,,,689,2022-02-03_09h31.14.351,multiplicationStroop,2021.2.3,Win32,59.94844434,,,,,right,1,0.6857,0,47,47,25,1,3,4,3 | 4,1,1.9756,1.4111,incongruent,right,,,,,,stimulusFile/magnitude.xlsx,,,,,,,,,,,,,,,,,,,,,,,,,,,,,,,
,,,,,,,,,,,,,,,689,2022-02-03_09h31.14.351,multiplicationStroop,2021.2.3,Win32,59.94844434,,,,,right,1,0.5507,0,48,48,1,1,3,4,3 | 4,1,1.4111,1.9756,congruent,right,,,,,,stimulusFile/magnitude.xlsx,,,,,,,,,,,,,,,,,,,,,,,,,,,,,,,
,,,,,,,,,,,,,,,689,2022-02-03_09h31.14.351,multiplicationStroop,2021.2.3,Win32,59.94844434,,,,,right,0,0.573,0,49,49,63,1,9,7,9 | 7,2,1.6933,1.6933,neutral,left,,,,,,stimulusFile/magnitude.xlsx,,,,,,,,,,,,,,,,,,,,,,,,,,,,,,,
,,,,,,,,,,,,,,,689,2022-02-03_09h31.14.351,multiplicationStroop,2021.2.3,Win32,59.94844434,,,,,left,1,0.8082,0,50,50,28,1,2,1,2 | 1,1,1.4111,1.9756,incongruent,left,,,,,,stimulusFile/magnitude.xlsx,,,,,,,,,,,,,,,,,,,,,,,,,,,,,,,
,,,,,,,,,,,,,,,689,2022-02-03_09h31.14.351,multiplicationStroop,2021.2.3,Win32,59.94844434,,,,,left,1,0.8826,0,51,51,46,1,8,3,8 | 3,5,1.4111,1.9756,incongruent,left,,,,,,stimulusFile/magnitude.xlsx,,,,,,,,,,,,,,,,,,,,,,,,,,,,,,,
,,,,,,,,,,,,,,,689,2022-02-03_09h31.14.351,multiplicationStroop,2021.2.3,Win32,59.94844434,,,,,left,1,0.9001,0,52,52,13,1,4,2,4 | 2,2,1.9756,1.4111,congruent,left,,,,,,stimulusFile/magnitude.xlsx,,,,,,,,,,,,,,,,,,,,,,,,,,,,,,,
,,,,,,,,,,,,,,,689,2022-02-03_09h31.14.351,multiplicationStroop,2021.2.3,Win32,59.94844434,,,,,right,1,0.6754,0,53,53,67,1,4,9,4 | 9,5,1.6933,1.6933,neutral,right,,,,,,stimulusFile/magnitude.xlsx,,,,,,,,,,,,,,,,,,,,,,,,,,,,,,,
,,,,,,,,,,,,,,,689,2022-02-03_09h31.14.351,multiplicationStroop,2021.2.3,Win32,59.94844434,,,,,right,1,0.6939,0,54,54,51,1,8,9,8 | 9,1,1.6933,1.6933,neutral,right,,,,,,stimulusFile/magnitude.xlsx,,,,,,,,,,,,,,,,,,,,,,,,,,,,,,,
,,,,,,,,,,,,,,,689,2022-02-03_09h31.14.351,multiplicationStroop,2021.2.3,Win32,59.94844434,,,,,left,1,0.8664,0,55,55,6,1,7,6,7 | 6,1,1.9756,1.4111,congruent,left,,,,,,stimulusFile/magnitude.xlsx,,,,,,,,,,,,,,,,,,,,,,,,,,,,,,,
,,,,,,,,,,,,,,,689,2022-02-03_09h31.14.351,multiplicationStroop,2021.2.3,Win32,59.94844434,,,,,right,1,0.6533,0,56,56,19,1,4,9,4 | 9,5,1.4111,1.9756,congruent,right,,,,,,stimulusFile/magnitude.xlsx,,,,,,,,,,,,,,,,,,,,,,,,,,,,,,,
,,,,,,,,,,,,,,,689,2022-02-03_09h31.14.351,multiplicationStroop,2021.2.3,Win32,59.94844434,,,,,left,1,1.2919,0,57,57,39,1,9,7,9 | 7,2,1.4111,1.9756,incongruent,left,,,,,,stimulusFile/magnitude.xlsx,,,,,,,,,,,,,,,,,,,,,,,,,,,,,,,
,,,,,,,,,,,,,,,689,2022-02-03_09h31.14.351,multiplicationStroop,2021.2.3,Win32,59.94844434,,,,,right,1,1.1694,0,58,58,27,1,8,9,8 | 9,1,1.9756,1.4111,incongruent,right,,,,,,stimulusFile/magnitude.xlsx,,,,,,,,,,,,,,,,,,,,,,,,,,,,,,,
,,,,,,,,,,,,,,,689,2022-02-03_09h31.14.351,multiplicationStroop,2021.2.3,Win32,59.94844434,,,,,right,1,0.7497,0,59,59,2,1,6,7,6 | 7,1,1.4111,1.9756,congruent,right,,,,,,stimulusFile/magnitude.xlsx,,,,,,,,,,,,,,,,,,,,,,,,,,,,,,,
,,,,,,,,,,,,,,,689,2022-02-03_09h31.14.351,multiplicationStroop,2021.2.3,Win32,59.94844434,,,,,right,1,0.8411,0,60,60,18,1,3,8,3 | 8,5,1.4111,1.9756,congruent,right,,,,,,stimulusFile/magnitude.xlsx,,,,,,,,,,,,,,,,,,,,,,,,,,,,,,,
,,,,,,,,,,,,,,,689,2022-02-03_09h31.14.351,multiplicationStroop,2021.2.3,Win32,59.94844434,,,,,left,1,0.8841,0,61,61,62,1,8,6,8 | 6,2,1.6933,1.6933,neutral,left,,,,,,stimulusFile/magnitude.xlsx,,,,,,,,,,,,,,,,,,,,,,,,,,,,,,,
,,,,,,,,,,,,,,,689,2022-02-03_09h31.14.351,multiplicationStroop,2021.2.3,Win32,59.94844434,,,,,left,1,1.2387,0,62,62,55,1,9,8,9 | 8,1,1.6933,1.6933,neutral,left,,,,,,stimulusFile/magnitude.xlsx,,,,,,,,,,,,,,,,,,,,,,,,,,,,,,,
,,,,,,,,,,,,,,,689,2022-02-03_09h31.14.351,multiplicationStroop,2021.2.3,Win32,59.94844434,,,,,right,1,0.6882,0,63,63,33,1,2,4,2 | 4,2,1.9756,1.4111,incongruent,right,,,,,,stimulusFile/magnitude.xlsx,,,,,,,,,,,,,,,,,,,,,,,,,,,,,,,
,,,,,,,,,,,,,,,689,2022-02-03_09h31.14.351,multiplicationStroop,2021.2.3,Win32,59.94844434,,,,,left,1,1.0776,0,64,64,15,1,9,7,9 | 7,2,1.9756,1.4111,congruent,left,,,,,,stimulusFile/magnitude.xlsx,,,,,,,,,,,,,,,,,,,,,,,,,,,,,,,
,,,,,,,,,,,,,,,689,2022-02-03_09h31.14.351,multiplicationStroop,2021.2.3,Win32,59.94844434,,,,,left,1,0.7256,0,65,65,36,1,3,1,3 | 1,2,1.4111,1.9756,incongruent,left,,,,,,stimulusFile/magnitude.xlsx,,,,,,,,,,,,,,,,,,,,,,,,,,,,,,,
,,,,,,,,,,,,,,,689,2022-02-03_09h31.14.351,multiplicationStroop,2021.2.3,Win32,59.94844434,,,,,right,1,0.6338,0,66,66,8,1,1,3,1 | 3,2,1.4111,1.9756,congruent,right,,,,,,stimulusFile/magnitude.xlsx,,,,,,,,,,,,,,,,,,,,,,,,,,,,,,,
,,,,,,,,,,,,,,,689,2022-02-03_09h31.14.351,multiplicationStroop,2021.2.3,Win32,59.94844434,,,,,left,1,0.5915,0,67,67,47,1,9,4,9 | 4,5,1.4111,1.9756,incongruent,left,,,,,,stimulusFile/magnitude.xlsx,,,,,,,,,,,,,,,,,,,,,,,,,,,,,,,
,,,,,,,,,,,,,,,689,2022-02-03_09h31.14.351,multiplicationStroop,2021.2.3,Win32,59.94844434,,,,,right,1,0.5922,0,68,68,58,1,6,8,6 | 8,2,1.6933,1.6933,neutral,right,,,,,,stimulusFile/magnitude.xlsx,,,,,,,,,,,,,,,,,,,,,,,,,,,,,,,
,,,,,,,,,,,,,,,689,2022-02-03_09h31.14.351,multiplicationStroop,2021.2.3,Win32,59.94844434,,,,,right,1,0.7091,0,69,69,0,1,1,2,1 | 2,1,1.4111,1.9756,congruent,right,,,,,,stimulusFile/magnitude.xlsx,,,,,,,,,,,,,,,,,,,,,,,,,,,,,,,
,,,,,,,,,,,,,,,689,2022-02-03_09h31.14.351,multiplicationStroop,2021.2.3,Win32,59.94844434,,,,,right,1,0.6539,0,70,70,66,1,3,8,3 | 8,5,1.6933,1.6933,neutral,right,,,,,,stimulusFile/magnitude.xlsx,,,,,,,,,,,,,,,,,,,,,,,,,,,,,,,
,,,,,,,,,,,,,,,689,2022-02-03_09h31.14.351,multiplicationStroop,2021.2.3,Win32,59.94844434,,,,,left,1,0.8175,0,71,71,54,1,7,6,7 | 6,1,1.6933,1.6933,neutral,left,,,,,,stimulusFile/magnitude.xlsx,,,,,,,,,,,,,,,,,,,,,,,,,,,,,,,
,,,,,,,,,,,,,,,689,2022-02-03_09h31.14.351,multiplicationStroop,2021.2.3,Win32,59.94844434,,,,,,,,,,,,,,,,,,,,,0,1,1,0,1,stimulusFile/magnitude.xlsx,NUMERICALLY larger (larger coefficient).,images/numericallyLarger.png,,,,,,,,,,,,,,,,,,,,,,,,,,,,,
,,,,,,,,,,,,,,,689,2022-02-03_09h31.14.351,multiplicationStroop,2021.2.3,Win32,59.94844434,,,,,,,,,,,,,,,,,,,,,,,,,,,,,space,6.5679,space,2.7543,16,1.9037,1,0,0,0,30,1,4,×,4,4 × 4,neutral,tie,2,1,16,,,,,,,,
,,,,,,,,,,,,,,,689,2022-02-03_09h31.14.351,multiplicationStroop,2021.2.3,Win32,59.94844434,,,,,,,,,,,,,,,,,,,,,,,,,,,,,,,,,56,1.7477,1,0,1,1,8,1,7,×,8,7 × 8,congruent,smallerFirst,1,2,56,,,,,,,,
,,,,,,,,,,,,,,,689,2022-02-03_09h31.14.351,multiplicationStroop,2021.2.3,Win32,59.94844434,,,,,,,,,,,,,,,,,,,,,,,,,,,,,,,,,81,2.0477,1,0,2,2,35,1,9,×,9,9 × 9,neutral,tie,2,1,81,,,,,,,,
,,,,,,,,,,,,,,,689,2022-02-03_09h31.14.351,multiplicationStroop,2021.2.3,Win32,59.94844434,,,,,,,,,,,,,,,,,,,,,,,,,,,,,,,,,64,2.131,1,0,3,3,34,1,8,×,8,8 × 8,neutral,tie,2,1,64,,,,,,,,
,,,,,,,,,,,,,,,689,2022-02-03_09h31.14.351,multiplicationStroop,2021.2.3,Win32,59.94844434,,,,,,,,,,,,,,,,,,,,,,,,,,,,,,,,,28,2.237,1,0,4,4,27,1,7,×,4,7 × 4,congruent,largerFirst,2,1,28,,,,,,,,
,,,,,,,,,,,,,,,689,2022-02-03_09h31.14.351,multiplicationStroop,2021.2.3,Win32,59.94844434,,,,,,,,,,,,,,,,,,,,,,,,,,,,,,,,,48,2.1488,1,0,5,5,18,1,8,×,6,8 × 6,congruent,largerFirst,2,1,48,,,,,,,,
,,,,,,,,,,,,,,,689,2022-02-03_09h31.14.351,multiplicationStroop,2021.2.3,Win32,59.94844434,,,,,,,,,,,,,,,,,,,,,,,,,,,,,,,,,6,1.8812,1,0,6,6,13,1,2,×,3,2 × 3,congruent,smallerFirst,1,2,6,,,,,,,,
,,,,,,,,,,,,,,,689,2022-02-03_09h31.14.351,multiplicationStroop,2021.2.3,Win32,59.94844434,,,,,,,,,,,,,,,,,,,,,,,,,,,,,,,,,40,2.1321,1,0,7,7,6,1,5,×,8,5 × 8,congruent,smallerFirst,1,2,40,,,,,,,,
,,,,,,,,,,,,,,,689,2022-02-03_09h31.14.351,multiplicationStroop,2021.2.3,Win32,59.94844434,,,,,,,,,,,,,,,,,,,,,,,,,,,,,,,,,20,1.8978,1,0,8,8,7,1,4,×,5,4 × 5,congruent,smallerFirst,1,2,20,,,,,,,,
,,,,,,,,,,,,,,,689,2022-02-03_09h31.14.351,multiplicationStroop,2021.2.3,Win32,59.94844434,,,,,,,,,,,,,,,,,,,,,,,,,,,,,,,,,18,1.8826,1,0,9,9,22,1,9,×,2,9 × 2,congruent,largerFirst,2,1,18,,,,,,,,
,,,,,,,,,,,,,,,689,2022-02-03_09h31.14.351,multiplicationStroop,2021.2.3,Win32,59.94844434,,,,,,,,,,,,,,,,,,,,,,,,,,,,,,,,,21,1.8317,1,0,10,10,16,1,7,×,3,7 × 3,congruent,largerFirst,2,1,21,,,,,,,,
,,,,,,,,,,,,,,,689,2022-02-03_09h31.14.351,multiplicationStroop,2021.2.3,Win32,59.94844434,,,,,,,,,,,,,,,,,,,,,,,,,,,,,,,,,36,2.5644,1,0,11,11,0,1,4,×,9,4 × 9,congruent,smallerFirst,1,2,36,,,,,,,,
,,,,,,,,,,,,,,,689,2022-02-03_09h31.14.351,multiplicationStroop,2021.2.3,Win32,59.94844434,,,,,,,,,,,,,,,,,,,,,,,,,,,,,,,,,24,2.0322,1,0,12,12,10,1,3,×,8,3 × 8,congruent,smallerFirst,1,2,24,,,,,,,,
,,,,,,,,,,,,,,,689,2022-02-03_09h31.14.351,multiplicationStroop,2021.2.3,Win32,59.94844434,,,,,,,,,,,,,,,,,,,,,,,,,,,,,,,,,72,2.1133,1,0,13,13,17,1,9,×,8,9 × 8,congruent,largerFirst,2,1,72,,,,,,,,
,,,,,,,,,,,,,,,689,2022-02-03_09h31.14.351,multiplicationStroop,2021.2.3,Win32,59.94844434,,,,,,,,,,,,,,,,,,,,,,,,,,,,,,,,,4,1.9818,1,0,14,14,28,1,2,×,2,2 × 2,neutral,tie,2,1,4,,,,,,,,
,,,,,,,,,,,,,,,689,2022-02-03_09h31.14.351,multiplicationStroop,2021.2.3,Win32,59.94844434,,,,,,,,,,,,,,,,,,,,,,,,,,,,,,,,,15,1.8154,1,0,15,15,4,1,3,×,5,3 × 5,congruent,smallerFirst,1,2,15,,,,,,,,
,,,,,,,,,,,,,,,689,2022-02-03_09h31.14.351,multiplicationStroop,2021.2.3,Win32,59.94844434,,,,,,,,,,,,,,,,,,,,,,,,,,,,,,,,,12,1.4812,1,0,16,16,2,1,3,×,4,3 × 4,congruent,smallerFirst,1,2,12,,,,,,,,
,,,,,,,,,,,,,,,689,2022-02-03_09h31.14.351,multiplicationStroop,2021.2.3,Win32,59.94844434,,,,,,,,,,,,,,,,,,,,,,,,,,,,,,,,,16,1.8986,1,0,17,17,5,1,2,×,8,2 × 8,congruent,smallerFirst,1,2,16,,,,,,,,
,,,,,,,,,,,,,,,689,2022-02-03_09h31.14.351,multiplicationStroop,2021.2.3,Win32,59.94844434,,,,,,,,,,,,,,,,,,,,,,,,,,,,,,,,,36,2.381,1,0,18,18,32,1,6,×,6,6 × 6,neutral,tie,2,1,36,,,,,,,,
,,,,,,,,,,,,,,,689,2022-02-03_09h31.14.351,multiplicationStroop,2021.2.3,Win32,59.94844434,,,,,,,,,,,,,,,,,,,,,,,,,,,,,,,,,18,2.0876,0,0,19,19,19,1,6,×,2,6 × 2,congruent,largerFirst,2,1,12,,,,,,,,
,,,,,,,,,,,,,,,689,2022-02-03_09h31.14.351,multiplicationStroop,2021.2.3,Win32,59.94844434,,,,,,,,,,,,,,,,,,,,,,,,,,,,,,,,,30,1.998,1,0,20,20,15,1,6,×,5,6 × 5,congruent,largerFirst,2,1,30,,,,,,,,
,,,,,,,,,,,,,,,689,2022-02-03_09h31.14.351,multiplicationStroop,2021.2.3,Win32,59.94844434,,,,,,,,,,,,,,,,,,,,,,,,,,,,,,,,,35,3.1483,1,0,21,21,1,1,5,×,7,5 × 7,congruent,smallerFirst,1,2,35,,,,,,,,
,,,,,,,,,,,,,,,689,2022-02-03_09h31.14.351,multiplicationStroop,2021.2.3,Win32,59.94844434,,,,,,,,,,,,,,,,,,,,,,,,,,,,,,,,,42,3.0649,1,0,22,22,3,1,6,×,7,6 × 7,congruent,smallerFirst,1,2,42,,,,,,,,
,,,,,,,,,,,,,,,689,2022-02-03_09h31.14.351,multiplicationStroop,2021.2.3,Win32,59.94844434,,,,,,,,,,,,,,,,,,,,,,,,,,,,,,,,,54,1.8031,1,0,23,23,12,1,6,×,9,6 × 9,congruent,smallerFirst,1,2,54,,,,,,,,
,,,,,,,,,,,,,,,689,2022-02-03_09h31.14.351,multiplicationStroop,2021.2.3,Win32,59.94844434,,,,,,,,,,,,,,,,,,,,,,,,,,,,,,,,,10,2.0646,1,0,24,24,24,1,5,×,2,5 × 2,congruent,largerFirst,2,1,10,,,,,,,,
,,,,,,,,,,,,,,,689,2022-02-03_09h31.14.351,multiplicationStroop,2021.2.3,Win32,59.94844434,,,,,,,,,,,,,,,,,,,,,,,,,,,,,,,,,49,2.1147,1,0,25,25,33,1,7,×,7,7 × 7,neutral,tie,2,1,49,,,,,,,,
,,,,,,,,,,,,,,,689,2022-02-03_09h31.14.351,multiplicationStroop,2021.2.3,Win32,59.94844434,,,,,,,,,,,,,,,,,,,,,,,,,,,,,,,,,45,1.6493,1,0,26,26,23,1,9,×,5,9 × 5,congruent,largerFirst,2,1,45,,,,,,,,
,,,,,,,,,,,,,,,689,2022-02-03_09h31.14.351,multiplicationStroop,2021.2.3,Win32,59.94844434,,,,,,,,,,,,,,,,,,,,,,,,,,,,,,,,,32,1.8149,1,0,27,27,20,1,8,×,4,8 × 4,congruent,largerFirst,2,1,32,,,,,,,,
,,,,,,,,,,,,,,,689,2022-02-03_09h31.14.351,multiplicationStroop,2021.2.3,Win32,59.94844434,,,,,,,,,,,,,,,,,,,,,,,,,,,,,,,,,27,1.8861,1,0,28,28,26,1,9,×,3,9 × 3,congruent,largerFirst,2,1,27,,,,,,,,
,,,,,,,,,,,,,,,689,2022-02-03_09h31.14.351,multiplicationStroop,2021.2.3,Win32,59.94844434,,,,,,,,,,,,,,,,,,,,,,,,,,,,,,,,,9,1.8116,1,0,29,29,29,1,3,×,3,3 × 3,neutral,tie,2,1,9,,,,,,,,
,,,,,,,,,,,,,,,689,2022-02-03_09h31.14.351,multiplicationStroop,2021.2.3,Win32,59.94844434,,,,,,,,,,,,,,,,,,,,,,,,,,,,,,,,,63,3.1137,1,0,30,30,21,1,9,×,7,9 × 7,congruent,largerFirst,2,1,63,,,,,,,,
,,,,,,,,,,,,,,,689,2022-02-03_09h31.14.351,multiplicationStroop,2021.2.3,Win32,59.94844434,,,,,,,,,,,,,,,,,,,,,,,,,,,,,,,,,8,1.8415,1,0,31,31,9,1,2,×,4,2 × 4,congruent,smallerFirst,1,2,8,,,,,,,,
,,,,,,,,,,,,,,,689,2022-02-03_09h31.14.351,multiplicationStroop,2021.2.3,Win32,59.94844434,,,,,,,,,,,,,,,,,,,,,,,,,,,,,,,,,14,1.5982,1,0,32,32,14,1,7,×,2,7 × 2,congruent,largerFirst,2,1,14,,,,,,,,
,,,,,,,,,,,,,,,689,2022-02-03_09h31.14.351,multiplicationStroop,2021.2.3,Win32,59.94844434,,,,,,,,,,,,,,,,,,,,,,,,,,,,,,,,,25,1.6487,1,0,33,33,31,1,5,×,5,5 × 5,neutral,tie,2,1,25,,,,,,,,
,,,,,,,,,,,,,,,689,2022-02-03_09h31.14.351,multiplicationStroop,2021.2.3,Win32,59.94844434,,,,,,,,,,,,,,,,,,,,,,,,,,,,,,,,,18,1.7649,1,0,34,34,11,1,3,×,6,3 × 6,congruent,smallerFirst,1,2,18,,,,,,,,
,,,,,,,,,,,,,,,689,2022-02-03_09h31.14.351,multiplicationStroop,2021.2.3,Win32,59.94844434,,,,,,,,,,,,,,,,,,,,,,,,,,,,,,,,,24,1.8991,1,0,35,35,25,1,6,×,4,6 × 4,congruent,largerFirst,2,1,24,,,,,,,,
,,,,,,,,,,,,,,,689,2022-02-03_09h31.14.351,multiplicationStroop,2021.2.3,Win32,59.94844434,,,,,,,,,,,,,,,,,,,,,,,,,,,,,,,,,,,,,,,,,,,,,,,,,,0,0,0,2,1,stimulusFile/mult_blk3_congruent.xlsx,,
,,,,,,,,,,,,,,,689,2022-02-03_09h31.14.351,multiplicationStroop,2021.2.3,Win32,59.94844434,,,,,,,,,,,,,,,,,,,,,,,,,,,,,,,space,1.3114,25,1.7113,1,0,0,0,31,1,5,×,5,5 × 5,neutral,tie,1.5,1.5,25,,,,,,,,
,,,,,,,,,,,,,,,689,2022-02-03_09h31.14.351,multiplicationStroop,2021.2.3,Win32,59.94844434,,,,,,,,,,,,,,,,,,,,,,,,,,,,,,,,,4,1.2982,1,0,1,1,28,1,2,×,2,2 × 2,neutral,tie,1.5,1.5,4,,,,,,,,
,,,,,,,,,,,,,,,689,2022-02-03_09h31.14.351,multiplicationStroop,2021.2.3,Win32,59.94844434,,,,,,,,,,,,,,,,,,,,,,,,,,,,,,,,,6,1.6497,1,0,2,2,26,1,3,×,2,3 × 2,neutral,largerFirst,1.5,1.5,6,,,,,,,,
,,,,,,,,,,,,,,,689,2022-02-03_09h31.14.351,multiplicationStroop,2021.2.3,Win32,59.94844434,,,,,,,,,,,,,,,,,,,,,,,,,,,,,,,,,16,1.6312,1,0,3,3,13,1,2,×,8,2 × 8,neutral,smallerFirst,1.5,1.5,16,,,,,,,,
,,,,,,,,,,,,,,,689,2022-02-03_09h31.14.351,multiplicationStroop,2021.2.3,Win32,59.94844434,,,,,,,,,,,,,,,,,,,,,,,,,,,,,,,,,20,1.8812,1,0,4,4,20,1,5,×,4,5 × 4,neutral,largerFirst,1.5,1.5,20,,,,,,,,
,,,,,,,,,,,,,,,689,2022-02-03_09h31.14.351,multiplicationStroop,2021.2.3,Win32,59.94844434,,,,,,,,,,,,,,,,,,,,,,,,,,,,,,,,,45,1.9314,1,0,5,5,10,1,5,×,9,5 × 9,neutral,smallerFirst,1.5,1.5,45,,,,,,,,
,,,,,,,,,,,,,,,689,2022-02-03_09h31.14.351,multiplicationStroop,2021.2.3,Win32,59.94844434,,,,,,,,,,,,,,,,,,,,,,,,,,,,,,,,,16,1.533,1,0,6,6,30,1,4,×,4,4 × 4,neutral,tie,1.5,1.5,16,,,,,,,,
,,,,,,,,,,,,,,,689,2022-02-03_09h31.14.351,multiplicationStroop,2021.2.3,Win32,59.94844434,,,,,,,,,,,,,,,,,,,,,,,,,,,,,,,,,56,2.9141,1,0,7,7,9,1,7,×,8,7 × 8,neutral,smallerFirst,1.5,1.5,56,,,,,,,,
,,,,,,,,,,,,,,,689,2022-02-03_09h31.14.351,multiplicationStroop,2021.2.3,Win32,59.94844434,,,,,,,,,,,,,,,,,,,,,,,,,,,,,,,,,72,1.9991,1,0,8,8,11,1,8,×,9,8 × 9,neutral,smallerFirst,1.5,1.5,72,,,,,,,,
,,,,,,,,,,,,,,,689,2022-02-03_09h31.14.351,multiplicationStroop,2021.2.3,Win32,59.94844434,,,,,,,,,,,,,,,,,,,,,,,,,,,,,,,,,24,1.7626,1,0,9,9,2,1,4,×,6,4 × 6,neutral,smallerFirst,1.5,1.5,24,,,,,,,,
,,,,,,,,,,,,,,,689,2022-02-03_09h31.14.351,multiplicationStroop,2021.2.3,Win32,59.94844434,,,,,,,,,,,,,,,,,,,,,,,,,,,,,,,,,40,2.0148,1,0,10,10,24,1,8,×,5,8 × 5,neutral,largerFirst,1.5,1.5,40,,,,,,,,
,,,,,,,,,,,,,,,689,2022-02-03_09h31.14.351,multiplicationStroop,2021.2.3,Win32,59.94844434,,,,,,,,,,,,,,,,,,,,,,,,,,,,,,,,,14,1.4492,1,0,11,11,16,1,7,×,2,7 × 2,neutral,largerFirst,1.5,1.5,14,,,,,,,,
,,,,,,,,,,,,,,,689,2022-02-03_09h31.14.351,multiplicationStroop,2021.2.3,Win32,59.94844434,,,,,,,,,,,,,,,,,,,,,,,,,,,,,,,,,36,1.7151,1,0,12,12,32,1,6,×,6,6 × 6,neutral,tie,1.5,1.5,36,,,,,,,,
,,,,,,,,,,,,,,,689,2022-02-03_09h31.14.351,multiplicationStroop,2021.2.3,Win32,59.94844434,,,,,,,,,,,,,,,,,,,,,,,,,,,,,,,,,27,1.7156,1,0,13,13,14,1,9,×,3,9 × 3,neutral,largerFirst,1.5,1.5,27,,,,,,,,
,,,,,,,,,,,,,,,689,2022-02-03_09h31.14.351,multiplicationStroop,2021.2.3,Win32,59.94844434,,,,,,,,,,,,,,,,,,,,,,,,,,,,,,,,,21,1.5816,1,0,14,14,8,1,3,×,7,3 × 7,neutral,smallerFirst,1.5,1.5,21,,,,,,,,
,,,,,,,,,,,,,,,689,2022-02-03_09h31.14.351,multiplicationStroop,2021.2.3,Win32,59.94844434,,,,,,,,,,,,,,,,,,,,,,,,,,,,,,,,,64,2.4981,1,0,15,15,34,1,8,×,8,8 × 8,neutral,tie,1.5,1.5,64,,,,,,,,
,,,,,,,,,,,,,,,689,2022-02-03_09h31.14.351,multiplicationStroop,2021.2.3,Win32,59.94844434,,,,,,,,,,,,,,,,,,,,,,,,,,,,,,,,,12,1.4092,1,0,16,16,21,1,4,×,3,4 × 3,neutral,largerFirst,1.5,1.5,12,,,,,,,,
,,,,,,,,,,,,,,,689,2022-02-03_09h31.14.351,multiplicationStroop,2021.2.3,Win32,59.94844434,,,,,,,,,,,,,,,,,,,,,,,,,,,,,,,,,36,1.9984,1,0,17,17,27,1,9,×,4,9 × 4,neutral,largerFirst,1.5,1.5,36,,,,,,,,
,,,,,,,,,,,,,,,689,2022-02-03_09h31.14.351,multiplicationStroop,2021.2.3,Win32,59.94844434,,,,,,,,,,,,,,,,,,,,,,,,,,,,,,,,,10,1.6816,1,0,18,18,4,1,2,×,5,2 × 5,neutral,smallerFirst,1.5,1.5,10,,,,,,,,
,,,,,,,,,,,,,,,689,2022-02-03_09h31.14.351,multiplicationStroop,2021.2.3,Win32,59.94844434,,,,,,,,,,,,,,,,,,,,,,,,,,,,,,,,,63,3.5648,1,0,19,19,12,1,7,×,9,7 × 9,neutral,smallerFirst,1.5,1.5,63,,,,,,,,
,,,,,,,,,,,,,,,689,2022-02-03_09h31.14.351,multiplicationStroop,2021.2.3,Win32,59.94844434,,,,,,,,,,,,,,,,,,,,,,,,,,,,,,,,,35,2.9361,1,0,20,20,1,1,5,×,7,5 × 7,neutral,smallerFirst,1.5,1.5,35,,,,,,,,
,,,,,,,,,,,,,,,689,2022-02-03_09h31.14.351,multiplicationStroop,2021.2.3,Win32,59.94844434,,,,,,,,,,,,,,,,,,,,,,,,,,,,,,,,,28,1.7153,1,0,21,21,17,1,7,×,4,7 × 4,neutral,largerFirst,1.5,1.5,28,,,,,,,,
,,,,,,,,,,,,,,,689,2022-02-03_09h31.14.351,multiplicationStroop,2021.2.3,Win32,59.94844434,,,,,,,,,,,,,,,,,,,,,,,,,,,,,,,,,81,1.9977,1,0,22,22,35,1,9,×,9,9 × 9,neutral,tie,1.5,1.5,81,,,,,,,,
,,,,,,,,,,,,,,,689,2022-02-03_09h31.14.351,multiplicationStroop,2021.2.3,Win32,59.94844434,,,,,,,,,,,,,,,,,,,,,,,,,,,,,,,,,8,1.8651,1,0,23,23,3,1,2,×,4,2 × 4,neutral,smallerFirst,1.5,1.5,8,,,,,,,,
,,,,,,,,,,,,,,,689,2022-02-03_09h31.14.351,multiplicationStroop,2021.2.3,Win32,59.94844434,,,,,,,,,,,,,,,,,,,,,,,,,,,,,,,,,9,1.649,1,0,24,24,29,1,3,×,3,3 × 3,neutral,tie,1.5,1.5,9,,,,,,,,
,,,,,,,,,,,,,,,689,2022-02-03_09h31.14.351,multiplicationStroop,2021.2.3,Win32,59.94844434,,,,,,,,,,,,,,,,,,,,,,,,,,,,,,,,,30,1.7986,1,0,25,25,19,1,6,×,5,6 × 5,neutral,largerFirst,1.5,1.5,30,,,,,,,,
,,,,,,,,,,,,,,,689,2022-02-03_09h31.14.351,multiplicationStroop,2021.2.3,Win32,59.94844434,,,,,,,,,,,,,,,,,,,,,,,,,,,,,,,,,15,1.5322,1,0,26,26,5,1,3,×,5,3 × 5,neutral,smallerFirst,1.5,1.5,15,,,,,,,,
,,,,,,,,,,,,,,,689,2022-02-03_09h31.14.351,multiplicationStroop,2021.2.3,Win32,59.94844434,,,,,,,,,,,,,,,,,,,,,,,,,,,,,,,,,32,1.9816,1,0,27,27,23,1,8,×,4,8 × 4,neutral,largerFirst,1.5,1.5,32,,,,,,,,
,,,,,,,,,,,,,,,689,2022-02-03_09h31.14.351,multiplicationStroop,2021.2.3,Win32,59.94844434,,,,,,,,,,,,,,,,,,,,,,,,,,,,,,,,,42,6.0303,1,0,28,28,6,1,6,×,7,6 × 7,neutral,smallerFirst,1.5,1.5,42,,,,,,,,
,,,,,,,,,,,,,,,689,2022-02-03_09h31.14.351,multiplicationStroop,2021.2.3,Win32,59.94844434,,,,,,,,,,,,,,,,,,,,,,,,,,,,,,,,,24,2.1858,1,0,29,29,22,1,8,×,3,8 × 3,neutral,largerFirst,1.5,1.5,24,,,,,,,,
,,,,,,,,,,,,,,,689,2022-02-03_09h31.14.351,multiplicationStroop,2021.2.3,Win32,59.94844434,,,,,,,,,,,,,,,,,,,,,,,,,,,,,,,,,48,1.9319,1,0,30,30,15,1,8,×,6,8 × 6,neutral,largerFirst,1.5,1.5,48,,,,,,,,
,,,,,,,,,,,,,,,689,2022-02-03_09h31.14.351,multiplicationStroop,2021.2.3,Win32,59.94844434,,,,,,,,,,,,,,,,,,,,,,,,,,,,,,,,,12,1.3818,1,0,31,31,25,1,6,×,2,6 × 2,neutral,largerFirst,1.5,1.5,12,,,,,,,,
,,,,,,,,,,,,,,,689,2022-02-03_09h31.14.351,multiplicationStroop,2021.2.3,Win32,59.94844434,,,,,,,,,,,,,,,,,,,,,,,,,,,,,,,,,49,1.8818,1,0,32,32,33,1,7,×,7,7 × 7,neutral,tie,1.5,1.5,49,,,,,,,,
,,,,,,,,,,,,,,,689,2022-02-03_09h31.14.351,multiplicationStroop,2021.2.3,Win32,59.94844434,,,,,,,,,,,,,,,,,,,,,,,,,,,,,,,,,18,2.582,1,0,33,33,0,1,3,×,6,3 × 6,neutral,smallerFirst,1.5,1.5,18,,,,,,,,
,,,,,,,,,,,,,,,689,2022-02-03_09h31.14.351,multiplicationStroop,2021.2.3,Win32,59.94844434,,,,,,,,,,,,,,,,,,,,,,,,,,,,,,,,,54,2.2381,1,0,34,34,7,1,6,×,9,6 × 9,neutral,smallerFirst,1.5,1.5,54,,,,,,,,
,,,,,,,,,,,,,,,689,2022-02-03_09h31.14.351,multiplicationStroop,2021.2.3,Win32,59.94844434,,,,,,,,,,,,,,,,,,,,,,,,,,,,,,,,,18,2.9483,1,0,35,35,18,1,9,×,2,9 × 2,neutral,largerFirst,1.5,1.5,18,,,,,,,,
,,,,,,,,,,,,,,,689,2022-02-03_09h31.14.351,multiplicationStroop,2021.2.3,Win32,59.94844434,,,,,,,,,,,,,,,,,,,,,,,,,,,,,,,,,,,,,,,,,,,,,,,,,,0,1,1,1,1,stimulusFile/mult_blk2.xlsx,,
,,,,,,,,,,,,,,,689,2022-02-03_09h31.14.351,multiplicationStroop,2021.2.3,Win32,59.94844434,,,,,,,,,,,,,,,,,,,,,,,,,,,,,,,space,1.2366,15,1.626,1,0,0,0,24,1,5,×,3,5 × 3,incongruent,largerFirst,1,2,15,,,,,,,,
,,,,,,,,,,,,,,,689,2022-02-03_09h31.14.351,multiplicationStroop,2021.2.3,Win32,59.94844434,,,,,,,,,,,,,,,,,,,,,,,,,,,,,,,,,72,2.1989,1,0,1,1,14,1,9,×,8,9 × 8,incongruent,largerFirst,1,2,72,,,,,,,,
,,,,,,,,,,,,,,,689,2022-02-03_09h31.14.351,multiplicationStroop,2021.2.3,Win32,59.94844434,,,,,,,,,,,,,,,,,,,,,,,,,,,,,,,,,81,2.032,1,0,2,2,35,1,9,×,9,9 × 9,neutral,tie,2,1,81,,,,,,,,
,,,,,,,,,,,,,,,689,2022-02-03_09h31.14.351,multiplicationStroop,2021.2.3,Win32,59.94844434,,,,,,,,,,,,,,,,,,,,,,,,,,,,,,,,,9,1.7148,1,0,3,3,29,1,3,×,3,3 × 3,neutral,tie,2,1,9,,,,,,,,
,,,,,,,,,,,,,,,689,2022-02-03_09h31.14.351,multiplicationStroop,2021.2.3,Win32,59.94844434,,,,,,,,,,,,,,,,,,,,,,,,,,,,,,,,,24,2.1987,1,0,4,4,6,1,4,×,6,4 × 6,incongruent,smallerFirst,2,1,24,,,,,,,,
,,,,,,,,,,,,,,,689,2022-02-03_09h31.14.351,multiplicationStroop,2021.2.3,Win32,59.94844434,,,,,,,,,,,,,,,,,,,,,,,,,,,,,,,,,20,1.9141,1,0,5,5,13,1,4,×,5,4 × 5,incongruent,smallerFirst,2,1,20,,,,,,,,
,,,,,,,,,,,,,,,689,2022-02-03_09h31.14.351,multiplicationStroop,2021.2.3,Win32,59.94844434,,,,,,,,,,,,,,,,,,,,,,,,,,,,,,,,,54,1.7815,1,0,6,6,20,1,9,×,6,9 × 6,incongruent,largerFirst,1,2,54,,,,,,,,
,,,,,,,,,,,,,,,689,2022-02-03_09h31.14.351,multiplicationStroop,2021.2.3,Win32,59.94844434,,,,,,,,,,,,,,,,,,,,,,,,,,,,,,,,,42,3.4148,1,0,7,7,3,1,6,×,7,6 × 7,incongruent,smallerFirst,2,1,42,,,,,,,,
,,,,,,,,,,,,,,,689,2022-02-03_09h31.14.351,multiplicationStroop,2021.2.3,Win32,59.94844434,,,,,,,,,,,,,,,,,,,,,,,,,,,,,,,,,8,2.1645,1,0,8,8,10,1,2,×,4,2 × 4,incongruent,smallerFirst,2,1,8,,,,,,,,
,,,,,,,,,,,,,,,689,2022-02-03_09h31.14.351,multiplicationStroop,2021.2.3,Win32,59.94844434,,,,,,,,,,,,,,,,,,,,,,,,,,,,,,,,,49,1.7991,1,0,9,9,33,1,7,×,7,7 × 7,neutral,tie,2,1,49,,,,,,,,
,,,,,,,,,,,,,,,689,2022-02-03_09h31.14.351,multiplicationStroop,2021.2.3,Win32,59.94844434,,,,,,,,,,,,,,,,,,,,,,,,,,,,,,,,,16,1.6153,1,0,10,10,9,1,2,×,8,2 × 8,incongruent,smallerFirst,2,1,16,,,,,,,,
,,,,,,,,,,,,,,,689,2022-02-03_09h31.14.351,multiplicationStroop,2021.2.3,Win32,59.94844434,,,,,,,,,,,,,,,,,,,,,,,,,,,,,,,,,48,2.2146,1,0,11,11,15,1,8,×,6,8 × 6,incongruent,largerFirst,1,2,48,,,,,,,,
,,,,,,,,,,,,,,,689,2022-02-03_09h31.14.351,multiplicationStroop,2021.2.3,Win32,59.94844434,,,,,,,,,,,,,,,,,,,,,,,,,,,,,,,,,35,1.8363,1,0,12,12,26,1,7,×,5,7 × 5,incongruent,largerFirst,1,2,35,,,,,,,,
,,,,,,,,,,,,,,,689,2022-02-03_09h31.14.351,multiplicationStroop,2021.2.3,Win32,59.94844434,,,,,,,,,,,,,,,,,,,,,,,,,,,,,,,,,6,1.5114,1,0,13,13,25,1,3,×,2,3 × 2,incongruent,largerFirst,1,2,6,,,,,,,,
,,,,,,,,,,,,,,,689,2022-02-03_09h31.14.351,multiplicationStroop,2021.2.3,Win32,59.94844434,,,,,,,,,,,,,,,,,,,,,,,,,,,,,,,,,12,1.4983,1,0,14,14,5,1,2,×,6,2 × 6,incongruent,smallerFirst,2,1,12,,,,,,,,
,,,,,,,,,,,,,,,689,2022-02-03_09h31.14.351,multiplicationStroop,2021.2.3,Win32,59.94844434,,,,,,,,,,,,,,,,,,,,,,,,,,,,,,,,,36,2.4157,1,0,15,15,1,1,4,×,9,4 × 9,incongruent,smallerFirst,2,1,36,,,,,,,,
,,,,,,,,,,,,,,,689,2022-02-03_09h31.14.351,multiplicationStroop,2021.2.3,Win32,59.94844434,,,,,,,,,,,,,,,,,,,,,,,,,,,,,,,,,40,2.015,1,0,16,16,27,1,8,×,5,8 × 5,incongruent,largerFirst,1,2,40,,,,,,,,
,,,,,,,,,,,,,,,689,2022-02-03_09h31.14.351,multiplicationStroop,2021.2.3,Win32,59.94844434,,,,,,,,,,,,,,,,,,,,,,,,,,,,,,,,,18,1.6485,1,0,17,17,22,1,6,×,3,6 × 3,incongruent,largerFirst,1,2,18,,,,,,,,
,,,,,,,,,,,,,,,689,2022-02-03_09h31.14.351,multiplicationStroop,2021.2.3,Win32,59.94844434,,,,,,,,,,,,,,,,,,,,,,,,,,,,,,,,,45,1.5665,1,0,18,18,8,1,5,×,9,5 × 9,incongruent,smallerFirst,2,1,45,,,,,,,,
,,,,,,,,,,,,,,,689,2022-02-03_09h31.14.351,multiplicationStroop,2021.2.3,Win32,59.94844434,,,,,,,,,,,,,,,,,,,,,,,,,,,,,,,,,56,1.7312,1,0,19,19,0,1,7,×,8,7 × 8,incongruent,smallerFirst,2,1,56,,,,,,,,
,,,,,,,,,,,,,,,689,2022-02-03_09h31.14.351,multiplicationStroop,2021.2.3,Win32,59.94844434,,,,,,,,,,,,,,,,,,,,,,,,,,,,,,,,,12,1.4971,1,0,20,20,19,1,4,×,3,4 × 3,incongruent,largerFirst,1,2,12,,,,,,,,
,,,,,,,,,,,,,,,689,2022-02-03_09h31.14.351,multiplicationStroop,2021.2.3,Win32,59.94844434,,,,,,,,,,,,,,,,,,,,,,,,,,,,,,,,,14,1.5481,1,0,21,21,18,1,7,×,2,7 × 2,incongruent,largerFirst,1,2,14,,,,,,,,
,,,,,,,,,,,,,,,689,2022-02-03_09h31.14.351,multiplicationStroop,2021.2.3,Win32,59.94844434,,,,,,,,,,,,,,,,,,,,,,,,,,,,,,,,,4,1.4985,1,0,22,22,28,1,2,×,2,2 × 2,neutral,tie,2,1,4,,,,,,,,
,,,,,,,,,,,,,,,689,2022-02-03_09h31.14.351,multiplicationStroop,2021.2.3,Win32,59.94844434,,,,,,,,,,,,,,,,,,,,,,,,,,,,,,,,,21,1.749,1,0,23,23,12,1,3,×,7,3 × 7,incongruent,smallerFirst,2,1,21,,,,,,,,
,,,,,,,,,,,,,,,689,2022-02-03_09h31.14.351,multiplicationStroop,2021.2.3,Win32,59.94844434,,,,,,,,,,,,,,,,,,,,,,,,,,,,,,,,,32,1.7991,1,0,24,24,21,1,8,×,4,8 × 4,incongruent,largerFirst,1,2,32,,,,,,,,
,,,,,,,,,,,,,,,689,2022-02-03_09h31.14.351,multiplicationStroop,2021.2.3,Win32,59.94844434,,,,,,,,,,,,,,,,,,,,,,,,,,,,,,,,,16,1.7813,1,0,25,25,30,1,4,×,4,4 × 4,neutral,tie,2,1,16,,,,,,,,
,,,,,,,,,,,,,,,689,2022-02-03_09h31.14.351,multiplicationStroop,2021.2.3,Win32,59.94844434,,,,,,,,,,,,,,,,,,,,,,,,,,,,,,,,,24,1.7316,1,0,26,26,23,1,8,×,3,8 × 3,incongruent,largerFirst,1,2,24,,,,,,,,
,,,,,,,,,,,,,,,689,2022-02-03_09h31.14.351,multiplicationStroop,2021.2.3,Win32,59.94844434,,,,,,,,,,,,,,,,,,,,,,,,,,,,,,,,,36,2.2489,1,0,27,27,32,1,6,×,6,6 × 6,neutral,tie,2,1,36,,,,,,,,
,,,,,,,,,,,,,,,689,2022-02-03_09h31.14.351,multiplicationStroop,2021.2.3,Win32,59.94844434,,,,,,,,,,,,,,,,,,,,,,,,,,,,,,,,,18,1.749,1,0,28,28,16,1,9,×,2,9 × 2,incongruent,largerFirst,1,2,18,,,,,,,,
,,,,,,,,,,,,,,,689,2022-02-03_09h31.14.351,multiplicationStroop,2021.2.3,Win32,59.94844434,,,,,,,,,,,,,,,,,,,,,,,,,,,,,,,,,27,1.8642,1,0,29,29,4,1,3,×,9,3 × 9,incongruent,smallerFirst,2,1,27,,,,,,,,
,,,,,,,,,,,,,,,689,2022-02-03_09h31.14.351,multiplicationStroop,2021.2.3,Win32,59.94844434,,,,,,,,,,,,,,,,,,,,,,,,,,,,,,,,,64,2.8328,1,0,30,30,34,1,8,×,8,8 × 8,neutral,tie,2,1,64,,,,,,,,
,,,,,,,,,,,,,,,689,2022-02-03_09h31.14.351,multiplicationStroop,2021.2.3,Win32,59.94844434,,,,,,,,,,,,,,,,,,,,,,,,,,,,,,,,,63,2.8865,1,0,31,31,17,1,9,×,7,9 × 7,incongruent,largerFirst,1,2,63,,,,,,,,
,,,,,,,,,,,,,,,689,2022-02-03_09h31.14.351,multiplicationStroop,2021.2.3,Win32,59.94844434,,,,,,,,,,,,,,,,,,,,,,,,,,,,,,,,,25,1.9482,1,0,32,32,31,1,5,×,5,5 × 5,neutral,tie,2,1,25,,,,,,,,
,,,,,,,,,,,,,,,689,2022-02-03_09h31.14.351,multiplicationStroop,2021.2.3,Win32,59.94844434,,,,,,,,,,,,,,,,,,,,,,,,,,,,,,,,,30,2.0657,1,0,33,33,11,1,5,×,6,5 × 6,incongruent,smallerFirst,2,1,30,,,,,,,,
,,,,,,,,,,,,,,,689,2022-02-03_09h31.14.351,multiplicationStroop,2021.2.3,Win32,59.94844434,,,,,,,,,,,,,,,,,,,,,,,,,,,,,,,,,10,1.6815,1,0,34,34,7,1,2,×,5,2 × 5,incongruent,smallerFirst,2,1,10,,,,,,,,
,,,,,,,,,,,,,,,689,2022-02-03_09h31.14.351,multiplicationStroop,2021.2.3,Win32,59.94844434,,,,,,,,,,,,,,,,,,,,,,,,,,,,,,,,,28,1.8824,1,0,35,35,2,1,4,×,7,4 × 7,incongruent,smallerFirst,2,1,28,,,,,,,,
,,,,,,,,,,,,,,,689,2022-02-03_09h31.14.351,multiplicationStroop,2021.2.3,Win32,59.94844434,,,,,,,,,,,,,,,,,,,,,,,,,,,,,,,,,,,,,,,,,,,,,,,,,,0,2,2,4,1,stimulusFile/mult_blk5_INcongruent.xlsx,,
,,,,,,,,,,,,,,,689,2022-02-03_09h31.14.351,multiplicationStroop,2021.2.3,Win32,59.94844434,,,,,,,,,,,,,,,,,,,,,,,,,,,,,,,space,1.6186,12,1.3626,1,0,0,0,5,1,2,×,6,2 × 6,congruent,smallerFirst,1,2,12,,,,,,,,
,,,,,,,,,,,,,,,689,2022-02-03_09h31.14.351,multiplicationStroop,2021.2.3,Win32,59.94844434,,,,,,,,,,,,,,,,,,,,,,,,,,,,,,,,,28,1.7325,1,0,1,1,13,1,4,×,7,4 × 7,congruent,smallerFirst,1,2,28,,,,,,,,
,,,,,,,,,,,,,,,689,2022-02-03_09h31.14.351,multiplicationStroop,2021.2.3,Win32,59.94844434,,,,,,,,,,,,,,,,,,,,,,,,,,,,,,,,,10,1.5488,1,0,2,2,10,1,2,×,5,2 × 5,congruent,smallerFirst,1,2,10,,,,,,,,
,,,,,,,,,,,,,,,689,2022-02-03_09h31.14.351,multiplicationStroop,2021.2.3,Win32,59.94844434,,,,,,,,,,,,,,,,,,,,,,,,,,,,,,,,,15,1.5312,1,0,3,3,18,1,5,×,3,5 × 3,congruent,largerFirst,2,1,15,,,,,,,,
,,,,,,,,,,,,,,,689,2022-02-03_09h31.14.351,multiplicationStroop,2021.2.3,Win32,59.94844434,,,,,,,,,,,,,,,,,,,,,,,,,,,,,,,,,24,1.765,1,0,4,4,24,1,8,×,3,8 × 3,congruent,largerFirst,2,1,24,,,,,,,,
,,,,,,,,,,,,,,,689,2022-02-03_09h31.14.351,multiplicationStroop,2021.2.3,Win32,59.94844434,,,,,,,,,,,,,,,,,,,,,,,,,,,,,,,,,36,2.3658,1,0,5,5,14,1,9,×,4,9 × 4,congruent,largerFirst,2,1,36,,,,,,,,
,,,,,,,,,,,,,,,689,2022-02-03_09h31.14.351,multiplicationStroop,2021.2.3,Win32,59.94844434,,,,,,,,,,,,,,,,,,,,,,,,,,,,,,,,,25,2.0814,1,0,6,6,31,1,5,×,5,5 × 5,neutral,tie,1,2,25,,,,,,,,
,,,,,,,,,,,,,,,689,2022-02-03_09h31.14.351,multiplicationStroop,2021.2.3,Win32,59.94844434,,,,,,,,,,,,,,,,,,,,,,,,,,,,,,,,,24,1.6473,1,0,7,7,11,1,4,×,6,4 × 6,congruent,smallerFirst,1,2,24,,,,,,,,
,,,,,,,,,,,,,,,689,2022-02-03_09h31.14.351,multiplicationStroop,2021.2.3,Win32,59.94844434,,,,,,,,,,,,,,,,,,,,,,,,,,,,,,,,,16,1.6322,1,0,8,8,30,1,4,×,4,4 × 4,neutral,tie,1,2,16,,,,,,,,
,,,,,,,,,,,,,,,689,2022-02-03_09h31.14.351,multiplicationStroop,2021.2.3,Win32,59.94844434,,,,,,,,,,,,,,,,,,,,,,,,,,,,,,,,,6,2.7469,1,0,9,9,27,1,3,×,2,3 × 2,congruent,largerFirst,2,1,6,,,,,,,,
,,,,,,,,,,,,,,,689,2022-02-03_09h31.14.351,multiplicationStroop,2021.2.3,Win32,59.94844434,,,,,,,,,,,,,,,,,,,,,,,,,,,,,,,,,14,1.3856,1,0,10,10,0,1,2,×,7,2 × 7,congruent,smallerFirst,1,2,14,,,,,,,,
,,,,,,,,,,,,,,,689,2022-02-03_09h31.14.351,multiplicationStroop,2021.2.3,Win32,59.94844434,,,,,,,,,,,,,,,,,,,,,,,,,,,,,,,,,12,1.3664,1,0,11,11,16,1,4,×,3,4 × 3,congruent,largerFirst,2,1,12,,,,,,,,
,,,,,,,,,,,,,,,689,2022-02-03_09h31.14.351,multiplicationStroop,2021.2.3,Win32,59.94844434,,,,,,,,,,,,,,,,,,,,,,,,,,,,,,,,,40,1.8635,1,0,12,12,20,1,8,×,5,8 × 5,congruent,largerFirst,2,1,40,,,,,,,,
,,,,,,,,,,,,,,,689,2022-02-03_09h31.14.351,multiplicationStroop,2021.2.3,Win32,59.94844434,,,,,,,,,,,,,,,,,,,,,,,,,,,,,,,,,56,1.8658,1,0,13,13,22,1,8,×,7,8 × 7,congruent,largerFirst,2,1,56,,,,,,,,
,,,,,,,,,,,,,,,689,2022-02-03_09h31.14.351,multiplicationStroop,2021.2.3,Win32,59.94844434,,,,,,,,,,,,,,,,,,,,,,,,,,,,,,,,,54,1.9646,1,0,14,14,26,1,9,×,6,9 × 6,congruent,largerFirst,2,1,54,,,,,,,,
,,,,,,,,,,,,,,,689,2022-02-03_09h31.14.351,multiplicationStroop,2021.2.3,Win32,59.94844434,,,,,,,,,,,,,,,,,,,,,,,,,,,,,,,,,63,4.8307,1,0,15,15,7,1,7,×,9,7 × 9,congruent,smallerFirst,1,2,63,,,,,,,,
,,,,,,,,,,,,,,,689,2022-02-03_09h31.14.351,multiplicationStroop,2021.2.3,Win32,59.94844434,,,,,,,,,,,,,,,,,,,,,,,,,,,,,,,,,72,2.0365,1,0,16,16,3,1,8,×,9,8 × 9,congruent,smallerFirst,1,2,72,,,,,,,,
,,,,,,,,,,,,,,,689,2022-02-03_09h31.14.351,multiplicationStroop,2021.2.3,Win32,59.94844434,,,,,,,,,,,,,,,,,,,,,,,,,,,,,,,,,27,2.5479,1,0,17,17,12,1,3,×,9,3 × 9,congruent,smallerFirst,1,2,27,,,,,,,,
,,,,,,,,,,,,,,,689,2022-02-03_09h31.14.351,multiplicationStroop,2021.2.3,Win32,59.94844434,,,,,,,,,,,,,,,,,,,,,,,,,,,,,,,,,81,2.0005,1,0,18,18,35,1,9,×,9,9 × 9,neutral,tie,1,2,81,,,,,,,,
,,,,,,,,,,,,,,,689,2022-02-03_09h31.14.351,multiplicationStroop,2021.2.3,Win32,59.94844434,,,,,,,,,,,,,,,,,,,,,,,,,,,,,,,,,42,1.8328,1,0,19,19,17,1,7,×,6,7 × 6,congruent,largerFirst,2,1,42,,,,,,,,
,,,,,,,,,,,,,,,689,2022-02-03_09h31.14.351,multiplicationStroop,2021.2.3,Win32,59.94844434,,,,,,,,,,,,,,,,,,,,,,,,,,,,,,,,,18,1.664,1,0,20,20,25,1,6,×,3,6 × 3,congruent,largerFirst,2,1,18,,,,,,,,
,,,,,,,,,,,,,,,689,2022-02-03_09h31.14.351,multiplicationStroop,2021.2.3,Win32,59.94844434,,,,,,,,,,,,,,,,,,,,,,,,,,,,,,,,,18,1.7151,1,0,21,21,8,1,2,×,9,2 × 9,congruent,smallerFirst,1,2,18,,,,,,,,
,,,,,,,,,,,,,,,689,2022-02-03_09h31.14.351,multiplicationStroop,2021.2.3,Win32,59.94844434,,,,,,,,,,,,,,,,,,,,,,,,,,,,,,,,,48,2.1982,1,0,22,22,4,1,6,×,8,6 × 8,congruent,smallerFirst,1,2,48,,,,,,,,
,,,,,,,,,,,,,,,689,2022-02-03_09h31.14.351,multiplicationStroop,2021.2.3,Win32,59.94844434,,,,,,,,,,,,,,,,,,,,,,,,,,,,,,,,,32,1.6826,1,0,23,23,6,1,4,×,8,4 × 8,congruent,smallerFirst,1,2,32,,,,,,,,
,,,,,,,,,,,,,,,689,2022-02-03_09h31.14.351,multiplicationStroop,2021.2.3,Win32,59.94844434,,,,,,,,,,,,,,,,,,,,,,,,,,,,,,,,,64,2.9987,1,0,24,24,34,1,8,×,8,8 × 8,neutral,tie,1,2,64,,,,,,,,
,,,,,,,,,,,,,,,689,2022-02-03_09h31.14.351,multiplicationStroop,2021.2.3,Win32,59.94844434,,,,,,,,,,,,,,,,,,,,,,,,,,,,,,,,,9,1.8846,1,0,25,25,29,1,3,×,3,3 × 3,neutral,tie,1,2,9,,,,,,,,
,,,,,,,,,,,,,,,689,2022-02-03_09h31.14.351,multiplicationStroop,2021.2.3,Win32,59.94844434,,,,,,,,,,,,,,,,,,,,,,,,,,,,,,,,,35,2.2151,1,0,26,26,15,1,7,×,5,7 × 5,congruent,largerFirst,2,1,35,,,,,,,,
,,,,,,,,,,,,,,,689,2022-02-03_09h31.14.351,multiplicationStroop,2021.2.3,Win32,59.94844434,,,,,,,,,,,,,,,,,,,,,,,,,,,,,,,,,21,1.7988,1,0,27,27,2,1,3,×,7,3 × 7,congruent,smallerFirst,1,2,21,,,,,,,,
,,,,,,,,,,,,,,,689,2022-02-03_09h31.14.351,multiplicationStroop,2021.2.3,Win32,59.94844434,,,,,,,,,,,,,,,,,,,,,,,,,,,,,,,,,45,1.7993,1,0,28,28,9,1,5,×,9,5 × 9,congruent,smallerFirst,1,2,45,,,,,,,,
,,,,,,,,,,,,,,,689,2022-02-03_09h31.14.351,multiplicationStroop,2021.2.3,Win32,59.94844434,,,,,,,,,,,,,,,,,,,,,,,,,,,,,,,,,16,1.7477,1,0,29,29,19,1,8,×,2,8 × 2,congruent,largerFirst,2,1,16,,,,,,,,
,,,,,,,,,,,,,,,689,2022-02-03_09h31.14.351,multiplicationStroop,2021.2.3,Win32,59.94844434,,,,,,,,,,,,,,,,,,,,,,,,,,,,,,,,,30,1.9156,1,0,30,30,1,1,5,×,6,5 × 6,congruent,smallerFirst,1,2,30,,,,,,,,
,,,,,,,,,,,,,,,689,2022-02-03_09h31.14.351,multiplicationStroop,2021.2.3,Win32,59.94844434,,,,,,,,,,,,,,,,,,,,,,,,,,,,,,,,,20,1.7814,1,0,31,31,21,1,5,×,4,5 × 4,congruent,largerFirst,2,1,20,,,,,,,,
,,,,,,,,,,,,,,,689,2022-02-03_09h31.14.351,multiplicationStroop,2021.2.3,Win32,59.94844434,,,,,,,,,,,,,,,,,,,,,,,,,,,,,,,,,36,2.265,1,0,32,32,32,1,6,×,6,6 × 6,neutral,tie,1,2,36,,,,,,,,
,,,,,,,,,,,,,,,689,2022-02-03_09h31.14.351,multiplicationStroop,2021.2.3,Win32,59.94844434,,,,,,,,,,,,,,,,,,,,,,,,,,,,,,,,,8,1.5484,1,0,33,33,23,1,4,×,2,4 × 2,congruent,largerFirst,2,1,8,,,,,,,,
,,,,,,,,,,,,,,,689,2022-02-03_09h31.14.351,multiplicationStroop,2021.2.3,Win32,59.94844434,,,,,,,,,,,,,,,,,,,,,,,,,,,,,,,,,4,1.6326,1,0,34,34,28,1,2,×,2,2 × 2,neutral,tie,1,2,4,,,,,,,,
,,,,,,,,,,,,,,,689,2022-02-03_09h31.14.351,multiplicationStroop,2021.2.3,Win32,59.94844434,,,,,,,,,,,,,,,,,,,,,,,,,,,,,,,,,49,2.2489,1,0,35,35,33,1,7,×,7,7 × 7,neutral,tie,1,2,49,,,,,,,,
,,,,,,,,,,,,,,,689,2022-02-03_09h31.14.351,multiplicationStroop,2021.2.3,Win32,59.94844434,,,,,,,,,,,,,,,,,,,,,,,,,,,,,,,,,,,,,,,,,,,,,,,,,,0,3,3,3,1,stimulusFile/mult_blk4_congruent.xlsx,,
,,,,,,,,,,,,,,,689,2022-02-03_09h31.14.351,multiplicationStroop,2021.2.3,Win32,59.94844434,,,,,,,,,,,,,,,,,,,,,,,,,,,,,,,space,1.1033,72,2.1622,1,0,0,0,25,1,9,×,8,9 × 8,neutral,largerFirst,1.5,1.5,72,,,,,,,,
,,,,,,,,,,,,,,,689,2022-02-03_09h31.14.351,multiplicationStroop,2021.2.3,Win32,59.94844434,,,,,,,,,,,,,,,,,,,,,,,,,,,,,,,,,15,1.4985,1,0,1,1,19,1,5,×,3,5 × 3,neutral,largerFirst,1.5,1.5,15,,,,,,,,
,,,,,,,,,,,,,,,689,2022-02-03_09h31.14.351,multiplicationStroop,2021.2.3,Win32,59.94844434,,,,,,,,,,,,,,,,,,,,,,,,,,,,,,,,,21,1.5823,1,0,2,2,22,1,7,×,3,7 × 3,neutral,largerFirst,1.5,1.5,21,,,,,,,,
,,,,,,,,,,,,,,,689,2022-02-03_09h31.14.351,multiplicationStroop,2021.2.3,Win32,59.94844434,,,,,,,,,,,,,,,,,,,,,,,,,,,,,,,,,24,1.9476,1,0,3,3,8,1,3,×,8,3 × 8,neutral,smallerFirst,1.5,1.5,24,,,,,,,,
,,,,,,,,,,,,,,,689,2022-02-03_09h31.14.351,multiplicationStroop,2021.2.3,Win32,59.94844434,,,,,,,,,,,,,,,,,,,,,,,,,,,,,,,,,32,1.8316,1,0,4,4,9,1,4,×,8,4 × 8,neutral,smallerFirst,1.5,1.5,32,,,,,,,,
,,,,,,,,,,,,,,,689,2022-02-03_09h31.14.351,multiplicationStroop,2021.2.3,Win32,59.94844434,,,,,,,,,,,,,,,,,,,,,,,,,,,,,,,,,64,2.299,1,0,5,5,34,1,8,×,8,8 × 8,neutral,tie,1.5,1.5,64,,,,,,,,
,,,,,,,,,,,,,,,689,2022-02-03_09h31.14.351,multiplicationStroop,2021.2.3,Win32,59.94844434,,,,,,,,,,,,,,,,,,,,,,,,,,,,,,,,,3,1.7644,0,0,6,6,32,1,6,×,6,6 × 6,neutral,tie,1.5,1.5,36,,,,,,,,
,,,,,,,,,,,,,,,689,2022-02-03_09h31.14.351,multiplicationStroop,2021.2.3,Win32,59.94844434,,,,,,,,,,,,,,,,,,,,,,,,,,,,,,,,,42,2.6486,1,0,7,7,20,1,7,×,6,7 × 6,neutral,largerFirst,1.5,1.5,42,,,,,,,,
,,,,,,,,,,,,,,,689,2022-02-03_09h31.14.351,multiplicationStroop,2021.2.3,Win32,59.94844434,,,,,,,,,,,,,,,,,,,,,,,,,,,,,,,,,4,1.6711,1,0,8,8,28,1,2,×,2,2 × 2,neutral,tie,1.5,1.5,4,,,,,,,,
,,,,,,,,,,,,,,,689,2022-02-03_09h31.14.351,multiplicationStroop,2021.2.3,Win32,59.94844434,,,,,,,,,,,,,,,,,,,,,,,,,,,,,,,,,49,2.4309,1,0,9,9,33,1,7,×,7,7 × 7,neutral,tie,1.5,1.5,49,,,,,,,,
,,,,,,,,,,,,,,,689,2022-02-03_09h31.14.351,multiplicationStroop,2021.2.3,Win32,59.94844434,,,,,,,,,,,,,,,,,,,,,,,,,,,,,,,,,24,1.9351,1,0,10,10,16,1,6,×,4,6 × 4,neutral,largerFirst,1.5,1.5,24,,,,,,,,
,,,,,,,,,,,,,,,689,2022-02-03_09h31.14.351,multiplicationStroop,2021.2.3,Win32,59.94844434,,,,,,,,,,,,,,,,,,,,,,,,,,,,,,,,,20,1.7491,1,0,11,11,6,1,4,×,5,4 × 5,neutral,smallerFirst,1.5,1.5,20,,,,,,,,
,,,,,,,,,,,,,,,689,2022-02-03_09h31.14.351,multiplicationStroop,2021.2.3,Win32,59.94844434,,,,,,,,,,,,,,,,,,,,,,,,,,,,,,,,,81,1.8475,1,0,12,12,35,1,9,×,9,9 × 9,neutral,tie,1.5,1.5,81,,,,,,,,
,,,,,,,,,,,,,,,689,2022-02-03_09h31.14.351,multiplicationStroop,2021.2.3,Win32,59.94844434,,,,,,,,,,,,,,,,,,,,,,,,,,,,,,,,,9,1.4989,1,0,13,13,29,1,3,×,3,3 × 3,neutral,tie,1.5,1.5,9,,,,,,,,
,,,,,,,,,,,,,,,689,2022-02-03_09h31.14.351,multiplicationStroop,2021.2.3,Win32,59.94844434,,,,,,,,,,,,,,,,,,,,,,,,,,,,,,,,,30,1.8153,1,0,14,14,5,1,5,×,6,5 × 6,neutral,smallerFirst,1.5,1.5,30,,,,,,,,
,,,,,,,,,,,,,,,689,2022-02-03_09h31.14.351,multiplicationStroop,2021.2.3,Win32,59.94844434,,,,,,,,,,,,,,,,,,,,,,,,,,,,,,,,,12,1.6326,1,0,15,15,7,1,3,×,4,3 × 4,neutral,smallerFirst,1.5,1.5,12,,,,,,,,
,,,,,,,,,,,,,,,689,2022-02-03_09h31.14.351,multiplicationStroop,2021.2.3,Win32,59.94844434,,,,,,,,,,,,,,,,,,,,,,,,,,,,,,,,,16,1.5972,1,0,16,16,27,1,8,×,2,8 × 2,neutral,largerFirst,1.5,1.5,16,,,,,,,,
,,,,,,,,,,,,,,,689,2022-02-03_09h31.14.351,multiplicationStroop,2021.2.3,Win32,59.94844434,,,,,,,,,,,,,,,,,,,,,,,,,,,,,,,,,18,2.4986,1,0,17,17,14,1,6,×,3,6 × 3,neutral,largerFirst,1.5,1.5,18,,,,,,,,
,,,,,,,,,,,,,,,689,2022-02-03_09h31.14.351,multiplicationStroop,2021.2.3,Win32,59.94844434,,,,,,,,,,,,,,,,,,,,,,,,,,,,,,,,,40,1.9152,1,0,18,18,10,1,5,×,8,5 × 8,neutral,smallerFirst,1.5,1.5,40,,,,,,,,
,,,,,,,,,,,,,,,689,2022-02-03_09h31.14.351,multiplicationStroop,2021.2.3,Win32,59.94844434,,,,,,,,,,,,,,,,,,,,,,,,,,,,,,,,,28,1.815,1,0,19,19,3,1,4,×,7,4 × 7,neutral,smallerFirst,1.5,1.5,28,,,,,,,,
,,,,,,,,,,,,,,,689,2022-02-03_09h31.14.351,multiplicationStroop,2021.2.3,Win32,59.94844434,,,,,,,,,,,,,,,,,,,,,,,,,,,,,,,,,25,1.7483,1,0,20,20,31,1,5,×,5,5 × 5,neutral,tie,1.5,1.5,25,,,,,,,,
,,,,,,,,,,,,,,,689,2022-02-03_09h31.14.351,multiplicationStroop,2021.2.3,Win32,59.94844434,,,,,,,,,,,,,,,,,,,,,,,,,,,,,,,,,27,1.7157,1,0,21,21,0,1,3,×,9,3 × 9,neutral,smallerFirst,1.5,1.5,27,,,,,,,,
,,,,,,,,,,,,,,,689,2022-02-03_09h31.14.351,multiplicationStroop,2021.2.3,Win32,59.94844434,,,,,,,,,,,,,,,,,,,,,,,,,,,,,,,,,56,1.6822,1,0,22,22,23,1,8,×,7,8 × 7,neutral,largerFirst,1.5,1.5,56,,,,,,,,
,,,,,,,,,,,,,,,689,2022-02-03_09h31.14.351,multiplicationStroop,2021.2.3,Win32,59.94844434,,,,,,,,,,,,,,,,,,,,,,,,,,,,,,,,,35,2.3488,1,0,23,23,15,1,7,×,5,7 × 5,neutral,largerFirst,1.5,1.5,35,,,,,,,,
,,,,,,,,,,,,,,,689,2022-02-03_09h31.14.351,multiplicationStroop,2021.2.3,Win32,59.94844434,,,,,,,,,,,,,,,,,,,,,,,,,,,,,,,,,16,1.6915,1,0,24,24,30,1,4,×,4,4 × 4,neutral,tie,1.5,1.5,16,,,,,,,,
,,,,,,,,,,,,,,,689,2022-02-03_09h31.14.351,multiplicationStroop,2021.2.3,Win32,59.94844434,,,,,,,,,,,,,,,,,,,,,,,,,,,,,,,,,48,1.9115,1,0,25,25,1,1,6,×,8,6 × 8,neutral,smallerFirst,1.5,1.5,48,,,,,,,,
,,,,,,,,,,,,,,,689,2022-02-03_09h31.14.351,multiplicationStroop,2021.2.3,Win32,59.94844434,,,,,,,,,,,,,,,,,,,,,,,,,,,,,,,,,6,1.5477,1,0,26,26,12,1,2,×,3,2 × 3,neutral,smallerFirst,1.5,1.5,6,,,,,,,,
,,,,,,,,,,,,,,,689,2022-02-03_09h31.14.351,multiplicationStroop,2021.2.3,Win32,59.94844434,,,,,,,,,,,,,,,,,,,,,,,,,,,,,,,,,12,2.1146,1,0,27,27,11,1,2,×,6,2 × 6,neutral,smallerFirst,1.5,1.5,12,,,,,,,,
,,,,,,,,,,,,,,,689,2022-02-03_09h31.14.351,multiplicationStroop,2021.2.3,Win32,59.94844434,,,,,,,,,,,,,,,,,,,,,,,,,,,,,,,,,45,1.7326,1,0,28,28,24,1,9,×,5,9 × 5,neutral,largerFirst,1.5,1.5,45,,,,,,,,
,,,,,,,,,,,,,,,689,2022-02-03_09h31.14.351,multiplicationStroop,2021.2.3,Win32,59.94844434,,,,,,,,,,,,,,,,,,,,,,,,,,,,,,,,,54,2.4987,1,0,29,29,21,1,9,×,6,9 × 6,neutral,largerFirst,1.5,1.5,54,,,,,,,,
,,,,,,,,,,,,,,,689,2022-02-03_09h31.14.351,multiplicationStroop,2021.2.3,Win32,59.94844434,,,,,,,,,,,,,,,,,,,,,,,,,,,,,,,,,10,1.5981,1,0,30,30,18,1,5,×,2,5 × 2,neutral,largerFirst,1.5,1.5,10,,,,,,,,
,,,,,,,,,,,,,,,689,2022-02-03_09h31.14.351,multiplicationStroop,2021.2.3,Win32,59.94844434,,,,,,,,,,,,,,,,,,,,,,,,,,,,,,,,,36,2.3315,1,0,31,31,13,1,4,×,9,4 × 9,neutral,smallerFirst,1.5,1.5,36,,,,,,,,
,,,,,,,,,,,,,,,689,2022-02-03_09h31.14.351,multiplicationStroop,2021.2.3,Win32,59.94844434,,,,,,,,,,,,,,,,,,,,,,,,,,,,,,,,,14,1.5828,1,0,32,32,2,1,2,×,7,2 × 7,neutral,smallerFirst,1.5,1.5,14,,,,,,,,
,,,,,,,,,,,,,,,689,2022-02-03_09h31.14.351,multiplicationStroop,2021.2.3,Win32,59.94844434,,,,,,,,,,,,,,,,,,,,,,,,,,,,,,,,,8,1.5982,1,0,33,33,17,1,4,×,2,4 × 2,neutral,largerFirst,1.5,1.5,8,,,,,,,,
,,,,,,,,,,,,,,,689,2022-02-03_09h31.14.351,multiplicationStroop,2021.2.3,Win32,59.94844434,,,,,,,,,,,,,,,,,,,,,,,,,,,,,,,,,63,3.6315,1,0,34,34,26,1,9,×,7,9 × 7,neutral,largerFirst,1.5,1.5,63,,,,,,,,
,,,,,,,,,,,,,,,689,2022-02-03_09h31.14.351,multiplicationStroop,2021.2.3,Win32,59.94844434,,,,,,,,,,,,,,,,,,,,,,,,,,,,,,,,,18,1.6051,1,0,35,35,4,1,2,×,9,2 × 9,neutral,smallerFirst,1.5,1.5,18,,,,,,,,
,,,,,,,,,,,,,,,689,2022-02-03_09h31.14.351,multiplicationStroop,2021.2.3,Win32,59.94844434,,,,,,,,,,,,,,,,,,,,,,,,,,,,,,,,,,,,,,,,,,,,,,,,,,0,4,4,0,1,stimulusFile/mult_blk1.xlsx,,
,,,,,,,,,,,,,,,689,2022-02-03_09h31.14.351,multiplicationStroop,2021.2.3,Win32,59.94844434,,,,,,,,,,,,,,,,,,,,,,,,,,,,,,,space,2.0092,18,2.4143,1,0,0,0,2,1,2,×,9,2 × 9,incongruent,smallerFirst,2,1,18,,,,,,,,
,,,,,,,,,,,,,,,689,2022-02-03_09h31.14.351,multiplicationStroop,2021.2.3,Win32,59.94844434,,,,,,,,,,,,,,,,,,,,,,,,,,,,,,,,,35,2.0157,1,0,1,1,12,1,5,×,7,5 × 7,incongruent,smallerFirst,2,1,35,,,,,,,,
,,,,,,,,,,,,,,,689,2022-02-03_09h31.14.351,multiplicationStroop,2021.2.3,Win32,59.94844434,,,,,,,,,,,,,,,,,,,,,,,,,,,,,,,,,42,2.1146,1,0,2,2,17,1,7,×,6,7 × 6,incongruent,largerFirst,1,2,42,,,,,,,,
,,,,,,,,,,,,,,,689,2022-02-03_09h31.14.351,multiplicationStroop,2021.2.3,Win32,59.94844434,,,,,,,,,,,,,,,,,,,,,,,,,,,,,,,,,72,1.8989,1,0,3,3,0,1,8,×,9,8 × 9,incongruent,smallerFirst,2,1,72,,,,,,,,
,,,,,,,,,,,,,,,689,2022-02-03_09h31.14.351,multiplicationStroop,2021.2.3,Win32,59.94844434,,,,,,,,,,,,,,,,,,,,,,,,,,,,,,,,,36,2.0151,1,0,4,4,15,1,9,×,4,9 × 4,incongruent,largerFirst,1,2,36,,,,,,,,
,,,,,,,,,,,,,,,689,2022-02-03_09h31.14.351,multiplicationStroop,2021.2.3,Win32,59.94844434,,,,,,,,,,,,,,,,,,,,,,,,,,,,,,,,,45,1.682,1,0,5,5,22,1,9,×,5,9 × 5,incongruent,largerFirst,1,2,45,,,,,,,,
,,,,,,,,,,,,,,,689,2022-02-03_09h31.14.351,multiplicationStroop,2021.2.3,Win32,59.94844434,,,,,,,,,,,,,,,,,,,,,,,,,,,,,,,,,18,1.8807,1,0,6,6,8,1,3,×,6,3 × 6,incongruent,smallerFirst,2,1,18,,,,,,,,
,,,,,,,,,,,,,,,689,2022-02-03_09h31.14.351,multiplicationStroop,2021.2.3,Win32,59.94844434,,,,,,,,,,,,,,,,,,,,,,,,,,,,,,,,,30,1.8814,1,0,7,7,25,1,6,×,5,6 × 5,incongruent,largerFirst,1,2,30,,,,,,,,
,,,,,,,,,,,,,,,689,2022-02-03_09h31.14.351,multiplicationStroop,2021.2.3,Win32,59.94844434,,,,,,,,,,,,,,,,,,,,,,,,,,,,,,,,,32,2.0821,1,0,8,8,7,1,4,×,8,4 × 8,incongruent,smallerFirst,2,1,32,,,,,,,,
,,,,,,,,,,,,,,,689,2022-02-03_09h31.14.351,multiplicationStroop,2021.2.3,Win32,59.94844434,,,,,,,,,,,,,,,,,,,,,,,,,,,,,,,,,36,2.2721,1,0,9,9,32,1,6,×,6,6 × 6,incongruent,tie,1,2,36,,,,,,,,
,,,,,,,,,,,,,,,689,2022-02-03_09h31.14.351,multiplicationStroop,2021.2.3,Win32,59.94844434,,,,,,,,,,,,,,,,,,,,,,,,,,,,,,,,,21,1.4984,1,0,10,10,26,1,7,×,3,7 × 3,incongruent,largerFirst,1,2,21,,,,,,,,
,,,,,,,,,,,,,,,689,2022-02-03_09h31.14.351,multiplicationStroop,2021.2.3,Win32,59.94844434,,,,,,,,,,,,,,,,,,,,,,,,,,,,,,,,,81,1.8986,1,0,11,11,35,1,9,×,9,9 × 9,incongruent,tie,1,2,81,,,,,,,,
,,,,,,,,,,,,,,,689,2022-02-03_09h31.14.351,multiplicationStroop,2021.2.3,Win32,59.94844434,,,,,,,,,,,,,,,,,,,,,,,,,,,,,,,,,49,2.1148,1,0,12,12,33,1,7,×,7,7 × 7,incongruent,tie,1,2,49,,,,,,,,
,,,,,,,,,,,,,,,689,2022-02-03_09h31.14.351,multiplicationStroop,2021.2.3,Win32,59.94844434,,,,,,,,,,,,,,,,,,,,,,,,,,,,,,,,,54,2.1648,1,0,13,13,6,1,6,×,9,6 × 9,incongruent,smallerFirst,2,1,54,,,,,,,,
,,,,,,,,,,,,,,,689,2022-02-03_09h31.14.351,multiplicationStroop,2021.2.3,Win32,59.94844434,,,,,,,,,,,,,,,,,,,,,,,,,,,,,,,,,9,1.5379,1,0,14,14,29,1,3,×,3,3 × 3,incongruent,tie,1,2,9,,,,,,,,
,,,,,,,,,,,,,,,689,2022-02-03_09h31.14.351,multiplicationStroop,2021.2.3,Win32,59.94844434,,,,,,,,,,,,,,,,,,,,,,,,,,,,,,,,,10,1.7147,1,0,15,15,21,1,5,×,2,5 × 2,incongruent,largerFirst,1,2,10,,,,,,,,
,,,,,,,,,,,,,,,689,2022-02-03_09h31.14.351,multiplicationStroop,2021.2.3,Win32,59.94844434,,,,,,,,,,,,,,,,,,,,,,,,,,,,,,,,,16,1.7486,1,0,16,16,23,1,8,×,2,8 × 2,incongruent,largerFirst,1,2,16,,,,,,,,
,,,,,,,,,,,,,,,689,2022-02-03_09h31.14.351,multiplicationStroop,2021.2.3,Win32,59.94844434,,,,,,,,,,,,,,,,,,,,,,,,,,,,,,,,,25,1.7653,1,0,17,17,31,1,5,×,5,5 × 5,incongruent,tie,1,2,25,,,,,,,,
,,,,,,,,,,,,,,,689,2022-02-03_09h31.14.351,multiplicationStroop,2021.2.3,Win32,59.94844434,,,,,,,,,,,,,,,,,,,,,,,,,,,,,,,,,24,1.6144,1,0,18,18,20,1,6,×,4,6 × 4,incongruent,largerFirst,1,2,24,,,,,,,,
,,,,,,,,,,,,,,,689,2022-02-03_09h31.14.351,multiplicationStroop,2021.2.3,Win32,59.94844434,,,,,,,,,,,,,,,,,,,,,,,,,,,,,,,,,16,1.4983,1,0,19,19,30,1,4,×,4,4 × 4,incongruent,tie,1,2,16,,,,,,,,
,,,,,,,,,,,,,,,689,2022-02-03_09h31.14.351,multiplicationStroop,2021.2.3,Win32,59.94844434,,,,,,,,,,,,,,,,,,,,,,,,,,,,,,,,,20,1.9489,1,0,20,20,27,1,5,×,4,5 × 4,incongruent,largerFirst,1,2,20,,,,,,,,
,,,,,,,,,,,,,,,689,2022-02-03_09h31.14.351,multiplicationStroop,2021.2.3,Win32,59.94844434,,,,,,,,,,,,,,,,,,,,,,,,,,,,,,,,,6,1.7987,1,0,21,21,11,1,2,×,3,2 × 3,incongruent,smallerFirst,2,1,6,,,,,,,,
,,,,,,,,,,,,,,,689,2022-02-03_09h31.14.351,multiplicationStroop,2021.2.3,Win32,59.94844434,,,,,,,,,,,,,,,,,,,,,,,,,,,,,,,,,12,1.5151,1,0,22,22,5,1,3,×,4,3 × 4,incongruent,smallerFirst,2,1,12,,,,,,,,
,,,,,,,,,,,,,,,689,2022-02-03_09h31.14.351,multiplicationStroop,2021.2.3,Win32,59.94844434,,,,,,,,,,,,,,,,,,,,,,,,,,,,,,,,,56,1.6147,1,0,23,23,14,1,8,×,7,8 × 7,incongruent,largerFirst,1,2,56,,,,,,,,
,,,,,,,,,,,,,,,689,2022-02-03_09h31.14.351,multiplicationStroop,2021.2.3,Win32,59.94844434,,,,,,,,,,,,,,,,,,,,,,,,,,,,,,,,,40,2.0322,1,0,24,24,13,1,5,×,8,5 × 8,incongruent,smallerFirst,2,1,40,,,,,,,,
,,,,,,,,,,,,,,,689,2022-02-03_09h31.14.351,multiplicationStroop,2021.2.3,Win32,59.94844434,,,,,,,,,,,,,,,,,,,,,,,,,,,,,,,,,12,1.6984,1,0,25,25,19,1,6,×,2,6 × 2,incongruent,largerFirst,1,2,12,,,,,,,,
,,,,,,,,,,,,,,,689,2022-02-03_09h31.14.351,multiplicationStroop,2021.2.3,Win32,59.94844434,,,,,,,,,,,,,,,,,,,,,,,,,,,,,,,,,8,1.6326,1,0,26,26,24,1,4,×,2,4 × 2,incongruent,largerFirst,1,2,8,,,,,,,,
,,,,,,,,,,,,,,,689,2022-02-03_09h31.14.351,multiplicationStroop,2021.2.3,Win32,59.94844434,,,,,,,,,,,,,,,,,,,,,,,,,,,,,,,,,64,2.1644,1,0,27,27,34,1,8,×,8,8 × 8,incongruent,tie,1,2,64,,,,,,,,
,,,,,,,,,,,,,,,689,2022-02-03_09h31.14.351,multiplicationStroop,2021.2.3,Win32,59.94844434,,,,,,,,,,,,,,,,,,,,,,,,,,,,,,,,,14,1.7822,1,0,28,28,4,1,2,×,7,2 × 7,incongruent,smallerFirst,2,1,14,,,,,,,,
,,,,,,,,,,,,,,,689,2022-02-03_09h31.14.351,multiplicationStroop,2021.2.3,Win32,59.94844434,,,,,,,,,,,,,,,,,,,,,,,,,,,,,,,,,4,1.6655,1,0,29,29,28,1,2,×,2,2 × 2,incongruent,tie,1,2,4,,,,,,,,
,,,,,,,,,,,,,,,689,2022-02-03_09h31.14.351,multiplicationStroop,2021.2.3,Win32,59.94844434,,,,,,,,,,,,,,,,,,,,,,,,,,,,,,,,,63,3.1645,1,0,30,30,3,1,7,×,9,7 × 9,incongruent,smallerFirst,2,1,63,,,,,,,,
,,,,,,,,,,,,,,,689,2022-02-03_09h31.14.351,multiplicationStroop,2021.2.3,Win32,59.94844434,,,,,,,,,,,,,,,,,,,,,,,,,,,,,,,,,48,2.3848,1,0,31,31,1,1,6,×,8,6 × 8,incongruent,smallerFirst,2,1,48,,,,,,,,
,,,,,,,,,,,,,,,689,2022-02-03_09h31.14.351,multiplicationStroop,2021.2.3,Win32,59.94844434,,,,,,,,,,,,,,,,,,,,,,,,,,,,,,,,,15,1.9323,1,0,32,32,10,1,3,×,5,3 × 5,incongruent,smallerFirst,2,1,15,,,,,,,,
,,,,,,,,,,,,,,,689,2022-02-03_09h31.14.351,multiplicationStroop,2021.2.3,Win32,59.94844434,,,,,,,,,,,,,,,,,,,,,,,,,,,,,,,,,24,1.7486,1,0,33,33,9,1,3,×,8,3 × 8,incongruent,smallerFirst,2,1,24,,,,,,,,
,,,,,,,,,,,,,,,689,2022-02-03_09h31.14.351,multiplicationStroop,2021.2.3,Win32,59.94844434,,,,,,,,,,,,,,,,,,,,,,,,,,,,,,,,,27,2.199,1,0,34,34,18,1,9,×,3,9 × 3,incongruent,largerFirst,1,2,27,,,,,,,,
,,,,,,,,,,,,,,,689,2022-02-03_09h31.14.351,multiplicationStroop,2021.2.3,Win32,59.94844434,,,,,,,,,,,,,,,,,,,,,,,,,,,,,,,,,28,2.464,1,0,35,35,16,1,7,×,4,7 × 4,incongruent,largerFirst,1,2,28,,,,,,,,
,,,,,,,,,,,,,,,689,2022-02-03_09h31.14.351,multiplicationStroop,2021.2.3,Win32,59.94844434,,,,,,,,,,,,,,,,,,,,,,,,,,,,,,,,,,,,,,,,,,,,,,,,,,0,5,5,5,1,stimulusFile/mult_blk6_INcongruent.xlsx,,
,,,,,,,,,,,,,,,689,2022-02-03_09h31.14.351,multiplicationStroop,2021.2.3,Win32,59.94844434,,,,,,,,,,,,,,,,,,,,,,,,,,,,,,,,,,,,,,,,,,,,,,,,,,,,,,,,space,5.2295