welcomeKey_resp.keys,welcomeKey_resp.rt,X Scale,Y Scale,rt_resp_4.keys,rt_resp_4.corr,rt_resp_4.rt,speedtest_2.thisRepN,speedtest_2.thisTrialN,speedtest_2.thisN,speedtest_2.thisIndex,speedtest_2.ran,numberSc,posX,positionLayout,participant,date,expName,psychopyVersion,OS,frameRate,ct_instrresp.keys,ct_instrresp.rt,key_resp_2.keys,key_resp_2.rt,ct_keyResp.keys,ct_keyResp.corr,ct_keyResp.rt,trials.thisRepN,trials.thisTrialN,trials.thisN,trials.thisIndex,trials.ran,leftNo,rightNo,displayProblem,numDistance,leftNo_size,rightNo_size,Dims,keyAnswer,TS_Loop.thisRepN,TS_Loop.thisTrialN,TS_Loop.thisN,TS_Loop.thisIndex,TS_Loop.ran,Condition,ActionInst,instrImage,mltptaskInst_resp.keys,mltptaskInst_resp.rt,continue_resp_2.keys,continue_resp_2.rt,multp_Answer,multi_RT,multiplyCorr,LoopingMultiply.thisRepN,LoopingMultiply.thisTrialN,LoopingMultiply.thisN,LoopingMultiply.thisIndex,LoopingMultiply.ran,factor1,multiplySign,factor2,multliplyProblem,physicalSize,orderOperand,sizeF1,sizeF2,mult_answer,trials_stroop.thisRepN,trials_stroop.thisTrialN,trials_stroop.thisN,trials_stroop.thisIndex,trials_stroop.ran,multiplicationFile,esckey_resp_2.keys,esckey_resp_2.rt
y,9.2224,60,40,left,1,1.0152,0,0,0,5,1,7,-200,left,690,2022-02-06_17h44.18.508,multiplicationStroop,2021.2.3,Win32,60.06727535,,,,,,,,,,,,,,,,,,,,,,,,,,,,,,,,,,,,,,,,,,,,,,,,,,,,,,,,,
,,,,left,1,0.4043,0,1,1,0,1,1,-200,left,690,2022-02-06_17h44.18.508,multiplicationStroop,2021.2.3,Win32,60.06727535,,,,,,,,,,,,,,,,,,,,,,,,,,,,,,,,,,,,,,,,,,,,,,,,,,,,,,,,,
,,,,right,1,0.3246,0,2,2,15,1,9,200,right,690,2022-02-06_17h44.18.508,multiplicationStroop,2021.2.3,Win32,60.06727535,,,,,,,,,,,,,,,,,,,,,,,,,,,,,,,,,,,,,,,,,,,,,,,,,,,,,,,,,
,,,,left,1,0.3148,0,3,3,2,1,3,-200,left,690,2022-02-06_17h44.18.508,multiplicationStroop,2021.2.3,Win32,60.06727535,,,,,,,,,,,,,,,,,,,,,,,,,,,,,,,,,,,,,,,,,,,,,,,,,,,,,,,,,
,,,,left,1,0.3051,0,4,4,6,1,8,-200,left,690,2022-02-06_17h44.18.508,multiplicationStroop,2021.2.3,Win32,60.06727535,,,,,,,,,,,,,,,,,,,,,,,,,,,,,,,,,,,,,,,,,,,,,,,,,,,,,,,,,
,,,,left,1,0.2768,0,5,5,4,1,6,-200,left,690,2022-02-06_17h44.18.508,multiplicationStroop,2021.2.3,Win32,60.06727535,,,,,,,,,,,,,,,,,,,,,,,,,,,,,,,,,,,,,,,,,,,,,,,,,,,,,,,,,
,,,,left,1,0.3096,0,6,6,3,1,4,-200,left,690,2022-02-06_17h44.18.508,multiplicationStroop,2021.2.3,Win32,60.06727535,,,,,,,,,,,,,,,,,,,,,,,,,,,,,,,,,,,,,,,,,,,,,,,,,,,,,,,,,
,,,,left,1,0.28,0,7,7,1,1,2,-200,left,690,2022-02-06_17h44.18.508,multiplicationStroop,2021.2.3,Win32,60.06727535,,,,,,,,,,,,,,,,,,,,,,,,,,,,,,,,,,,,,,,,,,,,,,,,,,,,,,,,,
,,,,right,1,0.2797,0,8,8,10,1,3,200,right,690,2022-02-06_17h44.18.508,multiplicationStroop,2021.2.3,Win32,60.06727535,,,,,,,,,,,,,,,,,,,,,,,,,,,,,,,,,,,,,,,,,,,,,,,,,,,,,,,,,
,,,,left,1,0.2711,0,9,9,7,1,9,-200,left,690,2022-02-06_17h44.18.508,multiplicationStroop,2021.2.3,Win32,60.06727535,,,,,,,,,,,,,,,,,,,,,,,,,,,,,,,,,,,,,,,,,,,,,,,,,,,,,,,,,
,,,,right,1,0.3303,0,10,10,8,1,1,200,right,690,2022-02-06_17h44.18.508,multiplicationStroop,2021.2.3,Win32,60.06727535,,,,,,,,,,,,,,,,,,,,,,,,,,,,,,,,,,,,,,,,,,,,,,,,,,,,,,,,,
,,,,right,1,0.3296,0,11,11,13,1,7,200,right,690,2022-02-06_17h44.18.508,multiplicationStroop,2021.2.3,Win32,60.06727535,,,,,,,,,,,,,,,,,,,,,,,,,,,,,,,,,,,,,,,,,,,,,,,,,,,,,,,,,
,,,,right,1,0.3425,0,12,12,11,1,4,200,right,690,2022-02-06_17h44.18.508,multiplicationStroop,2021.2.3,Win32,60.06727535,,,,,,,,,,,,,,,,,,,,,,,,,,,,,,,,,,,,,,,,,,,,,,,,,,,,,,,,,
,,,,right,1,0.3067,0,13,13,12,1,6,200,right,690,2022-02-06_17h44.18.508,multiplicationStroop,2021.2.3,Win32,60.06727535,,,,,,,,,,,,,,,,,,,,,,,,,,,,,,,,,,,,,,,,,,,,,,,,,,,,,,,,,
,,,,left,0,0.314,0,14,14,9,1,2,200,right,690,2022-02-06_17h44.18.508,multiplicationStroop,2021.2.3,Win32,60.06727535,,,,,,,,,,,,,,,,,,,,,,,,,,,,,,,,,,,,,,,,,,,,,,,,,,,,,,,,,
,,,,right,1,0.3889,0,15,15,14,1,8,200,right,690,2022-02-06_17h44.18.508,multiplicationStroop,2021.2.3,Win32,60.06727535,,,,,,,,,,,,,,,,,,,,,,,,,,,,,,,,,,,,,,,,,,,,,,,,,,,,,,,,,
,,,,right,1,0.2801,1,0,16,13,1,7,200,right,690,2022-02-06_17h44.18.508,multiplicationStroop,2021.2.3,Win32,60.06727535,,,,,,,,,,,,,,,,,,,,,,,,,,,,,,,,,,,,,,,,,,,,,,,,,,,,,,,,,
,,,,right,1,0.3017,1,1,17,11,1,4,200,right,690,2022-02-06_17h44.18.508,multiplicationStroop,2021.2.3,Win32,60.06727535,,,,,,,,,,,,,,,,,,,,,,,,,,,,,,,,,,,,,,,,,,,,,,,,,,,,,,,,,
,,,,right,1,0.2789,1,2,18,15,1,9,200,right,690,2022-02-06_17h44.18.508,multiplicationStroop,2021.2.3,Win32,60.06727535,,,,,,,,,,,,,,,,,,,,,,,,,,,,,,,,,,,,,,,,,,,,,,,,,,,,,,,,,
,,,,right,1,0.2458,1,3,19,8,1,1,200,right,690,2022-02-06_17h44.18.508,multiplicationStroop,2021.2.3,Win32,60.06727535,,,,,,,,,,,,,,,,,,,,,,,,,,,,,,,,,,,,,,,,,,,,,,,,,,,,,,,,,
,,,,right,1,0.2844,1,4,20,14,1,8,200,right,690,2022-02-06_17h44.18.508,multiplicationStroop,2021.2.3,Win32,60.06727535,,,,,,,,,,,,,,,,,,,,,,,,,,,,,,,,,,,,,,,,,,,,,,,,,,,,,,,,,
,,,,left,1,0.3492,1,5,21,0,1,1,-200,left,690,2022-02-06_17h44.18.508,multiplicationStroop,2021.2.3,Win32,60.06727535,,,,,,,,,,,,,,,,,,,,,,,,,,,,,,,,,,,,,,,,,,,,,,,,,,,,,,,,,
,,,,right,1,0.2859,1,6,22,10,1,3,200,right,690,2022-02-06_17h44.18.508,multiplicationStroop,2021.2.3,Win32,60.06727535,,,,,,,,,,,,,,,,,,,,,,,,,,,,,,,,,,,,,,,,,,,,,,,,,,,,,,,,,
,,,,left,1,0.2761,1,7,23,7,1,9,-200,left,690,2022-02-06_17h44.18.508,multiplicationStroop,2021.2.3,Win32,60.06727535,,,,,,,,,,,,,,,,,,,,,,,,,,,,,,,,,,,,,,,,,,,,,,,,,,,,,,,,,
,,,,left,1,0.2828,1,8,24,4,1,6,-200,left,690,2022-02-06_17h44.18.508,multiplicationStroop,2021.2.3,Win32,60.06727535,,,,,,,,,,,,,,,,,,,,,,,,,,,,,,,,,,,,,,,,,,,,,,,,,,,,,,,,,
,,,,left,1,0.2669,1,9,25,1,1,2,-200,left,690,2022-02-06_17h44.18.508,multiplicationStroop,2021.2.3,Win32,60.06727535,,,,,,,,,,,,,,,,,,,,,,,,,,,,,,,,,,,,,,,,,,,,,,,,,,,,,,,,,
,,,,left,1,0.2462,1,10,26,5,1,7,-200,left,690,2022-02-06_17h44.18.508,multiplicationStroop,2021.2.3,Win32,60.06727535,,,,,,,,,,,,,,,,,,,,,,,,,,,,,,,,,,,,,,,,,,,,,,,,,,,,,,,,,
,,,,right,1,0.3009,1,11,27,12,1,6,200,right,690,2022-02-06_17h44.18.508,multiplicationStroop,2021.2.3,Win32,60.06727535,,,,,,,,,,,,,,,,,,,,,,,,,,,,,,,,,,,,,,,,,,,,,,,,,,,,,,,,,
,,,,left,1,0.2537,1,12,28,3,1,4,-200,left,690,2022-02-06_17h44.18.508,multiplicationStroop,2021.2.3,Win32,60.06727535,,,,,,,,,,,,,,,,,,,,,,,,,,,,,,,,,,,,,,,,,,,,,,,,,,,,,,,,,
,,,,left,1,0.3154,1,13,29,6,1,8,-200,left,690,2022-02-06_17h44.18.508,multiplicationStroop,2021.2.3,Win32,60.06727535,,,,,,,,,,,,,,,,,,,,,,,,,,,,,,,,,,,,,,,,,,,,,,,,,,,,,,,,,
,,,,left,1,0.323,1,14,30,2,1,3,-200,left,690,2022-02-06_17h44.18.508,multiplicationStroop,2021.2.3,Win32,60.06727535,,,,,,,,,,,,,,,,,,,,,,,,,,,,,,,,,,,,,,,,,,,,,,,,,,,,,,,,,
,,,,right,1,0.2668,1,15,31,9,1,2,200,right,690,2022-02-06_17h44.18.508,multiplicationStroop,2021.2.3,Win32,60.06727535,,,,,,,,,,,,,,,,,,,,,,,,,,,,,,,,,,,,,,,,,,,,,,,,,,,,,,,,,
,,,,right,1,0.2805,2,0,32,15,1,9,200,right,690,2022-02-06_17h44.18.508,multiplicationStroop,2021.2.3,Win32,60.06727535,,,,,,,,,,,,,,,,,,,,,,,,,,,,,,,,,,,,,,,,,,,,,,,,,,,,,,,,,
,,,,left,1,0.2641,2,1,33,4,1,6,-200,left,690,2022-02-06_17h44.18.508,multiplicationStroop,2021.2.3,Win32,60.06727535,,,,,,,,,,,,,,,,,,,,,,,,,,,,,,,,,,,,,,,,,,,,,,,,,,,,,,,,,
,,,,right,1,0.3086,2,2,34,8,1,1,200,right,690,2022-02-06_17h44.18.508,multiplicationStroop,2021.2.3,Win32,60.06727535,,,,,,,,,,,,,,,,,,,,,,,,,,,,,,,,,,,,,,,,,,,,,,,,,,,,,,,,,
,,,,left,1,0.2675,2,3,35,1,1,2,-200,left,690,2022-02-06_17h44.18.508,multiplicationStroop,2021.2.3,Win32,60.06727535,,,,,,,,,,,,,,,,,,,,,,,,,,,,,,,,,,,,,,,,,,,,,,,,,,,,,,,,,
,,,,left,1,0.2924,2,4,36,0,1,1,-200,left,690,2022-02-06_17h44.18.508,multiplicationStroop,2021.2.3,Win32,60.06727535,,,,,,,,,,,,,,,,,,,,,,,,,,,,,,,,,,,,,,,,,,,,,,,,,,,,,,,,,
,,,,left,1,0.2715,2,5,37,3,1,4,-200,left,690,2022-02-06_17h44.18.508,multiplicationStroop,2021.2.3,Win32,60.06727535,,,,,,,,,,,,,,,,,,,,,,,,,,,,,,,,,,,,,,,,,,,,,,,,,,,,,,,,,
,,,,left,1,0.2352,2,6,38,7,1,9,-200,left,690,2022-02-06_17h44.18.508,multiplicationStroop,2021.2.3,Win32,60.06727535,,,,,,,,,,,,,,,,,,,,,,,,,,,,,,,,,,,,,,,,,,,,,,,,,,,,,,,,,
,,,,left,1,0.2227,2,7,39,5,1,7,-200,left,690,2022-02-06_17h44.18.508,multiplicationStroop,2021.2.3,Win32,60.06727535,,,,,,,,,,,,,,,,,,,,,,,,,,,,,,,,,,,,,,,,,,,,,,,,,,,,,,,,,
,,,,left,1,0.2031,2,8,40,6,1,8,-200,left,690,2022-02-06_17h44.18.508,multiplicationStroop,2021.2.3,Win32,60.06727535,,,,,,,,,,,,,,,,,,,,,,,,,,,,,,,,,,,,,,,,,,,,,,,,,,,,,,,,,
,,,,right,1,0.3026,2,9,41,14,1,8,200,right,690,2022-02-06_17h44.18.508,multiplicationStroop,2021.2.3,Win32,60.06727535,,,,,,,,,,,,,,,,,,,,,,,,,,,,,,,,,,,,,,,,,,,,,,,,,,,,,,,,,
,,,,right,1,0.3015,2,10,42,13,1,7,200,right,690,2022-02-06_17h44.18.508,multiplicationStroop,2021.2.3,Win32,60.06727535,,,,,,,,,,,,,,,,,,,,,,,,,,,,,,,,,,,,,,,,,,,,,,,,,,,,,,,,,
,,,,right,0,0.1947,2,11,43,2,1,3,-200,left,690,2022-02-06_17h44.18.508,multiplicationStroop,2021.2.3,Win32,60.06727535,,,,,,,,,,,,,,,,,,,,,,,,,,,,,,,,,,,,,,,,,,,,,,,,,,,,,,,,,
,,,,right,1,0.2794,2,12,44,12,1,6,200,right,690,2022-02-06_17h44.18.508,multiplicationStroop,2021.2.3,Win32,60.06727535,,,,,,,,,,,,,,,,,,,,,,,,,,,,,,,,,,,,,,,,,,,,,,,,,,,,,,,,,
,,,,right,1,0.3,2,13,45,9,1,2,200,right,690,2022-02-06_17h44.18.508,multiplicationStroop,2021.2.3,Win32,60.06727535,,,,,,,,,,,,,,,,,,,,,,,,,,,,,,,,,,,,,,,,,,,,,,,,,,,,,,,,,
,,,,right,1,0.3006,2,14,46,10,1,3,200,right,690,2022-02-06_17h44.18.508,multiplicationStroop,2021.2.3,Win32,60.06727535,,,,,,,,,,,,,,,,,,,,,,,,,,,,,,,,,,,,,,,,,,,,,,,,,,,,,,,,,
,,,,right,1,0.2881,2,15,47,11,1,4,200,right,690,2022-02-06_17h44.18.508,multiplicationStroop,2021.2.3,Win32,60.06727535,,,,,,,,,,,,,,,,,,,,,,,,,,,,,,,,,,,,,,,,,,,,,,,,,,,,,,,,,
,,,,right,1,0.2676,3,0,48,14,1,8,200,right,690,2022-02-06_17h44.18.508,multiplicationStroop,2021.2.3,Win32,60.06727535,,,,,,,,,,,,,,,,,,,,,,,,,,,,,,,,,,,,,,,,,,,,,,,,,,,,,,,,,
,,,,left,1,0.3259,3,1,49,4,1,6,-200,left,690,2022-02-06_17h44.18.508,multiplicationStroop,2021.2.3,Win32,60.06727535,,,,,,,,,,,,,,,,,,,,,,,,,,,,,,,,,,,,,,,,,,,,,,,,,,,,,,,,,
,,,,left,1,0.2929,3,2,50,5,1,7,-200,left,690,2022-02-06_17h44.18.508,multiplicationStroop,2021.2.3,Win32,60.06727535,,,,,,,,,,,,,,,,,,,,,,,,,,,,,,,,,,,,,,,,,,,,,,,,,,,,,,,,,
,,,,left,1,0.2852,3,3,51,6,1,8,-200,left,690,2022-02-06_17h44.18.508,multiplicationStroop,2021.2.3,Win32,60.06727535,,,,,,,,,,,,,,,,,,,,,,,,,,,,,,,,,,,,,,,,,,,,,,,,,,,,,,,,,
,,,,left,1,0.2846,3,4,52,3,1,4,-200,left,690,2022-02-06_17h44.18.508,multiplicationStroop,2021.2.3,Win32,60.06727535,,,,,,,,,,,,,,,,,,,,,,,,,,,,,,,,,,,,,,,,,,,,,,,,,,,,,,,,,
,,,,right,1,0.3884,3,5,53,13,1,7,200,right,690,2022-02-06_17h44.18.508,multiplicationStroop,2021.2.3,Win32,60.06727535,,,,,,,,,,,,,,,,,,,,,,,,,,,,,,,,,,,,,,,,,,,,,,,,,,,,,,,,,
,,,,right,1,0.2848,3,6,54,9,1,2,200,right,690,2022-02-06_17h44.18.508,multiplicationStroop,2021.2.3,Win32,60.06727535,,,,,,,,,,,,,,,,,,,,,,,,,,,,,,,,,,,,,,,,,,,,,,,,,,,,,,,,,
,,,,right,1,0.2842,3,7,55,8,1,1,200,right,690,2022-02-06_17h44.18.508,multiplicationStroop,2021.2.3,Win32,60.06727535,,,,,,,,,,,,,,,,,,,,,,,,,,,,,,,,,,,,,,,,,,,,,,,,,,,,,,,,,
,,,,right,1,0.4679,3,8,56,10,1,3,200,right,690,2022-02-06_17h44.18.508,multiplicationStroop,2021.2.3,Win32,60.06727535,,,,,,,,,,,,,,,,,,,,,,,,,,,,,,,,,,,,,,,,,,,,,,,,,,,,,,,,,
,,,,left,1,0.3167,3,9,57,7,1,9,-200,left,690,2022-02-06_17h44.18.508,multiplicationStroop,2021.2.3,Win32,60.06727535,,,,,,,,,,,,,,,,,,,,,,,,,,,,,,,,,,,,,,,,,,,,,,,,,,,,,,,,,
,,,,left,1,0.2607,3,10,58,1,1,2,-200,left,690,2022-02-06_17h44.18.508,multiplicationStroop,2021.2.3,Win32,60.06727535,,,,,,,,,,,,,,,,,,,,,,,,,,,,,,,,,,,,,,,,,,,,,,,,,,,,,,,,,
,,,,left,1,0.2719,3,11,59,2,1,3,-200,left,690,2022-02-06_17h44.18.508,multiplicationStroop,2021.2.3,Win32,60.06727535,,,,,,,,,,,,,,,,,,,,,,,,,,,,,,,,,,,,,,,,,,,,,,,,,,,,,,,,,
,,,,right,1,0.3505,3,12,60,12,1,6,200,right,690,2022-02-06_17h44.18.508,multiplicationStroop,2021.2.3,Win32,60.06727535,,,,,,,,,,,,,,,,,,,,,,,,,,,,,,,,,,,,,,,,,,,,,,,,,,,,,,,,,
,,,,right,1,0.272,3,13,61,15,1,9,200,right,690,2022-02-06_17h44.18.508,multiplicationStroop,2021.2.3,Win32,60.06727535,,,,,,,,,,,,,,,,,,,,,,,,,,,,,,,,,,,,,,,,,,,,,,,,,,,,,,,,,
,,,,left,1,0.3169,3,14,62,0,1,1,-200,left,690,2022-02-06_17h44.18.508,multiplicationStroop,2021.2.3,Win32,60.06727535,,,,,,,,,,,,,,,,,,,,,,,,,,,,,,,,,,,,,,,,,,,,,,,,,,,,,,,,,
,,,,left,0,0.2894,3,15,63,11,1,4,200,right,690,2022-02-06_17h44.18.508,multiplicationStroop,2021.2.3,Win32,60.06727535,,,,,,,,,,,,,,,,,,,,,,,,,,,,,,,,,,,,,,,,,,,,,,,,,,,,,,,,,
,,,,,,,,,,,,,,,690,2022-02-06_17h44.18.508,multiplicationStroop,2021.2.3,Win32,60.06727535,space,5.6817,space,6.86,right,1,0.8341,0,0,0,36,1,3,1,3 | 1,2,1.4111,1.9756,incongruent,right,,,,,,stimulusFile/physical.xlsx,,,,,,,,,,,,,,,,,,,,,,,,,,,,,,,
,,,,,,,,,,,,,,,690,2022-02-06_17h44.18.508,multiplicationStroop,2021.2.3,Win32,60.06727535,,,,,left,0,0.3831,0,1,1,66,1,3,3,3 | 3,0,1.9756,1.4111,neutral,right,,,,,,stimulusFile/physical.xlsx,,,,,,,,,,,,,,,,,,,,,,,,,,,,,,,
,,,,,,,,,,,,,,,690,2022-02-06_17h44.18.508,multiplicationStroop,2021.2.3,Win32,60.06727535,,,,,left,1,0.5398,0,2,2,41,1,2,7,2 | 7,5,1.9756,1.4111,incongruent,left,,,,,,stimulusFile/physical.xlsx,,,,,,,,,,,,,,,,,,,,,,,,,,,,,,,
,,,,,,,,,,,,,,,690,2022-02-06_17h44.18.508,multiplicationStroop,2021.2.3,Win32,60.06727535,,,,,right,1,0.4682,0,3,3,44,1,6,1,6 | 1,5,1.4111,1.9756,incongruent,right,,,,,,stimulusFile/physical.xlsx,,,,,,,,,,,,,,,,,,,,,,,,,,,,,,,
,,,,,,,,,,,,,,,690,2022-02-06_17h44.18.508,multiplicationStroop,2021.2.3,Win32,60.06727535,,,,,right,1,0.5009,0,4,4,10,1,6,8,6 | 8,2,1.4111,1.9756,congruent,right,,,,,,stimulusFile/physical.xlsx,,,,,,,,,,,,,,,,,,,,,,,,,,,,,,,
,,,,,,,,,,,,,,,690,2022-02-06_17h44.18.508,multiplicationStroop,2021.2.3,Win32,60.06727535,,,,,left,0,0.4373,0,5,5,29,1,4,3,4 | 3,1,1.4111,1.9756,incongruent,right,,,,,,stimulusFile/physical.xlsx,,,,,,,,,,,,,,,,,,,,,,,,,,,,,,,
,,,,,,,,,,,,,,,690,2022-02-06_17h44.18.508,multiplicationStroop,2021.2.3,Win32,60.06727535,,,,,right,1,0.5384,0,6,6,60,1,3,3,3 | 3,0,1.4111,1.9756,neutral,right,,,,,,stimulusFile/physical.xlsx,,,,,,,,,,,,,,,,,,,,,,,,,,,,,,,
,,,,,,,,,,,,,,,690,2022-02-06_17h44.18.508,multiplicationStroop,2021.2.3,Win32,60.06727535,,,,,left,1,0.3997,0,7,7,52,1,2,2,2 | 2,0,1.9756,1.4111,neutral,left,,,,,,stimulusFile/physical.xlsx,,,,,,,,,,,,,,,,,,,,,,,,,,,,,,,
,,,,,,,,,,,,,,,690,2022-02-06_17h44.18.508,multiplicationStroop,2021.2.3,Win32,60.06727535,,,,,left,1,0.3839,0,8,8,4,1,2,1,2 | 1,1,1.9756,1.4111,congruent,left,,,,,,stimulusFile/physical.xlsx,,,,,,,,,,,,,,,,,,,,,,,,,,,,,,,
,,,,,,,,,,,,,,,690,2022-02-06_17h44.18.508,multiplicationStroop,2021.2.3,Win32,60.06727535,,,,,right,1,0.5339,0,9,9,38,1,8,6,8 | 6,2,1.4111,1.9756,incongruent,right,,,,,,stimulusFile/physical.xlsx,,,,,,,,,,,,,,,,,,,,,,,,,,,,,,,
,,,,,,,,,,,,,,,690,2022-02-06_17h44.18.508,multiplicationStroop,2021.2.3,Win32,60.06727535,,,,,left,1,0.4599,0,10,10,54,1,7,7,7 | 7,0,1.9756,1.4111,neutral,left,,,,,,stimulusFile/physical.xlsx,,,,,,,,,,,,,,,,,,,,,,,,,,,,,,,
,,,,,,,,,,,,,,,690,2022-02-06_17h44.18.508,multiplicationStroop,2021.2.3,Win32,60.06727535,,,,,right,1,0.5095,0,11,11,62,1,8,8,8 | 8,0,1.4111,1.9756,neutral,right,,,,,,stimulusFile/physical.xlsx,,,,,,,,,,,,,,,,,,,,,,,,,,,,,,,
,,,,,,,,,,,,,,,690,2022-02-06_17h44.18.508,multiplicationStroop,2021.2.3,Win32,60.06727535,,,,,left,1,0.4867,0,12,12,14,1,8,6,8 | 6,2,1.9756,1.4111,congruent,left,,,,,,stimulusFile/physical.xlsx,,,,,,,,,,,,,,,,,,,,,,,,,,,,,,,
,,,,,,,,,,,,,,,690,2022-02-06_17h44.18.508,multiplicationStroop,2021.2.3,Win32,60.06727535,,,,,right,1,0.4321,0,13,13,2,1,6,7,6 | 7,1,1.4111,1.9756,congruent,right,,,,,,stimulusFile/physical.xlsx,,,,,,,,,,,,,,,,,,,,,,,,,,,,,,,
,,,,,,,,,,,,,,,690,2022-02-06_17h44.18.508,multiplicationStroop,2021.2.3,Win32,60.06727535,,,,,left,1,0.4034,0,14,14,43,1,4,9,4 | 9,5,1.9756,1.4111,incongruent,left,,,,,,stimulusFile/physical.xlsx,,,,,,,,,,,,,,,,,,,,,,,,,,,,,,,
,,,,,,,,,,,,,,,690,2022-02-06_17h44.18.508,multiplicationStroop,2021.2.3,Win32,60.06727535,,,,,right,1,0.4079,0,15,15,45,1,7,2,7 | 2,5,1.4111,1.9756,incongruent,right,,,,,,stimulusFile/physical.xlsx,,,,,,,,,,,,,,,,,,,,,,,,,,,,,,,
,,,,,,,,,,,,,,,690,2022-02-06_17h44.18.508,multiplicationStroop,2021.2.3,Win32,60.06727535,,,,,left,1,0.4045,0,16,16,13,1,4,2,4 | 2,2,1.9756,1.4111,congruent,left,,,,,,stimulusFile/physical.xlsx,,,,,,,,,,,,,,,,,,,,,,,,,,,,,,,
,,,,,,,,,,,,,,,690,2022-02-06_17h44.18.508,multiplicationStroop,2021.2.3,Win32,60.06727535,,,,,left,1,0.3781,0,17,17,51,1,8,8,8 | 8,0,1.9756,1.4111,neutral,left,,,,,,stimulusFile/physical.xlsx,,,,,,,,,,,,,,,,,,,,,,,,,,,,,,,
,,,,,,,,,,,,,,,690,2022-02-06_17h44.18.508,multiplicationStroop,2021.2.3,Win32,60.06727535,,,,,right,1,0.424,0,18,18,30,1,7,6,7 | 6,1,1.4111,1.9756,incongruent,right,,,,,,stimulusFile/physical.xlsx,,,,,,,,,,,,,,,,,,,,,,,,,,,,,,,
,,,,,,,,,,,,,,,690,2022-02-06_17h44.18.508,multiplicationStroop,2021.2.3,Win32,60.06727535,,,,,left,1,0.4036,0,19,19,53,1,4,4,4 | 4,0,1.9756,1.4111,neutral,left,,,,,,stimulusFile/physical.xlsx,,,,,,,,,,,,,,,,,,,,,,,,,,,,,,,
,,,,,,,,,,,,,,,690,2022-02-06_17h44.18.508,multiplicationStroop,2021.2.3,Win32,60.06727535,,,,,right,1,0.4345,0,20,20,63,1,9,9,9 | 9,0,1.4111,1.9756,neutral,right,,,,,,stimulusFile/physical.xlsx,,,,,,,,,,,,,,,,,,,,,,,,,,,,,,,
,,,,,,,,,,,,,,,690,2022-02-06_17h44.18.508,multiplicationStroop,2021.2.3,Win32,60.06727535,,,,,right,1,0.5492,0,21,21,67,1,4,4,4 | 4,0,1.4111,1.9756,neutral,right,,,,,,stimulusFile/physical.xlsx,,,,,,,,,,,,,,,,,,,,,,,,,,,,,,,
,,,,,,,,,,,,,,,690,2022-02-06_17h44.18.508,multiplicationStroop,2021.2.3,Win32,60.06727535,,,,,right,1,0.5421,0,22,22,39,1,9,7,9 | 7,2,1.4111,1.9756,incongruent,right,,,,,,stimulusFile/physical.xlsx,,,,,,,,,,,,,,,,,,,,,,,,,,,,,,,
,,,,,,,,,,,,,,,690,2022-02-06_17h44.18.508,multiplicationStroop,2021.2.3,Win32,60.06727535,,,,,left,1,0.4417,0,23,23,70,1,8,8,8 | 8,0,1.9756,1.4111,neutral,left,,,,,,stimulusFile/physical.xlsx,,,,,,,,,,,,,,,,,,,,,,,,,,,,,,,
,,,,,,,,,,,,,,,690,2022-02-06_17h44.18.508,multiplicationStroop,2021.2.3,Win32,60.06727535,,,,,left,1,0.5582,0,24,24,40,1,1,6,1 | 6,5,1.9756,1.4111,incongruent,left,,,,,,stimulusFile/physical.xlsx,,,,,,,,,,,,,,,,,,,,,,,,,,,,,,,
,,,,,,,,,,,,,,,690,2022-02-06_17h44.18.508,multiplicationStroop,2021.2.3,Win32,60.06727535,,,,,right,1,0.4931,0,25,25,47,1,9,4,9 | 4,5,1.4111,1.9756,incongruent,right,,,,,,stimulusFile/physical.xlsx,,,,,,,,,,,,,,,,,,,,,,,,,,,,,,,
,,,,,,,,,,,,,,,690,2022-02-06_17h44.18.508,multiplicationStroop,2021.2.3,Win32,60.06727535,,,,,right,1,0.461,0,26,26,65,1,2,2,2 | 2,0,1.4111,1.9756,neutral,right,,,,,,stimulusFile/physical.xlsx,,,,,,,,,,,,,,,,,,,,,,,,,,,,,,,
,,,,,,,,,,,,,,,690,2022-02-06_17h44.18.508,multiplicationStroop,2021.2.3,Win32,60.06727535,,,,,right,1,0.4509,0,27,27,58,1,6,6,6 | 6,0,1.4111,1.9756,neutral,right,,,,,,stimulusFile/physical.xlsx,,,,,,,,,,,,,,,,,,,,,,,,,,,,,,,
,,,,,,,,,,,,,,,690,2022-02-06_17h44.18.508,multiplicationStroop,2021.2.3,Win32,60.06727535,,,,,right,1,0.3378,0,28,28,31,1,9,8,9 | 8,1,1.4111,1.9756,incongruent,right,,,,,,stimulusFile/physical.xlsx,,,,,,,,,,,,,,,,,,,,,,,,,,,,,,,
,,,,,,,,,,,,,,,690,2022-02-06_17h44.18.508,multiplicationStroop,2021.2.3,Win32,60.06727535,,,,,left,1,0.4904,0,29,29,27,1,8,9,8 | 9,1,1.9756,1.4111,incongruent,left,,,,,,stimulusFile/physical.xlsx,,,,,,,,,,,,,,,,,,,,,,,,,,,,,,,
,,,,,,,,,,,,,,,690,2022-02-06_17h44.18.508,multiplicationStroop,2021.2.3,Win32,60.06727535,,,,,left,1,0.3558,0,30,30,23,1,9,4,9 | 4,5,1.9756,1.4111,congruent,left,,,,,,stimulusFile/physical.xlsx,,,,,,,,,,,,,,,,,,,,,,,,,,,,,,,
,,,,,,,,,,,,,,,690,2022-02-06_17h44.18.508,multiplicationStroop,2021.2.3,Win32,60.06727535,,,,,right,1,0.4589,0,31,31,28,1,2,1,2 | 1,1,1.4111,1.9756,incongruent,right,,,,,,stimulusFile/physical.xlsx,,,,,,,,,,,,,,,,,,,,,,,,,,,,,,,
,,,,,,,,,,,,,,,690,2022-02-06_17h44.18.508,multiplicationStroop,2021.2.3,Win32,60.06727535,,,,,left,1,0.4457,0,32,32,7,1,9,8,9 | 8,1,1.9756,1.4111,congruent,left,,,,,,stimulusFile/physical.xlsx,,,,,,,,,,,,,,,,,,,,,,,,,,,,,,,
,,,,,,,,,,,,,,,690,2022-02-06_17h44.18.508,multiplicationStroop,2021.2.3,Win32,60.06727535,,,,,right,0,0.4252,0,33,33,69,1,7,7,7 | 7,0,1.4111,1.9756,neutral,left,,,,,,stimulusFile/physical.xlsx,,,,,,,,,,,,,,,,,,,,,,,,,,,,,,,
,,,,,,,,,,,,,,,690,2022-02-06_17h44.18.508,multiplicationStroop,2021.2.3,Win32,60.06727535,,,,,right,0,0.401,0,34,34,71,1,9,9,9 | 9,0,1.4111,1.9756,neutral,left,,,,,,stimulusFile/physical.xlsx,,,,,,,,,,,,,,,,,,,,,,,,,,,,,,,
,,,,,,,,,,,,,,,690,2022-02-06_17h44.18.508,multiplicationStroop,2021.2.3,Win32,60.06727535,,,,,right,1,0.4512,0,35,35,18,1,3,8,3 | 8,5,1.4111,1.9756,congruent,right,,,,,,stimulusFile/physical.xlsx,,,,,,,,,,,,,,,,,,,,,,,,,,,,,,,
,,,,,,,,,,,,,,,690,2022-02-06_17h44.18.508,multiplicationStroop,2021.2.3,Win32,60.06727535,,,,,right,1,0.4043,0,36,36,17,1,2,7,2 | 7,5,1.4111,1.9756,congruent,right,,,,,,stimulusFile/physical.xlsx,,,,,,,,,,,,,,,,,,,,,,,,,,,,,,,
,,,,,,,,,,,,,,,690,2022-02-06_17h44.18.508,multiplicationStroop,2021.2.3,Win32,60.06727535,,,,,right,1,0.3531,0,37,37,61,1,4,4,4 | 4,0,1.4111,1.9756,neutral,right,,,,,,stimulusFile/physical.xlsx,,,,,,,,,,,,,,,,,,,,,,,,,,,,,,,
,,,,,,,,,,,,,,,690,2022-02-06_17h44.18.508,multiplicationStroop,2021.2.3,Win32,60.06727535,,,,,right,1,0.3445,0,38,38,19,1,4,9,4 | 9,5,1.4111,1.9756,congruent,right,,,,,,stimulusFile/physical.xlsx,,,,,,,,,,,,,,,,,,,,,,,,,,,,,,,
,,,,,,,,,,,,,,,690,2022-02-06_17h44.18.508,multiplicationStroop,2021.2.3,Win32,60.06727535,,,,,left,1,0.4494,0,39,39,48,1,1,1,1 | 1,0,1.9756,1.4111,neutral,left,,,,,,stimulusFile/physical.xlsx,,,,,,,,,,,,,,,,,,,,,,,,,,,,,,,
,,,,,,,,,,,,,,,690,2022-02-06_17h44.18.508,multiplicationStroop,2021.2.3,Win32,60.06727535,,,,,right,1,0.4851,0,40,40,59,1,7,7,7 | 7,0,1.4111,1.9756,neutral,right,,,,,,stimulusFile/physical.xlsx,,,,,,,,,,,,,,,,,,,,,,,,,,,,,,,
,,,,,,,,,,,,,,,690,2022-02-06_17h44.18.508,multiplicationStroop,2021.2.3,Win32,60.06727535,,,,,left,1,0.3722,0,41,41,20,1,6,1,6 | 1,5,1.9756,1.4111,congruent,left,,,,,,stimulusFile/physical.xlsx,,,,,,,,,,,,,,,,,,,,,,,,,,,,,,,
,,,,,,,,,,,,,,,690,2022-02-06_17h44.18.508,multiplicationStroop,2021.2.3,Win32,60.06727535,,,,,left,1,0.4575,0,42,42,6,1,7,6,7 | 6,1,1.9756,1.4111,congruent,left,,,,,,stimulusFile/physical.xlsx,,,,,,,,,,,,,,,,,,,,,,,,,,,,,,,
,,,,,,,,,,,,,,,690,2022-02-06_17h44.18.508,multiplicationStroop,2021.2.3,Win32,60.06727535,,,,,right,1,0.3556,0,43,43,8,1,1,3,1 | 3,2,1.4111,1.9756,congruent,right,,,,,,stimulusFile/physical.xlsx,,,,,,,,,,,,,,,,,,,,,,,,,,,,,,,
,,,,,,,,,,,,,,,690,2022-02-06_17h44.18.508,multiplicationStroop,2021.2.3,Win32,60.06727535,,,,,right,1,0.5351,0,44,44,37,1,4,2,4 | 2,2,1.4111,1.9756,incongruent,right,,,,,,stimulusFile/physical.xlsx,,,,,,,,,,,,,,,,,,,,,,,,,,,,,,,
,,,,,,,,,,,,,,,690,2022-02-06_17h44.18.508,multiplicationStroop,2021.2.3,Win32,60.06727535,,,,,left,1,0.4736,0,45,45,5,1,4,3,4 | 3,1,1.9756,1.4111,congruent,left,,,,,,stimulusFile/physical.xlsx,,,,,,,,,,,,,,,,,,,,,,,,,,,,,,,
,,,,,,,,,,,,,,,690,2022-02-06_17h44.18.508,multiplicationStroop,2021.2.3,Win32,60.06727535,,,,,left,1,0.4191,0,46,46,25,1,3,4,3 | 4,1,1.9756,1.4111,incongruent,left,,,,,,stimulusFile/physical.xlsx,,,,,,,,,,,,,,,,,,,,,,,,,,,,,,,
,,,,,,,,,,,,,,,690,2022-02-06_17h44.18.508,multiplicationStroop,2021.2.3,Win32,60.06727535,,,,,right,1,0.4244,0,47,47,0,1,1,2,1 | 2,1,1.4111,1.9756,congruent,right,,,,,,stimulusFile/physical.xlsx,,,,,,,,,,,,,,,,,,,,,,,,,,,,,,,
,,,,,,,,,,,,,,,690,2022-02-06_17h44.18.508,multiplicationStroop,2021.2.3,Win32,60.06727535,,,,,left,1,0.525,0,48,48,35,1,7,9,7 | 9,2,1.9756,1.4111,incongruent,left,,,,,,stimulusFile/physical.xlsx,,,,,,,,,,,,,,,,,,,,,,,,,,,,,,,
,,,,,,,,,,,,,,,690,2022-02-06_17h44.18.508,multiplicationStroop,2021.2.3,Win32,60.06727535,,,,,right,0,0.4191,0,49,49,55,1,9,9,9 | 9,0,1.9756,1.4111,neutral,left,,,,,,stimulusFile/physical.xlsx,,,,,,,,,,,,,,,,,,,,,,,,,,,,,,,
,,,,,,,,,,,,,,,690,2022-02-06_17h44.18.508,multiplicationStroop,2021.2.3,Win32,60.06727535,,,,,left,1,0.5699,0,50,50,32,1,1,3,1 | 3,2,1.9756,1.4111,incongruent,left,,,,,,stimulusFile/physical.xlsx,,,,,,,,,,,,,,,,,,,,,,,,,,,,,,,
,,,,,,,,,,,,,,,690,2022-02-06_17h44.18.508,multiplicationStroop,2021.2.3,Win32,60.06727535,,,,,left,1,0.451,0,51,51,68,1,6,6,6 | 6,0,1.9756,1.4111,neutral,left,,,,,,stimulusFile/physical.xlsx,,,,,,,,,,,,,,,,,,,,,,,,,,,,,,,
,,,,,,,,,,,,,,,690,2022-02-06_17h44.18.508,multiplicationStroop,2021.2.3,Win32,60.06727535,,,,,left,1,0.3457,0,52,52,22,1,8,3,8 | 3,5,1.9756,1.4111,congruent,left,,,,,,stimulusFile/physical.xlsx,,,,,,,,,,,,,,,,,,,,,,,,,,,,,,,
,,,,,,,,,,,,,,,690,2022-02-06_17h44.18.508,multiplicationStroop,2021.2.3,Win32,60.06727535,,,,,left,1,0.4677,0,53,53,50,1,6,6,6 | 6,0,1.9756,1.4111,neutral,left,,,,,,stimulusFile/physical.xlsx,,,,,,,,,,,,,,,,,,,,,,,,,,,,,,,
,,,,,,,,,,,,,,,690,2022-02-06_17h44.18.508,multiplicationStroop,2021.2.3,Win32,60.06727535,,,,,left,1,0.4671,0,54,54,49,1,3,3,3 | 3,0,1.9756,1.4111,neutral,left,,,,,,stimulusFile/physical.xlsx,,,,,,,,,,,,,,,,,,,,,,,,,,,,,,,
,,,,,,,,,,,,,,,690,2022-02-06_17h44.18.508,multiplicationStroop,2021.2.3,Win32,60.06727535,,,,,left,0,0.445,0,55,55,1,1,3,4,3 | 4,1,1.4111,1.9756,congruent,right,,,,,,stimulusFile/physical.xlsx,,,,,,,,,,,,,,,,,,,,,,,,,,,,,,,
,,,,,,,,,,,,,,,690,2022-02-06_17h44.18.508,multiplicationStroop,2021.2.3,Win32,60.06727535,,,,,right,1,0.45,0,56,56,16,1,1,6,1 | 6,5,1.4111,1.9756,congruent,right,,,,,,stimulusFile/physical.xlsx,,,,,,,,,,,,,,,,,,,,,,,,,,,,,,,
,,,,,,,,,,,,,,,690,2022-02-06_17h44.18.508,multiplicationStroop,2021.2.3,Win32,60.06727535,,,,,left,1,0.404,0,57,57,12,1,3,1,3 | 1,2,1.9756,1.4111,congruent,left,,,,,,stimulusFile/physical.xlsx,,,,,,,,,,,,,,,,,,,,,,,,,,,,,,,
,,,,,,,,,,,,,,,690,2022-02-06_17h44.18.508,multiplicationStroop,2021.2.3,Win32,60.06727535,,,,,right,1,0.4187,0,58,58,3,1,8,9,8 | 9,1,1.4111,1.9756,congruent,right,,,,,,stimulusFile/physical.xlsx,,,,,,,,,,,,,,,,,,,,,,,,,,,,,,,
,,,,,,,,,,,,,,,690,2022-02-06_17h44.18.508,multiplicationStroop,2021.2.3,Win32,60.06727535,,,,,left,1,0.4997,0,59,59,21,1,7,2,7 | 2,5,1.9756,1.4111,congruent,left,,,,,,stimulusFile/physical.xlsx,,,,,,,,,,,,,,,,,,,,,,,,,,,,,,,
,,,,,,,,,,,,,,,690,2022-02-06_17h44.18.508,multiplicationStroop,2021.2.3,Win32,60.06727535,,,,,right,1,0.4294,0,60,60,46,1,8,3,8 | 3,5,1.4111,1.9756,incongruent,right,,,,,,stimulusFile/physical.xlsx,,,,,,,,,,,,,,,,,,,,,,,,,,,,,,,
,,,,,,,,,,,,,,,690,2022-02-06_17h44.18.508,multiplicationStroop,2021.2.3,Win32,60.06727535,,,,,left,1,0.4338,0,61,61,26,1,6,7,6 | 7,1,1.9756,1.4111,incongruent,left,,,,,,stimulusFile/physical.xlsx,,,,,,,,,,,,,,,,,,,,,,,,,,,,,,,
,,,,,,,,,,,,,,,690,2022-02-06_17h44.18.508,multiplicationStroop,2021.2.3,Win32,60.06727535,,,,,left,1,0.3716,0,62,62,34,1,6,8,6 | 8,2,1.9756,1.4111,incongruent,left,,,,,,stimulusFile/physical.xlsx,,,,,,,,,,,,,,,,,,,,,,,,,,,,,,,
,,,,,,,,,,,,,,,690,2022-02-06_17h44.18.508,multiplicationStroop,2021.2.3,Win32,60.06727535,,,,,left,1,0.8179,0,63,63,42,1,3,8,3 | 8,5,1.9756,1.4111,incongruent,left,,,,,,stimulusFile/physical.xlsx,,,,,,,,,,,,,,,,,,,,,,,,,,,,,,,
,,,,,,,,,,,,,,,690,2022-02-06_17h44.18.508,multiplicationStroop,2021.2.3,Win32,60.06727535,,,,,right,1,0.3834,0,64,64,11,1,7,9,7 | 9,2,1.4111,1.9756,congruent,right,,,,,,stimulusFile/physical.xlsx,,,,,,,,,,,,,,,,,,,,,,,,,,,,,,,
,,,,,,,,,,,,,,,690,2022-02-06_17h44.18.508,multiplicationStroop,2021.2.3,Win32,60.06727535,,,,,left,0,0.4117,0,65,65,64,1,1,1,1 | 1,0,1.9756,1.4111,neutral,right,,,,,,stimulusFile/physical.xlsx,,,,,,,,,,,,,,,,,,,,,,,,,,,,,,,
,,,,,,,,,,,,,,,690,2022-02-06_17h44.18.508,multiplicationStroop,2021.2.3,Win32,60.06727535,,,,,left,1,0.4179,0,66,66,24,1,1,2,1 | 2,1,1.9756,1.4111,incongruent,left,,,,,,stimulusFile/physical.xlsx,,,,,,,,,,,,,,,,,,,,,,,,,,,,,,,
,,,,,,,,,,,,,,,690,2022-02-06_17h44.18.508,multiplicationStroop,2021.2.3,Win32,60.06727535,,,,,left,1,0.3588,0,67,67,33,1,2,4,2 | 4,2,1.9756,1.4111,incongruent,left,,,,,,stimulusFile/physical.xlsx,,,,,,,,,,,,,,,,,,,,,,,,,,,,,,,
,,,,,,,,,,,,,,,690,2022-02-06_17h44.18.508,multiplicationStroop,2021.2.3,Win32,60.06727535,,,,,right,1,0.4363,0,68,68,57,1,2,2,2 | 2,0,1.4111,1.9756,neutral,right,,,,,,stimulusFile/physical.xlsx,,,,,,,,,,,,,,,,,,,,,,,,,,,,,,,
,,,,,,,,,,,,,,,690,2022-02-06_17h44.18.508,multiplicationStroop,2021.2.3,Win32,60.06727535,,,,,right,1,0.5267,0,69,69,56,1,1,1,1 | 1,0,1.4111,1.9756,neutral,right,,,,,,stimulusFile/physical.xlsx,,,,,,,,,,,,,,,,,,,,,,,,,,,,,,,
,,,,,,,,,,,,,,,690,2022-02-06_17h44.18.508,multiplicationStroop,2021.2.3,Win32,60.06727535,,,,,left,1,0.4503,0,70,70,15,1,9,7,9 | 7,2,1.9756,1.4111,congruent,left,,,,,,stimulusFile/physical.xlsx,,,,,,,,,,,,,,,,,,,,,,,,,,,,,,,
,,,,,,,,,,,,,,,690,2022-02-06_17h44.18.508,multiplicationStroop,2021.2.3,Win32,60.06727535,,,,,right,1,0.3786,0,71,71,9,1,2,4,2 | 4,2,1.4111,1.9756,congruent,right,,,,,,stimulusFile/physical.xlsx,,,,,,,,,,,,,,,,,,,,,,,,,,,,,,,
,,,,,,,,,,,,,,,690,2022-02-06_17h44.18.508,multiplicationStroop,2021.2.3,Win32,60.06727535,,,,,,,,,,,,,,,,,,,,,0,0,0,1,1,stimulusFile/physical.xlsx,PHYSICALLY larger (larger font size).,images/physicallyLarger.png,,,,,,,,,,,,,,,,,,,,,,,,,,,,,
,,,,,,,,,,,,,,,690,2022-02-06_17h44.18.508,multiplicationStroop,2021.2.3,Win32,60.06727535,space,6.55,space,4.837,left,1,0.5676,0,0,0,13,1,4,2,4 | 2,2,1.9756,1.4111,congruent,left,,,,,,stimulusFile/magnitude.xlsx,,,,,,,,,,,,,,,,,,,,,,,,,,,,,,,
,,,,,,,,,,,,,,,690,2022-02-06_17h44.18.508,multiplicationStroop,2021.2.3,Win32,60.06727535,,,,,left,1,0.5968,0,1,1,29,1,4,3,4 | 3,1,1.4111,1.9756,incongruent,left,,,,,,stimulusFile/magnitude.xlsx,,,,,,,,,,,,,,,,,,,,,,,,,,,,,,,
,,,,,,,,,,,,,,,690,2022-02-06_17h44.18.508,multiplicationStroop,2021.2.3,Win32,60.06727535,,,,,right,1,0.5609,0,2,2,24,1,1,2,1 | 2,1,1.9756,1.4111,incongruent,right,,,,,,stimulusFile/magnitude.xlsx,,,,,,,,,,,,,,,,,,,,,,,,,,,,,,,
,,,,,,,,,,,,,,,690,2022-02-06_17h44.18.508,multiplicationStroop,2021.2.3,Win32,60.06727535,,,,,left,1,0.417,0,3,3,20,1,6,1,6 | 1,5,1.9756,1.4111,congruent,left,,,,,,stimulusFile/magnitude.xlsx,,,,,,,,,,,,,,,,,,,,,,,,,,,,,,,
,,,,,,,,,,,,,,,690,2022-02-06_17h44.18.508,multiplicationStroop,2021.2.3,Win32,60.06727535,,,,,left,1,0.5207,0,4,4,54,1,7,6,7 | 6,1,1.6933,1.6933,neutral,left,,,,,,stimulusFile/magnitude.xlsx,,,,,,,,,,,,,,,,,,,,,,,,,,,,,,,
,,,,,,,,,,,,,,,690,2022-02-06_17h44.18.508,multiplicationStroop,2021.2.3,Win32,60.06727535,,,,,left,1,0.4144,0,5,5,15,1,9,7,9 | 7,2,1.9756,1.4111,congruent,left,,,,,,stimulusFile/magnitude.xlsx,,,,,,,,,,,,,,,,,,,,,,,,,,,,,,,
,,,,,,,,,,,,,,,690,2022-02-06_17h44.18.508,multiplicationStroop,2021.2.3,Win32,60.06727535,,,,,left,1,0.469,0,6,6,38,1,8,6,8 | 6,2,1.4111,1.9756,incongruent,left,,,,,,stimulusFile/magnitude.xlsx,,,,,,,,,,,,,,,,,,,,,,,,,,,,,,,
,,,,,,,,,,,,,,,690,2022-02-06_17h44.18.508,multiplicationStroop,2021.2.3,Win32,60.06727535,,,,,right,1,0.4247,0,7,7,8,1,1,3,1 | 3,2,1.4111,1.9756,congruent,right,,,,,,stimulusFile/magnitude.xlsx,,,,,,,,,,,,,,,,,,,,,,,,,,,,,,,
,,,,,,,,,,,,,,,690,2022-02-06_17h44.18.508,multiplicationStroop,2021.2.3,Win32,60.06727535,,,,,left,0,0.4256,0,8,8,50,1,6,7,6 | 7,1,1.6933,1.6933,neutral,right,,,,,,stimulusFile/magnitude.xlsx,,,,,,,,,,,,,,,,,,,,,,,,,,,,,,,
,,,,,,,,,,,,,,,690,2022-02-06_17h44.18.508,multiplicationStroop,2021.2.3,Win32,60.06727535,,,,,right,1,0.6296,0,9,9,9,1,2,4,2 | 4,2,1.4111,1.9756,congruent,right,,,,,,stimulusFile/magnitude.xlsx,,,,,,,,,,,,,,,,,,,,,,,,,,,,,,,
,,,,,,,,,,,,,,,690,2022-02-06_17h44.18.508,multiplicationStroop,2021.2.3,Win32,60.06727535,,,,,left,1,0.8512,0,10,10,30,1,7,6,7 | 6,1,1.4111,1.9756,incongruent,left,,,,,,stimulusFile/magnitude.xlsx,,,,,,,,,,,,,,,,,,,,,,,,,,,,,,,
,,,,,,,,,,,,,,,690,2022-02-06_17h44.18.508,multiplicationStroop,2021.2.3,Win32,60.06727535,,,,,left,1,0.517,0,11,11,6,1,7,6,7 | 6,1,1.9756,1.4111,congruent,left,,,,,,stimulusFile/magnitude.xlsx,,,,,,,,,,,,,,,,,,,,,,,,,,,,,,,
,,,,,,,,,,,,,,,690,2022-02-06_17h44.18.508,multiplicationStroop,2021.2.3,Win32,60.06727535,,,,,right,1,0.4641,0,12,12,17,1,2,7,2 | 7,5,1.4111,1.9756,congruent,right,,,,,,stimulusFile/magnitude.xlsx,,,,,,,,,,,,,,,,,,,,,,,,,,,,,,,
,,,,,,,,,,,,,,,690,2022-02-06_17h44.18.508,multiplicationStroop,2021.2.3,Win32,60.06727535,,,,,left,1,0.4017,0,13,13,22,1,8,3,8 | 3,5,1.9756,1.4111,congruent,left,,,,,,stimulusFile/magnitude.xlsx,,,,,,,,,,,,,,,,,,,,,,,,,,,,,,,
,,,,,,,,,,,,,,,690,2022-02-06_17h44.18.508,multiplicationStroop,2021.2.3,Win32,60.06727535,,,,,left,1,0.55,0,14,14,47,1,9,4,9 | 4,5,1.4111,1.9756,incongruent,left,,,,,,stimulusFile/magnitude.xlsx,,,,,,,,,,,,,,,,,,,,,,,,,,,,,,,
,,,,,,,,,,,,,,,690,2022-02-06_17h44.18.508,multiplicationStroop,2021.2.3,Win32,60.06727535,,,,,right,1,0.4855,0,15,15,65,1,2,7,2 | 7,5,1.6933,1.6933,neutral,right,,,,,,stimulusFile/magnitude.xlsx,,,,,,,,,,,,,,,,,,,,,,,,,,,,,,,
,,,,,,,,,,,,,,,690,2022-02-06_17h44.18.508,multiplicationStroop,2021.2.3,Win32,60.06727535,,,,,right,1,0.5673,0,16,16,48,1,1,2,1 | 2,1,1.6933,1.6933,neutral,right,,,,,,stimulusFile/magnitude.xlsx,,,,,,,,,,,,,,,,,,,,,,,,,,,,,,,
,,,,,,,,,,,,,,,690,2022-02-06_17h44.18.508,multiplicationStroop,2021.2.3,Win32,60.06727535,,,,,right,1,0.4783,0,17,17,67,1,4,9,4 | 9,5,1.6933,1.6933,neutral,right,,,,,,stimulusFile/magnitude.xlsx,,,,,,,,,,,,,,,,,,,,,,,,,,,,,,,
,,,,,,,,,,,,,,,690,2022-02-06_17h44.18.508,multiplicationStroop,2021.2.3,Win32,60.06727535,,,,,left,1,0.4906,0,18,18,62,1,8,6,8 | 6,2,1.6933,1.6933,neutral,left,,,,,,stimulusFile/magnitude.xlsx,,,,,,,,,,,,,,,,,,,,,,,,,,,,,,,
,,,,,,,,,,,,,,,690,2022-02-06_17h44.18.508,multiplicationStroop,2021.2.3,Win32,60.06727535,,,,,right,1,0.4343,0,19,19,0,1,1,2,1 | 2,1,1.4111,1.9756,congruent,right,,,,,,stimulusFile/magnitude.xlsx,,,,,,,,,,,,,,,,,,,,,,,,,,,,,,,
,,,,,,,,,,,,,,,690,2022-02-06_17h44.18.508,multiplicationStroop,2021.2.3,Win32,60.06727535,,,,,left,1,0.441,0,20,20,68,1,6,1,6 | 1,5,1.6933,1.6933,neutral,left,,,,,,stimulusFile/magnitude.xlsx,,,,,,,,,,,,,,,,,,,,,,,,,,,,,,,
,,,,,,,,,,,,,,,690,2022-02-06_17h44.18.508,multiplicationStroop,2021.2.3,Win32,60.06727535,,,,,left,1,0.5781,0,21,21,46,1,8,3,8 | 3,5,1.4111,1.9756,incongruent,left,,,,,,stimulusFile/magnitude.xlsx,,,,,,,,,,,,,,,,,,,,,,,,,,,,,,,
,,,,,,,,,,,,,,,690,2022-02-06_17h44.18.508,multiplicationStroop,2021.2.3,Win32,60.06727535,,,,,left,1,0.4011,0,22,22,70,1,8,3,8 | 3,5,1.6933,1.6933,neutral,left,,,,,,stimulusFile/magnitude.xlsx,,,,,,,,,,,,,,,,,,,,,,,,,,,,,,,
,,,,,,,,,,,,,,,690,2022-02-06_17h44.18.508,multiplicationStroop,2021.2.3,Win32,60.06727535,,,,,left,1,0.4641,0,23,23,53,1,4,3,4 | 3,1,1.6933,1.6933,neutral,left,,,,,,stimulusFile/magnitude.xlsx,,,,,,,,,,,,,,,,,,,,,,,,,,,,,,,
,,,,,,,,,,,,,,,690,2022-02-06_17h44.18.508,multiplicationStroop,2021.2.3,Win32,60.06727535,,,,,right,1,0.4175,0,24,24,40,1,1,6,1 | 6,5,1.9756,1.4111,incongruent,right,,,,,,stimulusFile/magnitude.xlsx,,,,,,,,,,,,,,,,,,,,,,,,,,,,,,,
,,,,,,,,,,,,,,,690,2022-02-06_17h44.18.508,multiplicationStroop,2021.2.3,Win32,60.06727535,,,,,right,1,0.6463,0,25,25,10,1,6,8,6 | 8,2,1.4111,1.9756,congruent,right,,,,,,stimulusFile/magnitude.xlsx,,,,,,,,,,,,,,,,,,,,,,,,,,,,,,,
,,,,,,,,,,,,,,,690,2022-02-06_17h44.18.508,multiplicationStroop,2021.2.3,Win32,60.06727535,,,,,right,1,0.4151,0,26,26,41,1,2,7,2 | 7,5,1.9756,1.4111,incongruent,right,,,,,,stimulusFile/magnitude.xlsx,,,,,,,,,,,,,,,,,,,,,,,,,,,,,,,
,,,,,,,,,,,,,,,690,2022-02-06_17h44.18.508,multiplicationStroop,2021.2.3,Win32,60.06727535,,,,,right,1,0.4259,0,27,27,16,1,1,6,1 | 6,5,1.4111,1.9756,congruent,right,,,,,,stimulusFile/magnitude.xlsx,,,,,,,,,,,,,,,,,,,,,,,,,,,,,,,
,,,,,,,,,,,,,,,690,2022-02-06_17h44.18.508,multiplicationStroop,2021.2.3,Win32,60.06727535,,,,,left,1,0.3847,0,28,28,52,1,2,1,2 | 1,1,1.6933,1.6933,neutral,left,,,,,,stimulusFile/magnitude.xlsx,,,,,,,,,,,,,,,,,,,,,,,,,,,,,,,
,,,,,,,,,,,,,,,690,2022-02-06_17h44.18.508,multiplicationStroop,2021.2.3,Win32,60.06727535,,,,,left,1,0.5135,0,29,29,37,1,4,2,4 | 2,2,1.4111,1.9756,incongruent,left,,,,,,stimulusFile/magnitude.xlsx,,,,,,,,,,,,,,,,,,,,,,,,,,,,,,,
,,,,,,,,,,,,,,,690,2022-02-06_17h44.18.508,multiplicationStroop,2021.2.3,Win32,60.06727535,,,,,right,1,0.4118,0,30,30,11,1,7,9,7 | 9,2,1.4111,1.9756,congruent,right,,,,,,stimulusFile/magnitude.xlsx,,,,,,,,,,,,,,,,,,,,,,,,,,,,,,,
,,,,,,,,,,,,,,,690,2022-02-06_17h44.18.508,multiplicationStroop,2021.2.3,Win32,60.06727535,,,,,left,1,0.413,0,31,31,44,1,6,1,6 | 1,5,1.4111,1.9756,incongruent,left,,,,,,stimulusFile/magnitude.xlsx,,,,,,,,,,,,,,,,,,,,,,,,,,,,,,,
,,,,,,,,,,,,,,,690,2022-02-06_17h44.18.508,multiplicationStroop,2021.2.3,Win32,60.06727535,,,,,left,0,0.3973,0,32,32,59,1,7,9,7 | 9,2,1.6933,1.6933,neutral,right,,,,,,stimulusFile/magnitude.xlsx,,,,,,,,,,,,,,,,,,,,,,,,,,,,,,,
,,,,,,,,,,,,,,,690,2022-02-06_17h44.18.508,multiplicationStroop,2021.2.3,Win32,60.06727535,,,,,right,1,0.4798,0,33,33,2,1,6,7,6 | 7,1,1.4111,1.9756,congruent,right,,,,,,stimulusFile/magnitude.xlsx,,,,,,,,,,,,,,,,,,,,,,,,,,,,,,,
,,,,,,,,,,,,,,,690,2022-02-06_17h44.18.508,multiplicationStroop,2021.2.3,Win32,60.06727535,,,,,left,1,0.423,0,34,34,63,1,9,7,9 | 7,2,1.6933,1.6933,neutral,left,,,,,,stimulusFile/magnitude.xlsx,,,,,,,,,,,,,,,,,,,,,,,,,,,,,,,
,,,,,,,,,,,,,,,690,2022-02-06_17h44.18.508,multiplicationStroop,2021.2.3,Win32,60.06727535,,,,,right,1,0.5177,0,35,35,35,1,7,9,7 | 9,2,1.9756,1.4111,incongruent,right,,,,,,stimulusFile/magnitude.xlsx,,,,,,,,,,,,,,,,,,,,,,,,,,,,,,,
,,,,,,,,,,,,,,,690,2022-02-06_17h44.18.508,multiplicationStroop,2021.2.3,Win32,60.06727535,,,,,right,0,0.4819,0,36,36,39,1,9,7,9 | 7,2,1.4111,1.9756,incongruent,left,,,,,,stimulusFile/magnitude.xlsx,,,,,,,,,,,,,,,,,,,,,,,,,,,,,,,
,,,,,,,,,,,,,,,690,2022-02-06_17h44.18.508,multiplicationStroop,2021.2.3,Win32,60.06727535,,,,,left,1,0.8308,0,37,37,21,1,7,2,7 | 2,5,1.9756,1.4111,congruent,left,,,,,,stimulusFile/magnitude.xlsx,,,,,,,,,,,,,,,,,,,,,,,,,,,,,,,
,,,,,,,,,,,,,,,690,2022-02-06_17h44.18.508,multiplicationStroop,2021.2.3,Win32,60.06727535,,,,,left,0,0.525,0,38,38,26,1,6,7,6 | 7,1,1.9756,1.4111,incongruent,right,,,,,,stimulusFile/magnitude.xlsx,,,,,,,,,,,,,,,,,,,,,,,,,,,,,,,
,,,,,,,,,,,,,,,690,2022-02-06_17h44.18.508,multiplicationStroop,2021.2.3,Win32,60.06727535,,,,,left,1,0.7624,0,39,39,28,1,2,1,2 | 1,1,1.4111,1.9756,incongruent,left,,,,,,stimulusFile/magnitude.xlsx,,,,,,,,,,,,,,,,,,,,,,,,,,,,,,,
,,,,,,,,,,,,,,,690,2022-02-06_17h44.18.508,multiplicationStroop,2021.2.3,Win32,60.06727535,,,,,left,1,0.5226,0,40,40,5,1,4,3,4 | 3,1,1.9756,1.4111,congruent,left,,,,,,stimulusFile/magnitude.xlsx,,,,,,,,,,,,,,,,,,,,,,,,,,,,,,,
,,,,,,,,,,,,,,,690,2022-02-06_17h44.18.508,multiplicationStroop,2021.2.3,Win32,60.06727535,,,,,right,0,0.5061,0,41,41,31,1,9,8,9 | 8,1,1.4111,1.9756,incongruent,left,,,,,,stimulusFile/magnitude.xlsx,,,,,,,,,,,,,,,,,,,,,,,,,,,,,,,
,,,,,,,,,,,,,,,690,2022-02-06_17h44.18.508,multiplicationStroop,2021.2.3,Win32,60.06727535,,,,,left,1,0.8492,0,42,42,23,1,9,4,9 | 4,5,1.9756,1.4111,congruent,left,,,,,,stimulusFile/magnitude.xlsx,,,,,,,,,,,,,,,,,,,,,,,,,,,,,,,
,,,,,,,,,,,,,,,690,2022-02-06_17h44.18.508,multiplicationStroop,2021.2.3,Win32,60.06727535,,,,,right,1,0.6571,0,43,43,19,1,4,9,4 | 9,5,1.4111,1.9756,congruent,right,,,,,,stimulusFile/magnitude.xlsx,,,,,,,,,,,,,,,,,,,,,,,,,,,,,,,
,,,,,,,,,,,,,,,690,2022-02-06_17h44.18.508,multiplicationStroop,2021.2.3,Win32,60.06727535,,,,,right,1,0.617,0,44,44,66,1,3,8,3 | 8,5,1.6933,1.6933,neutral,right,,,,,,stimulusFile/magnitude.xlsx,,,,,,,,,,,,,,,,,,,,,,,,,,,,,,,
,,,,,,,,,,,,,,,690,2022-02-06_17h44.18.508,multiplicationStroop,2021.2.3,Win32,60.06727535,,,,,right,1,0.719,0,45,45,43,1,4,9,4 | 9,5,1.9756,1.4111,incongruent,right,,,,,,stimulusFile/magnitude.xlsx,,,,,,,,,,,,,,,,,,,,,,,,,,,,,,,
,,,,,,,,,,,,,,,690,2022-02-06_17h44.18.508,multiplicationStroop,2021.2.3,Win32,60.06727535,,,,,right,1,0.5853,0,46,46,3,1,8,9,8 | 9,1,1.4111,1.9756,congruent,right,,,,,,stimulusFile/magnitude.xlsx,,,,,,,,,,,,,,,,,,,,,,,,,,,,,,,
,,,,,,,,,,,,,,,690,2022-02-06_17h44.18.508,multiplicationStroop,2021.2.3,Win32,60.06727535,,,,,left,1,0.542,0,47,47,12,1,3,1,3 | 1,2,1.9756,1.4111,congruent,left,,,,,,stimulusFile/magnitude.xlsx,,,,,,,,,,,,,,,,,,,,,,,,,,,,,,,
,,,,,,,,,,,,,,,690,2022-02-06_17h44.18.508,multiplicationStroop,2021.2.3,Win32,60.06727535,,,,,right,1,0.6696,0,48,48,32,1,1,3,1 | 3,2,1.9756,1.4111,incongruent,right,,,,,,stimulusFile/magnitude.xlsx,,,,,,,,,,,,,,,,,,,,,,,,,,,,,,,
,,,,,,,,,,,,,,,690,2022-02-06_17h44.18.508,multiplicationStroop,2021.2.3,Win32,60.06727535,,,,,right,1,0.5564,0,49,49,34,1,6,8,6 | 8,2,1.9756,1.4111,incongruent,right,,,,,,stimulusFile/magnitude.xlsx,,,,,,,,,,,,,,,,,,,,,,,,,,,,,,,
,,,,,,,,,,,,,,,690,2022-02-06_17h44.18.508,multiplicationStroop,2021.2.3,Win32,60.06727535,,,,,left,1,0.4149,0,50,50,4,1,2,1,2 | 1,1,1.9756,1.4111,congruent,left,,,,,,stimulusFile/magnitude.xlsx,,,,,,,,,,,,,,,,,,,,,,,,,,,,,,,
,,,,,,,,,,,,,,,690,2022-02-06_17h44.18.508,multiplicationStroop,2021.2.3,Win32,60.06727535,,,,,right,1,0.4932,0,51,51,57,1,2,4,2 | 4,2,1.6933,1.6933,neutral,right,,,,,,stimulusFile/magnitude.xlsx,,,,,,,,,,,,,,,,,,,,,,,,,,,,,,,
,,,,,,,,,,,,,,,690,2022-02-06_17h44.18.508,multiplicationStroop,2021.2.3,Win32,60.06727535,,,,,left,1,0.4523,0,52,52,14,1,8,6,8 | 6,2,1.9756,1.4111,congruent,left,,,,,,stimulusFile/magnitude.xlsx,,,,,,,,,,,,,,,,,,,,,,,,,,,,,,,
,,,,,,,,,,,,,,,690,2022-02-06_17h44.18.508,multiplicationStroop,2021.2.3,Win32,60.06727535,,,,,left,1,0.5152,0,53,53,45,1,7,2,7 | 2,5,1.4111,1.9756,incongruent,left,,,,,,stimulusFile/magnitude.xlsx,,,,,,,,,,,,,,,,,,,,,,,,,,,,,,,
,,,,,,,,,,,,,,,690,2022-02-06_17h44.18.508,multiplicationStroop,2021.2.3,Win32,60.06727535,,,,,right,1,0.4705,0,54,54,1,1,3,4,3 | 4,1,1.4111,1.9756,congruent,right,,,,,,stimulusFile/magnitude.xlsx,,,,,,,,,,,,,,,,,,,,,,,,,,,,,,,
,,,,,,,,,,,,,,,690,2022-02-06_17h44.18.508,multiplicationStroop,2021.2.3,Win32,60.06727535,,,,,left,1,0.4565,0,55,55,55,1,9,8,9 | 8,1,1.6933,1.6933,neutral,left,,,,,,stimulusFile/magnitude.xlsx,,,,,,,,,,,,,,,,,,,,,,,,,,,,,,,
,,,,,,,,,,,,,,,690,2022-02-06_17h44.18.508,multiplicationStroop,2021.2.3,Win32,60.06727535,,,,,right,1,0.4731,0,56,56,25,1,3,4,3 | 4,1,1.9756,1.4111,incongruent,right,,,,,,stimulusFile/magnitude.xlsx,,,,,,,,,,,,,,,,,,,,,,,,,,,,,,,
,,,,,,,,,,,,,,,690,2022-02-06_17h44.18.508,multiplicationStroop,2021.2.3,Win32,60.06727535,,,,,left,1,0.4831,0,57,57,69,1,7,2,7 | 2,5,1.6933,1.6933,neutral,left,,,,,,stimulusFile/magnitude.xlsx,,,,,,,,,,,,,,,,,,,,,,,,,,,,,,,
,,,,,,,,,,,,,,,690,2022-02-06_17h44.18.508,multiplicationStroop,2021.2.3,Win32,60.06727535,,,,,right,1,0.4928,0,58,58,42,1,3,8,3 | 8,5,1.9756,1.4111,incongruent,right,,,,,,stimulusFile/magnitude.xlsx,,,,,,,,,,,,,,,,,,,,,,,,,,,,,,,
,,,,,,,,,,,,,,,690,2022-02-06_17h44.18.508,multiplicationStroop,2021.2.3,Win32,60.06727535,,,,,left,1,0.415,0,59,59,61,1,4,2,4 | 2,2,1.6933,1.6933,neutral,left,,,,,,stimulusFile/magnitude.xlsx,,,,,,,,,,,,,,,,,,,,,,,,,,,,,,,
,,,,,,,,,,,,,,,690,2022-02-06_17h44.18.508,multiplicationStroop,2021.2.3,Win32,60.06727535,,,,,left,1,0.4433,0,60,60,71,1,9,4,9 | 4,5,1.6933,1.6933,neutral,left,,,,,,stimulusFile/magnitude.xlsx,,,,,,,,,,,,,,,,,,,,,,,,,,,,,,,
,,,,,,,,,,,,,,,690,2022-02-06_17h44.18.508,multiplicationStroop,2021.2.3,Win32,60.06727535,,,,,right,1,0.5979,0,61,61,33,1,2,4,2 | 4,2,1.9756,1.4111,incongruent,right,,,,,,stimulusFile/magnitude.xlsx,,,,,,,,,,,,,,,,,,,,,,,,,,,,,,,
,,,,,,,,,,,,,,,690,2022-02-06_17h44.18.508,multiplicationStroop,2021.2.3,Win32,60.06727535,,,,,right,1,0.4252,0,62,62,64,1,1,6,1 | 6,5,1.6933,1.6933,neutral,right,,,,,,stimulusFile/magnitude.xlsx,,,,,,,,,,,,,,,,,,,,,,,,,,,,,,,
,,,,,,,,,,,,,,,690,2022-02-06_17h44.18.508,multiplicationStroop,2021.2.3,Win32,60.06727535,,,,,right,1,0.4655,0,63,63,58,1,6,8,6 | 8,2,1.6933,1.6933,neutral,right,,,,,,stimulusFile/magnitude.xlsx,,,,,,,,,,,,,,,,,,,,,,,,,,,,,,,
,,,,,,,,,,,,,,,690,2022-02-06_17h44.18.508,multiplicationStroop,2021.2.3,Win32,60.06727535,,,,,right,1,0.4518,0,64,64,56,1,1,3,1 | 3,2,1.6933,1.6933,neutral,right,,,,,,stimulusFile/magnitude.xlsx,,,,,,,,,,,,,,,,,,,,,,,,,,,,,,,
,,,,,,,,,,,,,,,690,2022-02-06_17h44.18.508,multiplicationStroop,2021.2.3,Win32,60.06727535,,,,,right,1,0.5279,0,65,65,51,1,8,9,8 | 9,1,1.6933,1.6933,neutral,right,,,,,,stimulusFile/magnitude.xlsx,,,,,,,,,,,,,,,,,,,,,,,,,,,,,,,
,,,,,,,,,,,,,,,690,2022-02-06_17h44.18.508,multiplicationStroop,2021.2.3,Win32,60.06727535,,,,,left,1,0.4593,0,66,66,7,1,9,8,9 | 8,1,1.9756,1.4111,congruent,left,,,,,,stimulusFile/magnitude.xlsx,,,,,,,,,,,,,,,,,,,,,,,,,,,,,,,
,,,,,,,,,,,,,,,690,2022-02-06_17h44.18.508,multiplicationStroop,2021.2.3,Win32,60.06727535,,,,,right,1,0.4566,0,67,67,18,1,3,8,3 | 8,5,1.4111,1.9756,congruent,right,,,,,,stimulusFile/magnitude.xlsx,,,,,,,,,,,,,,,,,,,,,,,,,,,,,,,
,,,,,,,,,,,,,,,690,2022-02-06_17h44.18.508,multiplicationStroop,2021.2.3,Win32,60.06727535,,,,,left,1,0.6901,0,68,68,36,1,3,1,3 | 1,2,1.4111,1.9756,incongruent,left,,,,,,stimulusFile/magnitude.xlsx,,,,,,,,,,,,,,,,,,,,,,,,,,,,,,,
,,,,,,,,,,,,,,,690,2022-02-06_17h44.18.508,multiplicationStroop,2021.2.3,Win32,60.06727535,,,,,left,1,0.3455,0,69,69,60,1,3,1,3 | 1,2,1.6933,1.6933,neutral,left,,,,,,stimulusFile/magnitude.xlsx,,,,,,,,,,,,,,,,,,,,,,,,,,,,,,,
,,,,,,,,,,,,,,,690,2022-02-06_17h44.18.508,multiplicationStroop,2021.2.3,Win32,60.06727535,,,,,left,0,0.35,0,70,70,49,1,3,4,3 | 4,1,1.6933,1.6933,neutral,right,,,,,,stimulusFile/magnitude.xlsx,,,,,,,,,,,,,,,,,,,,,,,,,,,,,,,
,,,,,,,,,,,,,,,690,2022-02-06_17h44.18.508,multiplicationStroop,2021.2.3,Win32,60.06727535,,,,,left,0,0.488,0,71,71,27,1,8,9,8 | 9,1,1.9756,1.4111,incongruent,right,,,,,,stimulusFile/magnitude.xlsx,,,,,,,,,,,,,,,,,,,,,,,,,,,,,,,
,,,,,,,,,,,,,,,690,2022-02-06_17h44.18.508,multiplicationStroop,2021.2.3,Win32,60.06727535,,,,,,,,,,,,,,,,,,,,,0,1,1,0,1,stimulusFile/magnitude.xlsx,NUMERICALLY larger (larger coefficient).,images/numericallyLarger.png,,,,,,,,,,,,,,,,,,,,,,,,,,,,,
,,,,,,,,,,,,,,,690,2022-02-06_17h44.18.508,multiplicationStroop,2021.2.3,Win32,60.06727535,,,,,,,,,,,,,,,,,,,,,,,,,,,,,space,7.5273,space,1.2756,35,2.0944,1,0,0,0,12,1,5,×,7,5 × 7,incongruent,smallerFirst,2,1,35,,,,,,,,
,,,,,,,,,,,,,,,690,2022-02-06_17h44.18.508,multiplicationStroop,2021.2.3,Win32,60.06727535,,,,,,,,,,,,,,,,,,,,,,,,,,,,,,,,,8,1.6991,1,0,1,1,24,1,4,×,2,4 × 2,incongruent,largerFirst,1,2,8,,,,,,,,
,,,,,,,,,,,,,,,690,2022-02-06_17h44.18.508,multiplicationStroop,2021.2.3,Win32,60.06727535,,,,,,,,,,,,,,,,,,,,,,,,,,,,,,,,,54,1.4828,1,0,2,2,6,1,6,×,9,6 × 9,incongruent,smallerFirst,2,1,54,,,,,,,,
,,,,,,,,,,,,,,,690,2022-02-06_17h44.18.508,multiplicationStroop,2021.2.3,Win32,60.06727535,,,,,,,,,,,,,,,,,,,,,,,,,,,,,,,,,14,1.4991,1,0,3,3,4,1,2,×,7,2 × 7,incongruent,smallerFirst,2,1,14,,,,,,,,
,,,,,,,,,,,,,,,690,2022-02-06_17h44.18.508,multiplicationStroop,2021.2.3,Win32,60.06727535,,,,,,,,,,,,,,,,,,,,,,,,,,,,,,,,,27,1.7328,1,0,4,4,18,1,9,×,3,9 × 3,incongruent,largerFirst,1,2,27,,,,,,,,
,,,,,,,,,,,,,,,690,2022-02-06_17h44.18.508,multiplicationStroop,2021.2.3,Win32,60.06727535,,,,,,,,,,,,,,,,,,,,,,,,,,,,,,,,,81,1.566,1,0,5,5,35,1,9,×,9,9 × 9,incongruent,tie,1,2,81,,,,,,,,
,,,,,,,,,,,,,,,690,2022-02-06_17h44.18.508,multiplicationStroop,2021.2.3,Win32,60.06727535,,,,,,,,,,,,,,,,,,,,,,,,,,,,,,,,,42,1.6659,1,0,6,6,17,1,7,×,6,7 × 6,incongruent,largerFirst,1,2,42,,,,,,,,
,,,,,,,,,,,,,,,690,2022-02-06_17h44.18.508,multiplicationStroop,2021.2.3,Win32,60.06727535,,,,,,,,,,,,,,,,,,,,,,,,,,,,,,,,,24,1.4658,1,0,7,7,9,1,3,×,8,3 × 8,incongruent,smallerFirst,2,1,24,,,,,,,,
,,,,,,,,,,,,,,,690,2022-02-06_17h44.18.508,multiplicationStroop,2021.2.3,Win32,60.06727535,,,,,,,,,,,,,,,,,,,,,,,,,,,,,,,,,12,1.433,1,0,8,8,5,1,3,×,4,3 × 4,incongruent,smallerFirst,2,1,12,,,,,,,,
,,,,,,,,,,,,,,,690,2022-02-06_17h44.18.508,multiplicationStroop,2021.2.3,Win32,60.06727535,,,,,,,,,,,,,,,,,,,,,,,,,,,,,,,,,12,1.4819,1,0,9,9,19,1,6,×,2,6 × 2,incongruent,largerFirst,1,2,12,,,,,,,,
,,,,,,,,,,,,,,,690,2022-02-06_17h44.18.508,multiplicationStroop,2021.2.3,Win32,60.06727535,,,,,,,,,,,,,,,,,,,,,,,,,,,,,,,,,30,1.7164,1,0,10,10,25,1,6,×,5,6 × 5,incongruent,largerFirst,1,2,30,,,,,,,,
,,,,,,,,,,,,,,,690,2022-02-06_17h44.18.508,multiplicationStroop,2021.2.3,Win32,60.06727535,,,,,,,,,,,,,,,,,,,,,,,,,,,,,,,,,48,1.7489,1,0,11,11,1,1,6,×,8,6 × 8,incongruent,smallerFirst,2,1,48,,,,,,,,
,,,,,,,,,,,,,,,690,2022-02-06_17h44.18.508,multiplicationStroop,2021.2.3,Win32,60.06727535,,,,,,,,,,,,,,,,,,,,,,,,,,,,,,,,,21,1.5823,1,0,12,12,26,1,7,×,3,7 × 3,incongruent,largerFirst,1,2,21,,,,,,,,
,,,,,,,,,,,,,,,690,2022-02-06_17h44.18.508,multiplicationStroop,2021.2.3,Win32,60.06727535,,,,,,,,,,,,,,,,,,,,,,,,,,,,,,,,,4,2.0996,1,0,13,13,28,1,2,×,2,2 × 2,incongruent,tie,1,2,4,,,,,,,,
,,,,,,,,,,,,,,,690,2022-02-06_17h44.18.508,multiplicationStroop,2021.2.3,Win32,60.06727535,,,,,,,,,,,,,,,,,,,,,,,,,,,,,,,,,63,2.5821,1,0,14,14,3,1,7,×,9,7 × 9,incongruent,smallerFirst,2,1,63,,,,,,,,
,,,,,,,,,,,,,,,690,2022-02-06_17h44.18.508,multiplicationStroop,2021.2.3,Win32,60.06727535,,,,,,,,,,,,,,,,,,,,,,,,,,,,,,,,,40,1.5742,1,0,15,15,13,1,5,×,8,5 × 8,incongruent,smallerFirst,2,1,40,,,,,,,,
,,,,,,,,,,,,,,,690,2022-02-06_17h44.18.508,multiplicationStroop,2021.2.3,Win32,60.06727535,,,,,,,,,,,,,,,,,,,,,,,,,,,,,,,,,56,1.4828,1,0,16,16,14,1,8,×,7,8 × 7,incongruent,largerFirst,1,2,56,,,,,,,,
,,,,,,,,,,,,,,,690,2022-02-06_17h44.18.508,multiplicationStroop,2021.2.3,Win32,60.06727535,,,,,,,,,,,,,,,,,,,,,,,,,,,,,,,,,10,1.5656,1,0,17,17,21,1,5,×,2,5 × 2,incongruent,largerFirst,1,2,10,,,,,,,,
,,,,,,,,,,,,,,,690,2022-02-06_17h44.18.508,multiplicationStroop,2021.2.3,Win32,60.06727535,,,,,,,,,,,,,,,,,,,,,,,,,,,,,,,,,9,1.3493,1,0,18,18,29,1,3,×,3,3 × 3,incongruent,tie,1,2,9,,,,,,,,
,,,,,,,,,,,,,,,690,2022-02-06_17h44.18.508,multiplicationStroop,2021.2.3,Win32,60.06727535,,,,,,,,,,,,,,,,,,,,,,,,,,,,,,,,,18,1.6832,1,0,19,19,8,1,3,×,6,3 × 6,incongruent,smallerFirst,2,1,18,,,,,,,,
,,,,,,,,,,,,,,,690,2022-02-06_17h44.18.508,multiplicationStroop,2021.2.3,Win32,60.06727535,,,,,,,,,,,,,,,,,,,,,,,,,,,,,,,,,16,1.4487,1,0,20,20,30,1,4,×,4,4 × 4,incongruent,tie,1,2,16,,,,,,,,
,,,,,,,,,,,,,,,690,2022-02-06_17h44.18.508,multiplicationStroop,2021.2.3,Win32,60.06727535,,,,,,,,,,,,,,,,,,,,,,,,,,,,,,,,,15,1.5499,1,0,21,21,10,1,3,×,5,3 × 5,incongruent,smallerFirst,2,1,15,,,,,,,,
,,,,,,,,,,,,,,,690,2022-02-06_17h44.18.508,multiplicationStroop,2021.2.3,Win32,60.06727535,,,,,,,,,,,,,,,,,,,,,,,,,,,,,,,,,18,1.5158,1,0,22,22,2,1,2,×,9,2 × 9,incongruent,smallerFirst,2,1,18,,,,,,,,
,,,,,,,,,,,,,,,690,2022-02-06_17h44.18.508,multiplicationStroop,2021.2.3,Win32,60.06727535,,,,,,,,,,,,,,,,,,,,,,,,,,,,,,,,,32,1.4821,1,0,23,23,7,1,4,×,8,4 × 8,incongruent,smallerFirst,2,1,32,,,,,,,,
,,,,,,,,,,,,,,,690,2022-02-06_17h44.18.508,multiplicationStroop,2021.2.3,Win32,60.06727535,,,,,,,,,,,,,,,,,,,,,,,,,,,,,,,,,20,1.5997,1,0,24,24,27,1,5,×,4,5 × 4,incongruent,largerFirst,1,2,20,,,,,,,,
,,,,,,,,,,,,,,,690,2022-02-06_17h44.18.508,multiplicationStroop,2021.2.3,Win32,60.06727535,,,,,,,,,,,,,,,,,,,,,,,,,,,,,,,,,16,1.4494,1,0,25,25,23,1,8,×,2,8 × 2,incongruent,largerFirst,1,2,16,,,,,,,,
,,,,,,,,,,,,,,,690,2022-02-06_17h44.18.508,multiplicationStroop,2021.2.3,Win32,60.06727535,,,,,,,,,,,,,,,,,,,,,,,,,,,,,,,,,72,1.9155,1,0,26,26,0,1,8,×,9,8 × 9,incongruent,smallerFirst,2,1,72,,,,,,,,
,,,,,,,,,,,,,,,690,2022-02-06_17h44.18.508,multiplicationStroop,2021.2.3,Win32,60.06727535,,,,,,,,,,,,,,,,,,,,,,,,,,,,,,,,,45,1.9663,1,0,27,27,22,1,9,×,5,9 × 5,incongruent,largerFirst,1,2,45,,,,,,,,
,,,,,,,,,,,,,,,690,2022-02-06_17h44.18.508,multiplicationStroop,2021.2.3,Win32,60.06727535,,,,,,,,,,,,,,,,,,,,,,,,,,,,,,,,,25,1.5822,1,0,28,28,31,1,5,×,5,5 × 5,incongruent,tie,1,2,25,,,,,,,,
,,,,,,,,,,,,,,,690,2022-02-06_17h44.18.508,multiplicationStroop,2021.2.3,Win32,60.06727535,,,,,,,,,,,,,,,,,,,,,,,,,,,,,,,,,64,1.5494,1,0,29,29,34,1,8,×,8,8 × 8,incongruent,tie,1,2,64,,,,,,,,
,,,,,,,,,,,,,,,690,2022-02-06_17h44.18.508,multiplicationStroop,2021.2.3,Win32,60.06727535,,,,,,,,,,,,,,,,,,,,,,,,,,,,,,,,,24,1.7491,1,0,30,30,20,1,6,×,4,6 × 4,incongruent,largerFirst,1,2,24,,,,,,,,
,,,,,,,,,,,,,,,690,2022-02-06_17h44.18.508,multiplicationStroop,2021.2.3,Win32,60.06727535,,,,,,,,,,,,,,,,,,,,,,,,,,,,,,,,,36,1.4995,1,0,31,31,32,1,6,×,6,6 × 6,incongruent,tie,1,2,36,,,,,,,,
,,,,,,,,,,,,,,,690,2022-02-06_17h44.18.508,multiplicationStroop,2021.2.3,Win32,60.06727535,,,,,,,,,,,,,,,,,,,,,,,,,,,,,,,,,49,1.5158,1,0,32,32,33,1,7,×,7,7 × 7,incongruent,tie,1,2,49,,,,,,,,
,,,,,,,,,,,,,,,690,2022-02-06_17h44.18.508,multiplicationStroop,2021.2.3,Win32,60.06727535,,,,,,,,,,,,,,,,,,,,,,,,,,,,,,,,,6,1.4158,1,0,33,33,11,1,2,×,3,2 × 3,incongruent,smallerFirst,2,1,6,,,,,,,,
,,,,,,,,,,,,,,,690,2022-02-06_17h44.18.508,multiplicationStroop,2021.2.3,Win32,60.06727535,,,,,,,,,,,,,,,,,,,,,,,,,,,,,,,,,36,1.9487,1,0,34,34,15,1,9,×,4,9 × 4,incongruent,largerFirst,1,2,36,,,,,,,,
,,,,,,,,,,,,,,,690,2022-02-06_17h44.18.508,multiplicationStroop,2021.2.3,Win32,60.06727535,,,,,,,,,,,,,,,,,,,,,,,,,,,,,,,,,28,1.7334,1,0,35,35,16,1,7,×,4,7 × 4,incongruent,largerFirst,1,2,28,,,,,,,,
,,,,,,,,,,,,,,,690,2022-02-06_17h44.18.508,multiplicationStroop,2021.2.3,Win32,60.06727535,,,,,,,,,,,,,,,,,,,,,,,,,,,,,,,,,,,,,,,,,,,,,,,,,,0,0,0,5,1,stimulusFile/mult_blk6_INcongruent.xlsx,,
,,,,,,,,,,,,,,,690,2022-02-06_17h44.18.508,multiplicationStroop,2021.2.3,Win32,60.06727535,,,,,,,,,,,,,,,,,,,,,,,,,,,,,,,space,1.2634,36,1.5766,1,0,0,0,0,1,4,×,9,4 × 9,congruent,smallerFirst,1,2,36,,,,,,,,
,,,,,,,,,,,,,,,690,2022-02-06_17h44.18.508,multiplicationStroop,2021.2.3,Win32,60.06727535,,,,,,,,,,,,,,,,,,,,,,,,,,,,,,,,,10,1.3162,1,0,1,1,24,1,5,×,2,5 × 2,congruent,largerFirst,2,1,10,,,,,,,,
,,,,,,,,,,,,,,,690,2022-02-06_17h44.18.508,multiplicationStroop,2021.2.3,Win32,60.06727535,,,,,,,,,,,,,,,,,,,,,,,,,,,,,,,,,20,1.483,1,0,2,2,7,1,4,×,5,4 × 5,congruent,smallerFirst,1,2,20,,,,,,,,
,,,,,,,,,,,,,,,690,2022-02-06_17h44.18.508,multiplicationStroop,2021.2.3,Win32,60.06727535,,,,,,,,,,,,,,,,,,,,,,,,,,,,,,,,,30,1.5495,1,0,3,3,15,1,6,×,5,6 × 5,congruent,largerFirst,2,1,30,,,,,,,,
,,,,,,,,,,,,,,,690,2022-02-06_17h44.18.508,multiplicationStroop,2021.2.3,Win32,60.06727535,,,,,,,,,,,,,,,,,,,,,,,,,,,,,,,,,63,2.4489,1,0,4,4,21,1,9,×,7,9 × 7,congruent,largerFirst,2,1,63,,,,,,,,
,,,,,,,,,,,,,,,690,2022-02-06_17h44.18.508,multiplicationStroop,2021.2.3,Win32,60.06727535,,,,,,,,,,,,,,,,,,,,,,,,,,,,,,,,,18,2.0158,1,0,5,5,11,1,3,×,6,3 × 6,congruent,smallerFirst,1,2,18,,,,,,,,
,,,,,,,,,,,,,,,690,2022-02-06_17h44.18.508,multiplicationStroop,2021.2.3,Win32,60.06727535,,,,,,,,,,,,,,,,,,,,,,,,,,,,,,,,,35,1.6313,1,0,6,6,1,1,5,×,7,5 × 7,congruent,smallerFirst,1,2,35,,,,,,,,
,,,,,,,,,,,,,,,690,2022-02-06_17h44.18.508,multiplicationStroop,2021.2.3,Win32,60.06727535,,,,,,,,,,,,,,,,,,,,,,,,,,,,,,,,,54,1.5,1,0,7,7,12,1,6,×,9,6 × 9,congruent,smallerFirst,1,2,54,,,,,,,,
,,,,,,,,,,,,,,,690,2022-02-06_17h44.18.508,multiplicationStroop,2021.2.3,Win32,60.06727535,,,,,,,,,,,,,,,,,,,,,,,,,,,,,,,,,32,1.3826,1,0,8,8,20,1,8,×,4,8 × 4,congruent,largerFirst,2,1,32,,,,,,,,
,,,,,,,,,,,,,,,690,2022-02-06_17h44.18.508,multiplicationStroop,2021.2.3,Win32,60.06727535,,,,,,,,,,,,,,,,,,,,,,,,,,,,,,,,,24,1.3323,1,0,9,9,10,1,3,×,8,3 × 8,congruent,smallerFirst,1,2,24,,,,,,,,
,,,,,,,,,,,,,,,690,2022-02-06_17h44.18.508,multiplicationStroop,2021.2.3,Win32,60.06727535,,,,,,,,,,,,,,,,,,,,,,,,,,,,,,,,,16,1.6824,1,0,10,10,5,1,2,×,8,2 × 8,congruent,smallerFirst,1,2,16,,,,,,,,
,,,,,,,,,,,,,,,690,2022-02-06_17h44.18.508,multiplicationStroop,2021.2.3,Win32,60.06727535,,,,,,,,,,,,,,,,,,,,,,,,,,,,,,,,,48,1.5995,1,0,11,11,18,1,8,×,6,8 × 6,congruent,largerFirst,2,1,48,,,,,,,,
,,,,,,,,,,,,,,,690,2022-02-06_17h44.18.508,multiplicationStroop,2021.2.3,Win32,60.06727535,,,,,,,,,,,,,,,,,,,,,,,,,,,,,,,,,12,1.1826,1,0,12,12,19,1,6,×,2,6 × 2,congruent,largerFirst,2,1,12,,,,,,,,
,,,,,,,,,,,,,,,690,2022-02-06_17h44.18.508,multiplicationStroop,2021.2.3,Win32,60.06727535,,,,,,,,,,,,,,,,,,,,,,,,,,,,,,,,,8,1.5824,1,0,13,13,9,1,2,×,4,2 × 4,congruent,smallerFirst,1,2,8,,,,,,,,
,,,,,,,,,,,,,,,690,2022-02-06_17h44.18.508,multiplicationStroop,2021.2.3,Win32,60.06727535,,,,,,,,,,,,,,,,,,,,,,,,,,,,,,,,,16,1.3995,1,0,14,14,30,1,4,×,4,4 × 4,neutral,tie,2,1,16,,,,,,,,
,,,,,,,,,,,,,,,690,2022-02-06_17h44.18.508,multiplicationStroop,2021.2.3,Win32,60.06727535,,,,,,,,,,,,,,,,,,,,,,,,,,,,,,,,,12,1.249,1,0,15,15,2,1,3,×,4,3 × 4,congruent,smallerFirst,1,2,12,,,,,,,,
,,,,,,,,,,,,,,,690,2022-02-06_17h44.18.508,multiplicationStroop,2021.2.3,Win32,60.06727535,,,,,,,,,,,,,,,,,,,,,,,,,,,,,,,,,64,1.7164,1,0,16,16,34,1,8,×,8,8 × 8,neutral,tie,2,1,64,,,,,,,,
,,,,,,,,,,,,,,,690,2022-02-06_17h44.18.508,multiplicationStroop,2021.2.3,Win32,60.06727535,,,,,,,,,,,,,,,,,,,,,,,,,,,,,,,,,27,1.9995,1,0,17,17,26,1,9,×,3,9 × 3,congruent,largerFirst,2,1,27,,,,,,,,
,,,,,,,,,,,,,,,690,2022-02-06_17h44.18.508,multiplicationStroop,2021.2.3,Win32,60.06727535,,,,,,,,,,,,,,,,,,,,,,,,,,,,,,,,,9,1.4158,1,0,18,18,29,1,3,×,3,3 × 3,neutral,tie,2,1,9,,,,,,,,
,,,,,,,,,,,,,,,690,2022-02-06_17h44.18.508,multiplicationStroop,2021.2.3,Win32,60.06727535,,,,,,,,,,,,,,,,,,,,,,,,,,,,,,,,,4,1.3491,1,0,19,19,28,1,2,×,2,2 × 2,neutral,tie,2,1,4,,,,,,,,
,,,,,,,,,,,,,,,690,2022-02-06_17h44.18.508,multiplicationStroop,2021.2.3,Win32,60.06727535,,,,,,,,,,,,,,,,,,,,,,,,,,,,,,,,,24,1.3993,1,0,20,20,25,1,6,×,4,6 × 4,congruent,largerFirst,2,1,24,,,,,,,,
,,,,,,,,,,,,,,,690,2022-02-06_17h44.18.508,multiplicationStroop,2021.2.3,Win32,60.06727535,,,,,,,,,,,,,,,,,,,,,,,,,,,,,,,,,8,2.316,0,0,21,21,35,1,9,×,9,9 × 9,neutral,tie,2,1,81,,,,,,,,
,,,,,,,,,,,,,,,690,2022-02-06_17h44.18.508,multiplicationStroop,2021.2.3,Win32,60.06727535,,,,,,,,,,,,,,,,,,,,,,,,,,,,,,,,,56,2.0156,1,0,22,22,8,1,7,×,8,7 × 8,congruent,smallerFirst,1,2,56,,,,,,,,
,,,,,,,,,,,,,,,690,2022-02-06_17h44.18.508,multiplicationStroop,2021.2.3,Win32,60.06727535,,,,,,,,,,,,,,,,,,,,,,,,,,,,,,,,,25,1.7159,1,0,23,23,31,1,5,×,5,5 × 5,neutral,tie,2,1,25,,,,,,,,
,,,,,,,,,,,,,,,690,2022-02-06_17h44.18.508,multiplicationStroop,2021.2.3,Win32,60.06727535,,,,,,,,,,,,,,,,,,,,,,,,,,,,,,,,,15,1.3662,1,0,24,24,4,1,3,×,5,3 × 5,congruent,smallerFirst,1,2,15,,,,,,,,
,,,,,,,,,,,,,,,690,2022-02-06_17h44.18.508,multiplicationStroop,2021.2.3,Win32,60.06727535,,,,,,,,,,,,,,,,,,,,,,,,,,,,,,,,,14,1.3827,1,0,25,25,14,1,7,×,2,7 × 2,congruent,largerFirst,2,1,14,,,,,,,,
,,,,,,,,,,,,,,,690,2022-02-06_17h44.18.508,multiplicationStroop,2021.2.3,Win32,60.06727535,,,,,,,,,,,,,,,,,,,,,,,,,,,,,,,,,21,1.266,1,0,26,26,16,1,7,×,3,7 × 3,congruent,largerFirst,2,1,21,,,,,,,,
,,,,,,,,,,,,,,,690,2022-02-06_17h44.18.508,multiplicationStroop,2021.2.3,Win32,60.06727535,,,,,,,,,,,,,,,,,,,,,,,,,,,,,,,,,45,1.4159,1,0,27,27,23,1,9,×,5,9 × 5,congruent,largerFirst,2,1,45,,,,,,,,
,,,,,,,,,,,,,,,690,2022-02-06_17h44.18.508,multiplicationStroop,2021.2.3,Win32,60.06727535,,,,,,,,,,,,,,,,,,,,,,,,,,,,,,,,,28,1.6659,1,0,28,28,27,1,7,×,4,7 × 4,congruent,largerFirst,2,1,28,,,,,,,,
,,,,,,,,,,,,,,,690,2022-02-06_17h44.18.508,multiplicationStroop,2021.2.3,Win32,60.06727535,,,,,,,,,,,,,,,,,,,,,,,,,,,,,,,,,6,1.4495,1,0,29,29,13,1,2,×,3,2 × 3,congruent,smallerFirst,1,2,6,,,,,,,,
,,,,,,,,,,,,,,,690,2022-02-06_17h44.18.508,multiplicationStroop,2021.2.3,Win32,60.06727535,,,,,,,,,,,,,,,,,,,,,,,,,,,,,,,,,72,1.7487,1,0,30,30,17,1,9,×,8,9 × 8,congruent,largerFirst,2,1,72,,,,,,,,
,,,,,,,,,,,,,,,690,2022-02-06_17h44.18.508,multiplicationStroop,2021.2.3,Win32,60.06727535,,,,,,,,,,,,,,,,,,,,,,,,,,,,,,,,,42,1.3824,1,0,31,31,3,1,6,×,7,6 × 7,congruent,smallerFirst,1,2,42,,,,,,,,
,,,,,,,,,,,,,,,690,2022-02-06_17h44.18.508,multiplicationStroop,2021.2.3,Win32,60.06727535,,,,,,,,,,,,,,,,,,,,,,,,,,,,,,,,,18,1.6164,1,0,32,32,22,1,9,×,2,9 × 2,congruent,largerFirst,2,1,18,,,,,,,,
,,,,,,,,,,,,,,,690,2022-02-06_17h44.18.508,multiplicationStroop,2021.2.3,Win32,60.06727535,,,,,,,,,,,,,,,,,,,,,,,,,,,,,,,,,49,1.6159,1,0,33,33,33,1,7,×,7,7 × 7,neutral,tie,2,1,49,,,,,,,,
,,,,,,,,,,,,,,,690,2022-02-06_17h44.18.508,multiplicationStroop,2021.2.3,Win32,60.06727535,,,,,,,,,,,,,,,,,,,,,,,,,,,,,,,,,40,1.6161,1,0,34,34,6,1,5,×,8,5 × 8,congruent,smallerFirst,1,2,40,,,,,,,,
,,,,,,,,,,,,,,,690,2022-02-06_17h44.18.508,multiplicationStroop,2021.2.3,Win32,60.06727535,,,,,,,,,,,,,,,,,,,,,,,,,,,,,,,,,36,1.3989,1,0,35,35,32,1,6,×,6,6 × 6,neutral,tie,2,1,36,,,,,,,,
,,,,,,,,,,,,,,,690,2022-02-06_17h44.18.508,multiplicationStroop,2021.2.3,Win32,60.06727535,,,,,,,,,,,,,,,,,,,,,,,,,,,,,,,,,,,,,,,,,,,,,,,,,,0,1,1,2,1,stimulusFile/mult_blk3_congruent.xlsx,,
,,,,,,,,,,,,,,,690,2022-02-06_17h44.18.508,multiplicationStroop,2021.2.3,Win32,60.06727535,,,,,,,,,,,,,,,,,,,,,,,,,,,,,,,space,60.0402,8,1.4832,1,0,0,0,3,1,2,×,4,2 × 4,neutral,smallerFirst,1.5,1.5,8,,,,,,,,
,,,,,,,,,,,,,,,690,2022-02-06_17h44.18.508,multiplicationStroop,2021.2.3,Win32,60.06727535,,,,,,,,,,,,,,,,,,,,,,,,,,,,,,,,,56,1.5489,1,0,1,1,9,1,7,×,8,7 × 8,neutral,smallerFirst,1.5,1.5,56,,,,,,,,
,,,,,,,,,,,,,,,690,2022-02-06_17h44.18.508,multiplicationStroop,2021.2.3,Win32,60.06727535,,,,,,,,,,,,,,,,,,,,,,,,,,,,,,,,,20,1.8994,1,0,2,2,20,1,5,×,4,5 × 4,neutral,largerFirst,1.5,1.5,20,,,,,,,,
,,,,,,,,,,,,,,,690,2022-02-06_17h44.18.508,multiplicationStroop,2021.2.3,Win32,60.06727535,,,,,,,,,,,,,,,,,,,,,,,,,,,,,,,,,18,2.116,1,0,3,3,0,1,3,×,6,3 × 6,neutral,smallerFirst,1.5,1.5,18,,,,,,,,
,,,,,,,,,,,,,,,690,2022-02-06_17h44.18.508,multiplicationStroop,2021.2.3,Win32,60.06727535,,,,,,,,,,,,,,,,,,,,,,,,,,,,,,,,,15,1.3658,1,0,4,4,5,1,3,×,5,3 × 5,neutral,smallerFirst,1.5,1.5,15,,,,,,,,
,,,,,,,,,,,,,,,690,2022-02-06_17h44.18.508,multiplicationStroop,2021.2.3,Win32,60.06727535,,,,,,,,,,,,,,,,,,,,,,,,,,,,,,,,,30,1.4657,1,0,5,5,19,1,6,×,5,6 × 5,neutral,largerFirst,1.5,1.5,30,,,,,,,,
,,,,,,,,,,,,,,,690,2022-02-06_17h44.18.508,multiplicationStroop,2021.2.3,Win32,60.06727535,,,,,,,,,,,,,,,,,,,,,,,,,,,,,,,,,72,1.6664,1,0,6,6,11,1,8,×,9,8 × 9,neutral,smallerFirst,1.5,1.5,72,,,,,,,,
,,,,,,,,,,,,,,,690,2022-02-06_17h44.18.508,multiplicationStroop,2021.2.3,Win32,60.06727535,,,,,,,,,,,,,,,,,,,,,,,,,,,,,,,,,12,1.3161,1,0,7,7,25,1,6,×,2,6 × 2,neutral,largerFirst,1.5,1.5,12,,,,,,,,
,,,,,,,,,,,,,,,690,2022-02-06_17h44.18.508,multiplicationStroop,2021.2.3,Win32,60.06727535,,,,,,,,,,,,,,,,,,,,,,,,,,,,,,,,,4,1.1661,1,0,8,8,28,1,2,×,2,2 × 2,neutral,tie,1.5,1.5,4,,,,,,,,
,,,,,,,,,,,,,,,690,2022-02-06_17h44.18.508,multiplicationStroop,2021.2.3,Win32,60.06727535,,,,,,,,,,,,,,,,,,,,,,,,,,,,,,,,,9,1.3158,1,0,9,9,29,1,3,×,3,3 × 3,neutral,tie,1.5,1.5,9,,,,,,,,
,,,,,,,,,,,,,,,690,2022-02-06_17h44.18.508,multiplicationStroop,2021.2.3,Win32,60.06727535,,,,,,,,,,,,,,,,,,,,,,,,,,,,,,,,,64,1.6494,1,0,10,10,34,1,8,×,8,8 × 8,neutral,tie,1.5,1.5,64,,,,,,,,
,,,,,,,,,,,,,,,690,2022-02-06_17h44.18.508,multiplicationStroop,2021.2.3,Win32,60.06727535,,,,,,,,,,,,,,,,,,,,,,,,,,,,,,,,,12,1.2159,1,0,11,11,21,1,4,×,3,4 × 3,neutral,largerFirst,1.5,1.5,12,,,,,,,,
,,,,,,,,,,,,,,,690,2022-02-06_17h44.18.508,multiplicationStroop,2021.2.3,Win32,60.06727535,,,,,,,,,,,,,,,,,,,,,,,,,,,,,,,,,24,1.7997,1,0,12,12,22,1,8,×,3,8 × 3,neutral,largerFirst,1.5,1.5,24,,,,,,,,
,,,,,,,,,,,,,,,690,2022-02-06_17h44.18.508,multiplicationStroop,2021.2.3,Win32,60.06727535,,,,,,,,,,,,,,,,,,,,,,,,,,,,,,,,,10,1.4487,1,0,13,13,4,1,2,×,5,2 × 5,neutral,smallerFirst,1.5,1.5,10,,,,,,,,
,,,,,,,,,,,,,,,690,2022-02-06_17h44.18.508,multiplicationStroop,2021.2.3,Win32,60.06727535,,,,,,,,,,,,,,,,,,,,,,,,,,,,,,,,,42,1.3664,1,0,14,14,6,1,6,×,7,6 × 7,neutral,smallerFirst,1.5,1.5,42,,,,,,,,
,,,,,,,,,,,,,,,690,2022-02-06_17h44.18.508,multiplicationStroop,2021.2.3,Win32,60.06727535,,,,,,,,,,,,,,,,,,,,,,,,,,,,,,,,,63,1.8994,1,0,15,15,12,1,7,×,9,7 × 9,neutral,smallerFirst,1.5,1.5,63,,,,,,,,
,,,,,,,,,,,,,,,690,2022-02-06_17h44.18.508,multiplicationStroop,2021.2.3,Win32,60.06727535,,,,,,,,,,,,,,,,,,,,,,,,,,,,,,,,,35,1.4662,1,0,16,16,1,1,5,×,7,5 × 7,neutral,smallerFirst,1.5,1.5,35,,,,,,,,
,,,,,,,,,,,,,,,690,2022-02-06_17h44.18.508,multiplicationStroop,2021.2.3,Win32,60.06727535,,,,,,,,,,,,,,,,,,,,,,,,,,,,,,,,,36,2.0654,1,0,17,17,27,1,9,×,4,9 × 4,neutral,largerFirst,1.5,1.5,36,,,,,,,,
,,,,,,,,,,,,,,,690,2022-02-06_17h44.18.508,multiplicationStroop,2021.2.3,Win32,60.06727535,,,,,,,,,,,,,,,,,,,,,,,,,,,,,,,,,25,1.6335,1,0,18,18,31,1,5,×,5,5 × 5,neutral,tie,1.5,1.5,25,,,,,,,,
,,,,,,,,,,,,,,,690,2022-02-06_17h44.18.508,multiplicationStroop,2021.2.3,Win32,60.06727535,,,,,,,,,,,,,,,,,,,,,,,,,,,,,,,,,21,1.1825,1,0,19,19,8,1,3,×,7,3 × 7,neutral,smallerFirst,1.5,1.5,21,,,,,,,,
,,,,,,,,,,,,,,,690,2022-02-06_17h44.18.508,multiplicationStroop,2021.2.3,Win32,60.06727535,,,,,,,,,,,,,,,,,,,,,,,,,,,,,,,,,14,1.3325,1,0,20,20,16,1,7,×,2,7 × 2,neutral,largerFirst,1.5,1.5,14,,,,,,,,
,,,,,,,,,,,,,,,690,2022-02-06_17h44.18.508,multiplicationStroop,2021.2.3,Win32,60.06727535,,,,,,,,,,,,,,,,,,,,,,,,,,,,,,,,,40,1.5494,1,0,21,21,24,1,8,×,5,8 × 5,neutral,largerFirst,1.5,1.5,40,,,,,,,,
,,,,,,,,,,,,,,,690,2022-02-06_17h44.18.508,multiplicationStroop,2021.2.3,Win32,60.06727535,,,,,,,,,,,,,,,,,,,,,,,,,,,,,,,,,24,1.4325,1,0,22,22,2,1,4,×,6,4 × 6,neutral,smallerFirst,1.5,1.5,24,,,,,,,,
,,,,,,,,,,,,,,,690,2022-02-06_17h44.18.508,multiplicationStroop,2021.2.3,Win32,60.06727535,,,,,,,,,,,,,,,,,,,,,,,,,,,,,,,,,18,1.333,1,0,23,23,18,1,9,×,2,9 × 2,neutral,largerFirst,1.5,1.5,18,,,,,,,,
,,,,,,,,,,,,,,,690,2022-02-06_17h44.18.508,multiplicationStroop,2021.2.3,Win32,60.06727535,,,,,,,,,,,,,,,,,,,,,,,,,,,,,,,,,16,1.4659,1,0,24,24,30,1,4,×,4,4 × 4,neutral,tie,1.5,1.5,16,,,,,,,,
,,,,,,,,,,,,,,,690,2022-02-06_17h44.18.508,multiplicationStroop,2021.2.3,Win32,60.06727535,,,,,,,,,,,,,,,,,,,,,,,,,,,,,,,,,28,1.4994,1,0,25,25,17,1,7,×,4,7 × 4,neutral,largerFirst,1.5,1.5,28,,,,,,,,
,,,,,,,,,,,,,,,690,2022-02-06_17h44.18.508,multiplicationStroop,2021.2.3,Win32,60.06727535,,,,,,,,,,,,,,,,,,,,,,,,,,,,,,,,,49,1.616,1,0,26,26,33,1,7,×,7,7 × 7,neutral,tie,1.5,1.5,49,,,,,,,,
,,,,,,,,,,,,,,,690,2022-02-06_17h44.18.508,multiplicationStroop,2021.2.3,Win32,60.06727535,,,,,,,,,,,,,,,,,,,,,,,,,,,,,,,,,16,2.3658,1,0,27,27,13,1,2,×,8,2 × 8,neutral,smallerFirst,1.5,1.5,16,,,,,,,,
,,,,,,,,,,,,,,,690,2022-02-06_17h44.18.508,multiplicationStroop,2021.2.3,Win32,60.06727535,,,,,,,,,,,,,,,,,,,,,,,,,,,,,,,,,45,1.498,1,0,28,28,10,1,5,×,9,5 × 9,neutral,smallerFirst,1.5,1.5,45,,,,,,,,
,,,,,,,,,,,,,,,690,2022-02-06_17h44.18.508,multiplicationStroop,2021.2.3,Win32,60.06727535,,,,,,,,,,,,,,,,,,,,,,,,,,,,,,,,,32,1.316,1,0,29,29,23,1,8,×,4,8 × 4,neutral,largerFirst,1.5,1.5,32,,,,,,,,
,,,,,,,,,,,,,,,690,2022-02-06_17h44.18.508,multiplicationStroop,2021.2.3,Win32,60.06727535,,,,,,,,,,,,,,,,,,,,,,,,,,,,,,,,,6,1.4333,1,0,30,30,26,1,3,×,2,3 × 2,neutral,largerFirst,1.5,1.5,6,,,,,,,,
,,,,,,,,,,,,,,,690,2022-02-06_17h44.18.508,multiplicationStroop,2021.2.3,Win32,60.06727535,,,,,,,,,,,,,,,,,,,,,,,,,,,,,,,,,54,1.966,1,0,31,31,7,1,6,×,9,6 × 9,neutral,smallerFirst,1.5,1.5,54,,,,,,,,
,,,,,,,,,,,,,,,690,2022-02-06_17h44.18.508,multiplicationStroop,2021.2.3,Win32,60.06727535,,,,,,,,,,,,,,,,,,,,,,,,,,,,,,,,,48,1.6154,1,0,32,32,15,1,8,×,6,8 × 6,neutral,largerFirst,1.5,1.5,48,,,,,,,,
,,,,,,,,,,,,,,,690,2022-02-06_17h44.18.508,multiplicationStroop,2021.2.3,Win32,60.06727535,,,,,,,,,,,,,,,,,,,,,,,,,,,,,,,,,81,2.1828,1,0,33,33,35,1,9,×,9,9 × 9,neutral,tie,1.5,1.5,81,,,,,,,,
,,,,,,,,,,,,,,,690,2022-02-06_17h44.18.508,multiplicationStroop,2021.2.3,Win32,60.06727535,,,,,,,,,,,,,,,,,,,,,,,,,,,,,,,,,27,1.5996,1,0,34,34,14,1,9,×,3,9 × 3,neutral,largerFirst,1.5,1.5,27,,,,,,,,
,,,,,,,,,,,,,,,690,2022-02-06_17h44.18.508,multiplicationStroop,2021.2.3,Win32,60.06727535,,,,,,,,,,,,,,,,,,,,,,,,,,,,,,,,,36,1.6155,1,0,35,35,32,1,6,×,6,6 × 6,neutral,tie,1.5,1.5,36,,,,,,,,
,,,,,,,,,,,,,,,690,2022-02-06_17h44.18.508,multiplicationStroop,2021.2.3,Win32,60.06727535,,,,,,,,,,,,,,,,,,,,,,,,,,,,,,,,,,,,,,,,,,,,,,,,,,0,2,2,1,1,stimulusFile/mult_blk2.xlsx,,
,,,,,,,,,,,,,,,690,2022-02-06_17h44.18.508,multiplicationStroop,2021.2.3,Win32,60.06727535,,,,,,,,,,,,,,,,,,,,,,,,,,,,,,,space,1.0526,6,1.9901,1,0,0,0,25,1,3,×,2,3 × 2,incongruent,largerFirst,1,2,6,,,,,,,,
,,,,,,,,,,,,,,,690,2022-02-06_17h44.18.508,multiplicationStroop,2021.2.3,Win32,60.06727535,,,,,,,,,,,,,,,,,,,,,,,,,,,,,,,,,21,1.448,1,0,1,1,12,1,3,×,7,3 × 7,incongruent,smallerFirst,2,1,21,,,,,,,,
,,,,,,,,,,,,,,,690,2022-02-06_17h44.18.508,multiplicationStroop,2021.2.3,Win32,60.06727535,,,,,,,,,,,,,,,,,,,,,,,,,,,,,,,,,27,2.3995,1,0,2,2,4,1,3,×,9,3 × 9,incongruent,smallerFirst,2,1,27,,,,,,,,
,,,,,,,,,,,,,,,690,2022-02-06_17h44.18.508,multiplicationStroop,2021.2.3,Win32,60.06727535,,,,,,,,,,,,,,,,,,,,,,,,,,,,,,,,,56,1.4654,1,0,3,3,0,1,7,×,8,7 × 8,incongruent,smallerFirst,2,1,56,,,,,,,,
,,,,,,,,,,,,,,,690,2022-02-06_17h44.18.508,multiplicationStroop,2021.2.3,Win32,60.06727535,,,,,,,,,,,,,,,,,,,,,,,,,,,,,,,,,18,1.6336,1,0,4,4,22,1,6,×,3,6 × 3,incongruent,largerFirst,1,2,18,,,,,,,,
,,,,,,,,,,,,,,,690,2022-02-06_17h44.18.508,multiplicationStroop,2021.2.3,Win32,60.06727535,,,,,,,,,,,,,,,,,,,,,,,,,,,,,,,,,15,1.4154,1,0,5,5,24,1,5,×,3,5 × 3,incongruent,largerFirst,1,2,15,,,,,,,,
,,,,,,,,,,,,,,,690,2022-02-06_17h44.18.508,multiplicationStroop,2021.2.3,Win32,60.06727535,,,,,,,,,,,,,,,,,,,,,,,,,,,,,,,,,9,1.4665,1,0,6,6,29,1,3,×,3,3 × 3,neutral,tie,2,1,9,,,,,,,,
,,,,,,,,,,,,,,,690,2022-02-06_17h44.18.508,multiplicationStroop,2021.2.3,Win32,60.06727535,,,,,,,,,,,,,,,,,,,,,,,,,,,,,,,,,63,1.8491,1,0,7,7,17,1,9,×,7,9 × 7,incongruent,largerFirst,1,2,63,,,,,,,,
,,,,,,,,,,,,,,,690,2022-02-06_17h44.18.508,multiplicationStroop,2021.2.3,Win32,60.06727535,,,,,,,,,,,,,,,,,,,,,,,,,,,,,,,,,54,1.5166,1,0,8,8,20,1,9,×,6,9 × 6,incongruent,largerFirst,1,2,54,,,,,,,,
,,,,,,,,,,,,,,,690,2022-02-06_17h44.18.508,multiplicationStroop,2021.2.3,Win32,60.06727535,,,,,,,,,,,,,,,,,,,,,,,,,,,,,,,,,45,1.6153,1,0,9,9,8,1,5,×,9,5 × 9,incongruent,smallerFirst,2,1,45,,,,,,,,
,,,,,,,,,,,,,,,690,2022-02-06_17h44.18.508,multiplicationStroop,2021.2.3,Win32,60.06727535,,,,,,,,,,,,,,,,,,,,,,,,,,,,,,,,,24,1.4333,1,0,10,10,6,1,4,×,6,4 × 6,incongruent,smallerFirst,2,1,24,,,,,,,,
,,,,,,,,,,,,,,,690,2022-02-06_17h44.18.508,multiplicationStroop,2021.2.3,Win32,60.06727535,,,,,,,,,,,,,,,,,,,,,,,,,,,,,,,,,42,1.3983,1,0,11,11,3,1,6,×,7,6 × 7,incongruent,smallerFirst,2,1,42,,,,,,,,
,,,,,,,,,,,,,,,690,2022-02-06_17h44.18.508,multiplicationStroop,2021.2.3,Win32,60.06727535,,,,,,,,,,,,,,,,,,,,,,,,,,,,,,,,,8,1.4323,1,0,12,12,10,1,2,×,4,2 × 4,incongruent,smallerFirst,2,1,8,,,,,,,,
,,,,,,,,,,,,,,,690,2022-02-06_17h44.18.508,multiplicationStroop,2021.2.3,Win32,60.06727535,,,,,,,,,,,,,,,,,,,,,,,,,,,,,,,,,18,1.5326,1,0,13,13,16,1,9,×,2,9 × 2,incongruent,largerFirst,1,2,18,,,,,,,,
,,,,,,,,,,,,,,,690,2022-02-06_17h44.18.508,multiplicationStroop,2021.2.3,Win32,60.06727535,,,,,,,,,,,,,,,,,,,,,,,,,,,,,,,,,12,1.2827,1,0,14,14,5,1,2,×,6,2 × 6,incongruent,smallerFirst,2,1,12,,,,,,,,
,,,,,,,,,,,,,,,690,2022-02-06_17h44.18.508,multiplicationStroop,2021.2.3,Win32,60.06727535,,,,,,,,,,,,,,,,,,,,,,,,,,,,,,,,,35,1.4492,1,0,15,15,26,1,7,×,5,7 × 5,incongruent,largerFirst,1,2,35,,,,,,,,
,,,,,,,,,,,,,,,690,2022-02-06_17h44.18.508,multiplicationStroop,2021.2.3,Win32,60.06727535,,,,,,,,,,,,,,,,,,,,,,,,,,,,,,,,,25,1.516,1,0,16,16,31,1,5,×,5,5 × 5,neutral,tie,2,1,25,,,,,,,,
,,,,,,,,,,,,,,,690,2022-02-06_17h44.18.508,multiplicationStroop,2021.2.3,Win32,60.06727535,,,,,,,,,,,,,,,,,,,,,,,,,,,,,,,,,36,1.649,1,0,17,17,1,1,4,×,9,4 × 9,incongruent,smallerFirst,2,1,36,,,,,,,,
,,,,,,,,,,,,,,,690,2022-02-06_17h44.18.508,multiplicationStroop,2021.2.3,Win32,60.06727535,,,,,,,,,,,,,,,,,,,,,,,,,,,,,,,,,49,2.1828,1,0,18,18,33,1,7,×,7,7 × 7,neutral,tie,2,1,49,,,,,,,,
,,,,,,,,,,,,,,,690,2022-02-06_17h44.18.508,multiplicationStroop,2021.2.3,Win32,60.06727535,,,,,,,,,,,,,,,,,,,,,,,,,,,,,,,,,72,1.9656,1,0,19,19,14,1,9,×,8,9 × 8,incongruent,largerFirst,1,2,72,,,,,,,,
,,,,,,,,,,,,,,,690,2022-02-06_17h44.18.508,multiplicationStroop,2021.2.3,Win32,60.06727535,,,,,,,,,,,,,,,,,,,,,,,,,,,,,,,,,64,1.616,1,0,20,20,34,1,8,×,8,8 × 8,neutral,tie,2,1,64,,,,,,,,
,,,,,,,,,,,,,,,690,2022-02-06_17h44.18.508,multiplicationStroop,2021.2.3,Win32,60.06727535,,,,,,,,,,,,,,,,,,,,,,,,,,,,,,,,,16,1.5165,1,0,21,21,9,1,2,×,8,2 × 8,incongruent,smallerFirst,2,1,16,,,,,,,,
,,,,,,,,,,,,,,,690,2022-02-06_17h44.18.508,multiplicationStroop,2021.2.3,Win32,60.06727535,,,,,,,,,,,,,,,,,,,,,,,,,,,,,,,,,4,1.2494,1,0,22,22,28,1,2,×,2,2 × 2,neutral,tie,2,1,4,,,,,,,,
,,,,,,,,,,,,,,,690,2022-02-06_17h44.18.508,multiplicationStroop,2021.2.3,Win32,60.06727535,,,,,,,,,,,,,,,,,,,,,,,,,,,,,,,,,40,1.6656,1,0,23,23,27,1,8,×,5,8 × 5,incongruent,largerFirst,1,2,40,,,,,,,,
,,,,,,,,,,,,,,,690,2022-02-06_17h44.18.508,multiplicationStroop,2021.2.3,Win32,60.06727535,,,,,,,,,,,,,,,,,,,,,,,,,,,,,,,,,36,2.0491,1,0,24,24,32,1,6,×,6,6 × 6,neutral,tie,2,1,36,,,,,,,,
,,,,,,,,,,,,,,,690,2022-02-06_17h44.18.508,multiplicationStroop,2021.2.3,Win32,60.06727535,,,,,,,,,,,,,,,,,,,,,,,,,,,,,,,,,10,1.3829,1,0,25,25,7,1,2,×,5,2 × 5,incongruent,smallerFirst,2,1,10,,,,,,,,
,,,,,,,,,,,,,,,690,2022-02-06_17h44.18.508,multiplicationStroop,2021.2.3,Win32,60.06727535,,,,,,,,,,,,,,,,,,,,,,,,,,,,,,,,,30,1.4993,1,0,26,26,11,1,5,×,6,5 × 6,incongruent,smallerFirst,2,1,30,,,,,,,,
,,,,,,,,,,,,,,,690,2022-02-06_17h44.18.508,multiplicationStroop,2021.2.3,Win32,60.06727535,,,,,,,,,,,,,,,,,,,,,,,,,,,,,,,,,14,1.332,1,0,27,27,18,1,7,×,2,7 × 2,incongruent,largerFirst,1,2,14,,,,,,,,
,,,,,,,,,,,,,,,690,2022-02-06_17h44.18.508,multiplicationStroop,2021.2.3,Win32,60.06727535,,,,,,,,,,,,,,,,,,,,,,,,,,,,,,,,,81,1.7329,1,0,28,28,35,1,9,×,9,9 × 9,neutral,tie,2,1,81,,,,,,,,
,,,,,,,,,,,,,,,690,2022-02-06_17h44.18.508,multiplicationStroop,2021.2.3,Win32,60.06727535,,,,,,,,,,,,,,,,,,,,,,,,,,,,,,,,,32,1.533,1,0,29,29,21,1,8,×,4,8 × 4,incongruent,largerFirst,1,2,32,,,,,,,,
,,,,,,,,,,,,,,,690,2022-02-06_17h44.18.508,multiplicationStroop,2021.2.3,Win32,60.06727535,,,,,,,,,,,,,,,,,,,,,,,,,,,,,,,,,48,1.8993,1,0,30,30,15,1,8,×,6,8 × 6,incongruent,largerFirst,1,2,48,,,,,,,,
,,,,,,,,,,,,,,,690,2022-02-06_17h44.18.508,multiplicationStroop,2021.2.3,Win32,60.06727535,,,,,,,,,,,,,,,,,,,,,,,,,,,,,,,,,48,2.7824,0,0,31,31,2,1,4,×,7,4 × 7,incongruent,smallerFirst,2,1,28,,,,,,,,
,,,,,,,,,,,,,,,690,2022-02-06_17h44.18.508,multiplicationStroop,2021.2.3,Win32,60.06727535,,,,,,,,,,,,,,,,,,,,,,,,,,,,,,,,,16,1.6997,1,0,32,32,30,1,4,×,4,4 × 4,neutral,tie,2,1,16,,,,,,,,
,,,,,,,,,,,,,,,690,2022-02-06_17h44.18.508,multiplicationStroop,2021.2.3,Win32,60.06727535,,,,,,,,,,,,,,,,,,,,,,,,,,,,,,,,,20,1.4657,1,0,33,33,13,1,4,×,5,4 × 5,incongruent,smallerFirst,2,1,20,,,,,,,,
,,,,,,,,,,,,,,,690,2022-02-06_17h44.18.508,multiplicationStroop,2021.2.3,Win32,60.06727535,,,,,,,,,,,,,,,,,,,,,,,,,,,,,,,,,24,1.4995,1,0,34,34,23,1,8,×,3,8 × 3,incongruent,largerFirst,1,2,24,,,,,,,,
,,,,,,,,,,,,,,,690,2022-02-06_17h44.18.508,multiplicationStroop,2021.2.3,Win32,60.06727535,,,,,,,,,,,,,,,,,,,,,,,,,,,,,,,,,12,1.8826,1,0,35,35,19,1,4,×,3,4 × 3,incongruent,largerFirst,1,2,12,,,,,,,,
,,,,,,,,,,,,,,,690,2022-02-06_17h44.18.508,multiplicationStroop,2021.2.3,Win32,60.06727535,,,,,,,,,,,,,,,,,,,,,,,,,,,,,,,,,,,,,,,,,,,,,,,,,,0,3,3,4,1,stimulusFile/mult_blk5_INcongruent.xlsx,,
,,,,,,,,,,,,,,,690,2022-02-06_17h44.18.508,multiplicationStroop,2021.2.3,Win32,60.06727535,,,,,,,,,,,,,,,,,,,,,,,,,,,,,,,space,0.9909,16,1.4136,1,0,0,0,19,1,8,×,2,8 × 2,congruent,largerFirst,2,1,16,,,,,,,,
,,,,,,,,,,,,,,,690,2022-02-06_17h44.18.508,multiplicationStroop,2021.2.3,Win32,60.06727535,,,,,,,,,,,,,,,,,,,,,,,,,,,,,,,,,81,1.6321,1,0,1,1,35,1,9,×,9,9 × 9,neutral,tie,1,2,81,,,,,,,,
,,,,,,,,,,,,,,,690,2022-02-06_17h44.18.508,multiplicationStroop,2021.2.3,Win32,60.06727535,,,,,,,,,,,,,,,,,,,,,,,,,,,,,,,,,25,1.4662,0,0,2,2,24,1,8,×,3,8 × 3,congruent,largerFirst,2,1,24,,,,,,,,
,,,,,,,,,,,,,,,690,2022-02-06_17h44.18.508,multiplicationStroop,2021.2.3,Win32,60.06727535,,,,,,,,,,,,,,,,,,,,,,,,,,,,,,,,,24,2.3161,1,0,3,3,11,1,4,×,6,4 × 6,congruent,smallerFirst,1,2,24,,,,,,,,
,,,,,,,,,,,,,,,690,2022-02-06_17h44.18.508,multiplicationStroop,2021.2.3,Win32,60.06727535,,,,,,,,,,,,,,,,,,,,,,,,,,,,,,,,,64,1.9652,1,0,4,4,34,1,8,×,8,8 × 8,neutral,tie,1,2,64,,,,,,,,
,,,,,,,,,,,,,,,690,2022-02-06_17h44.18.508,multiplicationStroop,2021.2.3,Win32,60.06727535,,,,,,,,,,,,,,,,,,,,,,,,,,,,,,,,,4,1.1659,1,0,5,5,28,1,2,×,2,2 × 2,neutral,tie,1,2,4,,,,,,,,
,,,,,,,,,,,,,,,690,2022-02-06_17h44.18.508,multiplicationStroop,2021.2.3,Win32,60.06727535,,,,,,,,,,,,,,,,,,,,,,,,,,,,,,,,,42,1.5998,1,0,6,6,17,1,7,×,6,7 × 6,congruent,largerFirst,2,1,42,,,,,,,,
,,,,,,,,,,,,,,,690,2022-02-06_17h44.18.508,multiplicationStroop,2021.2.3,Win32,60.06727535,,,,,,,,,,,,,,,,,,,,,,,,,,,,,,,,,10,1.3991,1,0,7,7,10,1,2,×,5,2 × 5,congruent,smallerFirst,1,2,10,,,,,,,,
,,,,,,,,,,,,,,,690,2022-02-06_17h44.18.508,multiplicationStroop,2021.2.3,Win32,60.06727535,,,,,,,,,,,,,,,,,,,,,,,,,,,,,,,,,48,1.6158,1,0,8,8,4,1,6,×,8,6 × 8,congruent,smallerFirst,1,2,48,,,,,,,,
,,,,,,,,,,,,,,,690,2022-02-06_17h44.18.508,multiplicationStroop,2021.2.3,Win32,60.06727535,,,,,,,,,,,,,,,,,,,,,,,,,,,,,,,,,27,1.6669,1,0,9,9,12,1,3,×,9,3 × 9,congruent,smallerFirst,1,2,27,,,,,,,,
,,,,,,,,,,,,,,,690,2022-02-06_17h44.18.508,multiplicationStroop,2021.2.3,Win32,60.06727535,,,,,,,,,,,,,,,,,,,,,,,,,,,,,,,,,63,1.7986,1,0,10,10,7,1,7,×,9,7 × 9,congruent,smallerFirst,1,2,63,,,,,,,,
,,,,,,,,,,,,,,,690,2022-02-06_17h44.18.508,multiplicationStroop,2021.2.3,Win32,60.06727535,,,,,,,,,,,,,,,,,,,,,,,,,,,,,,,,,16,1.4829,1,0,11,11,30,1,4,×,4,4 × 4,neutral,tie,1,2,16,,,,,,,,
,,,,,,,,,,,,,,,690,2022-02-06_17h44.18.508,multiplicationStroop,2021.2.3,Win32,60.06727535,,,,,,,,,,,,,,,,,,,,,,,,,,,,,,,,,40,1.5326,1,0,12,12,20,1,8,×,5,8 × 5,congruent,largerFirst,2,1,40,,,,,,,,
,,,,,,,,,,,,,,,690,2022-02-06_17h44.18.508,multiplicationStroop,2021.2.3,Win32,60.06727535,,,,,,,,,,,,,,,,,,,,,,,,,,,,,,,,,18,1.4328,1,0,13,13,8,1,2,×,9,2 × 9,congruent,smallerFirst,1,2,18,,,,,,,,
,,,,,,,,,,,,,,,690,2022-02-06_17h44.18.508,multiplicationStroop,2021.2.3,Win32,60.06727535,,,,,,,,,,,,,,,,,,,,,,,,,,,,,,,,,18,1.8989,1,0,14,14,25,1,6,×,3,6 × 3,congruent,largerFirst,2,1,18,,,,,,,,
,,,,,,,,,,,,,,,690,2022-02-06_17h44.18.508,multiplicationStroop,2021.2.3,Win32,60.06727535,,,,,,,,,,,,,,,,,,,,,,,,,,,,,,,,,56,1.4666,1,0,15,15,22,1,8,×,7,8 × 7,congruent,largerFirst,2,1,56,,,,,,,,
,,,,,,,,,,,,,,,690,2022-02-06_17h44.18.508,multiplicationStroop,2021.2.3,Win32,60.06727535,,,,,,,,,,,,,,,,,,,,,,,,,,,,,,,,,36,1.5325,1,0,16,16,32,1,6,×,6,6 × 6,neutral,tie,1,2,36,,,,,,,,
,,,,,,,,,,,,,,,690,2022-02-06_17h44.18.508,multiplicationStroop,2021.2.3,Win32,60.06727535,,,,,,,,,,,,,,,,,,,,,,,,,,,,,,,,,25,1.5156,1,0,17,17,31,1,5,×,5,5 × 5,neutral,tie,1,2,25,,,,,,,,
,,,,,,,,,,,,,,,690,2022-02-06_17h44.18.508,multiplicationStroop,2021.2.3,Win32,60.06727535,,,,,,,,,,,,,,,,,,,,,,,,,,,,,,,,,15,1.5664,1,0,18,18,18,1,5,×,3,5 × 3,congruent,largerFirst,2,1,15,,,,,,,,
,,,,,,,,,,,,,,,690,2022-02-06_17h44.18.508,multiplicationStroop,2021.2.3,Win32,60.06727535,,,,,,,,,,,,,,,,,,,,,,,,,,,,,,,,,36,1.8654,1,0,19,19,14,1,9,×,4,9 × 4,congruent,largerFirst,2,1,36,,,,,,,,
,,,,,,,,,,,,,,,690,2022-02-06_17h44.18.508,multiplicationStroop,2021.2.3,Win32,60.06727535,,,,,,,,,,,,,,,,,,,,,,,,,,,,,,,,,21,1.8663,1,0,20,20,2,1,3,×,7,3 × 7,congruent,smallerFirst,1,2,21,,,,,,,,
,,,,,,,,,,,,,,,690,2022-02-06_17h44.18.508,multiplicationStroop,2021.2.3,Win32,60.06727535,,,,,,,,,,,,,,,,,,,,,,,,,,,,,,,,,35,1.6327,1,0,21,21,15,1,7,×,5,7 × 5,congruent,largerFirst,2,1,35,,,,,,,,
,,,,,,,,,,,,,,,690,2022-02-06_17h44.18.508,multiplicationStroop,2021.2.3,Win32,60.06727535,,,,,,,,,,,,,,,,,,,,,,,,,,,,,,,,,8,1.4827,1,0,22,22,23,1,4,×,2,4 × 2,congruent,largerFirst,2,1,8,,,,,,,,
,,,,,,,,,,,,,,,690,2022-02-06_17h44.18.508,multiplicationStroop,2021.2.3,Win32,60.06727535,,,,,,,,,,,,,,,,,,,,,,,,,,,,,,,,,12,1.3659,1,0,23,23,5,1,2,×,6,2 × 6,congruent,smallerFirst,1,2,12,,,,,,,,
,,,,,,,,,,,,,,,690,2022-02-06_17h44.18.508,multiplicationStroop,2021.2.3,Win32,60.06727535,,,,,,,,,,,,,,,,,,,,,,,,,,,,,,,,,49,1.7325,1,0,24,24,33,1,7,×,7,7 × 7,neutral,tie,1,2,49,,,,,,,,
,,,,,,,,,,,,,,,690,2022-02-06_17h44.18.508,multiplicationStroop,2021.2.3,Win32,60.06727535,,,,,,,,,,,,,,,,,,,,,,,,,,,,,,,,,30,2.6655,1,0,25,25,1,1,5,×,6,5 × 6,congruent,smallerFirst,1,2,30,,,,,,,,
,,,,,,,,,,,,,,,690,2022-02-06_17h44.18.508,multiplicationStroop,2021.2.3,Win32,60.06727535,,,,,,,,,,,,,,,,,,,,,,,,,,,,,,,,,6,1.4337,1,0,26,26,27,1,3,×,2,3 × 2,congruent,largerFirst,2,1,6,,,,,,,,
,,,,,,,,,,,,,,,690,2022-02-06_17h44.18.508,multiplicationStroop,2021.2.3,Win32,60.06727535,,,,,,,,,,,,,,,,,,,,,,,,,,,,,,,,,9,1.3487,1,0,27,27,29,1,3,×,3,3 × 3,neutral,tie,1,2,9,,,,,,,,
,,,,,,,,,,,,,,,690,2022-02-06_17h44.18.508,multiplicationStroop,2021.2.3,Win32,60.06727535,,,,,,,,,,,,,,,,,,,,,,,,,,,,,,,,,32,1.9496,1,0,28,28,6,1,4,×,8,4 × 8,congruent,smallerFirst,1,2,32,,,,,,,,
,,,,,,,,,,,,,,,690,2022-02-06_17h44.18.508,multiplicationStroop,2021.2.3,Win32,60.06727535,,,,,,,,,,,,,,,,,,,,,,,,,,,,,,,,,28,1.5656,1,0,29,29,13,1,4,×,7,4 × 7,congruent,smallerFirst,1,2,28,,,,,,,,
,,,,,,,,,,,,,,,690,2022-02-06_17h44.18.508,multiplicationStroop,2021.2.3,Win32,60.06727535,,,,,,,,,,,,,,,,,,,,,,,,,,,,,,,,,20,2.0991,1,0,30,30,21,1,5,×,4,5 × 4,congruent,largerFirst,2,1,20,,,,,,,,
,,,,,,,,,,,,,,,690,2022-02-06_17h44.18.508,multiplicationStroop,2021.2.3,Win32,60.06727535,,,,,,,,,,,,,,,,,,,,,,,,,,,,,,,,,45,1.5325,1,0,31,31,9,1,5,×,9,5 × 9,congruent,smallerFirst,1,2,45,,,,,,,,
,,,,,,,,,,,,,,,690,2022-02-06_17h44.18.508,multiplicationStroop,2021.2.3,Win32,60.06727535,,,,,,,,,,,,,,,,,,,,,,,,,,,,,,,,,12,1.2663,1,0,32,32,16,1,4,×,3,4 × 3,congruent,largerFirst,2,1,12,,,,,,,,
,,,,,,,,,,,,,,,690,2022-02-06_17h44.18.508,multiplicationStroop,2021.2.3,Win32,60.06727535,,,,,,,,,,,,,,,,,,,,,,,,,,,,,,,,,14,1.3326,1,0,33,33,0,1,2,×,7,2 × 7,congruent,smallerFirst,1,2,14,,,,,,,,
,,,,,,,,,,,,,,,690,2022-02-06_17h44.18.508,multiplicationStroop,2021.2.3,Win32,60.06727535,,,,,,,,,,,,,,,,,,,,,,,,,,,,,,,,,72,1.7495,1,0,34,34,3,1,8,×,9,8 × 9,congruent,smallerFirst,1,2,72,,,,,,,,
,,,,,,,,,,,,,,,690,2022-02-06_17h44.18.508,multiplicationStroop,2021.2.3,Win32,60.06727535,,,,,,,,,,,,,,,,,,,,,,,,,,,,,,,,,54,1.5321,1,0,35,35,26,1,9,×,6,9 × 6,congruent,largerFirst,2,1,54,,,,,,,,
,,,,,,,,,,,,,,,690,2022-02-06_17h44.18.508,multiplicationStroop,2021.2.3,Win32,60.06727535,,,,,,,,,,,,,,,,,,,,,,,,,,,,,,,,,,,,,,,,,,,,,,,,,,0,4,4,3,1,stimulusFile/mult_blk4_congruent.xlsx,,
,,,,,,,,,,,,,,,690,2022-02-06_17h44.18.508,multiplicationStroop,2021.2.3,Win32,60.06727535,,,,,,,,,,,,,,,,,,,,,,,,,,,,,,,space,1.1545,56,1.5064,1,0,0,0,23,1,8,×,7,8 × 7,neutral,largerFirst,1.5,1.5,56,,,,,,,,
,,,,,,,,,,,,,,,690,2022-02-06_17h44.18.508,multiplicationStroop,2021.2.3,Win32,60.06727535,,,,,,,,,,,,,,,,,,,,,,,,,,,,,,,,,72,1.6324,1,0,1,1,25,1,9,×,8,9 × 8,neutral,largerFirst,1.5,1.5,72,,,,,,,,
,,,,,,,,,,,,,,,690,2022-02-06_17h44.18.508,multiplicationStroop,2021.2.3,Win32,60.06727535,,,,,,,,,,,,,,,,,,,,,,,,,,,,,,,,,18,1.4493,1,0,2,2,4,1,2,×,9,2 × 9,neutral,smallerFirst,1.5,1.5,18,,,,,,,,
,,,,,,,,,,,,,,,690,2022-02-06_17h44.18.508,multiplicationStroop,2021.2.3,Win32,60.06727535,,,,,,,,,,,,,,,,,,,,,,,,,,,,,,,,,12,1.1663,1,0,3,3,11,1,2,×,6,2 × 6,neutral,smallerFirst,1.5,1.5,12,,,,,,,,
,,,,,,,,,,,,,,,690,2022-02-06_17h44.18.508,multiplicationStroop,2021.2.3,Win32,60.06727535,,,,,,,,,,,,,,,,,,,,,,,,,,,,,,,,,48,1.5991,1,0,4,4,1,1,6,×,8,6 × 8,neutral,smallerFirst,1.5,1.5,48,,,,,,,,
,,,,,,,,,,,,,,,690,2022-02-06_17h44.18.508,multiplicationStroop,2021.2.3,Win32,60.06727535,,,,,,,,,,,,,,,,,,,,,,,,,,,,,,,,,42,1.2825,1,0,5,5,20,1,7,×,6,7 × 6,neutral,largerFirst,1.5,1.5,42,,,,,,,,
,,,,,,,,,,,,,,,690,2022-02-06_17h44.18.508,multiplicationStroop,2021.2.3,Win32,60.06727535,,,,,,,,,,,,,,,,,,,,,,,,,,,,,,,,,63,1.8666,1,0,6,6,26,1,9,×,7,9 × 7,neutral,largerFirst,1.5,1.5,63,,,,,,,,
,,,,,,,,,,,,,,,690,2022-02-06_17h44.18.508,multiplicationStroop,2021.2.3,Win32,60.06727535,,,,,,,,,,,,,,,,,,,,,,,,,,,,,,,,,4,1.1823,1,0,7,7,28,1,2,×,2,2 × 2,neutral,tie,1.5,1.5,4,,,,,,,,
,,,,,,,,,,,,,,,690,2022-02-06_17h44.18.508,multiplicationStroop,2021.2.3,Win32,60.06727535,,,,,,,,,,,,,,,,,,,,,,,,,,,,,,,,,30,1.6496,1,0,8,8,5,1,5,×,6,5 × 6,neutral,smallerFirst,1.5,1.5,30,,,,,,,,
,,,,,,,,,,,,,,,690,2022-02-06_17h44.18.508,multiplicationStroop,2021.2.3,Win32,60.06727535,,,,,,,,,,,,,,,,,,,,,,,,,,,,,,,,,32,1.9495,1,0,9,9,9,1,4,×,8,4 × 8,neutral,smallerFirst,1.5,1.5,32,,,,,,,,
,,,,,,,,,,,,,,,690,2022-02-06_17h44.18.508,multiplicationStroop,2021.2.3,Win32,60.06727535,,,,,,,,,,,,,,,,,,,,,,,,,,,,,,,,,14,2.4162,1,0,10,10,2,1,2,×,7,2 × 7,neutral,smallerFirst,1.5,1.5,14,,,,,,,,
,,,,,,,,,,,,,,,690,2022-02-06_17h44.18.508,multiplicationStroop,2021.2.3,Win32,60.06727535,,,,,,,,,,,,,,,,,,,,,,,,,,,,,,,,,36,1.4208,1,0,11,11,32,1,6,×,6,6 × 6,neutral,tie,1.5,1.5,36,,,,,,,,
,,,,,,,,,,,,,,,690,2022-02-06_17h44.18.508,multiplicationStroop,2021.2.3,Win32,60.06727535,,,,,,,,,,,,,,,,,,,,,,,,,,,,,,,,,54,1.4663,1,0,12,12,21,1,9,×,6,9 × 6,neutral,largerFirst,1.5,1.5,54,,,,,,,,
,,,,,,,,,,,,,,,690,2022-02-06_17h44.18.508,multiplicationStroop,2021.2.3,Win32,60.06727535,,,,,,,,,,,,,,,,,,,,,,,,,,,,,,,,,8,1.4824,1,0,13,13,17,1,4,×,2,4 × 2,neutral,largerFirst,1.5,1.5,8,,,,,,,,
,,,,,,,,,,,,,,,690,2022-02-06_17h44.18.508,multiplicationStroop,2021.2.3,Win32,60.06727535,,,,,,,,,,,,,,,,,,,,,,,,,,,,,,,,,24,1.5997,1,0,14,14,8,1,3,×,8,3 × 8,neutral,smallerFirst,1.5,1.5,24,,,,,,,,
,,,,,,,,,,,,,,,690,2022-02-06_17h44.18.508,multiplicationStroop,2021.2.3,Win32,60.06727535,,,,,,,,,,,,,,,,,,,,,,,,,,,,,,,,,49,1.5322,1,0,15,15,33,1,7,×,7,7 × 7,neutral,tie,1.5,1.5,49,,,,,,,,
,,,,,,,,,,,,,,,690,2022-02-06_17h44.18.508,multiplicationStroop,2021.2.3,Win32,60.06727535,,,,,,,,,,,,,,,,,,,,,,,,,,,,,,,,,81,1.6831,1,0,16,16,35,1,9,×,9,9 × 9,neutral,tie,1.5,1.5,81,,,,,,,,
,,,,,,,,,,,,,,,690,2022-02-06_17h44.18.508,multiplicationStroop,2021.2.3,Win32,60.06727535,,,,,,,,,,,,,,,,,,,,,,,,,,,,,,,,,16,1.6324,1,0,17,17,30,1,4,×,4,4 × 4,neutral,tie,1.5,1.5,16,,,,,,,,
,,,,,,,,,,,,,,,690,2022-02-06_17h44.18.508,multiplicationStroop,2021.2.3,Win32,60.06727535,,,,,,,,,,,,,,,,,,,,,,,,,,,,,,,,,24,1.4826,1,0,18,18,16,1,6,×,4,6 × 4,neutral,largerFirst,1.5,1.5,24,,,,,,,,
,,,,,,,,,,,,,,,690,2022-02-06_17h44.18.508,multiplicationStroop,2021.2.3,Win32,60.06727535,,,,,,,,,,,,,,,,,,,,,,,,,,,,,,,,,10,1.5824,1,0,19,19,18,1,5,×,2,5 × 2,neutral,largerFirst,1.5,1.5,10,,,,,,,,
,,,,,,,,,,,,,,,690,2022-02-06_17h44.18.508,multiplicationStroop,2021.2.3,Win32,60.06727535,,,,,,,,,,,,,,,,,,,,,,,,,,,,,,,,,20,1.8663,1,0,20,20,6,1,4,×,5,4 × 5,neutral,smallerFirst,1.5,1.5,20,,,,,,,,
,,,,,,,,,,,,,,,690,2022-02-06_17h44.18.508,multiplicationStroop,2021.2.3,Win32,60.06727535,,,,,,,,,,,,,,,,,,,,,,,,,,,,,,,,,35,1.433,1,0,21,21,15,1,7,×,5,7 × 5,neutral,largerFirst,1.5,1.5,35,,,,,,,,
,,,,,,,,,,,,,,,690,2022-02-06_17h44.18.508,multiplicationStroop,2021.2.3,Win32,60.06727535,,,,,,,,,,,,,,,,,,,,,,,,,,,,,,,,,18,1.5656,1,0,22,22,14,1,6,×,3,6 × 3,neutral,largerFirst,1.5,1.5,18,,,,,,,,
,,,,,,,,,,,,,,,690,2022-02-06_17h44.18.508,multiplicationStroop,2021.2.3,Win32,60.06727535,,,,,,,,,,,,,,,,,,,,,,,,,,,,,,,,,9,1.3995,1,0,23,23,29,1,3,×,3,3 × 3,neutral,tie,1.5,1.5,9,,,,,,,,
,,,,,,,,,,,,,,,690,2022-02-06_17h44.18.508,multiplicationStroop,2021.2.3,Win32,60.06727535,,,,,,,,,,,,,,,,,,,,,,,,,,,,,,,,,64,1.5333,1,0,24,24,34,1,8,×,8,8 × 8,neutral,tie,1.5,1.5,64,,,,,,,,
,,,,,,,,,,,,,,,690,2022-02-06_17h44.18.508,multiplicationStroop,2021.2.3,Win32,60.06727535,,,,,,,,,,,,,,,,,,,,,,,,,,,,,,,,,12,1.2657,1,0,25,25,7,1,3,×,4,3 × 4,neutral,smallerFirst,1.5,1.5,12,,,,,,,,
,,,,,,,,,,,,,,,690,2022-02-06_17h44.18.508,multiplicationStroop,2021.2.3,Win32,60.06727535,,,,,,,,,,,,,,,,,,,,,,,,,,,,,,,,,36,1.5498,1,0,26,26,13,1,4,×,9,4 × 9,neutral,smallerFirst,1.5,1.5,36,,,,,,,,
,,,,,,,,,,,,,,,690,2022-02-06_17h44.18.508,multiplicationStroop,2021.2.3,Win32,60.06727535,,,,,,,,,,,,,,,,,,,,,,,,,,,,,,,,,25,1.516,1,0,27,27,31,1,5,×,5,5 × 5,neutral,tie,1.5,1.5,25,,,,,,,,
,,,,,,,,,,,,,,,690,2022-02-06_17h44.18.508,multiplicationStroop,2021.2.3,Win32,60.06727535,,,,,,,,,,,,,,,,,,,,,,,,,,,,,,,,,45,1.5498,1,0,28,28,24,1,9,×,5,9 × 5,neutral,largerFirst,1.5,1.5,45,,,,,,,,
,,,,,,,,,,,,,,,690,2022-02-06_17h44.18.508,multiplicationStroop,2021.2.3,Win32,60.06727535,,,,,,,,,,,,,,,,,,,,,,,,,,,,,,,,,16,1.4987,1,0,29,29,27,1,8,×,2,8 × 2,neutral,largerFirst,1.5,1.5,16,,,,,,,,
,,,,,,,,,,,,,,,690,2022-02-06_17h44.18.508,multiplicationStroop,2021.2.3,Win32,60.06727535,,,,,,,,,,,,,,,,,,,,,,,,,,,,,,,,,40,1.4996,1,0,30,30,10,1,5,×,8,5 × 8,neutral,smallerFirst,1.5,1.5,40,,,,,,,,
,,,,,,,,,,,,,,,690,2022-02-06_17h44.18.508,multiplicationStroop,2021.2.3,Win32,60.06727535,,,,,,,,,,,,,,,,,,,,,,,,,,,,,,,,,21,1.3995,1,0,31,31,22,1,7,×,3,7 × 3,neutral,largerFirst,1.5,1.5,21,,,,,,,,
,,,,,,,,,,,,,,,690,2022-02-06_17h44.18.508,multiplicationStroop,2021.2.3,Win32,60.06727535,,,,,,,,,,,,,,,,,,,,,,,,,,,,,,,,,27,2.4826,1,0,32,32,0,1,3,×,9,3 × 9,neutral,smallerFirst,1.5,1.5,27,,,,,,,,
,,,,,,,,,,,,,,,690,2022-02-06_17h44.18.508,multiplicationStroop,2021.2.3,Win32,60.06727535,,,,,,,,,,,,,,,,,,,,,,,,,,,,,,,,,6,1.4013,1,0,33,33,12,1,2,×,3,2 × 3,neutral,smallerFirst,1.5,1.5,6,,,,,,,,
,,,,,,,,,,,,,,,690,2022-02-06_17h44.18.508,multiplicationStroop,2021.2.3,Win32,60.06727535,,,,,,,,,,,,,,,,,,,,,,,,,,,,,,,,,28,1.6329,1,0,34,34,3,1,4,×,7,4 × 7,neutral,smallerFirst,1.5,1.5,28,,,,,,,,
,,,,,,,,,,,,,,,690,2022-02-06_17h44.18.508,multiplicationStroop,2021.2.3,Win32,60.06727535,,,,,,,,,,,,,,,,,,,,,,,,,,,,,,,,,15,1.3491,1,0,35,35,19,1,5,×,3,5 × 3,neutral,largerFirst,1.5,1.5,15,,,,,,,,
,,,,,,,,,,,,,,,690,2022-02-06_17h44.18.508,multiplicationStroop,2021.2.3,Win32,60.06727535,,,,,,,,,,,,,,,,,,,,,,,,,,,,,,,,,,,,,,,,,,,,,,,,,,0,5,5,0,1,stimulusFile/mult_blk1.xlsx,,
,,,,,,,,,,,,,,,690,2022-02-06_17h44.18.508,multiplicationStroop,2021.2.3,Win32,60.06727535,,,,,,,,,,,,,,,,,,,,,,,,,,,,,,,,,,,,,,,,,,,,,,,,,,,,,,,,space,5.6855