welcomeKey_resp.keys,welcomeKey_resp.rt,X Scale,Y Scale,rt_resp_4.keys,rt_resp_4.corr,rt_resp_4.rt,speedtest_2.thisRepN,speedtest_2.thisTrialN,speedtest_2.thisN,speedtest_2.thisIndex,speedtest_2.ran,numberSc,posX,positionLayout,participant,date,expName,psychopyVersion,OS,frameRate,ct_instrresp.keys,ct_instrresp.rt,key_resp_2.keys,key_resp_2.rt,ct_keyResp.keys,ct_keyResp.corr,ct_keyResp.rt,trials.thisRepN,trials.thisTrialN,trials.thisN,trials.thisIndex,trials.ran,leftNo,rightNo,displayProblem,numDistance,leftNo_size,rightNo_size,Dims,keyAnswer,TS_Loop.thisRepN,TS_Loop.thisTrialN,TS_Loop.thisN,TS_Loop.thisIndex,TS_Loop.ran,Condition,ActionInst,instrImage,mltptaskInst_resp.keys,mltptaskInst_resp.rt,continue_resp_2.keys,continue_resp_2.rt,multp_Answer,multi_RT,multiplyCorr,LoopingMultiply.thisRepN,LoopingMultiply.thisTrialN,LoopingMultiply.thisN,LoopingMultiply.thisIndex,LoopingMultiply.ran,factor1,multiplySign,factor2,multliplyProblem,physicalSize,orderOperand,sizeF1,sizeF2,mult_answer,trials_stroop.thisRepN,trials_stroop.thisTrialN,trials_stroop.thisN,trials_stroop.thisIndex,trials_stroop.ran,multiplicationFile,esckey_resp_2.keys,esckey_resp_2.rt
y,5.4399,41.3,41.3,right,1,0.9351,0,0,0,14,1,8,200,right,692,2022-02-03_13h52.50.452,multiplicationStroop,2021.2.3,Win32,60.52902367,,,,,,,,,,,,,,,,,,,,,,,,,,,,,,,,,,,,,,,,,,,,,,,,,,,,,,,,,
,,,,right,1,0.624,0,1,1,13,1,7,200,right,692,2022-02-03_13h52.50.452,multiplicationStroop,2021.2.3,Win32,60.52902367,,,,,,,,,,,,,,,,,,,,,,,,,,,,,,,,,,,,,,,,,,,,,,,,,,,,,,,,,
,,,,left,1,0.5859,0,2,2,5,1,7,-200,left,692,2022-02-03_13h52.50.452,multiplicationStroop,2021.2.3,Win32,60.52902367,,,,,,,,,,,,,,,,,,,,,,,,,,,,,,,,,,,,,,,,,,,,,,,,,,,,,,,,,
,,,,left,1,0.5222,0,3,3,1,1,2,-200,left,692,2022-02-03_13h52.50.452,multiplicationStroop,2021.2.3,Win32,60.52902367,,,,,,,,,,,,,,,,,,,,,,,,,,,,,,,,,,,,,,,,,,,,,,,,,,,,,,,,,
,,,,right,1,0.4671,0,4,4,9,1,2,200,right,692,2022-02-03_13h52.50.452,multiplicationStroop,2021.2.3,Win32,60.52902367,,,,,,,,,,,,,,,,,,,,,,,,,,,,,,,,,,,,,,,,,,,,,,,,,,,,,,,,,
,,,,right,1,0.3729,0,5,5,15,1,9,200,right,692,2022-02-03_13h52.50.452,multiplicationStroop,2021.2.3,Win32,60.52902367,,,,,,,,,,,,,,,,,,,,,,,,,,,,,,,,,,,,,,,,,,,,,,,,,,,,,,,,,
,,,,right,1,0.4161,0,6,6,10,1,3,200,right,692,2022-02-03_13h52.50.452,multiplicationStroop,2021.2.3,Win32,60.52902367,,,,,,,,,,,,,,,,,,,,,,,,,,,,,,,,,,,,,,,,,,,,,,,,,,,,,,,,,
,,,,left,1,0.3062,0,7,7,0,1,1,-200,left,692,2022-02-03_13h52.50.452,multiplicationStroop,2021.2.3,Win32,60.52902367,,,,,,,,,,,,,,,,,,,,,,,,,,,,,,,,,,,,,,,,,,,,,,,,,,,,,,,,,
,,,,left,1,0.2989,0,8,8,2,1,3,-200,left,692,2022-02-03_13h52.50.452,multiplicationStroop,2021.2.3,Win32,60.52902367,,,,,,,,,,,,,,,,,,,,,,,,,,,,,,,,,,,,,,,,,,,,,,,,,,,,,,,,,
,,,,right,1,0.3532,0,9,9,11,1,4,200,right,692,2022-02-03_13h52.50.452,multiplicationStroop,2021.2.3,Win32,60.52902367,,,,,,,,,,,,,,,,,,,,,,,,,,,,,,,,,,,,,,,,,,,,,,,,,,,,,,,,,
,,,,left,1,0.2844,0,10,10,3,1,4,-200,left,692,2022-02-03_13h52.50.452,multiplicationStroop,2021.2.3,Win32,60.52902367,,,,,,,,,,,,,,,,,,,,,,,,,,,,,,,,,,,,,,,,,,,,,,,,,,,,,,,,,
,,,,left,1,0.3033,0,11,11,6,1,8,-200,left,692,2022-02-03_13h52.50.452,multiplicationStroop,2021.2.3,Win32,60.52902367,,,,,,,,,,,,,,,,,,,,,,,,,,,,,,,,,,,,,,,,,,,,,,,,,,,,,,,,,
,,,,right,1,0.309,0,12,12,8,1,1,200,right,692,2022-02-03_13h52.50.452,multiplicationStroop,2021.2.3,Win32,60.52902367,,,,,,,,,,,,,,,,,,,,,,,,,,,,,,,,,,,,,,,,,,,,,,,,,,,,,,,,,
,,,,left,1,0.283,0,13,13,7,1,9,-200,left,692,2022-02-03_13h52.50.452,multiplicationStroop,2021.2.3,Win32,60.52902367,,,,,,,,,,,,,,,,,,,,,,,,,,,,,,,,,,,,,,,,,,,,,,,,,,,,,,,,,
,,,,left,1,0.3139,0,14,14,4,1,6,-200,left,692,2022-02-03_13h52.50.452,multiplicationStroop,2021.2.3,Win32,60.52902367,,,,,,,,,,,,,,,,,,,,,,,,,,,,,,,,,,,,,,,,,,,,,,,,,,,,,,,,,
,,,,right,1,0.3859,0,15,15,12,1,6,200,right,692,2022-02-03_13h52.50.452,multiplicationStroop,2021.2.3,Win32,60.52902367,,,,,,,,,,,,,,,,,,,,,,,,,,,,,,,,,,,,,,,,,,,,,,,,,,,,,,,,,
,,,,left,1,0.3244,1,0,16,1,1,2,-200,left,692,2022-02-03_13h52.50.452,multiplicationStroop,2021.2.3,Win32,60.52902367,,,,,,,,,,,,,,,,,,,,,,,,,,,,,,,,,,,,,,,,,,,,,,,,,,,,,,,,,
,,,,right,1,0.3423,1,1,17,8,1,1,200,right,692,2022-02-03_13h52.50.452,multiplicationStroop,2021.2.3,Win32,60.52902367,,,,,,,,,,,,,,,,,,,,,,,,,,,,,,,,,,,,,,,,,,,,,,,,,,,,,,,,,
,,,,right,1,0.433,1,2,18,13,1,7,200,right,692,2022-02-03_13h52.50.452,multiplicationStroop,2021.2.3,Win32,60.52902367,,,,,,,,,,,,,,,,,,,,,,,,,,,,,,,,,,,,,,,,,,,,,,,,,,,,,,,,,
,,,,right,1,0.3197,1,3,19,12,1,6,200,right,692,2022-02-03_13h52.50.452,multiplicationStroop,2021.2.3,Win32,60.52902367,,,,,,,,,,,,,,,,,,,,,,,,,,,,,,,,,,,,,,,,,,,,,,,,,,,,,,,,,
,,,,left,1,0.3906,1,4,20,4,1,6,-200,left,692,2022-02-03_13h52.50.452,multiplicationStroop,2021.2.3,Win32,60.52902367,,,,,,,,,,,,,,,,,,,,,,,,,,,,,,,,,,,,,,,,,,,,,,,,,,,,,,,,,
,,,,left,1,0.3085,1,5,21,6,1,8,-200,left,692,2022-02-03_13h52.50.452,multiplicationStroop,2021.2.3,Win32,60.52902367,,,,,,,,,,,,,,,,,,,,,,,,,,,,,,,,,,,,,,,,,,,,,,,,,,,,,,,,,
,,,,right,1,0.3691,1,6,22,15,1,9,200,right,692,2022-02-03_13h52.50.452,multiplicationStroop,2021.2.3,Win32,60.52902367,,,,,,,,,,,,,,,,,,,,,,,,,,,,,,,,,,,,,,,,,,,,,,,,,,,,,,,,,
,,,,left,1,0.2586,1,7,23,3,1,4,-200,left,692,2022-02-03_13h52.50.452,multiplicationStroop,2021.2.3,Win32,60.52902367,,,,,,,,,,,,,,,,,,,,,,,,,,,,,,,,,,,,,,,,,,,,,,,,,,,,,,,,,
,,,,right,1,0.3216,1,8,24,10,1,3,200,right,692,2022-02-03_13h52.50.452,multiplicationStroop,2021.2.3,Win32,60.52902367,,,,,,,,,,,,,,,,,,,,,,,,,,,,,,,,,,,,,,,,,,,,,,,,,,,,,,,,,
,,,,right,1,0.3889,1,9,25,14,1,8,200,right,692,2022-02-03_13h52.50.452,multiplicationStroop,2021.2.3,Win32,60.52902367,,,,,,,,,,,,,,,,,,,,,,,,,,,,,,,,,,,,,,,,,,,,,,,,,,,,,,,,,
,,,,right,1,0.3428,1,10,26,11,1,4,200,right,692,2022-02-03_13h52.50.452,multiplicationStroop,2021.2.3,Win32,60.52902367,,,,,,,,,,,,,,,,,,,,,,,,,,,,,,,,,,,,,,,,,,,,,,,,,,,,,,,,,
,,,,right,1,0.3048,1,11,27,9,1,2,200,right,692,2022-02-03_13h52.50.452,multiplicationStroop,2021.2.3,Win32,60.52902367,,,,,,,,,,,,,,,,,,,,,,,,,,,,,,,,,,,,,,,,,,,,,,,,,,,,,,,,,
,,,,left,1,0.3369,1,12,28,7,1,9,-200,left,692,2022-02-03_13h52.50.452,multiplicationStroop,2021.2.3,Win32,60.52902367,,,,,,,,,,,,,,,,,,,,,,,,,,,,,,,,,,,,,,,,,,,,,,,,,,,,,,,,,
,,,,left,1,0.3162,1,13,29,0,1,1,-200,left,692,2022-02-03_13h52.50.452,multiplicationStroop,2021.2.3,Win32,60.52902367,,,,,,,,,,,,,,,,,,,,,,,,,,,,,,,,,,,,,,,,,,,,,,,,,,,,,,,,,
,,,,left,1,0.2883,1,14,30,2,1,3,-200,left,692,2022-02-03_13h52.50.452,multiplicationStroop,2021.2.3,Win32,60.52902367,,,,,,,,,,,,,,,,,,,,,,,,,,,,,,,,,,,,,,,,,,,,,,,,,,,,,,,,,
,,,,left,1,0.4948,1,15,31,5,1,7,-200,left,692,2022-02-03_13h52.50.452,multiplicationStroop,2021.2.3,Win32,60.52902367,,,,,,,,,,,,,,,,,,,,,,,,,,,,,,,,,,,,,,,,,,,,,,,,,,,,,,,,,
,,,,right,1,0.3552,2,0,32,15,1,9,200,right,692,2022-02-03_13h52.50.452,multiplicationStroop,2021.2.3,Win32,60.52902367,,,,,,,,,,,,,,,,,,,,,,,,,,,,,,,,,,,,,,,,,,,,,,,,,,,,,,,,,
,,,,left,1,0.2871,2,1,33,6,1,8,-200,left,692,2022-02-03_13h52.50.452,multiplicationStroop,2021.2.3,Win32,60.52902367,,,,,,,,,,,,,,,,,,,,,,,,,,,,,,,,,,,,,,,,,,,,,,,,,,,,,,,,,
,,,,left,1,0.3675,2,2,34,2,1,3,-200,left,692,2022-02-03_13h52.50.452,multiplicationStroop,2021.2.3,Win32,60.52902367,,,,,,,,,,,,,,,,,,,,,,,,,,,,,,,,,,,,,,,,,,,,,,,,,,,,,,,,,
,,,,right,1,0.3654,2,3,35,13,1,7,200,right,692,2022-02-03_13h52.50.452,multiplicationStroop,2021.2.3,Win32,60.52902367,,,,,,,,,,,,,,,,,,,,,,,,,,,,,,,,,,,,,,,,,,,,,,,,,,,,,,,,,
,,,,left,1,0.2989,2,4,36,4,1,6,-200,left,692,2022-02-03_13h52.50.452,multiplicationStroop,2021.2.3,Win32,60.52902367,,,,,,,,,,,,,,,,,,,,,,,,,,,,,,,,,,,,,,,,,,,,,,,,,,,,,,,,,
,,,,right,1,0.2662,2,5,37,11,1,4,200,right,692,2022-02-03_13h52.50.452,multiplicationStroop,2021.2.3,Win32,60.52902367,,,,,,,,,,,,,,,,,,,,,,,,,,,,,,,,,,,,,,,,,,,,,,,,,,,,,,,,,
,,,,right,1,0.4267,2,6,38,14,1,8,200,right,692,2022-02-03_13h52.50.452,multiplicationStroop,2021.2.3,Win32,60.52902367,,,,,,,,,,,,,,,,,,,,,,,,,,,,,,,,,,,,,,,,,,,,,,,,,,,,,,,,,
,,,,right,1,0.327,2,7,39,8,1,1,200,right,692,2022-02-03_13h52.50.452,multiplicationStroop,2021.2.3,Win32,60.52902367,,,,,,,,,,,,,,,,,,,,,,,,,,,,,,,,,,,,,,,,,,,,,,,,,,,,,,,,,
,,,,left,1,0.3513,2,8,40,7,1,9,-200,left,692,2022-02-03_13h52.50.452,multiplicationStroop,2021.2.3,Win32,60.52902367,,,,,,,,,,,,,,,,,,,,,,,,,,,,,,,,,,,,,,,,,,,,,,,,,,,,,,,,,
,,,,left,1,0.3204,2,9,41,5,1,7,-200,left,692,2022-02-03_13h52.50.452,multiplicationStroop,2021.2.3,Win32,60.52902367,,,,,,,,,,,,,,,,,,,,,,,,,,,,,,,,,,,,,,,,,,,,,,,,,,,,,,,,,
,,,,left,1,0.3335,2,10,42,0,1,1,-200,left,692,2022-02-03_13h52.50.452,multiplicationStroop,2021.2.3,Win32,60.52902367,,,,,,,,,,,,,,,,,,,,,,,,,,,,,,,,,,,,,,,,,,,,,,,,,,,,,,,,,
,,,,left,1,0.3246,2,11,43,3,1,4,-200,left,692,2022-02-03_13h52.50.452,multiplicationStroop,2021.2.3,Win32,60.52902367,,,,,,,,,,,,,,,,,,,,,,,,,,,,,,,,,,,,,,,,,,,,,,,,,,,,,,,,,
,,,,right,1,0.3881,2,12,44,12,1,6,200,right,692,2022-02-03_13h52.50.452,multiplicationStroop,2021.2.3,Win32,60.52902367,,,,,,,,,,,,,,,,,,,,,,,,,,,,,,,,,,,,,,,,,,,,,,,,,,,,,,,,,
,,,,right,1,0.339,2,13,45,10,1,3,200,right,692,2022-02-03_13h52.50.452,multiplicationStroop,2021.2.3,Win32,60.52902367,,,,,,,,,,,,,,,,,,,,,,,,,,,,,,,,,,,,,,,,,,,,,,,,,,,,,,,,,
,,,,left,1,0.4047,2,14,46,1,1,2,-200,left,692,2022-02-03_13h52.50.452,multiplicationStroop,2021.2.3,Win32,60.52902367,,,,,,,,,,,,,,,,,,,,,,,,,,,,,,,,,,,,,,,,,,,,,,,,,,,,,,,,,
,,,,right,1,0.2998,2,15,47,9,1,2,200,right,692,2022-02-03_13h52.50.452,multiplicationStroop,2021.2.3,Win32,60.52902367,,,,,,,,,,,,,,,,,,,,,,,,,,,,,,,,,,,,,,,,,,,,,,,,,,,,,,,,,
,,,,left,1,0.359,3,0,48,2,1,3,-200,left,692,2022-02-03_13h52.50.452,multiplicationStroop,2021.2.3,Win32,60.52902367,,,,,,,,,,,,,,,,,,,,,,,,,,,,,,,,,,,,,,,,,,,,,,,,,,,,,,,,,
,,,,right,1,0.3236,3,1,49,12,1,6,200,right,692,2022-02-03_13h52.50.452,multiplicationStroop,2021.2.3,Win32,60.52902367,,,,,,,,,,,,,,,,,,,,,,,,,,,,,,,,,,,,,,,,,,,,,,,,,,,,,,,,,
,,,,left,1,0.9394,3,2,50,3,1,4,-200,left,692,2022-02-03_13h52.50.452,multiplicationStroop,2021.2.3,Win32,60.52902367,,,,,,,,,,,,,,,,,,,,,,,,,,,,,,,,,,,,,,,,,,,,,,,,,,,,,,,,,
,,,,left,1,0.3664,3,3,51,0,1,1,-200,left,692,2022-02-03_13h52.50.452,multiplicationStroop,2021.2.3,Win32,60.52902367,,,,,,,,,,,,,,,,,,,,,,,,,,,,,,,,,,,,,,,,,,,,,,,,,,,,,,,,,
,,,,right,1,0.4003,3,4,52,9,1,2,200,right,692,2022-02-03_13h52.50.452,multiplicationStroop,2021.2.3,Win32,60.52902367,,,,,,,,,,,,,,,,,,,,,,,,,,,,,,,,,,,,,,,,,,,,,,,,,,,,,,,,,
,,,,right,1,0.3315,3,5,53,10,1,3,200,right,692,2022-02-03_13h52.50.452,multiplicationStroop,2021.2.3,Win32,60.52902367,,,,,,,,,,,,,,,,,,,,,,,,,,,,,,,,,,,,,,,,,,,,,,,,,,,,,,,,,
,,,,left,1,0.3215,3,6,54,4,1,6,-200,left,692,2022-02-03_13h52.50.452,multiplicationStroop,2021.2.3,Win32,60.52902367,,,,,,,,,,,,,,,,,,,,,,,,,,,,,,,,,,,,,,,,,,,,,,,,,,,,,,,,,
,,,,left,1,0.3101,3,7,55,5,1,7,-200,left,692,2022-02-03_13h52.50.452,multiplicationStroop,2021.2.3,Win32,60.52902367,,,,,,,,,,,,,,,,,,,,,,,,,,,,,,,,,,,,,,,,,,,,,,,,,,,,,,,,,
,,,,right,1,0.344,3,8,56,8,1,1,200,right,692,2022-02-03_13h52.50.452,multiplicationStroop,2021.2.3,Win32,60.52902367,,,,,,,,,,,,,,,,,,,,,,,,,,,,,,,,,,,,,,,,,,,,,,,,,,,,,,,,,
,,,,left,1,0.3034,3,9,57,6,1,8,-200,left,692,2022-02-03_13h52.50.452,multiplicationStroop,2021.2.3,Win32,60.52902367,,,,,,,,,,,,,,,,,,,,,,,,,,,,,,,,,,,,,,,,,,,,,,,,,,,,,,,,,
,,,,left,1,0.3212,3,10,58,7,1,9,-200,left,692,2022-02-03_13h52.50.452,multiplicationStroop,2021.2.3,Win32,60.52902367,,,,,,,,,,,,,,,,,,,,,,,,,,,,,,,,,,,,,,,,,,,,,,,,,,,,,,,,,
,,,,right,1,0.3335,3,11,59,15,1,9,200,right,692,2022-02-03_13h52.50.452,multiplicationStroop,2021.2.3,Win32,60.52902367,,,,,,,,,,,,,,,,,,,,,,,,,,,,,,,,,,,,,,,,,,,,,,,,,,,,,,,,,
,,,,right,1,0.3547,3,12,60,14,1,8,200,right,692,2022-02-03_13h52.50.452,multiplicationStroop,2021.2.3,Win32,60.52902367,,,,,,,,,,,,,,,,,,,,,,,,,,,,,,,,,,,,,,,,,,,,,,,,,,,,,,,,,
,,,,right,1,0.3331,3,13,61,11,1,4,200,right,692,2022-02-03_13h52.50.452,multiplicationStroop,2021.2.3,Win32,60.52902367,,,,,,,,,,,,,,,,,,,,,,,,,,,,,,,,,,,,,,,,,,,,,,,,,,,,,,,,,
,,,,left,1,0.3202,3,14,62,1,1,2,-200,left,692,2022-02-03_13h52.50.452,multiplicationStroop,2021.2.3,Win32,60.52902367,,,,,,,,,,,,,,,,,,,,,,,,,,,,,,,,,,,,,,,,,,,,,,,,,,,,,,,,,
,,,,right,1,0.3002,3,15,63,13,1,7,200,right,692,2022-02-03_13h52.50.452,multiplicationStroop,2021.2.3,Win32,60.52902367,,,,,,,,,,,,,,,,,,,,,,,,,,,,,,,,,,,,,,,,,,,,,,,,,,,,,,,,,
,,,,,,,,,,,,,,,692,2022-02-03_13h52.50.452,multiplicationStroop,2021.2.3,Win32,60.52902367,space,5.8522,space,4.2239,left,1,0.6996,0,0,0,54,1,7,7,7 | 7,0,1.9756,1.4111,neutral,left,,,,,,stimulusFile/physical.xlsx,,,,,,,,,,,,,,,,,,,,,,,,,,,,,,,
,,,,,,,,,,,,,,,692,2022-02-03_13h52.50.452,multiplicationStroop,2021.2.3,Win32,60.52902367,,,,,left,1,0.3636,0,1,1,23,1,9,4,9 | 4,5,1.9756,1.4111,congruent,left,,,,,,stimulusFile/physical.xlsx,,,,,,,,,,,,,,,,,,,,,,,,,,,,,,,
,,,,,,,,,,,,,,,692,2022-02-03_13h52.50.452,multiplicationStroop,2021.2.3,Win32,60.52902367,,,,,right,1,0.353,0,2,2,8,1,1,3,1 | 3,2,1.4111,1.9756,congruent,right,,,,,,stimulusFile/physical.xlsx,,,,,,,,,,,,,,,,,,,,,,,,,,,,,,,
,,,,,,,,,,,,,,,692,2022-02-03_13h52.50.452,multiplicationStroop,2021.2.3,Win32,60.52902367,,,,,left,1,0.3608,0,3,3,34,1,6,8,6 | 8,2,1.9756,1.4111,incongruent,left,,,,,,stimulusFile/physical.xlsx,,,,,,,,,,,,,,,,,,,,,,,,,,,,,,,
,,,,,,,,,,,,,,,692,2022-02-03_13h52.50.452,multiplicationStroop,2021.2.3,Win32,60.52902367,,,,,right,1,0.425,0,4,4,46,1,8,3,8 | 3,5,1.4111,1.9756,incongruent,right,,,,,,stimulusFile/physical.xlsx,,,,,,,,,,,,,,,,,,,,,,,,,,,,,,,
,,,,,,,,,,,,,,,692,2022-02-03_13h52.50.452,multiplicationStroop,2021.2.3,Win32,60.52902367,,,,,left,1,0.3432,0,5,5,15,1,9,7,9 | 7,2,1.9756,1.4111,congruent,left,,,,,,stimulusFile/physical.xlsx,,,,,,,,,,,,,,,,,,,,,,,,,,,,,,,
,,,,,,,,,,,,,,,692,2022-02-03_13h52.50.452,multiplicationStroop,2021.2.3,Win32,60.52902367,,,,,right,1,0.4361,0,6,6,17,1,2,7,2 | 7,5,1.4111,1.9756,congruent,right,,,,,,stimulusFile/physical.xlsx,,,,,,,,,,,,,,,,,,,,,,,,,,,,,,,
,,,,,,,,,,,,,,,692,2022-02-03_13h52.50.452,multiplicationStroop,2021.2.3,Win32,60.52902367,,,,,right,1,0.5045,0,7,7,62,1,8,8,8 | 8,0,1.4111,1.9756,neutral,right,,,,,,stimulusFile/physical.xlsx,,,,,,,,,,,,,,,,,,,,,,,,,,,,,,,
,,,,,,,,,,,,,,,692,2022-02-03_13h52.50.452,multiplicationStroop,2021.2.3,Win32,60.52902367,,,,,left,1,0.4032,0,8,8,21,1,7,2,7 | 2,5,1.9756,1.4111,congruent,left,,,,,,stimulusFile/physical.xlsx,,,,,,,,,,,,,,,,,,,,,,,,,,,,,,,
,,,,,,,,,,,,,,,692,2022-02-03_13h52.50.452,multiplicationStroop,2021.2.3,Win32,60.52902367,,,,,right,1,0.3896,0,9,9,18,1,3,8,3 | 8,5,1.4111,1.9756,congruent,right,,,,,,stimulusFile/physical.xlsx,,,,,,,,,,,,,,,,,,,,,,,,,,,,,,,
,,,,,,,,,,,,,,,692,2022-02-03_13h52.50.452,multiplicationStroop,2021.2.3,Win32,60.52902367,,,,,left,0,0.4732,0,10,10,64,1,1,1,1 | 1,0,1.9756,1.4111,neutral,right,,,,,,stimulusFile/physical.xlsx,,,,,,,,,,,,,,,,,,,,,,,,,,,,,,,
,,,,,,,,,,,,,,,692,2022-02-03_13h52.50.452,multiplicationStroop,2021.2.3,Win32,60.52902367,,,,,left,1,0.5315,0,11,11,55,1,9,9,9 | 9,0,1.9756,1.4111,neutral,left,,,,,,stimulusFile/physical.xlsx,,,,,,,,,,,,,,,,,,,,,,,,,,,,,,,
,,,,,,,,,,,,,,,692,2022-02-03_13h52.50.452,multiplicationStroop,2021.2.3,Win32,60.52902367,,,,,left,1,1.3995,0,12,12,27,1,8,9,8 | 9,1,1.9756,1.4111,incongruent,left,,,,,,stimulusFile/physical.xlsx,,,,,,,,,,,,,,,,,,,,,,,,,,,,,,,
,,,,,,,,,,,,,,,692,2022-02-03_13h52.50.452,multiplicationStroop,2021.2.3,Win32,60.52902367,,,,,left,1,0.4953,0,13,13,25,1,3,4,3 | 4,1,1.9756,1.4111,incongruent,left,,,,,,stimulusFile/physical.xlsx,,,,,,,,,,,,,,,,,,,,,,,,,,,,,,,
,,,,,,,,,,,,,,,692,2022-02-03_13h52.50.452,multiplicationStroop,2021.2.3,Win32,60.52902367,,,,,left,1,0.4124,0,14,14,4,1,2,1,2 | 1,1,1.9756,1.4111,congruent,left,,,,,,stimulusFile/physical.xlsx,,,,,,,,,,,,,,,,,,,,,,,,,,,,,,,
,,,,,,,,,,,,,,,692,2022-02-03_13h52.50.452,multiplicationStroop,2021.2.3,Win32,60.52902367,,,,,right,1,0.4724,0,15,15,16,1,1,6,1 | 6,5,1.4111,1.9756,congruent,right,,,,,,stimulusFile/physical.xlsx,,,,,,,,,,,,,,,,,,,,,,,,,,,,,,,
,,,,,,,,,,,,,,,692,2022-02-03_13h52.50.452,multiplicationStroop,2021.2.3,Win32,60.52902367,,,,,right,0,0.4071,0,16,16,69,1,7,7,7 | 7,0,1.4111,1.9756,neutral,left,,,,,,stimulusFile/physical.xlsx,,,,,,,,,,,,,,,,,,,,,,,,,,,,,,,
,,,,,,,,,,,,,,,692,2022-02-03_13h52.50.452,multiplicationStroop,2021.2.3,Win32,60.52902367,,,,,right,1,0.4717,0,17,17,9,1,2,4,2 | 4,2,1.4111,1.9756,congruent,right,,,,,,stimulusFile/physical.xlsx,,,,,,,,,,,,,,,,,,,,,,,,,,,,,,,
,,,,,,,,,,,,,,,692,2022-02-03_13h52.50.452,multiplicationStroop,2021.2.3,Win32,60.52902367,,,,,left,1,0.5973,0,18,18,51,1,8,8,8 | 8,0,1.9756,1.4111,neutral,left,,,,,,stimulusFile/physical.xlsx,,,,,,,,,,,,,,,,,,,,,,,,,,,,,,,
,,,,,,,,,,,,,,,692,2022-02-03_13h52.50.452,multiplicationStroop,2021.2.3,Win32,60.52902367,,,,,right,1,0.5196,0,19,19,38,1,8,6,8 | 6,2,1.4111,1.9756,incongruent,right,,,,,,stimulusFile/physical.xlsx,,,,,,,,,,,,,,,,,,,,,,,,,,,,,,,
,,,,,,,,,,,,,,,692,2022-02-03_13h52.50.452,multiplicationStroop,2021.2.3,Win32,60.52902367,,,,,right,1,0.5315,0,20,20,61,1,4,4,4 | 4,0,1.4111,1.9756,neutral,right,,,,,,stimulusFile/physical.xlsx,,,,,,,,,,,,,,,,,,,,,,,,,,,,,,,
,,,,,,,,,,,,,,,692,2022-02-03_13h52.50.452,multiplicationStroop,2021.2.3,Win32,60.52902367,,,,,right,1,0.498,0,21,21,65,1,2,2,2 | 2,0,1.4111,1.9756,neutral,right,,,,,,stimulusFile/physical.xlsx,,,,,,,,,,,,,,,,,,,,,,,,,,,,,,,
,,,,,,,,,,,,,,,692,2022-02-03_13h52.50.452,multiplicationStroop,2021.2.3,Win32,60.52902367,,,,,left,1,0.4415,0,22,22,20,1,6,1,6 | 1,5,1.9756,1.4111,congruent,left,,,,,,stimulusFile/physical.xlsx,,,,,,,,,,,,,,,,,,,,,,,,,,,,,,,
,,,,,,,,,,,,,,,692,2022-02-03_13h52.50.452,multiplicationStroop,2021.2.3,Win32,60.52902367,,,,,right,1,0.6742,0,23,23,45,1,7,2,7 | 2,5,1.4111,1.9756,incongruent,right,,,,,,stimulusFile/physical.xlsx,,,,,,,,,,,,,,,,,,,,,,,,,,,,,,,
,,,,,,,,,,,,,,,692,2022-02-03_13h52.50.452,multiplicationStroop,2021.2.3,Win32,60.52902367,,,,,left,1,0.5032,0,24,24,53,1,4,4,4 | 4,0,1.9756,1.4111,neutral,left,,,,,,stimulusFile/physical.xlsx,,,,,,,,,,,,,,,,,,,,,,,,,,,,,,,
,,,,,,,,,,,,,,,692,2022-02-03_13h52.50.452,multiplicationStroop,2021.2.3,Win32,60.52902367,,,,,right,0,0.4225,0,25,25,40,1,1,6,1 | 6,5,1.9756,1.4111,incongruent,left,,,,,,stimulusFile/physical.xlsx,,,,,,,,,,,,,,,,,,,,,,,,,,,,,,,
,,,,,,,,,,,,,,,692,2022-02-03_13h52.50.452,multiplicationStroop,2021.2.3,Win32,60.52902367,,,,,right,1,0.6827,0,26,26,37,1,4,2,4 | 2,2,1.4111,1.9756,incongruent,right,,,,,,stimulusFile/physical.xlsx,,,,,,,,,,,,,,,,,,,,,,,,,,,,,,,
,,,,,,,,,,,,,,,692,2022-02-03_13h52.50.452,multiplicationStroop,2021.2.3,Win32,60.52902367,,,,,left,1,0.6782,0,27,27,33,1,2,4,2 | 4,2,1.9756,1.4111,incongruent,left,,,,,,stimulusFile/physical.xlsx,,,,,,,,,,,,,,,,,,,,,,,,,,,,,,,
,,,,,,,,,,,,,,,692,2022-02-03_13h52.50.452,multiplicationStroop,2021.2.3,Win32,60.52902367,,,,,left,1,1.0214,0,28,28,35,1,7,9,7 | 9,2,1.9756,1.4111,incongruent,left,,,,,,stimulusFile/physical.xlsx,,,,,,,,,,,,,,,,,,,,,,,,,,,,,,,
,,,,,,,,,,,,,,,692,2022-02-03_13h52.50.452,multiplicationStroop,2021.2.3,Win32,60.52902367,,,,,right,1,0.4485,0,29,29,58,1,6,6,6 | 6,0,1.4111,1.9756,neutral,right,,,,,,stimulusFile/physical.xlsx,,,,,,,,,,,,,,,,,,,,,,,,,,,,,,,
,,,,,,,,,,,,,,,692,2022-02-03_13h52.50.452,multiplicationStroop,2021.2.3,Win32,60.52902367,,,,,left,1,0.5239,0,30,30,48,1,1,1,1 | 1,0,1.9756,1.4111,neutral,left,,,,,,stimulusFile/physical.xlsx,,,,,,,,,,,,,,,,,,,,,,,,,,,,,,,
,,,,,,,,,,,,,,,692,2022-02-03_13h52.50.452,multiplicationStroop,2021.2.3,Win32,60.52902367,,,,,left,1,0.4967,0,31,31,13,1,4,2,4 | 2,2,1.9756,1.4111,congruent,left,,,,,,stimulusFile/physical.xlsx,,,,,,,,,,,,,,,,,,,,,,,,,,,,,,,
,,,,,,,,,,,,,,,692,2022-02-03_13h52.50.452,multiplicationStroop,2021.2.3,Win32,60.52902367,,,,,left,0,0.5296,0,32,32,66,1,3,3,3 | 3,0,1.9756,1.4111,neutral,right,,,,,,stimulusFile/physical.xlsx,,,,,,,,,,,,,,,,,,,,,,,,,,,,,,,
,,,,,,,,,,,,,,,692,2022-02-03_13h52.50.452,multiplicationStroop,2021.2.3,Win32,60.52902367,,,,,right,1,0.5653,0,33,33,19,1,4,9,4 | 9,5,1.4111,1.9756,congruent,right,,,,,,stimulusFile/physical.xlsx,,,,,,,,,,,,,,,,,,,,,,,,,,,,,,,
,,,,,,,,,,,,,,,692,2022-02-03_13h52.50.452,multiplicationStroop,2021.2.3,Win32,60.52902367,,,,,right,1,0.6318,0,34,34,36,1,3,1,3 | 1,2,1.4111,1.9756,incongruent,right,,,,,,stimulusFile/physical.xlsx,,,,,,,,,,,,,,,,,,,,,,,,,,,,,,,
,,,,,,,,,,,,,,,692,2022-02-03_13h52.50.452,multiplicationStroop,2021.2.3,Win32,60.52902367,,,,,left,1,0.4987,0,35,35,43,1,4,9,4 | 9,5,1.9756,1.4111,incongruent,left,,,,,,stimulusFile/physical.xlsx,,,,,,,,,,,,,,,,,,,,,,,,,,,,,,,
,,,,,,,,,,,,,,,692,2022-02-03_13h52.50.452,multiplicationStroop,2021.2.3,Win32,60.52902367,,,,,left,1,0.5094,0,36,36,50,1,6,6,6 | 6,0,1.9756,1.4111,neutral,left,,,,,,stimulusFile/physical.xlsx,,,,,,,,,,,,,,,,,,,,,,,,,,,,,,,
,,,,,,,,,,,,,,,692,2022-02-03_13h52.50.452,multiplicationStroop,2021.2.3,Win32,60.52902367,,,,,right,1,0.4703,0,37,37,67,1,4,4,4 | 4,0,1.4111,1.9756,neutral,right,,,,,,stimulusFile/physical.xlsx,,,,,,,,,,,,,,,,,,,,,,,,,,,,,,,
,,,,,,,,,,,,,,,692,2022-02-03_13h52.50.452,multiplicationStroop,2021.2.3,Win32,60.52902367,,,,,right,1,0.5314,0,38,38,30,1,7,6,7 | 6,1,1.4111,1.9756,incongruent,right,,,,,,stimulusFile/physical.xlsx,,,,,,,,,,,,,,,,,,,,,,,,,,,,,,,
,,,,,,,,,,,,,,,692,2022-02-03_13h52.50.452,multiplicationStroop,2021.2.3,Win32,60.52902367,,,,,left,1,0.5601,0,39,39,26,1,6,7,6 | 7,1,1.9756,1.4111,incongruent,left,,,,,,stimulusFile/physical.xlsx,,,,,,,,,,,,,,,,,,,,,,,,,,,,,,,
,,,,,,,,,,,,,,,692,2022-02-03_13h52.50.452,multiplicationStroop,2021.2.3,Win32,60.52902367,,,,,right,1,0.5482,0,40,40,44,1,6,1,6 | 1,5,1.4111,1.9756,incongruent,right,,,,,,stimulusFile/physical.xlsx,,,,,,,,,,,,,,,,,,,,,,,,,,,,,,,
,,,,,,,,,,,,,,,692,2022-02-03_13h52.50.452,multiplicationStroop,2021.2.3,Win32,60.52902367,,,,,right,1,0.6203,0,41,41,60,1,3,3,3 | 3,0,1.4111,1.9756,neutral,right,,,,,,stimulusFile/physical.xlsx,,,,,,,,,,,,,,,,,,,,,,,,,,,,,,,
,,,,,,,,,,,,,,,692,2022-02-03_13h52.50.452,multiplicationStroop,2021.2.3,Win32,60.52902367,,,,,left,1,0.5752,0,42,42,14,1,8,6,8 | 6,2,1.9756,1.4111,congruent,left,,,,,,stimulusFile/physical.xlsx,,,,,,,,,,,,,,,,,,,,,,,,,,,,,,,
,,,,,,,,,,,,,,,692,2022-02-03_13h52.50.452,multiplicationStroop,2021.2.3,Win32,60.52902367,,,,,right,1,0.4404,0,43,43,0,1,1,2,1 | 2,1,1.4111,1.9756,congruent,right,,,,,,stimulusFile/physical.xlsx,,,,,,,,,,,,,,,,,,,,,,,,,,,,,,,
,,,,,,,,,,,,,,,692,2022-02-03_13h52.50.452,multiplicationStroop,2021.2.3,Win32,60.52902367,,,,,left,1,0.5133,0,44,44,52,1,2,2,2 | 2,0,1.9756,1.4111,neutral,left,,,,,,stimulusFile/physical.xlsx,,,,,,,,,,,,,,,,,,,,,,,,,,,,,,,
,,,,,,,,,,,,,,,692,2022-02-03_13h52.50.452,multiplicationStroop,2021.2.3,Win32,60.52902367,,,,,right,1,0.4988,0,45,45,3,1,8,9,8 | 9,1,1.4111,1.9756,congruent,right,,,,,,stimulusFile/physical.xlsx,,,,,,,,,,,,,,,,,,,,,,,,,,,,,,,
,,,,,,,,,,,,,,,692,2022-02-03_13h52.50.452,multiplicationStroop,2021.2.3,Win32,60.52902367,,,,,right,1,0.5661,0,46,46,47,1,9,4,9 | 4,5,1.4111,1.9756,incongruent,right,,,,,,stimulusFile/physical.xlsx,,,,,,,,,,,,,,,,,,,,,,,,,,,,,,,
,,,,,,,,,,,,,,,692,2022-02-03_13h52.50.452,multiplicationStroop,2021.2.3,Win32,60.52902367,,,,,right,1,0.5477,0,47,47,39,1,9,7,9 | 7,2,1.4111,1.9756,incongruent,right,,,,,,stimulusFile/physical.xlsx,,,,,,,,,,,,,,,,,,,,,,,,,,,,,,,
,,,,,,,,,,,,,,,692,2022-02-03_13h52.50.452,multiplicationStroop,2021.2.3,Win32,60.52902367,,,,,left,1,0.5829,0,48,48,24,1,1,2,1 | 2,1,1.9756,1.4111,incongruent,left,,,,,,stimulusFile/physical.xlsx,,,,,,,,,,,,,,,,,,,,,,,,,,,,,,,
,,,,,,,,,,,,,,,692,2022-02-03_13h52.50.452,multiplicationStroop,2021.2.3,Win32,60.52902367,,,,,right,1,0.5416,0,49,49,2,1,6,7,6 | 7,1,1.4111,1.9756,congruent,right,,,,,,stimulusFile/physical.xlsx,,,,,,,,,,,,,,,,,,,,,,,,,,,,,,,
,,,,,,,,,,,,,,,692,2022-02-03_13h52.50.452,multiplicationStroop,2021.2.3,Win32,60.52902367,,,,,right,1,0.534,0,50,50,29,1,4,3,4 | 3,1,1.4111,1.9756,incongruent,right,,,,,,stimulusFile/physical.xlsx,,,,,,,,,,,,,,,,,,,,,,,,,,,,,,,
,,,,,,,,,,,,,,,692,2022-02-03_13h52.50.452,multiplicationStroop,2021.2.3,Win32,60.52902367,,,,,right,1,0.5983,0,51,51,57,1,2,2,2 | 2,0,1.4111,1.9756,neutral,right,,,,,,stimulusFile/physical.xlsx,,,,,,,,,,,,,,,,,,,,,,,,,,,,,,,
,,,,,,,,,,,,,,,692,2022-02-03_13h52.50.452,multiplicationStroop,2021.2.3,Win32,60.52902367,,,,,left,1,0.4813,0,52,52,70,1,8,8,8 | 8,0,1.9756,1.4111,neutral,left,,,,,,stimulusFile/physical.xlsx,,,,,,,,,,,,,,,,,,,,,,,,,,,,,,,
,,,,,,,,,,,,,,,692,2022-02-03_13h52.50.452,multiplicationStroop,2021.2.3,Win32,60.52902367,,,,,left,1,0.5092,0,53,53,42,1,3,8,3 | 8,5,1.9756,1.4111,incongruent,left,,,,,,stimulusFile/physical.xlsx,,,,,,,,,,,,,,,,,,,,,,,,,,,,,,,
,,,,,,,,,,,,,,,692,2022-02-03_13h52.50.452,multiplicationStroop,2021.2.3,Win32,60.52902367,,,,,right,1,0.4935,0,54,54,28,1,2,1,2 | 1,1,1.4111,1.9756,incongruent,right,,,,,,stimulusFile/physical.xlsx,,,,,,,,,,,,,,,,,,,,,,,,,,,,,,,
,,,,,,,,,,,,,,,692,2022-02-03_13h52.50.452,multiplicationStroop,2021.2.3,Win32,60.52902367,,,,,right,1,0.539,0,55,55,1,1,3,4,3 | 4,1,1.4111,1.9756,congruent,right,,,,,,stimulusFile/physical.xlsx,,,,,,,,,,,,,,,,,,,,,,,,,,,,,,,
,,,,,,,,,,,,,,,692,2022-02-03_13h52.50.452,multiplicationStroop,2021.2.3,Win32,60.52902367,,,,,left,1,0.487,0,56,56,49,1,3,3,3 | 3,0,1.9756,1.4111,neutral,left,,,,,,stimulusFile/physical.xlsx,,,,,,,,,,,,,,,,,,,,,,,,,,,,,,,
,,,,,,,,,,,,,,,692,2022-02-03_13h52.50.452,multiplicationStroop,2021.2.3,Win32,60.52902367,,,,,right,1,0.451,0,57,57,59,1,7,7,7 | 7,0,1.4111,1.9756,neutral,right,,,,,,stimulusFile/physical.xlsx,,,,,,,,,,,,,,,,,,,,,,,,,,,,,,,
,,,,,,,,,,,,,,,692,2022-02-03_13h52.50.452,multiplicationStroop,2021.2.3,Win32,60.52902367,,,,,right,1,0.5544,0,58,58,11,1,7,9,7 | 9,2,1.4111,1.9756,congruent,right,,,,,,stimulusFile/physical.xlsx,,,,,,,,,,,,,,,,,,,,,,,,,,,,,,,
,,,,,,,,,,,,,,,692,2022-02-03_13h52.50.452,multiplicationStroop,2021.2.3,Win32,60.52902367,,,,,right,1,0.4871,0,59,59,10,1,6,8,6 | 8,2,1.4111,1.9756,congruent,right,,,,,,stimulusFile/physical.xlsx,,,,,,,,,,,,,,,,,,,,,,,,,,,,,,,
,,,,,,,,,,,,,,,692,2022-02-03_13h52.50.452,multiplicationStroop,2021.2.3,Win32,60.52902367,,,,,left,1,0.5831,0,60,60,68,1,6,6,6 | 6,0,1.9756,1.4111,neutral,left,,,,,,stimulusFile/physical.xlsx,,,,,,,,,,,,,,,,,,,,,,,,,,,,,,,
,,,,,,,,,,,,,,,692,2022-02-03_13h52.50.452,multiplicationStroop,2021.2.3,Win32,60.52902367,,,,,left,1,0.4633,0,61,61,22,1,8,3,8 | 3,5,1.9756,1.4111,congruent,left,,,,,,stimulusFile/physical.xlsx,,,,,,,,,,,,,,,,,,,,,,,,,,,,,,,
,,,,,,,,,,,,,,,692,2022-02-03_13h52.50.452,multiplicationStroop,2021.2.3,Win32,60.52902367,,,,,right,1,0.5469,0,62,62,31,1,9,8,9 | 8,1,1.4111,1.9756,incongruent,right,,,,,,stimulusFile/physical.xlsx,,,,,,,,,,,,,,,,,,,,,,,,,,,,,,,
,,,,,,,,,,,,,,,692,2022-02-03_13h52.50.452,multiplicationStroop,2021.2.3,Win32,60.52902367,,,,,right,0,0.5098,0,63,63,71,1,9,9,9 | 9,0,1.4111,1.9756,neutral,left,,,,,,stimulusFile/physical.xlsx,,,,,,,,,,,,,,,,,,,,,,,,,,,,,,,
,,,,,,,,,,,,,,,692,2022-02-03_13h52.50.452,multiplicationStroop,2021.2.3,Win32,60.52902367,,,,,left,1,0.5145,0,64,64,5,1,4,3,4 | 3,1,1.9756,1.4111,congruent,left,,,,,,stimulusFile/physical.xlsx,,,,,,,,,,,,,,,,,,,,,,,,,,,,,,,
,,,,,,,,,,,,,,,692,2022-02-03_13h52.50.452,multiplicationStroop,2021.2.3,Win32,60.52902367,,,,,left,1,0.6168,0,65,65,41,1,2,7,2 | 7,5,1.9756,1.4111,incongruent,left,,,,,,stimulusFile/physical.xlsx,,,,,,,,,,,,,,,,,,,,,,,,,,,,,,,
,,,,,,,,,,,,,,,692,2022-02-03_13h52.50.452,multiplicationStroop,2021.2.3,Win32,60.52902367,,,,,left,1,0.5472,0,66,66,32,1,1,3,1 | 3,2,1.9756,1.4111,incongruent,left,,,,,,stimulusFile/physical.xlsx,,,,,,,,,,,,,,,,,,,,,,,,,,,,,,,
,,,,,,,,,,,,,,,692,2022-02-03_13h52.50.452,multiplicationStroop,2021.2.3,Win32,60.52902367,,,,,left,1,0.4913,0,67,67,7,1,9,8,9 | 8,1,1.9756,1.4111,congruent,left,,,,,,stimulusFile/physical.xlsx,,,,,,,,,,,,,,,,,,,,,,,,,,,,,,,
,,,,,,,,,,,,,,,692,2022-02-03_13h52.50.452,multiplicationStroop,2021.2.3,Win32,60.52902367,,,,,left,1,1.0651,0,68,68,6,1,7,6,7 | 6,1,1.9756,1.4111,congruent,left,,,,,,stimulusFile/physical.xlsx,,,,,,,,,,,,,,,,,,,,,,,,,,,,,,,
,,,,,,,,,,,,,,,692,2022-02-03_13h52.50.452,multiplicationStroop,2021.2.3,Win32,60.52902367,,,,,right,1,0.4634,0,69,69,63,1,9,9,9 | 9,0,1.4111,1.9756,neutral,right,,,,,,stimulusFile/physical.xlsx,,,,,,,,,,,,,,,,,,,,,,,,,,,,,,,
,,,,,,,,,,,,,,,692,2022-02-03_13h52.50.452,multiplicationStroop,2021.2.3,Win32,60.52902367,,,,,left,1,0.4382,0,70,70,12,1,3,1,3 | 1,2,1.9756,1.4111,congruent,left,,,,,,stimulusFile/physical.xlsx,,,,,,,,,,,,,,,,,,,,,,,,,,,,,,,
,,,,,,,,,,,,,,,692,2022-02-03_13h52.50.452,multiplicationStroop,2021.2.3,Win32,60.52902367,,,,,right,1,0.4954,0,71,71,56,1,1,1,1 | 1,0,1.4111,1.9756,neutral,right,,,,,,stimulusFile/physical.xlsx,,,,,,,,,,,,,,,,,,,,,,,,,,,,,,,
,,,,,,,,,,,,,,,692,2022-02-03_13h52.50.452,multiplicationStroop,2021.2.3,Win32,60.52902367,,,,,,,,,,,,,,,,,,,,,0,0,0,1,1,stimulusFile/physical.xlsx,PHYSICALLY larger (larger font size).,images/physicallyLarger.png,,,,,,,,,,,,,,,,,,,,,,,,,,,,,
,,,,,,,,,,,,,,,692,2022-02-03_13h52.50.452,multiplicationStroop,2021.2.3,Win32,60.52902367,space,2.5892,space,2.4193,left,1,1.3706,0,0,0,55,1,9,8,9 | 8,1,1.6933,1.6933,neutral,left,,,,,,stimulusFile/magnitude.xlsx,,,,,,,,,,,,,,,,,,,,,,,,,,,,,,,
,,,,,,,,,,,,,,,692,2022-02-03_13h52.50.452,multiplicationStroop,2021.2.3,Win32,60.52902367,,,,,right,1,0.561,0,1,1,1,1,3,4,3 | 4,1,1.4111,1.9756,congruent,right,,,,,,stimulusFile/magnitude.xlsx,,,,,,,,,,,,,,,,,,,,,,,,,,,,,,,
,,,,,,,,,,,,,,,692,2022-02-03_13h52.50.452,multiplicationStroop,2021.2.3,Win32,60.52902367,,,,,left,1,0.7891,0,2,2,45,1,7,2,7 | 2,5,1.4111,1.9756,incongruent,left,,,,,,stimulusFile/magnitude.xlsx,,,,,,,,,,,,,,,,,,,,,,,,,,,,,,,
,,,,,,,,,,,,,,,692,2022-02-03_13h52.50.452,multiplicationStroop,2021.2.3,Win32,60.52902367,,,,,right,1,0.6565,0,3,3,48,1,1,2,1 | 2,1,1.6933,1.6933,neutral,right,,,,,,stimulusFile/magnitude.xlsx,,,,,,,,,,,,,,,,,,,,,,,,,,,,,,,
,,,,,,,,,,,,,,,692,2022-02-03_13h52.50.452,multiplicationStroop,2021.2.3,Win32,60.52902367,,,,,right,1,0.6591,0,4,4,33,1,2,4,2 | 4,2,1.9756,1.4111,incongruent,right,,,,,,stimulusFile/magnitude.xlsx,,,,,,,,,,,,,,,,,,,,,,,,,,,,,,,
,,,,,,,,,,,,,,,692,2022-02-03_13h52.50.452,multiplicationStroop,2021.2.3,Win32,60.52902367,,,,,right,1,0.6362,0,5,5,27,1,8,9,8 | 9,1,1.9756,1.4111,incongruent,right,,,,,,stimulusFile/magnitude.xlsx,,,,,,,,,,,,,,,,,,,,,,,,,,,,,,,
,,,,,,,,,,,,,,,692,2022-02-03_13h52.50.452,multiplicationStroop,2021.2.3,Win32,60.52902367,,,,,left,1,0.5037,0,6,6,46,1,8,3,8 | 3,5,1.4111,1.9756,incongruent,left,,,,,,stimulusFile/magnitude.xlsx,,,,,,,,,,,,,,,,,,,,,,,,,,,,,,,
,,,,,,,,,,,,,,,692,2022-02-03_13h52.50.452,multiplicationStroop,2021.2.3,Win32,60.52902367,,,,,right,1,0.6183,0,7,7,64,1,1,6,1 | 6,5,1.6933,1.6933,neutral,right,,,,,,stimulusFile/magnitude.xlsx,,,,,,,,,,,,,,,,,,,,,,,,,,,,,,,
,,,,,,,,,,,,,,,692,2022-02-03_13h52.50.452,multiplicationStroop,2021.2.3,Win32,60.52902367,,,,,right,1,0.593,0,8,8,9,1,2,4,2 | 4,2,1.4111,1.9756,congruent,right,,,,,,stimulusFile/magnitude.xlsx,,,,,,,,,,,,,,,,,,,,,,,,,,,,,,,
,,,,,,,,,,,,,,,692,2022-02-03_13h52.50.452,multiplicationStroop,2021.2.3,Win32,60.52902367,,,,,right,1,0.5349,0,9,9,66,1,3,8,3 | 8,5,1.6933,1.6933,neutral,right,,,,,,stimulusFile/magnitude.xlsx,,,,,,,,,,,,,,,,,,,,,,,,,,,,,,,
,,,,,,,,,,,,,,,692,2022-02-03_13h52.50.452,multiplicationStroop,2021.2.3,Win32,60.52902367,,,,,left,1,0.6525,0,10,10,4,1,2,1,2 | 1,1,1.9756,1.4111,congruent,left,,,,,,stimulusFile/magnitude.xlsx,,,,,,,,,,,,,,,,,,,,,,,,,,,,,,,
,,,,,,,,,,,,,,,692,2022-02-03_13h52.50.452,multiplicationStroop,2021.2.3,Win32,60.52902367,,,,,right,1,0.7056,0,11,11,25,1,3,4,3 | 4,1,1.9756,1.4111,incongruent,right,,,,,,stimulusFile/magnitude.xlsx,,,,,,,,,,,,,,,,,,,,,,,,,,,,,,,
,,,,,,,,,,,,,,,692,2022-02-03_13h52.50.452,multiplicationStroop,2021.2.3,Win32,60.52902367,,,,,right,1,0.5019,0,12,12,11,1,7,9,7 | 9,2,1.4111,1.9756,congruent,right,,,,,,stimulusFile/magnitude.xlsx,,,,,,,,,,,,,,,,,,,,,,,,,,,,,,,
,,,,,,,,,,,,,,,692,2022-02-03_13h52.50.452,multiplicationStroop,2021.2.3,Win32,60.52902367,,,,,right,1,0.5064,0,13,13,10,1,6,8,6 | 8,2,1.4111,1.9756,congruent,right,,,,,,stimulusFile/magnitude.xlsx,,,,,,,,,,,,,,,,,,,,,,,,,,,,,,,
,,,,,,,,,,,,,,,692,2022-02-03_13h52.50.452,multiplicationStroop,2021.2.3,Win32,60.52902367,,,,,right,1,0.5019,0,14,14,51,1,8,9,8 | 9,1,1.6933,1.6933,neutral,right,,,,,,stimulusFile/magnitude.xlsx,,,,,,,,,,,,,,,,,,,,,,,,,,,,,,,
,,,,,,,,,,,,,,,692,2022-02-03_13h52.50.452,multiplicationStroop,2021.2.3,Win32,60.52902367,,,,,right,1,0.5022,0,15,15,59,1,7,9,7 | 9,2,1.6933,1.6933,neutral,right,,,,,,stimulusFile/magnitude.xlsx,,,,,,,,,,,,,,,,,,,,,,,,,,,,,,,
,,,,,,,,,,,,,,,692,2022-02-03_13h52.50.452,multiplicationStroop,2021.2.3,Win32,60.52902367,,,,,left,1,0.5314,0,16,16,20,1,6,1,6 | 1,5,1.9756,1.4111,congruent,left,,,,,,stimulusFile/magnitude.xlsx,,,,,,,,,,,,,,,,,,,,,,,,,,,,,,,
,,,,,,,,,,,,,,,692,2022-02-03_13h52.50.452,multiplicationStroop,2021.2.3,Win32,60.52902367,,,,,left,1,0.6359,0,17,17,54,1,7,6,7 | 6,1,1.6933,1.6933,neutral,left,,,,,,stimulusFile/magnitude.xlsx,,,,,,,,,,,,,,,,,,,,,,,,,,,,,,,
,,,,,,,,,,,,,,,692,2022-02-03_13h52.50.452,multiplicationStroop,2021.2.3,Win32,60.52902367,,,,,left,1,0.6055,0,18,18,60,1,3,1,3 | 1,2,1.6933,1.6933,neutral,left,,,,,,stimulusFile/magnitude.xlsx,,,,,,,,,,,,,,,,,,,,,,,,,,,,,,,
,,,,,,,,,,,,,,,692,2022-02-03_13h52.50.452,multiplicationStroop,2021.2.3,Win32,60.52902367,,,,,right,1,0.7032,0,19,19,34,1,6,8,6 | 8,2,1.9756,1.4111,incongruent,right,,,,,,stimulusFile/magnitude.xlsx,,,,,,,,,,,,,,,,,,,,,,,,,,,,,,,
,,,,,,,,,,,,,,,692,2022-02-03_13h52.50.452,multiplicationStroop,2021.2.3,Win32,60.52902367,,,,,left,1,0.578,0,20,20,23,1,9,4,9 | 4,5,1.9756,1.4111,congruent,left,,,,,,stimulusFile/magnitude.xlsx,,,,,,,,,,,,,,,,,,,,,,,,,,,,,,,
,,,,,,,,,,,,,,,692,2022-02-03_13h52.50.452,multiplicationStroop,2021.2.3,Win32,60.52902367,,,,,right,0,0.8245,0,21,21,38,1,8,6,8 | 6,2,1.4111,1.9756,incongruent,left,,,,,,stimulusFile/magnitude.xlsx,,,,,,,,,,,,,,,,,,,,,,,,,,,,,,,
,,,,,,,,,,,,,,,692,2022-02-03_13h52.50.452,multiplicationStroop,2021.2.3,Win32,60.52902367,,,,,left,1,0.9527,0,22,22,31,1,9,8,9 | 8,1,1.4111,1.9756,incongruent,left,,,,,,stimulusFile/magnitude.xlsx,,,,,,,,,,,,,,,,,,,,,,,,,,,,,,,
,,,,,,,,,,,,,,,692,2022-02-03_13h52.50.452,multiplicationStroop,2021.2.3,Win32,60.52902367,,,,,right,1,0.5852,0,23,23,43,1,4,9,4 | 9,5,1.9756,1.4111,incongruent,right,,,,,,stimulusFile/magnitude.xlsx,,,,,,,,,,,,,,,,,,,,,,,,,,,,,,,
,,,,,,,,,,,,,,,692,2022-02-03_13h52.50.452,multiplicationStroop,2021.2.3,Win32,60.52902367,,,,,left,1,0.4711,0,24,24,44,1,6,1,6 | 1,5,1.4111,1.9756,incongruent,left,,,,,,stimulusFile/magnitude.xlsx,,,,,,,,,,,,,,,,,,,,,,,,,,,,,,,
,,,,,,,,,,,,,,,692,2022-02-03_13h52.50.452,multiplicationStroop,2021.2.3,Win32,60.52902367,,,,,left,1,0.6289,0,25,25,30,1,7,6,7 | 6,1,1.4111,1.9756,incongruent,left,,,,,,stimulusFile/magnitude.xlsx,,,,,,,,,,,,,,,,,,,,,,,,,,,,,,,
,,,,,,,,,,,,,,,692,2022-02-03_13h52.50.452,multiplicationStroop,2021.2.3,Win32,60.52902367,,,,,left,1,0.5921,0,26,26,37,1,4,2,4 | 2,2,1.4111,1.9756,incongruent,left,,,,,,stimulusFile/magnitude.xlsx,,,,,,,,,,,,,,,,,,,,,,,,,,,,,,,
,,,,,,,,,,,,,,,692,2022-02-03_13h52.50.452,multiplicationStroop,2021.2.3,Win32,60.52902367,,,,,left,1,0.5703,0,27,27,22,1,8,3,8 | 3,5,1.9756,1.4111,congruent,left,,,,,,stimulusFile/magnitude.xlsx,,,,,,,,,,,,,,,,,,,,,,,,,,,,,,,
,,,,,,,,,,,,,,,692,2022-02-03_13h52.50.452,multiplicationStroop,2021.2.3,Win32,60.52902367,,,,,left,1,0.6484,0,28,28,15,1,9,7,9 | 7,2,1.9756,1.4111,congruent,left,,,,,,stimulusFile/magnitude.xlsx,,,,,,,,,,,,,,,,,,,,,,,,,,,,,,,
,,,,,,,,,,,,,,,692,2022-02-03_13h52.50.452,multiplicationStroop,2021.2.3,Win32,60.52902367,,,,,right,1,0.7391,0,29,29,16,1,1,6,1 | 6,5,1.4111,1.9756,congruent,right,,,,,,stimulusFile/magnitude.xlsx,,,,,,,,,,,,,,,,,,,,,,,,,,,,,,,
,,,,,,,,,,,,,,,692,2022-02-03_13h52.50.452,multiplicationStroop,2021.2.3,Win32,60.52902367,,,,,left,1,0.569,0,30,30,71,1,9,4,9 | 4,5,1.6933,1.6933,neutral,left,,,,,,stimulusFile/magnitude.xlsx,,,,,,,,,,,,,,,,,,,,,,,,,,,,,,,
,,,,,,,,,,,,,,,692,2022-02-03_13h52.50.452,multiplicationStroop,2021.2.3,Win32,60.52902367,,,,,left,1,0.6854,0,31,31,36,1,3,1,3 | 1,2,1.4111,1.9756,incongruent,left,,,,,,stimulusFile/magnitude.xlsx,,,,,,,,,,,,,,,,,,,,,,,,,,,,,,,
,,,,,,,,,,,,,,,692,2022-02-03_13h52.50.452,multiplicationStroop,2021.2.3,Win32,60.52902367,,,,,right,1,0.7357,0,32,32,50,1,6,7,6 | 7,1,1.6933,1.6933,neutral,right,,,,,,stimulusFile/magnitude.xlsx,,,,,,,,,,,,,,,,,,,,,,,,,,,,,,,
,,,,,,,,,,,,,,,692,2022-02-03_13h52.50.452,multiplicationStroop,2021.2.3,Win32,60.52902367,,,,,left,1,0.5905,0,33,33,61,1,4,2,4 | 2,2,1.6933,1.6933,neutral,left,,,,,,stimulusFile/magnitude.xlsx,,,,,,,,,,,,,,,,,,,,,,,,,,,,,,,
,,,,,,,,,,,,,,,692,2022-02-03_13h52.50.452,multiplicationStroop,2021.2.3,Win32,60.52902367,,,,,right,1,0.585,0,34,34,57,1,2,4,2 | 4,2,1.6933,1.6933,neutral,right,,,,,,stimulusFile/magnitude.xlsx,,,,,,,,,,,,,,,,,,,,,,,,,,,,,,,
,,,,,,,,,,,,,,,692,2022-02-03_13h52.50.452,multiplicationStroop,2021.2.3,Win32,60.52902367,,,,,left,1,0.6522,0,35,35,28,1,2,1,2 | 1,1,1.4111,1.9756,incongruent,left,,,,,,stimulusFile/magnitude.xlsx,,,,,,,,,,,,,,,,,,,,,,,,,,,,,,,
,,,,,,,,,,,,,,,692,2022-02-03_13h52.50.452,multiplicationStroop,2021.2.3,Win32,60.52902367,,,,,right,1,0.6042,0,36,36,0,1,1,2,1 | 2,1,1.4111,1.9756,congruent,right,,,,,,stimulusFile/magnitude.xlsx,,,,,,,,,,,,,,,,,,,,,,,,,,,,,,,
,,,,,,,,,,,,,,,692,2022-02-03_13h52.50.452,multiplicationStroop,2021.2.3,Win32,60.52902367,,,,,left,1,0.5852,0,37,37,7,1,9,8,9 | 8,1,1.9756,1.4111,congruent,left,,,,,,stimulusFile/magnitude.xlsx,,,,,,,,,,,,,,,,,,,,,,,,,,,,,,,
,,,,,,,,,,,,,,,692,2022-02-03_13h52.50.452,multiplicationStroop,2021.2.3,Win32,60.52902367,,,,,right,1,0.5822,0,38,38,56,1,1,3,1 | 3,2,1.6933,1.6933,neutral,right,,,,,,stimulusFile/magnitude.xlsx,,,,,,,,,,,,,,,,,,,,,,,,,,,,,,,
,,,,,,,,,,,,,,,692,2022-02-03_13h52.50.452,multiplicationStroop,2021.2.3,Win32,60.52902367,,,,,left,1,1.3368,0,39,39,70,1,8,3,8 | 3,5,1.6933,1.6933,neutral,left,,,,,,stimulusFile/magnitude.xlsx,,,,,,,,,,,,,,,,,,,,,,,,,,,,,,,
,,,,,,,,,,,,,,,692,2022-02-03_13h52.50.452,multiplicationStroop,2021.2.3,Win32,60.52902367,,,,,right,1,0.5766,0,40,40,8,1,1,3,1 | 3,2,1.4111,1.9756,congruent,right,,,,,,stimulusFile/magnitude.xlsx,,,,,,,,,,,,,,,,,,,,,,,,,,,,,,,
,,,,,,,,,,,,,,,692,2022-02-03_13h52.50.452,multiplicationStroop,2021.2.3,Win32,60.52902367,,,,,right,1,0.7266,0,41,41,58,1,6,8,6 | 8,2,1.6933,1.6933,neutral,right,,,,,,stimulusFile/magnitude.xlsx,,,,,,,,,,,,,,,,,,,,,,,,,,,,,,,
,,,,,,,,,,,,,,,692,2022-02-03_13h52.50.452,multiplicationStroop,2021.2.3,Win32,60.52902367,,,,,left,1,0.585,0,42,42,14,1,8,6,8 | 6,2,1.9756,1.4111,congruent,left,,,,,,stimulusFile/magnitude.xlsx,,,,,,,,,,,,,,,,,,,,,,,,,,,,,,,
,,,,,,,,,,,,,,,692,2022-02-03_13h52.50.452,multiplicationStroop,2021.2.3,Win32,60.52902367,,,,,right,1,0.6402,0,43,43,2,1,6,7,6 | 7,1,1.4111,1.9756,congruent,right,,,,,,stimulusFile/magnitude.xlsx,,,,,,,,,,,,,,,,,,,,,,,,,,,,,,,
,,,,,,,,,,,,,,,692,2022-02-03_13h52.50.452,multiplicationStroop,2021.2.3,Win32,60.52902367,,,,,right,1,0.6967,0,44,44,26,1,6,7,6 | 7,1,1.9756,1.4111,incongruent,right,,,,,,stimulusFile/magnitude.xlsx,,,,,,,,,,,,,,,,,,,,,,,,,,,,,,,
,,,,,,,,,,,,,,,692,2022-02-03_13h52.50.452,multiplicationStroop,2021.2.3,Win32,60.52902367,,,,,left,1,0.5694,0,45,45,63,1,9,7,9 | 7,2,1.6933,1.6933,neutral,left,,,,,,stimulusFile/magnitude.xlsx,,,,,,,,,,,,,,,,,,,,,,,,,,,,,,,
,,,,,,,,,,,,,,,692,2022-02-03_13h52.50.452,multiplicationStroop,2021.2.3,Win32,60.52902367,,,,,left,1,0.5854,0,46,46,13,1,4,2,4 | 2,2,1.9756,1.4111,congruent,left,,,,,,stimulusFile/magnitude.xlsx,,,,,,,,,,,,,,,,,,,,,,,,,,,,,,,
,,,,,,,,,,,,,,,692,2022-02-03_13h52.50.452,multiplicationStroop,2021.2.3,Win32,60.52902367,,,,,right,1,0.6548,0,47,47,49,1,3,4,3 | 4,1,1.6933,1.6933,neutral,right,,,,,,stimulusFile/magnitude.xlsx,,,,,,,,,,,,,,,,,,,,,,,,,,,,,,,
,,,,,,,,,,,,,,,692,2022-02-03_13h52.50.452,multiplicationStroop,2021.2.3,Win32,60.52902367,,,,,right,1,0.6855,0,48,48,35,1,7,9,7 | 9,2,1.9756,1.4111,incongruent,right,,,,,,stimulusFile/magnitude.xlsx,,,,,,,,,,,,,,,,,,,,,,,,,,,,,,,
,,,,,,,,,,,,,,,692,2022-02-03_13h52.50.452,multiplicationStroop,2021.2.3,Win32,60.52902367,,,,,right,1,1.2029,0,49,49,40,1,1,6,1 | 6,5,1.9756,1.4111,incongruent,right,,,,,,stimulusFile/magnitude.xlsx,,,,,,,,,,,,,,,,,,,,,,,,,,,,,,,
,,,,,,,,,,,,,,,692,2022-02-03_13h52.50.452,multiplicationStroop,2021.2.3,Win32,60.52902367,,,,,right,1,0.8065,0,50,50,65,1,2,7,2 | 7,5,1.6933,1.6933,neutral,right,,,,,,stimulusFile/magnitude.xlsx,,,,,,,,,,,,,,,,,,,,,,,,,,,,,,,
,,,,,,,,,,,,,,,692,2022-02-03_13h52.50.452,multiplicationStroop,2021.2.3,Win32,60.52902367,,,,,left,1,0.6589,0,51,51,69,1,7,2,7 | 2,5,1.6933,1.6933,neutral,left,,,,,,stimulusFile/magnitude.xlsx,,,,,,,,,,,,,,,,,,,,,,,,,,,,,,,
,,,,,,,,,,,,,,,692,2022-02-03_13h52.50.452,multiplicationStroop,2021.2.3,Win32,60.52902367,,,,,left,1,0.7383,0,52,52,62,1,8,6,8 | 6,2,1.6933,1.6933,neutral,left,,,,,,stimulusFile/magnitude.xlsx,,,,,,,,,,,,,,,,,,,,,,,,,,,,,,,
,,,,,,,,,,,,,,,692,2022-02-03_13h52.50.452,multiplicationStroop,2021.2.3,Win32,60.52902367,,,,,right,1,0.7352,0,53,53,19,1,4,9,4 | 9,5,1.4111,1.9756,congruent,right,,,,,,stimulusFile/magnitude.xlsx,,,,,,,,,,,,,,,,,,,,,,,,,,,,,,,
,,,,,,,,,,,,,,,692,2022-02-03_13h52.50.452,multiplicationStroop,2021.2.3,Win32,60.52902367,,,,,left,1,0.7434,0,54,54,29,1,4,3,4 | 3,1,1.4111,1.9756,incongruent,left,,,,,,stimulusFile/magnitude.xlsx,,,,,,,,,,,,,,,,,,,,,,,,,,,,,,,
,,,,,,,,,,,,,,,692,2022-02-03_13h52.50.452,multiplicationStroop,2021.2.3,Win32,60.52902367,,,,,left,1,0.5861,0,55,55,52,1,2,1,2 | 1,1,1.6933,1.6933,neutral,left,,,,,,stimulusFile/magnitude.xlsx,,,,,,,,,,,,,,,,,,,,,,,,,,,,,,,
,,,,,,,,,,,,,,,692,2022-02-03_13h52.50.452,multiplicationStroop,2021.2.3,Win32,60.52902367,,,,,right,1,0.8436,0,56,56,41,1,2,7,2 | 7,5,1.9756,1.4111,incongruent,right,,,,,,stimulusFile/magnitude.xlsx,,,,,,,,,,,,,,,,,,,,,,,,,,,,,,,
,,,,,,,,,,,,,,,692,2022-02-03_13h52.50.452,multiplicationStroop,2021.2.3,Win32,60.52902367,,,,,left,1,0.5297,0,57,57,5,1,4,3,4 | 3,1,1.9756,1.4111,congruent,left,,,,,,stimulusFile/magnitude.xlsx,,,,,,,,,,,,,,,,,,,,,,,,,,,,,,,
,,,,,,,,,,,,,,,692,2022-02-03_13h52.50.452,multiplicationStroop,2021.2.3,Win32,60.52902367,,,,,left,1,0.6359,0,58,58,47,1,9,4,9 | 4,5,1.4111,1.9756,incongruent,left,,,,,,stimulusFile/magnitude.xlsx,,,,,,,,,,,,,,,,,,,,,,,,,,,,,,,
,,,,,,,,,,,,,,,692,2022-02-03_13h52.50.452,multiplicationStroop,2021.2.3,Win32,60.52902367,,,,,right,1,0.5528,0,59,59,17,1,2,7,2 | 7,5,1.4111,1.9756,congruent,right,,,,,,stimulusFile/magnitude.xlsx,,,,,,,,,,,,,,,,,,,,,,,,,,,,,,,
,,,,,,,,,,,,,,,692,2022-02-03_13h52.50.452,multiplicationStroop,2021.2.3,Win32,60.52902367,,,,,right,1,0.4983,0,60,60,18,1,3,8,3 | 8,5,1.4111,1.9756,congruent,right,,,,,,stimulusFile/magnitude.xlsx,,,,,,,,,,,,,,,,,,,,,,,,,,,,,,,
,,,,,,,,,,,,,,,692,2022-02-03_13h52.50.452,multiplicationStroop,2021.2.3,Win32,60.52902367,,,,,left,1,0.4548,0,61,61,68,1,6,1,6 | 1,5,1.6933,1.6933,neutral,left,,,,,,stimulusFile/magnitude.xlsx,,,,,,,,,,,,,,,,,,,,,,,,,,,,,,,
,,,,,,,,,,,,,,,692,2022-02-03_13h52.50.452,multiplicationStroop,2021.2.3,Win32,60.52902367,,,,,right,1,0.6018,0,62,62,42,1,3,8,3 | 8,5,1.9756,1.4111,incongruent,right,,,,,,stimulusFile/magnitude.xlsx,,,,,,,,,,,,,,,,,,,,,,,,,,,,,,,
,,,,,,,,,,,,,,,692,2022-02-03_13h52.50.452,multiplicationStroop,2021.2.3,Win32,60.52902367,,,,,left,1,0.6861,0,63,63,6,1,7,6,7 | 6,1,1.9756,1.4111,congruent,left,,,,,,stimulusFile/magnitude.xlsx,,,,,,,,,,,,,,,,,,,,,,,,,,,,,,,
,,,,,,,,,,,,,,,692,2022-02-03_13h52.50.452,multiplicationStroop,2021.2.3,Win32,60.52902367,,,,,right,1,0.552,0,64,64,67,1,4,9,4 | 9,5,1.6933,1.6933,neutral,right,,,,,,stimulusFile/magnitude.xlsx,,,,,,,,,,,,,,,,,,,,,,,,,,,,,,,
,,,,,,,,,,,,,,,692,2022-02-03_13h52.50.452,multiplicationStroop,2021.2.3,Win32,60.52902367,,,,,right,1,0.6581,0,65,65,24,1,1,2,1 | 2,1,1.9756,1.4111,incongruent,right,,,,,,stimulusFile/magnitude.xlsx,,,,,,,,,,,,,,,,,,,,,,,,,,,,,,,
,,,,,,,,,,,,,,,692,2022-02-03_13h52.50.452,multiplicationStroop,2021.2.3,Win32,60.52902367,,,,,left,1,0.5222,0,66,66,21,1,7,2,7 | 2,5,1.9756,1.4111,congruent,left,,,,,,stimulusFile/magnitude.xlsx,,,,,,,,,,,,,,,,,,,,,,,,,,,,,,,
,,,,,,,,,,,,,,,692,2022-02-03_13h52.50.452,multiplicationStroop,2021.2.3,Win32,60.52902367,,,,,left,1,0.6783,0,67,67,39,1,9,7,9 | 7,2,1.4111,1.9756,incongruent,left,,,,,,stimulusFile/magnitude.xlsx,,,,,,,,,,,,,,,,,,,,,,,,,,,,,,,
,,,,,,,,,,,,,,,692,2022-02-03_13h52.50.452,multiplicationStroop,2021.2.3,Win32,60.52902367,,,,,left,1,0.8033,0,68,68,12,1,3,1,3 | 1,2,1.9756,1.4111,congruent,left,,,,,,stimulusFile/magnitude.xlsx,,,,,,,,,,,,,,,,,,,,,,,,,,,,,,,
,,,,,,,,,,,,,,,692,2022-02-03_13h52.50.452,multiplicationStroop,2021.2.3,Win32,60.52902367,,,,,right,1,0.5715,0,69,69,32,1,1,3,1 | 3,2,1.9756,1.4111,incongruent,right,,,,,,stimulusFile/magnitude.xlsx,,,,,,,,,,,,,,,,,,,,,,,,,,,,,,,
,,,,,,,,,,,,,,,692,2022-02-03_13h52.50.452,multiplicationStroop,2021.2.3,Win32,60.52902367,,,,,left,1,0.7946,0,70,70,53,1,4,3,4 | 3,1,1.6933,1.6933,neutral,left,,,,,,stimulusFile/magnitude.xlsx,,,,,,,,,,,,,,,,,,,,,,,,,,,,,,,
,,,,,,,,,,,,,,,692,2022-02-03_13h52.50.452,multiplicationStroop,2021.2.3,Win32,60.52902367,,,,,right,1,0.6212,0,71,71,3,1,8,9,8 | 9,1,1.4111,1.9756,congruent,right,,,,,,stimulusFile/magnitude.xlsx,,,,,,,,,,,,,,,,,,,,,,,,,,,,,,,
,,,,,,,,,,,,,,,692,2022-02-03_13h52.50.452,multiplicationStroop,2021.2.3,Win32,60.52902367,,,,,,,,,,,,,,,,,,,,,0,1,1,0,1,stimulusFile/magnitude.xlsx,NUMERICALLY larger (larger coefficient).,images/numericallyLarger.png,,,,,,,,,,,,,,,,,,,,,,,,,,,,,
,,,,,,,,,,,,,,,692,2022-02-03_13h52.50.452,multiplicationStroop,2021.2.3,Win32,60.52902367,,,,,,,,,,,,,,,,,,,,,,,,,,,,,space,36.675,space,1.8745,40,2.8616,1,0,0,0,20,1,8,×,5,8 × 5,congruent,largerFirst,2,1,40,,,,,,,,
,,,,,,,,,,,,,,,692,2022-02-03_13h52.50.452,multiplicationStroop,2021.2.3,Win32,60.52902367,,,,,,,,,,,,,,,,,,,,,,,,,,,,,,,,,18,2.0853,1,0,1,1,25,1,6,×,3,6 × 3,congruent,largerFirst,2,1,18,,,,,,,,
,,,,,,,,,,,,,,,692,2022-02-03_13h52.50.452,multiplicationStroop,2021.2.3,Win32,60.52902367,,,,,,,,,,,,,,,,,,,,,,,,,,,,,,,,,6,1.952,1,0,2,2,27,1,3,×,2,3 × 2,congruent,largerFirst,2,1,6,,,,,,,,
,,,,,,,,,,,,,,,692,2022-02-03_13h52.50.452,multiplicationStroop,2021.2.3,Win32,60.52902367,,,,,,,,,,,,,,,,,,,,,,,,,,,,,,,,,56,1.9189,1,0,3,3,22,1,8,×,7,8 × 7,congruent,largerFirst,2,1,56,,,,,,,,
,,,,,,,,,,,,,,,692,2022-02-03_13h52.50.452,multiplicationStroop,2021.2.3,Win32,60.52902367,,,,,,,,,,,,,,,,,,,,,,,,,,,,,,,,,8,1.6515,1,0,4,4,23,1,4,×,2,4 × 2,congruent,largerFirst,2,1,8,,,,,,,,
,,,,,,,,,,,,,,,692,2022-02-03_13h52.50.452,multiplicationStroop,2021.2.3,Win32,60.52902367,,,,,,,,,,,,,,,,,,,,,,,,,,,,,,,,,42,1.8526,1,0,5,5,17,1,7,×,6,7 × 6,congruent,largerFirst,2,1,42,,,,,,,,
,,,,,,,,,,,,,,,692,2022-02-03_13h52.50.452,multiplicationStroop,2021.2.3,Win32,60.52902367,,,,,,,,,,,,,,,,,,,,,,,,,,,,,,,,,35,2.6196,1,0,6,6,15,1,7,×,5,7 × 5,congruent,largerFirst,2,1,35,,,,,,,,
,,,,,,,,,,,,,,,692,2022-02-03_13h52.50.452,multiplicationStroop,2021.2.3,Win32,60.52902367,,,,,,,,,,,,,,,,,,,,,,,,,,,,,,,,,12,1.5516,1,0,7,7,16,1,4,×,3,4 × 3,congruent,largerFirst,2,1,12,,,,,,,,
,,,,,,,,,,,,,,,692,2022-02-03_13h52.50.452,multiplicationStroop,2021.2.3,Win32,60.52902367,,,,,,,,,,,,,,,,,,,,,,,,,,,,,,,,,15,1.5181,1,0,8,8,18,1,5,×,3,5 × 3,congruent,largerFirst,2,1,15,,,,,,,,
,,,,,,,,,,,,,,,692,2022-02-03_13h52.50.452,multiplicationStroop,2021.2.3,Win32,60.52902367,,,,,,,,,,,,,,,,,,,,,,,,,,,,,,,,,28,2.2193,1,0,9,9,13,1,4,×,7,4 × 7,congruent,smallerFirst,1,2,28,,,,,,,,
,,,,,,,,,,,,,,,692,2022-02-03_13h52.50.452,multiplicationStroop,2021.2.3,Win32,60.52902367,,,,,,,,,,,,,,,,,,,,,,,,,,,,,,,,,18,1.702,1,0,10,10,8,1,2,×,9,2 × 9,congruent,smallerFirst,1,2,18,,,,,,,,
,,,,,,,,,,,,,,,692,2022-02-03_13h52.50.452,multiplicationStroop,2021.2.3,Win32,60.52902367,,,,,,,,,,,,,,,,,,,,,,,,,,,,,,,,,21,1.518,1,0,11,11,2,1,3,×,7,3 × 7,congruent,smallerFirst,1,2,21,,,,,,,,
,,,,,,,,,,,,,,,692,2022-02-03_13h52.50.452,multiplicationStroop,2021.2.3,Win32,60.52902367,,,,,,,,,,,,,,,,,,,,,,,,,,,,,,,,,9,1.5999,1,0,12,12,29,1,3,×,3,3 × 3,neutral,tie,1,2,9,,,,,,,,
,,,,,,,,,,,,,,,692,2022-02-03_13h52.50.452,multiplicationStroop,2021.2.3,Win32,60.52902367,,,,,,,,,,,,,,,,,,,,,,,,,,,,,,,,,16,1.8021,1,0,13,13,19,1,8,×,2,8 × 2,congruent,largerFirst,2,1,16,,,,,,,,
,,,,,,,,,,,,,,,692,2022-02-03_13h52.50.452,multiplicationStroop,2021.2.3,Win32,60.52902367,,,,,,,,,,,,,,,,,,,,,,,,,,,,,,,,,27,2.2026,1,0,14,14,12,1,3,×,9,3 × 9,congruent,smallerFirst,1,2,27,,,,,,,,
,,,,,,,,,,,,,,,692,2022-02-03_13h52.50.452,multiplicationStroop,2021.2.3,Win32,60.52902367,,,,,,,,,,,,,,,,,,,,,,,,,,,,,,,,,14,1.5183,1,0,15,15,0,1,2,×,7,2 × 7,congruent,smallerFirst,1,2,14,,,,,,,,
,,,,,,,,,,,,,,,692,2022-02-03_13h52.50.452,multiplicationStroop,2021.2.3,Win32,60.52902367,,,,,,,,,,,,,,,,,,,,,,,,,,,,,,,,,54,2.0022,1,0,16,16,26,1,9,×,6,9 × 6,congruent,largerFirst,2,1,54,,,,,,,,
,,,,,,,,,,,,,,,692,2022-02-03_13h52.50.452,multiplicationStroop,2021.2.3,Win32,60.52902367,,,,,,,,,,,,,,,,,,,,,,,,,,,,,,,,,45,2.0525,1,0,17,17,9,1,5,×,9,5 × 9,congruent,smallerFirst,1,2,45,,,,,,,,
,,,,,,,,,,,,,,,692,2022-02-03_13h52.50.452,multiplicationStroop,2021.2.3,Win32,60.52902367,,,,,,,,,,,,,,,,,,,,,,,,,,,,,,,,,36,2.8203,1,0,18,18,14,1,9,×,4,9 × 4,congruent,largerFirst,2,1,36,,,,,,,,
,,,,,,,,,,,,,,,692,2022-02-03_13h52.50.452,multiplicationStroop,2021.2.3,Win32,60.52902367,,,,,,,,,,,,,,,,,,,,,,,,,,,,,,,,,72,2.3527,1,0,19,19,3,1,8,×,9,8 × 9,congruent,smallerFirst,1,2,72,,,,,,,,
,,,,,,,,,,,,,,,692,2022-02-03_13h52.50.452,multiplicationStroop,2021.2.3,Win32,60.52902367,,,,,,,,,,,,,,,,,,,,,,,,,,,,,,,,,25,1.7687,1,0,20,20,31,1,5,×,5,5 × 5,neutral,tie,1,2,25,,,,,,,,
,,,,,,,,,,,,,,,692,2022-02-03_13h52.50.452,multiplicationStroop,2021.2.3,Win32,60.52902367,,,,,,,,,,,,,,,,,,,,,,,,,,,,,,,,,81,2.2029,1,0,21,21,35,1,9,×,9,9 × 9,neutral,tie,1,2,81,,,,,,,,
,,,,,,,,,,,,,,,692,2022-02-03_13h52.50.452,multiplicationStroop,2021.2.3,Win32,60.52902367,,,,,,,,,,,,,,,,,,,,,,,,,,,,,,,,,10,1.7363,1,0,22,22,10,1,2,×,5,2 × 5,congruent,smallerFirst,1,2,10,,,,,,,,
,,,,,,,,,,,,,,,692,2022-02-03_13h52.50.452,multiplicationStroop,2021.2.3,Win32,60.52902367,,,,,,,,,,,,,,,,,,,,,,,,,,,,,,,,,30,1.8507,1,0,23,23,1,1,5,×,6,5 × 6,congruent,smallerFirst,1,2,30,,,,,,,,
,,,,,,,,,,,,,,,692,2022-02-03_13h52.50.452,multiplicationStroop,2021.2.3,Win32,60.52902367,,,,,,,,,,,,,,,,,,,,,,,,,,,,,,,,,20,1.8355,1,0,24,24,21,1,5,×,4,5 × 4,congruent,largerFirst,2,1,20,,,,,,,,
,,,,,,,,,,,,,,,692,2022-02-03_13h52.50.452,multiplicationStroop,2021.2.3,Win32,60.52902367,,,,,,,,,,,,,,,,,,,,,,,,,,,,,,,,,4,1.5849,1,0,25,25,28,1,2,×,2,2 × 2,neutral,tie,1,2,4,,,,,,,,
,,,,,,,,,,,,,,,692,2022-02-03_13h52.50.452,multiplicationStroop,2021.2.3,Win32,60.52902367,,,,,,,,,,,,,,,,,,,,,,,,,,,,,,,,,24,2.4362,1,0,26,26,24,1,8,×,3,8 × 3,congruent,largerFirst,2,1,24,,,,,,,,
,,,,,,,,,,,,,,,692,2022-02-03_13h52.50.452,multiplicationStroop,2021.2.3,Win32,60.52902367,,,,,,,,,,,,,,,,,,,,,,,,,,,,,,,,,63,3.7719,1,0,27,27,7,1,7,×,9,7 × 9,congruent,smallerFirst,1,2,63,,,,,,,,
,,,,,,,,,,,,,,,692,2022-02-03_13h52.50.452,multiplicationStroop,2021.2.3,Win32,60.52902367,,,,,,,,,,,,,,,,,,,,,,,,,,,,,,,,,24,2.0743,1,0,28,28,11,1,4,×,6,4 × 6,congruent,smallerFirst,1,2,24,,,,,,,,
,,,,,,,,,,,,,,,692,2022-02-03_13h52.50.452,multiplicationStroop,2021.2.3,Win32,60.52902367,,,,,,,,,,,,,,,,,,,,,,,,,,,,,,,,,49,2.036,1,0,29,29,33,1,7,×,7,7 × 7,neutral,tie,1,2,49,,,,,,,,
,,,,,,,,,,,,,,,692,2022-02-03_13h52.50.452,multiplicationStroop,2021.2.3,Win32,60.52902367,,,,,,,,,,,,,,,,,,,,,,,,,,,,,,,,,36,1.7519,1,0,30,30,32,1,6,×,6,6 × 6,neutral,tie,1,2,36,,,,,,,,
,,,,,,,,,,,,,,,692,2022-02-03_13h52.50.452,multiplicationStroop,2021.2.3,Win32,60.52902367,,,,,,,,,,,,,,,,,,,,,,,,,,,,,,,,,16,2.6533,1,0,31,31,30,1,4,×,4,4 × 4,neutral,tie,1,2,16,,,,,,,,
,,,,,,,,,,,,,,,692,2022-02-03_13h52.50.452,multiplicationStroop,2021.2.3,Win32,60.52902367,,,,,,,,,,,,,,,,,,,,,,,,,,,,,,,,,48,2.0363,1,0,32,32,4,1,6,×,8,6 × 8,congruent,smallerFirst,1,2,48,,,,,,,,
,,,,,,,,,,,,,,,692,2022-02-03_13h52.50.452,multiplicationStroop,2021.2.3,Win32,60.52902367,,,,,,,,,,,,,,,,,,,,,,,,,,,,,,,,,64,1.9018,1,0,33,33,34,1,8,×,8,8 × 8,neutral,tie,1,2,64,,,,,,,,
,,,,,,,,,,,,,,,692,2022-02-03_13h52.50.452,multiplicationStroop,2021.2.3,Win32,60.52902367,,,,,,,,,,,,,,,,,,,,,,,,,,,,,,,,,12,1.3849,1,0,34,34,5,1,2,×,6,2 × 6,congruent,smallerFirst,1,2,12,,,,,,,,
,,,,,,,,,,,,,,,692,2022-02-03_13h52.50.452,multiplicationStroop,2021.2.3,Win32,60.52902367,,,,,,,,,,,,,,,,,,,,,,,,,,,,,,,,,32,2.2197,1,0,35,35,6,1,4,×,8,4 × 8,congruent,smallerFirst,1,2,32,,,,,,,,
,,,,,,,,,,,,,,,692,2022-02-03_13h52.50.452,multiplicationStroop,2021.2.3,Win32,60.52902367,,,,,,,,,,,,,,,,,,,,,,,,,,,,,,,,,,,,,,,,,,,,,,,,,,0,0,0,3,1,stimulusFile/mult_blk4_congruent.xlsx,,
,,,,,,,,,,,,,,,692,2022-02-03_13h52.50.452,multiplicationStroop,2021.2.3,Win32,60.52902367,,,,,,,,,,,,,,,,,,,,,,,,,,,,,,,space,1.435,24,1.8637,1,0,0,0,10,1,3,×,8,3 × 8,congruent,smallerFirst,1,2,24,,,,,,,,
,,,,,,,,,,,,,,,692,2022-02-03_13h52.50.452,multiplicationStroop,2021.2.3,Win32,60.52902367,,,,,,,,,,,,,,,,,,,,,,,,,,,,,,,,,21,1.5516,1,0,1,1,16,1,7,×,3,7 × 3,congruent,largerFirst,2,1,21,,,,,,,,
,,,,,,,,,,,,,,,692,2022-02-03_13h52.50.452,multiplicationStroop,2021.2.3,Win32,60.52902367,,,,,,,,,,,,,,,,,,,,,,,,,,,,,,,,,12,1.5349,1,0,2,2,2,1,3,×,4,3 × 4,congruent,smallerFirst,1,2,12,,,,,,,,
,,,,,,,,,,,,,,,692,2022-02-03_13h52.50.452,multiplicationStroop,2021.2.3,Win32,60.52902367,,,,,,,,,,,,,,,,,,,,,,,,,,,,,,,,,28,2.2193,1,0,3,3,27,1,7,×,4,7 × 4,congruent,largerFirst,2,1,28,,,,,,,,
,,,,,,,,,,,,,,,692,2022-02-03_13h52.50.452,multiplicationStroop,2021.2.3,Win32,60.52902367,,,,,,,,,,,,,,,,,,,,,,,,,,,,,,,,,32,2.036,1,0,4,4,20,1,8,×,4,8 × 4,congruent,largerFirst,2,1,32,,,,,,,,
,,,,,,,,,,,,,,,692,2022-02-03_13h52.50.452,multiplicationStroop,2021.2.3,Win32,60.52902367,,,,,,,,,,,,,,,,,,,,,,,,,,,,,,,,,16,1.8023,1,0,5,5,5,1,2,×,8,2 × 8,congruent,smallerFirst,1,2,16,,,,,,,,
,,,,,,,,,,,,,,,692,2022-02-03_13h52.50.452,multiplicationStroop,2021.2.3,Win32,60.52902367,,,,,,,,,,,,,,,,,,,,,,,,,,,,,,,,,9,1.5184,1,0,6,6,29,1,3,×,3,3 × 3,neutral,tie,2,1,9,,,,,,,,
,,,,,,,,,,,,,,,692,2022-02-03_13h52.50.452,multiplicationStroop,2021.2.3,Win32,60.52902367,,,,,,,,,,,,,,,,,,,,,,,,,,,,,,,,,54,2.0523,1,0,7,7,12,1,6,×,9,6 × 9,congruent,smallerFirst,1,2,54,,,,,,,,
,,,,,,,,,,,,,,,692,2022-02-03_13h52.50.452,multiplicationStroop,2021.2.3,Win32,60.52902367,,,,,,,,,,,,,,,,,,,,,,,,,,,,,,,,,42,2.0023,1,0,8,8,3,1,6,×,7,6 × 7,congruent,smallerFirst,1,2,42,,,,,,,,
,,,,,,,,,,,,,,,692,2022-02-03_13h52.50.452,multiplicationStroop,2021.2.3,Win32,60.52902367,,,,,,,,,,,,,,,,,,,,,,,,,,,,,,,,,45,2.0358,1,0,9,9,23,1,9,×,5,9 × 5,congruent,largerFirst,2,1,45,,,,,,,,
,,,,,,,,,,,,,,,692,2022-02-03_13h52.50.452,multiplicationStroop,2021.2.3,Win32,60.52902367,,,,,,,,,,,,,,,,,,,,,,,,,,,,,,,,,35,1.969,1,0,10,10,1,1,5,×,7,5 × 7,congruent,smallerFirst,1,2,35,,,,,,,,
,,,,,,,,,,,,,,,692,2022-02-03_13h52.50.452,multiplicationStroop,2021.2.3,Win32,60.52902367,,,,,,,,,,,,,,,,,,,,,,,,,,,,,,,,,25,1.7853,1,0,11,11,31,1,5,×,5,5 × 5,neutral,tie,2,1,25,,,,,,,,
,,,,,,,,,,,,,,,692,2022-02-03_13h52.50.452,multiplicationStroop,2021.2.3,Win32,60.52902367,,,,,,,,,,,,,,,,,,,,,,,,,,,,,,,,,4,1.6016,1,0,12,12,28,1,2,×,2,2 × 2,neutral,tie,2,1,4,,,,,,,,
,,,,,,,,,,,,,,,692,2022-02-03_13h52.50.452,multiplicationStroop,2021.2.3,Win32,60.52902367,,,,,,,,,,,,,,,,,,,,,,,,,,,,,,,,,10,2.2361,1,0,13,13,24,1,5,×,2,5 × 2,congruent,largerFirst,2,1,10,,,,,,,,
,,,,,,,,,,,,,,,692,2022-02-03_13h52.50.452,multiplicationStroop,2021.2.3,Win32,60.52902367,,,,,,,,,,,,,,,,,,,,,,,,,,,,,,,,,20,2.0356,1,0,14,14,7,1,4,×,5,4 × 5,congruent,smallerFirst,1,2,20,,,,,,,,
,,,,,,,,,,,,,,,692,2022-02-03_13h52.50.452,multiplicationStroop,2021.2.3,Win32,60.52902367,,,,,,,,,,,,,,,,,,,,,,,,,,,,,,,,,48,2.67,1,0,15,15,18,1,8,×,6,8 × 6,congruent,largerFirst,2,1,48,,,,,,,,
,,,,,,,,,,,,,,,692,2022-02-03_13h52.50.452,multiplicationStroop,2021.2.3,Win32,60.52902367,,,,,,,,,,,,,,,,,,,,,,,,,,,,,,,,,72,2.5031,1,0,16,16,17,1,9,×,8,9 × 8,congruent,largerFirst,2,1,72,,,,,,,,
,,,,,,,,,,,,,,,692,2022-02-03_13h52.50.452,multiplicationStroop,2021.2.3,Win32,60.52902367,,,,,,,,,,,,,,,,,,,,,,,,,,,,,,,,,64,2.1571,1,0,17,17,34,1,8,×,8,8 × 8,neutral,tie,2,1,64,,,,,,,,
,,,,,,,,,,,,,,,692,2022-02-03_13h52.50.452,multiplicationStroop,2021.2.3,Win32,60.52902367,,,,,,,,,,,,,,,,,,,,,,,,,,,,,,,,,36,1.9857,1,0,18,18,32,1,6,×,6,6 × 6,neutral,tie,2,1,36,,,,,,,,
,,,,,,,,,,,,,,,692,2022-02-03_13h52.50.452,multiplicationStroop,2021.2.3,Win32,60.52902367,,,,,,,,,,,,,,,,,,,,,,,,,,,,,,,,,18,2.0856,1,0,19,19,22,1,9,×,2,9 × 2,congruent,largerFirst,2,1,18,,,,,,,,
,,,,,,,,,,,,,,,692,2022-02-03_13h52.50.452,multiplicationStroop,2021.2.3,Win32,60.52902367,,,,,,,,,,,,,,,,,,,,,,,,,,,,,,,,,36,2.1526,1,0,20,20,0,1,4,×,9,4 × 9,congruent,smallerFirst,1,2,36,,,,,,,,
,,,,,,,,,,,,,,,692,2022-02-03_13h52.50.452,multiplicationStroop,2021.2.3,Win32,60.52902367,,,,,,,,,,,,,,,,,,,,,,,,,,,,,,,,,18,2.6366,1,0,21,21,11,1,3,×,6,3 × 6,congruent,smallerFirst,1,2,18,,,,,,,,
,,,,,,,,,,,,,,,692,2022-02-03_13h52.50.452,multiplicationStroop,2021.2.3,Win32,60.52902367,,,,,,,,,,,,,,,,,,,,,,,,,,,,,,,,,6,2.0857,1,0,22,22,13,1,2,×,3,2 × 3,congruent,smallerFirst,1,2,6,,,,,,,,
,,,,,,,,,,,,,,,692,2022-02-03_13h52.50.452,multiplicationStroop,2021.2.3,Win32,60.52902367,,,,,,,,,,,,,,,,,,,,,,,,,,,,,,,,,27,2.0692,1,0,23,23,26,1,9,×,3,9 × 3,congruent,largerFirst,2,1,27,,,,,,,,
,,,,,,,,,,,,,,,692,2022-02-03_13h52.50.452,multiplicationStroop,2021.2.3,Win32,60.52902367,,,,,,,,,,,,,,,,,,,,,,,,,,,,,,,,,63,2.236,1,0,24,24,21,1,9,×,7,9 × 7,congruent,largerFirst,2,1,63,,,,,,,,
,,,,,,,,,,,,,,,692,2022-02-03_13h52.50.452,multiplicationStroop,2021.2.3,Win32,60.52902367,,,,,,,,,,,,,,,,,,,,,,,,,,,,,,,,,30,1.9357,1,0,25,25,15,1,6,×,5,6 × 5,congruent,largerFirst,2,1,30,,,,,,,,
,,,,,,,,,,,,,,,692,2022-02-03_13h52.50.452,multiplicationStroop,2021.2.3,Win32,60.52902367,,,,,,,,,,,,,,,,,,,,,,,,,,,,,,,,,12,1.6684,1,0,26,26,19,1,6,×,2,6 × 2,congruent,largerFirst,2,1,12,,,,,,,,
,,,,,,,,,,,,,,,692,2022-02-03_13h52.50.452,multiplicationStroop,2021.2.3,Win32,60.52902367,,,,,,,,,,,,,,,,,,,,,,,,,,,,,,,,,16,1.7853,1,0,27,27,30,1,4,×,4,4 × 4,neutral,tie,2,1,16,,,,,,,,
,,,,,,,,,,,,,,,692,2022-02-03_13h52.50.452,multiplicationStroop,2021.2.3,Win32,60.52902367,,,,,,,,,,,,,,,,,,,,,,,,,,,,,,,,,15,1.6852,1,0,28,28,4,1,3,×,5,3 × 5,congruent,smallerFirst,1,2,15,,,,,,,,
,,,,,,,,,,,,,,,692,2022-02-03_13h52.50.452,multiplicationStroop,2021.2.3,Win32,60.52902367,,,,,,,,,,,,,,,,,,,,,,,,,,,,,,,,,49,1.9857,1,0,29,29,33,1,7,×,7,7 × 7,neutral,tie,2,1,49,,,,,,,,
,,,,,,,,,,,,,,,692,2022-02-03_13h52.50.452,multiplicationStroop,2021.2.3,Win32,60.52902367,,,,,,,,,,,,,,,,,,,,,,,,,,,,,,,,,14,1.7023,1,0,30,30,14,1,7,×,2,7 × 2,congruent,largerFirst,2,1,14,,,,,,,,
,,,,,,,,,,,,,,,692,2022-02-03_13h52.50.452,multiplicationStroop,2021.2.3,Win32,60.52902367,,,,,,,,,,,,,,,,,,,,,,,,,,,,,,,,,40,2.052,1,0,31,31,6,1,5,×,8,5 × 8,congruent,smallerFirst,1,2,40,,,,,,,,
,,,,,,,,,,,,,,,692,2022-02-03_13h52.50.452,multiplicationStroop,2021.2.3,Win32,60.52902367,,,,,,,,,,,,,,,,,,,,,,,,,,,,,,,,,56,2.2025,1,0,32,32,8,1,7,×,8,7 × 8,congruent,smallerFirst,1,2,56,,,,,,,,
,,,,,,,,,,,,,,,692,2022-02-03_13h52.50.452,multiplicationStroop,2021.2.3,Win32,60.52902367,,,,,,,,,,,,,,,,,,,,,,,,,,,,,,,,,8,2.0191,1,0,33,33,9,1,2,×,4,2 × 4,congruent,smallerFirst,1,2,8,,,,,,,,
,,,,,,,,,,,,,,,692,2022-02-03_13h52.50.452,multiplicationStroop,2021.2.3,Win32,60.52902367,,,,,,,,,,,,,,,,,,,,,,,,,,,,,,,,,81,2.5196,1,0,34,34,35,1,9,×,9,9 × 9,neutral,tie,2,1,81,,,,,,,,
,,,,,,,,,,,,,,,692,2022-02-03_13h52.50.452,multiplicationStroop,2021.2.3,Win32,60.52902367,,,,,,,,,,,,,,,,,,,,,,,,,,,,,,,,,24,1.8523,1,0,35,35,25,1,6,×,4,6 × 4,congruent,largerFirst,2,1,24,,,,,,,,
,,,,,,,,,,,,,,,692,2022-02-03_13h52.50.452,multiplicationStroop,2021.2.3,Win32,60.52902367,,,,,,,,,,,,,,,,,,,,,,,,,,,,,,,,,,,,,,,,,,,,,,,,,,0,1,1,2,1,stimulusFile/mult_blk3_congruent.xlsx,,
,,,,,,,,,,,,,,,692,2022-02-03_13h52.50.452,multiplicationStroop,2021.2.3,Win32,60.52902367,,,,,,,,,,,,,,,,,,,,,,,,,,,,,,,space,0.9318,64,1.9495,1,0,0,0,34,1,8,×,8,8 × 8,incongruent,tie,1,2,64,,,,,,,,
,,,,,,,,,,,,,,,692,2022-02-03_13h52.50.452,multiplicationStroop,2021.2.3,Win32,60.52902367,,,,,,,,,,,,,,,,,,,,,,,,,,,,,,,,,48,2.4867,1,0,1,1,1,1,6,×,8,6 × 8,incongruent,smallerFirst,2,1,48,,,,,,,,
,,,,,,,,,,,,,,,692,2022-02-03_13h52.50.452,multiplicationStroop,2021.2.3,Win32,60.52902367,,,,,,,,,,,,,,,,,,,,,,,,,,,,,,,,,72,2.1573,1,0,2,2,0,1,8,×,9,8 × 9,incongruent,smallerFirst,2,1,72,,,,,,,,
,,,,,,,,,,,,,,,692,2022-02-03_13h52.50.452,multiplicationStroop,2021.2.3,Win32,60.52902367,,,,,,,,,,,,,,,,,,,,,,,,,,,,,,,,,10,1.6852,1,0,3,3,21,1,5,×,2,5 × 2,incongruent,largerFirst,1,2,10,,,,,,,,
,,,,,,,,,,,,,,,692,2022-02-03_13h52.50.452,multiplicationStroop,2021.2.3,Win32,60.52902367,,,,,,,,,,,,,,,,,,,,,,,,,,,,,,,,,12,1.6187,1,0,4,4,5,1,3,×,4,3 × 4,incongruent,smallerFirst,2,1,12,,,,,,,,
,,,,,,,,,,,,,,,692,2022-02-03_13h52.50.452,multiplicationStroop,2021.2.3,Win32,60.52902367,,,,,,,,,,,,,,,,,,,,,,,,,,,,,,,,,32,2.0021,1,0,5,5,7,1,4,×,8,4 × 8,incongruent,smallerFirst,2,1,32,,,,,,,,
,,,,,,,,,,,,,,,692,2022-02-03_13h52.50.452,multiplicationStroop,2021.2.3,Win32,60.52902367,,,,,,,,,,,,,,,,,,,,,,,,,,,,,,,,,4,1.4514,1,0,6,6,28,1,2,×,2,2 × 2,incongruent,tie,1,2,4,,,,,,,,
,,,,,,,,,,,,,,,692,2022-02-03_13h52.50.452,multiplicationStroop,2021.2.3,Win32,60.52902367,,,,,,,,,,,,,,,,,,,,,,,,,,,,,,,,,45,2.4364,1,0,7,7,22,1,9,×,5,9 × 5,incongruent,largerFirst,1,2,45,,,,,,,,
,,,,,,,,,,,,,,,692,2022-02-03_13h52.50.452,multiplicationStroop,2021.2.3,Win32,60.52902367,,,,,,,,,,,,,,,,,,,,,,,,,,,,,,,,,9,1.5182,1,0,8,8,29,1,3,×,3,3 × 3,incongruent,tie,1,2,9,,,,,,,,
,,,,,,,,,,,,,,,692,2022-02-03_13h52.50.452,multiplicationStroop,2021.2.3,Win32,60.52902367,,,,,,,,,,,,,,,,,,,,,,,,,,,,,,,,,16,1.8355,1,0,9,9,30,1,4,×,4,4 × 4,incongruent,tie,1,2,16,,,,,,,,
,,,,,,,,,,,,,,,692,2022-02-03_13h52.50.452,multiplicationStroop,2021.2.3,Win32,60.52902367,,,,,,,,,,,,,,,,,,,,,,,,,,,,,,,,,30,1.9188,1,0,10,10,25,1,6,×,5,6 × 5,incongruent,largerFirst,1,2,30,,,,,,,,
,,,,,,,,,,,,,,,692,2022-02-03_13h52.50.452,multiplicationStroop,2021.2.3,Win32,60.52902367,,,,,,,,,,,,,,,,,,,,,,,,,,,,,,,,,12,1.5517,1,0,11,11,19,1,6,×,2,6 × 2,incongruent,largerFirst,1,2,12,,,,,,,,
,,,,,,,,,,,,,,,692,2022-02-03_13h52.50.452,multiplicationStroop,2021.2.3,Win32,60.52902367,,,,,,,,,,,,,,,,,,,,,,,,,,,,,,,,,21,1.6352,1,0,12,12,26,1,7,×,3,7 × 3,incongruent,largerFirst,1,2,21,,,,,,,,
,,,,,,,,,,,,,,,692,2022-02-03_13h52.50.452,multiplicationStroop,2021.2.3,Win32,60.52902367,,,,,,,,,,,,,,,,,,,,,,,,,,,,,,,,,6,1.6685,1,0,13,13,11,1,2,×,3,2 × 3,incongruent,smallerFirst,2,1,6,,,,,,,,
,,,,,,,,,,,,,,,692,2022-02-03_13h52.50.452,multiplicationStroop,2021.2.3,Win32,60.52902367,,,,,,,,,,,,,,,,,,,,,,,,,,,,,,,,,36,1.8854,1,0,14,14,32,1,6,×,6,6 × 6,incongruent,tie,1,2,36,,,,,,,,
,,,,,,,,,,,,,,,692,2022-02-03_13h52.50.452,multiplicationStroop,2021.2.3,Win32,60.52902367,,,,,,,,,,,,,,,,,,,,,,,,,,,,,,,,,8,1.7025,1,0,15,15,24,1,4,×,2,4 × 2,incongruent,largerFirst,1,2,8,,,,,,,,
,,,,,,,,,,,,,,,692,2022-02-03_13h52.50.452,multiplicationStroop,2021.2.3,Win32,60.52902367,,,,,,,,,,,,,,,,,,,,,,,,,,,,,,,,,35,1.9185,1,0,16,16,12,1,5,×,7,5 × 7,incongruent,smallerFirst,2,1,35,,,,,,,,
,,,,,,,,,,,,,,,692,2022-02-03_13h52.50.452,multiplicationStroop,2021.2.3,Win32,60.52902367,,,,,,,,,,,,,,,,,,,,,,,,,,,,,,,,,40,2.8537,1,0,17,17,13,1,5,×,8,5 × 8,incongruent,smallerFirst,2,1,40,,,,,,,,
,,,,,,,,,,,,,,,692,2022-02-03_13h52.50.452,multiplicationStroop,2021.2.3,Win32,60.52902367,,,,,,,,,,,,,,,,,,,,,,,,,,,,,,,,,18,1.8567,1,0,18,18,2,1,2,×,9,2 × 9,incongruent,smallerFirst,2,1,18,,,,,,,,
,,,,,,,,,,,,,,,692,2022-02-03_13h52.50.452,multiplicationStroop,2021.2.3,Win32,60.52902367,,,,,,,,,,,,,,,,,,,,,,,,,,,,,,,,,24,4.9905,1,0,19,19,9,1,3,×,8,3 × 8,incongruent,smallerFirst,2,1,24,,,,,,,,
,,,,,,,,,,,,,,,692,2022-02-03_13h52.50.452,multiplicationStroop,2021.2.3,Win32,60.52902367,,,,,,,,,,,,,,,,,,,,,,,,,,,,,,,,,54,2.2067,1,0,20,20,6,1,6,×,9,6 × 9,incongruent,smallerFirst,2,1,54,,,,,,,,
,,,,,,,,,,,,,,,692,2022-02-03_13h52.50.452,multiplicationStroop,2021.2.3,Win32,60.52902367,,,,,,,,,,,,,,,,,,,,,,,,,,,,,,,,,15,1.6516,1,0,21,21,10,1,3,×,5,3 × 5,incongruent,smallerFirst,2,1,15,,,,,,,,
,,,,,,,,,,,,,,,692,2022-02-03_13h52.50.452,multiplicationStroop,2021.2.3,Win32,60.52902367,,,,,,,,,,,,,,,,,,,,,,,,,,,,,,,,,24,1.7523,1,0,22,22,20,1,6,×,4,6 × 4,incongruent,largerFirst,1,2,24,,,,,,,,
,,,,,,,,,,,,,,,692,2022-02-03_13h52.50.452,multiplicationStroop,2021.2.3,Win32,60.52902367,,,,,,,,,,,,,,,,,,,,,,,,,,,,,,,,,72,2.4363,0,0,23,23,14,1,8,×,7,8 × 7,incongruent,largerFirst,1,2,56,,,,,,,,
,,,,,,,,,,,,,,,692,2022-02-03_13h52.50.452,multiplicationStroop,2021.2.3,Win32,60.52902367,,,,,,,,,,,,,,,,,,,,,,,,,,,,,,,,,81,2.0529,1,0,24,24,35,1,9,×,9,9 × 9,incongruent,tie,1,2,81,,,,,,,,
,,,,,,,,,,,,,,,692,2022-02-03_13h52.50.452,multiplicationStroop,2021.2.3,Win32,60.52902367,,,,,,,,,,,,,,,,,,,,,,,,,,,,,,,,,36,3.1208,1,0,25,25,15,1,9,×,4,9 × 4,incongruent,largerFirst,1,2,36,,,,,,,,
,,,,,,,,,,,,,,,692,2022-02-03_13h52.50.452,multiplicationStroop,2021.2.3,Win32,60.52902367,,,,,,,,,,,,,,,,,,,,,,,,,,,,,,,,,27,1.9395,1,0,26,26,18,1,9,×,3,9 × 3,incongruent,largerFirst,1,2,27,,,,,,,,
,,,,,,,,,,,,,,,692,2022-02-03_13h52.50.452,multiplicationStroop,2021.2.3,Win32,60.52902367,,,,,,,,,,,,,,,,,,,,,,,,,,,,,,,,,25,1.7854,1,0,27,27,31,1,5,×,5,5 × 5,incongruent,tie,1,2,25,,,,,,,,
,,,,,,,,,,,,,,,692,2022-02-03_13h52.50.452,multiplicationStroop,2021.2.3,Win32,60.52902367,,,,,,,,,,,,,,,,,,,,,,,,,,,,,,,,,16,1.7185,1,0,28,28,23,1,8,×,2,8 × 2,incongruent,largerFirst,1,2,16,,,,,,,,
,,,,,,,,,,,,,,,692,2022-02-03_13h52.50.452,multiplicationStroop,2021.2.3,Win32,60.52902367,,,,,,,,,,,,,,,,,,,,,,,,,,,,,,,,,20,1.7854,1,0,29,29,27,1,5,×,4,5 × 4,incongruent,largerFirst,1,2,20,,,,,,,,
,,,,,,,,,,,,,,,692,2022-02-03_13h52.50.452,multiplicationStroop,2021.2.3,Win32,60.52902367,,,,,,,,,,,,,,,,,,,,,,,,,,,,,,,,,42,2.1029,1,0,30,30,17,1,7,×,6,7 × 6,incongruent,largerFirst,1,2,42,,,,,,,,
,,,,,,,,,,,,,,,692,2022-02-03_13h52.50.452,multiplicationStroop,2021.2.3,Win32,60.52902367,,,,,,,,,,,,,,,,,,,,,,,,,,,,,,,,,14,1.5849,1,0,31,31,4,1,2,×,7,2 × 7,incongruent,smallerFirst,2,1,14,,,,,,,,
,,,,,,,,,,,,,,,692,2022-02-03_13h52.50.452,multiplicationStroop,2021.2.3,Win32,60.52902367,,,,,,,,,,,,,,,,,,,,,,,,,,,,,,,,,63,2.3028,1,0,32,32,3,1,7,×,9,7 × 9,incongruent,smallerFirst,2,1,63,,,,,,,,
,,,,,,,,,,,,,,,692,2022-02-03_13h52.50.452,multiplicationStroop,2021.2.3,Win32,60.52902367,,,,,,,,,,,,,,,,,,,,,,,,,,,,,,,,,49,1.9524,1,0,33,33,33,1,7,×,7,7 × 7,incongruent,tie,1,2,49,,,,,,,,
,,,,,,,,,,,,,,,692,2022-02-03_13h52.50.452,multiplicationStroop,2021.2.3,Win32,60.52902367,,,,,,,,,,,,,,,,,,,,,,,,,,,,,,,,,18,1.9523,1,0,34,34,8,1,3,×,6,3 × 6,incongruent,smallerFirst,2,1,18,,,,,,,,
,,,,,,,,,,,,,,,692,2022-02-03_13h52.50.452,multiplicationStroop,2021.2.3,Win32,60.52902367,,,,,,,,,,,,,,,,,,,,,,,,,,,,,,,,,28,2.6365,1,0,35,35,16,1,7,×,4,7 × 4,incongruent,largerFirst,1,2,28,,,,,,,,
,,,,,,,,,,,,,,,692,2022-02-03_13h52.50.452,multiplicationStroop,2021.2.3,Win32,60.52902367,,,,,,,,,,,,,,,,,,,,,,,,,,,,,,,,,,,,,,,,,,,,,,,,,,0,2,2,5,1,stimulusFile/mult_blk6_INcongruent.xlsx,,
,,,,,,,,,,,,,,,692,2022-02-03_13h52.50.452,multiplicationStroop,2021.2.3,Win32,60.52902367,,,,,,,,,,,,,,,,,,,,,,,,,,,,,,,space,1.1038,27,2.0833,1,0,0,0,14,1,9,×,3,9 × 3,neutral,largerFirst,1.5,1.5,27,,,,,,,,
,,,,,,,,,,,,,,,692,2022-02-03_13h52.50.452,multiplicationStroop,2021.2.3,Win32,60.52902367,,,,,,,,,,,,,,,,,,,,,,,,,,,,,,,,,12,1.535,1,0,1,1,21,1,4,×,3,4 × 3,neutral,largerFirst,1.5,1.5,12,,,,,,,,
,,,,,,,,,,,,,,,692,2022-02-03_13h52.50.452,multiplicationStroop,2021.2.3,Win32,60.52902367,,,,,,,,,,,,,,,,,,,,,,,,,,,,,,,,,72,2.5196,1,0,2,2,11,1,8,×,9,8 × 9,neutral,smallerFirst,1.5,1.5,72,,,,,,,,
,,,,,,,,,,,,,,,692,2022-02-03_13h52.50.452,multiplicationStroop,2021.2.3,Win32,60.52902367,,,,,,,,,,,,,,,,,,,,,,,,,,,,,,,,,45,2.3368,1,0,3,3,10,1,5,×,9,5 × 9,neutral,smallerFirst,1.5,1.5,45,,,,,,,,
,,,,,,,,,,,,,,,692,2022-02-03_13h52.50.452,multiplicationStroop,2021.2.3,Win32,60.52902367,,,,,,,,,,,,,,,,,,,,,,,,,,,,,,,,,15,1.9352,1,0,4,4,5,1,3,×,5,3 × 5,neutral,smallerFirst,1.5,1.5,15,,,,,,,,
,,,,,,,,,,,,,,,692,2022-02-03_13h52.50.452,multiplicationStroop,2021.2.3,Win32,60.52902367,,,,,,,,,,,,,,,,,,,,,,,,,,,,,,,,,8,1.6019,1,0,5,5,3,1,2,×,4,2 × 4,neutral,smallerFirst,1.5,1.5,8,,,,,,,,
,,,,,,,,,,,,,,,692,2022-02-03_13h52.50.452,multiplicationStroop,2021.2.3,Win32,60.52902367,,,,,,,,,,,,,,,,,,,,,,,,,,,,,,,,,48,2.553,1,0,6,6,15,1,8,×,6,8 × 6,neutral,largerFirst,1.5,1.5,48,,,,,,,,
,,,,,,,,,,,,,,,692,2022-02-03_13h52.50.452,multiplicationStroop,2021.2.3,Win32,60.52902367,,,,,,,,,,,,,,,,,,,,,,,,,,,,,,,,,14,1.7522,1,0,7,7,16,1,7,×,2,7 × 2,neutral,largerFirst,1.5,1.5,14,,,,,,,,
,,,,,,,,,,,,,,,692,2022-02-03_13h52.50.452,multiplicationStroop,2021.2.3,Win32,60.52902367,,,,,,,,,,,,,,,,,,,,,,,,,,,,,,,,,25,1.9192,1,0,8,8,31,1,5,×,5,5 × 5,neutral,tie,1.5,1.5,25,,,,,,,,
,,,,,,,,,,,,,,,692,2022-02-03_13h52.50.452,multiplicationStroop,2021.2.3,Win32,60.52902367,,,,,,,,,,,,,,,,,,,,,,,,,,,,,,,,,4,1.5179,1,0,9,9,28,1,2,×,2,2 × 2,neutral,tie,1.5,1.5,4,,,,,,,,
,,,,,,,,,,,,,,,692,2022-02-03_13h52.50.452,multiplicationStroop,2021.2.3,Win32,60.52902367,,,,,,,,,,,,,,,,,,,,,,,,,,,,,,,,,9,1.5179,1,0,10,10,29,1,3,×,3,3 × 3,neutral,tie,1.5,1.5,9,,,,,,,,
,,,,,,,,,,,,,,,692,2022-02-03_13h52.50.452,multiplicationStroop,2021.2.3,Win32,60.52902367,,,,,,,,,,,,,,,,,,,,,,,,,,,,,,,,,24,2.0526,1,0,11,11,2,1,4,×,6,4 × 6,neutral,smallerFirst,1.5,1.5,24,,,,,,,,
,,,,,,,,,,,,,,,692,2022-02-03_13h52.50.452,multiplicationStroop,2021.2.3,Win32,60.52902367,,,,,,,,,,,,,,,,,,,,,,,,,,,,,,,,,10,1.7355,1,0,12,12,4,1,2,×,5,2 × 5,neutral,smallerFirst,1.5,1.5,10,,,,,,,,
,,,,,,,,,,,,,,,692,2022-02-03_13h52.50.452,multiplicationStroop,2021.2.3,Win32,60.52902367,,,,,,,,,,,,,,,,,,,,,,,,,,,,,,,,,30,2.5195,1,0,13,13,19,1,6,×,5,6 × 5,neutral,largerFirst,1.5,1.5,30,,,,,,,,
,,,,,,,,,,,,,,,692,2022-02-03_13h52.50.452,multiplicationStroop,2021.2.3,Win32,60.52902367,,,,,,,,,,,,,,,,,,,,,,,,,,,,,,,,,21,1.6691,1,0,14,14,8,1,3,×,7,3 × 7,neutral,smallerFirst,1.5,1.5,21,,,,,,,,
,,,,,,,,,,,,,,,692,2022-02-03_13h52.50.452,multiplicationStroop,2021.2.3,Win32,60.52902367,,,,,,,,,,,,,,,,,,,,,,,,,,,,,,,,,56,1.9686,1,0,15,15,9,1,7,×,8,7 × 8,neutral,smallerFirst,1.5,1.5,56,,,,,,,,
,,,,,,,,,,,,,,,692,2022-02-03_13h52.50.452,multiplicationStroop,2021.2.3,Win32,60.52902367,,,,,,,,,,,,,,,,,,,,,,,,,,,,,,,,,16,2.3195,1,0,16,16,30,1,4,×,4,4 × 4,neutral,tie,1.5,1.5,16,,,,,,,,
,,,,,,,,,,,,,,,692,2022-02-03_13h52.50.452,multiplicationStroop,2021.2.3,Win32,60.52902367,,,,,,,,,,,,,,,,,,,,,,,,,,,,,,,,,42,1.9691,1,0,17,17,6,1,6,×,7,6 × 7,neutral,smallerFirst,1.5,1.5,42,,,,,,,,
,,,,,,,,,,,,,,,692,2022-02-03_13h52.50.452,multiplicationStroop,2021.2.3,Win32,60.52902367,,,,,,,,,,,,,,,,,,,,,,,,,,,,,,,,,63,2.4031,1,0,18,18,12,1,7,×,9,7 × 9,neutral,smallerFirst,1.5,1.5,63,,,,,,,,
,,,,,,,,,,,,,,,692,2022-02-03_13h52.50.452,multiplicationStroop,2021.2.3,Win32,60.52902367,,,,,,,,,,,,,,,,,,,,,,,,,,,,,,,,,36,4.0223,1,0,19,19,27,1,9,×,4,9 × 4,neutral,largerFirst,1.5,1.5,36,,,,,,,,
,,,,,,,,,,,,,,,692,2022-02-03_13h52.50.452,multiplicationStroop,2021.2.3,Win32,60.52902367,,,,,,,,,,,,,,,,,,,,,,,,,,,,,,,,,24,2.224,1,0,20,20,22,1,8,×,3,8 × 3,neutral,largerFirst,1.5,1.5,24,,,,,,,,
,,,,,,,,,,,,,,,692,2022-02-03_13h52.50.452,multiplicationStroop,2021.2.3,Win32,60.52902367,,,,,,,,,,,,,,,,,,,,,,,,,,,,,,,,,16,1.7524,1,0,21,21,13,1,2,×,8,2 × 8,neutral,smallerFirst,1.5,1.5,16,,,,,,,,
,,,,,,,,,,,,,,,692,2022-02-03_13h52.50.452,multiplicationStroop,2021.2.3,Win32,60.52902367,,,,,,,,,,,,,,,,,,,,,,,,,,,,,,,,,6,1.6849,1,0,22,22,26,1,3,×,2,3 × 2,neutral,largerFirst,1.5,1.5,6,,,,,,,,
,,,,,,,,,,,,,,,692,2022-02-03_13h52.50.452,multiplicationStroop,2021.2.3,Win32,60.52902367,,,,,,,,,,,,,,,,,,,,,,,,,,,,,,,,,18,1.9691,1,0,23,23,0,1,3,×,6,3 × 6,neutral,smallerFirst,1.5,1.5,18,,,,,,,,
,,,,,,,,,,,,,,,692,2022-02-03_13h52.50.452,multiplicationStroop,2021.2.3,Win32,60.52902367,,,,,,,,,,,,,,,,,,,,,,,,,,,,,,,,,36,2.2533,1,0,24,24,32,1,6,×,6,6 × 6,neutral,tie,1.5,1.5,36,,,,,,,,
,,,,,,,,,,,,,,,692,2022-02-03_13h52.50.452,multiplicationStroop,2021.2.3,Win32,60.52902367,,,,,,,,,,,,,,,,,,,,,,,,,,,,,,,,,64,2.1192,1,0,25,25,34,1,8,×,8,8 × 8,neutral,tie,1.5,1.5,64,,,,,,,,
,,,,,,,,,,,,,,,692,2022-02-03_13h52.50.452,multiplicationStroop,2021.2.3,Win32,60.52902367,,,,,,,,,,,,,,,,,,,,,,,,,,,,,,,,,40,2.4201,1,0,26,26,24,1,8,×,5,8 × 5,neutral,largerFirst,1.5,1.5,40,,,,,,,,
,,,,,,,,,,,,,,,692,2022-02-03_13h52.50.452,multiplicationStroop,2021.2.3,Win32,60.52902367,,,,,,,,,,,,,,,,,,,,,,,,,,,,,,,,,35,2.3028,1,0,27,27,1,1,5,×,7,5 × 7,neutral,smallerFirst,1.5,1.5,35,,,,,,,,
,,,,,,,,,,,,,,,692,2022-02-03_13h52.50.452,multiplicationStroop,2021.2.3,Win32,60.52902367,,,,,,,,,,,,,,,,,,,,,,,,,,,,,,,,,20,1.9355,1,0,28,28,20,1,5,×,4,5 × 4,neutral,largerFirst,1.5,1.5,20,,,,,,,,
,,,,,,,,,,,,,,,692,2022-02-03_13h52.50.452,multiplicationStroop,2021.2.3,Win32,60.52902367,,,,,,,,,,,,,,,,,,,,,,,,,,,,,,,,,32,2.2363,1,0,29,29,23,1,8,×,4,8 × 4,neutral,largerFirst,1.5,1.5,32,,,,,,,,
,,,,,,,,,,,,,,,692,2022-02-03_13h52.50.452,multiplicationStroop,2021.2.3,Win32,60.52902367,,,,,,,,,,,,,,,,,,,,,,,,,,,,,,,,,12,1.4513,1,0,30,30,25,1,6,×,2,6 × 2,neutral,largerFirst,1.5,1.5,12,,,,,,,,
,,,,,,,,,,,,,,,692,2022-02-03_13h52.50.452,multiplicationStroop,2021.2.3,Win32,60.52902367,,,,,,,,,,,,,,,,,,,,,,,,,,,,,,,,,81,2.9873,1,0,31,31,35,1,9,×,9,9 × 9,neutral,tie,1.5,1.5,81,,,,,,,,
,,,,,,,,,,,,,,,692,2022-02-03_13h52.50.452,multiplicationStroop,2021.2.3,Win32,60.52902367,,,,,,,,,,,,,,,,,,,,,,,,,,,,,,,,,49,1.9241,1,0,32,32,33,1,7,×,7,7 × 7,neutral,tie,1.5,1.5,49,,,,,,,,
,,,,,,,,,,,,,,,692,2022-02-03_13h52.50.452,multiplicationStroop,2021.2.3,Win32,60.52902367,,,,,,,,,,,,,,,,,,,,,,,,,,,,,,,,,54,1.8188,1,0,33,33,7,1,6,×,9,6 × 9,neutral,smallerFirst,1.5,1.5,54,,,,,,,,
,,,,,,,,,,,,,,,692,2022-02-03_13h52.50.452,multiplicationStroop,2021.2.3,Win32,60.52902367,,,,,,,,,,,,,,,,,,,,,,,,,,,,,,,,,28,2.5534,1,0,34,34,17,1,7,×,4,7 × 4,neutral,largerFirst,1.5,1.5,28,,,,,,,,
,,,,,,,,,,,,,,,692,2022-02-03_13h52.50.452,multiplicationStroop,2021.2.3,Win32,60.52902367,,,,,,,,,,,,,,,,,,,,,,,,,,,,,,,,,18,1.8524,1,0,35,35,18,1,9,×,2,9 × 2,neutral,largerFirst,1.5,1.5,18,,,,,,,,
,,,,,,,,,,,,,,,692,2022-02-03_13h52.50.452,multiplicationStroop,2021.2.3,Win32,60.52902367,,,,,,,,,,,,,,,,,,,,,,,,,,,,,,,,,,,,,,,,,,,,,,,,,,0,3,3,1,1,stimulusFile/mult_blk2.xlsx,,
,,,,,,,,,,,,,,,692,2022-02-03_13h52.50.452,multiplicationStroop,2021.2.3,Win32,60.52902367,,,,,,,,,,,,,,,,,,,,,,,,,,,,,,,space,1.9906,36,2.2214,1,0,0,0,13,1,4,×,9,4 × 9,neutral,smallerFirst,1.5,1.5,36,,,,,,,,
,,,,,,,,,,,,,,,692,2022-02-03_13h52.50.452,multiplicationStroop,2021.2.3,Win32,60.52902367,,,,,,,,,,,,,,,,,,,,,,,,,,,,,,,,,9,1.4849,1,0,1,1,29,1,3,×,3,3 × 3,neutral,tie,1.5,1.5,9,,,,,,,,
,,,,,,,,,,,,,,,692,2022-02-03_13h52.50.452,multiplicationStroop,2021.2.3,Win32,60.52902367,,,,,,,,,,,,,,,,,,,,,,,,,,,,,,,,,72,2.1024,1,0,2,2,25,1,9,×,8,9 × 8,neutral,largerFirst,1.5,1.5,72,,,,,,,,
,,,,,,,,,,,,,,,692,2022-02-03_13h52.50.452,multiplicationStroop,2021.2.3,Win32,60.52902367,,,,,,,,,,,,,,,,,,,,,,,,,,,,,,,,,25,1.669,1,0,3,3,31,1,5,×,5,5 × 5,neutral,tie,1.5,1.5,25,,,,,,,,
,,,,,,,,,,,,,,,692,2022-02-03_13h52.50.452,multiplicationStroop,2021.2.3,Win32,60.52902367,,,,,,,,,,,,,,,,,,,,,,,,,,,,,,,,,16,1.5682,1,0,4,4,27,1,8,×,2,8 × 2,neutral,largerFirst,1.5,1.5,16,,,,,,,,
,,,,,,,,,,,,,,,692,2022-02-03_13h52.50.452,multiplicationStroop,2021.2.3,Win32,60.52902367,,,,,,,,,,,,,,,,,,,,,,,,,,,,,,,,,16,2.0022,1,0,5,5,30,1,4,×,4,4 × 4,neutral,tie,1.5,1.5,16,,,,,,,,
,,,,,,,,,,,,,,,692,2022-02-03_13h52.50.452,multiplicationStroop,2021.2.3,Win32,60.52902367,,,,,,,,,,,,,,,,,,,,,,,,,,,,,,,,,32,1.7024,1,0,6,6,9,1,4,×,8,4 × 8,neutral,smallerFirst,1.5,1.5,32,,,,,,,,
,,,,,,,,,,,,,,,692,2022-02-03_13h52.50.452,multiplicationStroop,2021.2.3,Win32,60.52902367,,,,,,,,,,,,,,,,,,,,,,,,,,,,,,,,,12,2.3026,1,0,7,7,7,1,3,×,4,3 × 4,neutral,smallerFirst,1.5,1.5,12,,,,,,,,
,,,,,,,,,,,,,,,692,2022-02-03_13h52.50.452,multiplicationStroop,2021.2.3,Win32,60.52902367,,,,,,,,,,,,,,,,,,,,,,,,,,,,,,,,,21,1.6684,1,0,8,8,22,1,7,×,3,7 × 3,neutral,largerFirst,1.5,1.5,21,,,,,,,,
,,,,,,,,,,,,,,,692,2022-02-03_13h52.50.452,multiplicationStroop,2021.2.3,Win32,60.52902367,,,,,,,,,,,,,,,,,,,,,,,,,,,,,,,,,40,1.8521,1,0,9,9,10,1,5,×,8,5 × 8,neutral,smallerFirst,1.5,1.5,40,,,,,,,,
,,,,,,,,,,,,,,,692,2022-02-03_13h52.50.452,multiplicationStroop,2021.2.3,Win32,60.52902367,,,,,,,,,,,,,,,,,,,,,,,,,,,,,,,,,16,1.752,0,0,10,10,34,1,8,×,8,8 × 8,neutral,tie,1.5,1.5,64,,,,,,,,
,,,,,,,,,,,,,,,692,2022-02-03_13h52.50.452,multiplicationStroop,2021.2.3,Win32,60.52902367,,,,,,,,,,,,,,,,,,,,,,,,,,,,,,,,,28,2.1692,1,0,11,11,3,1,4,×,7,4 × 7,neutral,smallerFirst,1.5,1.5,28,,,,,,,,
,,,,,,,,,,,,,,,692,2022-02-03_13h52.50.452,multiplicationStroop,2021.2.3,Win32,60.52902367,,,,,,,,,,,,,,,,,,,,,,,,,,,,,,,,,48,2.5366,1,0,12,12,1,1,6,×,8,6 × 8,neutral,smallerFirst,1.5,1.5,48,,,,,,,,
,,,,,,,,,,,,,,,692,2022-02-03_13h52.50.452,multiplicationStroop,2021.2.3,Win32,60.52902367,,,,,,,,,,,,,,,,,,,,,,,,,,,,,,,,,15,1.6186,1,0,13,13,19,1,5,×,3,5 × 3,neutral,largerFirst,1.5,1.5,15,,,,,,,,
,,,,,,,,,,,,,,,692,2022-02-03_13h52.50.452,multiplicationStroop,2021.2.3,Win32,60.52902367,,,,,,,,,,,,,,,,,,,,,,,,,,,,,,,,,6,1.6184,1,0,14,14,12,1,2,×,3,2 × 3,neutral,smallerFirst,1.5,1.5,6,,,,,,,,
,,,,,,,,,,,,,,,692,2022-02-03_13h52.50.452,multiplicationStroop,2021.2.3,Win32,60.52902367,,,,,,,,,,,,,,,,,,,,,,,,,,,,,,,,,54,2.7702,1,0,15,15,21,1,9,×,6,9 × 6,neutral,largerFirst,1.5,1.5,54,,,,,,,,
,,,,,,,,,,,,,,,692,2022-02-03_13h52.50.452,multiplicationStroop,2021.2.3,Win32,60.52902367,,,,,,,,,,,,,,,,,,,,,,,,,,,,,,,,,20,3.7715,1,0,16,16,6,1,4,×,5,4 × 5,neutral,smallerFirst,1.5,1.5,20,,,,,,,,
,,,,,,,,,,,,,,,692,2022-02-03_13h52.50.452,multiplicationStroop,2021.2.3,Win32,60.52902367,,,,,,,,,,,,,,,,,,,,,,,,,,,,,,,,,35,1.7068,1,0,17,17,15,1,7,×,5,7 × 5,neutral,largerFirst,1.5,1.5,35,,,,,,,,
,,,,,,,,,,,,,,,692,2022-02-03_13h52.50.452,multiplicationStroop,2021.2.3,Win32,60.52902367,,,,,,,,,,,,,,,,,,,,,,,,,,,,,,,,,63,2.6197,1,0,18,18,26,1,9,×,7,9 × 7,neutral,largerFirst,1.5,1.5,63,,,,,,,,
,,,,,,,,,,,,,,,692,2022-02-03_13h52.50.452,multiplicationStroop,2021.2.3,Win32,60.52902367,,,,,,,,,,,,,,,,,,,,,,,,,,,,,,,,,30,1.8855,1,0,19,19,5,1,5,×,6,5 × 6,neutral,smallerFirst,1.5,1.5,30,,,,,,,,
,,,,,,,,,,,,,,,692,2022-02-03_13h52.50.452,multiplicationStroop,2021.2.3,Win32,60.52902367,,,,,,,,,,,,,,,,,,,,,,,,,,,,,,,,,36,2.0858,1,0,20,20,32,1,6,×,6,6 × 6,neutral,tie,1.5,1.5,36,,,,,,,,
,,,,,,,,,,,,,,,692,2022-02-03_13h52.50.452,multiplicationStroop,2021.2.3,Win32,60.52902367,,,,,,,,,,,,,,,,,,,,,,,,,,,,,,,,,14,1.6519,1,0,21,21,2,1,2,×,7,2 × 7,neutral,smallerFirst,1.5,1.5,14,,,,,,,,
,,,,,,,,,,,,,,,692,2022-02-03_13h52.50.452,multiplicationStroop,2021.2.3,Win32,60.52902367,,,,,,,,,,,,,,,,,,,,,,,,,,,,,,,,,18,1.9521,1,0,22,22,4,1,2,×,9,2 × 9,neutral,smallerFirst,1.5,1.5,18,,,,,,,,
,,,,,,,,,,,,,,,692,2022-02-03_13h52.50.452,multiplicationStroop,2021.2.3,Win32,60.52902367,,,,,,,,,,,,,,,,,,,,,,,,,,,,,,,,,49,1.9187,1,0,23,23,33,1,7,×,7,7 × 7,neutral,tie,1.5,1.5,49,,,,,,,,
,,,,,,,,,,,,,,,692,2022-02-03_13h52.50.452,multiplicationStroop,2021.2.3,Win32,60.52902367,,,,,,,,,,,,,,,,,,,,,,,,,,,,,,,,,24,3.4046,1,0,24,24,8,1,3,×,8,3 × 8,neutral,smallerFirst,1.5,1.5,24,,,,,,,,
,,,,,,,,,,,,,,,692,2022-02-03_13h52.50.452,multiplicationStroop,2021.2.3,Win32,60.52902367,,,,,,,,,,,,,,,,,,,,,,,,,,,,,,,,,10,1.6396,1,0,25,25,18,1,5,×,2,5 × 2,neutral,largerFirst,1.5,1.5,10,,,,,,,,
,,,,,,,,,,,,,,,692,2022-02-03_13h52.50.452,multiplicationStroop,2021.2.3,Win32,60.52902367,,,,,,,,,,,,,,,,,,,,,,,,,,,,,,,,,18,2.4029,1,0,26,26,14,1,6,×,3,6 × 3,neutral,largerFirst,1.5,1.5,18,,,,,,,,
,,,,,,,,,,,,,,,692,2022-02-03_13h52.50.452,multiplicationStroop,2021.2.3,Win32,60.52902367,,,,,,,,,,,,,,,,,,,,,,,,,,,,,,,,,42,2.0356,1,0,27,27,20,1,7,×,6,7 × 6,neutral,largerFirst,1.5,1.5,42,,,,,,,,
,,,,,,,,,,,,,,,692,2022-02-03_13h52.50.452,multiplicationStroop,2021.2.3,Win32,60.52902367,,,,,,,,,,,,,,,,,,,,,,,,,,,,,,,,,4,1.4017,1,0,28,28,28,1,2,×,2,2 × 2,neutral,tie,1.5,1.5,4,,,,,,,,
,,,,,,,,,,,,,,,692,2022-02-03_13h52.50.452,multiplicationStroop,2021.2.3,Win32,60.52902367,,,,,,,,,,,,,,,,,,,,,,,,,,,,,,,,,24,1.7853,1,0,29,29,16,1,6,×,4,6 × 4,neutral,largerFirst,1.5,1.5,24,,,,,,,,
,,,,,,,,,,,,,,,692,2022-02-03_13h52.50.452,multiplicationStroop,2021.2.3,Win32,60.52902367,,,,,,,,,,,,,,,,,,,,,,,,,,,,,,,,,56,2.0357,1,0,30,30,23,1,8,×,7,8 × 7,neutral,largerFirst,1.5,1.5,56,,,,,,,,
,,,,,,,,,,,,,,,692,2022-02-03_13h52.50.452,multiplicationStroop,2021.2.3,Win32,60.52902367,,,,,,,,,,,,,,,,,,,,,,,,,,,,,,,,,27,2.0695,1,0,31,31,0,1,3,×,9,3 × 9,neutral,smallerFirst,1.5,1.5,27,,,,,,,,
,,,,,,,,,,,,,,,692,2022-02-03_13h52.50.452,multiplicationStroop,2021.2.3,Win32,60.52902367,,,,,,,,,,,,,,,,,,,,,,,,,,,,,,,,,81,2.1188,1,0,32,32,35,1,9,×,9,9 × 9,neutral,tie,1.5,1.5,81,,,,,,,,
,,,,,,,,,,,,,,,692,2022-02-03_13h52.50.452,multiplicationStroop,2021.2.3,Win32,60.52902367,,,,,,,,,,,,,,,,,,,,,,,,,,,,,,,,,8,2.2073,1,0,33,33,17,1,4,×,2,4 × 2,neutral,largerFirst,1.5,1.5,8,,,,,,,,
,,,,,,,,,,,,,,,692,2022-02-03_13h52.50.452,multiplicationStroop,2021.2.3,Win32,60.52902367,,,,,,,,,,,,,,,,,,,,,,,,,,,,,,,,,45,1.8856,1,0,34,34,24,1,9,×,5,9 × 5,neutral,largerFirst,1.5,1.5,45,,,,,,,,
,,,,,,,,,,,,,,,692,2022-02-03_13h52.50.452,multiplicationStroop,2021.2.3,Win32,60.52902367,,,,,,,,,,,,,,,,,,,,,,,,,,,,,,,,,12,1.7519,1,0,35,35,11,1,2,×,6,2 × 6,neutral,smallerFirst,1.5,1.5,12,,,,,,,,
,,,,,,,,,,,,,,,692,2022-02-03_13h52.50.452,multiplicationStroop,2021.2.3,Win32,60.52902367,,,,,,,,,,,,,,,,,,,,,,,,,,,,,,,,,,,,,,,,,,,,,,,,,,0,4,4,0,1,stimulusFile/mult_blk1.xlsx,,
,,,,,,,,,,,,,,,692,2022-02-03_13h52.50.452,multiplicationStroop,2021.2.3,Win32,60.52902367,,,,,,,,,,,,,,,,,,,,,,,,,,,,,,,space,1.6672,42,2.1058,1,0,0,0,3,1,6,×,7,6 × 7,incongruent,smallerFirst,2,1,42,,,,,,,,
,,,,,,,,,,,,,,,692,2022-02-03_13h52.50.452,multiplicationStroop,2021.2.3,Win32,60.52902367,,,,,,,,,,,,,,,,,,,,,,,,,,,,,,,,,25,1.7186,1,0,1,1,31,1,5,×,5,5 × 5,neutral,tie,2,1,25,,,,,,,,
,,,,,,,,,,,,,,,692,2022-02-03_13h52.50.452,multiplicationStroop,2021.2.3,Win32,60.52902367,,,,,,,,,,,,,,,,,,,,,,,,,,,,,,,,,16,2.5198,1,0,2,2,9,1,2,×,8,2 × 8,incongruent,smallerFirst,2,1,16,,,,,,,,
,,,,,,,,,,,,,,,692,2022-02-03_13h52.50.452,multiplicationStroop,2021.2.3,Win32,60.52902367,,,,,,,,,,,,,,,,,,,,,,,,,,,,,,,,,9,1.5514,1,0,3,3,29,1,3,×,3,3 × 3,neutral,tie,2,1,9,,,,,,,,
,,,,,,,,,,,,,,,692,2022-02-03_13h52.50.452,multiplicationStroop,2021.2.3,Win32,60.52902367,,,,,,,,,,,,,,,,,,,,,,,,,,,,,,,,,27,2.0191,1,0,4,4,4,1,3,×,9,3 × 9,incongruent,smallerFirst,2,1,27,,,,,,,,
,,,,,,,,,,,,,,,692,2022-02-03_13h52.50.452,multiplicationStroop,2021.2.3,Win32,60.52902367,,,,,,,,,,,,,,,,,,,,,,,,,,,,,,,,,56,2.4362,1,0,5,5,0,1,7,×,8,7 × 8,incongruent,smallerFirst,2,1,56,,,,,,,,
,,,,,,,,,,,,,,,692,2022-02-03_13h52.50.452,multiplicationStroop,2021.2.3,Win32,60.52902367,,,,,,,,,,,,,,,,,,,,,,,,,,,,,,,,,64,1.9856,1,0,6,6,34,1,8,×,8,8 × 8,neutral,tie,2,1,64,,,,,,,,
,,,,,,,,,,,,,,,692,2022-02-03_13h52.50.452,multiplicationStroop,2021.2.3,Win32,60.52902367,,,,,,,,,,,,,,,,,,,,,,,,,,,,,,,,,32,1.6852,1,0,7,7,21,1,8,×,4,8 × 4,incongruent,largerFirst,1,2,32,,,,,,,,
,,,,,,,,,,,,,,,692,2022-02-03_13h52.50.452,multiplicationStroop,2021.2.3,Win32,60.52902367,,,,,,,,,,,,,,,,,,,,,,,,,,,,,,,,,12,1.6017,1,0,8,8,5,1,2,×,6,2 × 6,incongruent,smallerFirst,2,1,12,,,,,,,,
,,,,,,,,,,,,,,,692,2022-02-03_13h52.50.452,multiplicationStroop,2021.2.3,Win32,60.52902367,,,,,,,,,,,,,,,,,,,,,,,,,,,,,,,,,20,1.802,1,0,9,9,13,1,4,×,5,4 × 5,incongruent,smallerFirst,2,1,20,,,,,,,,
,,,,,,,,,,,,,,,692,2022-02-03_13h52.50.452,multiplicationStroop,2021.2.3,Win32,60.52902367,,,,,,,,,,,,,,,,,,,,,,,,,,,,,,,,,4,1.3846,1,0,10,10,28,1,2,×,2,2 × 2,neutral,tie,2,1,4,,,,,,,,
,,,,,,,,,,,,,,,692,2022-02-03_13h52.50.452,multiplicationStroop,2021.2.3,Win32,60.52902367,,,,,,,,,,,,,,,,,,,,,,,,,,,,,,,,,48,2.1191,1,0,11,11,15,1,8,×,6,8 × 6,incongruent,largerFirst,1,2,48,,,,,,,,
,,,,,,,,,,,,,,,692,2022-02-03_13h52.50.452,multiplicationStroop,2021.2.3,Win32,60.52902367,,,,,,,,,,,,,,,,,,,,,,,,,,,,,,,,,40,2.0024,1,0,12,12,27,1,8,×,5,8 × 5,incongruent,largerFirst,1,2,40,,,,,,,,
,,,,,,,,,,,,,,,692,2022-02-03_13h52.50.452,multiplicationStroop,2021.2.3,Win32,60.52902367,,,,,,,,,,,,,,,,,,,,,,,,,,,,,,,,,6,1.8352,1,0,13,13,25,1,3,×,2,3 × 2,incongruent,largerFirst,1,2,6,,,,,,,,
,,,,,,,,,,,,,,,692,2022-02-03_13h52.50.452,multiplicationStroop,2021.2.3,Win32,60.52902367,,,,,,,,,,,,,,,,,,,,,,,,,,,,,,,,,15,2.0358,1,0,14,14,24,1,5,×,3,5 × 3,incongruent,largerFirst,1,2,15,,,,,,,,
,,,,,,,,,,,,,,,692,2022-02-03_13h52.50.452,multiplicationStroop,2021.2.3,Win32,60.52902367,,,,,,,,,,,,,,,,,,,,,,,,,,,,,,,,,8,1.7685,1,0,15,15,10,1,2,×,4,2 × 4,incongruent,smallerFirst,2,1,8,,,,,,,,
,,,,,,,,,,,,,,,692,2022-02-03_13h52.50.452,multiplicationStroop,2021.2.3,Win32,60.52902367,,,,,,,,,,,,,,,,,,,,,,,,,,,,,,,,,18,1.969,1,0,16,16,16,1,9,×,2,9 × 2,incongruent,largerFirst,1,2,18,,,,,,,,
,,,,,,,,,,,,,,,692,2022-02-03_13h52.50.452,multiplicationStroop,2021.2.3,Win32,60.52902367,,,,,,,,,,,,,,,,,,,,,,,,,,,,,,,,,28,2.3696,1,0,17,17,2,1,4,×,7,4 × 7,incongruent,smallerFirst,2,1,28,,,,,,,,
,,,,,,,,,,,,,,,692,2022-02-03_13h52.50.452,multiplicationStroop,2021.2.3,Win32,60.52902367,,,,,,,,,,,,,,,,,,,,,,,,,,,,,,,,,18,2.8201,1,0,18,18,22,1,6,×,3,6 × 3,incongruent,largerFirst,1,2,18,,,,,,,,
,,,,,,,,,,,,,,,692,2022-02-03_13h52.50.452,multiplicationStroop,2021.2.3,Win32,60.52902367,,,,,,,,,,,,,,,,,,,,,,,,,,,,,,,,,14,1.9523,1,0,19,19,18,1,7,×,2,7 × 2,incongruent,largerFirst,1,2,14,,,,,,,,
,,,,,,,,,,,,,,,692,2022-02-03_13h52.50.452,multiplicationStroop,2021.2.3,Win32,60.52902367,,,,,,,,,,,,,,,,,,,,,,,,,,,,,,,,,49,1.9356,1,0,20,20,33,1,7,×,7,7 × 7,neutral,tie,2,1,49,,,,,,,,
,,,,,,,,,,,,,,,692,2022-02-03_13h52.50.452,multiplicationStroop,2021.2.3,Win32,60.52902367,,,,,,,,,,,,,,,,,,,,,,,,,,,,,,,,,36,1.8856,1,0,21,21,32,1,6,×,6,6 × 6,neutral,tie,2,1,36,,,,,,,,
,,,,,,,,,,,,,,,692,2022-02-03_13h52.50.452,multiplicationStroop,2021.2.3,Win32,60.52902367,,,,,,,,,,,,,,,,,,,,,,,,,,,,,,,,,16,2.0189,1,0,22,22,30,1,4,×,4,4 × 4,neutral,tie,2,1,16,,,,,,,,
,,,,,,,,,,,,,,,692,2022-02-03_13h52.50.452,multiplicationStroop,2021.2.3,Win32,60.52902367,,,,,,,,,,,,,,,,,,,,,,,,,,,,,,,,,12,1.5686,1,0,23,23,19,1,4,×,3,4 × 3,incongruent,largerFirst,1,2,12,,,,,,,,
,,,,,,,,,,,,,,,692,2022-02-03_13h52.50.452,multiplicationStroop,2021.2.3,Win32,60.52902367,,,,,,,,,,,,,,,,,,,,,,,,,,,,,,,,,30,2.6032,1,0,24,24,11,1,5,×,6,5 × 6,incongruent,smallerFirst,2,1,30,,,,,,,,
,,,,,,,,,,,,,,,692,2022-02-03_13h52.50.452,multiplicationStroop,2021.2.3,Win32,60.52902367,,,,,,,,,,,,,,,,,,,,,,,,,,,,,,,,,10,1.7851,1,0,25,25,7,1,2,×,5,2 × 5,incongruent,smallerFirst,2,1,10,,,,,,,,
,,,,,,,,,,,,,,,692,2022-02-03_13h52.50.452,multiplicationStroop,2021.2.3,Win32,60.52902367,,,,,,,,,,,,,,,,,,,,,,,,,,,,,,,,,63,2.4031,1,0,26,26,17,1,9,×,7,9 × 7,incongruent,largerFirst,1,2,63,,,,,,,,
,,,,,,,,,,,,,,,692,2022-02-03_13h52.50.452,multiplicationStroop,2021.2.3,Win32,60.52902367,,,,,,,,,,,,,,,,,,,,,,,,,,,,,,,,,72,2.6534,1,0,27,27,14,1,9,×,8,9 × 8,incongruent,largerFirst,1,2,72,,,,,,,,
,,,,,,,,,,,,,,,692,2022-02-03_13h52.50.452,multiplicationStroop,2021.2.3,Win32,60.52902367,,,,,,,,,,,,,,,,,,,,,,,,,,,,,,,,,45,1.8067,1,0,28,28,8,1,5,×,9,5 × 9,incongruent,smallerFirst,2,1,45,,,,,,,,
,,,,,,,,,,,,,,,692,2022-02-03_13h52.50.452,multiplicationStroop,2021.2.3,Win32,60.52902367,,,,,,,,,,,,,,,,,,,,,,,,,,,,,,,,,21,1.6518,1,0,29,29,12,1,3,×,7,3 × 7,incongruent,smallerFirst,2,1,21,,,,,,,,
,,,,,,,,,,,,,,,692,2022-02-03_13h52.50.452,multiplicationStroop,2021.2.3,Win32,60.52902367,,,,,,,,,,,,,,,,,,,,,,,,,,,,,,,,,24,1.8688,1,0,30,30,6,1,4,×,6,4 × 6,incongruent,smallerFirst,2,1,24,,,,,,,,
,,,,,,,,,,,,,,,692,2022-02-03_13h52.50.452,multiplicationStroop,2021.2.3,Win32,60.52902367,,,,,,,,,,,,,,,,,,,,,,,,,,,,,,,,,35,1.6351,1,0,31,31,26,1,7,×,5,7 × 5,incongruent,largerFirst,1,2,35,,,,,,,,
,,,,,,,,,,,,,,,692,2022-02-03_13h52.50.452,multiplicationStroop,2021.2.3,Win32,60.52902367,,,,,,,,,,,,,,,,,,,,,,,,,,,,,,,,,54,2.2527,1,0,32,32,20,1,9,×,6,9 × 6,incongruent,largerFirst,1,2,54,,,,,,,,
,,,,,,,,,,,,,,,692,2022-02-03_13h52.50.452,multiplicationStroop,2021.2.3,Win32,60.52902367,,,,,,,,,,,,,,,,,,,,,,,,,,,,,,,,,81,2.1358,1,0,33,33,35,1,9,×,9,9 × 9,neutral,tie,2,1,81,,,,,,,,
,,,,,,,,,,,,,,,692,2022-02-03_13h52.50.452,multiplicationStroop,2021.2.3,Win32,60.52902367,,,,,,,,,,,,,,,,,,,,,,,,,,,,,,,,,36,2.303,1,0,34,34,1,1,4,×,9,4 × 9,incongruent,smallerFirst,2,1,36,,,,,,,,
,,,,,,,,,,,,,,,692,2022-02-03_13h52.50.452,multiplicationStroop,2021.2.3,Win32,60.52902367,,,,,,,,,,,,,,,,,,,,,,,,,,,,,,,,,24,2.0355,1,0,35,35,23,1,8,×,3,8 × 3,incongruent,largerFirst,1,2,24,,,,,,,,
,,,,,,,,,,,,,,,692,2022-02-03_13h52.50.452,multiplicationStroop,2021.2.3,Win32,60.52902367,,,,,,,,,,,,,,,,,,,,,,,,,,,,,,,,,,,,,,,,,,,,,,,,,,0,5,5,4,1,stimulusFile/mult_blk5_INcongruent.xlsx,,
,,,,,,,,,,,,,,,692,2022-02-03_13h52.50.452,multiplicationStroop,2021.2.3,Win32,60.52902367,,,,,,,,,,,,,,,,,,,,,,,,,,,,,,,,,,,,,,,,,,,,,,,,,,,,,,,,space,6.135