welcomeKey_resp.keys,welcomeKey_resp.rt,X Scale,Y Scale,rt_resp_4.keys,rt_resp_4.corr,rt_resp_4.rt,speedtest_2.thisRepN,speedtest_2.thisTrialN,speedtest_2.thisN,speedtest_2.thisIndex,speedtest_2.ran,numberSc,posX,positionLayout,participant,date,expName,psychopyVersion,OS,frameRate,ct_instrresp.keys,ct_instrresp.rt,key_resp_2.keys,key_resp_2.rt,ct_keyResp.keys,ct_keyResp.corr,ct_keyResp.rt,trials.thisRepN,trials.thisTrialN,trials.thisN,trials.thisIndex,trials.ran,leftNo,rightNo,displayProblem,numDistance,leftNo_size,rightNo_size,Dims,keyAnswer,TS_Loop.thisRepN,TS_Loop.thisTrialN,TS_Loop.thisN,TS_Loop.thisIndex,TS_Loop.ran,Condition,ActionInst,instrImage,mltptaskInst_resp.keys,mltptaskInst_resp.rt,continue_resp_2.keys,continue_resp_2.rt,multp_Answer,multi_RT,multiplyCorr,LoopingMultiply.thisRepN,LoopingMultiply.thisTrialN,LoopingMultiply.thisN,LoopingMultiply.thisIndex,LoopingMultiply.ran,factor1,multiplySign,factor2,multliplyProblem,physicalSize,orderOperand,sizeF1,sizeF2,mult_answer,trials_stroop.thisRepN,trials_stroop.thisTrialN,trials_stroop.thisN,trials_stroop.thisIndex,trials_stroop.ran,multiplicationFile,esckey_resp_2.keys,esckey_resp_2.rt
y,11.4018,44.9,44.8,left,1,0.4784,0,0,0,6,1,8,-200,left,694,2022-02-01_10h03.51.425,multiplicationStroop,2021.2.3,Win32,59.95922773,,,,,,,,,,,,,,,,,,,,,,,,,,,,,,,,,,,,,,,,,,,,,,,,,,,,,,,,,
,,,,right,1,0.3704,0,1,1,15,1,9,200,right,694,2022-02-01_10h03.51.425,multiplicationStroop,2021.2.3,Win32,59.95922773,,,,,,,,,,,,,,,,,,,,,,,,,,,,,,,,,,,,,,,,,,,,,,,,,,,,,,,,,
,,,,right,1,0.4512,0,2,2,8,1,1,200,right,694,2022-02-01_10h03.51.425,multiplicationStroop,2021.2.3,Win32,59.95922773,,,,,,,,,,,,,,,,,,,,,,,,,,,,,,,,,,,,,,,,,,,,,,,,,,,,,,,,,
,,,,right,1,0.3507,0,3,3,11,1,4,200,right,694,2022-02-01_10h03.51.425,multiplicationStroop,2021.2.3,Win32,59.95922773,,,,,,,,,,,,,,,,,,,,,,,,,,,,,,,,,,,,,,,,,,,,,,,,,,,,,,,,,
,,,,right,1,0.3215,0,4,4,9,1,2,200,right,694,2022-02-01_10h03.51.425,multiplicationStroop,2021.2.3,Win32,59.95922773,,,,,,,,,,,,,,,,,,,,,,,,,,,,,,,,,,,,,,,,,,,,,,,,,,,,,,,,,
,,,,left,1,0.3003,0,5,5,2,1,3,-200,left,694,2022-02-01_10h03.51.425,multiplicationStroop,2021.2.3,Win32,59.95922773,,,,,,,,,,,,,,,,,,,,,,,,,,,,,,,,,,,,,,,,,,,,,,,,,,,,,,,,,
,,,,right,1,0.3011,0,6,6,10,1,3,200,right,694,2022-02-01_10h03.51.425,multiplicationStroop,2021.2.3,Win32,59.95922773,,,,,,,,,,,,,,,,,,,,,,,,,,,,,,,,,,,,,,,,,,,,,,,,,,,,,,,,,
,,,,left,1,0.2506,0,7,7,0,1,1,-200,left,694,2022-02-01_10h03.51.425,multiplicationStroop,2021.2.3,Win32,59.95922773,,,,,,,,,,,,,,,,,,,,,,,,,,,,,,,,,,,,,,,,,,,,,,,,,,,,,,,,,
,,,,left,1,0.3704,0,8,8,3,1,4,-200,left,694,2022-02-01_10h03.51.425,multiplicationStroop,2021.2.3,Win32,59.95922773,,,,,,,,,,,,,,,,,,,,,,,,,,,,,,,,,,,,,,,,,,,,,,,,,,,,,,,,,
,,,,left,1,0.284,0,9,9,1,1,2,-200,left,694,2022-02-01_10h03.51.425,multiplicationStroop,2021.2.3,Win32,59.95922773,,,,,,,,,,,,,,,,,,,,,,,,,,,,,,,,,,,,,,,,,,,,,,,,,,,,,,,,,
,,,,left,1,0.3186,0,10,10,4,1,6,-200,left,694,2022-02-01_10h03.51.425,multiplicationStroop,2021.2.3,Win32,59.95922773,,,,,,,,,,,,,,,,,,,,,,,,,,,,,,,,,,,,,,,,,,,,,,,,,,,,,,,,,
,,,,left,1,0.3008,0,11,11,7,1,9,-200,left,694,2022-02-01_10h03.51.425,multiplicationStroop,2021.2.3,Win32,59.95922773,,,,,,,,,,,,,,,,,,,,,,,,,,,,,,,,,,,,,,,,,,,,,,,,,,,,,,,,,
,,,,right,1,0.284,0,12,12,14,1,8,200,right,694,2022-02-01_10h03.51.425,multiplicationStroop,2021.2.3,Win32,59.95922773,,,,,,,,,,,,,,,,,,,,,,,,,,,,,,,,,,,,,,,,,,,,,,,,,,,,,,,,,
,,,,right,1,0.3167,0,13,13,12,1,6,200,right,694,2022-02-01_10h03.51.425,multiplicationStroop,2021.2.3,Win32,59.95922773,,,,,,,,,,,,,,,,,,,,,,,,,,,,,,,,,,,,,,,,,,,,,,,,,,,,,,,,,
,,,,right,1,0.2501,0,14,14,13,1,7,200,right,694,2022-02-01_10h03.51.425,multiplicationStroop,2021.2.3,Win32,59.95922773,,,,,,,,,,,,,,,,,,,,,,,,,,,,,,,,,,,,,,,,,,,,,,,,,,,,,,,,,
,,,,left,1,0.3211,0,15,15,5,1,7,-200,left,694,2022-02-01_10h03.51.425,multiplicationStroop,2021.2.3,Win32,59.95922773,,,,,,,,,,,,,,,,,,,,,,,,,,,,,,,,,,,,,,,,,,,,,,,,,,,,,,,,,
,,,,right,1,0.3039,1,0,16,14,1,8,200,right,694,2022-02-01_10h03.51.425,multiplicationStroop,2021.2.3,Win32,59.95922773,,,,,,,,,,,,,,,,,,,,,,,,,,,,,,,,,,,,,,,,,,,,,,,,,,,,,,,,,
,,,,left,1,0.2509,1,1,17,7,1,9,-200,left,694,2022-02-01_10h03.51.425,multiplicationStroop,2021.2.3,Win32,59.95922773,,,,,,,,,,,,,,,,,,,,,,,,,,,,,,,,,,,,,,,,,,,,,,,,,,,,,,,,,
,,,,left,1,0.4177,1,2,18,5,1,7,-200,left,694,2022-02-01_10h03.51.425,multiplicationStroop,2021.2.3,Win32,59.95922773,,,,,,,,,,,,,,,,,,,,,,,,,,,,,,,,,,,,,,,,,,,,,,,,,,,,,,,,,
,,,,left,1,0.2838,1,3,19,1,1,2,-200,left,694,2022-02-01_10h03.51.425,multiplicationStroop,2021.2.3,Win32,59.95922773,,,,,,,,,,,,,,,,,,,,,,,,,,,,,,,,,,,,,,,,,,,,,,,,,,,,,,,,,
,,,,right,1,0.3172,1,4,20,11,1,4,200,right,694,2022-02-01_10h03.51.425,multiplicationStroop,2021.2.3,Win32,59.95922773,,,,,,,,,,,,,,,,,,,,,,,,,,,,,,,,,,,,,,,,,,,,,,,,,,,,,,,,,
,,,,right,1,0.2854,1,5,21,12,1,6,200,right,694,2022-02-01_10h03.51.425,multiplicationStroop,2021.2.3,Win32,59.95922773,,,,,,,,,,,,,,,,,,,,,,,,,,,,,,,,,,,,,,,,,,,,,,,,,,,,,,,,,
,,,,right,1,0.2749,1,6,22,9,1,2,200,right,694,2022-02-01_10h03.51.425,multiplicationStroop,2021.2.3,Win32,59.95922773,,,,,,,,,,,,,,,,,,,,,,,,,,,,,,,,,,,,,,,,,,,,,,,,,,,,,,,,,
,,,,left,1,0.284,1,7,23,2,1,3,-200,left,694,2022-02-01_10h03.51.425,multiplicationStroop,2021.2.3,Win32,59.95922773,,,,,,,,,,,,,,,,,,,,,,,,,,,,,,,,,,,,,,,,,,,,,,,,,,,,,,,,,
,,,,right,1,0.3173,1,8,24,15,1,9,200,right,694,2022-02-01_10h03.51.425,multiplicationStroop,2021.2.3,Win32,59.95922773,,,,,,,,,,,,,,,,,,,,,,,,,,,,,,,,,,,,,,,,,,,,,,,,,,,,,,,,,
,,,,left,0,0.2694,1,9,25,10,1,3,200,right,694,2022-02-01_10h03.51.425,multiplicationStroop,2021.2.3,Win32,59.95922773,,,,,,,,,,,,,,,,,,,,,,,,,,,,,,,,,,,,,,,,,,,,,,,,,,,,,,,,,
,,,,left,1,0.5506,1,10,26,0,1,1,-200,left,694,2022-02-01_10h03.51.425,multiplicationStroop,2021.2.3,Win32,59.95922773,,,,,,,,,,,,,,,,,,,,,,,,,,,,,,,,,,,,,,,,,,,,,,,,,,,,,,,,,
,,,,right,1,0.4084,1,11,27,8,1,1,200,right,694,2022-02-01_10h03.51.425,multiplicationStroop,2021.2.3,Win32,59.95922773,,,,,,,,,,,,,,,,,,,,,,,,,,,,,,,,,,,,,,,,,,,,,,,,,,,,,,,,,
,,,,right,1,0.351,1,12,28,13,1,7,200,right,694,2022-02-01_10h03.51.425,multiplicationStroop,2021.2.3,Win32,59.95922773,,,,,,,,,,,,,,,,,,,,,,,,,,,,,,,,,,,,,,,,,,,,,,,,,,,,,,,,,
,,,,left,1,0.3361,1,13,29,4,1,6,-200,left,694,2022-02-01_10h03.51.425,multiplicationStroop,2021.2.3,Win32,59.95922773,,,,,,,,,,,,,,,,,,,,,,,,,,,,,,,,,,,,,,,,,,,,,,,,,,,,,,,,,
,,,,left,1,0.3195,1,14,30,3,1,4,-200,left,694,2022-02-01_10h03.51.425,multiplicationStroop,2021.2.3,Win32,59.95922773,,,,,,,,,,,,,,,,,,,,,,,,,,,,,,,,,,,,,,,,,,,,,,,,,,,,,,,,,
,,,,left,1,0.2885,1,15,31,6,1,8,-200,left,694,2022-02-01_10h03.51.425,multiplicationStroop,2021.2.3,Win32,59.95922773,,,,,,,,,,,,,,,,,,,,,,,,,,,,,,,,,,,,,,,,,,,,,,,,,,,,,,,,,
,,,,left,1,0.2937,2,0,32,7,1,9,-200,left,694,2022-02-01_10h03.51.425,multiplicationStroop,2021.2.3,Win32,59.95922773,,,,,,,,,,,,,,,,,,,,,,,,,,,,,,,,,,,,,,,,,,,,,,,,,,,,,,,,,
,,,,left,1,0.2838,2,1,33,0,1,1,-200,left,694,2022-02-01_10h03.51.425,multiplicationStroop,2021.2.3,Win32,59.95922773,,,,,,,,,,,,,,,,,,,,,,,,,,,,,,,,,,,,,,,,,,,,,,,,,,,,,,,,,
,,,,right,1,0.2929,2,2,34,10,1,3,200,right,694,2022-02-01_10h03.51.425,multiplicationStroop,2021.2.3,Win32,59.95922773,,,,,,,,,,,,,,,,,,,,,,,,,,,,,,,,,,,,,,,,,,,,,,,,,,,,,,,,,
,,,,right,1,0.3172,2,3,35,11,1,4,200,right,694,2022-02-01_10h03.51.425,multiplicationStroop,2021.2.3,Win32,59.95922773,,,,,,,,,,,,,,,,,,,,,,,,,,,,,,,,,,,,,,,,,,,,,,,,,,,,,,,,,
,,,,left,1,0.3192,2,4,36,4,1,6,-200,left,694,2022-02-01_10h03.51.425,multiplicationStroop,2021.2.3,Win32,59.95922773,,,,,,,,,,,,,,,,,,,,,,,,,,,,,,,,,,,,,,,,,,,,,,,,,,,,,,,,,
,,,,right,1,0.3509,2,5,37,8,1,1,200,right,694,2022-02-01_10h03.51.425,multiplicationStroop,2021.2.3,Win32,59.95922773,,,,,,,,,,,,,,,,,,,,,,,,,,,,,,,,,,,,,,,,,,,,,,,,,,,,,,,,,
,,,,right,1,0.3714,2,6,38,13,1,7,200,right,694,2022-02-01_10h03.51.425,multiplicationStroop,2021.2.3,Win32,59.95922773,,,,,,,,,,,,,,,,,,,,,,,,,,,,,,,,,,,,,,,,,,,,,,,,,,,,,,,,,
,,,,left,1,0.3842,2,7,39,1,1,2,-200,left,694,2022-02-01_10h03.51.425,multiplicationStroop,2021.2.3,Win32,59.95922773,,,,,,,,,,,,,,,,,,,,,,,,,,,,,,,,,,,,,,,,,,,,,,,,,,,,,,,,,
,,,,right,1,0.337,2,8,40,14,1,8,200,right,694,2022-02-01_10h03.51.425,multiplicationStroop,2021.2.3,Win32,59.95922773,,,,,,,,,,,,,,,,,,,,,,,,,,,,,,,,,,,,,,,,,,,,,,,,,,,,,,,,,
,,,,right,1,0.3176,2,9,41,15,1,9,200,right,694,2022-02-01_10h03.51.425,multiplicationStroop,2021.2.3,Win32,59.95922773,,,,,,,,,,,,,,,,,,,,,,,,,,,,,,,,,,,,,,,,,,,,,,,,,,,,,,,,,
,,,,left,1,0.3372,2,10,42,3,1,4,-200,left,694,2022-02-01_10h03.51.425,multiplicationStroop,2021.2.3,Win32,59.95922773,,,,,,,,,,,,,,,,,,,,,,,,,,,,,,,,,,,,,,,,,,,,,,,,,,,,,,,,,
,,,,left,1,0.3176,2,11,43,2,1,3,-200,left,694,2022-02-01_10h03.51.425,multiplicationStroop,2021.2.3,Win32,59.95922773,,,,,,,,,,,,,,,,,,,,,,,,,,,,,,,,,,,,,,,,,,,,,,,,,,,,,,,,,
,,,,right,1,0.3543,2,12,44,9,1,2,200,right,694,2022-02-01_10h03.51.425,multiplicationStroop,2021.2.3,Win32,59.95922773,,,,,,,,,,,,,,,,,,,,,,,,,,,,,,,,,,,,,,,,,,,,,,,,,,,,,,,,,
,,,,left,1,0.5895,2,13,45,5,1,7,-200,left,694,2022-02-01_10h03.51.425,multiplicationStroop,2021.2.3,Win32,59.95922773,,,,,,,,,,,,,,,,,,,,,,,,,,,,,,,,,,,,,,,,,,,,,,,,,,,,,,,,,
,,,,right,1,0.3007,2,14,46,12,1,6,200,right,694,2022-02-01_10h03.51.425,multiplicationStroop,2021.2.3,Win32,59.95922773,,,,,,,,,,,,,,,,,,,,,,,,,,,,,,,,,,,,,,,,,,,,,,,,,,,,,,,,,
,,,,left,1,0.3218,2,15,47,6,1,8,-200,left,694,2022-02-01_10h03.51.425,multiplicationStroop,2021.2.3,Win32,59.95922773,,,,,,,,,,,,,,,,,,,,,,,,,,,,,,,,,,,,,,,,,,,,,,,,,,,,,,,,,
,,,,right,1,0.3171,3,0,48,13,1,7,200,right,694,2022-02-01_10h03.51.425,multiplicationStroop,2021.2.3,Win32,59.95922773,,,,,,,,,,,,,,,,,,,,,,,,,,,,,,,,,,,,,,,,,,,,,,,,,,,,,,,,,
,,,,right,1,0.3767,3,1,49,9,1,2,200,right,694,2022-02-01_10h03.51.425,multiplicationStroop,2021.2.3,Win32,59.95922773,,,,,,,,,,,,,,,,,,,,,,,,,,,,,,,,,,,,,,,,,,,,,,,,,,,,,,,,,
,,,,right,1,0.3565,3,2,50,8,1,1,200,right,694,2022-02-01_10h03.51.425,multiplicationStroop,2021.2.3,Win32,59.95922773,,,,,,,,,,,,,,,,,,,,,,,,,,,,,,,,,,,,,,,,,,,,,,,,,,,,,,,,,
,,,,left,1,0.3511,3,3,51,3,1,4,-200,left,694,2022-02-01_10h03.51.425,multiplicationStroop,2021.2.3,Win32,59.95922773,,,,,,,,,,,,,,,,,,,,,,,,,,,,,,,,,,,,,,,,,,,,,,,,,,,,,,,,,
,,,,right,1,0.3402,3,4,52,11,1,4,200,right,694,2022-02-01_10h03.51.425,multiplicationStroop,2021.2.3,Win32,59.95922773,,,,,,,,,,,,,,,,,,,,,,,,,,,,,,,,,,,,,,,,,,,,,,,,,,,,,,,,,
,,,,left,1,0.2763,3,5,53,0,1,1,-200,left,694,2022-02-01_10h03.51.425,multiplicationStroop,2021.2.3,Win32,59.95922773,,,,,,,,,,,,,,,,,,,,,,,,,,,,,,,,,,,,,,,,,,,,,,,,,,,,,,,,,
,,,,right,1,0.2839,3,6,54,15,1,9,200,right,694,2022-02-01_10h03.51.425,multiplicationStroop,2021.2.3,Win32,59.95922773,,,,,,,,,,,,,,,,,,,,,,,,,,,,,,,,,,,,,,,,,,,,,,,,,,,,,,,,,
,,,,left,1,0.3069,3,7,55,7,1,9,-200,left,694,2022-02-01_10h03.51.425,multiplicationStroop,2021.2.3,Win32,59.95922773,,,,,,,,,,,,,,,,,,,,,,,,,,,,,,,,,,,,,,,,,,,,,,,,,,,,,,,,,
,,,,right,0,0.2401,3,8,56,5,1,7,-200,left,694,2022-02-01_10h03.51.425,multiplicationStroop,2021.2.3,Win32,59.95922773,,,,,,,,,,,,,,,,,,,,,,,,,,,,,,,,,,,,,,,,,,,,,,,,,,,,,,,,,
,,,,left,1,0.4904,3,9,57,6,1,8,-200,left,694,2022-02-01_10h03.51.425,multiplicationStroop,2021.2.3,Win32,59.95922773,,,,,,,,,,,,,,,,,,,,,,,,,,,,,,,,,,,,,,,,,,,,,,,,,,,,,,,,,
,,,,right,1,0.4691,3,10,58,12,1,6,200,right,694,2022-02-01_10h03.51.425,multiplicationStroop,2021.2.3,Win32,59.95922773,,,,,,,,,,,,,,,,,,,,,,,,,,,,,,,,,,,,,,,,,,,,,,,,,,,,,,,,,
,,,,left,1,0.3862,3,11,59,1,1,2,-200,left,694,2022-02-01_10h03.51.425,multiplicationStroop,2021.2.3,Win32,59.95922773,,,,,,,,,,,,,,,,,,,,,,,,,,,,,,,,,,,,,,,,,,,,,,,,,,,,,,,,,
,,,,left,1,0.3174,3,12,60,2,1,3,-200,left,694,2022-02-01_10h03.51.425,multiplicationStroop,2021.2.3,Win32,59.95922773,,,,,,,,,,,,,,,,,,,,,,,,,,,,,,,,,,,,,,,,,,,,,,,,,,,,,,,,,
,,,,right,1,0.4348,3,13,61,10,1,3,200,right,694,2022-02-01_10h03.51.425,multiplicationStroop,2021.2.3,Win32,59.95922773,,,,,,,,,,,,,,,,,,,,,,,,,,,,,,,,,,,,,,,,,,,,,,,,,,,,,,,,,
,,,,right,1,0.3011,3,14,62,14,1,8,200,right,694,2022-02-01_10h03.51.425,multiplicationStroop,2021.2.3,Win32,59.95922773,,,,,,,,,,,,,,,,,,,,,,,,,,,,,,,,,,,,,,,,,,,,,,,,,,,,,,,,,
,,,,left,1,0.3506,3,15,63,4,1,6,-200,left,694,2022-02-01_10h03.51.425,multiplicationStroop,2021.2.3,Win32,59.95922773,,,,,,,,,,,,,,,,,,,,,,,,,,,,,,,,,,,,,,,,,,,,,,,,,,,,,,,,,
,,,,,,,,,,,,,,,694,2022-02-01_10h03.51.425,multiplicationStroop,2021.2.3,Win32,59.95922773,space,15.4717,space,3.3751,right,1,0.8704,0,0,0,9,1,2,4,2 | 4,2,1.4111,1.9756,congruent,right,,,,,,stimulusFile/magnitude.xlsx,,,,,,,,,,,,,,,,,,,,,,,,,,,,,,,
,,,,,,,,,,,,,,,694,2022-02-01_10h03.51.425,multiplicationStroop,2021.2.3,Win32,59.95922773,,,,,right,1,0.6187,0,1,1,66,1,3,8,3 | 8,5,1.6933,1.6933,neutral,right,,,,,,stimulusFile/magnitude.xlsx,,,,,,,,,,,,,,,,,,,,,,,,,,,,,,,
,,,,,,,,,,,,,,,694,2022-02-01_10h03.51.425,multiplicationStroop,2021.2.3,Win32,59.95922773,,,,,right,1,0.7172,0,2,2,34,1,6,8,6 | 8,2,1.9756,1.4111,incongruent,right,,,,,,stimulusFile/magnitude.xlsx,,,,,,,,,,,,,,,,,,,,,,,,,,,,,,,
,,,,,,,,,,,,,,,694,2022-02-01_10h03.51.425,multiplicationStroop,2021.2.3,Win32,59.95922773,,,,,left,1,0.7314,0,3,3,69,1,7,2,7 | 2,5,1.6933,1.6933,neutral,left,,,,,,stimulusFile/magnitude.xlsx,,,,,,,,,,,,,,,,,,,,,,,,,,,,,,,
,,,,,,,,,,,,,,,694,2022-02-01_10h03.51.425,multiplicationStroop,2021.2.3,Win32,59.95922773,,,,,right,1,0.5992,0,4,4,40,1,1,6,1 | 6,5,1.9756,1.4111,incongruent,right,,,,,,stimulusFile/magnitude.xlsx,,,,,,,,,,,,,,,,,,,,,,,,,,,,,,,
,,,,,,,,,,,,,,,694,2022-02-01_10h03.51.425,multiplicationStroop,2021.2.3,Win32,59.95922773,,,,,right,1,0.5773,0,5,5,10,1,6,8,6 | 8,2,1.4111,1.9756,congruent,right,,,,,,stimulusFile/magnitude.xlsx,,,,,,,,,,,,,,,,,,,,,,,,,,,,,,,
,,,,,,,,,,,,,,,694,2022-02-01_10h03.51.425,multiplicationStroop,2021.2.3,Win32,59.95922773,,,,,right,1,0.5546,0,6,6,2,1,6,7,6 | 7,1,1.4111,1.9756,congruent,right,,,,,,stimulusFile/magnitude.xlsx,,,,,,,,,,,,,,,,,,,,,,,,,,,,,,,
,,,,,,,,,,,,,,,694,2022-02-01_10h03.51.425,multiplicationStroop,2021.2.3,Win32,59.95922773,,,,,left,1,0.8276,0,7,7,54,1,7,6,7 | 6,1,1.6933,1.6933,neutral,left,,,,,,stimulusFile/magnitude.xlsx,,,,,,,,,,,,,,,,,,,,,,,,,,,,,,,
,,,,,,,,,,,,,,,694,2022-02-01_10h03.51.425,multiplicationStroop,2021.2.3,Win32,59.95922773,,,,,right,0,0.5319,0,8,8,36,1,3,1,3 | 1,2,1.4111,1.9756,incongruent,left,,,,,,stimulusFile/magnitude.xlsx,,,,,,,,,,,,,,,,,,,,,,,,,,,,,,,
,,,,,,,,,,,,,,,694,2022-02-01_10h03.51.425,multiplicationStroop,2021.2.3,Win32,59.95922773,,,,,right,1,0.715,0,9,9,56,1,1,3,1 | 3,2,1.6933,1.6933,neutral,right,,,,,,stimulusFile/magnitude.xlsx,,,,,,,,,,,,,,,,,,,,,,,,,,,,,,,
,,,,,,,,,,,,,,,694,2022-02-01_10h03.51.425,multiplicationStroop,2021.2.3,Win32,59.95922773,,,,,right,1,0.5878,0,10,10,64,1,1,6,1 | 6,5,1.6933,1.6933,neutral,right,,,,,,stimulusFile/magnitude.xlsx,,,,,,,,,,,,,,,,,,,,,,,,,,,,,,,
,,,,,,,,,,,,,,,694,2022-02-01_10h03.51.425,multiplicationStroop,2021.2.3,Win32,59.95922773,,,,,right,1,0.7945,0,11,11,1,1,3,4,3 | 4,1,1.4111,1.9756,congruent,right,,,,,,stimulusFile/magnitude.xlsx,,,,,,,,,,,,,,,,,,,,,,,,,,,,,,,
,,,,,,,,,,,,,,,694,2022-02-01_10h03.51.425,multiplicationStroop,2021.2.3,Win32,59.95922773,,,,,right,1,0.61,0,12,12,19,1,4,9,4 | 9,5,1.4111,1.9756,congruent,right,,,,,,stimulusFile/magnitude.xlsx,,,,,,,,,,,,,,,,,,,,,,,,,,,,,,,
,,,,,,,,,,,,,,,694,2022-02-01_10h03.51.425,multiplicationStroop,2021.2.3,Win32,59.95922773,,,,,right,0,0.601,0,13,13,37,1,4,2,4 | 2,2,1.4111,1.9756,incongruent,left,,,,,,stimulusFile/magnitude.xlsx,,,,,,,,,,,,,,,,,,,,,,,,,,,,,,,
,,,,,,,,,,,,,,,694,2022-02-01_10h03.51.425,multiplicationStroop,2021.2.3,Win32,59.95922773,,,,,left,1,0.7064,0,14,14,13,1,4,2,4 | 2,2,1.9756,1.4111,congruent,left,,,,,,stimulusFile/magnitude.xlsx,,,,,,,,,,,,,,,,,,,,,,,,,,,,,,,
,,,,,,,,,,,,,,,694,2022-02-01_10h03.51.425,multiplicationStroop,2021.2.3,Win32,59.95922773,,,,,left,1,0.6037,0,15,15,21,1,7,2,7 | 2,5,1.9756,1.4111,congruent,left,,,,,,stimulusFile/magnitude.xlsx,,,,,,,,,,,,,,,,,,,,,,,,,,,,,,,
,,,,,,,,,,,,,,,694,2022-02-01_10h03.51.425,multiplicationStroop,2021.2.3,Win32,59.95922773,,,,,left,1,1.2344,0,16,16,31,1,9,8,9 | 8,1,1.4111,1.9756,incongruent,left,,,,,,stimulusFile/magnitude.xlsx,,,,,,,,,,,,,,,,,,,,,,,,,,,,,,,
,,,,,,,,,,,,,,,694,2022-02-01_10h03.51.425,multiplicationStroop,2021.2.3,Win32,59.95922773,,,,,left,1,0.8509,0,17,17,60,1,3,1,3 | 1,2,1.6933,1.6933,neutral,left,,,,,,stimulusFile/magnitude.xlsx,,,,,,,,,,,,,,,,,,,,,,,,,,,,,,,
,,,,,,,,,,,,,,,694,2022-02-01_10h03.51.425,multiplicationStroop,2021.2.3,Win32,59.95922773,,,,,left,1,0.8276,0,18,18,63,1,9,7,9 | 7,2,1.6933,1.6933,neutral,left,,,,,,stimulusFile/magnitude.xlsx,,,,,,,,,,,,,,,,,,,,,,,,,,,,,,,
,,,,,,,,,,,,,,,694,2022-02-01_10h03.51.425,multiplicationStroop,2021.2.3,Win32,59.95922773,,,,,right,1,0.7957,0,19,19,50,1,6,7,6 | 7,1,1.6933,1.6933,neutral,right,,,,,,stimulusFile/magnitude.xlsx,,,,,,,,,,,,,,,,,,,,,,,,,,,,,,,
,,,,,,,,,,,,,,,694,2022-02-01_10h03.51.425,multiplicationStroop,2021.2.3,Win32,59.95922773,,,,,left,1,0.6015,0,20,20,5,1,4,3,4 | 3,1,1.9756,1.4111,congruent,left,,,,,,stimulusFile/magnitude.xlsx,,,,,,,,,,,,,,,,,,,,,,,,,,,,,,,
,,,,,,,,,,,,,,,694,2022-02-01_10h03.51.425,multiplicationStroop,2021.2.3,Win32,59.95922773,,,,,right,1,0.7867,0,21,21,32,1,1,3,1 | 3,2,1.9756,1.4111,incongruent,right,,,,,,stimulusFile/magnitude.xlsx,,,,,,,,,,,,,,,,,,,,,,,,,,,,,,,
,,,,,,,,,,,,,,,694,2022-02-01_10h03.51.425,multiplicationStroop,2021.2.3,Win32,59.95922773,,,,,right,1,0.7682,0,22,22,65,1,2,7,2 | 7,5,1.6933,1.6933,neutral,right,,,,,,stimulusFile/magnitude.xlsx,,,,,,,,,,,,,,,,,,,,,,,,,,,,,,,
,,,,,,,,,,,,,,,694,2022-02-01_10h03.51.425,multiplicationStroop,2021.2.3,Win32,59.95922773,,,,,left,1,0.6352,0,23,23,4,1,2,1,2 | 1,1,1.9756,1.4111,congruent,left,,,,,,stimulusFile/magnitude.xlsx,,,,,,,,,,,,,,,,,,,,,,,,,,,,,,,
,,,,,,,,,,,,,,,694,2022-02-01_10h03.51.425,multiplicationStroop,2021.2.3,Win32,59.95922773,,,,,left,1,0.7295,0,24,24,20,1,6,1,6 | 1,5,1.9756,1.4111,congruent,left,,,,,,stimulusFile/magnitude.xlsx,,,,,,,,,,,,,,,,,,,,,,,,,,,,,,,
,,,,,,,,,,,,,,,694,2022-02-01_10h03.51.425,multiplicationStroop,2021.2.3,Win32,59.95922773,,,,,left,1,0.865,0,25,25,22,1,8,3,8 | 3,5,1.9756,1.4111,congruent,left,,,,,,stimulusFile/magnitude.xlsx,,,,,,,,,,,,,,,,,,,,,,,,,,,,,,,
,,,,,,,,,,,,,,,694,2022-02-01_10h03.51.425,multiplicationStroop,2021.2.3,Win32,59.95922773,,,,,left,1,0.7158,0,26,26,12,1,3,1,3 | 1,2,1.9756,1.4111,congruent,left,,,,,,stimulusFile/magnitude.xlsx,,,,,,,,,,,,,,,,,,,,,,,,,,,,,,,
,,,,,,,,,,,,,,,694,2022-02-01_10h03.51.425,multiplicationStroop,2021.2.3,Win32,59.95922773,,,,,right,1,0.5769,0,27,27,18,1,3,8,3 | 8,5,1.4111,1.9756,congruent,right,,,,,,stimulusFile/magnitude.xlsx,,,,,,,,,,,,,,,,,,,,,,,,,,,,,,,
,,,,,,,,,,,,,,,694,2022-02-01_10h03.51.425,multiplicationStroop,2021.2.3,Win32,59.95922773,,,,,left,1,0.9939,0,28,28,45,1,7,2,7 | 2,5,1.4111,1.9756,incongruent,left,,,,,,stimulusFile/magnitude.xlsx,,,,,,,,,,,,,,,,,,,,,,,,,,,,,,,
,,,,,,,,,,,,,,,694,2022-02-01_10h03.51.425,multiplicationStroop,2021.2.3,Win32,59.95922773,,,,,left,1,0.781,0,29,29,44,1,6,1,6 | 1,5,1.4111,1.9756,incongruent,left,,,,,,stimulusFile/magnitude.xlsx,,,,,,,,,,,,,,,,,,,,,,,,,,,,,,,
,,,,,,,,,,,,,,,694,2022-02-01_10h03.51.425,multiplicationStroop,2021.2.3,Win32,59.95922773,,,,,left,0,0.9275,0,30,30,35,1,7,9,7 | 9,2,1.9756,1.4111,incongruent,right,,,,,,stimulusFile/magnitude.xlsx,,,,,,,,,,,,,,,,,,,,,,,,,,,,,,,
,,,,,,,,,,,,,,,694,2022-02-01_10h03.51.425,multiplicationStroop,2021.2.3,Win32,59.95922773,,,,,left,1,0.7785,0,31,31,15,1,9,7,9 | 7,2,1.9756,1.4111,congruent,left,,,,,,stimulusFile/magnitude.xlsx,,,,,,,,,,,,,,,,,,,,,,,,,,,,,,,
,,,,,,,,,,,,,,,694,2022-02-01_10h03.51.425,multiplicationStroop,2021.2.3,Win32,59.95922773,,,,,right,1,0.7448,0,32,32,24,1,1,2,1 | 2,1,1.9756,1.4111,incongruent,right,,,,,,stimulusFile/magnitude.xlsx,,,,,,,,,,,,,,,,,,,,,,,,,,,,,,,
,,,,,,,,,,,,,,,694,2022-02-01_10h03.51.425,multiplicationStroop,2021.2.3,Win32,59.95922773,,,,,left,1,0.817,0,33,33,47,1,9,4,9 | 4,5,1.4111,1.9756,incongruent,left,,,,,,stimulusFile/magnitude.xlsx,,,,,,,,,,,,,,,,,,,,,,,,,,,,,,,
,,,,,,,,,,,,,,,694,2022-02-01_10h03.51.425,multiplicationStroop,2021.2.3,Win32,59.95922773,,,,,right,1,0.536,0,34,34,67,1,4,9,4 | 9,5,1.6933,1.6933,neutral,right,,,,,,stimulusFile/magnitude.xlsx,,,,,,,,,,,,,,,,,,,,,,,,,,,,,,,
,,,,,,,,,,,,,,,694,2022-02-01_10h03.51.425,multiplicationStroop,2021.2.3,Win32,59.95922773,,,,,left,1,0.9312,0,35,35,62,1,8,6,8 | 6,2,1.6933,1.6933,neutral,left,,,,,,stimulusFile/magnitude.xlsx,,,,,,,,,,,,,,,,,,,,,,,,,,,,,,,
,,,,,,,,,,,,,,,694,2022-02-01_10h03.51.425,multiplicationStroop,2021.2.3,Win32,59.95922773,,,,,right,1,0.6339,0,36,36,33,1,2,4,2 | 4,2,1.9756,1.4111,incongruent,right,,,,,,stimulusFile/magnitude.xlsx,,,,,,,,,,,,,,,,,,,,,,,,,,,,,,,
,,,,,,,,,,,,,,,694,2022-02-01_10h03.51.425,multiplicationStroop,2021.2.3,Win32,59.95922773,,,,,left,1,0.5507,0,37,37,52,1,2,1,2 | 1,1,1.6933,1.6933,neutral,left,,,,,,stimulusFile/magnitude.xlsx,,,,,,,,,,,,,,,,,,,,,,,,,,,,,,,
,,,,,,,,,,,,,,,694,2022-02-01_10h03.51.425,multiplicationStroop,2021.2.3,Win32,59.95922773,,,,,right,1,0.5915,0,38,38,57,1,2,4,2 | 4,2,1.6933,1.6933,neutral,right,,,,,,stimulusFile/magnitude.xlsx,,,,,,,,,,,,,,,,,,,,,,,,,,,,,,,
,,,,,,,,,,,,,,,694,2022-02-01_10h03.51.425,multiplicationStroop,2021.2.3,Win32,59.95922773,,,,,right,1,0.6663,0,39,39,42,1,3,8,3 | 8,5,1.9756,1.4111,incongruent,right,,,,,,stimulusFile/magnitude.xlsx,,,,,,,,,,,,,,,,,,,,,,,,,,,,,,,
,,,,,,,,,,,,,,,694,2022-02-01_10h03.51.425,multiplicationStroop,2021.2.3,Win32,59.95922773,,,,,left,1,0.6519,0,40,40,14,1,8,6,8 | 6,2,1.9756,1.4111,congruent,left,,,,,,stimulusFile/magnitude.xlsx,,,,,,,,,,,,,,,,,,,,,,,,,,,,,,,
,,,,,,,,,,,,,,,694,2022-02-01_10h03.51.425,multiplicationStroop,2021.2.3,Win32,59.95922773,,,,,right,1,0.5828,0,41,41,49,1,3,4,3 | 4,1,1.6933,1.6933,neutral,right,,,,,,stimulusFile/magnitude.xlsx,,,,,,,,,,,,,,,,,,,,,,,,,,,,,,,
,,,,,,,,,,,,,,,694,2022-02-01_10h03.51.425,multiplicationStroop,2021.2.3,Win32,59.95922773,,,,,right,1,0.5546,0,42,42,11,1,7,9,7 | 9,2,1.4111,1.9756,congruent,right,,,,,,stimulusFile/magnitude.xlsx,,,,,,,,,,,,,,,,,,,,,,,,,,,,,,,
,,,,,,,,,,,,,,,694,2022-02-01_10h03.51.425,multiplicationStroop,2021.2.3,Win32,59.95922773,,,,,left,1,0.835,0,43,43,46,1,8,3,8 | 3,5,1.4111,1.9756,incongruent,left,,,,,,stimulusFile/magnitude.xlsx,,,,,,,,,,,,,,,,,,,,,,,,,,,,,,,
,,,,,,,,,,,,,,,694,2022-02-01_10h03.51.425,multiplicationStroop,2021.2.3,Win32,59.95922773,,,,,left,1,0.994,0,44,44,6,1,7,6,7 | 6,1,1.9756,1.4111,congruent,left,,,,,,stimulusFile/magnitude.xlsx,,,,,,,,,,,,,,,,,,,,,,,,,,,,,,,
,,,,,,,,,,,,,,,694,2022-02-01_10h03.51.425,multiplicationStroop,2021.2.3,Win32,59.95922773,,,,,left,1,0.711,0,45,45,70,1,8,3,8 | 3,5,1.6933,1.6933,neutral,left,,,,,,stimulusFile/magnitude.xlsx,,,,,,,,,,,,,,,,,,,,,,,,,,,,,,,
,,,,,,,,,,,,,,,694,2022-02-01_10h03.51.425,multiplicationStroop,2021.2.3,Win32,59.95922773,,,,,right,1,0.7228,0,46,46,26,1,6,7,6 | 7,1,1.9756,1.4111,incongruent,right,,,,,,stimulusFile/magnitude.xlsx,,,,,,,,,,,,,,,,,,,,,,,,,,,,,,,
,,,,,,,,,,,,,,,694,2022-02-01_10h03.51.425,multiplicationStroop,2021.2.3,Win32,59.95922773,,,,,right,1,0.8705,0,47,47,27,1,8,9,8 | 9,1,1.9756,1.4111,incongruent,right,,,,,,stimulusFile/magnitude.xlsx,,,,,,,,,,,,,,,,,,,,,,,,,,,,,,,
,,,,,,,,,,,,,,,694,2022-02-01_10h03.51.425,multiplicationStroop,2021.2.3,Win32,59.95922773,,,,,right,1,1.0113,0,48,48,59,1,7,9,7 | 9,2,1.6933,1.6933,neutral,right,,,,,,stimulusFile/magnitude.xlsx,,,,,,,,,,,,,,,,,,,,,,,,,,,,,,,
,,,,,,,,,,,,,,,694,2022-02-01_10h03.51.425,multiplicationStroop,2021.2.3,Win32,59.95922773,,,,,left,0,1.5805,0,49,49,3,1,8,9,8 | 9,1,1.4111,1.9756,congruent,right,,,,,,stimulusFile/magnitude.xlsx,,,,,,,,,,,,,,,,,,,,,,,,,,,,,,,
,,,,,,,,,,,,,,,694,2022-02-01_10h03.51.425,multiplicationStroop,2021.2.3,Win32,59.95922773,,,,,right,0,0.7553,0,50,50,30,1,7,6,7 | 6,1,1.4111,1.9756,incongruent,left,,,,,,stimulusFile/magnitude.xlsx,,,,,,,,,,,,,,,,,,,,,,,,,,,,,,,
,,,,,,,,,,,,,,,694,2022-02-01_10h03.51.425,multiplicationStroop,2021.2.3,Win32,59.95922773,,,,,left,1,1.683,0,51,51,38,1,8,6,8 | 6,2,1.4111,1.9756,incongruent,left,,,,,,stimulusFile/magnitude.xlsx,,,,,,,,,,,,,,,,,,,,,,,,,,,,,,,
,,,,,,,,,,,,,,,694,2022-02-01_10h03.51.425,multiplicationStroop,2021.2.3,Win32,59.95922773,,,,,left,1,0.5791,0,52,52,68,1,6,1,6 | 1,5,1.6933,1.6933,neutral,left,,,,,,stimulusFile/magnitude.xlsx,,,,,,,,,,,,,,,,,,,,,,,,,,,,,,,
,,,,,,,,,,,,,,,694,2022-02-01_10h03.51.425,multiplicationStroop,2021.2.3,Win32,59.95922773,,,,,right,1,0.7781,0,53,53,41,1,2,7,2 | 7,5,1.9756,1.4111,incongruent,right,,,,,,stimulusFile/magnitude.xlsx,,,,,,,,,,,,,,,,,,,,,,,,,,,,,,,
,,,,,,,,,,,,,,,694,2022-02-01_10h03.51.425,multiplicationStroop,2021.2.3,Win32,59.95922773,,,,,left,1,0.8004,0,54,54,39,1,9,7,9 | 7,2,1.4111,1.9756,incongruent,left,,,,,,stimulusFile/magnitude.xlsx,,,,,,,,,,,,,,,,,,,,,,,,,,,,,,,
,,,,,,,,,,,,,,,694,2022-02-01_10h03.51.425,multiplicationStroop,2021.2.3,Win32,59.95922773,,,,,right,1,1.0442,0,55,55,51,1,8,9,8 | 9,1,1.6933,1.6933,neutral,right,,,,,,stimulusFile/magnitude.xlsx,,,,,,,,,,,,,,,,,,,,,,,,,,,,,,,
,,,,,,,,,,,,,,,694,2022-02-01_10h03.51.425,multiplicationStroop,2021.2.3,Win32,59.95922773,,,,,right,1,0.599,0,56,56,0,1,1,2,1 | 2,1,1.4111,1.9756,congruent,right,,,,,,stimulusFile/magnitude.xlsx,,,,,,,,,,,,,,,,,,,,,,,,,,,,,,,
,,,,,,,,,,,,,,,694,2022-02-01_10h03.51.425,multiplicationStroop,2021.2.3,Win32,59.95922773,,,,,left,1,0.7954,0,57,57,53,1,4,3,4 | 3,1,1.6933,1.6933,neutral,left,,,,,,stimulusFile/magnitude.xlsx,,,,,,,,,,,,,,,,,,,,,,,,,,,,,,,
,,,,,,,,,,,,,,,694,2022-02-01_10h03.51.425,multiplicationStroop,2021.2.3,Win32,59.95922773,,,,,left,1,1.3163,0,58,58,7,1,9,8,9 | 8,1,1.9756,1.4111,congruent,left,,,,,,stimulusFile/magnitude.xlsx,,,,,,,,,,,,,,,,,,,,,,,,,,,,,,,
,,,,,,,,,,,,,,,694,2022-02-01_10h03.51.425,multiplicationStroop,2021.2.3,Win32,59.95922773,,,,,left,1,0.4936,0,59,59,71,1,9,4,9 | 4,5,1.6933,1.6933,neutral,left,,,,,,stimulusFile/magnitude.xlsx,,,,,,,,,,,,,,,,,,,,,,,,,,,,,,,
,,,,,,,,,,,,,,,694,2022-02-01_10h03.51.425,multiplicationStroop,2021.2.3,Win32,59.95922773,,,,,right,1,0.4892,0,60,60,43,1,4,9,4 | 9,5,1.9756,1.4111,incongruent,right,,,,,,stimulusFile/magnitude.xlsx,,,,,,,,,,,,,,,,,,,,,,,,,,,,,,,
,,,,,,,,,,,,,,,694,2022-02-01_10h03.51.425,multiplicationStroop,2021.2.3,Win32,59.95922773,,,,,left,1,0.6703,0,61,61,61,1,4,2,4 | 2,2,1.6933,1.6933,neutral,left,,,,,,stimulusFile/magnitude.xlsx,,,,,,,,,,,,,,,,,,,,,,,,,,,,,,,
,,,,,,,,,,,,,,,694,2022-02-01_10h03.51.425,multiplicationStroop,2021.2.3,Win32,59.95922773,,,,,right,1,0.6122,0,62,62,58,1,6,8,6 | 8,2,1.6933,1.6933,neutral,right,,,,,,stimulusFile/magnitude.xlsx,,,,,,,,,,,,,,,,,,,,,,,,,,,,,,,
,,,,,,,,,,,,,,,694,2022-02-01_10h03.51.425,multiplicationStroop,2021.2.3,Win32,59.95922773,,,,,right,1,0.5214,0,63,63,8,1,1,3,1 | 3,2,1.4111,1.9756,congruent,right,,,,,,stimulusFile/magnitude.xlsx,,,,,,,,,,,,,,,,,,,,,,,,,,,,,,,
,,,,,,,,,,,,,,,694,2022-02-01_10h03.51.425,multiplicationStroop,2021.2.3,Win32,59.95922773,,,,,right,1,0.6171,0,64,64,17,1,2,7,2 | 7,5,1.4111,1.9756,congruent,right,,,,,,stimulusFile/magnitude.xlsx,,,,,,,,,,,,,,,,,,,,,,,,,,,,,,,
,,,,,,,,,,,,,,,694,2022-02-01_10h03.51.425,multiplicationStroop,2021.2.3,Win32,59.95922773,,,,,left,1,0.6106,0,65,65,23,1,9,4,9 | 4,5,1.9756,1.4111,congruent,left,,,,,,stimulusFile/magnitude.xlsx,,,,,,,,,,,,,,,,,,,,,,,,,,,,,,,
,,,,,,,,,,,,,,,694,2022-02-01_10h03.51.425,multiplicationStroop,2021.2.3,Win32,59.95922773,,,,,right,1,0.571,0,66,66,48,1,1,2,1 | 2,1,1.6933,1.6933,neutral,right,,,,,,stimulusFile/magnitude.xlsx,,,,,,,,,,,,,,,,,,,,,,,,,,,,,,,
,,,,,,,,,,,,,,,694,2022-02-01_10h03.51.425,multiplicationStroop,2021.2.3,Win32,59.95922773,,,,,left,1,0.8152,0,67,67,29,1,4,3,4 | 3,1,1.4111,1.9756,incongruent,left,,,,,,stimulusFile/magnitude.xlsx,,,,,,,,,,,,,,,,,,,,,,,,,,,,,,,
,,,,,,,,,,,,,,,694,2022-02-01_10h03.51.425,multiplicationStroop,2021.2.3,Win32,59.95922773,,,,,right,1,0.5774,0,68,68,16,1,1,6,1 | 6,5,1.4111,1.9756,congruent,right,,,,,,stimulusFile/magnitude.xlsx,,,,,,,,,,,,,,,,,,,,,,,,,,,,,,,
,,,,,,,,,,,,,,,694,2022-02-01_10h03.51.425,multiplicationStroop,2021.2.3,Win32,59.95922773,,,,,left,1,0.7706,0,69,69,28,1,2,1,2 | 1,1,1.4111,1.9756,incongruent,left,,,,,,stimulusFile/magnitude.xlsx,,,,,,,,,,,,,,,,,,,,,,,,,,,,,,,
,,,,,,,,,,,,,,,694,2022-02-01_10h03.51.425,multiplicationStroop,2021.2.3,Win32,59.95922773,,,,,right,1,0.7776,0,70,70,25,1,3,4,3 | 4,1,1.9756,1.4111,incongruent,right,,,,,,stimulusFile/magnitude.xlsx,,,,,,,,,,,,,,,,,,,,,,,,,,,,,,,
,,,,,,,,,,,,,,,694,2022-02-01_10h03.51.425,multiplicationStroop,2021.2.3,Win32,59.95922773,,,,,left,1,0.6814,0,71,71,55,1,9,8,9 | 8,1,1.6933,1.6933,neutral,left,,,,,,stimulusFile/magnitude.xlsx,,,,,,,,,,,,,,,,,,,,,,,,,,,,,,,
,,,,,,,,,,,,,,,694,2022-02-01_10h03.51.425,multiplicationStroop,2021.2.3,Win32,59.95922773,,,,,,,,,,,,,,,,,,,,,0,0,0,0,1,stimulusFile/magnitude.xlsx,NUMERICALLY larger (larger coefficient).,images/numericallyLarger.png,,,,,,,,,,,,,,,,,,,,,,,,,,,,,
,,,,,,,,,,,,,,,694,2022-02-01_10h03.51.425,multiplicationStroop,2021.2.3,Win32,59.95922773,space,3.7942,space,5.3182,right,1,0.7069,0,0,0,30,1,7,6,7 | 6,1,1.4111,1.9756,incongruent,right,,,,,,stimulusFile/physical.xlsx,,,,,,,,,,,,,,,,,,,,,,,,,,,,,,,
,,,,,,,,,,,,,,,694,2022-02-01_10h03.51.425,multiplicationStroop,2021.2.3,Win32,59.95922773,,,,,left,1,0.5006,0,1,1,48,1,1,1,1 | 1,0,1.9756,1.4111,neutral,left,,,,,,stimulusFile/physical.xlsx,,,,,,,,,,,,,,,,,,,,,,,,,,,,,,,
,,,,,,,,,,,,,,,694,2022-02-01_10h03.51.425,multiplicationStroop,2021.2.3,Win32,59.95922773,,,,,right,1,0.4891,0,2,2,45,1,7,2,7 | 2,5,1.4111,1.9756,incongruent,right,,,,,,stimulusFile/physical.xlsx,,,,,,,,,,,,,,,,,,,,,,,,,,,,,,,
,,,,,,,,,,,,,,,694,2022-02-01_10h03.51.425,multiplicationStroop,2021.2.3,Win32,59.95922773,,,,,left,1,0.5244,0,3,3,51,1,8,8,8 | 8,0,1.9756,1.4111,neutral,left,,,,,,stimulusFile/physical.xlsx,,,,,,,,,,,,,,,,,,,,,,,,,,,,,,,
,,,,,,,,,,,,,,,694,2022-02-01_10h03.51.425,multiplicationStroop,2021.2.3,Win32,59.95922773,,,,,right,1,0.5171,0,4,4,58,1,6,6,6 | 6,0,1.4111,1.9756,neutral,right,,,,,,stimulusFile/physical.xlsx,,,,,,,,,,,,,,,,,,,,,,,,,,,,,,,
,,,,,,,,,,,,,,,694,2022-02-01_10h03.51.425,multiplicationStroop,2021.2.3,Win32,59.95922773,,,,,left,1,0.4512,0,5,5,4,1,2,1,2 | 1,1,1.9756,1.4111,congruent,left,,,,,,stimulusFile/physical.xlsx,,,,,,,,,,,,,,,,,,,,,,,,,,,,,,,
,,,,,,,,,,,,,,,694,2022-02-01_10h03.51.425,multiplicationStroop,2021.2.3,Win32,59.95922773,,,,,left,1,0.4676,0,6,6,12,1,3,1,3 | 1,2,1.9756,1.4111,congruent,left,,,,,,stimulusFile/physical.xlsx,,,,,,,,,,,,,,,,,,,,,,,,,,,,,,,
,,,,,,,,,,,,,,,694,2022-02-01_10h03.51.425,multiplicationStroop,2021.2.3,Win32,59.95922773,,,,,left,1,0.5601,0,7,7,49,1,3,3,3 | 3,0,1.9756,1.4111,neutral,left,,,,,,stimulusFile/physical.xlsx,,,,,,,,,,,,,,,,,,,,,,,,,,,,,,,
,,,,,,,,,,,,,,,694,2022-02-01_10h03.51.425,multiplicationStroop,2021.2.3,Win32,59.95922773,,,,,right,0,0.4673,0,8,8,71,1,9,9,9 | 9,0,1.4111,1.9756,neutral,left,,,,,,stimulusFile/physical.xlsx,,,,,,,,,,,,,,,,,,,,,,,,,,,,,,,
,,,,,,,,,,,,,,,694,2022-02-01_10h03.51.425,multiplicationStroop,2021.2.3,Win32,59.95922773,,,,,left,1,0.4674,0,9,9,22,1,8,3,8 | 3,5,1.9756,1.4111,congruent,left,,,,,,stimulusFile/physical.xlsx,,,,,,,,,,,,,,,,,,,,,,,,,,,,,,,
,,,,,,,,,,,,,,,694,2022-02-01_10h03.51.425,multiplicationStroop,2021.2.3,Win32,59.95922773,,,,,left,1,0.5944,0,10,10,23,1,9,4,9 | 4,5,1.9756,1.4111,congruent,left,,,,,,stimulusFile/physical.xlsx,,,,,,,,,,,,,,,,,,,,,,,,,,,,,,,
,,,,,,,,,,,,,,,694,2022-02-01_10h03.51.425,multiplicationStroop,2021.2.3,Win32,59.95922773,,,,,right,1,0.4892,0,11,11,3,1,8,9,8 | 9,1,1.4111,1.9756,congruent,right,,,,,,stimulusFile/physical.xlsx,,,,,,,,,,,,,,,,,,,,,,,,,,,,,,,
,,,,,,,,,,,,,,,694,2022-02-01_10h03.51.425,multiplicationStroop,2021.2.3,Win32,59.95922773,,,,,right,1,0.5003,0,12,12,8,1,1,3,1 | 3,2,1.4111,1.9756,congruent,right,,,,,,stimulusFile/physical.xlsx,,,,,,,,,,,,,,,,,,,,,,,,,,,,,,,
,,,,,,,,,,,,,,,694,2022-02-01_10h03.51.425,multiplicationStroop,2021.2.3,Win32,59.95922773,,,,,left,1,0.4511,0,13,13,68,1,6,6,6 | 6,0,1.9756,1.4111,neutral,left,,,,,,stimulusFile/physical.xlsx,,,,,,,,,,,,,,,,,,,,,,,,,,,,,,,
,,,,,,,,,,,,,,,694,2022-02-01_10h03.51.425,multiplicationStroop,2021.2.3,Win32,59.95922773,,,,,right,1,0.4384,0,14,14,17,1,2,7,2 | 7,5,1.4111,1.9756,congruent,right,,,,,,stimulusFile/physical.xlsx,,,,,,,,,,,,,,,,,,,,,,,,,,,,,,,
,,,,,,,,,,,,,,,694,2022-02-01_10h03.51.425,multiplicationStroop,2021.2.3,Win32,59.95922773,,,,,left,1,0.4376,0,15,15,27,1,8,9,8 | 9,1,1.9756,1.4111,incongruent,left,,,,,,stimulusFile/physical.xlsx,,,,,,,,,,,,,,,,,,,,,,,,,,,,,,,
,,,,,,,,,,,,,,,694,2022-02-01_10h03.51.425,multiplicationStroop,2021.2.3,Win32,59.95922773,,,,,right,1,0.4719,0,16,16,11,1,7,9,7 | 9,2,1.4111,1.9756,congruent,right,,,,,,stimulusFile/physical.xlsx,,,,,,,,,,,,,,,,,,,,,,,,,,,,,,,
,,,,,,,,,,,,,,,694,2022-02-01_10h03.51.425,multiplicationStroop,2021.2.3,Win32,59.95922773,,,,,right,1,0.4857,0,17,17,10,1,6,8,6 | 8,2,1.4111,1.9756,congruent,right,,,,,,stimulusFile/physical.xlsx,,,,,,,,,,,,,,,,,,,,,,,,,,,,,,,
,,,,,,,,,,,,,,,694,2022-02-01_10h03.51.425,multiplicationStroop,2021.2.3,Win32,59.95922773,,,,,left,1,0.4866,0,18,18,14,1,8,6,8 | 6,2,1.9756,1.4111,congruent,left,,,,,,stimulusFile/physical.xlsx,,,,,,,,,,,,,,,,,,,,,,,,,,,,,,,
,,,,,,,,,,,,,,,694,2022-02-01_10h03.51.425,multiplicationStroop,2021.2.3,Win32,59.95922773,,,,,left,0,0.5041,0,19,19,64,1,1,1,1 | 1,0,1.9756,1.4111,neutral,right,,,,,,stimulusFile/physical.xlsx,,,,,,,,,,,,,,,,,,,,,,,,,,,,,,,
,,,,,,,,,,,,,,,694,2022-02-01_10h03.51.425,multiplicationStroop,2021.2.3,Win32,59.95922773,,,,,right,1,0.4698,0,20,20,37,1,4,2,4 | 2,2,1.4111,1.9756,incongruent,right,,,,,,stimulusFile/physical.xlsx,,,,,,,,,,,,,,,,,,,,,,,,,,,,,,,
,,,,,,,,,,,,,,,694,2022-02-01_10h03.51.425,multiplicationStroop,2021.2.3,Win32,59.95922773,,,,,left,1,0.4721,0,21,21,7,1,9,8,9 | 8,1,1.9756,1.4111,congruent,left,,,,,,stimulusFile/physical.xlsx,,,,,,,,,,,,,,,,,,,,,,,,,,,,,,,
,,,,,,,,,,,,,,,694,2022-02-01_10h03.51.425,multiplicationStroop,2021.2.3,Win32,59.95922773,,,,,left,1,0.5549,0,22,22,54,1,7,7,7 | 7,0,1.9756,1.4111,neutral,left,,,,,,stimulusFile/physical.xlsx,,,,,,,,,,,,,,,,,,,,,,,,,,,,,,,
,,,,,,,,,,,,,,,694,2022-02-01_10h03.51.425,multiplicationStroop,2021.2.3,Win32,59.95922773,,,,,right,1,0.4892,0,23,23,31,1,9,8,9 | 8,1,1.4111,1.9756,incongruent,right,,,,,,stimulusFile/physical.xlsx,,,,,,,,,,,,,,,,,,,,,,,,,,,,,,,
,,,,,,,,,,,,,,,694,2022-02-01_10h03.51.425,multiplicationStroop,2021.2.3,Win32,59.95922773,,,,,right,1,0.5341,0,24,24,59,1,7,7,7 | 7,0,1.4111,1.9756,neutral,right,,,,,,stimulusFile/physical.xlsx,,,,,,,,,,,,,,,,,,,,,,,,,,,,,,,
,,,,,,,,,,,,,,,694,2022-02-01_10h03.51.425,multiplicationStroop,2021.2.3,Win32,59.95922773,,,,,right,1,0.6037,0,25,25,0,1,1,2,1 | 2,1,1.4111,1.9756,congruent,right,,,,,,stimulusFile/physical.xlsx,,,,,,,,,,,,,,,,,,,,,,,,,,,,,,,
,,,,,,,,,,,,,,,694,2022-02-01_10h03.51.425,multiplicationStroop,2021.2.3,Win32,59.95922773,,,,,left,1,0.4864,0,26,26,6,1,7,6,7 | 6,1,1.9756,1.4111,congruent,left,,,,,,stimulusFile/physical.xlsx,,,,,,,,,,,,,,,,,,,,,,,,,,,,,,,
,,,,,,,,,,,,,,,694,2022-02-01_10h03.51.425,multiplicationStroop,2021.2.3,Win32,59.95922773,,,,,left,1,0.5339,0,27,27,26,1,6,7,6 | 7,1,1.9756,1.4111,incongruent,left,,,,,,stimulusFile/physical.xlsx,,,,,,,,,,,,,,,,,,,,,,,,,,,,,,,
,,,,,,,,,,,,,,,694,2022-02-01_10h03.51.425,multiplicationStroop,2021.2.3,Win32,59.95922773,,,,,left,1,0.5421,0,28,28,5,1,4,3,4 | 3,1,1.9756,1.4111,congruent,left,,,,,,stimulusFile/physical.xlsx,,,,,,,,,,,,,,,,,,,,,,,,,,,,,,,
,,,,,,,,,,,,,,,694,2022-02-01_10h03.51.425,multiplicationStroop,2021.2.3,Win32,59.95922773,,,,,right,0,0.6175,0,29,29,40,1,1,6,1 | 6,5,1.9756,1.4111,incongruent,left,,,,,,stimulusFile/physical.xlsx,,,,,,,,,,,,,,,,,,,,,,,,,,,,,,,
,,,,,,,,,,,,,,,694,2022-02-01_10h03.51.425,multiplicationStroop,2021.2.3,Win32,59.95922773,,,,,left,1,0.6676,0,30,30,50,1,6,6,6 | 6,0,1.9756,1.4111,neutral,left,,,,,,stimulusFile/physical.xlsx,,,,,,,,,,,,,,,,,,,,,,,,,,,,,,,
,,,,,,,,,,,,,,,694,2022-02-01_10h03.51.425,multiplicationStroop,2021.2.3,Win32,59.95922773,,,,,left,1,0.6835,0,31,31,55,1,9,9,9 | 9,0,1.9756,1.4111,neutral,left,,,,,,stimulusFile/physical.xlsx,,,,,,,,,,,,,,,,,,,,,,,,,,,,,,,
,,,,,,,,,,,,,,,694,2022-02-01_10h03.51.425,multiplicationStroop,2021.2.3,Win32,59.95922773,,,,,left,1,0.4697,0,32,32,34,1,6,8,6 | 8,2,1.9756,1.4111,incongruent,left,,,,,,stimulusFile/physical.xlsx,,,,,,,,,,,,,,,,,,,,,,,,,,,,,,,
,,,,,,,,,,,,,,,694,2022-02-01_10h03.51.425,multiplicationStroop,2021.2.3,Win32,59.95922773,,,,,right,1,0.516,0,33,33,39,1,9,7,9 | 7,2,1.4111,1.9756,incongruent,right,,,,,,stimulusFile/physical.xlsx,,,,,,,,,,,,,,,,,,,,,,,,,,,,,,,
,,,,,,,,,,,,,,,694,2022-02-01_10h03.51.425,multiplicationStroop,2021.2.3,Win32,59.95922773,,,,,right,1,0.5558,0,34,34,61,1,4,4,4 | 4,0,1.4111,1.9756,neutral,right,,,,,,stimulusFile/physical.xlsx,,,,,,,,,,,,,,,,,,,,,,,,,,,,,,,
,,,,,,,,,,,,,,,694,2022-02-01_10h03.51.425,multiplicationStroop,2021.2.3,Win32,59.95922773,,,,,right,1,0.4843,0,35,35,63,1,9,9,9 | 9,0,1.4111,1.9756,neutral,right,,,,,,stimulusFile/physical.xlsx,,,,,,,,,,,,,,,,,,,,,,,,,,,,,,,
,,,,,,,,,,,,,,,694,2022-02-01_10h03.51.425,multiplicationStroop,2021.2.3,Win32,59.95922773,,,,,right,1,0.5503,0,36,36,29,1,4,3,4 | 3,1,1.4111,1.9756,incongruent,right,,,,,,stimulusFile/physical.xlsx,,,,,,,,,,,,,,,,,,,,,,,,,,,,,,,
,,,,,,,,,,,,,,,694,2022-02-01_10h03.51.425,multiplicationStroop,2021.2.3,Win32,59.95922773,,,,,right,1,0.5171,0,37,37,38,1,8,6,8 | 6,2,1.4111,1.9756,incongruent,right,,,,,,stimulusFile/physical.xlsx,,,,,,,,,,,,,,,,,,,,,,,,,,,,,,,
,,,,,,,,,,,,,,,694,2022-02-01_10h03.51.425,multiplicationStroop,2021.2.3,Win32,59.95922773,,,,,left,1,0.5675,0,38,38,43,1,4,9,4 | 9,5,1.9756,1.4111,incongruent,left,,,,,,stimulusFile/physical.xlsx,,,,,,,,,,,,,,,,,,,,,,,,,,,,,,,
,,,,,,,,,,,,,,,694,2022-02-01_10h03.51.425,multiplicationStroop,2021.2.3,Win32,59.95922773,,,,,left,0,0.5088,0,39,39,66,1,3,3,3 | 3,0,1.9756,1.4111,neutral,right,,,,,,stimulusFile/physical.xlsx,,,,,,,,,,,,,,,,,,,,,,,,,,,,,,,
,,,,,,,,,,,,,,,694,2022-02-01_10h03.51.425,multiplicationStroop,2021.2.3,Win32,59.95922773,,,,,right,1,0.5006,0,40,40,36,1,3,1,3 | 1,2,1.4111,1.9756,incongruent,right,,,,,,stimulusFile/physical.xlsx,,,,,,,,,,,,,,,,,,,,,,,,,,,,,,,
,,,,,,,,,,,,,,,694,2022-02-01_10h03.51.425,multiplicationStroop,2021.2.3,Win32,59.95922773,,,,,right,1,0.4014,0,41,41,19,1,4,9,4 | 9,5,1.4111,1.9756,congruent,right,,,,,,stimulusFile/physical.xlsx,,,,,,,,,,,,,,,,,,,,,,,,,,,,,,,
,,,,,,,,,,,,,,,694,2022-02-01_10h03.51.425,multiplicationStroop,2021.2.3,Win32,59.95922773,,,,,right,1,0.4332,0,42,42,65,1,2,2,2 | 2,0,1.4111,1.9756,neutral,right,,,,,,stimulusFile/physical.xlsx,,,,,,,,,,,,,,,,,,,,,,,,,,,,,,,
,,,,,,,,,,,,,,,694,2022-02-01_10h03.51.425,multiplicationStroop,2021.2.3,Win32,59.95922773,,,,,left,1,0.5081,0,43,43,25,1,3,4,3 | 4,1,1.9756,1.4111,incongruent,left,,,,,,stimulusFile/physical.xlsx,,,,,,,,,,,,,,,,,,,,,,,,,,,,,,,
,,,,,,,,,,,,,,,694,2022-02-01_10h03.51.425,multiplicationStroop,2021.2.3,Win32,59.95922773,,,,,right,1,0.5402,0,44,44,1,1,3,4,3 | 4,1,1.4111,1.9756,congruent,right,,,,,,stimulusFile/physical.xlsx,,,,,,,,,,,,,,,,,,,,,,,,,,,,,,,
,,,,,,,,,,,,,,,694,2022-02-01_10h03.51.425,multiplicationStroop,2021.2.3,Win32,59.95922773,,,,,right,1,0.5177,0,45,45,56,1,1,1,1 | 1,0,1.4111,1.9756,neutral,right,,,,,,stimulusFile/physical.xlsx,,,,,,,,,,,,,,,,,,,,,,,,,,,,,,,
,,,,,,,,,,,,,,,694,2022-02-01_10h03.51.425,multiplicationStroop,2021.2.3,Win32,59.95922773,,,,,right,1,0.4735,0,46,46,60,1,3,3,3 | 3,0,1.4111,1.9756,neutral,right,,,,,,stimulusFile/physical.xlsx,,,,,,,,,,,,,,,,,,,,,,,,,,,,,,,
,,,,,,,,,,,,,,,694,2022-02-01_10h03.51.425,multiplicationStroop,2021.2.3,Win32,59.95922773,,,,,left,1,0.5112,0,47,47,20,1,6,1,6 | 1,5,1.9756,1.4111,congruent,left,,,,,,stimulusFile/physical.xlsx,,,,,,,,,,,,,,,,,,,,,,,,,,,,,,,
,,,,,,,,,,,,,,,694,2022-02-01_10h03.51.425,multiplicationStroop,2021.2.3,Win32,59.95922773,,,,,left,1,0.5602,0,48,48,52,1,2,2,2 | 2,0,1.9756,1.4111,neutral,left,,,,,,stimulusFile/physical.xlsx,,,,,,,,,,,,,,,,,,,,,,,,,,,,,,,
,,,,,,,,,,,,,,,694,2022-02-01_10h03.51.425,multiplicationStroop,2021.2.3,Win32,59.95922773,,,,,right,1,0.5605,0,49,49,44,1,6,1,6 | 1,5,1.4111,1.9756,incongruent,right,,,,,,stimulusFile/physical.xlsx,,,,,,,,,,,,,,,,,,,,,,,,,,,,,,,
,,,,,,,,,,,,,,,694,2022-02-01_10h03.51.425,multiplicationStroop,2021.2.3,Win32,59.95922773,,,,,left,1,0.4778,0,50,50,15,1,9,7,9 | 7,2,1.9756,1.4111,congruent,left,,,,,,stimulusFile/physical.xlsx,,,,,,,,,,,,,,,,,,,,,,,,,,,,,,,
,,,,,,,,,,,,,,,694,2022-02-01_10h03.51.425,multiplicationStroop,2021.2.3,Win32,59.95922773,,,,,left,1,0.5922,0,51,51,24,1,1,2,1 | 2,1,1.9756,1.4111,incongruent,left,,,,,,stimulusFile/physical.xlsx,,,,,,,,,,,,,,,,,,,,,,,,,,,,,,,
,,,,,,,,,,,,,,,694,2022-02-01_10h03.51.425,multiplicationStroop,2021.2.3,Win32,59.95922773,,,,,left,1,0.4838,0,52,52,33,1,2,4,2 | 4,2,1.9756,1.4111,incongruent,left,,,,,,stimulusFile/physical.xlsx,,,,,,,,,,,,,,,,,,,,,,,,,,,,,,,
,,,,,,,,,,,,,,,694,2022-02-01_10h03.51.425,multiplicationStroop,2021.2.3,Win32,59.95922773,,,,,right,1,0.5172,0,53,53,9,1,2,4,2 | 4,2,1.4111,1.9756,congruent,right,,,,,,stimulusFile/physical.xlsx,,,,,,,,,,,,,,,,,,,,,,,,,,,,,,,
,,,,,,,,,,,,,,,694,2022-02-01_10h03.51.425,multiplicationStroop,2021.2.3,Win32,59.95922773,,,,,right,1,0.4917,0,54,54,18,1,3,8,3 | 8,5,1.4111,1.9756,congruent,right,,,,,,stimulusFile/physical.xlsx,,,,,,,,,,,,,,,,,,,,,,,,,,,,,,,
,,,,,,,,,,,,,,,694,2022-02-01_10h03.51.425,multiplicationStroop,2021.2.3,Win32,59.95922773,,,,,left,1,0.4751,0,55,55,32,1,1,3,1 | 3,2,1.9756,1.4111,incongruent,left,,,,,,stimulusFile/physical.xlsx,,,,,,,,,,,,,,,,,,,,,,,,,,,,,,,
,,,,,,,,,,,,,,,694,2022-02-01_10h03.51.425,multiplicationStroop,2021.2.3,Win32,59.95922773,,,,,right,1,0.5176,0,56,56,16,1,1,6,1 | 6,5,1.4111,1.9756,congruent,right,,,,,,stimulusFile/physical.xlsx,,,,,,,,,,,,,,,,,,,,,,,,,,,,,,,
,,,,,,,,,,,,,,,694,2022-02-01_10h03.51.425,multiplicationStroop,2021.2.3,Win32,59.95922773,,,,,right,1,0.7022,0,57,57,47,1,9,4,9 | 4,5,1.4111,1.9756,incongruent,right,,,,,,stimulusFile/physical.xlsx,,,,,,,,,,,,,,,,,,,,,,,,,,,,,,,
,,,,,,,,,,,,,,,694,2022-02-01_10h03.51.425,multiplicationStroop,2021.2.3,Win32,59.95922773,,,,,right,1,0.4855,0,58,58,62,1,8,8,8 | 8,0,1.4111,1.9756,neutral,right,,,,,,stimulusFile/physical.xlsx,,,,,,,,,,,,,,,,,,,,,,,,,,,,,,,
,,,,,,,,,,,,,,,694,2022-02-01_10h03.51.425,multiplicationStroop,2021.2.3,Win32,59.95922773,,,,,left,1,0.5265,0,59,59,21,1,7,2,7 | 2,5,1.9756,1.4111,congruent,left,,,,,,stimulusFile/physical.xlsx,,,,,,,,,,,,,,,,,,,,,,,,,,,,,,,
,,,,,,,,,,,,,,,694,2022-02-01_10h03.51.425,multiplicationStroop,2021.2.3,Win32,59.95922773,,,,,right,1,0.4175,0,60,60,67,1,4,4,4 | 4,0,1.4111,1.9756,neutral,right,,,,,,stimulusFile/physical.xlsx,,,,,,,,,,,,,,,,,,,,,,,,,,,,,,,
,,,,,,,,,,,,,,,694,2022-02-01_10h03.51.425,multiplicationStroop,2021.2.3,Win32,59.95922773,,,,,left,1,0.4341,0,61,61,41,1,2,7,2 | 7,5,1.9756,1.4111,incongruent,left,,,,,,stimulusFile/physical.xlsx,,,,,,,,,,,,,,,,,,,,,,,,,,,,,,,
,,,,,,,,,,,,,,,694,2022-02-01_10h03.51.425,multiplicationStroop,2021.2.3,Win32,59.95922773,,,,,right,0,0.2765,0,62,62,53,1,4,4,4 | 4,0,1.9756,1.4111,neutral,left,,,,,,stimulusFile/physical.xlsx,,,,,,,,,,,,,,,,,,,,,,,,,,,,,,,
,,,,,,,,,,,,,,,694,2022-02-01_10h03.51.425,multiplicationStroop,2021.2.3,Win32,59.95922773,,,,,right,0,0.5272,0,63,63,69,1,7,7,7 | 7,0,1.4111,1.9756,neutral,left,,,,,,stimulusFile/physical.xlsx,,,,,,,,,,,,,,,,,,,,,,,,,,,,,,,
,,,,,,,,,,,,,,,694,2022-02-01_10h03.51.425,multiplicationStroop,2021.2.3,Win32,59.95922773,,,,,right,1,0.5408,0,64,64,2,1,6,7,6 | 7,1,1.4111,1.9756,congruent,right,,,,,,stimulusFile/physical.xlsx,,,,,,,,,,,,,,,,,,,,,,,,,,,,,,,
,,,,,,,,,,,,,,,694,2022-02-01_10h03.51.425,multiplicationStroop,2021.2.3,Win32,59.95922773,,,,,left,1,0.4904,0,65,65,13,1,4,2,4 | 2,2,1.9756,1.4111,congruent,left,,,,,,stimulusFile/physical.xlsx,,,,,,,,,,,,,,,,,,,,,,,,,,,,,,,
,,,,,,,,,,,,,,,694,2022-02-01_10h03.51.425,multiplicationStroop,2021.2.3,Win32,59.95922773,,,,,left,1,0.5007,0,66,66,70,1,8,8,8 | 8,0,1.9756,1.4111,neutral,left,,,,,,stimulusFile/physical.xlsx,,,,,,,,,,,,,,,,,,,,,,,,,,,,,,,
,,,,,,,,,,,,,,,694,2022-02-01_10h03.51.425,multiplicationStroop,2021.2.3,Win32,59.95922773,,,,,right,1,0.4682,0,67,67,57,1,2,2,2 | 2,0,1.4111,1.9756,neutral,right,,,,,,stimulusFile/physical.xlsx,,,,,,,,,,,,,,,,,,,,,,,,,,,,,,,
,,,,,,,,,,,,,,,694,2022-02-01_10h03.51.425,multiplicationStroop,2021.2.3,Win32,59.95922773,,,,,left,1,0.4712,0,68,68,35,1,7,9,7 | 9,2,1.9756,1.4111,incongruent,left,,,,,,stimulusFile/physical.xlsx,,,,,,,,,,,,,,,,,,,,,,,,,,,,,,,
,,,,,,,,,,,,,,,694,2022-02-01_10h03.51.425,multiplicationStroop,2021.2.3,Win32,59.95922773,,,,,left,1,0.5392,0,69,69,42,1,3,8,3 | 8,5,1.9756,1.4111,incongruent,left,,,,,,stimulusFile/physical.xlsx,,,,,,,,,,,,,,,,,,,,,,,,,,,,,,,
,,,,,,,,,,,,,,,694,2022-02-01_10h03.51.425,multiplicationStroop,2021.2.3,Win32,59.95922773,,,,,right,1,0.5078,0,70,70,28,1,2,1,2 | 1,1,1.4111,1.9756,incongruent,right,,,,,,stimulusFile/physical.xlsx,,,,,,,,,,,,,,,,,,,,,,,,,,,,,,,
,,,,,,,,,,,,,,,694,2022-02-01_10h03.51.425,multiplicationStroop,2021.2.3,Win32,59.95922773,,,,,right,1,0.5004,0,71,71,46,1,8,3,8 | 3,5,1.4111,1.9756,incongruent,right,,,,,,stimulusFile/physical.xlsx,,,,,,,,,,,,,,,,,,,,,,,,,,,,,,,
,,,,,,,,,,,,,,,694,2022-02-01_10h03.51.425,multiplicationStroop,2021.2.3,Win32,59.95922773,,,,,,,,,,,,,,,,,,,,,0,1,1,1,1,stimulusFile/physical.xlsx,PHYSICALLY larger (larger font size).,images/physicallyLarger.png,,,,,,,,,,,,,,,,,,,,,,,,,,,,,
,,,,,,,,,,,,,,,694,2022-02-01_10h03.51.425,multiplicationStroop,2021.2.3,Win32,59.95922773,,,,,,,,,,,,,,,,,,,,,,,,,,,,,space,9.8818,space,2.3057,40,4.2228,1,0,0,0,24,1,8,×,5,8 × 5,neutral,largerFirst,1.5,1.5,40,,,,,,,,
,,,,,,,,,,,,,,,694,2022-02-01_10h03.51.425,multiplicationStroop,2021.2.3,Win32,59.95922773,,,,,,,,,,,,,,,,,,,,,,,,,,,,,,,,,30,2.558,1,0,1,1,19,1,6,×,5,6 × 5,neutral,largerFirst,1.5,1.5,30,,,,,,,,
,,,,,,,,,,,,,,,694,2022-02-01_10h03.51.425,multiplicationStroop,2021.2.3,Win32,59.95922773,,,,,,,,,,,,,,,,,,,,,,,,,,,,,,,,,12,1.6824,1,0,2,2,25,1,6,×,2,6 × 2,neutral,largerFirst,1.5,1.5,12,,,,,,,,
,,,,,,,,,,,,,,,694,2022-02-01_10h03.51.425,multiplicationStroop,2021.2.3,Win32,59.95922773,,,,,,,,,,,,,,,,,,,,,,,,,,,,,,,,,4,1.5807,1,0,3,3,28,1,2,×,2,2 × 2,neutral,tie,1.5,1.5,4,,,,,,,,
,,,,,,,,,,,,,,,694,2022-02-01_10h03.51.425,multiplicationStroop,2021.2.3,Win32,59.95922773,,,,,,,,,,,,,,,,,,,,,,,,,,,,,,,,,28,2.1823,1,0,4,4,17,1,7,×,4,7 × 4,neutral,largerFirst,1.5,1.5,28,,,,,,,,
,,,,,,,,,,,,,,,694,2022-02-01_10h03.51.425,multiplicationStroop,2021.2.3,Win32,59.95922773,,,,,,,,,,,,,,,,,,,,,,,,,,,,,,,,,32,1.8313,1,0,5,5,23,1,8,×,4,8 × 4,neutral,largerFirst,1.5,1.5,32,,,,,,,,
,,,,,,,,,,,,,,,694,2022-02-01_10h03.51.425,multiplicationStroop,2021.2.3,Win32,59.95922773,,,,,,,,,,,,,,,,,,,,,,,,,,,,,,,,,29,2.8651,0,0,6,6,20,1,5,×,4,5 × 4,neutral,largerFirst,1.5,1.5,20,,,,,,,,
,,,,,,,,,,,,,,,694,2022-02-01_10h03.51.425,multiplicationStroop,2021.2.3,Win32,59.95922773,,,,,,,,,,,,,,,,,,,,,,,,,,,,,,,,,81,3.2151,1,0,7,7,35,1,9,×,9,9 × 9,neutral,tie,1.5,1.5,81,,,,,,,,
,,,,,,,,,,,,,,,694,2022-02-01_10h03.51.425,multiplicationStroop,2021.2.3,Win32,59.95922773,,,,,,,,,,,,,,,,,,,,,,,,,,,,,,,,,56,2.2243,1,0,8,8,9,1,7,×,8,7 × 8,neutral,smallerFirst,1.5,1.5,56,,,,,,,,
,,,,,,,,,,,,,,,694,2022-02-01_10h03.51.425,multiplicationStroop,2021.2.3,Win32,59.95922773,,,,,,,,,,,,,,,,,,,,,,,,,,,,,,,,,45,2.1649,1,0,9,9,10,1,5,×,9,5 × 9,neutral,smallerFirst,1.5,1.5,45,,,,,,,,
,,,,,,,,,,,,,,,694,2022-02-01_10h03.51.425,multiplicationStroop,2021.2.3,Win32,59.95922773,,,,,,,,,,,,,,,,,,,,,,,,,,,,,,,,,27,3.7819,1,0,10,10,14,1,9,×,3,9 × 3,neutral,largerFirst,1.5,1.5,27,,,,,,,,
,,,,,,,,,,,,,,,694,2022-02-01_10h03.51.425,multiplicationStroop,2021.2.3,Win32,59.95922773,,,,,,,,,,,,,,,,,,,,,,,,,,,,,,,,,18,2.2408,1,0,11,11,18,1,9,×,2,9 × 2,neutral,largerFirst,1.5,1.5,18,,,,,,,,
,,,,,,,,,,,,,,,694,2022-02-01_10h03.51.425,multiplicationStroop,2021.2.3,Win32,59.95922773,,,,,,,,,,,,,,,,,,,,,,,,,,,,,,,,,15,1.648,1,0,12,12,5,1,3,×,5,3 × 5,neutral,smallerFirst,1.5,1.5,15,,,,,,,,
,,,,,,,,,,,,,,,694,2022-02-01_10h03.51.425,multiplicationStroop,2021.2.3,Win32,59.95922773,,,,,,,,,,,,,,,,,,,,,,,,,,,,,,,,,49,3.1151,1,0,13,13,33,1,7,×,7,7 × 7,neutral,tie,1.5,1.5,49,,,,,,,,
,,,,,,,,,,,,,,,694,2022-02-01_10h03.51.425,multiplicationStroop,2021.2.3,Win32,59.95922773,,,,,,,,,,,,,,,,,,,,,,,,,,,,,,,,,8,2.1981,1,0,14,14,3,1,2,×,4,2 × 4,neutral,smallerFirst,1.5,1.5,8,,,,,,,,
,,,,,,,,,,,,,,,694,2022-02-01_10h03.51.425,multiplicationStroop,2021.2.3,Win32,59.95922773,,,,,,,,,,,,,,,,,,,,,,,,,,,,,,,,,48,2.8315,1,0,15,15,15,1,8,×,6,8 × 6,neutral,largerFirst,1.5,1.5,48,,,,,,,,
,,,,,,,,,,,,,,,694,2022-02-01_10h03.51.425,multiplicationStroop,2021.2.3,Win32,59.95922773,,,,,,,,,,,,,,,,,,,,,,,,,,,,,,,,,54,2.6579,1,0,16,16,7,1,6,×,9,6 × 9,neutral,smallerFirst,1.5,1.5,54,,,,,,,,
,,,,,,,,,,,,,,,694,2022-02-01_10h03.51.425,multiplicationStroop,2021.2.3,Win32,59.95922773,,,,,,,,,,,,,,,,,,,,,,,,,,,,,,,,,16,2.4149,1,0,17,17,30,1,4,×,4,4 × 4,neutral,tie,1.5,1.5,16,,,,,,,,
,,,,,,,,,,,,,,,694,2022-02-01_10h03.51.425,multiplicationStroop,2021.2.3,Win32,59.95922773,,,,,,,,,,,,,,,,,,,,,,,,,,,,,,,,,18,3.2813,1,0,18,18,0,1,3,×,6,3 × 6,neutral,smallerFirst,1.5,1.5,18,,,,,,,,
,,,,,,,,,,,,,,,694,2022-02-01_10h03.51.425,multiplicationStroop,2021.2.3,Win32,59.95922773,,,,,,,,,,,,,,,,,,,,,,,,,,,,,,,,,14,3.0414,1,0,19,19,16,1,7,×,2,7 × 2,neutral,largerFirst,1.5,1.5,14,,,,,,,,
,,,,,,,,,,,,,,,694,2022-02-01_10h03.51.425,multiplicationStroop,2021.2.3,Win32,59.95922773,,,,,,,,,,,,,,,,,,,,,,,,,,,,,,,,,16,2.7737,1,0,20,20,13,1,2,×,8,2 × 8,neutral,smallerFirst,1.5,1.5,16,,,,,,,,
,,,,,,,,,,,,,,,694,2022-02-01_10h03.51.425,multiplicationStroop,2021.2.3,Win32,59.95922773,,,,,,,,,,,,,,,,,,,,,,,,,,,,,,,,,24,2.7148,1,0,21,21,2,1,4,×,6,4 × 6,neutral,smallerFirst,1.5,1.5,24,,,,,,,,
,,,,,,,,,,,,,,,694,2022-02-01_10h03.51.425,multiplicationStroop,2021.2.3,Win32,59.95922773,,,,,,,,,,,,,,,,,,,,,,,,,,,,,,,,,35,2.4819,1,0,22,22,1,1,5,×,7,5 × 7,neutral,smallerFirst,1.5,1.5,35,,,,,,,,
,,,,,,,,,,,,,,,694,2022-02-01_10h03.51.425,multiplicationStroop,2021.2.3,Win32,59.95922773,,,,,,,,,,,,,,,,,,,,,,,,,,,,,,,,,10,2.1411,1,0,23,23,4,1,2,×,5,2 × 5,neutral,smallerFirst,1.5,1.5,10,,,,,,,,
,,,,,,,,,,,,,,,694,2022-02-01_10h03.51.425,multiplicationStroop,2021.2.3,Win32,59.95922773,,,,,,,,,,,,,,,,,,,,,,,,,,,,,,,,,64,4.148,1,0,24,24,34,1,8,×,8,8 × 8,neutral,tie,1.5,1.5,64,,,,,,,,
,,,,,,,,,,,,,,,694,2022-02-01_10h03.51.425,multiplicationStroop,2021.2.3,Win32,59.95922773,,,,,,,,,,,,,,,,,,,,,,,,,,,,,,,,,12,2.2242,1,0,25,25,21,1,4,×,3,4 × 3,neutral,largerFirst,1.5,1.5,12,,,,,,,,
,,,,,,,,,,,,,,,694,2022-02-01_10h03.51.425,multiplicationStroop,2021.2.3,Win32,59.95922773,,,,,,,,,,,,,,,,,,,,,,,,,,,,,,,,,42,2.8651,1,0,26,26,6,1,6,×,7,6 × 7,neutral,smallerFirst,1.5,1.5,42,,,,,,,,
,,,,,,,,,,,,,,,694,2022-02-01_10h03.51.425,multiplicationStroop,2021.2.3,Win32,59.95922773,,,,,,,,,,,,,,,,,,,,,,,,,,,,,,,,,24,1.999,1,0,27,27,22,1,8,×,3,8 × 3,neutral,largerFirst,1.5,1.5,24,,,,,,,,
,,,,,,,,,,,,,,,694,2022-02-01_10h03.51.425,multiplicationStroop,2021.2.3,Win32,59.95922773,,,,,,,,,,,,,,,,,,,,,,,,,,,,,,,,,63,3.1304,1,0,28,28,12,1,7,×,9,7 × 9,neutral,smallerFirst,1.5,1.5,63,,,,,,,,
,,,,,,,,,,,,,,,694,2022-02-01_10h03.51.425,multiplicationStroop,2021.2.3,Win32,59.95922773,,,,,,,,,,,,,,,,,,,,,,,,,,,,,,,,,25,1.8076,1,0,29,29,31,1,5,×,5,5 × 5,neutral,tie,1.5,1.5,25,,,,,,,,
,,,,,,,,,,,,,,,694,2022-02-01_10h03.51.425,multiplicationStroop,2021.2.3,Win32,59.95922773,,,,,,,,,,,,,,,,,,,,,,,,,,,,,,,,,9,1.9649,1,0,30,30,29,1,3,×,3,3 × 3,neutral,tie,1.5,1.5,9,,,,,,,,
,,,,,,,,,,,,,,,694,2022-02-01_10h03.51.425,multiplicationStroop,2021.2.3,Win32,59.95922773,,,,,,,,,,,,,,,,,,,,,,,,,,,,,,,,,36,3.5817,1,0,31,31,32,1,6,×,6,6 × 6,neutral,tie,1.5,1.5,36,,,,,,,,
,,,,,,,,,,,,,,,694,2022-02-01_10h03.51.425,multiplicationStroop,2021.2.3,Win32,59.95922773,,,,,,,,,,,,,,,,,,,,,,,,,,,,,,,,,72,2.9152,1,0,32,32,11,1,8,×,9,8 × 9,neutral,smallerFirst,1.5,1.5,72,,,,,,,,
,,,,,,,,,,,,,,,694,2022-02-01_10h03.51.425,multiplicationStroop,2021.2.3,Win32,59.95922773,,,,,,,,,,,,,,,,,,,,,,,,,,,,,,,,,21,2.1405,1,0,33,33,8,1,3,×,7,3 × 7,neutral,smallerFirst,1.5,1.5,21,,,,,,,,
,,,,,,,,,,,,,,,694,2022-02-01_10h03.51.425,multiplicationStroop,2021.2.3,Win32,59.95922773,,,,,,,,,,,,,,,,,,,,,,,,,,,,,,,,,36,3.398,1,0,34,34,27,1,9,×,4,9 × 4,neutral,largerFirst,1.5,1.5,36,,,,,,,,
,,,,,,,,,,,,,,,694,2022-02-01_10h03.51.425,multiplicationStroop,2021.2.3,Win32,59.95922773,,,,,,,,,,,,,,,,,,,,,,,,,,,,,,,,,6,2.2252,1,0,35,35,26,1,3,×,2,3 × 2,neutral,largerFirst,1.5,1.5,6,,,,,,,,
,,,,,,,,,,,,,,,694,2022-02-01_10h03.51.425,multiplicationStroop,2021.2.3,Win32,59.95922773,,,,,,,,,,,,,,,,,,,,,,,,,,,,,,,,,,,,,,,,,,,,,,,,,,0,0,0,1,1,stimulusFile/mult_blk2.xlsx,,
,,,,,,,,,,,,,,,694,2022-02-01_10h03.51.425,multiplicationStroop,2021.2.3,Win32,59.95922773,,,,,,,,,,,,,,,,,,,,,,,,,,,,,,,space,3.088,35,3.0732,1,0,0,0,15,1,7,×,5,7 × 5,neutral,largerFirst,1.5,1.5,35,,,,,,,,
,,,,,,,,,,,,,,,694,2022-02-01_10h03.51.425,multiplicationStroop,2021.2.3,Win32,59.95922773,,,,,,,,,,,,,,,,,,,,,,,,,,,,,,,,,49,4.1074,1,0,1,1,33,1,7,×,7,7 × 7,neutral,tie,1.5,1.5,49,,,,,,,,
,,,,,,,,,,,,,,,694,2022-02-01_10h03.51.425,multiplicationStroop,2021.2.3,Win32,59.95922773,,,,,,,,,,,,,,,,,,,,,,,,,,,,,,,,,62,4.3577,0,0,2,2,26,1,9,×,7,9 × 7,neutral,largerFirst,1.5,1.5,63,,,,,,,,
,,,,,,,,,,,,,,,694,2022-02-01_10h03.51.425,multiplicationStroop,2021.2.3,Win32,59.95922773,,,,,,,,,,,,,,,,,,,,,,,,,,,,,,,,,32,3.7403,1,0,3,3,9,1,4,×,8,4 × 8,neutral,smallerFirst,1.5,1.5,32,,,,,,,,
,,,,,,,,,,,,,,,694,2022-02-01_10h03.51.425,multiplicationStroop,2021.2.3,Win32,59.95922773,,,,,,,,,,,,,,,,,,,,,,,,,,,,,,,,,12,1.8739,1,0,4,4,11,1,2,×,6,2 × 6,neutral,smallerFirst,1.5,1.5,12,,,,,,,,
,,,,,,,,,,,,,,,694,2022-02-01_10h03.51.425,multiplicationStroop,2021.2.3,Win32,59.95922773,,,,,,,,,,,,,,,,,,,,,,,,,,,,,,,,,64,2.366,1,0,5,5,34,1,8,×,8,8 × 8,neutral,tie,1.5,1.5,64,,,,,,,,
,,,,,,,,,,,,,,,694,2022-02-01_10h03.51.425,multiplicationStroop,2021.2.3,Win32,59.95922773,,,,,,,,,,,,,,,,,,,,,,,,,,,,,,,,,36,3.4813,1,0,6,6,13,1,4,×,9,4 × 9,neutral,smallerFirst,1.5,1.5,36,,,,,,,,
,,,,,,,,,,,,,,,694,2022-02-01_10h03.51.425,multiplicationStroop,2021.2.3,Win32,59.95922773,,,,,,,,,,,,,,,,,,,,,,,,,,,,,,,,,10,2.9738,1,0,7,7,18,1,5,×,2,5 × 2,neutral,largerFirst,1.5,1.5,10,,,,,,,,
,,,,,,,,,,,,,,,694,2022-02-01_10h03.51.425,multiplicationStroop,2021.2.3,Win32,59.95922773,,,,,,,,,,,,,,,,,,,,,,,,,,,,,,,,,30,2.4314,1,0,8,8,5,1,5,×,6,5 × 6,neutral,smallerFirst,1.5,1.5,30,,,,,,,,
,,,,,,,,,,,,,,,694,2022-02-01_10h03.51.425,multiplicationStroop,2021.2.3,Win32,59.95922773,,,,,,,,,,,,,,,,,,,,,,,,,,,,,,,,,24,1.7245,1,0,9,9,16,1,6,×,4,6 × 4,neutral,largerFirst,1.5,1.5,24,,,,,,,,
,,,,,,,,,,,,,,,694,2022-02-01_10h03.51.425,multiplicationStroop,2021.2.3,Win32,59.95922773,,,,,,,,,,,,,,,,,,,,,,,,,,,,,,,,,25,1.8145,1,0,10,10,31,1,5,×,5,5 × 5,neutral,tie,1.5,1.5,25,,,,,,,,
,,,,,,,,,,,,,,,694,2022-02-01_10h03.51.425,multiplicationStroop,2021.2.3,Win32,59.95922773,,,,,,,,,,,,,,,,,,,,,,,,,,,,,,,,,12,1.8313,1,0,11,11,7,1,3,×,4,3 × 4,neutral,smallerFirst,1.5,1.5,12,,,,,,,,
,,,,,,,,,,,,,,,694,2022-02-01_10h03.51.425,multiplicationStroop,2021.2.3,Win32,59.95922773,,,,,,,,,,,,,,,,,,,,,,,,,,,,,,,,,16,1.9151,1,0,12,12,30,1,4,×,4,4 × 4,neutral,tie,1.5,1.5,16,,,,,,,,
,,,,,,,,,,,,,,,694,2022-02-01_10h03.51.425,multiplicationStroop,2021.2.3,Win32,59.95922773,,,,,,,,,,,,,,,,,,,,,,,,,,,,,,,,,42,3.8982,1,0,13,13,20,1,7,×,6,7 × 6,neutral,largerFirst,1.5,1.5,42,,,,,,,,
,,,,,,,,,,,,,,,694,2022-02-01_10h03.51.425,multiplicationStroop,2021.2.3,Win32,59.95922773,,,,,,,,,,,,,,,,,,,,,,,,,,,,,,,,,16,2.1085,1,0,14,14,27,1,8,×,2,8 × 2,neutral,largerFirst,1.5,1.5,16,,,,,,,,
,,,,,,,,,,,,,,,694,2022-02-01_10h03.51.425,multiplicationStroop,2021.2.3,Win32,59.95922773,,,,,,,,,,,,,,,,,,,,,,,,,,,,,,,,,72,3.1476,1,0,15,15,25,1,9,×,8,9 × 8,neutral,largerFirst,1.5,1.5,72,,,,,,,,
,,,,,,,,,,,,,,,694,2022-02-01_10h03.51.425,multiplicationStroop,2021.2.3,Win32,59.95922773,,,,,,,,,,,,,,,,,,,,,,,,,,,,,,,,,21,1.8578,1,0,16,16,22,1,7,×,3,7 × 3,neutral,largerFirst,1.5,1.5,21,,,,,,,,
,,,,,,,,,,,,,,,694,2022-02-01_10h03.51.425,multiplicationStroop,2021.2.3,Win32,59.95922773,,,,,,,,,,,,,,,,,,,,,,,,,,,,,,,,,28,2.7318,1,0,17,17,3,1,4,×,7,4 × 7,neutral,smallerFirst,1.5,1.5,28,,,,,,,,
,,,,,,,,,,,,,,,694,2022-02-01_10h03.51.425,multiplicationStroop,2021.2.3,Win32,59.95922773,,,,,,,,,,,,,,,,,,,,,,,,,,,,,,,,,36,2.1316,1,0,18,18,32,1,6,×,6,6 × 6,neutral,tie,1.5,1.5,36,,,,,,,,
,,,,,,,,,,,,,,,694,2022-02-01_10h03.51.425,multiplicationStroop,2021.2.3,Win32,59.95922773,,,,,,,,,,,,,,,,,,,,,,,,,,,,,,,,,18,2.0144,1,0,19,19,4,1,2,×,9,2 × 9,neutral,smallerFirst,1.5,1.5,18,,,,,,,,
,,,,,,,,,,,,,,,694,2022-02-01_10h03.51.425,multiplicationStroop,2021.2.3,Win32,59.95922773,,,,,,,,,,,,,,,,,,,,,,,,,,,,,,,,,27,3.915,1,0,20,20,0,1,3,×,9,3 × 9,neutral,smallerFirst,1.5,1.5,27,,,,,,,,
,,,,,,,,,,,,,,,694,2022-02-01_10h03.51.425,multiplicationStroop,2021.2.3,Win32,59.95922773,,,,,,,,,,,,,,,,,,,,,,,,,,,,,,,,,81,2.691,1,0,21,21,35,1,9,×,9,9 × 9,neutral,tie,1.5,1.5,81,,,,,,,,
,,,,,,,,,,,,,,,694,2022-02-01_10h03.51.425,multiplicationStroop,2021.2.3,Win32,59.95922773,,,,,,,,,,,,,,,,,,,,,,,,,,,,,,,,,40,2.464,1,0,22,22,10,1,5,×,8,5 × 8,neutral,smallerFirst,1.5,1.5,40,,,,,,,,
,,,,,,,,,,,,,,,694,2022-02-01_10h03.51.425,multiplicationStroop,2021.2.3,Win32,59.95922773,,,,,,,,,,,,,,,,,,,,,,,,,,,,,,,,,18,2.4593,1,0,23,23,14,1,6,×,3,6 × 3,neutral,largerFirst,1.5,1.5,18,,,,,,,,
,,,,,,,,,,,,,,,694,2022-02-01_10h03.51.425,multiplicationStroop,2021.2.3,Win32,59.95922773,,,,,,,,,,,,,,,,,,,,,,,,,,,,,,,,,56,5.6145,1,0,24,24,23,1,8,×,7,8 × 7,neutral,largerFirst,1.5,1.5,56,,,,,,,,
,,,,,,,,,,,,,,,694,2022-02-01_10h03.51.425,multiplicationStroop,2021.2.3,Win32,59.95922773,,,,,,,,,,,,,,,,,,,,,,,,,,,,,,,,,6,1.941,1,0,25,25,12,1,2,×,3,2 × 3,neutral,smallerFirst,1.5,1.5,6,,,,,,,,
,,,,,,,,,,,,,,,694,2022-02-01_10h03.51.425,multiplicationStroop,2021.2.3,Win32,59.95922773,,,,,,,,,,,,,,,,,,,,,,,,,,,,,,,,,8,2.2993,1,0,26,26,17,1,4,×,2,4 × 2,neutral,largerFirst,1.5,1.5,8,,,,,,,,
,,,,,,,,,,,,,,,694,2022-02-01_10h03.51.425,multiplicationStroop,2021.2.3,Win32,59.95922773,,,,,,,,,,,,,,,,,,,,,,,,,,,,,,,,,9,1.9648,1,0,27,27,29,1,3,×,3,3 × 3,neutral,tie,1.5,1.5,9,,,,,,,,
,,,,,,,,,,,,,,,694,2022-02-01_10h03.51.425,multiplicationStroop,2021.2.3,Win32,59.95922773,,,,,,,,,,,,,,,,,,,,,,,,,,,,,,,,,48,2.9312,1,0,28,28,1,1,6,×,8,6 × 8,neutral,smallerFirst,1.5,1.5,48,,,,,,,,
,,,,,,,,,,,,,,,694,2022-02-01_10h03.51.425,multiplicationStroop,2021.2.3,Win32,59.95922773,,,,,,,,,,,,,,,,,,,,,,,,,,,,,,,,,15,1.832,1,0,29,29,19,1,5,×,3,5 × 3,neutral,largerFirst,1.5,1.5,15,,,,,,,,
,,,,,,,,,,,,,,,694,2022-02-01_10h03.51.425,multiplicationStroop,2021.2.3,Win32,59.95922773,,,,,,,,,,,,,,,,,,,,,,,,,,,,,,,,,24,3.0977,1,0,30,30,8,1,3,×,8,3 × 8,neutral,smallerFirst,1.5,1.5,24,,,,,,,,
,,,,,,,,,,,,,,,694,2022-02-01_10h03.51.425,multiplicationStroop,2021.2.3,Win32,59.95922773,,,,,,,,,,,,,,,,,,,,,,,,,,,,,,,,,20,2.0581,1,0,31,31,6,1,4,×,5,4 × 5,neutral,smallerFirst,1.5,1.5,20,,,,,,,,
,,,,,,,,,,,,,,,694,2022-02-01_10h03.51.425,multiplicationStroop,2021.2.3,Win32,59.95922773,,,,,,,,,,,,,,,,,,,,,,,,,,,,,,,,,14,1.8478,1,0,32,32,2,1,2,×,7,2 × 7,neutral,smallerFirst,1.5,1.5,14,,,,,,,,
,,,,,,,,,,,,,,,694,2022-02-01_10h03.51.425,multiplicationStroop,2021.2.3,Win32,59.95922773,,,,,,,,,,,,,,,,,,,,,,,,,,,,,,,,,45,2.415,1,0,33,33,24,1,9,×,5,9 × 5,neutral,largerFirst,1.5,1.5,45,,,,,,,,
,,,,,,,,,,,,,,,694,2022-02-01_10h03.51.425,multiplicationStroop,2021.2.3,Win32,59.95922773,,,,,,,,,,,,,,,,,,,,,,,,,,,,,,,,,4,1.6484,1,0,34,34,28,1,2,×,2,2 × 2,neutral,tie,1.5,1.5,4,,,,,,,,
,,,,,,,,,,,,,,,694,2022-02-01_10h03.51.425,multiplicationStroop,2021.2.3,Win32,59.95922773,,,,,,,,,,,,,,,,,,,,,,,,,,,,,,,,,54,2.515,1,0,35,35,21,1,9,×,6,9 × 6,neutral,largerFirst,1.5,1.5,54,,,,,,,,
,,,,,,,,,,,,,,,694,2022-02-01_10h03.51.425,multiplicationStroop,2021.2.3,Win32,59.95922773,,,,,,,,,,,,,,,,,,,,,,,,,,,,,,,,,,,,,,,,,,,,,,,,,,0,1,1,0,1,stimulusFile/mult_blk1.xlsx,,
,,,,,,,,,,,,,,,694,2022-02-01_10h03.51.425,multiplicationStroop,2021.2.3,Win32,59.95922773,,,,,,,,,,,,,,,,,,,,,,,,,,,,,,,space,11.566,28,3.3293,1,0,0,0,13,1,4,×,7,4 × 7,congruent,smallerFirst,1,2,28,,,,,,,,
,,,,,,,,,,,,,,,694,2022-02-01_10h03.51.425,multiplicationStroop,2021.2.3,Win32,59.95922773,,,,,,,,,,,,,,,,,,,,,,,,,,,,,,,,,32,5.3472,1,0,1,1,6,1,4,×,8,4 × 8,congruent,smallerFirst,1,2,32,,,,,,,,
,,,,,,,,,,,,,,,694,2022-02-01_10h03.51.425,multiplicationStroop,2021.2.3,Win32,59.95922773,,,,,,,,,,,,,,,,,,,,,,,,,,,,,,,,,16,2.724,1,0,2,2,30,1,4,×,4,4 × 4,neutral,tie,1,2,16,,,,,,,,
,,,,,,,,,,,,,,,694,2022-02-01_10h03.51.425,multiplicationStroop,2021.2.3,Win32,59.95922773,,,,,,,,,,,,,,,,,,,,,,,,,,,,,,,,,8,2.3482,1,0,3,3,23,1,4,×,2,4 × 2,congruent,largerFirst,2,1,8,,,,,,,,
,,,,,,,,,,,,,,,694,2022-02-01_10h03.51.425,multiplicationStroop,2021.2.3,Win32,59.95922773,,,,,,,,,,,,,,,,,,,,,,,,,,,,,,,,,25,2.1485,1,0,4,4,31,1,5,×,5,5 × 5,neutral,tie,1,2,25,,,,,,,,
,,,,,,,,,,,,,,,694,2022-02-01_10h03.51.425,multiplicationStroop,2021.2.3,Win32,59.95922773,,,,,,,,,,,,,,,,,,,,,,,,,,,,,,,,,36,3.0319,1,0,5,5,32,1,6,×,6,6 × 6,neutral,tie,1,2,36,,,,,,,,
,,,,,,,,,,,,,,,694,2022-02-01_10h03.51.425,multiplicationStroop,2021.2.3,Win32,59.95922773,,,,,,,,,,,,,,,,,,,,,,,,,,,,,,,,,40,3.5403,1,0,6,6,20,1,8,×,5,8 × 5,congruent,largerFirst,2,1,40,,,,,,,,
,,,,,,,,,,,,,,,694,2022-02-01_10h03.51.425,multiplicationStroop,2021.2.3,Win32,59.95922773,,,,,,,,,,,,,,,,,,,,,,,,,,,,,,,,,30,2.1565,1,0,7,7,1,1,5,×,6,5 × 6,congruent,smallerFirst,1,2,30,,,,,,,,
,,,,,,,,,,,,,,,694,2022-02-01_10h03.51.425,multiplicationStroop,2021.2.3,Win32,59.95922773,,,,,,,,,,,,,,,,,,,,,,,,,,,,,,,,,49,3.4153,1,0,8,8,33,1,7,×,7,7 × 7,neutral,tie,1,2,49,,,,,,,,
,,,,,,,,,,,,,,,694,2022-02-01_10h03.51.425,multiplicationStroop,2021.2.3,Win32,59.95922773,,,,,,,,,,,,,,,,,,,,,,,,,,,,,,,,,64,2.4741,1,0,9,9,34,1,8,×,8,8 × 8,neutral,tie,1,2,64,,,,,,,,
,,,,,,,,,,,,,,,694,2022-02-01_10h03.51.425,multiplicationStroop,2021.2.3,Win32,59.95922773,,,,,,,,,,,,,,,,,,,,,,,,,,,,,,,,,72,2.515,1,0,10,10,3,1,8,×,9,8 × 9,congruent,smallerFirst,1,2,72,,,,,,,,
,,,,,,,,,,,,,,,694,2022-02-01_10h03.51.425,multiplicationStroop,2021.2.3,Win32,59.95922773,,,,,,,,,,,,,,,,,,,,,,,,,,,,,,,,,42,5.0478,1,0,11,11,17,1,7,×,6,7 × 6,congruent,largerFirst,2,1,42,,,,,,,,
,,,,,,,,,,,,,,,694,2022-02-01_10h03.51.425,multiplicationStroop,2021.2.3,Win32,59.95922773,,,,,,,,,,,,,,,,,,,,,,,,,,,,,,,,,24,2.5579,1,0,12,12,11,1,4,×,6,4 × 6,congruent,smallerFirst,1,2,24,,,,,,,,
,,,,,,,,,,,,,,,694,2022-02-01_10h03.51.425,multiplicationStroop,2021.2.3,Win32,59.95922773,,,,,,,,,,,,,,,,,,,,,,,,,,,,,,,,,63,3.3138,1,0,13,13,7,1,7,×,9,7 × 9,congruent,smallerFirst,1,2,63,,,,,,,,
,,,,,,,,,,,,,,,694,2022-02-01_10h03.51.425,multiplicationStroop,2021.2.3,Win32,59.95922773,,,,,,,,,,,,,,,,,,,,,,,,,,,,,,,,,12,1.7153,1,0,14,14,5,1,2,×,6,2 × 6,congruent,smallerFirst,1,2,12,,,,,,,,
,,,,,,,,,,,,,,,694,2022-02-01_10h03.51.425,multiplicationStroop,2021.2.3,Win32,59.95922773,,,,,,,,,,,,,,,,,,,,,,,,,,,,,,,,,54,2.6652,1,0,15,15,26,1,9,×,6,9 × 6,congruent,largerFirst,2,1,54,,,,,,,,
,,,,,,,,,,,,,,,694,2022-02-01_10h03.51.425,multiplicationStroop,2021.2.3,Win32,59.95922773,,,,,,,,,,,,,,,,,,,,,,,,,,,,,,,,,20,2.0076,1,0,16,16,21,1,5,×,4,5 × 4,congruent,largerFirst,2,1,20,,,,,,,,
,,,,,,,,,,,,,,,694,2022-02-01_10h03.51.425,multiplicationStroop,2021.2.3,Win32,59.95922773,,,,,,,,,,,,,,,,,,,,,,,,,,,,,,,,,16,2.7478,1,0,17,17,19,1,8,×,2,8 × 2,congruent,largerFirst,2,1,16,,,,,,,,
,,,,,,,,,,,,,,,694,2022-02-01_10h03.51.425,multiplicationStroop,2021.2.3,Win32,59.95922773,,,,,,,,,,,,,,,,,,,,,,,,,,,,,,,,,36,2.7482,1,0,18,18,14,1,9,×,4,9 × 4,congruent,largerFirst,2,1,36,,,,,,,,
,,,,,,,,,,,,,,,694,2022-02-01_10h03.51.425,multiplicationStroop,2021.2.3,Win32,59.95922773,,,,,,,,,,,,,,,,,,,,,,,,,,,,,,,,,27,3.3319,1,0,19,19,12,1,3,×,9,3 × 9,congruent,smallerFirst,1,2,27,,,,,,,,
,,,,,,,,,,,,,,,694,2022-02-01_10h03.51.425,multiplicationStroop,2021.2.3,Win32,59.95922773,,,,,,,,,,,,,,,,,,,,,,,,,,,,,,,,,21,2.4242,1,0,20,20,2,1,3,×,7,3 × 7,congruent,smallerFirst,1,2,21,,,,,,,,
,,,,,,,,,,,,,,,694,2022-02-01_10h03.51.425,multiplicationStroop,2021.2.3,Win32,59.95922773,,,,,,,,,,,,,,,,,,,,,,,,,,,,,,,,,9,1.7815,1,0,21,21,29,1,3,×,3,3 × 3,neutral,tie,1,2,9,,,,,,,,
,,,,,,,,,,,,,,,694,2022-02-01_10h03.51.425,multiplicationStroop,2021.2.3,Win32,59.95922773,,,,,,,,,,,,,,,,,,,,,,,,,,,,,,,,,14,1.6485,1,0,22,22,0,1,2,×,7,2 × 7,congruent,smallerFirst,1,2,14,,,,,,,,
,,,,,,,,,,,,,,,694,2022-02-01_10h03.51.425,multiplicationStroop,2021.2.3,Win32,59.95922773,,,,,,,,,,,,,,,,,,,,,,,,,,,,,,,,,12,1.5318,1,0,23,23,16,1,4,×,3,4 × 3,congruent,largerFirst,2,1,12,,,,,,,,
,,,,,,,,,,,,,,,694,2022-02-01_10h03.51.425,multiplicationStroop,2021.2.3,Win32,59.95922773,,,,,,,,,,,,,,,,,,,,,,,,,,,,,,,,,24,2.3985,1,0,24,24,24,1,8,×,3,8 × 3,congruent,largerFirst,2,1,24,,,,,,,,
,,,,,,,,,,,,,,,694,2022-02-01_10h03.51.425,multiplicationStroop,2021.2.3,Win32,59.95922773,,,,,,,,,,,,,,,,,,,,,,,,,,,,,,,,,4,1.7147,1,0,25,25,28,1,2,×,2,2 × 2,neutral,tie,1,2,4,,,,,,,,
,,,,,,,,,,,,,,,694,2022-02-01_10h03.51.425,multiplicationStroop,2021.2.3,Win32,59.95922773,,,,,,,,,,,,,,,,,,,,,,,,,,,,,,,,,10,1.9312,1,0,26,26,10,1,2,×,5,2 × 5,congruent,smallerFirst,1,2,10,,,,,,,,
,,,,,,,,,,,,,,,694,2022-02-01_10h03.51.425,multiplicationStroop,2021.2.3,Win32,59.95922773,,,,,,,,,,,,,,,,,,,,,,,,,,,,,,,,,81,2.7152,1,0,27,27,35,1,9,×,9,9 × 9,neutral,tie,1,2,81,,,,,,,,
,,,,,,,,,,,,,,,694,2022-02-01_10h03.51.425,multiplicationStroop,2021.2.3,Win32,59.95922773,,,,,,,,,,,,,,,,,,,,,,,,,,,,,,,,,56,2.3484,1,0,28,28,22,1,8,×,7,8 × 7,congruent,largerFirst,2,1,56,,,,,,,,
,,,,,,,,,,,,,,,694,2022-02-01_10h03.51.425,multiplicationStroop,2021.2.3,Win32,59.95922773,,,,,,,,,,,,,,,,,,,,,,,,,,,,,,,,,6,1.9318,1,0,29,29,27,1,3,×,2,3 × 2,congruent,largerFirst,2,1,6,,,,,,,,
,,,,,,,,,,,,,,,694,2022-02-01_10h03.51.425,multiplicationStroop,2021.2.3,Win32,59.95922773,,,,,,,,,,,,,,,,,,,,,,,,,,,,,,,,,18,2.5818,1,0,30,30,25,1,6,×,3,6 × 3,congruent,largerFirst,2,1,18,,,,,,,,
,,,,,,,,,,,,,,,694,2022-02-01_10h03.51.425,multiplicationStroop,2021.2.3,Win32,59.95922773,,,,,,,,,,,,,,,,,,,,,,,,,,,,,,,,,18,3.4738,1,0,31,31,8,1,2,×,9,2 × 9,congruent,smallerFirst,1,2,18,,,,,,,,
,,,,,,,,,,,,,,,694,2022-02-01_10h03.51.425,multiplicationStroop,2021.2.3,Win32,59.95922773,,,,,,,,,,,,,,,,,,,,,,,,,,,,,,,,,35,3.3822,1,0,32,32,15,1,7,×,5,7 × 5,congruent,largerFirst,2,1,35,,,,,,,,
,,,,,,,,,,,,,,,694,2022-02-01_10h03.51.425,multiplicationStroop,2021.2.3,Win32,59.95922773,,,,,,,,,,,,,,,,,,,,,,,,,,,,,,,,,15,1.8073,1,0,33,33,18,1,5,×,3,5 × 3,congruent,largerFirst,2,1,15,,,,,,,,
,,,,,,,,,,,,,,,694,2022-02-01_10h03.51.425,multiplicationStroop,2021.2.3,Win32,59.95922773,,,,,,,,,,,,,,,,,,,,,,,,,,,,,,,,,45,1.9485,1,0,34,34,9,1,5,×,9,5 × 9,congruent,smallerFirst,1,2,45,,,,,,,,
,,,,,,,,,,,,,,,694,2022-02-01_10h03.51.425,multiplicationStroop,2021.2.3,Win32,59.95922773,,,,,,,,,,,,,,,,,,,,,,,,,,,,,,,,,48,2.9315,1,0,35,35,4,1,6,×,8,6 × 8,congruent,smallerFirst,1,2,48,,,,,,,,
,,,,,,,,,,,,,,,694,2022-02-01_10h03.51.425,multiplicationStroop,2021.2.3,Win32,59.95922773,,,,,,,,,,,,,,,,,,,,,,,,,,,,,,,,,,,,,,,,,,,,,,,,,,0,2,2,3,1,stimulusFile/mult_blk4_congruent.xlsx,,
,,,,,,,,,,,,,,,694,2022-02-01_10h03.51.425,multiplicationStroop,2021.2.3,Win32,59.95922773,,,,,,,,,,,,,,,,,,,,,,,,,,,,,,,space,9.437,15,3.4185,1,0,0,0,4,1,3,×,5,3 × 5,congruent,smallerFirst,1,2,15,,,,,,,,
,,,,,,,,,,,,,,,694,2022-02-01_10h03.51.425,multiplicationStroop,2021.2.3,Win32,59.95922773,,,,,,,,,,,,,,,,,,,,,,,,,,,,,,,,,48,2.7146,1,0,1,1,18,1,8,×,6,8 × 6,congruent,largerFirst,2,1,48,,,,,,,,
,,,,,,,,,,,,,,,694,2022-02-01_10h03.51.425,multiplicationStroop,2021.2.3,Win32,59.95922773,,,,,,,,,,,,,,,,,,,,,,,,,,,,,,,,,27,2.5906,1,0,2,2,26,1,9,×,3,9 × 3,congruent,largerFirst,2,1,27,,,,,,,,
,,,,,,,,,,,,,,,694,2022-02-01_10h03.51.425,multiplicationStroop,2021.2.3,Win32,59.95922773,,,,,,,,,,,,,,,,,,,,,,,,,,,,,,,,,6,1.7482,1,0,3,3,13,1,2,×,3,2 × 3,congruent,smallerFirst,1,2,6,,,,,,,,
,,,,,,,,,,,,,,,694,2022-02-01_10h03.51.425,multiplicationStroop,2021.2.3,Win32,59.95922773,,,,,,,,,,,,,,,,,,,,,,,,,,,,,,,,,10,1.7151,1,0,4,4,24,1,5,×,2,5 × 2,congruent,largerFirst,2,1,10,,,,,,,,
,,,,,,,,,,,,,,,694,2022-02-01_10h03.51.425,multiplicationStroop,2021.2.3,Win32,59.95922773,,,,,,,,,,,,,,,,,,,,,,,,,,,,,,,,,16,4.3481,1,0,5,5,5,1,2,×,8,2 × 8,congruent,smallerFirst,1,2,16,,,,,,,,
,,,,,,,,,,,,,,,694,2022-02-01_10h03.51.425,multiplicationStroop,2021.2.3,Win32,59.95922773,,,,,,,,,,,,,,,,,,,,,,,,,,,,,,,,,24,2.5406,1,0,6,6,25,1,6,×,4,6 × 4,congruent,largerFirst,2,1,24,,,,,,,,
,,,,,,,,,,,,,,,694,2022-02-01_10h03.51.425,multiplicationStroop,2021.2.3,Win32,59.95922773,,,,,,,,,,,,,,,,,,,,,,,,,,,,,,,,,35,2.1315,1,0,7,7,1,1,5,×,7,5 × 7,congruent,smallerFirst,1,2,35,,,,,,,,
,,,,,,,,,,,,,,,694,2022-02-01_10h03.51.425,multiplicationStroop,2021.2.3,Win32,59.95922773,,,,,,,,,,,,,,,,,,,,,,,,,,,,,,,,,49,2.1652,1,0,8,8,33,1,7,×,7,7 × 7,neutral,tie,2,1,49,,,,,,,,
,,,,,,,,,,,,,,,694,2022-02-01_10h03.51.425,multiplicationStroop,2021.2.3,Win32,59.95922773,,,,,,,,,,,,,,,,,,,,,,,,,,,,,,,,,18,2.1151,1,0,9,9,11,1,3,×,6,3 × 6,congruent,smallerFirst,1,2,18,,,,,,,,
,,,,,,,,,,,,,,,694,2022-02-01_10h03.51.425,multiplicationStroop,2021.2.3,Win32,59.95922773,,,,,,,,,,,,,,,,,,,,,,,,,,,,,,,,,45,2.0144,1,0,10,10,23,1,9,×,5,9 × 5,congruent,largerFirst,2,1,45,,,,,,,,
,,,,,,,,,,,,,,,694,2022-02-01_10h03.51.425,multiplicationStroop,2021.2.3,Win32,59.95922773,,,,,,,,,,,,,,,,,,,,,,,,,,,,,,,,,36,2.4647,1,0,11,11,32,1,6,×,6,6 × 6,neutral,tie,2,1,36,,,,,,,,
,,,,,,,,,,,,,,,694,2022-02-01_10h03.51.425,multiplicationStroop,2021.2.3,Win32,59.95922773,,,,,,,,,,,,,,,,,,,,,,,,,,,,,,,,,64,2.6982,1,0,12,12,34,1,8,×,8,8 × 8,neutral,tie,2,1,64,,,,,,,,
,,,,,,,,,,,,,,,694,2022-02-01_10h03.51.425,multiplicationStroop,2021.2.3,Win32,59.95922773,,,,,,,,,,,,,,,,,,,,,,,,,,,,,,,,,63,3.3912,1,0,13,13,21,1,9,×,7,9 × 7,congruent,largerFirst,2,1,63,,,,,,,,
,,,,,,,,,,,,,,,694,2022-02-01_10h03.51.425,multiplicationStroop,2021.2.3,Win32,59.95922773,,,,,,,,,,,,,,,,,,,,,,,,,,,,,,,,,14,1.9745,1,0,14,14,14,1,7,×,2,7 × 2,congruent,largerFirst,2,1,14,,,,,,,,
,,,,,,,,,,,,,,,694,2022-02-01_10h03.51.425,multiplicationStroop,2021.2.3,Win32,59.95922773,,,,,,,,,,,,,,,,,,,,,,,,,,,,,,,,,24,2.1319,1,0,15,15,10,1,3,×,8,3 × 8,congruent,smallerFirst,1,2,24,,,,,,,,
,,,,,,,,,,,,,,,694,2022-02-01_10h03.51.425,multiplicationStroop,2021.2.3,Win32,59.95922773,,,,,,,,,,,,,,,,,,,,,,,,,,,,,,,,,21,1.8308,1,0,16,16,16,1,7,×,3,7 × 3,congruent,largerFirst,2,1,21,,,,,,,,
,,,,,,,,,,,,,,,694,2022-02-01_10h03.51.425,multiplicationStroop,2021.2.3,Win32,59.95922773,,,,,,,,,,,,,,,,,,,,,,,,,,,,,,,,,28,2.8156,1,0,17,17,27,1,7,×,4,7 × 4,congruent,largerFirst,2,1,28,,,,,,,,
,,,,,,,,,,,,,,,694,2022-02-01_10h03.51.425,multiplicationStroop,2021.2.3,Win32,59.95922773,,,,,,,,,,,,,,,,,,,,,,,,,,,,,,,,,12,1.5152,1,0,18,18,2,1,3,×,4,3 × 4,congruent,smallerFirst,1,2,12,,,,,,,,
,,,,,,,,,,,,,,,694,2022-02-01_10h03.51.425,multiplicationStroop,2021.2.3,Win32,59.95922773,,,,,,,,,,,,,,,,,,,,,,,,,,,,,,,,,8,2.0313,1,0,19,19,9,1,2,×,4,2 × 4,congruent,smallerFirst,1,2,8,,,,,,,,
,,,,,,,,,,,,,,,694,2022-02-01_10h03.51.425,multiplicationStroop,2021.2.3,Win32,59.95922773,,,,,,,,,,,,,,,,,,,,,,,,,,,,,,,,,12,1.6317,1,0,20,20,19,1,6,×,2,6 × 2,congruent,largerFirst,2,1,12,,,,,,,,
,,,,,,,,,,,,,,,694,2022-02-01_10h03.51.425,multiplicationStroop,2021.2.3,Win32,59.95922773,,,,,,,,,,,,,,,,,,,,,,,,,,,,,,,,,18,2.2152,1,0,21,21,22,1,9,×,2,9 × 2,congruent,largerFirst,2,1,18,,,,,,,,
,,,,,,,,,,,,,,,694,2022-02-01_10h03.51.425,multiplicationStroop,2021.2.3,Win32,59.95922773,,,,,,,,,,,,,,,,,,,,,,,,,,,,,,,,,36,3.3482,1,0,22,22,0,1,4,×,9,4 × 9,congruent,smallerFirst,1,2,36,,,,,,,,
,,,,,,,,,,,,,,,694,2022-02-01_10h03.51.425,multiplicationStroop,2021.2.3,Win32,59.95922773,,,,,,,,,,,,,,,,,,,,,,,,,,,,,,,,,20,2.4811,1,0,23,23,7,1,4,×,5,4 × 5,congruent,smallerFirst,1,2,20,,,,,,,,
,,,,,,,,,,,,,,,694,2022-02-01_10h03.51.425,multiplicationStroop,2021.2.3,Win32,59.95922773,,,,,,,,,,,,,,,,,,,,,,,,,,,,,,,,,4,1.5741,1,0,24,24,28,1,2,×,2,2 × 2,neutral,tie,2,1,4,,,,,,,,
,,,,,,,,,,,,,,,694,2022-02-01_10h03.51.425,multiplicationStroop,2021.2.3,Win32,59.95922773,,,,,,,,,,,,,,,,,,,,,,,,,,,,,,,,,72,3.9649,1,0,25,25,17,1,9,×,8,9 × 8,congruent,largerFirst,2,1,72,,,,,,,,
,,,,,,,,,,,,,,,694,2022-02-01_10h03.51.425,multiplicationStroop,2021.2.3,Win32,59.95922773,,,,,,,,,,,,,,,,,,,,,,,,,,,,,,,,,9,1.9917,1,0,26,26,29,1,3,×,3,3 × 3,neutral,tie,2,1,9,,,,,,,,
,,,,,,,,,,,,,,,694,2022-02-01_10h03.51.425,multiplicationStroop,2021.2.3,Win32,59.95922773,,,,,,,,,,,,,,,,,,,,,,,,,,,,,,,,,54,2.4822,1,0,27,27,12,1,6,×,9,6 × 9,congruent,smallerFirst,1,2,54,,,,,,,,
,,,,,,,,,,,,,,,694,2022-02-01_10h03.51.425,multiplicationStroop,2021.2.3,Win32,59.95922773,,,,,,,,,,,,,,,,,,,,,,,,,,,,,,,,,42,4.457,1,0,28,28,3,1,6,×,7,6 × 7,congruent,smallerFirst,1,2,42,,,,,,,,
,,,,,,,,,,,,,,,694,2022-02-01_10h03.51.425,multiplicationStroop,2021.2.3,Win32,59.95922773,,,,,,,,,,,,,,,,,,,,,,,,,,,,,,,,,40,2.5073,1,0,29,29,6,1,5,×,8,5 × 8,congruent,smallerFirst,1,2,40,,,,,,,,
,,,,,,,,,,,,,,,694,2022-02-01_10h03.51.425,multiplicationStroop,2021.2.3,Win32,59.95922773,,,,,,,,,,,,,,,,,,,,,,,,,,,,,,,,,16,2.4319,1,0,30,30,30,1,4,×,4,4 × 4,neutral,tie,2,1,16,,,,,,,,
,,,,,,,,,,,,,,,694,2022-02-01_10h03.51.425,multiplicationStroop,2021.2.3,Win32,59.95922773,,,,,,,,,,,,,,,,,,,,,,,,,,,,,,,,,30,2.898,1,0,31,31,15,1,6,×,5,6 × 5,congruent,largerFirst,2,1,30,,,,,,,,
,,,,,,,,,,,,,,,694,2022-02-01_10h03.51.425,multiplicationStroop,2021.2.3,Win32,59.95922773,,,,,,,,,,,,,,,,,,,,,,,,,,,,,,,,,56,2.7239,1,0,32,32,8,1,7,×,8,7 × 8,congruent,smallerFirst,1,2,56,,,,,,,,
,,,,,,,,,,,,,,,694,2022-02-01_10h03.51.425,multiplicationStroop,2021.2.3,Win32,59.95922773,,,,,,,,,,,,,,,,,,,,,,,,,,,,,,,,,81,2.6632,1,0,33,33,35,1,9,×,9,9 × 9,neutral,tie,2,1,81,,,,,,,,
,,,,,,,,,,,,,,,694,2022-02-01_10h03.51.425,multiplicationStroop,2021.2.3,Win32,59.95922773,,,,,,,,,,,,,,,,,,,,,,,,,,,,,,,,,25,2.2646,1,0,34,34,31,1,5,×,5,5 × 5,neutral,tie,2,1,25,,,,,,,,
,,,,,,,,,,,,,,,694,2022-02-01_10h03.51.425,multiplicationStroop,2021.2.3,Win32,59.95922773,,,,,,,,,,,,,,,,,,,,,,,,,,,,,,,,,32,1.991,1,0,35,35,20,1,8,×,4,8 × 4,congruent,largerFirst,2,1,32,,,,,,,,
,,,,,,,,,,,,,,,694,2022-02-01_10h03.51.425,multiplicationStroop,2021.2.3,Win32,59.95922773,,,,,,,,,,,,,,,,,,,,,,,,,,,,,,,,,,,,,,,,,,,,,,,,,,0,3,3,2,1,stimulusFile/mult_blk3_congruent.xlsx,,
,,,,,,,,,,,,,,,694,2022-02-01_10h03.51.425,multiplicationStroop,2021.2.3,Win32,59.95922773,,,,,,,,,,,,,,,,,,,,,,,,,,,,,,,space,42.638,28,3.2512,1,0,0,0,16,1,7,×,4,7 × 4,incongruent,largerFirst,1,2,28,,,,,,,,
,,,,,,,,,,,,,,,694,2022-02-01_10h03.51.425,multiplicationStroop,2021.2.3,Win32,59.95922773,,,,,,,,,,,,,,,,,,,,,,,,,,,,,,,,,54,4.2311,1,0,1,1,6,1,6,×,9,6 × 9,incongruent,smallerFirst,2,1,54,,,,,,,,
,,,,,,,,,,,,,,,694,2022-02-01_10h03.51.425,multiplicationStroop,2021.2.3,Win32,59.95922773,,,,,,,,,,,,,,,,,,,,,,,,,,,,,,,,,10,1.9408,1,0,2,2,21,1,5,×,2,5 × 2,incongruent,largerFirst,1,2,10,,,,,,,,
,,,,,,,,,,,,,,,694,2022-02-01_10h03.51.425,multiplicationStroop,2021.2.3,Win32,59.95922773,,,,,,,,,,,,,,,,,,,,,,,,,,,,,,,,,6,2.1484,1,0,3,3,11,1,2,×,3,2 × 3,incongruent,smallerFirst,2,1,6,,,,,,,,
,,,,,,,,,,,,,,,694,2022-02-01_10h03.51.425,multiplicationStroop,2021.2.3,Win32,59.95922773,,,,,,,,,,,,,,,,,,,,,,,,,,,,,,,,,81,2.5479,1,0,4,4,35,1,9,×,9,9 × 9,incongruent,tie,1,2,81,,,,,,,,
,,,,,,,,,,,,,,,694,2022-02-01_10h03.51.425,multiplicationStroop,2021.2.3,Win32,59.95922773,,,,,,,,,,,,,,,,,,,,,,,,,,,,,,,,,35,2.3747,1,0,5,5,12,1,5,×,7,5 × 7,incongruent,smallerFirst,2,1,35,,,,,,,,
,,,,,,,,,,,,,,,694,2022-02-01_10h03.51.425,multiplicationStroop,2021.2.3,Win32,59.95922773,,,,,,,,,,,,,,,,,,,,,,,,,,,,,,,,,16,2.1658,1,0,6,6,23,1,8,×,2,8 × 2,incongruent,largerFirst,1,2,16,,,,,,,,
,,,,,,,,,,,,,,,694,2022-02-01_10h03.51.425,multiplicationStroop,2021.2.3,Win32,59.95922773,,,,,,,,,,,,,,,,,,,,,,,,,,,,,,,,,24,1.9148,1,0,7,7,20,1,6,×,4,6 × 4,incongruent,largerFirst,1,2,24,,,,,,,,
,,,,,,,,,,,,,,,694,2022-02-01_10h03.51.425,multiplicationStroop,2021.2.3,Win32,59.95922773,,,,,,,,,,,,,,,,,,,,,,,,,,,,,,,,,14,2.4653,1,0,8,8,4,1,2,×,7,2 × 7,incongruent,smallerFirst,2,1,14,,,,,,,,
,,,,,,,,,,,,,,,694,2022-02-01_10h03.51.425,multiplicationStroop,2021.2.3,Win32,59.95922773,,,,,,,,,,,,,,,,,,,,,,,,,,,,,,,,,21,1.4814,1,0,9,9,26,1,7,×,3,7 × 3,incongruent,largerFirst,1,2,21,,,,,,,,
,,,,,,,,,,,,,,,694,2022-02-01_10h03.51.425,multiplicationStroop,2021.2.3,Win32,59.95922773,,,,,,,,,,,,,,,,,,,,,,,,,,,,,,,,,36,2.9649,1,0,10,10,32,1,6,×,6,6 × 6,incongruent,tie,1,2,36,,,,,,,,
,,,,,,,,,,,,,,,694,2022-02-01_10h03.51.425,multiplicationStroop,2021.2.3,Win32,59.95922773,,,,,,,,,,,,,,,,,,,,,,,,,,,,,,,,,25,2.5148,1,0,11,11,31,1,5,×,5,5 × 5,incongruent,tie,1,2,25,,,,,,,,
,,,,,,,,,,,,,,,694,2022-02-01_10h03.51.425,multiplicationStroop,2021.2.3,Win32,59.95922773,,,,,,,,,,,,,,,,,,,,,,,,,,,,,,,,,12,2.4256,1,0,12,12,5,1,3,×,4,3 × 4,incongruent,smallerFirst,2,1,12,,,,,,,,
,,,,,,,,,,,,,,,694,2022-02-01_10h03.51.425,multiplicationStroop,2021.2.3,Win32,59.95922773,,,,,,,,,,,,,,,,,,,,,,,,,,,,,,,,,45,3.8979,1,0,13,13,22,1,9,×,5,9 × 5,incongruent,largerFirst,1,2,45,,,,,,,,
,,,,,,,,,,,,,,,694,2022-02-01_10h03.51.425,multiplicationStroop,2021.2.3,Win32,59.95922773,,,,,,,,,,,,,,,,,,,,,,,,,,,,,,,,,18,2.2406,1,0,14,14,2,1,2,×,9,2 × 9,incongruent,smallerFirst,2,1,18,,,,,,,,
,,,,,,,,,,,,,,,694,2022-02-01_10h03.51.425,multiplicationStroop,2021.2.3,Win32,59.95922773,,,,,,,,,,,,,,,,,,,,,,,,,,,,,,,,,4,8.531,1,0,15,15,28,1,2,×,2,2 × 2,incongruent,tie,1,2,4,,,,,,,,
,,,,,,,,,,,,,,,694,2022-02-01_10h03.51.425,multiplicationStroop,2021.2.3,Win32,59.95922773,,,,,,,,,,,,,,,,,,,,,,,,,,,,,,,,,63,6.0395,1,0,16,16,3,1,7,×,9,7 × 9,incongruent,smallerFirst,2,1,63,,,,,,,,
,,,,,,,,,,,,,,,694,2022-02-01_10h03.51.425,multiplicationStroop,2021.2.3,Win32,59.95922773,,,,,,,,,,,,,,,,,,,,,,,,,,,,,,,,,64,2.4072,1,0,17,17,34,1,8,×,8,8 × 8,incongruent,tie,1,2,64,,,,,,,,
,,,,,,,,,,,,,,,694,2022-02-01_10h03.51.425,multiplicationStroop,2021.2.3,Win32,59.95922773,,,,,,,,,,,,,,,,,,,,,,,,,,,,,,,,,18,2.8481,1,0,18,18,8,1,3,×,6,3 × 6,incongruent,smallerFirst,2,1,18,,,,,,,,
,,,,,,,,,,,,,,,694,2022-02-01_10h03.51.425,multiplicationStroop,2021.2.3,Win32,59.95922773,,,,,,,,,,,,,,,,,,,,,,,,,,,,,,,,,9,1.998,1,0,19,19,29,1,3,×,3,3 × 3,incongruent,tie,1,2,9,,,,,,,,
,,,,,,,,,,,,,,,694,2022-02-01_10h03.51.425,multiplicationStroop,2021.2.3,Win32,59.95922773,,,,,,,,,,,,,,,,,,,,,,,,,,,,,,,,,32,3.9146,1,0,20,20,7,1,4,×,8,4 × 8,incongruent,smallerFirst,2,1,32,,,,,,,,
,,,,,,,,,,,,,,,694,2022-02-01_10h03.51.425,multiplicationStroop,2021.2.3,Win32,59.95922773,,,,,,,,,,,,,,,,,,,,,,,,,,,,,,,,,16,2.2084,1,0,21,21,30,1,4,×,4,4 × 4,incongruent,tie,1,2,16,,,,,,,,
,,,,,,,,,,,,,,,694,2022-02-01_10h03.51.425,multiplicationStroop,2021.2.3,Win32,59.95922773,,,,,,,,,,,,,,,,,,,,,,,,,,,,,,,,,48,2.7148,1,0,22,22,1,1,6,×,8,6 × 8,incongruent,smallerFirst,2,1,48,,,,,,,,
,,,,,,,,,,,,,,,694,2022-02-01_10h03.51.425,multiplicationStroop,2021.2.3,Win32,59.95922773,,,,,,,,,,,,,,,,,,,,,,,,,,,,,,,,,20,2.2744,1,0,23,23,27,1,5,×,4,5 × 4,incongruent,largerFirst,1,2,20,,,,,,,,
,,,,,,,,,,,,,,,694,2022-02-01_10h03.51.425,multiplicationStroop,2021.2.3,Win32,59.95922773,,,,,,,,,,,,,,,,,,,,,,,,,,,,,,,,,30,5.0159,1,0,24,24,25,1,6,×,5,6 × 5,incongruent,largerFirst,1,2,30,,,,,,,,
,,,,,,,,,,,,,,,694,2022-02-01_10h03.51.425,multiplicationStroop,2021.2.3,Win32,59.95922773,,,,,,,,,,,,,,,,,,,,,,,,,,,,,,,,,12,1.5249,1,0,25,25,19,1,6,×,2,6 × 2,incongruent,largerFirst,1,2,12,,,,,,,,
,,,,,,,,,,,,,,,694,2022-02-01_10h03.51.425,multiplicationStroop,2021.2.3,Win32,59.95922773,,,,,,,,,,,,,,,,,,,,,,,,,,,,,,,,,49,2.7479,1,0,26,26,33,1,7,×,7,7 × 7,incongruent,tie,1,2,49,,,,,,,,
,,,,,,,,,,,,,,,694,2022-02-01_10h03.51.425,multiplicationStroop,2021.2.3,Win32,59.95922773,,,,,,,,,,,,,,,,,,,,,,,,,,,,,,,,,72,2.7314,1,0,27,27,0,1,8,×,9,8 × 9,incongruent,smallerFirst,2,1,72,,,,,,,,
,,,,,,,,,,,,,,,694,2022-02-01_10h03.51.425,multiplicationStroop,2021.2.3,Win32,59.95922773,,,,,,,,,,,,,,,,,,,,,,,,,,,,,,,,,36,3.7072,1,0,28,28,15,1,9,×,4,9 × 4,incongruent,largerFirst,1,2,36,,,,,,,,
,,,,,,,,,,,,,,,694,2022-02-01_10h03.51.425,multiplicationStroop,2021.2.3,Win32,59.95922773,,,,,,,,,,,,,,,,,,,,,,,,,,,,,,,,,40,2.1914,1,0,29,29,13,1,5,×,8,5 × 8,incongruent,smallerFirst,2,1,40,,,,,,,,
,,,,,,,,,,,,,,,694,2022-02-01_10h03.51.425,multiplicationStroop,2021.2.3,Win32,59.95922773,,,,,,,,,,,,,,,,,,,,,,,,,,,,,,,,,27,2.6811,1,0,30,30,18,1,9,×,3,9 × 3,incongruent,largerFirst,1,2,27,,,,,,,,
,,,,,,,,,,,,,,,694,2022-02-01_10h03.51.425,multiplicationStroop,2021.2.3,Win32,59.95922773,,,,,,,,,,,,,,,,,,,,,,,,,,,,,,,,,15,2.1818,1,0,31,31,10,1,3,×,5,3 × 5,incongruent,smallerFirst,2,1,15,,,,,,,,
,,,,,,,,,,,,,,,694,2022-02-01_10h03.51.425,multiplicationStroop,2021.2.3,Win32,59.95922773,,,,,,,,,,,,,,,,,,,,,,,,,,,,,,,,,42,3.3148,1,0,32,32,17,1,7,×,6,7 × 6,incongruent,largerFirst,1,2,42,,,,,,,,
,,,,,,,,,,,,,,,694,2022-02-01_10h03.51.425,multiplicationStroop,2021.2.3,Win32,59.95922773,,,,,,,,,,,,,,,,,,,,,,,,,,,,,,,,,8,2.2901,1,0,33,33,24,1,4,×,2,4 × 2,incongruent,largerFirst,1,2,8,,,,,,,,
,,,,,,,,,,,,,,,694,2022-02-01_10h03.51.425,multiplicationStroop,2021.2.3,Win32,59.95922773,,,,,,,,,,,,,,,,,,,,,,,,,,,,,,,,,24,3.0319,1,0,34,34,9,1,3,×,8,3 × 8,incongruent,smallerFirst,2,1,24,,,,,,,,
,,,,,,,,,,,,,,,694,2022-02-01_10h03.51.425,multiplicationStroop,2021.2.3,Win32,59.95922773,,,,,,,,,,,,,,,,,,,,,,,,,,,,,,,,,56,2.2485,1,0,35,35,14,1,8,×,7,8 × 7,incongruent,largerFirst,1,2,56,,,,,,,,
,,,,,,,,,,,,,,,694,2022-02-01_10h03.51.425,multiplicationStroop,2021.2.3,Win32,59.95922773,,,,,,,,,,,,,,,,,,,,,,,,,,,,,,,,,,,,,,,,,,,,,,,,,,0,4,4,5,1,stimulusFile/mult_blk6_INcongruent.xlsx,,
,,,,,,,,,,,,,,,694,2022-02-01_10h03.51.425,multiplicationStroop,2021.2.3,Win32,59.95922773,,,,,,,,,,,,,,,,,,,,,,,,,,,,,,,space,99.2043,27,4.6675,1,0,0,0,4,1,3,×,9,3 × 9,incongruent,smallerFirst,2,1,27,,,,,,,,
,,,,,,,,,,,,,,,694,2022-02-01_10h03.51.425,multiplicationStroop,2021.2.3,Win32,59.95922773,,,,,,,,,,,,,,,,,,,,,,,,,,,,,,,,,72,2.3902,1,0,1,1,14,1,9,×,8,9 × 8,incongruent,largerFirst,1,2,72,,,,,,,,
,,,,,,,,,,,,,,,694,2022-02-01_10h03.51.425,multiplicationStroop,2021.2.3,Win32,59.95922773,,,,,,,,,,,,,,,,,,,,,,,,,,,,,,,,,6,2.5814,1,0,2,2,25,1,3,×,2,3 × 2,incongruent,largerFirst,1,2,6,,,,,,,,
,,,,,,,,,,,,,,,694,2022-02-01_10h03.51.425,multiplicationStroop,2021.2.3,Win32,59.95922773,,,,,,,,,,,,,,,,,,,,,,,,,,,,,,,,,12,1.5819,1,0,3,3,19,1,4,×,3,4 × 3,incongruent,largerFirst,1,2,12,,,,,,,,
,,,,,,,,,,,,,,,694,2022-02-01_10h03.51.425,multiplicationStroop,2021.2.3,Win32,59.95922773,,,,,,,,,,,,,,,,,,,,,,,,,,,,,,,,,21,1.5481,1,0,4,4,12,1,3,×,7,3 × 7,incongruent,smallerFirst,2,1,21,,,,,,,,
,,,,,,,,,,,,,,,694,2022-02-01_10h03.51.425,multiplicationStroop,2021.2.3,Win32,59.95922773,,,,,,,,,,,,,,,,,,,,,,,,,,,,,,,,,28,4.4986,1,0,5,5,2,1,4,×,7,4 × 7,incongruent,smallerFirst,2,1,28,,,,,,,,
,,,,,,,,,,,,,,,694,2022-02-01_10h03.51.425,multiplicationStroop,2021.2.3,Win32,59.95922773,,,,,,,,,,,,,,,,,,,,,,,,,,,,,,,,,36,2.5242,1,0,6,6,1,1,4,×,9,4 × 9,incongruent,smallerFirst,2,1,36,,,,,,,,
,,,,,,,,,,,,,,,694,2022-02-01_10h03.51.425,multiplicationStroop,2021.2.3,Win32,59.95922773,,,,,,,,,,,,,,,,,,,,,,,,,,,,,,,,,30,1.966,1,0,7,7,11,1,5,×,6,5 × 6,incongruent,smallerFirst,2,1,30,,,,,,,,
,,,,,,,,,,,,,,,694,2022-02-01_10h03.51.425,multiplicationStroop,2021.2.3,Win32,59.95922773,,,,,,,,,,,,,,,,,,,,,,,,,,,,,,,,,32,2.7817,1,0,8,8,21,1,8,×,4,8 × 4,incongruent,largerFirst,1,2,32,,,,,,,,
,,,,,,,,,,,,,,,694,2022-02-01_10h03.51.425,multiplicationStroop,2021.2.3,Win32,59.95922773,,,,,,,,,,,,,,,,,,,,,,,,,,,,,,,,,24,2.9254,1,0,9,9,23,1,8,×,3,8 × 3,incongruent,largerFirst,1,2,24,,,,,,,,
,,,,,,,,,,,,,,,694,2022-02-01_10h03.51.425,multiplicationStroop,2021.2.3,Win32,59.95922773,,,,,,,,,,,,,,,,,,,,,,,,,,,,,,,,,64,4.9647,1,0,10,10,34,1,8,×,8,8 × 8,neutral,tie,2,1,64,,,,,,,,
,,,,,,,,,,,,,,,694,2022-02-01_10h03.51.425,multiplicationStroop,2021.2.3,Win32,59.95922773,,,,,,,,,,,,,,,,,,,,,,,,,,,,,,,,,25,1.9409,1,0,11,11,31,1,5,×,5,5 × 5,neutral,tie,2,1,25,,,,,,,,
,,,,,,,,,,,,,,,694,2022-02-01_10h03.51.425,multiplicationStroop,2021.2.3,Win32,59.95922773,,,,,,,,,,,,,,,,,,,,,,,,,,,,,,,,,56,3.4152,1,0,12,12,0,1,7,×,8,7 × 8,incongruent,smallerFirst,2,1,56,,,,,,,,
,,,,,,,,,,,,,,,694,2022-02-01_10h03.51.425,multiplicationStroop,2021.2.3,Win32,59.95922773,,,,,,,,,,,,,,,,,,,,,,,,,,,,,,,,,42,2.5149,1,0,13,13,3,1,6,×,7,6 × 7,incongruent,smallerFirst,2,1,42,,,,,,,,
,,,,,,,,,,,,,,,694,2022-02-01_10h03.51.425,multiplicationStroop,2021.2.3,Win32,59.95922773,,,,,,,,,,,,,,,,,,,,,,,,,,,,,,,,,10,2.0901,1,0,14,14,7,1,2,×,5,2 × 5,incongruent,smallerFirst,2,1,10,,,,,,,,
,,,,,,,,,,,,,,,694,2022-02-01_10h03.51.425,multiplicationStroop,2021.2.3,Win32,59.95922773,,,,,,,,,,,,,,,,,,,,,,,,,,,,,,,,,8,2.3988,1,0,15,15,10,1,2,×,4,2 × 4,incongruent,smallerFirst,2,1,8,,,,,,,,
,,,,,,,,,,,,,,,694,2022-02-01_10h03.51.425,multiplicationStroop,2021.2.3,Win32,59.95922773,,,,,,,,,,,,,,,,,,,,,,,,,,,,,,,,,18,2.5819,1,0,16,16,16,1,9,×,2,9 × 2,incongruent,largerFirst,1,2,18,,,,,,,,
,,,,,,,,,,,,,,,694,2022-02-01_10h03.51.425,multiplicationStroop,2021.2.3,Win32,59.95922773,,,,,,,,,,,,,,,,,,,,,,,,,,,,,,,,,40,2.6315,1,0,17,17,27,1,8,×,5,8 × 5,incongruent,largerFirst,1,2,40,,,,,,,,
,,,,,,,,,,,,,,,694,2022-02-01_10h03.51.425,multiplicationStroop,2021.2.3,Win32,59.95922773,,,,,,,,,,,,,,,,,,,,,,,,,,,,,,,,,16,2.8573,1,0,18,18,9,1,2,×,8,2 × 8,incongruent,smallerFirst,2,1,16,,,,,,,,
,,,,,,,,,,,,,,,694,2022-02-01_10h03.51.425,multiplicationStroop,2021.2.3,Win32,59.95922773,,,,,,,,,,,,,,,,,,,,,,,,,,,,,,,,,20,2.0487,1,0,19,19,13,1,4,×,5,4 × 5,incongruent,smallerFirst,2,1,20,,,,,,,,
,,,,,,,,,,,,,,,694,2022-02-01_10h03.51.425,multiplicationStroop,2021.2.3,Win32,59.95922773,,,,,,,,,,,,,,,,,,,,,,,,,,,,,,,,,48,2.8985,1,0,20,20,15,1,8,×,6,8 × 6,incongruent,largerFirst,1,2,48,,,,,,,,
,,,,,,,,,,,,,,,694,2022-02-01_10h03.51.425,multiplicationStroop,2021.2.3,Win32,59.95922773,,,,,,,,,,,,,,,,,,,,,,,,,,,,,,,,,54,2.032,1,0,21,21,20,1,9,×,6,9 × 6,incongruent,largerFirst,1,2,54,,,,,,,,
,,,,,,,,,,,,,,,694,2022-02-01_10h03.51.425,multiplicationStroop,2021.2.3,Win32,59.95922773,,,,,,,,,,,,,,,,,,,,,,,,,,,,,,,,,49,2.565,1,0,22,22,33,1,7,×,7,7 × 7,neutral,tie,2,1,49,,,,,,,,
,,,,,,,,,,,,,,,694,2022-02-01_10h03.51.425,multiplicationStroop,2021.2.3,Win32,59.95922773,,,,,,,,,,,,,,,,,,,,,,,,,,,,,,,,,45,3.9573,1,0,23,23,8,1,5,×,9,5 × 9,incongruent,smallerFirst,2,1,45,,,,,,,,
,,,,,,,,,,,,,,,694,2022-02-01_10h03.51.425,multiplicationStroop,2021.2.3,Win32,59.95922773,,,,,,,,,,,,,,,,,,,,,,,,,,,,,,,,,36,4.9233,1,0,24,24,32,1,6,×,6,6 × 6,neutral,tie,2,1,36,,,,,,,,
,,,,,,,,,,,,,,,694,2022-02-01_10h03.51.425,multiplicationStroop,2021.2.3,Win32,59.95922773,,,,,,,,,,,,,,,,,,,,,,,,,,,,,,,,,15,4.091,1,0,25,25,24,1,5,×,3,5 × 3,incongruent,largerFirst,1,2,15,,,,,,,,
,,,,,,,,,,,,,,,694,2022-02-01_10h03.51.425,multiplicationStroop,2021.2.3,Win32,59.95922773,,,,,,,,,,,,,,,,,,,,,,,,,,,,,,,,,14,2.0409,1,0,26,26,18,1,7,×,2,7 × 2,incongruent,largerFirst,1,2,14,,,,,,,,
,,,,,,,,,,,,,,,694,2022-02-01_10h03.51.425,multiplicationStroop,2021.2.3,Win32,59.95922773,,,,,,,,,,,,,,,,,,,,,,,,,,,,,,,,,35,2.732,1,0,27,27,26,1,7,×,5,7 × 5,incongruent,largerFirst,1,2,35,,,,,,,,
,,,,,,,,,,,,,,,694,2022-02-01_10h03.51.425,multiplicationStroop,2021.2.3,Win32,59.95922773,,,,,,,,,,,,,,,,,,,,,,,,,,,,,,,,,18,2.7402,1,0,28,28,22,1,6,×,3,6 × 3,incongruent,largerFirst,1,2,18,,,,,,,,
,,,,,,,,,,,,,,,694,2022-02-01_10h03.51.425,multiplicationStroop,2021.2.3,Win32,59.95922773,,,,,,,,,,,,,,,,,,,,,,,,,,,,,,,,,9,2.4651,1,0,29,29,29,1,3,×,3,3 × 3,neutral,tie,2,1,9,,,,,,,,
,,,,,,,,,,,,,,,694,2022-02-01_10h03.51.425,multiplicationStroop,2021.2.3,Win32,59.95922773,,,,,,,,,,,,,,,,,,,,,,,,,,,,,,,,,24,2.4484,1,0,30,30,6,1,4,×,6,4 × 6,incongruent,smallerFirst,2,1,24,,,,,,,,
,,,,,,,,,,,,,,,694,2022-02-01_10h03.51.425,multiplicationStroop,2021.2.3,Win32,59.95922773,,,,,,,,,,,,,,,,,,,,,,,,,,,,,,,,,12,2.4317,1,0,31,31,5,1,2,×,6,2 × 6,incongruent,smallerFirst,2,1,12,,,,,,,,
,,,,,,,,,,,,,,,694,2022-02-01_10h03.51.425,multiplicationStroop,2021.2.3,Win32,59.95922773,,,,,,,,,,,,,,,,,,,,,,,,,,,,,,,,,16,2.2462,1,0,32,32,30,1,4,×,4,4 × 4,neutral,tie,2,1,16,,,,,,,,
,,,,,,,,,,,,,,,694,2022-02-01_10h03.51.425,multiplicationStroop,2021.2.3,Win32,59.95922773,,,,,,,,,,,,,,,,,,,,,,,,,,,,,,,,,4,1.9276,1,0,33,33,28,1,2,×,2,2 × 2,neutral,tie,2,1,4,,,,,,,,
,,,,,,,,,,,,,,,694,2022-02-01_10h03.51.425,multiplicationStroop,2021.2.3,Win32,59.95922773,,,,,,,,,,,,,,,,,,,,,,,,,,,,,,,,,81,4.1982,1,0,34,34,35,1,9,×,9,9 × 9,neutral,tie,2,1,81,,,,,,,,
,,,,,,,,,,,,,,,694,2022-02-01_10h03.51.425,multiplicationStroop,2021.2.3,Win32,59.95922773,,,,,,,,,,,,,,,,,,,,,,,,,,,,,,,,,63,2.6754,1,0,35,35,17,1,9,×,7,9 × 7,incongruent,largerFirst,1,2,63,,,,,,,,
,,,,,,,,,,,,,,,694,2022-02-01_10h03.51.425,multiplicationStroop,2021.2.3,Win32,59.95922773,,,,,,,,,,,,,,,,,,,,,,,,,,,,,,,,,,,,,,,,,,,,,,,,,,0,5,5,4,1,stimulusFile/mult_blk5_INcongruent.xlsx,,
,,,,,,,,,,,,,,,694,2022-02-01_10h03.51.425,multiplicationStroop,2021.2.3,Win32,59.95922773,,,,,,,,,,,,,,,,,,,,,,,,,,,,,,,,,,,,,,,,,,,,,,,,,,,,,,,,space,6.5546