welcomeKey_resp.keys,welcomeKey_resp.rt,X Scale,Y Scale,rt_resp_4.keys,rt_resp_4.corr,rt_resp_4.rt,speedtest_2.thisRepN,speedtest_2.thisTrialN,speedtest_2.thisN,speedtest_2.thisIndex,speedtest_2.ran,numberSc,posX,positionLayout,participant,date,expName,psychopyVersion,OS,frameRate,ct_instrresp.keys,ct_instrresp.rt,key_resp_2.keys,key_resp_2.rt,ct_keyResp.keys,ct_keyResp.corr,ct_keyResp.rt,trials.thisRepN,trials.thisTrialN,trials.thisN,trials.thisIndex,trials.ran,leftNo,rightNo,displayProblem,numDistance,leftNo_size,rightNo_size,Dims,keyAnswer,TS_Loop.thisRepN,TS_Loop.thisTrialN,TS_Loop.thisN,TS_Loop.thisIndex,TS_Loop.ran,Condition,ActionInst,instrImage,mltptaskInst_resp.keys,mltptaskInst_resp.rt,continue_resp_2.keys,continue_resp_2.rt,multp_Answer,multi_RT,multiplyCorr,LoopingMultiply.thisRepN,LoopingMultiply.thisTrialN,LoopingMultiply.thisN,LoopingMultiply.thisIndex,LoopingMultiply.ran,factor1,multiplySign,factor2,multliplyProblem,physicalSize,orderOperand,sizeF1,sizeF2,mult_answer,trials_stroop.thisRepN,trials_stroop.thisTrialN,trials_stroop.thisN,trials_stroop.thisIndex,trials_stroop.ran,multiplicationFile,esckey_resp_2.keys,esckey_resp_2.rt
y,7.2743,44.9,45.6,right,1,0.7959,0,0,0,10,1,3,200,right,695,2022-02-03_16h38.48.665,multiplicationStroop,2021.2.3,Win32,120.0048002,,,,,,,,,,,,,,,,,,,,,,,,,,,,,,,,,,,,,,,,,,,,,,,,,,,,,,,,,
,,,,right,1,0.4229,0,1,1,9,1,2,200,right,695,2022-02-03_16h38.48.665,multiplicationStroop,2021.2.3,Win32,120.0048002,,,,,,,,,,,,,,,,,,,,,,,,,,,,,,,,,,,,,,,,,,,,,,,,,,,,,,,,,
,,,,right,1,0.3049,0,2,2,13,1,7,200,right,695,2022-02-03_16h38.48.665,multiplicationStroop,2021.2.3,Win32,120.0048002,,,,,,,,,,,,,,,,,,,,,,,,,,,,,,,,,,,,,,,,,,,,,,,,,,,,,,,,,
,,,,left,1,0.3945,0,3,3,0,1,1,-200,left,695,2022-02-03_16h38.48.665,multiplicationStroop,2021.2.3,Win32,120.0048002,,,,,,,,,,,,,,,,,,,,,,,,,,,,,,,,,,,,,,,,,,,,,,,,,,,,,,,,,
,,,,right,1,0.3267,0,4,4,11,1,4,200,right,695,2022-02-03_16h38.48.665,multiplicationStroop,2021.2.3,Win32,120.0048002,,,,,,,,,,,,,,,,,,,,,,,,,,,,,,,,,,,,,,,,,,,,,,,,,,,,,,,,,
,,,,right,1,0.3644,0,5,5,8,1,1,200,right,695,2022-02-03_16h38.48.665,multiplicationStroop,2021.2.3,Win32,120.0048002,,,,,,,,,,,,,,,,,,,,,,,,,,,,,,,,,,,,,,,,,,,,,,,,,,,,,,,,,
,,,,left,1,0.2869,0,6,6,4,1,6,-200,left,695,2022-02-03_16h38.48.665,multiplicationStroop,2021.2.3,Win32,120.0048002,,,,,,,,,,,,,,,,,,,,,,,,,,,,,,,,,,,,,,,,,,,,,,,,,,,,,,,,,
,,,,right,1,0.3379,0,7,7,14,1,8,200,right,695,2022-02-03_16h38.48.665,multiplicationStroop,2021.2.3,Win32,120.0048002,,,,,,,,,,,,,,,,,,,,,,,,,,,,,,,,,,,,,,,,,,,,,,,,,,,,,,,,,
,,,,left,1,0.2856,0,8,8,2,1,3,-200,left,695,2022-02-03_16h38.48.665,multiplicationStroop,2021.2.3,Win32,120.0048002,,,,,,,,,,,,,,,,,,,,,,,,,,,,,,,,,,,,,,,,,,,,,,,,,,,,,,,,,
,,,,right,1,0.2589,0,9,9,12,1,6,200,right,695,2022-02-03_16h38.48.665,multiplicationStroop,2021.2.3,Win32,120.0048002,,,,,,,,,,,,,,,,,,,,,,,,,,,,,,,,,,,,,,,,,,,,,,,,,,,,,,,,,
,,,,right,1,0.3421,0,10,10,15,1,9,200,right,695,2022-02-03_16h38.48.665,multiplicationStroop,2021.2.3,Win32,120.0048002,,,,,,,,,,,,,,,,,,,,,,,,,,,,,,,,,,,,,,,,,,,,,,,,,,,,,,,,,
,,,,left,1,0.2916,0,11,11,1,1,2,-200,left,695,2022-02-03_16h38.48.665,multiplicationStroop,2021.2.3,Win32,120.0048002,,,,,,,,,,,,,,,,,,,,,,,,,,,,,,,,,,,,,,,,,,,,,,,,,,,,,,,,,
,,,,left,1,0.3893,0,12,12,5,1,7,-200,left,695,2022-02-03_16h38.48.665,multiplicationStroop,2021.2.3,Win32,120.0048002,,,,,,,,,,,,,,,,,,,,,,,,,,,,,,,,,,,,,,,,,,,,,,,,,,,,,,,,,
,,,,left,1,0.3247,0,13,13,3,1,4,-200,left,695,2022-02-03_16h38.48.665,multiplicationStroop,2021.2.3,Win32,120.0048002,,,,,,,,,,,,,,,,,,,,,,,,,,,,,,,,,,,,,,,,,,,,,,,,,,,,,,,,,
,,,,left,1,0.2806,0,14,14,7,1,9,-200,left,695,2022-02-03_16h38.48.665,multiplicationStroop,2021.2.3,Win32,120.0048002,,,,,,,,,,,,,,,,,,,,,,,,,,,,,,,,,,,,,,,,,,,,,,,,,,,,,,,,,
,,,,left,1,0.2808,0,15,15,6,1,8,-200,left,695,2022-02-03_16h38.48.665,multiplicationStroop,2021.2.3,Win32,120.0048002,,,,,,,,,,,,,,,,,,,,,,,,,,,,,,,,,,,,,,,,,,,,,,,,,,,,,,,,,
,,,,right,1,0.354,1,0,16,11,1,4,200,right,695,2022-02-03_16h38.48.665,multiplicationStroop,2021.2.3,Win32,120.0048002,,,,,,,,,,,,,,,,,,,,,,,,,,,,,,,,,,,,,,,,,,,,,,,,,,,,,,,,,
,,,,right,1,0.303,1,1,17,8,1,1,200,right,695,2022-02-03_16h38.48.665,multiplicationStroop,2021.2.3,Win32,120.0048002,,,,,,,,,,,,,,,,,,,,,,,,,,,,,,,,,,,,,,,,,,,,,,,,,,,,,,,,,
,,,,right,1,0.2882,1,2,18,14,1,8,200,right,695,2022-02-03_16h38.48.665,multiplicationStroop,2021.2.3,Win32,120.0048002,,,,,,,,,,,,,,,,,,,,,,,,,,,,,,,,,,,,,,,,,,,,,,,,,,,,,,,,,
,,,,left,1,0.3592,1,3,19,5,1,7,-200,left,695,2022-02-03_16h38.48.665,multiplicationStroop,2021.2.3,Win32,120.0048002,,,,,,,,,,,,,,,,,,,,,,,,,,,,,,,,,,,,,,,,,,,,,,,,,,,,,,,,,
,,,,right,1,0.3006,1,4,20,13,1,7,200,right,695,2022-02-03_16h38.48.665,multiplicationStroop,2021.2.3,Win32,120.0048002,,,,,,,,,,,,,,,,,,,,,,,,,,,,,,,,,,,,,,,,,,,,,,,,,,,,,,,,,
,,,,left,1,0.3248,1,5,21,1,1,2,-200,left,695,2022-02-03_16h38.48.665,multiplicationStroop,2021.2.3,Win32,120.0048002,,,,,,,,,,,,,,,,,,,,,,,,,,,,,,,,,,,,,,,,,,,,,,,,,,,,,,,,,
,,,,left,1,0.4727,1,6,22,0,1,1,-200,left,695,2022-02-03_16h38.48.665,multiplicationStroop,2021.2.3,Win32,120.0048002,,,,,,,,,,,,,,,,,,,,,,,,,,,,,,,,,,,,,,,,,,,,,,,,,,,,,,,,,
,,,,left,1,0.3459,1,7,23,6,1,8,-200,left,695,2022-02-03_16h38.48.665,multiplicationStroop,2021.2.3,Win32,120.0048002,,,,,,,,,,,,,,,,,,,,,,,,,,,,,,,,,,,,,,,,,,,,,,,,,,,,,,,,,
,,,,left,1,0.3071,1,8,24,4,1,6,-200,left,695,2022-02-03_16h38.48.665,multiplicationStroop,2021.2.3,Win32,120.0048002,,,,,,,,,,,,,,,,,,,,,,,,,,,,,,,,,,,,,,,,,,,,,,,,,,,,,,,,,
,,,,right,1,0.3441,1,9,25,9,1,2,200,right,695,2022-02-03_16h38.48.665,multiplicationStroop,2021.2.3,Win32,120.0048002,,,,,,,,,,,,,,,,,,,,,,,,,,,,,,,,,,,,,,,,,,,,,,,,,,,,,,,,,
,,,,right,1,0.3661,1,10,26,15,1,9,200,right,695,2022-02-03_16h38.48.665,multiplicationStroop,2021.2.3,Win32,120.0048002,,,,,,,,,,,,,,,,,,,,,,,,,,,,,,,,,,,,,,,,,,,,,,,,,,,,,,,,,
,,,,left,1,0.3233,1,11,27,7,1,9,-200,left,695,2022-02-03_16h38.48.665,multiplicationStroop,2021.2.3,Win32,120.0048002,,,,,,,,,,,,,,,,,,,,,,,,,,,,,,,,,,,,,,,,,,,,,,,,,,,,,,,,,
,,,,right,1,0.3409,1,12,28,12,1,6,200,right,695,2022-02-03_16h38.48.665,multiplicationStroop,2021.2.3,Win32,120.0048002,,,,,,,,,,,,,,,,,,,,,,,,,,,,,,,,,,,,,,,,,,,,,,,,,,,,,,,,,
,,,,left,1,0.3033,1,13,29,3,1,4,-200,left,695,2022-02-03_16h38.48.665,multiplicationStroop,2021.2.3,Win32,120.0048002,,,,,,,,,,,,,,,,,,,,,,,,,,,,,,,,,,,,,,,,,,,,,,,,,,,,,,,,,
,,,,left,1,0.3744,1,14,30,2,1,3,-200,left,695,2022-02-03_16h38.48.665,multiplicationStroop,2021.2.3,Win32,120.0048002,,,,,,,,,,,,,,,,,,,,,,,,,,,,,,,,,,,,,,,,,,,,,,,,,,,,,,,,,
,,,,right,1,0.3839,1,15,31,10,1,3,200,right,695,2022-02-03_16h38.48.665,multiplicationStroop,2021.2.3,Win32,120.0048002,,,,,,,,,,,,,,,,,,,,,,,,,,,,,,,,,,,,,,,,,,,,,,,,,,,,,,,,,
,,,,left,1,0.2962,2,0,32,1,1,2,-200,left,695,2022-02-03_16h38.48.665,multiplicationStroop,2021.2.3,Win32,120.0048002,,,,,,,,,,,,,,,,,,,,,,,,,,,,,,,,,,,,,,,,,,,,,,,,,,,,,,,,,
,,,,left,1,0.3715,2,1,33,2,1,3,-200,left,695,2022-02-03_16h38.48.665,multiplicationStroop,2021.2.3,Win32,120.0048002,,,,,,,,,,,,,,,,,,,,,,,,,,,,,,,,,,,,,,,,,,,,,,,,,,,,,,,,,
,,,,left,1,0.3225,2,2,34,3,1,4,-200,left,695,2022-02-03_16h38.48.665,multiplicationStroop,2021.2.3,Win32,120.0048002,,,,,,,,,,,,,,,,,,,,,,,,,,,,,,,,,,,,,,,,,,,,,,,,,,,,,,,,,
,,,,left,1,0.3147,2,3,35,0,1,1,-200,left,695,2022-02-03_16h38.48.665,multiplicationStroop,2021.2.3,Win32,120.0048002,,,,,,,,,,,,,,,,,,,,,,,,,,,,,,,,,,,,,,,,,,,,,,,,,,,,,,,,,
,,,,right,1,0.2948,2,4,36,15,1,9,200,right,695,2022-02-03_16h38.48.665,multiplicationStroop,2021.2.3,Win32,120.0048002,,,,,,,,,,,,,,,,,,,,,,,,,,,,,,,,,,,,,,,,,,,,,,,,,,,,,,,,,
,,,,left,1,0.3237,2,5,37,5,1,7,-200,left,695,2022-02-03_16h38.48.665,multiplicationStroop,2021.2.3,Win32,120.0048002,,,,,,,,,,,,,,,,,,,,,,,,,,,,,,,,,,,,,,,,,,,,,,,,,,,,,,,,,
,,,,right,1,0.2812,2,6,38,10,1,3,200,right,695,2022-02-03_16h38.48.665,multiplicationStroop,2021.2.3,Win32,120.0048002,,,,,,,,,,,,,,,,,,,,,,,,,,,,,,,,,,,,,,,,,,,,,,,,,,,,,,,,,
,,,,right,1,0.3431,2,7,39,9,1,2,200,right,695,2022-02-03_16h38.48.665,multiplicationStroop,2021.2.3,Win32,120.0048002,,,,,,,,,,,,,,,,,,,,,,,,,,,,,,,,,,,,,,,,,,,,,,,,,,,,,,,,,
,,,,left,1,0.3095,2,8,40,4,1,6,-200,left,695,2022-02-03_16h38.48.665,multiplicationStroop,2021.2.3,Win32,120.0048002,,,,,,,,,,,,,,,,,,,,,,,,,,,,,,,,,,,,,,,,,,,,,,,,,,,,,,,,,
,,,,right,1,0.2815,2,9,41,13,1,7,200,right,695,2022-02-03_16h38.48.665,multiplicationStroop,2021.2.3,Win32,120.0048002,,,,,,,,,,,,,,,,,,,,,,,,,,,,,,,,,,,,,,,,,,,,,,,,,,,,,,,,,
,,,,right,1,0.4005,2,10,42,12,1,6,200,right,695,2022-02-03_16h38.48.665,multiplicationStroop,2021.2.3,Win32,120.0048002,,,,,,,,,,,,,,,,,,,,,,,,,,,,,,,,,,,,,,,,,,,,,,,,,,,,,,,,,
,,,,left,1,0.3402,2,11,43,7,1,9,-200,left,695,2022-02-03_16h38.48.665,multiplicationStroop,2021.2.3,Win32,120.0048002,,,,,,,,,,,,,,,,,,,,,,,,,,,,,,,,,,,,,,,,,,,,,,,,,,,,,,,,,
,,,,right,1,0.2611,2,12,44,14,1,8,200,right,695,2022-02-03_16h38.48.665,multiplicationStroop,2021.2.3,Win32,120.0048002,,,,,,,,,,,,,,,,,,,,,,,,,,,,,,,,,,,,,,,,,,,,,,,,,,,,,,,,,
,,,,right,1,0.3203,2,13,45,8,1,1,200,right,695,2022-02-03_16h38.48.665,multiplicationStroop,2021.2.3,Win32,120.0048002,,,,,,,,,,,,,,,,,,,,,,,,,,,,,,,,,,,,,,,,,,,,,,,,,,,,,,,,,
,,,,left,1,0.3175,2,14,46,6,1,8,-200,left,695,2022-02-03_16h38.48.665,multiplicationStroop,2021.2.3,Win32,120.0048002,,,,,,,,,,,,,,,,,,,,,,,,,,,,,,,,,,,,,,,,,,,,,,,,,,,,,,,,,
,,,,right,1,0.2344,2,15,47,11,1,4,200,right,695,2022-02-03_16h38.48.665,multiplicationStroop,2021.2.3,Win32,120.0048002,,,,,,,,,,,,,,,,,,,,,,,,,,,,,,,,,,,,,,,,,,,,,,,,,,,,,,,,,
,,,,left,1,0.3396,3,0,48,7,1,9,-200,left,695,2022-02-03_16h38.48.665,multiplicationStroop,2021.2.3,Win32,120.0048002,,,,,,,,,,,,,,,,,,,,,,,,,,,,,,,,,,,,,,,,,,,,,,,,,,,,,,,,,
,,,,right,1,0.2869,3,1,49,10,1,3,200,right,695,2022-02-03_16h38.48.665,multiplicationStroop,2021.2.3,Win32,120.0048002,,,,,,,,,,,,,,,,,,,,,,,,,,,,,,,,,,,,,,,,,,,,,,,,,,,,,,,,,
,,,,right,1,0.3802,3,2,50,11,1,4,200,right,695,2022-02-03_16h38.48.665,multiplicationStroop,2021.2.3,Win32,120.0048002,,,,,,,,,,,,,,,,,,,,,,,,,,,,,,,,,,,,,,,,,,,,,,,,,,,,,,,,,
,,,,right,1,0.4046,3,3,51,15,1,9,200,right,695,2022-02-03_16h38.48.665,multiplicationStroop,2021.2.3,Win32,120.0048002,,,,,,,,,,,,,,,,,,,,,,,,,,,,,,,,,,,,,,,,,,,,,,,,,,,,,,,,,
,,,,right,1,0.3162,3,4,52,9,1,2,200,right,695,2022-02-03_16h38.48.665,multiplicationStroop,2021.2.3,Win32,120.0048002,,,,,,,,,,,,,,,,,,,,,,,,,,,,,,,,,,,,,,,,,,,,,,,,,,,,,,,,,
,,,,left,1,0.4224,3,5,53,2,1,3,-200,left,695,2022-02-03_16h38.48.665,multiplicationStroop,2021.2.3,Win32,120.0048002,,,,,,,,,,,,,,,,,,,,,,,,,,,,,,,,,,,,,,,,,,,,,,,,,,,,,,,,,
,,,,left,1,0.3462,3,6,54,3,1,4,-200,left,695,2022-02-03_16h38.48.665,multiplicationStroop,2021.2.3,Win32,120.0048002,,,,,,,,,,,,,,,,,,,,,,,,,,,,,,,,,,,,,,,,,,,,,,,,,,,,,,,,,
,,,,right,1,0.412,3,7,55,12,1,6,200,right,695,2022-02-03_16h38.48.665,multiplicationStroop,2021.2.3,Win32,120.0048002,,,,,,,,,,,,,,,,,,,,,,,,,,,,,,,,,,,,,,,,,,,,,,,,,,,,,,,,,
,,,,left,1,0.3218,3,8,56,4,1,6,-200,left,695,2022-02-03_16h38.48.665,multiplicationStroop,2021.2.3,Win32,120.0048002,,,,,,,,,,,,,,,,,,,,,,,,,,,,,,,,,,,,,,,,,,,,,,,,,,,,,,,,,
,,,,left,1,0.3596,3,9,57,6,1,8,-200,left,695,2022-02-03_16h38.48.665,multiplicationStroop,2021.2.3,Win32,120.0048002,,,,,,,,,,,,,,,,,,,,,,,,,,,,,,,,,,,,,,,,,,,,,,,,,,,,,,,,,
,,,,left,1,0.3427,3,10,58,1,1,2,-200,left,695,2022-02-03_16h38.48.665,multiplicationStroop,2021.2.3,Win32,120.0048002,,,,,,,,,,,,,,,,,,,,,,,,,,,,,,,,,,,,,,,,,,,,,,,,,,,,,,,,,
,,,,right,1,0.3471,3,11,59,8,1,1,200,right,695,2022-02-03_16h38.48.665,multiplicationStroop,2021.2.3,Win32,120.0048002,,,,,,,,,,,,,,,,,,,,,,,,,,,,,,,,,,,,,,,,,,,,,,,,,,,,,,,,,
,,,,right,1,0.3535,3,12,60,13,1,7,200,right,695,2022-02-03_16h38.48.665,multiplicationStroop,2021.2.3,Win32,120.0048002,,,,,,,,,,,,,,,,,,,,,,,,,,,,,,,,,,,,,,,,,,,,,,,,,,,,,,,,,
,,,,left,1,0.3306,3,13,61,5,1,7,-200,left,695,2022-02-03_16h38.48.665,multiplicationStroop,2021.2.3,Win32,120.0048002,,,,,,,,,,,,,,,,,,,,,,,,,,,,,,,,,,,,,,,,,,,,,,,,,,,,,,,,,
,,,,right,1,0.2793,3,14,62,14,1,8,200,right,695,2022-02-03_16h38.48.665,multiplicationStroop,2021.2.3,Win32,120.0048002,,,,,,,,,,,,,,,,,,,,,,,,,,,,,,,,,,,,,,,,,,,,,,,,,,,,,,,,,
,,,,left,1,0.3376,3,15,63,0,1,1,-200,left,695,2022-02-03_16h38.48.665,multiplicationStroop,2021.2.3,Win32,120.0048002,,,,,,,,,,,,,,,,,,,,,,,,,,,,,,,,,,,,,,,,,,,,,,,,,,,,,,,,,
,,,,,,,,,,,,,,,695,2022-02-03_16h38.48.665,multiplicationStroop,2021.2.3,Win32,120.0048002,space,63.4115,space,3.7695,left,1,0.6991,0,0,0,51,1,8,8,8 | 8,0,1.9756,1.4111,neutral,left,,,,,,stimulusFile/physical.xlsx,,,,,,,,,,,,,,,,,,,,,,,,,,,,,,,
,,,,,,,,,,,,,,,695,2022-02-03_16h38.48.665,multiplicationStroop,2021.2.3,Win32,120.0048002,,,,,right,1,0.5001,0,1,1,62,1,8,8,8 | 8,0,1.4111,1.9756,neutral,right,,,,,,stimulusFile/physical.xlsx,,,,,,,,,,,,,,,,,,,,,,,,,,,,,,,
,,,,,,,,,,,,,,,695,2022-02-03_16h38.48.665,multiplicationStroop,2021.2.3,Win32,120.0048002,,,,,left,1,0.6306,0,2,2,40,1,1,6,1 | 6,5,1.9756,1.4111,incongruent,left,,,,,,stimulusFile/physical.xlsx,,,,,,,,,,,,,,,,,,,,,,,,,,,,,,,
,,,,,,,,,,,,,,,695,2022-02-03_16h38.48.665,multiplicationStroop,2021.2.3,Win32,120.0048002,,,,,left,1,0.7468,0,3,3,12,1,3,1,3 | 1,2,1.9756,1.4111,congruent,left,,,,,,stimulusFile/physical.xlsx,,,,,,,,,,,,,,,,,,,,,,,,,,,,,,,
,,,,,,,,,,,,,,,695,2022-02-03_16h38.48.665,multiplicationStroop,2021.2.3,Win32,120.0048002,,,,,right,1,0.59,0,4,4,61,1,4,4,4 | 4,0,1.4111,1.9756,neutral,right,,,,,,stimulusFile/physical.xlsx,,,,,,,,,,,,,,,,,,,,,,,,,,,,,,,
,,,,,,,,,,,,,,,695,2022-02-03_16h38.48.665,multiplicationStroop,2021.2.3,Win32,120.0048002,,,,,left,1,0.5405,0,5,5,20,1,6,1,6 | 1,5,1.9756,1.4111,congruent,left,,,,,,stimulusFile/physical.xlsx,,,,,,,,,,,,,,,,,,,,,,,,,,,,,,,
,,,,,,,,,,,,,,,695,2022-02-03_16h38.48.665,multiplicationStroop,2021.2.3,Win32,120.0048002,,,,,right,1,0.4976,0,6,6,10,1,6,8,6 | 8,2,1.4111,1.9756,congruent,right,,,,,,stimulusFile/physical.xlsx,,,,,,,,,,,,,,,,,,,,,,,,,,,,,,,
,,,,,,,,,,,,,,,695,2022-02-03_16h38.48.665,multiplicationStroop,2021.2.3,Win32,120.0048002,,,,,left,1,0.4624,0,7,7,7,1,9,8,9 | 8,1,1.9756,1.4111,congruent,left,,,,,,stimulusFile/physical.xlsx,,,,,,,,,,,,,,,,,,,,,,,,,,,,,,,
,,,,,,,,,,,,,,,695,2022-02-03_16h38.48.665,multiplicationStroop,2021.2.3,Win32,120.0048002,,,,,right,1,0.4484,0,8,8,11,1,7,9,7 | 9,2,1.4111,1.9756,congruent,right,,,,,,stimulusFile/physical.xlsx,,,,,,,,,,,,,,,,,,,,,,,,,,,,,,,
,,,,,,,,,,,,,,,695,2022-02-03_16h38.48.665,multiplicationStroop,2021.2.3,Win32,120.0048002,,,,,left,1,0.8251,0,9,9,42,1,3,8,3 | 8,5,1.9756,1.4111,incongruent,left,,,,,,stimulusFile/physical.xlsx,,,,,,,,,,,,,,,,,,,,,,,,,,,,,,,
,,,,,,,,,,,,,,,695,2022-02-03_16h38.48.665,multiplicationStroop,2021.2.3,Win32,120.0048002,,,,,right,1,0.4567,0,10,10,3,1,8,9,8 | 9,1,1.4111,1.9756,congruent,right,,,,,,stimulusFile/physical.xlsx,,,,,,,,,,,,,,,,,,,,,,,,,,,,,,,
,,,,,,,,,,,,,,,695,2022-02-03_16h38.48.665,multiplicationStroop,2021.2.3,Win32,120.0048002,,,,,left,1,0.4875,0,11,11,53,1,4,4,4 | 4,0,1.9756,1.4111,neutral,left,,,,,,stimulusFile/physical.xlsx,,,,,,,,,,,,,,,,,,,,,,,,,,,,,,,
,,,,,,,,,,,,,,,695,2022-02-03_16h38.48.665,multiplicationStroop,2021.2.3,Win32,120.0048002,,,,,left,1,0.475,0,12,12,68,1,6,6,6 | 6,0,1.9756,1.4111,neutral,left,,,,,,stimulusFile/physical.xlsx,,,,,,,,,,,,,,,,,,,,,,,,,,,,,,,
,,,,,,,,,,,,,,,695,2022-02-03_16h38.48.665,multiplicationStroop,2021.2.3,Win32,120.0048002,,,,,right,0,0.5252,0,13,13,69,1,7,7,7 | 7,0,1.4111,1.9756,neutral,left,,,,,,stimulusFile/physical.xlsx,,,,,,,,,,,,,,,,,,,,,,,,,,,,,,,
,,,,,,,,,,,,,,,695,2022-02-03_16h38.48.665,multiplicationStroop,2021.2.3,Win32,120.0048002,,,,,right,1,0.6051,0,14,14,28,1,2,1,2 | 1,1,1.4111,1.9756,incongruent,right,,,,,,stimulusFile/physical.xlsx,,,,,,,,,,,,,,,,,,,,,,,,,,,,,,,
,,,,,,,,,,,,,,,695,2022-02-03_16h38.48.665,multiplicationStroop,2021.2.3,Win32,120.0048002,,,,,left,1,0.6565,0,15,15,35,1,7,9,7 | 9,2,1.9756,1.4111,incongruent,left,,,,,,stimulusFile/physical.xlsx,,,,,,,,,,,,,,,,,,,,,,,,,,,,,,,
,,,,,,,,,,,,,,,695,2022-02-03_16h38.48.665,multiplicationStroop,2021.2.3,Win32,120.0048002,,,,,left,1,0.4795,0,16,16,49,1,3,3,3 | 3,0,1.9756,1.4111,neutral,left,,,,,,stimulusFile/physical.xlsx,,,,,,,,,,,,,,,,,,,,,,,,,,,,,,,
,,,,,,,,,,,,,,,695,2022-02-03_16h38.48.665,multiplicationStroop,2021.2.3,Win32,120.0048002,,,,,right,1,0.4836,0,17,17,0,1,1,2,1 | 2,1,1.4111,1.9756,congruent,right,,,,,,stimulusFile/physical.xlsx,,,,,,,,,,,,,,,,,,,,,,,,,,,,,,,
,,,,,,,,,,,,,,,695,2022-02-03_16h38.48.665,multiplicationStroop,2021.2.3,Win32,120.0048002,,,,,right,1,0.6673,0,18,18,36,1,3,1,3 | 1,2,1.4111,1.9756,incongruent,right,,,,,,stimulusFile/physical.xlsx,,,,,,,,,,,,,,,,,,,,,,,,,,,,,,,
,,,,,,,,,,,,,,,695,2022-02-03_16h38.48.665,multiplicationStroop,2021.2.3,Win32,120.0048002,,,,,right,1,0.5194,0,19,19,31,1,9,8,9 | 8,1,1.4111,1.9756,incongruent,right,,,,,,stimulusFile/physical.xlsx,,,,,,,,,,,,,,,,,,,,,,,,,,,,,,,
,,,,,,,,,,,,,,,695,2022-02-03_16h38.48.665,multiplicationStroop,2021.2.3,Win32,120.0048002,,,,,left,1,0.4955,0,20,20,13,1,4,2,4 | 2,2,1.9756,1.4111,congruent,left,,,,,,stimulusFile/physical.xlsx,,,,,,,,,,,,,,,,,,,,,,,,,,,,,,,
,,,,,,,,,,,,,,,695,2022-02-03_16h38.48.665,multiplicationStroop,2021.2.3,Win32,120.0048002,,,,,right,1,0.4922,0,21,21,29,1,4,3,4 | 3,1,1.4111,1.9756,incongruent,right,,,,,,stimulusFile/physical.xlsx,,,,,,,,,,,,,,,,,,,,,,,,,,,,,,,
,,,,,,,,,,,,,,,695,2022-02-03_16h38.48.665,multiplicationStroop,2021.2.3,Win32,120.0048002,,,,,left,1,0.3966,0,22,22,21,1,7,2,7 | 2,5,1.9756,1.4111,congruent,left,,,,,,stimulusFile/physical.xlsx,,,,,,,,,,,,,,,,,,,,,,,,,,,,,,,
,,,,,,,,,,,,,,,695,2022-02-03_16h38.48.665,multiplicationStroop,2021.2.3,Win32,120.0048002,,,,,right,1,0.4617,0,23,23,57,1,2,2,2 | 2,0,1.4111,1.9756,neutral,right,,,,,,stimulusFile/physical.xlsx,,,,,,,,,,,,,,,,,,,,,,,,,,,,,,,
,,,,,,,,,,,,,,,695,2022-02-03_16h38.48.665,multiplicationStroop,2021.2.3,Win32,120.0048002,,,,,right,1,0.4436,0,24,24,65,1,2,2,2 | 2,0,1.4111,1.9756,neutral,right,,,,,,stimulusFile/physical.xlsx,,,,,,,,,,,,,,,,,,,,,,,,,,,,,,,
,,,,,,,,,,,,,,,695,2022-02-03_16h38.48.665,multiplicationStroop,2021.2.3,Win32,120.0048002,,,,,right,1,0.5013,0,25,25,39,1,9,7,9 | 7,2,1.4111,1.9756,incongruent,right,,,,,,stimulusFile/physical.xlsx,,,,,,,,,,,,,,,,,,,,,,,,,,,,,,,
,,,,,,,,,,,,,,,695,2022-02-03_16h38.48.665,multiplicationStroop,2021.2.3,Win32,120.0048002,,,,,left,1,0.4615,0,26,26,70,1,8,8,8 | 8,0,1.9756,1.4111,neutral,left,,,,,,stimulusFile/physical.xlsx,,,,,,,,,,,,,,,,,,,,,,,,,,,,,,,
,,,,,,,,,,,,,,,695,2022-02-03_16h38.48.665,multiplicationStroop,2021.2.3,Win32,120.0048002,,,,,right,0,0.4677,0,27,27,71,1,9,9,9 | 9,0,1.4111,1.9756,neutral,left,,,,,,stimulusFile/physical.xlsx,,,,,,,,,,,,,,,,,,,,,,,,,,,,,,,
,,,,,,,,,,,,,,,695,2022-02-03_16h38.48.665,multiplicationStroop,2021.2.3,Win32,120.0048002,,,,,left,1,0.4434,0,28,28,4,1,2,1,2 | 1,1,1.9756,1.4111,congruent,left,,,,,,stimulusFile/physical.xlsx,,,,,,,,,,,,,,,,,,,,,,,,,,,,,,,
,,,,,,,,,,,,,,,695,2022-02-03_16h38.48.665,multiplicationStroop,2021.2.3,Win32,120.0048002,,,,,left,1,0.5137,0,29,29,27,1,8,9,8 | 9,1,1.9756,1.4111,incongruent,left,,,,,,stimulusFile/physical.xlsx,,,,,,,,,,,,,,,,,,,,,,,,,,,,,,,
,,,,,,,,,,,,,,,695,2022-02-03_16h38.48.665,multiplicationStroop,2021.2.3,Win32,120.0048002,,,,,left,1,0.5176,0,30,30,55,1,9,9,9 | 9,0,1.9756,1.4111,neutral,left,,,,,,stimulusFile/physical.xlsx,,,,,,,,,,,,,,,,,,,,,,,,,,,,,,,
,,,,,,,,,,,,,,,695,2022-02-03_16h38.48.665,multiplicationStroop,2021.2.3,Win32,120.0048002,,,,,left,1,0.4932,0,31,31,25,1,3,4,3 | 4,1,1.9756,1.4111,incongruent,left,,,,,,stimulusFile/physical.xlsx,,,,,,,,,,,,,,,,,,,,,,,,,,,,,,,
,,,,,,,,,,,,,,,695,2022-02-03_16h38.48.665,multiplicationStroop,2021.2.3,Win32,120.0048002,,,,,right,1,0.4503,0,32,32,58,1,6,6,6 | 6,0,1.4111,1.9756,neutral,right,,,,,,stimulusFile/physical.xlsx,,,,,,,,,,,,,,,,,,,,,,,,,,,,,,,
,,,,,,,,,,,,,,,695,2022-02-03_16h38.48.665,multiplicationStroop,2021.2.3,Win32,120.0048002,,,,,right,1,0.4978,0,33,33,56,1,1,1,1 | 1,0,1.4111,1.9756,neutral,right,,,,,,stimulusFile/physical.xlsx,,,,,,,,,,,,,,,,,,,,,,,,,,,,,,,
,,,,,,,,,,,,,,,695,2022-02-03_16h38.48.665,multiplicationStroop,2021.2.3,Win32,120.0048002,,,,,right,1,0.5527,0,34,34,17,1,2,7,2 | 7,5,1.4111,1.9756,congruent,right,,,,,,stimulusFile/physical.xlsx,,,,,,,,,,,,,,,,,,,,,,,,,,,,,,,
,,,,,,,,,,,,,,,695,2022-02-03_16h38.48.665,multiplicationStroop,2021.2.3,Win32,120.0048002,,,,,left,1,0.5017,0,35,35,43,1,4,9,4 | 9,5,1.9756,1.4111,incongruent,left,,,,,,stimulusFile/physical.xlsx,,,,,,,,,,,,,,,,,,,,,,,,,,,,,,,
,,,,,,,,,,,,,,,695,2022-02-03_16h38.48.665,multiplicationStroop,2021.2.3,Win32,120.0048002,,,,,right,1,0.4505,0,36,36,63,1,9,9,9 | 9,0,1.4111,1.9756,neutral,right,,,,,,stimulusFile/physical.xlsx,,,,,,,,,,,,,,,,,,,,,,,,,,,,,,,
,,,,,,,,,,,,,,,695,2022-02-03_16h38.48.665,multiplicationStroop,2021.2.3,Win32,120.0048002,,,,,left,0,0.526,0,37,37,66,1,3,3,3 | 3,0,1.9756,1.4111,neutral,right,,,,,,stimulusFile/physical.xlsx,,,,,,,,,,,,,,,,,,,,,,,,,,,,,,,
,,,,,,,,,,,,,,,695,2022-02-03_16h38.48.665,multiplicationStroop,2021.2.3,Win32,120.0048002,,,,,right,1,0.503,0,38,38,67,1,4,4,4 | 4,0,1.4111,1.9756,neutral,right,,,,,,stimulusFile/physical.xlsx,,,,,,,,,,,,,,,,,,,,,,,,,,,,,,,
,,,,,,,,,,,,,,,695,2022-02-03_16h38.48.665,multiplicationStroop,2021.2.3,Win32,120.0048002,,,,,left,1,0.4749,0,39,39,32,1,1,3,1 | 3,2,1.9756,1.4111,incongruent,left,,,,,,stimulusFile/physical.xlsx,,,,,,,,,,,,,,,,,,,,,,,,,,,,,,,
,,,,,,,,,,,,,,,695,2022-02-03_16h38.48.665,multiplicationStroop,2021.2.3,Win32,120.0048002,,,,,right,1,0.5371,0,40,40,19,1,4,9,4 | 9,5,1.4111,1.9756,congruent,right,,,,,,stimulusFile/physical.xlsx,,,,,,,,,,,,,,,,,,,,,,,,,,,,,,,
,,,,,,,,,,,,,,,695,2022-02-03_16h38.48.665,multiplicationStroop,2021.2.3,Win32,120.0048002,,,,,right,1,0.5823,0,41,41,2,1,6,7,6 | 7,1,1.4111,1.9756,congruent,right,,,,,,stimulusFile/physical.xlsx,,,,,,,,,,,,,,,,,,,,,,,,,,,,,,,
,,,,,,,,,,,,,,,695,2022-02-03_16h38.48.665,multiplicationStroop,2021.2.3,Win32,120.0048002,,,,,right,1,0.5389,0,42,42,46,1,8,3,8 | 3,5,1.4111,1.9756,incongruent,right,,,,,,stimulusFile/physical.xlsx,,,,,,,,,,,,,,,,,,,,,,,,,,,,,,,
,,,,,,,,,,,,,,,695,2022-02-03_16h38.48.665,multiplicationStroop,2021.2.3,Win32,120.0048002,,,,,left,1,0.492,0,43,43,48,1,1,1,1 | 1,0,1.9756,1.4111,neutral,left,,,,,,stimulusFile/physical.xlsx,,,,,,,,,,,,,,,,,,,,,,,,,,,,,,,
,,,,,,,,,,,,,,,695,2022-02-03_16h38.48.665,multiplicationStroop,2021.2.3,Win32,120.0048002,,,,,left,1,0.7816,0,44,44,14,1,8,6,8 | 6,2,1.9756,1.4111,congruent,left,,,,,,stimulusFile/physical.xlsx,,,,,,,,,,,,,,,,,,,,,,,,,,,,,,,
,,,,,,,,,,,,,,,695,2022-02-03_16h38.48.665,multiplicationStroop,2021.2.3,Win32,120.0048002,,,,,left,1,0.5736,0,45,45,50,1,6,6,6 | 6,0,1.9756,1.4111,neutral,left,,,,,,stimulusFile/physical.xlsx,,,,,,,,,,,,,,,,,,,,,,,,,,,,,,,
,,,,,,,,,,,,,,,695,2022-02-03_16h38.48.665,multiplicationStroop,2021.2.3,Win32,120.0048002,,,,,left,1,0.5216,0,46,46,22,1,8,3,8 | 3,5,1.9756,1.4111,congruent,left,,,,,,stimulusFile/physical.xlsx,,,,,,,,,,,,,,,,,,,,,,,,,,,,,,,
,,,,,,,,,,,,,,,695,2022-02-03_16h38.48.665,multiplicationStroop,2021.2.3,Win32,120.0048002,,,,,right,1,0.4753,0,47,47,1,1,3,4,3 | 4,1,1.4111,1.9756,congruent,right,,,,,,stimulusFile/physical.xlsx,,,,,,,,,,,,,,,,,,,,,,,,,,,,,,,
,,,,,,,,,,,,,,,695,2022-02-03_16h38.48.665,multiplicationStroop,2021.2.3,Win32,120.0048002,,,,,right,1,0.6199,0,48,48,9,1,2,4,2 | 4,2,1.4111,1.9756,congruent,right,,,,,,stimulusFile/physical.xlsx,,,,,,,,,,,,,,,,,,,,,,,,,,,,,,,
,,,,,,,,,,,,,,,695,2022-02-03_16h38.48.665,multiplicationStroop,2021.2.3,Win32,120.0048002,,,,,right,1,0.6548,0,49,49,59,1,7,7,7 | 7,0,1.4111,1.9756,neutral,right,,,,,,stimulusFile/physical.xlsx,,,,,,,,,,,,,,,,,,,,,,,,,,,,,,,
,,,,,,,,,,,,,,,695,2022-02-03_16h38.48.665,multiplicationStroop,2021.2.3,Win32,120.0048002,,,,,right,1,0.5364,0,50,50,18,1,3,8,3 | 8,5,1.4111,1.9756,congruent,right,,,,,,stimulusFile/physical.xlsx,,,,,,,,,,,,,,,,,,,,,,,,,,,,,,,
,,,,,,,,,,,,,,,695,2022-02-03_16h38.48.665,multiplicationStroop,2021.2.3,Win32,120.0048002,,,,,left,1,0.4752,0,51,51,23,1,9,4,9 | 4,5,1.9756,1.4111,congruent,left,,,,,,stimulusFile/physical.xlsx,,,,,,,,,,,,,,,,,,,,,,,,,,,,,,,
,,,,,,,,,,,,,,,695,2022-02-03_16h38.48.665,multiplicationStroop,2021.2.3,Win32,120.0048002,,,,,left,1,0.5833,0,52,52,34,1,6,8,6 | 8,2,1.9756,1.4111,incongruent,left,,,,,,stimulusFile/physical.xlsx,,,,,,,,,,,,,,,,,,,,,,,,,,,,,,,
,,,,,,,,,,,,,,,695,2022-02-03_16h38.48.665,multiplicationStroop,2021.2.3,Win32,120.0048002,,,,,right,1,0.654,0,53,53,45,1,7,2,7 | 2,5,1.4111,1.9756,incongruent,right,,,,,,stimulusFile/physical.xlsx,,,,,,,,,,,,,,,,,,,,,,,,,,,,,,,
,,,,,,,,,,,,,,,695,2022-02-03_16h38.48.665,multiplicationStroop,2021.2.3,Win32,120.0048002,,,,,left,1,0.503,0,54,54,5,1,4,3,4 | 3,1,1.9756,1.4111,congruent,left,,,,,,stimulusFile/physical.xlsx,,,,,,,,,,,,,,,,,,,,,,,,,,,,,,,
,,,,,,,,,,,,,,,695,2022-02-03_16h38.48.665,multiplicationStroop,2021.2.3,Win32,120.0048002,,,,,left,0,0.512,0,55,55,64,1,1,1,1 | 1,0,1.9756,1.4111,neutral,right,,,,,,stimulusFile/physical.xlsx,,,,,,,,,,,,,,,,,,,,,,,,,,,,,,,
,,,,,,,,,,,,,,,695,2022-02-03_16h38.48.665,multiplicationStroop,2021.2.3,Win32,120.0048002,,,,,right,1,0.4939,0,56,56,60,1,3,3,3 | 3,0,1.4111,1.9756,neutral,right,,,,,,stimulusFile/physical.xlsx,,,,,,,,,,,,,,,,,,,,,,,,,,,,,,,
,,,,,,,,,,,,,,,695,2022-02-03_16h38.48.665,multiplicationStroop,2021.2.3,Win32,120.0048002,,,,,right,1,0.6561,0,57,57,44,1,6,1,6 | 1,5,1.4111,1.9756,incongruent,right,,,,,,stimulusFile/physical.xlsx,,,,,,,,,,,,,,,,,,,,,,,,,,,,,,,
,,,,,,,,,,,,,,,695,2022-02-03_16h38.48.665,multiplicationStroop,2021.2.3,Win32,120.0048002,,,,,right,1,0.5638,0,58,58,37,1,4,2,4 | 2,2,1.4111,1.9756,incongruent,right,,,,,,stimulusFile/physical.xlsx,,,,,,,,,,,,,,,,,,,,,,,,,,,,,,,
,,,,,,,,,,,,,,,695,2022-02-03_16h38.48.665,multiplicationStroop,2021.2.3,Win32,120.0048002,,,,,left,1,0.5198,0,59,59,15,1,9,7,9 | 7,2,1.9756,1.4111,congruent,left,,,,,,stimulusFile/physical.xlsx,,,,,,,,,,,,,,,,,,,,,,,,,,,,,,,
,,,,,,,,,,,,,,,695,2022-02-03_16h38.48.665,multiplicationStroop,2021.2.3,Win32,120.0048002,,,,,left,1,0.5055,0,60,60,52,1,2,2,2 | 2,0,1.9756,1.4111,neutral,left,,,,,,stimulusFile/physical.xlsx,,,,,,,,,,,,,,,,,,,,,,,,,,,,,,,
,,,,,,,,,,,,,,,695,2022-02-03_16h38.48.665,multiplicationStroop,2021.2.3,Win32,120.0048002,,,,,right,1,0.4636,0,61,61,47,1,9,4,9 | 4,5,1.4111,1.9756,incongruent,right,,,,,,stimulusFile/physical.xlsx,,,,,,,,,,,,,,,,,,,,,,,,,,,,,,,
,,,,,,,,,,,,,,,695,2022-02-03_16h38.48.665,multiplicationStroop,2021.2.3,Win32,120.0048002,,,,,right,1,0.46,0,62,62,38,1,8,6,8 | 6,2,1.4111,1.9756,incongruent,right,,,,,,stimulusFile/physical.xlsx,,,,,,,,,,,,,,,,,,,,,,,,,,,,,,,
,,,,,,,,,,,,,,,695,2022-02-03_16h38.48.665,multiplicationStroop,2021.2.3,Win32,120.0048002,,,,,left,1,0.5221,0,63,63,24,1,1,2,1 | 2,1,1.9756,1.4111,incongruent,left,,,,,,stimulusFile/physical.xlsx,,,,,,,,,,,,,,,,,,,,,,,,,,,,,,,
,,,,,,,,,,,,,,,695,2022-02-03_16h38.48.665,multiplicationStroop,2021.2.3,Win32,120.0048002,,,,,left,1,0.478,0,64,64,41,1,2,7,2 | 7,5,1.9756,1.4111,incongruent,left,,,,,,stimulusFile/physical.xlsx,,,,,,,,,,,,,,,,,,,,,,,,,,,,,,,
,,,,,,,,,,,,,,,695,2022-02-03_16h38.48.665,multiplicationStroop,2021.2.3,Win32,120.0048002,,,,,left,1,0.7121,0,65,65,6,1,7,6,7 | 6,1,1.9756,1.4111,congruent,left,,,,,,stimulusFile/physical.xlsx,,,,,,,,,,,,,,,,,,,,,,,,,,,,,,,
,,,,,,,,,,,,,,,695,2022-02-03_16h38.48.665,multiplicationStroop,2021.2.3,Win32,120.0048002,,,,,left,1,0.629,0,66,66,54,1,7,7,7 | 7,0,1.9756,1.4111,neutral,left,,,,,,stimulusFile/physical.xlsx,,,,,,,,,,,,,,,,,,,,,,,,,,,,,,,
,,,,,,,,,,,,,,,695,2022-02-03_16h38.48.665,multiplicationStroop,2021.2.3,Win32,120.0048002,,,,,right,1,0.4582,0,67,67,16,1,1,6,1 | 6,5,1.4111,1.9756,congruent,right,,,,,,stimulusFile/physical.xlsx,,,,,,,,,,,,,,,,,,,,,,,,,,,,,,,
,,,,,,,,,,,,,,,695,2022-02-03_16h38.48.665,multiplicationStroop,2021.2.3,Win32,120.0048002,,,,,right,1,0.4993,0,68,68,8,1,1,3,1 | 3,2,1.4111,1.9756,congruent,right,,,,,,stimulusFile/physical.xlsx,,,,,,,,,,,,,,,,,,,,,,,,,,,,,,,
,,,,,,,,,,,,,,,695,2022-02-03_16h38.48.665,multiplicationStroop,2021.2.3,Win32,120.0048002,,,,,left,1,0.6229,0,69,69,26,1,6,7,6 | 7,1,1.9756,1.4111,incongruent,left,,,,,,stimulusFile/physical.xlsx,,,,,,,,,,,,,,,,,,,,,,,,,,,,,,,
,,,,,,,,,,,,,,,695,2022-02-03_16h38.48.665,multiplicationStroop,2021.2.3,Win32,120.0048002,,,,,left,1,0.4415,0,70,70,33,1,2,4,2 | 4,2,1.9756,1.4111,incongruent,left,,,,,,stimulusFile/physical.xlsx,,,,,,,,,,,,,,,,,,,,,,,,,,,,,,,
,,,,,,,,,,,,,,,695,2022-02-03_16h38.48.665,multiplicationStroop,2021.2.3,Win32,120.0048002,,,,,right,1,0.505,0,71,71,30,1,7,6,7 | 6,1,1.4111,1.9756,incongruent,right,,,,,,stimulusFile/physical.xlsx,,,,,,,,,,,,,,,,,,,,,,,,,,,,,,,
,,,,,,,,,,,,,,,695,2022-02-03_16h38.48.665,multiplicationStroop,2021.2.3,Win32,120.0048002,,,,,,,,,,,,,,,,,,,,,0,0,0,1,1,stimulusFile/physical.xlsx,PHYSICALLY larger (larger font size).,images/physicallyLarger.png,,,,,,,,,,,,,,,,,,,,,,,,,,,,,
,,,,,,,,,,,,,,,695,2022-02-03_16h38.48.665,multiplicationStroop,2021.2.3,Win32,120.0048002,space,34.8826,space,1.6548,right,1,1.1066,0,0,0,27,1,8,9,8 | 9,1,1.9756,1.4111,incongruent,right,,,,,,stimulusFile/magnitude.xlsx,,,,,,,,,,,,,,,,,,,,,,,,,,,,,,,
,,,,,,,,,,,,,,,695,2022-02-03_16h38.48.665,multiplicationStroop,2021.2.3,Win32,120.0048002,,,,,right,1,0.8634,0,1,1,16,1,1,6,1 | 6,5,1.4111,1.9756,congruent,right,,,,,,stimulusFile/magnitude.xlsx,,,,,,,,,,,,,,,,,,,,,,,,,,,,,,,
,,,,,,,,,,,,,,,695,2022-02-03_16h38.48.665,multiplicationStroop,2021.2.3,Win32,120.0048002,,,,,left,1,0.5757,0,2,2,22,1,8,3,8 | 3,5,1.9756,1.4111,congruent,left,,,,,,stimulusFile/magnitude.xlsx,,,,,,,,,,,,,,,,,,,,,,,,,,,,,,,
,,,,,,,,,,,,,,,695,2022-02-03_16h38.48.665,multiplicationStroop,2021.2.3,Win32,120.0048002,,,,,left,1,0.7169,0,3,3,61,1,4,2,4 | 2,2,1.6933,1.6933,neutral,left,,,,,,stimulusFile/magnitude.xlsx,,,,,,,,,,,,,,,,,,,,,,,,,,,,,,,
,,,,,,,,,,,,,,,695,2022-02-03_16h38.48.665,multiplicationStroop,2021.2.3,Win32,120.0048002,,,,,left,1,0.832,0,4,4,30,1,7,6,7 | 6,1,1.4111,1.9756,incongruent,left,,,,,,stimulusFile/magnitude.xlsx,,,,,,,,,,,,,,,,,,,,,,,,,,,,,,,
,,,,,,,,,,,,,,,695,2022-02-03_16h38.48.665,multiplicationStroop,2021.2.3,Win32,120.0048002,,,,,right,1,0.7416,0,5,5,32,1,1,3,1 | 3,2,1.9756,1.4111,incongruent,right,,,,,,stimulusFile/magnitude.xlsx,,,,,,,,,,,,,,,,,,,,,,,,,,,,,,,
,,,,,,,,,,,,,,,695,2022-02-03_16h38.48.665,multiplicationStroop,2021.2.3,Win32,120.0048002,,,,,left,1,0.6861,0,6,6,55,1,9,8,9 | 8,1,1.6933,1.6933,neutral,left,,,,,,stimulusFile/magnitude.xlsx,,,,,,,,,,,,,,,,,,,,,,,,,,,,,,,
,,,,,,,,,,,,,,,695,2022-02-03_16h38.48.665,multiplicationStroop,2021.2.3,Win32,120.0048002,,,,,left,1,0.74,0,7,7,52,1,2,1,2 | 1,1,1.6933,1.6933,neutral,left,,,,,,stimulusFile/magnitude.xlsx,,,,,,,,,,,,,,,,,,,,,,,,,,,,,,,
,,,,,,,,,,,,,,,695,2022-02-03_16h38.48.665,multiplicationStroop,2021.2.3,Win32,120.0048002,,,,,right,1,0.5955,0,8,8,9,1,2,4,2 | 4,2,1.4111,1.9756,congruent,right,,,,,,stimulusFile/magnitude.xlsx,,,,,,,,,,,,,,,,,,,,,,,,,,,,,,,
,,,,,,,,,,,,,,,695,2022-02-03_16h38.48.665,multiplicationStroop,2021.2.3,Win32,120.0048002,,,,,right,1,0.6186,0,9,9,65,1,2,7,2 | 7,5,1.6933,1.6933,neutral,right,,,,,,stimulusFile/magnitude.xlsx,,,,,,,,,,,,,,,,,,,,,,,,,,,,,,,
,,,,,,,,,,,,,,,695,2022-02-03_16h38.48.665,multiplicationStroop,2021.2.3,Win32,120.0048002,,,,,left,1,0.8015,0,10,10,29,1,4,3,4 | 3,1,1.4111,1.9756,incongruent,left,,,,,,stimulusFile/magnitude.xlsx,,,,,,,,,,,,,,,,,,,,,,,,,,,,,,,
,,,,,,,,,,,,,,,695,2022-02-03_16h38.48.665,multiplicationStroop,2021.2.3,Win32,120.0048002,,,,,left,1,0.6733,0,11,11,45,1,7,2,7 | 2,5,1.4111,1.9756,incongruent,left,,,,,,stimulusFile/magnitude.xlsx,,,,,,,,,,,,,,,,,,,,,,,,,,,,,,,
,,,,,,,,,,,,,,,695,2022-02-03_16h38.48.665,multiplicationStroop,2021.2.3,Win32,120.0048002,,,,,left,1,0.5741,0,12,12,47,1,9,4,9 | 4,5,1.4111,1.9756,incongruent,left,,,,,,stimulusFile/magnitude.xlsx,,,,,,,,,,,,,,,,,,,,,,,,,,,,,,,
,,,,,,,,,,,,,,,695,2022-02-03_16h38.48.665,multiplicationStroop,2021.2.3,Win32,120.0048002,,,,,right,1,0.5559,0,13,13,59,1,7,9,7 | 9,2,1.6933,1.6933,neutral,right,,,,,,stimulusFile/magnitude.xlsx,,,,,,,,,,,,,,,,,,,,,,,,,,,,,,,
,,,,,,,,,,,,,,,695,2022-02-03_16h38.48.665,multiplicationStroop,2021.2.3,Win32,120.0048002,,,,,left,1,0.4781,0,14,14,4,1,2,1,2 | 1,1,1.9756,1.4111,congruent,left,,,,,,stimulusFile/magnitude.xlsx,,,,,,,,,,,,,,,,,,,,,,,,,,,,,,,
,,,,,,,,,,,,,,,695,2022-02-03_16h38.48.665,multiplicationStroop,2021.2.3,Win32,120.0048002,,,,,left,1,0.534,0,15,15,13,1,4,2,4 | 2,2,1.9756,1.4111,congruent,left,,,,,,stimulusFile/magnitude.xlsx,,,,,,,,,,,,,,,,,,,,,,,,,,,,,,,
,,,,,,,,,,,,,,,695,2022-02-03_16h38.48.665,multiplicationStroop,2021.2.3,Win32,120.0048002,,,,,left,1,0.8146,0,16,16,38,1,8,6,8 | 6,2,1.4111,1.9756,incongruent,left,,,,,,stimulusFile/magnitude.xlsx,,,,,,,,,,,,,,,,,,,,,,,,,,,,,,,
,,,,,,,,,,,,,,,695,2022-02-03_16h38.48.665,multiplicationStroop,2021.2.3,Win32,120.0048002,,,,,right,0,0.7148,0,17,17,37,1,4,2,4 | 2,2,1.4111,1.9756,incongruent,left,,,,,,stimulusFile/magnitude.xlsx,,,,,,,,,,,,,,,,,,,,,,,,,,,,,,,
,,,,,,,,,,,,,,,695,2022-02-03_16h38.48.665,multiplicationStroop,2021.2.3,Win32,120.0048002,,,,,right,1,0.8791,0,18,18,8,1,1,3,1 | 3,2,1.4111,1.9756,congruent,right,,,,,,stimulusFile/magnitude.xlsx,,,,,,,,,,,,,,,,,,,,,,,,,,,,,,,
,,,,,,,,,,,,,,,695,2022-02-03_16h38.48.665,multiplicationStroop,2021.2.3,Win32,120.0048002,,,,,left,1,0.5698,0,19,19,68,1,6,1,6 | 1,5,1.6933,1.6933,neutral,left,,,,,,stimulusFile/magnitude.xlsx,,,,,,,,,,,,,,,,,,,,,,,,,,,,,,,
,,,,,,,,,,,,,,,695,2022-02-03_16h38.48.665,multiplicationStroop,2021.2.3,Win32,120.0048002,,,,,left,1,0.5907,0,20,20,14,1,8,6,8 | 6,2,1.9756,1.4111,congruent,left,,,,,,stimulusFile/magnitude.xlsx,,,,,,,,,,,,,,,,,,,,,,,,,,,,,,,
,,,,,,,,,,,,,,,695,2022-02-03_16h38.48.665,multiplicationStroop,2021.2.3,Win32,120.0048002,,,,,right,1,0.6374,0,21,21,58,1,6,8,6 | 8,2,1.6933,1.6933,neutral,right,,,,,,stimulusFile/magnitude.xlsx,,,,,,,,,,,,,,,,,,,,,,,,,,,,,,,
,,,,,,,,,,,,,,,695,2022-02-03_16h38.48.665,multiplicationStroop,2021.2.3,Win32,120.0048002,,,,,left,1,0.5684,0,22,22,7,1,9,8,9 | 8,1,1.9756,1.4111,congruent,left,,,,,,stimulusFile/magnitude.xlsx,,,,,,,,,,,,,,,,,,,,,,,,,,,,,,,
,,,,,,,,,,,,,,,695,2022-02-03_16h38.48.665,multiplicationStroop,2021.2.3,Win32,120.0048002,,,,,left,1,0.7559,0,23,23,54,1,7,6,7 | 6,1,1.6933,1.6933,neutral,left,,,,,,stimulusFile/magnitude.xlsx,,,,,,,,,,,,,,,,,,,,,,,,,,,,,,,
,,,,,,,,,,,,,,,695,2022-02-03_16h38.48.665,multiplicationStroop,2021.2.3,Win32,120.0048002,,,,,left,1,0.6216,0,24,24,21,1,7,2,7 | 2,5,1.9756,1.4111,congruent,left,,,,,,stimulusFile/magnitude.xlsx,,,,,,,,,,,,,,,,,,,,,,,,,,,,,,,
,,,,,,,,,,,,,,,695,2022-02-03_16h38.48.665,multiplicationStroop,2021.2.3,Win32,120.0048002,,,,,right,1,0.5748,0,25,25,56,1,1,3,1 | 3,2,1.6933,1.6933,neutral,right,,,,,,stimulusFile/magnitude.xlsx,,,,,,,,,,,,,,,,,,,,,,,,,,,,,,,
,,,,,,,,,,,,,,,695,2022-02-03_16h38.48.665,multiplicationStroop,2021.2.3,Win32,120.0048002,,,,,right,1,0.6783,0,26,26,1,1,3,4,3 | 4,1,1.4111,1.9756,congruent,right,,,,,,stimulusFile/magnitude.xlsx,,,,,,,,,,,,,,,,,,,,,,,,,,,,,,,
,,,,,,,,,,,,,,,695,2022-02-03_16h38.48.665,multiplicationStroop,2021.2.3,Win32,120.0048002,,,,,left,1,0.5394,0,27,27,63,1,9,7,9 | 7,2,1.6933,1.6933,neutral,left,,,,,,stimulusFile/magnitude.xlsx,,,,,,,,,,,,,,,,,,,,,,,,,,,,,,,
,,,,,,,,,,,,,,,695,2022-02-03_16h38.48.665,multiplicationStroop,2021.2.3,Win32,120.0048002,,,,,left,1,0.7745,0,28,28,28,1,2,1,2 | 1,1,1.4111,1.9756,incongruent,left,,,,,,stimulusFile/magnitude.xlsx,,,,,,,,,,,,,,,,,,,,,,,,,,,,,,,
,,,,,,,,,,,,,,,695,2022-02-03_16h38.48.665,multiplicationStroop,2021.2.3,Win32,120.0048002,,,,,right,1,0.8215,0,29,29,41,1,2,7,2 | 7,5,1.9756,1.4111,incongruent,right,,,,,,stimulusFile/magnitude.xlsx,,,,,,,,,,,,,,,,,,,,,,,,,,,,,,,
,,,,,,,,,,,,,,,695,2022-02-03_16h38.48.665,multiplicationStroop,2021.2.3,Win32,120.0048002,,,,,right,1,0.7921,0,30,30,24,1,1,2,1 | 2,1,1.9756,1.4111,incongruent,right,,,,,,stimulusFile/magnitude.xlsx,,,,,,,,,,,,,,,,,,,,,,,,,,,,,,,
,,,,,,,,,,,,,,,695,2022-02-03_16h38.48.665,multiplicationStroop,2021.2.3,Win32,120.0048002,,,,,right,1,0.7776,0,31,31,43,1,4,9,4 | 9,5,1.9756,1.4111,incongruent,right,,,,,,stimulusFile/magnitude.xlsx,,,,,,,,,,,,,,,,,,,,,,,,,,,,,,,
,,,,,,,,,,,,,,,695,2022-02-03_16h38.48.665,multiplicationStroop,2021.2.3,Win32,120.0048002,,,,,left,1,0.6718,0,32,32,46,1,8,3,8 | 3,5,1.4111,1.9756,incongruent,left,,,,,,stimulusFile/magnitude.xlsx,,,,,,,,,,,,,,,,,,,,,,,,,,,,,,,
,,,,,,,,,,,,,,,695,2022-02-03_16h38.48.665,multiplicationStroop,2021.2.3,Win32,120.0048002,,,,,left,1,0.7322,0,33,33,53,1,4,3,4 | 3,1,1.6933,1.6933,neutral,left,,,,,,stimulusFile/magnitude.xlsx,,,,,,,,,,,,,,,,,,,,,,,,,,,,,,,
,,,,,,,,,,,,,,,695,2022-02-03_16h38.48.665,multiplicationStroop,2021.2.3,Win32,120.0048002,,,,,left,1,0.6682,0,34,34,69,1,7,2,7 | 2,5,1.6933,1.6933,neutral,left,,,,,,stimulusFile/magnitude.xlsx,,,,,,,,,,,,,,,,,,,,,,,,,,,,,,,
,,,,,,,,,,,,,,,695,2022-02-03_16h38.48.665,multiplicationStroop,2021.2.3,Win32,120.0048002,,,,,right,1,0.7247,0,35,35,48,1,1,2,1 | 2,1,1.6933,1.6933,neutral,right,,,,,,stimulusFile/magnitude.xlsx,,,,,,,,,,,,,,,,,,,,,,,,,,,,,,,
,,,,,,,,,,,,,,,695,2022-02-03_16h38.48.665,multiplicationStroop,2021.2.3,Win32,120.0048002,,,,,right,1,0.6509,0,36,36,67,1,4,9,4 | 9,5,1.6933,1.6933,neutral,right,,,,,,stimulusFile/magnitude.xlsx,,,,,,,,,,,,,,,,,,,,,,,,,,,,,,,
,,,,,,,,,,,,,,,695,2022-02-03_16h38.48.665,multiplicationStroop,2021.2.3,Win32,120.0048002,,,,,left,1,0.5934,0,37,37,12,1,3,1,3 | 1,2,1.9756,1.4111,congruent,left,,,,,,stimulusFile/magnitude.xlsx,,,,,,,,,,,,,,,,,,,,,,,,,,,,,,,
,,,,,,,,,,,,,,,695,2022-02-03_16h38.48.665,multiplicationStroop,2021.2.3,Win32,120.0048002,,,,,left,1,0.6517,0,38,38,60,1,3,1,3 | 1,2,1.6933,1.6933,neutral,left,,,,,,stimulusFile/magnitude.xlsx,,,,,,,,,,,,,,,,,,,,,,,,,,,,,,,
,,,,,,,,,,,,,,,695,2022-02-03_16h38.48.665,multiplicationStroop,2021.2.3,Win32,120.0048002,,,,,right,1,0.534,0,39,39,18,1,3,8,3 | 8,5,1.4111,1.9756,congruent,right,,,,,,stimulusFile/magnitude.xlsx,,,,,,,,,,,,,,,,,,,,,,,,,,,,,,,
,,,,,,,,,,,,,,,695,2022-02-03_16h38.48.665,multiplicationStroop,2021.2.3,Win32,120.0048002,,,,,left,1,0.6166,0,40,40,23,1,9,4,9 | 4,5,1.9756,1.4111,congruent,left,,,,,,stimulusFile/magnitude.xlsx,,,,,,,,,,,,,,,,,,,,,,,,,,,,,,,
,,,,,,,,,,,,,,,695,2022-02-03_16h38.48.665,multiplicationStroop,2021.2.3,Win32,120.0048002,,,,,right,1,0.5797,0,41,41,49,1,3,4,3 | 4,1,1.6933,1.6933,neutral,right,,,,,,stimulusFile/magnitude.xlsx,,,,,,,,,,,,,,,,,,,,,,,,,,,,,,,
,,,,,,,,,,,,,,,695,2022-02-03_16h38.48.665,multiplicationStroop,2021.2.3,Win32,120.0048002,,,,,right,1,0.599,0,42,42,40,1,1,6,1 | 6,5,1.9756,1.4111,incongruent,right,,,,,,stimulusFile/magnitude.xlsx,,,,,,,,,,,,,,,,,,,,,,,,,,,,,,,
,,,,,,,,,,,,,,,695,2022-02-03_16h38.48.665,multiplicationStroop,2021.2.3,Win32,120.0048002,,,,,right,1,0.5947,0,43,43,42,1,3,8,3 | 8,5,1.9756,1.4111,incongruent,right,,,,,,stimulusFile/magnitude.xlsx,,,,,,,,,,,,,,,,,,,,,,,,,,,,,,,
,,,,,,,,,,,,,,,695,2022-02-03_16h38.48.665,multiplicationStroop,2021.2.3,Win32,120.0048002,,,,,left,1,0.5701,0,44,44,6,1,7,6,7 | 6,1,1.9756,1.4111,congruent,left,,,,,,stimulusFile/magnitude.xlsx,,,,,,,,,,,,,,,,,,,,,,,,,,,,,,,
,,,,,,,,,,,,,,,695,2022-02-03_16h38.48.665,multiplicationStroop,2021.2.3,Win32,120.0048002,,,,,right,1,1.2698,0,45,45,57,1,2,4,2 | 4,2,1.6933,1.6933,neutral,right,,,,,,stimulusFile/magnitude.xlsx,,,,,,,,,,,,,,,,,,,,,,,,,,,,,,,
,,,,,,,,,,,,,,,695,2022-02-03_16h38.48.665,multiplicationStroop,2021.2.3,Win32,120.0048002,,,,,right,1,0.9798,0,46,46,34,1,6,8,6 | 8,2,1.9756,1.4111,incongruent,right,,,,,,stimulusFile/magnitude.xlsx,,,,,,,,,,,,,,,,,,,,,,,,,,,,,,,
,,,,,,,,,,,,,,,695,2022-02-03_16h38.48.665,multiplicationStroop,2021.2.3,Win32,120.0048002,,,,,right,1,0.5103,0,47,47,64,1,1,6,1 | 6,5,1.6933,1.6933,neutral,right,,,,,,stimulusFile/magnitude.xlsx,,,,,,,,,,,,,,,,,,,,,,,,,,,,,,,
,,,,,,,,,,,,,,,695,2022-02-03_16h38.48.665,multiplicationStroop,2021.2.3,Win32,120.0048002,,,,,right,1,0.5643,0,48,48,35,1,7,9,7 | 9,2,1.9756,1.4111,incongruent,right,,,,,,stimulusFile/magnitude.xlsx,,,,,,,,,,,,,,,,,,,,,,,,,,,,,,,
,,,,,,,,,,,,,,,695,2022-02-03_16h38.48.665,multiplicationStroop,2021.2.3,Win32,120.0048002,,,,,left,1,0.5307,0,49,49,5,1,4,3,4 | 3,1,1.9756,1.4111,congruent,left,,,,,,stimulusFile/magnitude.xlsx,,,,,,,,,,,,,,,,,,,,,,,,,,,,,,,
,,,,,,,,,,,,,,,695,2022-02-03_16h38.48.665,multiplicationStroop,2021.2.3,Win32,120.0048002,,,,,right,1,0.5575,0,50,50,51,1,8,9,8 | 9,1,1.6933,1.6933,neutral,right,,,,,,stimulusFile/magnitude.xlsx,,,,,,,,,,,,,,,,,,,,,,,,,,,,,,,
,,,,,,,,,,,,,,,695,2022-02-03_16h38.48.665,multiplicationStroop,2021.2.3,Win32,120.0048002,,,,,left,1,0.5421,0,51,51,44,1,6,1,6 | 1,5,1.4111,1.9756,incongruent,left,,,,,,stimulusFile/magnitude.xlsx,,,,,,,,,,,,,,,,,,,,,,,,,,,,,,,
,,,,,,,,,,,,,,,695,2022-02-03_16h38.48.665,multiplicationStroop,2021.2.3,Win32,120.0048002,,,,,left,1,0.5718,0,52,52,36,1,3,1,3 | 1,2,1.4111,1.9756,incongruent,left,,,,,,stimulusFile/magnitude.xlsx,,,,,,,,,,,,,,,,,,,,,,,,,,,,,,,
,,,,,,,,,,,,,,,695,2022-02-03_16h38.48.665,multiplicationStroop,2021.2.3,Win32,120.0048002,,,,,right,1,0.5736,0,53,53,0,1,1,2,1 | 2,1,1.4111,1.9756,congruent,right,,,,,,stimulusFile/magnitude.xlsx,,,,,,,,,,,,,,,,,,,,,,,,,,,,,,,
,,,,,,,,,,,,,,,695,2022-02-03_16h38.48.665,multiplicationStroop,2021.2.3,Win32,120.0048002,,,,,left,1,0.5033,0,54,54,20,1,6,1,6 | 1,5,1.9756,1.4111,congruent,left,,,,,,stimulusFile/magnitude.xlsx,,,,,,,,,,,,,,,,,,,,,,,,,,,,,,,
,,,,,,,,,,,,,,,695,2022-02-03_16h38.48.665,multiplicationStroop,2021.2.3,Win32,120.0048002,,,,,left,1,0.5183,0,55,55,71,1,9,4,9 | 4,5,1.6933,1.6933,neutral,left,,,,,,stimulusFile/magnitude.xlsx,,,,,,,,,,,,,,,,,,,,,,,,,,,,,,,
,,,,,,,,,,,,,,,695,2022-02-03_16h38.48.665,multiplicationStroop,2021.2.3,Win32,120.0048002,,,,,right,1,0.54,0,56,56,17,1,2,7,2 | 7,5,1.4111,1.9756,congruent,right,,,,,,stimulusFile/magnitude.xlsx,,,,,,,,,,,,,,,,,,,,,,,,,,,,,,,
,,,,,,,,,,,,,,,695,2022-02-03_16h38.48.665,multiplicationStroop,2021.2.3,Win32,120.0048002,,,,,left,1,0.5343,0,57,57,39,1,9,7,9 | 7,2,1.4111,1.9756,incongruent,left,,,,,,stimulusFile/magnitude.xlsx,,,,,,,,,,,,,,,,,,,,,,,,,,,,,,,
,,,,,,,,,,,,,,,695,2022-02-03_16h38.48.665,multiplicationStroop,2021.2.3,Win32,120.0048002,,,,,left,1,0.5228,0,58,58,70,1,8,3,8 | 3,5,1.6933,1.6933,neutral,left,,,,,,stimulusFile/magnitude.xlsx,,,,,,,,,,,,,,,,,,,,,,,,,,,,,,,
,,,,,,,,,,,,,,,695,2022-02-03_16h38.48.665,multiplicationStroop,2021.2.3,Win32,120.0048002,,,,,right,1,0.5187,0,59,59,3,1,8,9,8 | 9,1,1.4111,1.9756,congruent,right,,,,,,stimulusFile/magnitude.xlsx,,,,,,,,,,,,,,,,,,,,,,,,,,,,,,,
,,,,,,,,,,,,,,,695,2022-02-03_16h38.48.665,multiplicationStroop,2021.2.3,Win32,120.0048002,,,,,right,1,0.4885,0,60,60,10,1,6,8,6 | 8,2,1.4111,1.9756,congruent,right,,,,,,stimulusFile/magnitude.xlsx,,,,,,,,,,,,,,,,,,,,,,,,,,,,,,,
,,,,,,,,,,,,,,,695,2022-02-03_16h38.48.665,multiplicationStroop,2021.2.3,Win32,120.0048002,,,,,right,1,0.5493,0,61,61,50,1,6,7,6 | 7,1,1.6933,1.6933,neutral,right,,,,,,stimulusFile/magnitude.xlsx,,,,,,,,,,,,,,,,,,,,,,,,,,,,,,,
,,,,,,,,,,,,,,,695,2022-02-03_16h38.48.665,multiplicationStroop,2021.2.3,Win32,120.0048002,,,,,right,1,0.4966,0,62,62,19,1,4,9,4 | 9,5,1.4111,1.9756,congruent,right,,,,,,stimulusFile/magnitude.xlsx,,,,,,,,,,,,,,,,,,,,,,,,,,,,,,,
,,,,,,,,,,,,,,,695,2022-02-03_16h38.48.665,multiplicationStroop,2021.2.3,Win32,120.0048002,,,,,left,0,0.4846,0,63,63,25,1,3,4,3 | 4,1,1.9756,1.4111,incongruent,right,,,,,,stimulusFile/magnitude.xlsx,,,,,,,,,,,,,,,,,,,,,,,,,,,,,,,
,,,,,,,,,,,,,,,695,2022-02-03_16h38.48.665,multiplicationStroop,2021.2.3,Win32,120.0048002,,,,,right,1,0.8036,0,64,64,26,1,6,7,6 | 7,1,1.9756,1.4111,incongruent,right,,,,,,stimulusFile/magnitude.xlsx,,,,,,,,,,,,,,,,,,,,,,,,,,,,,,,
,,,,,,,,,,,,,,,695,2022-02-03_16h38.48.665,multiplicationStroop,2021.2.3,Win32,120.0048002,,,,,right,1,0.7245,0,65,65,33,1,2,4,2 | 4,2,1.9756,1.4111,incongruent,right,,,,,,stimulusFile/magnitude.xlsx,,,,,,,,,,,,,,,,,,,,,,,,,,,,,,,
,,,,,,,,,,,,,,,695,2022-02-03_16h38.48.665,multiplicationStroop,2021.2.3,Win32,120.0048002,,,,,right,1,0.5613,0,66,66,11,1,7,9,7 | 9,2,1.4111,1.9756,congruent,right,,,,,,stimulusFile/magnitude.xlsx,,,,,,,,,,,,,,,,,,,,,,,,,,,,,,,
,,,,,,,,,,,,,,,695,2022-02-03_16h38.48.665,multiplicationStroop,2021.2.3,Win32,120.0048002,,,,,right,1,0.5616,0,67,67,66,1,3,8,3 | 8,5,1.6933,1.6933,neutral,right,,,,,,stimulusFile/magnitude.xlsx,,,,,,,,,,,,,,,,,,,,,,,,,,,,,,,
,,,,,,,,,,,,,,,695,2022-02-03_16h38.48.665,multiplicationStroop,2021.2.3,Win32,120.0048002,,,,,right,1,0.7863,0,68,68,2,1,6,7,6 | 7,1,1.4111,1.9756,congruent,right,,,,,,stimulusFile/magnitude.xlsx,,,,,,,,,,,,,,,,,,,,,,,,,,,,,,,
,,,,,,,,,,,,,,,695,2022-02-03_16h38.48.665,multiplicationStroop,2021.2.3,Win32,120.0048002,,,,,left,1,0.5552,0,69,69,62,1,8,6,8 | 6,2,1.6933,1.6933,neutral,left,,,,,,stimulusFile/magnitude.xlsx,,,,,,,,,,,,,,,,,,,,,,,,,,,,,,,
,,,,,,,,,,,,,,,695,2022-02-03_16h38.48.665,multiplicationStroop,2021.2.3,Win32,120.0048002,,,,,left,1,0.9942,0,70,70,31,1,9,8,9 | 8,1,1.4111,1.9756,incongruent,left,,,,,,stimulusFile/magnitude.xlsx,,,,,,,,,,,,,,,,,,,,,,,,,,,,,,,
,,,,,,,,,,,,,,,695,2022-02-03_16h38.48.665,multiplicationStroop,2021.2.3,Win32,120.0048002,,,,,left,1,0.5,0,71,71,15,1,9,7,9 | 7,2,1.9756,1.4111,congruent,left,,,,,,stimulusFile/magnitude.xlsx,,,,,,,,,,,,,,,,,,,,,,,,,,,,,,,
,,,,,,,,,,,,,,,695,2022-02-03_16h38.48.665,multiplicationStroop,2021.2.3,Win32,120.0048002,,,,,,,,,,,,,,,,,,,,,0,1,1,0,1,stimulusFile/magnitude.xlsx,NUMERICALLY larger (larger coefficient).,images/numericallyLarger.png,,,,,,,,,,,,,,,,,,,,,,,,,,,,,
,,,,,,,,,,,,,,,695,2022-02-03_16h38.48.665,multiplicationStroop,2021.2.3,Win32,120.0048002,,,,,,,,,,,,,,,,,,,,,,,,,,,,,space,8.8458,space,2.7356,54,4.7442,1,0,0,0,20,1,9,×,6,9 × 6,incongruent,largerFirst,1,2,54,,,,,,,,
,,,,,,,,,,,,,,,695,2022-02-03_16h38.48.665,multiplicationStroop,2021.2.3,Win32,120.0048002,,,,,,,,,,,,,,,,,,,,,,,,,,,,,,,,,45,4.3891,1,0,1,1,8,1,5,×,9,5 × 9,incongruent,smallerFirst,2,1,45,,,,,,,,
,,,,,,,,,,,,,,,695,2022-02-03_16h38.48.665,multiplicationStroop,2021.2.3,Win32,120.0048002,,,,,,,,,,,,,,,,,,,,,,,,,,,,,,,,,10,4.0829,1,0,2,2,7,1,2,×,5,2 × 5,incongruent,smallerFirst,2,1,10,,,,,,,,
,,,,,,,,,,,,,,,695,2022-02-03_16h38.48.665,multiplicationStroop,2021.2.3,Win32,120.0048002,,,,,,,,,,,,,,,,,,,,,,,,,,,,,,,,,48,5.2257,1,0,3,3,15,1,8,×,6,8 × 6,incongruent,largerFirst,1,2,48,,,,,,,,
,,,,,,,,,,,,,,,695,2022-02-03_16h38.48.665,multiplicationStroop,2021.2.3,Win32,120.0048002,,,,,,,,,,,,,,,,,,,,,,,,,,,,,,,,,9,1.7005,1,0,4,4,29,1,3,×,3,3 × 3,neutral,tie,2,1,9,,,,,,,,
,,,,,,,,,,,,,,,695,2022-02-03_16h38.48.665,multiplicationStroop,2021.2.3,Win32,120.0048002,,,,,,,,,,,,,,,,,,,,,,,,,,,,,,,,,81,4.4825,1,0,5,5,35,1,9,×,9,9 × 9,neutral,tie,2,1,81,,,,,,,,
,,,,,,,,,,,,,,,695,2022-02-03_16h38.48.665,multiplicationStroop,2021.2.3,Win32,120.0048002,,,,,,,,,,,,,,,,,,,,,,,,,,,,,,,,,14,1.6105,1,0,6,6,18,1,7,×,2,7 × 2,incongruent,largerFirst,1,2,14,,,,,,,,
,,,,,,,,,,,,,,,695,2022-02-03_16h38.48.665,multiplicationStroop,2021.2.3,Win32,120.0048002,,,,,,,,,,,,,,,,,,,,,,,,,,,,,,,,,36,3.235,1,0,7,7,1,1,4,×,9,4 × 9,incongruent,smallerFirst,2,1,36,,,,,,,,
,,,,,,,,,,,,,,,695,2022-02-03_16h38.48.665,multiplicationStroop,2021.2.3,Win32,120.0048002,,,,,,,,,,,,,,,,,,,,,,,,,,,,,,,,,72,3.2311,1,0,8,8,14,1,9,×,8,9 × 8,incongruent,largerFirst,1,2,72,,,,,,,,
,,,,,,,,,,,,,,,695,2022-02-03_16h38.48.665,multiplicationStroop,2021.2.3,Win32,120.0048002,,,,,,,,,,,,,,,,,,,,,,,,,,,,,,,,,6,2.303,1,0,9,9,25,1,3,×,2,3 × 2,incongruent,largerFirst,1,2,6,,,,,,,,
,,,,,,,,,,,,,,,695,2022-02-03_16h38.48.665,multiplicationStroop,2021.2.3,Win32,120.0048002,,,,,,,,,,,,,,,,,,,,,,,,,,,,,,,,,42,2.2955,1,0,10,10,3,1,6,×,7,6 × 7,incongruent,smallerFirst,2,1,42,,,,,,,,
,,,,,,,,,,,,,,,695,2022-02-03_16h38.48.665,multiplicationStroop,2021.2.3,Win32,120.0048002,,,,,,,,,,,,,,,,,,,,,,,,,,,,,,,,,64,2.6888,1,0,11,11,34,1,8,×,8,8 × 8,neutral,tie,2,1,64,,,,,,,,
,,,,,,,,,,,,,,,695,2022-02-03_16h38.48.665,multiplicationStroop,2021.2.3,Win32,120.0048002,,,,,,,,,,,,,,,,,,,,,,,,,,,,,,,,,35,2.4266,1,0,12,12,26,1,7,×,5,7 × 5,incongruent,largerFirst,1,2,35,,,,,,,,
,,,,,,,,,,,,,,,695,2022-02-03_16h38.48.665,multiplicationStroop,2021.2.3,Win32,120.0048002,,,,,,,,,,,,,,,,,,,,,,,,,,,,,,,,,24,2.5415,1,0,13,13,6,1,4,×,6,4 × 6,incongruent,smallerFirst,2,1,24,,,,,,,,
,,,,,,,,,,,,,,,695,2022-02-03_16h38.48.665,multiplicationStroop,2021.2.3,Win32,120.0048002,,,,,,,,,,,,,,,,,,,,,,,,,,,,,,,,,49,3.1122,1,0,14,14,33,1,7,×,7,7 × 7,neutral,tie,2,1,49,,,,,,,,
,,,,,,,,,,,,,,,695,2022-02-03_16h38.48.665,multiplicationStroop,2021.2.3,Win32,120.0048002,,,,,,,,,,,,,,,,,,,,,,,,,,,,,,,,,4,1.7241,1,0,15,15,28,1,2,×,2,2 × 2,neutral,tie,2,1,4,,,,,,,,
,,,,,,,,,,,,,,,695,2022-02-03_16h38.48.665,multiplicationStroop,2021.2.3,Win32,120.0048002,,,,,,,,,,,,,,,,,,,,,,,,,,,,,,,,,30,2.2054,1,0,16,16,11,1,5,×,6,5 × 6,incongruent,smallerFirst,2,1,30,,,,,,,,
,,,,,,,,,,,,,,,695,2022-02-03_16h38.48.665,multiplicationStroop,2021.2.3,Win32,120.0048002,,,,,,,,,,,,,,,,,,,,,,,,,,,,,,,,,18,1.8334,1,0,17,17,16,1,9,×,2,9 × 2,incongruent,largerFirst,1,2,18,,,,,,,,
,,,,,,,,,,,,,,,695,2022-02-03_16h38.48.665,multiplicationStroop,2021.2.3,Win32,120.0048002,,,,,,,,,,,,,,,,,,,,,,,,,,,,,,,,,28,3.0479,1,0,18,18,2,1,4,×,7,4 × 7,incongruent,smallerFirst,2,1,28,,,,,,,,
,,,,,,,,,,,,,,,695,2022-02-03_16h38.48.665,multiplicationStroop,2021.2.3,Win32,120.0048002,,,,,,,,,,,,,,,,,,,,,,,,,,,,,,,,,18,2.2757,1,0,19,19,22,1,6,×,3,6 × 3,incongruent,largerFirst,1,2,18,,,,,,,,
,,,,,,,,,,,,,,,695,2022-02-03_16h38.48.665,multiplicationStroop,2021.2.3,Win32,120.0048002,,,,,,,,,,,,,,,,,,,,,,,,,,,,,,,,,20,1.9752,1,0,20,20,13,1,4,×,5,4 × 5,incongruent,smallerFirst,2,1,20,,,,,,,,
,,,,,,,,,,,,,,,695,2022-02-03_16h38.48.665,multiplicationStroop,2021.2.3,Win32,120.0048002,,,,,,,,,,,,,,,,,,,,,,,,,,,,,,,,,40,1.8963,1,0,21,21,27,1,8,×,5,8 × 5,incongruent,largerFirst,1,2,40,,,,,,,,
,,,,,,,,,,,,,,,695,2022-02-03_16h38.48.665,multiplicationStroop,2021.2.3,Win32,120.0048002,,,,,,,,,,,,,,,,,,,,,,,,,,,,,,,,,36,2.0438,1,0,22,22,32,1,6,×,6,6 × 6,neutral,tie,2,1,36,,,,,,,,
,,,,,,,,,,,,,,,695,2022-02-03_16h38.48.665,multiplicationStroop,2021.2.3,Win32,120.0048002,,,,,,,,,,,,,,,,,,,,,,,,,,,,,,,,,12,1.767,1,0,23,23,5,1,2,×,6,2 × 6,incongruent,smallerFirst,2,1,12,,,,,,,,
,,,,,,,,,,,,,,,695,2022-02-03_16h38.48.665,multiplicationStroop,2021.2.3,Win32,120.0048002,,,,,,,,,,,,,,,,,,,,,,,,,,,,,,,,,25,1.8339,1,0,24,24,31,1,5,×,5,5 × 5,neutral,tie,2,1,25,,,,,,,,
,,,,,,,,,,,,,,,695,2022-02-03_16h38.48.665,multiplicationStroop,2021.2.3,Win32,120.0048002,,,,,,,,,,,,,,,,,,,,,,,,,,,,,,,,,12,2.3161,1,0,25,25,19,1,4,×,3,4 × 3,incongruent,largerFirst,1,2,12,,,,,,,,
,,,,,,,,,,,,,,,695,2022-02-03_16h38.48.665,multiplicationStroop,2021.2.3,Win32,120.0048002,,,,,,,,,,,,,,,,,,,,,,,,,,,,,,,,,15,1.4158,1,0,26,26,24,1,5,×,3,5 × 3,incongruent,largerFirst,1,2,15,,,,,,,,
,,,,,,,,,,,,,,,695,2022-02-03_16h38.48.665,multiplicationStroop,2021.2.3,Win32,120.0048002,,,,,,,,,,,,,,,,,,,,,,,,,,,,,,,,,21,1.5547,1,0,27,27,12,1,3,×,7,3 × 7,incongruent,smallerFirst,2,1,21,,,,,,,,
,,,,,,,,,,,,,,,695,2022-02-03_16h38.48.665,multiplicationStroop,2021.2.3,Win32,120.0048002,,,,,,,,,,,,,,,,,,,,,,,,,,,,,,,,,24,1.7209,1,0,28,28,23,1,8,×,3,8 × 3,incongruent,largerFirst,1,2,24,,,,,,,,
,,,,,,,,,,,,,,,695,2022-02-03_16h38.48.665,multiplicationStroop,2021.2.3,Win32,120.0048002,,,,,,,,,,,,,,,,,,,,,,,,,,,,,,,,,56,3.986,1,0,29,29,0,1,7,×,8,7 × 8,incongruent,smallerFirst,2,1,56,,,,,,,,
,,,,,,,,,,,,,,,695,2022-02-03_16h38.48.665,multiplicationStroop,2021.2.3,Win32,120.0048002,,,,,,,,,,,,,,,,,,,,,,,,,,,,,,,,,27,2.9345,1,0,30,30,4,1,3,×,9,3 × 9,incongruent,smallerFirst,2,1,27,,,,,,,,
,,,,,,,,,,,,,,,695,2022-02-03_16h38.48.665,multiplicationStroop,2021.2.3,Win32,120.0048002,,,,,,,,,,,,,,,,,,,,,,,,,,,,,,,,,8,1.6762,1,0,31,31,10,1,2,×,4,2 × 4,incongruent,smallerFirst,2,1,8,,,,,,,,
,,,,,,,,,,,,,,,695,2022-02-03_16h38.48.665,multiplicationStroop,2021.2.3,Win32,120.0048002,,,,,,,,,,,,,,,,,,,,,,,,,,,,,,,,,24,1.7991,0,0,32,32,21,1,8,×,4,8 × 4,incongruent,largerFirst,1,2,32,,,,,,,,
,,,,,,,,,,,,,,,695,2022-02-03_16h38.48.665,multiplicationStroop,2021.2.3,Win32,120.0048002,,,,,,,,,,,,,,,,,,,,,,,,,,,,,,,,,16,1.7374,1,0,33,33,9,1,2,×,8,2 × 8,incongruent,smallerFirst,2,1,16,,,,,,,,
,,,,,,,,,,,,,,,695,2022-02-03_16h38.48.665,multiplicationStroop,2021.2.3,Win32,120.0048002,,,,,,,,,,,,,,,,,,,,,,,,,,,,,,,,,63,3.8762,1,0,34,34,17,1,9,×,7,9 × 7,incongruent,largerFirst,1,2,63,,,,,,,,
,,,,,,,,,,,,,,,695,2022-02-03_16h38.48.665,multiplicationStroop,2021.2.3,Win32,120.0048002,,,,,,,,,,,,,,,,,,,,,,,,,,,,,,,,,16,1.7195,1,0,35,35,30,1,4,×,4,4 × 4,neutral,tie,2,1,16,,,,,,,,
,,,,,,,,,,,,,,,695,2022-02-03_16h38.48.665,multiplicationStroop,2021.2.3,Win32,120.0048002,,,,,,,,,,,,,,,,,,,,,,,,,,,,,,,,,,,,,,,,,,,,,,,,,,0,0,0,4,1,stimulusFile/mult_blk5_INcongruent.xlsx,,
,,,,,,,,,,,,,,,695,2022-02-03_16h38.48.665,multiplicationStroop,2021.2.3,Win32,120.0048002,,,,,,,,,,,,,,,,,,,,,,,,,,,,,,,space,161.0459,9,2.3692,1,0,0,0,29,1,3,×,3,3 × 3,neutral,tie,2,1,9,,,,,,,,
,,,,,,,,,,,,,,,695,2022-02-03_16h38.48.665,multiplicationStroop,2021.2.3,Win32,120.0048002,,,,,,,,,,,,,,,,,,,,,,,,,,,,,,,,,16,1.7849,1,0,1,1,5,1,2,×,8,2 × 8,congruent,smallerFirst,1,2,16,,,,,,,,
,,,,,,,,,,,,,,,695,2022-02-03_16h38.48.665,multiplicationStroop,2021.2.3,Win32,120.0048002,,,,,,,,,,,,,,,,,,,,,,,,,,,,,,,,,10,1.8089,1,0,2,2,24,1,5,×,2,5 × 2,congruent,largerFirst,2,1,10,,,,,,,,
,,,,,,,,,,,,,,,695,2022-02-03_16h38.48.665,multiplicationStroop,2021.2.3,Win32,120.0048002,,,,,,,,,,,,,,,,,,,,,,,,,,,,,,,,,30,2.1425,1,0,3,3,15,1,6,×,5,6 × 5,congruent,largerFirst,2,1,30,,,,,,,,
,,,,,,,,,,,,,,,695,2022-02-03_16h38.48.665,multiplicationStroop,2021.2.3,Win32,120.0048002,,,,,,,,,,,,,,,,,,,,,,,,,,,,,,,,,18,1.7361,1,0,4,4,22,1,9,×,2,9 × 2,congruent,largerFirst,2,1,18,,,,,,,,
,,,,,,,,,,,,,,,695,2022-02-03_16h38.48.665,multiplicationStroop,2021.2.3,Win32,120.0048002,,,,,,,,,,,,,,,,,,,,,,,,,,,,,,,,,63,2.585,1,0,5,5,21,1,9,×,7,9 × 7,congruent,largerFirst,2,1,63,,,,,,,,
,,,,,,,,,,,,,,,695,2022-02-03_16h38.48.665,multiplicationStroop,2021.2.3,Win32,120.0048002,,,,,,,,,,,,,,,,,,,,,,,,,,,,,,,,,54,2.608,1,0,6,6,12,1,6,×,9,6 × 9,congruent,smallerFirst,1,2,54,,,,,,,,
,,,,,,,,,,,,,,,695,2022-02-03_16h38.48.665,multiplicationStroop,2021.2.3,Win32,120.0048002,,,,,,,,,,,,,,,,,,,,,,,,,,,,,,,,,18,1.9328,1,0,7,7,11,1,3,×,6,3 × 6,congruent,smallerFirst,1,2,18,,,,,,,,
,,,,,,,,,,,,,,,695,2022-02-03_16h38.48.665,multiplicationStroop,2021.2.3,Win32,120.0048002,,,,,,,,,,,,,,,,,,,,,,,,,,,,,,,,,14,1.5139,1,0,8,8,14,1,7,×,2,7 × 2,congruent,largerFirst,2,1,14,,,,,,,,
,,,,,,,,,,,,,,,695,2022-02-03_16h38.48.665,multiplicationStroop,2021.2.3,Win32,120.0048002,,,,,,,,,,,,,,,,,,,,,,,,,,,,,,,,,42,2.6114,1,0,9,9,3,1,6,×,7,6 × 7,congruent,smallerFirst,1,2,42,,,,,,,,
,,,,,,,,,,,,,,,695,2022-02-03_16h38.48.665,multiplicationStroop,2021.2.3,Win32,120.0048002,,,,,,,,,,,,,,,,,,,,,,,,,,,,,,,,,81,2.9424,1,0,10,10,35,1,9,×,9,9 × 9,neutral,tie,2,1,81,,,,,,,,
,,,,,,,,,,,,,,,695,2022-02-03_16h38.48.665,multiplicationStroop,2021.2.3,Win32,120.0048002,,,,,,,,,,,,,,,,,,,,,,,,,,,,,,,,,27,2.25,1,0,11,11,26,1,9,×,3,9 × 3,congruent,largerFirst,2,1,27,,,,,,,,
,,,,,,,,,,,,,,,695,2022-02-03_16h38.48.665,multiplicationStroop,2021.2.3,Win32,120.0048002,,,,,,,,,,,,,,,,,,,,,,,,,,,,,,,,,20,2.9432,1,0,12,12,7,1,4,×,5,4 × 5,congruent,smallerFirst,1,2,20,,,,,,,,
,,,,,,,,,,,,,,,695,2022-02-03_16h38.48.665,multiplicationStroop,2021.2.3,Win32,120.0048002,,,,,,,,,,,,,,,,,,,,,,,,,,,,,,,,,49,3.3889,1,0,13,13,33,1,7,×,7,7 × 7,neutral,tie,2,1,49,,,,,,,,
,,,,,,,,,,,,,,,695,2022-02-03_16h38.48.665,multiplicationStroop,2021.2.3,Win32,120.0048002,,,,,,,,,,,,,,,,,,,,,,,,,,,,,,,,,48,3.6845,1,0,14,14,18,1,8,×,6,8 × 6,congruent,largerFirst,2,1,48,,,,,,,,
,,,,,,,,,,,,,,,695,2022-02-03_16h38.48.665,multiplicationStroop,2021.2.3,Win32,120.0048002,,,,,,,,,,,,,,,,,,,,,,,,,,,,,,,,,21,1.5308,1,0,15,15,16,1,7,×,3,7 × 3,congruent,largerFirst,2,1,21,,,,,,,,
,,,,,,,,,,,,,,,695,2022-02-03_16h38.48.665,multiplicationStroop,2021.2.3,Win32,120.0048002,,,,,,,,,,,,,,,,,,,,,,,,,,,,,,,,,24,4.711,1,0,16,16,10,1,3,×,8,3 × 8,congruent,smallerFirst,1,2,24,,,,,,,,
,,,,,,,,,,,,,,,695,2022-02-03_16h38.48.665,multiplicationStroop,2021.2.3,Win32,120.0048002,,,,,,,,,,,,,,,,,,,,,,,,,,,,,,,,,32,3.4729,1,0,17,17,20,1,8,×,4,8 × 4,congruent,largerFirst,2,1,32,,,,,,,,
,,,,,,,,,,,,,,,695,2022-02-03_16h38.48.665,multiplicationStroop,2021.2.3,Win32,120.0048002,,,,,,,,,,,,,,,,,,,,,,,,,,,,,,,,,16,1.9112,1,0,18,18,30,1,4,×,4,4 × 4,neutral,tie,2,1,16,,,,,,,,
,,,,,,,,,,,,,,,695,2022-02-03_16h38.48.665,multiplicationStroop,2021.2.3,Win32,120.0048002,,,,,,,,,,,,,,,,,,,,,,,,,,,,,,,,,45,2.0462,1,0,19,19,23,1,9,×,5,9 × 5,congruent,largerFirst,2,1,45,,,,,,,,
,,,,,,,,,,,,,,,695,2022-02-03_16h38.48.665,multiplicationStroop,2021.2.3,Win32,120.0048002,,,,,,,,,,,,,,,,,,,,,,,,,,,,,,,,,8,1.7305,1,0,20,20,9,1,2,×,4,2 × 4,congruent,smallerFirst,1,2,8,,,,,,,,
,,,,,,,,,,,,,,,695,2022-02-03_16h38.48.665,multiplicationStroop,2021.2.3,Win32,120.0048002,,,,,,,,,,,,,,,,,,,,,,,,,,,,,,,,,12,1.5804,1,0,21,21,2,1,3,×,4,3 × 4,congruent,smallerFirst,1,2,12,,,,,,,,
,,,,,,,,,,,,,,,695,2022-02-03_16h38.48.665,multiplicationStroop,2021.2.3,Win32,120.0048002,,,,,,,,,,,,,,,,,,,,,,,,,,,,,,,,,25,1.7246,1,0,22,22,31,1,5,×,5,5 × 5,neutral,tie,2,1,25,,,,,,,,
,,,,,,,,,,,,,,,695,2022-02-03_16h38.48.665,multiplicationStroop,2021.2.3,Win32,120.0048002,,,,,,,,,,,,,,,,,,,,,,,,,,,,,,,,,35,2.7924,1,0,23,23,1,1,5,×,7,5 × 7,congruent,smallerFirst,1,2,35,,,,,,,,
,,,,,,,,,,,,,,,695,2022-02-03_16h38.48.665,multiplicationStroop,2021.2.3,Win32,120.0048002,,,,,,,,,,,,,,,,,,,,,,,,,,,,,,,,,36,3.6293,1,0,24,24,0,1,4,×,9,4 × 9,congruent,smallerFirst,1,2,36,,,,,,,,
,,,,,,,,,,,,,,,695,2022-02-03_16h38.48.665,multiplicationStroop,2021.2.3,Win32,120.0048002,,,,,,,,,,,,,,,,,,,,,,,,,,,,,,,,,15,2.3504,1,0,25,25,4,1,3,×,5,3 × 5,congruent,smallerFirst,1,2,15,,,,,,,,
,,,,,,,,,,,,,,,695,2022-02-03_16h38.48.665,multiplicationStroop,2021.2.3,Win32,120.0048002,,,,,,,,,,,,,,,,,,,,,,,,,,,,,,,,,28,2.9588,1,0,26,26,27,1,7,×,4,7 × 4,congruent,largerFirst,2,1,28,,,,,,,,
,,,,,,,,,,,,,,,695,2022-02-03_16h38.48.665,multiplicationStroop,2021.2.3,Win32,120.0048002,,,,,,,,,,,,,,,,,,,,,,,,,,,,,,,,,4,1.5271,1,0,27,27,28,1,2,×,2,2 × 2,neutral,tie,2,1,4,,,,,,,,
,,,,,,,,,,,,,,,695,2022-02-03_16h38.48.665,multiplicationStroop,2021.2.3,Win32,120.0048002,,,,,,,,,,,,,,,,,,,,,,,,,,,,,,,,,6,1.8071,1,0,28,28,13,1,2,×,3,2 × 3,congruent,smallerFirst,1,2,6,,,,,,,,
,,,,,,,,,,,,,,,695,2022-02-03_16h38.48.665,multiplicationStroop,2021.2.3,Win32,120.0048002,,,,,,,,,,,,,,,,,,,,,,,,,,,,,,,,,18,1.8145,0,0,29,29,19,1,6,×,2,6 × 2,congruent,largerFirst,2,1,12,,,,,,,,
,,,,,,,,,,,,,,,695,2022-02-03_16h38.48.665,multiplicationStroop,2021.2.3,Win32,120.0048002,,,,,,,,,,,,,,,,,,,,,,,,,,,,,,,,,24,2.593,1,0,30,30,25,1,6,×,4,6 × 4,congruent,largerFirst,2,1,24,,,,,,,,
,,,,,,,,,,,,,,,695,2022-02-03_16h38.48.665,multiplicationStroop,2021.2.3,Win32,120.0048002,,,,,,,,,,,,,,,,,,,,,,,,,,,,,,,,,64,2.8953,1,0,31,31,34,1,8,×,8,8 × 8,neutral,tie,2,1,64,,,,,,,,
,,,,,,,,,,,,,,,695,2022-02-03_16h38.48.665,multiplicationStroop,2021.2.3,Win32,120.0048002,,,,,,,,,,,,,,,,,,,,,,,,,,,,,,,,,36,3.0417,1,0,32,32,32,1,6,×,6,6 × 6,neutral,tie,2,1,36,,,,,,,,
,,,,,,,,,,,,,,,695,2022-02-03_16h38.48.665,multiplicationStroop,2021.2.3,Win32,120.0048002,,,,,,,,,,,,,,,,,,,,,,,,,,,,,,,,,40,1.8491,1,0,33,33,6,1,5,×,8,5 × 8,congruent,smallerFirst,1,2,40,,,,,,,,
,,,,,,,,,,,,,,,695,2022-02-03_16h38.48.665,multiplicationStroop,2021.2.3,Win32,120.0048002,,,,,,,,,,,,,,,,,,,,,,,,,,,,,,,,,56,2.4324,1,0,34,34,8,1,7,×,8,7 × 8,congruent,smallerFirst,1,2,56,,,,,,,,
,,,,,,,,,,,,,,,695,2022-02-03_16h38.48.665,multiplicationStroop,2021.2.3,Win32,120.0048002,,,,,,,,,,,,,,,,,,,,,,,,,,,,,,,,,72,4.147,1,0,35,35,17,1,9,×,8,9 × 8,congruent,largerFirst,2,1,72,,,,,,,,
,,,,,,,,,,,,,,,695,2022-02-03_16h38.48.665,multiplicationStroop,2021.2.3,Win32,120.0048002,,,,,,,,,,,,,,,,,,,,,,,,,,,,,,,,,,,,,,,,,,,,,,,,,,0,1,1,2,1,stimulusFile/mult_blk3_congruent.xlsx,,
,,,,,,,,,,,,,,,695,2022-02-03_16h38.48.665,multiplicationStroop,2021.2.3,Win32,120.0048002,,,,,,,,,,,,,,,,,,,,,,,,,,,,,,,space,106.8456,36,2.4851,1,0,0,0,32,1,6,×,6,6 × 6,neutral,tie,1.5,1.5,36,,,,,,,,
,,,,,,,,,,,,,,,695,2022-02-03_16h38.48.665,multiplicationStroop,2021.2.3,Win32,120.0048002,,,,,,,,,,,,,,,,,,,,,,,,,,,,,,,,,9,1.5209,1,0,1,1,29,1,3,×,3,3 × 3,neutral,tie,1.5,1.5,9,,,,,,,,
,,,,,,,,,,,,,,,695,2022-02-03_16h38.48.665,multiplicationStroop,2021.2.3,Win32,120.0048002,,,,,,,,,,,,,,,,,,,,,,,,,,,,,,,,,24,2.0773,1,0,2,2,8,1,3,×,8,3 × 8,neutral,smallerFirst,1.5,1.5,24,,,,,,,,
,,,,,,,,,,,,,,,695,2022-02-03_16h38.48.665,multiplicationStroop,2021.2.3,Win32,120.0048002,,,,,,,,,,,,,,,,,,,,,,,,,,,,,,,,,16,2.0866,1,0,3,3,30,1,4,×,4,4 × 4,neutral,tie,1.5,1.5,16,,,,,,,,
,,,,,,,,,,,,,,,695,2022-02-03_16h38.48.665,multiplicationStroop,2021.2.3,Win32,120.0048002,,,,,,,,,,,,,,,,,,,,,,,,,,,,,,,,,30,1.8551,1,0,4,4,5,1,5,×,6,5 × 6,neutral,smallerFirst,1.5,1.5,30,,,,,,,,
,,,,,,,,,,,,,,,695,2022-02-03_16h38.48.665,multiplicationStroop,2021.2.3,Win32,120.0048002,,,,,,,,,,,,,,,,,,,,,,,,,,,,,,,,,28,3.7603,1,0,5,5,3,1,4,×,7,4 × 7,neutral,smallerFirst,1.5,1.5,28,,,,,,,,
,,,,,,,,,,,,,,,695,2022-02-03_16h38.48.665,multiplicationStroop,2021.2.3,Win32,120.0048002,,,,,,,,,,,,,,,,,,,,,,,,,,,,,,,,,10,1.7334,1,0,6,6,18,1,5,×,2,5 × 2,neutral,largerFirst,1.5,1.5,10,,,,,,,,
,,,,,,,,,,,,,,,695,2022-02-03_16h38.48.665,multiplicationStroop,2021.2.3,Win32,120.0048002,,,,,,,,,,,,,,,,,,,,,,,,,,,,,,,,,81,2.2436,1,0,7,7,35,1,9,×,9,9 × 9,neutral,tie,1.5,1.5,81,,,,,,,,
,,,,,,,,,,,,,,,695,2022-02-03_16h38.48.665,multiplicationStroop,2021.2.3,Win32,120.0048002,,,,,,,,,,,,,,,,,,,,,,,,,,,,,,,,,49,2.1927,1,0,8,8,33,1,7,×,7,7 × 7,neutral,tie,1.5,1.5,49,,,,,,,,
,,,,,,,,,,,,,,,695,2022-02-03_16h38.48.665,multiplicationStroop,2021.2.3,Win32,120.0048002,,,,,,,,,,,,,,,,,,,,,,,,,,,,,,,,,12,1.5123,1,0,9,9,7,1,3,×,4,3 × 4,neutral,smallerFirst,1.5,1.5,12,,,,,,,,
,,,,,,,,,,,,,,,695,2022-02-03_16h38.48.665,multiplicationStroop,2021.2.3,Win32,120.0048002,,,,,,,,,,,,,,,,,,,,,,,,,,,,,,,,,16,1.5986,1,0,10,10,27,1,8,×,2,8 × 2,neutral,largerFirst,1.5,1.5,16,,,,,,,,
,,,,,,,,,,,,,,,695,2022-02-03_16h38.48.665,multiplicationStroop,2021.2.3,Win32,120.0048002,,,,,,,,,,,,,,,,,,,,,,,,,,,,,,,,,18,2.162,1,0,11,11,4,1,2,×,9,2 × 9,neutral,smallerFirst,1.5,1.5,18,,,,,,,,
,,,,,,,,,,,,,,,695,2022-02-03_16h38.48.665,multiplicationStroop,2021.2.3,Win32,120.0048002,,,,,,,,,,,,,,,,,,,,,,,,,,,,,,,,,12,1.7799,1,0,12,12,11,1,2,×,6,2 × 6,neutral,smallerFirst,1.5,1.5,12,,,,,,,,
,,,,,,,,,,,,,,,695,2022-02-03_16h38.48.665,multiplicationStroop,2021.2.3,Win32,120.0048002,,,,,,,,,,,,,,,,,,,,,,,,,,,,,,,,,48,2.1825,1,0,13,13,1,1,6,×,8,6 × 8,neutral,smallerFirst,1.5,1.5,48,,,,,,,,
,,,,,,,,,,,,,,,695,2022-02-03_16h38.48.665,multiplicationStroop,2021.2.3,Win32,120.0048002,,,,,,,,,,,,,,,,,,,,,,,,,,,,,,,,,35,2.7712,1,0,14,14,15,1,7,×,5,7 × 5,neutral,largerFirst,1.5,1.5,35,,,,,,,,
,,,,,,,,,,,,,,,695,2022-02-03_16h38.48.665,multiplicationStroop,2021.2.3,Win32,120.0048002,,,,,,,,,,,,,,,,,,,,,,,,,,,,,,,,,27,3.4161,1,0,15,15,0,1,3,×,9,3 × 9,neutral,smallerFirst,1.5,1.5,27,,,,,,,,
,,,,,,,,,,,,,,,695,2022-02-03_16h38.48.665,multiplicationStroop,2021.2.3,Win32,120.0048002,,,,,,,,,,,,,,,,,,,,,,,,,,,,,,,,,63,3.852,1,0,16,16,26,1,9,×,7,9 × 7,neutral,largerFirst,1.5,1.5,63,,,,,,,,
,,,,,,,,,,,,,,,695,2022-02-03_16h38.48.665,multiplicationStroop,2021.2.3,Win32,120.0048002,,,,,,,,,,,,,,,,,,,,,,,,,,,,,,,,,42,2.6823,1,0,17,17,20,1,7,×,6,7 × 6,neutral,largerFirst,1.5,1.5,42,,,,,,,,
,,,,,,,,,,,,,,,695,2022-02-03_16h38.48.665,multiplicationStroop,2021.2.3,Win32,120.0048002,,,,,,,,,,,,,,,,,,,,,,,,,,,,,,,,,15,1.5519,1,0,18,18,19,1,5,×,3,5 × 3,neutral,largerFirst,1.5,1.5,15,,,,,,,,
,,,,,,,,,,,,,,,695,2022-02-03_16h38.48.665,multiplicationStroop,2021.2.3,Win32,120.0048002,,,,,,,,,,,,,,,,,,,,,,,,,,,,,,,,,64,2.9034,1,0,19,19,34,1,8,×,8,8 × 8,neutral,tie,1.5,1.5,64,,,,,,,,
,,,,,,,,,,,,,,,695,2022-02-03_16h38.48.665,multiplicationStroop,2021.2.3,Win32,120.0048002,,,,,,,,,,,,,,,,,,,,,,,,,,,,,,,,,6,1.584,1,0,20,20,12,1,2,×,3,2 × 3,neutral,smallerFirst,1.5,1.5,6,,,,,,,,
,,,,,,,,,,,,,,,695,2022-02-03_16h38.48.665,multiplicationStroop,2021.2.3,Win32,120.0048002,,,,,,,,,,,,,,,,,,,,,,,,,,,,,,,,,45,1.8534,1,0,21,21,24,1,9,×,5,9 × 5,neutral,largerFirst,1.5,1.5,45,,,,,,,,
,,,,,,,,,,,,,,,695,2022-02-03_16h38.48.665,multiplicationStroop,2021.2.3,Win32,120.0048002,,,,,,,,,,,,,,,,,,,,,,,,,,,,,,,,,14,3.2497,1,0,22,22,2,1,2,×,7,2 × 7,neutral,smallerFirst,1.5,1.5,14,,,,,,,,
,,,,,,,,,,,,,,,695,2022-02-03_16h38.48.665,multiplicationStroop,2021.2.3,Win32,120.0048002,,,,,,,,,,,,,,,,,,,,,,,,,,,,,,,,,56,2.3486,1,0,23,23,23,1,8,×,7,8 × 7,neutral,largerFirst,1.5,1.5,56,,,,,,,,
,,,,,,,,,,,,,,,695,2022-02-03_16h38.48.665,multiplicationStroop,2021.2.3,Win32,120.0048002,,,,,,,,,,,,,,,,,,,,,,,,,,,,,,,,,36,2.5325,1,0,24,24,13,1,4,×,9,4 × 9,neutral,smallerFirst,1.5,1.5,36,,,,,,,,
,,,,,,,,,,,,,,,695,2022-02-03_16h38.48.665,multiplicationStroop,2021.2.3,Win32,120.0048002,,,,,,,,,,,,,,,,,,,,,,,,,,,,,,,,,48,1.9347,0,0,25,25,9,1,4,×,8,4 × 8,neutral,smallerFirst,1.5,1.5,32,,,,,,,,
,,,,,,,,,,,,,,,695,2022-02-03_16h38.48.665,multiplicationStroop,2021.2.3,Win32,120.0048002,,,,,,,,,,,,,,,,,,,,,,,,,,,,,,,,,54,2.6969,1,0,26,26,21,1,9,×,6,9 × 6,neutral,largerFirst,1.5,1.5,54,,,,,,,,
,,,,,,,,,,,,,,,695,2022-02-03_16h38.48.665,multiplicationStroop,2021.2.3,Win32,120.0048002,,,,,,,,,,,,,,,,,,,,,,,,,,,,,,,,,4,1.4026,1,0,27,27,28,1,2,×,2,2 × 2,neutral,tie,1.5,1.5,4,,,,,,,,
,,,,,,,,,,,,,,,695,2022-02-03_16h38.48.665,multiplicationStroop,2021.2.3,Win32,120.0048002,,,,,,,,,,,,,,,,,,,,,,,,,,,,,,,,,18,1.6994,1,0,28,28,14,1,6,×,3,6 × 3,neutral,largerFirst,1.5,1.5,18,,,,,,,,
,,,,,,,,,,,,,,,695,2022-02-03_16h38.48.665,multiplicationStroop,2021.2.3,Win32,120.0048002,,,,,,,,,,,,,,,,,,,,,,,,,,,,,,,,,20,2.0337,1,0,29,29,6,1,4,×,5,4 × 5,neutral,smallerFirst,1.5,1.5,20,,,,,,,,
,,,,,,,,,,,,,,,695,2022-02-03_16h38.48.665,multiplicationStroop,2021.2.3,Win32,120.0048002,,,,,,,,,,,,,,,,,,,,,,,,,,,,,,,,,24,1.7412,1,0,30,30,16,1,6,×,4,6 × 4,neutral,largerFirst,1.5,1.5,24,,,,,,,,
,,,,,,,,,,,,,,,695,2022-02-03_16h38.48.665,multiplicationStroop,2021.2.3,Win32,120.0048002,,,,,,,,,,,,,,,,,,,,,,,,,,,,,,,,,8,1.6917,1,0,31,31,17,1,4,×,2,4 × 2,neutral,largerFirst,1.5,1.5,8,,,,,,,,
,,,,,,,,,,,,,,,695,2022-02-03_16h38.48.665,multiplicationStroop,2021.2.3,Win32,120.0048002,,,,,,,,,,,,,,,,,,,,,,,,,,,,,,,,,21,1.5682,1,0,32,32,22,1,7,×,3,7 × 3,neutral,largerFirst,1.5,1.5,21,,,,,,,,
,,,,,,,,,,,,,,,695,2022-02-03_16h38.48.665,multiplicationStroop,2021.2.3,Win32,120.0048002,,,,,,,,,,,,,,,,,,,,,,,,,,,,,,,,,25,1.6629,1,0,33,33,31,1,5,×,5,5 × 5,neutral,tie,1.5,1.5,25,,,,,,,,
,,,,,,,,,,,,,,,695,2022-02-03_16h38.48.665,multiplicationStroop,2021.2.3,Win32,120.0048002,,,,,,,,,,,,,,,,,,,,,,,,,,,,,,,,,72,3.1227,1,0,34,34,25,1,9,×,8,9 × 8,neutral,largerFirst,1.5,1.5,72,,,,,,,,
,,,,,,,,,,,,,,,695,2022-02-03_16h38.48.665,multiplicationStroop,2021.2.3,Win32,120.0048002,,,,,,,,,,,,,,,,,,,,,,,,,,,,,,,,,40,5.5492,1,0,35,35,10,1,5,×,8,5 × 8,neutral,smallerFirst,1.5,1.5,40,,,,,,,,
,,,,,,,,,,,,,,,695,2022-02-03_16h38.48.665,multiplicationStroop,2021.2.3,Win32,120.0048002,,,,,,,,,,,,,,,,,,,,,,,,,,,,,,,,,,,,,,,,,,,,,,,,,,0,2,2,0,1,stimulusFile/mult_blk1.xlsx,,
,,,,,,,,,,,,,,,695,2022-02-03_16h38.48.665,multiplicationStroop,2021.2.3,Win32,120.0048002,,,,,,,,,,,,,,,,,,,,,,,,,,,,,,,space,241.0334,24,2.0523,1,0,0,0,24,1,8,×,3,8 × 3,congruent,largerFirst,2,1,24,,,,,,,,
,,,,,,,,,,,,,,,695,2022-02-03_16h38.48.665,multiplicationStroop,2021.2.3,Win32,120.0048002,,,,,,,,,,,,,,,,,,,,,,,,,,,,,,,,,12,1.4067,1,0,1,1,16,1,4,×,3,4 × 3,congruent,largerFirst,2,1,12,,,,,,,,
,,,,,,,,,,,,,,,695,2022-02-03_16h38.48.665,multiplicationStroop,2021.2.3,Win32,120.0048002,,,,,,,,,,,,,,,,,,,,,,,,,,,,,,,,,40,1.9077,1,0,2,2,20,1,8,×,5,8 × 5,congruent,largerFirst,2,1,40,,,,,,,,
,,,,,,,,,,,,,,,695,2022-02-03_16h38.48.665,multiplicationStroop,2021.2.3,Win32,120.0048002,,,,,,,,,,,,,,,,,,,,,,,,,,,,,,,,,81,2.195,1,0,3,3,35,1,9,×,9,9 × 9,neutral,tie,1,2,81,,,,,,,,
,,,,,,,,,,,,,,,695,2022-02-03_16h38.48.665,multiplicationStroop,2021.2.3,Win32,120.0048002,,,,,,,,,,,,,,,,,,,,,,,,,,,,,,,,,18,1.6831,1,0,4,4,8,1,2,×,9,2 × 9,congruent,smallerFirst,1,2,18,,,,,,,,
,,,,,,,,,,,,,,,695,2022-02-03_16h38.48.665,multiplicationStroop,2021.2.3,Win32,120.0048002,,,,,,,,,,,,,,,,,,,,,,,,,,,,,,,,,56,3.9618,1,0,5,5,22,1,8,×,7,8 × 7,congruent,largerFirst,2,1,56,,,,,,,,
,,,,,,,,,,,,,,,695,2022-02-03_16h38.48.665,multiplicationStroop,2021.2.3,Win32,120.0048002,,,,,,,,,,,,,,,,,,,,,,,,,,,,,,,,,45,2.0088,1,0,6,6,9,1,5,×,9,5 × 9,congruent,smallerFirst,1,2,45,,,,,,,,
,,,,,,,,,,,,,,,695,2022-02-03_16h38.48.665,multiplicationStroop,2021.2.3,Win32,120.0048002,,,,,,,,,,,,,,,,,,,,,,,,,,,,,,,,,9,1.4986,1,0,7,7,29,1,3,×,3,3 × 3,neutral,tie,1,2,9,,,,,,,,
,,,,,,,,,,,,,,,695,2022-02-03_16h38.48.665,multiplicationStroop,2021.2.3,Win32,120.0048002,,,,,,,,,,,,,,,,,,,,,,,,,,,,,,,,,42,2.0142,1,0,8,8,17,1,7,×,6,7 × 6,congruent,largerFirst,2,1,42,,,,,,,,
,,,,,,,,,,,,,,,695,2022-02-03_16h38.48.665,multiplicationStroop,2021.2.3,Win32,120.0048002,,,,,,,,,,,,,,,,,,,,,,,,,,,,,,,,,20,2.9536,1,0,9,9,21,1,5,×,4,5 × 4,congruent,largerFirst,2,1,20,,,,,,,,
,,,,,,,,,,,,,,,695,2022-02-03_16h38.48.665,multiplicationStroop,2021.2.3,Win32,120.0048002,,,,,,,,,,,,,,,,,,,,,,,,,,,,,,,,,18,1.7426,1,0,10,10,25,1,6,×,3,6 × 3,congruent,largerFirst,2,1,18,,,,,,,,
,,,,,,,,,,,,,,,695,2022-02-03_16h38.48.665,multiplicationStroop,2021.2.3,Win32,120.0048002,,,,,,,,,,,,,,,,,,,,,,,,,,,,,,,,,63,3.5183,1,0,11,11,7,1,7,×,9,7 × 9,congruent,smallerFirst,1,2,63,,,,,,,,
,,,,,,,,,,,,,,,695,2022-02-03_16h38.48.665,multiplicationStroop,2021.2.3,Win32,120.0048002,,,,,,,,,,,,,,,,,,,,,,,,,,,,,,,,,18,1.6785,0,0,12,12,12,1,3,×,9,3 × 9,congruent,smallerFirst,1,2,27,,,,,,,,
,,,,,,,,,,,,,,,695,2022-02-03_16h38.48.665,multiplicationStroop,2021.2.3,Win32,120.0048002,,,,,,,,,,,,,,,,,,,,,,,,,,,,,,,,,4,3.3401,1,0,13,13,28,1,2,×,2,2 × 2,neutral,tie,1,2,4,,,,,,,,
,,,,,,,,,,,,,,,695,2022-02-03_16h38.48.665,multiplicationStroop,2021.2.3,Win32,120.0048002,,,,,,,,,,,,,,,,,,,,,,,,,,,,,,,,,24,3.0565,1,0,14,14,11,1,4,×,6,4 × 6,congruent,smallerFirst,1,2,24,,,,,,,,
,,,,,,,,,,,,,,,695,2022-02-03_16h38.48.665,multiplicationStroop,2021.2.3,Win32,120.0048002,,,,,,,,,,,,,,,,,,,,,,,,,,,,,,,,,28,2.4069,1,0,15,15,13,1,4,×,7,4 × 7,congruent,smallerFirst,1,2,28,,,,,,,,
,,,,,,,,,,,,,,,695,2022-02-03_16h38.48.665,multiplicationStroop,2021.2.3,Win32,120.0048002,,,,,,,,,,,,,,,,,,,,,,,,,,,,,,,,,36,2.8345,1,0,16,16,32,1,6,×,6,6 × 6,neutral,tie,1,2,36,,,,,,,,
,,,,,,,,,,,,,,,695,2022-02-03_16h38.48.665,multiplicationStroop,2021.2.3,Win32,120.0048002,,,,,,,,,,,,,,,,,,,,,,,,,,,,,,,,,54,3.3283,1,0,17,17,26,1,9,×,6,9 × 6,congruent,largerFirst,2,1,54,,,,,,,,
,,,,,,,,,,,,,,,695,2022-02-03_16h38.48.665,multiplicationStroop,2021.2.3,Win32,120.0048002,,,,,,,,,,,,,,,,,,,,,,,,,,,,,,,,,16,2.3348,1,0,18,18,30,1,4,×,4,4 × 4,neutral,tie,1,2,16,,,,,,,,
,,,,,,,,,,,,,,,695,2022-02-03_16h38.48.665,multiplicationStroop,2021.2.3,Win32,120.0048002,,,,,,,,,,,,,,,,,,,,,,,,,,,,,,,,,49,2.0409,1,0,19,19,33,1,7,×,7,7 × 7,neutral,tie,1,2,49,,,,,,,,
,,,,,,,,,,,,,,,695,2022-02-03_16h38.48.665,multiplicationStroop,2021.2.3,Win32,120.0048002,,,,,,,,,,,,,,,,,,,,,,,,,,,,,,,,,12,1.5352,1,0,20,20,5,1,2,×,6,2 × 6,congruent,smallerFirst,1,2,12,,,,,,,,
,,,,,,,,,,,,,,,695,2022-02-03_16h38.48.665,multiplicationStroop,2021.2.3,Win32,120.0048002,,,,,,,,,,,,,,,,,,,,,,,,,,,,,,,,,36,2.8599,1,0,21,21,14,1,9,×,4,9 × 4,congruent,largerFirst,2,1,36,,,,,,,,
,,,,,,,,,,,,,,,695,2022-02-03_16h38.48.665,multiplicationStroop,2021.2.3,Win32,120.0048002,,,,,,,,,,,,,,,,,,,,,,,,,,,,,,,,,30,3.5882,1,0,22,22,1,1,5,×,6,5 × 6,congruent,smallerFirst,1,2,30,,,,,,,,
,,,,,,,,,,,,,,,695,2022-02-03_16h38.48.665,multiplicationStroop,2021.2.3,Win32,120.0048002,,,,,,,,,,,,,,,,,,,,,,,,,,,,,,,,,35,2.053,1,0,23,23,15,1,7,×,5,7 × 5,congruent,largerFirst,2,1,35,,,,,,,,
,,,,,,,,,,,,,,,695,2022-02-03_16h38.48.665,multiplicationStroop,2021.2.3,Win32,120.0048002,,,,,,,,,,,,,,,,,,,,,,,,,,,,,,,,,10,1.974,1,0,24,24,10,1,2,×,5,2 × 5,congruent,smallerFirst,1,2,10,,,,,,,,
,,,,,,,,,,,,,,,695,2022-02-03_16h38.48.665,multiplicationStroop,2021.2.3,Win32,120.0048002,,,,,,,,,,,,,,,,,,,,,,,,,,,,,,,,,48,3.438,1,0,25,25,4,1,6,×,8,6 × 8,congruent,smallerFirst,1,2,48,,,,,,,,
,,,,,,,,,,,,,,,695,2022-02-03_16h38.48.665,multiplicationStroop,2021.2.3,Win32,120.0048002,,,,,,,,,,,,,,,,,,,,,,,,,,,,,,,,,25,1.7341,1,0,26,26,31,1,5,×,5,5 × 5,neutral,tie,1,2,25,,,,,,,,
,,,,,,,,,,,,,,,695,2022-02-03_16h38.48.665,multiplicationStroop,2021.2.3,Win32,120.0048002,,,,,,,,,,,,,,,,,,,,,,,,,,,,,,,,,16,1.6399,1,0,27,27,19,1,8,×,2,8 × 2,congruent,largerFirst,2,1,16,,,,,,,,
,,,,,,,,,,,,,,,695,2022-02-03_16h38.48.665,multiplicationStroop,2021.2.3,Win32,120.0048002,,,,,,,,,,,,,,,,,,,,,,,,,,,,,,,,,64,2.2583,1,0,28,28,34,1,8,×,8,8 × 8,neutral,tie,1,2,64,,,,,,,,
,,,,,,,,,,,,,,,695,2022-02-03_16h38.48.665,multiplicationStroop,2021.2.3,Win32,120.0048002,,,,,,,,,,,,,,,,,,,,,,,,,,,,,,,,,8,2.8008,1,0,29,29,23,1,4,×,2,4 × 2,congruent,largerFirst,2,1,8,,,,,,,,
,,,,,,,,,,,,,,,695,2022-02-03_16h38.48.665,multiplicationStroop,2021.2.3,Win32,120.0048002,,,,,,,,,,,,,,,,,,,,,,,,,,,,,,,,,21,1.467,1,0,30,30,2,1,3,×,7,3 × 7,congruent,smallerFirst,1,2,21,,,,,,,,
,,,,,,,,,,,,,,,695,2022-02-03_16h38.48.665,multiplicationStroop,2021.2.3,Win32,120.0048002,,,,,,,,,,,,,,,,,,,,,,,,,,,,,,,,,15,1.7846,1,0,31,31,18,1,5,×,3,5 × 3,congruent,largerFirst,2,1,15,,,,,,,,
,,,,,,,,,,,,,,,695,2022-02-03_16h38.48.665,multiplicationStroop,2021.2.3,Win32,120.0048002,,,,,,,,,,,,,,,,,,,,,,,,,,,,,,,,,6,1.4811,1,0,32,32,27,1,3,×,2,3 × 2,congruent,largerFirst,2,1,6,,,,,,,,
,,,,,,,,,,,,,,,695,2022-02-03_16h38.48.665,multiplicationStroop,2021.2.3,Win32,120.0048002,,,,,,,,,,,,,,,,,,,,,,,,,,,,,,,,,32,2.9684,1,0,33,33,6,1,4,×,8,4 × 8,congruent,smallerFirst,1,2,32,,,,,,,,
,,,,,,,,,,,,,,,695,2022-02-03_16h38.48.665,multiplicationStroop,2021.2.3,Win32,120.0048002,,,,,,,,,,,,,,,,,,,,,,,,,,,,,,,,,14,2.4183,1,0,34,34,0,1,2,×,7,2 × 7,congruent,smallerFirst,1,2,14,,,,,,,,
,,,,,,,,,,,,,,,695,2022-02-03_16h38.48.665,multiplicationStroop,2021.2.3,Win32,120.0048002,,,,,,,,,,,,,,,,,,,,,,,,,,,,,,,,,72,5.0951,1,0,35,35,3,1,8,×,9,8 × 9,congruent,smallerFirst,1,2,72,,,,,,,,
,,,,,,,,,,,,,,,695,2022-02-03_16h38.48.665,multiplicationStroop,2021.2.3,Win32,120.0048002,,,,,,,,,,,,,,,,,,,,,,,,,,,,,,,,,,,,,,,,,,,,,,,,,,0,3,3,3,1,stimulusFile/mult_blk4_congruent.xlsx,,
,,,,,,,,,,,,,,,695,2022-02-03_16h38.48.665,multiplicationStroop,2021.2.3,Win32,120.0048002,,,,,,,,,,,,,,,,,,,,,,,,,,,,,,,space,1.4106,30,2.1346,1,0,0,0,25,1,6,×,5,6 × 5,incongruent,largerFirst,1,2,30,,,,,,,,
,,,,,,,,,,,,,,,695,2022-02-03_16h38.48.665,multiplicationStroop,2021.2.3,Win32,120.0048002,,,,,,,,,,,,,,,,,,,,,,,,,,,,,,,,,36,2.9721,1,0,1,1,15,1,9,×,4,9 × 4,incongruent,largerFirst,1,2,36,,,,,,,,
,,,,,,,,,,,,,,,695,2022-02-03_16h38.48.665,multiplicationStroop,2021.2.3,Win32,120.0048002,,,,,,,,,,,,,,,,,,,,,,,,,,,,,,,,,10,1.8189,1,0,2,2,21,1,5,×,2,5 × 2,incongruent,largerFirst,1,2,10,,,,,,,,
,,,,,,,,,,,,,,,695,2022-02-03_16h38.48.665,multiplicationStroop,2021.2.3,Win32,120.0048002,,,,,,,,,,,,,,,,,,,,,,,,,,,,,,,,,72,5.3165,1,0,3,3,0,1,8,×,9,8 × 9,incongruent,smallerFirst,2,1,72,,,,,,,,
,,,,,,,,,,,,,,,695,2022-02-03_16h38.48.665,multiplicationStroop,2021.2.3,Win32,120.0048002,,,,,,,,,,,,,,,,,,,,,,,,,,,,,,,,,12,1.7982,1,0,4,4,5,1,3,×,4,3 × 4,incongruent,smallerFirst,2,1,12,,,,,,,,
,,,,,,,,,,,,,,,695,2022-02-03_16h38.48.665,multiplicationStroop,2021.2.3,Win32,120.0048002,,,,,,,,,,,,,,,,,,,,,,,,,,,,,,,,,20,1.9178,1,0,5,5,27,1,5,×,4,5 × 4,incongruent,largerFirst,1,2,20,,,,,,,,
,,,,,,,,,,,,,,,695,2022-02-03_16h38.48.665,multiplicationStroop,2021.2.3,Win32,120.0048002,,,,,,,,,,,,,,,,,,,,,,,,,,,,,,,,,45,1.8835,1,0,6,6,22,1,9,×,5,9 × 5,incongruent,largerFirst,1,2,45,,,,,,,,
,,,,,,,,,,,,,,,695,2022-02-03_16h38.48.665,multiplicationStroop,2021.2.3,Win32,120.0048002,,,,,,,,,,,,,,,,,,,,,,,,,,,,,,,,,63,3.6149,1,0,7,7,3,1,7,×,9,7 × 9,incongruent,smallerFirst,2,1,63,,,,,,,,
,,,,,,,,,,,,,,,695,2022-02-03_16h38.48.665,multiplicationStroop,2021.2.3,Win32,120.0048002,,,,,,,,,,,,,,,,,,,,,,,,,,,,,,,,,64,4.8472,1,0,8,8,34,1,8,×,8,8 × 8,incongruent,tie,1,2,64,,,,,,,,
,,,,,,,,,,,,,,,695,2022-02-03_16h38.48.665,multiplicationStroop,2021.2.3,Win32,120.0048002,,,,,,,,,,,,,,,,,,,,,,,,,,,,,,,,,21,2.226,1,0,9,9,26,1,7,×,3,7 × 3,incongruent,largerFirst,1,2,21,,,,,,,,
,,,,,,,,,,,,,,,695,2022-02-03_16h38.48.665,multiplicationStroop,2021.2.3,Win32,120.0048002,,,,,,,,,,,,,,,,,,,,,,,,,,,,,,,,,27,4.0146,1,0,10,10,18,1,9,×,3,9 × 3,incongruent,largerFirst,1,2,27,,,,,,,,
,,,,,,,,,,,,,,,695,2022-02-03_16h38.48.665,multiplicationStroop,2021.2.3,Win32,120.0048002,,,,,,,,,,,,,,,,,,,,,,,,,,,,,,,,,56,2.3327,1,0,11,11,14,1,8,×,7,8 × 7,incongruent,largerFirst,1,2,56,,,,,,,,
,,,,,,,,,,,,,,,695,2022-02-03_16h38.48.665,multiplicationStroop,2021.2.3,Win32,120.0048002,,,,,,,,,,,,,,,,,,,,,,,,,,,,,,,,,35,2.0503,1,0,12,12,12,1,5,×,7,5 × 7,incongruent,smallerFirst,2,1,35,,,,,,,,
,,,,,,,,,,,,,,,695,2022-02-03_16h38.48.665,multiplicationStroop,2021.2.3,Win32,120.0048002,,,,,,,,,,,,,,,,,,,,,,,,,,,,,,,,,81,1.9527,1,0,13,13,35,1,9,×,9,9 × 9,incongruent,tie,1,2,81,,,,,,,,
,,,,,,,,,,,,,,,695,2022-02-03_16h38.48.665,multiplicationStroop,2021.2.3,Win32,120.0048002,,,,,,,,,,,,,,,,,,,,,,,,,,,,,,,,,32,3.3527,1,0,14,14,7,1,4,×,8,4 × 8,incongruent,smallerFirst,2,1,32,,,,,,,,
,,,,,,,,,,,,,,,695,2022-02-03_16h38.48.665,multiplicationStroop,2021.2.3,Win32,120.0048002,,,,,,,,,,,,,,,,,,,,,,,,,,,,,,,,,18,2.7832,1,0,15,15,8,1,3,×,6,3 × 6,incongruent,smallerFirst,2,1,18,,,,,,,,
,,,,,,,,,,,,,,,695,2022-02-03_16h38.48.665,multiplicationStroop,2021.2.3,Win32,120.0048002,,,,,,,,,,,,,,,,,,,,,,,,,,,,,,,,,14,1.829,1,0,16,16,4,1,2,×,7,2 × 7,incongruent,smallerFirst,2,1,14,,,,,,,,
,,,,,,,,,,,,,,,695,2022-02-03_16h38.48.665,multiplicationStroop,2021.2.3,Win32,120.0048002,,,,,,,,,,,,,,,,,,,,,,,,,,,,,,,,,28,2.9881,1,0,17,17,16,1,7,×,4,7 × 4,incongruent,largerFirst,1,2,28,,,,,,,,
,,,,,,,,,,,,,,,695,2022-02-03_16h38.48.665,multiplicationStroop,2021.2.3,Win32,120.0048002,,,,,,,,,,,,,,,,,,,,,,,,,,,,,,,,,24,2.4492,1,0,18,18,20,1,6,×,4,6 × 4,incongruent,largerFirst,1,2,24,,,,,,,,
,,,,,,,,,,,,,,,695,2022-02-03_16h38.48.665,multiplicationStroop,2021.2.3,Win32,120.0048002,,,,,,,,,,,,,,,,,,,,,,,,,,,,,,,,,49,3.6202,1,0,19,19,33,1,7,×,7,7 × 7,incongruent,tie,1,2,49,,,,,,,,
,,,,,,,,,,,,,,,695,2022-02-03_16h38.48.665,multiplicationStroop,2021.2.3,Win32,120.0048002,,,,,,,,,,,,,,,,,,,,,,,,,,,,,,,,,24,2.5502,1,0,20,20,9,1,3,×,8,3 × 8,incongruent,smallerFirst,2,1,24,,,,,,,,
,,,,,,,,,,,,,,,695,2022-02-03_16h38.48.665,multiplicationStroop,2021.2.3,Win32,120.0048002,,,,,,,,,,,,,,,,,,,,,,,,,,,,,,,,,18,1.9829,1,0,21,21,2,1,2,×,9,2 × 9,incongruent,smallerFirst,2,1,18,,,,,,,,
,,,,,,,,,,,,,,,695,2022-02-03_16h38.48.665,multiplicationStroop,2021.2.3,Win32,120.0048002,,,,,,,,,,,,,,,,,,,,,,,,,,,,,,,,,16,1.7296,1,0,22,22,23,1,8,×,2,8 × 2,incongruent,largerFirst,1,2,16,,,,,,,,
,,,,,,,,,,,,,,,695,2022-02-03_16h38.48.665,multiplicationStroop,2021.2.3,Win32,120.0048002,,,,,,,,,,,,,,,,,,,,,,,,,,,,,,,,,4,1.6441,1,0,23,23,28,1,2,×,2,2 × 2,incongruent,tie,1,2,4,,,,,,,,
,,,,,,,,,,,,,,,695,2022-02-03_16h38.48.665,multiplicationStroop,2021.2.3,Win32,120.0048002,,,,,,,,,,,,,,,,,,,,,,,,,,,,,,,,,25,1.5383,1,0,24,24,31,1,5,×,5,5 × 5,incongruent,tie,1,2,25,,,,,,,,
,,,,,,,,,,,,,,,695,2022-02-03_16h38.48.665,multiplicationStroop,2021.2.3,Win32,120.0048002,,,,,,,,,,,,,,,,,,,,,,,,,,,,,,,,,48,1.9128,0,0,25,25,13,1,5,×,8,5 × 8,incongruent,smallerFirst,2,1,40,,,,,,,,
,,,,,,,,,,,,,,,695,2022-02-03_16h38.48.665,multiplicationStroop,2021.2.3,Win32,120.0048002,,,,,,,,,,,,,,,,,,,,,,,,,,,,,,,,,16,1.8536,1,0,26,26,30,1,4,×,4,4 × 4,incongruent,tie,1,2,16,,,,,,,,
,,,,,,,,,,,,,,,695,2022-02-03_16h38.48.665,multiplicationStroop,2021.2.3,Win32,120.0048002,,,,,,,,,,,,,,,,,,,,,,,,,,,,,,,,,36,1.7777,1,0,27,27,32,1,6,×,6,6 × 6,incongruent,tie,1,2,36,,,,,,,,
,,,,,,,,,,,,,,,695,2022-02-03_16h38.48.665,multiplicationStroop,2021.2.3,Win32,120.0048002,,,,,,,,,,,,,,,,,,,,,,,,,,,,,,,,,6,1.5512,1,0,28,28,11,1,2,×,3,2 × 3,incongruent,smallerFirst,2,1,6,,,,,,,,
,,,,,,,,,,,,,,,695,2022-02-03_16h38.48.665,multiplicationStroop,2021.2.3,Win32,120.0048002,,,,,,,,,,,,,,,,,,,,,,,,,,,,,,,,,42,1.8051,1,0,29,29,17,1,7,×,6,7 × 6,incongruent,largerFirst,1,2,42,,,,,,,,
,,,,,,,,,,,,,,,695,2022-02-03_16h38.48.665,multiplicationStroop,2021.2.3,Win32,120.0048002,,,,,,,,,,,,,,,,,,,,,,,,,,,,,,,,,12,2.1496,1,0,30,30,19,1,6,×,2,6 × 2,incongruent,largerFirst,1,2,12,,,,,,,,
,,,,,,,,,,,,,,,695,2022-02-03_16h38.48.665,multiplicationStroop,2021.2.3,Win32,120.0048002,,,,,,,,,,,,,,,,,,,,,,,,,,,,,,,,,8,1.7829,1,0,31,31,24,1,4,×,2,4 × 2,incongruent,largerFirst,1,2,8,,,,,,,,
,,,,,,,,,,,,,,,695,2022-02-03_16h38.48.665,multiplicationStroop,2021.2.3,Win32,120.0048002,,,,,,,,,,,,,,,,,,,,,,,,,,,,,,,,,9,1.4103,1,0,32,32,29,1,3,×,3,3 × 3,incongruent,tie,1,2,9,,,,,,,,
,,,,,,,,,,,,,,,695,2022-02-03_16h38.48.665,multiplicationStroop,2021.2.3,Win32,120.0048002,,,,,,,,,,,,,,,,,,,,,,,,,,,,,,,,,54,3.0049,1,0,33,33,6,1,6,×,9,6 × 9,incongruent,smallerFirst,2,1,54,,,,,,,,
,,,,,,,,,,,,,,,695,2022-02-03_16h38.48.665,multiplicationStroop,2021.2.3,Win32,120.0048002,,,,,,,,,,,,,,,,,,,,,,,,,,,,,,,,,48,2.7132,1,0,34,34,1,1,6,×,8,6 × 8,incongruent,smallerFirst,2,1,48,,,,,,,,
,,,,,,,,,,,,,,,695,2022-02-03_16h38.48.665,multiplicationStroop,2021.2.3,Win32,120.0048002,,,,,,,,,,,,,,,,,,,,,,,,,,,,,,,,,15,1.569,1,0,35,35,10,1,3,×,5,3 × 5,incongruent,smallerFirst,2,1,15,,,,,,,,
,,,,,,,,,,,,,,,695,2022-02-03_16h38.48.665,multiplicationStroop,2021.2.3,Win32,120.0048002,,,,,,,,,,,,,,,,,,,,,,,,,,,,,,,,,,,,,,,,,,,,,,,,,,0,4,4,5,1,stimulusFile/mult_blk6_INcongruent.xlsx,,
,,,,,,,,,,,,,,,695,2022-02-03_16h38.48.665,multiplicationStroop,2021.2.3,Win32,120.0048002,,,,,,,,,,,,,,,,,,,,,,,,,,,,,,,space,1.0065,16,4.6771,1,0,0,0,13,1,2,×,8,2 × 8,neutral,smallerFirst,1.5,1.5,16,,,,,,,,
,,,,,,,,,,,,,,,695,2022-02-03_16h38.48.665,multiplicationStroop,2021.2.3,Win32,120.0048002,,,,,,,,,,,,,,,,,,,,,,,,,,,,,,,,,40,2.0813,1,0,1,1,24,1,8,×,5,8 × 5,neutral,largerFirst,1.5,1.5,40,,,,,,,,
,,,,,,,,,,,,,,,695,2022-02-03_16h38.48.665,multiplicationStroop,2021.2.3,Win32,120.0048002,,,,,,,,,,,,,,,,,,,,,,,,,,,,,,,,,36,1.8953,1,0,2,2,32,1,6,×,6,6 × 6,neutral,tie,1.5,1.5,36,,,,,,,,
,,,,,,,,,,,,,,,695,2022-02-03_16h38.48.665,multiplicationStroop,2021.2.3,Win32,120.0048002,,,,,,,,,,,,,,,,,,,,,,,,,,,,,,,,,28,2.0612,1,0,3,3,17,1,7,×,4,7 × 4,neutral,largerFirst,1.5,1.5,28,,,,,,,,
,,,,,,,,,,,,,,,695,2022-02-03_16h38.48.665,multiplicationStroop,2021.2.3,Win32,120.0048002,,,,,,,,,,,,,,,,,,,,,,,,,,,,,,,,,54,2.4065,1,0,4,4,7,1,6,×,9,6 × 9,neutral,smallerFirst,1.5,1.5,54,,,,,,,,
,,,,,,,,,,,,,,,695,2022-02-03_16h38.48.665,multiplicationStroop,2021.2.3,Win32,120.0048002,,,,,,,,,,,,,,,,,,,,,,,,,,,,,,,,,18,3.0289,1,0,5,5,0,1,3,×,6,3 × 6,neutral,smallerFirst,1.5,1.5,18,,,,,,,,
,,,,,,,,,,,,,,,695,2022-02-03_16h38.48.665,multiplicationStroop,2021.2.3,Win32,120.0048002,,,,,,,,,,,,,,,,,,,,,,,,,,,,,,,,,72,2.9849,1,0,6,6,11,1,8,×,9,8 × 9,neutral,smallerFirst,1.5,1.5,72,,,,,,,,
,,,,,,,,,,,,,,,695,2022-02-03_16h38.48.665,multiplicationStroop,2021.2.3,Win32,120.0048002,,,,,,,,,,,,,,,,,,,,,,,,,,,,,,,,,24,5.465,1,0,7,7,22,1,8,×,3,8 × 3,neutral,largerFirst,1.5,1.5,24,,,,,,,,
,,,,,,,,,,,,,,,695,2022-02-03_16h38.48.665,multiplicationStroop,2021.2.3,Win32,120.0048002,,,,,,,,,,,,,,,,,,,,,,,,,,,,,,,,,8,1.847,1,0,8,8,3,1,2,×,4,2 × 4,neutral,smallerFirst,1.5,1.5,8,,,,,,,,
,,,,,,,,,,,,,,,695,2022-02-03_16h38.48.665,multiplicationStroop,2021.2.3,Win32,120.0048002,,,,,,,,,,,,,,,,,,,,,,,,,,,,,,,,,56,1.7074,1,0,9,9,9,1,7,×,8,7 × 8,neutral,smallerFirst,1.5,1.5,56,,,,,,,,
,,,,,,,,,,,,,,,695,2022-02-03_16h38.48.665,multiplicationStroop,2021.2.3,Win32,120.0048002,,,,,,,,,,,,,,,,,,,,,,,,,,,,,,,,,25,1.7757,1,0,10,10,31,1,5,×,5,5 × 5,neutral,tie,1.5,1.5,25,,,,,,,,
,,,,,,,,,,,,,,,695,2022-02-03_16h38.48.665,multiplicationStroop,2021.2.3,Win32,120.0048002,,,,,,,,,,,,,,,,,,,,,,,,,,,,,,,,,14,1.5879,1,0,11,11,16,1,7,×,2,7 × 2,neutral,largerFirst,1.5,1.5,14,,,,,,,,
,,,,,,,,,,,,,,,695,2022-02-03_16h38.48.665,multiplicationStroop,2021.2.3,Win32,120.0048002,,,,,,,,,,,,,,,,,,,,,,,,,,,,,,,,,21,1.7795,1,0,12,12,8,1,3,×,7,3 × 7,neutral,smallerFirst,1.5,1.5,21,,,,,,,,
,,,,,,,,,,,,,,,695,2022-02-03_16h38.48.665,multiplicationStroop,2021.2.3,Win32,120.0048002,,,,,,,,,,,,,,,,,,,,,,,,,,,,,,,,,15,1.9126,1,0,13,13,5,1,3,×,5,3 × 5,neutral,smallerFirst,1.5,1.5,15,,,,,,,,
,,,,,,,,,,,,,,,695,2022-02-03_16h38.48.665,multiplicationStroop,2021.2.3,Win32,120.0048002,,,,,,,,,,,,,,,,,,,,,,,,,,,,,,,,,27,2.0796,1,0,14,14,14,1,9,×,3,9 × 3,neutral,largerFirst,1.5,1.5,27,,,,,,,,
,,,,,,,,,,,,,,,695,2022-02-03_16h38.48.665,multiplicationStroop,2021.2.3,Win32,120.0048002,,,,,,,,,,,,,,,,,,,,,,,,,,,,,,,,,32,1.9648,1,0,15,15,23,1,8,×,4,8 × 4,neutral,largerFirst,1.5,1.5,32,,,,,,,,
,,,,,,,,,,,,,,,695,2022-02-03_16h38.48.665,multiplicationStroop,2021.2.3,Win32,120.0048002,,,,,,,,,,,,,,,,,,,,,,,,,,,,,,,,,63,2.4391,1,0,16,16,12,1,7,×,9,7 × 9,neutral,smallerFirst,1.5,1.5,63,,,,,,,,
,,,,,,,,,,,,,,,695,2022-02-03_16h38.48.665,multiplicationStroop,2021.2.3,Win32,120.0048002,,,,,,,,,,,,,,,,,,,,,,,,,,,,,,,,,49,2.2768,1,0,17,17,33,1,7,×,7,7 × 7,neutral,tie,1.5,1.5,49,,,,,,,,
,,,,,,,,,,,,,,,695,2022-02-03_16h38.48.665,multiplicationStroop,2021.2.3,Win32,120.0048002,,,,,,,,,,,,,,,,,,,,,,,,,,,,,,,,,12,1.3562,1,0,18,18,21,1,4,×,3,4 × 3,neutral,largerFirst,1.5,1.5,12,,,,,,,,
,,,,,,,,,,,,,,,695,2022-02-03_16h38.48.665,multiplicationStroop,2021.2.3,Win32,120.0048002,,,,,,,,,,,,,,,,,,,,,,,,,,,,,,,,,64,2.0071,1,0,19,19,34,1,8,×,8,8 × 8,neutral,tie,1.5,1.5,64,,,,,,,,
,,,,,,,,,,,,,,,695,2022-02-03_16h38.48.665,multiplicationStroop,2021.2.3,Win32,120.0048002,,,,,,,,,,,,,,,,,,,,,,,,,,,,,,,,,35,2.3422,1,0,20,20,1,1,5,×,7,5 × 7,neutral,smallerFirst,1.5,1.5,35,,,,,,,,
,,,,,,,,,,,,,,,695,2022-02-03_16h38.48.665,multiplicationStroop,2021.2.3,Win32,120.0048002,,,,,,,,,,,,,,,,,,,,,,,,,,,,,,,,,30,2.1198,1,0,21,21,19,1,6,×,5,6 × 5,neutral,largerFirst,1.5,1.5,30,,,,,,,,
,,,,,,,,,,,,,,,695,2022-02-03_16h38.48.665,multiplicationStroop,2021.2.3,Win32,120.0048002,,,,,,,,,,,,,,,,,,,,,,,,,,,,,,,,,10,1.8268,1,0,22,22,4,1,2,×,5,2 × 5,neutral,smallerFirst,1.5,1.5,10,,,,,,,,
,,,,,,,,,,,,,,,695,2022-02-03_16h38.48.665,multiplicationStroop,2021.2.3,Win32,120.0048002,,,,,,,,,,,,,,,,,,,,,,,,,,,,,,,,,18,1.8754,1,0,23,23,18,1,9,×,2,9 × 2,neutral,largerFirst,1.5,1.5,18,,,,,,,,
,,,,,,,,,,,,,,,695,2022-02-03_16h38.48.665,multiplicationStroop,2021.2.3,Win32,120.0048002,,,,,,,,,,,,,,,,,,,,,,,,,,,,,,,,,20,2.0016,1,0,24,24,20,1,5,×,4,5 × 4,neutral,largerFirst,1.5,1.5,20,,,,,,,,
,,,,,,,,,,,,,,,695,2022-02-03_16h38.48.665,multiplicationStroop,2021.2.3,Win32,120.0048002,,,,,,,,,,,,,,,,,,,,,,,,,,,,,,,,,4,1.4628,1,0,25,25,28,1,2,×,2,2 × 2,neutral,tie,1.5,1.5,4,,,,,,,,
,,,,,,,,,,,,,,,695,2022-02-03_16h38.48.665,multiplicationStroop,2021.2.3,Win32,120.0048002,,,,,,,,,,,,,,,,,,,,,,,,,,,,,,,,,6,1.4459,1,0,26,26,26,1,3,×,2,3 × 2,neutral,largerFirst,1.5,1.5,6,,,,,,,,
,,,,,,,,,,,,,,,695,2022-02-03_16h38.48.665,multiplicationStroop,2021.2.3,Win32,120.0048002,,,,,,,,,,,,,,,,,,,,,,,,,,,,,,,,,45,2.6807,1,0,27,27,10,1,5,×,9,5 × 9,neutral,smallerFirst,1.5,1.5,45,,,,,,,,
,,,,,,,,,,,,,,,695,2022-02-03_16h38.48.665,multiplicationStroop,2021.2.3,Win32,120.0048002,,,,,,,,,,,,,,,,,,,,,,,,,,,,,,,,,16,2.0836,1,0,28,28,30,1,4,×,4,4 × 4,neutral,tie,1.5,1.5,16,,,,,,,,
,,,,,,,,,,,,,,,695,2022-02-03_16h38.48.665,multiplicationStroop,2021.2.3,Win32,120.0048002,,,,,,,,,,,,,,,,,,,,,,,,,,,,,,,,,12,1.4878,1,0,29,29,25,1,6,×,2,6 × 2,neutral,largerFirst,1.5,1.5,12,,,,,,,,
,,,,,,,,,,,,,,,695,2022-02-03_16h38.48.665,multiplicationStroop,2021.2.3,Win32,120.0048002,,,,,,,,,,,,,,,,,,,,,,,,,,,,,,,,,81,2.1502,1,0,30,30,35,1,9,×,9,9 × 9,neutral,tie,1.5,1.5,81,,,,,,,,
,,,,,,,,,,,,,,,695,2022-02-03_16h38.48.665,multiplicationStroop,2021.2.3,Win32,120.0048002,,,,,,,,,,,,,,,,,,,,,,,,,,,,,,,,,24,1.9545,1,0,31,31,2,1,4,×,6,4 × 6,neutral,smallerFirst,1.5,1.5,24,,,,,,,,
,,,,,,,,,,,,,,,695,2022-02-03_16h38.48.665,multiplicationStroop,2021.2.3,Win32,120.0048002,,,,,,,,,,,,,,,,,,,,,,,,,,,,,,,,,42,1.994,1,0,32,32,6,1,6,×,7,6 × 7,neutral,smallerFirst,1.5,1.5,42,,,,,,,,
,,,,,,,,,,,,,,,695,2022-02-03_16h38.48.665,multiplicationStroop,2021.2.3,Win32,120.0048002,,,,,,,,,,,,,,,,,,,,,,,,,,,,,,,,,9,1.5139,1,0,33,33,29,1,3,×,3,3 × 3,neutral,tie,1.5,1.5,9,,,,,,,,
,,,,,,,,,,,,,,,695,2022-02-03_16h38.48.665,multiplicationStroop,2021.2.3,Win32,120.0048002,,,,,,,,,,,,,,,,,,,,,,,,,,,,,,,,,36,5.0237,1,0,34,34,27,1,9,×,4,9 × 4,neutral,largerFirst,1.5,1.5,36,,,,,,,,
,,,,,,,,,,,,,,,695,2022-02-03_16h38.48.665,multiplicationStroop,2021.2.3,Win32,120.0048002,,,,,,,,,,,,,,,,,,,,,,,,,,,,,,,,,48,1.9824,1,0,35,35,15,1,8,×,6,8 × 6,neutral,largerFirst,1.5,1.5,48,,,,,,,,
,,,,,,,,,,,,,,,695,2022-02-03_16h38.48.665,multiplicationStroop,2021.2.3,Win32,120.0048002,,,,,,,,,,,,,,,,,,,,,,,,,,,,,,,,,,,,,,,,,,,,,,,,,,0,5,5,1,1,stimulusFile/mult_blk2.xlsx,,
,,,,,,,,,,,,,,,695,2022-02-03_16h38.48.665,multiplicationStroop,2021.2.3,Win32,120.0048002,,,,,,,,,,,,,,,,,,,,,,,,,,,,,,,,,,,,,,,,,,,,,,,,,,,,,,,,space,14.6472