welcomeKey_resp.keys,welcomeKey_resp.rt,X Scale,Y Scale,rt_resp_4.keys,rt_resp_4.corr,rt_resp_4.rt,speedtest_2.thisRepN,speedtest_2.thisTrialN,speedtest_2.thisN,speedtest_2.thisIndex,speedtest_2.ran,numberSc,posX,positionLayout,participant,date,expName,psychopyVersion,OS,frameRate,ct_instrresp.keys,ct_instrresp.rt,key_resp_2.keys,key_resp_2.rt,ct_keyResp.keys,ct_keyResp.corr,ct_keyResp.rt,trials.thisRepN,trials.thisTrialN,trials.thisN,trials.thisIndex,trials.ran,leftNo,rightNo,displayProblem,numDistance,leftNo_size,rightNo_size,Dims,keyAnswer,TS_Loop.thisRepN,TS_Loop.thisTrialN,TS_Loop.thisN,TS_Loop.thisIndex,TS_Loop.ran,Condition,ActionInst,instrImage,mltptaskInst_resp.keys,mltptaskInst_resp.rt,continue_resp_2.keys,continue_resp_2.rt,multp_Answer,multi_RT,multiplyCorr,LoopingMultiply.thisRepN,LoopingMultiply.thisTrialN,LoopingMultiply.thisN,LoopingMultiply.thisIndex,LoopingMultiply.ran,factor1,multiplySign,factor2,multliplyProblem,physicalSize,orderOperand,sizeF1,sizeF2,mult_answer,trials_stroop.thisRepN,trials_stroop.thisTrialN,trials_stroop.thisN,trials_stroop.thisIndex,trials_stroop.ran,multiplicationFile,esckey_resp_2.keys,esckey_resp_2.rt
y,12.1272,41.9,42.1,left,1,0.3876,0,0,0,3,1,4,-200,left,696,2022-01-31_19h59.17.477,multiplicationStroop,2021.2.3,Win32,60.37553583,,,,,,,,,,,,,,,,,,,,,,,,,,,,,,,,,,,,,,,,,,,,,,,,,,,,,,,,,
,,,,left,1,0.3904,0,1,1,7,1,9,-200,left,696,2022-01-31_19h59.17.477,multiplicationStroop,2021.2.3,Win32,60.37553583,,,,,,,,,,,,,,,,,,,,,,,,,,,,,,,,,,,,,,,,,,,,,,,,,,,,,,,,,
,,,,right,1,0.3861,0,2,2,15,1,9,200,right,696,2022-01-31_19h59.17.477,multiplicationStroop,2021.2.3,Win32,60.37553583,,,,,,,,,,,,,,,,,,,,,,,,,,,,,,,,,,,,,,,,,,,,,,,,,,,,,,,,,
,,,,right,1,0.3378,0,3,3,13,1,7,200,right,696,2022-01-31_19h59.17.477,multiplicationStroop,2021.2.3,Win32,60.37553583,,,,,,,,,,,,,,,,,,,,,,,,,,,,,,,,,,,,,,,,,,,,,,,,,,,,,,,,,
,,,,right,1,0.4099,0,4,4,8,1,1,200,right,696,2022-01-31_19h59.17.477,multiplicationStroop,2021.2.3,Win32,60.37553583,,,,,,,,,,,,,,,,,,,,,,,,,,,,,,,,,,,,,,,,,,,,,,,,,,,,,,,,,
,,,,left,1,0.3353,0,5,5,5,1,7,-200,left,696,2022-01-31_19h59.17.477,multiplicationStroop,2021.2.3,Win32,60.37553583,,,,,,,,,,,,,,,,,,,,,,,,,,,,,,,,,,,,,,,,,,,,,,,,,,,,,,,,,
,,,,left,1,0.3516,0,6,6,1,1,2,-200,left,696,2022-01-31_19h59.17.477,multiplicationStroop,2021.2.3,Win32,60.37553583,,,,,,,,,,,,,,,,,,,,,,,,,,,,,,,,,,,,,,,,,,,,,,,,,,,,,,,,,
,,,,left,1,0.3732,0,7,7,0,1,1,-200,left,696,2022-01-31_19h59.17.477,multiplicationStroop,2021.2.3,Win32,60.37553583,,,,,,,,,,,,,,,,,,,,,,,,,,,,,,,,,,,,,,,,,,,,,,,,,,,,,,,,,
,,,,right,1,0.3679,0,8,8,11,1,4,200,right,696,2022-01-31_19h59.17.477,multiplicationStroop,2021.2.3,Win32,60.37553583,,,,,,,,,,,,,,,,,,,,,,,,,,,,,,,,,,,,,,,,,,,,,,,,,,,,,,,,,
,,,,right,1,0.33,0,9,9,12,1,6,200,right,696,2022-01-31_19h59.17.477,multiplicationStroop,2021.2.3,Win32,60.37553583,,,,,,,,,,,,,,,,,,,,,,,,,,,,,,,,,,,,,,,,,,,,,,,,,,,,,,,,,
,,,,left,1,0.2688,0,10,10,4,1,6,-200,left,696,2022-01-31_19h59.17.477,multiplicationStroop,2021.2.3,Win32,60.37553583,,,,,,,,,,,,,,,,,,,,,,,,,,,,,,,,,,,,,,,,,,,,,,,,,,,,,,,,,
,,,,right,1,0.2683,0,11,11,14,1,8,200,right,696,2022-01-31_19h59.17.477,multiplicationStroop,2021.2.3,Win32,60.37553583,,,,,,,,,,,,,,,,,,,,,,,,,,,,,,,,,,,,,,,,,,,,,,,,,,,,,,,,,
,,,,right,1,0.4066,0,12,12,10,1,3,200,right,696,2022-01-31_19h59.17.477,multiplicationStroop,2021.2.3,Win32,60.37553583,,,,,,,,,,,,,,,,,,,,,,,,,,,,,,,,,,,,,,,,,,,,,,,,,,,,,,,,,
,,,,left,1,0.2762,0,13,13,6,1,8,-200,left,696,2022-01-31_19h59.17.477,multiplicationStroop,2021.2.3,Win32,60.37553583,,,,,,,,,,,,,,,,,,,,,,,,,,,,,,,,,,,,,,,,,,,,,,,,,,,,,,,,,
,,,,left,1,0.3894,0,14,14,2,1,3,-200,left,696,2022-01-31_19h59.17.477,multiplicationStroop,2021.2.3,Win32,60.37553583,,,,,,,,,,,,,,,,,,,,,,,,,,,,,,,,,,,,,,,,,,,,,,,,,,,,,,,,,
,,,,right,1,0.2851,0,15,15,9,1,2,200,right,696,2022-01-31_19h59.17.477,multiplicationStroop,2021.2.3,Win32,60.37553583,,,,,,,,,,,,,,,,,,,,,,,,,,,,,,,,,,,,,,,,,,,,,,,,,,,,,,,,,
,,,,left,1,0.3023,1,0,16,0,1,1,-200,left,696,2022-01-31_19h59.17.477,multiplicationStroop,2021.2.3,Win32,60.37553583,,,,,,,,,,,,,,,,,,,,,,,,,,,,,,,,,,,,,,,,,,,,,,,,,,,,,,,,,
,,,,left,1,0.3679,1,1,17,5,1,7,-200,left,696,2022-01-31_19h59.17.477,multiplicationStroop,2021.2.3,Win32,60.37553583,,,,,,,,,,,,,,,,,,,,,,,,,,,,,,,,,,,,,,,,,,,,,,,,,,,,,,,,,
,,,,left,1,0.3549,1,2,18,6,1,8,-200,left,696,2022-01-31_19h59.17.477,multiplicationStroop,2021.2.3,Win32,60.37553583,,,,,,,,,,,,,,,,,,,,,,,,,,,,,,,,,,,,,,,,,,,,,,,,,,,,,,,,,
,,,,right,1,0.2908,1,3,19,11,1,4,200,right,696,2022-01-31_19h59.17.477,multiplicationStroop,2021.2.3,Win32,60.37553583,,,,,,,,,,,,,,,,,,,,,,,,,,,,,,,,,,,,,,,,,,,,,,,,,,,,,,,,,
,,,,right,1,0.3569,1,4,20,15,1,9,200,right,696,2022-01-31_19h59.17.477,multiplicationStroop,2021.2.3,Win32,60.37553583,,,,,,,,,,,,,,,,,,,,,,,,,,,,,,,,,,,,,,,,,,,,,,,,,,,,,,,,,
,,,,right,1,0.3889,1,5,21,12,1,6,200,right,696,2022-01-31_19h59.17.477,multiplicationStroop,2021.2.3,Win32,60.37553583,,,,,,,,,,,,,,,,,,,,,,,,,,,,,,,,,,,,,,,,,,,,,,,,,,,,,,,,,
,,,,left,1,0.3131,1,6,22,7,1,9,-200,left,696,2022-01-31_19h59.17.477,multiplicationStroop,2021.2.3,Win32,60.37553583,,,,,,,,,,,,,,,,,,,,,,,,,,,,,,,,,,,,,,,,,,,,,,,,,,,,,,,,,
,,,,right,1,0.2737,1,7,23,9,1,2,200,right,696,2022-01-31_19h59.17.477,multiplicationStroop,2021.2.3,Win32,60.37553583,,,,,,,,,,,,,,,,,,,,,,,,,,,,,,,,,,,,,,,,,,,,,,,,,,,,,,,,,
,,,,left,0,0.2758,1,8,24,13,1,7,200,right,696,2022-01-31_19h59.17.477,multiplicationStroop,2021.2.3,Win32,60.37553583,,,,,,,,,,,,,,,,,,,,,,,,,,,,,,,,,,,,,,,,,,,,,,,,,,,,,,,,,
,,,,left,1,0.4619,1,9,25,1,1,2,-200,left,696,2022-01-31_19h59.17.477,multiplicationStroop,2021.2.3,Win32,60.37553583,,,,,,,,,,,,,,,,,,,,,,,,,,,,,,,,,,,,,,,,,,,,,,,,,,,,,,,,,
,,,,right,1,0.305,1,10,26,8,1,1,200,right,696,2022-01-31_19h59.17.477,multiplicationStroop,2021.2.3,Win32,60.37553583,,,,,,,,,,,,,,,,,,,,,,,,,,,,,,,,,,,,,,,,,,,,,,,,,,,,,,,,,
,,,,left,0,0.218,1,11,27,10,1,3,200,right,696,2022-01-31_19h59.17.477,multiplicationStroop,2021.2.3,Win32,60.37553583,,,,,,,,,,,,,,,,,,,,,,,,,,,,,,,,,,,,,,,,,,,,,,,,,,,,,,,,,
,,,,right,1,0.6943,1,12,28,14,1,8,200,right,696,2022-01-31_19h59.17.477,multiplicationStroop,2021.2.3,Win32,60.37553583,,,,,,,,,,,,,,,,,,,,,,,,,,,,,,,,,,,,,,,,,,,,,,,,,,,,,,,,,
,,,,left,1,0.3916,1,13,29,2,1,3,-200,left,696,2022-01-31_19h59.17.477,multiplicationStroop,2021.2.3,Win32,60.37553583,,,,,,,,,,,,,,,,,,,,,,,,,,,,,,,,,,,,,,,,,,,,,,,,,,,,,,,,,
,,,,left,1,0.3417,1,14,30,4,1,6,-200,left,696,2022-01-31_19h59.17.477,multiplicationStroop,2021.2.3,Win32,60.37553583,,,,,,,,,,,,,,,,,,,,,,,,,,,,,,,,,,,,,,,,,,,,,,,,,,,,,,,,,
,,,,left,1,0.3729,1,15,31,3,1,4,-200,left,696,2022-01-31_19h59.17.477,multiplicationStroop,2021.2.3,Win32,60.37553583,,,,,,,,,,,,,,,,,,,,,,,,,,,,,,,,,,,,,,,,,,,,,,,,,,,,,,,,,
,,,,right,1,0.3396,2,0,32,12,1,6,200,right,696,2022-01-31_19h59.17.477,multiplicationStroop,2021.2.3,Win32,60.37553583,,,,,,,,,,,,,,,,,,,,,,,,,,,,,,,,,,,,,,,,,,,,,,,,,,,,,,,,,
,,,,left,1,0.3234,2,1,33,5,1,7,-200,left,696,2022-01-31_19h59.17.477,multiplicationStroop,2021.2.3,Win32,60.37553583,,,,,,,,,,,,,,,,,,,,,,,,,,,,,,,,,,,,,,,,,,,,,,,,,,,,,,,,,
,,,,left,1,0.3708,2,2,34,1,1,2,-200,left,696,2022-01-31_19h59.17.477,multiplicationStroop,2021.2.3,Win32,60.37553583,,,,,,,,,,,,,,,,,,,,,,,,,,,,,,,,,,,,,,,,,,,,,,,,,,,,,,,,,
,,,,left,1,0.3372,2,3,35,0,1,1,-200,left,696,2022-01-31_19h59.17.477,multiplicationStroop,2021.2.3,Win32,60.37553583,,,,,,,,,,,,,,,,,,,,,,,,,,,,,,,,,,,,,,,,,,,,,,,,,,,,,,,,,
,,,,left,1,0.3132,2,4,36,2,1,3,-200,left,696,2022-01-31_19h59.17.477,multiplicationStroop,2021.2.3,Win32,60.37553583,,,,,,,,,,,,,,,,,,,,,,,,,,,,,,,,,,,,,,,,,,,,,,,,,,,,,,,,,
,,,,left,1,0.3018,2,5,37,6,1,8,-200,left,696,2022-01-31_19h59.17.477,multiplicationStroop,2021.2.3,Win32,60.37553583,,,,,,,,,,,,,,,,,,,,,,,,,,,,,,,,,,,,,,,,,,,,,,,,,,,,,,,,,
,,,,right,1,0.3517,2,6,38,8,1,1,200,right,696,2022-01-31_19h59.17.477,multiplicationStroop,2021.2.3,Win32,60.37553583,,,,,,,,,,,,,,,,,,,,,,,,,,,,,,,,,,,,,,,,,,,,,,,,,,,,,,,,,
,,,,right,1,0.3777,2,7,39,9,1,2,200,right,696,2022-01-31_19h59.17.477,multiplicationStroop,2021.2.3,Win32,60.37553583,,,,,,,,,,,,,,,,,,,,,,,,,,,,,,,,,,,,,,,,,,,,,,,,,,,,,,,,,
,,,,right,1,0.3198,2,8,40,15,1,9,200,right,696,2022-01-31_19h59.17.477,multiplicationStroop,2021.2.3,Win32,60.37553583,,,,,,,,,,,,,,,,,,,,,,,,,,,,,,,,,,,,,,,,,,,,,,,,,,,,,,,,,
,,,,right,1,0.3199,2,9,41,14,1,8,200,right,696,2022-01-31_19h59.17.477,multiplicationStroop,2021.2.3,Win32,60.37553583,,,,,,,,,,,,,,,,,,,,,,,,,,,,,,,,,,,,,,,,,,,,,,,,,,,,,,,,,
,,,,left,1,0.3765,2,10,42,4,1,6,-200,left,696,2022-01-31_19h59.17.477,multiplicationStroop,2021.2.3,Win32,60.37553583,,,,,,,,,,,,,,,,,,,,,,,,,,,,,,,,,,,,,,,,,,,,,,,,,,,,,,,,,
,,,,right,1,0.3109,2,11,43,13,1,7,200,right,696,2022-01-31_19h59.17.477,multiplicationStroop,2021.2.3,Win32,60.37553583,,,,,,,,,,,,,,,,,,,,,,,,,,,,,,,,,,,,,,,,,,,,,,,,,,,,,,,,,
,,,,left,1,0.3589,2,12,44,3,1,4,-200,left,696,2022-01-31_19h59.17.477,multiplicationStroop,2021.2.3,Win32,60.37553583,,,,,,,,,,,,,,,,,,,,,,,,,,,,,,,,,,,,,,,,,,,,,,,,,,,,,,,,,
,,,,left,1,0.4065,2,13,45,7,1,9,-200,left,696,2022-01-31_19h59.17.477,multiplicationStroop,2021.2.3,Win32,60.37553583,,,,,,,,,,,,,,,,,,,,,,,,,,,,,,,,,,,,,,,,,,,,,,,,,,,,,,,,,
,,,,right,1,0.3238,2,14,46,11,1,4,200,right,696,2022-01-31_19h59.17.477,multiplicationStroop,2021.2.3,Win32,60.37553583,,,,,,,,,,,,,,,,,,,,,,,,,,,,,,,,,,,,,,,,,,,,,,,,,,,,,,,,,
,,,,right,1,0.3556,2,15,47,10,1,3,200,right,696,2022-01-31_19h59.17.477,multiplicationStroop,2021.2.3,Win32,60.37553583,,,,,,,,,,,,,,,,,,,,,,,,,,,,,,,,,,,,,,,,,,,,,,,,,,,,,,,,,
,,,,left,1,0.3239,3,0,48,5,1,7,-200,left,696,2022-01-31_19h59.17.477,multiplicationStroop,2021.2.3,Win32,60.37553583,,,,,,,,,,,,,,,,,,,,,,,,,,,,,,,,,,,,,,,,,,,,,,,,,,,,,,,,,
,,,,left,1,0.3348,3,1,49,2,1,3,-200,left,696,2022-01-31_19h59.17.477,multiplicationStroop,2021.2.3,Win32,60.37553583,,,,,,,,,,,,,,,,,,,,,,,,,,,,,,,,,,,,,,,,,,,,,,,,,,,,,,,,,
,,,,right,1,0.3187,3,2,50,14,1,8,200,right,696,2022-01-31_19h59.17.477,multiplicationStroop,2021.2.3,Win32,60.37553583,,,,,,,,,,,,,,,,,,,,,,,,,,,,,,,,,,,,,,,,,,,,,,,,,,,,,,,,,
,,,,right,1,0.3385,3,3,51,8,1,1,200,right,696,2022-01-31_19h59.17.477,multiplicationStroop,2021.2.3,Win32,60.37553583,,,,,,,,,,,,,,,,,,,,,,,,,,,,,,,,,,,,,,,,,,,,,,,,,,,,,,,,,
,,,,right,1,0.3621,3,4,52,15,1,9,200,right,696,2022-01-31_19h59.17.477,multiplicationStroop,2021.2.3,Win32,60.37553583,,,,,,,,,,,,,,,,,,,,,,,,,,,,,,,,,,,,,,,,,,,,,,,,,,,,,,,,,
,,,,left,1,0.3302,3,5,53,6,1,8,-200,left,696,2022-01-31_19h59.17.477,multiplicationStroop,2021.2.3,Win32,60.37553583,,,,,,,,,,,,,,,,,,,,,,,,,,,,,,,,,,,,,,,,,,,,,,,,,,,,,,,,,
,,,,left,1,0.3303,3,6,54,3,1,4,-200,left,696,2022-01-31_19h59.17.477,multiplicationStroop,2021.2.3,Win32,60.37553583,,,,,,,,,,,,,,,,,,,,,,,,,,,,,,,,,,,,,,,,,,,,,,,,,,,,,,,,,
,,,,right,1,0.3296,3,7,55,12,1,6,200,right,696,2022-01-31_19h59.17.477,multiplicationStroop,2021.2.3,Win32,60.37553583,,,,,,,,,,,,,,,,,,,,,,,,,,,,,,,,,,,,,,,,,,,,,,,,,,,,,,,,,
,,,,right,1,0.3468,3,8,56,10,1,3,200,right,696,2022-01-31_19h59.17.477,multiplicationStroop,2021.2.3,Win32,60.37553583,,,,,,,,,,,,,,,,,,,,,,,,,,,,,,,,,,,,,,,,,,,,,,,,,,,,,,,,,
,,,,left,1,0.3692,3,9,57,7,1,9,-200,left,696,2022-01-31_19h59.17.477,multiplicationStroop,2021.2.3,Win32,60.37553583,,,,,,,,,,,,,,,,,,,,,,,,,,,,,,,,,,,,,,,,,,,,,,,,,,,,,,,,,
,,,,left,1,0.3681,3,10,58,1,1,2,-200,left,696,2022-01-31_19h59.17.477,multiplicationStroop,2021.2.3,Win32,60.37553583,,,,,,,,,,,,,,,,,,,,,,,,,,,,,,,,,,,,,,,,,,,,,,,,,,,,,,,,,
,,,,right,1,0.2937,3,11,59,9,1,2,200,right,696,2022-01-31_19h59.17.477,multiplicationStroop,2021.2.3,Win32,60.37553583,,,,,,,,,,,,,,,,,,,,,,,,,,,,,,,,,,,,,,,,,,,,,,,,,,,,,,,,,
,,,,left,1,0.2965,3,12,60,0,1,1,-200,left,696,2022-01-31_19h59.17.477,multiplicationStroop,2021.2.3,Win32,60.37553583,,,,,,,,,,,,,,,,,,,,,,,,,,,,,,,,,,,,,,,,,,,,,,,,,,,,,,,,,
,,,,left,1,0.3461,3,13,61,4,1,6,-200,left,696,2022-01-31_19h59.17.477,multiplicationStroop,2021.2.3,Win32,60.37553583,,,,,,,,,,,,,,,,,,,,,,,,,,,,,,,,,,,,,,,,,,,,,,,,,,,,,,,,,
,,,,right,1,0.4017,3,14,62,13,1,7,200,right,696,2022-01-31_19h59.17.477,multiplicationStroop,2021.2.3,Win32,60.37553583,,,,,,,,,,,,,,,,,,,,,,,,,,,,,,,,,,,,,,,,,,,,,,,,,,,,,,,,,
,,,,right,1,0.4184,3,15,63,11,1,4,200,right,696,2022-01-31_19h59.17.477,multiplicationStroop,2021.2.3,Win32,60.37553583,,,,,,,,,,,,,,,,,,,,,,,,,,,,,,,,,,,,,,,,,,,,,,,,,,,,,,,,,
,,,,,,,,,,,,,,,696,2022-01-31_19h59.17.477,multiplicationStroop,2021.2.3,Win32,60.37553583,space,16.2024,space,8.9037,left,1,1.044,0,0,0,53,1,4,4,4 | 4,0,1.9756,1.4111,neutral,left,,,,,,stimulusFile/physical.xlsx,,,,,,,,,,,,,,,,,,,,,,,,,,,,,,,
,,,,,,,,,,,,,,,696,2022-01-31_19h59.17.477,multiplicationStroop,2021.2.3,Win32,60.37553583,,,,,right,1,0.7795,0,1,1,29,1,4,3,4 | 3,1,1.4111,1.9756,incongruent,right,,,,,,stimulusFile/physical.xlsx,,,,,,,,,,,,,,,,,,,,,,,,,,,,,,,
,,,,,,,,,,,,,,,696,2022-01-31_19h59.17.477,multiplicationStroop,2021.2.3,Win32,60.37553583,,,,,right,1,0.6502,0,2,2,1,1,3,4,3 | 4,1,1.4111,1.9756,congruent,right,,,,,,stimulusFile/physical.xlsx,,,,,,,,,,,,,,,,,,,,,,,,,,,,,,,
,,,,,,,,,,,,,,,696,2022-01-31_19h59.17.477,multiplicationStroop,2021.2.3,Win32,60.37553583,,,,,left,1,0.923,0,3,3,55,1,9,9,9 | 9,0,1.9756,1.4111,neutral,left,,,,,,stimulusFile/physical.xlsx,,,,,,,,,,,,,,,,,,,,,,,,,,,,,,,
,,,,,,,,,,,,,,,696,2022-01-31_19h59.17.477,multiplicationStroop,2021.2.3,Win32,60.37553583,,,,,left,1,1.0017,0,4,4,35,1,7,9,7 | 9,2,1.9756,1.4111,incongruent,left,,,,,,stimulusFile/physical.xlsx,,,,,,,,,,,,,,,,,,,,,,,,,,,,,,,
,,,,,,,,,,,,,,,696,2022-01-31_19h59.17.477,multiplicationStroop,2021.2.3,Win32,60.37553583,,,,,right,1,0.603,0,5,5,46,1,8,3,8 | 3,5,1.4111,1.9756,incongruent,right,,,,,,stimulusFile/physical.xlsx,,,,,,,,,,,,,,,,,,,,,,,,,,,,,,,
,,,,,,,,,,,,,,,696,2022-01-31_19h59.17.477,multiplicationStroop,2021.2.3,Win32,60.37553583,,,,,left,1,0.4879,0,6,6,13,1,4,2,4 | 2,2,1.9756,1.4111,congruent,left,,,,,,stimulusFile/physical.xlsx,,,,,,,,,,,,,,,,,,,,,,,,,,,,,,,
,,,,,,,,,,,,,,,696,2022-01-31_19h59.17.477,multiplicationStroop,2021.2.3,Win32,60.37553583,,,,,right,1,0.4896,0,7,7,30,1,7,6,7 | 6,1,1.4111,1.9756,incongruent,right,,,,,,stimulusFile/physical.xlsx,,,,,,,,,,,,,,,,,,,,,,,,,,,,,,,
,,,,,,,,,,,,,,,696,2022-01-31_19h59.17.477,multiplicationStroop,2021.2.3,Win32,60.37553583,,,,,left,1,0.4112,0,8,8,7,1,9,8,9 | 8,1,1.9756,1.4111,congruent,left,,,,,,stimulusFile/physical.xlsx,,,,,,,,,,,,,,,,,,,,,,,,,,,,,,,
,,,,,,,,,,,,,,,696,2022-01-31_19h59.17.477,multiplicationStroop,2021.2.3,Win32,60.37553583,,,,,right,1,0.4722,0,9,9,60,1,3,3,3 | 3,0,1.4111,1.9756,neutral,right,,,,,,stimulusFile/physical.xlsx,,,,,,,,,,,,,,,,,,,,,,,,,,,,,,,
,,,,,,,,,,,,,,,696,2022-01-31_19h59.17.477,multiplicationStroop,2021.2.3,Win32,60.37553583,,,,,left,1,0.3785,0,10,10,70,1,8,8,8 | 8,0,1.9756,1.4111,neutral,left,,,,,,stimulusFile/physical.xlsx,,,,,,,,,,,,,,,,,,,,,,,,,,,,,,,
,,,,,,,,,,,,,,,696,2022-01-31_19h59.17.477,multiplicationStroop,2021.2.3,Win32,60.37553583,,,,,right,1,0.4348,0,11,11,19,1,4,9,4 | 9,5,1.4111,1.9756,congruent,right,,,,,,stimulusFile/physical.xlsx,,,,,,,,,,,,,,,,,,,,,,,,,,,,,,,
,,,,,,,,,,,,,,,696,2022-01-31_19h59.17.477,multiplicationStroop,2021.2.3,Win32,60.37553583,,,,,left,1,0.4053,0,12,12,27,1,8,9,8 | 9,1,1.9756,1.4111,incongruent,left,,,,,,stimulusFile/physical.xlsx,,,,,,,,,,,,,,,,,,,,,,,,,,,,,,,
,,,,,,,,,,,,,,,696,2022-01-31_19h59.17.477,multiplicationStroop,2021.2.3,Win32,60.37553583,,,,,right,1,0.4179,0,13,13,59,1,7,7,7 | 7,0,1.4111,1.9756,neutral,right,,,,,,stimulusFile/physical.xlsx,,,,,,,,,,,,,,,,,,,,,,,,,,,,,,,
,,,,,,,,,,,,,,,696,2022-01-31_19h59.17.477,multiplicationStroop,2021.2.3,Win32,60.37553583,,,,,left,0,0.4219,0,14,14,64,1,1,1,1 | 1,0,1.9756,1.4111,neutral,right,,,,,,stimulusFile/physical.xlsx,,,,,,,,,,,,,,,,,,,,,,,,,,,,,,,
,,,,,,,,,,,,,,,696,2022-01-31_19h59.17.477,multiplicationStroop,2021.2.3,Win32,60.37553583,,,,,left,1,0.5181,0,15,15,6,1,7,6,7 | 6,1,1.9756,1.4111,congruent,left,,,,,,stimulusFile/physical.xlsx,,,,,,,,,,,,,,,,,,,,,,,,,,,,,,,
,,,,,,,,,,,,,,,696,2022-01-31_19h59.17.477,multiplicationStroop,2021.2.3,Win32,60.37553583,,,,,left,1,0.8513,0,16,16,43,1,4,9,4 | 9,5,1.9756,1.4111,incongruent,left,,,,,,stimulusFile/physical.xlsx,,,,,,,,,,,,,,,,,,,,,,,,,,,,,,,
,,,,,,,,,,,,,,,696,2022-01-31_19h59.17.477,multiplicationStroop,2021.2.3,Win32,60.37553583,,,,,right,1,0.4843,0,17,17,39,1,9,7,9 | 7,2,1.4111,1.9756,incongruent,right,,,,,,stimulusFile/physical.xlsx,,,,,,,,,,,,,,,,,,,,,,,,,,,,,,,
,,,,,,,,,,,,,,,696,2022-01-31_19h59.17.477,multiplicationStroop,2021.2.3,Win32,60.37553583,,,,,right,1,0.5112,0,18,18,57,1,2,2,2 | 2,0,1.4111,1.9756,neutral,right,,,,,,stimulusFile/physical.xlsx,,,,,,,,,,,,,,,,,,,,,,,,,,,,,,,
,,,,,,,,,,,,,,,696,2022-01-31_19h59.17.477,multiplicationStroop,2021.2.3,Win32,60.37553583,,,,,right,1,0.6073,0,19,19,28,1,2,1,2 | 1,1,1.4111,1.9756,incongruent,right,,,,,,stimulusFile/physical.xlsx,,,,,,,,,,,,,,,,,,,,,,,,,,,,,,,
,,,,,,,,,,,,,,,696,2022-01-31_19h59.17.477,multiplicationStroop,2021.2.3,Win32,60.37553583,,,,,right,1,0.477,0,20,20,67,1,4,4,4 | 4,0,1.4111,1.9756,neutral,right,,,,,,stimulusFile/physical.xlsx,,,,,,,,,,,,,,,,,,,,,,,,,,,,,,,
,,,,,,,,,,,,,,,696,2022-01-31_19h59.17.477,multiplicationStroop,2021.2.3,Win32,60.37553583,,,,,right,1,0.4873,0,21,21,31,1,9,8,9 | 8,1,1.4111,1.9756,incongruent,right,,,,,,stimulusFile/physical.xlsx,,,,,,,,,,,,,,,,,,,,,,,,,,,,,,,
,,,,,,,,,,,,,,,696,2022-01-31_19h59.17.477,multiplicationStroop,2021.2.3,Win32,60.37553583,,,,,left,1,0.5134,0,22,22,52,1,2,2,2 | 2,0,1.9756,1.4111,neutral,left,,,,,,stimulusFile/physical.xlsx,,,,,,,,,,,,,,,,,,,,,,,,,,,,,,,
,,,,,,,,,,,,,,,696,2022-01-31_19h59.17.477,multiplicationStroop,2021.2.3,Win32,60.37553583,,,,,right,1,0.4337,0,23,23,0,1,1,2,1 | 2,1,1.4111,1.9756,congruent,right,,,,,,stimulusFile/physical.xlsx,,,,,,,,,,,,,,,,,,,,,,,,,,,,,,,
,,,,,,,,,,,,,,,696,2022-01-31_19h59.17.477,multiplicationStroop,2021.2.3,Win32,60.37553583,,,,,left,1,0.453,0,24,24,26,1,6,7,6 | 7,1,1.9756,1.4111,incongruent,left,,,,,,stimulusFile/physical.xlsx,,,,,,,,,,,,,,,,,,,,,,,,,,,,,,,
,,,,,,,,,,,,,,,696,2022-01-31_19h59.17.477,multiplicationStroop,2021.2.3,Win32,60.37553583,,,,,right,1,0.7619,0,25,25,56,1,1,1,1 | 1,0,1.4111,1.9756,neutral,right,,,,,,stimulusFile/physical.xlsx,,,,,,,,,,,,,,,,,,,,,,,,,,,,,,,
,,,,,,,,,,,,,,,696,2022-01-31_19h59.17.477,multiplicationStroop,2021.2.3,Win32,60.37553583,,,,,right,1,0.4956,0,26,26,10,1,6,8,6 | 8,2,1.4111,1.9756,congruent,right,,,,,,stimulusFile/physical.xlsx,,,,,,,,,,,,,,,,,,,,,,,,,,,,,,,
,,,,,,,,,,,,,,,696,2022-01-31_19h59.17.477,multiplicationStroop,2021.2.3,Win32,60.37553583,,,,,left,1,0.5212,0,27,27,40,1,1,6,1 | 6,5,1.9756,1.4111,incongruent,left,,,,,,stimulusFile/physical.xlsx,,,,,,,,,,,,,,,,,,,,,,,,,,,,,,,
,,,,,,,,,,,,,,,696,2022-01-31_19h59.17.477,multiplicationStroop,2021.2.3,Win32,60.37553583,,,,,left,1,0.5299,0,28,28,49,1,3,3,3 | 3,0,1.9756,1.4111,neutral,left,,,,,,stimulusFile/physical.xlsx,,,,,,,,,,,,,,,,,,,,,,,,,,,,,,,
,,,,,,,,,,,,,,,696,2022-01-31_19h59.17.477,multiplicationStroop,2021.2.3,Win32,60.37553583,,,,,left,1,0.4685,0,29,29,42,1,3,8,3 | 8,5,1.9756,1.4111,incongruent,left,,,,,,stimulusFile/physical.xlsx,,,,,,,,,,,,,,,,,,,,,,,,,,,,,,,
,,,,,,,,,,,,,,,696,2022-01-31_19h59.17.477,multiplicationStroop,2021.2.3,Win32,60.37553583,,,,,left,1,0.428,0,30,30,33,1,2,4,2 | 4,2,1.9756,1.4111,incongruent,left,,,,,,stimulusFile/physical.xlsx,,,,,,,,,,,,,,,,,,,,,,,,,,,,,,,
,,,,,,,,,,,,,,,696,2022-01-31_19h59.17.477,multiplicationStroop,2021.2.3,Win32,60.37553583,,,,,left,0,0.5443,0,31,31,45,1,7,2,7 | 2,5,1.4111,1.9756,incongruent,right,,,,,,stimulusFile/physical.xlsx,,,,,,,,,,,,,,,,,,,,,,,,,,,,,,,
,,,,,,,,,,,,,,,696,2022-01-31_19h59.17.477,multiplicationStroop,2021.2.3,Win32,60.37553583,,,,,right,1,0.6242,0,32,32,16,1,1,6,1 | 6,5,1.4111,1.9756,congruent,right,,,,,,stimulusFile/physical.xlsx,,,,,,,,,,,,,,,,,,,,,,,,,,,,,,,
,,,,,,,,,,,,,,,696,2022-01-31_19h59.17.477,multiplicationStroop,2021.2.3,Win32,60.37553583,,,,,left,1,0.4683,0,33,33,41,1,2,7,2 | 7,5,1.9756,1.4111,incongruent,left,,,,,,stimulusFile/physical.xlsx,,,,,,,,,,,,,,,,,,,,,,,,,,,,,,,
,,,,,,,,,,,,,,,696,2022-01-31_19h59.17.477,multiplicationStroop,2021.2.3,Win32,60.37553583,,,,,right,1,0.4786,0,34,34,63,1,9,9,9 | 9,0,1.4111,1.9756,neutral,right,,,,,,stimulusFile/physical.xlsx,,,,,,,,,,,,,,,,,,,,,,,,,,,,,,,
,,,,,,,,,,,,,,,696,2022-01-31_19h59.17.477,multiplicationStroop,2021.2.3,Win32,60.37553583,,,,,right,0,0.5934,0,35,35,69,1,7,7,7 | 7,0,1.4111,1.9756,neutral,left,,,,,,stimulusFile/physical.xlsx,,,,,,,,,,,,,,,,,,,,,,,,,,,,,,,
,,,,,,,,,,,,,,,696,2022-01-31_19h59.17.477,multiplicationStroop,2021.2.3,Win32,60.37553583,,,,,right,1,0.4511,0,36,36,18,1,3,8,3 | 8,5,1.4111,1.9756,congruent,right,,,,,,stimulusFile/physical.xlsx,,,,,,,,,,,,,,,,,,,,,,,,,,,,,,,
,,,,,,,,,,,,,,,696,2022-01-31_19h59.17.477,multiplicationStroop,2021.2.3,Win32,60.37553583,,,,,right,1,0.5347,0,37,37,3,1,8,9,8 | 9,1,1.4111,1.9756,congruent,right,,,,,,stimulusFile/physical.xlsx,,,,,,,,,,,,,,,,,,,,,,,,,,,,,,,
,,,,,,,,,,,,,,,696,2022-01-31_19h59.17.477,multiplicationStroop,2021.2.3,Win32,60.37553583,,,,,left,1,0.4846,0,38,38,48,1,1,1,1 | 1,0,1.9756,1.4111,neutral,left,,,,,,stimulusFile/physical.xlsx,,,,,,,,,,,,,,,,,,,,,,,,,,,,,,,
,,,,,,,,,,,,,,,696,2022-01-31_19h59.17.477,multiplicationStroop,2021.2.3,Win32,60.37553583,,,,,left,1,0.4844,0,39,39,25,1,3,4,3 | 4,1,1.9756,1.4111,incongruent,left,,,,,,stimulusFile/physical.xlsx,,,,,,,,,,,,,,,,,,,,,,,,,,,,,,,
,,,,,,,,,,,,,,,696,2022-01-31_19h59.17.477,multiplicationStroop,2021.2.3,Win32,60.37553583,,,,,right,0,0.494,0,40,40,71,1,9,9,9 | 9,0,1.4111,1.9756,neutral,left,,,,,,stimulusFile/physical.xlsx,,,,,,,,,,,,,,,,,,,,,,,,,,,,,,,
,,,,,,,,,,,,,,,696,2022-01-31_19h59.17.477,multiplicationStroop,2021.2.3,Win32,60.37553583,,,,,right,1,0.4853,0,41,41,8,1,1,3,1 | 3,2,1.4111,1.9756,congruent,right,,,,,,stimulusFile/physical.xlsx,,,,,,,,,,,,,,,,,,,,,,,,,,,,,,,
,,,,,,,,,,,,,,,696,2022-01-31_19h59.17.477,multiplicationStroop,2021.2.3,Win32,60.37553583,,,,,left,1,0.4885,0,42,42,5,1,4,3,4 | 3,1,1.9756,1.4111,congruent,left,,,,,,stimulusFile/physical.xlsx,,,,,,,,,,,,,,,,,,,,,,,,,,,,,,,
,,,,,,,,,,,,,,,696,2022-01-31_19h59.17.477,multiplicationStroop,2021.2.3,Win32,60.37553583,,,,,left,0,0.5222,0,43,43,66,1,3,3,3 | 3,0,1.9756,1.4111,neutral,right,,,,,,stimulusFile/physical.xlsx,,,,,,,,,,,,,,,,,,,,,,,,,,,,,,,
,,,,,,,,,,,,,,,696,2022-01-31_19h59.17.477,multiplicationStroop,2021.2.3,Win32,60.37553583,,,,,left,1,0.3944,0,44,44,21,1,7,2,7 | 2,5,1.9756,1.4111,congruent,left,,,,,,stimulusFile/physical.xlsx,,,,,,,,,,,,,,,,,,,,,,,,,,,,,,,
,,,,,,,,,,,,,,,696,2022-01-31_19h59.17.477,multiplicationStroop,2021.2.3,Win32,60.37553583,,,,,right,1,0.4349,0,45,45,37,1,4,2,4 | 2,2,1.4111,1.9756,incongruent,right,,,,,,stimulusFile/physical.xlsx,,,,,,,,,,,,,,,,,,,,,,,,,,,,,,,
,,,,,,,,,,,,,,,696,2022-01-31_19h59.17.477,multiplicationStroop,2021.2.3,Win32,60.37553583,,,,,right,1,0.519,0,46,46,58,1,6,6,6 | 6,0,1.4111,1.9756,neutral,right,,,,,,stimulusFile/physical.xlsx,,,,,,,,,,,,,,,,,,,,,,,,,,,,,,,
,,,,,,,,,,,,,,,696,2022-01-31_19h59.17.477,multiplicationStroop,2021.2.3,Win32,60.37553583,,,,,left,1,0.4282,0,47,47,32,1,1,3,1 | 3,2,1.9756,1.4111,incongruent,left,,,,,,stimulusFile/physical.xlsx,,,,,,,,,,,,,,,,,,,,,,,,,,,,,,,
,,,,,,,,,,,,,,,696,2022-01-31_19h59.17.477,multiplicationStroop,2021.2.3,Win32,60.37553583,,,,,left,1,0.4845,0,48,48,15,1,9,7,9 | 7,2,1.9756,1.4111,congruent,left,,,,,,stimulusFile/physical.xlsx,,,,,,,,,,,,,,,,,,,,,,,,,,,,,,,
,,,,,,,,,,,,,,,696,2022-01-31_19h59.17.477,multiplicationStroop,2021.2.3,Win32,60.37553583,,,,,right,1,0.4105,0,49,49,11,1,7,9,7 | 9,2,1.4111,1.9756,congruent,right,,,,,,stimulusFile/physical.xlsx,,,,,,,,,,,,,,,,,,,,,,,,,,,,,,,
,,,,,,,,,,,,,,,696,2022-01-31_19h59.17.477,multiplicationStroop,2021.2.3,Win32,60.37553583,,,,,right,1,0.5188,0,50,50,36,1,3,1,3 | 1,2,1.4111,1.9756,incongruent,right,,,,,,stimulusFile/physical.xlsx,,,,,,,,,,,,,,,,,,,,,,,,,,,,,,,
,,,,,,,,,,,,,,,696,2022-01-31_19h59.17.477,multiplicationStroop,2021.2.3,Win32,60.37553583,,,,,right,1,0.5277,0,51,51,65,1,2,2,2 | 2,0,1.4111,1.9756,neutral,right,,,,,,stimulusFile/physical.xlsx,,,,,,,,,,,,,,,,,,,,,,,,,,,,,,,
,,,,,,,,,,,,,,,696,2022-01-31_19h59.17.477,multiplicationStroop,2021.2.3,Win32,60.37553583,,,,,left,1,0.5014,0,52,52,22,1,8,3,8 | 3,5,1.9756,1.4111,congruent,left,,,,,,stimulusFile/physical.xlsx,,,,,,,,,,,,,,,,,,,,,,,,,,,,,,,
,,,,,,,,,,,,,,,696,2022-01-31_19h59.17.477,multiplicationStroop,2021.2.3,Win32,60.37553583,,,,,right,1,0.435,0,53,53,9,1,2,4,2 | 4,2,1.4111,1.9756,congruent,right,,,,,,stimulusFile/physical.xlsx,,,,,,,,,,,,,,,,,,,,,,,,,,,,,,,
,,,,,,,,,,,,,,,696,2022-01-31_19h59.17.477,multiplicationStroop,2021.2.3,Win32,60.37553583,,,,,right,1,0.6038,0,54,54,44,1,6,1,6 | 1,5,1.4111,1.9756,incongruent,right,,,,,,stimulusFile/physical.xlsx,,,,,,,,,,,,,,,,,,,,,,,,,,,,,,,
,,,,,,,,,,,,,,,696,2022-01-31_19h59.17.477,multiplicationStroop,2021.2.3,Win32,60.37553583,,,,,left,1,0.5529,0,55,55,68,1,6,6,6 | 6,0,1.9756,1.4111,neutral,left,,,,,,stimulusFile/physical.xlsx,,,,,,,,,,,,,,,,,,,,,,,,,,,,,,,
,,,,,,,,,,,,,,,696,2022-01-31_19h59.17.477,multiplicationStroop,2021.2.3,Win32,60.37553583,,,,,left,1,0.4512,0,56,56,4,1,2,1,2 | 1,1,1.9756,1.4111,congruent,left,,,,,,stimulusFile/physical.xlsx,,,,,,,,,,,,,,,,,,,,,,,,,,,,,,,
,,,,,,,,,,,,,,,696,2022-01-31_19h59.17.477,multiplicationStroop,2021.2.3,Win32,60.37553583,,,,,right,1,0.555,0,57,57,47,1,9,4,9 | 4,5,1.4111,1.9756,incongruent,right,,,,,,stimulusFile/physical.xlsx,,,,,,,,,,,,,,,,,,,,,,,,,,,,,,,
,,,,,,,,,,,,,,,696,2022-01-31_19h59.17.477,multiplicationStroop,2021.2.3,Win32,60.37553583,,,,,left,1,0.5172,0,58,58,20,1,6,1,6 | 1,5,1.9756,1.4111,congruent,left,,,,,,stimulusFile/physical.xlsx,,,,,,,,,,,,,,,,,,,,,,,,,,,,,,,
,,,,,,,,,,,,,,,696,2022-01-31_19h59.17.477,multiplicationStroop,2021.2.3,Win32,60.37553583,,,,,left,1,0.7016,0,59,59,14,1,8,6,8 | 6,2,1.9756,1.4111,congruent,left,,,,,,stimulusFile/physical.xlsx,,,,,,,,,,,,,,,,,,,,,,,,,,,,,,,
,,,,,,,,,,,,,,,696,2022-01-31_19h59.17.477,multiplicationStroop,2021.2.3,Win32,60.37553583,,,,,left,1,0.3515,0,60,60,23,1,9,4,9 | 4,5,1.9756,1.4111,congruent,left,,,,,,stimulusFile/physical.xlsx,,,,,,,,,,,,,,,,,,,,,,,,,,,,,,,
,,,,,,,,,,,,,,,696,2022-01-31_19h59.17.477,multiplicationStroop,2021.2.3,Win32,60.37553583,,,,,left,1,0.5549,0,61,61,50,1,6,6,6 | 6,0,1.9756,1.4111,neutral,left,,,,,,stimulusFile/physical.xlsx,,,,,,,,,,,,,,,,,,,,,,,,,,,,,,,
,,,,,,,,,,,,,,,696,2022-01-31_19h59.17.477,multiplicationStroop,2021.2.3,Win32,60.37553583,,,,,right,1,0.5345,0,62,62,62,1,8,8,8 | 8,0,1.4111,1.9756,neutral,right,,,,,,stimulusFile/physical.xlsx,,,,,,,,,,,,,,,,,,,,,,,,,,,,,,,
,,,,,,,,,,,,,,,696,2022-01-31_19h59.17.477,multiplicationStroop,2021.2.3,Win32,60.37553583,,,,,right,1,0.5057,0,63,63,38,1,8,6,8 | 6,2,1.4111,1.9756,incongruent,right,,,,,,stimulusFile/physical.xlsx,,,,,,,,,,,,,,,,,,,,,,,,,,,,,,,
,,,,,,,,,,,,,,,696,2022-01-31_19h59.17.477,multiplicationStroop,2021.2.3,Win32,60.37553583,,,,,right,1,0.4852,0,64,64,2,1,6,7,6 | 7,1,1.4111,1.9756,congruent,right,,,,,,stimulusFile/physical.xlsx,,,,,,,,,,,,,,,,,,,,,,,,,,,,,,,
,,,,,,,,,,,,,,,696,2022-01-31_19h59.17.477,multiplicationStroop,2021.2.3,Win32,60.37553583,,,,,left,1,0.5736,0,65,65,24,1,1,2,1 | 2,1,1.9756,1.4111,incongruent,left,,,,,,stimulusFile/physical.xlsx,,,,,,,,,,,,,,,,,,,,,,,,,,,,,,,
,,,,,,,,,,,,,,,696,2022-01-31_19h59.17.477,multiplicationStroop,2021.2.3,Win32,60.37553583,,,,,right,1,1.1227,0,66,66,17,1,2,7,2 | 7,5,1.4111,1.9756,congruent,right,,,,,,stimulusFile/physical.xlsx,,,,,,,,,,,,,,,,,,,,,,,,,,,,,,,
,,,,,,,,,,,,,,,696,2022-01-31_19h59.17.477,multiplicationStroop,2021.2.3,Win32,60.37553583,,,,,left,1,0.5964,0,67,67,51,1,8,8,8 | 8,0,1.9756,1.4111,neutral,left,,,,,,stimulusFile/physical.xlsx,,,,,,,,,,,,,,,,,,,,,,,,,,,,,,,
,,,,,,,,,,,,,,,696,2022-01-31_19h59.17.477,multiplicationStroop,2021.2.3,Win32,60.37553583,,,,,right,1,0.4248,0,68,68,61,1,4,4,4 | 4,0,1.4111,1.9756,neutral,right,,,,,,stimulusFile/physical.xlsx,,,,,,,,,,,,,,,,,,,,,,,,,,,,,,,
,,,,,,,,,,,,,,,696,2022-01-31_19h59.17.477,multiplicationStroop,2021.2.3,Win32,60.37553583,,,,,left,1,0.5012,0,69,69,34,1,6,8,6 | 8,2,1.9756,1.4111,incongruent,left,,,,,,stimulusFile/physical.xlsx,,,,,,,,,,,,,,,,,,,,,,,,,,,,,,,
,,,,,,,,,,,,,,,696,2022-01-31_19h59.17.477,multiplicationStroop,2021.2.3,Win32,60.37553583,,,,,left,1,0.4464,0,70,70,12,1,3,1,3 | 1,2,1.9756,1.4111,congruent,left,,,,,,stimulusFile/physical.xlsx,,,,,,,,,,,,,,,,,,,,,,,,,,,,,,,
,,,,,,,,,,,,,,,696,2022-01-31_19h59.17.477,multiplicationStroop,2021.2.3,Win32,60.37553583,,,,,left,1,0.5056,0,71,71,54,1,7,7,7 | 7,0,1.9756,1.4111,neutral,left,,,,,,stimulusFile/physical.xlsx,,,,,,,,,,,,,,,,,,,,,,,,,,,,,,,
,,,,,,,,,,,,,,,696,2022-01-31_19h59.17.477,multiplicationStroop,2021.2.3,Win32,60.37553583,,,,,,,,,,,,,,,,,,,,,0,0,0,1,1,stimulusFile/physical.xlsx,PHYSICALLY larger (larger font size).,images/physicallyLarger.png,,,,,,,,,,,,,,,,,,,,,,,,,,,,,
,,,,,,,,,,,,,,,696,2022-01-31_19h59.17.477,multiplicationStroop,2021.2.3,Win32,60.37553583,space,5.9496,space,5.3779,right,1,1.1382,0,0,0,24,1,1,2,1 | 2,1,1.9756,1.4111,incongruent,right,,,,,,stimulusFile/magnitude.xlsx,,,,,,,,,,,,,,,,,,,,,,,,,,,,,,,
,,,,,,,,,,,,,,,696,2022-01-31_19h59.17.477,multiplicationStroop,2021.2.3,Win32,60.37553583,,,,,right,1,0.699,0,1,1,56,1,1,3,1 | 3,2,1.6933,1.6933,neutral,right,,,,,,stimulusFile/magnitude.xlsx,,,,,,,,,,,,,,,,,,,,,,,,,,,,,,,
,,,,,,,,,,,,,,,696,2022-01-31_19h59.17.477,multiplicationStroop,2021.2.3,Win32,60.37553583,,,,,right,1,0.5173,0,2,2,8,1,1,3,1 | 3,2,1.4111,1.9756,congruent,right,,,,,,stimulusFile/magnitude.xlsx,,,,,,,,,,,,,,,,,,,,,,,,,,,,,,,
,,,,,,,,,,,,,,,696,2022-01-31_19h59.17.477,multiplicationStroop,2021.2.3,Win32,60.37553583,,,,,left,1,0.7821,0,3,3,61,1,4,2,4 | 2,2,1.6933,1.6933,neutral,left,,,,,,stimulusFile/magnitude.xlsx,,,,,,,,,,,,,,,,,,,,,,,,,,,,,,,
,,,,,,,,,,,,,,,696,2022-01-31_19h59.17.477,multiplicationStroop,2021.2.3,Win32,60.37553583,,,,,left,1,0.5743,0,4,4,68,1,6,1,6 | 1,5,1.6933,1.6933,neutral,left,,,,,,stimulusFile/magnitude.xlsx,,,,,,,,,,,,,,,,,,,,,,,,,,,,,,,
,,,,,,,,,,,,,,,696,2022-01-31_19h59.17.477,multiplicationStroop,2021.2.3,Win32,60.37553583,,,,,right,1,0.594,0,5,5,34,1,6,8,6 | 8,2,1.9756,1.4111,incongruent,right,,,,,,stimulusFile/magnitude.xlsx,,,,,,,,,,,,,,,,,,,,,,,,,,,,,,,
,,,,,,,,,,,,,,,696,2022-01-31_19h59.17.477,multiplicationStroop,2021.2.3,Win32,60.37553583,,,,,left,1,0.7452,0,6,6,15,1,9,7,9 | 7,2,1.9756,1.4111,congruent,left,,,,,,stimulusFile/magnitude.xlsx,,,,,,,,,,,,,,,,,,,,,,,,,,,,,,,
,,,,,,,,,,,,,,,696,2022-01-31_19h59.17.477,multiplicationStroop,2021.2.3,Win32,60.37553583,,,,,left,1,0.5356,0,7,7,14,1,8,6,8 | 6,2,1.9756,1.4111,congruent,left,,,,,,stimulusFile/magnitude.xlsx,,,,,,,,,,,,,,,,,,,,,,,,,,,,,,,
,,,,,,,,,,,,,,,696,2022-01-31_19h59.17.477,multiplicationStroop,2021.2.3,Win32,60.37553583,,,,,right,1,0.5129,0,8,8,11,1,7,9,7 | 9,2,1.4111,1.9756,congruent,right,,,,,,stimulusFile/magnitude.xlsx,,,,,,,,,,,,,,,,,,,,,,,,,,,,,,,
,,,,,,,,,,,,,,,696,2022-01-31_19h59.17.477,multiplicationStroop,2021.2.3,Win32,60.37553583,,,,,left,1,0.7144,0,9,9,36,1,3,1,3 | 1,2,1.4111,1.9756,incongruent,left,,,,,,stimulusFile/magnitude.xlsx,,,,,,,,,,,,,,,,,,,,,,,,,,,,,,,
,,,,,,,,,,,,,,,696,2022-01-31_19h59.17.477,multiplicationStroop,2021.2.3,Win32,60.37553583,,,,,right,0,0.5947,0,10,10,28,1,2,1,2 | 1,1,1.4111,1.9756,incongruent,left,,,,,,stimulusFile/magnitude.xlsx,,,,,,,,,,,,,,,,,,,,,,,,,,,,,,,
,,,,,,,,,,,,,,,696,2022-01-31_19h59.17.477,multiplicationStroop,2021.2.3,Win32,60.37553583,,,,,left,1,0.8475,0,11,11,39,1,9,7,9 | 7,2,1.4111,1.9756,incongruent,left,,,,,,stimulusFile/magnitude.xlsx,,,,,,,,,,,,,,,,,,,,,,,,,,,,,,,
,,,,,,,,,,,,,,,696,2022-01-31_19h59.17.477,multiplicationStroop,2021.2.3,Win32,60.37553583,,,,,right,1,1.4838,0,12,12,64,1,1,6,1 | 6,5,1.6933,1.6933,neutral,right,,,,,,stimulusFile/magnitude.xlsx,,,,,,,,,,,,,,,,,,,,,,,,,,,,,,,
,,,,,,,,,,,,,,,696,2022-01-31_19h59.17.477,multiplicationStroop,2021.2.3,Win32,60.37553583,,,,,left,1,0.5731,0,13,13,12,1,3,1,3 | 1,2,1.9756,1.4111,congruent,left,,,,,,stimulusFile/magnitude.xlsx,,,,,,,,,,,,,,,,,,,,,,,,,,,,,,,
,,,,,,,,,,,,,,,696,2022-01-31_19h59.17.477,multiplicationStroop,2021.2.3,Win32,60.37553583,,,,,left,1,1.3981,0,14,14,46,1,8,3,8 | 3,5,1.4111,1.9756,incongruent,left,,,,,,stimulusFile/magnitude.xlsx,,,,,,,,,,,,,,,,,,,,,,,,,,,,,,,
,,,,,,,,,,,,,,,696,2022-01-31_19h59.17.477,multiplicationStroop,2021.2.3,Win32,60.37553583,,,,,left,1,0.5236,0,15,15,5,1,4,3,4 | 3,1,1.9756,1.4111,congruent,left,,,,,,stimulusFile/magnitude.xlsx,,,,,,,,,,,,,,,,,,,,,,,,,,,,,,,
,,,,,,,,,,,,,,,696,2022-01-31_19h59.17.477,multiplicationStroop,2021.2.3,Win32,60.37553583,,,,,right,1,0.6107,0,16,16,18,1,3,8,3 | 8,5,1.4111,1.9756,congruent,right,,,,,,stimulusFile/magnitude.xlsx,,,,,,,,,,,,,,,,,,,,,,,,,,,,,,,
,,,,,,,,,,,,,,,696,2022-01-31_19h59.17.477,multiplicationStroop,2021.2.3,Win32,60.37553583,,,,,right,1,0.5925,0,17,17,0,1,1,2,1 | 2,1,1.4111,1.9756,congruent,right,,,,,,stimulusFile/magnitude.xlsx,,,,,,,,,,,,,,,,,,,,,,,,,,,,,,,
,,,,,,,,,,,,,,,696,2022-01-31_19h59.17.477,multiplicationStroop,2021.2.3,Win32,60.37553583,,,,,left,1,0.6215,0,18,18,29,1,4,3,4 | 3,1,1.4111,1.9756,incongruent,left,,,,,,stimulusFile/magnitude.xlsx,,,,,,,,,,,,,,,,,,,,,,,,,,,,,,,
,,,,,,,,,,,,,,,696,2022-01-31_19h59.17.477,multiplicationStroop,2021.2.3,Win32,60.37553583,,,,,left,1,0.4505,0,19,19,44,1,6,1,6 | 1,5,1.4111,1.9756,incongruent,left,,,,,,stimulusFile/magnitude.xlsx,,,,,,,,,,,,,,,,,,,,,,,,,,,,,,,
,,,,,,,,,,,,,,,696,2022-01-31_19h59.17.477,multiplicationStroop,2021.2.3,Win32,60.37553583,,,,,left,1,0.4779,0,20,20,69,1,7,2,7 | 2,5,1.6933,1.6933,neutral,left,,,,,,stimulusFile/magnitude.xlsx,,,,,,,,,,,,,,,,,,,,,,,,,,,,,,,
,,,,,,,,,,,,,,,696,2022-01-31_19h59.17.477,multiplicationStroop,2021.2.3,Win32,60.37553583,,,,,left,1,0.5072,0,21,21,21,1,7,2,7 | 2,5,1.9756,1.4111,congruent,left,,,,,,stimulusFile/magnitude.xlsx,,,,,,,,,,,,,,,,,,,,,,,,,,,,,,,
,,,,,,,,,,,,,,,696,2022-01-31_19h59.17.477,multiplicationStroop,2021.2.3,Win32,60.37553583,,,,,left,1,0.4811,0,22,22,71,1,9,4,9 | 4,5,1.6933,1.6933,neutral,left,,,,,,stimulusFile/magnitude.xlsx,,,,,,,,,,,,,,,,,,,,,,,,,,,,,,,
,,,,,,,,,,,,,,,696,2022-01-31_19h59.17.477,multiplicationStroop,2021.2.3,Win32,60.37553583,,,,,right,1,0.8675,0,23,23,27,1,8,9,8 | 9,1,1.9756,1.4111,incongruent,right,,,,,,stimulusFile/magnitude.xlsx,,,,,,,,,,,,,,,,,,,,,,,,,,,,,,,
,,,,,,,,,,,,,,,696,2022-01-31_19h59.17.477,multiplicationStroop,2021.2.3,Win32,60.37553583,,,,,right,1,1.0734,0,24,24,1,1,3,4,3 | 4,1,1.4111,1.9756,congruent,right,,,,,,stimulusFile/magnitude.xlsx,,,,,,,,,,,,,,,,,,,,,,,,,,,,,,,
,,,,,,,,,,,,,,,696,2022-01-31_19h59.17.477,multiplicationStroop,2021.2.3,Win32,60.37553583,,,,,right,1,0.4948,0,25,25,9,1,2,4,2 | 4,2,1.4111,1.9756,congruent,right,,,,,,stimulusFile/magnitude.xlsx,,,,,,,,,,,,,,,,,,,,,,,,,,,,,,,
,,,,,,,,,,,,,,,696,2022-01-31_19h59.17.477,multiplicationStroop,2021.2.3,Win32,60.37553583,,,,,left,0,0.5479,0,26,26,43,1,4,9,4 | 9,5,1.9756,1.4111,incongruent,right,,,,,,stimulusFile/magnitude.xlsx,,,,,,,,,,,,,,,,,,,,,,,,,,,,,,,
,,,,,,,,,,,,,,,696,2022-01-31_19h59.17.477,multiplicationStroop,2021.2.3,Win32,60.37553583,,,,,right,1,0.2024,0,27,27,66,1,3,8,3 | 8,5,1.6933,1.6933,neutral,right,,,,,,stimulusFile/magnitude.xlsx,,,,,,,,,,,,,,,,,,,,,,,,,,,,,,,
,,,,,,,,,,,,,,,696,2022-01-31_19h59.17.477,multiplicationStroop,2021.2.3,Win32,60.37553583,,,,,left,1,0.6643,0,28,28,31,1,9,8,9 | 8,1,1.4111,1.9756,incongruent,left,,,,,,stimulusFile/magnitude.xlsx,,,,,,,,,,,,,,,,,,,,,,,,,,,,,,,
,,,,,,,,,,,,,,,696,2022-01-31_19h59.17.477,multiplicationStroop,2021.2.3,Win32,60.37553583,,,,,left,1,0.5302,0,29,29,70,1,8,3,8 | 3,5,1.6933,1.6933,neutral,left,,,,,,stimulusFile/magnitude.xlsx,,,,,,,,,,,,,,,,,,,,,,,,,,,,,,,
,,,,,,,,,,,,,,,696,2022-01-31_19h59.17.477,multiplicationStroop,2021.2.3,Win32,60.37553583,,,,,right,1,0.6262,0,30,30,58,1,6,8,6 | 8,2,1.6933,1.6933,neutral,right,,,,,,stimulusFile/magnitude.xlsx,,,,,,,,,,,,,,,,,,,,,,,,,,,,,,,
,,,,,,,,,,,,,,,696,2022-01-31_19h59.17.477,multiplicationStroop,2021.2.3,Win32,60.37553583,,,,,right,1,0.525,0,31,31,17,1,2,7,2 | 7,5,1.4111,1.9756,congruent,right,,,,,,stimulusFile/magnitude.xlsx,,,,,,,,,,,,,,,,,,,,,,,,,,,,,,,
,,,,,,,,,,,,,,,696,2022-01-31_19h59.17.477,multiplicationStroop,2021.2.3,Win32,60.37553583,,,,,left,1,0.74,0,32,32,55,1,9,8,9 | 8,1,1.6933,1.6933,neutral,left,,,,,,stimulusFile/magnitude.xlsx,,,,,,,,,,,,,,,,,,,,,,,,,,,,,,,
,,,,,,,,,,,,,,,696,2022-01-31_19h59.17.477,multiplicationStroop,2021.2.3,Win32,60.37553583,,,,,left,1,0.6406,0,33,33,45,1,7,2,7 | 2,5,1.4111,1.9756,incongruent,left,,,,,,stimulusFile/magnitude.xlsx,,,,,,,,,,,,,,,,,,,,,,,,,,,,,,,
,,,,,,,,,,,,,,,696,2022-01-31_19h59.17.477,multiplicationStroop,2021.2.3,Win32,60.37553583,,,,,left,1,0.4607,0,34,34,22,1,8,3,8 | 3,5,1.9756,1.4111,congruent,left,,,,,,stimulusFile/magnitude.xlsx,,,,,,,,,,,,,,,,,,,,,,,,,,,,,,,
,,,,,,,,,,,,,,,696,2022-01-31_19h59.17.477,multiplicationStroop,2021.2.3,Win32,60.37553583,,,,,left,1,0.9994,0,35,35,30,1,7,6,7 | 6,1,1.4111,1.9756,incongruent,left,,,,,,stimulusFile/magnitude.xlsx,,,,,,,,,,,,,,,,,,,,,,,,,,,,,,,
,,,,,,,,,,,,,,,696,2022-01-31_19h59.17.477,multiplicationStroop,2021.2.3,Win32,60.37553583,,,,,right,1,1.4666,0,36,36,40,1,1,6,1 | 6,5,1.9756,1.4111,incongruent,right,,,,,,stimulusFile/magnitude.xlsx,,,,,,,,,,,,,,,,,,,,,,,,,,,,,,,
,,,,,,,,,,,,,,,696,2022-01-31_19h59.17.477,multiplicationStroop,2021.2.3,Win32,60.37553583,,,,,right,1,0.7236,0,37,37,25,1,3,4,3 | 4,1,1.9756,1.4111,incongruent,right,,,,,,stimulusFile/magnitude.xlsx,,,,,,,,,,,,,,,,,,,,,,,,,,,,,,,
,,,,,,,,,,,,,,,696,2022-01-31_19h59.17.477,multiplicationStroop,2021.2.3,Win32,60.37553583,,,,,right,1,0.8481,0,38,38,67,1,4,9,4 | 9,5,1.6933,1.6933,neutral,right,,,,,,stimulusFile/magnitude.xlsx,,,,,,,,,,,,,,,,,,,,,,,,,,,,,,,
,,,,,,,,,,,,,,,696,2022-01-31_19h59.17.477,multiplicationStroop,2021.2.3,Win32,60.37553583,,,,,left,1,0.548,0,39,39,38,1,8,6,8 | 6,2,1.4111,1.9756,incongruent,left,,,,,,stimulusFile/magnitude.xlsx,,,,,,,,,,,,,,,,,,,,,,,,,,,,,,,
,,,,,,,,,,,,,,,696,2022-01-31_19h59.17.477,multiplicationStroop,2021.2.3,Win32,60.37553583,,,,,left,1,0.5573,0,40,40,47,1,9,4,9 | 4,5,1.4111,1.9756,incongruent,left,,,,,,stimulusFile/magnitude.xlsx,,,,,,,,,,,,,,,,,,,,,,,,,,,,,,,
,,,,,,,,,,,,,,,696,2022-01-31_19h59.17.477,multiplicationStroop,2021.2.3,Win32,60.37553583,,,,,right,1,0.6976,0,41,41,26,1,6,7,6 | 7,1,1.9756,1.4111,incongruent,right,,,,,,stimulusFile/magnitude.xlsx,,,,,,,,,,,,,,,,,,,,,,,,,,,,,,,
,,,,,,,,,,,,,,,696,2022-01-31_19h59.17.477,multiplicationStroop,2021.2.3,Win32,60.37553583,,,,,left,1,0.5076,0,42,42,23,1,9,4,9 | 4,5,1.9756,1.4111,congruent,left,,,,,,stimulusFile/magnitude.xlsx,,,,,,,,,,,,,,,,,,,,,,,,,,,,,,,
,,,,,,,,,,,,,,,696,2022-01-31_19h59.17.477,multiplicationStroop,2021.2.3,Win32,60.37553583,,,,,left,1,0.4935,0,43,43,20,1,6,1,6 | 1,5,1.9756,1.4111,congruent,left,,,,,,stimulusFile/magnitude.xlsx,,,,,,,,,,,,,,,,,,,,,,,,,,,,,,,
,,,,,,,,,,,,,,,696,2022-01-31_19h59.17.477,multiplicationStroop,2021.2.3,Win32,60.37553583,,,,,right,1,0.5572,0,44,44,59,1,7,9,7 | 9,2,1.6933,1.6933,neutral,right,,,,,,stimulusFile/magnitude.xlsx,,,,,,,,,,,,,,,,,,,,,,,,,,,,,,,
,,,,,,,,,,,,,,,696,2022-01-31_19h59.17.477,multiplicationStroop,2021.2.3,Win32,60.37553583,,,,,right,1,0.6945,0,45,45,35,1,7,9,7 | 9,2,1.9756,1.4111,incongruent,right,,,,,,stimulusFile/magnitude.xlsx,,,,,,,,,,,,,,,,,,,,,,,,,,,,,,,
,,,,,,,,,,,,,,,696,2022-01-31_19h59.17.477,multiplicationStroop,2021.2.3,Win32,60.37553583,,,,,left,1,0.4746,0,46,46,4,1,2,1,2 | 1,1,1.9756,1.4111,congruent,left,,,,,,stimulusFile/magnitude.xlsx,,,,,,,,,,,,,,,,,,,,,,,,,,,,,,,
,,,,,,,,,,,,,,,696,2022-01-31_19h59.17.477,multiplicationStroop,2021.2.3,Win32,60.37553583,,,,,left,1,0.5886,0,47,47,37,1,4,2,4 | 2,2,1.4111,1.9756,incongruent,left,,,,,,stimulusFile/magnitude.xlsx,,,,,,,,,,,,,,,,,,,,,,,,,,,,,,,
,,,,,,,,,,,,,,,696,2022-01-31_19h59.17.477,multiplicationStroop,2021.2.3,Win32,60.37553583,,,,,left,1,0.5742,0,48,48,62,1,8,6,8 | 6,2,1.6933,1.6933,neutral,left,,,,,,stimulusFile/magnitude.xlsx,,,,,,,,,,,,,,,,,,,,,,,,,,,,,,,
,,,,,,,,,,,,,,,696,2022-01-31_19h59.17.477,multiplicationStroop,2021.2.3,Win32,60.37553583,,,,,right,1,0.5013,0,49,49,10,1,6,8,6 | 8,2,1.4111,1.9756,congruent,right,,,,,,stimulusFile/magnitude.xlsx,,,,,,,,,,,,,,,,,,,,,,,,,,,,,,,
,,,,,,,,,,,,,,,696,2022-01-31_19h59.17.477,multiplicationStroop,2021.2.3,Win32,60.37553583,,,,,right,1,0.5673,0,50,50,19,1,4,9,4 | 9,5,1.4111,1.9756,congruent,right,,,,,,stimulusFile/magnitude.xlsx,,,,,,,,,,,,,,,,,,,,,,,,,,,,,,,
,,,,,,,,,,,,,,,696,2022-01-31_19h59.17.477,multiplicationStroop,2021.2.3,Win32,60.37553583,,,,,right,1,0.6303,0,51,51,57,1,2,4,2 | 4,2,1.6933,1.6933,neutral,right,,,,,,stimulusFile/magnitude.xlsx,,,,,,,,,,,,,,,,,,,,,,,,,,,,,,,
,,,,,,,,,,,,,,,696,2022-01-31_19h59.17.477,multiplicationStroop,2021.2.3,Win32,60.37553583,,,,,right,1,0.5465,0,52,52,42,1,3,8,3 | 8,5,1.9756,1.4111,incongruent,right,,,,,,stimulusFile/magnitude.xlsx,,,,,,,,,,,,,,,,,,,,,,,,,,,,,,,
,,,,,,,,,,,,,,,696,2022-01-31_19h59.17.477,multiplicationStroop,2021.2.3,Win32,60.37553583,,,,,right,1,0.5935,0,53,53,41,1,2,7,2 | 7,5,1.9756,1.4111,incongruent,right,,,,,,stimulusFile/magnitude.xlsx,,,,,,,,,,,,,,,,,,,,,,,,,,,,,,,
,,,,,,,,,,,,,,,696,2022-01-31_19h59.17.477,multiplicationStroop,2021.2.3,Win32,60.37553583,,,,,left,1,0.68,0,54,54,54,1,7,6,7 | 6,1,1.6933,1.6933,neutral,left,,,,,,stimulusFile/magnitude.xlsx,,,,,,,,,,,,,,,,,,,,,,,,,,,,,,,
,,,,,,,,,,,,,,,696,2022-01-31_19h59.17.477,multiplicationStroop,2021.2.3,Win32,60.37553583,,,,,right,1,0.563,0,55,55,65,1,2,7,2 | 7,5,1.6933,1.6933,neutral,right,,,,,,stimulusFile/magnitude.xlsx,,,,,,,,,,,,,,,,,,,,,,,,,,,,,,,
,,,,,,,,,,,,,,,696,2022-01-31_19h59.17.477,multiplicationStroop,2021.2.3,Win32,60.37553583,,,,,right,1,0.7387,0,56,56,48,1,1,2,1 | 2,1,1.6933,1.6933,neutral,right,,,,,,stimulusFile/magnitude.xlsx,,,,,,,,,,,,,,,,,,,,,,,,,,,,,,,
,,,,,,,,,,,,,,,696,2022-01-31_19h59.17.477,multiplicationStroop,2021.2.3,Win32,60.37553583,,,,,left,1,0.498,0,57,57,60,1,3,1,3 | 1,2,1.6933,1.6933,neutral,left,,,,,,stimulusFile/magnitude.xlsx,,,,,,,,,,,,,,,,,,,,,,,,,,,,,,,
,,,,,,,,,,,,,,,696,2022-01-31_19h59.17.477,multiplicationStroop,2021.2.3,Win32,60.37553583,,,,,left,1,0.6421,0,58,58,7,1,9,8,9 | 8,1,1.9756,1.4111,congruent,left,,,,,,stimulusFile/magnitude.xlsx,,,,,,,,,,,,,,,,,,,,,,,,,,,,,,,
,,,,,,,,,,,,,,,696,2022-01-31_19h59.17.477,multiplicationStroop,2021.2.3,Win32,60.37553583,,,,,left,1,0.5677,0,59,59,52,1,2,1,2 | 1,1,1.6933,1.6933,neutral,left,,,,,,stimulusFile/magnitude.xlsx,,,,,,,,,,,,,,,,,,,,,,,,,,,,,,,
,,,,,,,,,,,,,,,696,2022-01-31_19h59.17.477,multiplicationStroop,2021.2.3,Win32,60.37553583,,,,,right,1,0.6581,0,60,60,33,1,2,4,2 | 4,2,1.9756,1.4111,incongruent,right,,,,,,stimulusFile/magnitude.xlsx,,,,,,,,,,,,,,,,,,,,,,,,,,,,,,,
,,,,,,,,,,,,,,,696,2022-01-31_19h59.17.477,multiplicationStroop,2021.2.3,Win32,60.37553583,,,,,left,1,0.4507,0,61,61,13,1,4,2,4 | 2,2,1.9756,1.4111,congruent,left,,,,,,stimulusFile/magnitude.xlsx,,,,,,,,,,,,,,,,,,,,,,,,,,,,,,,
,,,,,,,,,,,,,,,696,2022-01-31_19h59.17.477,multiplicationStroop,2021.2.3,Win32,60.37553583,,,,,right,1,0.5898,0,62,62,32,1,1,3,1 | 3,2,1.9756,1.4111,incongruent,right,,,,,,stimulusFile/magnitude.xlsx,,,,,,,,,,,,,,,,,,,,,,,,,,,,,,,
,,,,,,,,,,,,,,,696,2022-01-31_19h59.17.477,multiplicationStroop,2021.2.3,Win32,60.37553583,,,,,right,1,0.7247,0,63,63,50,1,6,7,6 | 7,1,1.6933,1.6933,neutral,right,,,,,,stimulusFile/magnitude.xlsx,,,,,,,,,,,,,,,,,,,,,,,,,,,,,,,
,,,,,,,,,,,,,,,696,2022-01-31_19h59.17.477,multiplicationStroop,2021.2.3,Win32,60.37553583,,,,,right,1,0.4835,0,64,64,2,1,6,7,6 | 7,1,1.4111,1.9756,congruent,right,,,,,,stimulusFile/magnitude.xlsx,,,,,,,,,,,,,,,,,,,,,,,,,,,,,,,
,,,,,,,,,,,,,,,696,2022-01-31_19h59.17.477,multiplicationStroop,2021.2.3,Win32,60.37553583,,,,,left,1,0.596,0,65,65,63,1,9,7,9 | 7,2,1.6933,1.6933,neutral,left,,,,,,stimulusFile/magnitude.xlsx,,,,,,,,,,,,,,,,,,,,,,,,,,,,,,,
,,,,,,,,,,,,,,,696,2022-01-31_19h59.17.477,multiplicationStroop,2021.2.3,Win32,60.37553583,,,,,left,1,0.5421,0,66,66,53,1,4,3,4 | 3,1,1.6933,1.6933,neutral,left,,,,,,stimulusFile/magnitude.xlsx,,,,,,,,,,,,,,,,,,,,,,,,,,,,,,,
,,,,,,,,,,,,,,,696,2022-01-31_19h59.17.477,multiplicationStroop,2021.2.3,Win32,60.37553583,,,,,right,1,0.4901,0,67,67,3,1,8,9,8 | 9,1,1.4111,1.9756,congruent,right,,,,,,stimulusFile/magnitude.xlsx,,,,,,,,,,,,,,,,,,,,,,,,,,,,,,,
,,,,,,,,,,,,,,,696,2022-01-31_19h59.17.477,multiplicationStroop,2021.2.3,Win32,60.37553583,,,,,right,1,0.5143,0,68,68,16,1,1,6,1 | 6,5,1.4111,1.9756,congruent,right,,,,,,stimulusFile/magnitude.xlsx,,,,,,,,,,,,,,,,,,,,,,,,,,,,,,,
,,,,,,,,,,,,,,,696,2022-01-31_19h59.17.477,multiplicationStroop,2021.2.3,Win32,60.37553583,,,,,left,1,1.4581,0,69,69,6,1,7,6,7 | 6,1,1.9756,1.4111,congruent,left,,,,,,stimulusFile/magnitude.xlsx,,,,,,,,,,,,,,,,,,,,,,,,,,,,,,,
,,,,,,,,,,,,,,,696,2022-01-31_19h59.17.477,multiplicationStroop,2021.2.3,Win32,60.37553583,,,,,right,1,0.5529,0,70,70,49,1,3,4,3 | 4,1,1.6933,1.6933,neutral,right,,,,,,stimulusFile/magnitude.xlsx,,,,,,,,,,,,,,,,,,,,,,,,,,,,,,,
,,,,,,,,,,,,,,,696,2022-01-31_19h59.17.477,multiplicationStroop,2021.2.3,Win32,60.37553583,,,,,left,0,0.5596,0,71,71,51,1,8,9,8 | 9,1,1.6933,1.6933,neutral,right,,,,,,stimulusFile/magnitude.xlsx,,,,,,,,,,,,,,,,,,,,,,,,,,,,,,,
,,,,,,,,,,,,,,,696,2022-01-31_19h59.17.477,multiplicationStroop,2021.2.3,Win32,60.37553583,,,,,,,,,,,,,,,,,,,,,0,1,1,0,1,stimulusFile/magnitude.xlsx,NUMERICALLY larger (larger coefficient).,images/numericallyLarger.png,,,,,,,,,,,,,,,,,,,,,,,,,,,,,
,,,,,,,,,,,,,,,696,2022-01-31_19h59.17.477,multiplicationStroop,2021.2.3,Win32,60.37553583,,,,,,,,,,,,,,,,,,,,,,,,,,,,,space,12.9959,space,1.6586,36,4.2656,1,0,0,0,32,1,6,×,6,6 × 6,incongruent,tie,1,2,36,,,,,,,,
,,,,,,,,,,,,,,,696,2022-01-31_19h59.17.477,multiplicationStroop,2021.2.3,Win32,60.37553583,,,,,,,,,,,,,,,,,,,,,,,,,,,,,,,,,32,6.5658,1,0,1,1,7,1,4,×,8,4 × 8,incongruent,smallerFirst,2,1,32,,,,,,,,
,,,,,,,,,,,,,,,696,2022-01-31_19h59.17.477,multiplicationStroop,2021.2.3,Win32,60.37553583,,,,,,,,,,,,,,,,,,,,,,,,,,,,,,,,,16,2.1349,1,0,2,2,30,1,4,×,4,4 × 4,incongruent,tie,1,2,16,,,,,,,,
,,,,,,,,,,,,,,,696,2022-01-31_19h59.17.477,multiplicationStroop,2021.2.3,Win32,60.37553583,,,,,,,,,,,,,,,,,,,,,,,,,,,,,,,,,16,1.6654,1,0,3,3,23,1,8,×,2,8 × 2,incongruent,largerFirst,1,2,16,,,,,,,,
,,,,,,,,,,,,,,,696,2022-01-31_19h59.17.477,multiplicationStroop,2021.2.3,Win32,60.37553583,,,,,,,,,,,,,,,,,,,,,,,,,,,,,,,,,8,1.5157,1,0,4,4,24,1,4,×,2,4 × 2,incongruent,largerFirst,1,2,8,,,,,,,,
,,,,,,,,,,,,,,,696,2022-01-31_19h59.17.477,multiplicationStroop,2021.2.3,Win32,60.37553583,,,,,,,,,,,,,,,,,,,,,,,,,,,,,,,,,18,1.5487,1,0,5,5,2,1,2,×,9,2 × 9,incongruent,smallerFirst,2,1,18,,,,,,,,
,,,,,,,,,,,,,,,696,2022-01-31_19h59.17.477,multiplicationStroop,2021.2.3,Win32,60.37553583,,,,,,,,,,,,,,,,,,,,,,,,,,,,,,,,,21,1.7986,1,0,6,6,26,1,7,×,3,7 × 3,incongruent,largerFirst,1,2,21,,,,,,,,
,,,,,,,,,,,,,,,696,2022-01-31_19h59.17.477,multiplicationStroop,2021.2.3,Win32,60.37553583,,,,,,,,,,,,,,,,,,,,,,,,,,,,,,,,,15,1.3158,1,0,7,7,10,1,3,×,5,3 × 5,incongruent,smallerFirst,2,1,15,,,,,,,,
,,,,,,,,,,,,,,,696,2022-01-31_19h59.17.477,multiplicationStroop,2021.2.3,Win32,60.37553583,,,,,,,,,,,,,,,,,,,,,,,,,,,,,,,,,56,2.182,1,0,8,8,14,1,8,×,7,8 × 7,incongruent,largerFirst,1,2,56,,,,,,,,
,,,,,,,,,,,,,,,696,2022-01-31_19h59.17.477,multiplicationStroop,2021.2.3,Win32,60.37553583,,,,,,,,,,,,,,,,,,,,,,,,,,,,,,,,,3,2.232,0,0,9,9,28,1,2,×,2,2 × 2,incongruent,tie,1,2,4,,,,,,,,
,,,,,,,,,,,,,,,696,2022-01-31_19h59.17.477,multiplicationStroop,2021.2.3,Win32,60.37553583,,,,,,,,,,,,,,,,,,,,,,,,,,,,,,,,,35,3.4481,1,0,10,10,12,1,5,×,7,5 × 7,incongruent,smallerFirst,2,1,35,,,,,,,,
,,,,,,,,,,,,,,,696,2022-01-31_19h59.17.477,multiplicationStroop,2021.2.3,Win32,60.37553583,,,,,,,,,,,,,,,,,,,,,,,,,,,,,,,,,45,1.7181,1,0,11,11,22,1,9,×,5,9 × 5,incongruent,largerFirst,1,2,45,,,,,,,,
,,,,,,,,,,,,,,,696,2022-01-31_19h59.17.477,multiplicationStroop,2021.2.3,Win32,60.37553583,,,,,,,,,,,,,,,,,,,,,,,,,,,,,,,,,20,2.232,1,0,12,12,27,1,5,×,4,5 × 4,incongruent,largerFirst,1,2,20,,,,,,,,
,,,,,,,,,,,,,,,696,2022-01-31_19h59.17.477,multiplicationStroop,2021.2.3,Win32,60.37553583,,,,,,,,,,,,,,,,,,,,,,,,,,,,,,,,,10,1.8323,1,0,13,13,21,1,5,×,2,5 × 2,incongruent,largerFirst,1,2,10,,,,,,,,
,,,,,,,,,,,,,,,696,2022-01-31_19h59.17.477,multiplicationStroop,2021.2.3,Win32,60.37553583,,,,,,,,,,,,,,,,,,,,,,,,,,,,,,,,,42,2.6152,1,0,14,14,17,1,7,×,6,7 × 6,incongruent,largerFirst,1,2,42,,,,,,,,
,,,,,,,,,,,,,,,696,2022-01-31_19h59.17.477,multiplicationStroop,2021.2.3,Win32,60.37553583,,,,,,,,,,,,,,,,,,,,,,,,,,,,,,,,,12,1.4818,1,0,15,15,19,1,6,×,2,6 × 2,incongruent,largerFirst,1,2,12,,,,,,,,
,,,,,,,,,,,,,,,696,2022-01-31_19h59.17.477,multiplicationStroop,2021.2.3,Win32,60.37553583,,,,,,,,,,,,,,,,,,,,,,,,,,,,,,,,,24,2.0154,1,0,16,16,20,1,6,×,4,6 × 4,incongruent,largerFirst,1,2,24,,,,,,,,
,,,,,,,,,,,,,,,696,2022-01-31_19h59.17.477,multiplicationStroop,2021.2.3,Win32,60.37553583,,,,,,,,,,,,,,,,,,,,,,,,,,,,,,,,,6,2.0985,1,0,17,17,11,1,2,×,3,2 × 3,incongruent,smallerFirst,2,1,6,,,,,,,,
,,,,,,,,,,,,,,,696,2022-01-31_19h59.17.477,multiplicationStroop,2021.2.3,Win32,60.37553583,,,,,,,,,,,,,,,,,,,,,,,,,,,,,,,,,12,1.4316,1,0,18,18,5,1,3,×,4,3 × 4,incongruent,smallerFirst,2,1,12,,,,,,,,
,,,,,,,,,,,,,,,696,2022-01-31_19h59.17.477,multiplicationStroop,2021.2.3,Win32,60.37553583,,,,,,,,,,,,,,,,,,,,,,,,,,,,,,,,,49,2.1989,1,0,19,19,33,1,7,×,7,7 × 7,incongruent,tie,1,2,49,,,,,,,,
,,,,,,,,,,,,,,,696,2022-01-31_19h59.17.477,multiplicationStroop,2021.2.3,Win32,60.37553583,,,,,,,,,,,,,,,,,,,,,,,,,,,,,,,,,64,2.0509,1,0,20,20,34,1,8,×,8,8 × 8,incongruent,tie,1,2,64,,,,,,,,
,,,,,,,,,,,,,,,696,2022-01-31_19h59.17.477,multiplicationStroop,2021.2.3,Win32,60.37553583,,,,,,,,,,,,,,,,,,,,,,,,,,,,,,,,,21,2.1307,0,0,21,21,18,1,9,×,3,9 × 3,incongruent,largerFirst,1,2,27,,,,,,,,
,,,,,,,,,,,,,,,696,2022-01-31_19h59.17.477,multiplicationStroop,2021.2.3,Win32,60.37553583,,,,,,,,,,,,,,,,,,,,,,,,,,,,,,,,,81,2.6315,1,0,22,22,35,1,9,×,9,9 × 9,incongruent,tie,1,2,81,,,,,,,,
,,,,,,,,,,,,,,,696,2022-01-31_19h59.17.477,multiplicationStroop,2021.2.3,Win32,60.37553583,,,,,,,,,,,,,,,,,,,,,,,,,,,,,,,,,30,1.8651,1,0,23,23,25,1,6,×,5,6 × 5,incongruent,largerFirst,1,2,30,,,,,,,,
,,,,,,,,,,,,,,,696,2022-01-31_19h59.17.477,multiplicationStroop,2021.2.3,Win32,60.37553583,,,,,,,,,,,,,,,,,,,,,,,,,,,,,,,,,36,3.0477,1,0,24,24,15,1,9,×,4,9 × 4,incongruent,largerFirst,1,2,36,,,,,,,,
,,,,,,,,,,,,,,,696,2022-01-31_19h59.17.477,multiplicationStroop,2021.2.3,Win32,60.37553583,,,,,,,,,,,,,,,,,,,,,,,,,,,,,,,,,18,1.7818,1,0,25,25,8,1,3,×,6,3 × 6,incongruent,smallerFirst,2,1,18,,,,,,,,
,,,,,,,,,,,,,,,696,2022-01-31_19h59.17.477,multiplicationStroop,2021.2.3,Win32,60.37553583,,,,,,,,,,,,,,,,,,,,,,,,,,,,,,,,,14,1.8319,1,0,26,26,4,1,2,×,7,2 × 7,incongruent,smallerFirst,2,1,14,,,,,,,,
,,,,,,,,,,,,,,,696,2022-01-31_19h59.17.477,multiplicationStroop,2021.2.3,Win32,60.37553583,,,,,,,,,,,,,,,,,,,,,,,,,,,,,,,,,40,2.1481,1,0,27,27,13,1,5,×,8,5 × 8,incongruent,smallerFirst,2,1,40,,,,,,,,
,,,,,,,,,,,,,,,696,2022-01-31_19h59.17.477,multiplicationStroop,2021.2.3,Win32,60.37553583,,,,,,,,,,,,,,,,,,,,,,,,,,,,,,,,,9,1.9817,1,0,28,28,29,1,3,×,3,3 × 3,incongruent,tie,1,2,9,,,,,,,,
,,,,,,,,,,,,,,,696,2022-01-31_19h59.17.477,multiplicationStroop,2021.2.3,Win32,60.37553583,,,,,,,,,,,,,,,,,,,,,,,,,,,,,,,,,48,3.6148,1,0,29,29,1,1,6,×,8,6 × 8,incongruent,smallerFirst,2,1,48,,,,,,,,
,,,,,,,,,,,,,,,696,2022-01-31_19h59.17.477,multiplicationStroop,2021.2.3,Win32,60.37553583,,,,,,,,,,,,,,,,,,,,,,,,,,,,,,,,,72,2.4343,1,0,30,30,0,1,8,×,9,8 × 9,incongruent,smallerFirst,2,1,72,,,,,,,,
,,,,,,,,,,,,,,,696,2022-01-31_19h59.17.477,multiplicationStroop,2021.2.3,Win32,60.37553583,,,,,,,,,,,,,,,,,,,,,,,,,,,,,,,,,28,2.7811,1,0,31,31,16,1,7,×,4,7 × 4,incongruent,largerFirst,1,2,28,,,,,,,,
,,,,,,,,,,,,,,,696,2022-01-31_19h59.17.477,multiplicationStroop,2021.2.3,Win32,60.37553583,,,,,,,,,,,,,,,,,,,,,,,,,,,,,,,,,25,2.5346,1,0,32,32,31,1,5,×,5,5 × 5,incongruent,tie,1,2,25,,,,,,,,
,,,,,,,,,,,,,,,696,2022-01-31_19h59.17.477,multiplicationStroop,2021.2.3,Win32,60.37553583,,,,,,,,,,,,,,,,,,,,,,,,,,,,,,,,,24,2.6479,1,0,33,33,9,1,3,×,8,3 × 8,incongruent,smallerFirst,2,1,24,,,,,,,,
,,,,,,,,,,,,,,,696,2022-01-31_19h59.17.477,multiplicationStroop,2021.2.3,Win32,60.37553583,,,,,,,,,,,,,,,,,,,,,,,,,,,,,,,,,54,10.4118,1,0,34,34,6,1,6,×,9,6 × 9,incongruent,smallerFirst,2,1,54,,,,,,,,
,,,,,,,,,,,,,,,696,2022-01-31_19h59.17.477,multiplicationStroop,2021.2.3,Win32,60.37553583,,,,,,,,,,,,,,,,,,,,,,,,,,,,,,,,,63,2.7331,1,0,35,35,3,1,7,×,9,7 × 9,incongruent,smallerFirst,2,1,63,,,,,,,,
,,,,,,,,,,,,,,,696,2022-01-31_19h59.17.477,multiplicationStroop,2021.2.3,Win32,60.37553583,,,,,,,,,,,,,,,,,,,,,,,,,,,,,,,,,,,,,,,,,,,,,,,,,,0,0,0,5,1,stimulusFile/mult_blk6_INcongruent.xlsx,,
,,,,,,,,,,,,,,,696,2022-01-31_19h59.17.477,multiplicationStroop,2021.2.3,Win32,60.37553583,,,,,,,,,,,,,,,,,,,,,,,,,,,,,,,space,1.7864,63,3.5429,1,0,0,0,7,1,7,×,9,7 × 9,congruent,smallerFirst,1,2,63,,,,,,,,
,,,,,,,,,,,,,,,696,2022-01-31_19h59.17.477,multiplicationStroop,2021.2.3,Win32,60.37553583,,,,,,,,,,,,,,,,,,,,,,,,,,,,,,,,,35,1.9347,1,0,1,1,15,1,7,×,5,7 × 5,congruent,largerFirst,2,1,35,,,,,,,,
,,,,,,,,,,,,,,,696,2022-01-31_19h59.17.477,multiplicationStroop,2021.2.3,Win32,60.37553583,,,,,,,,,,,,,,,,,,,,,,,,,,,,,,,,,48,2.5647,1,0,2,2,4,1,6,×,8,6 × 8,congruent,smallerFirst,1,2,48,,,,,,,,
,,,,,,,,,,,,,,,696,2022-01-31_19h59.17.477,multiplicationStroop,2021.2.3,Win32,60.37553583,,,,,,,,,,,,,,,,,,,,,,,,,,,,,,,,,36,2.2653,1,0,3,3,32,1,6,×,6,6 × 6,neutral,tie,1,2,36,,,,,,,,
,,,,,,,,,,,,,,,696,2022-01-31_19h59.17.477,multiplicationStroop,2021.2.3,Win32,60.37553583,,,,,,,,,,,,,,,,,,,,,,,,,,,,,,,,,49,2.6979,1,0,4,4,33,1,7,×,7,7 × 7,neutral,tie,1,2,49,,,,,,,,
,,,,,,,,,,,,,,,696,2022-01-31_19h59.17.477,multiplicationStroop,2021.2.3,Win32,60.37553583,,,,,,,,,,,,,,,,,,,,,,,,,,,,,,,,,18,2.4316,1,0,5,5,8,1,2,×,9,2 × 9,congruent,smallerFirst,1,2,18,,,,,,,,
,,,,,,,,,,,,,,,696,2022-01-31_19h59.17.477,multiplicationStroop,2021.2.3,Win32,60.37553583,,,,,,,,,,,,,,,,,,,,,,,,,,,,,,,,,28,2.2485,0,0,6,6,25,1,6,×,3,6 × 3,congruent,largerFirst,2,1,18,,,,,,,,
,,,,,,,,,,,,,,,696,2022-01-31_19h59.17.477,multiplicationStroop,2021.2.3,Win32,60.37553583,,,,,,,,,,,,,,,,,,,,,,,,,,,,,,,,,42,2.4011,1,0,7,7,17,1,7,×,6,7 × 6,congruent,largerFirst,2,1,42,,,,,,,,
,,,,,,,,,,,,,,,696,2022-01-31_19h59.17.477,multiplicationStroop,2021.2.3,Win32,60.37553583,,,,,,,,,,,,,,,,,,,,,,,,,,,,,,,,,10,1.7318,1,0,8,8,10,1,2,×,5,2 × 5,congruent,smallerFirst,1,2,10,,,,,,,,
,,,,,,,,,,,,,,,696,2022-01-31_19h59.17.477,multiplicationStroop,2021.2.3,Win32,60.37553583,,,,,,,,,,,,,,,,,,,,,,,,,,,,,,,,,56,3.9146,1,0,9,9,22,1,8,×,7,8 × 7,congruent,largerFirst,2,1,56,,,,,,,,
,,,,,,,,,,,,,,,696,2022-01-31_19h59.17.477,multiplicationStroop,2021.2.3,Win32,60.37553583,,,,,,,,,,,,,,,,,,,,,,,,,,,,,,,,,40,2.2674,1,0,10,10,20,1,8,×,5,8 × 5,congruent,largerFirst,2,1,40,,,,,,,,
,,,,,,,,,,,,,,,696,2022-01-31_19h59.17.477,multiplicationStroop,2021.2.3,Win32,60.37553583,,,,,,,,,,,,,,,,,,,,,,,,,,,,,,,,,4,1.5325,1,0,11,11,28,1,2,×,2,2 × 2,neutral,tie,1,2,4,,,,,,,,
,,,,,,,,,,,,,,,696,2022-01-31_19h59.17.477,multiplicationStroop,2021.2.3,Win32,60.37553583,,,,,,,,,,,,,,,,,,,,,,,,,,,,,,,,,24,2.531,1,0,12,12,24,1,8,×,3,8 × 3,congruent,largerFirst,2,1,24,,,,,,,,
,,,,,,,,,,,,,,,696,2022-01-31_19h59.17.477,multiplicationStroop,2021.2.3,Win32,60.37553583,,,,,,,,,,,,,,,,,,,,,,,,,,,,,,,,,21,1.7152,1,0,13,13,2,1,3,×,7,3 × 7,congruent,smallerFirst,1,2,21,,,,,,,,
,,,,,,,,,,,,,,,696,2022-01-31_19h59.17.477,multiplicationStroop,2021.2.3,Win32,60.37553583,,,,,,,,,,,,,,,,,,,,,,,,,,,,,,,,,72,2.7315,1,0,14,14,3,1,8,×,9,8 × 9,congruent,smallerFirst,1,2,72,,,,,,,,
,,,,,,,,,,,,,,,696,2022-01-31_19h59.17.477,multiplicationStroop,2021.2.3,Win32,60.37553583,,,,,,,,,,,,,,,,,,,,,,,,,,,,,,,,,30,2.7485,1,0,15,15,1,1,5,×,6,5 × 6,congruent,smallerFirst,1,2,30,,,,,,,,
,,,,,,,,,,,,,,,696,2022-01-31_19h59.17.477,multiplicationStroop,2021.2.3,Win32,60.37553583,,,,,,,,,,,,,,,,,,,,,,,,,,,,,,,,,45,1.9818,1,0,16,16,9,1,5,×,9,5 × 9,congruent,smallerFirst,1,2,45,,,,,,,,
,,,,,,,,,,,,,,,696,2022-01-31_19h59.17.477,multiplicationStroop,2021.2.3,Win32,60.37553583,,,,,,,,,,,,,,,,,,,,,,,,,,,,,,,,,12,1.4649,1,0,17,17,16,1,4,×,3,4 × 3,congruent,largerFirst,2,1,12,,,,,,,,
,,,,,,,,,,,,,,,696,2022-01-31_19h59.17.477,multiplicationStroop,2021.2.3,Win32,60.37553583,,,,,,,,,,,,,,,,,,,,,,,,,,,,,,,,,64,2.315,1,0,18,18,34,1,8,×,8,8 × 8,neutral,tie,1,2,64,,,,,,,,
,,,,,,,,,,,,,,,696,2022-01-31_19h59.17.477,multiplicationStroop,2021.2.3,Win32,60.37553583,,,,,,,,,,,,,,,,,,,,,,,,,,,,,,,,,81,2.3142,1,0,19,19,35,1,9,×,9,9 × 9,neutral,tie,1,2,81,,,,,,,,
,,,,,,,,,,,,,,,696,2022-01-31_19h59.17.477,multiplicationStroop,2021.2.3,Win32,60.37553583,,,,,,,,,,,,,,,,,,,,,,,,,,,,,,,,,27,2.7146,1,0,20,20,12,1,3,×,9,3 × 9,congruent,smallerFirst,1,2,27,,,,,,,,
,,,,,,,,,,,,,,,696,2022-01-31_19h59.17.477,multiplicationStroop,2021.2.3,Win32,60.37553583,,,,,,,,,,,,,,,,,,,,,,,,,,,,,,,,,12,1.7232,1,0,21,21,5,1,2,×,6,2 × 6,congruent,smallerFirst,1,2,12,,,,,,,,
,,,,,,,,,,,,,,,696,2022-01-31_19h59.17.477,multiplicationStroop,2021.2.3,Win32,60.37553583,,,,,,,,,,,,,,,,,,,,,,,,,,,,,,,,,54,3.9472,1,0,22,22,26,1,9,×,6,9 × 6,congruent,largerFirst,2,1,54,,,,,,,,
,,,,,,,,,,,,,,,696,2022-01-31_19h59.17.477,multiplicationStroop,2021.2.3,Win32,60.37553583,,,,,,,,,,,,,,,,,,,,,,,,,,,,,,,,,14,3.0675,1,0,23,23,0,1,2,×,7,2 × 7,congruent,smallerFirst,1,2,14,,,,,,,,
,,,,,,,,,,,,,,,696,2022-01-31_19h59.17.477,multiplicationStroop,2021.2.3,Win32,60.37553583,,,,,,,,,,,,,,,,,,,,,,,,,,,,,,,,,25,2.1483,1,0,24,24,31,1,5,×,5,5 × 5,neutral,tie,1,2,25,,,,,,,,
,,,,,,,,,,,,,,,696,2022-01-31_19h59.17.477,multiplicationStroop,2021.2.3,Win32,60.37553583,,,,,,,,,,,,,,,,,,,,,,,,,,,,,,,,,20,1.8152,1,0,25,25,21,1,5,×,4,5 × 4,congruent,largerFirst,2,1,20,,,,,,,,
,,,,,,,,,,,,,,,696,2022-01-31_19h59.17.477,multiplicationStroop,2021.2.3,Win32,60.37553583,,,,,,,,,,,,,,,,,,,,,,,,,,,,,,,,,8,1.5654,1,0,26,26,23,1,4,×,2,4 × 2,congruent,largerFirst,2,1,8,,,,,,,,
,,,,,,,,,,,,,,,696,2022-01-31_19h59.17.477,multiplicationStroop,2021.2.3,Win32,60.37553583,,,,,,,,,,,,,,,,,,,,,,,,,,,,,,,,,16,1.9152,1,0,27,27,30,1,4,×,4,4 × 4,neutral,tie,1,2,16,,,,,,,,
,,,,,,,,,,,,,,,696,2022-01-31_19h59.17.477,multiplicationStroop,2021.2.3,Win32,60.37553583,,,,,,,,,,,,,,,,,,,,,,,,,,,,,,,,,15,1.9984,1,0,28,28,18,1,5,×,3,5 × 3,congruent,largerFirst,2,1,15,,,,,,,,
,,,,,,,,,,,,,,,696,2022-01-31_19h59.17.477,multiplicationStroop,2021.2.3,Win32,60.37553583,,,,,,,,,,,,,,,,,,,,,,,,,,,,,,,,,36,1.9317,1,0,29,29,14,1,9,×,4,9 × 4,congruent,largerFirst,2,1,36,,,,,,,,
,,,,,,,,,,,,,,,696,2022-01-31_19h59.17.477,multiplicationStroop,2021.2.3,Win32,60.37553583,,,,,,,,,,,,,,,,,,,,,,,,,,,,,,,,,24,1.8321,1,0,30,30,11,1,4,×,6,4 × 6,congruent,smallerFirst,1,2,24,,,,,,,,
,,,,,,,,,,,,,,,696,2022-01-31_19h59.17.477,multiplicationStroop,2021.2.3,Win32,60.37553583,,,,,,,,,,,,,,,,,,,,,,,,,,,,,,,,,28,2.7983,1,0,31,31,13,1,4,×,7,4 × 7,congruent,smallerFirst,1,2,28,,,,,,,,
,,,,,,,,,,,,,,,696,2022-01-31_19h59.17.477,multiplicationStroop,2021.2.3,Win32,60.37553583,,,,,,,,,,,,,,,,,,,,,,,,,,,,,,,,,32,1.998,1,0,32,32,6,1,4,×,8,4 × 8,congruent,smallerFirst,1,2,32,,,,,,,,
,,,,,,,,,,,,,,,696,2022-01-31_19h59.17.477,multiplicationStroop,2021.2.3,Win32,60.37553583,,,,,,,,,,,,,,,,,,,,,,,,,,,,,,,,,6,1.7485,1,0,33,33,27,1,3,×,2,3 × 2,congruent,largerFirst,2,1,6,,,,,,,,
,,,,,,,,,,,,,,,696,2022-01-31_19h59.17.477,multiplicationStroop,2021.2.3,Win32,60.37553583,,,,,,,,,,,,,,,,,,,,,,,,,,,,,,,,,9,2.1984,1,0,34,34,29,1,3,×,3,3 × 3,neutral,tie,1,2,9,,,,,,,,
,,,,,,,,,,,,,,,696,2022-01-31_19h59.17.477,multiplicationStroop,2021.2.3,Win32,60.37553583,,,,,,,,,,,,,,,,,,,,,,,,,,,,,,,,,16,2.0983,1,0,35,35,19,1,8,×,2,8 × 2,congruent,largerFirst,2,1,16,,,,,,,,
,,,,,,,,,,,,,,,696,2022-01-31_19h59.17.477,multiplicationStroop,2021.2.3,Win32,60.37553583,,,,,,,,,,,,,,,,,,,,,,,,,,,,,,,,,,,,,,,,,,,,,,,,,,0,1,1,3,1,stimulusFile/mult_blk4_congruent.xlsx,,
,,,,,,,,,,,,,,,696,2022-01-31_19h59.17.477,multiplicationStroop,2021.2.3,Win32,60.37553583,,,,,,,,,,,,,,,,,,,,,,,,,,,,,,,space,3.5676,15,1.563,1,0,0,0,4,1,3,×,5,3 × 5,congruent,smallerFirst,1,2,15,,,,,,,,
,,,,,,,,,,,,,,,696,2022-01-31_19h59.17.477,multiplicationStroop,2021.2.3,Win32,60.37553583,,,,,,,,,,,,,,,,,,,,,,,,,,,,,,,,,36,2.5151,1,0,1,1,0,1,4,×,9,4 × 9,congruent,smallerFirst,1,2,36,,,,,,,,
,,,,,,,,,,,,,,,696,2022-01-31_19h59.17.477,multiplicationStroop,2021.2.3,Win32,60.37553583,,,,,,,,,,,,,,,,,,,,,,,,,,,,,,,,,12,1.3657,1,0,2,2,2,1,3,×,4,3 × 4,congruent,smallerFirst,1,2,12,,,,,,,,
,,,,,,,,,,,,,,,696,2022-01-31_19h59.17.477,multiplicationStroop,2021.2.3,Win32,60.37553583,,,,,,,,,,,,,,,,,,,,,,,,,,,,,,,,,36,1.9989,1,0,3,3,32,1,6,×,6,6 × 6,neutral,tie,2,1,36,,,,,,,,
,,,,,,,,,,,,,,,696,2022-01-31_19h59.17.477,multiplicationStroop,2021.2.3,Win32,60.37553583,,,,,,,,,,,,,,,,,,,,,,,,,,,,,,,,,64,2.4482,1,0,4,4,34,1,8,×,8,8 × 8,neutral,tie,2,1,64,,,,,,,,
,,,,,,,,,,,,,,,696,2022-01-31_19h59.17.477,multiplicationStroop,2021.2.3,Win32,60.37553583,,,,,,,,,,,,,,,,,,,,,,,,,,,,,,,,,25,1.5491,1,0,5,5,31,1,5,×,5,5 × 5,neutral,tie,2,1,25,,,,,,,,
,,,,,,,,,,,,,,,696,2022-01-31_19h59.17.477,multiplicationStroop,2021.2.3,Win32,60.37553583,,,,,,,,,,,,,,,,,,,,,,,,,,,,,,,,,48,3.4815,1,0,6,6,18,1,8,×,6,8 × 6,congruent,largerFirst,2,1,48,,,,,,,,
,,,,,,,,,,,,,,,696,2022-01-31_19h59.17.477,multiplicationStroop,2021.2.3,Win32,60.37553583,,,,,,,,,,,,,,,,,,,,,,,,,,,,,,,,,6,1.632,1,0,7,7,13,1,2,×,3,2 × 3,congruent,smallerFirst,1,2,6,,,,,,,,
,,,,,,,,,,,,,,,696,2022-01-31_19h59.17.477,multiplicationStroop,2021.2.3,Win32,60.37553583,,,,,,,,,,,,,,,,,,,,,,,,,,,,,,,,,18,2.0821,1,0,8,8,22,1,9,×,2,9 × 2,congruent,largerFirst,2,1,18,,,,,,,,
,,,,,,,,,,,,,,,696,2022-01-31_19h59.17.477,multiplicationStroop,2021.2.3,Win32,60.37553583,,,,,,,,,,,,,,,,,,,,,,,,,,,,,,,,,20,1.9654,1,0,9,9,7,1,4,×,5,4 × 5,congruent,smallerFirst,1,2,20,,,,,,,,
,,,,,,,,,,,,,,,696,2022-01-31_19h59.17.477,multiplicationStroop,2021.2.3,Win32,60.37553583,,,,,,,,,,,,,,,,,,,,,,,,,,,,,,,,,14,2.2319,1,0,10,10,14,1,7,×,2,7 × 2,congruent,largerFirst,2,1,14,,,,,,,,
,,,,,,,,,,,,,,,696,2022-01-31_19h59.17.477,multiplicationStroop,2021.2.3,Win32,60.37553583,,,,,,,,,,,,,,,,,,,,,,,,,,,,,,,,,24,1.7821,1,0,11,11,25,1,6,×,4,6 × 4,congruent,largerFirst,2,1,24,,,,,,,,
,,,,,,,,,,,,,,,696,2022-01-31_19h59.17.477,multiplicationStroop,2021.2.3,Win32,60.37553583,,,,,,,,,,,,,,,,,,,,,,,,,,,,,,,,,72,2.2651,1,0,12,12,17,1,9,×,8,9 × 8,congruent,largerFirst,2,1,72,,,,,,,,
,,,,,,,,,,,,,,,696,2022-01-31_19h59.17.477,multiplicationStroop,2021.2.3,Win32,60.37553583,,,,,,,,,,,,,,,,,,,,,,,,,,,,,,,,,32,3.2983,1,0,13,13,20,1,8,×,4,8 × 4,congruent,largerFirst,2,1,32,,,,,,,,
,,,,,,,,,,,,,,,696,2022-01-31_19h59.17.477,multiplicationStroop,2021.2.3,Win32,60.37553583,,,,,,,,,,,,,,,,,,,,,,,,,,,,,,,,,24,1.6849,1,0,14,14,10,1,3,×,8,3 × 8,congruent,smallerFirst,1,2,24,,,,,,,,
,,,,,,,,,,,,,,,696,2022-01-31_19h59.17.477,multiplicationStroop,2021.2.3,Win32,60.37553583,,,,,,,,,,,,,,,,,,,,,,,,,,,,,,,,,12,1.2988,1,0,15,15,19,1,6,×,2,6 × 2,congruent,largerFirst,2,1,12,,,,,,,,
,,,,,,,,,,,,,,,696,2022-01-31_19h59.17.477,multiplicationStroop,2021.2.3,Win32,60.37553583,,,,,,,,,,,,,,,,,,,,,,,,,,,,,,,,,21,1.4991,1,0,16,16,16,1,7,×,3,7 × 3,congruent,largerFirst,2,1,21,,,,,,,,
,,,,,,,,,,,,,,,696,2022-01-31_19h59.17.477,multiplicationStroop,2021.2.3,Win32,60.37553583,,,,,,,,,,,,,,,,,,,,,,,,,,,,,,,,,56,16.7763,1,0,17,17,8,1,7,×,8,7 × 8,congruent,smallerFirst,1,2,56,,,,,,,,
,,,,,,,,,,,,,,,696,2022-01-31_19h59.17.477,multiplicationStroop,2021.2.3,Win32,60.37553583,,,,,,,,,,,,,,,,,,,,,,,,,,,,,,,,,45,2.4342,1,0,18,18,23,1,9,×,5,9 × 5,congruent,largerFirst,2,1,45,,,,,,,,
,,,,,,,,,,,,,,,696,2022-01-31_19h59.17.477,multiplicationStroop,2021.2.3,Win32,60.37553583,,,,,,,,,,,,,,,,,,,,,,,,,,,,,,,,,49,2.565,1,0,19,19,33,1,7,×,7,7 × 7,neutral,tie,2,1,49,,,,,,,,
,,,,,,,,,,,,,,,696,2022-01-31_19h59.17.477,multiplicationStroop,2021.2.3,Win32,60.37553583,,,,,,,,,,,,,,,,,,,,,,,,,,,,,,,,,16,1.8154,1,0,20,20,30,1,4,×,4,4 × 4,neutral,tie,2,1,16,,,,,,,,
,,,,,,,,,,,,,,,696,2022-01-31_19h59.17.477,multiplicationStroop,2021.2.3,Win32,60.37553583,,,,,,,,,,,,,,,,,,,,,,,,,,,,,,,,,35,3.1651,1,0,21,21,1,1,5,×,7,5 × 7,congruent,smallerFirst,1,2,35,,,,,,,,
,,,,,,,,,,,,,,,696,2022-01-31_19h59.17.477,multiplicationStroop,2021.2.3,Win32,60.37553583,,,,,,,,,,,,,,,,,,,,,,,,,,,,,,,,,81,2.7485,1,0,22,22,35,1,9,×,9,9 × 9,neutral,tie,2,1,81,,,,,,,,
,,,,,,,,,,,,,,,696,2022-01-31_19h59.17.477,multiplicationStroop,2021.2.3,Win32,60.37553583,,,,,,,,,,,,,,,,,,,,,,,,,,,,,,,,,10,1.6018,1,0,23,23,24,1,5,×,2,5 × 2,congruent,largerFirst,2,1,10,,,,,,,,
,,,,,,,,,,,,,,,696,2022-01-31_19h59.17.477,multiplicationStroop,2021.2.3,Win32,60.37553583,,,,,,,,,,,,,,,,,,,,,,,,,,,,,,,,,16,1.6322,1,0,24,24,5,1,2,×,8,2 × 8,congruent,smallerFirst,1,2,16,,,,,,,,
,,,,,,,,,,,,,,,696,2022-01-31_19h59.17.477,multiplicationStroop,2021.2.3,Win32,60.37553583,,,,,,,,,,,,,,,,,,,,,,,,,,,,,,,,,28,2.7652,1,0,25,25,27,1,7,×,4,7 × 4,congruent,largerFirst,2,1,28,,,,,,,,
,,,,,,,,,,,,,,,696,2022-01-31_19h59.17.477,multiplicationStroop,2021.2.3,Win32,60.37553583,,,,,,,,,,,,,,,,,,,,,,,,,,,,,,,,,42,1.9346,1,0,26,26,3,1,6,×,7,6 × 7,congruent,smallerFirst,1,2,42,,,,,,,,
,,,,,,,,,,,,,,,696,2022-01-31_19h59.17.477,multiplicationStroop,2021.2.3,Win32,60.37553583,,,,,,,,,,,,,,,,,,,,,,,,,,,,,,,,,9,1.6658,1,0,27,27,29,1,3,×,3,3 × 3,neutral,tie,2,1,9,,,,,,,,
,,,,,,,,,,,,,,,696,2022-01-31_19h59.17.477,multiplicationStroop,2021.2.3,Win32,60.37553583,,,,,,,,,,,,,,,,,,,,,,,,,,,,,,,,,21,1.6988,0,0,28,28,26,1,9,×,3,9 × 3,congruent,largerFirst,2,1,27,,,,,,,,
,,,,,,,,,,,,,,,696,2022-01-31_19h59.17.477,multiplicationStroop,2021.2.3,Win32,60.37553583,,,,,,,,,,,,,,,,,,,,,,,,,,,,,,,,,40,3.5478,1,0,29,29,6,1,5,×,8,5 × 8,congruent,smallerFirst,1,2,40,,,,,,,,
,,,,,,,,,,,,,,,696,2022-01-31_19h59.17.477,multiplicationStroop,2021.2.3,Win32,60.37553583,,,,,,,,,,,,,,,,,,,,,,,,,,,,,,,,,4,1.6655,1,0,30,30,28,1,2,×,2,2 × 2,neutral,tie,2,1,4,,,,,,,,
,,,,,,,,,,,,,,,696,2022-01-31_19h59.17.477,multiplicationStroop,2021.2.3,Win32,60.37553583,,,,,,,,,,,,,,,,,,,,,,,,,,,,,,,,,8,1.7321,1,0,31,31,9,1,2,×,4,2 × 4,congruent,smallerFirst,1,2,8,,,,,,,,
,,,,,,,,,,,,,,,696,2022-01-31_19h59.17.477,multiplicationStroop,2021.2.3,Win32,60.37553583,,,,,,,,,,,,,,,,,,,,,,,,,,,,,,,,,54,3.8146,1,0,32,32,12,1,6,×,9,6 × 9,congruent,smallerFirst,1,2,54,,,,,,,,
,,,,,,,,,,,,,,,696,2022-01-31_19h59.17.477,multiplicationStroop,2021.2.3,Win32,60.37553583,,,,,,,,,,,,,,,,,,,,,,,,,,,,,,,,,63,2.4514,1,0,33,33,21,1,9,×,7,9 × 7,congruent,largerFirst,2,1,63,,,,,,,,
,,,,,,,,,,,,,,,696,2022-01-31_19h59.17.477,multiplicationStroop,2021.2.3,Win32,60.37553583,,,,,,,,,,,,,,,,,,,,,,,,,,,,,,,,,30,2.332,1,0,34,34,15,1,6,×,5,6 × 5,congruent,largerFirst,2,1,30,,,,,,,,
,,,,,,,,,,,,,,,696,2022-01-31_19h59.17.477,multiplicationStroop,2021.2.3,Win32,60.37553583,,,,,,,,,,,,,,,,,,,,,,,,,,,,,,,,,18,1.9489,1,0,35,35,11,1,3,×,6,3 × 6,congruent,smallerFirst,1,2,18,,,,,,,,
,,,,,,,,,,,,,,,696,2022-01-31_19h59.17.477,multiplicationStroop,2021.2.3,Win32,60.37553583,,,,,,,,,,,,,,,,,,,,,,,,,,,,,,,,,,,,,,,,,,,,,,,,,,0,2,2,2,1,stimulusFile/mult_blk3_congruent.xlsx,,
,,,,,,,,,,,,,,,696,2022-01-31_19h59.17.477,multiplicationStroop,2021.2.3,Win32,60.37553583,,,,,,,,,,,,,,,,,,,,,,,,,,,,,,,space,1.0025,81,1.7772,1,0,0,0,35,1,9,×,9,9 × 9,neutral,tie,1.5,1.5,81,,,,,,,,
,,,,,,,,,,,,,,,696,2022-01-31_19h59.17.477,multiplicationStroop,2021.2.3,Win32,60.37553583,,,,,,,,,,,,,,,,,,,,,,,,,,,,,,,,,24,1.632,1,0,1,1,2,1,4,×,6,4 × 6,neutral,smallerFirst,1.5,1.5,24,,,,,,,,
,,,,,,,,,,,,,,,696,2022-01-31_19h59.17.477,multiplicationStroop,2021.2.3,Win32,60.37553583,,,,,,,,,,,,,,,,,,,,,,,,,,,,,,,,,30,1.6652,1,0,2,2,19,1,6,×,5,6 × 5,neutral,largerFirst,1.5,1.5,30,,,,,,,,
,,,,,,,,,,,,,,,696,2022-01-31_19h59.17.477,multiplicationStroop,2021.2.3,Win32,60.37553583,,,,,,,,,,,,,,,,,,,,,,,,,,,,,,,,,10,1.465,1,0,3,3,4,1,2,×,5,2 × 5,neutral,smallerFirst,1.5,1.5,10,,,,,,,,
,,,,,,,,,,,,,,,696,2022-01-31_19h59.17.477,multiplicationStroop,2021.2.3,Win32,60.37553583,,,,,,,,,,,,,,,,,,,,,,,,,,,,,,,,,64,2.3317,1,0,4,4,34,1,8,×,8,8 × 8,neutral,tie,1.5,1.5,64,,,,,,,,
,,,,,,,,,,,,,,,696,2022-01-31_19h59.17.477,multiplicationStroop,2021.2.3,Win32,60.37553583,,,,,,,,,,,,,,,,,,,,,,,,,,,,,,,,,4,1.6158,1,0,5,5,28,1,2,×,2,2 × 2,neutral,tie,1.5,1.5,4,,,,,,,,
,,,,,,,,,,,,,,,696,2022-01-31_19h59.17.477,multiplicationStroop,2021.2.3,Win32,60.37553583,,,,,,,,,,,,,,,,,,,,,,,,,,,,,,,,,72,2.1477,1,0,6,6,11,1,8,×,9,8 × 9,neutral,smallerFirst,1.5,1.5,72,,,,,,,,
,,,,,,,,,,,,,,,696,2022-01-31_19h59.17.477,multiplicationStroop,2021.2.3,Win32,60.37553583,,,,,,,,,,,,,,,,,,,,,,,,,,,,,,,,,49,3.3977,1,0,7,7,33,1,7,×,7,7 × 7,neutral,tie,1.5,1.5,49,,,,,,,,
,,,,,,,,,,,,,,,696,2022-01-31_19h59.17.477,multiplicationStroop,2021.2.3,Win32,60.37553583,,,,,,,,,,,,,,,,,,,,,,,,,,,,,,,,,28,2.168,1,0,8,8,17,1,7,×,4,7 × 4,neutral,largerFirst,1.5,1.5,28,,,,,,,,
,,,,,,,,,,,,,,,696,2022-01-31_19h59.17.477,multiplicationStroop,2021.2.3,Win32,60.37553583,,,,,,,,,,,,,,,,,,,,,,,,,,,,,,,,,14,1.3832,1,0,9,9,16,1,7,×,2,7 × 2,neutral,largerFirst,1.5,1.5,14,,,,,,,,
,,,,,,,,,,,,,,,696,2022-01-31_19h59.17.477,multiplicationStroop,2021.2.3,Win32,60.37553583,,,,,,,,,,,,,,,,,,,,,,,,,,,,,,,,,15,1.481,1,0,10,10,5,1,3,×,5,3 × 5,neutral,smallerFirst,1.5,1.5,15,,,,,,,,
,,,,,,,,,,,,,,,696,2022-01-31_19h59.17.477,multiplicationStroop,2021.2.3,Win32,60.37553583,,,,,,,,,,,,,,,,,,,,,,,,,,,,,,,,,16,2.3151,1,0,11,11,13,1,2,×,8,2 × 8,neutral,smallerFirst,1.5,1.5,16,,,,,,,,
,,,,,,,,,,,,,,,696,2022-01-31_19h59.17.477,multiplicationStroop,2021.2.3,Win32,60.37553583,,,,,,,,,,,,,,,,,,,,,,,,,,,,,,,,,35,2.898,1,0,12,12,1,1,5,×,7,5 × 7,neutral,smallerFirst,1.5,1.5,35,,,,,,,,
,,,,,,,,,,,,,,,696,2022-01-31_19h59.17.477,multiplicationStroop,2021.2.3,Win32,60.37553583,,,,,,,,,,,,,,,,,,,,,,,,,,,,,,,,,18,1.5849,1,0,13,13,0,1,3,×,6,3 × 6,neutral,smallerFirst,1.5,1.5,18,,,,,,,,
,,,,,,,,,,,,,,,696,2022-01-31_19h59.17.477,multiplicationStroop,2021.2.3,Win32,60.37553583,,,,,,,,,,,,,,,,,,,,,,,,,,,,,,,,,18,3.0982,1,0,14,14,18,1,9,×,2,9 × 2,neutral,largerFirst,1.5,1.5,18,,,,,,,,
,,,,,,,,,,,,,,,696,2022-01-31_19h59.17.477,multiplicationStroop,2021.2.3,Win32,60.37553583,,,,,,,,,,,,,,,,,,,,,,,,,,,,,,,,,9,1.6986,1,0,15,15,29,1,3,×,3,3 × 3,neutral,tie,1.5,1.5,9,,,,,,,,
,,,,,,,,,,,,,,,696,2022-01-31_19h59.17.477,multiplicationStroop,2021.2.3,Win32,60.37553583,,,,,,,,,,,,,,,,,,,,,,,,,,,,,,,,,48,2.0317,1,0,16,16,15,1,8,×,6,8 × 6,neutral,largerFirst,1.5,1.5,48,,,,,,,,
,,,,,,,,,,,,,,,696,2022-01-31_19h59.17.477,multiplicationStroop,2021.2.3,Win32,60.37553583,,,,,,,,,,,,,,,,,,,,,,,,,,,,,,,,,36,2.132,1,0,17,17,27,1,9,×,4,9 × 4,neutral,largerFirst,1.5,1.5,36,,,,,,,,
,,,,,,,,,,,,,,,696,2022-01-31_19h59.17.477,multiplicationStroop,2021.2.3,Win32,60.37553583,,,,,,,,,,,,,,,,,,,,,,,,,,,,,,,,,40,1.7982,1,0,18,18,24,1,8,×,5,8 × 5,neutral,largerFirst,1.5,1.5,40,,,,,,,,
,,,,,,,,,,,,,,,696,2022-01-31_19h59.17.477,multiplicationStroop,2021.2.3,Win32,60.37553583,,,,,,,,,,,,,,,,,,,,,,,,,,,,,,,,,45,1.9317,1,0,19,19,10,1,5,×,9,5 × 9,neutral,smallerFirst,1.5,1.5,45,,,,,,,,
,,,,,,,,,,,,,,,696,2022-01-31_19h59.17.477,multiplicationStroop,2021.2.3,Win32,60.37553583,,,,,,,,,,,,,,,,,,,,,,,,,,,,,,,,,27,2.9648,1,0,20,20,14,1,9,×,3,9 × 3,neutral,largerFirst,1.5,1.5,27,,,,,,,,
,,,,,,,,,,,,,,,696,2022-01-31_19h59.17.477,multiplicationStroop,2021.2.3,Win32,60.37553583,,,,,,,,,,,,,,,,,,,,,,,,,,,,,,,,,24,1.6021,1,0,21,21,22,1,8,×,3,8 × 3,neutral,largerFirst,1.5,1.5,24,,,,,,,,
,,,,,,,,,,,,,,,696,2022-01-31_19h59.17.477,multiplicationStroop,2021.2.3,Win32,60.37553583,,,,,,,,,,,,,,,,,,,,,,,,,,,,,,,,,42,2.012,1,0,22,22,6,1,6,×,7,6 × 7,neutral,smallerFirst,1.5,1.5,42,,,,,,,,
,,,,,,,,,,,,,,,696,2022-01-31_19h59.17.477,multiplicationStroop,2021.2.3,Win32,60.37553583,,,,,,,,,,,,,,,,,,,,,,,,,,,,,,,,,12,1.9316,1,0,23,23,25,1,6,×,2,6 × 2,neutral,largerFirst,1.5,1.5,12,,,,,,,,
,,,,,,,,,,,,,,,696,2022-01-31_19h59.17.477,multiplicationStroop,2021.2.3,Win32,60.37553583,,,,,,,,,,,,,,,,,,,,,,,,,,,,,,,,,21,1.6526,1,0,24,24,8,1,3,×,7,3 × 7,neutral,smallerFirst,1.5,1.5,21,,,,,,,,
,,,,,,,,,,,,,,,696,2022-01-31_19h59.17.477,multiplicationStroop,2021.2.3,Win32,60.37553583,,,,,,,,,,,,,,,,,,,,,,,,,,,,,,,,,12,1.4786,1,0,25,25,21,1,4,×,3,4 × 3,neutral,largerFirst,1.5,1.5,12,,,,,,,,
,,,,,,,,,,,,,,,696,2022-01-31_19h59.17.477,multiplicationStroop,2021.2.3,Win32,60.37553583,,,,,,,,,,,,,,,,,,,,,,,,,,,,,,,,,32,2.9807,1,0,26,26,23,1,8,×,4,8 × 4,neutral,largerFirst,1.5,1.5,32,,,,,,,,
,,,,,,,,,,,,,,,696,2022-01-31_19h59.17.477,multiplicationStroop,2021.2.3,Win32,60.37553583,,,,,,,,,,,,,,,,,,,,,,,,,,,,,,,,,56,2.2151,1,0,27,27,9,1,7,×,8,7 × 8,neutral,smallerFirst,1.5,1.5,56,,,,,,,,
,,,,,,,,,,,,,,,696,2022-01-31_19h59.17.477,multiplicationStroop,2021.2.3,Win32,60.37553583,,,,,,,,,,,,,,,,,,,,,,,,,,,,,,,,,25,1.5317,1,0,28,28,31,1,5,×,5,5 × 5,neutral,tie,1.5,1.5,25,,,,,,,,
,,,,,,,,,,,,,,,696,2022-01-31_19h59.17.477,multiplicationStroop,2021.2.3,Win32,60.37553583,,,,,,,,,,,,,,,,,,,,,,,,,,,,,,,,,8,1.5991,1,0,29,29,3,1,2,×,4,2 × 4,neutral,smallerFirst,1.5,1.5,8,,,,,,,,
,,,,,,,,,,,,,,,696,2022-01-31_19h59.17.477,multiplicationStroop,2021.2.3,Win32,60.37553583,,,,,,,,,,,,,,,,,,,,,,,,,,,,,,,,,63,2.6486,1,0,30,30,12,1,7,×,9,7 × 9,neutral,smallerFirst,1.5,1.5,63,,,,,,,,
,,,,,,,,,,,,,,,696,2022-01-31_19h59.17.477,multiplicationStroop,2021.2.3,Win32,60.37553583,,,,,,,,,,,,,,,,,,,,,,,,,,,,,,,,,6,1.7314,1,0,31,31,26,1,3,×,2,3 × 2,neutral,largerFirst,1.5,1.5,6,,,,,,,,
,,,,,,,,,,,,,,,696,2022-01-31_19h59.17.477,multiplicationStroop,2021.2.3,Win32,60.37553583,,,,,,,,,,,,,,,,,,,,,,,,,,,,,,,,,16,1.5983,1,0,32,32,30,1,4,×,4,4 × 4,neutral,tie,1.5,1.5,16,,,,,,,,
,,,,,,,,,,,,,,,696,2022-01-31_19h59.17.477,multiplicationStroop,2021.2.3,Win32,60.37553583,,,,,,,,,,,,,,,,,,,,,,,,,,,,,,,,,54,3.3979,1,0,33,33,7,1,6,×,9,6 × 9,neutral,smallerFirst,1.5,1.5,54,,,,,,,,
,,,,,,,,,,,,,,,696,2022-01-31_19h59.17.477,multiplicationStroop,2021.2.3,Win32,60.37553583,,,,,,,,,,,,,,,,,,,,,,,,,,,,,,,,,36,1.785,1,0,34,34,32,1,6,×,6,6 × 6,neutral,tie,1.5,1.5,36,,,,,,,,
,,,,,,,,,,,,,,,696,2022-01-31_19h59.17.477,multiplicationStroop,2021.2.3,Win32,60.37553583,,,,,,,,,,,,,,,,,,,,,,,,,,,,,,,,,20,1.6817,1,0,35,35,20,1,5,×,4,5 × 4,neutral,largerFirst,1.5,1.5,20,,,,,,,,
,,,,,,,,,,,,,,,696,2022-01-31_19h59.17.477,multiplicationStroop,2021.2.3,Win32,60.37553583,,,,,,,,,,,,,,,,,,,,,,,,,,,,,,,,,,,,,,,,,,,,,,,,,,0,3,3,1,1,stimulusFile/mult_blk2.xlsx,,
,,,,,,,,,,,,,,,696,2022-01-31_19h59.17.477,multiplicationStroop,2021.2.3,Win32,60.37553583,,,,,,,,,,,,,,,,,,,,,,,,,,,,,,,space,1.0077,30,1.9211,1,0,0,0,11,1,5,×,6,5 × 6,incongruent,smallerFirst,2,1,30,,,,,,,,
,,,,,,,,,,,,,,,696,2022-01-31_19h59.17.477,multiplicationStroop,2021.2.3,Win32,60.37553583,,,,,,,,,,,,,,,,,,,,,,,,,,,,,,,,,12,1.299,1,0,1,1,19,1,4,×,3,4 × 3,incongruent,largerFirst,1,2,12,,,,,,,,
,,,,,,,,,,,,,,,696,2022-01-31_19h59.17.477,multiplicationStroop,2021.2.3,Win32,60.37553583,,,,,,,,,,,,,,,,,,,,,,,,,,,,,,,,,16,2.1486,1,0,2,2,9,1,2,×,8,2 × 8,incongruent,smallerFirst,2,1,16,,,,,,,,
,,,,,,,,,,,,,,,696,2022-01-31_19h59.17.477,multiplicationStroop,2021.2.3,Win32,60.37553583,,,,,,,,,,,,,,,,,,,,,,,,,,,,,,,,,48,2.2153,1,0,3,3,15,1,8,×,6,8 × 6,incongruent,largerFirst,1,2,48,,,,,,,,
,,,,,,,,,,,,,,,696,2022-01-31_19h59.17.477,multiplicationStroop,2021.2.3,Win32,60.37553583,,,,,,,,,,,,,,,,,,,,,,,,,,,,,,,,,27,1.9486,1,0,4,4,4,1,3,×,9,3 × 9,incongruent,smallerFirst,2,1,27,,,,,,,,
,,,,,,,,,,,,,,,696,2022-01-31_19h59.17.477,multiplicationStroop,2021.2.3,Win32,60.37553583,,,,,,,,,,,,,,,,,,,,,,,,,,,,,,,,,18,1.6824,1,0,5,5,16,1,9,×,2,9 × 2,incongruent,largerFirst,1,2,18,,,,,,,,
,,,,,,,,,,,,,,,696,2022-01-31_19h59.17.477,multiplicationStroop,2021.2.3,Win32,60.37553583,,,,,,,,,,,,,,,,,,,,,,,,,,,,,,,,,36,1.8153,1,0,6,6,32,1,6,×,6,6 × 6,neutral,tie,2,1,36,,,,,,,,
,,,,,,,,,,,,,,,696,2022-01-31_19h59.17.477,multiplicationStroop,2021.2.3,Win32,60.37553583,,,,,,,,,,,,,,,,,,,,,,,,,,,,,,,,,72,2.6318,1,0,7,7,14,1,9,×,8,9 × 8,incongruent,largerFirst,1,2,72,,,,,,,,
,,,,,,,,,,,,,,,696,2022-01-31_19h59.17.477,multiplicationStroop,2021.2.3,Win32,60.37553583,,,,,,,,,,,,,,,,,,,,,,,,,,,,,,,,,6,1.6516,1,0,8,8,25,1,3,×,2,3 × 2,incongruent,largerFirst,1,2,6,,,,,,,,
,,,,,,,,,,,,,,,696,2022-01-31_19h59.17.477,multiplicationStroop,2021.2.3,Win32,60.37553583,,,,,,,,,,,,,,,,,,,,,,,,,,,,,,,,,10,1.8818,1,0,9,9,7,1,2,×,5,2 × 5,incongruent,smallerFirst,2,1,10,,,,,,,,
,,,,,,,,,,,,,,,696,2022-01-31_19h59.17.477,multiplicationStroop,2021.2.3,Win32,60.37553583,,,,,,,,,,,,,,,,,,,,,,,,,,,,,,,,,32,2.8817,1,0,10,10,21,1,8,×,4,8 × 4,incongruent,largerFirst,1,2,32,,,,,,,,
,,,,,,,,,,,,,,,696,2022-01-31_19h59.17.477,multiplicationStroop,2021.2.3,Win32,60.37553583,,,,,,,,,,,,,,,,,,,,,,,,,,,,,,,,,21,2.1985,1,0,11,11,12,1,3,×,7,3 × 7,incongruent,smallerFirst,2,1,21,,,,,,,,
,,,,,,,,,,,,,,,696,2022-01-31_19h59.17.477,multiplicationStroop,2021.2.3,Win32,60.37553583,,,,,,,,,,,,,,,,,,,,,,,,,,,,,,,,,4,1.5489,1,0,12,12,28,1,2,×,2,2 × 2,neutral,tie,2,1,4,,,,,,,,
,,,,,,,,,,,,,,,696,2022-01-31_19h59.17.477,multiplicationStroop,2021.2.3,Win32,60.37553583,,,,,,,,,,,,,,,,,,,,,,,,,,,,,,,,,81,1.7822,1,0,13,13,35,1,9,×,9,9 × 9,neutral,tie,2,1,81,,,,,,,,
,,,,,,,,,,,,,,,696,2022-01-31_19h59.17.477,multiplicationStroop,2021.2.3,Win32,60.37553583,,,,,,,,,,,,,,,,,,,,,,,,,,,,,,,,,35,1.9821,1,0,14,14,26,1,7,×,5,7 × 5,incongruent,largerFirst,1,2,35,,,,,,,,
,,,,,,,,,,,,,,,696,2022-01-31_19h59.17.477,multiplicationStroop,2021.2.3,Win32,60.37553583,,,,,,,,,,,,,,,,,,,,,,,,,,,,,,,,,14,1.499,1,0,15,15,18,1,7,×,2,7 × 2,incongruent,largerFirst,1,2,14,,,,,,,,
,,,,,,,,,,,,,,,696,2022-01-31_19h59.17.477,multiplicationStroop,2021.2.3,Win32,60.37553583,,,,,,,,,,,,,,,,,,,,,,,,,,,,,,,,,18,1.6153,1,0,16,16,22,1,6,×,3,6 × 3,incongruent,largerFirst,1,2,18,,,,,,,,
,,,,,,,,,,,,,,,696,2022-01-31_19h59.17.477,multiplicationStroop,2021.2.3,Win32,60.37553583,,,,,,,,,,,,,,,,,,,,,,,,,,,,,,,,,20,2.0319,1,0,17,17,13,1,4,×,5,4 × 5,incongruent,smallerFirst,2,1,20,,,,,,,,
,,,,,,,,,,,,,,,696,2022-01-31_19h59.17.477,multiplicationStroop,2021.2.3,Win32,60.37553583,,,,,,,,,,,,,,,,,,,,,,,,,,,,,,,,,54,2.965,1,0,18,18,20,1,9,×,6,9 × 6,incongruent,largerFirst,1,2,54,,,,,,,,
,,,,,,,,,,,,,,,696,2022-01-31_19h59.17.477,multiplicationStroop,2021.2.3,Win32,60.37553583,,,,,,,,,,,,,,,,,,,,,,,,,,,,,,,,,63,2.1848,1,0,19,19,17,1,9,×,7,9 × 7,incongruent,largerFirst,1,2,63,,,,,,,,
,,,,,,,,,,,,,,,696,2022-01-31_19h59.17.477,multiplicationStroop,2021.2.3,Win32,60.37553583,,,,,,,,,,,,,,,,,,,,,,,,,,,,,,,,,28,2.9147,1,0,20,20,2,1,4,×,7,4 × 7,incongruent,smallerFirst,2,1,28,,,,,,,,
,,,,,,,,,,,,,,,696,2022-01-31_19h59.17.477,multiplicationStroop,2021.2.3,Win32,60.37553583,,,,,,,,,,,,,,,,,,,,,,,,,,,,,,,,,45,1.9322,1,0,21,21,8,1,5,×,9,5 × 9,incongruent,smallerFirst,2,1,45,,,,,,,,
,,,,,,,,,,,,,,,696,2022-01-31_19h59.17.477,multiplicationStroop,2021.2.3,Win32,60.37553583,,,,,,,,,,,,,,,,,,,,,,,,,,,,,,,,,8,1.7988,1,0,22,22,10,1,2,×,4,2 × 4,incongruent,smallerFirst,2,1,8,,,,,,,,
,,,,,,,,,,,,,,,696,2022-01-31_19h59.17.477,multiplicationStroop,2021.2.3,Win32,60.37553583,,,,,,,,,,,,,,,,,,,,,,,,,,,,,,,,,15,1.4654,1,0,23,23,24,1,5,×,3,5 × 3,incongruent,largerFirst,1,2,15,,,,,,,,
,,,,,,,,,,,,,,,696,2022-01-31_19h59.17.477,multiplicationStroop,2021.2.3,Win32,60.37553583,,,,,,,,,,,,,,,,,,,,,,,,,,,,,,,,,24,2.0487,1,0,24,24,23,1,8,×,3,8 × 3,incongruent,largerFirst,1,2,24,,,,,,,,
,,,,,,,,,,,,,,,696,2022-01-31_19h59.17.477,multiplicationStroop,2021.2.3,Win32,60.37553583,,,,,,,,,,,,,,,,,,,,,,,,,,,,,,,,,49,3.6645,1,0,25,25,33,1,7,×,7,7 × 7,neutral,tie,2,1,49,,,,,,,,
,,,,,,,,,,,,,,,696,2022-01-31_19h59.17.477,multiplicationStroop,2021.2.3,Win32,60.37553583,,,,,,,,,,,,,,,,,,,,,,,,,,,,,,,,,24,2.8347,1,0,26,26,6,1,4,×,6,4 × 6,incongruent,smallerFirst,2,1,24,,,,,,,,
,,,,,,,,,,,,,,,696,2022-01-31_19h59.17.477,multiplicationStroop,2021.2.3,Win32,60.37553583,,,,,,,,,,,,,,,,,,,,,,,,,,,,,,,,,9,1.449,1,0,27,27,29,1,3,×,3,3 × 3,neutral,tie,2,1,9,,,,,,,,
,,,,,,,,,,,,,,,696,2022-01-31_19h59.17.477,multiplicationStroop,2021.2.3,Win32,60.37553583,,,,,,,,,,,,,,,,,,,,,,,,,,,,,,,,,40,1.9154,1,0,28,28,27,1,8,×,5,8 × 5,incongruent,largerFirst,1,2,40,,,,,,,,
,,,,,,,,,,,,,,,696,2022-01-31_19h59.17.477,multiplicationStroop,2021.2.3,Win32,60.37553583,,,,,,,,,,,,,,,,,,,,,,,,,,,,,,,,,56,2.282,1,0,29,29,0,1,7,×,8,7 × 8,incongruent,smallerFirst,2,1,56,,,,,,,,
,,,,,,,,,,,,,,,696,2022-01-31_19h59.17.477,multiplicationStroop,2021.2.3,Win32,60.37553583,,,,,,,,,,,,,,,,,,,,,,,,,,,,,,,,,36,2.3652,1,0,30,30,1,1,4,×,9,4 × 9,incongruent,smallerFirst,2,1,36,,,,,,,,
,,,,,,,,,,,,,,,696,2022-01-31_19h59.17.477,multiplicationStroop,2021.2.3,Win32,60.37553583,,,,,,,,,,,,,,,,,,,,,,,,,,,,,,,,,25,1.7656,1,0,31,31,31,1,5,×,5,5 × 5,neutral,tie,2,1,25,,,,,,,,
,,,,,,,,,,,,,,,696,2022-01-31_19h59.17.477,multiplicationStroop,2021.2.3,Win32,60.37553583,,,,,,,,,,,,,,,,,,,,,,,,,,,,,,,,,42,2.0985,1,0,32,32,3,1,6,×,7,6 × 7,incongruent,smallerFirst,2,1,42,,,,,,,,
,,,,,,,,,,,,,,,696,2022-01-31_19h59.17.477,multiplicationStroop,2021.2.3,Win32,60.37553583,,,,,,,,,,,,,,,,,,,,,,,,,,,,,,,,,64,2.2486,1,0,33,33,34,1,8,×,8,8 × 8,neutral,tie,2,1,64,,,,,,,,
,,,,,,,,,,,,,,,696,2022-01-31_19h59.17.477,multiplicationStroop,2021.2.3,Win32,60.37553583,,,,,,,,,,,,,,,,,,,,,,,,,,,,,,,,,12,1.3324,1,0,34,34,5,1,2,×,6,2 × 6,incongruent,smallerFirst,2,1,12,,,,,,,,
,,,,,,,,,,,,,,,696,2022-01-31_19h59.17.477,multiplicationStroop,2021.2.3,Win32,60.37553583,,,,,,,,,,,,,,,,,,,,,,,,,,,,,,,,,16,2.2817,1,0,35,35,30,1,4,×,4,4 × 4,neutral,tie,2,1,16,,,,,,,,
,,,,,,,,,,,,,,,696,2022-01-31_19h59.17.477,multiplicationStroop,2021.2.3,Win32,60.37553583,,,,,,,,,,,,,,,,,,,,,,,,,,,,,,,,,,,,,,,,,,,,,,,,,,0,4,4,4,1,stimulusFile/mult_blk5_INcongruent.xlsx,,
,,,,,,,,,,,,,,,696,2022-01-31_19h59.17.477,multiplicationStroop,2021.2.3,Win32,60.37553583,,,,,,,,,,,,,,,,,,,,,,,,,,,,,,,space,0.9215,28,1.7837,1,0,0,0,3,1,4,×,7,4 × 7,neutral,smallerFirst,1.5,1.5,28,,,,,,,,
,,,,,,,,,,,,,,,696,2022-01-31_19h59.17.477,multiplicationStroop,2021.2.3,Win32,60.37553583,,,,,,,,,,,,,,,,,,,,,,,,,,,,,,,,,81,1.6656,1,0,1,1,35,1,9,×,9,9 × 9,neutral,tie,1.5,1.5,81,,,,,,,,
,,,,,,,,,,,,,,,696,2022-01-31_19h59.17.477,multiplicationStroop,2021.2.3,Win32,60.37553583,,,,,,,,,,,,,,,,,,,,,,,,,,,,,,,,,49,2.0488,1,0,2,2,33,1,7,×,7,7 × 7,neutral,tie,1.5,1.5,49,,,,,,,,
,,,,,,,,,,,,,,,696,2022-01-31_19h59.17.477,multiplicationStroop,2021.2.3,Win32,60.37553583,,,,,,,,,,,,,,,,,,,,,,,,,,,,,,,,,12,1.2491,1,0,3,3,7,1,3,×,4,3 × 4,neutral,smallerFirst,1.5,1.5,12,,,,,,,,
,,,,,,,,,,,,,,,696,2022-01-31_19h59.17.477,multiplicationStroop,2021.2.3,Win32,60.37553583,,,,,,,,,,,,,,,,,,,,,,,,,,,,,,,,,32,1.6322,1,0,4,4,9,1,4,×,8,4 × 8,neutral,smallerFirst,1.5,1.5,32,,,,,,,,
,,,,,,,,,,,,,,,696,2022-01-31_19h59.17.477,multiplicationStroop,2021.2.3,Win32,60.37553583,,,,,,,,,,,,,,,,,,,,,,,,,,,,,,,,,48,2.4987,1,0,5,5,1,1,6,×,8,6 × 8,neutral,smallerFirst,1.5,1.5,48,,,,,,,,
,,,,,,,,,,,,,,,696,2022-01-31_19h59.17.477,multiplicationStroop,2021.2.3,Win32,60.37553583,,,,,,,,,,,,,,,,,,,,,,,,,,,,,,,,,14,1.482,1,0,6,6,2,1,2,×,7,2 × 7,neutral,smallerFirst,1.5,1.5,14,,,,,,,,
,,,,,,,,,,,,,,,696,2022-01-31_19h59.17.477,multiplicationStroop,2021.2.3,Win32,60.37553583,,,,,,,,,,,,,,,,,,,,,,,,,,,,,,,,,40,1.7824,1,0,7,7,10,1,5,×,8,5 × 8,neutral,smallerFirst,1.5,1.5,40,,,,,,,,
,,,,,,,,,,,,,,,696,2022-01-31_19h59.17.477,multiplicationStroop,2021.2.3,Win32,60.37553583,,,,,,,,,,,,,,,,,,,,,,,,,,,,,,,,,9,2.5983,1,0,8,8,29,1,3,×,3,3 × 3,neutral,tie,1.5,1.5,9,,,,,,,,
,,,,,,,,,,,,,,,696,2022-01-31_19h59.17.477,multiplicationStroop,2021.2.3,Win32,60.37553583,,,,,,,,,,,,,,,,,,,,,,,,,,,,,,,,,64,2.0655,1,0,9,9,34,1,8,×,8,8 × 8,neutral,tie,1.5,1.5,64,,,,,,,,
,,,,,,,,,,,,,,,696,2022-01-31_19h59.17.477,multiplicationStroop,2021.2.3,Win32,60.37553583,,,,,,,,,,,,,,,,,,,,,,,,,,,,,,,,,54,2.6651,1,0,10,10,21,1,9,×,6,9 × 6,neutral,largerFirst,1.5,1.5,54,,,,,,,,
,,,,,,,,,,,,,,,696,2022-01-31_19h59.17.477,multiplicationStroop,2021.2.3,Win32,60.37553583,,,,,,,,,,,,,,,,,,,,,,,,,,,,,,,,,6,3.0148,1,0,11,11,12,1,2,×,3,2 × 3,neutral,smallerFirst,1.5,1.5,6,,,,,,,,
,,,,,,,,,,,,,,,696,2022-01-31_19h59.17.477,multiplicationStroop,2021.2.3,Win32,60.37553583,,,,,,,,,,,,,,,,,,,,,,,,,,,,,,,,,18,1.9182,1,0,12,12,14,1,6,×,3,6 × 3,neutral,largerFirst,1.5,1.5,18,,,,,,,,
,,,,,,,,,,,,,,,696,2022-01-31_19h59.17.477,multiplicationStroop,2021.2.3,Win32,60.37553583,,,,,,,,,,,,,,,,,,,,,,,,,,,,,,,,,25,1.4823,1,0,13,13,31,1,5,×,5,5 × 5,neutral,tie,1.5,1.5,25,,,,,,,,
,,,,,,,,,,,,,,,696,2022-01-31_19h59.17.477,multiplicationStroop,2021.2.3,Win32,60.37553583,,,,,,,,,,,,,,,,,,,,,,,,,,,,,,,,,21,1.8161,1,0,14,14,22,1,7,×,3,7 × 3,neutral,largerFirst,1.5,1.5,21,,,,,,,,
,,,,,,,,,,,,,,,696,2022-01-31_19h59.17.477,multiplicationStroop,2021.2.3,Win32,60.37553583,,,,,,,,,,,,,,,,,,,,,,,,,,,,,,,,,4,1.5317,1,0,15,15,28,1,2,×,2,2 × 2,neutral,tie,1.5,1.5,4,,,,,,,,
,,,,,,,,,,,,,,,696,2022-01-31_19h59.17.477,multiplicationStroop,2021.2.3,Win32,60.37553583,,,,,,,,,,,,,,,,,,,,,,,,,,,,,,,,,16,2.082,1,0,16,16,27,1,8,×,2,8 × 2,neutral,largerFirst,1.5,1.5,16,,,,,,,,
,,,,,,,,,,,,,,,696,2022-01-31_19h59.17.477,multiplicationStroop,2021.2.3,Win32,60.37553583,,,,,,,,,,,,,,,,,,,,,,,,,,,,,,,,,72,4.0647,1,0,17,17,25,1,9,×,8,9 × 8,neutral,largerFirst,1.5,1.5,72,,,,,,,,
,,,,,,,,,,,,,,,696,2022-01-31_19h59.17.477,multiplicationStroop,2021.2.3,Win32,60.37553583,,,,,,,,,,,,,,,,,,,,,,,,,,,,,,,,,10,2.0513,1,0,18,18,18,1,5,×,2,5 × 2,neutral,largerFirst,1.5,1.5,10,,,,,,,,
,,,,,,,,,,,,,,,696,2022-01-31_19h59.17.477,multiplicationStroop,2021.2.3,Win32,60.37553583,,,,,,,,,,,,,,,,,,,,,,,,,,,,,,,,,20,1.8652,1,0,19,19,6,1,4,×,5,4 × 5,neutral,smallerFirst,1.5,1.5,20,,,,,,,,
,,,,,,,,,,,,,,,696,2022-01-31_19h59.17.477,multiplicationStroop,2021.2.3,Win32,60.37553583,,,,,,,,,,,,,,,,,,,,,,,,,,,,,,,,,18,1.6991,1,0,20,20,4,1,2,×,9,2 × 9,neutral,smallerFirst,1.5,1.5,18,,,,,,,,
,,,,,,,,,,,,,,,696,2022-01-31_19h59.17.477,multiplicationStroop,2021.2.3,Win32,60.37553583,,,,,,,,,,,,,,,,,,,,,,,,,,,,,,,,,8,1.5657,1,0,21,21,17,1,4,×,2,4 × 2,neutral,largerFirst,1.5,1.5,8,,,,,,,,
,,,,,,,,,,,,,,,696,2022-01-31_19h59.17.477,multiplicationStroop,2021.2.3,Win32,60.37553583,,,,,,,,,,,,,,,,,,,,,,,,,,,,,,,,,63,2.1987,1,0,22,22,26,1,9,×,7,9 × 7,neutral,largerFirst,1.5,1.5,63,,,,,,,,
,,,,,,,,,,,,,,,696,2022-01-31_19h59.17.477,multiplicationStroop,2021.2.3,Win32,60.37553583,,,,,,,,,,,,,,,,,,,,,,,,,,,,,,,,,27,2.5816,1,0,23,23,0,1,3,×,9,3 × 9,neutral,smallerFirst,1.5,1.5,27,,,,,,,,
,,,,,,,,,,,,,,,696,2022-01-31_19h59.17.477,multiplicationStroop,2021.2.3,Win32,60.37553583,,,,,,,,,,,,,,,,,,,,,,,,,,,,,,,,,36,1.7822,1,0,24,24,32,1,6,×,6,6 × 6,neutral,tie,1.5,1.5,36,,,,,,,,
,,,,,,,,,,,,,,,696,2022-01-31_19h59.17.477,multiplicationStroop,2021.2.3,Win32,60.37553583,,,,,,,,,,,,,,,,,,,,,,,,,,,,,,,,,56,3.7648,1,0,25,25,23,1,8,×,7,8 × 7,neutral,largerFirst,1.5,1.5,56,,,,,,,,
,,,,,,,,,,,,,,,696,2022-01-31_19h59.17.477,multiplicationStroop,2021.2.3,Win32,60.37553583,,,,,,,,,,,,,,,,,,,,,,,,,,,,,,,,,42,5.666,1,0,26,26,20,1,7,×,6,7 × 6,neutral,largerFirst,1.5,1.5,42,,,,,,,,
,,,,,,,,,,,,,,,696,2022-01-31_19h59.17.477,multiplicationStroop,2021.2.3,Win32,60.37553583,,,,,,,,,,,,,,,,,,,,,,,,,,,,,,,,,16,1.4684,1,0,27,27,30,1,4,×,4,4 × 4,neutral,tie,1.5,1.5,16,,,,,,,,
,,,,,,,,,,,,,,,696,2022-01-31_19h59.17.477,multiplicationStroop,2021.2.3,Win32,60.37553583,,,,,,,,,,,,,,,,,,,,,,,,,,,,,,,,,35,2.8151,1,0,28,28,15,1,7,×,5,7 × 5,neutral,largerFirst,1.5,1.5,35,,,,,,,,
,,,,,,,,,,,,,,,696,2022-01-31_19h59.17.477,multiplicationStroop,2021.2.3,Win32,60.37553583,,,,,,,,,,,,,,,,,,,,,,,,,,,,,,,,,36,2.2346,1,0,29,29,13,1,4,×,9,4 × 9,neutral,smallerFirst,1.5,1.5,36,,,,,,,,
,,,,,,,,,,,,,,,696,2022-01-31_19h59.17.477,multiplicationStroop,2021.2.3,Win32,60.37553583,,,,,,,,,,,,,,,,,,,,,,,,,,,,,,,,,15,2.0323,1,0,30,30,19,1,5,×,3,5 × 3,neutral,largerFirst,1.5,1.5,15,,,,,,,,
,,,,,,,,,,,,,,,696,2022-01-31_19h59.17.477,multiplicationStroop,2021.2.3,Win32,60.37553583,,,,,,,,,,,,,,,,,,,,,,,,,,,,,,,,,24,1.9487,1,0,31,31,16,1,6,×,4,6 × 4,neutral,largerFirst,1.5,1.5,24,,,,,,,,
,,,,,,,,,,,,,,,696,2022-01-31_19h59.17.477,multiplicationStroop,2021.2.3,Win32,60.37553583,,,,,,,,,,,,,,,,,,,,,,,,,,,,,,,,,24,1.7321,1,0,32,32,8,1,3,×,8,3 × 8,neutral,smallerFirst,1.5,1.5,24,,,,,,,,
,,,,,,,,,,,,,,,696,2022-01-31_19h59.17.477,multiplicationStroop,2021.2.3,Win32,60.37553583,,,,,,,,,,,,,,,,,,,,,,,,,,,,,,,,,30,1.799,1,0,33,33,5,1,5,×,6,5 × 6,neutral,smallerFirst,1.5,1.5,30,,,,,,,,
,,,,,,,,,,,,,,,696,2022-01-31_19h59.17.477,multiplicationStroop,2021.2.3,Win32,60.37553583,,,,,,,,,,,,,,,,,,,,,,,,,,,,,,,,,45,1.8986,1,0,34,34,24,1,9,×,5,9 × 5,neutral,largerFirst,1.5,1.5,45,,,,,,,,
,,,,,,,,,,,,,,,696,2022-01-31_19h59.17.477,multiplicationStroop,2021.2.3,Win32,60.37553583,,,,,,,,,,,,,,,,,,,,,,,,,,,,,,,,,12,1.5156,1,0,35,35,11,1,2,×,6,2 × 6,neutral,smallerFirst,1.5,1.5,12,,,,,,,,
,,,,,,,,,,,,,,,696,2022-01-31_19h59.17.477,multiplicationStroop,2021.2.3,Win32,60.37553583,,,,,,,,,,,,,,,,,,,,,,,,,,,,,,,,,,,,,,,,,,,,,,,,,,0,5,5,0,1,stimulusFile/mult_blk1.xlsx,,
,,,,,,,,,,,,,,,696,2022-01-31_19h59.17.477,multiplicationStroop,2021.2.3,Win32,60.37553583,,,,,,,,,,,,,,,,,,,,,,,,,,,,,,,,,,,,,,,,,,,,,,,,,,,,,,,,space,4.4444