welcomeKey_resp.keys,welcomeKey_resp.rt,X Scale,Y Scale,rt_resp_4.keys,rt_resp_4.corr,rt_resp_4.rt,speedtest_2.thisRepN,speedtest_2.thisTrialN,speedtest_2.thisN,speedtest_2.thisIndex,speedtest_2.ran,numberSc,posX,positionLayout,participant,date,expName,psychopyVersion,OS,frameRate,ct_instrresp.keys,ct_instrresp.rt,key_resp_2.keys,key_resp_2.rt,ct_keyResp.keys,ct_keyResp.corr,ct_keyResp.rt,trials.thisRepN,trials.thisTrialN,trials.thisN,trials.thisIndex,trials.ran,leftNo,rightNo,displayProblem,numDistance,leftNo_size,rightNo_size,Dims,keyAnswer,TS_Loop.thisRepN,TS_Loop.thisTrialN,TS_Loop.thisN,TS_Loop.thisIndex,TS_Loop.ran,Condition,ActionInst,instrImage,mltptaskInst_resp.keys,mltptaskInst_resp.rt,continue_resp_2.keys,continue_resp_2.rt,multp_Answer,multi_RT,multiplyCorr,LoopingMultiply.thisRepN,LoopingMultiply.thisTrialN,LoopingMultiply.thisN,LoopingMultiply.thisIndex,LoopingMultiply.ran,factor1,multiplySign,factor2,multliplyProblem,physicalSize,orderOperand,sizeF1,sizeF2,mult_answer,trials_stroop.thisRepN,trials_stroop.thisTrialN,trials_stroop.thisN,trials_stroop.thisIndex,trials_stroop.ran,multiplicationFile,esckey_resp_2.keys,esckey_resp_2.rt
y,6.8853,50,49.9,right,1,0.7813,0,0,0,9,1,2,200,right,697,2022-02-05_14h46.31.930,multiplicationStroop,2021.2.3,Win32,60.84945844,,,,,,,,,,,,,,,,,,,,,,,,,,,,,,,,,,,,,,,,,,,,,,,,,,,,,,,,,
,,,,right,1,0.3113,0,1,1,14,1,8,200,right,697,2022-02-05_14h46.31.930,multiplicationStroop,2021.2.3,Win32,60.84945844,,,,,,,,,,,,,,,,,,,,,,,,,,,,,,,,,,,,,,,,,,,,,,,,,,,,,,,,,
,,,,left,1,0.2946,0,2,2,2,1,3,-200,left,697,2022-02-05_14h46.31.930,multiplicationStroop,2021.2.3,Win32,60.84945844,,,,,,,,,,,,,,,,,,,,,,,,,,,,,,,,,,,,,,,,,,,,,,,,,,,,,,,,,
,,,,left,1,0.2444,0,3,3,1,1,2,-200,left,697,2022-02-05_14h46.31.930,multiplicationStroop,2021.2.3,Win32,60.84945844,,,,,,,,,,,,,,,,,,,,,,,,,,,,,,,,,,,,,,,,,,,,,,,,,,,,,,,,,
,,,,left,1,0.2213,0,4,4,3,1,4,-200,left,697,2022-02-05_14h46.31.930,multiplicationStroop,2021.2.3,Win32,60.84945844,,,,,,,,,,,,,,,,,,,,,,,,,,,,,,,,,,,,,,,,,,,,,,,,,,,,,,,,,
,,,,left,1,0.2668,0,5,5,5,1,7,-200,left,697,2022-02-05_14h46.31.930,multiplicationStroop,2021.2.3,Win32,60.84945844,,,,,,,,,,,,,,,,,,,,,,,,,,,,,,,,,,,,,,,,,,,,,,,,,,,,,,,,,
,,,,left,0,0.1947,0,6,6,11,1,4,200,right,697,2022-02-05_14h46.31.930,multiplicationStroop,2021.2.3,Win32,60.84945844,,,,,,,,,,,,,,,,,,,,,,,,,,,,,,,,,,,,,,,,,,,,,,,,,,,,,,,,,
,,,,right,1,0.4543,0,7,7,8,1,1,200,right,697,2022-02-05_14h46.31.930,multiplicationStroop,2021.2.3,Win32,60.84945844,,,,,,,,,,,,,,,,,,,,,,,,,,,,,,,,,,,,,,,,,,,,,,,,,,,,,,,,,
,,,,left,1,0.3489,0,8,8,6,1,8,-200,left,697,2022-02-05_14h46.31.930,multiplicationStroop,2021.2.3,Win32,60.84945844,,,,,,,,,,,,,,,,,,,,,,,,,,,,,,,,,,,,,,,,,,,,,,,,,,,,,,,,,
,,,,right,1,0.2592,0,9,9,10,1,3,200,right,697,2022-02-05_14h46.31.930,multiplicationStroop,2021.2.3,Win32,60.84945844,,,,,,,,,,,,,,,,,,,,,,,,,,,,,,,,,,,,,,,,,,,,,,,,,,,,,,,,,
,,,,right,1,0.2708,0,10,10,13,1,7,200,right,697,2022-02-05_14h46.31.930,multiplicationStroop,2021.2.3,Win32,60.84945844,,,,,,,,,,,,,,,,,,,,,,,,,,,,,,,,,,,,,,,,,,,,,,,,,,,,,,,,,
,,,,left,1,0.284,0,11,11,7,1,9,-200,left,697,2022-02-05_14h46.31.930,multiplicationStroop,2021.2.3,Win32,60.84945844,,,,,,,,,,,,,,,,,,,,,,,,,,,,,,,,,,,,,,,,,,,,,,,,,,,,,,,,,
,,,,left,1,0.302,0,12,12,4,1,6,-200,left,697,2022-02-05_14h46.31.930,multiplicationStroop,2021.2.3,Win32,60.84945844,,,,,,,,,,,,,,,,,,,,,,,,,,,,,,,,,,,,,,,,,,,,,,,,,,,,,,,,,
,,,,right,1,0.2558,0,13,13,12,1,6,200,right,697,2022-02-05_14h46.31.930,multiplicationStroop,2021.2.3,Win32,60.84945844,,,,,,,,,,,,,,,,,,,,,,,,,,,,,,,,,,,,,,,,,,,,,,,,,,,,,,,,,
,,,,left,1,0.2233,0,14,14,0,1,1,-200,left,697,2022-02-05_14h46.31.930,multiplicationStroop,2021.2.3,Win32,60.84945844,,,,,,,,,,,,,,,,,,,,,,,,,,,,,,,,,,,,,,,,,,,,,,,,,,,,,,,,,
,,,,right,1,0.2341,0,15,15,15,1,9,200,right,697,2022-02-05_14h46.31.930,multiplicationStroop,2021.2.3,Win32,60.84945844,,,,,,,,,,,,,,,,,,,,,,,,,,,,,,,,,,,,,,,,,,,,,,,,,,,,,,,,,
,,,,right,1,0.3103,1,0,16,15,1,9,200,right,697,2022-02-05_14h46.31.930,multiplicationStroop,2021.2.3,Win32,60.84945844,,,,,,,,,,,,,,,,,,,,,,,,,,,,,,,,,,,,,,,,,,,,,,,,,,,,,,,,,
,,,,right,0,0.2347,1,1,17,6,1,8,-200,left,697,2022-02-05_14h46.31.930,multiplicationStroop,2021.2.3,Win32,60.84945844,,,,,,,,,,,,,,,,,,,,,,,,,,,,,,,,,,,,,,,,,,,,,,,,,,,,,,,,,
,,,,right,1,0.337,1,2,18,13,1,7,200,right,697,2022-02-05_14h46.31.930,multiplicationStroop,2021.2.3,Win32,60.84945844,,,,,,,,,,,,,,,,,,,,,,,,,,,,,,,,,,,,,,,,,,,,,,,,,,,,,,,,,
,,,,left,1,0.2678,1,3,19,7,1,9,-200,left,697,2022-02-05_14h46.31.930,multiplicationStroop,2021.2.3,Win32,60.84945844,,,,,,,,,,,,,,,,,,,,,,,,,,,,,,,,,,,,,,,,,,,,,,,,,,,,,,,,,
,,,,right,1,0.2359,1,4,20,8,1,1,200,right,697,2022-02-05_14h46.31.930,multiplicationStroop,2021.2.3,Win32,60.84945844,,,,,,,,,,,,,,,,,,,,,,,,,,,,,,,,,,,,,,,,,,,,,,,,,,,,,,,,,
,,,,right,1,0.3338,1,5,21,10,1,3,200,right,697,2022-02-05_14h46.31.930,multiplicationStroop,2021.2.3,Win32,60.84945844,,,,,,,,,,,,,,,,,,,,,,,,,,,,,,,,,,,,,,,,,,,,,,,,,,,,,,,,,
,,,,left,1,0.2943,1,6,22,4,1,6,-200,left,697,2022-02-05_14h46.31.930,multiplicationStroop,2021.2.3,Win32,60.84945844,,,,,,,,,,,,,,,,,,,,,,,,,,,,,,,,,,,,,,,,,,,,,,,,,,,,,,,,,
,,,,right,1,0.2412,1,7,23,11,1,4,200,right,697,2022-02-05_14h46.31.930,multiplicationStroop,2021.2.3,Win32,60.84945844,,,,,,,,,,,,,,,,,,,,,,,,,,,,,,,,,,,,,,,,,,,,,,,,,,,,,,,,,
,,,,right,1,0.294,1,8,24,14,1,8,200,right,697,2022-02-05_14h46.31.930,multiplicationStroop,2021.2.3,Win32,60.84945844,,,,,,,,,,,,,,,,,,,,,,,,,,,,,,,,,,,,,,,,,,,,,,,,,,,,,,,,,
,,,,right,1,0.2773,1,9,25,12,1,6,200,right,697,2022-02-05_14h46.31.930,multiplicationStroop,2021.2.3,Win32,60.84945844,,,,,,,,,,,,,,,,,,,,,,,,,,,,,,,,,,,,,,,,,,,,,,,,,,,,,,,,,
,,,,left,1,0.278,1,10,26,5,1,7,-200,left,697,2022-02-05_14h46.31.930,multiplicationStroop,2021.2.3,Win32,60.84945844,,,,,,,,,,,,,,,,,,,,,,,,,,,,,,,,,,,,,,,,,,,,,,,,,,,,,,,,,
,,,,left,1,0.3115,1,11,27,0,1,1,-200,left,697,2022-02-05_14h46.31.930,multiplicationStroop,2021.2.3,Win32,60.84945844,,,,,,,,,,,,,,,,,,,,,,,,,,,,,,,,,,,,,,,,,,,,,,,,,,,,,,,,,
,,,,left,1,0.268,1,12,28,1,1,2,-200,left,697,2022-02-05_14h46.31.930,multiplicationStroop,2021.2.3,Win32,60.84945844,,,,,,,,,,,,,,,,,,,,,,,,,,,,,,,,,,,,,,,,,,,,,,,,,,,,,,,,,
,,,,left,1,0.2742,1,13,29,2,1,3,-200,left,697,2022-02-05_14h46.31.930,multiplicationStroop,2021.2.3,Win32,60.84945844,,,,,,,,,,,,,,,,,,,,,,,,,,,,,,,,,,,,,,,,,,,,,,,,,,,,,,,,,
,,,,right,1,0.2249,1,14,30,9,1,2,200,right,697,2022-02-05_14h46.31.930,multiplicationStroop,2021.2.3,Win32,60.84945844,,,,,,,,,,,,,,,,,,,,,,,,,,,,,,,,,,,,,,,,,,,,,,,,,,,,,,,,,
,,,,left,1,0.2174,1,15,31,3,1,4,-200,left,697,2022-02-05_14h46.31.930,multiplicationStroop,2021.2.3,Win32,60.84945844,,,,,,,,,,,,,,,,,,,,,,,,,,,,,,,,,,,,,,,,,,,,,,,,,,,,,,,,,
,,,,left,1,0.5848,2,0,32,7,1,9,-200,left,697,2022-02-05_14h46.31.930,multiplicationStroop,2021.2.3,Win32,60.84945844,,,,,,,,,,,,,,,,,,,,,,,,,,,,,,,,,,,,,,,,,,,,,,,,,,,,,,,,,
,,,,left,0,0.2544,2,1,33,10,1,3,200,right,697,2022-02-05_14h46.31.930,multiplicationStroop,2021.2.3,Win32,60.84945844,,,,,,,,,,,,,,,,,,,,,,,,,,,,,,,,,,,,,,,,,,,,,,,,,,,,,,,,,
,,,,left,1,0.6002,2,2,34,0,1,1,-200,left,697,2022-02-05_14h46.31.930,multiplicationStroop,2021.2.3,Win32,60.84945844,,,,,,,,,,,,,,,,,,,,,,,,,,,,,,,,,,,,,,,,,,,,,,,,,,,,,,,,,
,,,,right,1,0.2845,2,3,35,15,1,9,200,right,697,2022-02-05_14h46.31.930,multiplicationStroop,2021.2.3,Win32,60.84945844,,,,,,,,,,,,,,,,,,,,,,,,,,,,,,,,,,,,,,,,,,,,,,,,,,,,,,,,,
,,,,right,1,0.3257,2,4,36,14,1,8,200,right,697,2022-02-05_14h46.31.930,multiplicationStroop,2021.2.3,Win32,60.84945844,,,,,,,,,,,,,,,,,,,,,,,,,,,,,,,,,,,,,,,,,,,,,,,,,,,,,,,,,
,,,,left,1,0.3429,2,5,37,6,1,8,-200,left,697,2022-02-05_14h46.31.930,multiplicationStroop,2021.2.3,Win32,60.84945844,,,,,,,,,,,,,,,,,,,,,,,,,,,,,,,,,,,,,,,,,,,,,,,,,,,,,,,,,
,,,,left,1,0.2745,2,6,38,5,1,7,-200,left,697,2022-02-05_14h46.31.930,multiplicationStroop,2021.2.3,Win32,60.84945844,,,,,,,,,,,,,,,,,,,,,,,,,,,,,,,,,,,,,,,,,,,,,,,,,,,,,,,,,
,,,,left,1,0.255,2,7,39,3,1,4,-200,left,697,2022-02-05_14h46.31.930,multiplicationStroop,2021.2.3,Win32,60.84945844,,,,,,,,,,,,,,,,,,,,,,,,,,,,,,,,,,,,,,,,,,,,,,,,,,,,,,,,,
,,,,left,1,0.235,2,8,40,4,1,6,-200,left,697,2022-02-05_14h46.31.930,multiplicationStroop,2021.2.3,Win32,60.84945844,,,,,,,,,,,,,,,,,,,,,,,,,,,,,,,,,,,,,,,,,,,,,,,,,,,,,,,,,
,,,,right,1,0.2875,2,9,41,11,1,4,200,right,697,2022-02-05_14h46.31.930,multiplicationStroop,2021.2.3,Win32,60.84945844,,,,,,,,,,,,,,,,,,,,,,,,,,,,,,,,,,,,,,,,,,,,,,,,,,,,,,,,,
,,,,left,1,0.3219,2,10,42,1,1,2,-200,left,697,2022-02-05_14h46.31.930,multiplicationStroop,2021.2.3,Win32,60.84945844,,,,,,,,,,,,,,,,,,,,,,,,,,,,,,,,,,,,,,,,,,,,,,,,,,,,,,,,,
,,,,right,1,0.2061,2,11,43,13,1,7,200,right,697,2022-02-05_14h46.31.930,multiplicationStroop,2021.2.3,Win32,60.84945844,,,,,,,,,,,,,,,,,,,,,,,,,,,,,,,,,,,,,,,,,,,,,,,,,,,,,,,,,
,,,,right,1,0.3269,2,12,44,9,1,2,200,right,697,2022-02-05_14h46.31.930,multiplicationStroop,2021.2.3,Win32,60.84945844,,,,,,,,,,,,,,,,,,,,,,,,,,,,,,,,,,,,,,,,,,,,,,,,,,,,,,,,,
,,,,right,1,0.2276,2,13,45,8,1,1,200,right,697,2022-02-05_14h46.31.930,multiplicationStroop,2021.2.3,Win32,60.84945844,,,,,,,,,,,,,,,,,,,,,,,,,,,,,,,,,,,,,,,,,,,,,,,,,,,,,,,,,
,,,,left,1,0.2583,2,14,46,2,1,3,-200,left,697,2022-02-05_14h46.31.930,multiplicationStroop,2021.2.3,Win32,60.84945844,,,,,,,,,,,,,,,,,,,,,,,,,,,,,,,,,,,,,,,,,,,,,,,,,,,,,,,,,
,,,,right,1,0.2535,2,15,47,12,1,6,200,right,697,2022-02-05_14h46.31.930,multiplicationStroop,2021.2.3,Win32,60.84945844,,,,,,,,,,,,,,,,,,,,,,,,,,,,,,,,,,,,,,,,,,,,,,,,,,,,,,,,,
,,,,left,1,0.2359,3,0,48,5,1,7,-200,left,697,2022-02-05_14h46.31.930,multiplicationStroop,2021.2.3,Win32,60.84945844,,,,,,,,,,,,,,,,,,,,,,,,,,,,,,,,,,,,,,,,,,,,,,,,,,,,,,,,,
,,,,right,1,0.1709,3,1,49,9,1,2,200,right,697,2022-02-05_14h46.31.930,multiplicationStroop,2021.2.3,Win32,60.84945844,,,,,,,,,,,,,,,,,,,,,,,,,,,,,,,,,,,,,,,,,,,,,,,,,,,,,,,,,
,,,,right,1,0.368,3,2,50,14,1,8,200,right,697,2022-02-05_14h46.31.930,multiplicationStroop,2021.2.3,Win32,60.84945844,,,,,,,,,,,,,,,,,,,,,,,,,,,,,,,,,,,,,,,,,,,,,,,,,,,,,,,,,
,,,,left,1,0.2338,3,3,51,6,1,8,-200,left,697,2022-02-05_14h46.31.930,multiplicationStroop,2021.2.3,Win32,60.84945844,,,,,,,,,,,,,,,,,,,,,,,,,,,,,,,,,,,,,,,,,,,,,,,,,,,,,,,,,
,,,,left,1,0.3051,3,4,52,4,1,6,-200,left,697,2022-02-05_14h46.31.930,multiplicationStroop,2021.2.3,Win32,60.84945844,,,,,,,,,,,,,,,,,,,,,,,,,,,,,,,,,,,,,,,,,,,,,,,,,,,,,,,,,
,,,,left,0,0.2452,3,5,53,10,1,3,200,right,697,2022-02-05_14h46.31.930,multiplicationStroop,2021.2.3,Win32,60.84945844,,,,,,,,,,,,,,,,,,,,,,,,,,,,,,,,,,,,,,,,,,,,,,,,,,,,,,,,,
,,,,right,1,0.4708,3,6,54,8,1,1,200,right,697,2022-02-05_14h46.31.930,multiplicationStroop,2021.2.3,Win32,60.84945844,,,,,,,,,,,,,,,,,,,,,,,,,,,,,,,,,,,,,,,,,,,,,,,,,,,,,,,,,
,,,,left,1,0.2665,3,7,55,3,1,4,-200,left,697,2022-02-05_14h46.31.930,multiplicationStroop,2021.2.3,Win32,60.84945844,,,,,,,,,,,,,,,,,,,,,,,,,,,,,,,,,,,,,,,,,,,,,,,,,,,,,,,,,
,,,,right,1,0.3225,3,8,56,15,1,9,200,right,697,2022-02-05_14h46.31.930,multiplicationStroop,2021.2.3,Win32,60.84945844,,,,,,,,,,,,,,,,,,,,,,,,,,,,,,,,,,,,,,,,,,,,,,,,,,,,,,,,,
,,,,left,1,0.3846,3,9,57,1,1,2,-200,left,697,2022-02-05_14h46.31.930,multiplicationStroop,2021.2.3,Win32,60.84945844,,,,,,,,,,,,,,,,,,,,,,,,,,,,,,,,,,,,,,,,,,,,,,,,,,,,,,,,,
,,,,right,1,0.3551,3,10,58,11,1,4,200,right,697,2022-02-05_14h46.31.930,multiplicationStroop,2021.2.3,Win32,60.84945844,,,,,,,,,,,,,,,,,,,,,,,,,,,,,,,,,,,,,,,,,,,,,,,,,,,,,,,,,
,,,,right,1,0.4825,3,11,59,13,1,7,200,right,697,2022-02-05_14h46.31.930,multiplicationStroop,2021.2.3,Win32,60.84945844,,,,,,,,,,,,,,,,,,,,,,,,,,,,,,,,,,,,,,,,,,,,,,,,,,,,,,,,,
,,,,left,1,0.2676,3,12,60,2,1,3,-200,left,697,2022-02-05_14h46.31.930,multiplicationStroop,2021.2.3,Win32,60.84945844,,,,,,,,,,,,,,,,,,,,,,,,,,,,,,,,,,,,,,,,,,,,,,,,,,,,,,,,,
,,,,right,1,0.2268,3,13,61,12,1,6,200,right,697,2022-02-05_14h46.31.930,multiplicationStroop,2021.2.3,Win32,60.84945844,,,,,,,,,,,,,,,,,,,,,,,,,,,,,,,,,,,,,,,,,,,,,,,,,,,,,,,,,
,,,,left,1,0.2268,3,14,62,7,1,9,-200,left,697,2022-02-05_14h46.31.930,multiplicationStroop,2021.2.3,Win32,60.84945844,,,,,,,,,,,,,,,,,,,,,,,,,,,,,,,,,,,,,,,,,,,,,,,,,,,,,,,,,
,,,,right,0,0.1845,3,15,63,0,1,1,-200,left,697,2022-02-05_14h46.31.930,multiplicationStroop,2021.2.3,Win32,60.84945844,,,,,,,,,,,,,,,,,,,,,,,,,,,,,,,,,,,,,,,,,,,,,,,,,,,,,,,,,
,,,,,,,,,,,,,,,697,2022-02-05_14h46.31.930,multiplicationStroop,2021.2.3,Win32,60.84945844,space,12.2182,space,13.9451,right,1,0.5984,0,0,0,2,1,6,7,6 | 7,1,1.4111,1.9756,congruent,right,,,,,,stimulusFile/magnitude.xlsx,,,,,,,,,,,,,,,,,,,,,,,,,,,,,,,
,,,,,,,,,,,,,,,697,2022-02-05_14h46.31.930,multiplicationStroop,2021.2.3,Win32,60.84945844,,,,,left,0,0.4556,0,1,1,40,1,1,6,1 | 6,5,1.9756,1.4111,incongruent,right,,,,,,stimulusFile/magnitude.xlsx,,,,,,,,,,,,,,,,,,,,,,,,,,,,,,,
,,,,,,,,,,,,,,,697,2022-02-05_14h46.31.930,multiplicationStroop,2021.2.3,Win32,60.84945844,,,,,left,1,1.1498,0,2,2,5,1,4,3,4 | 3,1,1.9756,1.4111,congruent,left,,,,,,stimulusFile/magnitude.xlsx,,,,,,,,,,,,,,,,,,,,,,,,,,,,,,,
,,,,,,,,,,,,,,,697,2022-02-05_14h46.31.930,multiplicationStroop,2021.2.3,Win32,60.84945844,,,,,right,1,0.4273,0,3,3,1,1,3,4,3 | 4,1,1.4111,1.9756,congruent,right,,,,,,stimulusFile/magnitude.xlsx,,,,,,,,,,,,,,,,,,,,,,,,,,,,,,,
,,,,,,,,,,,,,,,697,2022-02-05_14h46.31.930,multiplicationStroop,2021.2.3,Win32,60.84945844,,,,,left,1,0.4168,0,4,4,29,1,4,3,4 | 3,1,1.4111,1.9756,incongruent,left,,,,,,stimulusFile/magnitude.xlsx,,,,,,,,,,,,,,,,,,,,,,,,,,,,,,,
,,,,,,,,,,,,,,,697,2022-02-05_14h46.31.930,multiplicationStroop,2021.2.3,Win32,60.84945844,,,,,left,1,0.6074,0,5,5,55,1,9,8,9 | 8,1,1.6933,1.6933,neutral,left,,,,,,stimulusFile/magnitude.xlsx,,,,,,,,,,,,,,,,,,,,,,,,,,,,,,,
,,,,,,,,,,,,,,,697,2022-02-05_14h46.31.930,multiplicationStroop,2021.2.3,Win32,60.84945844,,,,,left,1,0.4245,0,6,6,68,1,6,1,6 | 1,5,1.6933,1.6933,neutral,left,,,,,,stimulusFile/magnitude.xlsx,,,,,,,,,,,,,,,,,,,,,,,,,,,,,,,
,,,,,,,,,,,,,,,697,2022-02-05_14h46.31.930,multiplicationStroop,2021.2.3,Win32,60.84945844,,,,,right,1,0.5692,0,7,7,11,1,7,9,7 | 9,2,1.4111,1.9756,congruent,right,,,,,,stimulusFile/magnitude.xlsx,,,,,,,,,,,,,,,,,,,,,,,,,,,,,,,
,,,,,,,,,,,,,,,697,2022-02-05_14h46.31.930,multiplicationStroop,2021.2.3,Win32,60.84945844,,,,,left,1,0.3672,0,8,8,36,1,3,1,3 | 1,2,1.4111,1.9756,incongruent,left,,,,,,stimulusFile/magnitude.xlsx,,,,,,,,,,,,,,,,,,,,,,,,,,,,,,,
,,,,,,,,,,,,,,,697,2022-02-05_14h46.31.930,multiplicationStroop,2021.2.3,Win32,60.84945844,,,,,left,1,0.4273,0,9,9,53,1,4,3,4 | 3,1,1.6933,1.6933,neutral,left,,,,,,stimulusFile/magnitude.xlsx,,,,,,,,,,,,,,,,,,,,,,,,,,,,,,,
,,,,,,,,,,,,,,,697,2022-02-05_14h46.31.930,multiplicationStroop,2021.2.3,Win32,60.84945844,,,,,right,1,0.4835,0,10,10,16,1,1,6,1 | 6,5,1.4111,1.9756,congruent,right,,,,,,stimulusFile/magnitude.xlsx,,,,,,,,,,,,,,,,,,,,,,,,,,,,,,,
,,,,,,,,,,,,,,,697,2022-02-05_14h46.31.930,multiplicationStroop,2021.2.3,Win32,60.84945844,,,,,left,1,0.3339,0,11,11,20,1,6,1,6 | 1,5,1.9756,1.4111,congruent,left,,,,,,stimulusFile/magnitude.xlsx,,,,,,,,,,,,,,,,,,,,,,,,,,,,,,,
,,,,,,,,,,,,,,,697,2022-02-05_14h46.31.930,multiplicationStroop,2021.2.3,Win32,60.84945844,,,,,left,1,0.4173,0,12,12,44,1,6,1,6 | 1,5,1.4111,1.9756,incongruent,left,,,,,,stimulusFile/magnitude.xlsx,,,,,,,,,,,,,,,,,,,,,,,,,,,,,,,
,,,,,,,,,,,,,,,697,2022-02-05_14h46.31.930,multiplicationStroop,2021.2.3,Win32,60.84945844,,,,,left,1,0.7714,0,13,13,30,1,7,6,7 | 6,1,1.4111,1.9756,incongruent,left,,,,,,stimulusFile/magnitude.xlsx,,,,,,,,,,,,,,,,,,,,,,,,,,,,,,,
,,,,,,,,,,,,,,,697,2022-02-05_14h46.31.930,multiplicationStroop,2021.2.3,Win32,60.84945844,,,,,left,0,0.3194,0,14,14,59,1,7,9,7 | 9,2,1.6933,1.6933,neutral,right,,,,,,stimulusFile/magnitude.xlsx,,,,,,,,,,,,,,,,,,,,,,,,,,,,,,,
,,,,,,,,,,,,,,,697,2022-02-05_14h46.31.930,multiplicationStroop,2021.2.3,Win32,60.84945844,,,,,right,1,0.883,0,15,15,49,1,3,4,3 | 4,1,1.6933,1.6933,neutral,right,,,,,,stimulusFile/magnitude.xlsx,,,,,,,,,,,,,,,,,,,,,,,,,,,,,,,
,,,,,,,,,,,,,,,697,2022-02-05_14h46.31.930,multiplicationStroop,2021.2.3,Win32,60.84945844,,,,,left,0,0.4372,0,16,16,51,1,8,9,8 | 9,1,1.6933,1.6933,neutral,right,,,,,,stimulusFile/magnitude.xlsx,,,,,,,,,,,,,,,,,,,,,,,,,,,,,,,
,,,,,,,,,,,,,,,697,2022-02-05_14h46.31.930,multiplicationStroop,2021.2.3,Win32,60.84945844,,,,,left,1,0.5351,0,17,17,15,1,9,7,9 | 7,2,1.9756,1.4111,congruent,left,,,,,,stimulusFile/magnitude.xlsx,,,,,,,,,,,,,,,,,,,,,,,,,,,,,,,
,,,,,,,,,,,,,,,697,2022-02-05_14h46.31.930,multiplicationStroop,2021.2.3,Win32,60.84945844,,,,,left,1,1.0404,0,18,18,54,1,7,6,7 | 6,1,1.6933,1.6933,neutral,left,,,,,,stimulusFile/magnitude.xlsx,,,,,,,,,,,,,,,,,,,,,,,,,,,,,,,
,,,,,,,,,,,,,,,697,2022-02-05_14h46.31.930,multiplicationStroop,2021.2.3,Win32,60.84945844,,,,,left,1,0.9025,0,19,19,46,1,8,3,8 | 3,5,1.4111,1.9756,incongruent,left,,,,,,stimulusFile/magnitude.xlsx,,,,,,,,,,,,,,,,,,,,,,,,,,,,,,,
,,,,,,,,,,,,,,,697,2022-02-05_14h46.31.930,multiplicationStroop,2021.2.3,Win32,60.84945844,,,,,right,1,0.8333,0,20,20,64,1,1,6,1 | 6,5,1.6933,1.6933,neutral,right,,,,,,stimulusFile/magnitude.xlsx,,,,,,,,,,,,,,,,,,,,,,,,,,,,,,,
,,,,,,,,,,,,,,,697,2022-02-05_14h46.31.930,multiplicationStroop,2021.2.3,Win32,60.84945844,,,,,right,1,0.4248,0,21,21,19,1,4,9,4 | 9,5,1.4111,1.9756,congruent,right,,,,,,stimulusFile/magnitude.xlsx,,,,,,,,,,,,,,,,,,,,,,,,,,,,,,,
,,,,,,,,,,,,,,,697,2022-02-05_14h46.31.930,multiplicationStroop,2021.2.3,Win32,60.84945844,,,,,left,1,0.3582,0,22,22,14,1,8,6,8 | 6,2,1.9756,1.4111,congruent,left,,,,,,stimulusFile/magnitude.xlsx,,,,,,,,,,,,,,,,,,,,,,,,,,,,,,,
,,,,,,,,,,,,,,,697,2022-02-05_14h46.31.930,multiplicationStroop,2021.2.3,Win32,60.84945844,,,,,left,1,0.4591,0,23,23,21,1,7,2,7 | 2,5,1.9756,1.4111,congruent,left,,,,,,stimulusFile/magnitude.xlsx,,,,,,,,,,,,,,,,,,,,,,,,,,,,,,,
,,,,,,,,,,,,,,,697,2022-02-05_14h46.31.930,multiplicationStroop,2021.2.3,Win32,60.84945844,,,,,left,1,0.439,0,24,24,69,1,7,2,7 | 2,5,1.6933,1.6933,neutral,left,,,,,,stimulusFile/magnitude.xlsx,,,,,,,,,,,,,,,,,,,,,,,,,,,,,,,
,,,,,,,,,,,,,,,697,2022-02-05_14h46.31.930,multiplicationStroop,2021.2.3,Win32,60.84945844,,,,,left,1,0.4666,0,25,25,70,1,8,3,8 | 3,5,1.6933,1.6933,neutral,left,,,,,,stimulusFile/magnitude.xlsx,,,,,,,,,,,,,,,,,,,,,,,,,,,,,,,
,,,,,,,,,,,,,,,697,2022-02-05_14h46.31.930,multiplicationStroop,2021.2.3,Win32,60.84945844,,,,,right,1,0.5555,0,26,26,42,1,3,8,3 | 8,5,1.9756,1.4111,incongruent,right,,,,,,stimulusFile/magnitude.xlsx,,,,,,,,,,,,,,,,,,,,,,,,,,,,,,,
,,,,,,,,,,,,,,,697,2022-02-05_14h46.31.930,multiplicationStroop,2021.2.3,Win32,60.84945844,,,,,left,0,0.4543,0,27,27,56,1,1,3,1 | 3,2,1.6933,1.6933,neutral,right,,,,,,stimulusFile/magnitude.xlsx,,,,,,,,,,,,,,,,,,,,,,,,,,,,,,,
,,,,,,,,,,,,,,,697,2022-02-05_14h46.31.930,multiplicationStroop,2021.2.3,Win32,60.84945844,,,,,right,1,0.9005,0,28,28,27,1,8,9,8 | 9,1,1.9756,1.4111,incongruent,right,,,,,,stimulusFile/magnitude.xlsx,,,,,,,,,,,,,,,,,,,,,,,,,,,,,,,
,,,,,,,,,,,,,,,697,2022-02-05_14h46.31.930,multiplicationStroop,2021.2.3,Win32,60.84945844,,,,,left,1,0.6846,0,29,29,31,1,9,8,9 | 8,1,1.4111,1.9756,incongruent,left,,,,,,stimulusFile/magnitude.xlsx,,,,,,,,,,,,,,,,,,,,,,,,,,,,,,,
,,,,,,,,,,,,,,,697,2022-02-05_14h46.31.930,multiplicationStroop,2021.2.3,Win32,60.84945844,,,,,left,1,0.3709,0,30,30,7,1,9,8,9 | 8,1,1.9756,1.4111,congruent,left,,,,,,stimulusFile/magnitude.xlsx,,,,,,,,,,,,,,,,,,,,,,,,,,,,,,,
,,,,,,,,,,,,,,,697,2022-02-05_14h46.31.930,multiplicationStroop,2021.2.3,Win32,60.84945844,,,,,right,1,0.744,0,31,31,0,1,1,2,1 | 2,1,1.4111,1.9756,congruent,right,,,,,,stimulusFile/magnitude.xlsx,,,,,,,,,,,,,,,,,,,,,,,,,,,,,,,
,,,,,,,,,,,,,,,697,2022-02-05_14h46.31.930,multiplicationStroop,2021.2.3,Win32,60.84945844,,,,,left,1,0.4619,0,32,32,71,1,9,4,9 | 4,5,1.6933,1.6933,neutral,left,,,,,,stimulusFile/magnitude.xlsx,,,,,,,,,,,,,,,,,,,,,,,,,,,,,,,
,,,,,,,,,,,,,,,697,2022-02-05_14h46.31.930,multiplicationStroop,2021.2.3,Win32,60.84945844,,,,,right,1,0.9832,0,33,33,48,1,1,2,1 | 2,1,1.6933,1.6933,neutral,right,,,,,,stimulusFile/magnitude.xlsx,,,,,,,,,,,,,,,,,,,,,,,,,,,,,,,
,,,,,,,,,,,,,,,697,2022-02-05_14h46.31.930,multiplicationStroop,2021.2.3,Win32,60.84945844,,,,,left,0,0.4342,0,34,34,26,1,6,7,6 | 7,1,1.9756,1.4111,incongruent,right,,,,,,stimulusFile/magnitude.xlsx,,,,,,,,,,,,,,,,,,,,,,,,,,,,,,,
,,,,,,,,,,,,,,,697,2022-02-05_14h46.31.930,multiplicationStroop,2021.2.3,Win32,60.84945844,,,,,right,1,0.5848,0,35,35,58,1,6,8,6 | 8,2,1.6933,1.6933,neutral,right,,,,,,stimulusFile/magnitude.xlsx,,,,,,,,,,,,,,,,,,,,,,,,,,,,,,,
,,,,,,,,,,,,,,,697,2022-02-05_14h46.31.930,multiplicationStroop,2021.2.3,Win32,60.84945844,,,,,right,1,0.4989,0,36,36,3,1,8,9,8 | 9,1,1.4111,1.9756,congruent,right,,,,,,stimulusFile/magnitude.xlsx,,,,,,,,,,,,,,,,,,,,,,,,,,,,,,,
,,,,,,,,,,,,,,,697,2022-02-05_14h46.31.930,multiplicationStroop,2021.2.3,Win32,60.84945844,,,,,left,1,0.8173,0,37,37,60,1,3,1,3 | 1,2,1.6933,1.6933,neutral,left,,,,,,stimulusFile/magnitude.xlsx,,,,,,,,,,,,,,,,,,,,,,,,,,,,,,,
,,,,,,,,,,,,,,,697,2022-02-05_14h46.31.930,multiplicationStroop,2021.2.3,Win32,60.84945844,,,,,left,1,0.4839,0,38,38,22,1,8,3,8 | 3,5,1.9756,1.4111,congruent,left,,,,,,stimulusFile/magnitude.xlsx,,,,,,,,,,,,,,,,,,,,,,,,,,,,,,,
,,,,,,,,,,,,,,,697,2022-02-05_14h46.31.930,multiplicationStroop,2021.2.3,Win32,60.84945844,,,,,right,1,0.4848,0,39,39,50,1,6,7,6 | 7,1,1.6933,1.6933,neutral,right,,,,,,stimulusFile/magnitude.xlsx,,,,,,,,,,,,,,,,,,,,,,,,,,,,,,,
,,,,,,,,,,,,,,,697,2022-02-05_14h46.31.930,multiplicationStroop,2021.2.3,Win32,60.84945844,,,,,left,0,0.3162,0,40,40,25,1,3,4,3 | 4,1,1.9756,1.4111,incongruent,right,,,,,,stimulusFile/magnitude.xlsx,,,,,,,,,,,,,,,,,,,,,,,,,,,,,,,
,,,,,,,,,,,,,,,697,2022-02-05_14h46.31.930,multiplicationStroop,2021.2.3,Win32,60.84945844,,,,,right,1,0.5842,0,41,41,66,1,3,8,3 | 8,5,1.6933,1.6933,neutral,right,,,,,,stimulusFile/magnitude.xlsx,,,,,,,,,,,,,,,,,,,,,,,,,,,,,,,
,,,,,,,,,,,,,,,697,2022-02-05_14h46.31.930,multiplicationStroop,2021.2.3,Win32,60.84945844,,,,,left,1,0.668,0,42,42,61,1,4,2,4 | 2,2,1.6933,1.6933,neutral,left,,,,,,stimulusFile/magnitude.xlsx,,,,,,,,,,,,,,,,,,,,,,,,,,,,,,,
,,,,,,,,,,,,,,,697,2022-02-05_14h46.31.930,multiplicationStroop,2021.2.3,Win32,60.84945844,,,,,right,1,0.5012,0,43,43,35,1,7,9,7 | 9,2,1.9756,1.4111,incongruent,right,,,,,,stimulusFile/magnitude.xlsx,,,,,,,,,,,,,,,,,,,,,,,,,,,,,,,
,,,,,,,,,,,,,,,697,2022-02-05_14h46.31.930,multiplicationStroop,2021.2.3,Win32,60.84945844,,,,,right,1,0.6894,0,44,44,9,1,2,4,2 | 4,2,1.4111,1.9756,congruent,right,,,,,,stimulusFile/magnitude.xlsx,,,,,,,,,,,,,,,,,,,,,,,,,,,,,,,
,,,,,,,,,,,,,,,697,2022-02-05_14h46.31.930,multiplicationStroop,2021.2.3,Win32,60.84945844,,,,,left,1,0.4015,0,45,45,4,1,2,1,2 | 1,1,1.9756,1.4111,congruent,left,,,,,,stimulusFile/magnitude.xlsx,,,,,,,,,,,,,,,,,,,,,,,,,,,,,,,
,,,,,,,,,,,,,,,697,2022-02-05_14h46.31.930,multiplicationStroop,2021.2.3,Win32,60.84945844,,,,,right,1,0.5171,0,46,46,32,1,1,3,1 | 3,2,1.9756,1.4111,incongruent,right,,,,,,stimulusFile/magnitude.xlsx,,,,,,,,,,,,,,,,,,,,,,,,,,,,,,,
,,,,,,,,,,,,,,,697,2022-02-05_14h46.31.930,multiplicationStroop,2021.2.3,Win32,60.84945844,,,,,left,1,0.4494,0,47,47,13,1,4,2,4 | 2,2,1.9756,1.4111,congruent,left,,,,,,stimulusFile/magnitude.xlsx,,,,,,,,,,,,,,,,,,,,,,,,,,,,,,,
,,,,,,,,,,,,,,,697,2022-02-05_14h46.31.930,multiplicationStroop,2021.2.3,Win32,60.84945844,,,,,left,1,0.6002,0,48,48,45,1,7,2,7 | 2,5,1.4111,1.9756,incongruent,left,,,,,,stimulusFile/magnitude.xlsx,,,,,,,,,,,,,,,,,,,,,,,,,,,,,,,
,,,,,,,,,,,,,,,697,2022-02-05_14h46.31.930,multiplicationStroop,2021.2.3,Win32,60.84945844,,,,,left,1,0.6014,0,49,49,37,1,4,2,4 | 2,2,1.4111,1.9756,incongruent,left,,,,,,stimulusFile/magnitude.xlsx,,,,,,,,,,,,,,,,,,,,,,,,,,,,,,,
,,,,,,,,,,,,,,,697,2022-02-05_14h46.31.930,multiplicationStroop,2021.2.3,Win32,60.84945844,,,,,left,0,0.3221,0,50,50,67,1,4,9,4 | 9,5,1.6933,1.6933,neutral,right,,,,,,stimulusFile/magnitude.xlsx,,,,,,,,,,,,,,,,,,,,,,,,,,,,,,,
,,,,,,,,,,,,,,,697,2022-02-05_14h46.31.930,multiplicationStroop,2021.2.3,Win32,60.84945844,,,,,left,1,1.3948,0,51,51,52,1,2,1,2 | 1,1,1.6933,1.6933,neutral,left,,,,,,stimulusFile/magnitude.xlsx,,,,,,,,,,,,,,,,,,,,,,,,,,,,,,,
,,,,,,,,,,,,,,,697,2022-02-05_14h46.31.930,multiplicationStroop,2021.2.3,Win32,60.84945844,,,,,right,1,0.571,0,52,52,57,1,2,4,2 | 4,2,1.6933,1.6933,neutral,right,,,,,,stimulusFile/magnitude.xlsx,,,,,,,,,,,,,,,,,,,,,,,,,,,,,,,
,,,,,,,,,,,,,,,697,2022-02-05_14h46.31.930,multiplicationStroop,2021.2.3,Win32,60.84945844,,,,,right,1,0.4663,0,53,53,18,1,3,8,3 | 8,5,1.4111,1.9756,congruent,right,,,,,,stimulusFile/magnitude.xlsx,,,,,,,,,,,,,,,,,,,,,,,,,,,,,,,
,,,,,,,,,,,,,,,697,2022-02-05_14h46.31.930,multiplicationStroop,2021.2.3,Win32,60.84945844,,,,,right,1,0.4699,0,54,54,65,1,2,7,2 | 7,5,1.6933,1.6933,neutral,right,,,,,,stimulusFile/magnitude.xlsx,,,,,,,,,,,,,,,,,,,,,,,,,,,,,,,
,,,,,,,,,,,,,,,697,2022-02-05_14h46.31.930,multiplicationStroop,2021.2.3,Win32,60.84945844,,,,,right,1,0.4704,0,55,55,43,1,4,9,4 | 9,5,1.9756,1.4111,incongruent,right,,,,,,stimulusFile/magnitude.xlsx,,,,,,,,,,,,,,,,,,,,,,,,,,,,,,,
,,,,,,,,,,,,,,,697,2022-02-05_14h46.31.930,multiplicationStroop,2021.2.3,Win32,60.84945844,,,,,right,1,0.694,0,56,56,10,1,6,8,6 | 8,2,1.4111,1.9756,congruent,right,,,,,,stimulusFile/magnitude.xlsx,,,,,,,,,,,,,,,,,,,,,,,,,,,,,,,
,,,,,,,,,,,,,,,697,2022-02-05_14h46.31.930,multiplicationStroop,2021.2.3,Win32,60.84945844,,,,,left,1,0.3849,0,57,57,47,1,9,4,9 | 4,5,1.4111,1.9756,incongruent,left,,,,,,stimulusFile/magnitude.xlsx,,,,,,,,,,,,,,,,,,,,,,,,,,,,,,,
,,,,,,,,,,,,,,,697,2022-02-05_14h46.31.930,multiplicationStroop,2021.2.3,Win32,60.84945844,,,,,right,1,0.6323,0,58,58,33,1,2,4,2 | 4,2,1.9756,1.4111,incongruent,right,,,,,,stimulusFile/magnitude.xlsx,,,,,,,,,,,,,,,,,,,,,,,,,,,,,,,
,,,,,,,,,,,,,,,697,2022-02-05_14h46.31.930,multiplicationStroop,2021.2.3,Win32,60.84945844,,,,,right,1,0.5045,0,59,59,24,1,1,2,1 | 2,1,1.9756,1.4111,incongruent,right,,,,,,stimulusFile/magnitude.xlsx,,,,,,,,,,,,,,,,,,,,,,,,,,,,,,,
,,,,,,,,,,,,,,,697,2022-02-05_14h46.31.930,multiplicationStroop,2021.2.3,Win32,60.84945844,,,,,left,1,0.5245,0,60,60,38,1,8,6,8 | 6,2,1.4111,1.9756,incongruent,left,,,,,,stimulusFile/magnitude.xlsx,,,,,,,,,,,,,,,,,,,,,,,,,,,,,,,
,,,,,,,,,,,,,,,697,2022-02-05_14h46.31.930,multiplicationStroop,2021.2.3,Win32,60.84945844,,,,,right,1,0.3904,0,61,61,41,1,2,7,2 | 7,5,1.9756,1.4111,incongruent,right,,,,,,stimulusFile/magnitude.xlsx,,,,,,,,,,,,,,,,,,,,,,,,,,,,,,,
,,,,,,,,,,,,,,,697,2022-02-05_14h46.31.930,multiplicationStroop,2021.2.3,Win32,60.84945844,,,,,left,1,0.4502,0,62,62,63,1,9,7,9 | 7,2,1.6933,1.6933,neutral,left,,,,,,stimulusFile/magnitude.xlsx,,,,,,,,,,,,,,,,,,,,,,,,,,,,,,,
,,,,,,,,,,,,,,,697,2022-02-05_14h46.31.930,multiplicationStroop,2021.2.3,Win32,60.84945844,,,,,left,1,0.5063,0,63,63,12,1,3,1,3 | 1,2,1.9756,1.4111,congruent,left,,,,,,stimulusFile/magnitude.xlsx,,,,,,,,,,,,,,,,,,,,,,,,,,,,,,,
,,,,,,,,,,,,,,,697,2022-02-05_14h46.31.930,multiplicationStroop,2021.2.3,Win32,60.84945844,,,,,left,1,0.6669,0,64,64,28,1,2,1,2 | 1,1,1.4111,1.9756,incongruent,left,,,,,,stimulusFile/magnitude.xlsx,,,,,,,,,,,,,,,,,,,,,,,,,,,,,,,
,,,,,,,,,,,,,,,697,2022-02-05_14h46.31.930,multiplicationStroop,2021.2.3,Win32,60.84945844,,,,,right,1,0.3569,0,65,65,8,1,1,3,1 | 3,2,1.4111,1.9756,congruent,right,,,,,,stimulusFile/magnitude.xlsx,,,,,,,,,,,,,,,,,,,,,,,,,,,,,,,
,,,,,,,,,,,,,,,697,2022-02-05_14h46.31.930,multiplicationStroop,2021.2.3,Win32,60.84945844,,,,,left,1,0.3228,0,66,66,23,1,9,4,9 | 4,5,1.9756,1.4111,congruent,left,,,,,,stimulusFile/magnitude.xlsx,,,,,,,,,,,,,,,,,,,,,,,,,,,,,,,
,,,,,,,,,,,,,,,697,2022-02-05_14h46.31.930,multiplicationStroop,2021.2.3,Win32,60.84945844,,,,,right,1,0.4566,0,67,67,17,1,2,7,2 | 7,5,1.4111,1.9756,congruent,right,,,,,,stimulusFile/magnitude.xlsx,,,,,,,,,,,,,,,,,,,,,,,,,,,,,,,
,,,,,,,,,,,,,,,697,2022-02-05_14h46.31.930,multiplicationStroop,2021.2.3,Win32,60.84945844,,,,,left,1,0.3073,0,68,68,6,1,7,6,7 | 6,1,1.9756,1.4111,congruent,left,,,,,,stimulusFile/magnitude.xlsx,,,,,,,,,,,,,,,,,,,,,,,,,,,,,,,
,,,,,,,,,,,,,,,697,2022-02-05_14h46.31.930,multiplicationStroop,2021.2.3,Win32,60.84945844,,,,,right,1,0.5066,0,69,69,34,1,6,8,6 | 8,2,1.9756,1.4111,incongruent,right,,,,,,stimulusFile/magnitude.xlsx,,,,,,,,,,,,,,,,,,,,,,,,,,,,,,,
,,,,,,,,,,,,,,,697,2022-02-05_14h46.31.930,multiplicationStroop,2021.2.3,Win32,60.84945844,,,,,left,1,0.3343,0,70,70,39,1,9,7,9 | 7,2,1.4111,1.9756,incongruent,left,,,,,,stimulusFile/magnitude.xlsx,,,,,,,,,,,,,,,,,,,,,,,,,,,,,,,
,,,,,,,,,,,,,,,697,2022-02-05_14h46.31.930,multiplicationStroop,2021.2.3,Win32,60.84945844,,,,,left,1,0.6438,0,71,71,62,1,8,6,8 | 6,2,1.6933,1.6933,neutral,left,,,,,,stimulusFile/magnitude.xlsx,,,,,,,,,,,,,,,,,,,,,,,,,,,,,,,
,,,,,,,,,,,,,,,697,2022-02-05_14h46.31.930,multiplicationStroop,2021.2.3,Win32,60.84945844,,,,,,,,,,,,,,,,,,,,,0,0,0,0,1,stimulusFile/magnitude.xlsx,NUMERICALLY larger (larger coefficient).,images/numericallyLarger.png,,,,,,,,,,,,,,,,,,,,,,,,,,,,,
,,,,,,,,,,,,,,,697,2022-02-05_14h46.31.930,multiplicationStroop,2021.2.3,Win32,60.84945844,space,4.5721,space,1.5484,left,1,0.5591,0,0,0,40,1,1,6,1 | 6,5,1.9756,1.4111,incongruent,left,,,,,,stimulusFile/physical.xlsx,,,,,,,,,,,,,,,,,,,,,,,,,,,,,,,
,,,,,,,,,,,,,,,697,2022-02-05_14h46.31.930,multiplicationStroop,2021.2.3,Win32,60.84945844,,,,,left,1,0.3498,0,1,1,34,1,6,8,6 | 8,2,1.9756,1.4111,incongruent,left,,,,,,stimulusFile/physical.xlsx,,,,,,,,,,,,,,,,,,,,,,,,,,,,,,,
,,,,,,,,,,,,,,,697,2022-02-05_14h46.31.930,multiplicationStroop,2021.2.3,Win32,60.84945844,,,,,right,1,0.3885,0,2,2,65,1,2,2,2 | 2,0,1.4111,1.9756,neutral,right,,,,,,stimulusFile/physical.xlsx,,,,,,,,,,,,,,,,,,,,,,,,,,,,,,,
,,,,,,,,,,,,,,,697,2022-02-05_14h46.31.930,multiplicationStroop,2021.2.3,Win32,60.84945844,,,,,right,1,0.4172,0,3,3,58,1,6,6,6 | 6,0,1.4111,1.9756,neutral,right,,,,,,stimulusFile/physical.xlsx,,,,,,,,,,,,,,,,,,,,,,,,,,,,,,,
,,,,,,,,,,,,,,,697,2022-02-05_14h46.31.930,multiplicationStroop,2021.2.3,Win32,60.84945844,,,,,right,1,0.4842,0,4,4,37,1,4,2,4 | 2,2,1.4111,1.9756,incongruent,right,,,,,,stimulusFile/physical.xlsx,,,,,,,,,,,,,,,,,,,,,,,,,,,,,,,
,,,,,,,,,,,,,,,697,2022-02-05_14h46.31.930,multiplicationStroop,2021.2.3,Win32,60.84945844,,,,,left,1,0.3378,0,5,5,15,1,9,7,9 | 7,2,1.9756,1.4111,congruent,left,,,,,,stimulusFile/physical.xlsx,,,,,,,,,,,,,,,,,,,,,,,,,,,,,,,
,,,,,,,,,,,,,,,697,2022-02-05_14h46.31.930,multiplicationStroop,2021.2.3,Win32,60.84945844,,,,,left,1,0.3419,0,6,6,4,1,2,1,2 | 1,1,1.9756,1.4111,congruent,left,,,,,,stimulusFile/physical.xlsx,,,,,,,,,,,,,,,,,,,,,,,,,,,,,,,
,,,,,,,,,,,,,,,697,2022-02-05_14h46.31.930,multiplicationStroop,2021.2.3,Win32,60.84945844,,,,,right,1,0.3228,0,7,7,63,1,9,9,9 | 9,0,1.4111,1.9756,neutral,right,,,,,,stimulusFile/physical.xlsx,,,,,,,,,,,,,,,,,,,,,,,,,,,,,,,
,,,,,,,,,,,,,,,697,2022-02-05_14h46.31.930,multiplicationStroop,2021.2.3,Win32,60.84945844,,,,,right,1,0.495,0,8,8,59,1,7,7,7 | 7,0,1.4111,1.9756,neutral,right,,,,,,stimulusFile/physical.xlsx,,,,,,,,,,,,,,,,,,,,,,,,,,,,,,,
,,,,,,,,,,,,,,,697,2022-02-05_14h46.31.930,multiplicationStroop,2021.2.3,Win32,60.84945844,,,,,left,1,0.32,0,9,9,35,1,7,9,7 | 9,2,1.9756,1.4111,incongruent,left,,,,,,stimulusFile/physical.xlsx,,,,,,,,,,,,,,,,,,,,,,,,,,,,,,,
,,,,,,,,,,,,,,,697,2022-02-05_14h46.31.930,multiplicationStroop,2021.2.3,Win32,60.84945844,,,,,left,1,0.4839,0,10,10,42,1,3,8,3 | 8,5,1.9756,1.4111,incongruent,left,,,,,,stimulusFile/physical.xlsx,,,,,,,,,,,,,,,,,,,,,,,,,,,,,,,
,,,,,,,,,,,,,,,697,2022-02-05_14h46.31.930,multiplicationStroop,2021.2.3,Win32,60.84945844,,,,,left,1,0.3658,0,11,11,52,1,2,2,2 | 2,0,1.9756,1.4111,neutral,left,,,,,,stimulusFile/physical.xlsx,,,,,,,,,,,,,,,,,,,,,,,,,,,,,,,
,,,,,,,,,,,,,,,697,2022-02-05_14h46.31.930,multiplicationStroop,2021.2.3,Win32,60.84945844,,,,,left,1,0.4617,0,12,12,68,1,6,6,6 | 6,0,1.9756,1.4111,neutral,left,,,,,,stimulusFile/physical.xlsx,,,,,,,,,,,,,,,,,,,,,,,,,,,,,,,
,,,,,,,,,,,,,,,697,2022-02-05_14h46.31.930,multiplicationStroop,2021.2.3,Win32,60.84945844,,,,,left,1,0.2915,0,13,13,5,1,4,3,4 | 3,1,1.9756,1.4111,congruent,left,,,,,,stimulusFile/physical.xlsx,,,,,,,,,,,,,,,,,,,,,,,,,,,,,,,
,,,,,,,,,,,,,,,697,2022-02-05_14h46.31.930,multiplicationStroop,2021.2.3,Win32,60.84945844,,,,,left,1,0.4394,0,14,14,26,1,6,7,6 | 7,1,1.9756,1.4111,incongruent,left,,,,,,stimulusFile/physical.xlsx,,,,,,,,,,,,,,,,,,,,,,,,,,,,,,,
,,,,,,,,,,,,,,,697,2022-02-05_14h46.31.930,multiplicationStroop,2021.2.3,Win32,60.84945844,,,,,right,1,0.3838,0,15,15,11,1,7,9,7 | 9,2,1.4111,1.9756,congruent,right,,,,,,stimulusFile/physical.xlsx,,,,,,,,,,,,,,,,,,,,,,,,,,,,,,,
,,,,,,,,,,,,,,,697,2022-02-05_14h46.31.930,multiplicationStroop,2021.2.3,Win32,60.84945844,,,,,left,0,0.3218,0,16,16,1,1,3,4,3 | 4,1,1.4111,1.9756,congruent,right,,,,,,stimulusFile/physical.xlsx,,,,,,,,,,,,,,,,,,,,,,,,,,,,,,,
,,,,,,,,,,,,,,,697,2022-02-05_14h46.31.930,multiplicationStroop,2021.2.3,Win32,60.84945844,,,,,right,1,0.5509,0,17,17,19,1,4,9,4 | 9,5,1.4111,1.9756,congruent,right,,,,,,stimulusFile/physical.xlsx,,,,,,,,,,,,,,,,,,,,,,,,,,,,,,,
,,,,,,,,,,,,,,,697,2022-02-05_14h46.31.930,multiplicationStroop,2021.2.3,Win32,60.84945844,,,,,left,1,0.3834,0,18,18,55,1,9,9,9 | 9,0,1.9756,1.4111,neutral,left,,,,,,stimulusFile/physical.xlsx,,,,,,,,,,,,,,,,,,,,,,,,,,,,,,,
,,,,,,,,,,,,,,,697,2022-02-05_14h46.31.930,multiplicationStroop,2021.2.3,Win32,60.84945844,,,,,left,1,0.5027,0,19,19,49,1,3,3,3 | 3,0,1.9756,1.4111,neutral,left,,,,,,stimulusFile/physical.xlsx,,,,,,,,,,,,,,,,,,,,,,,,,,,,,,,
,,,,,,,,,,,,,,,697,2022-02-05_14h46.31.930,multiplicationStroop,2021.2.3,Win32,60.84945844,,,,,left,1,0.4168,0,20,20,54,1,7,7,7 | 7,0,1.9756,1.4111,neutral,left,,,,,,stimulusFile/physical.xlsx,,,,,,,,,,,,,,,,,,,,,,,,,,,,,,,
,,,,,,,,,,,,,,,697,2022-02-05_14h46.31.930,multiplicationStroop,2021.2.3,Win32,60.84945844,,,,,right,1,0.3519,0,21,21,18,1,3,8,3 | 8,5,1.4111,1.9756,congruent,right,,,,,,stimulusFile/physical.xlsx,,,,,,,,,,,,,,,,,,,,,,,,,,,,,,,
,,,,,,,,,,,,,,,697,2022-02-05_14h46.31.930,multiplicationStroop,2021.2.3,Win32,60.84945844,,,,,left,1,0.3495,0,22,22,27,1,8,9,8 | 9,1,1.9756,1.4111,incongruent,left,,,,,,stimulusFile/physical.xlsx,,,,,,,,,,,,,,,,,,,,,,,,,,,,,,,
,,,,,,,,,,,,,,,697,2022-02-05_14h46.31.930,multiplicationStroop,2021.2.3,Win32,60.84945844,,,,,right,1,0.3598,0,23,23,57,1,2,2,2 | 2,0,1.4111,1.9756,neutral,right,,,,,,stimulusFile/physical.xlsx,,,,,,,,,,,,,,,,,,,,,,,,,,,,,,,
,,,,,,,,,,,,,,,697,2022-02-05_14h46.31.930,multiplicationStroop,2021.2.3,Win32,60.84945844,,,,,left,0,0.3337,0,24,24,44,1,6,1,6 | 1,5,1.4111,1.9756,incongruent,right,,,,,,stimulusFile/physical.xlsx,,,,,,,,,,,,,,,,,,,,,,,,,,,,,,,
,,,,,,,,,,,,,,,697,2022-02-05_14h46.31.930,multiplicationStroop,2021.2.3,Win32,60.84945844,,,,,right,1,0.7169,0,25,25,29,1,4,3,4 | 3,1,1.4111,1.9756,incongruent,right,,,,,,stimulusFile/physical.xlsx,,,,,,,,,,,,,,,,,,,,,,,,,,,,,,,
,,,,,,,,,,,,,,,697,2022-02-05_14h46.31.930,multiplicationStroop,2021.2.3,Win32,60.84945844,,,,,right,1,0.4373,0,26,26,56,1,1,1,1 | 1,0,1.4111,1.9756,neutral,right,,,,,,stimulusFile/physical.xlsx,,,,,,,,,,,,,,,,,,,,,,,,,,,,,,,
,,,,,,,,,,,,,,,697,2022-02-05_14h46.31.930,multiplicationStroop,2021.2.3,Win32,60.84945844,,,,,left,1,0.3839,0,27,27,43,1,4,9,4 | 9,5,1.9756,1.4111,incongruent,left,,,,,,stimulusFile/physical.xlsx,,,,,,,,,,,,,,,,,,,,,,,,,,,,,,,
,,,,,,,,,,,,,,,697,2022-02-05_14h46.31.930,multiplicationStroop,2021.2.3,Win32,60.84945844,,,,,right,1,0.3007,0,28,28,16,1,1,6,1 | 6,5,1.4111,1.9756,congruent,right,,,,,,stimulusFile/physical.xlsx,,,,,,,,,,,,,,,,,,,,,,,,,,,,,,,
,,,,,,,,,,,,,,,697,2022-02-05_14h46.31.930,multiplicationStroop,2021.2.3,Win32,60.84945844,,,,,left,0,0.4866,0,29,29,66,1,3,3,3 | 3,0,1.9756,1.4111,neutral,right,,,,,,stimulusFile/physical.xlsx,,,,,,,,,,,,,,,,,,,,,,,,,,,,,,,
,,,,,,,,,,,,,,,697,2022-02-05_14h46.31.930,multiplicationStroop,2021.2.3,Win32,60.84945844,,,,,right,1,0.3161,0,30,30,2,1,6,7,6 | 7,1,1.4111,1.9756,congruent,right,,,,,,stimulusFile/physical.xlsx,,,,,,,,,,,,,,,,,,,,,,,,,,,,,,,
,,,,,,,,,,,,,,,697,2022-02-05_14h46.31.930,multiplicationStroop,2021.2.3,Win32,60.84945844,,,,,left,1,0.3386,0,31,31,41,1,2,7,2 | 7,5,1.9756,1.4111,incongruent,left,,,,,,stimulusFile/physical.xlsx,,,,,,,,,,,,,,,,,,,,,,,,,,,,,,,
,,,,,,,,,,,,,,,697,2022-02-05_14h46.31.930,multiplicationStroop,2021.2.3,Win32,60.84945844,,,,,right,1,0.3002,0,32,32,47,1,9,4,9 | 4,5,1.4111,1.9756,incongruent,right,,,,,,stimulusFile/physical.xlsx,,,,,,,,,,,,,,,,,,,,,,,,,,,,,,,
,,,,,,,,,,,,,,,697,2022-02-05_14h46.31.930,multiplicationStroop,2021.2.3,Win32,60.84945844,,,,,left,1,0.3061,0,33,33,32,1,1,3,1 | 3,2,1.9756,1.4111,incongruent,left,,,,,,stimulusFile/physical.xlsx,,,,,,,,,,,,,,,,,,,,,,,,,,,,,,,
,,,,,,,,,,,,,,,697,2022-02-05_14h46.31.930,multiplicationStroop,2021.2.3,Win32,60.84945844,,,,,right,0,0.2492,0,34,34,69,1,7,7,7 | 7,0,1.4111,1.9756,neutral,left,,,,,,stimulusFile/physical.xlsx,,,,,,,,,,,,,,,,,,,,,,,,,,,,,,,
,,,,,,,,,,,,,,,697,2022-02-05_14h46.31.930,multiplicationStroop,2021.2.3,Win32,60.84945844,,,,,left,1,0.2674,0,35,35,23,1,9,4,9 | 4,5,1.9756,1.4111,congruent,left,,,,,,stimulusFile/physical.xlsx,,,,,,,,,,,,,,,,,,,,,,,,,,,,,,,
,,,,,,,,,,,,,,,697,2022-02-05_14h46.31.930,multiplicationStroop,2021.2.3,Win32,60.84945844,,,,,left,1,0.4604,0,36,36,22,1,8,3,8 | 3,5,1.9756,1.4111,congruent,left,,,,,,stimulusFile/physical.xlsx,,,,,,,,,,,,,,,,,,,,,,,,,,,,,,,
,,,,,,,,,,,,,,,697,2022-02-05_14h46.31.930,multiplicationStroop,2021.2.3,Win32,60.84945844,,,,,left,1,0.2669,0,37,37,14,1,8,6,8 | 6,2,1.9756,1.4111,congruent,left,,,,,,stimulusFile/physical.xlsx,,,,,,,,,,,,,,,,,,,,,,,,,,,,,,,
,,,,,,,,,,,,,,,697,2022-02-05_14h46.31.930,multiplicationStroop,2021.2.3,Win32,60.84945844,,,,,left,1,0.3712,0,38,38,6,1,7,6,7 | 6,1,1.9756,1.4111,congruent,left,,,,,,stimulusFile/physical.xlsx,,,,,,,,,,,,,,,,,,,,,,,,,,,,,,,
,,,,,,,,,,,,,,,697,2022-02-05_14h46.31.930,multiplicationStroop,2021.2.3,Win32,60.84945844,,,,,left,1,0.4389,0,39,39,50,1,6,6,6 | 6,0,1.9756,1.4111,neutral,left,,,,,,stimulusFile/physical.xlsx,,,,,,,,,,,,,,,,,,,,,,,,,,,,,,,
,,,,,,,,,,,,,,,697,2022-02-05_14h46.31.930,multiplicationStroop,2021.2.3,Win32,60.84945844,,,,,right,1,0.4596,0,40,40,3,1,8,9,8 | 9,1,1.4111,1.9756,congruent,right,,,,,,stimulusFile/physical.xlsx,,,,,,,,,,,,,,,,,,,,,,,,,,,,,,,
,,,,,,,,,,,,,,,697,2022-02-05_14h46.31.930,multiplicationStroop,2021.2.3,Win32,60.84945844,,,,,left,1,0.2768,0,41,41,13,1,4,2,4 | 2,2,1.9756,1.4111,congruent,left,,,,,,stimulusFile/physical.xlsx,,,,,,,,,,,,,,,,,,,,,,,,,,,,,,,
,,,,,,,,,,,,,,,697,2022-02-05_14h46.31.930,multiplicationStroop,2021.2.3,Win32,60.84945844,,,,,right,1,0.2556,0,42,42,17,1,2,7,2 | 7,5,1.4111,1.9756,congruent,right,,,,,,stimulusFile/physical.xlsx,,,,,,,,,,,,,,,,,,,,,,,,,,,,,,,
,,,,,,,,,,,,,,,697,2022-02-05_14h46.31.930,multiplicationStroop,2021.2.3,Win32,60.84945844,,,,,left,1,0.2499,0,43,43,71,1,9,9,9 | 9,0,1.4111,1.9756,neutral,left,,,,,,stimulusFile/physical.xlsx,,,,,,,,,,,,,,,,,,,,,,,,,,,,,,,
,,,,,,,,,,,,,,,697,2022-02-05_14h46.31.930,multiplicationStroop,2021.2.3,Win32,60.84945844,,,,,left,1,0.4506,0,44,44,20,1,6,1,6 | 1,5,1.9756,1.4111,congruent,left,,,,,,stimulusFile/physical.xlsx,,,,,,,,,,,,,,,,,,,,,,,,,,,,,,,
,,,,,,,,,,,,,,,697,2022-02-05_14h46.31.930,multiplicationStroop,2021.2.3,Win32,60.84945844,,,,,right,1,0.538,0,45,45,46,1,8,3,8 | 3,5,1.4111,1.9756,incongruent,right,,,,,,stimulusFile/physical.xlsx,,,,,,,,,,,,,,,,,,,,,,,,,,,,,,,
,,,,,,,,,,,,,,,697,2022-02-05_14h46.31.930,multiplicationStroop,2021.2.3,Win32,60.84945844,,,,,left,1,0.2447,0,46,46,24,1,1,2,1 | 2,1,1.9756,1.4111,incongruent,left,,,,,,stimulusFile/physical.xlsx,,,,,,,,,,,,,,,,,,,,,,,,,,,,,,,
,,,,,,,,,,,,,,,697,2022-02-05_14h46.31.930,multiplicationStroop,2021.2.3,Win32,60.84945844,,,,,right,1,0.4709,0,47,47,28,1,2,1,2 | 1,1,1.4111,1.9756,incongruent,right,,,,,,stimulusFile/physical.xlsx,,,,,,,,,,,,,,,,,,,,,,,,,,,,,,,
,,,,,,,,,,,,,,,697,2022-02-05_14h46.31.930,multiplicationStroop,2021.2.3,Win32,60.84945844,,,,,left,1,0.2999,0,48,48,12,1,3,1,3 | 1,2,1.9756,1.4111,congruent,left,,,,,,stimulusFile/physical.xlsx,,,,,,,,,,,,,,,,,,,,,,,,,,,,,,,
,,,,,,,,,,,,,,,697,2022-02-05_14h46.31.930,multiplicationStroop,2021.2.3,Win32,60.84945844,,,,,right,1,0.4164,0,49,49,36,1,3,1,3 | 1,2,1.4111,1.9756,incongruent,right,,,,,,stimulusFile/physical.xlsx,,,,,,,,,,,,,,,,,,,,,,,,,,,,,,,
,,,,,,,,,,,,,,,697,2022-02-05_14h46.31.930,multiplicationStroop,2021.2.3,Win32,60.84945844,,,,,left,1,0.2662,0,50,50,53,1,4,4,4 | 4,0,1.9756,1.4111,neutral,left,,,,,,stimulusFile/physical.xlsx,,,,,,,,,,,,,,,,,,,,,,,,,,,,,,,
,,,,,,,,,,,,,,,697,2022-02-05_14h46.31.930,multiplicationStroop,2021.2.3,Win32,60.84945844,,,,,right,0,0.2699,0,51,51,33,1,2,4,2 | 4,2,1.9756,1.4111,incongruent,left,,,,,,stimulusFile/physical.xlsx,,,,,,,,,,,,,,,,,,,,,,,,,,,,,,,
,,,,,,,,,,,,,,,697,2022-02-05_14h46.31.930,multiplicationStroop,2021.2.3,Win32,60.84945844,,,,,right,1,0.5336,0,52,52,45,1,7,2,7 | 2,5,1.4111,1.9756,incongruent,right,,,,,,stimulusFile/physical.xlsx,,,,,,,,,,,,,,,,,,,,,,,,,,,,,,,
,,,,,,,,,,,,,,,697,2022-02-05_14h46.31.930,multiplicationStroop,2021.2.3,Win32,60.84945844,,,,,left,0,0.3172,0,53,53,64,1,1,1,1 | 1,0,1.9756,1.4111,neutral,right,,,,,,stimulusFile/physical.xlsx,,,,,,,,,,,,,,,,,,,,,,,,,,,,,,,
,,,,,,,,,,,,,,,697,2022-02-05_14h46.31.930,multiplicationStroop,2021.2.3,Win32,60.84945844,,,,,right,1,0.4095,0,54,54,62,1,8,8,8 | 8,0,1.4111,1.9756,neutral,right,,,,,,stimulusFile/physical.xlsx,,,,,,,,,,,,,,,,,,,,,,,,,,,,,,,
,,,,,,,,,,,,,,,697,2022-02-05_14h46.31.930,multiplicationStroop,2021.2.3,Win32,60.84945844,,,,,right,1,0.5006,0,55,55,10,1,6,8,6 | 8,2,1.4111,1.9756,congruent,right,,,,,,stimulusFile/physical.xlsx,,,,,,,,,,,,,,,,,,,,,,,,,,,,,,,
,,,,,,,,,,,,,,,697,2022-02-05_14h46.31.930,multiplicationStroop,2021.2.3,Win32,60.84945844,,,,,left,0,0.317,0,56,56,60,1,3,3,3 | 3,0,1.4111,1.9756,neutral,right,,,,,,stimulusFile/physical.xlsx,,,,,,,,,,,,,,,,,,,,,,,,,,,,,,,
,,,,,,,,,,,,,,,697,2022-02-05_14h46.31.930,multiplicationStroop,2021.2.3,Win32,60.84945844,,,,,right,1,0.5511,0,57,57,0,1,1,2,1 | 2,1,1.4111,1.9756,congruent,right,,,,,,stimulusFile/physical.xlsx,,,,,,,,,,,,,,,,,,,,,,,,,,,,,,,
,,,,,,,,,,,,,,,697,2022-02-05_14h46.31.930,multiplicationStroop,2021.2.3,Win32,60.84945844,,,,,right,1,0.4163,0,58,58,38,1,8,6,8 | 6,2,1.4111,1.9756,incongruent,right,,,,,,stimulusFile/physical.xlsx,,,,,,,,,,,,,,,,,,,,,,,,,,,,,,,
,,,,,,,,,,,,,,,697,2022-02-05_14h46.31.930,multiplicationStroop,2021.2.3,Win32,60.84945844,,,,,right,1,0.4014,0,59,59,9,1,2,4,2 | 4,2,1.4111,1.9756,congruent,right,,,,,,stimulusFile/physical.xlsx,,,,,,,,,,,,,,,,,,,,,,,,,,,,,,,
,,,,,,,,,,,,,,,697,2022-02-05_14h46.31.930,multiplicationStroop,2021.2.3,Win32,60.84945844,,,,,right,1,0.2987,0,60,60,31,1,9,8,9 | 8,1,1.4111,1.9756,incongruent,right,,,,,,stimulusFile/physical.xlsx,,,,,,,,,,,,,,,,,,,,,,,,,,,,,,,
,,,,,,,,,,,,,,,697,2022-02-05_14h46.31.930,multiplicationStroop,2021.2.3,Win32,60.84945844,,,,,left,1,0.4406,0,61,61,21,1,7,2,7 | 2,5,1.9756,1.4111,congruent,left,,,,,,stimulusFile/physical.xlsx,,,,,,,,,,,,,,,,,,,,,,,,,,,,,,,
,,,,,,,,,,,,,,,697,2022-02-05_14h46.31.930,multiplicationStroop,2021.2.3,Win32,60.84945844,,,,,left,0,0.2562,0,62,62,8,1,1,3,1 | 3,2,1.4111,1.9756,congruent,right,,,,,,stimulusFile/physical.xlsx,,,,,,,,,,,,,,,,,,,,,,,,,,,,,,,
,,,,,,,,,,,,,,,697,2022-02-05_14h46.31.930,multiplicationStroop,2021.2.3,Win32,60.84945844,,,,,right,1,0.5247,0,63,63,30,1,7,6,7 | 6,1,1.4111,1.9756,incongruent,right,,,,,,stimulusFile/physical.xlsx,,,,,,,,,,,,,,,,,,,,,,,,,,,,,,,
,,,,,,,,,,,,,,,697,2022-02-05_14h46.31.930,multiplicationStroop,2021.2.3,Win32,60.84945844,,,,,left,1,0.4498,0,64,64,7,1,9,8,9 | 8,1,1.9756,1.4111,congruent,left,,,,,,stimulusFile/physical.xlsx,,,,,,,,,,,,,,,,,,,,,,,,,,,,,,,
,,,,,,,,,,,,,,,697,2022-02-05_14h46.31.930,multiplicationStroop,2021.2.3,Win32,60.84945844,,,,,right,1,0.4164,0,65,65,67,1,4,4,4 | 4,0,1.4111,1.9756,neutral,right,,,,,,stimulusFile/physical.xlsx,,,,,,,,,,,,,,,,,,,,,,,,,,,,,,,
,,,,,,,,,,,,,,,697,2022-02-05_14h46.31.930,multiplicationStroop,2021.2.3,Win32,60.84945844,,,,,left,1,0.6327,0,66,66,51,1,8,8,8 | 8,0,1.9756,1.4111,neutral,left,,,,,,stimulusFile/physical.xlsx,,,,,,,,,,,,,,,,,,,,,,,,,,,,,,,
,,,,,,,,,,,,,,,697,2022-02-05_14h46.31.930,multiplicationStroop,2021.2.3,Win32,60.84945844,,,,,left,1,0.367,0,67,67,48,1,1,1,1 | 1,0,1.9756,1.4111,neutral,left,,,,,,stimulusFile/physical.xlsx,,,,,,,,,,,,,,,,,,,,,,,,,,,,,,,
,,,,,,,,,,,,,,,697,2022-02-05_14h46.31.930,multiplicationStroop,2021.2.3,Win32,60.84945844,,,,,left,0,0.3203,0,68,68,39,1,9,7,9 | 7,2,1.4111,1.9756,incongruent,right,,,,,,stimulusFile/physical.xlsx,,,,,,,,,,,,,,,,,,,,,,,,,,,,,,,
,,,,,,,,,,,,,,,697,2022-02-05_14h46.31.930,multiplicationStroop,2021.2.3,Win32,60.84945844,,,,,left,1,0.5899,0,69,69,70,1,8,8,8 | 8,0,1.9756,1.4111,neutral,left,,,,,,stimulusFile/physical.xlsx,,,,,,,,,,,,,,,,,,,,,,,,,,,,,,,
,,,,,,,,,,,,,,,697,2022-02-05_14h46.31.930,multiplicationStroop,2021.2.3,Win32,60.84945844,,,,,left,1,0.5039,0,70,70,25,1,3,4,3 | 4,1,1.9756,1.4111,incongruent,left,,,,,,stimulusFile/physical.xlsx,,,,,,,,,,,,,,,,,,,,,,,,,,,,,,,
,,,,,,,,,,,,,,,697,2022-02-05_14h46.31.930,multiplicationStroop,2021.2.3,Win32,60.84945844,,,,,right,1,0.4618,0,71,71,61,1,4,4,4 | 4,0,1.4111,1.9756,neutral,right,,,,,,stimulusFile/physical.xlsx,,,,,,,,,,,,,,,,,,,,,,,,,,,,,,,
,,,,,,,,,,,,,,,697,2022-02-05_14h46.31.930,multiplicationStroop,2021.2.3,Win32,60.84945844,,,,,,,,,,,,,,,,,,,,,0,1,1,1,1,stimulusFile/physical.xlsx,PHYSICALLY larger (larger font size).,images/physicallyLarger.png,,,,,,,,,,,,,,,,,,,,,,,,,,,,,
,,,,,,,,,,,,,,,697,2022-02-05_14h46.31.930,multiplicationStroop,2021.2.3,Win32,60.84945844,,,,,,,,,,,,,,,,,,,,,,,,,,,,,space,6.951,space,2.4297,27,5.283,1,0,0,0,0,1,3,×,9,3 × 9,neutral,smallerFirst,1.5,1.5,27,,,,,,,,
,,,,,,,,,,,,,,,697,2022-02-05_14h46.31.930,multiplicationStroop,2021.2.3,Win32,60.84945844,,,,,,,,,,,,,,,,,,,,,,,,,,,,,,,,,49,1.9578,1,0,1,1,33,1,7,×,7,7 × 7,neutral,tie,1.5,1.5,49,,,,,,,,
,,,,,,,,,,,,,,,697,2022-02-05_14h46.31.930,multiplicationStroop,2021.2.3,Win32,60.84945844,,,,,,,,,,,,,,,,,,,,,,,,,,,,,,,,,8,3.2328,1,0,2,2,17,1,4,×,2,4 × 2,neutral,largerFirst,1.5,1.5,8,,,,,,,,
,,,,,,,,,,,,,,,697,2022-02-05_14h46.31.930,multiplicationStroop,2021.2.3,Win32,60.84945844,,,,,,,,,,,,,,,,,,,,,,,,,,,,,,,,,56,1.7566,1,0,3,3,23,1,8,×,7,8 × 7,neutral,largerFirst,1.5,1.5,56,,,,,,,,
,,,,,,,,,,,,,,,697,2022-02-05_14h46.31.930,multiplicationStroop,2021.2.3,Win32,60.84945844,,,,,,,,,,,,,,,,,,,,,,,,,,,,,,,,,36,2.1999,1,0,4,4,13,1,4,×,9,4 × 9,neutral,smallerFirst,1.5,1.5,36,,,,,,,,
,,,,,,,,,,,,,,,697,2022-02-05_14h46.31.930,multiplicationStroop,2021.2.3,Win32,60.84945844,,,,,,,,,,,,,,,,,,,,,,,,,,,,,,,,,48,2.2655,1,0,5,5,1,1,6,×,8,6 × 8,neutral,smallerFirst,1.5,1.5,48,,,,,,,,
,,,,,,,,,,,,,,,697,2022-02-05_14h46.31.930,multiplicationStroop,2021.2.3,Win32,60.84945844,,,,,,,,,,,,,,,,,,,,,,,,,,,,,,,,,18,1.3667,1,0,6,6,4,1,2,×,9,2 × 9,neutral,smallerFirst,1.5,1.5,18,,,,,,,,
,,,,,,,,,,,,,,,697,2022-02-05_14h46.31.930,multiplicationStroop,2021.2.3,Win32,60.84945844,,,,,,,,,,,,,,,,,,,,,,,,,,,,,,,,,15,1.7824,1,0,7,7,19,1,5,×,3,5 × 3,neutral,largerFirst,1.5,1.5,15,,,,,,,,
,,,,,,,,,,,,,,,697,2022-02-05_14h46.31.930,multiplicationStroop,2021.2.3,Win32,60.84945844,,,,,,,,,,,,,,,,,,,,,,,,,,,,,,,,,30,2.0998,1,0,8,8,5,1,5,×,6,5 × 6,neutral,smallerFirst,1.5,1.5,30,,,,,,,,
,,,,,,,,,,,,,,,697,2022-02-05_14h46.31.930,multiplicationStroop,2021.2.3,Win32,60.84945844,,,,,,,,,,,,,,,,,,,,,,,,,,,,,,,,,12,1.1498,1,0,9,9,7,1,3,×,4,3 × 4,neutral,smallerFirst,1.5,1.5,12,,,,,,,,
,,,,,,,,,,,,,,,697,2022-02-05_14h46.31.930,multiplicationStroop,2021.2.3,Win32,60.84945844,,,,,,,,,,,,,,,,,,,,,,,,,,,,,,,,,18,2.0492,0,0,10,10,8,1,3,×,8,3 × 8,neutral,smallerFirst,1.5,1.5,24,,,,,,,,
,,,,,,,,,,,,,,,697,2022-02-05_14h46.31.930,multiplicationStroop,2021.2.3,Win32,60.84945844,,,,,,,,,,,,,,,,,,,,,,,,,,,,,,,,,36,3.4491,0,0,11,11,20,1,7,×,6,7 × 6,neutral,largerFirst,1.5,1.5,42,,,,,,,,
,,,,,,,,,,,,,,,697,2022-02-05_14h46.31.930,multiplicationStroop,2021.2.3,Win32,60.84945844,,,,,,,,,,,,,,,,,,,,,,,,,,,,,,,,,36,2.7392,1,0,12,12,32,1,6,×,6,6 × 6,neutral,tie,1.5,1.5,36,,,,,,,,
,,,,,,,,,,,,,,,697,2022-02-05_14h46.31.930,multiplicationStroop,2021.2.3,Win32,60.84945844,,,,,,,,,,,,,,,,,,,,,,,,,,,,,,,,,25,3.1642,1,0,13,13,31,1,5,×,5,5 × 5,neutral,tie,1.5,1.5,25,,,,,,,,
,,,,,,,,,,,,,,,697,2022-02-05_14h46.31.930,multiplicationStroop,2021.2.3,Win32,60.84945844,,,,,,,,,,,,,,,,,,,,,,,,,,,,,,,,,14,1.3748,1,0,14,14,2,1,2,×,7,2 × 7,neutral,smallerFirst,1.5,1.5,14,,,,,,,,
,,,,,,,,,,,,,,,697,2022-02-05_14h46.31.930,multiplicationStroop,2021.2.3,Win32,60.84945844,,,,,,,,,,,,,,,,,,,,,,,,,,,,,,,,,72,5.5493,1,0,15,15,25,1,9,×,8,9 × 8,neutral,largerFirst,1.5,1.5,72,,,,,,,,
,,,,,,,,,,,,,,,697,2022-02-05_14h46.31.930,multiplicationStroop,2021.2.3,Win32,60.84945844,,,,,,,,,,,,,,,,,,,,,,,,,,,,,,,,,21,1.8406,1,0,16,16,22,1,7,×,3,7 × 3,neutral,largerFirst,1.5,1.5,21,,,,,,,,
,,,,,,,,,,,,,,,697,2022-02-05_14h46.31.930,multiplicationStroop,2021.2.3,Win32,60.84945844,,,,,,,,,,,,,,,,,,,,,,,,,,,,,,,,,81,1.6155,1,0,17,17,35,1,9,×,9,9 × 9,neutral,tie,1.5,1.5,81,,,,,,,,
,,,,,,,,,,,,,,,697,2022-02-05_14h46.31.930,multiplicationStroop,2021.2.3,Win32,60.84945844,,,,,,,,,,,,,,,,,,,,,,,,,,,,,,,,,10,1.3831,1,0,18,18,18,1,5,×,2,5 × 2,neutral,largerFirst,1.5,1.5,10,,,,,,,,
,,,,,,,,,,,,,,,697,2022-02-05_14h46.31.930,multiplicationStroop,2021.2.3,Win32,60.84945844,,,,,,,,,,,,,,,,,,,,,,,,,,,,,,,,,9,1.866,1,0,19,19,29,1,3,×,3,3 × 3,neutral,tie,1.5,1.5,9,,,,,,,,
,,,,,,,,,,,,,,,697,2022-02-05_14h46.31.930,multiplicationStroop,2021.2.3,Win32,60.84945844,,,,,,,,,,,,,,,,,,,,,,,,,,,,,,,,,32,2.6153,1,0,20,20,9,1,4,×,8,4 × 8,neutral,smallerFirst,1.5,1.5,32,,,,,,,,
,,,,,,,,,,,,,,,697,2022-02-05_14h46.31.930,multiplicationStroop,2021.2.3,Win32,60.84945844,,,,,,,,,,,,,,,,,,,,,,,,,,,,,,,,,28,1.9333,1,0,21,21,3,1,4,×,7,4 × 7,neutral,smallerFirst,1.5,1.5,28,,,,,,,,
,,,,,,,,,,,,,,,697,2022-02-05_14h46.31.930,multiplicationStroop,2021.2.3,Win32,60.84945844,,,,,,,,,,,,,,,,,,,,,,,,,,,,,,,,,16,2.2161,1,0,22,22,30,1,4,×,4,4 × 4,neutral,tie,1.5,1.5,16,,,,,,,,
,,,,,,,,,,,,,,,697,2022-02-05_14h46.31.930,multiplicationStroop,2021.2.3,Win32,60.84945844,,,,,,,,,,,,,,,,,,,,,,,,,,,,,,,,,24,1.7828,1,0,23,23,16,1,6,×,4,6 × 4,neutral,largerFirst,1.5,1.5,24,,,,,,,,
,,,,,,,,,,,,,,,697,2022-02-05_14h46.31.930,multiplicationStroop,2021.2.3,Win32,60.84945844,,,,,,,,,,,,,,,,,,,,,,,,,,,,,,,,,6,1.9161,1,0,24,24,12,1,2,×,3,2 × 3,neutral,smallerFirst,1.5,1.5,6,,,,,,,,
,,,,,,,,,,,,,,,697,2022-02-05_14h46.31.930,multiplicationStroop,2021.2.3,Win32,60.84945844,,,,,,,,,,,,,,,,,,,,,,,,,,,,,,,,,4,1.4492,1,0,25,25,28,1,2,×,2,2 × 2,neutral,tie,1.5,1.5,4,,,,,,,,
,,,,,,,,,,,,,,,697,2022-02-05_14h46.31.930,multiplicationStroop,2021.2.3,Win32,60.84945844,,,,,,,,,,,,,,,,,,,,,,,,,,,,,,,,,20,1.7825,1,0,26,26,6,1,4,×,5,4 × 5,neutral,smallerFirst,1.5,1.5,20,,,,,,,,
,,,,,,,,,,,,,,,697,2022-02-05_14h46.31.930,multiplicationStroop,2021.2.3,Win32,60.84945844,,,,,,,,,,,,,,,,,,,,,,,,,,,,,,,,,35,2.2835,1,0,27,27,15,1,7,×,5,7 × 5,neutral,largerFirst,1.5,1.5,35,,,,,,,,
,,,,,,,,,,,,,,,697,2022-02-05_14h46.31.930,multiplicationStroop,2021.2.3,Win32,60.84945844,,,,,,,,,,,,,,,,,,,,,,,,,,,,,,,,,18,1.732,1,0,28,28,14,1,6,×,3,6 × 3,neutral,largerFirst,1.5,1.5,18,,,,,,,,
,,,,,,,,,,,,,,,697,2022-02-05_14h46.31.930,multiplicationStroop,2021.2.3,Win32,60.84945844,,,,,,,,,,,,,,,,,,,,,,,,,,,,,,,,,64,2.4997,1,0,29,29,34,1,8,×,8,8 × 8,neutral,tie,1.5,1.5,64,,,,,,,,
,,,,,,,,,,,,,,,697,2022-02-05_14h46.31.930,multiplicationStroop,2021.2.3,Win32,60.84945844,,,,,,,,,,,,,,,,,,,,,,,,,,,,,,,,,45,2.3829,1,0,30,30,24,1,9,×,5,9 × 5,neutral,largerFirst,1.5,1.5,45,,,,,,,,
,,,,,,,,,,,,,,,697,2022-02-05_14h46.31.930,multiplicationStroop,2021.2.3,Win32,60.84945844,,,,,,,,,,,,,,,,,,,,,,,,,,,,,,,,,54,4.697,1,0,31,31,21,1,9,×,6,9 × 6,neutral,largerFirst,1.5,1.5,54,,,,,,,,
,,,,,,,,,,,,,,,697,2022-02-05_14h46.31.930,multiplicationStroop,2021.2.3,Win32,60.84945844,,,,,,,,,,,,,,,,,,,,,,,,,,,,,,,,,63,2.0239,1,0,32,32,26,1,9,×,7,9 × 7,neutral,largerFirst,1.5,1.5,63,,,,,,,,
,,,,,,,,,,,,,,,697,2022-02-05_14h46.31.930,multiplicationStroop,2021.2.3,Win32,60.84945844,,,,,,,,,,,,,,,,,,,,,,,,,,,,,,,,,12,1.466,1,0,33,33,11,1,2,×,6,2 × 6,neutral,smallerFirst,1.5,1.5,12,,,,,,,,
,,,,,,,,,,,,,,,697,2022-02-05_14h46.31.930,multiplicationStroop,2021.2.3,Win32,60.84945844,,,,,,,,,,,,,,,,,,,,,,,,,,,,,,,,,16,1.6823,1,0,34,34,27,1,8,×,2,8 × 2,neutral,largerFirst,1.5,1.5,16,,,,,,,,
,,,,,,,,,,,,,,,697,2022-02-05_14h46.31.930,multiplicationStroop,2021.2.3,Win32,60.84945844,,,,,,,,,,,,,,,,,,,,,,,,,,,,,,,,,40,2.2328,1,0,35,35,10,1,5,×,8,5 × 8,neutral,smallerFirst,1.5,1.5,40,,,,,,,,
,,,,,,,,,,,,,,,697,2022-02-05_14h46.31.930,multiplicationStroop,2021.2.3,Win32,60.84945844,,,,,,,,,,,,,,,,,,,,,,,,,,,,,,,,,,,,,,,,,,,,,,,,,,0,0,0,0,1,stimulusFile/mult_blk1.xlsx,,
,,,,,,,,,,,,,,,697,2022-02-05_14h46.31.930,multiplicationStroop,2021.2.3,Win32,60.84945844,,,,,,,,,,,,,,,,,,,,,,,,,,,,,,,space,1.3699,81,2.6587,1,0,0,0,35,1,9,×,9,9 × 9,neutral,tie,1.5,1.5,81,,,,,,,,
,,,,,,,,,,,,,,,697,2022-02-05_14h46.31.930,multiplicationStroop,2021.2.3,Win32,60.84945844,,,,,,,,,,,,,,,,,,,,,,,,,,,,,,,,,35,1.8483,1,0,1,1,1,1,5,×,7,5 × 7,neutral,smallerFirst,1.5,1.5,35,,,,,,,,
,,,,,,,,,,,,,,,697,2022-02-05_14h46.31.930,multiplicationStroop,2021.2.3,Win32,60.84945844,,,,,,,,,,,,,,,,,,,,,,,,,,,,,,,,,63,2.3995,1,0,2,2,12,1,7,×,9,7 × 9,neutral,smallerFirst,1.5,1.5,63,,,,,,,,
,,,,,,,,,,,,,,,697,2022-02-05_14h46.31.930,multiplicationStroop,2021.2.3,Win32,60.84945844,,,,,,,,,,,,,,,,,,,,,,,,,,,,,,,,,24,1.6662,1,0,3,3,2,1,4,×,6,4 × 6,neutral,smallerFirst,1.5,1.5,24,,,,,,,,
,,,,,,,,,,,,,,,697,2022-02-05_14h46.31.930,multiplicationStroop,2021.2.3,Win32,60.84945844,,,,,,,,,,,,,,,,,,,,,,,,,,,,,,,,,35,2.3995,0,0,4,4,27,1,9,×,4,9 × 4,neutral,largerFirst,1.5,1.5,36,,,,,,,,
,,,,,,,,,,,,,,,697,2022-02-05_14h46.31.930,multiplicationStroop,2021.2.3,Win32,60.84945844,,,,,,,,,,,,,,,,,,,,,,,,,,,,,,,,,16,1.6999,1,0,5,5,13,1,2,×,8,2 × 8,neutral,smallerFirst,1.5,1.5,16,,,,,,,,
,,,,,,,,,,,,,,,697,2022-02-05_14h46.31.930,multiplicationStroop,2021.2.3,Win32,60.84945844,,,,,,,,,,,,,,,,,,,,,,,,,,,,,,,,,36,2.5332,1,0,6,6,32,1,6,×,6,6 × 6,neutral,tie,1.5,1.5,36,,,,,,,,
,,,,,,,,,,,,,,,697,2022-02-05_14h46.31.930,multiplicationStroop,2021.2.3,Win32,60.84945844,,,,,,,,,,,,,,,,,,,,,,,,,,,,,,,,,24,2.1989,1,0,7,7,22,1,8,×,3,8 × 3,neutral,largerFirst,1.5,1.5,24,,,,,,,,
,,,,,,,,,,,,,,,697,2022-02-05_14h46.31.930,multiplicationStroop,2021.2.3,Win32,60.84945844,,,,,,,,,,,,,,,,,,,,,,,,,,,,,,,,,12,1.2363,1,0,8,8,21,1,4,×,3,4 × 3,neutral,largerFirst,1.5,1.5,12,,,,,,,,
,,,,,,,,,,,,,,,697,2022-02-05_14h46.31.930,multiplicationStroop,2021.2.3,Win32,60.84945844,,,,,,,,,,,,,,,,,,,,,,,,,,,,,,,,,24,1.3955,0,0,9,9,30,1,4,×,4,4 × 4,neutral,tie,1.5,1.5,16,,,,,,,,
,,,,,,,,,,,,,,,697,2022-02-05_14h46.31.930,multiplicationStroop,2021.2.3,Win32,60.84945844,,,,,,,,,,,,,,,,,,,,,,,,,,,,,,,,,12,2.9996,1,0,10,10,25,1,6,×,2,6 × 2,neutral,largerFirst,1.5,1.5,12,,,,,,,,
,,,,,,,,,,,,,,,697,2022-02-05_14h46.31.930,multiplicationStroop,2021.2.3,Win32,60.84945844,,,,,,,,,,,,,,,,,,,,,,,,,,,,,,,,,18,1.9665,1,0,11,11,0,1,3,×,6,3 × 6,neutral,smallerFirst,1.5,1.5,18,,,,,,,,
,,,,,,,,,,,,,,,697,2022-02-05_14h46.31.930,multiplicationStroop,2021.2.3,Win32,60.84945844,,,,,,,,,,,,,,,,,,,,,,,,,,,,,,,,,15,1.5153,1,0,12,12,5,1,3,×,5,3 × 5,neutral,smallerFirst,1.5,1.5,15,,,,,,,,
,,,,,,,,,,,,,,,697,2022-02-05_14h46.31.930,multiplicationStroop,2021.2.3,Win32,60.84945844,,,,,,,,,,,,,,,,,,,,,,,,,,,,,,,,,64,2.6665,1,0,13,13,34,1,8,×,8,8 × 8,neutral,tie,1.5,1.5,64,,,,,,,,
,,,,,,,,,,,,,,,697,2022-02-05_14h46.31.930,multiplicationStroop,2021.2.3,Win32,60.84945844,,,,,,,,,,,,,,,,,,,,,,,,,,,,,,,,,56,2.3664,1,0,14,14,9,1,7,×,8,7 × 8,neutral,smallerFirst,1.5,1.5,56,,,,,,,,
,,,,,,,,,,,,,,,697,2022-02-05_14h46.31.930,multiplicationStroop,2021.2.3,Win32,60.84945844,,,,,,,,,,,,,,,,,,,,,,,,,,,,,,,,,27,4.3333,1,0,15,15,14,1,9,×,3,9 × 3,neutral,largerFirst,1.5,1.5,27,,,,,,,,
,,,,,,,,,,,,,,,697,2022-02-05_14h46.31.930,multiplicationStroop,2021.2.3,Win32,60.84945844,,,,,,,,,,,,,,,,,,,,,,,,,,,,,,,,,14,2.1737,1,0,16,16,16,1,7,×,2,7 × 2,neutral,largerFirst,1.5,1.5,14,,,,,,,,
,,,,,,,,,,,,,,,697,2022-02-05_14h46.31.930,multiplicationStroop,2021.2.3,Win32,60.84945844,,,,,,,,,,,,,,,,,,,,,,,,,,,,,,,,,28,2.0325,1,0,17,17,17,1,7,×,4,7 × 4,neutral,largerFirst,1.5,1.5,28,,,,,,,,
,,,,,,,,,,,,,,,697,2022-02-05_14h46.31.930,multiplicationStroop,2021.2.3,Win32,60.84945844,,,,,,,,,,,,,,,,,,,,,,,,,,,,,,,,,42,5.0668,1,0,18,18,6,1,6,×,7,6 × 7,neutral,smallerFirst,1.5,1.5,42,,,,,,,,
,,,,,,,,,,,,,,,697,2022-02-05_14h46.31.930,multiplicationStroop,2021.2.3,Win32,60.84945844,,,,,,,,,,,,,,,,,,,,,,,,,,,,,,,,,72,2.8887,1,0,19,19,11,1,8,×,9,8 × 9,neutral,smallerFirst,1.5,1.5,72,,,,,,,,
,,,,,,,,,,,,,,,697,2022-02-05_14h46.31.930,multiplicationStroop,2021.2.3,Win32,60.84945844,,,,,,,,,,,,,,,,,,,,,,,,,,,,,,,,,32,2.3736,1,0,20,20,23,1,8,×,4,8 × 4,neutral,largerFirst,1.5,1.5,32,,,,,,,,
,,,,,,,,,,,,,,,697,2022-02-05_14h46.31.930,multiplicationStroop,2021.2.3,Win32,60.84945844,,,,,,,,,,,,,,,,,,,,,,,,,,,,,,,,,4,2.8497,1,0,21,21,28,1,2,×,2,2 × 2,neutral,tie,1.5,1.5,4,,,,,,,,
,,,,,,,,,,,,,,,697,2022-02-05_14h46.31.930,multiplicationStroop,2021.2.3,Win32,60.84945844,,,,,,,,,,,,,,,,,,,,,,,,,,,,,,,,,54,2.3657,1,0,22,22,7,1,6,×,9,6 × 9,neutral,smallerFirst,1.5,1.5,54,,,,,,,,
,,,,,,,,,,,,,,,697,2022-02-05_14h46.31.930,multiplicationStroop,2021.2.3,Win32,60.84945844,,,,,,,,,,,,,,,,,,,,,,,,,,,,,,,,,10,1.5249,1,0,23,23,4,1,2,×,5,2 × 5,neutral,smallerFirst,1.5,1.5,10,,,,,,,,
,,,,,,,,,,,,,,,697,2022-02-05_14h46.31.930,multiplicationStroop,2021.2.3,Win32,60.84945844,,,,,,,,,,,,,,,,,,,,,,,,,,,,,,,,,20,1.5317,1,0,24,24,20,1,5,×,4,5 × 4,neutral,largerFirst,1.5,1.5,20,,,,,,,,
,,,,,,,,,,,,,,,697,2022-02-05_14h46.31.930,multiplicationStroop,2021.2.3,Win32,60.84945844,,,,,,,,,,,,,,,,,,,,,,,,,,,,,,,,,48,3.6823,1,0,25,25,15,1,8,×,6,8 × 6,neutral,largerFirst,1.5,1.5,48,,,,,,,,
,,,,,,,,,,,,,,,697,2022-02-05_14h46.31.930,multiplicationStroop,2021.2.3,Win32,60.84945844,,,,,,,,,,,,,,,,,,,,,,,,,,,,,,,,,40,2.0909,1,0,26,26,24,1,8,×,5,8 × 5,neutral,largerFirst,1.5,1.5,40,,,,,,,,
,,,,,,,,,,,,,,,697,2022-02-05_14h46.31.930,multiplicationStroop,2021.2.3,Win32,60.84945844,,,,,,,,,,,,,,,,,,,,,,,,,,,,,,,,,8,1.9834,1,0,27,27,3,1,2,×,4,2 × 4,neutral,smallerFirst,1.5,1.5,8,,,,,,,,
,,,,,,,,,,,,,,,697,2022-02-05_14h46.31.930,multiplicationStroop,2021.2.3,Win32,60.84945844,,,,,,,,,,,,,,,,,,,,,,,,,,,,,,,,,30,2.0487,1,0,28,28,19,1,6,×,5,6 × 5,neutral,largerFirst,1.5,1.5,30,,,,,,,,
,,,,,,,,,,,,,,,697,2022-02-05_14h46.31.930,multiplicationStroop,2021.2.3,Win32,60.84945844,,,,,,,,,,,,,,,,,,,,,,,,,,,,,,,,,25,1.5001,1,0,29,29,31,1,5,×,5,5 × 5,neutral,tie,1.5,1.5,25,,,,,,,,
,,,,,,,,,,,,,,,697,2022-02-05_14h46.31.930,multiplicationStroop,2021.2.3,Win32,60.84945844,,,,,,,,,,,,,,,,,,,,,,,,,,,,,,,,,45,1.8816,1,0,30,30,10,1,5,×,9,5 × 9,neutral,smallerFirst,1.5,1.5,45,,,,,,,,
,,,,,,,,,,,,,,,697,2022-02-05_14h46.31.930,multiplicationStroop,2021.2.3,Win32,60.84945844,,,,,,,,,,,,,,,,,,,,,,,,,,,,,,,,,6,1.7494,1,0,31,31,26,1,3,×,2,3 × 2,neutral,largerFirst,1.5,1.5,6,,,,,,,,
,,,,,,,,,,,,,,,697,2022-02-05_14h46.31.930,multiplicationStroop,2021.2.3,Win32,60.84945844,,,,,,,,,,,,,,,,,,,,,,,,,,,,,,,,,9,1.3388,1,0,32,32,29,1,3,×,3,3 × 3,neutral,tie,1.5,1.5,9,,,,,,,,
,,,,,,,,,,,,,,,697,2022-02-05_14h46.31.930,multiplicationStroop,2021.2.3,Win32,60.84945844,,,,,,,,,,,,,,,,,,,,,,,,,,,,,,,,,49,1.9276,1,0,33,33,33,1,7,×,7,7 × 7,neutral,tie,1.5,1.5,49,,,,,,,,
,,,,,,,,,,,,,,,697,2022-02-05_14h46.31.930,multiplicationStroop,2021.2.3,Win32,60.84945844,,,,,,,,,,,,,,,,,,,,,,,,,,,,,,,,,18,1.516,1,0,34,34,18,1,9,×,2,9 × 2,neutral,largerFirst,1.5,1.5,18,,,,,,,,
,,,,,,,,,,,,,,,697,2022-02-05_14h46.31.930,multiplicationStroop,2021.2.3,Win32,60.84945844,,,,,,,,,,,,,,,,,,,,,,,,,,,,,,,,,21,1.8996,1,0,35,35,8,1,3,×,7,3 × 7,neutral,smallerFirst,1.5,1.5,21,,,,,,,,
,,,,,,,,,,,,,,,697,2022-02-05_14h46.31.930,multiplicationStroop,2021.2.3,Win32,60.84945844,,,,,,,,,,,,,,,,,,,,,,,,,,,,,,,,,,,,,,,,,,,,,,,,,,0,1,1,1,1,stimulusFile/mult_blk2.xlsx,,
,,,,,,,,,,,,,,,697,2022-02-05_14h46.31.930,multiplicationStroop,2021.2.3,Win32,60.84945844,,,,,,,,,,,,,,,,,,,,,,,,,,,,,,,space,2.1062,49,4.174,1,0,0,0,33,1,7,×,7,7 × 7,neutral,tie,1,2,49,,,,,,,,
,,,,,,,,,,,,,,,697,2022-02-05_14h46.31.930,multiplicationStroop,2021.2.3,Win32,60.84945844,,,,,,,,,,,,,,,,,,,,,,,,,,,,,,,,,30,1.708,1,0,1,1,1,1,5,×,6,5 × 6,congruent,smallerFirst,1,2,30,,,,,,,,
,,,,,,,,,,,,,,,697,2022-02-05_14h46.31.930,multiplicationStroop,2021.2.3,Win32,60.84945844,,,,,,,,,,,,,,,,,,,,,,,,,,,,,,,,,24,1.9161,1,0,2,2,24,1,8,×,3,8 × 3,congruent,largerFirst,2,1,24,,,,,,,,
,,,,,,,,,,,,,,,697,2022-02-05_14h46.31.930,multiplicationStroop,2021.2.3,Win32,60.84945844,,,,,,,,,,,,,,,,,,,,,,,,,,,,,,,,,28,2.3332,1,0,3,3,13,1,4,×,7,4 × 7,congruent,smallerFirst,1,2,28,,,,,,,,
,,,,,,,,,,,,,,,697,2022-02-05_14h46.31.930,multiplicationStroop,2021.2.3,Win32,60.84945844,,,,,,,,,,,,,,,,,,,,,,,,,,,,,,,,,4,1.4671,1,0,4,4,28,1,2,×,2,2 × 2,neutral,tie,1,2,4,,,,,,,,
,,,,,,,,,,,,,,,697,2022-02-05_14h46.31.930,multiplicationStroop,2021.2.3,Win32,60.84945844,,,,,,,,,,,,,,,,,,,,,,,,,,,,,,,,,81,2.0821,1,0,5,5,35,1,9,×,9,9 × 9,neutral,tie,1,2,81,,,,,,,,
,,,,,,,,,,,,,,,697,2022-02-05_14h46.31.930,multiplicationStroop,2021.2.3,Win32,60.84945844,,,,,,,,,,,,,,,,,,,,,,,,,,,,,,,,,12,1.2828,1,0,6,6,16,1,4,×,3,4 × 3,congruent,largerFirst,2,1,12,,,,,,,,
,,,,,,,,,,,,,,,697,2022-02-05_14h46.31.930,multiplicationStroop,2021.2.3,Win32,60.84945844,,,,,,,,,,,,,,,,,,,,,,,,,,,,,,,,,9,1.3827,1,0,7,7,29,1,3,×,3,3 × 3,neutral,tie,1,2,9,,,,,,,,
,,,,,,,,,,,,,,,697,2022-02-05_14h46.31.930,multiplicationStroop,2021.2.3,Win32,60.84945844,,,,,,,,,,,,,,,,,,,,,,,,,,,,,,,,,63,2.6497,1,0,8,8,7,1,7,×,9,7 × 9,congruent,smallerFirst,1,2,63,,,,,,,,
,,,,,,,,,,,,,,,697,2022-02-05_14h46.31.930,multiplicationStroop,2021.2.3,Win32,60.84945844,,,,,,,,,,,,,,,,,,,,,,,,,,,,,,,,,10,1.4162,0,0,9,9,23,1,4,×,2,4 × 2,congruent,largerFirst,2,1,8,,,,,,,,
,,,,,,,,,,,,,,,697,2022-02-05_14h46.31.930,multiplicationStroop,2021.2.3,Win32,60.84945844,,,,,,,,,,,,,,,,,,,,,,,,,,,,,,,,,16,1.666,1,0,10,10,30,1,4,×,4,4 × 4,neutral,tie,1,2,16,,,,,,,,
,,,,,,,,,,,,,,,697,2022-02-05_14h46.31.930,multiplicationStroop,2021.2.3,Win32,60.84945844,,,,,,,,,,,,,,,,,,,,,,,,,,,,,,,,,27,3.1161,1,0,11,11,12,1,3,×,9,3 × 9,congruent,smallerFirst,1,2,27,,,,,,,,
,,,,,,,,,,,,,,,697,2022-02-05_14h46.31.930,multiplicationStroop,2021.2.3,Win32,60.84945844,,,,,,,,,,,,,,,,,,,,,,,,,,,,,,,,,32,2.8555,1,0,12,12,6,1,4,×,8,4 × 8,congruent,smallerFirst,1,2,32,,,,,,,,
,,,,,,,,,,,,,,,697,2022-02-05_14h46.31.930,multiplicationStroop,2021.2.3,Win32,60.84945844,,,,,,,,,,,,,,,,,,,,,,,,,,,,,,,,,15,1.9501,1,0,13,13,18,1,5,×,3,5 × 3,congruent,largerFirst,2,1,15,,,,,,,,
,,,,,,,,,,,,,,,697,2022-02-05_14h46.31.930,multiplicationStroop,2021.2.3,Win32,60.84945844,,,,,,,,,,,,,,,,,,,,,,,,,,,,,,,,,64,1.8327,1,0,14,14,34,1,8,×,8,8 × 8,neutral,tie,1,2,64,,,,,,,,
,,,,,,,,,,,,,,,697,2022-02-05_14h46.31.930,multiplicationStroop,2021.2.3,Win32,60.84945844,,,,,,,,,,,,,,,,,,,,,,,,,,,,,,,,,6,1.4829,1,0,15,15,27,1,3,×,2,3 × 2,congruent,largerFirst,2,1,6,,,,,,,,
,,,,,,,,,,,,,,,697,2022-02-05_14h46.31.930,multiplicationStroop,2021.2.3,Win32,60.84945844,,,,,,,,,,,,,,,,,,,,,,,,,,,,,,,,,48,2.2494,1,0,16,16,4,1,6,×,8,6 × 8,congruent,smallerFirst,1,2,48,,,,,,,,
,,,,,,,,,,,,,,,697,2022-02-05_14h46.31.930,multiplicationStroop,2021.2.3,Win32,60.84945844,,,,,,,,,,,,,,,,,,,,,,,,,,,,,,,,,25,2.0663,1,0,17,17,31,1,5,×,5,5 × 5,neutral,tie,1,2,25,,,,,,,,
,,,,,,,,,,,,,,,697,2022-02-05_14h46.31.930,multiplicationStroop,2021.2.3,Win32,60.84945844,,,,,,,,,,,,,,,,,,,,,,,,,,,,,,,,,54,1.8655,1,0,18,18,26,1,9,×,6,9 × 6,congruent,largerFirst,2,1,54,,,,,,,,
,,,,,,,,,,,,,,,697,2022-02-05_14h46.31.930,multiplicationStroop,2021.2.3,Win32,60.84945844,,,,,,,,,,,,,,,,,,,,,,,,,,,,,,,,,20,1.6992,1,0,19,19,21,1,5,×,4,5 × 4,congruent,largerFirst,2,1,20,,,,,,,,
,,,,,,,,,,,,,,,697,2022-02-05_14h46.31.930,multiplicationStroop,2021.2.3,Win32,60.84945844,,,,,,,,,,,,,,,,,,,,,,,,,,,,,,,,,18,1.8828,1,0,20,20,8,1,2,×,9,2 × 9,congruent,smallerFirst,1,2,18,,,,,,,,
,,,,,,,,,,,,,,,697,2022-02-05_14h46.31.930,multiplicationStroop,2021.2.3,Win32,60.84945844,,,,,,,,,,,,,,,,,,,,,,,,,,,,,,,,,12,1.3669,1,0,21,21,5,1,2,×,6,2 × 6,congruent,smallerFirst,1,2,12,,,,,,,,
,,,,,,,,,,,,,,,697,2022-02-05_14h46.31.930,multiplicationStroop,2021.2.3,Win32,60.84945844,,,,,,,,,,,,,,,,,,,,,,,,,,,,,,,,,54,5.3988,0,0,22,22,22,1,8,×,7,8 × 7,congruent,largerFirst,2,1,56,,,,,,,,
,,,,,,,,,,,,,,,697,2022-02-05_14h46.31.930,multiplicationStroop,2021.2.3,Win32,60.84945844,,,,,,,,,,,,,,,,,,,,,,,,,,,,,,,,,18,3.4086,1,0,23,23,25,1,6,×,3,6 × 3,congruent,largerFirst,2,1,18,,,,,,,,
,,,,,,,,,,,,,,,697,2022-02-05_14h46.31.930,multiplicationStroop,2021.2.3,Win32,60.84945844,,,,,,,,,,,,,,,,,,,,,,,,,,,,,,,,,16,4.9467,1,0,24,24,19,1,8,×,2,8 × 2,congruent,largerFirst,2,1,16,,,,,,,,
,,,,,,,,,,,,,,,697,2022-02-05_14h46.31.930,multiplicationStroop,2021.2.3,Win32,60.84945844,,,,,,,,,,,,,,,,,,,,,,,,,,,,,,,,,24,2.3194,1,0,25,25,11,1,4,×,6,4 × 6,congruent,smallerFirst,1,2,24,,,,,,,,
,,,,,,,,,,,,,,,697,2022-02-05_14h46.31.930,multiplicationStroop,2021.2.3,Win32,60.84945844,,,,,,,,,,,,,,,,,,,,,,,,,,,,,,,,,36,1.6664,0,0,26,26,15,1,7,×,5,7 × 5,congruent,largerFirst,2,1,35,,,,,,,,
,,,,,,,,,,,,,,,697,2022-02-05_14h46.31.930,multiplicationStroop,2021.2.3,Win32,60.84945844,,,,,,,,,,,,,,,,,,,,,,,,,,,,,,,,,21,2.4823,1,0,27,27,2,1,3,×,7,3 × 7,congruent,smallerFirst,1,2,21,,,,,,,,
,,,,,,,,,,,,,,,697,2022-02-05_14h46.31.930,multiplicationStroop,2021.2.3,Win32,60.84945844,,,,,,,,,,,,,,,,,,,,,,,,,,,,,,,,,36,1.866,1,0,28,28,32,1,6,×,6,6 × 6,neutral,tie,1,2,36,,,,,,,,
,,,,,,,,,,,,,,,697,2022-02-05_14h46.31.930,multiplicationStroop,2021.2.3,Win32,60.84945844,,,,,,,,,,,,,,,,,,,,,,,,,,,,,,,,,10,1.3826,1,0,29,29,10,1,2,×,5,2 × 5,congruent,smallerFirst,1,2,10,,,,,,,,
,,,,,,,,,,,,,,,697,2022-02-05_14h46.31.930,multiplicationStroop,2021.2.3,Win32,60.84945844,,,,,,,,,,,,,,,,,,,,,,,,,,,,,,,,,45,4.6823,1,0,30,30,9,1,5,×,9,5 × 9,congruent,smallerFirst,1,2,45,,,,,,,,
,,,,,,,,,,,,,,,697,2022-02-05_14h46.31.930,multiplicationStroop,2021.2.3,Win32,60.84945844,,,,,,,,,,,,,,,,,,,,,,,,,,,,,,,,,40,2.4257,1,0,31,31,20,1,8,×,5,8 × 5,congruent,largerFirst,2,1,40,,,,,,,,
,,,,,,,,,,,,,,,697,2022-02-05_14h46.31.930,multiplicationStroop,2021.2.3,Win32,60.84945844,,,,,,,,,,,,,,,,,,,,,,,,,,,,,,,,,72,3.7331,1,0,32,32,3,1,8,×,9,8 × 9,congruent,smallerFirst,1,2,72,,,,,,,,
,,,,,,,,,,,,,,,697,2022-02-05_14h46.31.930,multiplicationStroop,2021.2.3,Win32,60.84945844,,,,,,,,,,,,,,,,,,,,,,,,,,,,,,,,,36,1.8919,0,0,33,33,17,1,7,×,6,7 × 6,congruent,largerFirst,2,1,42,,,,,,,,
,,,,,,,,,,,,,,,697,2022-02-05_14h46.31.930,multiplicationStroop,2021.2.3,Win32,60.84945844,,,,,,,,,,,,,,,,,,,,,,,,,,,,,,,,,36,2.4333,1,0,34,34,14,1,9,×,4,9 × 4,congruent,largerFirst,2,1,36,,,,,,,,
,,,,,,,,,,,,,,,697,2022-02-05_14h46.31.930,multiplicationStroop,2021.2.3,Win32,60.84945844,,,,,,,,,,,,,,,,,,,,,,,,,,,,,,,,,14,1.6991,1,0,35,35,0,1,2,×,7,2 × 7,congruent,smallerFirst,1,2,14,,,,,,,,
,,,,,,,,,,,,,,,697,2022-02-05_14h46.31.930,multiplicationStroop,2021.2.3,Win32,60.84945844,,,,,,,,,,,,,,,,,,,,,,,,,,,,,,,,,,,,,,,,,,,,,,,,,,0,2,2,3,1,stimulusFile/mult_blk4_congruent.xlsx,,
,,,,,,,,,,,,,,,697,2022-02-05_14h46.31.930,multiplicationStroop,2021.2.3,Win32,60.84945844,,,,,,,,,,,,,,,,,,,,,,,,,,,,,,,space,1.7438,30,1.8069,1,0,0,0,15,1,6,×,5,6 × 5,congruent,largerFirst,2,1,30,,,,,,,,
,,,,,,,,,,,,,,,697,2022-02-05_14h46.31.930,multiplicationStroop,2021.2.3,Win32,60.84945844,,,,,,,,,,,,,,,,,,,,,,,,,,,,,,,,,28,2.199,1,0,1,1,27,1,7,×,4,7 × 4,congruent,largerFirst,2,1,28,,,,,,,,
,,,,,,,,,,,,,,,697,2022-02-05_14h46.31.930,multiplicationStroop,2021.2.3,Win32,60.84945844,,,,,,,,,,,,,,,,,,,,,,,,,,,,,,,,,35,2.3989,1,0,2,2,1,1,5,×,7,5 × 7,congruent,smallerFirst,1,2,35,,,,,,,,
,,,,,,,,,,,,,,,697,2022-02-05_14h46.31.930,multiplicationStroop,2021.2.3,Win32,60.84945844,,,,,,,,,,,,,,,,,,,,,,,,,,,,,,,,,42,2.1665,0,0,3,3,20,1,8,×,4,8 × 4,congruent,largerFirst,2,1,32,,,,,,,,
,,,,,,,,,,,,,,,697,2022-02-05_14h46.31.930,multiplicationStroop,2021.2.3,Win32,60.84945844,,,,,,,,,,,,,,,,,,,,,,,,,,,,,,,,,20,3.6783,1,0,4,4,7,1,4,×,5,4 × 5,congruent,smallerFirst,1,2,20,,,,,,,,
,,,,,,,,,,,,,,,697,2022-02-05_14h46.31.930,multiplicationStroop,2021.2.3,Win32,60.84945844,,,,,,,,,,,,,,,,,,,,,,,,,,,,,,,,,18,1.4956,1,0,5,5,22,1,9,×,2,9 × 2,congruent,largerFirst,2,1,18,,,,,,,,
,,,,,,,,,,,,,,,697,2022-02-05_14h46.31.930,multiplicationStroop,2021.2.3,Win32,60.84945844,,,,,,,,,,,,,,,,,,,,,,,,,,,,,,,,,36,1.6325,1,0,6,6,32,1,6,×,6,6 × 6,neutral,tie,2,1,36,,,,,,,,
,,,,,,,,,,,,,,,697,2022-02-05_14h46.31.930,multiplicationStroop,2021.2.3,Win32,60.84945844,,,,,,,,,,,,,,,,,,,,,,,,,,,,,,,,,72,3.2663,1,0,7,7,17,1,9,×,8,9 × 8,congruent,largerFirst,2,1,72,,,,,,,,
,,,,,,,,,,,,,,,697,2022-02-05_14h46.31.930,multiplicationStroop,2021.2.3,Win32,60.84945844,,,,,,,,,,,,,,,,,,,,,,,,,,,,,,,,,40,1.8744,1,0,8,8,6,1,5,×,8,5 × 8,congruent,smallerFirst,1,2,40,,,,,,,,
,,,,,,,,,,,,,,,697,2022-02-05_14h46.31.930,multiplicationStroop,2021.2.3,Win32,60.84945844,,,,,,,,,,,,,,,,,,,,,,,,,,,,,,,,,81,2.1331,1,0,9,9,35,1,9,×,9,9 × 9,neutral,tie,2,1,81,,,,,,,,
,,,,,,,,,,,,,,,697,2022-02-05_14h46.31.930,multiplicationStroop,2021.2.3,Win32,60.84945844,,,,,,,,,,,,,,,,,,,,,,,,,,,,,,,,,16,3.1573,1,0,10,10,30,1,4,×,4,4 × 4,neutral,tie,2,1,16,,,,,,,,
,,,,,,,,,,,,,,,697,2022-02-05_14h46.31.930,multiplicationStroop,2021.2.3,Win32,60.84945844,,,,,,,,,,,,,,,,,,,,,,,,,,,,,,,,,21,1.3495,1,0,11,11,16,1,7,×,3,7 × 3,congruent,largerFirst,2,1,21,,,,,,,,
,,,,,,,,,,,,,,,697,2022-02-05_14h46.31.930,multiplicationStroop,2021.2.3,Win32,60.84945844,,,,,,,,,,,,,,,,,,,,,,,,,,,,,,,,,24,1.6336,1,0,12,12,25,1,6,×,4,6 × 4,congruent,largerFirst,2,1,24,,,,,,,,
,,,,,,,,,,,,,,,697,2022-02-05_14h46.31.930,multiplicationStroop,2021.2.3,Win32,60.84945844,,,,,,,,,,,,,,,,,,,,,,,,,,,,,,,,,25,1.4993,1,0,13,13,31,1,5,×,5,5 × 5,neutral,tie,2,1,25,,,,,,,,
,,,,,,,,,,,,,,,697,2022-02-05_14h46.31.930,multiplicationStroop,2021.2.3,Win32,60.84945844,,,,,,,,,,,,,,,,,,,,,,,,,,,,,,,,,12,1.2806,1,0,14,14,19,1,6,×,2,6 × 2,congruent,largerFirst,2,1,12,,,,,,,,
,,,,,,,,,,,,,,,697,2022-02-05_14h46.31.930,multiplicationStroop,2021.2.3,Win32,60.84945844,,,,,,,,,,,,,,,,,,,,,,,,,,,,,,,,,64,1.882,1,0,15,15,34,1,8,×,8,8 × 8,neutral,tie,2,1,64,,,,,,,,
,,,,,,,,,,,,,,,697,2022-02-05_14h46.31.930,multiplicationStroop,2021.2.3,Win32,60.84945844,,,,,,,,,,,,,,,,,,,,,,,,,,,,,,,,,16,1.7664,1,0,16,16,5,1,2,×,8,2 × 8,congruent,smallerFirst,1,2,16,,,,,,,,
,,,,,,,,,,,,,,,697,2022-02-05_14h46.31.930,multiplicationStroop,2021.2.3,Win32,60.84945844,,,,,,,,,,,,,,,,,,,,,,,,,,,,,,,,,42,2.5661,0,0,17,17,18,1,8,×,6,8 × 6,congruent,largerFirst,2,1,48,,,,,,,,
,,,,,,,,,,,,,,,697,2022-02-05_14h46.31.930,multiplicationStroop,2021.2.3,Win32,60.84945844,,,,,,,,,,,,,,,,,,,,,,,,,,,,,,,,,36,2.9,1,0,18,18,0,1,4,×,9,4 × 9,congruent,smallerFirst,1,2,36,,,,,,,,
,,,,,,,,,,,,,,,697,2022-02-05_14h46.31.930,multiplicationStroop,2021.2.3,Win32,60.84945844,,,,,,,,,,,,,,,,,,,,,,,,,,,,,,,,,49,2.2731,1,0,19,19,33,1,7,×,7,7 × 7,neutral,tie,2,1,49,,,,,,,,
,,,,,,,,,,,,,,,697,2022-02-05_14h46.31.930,multiplicationStroop,2021.2.3,Win32,60.84945844,,,,,,,,,,,,,,,,,,,,,,,,,,,,,,,,,8,3.0331,1,0,20,20,9,1,2,×,4,2 × 4,congruent,smallerFirst,1,2,8,,,,,,,,
,,,,,,,,,,,,,,,697,2022-02-05_14h46.31.930,multiplicationStroop,2021.2.3,Win32,60.84945844,,,,,,,,,,,,,,,,,,,,,,,,,,,,,,,,,54,2.1004,1,0,21,21,12,1,6,×,9,6 × 9,congruent,smallerFirst,1,2,54,,,,,,,,
,,,,,,,,,,,,,,,697,2022-02-05_14h46.31.930,multiplicationStroop,2021.2.3,Win32,60.84945844,,,,,,,,,,,,,,,,,,,,,,,,,,,,,,,,,10,1.4162,1,0,22,22,24,1,5,×,2,5 × 2,congruent,largerFirst,2,1,10,,,,,,,,
,,,,,,,,,,,,,,,697,2022-02-05_14h46.31.930,multiplicationStroop,2021.2.3,Win32,60.84945844,,,,,,,,,,,,,,,,,,,,,,,,,,,,,,,,,12,1.2323,1,0,23,23,2,1,3,×,4,3 × 4,congruent,smallerFirst,1,2,12,,,,,,,,
,,,,,,,,,,,,,,,697,2022-02-05_14h46.31.930,multiplicationStroop,2021.2.3,Win32,60.84945844,,,,,,,,,,,,,,,,,,,,,,,,,,,,,,,,,36,2.2655,0,0,24,24,3,1,6,×,7,6 × 7,congruent,smallerFirst,1,2,42,,,,,,,,
,,,,,,,,,,,,,,,697,2022-02-05_14h46.31.930,multiplicationStroop,2021.2.3,Win32,60.84945844,,,,,,,,,,,,,,,,,,,,,,,,,,,,,,,,,9,1.6164,1,0,25,25,29,1,3,×,3,3 × 3,neutral,tie,2,1,9,,,,,,,,
,,,,,,,,,,,,,,,697,2022-02-05_14h46.31.930,multiplicationStroop,2021.2.3,Win32,60.84945844,,,,,,,,,,,,,,,,,,,,,,,,,,,,,,,,,63,2.4331,1,0,26,26,21,1,9,×,7,9 × 7,congruent,largerFirst,2,1,63,,,,,,,,
,,,,,,,,,,,,,,,697,2022-02-05_14h46.31.930,multiplicationStroop,2021.2.3,Win32,60.84945844,,,,,,,,,,,,,,,,,,,,,,,,,,,,,,,,,4,1.4828,1,0,27,27,28,1,2,×,2,2 × 2,neutral,tie,2,1,4,,,,,,,,
,,,,,,,,,,,,,,,697,2022-02-05_14h46.31.930,multiplicationStroop,2021.2.3,Win32,60.84945844,,,,,,,,,,,,,,,,,,,,,,,,,,,,,,,,,56,3.8327,1,0,28,28,8,1,7,×,8,7 × 8,congruent,smallerFirst,1,2,56,,,,,,,,
,,,,,,,,,,,,,,,697,2022-02-05_14h46.31.930,multiplicationStroop,2021.2.3,Win32,60.84945844,,,,,,,,,,,,,,,,,,,,,,,,,,,,,,,,,15,1.4754,1,0,29,29,4,1,3,×,5,3 × 5,congruent,smallerFirst,1,2,15,,,,,,,,
,,,,,,,,,,,,,,,697,2022-02-05_14h46.31.930,multiplicationStroop,2021.2.3,Win32,60.84945844,,,,,,,,,,,,,,,,,,,,,,,,,,,,,,,,,45,3.6325,1,0,30,30,23,1,9,×,5,9 × 5,congruent,largerFirst,2,1,45,,,,,,,,
,,,,,,,,,,,,,,,697,2022-02-05_14h46.31.930,multiplicationStroop,2021.2.3,Win32,60.84945844,,,,,,,,,,,,,,,,,,,,,,,,,,,,,,,,,18,2.5303,1,0,31,31,11,1,3,×,6,3 × 6,congruent,smallerFirst,1,2,18,,,,,,,,
,,,,,,,,,,,,,,,697,2022-02-05_14h46.31.930,multiplicationStroop,2021.2.3,Win32,60.84945844,,,,,,,,,,,,,,,,,,,,,,,,,,,,,,,,,27,2.2949,1,0,32,32,26,1,9,×,3,9 × 3,congruent,largerFirst,2,1,27,,,,,,,,
,,,,,,,,,,,,,,,697,2022-02-05_14h46.31.930,multiplicationStroop,2021.2.3,Win32,60.84945844,,,,,,,,,,,,,,,,,,,,,,,,,,,,,,,,,24,3.2492,1,0,33,33,10,1,3,×,8,3 × 8,congruent,smallerFirst,1,2,24,,,,,,,,
,,,,,,,,,,,,,,,697,2022-02-05_14h46.31.930,multiplicationStroop,2021.2.3,Win32,60.84945844,,,,,,,,,,,,,,,,,,,,,,,,,,,,,,,,,6,2.4411,1,0,34,34,13,1,2,×,3,2 × 3,congruent,smallerFirst,1,2,6,,,,,,,,
,,,,,,,,,,,,,,,697,2022-02-05_14h46.31.930,multiplicationStroop,2021.2.3,Win32,60.84945844,,,,,,,,,,,,,,,,,,,,,,,,,,,,,,,,,14,1.4159,1,0,35,35,14,1,7,×,2,7 × 2,congruent,largerFirst,2,1,14,,,,,,,,
,,,,,,,,,,,,,,,697,2022-02-05_14h46.31.930,multiplicationStroop,2021.2.3,Win32,60.84945844,,,,,,,,,,,,,,,,,,,,,,,,,,,,,,,,,,,,,,,,,,,,,,,,,,0,3,3,2,1,stimulusFile/mult_blk3_congruent.xlsx,,
,,,,,,,,,,,,,,,697,2022-02-05_14h46.31.930,multiplicationStroop,2021.2.3,Win32,60.84945844,,,,,,,,,,,,,,,,,,,,,,,,,,,,,,,space,1.2773,18,1.4915,0,0,0,0,4,1,3,×,9,3 × 9,incongruent,smallerFirst,2,1,27,,,,,,,,
,,,,,,,,,,,,,,,697,2022-02-05_14h46.31.930,multiplicationStroop,2021.2.3,Win32,60.84945844,,,,,,,,,,,,,,,,,,,,,,,,,,,,,,,,,20,1.4318,1,0,1,1,13,1,4,×,5,4 × 5,incongruent,smallerFirst,2,1,20,,,,,,,,
,,,,,,,,,,,,,,,697,2022-02-05_14h46.31.930,multiplicationStroop,2021.2.3,Win32,60.84945844,,,,,,,,,,,,,,,,,,,,,,,,,,,,,,,,,24,1.7161,1,0,2,2,6,1,4,×,6,4 × 6,incongruent,smallerFirst,2,1,24,,,,,,,,
,,,,,,,,,,,,,,,697,2022-02-05_14h46.31.930,multiplicationStroop,2021.2.3,Win32,60.84945844,,,,,,,,,,,,,,,,,,,,,,,,,,,,,,,,,40,2.1831,1,0,3,3,27,1,8,×,5,8 × 5,incongruent,largerFirst,1,2,40,,,,,,,,
,,,,,,,,,,,,,,,697,2022-02-05_14h46.31.930,multiplicationStroop,2021.2.3,Win32,60.84945844,,,,,,,,,,,,,,,,,,,,,,,,,,,,,,,,,16,3.3815,1,0,4,4,9,1,2,×,8,2 × 8,incongruent,smallerFirst,2,1,16,,,,,,,,
,,,,,,,,,,,,,,,697,2022-02-05_14h46.31.930,multiplicationStroop,2021.2.3,Win32,60.84945844,,,,,,,,,,,,,,,,,,,,,,,,,,,,,,,,,8,1.5233,1,0,5,5,10,1,2,×,4,2 × 4,incongruent,smallerFirst,2,1,8,,,,,,,,
,,,,,,,,,,,,,,,697,2022-02-05_14h46.31.930,multiplicationStroop,2021.2.3,Win32,60.84945844,,,,,,,,,,,,,,,,,,,,,,,,,,,,,,,,,16,5.0824,1,0,6,6,30,1,4,×,4,4 × 4,neutral,tie,2,1,16,,,,,,,,
,,,,,,,,,,,,,,,697,2022-02-05_14h46.31.930,multiplicationStroop,2021.2.3,Win32,60.84945844,,,,,,,,,,,,,,,,,,,,,,,,,,,,,,,,,32,2.3957,1,0,7,7,21,1,8,×,4,8 × 4,incongruent,largerFirst,1,2,32,,,,,,,,
,,,,,,,,,,,,,,,697,2022-02-05_14h46.31.930,multiplicationStroop,2021.2.3,Win32,60.84945844,,,,,,,,,,,,,,,,,,,,,,,,,,,,,,,,,18,1.5284,1,0,8,8,22,1,6,×,3,6 × 3,incongruent,largerFirst,1,2,18,,,,,,,,
,,,,,,,,,,,,,,,697,2022-02-05_14h46.31.930,multiplicationStroop,2021.2.3,Win32,60.84945844,,,,,,,,,,,,,,,,,,,,,,,,,,,,,,,,,4,1.4652,1,0,9,9,28,1,2,×,2,2 × 2,neutral,tie,2,1,4,,,,,,,,
,,,,,,,,,,,,,,,697,2022-02-05_14h46.31.930,multiplicationStroop,2021.2.3,Win32,60.84945844,,,,,,,,,,,,,,,,,,,,,,,,,,,,,,,,,12,1.3162,1,0,10,10,19,1,4,×,3,4 × 3,incongruent,largerFirst,1,2,12,,,,,,,,
,,,,,,,,,,,,,,,697,2022-02-05_14h46.31.930,multiplicationStroop,2021.2.3,Win32,60.84945844,,,,,,,,,,,,,,,,,,,,,,,,,,,,,,,,,30,1.7327,1,0,11,11,11,1,5,×,6,5 × 6,incongruent,smallerFirst,2,1,30,,,,,,,,
,,,,,,,,,,,,,,,697,2022-02-05_14h46.31.930,multiplicationStroop,2021.2.3,Win32,60.84945844,,,,,,,,,,,,,,,,,,,,,,,,,,,,,,,,,64,1.9161,1,0,12,12,34,1,8,×,8,8 × 8,neutral,tie,2,1,64,,,,,,,,
,,,,,,,,,,,,,,,697,2022-02-05_14h46.31.930,multiplicationStroop,2021.2.3,Win32,60.84945844,,,,,,,,,,,,,,,,,,,,,,,,,,,,,,,,,21,1.9662,1,0,13,13,12,1,3,×,7,3 × 7,incongruent,smallerFirst,2,1,21,,,,,,,,
,,,,,,,,,,,,,,,697,2022-02-05_14h46.31.930,multiplicationStroop,2021.2.3,Win32,60.84945844,,,,,,,,,,,,,,,,,,,,,,,,,,,,,,,,,10,1.5655,1,0,14,14,7,1,2,×,5,2 × 5,incongruent,smallerFirst,2,1,10,,,,,,,,
,,,,,,,,,,,,,,,697,2022-02-05_14h46.31.930,multiplicationStroop,2021.2.3,Win32,60.84945844,,,,,,,,,,,,,,,,,,,,,,,,,,,,,,,,,6,1.6659,1,0,15,15,25,1,3,×,2,3 × 2,incongruent,largerFirst,1,2,6,,,,,,,,
,,,,,,,,,,,,,,,697,2022-02-05_14h46.31.930,multiplicationStroop,2021.2.3,Win32,60.84945844,,,,,,,,,,,,,,,,,,,,,,,,,,,,,,,,,24,2.5833,1,0,16,16,23,1,8,×,3,8 × 3,incongruent,largerFirst,1,2,24,,,,,,,,
,,,,,,,,,,,,,,,697,2022-02-05_14h46.31.930,multiplicationStroop,2021.2.3,Win32,60.84945844,,,,,,,,,,,,,,,,,,,,,,,,,,,,,,,,,45,4.3323,1,0,17,17,8,1,5,×,9,5 × 9,incongruent,smallerFirst,2,1,45,,,,,,,,
,,,,,,,,,,,,,,,697,2022-02-05_14h46.31.930,multiplicationStroop,2021.2.3,Win32,60.84945844,,,,,,,,,,,,,,,,,,,,,,,,,,,,,,,,,14,1.4754,1,0,18,18,18,1,7,×,2,7 × 2,incongruent,largerFirst,1,2,14,,,,,,,,
,,,,,,,,,,,,,,,697,2022-02-05_14h46.31.930,multiplicationStroop,2021.2.3,Win32,60.84945844,,,,,,,,,,,,,,,,,,,,,,,,,,,,,,,,,81,2.5829,1,0,19,19,35,1,9,×,9,9 × 9,neutral,tie,2,1,81,,,,,,,,
,,,,,,,,,,,,,,,697,2022-02-05_14h46.31.930,multiplicationStroop,2021.2.3,Win32,60.84945844,,,,,,,,,,,,,,,,,,,,,,,,,,,,,,,,,56,2.9155,1,0,20,20,0,1,7,×,8,7 × 8,incongruent,smallerFirst,2,1,56,,,,,,,,
,,,,,,,,,,,,,,,697,2022-02-05_14h46.31.930,multiplicationStroop,2021.2.3,Win32,60.84945844,,,,,,,,,,,,,,,,,,,,,,,,,,,,,,,,,18,2.2071,1,0,21,21,16,1,9,×,2,9 × 2,incongruent,largerFirst,1,2,18,,,,,,,,
,,,,,,,,,,,,,,,697,2022-02-05_14h46.31.930,multiplicationStroop,2021.2.3,Win32,60.84945844,,,,,,,,,,,,,,,,,,,,,,,,,,,,,,,,,42,4.2168,1,0,22,22,3,1,6,×,7,6 × 7,incongruent,smallerFirst,2,1,42,,,,,,,,
,,,,,,,,,,,,,,,697,2022-02-05_14h46.31.930,multiplicationStroop,2021.2.3,Win32,60.84945844,,,,,,,,,,,,,,,,,,,,,,,,,,,,,,,,,28,1.7421,1,0,23,23,2,1,4,×,7,4 × 7,incongruent,smallerFirst,2,1,28,,,,,,,,
,,,,,,,,,,,,,,,697,2022-02-05_14h46.31.930,multiplicationStroop,2021.2.3,Win32,60.84945844,,,,,,,,,,,,,,,,,,,,,,,,,,,,,,,,,12,1.3997,1,0,24,24,5,1,2,×,6,2 × 6,incongruent,smallerFirst,2,1,12,,,,,,,,
,,,,,,,,,,,,,,,697,2022-02-05_14h46.31.930,multiplicationStroop,2021.2.3,Win32,60.84945844,,,,,,,,,,,,,,,,,,,,,,,,,,,,,,,,,15,1.6327,1,0,25,25,24,1,5,×,3,5 × 3,incongruent,largerFirst,1,2,15,,,,,,,,
,,,,,,,,,,,,,,,697,2022-02-05_14h46.31.930,multiplicationStroop,2021.2.3,Win32,60.84945844,,,,,,,,,,,,,,,,,,,,,,,,,,,,,,,,,35,1.6328,1,0,26,26,26,1,7,×,5,7 × 5,incongruent,largerFirst,1,2,35,,,,,,,,
,,,,,,,,,,,,,,,697,2022-02-05_14h46.31.930,multiplicationStroop,2021.2.3,Win32,60.84945844,,,,,,,,,,,,,,,,,,,,,,,,,,,,,,,,,72,2.0832,1,0,27,27,14,1,9,×,8,9 × 8,incongruent,largerFirst,1,2,72,,,,,,,,
,,,,,,,,,,,,,,,697,2022-02-05_14h46.31.930,multiplicationStroop,2021.2.3,Win32,60.84945844,,,,,,,,,,,,,,,,,,,,,,,,,,,,,,,,,54,1.933,1,0,28,28,20,1,9,×,6,9 × 6,incongruent,largerFirst,1,2,54,,,,,,,,
,,,,,,,,,,,,,,,697,2022-02-05_14h46.31.930,multiplicationStroop,2021.2.3,Win32,60.84945844,,,,,,,,,,,,,,,,,,,,,,,,,,,,,,,,,36,3.1656,1,0,29,29,1,1,4,×,9,4 × 9,incongruent,smallerFirst,2,1,36,,,,,,,,
,,,,,,,,,,,,,,,697,2022-02-05_14h46.31.930,multiplicationStroop,2021.2.3,Win32,60.84945844,,,,,,,,,,,,,,,,,,,,,,,,,,,,,,,,,48,3.4736,1,0,30,30,15,1,8,×,6,8 × 6,incongruent,largerFirst,1,2,48,,,,,,,,
,,,,,,,,,,,,,,,697,2022-02-05_14h46.31.930,multiplicationStroop,2021.2.3,Win32,60.84945844,,,,,,,,,,,,,,,,,,,,,,,,,,,,,,,,,25,1.6495,1,0,31,31,31,1,5,×,5,5 × 5,neutral,tie,2,1,25,,,,,,,,
,,,,,,,,,,,,,,,697,2022-02-05_14h46.31.930,multiplicationStroop,2021.2.3,Win32,60.84945844,,,,,,,,,,,,,,,,,,,,,,,,,,,,,,,,,36,2.1158,1,0,32,32,32,1,6,×,6,6 × 6,neutral,tie,2,1,36,,,,,,,,
,,,,,,,,,,,,,,,697,2022-02-05_14h46.31.930,multiplicationStroop,2021.2.3,Win32,60.84945844,,,,,,,,,,,,,,,,,,,,,,,,,,,,,,,,,9,2.8159,1,0,33,33,29,1,3,×,3,3 × 3,neutral,tie,2,1,9,,,,,,,,
,,,,,,,,,,,,,,,697,2022-02-05_14h46.31.930,multiplicationStroop,2021.2.3,Win32,60.84945844,,,,,,,,,,,,,,,,,,,,,,,,,,,,,,,,,49,2.8248,1,0,34,34,33,1,7,×,7,7 × 7,neutral,tie,2,1,49,,,,,,,,
,,,,,,,,,,,,,,,697,2022-02-05_14h46.31.930,multiplicationStroop,2021.2.3,Win32,60.84945844,,,,,,,,,,,,,,,,,,,,,,,,,,,,,,,,,63,3.5163,1,0,35,35,17,1,9,×,7,9 × 7,incongruent,largerFirst,1,2,63,,,,,,,,
,,,,,,,,,,,,,,,697,2022-02-05_14h46.31.930,multiplicationStroop,2021.2.3,Win32,60.84945844,,,,,,,,,,,,,,,,,,,,,,,,,,,,,,,,,,,,,,,,,,,,,,,,,,0,4,4,4,1,stimulusFile/mult_blk5_INcongruent.xlsx,,
,,,,,,,,,,,,,,,697,2022-02-05_14h46.31.930,multiplicationStroop,2021.2.3,Win32,60.84945844,,,,,,,,,,,,,,,,,,,,,,,,,,,,,,,space,1.2496,14,1.5588,1,0,0,0,4,1,2,×,7,2 × 7,incongruent,smallerFirst,2,1,14,,,,,,,,
,,,,,,,,,,,,,,,697,2022-02-05_14h46.31.930,multiplicationStroop,2021.2.3,Win32,60.84945844,,,,,,,,,,,,,,,,,,,,,,,,,,,,,,,,,28,1.8499,1,0,1,1,16,1,7,×,4,7 × 4,incongruent,largerFirst,1,2,28,,,,,,,,
,,,,,,,,,,,,,,,697,2022-02-05_14h46.31.930,multiplicationStroop,2021.2.3,Win32,60.84945844,,,,,,,,,,,,,,,,,,,,,,,,,,,,,,,,,81,1.5996,1,0,2,2,35,1,9,×,9,9 × 9,incongruent,tie,1,2,81,,,,,,,,
,,,,,,,,,,,,,,,697,2022-02-05_14h46.31.930,multiplicationStroop,2021.2.3,Win32,60.84945844,,,,,,,,,,,,,,,,,,,,,,,,,,,,,,,,,12,1.2498,1,0,3,3,19,1,6,×,2,6 × 2,incongruent,largerFirst,1,2,12,,,,,,,,
,,,,,,,,,,,,,,,697,2022-02-05_14h46.31.930,multiplicationStroop,2021.2.3,Win32,60.84945844,,,,,,,,,,,,,,,,,,,,,,,,,,,,,,,,,48,5.3661,1,0,4,4,1,1,6,×,8,6 × 8,incongruent,smallerFirst,2,1,48,,,,,,,,
,,,,,,,,,,,,,,,697,2022-02-05_14h46.31.930,multiplicationStroop,2021.2.3,Win32,60.84945844,,,,,,,,,,,,,,,,,,,,,,,,,,,,,,,,,54,1.942,1,0,5,5,6,1,6,×,9,6 × 9,incongruent,smallerFirst,2,1,54,,,,,,,,
,,,,,,,,,,,,,,,697,2022-02-05_14h46.31.930,multiplicationStroop,2021.2.3,Win32,60.84945844,,,,,,,,,,,,,,,,,,,,,,,,,,,,,,,,,36,2.0825,1,0,6,6,15,1,9,×,4,9 × 4,incongruent,largerFirst,1,2,36,,,,,,,,
,,,,,,,,,,,,,,,697,2022-02-05_14h46.31.930,multiplicationStroop,2021.2.3,Win32,60.84945844,,,,,,,,,,,,,,,,,,,,,,,,,,,,,,,,,25,1.4662,1,0,7,7,31,1,5,×,5,5 × 5,incongruent,tie,1,2,25,,,,,,,,
,,,,,,,,,,,,,,,697,2022-02-05_14h46.31.930,multiplicationStroop,2021.2.3,Win32,60.84945844,,,,,,,,,,,,,,,,,,,,,,,,,,,,,,,,,15,1.4659,1,0,8,8,10,1,3,×,5,3 × 5,incongruent,smallerFirst,2,1,15,,,,,,,,
,,,,,,,,,,,,,,,697,2022-02-05_14h46.31.930,multiplicationStroop,2021.2.3,Win32,60.84945844,,,,,,,,,,,,,,,,,,,,,,,,,,,,,,,,,9,1.4538,1,0,9,9,29,1,3,×,3,3 × 3,incongruent,tie,1,2,9,,,,,,,,
,,,,,,,,,,,,,,,697,2022-02-05_14h46.31.930,multiplicationStroop,2021.2.3,Win32,60.84945844,,,,,,,,,,,,,,,,,,,,,,,,,,,,,,,,,30,1.5785,1,0,10,10,25,1,6,×,5,6 × 5,incongruent,largerFirst,1,2,30,,,,,,,,
,,,,,,,,,,,,,,,697,2022-02-05_14h46.31.930,multiplicationStroop,2021.2.3,Win32,60.84945844,,,,,,,,,,,,,,,,,,,,,,,,,,,,,,,,,21,2.4322,1,0,11,11,26,1,7,×,3,7 × 3,incongruent,largerFirst,1,2,21,,,,,,,,
,,,,,,,,,,,,,,,697,2022-02-05_14h46.31.930,multiplicationStroop,2021.2.3,Win32,60.84945844,,,,,,,,,,,,,,,,,,,,,,,,,,,,,,,,,36,1.7752,1,0,12,12,32,1,6,×,6,6 × 6,incongruent,tie,1,2,36,,,,,,,,
,,,,,,,,,,,,,,,697,2022-02-05_14h46.31.930,multiplicationStroop,2021.2.3,Win32,60.84945844,,,,,,,,,,,,,,,,,,,,,,,,,,,,,,,,,35,1.799,1,0,13,13,12,1,5,×,7,5 × 7,incongruent,smallerFirst,2,1,35,,,,,,,,
,,,,,,,,,,,,,,,697,2022-02-05_14h46.31.930,multiplicationStroop,2021.2.3,Win32,60.84945844,,,,,,,,,,,,,,,,,,,,,,,,,,,,,,,,,12,1.283,1,0,14,14,5,1,3,×,4,3 × 4,incongruent,smallerFirst,2,1,12,,,,,,,,
,,,,,,,,,,,,,,,697,2022-02-05_14h46.31.930,multiplicationStroop,2021.2.3,Win32,60.84945844,,,,,,,,,,,,,,,,,,,,,,,,,,,,,,,,,27,2.8502,1,0,15,15,18,1,9,×,3,9 × 3,incongruent,largerFirst,1,2,27,,,,,,,,
,,,,,,,,,,,,,,,697,2022-02-05_14h46.31.930,multiplicationStroop,2021.2.3,Win32,60.84945844,,,,,,,,,,,,,,,,,,,,,,,,,,,,,,,,,16,1.4825,1,0,16,16,23,1,8,×,2,8 × 2,incongruent,largerFirst,1,2,16,,,,,,,,
,,,,,,,,,,,,,,,697,2022-02-05_14h46.31.930,multiplicationStroop,2021.2.3,Win32,60.84945844,,,,,,,,,,,,,,,,,,,,,,,,,,,,,,,,,56,2.3325,1,0,17,17,14,1,8,×,7,8 × 7,incongruent,largerFirst,1,2,56,,,,,,,,
,,,,,,,,,,,,,,,697,2022-02-05_14h46.31.930,multiplicationStroop,2021.2.3,Win32,60.84945844,,,,,,,,,,,,,,,,,,,,,,,,,,,,,,,,,10,1.4335,1,0,18,18,21,1,5,×,2,5 × 2,incongruent,largerFirst,1,2,10,,,,,,,,
,,,,,,,,,,,,,,,697,2022-02-05_14h46.31.930,multiplicationStroop,2021.2.3,Win32,60.84945844,,,,,,,,,,,,,,,,,,,,,,,,,,,,,,,,,9,1.4321,0,0,19,19,11,1,2,×,3,2 × 3,incongruent,smallerFirst,2,1,6,,,,,,,,
,,,,,,,,,,,,,,,697,2022-02-05_14h46.31.930,multiplicationStroop,2021.2.3,Win32,60.84945844,,,,,,,,,,,,,,,,,,,,,,,,,,,,,,,,,18,1.5494,1,0,20,20,2,1,2,×,9,2 × 9,incongruent,smallerFirst,2,1,18,,,,,,,,
,,,,,,,,,,,,,,,697,2022-02-05_14h46.31.930,multiplicationStroop,2021.2.3,Win32,60.84945844,,,,,,,,,,,,,,,,,,,,,,,,,,,,,,,,,8,1.933,1,0,21,21,24,1,4,×,2,4 × 2,incongruent,largerFirst,1,2,8,,,,,,,,
,,,,,,,,,,,,,,,697,2022-02-05_14h46.31.930,multiplicationStroop,2021.2.3,Win32,60.84945844,,,,,,,,,,,,,,,,,,,,,,,,,,,,,,,,,18,2.5498,1,0,22,22,8,1,3,×,6,3 × 6,incongruent,smallerFirst,2,1,18,,,,,,,,
,,,,,,,,,,,,,,,697,2022-02-05_14h46.31.930,multiplicationStroop,2021.2.3,Win32,60.84945844,,,,,,,,,,,,,,,,,,,,,,,,,,,,,,,,,63,2.2991,1,0,23,23,3,1,7,×,9,7 × 9,incongruent,smallerFirst,2,1,63,,,,,,,,
,,,,,,,,,,,,,,,697,2022-02-05_14h46.31.930,multiplicationStroop,2021.2.3,Win32,60.84945844,,,,,,,,,,,,,,,,,,,,,,,,,,,,,,,,,24,2.9336,1,0,24,24,9,1,3,×,8,3 × 8,incongruent,smallerFirst,2,1,24,,,,,,,,
,,,,,,,,,,,,,,,697,2022-02-05_14h46.31.930,multiplicationStroop,2021.2.3,Win32,60.84945844,,,,,,,,,,,,,,,,,,,,,,,,,,,,,,,,,40,3.4658,1,0,25,25,13,1,5,×,8,5 × 8,incongruent,smallerFirst,2,1,40,,,,,,,,
,,,,,,,,,,,,,,,697,2022-02-05_14h46.31.930,multiplicationStroop,2021.2.3,Win32,60.84945844,,,,,,,,,,,,,,,,,,,,,,,,,,,,,,,,,24,2.4086,1,0,26,26,20,1,6,×,4,6 × 4,incongruent,largerFirst,1,2,24,,,,,,,,
,,,,,,,,,,,,,,,697,2022-02-05_14h46.31.930,multiplicationStroop,2021.2.3,Win32,60.84945844,,,,,,,,,,,,,,,,,,,,,,,,,,,,,,,,,64,3.2491,1,0,27,27,34,1,8,×,8,8 × 8,incongruent,tie,1,2,64,,,,,,,,
,,,,,,,,,,,,,,,697,2022-02-05_14h46.31.930,multiplicationStroop,2021.2.3,Win32,60.84945844,,,,,,,,,,,,,,,,,,,,,,,,,,,,,,,,,32,3.1221,1,0,28,28,7,1,4,×,8,4 × 8,incongruent,smallerFirst,2,1,32,,,,,,,,
,,,,,,,,,,,,,,,697,2022-02-05_14h46.31.930,multiplicationStroop,2021.2.3,Win32,60.84945844,,,,,,,,,,,,,,,,,,,,,,,,,,,,,,,,,45,1.892,1,0,29,29,22,1,9,×,5,9 × 5,incongruent,largerFirst,1,2,45,,,,,,,,
,,,,,,,,,,,,,,,697,2022-02-05_14h46.31.930,multiplicationStroop,2021.2.3,Win32,60.84945844,,,,,,,,,,,,,,,,,,,,,,,,,,,,,,,,,49,2.4659,1,0,30,30,33,1,7,×,7,7 × 7,incongruent,tie,1,2,49,,,,,,,,
,,,,,,,,,,,,,,,697,2022-02-05_14h46.31.930,multiplicationStroop,2021.2.3,Win32,60.84945844,,,,,,,,,,,,,,,,,,,,,,,,,,,,,,,,,72,2.0904,1,0,31,31,0,1,8,×,9,8 × 9,incongruent,smallerFirst,2,1,72,,,,,,,,
,,,,,,,,,,,,,,,697,2022-02-05_14h46.31.930,multiplicationStroop,2021.2.3,Win32,60.84945844,,,,,,,,,,,,,,,,,,,,,,,,,,,,,,,,,20,2.2995,1,0,32,32,27,1,5,×,4,5 × 4,incongruent,largerFirst,1,2,20,,,,,,,,
,,,,,,,,,,,,,,,697,2022-02-05_14h46.31.930,multiplicationStroop,2021.2.3,Win32,60.84945844,,,,,,,,,,,,,,,,,,,,,,,,,,,,,,,,,4,1.583,1,0,33,33,28,1,2,×,2,2 × 2,incongruent,tie,1,2,4,,,,,,,,
,,,,,,,,,,,,,,,697,2022-02-05_14h46.31.930,multiplicationStroop,2021.2.3,Win32,60.84945844,,,,,,,,,,,,,,,,,,,,,,,,,,,,,,,,,36,2.0825,0,0,34,34,17,1,7,×,6,7 × 6,incongruent,largerFirst,1,2,42,,,,,,,,
,,,,,,,,,,,,,,,697,2022-02-05_14h46.31.930,multiplicationStroop,2021.2.3,Win32,60.84945844,,,,,,,,,,,,,,,,,,,,,,,,,,,,,,,,,24,1.5665,0,0,35,35,30,1,4,×,4,4 × 4,incongruent,tie,1,2,16,,,,,,,,
,,,,,,,,,,,,,,,697,2022-02-05_14h46.31.930,multiplicationStroop,2021.2.3,Win32,60.84945844,,,,,,,,,,,,,,,,,,,,,,,,,,,,,,,,,,,,,,,,,,,,,,,,,,0,5,5,5,1,stimulusFile/mult_blk6_INcongruent.xlsx,,
,,,,,,,,,,,,,,,697,2022-02-05_14h46.31.930,multiplicationStroop,2021.2.3,Win32,60.84945844,,,,,,,,,,,,,,,,,,,,,,,,,,,,,,,,,,,,,,,,,,,,,,,,,,,,,,,,space,3.2655