welcomeKey_resp.keys,welcomeKey_resp.rt,X Scale,Y Scale,rt_resp_4.keys,rt_resp_4.corr,rt_resp_4.rt,speedtest_2.thisRepN,speedtest_2.thisTrialN,speedtest_2.thisN,speedtest_2.thisIndex,speedtest_2.ran,numberSc,posX,positionLayout,participant,date,expName,psychopyVersion,OS,frameRate,ct_instrresp.keys,ct_instrresp.rt,key_resp_2.keys,key_resp_2.rt,ct_keyResp.keys,ct_keyResp.corr,ct_keyResp.rt,trials.thisRepN,trials.thisTrialN,trials.thisN,trials.thisIndex,trials.ran,leftNo,rightNo,displayProblem,numDistance,leftNo_size,rightNo_size,Dims,keyAnswer,TS_Loop.thisRepN,TS_Loop.thisTrialN,TS_Loop.thisN,TS_Loop.thisIndex,TS_Loop.ran,Condition,ActionInst,instrImage,mltptaskInst_resp.keys,mltptaskInst_resp.rt,continue_resp_2.keys,continue_resp_2.rt,multp_Answer,multi_RT,multiplyCorr,LoopingMultiply.thisRepN,LoopingMultiply.thisTrialN,LoopingMultiply.thisN,LoopingMultiply.thisIndex,LoopingMultiply.ran,factor1,multiplySign,factor2,multliplyProblem,physicalSize,orderOperand,sizeF1,sizeF2,mult_answer,trials_stroop.thisRepN,trials_stroop.thisTrialN,trials_stroop.thisN,trials_stroop.thisIndex,trials_stroop.ran,multiplicationFile,esckey_resp_2.keys,esckey_resp_2.rt
y,28.258,44.3,44.8,left,1,1.1361,0,0,0,5,1,7,-200,left,698,2022-01-30_15h38.58.897,multiplicationStroop,2021.2.3,Win32,60.21557175,,,,,,,,,,,,,,,,,,,,,,,,,,,,,,,,,,,,,,,,,,,,,,,,,,,,,,,,,
,,,,right,1,0.4855,0,1,1,9,1,2,200,right,698,2022-01-30_15h38.58.897,multiplicationStroop,2021.2.3,Win32,60.21557175,,,,,,,,,,,,,,,,,,,,,,,,,,,,,,,,,,,,,,,,,,,,,,,,,,,,,,,,,
,,,,left,1,0.4643,0,2,2,6,1,8,-200,left,698,2022-01-30_15h38.58.897,multiplicationStroop,2021.2.3,Win32,60.21557175,,,,,,,,,,,,,,,,,,,,,,,,,,,,,,,,,,,,,,,,,,,,,,,,,,,,,,,,,
,,,,right,1,0.4026,0,3,3,12,1,6,200,right,698,2022-01-30_15h38.58.897,multiplicationStroop,2021.2.3,Win32,60.21557175,,,,,,,,,,,,,,,,,,,,,,,,,,,,,,,,,,,,,,,,,,,,,,,,,,,,,,,,,
,,,,right,1,0.4489,0,4,4,13,1,7,200,right,698,2022-01-30_15h38.58.897,multiplicationStroop,2021.2.3,Win32,60.21557175,,,,,,,,,,,,,,,,,,,,,,,,,,,,,,,,,,,,,,,,,,,,,,,,,,,,,,,,,
,,,,right,1,0.3481,0,5,5,15,1,9,200,right,698,2022-01-30_15h38.58.897,multiplicationStroop,2021.2.3,Win32,60.21557175,,,,,,,,,,,,,,,,,,,,,,,,,,,,,,,,,,,,,,,,,,,,,,,,,,,,,,,,,
,,,,right,1,0.3722,0,6,6,14,1,8,200,right,698,2022-01-30_15h38.58.897,multiplicationStroop,2021.2.3,Win32,60.21557175,,,,,,,,,,,,,,,,,,,,,,,,,,,,,,,,,,,,,,,,,,,,,,,,,,,,,,,,,
,,,,right,1,0.3467,0,7,7,11,1,4,200,right,698,2022-01-30_15h38.58.897,multiplicationStroop,2021.2.3,Win32,60.21557175,,,,,,,,,,,,,,,,,,,,,,,,,,,,,,,,,,,,,,,,,,,,,,,,,,,,,,,,,
,,,,left,1,0.3641,0,8,8,1,1,2,-200,left,698,2022-01-30_15h38.58.897,multiplicationStroop,2021.2.3,Win32,60.21557175,,,,,,,,,,,,,,,,,,,,,,,,,,,,,,,,,,,,,,,,,,,,,,,,,,,,,,,,,
,,,,right,1,0.4536,0,9,9,8,1,1,200,right,698,2022-01-30_15h38.58.897,multiplicationStroop,2021.2.3,Win32,60.21557175,,,,,,,,,,,,,,,,,,,,,,,,,,,,,,,,,,,,,,,,,,,,,,,,,,,,,,,,,
,,,,left,1,0.3766,0,10,10,2,1,3,-200,left,698,2022-01-30_15h38.58.897,multiplicationStroop,2021.2.3,Win32,60.21557175,,,,,,,,,,,,,,,,,,,,,,,,,,,,,,,,,,,,,,,,,,,,,,,,,,,,,,,,,
,,,,left,1,0.4173,0,11,11,7,1,9,-200,left,698,2022-01-30_15h38.58.897,multiplicationStroop,2021.2.3,Win32,60.21557175,,,,,,,,,,,,,,,,,,,,,,,,,,,,,,,,,,,,,,,,,,,,,,,,,,,,,,,,,
,,,,left,1,0.3672,0,12,12,3,1,4,-200,left,698,2022-01-30_15h38.58.897,multiplicationStroop,2021.2.3,Win32,60.21557175,,,,,,,,,,,,,,,,,,,,,,,,,,,,,,,,,,,,,,,,,,,,,,,,,,,,,,,,,
,,,,right,1,0.3466,0,13,13,10,1,3,200,right,698,2022-01-30_15h38.58.897,multiplicationStroop,2021.2.3,Win32,60.21557175,,,,,,,,,,,,,,,,,,,,,,,,,,,,,,,,,,,,,,,,,,,,,,,,,,,,,,,,,
,,,,left,1,0.403,0,14,14,4,1,6,-200,left,698,2022-01-30_15h38.58.897,multiplicationStroop,2021.2.3,Win32,60.21557175,,,,,,,,,,,,,,,,,,,,,,,,,,,,,,,,,,,,,,,,,,,,,,,,,,,,,,,,,
,,,,left,1,0.4665,0,15,15,0,1,1,-200,left,698,2022-01-30_15h38.58.897,multiplicationStroop,2021.2.3,Win32,60.21557175,,,,,,,,,,,,,,,,,,,,,,,,,,,,,,,,,,,,,,,,,,,,,,,,,,,,,,,,,
,,,,right,1,0.4851,1,0,16,15,1,9,200,right,698,2022-01-30_15h38.58.897,multiplicationStroop,2021.2.3,Win32,60.21557175,,,,,,,,,,,,,,,,,,,,,,,,,,,,,,,,,,,,,,,,,,,,,,,,,,,,,,,,,
,,,,right,1,0.439,1,1,17,10,1,3,200,right,698,2022-01-30_15h38.58.897,multiplicationStroop,2021.2.3,Win32,60.21557175,,,,,,,,,,,,,,,,,,,,,,,,,,,,,,,,,,,,,,,,,,,,,,,,,,,,,,,,,
,,,,left,1,0.4661,1,2,18,2,1,3,-200,left,698,2022-01-30_15h38.58.897,multiplicationStroop,2021.2.3,Win32,60.21557175,,,,,,,,,,,,,,,,,,,,,,,,,,,,,,,,,,,,,,,,,,,,,,,,,,,,,,,,,
,,,,right,1,0.4697,1,3,19,14,1,8,200,right,698,2022-01-30_15h38.58.897,multiplicationStroop,2021.2.3,Win32,60.21557175,,,,,,,,,,,,,,,,,,,,,,,,,,,,,,,,,,,,,,,,,,,,,,,,,,,,,,,,,
,,,,right,1,0.3359,1,4,20,12,1,6,200,right,698,2022-01-30_15h38.58.897,multiplicationStroop,2021.2.3,Win32,60.21557175,,,,,,,,,,,,,,,,,,,,,,,,,,,,,,,,,,,,,,,,,,,,,,,,,,,,,,,,,
,,,,left,1,0.3684,1,5,21,1,1,2,-200,left,698,2022-01-30_15h38.58.897,multiplicationStroop,2021.2.3,Win32,60.21557175,,,,,,,,,,,,,,,,,,,,,,,,,,,,,,,,,,,,,,,,,,,,,,,,,,,,,,,,,
,,,,right,1,0.3949,1,6,22,9,1,2,200,right,698,2022-01-30_15h38.58.897,multiplicationStroop,2021.2.3,Win32,60.21557175,,,,,,,,,,,,,,,,,,,,,,,,,,,,,,,,,,,,,,,,,,,,,,,,,,,,,,,,,
,,,,right,1,0.3016,1,7,23,8,1,1,200,right,698,2022-01-30_15h38.58.897,multiplicationStroop,2021.2.3,Win32,60.21557175,,,,,,,,,,,,,,,,,,,,,,,,,,,,,,,,,,,,,,,,,,,,,,,,,,,,,,,,,
,,,,left,1,0.3644,1,8,24,3,1,4,-200,left,698,2022-01-30_15h38.58.897,multiplicationStroop,2021.2.3,Win32,60.21557175,,,,,,,,,,,,,,,,,,,,,,,,,,,,,,,,,,,,,,,,,,,,,,,,,,,,,,,,,
,,,,right,1,0.3333,1,9,25,13,1,7,200,right,698,2022-01-30_15h38.58.897,multiplicationStroop,2021.2.3,Win32,60.21557175,,,,,,,,,,,,,,,,,,,,,,,,,,,,,,,,,,,,,,,,,,,,,,,,,,,,,,,,,
,,,,left,1,0.3651,1,10,26,6,1,8,-200,left,698,2022-01-30_15h38.58.897,multiplicationStroop,2021.2.3,Win32,60.21557175,,,,,,,,,,,,,,,,,,,,,,,,,,,,,,,,,,,,,,,,,,,,,,,,,,,,,,,,,
,,,,left,1,0.4045,1,11,27,0,1,1,-200,left,698,2022-01-30_15h38.58.897,multiplicationStroop,2021.2.3,Win32,60.21557175,,,,,,,,,,,,,,,,,,,,,,,,,,,,,,,,,,,,,,,,,,,,,,,,,,,,,,,,,
,,,,left,1,0.3533,1,12,28,4,1,6,-200,left,698,2022-01-30_15h38.58.897,multiplicationStroop,2021.2.3,Win32,60.21557175,,,,,,,,,,,,,,,,,,,,,,,,,,,,,,,,,,,,,,,,,,,,,,,,,,,,,,,,,
,,,,left,1,0.3826,1,13,29,5,1,7,-200,left,698,2022-01-30_15h38.58.897,multiplicationStroop,2021.2.3,Win32,60.21557175,,,,,,,,,,,,,,,,,,,,,,,,,,,,,,,,,,,,,,,,,,,,,,,,,,,,,,,,,
,,,,right,1,0.3028,1,14,30,11,1,4,200,right,698,2022-01-30_15h38.58.897,multiplicationStroop,2021.2.3,Win32,60.21557175,,,,,,,,,,,,,,,,,,,,,,,,,,,,,,,,,,,,,,,,,,,,,,,,,,,,,,,,,
,,,,left,1,0.5039,1,15,31,7,1,9,-200,left,698,2022-01-30_15h38.58.897,multiplicationStroop,2021.2.3,Win32,60.21557175,,,,,,,,,,,,,,,,,,,,,,,,,,,,,,,,,,,,,,,,,,,,,,,,,,,,,,,,,
,,,,right,1,0.3537,2,0,32,13,1,7,200,right,698,2022-01-30_15h38.58.897,multiplicationStroop,2021.2.3,Win32,60.21557175,,,,,,,,,,,,,,,,,,,,,,,,,,,,,,,,,,,,,,,,,,,,,,,,,,,,,,,,,
,,,,right,1,0.4417,2,1,33,15,1,9,200,right,698,2022-01-30_15h38.58.897,multiplicationStroop,2021.2.3,Win32,60.21557175,,,,,,,,,,,,,,,,,,,,,,,,,,,,,,,,,,,,,,,,,,,,,,,,,,,,,,,,,
,,,,left,1,0.4048,2,2,34,6,1,8,-200,left,698,2022-01-30_15h38.58.897,multiplicationStroop,2021.2.3,Win32,60.21557175,,,,,,,,,,,,,,,,,,,,,,,,,,,,,,,,,,,,,,,,,,,,,,,,,,,,,,,,,
,,,,left,1,0.4668,2,3,35,0,1,1,-200,left,698,2022-01-30_15h38.58.897,multiplicationStroop,2021.2.3,Win32,60.21557175,,,,,,,,,,,,,,,,,,,,,,,,,,,,,,,,,,,,,,,,,,,,,,,,,,,,,,,,,
,,,,left,1,0.3569,2,4,36,3,1,4,-200,left,698,2022-01-30_15h38.58.897,multiplicationStroop,2021.2.3,Win32,60.21557175,,,,,,,,,,,,,,,,,,,,,,,,,,,,,,,,,,,,,,,,,,,,,,,,,,,,,,,,,
,,,,right,1,0.3719,2,5,37,12,1,6,200,right,698,2022-01-30_15h38.58.897,multiplicationStroop,2021.2.3,Win32,60.21557175,,,,,,,,,,,,,,,,,,,,,,,,,,,,,,,,,,,,,,,,,,,,,,,,,,,,,,,,,
,,,,right,0,0.3647,2,6,38,5,1,7,-200,left,698,2022-01-30_15h38.58.897,multiplicationStroop,2021.2.3,Win32,60.21557175,,,,,,,,,,,,,,,,,,,,,,,,,,,,,,,,,,,,,,,,,,,,,,,,,,,,,,,,,
,,,,right,1,0.5857,2,7,39,8,1,1,200,right,698,2022-01-30_15h38.58.897,multiplicationStroop,2021.2.3,Win32,60.21557175,,,,,,,,,,,,,,,,,,,,,,,,,,,,,,,,,,,,,,,,,,,,,,,,,,,,,,,,,
,,,,left,1,0.4882,2,8,40,1,1,2,-200,left,698,2022-01-30_15h38.58.897,multiplicationStroop,2021.2.3,Win32,60.21557175,,,,,,,,,,,,,,,,,,,,,,,,,,,,,,,,,,,,,,,,,,,,,,,,,,,,,,,,,
,,,,right,1,0.5054,2,9,41,10,1,3,200,right,698,2022-01-30_15h38.58.897,multiplicationStroop,2021.2.3,Win32,60.21557175,,,,,,,,,,,,,,,,,,,,,,,,,,,,,,,,,,,,,,,,,,,,,,,,,,,,,,,,,
,,,,left,1,0.4129,2,10,42,7,1,9,-200,left,698,2022-01-30_15h38.58.897,multiplicationStroop,2021.2.3,Win32,60.21557175,,,,,,,,,,,,,,,,,,,,,,,,,,,,,,,,,,,,,,,,,,,,,,,,,,,,,,,,,
,,,,left,1,0.5038,2,11,43,2,1,3,-200,left,698,2022-01-30_15h38.58.897,multiplicationStroop,2021.2.3,Win32,60.21557175,,,,,,,,,,,,,,,,,,,,,,,,,,,,,,,,,,,,,,,,,,,,,,,,,,,,,,,,,
,,,,left,1,0.3537,2,12,44,4,1,6,-200,left,698,2022-01-30_15h38.58.897,multiplicationStroop,2021.2.3,Win32,60.21557175,,,,,,,,,,,,,,,,,,,,,,,,,,,,,,,,,,,,,,,,,,,,,,,,,,,,,,,,,
,,,,right,1,0.4657,2,13,45,9,1,2,200,right,698,2022-01-30_15h38.58.897,multiplicationStroop,2021.2.3,Win32,60.21557175,,,,,,,,,,,,,,,,,,,,,,,,,,,,,,,,,,,,,,,,,,,,,,,,,,,,,,,,,
,,,,right,1,0.3392,2,14,46,14,1,8,200,right,698,2022-01-30_15h38.58.897,multiplicationStroop,2021.2.3,Win32,60.21557175,,,,,,,,,,,,,,,,,,,,,,,,,,,,,,,,,,,,,,,,,,,,,,,,,,,,,,,,,
,,,,right,1,0.3549,2,15,47,11,1,4,200,right,698,2022-01-30_15h38.58.897,multiplicationStroop,2021.2.3,Win32,60.21557175,,,,,,,,,,,,,,,,,,,,,,,,,,,,,,,,,,,,,,,,,,,,,,,,,,,,,,,,,
,,,,right,1,0.4153,3,0,48,13,1,7,200,right,698,2022-01-30_15h38.58.897,multiplicationStroop,2021.2.3,Win32,60.21557175,,,,,,,,,,,,,,,,,,,,,,,,,,,,,,,,,,,,,,,,,,,,,,,,,,,,,,,,,
,,,,right,1,0.3836,3,1,49,10,1,3,200,right,698,2022-01-30_15h38.58.897,multiplicationStroop,2021.2.3,Win32,60.21557175,,,,,,,,,,,,,,,,,,,,,,,,,,,,,,,,,,,,,,,,,,,,,,,,,,,,,,,,,
,,,,left,1,0.3815,3,2,50,6,1,8,-200,left,698,2022-01-30_15h38.58.897,multiplicationStroop,2021.2.3,Win32,60.21557175,,,,,,,,,,,,,,,,,,,,,,,,,,,,,,,,,,,,,,,,,,,,,,,,,,,,,,,,,
,,,,left,1,0.3486,3,3,51,5,1,7,-200,left,698,2022-01-30_15h38.58.897,multiplicationStroop,2021.2.3,Win32,60.21557175,,,,,,,,,,,,,,,,,,,,,,,,,,,,,,,,,,,,,,,,,,,,,,,,,,,,,,,,,
,,,,left,1,0.3391,3,4,52,2,1,3,-200,left,698,2022-01-30_15h38.58.897,multiplicationStroop,2021.2.3,Win32,60.21557175,,,,,,,,,,,,,,,,,,,,,,,,,,,,,,,,,,,,,,,,,,,,,,,,,,,,,,,,,
,,,,left,1,0.3393,3,5,53,3,1,4,-200,left,698,2022-01-30_15h38.58.897,multiplicationStroop,2021.2.3,Win32,60.21557175,,,,,,,,,,,,,,,,,,,,,,,,,,,,,,,,,,,,,,,,,,,,,,,,,,,,,,,,,
,,,,right,1,0.3387,3,6,54,9,1,2,200,right,698,2022-01-30_15h38.58.897,multiplicationStroop,2021.2.3,Win32,60.21557175,,,,,,,,,,,,,,,,,,,,,,,,,,,,,,,,,,,,,,,,,,,,,,,,,,,,,,,,,
,,,,right,1,0.3164,3,7,55,8,1,1,200,right,698,2022-01-30_15h38.58.897,multiplicationStroop,2021.2.3,Win32,60.21557175,,,,,,,,,,,,,,,,,,,,,,,,,,,,,,,,,,,,,,,,,,,,,,,,,,,,,,,,,
,,,,left,1,0.3315,3,8,56,4,1,6,-200,left,698,2022-01-30_15h38.58.897,multiplicationStroop,2021.2.3,Win32,60.21557175,,,,,,,,,,,,,,,,,,,,,,,,,,,,,,,,,,,,,,,,,,,,,,,,,,,,,,,,,
,,,,right,1,0.3485,3,9,57,14,1,8,200,right,698,2022-01-30_15h38.58.897,multiplicationStroop,2021.2.3,Win32,60.21557175,,,,,,,,,,,,,,,,,,,,,,,,,,,,,,,,,,,,,,,,,,,,,,,,,,,,,,,,,
,,,,left,1,0.299,3,10,58,0,1,1,-200,left,698,2022-01-30_15h38.58.897,multiplicationStroop,2021.2.3,Win32,60.21557175,,,,,,,,,,,,,,,,,,,,,,,,,,,,,,,,,,,,,,,,,,,,,,,,,,,,,,,,,
,,,,right,1,0.3254,3,11,59,12,1,6,200,right,698,2022-01-30_15h38.58.897,multiplicationStroop,2021.2.3,Win32,60.21557175,,,,,,,,,,,,,,,,,,,,,,,,,,,,,,,,,,,,,,,,,,,,,,,,,,,,,,,,,
,,,,left,1,0.3298,3,12,60,7,1,9,-200,left,698,2022-01-30_15h38.58.897,multiplicationStroop,2021.2.3,Win32,60.21557175,,,,,,,,,,,,,,,,,,,,,,,,,,,,,,,,,,,,,,,,,,,,,,,,,,,,,,,,,
,,,,right,1,0.285,3,13,61,15,1,9,200,right,698,2022-01-30_15h38.58.897,multiplicationStroop,2021.2.3,Win32,60.21557175,,,,,,,,,,,,,,,,,,,,,,,,,,,,,,,,,,,,,,,,,,,,,,,,,,,,,,,,,
,,,,left,1,0.3153,3,14,62,1,1,2,-200,left,698,2022-01-30_15h38.58.897,multiplicationStroop,2021.2.3,Win32,60.21557175,,,,,,,,,,,,,,,,,,,,,,,,,,,,,,,,,,,,,,,,,,,,,,,,,,,,,,,,,
,,,,right,1,0.288,3,15,63,11,1,4,200,right,698,2022-01-30_15h38.58.897,multiplicationStroop,2021.2.3,Win32,60.21557175,,,,,,,,,,,,,,,,,,,,,,,,,,,,,,,,,,,,,,,,,,,,,,,,,,,,,,,,,
,,,,,,,,,,,,,,,698,2022-01-30_15h38.58.897,multiplicationStroop,2021.2.3,Win32,60.21557175,space,27.5055,space,9.9418,left,1,1.5607,0,0,0,34,1,6,8,6 | 8,2,1.9756,1.4111,incongruent,left,,,,,,stimulusFile/physical.xlsx,,,,,,,,,,,,,,,,,,,,,,,,,,,,,,,
,,,,,,,,,,,,,,,698,2022-01-30_15h38.58.897,multiplicationStroop,2021.2.3,Win32,60.21557175,,,,,left,1,0.7653,0,1,1,21,1,7,2,7 | 2,5,1.9756,1.4111,congruent,left,,,,,,stimulusFile/physical.xlsx,,,,,,,,,,,,,,,,,,,,,,,,,,,,,,,
,,,,,,,,,,,,,,,698,2022-01-30_15h38.58.897,multiplicationStroop,2021.2.3,Win32,60.21557175,,,,,right,1,0.5458,0,2,2,63,1,9,9,9 | 9,0,1.4111,1.9756,neutral,right,,,,,,stimulusFile/physical.xlsx,,,,,,,,,,,,,,,,,,,,,,,,,,,,,,,
,,,,,,,,,,,,,,,698,2022-01-30_15h38.58.897,multiplicationStroop,2021.2.3,Win32,60.21557175,,,,,right,1,0.5695,0,3,3,29,1,4,3,4 | 3,1,1.4111,1.9756,incongruent,right,,,,,,stimulusFile/physical.xlsx,,,,,,,,,,,,,,,,,,,,,,,,,,,,,,,
,,,,,,,,,,,,,,,698,2022-01-30_15h38.58.897,multiplicationStroop,2021.2.3,Win32,60.21557175,,,,,right,1,0.4691,0,4,4,58,1,6,6,6 | 6,0,1.4111,1.9756,neutral,right,,,,,,stimulusFile/physical.xlsx,,,,,,,,,,,,,,,,,,,,,,,,,,,,,,,
,,,,,,,,,,,,,,,698,2022-01-30_15h38.58.897,multiplicationStroop,2021.2.3,Win32,60.21557175,,,,,left,1,0.4345,0,5,5,32,1,1,3,1 | 3,2,1.9756,1.4111,incongruent,left,,,,,,stimulusFile/physical.xlsx,,,,,,,,,,,,,,,,,,,,,,,,,,,,,,,
,,,,,,,,,,,,,,,698,2022-01-30_15h38.58.897,multiplicationStroop,2021.2.3,Win32,60.21557175,,,,,right,1,0.751,0,6,6,46,1,8,3,8 | 3,5,1.4111,1.9756,incongruent,right,,,,,,stimulusFile/physical.xlsx,,,,,,,,,,,,,,,,,,,,,,,,,,,,,,,
,,,,,,,,,,,,,,,698,2022-01-30_15h38.58.897,multiplicationStroop,2021.2.3,Win32,60.21557175,,,,,right,1,0.5675,0,7,7,57,1,2,2,2 | 2,0,1.4111,1.9756,neutral,right,,,,,,stimulusFile/physical.xlsx,,,,,,,,,,,,,,,,,,,,,,,,,,,,,,,
,,,,,,,,,,,,,,,698,2022-01-30_15h38.58.897,multiplicationStroop,2021.2.3,Win32,60.21557175,,,,,right,0,0.5199,0,8,8,71,1,9,9,9 | 9,0,1.4111,1.9756,neutral,left,,,,,,stimulusFile/physical.xlsx,,,,,,,,,,,,,,,,,,,,,,,,,,,,,,,
,,,,,,,,,,,,,,,698,2022-01-30_15h38.58.897,multiplicationStroop,2021.2.3,Win32,60.21557175,,,,,right,1,0.4838,0,9,9,61,1,4,4,4 | 4,0,1.4111,1.9756,neutral,right,,,,,,stimulusFile/physical.xlsx,,,,,,,,,,,,,,,,,,,,,,,,,,,,,,,
,,,,,,,,,,,,,,,698,2022-01-30_15h38.58.897,multiplicationStroop,2021.2.3,Win32,60.21557175,,,,,left,1,0.5104,0,10,10,68,1,6,6,6 | 6,0,1.9756,1.4111,neutral,left,,,,,,stimulusFile/physical.xlsx,,,,,,,,,,,,,,,,,,,,,,,,,,,,,,,
,,,,,,,,,,,,,,,698,2022-01-30_15h38.58.897,multiplicationStroop,2021.2.3,Win32,60.21557175,,,,,left,1,0.6626,0,11,11,26,1,6,7,6 | 7,1,1.9756,1.4111,incongruent,left,,,,,,stimulusFile/physical.xlsx,,,,,,,,,,,,,,,,,,,,,,,,,,,,,,,
,,,,,,,,,,,,,,,698,2022-01-30_15h38.58.897,multiplicationStroop,2021.2.3,Win32,60.21557175,,,,,right,1,0.6164,0,12,12,45,1,7,2,7 | 2,5,1.4111,1.9756,incongruent,right,,,,,,stimulusFile/physical.xlsx,,,,,,,,,,,,,,,,,,,,,,,,,,,,,,,
,,,,,,,,,,,,,,,698,2022-01-30_15h38.58.897,multiplicationStroop,2021.2.3,Win32,60.21557175,,,,,right,1,0.5897,0,13,13,62,1,8,8,8 | 8,0,1.4111,1.9756,neutral,right,,,,,,stimulusFile/physical.xlsx,,,,,,,,,,,,,,,,,,,,,,,,,,,,,,,
,,,,,,,,,,,,,,,698,2022-01-30_15h38.58.897,multiplicationStroop,2021.2.3,Win32,60.21557175,,,,,left,1,0.584,0,14,14,33,1,2,4,2 | 4,2,1.9756,1.4111,incongruent,left,,,,,,stimulusFile/physical.xlsx,,,,,,,,,,,,,,,,,,,,,,,,,,,,,,,
,,,,,,,,,,,,,,,698,2022-01-30_15h38.58.897,multiplicationStroop,2021.2.3,Win32,60.21557175,,,,,left,1,0.57,0,15,15,50,1,6,6,6 | 6,0,1.9756,1.4111,neutral,left,,,,,,stimulusFile/physical.xlsx,,,,,,,,,,,,,,,,,,,,,,,,,,,,,,,
,,,,,,,,,,,,,,,698,2022-01-30_15h38.58.897,multiplicationStroop,2021.2.3,Win32,60.21557175,,,,,left,1,0.618,0,16,16,24,1,1,2,1 | 2,1,1.9756,1.4111,incongruent,left,,,,,,stimulusFile/physical.xlsx,,,,,,,,,,,,,,,,,,,,,,,,,,,,,,,
,,,,,,,,,,,,,,,698,2022-01-30_15h38.58.897,multiplicationStroop,2021.2.3,Win32,60.21557175,,,,,left,1,0.7719,0,17,17,52,1,2,2,2 | 2,0,1.9756,1.4111,neutral,left,,,,,,stimulusFile/physical.xlsx,,,,,,,,,,,,,,,,,,,,,,,,,,,,,,,
,,,,,,,,,,,,,,,698,2022-01-30_15h38.58.897,multiplicationStroop,2021.2.3,Win32,60.21557175,,,,,left,1,0.7062,0,18,18,40,1,1,6,1 | 6,5,1.9756,1.4111,incongruent,left,,,,,,stimulusFile/physical.xlsx,,,,,,,,,,,,,,,,,,,,,,,,,,,,,,,
,,,,,,,,,,,,,,,698,2022-01-30_15h38.58.897,multiplicationStroop,2021.2.3,Win32,60.21557175,,,,,left,1,0.5388,0,19,19,13,1,4,2,4 | 2,2,1.9756,1.4111,congruent,left,,,,,,stimulusFile/physical.xlsx,,,,,,,,,,,,,,,,,,,,,,,,,,,,,,,
,,,,,,,,,,,,,,,698,2022-01-30_15h38.58.897,multiplicationStroop,2021.2.3,Win32,60.21557175,,,,,left,1,0.8583,0,20,20,43,1,4,9,4 | 9,5,1.9756,1.4111,incongruent,left,,,,,,stimulusFile/physical.xlsx,,,,,,,,,,,,,,,,,,,,,,,,,,,,,,,
,,,,,,,,,,,,,,,698,2022-01-30_15h38.58.897,multiplicationStroop,2021.2.3,Win32,60.21557175,,,,,right,1,0.5512,0,21,21,67,1,4,4,4 | 4,0,1.4111,1.9756,neutral,right,,,,,,stimulusFile/physical.xlsx,,,,,,,,,,,,,,,,,,,,,,,,,,,,,,,
,,,,,,,,,,,,,,,698,2022-01-30_15h38.58.897,multiplicationStroop,2021.2.3,Win32,60.21557175,,,,,right,1,0.5962,0,22,22,3,1,8,9,8 | 9,1,1.4111,1.9756,congruent,right,,,,,,stimulusFile/physical.xlsx,,,,,,,,,,,,,,,,,,,,,,,,,,,,,,,
,,,,,,,,,,,,,,,698,2022-01-30_15h38.58.897,multiplicationStroop,2021.2.3,Win32,60.21557175,,,,,right,1,0.4737,0,23,23,65,1,2,2,2 | 2,0,1.4111,1.9756,neutral,right,,,,,,stimulusFile/physical.xlsx,,,,,,,,,,,,,,,,,,,,,,,,,,,,,,,
,,,,,,,,,,,,,,,698,2022-01-30_15h38.58.897,multiplicationStroop,2021.2.3,Win32,60.21557175,,,,,right,1,0.508,0,24,24,9,1,2,4,2 | 4,2,1.4111,1.9756,congruent,right,,,,,,stimulusFile/physical.xlsx,,,,,,,,,,,,,,,,,,,,,,,,,,,,,,,
,,,,,,,,,,,,,,,698,2022-01-30_15h38.58.897,multiplicationStroop,2021.2.3,Win32,60.21557175,,,,,left,1,0.6764,0,25,25,4,1,2,1,2 | 1,1,1.9756,1.4111,congruent,left,,,,,,stimulusFile/physical.xlsx,,,,,,,,,,,,,,,,,,,,,,,,,,,,,,,
,,,,,,,,,,,,,,,698,2022-01-30_15h38.58.897,multiplicationStroop,2021.2.3,Win32,60.21557175,,,,,left,1,0.6069,0,26,26,25,1,3,4,3 | 4,1,1.9756,1.4111,incongruent,left,,,,,,stimulusFile/physical.xlsx,,,,,,,,,,,,,,,,,,,,,,,,,,,,,,,
,,,,,,,,,,,,,,,698,2022-01-30_15h38.58.897,multiplicationStroop,2021.2.3,Win32,60.21557175,,,,,left,1,0.5326,0,27,27,7,1,9,8,9 | 8,1,1.9756,1.4111,congruent,left,,,,,,stimulusFile/physical.xlsx,,,,,,,,,,,,,,,,,,,,,,,,,,,,,,,
,,,,,,,,,,,,,,,698,2022-01-30_15h38.58.897,multiplicationStroop,2021.2.3,Win32,60.21557175,,,,,left,1,0.5951,0,28,28,48,1,1,1,1 | 1,0,1.9756,1.4111,neutral,left,,,,,,stimulusFile/physical.xlsx,,,,,,,,,,,,,,,,,,,,,,,,,,,,,,,
,,,,,,,,,,,,,,,698,2022-01-30_15h38.58.897,multiplicationStroop,2021.2.3,Win32,60.21557175,,,,,right,1,0.6172,0,29,29,47,1,9,4,9 | 4,5,1.4111,1.9756,incongruent,right,,,,,,stimulusFile/physical.xlsx,,,,,,,,,,,,,,,,,,,,,,,,,,,,,,,
,,,,,,,,,,,,,,,698,2022-01-30_15h38.58.897,multiplicationStroop,2021.2.3,Win32,60.21557175,,,,,right,1,0.5413,0,30,30,18,1,3,8,3 | 8,5,1.4111,1.9756,congruent,right,,,,,,stimulusFile/physical.xlsx,,,,,,,,,,,,,,,,,,,,,,,,,,,,,,,
,,,,,,,,,,,,,,,698,2022-01-30_15h38.58.897,multiplicationStroop,2021.2.3,Win32,60.21557175,,,,,left,1,0.5727,0,31,31,53,1,4,4,4 | 4,0,1.9756,1.4111,neutral,left,,,,,,stimulusFile/physical.xlsx,,,,,,,,,,,,,,,,,,,,,,,,,,,,,,,
,,,,,,,,,,,,,,,698,2022-01-30_15h38.58.897,multiplicationStroop,2021.2.3,Win32,60.21557175,,,,,left,1,0.5548,0,32,32,12,1,3,1,3 | 1,2,1.9756,1.4111,congruent,left,,,,,,stimulusFile/physical.xlsx,,,,,,,,,,,,,,,,,,,,,,,,,,,,,,,
,,,,,,,,,,,,,,,698,2022-01-30_15h38.58.897,multiplicationStroop,2021.2.3,Win32,60.21557175,,,,,left,1,0.6512,0,33,33,42,1,3,8,3 | 8,5,1.9756,1.4111,incongruent,left,,,,,,stimulusFile/physical.xlsx,,,,,,,,,,,,,,,,,,,,,,,,,,,,,,,
,,,,,,,,,,,,,,,698,2022-01-30_15h38.58.897,multiplicationStroop,2021.2.3,Win32,60.21557175,,,,,right,1,0.6343,0,34,34,10,1,6,8,6 | 8,2,1.4111,1.9756,congruent,right,,,,,,stimulusFile/physical.xlsx,,,,,,,,,,,,,,,,,,,,,,,,,,,,,,,
,,,,,,,,,,,,,,,698,2022-01-30_15h38.58.897,multiplicationStroop,2021.2.3,Win32,60.21557175,,,,,left,1,0.4827,0,35,35,14,1,8,6,8 | 6,2,1.9756,1.4111,congruent,left,,,,,,stimulusFile/physical.xlsx,,,,,,,,,,,,,,,,,,,,,,,,,,,,,,,
,,,,,,,,,,,,,,,698,2022-01-30_15h38.58.897,multiplicationStroop,2021.2.3,Win32,60.21557175,,,,,right,1,0.5361,0,36,36,59,1,7,7,7 | 7,0,1.4111,1.9756,neutral,right,,,,,,stimulusFile/physical.xlsx,,,,,,,,,,,,,,,,,,,,,,,,,,,,,,,
,,,,,,,,,,,,,,,698,2022-01-30_15h38.58.897,multiplicationStroop,2021.2.3,Win32,60.21557175,,,,,left,0,0.5173,0,37,37,64,1,1,1,1 | 1,0,1.9756,1.4111,neutral,right,,,,,,stimulusFile/physical.xlsx,,,,,,,,,,,,,,,,,,,,,,,,,,,,,,,
,,,,,,,,,,,,,,,698,2022-01-30_15h38.58.897,multiplicationStroop,2021.2.3,Win32,60.21557175,,,,,left,1,0.516,0,38,38,27,1,8,9,8 | 9,1,1.9756,1.4111,incongruent,left,,,,,,stimulusFile/physical.xlsx,,,,,,,,,,,,,,,,,,,,,,,,,,,,,,,
,,,,,,,,,,,,,,,698,2022-01-30_15h38.58.897,multiplicationStroop,2021.2.3,Win32,60.21557175,,,,,left,1,0.5238,0,39,39,5,1,4,3,4 | 3,1,1.9756,1.4111,congruent,left,,,,,,stimulusFile/physical.xlsx,,,,,,,,,,,,,,,,,,,,,,,,,,,,,,,
,,,,,,,,,,,,,,,698,2022-01-30_15h38.58.897,multiplicationStroop,2021.2.3,Win32,60.21557175,,,,,right,1,0.4916,0,40,40,2,1,6,7,6 | 7,1,1.4111,1.9756,congruent,right,,,,,,stimulusFile/physical.xlsx,,,,,,,,,,,,,,,,,,,,,,,,,,,,,,,
,,,,,,,,,,,,,,,698,2022-01-30_15h38.58.897,multiplicationStroop,2021.2.3,Win32,60.21557175,,,,,right,1,0.5729,0,41,41,31,1,9,8,9 | 8,1,1.4111,1.9756,incongruent,right,,,,,,stimulusFile/physical.xlsx,,,,,,,,,,,,,,,,,,,,,,,,,,,,,,,
,,,,,,,,,,,,,,,698,2022-01-30_15h38.58.897,multiplicationStroop,2021.2.3,Win32,60.21557175,,,,,left,1,0.4848,0,42,42,55,1,9,9,9 | 9,0,1.9756,1.4111,neutral,left,,,,,,stimulusFile/physical.xlsx,,,,,,,,,,,,,,,,,,,,,,,,,,,,,,,
,,,,,,,,,,,,,,,698,2022-01-30_15h38.58.897,multiplicationStroop,2021.2.3,Win32,60.21557175,,,,,right,1,0.4772,0,43,43,16,1,1,6,1 | 6,5,1.4111,1.9756,congruent,right,,,,,,stimulusFile/physical.xlsx,,,,,,,,,,,,,,,,,,,,,,,,,,,,,,,
,,,,,,,,,,,,,,,698,2022-01-30_15h38.58.897,multiplicationStroop,2021.2.3,Win32,60.21557175,,,,,left,1,0.734,0,44,44,41,1,2,7,2 | 7,5,1.9756,1.4111,incongruent,left,,,,,,stimulusFile/physical.xlsx,,,,,,,,,,,,,,,,,,,,,,,,,,,,,,,
,,,,,,,,,,,,,,,698,2022-01-30_15h38.58.897,multiplicationStroop,2021.2.3,Win32,60.21557175,,,,,right,1,1.0177,0,45,45,37,1,4,2,4 | 2,2,1.4111,1.9756,incongruent,right,,,,,,stimulusFile/physical.xlsx,,,,,,,,,,,,,,,,,,,,,,,,,,,,,,,
,,,,,,,,,,,,,,,698,2022-01-30_15h38.58.897,multiplicationStroop,2021.2.3,Win32,60.21557175,,,,,right,1,0.5722,0,46,46,56,1,1,1,1 | 1,0,1.4111,1.9756,neutral,right,,,,,,stimulusFile/physical.xlsx,,,,,,,,,,,,,,,,,,,,,,,,,,,,,,,
,,,,,,,,,,,,,,,698,2022-01-30_15h38.58.897,multiplicationStroop,2021.2.3,Win32,60.21557175,,,,,left,1,0.4586,0,47,47,54,1,7,7,7 | 7,0,1.9756,1.4111,neutral,left,,,,,,stimulusFile/physical.xlsx,,,,,,,,,,,,,,,,,,,,,,,,,,,,,,,
,,,,,,,,,,,,,,,698,2022-01-30_15h38.58.897,multiplicationStroop,2021.2.3,Win32,60.21557175,,,,,left,1,0.5676,0,48,48,49,1,3,3,3 | 3,0,1.9756,1.4111,neutral,left,,,,,,stimulusFile/physical.xlsx,,,,,,,,,,,,,,,,,,,,,,,,,,,,,,,
,,,,,,,,,,,,,,,698,2022-01-30_15h38.58.897,multiplicationStroop,2021.2.3,Win32,60.21557175,,,,,left,0,0.4845,0,49,49,66,1,3,3,3 | 3,0,1.9756,1.4111,neutral,right,,,,,,stimulusFile/physical.xlsx,,,,,,,,,,,,,,,,,,,,,,,,,,,,,,,
,,,,,,,,,,,,,,,698,2022-01-30_15h38.58.897,multiplicationStroop,2021.2.3,Win32,60.21557175,,,,,left,1,0.5339,0,50,50,6,1,7,6,7 | 6,1,1.9756,1.4111,congruent,left,,,,,,stimulusFile/physical.xlsx,,,,,,,,,,,,,,,,,,,,,,,,,,,,,,,
,,,,,,,,,,,,,,,698,2022-01-30_15h38.58.897,multiplicationStroop,2021.2.3,Win32,60.21557175,,,,,right,1,0.5173,0,51,51,19,1,4,9,4 | 9,5,1.4111,1.9756,congruent,right,,,,,,stimulusFile/physical.xlsx,,,,,,,,,,,,,,,,,,,,,,,,,,,,,,,
,,,,,,,,,,,,,,,698,2022-01-30_15h38.58.897,multiplicationStroop,2021.2.3,Win32,60.21557175,,,,,right,1,0.5424,0,52,52,44,1,6,1,6 | 1,5,1.4111,1.9756,incongruent,right,,,,,,stimulusFile/physical.xlsx,,,,,,,,,,,,,,,,,,,,,,,,,,,,,,,
,,,,,,,,,,,,,,,698,2022-01-30_15h38.58.897,multiplicationStroop,2021.2.3,Win32,60.21557175,,,,,right,1,0.4933,0,53,53,30,1,7,6,7 | 6,1,1.4111,1.9756,incongruent,right,,,,,,stimulusFile/physical.xlsx,,,,,,,,,,,,,,,,,,,,,,,,,,,,,,,
,,,,,,,,,,,,,,,698,2022-01-30_15h38.58.897,multiplicationStroop,2021.2.3,Win32,60.21557175,,,,,left,1,0.5909,0,54,54,35,1,7,9,7 | 9,2,1.9756,1.4111,incongruent,left,,,,,,stimulusFile/physical.xlsx,,,,,,,,,,,,,,,,,,,,,,,,,,,,,,,
,,,,,,,,,,,,,,,698,2022-01-30_15h38.58.897,multiplicationStroop,2021.2.3,Win32,60.21557175,,,,,left,1,0.4604,0,55,55,22,1,8,3,8 | 3,5,1.9756,1.4111,congruent,left,,,,,,stimulusFile/physical.xlsx,,,,,,,,,,,,,,,,,,,,,,,,,,,,,,,
,,,,,,,,,,,,,,,698,2022-01-30_15h38.58.897,multiplicationStroop,2021.2.3,Win32,60.21557175,,,,,left,1,0.4228,0,56,56,15,1,9,7,9 | 7,2,1.9756,1.4111,congruent,left,,,,,,stimulusFile/physical.xlsx,,,,,,,,,,,,,,,,,,,,,,,,,,,,,,,
,,,,,,,,,,,,,,,698,2022-01-30_15h38.58.897,multiplicationStroop,2021.2.3,Win32,60.21557175,,,,,right,1,0.5068,0,57,57,39,1,9,7,9 | 7,2,1.4111,1.9756,incongruent,right,,,,,,stimulusFile/physical.xlsx,,,,,,,,,,,,,,,,,,,,,,,,,,,,,,,
,,,,,,,,,,,,,,,698,2022-01-30_15h38.58.897,multiplicationStroop,2021.2.3,Win32,60.21557175,,,,,right,1,0.568,0,58,58,8,1,1,3,1 | 3,2,1.4111,1.9756,congruent,right,,,,,,stimulusFile/physical.xlsx,,,,,,,,,,,,,,,,,,,,,,,,,,,,,,,
,,,,,,,,,,,,,,,698,2022-01-30_15h38.58.897,multiplicationStroop,2021.2.3,Win32,60.21557175,,,,,right,1,0.5466,0,59,59,38,1,8,6,8 | 6,2,1.4111,1.9756,incongruent,right,,,,,,stimulusFile/physical.xlsx,,,,,,,,,,,,,,,,,,,,,,,,,,,,,,,
,,,,,,,,,,,,,,,698,2022-01-30_15h38.58.897,multiplicationStroop,2021.2.3,Win32,60.21557175,,,,,right,1,0.5867,0,60,60,0,1,1,2,1 | 2,1,1.4111,1.9756,congruent,right,,,,,,stimulusFile/physical.xlsx,,,,,,,,,,,,,,,,,,,,,,,,,,,,,,,
,,,,,,,,,,,,,,,698,2022-01-30_15h38.58.897,multiplicationStroop,2021.2.3,Win32,60.21557175,,,,,left,1,0.5174,0,61,61,23,1,9,4,9 | 4,5,1.9756,1.4111,congruent,left,,,,,,stimulusFile/physical.xlsx,,,,,,,,,,,,,,,,,,,,,,,,,,,,,,,
,,,,,,,,,,,,,,,698,2022-01-30_15h38.58.897,multiplicationStroop,2021.2.3,Win32,60.21557175,,,,,left,1,0.4719,0,62,62,20,1,6,1,6 | 1,5,1.9756,1.4111,congruent,left,,,,,,stimulusFile/physical.xlsx,,,,,,,,,,,,,,,,,,,,,,,,,,,,,,,
,,,,,,,,,,,,,,,698,2022-01-30_15h38.58.897,multiplicationStroop,2021.2.3,Win32,60.21557175,,,,,left,1,0.5378,0,63,63,70,1,8,8,8 | 8,0,1.9756,1.4111,neutral,left,,,,,,stimulusFile/physical.xlsx,,,,,,,,,,,,,,,,,,,,,,,,,,,,,,,
,,,,,,,,,,,,,,,698,2022-01-30_15h38.58.897,multiplicationStroop,2021.2.3,Win32,60.21557175,,,,,left,1,0.4253,0,64,64,51,1,8,8,8 | 8,0,1.9756,1.4111,neutral,left,,,,,,stimulusFile/physical.xlsx,,,,,,,,,,,,,,,,,,,,,,,,,,,,,,,
,,,,,,,,,,,,,,,698,2022-01-30_15h38.58.897,multiplicationStroop,2021.2.3,Win32,60.21557175,,,,,right,1,0.5868,0,65,65,1,1,3,4,3 | 4,1,1.4111,1.9756,congruent,right,,,,,,stimulusFile/physical.xlsx,,,,,,,,,,,,,,,,,,,,,,,,,,,,,,,
,,,,,,,,,,,,,,,698,2022-01-30_15h38.58.897,multiplicationStroop,2021.2.3,Win32,60.21557175,,,,,right,0,0.5011,0,66,66,69,1,7,7,7 | 7,0,1.4111,1.9756,neutral,left,,,,,,stimulusFile/physical.xlsx,,,,,,,,,,,,,,,,,,,,,,,,,,,,,,,
,,,,,,,,,,,,,,,698,2022-01-30_15h38.58.897,multiplicationStroop,2021.2.3,Win32,60.21557175,,,,,right,1,0.4532,0,67,67,17,1,2,7,2 | 7,5,1.4111,1.9756,congruent,right,,,,,,stimulusFile/physical.xlsx,,,,,,,,,,,,,,,,,,,,,,,,,,,,,,,
,,,,,,,,,,,,,,,698,2022-01-30_15h38.58.897,multiplicationStroop,2021.2.3,Win32,60.21557175,,,,,right,1,0.6788,0,68,68,60,1,3,3,3 | 3,0,1.4111,1.9756,neutral,right,,,,,,stimulusFile/physical.xlsx,,,,,,,,,,,,,,,,,,,,,,,,,,,,,,,
,,,,,,,,,,,,,,,698,2022-01-30_15h38.58.897,multiplicationStroop,2021.2.3,Win32,60.21557175,,,,,right,1,0.4345,0,69,69,11,1,7,9,7 | 9,2,1.4111,1.9756,congruent,right,,,,,,stimulusFile/physical.xlsx,,,,,,,,,,,,,,,,,,,,,,,,,,,,,,,
,,,,,,,,,,,,,,,698,2022-01-30_15h38.58.897,multiplicationStroop,2021.2.3,Win32,60.21557175,,,,,right,1,0.4047,0,70,70,36,1,3,1,3 | 1,2,1.4111,1.9756,incongruent,right,,,,,,stimulusFile/physical.xlsx,,,,,,,,,,,,,,,,,,,,,,,,,,,,,,,
,,,,,,,,,,,,,,,698,2022-01-30_15h38.58.897,multiplicationStroop,2021.2.3,Win32,60.21557175,,,,,right,1,0.4846,0,71,71,28,1,2,1,2 | 1,1,1.4111,1.9756,incongruent,right,,,,,,stimulusFile/physical.xlsx,,,,,,,,,,,,,,,,,,,,,,,,,,,,,,,
,,,,,,,,,,,,,,,698,2022-01-30_15h38.58.897,multiplicationStroop,2021.2.3,Win32,60.21557175,,,,,,,,,,,,,,,,,,,,,0,0,0,1,1,stimulusFile/physical.xlsx,PHYSICALLY larger (larger font size).,images/physicallyLarger.png,,,,,,,,,,,,,,,,,,,,,,,,,,,,,
,,,,,,,,,,,,,,,698,2022-01-30_15h38.58.897,multiplicationStroop,2021.2.3,Win32,60.21557175,space,73.0865,space,16.3491,left,1,0.8943,0,0,0,71,1,9,4,9 | 4,5,1.6933,1.6933,neutral,left,,,,,,stimulusFile/magnitude.xlsx,,,,,,,,,,,,,,,,,,,,,,,,,,,,,,,
,,,,,,,,,,,,,,,698,2022-01-30_15h38.58.897,multiplicationStroop,2021.2.3,Win32,60.21557175,,,,,left,1,0.8269,0,1,1,47,1,9,4,9 | 4,5,1.4111,1.9756,incongruent,left,,,,,,stimulusFile/magnitude.xlsx,,,,,,,,,,,,,,,,,,,,,,,,,,,,,,,
,,,,,,,,,,,,,,,698,2022-01-30_15h38.58.897,multiplicationStroop,2021.2.3,Win32,60.21557175,,,,,right,1,0.8126,0,2,2,2,1,6,7,6 | 7,1,1.4111,1.9756,congruent,right,,,,,,stimulusFile/magnitude.xlsx,,,,,,,,,,,,,,,,,,,,,,,,,,,,,,,
,,,,,,,,,,,,,,,698,2022-01-30_15h38.58.897,multiplicationStroop,2021.2.3,Win32,60.21557175,,,,,right,1,0.5173,0,3,3,17,1,2,7,2 | 7,5,1.4111,1.9756,congruent,right,,,,,,stimulusFile/magnitude.xlsx,,,,,,,,,,,,,,,,,,,,,,,,,,,,,,,
,,,,,,,,,,,,,,,698,2022-01-30_15h38.58.897,multiplicationStroop,2021.2.3,Win32,60.21557175,,,,,right,1,0.499,0,4,4,16,1,1,6,1 | 6,5,1.4111,1.9756,congruent,right,,,,,,stimulusFile/magnitude.xlsx,,,,,,,,,,,,,,,,,,,,,,,,,,,,,,,
,,,,,,,,,,,,,,,698,2022-01-30_15h38.58.897,multiplicationStroop,2021.2.3,Win32,60.21557175,,,,,left,1,0.445,0,5,5,45,1,7,2,7 | 2,5,1.4111,1.9756,incongruent,left,,,,,,stimulusFile/magnitude.xlsx,,,,,,,,,,,,,,,,,,,,,,,,,,,,,,,
,,,,,,,,,,,,,,,698,2022-01-30_15h38.58.897,multiplicationStroop,2021.2.3,Win32,60.21557175,,,,,left,1,0.4609,0,6,6,69,1,7,2,7 | 2,5,1.6933,1.6933,neutral,left,,,,,,stimulusFile/magnitude.xlsx,,,,,,,,,,,,,,,,,,,,,,,,,,,,,,,
,,,,,,,,,,,,,,,698,2022-01-30_15h38.58.897,multiplicationStroop,2021.2.3,Win32,60.21557175,,,,,right,1,0.4497,0,7,7,18,1,3,8,3 | 8,5,1.4111,1.9756,congruent,right,,,,,,stimulusFile/magnitude.xlsx,,,,,,,,,,,,,,,,,,,,,,,,,,,,,,,
,,,,,,,,,,,,,,,698,2022-01-30_15h38.58.897,multiplicationStroop,2021.2.3,Win32,60.21557175,,,,,left,1,0.4529,0,8,8,15,1,9,7,9 | 7,2,1.9756,1.4111,congruent,left,,,,,,stimulusFile/magnitude.xlsx,,,,,,,,,,,,,,,,,,,,,,,,,,,,,,,
,,,,,,,,,,,,,,,698,2022-01-30_15h38.58.897,multiplicationStroop,2021.2.3,Win32,60.21557175,,,,,left,1,0.5781,0,9,9,30,1,7,6,7 | 6,1,1.4111,1.9756,incongruent,left,,,,,,stimulusFile/magnitude.xlsx,,,,,,,,,,,,,,,,,,,,,,,,,,,,,,,
,,,,,,,,,,,,,,,698,2022-01-30_15h38.58.897,multiplicationStroop,2021.2.3,Win32,60.21557175,,,,,right,1,0.7449,0,10,10,35,1,7,9,7 | 9,2,1.9756,1.4111,incongruent,right,,,,,,stimulusFile/magnitude.xlsx,,,,,,,,,,,,,,,,,,,,,,,,,,,,,,,
,,,,,,,,,,,,,,,698,2022-01-30_15h38.58.897,multiplicationStroop,2021.2.3,Win32,60.21557175,,,,,right,1,0.4723,0,11,11,11,1,7,9,7 | 9,2,1.4111,1.9756,congruent,right,,,,,,stimulusFile/magnitude.xlsx,,,,,,,,,,,,,,,,,,,,,,,,,,,,,,,
,,,,,,,,,,,,,,,698,2022-01-30_15h38.58.897,multiplicationStroop,2021.2.3,Win32,60.21557175,,,,,right,1,0.7289,0,12,12,49,1,3,4,3 | 4,1,1.6933,1.6933,neutral,right,,,,,,stimulusFile/magnitude.xlsx,,,,,,,,,,,,,,,,,,,,,,,,,,,,,,,
,,,,,,,,,,,,,,,698,2022-01-30_15h38.58.897,multiplicationStroop,2021.2.3,Win32,60.21557175,,,,,right,1,0.7213,0,13,13,26,1,6,7,6 | 7,1,1.9756,1.4111,incongruent,right,,,,,,stimulusFile/magnitude.xlsx,,,,,,,,,,,,,,,,,,,,,,,,,,,,,,,
,,,,,,,,,,,,,,,698,2022-01-30_15h38.58.897,multiplicationStroop,2021.2.3,Win32,60.21557175,,,,,right,1,0.5942,0,14,14,57,1,2,4,2 | 4,2,1.6933,1.6933,neutral,right,,,,,,stimulusFile/magnitude.xlsx,,,,,,,,,,,,,,,,,,,,,,,,,,,,,,,
,,,,,,,,,,,,,,,698,2022-01-30_15h38.58.897,multiplicationStroop,2021.2.3,Win32,60.21557175,,,,,left,1,0.5676,0,15,15,61,1,4,2,4 | 2,2,1.6933,1.6933,neutral,left,,,,,,stimulusFile/magnitude.xlsx,,,,,,,,,,,,,,,,,,,,,,,,,,,,,,,
,,,,,,,,,,,,,,,698,2022-01-30_15h38.58.897,multiplicationStroop,2021.2.3,Win32,60.21557175,,,,,right,0,0.5446,0,16,16,39,1,9,7,9 | 7,2,1.4111,1.9756,incongruent,left,,,,,,stimulusFile/magnitude.xlsx,,,,,,,,,,,,,,,,,,,,,,,,,,,,,,,
,,,,,,,,,,,,,,,698,2022-01-30_15h38.58.897,multiplicationStroop,2021.2.3,Win32,60.21557175,,,,,left,1,0.6225,0,17,17,62,1,8,6,8 | 6,2,1.6933,1.6933,neutral,left,,,,,,stimulusFile/magnitude.xlsx,,,,,,,,,,,,,,,,,,,,,,,,,,,,,,,
,,,,,,,,,,,,,,,698,2022-01-30_15h38.58.897,multiplicationStroop,2021.2.3,Win32,60.21557175,,,,,right,1,0.5933,0,18,18,25,1,3,4,3 | 4,1,1.9756,1.4111,incongruent,right,,,,,,stimulusFile/magnitude.xlsx,,,,,,,,,,,,,,,,,,,,,,,,,,,,,,,
,,,,,,,,,,,,,,,698,2022-01-30_15h38.58.897,multiplicationStroop,2021.2.3,Win32,60.21557175,,,,,right,1,0.5989,0,19,19,59,1,7,9,7 | 9,2,1.6933,1.6933,neutral,right,,,,,,stimulusFile/magnitude.xlsx,,,,,,,,,,,,,,,,,,,,,,,,,,,,,,,
,,,,,,,,,,,,,,,698,2022-01-30_15h38.58.897,multiplicationStroop,2021.2.3,Win32,60.21557175,,,,,left,1,0.5444,0,20,20,22,1,8,3,8 | 3,5,1.9756,1.4111,congruent,left,,,,,,stimulusFile/magnitude.xlsx,,,,,,,,,,,,,,,,,,,,,,,,,,,,,,,
,,,,,,,,,,,,,,,698,2022-01-30_15h38.58.897,multiplicationStroop,2021.2.3,Win32,60.21557175,,,,,right,1,0.5326,0,21,21,0,1,1,2,1 | 2,1,1.4111,1.9756,congruent,right,,,,,,stimulusFile/magnitude.xlsx,,,,,,,,,,,,,,,,,,,,,,,,,,,,,,,
,,,,,,,,,,,,,,,698,2022-01-30_15h38.58.897,multiplicationStroop,2021.2.3,Win32,60.21557175,,,,,right,1,0.5163,0,22,22,32,1,1,3,1 | 3,2,1.9756,1.4111,incongruent,right,,,,,,stimulusFile/magnitude.xlsx,,,,,,,,,,,,,,,,,,,,,,,,,,,,,,,
,,,,,,,,,,,,,,,698,2022-01-30_15h38.58.897,multiplicationStroop,2021.2.3,Win32,60.21557175,,,,,right,1,0.4685,0,23,23,65,1,2,7,2 | 7,5,1.6933,1.6933,neutral,right,,,,,,stimulusFile/magnitude.xlsx,,,,,,,,,,,,,,,,,,,,,,,,,,,,,,,
,,,,,,,,,,,,,,,698,2022-01-30_15h38.58.897,multiplicationStroop,2021.2.3,Win32,60.21557175,,,,,right,1,0.5831,0,24,24,42,1,3,8,3 | 8,5,1.9756,1.4111,incongruent,right,,,,,,stimulusFile/magnitude.xlsx,,,,,,,,,,,,,,,,,,,,,,,,,,,,,,,
,,,,,,,,,,,,,,,698,2022-01-30_15h38.58.897,multiplicationStroop,2021.2.3,Win32,60.21557175,,,,,left,1,0.5666,0,25,25,21,1,7,2,7 | 2,5,1.9756,1.4111,congruent,left,,,,,,stimulusFile/magnitude.xlsx,,,,,,,,,,,,,,,,,,,,,,,,,,,,,,,
,,,,,,,,,,,,,,,698,2022-01-30_15h38.58.897,multiplicationStroop,2021.2.3,Win32,60.21557175,,,,,right,1,0.6997,0,26,26,9,1,2,4,2 | 4,2,1.4111,1.9756,congruent,right,,,,,,stimulusFile/magnitude.xlsx,,,,,,,,,,,,,,,,,,,,,,,,,,,,,,,
,,,,,,,,,,,,,,,698,2022-01-30_15h38.58.897,multiplicationStroop,2021.2.3,Win32,60.21557175,,,,,left,1,0.727,0,27,27,55,1,9,8,9 | 8,1,1.6933,1.6933,neutral,left,,,,,,stimulusFile/magnitude.xlsx,,,,,,,,,,,,,,,,,,,,,,,,,,,,,,,
,,,,,,,,,,,,,,,698,2022-01-30_15h38.58.897,multiplicationStroop,2021.2.3,Win32,60.21557175,,,,,right,1,0.75,0,28,28,1,1,3,4,3 | 4,1,1.4111,1.9756,congruent,right,,,,,,stimulusFile/magnitude.xlsx,,,,,,,,,,,,,,,,,,,,,,,,,,,,,,,
,,,,,,,,,,,,,,,698,2022-01-30_15h38.58.897,multiplicationStroop,2021.2.3,Win32,60.21557175,,,,,right,1,0.5449,0,29,29,58,1,6,8,6 | 8,2,1.6933,1.6933,neutral,right,,,,,,stimulusFile/magnitude.xlsx,,,,,,,,,,,,,,,,,,,,,,,,,,,,,,,
,,,,,,,,,,,,,,,698,2022-01-30_15h38.58.897,multiplicationStroop,2021.2.3,Win32,60.21557175,,,,,right,1,0.5941,0,30,30,48,1,1,2,1 | 2,1,1.6933,1.6933,neutral,right,,,,,,stimulusFile/magnitude.xlsx,,,,,,,,,,,,,,,,,,,,,,,,,,,,,,,
,,,,,,,,,,,,,,,698,2022-01-30_15h38.58.897,multiplicationStroop,2021.2.3,Win32,60.21557175,,,,,left,1,0.5263,0,31,31,36,1,3,1,3 | 1,2,1.4111,1.9756,incongruent,left,,,,,,stimulusFile/magnitude.xlsx,,,,,,,,,,,,,,,,,,,,,,,,,,,,,,,
,,,,,,,,,,,,,,,698,2022-01-30_15h38.58.897,multiplicationStroop,2021.2.3,Win32,60.21557175,,,,,right,1,0.4818,0,32,32,3,1,8,9,8 | 9,1,1.4111,1.9756,congruent,right,,,,,,stimulusFile/magnitude.xlsx,,,,,,,,,,,,,,,,,,,,,,,,,,,,,,,
,,,,,,,,,,,,,,,698,2022-01-30_15h38.58.897,multiplicationStroop,2021.2.3,Win32,60.21557175,,,,,left,1,0.4676,0,33,33,13,1,4,2,4 | 2,2,1.9756,1.4111,congruent,left,,,,,,stimulusFile/magnitude.xlsx,,,,,,,,,,,,,,,,,,,,,,,,,,,,,,,
,,,,,,,,,,,,,,,698,2022-01-30_15h38.58.897,multiplicationStroop,2021.2.3,Win32,60.21557175,,,,,left,1,0.5347,0,34,34,7,1,9,8,9 | 8,1,1.9756,1.4111,congruent,left,,,,,,stimulusFile/magnitude.xlsx,,,,,,,,,,,,,,,,,,,,,,,,,,,,,,,
,,,,,,,,,,,,,,,698,2022-01-30_15h38.58.897,multiplicationStroop,2021.2.3,Win32,60.21557175,,,,,right,1,0.6461,0,35,35,40,1,1,6,1 | 6,5,1.9756,1.4111,incongruent,right,,,,,,stimulusFile/magnitude.xlsx,,,,,,,,,,,,,,,,,,,,,,,,,,,,,,,
,,,,,,,,,,,,,,,698,2022-01-30_15h38.58.897,multiplicationStroop,2021.2.3,Win32,60.21557175,,,,,right,0,0.8194,0,36,36,44,1,6,1,6 | 1,5,1.4111,1.9756,incongruent,left,,,,,,stimulusFile/magnitude.xlsx,,,,,,,,,,,,,,,,,,,,,,,,,,,,,,,
,,,,,,,,,,,,,,,698,2022-01-30_15h38.58.897,multiplicationStroop,2021.2.3,Win32,60.21557175,,,,,left,1,0.6138,0,37,37,20,1,6,1,6 | 1,5,1.9756,1.4111,congruent,left,,,,,,stimulusFile/magnitude.xlsx,,,,,,,,,,,,,,,,,,,,,,,,,,,,,,,
,,,,,,,,,,,,,,,698,2022-01-30_15h38.58.897,multiplicationStroop,2021.2.3,Win32,60.21557175,,,,,right,1,0.8149,0,38,38,34,1,6,8,6 | 8,2,1.9756,1.4111,incongruent,right,,,,,,stimulusFile/magnitude.xlsx,,,,,,,,,,,,,,,,,,,,,,,,,,,,,,,
,,,,,,,,,,,,,,,698,2022-01-30_15h38.58.897,multiplicationStroop,2021.2.3,Win32,60.21557175,,,,,left,1,0.6164,0,39,39,60,1,3,1,3 | 1,2,1.6933,1.6933,neutral,left,,,,,,stimulusFile/magnitude.xlsx,,,,,,,,,,,,,,,,,,,,,,,,,,,,,,,
,,,,,,,,,,,,,,,698,2022-01-30_15h38.58.897,multiplicationStroop,2021.2.3,Win32,60.21557175,,,,,left,1,0.7652,0,40,40,63,1,9,7,9 | 7,2,1.6933,1.6933,neutral,left,,,,,,stimulusFile/magnitude.xlsx,,,,,,,,,,,,,,,,,,,,,,,,,,,,,,,
,,,,,,,,,,,,,,,698,2022-01-30_15h38.58.897,multiplicationStroop,2021.2.3,Win32,60.21557175,,,,,right,1,0.6445,0,41,41,8,1,1,3,1 | 3,2,1.4111,1.9756,congruent,right,,,,,,stimulusFile/magnitude.xlsx,,,,,,,,,,,,,,,,,,,,,,,,,,,,,,,
,,,,,,,,,,,,,,,698,2022-01-30_15h38.58.897,multiplicationStroop,2021.2.3,Win32,60.21557175,,,,,right,1,0.7188,0,42,42,66,1,3,8,3 | 8,5,1.6933,1.6933,neutral,right,,,,,,stimulusFile/magnitude.xlsx,,,,,,,,,,,,,,,,,,,,,,,,,,,,,,,
,,,,,,,,,,,,,,,698,2022-01-30_15h38.58.897,multiplicationStroop,2021.2.3,Win32,60.21557175,,,,,right,1,0.6276,0,43,43,19,1,4,9,4 | 9,5,1.4111,1.9756,congruent,right,,,,,,stimulusFile/magnitude.xlsx,,,,,,,,,,,,,,,,,,,,,,,,,,,,,,,
,,,,,,,,,,,,,,,698,2022-01-30_15h38.58.897,multiplicationStroop,2021.2.3,Win32,60.21557175,,,,,left,1,0.8994,0,44,44,28,1,2,1,2 | 1,1,1.4111,1.9756,incongruent,left,,,,,,stimulusFile/magnitude.xlsx,,,,,,,,,,,,,,,,,,,,,,,,,,,,,,,
,,,,,,,,,,,,,,,698,2022-01-30_15h38.58.897,multiplicationStroop,2021.2.3,Win32,60.21557175,,,,,left,1,0.4776,0,45,45,4,1,2,1,2 | 1,1,1.9756,1.4111,congruent,left,,,,,,stimulusFile/magnitude.xlsx,,,,,,,,,,,,,,,,,,,,,,,,,,,,,,,
,,,,,,,,,,,,,,,698,2022-01-30_15h38.58.897,multiplicationStroop,2021.2.3,Win32,60.21557175,,,,,left,1,0.7505,0,46,46,37,1,4,2,4 | 2,2,1.4111,1.9756,incongruent,left,,,,,,stimulusFile/magnitude.xlsx,,,,,,,,,,,,,,,,,,,,,,,,,,,,,,,
,,,,,,,,,,,,,,,698,2022-01-30_15h38.58.897,multiplicationStroop,2021.2.3,Win32,60.21557175,,,,,right,1,0.6678,0,47,47,67,1,4,9,4 | 9,5,1.6933,1.6933,neutral,right,,,,,,stimulusFile/magnitude.xlsx,,,,,,,,,,,,,,,,,,,,,,,,,,,,,,,
,,,,,,,,,,,,,,,698,2022-01-30_15h38.58.897,multiplicationStroop,2021.2.3,Win32,60.21557175,,,,,left,0,0.6802,0,48,48,51,1,8,9,8 | 9,1,1.6933,1.6933,neutral,right,,,,,,stimulusFile/magnitude.xlsx,,,,,,,,,,,,,,,,,,,,,,,,,,,,,,,
,,,,,,,,,,,,,,,698,2022-01-30_15h38.58.897,multiplicationStroop,2021.2.3,Win32,60.21557175,,,,,right,1,0.8446,0,49,49,33,1,2,4,2 | 4,2,1.9756,1.4111,incongruent,right,,,,,,stimulusFile/magnitude.xlsx,,,,,,,,,,,,,,,,,,,,,,,,,,,,,,,
,,,,,,,,,,,,,,,698,2022-01-30_15h38.58.897,multiplicationStroop,2021.2.3,Win32,60.21557175,,,,,right,1,1.15,0,50,50,50,1,6,7,6 | 7,1,1.6933,1.6933,neutral,right,,,,,,stimulusFile/magnitude.xlsx,,,,,,,,,,,,,,,,,,,,,,,,,,,,,,,
,,,,,,,,,,,,,,,698,2022-01-30_15h38.58.897,multiplicationStroop,2021.2.3,Win32,60.21557175,,,,,left,1,0.5499,0,51,51,46,1,8,3,8 | 3,5,1.4111,1.9756,incongruent,left,,,,,,stimulusFile/magnitude.xlsx,,,,,,,,,,,,,,,,,,,,,,,,,,,,,,,
,,,,,,,,,,,,,,,698,2022-01-30_15h38.58.897,multiplicationStroop,2021.2.3,Win32,60.21557175,,,,,left,1,0.7365,0,52,52,38,1,8,6,8 | 6,2,1.4111,1.9756,incongruent,left,,,,,,stimulusFile/magnitude.xlsx,,,,,,,,,,,,,,,,,,,,,,,,,,,,,,,
,,,,,,,,,,,,,,,698,2022-01-30_15h38.58.897,multiplicationStroop,2021.2.3,Win32,60.21557175,,,,,left,0,0.7409,0,53,53,27,1,8,9,8 | 9,1,1.9756,1.4111,incongruent,right,,,,,,stimulusFile/magnitude.xlsx,,,,,,,,,,,,,,,,,,,,,,,,,,,,,,,
,,,,,,,,,,,,,,,698,2022-01-30_15h38.58.897,multiplicationStroop,2021.2.3,Win32,60.21557175,,,,,left,0,0.6525,0,54,54,24,1,1,2,1 | 2,1,1.9756,1.4111,incongruent,right,,,,,,stimulusFile/magnitude.xlsx,,,,,,,,,,,,,,,,,,,,,,,,,,,,,,,
,,,,,,,,,,,,,,,698,2022-01-30_15h38.58.897,multiplicationStroop,2021.2.3,Win32,60.21557175,,,,,right,1,0.8773,0,55,55,64,1,1,6,1 | 6,5,1.6933,1.6933,neutral,right,,,,,,stimulusFile/magnitude.xlsx,,,,,,,,,,,,,,,,,,,,,,,,,,,,,,,
,,,,,,,,,,,,,,,698,2022-01-30_15h38.58.897,multiplicationStroop,2021.2.3,Win32,60.21557175,,,,,left,1,0.7078,0,56,56,29,1,4,3,4 | 3,1,1.4111,1.9756,incongruent,left,,,,,,stimulusFile/magnitude.xlsx,,,,,,,,,,,,,,,,,,,,,,,,,,,,,,,
,,,,,,,,,,,,,,,698,2022-01-30_15h38.58.897,multiplicationStroop,2021.2.3,Win32,60.21557175,,,,,left,1,0.748,0,57,57,31,1,9,8,9 | 8,1,1.4111,1.9756,incongruent,left,,,,,,stimulusFile/magnitude.xlsx,,,,,,,,,,,,,,,,,,,,,,,,,,,,,,,
,,,,,,,,,,,,,,,698,2022-01-30_15h38.58.897,multiplicationStroop,2021.2.3,Win32,60.21557175,,,,,right,1,0.6278,0,58,58,43,1,4,9,4 | 9,5,1.9756,1.4111,incongruent,right,,,,,,stimulusFile/magnitude.xlsx,,,,,,,,,,,,,,,,,,,,,,,,,,,,,,,
,,,,,,,,,,,,,,,698,2022-01-30_15h38.58.897,multiplicationStroop,2021.2.3,Win32,60.21557175,,,,,left,1,0.6918,0,59,59,5,1,4,3,4 | 3,1,1.9756,1.4111,congruent,left,,,,,,stimulusFile/magnitude.xlsx,,,,,,,,,,,,,,,,,,,,,,,,,,,,,,,
,,,,,,,,,,,,,,,698,2022-01-30_15h38.58.897,multiplicationStroop,2021.2.3,Win32,60.21557175,,,,,left,1,0.5197,0,60,60,14,1,8,6,8 | 6,2,1.9756,1.4111,congruent,left,,,,,,stimulusFile/magnitude.xlsx,,,,,,,,,,,,,,,,,,,,,,,,,,,,,,,
,,,,,,,,,,,,,,,698,2022-01-30_15h38.58.897,multiplicationStroop,2021.2.3,Win32,60.21557175,,,,,left,1,0.5726,0,61,61,6,1,7,6,7 | 6,1,1.9756,1.4111,congruent,left,,,,,,stimulusFile/magnitude.xlsx,,,,,,,,,,,,,,,,,,,,,,,,,,,,,,,
,,,,,,,,,,,,,,,698,2022-01-30_15h38.58.897,multiplicationStroop,2021.2.3,Win32,60.21557175,,,,,right,1,0.5939,0,62,62,56,1,1,3,1 | 3,2,1.6933,1.6933,neutral,right,,,,,,stimulusFile/magnitude.xlsx,,,,,,,,,,,,,,,,,,,,,,,,,,,,,,,
,,,,,,,,,,,,,,,698,2022-01-30_15h38.58.897,multiplicationStroop,2021.2.3,Win32,60.21557175,,,,,left,1,0.5818,0,63,63,54,1,7,6,7 | 6,1,1.6933,1.6933,neutral,left,,,,,,stimulusFile/magnitude.xlsx,,,,,,,,,,,,,,,,,,,,,,,,,,,,,,,
,,,,,,,,,,,,,,,698,2022-01-30_15h38.58.897,multiplicationStroop,2021.2.3,Win32,60.21557175,,,,,left,1,0.4987,0,64,64,53,1,4,3,4 | 3,1,1.6933,1.6933,neutral,left,,,,,,stimulusFile/magnitude.xlsx,,,,,,,,,,,,,,,,,,,,,,,,,,,,,,,
,,,,,,,,,,,,,,,698,2022-01-30_15h38.58.897,multiplicationStroop,2021.2.3,Win32,60.21557175,,,,,right,1,0.5648,0,65,65,41,1,2,7,2 | 7,5,1.9756,1.4111,incongruent,right,,,,,,stimulusFile/magnitude.xlsx,,,,,,,,,,,,,,,,,,,,,,,,,,,,,,,
,,,,,,,,,,,,,,,698,2022-01-30_15h38.58.897,multiplicationStroop,2021.2.3,Win32,60.21557175,,,,,left,1,0.5096,0,66,66,52,1,2,1,2 | 1,1,1.6933,1.6933,neutral,left,,,,,,stimulusFile/magnitude.xlsx,,,,,,,,,,,,,,,,,,,,,,,,,,,,,,,
,,,,,,,,,,,,,,,698,2022-01-30_15h38.58.897,multiplicationStroop,2021.2.3,Win32,60.21557175,,,,,left,1,0.533,0,67,67,12,1,3,1,3 | 1,2,1.9756,1.4111,congruent,left,,,,,,stimulusFile/magnitude.xlsx,,,,,,,,,,,,,,,,,,,,,,,,,,,,,,,
,,,,,,,,,,,,,,,698,2022-01-30_15h38.58.897,multiplicationStroop,2021.2.3,Win32,60.21557175,,,,,right,1,0.545,0,68,68,10,1,6,8,6 | 8,2,1.4111,1.9756,congruent,right,,,,,,stimulusFile/magnitude.xlsx,,,,,,,,,,,,,,,,,,,,,,,,,,,,,,,
,,,,,,,,,,,,,,,698,2022-01-30_15h38.58.897,multiplicationStroop,2021.2.3,Win32,60.21557175,,,,,left,1,0.7756,0,69,69,70,1,8,3,8 | 3,5,1.6933,1.6933,neutral,left,,,,,,stimulusFile/magnitude.xlsx,,,,,,,,,,,,,,,,,,,,,,,,,,,,,,,
,,,,,,,,,,,,,,,698,2022-01-30_15h38.58.897,multiplicationStroop,2021.2.3,Win32,60.21557175,,,,,left,1,0.5252,0,70,70,23,1,9,4,9 | 4,5,1.9756,1.4111,congruent,left,,,,,,stimulusFile/magnitude.xlsx,,,,,,,,,,,,,,,,,,,,,,,,,,,,,,,
,,,,,,,,,,,,,,,698,2022-01-30_15h38.58.897,multiplicationStroop,2021.2.3,Win32,60.21557175,,,,,left,1,0.5269,0,71,71,68,1,6,1,6 | 1,5,1.6933,1.6933,neutral,left,,,,,,stimulusFile/magnitude.xlsx,,,,,,,,,,,,,,,,,,,,,,,,,,,,,,,
,,,,,,,,,,,,,,,698,2022-01-30_15h38.58.897,multiplicationStroop,2021.2.3,Win32,60.21557175,,,,,,,,,,,,,,,,,,,,,0,1,1,0,1,stimulusFile/magnitude.xlsx,NUMERICALLY larger (larger coefficient).,images/numericallyLarger.png,,,,,,,,,,,,,,,,,,,,,,,,,,,,,
,,,,,,,,,,,,,,,698,2022-01-30_15h38.58.897,multiplicationStroop,2021.2.3,Win32,60.21557175,,,,,,,,,,,,,,,,,,,,,,,,,,,,,space,40.7072,space,7.1401,28,2.9486,1,0,0,0,16,1,7,×,4,7 × 4,incongruent,largerFirst,1,2,28,,,,,,,,
,,,,,,,,,,,,,,,698,2022-01-30_15h38.58.897,multiplicationStroop,2021.2.3,Win32,60.21557175,,,,,,,,,,,,,,,,,,,,,,,,,,,,,,,,,63,4.2875,1,0,1,1,3,1,7,×,9,7 × 9,incongruent,smallerFirst,2,1,63,,,,,,,,
,,,,,,,,,,,,,,,698,2022-01-30_15h38.58.897,multiplicationStroop,2021.2.3,Win32,60.21557175,,,,,,,,,,,,,,,,,,,,,,,,,,,,,,,,,72,2.2713,1,0,2,2,0,1,8,×,9,8 × 9,incongruent,smallerFirst,2,1,72,,,,,,,,
,,,,,,,,,,,,,,,698,2022-01-30_15h38.58.897,multiplicationStroop,2021.2.3,Win32,60.21557175,,,,,,,,,,,,,,,,,,,,,,,,,,,,,,,,,8,1.8823,1,0,3,3,24,1,4,×,2,4 × 2,incongruent,largerFirst,1,2,8,,,,,,,,
,,,,,,,,,,,,,,,698,2022-01-30_15h38.58.897,multiplicationStroop,2021.2.3,Win32,60.21557175,,,,,,,,,,,,,,,,,,,,,,,,,,,,,,,,,20,1.8326,1,0,4,4,27,1,5,×,4,5 × 4,incongruent,largerFirst,1,2,20,,,,,,,,
,,,,,,,,,,,,,,,698,2022-01-30_15h38.58.897,multiplicationStroop,2021.2.3,Win32,60.21557175,,,,,,,,,,,,,,,,,,,,,,,,,,,,,,,,,81,2.0488,1,0,5,5,35,1,9,×,9,9 × 9,incongruent,tie,1,2,81,,,,,,,,
,,,,,,,,,,,,,,,698,2022-01-30_15h38.58.897,multiplicationStroop,2021.2.3,Win32,60.21557175,,,,,,,,,,,,,,,,,,,,,,,,,,,,,,,,,40,2.0658,1,0,6,6,13,1,5,×,8,5 × 8,incongruent,smallerFirst,2,1,40,,,,,,,,
,,,,,,,,,,,,,,,698,2022-01-30_15h38.58.897,multiplicationStroop,2021.2.3,Win32,60.21557175,,,,,,,,,,,,,,,,,,,,,,,,,,,,,,,,,42,1.8491,1,0,7,7,17,1,7,×,6,7 × 6,incongruent,largerFirst,1,2,42,,,,,,,,
,,,,,,,,,,,,,,,698,2022-01-30_15h38.58.897,multiplicationStroop,2021.2.3,Win32,60.21557175,,,,,,,,,,,,,,,,,,,,,,,,,,,,,,,,,15,1.7659,1,0,8,8,10,1,3,×,5,3 × 5,incongruent,smallerFirst,2,1,15,,,,,,,,
,,,,,,,,,,,,,,,698,2022-01-30_15h38.58.897,multiplicationStroop,2021.2.3,Win32,60.21557175,,,,,,,,,,,,,,,,,,,,,,,,,,,,,,,,,12,1.7326,1,0,9,9,19,1,6,×,2,6 × 2,incongruent,largerFirst,1,2,12,,,,,,,,
,,,,,,,,,,,,,,,698,2022-01-30_15h38.58.897,multiplicationStroop,2021.2.3,Win32,60.21557175,,,,,,,,,,,,,,,,,,,,,,,,,,,,,,,,,35,1.8656,1,0,10,10,12,1,5,×,7,5 × 7,incongruent,smallerFirst,2,1,35,,,,,,,,
,,,,,,,,,,,,,,,698,2022-01-30_15h38.58.897,multiplicationStroop,2021.2.3,Win32,60.21557175,,,,,,,,,,,,,,,,,,,,,,,,,,,,,,,,,54,2.1323,1,0,11,11,6,1,6,×,9,6 × 9,incongruent,smallerFirst,2,1,54,,,,,,,,
,,,,,,,,,,,,,,,698,2022-01-30_15h38.58.897,multiplicationStroop,2021.2.3,Win32,60.21557175,,,,,,,,,,,,,,,,,,,,,,,,,,,,,,,,,24,2.3492,1,0,12,12,9,1,3,×,8,3 × 8,incongruent,smallerFirst,2,1,24,,,,,,,,
,,,,,,,,,,,,,,,698,2022-01-30_15h38.58.897,multiplicationStroop,2021.2.3,Win32,60.21557175,,,,,,,,,,,,,,,,,,,,,,,,,,,,,,,,,36,2.0045,1,0,13,13,32,1,6,×,6,6 × 6,incongruent,tie,1,2,36,,,,,,,,
,,,,,,,,,,,,,,,698,2022-01-30_15h38.58.897,multiplicationStroop,2021.2.3,Win32,60.21557175,,,,,,,,,,,,,,,,,,,,,,,,,,,,,,,,,49,2.3324,1,0,14,14,33,1,7,×,7,7 × 7,incongruent,tie,1,2,49,,,,,,,,
,,,,,,,,,,,,,,,698,2022-01-30_15h38.58.897,multiplicationStroop,2021.2.3,Win32,60.21557175,,,,,,,,,,,,,,,,,,,,,,,,,,,,,,,,,48,2.0825,1,0,15,15,1,1,6,×,8,6 × 8,incongruent,smallerFirst,2,1,48,,,,,,,,
,,,,,,,,,,,,,,,698,2022-01-30_15h38.58.897,multiplicationStroop,2021.2.3,Win32,60.21557175,,,,,,,,,,,,,,,,,,,,,,,,,,,,,,,,,4,1.5322,1,0,16,16,28,1,2,×,2,2 × 2,incongruent,tie,1,2,4,,,,,,,,
,,,,,,,,,,,,,,,698,2022-01-30_15h38.58.897,multiplicationStroop,2021.2.3,Win32,60.21557175,,,,,,,,,,,,,,,,,,,,,,,,,,,,,,,,,56,2.2825,1,0,17,17,14,1,8,×,7,8 × 7,incongruent,largerFirst,1,2,56,,,,,,,,
,,,,,,,,,,,,,,,698,2022-01-30_15h38.58.897,multiplicationStroop,2021.2.3,Win32,60.21557175,,,,,,,,,,,,,,,,,,,,,,,,,,,,,,,,,21,1.6492,1,0,18,18,26,1,7,×,3,7 × 3,incongruent,largerFirst,1,2,21,,,,,,,,
,,,,,,,,,,,,,,,698,2022-01-30_15h38.58.897,multiplicationStroop,2021.2.3,Win32,60.21557175,,,,,,,,,,,,,,,,,,,,,,,,,,,,,,,,,18,2.0156,1,0,19,19,8,1,3,×,6,3 × 6,incongruent,smallerFirst,2,1,18,,,,,,,,
,,,,,,,,,,,,,,,698,2022-01-30_15h38.58.897,multiplicationStroop,2021.2.3,Win32,60.21557175,,,,,,,,,,,,,,,,,,,,,,,,,,,,,,,,,10,1.9159,1,0,20,20,21,1,5,×,2,5 × 2,incongruent,largerFirst,1,2,10,,,,,,,,
,,,,,,,,,,,,,,,698,2022-01-30_15h38.58.897,multiplicationStroop,2021.2.3,Win32,60.21557175,,,,,,,,,,,,,,,,,,,,,,,,,,,,,,,,,64,2.5157,1,0,21,21,34,1,8,×,8,8 × 8,incongruent,tie,1,2,64,,,,,,,,
,,,,,,,,,,,,,,,698,2022-01-30_15h38.58.897,multiplicationStroop,2021.2.3,Win32,60.21557175,,,,,,,,,,,,,,,,,,,,,,,,,,,,,,,,,18,1.9159,1,0,22,22,2,1,2,×,9,2 × 9,incongruent,smallerFirst,2,1,18,,,,,,,,
,,,,,,,,,,,,,,,698,2022-01-30_15h38.58.897,multiplicationStroop,2021.2.3,Win32,60.21557175,,,,,,,,,,,,,,,,,,,,,,,,,,,,,,,,,16,1.8324,1,0,23,23,30,1,4,×,4,4 × 4,incongruent,tie,1,2,16,,,,,,,,
,,,,,,,,,,,,,,,698,2022-01-30_15h38.58.897,multiplicationStroop,2021.2.3,Win32,60.21557175,,,,,,,,,,,,,,,,,,,,,,,,,,,,,,,,,14,2.1323,1,0,24,24,4,1,2,×,7,2 × 7,incongruent,smallerFirst,2,1,14,,,,,,,,
,,,,,,,,,,,,,,,698,2022-01-30_15h38.58.897,multiplicationStroop,2021.2.3,Win32,60.21557175,,,,,,,,,,,,,,,,,,,,,,,,,,,,,,,,,45,1.9991,1,0,25,25,22,1,9,×,5,9 × 5,incongruent,largerFirst,1,2,45,,,,,,,,
,,,,,,,,,,,,,,,698,2022-01-30_15h38.58.897,multiplicationStroop,2021.2.3,Win32,60.21557175,,,,,,,,,,,,,,,,,,,,,,,,,,,,,,,,,24,1.8992,1,0,26,26,20,1,6,×,4,6 × 4,incongruent,largerFirst,1,2,24,,,,,,,,
,,,,,,,,,,,,,,,698,2022-01-30_15h38.58.897,multiplicationStroop,2021.2.3,Win32,60.21557175,,,,,,,,,,,,,,,,,,,,,,,,,,,,,,,,,36,2.2324,1,0,27,27,15,1,9,×,4,9 × 4,incongruent,largerFirst,1,2,36,,,,,,,,
,,,,,,,,,,,,,,,698,2022-01-30_15h38.58.897,multiplicationStroop,2021.2.3,Win32,60.21557175,,,,,,,,,,,,,,,,,,,,,,,,,,,,,,,,,16,1.7158,1,0,28,28,23,1,8,×,2,8 × 2,incongruent,largerFirst,1,2,16,,,,,,,,
,,,,,,,,,,,,,,,698,2022-01-30_15h38.58.897,multiplicationStroop,2021.2.3,Win32,60.21557175,,,,,,,,,,,,,,,,,,,,,,,,,,,,,,,,,25,1.9154,1,0,29,29,31,1,5,×,5,5 × 5,incongruent,tie,1,2,25,,,,,,,,
,,,,,,,,,,,,,,,698,2022-01-30_15h38.58.897,multiplicationStroop,2021.2.3,Win32,60.21557175,,,,,,,,,,,,,,,,,,,,,,,,,,,,,,,,,6,2.8823,1,0,30,30,11,1,2,×,3,2 × 3,incongruent,smallerFirst,2,1,6,,,,,,,,
,,,,,,,,,,,,,,,698,2022-01-30_15h38.58.897,multiplicationStroop,2021.2.3,Win32,60.21557175,,,,,,,,,,,,,,,,,,,,,,,,,,,,,,,,,27,1.8992,1,0,31,31,18,1,9,×,3,9 × 3,incongruent,largerFirst,1,2,27,,,,,,,,
,,,,,,,,,,,,,,,698,2022-01-30_15h38.58.897,multiplicationStroop,2021.2.3,Win32,60.21557175,,,,,,,,,,,,,,,,,,,,,,,,,,,,,,,,,12,1.9493,1,0,32,32,5,1,3,×,4,3 × 4,incongruent,smallerFirst,2,1,12,,,,,,,,
,,,,,,,,,,,,,,,698,2022-01-30_15h38.58.897,multiplicationStroop,2021.2.3,Win32,60.21557175,,,,,,,,,,,,,,,,,,,,,,,,,,,,,,,,,30,1.9156,1,0,33,33,25,1,6,×,5,6 × 5,incongruent,largerFirst,1,2,30,,,,,,,,
,,,,,,,,,,,,,,,698,2022-01-30_15h38.58.897,multiplicationStroop,2021.2.3,Win32,60.21557175,,,,,,,,,,,,,,,,,,,,,,,,,,,,,,,,,9,1.6661,1,0,34,34,29,1,3,×,3,3 × 3,incongruent,tie,1,2,9,,,,,,,,
,,,,,,,,,,,,,,,698,2022-01-30_15h38.58.897,multiplicationStroop,2021.2.3,Win32,60.21557175,,,,,,,,,,,,,,,,,,,,,,,,,,,,,,,,,32,2.0658,1,0,35,35,7,1,4,×,8,4 × 8,incongruent,smallerFirst,2,1,32,,,,,,,,
,,,,,,,,,,,,,,,698,2022-01-30_15h38.58.897,multiplicationStroop,2021.2.3,Win32,60.21557175,,,,,,,,,,,,,,,,,,,,,,,,,,,,,,,,,,,,,,,,,,,,,,,,,,0,0,0,5,1,stimulusFile/mult_blk6_INcongruent.xlsx,,
,,,,,,,,,,,,,,,698,2022-01-30_15h38.58.897,multiplicationStroop,2021.2.3,Win32,60.21557175,,,,,,,,,,,,,,,,,,,,,,,,,,,,,,,space,2.4176,45,1.8288,1,0,0,0,10,1,5,×,9,5 × 9,neutral,smallerFirst,1.5,1.5,45,,,,,,,,
,,,,,,,,,,,,,,,698,2022-01-30_15h38.58.897,multiplicationStroop,2021.2.3,Win32,60.21557175,,,,,,,,,,,,,,,,,,,,,,,,,,,,,,,,,21,1.8475,1,0,1,1,8,1,3,×,7,3 × 7,neutral,smallerFirst,1.5,1.5,21,,,,,,,,
,,,,,,,,,,,,,,,698,2022-01-30_15h38.58.897,multiplicationStroop,2021.2.3,Win32,60.21557175,,,,,,,,,,,,,,,,,,,,,,,,,,,,,,,,,12,1.8991,1,0,2,2,21,1,4,×,3,4 × 3,neutral,largerFirst,1.5,1.5,12,,,,,,,,
,,,,,,,,,,,,,,,698,2022-01-30_15h38.58.897,multiplicationStroop,2021.2.3,Win32,60.21557175,,,,,,,,,,,,,,,,,,,,,,,,,,,,,,,,,36,2.2823,1,0,3,3,32,1,6,×,6,6 × 6,neutral,tie,1.5,1.5,36,,,,,,,,
,,,,,,,,,,,,,,,698,2022-01-30_15h38.58.897,multiplicationStroop,2021.2.3,Win32,60.21557175,,,,,,,,,,,,,,,,,,,,,,,,,,,,,,,,,32,1.7324,1,0,4,4,23,1,8,×,4,8 × 4,neutral,largerFirst,1.5,1.5,32,,,,,,,,
,,,,,,,,,,,,,,,698,2022-01-30_15h38.58.897,multiplicationStroop,2021.2.3,Win32,60.21557175,,,,,,,,,,,,,,,,,,,,,,,,,,,,,,,,,15,1.6488,1,0,5,5,5,1,3,×,5,3 × 5,neutral,smallerFirst,1.5,1.5,15,,,,,,,,
,,,,,,,,,,,,,,,698,2022-01-30_15h38.58.897,multiplicationStroop,2021.2.3,Win32,60.21557175,,,,,,,,,,,,,,,,,,,,,,,,,,,,,,,,,12,1.4679,1,0,6,6,25,1,6,×,2,6 × 2,neutral,largerFirst,1.5,1.5,12,,,,,,,,
,,,,,,,,,,,,,,,698,2022-01-30_15h38.58.897,multiplicationStroop,2021.2.3,Win32,60.21557175,,,,,,,,,,,,,,,,,,,,,,,,,,,,,,,,,64,2.0964,1,0,7,7,34,1,8,×,8,8 × 8,neutral,tie,1.5,1.5,64,,,,,,,,
,,,,,,,,,,,,,,,698,2022-01-30_15h38.58.897,multiplicationStroop,2021.2.3,Win32,60.21557175,,,,,,,,,,,,,,,,,,,,,,,,,,,,,,,,,54,1.7511,1,0,8,8,7,1,6,×,9,6 × 9,neutral,smallerFirst,1.5,1.5,54,,,,,,,,
,,,,,,,,,,,,,,,698,2022-01-30_15h38.58.897,multiplicationStroop,2021.2.3,Win32,60.21557175,,,,,,,,,,,,,,,,,,,,,,,,,,,,,,,,,30,1.9308,1,0,9,9,19,1,6,×,5,6 × 5,neutral,largerFirst,1.5,1.5,30,,,,,,,,
,,,,,,,,,,,,,,,698,2022-01-30_15h38.58.897,multiplicationStroop,2021.2.3,Win32,60.21557175,,,,,,,,,,,,,,,,,,,,,,,,,,,,,,,,,10,1.6986,1,0,10,10,4,1,2,×,5,2 × 5,neutral,smallerFirst,1.5,1.5,10,,,,,,,,
,,,,,,,,,,,,,,,698,2022-01-30_15h38.58.897,multiplicationStroop,2021.2.3,Win32,60.21557175,,,,,,,,,,,,,,,,,,,,,,,,,,,,,,,,,14,1.7493,1,0,11,11,16,1,7,×,2,7 × 2,neutral,largerFirst,1.5,1.5,14,,,,,,,,
,,,,,,,,,,,,,,,698,2022-01-30_15h38.58.897,multiplicationStroop,2021.2.3,Win32,60.21557175,,,,,,,,,,,,,,,,,,,,,,,,,,,,,,,,,18,1.6826,1,0,12,12,18,1,9,×,2,9 × 2,neutral,largerFirst,1.5,1.5,18,,,,,,,,
,,,,,,,,,,,,,,,698,2022-01-30_15h38.58.897,multiplicationStroop,2021.2.3,Win32,60.21557175,,,,,,,,,,,,,,,,,,,,,,,,,,,,,,,,,28,2.601,1,0,13,13,17,1,7,×,4,7 × 4,neutral,largerFirst,1.5,1.5,28,,,,,,,,
,,,,,,,,,,,,,,,698,2022-01-30_15h38.58.897,multiplicationStroop,2021.2.3,Win32,60.21557175,,,,,,,,,,,,,,,,,,,,,,,,,,,,,,,,,48,3.0967,1,0,14,14,15,1,8,×,6,8 × 6,neutral,largerFirst,1.5,1.5,48,,,,,,,,
,,,,,,,,,,,,,,,698,2022-01-30_15h38.58.897,multiplicationStroop,2021.2.3,Win32,60.21557175,,,,,,,,,,,,,,,,,,,,,,,,,,,,,,,,,42,2.2715,1,0,15,15,6,1,6,×,7,6 × 7,neutral,smallerFirst,1.5,1.5,42,,,,,,,,
,,,,,,,,,,,,,,,698,2022-01-30_15h38.58.897,multiplicationStroop,2021.2.3,Win32,60.21557175,,,,,,,,,,,,,,,,,,,,,,,,,,,,,,,,,18,1.8325,1,0,16,16,0,1,3,×,6,3 × 6,neutral,smallerFirst,1.5,1.5,18,,,,,,,,
,,,,,,,,,,,,,,,698,2022-01-30_15h38.58.897,multiplicationStroop,2021.2.3,Win32,60.21557175,,,,,,,,,,,,,,,,,,,,,,,,,,,,,,,,,20,1.7513,1,0,17,17,20,1,5,×,4,5 × 4,neutral,largerFirst,1.5,1.5,20,,,,,,,,
,,,,,,,,,,,,,,,698,2022-01-30_15h38.58.897,multiplicationStroop,2021.2.3,Win32,60.21557175,,,,,,,,,,,,,,,,,,,,,,,,,,,,,,,,,81,2.1969,1,0,18,18,35,1,9,×,9,9 × 9,neutral,tie,1.5,1.5,81,,,,,,,,
,,,,,,,,,,,,,,,698,2022-01-30_15h38.58.897,multiplicationStroop,2021.2.3,Win32,60.21557175,,,,,,,,,,,,,,,,,,,,,,,,,,,,,,,,,27,1.8487,1,0,19,19,14,1,9,×,3,9 × 3,neutral,largerFirst,1.5,1.5,27,,,,,,,,
,,,,,,,,,,,,,,,698,2022-01-30_15h38.58.897,multiplicationStroop,2021.2.3,Win32,60.21557175,,,,,,,,,,,,,,,,,,,,,,,,,,,,,,,,,35,1.8988,1,0,20,20,1,1,5,×,7,5 × 7,neutral,smallerFirst,1.5,1.5,35,,,,,,,,
,,,,,,,,,,,,,,,698,2022-01-30_15h38.58.897,multiplicationStroop,2021.2.3,Win32,60.21557175,,,,,,,,,,,,,,,,,,,,,,,,,,,,,,,,,25,1.7987,1,0,21,21,31,1,5,×,5,5 × 5,neutral,tie,1.5,1.5,25,,,,,,,,
,,,,,,,,,,,,,,,698,2022-01-30_15h38.58.897,multiplicationStroop,2021.2.3,Win32,60.21557175,,,,,,,,,,,,,,,,,,,,,,,,,,,,,,,,,8,1.7489,1,0,22,22,3,1,2,×,4,2 × 4,neutral,smallerFirst,1.5,1.5,8,,,,,,,,
,,,,,,,,,,,,,,,698,2022-01-30_15h38.58.897,multiplicationStroop,2021.2.3,Win32,60.21557175,,,,,,,,,,,,,,,,,,,,,,,,,,,,,,,,,16,2.4153,1,0,23,23,30,1,4,×,4,4 × 4,neutral,tie,1.5,1.5,16,,,,,,,,
,,,,,,,,,,,,,,,698,2022-01-30_15h38.58.897,multiplicationStroop,2021.2.3,Win32,60.21557175,,,,,,,,,,,,,,,,,,,,,,,,,,,,,,,,,24,2.3214,1,0,24,24,22,1,8,×,3,8 × 3,neutral,largerFirst,1.5,1.5,24,,,,,,,,
,,,,,,,,,,,,,,,698,2022-01-30_15h38.58.897,multiplicationStroop,2021.2.3,Win32,60.21557175,,,,,,,,,,,,,,,,,,,,,,,,,,,,,,,,,36,2.0657,1,0,25,25,27,1,9,×,4,9 × 4,neutral,largerFirst,1.5,1.5,36,,,,,,,,
,,,,,,,,,,,,,,,698,2022-01-30_15h38.58.897,multiplicationStroop,2021.2.3,Win32,60.21557175,,,,,,,,,,,,,,,,,,,,,,,,,,,,,,,,,40,1.9823,1,0,26,26,24,1,8,×,5,8 × 5,neutral,largerFirst,1.5,1.5,40,,,,,,,,
,,,,,,,,,,,,,,,698,2022-01-30_15h38.58.897,multiplicationStroop,2021.2.3,Win32,60.21557175,,,,,,,,,,,,,,,,,,,,,,,,,,,,,,,,,63,4.1818,1,0,27,27,12,1,7,×,9,7 × 9,neutral,smallerFirst,1.5,1.5,63,,,,,,,,
,,,,,,,,,,,,,,,698,2022-01-30_15h38.58.897,multiplicationStroop,2021.2.3,Win32,60.21557175,,,,,,,,,,,,,,,,,,,,,,,,,,,,,,,,,56,1.9405,1,0,28,28,9,1,7,×,8,7 × 8,neutral,smallerFirst,1.5,1.5,56,,,,,,,,
,,,,,,,,,,,,,,,698,2022-01-30_15h38.58.897,multiplicationStroop,2021.2.3,Win32,60.21557175,,,,,,,,,,,,,,,,,,,,,,,,,,,,,,,,,4,1.4636,1,0,29,29,28,1,2,×,2,2 × 2,neutral,tie,1.5,1.5,4,,,,,,,,
,,,,,,,,,,,,,,,698,2022-01-30_15h38.58.897,multiplicationStroop,2021.2.3,Win32,60.21557175,,,,,,,,,,,,,,,,,,,,,,,,,,,,,,,,,24,1.8658,1,0,30,30,2,1,4,×,6,4 × 6,neutral,smallerFirst,1.5,1.5,24,,,,,,,,
,,,,,,,,,,,,,,,698,2022-01-30_15h38.58.897,multiplicationStroop,2021.2.3,Win32,60.21557175,,,,,,,,,,,,,,,,,,,,,,,,,,,,,,,,,16,1.9004,1,0,31,31,13,1,2,×,8,2 × 8,neutral,smallerFirst,1.5,1.5,16,,,,,,,,
,,,,,,,,,,,,,,,698,2022-01-30_15h38.58.897,multiplicationStroop,2021.2.3,Win32,60.21557175,,,,,,,,,,,,,,,,,,,,,,,,,,,,,,,,,56,2.4642,0,0,32,32,11,1,8,×,9,8 × 9,neutral,smallerFirst,1.5,1.5,72,,,,,,,,
,,,,,,,,,,,,,,,698,2022-01-30_15h38.58.897,multiplicationStroop,2021.2.3,Win32,60.21557175,,,,,,,,,,,,,,,,,,,,,,,,,,,,,,,,,9,2.09,1,0,33,33,29,1,3,×,3,3 × 3,neutral,tie,1.5,1.5,9,,,,,,,,
,,,,,,,,,,,,,,,698,2022-01-30_15h38.58.897,multiplicationStroop,2021.2.3,Win32,60.21557175,,,,,,,,,,,,,,,,,,,,,,,,,,,,,,,,,6,1.6805,1,0,34,34,26,1,3,×,2,3 × 2,neutral,largerFirst,1.5,1.5,6,,,,,,,,
,,,,,,,,,,,,,,,698,2022-01-30_15h38.58.897,multiplicationStroop,2021.2.3,Win32,60.21557175,,,,,,,,,,,,,,,,,,,,,,,,,,,,,,,,,49,2.0488,1,0,35,35,33,1,7,×,7,7 × 7,neutral,tie,1.5,1.5,49,,,,,,,,
,,,,,,,,,,,,,,,698,2022-01-30_15h38.58.897,multiplicationStroop,2021.2.3,Win32,60.21557175,,,,,,,,,,,,,,,,,,,,,,,,,,,,,,,,,,,,,,,,,,,,,,,,,,0,1,1,1,1,stimulusFile/mult_blk2.xlsx,,
,,,,,,,,,,,,,,,698,2022-01-30_15h38.58.897,multiplicationStroop,2021.2.3,Win32,60.21557175,,,,,,,,,,,,,,,,,,,,,,,,,,,,,,,space,3.547,30,1.9268,1,0,0,0,1,1,5,×,6,5 × 6,congruent,smallerFirst,1,2,30,,,,,,,,
,,,,,,,,,,,,,,,698,2022-01-30_15h38.58.897,multiplicationStroop,2021.2.3,Win32,60.21557175,,,,,,,,,,,,,,,,,,,,,,,,,,,,,,,,,64,1.9992,1,0,1,1,34,1,8,×,8,8 × 8,neutral,tie,1,2,64,,,,,,,,
,,,,,,,,,,,,,,,698,2022-01-30_15h38.58.897,multiplicationStroop,2021.2.3,Win32,60.21557175,,,,,,,,,,,,,,,,,,,,,,,,,,,,,,,,,18,1.8322,1,0,2,2,25,1,6,×,3,6 × 3,congruent,largerFirst,2,1,18,,,,,,,,
,,,,,,,,,,,,,,,698,2022-01-30_15h38.58.897,multiplicationStroop,2021.2.3,Win32,60.21557175,,,,,,,,,,,,,,,,,,,,,,,,,,,,,,,,,35,2.0326,1,0,3,3,15,1,7,×,5,7 × 5,congruent,largerFirst,2,1,35,,,,,,,,
,,,,,,,,,,,,,,,698,2022-01-30_15h38.58.897,multiplicationStroop,2021.2.3,Win32,60.21557175,,,,,,,,,,,,,,,,,,,,,,,,,,,,,,,,,63,2.0658,1,0,4,4,7,1,7,×,9,7 × 9,congruent,smallerFirst,1,2,63,,,,,,,,
,,,,,,,,,,,,,,,698,2022-01-30_15h38.58.897,multiplicationStroop,2021.2.3,Win32,60.21557175,,,,,,,,,,,,,,,,,,,,,,,,,,,,,,,,,14,1.5494,1,0,5,5,0,1,2,×,7,2 × 7,congruent,smallerFirst,1,2,14,,,,,,,,
,,,,,,,,,,,,,,,698,2022-01-30_15h38.58.897,multiplicationStroop,2021.2.3,Win32,60.21557175,,,,,,,,,,,,,,,,,,,,,,,,,,,,,,,,,49,2.099,1,0,6,6,33,1,7,×,7,7 × 7,neutral,tie,1,2,49,,,,,,,,
,,,,,,,,,,,,,,,698,2022-01-30_15h38.58.897,multiplicationStroop,2021.2.3,Win32,60.21557175,,,,,,,,,,,,,,,,,,,,,,,,,,,,,,,,,10,1.8325,1,0,7,7,10,1,2,×,5,2 × 5,congruent,smallerFirst,1,2,10,,,,,,,,
,,,,,,,,,,,,,,,698,2022-01-30_15h38.58.897,multiplicationStroop,2021.2.3,Win32,60.21557175,,,,,,,,,,,,,,,,,,,,,,,,,,,,,,,,,48,1.8492,1,0,8,8,4,1,6,×,8,6 × 8,congruent,smallerFirst,1,2,48,,,,,,,,
,,,,,,,,,,,,,,,698,2022-01-30_15h38.58.897,multiplicationStroop,2021.2.3,Win32,60.21557175,,,,,,,,,,,,,,,,,,,,,,,,,,,,,,,,,28,2.1158,1,0,9,9,13,1,4,×,7,4 × 7,congruent,smallerFirst,1,2,28,,,,,,,,
,,,,,,,,,,,,,,,698,2022-01-30_15h38.58.897,multiplicationStroop,2021.2.3,Win32,60.21557175,,,,,,,,,,,,,,,,,,,,,,,,,,,,,,,,,25,2.1326,1,0,10,10,31,1,5,×,5,5 × 5,neutral,tie,1,2,25,,,,,,,,
,,,,,,,,,,,,,,,698,2022-01-30_15h38.58.897,multiplicationStroop,2021.2.3,Win32,60.21557175,,,,,,,,,,,,,,,,,,,,,,,,,,,,,,,,,15,1.899,1,0,11,11,18,1,5,×,3,5 × 3,congruent,largerFirst,2,1,15,,,,,,,,
,,,,,,,,,,,,,,,698,2022-01-30_15h38.58.897,multiplicationStroop,2021.2.3,Win32,60.21557175,,,,,,,,,,,,,,,,,,,,,,,,,,,,,,,,,72,2.1825,1,0,12,12,3,1,8,×,9,8 × 9,congruent,smallerFirst,1,2,72,,,,,,,,
,,,,,,,,,,,,,,,698,2022-01-30_15h38.58.897,multiplicationStroop,2021.2.3,Win32,60.21557175,,,,,,,,,,,,,,,,,,,,,,,,,,,,,,,,,24,1.8496,1,0,13,13,24,1,8,×,3,8 × 3,congruent,largerFirst,2,1,24,,,,,,,,
,,,,,,,,,,,,,,,698,2022-01-30_15h38.58.897,multiplicationStroop,2021.2.3,Win32,60.21557175,,,,,,,,,,,,,,,,,,,,,,,,,,,,,,,,,18,1.8488,1,0,14,14,8,1,2,×,9,2 × 9,congruent,smallerFirst,1,2,18,,,,,,,,
,,,,,,,,,,,,,,,698,2022-01-30_15h38.58.897,multiplicationStroop,2021.2.3,Win32,60.21557175,,,,,,,,,,,,,,,,,,,,,,,,,,,,,,,,,6,1.6491,1,0,15,15,27,1,3,×,2,3 × 2,congruent,largerFirst,2,1,6,,,,,,,,
,,,,,,,,,,,,,,,698,2022-01-30_15h38.58.897,multiplicationStroop,2021.2.3,Win32,60.21557175,,,,,,,,,,,,,,,,,,,,,,,,,,,,,,,,,12,1.5158,1,0,16,16,16,1,4,×,3,4 × 3,congruent,largerFirst,2,1,12,,,,,,,,
,,,,,,,,,,,,,,,698,2022-01-30_15h38.58.897,multiplicationStroop,2021.2.3,Win32,60.21557175,,,,,,,,,,,,,,,,,,,,,,,,,,,,,,,,,56,1.9658,1,0,17,17,22,1,8,×,7,8 × 7,congruent,largerFirst,2,1,56,,,,,,,,
,,,,,,,,,,,,,,,698,2022-01-30_15h38.58.897,multiplicationStroop,2021.2.3,Win32,60.21557175,,,,,,,,,,,,,,,,,,,,,,,,,,,,,,,,,16,1.7826,1,0,18,18,30,1,4,×,4,4 × 4,neutral,tie,1,2,16,,,,,,,,
,,,,,,,,,,,,,,,698,2022-01-30_15h38.58.897,multiplicationStroop,2021.2.3,Win32,60.21557175,,,,,,,,,,,,,,,,,,,,,,,,,,,,,,,,,42,3.0324,1,0,19,19,17,1,7,×,6,7 × 6,congruent,largerFirst,2,1,42,,,,,,,,
,,,,,,,,,,,,,,,698,2022-01-30_15h38.58.897,multiplicationStroop,2021.2.3,Win32,60.21557175,,,,,,,,,,,,,,,,,,,,,,,,,,,,,,,,,12,1.6048,1,0,20,20,5,1,2,×,6,2 × 6,congruent,smallerFirst,1,2,12,,,,,,,,
,,,,,,,,,,,,,,,698,2022-01-30_15h38.58.897,multiplicationStroop,2021.2.3,Win32,60.21557175,,,,,,,,,,,,,,,,,,,,,,,,,,,,,,,,,16,1.7826,1,0,21,21,19,1,8,×,2,8 × 2,congruent,largerFirst,2,1,16,,,,,,,,
,,,,,,,,,,,,,,,698,2022-01-30_15h38.58.897,multiplicationStroop,2021.2.3,Win32,60.21557175,,,,,,,,,,,,,,,,,,,,,,,,,,,,,,,,,32,1.8659,1,0,22,22,6,1,4,×,8,4 × 8,congruent,smallerFirst,1,2,32,,,,,,,,
,,,,,,,,,,,,,,,698,2022-01-30_15h38.58.897,multiplicationStroop,2021.2.3,Win32,60.21557175,,,,,,,,,,,,,,,,,,,,,,,,,,,,,,,,,8,2.3324,1,0,23,23,23,1,4,×,2,4 × 2,congruent,largerFirst,2,1,8,,,,,,,,
,,,,,,,,,,,,,,,698,2022-01-30_15h38.58.897,multiplicationStroop,2021.2.3,Win32,60.21557175,,,,,,,,,,,,,,,,,,,,,,,,,,,,,,,,,4,1.549,1,0,24,24,28,1,2,×,2,2 × 2,neutral,tie,1,2,4,,,,,,,,
,,,,,,,,,,,,,,,698,2022-01-30_15h38.58.897,multiplicationStroop,2021.2.3,Win32,60.21557175,,,,,,,,,,,,,,,,,,,,,,,,,,,,,,,,,36,1.8155,1,0,25,25,32,1,6,×,6,6 × 6,neutral,tie,1,2,36,,,,,,,,
,,,,,,,,,,,,,,,698,2022-01-30_15h38.58.897,multiplicationStroop,2021.2.3,Win32,60.21557175,,,,,,,,,,,,,,,,,,,,,,,,,,,,,,,,,45,3.2491,1,0,26,26,9,1,5,×,9,5 × 9,congruent,smallerFirst,1,2,45,,,,,,,,
,,,,,,,,,,,,,,,698,2022-01-30_15h38.58.897,multiplicationStroop,2021.2.3,Win32,60.21557175,,,,,,,,,,,,,,,,,,,,,,,,,,,,,,,,,54,4.4381,1,0,27,27,26,1,9,×,6,9 × 6,congruent,largerFirst,2,1,54,,,,,,,,
,,,,,,,,,,,,,,,698,2022-01-30_15h38.58.897,multiplicationStroop,2021.2.3,Win32,60.21557175,,,,,,,,,,,,,,,,,,,,,,,,,,,,,,,,,21,1.7384,1,0,28,28,2,1,3,×,7,3 × 7,congruent,smallerFirst,1,2,21,,,,,,,,
,,,,,,,,,,,,,,,698,2022-01-30_15h38.58.897,multiplicationStroop,2021.2.3,Win32,60.21557175,,,,,,,,,,,,,,,,,,,,,,,,,,,,,,,,,9,1.6658,1,0,29,29,29,1,3,×,3,3 × 3,neutral,tie,1,2,9,,,,,,,,
,,,,,,,,,,,,,,,698,2022-01-30_15h38.58.897,multiplicationStroop,2021.2.3,Win32,60.21557175,,,,,,,,,,,,,,,,,,,,,,,,,,,,,,,,,24,1.8325,1,0,30,30,11,1,4,×,6,4 × 6,congruent,smallerFirst,1,2,24,,,,,,,,
,,,,,,,,,,,,,,,698,2022-01-30_15h38.58.897,multiplicationStroop,2021.2.3,Win32,60.21557175,,,,,,,,,,,,,,,,,,,,,,,,,,,,,,,,,20,1.7658,1,0,31,31,21,1,5,×,4,5 × 4,congruent,largerFirst,2,1,20,,,,,,,,
,,,,,,,,,,,,,,,698,2022-01-30_15h38.58.897,multiplicationStroop,2021.2.3,Win32,60.21557175,,,,,,,,,,,,,,,,,,,,,,,,,,,,,,,,,36,1.9992,1,0,32,32,14,1,9,×,4,9 × 4,congruent,largerFirst,2,1,36,,,,,,,,
,,,,,,,,,,,,,,,698,2022-01-30_15h38.58.897,multiplicationStroop,2021.2.3,Win32,60.21557175,,,,,,,,,,,,,,,,,,,,,,,,,,,,,,,,,27,2.0658,1,0,33,33,12,1,3,×,9,3 × 9,congruent,smallerFirst,1,2,27,,,,,,,,
,,,,,,,,,,,,,,,698,2022-01-30_15h38.58.897,multiplicationStroop,2021.2.3,Win32,60.21557175,,,,,,,,,,,,,,,,,,,,,,,,,,,,,,,,,40,1.8825,1,0,34,34,20,1,8,×,5,8 × 5,congruent,largerFirst,2,1,40,,,,,,,,
,,,,,,,,,,,,,,,698,2022-01-30_15h38.58.897,multiplicationStroop,2021.2.3,Win32,60.21557175,,,,,,,,,,,,,,,,,,,,,,,,,,,,,,,,,81,2.2659,1,0,35,35,35,1,9,×,9,9 × 9,neutral,tie,1,2,81,,,,,,,,
,,,,,,,,,,,,,,,698,2022-01-30_15h38.58.897,multiplicationStroop,2021.2.3,Win32,60.21557175,,,,,,,,,,,,,,,,,,,,,,,,,,,,,,,,,,,,,,,,,,,,,,,,,,0,2,2,3,1,stimulusFile/mult_blk4_congruent.xlsx,,
,,,,,,,,,,,,,,,698,2022-01-30_15h38.58.897,multiplicationStroop,2021.2.3,Win32,60.21557175,,,,,,,,,,,,,,,,,,,,,,,,,,,,,,,space,5.834,25,1.8471,1,0,0,0,31,1,5,×,5,5 × 5,neutral,tie,1.5,1.5,25,,,,,,,,
,,,,,,,,,,,,,,,698,2022-01-30_15h38.58.897,multiplicationStroop,2021.2.3,Win32,60.21557175,,,,,,,,,,,,,,,,,,,,,,,,,,,,,,,,,56,2.2824,1,0,1,1,23,1,8,×,7,8 × 7,neutral,largerFirst,1.5,1.5,56,,,,,,,,
,,,,,,,,,,,,,,,698,2022-01-30_15h38.58.897,multiplicationStroop,2021.2.3,Win32,60.21557175,,,,,,,,,,,,,,,,,,,,,,,,,,,,,,,,,24,1.9658,1,0,2,2,8,1,3,×,8,3 × 8,neutral,smallerFirst,1.5,1.5,24,,,,,,,,
,,,,,,,,,,,,,,,698,2022-01-30_15h38.58.897,multiplicationStroop,2021.2.3,Win32,60.21557175,,,,,,,,,,,,,,,,,,,,,,,,,,,,,,,,,4,1.4491,1,0,3,3,28,1,2,×,2,2 × 2,neutral,tie,1.5,1.5,4,,,,,,,,
,,,,,,,,,,,,,,,698,2022-01-30_15h38.58.897,multiplicationStroop,2021.2.3,Win32,60.21557175,,,,,,,,,,,,,,,,,,,,,,,,,,,,,,,,,10,1.6659,1,0,4,4,18,1,5,×,2,5 × 2,neutral,largerFirst,1.5,1.5,10,,,,,,,,
,,,,,,,,,,,,,,,698,2022-01-30_15h38.58.897,multiplicationStroop,2021.2.3,Win32,60.21557175,,,,,,,,,,,,,,,,,,,,,,,,,,,,,,,,,35,1.6825,1,0,5,5,15,1,7,×,5,7 × 5,neutral,largerFirst,1.5,1.5,35,,,,,,,,
,,,,,,,,,,,,,,,698,2022-01-30_15h38.58.897,multiplicationStroop,2021.2.3,Win32,60.21557175,,,,,,,,,,,,,,,,,,,,,,,,,,,,,,,,,48,3.1993,1,0,6,6,1,1,6,×,8,6 × 8,neutral,smallerFirst,1.5,1.5,48,,,,,,,,
,,,,,,,,,,,,,,,698,2022-01-30_15h38.58.897,multiplicationStroop,2021.2.3,Win32,60.21557175,,,,,,,,,,,,,,,,,,,,,,,,,,,,,,,,,20,1.6716,1,0,7,7,6,1,4,×,5,4 × 5,neutral,smallerFirst,1.5,1.5,20,,,,,,,,
,,,,,,,,,,,,,,,698,2022-01-30_15h38.58.897,multiplicationStroop,2021.2.3,Win32,60.21557175,,,,,,,,,,,,,,,,,,,,,,,,,,,,,,,,,16,1.9658,1,0,8,8,27,1,8,×,2,8 × 2,neutral,largerFirst,1.5,1.5,16,,,,,,,,
,,,,,,,,,,,,,,,698,2022-01-30_15h38.58.897,multiplicationStroop,2021.2.3,Win32,60.21557175,,,,,,,,,,,,,,,,,,,,,,,,,,,,,,,,,21,1.6658,1,0,9,9,22,1,7,×,3,7 × 3,neutral,largerFirst,1.5,1.5,21,,,,,,,,
,,,,,,,,,,,,,,,698,2022-01-30_15h38.58.897,multiplicationStroop,2021.2.3,Win32,60.21557175,,,,,,,,,,,,,,,,,,,,,,,,,,,,,,,,,63,2.649,1,0,10,10,26,1,9,×,7,9 × 7,neutral,largerFirst,1.5,1.5,63,,,,,,,,
,,,,,,,,,,,,,,,698,2022-01-30_15h38.58.897,multiplicationStroop,2021.2.3,Win32,60.21557175,,,,,,,,,,,,,,,,,,,,,,,,,,,,,,,,,189,2.4047,0,0,11,11,14,1,6,×,3,6 × 3,neutral,largerFirst,1.5,1.5,18,,,,,,,,
,,,,,,,,,,,,,,,698,2022-01-30_15h38.58.897,multiplicationStroop,2021.2.3,Win32,60.21557175,,,,,,,,,,,,,,,,,,,,,,,,,,,,,,,,,45,2.4158,1,0,12,12,24,1,9,×,5,9 × 5,neutral,largerFirst,1.5,1.5,45,,,,,,,,
,,,,,,,,,,,,,,,698,2022-01-30_15h38.58.897,multiplicationStroop,2021.2.3,Win32,60.21557175,,,,,,,,,,,,,,,,,,,,,,,,,,,,,,,,,15,1.6987,1,0,13,13,19,1,5,×,3,5 × 3,neutral,largerFirst,1.5,1.5,15,,,,,,,,
,,,,,,,,,,,,,,,698,2022-01-30_15h38.58.897,multiplicationStroop,2021.2.3,Win32,60.21557175,,,,,,,,,,,,,,,,,,,,,,,,,,,,,,,,,49,1.8491,1,0,14,14,33,1,7,×,7,7 × 7,neutral,tie,1.5,1.5,49,,,,,,,,
,,,,,,,,,,,,,,,698,2022-01-30_15h38.58.897,multiplicationStroop,2021.2.3,Win32,60.21557175,,,,,,,,,,,,,,,,,,,,,,,,,,,,,,,,,24,1.8656,1,0,15,15,16,1,6,×,4,6 × 4,neutral,largerFirst,1.5,1.5,24,,,,,,,,
,,,,,,,,,,,,,,,698,2022-01-30_15h38.58.897,multiplicationStroop,2021.2.3,Win32,60.21557175,,,,,,,,,,,,,,,,,,,,,,,,,,,,,,,,,64,2.0492,1,0,16,16,34,1,8,×,8,8 × 8,neutral,tie,1.5,1.5,64,,,,,,,,
,,,,,,,,,,,,,,,698,2022-01-30_15h38.58.897,multiplicationStroop,2021.2.3,Win32,60.21557175,,,,,,,,,,,,,,,,,,,,,,,,,,,,,,,,,12,1.5158,1,0,17,17,11,1,2,×,6,2 × 6,neutral,smallerFirst,1.5,1.5,12,,,,,,,,
,,,,,,,,,,,,,,,698,2022-01-30_15h38.58.897,multiplicationStroop,2021.2.3,Win32,60.21557175,,,,,,,,,,,,,,,,,,,,,,,,,,,,,,,,,6,1.7657,1,0,18,18,12,1,2,×,3,2 × 3,neutral,smallerFirst,1.5,1.5,6,,,,,,,,
,,,,,,,,,,,,,,,698,2022-01-30_15h38.58.897,multiplicationStroop,2021.2.3,Win32,60.21557175,,,,,,,,,,,,,,,,,,,,,,,,,,,,,,,,,72,2.0157,1,0,19,19,25,1,9,×,8,9 × 8,neutral,largerFirst,1.5,1.5,72,,,,,,,,
,,,,,,,,,,,,,,,698,2022-01-30_15h38.58.897,multiplicationStroop,2021.2.3,Win32,60.21557175,,,,,,,,,,,,,,,,,,,,,,,,,,,,,,,,,18,1.8157,1,0,20,20,4,1,2,×,9,2 × 9,neutral,smallerFirst,1.5,1.5,18,,,,,,,,
,,,,,,,,,,,,,,,698,2022-01-30_15h38.58.897,multiplicationStroop,2021.2.3,Win32,60.21557175,,,,,,,,,,,,,,,,,,,,,,,,,,,,,,,,,36,2.4825,1,0,21,21,13,1,4,×,9,4 × 9,neutral,smallerFirst,1.5,1.5,36,,,,,,,,
,,,,,,,,,,,,,,,698,2022-01-30_15h38.58.897,multiplicationStroop,2021.2.3,Win32,60.21557175,,,,,,,,,,,,,,,,,,,,,,,,,,,,,,,,,8,1.5378,1,0,22,22,17,1,4,×,2,4 × 2,neutral,largerFirst,1.5,1.5,8,,,,,,,,
,,,,,,,,,,,,,,,698,2022-01-30_15h38.58.897,multiplicationStroop,2021.2.3,Win32,60.21557175,,,,,,,,,,,,,,,,,,,,,,,,,,,,,,,,,36,1.6992,1,0,23,23,32,1,6,×,6,6 × 6,neutral,tie,1.5,1.5,36,,,,,,,,
,,,,,,,,,,,,,,,698,2022-01-30_15h38.58.897,multiplicationStroop,2021.2.3,Win32,60.21557175,,,,,,,,,,,,,,,,,,,,,,,,,,,,,,,,,12,1.4159,1,0,24,24,7,1,3,×,4,3 × 4,neutral,smallerFirst,1.5,1.5,12,,,,,,,,
,,,,,,,,,,,,,,,698,2022-01-30_15h38.58.897,multiplicationStroop,2021.2.3,Win32,60.21557175,,,,,,,,,,,,,,,,,,,,,,,,,,,,,,,,,81,1.949,1,0,25,25,35,1,9,×,9,9 × 9,neutral,tie,1.5,1.5,81,,,,,,,,
,,,,,,,,,,,,,,,698,2022-01-30_15h38.58.897,multiplicationStroop,2021.2.3,Win32,60.21557175,,,,,,,,,,,,,,,,,,,,,,,,,,,,,,,,,14,1.4992,1,0,26,26,2,1,2,×,7,2 × 7,neutral,smallerFirst,1.5,1.5,14,,,,,,,,
,,,,,,,,,,,,,,,698,2022-01-30_15h38.58.897,multiplicationStroop,2021.2.3,Win32,60.21557175,,,,,,,,,,,,,,,,,,,,,,,,,,,,,,,,,16,1.8658,1,0,27,27,30,1,4,×,4,4 × 4,neutral,tie,1.5,1.5,16,,,,,,,,
,,,,,,,,,,,,,,,698,2022-01-30_15h38.58.897,multiplicationStroop,2021.2.3,Win32,60.21557175,,,,,,,,,,,,,,,,,,,,,,,,,,,,,,,,,30,1.6825,1,0,28,28,5,1,5,×,6,5 × 6,neutral,smallerFirst,1.5,1.5,30,,,,,,,,
,,,,,,,,,,,,,,,698,2022-01-30_15h38.58.897,multiplicationStroop,2021.2.3,Win32,60.21557175,,,,,,,,,,,,,,,,,,,,,,,,,,,,,,,,,9,1.7158,1,0,29,29,29,1,3,×,3,3 × 3,neutral,tie,1.5,1.5,9,,,,,,,,
,,,,,,,,,,,,,,,698,2022-01-30_15h38.58.897,multiplicationStroop,2021.2.3,Win32,60.21557175,,,,,,,,,,,,,,,,,,,,,,,,,,,,,,,,,28,1.866,1,0,30,30,3,1,4,×,7,4 × 7,neutral,smallerFirst,1.5,1.5,28,,,,,,,,
,,,,,,,,,,,,,,,698,2022-01-30_15h38.58.897,multiplicationStroop,2021.2.3,Win32,60.21557175,,,,,,,,,,,,,,,,,,,,,,,,,,,,,,,,,42,1.7822,1,0,31,31,20,1,7,×,6,7 × 6,neutral,largerFirst,1.5,1.5,42,,,,,,,,
,,,,,,,,,,,,,,,698,2022-01-30_15h38.58.897,multiplicationStroop,2021.2.3,Win32,60.21557175,,,,,,,,,,,,,,,,,,,,,,,,,,,,,,,,,32,1.7825,1,0,32,32,9,1,4,×,8,4 × 8,neutral,smallerFirst,1.5,1.5,32,,,,,,,,
,,,,,,,,,,,,,,,698,2022-01-30_15h38.58.897,multiplicationStroop,2021.2.3,Win32,60.21557175,,,,,,,,,,,,,,,,,,,,,,,,,,,,,,,,,40,1.9825,1,0,33,33,10,1,5,×,8,5 × 8,neutral,smallerFirst,1.5,1.5,40,,,,,,,,
,,,,,,,,,,,,,,,698,2022-01-30_15h38.58.897,multiplicationStroop,2021.2.3,Win32,60.21557175,,,,,,,,,,,,,,,,,,,,,,,,,,,,,,,,,27,1.7491,1,0,34,34,0,1,3,×,9,3 × 9,neutral,smallerFirst,1.5,1.5,27,,,,,,,,
,,,,,,,,,,,,,,,698,2022-01-30_15h38.58.897,multiplicationStroop,2021.2.3,Win32,60.21557175,,,,,,,,,,,,,,,,,,,,,,,,,,,,,,,,,54,2.5159,1,0,35,35,21,1,9,×,6,9 × 6,neutral,largerFirst,1.5,1.5,54,,,,,,,,
,,,,,,,,,,,,,,,698,2022-01-30_15h38.58.897,multiplicationStroop,2021.2.3,Win32,60.21557175,,,,,,,,,,,,,,,,,,,,,,,,,,,,,,,,,,,,,,,,,,,,,,,,,,0,3,3,0,1,stimulusFile/mult_blk1.xlsx,,
,,,,,,,,,,,,,,,698,2022-01-30_15h38.58.897,multiplicationStroop,2021.2.3,Win32,60.21557175,,,,,,,,,,,,,,,,,,,,,,,,,,,,,,,space,4.8783,36,1.7406,1,0,0,0,1,1,4,×,9,4 × 9,incongruent,smallerFirst,2,1,36,,,,,,,,
,,,,,,,,,,,,,,,698,2022-01-30_15h38.58.897,multiplicationStroop,2021.2.3,Win32,60.21557175,,,,,,,,,,,,,,,,,,,,,,,,,,,,,,,,,49,2.1822,1,0,1,1,33,1,7,×,7,7 × 7,neutral,tie,2,1,49,,,,,,,,
,,,,,,,,,,,,,,,698,2022-01-30_15h38.58.897,multiplicationStroop,2021.2.3,Win32,60.21557175,,,,,,,,,,,,,,,,,,,,,,,,,,,,,,,,,12,1.5679,1,0,2,2,5,1,2,×,6,2 × 6,incongruent,smallerFirst,2,1,12,,,,,,,,
,,,,,,,,,,,,,,,698,2022-01-30_15h38.58.897,multiplicationStroop,2021.2.3,Win32,60.21557175,,,,,,,,,,,,,,,,,,,,,,,,,,,,,,,,,24,2.0826,1,0,3,3,23,1,8,×,3,8 × 3,incongruent,largerFirst,1,2,24,,,,,,,,
,,,,,,,,,,,,,,,698,2022-01-30_15h38.58.897,multiplicationStroop,2021.2.3,Win32,60.21557175,,,,,,,,,,,,,,,,,,,,,,,,,,,,,,,,,21,1.7134,1,0,4,4,12,1,3,×,7,3 × 7,incongruent,smallerFirst,2,1,21,,,,,,,,
,,,,,,,,,,,,,,,698,2022-01-30_15h38.58.897,multiplicationStroop,2021.2.3,Win32,60.21557175,,,,,,,,,,,,,,,,,,,,,,,,,,,,,,,,,81,2.066,1,0,5,5,35,1,9,×,9,9 × 9,neutral,tie,2,1,81,,,,,,,,
,,,,,,,,,,,,,,,698,2022-01-30_15h38.58.897,multiplicationStroop,2021.2.3,Win32,60.21557175,,,,,,,,,,,,,,,,,,,,,,,,,,,,,,,,,8,1.6983,1,0,6,6,10,1,2,×,4,2 × 4,incongruent,smallerFirst,2,1,8,,,,,,,,
,,,,,,,,,,,,,,,698,2022-01-30_15h38.58.897,multiplicationStroop,2021.2.3,Win32,60.21557175,,,,,,,,,,,,,,,,,,,,,,,,,,,,,,,,,14,1.6682,1,0,7,7,18,1,7,×,2,7 × 2,incongruent,largerFirst,1,2,14,,,,,,,,
,,,,,,,,,,,,,,,698,2022-01-30_15h38.58.897,multiplicationStroop,2021.2.3,Win32,60.21557175,,,,,,,,,,,,,,,,,,,,,,,,,,,,,,,,,36,1.7483,1,0,8,8,32,1,6,×,6,6 × 6,neutral,tie,2,1,36,,,,,,,,
,,,,,,,,,,,,,,,698,2022-01-30_15h38.58.897,multiplicationStroop,2021.2.3,Win32,60.21557175,,,,,,,,,,,,,,,,,,,,,,,,,,,,,,,,,6,1.6168,1,0,9,9,25,1,3,×,2,3 × 2,incongruent,largerFirst,1,2,6,,,,,,,,
,,,,,,,,,,,,,,,698,2022-01-30_15h38.58.897,multiplicationStroop,2021.2.3,Win32,60.21557175,,,,,,,,,,,,,,,,,,,,,,,,,,,,,,,,,54,1.7993,1,0,10,10,20,1,9,×,6,9 × 6,incongruent,largerFirst,1,2,54,,,,,,,,
,,,,,,,,,,,,,,,698,2022-01-30_15h38.58.897,multiplicationStroop,2021.2.3,Win32,60.21557175,,,,,,,,,,,,,,,,,,,,,,,,,,,,,,,,,27,1.8634,1,0,11,11,4,1,3,×,9,3 × 9,incongruent,smallerFirst,2,1,27,,,,,,,,
,,,,,,,,,,,,,,,698,2022-01-30_15h38.58.897,multiplicationStroop,2021.2.3,Win32,60.21557175,,,,,,,,,,,,,,,,,,,,,,,,,,,,,,,,,64,1.9491,1,0,12,12,34,1,8,×,8,8 × 8,neutral,tie,2,1,64,,,,,,,,
,,,,,,,,,,,,,,,698,2022-01-30_15h38.58.897,multiplicationStroop,2021.2.3,Win32,60.21557175,,,,,,,,,,,,,,,,,,,,,,,,,,,,,,,,,35,1.682,1,0,13,13,26,1,7,×,5,7 × 5,incongruent,largerFirst,1,2,35,,,,,,,,
,,,,,,,,,,,,,,,698,2022-01-30_15h38.58.897,multiplicationStroop,2021.2.3,Win32,60.21557175,,,,,,,,,,,,,,,,,,,,,,,,,,,,,,,,,30,1.7159,1,0,14,14,11,1,5,×,6,5 × 6,incongruent,smallerFirst,2,1,30,,,,,,,,
,,,,,,,,,,,,,,,698,2022-01-30_15h38.58.897,multiplicationStroop,2021.2.3,Win32,60.21557175,,,,,,,,,,,,,,,,,,,,,,,,,,,,,,,,,28,2.2496,1,0,15,15,2,1,4,×,7,4 × 7,incongruent,smallerFirst,2,1,28,,,,,,,,
,,,,,,,,,,,,,,,698,2022-01-30_15h38.58.897,multiplicationStroop,2021.2.3,Win32,60.21557175,,,,,,,,,,,,,,,,,,,,,,,,,,,,,,,,,10,1.7493,1,0,16,16,7,1,2,×,5,2 × 5,incongruent,smallerFirst,2,1,10,,,,,,,,
,,,,,,,,,,,,,,,698,2022-01-30_15h38.58.897,multiplicationStroop,2021.2.3,Win32,60.21557175,,,,,,,,,,,,,,,,,,,,,,,,,,,,,,,,,25,1.7137,1,0,17,17,31,1,5,×,5,5 × 5,neutral,tie,2,1,25,,,,,,,,
,,,,,,,,,,,,,,,698,2022-01-30_15h38.58.897,multiplicationStroop,2021.2.3,Win32,60.21557175,,,,,,,,,,,,,,,,,,,,,,,,,,,,,,,,,48,1.9489,1,0,18,18,15,1,8,×,6,8 × 6,incongruent,largerFirst,1,2,48,,,,,,,,
,,,,,,,,,,,,,,,698,2022-01-30_15h38.58.897,multiplicationStroop,2021.2.3,Win32,60.21557175,,,,,,,,,,,,,,,,,,,,,,,,,,,,,,,,,40,1.9487,1,0,19,19,27,1,8,×,5,8 × 5,incongruent,largerFirst,1,2,40,,,,,,,,
,,,,,,,,,,,,,,,698,2022-01-30_15h38.58.897,multiplicationStroop,2021.2.3,Win32,60.21557175,,,,,,,,,,,,,,,,,,,,,,,,,,,,,,,,,18,1.8486,1,0,20,20,22,1,6,×,3,6 × 3,incongruent,largerFirst,1,2,18,,,,,,,,
,,,,,,,,,,,,,,,698,2022-01-30_15h38.58.897,multiplicationStroop,2021.2.3,Win32,60.21557175,,,,,,,,,,,,,,,,,,,,,,,,,,,,,,,,,72,1.9487,1,0,21,21,14,1,9,×,8,9 × 8,incongruent,largerFirst,1,2,72,,,,,,,,
,,,,,,,,,,,,,,,698,2022-01-30_15h38.58.897,multiplicationStroop,2021.2.3,Win32,60.21557175,,,,,,,,,,,,,,,,,,,,,,,,,,,,,,,,,63,2.2988,1,0,22,22,17,1,9,×,7,9 × 7,incongruent,largerFirst,1,2,63,,,,,,,,
,,,,,,,,,,,,,,,698,2022-01-30_15h38.58.897,multiplicationStroop,2021.2.3,Win32,60.21557175,,,,,,,,,,,,,,,,,,,,,,,,,,,,,,,,,45,1.9819,1,0,23,23,8,1,5,×,9,5 × 9,incongruent,smallerFirst,2,1,45,,,,,,,,
,,,,,,,,,,,,,,,698,2022-01-30_15h38.58.897,multiplicationStroop,2021.2.3,Win32,60.21557175,,,,,,,,,,,,,,,,,,,,,,,,,,,,,,,,,24,1.6173,1,0,24,24,6,1,4,×,6,4 × 6,incongruent,smallerFirst,2,1,24,,,,,,,,
,,,,,,,,,,,,,,,698,2022-01-30_15h38.58.897,multiplicationStroop,2021.2.3,Win32,60.21557175,,,,,,,,,,,,,,,,,,,,,,,,,,,,,,,,,9,1.683,1,0,25,25,29,1,3,×,3,3 × 3,neutral,tie,2,1,9,,,,,,,,
,,,,,,,,,,,,,,,698,2022-01-30_15h38.58.897,multiplicationStroop,2021.2.3,Win32,60.21557175,,,,,,,,,,,,,,,,,,,,,,,,,,,,,,,,,4,1.514,1,0,26,26,28,1,2,×,2,2 × 2,neutral,tie,2,1,4,,,,,,,,
,,,,,,,,,,,,,,,698,2022-01-30_15h38.58.897,multiplicationStroop,2021.2.3,Win32,60.21557175,,,,,,,,,,,,,,,,,,,,,,,,,,,,,,,,,42,2.0656,1,0,27,27,3,1,6,×,7,6 × 7,incongruent,smallerFirst,2,1,42,,,,,,,,
,,,,,,,,,,,,,,,698,2022-01-30_15h38.58.897,multiplicationStroop,2021.2.3,Win32,60.21557175,,,,,,,,,,,,,,,,,,,,,,,,,,,,,,,,,16,1.8345,1,0,28,28,9,1,2,×,8,2 × 8,incongruent,smallerFirst,2,1,16,,,,,,,,
,,,,,,,,,,,,,,,698,2022-01-30_15h38.58.897,multiplicationStroop,2021.2.3,Win32,60.21557175,,,,,,,,,,,,,,,,,,,,,,,,,,,,,,,,,56,1.8162,1,0,29,29,0,1,7,×,8,7 × 8,incongruent,smallerFirst,2,1,56,,,,,,,,
,,,,,,,,,,,,,,,698,2022-01-30_15h38.58.897,multiplicationStroop,2021.2.3,Win32,60.21557175,,,,,,,,,,,,,,,,,,,,,,,,,,,,,,,,,18,1.747,1,0,30,30,16,1,9,×,2,9 × 2,incongruent,largerFirst,1,2,18,,,,,,,,
,,,,,,,,,,,,,,,698,2022-01-30_15h38.58.897,multiplicationStroop,2021.2.3,Win32,60.21557175,,,,,,,,,,,,,,,,,,,,,,,,,,,,,,,,,32,2.2154,1,0,31,31,21,1,8,×,4,8 × 4,incongruent,largerFirst,1,2,32,,,,,,,,
,,,,,,,,,,,,,,,698,2022-01-30_15h38.58.897,multiplicationStroop,2021.2.3,Win32,60.21557175,,,,,,,,,,,,,,,,,,,,,,,,,,,,,,,,,12,1.4985,1,0,32,32,19,1,4,×,3,4 × 3,incongruent,largerFirst,1,2,12,,,,,,,,
,,,,,,,,,,,,,,,698,2022-01-30_15h38.58.897,multiplicationStroop,2021.2.3,Win32,60.21557175,,,,,,,,,,,,,,,,,,,,,,,,,,,,,,,,,15,1.6175,1,0,33,33,24,1,5,×,3,5 × 3,incongruent,largerFirst,1,2,15,,,,,,,,
,,,,,,,,,,,,,,,698,2022-01-30_15h38.58.897,multiplicationStroop,2021.2.3,Win32,60.21557175,,,,,,,,,,,,,,,,,,,,,,,,,,,,,,,,,20,1.6666,1,0,34,34,13,1,4,×,5,4 × 5,incongruent,smallerFirst,2,1,20,,,,,,,,
,,,,,,,,,,,,,,,698,2022-01-30_15h38.58.897,multiplicationStroop,2021.2.3,Win32,60.21557175,,,,,,,,,,,,,,,,,,,,,,,,,,,,,,,,,16,1.5825,1,0,35,35,30,1,4,×,4,4 × 4,neutral,tie,2,1,16,,,,,,,,
,,,,,,,,,,,,,,,698,2022-01-30_15h38.58.897,multiplicationStroop,2021.2.3,Win32,60.21557175,,,,,,,,,,,,,,,,,,,,,,,,,,,,,,,,,,,,,,,,,,,,,,,,,,0,4,4,4,1,stimulusFile/mult_blk5_INcongruent.xlsx,,
,,,,,,,,,,,,,,,698,2022-01-30_15h38.58.897,multiplicationStroop,2021.2.3,Win32,60.21557175,,,,,,,,,,,,,,,,,,,,,,,,,,,,,,,space,1.8037,30,2.2708,1,0,0,0,15,1,6,×,5,6 × 5,congruent,largerFirst,2,1,30,,,,,,,,
,,,,,,,,,,,,,,,698,2022-01-30_15h38.58.897,multiplicationStroop,2021.2.3,Win32,60.21557175,,,,,,,,,,,,,,,,,,,,,,,,,,,,,,,,,63,5.3487,1,0,1,1,21,1,9,×,7,9 × 7,congruent,largerFirst,2,1,63,,,,,,,,
,,,,,,,,,,,,,,,698,2022-01-30_15h38.58.897,multiplicationStroop,2021.2.3,Win32,60.21557175,,,,,,,,,,,,,,,,,,,,,,,,,,,,,,,,,21,1.5213,1,0,2,2,16,1,7,×,3,7 × 3,congruent,largerFirst,2,1,21,,,,,,,,
,,,,,,,,,,,,,,,698,2022-01-30_15h38.58.897,multiplicationStroop,2021.2.3,Win32,60.21557175,,,,,,,,,,,,,,,,,,,,,,,,,,,,,,,,,16,1.5825,1,0,3,3,30,1,4,×,4,4 × 4,neutral,tie,2,1,16,,,,,,,,
,,,,,,,,,,,,,,,698,2022-01-30_15h38.58.897,multiplicationStroop,2021.2.3,Win32,60.21557175,,,,,,,,,,,,,,,,,,,,,,,,,,,,,,,,,20,1.7159,1,0,4,4,7,1,4,×,5,4 × 5,congruent,smallerFirst,1,2,20,,,,,,,,
,,,,,,,,,,,,,,,698,2022-01-30_15h38.58.897,multiplicationStroop,2021.2.3,Win32,60.21557175,,,,,,,,,,,,,,,,,,,,,,,,,,,,,,,,,72,1.9492,1,0,5,5,17,1,9,×,8,9 × 8,congruent,largerFirst,2,1,72,,,,,,,,
,,,,,,,,,,,,,,,698,2022-01-30_15h38.58.897,multiplicationStroop,2021.2.3,Win32,60.21557175,,,,,,,,,,,,,,,,,,,,,,,,,,,,,,,,,16,1.5658,1,0,6,6,5,1,2,×,8,2 × 8,congruent,smallerFirst,1,2,16,,,,,,,,
,,,,,,,,,,,,,,,698,2022-01-30_15h38.58.897,multiplicationStroop,2021.2.3,Win32,60.21557175,,,,,,,,,,,,,,,,,,,,,,,,,,,,,,,,,6,1.5658,1,0,7,7,13,1,2,×,3,2 × 3,congruent,smallerFirst,1,2,6,,,,,,,,
,,,,,,,,,,,,,,,698,2022-01-30_15h38.58.897,multiplicationStroop,2021.2.3,Win32,60.21557175,,,,,,,,,,,,,,,,,,,,,,,,,,,,,,,,,48,1.8157,1,0,8,8,18,1,8,×,6,8 × 6,congruent,largerFirst,2,1,48,,,,,,,,
,,,,,,,,,,,,,,,698,2022-01-30_15h38.58.897,multiplicationStroop,2021.2.3,Win32,60.21557175,,,,,,,,,,,,,,,,,,,,,,,,,,,,,,,,,15,1.5326,1,0,9,9,4,1,3,×,5,3 × 5,congruent,smallerFirst,1,2,15,,,,,,,,
,,,,,,,,,,,,,,,698,2022-01-30_15h38.58.897,multiplicationStroop,2021.2.3,Win32,60.21557175,,,,,,,,,,,,,,,,,,,,,,,,,,,,,,,,,9,1.7158,1,0,10,10,29,1,3,×,3,3 × 3,neutral,tie,2,1,9,,,,,,,,
,,,,,,,,,,,,,,,698,2022-01-30_15h38.58.897,multiplicationStroop,2021.2.3,Win32,60.21557175,,,,,,,,,,,,,,,,,,,,,,,,,,,,,,,,,8,1.8157,1,0,11,11,9,1,2,×,4,2 × 4,congruent,smallerFirst,1,2,8,,,,,,,,
,,,,,,,,,,,,,,,698,2022-01-30_15h38.58.897,multiplicationStroop,2021.2.3,Win32,60.21557175,,,,,,,,,,,,,,,,,,,,,,,,,,,,,,,,,24,1.9659,1,0,12,12,25,1,6,×,4,6 × 4,congruent,largerFirst,2,1,24,,,,,,,,
,,,,,,,,,,,,,,,698,2022-01-30_15h38.58.897,multiplicationStroop,2021.2.3,Win32,60.21557175,,,,,,,,,,,,,,,,,,,,,,,,,,,,,,,,,36,1.7826,1,0,13,13,32,1,6,×,6,6 × 6,neutral,tie,2,1,36,,,,,,,,
,,,,,,,,,,,,,,,698,2022-01-30_15h38.58.897,multiplicationStroop,2021.2.3,Win32,60.21557175,,,,,,,,,,,,,,,,,,,,,,,,,,,,,,,,,81,2.0658,1,0,14,14,35,1,9,×,9,9 × 9,neutral,tie,2,1,81,,,,,,,,
,,,,,,,,,,,,,,,698,2022-01-30_15h38.58.897,multiplicationStroop,2021.2.3,Win32,60.21557175,,,,,,,,,,,,,,,,,,,,,,,,,,,,,,,,,56,1.849,1,0,15,15,8,1,7,×,8,7 × 8,congruent,smallerFirst,1,2,56,,,,,,,,
,,,,,,,,,,,,,,,698,2022-01-30_15h38.58.897,multiplicationStroop,2021.2.3,Win32,60.21557175,,,,,,,,,,,,,,,,,,,,,,,,,,,,,,,,,14,1.5159,1,0,16,16,14,1,7,×,2,7 × 2,congruent,largerFirst,2,1,14,,,,,,,,
,,,,,,,,,,,,,,,698,2022-01-30_15h38.58.897,multiplicationStroop,2021.2.3,Win32,60.21557175,,,,,,,,,,,,,,,,,,,,,,,,,,,,,,,,,12,1.7326,1,0,17,17,19,1,6,×,2,6 × 2,congruent,largerFirst,2,1,12,,,,,,,,
,,,,,,,,,,,,,,,698,2022-01-30_15h38.58.897,multiplicationStroop,2021.2.3,Win32,60.21557175,,,,,,,,,,,,,,,,,,,,,,,,,,,,,,,,,12,2.7324,1,0,18,18,2,1,3,×,4,3 × 4,congruent,smallerFirst,1,2,12,,,,,,,,
,,,,,,,,,,,,,,,698,2022-01-30_15h38.58.897,multiplicationStroop,2021.2.3,Win32,60.21557175,,,,,,,,,,,,,,,,,,,,,,,,,,,,,,,,,4,1.6159,1,0,19,19,28,1,2,×,2,2 × 2,neutral,tie,2,1,4,,,,,,,,
,,,,,,,,,,,,,,,698,2022-01-30_15h38.58.897,multiplicationStroop,2021.2.3,Win32,60.21557175,,,,,,,,,,,,,,,,,,,,,,,,,,,,,,,,,25,1.9159,1,0,20,20,31,1,5,×,5,5 × 5,neutral,tie,2,1,25,,,,,,,,
,,,,,,,,,,,,,,,698,2022-01-30_15h38.58.897,multiplicationStroop,2021.2.3,Win32,60.21557175,,,,,,,,,,,,,,,,,,,,,,,,,,,,,,,,,18,1.9158,1,0,21,21,11,1,3,×,6,3 × 6,congruent,smallerFirst,1,2,18,,,,,,,,
,,,,,,,,,,,,,,,698,2022-01-30_15h38.58.897,multiplicationStroop,2021.2.3,Win32,60.21557175,,,,,,,,,,,,,,,,,,,,,,,,,,,,,,,,,18,2.0823,1,0,22,22,22,1,9,×,2,9 × 2,congruent,largerFirst,2,1,18,,,,,,,,
,,,,,,,,,,,,,,,698,2022-01-30_15h38.58.897,multiplicationStroop,2021.2.3,Win32,60.21557175,,,,,,,,,,,,,,,,,,,,,,,,,,,,,,,,,40,2.1991,1,0,23,23,6,1,5,×,8,5 × 8,congruent,smallerFirst,1,2,40,,,,,,,,
,,,,,,,,,,,,,,,698,2022-01-30_15h38.58.897,multiplicationStroop,2021.2.3,Win32,60.21557175,,,,,,,,,,,,,,,,,,,,,,,,,,,,,,,,,42,1.7991,1,0,24,24,3,1,6,×,7,6 × 7,congruent,smallerFirst,1,2,42,,,,,,,,
,,,,,,,,,,,,,,,698,2022-01-30_15h38.58.897,multiplicationStroop,2021.2.3,Win32,60.21557175,,,,,,,,,,,,,,,,,,,,,,,,,,,,,,,,,32,2.6656,1,0,25,25,20,1,8,×,4,8 × 4,congruent,largerFirst,2,1,32,,,,,,,,
,,,,,,,,,,,,,,,698,2022-01-30_15h38.58.897,multiplicationStroop,2021.2.3,Win32,60.21557175,,,,,,,,,,,,,,,,,,,,,,,,,,,,,,,,,64,4.1988,1,0,26,26,34,1,8,×,8,8 × 8,neutral,tie,2,1,64,,,,,,,,
,,,,,,,,,,,,,,,698,2022-01-30_15h38.58.897,multiplicationStroop,2021.2.3,Win32,60.21557175,,,,,,,,,,,,,,,,,,,,,,,,,,,,,,,,,35,2.0372,1,0,27,27,1,1,5,×,7,5 × 7,congruent,smallerFirst,1,2,35,,,,,,,,
,,,,,,,,,,,,,,,698,2022-01-30_15h38.58.897,multiplicationStroop,2021.2.3,Win32,60.21557175,,,,,,,,,,,,,,,,,,,,,,,,,,,,,,,,,45,1.7995,1,0,28,28,23,1,9,×,5,9 × 5,congruent,largerFirst,2,1,45,,,,,,,,
,,,,,,,,,,,,,,,698,2022-01-30_15h38.58.897,multiplicationStroop,2021.2.3,Win32,60.21557175,,,,,,,,,,,,,,,,,,,,,,,,,,,,,,,,,49,2.2162,1,0,29,29,33,1,7,×,7,7 × 7,neutral,tie,2,1,49,,,,,,,,
,,,,,,,,,,,,,,,698,2022-01-30_15h38.58.897,multiplicationStroop,2021.2.3,Win32,60.21557175,,,,,,,,,,,,,,,,,,,,,,,,,,,,,,,,,54,1.8035,1,0,30,30,12,1,6,×,9,6 × 9,congruent,smallerFirst,1,2,54,,,,,,,,
,,,,,,,,,,,,,,,698,2022-01-30_15h38.58.897,multiplicationStroop,2021.2.3,Win32,60.21557175,,,,,,,,,,,,,,,,,,,,,,,,,,,,,,,,,10,1.6659,1,0,31,31,24,1,5,×,2,5 × 2,congruent,largerFirst,2,1,10,,,,,,,,
,,,,,,,,,,,,,,,698,2022-01-30_15h38.58.897,multiplicationStroop,2021.2.3,Win32,60.21557175,,,,,,,,,,,,,,,,,,,,,,,,,,,,,,,,,27,1.7992,1,0,32,32,26,1,9,×,3,9 × 3,congruent,largerFirst,2,1,27,,,,,,,,
,,,,,,,,,,,,,,,698,2022-01-30_15h38.58.897,multiplicationStroop,2021.2.3,Win32,60.21557175,,,,,,,,,,,,,,,,,,,,,,,,,,,,,,,,,24,2.0492,1,0,33,33,10,1,3,×,8,3 × 8,congruent,smallerFirst,1,2,24,,,,,,,,
,,,,,,,,,,,,,,,698,2022-01-30_15h38.58.897,multiplicationStroop,2021.2.3,Win32,60.21557175,,,,,,,,,,,,,,,,,,,,,,,,,,,,,,,,,36,1.7989,1,0,34,34,0,1,4,×,9,4 × 9,congruent,smallerFirst,1,2,36,,,,,,,,
,,,,,,,,,,,,,,,698,2022-01-30_15h38.58.897,multiplicationStroop,2021.2.3,Win32,60.21557175,,,,,,,,,,,,,,,,,,,,,,,,,,,,,,,,,28,1.9324,1,0,35,35,27,1,7,×,4,7 × 4,congruent,largerFirst,2,1,28,,,,,,,,
,,,,,,,,,,,,,,,698,2022-01-30_15h38.58.897,multiplicationStroop,2021.2.3,Win32,60.21557175,,,,,,,,,,,,,,,,,,,,,,,,,,,,,,,,,,,,,,,,,,,,,,,,,,0,5,5,2,1,stimulusFile/mult_blk3_congruent.xlsx,,
,,,,,,,,,,,,,,,698,2022-01-30_15h38.58.897,multiplicationStroop,2021.2.3,Win32,60.21557175,,,,,,,,,,,,,,,,,,,,,,,,,,,,,,,,,,,,,,,,,,,,,,,,,,,,,,,,space,9.6367