welcomeKey_resp.keys,welcomeKey_resp.rt,X Scale,Y Scale,rt_resp_4.keys,rt_resp_4.corr,rt_resp_4.rt,speedtest_2.thisRepN,speedtest_2.thisTrialN,speedtest_2.thisN,speedtest_2.thisIndex,speedtest_2.ran,numberSc,posX,positionLayout,participant,date,expName,psychopyVersion,OS,frameRate,ct_instrresp.keys,ct_instrresp.rt,key_resp_2.keys,key_resp_2.rt,ct_keyResp.keys,ct_keyResp.corr,ct_keyResp.rt,trials.thisRepN,trials.thisTrialN,trials.thisN,trials.thisIndex,trials.ran,leftNo,rightNo,displayProblem,numDistance,leftNo_size,rightNo_size,Dims,keyAnswer,TS_Loop.thisRepN,TS_Loop.thisTrialN,TS_Loop.thisN,TS_Loop.thisIndex,TS_Loop.ran,Condition,ActionInst,instrImage,mltptaskInst_resp.keys,mltptaskInst_resp.rt,continue_resp_2.keys,continue_resp_2.rt,multp_Answer,multi_RT,multiplyCorr,LoopingMultiply.thisRepN,LoopingMultiply.thisTrialN,LoopingMultiply.thisN,LoopingMultiply.thisIndex,LoopingMultiply.ran,factor1,multiplySign,factor2,multliplyProblem,physicalSize,orderOperand,sizeF1,sizeF2,mult_answer,trials_stroop.thisRepN,trials_stroop.thisTrialN,trials_stroop.thisN,trials_stroop.thisIndex,trials_stroop.ran,multiplicationFile,esckey_resp_2.keys,esckey_resp_2.rt
y,6.5633,41.7,42.9,right,1,0.612,0,0,0,14,1,8,200,right,702,2022-02-10_13h45.44.768,multiplicationStroop,2021.2.3,Win32,60.37918126,,,,,,,,,,,,,,,,,,,,,,,,,,,,,,,,,,,,,,,,,,,,,,,,,,,,,,,,,
,,,,right,1,0.2968,0,1,1,9,1,2,200,right,702,2022-02-10_13h45.44.768,multiplicationStroop,2021.2.3,Win32,60.37918126,,,,,,,,,,,,,,,,,,,,,,,,,,,,,,,,,,,,,,,,,,,,,,,,,,,,,,,,,
,,,,left,1,0.3329,0,2,2,6,1,8,-200,left,702,2022-02-10_13h45.44.768,multiplicationStroop,2021.2.3,Win32,60.37918126,,,,,,,,,,,,,,,,,,,,,,,,,,,,,,,,,,,,,,,,,,,,,,,,,,,,,,,,,
,,,,left,1,0.2981,0,3,3,0,1,1,-200,left,702,2022-02-10_13h45.44.768,multiplicationStroop,2021.2.3,Win32,60.37918126,,,,,,,,,,,,,,,,,,,,,,,,,,,,,,,,,,,,,,,,,,,,,,,,,,,,,,,,,
,,,,right,1,0.2549,0,4,4,11,1,4,200,right,702,2022-02-10_13h45.44.768,multiplicationStroop,2021.2.3,Win32,60.37918126,,,,,,,,,,,,,,,,,,,,,,,,,,,,,,,,,,,,,,,,,,,,,,,,,,,,,,,,,
,,,,left,1,0.2962,0,5,5,5,1,7,-200,left,702,2022-02-10_13h45.44.768,multiplicationStroop,2021.2.3,Win32,60.37918126,,,,,,,,,,,,,,,,,,,,,,,,,,,,,,,,,,,,,,,,,,,,,,,,,,,,,,,,,
,,,,right,1,0.3063,0,6,6,12,1,6,200,right,702,2022-02-10_13h45.44.768,multiplicationStroop,2021.2.3,Win32,60.37918126,,,,,,,,,,,,,,,,,,,,,,,,,,,,,,,,,,,,,,,,,,,,,,,,,,,,,,,,,
,,,,left,1,0.2709,0,7,7,1,1,2,-200,left,702,2022-02-10_13h45.44.768,multiplicationStroop,2021.2.3,Win32,60.37918126,,,,,,,,,,,,,,,,,,,,,,,,,,,,,,,,,,,,,,,,,,,,,,,,,,,,,,,,,
,,,,left,1,0.3322,0,8,8,2,1,3,-200,left,702,2022-02-10_13h45.44.768,multiplicationStroop,2021.2.3,Win32,60.37918126,,,,,,,,,,,,,,,,,,,,,,,,,,,,,,,,,,,,,,,,,,,,,,,,,,,,,,,,,
,,,,left,1,0.2974,0,9,9,4,1,6,-200,left,702,2022-02-10_13h45.44.768,multiplicationStroop,2021.2.3,Win32,60.37918126,,,,,,,,,,,,,,,,,,,,,,,,,,,,,,,,,,,,,,,,,,,,,,,,,,,,,,,,,
,,,,right,1,0.3188,0,10,10,10,1,3,200,right,702,2022-02-10_13h45.44.768,multiplicationStroop,2021.2.3,Win32,60.37918126,,,,,,,,,,,,,,,,,,,,,,,,,,,,,,,,,,,,,,,,,,,,,,,,,,,,,,,,,
,,,,right,1,0.3135,0,11,11,8,1,1,200,right,702,2022-02-10_13h45.44.768,multiplicationStroop,2021.2.3,Win32,60.37918126,,,,,,,,,,,,,,,,,,,,,,,,,,,,,,,,,,,,,,,,,,,,,,,,,,,,,,,,,
,,,,left,1,0.2737,0,12,12,7,1,9,-200,left,702,2022-02-10_13h45.44.768,multiplicationStroop,2021.2.3,Win32,60.37918126,,,,,,,,,,,,,,,,,,,,,,,,,,,,,,,,,,,,,,,,,,,,,,,,,,,,,,,,,
,,,,right,1,0.3028,0,13,13,13,1,7,200,right,702,2022-02-10_13h45.44.768,multiplicationStroop,2021.2.3,Win32,60.37918126,,,,,,,,,,,,,,,,,,,,,,,,,,,,,,,,,,,,,,,,,,,,,,,,,,,,,,,,,
,,,,left,1,0.2629,0,14,14,3,1,4,-200,left,702,2022-02-10_13h45.44.768,multiplicationStroop,2021.2.3,Win32,60.37918126,,,,,,,,,,,,,,,,,,,,,,,,,,,,,,,,,,,,,,,,,,,,,,,,,,,,,,,,,
,,,,right,1,0.2505,0,15,15,15,1,9,200,right,702,2022-02-10_13h45.44.768,multiplicationStroop,2021.2.3,Win32,60.37918126,,,,,,,,,,,,,,,,,,,,,,,,,,,,,,,,,,,,,,,,,,,,,,,,,,,,,,,,,
,,,,right,1,0.3635,1,0,16,8,1,1,200,right,702,2022-02-10_13h45.44.768,multiplicationStroop,2021.2.3,Win32,60.37918126,,,,,,,,,,,,,,,,,,,,,,,,,,,,,,,,,,,,,,,,,,,,,,,,,,,,,,,,,
,,,,right,1,0.3223,1,1,17,10,1,3,200,right,702,2022-02-10_13h45.44.768,multiplicationStroop,2021.2.3,Win32,60.37918126,,,,,,,,,,,,,,,,,,,,,,,,,,,,,,,,,,,,,,,,,,,,,,,,,,,,,,,,,
,,,,right,1,0.3259,1,2,18,15,1,9,200,right,702,2022-02-10_13h45.44.768,multiplicationStroop,2021.2.3,Win32,60.37918126,,,,,,,,,,,,,,,,,,,,,,,,,,,,,,,,,,,,,,,,,,,,,,,,,,,,,,,,,
,,,,left,1,0.2955,1,3,19,2,1,3,-200,left,702,2022-02-10_13h45.44.768,multiplicationStroop,2021.2.3,Win32,60.37918126,,,,,,,,,,,,,,,,,,,,,,,,,,,,,,,,,,,,,,,,,,,,,,,,,,,,,,,,,
,,,,left,1,0.3181,1,4,20,3,1,4,-200,left,702,2022-02-10_13h45.44.768,multiplicationStroop,2021.2.3,Win32,60.37918126,,,,,,,,,,,,,,,,,,,,,,,,,,,,,,,,,,,,,,,,,,,,,,,,,,,,,,,,,
,,,,right,1,0.2666,1,5,21,14,1,8,200,right,702,2022-02-10_13h45.44.768,multiplicationStroop,2021.2.3,Win32,60.37918126,,,,,,,,,,,,,,,,,,,,,,,,,,,,,,,,,,,,,,,,,,,,,,,,,,,,,,,,,
,,,,right,1,0.3373,1,6,22,9,1,2,200,right,702,2022-02-10_13h45.44.768,multiplicationStroop,2021.2.3,Win32,60.37918126,,,,,,,,,,,,,,,,,,,,,,,,,,,,,,,,,,,,,,,,,,,,,,,,,,,,,,,,,
,,,,left,1,0.2824,1,7,23,5,1,7,-200,left,702,2022-02-10_13h45.44.768,multiplicationStroop,2021.2.3,Win32,60.37918126,,,,,,,,,,,,,,,,,,,,,,,,,,,,,,,,,,,,,,,,,,,,,,,,,,,,,,,,,
,,,,left,1,0.2991,1,8,24,0,1,1,-200,left,702,2022-02-10_13h45.44.768,multiplicationStroop,2021.2.3,Win32,60.37918126,,,,,,,,,,,,,,,,,,,,,,,,,,,,,,,,,,,,,,,,,,,,,,,,,,,,,,,,,
,,,,right,1,0.2232,1,9,25,11,1,4,200,right,702,2022-02-10_13h45.44.768,multiplicationStroop,2021.2.3,Win32,60.37918126,,,,,,,,,,,,,,,,,,,,,,,,,,,,,,,,,,,,,,,,,,,,,,,,,,,,,,,,,
,,,,left,1,0.3828,1,10,26,1,1,2,-200,left,702,2022-02-10_13h45.44.768,multiplicationStroop,2021.2.3,Win32,60.37918126,,,,,,,,,,,,,,,,,,,,,,,,,,,,,,,,,,,,,,,,,,,,,,,,,,,,,,,,,
,,,,right,0,0.2861,1,11,27,4,1,6,-200,left,702,2022-02-10_13h45.44.768,multiplicationStroop,2021.2.3,Win32,60.37918126,,,,,,,,,,,,,,,,,,,,,,,,,,,,,,,,,,,,,,,,,,,,,,,,,,,,,,,,,
,,,,right,1,0.5367,1,12,28,12,1,6,200,right,702,2022-02-10_13h45.44.768,multiplicationStroop,2021.2.3,Win32,60.37918126,,,,,,,,,,,,,,,,,,,,,,,,,,,,,,,,,,,,,,,,,,,,,,,,,,,,,,,,,
,,,,left,1,0.2942,1,13,29,7,1,9,-200,left,702,2022-02-10_13h45.44.768,multiplicationStroop,2021.2.3,Win32,60.37918126,,,,,,,,,,,,,,,,,,,,,,,,,,,,,,,,,,,,,,,,,,,,,,,,,,,,,,,,,
,,,,left,1,0.3447,1,14,30,6,1,8,-200,left,702,2022-02-10_13h45.44.768,multiplicationStroop,2021.2.3,Win32,60.37918126,,,,,,,,,,,,,,,,,,,,,,,,,,,,,,,,,,,,,,,,,,,,,,,,,,,,,,,,,
,,,,right,1,0.3288,1,15,31,13,1,7,200,right,702,2022-02-10_13h45.44.768,multiplicationStroop,2021.2.3,Win32,60.37918126,,,,,,,,,,,,,,,,,,,,,,,,,,,,,,,,,,,,,,,,,,,,,,,,,,,,,,,,,
,,,,right,1,0.3652,2,0,32,12,1,6,200,right,702,2022-02-10_13h45.44.768,multiplicationStroop,2021.2.3,Win32,60.37918126,,,,,,,,,,,,,,,,,,,,,,,,,,,,,,,,,,,,,,,,,,,,,,,,,,,,,,,,,
,,,,right,1,0.3044,2,1,33,14,1,8,200,right,702,2022-02-10_13h45.44.768,multiplicationStroop,2021.2.3,Win32,60.37918126,,,,,,,,,,,,,,,,,,,,,,,,,,,,,,,,,,,,,,,,,,,,,,,,,,,,,,,,,
,,,,right,1,0.3029,2,2,34,8,1,1,200,right,702,2022-02-10_13h45.44.768,multiplicationStroop,2021.2.3,Win32,60.37918126,,,,,,,,,,,,,,,,,,,,,,,,,,,,,,,,,,,,,,,,,,,,,,,,,,,,,,,,,
,,,,right,1,0.2682,2,3,35,15,1,9,200,right,702,2022-02-10_13h45.44.768,multiplicationStroop,2021.2.3,Win32,60.37918126,,,,,,,,,,,,,,,,,,,,,,,,,,,,,,,,,,,,,,,,,,,,,,,,,,,,,,,,,
,,,,left,1,0.4031,2,4,36,4,1,6,-200,left,702,2022-02-10_13h45.44.768,multiplicationStroop,2021.2.3,Win32,60.37918126,,,,,,,,,,,,,,,,,,,,,,,,,,,,,,,,,,,,,,,,,,,,,,,,,,,,,,,,,
,,,,left,1,0.2557,2,5,37,7,1,9,-200,left,702,2022-02-10_13h45.44.768,multiplicationStroop,2021.2.3,Win32,60.37918126,,,,,,,,,,,,,,,,,,,,,,,,,,,,,,,,,,,,,,,,,,,,,,,,,,,,,,,,,
,,,,right,1,0.3152,2,6,38,9,1,2,200,right,702,2022-02-10_13h45.44.768,multiplicationStroop,2021.2.3,Win32,60.37918126,,,,,,,,,,,,,,,,,,,,,,,,,,,,,,,,,,,,,,,,,,,,,,,,,,,,,,,,,
,,,,right,1,0.3451,2,7,39,13,1,7,200,right,702,2022-02-10_13h45.44.768,multiplicationStroop,2021.2.3,Win32,60.37918126,,,,,,,,,,,,,,,,,,,,,,,,,,,,,,,,,,,,,,,,,,,,,,,,,,,,,,,,,
,,,,left,1,0.2281,2,8,40,6,1,8,-200,left,702,2022-02-10_13h45.44.768,multiplicationStroop,2021.2.3,Win32,60.37918126,,,,,,,,,,,,,,,,,,,,,,,,,,,,,,,,,,,,,,,,,,,,,,,,,,,,,,,,,
,,,,right,1,0.5379,2,9,41,10,1,3,200,right,702,2022-02-10_13h45.44.768,multiplicationStroop,2021.2.3,Win32,60.37918126,,,,,,,,,,,,,,,,,,,,,,,,,,,,,,,,,,,,,,,,,,,,,,,,,,,,,,,,,
,,,,left,1,0.2814,2,10,42,3,1,4,-200,left,702,2022-02-10_13h45.44.768,multiplicationStroop,2021.2.3,Win32,60.37918126,,,,,,,,,,,,,,,,,,,,,,,,,,,,,,,,,,,,,,,,,,,,,,,,,,,,,,,,,
,,,,right,1,0.2552,2,11,43,11,1,4,200,right,702,2022-02-10_13h45.44.768,multiplicationStroop,2021.2.3,Win32,60.37918126,,,,,,,,,,,,,,,,,,,,,,,,,,,,,,,,,,,,,,,,,,,,,,,,,,,,,,,,,
,,,,left,1,0.2873,2,12,44,2,1,3,-200,left,702,2022-02-10_13h45.44.768,multiplicationStroop,2021.2.3,Win32,60.37918126,,,,,,,,,,,,,,,,,,,,,,,,,,,,,,,,,,,,,,,,,,,,,,,,,,,,,,,,,
,,,,left,1,0.5293,2,13,45,5,1,7,-200,left,702,2022-02-10_13h45.44.768,multiplicationStroop,2021.2.3,Win32,60.37918126,,,,,,,,,,,,,,,,,,,,,,,,,,,,,,,,,,,,,,,,,,,,,,,,,,,,,,,,,
,,,,left,1,0.295,2,14,46,1,1,2,-200,left,702,2022-02-10_13h45.44.768,multiplicationStroop,2021.2.3,Win32,60.37918126,,,,,,,,,,,,,,,,,,,,,,,,,,,,,,,,,,,,,,,,,,,,,,,,,,,,,,,,,
,,,,left,1,0.2771,2,15,47,0,1,1,-200,left,702,2022-02-10_13h45.44.768,multiplicationStroop,2021.2.3,Win32,60.37918126,,,,,,,,,,,,,,,,,,,,,,,,,,,,,,,,,,,,,,,,,,,,,,,,,,,,,,,,,
,,,,left,1,0.2976,3,0,48,7,1,9,-200,left,702,2022-02-10_13h45.44.768,multiplicationStroop,2021.2.3,Win32,60.37918126,,,,,,,,,,,,,,,,,,,,,,,,,,,,,,,,,,,,,,,,,,,,,,,,,,,,,,,,,
,,,,left,1,0.2834,3,1,49,0,1,1,-200,left,702,2022-02-10_13h45.44.768,multiplicationStroop,2021.2.3,Win32,60.37918126,,,,,,,,,,,,,,,,,,,,,,,,,,,,,,,,,,,,,,,,,,,,,,,,,,,,,,,,,
,,,,left,1,0.2738,3,2,50,6,1,8,-200,left,702,2022-02-10_13h45.44.768,multiplicationStroop,2021.2.3,Win32,60.37918126,,,,,,,,,,,,,,,,,,,,,,,,,,,,,,,,,,,,,,,,,,,,,,,,,,,,,,,,,
,,,,left,1,0.2624,3,3,51,5,1,7,-200,left,702,2022-02-10_13h45.44.768,multiplicationStroop,2021.2.3,Win32,60.37918126,,,,,,,,,,,,,,,,,,,,,,,,,,,,,,,,,,,,,,,,,,,,,,,,,,,,,,,,,
,,,,left,0,0.2606,3,4,52,11,1,4,200,right,702,2022-02-10_13h45.44.768,multiplicationStroop,2021.2.3,Win32,60.37918126,,,,,,,,,,,,,,,,,,,,,,,,,,,,,,,,,,,,,,,,,,,,,,,,,,,,,,,,,
,,,,right,1,0.4122,3,5,53,10,1,3,200,right,702,2022-02-10_13h45.44.768,multiplicationStroop,2021.2.3,Win32,60.37918126,,,,,,,,,,,,,,,,,,,,,,,,,,,,,,,,,,,,,,,,,,,,,,,,,,,,,,,,,
,,,,right,1,0.3028,3,6,54,15,1,9,200,right,702,2022-02-10_13h45.44.768,multiplicationStroop,2021.2.3,Win32,60.37918126,,,,,,,,,,,,,,,,,,,,,,,,,,,,,,,,,,,,,,,,,,,,,,,,,,,,,,,,,
,,,,right,1,0.2645,3,7,55,9,1,2,200,right,702,2022-02-10_13h45.44.768,multiplicationStroop,2021.2.3,Win32,60.37918126,,,,,,,,,,,,,,,,,,,,,,,,,,,,,,,,,,,,,,,,,,,,,,,,,,,,,,,,,
,,,,right,1,0.2764,3,8,56,13,1,7,200,right,702,2022-02-10_13h45.44.768,multiplicationStroop,2021.2.3,Win32,60.37918126,,,,,,,,,,,,,,,,,,,,,,,,,,,,,,,,,,,,,,,,,,,,,,,,,,,,,,,,,
,,,,left,1,0.3313,3,9,57,1,1,2,-200,left,702,2022-02-10_13h45.44.768,multiplicationStroop,2021.2.3,Win32,60.37918126,,,,,,,,,,,,,,,,,,,,,,,,,,,,,,,,,,,,,,,,,,,,,,,,,,,,,,,,,
,,,,left,1,0.2762,3,10,58,3,1,4,-200,left,702,2022-02-10_13h45.44.768,multiplicationStroop,2021.2.3,Win32,60.37918126,,,,,,,,,,,,,,,,,,,,,,,,,,,,,,,,,,,,,,,,,,,,,,,,,,,,,,,,,
,,,,left,1,0.3018,3,11,59,4,1,6,-200,left,702,2022-02-10_13h45.44.768,multiplicationStroop,2021.2.3,Win32,60.37918126,,,,,,,,,,,,,,,,,,,,,,,,,,,,,,,,,,,,,,,,,,,,,,,,,,,,,,,,,
,,,,right,1,0.427,3,12,60,8,1,1,200,right,702,2022-02-10_13h45.44.768,multiplicationStroop,2021.2.3,Win32,60.37918126,,,,,,,,,,,,,,,,,,,,,,,,,,,,,,,,,,,,,,,,,,,,,,,,,,,,,,,,,
,,,,right,1,0.3158,3,13,61,14,1,8,200,right,702,2022-02-10_13h45.44.768,multiplicationStroop,2021.2.3,Win32,60.37918126,,,,,,,,,,,,,,,,,,,,,,,,,,,,,,,,,,,,,,,,,,,,,,,,,,,,,,,,,
,,,,right,1,0.2806,3,14,62,12,1,6,200,right,702,2022-02-10_13h45.44.768,multiplicationStroop,2021.2.3,Win32,60.37918126,,,,,,,,,,,,,,,,,,,,,,,,,,,,,,,,,,,,,,,,,,,,,,,,,,,,,,,,,
,,,,left,1,0.2272,3,15,63,2,1,3,-200,left,702,2022-02-10_13h45.44.768,multiplicationStroop,2021.2.3,Win32,60.37918126,,,,,,,,,,,,,,,,,,,,,,,,,,,,,,,,,,,,,,,,,,,,,,,,,,,,,,,,,
,,,,,,,,,,,,,,,702,2022-02-10_13h45.44.768,multiplicationStroop,2021.2.3,Win32,60.37918126,space,7.3726,space,3.8553,left,1,1.138,0,0,0,55,1,9,9,9 | 9,0,1.9756,1.4111,neutral,left,,,,,,stimulusFile/physical.xlsx,,,,,,,,,,,,,,,,,,,,,,,,,,,,,,,
,,,,,,,,,,,,,,,702,2022-02-10_13h45.44.768,multiplicationStroop,2021.2.3,Win32,60.37918126,,,,,right,1,0.5411,0,1,1,63,1,9,9,9 | 9,0,1.4111,1.9756,neutral,right,,,,,,stimulusFile/physical.xlsx,,,,,,,,,,,,,,,,,,,,,,,,,,,,,,,
,,,,,,,,,,,,,,,702,2022-02-10_13h45.44.768,multiplicationStroop,2021.2.3,Win32,60.37918126,,,,,left,1,0.4938,0,2,2,26,1,6,7,6 | 7,1,1.9756,1.4111,incongruent,left,,,,,,stimulusFile/physical.xlsx,,,,,,,,,,,,,,,,,,,,,,,,,,,,,,,
,,,,,,,,,,,,,,,702,2022-02-10_13h45.44.768,multiplicationStroop,2021.2.3,Win32,60.37918126,,,,,left,1,0.7089,0,3,3,40,1,1,6,1 | 6,5,1.9756,1.4111,incongruent,left,,,,,,stimulusFile/physical.xlsx,,,,,,,,,,,,,,,,,,,,,,,,,,,,,,,
,,,,,,,,,,,,,,,702,2022-02-10_13h45.44.768,multiplicationStroop,2021.2.3,Win32,60.37918126,,,,,left,1,0.5749,0,4,4,35,1,7,9,7 | 9,2,1.9756,1.4111,incongruent,left,,,,,,stimulusFile/physical.xlsx,,,,,,,,,,,,,,,,,,,,,,,,,,,,,,,
,,,,,,,,,,,,,,,702,2022-02-10_13h45.44.768,multiplicationStroop,2021.2.3,Win32,60.37918126,,,,,left,1,0.7413,0,5,5,43,1,4,9,4 | 9,5,1.9756,1.4111,incongruent,left,,,,,,stimulusFile/physical.xlsx,,,,,,,,,,,,,,,,,,,,,,,,,,,,,,,
,,,,,,,,,,,,,,,702,2022-02-10_13h45.44.768,multiplicationStroop,2021.2.3,Win32,60.37918126,,,,,left,1,0.47,0,6,6,34,1,6,8,6 | 8,2,1.9756,1.4111,incongruent,left,,,,,,stimulusFile/physical.xlsx,,,,,,,,,,,,,,,,,,,,,,,,,,,,,,,
,,,,,,,,,,,,,,,702,2022-02-10_13h45.44.768,multiplicationStroop,2021.2.3,Win32,60.37918126,,,,,left,1,0.5179,0,7,7,24,1,1,2,1 | 2,1,1.9756,1.4111,incongruent,left,,,,,,stimulusFile/physical.xlsx,,,,,,,,,,,,,,,,,,,,,,,,,,,,,,,
,,,,,,,,,,,,,,,702,2022-02-10_13h45.44.768,multiplicationStroop,2021.2.3,Win32,60.37918126,,,,,left,1,0.5439,0,8,8,4,1,2,1,2 | 1,1,1.9756,1.4111,congruent,left,,,,,,stimulusFile/physical.xlsx,,,,,,,,,,,,,,,,,,,,,,,,,,,,,,,
,,,,,,,,,,,,,,,702,2022-02-10_13h45.44.768,multiplicationStroop,2021.2.3,Win32,60.37918126,,,,,left,1,0.5758,0,9,9,41,1,2,7,2 | 7,5,1.9756,1.4111,incongruent,left,,,,,,stimulusFile/physical.xlsx,,,,,,,,,,,,,,,,,,,,,,,,,,,,,,,
,,,,,,,,,,,,,,,702,2022-02-10_13h45.44.768,multiplicationStroop,2021.2.3,Win32,60.37918126,,,,,left,1,0.5554,0,10,10,32,1,1,3,1 | 3,2,1.9756,1.4111,incongruent,left,,,,,,stimulusFile/physical.xlsx,,,,,,,,,,,,,,,,,,,,,,,,,,,,,,,
,,,,,,,,,,,,,,,702,2022-02-10_13h45.44.768,multiplicationStroop,2021.2.3,Win32,60.37918126,,,,,right,1,0.5672,0,11,11,8,1,1,3,1 | 3,2,1.4111,1.9756,congruent,right,,,,,,stimulusFile/physical.xlsx,,,,,,,,,,,,,,,,,,,,,,,,,,,,,,,
,,,,,,,,,,,,,,,702,2022-02-10_13h45.44.768,multiplicationStroop,2021.2.3,Win32,60.37918126,,,,,right,1,0.4996,0,12,12,30,1,7,6,7 | 6,1,1.4111,1.9756,incongruent,right,,,,,,stimulusFile/physical.xlsx,,,,,,,,,,,,,,,,,,,,,,,,,,,,,,,
,,,,,,,,,,,,,,,702,2022-02-10_13h45.44.768,multiplicationStroop,2021.2.3,Win32,60.37918126,,,,,right,1,0.4745,0,13,13,29,1,4,3,4 | 3,1,1.4111,1.9756,incongruent,right,,,,,,stimulusFile/physical.xlsx,,,,,,,,,,,,,,,,,,,,,,,,,,,,,,,
,,,,,,,,,,,,,,,702,2022-02-10_13h45.44.768,multiplicationStroop,2021.2.3,Win32,60.37918126,,,,,left,0,0.471,0,14,14,66,1,3,3,3 | 3,0,1.9756,1.4111,neutral,right,,,,,,stimulusFile/physical.xlsx,,,,,,,,,,,,,,,,,,,,,,,,,,,,,,,
,,,,,,,,,,,,,,,702,2022-02-10_13h45.44.768,multiplicationStroop,2021.2.3,Win32,60.37918126,,,,,left,1,0.4702,0,15,15,42,1,3,8,3 | 8,5,1.9756,1.4111,incongruent,left,,,,,,stimulusFile/physical.xlsx,,,,,,,,,,,,,,,,,,,,,,,,,,,,,,,
,,,,,,,,,,,,,,,702,2022-02-10_13h45.44.768,multiplicationStroop,2021.2.3,Win32,60.37918126,,,,,right,1,0.5799,0,16,16,39,1,9,7,9 | 7,2,1.4111,1.9756,incongruent,right,,,,,,stimulusFile/physical.xlsx,,,,,,,,,,,,,,,,,,,,,,,,,,,,,,,
,,,,,,,,,,,,,,,702,2022-02-10_13h45.44.768,multiplicationStroop,2021.2.3,Win32,60.37918126,,,,,left,1,0.7182,0,17,17,49,1,3,3,3 | 3,0,1.9756,1.4111,neutral,left,,,,,,stimulusFile/physical.xlsx,,,,,,,,,,,,,,,,,,,,,,,,,,,,,,,
,,,,,,,,,,,,,,,702,2022-02-10_13h45.44.768,multiplicationStroop,2021.2.3,Win32,60.37918126,,,,,right,1,0.5035,0,18,18,58,1,6,6,6 | 6,0,1.4111,1.9756,neutral,right,,,,,,stimulusFile/physical.xlsx,,,,,,,,,,,,,,,,,,,,,,,,,,,,,,,
,,,,,,,,,,,,,,,702,2022-02-10_13h45.44.768,multiplicationStroop,2021.2.3,Win32,60.37918126,,,,,right,1,0.459,0,19,19,19,1,4,9,4 | 9,5,1.4111,1.9756,congruent,right,,,,,,stimulusFile/physical.xlsx,,,,,,,,,,,,,,,,,,,,,,,,,,,,,,,
,,,,,,,,,,,,,,,702,2022-02-10_13h45.44.768,multiplicationStroop,2021.2.3,Win32,60.37918126,,,,,left,1,0.5509,0,20,20,54,1,7,7,7 | 7,0,1.9756,1.4111,neutral,left,,,,,,stimulusFile/physical.xlsx,,,,,,,,,,,,,,,,,,,,,,,,,,,,,,,
,,,,,,,,,,,,,,,702,2022-02-10_13h45.44.768,multiplicationStroop,2021.2.3,Win32,60.37918126,,,,,right,1,0.6017,0,21,21,10,1,6,8,6 | 8,2,1.4111,1.9756,congruent,right,,,,,,stimulusFile/physical.xlsx,,,,,,,,,,,,,,,,,,,,,,,,,,,,,,,
,,,,,,,,,,,,,,,702,2022-02-10_13h45.44.768,multiplicationStroop,2021.2.3,Win32,60.37918126,,,,,right,1,0.5279,0,22,22,57,1,2,2,2 | 2,0,1.4111,1.9756,neutral,right,,,,,,stimulusFile/physical.xlsx,,,,,,,,,,,,,,,,,,,,,,,,,,,,,,,
,,,,,,,,,,,,,,,702,2022-02-10_13h45.44.768,multiplicationStroop,2021.2.3,Win32,60.37918126,,,,,left,1,0.5347,0,23,23,50,1,6,6,6 | 6,0,1.9756,1.4111,neutral,left,,,,,,stimulusFile/physical.xlsx,,,,,,,,,,,,,,,,,,,,,,,,,,,,,,,
,,,,,,,,,,,,,,,702,2022-02-10_13h45.44.768,multiplicationStroop,2021.2.3,Win32,60.37918126,,,,,right,1,0.5018,0,24,24,11,1,7,9,7 | 9,2,1.4111,1.9756,congruent,right,,,,,,stimulusFile/physical.xlsx,,,,,,,,,,,,,,,,,,,,,,,,,,,,,,,
,,,,,,,,,,,,,,,702,2022-02-10_13h45.44.768,multiplicationStroop,2021.2.3,Win32,60.37918126,,,,,left,1,0.6827,0,25,25,6,1,7,6,7 | 6,1,1.9756,1.4111,congruent,left,,,,,,stimulusFile/physical.xlsx,,,,,,,,,,,,,,,,,,,,,,,,,,,,,,,
,,,,,,,,,,,,,,,702,2022-02-10_13h45.44.768,multiplicationStroop,2021.2.3,Win32,60.37918126,,,,,left,1,0.5517,0,26,26,14,1,8,6,8 | 6,2,1.9756,1.4111,congruent,left,,,,,,stimulusFile/physical.xlsx,,,,,,,,,,,,,,,,,,,,,,,,,,,,,,,
,,,,,,,,,,,,,,,702,2022-02-10_13h45.44.768,multiplicationStroop,2021.2.3,Win32,60.37918126,,,,,right,1,0.5149,0,27,27,56,1,1,1,1 | 1,0,1.4111,1.9756,neutral,right,,,,,,stimulusFile/physical.xlsx,,,,,,,,,,,,,,,,,,,,,,,,,,,,,,,
,,,,,,,,,,,,,,,702,2022-02-10_13h45.44.768,multiplicationStroop,2021.2.3,Win32,60.37918126,,,,,left,1,0.5821,0,28,28,51,1,8,8,8 | 8,0,1.9756,1.4111,neutral,left,,,,,,stimulusFile/physical.xlsx,,,,,,,,,,,,,,,,,,,,,,,,,,,,,,,
,,,,,,,,,,,,,,,702,2022-02-10_13h45.44.768,multiplicationStroop,2021.2.3,Win32,60.37918126,,,,,right,1,0.5504,0,29,29,38,1,8,6,8 | 6,2,1.4111,1.9756,incongruent,right,,,,,,stimulusFile/physical.xlsx,,,,,,,,,,,,,,,,,,,,,,,,,,,,,,,
,,,,,,,,,,,,,,,702,2022-02-10_13h45.44.768,multiplicationStroop,2021.2.3,Win32,60.37918126,,,,,left,1,0.434,0,30,30,21,1,7,2,7 | 2,5,1.9756,1.4111,congruent,left,,,,,,stimulusFile/physical.xlsx,,,,,,,,,,,,,,,,,,,,,,,,,,,,,,,
,,,,,,,,,,,,,,,702,2022-02-10_13h45.44.768,multiplicationStroop,2021.2.3,Win32,60.37918126,,,,,left,1,0.8004,0,31,31,52,1,2,2,2 | 2,0,1.9756,1.4111,neutral,left,,,,,,stimulusFile/physical.xlsx,,,,,,,,,,,,,,,,,,,,,,,,,,,,,,,
,,,,,,,,,,,,,,,702,2022-02-10_13h45.44.768,multiplicationStroop,2021.2.3,Win32,60.37918126,,,,,right,1,0.6294,0,32,32,2,1,6,7,6 | 7,1,1.4111,1.9756,congruent,right,,,,,,stimulusFile/physical.xlsx,,,,,,,,,,,,,,,,,,,,,,,,,,,,,,,
,,,,,,,,,,,,,,,702,2022-02-10_13h45.44.768,multiplicationStroop,2021.2.3,Win32,60.37918126,,,,,right,1,0.8145,0,33,33,65,1,2,2,2 | 2,0,1.4111,1.9756,neutral,right,,,,,,stimulusFile/physical.xlsx,,,,,,,,,,,,,,,,,,,,,,,,,,,,,,,
,,,,,,,,,,,,,,,702,2022-02-10_13h45.44.768,multiplicationStroop,2021.2.3,Win32,60.37918126,,,,,left,0,0.6183,0,34,34,0,1,1,2,1 | 2,1,1.4111,1.9756,congruent,right,,,,,,stimulusFile/physical.xlsx,,,,,,,,,,,,,,,,,,,,,,,,,,,,,,,
,,,,,,,,,,,,,,,702,2022-02-10_13h45.44.768,multiplicationStroop,2021.2.3,Win32,60.37918126,,,,,right,1,0.9503,0,35,35,46,1,8,3,8 | 3,5,1.4111,1.9756,incongruent,right,,,,,,stimulusFile/physical.xlsx,,,,,,,,,,,,,,,,,,,,,,,,,,,,,,,
,,,,,,,,,,,,,,,702,2022-02-10_13h45.44.768,multiplicationStroop,2021.2.3,Win32,60.37918126,,,,,right,1,0.8312,0,36,36,47,1,9,4,9 | 4,5,1.4111,1.9756,incongruent,right,,,,,,stimulusFile/physical.xlsx,,,,,,,,,,,,,,,,,,,,,,,,,,,,,,,
,,,,,,,,,,,,,,,702,2022-02-10_13h45.44.768,multiplicationStroop,2021.2.3,Win32,60.37918126,,,,,right,1,0.6653,0,37,37,16,1,1,6,1 | 6,5,1.4111,1.9756,congruent,right,,,,,,stimulusFile/physical.xlsx,,,,,,,,,,,,,,,,,,,,,,,,,,,,,,,
,,,,,,,,,,,,,,,702,2022-02-10_13h45.44.768,multiplicationStroop,2021.2.3,Win32,60.37918126,,,,,right,1,0.6507,0,38,38,31,1,9,8,9 | 8,1,1.4111,1.9756,incongruent,right,,,,,,stimulusFile/physical.xlsx,,,,,,,,,,,,,,,,,,,,,,,,,,,,,,,
,,,,,,,,,,,,,,,702,2022-02-10_13h45.44.768,multiplicationStroop,2021.2.3,Win32,60.37918126,,,,,left,1,0.6004,0,39,39,7,1,9,8,9 | 8,1,1.9756,1.4111,congruent,left,,,,,,stimulusFile/physical.xlsx,,,,,,,,,,,,,,,,,,,,,,,,,,,,,,,
,,,,,,,,,,,,,,,702,2022-02-10_13h45.44.768,multiplicationStroop,2021.2.3,Win32,60.37918126,,,,,right,1,0.6173,0,40,40,36,1,3,1,3 | 1,2,1.4111,1.9756,incongruent,right,,,,,,stimulusFile/physical.xlsx,,,,,,,,,,,,,,,,,,,,,,,,,,,,,,,
,,,,,,,,,,,,,,,702,2022-02-10_13h45.44.768,multiplicationStroop,2021.2.3,Win32,60.37918126,,,,,right,0,0.6477,0,41,41,69,1,7,7,7 | 7,0,1.4111,1.9756,neutral,left,,,,,,stimulusFile/physical.xlsx,,,,,,,,,,,,,,,,,,,,,,,,,,,,,,,
,,,,,,,,,,,,,,,702,2022-02-10_13h45.44.768,multiplicationStroop,2021.2.3,Win32,60.37918126,,,,,left,1,0.5482,0,42,42,22,1,8,3,8 | 3,5,1.9756,1.4111,congruent,left,,,,,,stimulusFile/physical.xlsx,,,,,,,,,,,,,,,,,,,,,,,,,,,,,,,
,,,,,,,,,,,,,,,702,2022-02-10_13h45.44.768,multiplicationStroop,2021.2.3,Win32,60.37918126,,,,,left,1,0.5142,0,43,43,25,1,3,4,3 | 4,1,1.9756,1.4111,incongruent,left,,,,,,stimulusFile/physical.xlsx,,,,,,,,,,,,,,,,,,,,,,,,,,,,,,,
,,,,,,,,,,,,,,,702,2022-02-10_13h45.44.768,multiplicationStroop,2021.2.3,Win32,60.37918126,,,,,right,1,0.6001,0,44,44,67,1,4,4,4 | 4,0,1.4111,1.9756,neutral,right,,,,,,stimulusFile/physical.xlsx,,,,,,,,,,,,,,,,,,,,,,,,,,,,,,,
,,,,,,,,,,,,,,,702,2022-02-10_13h45.44.768,multiplicationStroop,2021.2.3,Win32,60.37918126,,,,,right,1,0.5007,0,45,45,61,1,4,4,4 | 4,0,1.4111,1.9756,neutral,right,,,,,,stimulusFile/physical.xlsx,,,,,,,,,,,,,,,,,,,,,,,,,,,,,,,
,,,,,,,,,,,,,,,702,2022-02-10_13h45.44.768,multiplicationStroop,2021.2.3,Win32,60.37918126,,,,,left,1,0.518,0,46,46,15,1,9,7,9 | 7,2,1.9756,1.4111,congruent,left,,,,,,stimulusFile/physical.xlsx,,,,,,,,,,,,,,,,,,,,,,,,,,,,,,,
,,,,,,,,,,,,,,,702,2022-02-10_13h45.44.768,multiplicationStroop,2021.2.3,Win32,60.37918126,,,,,left,1,0.5377,0,47,47,23,1,9,4,9 | 4,5,1.9756,1.4111,congruent,left,,,,,,stimulusFile/physical.xlsx,,,,,,,,,,,,,,,,,,,,,,,,,,,,,,,
,,,,,,,,,,,,,,,702,2022-02-10_13h45.44.768,multiplicationStroop,2021.2.3,Win32,60.37918126,,,,,left,1,1.5575,0,48,48,20,1,6,1,6 | 1,5,1.9756,1.4111,congruent,left,,,,,,stimulusFile/physical.xlsx,,,,,,,,,,,,,,,,,,,,,,,,,,,,,,,
,,,,,,,,,,,,,,,702,2022-02-10_13h45.44.768,multiplicationStroop,2021.2.3,Win32,60.37918126,,,,,right,1,0.7672,0,49,49,60,1,3,3,3 | 3,0,1.4111,1.9756,neutral,right,,,,,,stimulusFile/physical.xlsx,,,,,,,,,,,,,,,,,,,,,,,,,,,,,,,
,,,,,,,,,,,,,,,702,2022-02-10_13h45.44.768,multiplicationStroop,2021.2.3,Win32,60.37918126,,,,,right,1,0.6587,0,50,50,17,1,2,7,2 | 7,5,1.4111,1.9756,congruent,right,,,,,,stimulusFile/physical.xlsx,,,,,,,,,,,,,,,,,,,,,,,,,,,,,,,
,,,,,,,,,,,,,,,702,2022-02-10_13h45.44.768,multiplicationStroop,2021.2.3,Win32,60.37918126,,,,,right,1,0.5708,0,51,51,62,1,8,8,8 | 8,0,1.4111,1.9756,neutral,right,,,,,,stimulusFile/physical.xlsx,,,,,,,,,,,,,,,,,,,,,,,,,,,,,,,
,,,,,,,,,,,,,,,702,2022-02-10_13h45.44.768,multiplicationStroop,2021.2.3,Win32,60.37918126,,,,,right,1,0.5877,0,52,52,44,1,6,1,6 | 1,5,1.4111,1.9756,incongruent,right,,,,,,stimulusFile/physical.xlsx,,,,,,,,,,,,,,,,,,,,,,,,,,,,,,,
,,,,,,,,,,,,,,,702,2022-02-10_13h45.44.768,multiplicationStroop,2021.2.3,Win32,60.37918126,,,,,left,1,0.635,0,53,53,27,1,8,9,8 | 9,1,1.9756,1.4111,incongruent,left,,,,,,stimulusFile/physical.xlsx,,,,,,,,,,,,,,,,,,,,,,,,,,,,,,,
,,,,,,,,,,,,,,,702,2022-02-10_13h45.44.768,multiplicationStroop,2021.2.3,Win32,60.37918126,,,,,right,1,0.6337,0,54,54,28,1,2,1,2 | 1,1,1.4111,1.9756,incongruent,right,,,,,,stimulusFile/physical.xlsx,,,,,,,,,,,,,,,,,,,,,,,,,,,,,,,
,,,,,,,,,,,,,,,702,2022-02-10_13h45.44.768,multiplicationStroop,2021.2.3,Win32,60.37918126,,,,,left,1,0.6159,0,55,55,68,1,6,6,6 | 6,0,1.9756,1.4111,neutral,left,,,,,,stimulusFile/physical.xlsx,,,,,,,,,,,,,,,,,,,,,,,,,,,,,,,
,,,,,,,,,,,,,,,702,2022-02-10_13h45.44.768,multiplicationStroop,2021.2.3,Win32,60.37918126,,,,,right,1,0.5625,0,56,56,1,1,3,4,3 | 4,1,1.4111,1.9756,congruent,right,,,,,,stimulusFile/physical.xlsx,,,,,,,,,,,,,,,,,,,,,,,,,,,,,,,
,,,,,,,,,,,,,,,702,2022-02-10_13h45.44.768,multiplicationStroop,2021.2.3,Win32,60.37918126,,,,,left,1,0.6952,0,57,57,5,1,4,3,4 | 3,1,1.9756,1.4111,congruent,left,,,,,,stimulusFile/physical.xlsx,,,,,,,,,,,,,,,,,,,,,,,,,,,,,,,
,,,,,,,,,,,,,,,702,2022-02-10_13h45.44.768,multiplicationStroop,2021.2.3,Win32,60.37918126,,,,,left,1,0.6727,0,58,58,12,1,3,1,3 | 1,2,1.9756,1.4111,congruent,left,,,,,,stimulusFile/physical.xlsx,,,,,,,,,,,,,,,,,,,,,,,,,,,,,,,
,,,,,,,,,,,,,,,702,2022-02-10_13h45.44.768,multiplicationStroop,2021.2.3,Win32,60.37918126,,,,,right,1,0.5526,0,59,59,37,1,4,2,4 | 2,2,1.4111,1.9756,incongruent,right,,,,,,stimulusFile/physical.xlsx,,,,,,,,,,,,,,,,,,,,,,,,,,,,,,,
,,,,,,,,,,,,,,,702,2022-02-10_13h45.44.768,multiplicationStroop,2021.2.3,Win32,60.37918126,,,,,left,0,0.6248,0,60,60,64,1,1,1,1 | 1,0,1.9756,1.4111,neutral,right,,,,,,stimulusFile/physical.xlsx,,,,,,,,,,,,,,,,,,,,,,,,,,,,,,,
,,,,,,,,,,,,,,,702,2022-02-10_13h45.44.768,multiplicationStroop,2021.2.3,Win32,60.37918126,,,,,right,1,0.435,0,61,61,3,1,8,9,8 | 9,1,1.4111,1.9756,congruent,right,,,,,,stimulusFile/physical.xlsx,,,,,,,,,,,,,,,,,,,,,,,,,,,,,,,
,,,,,,,,,,,,,,,702,2022-02-10_13h45.44.768,multiplicationStroop,2021.2.3,Win32,60.37918126,,,,,right,1,0.609,0,62,62,45,1,7,2,7 | 2,5,1.4111,1.9756,incongruent,right,,,,,,stimulusFile/physical.xlsx,,,,,,,,,,,,,,,,,,,,,,,,,,,,,,,
,,,,,,,,,,,,,,,702,2022-02-10_13h45.44.768,multiplicationStroop,2021.2.3,Win32,60.37918126,,,,,right,1,0.7914,0,63,63,9,1,2,4,2 | 4,2,1.4111,1.9756,congruent,right,,,,,,stimulusFile/physical.xlsx,,,,,,,,,,,,,,,,,,,,,,,,,,,,,,,
,,,,,,,,,,,,,,,702,2022-02-10_13h45.44.768,multiplicationStroop,2021.2.3,Win32,60.37918126,,,,,left,1,0.5239,0,64,64,48,1,1,1,1 | 1,0,1.9756,1.4111,neutral,left,,,,,,stimulusFile/physical.xlsx,,,,,,,,,,,,,,,,,,,,,,,,,,,,,,,
,,,,,,,,,,,,,,,702,2022-02-10_13h45.44.768,multiplicationStroop,2021.2.3,Win32,60.37918126,,,,,right,0,0.7867,0,65,65,71,1,9,9,9 | 9,0,1.4111,1.9756,neutral,left,,,,,,stimulusFile/physical.xlsx,,,,,,,,,,,,,,,,,,,,,,,,,,,,,,,
,,,,,,,,,,,,,,,702,2022-02-10_13h45.44.768,multiplicationStroop,2021.2.3,Win32,60.37918126,,,,,left,1,0.5701,0,66,66,33,1,2,4,2 | 4,2,1.9756,1.4111,incongruent,left,,,,,,stimulusFile/physical.xlsx,,,,,,,,,,,,,,,,,,,,,,,,,,,,,,,
,,,,,,,,,,,,,,,702,2022-02-10_13h45.44.768,multiplicationStroop,2021.2.3,Win32,60.37918126,,,,,left,1,0.5859,0,67,67,70,1,8,8,8 | 8,0,1.9756,1.4111,neutral,left,,,,,,stimulusFile/physical.xlsx,,,,,,,,,,,,,,,,,,,,,,,,,,,,,,,
,,,,,,,,,,,,,,,702,2022-02-10_13h45.44.768,multiplicationStroop,2021.2.3,Win32,60.37918126,,,,,left,1,0.5751,0,68,68,13,1,4,2,4 | 2,2,1.9756,1.4111,congruent,left,,,,,,stimulusFile/physical.xlsx,,,,,,,,,,,,,,,,,,,,,,,,,,,,,,,
,,,,,,,,,,,,,,,702,2022-02-10_13h45.44.768,multiplicationStroop,2021.2.3,Win32,60.37918126,,,,,left,1,0.8776,0,69,69,53,1,4,4,4 | 4,0,1.9756,1.4111,neutral,left,,,,,,stimulusFile/physical.xlsx,,,,,,,,,,,,,,,,,,,,,,,,,,,,,,,
,,,,,,,,,,,,,,,702,2022-02-10_13h45.44.768,multiplicationStroop,2021.2.3,Win32,60.37918126,,,,,right,1,0.4883,0,70,70,59,1,7,7,7 | 7,0,1.4111,1.9756,neutral,right,,,,,,stimulusFile/physical.xlsx,,,,,,,,,,,,,,,,,,,,,,,,,,,,,,,
,,,,,,,,,,,,,,,702,2022-02-10_13h45.44.768,multiplicationStroop,2021.2.3,Win32,60.37918126,,,,,right,1,0.523,0,71,71,18,1,3,8,3 | 8,5,1.4111,1.9756,congruent,right,,,,,,stimulusFile/physical.xlsx,,,,,,,,,,,,,,,,,,,,,,,,,,,,,,,
,,,,,,,,,,,,,,,702,2022-02-10_13h45.44.768,multiplicationStroop,2021.2.3,Win32,60.37918126,,,,,,,,,,,,,,,,,,,,,0,0,0,1,1,stimulusFile/physical.xlsx,PHYSICALLY larger (larger font size).,images/physicallyLarger.png,,,,,,,,,,,,,,,,,,,,,,,,,,,,,
,,,,,,,,,,,,,,,702,2022-02-10_13h45.44.768,multiplicationStroop,2021.2.3,Win32,60.37918126,space,109.6203,space,5.2604,left,1,0.9193,0,0,0,29,1,4,3,4 | 3,1,1.4111,1.9756,incongruent,left,,,,,,stimulusFile/magnitude.xlsx,,,,,,,,,,,,,,,,,,,,,,,,,,,,,,,
,,,,,,,,,,,,,,,702,2022-02-10_13h45.44.768,multiplicationStroop,2021.2.3,Win32,60.37918126,,,,,right,1,0.9836,0,1,1,11,1,7,9,7 | 9,2,1.4111,1.9756,congruent,right,,,,,,stimulusFile/magnitude.xlsx,,,,,,,,,,,,,,,,,,,,,,,,,,,,,,,
,,,,,,,,,,,,,,,702,2022-02-10_13h45.44.768,multiplicationStroop,2021.2.3,Win32,60.37918126,,,,,right,1,0.543,0,2,2,17,1,2,7,2 | 7,5,1.4111,1.9756,congruent,right,,,,,,stimulusFile/magnitude.xlsx,,,,,,,,,,,,,,,,,,,,,,,,,,,,,,,
,,,,,,,,,,,,,,,702,2022-02-10_13h45.44.768,multiplicationStroop,2021.2.3,Win32,60.37918126,,,,,left,0,0.5017,0,3,3,41,1,2,7,2 | 7,5,1.9756,1.4111,incongruent,right,,,,,,stimulusFile/magnitude.xlsx,,,,,,,,,,,,,,,,,,,,,,,,,,,,,,,
,,,,,,,,,,,,,,,702,2022-02-10_13h45.44.768,multiplicationStroop,2021.2.3,Win32,60.37918126,,,,,left,1,0.6211,0,4,4,69,1,7,2,7 | 2,5,1.6933,1.6933,neutral,left,,,,,,stimulusFile/magnitude.xlsx,,,,,,,,,,,,,,,,,,,,,,,,,,,,,,,
,,,,,,,,,,,,,,,702,2022-02-10_13h45.44.768,multiplicationStroop,2021.2.3,Win32,60.37918126,,,,,right,1,0.7283,0,5,5,43,1,4,9,4 | 9,5,1.9756,1.4111,incongruent,right,,,,,,stimulusFile/magnitude.xlsx,,,,,,,,,,,,,,,,,,,,,,,,,,,,,,,
,,,,,,,,,,,,,,,702,2022-02-10_13h45.44.768,multiplicationStroop,2021.2.3,Win32,60.37918126,,,,,left,1,0.7864,0,6,6,22,1,8,3,8 | 3,5,1.9756,1.4111,congruent,left,,,,,,stimulusFile/magnitude.xlsx,,,,,,,,,,,,,,,,,,,,,,,,,,,,,,,
,,,,,,,,,,,,,,,702,2022-02-10_13h45.44.768,multiplicationStroop,2021.2.3,Win32,60.37918126,,,,,left,1,0.6439,0,7,7,7,1,9,8,9 | 8,1,1.9756,1.4111,congruent,left,,,,,,stimulusFile/magnitude.xlsx,,,,,,,,,,,,,,,,,,,,,,,,,,,,,,,
,,,,,,,,,,,,,,,702,2022-02-10_13h45.44.768,multiplicationStroop,2021.2.3,Win32,60.37918126,,,,,right,1,0.6086,0,8,8,59,1,7,9,7 | 9,2,1.6933,1.6933,neutral,right,,,,,,stimulusFile/magnitude.xlsx,,,,,,,,,,,,,,,,,,,,,,,,,,,,,,,
,,,,,,,,,,,,,,,702,2022-02-10_13h45.44.768,multiplicationStroop,2021.2.3,Win32,60.37918126,,,,,left,1,0.7322,0,9,9,39,1,9,7,9 | 7,2,1.4111,1.9756,incongruent,left,,,,,,stimulusFile/magnitude.xlsx,,,,,,,,,,,,,,,,,,,,,,,,,,,,,,,
,,,,,,,,,,,,,,,702,2022-02-10_13h45.44.768,multiplicationStroop,2021.2.3,Win32,60.37918126,,,,,right,1,0.6791,0,10,10,1,1,3,4,3 | 4,1,1.4111,1.9756,congruent,right,,,,,,stimulusFile/magnitude.xlsx,,,,,,,,,,,,,,,,,,,,,,,,,,,,,,,
,,,,,,,,,,,,,,,702,2022-02-10_13h45.44.768,multiplicationStroop,2021.2.3,Win32,60.37918126,,,,,left,1,0.5277,0,11,11,46,1,8,3,8 | 3,5,1.4111,1.9756,incongruent,left,,,,,,stimulusFile/magnitude.xlsx,,,,,,,,,,,,,,,,,,,,,,,,,,,,,,,
,,,,,,,,,,,,,,,702,2022-02-10_13h45.44.768,multiplicationStroop,2021.2.3,Win32,60.37918126,,,,,right,1,0.7098,0,12,12,34,1,6,8,6 | 8,2,1.9756,1.4111,incongruent,right,,,,,,stimulusFile/magnitude.xlsx,,,,,,,,,,,,,,,,,,,,,,,,,,,,,,,
,,,,,,,,,,,,,,,702,2022-02-10_13h45.44.768,multiplicationStroop,2021.2.3,Win32,60.37918126,,,,,left,1,0.6901,0,13,13,14,1,8,6,8 | 6,2,1.9756,1.4111,congruent,left,,,,,,stimulusFile/magnitude.xlsx,,,,,,,,,,,,,,,,,,,,,,,,,,,,,,,
,,,,,,,,,,,,,,,702,2022-02-10_13h45.44.768,multiplicationStroop,2021.2.3,Win32,60.37918126,,,,,right,1,0.5355,0,14,14,65,1,2,7,2 | 7,5,1.6933,1.6933,neutral,right,,,,,,stimulusFile/magnitude.xlsx,,,,,,,,,,,,,,,,,,,,,,,,,,,,,,,
,,,,,,,,,,,,,,,702,2022-02-10_13h45.44.768,multiplicationStroop,2021.2.3,Win32,60.37918126,,,,,right,1,0.7014,0,15,15,49,1,3,4,3 | 4,1,1.6933,1.6933,neutral,right,,,,,,stimulusFile/magnitude.xlsx,,,,,,,,,,,,,,,,,,,,,,,,,,,,,,,
,,,,,,,,,,,,,,,702,2022-02-10_13h45.44.768,multiplicationStroop,2021.2.3,Win32,60.37918126,,,,,left,1,0.8017,0,16,16,28,1,2,1,2 | 1,1,1.4111,1.9756,incongruent,left,,,,,,stimulusFile/magnitude.xlsx,,,,,,,,,,,,,,,,,,,,,,,,,,,,,,,
,,,,,,,,,,,,,,,702,2022-02-10_13h45.44.768,multiplicationStroop,2021.2.3,Win32,60.37918126,,,,,left,1,0.7516,0,17,17,13,1,4,2,4 | 2,2,1.9756,1.4111,congruent,left,,,,,,stimulusFile/magnitude.xlsx,,,,,,,,,,,,,,,,,,,,,,,,,,,,,,,
,,,,,,,,,,,,,,,702,2022-02-10_13h45.44.768,multiplicationStroop,2021.2.3,Win32,60.37918126,,,,,right,1,0.4854,0,18,18,66,1,3,8,3 | 8,5,1.6933,1.6933,neutral,right,,,,,,stimulusFile/magnitude.xlsx,,,,,,,,,,,,,,,,,,,,,,,,,,,,,,,
,,,,,,,,,,,,,,,702,2022-02-10_13h45.44.768,multiplicationStroop,2021.2.3,Win32,60.37918126,,,,,left,1,0.5712,0,19,19,4,1,2,1,2 | 1,1,1.9756,1.4111,congruent,left,,,,,,stimulusFile/magnitude.xlsx,,,,,,,,,,,,,,,,,,,,,,,,,,,,,,,
,,,,,,,,,,,,,,,702,2022-02-10_13h45.44.768,multiplicationStroop,2021.2.3,Win32,60.37918126,,,,,right,1,0.5187,0,20,20,48,1,1,2,1 | 2,1,1.6933,1.6933,neutral,right,,,,,,stimulusFile/magnitude.xlsx,,,,,,,,,,,,,,,,,,,,,,,,,,,,,,,
,,,,,,,,,,,,,,,702,2022-02-10_13h45.44.768,multiplicationStroop,2021.2.3,Win32,60.37918126,,,,,left,1,0.559,0,21,21,23,1,9,4,9 | 4,5,1.9756,1.4111,congruent,left,,,,,,stimulusFile/magnitude.xlsx,,,,,,,,,,,,,,,,,,,,,,,,,,,,,,,
,,,,,,,,,,,,,,,702,2022-02-10_13h45.44.768,multiplicationStroop,2021.2.3,Win32,60.37918126,,,,,right,0,0.5696,0,22,22,31,1,9,8,9 | 8,1,1.4111,1.9756,incongruent,left,,,,,,stimulusFile/magnitude.xlsx,,,,,,,,,,,,,,,,,,,,,,,,,,,,,,,
,,,,,,,,,,,,,,,702,2022-02-10_13h45.44.768,multiplicationStroop,2021.2.3,Win32,60.37918126,,,,,right,1,0.817,0,23,23,10,1,6,8,6 | 8,2,1.4111,1.9756,congruent,right,,,,,,stimulusFile/magnitude.xlsx,,,,,,,,,,,,,,,,,,,,,,,,,,,,,,,
,,,,,,,,,,,,,,,702,2022-02-10_13h45.44.768,multiplicationStroop,2021.2.3,Win32,60.37918126,,,,,right,1,0.7406,0,24,24,42,1,3,8,3 | 8,5,1.9756,1.4111,incongruent,right,,,,,,stimulusFile/magnitude.xlsx,,,,,,,,,,,,,,,,,,,,,,,,,,,,,,,
,,,,,,,,,,,,,,,702,2022-02-10_13h45.44.768,multiplicationStroop,2021.2.3,Win32,60.37918126,,,,,left,1,0.7844,0,25,25,62,1,8,6,8 | 6,2,1.6933,1.6933,neutral,left,,,,,,stimulusFile/magnitude.xlsx,,,,,,,,,,,,,,,,,,,,,,,,,,,,,,,
,,,,,,,,,,,,,,,702,2022-02-10_13h45.44.768,multiplicationStroop,2021.2.3,Win32,60.37918126,,,,,right,1,0.94,0,26,26,64,1,1,6,1 | 6,5,1.6933,1.6933,neutral,right,,,,,,stimulusFile/magnitude.xlsx,,,,,,,,,,,,,,,,,,,,,,,,,,,,,,,
,,,,,,,,,,,,,,,702,2022-02-10_13h45.44.768,multiplicationStroop,2021.2.3,Win32,60.37918126,,,,,right,1,0.8457,0,27,27,24,1,1,2,1 | 2,1,1.9756,1.4111,incongruent,right,,,,,,stimulusFile/magnitude.xlsx,,,,,,,,,,,,,,,,,,,,,,,,,,,,,,,
,,,,,,,,,,,,,,,702,2022-02-10_13h45.44.768,multiplicationStroop,2021.2.3,Win32,60.37918126,,,,,right,1,0.6254,0,28,28,18,1,3,8,3 | 8,5,1.4111,1.9756,congruent,right,,,,,,stimulusFile/magnitude.xlsx,,,,,,,,,,,,,,,,,,,,,,,,,,,,,,,
,,,,,,,,,,,,,,,702,2022-02-10_13h45.44.768,multiplicationStroop,2021.2.3,Win32,60.37918126,,,,,right,1,0.8519,0,29,29,35,1,7,9,7 | 9,2,1.9756,1.4111,incongruent,right,,,,,,stimulusFile/magnitude.xlsx,,,,,,,,,,,,,,,,,,,,,,,,,,,,,,,
,,,,,,,,,,,,,,,702,2022-02-10_13h45.44.768,multiplicationStroop,2021.2.3,Win32,60.37918126,,,,,right,1,0.6433,0,30,30,9,1,2,4,2 | 4,2,1.4111,1.9756,congruent,right,,,,,,stimulusFile/magnitude.xlsx,,,,,,,,,,,,,,,,,,,,,,,,,,,,,,,
,,,,,,,,,,,,,,,702,2022-02-10_13h45.44.768,multiplicationStroop,2021.2.3,Win32,60.37918126,,,,,right,1,0.6057,0,31,31,56,1,1,3,1 | 3,2,1.6933,1.6933,neutral,right,,,,,,stimulusFile/magnitude.xlsx,,,,,,,,,,,,,,,,,,,,,,,,,,,,,,,
,,,,,,,,,,,,,,,702,2022-02-10_13h45.44.768,multiplicationStroop,2021.2.3,Win32,60.37918126,,,,,right,1,0.5026,0,32,32,8,1,1,3,1 | 3,2,1.4111,1.9756,congruent,right,,,,,,stimulusFile/magnitude.xlsx,,,,,,,,,,,,,,,,,,,,,,,,,,,,,,,
,,,,,,,,,,,,,,,702,2022-02-10_13h45.44.768,multiplicationStroop,2021.2.3,Win32,60.37918126,,,,,right,1,0.707,0,33,33,50,1,6,7,6 | 7,1,1.6933,1.6933,neutral,right,,,,,,stimulusFile/magnitude.xlsx,,,,,,,,,,,,,,,,,,,,,,,,,,,,,,,
,,,,,,,,,,,,,,,702,2022-02-10_13h45.44.768,multiplicationStroop,2021.2.3,Win32,60.37918126,,,,,left,1,0.7238,0,34,34,47,1,9,4,9 | 4,5,1.4111,1.9756,incongruent,left,,,,,,stimulusFile/magnitude.xlsx,,,,,,,,,,,,,,,,,,,,,,,,,,,,,,,
,,,,,,,,,,,,,,,702,2022-02-10_13h45.44.768,multiplicationStroop,2021.2.3,Win32,60.37918126,,,,,left,1,0.458,0,35,35,55,1,9,8,9 | 8,1,1.6933,1.6933,neutral,left,,,,,,stimulusFile/magnitude.xlsx,,,,,,,,,,,,,,,,,,,,,,,,,,,,,,,
,,,,,,,,,,,,,,,702,2022-02-10_13h45.44.768,multiplicationStroop,2021.2.3,Win32,60.37918126,,,,,left,1,0.5709,0,36,36,52,1,2,1,2 | 1,1,1.6933,1.6933,neutral,left,,,,,,stimulusFile/magnitude.xlsx,,,,,,,,,,,,,,,,,,,,,,,,,,,,,,,
,,,,,,,,,,,,,,,702,2022-02-10_13h45.44.768,multiplicationStroop,2021.2.3,Win32,60.37918126,,,,,left,1,0.5957,0,37,37,45,1,7,2,7 | 2,5,1.4111,1.9756,incongruent,left,,,,,,stimulusFile/magnitude.xlsx,,,,,,,,,,,,,,,,,,,,,,,,,,,,,,,
,,,,,,,,,,,,,,,702,2022-02-10_13h45.44.768,multiplicationStroop,2021.2.3,Win32,60.37918126,,,,,left,1,0.4951,0,38,38,60,1,3,1,3 | 1,2,1.6933,1.6933,neutral,left,,,,,,stimulusFile/magnitude.xlsx,,,,,,,,,,,,,,,,,,,,,,,,,,,,,,,
,,,,,,,,,,,,,,,702,2022-02-10_13h45.44.768,multiplicationStroop,2021.2.3,Win32,60.37918126,,,,,left,1,0.6247,0,39,39,15,1,9,7,9 | 7,2,1.9756,1.4111,congruent,left,,,,,,stimulusFile/magnitude.xlsx,,,,,,,,,,,,,,,,,,,,,,,,,,,,,,,
,,,,,,,,,,,,,,,702,2022-02-10_13h45.44.768,multiplicationStroop,2021.2.3,Win32,60.37918126,,,,,left,1,0.487,0,40,40,70,1,8,3,8 | 3,5,1.6933,1.6933,neutral,left,,,,,,stimulusFile/magnitude.xlsx,,,,,,,,,,,,,,,,,,,,,,,,,,,,,,,
,,,,,,,,,,,,,,,702,2022-02-10_13h45.44.768,multiplicationStroop,2021.2.3,Win32,60.37918126,,,,,left,1,0.5267,0,41,41,71,1,9,4,9 | 4,5,1.6933,1.6933,neutral,left,,,,,,stimulusFile/magnitude.xlsx,,,,,,,,,,,,,,,,,,,,,,,,,,,,,,,
,,,,,,,,,,,,,,,702,2022-02-10_13h45.44.768,multiplicationStroop,2021.2.3,Win32,60.37918126,,,,,right,1,0.8352,0,42,42,57,1,2,4,2 | 4,2,1.6933,1.6933,neutral,right,,,,,,stimulusFile/magnitude.xlsx,,,,,,,,,,,,,,,,,,,,,,,,,,,,,,,
,,,,,,,,,,,,,,,702,2022-02-10_13h45.44.768,multiplicationStroop,2021.2.3,Win32,60.37918126,,,,,left,1,0.5683,0,43,43,21,1,7,2,7 | 2,5,1.9756,1.4111,congruent,left,,,,,,stimulusFile/magnitude.xlsx,,,,,,,,,,,,,,,,,,,,,,,,,,,,,,,
,,,,,,,,,,,,,,,702,2022-02-10_13h45.44.768,multiplicationStroop,2021.2.3,Win32,60.37918126,,,,,right,1,0.6192,0,44,44,3,1,8,9,8 | 9,1,1.4111,1.9756,congruent,right,,,,,,stimulusFile/magnitude.xlsx,,,,,,,,,,,,,,,,,,,,,,,,,,,,,,,
,,,,,,,,,,,,,,,702,2022-02-10_13h45.44.768,multiplicationStroop,2021.2.3,Win32,60.37918126,,,,,left,1,0.5756,0,45,45,44,1,6,1,6 | 1,5,1.4111,1.9756,incongruent,left,,,,,,stimulusFile/magnitude.xlsx,,,,,,,,,,,,,,,,,,,,,,,,,,,,,,,
,,,,,,,,,,,,,,,702,2022-02-10_13h45.44.768,multiplicationStroop,2021.2.3,Win32,60.37918126,,,,,right,1,0.6352,0,46,46,0,1,1,2,1 | 2,1,1.4111,1.9756,congruent,right,,,,,,stimulusFile/magnitude.xlsx,,,,,,,,,,,,,,,,,,,,,,,,,,,,,,,
,,,,,,,,,,,,,,,702,2022-02-10_13h45.44.768,multiplicationStroop,2021.2.3,Win32,60.37918126,,,,,left,1,0.6192,0,47,47,38,1,8,6,8 | 6,2,1.4111,1.9756,incongruent,left,,,,,,stimulusFile/magnitude.xlsx,,,,,,,,,,,,,,,,,,,,,,,,,,,,,,,
,,,,,,,,,,,,,,,702,2022-02-10_13h45.44.768,multiplicationStroop,2021.2.3,Win32,60.37918126,,,,,left,1,0.4886,0,48,48,36,1,3,1,3 | 1,2,1.4111,1.9756,incongruent,left,,,,,,stimulusFile/magnitude.xlsx,,,,,,,,,,,,,,,,,,,,,,,,,,,,,,,
,,,,,,,,,,,,,,,702,2022-02-10_13h45.44.768,multiplicationStroop,2021.2.3,Win32,60.37918126,,,,,right,1,0.5589,0,49,49,16,1,1,6,1 | 6,5,1.4111,1.9756,congruent,right,,,,,,stimulusFile/magnitude.xlsx,,,,,,,,,,,,,,,,,,,,,,,,,,,,,,,
,,,,,,,,,,,,,,,702,2022-02-10_13h45.44.768,multiplicationStroop,2021.2.3,Win32,60.37918126,,,,,right,1,0.8698,0,50,50,67,1,4,9,4 | 9,5,1.6933,1.6933,neutral,right,,,,,,stimulusFile/magnitude.xlsx,,,,,,,,,,,,,,,,,,,,,,,,,,,,,,,
,,,,,,,,,,,,,,,702,2022-02-10_13h45.44.768,multiplicationStroop,2021.2.3,Win32,60.37918126,,,,,right,1,1.1511,0,51,51,32,1,1,3,1 | 3,2,1.9756,1.4111,incongruent,right,,,,,,stimulusFile/magnitude.xlsx,,,,,,,,,,,,,,,,,,,,,,,,,,,,,,,
,,,,,,,,,,,,,,,702,2022-02-10_13h45.44.768,multiplicationStroop,2021.2.3,Win32,60.37918126,,,,,left,1,0.9094,0,52,52,30,1,7,6,7 | 6,1,1.4111,1.9756,incongruent,left,,,,,,stimulusFile/magnitude.xlsx,,,,,,,,,,,,,,,,,,,,,,,,,,,,,,,
,,,,,,,,,,,,,,,702,2022-02-10_13h45.44.768,multiplicationStroop,2021.2.3,Win32,60.37918126,,,,,right,1,0.9588,0,53,53,33,1,2,4,2 | 4,2,1.9756,1.4111,incongruent,right,,,,,,stimulusFile/magnitude.xlsx,,,,,,,,,,,,,,,,,,,,,,,,,,,,,,,
,,,,,,,,,,,,,,,702,2022-02-10_13h45.44.768,multiplicationStroop,2021.2.3,Win32,60.37918126,,,,,right,1,0.8047,0,54,54,19,1,4,9,4 | 9,5,1.4111,1.9756,congruent,right,,,,,,stimulusFile/magnitude.xlsx,,,,,,,,,,,,,,,,,,,,,,,,,,,,,,,
,,,,,,,,,,,,,,,702,2022-02-10_13h45.44.768,multiplicationStroop,2021.2.3,Win32,60.37918126,,,,,right,1,1.3213,0,55,55,27,1,8,9,8 | 9,1,1.9756,1.4111,incongruent,right,,,,,,stimulusFile/magnitude.xlsx,,,,,,,,,,,,,,,,,,,,,,,,,,,,,,,
,,,,,,,,,,,,,,,702,2022-02-10_13h45.44.768,multiplicationStroop,2021.2.3,Win32,60.37918126,,,,,right,1,0.4729,0,56,56,51,1,8,9,8 | 9,1,1.6933,1.6933,neutral,right,,,,,,stimulusFile/magnitude.xlsx,,,,,,,,,,,,,,,,,,,,,,,,,,,,,,,
,,,,,,,,,,,,,,,702,2022-02-10_13h45.44.768,multiplicationStroop,2021.2.3,Win32,60.37918126,,,,,right,1,0.6965,0,57,57,25,1,3,4,3 | 4,1,1.9756,1.4111,incongruent,right,,,,,,stimulusFile/magnitude.xlsx,,,,,,,,,,,,,,,,,,,,,,,,,,,,,,,
,,,,,,,,,,,,,,,702,2022-02-10_13h45.44.768,multiplicationStroop,2021.2.3,Win32,60.37918126,,,,,left,1,0.5529,0,58,58,20,1,6,1,6 | 1,5,1.9756,1.4111,congruent,left,,,,,,stimulusFile/magnitude.xlsx,,,,,,,,,,,,,,,,,,,,,,,,,,,,,,,
,,,,,,,,,,,,,,,702,2022-02-10_13h45.44.768,multiplicationStroop,2021.2.3,Win32,60.37918126,,,,,left,1,1.092,0,59,59,53,1,4,3,4 | 3,1,1.6933,1.6933,neutral,left,,,,,,stimulusFile/magnitude.xlsx,,,,,,,,,,,,,,,,,,,,,,,,,,,,,,,
,,,,,,,,,,,,,,,702,2022-02-10_13h45.44.768,multiplicationStroop,2021.2.3,Win32,60.37918126,,,,,right,1,0.6005,0,60,60,2,1,6,7,6 | 7,1,1.4111,1.9756,congruent,right,,,,,,stimulusFile/magnitude.xlsx,,,,,,,,,,,,,,,,,,,,,,,,,,,,,,,
,,,,,,,,,,,,,,,702,2022-02-10_13h45.44.768,multiplicationStroop,2021.2.3,Win32,60.37918126,,,,,left,1,0.8006,0,61,61,61,1,4,2,4 | 2,2,1.6933,1.6933,neutral,left,,,,,,stimulusFile/magnitude.xlsx,,,,,,,,,,,,,,,,,,,,,,,,,,,,,,,
,,,,,,,,,,,,,,,702,2022-02-10_13h45.44.768,multiplicationStroop,2021.2.3,Win32,60.37918126,,,,,left,1,0.5893,0,62,62,63,1,9,7,9 | 7,2,1.6933,1.6933,neutral,left,,,,,,stimulusFile/magnitude.xlsx,,,,,,,,,,,,,,,,,,,,,,,,,,,,,,,
,,,,,,,,,,,,,,,702,2022-02-10_13h45.44.768,multiplicationStroop,2021.2.3,Win32,60.37918126,,,,,left,1,0.5746,0,63,63,6,1,7,6,7 | 6,1,1.9756,1.4111,congruent,left,,,,,,stimulusFile/magnitude.xlsx,,,,,,,,,,,,,,,,,,,,,,,,,,,,,,,
,,,,,,,,,,,,,,,702,2022-02-10_13h45.44.768,multiplicationStroop,2021.2.3,Win32,60.37918126,,,,,right,1,0.7412,0,64,64,26,1,6,7,6 | 7,1,1.9756,1.4111,incongruent,right,,,,,,stimulusFile/magnitude.xlsx,,,,,,,,,,,,,,,,,,,,,,,,,,,,,,,
,,,,,,,,,,,,,,,702,2022-02-10_13h45.44.768,multiplicationStroop,2021.2.3,Win32,60.37918126,,,,,left,1,0.6523,0,65,65,5,1,4,3,4 | 3,1,1.9756,1.4111,congruent,left,,,,,,stimulusFile/magnitude.xlsx,,,,,,,,,,,,,,,,,,,,,,,,,,,,,,,
,,,,,,,,,,,,,,,702,2022-02-10_13h45.44.768,multiplicationStroop,2021.2.3,Win32,60.37918126,,,,,left,1,0.9061,0,66,66,54,1,7,6,7 | 6,1,1.6933,1.6933,neutral,left,,,,,,stimulusFile/magnitude.xlsx,,,,,,,,,,,,,,,,,,,,,,,,,,,,,,,
,,,,,,,,,,,,,,,702,2022-02-10_13h45.44.768,multiplicationStroop,2021.2.3,Win32,60.37918126,,,,,left,1,0.4944,0,67,67,68,1,6,1,6 | 1,5,1.6933,1.6933,neutral,left,,,,,,stimulusFile/magnitude.xlsx,,,,,,,,,,,,,,,,,,,,,,,,,,,,,,,
,,,,,,,,,,,,,,,702,2022-02-10_13h45.44.768,multiplicationStroop,2021.2.3,Win32,60.37918126,,,,,right,1,0.5601,0,68,68,40,1,1,6,1 | 6,5,1.9756,1.4111,incongruent,right,,,,,,stimulusFile/magnitude.xlsx,,,,,,,,,,,,,,,,,,,,,,,,,,,,,,,
,,,,,,,,,,,,,,,702,2022-02-10_13h45.44.768,multiplicationStroop,2021.2.3,Win32,60.37918126,,,,,right,1,0.7539,0,69,69,58,1,6,8,6 | 8,2,1.6933,1.6933,neutral,right,,,,,,stimulusFile/magnitude.xlsx,,,,,,,,,,,,,,,,,,,,,,,,,,,,,,,
,,,,,,,,,,,,,,,702,2022-02-10_13h45.44.768,multiplicationStroop,2021.2.3,Win32,60.37918126,,,,,left,1,0.8797,0,70,70,37,1,4,2,4 | 2,2,1.4111,1.9756,incongruent,left,,,,,,stimulusFile/magnitude.xlsx,,,,,,,,,,,,,,,,,,,,,,,,,,,,,,,
,,,,,,,,,,,,,,,702,2022-02-10_13h45.44.768,multiplicationStroop,2021.2.3,Win32,60.37918126,,,,,left,1,0.5022,0,71,71,12,1,3,1,3 | 1,2,1.9756,1.4111,congruent,left,,,,,,stimulusFile/magnitude.xlsx,,,,,,,,,,,,,,,,,,,,,,,,,,,,,,,
,,,,,,,,,,,,,,,702,2022-02-10_13h45.44.768,multiplicationStroop,2021.2.3,Win32,60.37918126,,,,,,,,,,,,,,,,,,,,,0,1,1,0,1,stimulusFile/magnitude.xlsx,NUMERICALLY larger (larger coefficient).,images/numericallyLarger.png,,,,,,,,,,,,,,,,,,,,,,,,,,,,,
,,,,,,,,,,,,,,,702,2022-02-10_13h45.44.768,multiplicationStroop,2021.2.3,Win32,60.37918126,,,,,,,,,,,,,,,,,,,,,,,,,,,,,space,14.2815,space,1.6477,18,4.4453,1,0,0,0,22,1,9,×,2,9 × 2,congruent,largerFirst,2,1,18,,,,,,,,
,,,,,,,,,,,,,,,702,2022-02-10_13h45.44.768,multiplicationStroop,2021.2.3,Win32,60.37918126,,,,,,,,,,,,,,,,,,,,,,,,,,,,,,,,,42,5.314,1,0,1,1,3,1,6,×,7,6 × 7,congruent,smallerFirst,1,2,42,,,,,,,,
,,,,,,,,,,,,,,,702,2022-02-10_13h45.44.768,multiplicationStroop,2021.2.3,Win32,60.37918126,,,,,,,,,,,,,,,,,,,,,,,,,,,,,,,,,24,2.8505,1,0,2,2,25,1,6,×,4,6 × 4,congruent,largerFirst,2,1,24,,,,,,,,
,,,,,,,,,,,,,,,702,2022-02-10_13h45.44.768,multiplicationStroop,2021.2.3,Win32,60.37918126,,,,,,,,,,,,,,,,,,,,,,,,,,,,,,,,,10,3.0002,1,0,3,3,24,1,5,×,2,5 × 2,congruent,largerFirst,2,1,10,,,,,,,,
,,,,,,,,,,,,,,,702,2022-02-10_13h45.44.768,multiplicationStroop,2021.2.3,Win32,60.37918126,,,,,,,,,,,,,,,,,,,,,,,,,,,,,,,,,16,1.9813,1,0,4,4,5,1,2,×,8,2 × 8,congruent,smallerFirst,1,2,16,,,,,,,,
,,,,,,,,,,,,,,,702,2022-02-10_13h45.44.768,multiplicationStroop,2021.2.3,Win32,60.37918126,,,,,,,,,,,,,,,,,,,,,,,,,,,,,,,,,36,3.3011,1,0,5,5,0,1,4,×,9,4 × 9,congruent,smallerFirst,1,2,36,,,,,,,,
,,,,,,,,,,,,,,,702,2022-02-10_13h45.44.768,multiplicationStroop,2021.2.3,Win32,60.37918126,,,,,,,,,,,,,,,,,,,,,,,,,,,,,,,,,45,2.5799,1,0,6,6,23,1,9,×,5,9 × 5,congruent,largerFirst,2,1,45,,,,,,,,
,,,,,,,,,,,,,,,702,2022-02-10_13h45.44.768,multiplicationStroop,2021.2.3,Win32,60.37918126,,,,,,,,,,,,,,,,,,,,,,,,,,,,,,,,,28,3.5823,1,0,7,7,27,1,7,×,4,7 × 4,congruent,largerFirst,2,1,28,,,,,,,,
,,,,,,,,,,,,,,,702,2022-02-10_13h45.44.768,multiplicationStroop,2021.2.3,Win32,60.37918126,,,,,,,,,,,,,,,,,,,,,,,,,,,,,,,,,24,2.6174,1,0,8,8,10,1,3,×,8,3 × 8,congruent,smallerFirst,1,2,24,,,,,,,,
,,,,,,,,,,,,,,,702,2022-02-10_13h45.44.768,multiplicationStroop,2021.2.3,Win32,60.37918126,,,,,,,,,,,,,,,,,,,,,,,,,,,,,,,,,64,3.2652,1,0,9,9,34,1,8,×,8,8 × 8,neutral,tie,2,1,64,,,,,,,,
,,,,,,,,,,,,,,,702,2022-02-10_13h45.44.768,multiplicationStroop,2021.2.3,Win32,60.37918126,,,,,,,,,,,,,,,,,,,,,,,,,,,,,,,,,21,1.7138,1,0,10,10,16,1,7,×,3,7 × 3,congruent,largerFirst,2,1,21,,,,,,,,
,,,,,,,,,,,,,,,702,2022-02-10_13h45.44.768,multiplicationStroop,2021.2.3,Win32,60.37918126,,,,,,,,,,,,,,,,,,,,,,,,,,,,,,,,,4,1.7701,1,0,11,11,28,1,2,×,2,2 × 2,neutral,tie,2,1,4,,,,,,,,
,,,,,,,,,,,,,,,702,2022-02-10_13h45.44.768,multiplicationStroop,2021.2.3,Win32,60.37918126,,,,,,,,,,,,,,,,,,,,,,,,,,,,,,,,,16,1.8952,1,0,12,12,30,1,4,×,4,4 × 4,neutral,tie,2,1,16,,,,,,,,
,,,,,,,,,,,,,,,702,2022-02-10_13h45.44.768,multiplicationStroop,2021.2.3,Win32,60.37918126,,,,,,,,,,,,,,,,,,,,,,,,,,,,,,,,,18,2.3657,1,0,13,13,11,1,3,×,6,3 × 6,congruent,smallerFirst,1,2,18,,,,,,,,
,,,,,,,,,,,,,,,702,2022-02-10_13h45.44.768,multiplicationStroop,2021.2.3,Win32,60.37918126,,,,,,,,,,,,,,,,,,,,,,,,,,,,,,,,,20,1.9031,1,0,14,14,7,1,4,×,5,4 × 5,congruent,smallerFirst,1,2,20,,,,,,,,
,,,,,,,,,,,,,,,702,2022-02-10_13h45.44.768,multiplicationStroop,2021.2.3,Win32,60.37918126,,,,,,,,,,,,,,,,,,,,,,,,,,,,,,,,,54,2.0658,1,0,15,15,12,1,6,×,9,6 × 9,congruent,smallerFirst,1,2,54,,,,,,,,
,,,,,,,,,,,,,,,702,2022-02-10_13h45.44.768,multiplicationStroop,2021.2.3,Win32,60.37918126,,,,,,,,,,,,,,,,,,,,,,,,,,,,,,,,,63,2.6117,1,0,16,16,21,1,9,×,7,9 × 7,congruent,largerFirst,2,1,63,,,,,,,,
,,,,,,,,,,,,,,,702,2022-02-10_13h45.44.768,multiplicationStroop,2021.2.3,Win32,60.37918126,,,,,,,,,,,,,,,,,,,,,,,,,,,,,,,,,49,3.1988,1,0,17,17,33,1,7,×,7,7 × 7,neutral,tie,2,1,49,,,,,,,,
,,,,,,,,,,,,,,,702,2022-02-10_13h45.44.768,multiplicationStroop,2021.2.3,Win32,60.37918126,,,,,,,,,,,,,,,,,,,,,,,,,,,,,,,,,40,2.5673,1,0,18,18,6,1,5,×,8,5 × 8,congruent,smallerFirst,1,2,40,,,,,,,,
,,,,,,,,,,,,,,,702,2022-02-10_13h45.44.768,multiplicationStroop,2021.2.3,Win32,60.37918126,,,,,,,,,,,,,,,,,,,,,,,,,,,,,,,,,36,2.2153,1,0,19,19,32,1,6,×,6,6 × 6,neutral,tie,2,1,36,,,,,,,,
,,,,,,,,,,,,,,,702,2022-02-10_13h45.44.768,multiplicationStroop,2021.2.3,Win32,60.37918126,,,,,,,,,,,,,,,,,,,,,,,,,,,,,,,,,12,1.4992,1,0,20,20,2,1,3,×,4,3 × 4,congruent,smallerFirst,1,2,12,,,,,,,,
,,,,,,,,,,,,,,,702,2022-02-10_13h45.44.768,multiplicationStroop,2021.2.3,Win32,60.37918126,,,,,,,,,,,,,,,,,,,,,,,,,,,,,,,,,8,2.1162,1,0,21,21,9,1,2,×,4,2 × 4,congruent,smallerFirst,1,2,8,,,,,,,,
,,,,,,,,,,,,,,,702,2022-02-10_13h45.44.768,multiplicationStroop,2021.2.3,Win32,60.37918126,,,,,,,,,,,,,,,,,,,,,,,,,,,,,,,,,15,1.8323,1,0,22,22,4,1,3,×,5,3 × 5,congruent,smallerFirst,1,2,15,,,,,,,,
,,,,,,,,,,,,,,,702,2022-02-10_13h45.44.768,multiplicationStroop,2021.2.3,Win32,60.37918126,,,,,,,,,,,,,,,,,,,,,,,,,,,,,,,,,56,2.266,1,0,23,23,8,1,7,×,8,7 × 8,congruent,smallerFirst,1,2,56,,,,,,,,
,,,,,,,,,,,,,,,702,2022-02-10_13h45.44.768,multiplicationStroop,2021.2.3,Win32,60.37918126,,,,,,,,,,,,,,,,,,,,,,,,,,,,,,,,,81,1.8326,1,0,24,24,35,1,9,×,9,9 × 9,neutral,tie,2,1,81,,,,,,,,
,,,,,,,,,,,,,,,702,2022-02-10_13h45.44.768,multiplicationStroop,2021.2.3,Win32,60.37918126,,,,,,,,,,,,,,,,,,,,,,,,,,,,,,,,,27,2.1325,1,0,25,25,26,1,9,×,3,9 × 3,congruent,largerFirst,2,1,27,,,,,,,,
,,,,,,,,,,,,,,,702,2022-02-10_13h45.44.768,multiplicationStroop,2021.2.3,Win32,60.37918126,,,,,,,,,,,,,,,,,,,,,,,,,,,,,,,,,48,2.9488,1,0,26,26,18,1,8,×,6,8 × 6,congruent,largerFirst,2,1,48,,,,,,,,
,,,,,,,,,,,,,,,702,2022-02-10_13h45.44.768,multiplicationStroop,2021.2.3,Win32,60.37918126,,,,,,,,,,,,,,,,,,,,,,,,,,,,,,,,,12,1.8657,1,0,27,27,19,1,6,×,2,6 × 2,congruent,largerFirst,2,1,12,,,,,,,,
,,,,,,,,,,,,,,,702,2022-02-10_13h45.44.768,multiplicationStroop,2021.2.3,Win32,60.37918126,,,,,,,,,,,,,,,,,,,,,,,,,,,,,,,,,32,2.4995,1,0,28,28,20,1,8,×,4,8 × 4,congruent,largerFirst,2,1,32,,,,,,,,
,,,,,,,,,,,,,,,702,2022-02-10_13h45.44.768,multiplicationStroop,2021.2.3,Win32,60.37918126,,,,,,,,,,,,,,,,,,,,,,,,,,,,,,,,,6,1.9325,1,0,29,29,13,1,2,×,3,2 × 3,congruent,smallerFirst,1,2,6,,,,,,,,
,,,,,,,,,,,,,,,702,2022-02-10_13h45.44.768,multiplicationStroop,2021.2.3,Win32,60.37918126,,,,,,,,,,,,,,,,,,,,,,,,,,,,,,,,,25,2.2656,1,0,30,30,31,1,5,×,5,5 × 5,neutral,tie,2,1,25,,,,,,,,
,,,,,,,,,,,,,,,702,2022-02-10_13h45.44.768,multiplicationStroop,2021.2.3,Win32,60.37918126,,,,,,,,,,,,,,,,,,,,,,,,,,,,,,,,,30,2.6176,1,0,31,31,15,1,6,×,5,6 × 5,congruent,largerFirst,2,1,30,,,,,,,,
,,,,,,,,,,,,,,,702,2022-02-10_13h45.44.768,multiplicationStroop,2021.2.3,Win32,60.37918126,,,,,,,,,,,,,,,,,,,,,,,,,,,,,,,,,35,3.6825,1,0,32,32,1,1,5,×,7,5 × 7,congruent,smallerFirst,1,2,35,,,,,,,,
,,,,,,,,,,,,,,,702,2022-02-10_13h45.44.768,multiplicationStroop,2021.2.3,Win32,60.37918126,,,,,,,,,,,,,,,,,,,,,,,,,,,,,,,,,72,2.5835,1,0,33,33,17,1,9,×,8,9 × 8,congruent,largerFirst,2,1,72,,,,,,,,
,,,,,,,,,,,,,,,702,2022-02-10_13h45.44.768,multiplicationStroop,2021.2.3,Win32,60.37918126,,,,,,,,,,,,,,,,,,,,,,,,,,,,,,,,,14,1.8993,1,0,34,34,14,1,7,×,2,7 × 2,congruent,largerFirst,2,1,14,,,,,,,,
,,,,,,,,,,,,,,,702,2022-02-10_13h45.44.768,multiplicationStroop,2021.2.3,Win32,60.37918126,,,,,,,,,,,,,,,,,,,,,,,,,,,,,,,,,9,2.1492,1,0,35,35,29,1,3,×,3,3 × 3,neutral,tie,2,1,9,,,,,,,,
,,,,,,,,,,,,,,,702,2022-02-10_13h45.44.768,multiplicationStroop,2021.2.3,Win32,60.37918126,,,,,,,,,,,,,,,,,,,,,,,,,,,,,,,,,,,,,,,,,,,,,,,,,,0,0,0,2,1,stimulusFile/mult_blk3_congruent.xlsx,,
,,,,,,,,,,,,,,,702,2022-02-10_13h45.44.768,multiplicationStroop,2021.2.3,Win32,60.37918126,,,,,,,,,,,,,,,,,,,,,,,,,,,,,,,space,7.9523,81,2.1666,1,0,0,0,35,1,9,×,9,9 × 9,neutral,tie,1.5,1.5,81,,,,,,,,
,,,,,,,,,,,,,,,702,2022-02-10_13h45.44.768,multiplicationStroop,2021.2.3,Win32,60.37918126,,,,,,,,,,,,,,,,,,,,,,,,,,,,,,,,,49,2.6155,1,0,1,1,33,1,7,×,7,7 × 7,neutral,tie,1.5,1.5,49,,,,,,,,
,,,,,,,,,,,,,,,702,2022-02-10_13h45.44.768,multiplicationStroop,2021.2.3,Win32,60.37918126,,,,,,,,,,,,,,,,,,,,,,,,,,,,,,,,,32,1.8154,1,0,2,2,23,1,8,×,4,8 × 4,neutral,largerFirst,1.5,1.5,32,,,,,,,,
,,,,,,,,,,,,,,,702,2022-02-10_13h45.44.768,multiplicationStroop,2021.2.3,Win32,60.37918126,,,,,,,,,,,,,,,,,,,,,,,,,,,,,,,,,12,1.3824,1,0,3,3,25,1,6,×,2,6 × 2,neutral,largerFirst,1.5,1.5,12,,,,,,,,
,,,,,,,,,,,,,,,702,2022-02-10_13h45.44.768,multiplicationStroop,2021.2.3,Win32,60.37918126,,,,,,,,,,,,,,,,,,,,,,,,,,,,,,,,,10,1.6321,1,0,4,4,4,1,2,×,5,2 × 5,neutral,smallerFirst,1.5,1.5,10,,,,,,,,
,,,,,,,,,,,,,,,702,2022-02-10_13h45.44.768,multiplicationStroop,2021.2.3,Win32,60.37918126,,,,,,,,,,,,,,,,,,,,,,,,,,,,,,,,,18,2.116,1,0,5,5,0,1,3,×,6,3 × 6,neutral,smallerFirst,1.5,1.5,18,,,,,,,,
,,,,,,,,,,,,,,,702,2022-02-10_13h45.44.768,multiplicationStroop,2021.2.3,Win32,60.37918126,,,,,,,,,,,,,,,,,,,,,,,,,,,,,,,,,36,16.301,1,0,6,6,27,1,9,×,4,9 × 4,neutral,largerFirst,1.5,1.5,36,,,,,,,,
,,,,,,,,,,,,,,,702,2022-02-10_13h45.44.768,multiplicationStroop,2021.2.3,Win32,60.37918126,,,,,,,,,,,,,,,,,,,,,,,,,,,,,,,,,72,1.9949,1,0,7,7,11,1,8,×,9,8 × 9,neutral,smallerFirst,1.5,1.5,72,,,,,,,,
,,,,,,,,,,,,,,,702,2022-02-10_13h45.44.768,multiplicationStroop,2021.2.3,Win32,60.37918126,,,,,,,,,,,,,,,,,,,,,,,,,,,,,,,,,16,1.9495,1,0,8,8,30,1,4,×,4,4 × 4,neutral,tie,1.5,1.5,16,,,,,,,,
,,,,,,,,,,,,,,,702,2022-02-10_13h45.44.768,multiplicationStroop,2021.2.3,Win32,60.37918126,,,,,,,,,,,,,,,,,,,,,,,,,,,,,,,,,18,1.9155,1,0,9,9,18,1,9,×,2,9 × 2,neutral,largerFirst,1.5,1.5,18,,,,,,,,
,,,,,,,,,,,,,,,702,2022-02-10_13h45.44.768,multiplicationStroop,2021.2.3,Win32,60.37918126,,,,,,,,,,,,,,,,,,,,,,,,,,,,,,,,,8,2.132,1,0,10,10,3,1,2,×,4,2 × 4,neutral,smallerFirst,1.5,1.5,8,,,,,,,,
,,,,,,,,,,,,,,,702,2022-02-10_13h45.44.768,multiplicationStroop,2021.2.3,Win32,60.37918126,,,,,,,,,,,,,,,,,,,,,,,,,,,,,,,,,14,1.516,1,0,11,11,16,1,7,×,2,7 × 2,neutral,largerFirst,1.5,1.5,14,,,,,,,,
,,,,,,,,,,,,,,,702,2022-02-10_13h45.44.768,multiplicationStroop,2021.2.3,Win32,60.37918126,,,,,,,,,,,,,,,,,,,,,,,,,,,,,,,,,40,1.9657,1,0,12,12,24,1,8,×,5,8 × 5,neutral,largerFirst,1.5,1.5,40,,,,,,,,
,,,,,,,,,,,,,,,702,2022-02-10_13h45.44.768,multiplicationStroop,2021.2.3,Win32,60.37918126,,,,,,,,,,,,,,,,,,,,,,,,,,,,,,,,,45,1.8989,1,0,13,13,10,1,5,×,9,5 × 9,neutral,smallerFirst,1.5,1.5,45,,,,,,,,
,,,,,,,,,,,,,,,702,2022-02-10_13h45.44.768,multiplicationStroop,2021.2.3,Win32,60.37918126,,,,,,,,,,,,,,,,,,,,,,,,,,,,,,,,,15,1.6823,1,0,14,14,5,1,3,×,5,3 × 5,neutral,smallerFirst,1.5,1.5,15,,,,,,,,
,,,,,,,,,,,,,,,702,2022-02-10_13h45.44.768,multiplicationStroop,2021.2.3,Win32,60.37918126,,,,,,,,,,,,,,,,,,,,,,,,,,,,,,,,,42,5.132,1,0,15,15,6,1,6,×,7,6 × 7,neutral,smallerFirst,1.5,1.5,42,,,,,,,,
,,,,,,,,,,,,,,,702,2022-02-10_13h45.44.768,multiplicationStroop,2021.2.3,Win32,60.37918126,,,,,,,,,,,,,,,,,,,,,,,,,,,,,,,,,6,2.9837,1,0,16,16,26,1,3,×,2,3 × 2,neutral,largerFirst,1.5,1.5,6,,,,,,,,
,,,,,,,,,,,,,,,702,2022-02-10_13h45.44.768,multiplicationStroop,2021.2.3,Win32,60.37918126,,,,,,,,,,,,,,,,,,,,,,,,,,,,,,,,,20,1.915,1,0,17,17,20,1,5,×,4,5 × 4,neutral,largerFirst,1.5,1.5,20,,,,,,,,
,,,,,,,,,,,,,,,702,2022-02-10_13h45.44.768,multiplicationStroop,2021.2.3,Win32,60.37918126,,,,,,,,,,,,,,,,,,,,,,,,,,,,,,,,,24,1.8488,1,0,18,18,22,1,8,×,3,8 × 3,neutral,largerFirst,1.5,1.5,24,,,,,,,,
,,,,,,,,,,,,,,,702,2022-02-10_13h45.44.768,multiplicationStroop,2021.2.3,Win32,60.37918126,,,,,,,,,,,,,,,,,,,,,,,,,,,,,,,,,36,1.953,1,0,19,19,32,1,6,×,6,6 × 6,neutral,tie,1.5,1.5,36,,,,,,,,
,,,,,,,,,,,,,,,702,2022-02-10_13h45.44.768,multiplicationStroop,2021.2.3,Win32,60.37918126,,,,,,,,,,,,,,,,,,,,,,,,,,,,,,,,,12,1.4157,1,0,20,20,21,1,4,×,3,4 × 3,neutral,largerFirst,1.5,1.5,12,,,,,,,,
,,,,,,,,,,,,,,,702,2022-02-10_13h45.44.768,multiplicationStroop,2021.2.3,Win32,60.37918126,,,,,,,,,,,,,,,,,,,,,,,,,,,,,,,,,24,1.5992,1,0,21,21,2,1,4,×,6,4 × 6,neutral,smallerFirst,1.5,1.5,24,,,,,,,,
,,,,,,,,,,,,,,,702,2022-02-10_13h45.44.768,multiplicationStroop,2021.2.3,Win32,60.37918126,,,,,,,,,,,,,,,,,,,,,,,,,,,,,,,,,48,2.2662,1,0,22,22,15,1,8,×,6,8 × 6,neutral,largerFirst,1.5,1.5,48,,,,,,,,
,,,,,,,,,,,,,,,702,2022-02-10_13h45.44.768,multiplicationStroop,2021.2.3,Win32,60.37918126,,,,,,,,,,,,,,,,,,,,,,,,,,,,,,,,,16,2.0291,1,0,23,23,13,1,2,×,8,2 × 8,neutral,smallerFirst,1.5,1.5,16,,,,,,,,
,,,,,,,,,,,,,,,702,2022-02-10_13h45.44.768,multiplicationStroop,2021.2.3,Win32,60.37918126,,,,,,,,,,,,,,,,,,,,,,,,,,,,,,,,,27,2.07,1,0,24,24,14,1,9,×,3,9 × 3,neutral,largerFirst,1.5,1.5,27,,,,,,,,
,,,,,,,,,,,,,,,702,2022-02-10_13h45.44.768,multiplicationStroop,2021.2.3,Win32,60.37918126,,,,,,,,,,,,,,,,,,,,,,,,,,,,,,,,,9,1.612,1,0,25,25,29,1,3,×,3,3 × 3,neutral,tie,1.5,1.5,9,,,,,,,,
,,,,,,,,,,,,,,,702,2022-02-10_13h45.44.768,multiplicationStroop,2021.2.3,Win32,60.37918126,,,,,,,,,,,,,,,,,,,,,,,,,,,,,,,,,64,2.5318,1,0,26,26,34,1,8,×,8,8 × 8,neutral,tie,1.5,1.5,64,,,,,,,,
,,,,,,,,,,,,,,,702,2022-02-10_13h45.44.768,multiplicationStroop,2021.2.3,Win32,60.37918126,,,,,,,,,,,,,,,,,,,,,,,,,,,,,,,,,35,2.2007,1,0,27,27,1,1,5,×,7,5 × 7,neutral,smallerFirst,1.5,1.5,35,,,,,,,,
,,,,,,,,,,,,,,,702,2022-02-10_13h45.44.768,multiplicationStroop,2021.2.3,Win32,60.37918126,,,,,,,,,,,,,,,,,,,,,,,,,,,,,,,,,28,2.8325,1,0,28,28,17,1,7,×,4,7 × 4,neutral,largerFirst,1.5,1.5,28,,,,,,,,
,,,,,,,,,,,,,,,702,2022-02-10_13h45.44.768,multiplicationStroop,2021.2.3,Win32,60.37918126,,,,,,,,,,,,,,,,,,,,,,,,,,,,,,,,,54,2.1486,1,0,29,29,7,1,6,×,9,6 × 9,neutral,smallerFirst,1.5,1.5,54,,,,,,,,
,,,,,,,,,,,,,,,702,2022-02-10_13h45.44.768,multiplicationStroop,2021.2.3,Win32,60.37918126,,,,,,,,,,,,,,,,,,,,,,,,,,,,,,,,,56,2.0658,1,0,30,30,9,1,7,×,8,7 × 8,neutral,smallerFirst,1.5,1.5,56,,,,,,,,
,,,,,,,,,,,,,,,702,2022-02-10_13h45.44.768,multiplicationStroop,2021.2.3,Win32,60.37918126,,,,,,,,,,,,,,,,,,,,,,,,,,,,,,,,,21,1.5153,1,0,31,31,8,1,3,×,7,3 × 7,neutral,smallerFirst,1.5,1.5,21,,,,,,,,
,,,,,,,,,,,,,,,702,2022-02-10_13h45.44.768,multiplicationStroop,2021.2.3,Win32,60.37918126,,,,,,,,,,,,,,,,,,,,,,,,,,,,,,,,,30,3.6324,1,0,32,32,19,1,6,×,5,6 × 5,neutral,largerFirst,1.5,1.5,30,,,,,,,,
,,,,,,,,,,,,,,,702,2022-02-10_13h45.44.768,multiplicationStroop,2021.2.3,Win32,60.37918126,,,,,,,,,,,,,,,,,,,,,,,,,,,,,,,,,56,3.514,0,0,33,33,12,1,7,×,9,7 × 9,neutral,smallerFirst,1.5,1.5,63,,,,,,,,
,,,,,,,,,,,,,,,702,2022-02-10_13h45.44.768,multiplicationStroop,2021.2.3,Win32,60.37918126,,,,,,,,,,,,,,,,,,,,,,,,,,,,,,,,,4,1.3498,1,0,34,34,28,1,2,×,2,2 × 2,neutral,tie,1.5,1.5,4,,,,,,,,
,,,,,,,,,,,,,,,702,2022-02-10_13h45.44.768,multiplicationStroop,2021.2.3,Win32,60.37918126,,,,,,,,,,,,,,,,,,,,,,,,,,,,,,,,,25,2.1487,1,0,35,35,31,1,5,×,5,5 × 5,neutral,tie,1.5,1.5,25,,,,,,,,
,,,,,,,,,,,,,,,702,2022-02-10_13h45.44.768,multiplicationStroop,2021.2.3,Win32,60.37918126,,,,,,,,,,,,,,,,,,,,,,,,,,,,,,,,,,,,,,,,,,,,,,,,,,0,1,1,1,1,stimulusFile/mult_blk2.xlsx,,
,,,,,,,,,,,,,,,702,2022-02-10_13h45.44.768,multiplicationStroop,2021.2.3,Win32,60.37918126,,,,,,,,,,,,,,,,,,,,,,,,,,,,,,,space,1.4724,24,1.61,1,0,0,0,16,1,6,×,4,6 × 4,neutral,largerFirst,1.5,1.5,24,,,,,,,,
,,,,,,,,,,,,,,,702,2022-02-10_13h45.44.768,multiplicationStroop,2021.2.3,Win32,60.37918126,,,,,,,,,,,,,,,,,,,,,,,,,,,,,,,,,40,2.0489,1,0,1,1,10,1,5,×,8,5 × 8,neutral,smallerFirst,1.5,1.5,40,,,,,,,,
,,,,,,,,,,,,,,,702,2022-02-10_13h45.44.768,multiplicationStroop,2021.2.3,Win32,60.37918126,,,,,,,,,,,,,,,,,,,,,,,,,,,,,,,,,24,1.666,1,0,2,2,8,1,3,×,8,3 × 8,neutral,smallerFirst,1.5,1.5,24,,,,,,,,
,,,,,,,,,,,,,,,702,2022-02-10_13h45.44.768,multiplicationStroop,2021.2.3,Win32,60.37918126,,,,,,,,,,,,,,,,,,,,,,,,,,,,,,,,,48,2.1874,1,0,3,3,1,1,6,×,8,6 × 8,neutral,smallerFirst,1.5,1.5,48,,,,,,,,
,,,,,,,,,,,,,,,702,2022-02-10_13h45.44.768,multiplicationStroop,2021.2.3,Win32,60.37918126,,,,,,,,,,,,,,,,,,,,,,,,,,,,,,,,,35,2.2981,1,0,4,4,15,1,7,×,5,7 × 5,neutral,largerFirst,1.5,1.5,35,,,,,,,,
,,,,,,,,,,,,,,,702,2022-02-10_13h45.44.768,multiplicationStroop,2021.2.3,Win32,60.37918126,,,,,,,,,,,,,,,,,,,,,,,,,,,,,,,,,56,1.6663,1,0,5,5,23,1,8,×,7,8 × 7,neutral,largerFirst,1.5,1.5,56,,,,,,,,
,,,,,,,,,,,,,,,702,2022-02-10_13h45.44.768,multiplicationStroop,2021.2.3,Win32,60.37918126,,,,,,,,,,,,,,,,,,,,,,,,,,,,,,,,,45,1.9328,1,0,6,6,24,1,9,×,5,9 × 5,neutral,largerFirst,1.5,1.5,45,,,,,,,,
,,,,,,,,,,,,,,,702,2022-02-10_13h45.44.768,multiplicationStroop,2021.2.3,Win32,60.37918126,,,,,,,,,,,,,,,,,,,,,,,,,,,,,,,,,28,2.7319,1,0,7,7,3,1,4,×,7,4 × 7,neutral,smallerFirst,1.5,1.5,28,,,,,,,,
,,,,,,,,,,,,,,,702,2022-02-10_13h45.44.768,multiplicationStroop,2021.2.3,Win32,60.37918126,,,,,,,,,,,,,,,,,,,,,,,,,,,,,,,,,8,2.4991,1,0,8,8,17,1,4,×,2,4 × 2,neutral,largerFirst,1.5,1.5,8,,,,,,,,
,,,,,,,,,,,,,,,702,2022-02-10_13h45.44.768,multiplicationStroop,2021.2.3,Win32,60.37918126,,,,,,,,,,,,,,,,,,,,,,,,,,,,,,,,,9,1.7656,1,0,9,9,29,1,3,×,3,3 × 3,neutral,tie,1.5,1.5,9,,,,,,,,
,,,,,,,,,,,,,,,702,2022-02-10_13h45.44.768,multiplicationStroop,2021.2.3,Win32,60.37918126,,,,,,,,,,,,,,,,,,,,,,,,,,,,,,,,,10,2.4328,1,0,10,10,18,1,5,×,2,5 × 2,neutral,largerFirst,1.5,1.5,10,,,,,,,,
,,,,,,,,,,,,,,,702,2022-02-10_13h45.44.768,multiplicationStroop,2021.2.3,Win32,60.37918126,,,,,,,,,,,,,,,,,,,,,,,,,,,,,,,,,14,1.8495,1,0,11,11,2,1,2,×,7,2 × 7,neutral,smallerFirst,1.5,1.5,14,,,,,,,,
,,,,,,,,,,,,,,,702,2022-02-10_13h45.44.768,multiplicationStroop,2021.2.3,Win32,60.37918126,,,,,,,,,,,,,,,,,,,,,,,,,,,,,,,,,27,4.3815,1,0,12,12,0,1,3,×,9,3 × 9,neutral,smallerFirst,1.5,1.5,27,,,,,,,,
,,,,,,,,,,,,,,,702,2022-02-10_13h45.44.768,multiplicationStroop,2021.2.3,Win32,60.37918126,,,,,,,,,,,,,,,,,,,,,,,,,,,,,,,,,16,2.0463,1,0,13,13,30,1,4,×,4,4 × 4,neutral,tie,1.5,1.5,16,,,,,,,,
,,,,,,,,,,,,,,,702,2022-02-10_13h45.44.768,multiplicationStroop,2021.2.3,Win32,60.37918126,,,,,,,,,,,,,,,,,,,,,,,,,,,,,,,,,64,2.0824,1,0,14,14,34,1,8,×,8,8 × 8,neutral,tie,1.5,1.5,64,,,,,,,,
,,,,,,,,,,,,,,,702,2022-02-10_13h45.44.768,multiplicationStroop,2021.2.3,Win32,60.37918126,,,,,,,,,,,,,,,,,,,,,,,,,,,,,,,,,16,1.832,1,0,15,15,27,1,8,×,2,8 × 2,neutral,largerFirst,1.5,1.5,16,,,,,,,,
,,,,,,,,,,,,,,,702,2022-02-10_13h45.44.768,multiplicationStroop,2021.2.3,Win32,60.37918126,,,,,,,,,,,,,,,,,,,,,,,,,,,,,,,,,24,1.7995,0,0,16,16,9,1,4,×,8,4 × 8,neutral,smallerFirst,1.5,1.5,32,,,,,,,,
,,,,,,,,,,,,,,,702,2022-02-10_13h45.44.768,multiplicationStroop,2021.2.3,Win32,60.37918126,,,,,,,,,,,,,,,,,,,,,,,,,,,,,,,,,20,2.0659,1,0,17,17,6,1,4,×,5,4 × 5,neutral,smallerFirst,1.5,1.5,20,,,,,,,,
,,,,,,,,,,,,,,,702,2022-02-10_13h45.44.768,multiplicationStroop,2021.2.3,Win32,60.37918126,,,,,,,,,,,,,,,,,,,,,,,,,,,,,,,,,15,1.6817,1,0,18,18,19,1,5,×,3,5 × 3,neutral,largerFirst,1.5,1.5,15,,,,,,,,
,,,,,,,,,,,,,,,702,2022-02-10_13h45.44.768,multiplicationStroop,2021.2.3,Win32,60.37918126,,,,,,,,,,,,,,,,,,,,,,,,,,,,,,,,,72,2.5986,1,0,19,19,25,1,9,×,8,9 × 8,neutral,largerFirst,1.5,1.5,72,,,,,,,,
,,,,,,,,,,,,,,,702,2022-02-10_13h45.44.768,multiplicationStroop,2021.2.3,Win32,60.37918126,,,,,,,,,,,,,,,,,,,,,,,,,,,,,,,,,81,2.1011,1,0,20,20,35,1,9,×,9,9 × 9,neutral,tie,1.5,1.5,81,,,,,,,,
,,,,,,,,,,,,,,,702,2022-02-10_13h45.44.768,multiplicationStroop,2021.2.3,Win32,60.37918126,,,,,,,,,,,,,,,,,,,,,,,,,,,,,,,,,56,4.2319,0,0,21,21,26,1,9,×,7,9 × 7,neutral,largerFirst,1.5,1.5,63,,,,,,,,
,,,,,,,,,,,,,,,702,2022-02-10_13h45.44.768,multiplicationStroop,2021.2.3,Win32,60.37918126,,,,,,,,,,,,,,,,,,,,,,,,,,,,,,,,,4,1.4676,1,0,22,22,28,1,2,×,2,2 × 2,neutral,tie,1.5,1.5,4,,,,,,,,
,,,,,,,,,,,,,,,702,2022-02-10_13h45.44.768,multiplicationStroop,2021.2.3,Win32,60.37918126,,,,,,,,,,,,,,,,,,,,,,,,,,,,,,,,,18,1.8823,1,0,23,23,4,1,2,×,9,2 × 9,neutral,smallerFirst,1.5,1.5,18,,,,,,,,
,,,,,,,,,,,,,,,702,2022-02-10_13h45.44.768,multiplicationStroop,2021.2.3,Win32,60.37918126,,,,,,,,,,,,,,,,,,,,,,,,,,,,,,,,,12,1.2994,1,0,24,24,7,1,3,×,4,3 × 4,neutral,smallerFirst,1.5,1.5,12,,,,,,,,
,,,,,,,,,,,,,,,702,2022-02-10_13h45.44.768,multiplicationStroop,2021.2.3,Win32,60.37918126,,,,,,,,,,,,,,,,,,,,,,,,,,,,,,,,,25,1.7825,1,0,25,25,31,1,5,×,5,5 × 5,neutral,tie,1.5,1.5,25,,,,,,,,
,,,,,,,,,,,,,,,702,2022-02-10_13h45.44.768,multiplicationStroop,2021.2.3,Win32,60.37918126,,,,,,,,,,,,,,,,,,,,,,,,,,,,,,,,,42,6.5319,1,0,26,26,20,1,7,×,6,7 × 6,neutral,largerFirst,1.5,1.5,42,,,,,,,,
,,,,,,,,,,,,,,,702,2022-02-10_13h45.44.768,multiplicationStroop,2021.2.3,Win32,60.37918126,,,,,,,,,,,,,,,,,,,,,,,,,,,,,,,,,6,1.9332,1,0,27,27,12,1,2,×,3,2 × 3,neutral,smallerFirst,1.5,1.5,6,,,,,,,,
,,,,,,,,,,,,,,,702,2022-02-10_13h45.44.768,multiplicationStroop,2021.2.3,Win32,60.37918126,,,,,,,,,,,,,,,,,,,,,,,,,,,,,,,,,18,2.7366,1,0,28,28,14,1,6,×,3,6 × 3,neutral,largerFirst,1.5,1.5,18,,,,,,,,
,,,,,,,,,,,,,,,702,2022-02-10_13h45.44.768,multiplicationStroop,2021.2.3,Win32,60.37918126,,,,,,,,,,,,,,,,,,,,,,,,,,,,,,,,,36,1.9299,1,0,29,29,32,1,6,×,6,6 × 6,neutral,tie,1.5,1.5,36,,,,,,,,
,,,,,,,,,,,,,,,702,2022-02-10_13h45.44.768,multiplicationStroop,2021.2.3,Win32,60.37918126,,,,,,,,,,,,,,,,,,,,,,,,,,,,,,,,,49,2.816,1,0,30,30,33,1,7,×,7,7 × 7,neutral,tie,1.5,1.5,49,,,,,,,,
,,,,,,,,,,,,,,,702,2022-02-10_13h45.44.768,multiplicationStroop,2021.2.3,Win32,60.37918126,,,,,,,,,,,,,,,,,,,,,,,,,,,,,,,,,21,1.5043,1,0,31,31,22,1,7,×,3,7 × 3,neutral,largerFirst,1.5,1.5,21,,,,,,,,
,,,,,,,,,,,,,,,702,2022-02-10_13h45.44.768,multiplicationStroop,2021.2.3,Win32,60.37918126,,,,,,,,,,,,,,,,,,,,,,,,,,,,,,,,,30,1.9121,1,0,32,32,5,1,5,×,6,5 × 6,neutral,smallerFirst,1.5,1.5,30,,,,,,,,
,,,,,,,,,,,,,,,702,2022-02-10_13h45.44.768,multiplicationStroop,2021.2.3,Win32,60.37918126,,,,,,,,,,,,,,,,,,,,,,,,,,,,,,,,,12,1.2652,1,0,33,33,11,1,2,×,6,2 × 6,neutral,smallerFirst,1.5,1.5,12,,,,,,,,
,,,,,,,,,,,,,,,702,2022-02-10_13h45.44.768,multiplicationStroop,2021.2.3,Win32,60.37918126,,,,,,,,,,,,,,,,,,,,,,,,,,,,,,,,,36,2.049,1,0,34,34,13,1,4,×,9,4 × 9,neutral,smallerFirst,1.5,1.5,36,,,,,,,,
,,,,,,,,,,,,,,,702,2022-02-10_13h45.44.768,multiplicationStroop,2021.2.3,Win32,60.37918126,,,,,,,,,,,,,,,,,,,,,,,,,,,,,,,,,54,1.9824,1,0,35,35,21,1,9,×,6,9 × 6,neutral,largerFirst,1.5,1.5,54,,,,,,,,
,,,,,,,,,,,,,,,702,2022-02-10_13h45.44.768,multiplicationStroop,2021.2.3,Win32,60.37918126,,,,,,,,,,,,,,,,,,,,,,,,,,,,,,,,,,,,,,,,,,,,,,,,,,0,2,2,0,1,stimulusFile/mult_blk1.xlsx,,
,,,,,,,,,,,,,,,702,2022-02-10_13h45.44.768,multiplicationStroop,2021.2.3,Win32,60.37918126,,,,,,,,,,,,,,,,,,,,,,,,,,,,,,,space,1.2685,42,4.2355,1,0,0,0,17,1,7,×,6,7 × 6,incongruent,largerFirst,1,2,42,,,,,,,,
,,,,,,,,,,,,,,,702,2022-02-10_13h45.44.768,multiplicationStroop,2021.2.3,Win32,60.37918126,,,,,,,,,,,,,,,,,,,,,,,,,,,,,,,,,14,1.5679,1,0,1,1,4,1,2,×,7,2 × 7,incongruent,smallerFirst,2,1,14,,,,,,,,
,,,,,,,,,,,,,,,702,2022-02-10_13h45.44.768,multiplicationStroop,2021.2.3,Win32,60.37918126,,,,,,,,,,,,,,,,,,,,,,,,,,,,,,,,,36,2.4824,1,0,2,2,15,1,9,×,4,9 × 4,incongruent,largerFirst,1,2,36,,,,,,,,
,,,,,,,,,,,,,,,702,2022-02-10_13h45.44.768,multiplicationStroop,2021.2.3,Win32,60.37918126,,,,,,,,,,,,,,,,,,,,,,,,,,,,,,,,,12,1.316,1,0,3,3,5,1,3,×,4,3 × 4,incongruent,smallerFirst,2,1,12,,,,,,,,
,,,,,,,,,,,,,,,702,2022-02-10_13h45.44.768,multiplicationStroop,2021.2.3,Win32,60.37918126,,,,,,,,,,,,,,,,,,,,,,,,,,,,,,,,,32,4.099,1,0,4,4,7,1,4,×,8,4 × 8,incongruent,smallerFirst,2,1,32,,,,,,,,
,,,,,,,,,,,,,,,702,2022-02-10_13h45.44.768,multiplicationStroop,2021.2.3,Win32,60.37918126,,,,,,,,,,,,,,,,,,,,,,,,,,,,,,,,,15,1.7009,1,0,5,5,10,1,3,×,5,3 × 5,incongruent,smallerFirst,2,1,15,,,,,,,,
,,,,,,,,,,,,,,,702,2022-02-10_13h45.44.768,multiplicationStroop,2021.2.3,Win32,60.37918126,,,,,,,,,,,,,,,,,,,,,,,,,,,,,,,,,48,2.1656,1,0,6,6,1,1,6,×,8,6 × 8,incongruent,smallerFirst,2,1,48,,,,,,,,
,,,,,,,,,,,,,,,702,2022-02-10_13h45.44.768,multiplicationStroop,2021.2.3,Win32,60.37918126,,,,,,,,,,,,,,,,,,,,,,,,,,,,,,,,,21,1.5494,0,0,7,7,16,1,7,×,4,7 × 4,incongruent,largerFirst,1,2,28,,,,,,,,
,,,,,,,,,,,,,,,702,2022-02-10_13h45.44.768,multiplicationStroop,2021.2.3,Win32,60.37918126,,,,,,,,,,,,,,,,,,,,,,,,,,,,,,,,,4,2.8823,0,0,8,8,33,1,7,×,7,7 × 7,incongruent,tie,1,2,49,,,,,,,,
,,,,,,,,,,,,,,,702,2022-02-10_13h45.44.768,multiplicationStroop,2021.2.3,Win32,60.37918126,,,,,,,,,,,,,,,,,,,,,,,,,,,,,,,,,9,2.5006,1,0,9,9,29,1,3,×,3,3 × 3,incongruent,tie,1,2,9,,,,,,,,
,,,,,,,,,,,,,,,702,2022-02-10_13h45.44.768,multiplicationStroop,2021.2.3,Win32,60.37918126,,,,,,,,,,,,,,,,,,,,,,,,,,,,,,,,,16,1.9324,1,0,10,10,30,1,4,×,4,4 × 4,incongruent,tie,1,2,16,,,,,,,,
,,,,,,,,,,,,,,,702,2022-02-10_13h45.44.768,multiplicationStroop,2021.2.3,Win32,60.37918126,,,,,,,,,,,,,,,,,,,,,,,,,,,,,,,,,10,1.7869,1,0,11,11,21,1,5,×,2,5 × 2,incongruent,largerFirst,1,2,10,,,,,,,,
,,,,,,,,,,,,,,,702,2022-02-10_13h45.44.768,multiplicationStroop,2021.2.3,Win32,60.37918126,,,,,,,,,,,,,,,,,,,,,,,,,,,,,,,,,54,2.1613,1,0,12,12,6,1,6,×,9,6 × 9,incongruent,smallerFirst,2,1,54,,,,,,,,
,,,,,,,,,,,,,,,702,2022-02-10_13h45.44.768,multiplicationStroop,2021.2.3,Win32,60.37918126,,,,,,,,,,,,,,,,,,,,,,,,,,,,,,,,,45,1.8661,1,0,13,13,22,1,9,×,5,9 × 5,incongruent,largerFirst,1,2,45,,,,,,,,
,,,,,,,,,,,,,,,702,2022-02-10_13h45.44.768,multiplicationStroop,2021.2.3,Win32,60.37918126,,,,,,,,,,,,,,,,,,,,,,,,,,,,,,,,,35,2.1325,1,0,14,14,12,1,5,×,7,5 × 7,incongruent,smallerFirst,2,1,35,,,,,,,,
,,,,,,,,,,,,,,,702,2022-02-10_13h45.44.768,multiplicationStroop,2021.2.3,Win32,60.37918126,,,,,,,,,,,,,,,,,,,,,,,,,,,,,,,,,72,3.1489,1,0,15,15,0,1,8,×,9,8 × 9,incongruent,smallerFirst,2,1,72,,,,,,,,
,,,,,,,,,,,,,,,702,2022-02-10_13h45.44.768,multiplicationStroop,2021.2.3,Win32,60.37918126,,,,,,,,,,,,,,,,,,,,,,,,,,,,,,,,,6,2.0839,1,0,16,16,11,1,2,×,3,2 × 3,incongruent,smallerFirst,2,1,6,,,,,,,,
,,,,,,,,,,,,,,,702,2022-02-10_13h45.44.768,multiplicationStroop,2021.2.3,Win32,60.37918126,,,,,,,,,,,,,,,,,,,,,,,,,,,,,,,,,45,2.6156,0,0,17,17,13,1,5,×,8,5 × 8,incongruent,smallerFirst,2,1,40,,,,,,,,
,,,,,,,,,,,,,,,702,2022-02-10_13h45.44.768,multiplicationStroop,2021.2.3,Win32,60.37918126,,,,,,,,,,,,,,,,,,,,,,,,,,,,,,,,,25,2.1819,1,0,18,18,31,1,5,×,5,5 × 5,incongruent,tie,1,2,25,,,,,,,,
,,,,,,,,,,,,,,,702,2022-02-10_13h45.44.768,multiplicationStroop,2021.2.3,Win32,60.37918126,,,,,,,,,,,,,,,,,,,,,,,,,,,,,,,,,24,4.2332,1,0,19,19,20,1,6,×,4,6 × 4,incongruent,largerFirst,1,2,24,,,,,,,,
,,,,,,,,,,,,,,,702,2022-02-10_13h45.44.768,multiplicationStroop,2021.2.3,Win32,60.37918126,,,,,,,,,,,,,,,,,,,,,,,,,,,,,,,,,18,2.2994,1,0,20,20,8,1,3,×,6,3 × 6,incongruent,smallerFirst,2,1,18,,,,,,,,
,,,,,,,,,,,,,,,702,2022-02-10_13h45.44.768,multiplicationStroop,2021.2.3,Win32,60.37918126,,,,,,,,,,,,,,,,,,,,,,,,,,,,,,,,,36,1.8656,1,0,21,21,32,1,6,×,6,6 × 6,incongruent,tie,1,2,36,,,,,,,,
,,,,,,,,,,,,,,,702,2022-02-10_13h45.44.768,multiplicationStroop,2021.2.3,Win32,60.37918126,,,,,,,,,,,,,,,,,,,,,,,,,,,,,,,,,81,2.2539,1,0,22,22,35,1,9,×,9,9 × 9,incongruent,tie,1,2,81,,,,,,,,
,,,,,,,,,,,,,,,702,2022-02-10_13h45.44.768,multiplicationStroop,2021.2.3,Win32,60.37918126,,,,,,,,,,,,,,,,,,,,,,,,,,,,,,,,,8,2.8777,1,0,23,23,24,1,4,×,2,4 × 2,incongruent,largerFirst,1,2,8,,,,,,,,
,,,,,,,,,,,,,,,702,2022-02-10_13h45.44.768,multiplicationStroop,2021.2.3,Win32,60.37918126,,,,,,,,,,,,,,,,,,,,,,,,,,,,,,,,,27,2.917,1,0,24,24,18,1,9,×,3,9 × 3,incongruent,largerFirst,1,2,27,,,,,,,,
,,,,,,,,,,,,,,,702,2022-02-10_13h45.44.768,multiplicationStroop,2021.2.3,Win32,60.37918126,,,,,,,,,,,,,,,,,,,,,,,,,,,,,,,,,18,1.9658,1,0,25,25,2,1,2,×,9,2 × 9,incongruent,smallerFirst,2,1,18,,,,,,,,
,,,,,,,,,,,,,,,702,2022-02-10_13h45.44.768,multiplicationStroop,2021.2.3,Win32,60.37918126,,,,,,,,,,,,,,,,,,,,,,,,,,,,,,,,,24,1.916,1,0,26,26,9,1,3,×,8,3 × 8,incongruent,smallerFirst,2,1,24,,,,,,,,
,,,,,,,,,,,,,,,702,2022-02-10_13h45.44.768,multiplicationStroop,2021.2.3,Win32,60.37918126,,,,,,,,,,,,,,,,,,,,,,,,,,,,,,,,,12,1.3991,1,0,27,27,19,1,6,×,2,6 × 2,incongruent,largerFirst,1,2,12,,,,,,,,
,,,,,,,,,,,,,,,702,2022-02-10_13h45.44.768,multiplicationStroop,2021.2.3,Win32,60.37918126,,,,,,,,,,,,,,,,,,,,,,,,,,,,,,,,,56,2.3161,1,0,28,28,14,1,8,×,7,8 × 7,incongruent,largerFirst,1,2,56,,,,,,,,
,,,,,,,,,,,,,,,702,2022-02-10_13h45.44.768,multiplicationStroop,2021.2.3,Win32,60.37918126,,,,,,,,,,,,,,,,,,,,,,,,,,,,,,,,,63,2.7982,1,0,29,29,3,1,7,×,9,7 × 9,incongruent,smallerFirst,2,1,63,,,,,,,,
,,,,,,,,,,,,,,,702,2022-02-10_13h45.44.768,multiplicationStroop,2021.2.3,Win32,60.37918126,,,,,,,,,,,,,,,,,,,,,,,,,,,,,,,,,20,1.8344,1,0,30,30,27,1,5,×,4,5 × 4,incongruent,largerFirst,1,2,20,,,,,,,,
,,,,,,,,,,,,,,,702,2022-02-10_13h45.44.768,multiplicationStroop,2021.2.3,Win32,60.37918126,,,,,,,,,,,,,,,,,,,,,,,,,,,,,,,,,4,1.4492,1,0,31,31,28,1,2,×,2,2 × 2,incongruent,tie,1,2,4,,,,,,,,
,,,,,,,,,,,,,,,702,2022-02-10_13h45.44.768,multiplicationStroop,2021.2.3,Win32,60.37918126,,,,,,,,,,,,,,,,,,,,,,,,,,,,,,,,,16,1.7489,1,0,32,32,23,1,8,×,2,8 × 2,incongruent,largerFirst,1,2,16,,,,,,,,
,,,,,,,,,,,,,,,702,2022-02-10_13h45.44.768,multiplicationStroop,2021.2.3,Win32,60.37918126,,,,,,,,,,,,,,,,,,,,,,,,,,,,,,,,,30,2.0532,1,0,33,33,25,1,6,×,5,6 × 5,incongruent,largerFirst,1,2,30,,,,,,,,
,,,,,,,,,,,,,,,702,2022-02-10_13h45.44.768,multiplicationStroop,2021.2.3,Win32,60.37918126,,,,,,,,,,,,,,,,,,,,,,,,,,,,,,,,,64,2.1284,1,0,34,34,34,1,8,×,8,8 × 8,incongruent,tie,1,2,64,,,,,,,,
,,,,,,,,,,,,,,,702,2022-02-10_13h45.44.768,multiplicationStroop,2021.2.3,Win32,60.37918126,,,,,,,,,,,,,,,,,,,,,,,,,,,,,,,,,21,1.482,1,0,35,35,26,1,7,×,3,7 × 3,incongruent,largerFirst,1,2,21,,,,,,,,
,,,,,,,,,,,,,,,702,2022-02-10_13h45.44.768,multiplicationStroop,2021.2.3,Win32,60.37918126,,,,,,,,,,,,,,,,,,,,,,,,,,,,,,,,,,,,,,,,,,,,,,,,,,0,3,3,5,1,stimulusFile/mult_blk6_INcongruent.xlsx,,
,,,,,,,,,,,,,,,702,2022-02-10_13h45.44.768,multiplicationStroop,2021.2.3,Win32,60.37918126,,,,,,,,,,,,,,,,,,,,,,,,,,,,,,,space,1.17,35,1.8118,1,0,0,0,15,1,7,×,5,7 × 5,congruent,largerFirst,2,1,35,,,,,,,,
,,,,,,,,,,,,,,,702,2022-02-10_13h45.44.768,multiplicationStroop,2021.2.3,Win32,60.37918126,,,,,,,,,,,,,,,,,,,,,,,,,,,,,,,,,64,2.1493,1,0,1,1,34,1,8,×,8,8 × 8,neutral,tie,1,2,64,,,,,,,,
,,,,,,,,,,,,,,,702,2022-02-10_13h45.44.768,multiplicationStroop,2021.2.3,Win32,60.37918126,,,,,,,,,,,,,,,,,,,,,,,,,,,,,,,,,4,1.5488,1,0,2,2,28,1,2,×,2,2 × 2,neutral,tie,1,2,4,,,,,,,,
,,,,,,,,,,,,,,,702,2022-02-10_13h45.44.768,multiplicationStroop,2021.2.3,Win32,60.37918126,,,,,,,,,,,,,,,,,,,,,,,,,,,,,,,,,15,1.7154,1,0,3,3,18,1,5,×,3,5 × 3,congruent,largerFirst,2,1,15,,,,,,,,
,,,,,,,,,,,,,,,702,2022-02-10_13h45.44.768,multiplicationStroop,2021.2.3,Win32,60.37918126,,,,,,,,,,,,,,,,,,,,,,,,,,,,,,,,,24,1.6658,1,0,4,4,11,1,4,×,6,4 × 6,congruent,smallerFirst,1,2,24,,,,,,,,
,,,,,,,,,,,,,,,702,2022-02-10_13h45.44.768,multiplicationStroop,2021.2.3,Win32,60.37918126,,,,,,,,,,,,,,,,,,,,,,,,,,,,,,,,,16,1.7981,1,0,5,5,19,1,8,×,2,8 × 2,congruent,largerFirst,2,1,16,,,,,,,,
,,,,,,,,,,,,,,,702,2022-02-10_13h45.44.768,multiplicationStroop,2021.2.3,Win32,60.37918126,,,,,,,,,,,,,,,,,,,,,,,,,,,,,,,,,25,1.866,1,0,6,6,31,1,5,×,5,5 × 5,neutral,tie,1,2,25,,,,,,,,
,,,,,,,,,,,,,,,702,2022-02-10_13h45.44.768,multiplicationStroop,2021.2.3,Win32,60.37918126,,,,,,,,,,,,,,,,,,,,,,,,,,,,,,,,,8,2.2657,1,0,7,7,23,1,4,×,2,4 × 2,congruent,largerFirst,2,1,8,,,,,,,,
,,,,,,,,,,,,,,,702,2022-02-10_13h45.44.768,multiplicationStroop,2021.2.3,Win32,60.37918126,,,,,,,,,,,,,,,,,,,,,,,,,,,,,,,,,18,2.2993,1,0,8,8,8,1,2,×,9,2 × 9,congruent,smallerFirst,1,2,18,,,,,,,,
,,,,,,,,,,,,,,,702,2022-02-10_13h45.44.768,multiplicationStroop,2021.2.3,Win32,60.37918126,,,,,,,,,,,,,,,,,,,,,,,,,,,,,,,,,24,1.8156,1,0,9,9,24,1,8,×,3,8 × 3,congruent,largerFirst,2,1,24,,,,,,,,
,,,,,,,,,,,,,,,702,2022-02-10_13h45.44.768,multiplicationStroop,2021.2.3,Win32,60.37918126,,,,,,,,,,,,,,,,,,,,,,,,,,,,,,,,,18,2.1322,1,0,10,10,25,1,6,×,3,6 × 3,congruent,largerFirst,2,1,18,,,,,,,,
,,,,,,,,,,,,,,,702,2022-02-10_13h45.44.768,multiplicationStroop,2021.2.3,Win32,60.37918126,,,,,,,,,,,,,,,,,,,,,,,,,,,,,,,,,24,1.7494,0,0,11,11,13,1,4,×,7,4 × 7,congruent,smallerFirst,1,2,28,,,,,,,,
,,,,,,,,,,,,,,,702,2022-02-10_13h45.44.768,multiplicationStroop,2021.2.3,Win32,60.37918126,,,,,,,,,,,,,,,,,,,,,,,,,,,,,,,,,16,1.8321,1,0,12,12,30,1,4,×,4,4 × 4,neutral,tie,1,2,16,,,,,,,,
,,,,,,,,,,,,,,,702,2022-02-10_13h45.44.768,multiplicationStroop,2021.2.3,Win32,60.37918126,,,,,,,,,,,,,,,,,,,,,,,,,,,,,,,,,36,3.5327,1,0,13,13,14,1,9,×,4,9 × 4,congruent,largerFirst,2,1,36,,,,,,,,
,,,,,,,,,,,,,,,702,2022-02-10_13h45.44.768,multiplicationStroop,2021.2.3,Win32,60.37918126,,,,,,,,,,,,,,,,,,,,,,,,,,,,,,,,,48,2.0998,1,0,14,14,4,1,6,×,8,6 × 8,congruent,smallerFirst,1,2,48,,,,,,,,
,,,,,,,,,,,,,,,702,2022-02-10_13h45.44.768,multiplicationStroop,2021.2.3,Win32,60.37918126,,,,,,,,,,,,,,,,,,,,,,,,,,,,,,,,,20,2.0032,1,0,15,15,21,1,5,×,4,5 × 4,congruent,largerFirst,2,1,20,,,,,,,,
,,,,,,,,,,,,,,,702,2022-02-10_13h45.44.768,multiplicationStroop,2021.2.3,Win32,60.37918126,,,,,,,,,,,,,,,,,,,,,,,,,,,,,,,,,49,2.1783,1,0,16,16,33,1,7,×,7,7 × 7,neutral,tie,1,2,49,,,,,,,,
,,,,,,,,,,,,,,,702,2022-02-10_13h45.44.768,multiplicationStroop,2021.2.3,Win32,60.37918126,,,,,,,,,,,,,,,,,,,,,,,,,,,,,,,,,45,1.7159,1,0,17,17,9,1,5,×,9,5 × 9,congruent,smallerFirst,1,2,45,,,,,,,,
,,,,,,,,,,,,,,,702,2022-02-10_13h45.44.768,multiplicationStroop,2021.2.3,Win32,60.37918126,,,,,,,,,,,,,,,,,,,,,,,,,,,,,,,,,54,2.2655,1,0,18,18,26,1,9,×,6,9 × 6,congruent,largerFirst,2,1,54,,,,,,,,
,,,,,,,,,,,,,,,702,2022-02-10_13h45.44.768,multiplicationStroop,2021.2.3,Win32,60.37918126,,,,,,,,,,,,,,,,,,,,,,,,,,,,,,,,,40,2.0157,1,0,19,19,20,1,8,×,5,8 × 5,congruent,largerFirst,2,1,40,,,,,,,,
,,,,,,,,,,,,,,,702,2022-02-10_13h45.44.768,multiplicationStroop,2021.2.3,Win32,60.37918126,,,,,,,,,,,,,,,,,,,,,,,,,,,,,,,,,36,1.7163,1,0,20,20,32,1,6,×,6,6 × 6,neutral,tie,1,2,36,,,,,,,,
,,,,,,,,,,,,,,,702,2022-02-10_13h45.44.768,multiplicationStroop,2021.2.3,Win32,60.37918126,,,,,,,,,,,,,,,,,,,,,,,,,,,,,,,,,81,2.515,1,0,21,21,35,1,9,×,9,9 × 9,neutral,tie,1,2,81,,,,,,,,
,,,,,,,,,,,,,,,702,2022-02-10_13h45.44.768,multiplicationStroop,2021.2.3,Win32,60.37918126,,,,,,,,,,,,,,,,,,,,,,,,,,,,,,,,,72,2.2489,1,0,22,22,3,1,8,×,9,8 × 9,congruent,smallerFirst,1,2,72,,,,,,,,
,,,,,,,,,,,,,,,702,2022-02-10_13h45.44.768,multiplicationStroop,2021.2.3,Win32,60.37918126,,,,,,,,,,,,,,,,,,,,,,,,,,,,,,,,,10,1.8657,1,0,23,23,10,1,2,×,5,2 × 5,congruent,smallerFirst,1,2,10,,,,,,,,
,,,,,,,,,,,,,,,702,2022-02-10_13h45.44.768,multiplicationStroop,2021.2.3,Win32,60.37918126,,,,,,,,,,,,,,,,,,,,,,,,,,,,,,,,,42,5.2152,1,0,24,24,17,1,7,×,6,7 × 6,congruent,largerFirst,2,1,42,,,,,,,,
,,,,,,,,,,,,,,,702,2022-02-10_13h45.44.768,multiplicationStroop,2021.2.3,Win32,60.37918126,,,,,,,,,,,,,,,,,,,,,,,,,,,,,,,,,63,2.4977,1,0,25,25,7,1,7,×,9,7 × 9,congruent,smallerFirst,1,2,63,,,,,,,,
,,,,,,,,,,,,,,,702,2022-02-10_13h45.44.768,multiplicationStroop,2021.2.3,Win32,60.37918126,,,,,,,,,,,,,,,,,,,,,,,,,,,,,,,,,9,1.6671,1,0,26,26,29,1,3,×,3,3 × 3,neutral,tie,1,2,9,,,,,,,,
,,,,,,,,,,,,,,,702,2022-02-10_13h45.44.768,multiplicationStroop,2021.2.3,Win32,60.37918126,,,,,,,,,,,,,,,,,,,,,,,,,,,,,,,,,21,1.4494,1,0,27,27,2,1,3,×,7,3 × 7,congruent,smallerFirst,1,2,21,,,,,,,,
,,,,,,,,,,,,,,,702,2022-02-10_13h45.44.768,multiplicationStroop,2021.2.3,Win32,60.37918126,,,,,,,,,,,,,,,,,,,,,,,,,,,,,,,,,56,1.7319,1,0,28,28,22,1,8,×,7,8 × 7,congruent,largerFirst,2,1,56,,,,,,,,
,,,,,,,,,,,,,,,702,2022-02-10_13h45.44.768,multiplicationStroop,2021.2.3,Win32,60.37918126,,,,,,,,,,,,,,,,,,,,,,,,,,,,,,,,,18,3.1324,0,0,29,29,12,1,3,×,9,3 × 9,congruent,smallerFirst,1,2,27,,,,,,,,
,,,,,,,,,,,,,,,702,2022-02-10_13h45.44.768,multiplicationStroop,2021.2.3,Win32,60.37918126,,,,,,,,,,,,,,,,,,,,,,,,,,,,,,,,,30,1.8836,1,0,30,30,1,1,5,×,6,5 × 6,congruent,smallerFirst,1,2,30,,,,,,,,
,,,,,,,,,,,,,,,702,2022-02-10_13h45.44.768,multiplicationStroop,2021.2.3,Win32,60.37918126,,,,,,,,,,,,,,,,,,,,,,,,,,,,,,,,,14,1.5494,1,0,31,31,0,1,2,×,7,2 × 7,congruent,smallerFirst,1,2,14,,,,,,,,
,,,,,,,,,,,,,,,702,2022-02-10_13h45.44.768,multiplicationStroop,2021.2.3,Win32,60.37918126,,,,,,,,,,,,,,,,,,,,,,,,,,,,,,,,,32,2.0982,1,0,32,32,6,1,4,×,8,4 × 8,congruent,smallerFirst,1,2,32,,,,,,,,
,,,,,,,,,,,,,,,702,2022-02-10_13h45.44.768,multiplicationStroop,2021.2.3,Win32,60.37918126,,,,,,,,,,,,,,,,,,,,,,,,,,,,,,,,,6,1.6994,1,0,33,33,27,1,3,×,2,3 × 2,congruent,largerFirst,2,1,6,,,,,,,,
,,,,,,,,,,,,,,,702,2022-02-10_13h45.44.768,multiplicationStroop,2021.2.3,Win32,60.37918126,,,,,,,,,,,,,,,,,,,,,,,,,,,,,,,,,12,1.4152,1,0,34,34,16,1,4,×,3,4 × 3,congruent,largerFirst,2,1,12,,,,,,,,
,,,,,,,,,,,,,,,702,2022-02-10_13h45.44.768,multiplicationStroop,2021.2.3,Win32,60.37918126,,,,,,,,,,,,,,,,,,,,,,,,,,,,,,,,,12,1.3993,1,0,35,35,5,1,2,×,6,2 × 6,congruent,smallerFirst,1,2,12,,,,,,,,
,,,,,,,,,,,,,,,702,2022-02-10_13h45.44.768,multiplicationStroop,2021.2.3,Win32,60.37918126,,,,,,,,,,,,,,,,,,,,,,,,,,,,,,,,,,,,,,,,,,,,,,,,,,0,4,4,3,1,stimulusFile/mult_blk4_congruent.xlsx,,
,,,,,,,,,,,,,,,702,2022-02-10_13h45.44.768,multiplicationStroop,2021.2.3,Win32,60.37918126,,,,,,,,,,,,,,,,,,,,,,,,,,,,,,,space,1.1105,40,2.5928,1,0,0,0,27,1,8,×,5,8 × 5,incongruent,largerFirst,1,2,40,,,,,,,,
,,,,,,,,,,,,,,,702,2022-02-10_13h45.44.768,multiplicationStroop,2021.2.3,Win32,60.37918126,,,,,,,,,,,,,,,,,,,,,,,,,,,,,,,,,24,2.8716,1,0,1,1,23,1,8,×,3,8 × 3,incongruent,largerFirst,1,2,24,,,,,,,,
,,,,,,,,,,,,,,,702,2022-02-10_13h45.44.768,multiplicationStroop,2021.2.3,Win32,60.37918126,,,,,,,,,,,,,,,,,,,,,,,,,,,,,,,,,72,4.0775,1,0,2,2,14,1,9,×,8,9 × 8,incongruent,largerFirst,1,2,72,,,,,,,,
,,,,,,,,,,,,,,,702,2022-02-10_13h45.44.768,multiplicationStroop,2021.2.3,Win32,60.37918126,,,,,,,,,,,,,,,,,,,,,,,,,,,,,,,,,45,1.701,1,0,3,3,8,1,5,×,9,5 × 9,incongruent,smallerFirst,2,1,45,,,,,,,,
,,,,,,,,,,,,,,,702,2022-02-10_13h45.44.768,multiplicationStroop,2021.2.3,Win32,60.37918126,,,,,,,,,,,,,,,,,,,,,,,,,,,,,,,,,24,1.8657,1,0,4,4,6,1,4,×,6,4 × 6,incongruent,smallerFirst,2,1,24,,,,,,,,
,,,,,,,,,,,,,,,702,2022-02-10_13h45.44.768,multiplicationStroop,2021.2.3,Win32,60.37918126,,,,,,,,,,,,,,,,,,,,,,,,,,,,,,,,,48,2.099,1,0,5,5,15,1,8,×,6,8 × 6,incongruent,largerFirst,1,2,48,,,,,,,,
,,,,,,,,,,,,,,,702,2022-02-10_13h45.44.768,multiplicationStroop,2021.2.3,Win32,60.37918126,,,,,,,,,,,,,,,,,,,,,,,,,,,,,,,,,63,2.3318,1,0,6,6,17,1,9,×,7,9 × 7,incongruent,largerFirst,1,2,63,,,,,,,,
,,,,,,,,,,,,,,,702,2022-02-10_13h45.44.768,multiplicationStroop,2021.2.3,Win32,60.37918126,,,,,,,,,,,,,,,,,,,,,,,,,,,,,,,,,36,2.6324,1,0,7,7,32,1,6,×,6,6 × 6,neutral,tie,2,1,36,,,,,,,,
,,,,,,,,,,,,,,,702,2022-02-10_13h45.44.768,multiplicationStroop,2021.2.3,Win32,60.37918126,,,,,,,,,,,,,,,,,,,,,,,,,,,,,,,,,54,1.8694,1,0,8,8,20,1,9,×,6,9 × 6,incongruent,largerFirst,1,2,54,,,,,,,,
,,,,,,,,,,,,,,,702,2022-02-10_13h45.44.768,multiplicationStroop,2021.2.3,Win32,60.37918126,,,,,,,,,,,,,,,,,,,,,,,,,,,,,,,,,81,2.5955,1,0,9,9,35,1,9,×,9,9 × 9,neutral,tie,2,1,81,,,,,,,,
,,,,,,,,,,,,,,,702,2022-02-10_13h45.44.768,multiplicationStroop,2021.2.3,Win32,60.37918126,,,,,,,,,,,,,,,,,,,,,,,,,,,,,,,,,35,1.8213,1,0,10,10,26,1,7,×,5,7 × 5,incongruent,largerFirst,1,2,35,,,,,,,,
,,,,,,,,,,,,,,,702,2022-02-10_13h45.44.768,multiplicationStroop,2021.2.3,Win32,60.37918126,,,,,,,,,,,,,,,,,,,,,,,,,,,,,,,,,32,1.5309,1,0,11,11,21,1,8,×,4,8 × 4,incongruent,largerFirst,1,2,32,,,,,,,,
,,,,,,,,,,,,,,,702,2022-02-10_13h45.44.768,multiplicationStroop,2021.2.3,Win32,60.37918126,,,,,,,,,,,,,,,,,,,,,,,,,,,,,,,,,49,2.7633,1,0,12,12,33,1,7,×,7,7 × 7,neutral,tie,2,1,49,,,,,,,,
,,,,,,,,,,,,,,,702,2022-02-10_13h45.44.768,multiplicationStroop,2021.2.3,Win32,60.37918126,,,,,,,,,,,,,,,,,,,,,,,,,,,,,,,,,20,1.9003,1,0,13,13,13,1,4,×,5,4 × 5,incongruent,smallerFirst,2,1,20,,,,,,,,
,,,,,,,,,,,,,,,702,2022-02-10_13h45.44.768,multiplicationStroop,2021.2.3,Win32,60.37918126,,,,,,,,,,,,,,,,,,,,,,,,,,,,,,,,,36,2.7655,0,0,14,14,3,1,6,×,7,6 × 7,incongruent,smallerFirst,2,1,42,,,,,,,,
,,,,,,,,,,,,,,,702,2022-02-10_13h45.44.768,multiplicationStroop,2021.2.3,Win32,60.37918126,,,,,,,,,,,,,,,,,,,,,,,,,,,,,,,,,6,1.9495,1,0,15,15,25,1,3,×,2,3 × 2,incongruent,largerFirst,1,2,6,,,,,,,,
,,,,,,,,,,,,,,,702,2022-02-10_13h45.44.768,multiplicationStroop,2021.2.3,Win32,60.37918126,,,,,,,,,,,,,,,,,,,,,,,,,,,,,,,,,30,2.8988,1,0,16,16,11,1,5,×,6,5 × 6,incongruent,smallerFirst,2,1,30,,,,,,,,
,,,,,,,,,,,,,,,702,2022-02-10_13h45.44.768,multiplicationStroop,2021.2.3,Win32,60.37918126,,,,,,,,,,,,,,,,,,,,,,,,,,,,,,,,,25,1.9657,1,0,17,17,31,1,5,×,5,5 × 5,neutral,tie,2,1,25,,,,,,,,
,,,,,,,,,,,,,,,702,2022-02-10_13h45.44.768,multiplicationStroop,2021.2.3,Win32,60.37918126,,,,,,,,,,,,,,,,,,,,,,,,,,,,,,,,,64,2.4324,1,0,18,18,34,1,8,×,8,8 × 8,neutral,tie,2,1,64,,,,,,,,
,,,,,,,,,,,,,,,702,2022-02-10_13h45.44.768,multiplicationStroop,2021.2.3,Win32,60.37918126,,,,,,,,,,,,,,,,,,,,,,,,,,,,,,,,,21,1.3678,1,0,19,19,12,1,3,×,7,3 × 7,incongruent,smallerFirst,2,1,21,,,,,,,,
,,,,,,,,,,,,,,,702,2022-02-10_13h45.44.768,multiplicationStroop,2021.2.3,Win32,60.37918126,,,,,,,,,,,,,,,,,,,,,,,,,,,,,,,,,27,3.4484,1,0,20,20,4,1,3,×,9,3 × 9,incongruent,smallerFirst,2,1,27,,,,,,,,
,,,,,,,,,,,,,,,702,2022-02-10_13h45.44.768,multiplicationStroop,2021.2.3,Win32,60.37918126,,,,,,,,,,,,,,,,,,,,,,,,,,,,,,,,,4,1.6343,1,0,21,21,28,1,2,×,2,2 × 2,neutral,tie,2,1,4,,,,,,,,
,,,,,,,,,,,,,,,702,2022-02-10_13h45.44.768,multiplicationStroop,2021.2.3,Win32,60.37918126,,,,,,,,,,,,,,,,,,,,,,,,,,,,,,,,,56,2.4323,1,0,22,22,0,1,7,×,8,7 × 8,incongruent,smallerFirst,2,1,56,,,,,,,,
,,,,,,,,,,,,,,,702,2022-02-10_13h45.44.768,multiplicationStroop,2021.2.3,Win32,60.37918126,,,,,,,,,,,,,,,,,,,,,,,,,,,,,,,,,8,2.316,1,0,23,23,10,1,2,×,4,2 × 4,incongruent,smallerFirst,2,1,8,,,,,,,,
,,,,,,,,,,,,,,,702,2022-02-10_13h45.44.768,multiplicationStroop,2021.2.3,Win32,60.37918126,,,,,,,,,,,,,,,,,,,,,,,,,,,,,,,,,9,2.0492,1,0,24,24,29,1,3,×,3,3 × 3,neutral,tie,2,1,9,,,,,,,,
,,,,,,,,,,,,,,,702,2022-02-10_13h45.44.768,multiplicationStroop,2021.2.3,Win32,60.37918126,,,,,,,,,,,,,,,,,,,,,,,,,,,,,,,,,12,1.331,1,0,25,25,5,1,2,×,6,2 × 6,incongruent,smallerFirst,2,1,12,,,,,,,,
,,,,,,,,,,,,,,,702,2022-02-10_13h45.44.768,multiplicationStroop,2021.2.3,Win32,60.37918126,,,,,,,,,,,,,,,,,,,,,,,,,,,,,,,,,18,2.3482,1,0,26,26,16,1,9,×,2,9 × 2,incongruent,largerFirst,1,2,18,,,,,,,,
,,,,,,,,,,,,,,,702,2022-02-10_13h45.44.768,multiplicationStroop,2021.2.3,Win32,60.37918126,,,,,,,,,,,,,,,,,,,,,,,,,,,,,,,,,16,2.8202,1,0,27,27,30,1,4,×,4,4 × 4,neutral,tie,2,1,16,,,,,,,,
,,,,,,,,,,,,,,,702,2022-02-10_13h45.44.768,multiplicationStroop,2021.2.3,Win32,60.37918126,,,,,,,,,,,,,,,,,,,,,,,,,,,,,,,,,28,3.0781,1,0,28,28,2,1,4,×,7,4 × 7,incongruent,smallerFirst,2,1,28,,,,,,,,
,,,,,,,,,,,,,,,702,2022-02-10_13h45.44.768,multiplicationStroop,2021.2.3,Win32,60.37918126,,,,,,,,,,,,,,,,,,,,,,,,,,,,,,,,,18,1.9657,1,0,29,29,22,1,6,×,3,6 × 3,incongruent,largerFirst,1,2,18,,,,,,,,
,,,,,,,,,,,,,,,702,2022-02-10_13h45.44.768,multiplicationStroop,2021.2.3,Win32,60.37918126,,,,,,,,,,,,,,,,,,,,,,,,,,,,,,,,,10,1.8657,1,0,30,30,7,1,2,×,5,2 × 5,incongruent,smallerFirst,2,1,10,,,,,,,,
,,,,,,,,,,,,,,,702,2022-02-10_13h45.44.768,multiplicationStroop,2021.2.3,Win32,60.37918126,,,,,,,,,,,,,,,,,,,,,,,,,,,,,,,,,36,2.4156,1,0,31,31,1,1,4,×,9,4 × 9,incongruent,smallerFirst,2,1,36,,,,,,,,
,,,,,,,,,,,,,,,702,2022-02-10_13h45.44.768,multiplicationStroop,2021.2.3,Win32,60.37918126,,,,,,,,,,,,,,,,,,,,,,,,,,,,,,,,,16,1.6993,1,0,32,32,9,1,2,×,8,2 × 8,incongruent,smallerFirst,2,1,16,,,,,,,,
,,,,,,,,,,,,,,,702,2022-02-10_13h45.44.768,multiplicationStroop,2021.2.3,Win32,60.37918126,,,,,,,,,,,,,,,,,,,,,,,,,,,,,,,,,14,1.8324,1,0,33,33,18,1,7,×,2,7 × 2,incongruent,largerFirst,1,2,14,,,,,,,,
,,,,,,,,,,,,,,,702,2022-02-10_13h45.44.768,multiplicationStroop,2021.2.3,Win32,60.37918126,,,,,,,,,,,,,,,,,,,,,,,,,,,,,,,,,12,1.4824,1,0,34,34,19,1,4,×,3,4 × 3,incongruent,largerFirst,1,2,12,,,,,,,,
,,,,,,,,,,,,,,,702,2022-02-10_13h45.44.768,multiplicationStroop,2021.2.3,Win32,60.37918126,,,,,,,,,,,,,,,,,,,,,,,,,,,,,,,,,15,1.7656,1,0,35,35,24,1,5,×,3,5 × 3,incongruent,largerFirst,1,2,15,,,,,,,,
,,,,,,,,,,,,,,,702,2022-02-10_13h45.44.768,multiplicationStroop,2021.2.3,Win32,60.37918126,,,,,,,,,,,,,,,,,,,,,,,,,,,,,,,,,,,,,,,,,,,,,,,,,,0,5,5,4,1,stimulusFile/mult_blk5_INcongruent.xlsx,,
,,,,,,,,,,,,,,,702,2022-02-10_13h45.44.768,multiplicationStroop,2021.2.3,Win32,60.37918126,,,,,,,,,,,,,,,,,,,,,,,,,,,,,,,,,,,,,,,,,,,,,,,,,,,,,,,,space,8.7096