welcomeKey_resp.keys,welcomeKey_resp.rt,X Scale,Y Scale,rt_resp_4.keys,rt_resp_4.corr,rt_resp_4.rt,speedtest_2.thisRepN,speedtest_2.thisTrialN,speedtest_2.thisN,speedtest_2.thisIndex,speedtest_2.ran,numberSc,posX,positionLayout,participant,date,expName,psychopyVersion,OS,frameRate,ct_instrresp.keys,ct_instrresp.rt,key_resp_2.keys,key_resp_2.rt,ct_keyResp.keys,ct_keyResp.corr,ct_keyResp.rt,trials.thisRepN,trials.thisTrialN,trials.thisN,trials.thisIndex,trials.ran,leftNo,rightNo,displayProblem,numDistance,leftNo_size,rightNo_size,Dims,keyAnswer,TS_Loop.thisRepN,TS_Loop.thisTrialN,TS_Loop.thisN,TS_Loop.thisIndex,TS_Loop.ran,Condition,ActionInst,instrImage,mltptaskInst_resp.keys,mltptaskInst_resp.rt,continue_resp_2.keys,continue_resp_2.rt,multp_Answer,multi_RT,multiplyCorr,LoopingMultiply.thisRepN,LoopingMultiply.thisTrialN,LoopingMultiply.thisN,LoopingMultiply.thisIndex,LoopingMultiply.ran,factor1,multiplySign,factor2,multliplyProblem,physicalSize,orderOperand,sizeF1,sizeF2,mult_answer,trials_stroop.thisRepN,trials_stroop.thisTrialN,trials_stroop.thisN,trials_stroop.thisIndex,trials_stroop.ran,multiplicationFile,esckey_resp_2.keys,esckey_resp_2.rt
y,60.3677,44.4,44.8,left,1,0.4714,0,0,0,4,1,6,-200,left,704,2022-02-07_22h14.00.922,multiplicationStroop,2021.2.3,Win32,59.85515054,,,,,,,,,,,,,,,,,,,,,,,,,,,,,,,,,,,,,,,,,,,,,,,,,,,,,,,,,
,,,,right,1,0.2832,0,1,1,10,1,3,200,right,704,2022-02-07_22h14.00.922,multiplicationStroop,2021.2.3,Win32,59.85515054,,,,,,,,,,,,,,,,,,,,,,,,,,,,,,,,,,,,,,,,,,,,,,,,,,,,,,,,,
,,,,left,1,0.2997,0,2,2,5,1,7,-200,left,704,2022-02-07_22h14.00.922,multiplicationStroop,2021.2.3,Win32,59.85515054,,,,,,,,,,,,,,,,,,,,,,,,,,,,,,,,,,,,,,,,,,,,,,,,,,,,,,,,,
,,,,right,1,0.2509,0,3,3,8,1,1,200,right,704,2022-02-07_22h14.00.922,multiplicationStroop,2021.2.3,Win32,59.85515054,,,,,,,,,,,,,,,,,,,,,,,,,,,,,,,,,,,,,,,,,,,,,,,,,,,,,,,,,
,,,,left,1,0.3234,0,4,4,2,1,3,-200,left,704,2022-02-07_22h14.00.922,multiplicationStroop,2021.2.3,Win32,59.85515054,,,,,,,,,,,,,,,,,,,,,,,,,,,,,,,,,,,,,,,,,,,,,,,,,,,,,,,,,
,,,,left,1,0.3534,0,5,5,7,1,9,-200,left,704,2022-02-07_22h14.00.922,multiplicationStroop,2021.2.3,Win32,59.85515054,,,,,,,,,,,,,,,,,,,,,,,,,,,,,,,,,,,,,,,,,,,,,,,,,,,,,,,,,
,,,,right,1,0.29,0,6,6,9,1,2,200,right,704,2022-02-07_22h14.00.922,multiplicationStroop,2021.2.3,Win32,59.85515054,,,,,,,,,,,,,,,,,,,,,,,,,,,,,,,,,,,,,,,,,,,,,,,,,,,,,,,,,
,,,,right,1,0.3558,0,7,7,11,1,4,200,right,704,2022-02-07_22h14.00.922,multiplicationStroop,2021.2.3,Win32,59.85515054,,,,,,,,,,,,,,,,,,,,,,,,,,,,,,,,,,,,,,,,,,,,,,,,,,,,,,,,,
,,,,left,1,0.263,0,8,8,1,1,2,-200,left,704,2022-02-07_22h14.00.922,multiplicationStroop,2021.2.3,Win32,59.85515054,,,,,,,,,,,,,,,,,,,,,,,,,,,,,,,,,,,,,,,,,,,,,,,,,,,,,,,,,
,,,,left,1,0.3682,0,9,9,0,1,1,-200,left,704,2022-02-07_22h14.00.922,multiplicationStroop,2021.2.3,Win32,59.85515054,,,,,,,,,,,,,,,,,,,,,,,,,,,,,,,,,,,,,,,,,,,,,,,,,,,,,,,,,
,,,,left,1,0.3029,0,10,10,3,1,4,-200,left,704,2022-02-07_22h14.00.922,multiplicationStroop,2021.2.3,Win32,59.85515054,,,,,,,,,,,,,,,,,,,,,,,,,,,,,,,,,,,,,,,,,,,,,,,,,,,,,,,,,
,,,,right,1,0.3304,0,11,11,14,1,8,200,right,704,2022-02-07_22h14.00.922,multiplicationStroop,2021.2.3,Win32,59.85515054,,,,,,,,,,,,,,,,,,,,,,,,,,,,,,,,,,,,,,,,,,,,,,,,,,,,,,,,,
,,,,right,1,0.3281,0,12,12,15,1,9,200,right,704,2022-02-07_22h14.00.922,multiplicationStroop,2021.2.3,Win32,59.85515054,,,,,,,,,,,,,,,,,,,,,,,,,,,,,,,,,,,,,,,,,,,,,,,,,,,,,,,,,
,,,,left,1,0.2829,0,13,13,6,1,8,-200,left,704,2022-02-07_22h14.00.922,multiplicationStroop,2021.2.3,Win32,59.85515054,,,,,,,,,,,,,,,,,,,,,,,,,,,,,,,,,,,,,,,,,,,,,,,,,,,,,,,,,
,,,,right,1,0.2972,0,14,14,13,1,7,200,right,704,2022-02-07_22h14.00.922,multiplicationStroop,2021.2.3,Win32,59.85515054,,,,,,,,,,,,,,,,,,,,,,,,,,,,,,,,,,,,,,,,,,,,,,,,,,,,,,,,,
,,,,right,1,0.3332,0,15,15,12,1,6,200,right,704,2022-02-07_22h14.00.922,multiplicationStroop,2021.2.3,Win32,59.85515054,,,,,,,,,,,,,,,,,,,,,,,,,,,,,,,,,,,,,,,,,,,,,,,,,,,,,,,,,
,,,,left,1,0.2541,1,0,16,3,1,4,-200,left,704,2022-02-07_22h14.00.922,multiplicationStroop,2021.2.3,Win32,59.85515054,,,,,,,,,,,,,,,,,,,,,,,,,,,,,,,,,,,,,,,,,,,,,,,,,,,,,,,,,
,,,,right,1,0.3034,1,1,17,10,1,3,200,right,704,2022-02-07_22h14.00.922,multiplicationStroop,2021.2.3,Win32,59.85515054,,,,,,,,,,,,,,,,,,,,,,,,,,,,,,,,,,,,,,,,,,,,,,,,,,,,,,,,,
,,,,left,1,0.3096,1,2,18,2,1,3,-200,left,704,2022-02-07_22h14.00.922,multiplicationStroop,2021.2.3,Win32,59.85515054,,,,,,,,,,,,,,,,,,,,,,,,,,,,,,,,,,,,,,,,,,,,,,,,,,,,,,,,,
,,,,left,1,0.3604,1,3,19,1,1,2,-200,left,704,2022-02-07_22h14.00.922,multiplicationStroop,2021.2.3,Win32,59.85515054,,,,,,,,,,,,,,,,,,,,,,,,,,,,,,,,,,,,,,,,,,,,,,,,,,,,,,,,,
,,,,right,1,0.2871,1,4,20,9,1,2,200,right,704,2022-02-07_22h14.00.922,multiplicationStroop,2021.2.3,Win32,59.85515054,,,,,,,,,,,,,,,,,,,,,,,,,,,,,,,,,,,,,,,,,,,,,,,,,,,,,,,,,
,,,,left,1,0.3245,1,5,21,0,1,1,-200,left,704,2022-02-07_22h14.00.922,multiplicationStroop,2021.2.3,Win32,59.85515054,,,,,,,,,,,,,,,,,,,,,,,,,,,,,,,,,,,,,,,,,,,,,,,,,,,,,,,,,
,,,,right,1,0.2167,1,6,22,11,1,4,200,right,704,2022-02-07_22h14.00.922,multiplicationStroop,2021.2.3,Win32,59.85515054,,,,,,,,,,,,,,,,,,,,,,,,,,,,,,,,,,,,,,,,,,,,,,,,,,,,,,,,,
,,,,right,1,0.4665,1,7,23,13,1,7,200,right,704,2022-02-07_22h14.00.922,multiplicationStroop,2021.2.3,Win32,59.85515054,,,,,,,,,,,,,,,,,,,,,,,,,,,,,,,,,,,,,,,,,,,,,,,,,,,,,,,,,
,,,,right,1,0.3714,1,8,24,14,1,8,200,right,704,2022-02-07_22h14.00.922,multiplicationStroop,2021.2.3,Win32,59.85515054,,,,,,,,,,,,,,,,,,,,,,,,,,,,,,,,,,,,,,,,,,,,,,,,,,,,,,,,,
,,,,left,1,0.317,1,9,25,5,1,7,-200,left,704,2022-02-07_22h14.00.922,multiplicationStroop,2021.2.3,Win32,59.85515054,,,,,,,,,,,,,,,,,,,,,,,,,,,,,,,,,,,,,,,,,,,,,,,,,,,,,,,,,
,,,,right,1,0.325,1,10,26,15,1,9,200,right,704,2022-02-07_22h14.00.922,multiplicationStroop,2021.2.3,Win32,59.85515054,,,,,,,,,,,,,,,,,,,,,,,,,,,,,,,,,,,,,,,,,,,,,,,,,,,,,,,,,
,,,,right,1,0.3591,1,11,27,8,1,1,200,right,704,2022-02-07_22h14.00.922,multiplicationStroop,2021.2.3,Win32,59.85515054,,,,,,,,,,,,,,,,,,,,,,,,,,,,,,,,,,,,,,,,,,,,,,,,,,,,,,,,,
,,,,left,1,0.2906,1,12,28,4,1,6,-200,left,704,2022-02-07_22h14.00.922,multiplicationStroop,2021.2.3,Win32,59.85515054,,,,,,,,,,,,,,,,,,,,,,,,,,,,,,,,,,,,,,,,,,,,,,,,,,,,,,,,,
,,,,left,1,0.3848,1,13,29,7,1,9,-200,left,704,2022-02-07_22h14.00.922,multiplicationStroop,2021.2.3,Win32,59.85515054,,,,,,,,,,,,,,,,,,,,,,,,,,,,,,,,,,,,,,,,,,,,,,,,,,,,,,,,,
,,,,right,1,0.3134,1,14,30,12,1,6,200,right,704,2022-02-07_22h14.00.922,multiplicationStroop,2021.2.3,Win32,59.85515054,,,,,,,,,,,,,,,,,,,,,,,,,,,,,,,,,,,,,,,,,,,,,,,,,,,,,,,,,
,,,,left,1,0.2926,1,15,31,6,1,8,-200,left,704,2022-02-07_22h14.00.922,multiplicationStroop,2021.2.3,Win32,59.85515054,,,,,,,,,,,,,,,,,,,,,,,,,,,,,,,,,,,,,,,,,,,,,,,,,,,,,,,,,
,,,,left,1,0.3728,2,0,32,2,1,3,-200,left,704,2022-02-07_22h14.00.922,multiplicationStroop,2021.2.3,Win32,59.85515054,,,,,,,,,,,,,,,,,,,,,,,,,,,,,,,,,,,,,,,,,,,,,,,,,,,,,,,,,
,,,,left,1,0.2768,2,1,33,6,1,8,-200,left,704,2022-02-07_22h14.00.922,multiplicationStroop,2021.2.3,Win32,59.85515054,,,,,,,,,,,,,,,,,,,,,,,,,,,,,,,,,,,,,,,,,,,,,,,,,,,,,,,,,
,,,,right,1,0.3562,2,2,34,9,1,2,200,right,704,2022-02-07_22h14.00.922,multiplicationStroop,2021.2.3,Win32,59.85515054,,,,,,,,,,,,,,,,,,,,,,,,,,,,,,,,,,,,,,,,,,,,,,,,,,,,,,,,,
,,,,right,1,0.3531,2,3,35,12,1,6,200,right,704,2022-02-07_22h14.00.922,multiplicationStroop,2021.2.3,Win32,59.85515054,,,,,,,,,,,,,,,,,,,,,,,,,,,,,,,,,,,,,,,,,,,,,,,,,,,,,,,,,
,,,,left,1,0.3398,2,4,36,0,1,1,-200,left,704,2022-02-07_22h14.00.922,multiplicationStroop,2021.2.3,Win32,59.85515054,,,,,,,,,,,,,,,,,,,,,,,,,,,,,,,,,,,,,,,,,,,,,,,,,,,,,,,,,
,,,,left,1,0.3457,2,5,37,7,1,9,-200,left,704,2022-02-07_22h14.00.922,multiplicationStroop,2021.2.3,Win32,59.85515054,,,,,,,,,,,,,,,,,,,,,,,,,,,,,,,,,,,,,,,,,,,,,,,,,,,,,,,,,
,,,,right,1,0.3171,2,6,38,10,1,3,200,right,704,2022-02-07_22h14.00.922,multiplicationStroop,2021.2.3,Win32,59.85515054,,,,,,,,,,,,,,,,,,,,,,,,,,,,,,,,,,,,,,,,,,,,,,,,,,,,,,,,,
,,,,left,0,0.3068,2,7,39,11,1,4,200,right,704,2022-02-07_22h14.00.922,multiplicationStroop,2021.2.3,Win32,59.85515054,,,,,,,,,,,,,,,,,,,,,,,,,,,,,,,,,,,,,,,,,,,,,,,,,,,,,,,,,
,,,,right,1,0.4045,2,8,40,8,1,1,200,right,704,2022-02-07_22h14.00.922,multiplicationStroop,2021.2.3,Win32,59.85515054,,,,,,,,,,,,,,,,,,,,,,,,,,,,,,,,,,,,,,,,,,,,,,,,,,,,,,,,,
,,,,left,1,0.3045,2,9,41,3,1,4,-200,left,704,2022-02-07_22h14.00.922,multiplicationStroop,2021.2.3,Win32,59.85515054,,,,,,,,,,,,,,,,,,,,,,,,,,,,,,,,,,,,,,,,,,,,,,,,,,,,,,,,,
,,,,left,1,0.3877,2,10,42,1,1,2,-200,left,704,2022-02-07_22h14.00.922,multiplicationStroop,2021.2.3,Win32,59.85515054,,,,,,,,,,,,,,,,,,,,,,,,,,,,,,,,,,,,,,,,,,,,,,,,,,,,,,,,,
,,,,right,1,0.3163,2,11,43,15,1,9,200,right,704,2022-02-07_22h14.00.922,multiplicationStroop,2021.2.3,Win32,59.85515054,,,,,,,,,,,,,,,,,,,,,,,,,,,,,,,,,,,,,,,,,,,,,,,,,,,,,,,,,
,,,,right,0,0.2702,2,12,44,4,1,6,-200,left,704,2022-02-07_22h14.00.922,multiplicationStroop,2021.2.3,Win32,59.85515054,,,,,,,,,,,,,,,,,,,,,,,,,,,,,,,,,,,,,,,,,,,,,,,,,,,,,,,,,
,,,,right,1,0.592,2,13,45,14,1,8,200,right,704,2022-02-07_22h14.00.922,multiplicationStroop,2021.2.3,Win32,59.85515054,,,,,,,,,,,,,,,,,,,,,,,,,,,,,,,,,,,,,,,,,,,,,,,,,,,,,,,,,
,,,,right,1,0.3566,2,14,46,13,1,7,200,right,704,2022-02-07_22h14.00.922,multiplicationStroop,2021.2.3,Win32,59.85515054,,,,,,,,,,,,,,,,,,,,,,,,,,,,,,,,,,,,,,,,,,,,,,,,,,,,,,,,,
,,,,left,1,0.3666,2,15,47,5,1,7,-200,left,704,2022-02-07_22h14.00.922,multiplicationStroop,2021.2.3,Win32,59.85515054,,,,,,,,,,,,,,,,,,,,,,,,,,,,,,,,,,,,,,,,,,,,,,,,,,,,,,,,,
,,,,right,1,0.3347,3,0,48,10,1,3,200,right,704,2022-02-07_22h14.00.922,multiplicationStroop,2021.2.3,Win32,59.85515054,,,,,,,,,,,,,,,,,,,,,,,,,,,,,,,,,,,,,,,,,,,,,,,,,,,,,,,,,
,,,,left,1,0.3235,3,1,49,3,1,4,-200,left,704,2022-02-07_22h14.00.922,multiplicationStroop,2021.2.3,Win32,59.85515054,,,,,,,,,,,,,,,,,,,,,,,,,,,,,,,,,,,,,,,,,,,,,,,,,,,,,,,,,
,,,,left,1,0.3838,3,2,50,2,1,3,-200,left,704,2022-02-07_22h14.00.922,multiplicationStroop,2021.2.3,Win32,59.85515054,,,,,,,,,,,,,,,,,,,,,,,,,,,,,,,,,,,,,,,,,,,,,,,,,,,,,,,,,
,,,,left,1,0.3785,3,3,51,4,1,6,-200,left,704,2022-02-07_22h14.00.922,multiplicationStroop,2021.2.3,Win32,59.85515054,,,,,,,,,,,,,,,,,,,,,,,,,,,,,,,,,,,,,,,,,,,,,,,,,,,,,,,,,
,,,,right,1,0.3327,3,4,52,14,1,8,200,right,704,2022-02-07_22h14.00.922,multiplicationStroop,2021.2.3,Win32,59.85515054,,,,,,,,,,,,,,,,,,,,,,,,,,,,,,,,,,,,,,,,,,,,,,,,,,,,,,,,,
,,,,right,1,0.3883,3,5,53,12,1,6,200,right,704,2022-02-07_22h14.00.922,multiplicationStroop,2021.2.3,Win32,59.85515054,,,,,,,,,,,,,,,,,,,,,,,,,,,,,,,,,,,,,,,,,,,,,,,,,,,,,,,,,
,,,,right,1,0.3939,3,6,54,15,1,9,200,right,704,2022-02-07_22h14.00.922,multiplicationStroop,2021.2.3,Win32,59.85515054,,,,,,,,,,,,,,,,,,,,,,,,,,,,,,,,,,,,,,,,,,,,,,,,,,,,,,,,,
,,,,right,1,0.3685,3,7,55,8,1,1,200,right,704,2022-02-07_22h14.00.922,multiplicationStroop,2021.2.3,Win32,59.85515054,,,,,,,,,,,,,,,,,,,,,,,,,,,,,,,,,,,,,,,,,,,,,,,,,,,,,,,,,
,,,,left,1,0.321,3,8,56,7,1,9,-200,left,704,2022-02-07_22h14.00.922,multiplicationStroop,2021.2.3,Win32,59.85515054,,,,,,,,,,,,,,,,,,,,,,,,,,,,,,,,,,,,,,,,,,,,,,,,,,,,,,,,,
,,,,left,1,0.3348,3,9,57,5,1,7,-200,left,704,2022-02-07_22h14.00.922,multiplicationStroop,2021.2.3,Win32,59.85515054,,,,,,,,,,,,,,,,,,,,,,,,,,,,,,,,,,,,,,,,,,,,,,,,,,,,,,,,,
,,,,left,1,0.3995,3,10,58,0,1,1,-200,left,704,2022-02-07_22h14.00.922,multiplicationStroop,2021.2.3,Win32,59.85515054,,,,,,,,,,,,,,,,,,,,,,,,,,,,,,,,,,,,,,,,,,,,,,,,,,,,,,,,,
,,,,left,0,0.3271,3,11,59,9,1,2,200,right,704,2022-02-07_22h14.00.922,multiplicationStroop,2021.2.3,Win32,59.85515054,,,,,,,,,,,,,,,,,,,,,,,,,,,,,,,,,,,,,,,,,,,,,,,,,,,,,,,,,
,,,,left,1,0.6002,3,12,60,6,1,8,-200,left,704,2022-02-07_22h14.00.922,multiplicationStroop,2021.2.3,Win32,59.85515054,,,,,,,,,,,,,,,,,,,,,,,,,,,,,,,,,,,,,,,,,,,,,,,,,,,,,,,,,
,,,,left,1,0.3797,3,13,61,1,1,2,-200,left,704,2022-02-07_22h14.00.922,multiplicationStroop,2021.2.3,Win32,59.85515054,,,,,,,,,,,,,,,,,,,,,,,,,,,,,,,,,,,,,,,,,,,,,,,,,,,,,,,,,
,,,,right,1,0.3373,3,14,62,11,1,4,200,right,704,2022-02-07_22h14.00.922,multiplicationStroop,2021.2.3,Win32,59.85515054,,,,,,,,,,,,,,,,,,,,,,,,,,,,,,,,,,,,,,,,,,,,,,,,,,,,,,,,,
,,,,right,1,0.3609,3,15,63,13,1,7,200,right,704,2022-02-07_22h14.00.922,multiplicationStroop,2021.2.3,Win32,59.85515054,,,,,,,,,,,,,,,,,,,,,,,,,,,,,,,,,,,,,,,,,,,,,,,,,,,,,,,,,
,,,,,,,,,,,,,,,704,2022-02-07_22h14.00.922,multiplicationStroop,2021.2.3,Win32,59.85515054,space,16.7789,space,4.6482,left,1,0.8992,0,0,0,68,1,6,6,6 | 6,0,1.9756,1.4111,neutral,left,,,,,,stimulusFile/physical.xlsx,,,,,,,,,,,,,,,,,,,,,,,,,,,,,,,
,,,,,,,,,,,,,,,704,2022-02-07_22h14.00.922,multiplicationStroop,2021.2.3,Win32,59.85515054,,,,,right,1,0.426,0,1,1,18,1,3,8,3 | 8,5,1.4111,1.9756,congruent,right,,,,,,stimulusFile/physical.xlsx,,,,,,,,,,,,,,,,,,,,,,,,,,,,,,,
,,,,,,,,,,,,,,,704,2022-02-07_22h14.00.922,multiplicationStroop,2021.2.3,Win32,59.85515054,,,,,right,1,0.4272,0,2,2,61,1,4,4,4 | 4,0,1.4111,1.9756,neutral,right,,,,,,stimulusFile/physical.xlsx,,,,,,,,,,,,,,,,,,,,,,,,,,,,,,,
,,,,,,,,,,,,,,,704,2022-02-07_22h14.00.922,multiplicationStroop,2021.2.3,Win32,59.85515054,,,,,left,0,0.4521,0,3,3,57,1,2,2,2 | 2,0,1.4111,1.9756,neutral,right,,,,,,stimulusFile/physical.xlsx,,,,,,,,,,,,,,,,,,,,,,,,,,,,,,,
,,,,,,,,,,,,,,,704,2022-02-07_22h14.00.922,multiplicationStroop,2021.2.3,Win32,59.85515054,,,,,right,1,0.7046,0,4,4,44,1,6,1,6 | 1,5,1.4111,1.9756,incongruent,right,,,,,,stimulusFile/physical.xlsx,,,,,,,,,,,,,,,,,,,,,,,,,,,,,,,
,,,,,,,,,,,,,,,704,2022-02-07_22h14.00.922,multiplicationStroop,2021.2.3,Win32,59.85515054,,,,,right,1,0.4438,0,5,5,28,1,2,1,2 | 1,1,1.4111,1.9756,incongruent,right,,,,,,stimulusFile/physical.xlsx,,,,,,,,,,,,,,,,,,,,,,,,,,,,,,,
,,,,,,,,,,,,,,,704,2022-02-07_22h14.00.922,multiplicationStroop,2021.2.3,Win32,59.85515054,,,,,right,1,0.55,0,6,6,31,1,9,8,9 | 8,1,1.4111,1.9756,incongruent,right,,,,,,stimulusFile/physical.xlsx,,,,,,,,,,,,,,,,,,,,,,,,,,,,,,,
,,,,,,,,,,,,,,,704,2022-02-07_22h14.00.922,multiplicationStroop,2021.2.3,Win32,59.85515054,,,,,left,1,0.4763,0,7,7,55,1,9,9,9 | 9,0,1.9756,1.4111,neutral,left,,,,,,stimulusFile/physical.xlsx,,,,,,,,,,,,,,,,,,,,,,,,,,,,,,,
,,,,,,,,,,,,,,,704,2022-02-07_22h14.00.922,multiplicationStroop,2021.2.3,Win32,59.85515054,,,,,right,1,0.5113,0,8,8,10,1,6,8,6 | 8,2,1.4111,1.9756,congruent,right,,,,,,stimulusFile/physical.xlsx,,,,,,,,,,,,,,,,,,,,,,,,,,,,,,,
,,,,,,,,,,,,,,,704,2022-02-07_22h14.00.922,multiplicationStroop,2021.2.3,Win32,59.85515054,,,,,right,1,0.4919,0,9,9,60,1,3,3,3 | 3,0,1.4111,1.9756,neutral,right,,,,,,stimulusFile/physical.xlsx,,,,,,,,,,,,,,,,,,,,,,,,,,,,,,,
,,,,,,,,,,,,,,,704,2022-02-07_22h14.00.922,multiplicationStroop,2021.2.3,Win32,59.85515054,,,,,left,1,0.4762,0,10,10,40,1,1,6,1 | 6,5,1.9756,1.4111,incongruent,left,,,,,,stimulusFile/physical.xlsx,,,,,,,,,,,,,,,,,,,,,,,,,,,,,,,
,,,,,,,,,,,,,,,704,2022-02-07_22h14.00.922,multiplicationStroop,2021.2.3,Win32,59.85515054,,,,,left,1,0.5011,0,11,11,43,1,4,9,4 | 9,5,1.9756,1.4111,incongruent,left,,,,,,stimulusFile/physical.xlsx,,,,,,,,,,,,,,,,,,,,,,,,,,,,,,,
,,,,,,,,,,,,,,,704,2022-02-07_22h14.00.922,multiplicationStroop,2021.2.3,Win32,59.85515054,,,,,left,1,0.6073,0,12,12,23,1,9,4,9 | 4,5,1.9756,1.4111,congruent,left,,,,,,stimulusFile/physical.xlsx,,,,,,,,,,,,,,,,,,,,,,,,,,,,,,,
,,,,,,,,,,,,,,,704,2022-02-07_22h14.00.922,multiplicationStroop,2021.2.3,Win32,59.85515054,,,,,right,1,0.4506,0,13,13,58,1,6,6,6 | 6,0,1.4111,1.9756,neutral,right,,,,,,stimulusFile/physical.xlsx,,,,,,,,,,,,,,,,,,,,,,,,,,,,,,,
,,,,,,,,,,,,,,,704,2022-02-07_22h14.00.922,multiplicationStroop,2021.2.3,Win32,59.85515054,,,,,left,1,0.4238,0,14,14,21,1,7,2,7 | 2,5,1.9756,1.4111,congruent,left,,,,,,stimulusFile/physical.xlsx,,,,,,,,,,,,,,,,,,,,,,,,,,,,,,,
,,,,,,,,,,,,,,,704,2022-02-07_22h14.00.922,multiplicationStroop,2021.2.3,Win32,59.85515054,,,,,left,1,0.4332,0,15,15,24,1,1,2,1 | 2,1,1.9756,1.4111,incongruent,left,,,,,,stimulusFile/physical.xlsx,,,,,,,,,,,,,,,,,,,,,,,,,,,,,,,
,,,,,,,,,,,,,,,704,2022-02-07_22h14.00.922,multiplicationStroop,2021.2.3,Win32,59.85515054,,,,,left,1,0.4173,0,16,16,20,1,6,1,6 | 1,5,1.9756,1.4111,congruent,left,,,,,,stimulusFile/physical.xlsx,,,,,,,,,,,,,,,,,,,,,,,,,,,,,,,
,,,,,,,,,,,,,,,704,2022-02-07_22h14.00.922,multiplicationStroop,2021.2.3,Win32,59.85515054,,,,,left,0,0.4202,0,17,17,64,1,1,1,1 | 1,0,1.9756,1.4111,neutral,right,,,,,,stimulusFile/physical.xlsx,,,,,,,,,,,,,,,,,,,,,,,,,,,,,,,
,,,,,,,,,,,,,,,704,2022-02-07_22h14.00.922,multiplicationStroop,2021.2.3,Win32,59.85515054,,,,,left,1,0.4874,0,18,18,14,1,8,6,8 | 6,2,1.9756,1.4111,congruent,left,,,,,,stimulusFile/physical.xlsx,,,,,,,,,,,,,,,,,,,,,,,,,,,,,,,
,,,,,,,,,,,,,,,704,2022-02-07_22h14.00.922,multiplicationStroop,2021.2.3,Win32,59.85515054,,,,,right,1,0.4862,0,19,19,8,1,1,3,1 | 3,2,1.4111,1.9756,congruent,right,,,,,,stimulusFile/physical.xlsx,,,,,,,,,,,,,,,,,,,,,,,,,,,,,,,
,,,,,,,,,,,,,,,704,2022-02-07_22h14.00.922,multiplicationStroop,2021.2.3,Win32,59.85515054,,,,,right,1,0.4037,0,20,20,0,1,1,2,1 | 2,1,1.4111,1.9756,congruent,right,,,,,,stimulusFile/physical.xlsx,,,,,,,,,,,,,,,,,,,,,,,,,,,,,,,
,,,,,,,,,,,,,,,704,2022-02-07_22h14.00.922,multiplicationStroop,2021.2.3,Win32,59.85515054,,,,,right,1,0.5636,0,21,21,46,1,8,3,8 | 3,5,1.4111,1.9756,incongruent,right,,,,,,stimulusFile/physical.xlsx,,,,,,,,,,,,,,,,,,,,,,,,,,,,,,,
,,,,,,,,,,,,,,,704,2022-02-07_22h14.00.922,multiplicationStroop,2021.2.3,Win32,59.85515054,,,,,right,1,0.5234,0,22,22,59,1,7,7,7 | 7,0,1.4111,1.9756,neutral,right,,,,,,stimulusFile/physical.xlsx,,,,,,,,,,,,,,,,,,,,,,,,,,,,,,,
,,,,,,,,,,,,,,,704,2022-02-07_22h14.00.922,multiplicationStroop,2021.2.3,Win32,59.85515054,,,,,left,1,0.4687,0,23,23,34,1,6,8,6 | 8,2,1.9756,1.4111,incongruent,left,,,,,,stimulusFile/physical.xlsx,,,,,,,,,,,,,,,,,,,,,,,,,,,,,,,
,,,,,,,,,,,,,,,704,2022-02-07_22h14.00.922,multiplicationStroop,2021.2.3,Win32,59.85515054,,,,,left,1,0.4242,0,24,24,35,1,7,9,7 | 9,2,1.9756,1.4111,incongruent,left,,,,,,stimulusFile/physical.xlsx,,,,,,,,,,,,,,,,,,,,,,,,,,,,,,,
,,,,,,,,,,,,,,,704,2022-02-07_22h14.00.922,multiplicationStroop,2021.2.3,Win32,59.85515054,,,,,left,0,0.4598,0,25,25,63,1,9,9,9 | 9,0,1.4111,1.9756,neutral,right,,,,,,stimulusFile/physical.xlsx,,,,,,,,,,,,,,,,,,,,,,,,,,,,,,,
,,,,,,,,,,,,,,,704,2022-02-07_22h14.00.922,multiplicationStroop,2021.2.3,Win32,59.85515054,,,,,left,1,0.5155,0,26,26,48,1,1,1,1 | 1,0,1.9756,1.4111,neutral,left,,,,,,stimulusFile/physical.xlsx,,,,,,,,,,,,,,,,,,,,,,,,,,,,,,,
,,,,,,,,,,,,,,,704,2022-02-07_22h14.00.922,multiplicationStroop,2021.2.3,Win32,59.85515054,,,,,right,1,0.4691,0,27,27,16,1,1,6,1 | 6,5,1.4111,1.9756,congruent,right,,,,,,stimulusFile/physical.xlsx,,,,,,,,,,,,,,,,,,,,,,,,,,,,,,,
,,,,,,,,,,,,,,,704,2022-02-07_22h14.00.922,multiplicationStroop,2021.2.3,Win32,59.85515054,,,,,left,1,0.455,0,28,28,5,1,4,3,4 | 3,1,1.9756,1.4111,congruent,left,,,,,,stimulusFile/physical.xlsx,,,,,,,,,,,,,,,,,,,,,,,,,,,,,,,
,,,,,,,,,,,,,,,704,2022-02-07_22h14.00.922,multiplicationStroop,2021.2.3,Win32,59.85515054,,,,,left,1,0.5439,0,29,29,51,1,8,8,8 | 8,0,1.9756,1.4111,neutral,left,,,,,,stimulusFile/physical.xlsx,,,,,,,,,,,,,,,,,,,,,,,,,,,,,,,
,,,,,,,,,,,,,,,704,2022-02-07_22h14.00.922,multiplicationStroop,2021.2.3,Win32,59.85515054,,,,,left,1,0.5762,0,30,30,32,1,1,3,1 | 3,2,1.9756,1.4111,incongruent,left,,,,,,stimulusFile/physical.xlsx,,,,,,,,,,,,,,,,,,,,,,,,,,,,,,,
,,,,,,,,,,,,,,,704,2022-02-07_22h14.00.922,multiplicationStroop,2021.2.3,Win32,59.85515054,,,,,right,1,0.5188,0,31,31,45,1,7,2,7 | 2,5,1.4111,1.9756,incongruent,right,,,,,,stimulusFile/physical.xlsx,,,,,,,,,,,,,,,,,,,,,,,,,,,,,,,
,,,,,,,,,,,,,,,704,2022-02-07_22h14.00.922,multiplicationStroop,2021.2.3,Win32,59.85515054,,,,,left,1,0.6186,0,32,32,25,1,3,4,3 | 4,1,1.9756,1.4111,incongruent,left,,,,,,stimulusFile/physical.xlsx,,,,,,,,,,,,,,,,,,,,,,,,,,,,,,,
,,,,,,,,,,,,,,,704,2022-02-07_22h14.00.922,multiplicationStroop,2021.2.3,Win32,59.85515054,,,,,right,1,0.4519,0,33,33,2,1,6,7,6 | 7,1,1.4111,1.9756,congruent,right,,,,,,stimulusFile/physical.xlsx,,,,,,,,,,,,,,,,,,,,,,,,,,,,,,,
,,,,,,,,,,,,,,,704,2022-02-07_22h14.00.922,multiplicationStroop,2021.2.3,Win32,59.85515054,,,,,right,1,0.5004,0,34,34,37,1,4,2,4 | 2,2,1.4111,1.9756,incongruent,right,,,,,,stimulusFile/physical.xlsx,,,,,,,,,,,,,,,,,,,,,,,,,,,,,,,
,,,,,,,,,,,,,,,704,2022-02-07_22h14.00.922,multiplicationStroop,2021.2.3,Win32,59.85515054,,,,,right,1,0.4784,0,35,35,38,1,8,6,8 | 6,2,1.4111,1.9756,incongruent,right,,,,,,stimulusFile/physical.xlsx,,,,,,,,,,,,,,,,,,,,,,,,,,,,,,,
,,,,,,,,,,,,,,,704,2022-02-07_22h14.00.922,multiplicationStroop,2021.2.3,Win32,59.85515054,,,,,right,1,0.4989,0,36,36,11,1,7,9,7 | 9,2,1.4111,1.9756,congruent,right,,,,,,stimulusFile/physical.xlsx,,,,,,,,,,,,,,,,,,,,,,,,,,,,,,,
,,,,,,,,,,,,,,,704,2022-02-07_22h14.00.922,multiplicationStroop,2021.2.3,Win32,59.85515054,,,,,left,1,0.4971,0,37,37,70,1,8,8,8 | 8,0,1.9756,1.4111,neutral,left,,,,,,stimulusFile/physical.xlsx,,,,,,,,,,,,,,,,,,,,,,,,,,,,,,,
,,,,,,,,,,,,,,,704,2022-02-07_22h14.00.922,multiplicationStroop,2021.2.3,Win32,59.85515054,,,,,left,1,0.4703,0,38,38,7,1,9,8,9 | 8,1,1.9756,1.4111,congruent,left,,,,,,stimulusFile/physical.xlsx,,,,,,,,,,,,,,,,,,,,,,,,,,,,,,,
,,,,,,,,,,,,,,,704,2022-02-07_22h14.00.922,multiplicationStroop,2021.2.3,Win32,59.85515054,,,,,right,1,0.5435,0,39,39,1,1,3,4,3 | 4,1,1.4111,1.9756,congruent,right,,,,,,stimulusFile/physical.xlsx,,,,,,,,,,,,,,,,,,,,,,,,,,,,,,,
,,,,,,,,,,,,,,,704,2022-02-07_22h14.00.922,multiplicationStroop,2021.2.3,Win32,59.85515054,,,,,right,1,0.389,0,40,40,30,1,7,6,7 | 6,1,1.4111,1.9756,incongruent,right,,,,,,stimulusFile/physical.xlsx,,,,,,,,,,,,,,,,,,,,,,,,,,,,,,,
,,,,,,,,,,,,,,,704,2022-02-07_22h14.00.922,multiplicationStroop,2021.2.3,Win32,59.85515054,,,,,left,1,0.4506,0,41,41,41,1,2,7,2 | 7,5,1.9756,1.4111,incongruent,left,,,,,,stimulusFile/physical.xlsx,,,,,,,,,,,,,,,,,,,,,,,,,,,,,,,
,,,,,,,,,,,,,,,704,2022-02-07_22h14.00.922,multiplicationStroop,2021.2.3,Win32,59.85515054,,,,,left,1,0.4409,0,42,42,27,1,8,9,8 | 9,1,1.9756,1.4111,incongruent,left,,,,,,stimulusFile/physical.xlsx,,,,,,,,,,,,,,,,,,,,,,,,,,,,,,,
,,,,,,,,,,,,,,,704,2022-02-07_22h14.00.922,multiplicationStroop,2021.2.3,Win32,59.85515054,,,,,left,1,0.6328,0,43,43,6,1,7,6,7 | 6,1,1.9756,1.4111,congruent,left,,,,,,stimulusFile/physical.xlsx,,,,,,,,,,,,,,,,,,,,,,,,,,,,,,,
,,,,,,,,,,,,,,,704,2022-02-07_22h14.00.922,multiplicationStroop,2021.2.3,Win32,59.85515054,,,,,right,1,0.359,0,44,44,62,1,8,8,8 | 8,0,1.4111,1.9756,neutral,right,,,,,,stimulusFile/physical.xlsx,,,,,,,,,,,,,,,,,,,,,,,,,,,,,,,
,,,,,,,,,,,,,,,704,2022-02-07_22h14.00.922,multiplicationStroop,2021.2.3,Win32,59.85515054,,,,,right,1,0.4614,0,45,45,17,1,2,7,2 | 7,5,1.4111,1.9756,congruent,right,,,,,,stimulusFile/physical.xlsx,,,,,,,,,,,,,,,,,,,,,,,,,,,,,,,
,,,,,,,,,,,,,,,704,2022-02-07_22h14.00.922,multiplicationStroop,2021.2.3,Win32,59.85515054,,,,,left,1,0.4774,0,46,46,54,1,7,7,7 | 7,0,1.9756,1.4111,neutral,left,,,,,,stimulusFile/physical.xlsx,,,,,,,,,,,,,,,,,,,,,,,,,,,,,,,
,,,,,,,,,,,,,,,704,2022-02-07_22h14.00.922,multiplicationStroop,2021.2.3,Win32,59.85515054,,,,,left,1,0.4384,0,47,47,15,1,9,7,9 | 7,2,1.9756,1.4111,congruent,left,,,,,,stimulusFile/physical.xlsx,,,,,,,,,,,,,,,,,,,,,,,,,,,,,,,
,,,,,,,,,,,,,,,704,2022-02-07_22h14.00.922,multiplicationStroop,2021.2.3,Win32,59.85515054,,,,,left,1,0.5458,0,48,48,53,1,4,4,4 | 4,0,1.9756,1.4111,neutral,left,,,,,,stimulusFile/physical.xlsx,,,,,,,,,,,,,,,,,,,,,,,,,,,,,,,
,,,,,,,,,,,,,,,704,2022-02-07_22h14.00.922,multiplicationStroop,2021.2.3,Win32,59.85515054,,,,,right,1,0.4479,0,49,49,65,1,2,2,2 | 2,0,1.4111,1.9756,neutral,right,,,,,,stimulusFile/physical.xlsx,,,,,,,,,,,,,,,,,,,,,,,,,,,,,,,
,,,,,,,,,,,,,,,704,2022-02-07_22h14.00.922,multiplicationStroop,2021.2.3,Win32,59.85515054,,,,,right,1,0.4855,0,50,50,3,1,8,9,8 | 9,1,1.4111,1.9756,congruent,right,,,,,,stimulusFile/physical.xlsx,,,,,,,,,,,,,,,,,,,,,,,,,,,,,,,
,,,,,,,,,,,,,,,704,2022-02-07_22h14.00.922,multiplicationStroop,2021.2.3,Win32,59.85515054,,,,,right,1,0.4076,0,51,51,19,1,4,9,4 | 9,5,1.4111,1.9756,congruent,right,,,,,,stimulusFile/physical.xlsx,,,,,,,,,,,,,,,,,,,,,,,,,,,,,,,
,,,,,,,,,,,,,,,704,2022-02-07_22h14.00.922,multiplicationStroop,2021.2.3,Win32,59.85515054,,,,,left,1,0.4683,0,52,52,33,1,2,4,2 | 4,2,1.9756,1.4111,incongruent,left,,,,,,stimulusFile/physical.xlsx,,,,,,,,,,,,,,,,,,,,,,,,,,,,,,,
,,,,,,,,,,,,,,,704,2022-02-07_22h14.00.922,multiplicationStroop,2021.2.3,Win32,59.85515054,,,,,right,0,0.5917,0,53,53,69,1,7,7,7 | 7,0,1.4111,1.9756,neutral,left,,,,,,stimulusFile/physical.xlsx,,,,,,,,,,,,,,,,,,,,,,,,,,,,,,,
,,,,,,,,,,,,,,,704,2022-02-07_22h14.00.922,multiplicationStroop,2021.2.3,Win32,59.85515054,,,,,left,1,0.4692,0,54,54,26,1,6,7,6 | 7,1,1.9756,1.4111,incongruent,left,,,,,,stimulusFile/physical.xlsx,,,,,,,,,,,,,,,,,,,,,,,,,,,,,,,
,,,,,,,,,,,,,,,704,2022-02-07_22h14.00.922,multiplicationStroop,2021.2.3,Win32,59.85515054,,,,,left,1,0.5432,0,55,55,12,1,3,1,3 | 1,2,1.9756,1.4111,congruent,left,,,,,,stimulusFile/physical.xlsx,,,,,,,,,,,,,,,,,,,,,,,,,,,,,,,
,,,,,,,,,,,,,,,704,2022-02-07_22h14.00.922,multiplicationStroop,2021.2.3,Win32,59.85515054,,,,,left,1,0.5165,0,56,56,50,1,6,6,6 | 6,0,1.9756,1.4111,neutral,left,,,,,,stimulusFile/physical.xlsx,,,,,,,,,,,,,,,,,,,,,,,,,,,,,,,
,,,,,,,,,,,,,,,704,2022-02-07_22h14.00.922,multiplicationStroop,2021.2.3,Win32,59.85515054,,,,,right,1,0.5101,0,57,57,9,1,2,4,2 | 4,2,1.4111,1.9756,congruent,right,,,,,,stimulusFile/physical.xlsx,,,,,,,,,,,,,,,,,,,,,,,,,,,,,,,
,,,,,,,,,,,,,,,704,2022-02-07_22h14.00.922,multiplicationStroop,2021.2.3,Win32,59.85515054,,,,,right,1,0.5493,0,58,58,39,1,9,7,9 | 7,2,1.4111,1.9756,incongruent,right,,,,,,stimulusFile/physical.xlsx,,,,,,,,,,,,,,,,,,,,,,,,,,,,,,,
,,,,,,,,,,,,,,,704,2022-02-07_22h14.00.922,multiplicationStroop,2021.2.3,Win32,59.85515054,,,,,right,1,0.5185,0,59,59,29,1,4,3,4 | 3,1,1.4111,1.9756,incongruent,right,,,,,,stimulusFile/physical.xlsx,,,,,,,,,,,,,,,,,,,,,,,,,,,,,,,
,,,,,,,,,,,,,,,704,2022-02-07_22h14.00.922,multiplicationStroop,2021.2.3,Win32,59.85515054,,,,,right,1,0.5003,0,60,60,67,1,4,4,4 | 4,0,1.4111,1.9756,neutral,right,,,,,,stimulusFile/physical.xlsx,,,,,,,,,,,,,,,,,,,,,,,,,,,,,,,
,,,,,,,,,,,,,,,704,2022-02-07_22h14.00.922,multiplicationStroop,2021.2.3,Win32,59.85515054,,,,,left,1,0.4737,0,61,61,42,1,3,8,3 | 8,5,1.9756,1.4111,incongruent,left,,,,,,stimulusFile/physical.xlsx,,,,,,,,,,,,,,,,,,,,,,,,,,,,,,,
,,,,,,,,,,,,,,,704,2022-02-07_22h14.00.922,multiplicationStroop,2021.2.3,Win32,59.85515054,,,,,left,1,0.4678,0,62,62,52,1,2,2,2 | 2,0,1.9756,1.4111,neutral,left,,,,,,stimulusFile/physical.xlsx,,,,,,,,,,,,,,,,,,,,,,,,,,,,,,,
,,,,,,,,,,,,,,,704,2022-02-07_22h14.00.922,multiplicationStroop,2021.2.3,Win32,59.85515054,,,,,left,1,0.4912,0,63,63,49,1,3,3,3 | 3,0,1.9756,1.4111,neutral,left,,,,,,stimulusFile/physical.xlsx,,,,,,,,,,,,,,,,,,,,,,,,,,,,,,,
,,,,,,,,,,,,,,,704,2022-02-07_22h14.00.922,multiplicationStroop,2021.2.3,Win32,59.85515054,,,,,right,1,0.4779,0,64,64,56,1,1,1,1 | 1,0,1.4111,1.9756,neutral,right,,,,,,stimulusFile/physical.xlsx,,,,,,,,,,,,,,,,,,,,,,,,,,,,,,,
,,,,,,,,,,,,,,,704,2022-02-07_22h14.00.922,multiplicationStroop,2021.2.3,Win32,59.85515054,,,,,left,0,0.4715,0,65,65,66,1,3,3,3 | 3,0,1.9756,1.4111,neutral,right,,,,,,stimulusFile/physical.xlsx,,,,,,,,,,,,,,,,,,,,,,,,,,,,,,,
,,,,,,,,,,,,,,,704,2022-02-07_22h14.00.922,multiplicationStroop,2021.2.3,Win32,59.85515054,,,,,left,1,0.4764,0,66,66,22,1,8,3,8 | 3,5,1.9756,1.4111,congruent,left,,,,,,stimulusFile/physical.xlsx,,,,,,,,,,,,,,,,,,,,,,,,,,,,,,,
,,,,,,,,,,,,,,,704,2022-02-07_22h14.00.922,multiplicationStroop,2021.2.3,Win32,59.85515054,,,,,left,1,0.4393,0,67,67,13,1,4,2,4 | 2,2,1.9756,1.4111,congruent,left,,,,,,stimulusFile/physical.xlsx,,,,,,,,,,,,,,,,,,,,,,,,,,,,,,,
,,,,,,,,,,,,,,,704,2022-02-07_22h14.00.922,multiplicationStroop,2021.2.3,Win32,59.85515054,,,,,right,1,0.4861,0,68,68,36,1,3,1,3 | 1,2,1.4111,1.9756,incongruent,right,,,,,,stimulusFile/physical.xlsx,,,,,,,,,,,,,,,,,,,,,,,,,,,,,,,
,,,,,,,,,,,,,,,704,2022-02-07_22h14.00.922,multiplicationStroop,2021.2.3,Win32,59.85515054,,,,,right,0,0.4059,0,69,69,71,1,9,9,9 | 9,0,1.4111,1.9756,neutral,left,,,,,,stimulusFile/physical.xlsx,,,,,,,,,,,,,,,,,,,,,,,,,,,,,,,
,,,,,,,,,,,,,,,704,2022-02-07_22h14.00.922,multiplicationStroop,2021.2.3,Win32,59.85515054,,,,,left,1,0.4109,0,70,70,4,1,2,1,2 | 1,1,1.9756,1.4111,congruent,left,,,,,,stimulusFile/physical.xlsx,,,,,,,,,,,,,,,,,,,,,,,,,,,,,,,
,,,,,,,,,,,,,,,704,2022-02-07_22h14.00.922,multiplicationStroop,2021.2.3,Win32,59.85515054,,,,,right,1,0.4581,0,71,71,47,1,9,4,9 | 4,5,1.4111,1.9756,incongruent,right,,,,,,stimulusFile/physical.xlsx,,,,,,,,,,,,,,,,,,,,,,,,,,,,,,,
,,,,,,,,,,,,,,,704,2022-02-07_22h14.00.922,multiplicationStroop,2021.2.3,Win32,59.85515054,,,,,,,,,,,,,,,,,,,,,0,0,0,1,1,stimulusFile/physical.xlsx,PHYSICALLY larger (larger font size).,images/physicallyLarger.png,,,,,,,,,,,,,,,,,,,,,,,,,,,,,
,,,,,,,,,,,,,,,704,2022-02-07_22h14.00.922,multiplicationStroop,2021.2.3,Win32,59.85515054,space,4.4497,space,9.3089,right,1,0.5422,0,0,0,8,1,1,3,1 | 3,2,1.4111,1.9756,congruent,right,,,,,,stimulusFile/magnitude.xlsx,,,,,,,,,,,,,,,,,,,,,,,,,,,,,,,
,,,,,,,,,,,,,,,704,2022-02-07_22h14.00.922,multiplicationStroop,2021.2.3,Win32,59.85515054,,,,,left,1,0.6718,0,1,1,38,1,8,6,8 | 6,2,1.4111,1.9756,incongruent,left,,,,,,stimulusFile/magnitude.xlsx,,,,,,,,,,,,,,,,,,,,,,,,,,,,,,,
,,,,,,,,,,,,,,,704,2022-02-07_22h14.00.922,multiplicationStroop,2021.2.3,Win32,59.85515054,,,,,left,1,0.475,0,2,2,70,1,8,3,8 | 3,5,1.6933,1.6933,neutral,left,,,,,,stimulusFile/magnitude.xlsx,,,,,,,,,,,,,,,,,,,,,,,,,,,,,,,
,,,,,,,,,,,,,,,704,2022-02-07_22h14.00.922,multiplicationStroop,2021.2.3,Win32,59.85515054,,,,,left,1,0.6833,0,3,3,55,1,9,8,9 | 8,1,1.6933,1.6933,neutral,left,,,,,,stimulusFile/magnitude.xlsx,,,,,,,,,,,,,,,,,,,,,,,,,,,,,,,
,,,,,,,,,,,,,,,704,2022-02-07_22h14.00.922,multiplicationStroop,2021.2.3,Win32,59.85515054,,,,,right,1,0.4634,0,4,4,17,1,2,7,2 | 7,5,1.4111,1.9756,congruent,right,,,,,,stimulusFile/magnitude.xlsx,,,,,,,,,,,,,,,,,,,,,,,,,,,,,,,
,,,,,,,,,,,,,,,704,2022-02-07_22h14.00.922,multiplicationStroop,2021.2.3,Win32,59.85515054,,,,,right,1,0.7237,0,5,5,41,1,2,7,2 | 7,5,1.9756,1.4111,incongruent,right,,,,,,stimulusFile/magnitude.xlsx,,,,,,,,,,,,,,,,,,,,,,,,,,,,,,,
,,,,,,,,,,,,,,,704,2022-02-07_22h14.00.922,multiplicationStroop,2021.2.3,Win32,59.85515054,,,,,left,1,0.6926,0,6,6,46,1,8,3,8 | 3,5,1.4111,1.9756,incongruent,left,,,,,,stimulusFile/magnitude.xlsx,,,,,,,,,,,,,,,,,,,,,,,,,,,,,,,
,,,,,,,,,,,,,,,704,2022-02-07_22h14.00.922,multiplicationStroop,2021.2.3,Win32,59.85515054,,,,,left,1,0.6029,0,7,7,52,1,2,1,2 | 1,1,1.6933,1.6933,neutral,left,,,,,,stimulusFile/magnitude.xlsx,,,,,,,,,,,,,,,,,,,,,,,,,,,,,,,
,,,,,,,,,,,,,,,704,2022-02-07_22h14.00.922,multiplicationStroop,2021.2.3,Win32,59.85515054,,,,,left,1,0.5042,0,8,8,63,1,9,7,9 | 7,2,1.6933,1.6933,neutral,left,,,,,,stimulusFile/magnitude.xlsx,,,,,,,,,,,,,,,,,,,,,,,,,,,,,,,
,,,,,,,,,,,,,,,704,2022-02-07_22h14.00.922,multiplicationStroop,2021.2.3,Win32,59.85515054,,,,,right,1,0.4826,0,9,9,40,1,1,6,1 | 6,5,1.9756,1.4111,incongruent,right,,,,,,stimulusFile/magnitude.xlsx,,,,,,,,,,,,,,,,,,,,,,,,,,,,,,,
,,,,,,,,,,,,,,,704,2022-02-07_22h14.00.922,multiplicationStroop,2021.2.3,Win32,59.85515054,,,,,left,1,0.6541,0,10,10,7,1,9,8,9 | 8,1,1.9756,1.4111,congruent,left,,,,,,stimulusFile/magnitude.xlsx,,,,,,,,,,,,,,,,,,,,,,,,,,,,,,,
,,,,,,,,,,,,,,,704,2022-02-07_22h14.00.922,multiplicationStroop,2021.2.3,Win32,59.85515054,,,,,right,1,0.5955,0,11,11,51,1,8,9,8 | 9,1,1.6933,1.6933,neutral,right,,,,,,stimulusFile/magnitude.xlsx,,,,,,,,,,,,,,,,,,,,,,,,,,,,,,,
,,,,,,,,,,,,,,,704,2022-02-07_22h14.00.922,multiplicationStroop,2021.2.3,Win32,59.85515054,,,,,left,1,0.4935,0,12,12,36,1,3,1,3 | 1,2,1.4111,1.9756,incongruent,left,,,,,,stimulusFile/magnitude.xlsx,,,,,,,,,,,,,,,,,,,,,,,,,,,,,,,
,,,,,,,,,,,,,,,704,2022-02-07_22h14.00.922,multiplicationStroop,2021.2.3,Win32,59.85515054,,,,,left,0,0.5787,0,13,13,42,1,3,8,3 | 8,5,1.9756,1.4111,incongruent,right,,,,,,stimulusFile/magnitude.xlsx,,,,,,,,,,,,,,,,,,,,,,,,,,,,,,,
,,,,,,,,,,,,,,,704,2022-02-07_22h14.00.922,multiplicationStroop,2021.2.3,Win32,59.85515054,,,,,left,1,0.9471,0,14,14,31,1,9,8,9 | 8,1,1.4111,1.9756,incongruent,left,,,,,,stimulusFile/magnitude.xlsx,,,,,,,,,,,,,,,,,,,,,,,,,,,,,,,
,,,,,,,,,,,,,,,704,2022-02-07_22h14.00.922,multiplicationStroop,2021.2.3,Win32,59.85515054,,,,,right,1,0.676,0,15,15,3,1,8,9,8 | 9,1,1.4111,1.9756,congruent,right,,,,,,stimulusFile/magnitude.xlsx,,,,,,,,,,,,,,,,,,,,,,,,,,,,,,,
,,,,,,,,,,,,,,,704,2022-02-07_22h14.00.922,multiplicationStroop,2021.2.3,Win32,59.85515054,,,,,right,1,0.8029,0,16,16,33,1,2,4,2 | 4,2,1.9756,1.4111,incongruent,right,,,,,,stimulusFile/magnitude.xlsx,,,,,,,,,,,,,,,,,,,,,,,,,,,,,,,
,,,,,,,,,,,,,,,704,2022-02-07_22h14.00.922,multiplicationStroop,2021.2.3,Win32,59.85515054,,,,,left,1,0.4425,0,17,17,22,1,8,3,8 | 3,5,1.9756,1.4111,congruent,left,,,,,,stimulusFile/magnitude.xlsx,,,,,,,,,,,,,,,,,,,,,,,,,,,,,,,
,,,,,,,,,,,,,,,704,2022-02-07_22h14.00.922,multiplicationStroop,2021.2.3,Win32,59.85515054,,,,,right,1,0.8509,0,18,18,24,1,1,2,1 | 2,1,1.9756,1.4111,incongruent,right,,,,,,stimulusFile/magnitude.xlsx,,,,,,,,,,,,,,,,,,,,,,,,,,,,,,,
,,,,,,,,,,,,,,,704,2022-02-07_22h14.00.922,multiplicationStroop,2021.2.3,Win32,59.85515054,,,,,right,1,0.8299,0,19,19,66,1,3,8,3 | 8,5,1.6933,1.6933,neutral,right,,,,,,stimulusFile/magnitude.xlsx,,,,,,,,,,,,,,,,,,,,,,,,,,,,,,,
,,,,,,,,,,,,,,,704,2022-02-07_22h14.00.922,multiplicationStroop,2021.2.3,Win32,59.85515054,,,,,right,1,0.5659,0,20,20,67,1,4,9,4 | 9,5,1.6933,1.6933,neutral,right,,,,,,stimulusFile/magnitude.xlsx,,,,,,,,,,,,,,,,,,,,,,,,,,,,,,,
,,,,,,,,,,,,,,,704,2022-02-07_22h14.00.922,multiplicationStroop,2021.2.3,Win32,59.85515054,,,,,left,1,0.637,0,21,21,39,1,9,7,9 | 7,2,1.4111,1.9756,incongruent,left,,,,,,stimulusFile/magnitude.xlsx,,,,,,,,,,,,,,,,,,,,,,,,,,,,,,,
,,,,,,,,,,,,,,,704,2022-02-07_22h14.00.922,multiplicationStroop,2021.2.3,Win32,59.85515054,,,,,left,1,0.6162,0,22,22,45,1,7,2,7 | 2,5,1.4111,1.9756,incongruent,left,,,,,,stimulusFile/magnitude.xlsx,,,,,,,,,,,,,,,,,,,,,,,,,,,,,,,
,,,,,,,,,,,,,,,704,2022-02-07_22h14.00.922,multiplicationStroop,2021.2.3,Win32,59.85515054,,,,,right,1,0.6682,0,23,23,25,1,3,4,3 | 4,1,1.9756,1.4111,incongruent,right,,,,,,stimulusFile/magnitude.xlsx,,,,,,,,,,,,,,,,,,,,,,,,,,,,,,,
,,,,,,,,,,,,,,,704,2022-02-07_22h14.00.922,multiplicationStroop,2021.2.3,Win32,59.85515054,,,,,right,1,0.8133,0,24,24,16,1,1,6,1 | 6,5,1.4111,1.9756,congruent,right,,,,,,stimulusFile/magnitude.xlsx,,,,,,,,,,,,,,,,,,,,,,,,,,,,,,,
,,,,,,,,,,,,,,,704,2022-02-07_22h14.00.922,multiplicationStroop,2021.2.3,Win32,59.85515054,,,,,right,1,0.4494,0,25,25,0,1,1,2,1 | 2,1,1.4111,1.9756,congruent,right,,,,,,stimulusFile/magnitude.xlsx,,,,,,,,,,,,,,,,,,,,,,,,,,,,,,,
,,,,,,,,,,,,,,,704,2022-02-07_22h14.00.922,multiplicationStroop,2021.2.3,Win32,59.85515054,,,,,left,1,0.6464,0,26,26,47,1,9,4,9 | 4,5,1.4111,1.9756,incongruent,left,,,,,,stimulusFile/magnitude.xlsx,,,,,,,,,,,,,,,,,,,,,,,,,,,,,,,
,,,,,,,,,,,,,,,704,2022-02-07_22h14.00.922,multiplicationStroop,2021.2.3,Win32,59.85515054,,,,,left,1,0.6404,0,27,27,4,1,2,1,2 | 1,1,1.9756,1.4111,congruent,left,,,,,,stimulusFile/magnitude.xlsx,,,,,,,,,,,,,,,,,,,,,,,,,,,,,,,
,,,,,,,,,,,,,,,704,2022-02-07_22h14.00.922,multiplicationStroop,2021.2.3,Win32,59.85515054,,,,,left,1,0.535,0,28,28,68,1,6,1,6 | 1,5,1.6933,1.6933,neutral,left,,,,,,stimulusFile/magnitude.xlsx,,,,,,,,,,,,,,,,,,,,,,,,,,,,,,,
,,,,,,,,,,,,,,,704,2022-02-07_22h14.00.922,multiplicationStroop,2021.2.3,Win32,59.85515054,,,,,right,1,0.5578,0,29,29,9,1,2,4,2 | 4,2,1.4111,1.9756,congruent,right,,,,,,stimulusFile/magnitude.xlsx,,,,,,,,,,,,,,,,,,,,,,,,,,,,,,,
,,,,,,,,,,,,,,,704,2022-02-07_22h14.00.922,multiplicationStroop,2021.2.3,Win32,59.85515054,,,,,right,1,0.7372,0,30,30,27,1,8,9,8 | 9,1,1.9756,1.4111,incongruent,right,,,,,,stimulusFile/magnitude.xlsx,,,,,,,,,,,,,,,,,,,,,,,,,,,,,,,
,,,,,,,,,,,,,,,704,2022-02-07_22h14.00.922,multiplicationStroop,2021.2.3,Win32,59.85515054,,,,,right,1,0.6419,0,31,31,56,1,1,3,1 | 3,2,1.6933,1.6933,neutral,right,,,,,,stimulusFile/magnitude.xlsx,,,,,,,,,,,,,,,,,,,,,,,,,,,,,,,
,,,,,,,,,,,,,,,704,2022-02-07_22h14.00.922,multiplicationStroop,2021.2.3,Win32,59.85515054,,,,,left,1,0.6509,0,32,32,29,1,4,3,4 | 3,1,1.4111,1.9756,incongruent,left,,,,,,stimulusFile/magnitude.xlsx,,,,,,,,,,,,,,,,,,,,,,,,,,,,,,,
,,,,,,,,,,,,,,,704,2022-02-07_22h14.00.922,multiplicationStroop,2021.2.3,Win32,59.85515054,,,,,right,1,0.7126,0,33,33,35,1,7,9,7 | 9,2,1.9756,1.4111,incongruent,right,,,,,,stimulusFile/magnitude.xlsx,,,,,,,,,,,,,,,,,,,,,,,,,,,,,,,
,,,,,,,,,,,,,,,704,2022-02-07_22h14.00.922,multiplicationStroop,2021.2.3,Win32,59.85515054,,,,,right,1,0.5712,0,34,34,18,1,3,8,3 | 8,5,1.4111,1.9756,congruent,right,,,,,,stimulusFile/magnitude.xlsx,,,,,,,,,,,,,,,,,,,,,,,,,,,,,,,
,,,,,,,,,,,,,,,704,2022-02-07_22h14.00.922,multiplicationStroop,2021.2.3,Win32,59.85515054,,,,,right,1,0.7799,0,35,35,34,1,6,8,6 | 8,2,1.9756,1.4111,incongruent,right,,,,,,stimulusFile/magnitude.xlsx,,,,,,,,,,,,,,,,,,,,,,,,,,,,,,,
,,,,,,,,,,,,,,,704,2022-02-07_22h14.00.922,multiplicationStroop,2021.2.3,Win32,59.85515054,,,,,right,1,0.5156,0,36,36,50,1,6,7,6 | 7,1,1.6933,1.6933,neutral,right,,,,,,stimulusFile/magnitude.xlsx,,,,,,,,,,,,,,,,,,,,,,,,,,,,,,,
,,,,,,,,,,,,,,,704,2022-02-07_22h14.00.922,multiplicationStroop,2021.2.3,Win32,59.85515054,,,,,left,1,0.5707,0,37,37,6,1,7,6,7 | 6,1,1.9756,1.4111,congruent,left,,,,,,stimulusFile/magnitude.xlsx,,,,,,,,,,,,,,,,,,,,,,,,,,,,,,,
,,,,,,,,,,,,,,,704,2022-02-07_22h14.00.922,multiplicationStroop,2021.2.3,Win32,59.85515054,,,,,left,1,0.6499,0,38,38,54,1,7,6,7 | 6,1,1.6933,1.6933,neutral,left,,,,,,stimulusFile/magnitude.xlsx,,,,,,,,,,,,,,,,,,,,,,,,,,,,,,,
,,,,,,,,,,,,,,,704,2022-02-07_22h14.00.922,multiplicationStroop,2021.2.3,Win32,59.85515054,,,,,left,1,0.6299,0,39,39,14,1,8,6,8 | 6,2,1.9756,1.4111,congruent,left,,,,,,stimulusFile/magnitude.xlsx,,,,,,,,,,,,,,,,,,,,,,,,,,,,,,,
,,,,,,,,,,,,,,,704,2022-02-07_22h14.00.922,multiplicationStroop,2021.2.3,Win32,59.85515054,,,,,left,1,0.7393,0,40,40,28,1,2,1,2 | 1,1,1.4111,1.9756,incongruent,left,,,,,,stimulusFile/magnitude.xlsx,,,,,,,,,,,,,,,,,,,,,,,,,,,,,,,
,,,,,,,,,,,,,,,704,2022-02-07_22h14.00.922,multiplicationStroop,2021.2.3,Win32,59.85515054,,,,,left,1,0.5832,0,41,41,61,1,4,2,4 | 2,2,1.6933,1.6933,neutral,left,,,,,,stimulusFile/magnitude.xlsx,,,,,,,,,,,,,,,,,,,,,,,,,,,,,,,
,,,,,,,,,,,,,,,704,2022-02-07_22h14.00.922,multiplicationStroop,2021.2.3,Win32,59.85515054,,,,,right,1,0.6989,0,42,42,1,1,3,4,3 | 4,1,1.4111,1.9756,congruent,right,,,,,,stimulusFile/magnitude.xlsx,,,,,,,,,,,,,,,,,,,,,,,,,,,,,,,
,,,,,,,,,,,,,,,704,2022-02-07_22h14.00.922,multiplicationStroop,2021.2.3,Win32,59.85515054,,,,,left,1,0.5504,0,43,43,15,1,9,7,9 | 7,2,1.9756,1.4111,congruent,left,,,,,,stimulusFile/magnitude.xlsx,,,,,,,,,,,,,,,,,,,,,,,,,,,,,,,
,,,,,,,,,,,,,,,704,2022-02-07_22h14.00.922,multiplicationStroop,2021.2.3,Win32,59.85515054,,,,,left,1,0.532,0,44,44,71,1,9,4,9 | 4,5,1.6933,1.6933,neutral,left,,,,,,stimulusFile/magnitude.xlsx,,,,,,,,,,,,,,,,,,,,,,,,,,,,,,,
,,,,,,,,,,,,,,,704,2022-02-07_22h14.00.922,multiplicationStroop,2021.2.3,Win32,59.85515054,,,,,left,1,0.5819,0,45,45,5,1,4,3,4 | 3,1,1.9756,1.4111,congruent,left,,,,,,stimulusFile/magnitude.xlsx,,,,,,,,,,,,,,,,,,,,,,,,,,,,,,,
,,,,,,,,,,,,,,,704,2022-02-07_22h14.00.922,multiplicationStroop,2021.2.3,Win32,59.85515054,,,,,right,1,0.649,0,46,46,59,1,7,9,7 | 9,2,1.6933,1.6933,neutral,right,,,,,,stimulusFile/magnitude.xlsx,,,,,,,,,,,,,,,,,,,,,,,,,,,,,,,
,,,,,,,,,,,,,,,704,2022-02-07_22h14.00.922,multiplicationStroop,2021.2.3,Win32,59.85515054,,,,,left,1,0.6544,0,47,47,69,1,7,2,7 | 2,5,1.6933,1.6933,neutral,left,,,,,,stimulusFile/magnitude.xlsx,,,,,,,,,,,,,,,,,,,,,,,,,,,,,,,
,,,,,,,,,,,,,,,704,2022-02-07_22h14.00.922,multiplicationStroop,2021.2.3,Win32,59.85515054,,,,,left,1,0.5212,0,48,48,60,1,3,1,3 | 1,2,1.6933,1.6933,neutral,left,,,,,,stimulusFile/magnitude.xlsx,,,,,,,,,,,,,,,,,,,,,,,,,,,,,,,
,,,,,,,,,,,,,,,704,2022-02-07_22h14.00.922,multiplicationStroop,2021.2.3,Win32,59.85515054,,,,,left,1,0.6324,0,49,49,37,1,4,2,4 | 2,2,1.4111,1.9756,incongruent,left,,,,,,stimulusFile/magnitude.xlsx,,,,,,,,,,,,,,,,,,,,,,,,,,,,,,,
,,,,,,,,,,,,,,,704,2022-02-07_22h14.00.922,multiplicationStroop,2021.2.3,Win32,59.85515054,,,,,left,1,0.6021,0,50,50,23,1,9,4,9 | 4,5,1.9756,1.4111,congruent,left,,,,,,stimulusFile/magnitude.xlsx,,,,,,,,,,,,,,,,,,,,,,,,,,,,,,,
,,,,,,,,,,,,,,,704,2022-02-07_22h14.00.922,multiplicationStroop,2021.2.3,Win32,59.85515054,,,,,right,1,0.5407,0,51,51,64,1,1,6,1 | 6,5,1.6933,1.6933,neutral,right,,,,,,stimulusFile/magnitude.xlsx,,,,,,,,,,,,,,,,,,,,,,,,,,,,,,,
,,,,,,,,,,,,,,,704,2022-02-07_22h14.00.922,multiplicationStroop,2021.2.3,Win32,59.85515054,,,,,right,1,0.7199,0,52,52,43,1,4,9,4 | 9,5,1.9756,1.4111,incongruent,right,,,,,,stimulusFile/magnitude.xlsx,,,,,,,,,,,,,,,,,,,,,,,,,,,,,,,
,,,,,,,,,,,,,,,704,2022-02-07_22h14.00.922,multiplicationStroop,2021.2.3,Win32,59.85515054,,,,,left,1,0.4796,0,53,53,12,1,3,1,3 | 1,2,1.9756,1.4111,congruent,left,,,,,,stimulusFile/magnitude.xlsx,,,,,,,,,,,,,,,,,,,,,,,,,,,,,,,
,,,,,,,,,,,,,,,704,2022-02-07_22h14.00.922,multiplicationStroop,2021.2.3,Win32,59.85515054,,,,,right,1,0.5625,0,54,54,57,1,2,4,2 | 4,2,1.6933,1.6933,neutral,right,,,,,,stimulusFile/magnitude.xlsx,,,,,,,,,,,,,,,,,,,,,,,,,,,,,,,
,,,,,,,,,,,,,,,704,2022-02-07_22h14.00.922,multiplicationStroop,2021.2.3,Win32,59.85515054,,,,,right,1,0.6442,0,55,55,49,1,3,4,3 | 4,1,1.6933,1.6933,neutral,right,,,,,,stimulusFile/magnitude.xlsx,,,,,,,,,,,,,,,,,,,,,,,,,,,,,,,
,,,,,,,,,,,,,,,704,2022-02-07_22h14.00.922,multiplicationStroop,2021.2.3,Win32,59.85515054,,,,,left,1,0.5284,0,56,56,13,1,4,2,4 | 2,2,1.9756,1.4111,congruent,left,,,,,,stimulusFile/magnitude.xlsx,,,,,,,,,,,,,,,,,,,,,,,,,,,,,,,
,,,,,,,,,,,,,,,704,2022-02-07_22h14.00.922,multiplicationStroop,2021.2.3,Win32,59.85515054,,,,,left,1,0.588,0,57,57,62,1,8,6,8 | 6,2,1.6933,1.6933,neutral,left,,,,,,stimulusFile/magnitude.xlsx,,,,,,,,,,,,,,,,,,,,,,,,,,,,,,,
,,,,,,,,,,,,,,,704,2022-02-07_22h14.00.922,multiplicationStroop,2021.2.3,Win32,59.85515054,,,,,right,1,0.5541,0,58,58,10,1,6,8,6 | 8,2,1.4111,1.9756,congruent,right,,,,,,stimulusFile/magnitude.xlsx,,,,,,,,,,,,,,,,,,,,,,,,,,,,,,,
,,,,,,,,,,,,,,,704,2022-02-07_22h14.00.922,multiplicationStroop,2021.2.3,Win32,59.85515054,,,,,right,1,0.5209,0,59,59,65,1,2,7,2 | 7,5,1.6933,1.6933,neutral,right,,,,,,stimulusFile/magnitude.xlsx,,,,,,,,,,,,,,,,,,,,,,,,,,,,,,,
,,,,,,,,,,,,,,,704,2022-02-07_22h14.00.922,multiplicationStroop,2021.2.3,Win32,59.85515054,,,,,right,1,1.0255,0,60,60,26,1,6,7,6 | 7,1,1.9756,1.4111,incongruent,right,,,,,,stimulusFile/magnitude.xlsx,,,,,,,,,,,,,,,,,,,,,,,,,,,,,,,
,,,,,,,,,,,,,,,704,2022-02-07_22h14.00.922,multiplicationStroop,2021.2.3,Win32,59.85515054,,,,,left,1,0.6805,0,61,61,53,1,4,3,4 | 3,1,1.6933,1.6933,neutral,left,,,,,,stimulusFile/magnitude.xlsx,,,,,,,,,,,,,,,,,,,,,,,,,,,,,,,
,,,,,,,,,,,,,,,704,2022-02-07_22h14.00.922,multiplicationStroop,2021.2.3,Win32,59.85515054,,,,,left,1,0.4884,0,62,62,20,1,6,1,6 | 1,5,1.9756,1.4111,congruent,left,,,,,,stimulusFile/magnitude.xlsx,,,,,,,,,,,,,,,,,,,,,,,,,,,,,,,
,,,,,,,,,,,,,,,704,2022-02-07_22h14.00.922,multiplicationStroop,2021.2.3,Win32,59.85515054,,,,,right,0,0.5336,0,63,63,30,1,7,6,7 | 6,1,1.4111,1.9756,incongruent,left,,,,,,stimulusFile/magnitude.xlsx,,,,,,,,,,,,,,,,,,,,,,,,,,,,,,,
,,,,,,,,,,,,,,,704,2022-02-07_22h14.00.922,multiplicationStroop,2021.2.3,Win32,59.85515054,,,,,left,1,1.0833,0,64,64,44,1,6,1,6 | 1,5,1.4111,1.9756,incongruent,left,,,,,,stimulusFile/magnitude.xlsx,,,,,,,,,,,,,,,,,,,,,,,,,,,,,,,
,,,,,,,,,,,,,,,704,2022-02-07_22h14.00.922,multiplicationStroop,2021.2.3,Win32,59.85515054,,,,,right,1,0.6467,0,65,65,11,1,7,9,7 | 9,2,1.4111,1.9756,congruent,right,,,,,,stimulusFile/magnitude.xlsx,,,,,,,,,,,,,,,,,,,,,,,,,,,,,,,
,,,,,,,,,,,,,,,704,2022-02-07_22h14.00.922,multiplicationStroop,2021.2.3,Win32,59.85515054,,,,,right,1,0.672,0,66,66,58,1,6,8,6 | 8,2,1.6933,1.6933,neutral,right,,,,,,stimulusFile/magnitude.xlsx,,,,,,,,,,,,,,,,,,,,,,,,,,,,,,,
,,,,,,,,,,,,,,,704,2022-02-07_22h14.00.922,multiplicationStroop,2021.2.3,Win32,59.85515054,,,,,left,1,0.4977,0,67,67,21,1,7,2,7 | 2,5,1.9756,1.4111,congruent,left,,,,,,stimulusFile/magnitude.xlsx,,,,,,,,,,,,,,,,,,,,,,,,,,,,,,,
,,,,,,,,,,,,,,,704,2022-02-07_22h14.00.922,multiplicationStroop,2021.2.3,Win32,59.85515054,,,,,right,1,0.7731,0,68,68,48,1,1,2,1 | 2,1,1.6933,1.6933,neutral,right,,,,,,stimulusFile/magnitude.xlsx,,,,,,,,,,,,,,,,,,,,,,,,,,,,,,,
,,,,,,,,,,,,,,,704,2022-02-07_22h14.00.922,multiplicationStroop,2021.2.3,Win32,59.85515054,,,,,right,1,0.7508,0,69,69,32,1,1,3,1 | 3,2,1.9756,1.4111,incongruent,right,,,,,,stimulusFile/magnitude.xlsx,,,,,,,,,,,,,,,,,,,,,,,,,,,,,,,
,,,,,,,,,,,,,,,704,2022-02-07_22h14.00.922,multiplicationStroop,2021.2.3,Win32,59.85515054,,,,,right,1,0.4691,0,70,70,19,1,4,9,4 | 9,5,1.4111,1.9756,congruent,right,,,,,,stimulusFile/magnitude.xlsx,,,,,,,,,,,,,,,,,,,,,,,,,,,,,,,
,,,,,,,,,,,,,,,704,2022-02-07_22h14.00.922,multiplicationStroop,2021.2.3,Win32,59.85515054,,,,,right,1,0.6513,0,71,71,2,1,6,7,6 | 7,1,1.4111,1.9756,congruent,right,,,,,,stimulusFile/magnitude.xlsx,,,,,,,,,,,,,,,,,,,,,,,,,,,,,,,
,,,,,,,,,,,,,,,704,2022-02-07_22h14.00.922,multiplicationStroop,2021.2.3,Win32,59.85515054,,,,,,,,,,,,,,,,,,,,,0,1,1,0,1,stimulusFile/magnitude.xlsx,NUMERICALLY larger (larger coefficient).,images/numericallyLarger.png,,,,,,,,,,,,,,,,,,,,,,,,,,,,,
,,,,,,,,,,,,,,,704,2022-02-07_22h14.00.922,multiplicationStroop,2021.2.3,Win32,59.85515054,,,,,,,,,,,,,,,,,,,,,,,,,,,,,space,109.3865,space,4.6122,36,3.4284,1,0,0,0,32,1,6,×,6,6 × 6,neutral,tie,2,1,36,,,,,,,,
,,,,,,,,,,,,,,,704,2022-02-07_22h14.00.922,multiplicationStroop,2021.2.3,Win32,59.85515054,,,,,,,,,,,,,,,,,,,,,,,,,,,,,,,,,10,2.086,1,0,1,1,7,1,2,×,5,2 × 5,incongruent,smallerFirst,2,1,10,,,,,,,,
,,,,,,,,,,,,,,,704,2022-02-07_22h14.00.922,multiplicationStroop,2021.2.3,Win32,59.85515054,,,,,,,,,,,,,,,,,,,,,,,,,,,,,,,,,64,2.8174,1,0,2,2,34,1,8,×,8,8 × 8,neutral,tie,2,1,64,,,,,,,,
,,,,,,,,,,,,,,,704,2022-02-07_22h14.00.922,multiplicationStroop,2021.2.3,Win32,59.85515054,,,,,,,,,,,,,,,,,,,,,,,,,,,,,,,,,6,1.9488,1,0,3,3,25,1,3,×,2,3 × 2,incongruent,largerFirst,1,2,6,,,,,,,,
,,,,,,,,,,,,,,,704,2022-02-07_22h14.00.922,multiplicationStroop,2021.2.3,Win32,59.85515054,,,,,,,,,,,,,,,,,,,,,,,,,,,,,,,,,48,4.0337,1,0,4,4,15,1,8,×,6,8 × 6,incongruent,largerFirst,1,2,48,,,,,,,,
,,,,,,,,,,,,,,,704,2022-02-07_22h14.00.922,multiplicationStroop,2021.2.3,Win32,59.85515054,,,,,,,,,,,,,,,,,,,,,,,,,,,,,,,,,20,1.8556,1,0,5,5,13,1,4,×,5,4 × 5,incongruent,smallerFirst,2,1,20,,,,,,,,
,,,,,,,,,,,,,,,704,2022-02-07_22h14.00.922,multiplicationStroop,2021.2.3,Win32,59.85515054,,,,,,,,,,,,,,,,,,,,,,,,,,,,,,,,,16,2.0822,1,0,6,6,9,1,2,×,8,2 × 8,incongruent,smallerFirst,2,1,16,,,,,,,,
,,,,,,,,,,,,,,,704,2022-02-07_22h14.00.922,multiplicationStroop,2021.2.3,Win32,59.85515054,,,,,,,,,,,,,,,,,,,,,,,,,,,,,,,,,12,1.6658,1,0,7,7,5,1,2,×,6,2 × 6,incongruent,smallerFirst,2,1,12,,,,,,,,
,,,,,,,,,,,,,,,704,2022-02-07_22h14.00.922,multiplicationStroop,2021.2.3,Win32,59.85515054,,,,,,,,,,,,,,,,,,,,,,,,,,,,,,,,,35,1.8501,1,0,8,8,26,1,7,×,5,7 × 5,incongruent,largerFirst,1,2,35,,,,,,,,
,,,,,,,,,,,,,,,704,2022-02-07_22h14.00.922,multiplicationStroop,2021.2.3,Win32,59.85515054,,,,,,,,,,,,,,,,,,,,,,,,,,,,,,,,,4,1.5653,1,0,9,9,28,1,2,×,2,2 × 2,neutral,tie,2,1,4,,,,,,,,
,,,,,,,,,,,,,,,704,2022-02-07_22h14.00.922,multiplicationStroop,2021.2.3,Win32,59.85515054,,,,,,,,,,,,,,,,,,,,,,,,,,,,,,,,,16,1.5327,1,0,10,10,30,1,4,×,4,4 × 4,neutral,tie,2,1,16,,,,,,,,
,,,,,,,,,,,,,,,704,2022-02-07_22h14.00.922,multiplicationStroop,2021.2.3,Win32,59.85515054,,,,,,,,,,,,,,,,,,,,,,,,,,,,,,,,,25,1.6504,1,0,11,11,31,1,5,×,5,5 × 5,neutral,tie,2,1,25,,,,,,,,
,,,,,,,,,,,,,,,704,2022-02-07_22h14.00.922,multiplicationStroop,2021.2.3,Win32,59.85515054,,,,,,,,,,,,,,,,,,,,,,,,,,,,,,,,,32,1.8667,1,0,12,12,21,1,8,×,4,8 × 4,incongruent,largerFirst,1,2,32,,,,,,,,
,,,,,,,,,,,,,,,704,2022-02-07_22h14.00.922,multiplicationStroop,2021.2.3,Win32,59.85515054,,,,,,,,,,,,,,,,,,,,,,,,,,,,,,,,,30,2.0656,1,0,13,13,11,1,5,×,6,5 × 6,incongruent,smallerFirst,2,1,30,,,,,,,,
,,,,,,,,,,,,,,,704,2022-02-07_22h14.00.922,multiplicationStroop,2021.2.3,Win32,59.85515054,,,,,,,,,,,,,,,,,,,,,,,,,,,,,,,,,24,1.7166,1,0,14,14,6,1,4,×,6,4 × 6,incongruent,smallerFirst,2,1,24,,,,,,,,
,,,,,,,,,,,,,,,704,2022-02-07_22h14.00.922,multiplicationStroop,2021.2.3,Win32,59.85515054,,,,,,,,,,,,,,,,,,,,,,,,,,,,,,,,,56,2.3324,1,0,15,15,0,1,7,×,8,7 × 8,incongruent,smallerFirst,2,1,56,,,,,,,,
,,,,,,,,,,,,,,,704,2022-02-07_22h14.00.922,multiplicationStroop,2021.2.3,Win32,59.85515054,,,,,,,,,,,,,,,,,,,,,,,,,,,,,,,,,28,2.167,1,0,16,16,2,1,4,×,7,4 × 7,incongruent,smallerFirst,2,1,28,,,,,,,,
,,,,,,,,,,,,,,,704,2022-02-07_22h14.00.922,multiplicationStroop,2021.2.3,Win32,59.85515054,,,,,,,,,,,,,,,,,,,,,,,,,,,,,,,,,36,3.3504,1,0,17,17,1,1,4,×,9,4 × 9,incongruent,smallerFirst,2,1,36,,,,,,,,
,,,,,,,,,,,,,,,704,2022-02-07_22h14.00.922,multiplicationStroop,2021.2.3,Win32,59.85515054,,,,,,,,,,,,,,,,,,,,,,,,,,,,,,,,,72,2.8558,1,0,18,18,14,1,9,×,8,9 × 8,incongruent,largerFirst,1,2,72,,,,,,,,
,,,,,,,,,,,,,,,704,2022-02-07_22h14.00.922,multiplicationStroop,2021.2.3,Win32,59.85515054,,,,,,,,,,,,,,,,,,,,,,,,,,,,,,,,,54,2.9334,1,0,19,19,20,1,9,×,6,9 × 6,incongruent,largerFirst,1,2,54,,,,,,,,
,,,,,,,,,,,,,,,704,2022-02-07_22h14.00.922,multiplicationStroop,2021.2.3,Win32,59.85515054,,,,,,,,,,,,,,,,,,,,,,,,,,,,,,,,,18,1.8726,1,0,20,20,22,1,6,×,3,6 × 3,incongruent,largerFirst,1,2,18,,,,,,,,
,,,,,,,,,,,,,,,704,2022-02-07_22h14.00.922,multiplicationStroop,2021.2.3,Win32,59.85515054,,,,,,,,,,,,,,,,,,,,,,,,,,,,,,,,,12,1.6321,1,0,21,21,19,1,4,×,3,4 × 3,incongruent,largerFirst,1,2,12,,,,,,,,
,,,,,,,,,,,,,,,704,2022-02-07_22h14.00.922,multiplicationStroop,2021.2.3,Win32,59.85515054,,,,,,,,,,,,,,,,,,,,,,,,,,,,,,,,,42,2.533,1,0,22,22,3,1,6,×,7,6 × 7,incongruent,smallerFirst,2,1,42,,,,,,,,
,,,,,,,,,,,,,,,704,2022-02-07_22h14.00.922,multiplicationStroop,2021.2.3,Win32,59.85515054,,,,,,,,,,,,,,,,,,,,,,,,,,,,,,,,,63,3.1828,1,0,23,23,17,1,9,×,7,9 × 7,incongruent,largerFirst,1,2,63,,,,,,,,
,,,,,,,,,,,,,,,704,2022-02-07_22h14.00.922,multiplicationStroop,2021.2.3,Win32,59.85515054,,,,,,,,,,,,,,,,,,,,,,,,,,,,,,,,,81,2.0831,1,0,24,24,35,1,9,×,9,9 × 9,neutral,tie,2,1,81,,,,,,,,
,,,,,,,,,,,,,,,704,2022-02-07_22h14.00.922,multiplicationStroop,2021.2.3,Win32,59.85515054,,,,,,,,,,,,,,,,,,,,,,,,,,,,,,,,,14,1.7156,1,0,25,25,18,1,7,×,2,7 × 2,incongruent,largerFirst,1,2,14,,,,,,,,
,,,,,,,,,,,,,,,704,2022-02-07_22h14.00.922,multiplicationStroop,2021.2.3,Win32,59.85515054,,,,,,,,,,,,,,,,,,,,,,,,,,,,,,,,,18,2.3993,1,0,26,26,16,1,9,×,2,9 × 2,incongruent,largerFirst,1,2,18,,,,,,,,
,,,,,,,,,,,,,,,704,2022-02-07_22h14.00.922,multiplicationStroop,2021.2.3,Win32,59.85515054,,,,,,,,,,,,,,,,,,,,,,,,,,,,,,,,,15,1.5501,1,0,27,27,24,1,5,×,3,5 × 3,incongruent,largerFirst,1,2,15,,,,,,,,
,,,,,,,,,,,,,,,704,2022-02-07_22h14.00.922,multiplicationStroop,2021.2.3,Win32,59.85515054,,,,,,,,,,,,,,,,,,,,,,,,,,,,,,,,,21,1.8656,1,0,28,28,12,1,3,×,7,3 × 7,incongruent,smallerFirst,2,1,21,,,,,,,,
,,,,,,,,,,,,,,,704,2022-02-07_22h14.00.922,multiplicationStroop,2021.2.3,Win32,59.85515054,,,,,,,,,,,,,,,,,,,,,,,,,,,,,,,,,45,1.9158,1,0,29,29,8,1,5,×,9,5 × 9,incongruent,smallerFirst,2,1,45,,,,,,,,
,,,,,,,,,,,,,,,704,2022-02-07_22h14.00.922,multiplicationStroop,2021.2.3,Win32,59.85515054,,,,,,,,,,,,,,,,,,,,,,,,,,,,,,,,,40,2.5007,1,0,30,30,27,1,8,×,5,8 × 5,incongruent,largerFirst,1,2,40,,,,,,,,
,,,,,,,,,,,,,,,704,2022-02-07_22h14.00.922,multiplicationStroop,2021.2.3,Win32,59.85515054,,,,,,,,,,,,,,,,,,,,,,,,,,,,,,,,,27,2.6155,1,0,31,31,4,1,3,×,9,3 × 9,incongruent,smallerFirst,2,1,27,,,,,,,,
,,,,,,,,,,,,,,,704,2022-02-07_22h14.00.922,multiplicationStroop,2021.2.3,Win32,59.85515054,,,,,,,,,,,,,,,,,,,,,,,,,,,,,,,,,49,3.8079,1,0,32,32,33,1,7,×,7,7 × 7,neutral,tie,2,1,49,,,,,,,,
,,,,,,,,,,,,,,,704,2022-02-07_22h14.00.922,multiplicationStroop,2021.2.3,Win32,59.85515054,,,,,,,,,,,,,,,,,,,,,,,,,,,,,,,,,9,1.8232,1,0,33,33,29,1,3,×,3,3 × 3,neutral,tie,2,1,9,,,,,,,,
,,,,,,,,,,,,,,,704,2022-02-07_22h14.00.922,multiplicationStroop,2021.2.3,Win32,59.85515054,,,,,,,,,,,,,,,,,,,,,,,,,,,,,,,,,8,1.5657,1,0,34,34,10,1,2,×,4,2 × 4,incongruent,smallerFirst,2,1,8,,,,,,,,
,,,,,,,,,,,,,,,704,2022-02-07_22h14.00.922,multiplicationStroop,2021.2.3,Win32,59.85515054,,,,,,,,,,,,,,,,,,,,,,,,,,,,,,,,,16,2.3659,0,0,35,35,23,1,8,×,3,8 × 3,incongruent,largerFirst,1,2,24,,,,,,,,
,,,,,,,,,,,,,,,704,2022-02-07_22h14.00.922,multiplicationStroop,2021.2.3,Win32,59.85515054,,,,,,,,,,,,,,,,,,,,,,,,,,,,,,,,,,,,,,,,,,,,,,,,,,0,0,0,4,1,stimulusFile/mult_blk5_INcongruent.xlsx,,
,,,,,,,,,,,,,,,704,2022-02-07_22h14.00.922,multiplicationStroop,2021.2.3,Win32,59.85515054,,,,,,,,,,,,,,,,,,,,,,,,,,,,,,,space,1.7866,18,4.0645,1,0,0,0,0,1,3,×,6,3 × 6,neutral,smallerFirst,1.5,1.5,18,,,,,,,,
,,,,,,,,,,,,,,,704,2022-02-07_22h14.00.922,multiplicationStroop,2021.2.3,Win32,59.85515054,,,,,,,,,,,,,,,,,,,,,,,,,,,,,,,,,56,2.1053,0,0,1,1,12,1,7,×,9,7 × 9,neutral,smallerFirst,1.5,1.5,63,,,,,,,,
,,,,,,,,,,,,,,,704,2022-02-07_22h14.00.922,multiplicationStroop,2021.2.3,Win32,59.85515054,,,,,,,,,,,,,,,,,,,,,,,,,,,,,,,,,35,2.583,1,0,2,2,1,1,5,×,7,5 × 7,neutral,smallerFirst,1.5,1.5,35,,,,,,,,
,,,,,,,,,,,,,,,704,2022-02-07_22h14.00.922,multiplicationStroop,2021.2.3,Win32,59.85515054,,,,,,,,,,,,,,,,,,,,,,,,,,,,,,,,,15,1.4392,1,0,3,3,5,1,3,×,5,3 × 5,neutral,smallerFirst,1.5,1.5,15,,,,,,,,
,,,,,,,,,,,,,,,704,2022-02-07_22h14.00.922,multiplicationStroop,2021.2.3,Win32,59.85515054,,,,,,,,,,,,,,,,,,,,,,,,,,,,,,,,,9,1.4995,1,0,4,4,29,1,3,×,3,3 × 3,neutral,tie,1.5,1.5,9,,,,,,,,
,,,,,,,,,,,,,,,704,2022-02-07_22h14.00.922,multiplicationStroop,2021.2.3,Win32,59.85515054,,,,,,,,,,,,,,,,,,,,,,,,,,,,,,,,,28,1.7999,1,0,5,5,17,1,7,×,4,7 × 4,neutral,largerFirst,1.5,1.5,28,,,,,,,,
,,,,,,,,,,,,,,,704,2022-02-07_22h14.00.922,multiplicationStroop,2021.2.3,Win32,59.85515054,,,,,,,,,,,,,,,,,,,,,,,,,,,,,,,,,56,1.8168,1,0,6,6,9,1,7,×,8,7 × 8,neutral,smallerFirst,1.5,1.5,56,,,,,,,,
,,,,,,,,,,,,,,,704,2022-02-07_22h14.00.922,multiplicationStroop,2021.2.3,Win32,59.85515054,,,,,,,,,,,,,,,,,,,,,,,,,,,,,,,,,16,1.5331,1,0,7,7,13,1,2,×,8,2 × 8,neutral,smallerFirst,1.5,1.5,16,,,,,,,,
,,,,,,,,,,,,,,,704,2022-02-07_22h14.00.922,multiplicationStroop,2021.2.3,Win32,59.85515054,,,,,,,,,,,,,,,,,,,,,,,,,,,,,,,,,12,1.4499,1,0,8,8,21,1,4,×,3,4 × 3,neutral,largerFirst,1.5,1.5,12,,,,,,,,
,,,,,,,,,,,,,,,704,2022-02-07_22h14.00.922,multiplicationStroop,2021.2.3,Win32,59.85515054,,,,,,,,,,,,,,,,,,,,,,,,,,,,,,,,,32,3.0016,1,0,9,9,23,1,8,×,4,8 × 4,neutral,largerFirst,1.5,1.5,32,,,,,,,,
,,,,,,,,,,,,,,,704,2022-02-07_22h14.00.922,multiplicationStroop,2021.2.3,Win32,59.85515054,,,,,,,,,,,,,,,,,,,,,,,,,,,,,,,,,36,1.8977,1,0,10,10,27,1,9,×,4,9 × 4,neutral,largerFirst,1.5,1.5,36,,,,,,,,
,,,,,,,,,,,,,,,704,2022-02-07_22h14.00.922,multiplicationStroop,2021.2.3,Win32,59.85515054,,,,,,,,,,,,,,,,,,,,,,,,,,,,,,,,,27,1.8167,1,0,11,11,14,1,9,×,3,9 × 3,neutral,largerFirst,1.5,1.5,27,,,,,,,,
,,,,,,,,,,,,,,,704,2022-02-07_22h14.00.922,multiplicationStroop,2021.2.3,Win32,59.85515054,,,,,,,,,,,,,,,,,,,,,,,,,,,,,,,,,24,2.1334,1,0,12,12,2,1,4,×,6,4 × 6,neutral,smallerFirst,1.5,1.5,24,,,,,,,,
,,,,,,,,,,,,,,,704,2022-02-07_22h14.00.922,multiplicationStroop,2021.2.3,Win32,59.85515054,,,,,,,,,,,,,,,,,,,,,,,,,,,,,,,,,30,1.6819,1,0,13,13,19,1,6,×,5,6 × 5,neutral,largerFirst,1.5,1.5,30,,,,,,,,
,,,,,,,,,,,,,,,704,2022-02-07_22h14.00.922,multiplicationStroop,2021.2.3,Win32,59.85515054,,,,,,,,,,,,,,,,,,,,,,,,,,,,,,,,,54,1.8344,1,0,14,14,7,1,6,×,9,6 × 9,neutral,smallerFirst,1.5,1.5,54,,,,,,,,
,,,,,,,,,,,,,,,704,2022-02-07_22h14.00.922,multiplicationStroop,2021.2.3,Win32,59.85515054,,,,,,,,,,,,,,,,,,,,,,,,,,,,,,,,,8,1.733,1,0,15,15,3,1,2,×,4,2 × 4,neutral,smallerFirst,1.5,1.5,8,,,,,,,,
,,,,,,,,,,,,,,,704,2022-02-07_22h14.00.922,multiplicationStroop,2021.2.3,Win32,59.85515054,,,,,,,,,,,,,,,,,,,,,,,,,,,,,,,,,16,1.9667,0,0,16,16,22,1,8,×,3,8 × 3,neutral,largerFirst,1.5,1.5,24,,,,,,,,
,,,,,,,,,,,,,,,704,2022-02-07_22h14.00.922,multiplicationStroop,2021.2.3,Win32,59.85515054,,,,,,,,,,,,,,,,,,,,,,,,,,,,,,,,,6,2.4322,1,0,17,17,26,1,3,×,2,3 × 2,neutral,largerFirst,1.5,1.5,6,,,,,,,,
,,,,,,,,,,,,,,,704,2022-02-07_22h14.00.922,multiplicationStroop,2021.2.3,Win32,59.85515054,,,,,,,,,,,,,,,,,,,,,,,,,,,,,,,,,49,1.8172,1,0,18,18,33,1,7,×,7,7 × 7,neutral,tie,1.5,1.5,49,,,,,,,,
,,,,,,,,,,,,,,,704,2022-02-07_22h14.00.922,multiplicationStroop,2021.2.3,Win32,59.85515054,,,,,,,,,,,,,,,,,,,,,,,,,,,,,,,,,64,1.8998,1,0,19,19,34,1,8,×,8,8 × 8,neutral,tie,1.5,1.5,64,,,,,,,,
,,,,,,,,,,,,,,,704,2022-02-07_22h14.00.922,multiplicationStroop,2021.2.3,Win32,59.85515054,,,,,,,,,,,,,,,,,,,,,,,,,,,,,,,,,25,1.7822,1,0,20,20,31,1,5,×,5,5 × 5,neutral,tie,1.5,1.5,25,,,,,,,,
,,,,,,,,,,,,,,,704,2022-02-07_22h14.00.922,multiplicationStroop,2021.2.3,Win32,59.85515054,,,,,,,,,,,,,,,,,,,,,,,,,,,,,,,,,4,1.3998,1,0,21,21,28,1,2,×,2,2 × 2,neutral,tie,1.5,1.5,4,,,,,,,,
,,,,,,,,,,,,,,,704,2022-02-07_22h14.00.922,multiplicationStroop,2021.2.3,Win32,59.85515054,,,,,,,,,,,,,,,,,,,,,,,,,,,,,,,,,12,2.1161,1,0,22,22,25,1,6,×,2,6 × 2,neutral,largerFirst,1.5,1.5,12,,,,,,,,
,,,,,,,,,,,,,,,704,2022-02-07_22h14.00.922,multiplicationStroop,2021.2.3,Win32,59.85515054,,,,,,,,,,,,,,,,,,,,,,,,,,,,,,,,,72,2.6334,1,0,23,23,11,1,8,×,9,8 × 9,neutral,smallerFirst,1.5,1.5,72,,,,,,,,
,,,,,,,,,,,,,,,704,2022-02-07_22h14.00.922,multiplicationStroop,2021.2.3,Win32,59.85515054,,,,,,,,,,,,,,,,,,,,,,,,,,,,,,,,,16,1.6536,1,0,24,24,30,1,4,×,4,4 × 4,neutral,tie,1.5,1.5,16,,,,,,,,
,,,,,,,,,,,,,,,704,2022-02-07_22h14.00.922,multiplicationStroop,2021.2.3,Win32,59.85515054,,,,,,,,,,,,,,,,,,,,,,,,,,,,,,,,,18,1.7832,1,0,25,25,18,1,9,×,2,9 × 2,neutral,largerFirst,1.5,1.5,18,,,,,,,,
,,,,,,,,,,,,,,,704,2022-02-07_22h14.00.922,multiplicationStroop,2021.2.3,Win32,59.85515054,,,,,,,,,,,,,,,,,,,,,,,,,,,,,,,,,81,2.4168,1,0,26,26,35,1,9,×,9,9 × 9,neutral,tie,1.5,1.5,81,,,,,,,,
,,,,,,,,,,,,,,,704,2022-02-07_22h14.00.922,multiplicationStroop,2021.2.3,Win32,59.85515054,,,,,,,,,,,,,,,,,,,,,,,,,,,,,,,,,36,2.4059,1,0,27,27,32,1,6,×,6,6 × 6,neutral,tie,1.5,1.5,36,,,,,,,,
,,,,,,,,,,,,,,,704,2022-02-07_22h14.00.922,multiplicationStroop,2021.2.3,Win32,59.85515054,,,,,,,,,,,,,,,,,,,,,,,,,,,,,,,,,14,1.8659,1,0,28,28,16,1,7,×,2,7 × 2,neutral,largerFirst,1.5,1.5,14,,,,,,,,
,,,,,,,,,,,,,,,704,2022-02-07_22h14.00.922,multiplicationStroop,2021.2.3,Win32,59.85515054,,,,,,,,,,,,,,,,,,,,,,,,,,,,,,,,,10,1.6991,1,0,29,29,4,1,2,×,5,2 × 5,neutral,smallerFirst,1.5,1.5,10,,,,,,,,
,,,,,,,,,,,,,,,704,2022-02-07_22h14.00.922,multiplicationStroop,2021.2.3,Win32,59.85515054,,,,,,,,,,,,,,,,,,,,,,,,,,,,,,,,,42,2.3838,1,0,30,30,6,1,6,×,7,6 × 7,neutral,smallerFirst,1.5,1.5,42,,,,,,,,
,,,,,,,,,,,,,,,704,2022-02-07_22h14.00.922,multiplicationStroop,2021.2.3,Win32,59.85515054,,,,,,,,,,,,,,,,,,,,,,,,,,,,,,,,,20,1.6332,1,0,31,31,20,1,5,×,4,5 × 4,neutral,largerFirst,1.5,1.5,20,,,,,,,,
,,,,,,,,,,,,,,,704,2022-02-07_22h14.00.922,multiplicationStroop,2021.2.3,Win32,59.85515054,,,,,,,,,,,,,,,,,,,,,,,,,,,,,,,,,48,2.1669,1,0,32,32,15,1,8,×,6,8 × 6,neutral,largerFirst,1.5,1.5,48,,,,,,,,
,,,,,,,,,,,,,,,704,2022-02-07_22h14.00.922,multiplicationStroop,2021.2.3,Win32,59.85515054,,,,,,,,,,,,,,,,,,,,,,,,,,,,,,,,,45,2.3831,1,0,33,33,10,1,5,×,9,5 × 9,neutral,smallerFirst,1.5,1.5,45,,,,,,,,
,,,,,,,,,,,,,,,704,2022-02-07_22h14.00.922,multiplicationStroop,2021.2.3,Win32,59.85515054,,,,,,,,,,,,,,,,,,,,,,,,,,,,,,,,,40,3.8679,1,0,34,34,24,1,8,×,5,8 × 5,neutral,largerFirst,1.5,1.5,40,,,,,,,,
,,,,,,,,,,,,,,,704,2022-02-07_22h14.00.922,multiplicationStroop,2021.2.3,Win32,59.85515054,,,,,,,,,,,,,,,,,,,,,,,,,,,,,,,,,21,1.7561,1,0,35,35,8,1,3,×,7,3 × 7,neutral,smallerFirst,1.5,1.5,21,,,,,,,,
,,,,,,,,,,,,,,,704,2022-02-07_22h14.00.922,multiplicationStroop,2021.2.3,Win32,59.85515054,,,,,,,,,,,,,,,,,,,,,,,,,,,,,,,,,,,,,,,,,,,,,,,,,,0,1,1,1,1,stimulusFile/mult_blk2.xlsx,,
,,,,,,,,,,,,,,,704,2022-02-07_22h14.00.922,multiplicationStroop,2021.2.3,Win32,59.85515054,,,,,,,,,,,,,,,,,,,,,,,,,,,,,,,space,1.2955,14,1.7023,1,0,0,0,2,1,2,×,7,2 × 7,neutral,smallerFirst,1.5,1.5,14,,,,,,,,
,,,,,,,,,,,,,,,704,2022-02-07_22h14.00.922,multiplicationStroop,2021.2.3,Win32,59.85515054,,,,,,,,,,,,,,,,,,,,,,,,,,,,,,,,,4,1.5499,1,0,1,1,28,1,2,×,2,2 × 2,neutral,tie,1.5,1.5,4,,,,,,,,
,,,,,,,,,,,,,,,704,2022-02-07_22h14.00.922,multiplicationStroop,2021.2.3,Win32,59.85515054,,,,,,,,,,,,,,,,,,,,,,,,,,,,,,,,,6,1.5157,1,0,2,2,12,1,2,×,3,2 × 3,neutral,smallerFirst,1.5,1.5,6,,,,,,,,
,,,,,,,,,,,,,,,704,2022-02-07_22h14.00.922,multiplicationStroop,2021.2.3,Win32,59.85515054,,,,,,,,,,,,,,,,,,,,,,,,,,,,,,,,,72,3.2678,1,0,3,3,25,1,9,×,8,9 × 8,neutral,largerFirst,1.5,1.5,72,,,,,,,,
,,,,,,,,,,,,,,,704,2022-02-07_22h14.00.922,multiplicationStroop,2021.2.3,Win32,59.85515054,,,,,,,,,,,,,,,,,,,,,,,,,,,,,,,,,48,2.5334,1,0,4,4,1,1,6,×,8,6 × 8,neutral,smallerFirst,1.5,1.5,48,,,,,,,,
,,,,,,,,,,,,,,,704,2022-02-07_22h14.00.922,multiplicationStroop,2021.2.3,Win32,59.85515054,,,,,,,,,,,,,,,,,,,,,,,,,,,,,,,,,63,3.0736,1,0,5,5,26,1,9,×,7,9 × 7,neutral,largerFirst,1.5,1.5,63,,,,,,,,
,,,,,,,,,,,,,,,704,2022-02-07_22h14.00.922,multiplicationStroop,2021.2.3,Win32,59.85515054,,,,,,,,,,,,,,,,,,,,,,,,,,,,,,,,,16,1.8503,1,0,6,6,27,1,8,×,2,8 × 2,neutral,largerFirst,1.5,1.5,16,,,,,,,,
,,,,,,,,,,,,,,,704,2022-02-07_22h14.00.922,multiplicationStroop,2021.2.3,Win32,59.85515054,,,,,,,,,,,,,,,,,,,,,,,,,,,,,,,,,54,2.2167,0,0,7,7,23,1,8,×,7,8 × 7,neutral,largerFirst,1.5,1.5,56,,,,,,,,
,,,,,,,,,,,,,,,704,2022-02-07_22h14.00.922,multiplicationStroop,2021.2.3,Win32,59.85515054,,,,,,,,,,,,,,,,,,,,,,,,,,,,,,,,,40,1.6501,1,0,8,8,10,1,5,×,8,5 × 8,neutral,smallerFirst,1.5,1.5,40,,,,,,,,
,,,,,,,,,,,,,,,704,2022-02-07_22h14.00.922,multiplicationStroop,2021.2.3,Win32,59.85515054,,,,,,,,,,,,,,,,,,,,,,,,,,,,,,,,,8,2.5167,1,0,9,9,17,1,4,×,2,4 × 2,neutral,largerFirst,1.5,1.5,8,,,,,,,,
,,,,,,,,,,,,,,,704,2022-02-07_22h14.00.922,multiplicationStroop,2021.2.3,Win32,59.85515054,,,,,,,,,,,,,,,,,,,,,,,,,,,,,,,,,24,1.5486,1,0,10,10,16,1,6,×,4,6 × 4,neutral,largerFirst,1.5,1.5,24,,,,,,,,
,,,,,,,,,,,,,,,704,2022-02-07_22h14.00.922,multiplicationStroop,2021.2.3,Win32,59.85515054,,,,,,,,,,,,,,,,,,,,,,,,,,,,,,,,,36,2.2163,1,0,11,11,13,1,4,×,9,4 × 9,neutral,smallerFirst,1.5,1.5,36,,,,,,,,
,,,,,,,,,,,,,,,704,2022-02-07_22h14.00.922,multiplicationStroop,2021.2.3,Win32,59.85515054,,,,,,,,,,,,,,,,,,,,,,,,,,,,,,,,,45,1.7172,1,0,12,12,24,1,9,×,5,9 × 5,neutral,largerFirst,1.5,1.5,45,,,,,,,,
,,,,,,,,,,,,,,,704,2022-02-07_22h14.00.922,multiplicationStroop,2021.2.3,Win32,59.85515054,,,,,,,,,,,,,,,,,,,,,,,,,,,,,,,,,36,1.8991,1,0,13,13,32,1,6,×,6,6 × 6,neutral,tie,1.5,1.5,36,,,,,,,,
,,,,,,,,,,,,,,,704,2022-02-07_22h14.00.922,multiplicationStroop,2021.2.3,Win32,59.85515054,,,,,,,,,,,,,,,,,,,,,,,,,,,,,,,,,35,1.9835,1,0,14,14,15,1,7,×,5,7 × 5,neutral,largerFirst,1.5,1.5,35,,,,,,,,
,,,,,,,,,,,,,,,704,2022-02-07_22h14.00.922,multiplicationStroop,2021.2.3,Win32,59.85515054,,,,,,,,,,,,,,,,,,,,,,,,,,,,,,,,,21,1.9337,1,0,15,15,22,1,7,×,3,7 × 3,neutral,largerFirst,1.5,1.5,21,,,,,,,,
,,,,,,,,,,,,,,,704,2022-02-07_22h14.00.922,multiplicationStroop,2021.2.3,Win32,59.85515054,,,,,,,,,,,,,,,,,,,,,,,,,,,,,,,,,28,2.2491,1,0,16,16,3,1,4,×,7,4 × 7,neutral,smallerFirst,1.5,1.5,28,,,,,,,,
,,,,,,,,,,,,,,,704,2022-02-07_22h14.00.922,multiplicationStroop,2021.2.3,Win32,59.85515054,,,,,,,,,,,,,,,,,,,,,,,,,,,,,,,,,15,1.5668,1,0,17,17,19,1,5,×,3,5 × 3,neutral,largerFirst,1.5,1.5,15,,,,,,,,
,,,,,,,,,,,,,,,704,2022-02-07_22h14.00.922,multiplicationStroop,2021.2.3,Win32,59.85515054,,,,,,,,,,,,,,,,,,,,,,,,,,,,,,,,,32,3.6994,1,0,18,18,9,1,4,×,8,4 × 8,neutral,smallerFirst,1.5,1.5,32,,,,,,,,
,,,,,,,,,,,,,,,704,2022-02-07_22h14.00.922,multiplicationStroop,2021.2.3,Win32,59.85515054,,,,,,,,,,,,,,,,,,,,,,,,,,,,,,,,,9,1.4902,1,0,19,19,29,1,3,×,3,3 × 3,neutral,tie,1.5,1.5,9,,,,,,,,
,,,,,,,,,,,,,,,704,2022-02-07_22h14.00.922,multiplicationStroop,2021.2.3,Win32,59.85515054,,,,,,,,,,,,,,,,,,,,,,,,,,,,,,,,,45,1.7318,0,0,20,20,21,1,9,×,6,9 × 6,neutral,largerFirst,1.5,1.5,54,,,,,,,,
,,,,,,,,,,,,,,,704,2022-02-07_22h14.00.922,multiplicationStroop,2021.2.3,Win32,59.85515054,,,,,,,,,,,,,,,,,,,,,,,,,,,,,,,,,12,2.0342,1,0,21,21,7,1,3,×,4,3 × 4,neutral,smallerFirst,1.5,1.5,12,,,,,,,,
,,,,,,,,,,,,,,,704,2022-02-07_22h14.00.922,multiplicationStroop,2021.2.3,Win32,59.85515054,,,,,,,,,,,,,,,,,,,,,,,,,,,,,,,,,25,1.5664,1,0,22,22,31,1,5,×,5,5 × 5,neutral,tie,1.5,1.5,25,,,,,,,,
,,,,,,,,,,,,,,,704,2022-02-07_22h14.00.922,multiplicationStroop,2021.2.3,Win32,59.85515054,,,,,,,,,,,,,,,,,,,,,,,,,,,,,,,,,10,1.483,1,0,23,23,18,1,5,×,2,5 × 2,neutral,largerFirst,1.5,1.5,10,,,,,,,,
,,,,,,,,,,,,,,,704,2022-02-07_22h14.00.922,multiplicationStroop,2021.2.3,Win32,59.85515054,,,,,,,,,,,,,,,,,,,,,,,,,,,,,,,,,16,2.3667,1,0,24,24,30,1,4,×,4,4 × 4,neutral,tie,1.5,1.5,16,,,,,,,,
,,,,,,,,,,,,,,,704,2022-02-07_22h14.00.922,multiplicationStroop,2021.2.3,Win32,59.85515054,,,,,,,,,,,,,,,,,,,,,,,,,,,,,,,,,20,1.5835,1,0,25,25,6,1,4,×,5,4 × 5,neutral,smallerFirst,1.5,1.5,20,,,,,,,,
,,,,,,,,,,,,,,,704,2022-02-07_22h14.00.922,multiplicationStroop,2021.2.3,Win32,59.85515054,,,,,,,,,,,,,,,,,,,,,,,,,,,,,,,,,24,2.849,1,0,26,26,8,1,3,×,8,3 × 8,neutral,smallerFirst,1.5,1.5,24,,,,,,,,
,,,,,,,,,,,,,,,704,2022-02-07_22h14.00.922,multiplicationStroop,2021.2.3,Win32,59.85515054,,,,,,,,,,,,,,,,,,,,,,,,,,,,,,,,,27,2.6001,1,0,27,27,0,1,3,×,9,3 × 9,neutral,smallerFirst,1.5,1.5,27,,,,,,,,
,,,,,,,,,,,,,,,704,2022-02-07_22h14.00.922,multiplicationStroop,2021.2.3,Win32,59.85515054,,,,,,,,,,,,,,,,,,,,,,,,,,,,,,,,,43,2.0396,0,0,28,28,20,1,7,×,6,7 × 6,neutral,largerFirst,1.5,1.5,42,,,,,,,,
,,,,,,,,,,,,,,,704,2022-02-07_22h14.00.922,multiplicationStroop,2021.2.3,Win32,59.85515054,,,,,,,,,,,,,,,,,,,,,,,,,,,,,,,,,81,1.8167,1,0,29,29,35,1,9,×,9,9 × 9,neutral,tie,1.5,1.5,81,,,,,,,,
,,,,,,,,,,,,,,,704,2022-02-07_22h14.00.922,multiplicationStroop,2021.2.3,Win32,59.85515054,,,,,,,,,,,,,,,,,,,,,,,,,,,,,,,,,18,2.1168,1,0,30,30,14,1,6,×,3,6 × 3,neutral,largerFirst,1.5,1.5,18,,,,,,,,
,,,,,,,,,,,,,,,704,2022-02-07_22h14.00.922,multiplicationStroop,2021.2.3,Win32,59.85515054,,,,,,,,,,,,,,,,,,,,,,,,,,,,,,,,,64,1.821,1,0,31,31,34,1,8,×,8,8 × 8,neutral,tie,1.5,1.5,64,,,,,,,,
,,,,,,,,,,,,,,,704,2022-02-07_22h14.00.922,multiplicationStroop,2021.2.3,Win32,59.85515054,,,,,,,,,,,,,,,,,,,,,,,,,,,,,,,,,12,3.0992,1,0,32,32,11,1,2,×,6,2 × 6,neutral,smallerFirst,1.5,1.5,12,,,,,,,,
,,,,,,,,,,,,,,,704,2022-02-07_22h14.00.922,multiplicationStroop,2021.2.3,Win32,59.85515054,,,,,,,,,,,,,,,,,,,,,,,,,,,,,,,,,49,1.6742,1,0,33,33,33,1,7,×,7,7 × 7,neutral,tie,1.5,1.5,49,,,,,,,,
,,,,,,,,,,,,,,,704,2022-02-07_22h14.00.922,multiplicationStroop,2021.2.3,Win32,59.85515054,,,,,,,,,,,,,,,,,,,,,,,,,,,,,,,,,18,1.6325,1,0,34,34,4,1,2,×,9,2 × 9,neutral,smallerFirst,1.5,1.5,18,,,,,,,,
,,,,,,,,,,,,,,,704,2022-02-07_22h14.00.922,multiplicationStroop,2021.2.3,Win32,59.85515054,,,,,,,,,,,,,,,,,,,,,,,,,,,,,,,,,30,2.0166,1,0,35,35,5,1,5,×,6,5 × 6,neutral,smallerFirst,1.5,1.5,30,,,,,,,,
,,,,,,,,,,,,,,,704,2022-02-07_22h14.00.922,multiplicationStroop,2021.2.3,Win32,59.85515054,,,,,,,,,,,,,,,,,,,,,,,,,,,,,,,,,,,,,,,,,,,,,,,,,,0,2,2,0,1,stimulusFile/mult_blk1.xlsx,,
,,,,,,,,,,,,,,,704,2022-02-07_22h14.00.922,multiplicationStroop,2021.2.3,Win32,59.85515054,,,,,,,,,,,,,,,,,,,,,,,,,,,,,,,space,375.7181,24,1.8939,1,0,0,0,10,1,3,×,8,3 × 8,congruent,smallerFirst,1,2,24,,,,,,,,
,,,,,,,,,,,,,,,704,2022-02-07_22h14.00.922,multiplicationStroop,2021.2.3,Win32,59.85515054,,,,,,,,,,,,,,,,,,,,,,,,,,,,,,,,,18,1.8685,1,0,1,1,11,1,3,×,6,3 × 6,congruent,smallerFirst,1,2,18,,,,,,,,
,,,,,,,,,,,,,,,704,2022-02-07_22h14.00.922,multiplicationStroop,2021.2.3,Win32,59.85515054,,,,,,,,,,,,,,,,,,,,,,,,,,,,,,,,,30,1.6147,1,0,2,2,15,1,6,×,5,6 × 5,congruent,largerFirst,2,1,30,,,,,,,,
,,,,,,,,,,,,,,,704,2022-02-07_22h14.00.922,multiplicationStroop,2021.2.3,Win32,59.85515054,,,,,,,,,,,,,,,,,,,,,,,,,,,,,,,,,12,1.3496,1,0,3,3,2,1,3,×,4,3 × 4,congruent,smallerFirst,1,2,12,,,,,,,,
,,,,,,,,,,,,,,,704,2022-02-07_22h14.00.922,multiplicationStroop,2021.2.3,Win32,59.85515054,,,,,,,,,,,,,,,,,,,,,,,,,,,,,,,,,64,2.5655,1,0,4,4,34,1,8,×,8,8 × 8,neutral,tie,2,1,64,,,,,,,,
,,,,,,,,,,,,,,,704,2022-02-07_22h14.00.922,multiplicationStroop,2021.2.3,Win32,59.85515054,,,,,,,,,,,,,,,,,,,,,,,,,,,,,,,,,45,1.5892,1,0,5,5,23,1,9,×,5,9 × 5,congruent,largerFirst,2,1,45,,,,,,,,
,,,,,,,,,,,,,,,704,2022-02-07_22h14.00.922,multiplicationStroop,2021.2.3,Win32,59.85515054,,,,,,,,,,,,,,,,,,,,,,,,,,,,,,,,,8,1.4818,1,0,6,6,9,1,2,×,4,2 × 4,congruent,smallerFirst,1,2,8,,,,,,,,
,,,,,,,,,,,,,,,704,2022-02-07_22h14.00.922,multiplicationStroop,2021.2.3,Win32,59.85515054,,,,,,,,,,,,,,,,,,,,,,,,,,,,,,,,,24,1.5823,1,0,7,7,25,1,6,×,4,6 × 4,congruent,largerFirst,2,1,24,,,,,,,,
,,,,,,,,,,,,,,,704,2022-02-07_22h14.00.922,multiplicationStroop,2021.2.3,Win32,59.85515054,,,,,,,,,,,,,,,,,,,,,,,,,,,,,,,,,18,1.6328,1,0,8,8,22,1,9,×,2,9 × 2,congruent,largerFirst,2,1,18,,,,,,,,
,,,,,,,,,,,,,,,704,2022-02-07_22h14.00.922,multiplicationStroop,2021.2.3,Win32,59.85515054,,,,,,,,,,,,,,,,,,,,,,,,,,,,,,,,,42,2.7326,1,0,9,9,3,1,6,×,7,6 × 7,congruent,smallerFirst,1,2,42,,,,,,,,
,,,,,,,,,,,,,,,704,2022-02-07_22h14.00.922,multiplicationStroop,2021.2.3,Win32,59.85515054,,,,,,,,,,,,,,,,,,,,,,,,,,,,,,,,,56,2.2496,1,0,10,10,8,1,7,×,8,7 × 8,congruent,smallerFirst,1,2,56,,,,,,,,
,,,,,,,,,,,,,,,704,2022-02-07_22h14.00.922,multiplicationStroop,2021.2.3,Win32,59.85515054,,,,,,,,,,,,,,,,,,,,,,,,,,,,,,,,,48,1.8993,1,0,11,11,18,1,8,×,6,8 × 6,congruent,largerFirst,2,1,48,,,,,,,,
,,,,,,,,,,,,,,,704,2022-02-07_22h14.00.922,multiplicationStroop,2021.2.3,Win32,59.85515054,,,,,,,,,,,,,,,,,,,,,,,,,,,,,,,,,27,1.8171,1,0,12,12,26,1,9,×,3,9 × 3,congruent,largerFirst,2,1,27,,,,,,,,
,,,,,,,,,,,,,,,704,2022-02-07_22h14.00.922,multiplicationStroop,2021.2.3,Win32,59.85515054,,,,,,,,,,,,,,,,,,,,,,,,,,,,,,,,,54,2.1488,1,0,13,13,12,1,6,×,9,6 × 9,congruent,smallerFirst,1,2,54,,,,,,,,
,,,,,,,,,,,,,,,704,2022-02-07_22h14.00.922,multiplicationStroop,2021.2.3,Win32,59.85515054,,,,,,,,,,,,,,,,,,,,,,,,,,,,,,,,,14,1.517,1,0,14,14,14,1,7,×,2,7 × 2,congruent,largerFirst,2,1,14,,,,,,,,
,,,,,,,,,,,,,,,704,2022-02-07_22h14.00.922,multiplicationStroop,2021.2.3,Win32,59.85515054,,,,,,,,,,,,,,,,,,,,,,,,,,,,,,,,,72,2.6329,1,0,15,15,17,1,9,×,8,9 × 8,congruent,largerFirst,2,1,72,,,,,,,,
,,,,,,,,,,,,,,,704,2022-02-07_22h14.00.922,multiplicationStroop,2021.2.3,Win32,59.85515054,,,,,,,,,,,,,,,,,,,,,,,,,,,,,,,,,21,1.6323,1,0,16,16,16,1,7,×,3,7 × 3,congruent,largerFirst,2,1,21,,,,,,,,
,,,,,,,,,,,,,,,704,2022-02-07_22h14.00.922,multiplicationStroop,2021.2.3,Win32,59.85515054,,,,,,,,,,,,,,,,,,,,,,,,,,,,,,,,,40,1.6668,1,0,17,17,6,1,5,×,8,5 × 8,congruent,smallerFirst,1,2,40,,,,,,,,
,,,,,,,,,,,,,,,704,2022-02-07_22h14.00.922,multiplicationStroop,2021.2.3,Win32,59.85515054,,,,,,,,,,,,,,,,,,,,,,,,,,,,,,,,,63,2.6157,1,0,18,18,21,1,9,×,7,9 × 7,congruent,largerFirst,2,1,63,,,,,,,,
,,,,,,,,,,,,,,,704,2022-02-07_22h14.00.922,multiplicationStroop,2021.2.3,Win32,59.85515054,,,,,,,,,,,,,,,,,,,,,,,,,,,,,,,,,49,1.6992,1,0,19,19,33,1,7,×,7,7 × 7,neutral,tie,2,1,49,,,,,,,,
,,,,,,,,,,,,,,,704,2022-02-07_22h14.00.922,multiplicationStroop,2021.2.3,Win32,59.85515054,,,,,,,,,,,,,,,,,,,,,,,,,,,,,,,,,15,1.484,1,0,20,20,4,1,3,×,5,3 × 5,congruent,smallerFirst,1,2,15,,,,,,,,
,,,,,,,,,,,,,,,704,2022-02-07_22h14.00.922,multiplicationStroop,2021.2.3,Win32,59.85515054,,,,,,,,,,,,,,,,,,,,,,,,,,,,,,,,,28,1.6821,1,0,21,21,27,1,7,×,4,7 × 4,congruent,largerFirst,2,1,28,,,,,,,,
,,,,,,,,,,,,,,,704,2022-02-07_22h14.00.922,multiplicationStroop,2021.2.3,Win32,59.85515054,,,,,,,,,,,,,,,,,,,,,,,,,,,,,,,,,16,1.6503,1,0,22,22,30,1,4,×,4,4 × 4,neutral,tie,2,1,16,,,,,,,,
,,,,,,,,,,,,,,,704,2022-02-07_22h14.00.922,multiplicationStroop,2021.2.3,Win32,59.85515054,,,,,,,,,,,,,,,,,,,,,,,,,,,,,,,,,10,1.5664,1,0,23,23,24,1,5,×,2,5 × 2,congruent,largerFirst,2,1,10,,,,,,,,
,,,,,,,,,,,,,,,704,2022-02-07_22h14.00.922,multiplicationStroop,2021.2.3,Win32,59.85515054,,,,,,,,,,,,,,,,,,,,,,,,,,,,,,,,,6,2.0156,1,0,24,24,13,1,2,×,3,2 × 3,congruent,smallerFirst,1,2,6,,,,,,,,
,,,,,,,,,,,,,,,704,2022-02-07_22h14.00.922,multiplicationStroop,2021.2.3,Win32,59.85515054,,,,,,,,,,,,,,,,,,,,,,,,,,,,,,,,,20,1.6156,1,0,25,25,7,1,4,×,5,4 × 5,congruent,smallerFirst,1,2,20,,,,,,,,
,,,,,,,,,,,,,,,704,2022-02-07_22h14.00.922,multiplicationStroop,2021.2.3,Win32,59.85515054,,,,,,,,,,,,,,,,,,,,,,,,,,,,,,,,,32,4.2502,1,0,26,26,20,1,8,×,4,8 × 4,congruent,largerFirst,2,1,32,,,,,,,,
,,,,,,,,,,,,,,,704,2022-02-07_22h14.00.922,multiplicationStroop,2021.2.3,Win32,59.85515054,,,,,,,,,,,,,,,,,,,,,,,,,,,,,,,,,9,1.3727,1,0,27,27,29,1,3,×,3,3 × 3,neutral,tie,2,1,9,,,,,,,,
,,,,,,,,,,,,,,,704,2022-02-07_22h14.00.922,multiplicationStroop,2021.2.3,Win32,59.85515054,,,,,,,,,,,,,,,,,,,,,,,,,,,,,,,,,25,1.4992,1,0,28,28,31,1,5,×,5,5 × 5,neutral,tie,2,1,25,,,,,,,,
,,,,,,,,,,,,,,,704,2022-02-07_22h14.00.922,multiplicationStroop,2021.2.3,Win32,59.85515054,,,,,,,,,,,,,,,,,,,,,,,,,,,,,,,,,36,2.8008,1,0,29,29,0,1,4,×,9,4 × 9,congruent,smallerFirst,1,2,36,,,,,,,,
,,,,,,,,,,,,,,,704,2022-02-07_22h14.00.922,multiplicationStroop,2021.2.3,Win32,59.85515054,,,,,,,,,,,,,,,,,,,,,,,,,,,,,,,,,81,1.5828,1,0,30,30,35,1,9,×,9,9 × 9,neutral,tie,2,1,81,,,,,,,,
,,,,,,,,,,,,,,,704,2022-02-07_22h14.00.922,multiplicationStroop,2021.2.3,Win32,59.85515054,,,,,,,,,,,,,,,,,,,,,,,,,,,,,,,,,36,2.0166,1,0,31,31,32,1,6,×,6,6 × 6,neutral,tie,2,1,36,,,,,,,,
,,,,,,,,,,,,,,,704,2022-02-07_22h14.00.922,multiplicationStroop,2021.2.3,Win32,59.85515054,,,,,,,,,,,,,,,,,,,,,,,,,,,,,,,,,35,1.8656,1,0,32,32,1,1,5,×,7,5 × 7,congruent,smallerFirst,1,2,35,,,,,,,,
,,,,,,,,,,,,,,,704,2022-02-07_22h14.00.922,multiplicationStroop,2021.2.3,Win32,59.85515054,,,,,,,,,,,,,,,,,,,,,,,,,,,,,,,,,16,1.7861,1,0,33,33,5,1,2,×,8,2 × 8,congruent,smallerFirst,1,2,16,,,,,,,,
,,,,,,,,,,,,,,,704,2022-02-07_22h14.00.922,multiplicationStroop,2021.2.3,Win32,59.85515054,,,,,,,,,,,,,,,,,,,,,,,,,,,,,,,,,4,1.4798,1,0,34,34,28,1,2,×,2,2 × 2,neutral,tie,2,1,4,,,,,,,,
,,,,,,,,,,,,,,,704,2022-02-07_22h14.00.922,multiplicationStroop,2021.2.3,Win32,59.85515054,,,,,,,,,,,,,,,,,,,,,,,,,,,,,,,,,12,2.0994,1,0,35,35,19,1,6,×,2,6 × 2,congruent,largerFirst,2,1,12,,,,,,,,
,,,,,,,,,,,,,,,704,2022-02-07_22h14.00.922,multiplicationStroop,2021.2.3,Win32,59.85515054,,,,,,,,,,,,,,,,,,,,,,,,,,,,,,,,,,,,,,,,,,,,,,,,,,0,3,3,2,1,stimulusFile/mult_blk3_congruent.xlsx,,
,,,,,,,,,,,,,,,704,2022-02-07_22h14.00.922,multiplicationStroop,2021.2.3,Win32,59.85515054,,,,,,,,,,,,,,,,,,,,,,,,,,,,,,,space,1.1149,27,2.1862,1,0,0,0,18,1,9,×,3,9 × 3,incongruent,largerFirst,1,2,27,,,,,,,,
,,,,,,,,,,,,,,,704,2022-02-07_22h14.00.922,multiplicationStroop,2021.2.3,Win32,59.85515054,,,,,,,,,,,,,,,,,,,,,,,,,,,,,,,,,15,1.4831,1,0,1,1,10,1,3,×,5,3 × 5,incongruent,smallerFirst,2,1,15,,,,,,,,
,,,,,,,,,,,,,,,704,2022-02-07_22h14.00.922,multiplicationStroop,2021.2.3,Win32,59.85515054,,,,,,,,,,,,,,,,,,,,,,,,,,,,,,,,,32,2.4162,1,0,2,2,7,1,4,×,8,4 × 8,incongruent,smallerFirst,2,1,32,,,,,,,,
,,,,,,,,,,,,,,,704,2022-02-07_22h14.00.922,multiplicationStroop,2021.2.3,Win32,59.85515054,,,,,,,,,,,,,,,,,,,,,,,,,,,,,,,,,25,2.7505,1,0,3,3,31,1,5,×,5,5 × 5,incongruent,tie,1,2,25,,,,,,,,
,,,,,,,,,,,,,,,704,2022-02-07_22h14.00.922,multiplicationStroop,2021.2.3,Win32,59.85515054,,,,,,,,,,,,,,,,,,,,,,,,,,,,,,,,,9,1.4384,1,0,4,4,29,1,3,×,3,3 × 3,incongruent,tie,1,2,9,,,,,,,,
,,,,,,,,,,,,,,,704,2022-02-07_22h14.00.922,multiplicationStroop,2021.2.3,Win32,59.85515054,,,,,,,,,,,,,,,,,,,,,,,,,,,,,,,,,28,2.8336,1,0,5,5,16,1,7,×,4,7 × 4,incongruent,largerFirst,1,2,28,,,,,,,,
,,,,,,,,,,,,,,,704,2022-02-07_22h14.00.922,multiplicationStroop,2021.2.3,Win32,59.85515054,,,,,,,,,,,,,,,,,,,,,,,,,,,,,,,,,10,1.5215,1,0,6,6,21,1,5,×,2,5 × 2,incongruent,largerFirst,1,2,10,,,,,,,,
,,,,,,,,,,,,,,,704,2022-02-07_22h14.00.922,multiplicationStroop,2021.2.3,Win32,59.85515054,,,,,,,,,,,,,,,,,,,,,,,,,,,,,,,,,16,1.4675,1,0,7,7,30,1,4,×,4,4 × 4,incongruent,tie,1,2,16,,,,,,,,
,,,,,,,,,,,,,,,704,2022-02-07_22h14.00.922,multiplicationStroop,2021.2.3,Win32,59.85515054,,,,,,,,,,,,,,,,,,,,,,,,,,,,,,,,,12,1.3495,1,0,8,8,19,1,6,×,2,6 × 2,incongruent,largerFirst,1,2,12,,,,,,,,
,,,,,,,,,,,,,,,704,2022-02-07_22h14.00.922,multiplicationStroop,2021.2.3,Win32,59.85515054,,,,,,,,,,,,,,,,,,,,,,,,,,,,,,,,,81,1.7153,1,0,9,9,35,1,9,×,9,9 × 9,incongruent,tie,1,2,81,,,,,,,,
,,,,,,,,,,,,,,,704,2022-02-07_22h14.00.922,multiplicationStroop,2021.2.3,Win32,59.85515054,,,,,,,,,,,,,,,,,,,,,,,,,,,,,,,,,4,1.4837,1,0,10,10,28,1,2,×,2,2 × 2,incongruent,tie,1,2,4,,,,,,,,
,,,,,,,,,,,,,,,704,2022-02-07_22h14.00.922,multiplicationStroop,2021.2.3,Win32,59.85515054,,,,,,,,,,,,,,,,,,,,,,,,,,,,,,,,,16,2.0332,1,0,11,11,23,1,8,×,2,8 × 2,incongruent,largerFirst,1,2,16,,,,,,,,
,,,,,,,,,,,,,,,704,2022-02-07_22h14.00.922,multiplicationStroop,2021.2.3,Win32,59.85515054,,,,,,,,,,,,,,,,,,,,,,,,,,,,,,,,,8,2.1168,1,0,12,12,24,1,4,×,2,4 × 2,incongruent,largerFirst,1,2,8,,,,,,,,
,,,,,,,,,,,,,,,704,2022-02-07_22h14.00.922,multiplicationStroop,2021.2.3,Win32,59.85515054,,,,,,,,,,,,,,,,,,,,,,,,,,,,,,,,,35,1.7725,1,0,13,13,12,1,5,×,7,5 × 7,incongruent,smallerFirst,2,1,35,,,,,,,,
,,,,,,,,,,,,,,,704,2022-02-07_22h14.00.922,multiplicationStroop,2021.2.3,Win32,59.85515054,,,,,,,,,,,,,,,,,,,,,,,,,,,,,,,,,63,3.05,1,0,14,14,3,1,7,×,9,7 × 9,incongruent,smallerFirst,2,1,63,,,,,,,,
,,,,,,,,,,,,,,,704,2022-02-07_22h14.00.922,multiplicationStroop,2021.2.3,Win32,59.85515054,,,,,,,,,,,,,,,,,,,,,,,,,,,,,,,,,56,1.771,1,0,15,15,14,1,8,×,7,8 × 7,incongruent,largerFirst,1,2,56,,,,,,,,
,,,,,,,,,,,,,,,704,2022-02-07_22h14.00.922,multiplicationStroop,2021.2.3,Win32,59.85515054,,,,,,,,,,,,,,,,,,,,,,,,,,,,,,,,,21,2.2161,1,0,16,16,26,1,7,×,3,7 × 3,incongruent,largerFirst,1,2,21,,,,,,,,
,,,,,,,,,,,,,,,704,2022-02-07_22h14.00.922,multiplicationStroop,2021.2.3,Win32,59.85515054,,,,,,,,,,,,,,,,,,,,,,,,,,,,,,,,,24,1.5836,1,0,17,17,20,1,6,×,4,6 × 4,incongruent,largerFirst,1,2,24,,,,,,,,
,,,,,,,,,,,,,,,704,2022-02-07_22h14.00.922,multiplicationStroop,2021.2.3,Win32,59.85515054,,,,,,,,,,,,,,,,,,,,,,,,,,,,,,,,,18,1.4498,1,0,18,18,2,1,2,×,9,2 × 9,incongruent,smallerFirst,2,1,18,,,,,,,,
,,,,,,,,,,,,,,,704,2022-02-07_22h14.00.922,multiplicationStroop,2021.2.3,Win32,59.85515054,,,,,,,,,,,,,,,,,,,,,,,,,,,,,,,,,36,2.0821,1,0,19,19,32,1,6,×,6,6 × 6,incongruent,tie,1,2,36,,,,,,,,
,,,,,,,,,,,,,,,704,2022-02-07_22h14.00.922,multiplicationStroop,2021.2.3,Win32,59.85515054,,,,,,,,,,,,,,,,,,,,,,,,,,,,,,,,,64,2.4835,1,0,20,20,34,1,8,×,8,8 × 8,incongruent,tie,1,2,64,,,,,,,,
,,,,,,,,,,,,,,,704,2022-02-07_22h14.00.922,multiplicationStroop,2021.2.3,Win32,59.85515054,,,,,,,,,,,,,,,,,,,,,,,,,,,,,,,,,72,2.3559,1,0,21,21,0,1,8,×,9,8 × 9,incongruent,smallerFirst,2,1,72,,,,,,,,
,,,,,,,,,,,,,,,704,2022-02-07_22h14.00.922,multiplicationStroop,2021.2.3,Win32,59.85515054,,,,,,,,,,,,,,,,,,,,,,,,,,,,,,,,,54,2.0339,1,0,22,22,6,1,6,×,9,6 × 9,incongruent,smallerFirst,2,1,54,,,,,,,,
,,,,,,,,,,,,,,,704,2022-02-07_22h14.00.922,multiplicationStroop,2021.2.3,Win32,59.85515054,,,,,,,,,,,,,,,,,,,,,,,,,,,,,,,,,36,2.7666,1,0,23,23,15,1,9,×,4,9 × 4,incongruent,largerFirst,1,2,36,,,,,,,,
,,,,,,,,,,,,,,,704,2022-02-07_22h14.00.922,multiplicationStroop,2021.2.3,Win32,59.85515054,,,,,,,,,,,,,,,,,,,,,,,,,,,,,,,,,45,1.5835,1,0,24,24,22,1,9,×,5,9 × 5,incongruent,largerFirst,1,2,45,,,,,,,,
,,,,,,,,,,,,,,,704,2022-02-07_22h14.00.922,multiplicationStroop,2021.2.3,Win32,59.85515054,,,,,,,,,,,,,,,,,,,,,,,,,,,,,,,,,40,1.8986,1,0,25,25,13,1,5,×,8,5 × 8,incongruent,smallerFirst,2,1,40,,,,,,,,
,,,,,,,,,,,,,,,704,2022-02-07_22h14.00.922,multiplicationStroop,2021.2.3,Win32,59.85515054,,,,,,,,,,,,,,,,,,,,,,,,,,,,,,,,,20,2.1508,1,0,26,26,27,1,5,×,4,5 × 4,incongruent,largerFirst,1,2,20,,,,,,,,
,,,,,,,,,,,,,,,704,2022-02-07_22h14.00.922,multiplicationStroop,2021.2.3,Win32,59.85515054,,,,,,,,,,,,,,,,,,,,,,,,,,,,,,,,,48,2.6334,1,0,27,27,1,1,6,×,8,6 × 8,incongruent,smallerFirst,2,1,48,,,,,,,,
,,,,,,,,,,,,,,,704,2022-02-07_22h14.00.922,multiplicationStroop,2021.2.3,Win32,59.85515054,,,,,,,,,,,,,,,,,,,,,,,,,,,,,,,,,42,3.3189,1,0,28,28,17,1,7,×,6,7 × 6,incongruent,largerFirst,1,2,42,,,,,,,,
,,,,,,,,,,,,,,,704,2022-02-07_22h14.00.922,multiplicationStroop,2021.2.3,Win32,59.85515054,,,,,,,,,,,,,,,,,,,,,,,,,,,,,,,,,24,3.204,1,0,29,29,9,1,3,×,8,3 × 8,incongruent,smallerFirst,2,1,24,,,,,,,,
,,,,,,,,,,,,,,,704,2022-02-07_22h14.00.922,multiplicationStroop,2021.2.3,Win32,59.85515054,,,,,,,,,,,,,,,,,,,,,,,,,,,,,,,,,12,1.8401,1,0,30,30,5,1,3,×,4,3 × 4,incongruent,smallerFirst,2,1,12,,,,,,,,
,,,,,,,,,,,,,,,704,2022-02-07_22h14.00.922,multiplicationStroop,2021.2.3,Win32,59.85515054,,,,,,,,,,,,,,,,,,,,,,,,,,,,,,,,,18,1.6323,1,0,31,31,8,1,3,×,6,3 × 6,incongruent,smallerFirst,2,1,18,,,,,,,,
,,,,,,,,,,,,,,,704,2022-02-07_22h14.00.922,multiplicationStroop,2021.2.3,Win32,59.85515054,,,,,,,,,,,,,,,,,,,,,,,,,,,,,,,,,30,1.7168,1,0,32,32,25,1,6,×,5,6 × 5,incongruent,largerFirst,1,2,30,,,,,,,,
,,,,,,,,,,,,,,,704,2022-02-07_22h14.00.922,multiplicationStroop,2021.2.3,Win32,59.85515054,,,,,,,,,,,,,,,,,,,,,,,,,,,,,,,,,6,1.6499,1,0,33,33,11,1,2,×,3,2 × 3,incongruent,smallerFirst,2,1,6,,,,,,,,
,,,,,,,,,,,,,,,704,2022-02-07_22h14.00.922,multiplicationStroop,2021.2.3,Win32,59.85515054,,,,,,,,,,,,,,,,,,,,,,,,,,,,,,,,,49,2.3829,1,0,34,34,33,1,7,×,7,7 × 7,incongruent,tie,1,2,49,,,,,,,,
,,,,,,,,,,,,,,,704,2022-02-07_22h14.00.922,multiplicationStroop,2021.2.3,Win32,59.85515054,,,,,,,,,,,,,,,,,,,,,,,,,,,,,,,,,14,1.6154,1,0,35,35,4,1,2,×,7,2 × 7,incongruent,smallerFirst,2,1,14,,,,,,,,
,,,,,,,,,,,,,,,704,2022-02-07_22h14.00.922,multiplicationStroop,2021.2.3,Win32,59.85515054,,,,,,,,,,,,,,,,,,,,,,,,,,,,,,,,,,,,,,,,,,,,,,,,,,0,4,4,5,1,stimulusFile/mult_blk6_INcongruent.xlsx,,
,,,,,,,,,,,,,,,704,2022-02-07_22h14.00.922,multiplicationStroop,2021.2.3,Win32,59.85515054,,,,,,,,,,,,,,,,,,,,,,,,,,,,,,,space,1.0709,6,1.6185,1,0,0,0,27,1,3,×,2,3 × 2,congruent,largerFirst,2,1,6,,,,,,,,
,,,,,,,,,,,,,,,704,2022-02-07_22h14.00.922,multiplicationStroop,2021.2.3,Win32,59.85515054,,,,,,,,,,,,,,,,,,,,,,,,,,,,,,,,,42,1.9339,1,0,1,1,17,1,7,×,6,7 × 6,congruent,largerFirst,2,1,42,,,,,,,,
,,,,,,,,,,,,,,,704,2022-02-07_22h14.00.922,multiplicationStroop,2021.2.3,Win32,59.85515054,,,,,,,,,,,,,,,,,,,,,,,,,,,,,,,,,12,3.1492,1,0,2,2,5,1,2,×,6,2 × 6,congruent,smallerFirst,1,2,12,,,,,,,,
,,,,,,,,,,,,,,,704,2022-02-07_22h14.00.922,multiplicationStroop,2021.2.3,Win32,59.85515054,,,,,,,,,,,,,,,,,,,,,,,,,,,,,,,,,15,2.2562,1,0,3,3,18,1,5,×,3,5 × 3,congruent,largerFirst,2,1,15,,,,,,,,
,,,,,,,,,,,,,,,704,2022-02-07_22h14.00.922,multiplicationStroop,2021.2.3,Win32,59.85515054,,,,,,,,,,,,,,,,,,,,,,,,,,,,,,,,,49,1.7327,1,0,4,4,33,1,7,×,7,7 × 7,neutral,tie,1,2,49,,,,,,,,
,,,,,,,,,,,,,,,704,2022-02-07_22h14.00.922,multiplicationStroop,2021.2.3,Win32,59.85515054,,,,,,,,,,,,,,,,,,,,,,,,,,,,,,,,,16,1.5524,1,0,5,5,19,1,8,×,2,8 × 2,congruent,largerFirst,2,1,16,,,,,,,,
,,,,,,,,,,,,,,,704,2022-02-07_22h14.00.922,multiplicationStroop,2021.2.3,Win32,59.85515054,,,,,,,,,,,,,,,,,,,,,,,,,,,,,,,,,18,2.033,1,0,6,6,25,1,6,×,3,6 × 3,congruent,largerFirst,2,1,18,,,,,,,,
,,,,,,,,,,,,,,,704,2022-02-07_22h14.00.922,multiplicationStroop,2021.2.3,Win32,59.85515054,,,,,,,,,,,,,,,,,,,,,,,,,,,,,,,,,81,3.5977,1,0,7,7,35,1,9,×,9,9 × 9,neutral,tie,1,2,81,,,,,,,,
,,,,,,,,,,,,,,,704,2022-02-07_22h14.00.922,multiplicationStroop,2021.2.3,Win32,59.85515054,,,,,,,,,,,,,,,,,,,,,,,,,,,,,,,,,14,1.5224,1,0,8,8,0,1,2,×,7,2 × 7,congruent,smallerFirst,1,2,14,,,,,,,,
,,,,,,,,,,,,,,,704,2022-02-07_22h14.00.922,multiplicationStroop,2021.2.3,Win32,59.85515054,,,,,,,,,,,,,,,,,,,,,,,,,,,,,,,,,63,2.3341,1,0,9,9,7,1,7,×,9,7 × 9,congruent,smallerFirst,1,2,63,,,,,,,,
,,,,,,,,,,,,,,,704,2022-02-07_22h14.00.922,multiplicationStroop,2021.2.3,Win32,59.85515054,,,,,,,,,,,,,,,,,,,,,,,,,,,,,,,,,4,1.4896,1,0,10,10,28,1,2,×,2,2 × 2,neutral,tie,1,2,4,,,,,,,,
,,,,,,,,,,,,,,,704,2022-02-07_22h14.00.922,multiplicationStroop,2021.2.3,Win32,59.85515054,,,,,,,,,,,,,,,,,,,,,,,,,,,,,,,,,54,1.8167,1,0,11,11,26,1,9,×,6,9 × 6,congruent,largerFirst,2,1,54,,,,,,,,
,,,,,,,,,,,,,,,704,2022-02-07_22h14.00.922,multiplicationStroop,2021.2.3,Win32,59.85515054,,,,,,,,,,,,,,,,,,,,,,,,,,,,,,,,,30,1.7499,1,0,12,12,1,1,5,×,6,5 × 6,congruent,smallerFirst,1,2,30,,,,,,,,
,,,,,,,,,,,,,,,704,2022-02-07_22h14.00.922,multiplicationStroop,2021.2.3,Win32,59.85515054,,,,,,,,,,,,,,,,,,,,,,,,,,,,,,,,,27,3.116,1,0,13,13,12,1,3,×,9,3 × 9,congruent,smallerFirst,1,2,27,,,,,,,,
,,,,,,,,,,,,,,,704,2022-02-07_22h14.00.922,multiplicationStroop,2021.2.3,Win32,59.85515054,,,,,,,,,,,,,,,,,,,,,,,,,,,,,,,,,64,1.8225,1,0,14,14,34,1,8,×,8,8 × 8,neutral,tie,1,2,64,,,,,,,,
,,,,,,,,,,,,,,,704,2022-02-07_22h14.00.922,multiplicationStroop,2021.2.3,Win32,59.85515054,,,,,,,,,,,,,,,,,,,,,,,,,,,,,,,,,20,1.5678,1,0,15,15,21,1,5,×,4,5 × 4,congruent,largerFirst,2,1,20,,,,,,,,
,,,,,,,,,,,,,,,704,2022-02-07_22h14.00.922,multiplicationStroop,2021.2.3,Win32,59.85515054,,,,,,,,,,,,,,,,,,,,,,,,,,,,,,,,,15,1.5495,0,0,16,16,31,1,5,×,5,5 × 5,neutral,tie,1,2,25,,,,,,,,
,,,,,,,,,,,,,,,704,2022-02-07_22h14.00.922,multiplicationStroop,2021.2.3,Win32,59.85515054,,,,,,,,,,,,,,,,,,,,,,,,,,,,,,,,,24,2.4163,1,0,17,17,11,1,4,×,6,4 × 6,congruent,smallerFirst,1,2,24,,,,,,,,
,,,,,,,,,,,,,,,704,2022-02-07_22h14.00.922,multiplicationStroop,2021.2.3,Win32,59.85515054,,,,,,,,,,,,,,,,,,,,,,,,,,,,,,,,,45,1.7669,1,0,18,18,9,1,5,×,9,5 × 9,congruent,smallerFirst,1,2,45,,,,,,,,
,,,,,,,,,,,,,,,704,2022-02-07_22h14.00.922,multiplicationStroop,2021.2.3,Win32,59.85515054,,,,,,,,,,,,,,,,,,,,,,,,,,,,,,,,,24,1.7501,1,0,19,19,24,1,8,×,3,8 × 3,congruent,largerFirst,2,1,24,,,,,,,,
,,,,,,,,,,,,,,,704,2022-02-07_22h14.00.922,multiplicationStroop,2021.2.3,Win32,59.85515054,,,,,,,,,,,,,,,,,,,,,,,,,,,,,,,,,16,1.6985,1,0,20,20,30,1,4,×,4,4 × 4,neutral,tie,1,2,16,,,,,,,,
,,,,,,,,,,,,,,,704,2022-02-07_22h14.00.922,multiplicationStroop,2021.2.3,Win32,59.85515054,,,,,,,,,,,,,,,,,,,,,,,,,,,,,,,,,35,1.8505,1,0,21,21,15,1,7,×,5,7 × 5,congruent,largerFirst,2,1,35,,,,,,,,
,,,,,,,,,,,,,,,704,2022-02-07_22h14.00.922,multiplicationStroop,2021.2.3,Win32,59.85515054,,,,,,,,,,,,,,,,,,,,,,,,,,,,,,,,,21,1.9487,1,0,22,22,2,1,3,×,7,3 × 7,congruent,smallerFirst,1,2,21,,,,,,,,
,,,,,,,,,,,,,,,704,2022-02-07_22h14.00.922,multiplicationStroop,2021.2.3,Win32,59.85515054,,,,,,,,,,,,,,,,,,,,,,,,,,,,,,,,,18,1.7827,1,0,23,23,8,1,2,×,9,2 × 9,congruent,smallerFirst,1,2,18,,,,,,,,
,,,,,,,,,,,,,,,704,2022-02-07_22h14.00.922,multiplicationStroop,2021.2.3,Win32,59.85515054,,,,,,,,,,,,,,,,,,,,,,,,,,,,,,,,,56,2.7165,1,0,24,24,22,1,8,×,7,8 × 7,congruent,largerFirst,2,1,56,,,,,,,,
,,,,,,,,,,,,,,,704,2022-02-07_22h14.00.922,multiplicationStroop,2021.2.3,Win32,59.85515054,,,,,,,,,,,,,,,,,,,,,,,,,,,,,,,,,8,1.5154,1,0,25,25,23,1,4,×,2,4 × 2,congruent,largerFirst,2,1,8,,,,,,,,
,,,,,,,,,,,,,,,704,2022-02-07_22h14.00.922,multiplicationStroop,2021.2.3,Win32,59.85515054,,,,,,,,,,,,,,,,,,,,,,,,,,,,,,,,,28,3.0013,1,0,26,26,13,1,4,×,7,4 × 7,congruent,smallerFirst,1,2,28,,,,,,,,
,,,,,,,,,,,,,,,704,2022-02-07_22h14.00.922,multiplicationStroop,2021.2.3,Win32,59.85515054,,,,,,,,,,,,,,,,,,,,,,,,,,,,,,,,,32,1.9163,1,0,27,27,6,1,4,×,8,4 × 8,congruent,smallerFirst,1,2,32,,,,,,,,
,,,,,,,,,,,,,,,704,2022-02-07_22h14.00.922,multiplicationStroop,2021.2.3,Win32,59.85515054,,,,,,,,,,,,,,,,,,,,,,,,,,,,,,,,,36,1.8331,1,0,28,28,32,1,6,×,6,6 × 6,neutral,tie,1,2,36,,,,,,,,
,,,,,,,,,,,,,,,704,2022-02-07_22h14.00.922,multiplicationStroop,2021.2.3,Win32,59.85515054,,,,,,,,,,,,,,,,,,,,,,,,,,,,,,,,,9,1.365,1,0,29,29,29,1,3,×,3,3 × 3,neutral,tie,1,2,9,,,,,,,,
,,,,,,,,,,,,,,,704,2022-02-07_22h14.00.922,multiplicationStroop,2021.2.3,Win32,59.85515054,,,,,,,,,,,,,,,,,,,,,,,,,,,,,,,,,36,2.9509,1,0,30,30,14,1,9,×,4,9 × 4,congruent,largerFirst,2,1,36,,,,,,,,
,,,,,,,,,,,,,,,704,2022-02-07_22h14.00.922,multiplicationStroop,2021.2.3,Win32,59.85515054,,,,,,,,,,,,,,,,,,,,,,,,,,,,,,,,,12,1.5,1,0,31,31,16,1,4,×,3,4 × 3,congruent,largerFirst,2,1,12,,,,,,,,
,,,,,,,,,,,,,,,704,2022-02-07_22h14.00.922,multiplicationStroop,2021.2.3,Win32,59.85515054,,,,,,,,,,,,,,,,,,,,,,,,,,,,,,,,,10,1.4152,1,0,32,32,10,1,2,×,5,2 × 5,congruent,smallerFirst,1,2,10,,,,,,,,
,,,,,,,,,,,,,,,704,2022-02-07_22h14.00.922,multiplicationStroop,2021.2.3,Win32,59.85515054,,,,,,,,,,,,,,,,,,,,,,,,,,,,,,,,,40,1.7675,1,0,33,33,20,1,8,×,5,8 × 5,congruent,largerFirst,2,1,40,,,,,,,,
,,,,,,,,,,,,,,,704,2022-02-07_22h14.00.922,multiplicationStroop,2021.2.3,Win32,59.85515054,,,,,,,,,,,,,,,,,,,,,,,,,,,,,,,,,48,1.9666,1,0,34,34,4,1,6,×,8,6 × 8,congruent,smallerFirst,1,2,48,,,,,,,,
,,,,,,,,,,,,,,,704,2022-02-07_22h14.00.922,multiplicationStroop,2021.2.3,Win32,59.85515054,,,,,,,,,,,,,,,,,,,,,,,,,,,,,,,,,72,1.9826,1,0,35,35,3,1,8,×,9,8 × 9,congruent,smallerFirst,1,2,72,,,,,,,,
,,,,,,,,,,,,,,,704,2022-02-07_22h14.00.922,multiplicationStroop,2021.2.3,Win32,59.85515054,,,,,,,,,,,,,,,,,,,,,,,,,,,,,,,,,,,,,,,,,,,,,,,,,,0,5,5,3,1,stimulusFile/mult_blk4_congruent.xlsx,,
,,,,,,,,,,,,,,,704,2022-02-07_22h14.00.922,multiplicationStroop,2021.2.3,Win32,59.85515054,,,,,,,,,,,,,,,,,,,,,,,,,,,,,,,,,,,,,,,,,,,,,,,,,,,,,,,,space,6.7045