welcomeKey_resp.keys,welcomeKey_resp.rt,X Scale,Y Scale,rt_resp_4.keys,rt_resp_4.corr,rt_resp_4.rt,speedtest_2.thisRepN,speedtest_2.thisTrialN,speedtest_2.thisN,speedtest_2.thisIndex,speedtest_2.ran,numberSc,posX,positionLayout,participant,date,expName,psychopyVersion,OS,frameRate,ct_instrresp.keys,ct_instrresp.rt,key_resp_2.keys,key_resp_2.rt,ct_keyResp.keys,ct_keyResp.corr,ct_keyResp.rt,trials.thisRepN,trials.thisTrialN,trials.thisN,trials.thisIndex,trials.ran,leftNo,rightNo,displayProblem,numDistance,leftNo_size,rightNo_size,Dims,keyAnswer,TS_Loop.thisRepN,TS_Loop.thisTrialN,TS_Loop.thisN,TS_Loop.thisIndex,TS_Loop.ran,Condition,ActionInst,instrImage,mltptaskInst_resp.keys,mltptaskInst_resp.rt,continue_resp_2.keys,continue_resp_2.rt,multp_Answer,multi_RT,multiplyCorr,LoopingMultiply.thisRepN,LoopingMultiply.thisTrialN,LoopingMultiply.thisN,LoopingMultiply.thisIndex,LoopingMultiply.ran,factor1,multiplySign,factor2,multliplyProblem,physicalSize,orderOperand,sizeF1,sizeF2,mult_answer,trials_stroop.thisRepN,trials_stroop.thisTrialN,trials_stroop.thisN,trials_stroop.thisIndex,trials_stroop.ran,multiplicationFile,esckey_resp_2.keys,esckey_resp_2.rt
y,18.825,44.9,45.1,left,1,0.9861,0,0,0,2,1,3,-200,left,706,2022-01-29_13h28.34.831,multiplicationStroop,2021.2.3,Win32,60.06006006,,,,,,,,,,,,,,,,,,,,,,,,,,,,,,,,,,,,,,,,,,,,,,,,,,,,,,,,,
,,,,left,1,0.3837,0,1,1,1,1,2,-200,left,706,2022-01-29_13h28.34.831,multiplicationStroop,2021.2.3,Win32,60.06006006,,,,,,,,,,,,,,,,,,,,,,,,,,,,,,,,,,,,,,,,,,,,,,,,,,,,,,,,,
,,,,right,1,0.3494,0,2,2,14,1,8,200,right,706,2022-01-29_13h28.34.831,multiplicationStroop,2021.2.3,Win32,60.06006006,,,,,,,,,,,,,,,,,,,,,,,,,,,,,,,,,,,,,,,,,,,,,,,,,,,,,,,,,
,,,,right,1,0.3622,0,3,3,13,1,7,200,right,706,2022-01-29_13h28.34.831,multiplicationStroop,2021.2.3,Win32,60.06006006,,,,,,,,,,,,,,,,,,,,,,,,,,,,,,,,,,,,,,,,,,,,,,,,,,,,,,,,,
,,,,right,1,0.4828,0,4,4,15,1,9,200,right,706,2022-01-29_13h28.34.831,multiplicationStroop,2021.2.3,Win32,60.06006006,,,,,,,,,,,,,,,,,,,,,,,,,,,,,,,,,,,,,,,,,,,,,,,,,,,,,,,,,
,,,,left,1,0.2846,0,5,5,0,1,1,-200,left,706,2022-01-29_13h28.34.831,multiplicationStroop,2021.2.3,Win32,60.06006006,,,,,,,,,,,,,,,,,,,,,,,,,,,,,,,,,,,,,,,,,,,,,,,,,,,,,,,,,
,,,,right,1,0.2808,0,6,6,9,1,2,200,right,706,2022-01-29_13h28.34.831,multiplicationStroop,2021.2.3,Win32,60.06006006,,,,,,,,,,,,,,,,,,,,,,,,,,,,,,,,,,,,,,,,,,,,,,,,,,,,,,,,,
,,,,right,1,0.366,0,7,7,12,1,6,200,right,706,2022-01-29_13h28.34.831,multiplicationStroop,2021.2.3,Win32,60.06006006,,,,,,,,,,,,,,,,,,,,,,,,,,,,,,,,,,,,,,,,,,,,,,,,,,,,,,,,,
,,,,right,1,0.3468,0,8,8,8,1,1,200,right,706,2022-01-29_13h28.34.831,multiplicationStroop,2021.2.3,Win32,60.06006006,,,,,,,,,,,,,,,,,,,,,,,,,,,,,,,,,,,,,,,,,,,,,,,,,,,,,,,,,
,,,,left,1,0.2642,0,9,9,6,1,8,-200,left,706,2022-01-29_13h28.34.831,multiplicationStroop,2021.2.3,Win32,60.06006006,,,,,,,,,,,,,,,,,,,,,,,,,,,,,,,,,,,,,,,,,,,,,,,,,,,,,,,,,
,,,,left,1,0.336,0,10,10,3,1,4,-200,left,706,2022-01-29_13h28.34.831,multiplicationStroop,2021.2.3,Win32,60.06006006,,,,,,,,,,,,,,,,,,,,,,,,,,,,,,,,,,,,,,,,,,,,,,,,,,,,,,,,,
,,,,right,1,0.3143,0,11,11,11,1,4,200,right,706,2022-01-29_13h28.34.831,multiplicationStroop,2021.2.3,Win32,60.06006006,,,,,,,,,,,,,,,,,,,,,,,,,,,,,,,,,,,,,,,,,,,,,,,,,,,,,,,,,
,,,,left,1,0.2751,0,12,12,7,1,9,-200,left,706,2022-01-29_13h28.34.831,multiplicationStroop,2021.2.3,Win32,60.06006006,,,,,,,,,,,,,,,,,,,,,,,,,,,,,,,,,,,,,,,,,,,,,,,,,,,,,,,,,
,,,,left,1,0.3298,0,13,13,5,1,7,-200,left,706,2022-01-29_13h28.34.831,multiplicationStroop,2021.2.3,Win32,60.06006006,,,,,,,,,,,,,,,,,,,,,,,,,,,,,,,,,,,,,,,,,,,,,,,,,,,,,,,,,
,,,,left,1,0.3386,0,14,14,4,1,6,-200,left,706,2022-01-29_13h28.34.831,multiplicationStroop,2021.2.3,Win32,60.06006006,,,,,,,,,,,,,,,,,,,,,,,,,,,,,,,,,,,,,,,,,,,,,,,,,,,,,,,,,
,,,,right,1,0.2813,0,15,15,10,1,3,200,right,706,2022-01-29_13h28.34.831,multiplicationStroop,2021.2.3,Win32,60.06006006,,,,,,,,,,,,,,,,,,,,,,,,,,,,,,,,,,,,,,,,,,,,,,,,,,,,,,,,,
,,,,left,1,0.3609,1,0,16,5,1,7,-200,left,706,2022-01-29_13h28.34.831,multiplicationStroop,2021.2.3,Win32,60.06006006,,,,,,,,,,,,,,,,,,,,,,,,,,,,,,,,,,,,,,,,,,,,,,,,,,,,,,,,,
,,,,left,1,0.3296,1,1,17,0,1,1,-200,left,706,2022-01-29_13h28.34.831,multiplicationStroop,2021.2.3,Win32,60.06006006,,,,,,,,,,,,,,,,,,,,,,,,,,,,,,,,,,,,,,,,,,,,,,,,,,,,,,,,,
,,,,right,1,0.2967,1,2,18,9,1,2,200,right,706,2022-01-29_13h28.34.831,multiplicationStroop,2021.2.3,Win32,60.06006006,,,,,,,,,,,,,,,,,,,,,,,,,,,,,,,,,,,,,,,,,,,,,,,,,,,,,,,,,
,,,,right,1,0.3915,1,3,19,13,1,7,200,right,706,2022-01-29_13h28.34.831,multiplicationStroop,2021.2.3,Win32,60.06006006,,,,,,,,,,,,,,,,,,,,,,,,,,,,,,,,,,,,,,,,,,,,,,,,,,,,,,,,,
,,,,right,1,0.3558,1,4,20,15,1,9,200,right,706,2022-01-29_13h28.34.831,multiplicationStroop,2021.2.3,Win32,60.06006006,,,,,,,,,,,,,,,,,,,,,,,,,,,,,,,,,,,,,,,,,,,,,,,,,,,,,,,,,
,,,,left,1,0.2703,1,5,21,2,1,3,-200,left,706,2022-01-29_13h28.34.831,multiplicationStroop,2021.2.3,Win32,60.06006006,,,,,,,,,,,,,,,,,,,,,,,,,,,,,,,,,,,,,,,,,,,,,,,,,,,,,,,,,
,,,,right,1,0.2928,1,6,22,11,1,4,200,right,706,2022-01-29_13h28.34.831,multiplicationStroop,2021.2.3,Win32,60.06006006,,,,,,,,,,,,,,,,,,,,,,,,,,,,,,,,,,,,,,,,,,,,,,,,,,,,,,,,,
,,,,right,1,0.3671,1,7,23,12,1,6,200,right,706,2022-01-29_13h28.34.831,multiplicationStroop,2021.2.3,Win32,60.06006006,,,,,,,,,,,,,,,,,,,,,,,,,,,,,,,,,,,,,,,,,,,,,,,,,,,,,,,,,
,,,,left,1,0.2862,1,8,24,4,1,6,-200,left,706,2022-01-29_13h28.34.831,multiplicationStroop,2021.2.3,Win32,60.06006006,,,,,,,,,,,,,,,,,,,,,,,,,,,,,,,,,,,,,,,,,,,,,,,,,,,,,,,,,
,,,,left,1,0.3014,1,9,25,7,1,9,-200,left,706,2022-01-29_13h28.34.831,multiplicationStroop,2021.2.3,Win32,60.06006006,,,,,,,,,,,,,,,,,,,,,,,,,,,,,,,,,,,,,,,,,,,,,,,,,,,,,,,,,
,,,,left,1,0.3245,1,10,26,6,1,8,-200,left,706,2022-01-29_13h28.34.831,multiplicationStroop,2021.2.3,Win32,60.06006006,,,,,,,,,,,,,,,,,,,,,,,,,,,,,,,,,,,,,,,,,,,,,,,,,,,,,,,,,
,,,,left,1,0.3029,1,11,27,1,1,2,-200,left,706,2022-01-29_13h28.34.831,multiplicationStroop,2021.2.3,Win32,60.06006006,,,,,,,,,,,,,,,,,,,,,,,,,,,,,,,,,,,,,,,,,,,,,,,,,,,,,,,,,
,,,,right,1,0.3086,1,12,28,10,1,3,200,right,706,2022-01-29_13h28.34.831,multiplicationStroop,2021.2.3,Win32,60.06006006,,,,,,,,,,,,,,,,,,,,,,,,,,,,,,,,,,,,,,,,,,,,,,,,,,,,,,,,,
,,,,right,1,0.3007,1,13,29,8,1,1,200,right,706,2022-01-29_13h28.34.831,multiplicationStroop,2021.2.3,Win32,60.06006006,,,,,,,,,,,,,,,,,,,,,,,,,,,,,,,,,,,,,,,,,,,,,,,,,,,,,,,,,
,,,,right,1,0.32,1,14,30,14,1,8,200,right,706,2022-01-29_13h28.34.831,multiplicationStroop,2021.2.3,Win32,60.06006006,,,,,,,,,,,,,,,,,,,,,,,,,,,,,,,,,,,,,,,,,,,,,,,,,,,,,,,,,
,,,,left,1,0.3062,1,15,31,3,1,4,-200,left,706,2022-01-29_13h28.34.831,multiplicationStroop,2021.2.3,Win32,60.06006006,,,,,,,,,,,,,,,,,,,,,,,,,,,,,,,,,,,,,,,,,,,,,,,,,,,,,,,,,
,,,,right,1,0.2633,2,0,32,15,1,9,200,right,706,2022-01-29_13h28.34.831,multiplicationStroop,2021.2.3,Win32,60.06006006,,,,,,,,,,,,,,,,,,,,,,,,,,,,,,,,,,,,,,,,,,,,,,,,,,,,,,,,,
,,,,right,1,0.307,2,1,33,11,1,4,200,right,706,2022-01-29_13h28.34.831,multiplicationStroop,2021.2.3,Win32,60.06006006,,,,,,,,,,,,,,,,,,,,,,,,,,,,,,,,,,,,,,,,,,,,,,,,,,,,,,,,,
,,,,right,1,0.2937,2,2,34,14,1,8,200,right,706,2022-01-29_13h28.34.831,multiplicationStroop,2021.2.3,Win32,60.06006006,,,,,,,,,,,,,,,,,,,,,,,,,,,,,,,,,,,,,,,,,,,,,,,,,,,,,,,,,
,,,,right,1,0.2776,2,3,35,13,1,7,200,right,706,2022-01-29_13h28.34.831,multiplicationStroop,2021.2.3,Win32,60.06006006,,,,,,,,,,,,,,,,,,,,,,,,,,,,,,,,,,,,,,,,,,,,,,,,,,,,,,,,,
,,,,left,1,0.2999,2,4,36,0,1,1,-200,left,706,2022-01-29_13h28.34.831,multiplicationStroop,2021.2.3,Win32,60.06006006,,,,,,,,,,,,,,,,,,,,,,,,,,,,,,,,,,,,,,,,,,,,,,,,,,,,,,,,,
,,,,right,1,0.2966,2,5,37,9,1,2,200,right,706,2022-01-29_13h28.34.831,multiplicationStroop,2021.2.3,Win32,60.06006006,,,,,,,,,,,,,,,,,,,,,,,,,,,,,,,,,,,,,,,,,,,,,,,,,,,,,,,,,
,,,,left,1,0.2647,2,6,38,1,1,2,-200,left,706,2022-01-29_13h28.34.831,multiplicationStroop,2021.2.3,Win32,60.06006006,,,,,,,,,,,,,,,,,,,,,,,,,,,,,,,,,,,,,,,,,,,,,,,,,,,,,,,,,
,,,,left,1,0.3591,2,7,39,6,1,8,-200,left,706,2022-01-29_13h28.34.831,multiplicationStroop,2021.2.3,Win32,60.06006006,,,,,,,,,,,,,,,,,,,,,,,,,,,,,,,,,,,,,,,,,,,,,,,,,,,,,,,,,
,,,,left,0,0.2953,2,8,40,8,1,1,200,right,706,2022-01-29_13h28.34.831,multiplicationStroop,2021.2.3,Win32,60.06006006,,,,,,,,,,,,,,,,,,,,,,,,,,,,,,,,,,,,,,,,,,,,,,,,,,,,,,,,,
,,,,left,1,0.3921,2,9,41,3,1,4,-200,left,706,2022-01-29_13h28.34.831,multiplicationStroop,2021.2.3,Win32,60.06006006,,,,,,,,,,,,,,,,,,,,,,,,,,,,,,,,,,,,,,,,,,,,,,,,,,,,,,,,,
,,,,left,1,0.3299,2,10,42,7,1,9,-200,left,706,2022-01-29_13h28.34.831,multiplicationStroop,2021.2.3,Win32,60.06006006,,,,,,,,,,,,,,,,,,,,,,,,,,,,,,,,,,,,,,,,,,,,,,,,,,,,,,,,,
,,,,right,1,0.2991,2,11,43,10,1,3,200,right,706,2022-01-29_13h28.34.831,multiplicationStroop,2021.2.3,Win32,60.06006006,,,,,,,,,,,,,,,,,,,,,,,,,,,,,,,,,,,,,,,,,,,,,,,,,,,,,,,,,
,,,,left,1,0.2798,2,12,44,4,1,6,-200,left,706,2022-01-29_13h28.34.831,multiplicationStroop,2021.2.3,Win32,60.06006006,,,,,,,,,,,,,,,,,,,,,,,,,,,,,,,,,,,,,,,,,,,,,,,,,,,,,,,,,
,,,,left,1,0.3278,2,13,45,5,1,7,-200,left,706,2022-01-29_13h28.34.831,multiplicationStroop,2021.2.3,Win32,60.06006006,,,,,,,,,,,,,,,,,,,,,,,,,,,,,,,,,,,,,,,,,,,,,,,,,,,,,,,,,
,,,,right,1,0.3521,2,14,46,12,1,6,200,right,706,2022-01-29_13h28.34.831,multiplicationStroop,2021.2.3,Win32,60.06006006,,,,,,,,,,,,,,,,,,,,,,,,,,,,,,,,,,,,,,,,,,,,,,,,,,,,,,,,,
,,,,left,1,0.2655,2,15,47,2,1,3,-200,left,706,2022-01-29_13h28.34.831,multiplicationStroop,2021.2.3,Win32,60.06006006,,,,,,,,,,,,,,,,,,,,,,,,,,,,,,,,,,,,,,,,,,,,,,,,,,,,,,,,,
,,,,left,1,0.3174,3,0,48,6,1,8,-200,left,706,2022-01-29_13h28.34.831,multiplicationStroop,2021.2.3,Win32,60.06006006,,,,,,,,,,,,,,,,,,,,,,,,,,,,,,,,,,,,,,,,,,,,,,,,,,,,,,,,,
,,,,right,1,0.2926,3,1,49,13,1,7,200,right,706,2022-01-29_13h28.34.831,multiplicationStroop,2021.2.3,Win32,60.06006006,,,,,,,,,,,,,,,,,,,,,,,,,,,,,,,,,,,,,,,,,,,,,,,,,,,,,,,,,
,,,,right,1,0.3638,3,2,50,10,1,3,200,right,706,2022-01-29_13h28.34.831,multiplicationStroop,2021.2.3,Win32,60.06006006,,,,,,,,,,,,,,,,,,,,,,,,,,,,,,,,,,,,,,,,,,,,,,,,,,,,,,,,,
,,,,right,1,0.3134,3,3,51,8,1,1,200,right,706,2022-01-29_13h28.34.831,multiplicationStroop,2021.2.3,Win32,60.06006006,,,,,,,,,,,,,,,,,,,,,,,,,,,,,,,,,,,,,,,,,,,,,,,,,,,,,,,,,
,,,,left,1,0.2853,3,4,52,4,1,6,-200,left,706,2022-01-29_13h28.34.831,multiplicationStroop,2021.2.3,Win32,60.06006006,,,,,,,,,,,,,,,,,,,,,,,,,,,,,,,,,,,,,,,,,,,,,,,,,,,,,,,,,
,,,,left,1,0.3231,3,5,53,5,1,7,-200,left,706,2022-01-29_13h28.34.831,multiplicationStroop,2021.2.3,Win32,60.06006006,,,,,,,,,,,,,,,,,,,,,,,,,,,,,,,,,,,,,,,,,,,,,,,,,,,,,,,,,
,,,,left,1,0.2917,3,6,54,2,1,3,-200,left,706,2022-01-29_13h28.34.831,multiplicationStroop,2021.2.3,Win32,60.06006006,,,,,,,,,,,,,,,,,,,,,,,,,,,,,,,,,,,,,,,,,,,,,,,,,,,,,,,,,
,,,,right,1,0.3584,3,7,55,15,1,9,200,right,706,2022-01-29_13h28.34.831,multiplicationStroop,2021.2.3,Win32,60.06006006,,,,,,,,,,,,,,,,,,,,,,,,,,,,,,,,,,,,,,,,,,,,,,,,,,,,,,,,,
,,,,left,1,0.2787,3,8,56,7,1,9,-200,left,706,2022-01-29_13h28.34.831,multiplicationStroop,2021.2.3,Win32,60.06006006,,,,,,,,,,,,,,,,,,,,,,,,,,,,,,,,,,,,,,,,,,,,,,,,,,,,,,,,,
,,,,right,1,0.274,3,9,57,9,1,2,200,right,706,2022-01-29_13h28.34.831,multiplicationStroop,2021.2.3,Win32,60.06006006,,,,,,,,,,,,,,,,,,,,,,,,,,,,,,,,,,,,,,,,,,,,,,,,,,,,,,,,,
,,,,left,1,0.2655,3,10,58,3,1,4,-200,left,706,2022-01-29_13h28.34.831,multiplicationStroop,2021.2.3,Win32,60.06006006,,,,,,,,,,,,,,,,,,,,,,,,,,,,,,,,,,,,,,,,,,,,,,,,,,,,,,,,,
,,,,right,1,0.2714,3,11,59,12,1,6,200,right,706,2022-01-29_13h28.34.831,multiplicationStroop,2021.2.3,Win32,60.06006006,,,,,,,,,,,,,,,,,,,,,,,,,,,,,,,,,,,,,,,,,,,,,,,,,,,,,,,,,
,,,,left,1,0.277,3,12,60,0,1,1,-200,left,706,2022-01-29_13h28.34.831,multiplicationStroop,2021.2.3,Win32,60.06006006,,,,,,,,,,,,,,,,,,,,,,,,,,,,,,,,,,,,,,,,,,,,,,,,,,,,,,,,,
,,,,right,1,0.298,3,13,61,14,1,8,200,right,706,2022-01-29_13h28.34.831,multiplicationStroop,2021.2.3,Win32,60.06006006,,,,,,,,,,,,,,,,,,,,,,,,,,,,,,,,,,,,,,,,,,,,,,,,,,,,,,,,,
,,,,left,1,0.2574,3,14,62,1,1,2,-200,left,706,2022-01-29_13h28.34.831,multiplicationStroop,2021.2.3,Win32,60.06006006,,,,,,,,,,,,,,,,,,,,,,,,,,,,,,,,,,,,,,,,,,,,,,,,,,,,,,,,,
,,,,right,1,0.2965,3,15,63,11,1,4,200,right,706,2022-01-29_13h28.34.831,multiplicationStroop,2021.2.3,Win32,60.06006006,,,,,,,,,,,,,,,,,,,,,,,,,,,,,,,,,,,,,,,,,,,,,,,,,,,,,,,,,
,,,,,,,,,,,,,,,706,2022-01-29_13h28.34.831,multiplicationStroop,2021.2.3,Win32,60.06006006,space,20.907,space,26.8617,left,1,0.7399,0,0,0,44,1,6,1,6 | 1,5,1.4111,1.9756,incongruent,left,,,,,,stimulusFile/magnitude.xlsx,,,,,,,,,,,,,,,,,,,,,,,,,,,,,,,
,,,,,,,,,,,,,,,706,2022-01-29_13h28.34.831,multiplicationStroop,2021.2.3,Win32,60.06006006,,,,,left,1,0.9654,0,1,1,12,1,3,1,3 | 1,2,1.9756,1.4111,congruent,left,,,,,,stimulusFile/magnitude.xlsx,,,,,,,,,,,,,,,,,,,,,,,,,,,,,,,
,,,,,,,,,,,,,,,706,2022-01-29_13h28.34.831,multiplicationStroop,2021.2.3,Win32,60.06006006,,,,,right,1,0.5908,0,2,2,40,1,1,6,1 | 6,5,1.9756,1.4111,incongruent,right,,,,,,stimulusFile/magnitude.xlsx,,,,,,,,,,,,,,,,,,,,,,,,,,,,,,,
,,,,,,,,,,,,,,,706,2022-01-29_13h28.34.831,multiplicationStroop,2021.2.3,Win32,60.06006006,,,,,left,1,0.4823,0,3,3,60,1,3,1,3 | 1,2,1.6933,1.6933,neutral,left,,,,,,stimulusFile/magnitude.xlsx,,,,,,,,,,,,,,,,,,,,,,,,,,,,,,,
,,,,,,,,,,,,,,,706,2022-01-29_13h28.34.831,multiplicationStroop,2021.2.3,Win32,60.06006006,,,,,right,1,0.5192,0,4,4,43,1,4,9,4 | 9,5,1.9756,1.4111,incongruent,right,,,,,,stimulusFile/magnitude.xlsx,,,,,,,,,,,,,,,,,,,,,,,,,,,,,,,
,,,,,,,,,,,,,,,706,2022-01-29_13h28.34.831,multiplicationStroop,2021.2.3,Win32,60.06006006,,,,,right,1,0.5439,0,5,5,56,1,1,3,1 | 3,2,1.6933,1.6933,neutral,right,,,,,,stimulusFile/magnitude.xlsx,,,,,,,,,,,,,,,,,,,,,,,,,,,,,,,
,,,,,,,,,,,,,,,706,2022-01-29_13h28.34.831,multiplicationStroop,2021.2.3,Win32,60.06006006,,,,,right,1,0.4269,0,6,6,16,1,1,6,1 | 6,5,1.4111,1.9756,congruent,right,,,,,,stimulusFile/magnitude.xlsx,,,,,,,,,,,,,,,,,,,,,,,,,,,,,,,
,,,,,,,,,,,,,,,706,2022-01-29_13h28.34.831,multiplicationStroop,2021.2.3,Win32,60.06006006,,,,,left,0,0.3928,0,7,7,25,1,3,4,3 | 4,1,1.9756,1.4111,incongruent,right,,,,,,stimulusFile/magnitude.xlsx,,,,,,,,,,,,,,,,,,,,,,,,,,,,,,,
,,,,,,,,,,,,,,,706,2022-01-29_13h28.34.831,multiplicationStroop,2021.2.3,Win32,60.06006006,,,,,right,1,1.5999,0,8,8,11,1,7,9,7 | 9,2,1.4111,1.9756,congruent,right,,,,,,stimulusFile/magnitude.xlsx,,,,,,,,,,,,,,,,,,,,,,,,,,,,,,,
,,,,,,,,,,,,,,,706,2022-01-29_13h28.34.831,multiplicationStroop,2021.2.3,Win32,60.06006006,,,,,right,1,0.6826,0,9,9,9,1,2,4,2 | 4,2,1.4111,1.9756,congruent,right,,,,,,stimulusFile/magnitude.xlsx,,,,,,,,,,,,,,,,,,,,,,,,,,,,,,,
,,,,,,,,,,,,,,,706,2022-01-29_13h28.34.831,multiplicationStroop,2021.2.3,Win32,60.06006006,,,,,left,1,0.7441,0,10,10,55,1,9,8,9 | 8,1,1.6933,1.6933,neutral,left,,,,,,stimulusFile/magnitude.xlsx,,,,,,,,,,,,,,,,,,,,,,,,,,,,,,,
,,,,,,,,,,,,,,,706,2022-01-29_13h28.34.831,multiplicationStroop,2021.2.3,Win32,60.06006006,,,,,left,1,0.693,0,11,11,29,1,4,3,4 | 3,1,1.4111,1.9756,incongruent,left,,,,,,stimulusFile/magnitude.xlsx,,,,,,,,,,,,,,,,,,,,,,,,,,,,,,,
,,,,,,,,,,,,,,,706,2022-01-29_13h28.34.831,multiplicationStroop,2021.2.3,Win32,60.06006006,,,,,left,1,0.4447,0,12,12,5,1,4,3,4 | 3,1,1.9756,1.4111,congruent,left,,,,,,stimulusFile/magnitude.xlsx,,,,,,,,,,,,,,,,,,,,,,,,,,,,,,,
,,,,,,,,,,,,,,,706,2022-01-29_13h28.34.831,multiplicationStroop,2021.2.3,Win32,60.06006006,,,,,right,1,0.7044,0,13,13,26,1,6,7,6 | 7,1,1.9756,1.4111,incongruent,right,,,,,,stimulusFile/magnitude.xlsx,,,,,,,,,,,,,,,,,,,,,,,,,,,,,,,
,,,,,,,,,,,,,,,706,2022-01-29_13h28.34.831,multiplicationStroop,2021.2.3,Win32,60.06006006,,,,,left,1,0.8982,0,14,14,28,1,2,1,2 | 1,1,1.4111,1.9756,incongruent,left,,,,,,stimulusFile/magnitude.xlsx,,,,,,,,,,,,,,,,,,,,,,,,,,,,,,,
,,,,,,,,,,,,,,,706,2022-01-29_13h28.34.831,multiplicationStroop,2021.2.3,Win32,60.06006006,,,,,right,1,0.7126,0,15,15,41,1,2,7,2 | 7,5,1.9756,1.4111,incongruent,right,,,,,,stimulusFile/magnitude.xlsx,,,,,,,,,,,,,,,,,,,,,,,,,,,,,,,
,,,,,,,,,,,,,,,706,2022-01-29_13h28.34.831,multiplicationStroop,2021.2.3,Win32,60.06006006,,,,,left,1,0.8193,0,16,16,61,1,4,2,4 | 2,2,1.6933,1.6933,neutral,left,,,,,,stimulusFile/magnitude.xlsx,,,,,,,,,,,,,,,,,,,,,,,,,,,,,,,
,,,,,,,,,,,,,,,706,2022-01-29_13h28.34.831,multiplicationStroop,2021.2.3,Win32,60.06006006,,,,,right,1,0.5764,0,17,17,59,1,7,9,7 | 9,2,1.6933,1.6933,neutral,right,,,,,,stimulusFile/magnitude.xlsx,,,,,,,,,,,,,,,,,,,,,,,,,,,,,,,
,,,,,,,,,,,,,,,706,2022-01-29_13h28.34.831,multiplicationStroop,2021.2.3,Win32,60.06006006,,,,,right,1,0.7739,0,18,18,34,1,6,8,6 | 8,2,1.9756,1.4111,incongruent,right,,,,,,stimulusFile/magnitude.xlsx,,,,,,,,,,,,,,,,,,,,,,,,,,,,,,,
,,,,,,,,,,,,,,,706,2022-01-29_13h28.34.831,multiplicationStroop,2021.2.3,Win32,60.06006006,,,,,right,1,0.6355,0,19,19,42,1,3,8,3 | 8,5,1.9756,1.4111,incongruent,right,,,,,,stimulusFile/magnitude.xlsx,,,,,,,,,,,,,,,,,,,,,,,,,,,,,,,
,,,,,,,,,,,,,,,706,2022-01-29_13h28.34.831,multiplicationStroop,2021.2.3,Win32,60.06006006,,,,,right,1,0.4843,0,20,20,66,1,3,8,3 | 8,5,1.6933,1.6933,neutral,right,,,,,,stimulusFile/magnitude.xlsx,,,,,,,,,,,,,,,,,,,,,,,,,,,,,,,
,,,,,,,,,,,,,,,706,2022-01-29_13h28.34.831,multiplicationStroop,2021.2.3,Win32,60.06006006,,,,,right,1,0.7102,0,21,21,33,1,2,4,2 | 4,2,1.9756,1.4111,incongruent,right,,,,,,stimulusFile/magnitude.xlsx,,,,,,,,,,,,,,,,,,,,,,,,,,,,,,,
,,,,,,,,,,,,,,,706,2022-01-29_13h28.34.831,multiplicationStroop,2021.2.3,Win32,60.06006006,,,,,right,1,0.5623,0,22,22,32,1,1,3,1 | 3,2,1.9756,1.4111,incongruent,right,,,,,,stimulusFile/magnitude.xlsx,,,,,,,,,,,,,,,,,,,,,,,,,,,,,,,
,,,,,,,,,,,,,,,706,2022-01-29_13h28.34.831,multiplicationStroop,2021.2.3,Win32,60.06006006,,,,,left,1,0.5185,0,23,23,68,1,6,1,6 | 1,5,1.6933,1.6933,neutral,left,,,,,,stimulusFile/magnitude.xlsx,,,,,,,,,,,,,,,,,,,,,,,,,,,,,,,
,,,,,,,,,,,,,,,706,2022-01-29_13h28.34.831,multiplicationStroop,2021.2.3,Win32,60.06006006,,,,,right,1,0.7278,0,24,24,35,1,7,9,7 | 9,2,1.9756,1.4111,incongruent,right,,,,,,stimulusFile/magnitude.xlsx,,,,,,,,,,,,,,,,,,,,,,,,,,,,,,,
,,,,,,,,,,,,,,,706,2022-01-29_13h28.34.831,multiplicationStroop,2021.2.3,Win32,60.06006006,,,,,right,1,0.8105,0,25,25,57,1,2,4,2 | 4,2,1.6933,1.6933,neutral,right,,,,,,stimulusFile/magnitude.xlsx,,,,,,,,,,,,,,,,,,,,,,,,,,,,,,,
,,,,,,,,,,,,,,,706,2022-01-29_13h28.34.831,multiplicationStroop,2021.2.3,Win32,60.06006006,,,,,right,1,0.8604,0,26,26,67,1,4,9,4 | 9,5,1.6933,1.6933,neutral,right,,,,,,stimulusFile/magnitude.xlsx,,,,,,,,,,,,,,,,,,,,,,,,,,,,,,,
,,,,,,,,,,,,,,,706,2022-01-29_13h28.34.831,multiplicationStroop,2021.2.3,Win32,60.06006006,,,,,left,1,0.5078,0,27,27,69,1,7,2,7 | 2,5,1.6933,1.6933,neutral,left,,,,,,stimulusFile/magnitude.xlsx,,,,,,,,,,,,,,,,,,,,,,,,,,,,,,,
,,,,,,,,,,,,,,,706,2022-01-29_13h28.34.831,multiplicationStroop,2021.2.3,Win32,60.06006006,,,,,left,1,0.6185,0,28,28,6,1,7,6,7 | 6,1,1.9756,1.4111,congruent,left,,,,,,stimulusFile/magnitude.xlsx,,,,,,,,,,,,,,,,,,,,,,,,,,,,,,,
,,,,,,,,,,,,,,,706,2022-01-29_13h28.34.831,multiplicationStroop,2021.2.3,Win32,60.06006006,,,,,left,1,0.7315,0,29,29,45,1,7,2,7 | 2,5,1.4111,1.9756,incongruent,left,,,,,,stimulusFile/magnitude.xlsx,,,,,,,,,,,,,,,,,,,,,,,,,,,,,,,
,,,,,,,,,,,,,,,706,2022-01-29_13h28.34.831,multiplicationStroop,2021.2.3,Win32,60.06006006,,,,,right,1,0.777,0,30,30,65,1,2,7,2 | 7,5,1.6933,1.6933,neutral,right,,,,,,stimulusFile/magnitude.xlsx,,,,,,,,,,,,,,,,,,,,,,,,,,,,,,,
,,,,,,,,,,,,,,,706,2022-01-29_13h28.34.831,multiplicationStroop,2021.2.3,Win32,60.06006006,,,,,right,1,0.5161,0,31,31,19,1,4,9,4 | 9,5,1.4111,1.9756,congruent,right,,,,,,stimulusFile/magnitude.xlsx,,,,,,,,,,,,,,,,,,,,,,,,,,,,,,,
,,,,,,,,,,,,,,,706,2022-01-29_13h28.34.831,multiplicationStroop,2021.2.3,Win32,60.06006006,,,,,right,1,0.7108,0,32,32,48,1,1,2,1 | 2,1,1.6933,1.6933,neutral,right,,,,,,stimulusFile/magnitude.xlsx,,,,,,,,,,,,,,,,,,,,,,,,,,,,,,,
,,,,,,,,,,,,,,,706,2022-01-29_13h28.34.831,multiplicationStroop,2021.2.3,Win32,60.06006006,,,,,left,1,0.4523,0,33,33,14,1,8,6,8 | 6,2,1.9756,1.4111,congruent,left,,,,,,stimulusFile/magnitude.xlsx,,,,,,,,,,,,,,,,,,,,,,,,,,,,,,,
,,,,,,,,,,,,,,,706,2022-01-29_13h28.34.831,multiplicationStroop,2021.2.3,Win32,60.06006006,,,,,right,1,0.6745,0,34,34,49,1,3,4,3 | 4,1,1.6933,1.6933,neutral,right,,,,,,stimulusFile/magnitude.xlsx,,,,,,,,,,,,,,,,,,,,,,,,,,,,,,,
,,,,,,,,,,,,,,,706,2022-01-29_13h28.34.831,multiplicationStroop,2021.2.3,Win32,60.06006006,,,,,right,0,0.6087,0,35,35,39,1,9,7,9 | 7,2,1.4111,1.9756,incongruent,left,,,,,,stimulusFile/magnitude.xlsx,,,,,,,,,,,,,,,,,,,,,,,,,,,,,,,
,,,,,,,,,,,,,,,706,2022-01-29_13h28.34.831,multiplicationStroop,2021.2.3,Win32,60.06006006,,,,,left,1,0.6293,0,36,36,23,1,9,4,9 | 4,5,1.9756,1.4111,congruent,left,,,,,,stimulusFile/magnitude.xlsx,,,,,,,,,,,,,,,,,,,,,,,,,,,,,,,
,,,,,,,,,,,,,,,706,2022-01-29_13h28.34.831,multiplicationStroop,2021.2.3,Win32,60.06006006,,,,,right,1,0.7081,0,37,37,17,1,2,7,2 | 7,5,1.4111,1.9756,congruent,right,,,,,,stimulusFile/magnitude.xlsx,,,,,,,,,,,,,,,,,,,,,,,,,,,,,,,
,,,,,,,,,,,,,,,706,2022-01-29_13h28.34.831,multiplicationStroop,2021.2.3,Win32,60.06006006,,,,,right,1,0.5497,0,38,38,3,1,8,9,8 | 9,1,1.4111,1.9756,congruent,right,,,,,,stimulusFile/magnitude.xlsx,,,,,,,,,,,,,,,,,,,,,,,,,,,,,,,
,,,,,,,,,,,,,,,706,2022-01-29_13h28.34.831,multiplicationStroop,2021.2.3,Win32,60.06006006,,,,,right,1,0.6271,0,39,39,64,1,1,6,1 | 6,5,1.6933,1.6933,neutral,right,,,,,,stimulusFile/magnitude.xlsx,,,,,,,,,,,,,,,,,,,,,,,,,,,,,,,
,,,,,,,,,,,,,,,706,2022-01-29_13h28.34.831,multiplicationStroop,2021.2.3,Win32,60.06006006,,,,,right,0,0.6109,0,40,40,38,1,8,6,8 | 6,2,1.4111,1.9756,incongruent,left,,,,,,stimulusFile/magnitude.xlsx,,,,,,,,,,,,,,,,,,,,,,,,,,,,,,,
,,,,,,,,,,,,,,,706,2022-01-29_13h28.34.831,multiplicationStroop,2021.2.3,Win32,60.06006006,,,,,left,1,1.1129,0,41,41,13,1,4,2,4 | 2,2,1.9756,1.4111,congruent,left,,,,,,stimulusFile/magnitude.xlsx,,,,,,,,,,,,,,,,,,,,,,,,,,,,,,,
,,,,,,,,,,,,,,,706,2022-01-29_13h28.34.831,multiplicationStroop,2021.2.3,Win32,60.06006006,,,,,left,1,0.9632,0,42,42,53,1,4,3,4 | 3,1,1.6933,1.6933,neutral,left,,,,,,stimulusFile/magnitude.xlsx,,,,,,,,,,,,,,,,,,,,,,,,,,,,,,,
,,,,,,,,,,,,,,,706,2022-01-29_13h28.34.831,multiplicationStroop,2021.2.3,Win32,60.06006006,,,,,left,1,0.4656,0,43,43,46,1,8,3,8 | 3,5,1.4111,1.9756,incongruent,left,,,,,,stimulusFile/magnitude.xlsx,,,,,,,,,,,,,,,,,,,,,,,,,,,,,,,
,,,,,,,,,,,,,,,706,2022-01-29_13h28.34.831,multiplicationStroop,2021.2.3,Win32,60.06006006,,,,,left,1,0.9138,0,44,44,54,1,7,6,7 | 6,1,1.6933,1.6933,neutral,left,,,,,,stimulusFile/magnitude.xlsx,,,,,,,,,,,,,,,,,,,,,,,,,,,,,,,
,,,,,,,,,,,,,,,706,2022-01-29_13h28.34.831,multiplicationStroop,2021.2.3,Win32,60.06006006,,,,,left,1,0.5518,0,45,45,70,1,8,3,8 | 3,5,1.6933,1.6933,neutral,left,,,,,,stimulusFile/magnitude.xlsx,,,,,,,,,,,,,,,,,,,,,,,,,,,,,,,
,,,,,,,,,,,,,,,706,2022-01-29_13h28.34.831,multiplicationStroop,2021.2.3,Win32,60.06006006,,,,,right,1,0.6508,0,46,46,18,1,3,8,3 | 8,5,1.4111,1.9756,congruent,right,,,,,,stimulusFile/magnitude.xlsx,,,,,,,,,,,,,,,,,,,,,,,,,,,,,,,
,,,,,,,,,,,,,,,706,2022-01-29_13h28.34.831,multiplicationStroop,2021.2.3,Win32,60.06006006,,,,,left,1,0.6708,0,47,47,62,1,8,6,8 | 6,2,1.6933,1.6933,neutral,left,,,,,,stimulusFile/magnitude.xlsx,,,,,,,,,,,,,,,,,,,,,,,,,,,,,,,
,,,,,,,,,,,,,,,706,2022-01-29_13h28.34.831,multiplicationStroop,2021.2.3,Win32,60.06006006,,,,,left,1,0.5305,0,48,48,47,1,9,4,9 | 4,5,1.4111,1.9756,incongruent,left,,,,,,stimulusFile/magnitude.xlsx,,,,,,,,,,,,,,,,,,,,,,,,,,,,,,,
,,,,,,,,,,,,,,,706,2022-01-29_13h28.34.831,multiplicationStroop,2021.2.3,Win32,60.06006006,,,,,right,1,0.5453,0,49,49,0,1,1,2,1 | 2,1,1.4111,1.9756,congruent,right,,,,,,stimulusFile/magnitude.xlsx,,,,,,,,,,,,,,,,,,,,,,,,,,,,,,,
,,,,,,,,,,,,,,,706,2022-01-29_13h28.34.831,multiplicationStroop,2021.2.3,Win32,60.06006006,,,,,left,1,0.7439,0,50,50,4,1,2,1,2 | 1,1,1.9756,1.4111,congruent,left,,,,,,stimulusFile/magnitude.xlsx,,,,,,,,,,,,,,,,,,,,,,,,,,,,,,,
,,,,,,,,,,,,,,,706,2022-01-29_13h28.34.831,multiplicationStroop,2021.2.3,Win32,60.06006006,,,,,right,1,0.9298,0,51,51,1,1,3,4,3 | 4,1,1.4111,1.9756,congruent,right,,,,,,stimulusFile/magnitude.xlsx,,,,,,,,,,,,,,,,,,,,,,,,,,,,,,,
,,,,,,,,,,,,,,,706,2022-01-29_13h28.34.831,multiplicationStroop,2021.2.3,Win32,60.06006006,,,,,left,1,0.4545,0,52,52,15,1,9,7,9 | 7,2,1.9756,1.4111,congruent,left,,,,,,stimulusFile/magnitude.xlsx,,,,,,,,,,,,,,,,,,,,,,,,,,,,,,,
,,,,,,,,,,,,,,,706,2022-01-29_13h28.34.831,multiplicationStroop,2021.2.3,Win32,60.06006006,,,,,left,1,0.8924,0,53,53,37,1,4,2,4 | 2,2,1.4111,1.9756,incongruent,left,,,,,,stimulusFile/magnitude.xlsx,,,,,,,,,,,,,,,,,,,,,,,,,,,,,,,
,,,,,,,,,,,,,,,706,2022-01-29_13h28.34.831,multiplicationStroop,2021.2.3,Win32,60.06006006,,,,,left,1,1.4592,0,54,54,63,1,9,7,9 | 7,2,1.6933,1.6933,neutral,left,,,,,,stimulusFile/magnitude.xlsx,,,,,,,,,,,,,,,,,,,,,,,,,,,,,,,
,,,,,,,,,,,,,,,706,2022-01-29_13h28.34.831,multiplicationStroop,2021.2.3,Win32,60.06006006,,,,,right,1,0.8798,0,55,55,2,1,6,7,6 | 7,1,1.4111,1.9756,congruent,right,,,,,,stimulusFile/magnitude.xlsx,,,,,,,,,,,,,,,,,,,,,,,,,,,,,,,
,,,,,,,,,,,,,,,706,2022-01-29_13h28.34.831,multiplicationStroop,2021.2.3,Win32,60.06006006,,,,,left,1,0.6088,0,56,56,31,1,9,8,9 | 8,1,1.4111,1.9756,incongruent,left,,,,,,stimulusFile/magnitude.xlsx,,,,,,,,,,,,,,,,,,,,,,,,,,,,,,,
,,,,,,,,,,,,,,,706,2022-01-29_13h28.34.831,multiplicationStroop,2021.2.3,Win32,60.06006006,,,,,left,1,0.6274,0,57,57,7,1,9,8,9 | 8,1,1.9756,1.4111,congruent,left,,,,,,stimulusFile/magnitude.xlsx,,,,,,,,,,,,,,,,,,,,,,,,,,,,,,,
,,,,,,,,,,,,,,,706,2022-01-29_13h28.34.831,multiplicationStroop,2021.2.3,Win32,60.06006006,,,,,left,1,0.9535,0,58,58,20,1,6,1,6 | 1,5,1.9756,1.4111,congruent,left,,,,,,stimulusFile/magnitude.xlsx,,,,,,,,,,,,,,,,,,,,,,,,,,,,,,,
,,,,,,,,,,,,,,,706,2022-01-29_13h28.34.831,multiplicationStroop,2021.2.3,Win32,60.06006006,,,,,left,1,0.6984,0,59,59,36,1,3,1,3 | 1,2,1.4111,1.9756,incongruent,left,,,,,,stimulusFile/magnitude.xlsx,,,,,,,,,,,,,,,,,,,,,,,,,,,,,,,
,,,,,,,,,,,,,,,706,2022-01-29_13h28.34.831,multiplicationStroop,2021.2.3,Win32,60.06006006,,,,,right,1,0.6508,0,60,60,27,1,8,9,8 | 9,1,1.9756,1.4111,incongruent,right,,,,,,stimulusFile/magnitude.xlsx,,,,,,,,,,,,,,,,,,,,,,,,,,,,,,,
,,,,,,,,,,,,,,,706,2022-01-29_13h28.34.831,multiplicationStroop,2021.2.3,Win32,60.06006006,,,,,left,1,0.6528,0,61,61,22,1,8,3,8 | 3,5,1.9756,1.4111,congruent,left,,,,,,stimulusFile/magnitude.xlsx,,,,,,,,,,,,,,,,,,,,,,,,,,,,,,,
,,,,,,,,,,,,,,,706,2022-01-29_13h28.34.831,multiplicationStroop,2021.2.3,Win32,60.06006006,,,,,right,1,1.1687,0,62,62,50,1,6,7,6 | 7,1,1.6933,1.6933,neutral,right,,,,,,stimulusFile/magnitude.xlsx,,,,,,,,,,,,,,,,,,,,,,,,,,,,,,,
,,,,,,,,,,,,,,,706,2022-01-29_13h28.34.831,multiplicationStroop,2021.2.3,Win32,60.06006006,,,,,right,1,0.5894,0,63,63,10,1,6,8,6 | 8,2,1.4111,1.9756,congruent,right,,,,,,stimulusFile/magnitude.xlsx,,,,,,,,,,,,,,,,,,,,,,,,,,,,,,,
,,,,,,,,,,,,,,,706,2022-01-29_13h28.34.831,multiplicationStroop,2021.2.3,Win32,60.06006006,,,,,right,1,0.588,0,64,64,51,1,8,9,8 | 9,1,1.6933,1.6933,neutral,right,,,,,,stimulusFile/magnitude.xlsx,,,,,,,,,,,,,,,,,,,,,,,,,,,,,,,
,,,,,,,,,,,,,,,706,2022-01-29_13h28.34.831,multiplicationStroop,2021.2.3,Win32,60.06006006,,,,,left,1,0.5071,0,65,65,21,1,7,2,7 | 2,5,1.9756,1.4111,congruent,left,,,,,,stimulusFile/magnitude.xlsx,,,,,,,,,,,,,,,,,,,,,,,,,,,,,,,
,,,,,,,,,,,,,,,706,2022-01-29_13h28.34.831,multiplicationStroop,2021.2.3,Win32,60.06006006,,,,,right,1,0.6071,0,66,66,8,1,1,3,1 | 3,2,1.4111,1.9756,congruent,right,,,,,,stimulusFile/magnitude.xlsx,,,,,,,,,,,,,,,,,,,,,,,,,,,,,,,
,,,,,,,,,,,,,,,706,2022-01-29_13h28.34.831,multiplicationStroop,2021.2.3,Win32,60.06006006,,,,,left,1,0.5715,0,67,67,71,1,9,4,9 | 4,5,1.6933,1.6933,neutral,left,,,,,,stimulusFile/magnitude.xlsx,,,,,,,,,,,,,,,,,,,,,,,,,,,,,,,
,,,,,,,,,,,,,,,706,2022-01-29_13h28.34.831,multiplicationStroop,2021.2.3,Win32,60.06006006,,,,,right,1,0.8625,0,68,68,24,1,1,2,1 | 2,1,1.9756,1.4111,incongruent,right,,,,,,stimulusFile/magnitude.xlsx,,,,,,,,,,,,,,,,,,,,,,,,,,,,,,,
,,,,,,,,,,,,,,,706,2022-01-29_13h28.34.831,multiplicationStroop,2021.2.3,Win32,60.06006006,,,,,left,1,0.7271,0,69,69,30,1,7,6,7 | 6,1,1.4111,1.9756,incongruent,left,,,,,,stimulusFile/magnitude.xlsx,,,,,,,,,,,,,,,,,,,,,,,,,,,,,,,
,,,,,,,,,,,,,,,706,2022-01-29_13h28.34.831,multiplicationStroop,2021.2.3,Win32,60.06006006,,,,,left,1,0.5162,0,70,70,52,1,2,1,2 | 1,1,1.6933,1.6933,neutral,left,,,,,,stimulusFile/magnitude.xlsx,,,,,,,,,,,,,,,,,,,,,,,,,,,,,,,
,,,,,,,,,,,,,,,706,2022-01-29_13h28.34.831,multiplicationStroop,2021.2.3,Win32,60.06006006,,,,,right,1,0.8387,0,71,71,58,1,6,8,6 | 8,2,1.6933,1.6933,neutral,right,,,,,,stimulusFile/magnitude.xlsx,,,,,,,,,,,,,,,,,,,,,,,,,,,,,,,
,,,,,,,,,,,,,,,706,2022-01-29_13h28.34.831,multiplicationStroop,2021.2.3,Win32,60.06006006,,,,,,,,,,,,,,,,,,,,,0,0,0,0,1,stimulusFile/magnitude.xlsx,NUMERICALLY larger (larger coefficient).,images/numericallyLarger.png,,,,,,,,,,,,,,,,,,,,,,,,,,,,,
,,,,,,,,,,,,,,,706,2022-01-29_13h28.34.831,multiplicationStroop,2021.2.3,Win32,60.06006006,space,7.031,space,12.0313,right,1,1.4251,0,0,0,1,1,3,4,3 | 4,1,1.4111,1.9756,congruent,right,,,,,,stimulusFile/physical.xlsx,,,,,,,,,,,,,,,,,,,,,,,,,,,,,,,
,,,,,,,,,,,,,,,706,2022-01-29_13h28.34.831,multiplicationStroop,2021.2.3,Win32,60.06006006,,,,,right,1,0.5536,0,1,1,16,1,1,6,1 | 6,5,1.4111,1.9756,congruent,right,,,,,,stimulusFile/physical.xlsx,,,,,,,,,,,,,,,,,,,,,,,,,,,,,,,
,,,,,,,,,,,,,,,706,2022-01-29_13h28.34.831,multiplicationStroop,2021.2.3,Win32,60.06006006,,,,,right,1,0.8267,0,2,2,47,1,9,4,9 | 4,5,1.4111,1.9756,incongruent,right,,,,,,stimulusFile/physical.xlsx,,,,,,,,,,,,,,,,,,,,,,,,,,,,,,,
,,,,,,,,,,,,,,,706,2022-01-29_13h28.34.831,multiplicationStroop,2021.2.3,Win32,60.06006006,,,,,left,0,0.6014,0,3,3,46,1,8,3,8 | 3,5,1.4111,1.9756,incongruent,right,,,,,,stimulusFile/physical.xlsx,,,,,,,,,,,,,,,,,,,,,,,,,,,,,,,
,,,,,,,,,,,,,,,706,2022-01-29_13h28.34.831,multiplicationStroop,2021.2.3,Win32,60.06006006,,,,,left,1,1.0681,0,4,4,21,1,7,2,7 | 2,5,1.9756,1.4111,congruent,left,,,,,,stimulusFile/physical.xlsx,,,,,,,,,,,,,,,,,,,,,,,,,,,,,,,
,,,,,,,,,,,,,,,706,2022-01-29_13h28.34.831,multiplicationStroop,2021.2.3,Win32,60.06006006,,,,,right,1,0.8799,0,5,5,0,1,1,2,1 | 2,1,1.4111,1.9756,congruent,right,,,,,,stimulusFile/physical.xlsx,,,,,,,,,,,,,,,,,,,,,,,,,,,,,,,
,,,,,,,,,,,,,,,706,2022-01-29_13h28.34.831,multiplicationStroop,2021.2.3,Win32,60.06006006,,,,,right,1,0.4607,0,6,6,29,1,4,3,4 | 3,1,1.4111,1.9756,incongruent,right,,,,,,stimulusFile/physical.xlsx,,,,,,,,,,,,,,,,,,,,,,,,,,,,,,,
,,,,,,,,,,,,,,,706,2022-01-29_13h28.34.831,multiplicationStroop,2021.2.3,Win32,60.06006006,,,,,left,1,0.5275,0,7,7,5,1,4,3,4 | 3,1,1.9756,1.4111,congruent,left,,,,,,stimulusFile/physical.xlsx,,,,,,,,,,,,,,,,,,,,,,,,,,,,,,,
,,,,,,,,,,,,,,,706,2022-01-29_13h28.34.831,multiplicationStroop,2021.2.3,Win32,60.06006006,,,,,right,1,0.6604,0,8,8,9,1,2,4,2 | 4,2,1.4111,1.9756,congruent,right,,,,,,stimulusFile/physical.xlsx,,,,,,,,,,,,,,,,,,,,,,,,,,,,,,,
,,,,,,,,,,,,,,,706,2022-01-29_13h28.34.831,multiplicationStroop,2021.2.3,Win32,60.06006006,,,,,left,1,0.9468,0,9,9,24,1,1,2,1 | 2,1,1.9756,1.4111,incongruent,left,,,,,,stimulusFile/physical.xlsx,,,,,,,,,,,,,,,,,,,,,,,,,,,,,,,
,,,,,,,,,,,,,,,706,2022-01-29_13h28.34.831,multiplicationStroop,2021.2.3,Win32,60.06006006,,,,,left,1,0.4547,0,10,10,13,1,4,2,4 | 2,2,1.9756,1.4111,congruent,left,,,,,,stimulusFile/physical.xlsx,,,,,,,,,,,,,,,,,,,,,,,,,,,,,,,
,,,,,,,,,,,,,,,706,2022-01-29_13h28.34.831,multiplicationStroop,2021.2.3,Win32,60.06006006,,,,,right,0,0.6339,0,11,11,69,1,7,7,7 | 7,0,1.4111,1.9756,neutral,left,,,,,,stimulusFile/physical.xlsx,,,,,,,,,,,,,,,,,,,,,,,,,,,,,,,
,,,,,,,,,,,,,,,706,2022-01-29_13h28.34.831,multiplicationStroop,2021.2.3,Win32,60.06006006,,,,,left,0,0.508,0,12,12,64,1,1,1,1 | 1,0,1.9756,1.4111,neutral,right,,,,,,stimulusFile/physical.xlsx,,,,,,,,,,,,,,,,,,,,,,,,,,,,,,,
,,,,,,,,,,,,,,,706,2022-01-29_13h28.34.831,multiplicationStroop,2021.2.3,Win32,60.06006006,,,,,left,1,0.7148,0,13,13,40,1,1,6,1 | 6,5,1.9756,1.4111,incongruent,left,,,,,,stimulusFile/physical.xlsx,,,,,,,,,,,,,,,,,,,,,,,,,,,,,,,
,,,,,,,,,,,,,,,706,2022-01-29_13h28.34.831,multiplicationStroop,2021.2.3,Win32,60.06006006,,,,,right,1,0.4878,0,14,14,58,1,6,6,6 | 6,0,1.4111,1.9756,neutral,right,,,,,,stimulusFile/physical.xlsx,,,,,,,,,,,,,,,,,,,,,,,,,,,,,,,
,,,,,,,,,,,,,,,706,2022-01-29_13h28.34.831,multiplicationStroop,2021.2.3,Win32,60.06006006,,,,,right,1,0.7163,0,15,15,30,1,7,6,7 | 6,1,1.4111,1.9756,incongruent,right,,,,,,stimulusFile/physical.xlsx,,,,,,,,,,,,,,,,,,,,,,,,,,,,,,,
,,,,,,,,,,,,,,,706,2022-01-29_13h28.34.831,multiplicationStroop,2021.2.3,Win32,60.06006006,,,,,left,1,0.7123,0,16,16,15,1,9,7,9 | 7,2,1.9756,1.4111,congruent,left,,,,,,stimulusFile/physical.xlsx,,,,,,,,,,,,,,,,,,,,,,,,,,,,,,,
,,,,,,,,,,,,,,,706,2022-01-29_13h28.34.831,multiplicationStroop,2021.2.3,Win32,60.06006006,,,,,left,1,0.5142,0,17,17,70,1,8,8,8 | 8,0,1.9756,1.4111,neutral,left,,,,,,stimulusFile/physical.xlsx,,,,,,,,,,,,,,,,,,,,,,,,,,,,,,,
,,,,,,,,,,,,,,,706,2022-01-29_13h28.34.831,multiplicationStroop,2021.2.3,Win32,60.06006006,,,,,right,1,0.4283,0,18,18,11,1,7,9,7 | 9,2,1.4111,1.9756,congruent,right,,,,,,stimulusFile/physical.xlsx,,,,,,,,,,,,,,,,,,,,,,,,,,,,,,,
,,,,,,,,,,,,,,,706,2022-01-29_13h28.34.831,multiplicationStroop,2021.2.3,Win32,60.06006006,,,,,right,1,0.5614,0,19,19,31,1,9,8,9 | 8,1,1.4111,1.9756,incongruent,right,,,,,,stimulusFile/physical.xlsx,,,,,,,,,,,,,,,,,,,,,,,,,,,,,,,
,,,,,,,,,,,,,,,706,2022-01-29_13h28.34.831,multiplicationStroop,2021.2.3,Win32,60.06006006,,,,,right,0,0.5892,0,20,20,71,1,9,9,9 | 9,0,1.4111,1.9756,neutral,left,,,,,,stimulusFile/physical.xlsx,,,,,,,,,,,,,,,,,,,,,,,,,,,,,,,
,,,,,,,,,,,,,,,706,2022-01-29_13h28.34.831,multiplicationStroop,2021.2.3,Win32,60.06006006,,,,,right,1,0.7394,0,21,21,62,1,8,8,8 | 8,0,1.4111,1.9756,neutral,right,,,,,,stimulusFile/physical.xlsx,,,,,,,,,,,,,,,,,,,,,,,,,,,,,,,
,,,,,,,,,,,,,,,706,2022-01-29_13h28.34.831,multiplicationStroop,2021.2.3,Win32,60.06006006,,,,,left,1,0.472,0,22,22,25,1,3,4,3 | 4,1,1.9756,1.4111,incongruent,left,,,,,,stimulusFile/physical.xlsx,,,,,,,,,,,,,,,,,,,,,,,,,,,,,,,
,,,,,,,,,,,,,,,706,2022-01-29_13h28.34.831,multiplicationStroop,2021.2.3,Win32,60.06006006,,,,,right,1,0.8689,0,23,23,37,1,4,2,4 | 2,2,1.4111,1.9756,incongruent,right,,,,,,stimulusFile/physical.xlsx,,,,,,,,,,,,,,,,,,,,,,,,,,,,,,,
,,,,,,,,,,,,,,,706,2022-01-29_13h28.34.831,multiplicationStroop,2021.2.3,Win32,60.06006006,,,,,right,1,0.522,0,24,24,67,1,4,4,4 | 4,0,1.4111,1.9756,neutral,right,,,,,,stimulusFile/physical.xlsx,,,,,,,,,,,,,,,,,,,,,,,,,,,,,,,
,,,,,,,,,,,,,,,706,2022-01-29_13h28.34.831,multiplicationStroop,2021.2.3,Win32,60.06006006,,,,,right,1,0.4595,0,25,25,19,1,4,9,4 | 9,5,1.4111,1.9756,congruent,right,,,,,,stimulusFile/physical.xlsx,,,,,,,,,,,,,,,,,,,,,,,,,,,,,,,
,,,,,,,,,,,,,,,706,2022-01-29_13h28.34.831,multiplicationStroop,2021.2.3,Win32,60.06006006,,,,,left,1,0.4784,0,26,26,32,1,1,3,1 | 3,2,1.9756,1.4111,incongruent,left,,,,,,stimulusFile/physical.xlsx,,,,,,,,,,,,,,,,,,,,,,,,,,,,,,,
,,,,,,,,,,,,,,,706,2022-01-29_13h28.34.831,multiplicationStroop,2021.2.3,Win32,60.06006006,,,,,left,1,0.5055,0,27,27,23,1,9,4,9 | 4,5,1.9756,1.4111,congruent,left,,,,,,stimulusFile/physical.xlsx,,,,,,,,,,,,,,,,,,,,,,,,,,,,,,,
,,,,,,,,,,,,,,,706,2022-01-29_13h28.34.831,multiplicationStroop,2021.2.3,Win32,60.06006006,,,,,left,1,0.6028,0,28,28,43,1,4,9,4 | 9,5,1.9756,1.4111,incongruent,left,,,,,,stimulusFile/physical.xlsx,,,,,,,,,,,,,,,,,,,,,,,,,,,,,,,
,,,,,,,,,,,,,,,706,2022-01-29_13h28.34.831,multiplicationStroop,2021.2.3,Win32,60.06006006,,,,,right,1,0.5442,0,29,29,57,1,2,2,2 | 2,0,1.4111,1.9756,neutral,right,,,,,,stimulusFile/physical.xlsx,,,,,,,,,,,,,,,,,,,,,,,,,,,,,,,
,,,,,,,,,,,,,,,706,2022-01-29_13h28.34.831,multiplicationStroop,2021.2.3,Win32,60.06006006,,,,,right,1,0.4859,0,30,30,65,1,2,2,2 | 2,0,1.4111,1.9756,neutral,right,,,,,,stimulusFile/physical.xlsx,,,,,,,,,,,,,,,,,,,,,,,,,,,,,,,
,,,,,,,,,,,,,,,706,2022-01-29_13h28.34.831,multiplicationStroop,2021.2.3,Win32,60.06006006,,,,,left,1,0.4891,0,31,31,7,1,9,8,9 | 8,1,1.9756,1.4111,congruent,left,,,,,,stimulusFile/physical.xlsx,,,,,,,,,,,,,,,,,,,,,,,,,,,,,,,
,,,,,,,,,,,,,,,706,2022-01-29_13h28.34.831,multiplicationStroop,2021.2.3,Win32,60.06006006,,,,,right,1,0.4304,0,32,32,18,1,3,8,3 | 8,5,1.4111,1.9756,congruent,right,,,,,,stimulusFile/physical.xlsx,,,,,,,,,,,,,,,,,,,,,,,,,,,,,,,
,,,,,,,,,,,,,,,706,2022-01-29_13h28.34.831,multiplicationStroop,2021.2.3,Win32,60.06006006,,,,,right,1,0.535,0,33,33,59,1,7,7,7 | 7,0,1.4111,1.9756,neutral,right,,,,,,stimulusFile/physical.xlsx,,,,,,,,,,,,,,,,,,,,,,,,,,,,,,,
,,,,,,,,,,,,,,,706,2022-01-29_13h28.34.831,multiplicationStroop,2021.2.3,Win32,60.06006006,,,,,left,1,0.5832,0,34,34,26,1,6,7,6 | 7,1,1.9756,1.4111,incongruent,left,,,,,,stimulusFile/physical.xlsx,,,,,,,,,,,,,,,,,,,,,,,,,,,,,,,
,,,,,,,,,,,,,,,706,2022-01-29_13h28.34.831,multiplicationStroop,2021.2.3,Win32,60.06006006,,,,,left,1,0.5417,0,35,35,41,1,2,7,2 | 7,5,1.9756,1.4111,incongruent,left,,,,,,stimulusFile/physical.xlsx,,,,,,,,,,,,,,,,,,,,,,,,,,,,,,,
,,,,,,,,,,,,,,,706,2022-01-29_13h28.34.831,multiplicationStroop,2021.2.3,Win32,60.06006006,,,,,right,1,0.6051,0,36,36,28,1,2,1,2 | 1,1,1.4111,1.9756,incongruent,right,,,,,,stimulusFile/physical.xlsx,,,,,,,,,,,,,,,,,,,,,,,,,,,,,,,
,,,,,,,,,,,,,,,706,2022-01-29_13h28.34.831,multiplicationStroop,2021.2.3,Win32,60.06006006,,,,,right,1,0.497,0,37,37,63,1,9,9,9 | 9,0,1.4111,1.9756,neutral,right,,,,,,stimulusFile/physical.xlsx,,,,,,,,,,,,,,,,,,,,,,,,,,,,,,,
,,,,,,,,,,,,,,,706,2022-01-29_13h28.34.831,multiplicationStroop,2021.2.3,Win32,60.06006006,,,,,left,1,0.5274,0,38,38,33,1,2,4,2 | 4,2,1.9756,1.4111,incongruent,left,,,,,,stimulusFile/physical.xlsx,,,,,,,,,,,,,,,,,,,,,,,,,,,,,,,
,,,,,,,,,,,,,,,706,2022-01-29_13h28.34.831,multiplicationStroop,2021.2.3,Win32,60.06006006,,,,,right,1,0.4772,0,39,39,61,1,4,4,4 | 4,0,1.4111,1.9756,neutral,right,,,,,,stimulusFile/physical.xlsx,,,,,,,,,,,,,,,,,,,,,,,,,,,,,,,
,,,,,,,,,,,,,,,706,2022-01-29_13h28.34.831,multiplicationStroop,2021.2.3,Win32,60.06006006,,,,,left,1,0.4396,0,40,40,12,1,3,1,3 | 1,2,1.9756,1.4111,congruent,left,,,,,,stimulusFile/physical.xlsx,,,,,,,,,,,,,,,,,,,,,,,,,,,,,,,
,,,,,,,,,,,,,,,706,2022-01-29_13h28.34.831,multiplicationStroop,2021.2.3,Win32,60.06006006,,,,,right,1,0.3917,0,41,41,17,1,2,7,2 | 7,5,1.4111,1.9756,congruent,right,,,,,,stimulusFile/physical.xlsx,,,,,,,,,,,,,,,,,,,,,,,,,,,,,,,
,,,,,,,,,,,,,,,706,2022-01-29_13h28.34.831,multiplicationStroop,2021.2.3,Win32,60.06006006,,,,,left,1,0.3388,0,42,42,27,1,8,9,8 | 9,1,1.9756,1.4111,incongruent,left,,,,,,stimulusFile/physical.xlsx,,,,,,,,,,,,,,,,,,,,,,,,,,,,,,,
,,,,,,,,,,,,,,,706,2022-01-29_13h28.34.831,multiplicationStroop,2021.2.3,Win32,60.06006006,,,,,left,1,0.5453,0,43,43,68,1,6,6,6 | 6,0,1.9756,1.4111,neutral,left,,,,,,stimulusFile/physical.xlsx,,,,,,,,,,,,,,,,,,,,,,,,,,,,,,,
,,,,,,,,,,,,,,,706,2022-01-29_13h28.34.831,multiplicationStroop,2021.2.3,Win32,60.06006006,,,,,left,1,0.4109,0,44,44,4,1,2,1,2 | 1,1,1.9756,1.4111,congruent,left,,,,,,stimulusFile/physical.xlsx,,,,,,,,,,,,,,,,,,,,,,,,,,,,,,,
,,,,,,,,,,,,,,,706,2022-01-29_13h28.34.831,multiplicationStroop,2021.2.3,Win32,60.06006006,,,,,left,1,0.4023,0,45,45,22,1,8,3,8 | 3,5,1.9756,1.4111,congruent,left,,,,,,stimulusFile/physical.xlsx,,,,,,,,,,,,,,,,,,,,,,,,,,,,,,,
,,,,,,,,,,,,,,,706,2022-01-29_13h28.34.831,multiplicationStroop,2021.2.3,Win32,60.06006006,,,,,left,1,0.4165,0,46,46,52,1,2,2,2 | 2,0,1.9756,1.4111,neutral,left,,,,,,stimulusFile/physical.xlsx,,,,,,,,,,,,,,,,,,,,,,,,,,,,,,,
,,,,,,,,,,,,,,,706,2022-01-29_13h28.34.831,multiplicationStroop,2021.2.3,Win32,60.06006006,,,,,left,1,0.4357,0,47,47,34,1,6,8,6 | 8,2,1.9756,1.4111,incongruent,left,,,,,,stimulusFile/physical.xlsx,,,,,,,,,,,,,,,,,,,,,,,,,,,,,,,
,,,,,,,,,,,,,,,706,2022-01-29_13h28.34.831,multiplicationStroop,2021.2.3,Win32,60.06006006,,,,,right,1,0.4617,0,48,48,3,1,8,9,8 | 9,1,1.4111,1.9756,congruent,right,,,,,,stimulusFile/physical.xlsx,,,,,,,,,,,,,,,,,,,,,,,,,,,,,,,
,,,,,,,,,,,,,,,706,2022-01-29_13h28.34.831,multiplicationStroop,2021.2.3,Win32,60.06006006,,,,,right,1,0.5513,0,49,49,44,1,6,1,6 | 1,5,1.4111,1.9756,incongruent,right,,,,,,stimulusFile/physical.xlsx,,,,,,,,,,,,,,,,,,,,,,,,,,,,,,,
,,,,,,,,,,,,,,,706,2022-01-29_13h28.34.831,multiplicationStroop,2021.2.3,Win32,60.06006006,,,,,left,1,0.505,0,50,50,51,1,8,8,8 | 8,0,1.9756,1.4111,neutral,left,,,,,,stimulusFile/physical.xlsx,,,,,,,,,,,,,,,,,,,,,,,,,,,,,,,
,,,,,,,,,,,,,,,706,2022-01-29_13h28.34.831,multiplicationStroop,2021.2.3,Win32,60.06006006,,,,,left,1,0.4542,0,51,51,14,1,8,6,8 | 6,2,1.9756,1.4111,congruent,left,,,,,,stimulusFile/physical.xlsx,,,,,,,,,,,,,,,,,,,,,,,,,,,,,,,
,,,,,,,,,,,,,,,706,2022-01-29_13h28.34.831,multiplicationStroop,2021.2.3,Win32,60.06006006,,,,,left,1,0.4272,0,52,52,48,1,1,1,1 | 1,0,1.9756,1.4111,neutral,left,,,,,,stimulusFile/physical.xlsx,,,,,,,,,,,,,,,,,,,,,,,,,,,,,,,
,,,,,,,,,,,,,,,706,2022-01-29_13h28.34.831,multiplicationStroop,2021.2.3,Win32,60.06006006,,,,,left,0,0.3695,0,53,53,36,1,3,1,3 | 1,2,1.4111,1.9756,incongruent,right,,,,,,stimulusFile/physical.xlsx,,,,,,,,,,,,,,,,,,,,,,,,,,,,,,,
,,,,,,,,,,,,,,,706,2022-01-29_13h28.34.831,multiplicationStroop,2021.2.3,Win32,60.06006006,,,,,right,1,1.2236,0,54,54,45,1,7,2,7 | 2,5,1.4111,1.9756,incongruent,right,,,,,,stimulusFile/physical.xlsx,,,,,,,,,,,,,,,,,,,,,,,,,,,,,,,
,,,,,,,,,,,,,,,706,2022-01-29_13h28.34.831,multiplicationStroop,2021.2.3,Win32,60.06006006,,,,,right,1,0.9237,0,55,55,10,1,6,8,6 | 8,2,1.4111,1.9756,congruent,right,,,,,,stimulusFile/physical.xlsx,,,,,,,,,,,,,,,,,,,,,,,,,,,,,,,
,,,,,,,,,,,,,,,706,2022-01-29_13h28.34.831,multiplicationStroop,2021.2.3,Win32,60.06006006,,,,,right,1,0.5774,0,56,56,38,1,8,6,8 | 6,2,1.4111,1.9756,incongruent,right,,,,,,stimulusFile/physical.xlsx,,,,,,,,,,,,,,,,,,,,,,,,,,,,,,,
,,,,,,,,,,,,,,,706,2022-01-29_13h28.34.831,multiplicationStroop,2021.2.3,Win32,60.06006006,,,,,left,1,0.5277,0,57,57,50,1,6,6,6 | 6,0,1.9756,1.4111,neutral,left,,,,,,stimulusFile/physical.xlsx,,,,,,,,,,,,,,,,,,,,,,,,,,,,,,,
,,,,,,,,,,,,,,,706,2022-01-29_13h28.34.831,multiplicationStroop,2021.2.3,Win32,60.06006006,,,,,left,1,0.5149,0,58,58,6,1,7,6,7 | 6,1,1.9756,1.4111,congruent,left,,,,,,stimulusFile/physical.xlsx,,,,,,,,,,,,,,,,,,,,,,,,,,,,,,,
,,,,,,,,,,,,,,,706,2022-01-29_13h28.34.831,multiplicationStroop,2021.2.3,Win32,60.06006006,,,,,left,1,0.3734,0,59,59,20,1,6,1,6 | 1,5,1.9756,1.4111,congruent,left,,,,,,stimulusFile/physical.xlsx,,,,,,,,,,,,,,,,,,,,,,,,,,,,,,,
,,,,,,,,,,,,,,,706,2022-01-29_13h28.34.831,multiplicationStroop,2021.2.3,Win32,60.06006006,,,,,left,1,0.4819,0,60,60,49,1,3,3,3 | 3,0,1.9756,1.4111,neutral,left,,,,,,stimulusFile/physical.xlsx,,,,,,,,,,,,,,,,,,,,,,,,,,,,,,,
,,,,,,,,,,,,,,,706,2022-01-29_13h28.34.831,multiplicationStroop,2021.2.3,Win32,60.06006006,,,,,left,1,0.5051,0,61,61,53,1,4,4,4 | 4,0,1.9756,1.4111,neutral,left,,,,,,stimulusFile/physical.xlsx,,,,,,,,,,,,,,,,,,,,,,,,,,,,,,,
,,,,,,,,,,,,,,,706,2022-01-29_13h28.34.831,multiplicationStroop,2021.2.3,Win32,60.06006006,,,,,right,1,0.5799,0,62,62,60,1,3,3,3 | 3,0,1.4111,1.9756,neutral,right,,,,,,stimulusFile/physical.xlsx,,,,,,,,,,,,,,,,,,,,,,,,,,,,,,,
,,,,,,,,,,,,,,,706,2022-01-29_13h28.34.831,multiplicationStroop,2021.2.3,Win32,60.06006006,,,,,left,0,0.5777,0,63,63,66,1,3,3,3 | 3,0,1.9756,1.4111,neutral,right,,,,,,stimulusFile/physical.xlsx,,,,,,,,,,,,,,,,,,,,,,,,,,,,,,,
,,,,,,,,,,,,,,,706,2022-01-29_13h28.34.831,multiplicationStroop,2021.2.3,Win32,60.06006006,,,,,left,1,0.4554,0,64,64,35,1,7,9,7 | 9,2,1.9756,1.4111,incongruent,left,,,,,,stimulusFile/physical.xlsx,,,,,,,,,,,,,,,,,,,,,,,,,,,,,,,
,,,,,,,,,,,,,,,706,2022-01-29_13h28.34.831,multiplicationStroop,2021.2.3,Win32,60.06006006,,,,,left,1,1.0917,0,65,65,42,1,3,8,3 | 8,5,1.9756,1.4111,incongruent,left,,,,,,stimulusFile/physical.xlsx,,,,,,,,,,,,,,,,,,,,,,,,,,,,,,,
,,,,,,,,,,,,,,,706,2022-01-29_13h28.34.831,multiplicationStroop,2021.2.3,Win32,60.06006006,,,,,right,1,0.5122,0,66,66,8,1,1,3,1 | 3,2,1.4111,1.9756,congruent,right,,,,,,stimulusFile/physical.xlsx,,,,,,,,,,,,,,,,,,,,,,,,,,,,,,,
,,,,,,,,,,,,,,,706,2022-01-29_13h28.34.831,multiplicationStroop,2021.2.3,Win32,60.06006006,,,,,left,1,0.7075,0,67,67,54,1,7,7,7 | 7,0,1.9756,1.4111,neutral,left,,,,,,stimulusFile/physical.xlsx,,,,,,,,,,,,,,,,,,,,,,,,,,,,,,,
,,,,,,,,,,,,,,,706,2022-01-29_13h28.34.831,multiplicationStroop,2021.2.3,Win32,60.06006006,,,,,right,1,0.5301,0,68,68,39,1,9,7,9 | 7,2,1.4111,1.9756,incongruent,right,,,,,,stimulusFile/physical.xlsx,,,,,,,,,,,,,,,,,,,,,,,,,,,,,,,
,,,,,,,,,,,,,,,706,2022-01-29_13h28.34.831,multiplicationStroop,2021.2.3,Win32,60.06006006,,,,,left,1,0.544,0,69,69,55,1,9,9,9 | 9,0,1.9756,1.4111,neutral,left,,,,,,stimulusFile/physical.xlsx,,,,,,,,,,,,,,,,,,,,,,,,,,,,,,,
,,,,,,,,,,,,,,,706,2022-01-29_13h28.34.831,multiplicationStroop,2021.2.3,Win32,60.06006006,,,,,right,1,0.444,0,70,70,56,1,1,1,1 | 1,0,1.4111,1.9756,neutral,right,,,,,,stimulusFile/physical.xlsx,,,,,,,,,,,,,,,,,,,,,,,,,,,,,,,
,,,,,,,,,,,,,,,706,2022-01-29_13h28.34.831,multiplicationStroop,2021.2.3,Win32,60.06006006,,,,,right,1,0.4679,0,71,71,2,1,6,7,6 | 7,1,1.4111,1.9756,congruent,right,,,,,,stimulusFile/physical.xlsx,,,,,,,,,,,,,,,,,,,,,,,,,,,,,,,
,,,,,,,,,,,,,,,706,2022-01-29_13h28.34.831,multiplicationStroop,2021.2.3,Win32,60.06006006,,,,,,,,,,,,,,,,,,,,,0,1,1,1,1,stimulusFile/physical.xlsx,PHYSICALLY larger (larger font size).,images/physicallyLarger.png,,,,,,,,,,,,,,,,,,,,,,,,,,,,,
,,,,,,,,,,,,,,,706,2022-01-29_13h28.34.831,multiplicationStroop,2021.2.3,Win32,60.06006006,,,,,,,,,,,,,,,,,,,,,,,,,,,,,space,22.4895,space,4.0142,6,3.4869,1,0,0,0,11,1,2,×,3,2 × 3,incongruent,smallerFirst,2,1,6,,,,,,,,
,,,,,,,,,,,,,,,706,2022-01-29_13h28.34.831,multiplicationStroop,2021.2.3,Win32,60.06006006,,,,,,,,,,,,,,,,,,,,,,,,,,,,,,,,,24,3.3637,1,0,1,1,20,1,6,×,4,6 × 4,incongruent,largerFirst,1,2,24,,,,,,,,
,,,,,,,,,,,,,,,706,2022-01-29_13h28.34.831,multiplicationStroop,2021.2.3,Win32,60.06006006,,,,,,,,,,,,,,,,,,,,,,,,,,,,,,,,,12,2.4497,1,0,2,2,5,1,3,×,4,3 × 4,incongruent,smallerFirst,2,1,12,,,,,,,,
,,,,,,,,,,,,,,,706,2022-01-29_13h28.34.831,multiplicationStroop,2021.2.3,Win32,60.06006006,,,,,,,,,,,,,,,,,,,,,,,,,,,,,,,,,28,2.8314,1,0,3,3,16,1,7,×,4,7 × 4,incongruent,largerFirst,1,2,28,,,,,,,,
,,,,,,,,,,,,,,,706,2022-01-29_13h28.34.831,multiplicationStroop,2021.2.3,Win32,60.06006006,,,,,,,,,,,,,,,,,,,,,,,,,,,,,,,,,15,1.8834,1,0,4,4,10,1,3,×,5,3 × 5,incongruent,smallerFirst,2,1,15,,,,,,,,
,,,,,,,,,,,,,,,706,2022-01-29_13h28.34.831,multiplicationStroop,2021.2.3,Win32,60.06006006,,,,,,,,,,,,,,,,,,,,,,,,,,,,,,,,,35,2.7811,1,0,5,5,12,1,5,×,7,5 × 7,incongruent,smallerFirst,2,1,35,,,,,,,,
,,,,,,,,,,,,,,,706,2022-01-29_13h28.34.831,multiplicationStroop,2021.2.3,Win32,60.06006006,,,,,,,,,,,,,,,,,,,,,,,,,,,,,,,,,12,1.6986,1,0,6,6,19,1,6,×,2,6 × 2,incongruent,largerFirst,1,2,12,,,,,,,,
,,,,,,,,,,,,,,,706,2022-01-29_13h28.34.831,multiplicationStroop,2021.2.3,Win32,60.06006006,,,,,,,,,,,,,,,,,,,,,,,,,,,,,,,,,14,1.6487,1,0,7,7,4,1,2,×,7,2 × 7,incongruent,smallerFirst,2,1,14,,,,,,,,
,,,,,,,,,,,,,,,706,2022-01-29_13h28.34.831,multiplicationStroop,2021.2.3,Win32,60.06006006,,,,,,,,,,,,,,,,,,,,,,,,,,,,,,,,,18,1.9983,1,0,8,8,2,1,2,×,9,2 × 9,incongruent,smallerFirst,2,1,18,,,,,,,,
,,,,,,,,,,,,,,,706,2022-01-29_13h28.34.831,multiplicationStroop,2021.2.3,Win32,60.06006006,,,,,,,,,,,,,,,,,,,,,,,,,,,,,,,,,42,3.4145,1,0,9,9,17,1,7,×,6,7 × 6,incongruent,largerFirst,1,2,42,,,,,,,,
,,,,,,,,,,,,,,,706,2022-01-29_13h28.34.831,multiplicationStroop,2021.2.3,Win32,60.06006006,,,,,,,,,,,,,,,,,,,,,,,,,,,,,,,,,32,9.4952,1,0,10,10,7,1,4,×,8,4 × 8,incongruent,smallerFirst,2,1,32,,,,,,,,
,,,,,,,,,,,,,,,706,2022-01-29_13h28.34.831,multiplicationStroop,2021.2.3,Win32,60.06006006,,,,,,,,,,,,,,,,,,,,,,,,,,,,,,,,,63,2.682,1,0,11,11,3,1,7,×,9,7 × 9,incongruent,smallerFirst,2,1,63,,,,,,,,
,,,,,,,,,,,,,,,706,2022-01-29_13h28.34.831,multiplicationStroop,2021.2.3,Win32,60.06006006,,,,,,,,,,,,,,,,,,,,,,,,,,,,,,,,,9,2.0152,1,0,12,12,29,1,3,×,3,3 × 3,incongruent,tie,1,2,9,,,,,,,,
,,,,,,,,,,,,,,,706,2022-01-29_13h28.34.831,multiplicationStroop,2021.2.3,Win32,60.06006006,,,,,,,,,,,,,,,,,,,,,,,,,,,,,,,,,4,1.3655,1,0,13,13,28,1,2,×,2,2 × 2,incongruent,tie,1,2,4,,,,,,,,
,,,,,,,,,,,,,,,706,2022-01-29_13h28.34.831,multiplicationStroop,2021.2.3,Win32,60.06006006,,,,,,,,,,,,,,,,,,,,,,,,,,,,,,,,,56,1.7318,1,0,14,14,14,1,8,×,7,8 × 7,incongruent,largerFirst,1,2,56,,,,,,,,
,,,,,,,,,,,,,,,706,2022-01-29_13h28.34.831,multiplicationStroop,2021.2.3,Win32,60.06006006,,,,,,,,,,,,,,,,,,,,,,,,,,,,,,,,,30,2.0984,1,0,15,15,25,1,6,×,5,6 × 5,incongruent,largerFirst,1,2,30,,,,,,,,
,,,,,,,,,,,,,,,706,2022-01-29_13h28.34.831,multiplicationStroop,2021.2.3,Win32,60.06006006,,,,,,,,,,,,,,,,,,,,,,,,,,,,,,,,,64,2.2151,1,0,16,16,34,1,8,×,8,8 × 8,incongruent,tie,1,2,64,,,,,,,,
,,,,,,,,,,,,,,,706,2022-01-29_13h28.34.831,multiplicationStroop,2021.2.3,Win32,60.06006006,,,,,,,,,,,,,,,,,,,,,,,,,,,,,,,,,18,1.9668,1,0,17,17,8,1,3,×,6,3 × 6,incongruent,smallerFirst,2,1,18,,,,,,,,
,,,,,,,,,,,,,,,706,2022-01-29_13h28.34.831,multiplicationStroop,2021.2.3,Win32,60.06006006,,,,,,,,,,,,,,,,,,,,,,,,,,,,,,,,,36,1.9151,1,0,18,18,32,1,6,×,6,6 × 6,incongruent,tie,1,2,36,,,,,,,,
,,,,,,,,,,,,,,,706,2022-01-29_13h28.34.831,multiplicationStroop,2021.2.3,Win32,60.06006006,,,,,,,,,,,,,,,,,,,,,,,,,,,,,,,,,20,1.9321,1,0,19,19,27,1,5,×,4,5 × 4,incongruent,largerFirst,1,2,20,,,,,,,,
,,,,,,,,,,,,,,,706,2022-01-29_13h28.34.831,multiplicationStroop,2021.2.3,Win32,60.06006006,,,,,,,,,,,,,,,,,,,,,,,,,,,,,,,,,48,2.0983,1,0,20,20,1,1,6,×,8,6 × 8,incongruent,smallerFirst,2,1,48,,,,,,,,
,,,,,,,,,,,,,,,706,2022-01-29_13h28.34.831,multiplicationStroop,2021.2.3,Win32,60.06006006,,,,,,,,,,,,,,,,,,,,,,,,,,,,,,,,,8,2.0165,1,0,21,21,24,1,4,×,2,4 × 2,incongruent,largerFirst,1,2,8,,,,,,,,
,,,,,,,,,,,,,,,706,2022-01-29_13h28.34.831,multiplicationStroop,2021.2.3,Win32,60.06006006,,,,,,,,,,,,,,,,,,,,,,,,,,,,,,,,,16,1.8319,1,0,22,22,23,1,8,×,2,8 × 2,incongruent,largerFirst,1,2,16,,,,,,,,
,,,,,,,,,,,,,,,706,2022-01-29_13h28.34.831,multiplicationStroop,2021.2.3,Win32,60.06006006,,,,,,,,,,,,,,,,,,,,,,,,,,,,,,,,,45,2.1483,1,0,23,23,22,1,9,×,5,9 × 5,incongruent,largerFirst,1,2,45,,,,,,,,
,,,,,,,,,,,,,,,706,2022-01-29_13h28.34.831,multiplicationStroop,2021.2.3,Win32,60.06006006,,,,,,,,,,,,,,,,,,,,,,,,,,,,,,,,,27,2.1325,1,0,24,24,18,1,9,×,3,9 × 3,incongruent,largerFirst,1,2,27,,,,,,,,
,,,,,,,,,,,,,,,706,2022-01-29_13h28.34.831,multiplicationStroop,2021.2.3,Win32,60.06006006,,,,,,,,,,,,,,,,,,,,,,,,,,,,,,,,,81,2.1982,1,0,25,25,35,1,9,×,9,9 × 9,incongruent,tie,1,2,81,,,,,,,,
,,,,,,,,,,,,,,,706,2022-01-29_13h28.34.831,multiplicationStroop,2021.2.3,Win32,60.06006006,,,,,,,,,,,,,,,,,,,,,,,,,,,,,,,,,36,2.6985,1,0,26,26,15,1,9,×,4,9 × 4,incongruent,largerFirst,1,2,36,,,,,,,,
,,,,,,,,,,,,,,,706,2022-01-29_13h28.34.831,multiplicationStroop,2021.2.3,Win32,60.06006006,,,,,,,,,,,,,,,,,,,,,,,,,,,,,,,,,54,2.1982,1,0,27,27,6,1,6,×,9,6 × 9,incongruent,smallerFirst,2,1,54,,,,,,,,
,,,,,,,,,,,,,,,706,2022-01-29_13h28.34.831,multiplicationStroop,2021.2.3,Win32,60.06006006,,,,,,,,,,,,,,,,,,,,,,,,,,,,,,,,,40,2.2483,1,0,28,28,13,1,5,×,8,5 × 8,incongruent,smallerFirst,2,1,40,,,,,,,,
,,,,,,,,,,,,,,,706,2022-01-29_13h28.34.831,multiplicationStroop,2021.2.3,Win32,60.06006006,,,,,,,,,,,,,,,,,,,,,,,,,,,,,,,,,49,2.3813,1,0,29,29,33,1,7,×,7,7 × 7,incongruent,tie,1,2,49,,,,,,,,
,,,,,,,,,,,,,,,706,2022-01-29_13h28.34.831,multiplicationStroop,2021.2.3,Win32,60.06006006,,,,,,,,,,,,,,,,,,,,,,,,,,,,,,,,,16,3.3494,1,0,30,30,30,1,4,×,4,4 × 4,incongruent,tie,1,2,16,,,,,,,,
,,,,,,,,,,,,,,,706,2022-01-29_13h28.34.831,multiplicationStroop,2021.2.3,Win32,60.06006006,,,,,,,,,,,,,,,,,,,,,,,,,,,,,,,,,25,1.8819,1,0,31,31,31,1,5,×,5,5 × 5,incongruent,tie,1,2,25,,,,,,,,
,,,,,,,,,,,,,,,706,2022-01-29_13h28.34.831,multiplicationStroop,2021.2.3,Win32,60.06006006,,,,,,,,,,,,,,,,,,,,,,,,,,,,,,,,,21,2.0316,1,0,32,32,26,1,7,×,3,7 × 3,incongruent,largerFirst,1,2,21,,,,,,,,
,,,,,,,,,,,,,,,706,2022-01-29_13h28.34.831,multiplicationStroop,2021.2.3,Win32,60.06006006,,,,,,,,,,,,,,,,,,,,,,,,,,,,,,,,,72,2.5979,1,0,33,33,0,1,8,×,9,8 × 9,incongruent,smallerFirst,2,1,72,,,,,,,,
,,,,,,,,,,,,,,,706,2022-01-29_13h28.34.831,multiplicationStroop,2021.2.3,Win32,60.06006006,,,,,,,,,,,,,,,,,,,,,,,,,,,,,,,,,10,1.8317,1,0,34,34,21,1,5,×,2,5 × 2,incongruent,largerFirst,1,2,10,,,,,,,,
,,,,,,,,,,,,,,,706,2022-01-29_13h28.34.831,multiplicationStroop,2021.2.3,Win32,60.06006006,,,,,,,,,,,,,,,,,,,,,,,,,,,,,,,,,2,2.1151,0,0,35,35,9,1,3,×,8,3 × 8,incongruent,smallerFirst,2,1,24,,,,,,,,
,,,,,,,,,,,,,,,706,2022-01-29_13h28.34.831,multiplicationStroop,2021.2.3,Win32,60.06006006,,,,,,,,,,,,,,,,,,,,,,,,,,,,,,,,,,,,,,,,,,,,,,,,,,0,0,0,5,1,stimulusFile/mult_blk6_INcongruent.xlsx,,
,,,,,,,,,,,,,,,706,2022-01-29_13h28.34.831,multiplicationStroop,2021.2.3,Win32,60.06006006,,,,,,,,,,,,,,,,,,,,,,,,,,,,,,,space,8.2968,18,2.1288,1,0,0,0,14,1,6,×,3,6 × 3,neutral,largerFirst,1.5,1.5,18,,,,,,,,
,,,,,,,,,,,,,,,706,2022-01-29_13h28.34.831,multiplicationStroop,2021.2.3,Win32,60.06006006,,,,,,,,,,,,,,,,,,,,,,,,,,,,,,,,,16,1.8317,1,0,1,1,27,1,8,×,2,8 × 2,neutral,largerFirst,1.5,1.5,16,,,,,,,,
,,,,,,,,,,,,,,,706,2022-01-29_13h28.34.831,multiplicationStroop,2021.2.3,Win32,60.06006006,,,,,,,,,,,,,,,,,,,,,,,,,,,,,,,,,24,1.7652,1,0,2,2,16,1,6,×,4,6 × 4,neutral,largerFirst,1.5,1.5,24,,,,,,,,
,,,,,,,,,,,,,,,706,2022-01-29_13h28.34.831,multiplicationStroop,2021.2.3,Win32,60.06006006,,,,,,,,,,,,,,,,,,,,,,,,,,,,,,,,,14,1.7485,1,0,3,3,2,1,2,×,7,2 × 7,neutral,smallerFirst,1.5,1.5,14,,,,,,,,
,,,,,,,,,,,,,,,706,2022-01-29_13h28.34.831,multiplicationStroop,2021.2.3,Win32,60.06006006,,,,,,,,,,,,,,,,,,,,,,,,,,,,,,,,,63,2.6147,1,0,4,4,26,1,9,×,7,9 × 7,neutral,largerFirst,1.5,1.5,63,,,,,,,,
,,,,,,,,,,,,,,,706,2022-01-29_13h28.34.831,multiplicationStroop,2021.2.3,Win32,60.06006006,,,,,,,,,,,,,,,,,,,,,,,,,,,,,,,,,18,2.0002,1,0,5,5,4,1,2,×,9,2 × 9,neutral,smallerFirst,1.5,1.5,18,,,,,,,,
,,,,,,,,,,,,,,,706,2022-01-29_13h28.34.831,multiplicationStroop,2021.2.3,Win32,60.06006006,,,,,,,,,,,,,,,,,,,,,,,,,,,,,,,,,24,1.9484,1,0,6,6,8,1,3,×,8,3 × 8,neutral,smallerFirst,1.5,1.5,24,,,,,,,,
,,,,,,,,,,,,,,,706,2022-01-29_13h28.34.831,multiplicationStroop,2021.2.3,Win32,60.06006006,,,,,,,,,,,,,,,,,,,,,,,,,,,,,,,,,72,2.6647,1,0,7,7,25,1,9,×,8,9 × 8,neutral,largerFirst,1.5,1.5,72,,,,,,,,
,,,,,,,,,,,,,,,706,2022-01-29_13h28.34.831,multiplicationStroop,2021.2.3,Win32,60.06006006,,,,,,,,,,,,,,,,,,,,,,,,,,,,,,,,,54,2.0985,1,0,8,8,21,1,9,×,6,9 × 6,neutral,largerFirst,1.5,1.5,54,,,,,,,,
,,,,,,,,,,,,,,,706,2022-01-29_13h28.34.831,multiplicationStroop,2021.2.3,Win32,60.06006006,,,,,,,,,,,,,,,,,,,,,,,,,,,,,,,,,30,1.9653,1,0,9,9,5,1,5,×,6,5 × 6,neutral,smallerFirst,1.5,1.5,30,,,,,,,,
,,,,,,,,,,,,,,,706,2022-01-29_13h28.34.831,multiplicationStroop,2021.2.3,Win32,60.06006006,,,,,,,,,,,,,,,,,,,,,,,,,,,,,,,,,9,2.3816,1,0,10,10,29,1,3,×,3,3 × 3,neutral,tie,1.5,1.5,9,,,,,,,,
,,,,,,,,,,,,,,,706,2022-01-29_13h28.34.831,multiplicationStroop,2021.2.3,Win32,60.06006006,,,,,,,,,,,,,,,,,,,,,,,,,,,,,,,,,36,3.1146,1,0,11,11,32,1,6,×,6,6 × 6,neutral,tie,1.5,1.5,36,,,,,,,,
,,,,,,,,,,,,,,,706,2022-01-29_13h28.34.831,multiplicationStroop,2021.2.3,Win32,60.06006006,,,,,,,,,,,,,,,,,,,,,,,,,,,,,,,,,32,1.9999,1,0,12,12,9,1,4,×,8,4 × 8,neutral,smallerFirst,1.5,1.5,32,,,,,,,,
,,,,,,,,,,,,,,,706,2022-01-29_13h28.34.831,multiplicationStroop,2021.2.3,Win32,60.06006006,,,,,,,,,,,,,,,,,,,,,,,,,,,,,,,,,28,7.2958,0,0,13,13,13,1,4,×,9,4 × 9,neutral,smallerFirst,1.5,1.5,36,,,,,,,,
,,,,,,,,,,,,,,,706,2022-01-29_13h28.34.831,multiplicationStroop,2021.2.3,Win32,60.06006006,,,,,,,,,,,,,,,,,,,,,,,,,,,,,,,,,10,4.7154,1,0,14,14,18,1,5,×,2,5 × 2,neutral,largerFirst,1.5,1.5,10,,,,,,,,
,,,,,,,,,,,,,,,706,2022-01-29_13h28.34.831,multiplicationStroop,2021.2.3,Win32,60.06006006,,,,,,,,,,,,,,,,,,,,,,,,,,,,,,,,,49,4.6489,1,0,15,15,33,1,7,×,7,7 × 7,neutral,tie,1.5,1.5,49,,,,,,,,
,,,,,,,,,,,,,,,706,2022-01-29_13h28.34.831,multiplicationStroop,2021.2.3,Win32,60.06006006,,,,,,,,,,,,,,,,,,,,,,,,,,,,,,,,,25,1.8167,1,0,16,16,31,1,5,×,5,5 × 5,neutral,tie,1.5,1.5,25,,,,,,,,
,,,,,,,,,,,,,,,706,2022-01-29_13h28.34.831,multiplicationStroop,2021.2.3,Win32,60.06006006,,,,,,,,,,,,,,,,,,,,,,,,,,,,,,,,,48,2.6477,1,0,17,17,1,1,6,×,8,6 × 8,neutral,smallerFirst,1.5,1.5,48,,,,,,,,
,,,,,,,,,,,,,,,706,2022-01-29_13h28.34.831,multiplicationStroop,2021.2.3,Win32,60.06006006,,,,,,,,,,,,,,,,,,,,,,,,,,,,,,,,,20,1.9151,1,0,18,18,6,1,4,×,5,4 × 5,neutral,smallerFirst,1.5,1.5,20,,,,,,,,
,,,,,,,,,,,,,,,706,2022-01-29_13h28.34.831,multiplicationStroop,2021.2.3,Win32,60.06006006,,,,,,,,,,,,,,,,,,,,,,,,,,,,,,,,,56,1.9819,1,0,19,19,23,1,8,×,7,8 × 7,neutral,largerFirst,1.5,1.5,56,,,,,,,,
,,,,,,,,,,,,,,,706,2022-01-29_13h28.34.831,multiplicationStroop,2021.2.3,Win32,60.06006006,,,,,,,,,,,,,,,,,,,,,,,,,,,,,,,,,40,2.365,1,0,20,20,10,1,5,×,8,5 × 8,neutral,smallerFirst,1.5,1.5,40,,,,,,,,
,,,,,,,,,,,,,,,706,2022-01-29_13h28.34.831,multiplicationStroop,2021.2.3,Win32,60.06006006,,,,,,,,,,,,,,,,,,,,,,,,,,,,,,,,,45,2.1646,1,0,21,21,24,1,9,×,5,9 × 5,neutral,largerFirst,1.5,1.5,45,,,,,,,,
,,,,,,,,,,,,,,,706,2022-01-29_13h28.34.831,multiplicationStroop,2021.2.3,Win32,60.06006006,,,,,,,,,,,,,,,,,,,,,,,,,,,,,,,,,12,1.9152,1,0,22,22,11,1,2,×,6,2 × 6,neutral,smallerFirst,1.5,1.5,12,,,,,,,,
,,,,,,,,,,,,,,,706,2022-01-29_13h28.34.831,multiplicationStroop,2021.2.3,Win32,60.06006006,,,,,,,,,,,,,,,,,,,,,,,,,,,,,,,,,21,1.9984,1,0,23,23,22,1,7,×,3,7 × 3,neutral,largerFirst,1.5,1.5,21,,,,,,,,
,,,,,,,,,,,,,,,706,2022-01-29_13h28.34.831,multiplicationStroop,2021.2.3,Win32,60.06006006,,,,,,,,,,,,,,,,,,,,,,,,,,,,,,,,,81,2.6812,1,0,24,24,35,1,9,×,9,9 × 9,neutral,tie,1.5,1.5,81,,,,,,,,
,,,,,,,,,,,,,,,706,2022-01-29_13h28.34.831,multiplicationStroop,2021.2.3,Win32,60.06006006,,,,,,,,,,,,,,,,,,,,,,,,,,,,,,,,,42,5.404,1,0,25,25,20,1,7,×,6,7 × 6,neutral,largerFirst,1.5,1.5,42,,,,,,,,
,,,,,,,,,,,,,,,706,2022-01-29_13h28.34.831,multiplicationStroop,2021.2.3,Win32,60.06006006,,,,,,,,,,,,,,,,,,,,,,,,,,,,,,,,,64,2.8833,1,0,26,26,34,1,8,×,8,8 × 8,neutral,tie,1.5,1.5,64,,,,,,,,
,,,,,,,,,,,,,,,706,2022-01-29_13h28.34.831,multiplicationStroop,2021.2.3,Win32,60.06006006,,,,,,,,,,,,,,,,,,,,,,,,,,,,,,,,,27,2.4807,1,0,27,27,0,1,3,×,9,3 × 9,neutral,smallerFirst,1.5,1.5,27,,,,,,,,
,,,,,,,,,,,,,,,706,2022-01-29_13h28.34.831,multiplicationStroop,2021.2.3,Win32,60.06006006,,,,,,,,,,,,,,,,,,,,,,,,,,,,,,,,,15,1.7488,1,0,28,28,19,1,5,×,3,5 × 3,neutral,largerFirst,1.5,1.5,15,,,,,,,,
,,,,,,,,,,,,,,,706,2022-01-29_13h28.34.831,multiplicationStroop,2021.2.3,Win32,60.06006006,,,,,,,,,,,,,,,,,,,,,,,,,,,,,,,,,28,2.9645,1,0,29,29,3,1,4,×,7,4 × 7,neutral,smallerFirst,1.5,1.5,28,,,,,,,,
,,,,,,,,,,,,,,,706,2022-01-29_13h28.34.831,multiplicationStroop,2021.2.3,Win32,60.06006006,,,,,,,,,,,,,,,,,,,,,,,,,,,,,,,,,16,2.0332,1,0,30,30,30,1,4,×,4,4 × 4,neutral,tie,1.5,1.5,16,,,,,,,,
,,,,,,,,,,,,,,,706,2022-01-29_13h28.34.831,multiplicationStroop,2021.2.3,Win32,60.06006006,,,,,,,,,,,,,,,,,,,,,,,,,,,,,,,,,6,1.6154,1,0,31,31,12,1,2,×,3,2 × 3,neutral,smallerFirst,1.5,1.5,6,,,,,,,,
,,,,,,,,,,,,,,,706,2022-01-29_13h28.34.831,multiplicationStroop,2021.2.3,Win32,60.06006006,,,,,,,,,,,,,,,,,,,,,,,,,,,,,,,,,35,1.9651,1,0,32,32,15,1,7,×,5,7 × 5,neutral,largerFirst,1.5,1.5,35,,,,,,,,
,,,,,,,,,,,,,,,706,2022-01-29_13h28.34.831,multiplicationStroop,2021.2.3,Win32,60.06006006,,,,,,,,,,,,,,,,,,,,,,,,,,,,,,,,,12,1.4986,1,0,33,33,7,1,3,×,4,3 × 4,neutral,smallerFirst,1.5,1.5,12,,,,,,,,
,,,,,,,,,,,,,,,706,2022-01-29_13h28.34.831,multiplicationStroop,2021.2.3,Win32,60.06006006,,,,,,,,,,,,,,,,,,,,,,,,,,,,,,,,,4,1.3822,1,0,34,34,28,1,2,×,2,2 × 2,neutral,tie,1.5,1.5,4,,,,,,,,
,,,,,,,,,,,,,,,706,2022-01-29_13h28.34.831,multiplicationStroop,2021.2.3,Win32,60.06006006,,,,,,,,,,,,,,,,,,,,,,,,,,,,,,,,,8,1.832,1,0,35,35,17,1,4,×,2,4 × 2,neutral,largerFirst,1.5,1.5,8,,,,,,,,
,,,,,,,,,,,,,,,706,2022-01-29_13h28.34.831,multiplicationStroop,2021.2.3,Win32,60.06006006,,,,,,,,,,,,,,,,,,,,,,,,,,,,,,,,,,,,,,,,,,,,,,,,,,0,1,1,0,1,stimulusFile/mult_blk1.xlsx,,
,,,,,,,,,,,,,,,706,2022-01-29_13h28.34.831,multiplicationStroop,2021.2.3,Win32,60.06006006,,,,,,,,,,,,,,,,,,,,,,,,,,,,,,,space,1.952,28,2.5438,1,0,0,0,17,1,7,×,4,7 × 4,neutral,largerFirst,1.5,1.5,28,,,,,,,,
,,,,,,,,,,,,,,,706,2022-01-29_13h28.34.831,multiplicationStroop,2021.2.3,Win32,60.06006006,,,,,,,,,,,,,,,,,,,,,,,,,,,,,,,,,18,1.9152,1,0,1,1,18,1,9,×,2,9 × 2,neutral,largerFirst,1.5,1.5,18,,,,,,,,
,,,,,,,,,,,,,,,706,2022-01-29_13h28.34.831,multiplicationStroop,2021.2.3,Win32,60.06006006,,,,,,,,,,,,,,,,,,,,,,,,,,,,,,,,,24,1.8154,1,0,2,2,22,1,8,×,3,8 × 3,neutral,largerFirst,1.5,1.5,24,,,,,,,,
,,,,,,,,,,,,,,,706,2022-01-29_13h28.34.831,multiplicationStroop,2021.2.3,Win32,60.06006006,,,,,,,,,,,,,,,,,,,,,,,,,,,,,,,,,36,2.2813,1,0,3,3,27,1,9,×,4,9 × 4,neutral,largerFirst,1.5,1.5,36,,,,,,,,
,,,,,,,,,,,,,,,706,2022-01-29_13h28.34.831,multiplicationStroop,2021.2.3,Win32,60.06006006,,,,,,,,,,,,,,,,,,,,,,,,,,,,,,,,,45,1.9652,1,0,4,4,10,1,5,×,9,5 × 9,neutral,smallerFirst,1.5,1.5,45,,,,,,,,
,,,,,,,,,,,,,,,706,2022-01-29_13h28.34.831,multiplicationStroop,2021.2.3,Win32,60.06006006,,,,,,,,,,,,,,,,,,,,,,,,,,,,,,,,,4,1.3483,1,0,5,5,28,1,2,×,2,2 × 2,neutral,tie,1.5,1.5,4,,,,,,,,
,,,,,,,,,,,,,,,706,2022-01-29_13h28.34.831,multiplicationStroop,2021.2.3,Win32,60.06006006,,,,,,,,,,,,,,,,,,,,,,,,,,,,,,,,,9,1.982,1,0,6,6,29,1,3,×,3,3 × 3,neutral,tie,1.5,1.5,9,,,,,,,,
,,,,,,,,,,,,,,,706,2022-01-29_13h28.34.831,multiplicationStroop,2021.2.3,Win32,60.06006006,,,,,,,,,,,,,,,,,,,,,,,,,,,,,,,,,72,2.7816,1,0,7,7,11,1,8,×,9,8 × 9,neutral,smallerFirst,1.5,1.5,72,,,,,,,,
,,,,,,,,,,,,,,,706,2022-01-29_13h28.34.831,multiplicationStroop,2021.2.3,Win32,60.06006006,,,,,,,,,,,,,,,,,,,,,,,,,,,,,,,,,40,1.8652,1,0,8,8,24,1,8,×,5,8 × 5,neutral,largerFirst,1.5,1.5,40,,,,,,,,
,,,,,,,,,,,,,,,706,2022-01-29_13h28.34.831,multiplicationStroop,2021.2.3,Win32,60.06006006,,,,,,,,,,,,,,,,,,,,,,,,,,,,,,,,,21,1.7485,1,0,9,9,8,1,3,×,7,3 × 7,neutral,smallerFirst,1.5,1.5,21,,,,,,,,
,,,,,,,,,,,,,,,706,2022-01-29_13h28.34.831,multiplicationStroop,2021.2.3,Win32,60.06006006,,,,,,,,,,,,,,,,,,,,,,,,,,,,,,,,,36,2.0653,1,0,10,10,32,1,6,×,6,6 × 6,neutral,tie,1.5,1.5,36,,,,,,,,
,,,,,,,,,,,,,,,706,2022-01-29_13h28.34.831,multiplicationStroop,2021.2.3,Win32,60.06006006,,,,,,,,,,,,,,,,,,,,,,,,,,,,,,,,,10,1.8153,1,0,11,11,4,1,2,×,5,2 × 5,neutral,smallerFirst,1.5,1.5,10,,,,,,,,
,,,,,,,,,,,,,,,706,2022-01-29_13h28.34.831,multiplicationStroop,2021.2.3,Win32,60.06006006,,,,,,,,,,,,,,,,,,,,,,,,,,,,,,,,,15,1.8983,1,0,12,12,5,1,3,×,5,3 × 5,neutral,smallerFirst,1.5,1.5,15,,,,,,,,
,,,,,,,,,,,,,,,706,2022-01-29_13h28.34.831,multiplicationStroop,2021.2.3,Win32,60.06006006,,,,,,,,,,,,,,,,,,,,,,,,,,,,,,,,,64,2.4149,1,0,13,13,34,1,8,×,8,8 × 8,neutral,tie,1.5,1.5,64,,,,,,,,
,,,,,,,,,,,,,,,706,2022-01-29_13h28.34.831,multiplicationStroop,2021.2.3,Win32,60.06006006,,,,,,,,,,,,,,,,,,,,,,,,,,,,,,,,,14,1.9152,1,0,14,14,16,1,7,×,2,7 × 2,neutral,largerFirst,1.5,1.5,14,,,,,,,,
,,,,,,,,,,,,,,,706,2022-01-29_13h28.34.831,multiplicationStroop,2021.2.3,Win32,60.06006006,,,,,,,,,,,,,,,,,,,,,,,,,,,,,,,,,35,2.015,1,0,15,15,1,1,5,×,7,5 × 7,neutral,smallerFirst,1.5,1.5,35,,,,,,,,
,,,,,,,,,,,,,,,706,2022-01-29_13h28.34.831,multiplicationStroop,2021.2.3,Win32,60.06006006,,,,,,,,,,,,,,,,,,,,,,,,,,,,,,,,,81,2.4317,1,0,16,16,35,1,9,×,9,9 × 9,neutral,tie,1.5,1.5,81,,,,,,,,
,,,,,,,,,,,,,,,706,2022-01-29_13h28.34.831,multiplicationStroop,2021.2.3,Win32,60.06006006,,,,,,,,,,,,,,,,,,,,,,,,,,,,,,,,,48,2.165,1,0,17,17,15,1,8,×,6,8 × 6,neutral,largerFirst,1.5,1.5,48,,,,,,,,
,,,,,,,,,,,,,,,706,2022-01-29_13h28.34.831,multiplicationStroop,2021.2.3,Win32,60.06006006,,,,,,,,,,,,,,,,,,,,,,,,,,,,,,,,,16,1.9983,1,0,18,18,13,1,2,×,8,2 × 8,neutral,smallerFirst,1.5,1.5,16,,,,,,,,
,,,,,,,,,,,,,,,706,2022-01-29_13h28.34.831,multiplicationStroop,2021.2.3,Win32,60.06006006,,,,,,,,,,,,,,,,,,,,,,,,,,,,,,,,,54,2.4649,1,0,19,19,7,1,6,×,9,6 × 9,neutral,smallerFirst,1.5,1.5,54,,,,,,,,
,,,,,,,,,,,,,,,706,2022-01-29_13h28.34.831,multiplicationStroop,2021.2.3,Win32,60.06006006,,,,,,,,,,,,,,,,,,,,,,,,,,,,,,,,,24,2.0652,1,0,20,20,2,1,4,×,6,4 × 6,neutral,smallerFirst,1.5,1.5,24,,,,,,,,
,,,,,,,,,,,,,,,706,2022-01-29_13h28.34.831,multiplicationStroop,2021.2.3,Win32,60.06006006,,,,,,,,,,,,,,,,,,,,,,,,,,,,,,,,,49,2.7147,1,0,21,21,33,1,7,×,7,7 × 7,neutral,tie,1.5,1.5,49,,,,,,,,
,,,,,,,,,,,,,,,706,2022-01-29_13h28.34.831,multiplicationStroop,2021.2.3,Win32,60.06006006,,,,,,,,,,,,,,,,,,,,,,,,,,,,,,,,,56,1.9669,1,0,22,22,9,1,7,×,8,7 × 8,neutral,smallerFirst,1.5,1.5,56,,,,,,,,
,,,,,,,,,,,,,,,706,2022-01-29_13h28.34.831,multiplicationStroop,2021.2.3,Win32,60.06006006,,,,,,,,,,,,,,,,,,,,,,,,,,,,,,,,,6,1.582,1,0,23,23,26,1,3,×,2,3 × 2,neutral,largerFirst,1.5,1.5,6,,,,,,,,
,,,,,,,,,,,,,,,706,2022-01-29_13h28.34.831,multiplicationStroop,2021.2.3,Win32,60.06006006,,,,,,,,,,,,,,,,,,,,,,,,,,,,,,,,,63,2.5479,1,0,24,24,12,1,7,×,9,7 × 9,neutral,smallerFirst,1.5,1.5,63,,,,,,,,
,,,,,,,,,,,,,,,706,2022-01-29_13h28.34.831,multiplicationStroop,2021.2.3,Win32,60.06006006,,,,,,,,,,,,,,,,,,,,,,,,,,,,,,,,,8,1.9318,1,0,25,25,3,1,2,×,4,2 × 4,neutral,smallerFirst,1.5,1.5,8,,,,,,,,
,,,,,,,,,,,,,,,706,2022-01-29_13h28.34.831,multiplicationStroop,2021.2.3,Win32,60.06006006,,,,,,,,,,,,,,,,,,,,,,,,,,,,,,,,,18,2.4315,1,0,26,26,0,1,3,×,6,3 × 6,neutral,smallerFirst,1.5,1.5,18,,,,,,,,
,,,,,,,,,,,,,,,706,2022-01-29_13h28.34.831,multiplicationStroop,2021.2.3,Win32,60.06006006,,,,,,,,,,,,,,,,,,,,,,,,,,,,,,,,,25,1.7486,1,0,27,27,31,1,5,×,5,5 × 5,neutral,tie,1.5,1.5,25,,,,,,,,
,,,,,,,,,,,,,,,706,2022-01-29_13h28.34.831,multiplicationStroop,2021.2.3,Win32,60.06006006,,,,,,,,,,,,,,,,,,,,,,,,,,,,,,,,,30,1.7819,1,0,28,28,19,1,6,×,5,6 × 5,neutral,largerFirst,1.5,1.5,30,,,,,,,,
,,,,,,,,,,,,,,,706,2022-01-29_13h28.34.831,multiplicationStroop,2021.2.3,Win32,60.06006006,,,,,,,,,,,,,,,,,,,,,,,,,,,,,,,,,27,1.9486,1,0,29,29,14,1,9,×,3,9 × 3,neutral,largerFirst,1.5,1.5,27,,,,,,,,
,,,,,,,,,,,,,,,706,2022-01-29_13h28.34.831,multiplicationStroop,2021.2.3,Win32,60.06006006,,,,,,,,,,,,,,,,,,,,,,,,,,,,,,,,,12,2.0486,1,0,30,30,21,1,4,×,3,4 × 3,neutral,largerFirst,1.5,1.5,12,,,,,,,,
,,,,,,,,,,,,,,,706,2022-01-29_13h28.34.831,multiplicationStroop,2021.2.3,Win32,60.06006006,,,,,,,,,,,,,,,,,,,,,,,,,,,,,,,,,12,1.6486,1,0,31,31,25,1,6,×,2,6 × 2,neutral,largerFirst,1.5,1.5,12,,,,,,,,
,,,,,,,,,,,,,,,706,2022-01-29_13h28.34.831,multiplicationStroop,2021.2.3,Win32,60.06006006,,,,,,,,,,,,,,,,,,,,,,,,,,,,,,,,,20,2.1151,1,0,32,32,20,1,5,×,4,5 × 4,neutral,largerFirst,1.5,1.5,20,,,,,,,,
,,,,,,,,,,,,,,,706,2022-01-29_13h28.34.831,multiplicationStroop,2021.2.3,Win32,60.06006006,,,,,,,,,,,,,,,,,,,,,,,,,,,,,,,,,42,1.8152,1,0,33,33,6,1,6,×,7,6 × 7,neutral,smallerFirst,1.5,1.5,42,,,,,,,,
,,,,,,,,,,,,,,,706,2022-01-29_13h28.34.831,multiplicationStroop,2021.2.3,Win32,60.06006006,,,,,,,,,,,,,,,,,,,,,,,,,,,,,,,,,56,2.1484,0,0,34,34,23,1,8,×,4,8 × 4,neutral,largerFirst,1.5,1.5,32,,,,,,,,
,,,,,,,,,,,,,,,706,2022-01-29_13h28.34.831,multiplicationStroop,2021.2.3,Win32,60.06006006,,,,,,,,,,,,,,,,,,,,,,,,,,,,,,,,,16,1.7652,1,0,35,35,30,1,4,×,4,4 × 4,neutral,tie,1.5,1.5,16,,,,,,,,
,,,,,,,,,,,,,,,706,2022-01-29_13h28.34.831,multiplicationStroop,2021.2.3,Win32,60.06006006,,,,,,,,,,,,,,,,,,,,,,,,,,,,,,,,,,,,,,,,,,,,,,,,,,0,2,2,1,1,stimulusFile/mult_blk2.xlsx,,
,,,,,,,,,,,,,,,706,2022-01-29_13h28.34.831,multiplicationStroop,2021.2.3,Win32,60.06006006,,,,,,,,,,,,,,,,,,,,,,,,,,,,,,,space,49.7933,28,3.2984,1,0,0,0,2,1,4,×,7,4 × 7,incongruent,smallerFirst,2,1,28,,,,,,,,
,,,,,,,,,,,,,,,706,2022-01-29_13h28.34.831,multiplicationStroop,2021.2.3,Win32,60.06006006,,,,,,,,,,,,,,,,,,,,,,,,,,,,,,,,,32,1.698,1,0,1,1,21,1,8,×,4,8 × 4,incongruent,largerFirst,1,2,32,,,,,,,,
,,,,,,,,,,,,,,,706,2022-01-29_13h28.34.831,multiplicationStroop,2021.2.3,Win32,60.06006006,,,,,,,,,,,,,,,,,,,,,,,,,,,,,,,,,30,2.0317,1,0,2,2,11,1,5,×,6,5 × 6,incongruent,smallerFirst,2,1,30,,,,,,,,
,,,,,,,,,,,,,,,706,2022-01-29_13h28.34.831,multiplicationStroop,2021.2.3,Win32,60.06006006,,,,,,,,,,,,,,,,,,,,,,,,,,,,,,,,,24,1.7157,1,0,3,3,6,1,4,×,6,4 × 6,incongruent,smallerFirst,2,1,24,,,,,,,,
,,,,,,,,,,,,,,,706,2022-01-29_13h28.34.831,multiplicationStroop,2021.2.3,Win32,60.06006006,,,,,,,,,,,,,,,,,,,,,,,,,,,,,,,,,54,2.5312,1,0,4,4,20,1,9,×,6,9 × 6,incongruent,largerFirst,1,2,54,,,,,,,,
,,,,,,,,,,,,,,,706,2022-01-29_13h28.34.831,multiplicationStroop,2021.2.3,Win32,60.06006006,,,,,,,,,,,,,,,,,,,,,,,,,,,,,,,,,15,2.5315,1,0,5,5,24,1,5,×,3,5 × 3,incongruent,largerFirst,1,2,15,,,,,,,,
,,,,,,,,,,,,,,,706,2022-01-29_13h28.34.831,multiplicationStroop,2021.2.3,Win32,60.06006006,,,,,,,,,,,,,,,,,,,,,,,,,,,,,,,,,12,1.5821,1,0,6,6,19,1,4,×,3,4 × 3,incongruent,largerFirst,1,2,12,,,,,,,,
,,,,,,,,,,,,,,,706,2022-01-29_13h28.34.831,multiplicationStroop,2021.2.3,Win32,60.06006006,,,,,,,,,,,,,,,,,,,,,,,,,,,,,,,,,25,1.682,1,0,7,7,31,1,5,×,5,5 × 5,neutral,tie,2,1,25,,,,,,,,
,,,,,,,,,,,,,,,706,2022-01-29_13h28.34.831,multiplicationStroop,2021.2.3,Win32,60.06006006,,,,,,,,,,,,,,,,,,,,,,,,,,,,,,,,,21,1.5485,1,0,8,8,12,1,3,×,7,3 × 7,incongruent,smallerFirst,2,1,21,,,,,,,,
,,,,,,,,,,,,,,,706,2022-01-29_13h28.34.831,multiplicationStroop,2021.2.3,Win32,60.06006006,,,,,,,,,,,,,,,,,,,,,,,,,,,,,,,,,35,2.0484,1,0,9,9,26,1,7,×,5,7 × 5,incongruent,largerFirst,1,2,35,,,,,,,,
,,,,,,,,,,,,,,,706,2022-01-29_13h28.34.831,multiplicationStroop,2021.2.3,Win32,60.06006006,,,,,,,,,,,,,,,,,,,,,,,,,,,,,,,,,72,4.7806,1,0,10,10,14,1,9,×,8,9 × 8,incongruent,largerFirst,1,2,72,,,,,,,,
,,,,,,,,,,,,,,,706,2022-01-29_13h28.34.831,multiplicationStroop,2021.2.3,Win32,60.06006006,,,,,,,,,,,,,,,,,,,,,,,,,,,,,,,,,18,2.0665,1,0,11,11,22,1,6,×,3,6 × 3,incongruent,largerFirst,1,2,18,,,,,,,,
,,,,,,,,,,,,,,,706,2022-01-29_13h28.34.831,multiplicationStroop,2021.2.3,Win32,60.06006006,,,,,,,,,,,,,,,,,,,,,,,,,,,,,,,,,24,1.7155,1,0,12,12,23,1,8,×,3,8 × 3,incongruent,largerFirst,1,2,24,,,,,,,,
,,,,,,,,,,,,,,,706,2022-01-29_13h28.34.831,multiplicationStroop,2021.2.3,Win32,60.06006006,,,,,,,,,,,,,,,,,,,,,,,,,,,,,,,,,64,1.8652,1,0,13,13,34,1,8,×,8,8 × 8,neutral,tie,2,1,64,,,,,,,,
,,,,,,,,,,,,,,,706,2022-01-29_13h28.34.831,multiplicationStroop,2021.2.3,Win32,60.06006006,,,,,,,,,,,,,,,,,,,,,,,,,,,,,,,,,45,1.8153,1,0,14,14,8,1,5,×,9,5 × 9,incongruent,smallerFirst,2,1,45,,,,,,,,
,,,,,,,,,,,,,,,706,2022-01-29_13h28.34.831,multiplicationStroop,2021.2.3,Win32,60.06006006,,,,,,,,,,,,,,,,,,,,,,,,,,,,,,,,,16,1.897,1,0,15,15,9,1,2,×,8,2 × 8,incongruent,smallerFirst,2,1,16,,,,,,,,
,,,,,,,,,,,,,,,706,2022-01-29_13h28.34.831,multiplicationStroop,2021.2.3,Win32,60.06006006,,,,,,,,,,,,,,,,,,,,,,,,,,,,,,,,,14,1.9152,1,0,16,16,18,1,7,×,2,7 × 2,incongruent,largerFirst,1,2,14,,,,,,,,
,,,,,,,,,,,,,,,706,2022-01-29_13h28.34.831,multiplicationStroop,2021.2.3,Win32,60.06006006,,,,,,,,,,,,,,,,,,,,,,,,,,,,,,,,,40,2.9986,1,0,17,17,27,1,8,×,5,8 × 5,incongruent,largerFirst,1,2,40,,,,,,,,
,,,,,,,,,,,,,,,706,2022-01-29_13h28.34.831,multiplicationStroop,2021.2.3,Win32,60.06006006,,,,,,,,,,,,,,,,,,,,,,,,,,,,,,,,,4,2.7278,1,0,18,18,28,1,2,×,2,2 × 2,neutral,tie,2,1,4,,,,,,,,
,,,,,,,,,,,,,,,706,2022-01-29_13h28.34.831,multiplicationStroop,2021.2.3,Win32,60.06006006,,,,,,,,,,,,,,,,,,,,,,,,,,,,,,,,,36,2.5,1,0,19,19,32,1,6,×,6,6 × 6,neutral,tie,2,1,36,,,,,,,,
,,,,,,,,,,,,,,,706,2022-01-29_13h28.34.831,multiplicationStroop,2021.2.3,Win32,60.06006006,,,,,,,,,,,,,,,,,,,,,,,,,,,,,,,,,10,1.9316,1,0,20,20,7,1,2,×,5,2 × 5,incongruent,smallerFirst,2,1,10,,,,,,,,
,,,,,,,,,,,,,,,706,2022-01-29_13h28.34.831,multiplicationStroop,2021.2.3,Win32,60.06006006,,,,,,,,,,,,,,,,,,,,,,,,,,,,,,,,,49,2.515,1,0,21,21,33,1,7,×,7,7 × 7,neutral,tie,2,1,49,,,,,,,,
,,,,,,,,,,,,,,,706,2022-01-29_13h28.34.831,multiplicationStroop,2021.2.3,Win32,60.06006006,,,,,,,,,,,,,,,,,,,,,,,,,,,,,,,,,27,2.998,1,0,22,22,4,1,3,×,9,3 × 9,incongruent,smallerFirst,2,1,27,,,,,,,,
,,,,,,,,,,,,,,,706,2022-01-29_13h28.34.831,multiplicationStroop,2021.2.3,Win32,60.06006006,,,,,,,,,,,,,,,,,,,,,,,,,,,,,,,,,9,2.1156,1,0,23,23,29,1,3,×,3,3 × 3,neutral,tie,2,1,9,,,,,,,,
,,,,,,,,,,,,,,,706,2022-01-29_13h28.34.831,multiplicationStroop,2021.2.3,Win32,60.06006006,,,,,,,,,,,,,,,,,,,,,,,,,,,,,,,,,42,6.5465,1,0,24,24,3,1,6,×,7,6 × 7,incongruent,smallerFirst,2,1,42,,,,,,,,
,,,,,,,,,,,,,,,706,2022-01-29_13h28.34.831,multiplicationStroop,2021.2.3,Win32,60.06006006,,,,,,,,,,,,,,,,,,,,,,,,,,,,,,,,,56,2.1986,1,0,25,25,0,1,7,×,8,7 × 8,incongruent,smallerFirst,2,1,56,,,,,,,,
,,,,,,,,,,,,,,,706,2022-01-29_13h28.34.831,multiplicationStroop,2021.2.3,Win32,60.06006006,,,,,,,,,,,,,,,,,,,,,,,,,,,,,,,,,16,2.8481,1,0,26,26,30,1,4,×,4,4 × 4,neutral,tie,2,1,16,,,,,,,,
,,,,,,,,,,,,,,,706,2022-01-29_13h28.34.831,multiplicationStroop,2021.2.3,Win32,60.06006006,,,,,,,,,,,,,,,,,,,,,,,,,,,,,,,,,20,3.4494,1,0,27,27,13,1,4,×,5,4 × 5,incongruent,smallerFirst,2,1,20,,,,,,,,
,,,,,,,,,,,,,,,706,2022-01-29_13h28.34.831,multiplicationStroop,2021.2.3,Win32,60.06006006,,,,,,,,,,,,,,,,,,,,,,,,,,,,,,,,,8,2.0819,1,0,28,28,10,1,2,×,4,2 × 4,incongruent,smallerFirst,2,1,8,,,,,,,,
,,,,,,,,,,,,,,,706,2022-01-29_13h28.34.831,multiplicationStroop,2021.2.3,Win32,60.06006006,,,,,,,,,,,,,,,,,,,,,,,,,,,,,,,,,36,2.0983,1,0,29,29,1,1,4,×,9,4 × 9,incongruent,smallerFirst,2,1,36,,,,,,,,
,,,,,,,,,,,,,,,706,2022-01-29_13h28.34.831,multiplicationStroop,2021.2.3,Win32,60.06006006,,,,,,,,,,,,,,,,,,,,,,,,,,,,,,,,,18,2.848,1,0,30,30,16,1,9,×,2,9 × 2,incongruent,largerFirst,1,2,18,,,,,,,,
,,,,,,,,,,,,,,,706,2022-01-29_13h28.34.831,multiplicationStroop,2021.2.3,Win32,60.06006006,,,,,,,,,,,,,,,,,,,,,,,,,,,,,,,,,63,8.9633,1,0,31,31,17,1,9,×,7,9 × 7,incongruent,largerFirst,1,2,63,,,,,,,,
,,,,,,,,,,,,,,,706,2022-01-29_13h28.34.831,multiplicationStroop,2021.2.3,Win32,60.06006006,,,,,,,,,,,,,,,,,,,,,,,,,,,,,,,,,6,1.6641,1,0,32,32,25,1,3,×,2,3 × 2,incongruent,largerFirst,1,2,6,,,,,,,,
,,,,,,,,,,,,,,,706,2022-01-29_13h28.34.831,multiplicationStroop,2021.2.3,Win32,60.06006006,,,,,,,,,,,,,,,,,,,,,,,,,,,,,,,,,12,1.8153,1,0,33,33,5,1,2,×,6,2 × 6,incongruent,smallerFirst,2,1,12,,,,,,,,
,,,,,,,,,,,,,,,706,2022-01-29_13h28.34.831,multiplicationStroop,2021.2.3,Win32,60.06006006,,,,,,,,,,,,,,,,,,,,,,,,,,,,,,,,,48,2.2151,1,0,34,34,15,1,8,×,6,8 × 6,incongruent,largerFirst,1,2,48,,,,,,,,
,,,,,,,,,,,,,,,706,2022-01-29_13h28.34.831,multiplicationStroop,2021.2.3,Win32,60.06006006,,,,,,,,,,,,,,,,,,,,,,,,,,,,,,,,,81,3.4475,1,0,35,35,35,1,9,×,9,9 × 9,neutral,tie,2,1,81,,,,,,,,
,,,,,,,,,,,,,,,706,2022-01-29_13h28.34.831,multiplicationStroop,2021.2.3,Win32,60.06006006,,,,,,,,,,,,,,,,,,,,,,,,,,,,,,,,,,,,,,,,,,,,,,,,,,0,3,3,4,1,stimulusFile/mult_blk5_INcongruent.xlsx,,
,,,,,,,,,,,,,,,706,2022-01-29_13h28.34.831,multiplicationStroop,2021.2.3,Win32,60.06006006,,,,,,,,,,,,,,,,,,,,,,,,,,,,,,,space,1.1189,63,2.4585,1,0,0,0,21,1,9,×,7,9 × 7,congruent,largerFirst,2,1,63,,,,,,,,
,,,,,,,,,,,,,,,706,2022-01-29_13h28.34.831,multiplicationStroop,2021.2.3,Win32,60.06006006,,,,,,,,,,,,,,,,,,,,,,,,,,,,,,,,,25,1.7692,1,0,1,1,31,1,5,×,5,5 × 5,neutral,tie,2,1,25,,,,,,,,
,,,,,,,,,,,,,,,706,2022-01-29_13h28.34.831,multiplicationStroop,2021.2.3,Win32,60.06006006,,,,,,,,,,,,,,,,,,,,,,,,,,,,,,,,,10,1.6318,1,0,2,2,24,1,5,×,2,5 × 2,congruent,largerFirst,2,1,10,,,,,,,,
,,,,,,,,,,,,,,,706,2022-01-29_13h28.34.831,multiplicationStroop,2021.2.3,Win32,60.06006006,,,,,,,,,,,,,,,,,,,,,,,,,,,,,,,,,4,1.4155,1,0,3,3,28,1,2,×,2,2 × 2,neutral,tie,2,1,4,,,,,,,,
,,,,,,,,,,,,,,,706,2022-01-29_13h28.34.831,multiplicationStroop,2021.2.3,Win32,60.06006006,,,,,,,,,,,,,,,,,,,,,,,,,,,,,,,,,9,2.6146,1,0,4,4,29,1,3,×,3,3 × 3,neutral,tie,2,1,9,,,,,,,,
,,,,,,,,,,,,,,,706,2022-01-29_13h28.34.831,multiplicationStroop,2021.2.3,Win32,60.06006006,,,,,,,,,,,,,,,,,,,,,,,,,,,,,,,,,12,1.3654,1,0,5,5,2,1,3,×,4,3 × 4,congruent,smallerFirst,1,2,12,,,,,,,,
,,,,,,,,,,,,,,,706,2022-01-29_13h28.34.831,multiplicationStroop,2021.2.3,Win32,60.06006006,,,,,,,,,,,,,,,,,,,,,,,,,,,,,,,,,18,2.1152,1,0,6,6,11,1,3,×,6,3 × 6,congruent,smallerFirst,1,2,18,,,,,,,,
,,,,,,,,,,,,,,,706,2022-01-29_13h28.34.831,multiplicationStroop,2021.2.3,Win32,60.06006006,,,,,,,,,,,,,,,,,,,,,,,,,,,,,,,,,45,2.0151,1,0,7,7,23,1,9,×,5,9 × 5,congruent,largerFirst,2,1,45,,,,,,,,
,,,,,,,,,,,,,,,706,2022-01-29_13h28.34.831,multiplicationStroop,2021.2.3,Win32,60.06006006,,,,,,,,,,,,,,,,,,,,,,,,,,,,,,,,,6,1.6656,1,0,8,8,13,1,2,×,3,2 × 3,congruent,smallerFirst,1,2,6,,,,,,,,
,,,,,,,,,,,,,,,706,2022-01-29_13h28.34.831,multiplicationStroop,2021.2.3,Win32,60.06006006,,,,,,,,,,,,,,,,,,,,,,,,,,,,,,,,,20,1.8485,1,0,9,9,7,1,4,×,5,4 × 5,congruent,smallerFirst,1,2,20,,,,,,,,
,,,,,,,,,,,,,,,706,2022-01-29_13h28.34.831,multiplicationStroop,2021.2.3,Win32,60.06006006,,,,,,,,,,,,,,,,,,,,,,,,,,,,,,,,,36,1.8318,1,0,10,10,32,1,6,×,6,6 × 6,neutral,tie,2,1,36,,,,,,,,
,,,,,,,,,,,,,,,706,2022-01-29_13h28.34.831,multiplicationStroop,2021.2.3,Win32,60.06006006,,,,,,,,,,,,,,,,,,,,,,,,,,,,,,,,,27,2.1482,1,0,11,11,26,1,9,×,3,9 × 3,congruent,largerFirst,2,1,27,,,,,,,,
,,,,,,,,,,,,,,,706,2022-01-29_13h28.34.831,multiplicationStroop,2021.2.3,Win32,60.06006006,,,,,,,,,,,,,,,,,,,,,,,,,,,,,,,,,12,2.0653,1,0,12,12,19,1,6,×,2,6 × 2,congruent,largerFirst,2,1,12,,,,,,,,
,,,,,,,,,,,,,,,706,2022-01-29_13h28.34.831,multiplicationStroop,2021.2.3,Win32,60.06006006,,,,,,,,,,,,,,,,,,,,,,,,,,,,,,,,,64,3.8307,1,0,13,13,34,1,8,×,8,8 × 8,neutral,tie,2,1,64,,,,,,,,
,,,,,,,,,,,,,,,706,2022-01-29_13h28.34.831,multiplicationStroop,2021.2.3,Win32,60.06006006,,,,,,,,,,,,,,,,,,,,,,,,,,,,,,,,,8,1.9497,1,0,14,14,9,1,2,×,4,2 × 4,congruent,smallerFirst,1,2,8,,,,,,,,
,,,,,,,,,,,,,,,706,2022-01-29_13h28.34.831,multiplicationStroop,2021.2.3,Win32,60.06006006,,,,,,,,,,,,,,,,,,,,,,,,,,,,,,,,,54,2.1317,1,0,15,15,12,1,6,×,9,6 × 9,congruent,smallerFirst,1,2,54,,,,,,,,
,,,,,,,,,,,,,,,706,2022-01-29_13h28.34.831,multiplicationStroop,2021.2.3,Win32,60.06006006,,,,,,,,,,,,,,,,,,,,,,,,,,,,,,,,,49,2.2649,1,0,16,16,33,1,7,×,7,7 × 7,neutral,tie,2,1,49,,,,,,,,
,,,,,,,,,,,,,,,706,2022-01-29_13h28.34.831,multiplicationStroop,2021.2.3,Win32,60.06006006,,,,,,,,,,,,,,,,,,,,,,,,,,,,,,,,,32,2.5983,1,0,17,17,20,1,8,×,4,8 × 4,congruent,largerFirst,2,1,32,,,,,,,,
,,,,,,,,,,,,,,,706,2022-01-29_13h28.34.831,multiplicationStroop,2021.2.3,Win32,60.06006006,,,,,,,,,,,,,,,,,,,,,,,,,,,,,,,,,16,1.8138,1,0,18,18,5,1,2,×,8,2 × 8,congruent,smallerFirst,1,2,16,,,,,,,,
,,,,,,,,,,,,,,,706,2022-01-29_13h28.34.831,multiplicationStroop,2021.2.3,Win32,60.06006006,,,,,,,,,,,,,,,,,,,,,,,,,,,,,,,,,35,2.2153,1,0,19,19,1,1,5,×,7,5 × 7,congruent,smallerFirst,1,2,35,,,,,,,,
,,,,,,,,,,,,,,,706,2022-01-29_13h28.34.831,multiplicationStroop,2021.2.3,Win32,60.06006006,,,,,,,,,,,,,,,,,,,,,,,,,,,,,,,,,40,2.2147,1,0,20,20,6,1,5,×,8,5 × 8,congruent,smallerFirst,1,2,40,,,,,,,,
,,,,,,,,,,,,,,,706,2022-01-29_13h28.34.831,multiplicationStroop,2021.2.3,Win32,60.06006006,,,,,,,,,,,,,,,,,,,,,,,,,,,,,,,,,48,2.2817,1,0,21,21,18,1,8,×,6,8 × 6,congruent,largerFirst,2,1,48,,,,,,,,
,,,,,,,,,,,,,,,706,2022-01-29_13h28.34.831,multiplicationStroop,2021.2.3,Win32,60.06006006,,,,,,,,,,,,,,,,,,,,,,,,,,,,,,,,,36,2.3166,1,0,22,22,0,1,4,×,9,4 × 9,congruent,smallerFirst,1,2,36,,,,,,,,
,,,,,,,,,,,,,,,706,2022-01-29_13h28.34.831,multiplicationStroop,2021.2.3,Win32,60.06006006,,,,,,,,,,,,,,,,,,,,,,,,,,,,,,,,,14,1.5987,1,0,23,23,14,1,7,×,2,7 × 2,congruent,largerFirst,2,1,14,,,,,,,,
,,,,,,,,,,,,,,,706,2022-01-29_13h28.34.831,multiplicationStroop,2021.2.3,Win32,60.06006006,,,,,,,,,,,,,,,,,,,,,,,,,,,,,,,,,42,1.6653,1,0,24,24,3,1,6,×,7,6 × 7,congruent,smallerFirst,1,2,42,,,,,,,,
,,,,,,,,,,,,,,,706,2022-01-29_13h28.34.831,multiplicationStroop,2021.2.3,Win32,60.06006006,,,,,,,,,,,,,,,,,,,,,,,,,,,,,,,,,16,1.8653,1,0,25,25,30,1,4,×,4,4 × 4,neutral,tie,2,1,16,,,,,,,,
,,,,,,,,,,,,,,,706,2022-01-29_13h28.34.831,multiplicationStroop,2021.2.3,Win32,60.06006006,,,,,,,,,,,,,,,,,,,,,,,,,,,,,,,,,18,2.1151,1,0,26,26,22,1,9,×,2,9 × 2,congruent,largerFirst,2,1,18,,,,,,,,
,,,,,,,,,,,,,,,706,2022-01-29_13h28.34.831,multiplicationStroop,2021.2.3,Win32,60.06006006,,,,,,,,,,,,,,,,,,,,,,,,,,,,,,,,,24,1.7319,1,0,27,27,10,1,3,×,8,3 × 8,congruent,smallerFirst,1,2,24,,,,,,,,
,,,,,,,,,,,,,,,706,2022-01-29_13h28.34.831,multiplicationStroop,2021.2.3,Win32,60.06006006,,,,,,,,,,,,,,,,,,,,,,,,,,,,,,,,,81,2.1985,1,0,28,28,35,1,9,×,9,9 × 9,neutral,tie,2,1,81,,,,,,,,
,,,,,,,,,,,,,,,706,2022-01-29_13h28.34.831,multiplicationStroop,2021.2.3,Win32,60.06006006,,,,,,,,,,,,,,,,,,,,,,,,,,,,,,,,,21,1.732,1,0,29,29,16,1,7,×,3,7 × 3,congruent,largerFirst,2,1,21,,,,,,,,
,,,,,,,,,,,,,,,706,2022-01-29_13h28.34.831,multiplicationStroop,2021.2.3,Win32,60.06006006,,,,,,,,,,,,,,,,,,,,,,,,,,,,,,,,,72,2.2651,1,0,30,30,17,1,9,×,8,9 × 8,congruent,largerFirst,2,1,72,,,,,,,,
,,,,,,,,,,,,,,,706,2022-01-29_13h28.34.831,multiplicationStroop,2021.2.3,Win32,60.06006006,,,,,,,,,,,,,,,,,,,,,,,,,,,,,,,,,24,1.7485,1,0,31,31,25,1,6,×,4,6 × 4,congruent,largerFirst,2,1,24,,,,,,,,
,,,,,,,,,,,,,,,706,2022-01-29_13h28.34.831,multiplicationStroop,2021.2.3,Win32,60.06006006,,,,,,,,,,,,,,,,,,,,,,,,,,,,,,,,,56,2.0484,1,0,32,32,8,1,7,×,8,7 × 8,congruent,smallerFirst,1,2,56,,,,,,,,
,,,,,,,,,,,,,,,706,2022-01-29_13h28.34.831,multiplicationStroop,2021.2.3,Win32,60.06006006,,,,,,,,,,,,,,,,,,,,,,,,,,,,,,,,,30,2.015,1,0,33,33,15,1,6,×,5,6 × 5,congruent,largerFirst,2,1,30,,,,,,,,
,,,,,,,,,,,,,,,706,2022-01-29_13h28.34.831,multiplicationStroop,2021.2.3,Win32,60.06006006,,,,,,,,,,,,,,,,,,,,,,,,,,,,,,,,,28,2.1486,1,0,34,34,27,1,7,×,4,7 × 4,congruent,largerFirst,2,1,28,,,,,,,,
,,,,,,,,,,,,,,,706,2022-01-29_13h28.34.831,multiplicationStroop,2021.2.3,Win32,60.06006006,,,,,,,,,,,,,,,,,,,,,,,,,,,,,,,,,15,1.7986,1,0,35,35,4,1,3,×,5,3 × 5,congruent,smallerFirst,1,2,15,,,,,,,,
,,,,,,,,,,,,,,,706,2022-01-29_13h28.34.831,multiplicationStroop,2021.2.3,Win32,60.06006006,,,,,,,,,,,,,,,,,,,,,,,,,,,,,,,,,,,,,,,,,,,,,,,,,,0,4,4,2,1,stimulusFile/mult_blk3_congruent.xlsx,,
,,,,,,,,,,,,,,,706,2022-01-29_13h28.34.831,multiplicationStroop,2021.2.3,Win32,60.06006006,,,,,,,,,,,,,,,,,,,,,,,,,,,,,,,space,25.272,20,1.9063,1,0,0,0,21,1,5,×,4,5 × 4,congruent,largerFirst,2,1,20,,,,,,,,
,,,,,,,,,,,,,,,706,2022-01-29_13h28.34.831,multiplicationStroop,2021.2.3,Win32,60.06006006,,,,,,,,,,,,,,,,,,,,,,,,,,,,,,,,,64,2.1315,1,0,1,1,34,1,8,×,8,8 × 8,neutral,tie,1,2,64,,,,,,,,
,,,,,,,,,,,,,,,706,2022-01-29_13h28.34.831,multiplicationStroop,2021.2.3,Win32,60.06006006,,,,,,,,,,,,,,,,,,,,,,,,,,,,,,,,,16,1.7667,1,0,2,2,19,1,8,×,2,8 × 2,congruent,largerFirst,2,1,16,,,,,,,,
,,,,,,,,,,,,,,,706,2022-01-29_13h28.34.831,multiplicationStroop,2021.2.3,Win32,60.06006006,,,,,,,,,,,,,,,,,,,,,,,,,,,,,,,,,25,1.8986,1,0,3,3,31,1,5,×,5,5 × 5,neutral,tie,1,2,25,,,,,,,,
,,,,,,,,,,,,,,,706,2022-01-29_13h28.34.831,multiplicationStroop,2021.2.3,Win32,60.06006006,,,,,,,,,,,,,,,,,,,,,,,,,,,,,,,,,9,1.9652,1,0,4,4,29,1,3,×,3,3 × 3,neutral,tie,1,2,9,,,,,,,,
,,,,,,,,,,,,,,,706,2022-01-29_13h28.34.831,multiplicationStroop,2021.2.3,Win32,60.06006006,,,,,,,,,,,,,,,,,,,,,,,,,,,,,,,,,18,2.2984,1,0,5,5,8,1,2,×,9,2 × 9,congruent,smallerFirst,1,2,18,,,,,,,,
,,,,,,,,,,,,,,,706,2022-01-29_13h28.34.831,multiplicationStroop,2021.2.3,Win32,60.06006006,,,,,,,,,,,,,,,,,,,,,,,,,,,,,,,,,12,2.1869,1,0,6,6,5,1,2,×,6,2 × 6,congruent,smallerFirst,1,2,12,,,,,,,,
,,,,,,,,,,,,,,,706,2022-01-29_13h28.34.831,multiplicationStroop,2021.2.3,Win32,60.06006006,,,,,,,,,,,,,,,,,,,,,,,,,,,,,,,,,40,1.7818,1,0,7,7,20,1,8,×,5,8 × 5,congruent,largerFirst,2,1,40,,,,,,,,
,,,,,,,,,,,,,,,706,2022-01-29_13h28.34.831,multiplicationStroop,2021.2.3,Win32,60.06006006,,,,,,,,,,,,,,,,,,,,,,,,,,,,,,,,,32,1.6323,1,0,8,8,6,1,4,×,8,4 × 8,congruent,smallerFirst,1,2,32,,,,,,,,
,,,,,,,,,,,,,,,706,2022-01-29_13h28.34.831,multiplicationStroop,2021.2.3,Win32,60.06006006,,,,,,,,,,,,,,,,,,,,,,,,,,,,,,,,,10,1.582,1,0,9,9,10,1,2,×,5,2 × 5,congruent,smallerFirst,1,2,10,,,,,,,,
,,,,,,,,,,,,,,,706,2022-01-29_13h28.34.831,multiplicationStroop,2021.2.3,Win32,60.06006006,,,,,,,,,,,,,,,,,,,,,,,,,,,,,,,,,81,2.215,1,0,10,10,35,1,9,×,9,9 × 9,neutral,tie,1,2,81,,,,,,,,
,,,,,,,,,,,,,,,706,2022-01-29_13h28.34.831,multiplicationStroop,2021.2.3,Win32,60.06006006,,,,,,,,,,,,,,,,,,,,,,,,,,,,,,,,,24,1.7152,1,0,11,11,24,1,8,×,3,8 × 3,congruent,largerFirst,2,1,24,,,,,,,,
,,,,,,,,,,,,,,,706,2022-01-29_13h28.34.831,multiplicationStroop,2021.2.3,Win32,60.06006006,,,,,,,,,,,,,,,,,,,,,,,,,,,,,,,,,63,2.3319,1,0,12,12,7,1,7,×,9,7 × 9,congruent,smallerFirst,1,2,63,,,,,,,,
,,,,,,,,,,,,,,,706,2022-01-29_13h28.34.831,multiplicationStroop,2021.2.3,Win32,60.06006006,,,,,,,,,,,,,,,,,,,,,,,,,,,,,,,,,42,2.0817,1,0,13,13,17,1,7,×,6,7 × 6,congruent,largerFirst,2,1,42,,,,,,,,
,,,,,,,,,,,,,,,706,2022-01-29_13h28.34.831,multiplicationStroop,2021.2.3,Win32,60.06006006,,,,,,,,,,,,,,,,,,,,,,,,,,,,,,,,,8,2.0149,1,0,14,14,23,1,4,×,2,4 × 2,congruent,largerFirst,2,1,8,,,,,,,,
,,,,,,,,,,,,,,,706,2022-01-29_13h28.34.831,multiplicationStroop,2021.2.3,Win32,60.06006006,,,,,,,,,,,,,,,,,,,,,,,,,,,,,,,,,4,1.3487,1,0,15,15,28,1,2,×,2,2 × 2,neutral,tie,1,2,4,,,,,,,,
,,,,,,,,,,,,,,,706,2022-01-29_13h28.34.831,multiplicationStroop,2021.2.3,Win32,60.06006006,,,,,,,,,,,,,,,,,,,,,,,,,,,,,,,,,54,5.397,1,0,16,16,26,1,9,×,6,9 × 6,congruent,largerFirst,2,1,54,,,,,,,,
,,,,,,,,,,,,,,,706,2022-01-29_13h28.34.831,multiplicationStroop,2021.2.3,Win32,60.06006006,,,,,,,,,,,,,,,,,,,,,,,,,,,,,,,,,2,1.4567,0,0,17,17,2,1,3,×,7,3 × 7,congruent,smallerFirst,1,2,21,,,,,,,,
,,,,,,,,,,,,,,,706,2022-01-29_13h28.34.831,multiplicationStroop,2021.2.3,Win32,60.06006006,,,,,,,,,,,,,,,,,,,,,,,,,,,,,,,,,35,5.5136,1,0,18,18,15,1,7,×,5,7 × 5,congruent,largerFirst,2,1,35,,,,,,,,
,,,,,,,,,,,,,,,706,2022-01-29_13h28.34.831,multiplicationStroop,2021.2.3,Win32,60.06006006,,,,,,,,,,,,,,,,,,,,,,,,,,,,,,,,,24,1.8329,1,0,19,19,11,1,4,×,6,4 × 6,congruent,smallerFirst,1,2,24,,,,,,,,
,,,,,,,,,,,,,,,706,2022-01-29_13h28.34.831,multiplicationStroop,2021.2.3,Win32,60.06006006,,,,,,,,,,,,,,,,,,,,,,,,,,,,,,,,,49,2.3649,1,0,20,20,33,1,7,×,7,7 × 7,neutral,tie,1,2,49,,,,,,,,
,,,,,,,,,,,,,,,706,2022-01-29_13h28.34.831,multiplicationStroop,2021.2.3,Win32,60.06006006,,,,,,,,,,,,,,,,,,,,,,,,,,,,,,,,,27,8.4956,1,0,21,21,12,1,3,×,9,3 × 9,congruent,smallerFirst,1,2,27,,,,,,,,
,,,,,,,,,,,,,,,706,2022-01-29_13h28.34.831,multiplicationStroop,2021.2.3,Win32,60.06006006,,,,,,,,,,,,,,,,,,,,,,,,,,,,,,,,,72,3.1821,1,0,22,22,3,1,8,×,9,8 × 9,congruent,smallerFirst,1,2,72,,,,,,,,
,,,,,,,,,,,,,,,706,2022-01-29_13h28.34.831,multiplicationStroop,2021.2.3,Win32,60.06006006,,,,,,,,,,,,,,,,,,,,,,,,,,,,,,,,,36,2.6992,1,0,23,23,14,1,9,×,4,9 × 4,congruent,largerFirst,2,1,36,,,,,,,,
,,,,,,,,,,,,,,,706,2022-01-29_13h28.34.831,multiplicationStroop,2021.2.3,Win32,60.06006006,,,,,,,,,,,,,,,,,,,,,,,,,,,,,,,,,14,3.4144,1,0,24,24,0,1,2,×,7,2 × 7,congruent,smallerFirst,1,2,14,,,,,,,,
,,,,,,,,,,,,,,,706,2022-01-29_13h28.34.831,multiplicationStroop,2021.2.3,Win32,60.06006006,,,,,,,,,,,,,,,,,,,,,,,,,,,,,,,,,15,1.7526,1,0,25,25,18,1,5,×,3,5 × 3,congruent,largerFirst,2,1,15,,,,,,,,
,,,,,,,,,,,,,,,706,2022-01-29_13h28.34.831,multiplicationStroop,2021.2.3,Win32,60.06006006,,,,,,,,,,,,,,,,,,,,,,,,,,,,,,,,,36,3.2272,1,0,26,26,32,1,6,×,6,6 × 6,neutral,tie,1,2,36,,,,,,,,
,,,,,,,,,,,,,,,706,2022-01-29_13h28.34.831,multiplicationStroop,2021.2.3,Win32,60.06006006,,,,,,,,,,,,,,,,,,,,,,,,,,,,,,,,,12,1.7998,1,0,27,27,16,1,4,×,3,4 × 3,congruent,largerFirst,2,1,12,,,,,,,,
,,,,,,,,,,,,,,,706,2022-01-29_13h28.34.831,multiplicationStroop,2021.2.3,Win32,60.06006006,,,,,,,,,,,,,,,,,,,,,,,,,,,,,,,,,6,1.9984,1,0,28,28,27,1,3,×,2,3 × 2,congruent,largerFirst,2,1,6,,,,,,,,
,,,,,,,,,,,,,,,706,2022-01-29_13h28.34.831,multiplicationStroop,2021.2.3,Win32,60.06006006,,,,,,,,,,,,,,,,,,,,,,,,,,,,,,,,,18,1.9985,1,0,29,29,25,1,6,×,3,6 × 3,congruent,largerFirst,2,1,18,,,,,,,,
,,,,,,,,,,,,,,,706,2022-01-29_13h28.34.831,multiplicationStroop,2021.2.3,Win32,60.06006006,,,,,,,,,,,,,,,,,,,,,,,,,,,,,,,,,30,1.8486,1,0,30,30,1,1,5,×,6,5 × 6,congruent,smallerFirst,1,2,30,,,,,,,,
,,,,,,,,,,,,,,,706,2022-01-29_13h28.34.831,multiplicationStroop,2021.2.3,Win32,60.06006006,,,,,,,,,,,,,,,,,,,,,,,,,,,,,,,,,28,2.5147,1,0,31,31,13,1,4,×,7,4 × 7,congruent,smallerFirst,1,2,28,,,,,,,,
,,,,,,,,,,,,,,,706,2022-01-29_13h28.34.831,multiplicationStroop,2021.2.3,Win32,60.06006006,,,,,,,,,,,,,,,,,,,,,,,,,,,,,,,,,48,2.432,1,0,32,32,4,1,6,×,8,6 × 8,congruent,smallerFirst,1,2,48,,,,,,,,
,,,,,,,,,,,,,,,706,2022-01-29_13h28.34.831,multiplicationStroop,2021.2.3,Win32,60.06006006,,,,,,,,,,,,,,,,,,,,,,,,,,,,,,,,,56,2.4651,1,0,33,33,22,1,8,×,7,8 × 7,congruent,largerFirst,2,1,56,,,,,,,,
,,,,,,,,,,,,,,,706,2022-01-29_13h28.34.831,multiplicationStroop,2021.2.3,Win32,60.06006006,,,,,,,,,,,,,,,,,,,,,,,,,,,,,,,,,45,4.6639,1,0,34,34,9,1,5,×,9,5 × 9,congruent,smallerFirst,1,2,45,,,,,,,,
,,,,,,,,,,,,,,,706,2022-01-29_13h28.34.831,multiplicationStroop,2021.2.3,Win32,60.06006006,,,,,,,,,,,,,,,,,,,,,,,,,,,,,,,,,16,2.3832,1,0,35,35,30,1,4,×,4,4 × 4,neutral,tie,1,2,16,,,,,,,,
,,,,,,,,,,,,,,,706,2022-01-29_13h28.34.831,multiplicationStroop,2021.2.3,Win32,60.06006006,,,,,,,,,,,,,,,,,,,,,,,,,,,,,,,,,,,,,,,,,,,,,,,,,,0,5,5,3,1,stimulusFile/mult_blk4_congruent.xlsx,,
,,,,,,,,,,,,,,,706,2022-01-29_13h28.34.831,multiplicationStroop,2021.2.3,Win32,60.06006006,,,,,,,,,,,,,,,,,,,,,,,,,,,,,,,,,,,,,,,,,,,,,,,,,,,,,,,,space,8.6637