welcomeKey_resp.keys,welcomeKey_resp.rt,X Scale,Y Scale,rt_resp_4.keys,rt_resp_4.corr,rt_resp_4.rt,speedtest_2.thisRepN,speedtest_2.thisTrialN,speedtest_2.thisN,speedtest_2.thisIndex,speedtest_2.ran,numberSc,posX,positionLayout,participant,date,expName,psychopyVersion,OS,frameRate,ct_instrresp.keys,ct_instrresp.rt,key_resp_2.keys,key_resp_2.rt,ct_keyResp.keys,ct_keyResp.corr,ct_keyResp.rt,trials.thisRepN,trials.thisTrialN,trials.thisN,trials.thisIndex,trials.ran,leftNo,rightNo,displayProblem,numDistance,leftNo_size,rightNo_size,Dims,keyAnswer,TS_Loop.thisRepN,TS_Loop.thisTrialN,TS_Loop.thisN,TS_Loop.thisIndex,TS_Loop.ran,Condition,ActionInst,instrImage,mltptaskInst_resp.keys,mltptaskInst_resp.rt,continue_resp_2.keys,continue_resp_2.rt,multp_Answer,multi_RT,multiplyCorr,LoopingMultiply.thisRepN,LoopingMultiply.thisTrialN,LoopingMultiply.thisN,LoopingMultiply.thisIndex,LoopingMultiply.ran,factor1,multiplySign,factor2,multliplyProblem,physicalSize,orderOperand,sizeF1,sizeF2,mult_answer,trials_stroop.thisRepN,trials_stroop.thisTrialN,trials_stroop.thisN,trials_stroop.thisIndex,trials_stroop.ran,multiplicationFile,esckey_resp_2.keys,esckey_resp_2.rt
y,9.0077,47.9,45.2,right,1,0.7298,0,0,0,13,1,7,200,right,708,2022-01-28_13h57.49.738,multiplicationStroop,2021.2.3,Win32,59.99880002,,,,,,,,,,,,,,,,,,,,,,,,,,,,,,,,,,,,,,,,,,,,,,,,,,,,,,,,,
,,,,left,1,0.3607,0,1,1,2,1,3,-200,left,708,2022-01-28_13h57.49.738,multiplicationStroop,2021.2.3,Win32,59.99880002,,,,,,,,,,,,,,,,,,,,,,,,,,,,,,,,,,,,,,,,,,,,,,,,,,,,,,,,,
,,,,right,1,0.377,0,2,2,15,1,9,200,right,708,2022-01-28_13h57.49.738,multiplicationStroop,2021.2.3,Win32,59.99880002,,,,,,,,,,,,,,,,,,,,,,,,,,,,,,,,,,,,,,,,,,,,,,,,,,,,,,,,,
,,,,right,1,0.3985,0,3,3,8,1,1,200,right,708,2022-01-28_13h57.49.738,multiplicationStroop,2021.2.3,Win32,59.99880002,,,,,,,,,,,,,,,,,,,,,,,,,,,,,,,,,,,,,,,,,,,,,,,,,,,,,,,,,
,,,,right,1,0.3303,0,4,4,12,1,6,200,right,708,2022-01-28_13h57.49.738,multiplicationStroop,2021.2.3,Win32,59.99880002,,,,,,,,,,,,,,,,,,,,,,,,,,,,,,,,,,,,,,,,,,,,,,,,,,,,,,,,,
,,,,left,1,0.4434,0,5,5,4,1,6,-200,left,708,2022-01-28_13h57.49.738,multiplicationStroop,2021.2.3,Win32,59.99880002,,,,,,,,,,,,,,,,,,,,,,,,,,,,,,,,,,,,,,,,,,,,,,,,,,,,,,,,,
,,,,left,1,0.4265,0,6,6,3,1,4,-200,left,708,2022-01-28_13h57.49.738,multiplicationStroop,2021.2.3,Win32,59.99880002,,,,,,,,,,,,,,,,,,,,,,,,,,,,,,,,,,,,,,,,,,,,,,,,,,,,,,,,,
,,,,left,1,0.3247,0,7,7,6,1,8,-200,left,708,2022-01-28_13h57.49.738,multiplicationStroop,2021.2.3,Win32,59.99880002,,,,,,,,,,,,,,,,,,,,,,,,,,,,,,,,,,,,,,,,,,,,,,,,,,,,,,,,,
,,,,right,1,0.3309,0,8,8,9,1,2,200,right,708,2022-01-28_13h57.49.738,multiplicationStroop,2021.2.3,Win32,59.99880002,,,,,,,,,,,,,,,,,,,,,,,,,,,,,,,,,,,,,,,,,,,,,,,,,,,,,,,,,
,,,,right,1,0.4307,0,9,9,11,1,4,200,right,708,2022-01-28_13h57.49.738,multiplicationStroop,2021.2.3,Win32,59.99880002,,,,,,,,,,,,,,,,,,,,,,,,,,,,,,,,,,,,,,,,,,,,,,,,,,,,,,,,,
,,,,left,1,0.2829,0,10,10,0,1,1,-200,left,708,2022-01-28_13h57.49.738,multiplicationStroop,2021.2.3,Win32,59.99880002,,,,,,,,,,,,,,,,,,,,,,,,,,,,,,,,,,,,,,,,,,,,,,,,,,,,,,,,,
,,,,right,1,0.3013,0,11,11,14,1,8,200,right,708,2022-01-28_13h57.49.738,multiplicationStroop,2021.2.3,Win32,59.99880002,,,,,,,,,,,,,,,,,,,,,,,,,,,,,,,,,,,,,,,,,,,,,,,,,,,,,,,,,
,,,,right,1,0.3361,0,12,12,10,1,3,200,right,708,2022-01-28_13h57.49.738,multiplicationStroop,2021.2.3,Win32,59.99880002,,,,,,,,,,,,,,,,,,,,,,,,,,,,,,,,,,,,,,,,,,,,,,,,,,,,,,,,,
,,,,left,1,0.4236,0,13,13,7,1,9,-200,left,708,2022-01-28_13h57.49.738,multiplicationStroop,2021.2.3,Win32,59.99880002,,,,,,,,,,,,,,,,,,,,,,,,,,,,,,,,,,,,,,,,,,,,,,,,,,,,,,,,,
,,,,left,1,0.4344,0,14,14,5,1,7,-200,left,708,2022-01-28_13h57.49.738,multiplicationStroop,2021.2.3,Win32,59.99880002,,,,,,,,,,,,,,,,,,,,,,,,,,,,,,,,,,,,,,,,,,,,,,,,,,,,,,,,,
,,,,left,1,0.4038,0,15,15,1,1,2,-200,left,708,2022-01-28_13h57.49.738,multiplicationStroop,2021.2.3,Win32,59.99880002,,,,,,,,,,,,,,,,,,,,,,,,,,,,,,,,,,,,,,,,,,,,,,,,,,,,,,,,,
,,,,right,1,0.3485,1,0,16,12,1,6,200,right,708,2022-01-28_13h57.49.738,multiplicationStroop,2021.2.3,Win32,59.99880002,,,,,,,,,,,,,,,,,,,,,,,,,,,,,,,,,,,,,,,,,,,,,,,,,,,,,,,,,
,,,,right,1,0.3998,1,1,17,14,1,8,200,right,708,2022-01-28_13h57.49.738,multiplicationStroop,2021.2.3,Win32,59.99880002,,,,,,,,,,,,,,,,,,,,,,,,,,,,,,,,,,,,,,,,,,,,,,,,,,,,,,,,,
,,,,left,1,0.4031,1,2,18,5,1,7,-200,left,708,2022-01-28_13h57.49.738,multiplicationStroop,2021.2.3,Win32,59.99880002,,,,,,,,,,,,,,,,,,,,,,,,,,,,,,,,,,,,,,,,,,,,,,,,,,,,,,,,,
,,,,left,1,0.4175,1,3,19,1,1,2,-200,left,708,2022-01-28_13h57.49.738,multiplicationStroop,2021.2.3,Win32,59.99880002,,,,,,,,,,,,,,,,,,,,,,,,,,,,,,,,,,,,,,,,,,,,,,,,,,,,,,,,,
,,,,right,1,0.4224,1,4,20,8,1,1,200,right,708,2022-01-28_13h57.49.738,multiplicationStroop,2021.2.3,Win32,59.99880002,,,,,,,,,,,,,,,,,,,,,,,,,,,,,,,,,,,,,,,,,,,,,,,,,,,,,,,,,
,,,,left,1,0.3352,1,5,21,4,1,6,-200,left,708,2022-01-28_13h57.49.738,multiplicationStroop,2021.2.3,Win32,59.99880002,,,,,,,,,,,,,,,,,,,,,,,,,,,,,,,,,,,,,,,,,,,,,,,,,,,,,,,,,
,,,,left,1,0.4573,1,6,22,7,1,9,-200,left,708,2022-01-28_13h57.49.738,multiplicationStroop,2021.2.3,Win32,59.99880002,,,,,,,,,,,,,,,,,,,,,,,,,,,,,,,,,,,,,,,,,,,,,,,,,,,,,,,,,
,,,,left,1,0.4452,1,7,23,3,1,4,-200,left,708,2022-01-28_13h57.49.738,multiplicationStroop,2021.2.3,Win32,59.99880002,,,,,,,,,,,,,,,,,,,,,,,,,,,,,,,,,,,,,,,,,,,,,,,,,,,,,,,,,
,,,,right,1,0.4404,1,8,24,9,1,2,200,right,708,2022-01-28_13h57.49.738,multiplicationStroop,2021.2.3,Win32,59.99880002,,,,,,,,,,,,,,,,,,,,,,,,,,,,,,,,,,,,,,,,,,,,,,,,,,,,,,,,,
,,,,left,1,0.5898,1,9,25,0,1,1,-200,left,708,2022-01-28_13h57.49.738,multiplicationStroop,2021.2.3,Win32,59.99880002,,,,,,,,,,,,,,,,,,,,,,,,,,,,,,,,,,,,,,,,,,,,,,,,,,,,,,,,,
,,,,right,1,0.5089,1,10,26,10,1,3,200,right,708,2022-01-28_13h57.49.738,multiplicationStroop,2021.2.3,Win32,59.99880002,,,,,,,,,,,,,,,,,,,,,,,,,,,,,,,,,,,,,,,,,,,,,,,,,,,,,,,,,
,,,,right,1,0.4162,1,11,27,15,1,9,200,right,708,2022-01-28_13h57.49.738,multiplicationStroop,2021.2.3,Win32,59.99880002,,,,,,,,,,,,,,,,,,,,,,,,,,,,,,,,,,,,,,,,,,,,,,,,,,,,,,,,,
,,,,right,1,0.3218,1,12,28,11,1,4,200,right,708,2022-01-28_13h57.49.738,multiplicationStroop,2021.2.3,Win32,59.99880002,,,,,,,,,,,,,,,,,,,,,,,,,,,,,,,,,,,,,,,,,,,,,,,,,,,,,,,,,
,,,,left,1,0.5149,1,13,29,2,1,3,-200,left,708,2022-01-28_13h57.49.738,multiplicationStroop,2021.2.3,Win32,59.99880002,,,,,,,,,,,,,,,,,,,,,,,,,,,,,,,,,,,,,,,,,,,,,,,,,,,,,,,,,
,,,,right,1,0.5696,1,14,30,13,1,7,200,right,708,2022-01-28_13h57.49.738,multiplicationStroop,2021.2.3,Win32,59.99880002,,,,,,,,,,,,,,,,,,,,,,,,,,,,,,,,,,,,,,,,,,,,,,,,,,,,,,,,,
,,,,left,1,0.4086,1,15,31,6,1,8,-200,left,708,2022-01-28_13h57.49.738,multiplicationStroop,2021.2.3,Win32,59.99880002,,,,,,,,,,,,,,,,,,,,,,,,,,,,,,,,,,,,,,,,,,,,,,,,,,,,,,,,,
,,,,left,1,0.455,2,0,32,1,1,2,-200,left,708,2022-01-28_13h57.49.738,multiplicationStroop,2021.2.3,Win32,59.99880002,,,,,,,,,,,,,,,,,,,,,,,,,,,,,,,,,,,,,,,,,,,,,,,,,,,,,,,,,
,,,,left,1,0.3804,2,1,33,6,1,8,-200,left,708,2022-01-28_13h57.49.738,multiplicationStroop,2021.2.3,Win32,59.99880002,,,,,,,,,,,,,,,,,,,,,,,,,,,,,,,,,,,,,,,,,,,,,,,,,,,,,,,,,
,,,,left,1,0.372,2,2,34,3,1,4,-200,left,708,2022-01-28_13h57.49.738,multiplicationStroop,2021.2.3,Win32,59.99880002,,,,,,,,,,,,,,,,,,,,,,,,,,,,,,,,,,,,,,,,,,,,,,,,,,,,,,,,,
,,,,left,1,0.4919,2,3,35,0,1,1,-200,left,708,2022-01-28_13h57.49.738,multiplicationStroop,2021.2.3,Win32,59.99880002,,,,,,,,,,,,,,,,,,,,,,,,,,,,,,,,,,,,,,,,,,,,,,,,,,,,,,,,,
,,,,right,1,0.4292,2,4,36,14,1,8,200,right,708,2022-01-28_13h57.49.738,multiplicationStroop,2021.2.3,Win32,59.99880002,,,,,,,,,,,,,,,,,,,,,,,,,,,,,,,,,,,,,,,,,,,,,,,,,,,,,,,,,
,,,,left,1,0.3899,2,5,37,5,1,7,-200,left,708,2022-01-28_13h57.49.738,multiplicationStroop,2021.2.3,Win32,59.99880002,,,,,,,,,,,,,,,,,,,,,,,,,,,,,,,,,,,,,,,,,,,,,,,,,,,,,,,,,
,,,,right,1,0.38,2,6,38,12,1,6,200,right,708,2022-01-28_13h57.49.738,multiplicationStroop,2021.2.3,Win32,59.99880002,,,,,,,,,,,,,,,,,,,,,,,,,,,,,,,,,,,,,,,,,,,,,,,,,,,,,,,,,
,,,,right,1,0.3207,2,7,39,13,1,7,200,right,708,2022-01-28_13h57.49.738,multiplicationStroop,2021.2.3,Win32,59.99880002,,,,,,,,,,,,,,,,,,,,,,,,,,,,,,,,,,,,,,,,,,,,,,,,,,,,,,,,,
,,,,right,1,0.2725,2,8,40,9,1,2,200,right,708,2022-01-28_13h57.49.738,multiplicationStroop,2021.2.3,Win32,59.99880002,,,,,,,,,,,,,,,,,,,,,,,,,,,,,,,,,,,,,,,,,,,,,,,,,,,,,,,,,
,,,,right,1,0.3217,2,9,41,10,1,3,200,right,708,2022-01-28_13h57.49.738,multiplicationStroop,2021.2.3,Win32,59.99880002,,,,,,,,,,,,,,,,,,,,,,,,,,,,,,,,,,,,,,,,,,,,,,,,,,,,,,,,,
,,,,left,1,0.3487,2,10,42,4,1,6,-200,left,708,2022-01-28_13h57.49.738,multiplicationStroop,2021.2.3,Win32,59.99880002,,,,,,,,,,,,,,,,,,,,,,,,,,,,,,,,,,,,,,,,,,,,,,,,,,,,,,,,,
,,,,left,1,0.3303,2,11,43,7,1,9,-200,left,708,2022-01-28_13h57.49.738,multiplicationStroop,2021.2.3,Win32,59.99880002,,,,,,,,,,,,,,,,,,,,,,,,,,,,,,,,,,,,,,,,,,,,,,,,,,,,,,,,,
,,,,left,1,0.1512,2,12,44,2,1,3,-200,left,708,2022-01-28_13h57.49.738,multiplicationStroop,2021.2.3,Win32,59.99880002,,,,,,,,,,,,,,,,,,,,,,,,,,,,,,,,,,,,,,,,,,,,,,,,,,,,,,,,,
,,,,right,1,0.4497,2,13,45,15,1,9,200,right,708,2022-01-28_13h57.49.738,multiplicationStroop,2021.2.3,Win32,59.99880002,,,,,,,,,,,,,,,,,,,,,,,,,,,,,,,,,,,,,,,,,,,,,,,,,,,,,,,,,
,,,,right,1,0.3001,2,14,46,11,1,4,200,right,708,2022-01-28_13h57.49.738,multiplicationStroop,2021.2.3,Win32,59.99880002,,,,,,,,,,,,,,,,,,,,,,,,,,,,,,,,,,,,,,,,,,,,,,,,,,,,,,,,,
,,,,right,1,0.3076,2,15,47,8,1,1,200,right,708,2022-01-28_13h57.49.738,multiplicationStroop,2021.2.3,Win32,59.99880002,,,,,,,,,,,,,,,,,,,,,,,,,,,,,,,,,,,,,,,,,,,,,,,,,,,,,,,,,
,,,,left,1,0.4631,3,0,48,2,1,3,-200,left,708,2022-01-28_13h57.49.738,multiplicationStroop,2021.2.3,Win32,59.99880002,,,,,,,,,,,,,,,,,,,,,,,,,,,,,,,,,,,,,,,,,,,,,,,,,,,,,,,,,
,,,,right,1,0.3585,3,1,49,13,1,7,200,right,708,2022-01-28_13h57.49.738,multiplicationStroop,2021.2.3,Win32,59.99880002,,,,,,,,,,,,,,,,,,,,,,,,,,,,,,,,,,,,,,,,,,,,,,,,,,,,,,,,,
,,,,left,1,0.3145,3,2,50,4,1,6,-200,left,708,2022-01-28_13h57.49.738,multiplicationStroop,2021.2.3,Win32,59.99880002,,,,,,,,,,,,,,,,,,,,,,,,,,,,,,,,,,,,,,,,,,,,,,,,,,,,,,,,,
,,,,right,1,0.3003,3,3,51,8,1,1,200,right,708,2022-01-28_13h57.49.738,multiplicationStroop,2021.2.3,Win32,59.99880002,,,,,,,,,,,,,,,,,,,,,,,,,,,,,,,,,,,,,,,,,,,,,,,,,,,,,,,,,
,,,,right,1,0.398,3,4,52,11,1,4,200,right,708,2022-01-28_13h57.49.738,multiplicationStroop,2021.2.3,Win32,59.99880002,,,,,,,,,,,,,,,,,,,,,,,,,,,,,,,,,,,,,,,,,,,,,,,,,,,,,,,,,
,,,,left,1,0.4473,3,5,53,0,1,1,-200,left,708,2022-01-28_13h57.49.738,multiplicationStroop,2021.2.3,Win32,59.99880002,,,,,,,,,,,,,,,,,,,,,,,,,,,,,,,,,,,,,,,,,,,,,,,,,,,,,,,,,
,,,,left,1,0.4291,3,6,54,5,1,7,-200,left,708,2022-01-28_13h57.49.738,multiplicationStroop,2021.2.3,Win32,59.99880002,,,,,,,,,,,,,,,,,,,,,,,,,,,,,,,,,,,,,,,,,,,,,,,,,,,,,,,,,
,,,,left,1,0.3871,3,7,55,7,1,9,-200,left,708,2022-01-28_13h57.49.738,multiplicationStroop,2021.2.3,Win32,59.99880002,,,,,,,,,,,,,,,,,,,,,,,,,,,,,,,,,,,,,,,,,,,,,,,,,,,,,,,,,
,,,,right,1,0.3595,3,8,56,9,1,2,200,right,708,2022-01-28_13h57.49.738,multiplicationStroop,2021.2.3,Win32,59.99880002,,,,,,,,,,,,,,,,,,,,,,,,,,,,,,,,,,,,,,,,,,,,,,,,,,,,,,,,,
,,,,right,1,0.2974,3,9,57,12,1,6,200,right,708,2022-01-28_13h57.49.738,multiplicationStroop,2021.2.3,Win32,59.99880002,,,,,,,,,,,,,,,,,,,,,,,,,,,,,,,,,,,,,,,,,,,,,,,,,,,,,,,,,
,,,,right,1,0.1563,3,10,58,14,1,8,200,right,708,2022-01-28_13h57.49.738,multiplicationStroop,2021.2.3,Win32,59.99880002,,,,,,,,,,,,,,,,,,,,,,,,,,,,,,,,,,,,,,,,,,,,,,,,,,,,,,,,,
,,,,right,1,0.1841,3,11,59,10,1,3,200,right,708,2022-01-28_13h57.49.738,multiplicationStroop,2021.2.3,Win32,59.99880002,,,,,,,,,,,,,,,,,,,,,,,,,,,,,,,,,,,,,,,,,,,,,,,,,,,,,,,,,
,,,,right,0,0.1976,3,12,60,3,1,4,-200,left,708,2022-01-28_13h57.49.738,multiplicationStroop,2021.2.3,Win32,59.99880002,,,,,,,,,,,,,,,,,,,,,,,,,,,,,,,,,,,,,,,,,,,,,,,,,,,,,,,,,
,,,,right,1,0.8523,3,13,61,15,1,9,200,right,708,2022-01-28_13h57.49.738,multiplicationStroop,2021.2.3,Win32,59.99880002,,,,,,,,,,,,,,,,,,,,,,,,,,,,,,,,,,,,,,,,,,,,,,,,,,,,,,,,,
,,,,left,1,0.3774,3,14,62,6,1,8,-200,left,708,2022-01-28_13h57.49.738,multiplicationStroop,2021.2.3,Win32,59.99880002,,,,,,,,,,,,,,,,,,,,,,,,,,,,,,,,,,,,,,,,,,,,,,,,,,,,,,,,,
,,,,left,1,0.3469,3,15,63,1,1,2,-200,left,708,2022-01-28_13h57.49.738,multiplicationStroop,2021.2.3,Win32,59.99880002,,,,,,,,,,,,,,,,,,,,,,,,,,,,,,,,,,,,,,,,,,,,,,,,,,,,,,,,,
,,,,,,,,,,,,,,,708,2022-01-28_13h57.49.738,multiplicationStroop,2021.2.3,Win32,59.99880002,space,8.2518,space,8.5547,right,1,0.9859,0,0,0,58,1,6,8,6 | 8,2,1.6933,1.6933,neutral,right,,,,,,stimulusFile/magnitude.xlsx,,,,,,,,,,,,,,,,,,,,,,,,,,,,,,,
,,,,,,,,,,,,,,,708,2022-01-28_13h57.49.738,multiplicationStroop,2021.2.3,Win32,59.99880002,,,,,right,1,0.6366,0,1,1,33,1,2,4,2 | 4,2,1.9756,1.4111,incongruent,right,,,,,,stimulusFile/magnitude.xlsx,,,,,,,,,,,,,,,,,,,,,,,,,,,,,,,
,,,,,,,,,,,,,,,708,2022-01-28_13h57.49.738,multiplicationStroop,2021.2.3,Win32,59.99880002,,,,,right,1,1.1134,0,2,2,35,1,7,9,7 | 9,2,1.9756,1.4111,incongruent,right,,,,,,stimulusFile/magnitude.xlsx,,,,,,,,,,,,,,,,,,,,,,,,,,,,,,,
,,,,,,,,,,,,,,,708,2022-01-28_13h57.49.738,multiplicationStroop,2021.2.3,Win32,59.99880002,,,,,right,1,0.888,0,3,3,27,1,8,9,8 | 9,1,1.9756,1.4111,incongruent,right,,,,,,stimulusFile/magnitude.xlsx,,,,,,,,,,,,,,,,,,,,,,,,,,,,,,,
,,,,,,,,,,,,,,,708,2022-01-28_13h57.49.738,multiplicationStroop,2021.2.3,Win32,59.99880002,,,,,right,1,1.0372,0,4,4,42,1,3,8,3 | 8,5,1.9756,1.4111,incongruent,right,,,,,,stimulusFile/magnitude.xlsx,,,,,,,,,,,,,,,,,,,,,,,,,,,,,,,
,,,,,,,,,,,,,,,708,2022-01-28_13h57.49.738,multiplicationStroop,2021.2.3,Win32,59.99880002,,,,,right,1,0.6583,0,5,5,0,1,1,2,1 | 2,1,1.4111,1.9756,congruent,right,,,,,,stimulusFile/magnitude.xlsx,,,,,,,,,,,,,,,,,,,,,,,,,,,,,,,
,,,,,,,,,,,,,,,708,2022-01-28_13h57.49.738,multiplicationStroop,2021.2.3,Win32,59.99880002,,,,,left,1,0.8841,0,6,6,30,1,7,6,7 | 6,1,1.4111,1.9756,incongruent,left,,,,,,stimulusFile/magnitude.xlsx,,,,,,,,,,,,,,,,,,,,,,,,,,,,,,,
,,,,,,,,,,,,,,,708,2022-01-28_13h57.49.738,multiplicationStroop,2021.2.3,Win32,59.99880002,,,,,left,1,1.068,0,7,7,52,1,2,1,2 | 1,1,1.6933,1.6933,neutral,left,,,,,,stimulusFile/magnitude.xlsx,,,,,,,,,,,,,,,,,,,,,,,,,,,,,,,
,,,,,,,,,,,,,,,708,2022-01-28_13h57.49.738,multiplicationStroop,2021.2.3,Win32,59.99880002,,,,,right,1,0.7746,0,8,8,66,1,3,8,3 | 8,5,1.6933,1.6933,neutral,right,,,,,,stimulusFile/magnitude.xlsx,,,,,,,,,,,,,,,,,,,,,,,,,,,,,,,
,,,,,,,,,,,,,,,708,2022-01-28_13h57.49.738,multiplicationStroop,2021.2.3,Win32,59.99880002,,,,,left,1,0.6485,0,9,9,12,1,3,1,3 | 1,2,1.9756,1.4111,congruent,left,,,,,,stimulusFile/magnitude.xlsx,,,,,,,,,,,,,,,,,,,,,,,,,,,,,,,
,,,,,,,,,,,,,,,708,2022-01-28_13h57.49.738,multiplicationStroop,2021.2.3,Win32,59.99880002,,,,,left,1,0.5887,0,10,10,22,1,8,3,8 | 3,5,1.9756,1.4111,congruent,left,,,,,,stimulusFile/magnitude.xlsx,,,,,,,,,,,,,,,,,,,,,,,,,,,,,,,
,,,,,,,,,,,,,,,708,2022-01-28_13h57.49.738,multiplicationStroop,2021.2.3,Win32,59.99880002,,,,,left,1,0.6407,0,11,11,4,1,2,1,2 | 1,1,1.9756,1.4111,congruent,left,,,,,,stimulusFile/magnitude.xlsx,,,,,,,,,,,,,,,,,,,,,,,,,,,,,,,
,,,,,,,,,,,,,,,708,2022-01-28_13h57.49.738,multiplicationStroop,2021.2.3,Win32,59.99880002,,,,,right,1,0.5373,0,12,12,57,1,2,4,2 | 4,2,1.6933,1.6933,neutral,right,,,,,,stimulusFile/magnitude.xlsx,,,,,,,,,,,,,,,,,,,,,,,,,,,,,,,
,,,,,,,,,,,,,,,708,2022-01-28_13h57.49.738,multiplicationStroop,2021.2.3,Win32,59.99880002,,,,,left,1,0.6939,0,13,13,62,1,8,6,8 | 6,2,1.6933,1.6933,neutral,left,,,,,,stimulusFile/magnitude.xlsx,,,,,,,,,,,,,,,,,,,,,,,,,,,,,,,
,,,,,,,,,,,,,,,708,2022-01-28_13h57.49.738,multiplicationStroop,2021.2.3,Win32,59.99880002,,,,,right,1,0.5162,0,14,14,48,1,1,2,1 | 2,1,1.6933,1.6933,neutral,right,,,,,,stimulusFile/magnitude.xlsx,,,,,,,,,,,,,,,,,,,,,,,,,,,,,,,
,,,,,,,,,,,,,,,708,2022-01-28_13h57.49.738,multiplicationStroop,2021.2.3,Win32,59.99880002,,,,,right,1,0.5672,0,15,15,32,1,1,3,1 | 3,2,1.9756,1.4111,incongruent,right,,,,,,stimulusFile/magnitude.xlsx,,,,,,,,,,,,,,,,,,,,,,,,,,,,,,,
,,,,,,,,,,,,,,,708,2022-01-28_13h57.49.738,multiplicationStroop,2021.2.3,Win32,59.99880002,,,,,left,1,0.5263,0,16,16,23,1,9,4,9 | 4,5,1.9756,1.4111,congruent,left,,,,,,stimulusFile/magnitude.xlsx,,,,,,,,,,,,,,,,,,,,,,,,,,,,,,,
,,,,,,,,,,,,,,,708,2022-01-28_13h57.49.738,multiplicationStroop,2021.2.3,Win32,59.99880002,,,,,right,1,0.7056,0,17,17,67,1,4,9,4 | 9,5,1.6933,1.6933,neutral,right,,,,,,stimulusFile/magnitude.xlsx,,,,,,,,,,,,,,,,,,,,,,,,,,,,,,,
,,,,,,,,,,,,,,,708,2022-01-28_13h57.49.738,multiplicationStroop,2021.2.3,Win32,59.99880002,,,,,left,1,0.6564,0,18,18,5,1,4,3,4 | 3,1,1.9756,1.4111,congruent,left,,,,,,stimulusFile/magnitude.xlsx,,,,,,,,,,,,,,,,,,,,,,,,,,,,,,,
,,,,,,,,,,,,,,,708,2022-01-28_13h57.49.738,multiplicationStroop,2021.2.3,Win32,59.99880002,,,,,right,1,0.5838,0,19,19,26,1,6,7,6 | 7,1,1.9756,1.4111,incongruent,right,,,,,,stimulusFile/magnitude.xlsx,,,,,,,,,,,,,,,,,,,,,,,,,,,,,,,
,,,,,,,,,,,,,,,708,2022-01-28_13h57.49.738,multiplicationStroop,2021.2.3,Win32,59.99880002,,,,,right,1,0.734,0,20,20,59,1,7,9,7 | 9,2,1.6933,1.6933,neutral,right,,,,,,stimulusFile/magnitude.xlsx,,,,,,,,,,,,,,,,,,,,,,,,,,,,,,,
,,,,,,,,,,,,,,,708,2022-01-28_13h57.49.738,multiplicationStroop,2021.2.3,Win32,59.99880002,,,,,left,1,0.5735,0,21,21,7,1,9,8,9 | 8,1,1.9756,1.4111,congruent,left,,,,,,stimulusFile/magnitude.xlsx,,,,,,,,,,,,,,,,,,,,,,,,,,,,,,,
,,,,,,,,,,,,,,,708,2022-01-28_13h57.49.738,multiplicationStroop,2021.2.3,Win32,59.99880002,,,,,right,1,0.6206,0,22,22,40,1,1,6,1 | 6,5,1.9756,1.4111,incongruent,right,,,,,,stimulusFile/magnitude.xlsx,,,,,,,,,,,,,,,,,,,,,,,,,,,,,,,
,,,,,,,,,,,,,,,708,2022-01-28_13h57.49.738,multiplicationStroop,2021.2.3,Win32,59.99880002,,,,,right,1,0.7028,0,23,23,43,1,4,9,4 | 9,5,1.9756,1.4111,incongruent,right,,,,,,stimulusFile/magnitude.xlsx,,,,,,,,,,,,,,,,,,,,,,,,,,,,,,,
,,,,,,,,,,,,,,,708,2022-01-28_13h57.49.738,multiplicationStroop,2021.2.3,Win32,59.99880002,,,,,right,1,0.5353,0,24,24,8,1,1,3,1 | 3,2,1.4111,1.9756,congruent,right,,,,,,stimulusFile/magnitude.xlsx,,,,,,,,,,,,,,,,,,,,,,,,,,,,,,,
,,,,,,,,,,,,,,,708,2022-01-28_13h57.49.738,multiplicationStroop,2021.2.3,Win32,59.99880002,,,,,left,1,0.58,0,25,25,63,1,9,7,9 | 7,2,1.6933,1.6933,neutral,left,,,,,,stimulusFile/magnitude.xlsx,,,,,,,,,,,,,,,,,,,,,,,,,,,,,,,
,,,,,,,,,,,,,,,708,2022-01-28_13h57.49.738,multiplicationStroop,2021.2.3,Win32,59.99880002,,,,,left,1,0.5265,0,26,26,46,1,8,3,8 | 3,5,1.4111,1.9756,incongruent,left,,,,,,stimulusFile/magnitude.xlsx,,,,,,,,,,,,,,,,,,,,,,,,,,,,,,,
,,,,,,,,,,,,,,,708,2022-01-28_13h57.49.738,multiplicationStroop,2021.2.3,Win32,59.99880002,,,,,right,1,0.6733,0,27,27,51,1,8,9,8 | 9,1,1.6933,1.6933,neutral,right,,,,,,stimulusFile/magnitude.xlsx,,,,,,,,,,,,,,,,,,,,,,,,,,,,,,,
,,,,,,,,,,,,,,,708,2022-01-28_13h57.49.738,multiplicationStroop,2021.2.3,Win32,59.99880002,,,,,right,1,0.5314,0,28,28,16,1,1,6,1 | 6,5,1.4111,1.9756,congruent,right,,,,,,stimulusFile/magnitude.xlsx,,,,,,,,,,,,,,,,,,,,,,,,,,,,,,,
,,,,,,,,,,,,,,,708,2022-01-28_13h57.49.738,multiplicationStroop,2021.2.3,Win32,59.99880002,,,,,left,1,0.5732,0,29,29,45,1,7,2,7 | 2,5,1.4111,1.9756,incongruent,left,,,,,,stimulusFile/magnitude.xlsx,,,,,,,,,,,,,,,,,,,,,,,,,,,,,,,
,,,,,,,,,,,,,,,708,2022-01-28_13h57.49.738,multiplicationStroop,2021.2.3,Win32,59.99880002,,,,,right,1,0.5399,0,30,30,17,1,2,7,2 | 7,5,1.4111,1.9756,congruent,right,,,,,,stimulusFile/magnitude.xlsx,,,,,,,,,,,,,,,,,,,,,,,,,,,,,,,
,,,,,,,,,,,,,,,708,2022-01-28_13h57.49.738,multiplicationStroop,2021.2.3,Win32,59.99880002,,,,,left,1,0.6887,0,31,31,38,1,8,6,8 | 6,2,1.4111,1.9756,incongruent,left,,,,,,stimulusFile/magnitude.xlsx,,,,,,,,,,,,,,,,,,,,,,,,,,,,,,,
,,,,,,,,,,,,,,,708,2022-01-28_13h57.49.738,multiplicationStroop,2021.2.3,Win32,59.99880002,,,,,left,1,0.7494,0,32,32,54,1,7,6,7 | 6,1,1.6933,1.6933,neutral,left,,,,,,stimulusFile/magnitude.xlsx,,,,,,,,,,,,,,,,,,,,,,,,,,,,,,,
,,,,,,,,,,,,,,,708,2022-01-28_13h57.49.738,multiplicationStroop,2021.2.3,Win32,59.99880002,,,,,right,1,0.552,0,33,33,65,1,2,7,2 | 7,5,1.6933,1.6933,neutral,right,,,,,,stimulusFile/magnitude.xlsx,,,,,,,,,,,,,,,,,,,,,,,,,,,,,,,
,,,,,,,,,,,,,,,708,2022-01-28_13h57.49.738,multiplicationStroop,2021.2.3,Win32,59.99880002,,,,,right,0,0.4609,0,34,34,39,1,9,7,9 | 7,2,1.4111,1.9756,incongruent,left,,,,,,stimulusFile/magnitude.xlsx,,,,,,,,,,,,,,,,,,,,,,,,,,,,,,,
,,,,,,,,,,,,,,,708,2022-01-28_13h57.49.738,multiplicationStroop,2021.2.3,Win32,59.99880002,,,,,right,1,0.6741,0,35,35,3,1,8,9,8 | 9,1,1.4111,1.9756,congruent,right,,,,,,stimulusFile/magnitude.xlsx,,,,,,,,,,,,,,,,,,,,,,,,,,,,,,,
,,,,,,,,,,,,,,,708,2022-01-28_13h57.49.738,multiplicationStroop,2021.2.3,Win32,59.99880002,,,,,left,1,0.936,0,36,36,53,1,4,3,4 | 3,1,1.6933,1.6933,neutral,left,,,,,,stimulusFile/magnitude.xlsx,,,,,,,,,,,,,,,,,,,,,,,,,,,,,,,
,,,,,,,,,,,,,,,708,2022-01-28_13h57.49.738,multiplicationStroop,2021.2.3,Win32,59.99880002,,,,,right,1,0.6142,0,37,37,25,1,3,4,3 | 4,1,1.9756,1.4111,incongruent,right,,,,,,stimulusFile/magnitude.xlsx,,,,,,,,,,,,,,,,,,,,,,,,,,,,,,,
,,,,,,,,,,,,,,,708,2022-01-28_13h57.49.738,multiplicationStroop,2021.2.3,Win32,59.99880002,,,,,right,1,0.5181,0,38,38,49,1,3,4,3 | 4,1,1.6933,1.6933,neutral,right,,,,,,stimulusFile/magnitude.xlsx,,,,,,,,,,,,,,,,,,,,,,,,,,,,,,,
,,,,,,,,,,,,,,,708,2022-01-28_13h57.49.738,multiplicationStroop,2021.2.3,Win32,59.99880002,,,,,right,1,0.6254,0,39,39,19,1,4,9,4 | 9,5,1.4111,1.9756,congruent,right,,,,,,stimulusFile/magnitude.xlsx,,,,,,,,,,,,,,,,,,,,,,,,,,,,,,,
,,,,,,,,,,,,,,,708,2022-01-28_13h57.49.738,multiplicationStroop,2021.2.3,Win32,59.99880002,,,,,right,1,0.5043,0,40,40,41,1,2,7,2 | 7,5,1.9756,1.4111,incongruent,right,,,,,,stimulusFile/magnitude.xlsx,,,,,,,,,,,,,,,,,,,,,,,,,,,,,,,
,,,,,,,,,,,,,,,708,2022-01-28_13h57.49.738,multiplicationStroop,2021.2.3,Win32,59.99880002,,,,,right,1,0.4842,0,41,41,64,1,1,6,1 | 6,5,1.6933,1.6933,neutral,right,,,,,,stimulusFile/magnitude.xlsx,,,,,,,,,,,,,,,,,,,,,,,,,,,,,,,
,,,,,,,,,,,,,,,708,2022-01-28_13h57.49.738,multiplicationStroop,2021.2.3,Win32,59.99880002,,,,,left,1,0.5801,0,42,42,68,1,6,1,6 | 1,5,1.6933,1.6933,neutral,left,,,,,,stimulusFile/magnitude.xlsx,,,,,,,,,,,,,,,,,,,,,,,,,,,,,,,
,,,,,,,,,,,,,,,708,2022-01-28_13h57.49.738,multiplicationStroop,2021.2.3,Win32,59.99880002,,,,,left,1,0.5839,0,43,43,13,1,4,2,4 | 2,2,1.9756,1.4111,congruent,left,,,,,,stimulusFile/magnitude.xlsx,,,,,,,,,,,,,,,,,,,,,,,,,,,,,,,
,,,,,,,,,,,,,,,708,2022-01-28_13h57.49.738,multiplicationStroop,2021.2.3,Win32,59.99880002,,,,,left,1,0.5848,0,44,44,21,1,7,2,7 | 2,5,1.9756,1.4111,congruent,left,,,,,,stimulusFile/magnitude.xlsx,,,,,,,,,,,,,,,,,,,,,,,,,,,,,,,
,,,,,,,,,,,,,,,708,2022-01-28_13h57.49.738,multiplicationStroop,2021.2.3,Win32,59.99880002,,,,,left,1,0.6629,0,45,45,47,1,9,4,9 | 4,5,1.4111,1.9756,incongruent,left,,,,,,stimulusFile/magnitude.xlsx,,,,,,,,,,,,,,,,,,,,,,,,,,,,,,,
,,,,,,,,,,,,,,,708,2022-01-28_13h57.49.738,multiplicationStroop,2021.2.3,Win32,59.99880002,,,,,right,1,0.5535,0,46,46,2,1,6,7,6 | 7,1,1.4111,1.9756,congruent,right,,,,,,stimulusFile/magnitude.xlsx,,,,,,,,,,,,,,,,,,,,,,,,,,,,,,,
,,,,,,,,,,,,,,,708,2022-01-28_13h57.49.738,multiplicationStroop,2021.2.3,Win32,59.99880002,,,,,right,1,0.5463,0,47,47,10,1,6,8,6 | 8,2,1.4111,1.9756,congruent,right,,,,,,stimulusFile/magnitude.xlsx,,,,,,,,,,,,,,,,,,,,,,,,,,,,,,,
,,,,,,,,,,,,,,,708,2022-01-28_13h57.49.738,multiplicationStroop,2021.2.3,Win32,59.99880002,,,,,right,1,0.5285,0,48,48,24,1,1,2,1 | 2,1,1.9756,1.4111,incongruent,right,,,,,,stimulusFile/magnitude.xlsx,,,,,,,,,,,,,,,,,,,,,,,,,,,,,,,
,,,,,,,,,,,,,,,708,2022-01-28_13h57.49.738,multiplicationStroop,2021.2.3,Win32,59.99880002,,,,,left,1,0.4709,0,49,49,37,1,4,2,4 | 2,2,1.4111,1.9756,incongruent,left,,,,,,stimulusFile/magnitude.xlsx,,,,,,,,,,,,,,,,,,,,,,,,,,,,,,,
,,,,,,,,,,,,,,,708,2022-01-28_13h57.49.738,multiplicationStroop,2021.2.3,Win32,59.99880002,,,,,left,1,0.5013,0,50,50,71,1,9,4,9 | 4,5,1.6933,1.6933,neutral,left,,,,,,stimulusFile/magnitude.xlsx,,,,,,,,,,,,,,,,,,,,,,,,,,,,,,,
,,,,,,,,,,,,,,,708,2022-01-28_13h57.49.738,multiplicationStroop,2021.2.3,Win32,59.99880002,,,,,left,1,0.6911,0,51,51,55,1,9,8,9 | 8,1,1.6933,1.6933,neutral,left,,,,,,stimulusFile/magnitude.xlsx,,,,,,,,,,,,,,,,,,,,,,,,,,,,,,,
,,,,,,,,,,,,,,,708,2022-01-28_13h57.49.738,multiplicationStroop,2021.2.3,Win32,59.99880002,,,,,left,1,0.5579,0,52,52,69,1,7,2,7 | 2,5,1.6933,1.6933,neutral,left,,,,,,stimulusFile/magnitude.xlsx,,,,,,,,,,,,,,,,,,,,,,,,,,,,,,,
,,,,,,,,,,,,,,,708,2022-01-28_13h57.49.738,multiplicationStroop,2021.2.3,Win32,59.99880002,,,,,right,1,0.5669,0,53,53,1,1,3,4,3 | 4,1,1.4111,1.9756,congruent,right,,,,,,stimulusFile/magnitude.xlsx,,,,,,,,,,,,,,,,,,,,,,,,,,,,,,,
,,,,,,,,,,,,,,,708,2022-01-28_13h57.49.738,multiplicationStroop,2021.2.3,Win32,59.99880002,,,,,left,1,0.4987,0,54,54,44,1,6,1,6 | 1,5,1.4111,1.9756,incongruent,left,,,,,,stimulusFile/magnitude.xlsx,,,,,,,,,,,,,,,,,,,,,,,,,,,,,,,
,,,,,,,,,,,,,,,708,2022-01-28_13h57.49.738,multiplicationStroop,2021.2.3,Win32,59.99880002,,,,,left,1,0.5446,0,55,55,61,1,4,2,4 | 2,2,1.6933,1.6933,neutral,left,,,,,,stimulusFile/magnitude.xlsx,,,,,,,,,,,,,,,,,,,,,,,,,,,,,,,
,,,,,,,,,,,,,,,708,2022-01-28_13h57.49.738,multiplicationStroop,2021.2.3,Win32,59.99880002,,,,,left,1,0.4392,0,56,56,20,1,6,1,6 | 1,5,1.9756,1.4111,congruent,left,,,,,,stimulusFile/magnitude.xlsx,,,,,,,,,,,,,,,,,,,,,,,,,,,,,,,
,,,,,,,,,,,,,,,708,2022-01-28_13h57.49.738,multiplicationStroop,2021.2.3,Win32,59.99880002,,,,,left,1,0.5685,0,57,57,15,1,9,7,9 | 7,2,1.9756,1.4111,congruent,left,,,,,,stimulusFile/magnitude.xlsx,,,,,,,,,,,,,,,,,,,,,,,,,,,,,,,
,,,,,,,,,,,,,,,708,2022-01-28_13h57.49.738,multiplicationStroop,2021.2.3,Win32,59.99880002,,,,,right,1,0.5158,0,58,58,9,1,2,4,2 | 4,2,1.4111,1.9756,congruent,right,,,,,,stimulusFile/magnitude.xlsx,,,,,,,,,,,,,,,,,,,,,,,,,,,,,,,
,,,,,,,,,,,,,,,708,2022-01-28_13h57.49.738,multiplicationStroop,2021.2.3,Win32,59.99880002,,,,,right,1,0.7755,0,59,59,34,1,6,8,6 | 8,2,1.9756,1.4111,incongruent,right,,,,,,stimulusFile/magnitude.xlsx,,,,,,,,,,,,,,,,,,,,,,,,,,,,,,,
,,,,,,,,,,,,,,,708,2022-01-28_13h57.49.738,multiplicationStroop,2021.2.3,Win32,59.99880002,,,,,left,1,0.7192,0,60,60,36,1,3,1,3 | 1,2,1.4111,1.9756,incongruent,left,,,,,,stimulusFile/magnitude.xlsx,,,,,,,,,,,,,,,,,,,,,,,,,,,,,,,
,,,,,,,,,,,,,,,708,2022-01-28_13h57.49.738,multiplicationStroop,2021.2.3,Win32,59.99880002,,,,,left,1,0.498,0,61,61,60,1,3,1,3 | 1,2,1.6933,1.6933,neutral,left,,,,,,stimulusFile/magnitude.xlsx,,,,,,,,,,,,,,,,,,,,,,,,,,,,,,,
,,,,,,,,,,,,,,,708,2022-01-28_13h57.49.738,multiplicationStroop,2021.2.3,Win32,59.99880002,,,,,right,1,0.5429,0,62,62,56,1,1,3,1 | 3,2,1.6933,1.6933,neutral,right,,,,,,stimulusFile/magnitude.xlsx,,,,,,,,,,,,,,,,,,,,,,,,,,,,,,,
,,,,,,,,,,,,,,,708,2022-01-28_13h57.49.738,multiplicationStroop,2021.2.3,Win32,59.99880002,,,,,left,1,0.479,0,63,63,29,1,4,3,4 | 3,1,1.4111,1.9756,incongruent,left,,,,,,stimulusFile/magnitude.xlsx,,,,,,,,,,,,,,,,,,,,,,,,,,,,,,,
,,,,,,,,,,,,,,,708,2022-01-28_13h57.49.738,multiplicationStroop,2021.2.3,Win32,59.99880002,,,,,left,1,0.5569,0,64,64,14,1,8,6,8 | 6,2,1.9756,1.4111,congruent,left,,,,,,stimulusFile/magnitude.xlsx,,,,,,,,,,,,,,,,,,,,,,,,,,,,,,,
,,,,,,,,,,,,,,,708,2022-01-28_13h57.49.738,multiplicationStroop,2021.2.3,Win32,59.99880002,,,,,left,1,0.4979,0,65,65,28,1,2,1,2 | 1,1,1.4111,1.9756,incongruent,left,,,,,,stimulusFile/magnitude.xlsx,,,,,,,,,,,,,,,,,,,,,,,,,,,,,,,
,,,,,,,,,,,,,,,708,2022-01-28_13h57.49.738,multiplicationStroop,2021.2.3,Win32,59.99880002,,,,,right,1,0.489,0,66,66,11,1,7,9,7 | 9,2,1.4111,1.9756,congruent,right,,,,,,stimulusFile/magnitude.xlsx,,,,,,,,,,,,,,,,,,,,,,,,,,,,,,,
,,,,,,,,,,,,,,,708,2022-01-28_13h57.49.738,multiplicationStroop,2021.2.3,Win32,59.99880002,,,,,left,1,0.6212,0,67,67,31,1,9,8,9 | 8,1,1.4111,1.9756,incongruent,left,,,,,,stimulusFile/magnitude.xlsx,,,,,,,,,,,,,,,,,,,,,,,,,,,,,,,
,,,,,,,,,,,,,,,708,2022-01-28_13h57.49.738,multiplicationStroop,2021.2.3,Win32,59.99880002,,,,,right,1,0.5515,0,68,68,18,1,3,8,3 | 8,5,1.4111,1.9756,congruent,right,,,,,,stimulusFile/magnitude.xlsx,,,,,,,,,,,,,,,,,,,,,,,,,,,,,,,
,,,,,,,,,,,,,,,708,2022-01-28_13h57.49.738,multiplicationStroop,2021.2.3,Win32,59.99880002,,,,,right,1,0.5191,0,69,69,50,1,6,7,6 | 7,1,1.6933,1.6933,neutral,right,,,,,,stimulusFile/magnitude.xlsx,,,,,,,,,,,,,,,,,,,,,,,,,,,,,,,
,,,,,,,,,,,,,,,708,2022-01-28_13h57.49.738,multiplicationStroop,2021.2.3,Win32,59.99880002,,,,,left,1,0.5762,0,70,70,6,1,7,6,7 | 6,1,1.9756,1.4111,congruent,left,,,,,,stimulusFile/magnitude.xlsx,,,,,,,,,,,,,,,,,,,,,,,,,,,,,,,
,,,,,,,,,,,,,,,708,2022-01-28_13h57.49.738,multiplicationStroop,2021.2.3,Win32,59.99880002,,,,,left,1,0.8824,0,71,71,70,1,8,3,8 | 3,5,1.6933,1.6933,neutral,left,,,,,,stimulusFile/magnitude.xlsx,,,,,,,,,,,,,,,,,,,,,,,,,,,,,,,
,,,,,,,,,,,,,,,708,2022-01-28_13h57.49.738,multiplicationStroop,2021.2.3,Win32,59.99880002,,,,,,,,,,,,,,,,,,,,,0,0,0,0,1,stimulusFile/magnitude.xlsx,NUMERICALLY larger (larger coefficient).,images/numericallyLarger.png,,,,,,,,,,,,,,,,,,,,,,,,,,,,,
,,,,,,,,,,,,,,,708,2022-01-28_13h57.49.738,multiplicationStroop,2021.2.3,Win32,59.99880002,space,4.1092,space,3.672,left,1,0.7907,0,0,0,15,1,9,7,9 | 7,2,1.9756,1.4111,congruent,left,,,,,,stimulusFile/physical.xlsx,,,,,,,,,,,,,,,,,,,,,,,,,,,,,,,
,,,,,,,,,,,,,,,708,2022-01-28_13h57.49.738,multiplicationStroop,2021.2.3,Win32,59.99880002,,,,,left,1,0.4244,0,1,1,48,1,1,1,1 | 1,0,1.9756,1.4111,neutral,left,,,,,,stimulusFile/physical.xlsx,,,,,,,,,,,,,,,,,,,,,,,,,,,,,,,
,,,,,,,,,,,,,,,708,2022-01-28_13h57.49.738,multiplicationStroop,2021.2.3,Win32,59.99880002,,,,,left,1,0.4195,0,2,2,24,1,1,2,1 | 2,1,1.9756,1.4111,incongruent,left,,,,,,stimulusFile/physical.xlsx,,,,,,,,,,,,,,,,,,,,,,,,,,,,,,,
,,,,,,,,,,,,,,,708,2022-01-28_13h57.49.738,multiplicationStroop,2021.2.3,Win32,59.99880002,,,,,left,1,0.4644,0,3,3,41,1,2,7,2 | 7,5,1.9756,1.4111,incongruent,left,,,,,,stimulusFile/physical.xlsx,,,,,,,,,,,,,,,,,,,,,,,,,,,,,,,
,,,,,,,,,,,,,,,708,2022-01-28_13h57.49.738,multiplicationStroop,2021.2.3,Win32,59.99880002,,,,,left,1,0.5183,0,4,4,27,1,8,9,8 | 9,1,1.9756,1.4111,incongruent,left,,,,,,stimulusFile/physical.xlsx,,,,,,,,,,,,,,,,,,,,,,,,,,,,,,,
,,,,,,,,,,,,,,,708,2022-01-28_13h57.49.738,multiplicationStroop,2021.2.3,Win32,59.99880002,,,,,right,1,0.6089,0,5,5,16,1,1,6,1 | 6,5,1.4111,1.9756,congruent,right,,,,,,stimulusFile/physical.xlsx,,,,,,,,,,,,,,,,,,,,,,,,,,,,,,,
,,,,,,,,,,,,,,,708,2022-01-28_13h57.49.738,multiplicationStroop,2021.2.3,Win32,59.99880002,,,,,right,1,0.392,0,6,6,67,1,4,4,4 | 4,0,1.4111,1.9756,neutral,right,,,,,,stimulusFile/physical.xlsx,,,,,,,,,,,,,,,,,,,,,,,,,,,,,,,
,,,,,,,,,,,,,,,708,2022-01-28_13h57.49.738,multiplicationStroop,2021.2.3,Win32,59.99880002,,,,,left,1,0.4998,0,7,7,70,1,8,8,8 | 8,0,1.9756,1.4111,neutral,left,,,,,,stimulusFile/physical.xlsx,,,,,,,,,,,,,,,,,,,,,,,,,,,,,,,
,,,,,,,,,,,,,,,708,2022-01-28_13h57.49.738,multiplicationStroop,2021.2.3,Win32,59.99880002,,,,,left,1,0.4982,0,8,8,23,1,9,4,9 | 4,5,1.9756,1.4111,congruent,left,,,,,,stimulusFile/physical.xlsx,,,,,,,,,,,,,,,,,,,,,,,,,,,,,,,
,,,,,,,,,,,,,,,708,2022-01-28_13h57.49.738,multiplicationStroop,2021.2.3,Win32,59.99880002,,,,,right,0,0.5823,0,9,9,71,1,9,9,9 | 9,0,1.4111,1.9756,neutral,left,,,,,,stimulusFile/physical.xlsx,,,,,,,,,,,,,,,,,,,,,,,,,,,,,,,
,,,,,,,,,,,,,,,708,2022-01-28_13h57.49.738,multiplicationStroop,2021.2.3,Win32,59.99880002,,,,,right,1,0.4728,0,10,10,3,1,8,9,8 | 9,1,1.4111,1.9756,congruent,right,,,,,,stimulusFile/physical.xlsx,,,,,,,,,,,,,,,,,,,,,,,,,,,,,,,
,,,,,,,,,,,,,,,708,2022-01-28_13h57.49.738,multiplicationStroop,2021.2.3,Win32,59.99880002,,,,,left,0,0.7985,0,11,11,36,1,3,1,3 | 1,2,1.4111,1.9756,incongruent,right,,,,,,stimulusFile/physical.xlsx,,,,,,,,,,,,,,,,,,,,,,,,,,,,,,,
,,,,,,,,,,,,,,,708,2022-01-28_13h57.49.738,multiplicationStroop,2021.2.3,Win32,59.99880002,,,,,left,1,0.8582,0,12,12,7,1,9,8,9 | 8,1,1.9756,1.4111,congruent,left,,,,,,stimulusFile/physical.xlsx,,,,,,,,,,,,,,,,,,,,,,,,,,,,,,,
,,,,,,,,,,,,,,,708,2022-01-28_13h57.49.738,multiplicationStroop,2021.2.3,Win32,59.99880002,,,,,right,1,0.4793,0,13,13,63,1,9,9,9 | 9,0,1.4111,1.9756,neutral,right,,,,,,stimulusFile/physical.xlsx,,,,,,,,,,,,,,,,,,,,,,,,,,,,,,,
,,,,,,,,,,,,,,,708,2022-01-28_13h57.49.738,multiplicationStroop,2021.2.3,Win32,59.99880002,,,,,right,1,1.023,0,14,14,9,1,2,4,2 | 4,2,1.4111,1.9756,congruent,right,,,,,,stimulusFile/physical.xlsx,,,,,,,,,,,,,,,,,,,,,,,,,,,,,,,
,,,,,,,,,,,,,,,708,2022-01-28_13h57.49.738,multiplicationStroop,2021.2.3,Win32,59.99880002,,,,,left,1,0.5145,0,15,15,54,1,7,7,7 | 7,0,1.9756,1.4111,neutral,left,,,,,,stimulusFile/physical.xlsx,,,,,,,,,,,,,,,,,,,,,,,,,,,,,,,
,,,,,,,,,,,,,,,708,2022-01-28_13h57.49.738,multiplicationStroop,2021.2.3,Win32,59.99880002,,,,,right,1,0.5749,0,16,16,60,1,3,3,3 | 3,0,1.4111,1.9756,neutral,right,,,,,,stimulusFile/physical.xlsx,,,,,,,,,,,,,,,,,,,,,,,,,,,,,,,
,,,,,,,,,,,,,,,708,2022-01-28_13h57.49.738,multiplicationStroop,2021.2.3,Win32,59.99880002,,,,,left,1,1.1141,0,17,17,35,1,7,9,7 | 9,2,1.9756,1.4111,incongruent,left,,,,,,stimulusFile/physical.xlsx,,,,,,,,,,,,,,,,,,,,,,,,,,,,,,,
,,,,,,,,,,,,,,,708,2022-01-28_13h57.49.738,multiplicationStroop,2021.2.3,Win32,59.99880002,,,,,left,1,0.5307,0,18,18,68,1,6,6,6 | 6,0,1.9756,1.4111,neutral,left,,,,,,stimulusFile/physical.xlsx,,,,,,,,,,,,,,,,,,,,,,,,,,,,,,,
,,,,,,,,,,,,,,,708,2022-01-28_13h57.49.738,multiplicationStroop,2021.2.3,Win32,59.99880002,,,,,right,1,0.6239,0,19,19,58,1,6,6,6 | 6,0,1.4111,1.9756,neutral,right,,,,,,stimulusFile/physical.xlsx,,,,,,,,,,,,,,,,,,,,,,,,,,,,,,,
,,,,,,,,,,,,,,,708,2022-01-28_13h57.49.738,multiplicationStroop,2021.2.3,Win32,59.99880002,,,,,left,0,0.4342,0,20,20,66,1,3,3,3 | 3,0,1.9756,1.4111,neutral,right,,,,,,stimulusFile/physical.xlsx,,,,,,,,,,,,,,,,,,,,,,,,,,,,,,,
,,,,,,,,,,,,,,,708,2022-01-28_13h57.49.738,multiplicationStroop,2021.2.3,Win32,59.99880002,,,,,right,1,0.4054,0,21,21,61,1,4,4,4 | 4,0,1.4111,1.9756,neutral,right,,,,,,stimulusFile/physical.xlsx,,,,,,,,,,,,,,,,,,,,,,,,,,,,,,,
,,,,,,,,,,,,,,,708,2022-01-28_13h57.49.738,multiplicationStroop,2021.2.3,Win32,59.99880002,,,,,right,1,0.4811,0,22,22,59,1,7,7,7 | 7,0,1.4111,1.9756,neutral,right,,,,,,stimulusFile/physical.xlsx,,,,,,,,,,,,,,,,,,,,,,,,,,,,,,,
,,,,,,,,,,,,,,,708,2022-01-28_13h57.49.738,multiplicationStroop,2021.2.3,Win32,59.99880002,,,,,right,1,0.6833,0,23,23,1,1,3,4,3 | 4,1,1.4111,1.9756,congruent,right,,,,,,stimulusFile/physical.xlsx,,,,,,,,,,,,,,,,,,,,,,,,,,,,,,,
,,,,,,,,,,,,,,,708,2022-01-28_13h57.49.738,multiplicationStroop,2021.2.3,Win32,59.99880002,,,,,right,1,0.7332,0,24,24,8,1,1,3,1 | 3,2,1.4111,1.9756,congruent,right,,,,,,stimulusFile/physical.xlsx,,,,,,,,,,,,,,,,,,,,,,,,,,,,,,,
,,,,,,,,,,,,,,,708,2022-01-28_13h57.49.738,multiplicationStroop,2021.2.3,Win32,59.99880002,,,,,right,1,0.4788,0,25,25,47,1,9,4,9 | 4,5,1.4111,1.9756,incongruent,right,,,,,,stimulusFile/physical.xlsx,,,,,,,,,,,,,,,,,,,,,,,,,,,,,,,
,,,,,,,,,,,,,,,708,2022-01-28_13h57.49.738,multiplicationStroop,2021.2.3,Win32,59.99880002,,,,,right,1,0.5475,0,26,26,10,1,6,8,6 | 8,2,1.4111,1.9756,congruent,right,,,,,,stimulusFile/physical.xlsx,,,,,,,,,,,,,,,,,,,,,,,,,,,,,,,
,,,,,,,,,,,,,,,708,2022-01-28_13h57.49.738,multiplicationStroop,2021.2.3,Win32,59.99880002,,,,,left,1,0.4518,0,27,27,14,1,8,6,8 | 6,2,1.9756,1.4111,congruent,left,,,,,,stimulusFile/physical.xlsx,,,,,,,,,,,,,,,,,,,,,,,,,,,,,,,
,,,,,,,,,,,,,,,708,2022-01-28_13h57.49.738,multiplicationStroop,2021.2.3,Win32,59.99880002,,,,,right,1,0.7985,0,28,28,29,1,4,3,4 | 3,1,1.4111,1.9756,incongruent,right,,,,,,stimulusFile/physical.xlsx,,,,,,,,,,,,,,,,,,,,,,,,,,,,,,,
,,,,,,,,,,,,,,,708,2022-01-28_13h57.49.738,multiplicationStroop,2021.2.3,Win32,59.99880002,,,,,right,1,0.5125,0,29,29,2,1,6,7,6 | 7,1,1.4111,1.9756,congruent,right,,,,,,stimulusFile/physical.xlsx,,,,,,,,,,,,,,,,,,,,,,,,,,,,,,,
,,,,,,,,,,,,,,,708,2022-01-28_13h57.49.738,multiplicationStroop,2021.2.3,Win32,59.99880002,,,,,left,1,0.8331,0,30,30,50,1,6,6,6 | 6,0,1.9756,1.4111,neutral,left,,,,,,stimulusFile/physical.xlsx,,,,,,,,,,,,,,,,,,,,,,,,,,,,,,,
,,,,,,,,,,,,,,,708,2022-01-28_13h57.49.738,multiplicationStroop,2021.2.3,Win32,59.99880002,,,,,left,1,0.5195,0,31,31,40,1,1,6,1 | 6,5,1.9756,1.4111,incongruent,left,,,,,,stimulusFile/physical.xlsx,,,,,,,,,,,,,,,,,,,,,,,,,,,,,,,
,,,,,,,,,,,,,,,708,2022-01-28_13h57.49.738,multiplicationStroop,2021.2.3,Win32,59.99880002,,,,,left,1,0.6254,0,32,32,4,1,2,1,2 | 1,1,1.9756,1.4111,congruent,left,,,,,,stimulusFile/physical.xlsx,,,,,,,,,,,,,,,,,,,,,,,,,,,,,,,
,,,,,,,,,,,,,,,708,2022-01-28_13h57.49.738,multiplicationStroop,2021.2.3,Win32,59.99880002,,,,,right,1,0.7798,0,33,33,45,1,7,2,7 | 2,5,1.4111,1.9756,incongruent,right,,,,,,stimulusFile/physical.xlsx,,,,,,,,,,,,,,,,,,,,,,,,,,,,,,,
,,,,,,,,,,,,,,,708,2022-01-28_13h57.49.738,multiplicationStroop,2021.2.3,Win32,59.99880002,,,,,left,1,0.6053,0,34,34,43,1,4,9,4 | 9,5,1.9756,1.4111,incongruent,left,,,,,,stimulusFile/physical.xlsx,,,,,,,,,,,,,,,,,,,,,,,,,,,,,,,
,,,,,,,,,,,,,,,708,2022-01-28_13h57.49.738,multiplicationStroop,2021.2.3,Win32,59.99880002,,,,,right,1,0.6165,0,35,35,28,1,2,1,2 | 1,1,1.4111,1.9756,incongruent,right,,,,,,stimulusFile/physical.xlsx,,,,,,,,,,,,,,,,,,,,,,,,,,,,,,,
,,,,,,,,,,,,,,,708,2022-01-28_13h57.49.738,multiplicationStroop,2021.2.3,Win32,59.99880002,,,,,right,1,0.6578,0,36,36,19,1,4,9,4 | 9,5,1.4111,1.9756,congruent,right,,,,,,stimulusFile/physical.xlsx,,,,,,,,,,,,,,,,,,,,,,,,,,,,,,,
,,,,,,,,,,,,,,,708,2022-01-28_13h57.49.738,multiplicationStroop,2021.2.3,Win32,59.99880002,,,,,right,1,0.6207,0,37,37,46,1,8,3,8 | 3,5,1.4111,1.9756,incongruent,right,,,,,,stimulusFile/physical.xlsx,,,,,,,,,,,,,,,,,,,,,,,,,,,,,,,
,,,,,,,,,,,,,,,708,2022-01-28_13h57.49.738,multiplicationStroop,2021.2.3,Win32,59.99880002,,,,,left,1,0.5507,0,38,38,32,1,1,3,1 | 3,2,1.9756,1.4111,incongruent,left,,,,,,stimulusFile/physical.xlsx,,,,,,,,,,,,,,,,,,,,,,,,,,,,,,,
,,,,,,,,,,,,,,,708,2022-01-28_13h57.49.738,multiplicationStroop,2021.2.3,Win32,59.99880002,,,,,left,1,0.5531,0,39,39,6,1,7,6,7 | 6,1,1.9756,1.4111,congruent,left,,,,,,stimulusFile/physical.xlsx,,,,,,,,,,,,,,,,,,,,,,,,,,,,,,,
,,,,,,,,,,,,,,,708,2022-01-28_13h57.49.738,multiplicationStroop,2021.2.3,Win32,59.99880002,,,,,right,1,0.6351,0,40,40,30,1,7,6,7 | 6,1,1.4111,1.9756,incongruent,right,,,,,,stimulusFile/physical.xlsx,,,,,,,,,,,,,,,,,,,,,,,,,,,,,,,
,,,,,,,,,,,,,,,708,2022-01-28_13h57.49.738,multiplicationStroop,2021.2.3,Win32,59.99880002,,,,,left,1,0.6169,0,41,41,49,1,3,3,3 | 3,0,1.9756,1.4111,neutral,left,,,,,,stimulusFile/physical.xlsx,,,,,,,,,,,,,,,,,,,,,,,,,,,,,,,
,,,,,,,,,,,,,,,708,2022-01-28_13h57.49.738,multiplicationStroop,2021.2.3,Win32,59.99880002,,,,,left,1,0.5847,0,42,42,34,1,6,8,6 | 8,2,1.9756,1.4111,incongruent,left,,,,,,stimulusFile/physical.xlsx,,,,,,,,,,,,,,,,,,,,,,,,,,,,,,,
,,,,,,,,,,,,,,,708,2022-01-28_13h57.49.738,multiplicationStroop,2021.2.3,Win32,59.99880002,,,,,left,1,0.8372,0,43,43,33,1,2,4,2 | 4,2,1.9756,1.4111,incongruent,left,,,,,,stimulusFile/physical.xlsx,,,,,,,,,,,,,,,,,,,,,,,,,,,,,,,
,,,,,,,,,,,,,,,708,2022-01-28_13h57.49.738,multiplicationStroop,2021.2.3,Win32,59.99880002,,,,,left,1,0.6562,0,44,44,22,1,8,3,8 | 3,5,1.9756,1.4111,congruent,left,,,,,,stimulusFile/physical.xlsx,,,,,,,,,,,,,,,,,,,,,,,,,,,,,,,
,,,,,,,,,,,,,,,708,2022-01-28_13h57.49.738,multiplicationStroop,2021.2.3,Win32,59.99880002,,,,,right,1,0.4822,0,45,45,37,1,4,2,4 | 2,2,1.4111,1.9756,incongruent,right,,,,,,stimulusFile/physical.xlsx,,,,,,,,,,,,,,,,,,,,,,,,,,,,,,,
,,,,,,,,,,,,,,,708,2022-01-28_13h57.49.738,multiplicationStroop,2021.2.3,Win32,59.99880002,,,,,left,1,1.3307,0,46,46,51,1,8,8,8 | 8,0,1.9756,1.4111,neutral,left,,,,,,stimulusFile/physical.xlsx,,,,,,,,,,,,,,,,,,,,,,,,,,,,,,,
,,,,,,,,,,,,,,,708,2022-01-28_13h57.49.738,multiplicationStroop,2021.2.3,Win32,59.99880002,,,,,left,1,0.6415,0,47,47,12,1,3,1,3 | 1,2,1.9756,1.4111,congruent,left,,,,,,stimulusFile/physical.xlsx,,,,,,,,,,,,,,,,,,,,,,,,,,,,,,,
,,,,,,,,,,,,,,,708,2022-01-28_13h57.49.738,multiplicationStroop,2021.2.3,Win32,59.99880002,,,,,right,0,0.5015,0,48,48,69,1,7,7,7 | 7,0,1.4111,1.9756,neutral,left,,,,,,stimulusFile/physical.xlsx,,,,,,,,,,,,,,,,,,,,,,,,,,,,,,,
,,,,,,,,,,,,,,,708,2022-01-28_13h57.49.738,multiplicationStroop,2021.2.3,Win32,59.99880002,,,,,right,1,0.5365,0,49,49,39,1,9,7,9 | 7,2,1.4111,1.9756,incongruent,right,,,,,,stimulusFile/physical.xlsx,,,,,,,,,,,,,,,,,,,,,,,,,,,,,,,
,,,,,,,,,,,,,,,708,2022-01-28_13h57.49.738,multiplicationStroop,2021.2.3,Win32,59.99880002,,,,,right,1,0.6999,0,50,50,57,1,2,2,2 | 2,0,1.4111,1.9756,neutral,right,,,,,,stimulusFile/physical.xlsx,,,,,,,,,,,,,,,,,,,,,,,,,,,,,,,
,,,,,,,,,,,,,,,708,2022-01-28_13h57.49.738,multiplicationStroop,2021.2.3,Win32,59.99880002,,,,,right,1,0.53,0,51,51,18,1,3,8,3 | 8,5,1.4111,1.9756,congruent,right,,,,,,stimulusFile/physical.xlsx,,,,,,,,,,,,,,,,,,,,,,,,,,,,,,,
,,,,,,,,,,,,,,,708,2022-01-28_13h57.49.738,multiplicationStroop,2021.2.3,Win32,59.99880002,,,,,right,1,0.5861,0,52,52,31,1,9,8,9 | 8,1,1.4111,1.9756,incongruent,right,,,,,,stimulusFile/physical.xlsx,,,,,,,,,,,,,,,,,,,,,,,,,,,,,,,
,,,,,,,,,,,,,,,708,2022-01-28_13h57.49.738,multiplicationStroop,2021.2.3,Win32,59.99880002,,,,,left,0,0.5047,0,53,53,64,1,1,1,1 | 1,0,1.9756,1.4111,neutral,right,,,,,,stimulusFile/physical.xlsx,,,,,,,,,,,,,,,,,,,,,,,,,,,,,,,
,,,,,,,,,,,,,,,708,2022-01-28_13h57.49.738,multiplicationStroop,2021.2.3,Win32,59.99880002,,,,,right,1,1.0738,0,54,54,56,1,1,1,1 | 1,0,1.4111,1.9756,neutral,right,,,,,,stimulusFile/physical.xlsx,,,,,,,,,,,,,,,,,,,,,,,,,,,,,,,
,,,,,,,,,,,,,,,708,2022-01-28_13h57.49.738,multiplicationStroop,2021.2.3,Win32,59.99880002,,,,,left,1,0.4851,0,55,55,53,1,4,4,4 | 4,0,1.9756,1.4111,neutral,left,,,,,,stimulusFile/physical.xlsx,,,,,,,,,,,,,,,,,,,,,,,,,,,,,,,
,,,,,,,,,,,,,,,708,2022-01-28_13h57.49.738,multiplicationStroop,2021.2.3,Win32,59.99880002,,,,,left,1,0.4709,0,56,56,20,1,6,1,6 | 1,5,1.9756,1.4111,congruent,left,,,,,,stimulusFile/physical.xlsx,,,,,,,,,,,,,,,,,,,,,,,,,,,,,,,
,,,,,,,,,,,,,,,708,2022-01-28_13h57.49.738,multiplicationStroop,2021.2.3,Win32,59.99880002,,,,,right,1,0.5148,0,57,57,38,1,8,6,8 | 6,2,1.4111,1.9756,incongruent,right,,,,,,stimulusFile/physical.xlsx,,,,,,,,,,,,,,,,,,,,,,,,,,,,,,,
,,,,,,,,,,,,,,,708,2022-01-28_13h57.49.738,multiplicationStroop,2021.2.3,Win32,59.99880002,,,,,left,1,0.5315,0,58,58,13,1,4,2,4 | 2,2,1.9756,1.4111,congruent,left,,,,,,stimulusFile/physical.xlsx,,,,,,,,,,,,,,,,,,,,,,,,,,,,,,,
,,,,,,,,,,,,,,,708,2022-01-28_13h57.49.738,multiplicationStroop,2021.2.3,Win32,59.99880002,,,,,left,1,0.4836,0,59,59,5,1,4,3,4 | 3,1,1.9756,1.4111,congruent,left,,,,,,stimulusFile/physical.xlsx,,,,,,,,,,,,,,,,,,,,,,,,,,,,,,,
,,,,,,,,,,,,,,,708,2022-01-28_13h57.49.738,multiplicationStroop,2021.2.3,Win32,59.99880002,,,,,left,1,0.4476,0,60,60,25,1,3,4,3 | 4,1,1.9756,1.4111,incongruent,left,,,,,,stimulusFile/physical.xlsx,,,,,,,,,,,,,,,,,,,,,,,,,,,,,,,
,,,,,,,,,,,,,,,708,2022-01-28_13h57.49.738,multiplicationStroop,2021.2.3,Win32,59.99880002,,,,,right,1,0.5386,0,61,61,17,1,2,7,2 | 7,5,1.4111,1.9756,congruent,right,,,,,,stimulusFile/physical.xlsx,,,,,,,,,,,,,,,,,,,,,,,,,,,,,,,
,,,,,,,,,,,,,,,708,2022-01-28_13h57.49.738,multiplicationStroop,2021.2.3,Win32,59.99880002,,,,,right,1,0.4523,0,62,62,65,1,2,2,2 | 2,0,1.4111,1.9756,neutral,right,,,,,,stimulusFile/physical.xlsx,,,,,,,,,,,,,,,,,,,,,,,,,,,,,,,
,,,,,,,,,,,,,,,708,2022-01-28_13h57.49.738,multiplicationStroop,2021.2.3,Win32,59.99880002,,,,,left,1,0.9882,0,63,63,42,1,3,8,3 | 8,5,1.9756,1.4111,incongruent,left,,,,,,stimulusFile/physical.xlsx,,,,,,,,,,,,,,,,,,,,,,,,,,,,,,,
,,,,,,,,,,,,,,,708,2022-01-28_13h57.49.738,multiplicationStroop,2021.2.3,Win32,59.99880002,,,,,left,1,0.5755,0,64,64,21,1,7,2,7 | 2,5,1.9756,1.4111,congruent,left,,,,,,stimulusFile/physical.xlsx,,,,,,,,,,,,,,,,,,,,,,,,,,,,,,,
,,,,,,,,,,,,,,,708,2022-01-28_13h57.49.738,multiplicationStroop,2021.2.3,Win32,59.99880002,,,,,left,1,0.4684,0,65,65,26,1,6,7,6 | 7,1,1.9756,1.4111,incongruent,left,,,,,,stimulusFile/physical.xlsx,,,,,,,,,,,,,,,,,,,,,,,,,,,,,,,
,,,,,,,,,,,,,,,708,2022-01-28_13h57.49.738,multiplicationStroop,2021.2.3,Win32,59.99880002,,,,,right,1,0.5826,0,66,66,0,1,1,2,1 | 2,1,1.4111,1.9756,congruent,right,,,,,,stimulusFile/physical.xlsx,,,,,,,,,,,,,,,,,,,,,,,,,,,,,,,
,,,,,,,,,,,,,,,708,2022-01-28_13h57.49.738,multiplicationStroop,2021.2.3,Win32,59.99880002,,,,,right,1,0.5312,0,67,67,11,1,7,9,7 | 9,2,1.4111,1.9756,congruent,right,,,,,,stimulusFile/physical.xlsx,,,,,,,,,,,,,,,,,,,,,,,,,,,,,,,
,,,,,,,,,,,,,,,708,2022-01-28_13h57.49.738,multiplicationStroop,2021.2.3,Win32,59.99880002,,,,,right,1,0.5092,0,68,68,44,1,6,1,6 | 1,5,1.4111,1.9756,incongruent,right,,,,,,stimulusFile/physical.xlsx,,,,,,,,,,,,,,,,,,,,,,,,,,,,,,,
,,,,,,,,,,,,,,,708,2022-01-28_13h57.49.738,multiplicationStroop,2021.2.3,Win32,59.99880002,,,,,left,1,0.6566,0,69,69,52,1,2,2,2 | 2,0,1.9756,1.4111,neutral,left,,,,,,stimulusFile/physical.xlsx,,,,,,,,,,,,,,,,,,,,,,,,,,,,,,,
,,,,,,,,,,,,,,,708,2022-01-28_13h57.49.738,multiplicationStroop,2021.2.3,Win32,59.99880002,,,,,left,1,0.6588,0,70,70,55,1,9,9,9 | 9,0,1.9756,1.4111,neutral,left,,,,,,stimulusFile/physical.xlsx,,,,,,,,,,,,,,,,,,,,,,,,,,,,,,,
,,,,,,,,,,,,,,,708,2022-01-28_13h57.49.738,multiplicationStroop,2021.2.3,Win32,59.99880002,,,,,right,1,0.5345,0,71,71,62,1,8,8,8 | 8,0,1.4111,1.9756,neutral,right,,,,,,stimulusFile/physical.xlsx,,,,,,,,,,,,,,,,,,,,,,,,,,,,,,,
,,,,,,,,,,,,,,,708,2022-01-28_13h57.49.738,multiplicationStroop,2021.2.3,Win32,59.99880002,,,,,,,,,,,,,,,,,,,,,0,1,1,1,1,stimulusFile/physical.xlsx,PHYSICALLY larger (larger font size).,images/physicallyLarger.png,,,,,,,,,,,,,,,,,,,,,,,,,,,,,
,,,,,,,,,,,,,,,708,2022-01-28_13h57.49.738,multiplicationStroop,2021.2.3,Win32,59.99880002,,,,,,,,,,,,,,,,,,,,,,,,,,,,,space,10.1377,space,2.0371,36,4.0066,1,0,0,0,14,1,9,×,4,9 × 4,congruent,largerFirst,2,1,36,,,,,,,,
,,,,,,,,,,,,,,,708,2022-01-28_13h57.49.738,multiplicationStroop,2021.2.3,Win32,59.99880002,,,,,,,,,,,,,,,,,,,,,,,,,,,,,,,,,63,2.739,1,0,1,1,7,1,7,×,9,7 × 9,congruent,smallerFirst,1,2,63,,,,,,,,
,,,,,,,,,,,,,,,708,2022-01-28_13h57.49.738,multiplicationStroop,2021.2.3,Win32,59.99880002,,,,,,,,,,,,,,,,,,,,,,,,,,,,,,,,,48,2.9329,1,0,2,2,4,1,6,×,8,6 × 8,congruent,smallerFirst,1,2,48,,,,,,,,
,,,,,,,,,,,,,,,708,2022-01-28_13h57.49.738,multiplicationStroop,2021.2.3,Win32,59.99880002,,,,,,,,,,,,,,,,,,,,,,,,,,,,,,,,,20,1.8998,1,0,3,3,21,1,5,×,4,5 × 4,congruent,largerFirst,2,1,20,,,,,,,,
,,,,,,,,,,,,,,,708,2022-01-28_13h57.49.738,multiplicationStroop,2021.2.3,Win32,59.99880002,,,,,,,,,,,,,,,,,,,,,,,,,,,,,,,,,24,1.9833,1,0,4,4,11,1,4,×,6,4 × 6,congruent,smallerFirst,1,2,24,,,,,,,,
,,,,,,,,,,,,,,,708,2022-01-28_13h57.49.738,multiplicationStroop,2021.2.3,Win32,59.99880002,,,,,,,,,,,,,,,,,,,,,,,,,,,,,,,,,45,1.7996,1,0,5,5,9,1,5,×,9,5 × 9,congruent,smallerFirst,1,2,45,,,,,,,,
,,,,,,,,,,,,,,,708,2022-01-28_13h57.49.738,multiplicationStroop,2021.2.3,Win32,59.99880002,,,,,,,,,,,,,,,,,,,,,,,,,,,,,,,,,6,1.5854,1,0,6,6,27,1,3,×,2,3 × 2,congruent,largerFirst,2,1,6,,,,,,,,
,,,,,,,,,,,,,,,708,2022-01-28_13h57.49.738,multiplicationStroop,2021.2.3,Win32,59.99880002,,,,,,,,,,,,,,,,,,,,,,,,,,,,,,,,,18,2.0977,1,0,7,7,8,1,2,×,9,2 × 9,congruent,smallerFirst,1,2,18,,,,,,,,
,,,,,,,,,,,,,,,708,2022-01-28_13h57.49.738,multiplicationStroop,2021.2.3,Win32,59.99880002,,,,,,,,,,,,,,,,,,,,,,,,,,,,,,,,,9,1.7829,1,0,8,8,29,1,3,×,3,3 × 3,neutral,tie,1,2,9,,,,,,,,
,,,,,,,,,,,,,,,708,2022-01-28_13h57.49.738,multiplicationStroop,2021.2.3,Win32,59.99880002,,,,,,,,,,,,,,,,,,,,,,,,,,,,,,,,,54,2.0163,1,0,9,9,26,1,9,×,6,9 × 6,congruent,largerFirst,2,1,54,,,,,,,,
,,,,,,,,,,,,,,,708,2022-01-28_13h57.49.738,multiplicationStroop,2021.2.3,Win32,59.99880002,,,,,,,,,,,,,,,,,,,,,,,,,,,,,,,,,16,1.9162,1,0,10,10,19,1,8,×,2,8 × 2,congruent,largerFirst,2,1,16,,,,,,,,
,,,,,,,,,,,,,,,708,2022-01-28_13h57.49.738,multiplicationStroop,2021.2.3,Win32,59.99880002,,,,,,,,,,,,,,,,,,,,,,,,,,,,,,,,,10,1.9495,1,0,11,11,10,1,2,×,5,2 × 5,congruent,smallerFirst,1,2,10,,,,,,,,
,,,,,,,,,,,,,,,708,2022-01-28_13h57.49.738,multiplicationStroop,2021.2.3,Win32,59.99880002,,,,,,,,,,,,,,,,,,,,,,,,,,,,,,,,,81,2.1999,1,0,12,12,35,1,9,×,9,9 × 9,neutral,tie,1,2,81,,,,,,,,
,,,,,,,,,,,,,,,708,2022-01-28_13h57.49.738,multiplicationStroop,2021.2.3,Win32,59.99880002,,,,,,,,,,,,,,,,,,,,,,,,,,,,,,,,,14,1.6497,1,0,13,13,0,1,2,×,7,2 × 7,congruent,smallerFirst,1,2,14,,,,,,,,
,,,,,,,,,,,,,,,708,2022-01-28_13h57.49.738,multiplicationStroop,2021.2.3,Win32,59.99880002,,,,,,,,,,,,,,,,,,,,,,,,,,,,,,,,,42,2.1008,1,0,14,14,17,1,7,×,6,7 × 6,congruent,largerFirst,2,1,42,,,,,,,,
,,,,,,,,,,,,,,,708,2022-01-28_13h57.49.738,multiplicationStroop,2021.2.3,Win32,59.99880002,,,,,,,,,,,,,,,,,,,,,,,,,,,,,,,,,16,1.865,1,0,15,15,30,1,4,×,4,4 × 4,neutral,tie,1,2,16,,,,,,,,
,,,,,,,,,,,,,,,708,2022-01-28_13h57.49.738,multiplicationStroop,2021.2.3,Win32,59.99880002,,,,,,,,,,,,,,,,,,,,,,,,,,,,,,,,,8,1.8164,1,0,16,16,23,1,4,×,2,4 × 2,congruent,largerFirst,2,1,8,,,,,,,,
,,,,,,,,,,,,,,,708,2022-01-28_13h57.49.738,multiplicationStroop,2021.2.3,Win32,59.99880002,,,,,,,,,,,,,,,,,,,,,,,,,,,,,,,,,28,4.3502,1,0,17,17,13,1,4,×,7,4 × 7,congruent,smallerFirst,1,2,28,,,,,,,,
,,,,,,,,,,,,,,,708,2022-01-28_13h57.49.738,multiplicationStroop,2021.2.3,Win32,59.99880002,,,,,,,,,,,,,,,,,,,,,,,,,,,,,,,,,40,1.955,1,0,18,18,20,1,8,×,5,8 × 5,congruent,largerFirst,2,1,40,,,,,,,,
,,,,,,,,,,,,,,,708,2022-01-28_13h57.49.738,multiplicationStroop,2021.2.3,Win32,59.99880002,,,,,,,,,,,,,,,,,,,,,,,,,,,,,,,,,18,1.7666,1,0,19,19,25,1,6,×,3,6 × 3,congruent,largerFirst,2,1,18,,,,,,,,
,,,,,,,,,,,,,,,708,2022-01-28_13h57.49.738,multiplicationStroop,2021.2.3,Win32,59.99880002,,,,,,,,,,,,,,,,,,,,,,,,,,,,,,,,,15,1.4662,1,0,20,20,18,1,5,×,3,5 × 3,congruent,largerFirst,2,1,15,,,,,,,,
,,,,,,,,,,,,,,,708,2022-01-28_13h57.49.738,multiplicationStroop,2021.2.3,Win32,59.99880002,,,,,,,,,,,,,,,,,,,,,,,,,,,,,,,,,21,1.4163,1,0,21,21,2,1,3,×,7,3 × 7,congruent,smallerFirst,1,2,21,,,,,,,,
,,,,,,,,,,,,,,,708,2022-01-28_13h57.49.738,multiplicationStroop,2021.2.3,Win32,59.99880002,,,,,,,,,,,,,,,,,,,,,,,,,,,,,,,,,72,2.5,1,0,22,22,3,1,8,×,9,8 × 9,congruent,smallerFirst,1,2,72,,,,,,,,
,,,,,,,,,,,,,,,708,2022-01-28_13h57.49.738,multiplicationStroop,2021.2.3,Win32,59.99880002,,,,,,,,,,,,,,,,,,,,,,,,,,,,,,,,,27,2.2665,1,0,23,23,12,1,3,×,9,3 × 9,congruent,smallerFirst,1,2,27,,,,,,,,
,,,,,,,,,,,,,,,708,2022-01-28_13h57.49.738,multiplicationStroop,2021.2.3,Win32,59.99880002,,,,,,,,,,,,,,,,,,,,,,,,,,,,,,,,,30,2.1242,1,0,24,24,1,1,5,×,6,5 × 6,congruent,smallerFirst,1,2,30,,,,,,,,
,,,,,,,,,,,,,,,708,2022-01-28_13h57.49.738,multiplicationStroop,2021.2.3,Win32,59.99880002,,,,,,,,,,,,,,,,,,,,,,,,,,,,,,,,,24,1.9332,1,0,25,25,24,1,8,×,3,8 × 3,congruent,largerFirst,2,1,24,,,,,,,,
,,,,,,,,,,,,,,,708,2022-01-28_13h57.49.738,multiplicationStroop,2021.2.3,Win32,59.99880002,,,,,,,,,,,,,,,,,,,,,,,,,,,,,,,,,35,1.6161,1,0,26,26,15,1,7,×,5,7 × 5,congruent,largerFirst,2,1,35,,,,,,,,
,,,,,,,,,,,,,,,708,2022-01-28_13h57.49.738,multiplicationStroop,2021.2.3,Win32,59.99880002,,,,,,,,,,,,,,,,,,,,,,,,,,,,,,,,,25,1.5,1,0,27,27,31,1,5,×,5,5 × 5,neutral,tie,1,2,25,,,,,,,,
,,,,,,,,,,,,,,,708,2022-01-28_13h57.49.738,multiplicationStroop,2021.2.3,Win32,59.99880002,,,,,,,,,,,,,,,,,,,,,,,,,,,,,,,,,49,2.0997,1,0,28,28,33,1,7,×,7,7 × 7,neutral,tie,1,2,49,,,,,,,,
,,,,,,,,,,,,,,,708,2022-01-28_13h57.49.738,multiplicationStroop,2021.2.3,Win32,59.99880002,,,,,,,,,,,,,,,,,,,,,,,,,,,,,,,,,36,1.9493,1,0,29,29,32,1,6,×,6,6 × 6,neutral,tie,1,2,36,,,,,,,,
,,,,,,,,,,,,,,,708,2022-01-28_13h57.49.738,multiplicationStroop,2021.2.3,Win32,59.99880002,,,,,,,,,,,,,,,,,,,,,,,,,,,,,,,,,64,2.1832,1,0,30,30,34,1,8,×,8,8 × 8,neutral,tie,1,2,64,,,,,,,,
,,,,,,,,,,,,,,,708,2022-01-28_13h57.49.738,multiplicationStroop,2021.2.3,Win32,59.99880002,,,,,,,,,,,,,,,,,,,,,,,,,,,,,,,,,4,2.9168,1,0,31,31,28,1,2,×,2,2 × 2,neutral,tie,1,2,4,,,,,,,,
,,,,,,,,,,,,,,,708,2022-01-28_13h57.49.738,multiplicationStroop,2021.2.3,Win32,59.99880002,,,,,,,,,,,,,,,,,,,,,,,,,,,,,,,,,12,1.5573,1,0,32,32,16,1,4,×,3,4 × 3,congruent,largerFirst,2,1,12,,,,,,,,
,,,,,,,,,,,,,,,708,2022-01-28_13h57.49.738,multiplicationStroop,2021.2.3,Win32,59.99880002,,,,,,,,,,,,,,,,,,,,,,,,,,,,,,,,,12,1.8329,1,0,33,33,5,1,2,×,6,2 × 6,congruent,smallerFirst,1,2,12,,,,,,,,
,,,,,,,,,,,,,,,708,2022-01-28_13h57.49.738,multiplicationStroop,2021.2.3,Win32,59.99880002,,,,,,,,,,,,,,,,,,,,,,,,,,,,,,,,,32,3.3518,1,0,34,34,6,1,4,×,8,4 × 8,congruent,smallerFirst,1,2,32,,,,,,,,
,,,,,,,,,,,,,,,708,2022-01-28_13h57.49.738,multiplicationStroop,2021.2.3,Win32,59.99880002,,,,,,,,,,,,,,,,,,,,,,,,,,,,,,,,,56,2.3509,1,0,35,35,22,1,8,×,7,8 × 7,congruent,largerFirst,2,1,56,,,,,,,,
,,,,,,,,,,,,,,,708,2022-01-28_13h57.49.738,multiplicationStroop,2021.2.3,Win32,59.99880002,,,,,,,,,,,,,,,,,,,,,,,,,,,,,,,,,,,,,,,,,,,,,,,,,,0,0,0,3,1,stimulusFile/mult_blk4_congruent.xlsx,,
,,,,,,,,,,,,,,,708,2022-01-28_13h57.49.738,multiplicationStroop,2021.2.3,Win32,59.99880002,,,,,,,,,,,,,,,,,,,,,,,,,,,,,,,space,3.3451,8,1.9533,1,0,0,0,10,1,2,×,4,2 × 4,incongruent,smallerFirst,2,1,8,,,,,,,,
,,,,,,,,,,,,,,,708,2022-01-28_13h57.49.738,multiplicationStroop,2021.2.3,Win32,59.99880002,,,,,,,,,,,,,,,,,,,,,,,,,,,,,,,,,25,1.6689,1,0,1,1,31,1,5,×,5,5 × 5,neutral,tie,2,1,25,,,,,,,,
,,,,,,,,,,,,,,,708,2022-01-28_13h57.49.738,multiplicationStroop,2021.2.3,Win32,59.99880002,,,,,,,,,,,,,,,,,,,,,,,,,,,,,,,,,4,1.5804,1,0,2,2,28,1,2,×,2,2 × 2,neutral,tie,2,1,4,,,,,,,,
,,,,,,,,,,,,,,,708,2022-01-28_13h57.49.738,multiplicationStroop,2021.2.3,Win32,59.99880002,,,,,,,,,,,,,,,,,,,,,,,,,,,,,,,,,24,1.434,1,0,3,3,23,1,8,×,3,8 × 3,incongruent,largerFirst,1,2,24,,,,,,,,
,,,,,,,,,,,,,,,708,2022-01-28_13h57.49.738,multiplicationStroop,2021.2.3,Win32,59.99880002,,,,,,,,,,,,,,,,,,,,,,,,,,,,,,,,,24,1.3815,1,0,4,4,6,1,4,×,6,4 × 6,incongruent,smallerFirst,2,1,24,,,,,,,,
,,,,,,,,,,,,,,,708,2022-01-28_13h57.49.738,multiplicationStroop,2021.2.3,Win32,59.99880002,,,,,,,,,,,,,,,,,,,,,,,,,,,,,,,,,6,1.5832,1,0,5,5,25,1,3,×,2,3 × 2,incongruent,largerFirst,1,2,6,,,,,,,,
,,,,,,,,,,,,,,,708,2022-01-28_13h57.49.738,multiplicationStroop,2021.2.3,Win32,59.99880002,,,,,,,,,,,,,,,,,,,,,,,,,,,,,,,,,72,2.1652,1,0,6,6,14,1,9,×,8,9 × 8,incongruent,largerFirst,1,2,72,,,,,,,,
,,,,,,,,,,,,,,,708,2022-01-28_13h57.49.738,multiplicationStroop,2021.2.3,Win32,59.99880002,,,,,,,,,,,,,,,,,,,,,,,,,,,,,,,,,36,2.3002,1,0,7,7,32,1,6,×,6,6 × 6,neutral,tie,2,1,36,,,,,,,,
,,,,,,,,,,,,,,,708,2022-01-28_13h57.49.738,multiplicationStroop,2021.2.3,Win32,59.99880002,,,,,,,,,,,,,,,,,,,,,,,,,,,,,,,,,12,2.5161,1,0,8,8,5,1,2,×,6,2 × 6,incongruent,smallerFirst,2,1,12,,,,,,,,
,,,,,,,,,,,,,,,708,2022-01-28_13h57.49.738,multiplicationStroop,2021.2.3,Win32,59.99880002,,,,,,,,,,,,,,,,,,,,,,,,,,,,,,,,,63,3.3166,1,0,9,9,17,1,9,×,7,9 × 7,incongruent,largerFirst,1,2,63,,,,,,,,
,,,,,,,,,,,,,,,708,2022-01-28_13h57.49.738,multiplicationStroop,2021.2.3,Win32,59.99880002,,,,,,,,,,,,,,,,,,,,,,,,,,,,,,,,,30,1.7411,1,0,10,10,11,1,5,×,6,5 × 6,incongruent,smallerFirst,2,1,30,,,,,,,,
,,,,,,,,,,,,,,,708,2022-01-28_13h57.49.738,multiplicationStroop,2021.2.3,Win32,59.99880002,,,,,,,,,,,,,,,,,,,,,,,,,,,,,,,,,32,1.966,1,0,11,11,21,1,8,×,4,8 × 4,incongruent,largerFirst,1,2,32,,,,,,,,
,,,,,,,,,,,,,,,708,2022-01-28_13h57.49.738,multiplicationStroop,2021.2.3,Win32,59.99880002,,,,,,,,,,,,,,,,,,,,,,,,,,,,,,,,,54,2.0498,1,0,12,12,20,1,9,×,6,9 × 6,incongruent,largerFirst,1,2,54,,,,,,,,
,,,,,,,,,,,,,,,708,2022-01-28_13h57.49.738,multiplicationStroop,2021.2.3,Win32,59.99880002,,,,,,,,,,,,,,,,,,,,,,,,,,,,,,,,,18,2.0496,1,0,13,13,16,1,9,×,2,9 × 2,incongruent,largerFirst,1,2,18,,,,,,,,
,,,,,,,,,,,,,,,708,2022-01-28_13h57.49.738,multiplicationStroop,2021.2.3,Win32,59.99880002,,,,,,,,,,,,,,,,,,,,,,,,,,,,,,,,,16,1.9332,1,0,14,14,9,1,2,×,8,2 × 8,incongruent,smallerFirst,2,1,16,,,,,,,,
,,,,,,,,,,,,,,,708,2022-01-28_13h57.49.738,multiplicationStroop,2021.2.3,Win32,59.99880002,,,,,,,,,,,,,,,,,,,,,,,,,,,,,,,,,16,1.7454,1,0,15,15,30,1,4,×,4,4 × 4,neutral,tie,2,1,16,,,,,,,,
,,,,,,,,,,,,,,,708,2022-01-28_13h57.49.738,multiplicationStroop,2021.2.3,Win32,59.99880002,,,,,,,,,,,,,,,,,,,,,,,,,,,,,,,,,9,1.6999,1,0,16,16,29,1,3,×,3,3 × 3,neutral,tie,2,1,9,,,,,,,,
,,,,,,,,,,,,,,,708,2022-01-28_13h57.49.738,multiplicationStroop,2021.2.3,Win32,59.99880002,,,,,,,,,,,,,,,,,,,,,,,,,,,,,,,,,81,1.8328,1,0,17,17,35,1,9,×,9,9 × 9,neutral,tie,2,1,81,,,,,,,,
,,,,,,,,,,,,,,,708,2022-01-28_13h57.49.738,multiplicationStroop,2021.2.3,Win32,59.99880002,,,,,,,,,,,,,,,,,,,,,,,,,,,,,,,,,35,1.6001,1,0,18,18,26,1,7,×,5,7 × 5,incongruent,largerFirst,1,2,35,,,,,,,,
,,,,,,,,,,,,,,,708,2022-01-28_13h57.49.738,multiplicationStroop,2021.2.3,Win32,59.99880002,,,,,,,,,,,,,,,,,,,,,,,,,,,,,,,,,15,1.7828,1,0,19,19,24,1,5,×,3,5 × 3,incongruent,largerFirst,1,2,15,,,,,,,,
,,,,,,,,,,,,,,,708,2022-01-28_13h57.49.738,multiplicationStroop,2021.2.3,Win32,59.99880002,,,,,,,,,,,,,,,,,,,,,,,,,,,,,,,,,20,2.2656,1,0,20,20,13,1,4,×,5,4 × 5,incongruent,smallerFirst,2,1,20,,,,,,,,
,,,,,,,,,,,,,,,708,2022-01-28_13h57.49.738,multiplicationStroop,2021.2.3,Win32,59.99880002,,,,,,,,,,,,,,,,,,,,,,,,,,,,,,,,,27,2.4834,1,0,21,21,4,1,3,×,9,3 × 9,incongruent,smallerFirst,2,1,27,,,,,,,,
,,,,,,,,,,,,,,,708,2022-01-28_13h57.49.738,multiplicationStroop,2021.2.3,Win32,59.99880002,,,,,,,,,,,,,,,,,,,,,,,,,,,,,,,,,28,1.9074,1,0,22,22,2,1,4,×,7,4 × 7,incongruent,smallerFirst,2,1,28,,,,,,,,
,,,,,,,,,,,,,,,708,2022-01-28_13h57.49.738,multiplicationStroop,2021.2.3,Win32,59.99880002,,,,,,,,,,,,,,,,,,,,,,,,,,,,,,,,,10,2.0671,1,0,23,23,7,1,2,×,5,2 × 5,incongruent,smallerFirst,2,1,10,,,,,,,,
,,,,,,,,,,,,,,,708,2022-01-28_13h57.49.738,multiplicationStroop,2021.2.3,Win32,59.99880002,,,,,,,,,,,,,,,,,,,,,,,,,,,,,,,,,12,1.2901,1,0,24,24,19,1,4,×,3,4 × 3,incongruent,largerFirst,1,2,12,,,,,,,,
,,,,,,,,,,,,,,,708,2022-01-28_13h57.49.738,multiplicationStroop,2021.2.3,Win32,59.99880002,,,,,,,,,,,,,,,,,,,,,,,,,,,,,,,,,48,2.4998,1,0,25,25,15,1,8,×,6,8 × 6,incongruent,largerFirst,1,2,48,,,,,,,,
,,,,,,,,,,,,,,,708,2022-01-28_13h57.49.738,multiplicationStroop,2021.2.3,Win32,59.99880002,,,,,,,,,,,,,,,,,,,,,,,,,,,,,,,,,42,1.6828,1,0,26,26,3,1,6,×,7,6 × 7,incongruent,smallerFirst,2,1,42,,,,,,,,
,,,,,,,,,,,,,,,708,2022-01-28_13h57.49.738,multiplicationStroop,2021.2.3,Win32,59.99880002,,,,,,,,,,,,,,,,,,,,,,,,,,,,,,,,,18,2.1495,1,0,27,27,22,1,6,×,3,6 × 3,incongruent,largerFirst,1,2,18,,,,,,,,
,,,,,,,,,,,,,,,708,2022-01-28_13h57.49.738,multiplicationStroop,2021.2.3,Win32,59.99880002,,,,,,,,,,,,,,,,,,,,,,,,,,,,,,,,,14,1.5499,1,0,28,28,18,1,7,×,2,7 × 2,incongruent,largerFirst,1,2,14,,,,,,,,
,,,,,,,,,,,,,,,708,2022-01-28_13h57.49.738,multiplicationStroop,2021.2.3,Win32,59.99880002,,,,,,,,,,,,,,,,,,,,,,,,,,,,,,,,,21,1.3996,1,0,29,29,12,1,3,×,7,3 × 7,incongruent,smallerFirst,2,1,21,,,,,,,,
,,,,,,,,,,,,,,,708,2022-01-28_13h57.49.738,multiplicationStroop,2021.2.3,Win32,59.99880002,,,,,,,,,,,,,,,,,,,,,,,,,,,,,,,,,45,1.7332,1,0,30,30,8,1,5,×,9,5 × 9,incongruent,smallerFirst,2,1,45,,,,,,,,
,,,,,,,,,,,,,,,708,2022-01-28_13h57.49.738,multiplicationStroop,2021.2.3,Win32,59.99880002,,,,,,,,,,,,,,,,,,,,,,,,,,,,,,,,,36,2.5667,1,0,31,31,1,1,4,×,9,4 × 9,incongruent,smallerFirst,2,1,36,,,,,,,,
,,,,,,,,,,,,,,,708,2022-01-28_13h57.49.738,multiplicationStroop,2021.2.3,Win32,59.99880002,,,,,,,,,,,,,,,,,,,,,,,,,,,,,,,,,56,1.9485,1,0,32,32,0,1,7,×,8,7 × 8,incongruent,smallerFirst,2,1,56,,,,,,,,
,,,,,,,,,,,,,,,708,2022-01-28_13h57.49.738,multiplicationStroop,2021.2.3,Win32,59.99880002,,,,,,,,,,,,,,,,,,,,,,,,,,,,,,,,,64,2.2663,1,0,33,33,34,1,8,×,8,8 × 8,neutral,tie,2,1,64,,,,,,,,
,,,,,,,,,,,,,,,708,2022-01-28_13h57.49.738,multiplicationStroop,2021.2.3,Win32,59.99880002,,,,,,,,,,,,,,,,,,,,,,,,,,,,,,,,,49,1.9662,1,0,34,34,33,1,7,×,7,7 × 7,neutral,tie,2,1,49,,,,,,,,
,,,,,,,,,,,,,,,708,2022-01-28_13h57.49.738,multiplicationStroop,2021.2.3,Win32,59.99880002,,,,,,,,,,,,,,,,,,,,,,,,,,,,,,,,,40,2.0162,1,0,35,35,27,1,8,×,5,8 × 5,incongruent,largerFirst,1,2,40,,,,,,,,
,,,,,,,,,,,,,,,708,2022-01-28_13h57.49.738,multiplicationStroop,2021.2.3,Win32,59.99880002,,,,,,,,,,,,,,,,,,,,,,,,,,,,,,,,,,,,,,,,,,,,,,,,,,0,1,1,4,1,stimulusFile/mult_blk5_INcongruent.xlsx,,
,,,,,,,,,,,,,,,708,2022-01-28_13h57.49.738,multiplicationStroop,2021.2.3,Win32,59.99880002,,,,,,,,,,,,,,,,,,,,,,,,,,,,,,,space,50.5594,25,2.1132,1,0,0,0,31,1,5,×,5,5 × 5,neutral,tie,1.5,1.5,25,,,,,,,,
,,,,,,,,,,,,,,,708,2022-01-28_13h57.49.738,multiplicationStroop,2021.2.3,Win32,59.99880002,,,,,,,,,,,,,,,,,,,,,,,,,,,,,,,,,63,2.3464,1,0,1,1,26,1,9,×,7,9 × 7,neutral,largerFirst,1.5,1.5,63,,,,,,,,
,,,,,,,,,,,,,,,708,2022-01-28_13h57.49.738,multiplicationStroop,2021.2.3,Win32,59.99880002,,,,,,,,,,,,,,,,,,,,,,,,,,,,,,,,,49,1.6991,1,0,2,2,33,1,7,×,7,7 × 7,neutral,tie,1.5,1.5,49,,,,,,,,
,,,,,,,,,,,,,,,708,2022-01-28_13h57.49.738,multiplicationStroop,2021.2.3,Win32,59.99880002,,,,,,,,,,,,,,,,,,,,,,,,,,,,,,,,,24,2.3186,1,0,3,3,16,1,6,×,4,6 × 4,neutral,largerFirst,1.5,1.5,24,,,,,,,,
,,,,,,,,,,,,,,,708,2022-01-28_13h57.49.738,multiplicationStroop,2021.2.3,Win32,59.99880002,,,,,,,,,,,,,,,,,,,,,,,,,,,,,,,,,21,1.4641,1,0,4,4,22,1,7,×,3,7 × 3,neutral,largerFirst,1.5,1.5,21,,,,,,,,
,,,,,,,,,,,,,,,708,2022-01-28_13h57.49.738,multiplicationStroop,2021.2.3,Win32,59.99880002,,,,,,,,,,,,,,,,,,,,,,,,,,,,,,,,,15,1.4162,1,0,5,5,19,1,5,×,3,5 × 3,neutral,largerFirst,1.5,1.5,15,,,,,,,,
,,,,,,,,,,,,,,,708,2022-01-28_13h57.49.738,multiplicationStroop,2021.2.3,Win32,59.99880002,,,,,,,,,,,,,,,,,,,,,,,,,,,,,,,,,4,2.2993,1,0,6,6,28,1,2,×,2,2 × 2,neutral,tie,1.5,1.5,4,,,,,,,,
,,,,,,,,,,,,,,,708,2022-01-28_13h57.49.738,multiplicationStroop,2021.2.3,Win32,59.99880002,,,,,,,,,,,,,,,,,,,,,,,,,,,,,,,,,9,1.6828,1,0,7,7,29,1,3,×,3,3 × 3,neutral,tie,1.5,1.5,9,,,,,,,,
,,,,,,,,,,,,,,,708,2022-01-28_13h57.49.738,multiplicationStroop,2021.2.3,Win32,59.99880002,,,,,,,,,,,,,,,,,,,,,,,,,,,,,,,,,16,1.9827,1,0,8,8,27,1,8,×,2,8 × 2,neutral,largerFirst,1.5,1.5,16,,,,,,,,
,,,,,,,,,,,,,,,708,2022-01-28_13h57.49.738,multiplicationStroop,2021.2.3,Win32,59.99880002,,,,,,,,,,,,,,,,,,,,,,,,,,,,,,,,,20,1.6362,1,0,9,9,6,1,4,×,5,4 × 5,neutral,smallerFirst,1.5,1.5,20,,,,,,,,
,,,,,,,,,,,,,,,708,2022-01-28_13h57.49.738,multiplicationStroop,2021.2.3,Win32,59.99880002,,,,,,,,,,,,,,,,,,,,,,,,,,,,,,,,,24,2.1465,1,0,10,10,8,1,3,×,8,3 × 8,neutral,smallerFirst,1.5,1.5,24,,,,,,,,
,,,,,,,,,,,,,,,708,2022-01-28_13h57.49.738,multiplicationStroop,2021.2.3,Win32,59.99880002,,,,,,,,,,,,,,,,,,,,,,,,,,,,,,,,,16,2.7016,1,0,11,11,30,1,4,×,4,4 × 4,neutral,tie,1.5,1.5,16,,,,,,,,
,,,,,,,,,,,,,,,708,2022-01-28_13h57.49.738,multiplicationStroop,2021.2.3,Win32,59.99880002,,,,,,,,,,,,,,,,,,,,,,,,,,,,,,,,,36,2.0314,1,0,12,12,32,1,6,×,6,6 × 6,neutral,tie,1.5,1.5,36,,,,,,,,
,,,,,,,,,,,,,,,708,2022-01-28_13h57.49.738,multiplicationStroop,2021.2.3,Win32,59.99880002,,,,,,,,,,,,,,,,,,,,,,,,,,,,,,,,,12,1.3997,1,0,13,13,7,1,3,×,4,3 × 4,neutral,smallerFirst,1.5,1.5,12,,,,,,,,
,,,,,,,,,,,,,,,708,2022-01-28_13h57.49.738,multiplicationStroop,2021.2.3,Win32,59.99880002,,,,,,,,,,,,,,,,,,,,,,,,,,,,,,,,,28,1.9186,1,0,14,14,3,1,4,×,7,4 × 7,neutral,smallerFirst,1.5,1.5,28,,,,,,,,
,,,,,,,,,,,,,,,708,2022-01-28_13h57.49.738,multiplicationStroop,2021.2.3,Win32,59.99880002,,,,,,,,,,,,,,,,,,,,,,,,,,,,,,,,,12,1.3644,1,0,15,15,11,1,2,×,6,2 × 6,neutral,smallerFirst,1.5,1.5,12,,,,,,,,
,,,,,,,,,,,,,,,708,2022-01-28_13h57.49.738,multiplicationStroop,2021.2.3,Win32,59.99880002,,,,,,,,,,,,,,,,,,,,,,,,,,,,,,,,,40,2.9665,1,0,16,16,10,1,5,×,8,5 × 8,neutral,smallerFirst,1.5,1.5,40,,,,,,,,
,,,,,,,,,,,,,,,708,2022-01-28_13h57.49.738,multiplicationStroop,2021.2.3,Win32,59.99880002,,,,,,,,,,,,,,,,,,,,,,,,,,,,,,,,,32,1.9995,1,0,17,17,9,1,4,×,8,4 × 8,neutral,smallerFirst,1.5,1.5,32,,,,,,,,
,,,,,,,,,,,,,,,708,2022-01-28_13h57.49.738,multiplicationStroop,2021.2.3,Win32,59.99880002,,,,,,,,,,,,,,,,,,,,,,,,,,,,,,,,,45,1.8999,1,0,18,18,24,1,9,×,5,9 × 5,neutral,largerFirst,1.5,1.5,45,,,,,,,,
,,,,,,,,,,,,,,,708,2022-01-28_13h57.49.738,multiplicationStroop,2021.2.3,Win32,59.99880002,,,,,,,,,,,,,,,,,,,,,,,,,,,,,,,,,35,1.5825,1,0,19,19,15,1,7,×,5,7 × 5,neutral,largerFirst,1.5,1.5,35,,,,,,,,
,,,,,,,,,,,,,,,708,2022-01-28_13h57.49.738,multiplicationStroop,2021.2.3,Win32,59.99880002,,,,,,,,,,,,,,,,,,,,,,,,,,,,,,,,,54,2.2,1,0,20,20,21,1,9,×,6,9 × 6,neutral,largerFirst,1.5,1.5,54,,,,,,,,
,,,,,,,,,,,,,,,708,2022-01-28_13h57.49.738,multiplicationStroop,2021.2.3,Win32,59.99880002,,,,,,,,,,,,,,,,,,,,,,,,,,,,,,,,,56,1.8189,1,0,21,21,23,1,8,×,7,8 × 7,neutral,largerFirst,1.5,1.5,56,,,,,,,,
,,,,,,,,,,,,,,,708,2022-01-28_13h57.49.738,multiplicationStroop,2021.2.3,Win32,59.99880002,,,,,,,,,,,,,,,,,,,,,,,,,,,,,,,,,42,2.0141,1,0,22,22,20,1,7,×,6,7 × 6,neutral,largerFirst,1.5,1.5,42,,,,,,,,
,,,,,,,,,,,,,,,708,2022-01-28_13h57.49.738,multiplicationStroop,2021.2.3,Win32,59.99880002,,,,,,,,,,,,,,,,,,,,,,,,,,,,,,,,,18,1.783,1,0,23,23,14,1,6,×,3,6 × 3,neutral,largerFirst,1.5,1.5,18,,,,,,,,
,,,,,,,,,,,,,,,708,2022-01-28_13h57.49.738,multiplicationStroop,2021.2.3,Win32,59.99880002,,,,,,,,,,,,,,,,,,,,,,,,,,,,,,,,,18,1.9497,1,0,24,24,4,1,2,×,9,2 × 9,neutral,smallerFirst,1.5,1.5,18,,,,,,,,
,,,,,,,,,,,,,,,708,2022-01-28_13h57.49.738,multiplicationStroop,2021.2.3,Win32,59.99880002,,,,,,,,,,,,,,,,,,,,,,,,,,,,,,,,,6,1.7495,1,0,25,25,12,1,2,×,3,2 × 3,neutral,smallerFirst,1.5,1.5,6,,,,,,,,
,,,,,,,,,,,,,,,708,2022-01-28_13h57.49.738,multiplicationStroop,2021.2.3,Win32,59.99880002,,,,,,,,,,,,,,,,,,,,,,,,,,,,,,,,,81,1.8664,1,0,26,26,35,1,9,×,9,9 × 9,neutral,tie,1.5,1.5,81,,,,,,,,
,,,,,,,,,,,,,,,708,2022-01-28_13h57.49.738,multiplicationStroop,2021.2.3,Win32,59.99880002,,,,,,,,,,,,,,,,,,,,,,,,,,,,,,,,,8,1.8167,1,0,27,27,17,1,4,×,2,4 × 2,neutral,largerFirst,1.5,1.5,8,,,,,,,,
,,,,,,,,,,,,,,,708,2022-01-28_13h57.49.738,multiplicationStroop,2021.2.3,Win32,59.99880002,,,,,,,,,,,,,,,,,,,,,,,,,,,,,,,,,27,1.7664,1,0,28,28,0,1,3,×,9,3 × 9,neutral,smallerFirst,1.5,1.5,27,,,,,,,,
,,,,,,,,,,,,,,,708,2022-01-28_13h57.49.738,multiplicationStroop,2021.2.3,Win32,59.99880002,,,,,,,,,,,,,,,,,,,,,,,,,,,,,,,,,64,2.4661,1,0,29,29,34,1,8,×,8,8 × 8,neutral,tie,1.5,1.5,64,,,,,,,,
,,,,,,,,,,,,,,,708,2022-01-28_13h57.49.738,multiplicationStroop,2021.2.3,Win32,59.99880002,,,,,,,,,,,,,,,,,,,,,,,,,,,,,,,,,30,1.9875,1,0,30,30,5,1,5,×,6,5 × 6,neutral,smallerFirst,1.5,1.5,30,,,,,,,,
,,,,,,,,,,,,,,,708,2022-01-28_13h57.49.738,multiplicationStroop,2021.2.3,Win32,59.99880002,,,,,,,,,,,,,,,,,,,,,,,,,,,,,,,,,10,1.5831,1,0,31,31,18,1,5,×,2,5 × 2,neutral,largerFirst,1.5,1.5,10,,,,,,,,
,,,,,,,,,,,,,,,708,2022-01-28_13h57.49.738,multiplicationStroop,2021.2.3,Win32,59.99880002,,,,,,,,,,,,,,,,,,,,,,,,,,,,,,,,,36,2.133,1,0,32,32,13,1,4,×,9,4 × 9,neutral,smallerFirst,1.5,1.5,36,,,,,,,,
,,,,,,,,,,,,,,,708,2022-01-28_13h57.49.738,multiplicationStroop,2021.2.3,Win32,59.99880002,,,,,,,,,,,,,,,,,,,,,,,,,,,,,,,,,72,2.2412,1,0,33,33,25,1,9,×,8,9 × 8,neutral,largerFirst,1.5,1.5,72,,,,,,,,
,,,,,,,,,,,,,,,708,2022-01-28_13h57.49.738,multiplicationStroop,2021.2.3,Win32,59.99880002,,,,,,,,,,,,,,,,,,,,,,,,,,,,,,,,,14,1.6327,1,0,34,34,2,1,2,×,7,2 × 7,neutral,smallerFirst,1.5,1.5,14,,,,,,,,
,,,,,,,,,,,,,,,708,2022-01-28_13h57.49.738,multiplicationStroop,2021.2.3,Win32,59.99880002,,,,,,,,,,,,,,,,,,,,,,,,,,,,,,,,,48,1.8668,1,0,35,35,1,1,6,×,8,6 × 8,neutral,smallerFirst,1.5,1.5,48,,,,,,,,
,,,,,,,,,,,,,,,708,2022-01-28_13h57.49.738,multiplicationStroop,2021.2.3,Win32,59.99880002,,,,,,,,,,,,,,,,,,,,,,,,,,,,,,,,,,,,,,,,,,,,,,,,,,0,2,2,0,1,stimulusFile/mult_blk1.xlsx,,
,,,,,,,,,,,,,,,708,2022-01-28_13h57.49.738,multiplicationStroop,2021.2.3,Win32,59.99880002,,,,,,,,,,,,,,,,,,,,,,,,,,,,,,,space,244.3436,25,2.0656,1,0,0,0,31,1,5,×,5,5 × 5,neutral,tie,1.5,1.5,25,,,,,,,,
,,,,,,,,,,,,,,,708,2022-01-28_13h57.49.738,multiplicationStroop,2021.2.3,Win32,59.99880002,,,,,,,,,,,,,,,,,,,,,,,,,,,,,,,,,15,1.7163,1,0,1,1,5,1,3,×,5,3 × 5,neutral,smallerFirst,1.5,1.5,15,,,,,,,,
,,,,,,,,,,,,,,,708,2022-01-28_13h57.49.738,multiplicationStroop,2021.2.3,Win32,59.99880002,,,,,,,,,,,,,,,,,,,,,,,,,,,,,,,,,40,1.7494,1,0,2,2,24,1,8,×,5,8 × 5,neutral,largerFirst,1.5,1.5,40,,,,,,,,
,,,,,,,,,,,,,,,708,2022-01-28_13h57.49.738,multiplicationStroop,2021.2.3,Win32,59.99880002,,,,,,,,,,,,,,,,,,,,,,,,,,,,,,,,,27,1.7832,1,0,3,3,14,1,9,×,3,9 × 3,neutral,largerFirst,1.5,1.5,27,,,,,,,,
,,,,,,,,,,,,,,,708,2022-01-28_13h57.49.738,multiplicationStroop,2021.2.3,Win32,59.99880002,,,,,,,,,,,,,,,,,,,,,,,,,,,,,,,,,6,1.6161,1,0,4,4,26,1,3,×,2,3 × 2,neutral,largerFirst,1.5,1.5,6,,,,,,,,
,,,,,,,,,,,,,,,708,2022-01-28_13h57.49.738,multiplicationStroop,2021.2.3,Win32,59.99880002,,,,,,,,,,,,,,,,,,,,,,,,,,,,,,,,,35,1.5664,1,0,5,5,1,1,5,×,7,5 × 7,neutral,smallerFirst,1.5,1.5,35,,,,,,,,
,,,,,,,,,,,,,,,708,2022-01-28_13h57.49.738,multiplicationStroop,2021.2.3,Win32,59.99880002,,,,,,,,,,,,,,,,,,,,,,,,,,,,,,,,,54,1.8841,1,0,6,6,7,1,6,×,9,6 × 9,neutral,smallerFirst,1.5,1.5,54,,,,,,,,
,,,,,,,,,,,,,,,708,2022-01-28_13h57.49.738,multiplicationStroop,2021.2.3,Win32,59.99880002,,,,,,,,,,,,,,,,,,,,,,,,,,,,,,,,,12,1.3147,1,0,7,7,21,1,4,×,3,4 × 3,neutral,largerFirst,1.5,1.5,12,,,,,,,,
,,,,,,,,,,,,,,,708,2022-01-28_13h57.49.738,multiplicationStroop,2021.2.3,Win32,59.99880002,,,,,,,,,,,,,,,,,,,,,,,,,,,,,,,,,30,1.8831,1,0,8,8,19,1,6,×,5,6 × 5,neutral,largerFirst,1.5,1.5,30,,,,,,,,
,,,,,,,,,,,,,,,708,2022-01-28_13h57.49.738,multiplicationStroop,2021.2.3,Win32,59.99880002,,,,,,,,,,,,,,,,,,,,,,,,,,,,,,,,,36,2.0501,1,0,9,9,27,1,9,×,4,9 × 4,neutral,largerFirst,1.5,1.5,36,,,,,,,,
,,,,,,,,,,,,,,,708,2022-01-28_13h57.49.738,multiplicationStroop,2021.2.3,Win32,59.99880002,,,,,,,,,,,,,,,,,,,,,,,,,,,,,,,,,56,1.5996,1,0,10,10,9,1,7,×,8,7 × 8,neutral,smallerFirst,1.5,1.5,56,,,,,,,,
,,,,,,,,,,,,,,,708,2022-01-28_13h57.49.738,multiplicationStroop,2021.2.3,Win32,59.99880002,,,,,,,,,,,,,,,,,,,,,,,,,,,,,,,,,16,1.7499,1,0,11,11,30,1,4,×,4,4 × 4,neutral,tie,1.5,1.5,16,,,,,,,,
,,,,,,,,,,,,,,,708,2022-01-28_13h57.49.738,multiplicationStroop,2021.2.3,Win32,59.99880002,,,,,,,,,,,,,,,,,,,,,,,,,,,,,,,,,63,3.9998,1,0,12,12,12,1,7,×,9,7 × 9,neutral,smallerFirst,1.5,1.5,63,,,,,,,,
,,,,,,,,,,,,,,,708,2022-01-28_13h57.49.738,multiplicationStroop,2021.2.3,Win32,59.99880002,,,,,,,,,,,,,,,,,,,,,,,,,,,,,,,,,32,1.689,1,0,13,13,23,1,8,×,4,8 × 4,neutral,largerFirst,1.5,1.5,32,,,,,,,,
,,,,,,,,,,,,,,,708,2022-01-28_13h57.49.738,multiplicationStroop,2021.2.3,Win32,59.99880002,,,,,,,,,,,,,,,,,,,,,,,,,,,,,,,,,21,2.3835,1,0,14,14,8,1,3,×,7,3 × 7,neutral,smallerFirst,1.5,1.5,21,,,,,,,,
,,,,,,,,,,,,,,,708,2022-01-28_13h57.49.738,multiplicationStroop,2021.2.3,Win32,59.99880002,,,,,,,,,,,,,,,,,,,,,,,,,,,,,,,,,42,1.6662,1,0,15,15,6,1,6,×,7,6 × 7,neutral,smallerFirst,1.5,1.5,42,,,,,,,,
,,,,,,,,,,,,,,,708,2022-01-28_13h57.49.738,multiplicationStroop,2021.2.3,Win32,59.99880002,,,,,,,,,,,,,,,,,,,,,,,,,,,,,,,,,64,1.883,1,0,16,16,34,1,8,×,8,8 × 8,neutral,tie,1.5,1.5,64,,,,,,,,
,,,,,,,,,,,,,,,708,2022-01-28_13h57.49.738,multiplicationStroop,2021.2.3,Win32,59.99880002,,,,,,,,,,,,,,,,,,,,,,,,,,,,,,,,,18,2.3165,1,0,17,17,0,1,3,×,6,3 × 6,neutral,smallerFirst,1.5,1.5,18,,,,,,,,
,,,,,,,,,,,,,,,708,2022-01-28_13h57.49.738,multiplicationStroop,2021.2.3,Win32,59.99880002,,,,,,,,,,,,,,,,,,,,,,,,,,,,,,,,,18,2.2663,1,0,18,18,18,1,9,×,2,9 × 2,neutral,largerFirst,1.5,1.5,18,,,,,,,,
,,,,,,,,,,,,,,,708,2022-01-28_13h57.49.738,multiplicationStroop,2021.2.3,Win32,59.99880002,,,,,,,,,,,,,,,,,,,,,,,,,,,,,,,,,20,1.7158,1,0,19,19,20,1,5,×,4,5 × 4,neutral,largerFirst,1.5,1.5,20,,,,,,,,
,,,,,,,,,,,,,,,708,2022-01-28_13h57.49.738,multiplicationStroop,2021.2.3,Win32,59.99880002,,,,,,,,,,,,,,,,,,,,,,,,,,,,,,,,,24,1.516,1,0,20,20,22,1,8,×,3,8 × 3,neutral,largerFirst,1.5,1.5,24,,,,,,,,
,,,,,,,,,,,,,,,708,2022-01-28_13h57.49.738,multiplicationStroop,2021.2.3,Win32,59.99880002,,,,,,,,,,,,,,,,,,,,,,,,,,,,,,,,,16,1.6498,1,0,21,21,13,1,2,×,8,2 × 8,neutral,smallerFirst,1.5,1.5,16,,,,,,,,
,,,,,,,,,,,,,,,708,2022-01-28_13h57.49.738,multiplicationStroop,2021.2.3,Win32,59.99880002,,,,,,,,,,,,,,,,,,,,,,,,,,,,,,,,,8,2.0494,1,0,22,22,3,1,2,×,4,2 × 4,neutral,smallerFirst,1.5,1.5,8,,,,,,,,
,,,,,,,,,,,,,,,708,2022-01-28_13h57.49.738,multiplicationStroop,2021.2.3,Win32,59.99880002,,,,,,,,,,,,,,,,,,,,,,,,,,,,,,,,,48,2.1991,1,0,23,23,15,1,8,×,6,8 × 6,neutral,largerFirst,1.5,1.5,48,,,,,,,,
,,,,,,,,,,,,,,,708,2022-01-28_13h57.49.738,multiplicationStroop,2021.2.3,Win32,59.99880002,,,,,,,,,,,,,,,,,,,,,,,,,,,,,,,,,49,1.6501,1,0,24,24,33,1,7,×,7,7 × 7,neutral,tie,1.5,1.5,49,,,,,,,,
,,,,,,,,,,,,,,,708,2022-01-28_13h57.49.738,multiplicationStroop,2021.2.3,Win32,59.99880002,,,,,,,,,,,,,,,,,,,,,,,,,,,,,,,,,10,1.8998,1,0,25,25,4,1,2,×,5,2 × 5,neutral,smallerFirst,1.5,1.5,10,,,,,,,,
,,,,,,,,,,,,,,,708,2022-01-28_13h57.49.738,multiplicationStroop,2021.2.3,Win32,59.99880002,,,,,,,,,,,,,,,,,,,,,,,,,,,,,,,,,14,1.7163,1,0,26,26,16,1,7,×,2,7 × 2,neutral,largerFirst,1.5,1.5,14,,,,,,,,
,,,,,,,,,,,,,,,708,2022-01-28_13h57.49.738,multiplicationStroop,2021.2.3,Win32,59.99880002,,,,,,,,,,,,,,,,,,,,,,,,,,,,,,,,,36,2.3335,1,0,27,27,32,1,6,×,6,6 × 6,neutral,tie,1.5,1.5,36,,,,,,,,
,,,,,,,,,,,,,,,708,2022-01-28_13h57.49.738,multiplicationStroop,2021.2.3,Win32,59.99880002,,,,,,,,,,,,,,,,,,,,,,,,,,,,,,,,,81,1.9164,1,0,28,28,35,1,9,×,9,9 × 9,neutral,tie,1.5,1.5,81,,,,,,,,
,,,,,,,,,,,,,,,708,2022-01-28_13h57.49.738,multiplicationStroop,2021.2.3,Win32,59.99880002,,,,,,,,,,,,,,,,,,,,,,,,,,,,,,,,,9,1.6995,1,0,29,29,29,1,3,×,3,3 × 3,neutral,tie,1.5,1.5,9,,,,,,,,
,,,,,,,,,,,,,,,708,2022-01-28_13h57.49.738,multiplicationStroop,2021.2.3,Win32,59.99880002,,,,,,,,,,,,,,,,,,,,,,,,,,,,,,,,,24,1.5663,1,0,30,30,2,1,4,×,6,4 × 6,neutral,smallerFirst,1.5,1.5,24,,,,,,,,
,,,,,,,,,,,,,,,708,2022-01-28_13h57.49.738,multiplicationStroop,2021.2.3,Win32,59.99880002,,,,,,,,,,,,,,,,,,,,,,,,,,,,,,,,,45,1.7829,1,0,31,31,10,1,5,×,9,5 × 9,neutral,smallerFirst,1.5,1.5,45,,,,,,,,
,,,,,,,,,,,,,,,708,2022-01-28_13h57.49.738,multiplicationStroop,2021.2.3,Win32,59.99880002,,,,,,,,,,,,,,,,,,,,,,,,,,,,,,,,,72,2.1495,1,0,32,32,11,1,8,×,9,8 × 9,neutral,smallerFirst,1.5,1.5,72,,,,,,,,
,,,,,,,,,,,,,,,708,2022-01-28_13h57.49.738,multiplicationStroop,2021.2.3,Win32,59.99880002,,,,,,,,,,,,,,,,,,,,,,,,,,,,,,,,,12,1.3663,1,0,33,33,25,1,6,×,2,6 × 2,neutral,largerFirst,1.5,1.5,12,,,,,,,,
,,,,,,,,,,,,,,,708,2022-01-28_13h57.49.738,multiplicationStroop,2021.2.3,Win32,59.99880002,,,,,,,,,,,,,,,,,,,,,,,,,,,,,,,,,28,2.4165,1,0,34,34,17,1,7,×,4,7 × 4,neutral,largerFirst,1.5,1.5,28,,,,,,,,
,,,,,,,,,,,,,,,708,2022-01-28_13h57.49.738,multiplicationStroop,2021.2.3,Win32,59.99880002,,,,,,,,,,,,,,,,,,,,,,,,,,,,,,,,,4,1.5499,1,0,35,35,28,1,2,×,2,2 × 2,neutral,tie,1.5,1.5,4,,,,,,,,
,,,,,,,,,,,,,,,708,2022-01-28_13h57.49.738,multiplicationStroop,2021.2.3,Win32,59.99880002,,,,,,,,,,,,,,,,,,,,,,,,,,,,,,,,,,,,,,,,,,,,,,,,,,0,3,3,1,1,stimulusFile/mult_blk2.xlsx,,
,,,,,,,,,,,,,,,708,2022-01-28_13h57.49.738,multiplicationStroop,2021.2.3,Win32,59.99880002,,,,,,,,,,,,,,,,,,,,,,,,,,,,,,,space,6.0565,4,1.546,1,0,0,0,28,1,2,×,2,2 × 2,incongruent,tie,1,2,4,,,,,,,,
,,,,,,,,,,,,,,,708,2022-01-28_13h57.49.738,multiplicationStroop,2021.2.3,Win32,59.99880002,,,,,,,,,,,,,,,,,,,,,,,,,,,,,,,,,12,1.4653,1,0,1,1,19,1,6,×,2,6 × 2,incongruent,largerFirst,1,2,12,,,,,,,,
,,,,,,,,,,,,,,,708,2022-01-28_13h57.49.738,multiplicationStroop,2021.2.3,Win32,59.99880002,,,,,,,,,,,,,,,,,,,,,,,,,,,,,,,,,48,2.2498,0,0,2,2,13,1,5,×,8,5 × 8,incongruent,smallerFirst,2,1,40,,,,,,,,
,,,,,,,,,,,,,,,708,2022-01-28_13h57.49.738,multiplicationStroop,2021.2.3,Win32,59.99880002,,,,,,,,,,,,,,,,,,,,,,,,,,,,,,,,,49,1.9154,1,0,3,3,33,1,7,×,7,7 × 7,incongruent,tie,1,2,49,,,,,,,,
,,,,,,,,,,,,,,,708,2022-01-28_13h57.49.738,multiplicationStroop,2021.2.3,Win32,59.99880002,,,,,,,,,,,,,,,,,,,,,,,,,,,,,,,,,21,1.7829,1,0,4,4,26,1,7,×,3,7 × 3,incongruent,largerFirst,1,2,21,,,,,,,,
,,,,,,,,,,,,,,,708,2022-01-28_13h57.49.738,multiplicationStroop,2021.2.3,Win32,59.99880002,,,,,,,,,,,,,,,,,,,,,,,,,,,,,,,,,81,1.8999,1,0,5,5,35,1,9,×,9,9 × 9,incongruent,tie,1,2,81,,,,,,,,
,,,,,,,,,,,,,,,708,2022-01-28_13h57.49.738,multiplicationStroop,2021.2.3,Win32,59.99880002,,,,,,,,,,,,,,,,,,,,,,,,,,,,,,,,,16,2.2998,1,0,6,6,23,1,8,×,2,8 × 2,incongruent,largerFirst,1,2,16,,,,,,,,
,,,,,,,,,,,,,,,708,2022-01-28_13h57.49.738,multiplicationStroop,2021.2.3,Win32,59.99880002,,,,,,,,,,,,,,,,,,,,,,,,,,,,,,,,,20,1.5663,1,0,7,7,27,1,5,×,4,5 × 4,incongruent,largerFirst,1,2,20,,,,,,,,
,,,,,,,,,,,,,,,708,2022-01-28_13h57.49.738,multiplicationStroop,2021.2.3,Win32,59.99880002,,,,,,,,,,,,,,,,,,,,,,,,,,,,,,,,,12,1.4667,1,0,8,8,5,1,3,×,4,3 × 4,incongruent,smallerFirst,2,1,12,,,,,,,,
,,,,,,,,,,,,,,,708,2022-01-28_13h57.49.738,multiplicationStroop,2021.2.3,Win32,59.99880002,,,,,,,,,,,,,,,,,,,,,,,,,,,,,,,,,45,1.7996,1,0,9,9,22,1,9,×,5,9 × 5,incongruent,largerFirst,1,2,45,,,,,,,,
,,,,,,,,,,,,,,,708,2022-01-28_13h57.49.738,multiplicationStroop,2021.2.3,Win32,59.99880002,,,,,,,,,,,,,,,,,,,,,,,,,,,,,,,,,24,1.716,1,0,10,10,9,1,3,×,8,3 × 8,incongruent,smallerFirst,2,1,24,,,,,,,,
,,,,,,,,,,,,,,,708,2022-01-28_13h57.49.738,multiplicationStroop,2021.2.3,Win32,59.99880002,,,,,,,,,,,,,,,,,,,,,,,,,,,,,,,,,72,2.4,1,0,11,11,0,1,8,×,9,8 × 9,incongruent,smallerFirst,2,1,72,,,,,,,,
,,,,,,,,,,,,,,,708,2022-01-28_13h57.49.738,multiplicationStroop,2021.2.3,Win32,59.99880002,,,,,,,,,,,,,,,,,,,,,,,,,,,,,,,,,35,2.5169,1,0,12,12,12,1,5,×,7,5 × 7,incongruent,smallerFirst,2,1,35,,,,,,,,
,,,,,,,,,,,,,,,708,2022-01-28_13h57.49.738,multiplicationStroop,2021.2.3,Win32,59.99880002,,,,,,,,,,,,,,,,,,,,,,,,,,,,,,,,,36,2.5327,1,0,13,13,15,1,9,×,4,9 × 4,incongruent,largerFirst,1,2,36,,,,,,,,
,,,,,,,,,,,,,,,708,2022-01-28_13h57.49.738,multiplicationStroop,2021.2.3,Win32,59.99880002,,,,,,,,,,,,,,,,,,,,,,,,,,,,,,,,,54,2.4872,1,0,14,14,6,1,6,×,9,6 × 9,incongruent,smallerFirst,2,1,54,,,,,,,,
,,,,,,,,,,,,,,,708,2022-01-28_13h57.49.738,multiplicationStroop,2021.2.3,Win32,59.99880002,,,,,,,,,,,,,,,,,,,,,,,,,,,,,,,,,18,1.8009,1,0,15,15,2,1,2,×,9,2 × 9,incongruent,smallerFirst,2,1,18,,,,,,,,
,,,,,,,,,,,,,,,708,2022-01-28_13h57.49.738,multiplicationStroop,2021.2.3,Win32,59.99880002,,,,,,,,,,,,,,,,,,,,,,,,,,,,,,,,,25,2.7328,1,0,16,16,31,1,5,×,5,5 × 5,incongruent,tie,1,2,25,,,,,,,,
,,,,,,,,,,,,,,,708,2022-01-28_13h57.49.738,multiplicationStroop,2021.2.3,Win32,59.99880002,,,,,,,,,,,,,,,,,,,,,,,,,,,,,,,,,8,1.8909,1,0,17,17,24,1,4,×,2,4 × 2,incongruent,largerFirst,1,2,8,,,,,,,,
,,,,,,,,,,,,,,,708,2022-01-28_13h57.49.738,multiplicationStroop,2021.2.3,Win32,59.99880002,,,,,,,,,,,,,,,,,,,,,,,,,,,,,,,,,18,1.8526,1,0,18,18,8,1,3,×,6,3 × 6,incongruent,smallerFirst,2,1,18,,,,,,,,
,,,,,,,,,,,,,,,708,2022-01-28_13h57.49.738,multiplicationStroop,2021.2.3,Win32,59.99880002,,,,,,,,,,,,,,,,,,,,,,,,,,,,,,,,,6,1.7831,1,0,19,19,11,1,2,×,3,2 × 3,incongruent,smallerFirst,2,1,6,,,,,,,,
,,,,,,,,,,,,,,,708,2022-01-28_13h57.49.738,multiplicationStroop,2021.2.3,Win32,59.99880002,,,,,,,,,,,,,,,,,,,,,,,,,,,,,,,,,16,1.9973,1,0,20,20,30,1,4,×,4,4 × 4,incongruent,tie,1,2,16,,,,,,,,
,,,,,,,,,,,,,,,708,2022-01-28_13h57.49.738,multiplicationStroop,2021.2.3,Win32,59.99880002,,,,,,,,,,,,,,,,,,,,,,,,,,,,,,,,,28,1.952,1,0,21,21,16,1,7,×,4,7 × 4,incongruent,largerFirst,1,2,28,,,,,,,,
,,,,,,,,,,,,,,,708,2022-01-28_13h57.49.738,multiplicationStroop,2021.2.3,Win32,59.99880002,,,,,,,,,,,,,,,,,,,,,,,,,,,,,,,,,42,2.181,1,0,22,22,17,1,7,×,6,7 × 6,incongruent,largerFirst,1,2,42,,,,,,,,
,,,,,,,,,,,,,,,708,2022-01-28_13h57.49.738,multiplicationStroop,2021.2.3,Win32,59.99880002,,,,,,,,,,,,,,,,,,,,,,,,,,,,,,,,,32,2.3329,1,0,23,23,7,1,4,×,8,4 × 8,incongruent,smallerFirst,2,1,32,,,,,,,,
,,,,,,,,,,,,,,,708,2022-01-28_13h57.49.738,multiplicationStroop,2021.2.3,Win32,59.99880002,,,,,,,,,,,,,,,,,,,,,,,,,,,,,,,,,10,1.4828,1,0,24,24,21,1,5,×,2,5 × 2,incongruent,largerFirst,1,2,10,,,,,,,,
,,,,,,,,,,,,,,,708,2022-01-28_13h57.49.738,multiplicationStroop,2021.2.3,Win32,59.99880002,,,,,,,,,,,,,,,,,,,,,,,,,,,,,,,,,64,2.1332,1,0,25,25,34,1,8,×,8,8 × 8,incongruent,tie,1,2,64,,,,,,,,
,,,,,,,,,,,,,,,708,2022-01-28_13h57.49.738,multiplicationStroop,2021.2.3,Win32,59.99880002,,,,,,,,,,,,,,,,,,,,,,,,,,,,,,,,,15,1.9524,1,0,26,26,10,1,3,×,5,3 × 5,incongruent,smallerFirst,2,1,15,,,,,,,,
,,,,,,,,,,,,,,,708,2022-01-28_13h57.49.738,multiplicationStroop,2021.2.3,Win32,59.99880002,,,,,,,,,,,,,,,,,,,,,,,,,,,,,,,,,27,1.9805,1,0,27,27,18,1,9,×,3,9 × 3,incongruent,largerFirst,1,2,27,,,,,,,,
,,,,,,,,,,,,,,,708,2022-01-28_13h57.49.738,multiplicationStroop,2021.2.3,Win32,59.99880002,,,,,,,,,,,,,,,,,,,,,,,,,,,,,,,,,14,1.4661,1,0,28,28,4,1,2,×,7,2 × 7,incongruent,smallerFirst,2,1,14,,,,,,,,
,,,,,,,,,,,,,,,708,2022-01-28_13h57.49.738,multiplicationStroop,2021.2.3,Win32,59.99880002,,,,,,,,,,,,,,,,,,,,,,,,,,,,,,,,,48,2.2,1,0,29,29,1,1,6,×,8,6 × 8,incongruent,smallerFirst,2,1,48,,,,,,,,
,,,,,,,,,,,,,,,708,2022-01-28_13h57.49.738,multiplicationStroop,2021.2.3,Win32,59.99880002,,,,,,,,,,,,,,,,,,,,,,,,,,,,,,,,,36,2.3001,1,0,30,30,32,1,6,×,6,6 × 6,incongruent,tie,1,2,36,,,,,,,,
,,,,,,,,,,,,,,,708,2022-01-28_13h57.49.738,multiplicationStroop,2021.2.3,Win32,59.99880002,,,,,,,,,,,,,,,,,,,,,,,,,,,,,,,,,9,1.6744,1,0,31,31,29,1,3,×,3,3 × 3,incongruent,tie,1,2,9,,,,,,,,
,,,,,,,,,,,,,,,708,2022-01-28_13h57.49.738,multiplicationStroop,2021.2.3,Win32,59.99880002,,,,,,,,,,,,,,,,,,,,,,,,,,,,,,,,,30,1.9162,1,0,32,32,25,1,6,×,5,6 × 5,incongruent,largerFirst,1,2,30,,,,,,,,
,,,,,,,,,,,,,,,708,2022-01-28_13h57.49.738,multiplicationStroop,2021.2.3,Win32,59.99880002,,,,,,,,,,,,,,,,,,,,,,,,,,,,,,,,,63,3.267,1,0,33,33,3,1,7,×,9,7 × 9,incongruent,smallerFirst,2,1,63,,,,,,,,
,,,,,,,,,,,,,,,708,2022-01-28_13h57.49.738,multiplicationStroop,2021.2.3,Win32,59.99880002,,,,,,,,,,,,,,,,,,,,,,,,,,,,,,,,,56,3.4888,1,0,34,34,14,1,8,×,7,8 × 7,incongruent,largerFirst,1,2,56,,,,,,,,
,,,,,,,,,,,,,,,708,2022-01-28_13h57.49.738,multiplicationStroop,2021.2.3,Win32,59.99880002,,,,,,,,,,,,,,,,,,,,,,,,,,,,,,,,,24,1.6585,1,0,35,35,20,1,6,×,4,6 × 4,incongruent,largerFirst,1,2,24,,,,,,,,
,,,,,,,,,,,,,,,708,2022-01-28_13h57.49.738,multiplicationStroop,2021.2.3,Win32,59.99880002,,,,,,,,,,,,,,,,,,,,,,,,,,,,,,,,,,,,,,,,,,,,,,,,,,0,4,4,5,1,stimulusFile/mult_blk6_INcongruent.xlsx,,
,,,,,,,,,,,,,,,708,2022-01-28_13h57.49.738,multiplicationStroop,2021.2.3,Win32,59.99880002,,,,,,,,,,,,,,,,,,,,,,,,,,,,,,,space,1.1345,56,2.207,1,0,0,0,8,1,7,×,8,7 × 8,congruent,smallerFirst,1,2,56,,,,,,,,
,,,,,,,,,,,,,,,708,2022-01-28_13h57.49.738,multiplicationStroop,2021.2.3,Win32,59.99880002,,,,,,,,,,,,,,,,,,,,,,,,,,,,,,,,,24,1.6851,1,0,1,1,25,1,6,×,4,6 × 4,congruent,largerFirst,2,1,24,,,,,,,,
,,,,,,,,,,,,,,,708,2022-01-28_13h57.49.738,multiplicationStroop,2021.2.3,Win32,59.99880002,,,,,,,,,,,,,,,,,,,,,,,,,,,,,,,,,24,1.5143,1,0,2,2,10,1,3,×,8,3 × 8,congruent,smallerFirst,1,2,24,,,,,,,,
,,,,,,,,,,,,,,,708,2022-01-28_13h57.49.738,multiplicationStroop,2021.2.3,Win32,59.99880002,,,,,,,,,,,,,,,,,,,,,,,,,,,,,,,,,36,2.0833,1,0,3,3,0,1,4,×,9,4 × 9,congruent,smallerFirst,1,2,36,,,,,,,,
,,,,,,,,,,,,,,,708,2022-01-28_13h57.49.738,multiplicationStroop,2021.2.3,Win32,59.99880002,,,,,,,,,,,,,,,,,,,,,,,,,,,,,,,,,25,2.4333,1,0,4,4,31,1,5,×,5,5 × 5,neutral,tie,2,1,25,,,,,,,,
,,,,,,,,,,,,,,,708,2022-01-28_13h57.49.738,multiplicationStroop,2021.2.3,Win32,59.99880002,,,,,,,,,,,,,,,,,,,,,,,,,,,,,,,,,14,1.5691,1,0,5,5,14,1,7,×,2,7 × 2,congruent,largerFirst,2,1,14,,,,,,,,
,,,,,,,,,,,,,,,708,2022-01-28_13h57.49.738,multiplicationStroop,2021.2.3,Win32,59.99880002,,,,,,,,,,,,,,,,,,,,,,,,,,,,,,,,,9,1.7643,1,0,6,6,29,1,3,×,3,3 × 3,neutral,tie,2,1,9,,,,,,,,
,,,,,,,,,,,,,,,708,2022-01-28_13h57.49.738,multiplicationStroop,2021.2.3,Win32,59.99880002,,,,,,,,,,,,,,,,,,,,,,,,,,,,,,,,,81,2.7172,1,0,7,7,35,1,9,×,9,9 × 9,neutral,tie,2,1,81,,,,,,,,
,,,,,,,,,,,,,,,708,2022-01-28_13h57.49.738,multiplicationStroop,2021.2.3,Win32,59.99880002,,,,,,,,,,,,,,,,,,,,,,,,,,,,,,,,,16,2.0807,1,0,8,8,30,1,4,×,4,4 × 4,neutral,tie,2,1,16,,,,,,,,
,,,,,,,,,,,,,,,708,2022-01-28_13h57.49.738,multiplicationStroop,2021.2.3,Win32,59.99880002,,,,,,,,,,,,,,,,,,,,,,,,,,,,,,,,,18,1.683,1,0,9,9,22,1,9,×,2,9 × 2,congruent,largerFirst,2,1,18,,,,,,,,
,,,,,,,,,,,,,,,708,2022-01-28_13h57.49.738,multiplicationStroop,2021.2.3,Win32,59.99880002,,,,,,,,,,,,,,,,,,,,,,,,,,,,,,,,,63,2.7665,1,0,10,10,21,1,9,×,7,9 × 7,congruent,largerFirst,2,1,63,,,,,,,,
,,,,,,,,,,,,,,,708,2022-01-28_13h57.49.738,multiplicationStroop,2021.2.3,Win32,59.99880002,,,,,,,,,,,,,,,,,,,,,,,,,,,,,,,,,10,1.7505,1,0,11,11,24,1,5,×,2,5 × 2,congruent,largerFirst,2,1,10,,,,,,,,
,,,,,,,,,,,,,,,708,2022-01-28_13h57.49.738,multiplicationStroop,2021.2.3,Win32,59.99880002,,,,,,,,,,,,,,,,,,,,,,,,,,,,,,,,,15,2.2492,1,0,12,12,4,1,3,×,5,3 × 5,congruent,smallerFirst,1,2,15,,,,,,,,
,,,,,,,,,,,,,,,708,2022-01-28_13h57.49.738,multiplicationStroop,2021.2.3,Win32,59.99880002,,,,,,,,,,,,,,,,,,,,,,,,,,,,,,,,,72,2.9995,1,0,13,13,17,1,9,×,8,9 × 8,congruent,largerFirst,2,1,72,,,,,,,,
,,,,,,,,,,,,,,,708,2022-01-28_13h57.49.738,multiplicationStroop,2021.2.3,Win32,59.99880002,,,,,,,,,,,,,,,,,,,,,,,,,,,,,,,,,20,1.6407,1,0,14,14,7,1,4,×,5,4 × 5,congruent,smallerFirst,1,2,20,,,,,,,,
,,,,,,,,,,,,,,,708,2022-01-28_13h57.49.738,multiplicationStroop,2021.2.3,Win32,59.99880002,,,,,,,,,,,,,,,,,,,,,,,,,,,,,,,,,21,1.4506,1,0,15,15,16,1,7,×,3,7 × 3,congruent,largerFirst,2,1,21,,,,,,,,
,,,,,,,,,,,,,,,708,2022-01-28_13h57.49.738,multiplicationStroop,2021.2.3,Win32,59.99880002,,,,,,,,,,,,,,,,,,,,,,,,,,,,,,,,,49,2.0672,1,0,16,16,33,1,7,×,7,7 × 7,neutral,tie,2,1,49,,,,,,,,
,,,,,,,,,,,,,,,708,2022-01-28_13h57.49.738,multiplicationStroop,2021.2.3,Win32,59.99880002,,,,,,,,,,,,,,,,,,,,,,,,,,,,,,,,,64,1.8495,1,0,17,17,34,1,8,×,8,8 × 8,neutral,tie,2,1,64,,,,,,,,
,,,,,,,,,,,,,,,708,2022-01-28_13h57.49.738,multiplicationStroop,2021.2.3,Win32,59.99880002,,,,,,,,,,,,,,,,,,,,,,,,,,,,,,,,,27,1.9143,1,0,18,18,26,1,9,×,3,9 × 3,congruent,largerFirst,2,1,27,,,,,,,,
,,,,,,,,,,,,,,,708,2022-01-28_13h57.49.738,multiplicationStroop,2021.2.3,Win32,59.99880002,,,,,,,,,,,,,,,,,,,,,,,,,,,,,,,,,35,2.2836,1,0,19,19,1,1,5,×,7,5 × 7,congruent,smallerFirst,1,2,35,,,,,,,,
,,,,,,,,,,,,,,,708,2022-01-28_13h57.49.738,multiplicationStroop,2021.2.3,Win32,59.99880002,,,,,,,,,,,,,,,,,,,,,,,,,,,,,,,,,18,2.0333,1,0,20,20,11,1,3,×,6,3 × 6,congruent,smallerFirst,1,2,18,,,,,,,,
,,,,,,,,,,,,,,,708,2022-01-28_13h57.49.738,multiplicationStroop,2021.2.3,Win32,59.99880002,,,,,,,,,,,,,,,,,,,,,,,,,,,,,,,,,12,1.4234,1,0,21,21,2,1,3,×,4,3 × 4,congruent,smallerFirst,1,2,12,,,,,,,,
,,,,,,,,,,,,,,,708,2022-01-28_13h57.49.738,multiplicationStroop,2021.2.3,Win32,59.99880002,,,,,,,,,,,,,,,,,,,,,,,,,,,,,,,,,6,1.833,1,0,22,22,13,1,2,×,3,2 × 3,congruent,smallerFirst,1,2,6,,,,,,,,
,,,,,,,,,,,,,,,708,2022-01-28_13h57.49.738,multiplicationStroop,2021.2.3,Win32,59.99880002,,,,,,,,,,,,,,,,,,,,,,,,,,,,,,,,,42,2.0162,1,0,23,23,3,1,6,×,7,6 × 7,congruent,smallerFirst,1,2,42,,,,,,,,
,,,,,,,,,,,,,,,708,2022-01-28_13h57.49.738,multiplicationStroop,2021.2.3,Win32,59.99880002,,,,,,,,,,,,,,,,,,,,,,,,,,,,,,,,,32,1.9344,1,0,24,24,20,1,8,×,4,8 × 4,congruent,largerFirst,2,1,32,,,,,,,,
,,,,,,,,,,,,,,,708,2022-01-28_13h57.49.738,multiplicationStroop,2021.2.3,Win32,59.99880002,,,,,,,,,,,,,,,,,,,,,,,,,,,,,,,,,30,2.6646,1,0,25,25,15,1,6,×,5,6 × 5,congruent,largerFirst,2,1,30,,,,,,,,
,,,,,,,,,,,,,,,708,2022-01-28_13h57.49.738,multiplicationStroop,2021.2.3,Win32,59.99880002,,,,,,,,,,,,,,,,,,,,,,,,,,,,,,,,,4,1.55,1,0,26,26,28,1,2,×,2,2 × 2,neutral,tie,2,1,4,,,,,,,,
,,,,,,,,,,,,,,,708,2022-01-28_13h57.49.738,multiplicationStroop,2021.2.3,Win32,59.99880002,,,,,,,,,,,,,,,,,,,,,,,,,,,,,,,,,40,2.1833,1,0,27,27,6,1,5,×,8,5 × 8,congruent,smallerFirst,1,2,40,,,,,,,,
,,,,,,,,,,,,,,,708,2022-01-28_13h57.49.738,multiplicationStroop,2021.2.3,Win32,59.99880002,,,,,,,,,,,,,,,,,,,,,,,,,,,,,,,,,45,1.7999,1,0,28,28,23,1,9,×,5,9 × 5,congruent,largerFirst,2,1,45,,,,,,,,
,,,,,,,,,,,,,,,708,2022-01-28_13h57.49.738,multiplicationStroop,2021.2.3,Win32,59.99880002,,,,,,,,,,,,,,,,,,,,,,,,,,,,,,,,,48,2.7502,1,0,29,29,18,1,8,×,6,8 × 6,congruent,largerFirst,2,1,48,,,,,,,,
,,,,,,,,,,,,,,,708,2022-01-28_13h57.49.738,multiplicationStroop,2021.2.3,Win32,59.99880002,,,,,,,,,,,,,,,,,,,,,,,,,,,,,,,,,16,1.8568,1,0,30,30,5,1,2,×,8,2 × 8,congruent,smallerFirst,1,2,16,,,,,,,,
,,,,,,,,,,,,,,,708,2022-01-28_13h57.49.738,multiplicationStroop,2021.2.3,Win32,59.99880002,,,,,,,,,,,,,,,,,,,,,,,,,,,,,,,,,12,1.3855,1,0,31,31,19,1,6,×,2,6 × 2,congruent,largerFirst,2,1,12,,,,,,,,
,,,,,,,,,,,,,,,708,2022-01-28_13h57.49.738,multiplicationStroop,2021.2.3,Win32,59.99880002,,,,,,,,,,,,,,,,,,,,,,,,,,,,,,,,,36,1.8333,1,0,32,32,32,1,6,×,6,6 × 6,neutral,tie,2,1,36,,,,,,,,
,,,,,,,,,,,,,,,708,2022-01-28_13h57.49.738,multiplicationStroop,2021.2.3,Win32,59.99880002,,,,,,,,,,,,,,,,,,,,,,,,,,,,,,,,,54,2.1306,1,0,33,33,12,1,6,×,9,6 × 9,congruent,smallerFirst,1,2,54,,,,,,,,
,,,,,,,,,,,,,,,708,2022-01-28_13h57.49.738,multiplicationStroop,2021.2.3,Win32,59.99880002,,,,,,,,,,,,,,,,,,,,,,,,,,,,,,,,,28,2.8169,1,0,34,34,27,1,7,×,4,7 × 4,congruent,largerFirst,2,1,28,,,,,,,,
,,,,,,,,,,,,,,,708,2022-01-28_13h57.49.738,multiplicationStroop,2021.2.3,Win32,59.99880002,,,,,,,,,,,,,,,,,,,,,,,,,,,,,,,,,8,1.9909,1,0,35,35,9,1,2,×,4,2 × 4,congruent,smallerFirst,1,2,8,,,,,,,,
,,,,,,,,,,,,,,,708,2022-01-28_13h57.49.738,multiplicationStroop,2021.2.3,Win32,59.99880002,,,,,,,,,,,,,,,,,,,,,,,,,,,,,,,,,,,,,,,,,,,,,,,,,,0,5,5,2,1,stimulusFile/mult_blk3_congruent.xlsx,,
,,,,,,,,,,,,,,,708,2022-01-28_13h57.49.738,multiplicationStroop,2021.2.3,Win32,59.99880002,,,,,,,,,,,,,,,,,,,,,,,,,,,,,,,,,,,,,,,,,,,,,,,,,,,,,,,,space,4.4764