welcomeKey_resp.keys,welcomeKey_resp.rt,X Scale,Y Scale,rt_resp_4.keys,rt_resp_4.corr,rt_resp_4.rt,speedtest_2.thisRepN,speedtest_2.thisTrialN,speedtest_2.thisN,speedtest_2.thisIndex,speedtest_2.ran,numberSc,posX,positionLayout,participant,date,expName,psychopyVersion,OS,frameRate,ct_instrresp.keys,ct_instrresp.rt,key_resp_2.keys,key_resp_2.rt,ct_keyResp.keys,ct_keyResp.corr,ct_keyResp.rt,trials.thisRepN,trials.thisTrialN,trials.thisN,trials.thisIndex,trials.ran,leftNo,rightNo,displayProblem,numDistance,leftNo_size,rightNo_size,Dims,keyAnswer,TS_Loop.thisRepN,TS_Loop.thisTrialN,TS_Loop.thisN,TS_Loop.thisIndex,TS_Loop.ran,Condition,ActionInst,instrImage,mltptaskInst_resp.keys,mltptaskInst_resp.rt,continue_resp_2.keys,continue_resp_2.rt,multp_Answer,multi_RT,multiplyCorr,LoopingMultiply.thisRepN,LoopingMultiply.thisTrialN,LoopingMultiply.thisN,LoopingMultiply.thisIndex,LoopingMultiply.ran,factor1,multiplySign,factor2,multliplyProblem,physicalSize,orderOperand,sizeF1,sizeF2,mult_answer,trials_stroop.thisRepN,trials_stroop.thisTrialN,trials_stroop.thisN,trials_stroop.thisIndex,trials_stroop.ran,multiplicationFile,esckey_resp_2.keys,esckey_resp_2.rt
y,25.5149,44.9,45.2,right,1,1.0795,0,0,0,14,1,8,200,right,712,2022-01-27_12h35.37.543,multiplicationStroop,2021.2.3,Win32,59.97720866,,,,,,,,,,,,,,,,,,,,,,,,,,,,,,,,,,,,,,,,,,,,,,,,,,,,,,,,,
,,,,left,1,0.708,0,1,1,6,1,8,-200,left,712,2022-01-27_12h35.37.543,multiplicationStroop,2021.2.3,Win32,59.97720866,,,,,,,,,,,,,,,,,,,,,,,,,,,,,,,,,,,,,,,,,,,,,,,,,,,,,,,,,
,,,,left,1,0.5546,0,2,2,0,1,1,-200,left,712,2022-01-27_12h35.37.543,multiplicationStroop,2021.2.3,Win32,59.97720866,,,,,,,,,,,,,,,,,,,,,,,,,,,,,,,,,,,,,,,,,,,,,,,,,,,,,,,,,
,,,,right,1,0.3616,0,3,3,8,1,1,200,right,712,2022-01-27_12h35.37.543,multiplicationStroop,2021.2.3,Win32,59.97720866,,,,,,,,,,,,,,,,,,,,,,,,,,,,,,,,,,,,,,,,,,,,,,,,,,,,,,,,,
,,,,right,1,0.3354,0,4,4,15,1,9,200,right,712,2022-01-27_12h35.37.543,multiplicationStroop,2021.2.3,Win32,59.97720866,,,,,,,,,,,,,,,,,,,,,,,,,,,,,,,,,,,,,,,,,,,,,,,,,,,,,,,,,
,,,,right,1,0.2955,0,5,5,12,1,6,200,right,712,2022-01-27_12h35.37.543,multiplicationStroop,2021.2.3,Win32,59.97720866,,,,,,,,,,,,,,,,,,,,,,,,,,,,,,,,,,,,,,,,,,,,,,,,,,,,,,,,,
,,,,right,1,0.2937,0,6,6,10,1,3,200,right,712,2022-01-27_12h35.37.543,multiplicationStroop,2021.2.3,Win32,59.97720866,,,,,,,,,,,,,,,,,,,,,,,,,,,,,,,,,,,,,,,,,,,,,,,,,,,,,,,,,
,,,,left,1,0.2712,0,7,7,2,1,3,-200,left,712,2022-01-27_12h35.37.543,multiplicationStroop,2021.2.3,Win32,59.97720866,,,,,,,,,,,,,,,,,,,,,,,,,,,,,,,,,,,,,,,,,,,,,,,,,,,,,,,,,
,,,,right,1,0.2911,0,8,8,9,1,2,200,right,712,2022-01-27_12h35.37.543,multiplicationStroop,2021.2.3,Win32,59.97720866,,,,,,,,,,,,,,,,,,,,,,,,,,,,,,,,,,,,,,,,,,,,,,,,,,,,,,,,,
,,,,right,1,0.2658,0,9,9,13,1,7,200,right,712,2022-01-27_12h35.37.543,multiplicationStroop,2021.2.3,Win32,59.97720866,,,,,,,,,,,,,,,,,,,,,,,,,,,,,,,,,,,,,,,,,,,,,,,,,,,,,,,,,
,,,,left,1,0.2695,0,10,10,7,1,9,-200,left,712,2022-01-27_12h35.37.543,multiplicationStroop,2021.2.3,Win32,59.97720866,,,,,,,,,,,,,,,,,,,,,,,,,,,,,,,,,,,,,,,,,,,,,,,,,,,,,,,,,
,,,,left,1,0.3274,0,11,11,3,1,4,-200,left,712,2022-01-27_12h35.37.543,multiplicationStroop,2021.2.3,Win32,59.97720866,,,,,,,,,,,,,,,,,,,,,,,,,,,,,,,,,,,,,,,,,,,,,,,,,,,,,,,,,
,,,,right,1,0.2941,0,12,12,11,1,4,200,right,712,2022-01-27_12h35.37.543,multiplicationStroop,2021.2.3,Win32,59.97720866,,,,,,,,,,,,,,,,,,,,,,,,,,,,,,,,,,,,,,,,,,,,,,,,,,,,,,,,,
,,,,left,1,0.2685,0,13,13,4,1,6,-200,left,712,2022-01-27_12h35.37.543,multiplicationStroop,2021.2.3,Win32,59.97720866,,,,,,,,,,,,,,,,,,,,,,,,,,,,,,,,,,,,,,,,,,,,,,,,,,,,,,,,,
,,,,left,1,0.2975,0,14,14,5,1,7,-200,left,712,2022-01-27_12h35.37.543,multiplicationStroop,2021.2.3,Win32,59.97720866,,,,,,,,,,,,,,,,,,,,,,,,,,,,,,,,,,,,,,,,,,,,,,,,,,,,,,,,,
,,,,left,1,0.27,0,15,15,1,1,2,-200,left,712,2022-01-27_12h35.37.543,multiplicationStroop,2021.2.3,Win32,59.97720866,,,,,,,,,,,,,,,,,,,,,,,,,,,,,,,,,,,,,,,,,,,,,,,,,,,,,,,,,
,,,,right,1,0.3382,1,0,16,11,1,4,200,right,712,2022-01-27_12h35.37.543,multiplicationStroop,2021.2.3,Win32,59.97720866,,,,,,,,,,,,,,,,,,,,,,,,,,,,,,,,,,,,,,,,,,,,,,,,,,,,,,,,,
,,,,left,1,0.2496,1,1,17,6,1,8,-200,left,712,2022-01-27_12h35.37.543,multiplicationStroop,2021.2.3,Win32,59.97720866,,,,,,,,,,,,,,,,,,,,,,,,,,,,,,,,,,,,,,,,,,,,,,,,,,,,,,,,,
,,,,right,1,0.2439,1,2,18,14,1,8,200,right,712,2022-01-27_12h35.37.543,multiplicationStroop,2021.2.3,Win32,59.97720866,,,,,,,,,,,,,,,,,,,,,,,,,,,,,,,,,,,,,,,,,,,,,,,,,,,,,,,,,
,,,,right,1,0.2997,1,3,19,13,1,7,200,right,712,2022-01-27_12h35.37.543,multiplicationStroop,2021.2.3,Win32,59.97720866,,,,,,,,,,,,,,,,,,,,,,,,,,,,,,,,,,,,,,,,,,,,,,,,,,,,,,,,,
,,,,left,1,0.2462,1,4,20,7,1,9,-200,left,712,2022-01-27_12h35.37.543,multiplicationStroop,2021.2.3,Win32,59.97720866,,,,,,,,,,,,,,,,,,,,,,,,,,,,,,,,,,,,,,,,,,,,,,,,,,,,,,,,,
,,,,right,1,0.2134,1,5,21,12,1,6,200,right,712,2022-01-27_12h35.37.543,multiplicationStroop,2021.2.3,Win32,59.97720866,,,,,,,,,,,,,,,,,,,,,,,,,,,,,,,,,,,,,,,,,,,,,,,,,,,,,,,,,
,,,,left,1,0.2438,1,6,22,1,1,2,-200,left,712,2022-01-27_12h35.37.543,multiplicationStroop,2021.2.3,Win32,59.97720866,,,,,,,,,,,,,,,,,,,,,,,,,,,,,,,,,,,,,,,,,,,,,,,,,,,,,,,,,
,,,,left,1,0.2945,1,7,23,4,1,6,-200,left,712,2022-01-27_12h35.37.543,multiplicationStroop,2021.2.3,Win32,59.97720866,,,,,,,,,,,,,,,,,,,,,,,,,,,,,,,,,,,,,,,,,,,,,,,,,,,,,,,,,
,,,,right,1,0.2694,1,8,24,10,1,3,200,right,712,2022-01-27_12h35.37.543,multiplicationStroop,2021.2.3,Win32,59.97720866,,,,,,,,,,,,,,,,,,,,,,,,,,,,,,,,,,,,,,,,,,,,,,,,,,,,,,,,,
,,,,left,1,0.2797,1,9,25,3,1,4,-200,left,712,2022-01-27_12h35.37.543,multiplicationStroop,2021.2.3,Win32,59.97720866,,,,,,,,,,,,,,,,,,,,,,,,,,,,,,,,,,,,,,,,,,,,,,,,,,,,,,,,,
,,,,right,1,0.2794,1,10,26,8,1,1,200,right,712,2022-01-27_12h35.37.543,multiplicationStroop,2021.2.3,Win32,59.97720866,,,,,,,,,,,,,,,,,,,,,,,,,,,,,,,,,,,,,,,,,,,,,,,,,,,,,,,,,
,,,,right,1,0.3225,1,11,27,15,1,9,200,right,712,2022-01-27_12h35.37.543,multiplicationStroop,2021.2.3,Win32,59.97720866,,,,,,,,,,,,,,,,,,,,,,,,,,,,,,,,,,,,,,,,,,,,,,,,,,,,,,,,,
,,,,left,1,0.3104,1,12,28,5,1,7,-200,left,712,2022-01-27_12h35.37.543,multiplicationStroop,2021.2.3,Win32,59.97720866,,,,,,,,,,,,,,,,,,,,,,,,,,,,,,,,,,,,,,,,,,,,,,,,,,,,,,,,,
,,,,right,1,0.3021,1,13,29,9,1,2,200,right,712,2022-01-27_12h35.37.543,multiplicationStroop,2021.2.3,Win32,59.97720866,,,,,,,,,,,,,,,,,,,,,,,,,,,,,,,,,,,,,,,,,,,,,,,,,,,,,,,,,
,,,,left,1,0.2494,1,14,30,2,1,3,-200,left,712,2022-01-27_12h35.37.543,multiplicationStroop,2021.2.3,Win32,59.97720866,,,,,,,,,,,,,,,,,,,,,,,,,,,,,,,,,,,,,,,,,,,,,,,,,,,,,,,,,
,,,,left,1,0.3268,1,15,31,0,1,1,-200,left,712,2022-01-27_12h35.37.543,multiplicationStroop,2021.2.3,Win32,59.97720866,,,,,,,,,,,,,,,,,,,,,,,,,,,,,,,,,,,,,,,,,,,,,,,,,,,,,,,,,
,,,,left,1,0.2545,2,0,32,2,1,3,-200,left,712,2022-01-27_12h35.37.543,multiplicationStroop,2021.2.3,Win32,59.97720866,,,,,,,,,,,,,,,,,,,,,,,,,,,,,,,,,,,,,,,,,,,,,,,,,,,,,,,,,
,,,,left,1,0.2675,2,1,33,1,1,2,-200,left,712,2022-01-27_12h35.37.543,multiplicationStroop,2021.2.3,Win32,59.97720866,,,,,,,,,,,,,,,,,,,,,,,,,,,,,,,,,,,,,,,,,,,,,,,,,,,,,,,,,
,,,,right,1,0.2876,2,2,34,14,1,8,200,right,712,2022-01-27_12h35.37.543,multiplicationStroop,2021.2.3,Win32,59.97720866,,,,,,,,,,,,,,,,,,,,,,,,,,,,,,,,,,,,,,,,,,,,,,,,,,,,,,,,,
,,,,right,1,0.3976,2,3,35,13,1,7,200,right,712,2022-01-27_12h35.37.543,multiplicationStroop,2021.2.3,Win32,59.97720866,,,,,,,,,,,,,,,,,,,,,,,,,,,,,,,,,,,,,,,,,,,,,,,,,,,,,,,,,
,,,,right,1,0.2341,2,4,36,12,1,6,200,right,712,2022-01-27_12h35.37.543,multiplicationStroop,2021.2.3,Win32,59.97720866,,,,,,,,,,,,,,,,,,,,,,,,,,,,,,,,,,,,,,,,,,,,,,,,,,,,,,,,,
,,,,right,1,0.2537,2,5,37,11,1,4,200,right,712,2022-01-27_12h35.37.543,multiplicationStroop,2021.2.3,Win32,59.97720866,,,,,,,,,,,,,,,,,,,,,,,,,,,,,,,,,,,,,,,,,,,,,,,,,,,,,,,,,
,,,,left,1,0.2854,2,6,38,7,1,9,-200,left,712,2022-01-27_12h35.37.543,multiplicationStroop,2021.2.3,Win32,59.97720866,,,,,,,,,,,,,,,,,,,,,,,,,,,,,,,,,,,,,,,,,,,,,,,,,,,,,,,,,
,,,,left,1,0.275,2,7,39,3,1,4,-200,left,712,2022-01-27_12h35.37.543,multiplicationStroop,2021.2.3,Win32,59.97720866,,,,,,,,,,,,,,,,,,,,,,,,,,,,,,,,,,,,,,,,,,,,,,,,,,,,,,,,,
,,,,left,1,0.2769,2,8,40,0,1,1,-200,left,712,2022-01-27_12h35.37.543,multiplicationStroop,2021.2.3,Win32,59.97720866,,,,,,,,,,,,,,,,,,,,,,,,,,,,,,,,,,,,,,,,,,,,,,,,,,,,,,,,,
,,,,right,1,0.2607,2,9,41,8,1,1,200,right,712,2022-01-27_12h35.37.543,multiplicationStroop,2021.2.3,Win32,59.97720866,,,,,,,,,,,,,,,,,,,,,,,,,,,,,,,,,,,,,,,,,,,,,,,,,,,,,,,,,
,,,,left,1,0.2489,2,10,42,5,1,7,-200,left,712,2022-01-27_12h35.37.543,multiplicationStroop,2021.2.3,Win32,59.97720866,,,,,,,,,,,,,,,,,,,,,,,,,,,,,,,,,,,,,,,,,,,,,,,,,,,,,,,,,
,,,,left,1,0.3014,2,11,43,4,1,6,-200,left,712,2022-01-27_12h35.37.543,multiplicationStroop,2021.2.3,Win32,59.97720866,,,,,,,,,,,,,,,,,,,,,,,,,,,,,,,,,,,,,,,,,,,,,,,,,,,,,,,,,
,,,,right,1,0.3047,2,12,44,10,1,3,200,right,712,2022-01-27_12h35.37.543,multiplicationStroop,2021.2.3,Win32,59.97720866,,,,,,,,,,,,,,,,,,,,,,,,,,,,,,,,,,,,,,,,,,,,,,,,,,,,,,,,,
,,,,right,1,0.2979,2,13,45,15,1,9,200,right,712,2022-01-27_12h35.37.543,multiplicationStroop,2021.2.3,Win32,59.97720866,,,,,,,,,,,,,,,,,,,,,,,,,,,,,,,,,,,,,,,,,,,,,,,,,,,,,,,,,
,,,,right,1,0.2768,2,14,46,9,1,2,200,right,712,2022-01-27_12h35.37.543,multiplicationStroop,2021.2.3,Win32,59.97720866,,,,,,,,,,,,,,,,,,,,,,,,,,,,,,,,,,,,,,,,,,,,,,,,,,,,,,,,,
,,,,left,1,0.3245,2,15,47,6,1,8,-200,left,712,2022-01-27_12h35.37.543,multiplicationStroop,2021.2.3,Win32,59.97720866,,,,,,,,,,,,,,,,,,,,,,,,,,,,,,,,,,,,,,,,,,,,,,,,,,,,,,,,,
,,,,right,1,0.2513,3,0,48,12,1,6,200,right,712,2022-01-27_12h35.37.543,multiplicationStroop,2021.2.3,Win32,59.97720866,,,,,,,,,,,,,,,,,,,,,,,,,,,,,,,,,,,,,,,,,,,,,,,,,,,,,,,,,
,,,,right,1,0.4899,3,1,49,14,1,8,200,right,712,2022-01-27_12h35.37.543,multiplicationStroop,2021.2.3,Win32,59.97720866,,,,,,,,,,,,,,,,,,,,,,,,,,,,,,,,,,,,,,,,,,,,,,,,,,,,,,,,,
,,,,left,1,0.34,3,2,50,2,1,3,-200,left,712,2022-01-27_12h35.37.543,multiplicationStroop,2021.2.3,Win32,59.97720866,,,,,,,,,,,,,,,,,,,,,,,,,,,,,,,,,,,,,,,,,,,,,,,,,,,,,,,,,
,,,,left,1,0.3012,3,3,51,7,1,9,-200,left,712,2022-01-27_12h35.37.543,multiplicationStroop,2021.2.3,Win32,59.97720866,,,,,,,,,,,,,,,,,,,,,,,,,,,,,,,,,,,,,,,,,,,,,,,,,,,,,,,,,
,,,,right,1,0.2812,3,4,52,11,1,4,200,right,712,2022-01-27_12h35.37.543,multiplicationStroop,2021.2.3,Win32,59.97720866,,,,,,,,,,,,,,,,,,,,,,,,,,,,,,,,,,,,,,,,,,,,,,,,,,,,,,,,,
,,,,left,1,0.2575,3,5,53,5,1,7,-200,left,712,2022-01-27_12h35.37.543,multiplicationStroop,2021.2.3,Win32,59.97720866,,,,,,,,,,,,,,,,,,,,,,,,,,,,,,,,,,,,,,,,,,,,,,,,,,,,,,,,,
,,,,right,1,0.2764,3,6,54,9,1,2,200,right,712,2022-01-27_12h35.37.543,multiplicationStroop,2021.2.3,Win32,59.97720866,,,,,,,,,,,,,,,,,,,,,,,,,,,,,,,,,,,,,,,,,,,,,,,,,,,,,,,,,
,,,,left,1,0.2813,3,7,55,1,1,2,-200,left,712,2022-01-27_12h35.37.543,multiplicationStroop,2021.2.3,Win32,59.97720866,,,,,,,,,,,,,,,,,,,,,,,,,,,,,,,,,,,,,,,,,,,,,,,,,,,,,,,,,
,,,,left,1,0.3004,3,8,56,4,1,6,-200,left,712,2022-01-27_12h35.37.543,multiplicationStroop,2021.2.3,Win32,59.97720866,,,,,,,,,,,,,,,,,,,,,,,,,,,,,,,,,,,,,,,,,,,,,,,,,,,,,,,,,
,,,,left,1,0.257,3,9,57,0,1,1,-200,left,712,2022-01-27_12h35.37.543,multiplicationStroop,2021.2.3,Win32,59.97720866,,,,,,,,,,,,,,,,,,,,,,,,,,,,,,,,,,,,,,,,,,,,,,,,,,,,,,,,,
,,,,right,1,0.2948,3,10,58,8,1,1,200,right,712,2022-01-27_12h35.37.543,multiplicationStroop,2021.2.3,Win32,59.97720866,,,,,,,,,,,,,,,,,,,,,,,,,,,,,,,,,,,,,,,,,,,,,,,,,,,,,,,,,
,,,,right,1,0.2878,3,11,59,10,1,3,200,right,712,2022-01-27_12h35.37.543,multiplicationStroop,2021.2.3,Win32,59.97720866,,,,,,,,,,,,,,,,,,,,,,,,,,,,,,,,,,,,,,,,,,,,,,,,,,,,,,,,,
,,,,right,1,0.3105,3,12,60,13,1,7,200,right,712,2022-01-27_12h35.37.543,multiplicationStroop,2021.2.3,Win32,59.97720866,,,,,,,,,,,,,,,,,,,,,,,,,,,,,,,,,,,,,,,,,,,,,,,,,,,,,,,,,
,,,,left,1,0.2768,3,13,61,3,1,4,-200,left,712,2022-01-27_12h35.37.543,multiplicationStroop,2021.2.3,Win32,59.97720866,,,,,,,,,,,,,,,,,,,,,,,,,,,,,,,,,,,,,,,,,,,,,,,,,,,,,,,,,
,,,,left,1,0.3002,3,14,62,6,1,8,-200,left,712,2022-01-27_12h35.37.543,multiplicationStroop,2021.2.3,Win32,59.97720866,,,,,,,,,,,,,,,,,,,,,,,,,,,,,,,,,,,,,,,,,,,,,,,,,,,,,,,,,
,,,,right,1,0.2578,3,15,63,15,1,9,200,right,712,2022-01-27_12h35.37.543,multiplicationStroop,2021.2.3,Win32,59.97720866,,,,,,,,,,,,,,,,,,,,,,,,,,,,,,,,,,,,,,,,,,,,,,,,,,,,,,,,,
,,,,,,,,,,,,,,,712,2022-01-27_12h35.37.543,multiplicationStroop,2021.2.3,Win32,59.97720866,space,26.5322,space,20.1007,left,1,0.9703,0,0,0,36,1,3,1,3 | 1,2,1.4111,1.9756,incongruent,left,,,,,,stimulusFile/magnitude.xlsx,,,,,,,,,,,,,,,,,,,,,,,,,,,,,,,
,,,,,,,,,,,,,,,712,2022-01-27_12h35.37.543,multiplicationStroop,2021.2.3,Win32,59.97720866,,,,,left,1,0.6502,0,1,1,23,1,9,4,9 | 4,5,1.9756,1.4111,congruent,left,,,,,,stimulusFile/magnitude.xlsx,,,,,,,,,,,,,,,,,,,,,,,,,,,,,,,
,,,,,,,,,,,,,,,712,2022-01-27_12h35.37.543,multiplicationStroop,2021.2.3,Win32,59.97720866,,,,,right,1,0.6555,0,2,2,57,1,2,4,2 | 4,2,1.6933,1.6933,neutral,right,,,,,,stimulusFile/magnitude.xlsx,,,,,,,,,,,,,,,,,,,,,,,,,,,,,,,
,,,,,,,,,,,,,,,712,2022-01-27_12h35.37.543,multiplicationStroop,2021.2.3,Win32,59.97720866,,,,,right,1,0.6335,0,3,3,2,1,6,7,6 | 7,1,1.4111,1.9756,congruent,right,,,,,,stimulusFile/magnitude.xlsx,,,,,,,,,,,,,,,,,,,,,,,,,,,,,,,
,,,,,,,,,,,,,,,712,2022-01-27_12h35.37.543,multiplicationStroop,2021.2.3,Win32,59.97720866,,,,,left,1,0.7001,0,4,4,28,1,2,1,2 | 1,1,1.4111,1.9756,incongruent,left,,,,,,stimulusFile/magnitude.xlsx,,,,,,,,,,,,,,,,,,,,,,,,,,,,,,,
,,,,,,,,,,,,,,,712,2022-01-27_12h35.37.543,multiplicationStroop,2021.2.3,Win32,59.97720866,,,,,right,1,0.767,0,5,5,65,1,2,7,2 | 7,5,1.6933,1.6933,neutral,right,,,,,,stimulusFile/magnitude.xlsx,,,,,,,,,,,,,,,,,,,,,,,,,,,,,,,
,,,,,,,,,,,,,,,712,2022-01-27_12h35.37.543,multiplicationStroop,2021.2.3,Win32,59.97720866,,,,,right,1,0.5841,0,6,6,11,1,7,9,7 | 9,2,1.4111,1.9756,congruent,right,,,,,,stimulusFile/magnitude.xlsx,,,,,,,,,,,,,,,,,,,,,,,,,,,,,,,
,,,,,,,,,,,,,,,712,2022-01-27_12h35.37.543,multiplicationStroop,2021.2.3,Win32,59.97720866,,,,,left,1,0.624,0,7,7,46,1,8,3,8 | 3,5,1.4111,1.9756,incongruent,left,,,,,,stimulusFile/magnitude.xlsx,,,,,,,,,,,,,,,,,,,,,,,,,,,,,,,
,,,,,,,,,,,,,,,712,2022-01-27_12h35.37.543,multiplicationStroop,2021.2.3,Win32,59.97720866,,,,,right,1,0.593,0,8,8,48,1,1,2,1 | 2,1,1.6933,1.6933,neutral,right,,,,,,stimulusFile/magnitude.xlsx,,,,,,,,,,,,,,,,,,,,,,,,,,,,,,,
,,,,,,,,,,,,,,,712,2022-01-27_12h35.37.543,multiplicationStroop,2021.2.3,Win32,59.97720866,,,,,left,1,0.6231,0,9,9,6,1,7,6,7 | 6,1,1.9756,1.4111,congruent,left,,,,,,stimulusFile/magnitude.xlsx,,,,,,,,,,,,,,,,,,,,,,,,,,,,,,,
,,,,,,,,,,,,,,,712,2022-01-27_12h35.37.543,multiplicationStroop,2021.2.3,Win32,59.97720866,,,,,right,1,0.6502,0,10,10,9,1,2,4,2 | 4,2,1.4111,1.9756,congruent,right,,,,,,stimulusFile/magnitude.xlsx,,,,,,,,,,,,,,,,,,,,,,,,,,,,,,,
,,,,,,,,,,,,,,,712,2022-01-27_12h35.37.543,multiplicationStroop,2021.2.3,Win32,59.97720866,,,,,right,1,0.7179,0,11,11,42,1,3,8,3 | 8,5,1.9756,1.4111,incongruent,right,,,,,,stimulusFile/magnitude.xlsx,,,,,,,,,,,,,,,,,,,,,,,,,,,,,,,
,,,,,,,,,,,,,,,712,2022-01-27_12h35.37.543,multiplicationStroop,2021.2.3,Win32,59.97720866,,,,,right,1,0.7168,0,12,12,8,1,1,3,1 | 3,2,1.4111,1.9756,congruent,right,,,,,,stimulusFile/magnitude.xlsx,,,,,,,,,,,,,,,,,,,,,,,,,,,,,,,
,,,,,,,,,,,,,,,712,2022-01-27_12h35.37.543,multiplicationStroop,2021.2.3,Win32,59.97720866,,,,,left,1,0.5669,0,13,13,4,1,2,1,2 | 1,1,1.9756,1.4111,congruent,left,,,,,,stimulusFile/magnitude.xlsx,,,,,,,,,,,,,,,,,,,,,,,,,,,,,,,
,,,,,,,,,,,,,,,712,2022-01-27_12h35.37.543,multiplicationStroop,2021.2.3,Win32,59.97720866,,,,,right,1,0.4836,0,14,14,17,1,2,7,2 | 7,5,1.4111,1.9756,congruent,right,,,,,,stimulusFile/magnitude.xlsx,,,,,,,,,,,,,,,,,,,,,,,,,,,,,,,
,,,,,,,,,,,,,,,712,2022-01-27_12h35.37.543,multiplicationStroop,2021.2.3,Win32,59.97720866,,,,,left,1,0.6835,0,15,15,44,1,6,1,6 | 1,5,1.4111,1.9756,incongruent,left,,,,,,stimulusFile/magnitude.xlsx,,,,,,,,,,,,,,,,,,,,,,,,,,,,,,,
,,,,,,,,,,,,,,,712,2022-01-27_12h35.37.543,multiplicationStroop,2021.2.3,Win32,59.97720866,,,,,left,1,0.5668,0,16,16,52,1,2,1,2 | 1,1,1.6933,1.6933,neutral,left,,,,,,stimulusFile/magnitude.xlsx,,,,,,,,,,,,,,,,,,,,,,,,,,,,,,,
,,,,,,,,,,,,,,,712,2022-01-27_12h35.37.543,multiplicationStroop,2021.2.3,Win32,59.97720866,,,,,left,1,0.5563,0,17,17,14,1,8,6,8 | 6,2,1.9756,1.4111,congruent,left,,,,,,stimulusFile/magnitude.xlsx,,,,,,,,,,,,,,,,,,,,,,,,,,,,,,,
,,,,,,,,,,,,,,,712,2022-01-27_12h35.37.543,multiplicationStroop,2021.2.3,Win32,59.97720866,,,,,right,1,0.4504,0,18,18,10,1,6,8,6 | 8,2,1.4111,1.9756,congruent,right,,,,,,stimulusFile/magnitude.xlsx,,,,,,,,,,,,,,,,,,,,,,,,,,,,,,,
,,,,,,,,,,,,,,,712,2022-01-27_12h35.37.543,multiplicationStroop,2021.2.3,Win32,59.97720866,,,,,left,1,0.7032,0,19,19,54,1,7,6,7 | 6,1,1.6933,1.6933,neutral,left,,,,,,stimulusFile/magnitude.xlsx,,,,,,,,,,,,,,,,,,,,,,,,,,,,,,,
,,,,,,,,,,,,,,,712,2022-01-27_12h35.37.543,multiplicationStroop,2021.2.3,Win32,59.97720866,,,,,right,0,0.5669,0,20,20,37,1,4,2,4 | 2,2,1.4111,1.9756,incongruent,left,,,,,,stimulusFile/magnitude.xlsx,,,,,,,,,,,,,,,,,,,,,,,,,,,,,,,
,,,,,,,,,,,,,,,712,2022-01-27_12h35.37.543,multiplicationStroop,2021.2.3,Win32,59.97720866,,,,,right,1,0.6429,0,21,21,16,1,1,6,1 | 6,5,1.4111,1.9756,congruent,right,,,,,,stimulusFile/magnitude.xlsx,,,,,,,,,,,,,,,,,,,,,,,,,,,,,,,
,,,,,,,,,,,,,,,712,2022-01-27_12h35.37.543,multiplicationStroop,2021.2.3,Win32,59.97720866,,,,,right,1,0.7339,0,22,22,32,1,1,3,1 | 3,2,1.9756,1.4111,incongruent,right,,,,,,stimulusFile/magnitude.xlsx,,,,,,,,,,,,,,,,,,,,,,,,,,,,,,,
,,,,,,,,,,,,,,,712,2022-01-27_12h35.37.543,multiplicationStroop,2021.2.3,Win32,59.97720866,,,,,right,1,0.7502,0,23,23,43,1,4,9,4 | 9,5,1.9756,1.4111,incongruent,right,,,,,,stimulusFile/magnitude.xlsx,,,,,,,,,,,,,,,,,,,,,,,,,,,,,,,
,,,,,,,,,,,,,,,712,2022-01-27_12h35.37.543,multiplicationStroop,2021.2.3,Win32,59.97720866,,,,,left,1,0.5931,0,24,24,70,1,8,3,8 | 3,5,1.6933,1.6933,neutral,left,,,,,,stimulusFile/magnitude.xlsx,,,,,,,,,,,,,,,,,,,,,,,,,,,,,,,
,,,,,,,,,,,,,,,712,2022-01-27_12h35.37.543,multiplicationStroop,2021.2.3,Win32,59.97720866,,,,,right,1,0.6733,0,25,25,27,1,8,9,8 | 9,1,1.9756,1.4111,incongruent,right,,,,,,stimulusFile/magnitude.xlsx,,,,,,,,,,,,,,,,,,,,,,,,,,,,,,,
,,,,,,,,,,,,,,,712,2022-01-27_12h35.37.543,multiplicationStroop,2021.2.3,Win32,59.97720866,,,,,right,1,0.8751,0,26,26,25,1,3,4,3 | 4,1,1.9756,1.4111,incongruent,right,,,,,,stimulusFile/magnitude.xlsx,,,,,,,,,,,,,,,,,,,,,,,,,,,,,,,
,,,,,,,,,,,,,,,712,2022-01-27_12h35.37.543,multiplicationStroop,2021.2.3,Win32,59.97720866,,,,,right,1,0.5721,0,27,27,26,1,6,7,6 | 7,1,1.9756,1.4111,incongruent,right,,,,,,stimulusFile/magnitude.xlsx,,,,,,,,,,,,,,,,,,,,,,,,,,,,,,,
,,,,,,,,,,,,,,,712,2022-01-27_12h35.37.543,multiplicationStroop,2021.2.3,Win32,59.97720866,,,,,right,1,0.5166,0,28,28,34,1,6,8,6 | 8,2,1.9756,1.4111,incongruent,right,,,,,,stimulusFile/magnitude.xlsx,,,,,,,,,,,,,,,,,,,,,,,,,,,,,,,
,,,,,,,,,,,,,,,712,2022-01-27_12h35.37.543,multiplicationStroop,2021.2.3,Win32,59.97720866,,,,,right,1,0.5217,0,29,29,18,1,3,8,3 | 8,5,1.4111,1.9756,congruent,right,,,,,,stimulusFile/magnitude.xlsx,,,,,,,,,,,,,,,,,,,,,,,,,,,,,,,
,,,,,,,,,,,,,,,712,2022-01-27_12h35.37.543,multiplicationStroop,2021.2.3,Win32,59.97720866,,,,,right,1,0.642,0,30,30,41,1,2,7,2 | 7,5,1.9756,1.4111,incongruent,right,,,,,,stimulusFile/magnitude.xlsx,,,,,,,,,,,,,,,,,,,,,,,,,,,,,,,
,,,,,,,,,,,,,,,712,2022-01-27_12h35.37.543,multiplicationStroop,2021.2.3,Win32,59.97720866,,,,,left,1,0.7169,0,31,31,47,1,9,4,9 | 4,5,1.4111,1.9756,incongruent,left,,,,,,stimulusFile/magnitude.xlsx,,,,,,,,,,,,,,,,,,,,,,,,,,,,,,,
,,,,,,,,,,,,,,,712,2022-01-27_12h35.37.543,multiplicationStroop,2021.2.3,Win32,59.97720866,,,,,left,1,0.5553,0,32,32,68,1,6,1,6 | 1,5,1.6933,1.6933,neutral,left,,,,,,stimulusFile/magnitude.xlsx,,,,,,,,,,,,,,,,,,,,,,,,,,,,,,,
,,,,,,,,,,,,,,,712,2022-01-27_12h35.37.543,multiplicationStroop,2021.2.3,Win32,59.97720866,,,,,right,1,0.7849,0,33,33,40,1,1,6,1 | 6,5,1.9756,1.4111,incongruent,right,,,,,,stimulusFile/magnitude.xlsx,,,,,,,,,,,,,,,,,,,,,,,,,,,,,,,
,,,,,,,,,,,,,,,712,2022-01-27_12h35.37.543,multiplicationStroop,2021.2.3,Win32,59.97720866,,,,,right,1,0.8503,0,34,34,33,1,2,4,2 | 4,2,1.9756,1.4111,incongruent,right,,,,,,stimulusFile/magnitude.xlsx,,,,,,,,,,,,,,,,,,,,,,,,,,,,,,,
,,,,,,,,,,,,,,,712,2022-01-27_12h35.37.543,multiplicationStroop,2021.2.3,Win32,59.97720866,,,,,right,1,0.5029,0,35,35,3,1,8,9,8 | 9,1,1.4111,1.9756,congruent,right,,,,,,stimulusFile/magnitude.xlsx,,,,,,,,,,,,,,,,,,,,,,,,,,,,,,,
,,,,,,,,,,,,,,,712,2022-01-27_12h35.37.543,multiplicationStroop,2021.2.3,Win32,59.97720866,,,,,left,1,0.5409,0,36,36,7,1,9,8,9 | 8,1,1.9756,1.4111,congruent,left,,,,,,stimulusFile/magnitude.xlsx,,,,,,,,,,,,,,,,,,,,,,,,,,,,,,,
,,,,,,,,,,,,,,,712,2022-01-27_12h35.37.543,multiplicationStroop,2021.2.3,Win32,59.97720866,,,,,left,1,0.7338,0,37,37,31,1,9,8,9 | 8,1,1.4111,1.9756,incongruent,left,,,,,,stimulusFile/magnitude.xlsx,,,,,,,,,,,,,,,,,,,,,,,,,,,,,,,
,,,,,,,,,,,,,,,712,2022-01-27_12h35.37.543,multiplicationStroop,2021.2.3,Win32,59.97720866,,,,,right,1,0.4505,0,38,38,67,1,4,9,4 | 9,5,1.6933,1.6933,neutral,right,,,,,,stimulusFile/magnitude.xlsx,,,,,,,,,,,,,,,,,,,,,,,,,,,,,,,
,,,,,,,,,,,,,,,712,2022-01-27_12h35.37.543,multiplicationStroop,2021.2.3,Win32,59.97720866,,,,,right,1,0.674,0,39,39,1,1,3,4,3 | 4,1,1.4111,1.9756,congruent,right,,,,,,stimulusFile/magnitude.xlsx,,,,,,,,,,,,,,,,,,,,,,,,,,,,,,,
,,,,,,,,,,,,,,,712,2022-01-27_12h35.37.543,multiplicationStroop,2021.2.3,Win32,59.97720866,,,,,right,1,0.4669,0,40,40,0,1,1,2,1 | 2,1,1.4111,1.9756,congruent,right,,,,,,stimulusFile/magnitude.xlsx,,,,,,,,,,,,,,,,,,,,,,,,,,,,,,,
,,,,,,,,,,,,,,,712,2022-01-27_12h35.37.543,multiplicationStroop,2021.2.3,Win32,59.97720866,,,,,left,1,0.4672,0,41,41,5,1,4,3,4 | 3,1,1.9756,1.4111,congruent,left,,,,,,stimulusFile/magnitude.xlsx,,,,,,,,,,,,,,,,,,,,,,,,,,,,,,,
,,,,,,,,,,,,,,,712,2022-01-27_12h35.37.543,multiplicationStroop,2021.2.3,Win32,59.97720866,,,,,right,1,0.5668,0,42,42,51,1,8,9,8 | 9,1,1.6933,1.6933,neutral,right,,,,,,stimulusFile/magnitude.xlsx,,,,,,,,,,,,,,,,,,,,,,,,,,,,,,,
,,,,,,,,,,,,,,,712,2022-01-27_12h35.37.543,multiplicationStroop,2021.2.3,Win32,59.97720866,,,,,left,1,0.4672,0,43,43,15,1,9,7,9 | 7,2,1.9756,1.4111,congruent,left,,,,,,stimulusFile/magnitude.xlsx,,,,,,,,,,,,,,,,,,,,,,,,,,,,,,,
,,,,,,,,,,,,,,,712,2022-01-27_12h35.37.543,multiplicationStroop,2021.2.3,Win32,59.97720866,,,,,left,1,0.5074,0,44,44,22,1,8,3,8 | 3,5,1.9756,1.4111,congruent,left,,,,,,stimulusFile/magnitude.xlsx,,,,,,,,,,,,,,,,,,,,,,,,,,,,,,,
,,,,,,,,,,,,,,,712,2022-01-27_12h35.37.543,multiplicationStroop,2021.2.3,Win32,59.97720866,,,,,left,1,0.521,0,45,45,61,1,4,2,4 | 2,2,1.6933,1.6933,neutral,left,,,,,,stimulusFile/magnitude.xlsx,,,,,,,,,,,,,,,,,,,,,,,,,,,,,,,
,,,,,,,,,,,,,,,712,2022-01-27_12h35.37.543,multiplicationStroop,2021.2.3,Win32,59.97720866,,,,,right,1,0.4437,0,46,46,50,1,6,7,6 | 7,1,1.6933,1.6933,neutral,right,,,,,,stimulusFile/magnitude.xlsx,,,,,,,,,,,,,,,,,,,,,,,,,,,,,,,
,,,,,,,,,,,,,,,712,2022-01-27_12h35.37.543,multiplicationStroop,2021.2.3,Win32,59.97720866,,,,,left,1,0.576,0,47,47,21,1,7,2,7 | 2,5,1.9756,1.4111,congruent,left,,,,,,stimulusFile/magnitude.xlsx,,,,,,,,,,,,,,,,,,,,,,,,,,,,,,,
,,,,,,,,,,,,,,,712,2022-01-27_12h35.37.543,multiplicationStroop,2021.2.3,Win32,59.97720866,,,,,left,1,0.4836,0,48,48,60,1,3,1,3 | 1,2,1.6933,1.6933,neutral,left,,,,,,stimulusFile/magnitude.xlsx,,,,,,,,,,,,,,,,,,,,,,,,,,,,,,,
,,,,,,,,,,,,,,,712,2022-01-27_12h35.37.543,multiplicationStroop,2021.2.3,Win32,59.97720866,,,,,left,1,0.4211,0,49,49,12,1,3,1,3 | 1,2,1.9756,1.4111,congruent,left,,,,,,stimulusFile/magnitude.xlsx,,,,,,,,,,,,,,,,,,,,,,,,,,,,,,,
,,,,,,,,,,,,,,,712,2022-01-27_12h35.37.543,multiplicationStroop,2021.2.3,Win32,59.97720866,,,,,left,1,0.6673,0,50,50,55,1,9,8,9 | 8,1,1.6933,1.6933,neutral,left,,,,,,stimulusFile/magnitude.xlsx,,,,,,,,,,,,,,,,,,,,,,,,,,,,,,,
,,,,,,,,,,,,,,,712,2022-01-27_12h35.37.543,multiplicationStroop,2021.2.3,Win32,59.97720866,,,,,right,1,0.5837,0,51,51,58,1,6,8,6 | 8,2,1.6933,1.6933,neutral,right,,,,,,stimulusFile/magnitude.xlsx,,,,,,,,,,,,,,,,,,,,,,,,,,,,,,,
,,,,,,,,,,,,,,,712,2022-01-27_12h35.37.543,multiplicationStroop,2021.2.3,Win32,59.97720866,,,,,left,1,0.5338,0,52,52,53,1,4,3,4 | 3,1,1.6933,1.6933,neutral,left,,,,,,stimulusFile/magnitude.xlsx,,,,,,,,,,,,,,,,,,,,,,,,,,,,,,,
,,,,,,,,,,,,,,,712,2022-01-27_12h35.37.543,multiplicationStroop,2021.2.3,Win32,59.97720866,,,,,left,1,0.4684,0,53,53,13,1,4,2,4 | 2,2,1.9756,1.4111,congruent,left,,,,,,stimulusFile/magnitude.xlsx,,,,,,,,,,,,,,,,,,,,,,,,,,,,,,,
,,,,,,,,,,,,,,,712,2022-01-27_12h35.37.543,multiplicationStroop,2021.2.3,Win32,59.97720866,,,,,right,1,0.4689,0,54,54,59,1,7,9,7 | 9,2,1.6933,1.6933,neutral,right,,,,,,stimulusFile/magnitude.xlsx,,,,,,,,,,,,,,,,,,,,,,,,,,,,,,,
,,,,,,,,,,,,,,,712,2022-01-27_12h35.37.543,multiplicationStroop,2021.2.3,Win32,59.97720866,,,,,left,1,0.5037,0,55,55,39,1,9,7,9 | 7,2,1.4111,1.9756,incongruent,left,,,,,,stimulusFile/magnitude.xlsx,,,,,,,,,,,,,,,,,,,,,,,,,,,,,,,
,,,,,,,,,,,,,,,712,2022-01-27_12h35.37.543,multiplicationStroop,2021.2.3,Win32,59.97720866,,,,,right,1,0.4188,0,56,56,66,1,3,8,3 | 8,5,1.6933,1.6933,neutral,right,,,,,,stimulusFile/magnitude.xlsx,,,,,,,,,,,,,,,,,,,,,,,,,,,,,,,
,,,,,,,,,,,,,,,712,2022-01-27_12h35.37.543,multiplicationStroop,2021.2.3,Win32,59.97720866,,,,,left,1,0.5355,0,57,57,69,1,7,2,7 | 2,5,1.6933,1.6933,neutral,left,,,,,,stimulusFile/magnitude.xlsx,,,,,,,,,,,,,,,,,,,,,,,,,,,,,,,
,,,,,,,,,,,,,,,712,2022-01-27_12h35.37.543,multiplicationStroop,2021.2.3,Win32,59.97720866,,,,,left,1,0.7002,0,58,58,63,1,9,7,9 | 7,2,1.6933,1.6933,neutral,left,,,,,,stimulusFile/magnitude.xlsx,,,,,,,,,,,,,,,,,,,,,,,,,,,,,,,
,,,,,,,,,,,,,,,712,2022-01-27_12h35.37.543,multiplicationStroop,2021.2.3,Win32,59.97720866,,,,,right,1,0.4401,0,59,59,19,1,4,9,4 | 9,5,1.4111,1.9756,congruent,right,,,,,,stimulusFile/magnitude.xlsx,,,,,,,,,,,,,,,,,,,,,,,,,,,,,,,
,,,,,,,,,,,,,,,712,2022-01-27_12h35.37.543,multiplicationStroop,2021.2.3,Win32,59.97720866,,,,,left,1,0.6029,0,60,60,62,1,8,6,8 | 6,2,1.6933,1.6933,neutral,left,,,,,,stimulusFile/magnitude.xlsx,,,,,,,,,,,,,,,,,,,,,,,,,,,,,,,
,,,,,,,,,,,,,,,712,2022-01-27_12h35.37.543,multiplicationStroop,2021.2.3,Win32,59.97720866,,,,,left,1,0.7386,0,61,61,29,1,4,3,4 | 3,1,1.4111,1.9756,incongruent,left,,,,,,stimulusFile/magnitude.xlsx,,,,,,,,,,,,,,,,,,,,,,,,,,,,,,,
,,,,,,,,,,,,,,,712,2022-01-27_12h35.37.543,multiplicationStroop,2021.2.3,Win32,59.97720866,,,,,left,1,0.527,0,62,62,30,1,7,6,7 | 6,1,1.4111,1.9756,incongruent,left,,,,,,stimulusFile/magnitude.xlsx,,,,,,,,,,,,,,,,,,,,,,,,,,,,,,,
,,,,,,,,,,,,,,,712,2022-01-27_12h35.37.543,multiplicationStroop,2021.2.3,Win32,59.97720866,,,,,right,1,0.7037,0,63,63,49,1,3,4,3 | 4,1,1.6933,1.6933,neutral,right,,,,,,stimulusFile/magnitude.xlsx,,,,,,,,,,,,,,,,,,,,,,,,,,,,,,,
,,,,,,,,,,,,,,,712,2022-01-27_12h35.37.543,multiplicationStroop,2021.2.3,Win32,59.97720866,,,,,left,1,0.4839,0,64,64,45,1,7,2,7 | 2,5,1.4111,1.9756,incongruent,left,,,,,,stimulusFile/magnitude.xlsx,,,,,,,,,,,,,,,,,,,,,,,,,,,,,,,
,,,,,,,,,,,,,,,712,2022-01-27_12h35.37.543,multiplicationStroop,2021.2.3,Win32,59.97720866,,,,,right,1,0.417,0,65,65,64,1,1,6,1 | 6,5,1.6933,1.6933,neutral,right,,,,,,stimulusFile/magnitude.xlsx,,,,,,,,,,,,,,,,,,,,,,,,,,,,,,,
,,,,,,,,,,,,,,,712,2022-01-27_12h35.37.543,multiplicationStroop,2021.2.3,Win32,59.97720866,,,,,left,1,0.4347,0,66,66,20,1,6,1,6 | 1,5,1.9756,1.4111,congruent,left,,,,,,stimulusFile/magnitude.xlsx,,,,,,,,,,,,,,,,,,,,,,,,,,,,,,,
,,,,,,,,,,,,,,,712,2022-01-27_12h35.37.543,multiplicationStroop,2021.2.3,Win32,59.97720866,,,,,left,0,0.5412,0,67,67,24,1,1,2,1 | 2,1,1.9756,1.4111,incongruent,right,,,,,,stimulusFile/magnitude.xlsx,,,,,,,,,,,,,,,,,,,,,,,,,,,,,,,
,,,,,,,,,,,,,,,712,2022-01-27_12h35.37.543,multiplicationStroop,2021.2.3,Win32,59.97720866,,,,,left,1,0.6563,0,68,68,38,1,8,6,8 | 6,2,1.4111,1.9756,incongruent,left,,,,,,stimulusFile/magnitude.xlsx,,,,,,,,,,,,,,,,,,,,,,,,,,,,,,,
,,,,,,,,,,,,,,,712,2022-01-27_12h35.37.543,multiplicationStroop,2021.2.3,Win32,59.97720866,,,,,right,1,0.5671,0,69,69,35,1,7,9,7 | 9,2,1.9756,1.4111,incongruent,right,,,,,,stimulusFile/magnitude.xlsx,,,,,,,,,,,,,,,,,,,,,,,,,,,,,,,
,,,,,,,,,,,,,,,712,2022-01-27_12h35.37.543,multiplicationStroop,2021.2.3,Win32,59.97720866,,,,,right,1,0.5837,0,70,70,56,1,1,3,1 | 3,2,1.6933,1.6933,neutral,right,,,,,,stimulusFile/magnitude.xlsx,,,,,,,,,,,,,,,,,,,,,,,,,,,,,,,
,,,,,,,,,,,,,,,712,2022-01-27_12h35.37.543,multiplicationStroop,2021.2.3,Win32,59.97720866,,,,,left,1,0.559,0,71,71,71,1,9,4,9 | 4,5,1.6933,1.6933,neutral,left,,,,,,stimulusFile/magnitude.xlsx,,,,,,,,,,,,,,,,,,,,,,,,,,,,,,,
,,,,,,,,,,,,,,,712,2022-01-27_12h35.37.543,multiplicationStroop,2021.2.3,Win32,59.97720866,,,,,,,,,,,,,,,,,,,,,0,0,0,0,1,stimulusFile/magnitude.xlsx,NUMERICALLY larger (larger coefficient).,images/numericallyLarger.png,,,,,,,,,,,,,,,,,,,,,,,,,,,,,
,,,,,,,,,,,,,,,712,2022-01-27_12h35.37.543,multiplicationStroop,2021.2.3,Win32,59.97720866,space,15.0061,space,5.344,left,1,0.7669,0,0,0,43,1,4,9,4 | 9,5,1.9756,1.4111,incongruent,left,,,,,,stimulusFile/physical.xlsx,,,,,,,,,,,,,,,,,,,,,,,,,,,,,,,
,,,,,,,,,,,,,,,712,2022-01-27_12h35.37.543,multiplicationStroop,2021.2.3,Win32,59.97720866,,,,,left,1,0.5085,0,1,1,15,1,9,7,9 | 7,2,1.9756,1.4111,congruent,left,,,,,,stimulusFile/physical.xlsx,,,,,,,,,,,,,,,,,,,,,,,,,,,,,,,
,,,,,,,,,,,,,,,712,2022-01-27_12h35.37.543,multiplicationStroop,2021.2.3,Win32,59.97720866,,,,,left,1,0.4585,0,2,2,51,1,8,8,8 | 8,0,1.9756,1.4111,neutral,left,,,,,,stimulusFile/physical.xlsx,,,,,,,,,,,,,,,,,,,,,,,,,,,,,,,
,,,,,,,,,,,,,,,712,2022-01-27_12h35.37.543,multiplicationStroop,2021.2.3,Win32,59.97720866,,,,,right,1,0.4999,0,3,3,63,1,9,9,9 | 9,0,1.4111,1.9756,neutral,right,,,,,,stimulusFile/physical.xlsx,,,,,,,,,,,,,,,,,,,,,,,,,,,,,,,
,,,,,,,,,,,,,,,712,2022-01-27_12h35.37.543,multiplicationStroop,2021.2.3,Win32,59.97720866,,,,,right,1,0.4999,0,4,4,45,1,7,2,7 | 2,5,1.4111,1.9756,incongruent,right,,,,,,stimulusFile/physical.xlsx,,,,,,,,,,,,,,,,,,,,,,,,,,,,,,,
,,,,,,,,,,,,,,,712,2022-01-27_12h35.37.543,multiplicationStroop,2021.2.3,Win32,59.97720866,,,,,right,1,0.4856,0,5,5,44,1,6,1,6 | 1,5,1.4111,1.9756,incongruent,right,,,,,,stimulusFile/physical.xlsx,,,,,,,,,,,,,,,,,,,,,,,,,,,,,,,
,,,,,,,,,,,,,,,712,2022-01-27_12h35.37.543,multiplicationStroop,2021.2.3,Win32,59.97720866,,,,,left,1,0.3836,0,6,6,32,1,1,3,1 | 3,2,1.9756,1.4111,incongruent,left,,,,,,stimulusFile/physical.xlsx,,,,,,,,,,,,,,,,,,,,,,,,,,,,,,,
,,,,,,,,,,,,,,,712,2022-01-27_12h35.37.543,multiplicationStroop,2021.2.3,Win32,59.97720866,,,,,left,1,0.5833,0,7,7,6,1,7,6,7 | 6,1,1.9756,1.4111,congruent,left,,,,,,stimulusFile/physical.xlsx,,,,,,,,,,,,,,,,,,,,,,,,,,,,,,,
,,,,,,,,,,,,,,,712,2022-01-27_12h35.37.543,multiplicationStroop,2021.2.3,Win32,59.97720866,,,,,left,1,0.6055,0,8,8,25,1,3,4,3 | 4,1,1.9756,1.4111,incongruent,left,,,,,,stimulusFile/physical.xlsx,,,,,,,,,,,,,,,,,,,,,,,,,,,,,,,
,,,,,,,,,,,,,,,712,2022-01-27_12h35.37.543,multiplicationStroop,2021.2.3,Win32,59.97720866,,,,,left,1,0.4703,0,9,9,20,1,6,1,6 | 1,5,1.9756,1.4111,congruent,left,,,,,,stimulusFile/physical.xlsx,,,,,,,,,,,,,,,,,,,,,,,,,,,,,,,
,,,,,,,,,,,,,,,712,2022-01-27_12h35.37.543,multiplicationStroop,2021.2.3,Win32,59.97720866,,,,,left,1,0.4898,0,10,10,26,1,6,7,6 | 7,1,1.9756,1.4111,incongruent,left,,,,,,stimulusFile/physical.xlsx,,,,,,,,,,,,,,,,,,,,,,,,,,,,,,,
,,,,,,,,,,,,,,,712,2022-01-27_12h35.37.543,multiplicationStroop,2021.2.3,Win32,59.97720866,,,,,right,1,0.3702,0,11,11,60,1,3,3,3 | 3,0,1.4111,1.9756,neutral,right,,,,,,stimulusFile/physical.xlsx,,,,,,,,,,,,,,,,,,,,,,,,,,,,,,,
,,,,,,,,,,,,,,,712,2022-01-27_12h35.37.543,multiplicationStroop,2021.2.3,Win32,59.97720866,,,,,left,1,0.453,0,12,12,50,1,6,6,6 | 6,0,1.9756,1.4111,neutral,left,,,,,,stimulusFile/physical.xlsx,,,,,,,,,,,,,,,,,,,,,,,,,,,,,,,
,,,,,,,,,,,,,,,712,2022-01-27_12h35.37.543,multiplicationStroop,2021.2.3,Win32,59.97720866,,,,,left,1,0.4492,0,13,13,49,1,3,3,3 | 3,0,1.9756,1.4111,neutral,left,,,,,,stimulusFile/physical.xlsx,,,,,,,,,,,,,,,,,,,,,,,,,,,,,,,
,,,,,,,,,,,,,,,712,2022-01-27_12h35.37.543,multiplicationStroop,2021.2.3,Win32,59.97720866,,,,,right,1,0.374,0,14,14,58,1,6,6,6 | 6,0,1.4111,1.9756,neutral,right,,,,,,stimulusFile/physical.xlsx,,,,,,,,,,,,,,,,,,,,,,,,,,,,,,,
,,,,,,,,,,,,,,,712,2022-01-27_12h35.37.543,multiplicationStroop,2021.2.3,Win32,59.97720866,,,,,right,1,0.4066,0,15,15,1,1,3,4,3 | 4,1,1.4111,1.9756,congruent,right,,,,,,stimulusFile/physical.xlsx,,,,,,,,,,,,,,,,,,,,,,,,,,,,,,,
,,,,,,,,,,,,,,,712,2022-01-27_12h35.37.543,multiplicationStroop,2021.2.3,Win32,59.97720866,,,,,right,1,0.4498,0,16,16,56,1,1,1,1 | 1,0,1.4111,1.9756,neutral,right,,,,,,stimulusFile/physical.xlsx,,,,,,,,,,,,,,,,,,,,,,,,,,,,,,,
,,,,,,,,,,,,,,,712,2022-01-27_12h35.37.543,multiplicationStroop,2021.2.3,Win32,59.97720866,,,,,right,1,0.3586,0,17,17,61,1,4,4,4 | 4,0,1.4111,1.9756,neutral,right,,,,,,stimulusFile/physical.xlsx,,,,,,,,,,,,,,,,,,,,,,,,,,,,,,,
,,,,,,,,,,,,,,,712,2022-01-27_12h35.37.543,multiplicationStroop,2021.2.3,Win32,59.97720866,,,,,right,1,0.4897,0,18,18,57,1,2,2,2 | 2,0,1.4111,1.9756,neutral,right,,,,,,stimulusFile/physical.xlsx,,,,,,,,,,,,,,,,,,,,,,,,,,,,,,,
,,,,,,,,,,,,,,,712,2022-01-27_12h35.37.543,multiplicationStroop,2021.2.3,Win32,59.97720866,,,,,right,1,0.3704,0,19,19,10,1,6,8,6 | 8,2,1.4111,1.9756,congruent,right,,,,,,stimulusFile/physical.xlsx,,,,,,,,,,,,,,,,,,,,,,,,,,,,,,,
,,,,,,,,,,,,,,,712,2022-01-27_12h35.37.543,multiplicationStroop,2021.2.3,Win32,59.97720866,,,,,left,1,0.4493,0,20,20,68,1,6,6,6 | 6,0,1.9756,1.4111,neutral,left,,,,,,stimulusFile/physical.xlsx,,,,,,,,,,,,,,,,,,,,,,,,,,,,,,,
,,,,,,,,,,,,,,,712,2022-01-27_12h35.37.543,multiplicationStroop,2021.2.3,Win32,59.97720866,,,,,left,0,0.4832,0,21,21,64,1,1,1,1 | 1,0,1.9756,1.4111,neutral,right,,,,,,stimulusFile/physical.xlsx,,,,,,,,,,,,,,,,,,,,,,,,,,,,,,,
,,,,,,,,,,,,,,,712,2022-01-27_12h35.37.543,multiplicationStroop,2021.2.3,Win32,59.97720866,,,,,left,1,0.501,0,22,22,41,1,2,7,2 | 7,5,1.9756,1.4111,incongruent,left,,,,,,stimulusFile/physical.xlsx,,,,,,,,,,,,,,,,,,,,,,,,,,,,,,,
,,,,,,,,,,,,,,,712,2022-01-27_12h35.37.543,multiplicationStroop,2021.2.3,Win32,59.97720866,,,,,left,1,0.4721,0,23,23,23,1,9,4,9 | 4,5,1.9756,1.4111,congruent,left,,,,,,stimulusFile/physical.xlsx,,,,,,,,,,,,,,,,,,,,,,,,,,,,,,,
,,,,,,,,,,,,,,,712,2022-01-27_12h35.37.543,multiplicationStroop,2021.2.3,Win32,59.97720866,,,,,right,1,0.4074,0,24,24,18,1,3,8,3 | 8,5,1.4111,1.9756,congruent,right,,,,,,stimulusFile/physical.xlsx,,,,,,,,,,,,,,,,,,,,,,,,,,,,,,,
,,,,,,,,,,,,,,,712,2022-01-27_12h35.37.543,multiplicationStroop,2021.2.3,Win32,59.97720866,,,,,left,1,0.4349,0,25,25,70,1,8,8,8 | 8,0,1.9756,1.4111,neutral,left,,,,,,stimulusFile/physical.xlsx,,,,,,,,,,,,,,,,,,,,,,,,,,,,,,,
,,,,,,,,,,,,,,,712,2022-01-27_12h35.37.543,multiplicationStroop,2021.2.3,Win32,59.97720866,,,,,right,1,0.3836,0,26,26,65,1,2,2,2 | 2,0,1.4111,1.9756,neutral,right,,,,,,stimulusFile/physical.xlsx,,,,,,,,,,,,,,,,,,,,,,,,,,,,,,,
,,,,,,,,,,,,,,,712,2022-01-27_12h35.37.543,multiplicationStroop,2021.2.3,Win32,59.97720866,,,,,left,1,0.3719,0,27,27,55,1,9,9,9 | 9,0,1.9756,1.4111,neutral,left,,,,,,stimulusFile/physical.xlsx,,,,,,,,,,,,,,,,,,,,,,,,,,,,,,,
,,,,,,,,,,,,,,,712,2022-01-27_12h35.37.543,multiplicationStroop,2021.2.3,Win32,59.97720866,,,,,left,1,0.5088,0,28,28,48,1,1,1,1 | 1,0,1.9756,1.4111,neutral,left,,,,,,stimulusFile/physical.xlsx,,,,,,,,,,,,,,,,,,,,,,,,,,,,,,,
,,,,,,,,,,,,,,,712,2022-01-27_12h35.37.543,multiplicationStroop,2021.2.3,Win32,59.97720866,,,,,right,1,0.4055,0,29,29,37,1,4,2,4 | 2,2,1.4111,1.9756,incongruent,right,,,,,,stimulusFile/physical.xlsx,,,,,,,,,,,,,,,,,,,,,,,,,,,,,,,
,,,,,,,,,,,,,,,712,2022-01-27_12h35.37.543,multiplicationStroop,2021.2.3,Win32,59.97720866,,,,,right,1,0.4054,0,30,30,59,1,7,7,7 | 7,0,1.4111,1.9756,neutral,right,,,,,,stimulusFile/physical.xlsx,,,,,,,,,,,,,,,,,,,,,,,,,,,,,,,
,,,,,,,,,,,,,,,712,2022-01-27_12h35.37.543,multiplicationStroop,2021.2.3,Win32,59.97720866,,,,,left,1,0.3829,0,31,31,52,1,2,2,2 | 2,0,1.9756,1.4111,neutral,left,,,,,,stimulusFile/physical.xlsx,,,,,,,,,,,,,,,,,,,,,,,,,,,,,,,
,,,,,,,,,,,,,,,712,2022-01-27_12h35.37.543,multiplicationStroop,2021.2.3,Win32,59.97720866,,,,,right,0,0.3552,0,32,32,71,1,9,9,9 | 9,0,1.4111,1.9756,neutral,left,,,,,,stimulusFile/physical.xlsx,,,,,,,,,,,,,,,,,,,,,,,,,,,,,,,
,,,,,,,,,,,,,,,712,2022-01-27_12h35.37.543,multiplicationStroop,2021.2.3,Win32,59.97720866,,,,,right,1,0.3999,0,33,33,29,1,4,3,4 | 3,1,1.4111,1.9756,incongruent,right,,,,,,stimulusFile/physical.xlsx,,,,,,,,,,,,,,,,,,,,,,,,,,,,,,,
,,,,,,,,,,,,,,,712,2022-01-27_12h35.37.543,multiplicationStroop,2021.2.3,Win32,59.97720866,,,,,right,0,0.3236,0,34,34,42,1,3,8,3 | 8,5,1.9756,1.4111,incongruent,left,,,,,,stimulusFile/physical.xlsx,,,,,,,,,,,,,,,,,,,,,,,,,,,,,,,
,,,,,,,,,,,,,,,712,2022-01-27_12h35.37.543,multiplicationStroop,2021.2.3,Win32,59.97720866,,,,,left,0,0.6345,0,35,35,66,1,3,3,3 | 3,0,1.9756,1.4111,neutral,right,,,,,,stimulusFile/physical.xlsx,,,,,,,,,,,,,,,,,,,,,,,,,,,,,,,
,,,,,,,,,,,,,,,712,2022-01-27_12h35.37.543,multiplicationStroop,2021.2.3,Win32,59.97720866,,,,,left,1,0.451,0,36,36,4,1,2,1,2 | 1,1,1.9756,1.4111,congruent,left,,,,,,stimulusFile/physical.xlsx,,,,,,,,,,,,,,,,,,,,,,,,,,,,,,,
,,,,,,,,,,,,,,,712,2022-01-27_12h35.37.543,multiplicationStroop,2021.2.3,Win32,59.97720866,,,,,left,1,0.4501,0,37,37,5,1,4,3,4 | 3,1,1.9756,1.4111,congruent,left,,,,,,stimulusFile/physical.xlsx,,,,,,,,,,,,,,,,,,,,,,,,,,,,,,,
,,,,,,,,,,,,,,,712,2022-01-27_12h35.37.543,multiplicationStroop,2021.2.3,Win32,59.97720866,,,,,left,1,0.5506,0,38,38,27,1,8,9,8 | 9,1,1.9756,1.4111,incongruent,left,,,,,,stimulusFile/physical.xlsx,,,,,,,,,,,,,,,,,,,,,,,,,,,,,,,
,,,,,,,,,,,,,,,712,2022-01-27_12h35.37.543,multiplicationStroop,2021.2.3,Win32,59.97720866,,,,,right,1,0.3676,0,39,39,38,1,8,6,8 | 6,2,1.4111,1.9756,incongruent,right,,,,,,stimulusFile/physical.xlsx,,,,,,,,,,,,,,,,,,,,,,,,,,,,,,,
,,,,,,,,,,,,,,,712,2022-01-27_12h35.37.543,multiplicationStroop,2021.2.3,Win32,59.97720866,,,,,left,1,0.4538,0,40,40,21,1,7,2,7 | 2,5,1.9756,1.4111,congruent,left,,,,,,stimulusFile/physical.xlsx,,,,,,,,,,,,,,,,,,,,,,,,,,,,,,,
,,,,,,,,,,,,,,,712,2022-01-27_12h35.37.543,multiplicationStroop,2021.2.3,Win32,59.97720866,,,,,right,1,0.4186,0,41,41,19,1,4,9,4 | 9,5,1.4111,1.9756,congruent,right,,,,,,stimulusFile/physical.xlsx,,,,,,,,,,,,,,,,,,,,,,,,,,,,,,,
,,,,,,,,,,,,,,,712,2022-01-27_12h35.37.543,multiplicationStroop,2021.2.3,Win32,59.97720866,,,,,right,1,0.3696,0,42,42,62,1,8,8,8 | 8,0,1.4111,1.9756,neutral,right,,,,,,stimulusFile/physical.xlsx,,,,,,,,,,,,,,,,,,,,,,,,,,,,,,,
,,,,,,,,,,,,,,,712,2022-01-27_12h35.37.543,multiplicationStroop,2021.2.3,Win32,59.97720866,,,,,left,1,0.4834,0,43,43,34,1,6,8,6 | 8,2,1.9756,1.4111,incongruent,left,,,,,,stimulusFile/physical.xlsx,,,,,,,,,,,,,,,,,,,,,,,,,,,,,,,
,,,,,,,,,,,,,,,712,2022-01-27_12h35.37.543,multiplicationStroop,2021.2.3,Win32,59.97720866,,,,,left,1,0.583,0,44,44,40,1,1,6,1 | 6,5,1.9756,1.4111,incongruent,left,,,,,,stimulusFile/physical.xlsx,,,,,,,,,,,,,,,,,,,,,,,,,,,,,,,
,,,,,,,,,,,,,,,712,2022-01-27_12h35.37.543,multiplicationStroop,2021.2.3,Win32,59.97720866,,,,,right,1,0.3664,0,45,45,31,1,9,8,9 | 8,1,1.4111,1.9756,incongruent,right,,,,,,stimulusFile/physical.xlsx,,,,,,,,,,,,,,,,,,,,,,,,,,,,,,,
,,,,,,,,,,,,,,,712,2022-01-27_12h35.37.543,multiplicationStroop,2021.2.3,Win32,59.97720866,,,,,right,1,0.3685,0,46,46,30,1,7,6,7 | 6,1,1.4111,1.9756,incongruent,right,,,,,,stimulusFile/physical.xlsx,,,,,,,,,,,,,,,,,,,,,,,,,,,,,,,
,,,,,,,,,,,,,,,712,2022-01-27_12h35.37.543,multiplicationStroop,2021.2.3,Win32,59.97720866,,,,,right,1,0.4328,0,47,47,9,1,2,4,2 | 4,2,1.4111,1.9756,congruent,right,,,,,,stimulusFile/physical.xlsx,,,,,,,,,,,,,,,,,,,,,,,,,,,,,,,
,,,,,,,,,,,,,,,712,2022-01-27_12h35.37.543,multiplicationStroop,2021.2.3,Win32,59.97720866,,,,,right,0,0.321,0,48,48,13,1,4,2,4 | 2,2,1.9756,1.4111,congruent,left,,,,,,stimulusFile/physical.xlsx,,,,,,,,,,,,,,,,,,,,,,,,,,,,,,,
,,,,,,,,,,,,,,,712,2022-01-27_12h35.37.543,multiplicationStroop,2021.2.3,Win32,59.97720866,,,,,left,1,0.5335,0,49,49,22,1,8,3,8 | 3,5,1.9756,1.4111,congruent,left,,,,,,stimulusFile/physical.xlsx,,,,,,,,,,,,,,,,,,,,,,,,,,,,,,,
,,,,,,,,,,,,,,,712,2022-01-27_12h35.37.543,multiplicationStroop,2021.2.3,Win32,59.97720866,,,,,right,1,0.3997,0,50,50,17,1,2,7,2 | 7,5,1.4111,1.9756,congruent,right,,,,,,stimulusFile/physical.xlsx,,,,,,,,,,,,,,,,,,,,,,,,,,,,,,,
,,,,,,,,,,,,,,,712,2022-01-27_12h35.37.543,multiplicationStroop,2021.2.3,Win32,59.97720866,,,,,right,1,0.4516,0,51,51,47,1,9,4,9 | 4,5,1.4111,1.9756,incongruent,right,,,,,,stimulusFile/physical.xlsx,,,,,,,,,,,,,,,,,,,,,,,,,,,,,,,
,,,,,,,,,,,,,,,712,2022-01-27_12h35.37.543,multiplicationStroop,2021.2.3,Win32,59.97720866,,,,,right,1,0.3701,0,52,52,16,1,1,6,1 | 6,5,1.4111,1.9756,congruent,right,,,,,,stimulusFile/physical.xlsx,,,,,,,,,,,,,,,,,,,,,,,,,,,,,,,
,,,,,,,,,,,,,,,712,2022-01-27_12h35.37.543,multiplicationStroop,2021.2.3,Win32,59.97720866,,,,,right,1,0.4333,0,53,53,11,1,7,9,7 | 9,2,1.4111,1.9756,congruent,right,,,,,,stimulusFile/physical.xlsx,,,,,,,,,,,,,,,,,,,,,,,,,,,,,,,
,,,,,,,,,,,,,,,712,2022-01-27_12h35.37.543,multiplicationStroop,2021.2.3,Win32,59.97720866,,,,,right,1,0.4669,0,54,54,39,1,9,7,9 | 7,2,1.4111,1.9756,incongruent,right,,,,,,stimulusFile/physical.xlsx,,,,,,,,,,,,,,,,,,,,,,,,,,,,,,,
,,,,,,,,,,,,,,,712,2022-01-27_12h35.37.543,multiplicationStroop,2021.2.3,Win32,59.97720866,,,,,left,1,0.3991,0,55,55,54,1,7,7,7 | 7,0,1.9756,1.4111,neutral,left,,,,,,stimulusFile/physical.xlsx,,,,,,,,,,,,,,,,,,,,,,,,,,,,,,,
,,,,,,,,,,,,,,,712,2022-01-27_12h35.37.543,multiplicationStroop,2021.2.3,Win32,59.97720866,,,,,left,1,0.4836,0,56,56,53,1,4,4,4 | 4,0,1.9756,1.4111,neutral,left,,,,,,stimulusFile/physical.xlsx,,,,,,,,,,,,,,,,,,,,,,,,,,,,,,,
,,,,,,,,,,,,,,,712,2022-01-27_12h35.37.543,multiplicationStroop,2021.2.3,Win32,59.97720866,,,,,left,1,0.453,0,57,57,14,1,8,6,8 | 6,2,1.9756,1.4111,congruent,left,,,,,,stimulusFile/physical.xlsx,,,,,,,,,,,,,,,,,,,,,,,,,,,,,,,
,,,,,,,,,,,,,,,712,2022-01-27_12h35.37.543,multiplicationStroop,2021.2.3,Win32,59.97720866,,,,,left,1,0.4718,0,58,58,35,1,7,9,7 | 9,2,1.9756,1.4111,incongruent,left,,,,,,stimulusFile/physical.xlsx,,,,,,,,,,,,,,,,,,,,,,,,,,,,,,,
,,,,,,,,,,,,,,,712,2022-01-27_12h35.37.543,multiplicationStroop,2021.2.3,Win32,59.97720866,,,,,right,1,0.3852,0,59,59,46,1,8,3,8 | 3,5,1.4111,1.9756,incongruent,right,,,,,,stimulusFile/physical.xlsx,,,,,,,,,,,,,,,,,,,,,,,,,,,,,,,
,,,,,,,,,,,,,,,712,2022-01-27_12h35.37.543,multiplicationStroop,2021.2.3,Win32,59.97720866,,,,,right,1,0.3583,0,60,60,2,1,6,7,6 | 7,1,1.4111,1.9756,congruent,right,,,,,,stimulusFile/physical.xlsx,,,,,,,,,,,,,,,,,,,,,,,,,,,,,,,
,,,,,,,,,,,,,,,712,2022-01-27_12h35.37.543,multiplicationStroop,2021.2.3,Win32,59.97720866,,,,,right,0,0.3024,0,61,61,69,1,7,7,7 | 7,0,1.4111,1.9756,neutral,left,,,,,,stimulusFile/physical.xlsx,,,,,,,,,,,,,,,,,,,,,,,,,,,,,,,
,,,,,,,,,,,,,,,712,2022-01-27_12h35.37.543,multiplicationStroop,2021.2.3,Win32,59.97720866,,,,,right,1,0.7163,0,62,62,28,1,2,1,2 | 1,1,1.4111,1.9756,incongruent,right,,,,,,stimulusFile/physical.xlsx,,,,,,,,,,,,,,,,,,,,,,,,,,,,,,,
,,,,,,,,,,,,,,,712,2022-01-27_12h35.37.543,multiplicationStroop,2021.2.3,Win32,59.97720866,,,,,left,1,0.3993,0,63,63,24,1,1,2,1 | 2,1,1.9756,1.4111,incongruent,left,,,,,,stimulusFile/physical.xlsx,,,,,,,,,,,,,,,,,,,,,,,,,,,,,,,
,,,,,,,,,,,,,,,712,2022-01-27_12h35.37.543,multiplicationStroop,2021.2.3,Win32,59.97720866,,,,,left,1,0.4893,0,64,64,33,1,2,4,2 | 4,2,1.9756,1.4111,incongruent,left,,,,,,stimulusFile/physical.xlsx,,,,,,,,,,,,,,,,,,,,,,,,,,,,,,,
,,,,,,,,,,,,,,,712,2022-01-27_12h35.37.543,multiplicationStroop,2021.2.3,Win32,59.97720866,,,,,right,1,0.3875,0,65,65,67,1,4,4,4 | 4,0,1.4111,1.9756,neutral,right,,,,,,stimulusFile/physical.xlsx,,,,,,,,,,,,,,,,,,,,,,,,,,,,,,,
,,,,,,,,,,,,,,,712,2022-01-27_12h35.37.543,multiplicationStroop,2021.2.3,Win32,59.97720866,,,,,right,1,0.3574,0,66,66,0,1,1,2,1 | 2,1,1.4111,1.9756,congruent,right,,,,,,stimulusFile/physical.xlsx,,,,,,,,,,,,,,,,,,,,,,,,,,,,,,,
,,,,,,,,,,,,,,,712,2022-01-27_12h35.37.543,multiplicationStroop,2021.2.3,Win32,59.97720866,,,,,left,1,0.4212,0,67,67,12,1,3,1,3 | 1,2,1.9756,1.4111,congruent,left,,,,,,stimulusFile/physical.xlsx,,,,,,,,,,,,,,,,,,,,,,,,,,,,,,,
,,,,,,,,,,,,,,,712,2022-01-27_12h35.37.543,multiplicationStroop,2021.2.3,Win32,59.97720866,,,,,left,1,0.4856,0,68,68,7,1,9,8,9 | 8,1,1.9756,1.4111,congruent,left,,,,,,stimulusFile/physical.xlsx,,,,,,,,,,,,,,,,,,,,,,,,,,,,,,,
,,,,,,,,,,,,,,,712,2022-01-27_12h35.37.543,multiplicationStroop,2021.2.3,Win32,59.97720866,,,,,right,1,0.4003,0,69,69,36,1,3,1,3 | 1,2,1.4111,1.9756,incongruent,right,,,,,,stimulusFile/physical.xlsx,,,,,,,,,,,,,,,,,,,,,,,,,,,,,,,
,,,,,,,,,,,,,,,712,2022-01-27_12h35.37.543,multiplicationStroop,2021.2.3,Win32,59.97720866,,,,,right,1,0.3856,0,70,70,3,1,8,9,8 | 9,1,1.4111,1.9756,congruent,right,,,,,,stimulusFile/physical.xlsx,,,,,,,,,,,,,,,,,,,,,,,,,,,,,,,
,,,,,,,,,,,,,,,712,2022-01-27_12h35.37.543,multiplicationStroop,2021.2.3,Win32,59.97720866,,,,,right,1,0.4009,0,71,71,8,1,1,3,1 | 3,2,1.4111,1.9756,congruent,right,,,,,,stimulusFile/physical.xlsx,,,,,,,,,,,,,,,,,,,,,,,,,,,,,,,
,,,,,,,,,,,,,,,712,2022-01-27_12h35.37.543,multiplicationStroop,2021.2.3,Win32,59.97720866,,,,,,,,,,,,,,,,,,,,,0,1,1,1,1,stimulusFile/physical.xlsx,PHYSICALLY larger (larger font size).,images/physicallyLarger.png,,,,,,,,,,,,,,,,,,,,,,,,,,,,,
,,,,,,,,,,,,,,,712,2022-01-27_12h35.37.543,multiplicationStroop,2021.2.3,Win32,59.97720866,,,,,,,,,,,,,,,,,,,,,,,,,,,,,space,28.0832,space,2.0666,30,1.8953,1,0,0,0,1,1,5,×,6,5 × 6,congruent,smallerFirst,1,2,30,,,,,,,,
,,,,,,,,,,,,,,,712,2022-01-27_12h35.37.543,multiplicationStroop,2021.2.3,Win32,59.97720866,,,,,,,,,,,,,,,,,,,,,,,,,,,,,,,,,48,1.9833,1,0,1,1,4,1,6,×,8,6 × 8,congruent,smallerFirst,1,2,48,,,,,,,,
,,,,,,,,,,,,,,,712,2022-01-27_12h35.37.543,multiplicationStroop,2021.2.3,Win32,59.97720866,,,,,,,,,,,,,,,,,,,,,,,,,,,,,,,,,16,1.6725,1,0,2,2,19,1,8,×,2,8 × 2,congruent,largerFirst,2,1,16,,,,,,,,
,,,,,,,,,,,,,,,712,2022-01-27_12h35.37.543,multiplicationStroop,2021.2.3,Win32,59.97720866,,,,,,,,,,,,,,,,,,,,,,,,,,,,,,,,,36,1.9096,1,0,3,3,32,1,6,×,6,6 × 6,neutral,tie,1,2,36,,,,,,,,
,,,,,,,,,,,,,,,712,2022-01-27_12h35.37.543,multiplicationStroop,2021.2.3,Win32,59.97720866,,,,,,,,,,,,,,,,,,,,,,,,,,,,,,,,,32,1.9663,1,0,4,4,6,1,4,×,8,4 × 8,congruent,smallerFirst,1,2,32,,,,,,,,
,,,,,,,,,,,,,,,712,2022-01-27_12h35.37.543,multiplicationStroop,2021.2.3,Win32,59.97720866,,,,,,,,,,,,,,,,,,,,,,,,,,,,,,,,,40,1.4995,1,0,5,5,20,1,8,×,5,8 × 5,congruent,largerFirst,2,1,40,,,,,,,,
,,,,,,,,,,,,,,,712,2022-01-27_12h35.37.543,multiplicationStroop,2021.2.3,Win32,59.97720866,,,,,,,,,,,,,,,,,,,,,,,,,,,,,,,,,12,1.5997,1,0,6,6,5,1,2,×,6,2 × 6,congruent,smallerFirst,1,2,12,,,,,,,,
,,,,,,,,,,,,,,,712,2022-01-27_12h35.37.543,multiplicationStroop,2021.2.3,Win32,59.97720866,,,,,,,,,,,,,,,,,,,,,,,,,,,,,,,,,63,1.9661,1,0,7,7,7,1,7,×,9,7 × 9,congruent,smallerFirst,1,2,63,,,,,,,,
,,,,,,,,,,,,,,,712,2022-01-27_12h35.37.543,multiplicationStroop,2021.2.3,Win32,59.97720866,,,,,,,,,,,,,,,,,,,,,,,,,,,,,,,,,16,1.4163,1,0,8,8,30,1,4,×,4,4 × 4,neutral,tie,1,2,16,,,,,,,,
,,,,,,,,,,,,,,,712,2022-01-27_12h35.37.543,multiplicationStroop,2021.2.3,Win32,59.97720866,,,,,,,,,,,,,,,,,,,,,,,,,,,,,,,,,36,1.5664,1,0,9,9,14,1,9,×,4,9 × 4,congruent,largerFirst,2,1,36,,,,,,,,
,,,,,,,,,,,,,,,712,2022-01-27_12h35.37.543,multiplicationStroop,2021.2.3,Win32,59.97720866,,,,,,,,,,,,,,,,,,,,,,,,,,,,,,,,,35,1.5995,1,0,10,10,15,1,7,×,5,7 × 5,congruent,largerFirst,2,1,35,,,,,,,,
,,,,,,,,,,,,,,,712,2022-01-27_12h35.37.543,multiplicationStroop,2021.2.3,Win32,59.97720866,,,,,,,,,,,,,,,,,,,,,,,,,,,,,,,,,12,1.3499,1,0,11,11,16,1,4,×,3,4 × 3,congruent,largerFirst,2,1,12,,,,,,,,
,,,,,,,,,,,,,,,712,2022-01-27_12h35.37.543,multiplicationStroop,2021.2.3,Win32,59.97720866,,,,,,,,,,,,,,,,,,,,,,,,,,,,,,,,,20,1.4162,1,0,12,12,21,1,5,×,4,5 × 4,congruent,largerFirst,2,1,20,,,,,,,,
,,,,,,,,,,,,,,,712,2022-01-27_12h35.37.543,multiplicationStroop,2021.2.3,Win32,59.97720866,,,,,,,,,,,,,,,,,,,,,,,,,,,,,,,,,4,1.3494,1,0,13,13,28,1,2,×,2,2 × 2,neutral,tie,1,2,4,,,,,,,,
,,,,,,,,,,,,,,,712,2022-01-27_12h35.37.543,multiplicationStroop,2021.2.3,Win32,59.97720866,,,,,,,,,,,,,,,,,,,,,,,,,,,,,,,,,21,1.5666,1,0,14,14,2,1,3,×,7,3 × 7,congruent,smallerFirst,1,2,21,,,,,,,,
,,,,,,,,,,,,,,,712,2022-01-27_12h35.37.543,multiplicationStroop,2021.2.3,Win32,59.97720866,,,,,,,,,,,,,,,,,,,,,,,,,,,,,,,,,28,1.3658,1,0,15,15,13,1,4,×,7,4 × 7,congruent,smallerFirst,1,2,28,,,,,,,,
,,,,,,,,,,,,,,,712,2022-01-27_12h35.37.543,multiplicationStroop,2021.2.3,Win32,59.97720866,,,,,,,,,,,,,,,,,,,,,,,,,,,,,,,,,14,1.3164,1,0,16,16,0,1,2,×,7,2 × 7,congruent,smallerFirst,1,2,14,,,,,,,,
,,,,,,,,,,,,,,,712,2022-01-27_12h35.37.543,multiplicationStroop,2021.2.3,Win32,59.97720866,,,,,,,,,,,,,,,,,,,,,,,,,,,,,,,,,45,1.6161,1,0,17,17,9,1,5,×,9,5 × 9,congruent,smallerFirst,1,2,45,,,,,,,,
,,,,,,,,,,,,,,,712,2022-01-27_12h35.37.543,multiplicationStroop,2021.2.3,Win32,59.97720866,,,,,,,,,,,,,,,,,,,,,,,,,,,,,,,,,42,1.8501,1,0,18,18,17,1,7,×,6,7 × 6,congruent,largerFirst,2,1,42,,,,,,,,
,,,,,,,,,,,,,,,712,2022-01-27_12h35.37.543,multiplicationStroop,2021.2.3,Win32,59.97720866,,,,,,,,,,,,,,,,,,,,,,,,,,,,,,,,,10,1.4323,1,0,19,19,10,1,2,×,5,2 × 5,congruent,smallerFirst,1,2,10,,,,,,,,
,,,,,,,,,,,,,,,712,2022-01-27_12h35.37.543,multiplicationStroop,2021.2.3,Win32,59.97720866,,,,,,,,,,,,,,,,,,,,,,,,,,,,,,,,,81,2.1501,1,0,20,20,35,1,9,×,9,9 × 9,neutral,tie,1,2,81,,,,,,,,
,,,,,,,,,,,,,,,712,2022-01-27_12h35.37.543,multiplicationStroop,2021.2.3,Win32,59.97720866,,,,,,,,,,,,,,,,,,,,,,,,,,,,,,,,,64,1.6827,1,0,21,21,34,1,8,×,8,8 × 8,neutral,tie,1,2,64,,,,,,,,
,,,,,,,,,,,,,,,712,2022-01-27_12h35.37.543,multiplicationStroop,2021.2.3,Win32,59.97720866,,,,,,,,,,,,,,,,,,,,,,,,,,,,,,,,,72,1.7499,1,0,22,22,3,1,8,×,9,8 × 9,congruent,smallerFirst,1,2,72,,,,,,,,
,,,,,,,,,,,,,,,712,2022-01-27_12h35.37.543,multiplicationStroop,2021.2.3,Win32,59.97720866,,,,,,,,,,,,,,,,,,,,,,,,,,,,,,,,,56,2.0328,1,0,23,23,22,1,8,×,7,8 × 7,congruent,largerFirst,2,1,56,,,,,,,,
,,,,,,,,,,,,,,,712,2022-01-27_12h35.37.543,multiplicationStroop,2021.2.3,Win32,59.97720866,,,,,,,,,,,,,,,,,,,,,,,,,,,,,,,,,9,1.3166,1,0,24,24,29,1,3,×,3,3 × 3,neutral,tie,1,2,9,,,,,,,,
,,,,,,,,,,,,,,,712,2022-01-27_12h35.37.543,multiplicationStroop,2021.2.3,Win32,59.97720866,,,,,,,,,,,,,,,,,,,,,,,,,,,,,,,,,18,1.4329,1,0,25,25,8,1,2,×,9,2 × 9,congruent,smallerFirst,1,2,18,,,,,,,,
,,,,,,,,,,,,,,,712,2022-01-27_12h35.37.543,multiplicationStroop,2021.2.3,Win32,59.97720866,,,,,,,,,,,,,,,,,,,,,,,,,,,,,,,,,24,3.6732,1,0,26,26,11,1,4,×,6,4 × 6,congruent,smallerFirst,1,2,24,,,,,,,,
,,,,,,,,,,,,,,,712,2022-01-27_12h35.37.543,multiplicationStroop,2021.2.3,Win32,59.97720866,,,,,,,,,,,,,,,,,,,,,,,,,,,,,,,,,18,1.4858,1,0,27,27,25,1,6,×,3,6 × 3,congruent,largerFirst,2,1,18,,,,,,,,
,,,,,,,,,,,,,,,712,2022-01-27_12h35.37.543,multiplicationStroop,2021.2.3,Win32,59.97720866,,,,,,,,,,,,,,,,,,,,,,,,,,,,,,,,,49,1.8665,1,0,28,28,33,1,7,×,7,7 × 7,neutral,tie,1,2,49,,,,,,,,
,,,,,,,,,,,,,,,712,2022-01-27_12h35.37.543,multiplicationStroop,2021.2.3,Win32,59.97720866,,,,,,,,,,,,,,,,,,,,,,,,,,,,,,,,,54,1.7333,1,0,29,29,26,1,9,×,6,9 × 6,congruent,largerFirst,2,1,54,,,,,,,,
,,,,,,,,,,,,,,,712,2022-01-27_12h35.37.543,multiplicationStroop,2021.2.3,Win32,59.97720866,,,,,,,,,,,,,,,,,,,,,,,,,,,,,,,,,27,1.5995,1,0,30,30,12,1,3,×,9,3 × 9,congruent,smallerFirst,1,2,27,,,,,,,,
,,,,,,,,,,,,,,,712,2022-01-27_12h35.37.543,multiplicationStroop,2021.2.3,Win32,59.97720866,,,,,,,,,,,,,,,,,,,,,,,,,,,,,,,,,24,1.6159,1,0,31,31,24,1,8,×,3,8 × 3,congruent,largerFirst,2,1,24,,,,,,,,
,,,,,,,,,,,,,,,712,2022-01-27_12h35.37.543,multiplicationStroop,2021.2.3,Win32,59.97720866,,,,,,,,,,,,,,,,,,,,,,,,,,,,,,,,,25,1.2998,1,0,32,32,31,1,5,×,5,5 × 5,neutral,tie,1,2,25,,,,,,,,
,,,,,,,,,,,,,,,712,2022-01-27_12h35.37.543,multiplicationStroop,2021.2.3,Win32,59.97720866,,,,,,,,,,,,,,,,,,,,,,,,,,,,,,,,,8,1.3332,1,0,33,33,23,1,4,×,2,4 × 2,congruent,largerFirst,2,1,8,,,,,,,,
,,,,,,,,,,,,,,,712,2022-01-27_12h35.37.543,multiplicationStroop,2021.2.3,Win32,59.97720866,,,,,,,,,,,,,,,,,,,,,,,,,,,,,,,,,6,1.7163,1,0,34,34,27,1,3,×,2,3 × 2,congruent,largerFirst,2,1,6,,,,,,,,
,,,,,,,,,,,,,,,712,2022-01-27_12h35.37.543,multiplicationStroop,2021.2.3,Win32,59.97720866,,,,,,,,,,,,,,,,,,,,,,,,,,,,,,,,,15,1.2326,1,0,35,35,18,1,5,×,3,5 × 3,congruent,largerFirst,2,1,15,,,,,,,,
,,,,,,,,,,,,,,,712,2022-01-27_12h35.37.543,multiplicationStroop,2021.2.3,Win32,59.97720866,,,,,,,,,,,,,,,,,,,,,,,,,,,,,,,,,,,,,,,,,,,,,,,,,,0,0,0,3,1,stimulusFile/mult_blk4_congruent.xlsx,,
,,,,,,,,,,,,,,,712,2022-01-27_12h35.37.543,multiplicationStroop,2021.2.3,Win32,59.97720866,,,,,,,,,,,,,,,,,,,,,,,,,,,,,,,space,17.6186,25,1.3652,1,0,0,0,31,1,5,×,5,5 × 5,neutral,tie,1.5,1.5,25,,,,,,,,
,,,,,,,,,,,,,,,712,2022-01-27_12h35.37.543,multiplicationStroop,2021.2.3,Win32,59.97720866,,,,,,,,,,,,,,,,,,,,,,,,,,,,,,,,,24,1.3499,1,0,1,1,16,1,6,×,4,6 × 4,neutral,largerFirst,1.5,1.5,24,,,,,,,,
,,,,,,,,,,,,,,,712,2022-01-27_12h35.37.543,multiplicationStroop,2021.2.3,Win32,59.97720866,,,,,,,,,,,,,,,,,,,,,,,,,,,,,,,,,72,1.4824,1,0,2,2,25,1,9,×,8,9 × 8,neutral,largerFirst,1.5,1.5,72,,,,,,,,
,,,,,,,,,,,,,,,712,2022-01-27_12h35.37.543,multiplicationStroop,2021.2.3,Win32,59.97720866,,,,,,,,,,,,,,,,,,,,,,,,,,,,,,,,,35,1.483,0,0,3,3,33,1,7,×,7,7 × 7,neutral,tie,1.5,1.5,49,,,,,,,,
,,,,,,,,,,,,,,,712,2022-01-27_12h35.37.543,multiplicationStroop,2021.2.3,Win32,59.97720866,,,,,,,,,,,,,,,,,,,,,,,,,,,,,,,,,42,1.6499,1,0,4,4,20,1,7,×,6,7 × 6,neutral,largerFirst,1.5,1.5,42,,,,,,,,
,,,,,,,,,,,,,,,712,2022-01-27_12h35.37.543,multiplicationStroop,2021.2.3,Win32,59.97720866,,,,,,,,,,,,,,,,,,,,,,,,,,,,,,,,,32,1.8668,1,0,5,5,9,1,4,×,8,4 × 8,neutral,smallerFirst,1.5,1.5,32,,,,,,,,
,,,,,,,,,,,,,,,712,2022-01-27_12h35.37.543,multiplicationStroop,2021.2.3,Win32,59.97720866,,,,,,,,,,,,,,,,,,,,,,,,,,,,,,,,,6,1.3497,1,0,6,6,12,1,2,×,3,2 × 3,neutral,smallerFirst,1.5,1.5,6,,,,,,,,
,,,,,,,,,,,,,,,712,2022-01-27_12h35.37.543,multiplicationStroop,2021.2.3,Win32,59.97720866,,,,,,,,,,,,,,,,,,,,,,,,,,,,,,,,,30,1.7329,1,0,7,7,5,1,5,×,6,5 × 6,neutral,smallerFirst,1.5,1.5,30,,,,,,,,
,,,,,,,,,,,,,,,712,2022-01-27_12h35.37.543,multiplicationStroop,2021.2.3,Win32,59.97720866,,,,,,,,,,,,,,,,,,,,,,,,,,,,,,,,,54,2.1163,1,0,8,8,21,1,9,×,6,9 × 6,neutral,largerFirst,1.5,1.5,54,,,,,,,,
,,,,,,,,,,,,,,,712,2022-01-27_12h35.37.543,multiplicationStroop,2021.2.3,Win32,59.97720866,,,,,,,,,,,,,,,,,,,,,,,,,,,,,,,,,21,1.4005,1,0,9,9,22,1,7,×,3,7 × 3,neutral,largerFirst,1.5,1.5,21,,,,,,,,
,,,,,,,,,,,,,,,712,2022-01-27_12h35.37.543,multiplicationStroop,2021.2.3,Win32,59.97720866,,,,,,,,,,,,,,,,,,,,,,,,,,,,,,,,,16,1.6154,1,0,10,10,27,1,8,×,2,8 × 2,neutral,largerFirst,1.5,1.5,16,,,,,,,,
,,,,,,,,,,,,,,,712,2022-01-27_12h35.37.543,multiplicationStroop,2021.2.3,Win32,59.97720866,,,,,,,,,,,,,,,,,,,,,,,,,,,,,,,,,45,1.8325,1,0,11,11,24,1,9,×,5,9 × 5,neutral,largerFirst,1.5,1.5,45,,,,,,,,
,,,,,,,,,,,,,,,712,2022-01-27_12h35.37.543,multiplicationStroop,2021.2.3,Win32,59.97720866,,,,,,,,,,,,,,,,,,,,,,,,,,,,,,,,,24,1.3664,1,0,12,12,8,1,3,×,8,3 × 8,neutral,smallerFirst,1.5,1.5,24,,,,,,,,
,,,,,,,,,,,,,,,712,2022-01-27_12h35.37.543,multiplicationStroop,2021.2.3,Win32,59.97720866,,,,,,,,,,,,,,,,,,,,,,,,,,,,,,,,,18,1.5331,1,0,13,13,14,1,6,×,3,6 × 3,neutral,largerFirst,1.5,1.5,18,,,,,,,,
,,,,,,,,,,,,,,,712,2022-01-27_12h35.37.543,multiplicationStroop,2021.2.3,Win32,59.97720866,,,,,,,,,,,,,,,,,,,,,,,,,,,,,,,,,64,1.4335,1,0,14,14,34,1,8,×,8,8 × 8,neutral,tie,1.5,1.5,64,,,,,,,,
,,,,,,,,,,,,,,,712,2022-01-27_12h35.37.543,multiplicationStroop,2021.2.3,Win32,59.97720866,,,,,,,,,,,,,,,,,,,,,,,,,,,,,,,,,48,2.7828,1,0,15,15,1,1,6,×,8,6 × 8,neutral,smallerFirst,1.5,1.5,48,,,,,,,,
,,,,,,,,,,,,,,,712,2022-01-27_12h35.37.543,multiplicationStroop,2021.2.3,Win32,59.97720866,,,,,,,,,,,,,,,,,,,,,,,,,,,,,,,,,9,1.6088,1,0,16,16,29,1,3,×,3,3 × 3,neutral,tie,1.5,1.5,9,,,,,,,,
,,,,,,,,,,,,,,,712,2022-01-27_12h35.37.543,multiplicationStroop,2021.2.3,Win32,59.97720866,,,,,,,,,,,,,,,,,,,,,,,,,,,,,,,,,16,1.4659,1,0,17,17,30,1,4,×,4,4 × 4,neutral,tie,1.5,1.5,16,,,,,,,,
,,,,,,,,,,,,,,,712,2022-01-27_12h35.37.543,multiplicationStroop,2021.2.3,Win32,59.97720866,,,,,,,,,,,,,,,,,,,,,,,,,,,,,,,,,63,2.0663,1,0,18,18,26,1,9,×,7,9 × 7,neutral,largerFirst,1.5,1.5,63,,,,,,,,
,,,,,,,,,,,,,,,712,2022-01-27_12h35.37.543,multiplicationStroop,2021.2.3,Win32,59.97720866,,,,,,,,,,,,,,,,,,,,,,,,,,,,,,,,,27,1.4831,1,0,19,19,0,1,3,×,9,3 × 9,neutral,smallerFirst,1.5,1.5,27,,,,,,,,
,,,,,,,,,,,,,,,712,2022-01-27_12h35.37.543,multiplicationStroop,2021.2.3,Win32,59.97720866,,,,,,,,,,,,,,,,,,,,,,,,,,,,,,,,,14,1.3834,1,0,20,20,2,1,2,×,7,2 × 7,neutral,smallerFirst,1.5,1.5,14,,,,,,,,
,,,,,,,,,,,,,,,712,2022-01-27_12h35.37.543,multiplicationStroop,2021.2.3,Win32,59.97720866,,,,,,,,,,,,,,,,,,,,,,,,,,,,,,,,,8,1.3329,1,0,21,21,17,1,4,×,2,4 × 2,neutral,largerFirst,1.5,1.5,8,,,,,,,,
,,,,,,,,,,,,,,,712,2022-01-27_12h35.37.543,multiplicationStroop,2021.2.3,Win32,59.97720866,,,,,,,,,,,,,,,,,,,,,,,,,,,,,,,,,56,1.5497,1,0,22,22,23,1,8,×,7,8 × 7,neutral,largerFirst,1.5,1.5,56,,,,,,,,
,,,,,,,,,,,,,,,712,2022-01-27_12h35.37.543,multiplicationStroop,2021.2.3,Win32,59.97720866,,,,,,,,,,,,,,,,,,,,,,,,,,,,,,,,,12,1.4663,1,0,23,23,11,1,2,×,6,2 × 6,neutral,smallerFirst,1.5,1.5,12,,,,,,,,
,,,,,,,,,,,,,,,712,2022-01-27_12h35.37.543,multiplicationStroop,2021.2.3,Win32,59.97720866,,,,,,,,,,,,,,,,,,,,,,,,,,,,,,,,,12,1.4662,1,0,24,24,7,1,3,×,4,3 × 4,neutral,smallerFirst,1.5,1.5,12,,,,,,,,
,,,,,,,,,,,,,,,712,2022-01-27_12h35.37.543,multiplicationStroop,2021.2.3,Win32,59.97720866,,,,,,,,,,,,,,,,,,,,,,,,,,,,,,,,,36,1.766,1,0,25,25,13,1,4,×,9,4 × 9,neutral,smallerFirst,1.5,1.5,36,,,,,,,,
,,,,,,,,,,,,,,,712,2022-01-27_12h35.37.543,multiplicationStroop,2021.2.3,Win32,59.97720866,,,,,,,,,,,,,,,,,,,,,,,,,,,,,,,,,81,1.4168,1,0,26,26,35,1,9,×,9,9 × 9,neutral,tie,1.5,1.5,81,,,,,,,,
,,,,,,,,,,,,,,,712,2022-01-27_12h35.37.543,multiplicationStroop,2021.2.3,Win32,59.97720866,,,,,,,,,,,,,,,,,,,,,,,,,,,,,,,,,36,1.5327,1,0,27,27,32,1,6,×,6,6 × 6,neutral,tie,1.5,1.5,36,,,,,,,,
,,,,,,,,,,,,,,,712,2022-01-27_12h35.37.543,multiplicationStroop,2021.2.3,Win32,59.97720866,,,,,,,,,,,,,,,,,,,,,,,,,,,,,,,,,40,2.05,1,0,28,28,10,1,5,×,8,5 × 8,neutral,smallerFirst,1.5,1.5,40,,,,,,,,
,,,,,,,,,,,,,,,712,2022-01-27_12h35.37.543,multiplicationStroop,2021.2.3,Win32,59.97720866,,,,,,,,,,,,,,,,,,,,,,,,,,,,,,,,,10,1.5494,1,0,29,29,18,1,5,×,2,5 × 2,neutral,largerFirst,1.5,1.5,10,,,,,,,,
,,,,,,,,,,,,,,,712,2022-01-27_12h35.37.543,multiplicationStroop,2021.2.3,Win32,59.97720866,,,,,,,,,,,,,,,,,,,,,,,,,,,,,,,,,18,1.3831,1,0,30,30,4,1,2,×,9,2 × 9,neutral,smallerFirst,1.5,1.5,18,,,,,,,,
,,,,,,,,,,,,,,,712,2022-01-27_12h35.37.543,multiplicationStroop,2021.2.3,Win32,59.97720866,,,,,,,,,,,,,,,,,,,,,,,,,,,,,,,,,20,1.916,1,0,31,31,6,1,4,×,5,4 × 5,neutral,smallerFirst,1.5,1.5,20,,,,,,,,
,,,,,,,,,,,,,,,712,2022-01-27_12h35.37.543,multiplicationStroop,2021.2.3,Win32,59.97720866,,,,,,,,,,,,,,,,,,,,,,,,,,,,,,,,,28,2.0002,1,0,32,32,3,1,4,×,7,4 × 7,neutral,smallerFirst,1.5,1.5,28,,,,,,,,
,,,,,,,,,,,,,,,712,2022-01-27_12h35.37.543,multiplicationStroop,2021.2.3,Win32,59.97720866,,,,,,,,,,,,,,,,,,,,,,,,,,,,,,,,,35,1.4828,1,0,33,33,15,1,7,×,5,7 × 5,neutral,largerFirst,1.5,1.5,35,,,,,,,,
,,,,,,,,,,,,,,,712,2022-01-27_12h35.37.543,multiplicationStroop,2021.2.3,Win32,59.97720866,,,,,,,,,,,,,,,,,,,,,,,,,,,,,,,,,4,1.5329,1,0,34,34,28,1,2,×,2,2 × 2,neutral,tie,1.5,1.5,4,,,,,,,,
,,,,,,,,,,,,,,,712,2022-01-27_12h35.37.543,multiplicationStroop,2021.2.3,Win32,59.97720866,,,,,,,,,,,,,,,,,,,,,,,,,,,,,,,,,15,1.3496,1,0,35,35,19,1,5,×,3,5 × 3,neutral,largerFirst,1.5,1.5,15,,,,,,,,
,,,,,,,,,,,,,,,712,2022-01-27_12h35.37.543,multiplicationStroop,2021.2.3,Win32,59.97720866,,,,,,,,,,,,,,,,,,,,,,,,,,,,,,,,,,,,,,,,,,,,,,,,,,0,1,1,0,1,stimulusFile/mult_blk1.xlsx,,
,,,,,,,,,,,,,,,712,2022-01-27_12h35.37.543,multiplicationStroop,2021.2.3,Win32,59.97720866,,,,,,,,,,,,,,,,,,,,,,,,,,,,,,,space,25.0718,12,1.1849,1,0,0,0,2,1,3,×,4,3 × 4,congruent,smallerFirst,1,2,12,,,,,,,,
,,,,,,,,,,,,,,,712,2022-01-27_12h35.37.543,multiplicationStroop,2021.2.3,Win32,59.97720866,,,,,,,,,,,,,,,,,,,,,,,,,,,,,,,,,6,1.4499,1,0,1,1,13,1,2,×,3,2 × 3,congruent,smallerFirst,1,2,6,,,,,,,,
,,,,,,,,,,,,,,,712,2022-01-27_12h35.37.543,multiplicationStroop,2021.2.3,Win32,59.97720866,,,,,,,,,,,,,,,,,,,,,,,,,,,,,,,,,25,1.2663,1,0,2,2,31,1,5,×,5,5 × 5,neutral,tie,2,1,25,,,,,,,,
,,,,,,,,,,,,,,,712,2022-01-27_12h35.37.543,multiplicationStroop,2021.2.3,Win32,59.97720866,,,,,,,,,,,,,,,,,,,,,,,,,,,,,,,,,32,1.4495,1,0,3,3,20,1,8,×,4,8 × 4,congruent,largerFirst,2,1,32,,,,,,,,
,,,,,,,,,,,,,,,712,2022-01-27_12h35.37.543,multiplicationStroop,2021.2.3,Win32,59.97720866,,,,,,,,,,,,,,,,,,,,,,,,,,,,,,,,,40,1.4999,1,0,4,4,6,1,5,×,8,5 × 8,congruent,smallerFirst,1,2,40,,,,,,,,
,,,,,,,,,,,,,,,712,2022-01-27_12h35.37.543,multiplicationStroop,2021.2.3,Win32,59.97720866,,,,,,,,,,,,,,,,,,,,,,,,,,,,,,,,,21,1.2657,1,0,5,5,16,1,7,×,3,7 × 3,congruent,largerFirst,2,1,21,,,,,,,,
,,,,,,,,,,,,,,,712,2022-01-27_12h35.37.543,multiplicationStroop,2021.2.3,Win32,59.97720866,,,,,,,,,,,,,,,,,,,,,,,,,,,,,,,,,54,2.4332,1,0,6,6,12,1,6,×,9,6 × 9,congruent,smallerFirst,1,2,54,,,,,,,,
,,,,,,,,,,,,,,,712,2022-01-27_12h35.37.543,multiplicationStroop,2021.2.3,Win32,59.97720866,,,,,,,,,,,,,,,,,,,,,,,,,,,,,,,,,10,1.3728,1,0,7,7,24,1,5,×,2,5 × 2,congruent,largerFirst,2,1,10,,,,,,,,
,,,,,,,,,,,,,,,712,2022-01-27_12h35.37.543,multiplicationStroop,2021.2.3,Win32,59.97720866,,,,,,,,,,,,,,,,,,,,,,,,,,,,,,,,,12,1.6764,1,0,8,8,19,1,6,×,2,6 × 2,congruent,largerFirst,2,1,12,,,,,,,,
,,,,,,,,,,,,,,,712,2022-01-27_12h35.37.543,multiplicationStroop,2021.2.3,Win32,59.97720866,,,,,,,,,,,,,,,,,,,,,,,,,,,,,,,,,4,1.1499,1,0,9,9,28,1,2,×,2,2 × 2,neutral,tie,2,1,4,,,,,,,,
,,,,,,,,,,,,,,,712,2022-01-27_12h35.37.543,multiplicationStroop,2021.2.3,Win32,59.97720866,,,,,,,,,,,,,,,,,,,,,,,,,,,,,,,,,35,1.4998,1,0,10,10,1,1,5,×,7,5 × 7,congruent,smallerFirst,1,2,35,,,,,,,,
,,,,,,,,,,,,,,,712,2022-01-27_12h35.37.543,multiplicationStroop,2021.2.3,Win32,59.97720866,,,,,,,,,,,,,,,,,,,,,,,,,,,,,,,,,18,1.283,1,0,11,11,22,1,9,×,2,9 × 2,congruent,largerFirst,2,1,18,,,,,,,,
,,,,,,,,,,,,,,,712,2022-01-27_12h35.37.543,multiplicationStroop,2021.2.3,Win32,59.97720866,,,,,,,,,,,,,,,,,,,,,,,,,,,,,,,,,72,1.8164,1,0,12,12,17,1,9,×,8,9 × 8,congruent,largerFirst,2,1,72,,,,,,,,
,,,,,,,,,,,,,,,712,2022-01-27_12h35.37.543,multiplicationStroop,2021.2.3,Win32,59.97720866,,,,,,,,,,,,,,,,,,,,,,,,,,,,,,,,,64,1.6827,1,0,13,13,34,1,8,×,8,8 × 8,neutral,tie,2,1,64,,,,,,,,
,,,,,,,,,,,,,,,712,2022-01-27_12h35.37.543,multiplicationStroop,2021.2.3,Win32,59.97720866,,,,,,,,,,,,,,,,,,,,,,,,,,,,,,,,,28,1.4998,1,0,14,14,27,1,7,×,4,7 × 4,congruent,largerFirst,2,1,28,,,,,,,,
,,,,,,,,,,,,,,,712,2022-01-27_12h35.37.543,multiplicationStroop,2021.2.3,Win32,59.97720866,,,,,,,,,,,,,,,,,,,,,,,,,,,,,,,,,81,1.1827,1,0,15,15,35,1,9,×,9,9 × 9,neutral,tie,2,1,81,,,,,,,,
,,,,,,,,,,,,,,,712,2022-01-27_12h35.37.543,multiplicationStroop,2021.2.3,Win32,59.97720866,,,,,,,,,,,,,,,,,,,,,,,,,,,,,,,,,36,1.4497,1,0,16,16,32,1,6,×,6,6 × 6,neutral,tie,2,1,36,,,,,,,,
,,,,,,,,,,,,,,,712,2022-01-27_12h35.37.543,multiplicationStroop,2021.2.3,Win32,59.97720866,,,,,,,,,,,,,,,,,,,,,,,,,,,,,,,,,36,1.6829,1,0,17,17,0,1,4,×,9,4 × 9,congruent,smallerFirst,1,2,36,,,,,,,,
,,,,,,,,,,,,,,,712,2022-01-27_12h35.37.543,multiplicationStroop,2021.2.3,Win32,59.97720866,,,,,,,,,,,,,,,,,,,,,,,,,,,,,,,,,16,1.3329,1,0,18,18,30,1,4,×,4,4 × 4,neutral,tie,2,1,16,,,,,,,,
,,,,,,,,,,,,,,,712,2022-01-27_12h35.37.543,multiplicationStroop,2021.2.3,Win32,59.97720866,,,,,,,,,,,,,,,,,,,,,,,,,,,,,,,,,14,1.9832,1,0,19,19,14,1,7,×,2,7 × 2,congruent,largerFirst,2,1,14,,,,,,,,
,,,,,,,,,,,,,,,712,2022-01-27_12h35.37.543,multiplicationStroop,2021.2.3,Win32,59.97720866,,,,,,,,,,,,,,,,,,,,,,,,,,,,,,,,,45,1.5665,1,0,20,20,23,1,9,×,5,9 × 5,congruent,largerFirst,2,1,45,,,,,,,,
,,,,,,,,,,,,,,,712,2022-01-27_12h35.37.543,multiplicationStroop,2021.2.3,Win32,59.97720866,,,,,,,,,,,,,,,,,,,,,,,,,,,,,,,,,16,1.3164,1,0,21,21,5,1,2,×,8,2 × 8,congruent,smallerFirst,1,2,16,,,,,,,,
,,,,,,,,,,,,,,,712,2022-01-27_12h35.37.543,multiplicationStroop,2021.2.3,Win32,59.97720866,,,,,,,,,,,,,,,,,,,,,,,,,,,,,,,,,35,1.4495,0,0,22,22,33,1,7,×,7,7 × 7,neutral,tie,2,1,49,,,,,,,,
,,,,,,,,,,,,,,,712,2022-01-27_12h35.37.543,multiplicationStroop,2021.2.3,Win32,59.97720866,,,,,,,,,,,,,,,,,,,,,,,,,,,,,,,,,27,2.2333,1,0,23,23,26,1,9,×,3,9 × 3,congruent,largerFirst,2,1,27,,,,,,,,
,,,,,,,,,,,,,,,712,2022-01-27_12h35.37.543,multiplicationStroop,2021.2.3,Win32,59.97720866,,,,,,,,,,,,,,,,,,,,,,,,,,,,,,,,,63,1.8334,1,0,24,24,21,1,9,×,7,9 × 7,congruent,largerFirst,2,1,63,,,,,,,,
,,,,,,,,,,,,,,,712,2022-01-27_12h35.37.543,multiplicationStroop,2021.2.3,Win32,59.97720866,,,,,,,,,,,,,,,,,,,,,,,,,,,,,,,,,56,1.7826,1,0,25,25,8,1,7,×,8,7 × 8,congruent,smallerFirst,1,2,56,,,,,,,,
,,,,,,,,,,,,,,,712,2022-01-27_12h35.37.543,multiplicationStroop,2021.2.3,Win32,59.97720866,,,,,,,,,,,,,,,,,,,,,,,,,,,,,,,,,9,1.2833,1,0,26,26,29,1,3,×,3,3 × 3,neutral,tie,2,1,9,,,,,,,,
,,,,,,,,,,,,,,,712,2022-01-27_12h35.37.543,multiplicationStroop,2021.2.3,Win32,59.97720866,,,,,,,,,,,,,,,,,,,,,,,,,,,,,,,,,20,1.4663,1,0,27,27,7,1,4,×,5,4 × 5,congruent,smallerFirst,1,2,20,,,,,,,,
,,,,,,,,,,,,,,,712,2022-01-27_12h35.37.543,multiplicationStroop,2021.2.3,Win32,59.97720866,,,,,,,,,,,,,,,,,,,,,,,,,,,,,,,,,224,1.3499,0,0,28,28,10,1,3,×,8,3 × 8,congruent,smallerFirst,1,2,24,,,,,,,,
,,,,,,,,,,,,,,,712,2022-01-27_12h35.37.543,multiplicationStroop,2021.2.3,Win32,59.97720866,,,,,,,,,,,,,,,,,,,,,,,,,,,,,,,,,15,2.0331,1,0,29,29,4,1,3,×,5,3 × 5,congruent,smallerFirst,1,2,15,,,,,,,,
,,,,,,,,,,,,,,,712,2022-01-27_12h35.37.543,multiplicationStroop,2021.2.3,Win32,59.97720866,,,,,,,,,,,,,,,,,,,,,,,,,,,,,,,,,48,1.8331,1,0,30,30,18,1,8,×,6,8 × 6,congruent,largerFirst,2,1,48,,,,,,,,
,,,,,,,,,,,,,,,712,2022-01-27_12h35.37.543,multiplicationStroop,2021.2.3,Win32,59.97720866,,,,,,,,,,,,,,,,,,,,,,,,,,,,,,,,,30,1.5827,1,0,31,31,15,1,6,×,5,6 × 5,congruent,largerFirst,2,1,30,,,,,,,,
,,,,,,,,,,,,,,,712,2022-01-27_12h35.37.543,multiplicationStroop,2021.2.3,Win32,59.97720866,,,,,,,,,,,,,,,,,,,,,,,,,,,,,,,,,24,1.3165,1,0,32,32,25,1,6,×,4,6 × 4,congruent,largerFirst,2,1,24,,,,,,,,
,,,,,,,,,,,,,,,712,2022-01-27_12h35.37.543,multiplicationStroop,2021.2.3,Win32,59.97720866,,,,,,,,,,,,,,,,,,,,,,,,,,,,,,,,,42,2.1664,1,0,33,33,3,1,6,×,7,6 × 7,congruent,smallerFirst,1,2,42,,,,,,,,
,,,,,,,,,,,,,,,712,2022-01-27_12h35.37.543,multiplicationStroop,2021.2.3,Win32,59.97720866,,,,,,,,,,,,,,,,,,,,,,,,,,,,,,,,,18,1.4995,1,0,34,34,11,1,3,×,6,3 × 6,congruent,smallerFirst,1,2,18,,,,,,,,
,,,,,,,,,,,,,,,712,2022-01-27_12h35.37.543,multiplicationStroop,2021.2.3,Win32,59.97720866,,,,,,,,,,,,,,,,,,,,,,,,,,,,,,,,,8,1.8325,1,0,35,35,9,1,2,×,4,2 × 4,congruent,smallerFirst,1,2,8,,,,,,,,
,,,,,,,,,,,,,,,712,2022-01-27_12h35.37.543,multiplicationStroop,2021.2.3,Win32,59.97720866,,,,,,,,,,,,,,,,,,,,,,,,,,,,,,,,,,,,,,,,,,,,,,,,,,0,2,2,2,1,stimulusFile/mult_blk3_congruent.xlsx,,
,,,,,,,,,,,,,,,712,2022-01-27_12h35.37.543,multiplicationStroop,2021.2.3,Win32,59.97720866,,,,,,,,,,,,,,,,,,,,,,,,,,,,,,,space,5.0069,27,1.4174,1,0,0,0,18,1,9,×,3,9 × 3,incongruent,largerFirst,1,2,27,,,,,,,,
,,,,,,,,,,,,,,,712,2022-01-27_12h35.37.543,multiplicationStroop,2021.2.3,Win32,59.97720866,,,,,,,,,,,,,,,,,,,,,,,,,,,,,,,,,24,1.3828,1,0,1,1,9,1,3,×,8,3 × 8,incongruent,smallerFirst,2,1,24,,,,,,,,
,,,,,,,,,,,,,,,712,2022-01-27_12h35.37.543,multiplicationStroop,2021.2.3,Win32,59.97720866,,,,,,,,,,,,,,,,,,,,,,,,,,,,,,,,,81,1.2332,1,0,2,2,35,1,9,×,9,9 × 9,incongruent,tie,1,2,81,,,,,,,,
,,,,,,,,,,,,,,,712,2022-01-27_12h35.37.543,multiplicationStroop,2021.2.3,Win32,59.97720866,,,,,,,,,,,,,,,,,,,,,,,,,,,,,,,,,40,1.4828,1,0,3,3,13,1,5,×,8,5 × 8,incongruent,smallerFirst,2,1,40,,,,,,,,
,,,,,,,,,,,,,,,712,2022-01-27_12h35.37.543,multiplicationStroop,2021.2.3,Win32,59.97720866,,,,,,,,,,,,,,,,,,,,,,,,,,,,,,,,,63,1.6827,1,0,4,4,3,1,7,×,9,7 × 9,incongruent,smallerFirst,2,1,63,,,,,,,,
,,,,,,,,,,,,,,,712,2022-01-27_12h35.37.543,multiplicationStroop,2021.2.3,Win32,59.97720866,,,,,,,,,,,,,,,,,,,,,,,,,,,,,,,,,72,3.1002,1,0,5,5,0,1,8,×,9,8 × 9,incongruent,smallerFirst,2,1,72,,,,,,,,
,,,,,,,,,,,,,,,712,2022-01-27_12h35.37.543,multiplicationStroop,2021.2.3,Win32,59.97720866,,,,,,,,,,,,,,,,,,,,,,,,,,,,,,,,,35,1.6752,1,0,6,6,12,1,5,×,7,5 × 7,incongruent,smallerFirst,2,1,35,,,,,,,,
,,,,,,,,,,,,,,,712,2022-01-27_12h35.37.543,multiplicationStroop,2021.2.3,Win32,59.97720866,,,,,,,,,,,,,,,,,,,,,,,,,,,,,,,,,45,1.5835,1,0,7,7,22,1,9,×,5,9 × 5,incongruent,largerFirst,1,2,45,,,,,,,,
,,,,,,,,,,,,,,,712,2022-01-27_12h35.37.543,multiplicationStroop,2021.2.3,Win32,59.97720866,,,,,,,,,,,,,,,,,,,,,,,,,,,,,,,,,20,1.6995,1,0,8,8,27,1,5,×,4,5 × 4,incongruent,largerFirst,1,2,20,,,,,,,,
,,,,,,,,,,,,,,,712,2022-01-27_12h35.37.543,multiplicationStroop,2021.2.3,Win32,59.97720866,,,,,,,,,,,,,,,,,,,,,,,,,,,,,,,,,10,1.4997,1,0,9,9,21,1,5,×,2,5 × 2,incongruent,largerFirst,1,2,10,,,,,,,,
,,,,,,,,,,,,,,,712,2022-01-27_12h35.37.543,multiplicationStroop,2021.2.3,Win32,59.97720866,,,,,,,,,,,,,,,,,,,,,,,,,,,,,,,,,24,1.5331,1,0,10,10,20,1,6,×,4,6 × 4,incongruent,largerFirst,1,2,24,,,,,,,,
,,,,,,,,,,,,,,,712,2022-01-27_12h35.37.543,multiplicationStroop,2021.2.3,Win32,59.97720866,,,,,,,,,,,,,,,,,,,,,,,,,,,,,,,,,8,1.5499,1,0,11,11,24,1,4,×,2,4 × 2,incongruent,largerFirst,1,2,8,,,,,,,,
,,,,,,,,,,,,,,,712,2022-01-27_12h35.37.543,multiplicationStroop,2021.2.3,Win32,59.97720866,,,,,,,,,,,,,,,,,,,,,,,,,,,,,,,,,56,1.783,1,0,12,12,14,1,8,×,7,8 × 7,incongruent,largerFirst,1,2,56,,,,,,,,
,,,,,,,,,,,,,,,712,2022-01-27_12h35.37.543,multiplicationStroop,2021.2.3,Win32,59.97720866,,,,,,,,,,,,,,,,,,,,,,,,,,,,,,,,,18,1.3992,1,0,13,13,8,1,3,×,6,3 × 6,incongruent,smallerFirst,2,1,18,,,,,,,,
,,,,,,,,,,,,,,,712,2022-01-27_12h35.37.543,multiplicationStroop,2021.2.3,Win32,59.97720866,,,,,,,,,,,,,,,,,,,,,,,,,,,,,,,,,18,1.3332,1,0,14,14,2,1,2,×,9,2 × 9,incongruent,smallerFirst,2,1,18,,,,,,,,
,,,,,,,,,,,,,,,712,2022-01-27_12h35.37.543,multiplicationStroop,2021.2.3,Win32,59.97720866,,,,,,,,,,,,,,,,,,,,,,,,,,,,,,,,,9,1.2996,1,0,15,15,29,1,3,×,3,3 × 3,incongruent,tie,1,2,9,,,,,,,,
,,,,,,,,,,,,,,,712,2022-01-27_12h35.37.543,multiplicationStroop,2021.2.3,Win32,59.97720866,,,,,,,,,,,,,,,,,,,,,,,,,,,,,,,,,14,1.4999,1,0,16,16,4,1,2,×,7,2 × 7,incongruent,smallerFirst,2,1,14,,,,,,,,
,,,,,,,,,,,,,,,712,2022-01-27_12h35.37.543,multiplicationStroop,2021.2.3,Win32,59.97720866,,,,,,,,,,,,,,,,,,,,,,,,,,,,,,,,,32,2.0495,1,0,17,17,7,1,4,×,8,4 × 8,incongruent,smallerFirst,2,1,32,,,,,,,,
,,,,,,,,,,,,,,,712,2022-01-27_12h35.37.543,multiplicationStroop,2021.2.3,Win32,59.97720866,,,,,,,,,,,,,,,,,,,,,,,,,,,,,,,,,16,1.6164,1,0,18,18,23,1,8,×,2,8 × 2,incongruent,largerFirst,1,2,16,,,,,,,,
,,,,,,,,,,,,,,,712,2022-01-27_12h35.37.543,multiplicationStroop,2021.2.3,Win32,59.97720866,,,,,,,,,,,,,,,,,,,,,,,,,,,,,,,,,36,1.7893,1,0,19,19,32,1,6,×,6,6 × 6,incongruent,tie,1,2,36,,,,,,,,
,,,,,,,,,,,,,,,712,2022-01-27_12h35.37.543,multiplicationStroop,2021.2.3,Win32,59.97720866,,,,,,,,,,,,,,,,,,,,,,,,,,,,,,,,,15,1.5764,1,0,20,20,10,1,3,×,5,3 × 5,incongruent,smallerFirst,2,1,15,,,,,,,,
,,,,,,,,,,,,,,,712,2022-01-27_12h35.37.543,multiplicationStroop,2021.2.3,Win32,59.97720866,,,,,,,,,,,,,,,,,,,,,,,,,,,,,,,,,42,1.6833,1,0,21,21,17,1,7,×,6,7 × 6,incongruent,largerFirst,1,2,42,,,,,,,,
,,,,,,,,,,,,,,,712,2022-01-27_12h35.37.543,multiplicationStroop,2021.2.3,Win32,59.97720866,,,,,,,,,,,,,,,,,,,,,,,,,,,,,,,,,30,1.5496,1,0,22,22,25,1,6,×,5,6 × 5,incongruent,largerFirst,1,2,30,,,,,,,,
,,,,,,,,,,,,,,,712,2022-01-27_12h35.37.543,multiplicationStroop,2021.2.3,Win32,59.97720866,,,,,,,,,,,,,,,,,,,,,,,,,,,,,,,,,12,1.416,1,0,23,23,5,1,3,×,4,3 × 4,incongruent,smallerFirst,2,1,12,,,,,,,,
,,,,,,,,,,,,,,,712,2022-01-27_12h35.37.543,multiplicationStroop,2021.2.3,Win32,59.97720866,,,,,,,,,,,,,,,,,,,,,,,,,,,,,,,,,28,1.5168,1,0,24,24,16,1,7,×,4,7 × 4,incongruent,largerFirst,1,2,28,,,,,,,,
,,,,,,,,,,,,,,,712,2022-01-27_12h35.37.543,multiplicationStroop,2021.2.3,Win32,59.97720866,,,,,,,,,,,,,,,,,,,,,,,,,,,,,,,,,36,2.8827,1,0,25,25,15,1,9,×,4,9 × 4,incongruent,largerFirst,1,2,36,,,,,,,,
,,,,,,,,,,,,,,,712,2022-01-27_12h35.37.543,multiplicationStroop,2021.2.3,Win32,59.97720866,,,,,,,,,,,,,,,,,,,,,,,,,,,,,,,,,25,1.3164,1,0,26,26,31,1,5,×,5,5 × 5,incongruent,tie,1,2,25,,,,,,,,
,,,,,,,,,,,,,,,712,2022-01-27_12h35.37.543,multiplicationStroop,2021.2.3,Win32,59.97720866,,,,,,,,,,,,,,,,,,,,,,,,,,,,,,,,,16,1.3333,1,0,27,27,30,1,4,×,4,4 × 4,incongruent,tie,1,2,16,,,,,,,,
,,,,,,,,,,,,,,,712,2022-01-27_12h35.37.543,multiplicationStroop,2021.2.3,Win32,59.97720866,,,,,,,,,,,,,,,,,,,,,,,,,,,,,,,,,12,1.8828,1,0,28,28,19,1,6,×,2,6 × 2,incongruent,largerFirst,1,2,12,,,,,,,,
,,,,,,,,,,,,,,,712,2022-01-27_12h35.37.543,multiplicationStroop,2021.2.3,Win32,59.97720866,,,,,,,,,,,,,,,,,,,,,,,,,,,,,,,,,21,1.2499,1,0,29,29,26,1,7,×,3,7 × 3,incongruent,largerFirst,1,2,21,,,,,,,,
,,,,,,,,,,,,,,,712,2022-01-27_12h35.37.543,multiplicationStroop,2021.2.3,Win32,59.97720866,,,,,,,,,,,,,,,,,,,,,,,,,,,,,,,,,48,2.3331,1,0,30,30,1,1,6,×,8,6 × 8,incongruent,smallerFirst,2,1,48,,,,,,,,
,,,,,,,,,,,,,,,712,2022-01-27_12h35.37.543,multiplicationStroop,2021.2.3,Win32,59.97720866,,,,,,,,,,,,,,,,,,,,,,,,,,,,,,,,,4,1.1992,1,0,31,31,28,1,2,×,2,2 × 2,incongruent,tie,1,2,4,,,,,,,,
,,,,,,,,,,,,,,,712,2022-01-27_12h35.37.543,multiplicationStroop,2021.2.3,Win32,59.97720866,,,,,,,,,,,,,,,,,,,,,,,,,,,,,,,,,64,3.2504,1,0,32,32,34,1,8,×,8,8 × 8,incongruent,tie,1,2,64,,,,,,,,
,,,,,,,,,,,,,,,712,2022-01-27_12h35.37.543,multiplicationStroop,2021.2.3,Win32,59.97720866,,,,,,,,,,,,,,,,,,,,,,,,,,,,,,,,,49,1.966,1,0,33,33,33,1,7,×,7,7 × 7,incongruent,tie,1,2,49,,,,,,,,
,,,,,,,,,,,,,,,712,2022-01-27_12h35.37.543,multiplicationStroop,2021.2.3,Win32,59.97720866,,,,,,,,,,,,,,,,,,,,,,,,,,,,,,,,,6,1.6001,1,0,34,34,11,1,2,×,3,2 × 3,incongruent,smallerFirst,2,1,6,,,,,,,,
,,,,,,,,,,,,,,,712,2022-01-27_12h35.37.543,multiplicationStroop,2021.2.3,Win32,59.97720866,,,,,,,,,,,,,,,,,,,,,,,,,,,,,,,,,54,1.6496,1,0,35,35,6,1,6,×,9,6 × 9,incongruent,smallerFirst,2,1,54,,,,,,,,
,,,,,,,,,,,,,,,712,2022-01-27_12h35.37.543,multiplicationStroop,2021.2.3,Win32,59.97720866,,,,,,,,,,,,,,,,,,,,,,,,,,,,,,,,,,,,,,,,,,,,,,,,,,0,3,3,5,1,stimulusFile/mult_blk6_INcongruent.xlsx,,
,,,,,,,,,,,,,,,712,2022-01-27_12h35.37.543,multiplicationStroop,2021.2.3,Win32,59.97720866,,,,,,,,,,,,,,,,,,,,,,,,,,,,,,,space,1.4005,16,1.3742,1,0,0,0,30,1,4,×,4,4 × 4,neutral,tie,2,1,16,,,,,,,,
,,,,,,,,,,,,,,,712,2022-01-27_12h35.37.543,multiplicationStroop,2021.2.3,Win32,59.97720866,,,,,,,,,,,,,,,,,,,,,,,,,,,,,,,,,18,1.3159,1,0,1,1,22,1,6,×,3,6 × 3,incongruent,largerFirst,1,2,18,,,,,,,,
,,,,,,,,,,,,,,,712,2022-01-27_12h35.37.543,multiplicationStroop,2021.2.3,Win32,59.97720866,,,,,,,,,,,,,,,,,,,,,,,,,,,,,,,,,42,3.3836,1,0,2,2,3,1,6,×,7,6 × 7,incongruent,smallerFirst,2,1,42,,,,,,,,
,,,,,,,,,,,,,,,712,2022-01-27_12h35.37.543,multiplicationStroop,2021.2.3,Win32,59.97720866,,,,,,,,,,,,,,,,,,,,,,,,,,,,,,,,,15,1.7487,1,0,3,3,24,1,5,×,3,5 × 3,incongruent,largerFirst,1,2,15,,,,,,,,
,,,,,,,,,,,,,,,712,2022-01-27_12h35.37.543,multiplicationStroop,2021.2.3,Win32,59.97720866,,,,,,,,,,,,,,,,,,,,,,,,,,,,,,,,,81,1.2099,1,0,4,4,35,1,9,×,9,9 × 9,neutral,tie,2,1,81,,,,,,,,
,,,,,,,,,,,,,,,712,2022-01-27_12h35.37.543,multiplicationStroop,2021.2.3,Win32,59.97720866,,,,,,,,,,,,,,,,,,,,,,,,,,,,,,,,,24,1.8827,1,0,5,5,23,1,8,×,3,8 × 3,incongruent,largerFirst,1,2,24,,,,,,,,
,,,,,,,,,,,,,,,712,2022-01-27_12h35.37.543,multiplicationStroop,2021.2.3,Win32,59.97720866,,,,,,,,,,,,,,,,,,,,,,,,,,,,,,,,,72,2.3168,1,0,6,6,14,1,9,×,8,9 × 8,incongruent,largerFirst,1,2,72,,,,,,,,
,,,,,,,,,,,,,,,712,2022-01-27_12h35.37.543,multiplicationStroop,2021.2.3,Win32,59.97720866,,,,,,,,,,,,,,,,,,,,,,,,,,,,,,,,,9,1.833,1,0,7,7,29,1,3,×,3,3 × 3,neutral,tie,2,1,9,,,,,,,,
,,,,,,,,,,,,,,,712,2022-01-27_12h35.37.543,multiplicationStroop,2021.2.3,Win32,59.97720866,,,,,,,,,,,,,,,,,,,,,,,,,,,,,,,,,12,1.8493,1,0,8,8,19,1,4,×,3,4 × 3,incongruent,largerFirst,1,2,12,,,,,,,,
,,,,,,,,,,,,,,,712,2022-01-27_12h35.37.543,multiplicationStroop,2021.2.3,Win32,59.97720866,,,,,,,,,,,,,,,,,,,,,,,,,,,,,,,,,6,1.4167,1,0,9,9,25,1,3,×,2,3 × 2,incongruent,largerFirst,1,2,6,,,,,,,,
,,,,,,,,,,,,,,,712,2022-01-27_12h35.37.543,multiplicationStroop,2021.2.3,Win32,59.97720866,,,,,,,,,,,,,,,,,,,,,,,,,,,,,,,,,24,1.5497,1,0,10,10,6,1,4,×,6,4 × 6,incongruent,smallerFirst,2,1,24,,,,,,,,
,,,,,,,,,,,,,,,712,2022-01-27_12h35.37.543,multiplicationStroop,2021.2.3,Win32,59.97720866,,,,,,,,,,,,,,,,,,,,,,,,,,,,,,,,,36,1.9329,1,0,11,11,1,1,4,×,9,4 × 9,incongruent,smallerFirst,2,1,36,,,,,,,,
,,,,,,,,,,,,,,,712,2022-01-27_12h35.37.543,multiplicationStroop,2021.2.3,Win32,59.97720866,,,,,,,,,,,,,,,,,,,,,,,,,,,,,,,,,40,1.7829,1,0,12,12,27,1,8,×,5,8 × 5,incongruent,largerFirst,1,2,40,,,,,,,,
,,,,,,,,,,,,,,,712,2022-01-27_12h35.37.543,multiplicationStroop,2021.2.3,Win32,59.97720866,,,,,,,,,,,,,,,,,,,,,,,,,,,,,,,,,21,1.1993,1,0,13,13,12,1,3,×,7,3 × 7,incongruent,smallerFirst,2,1,21,,,,,,,,
,,,,,,,,,,,,,,,712,2022-01-27_12h35.37.543,multiplicationStroop,2021.2.3,Win32,59.97720866,,,,,,,,,,,,,,,,,,,,,,,,,,,,,,,,,10,1.3661,1,0,14,14,7,1,2,×,5,2 × 5,incongruent,smallerFirst,2,1,10,,,,,,,,
,,,,,,,,,,,,,,,712,2022-01-27_12h35.37.543,multiplicationStroop,2021.2.3,Win32,59.97720866,,,,,,,,,,,,,,,,,,,,,,,,,,,,,,,,,64,1.8326,1,0,15,15,34,1,8,×,8,8 × 8,neutral,tie,2,1,64,,,,,,,,
,,,,,,,,,,,,,,,712,2022-01-27_12h35.37.543,multiplicationStroop,2021.2.3,Win32,59.97720866,,,,,,,,,,,,,,,,,,,,,,,,,,,,,,,,,18,1.5333,1,0,16,16,16,1,9,×,2,9 × 2,incongruent,largerFirst,1,2,18,,,,,,,,
,,,,,,,,,,,,,,,712,2022-01-27_12h35.37.543,multiplicationStroop,2021.2.3,Win32,59.97720866,,,,,,,,,,,,,,,,,,,,,,,,,,,,,,,,,8,1.3327,1,0,17,17,10,1,2,×,4,2 × 4,incongruent,smallerFirst,2,1,8,,,,,,,,
,,,,,,,,,,,,,,,712,2022-01-27_12h35.37.543,multiplicationStroop,2021.2.3,Win32,59.97720866,,,,,,,,,,,,,,,,,,,,,,,,,,,,,,,,,12,1.5393,1,0,18,18,5,1,2,×,6,2 × 6,incongruent,smallerFirst,2,1,12,,,,,,,,
,,,,,,,,,,,,,,,712,2022-01-27_12h35.37.543,multiplicationStroop,2021.2.3,Win32,59.97720866,,,,,,,,,,,,,,,,,,,,,,,,,,,,,,,,,4,1.1931,1,0,19,19,28,1,2,×,2,2 × 2,neutral,tie,2,1,4,,,,,,,,
,,,,,,,,,,,,,,,712,2022-01-27_12h35.37.543,multiplicationStroop,2021.2.3,Win32,59.97720866,,,,,,,,,,,,,,,,,,,,,,,,,,,,,,,,,25,1.4834,1,0,20,20,31,1,5,×,5,5 × 5,neutral,tie,2,1,25,,,,,,,,
,,,,,,,,,,,,,,,712,2022-01-27_12h35.37.543,multiplicationStroop,2021.2.3,Win32,59.97720866,,,,,,,,,,,,,,,,,,,,,,,,,,,,,,,,,54,1.766,1,0,21,21,20,1,9,×,6,9 × 6,incongruent,largerFirst,1,2,54,,,,,,,,
,,,,,,,,,,,,,,,712,2022-01-27_12h35.37.543,multiplicationStroop,2021.2.3,Win32,59.97720866,,,,,,,,,,,,,,,,,,,,,,,,,,,,,,,,,30,1.8997,1,0,22,22,11,1,5,×,6,5 × 6,incongruent,smallerFirst,2,1,30,,,,,,,,
,,,,,,,,,,,,,,,712,2022-01-27_12h35.37.543,multiplicationStroop,2021.2.3,Win32,59.97720866,,,,,,,,,,,,,,,,,,,,,,,,,,,,,,,,,28,1.8665,1,0,23,23,2,1,4,×,7,4 × 7,incongruent,smallerFirst,2,1,28,,,,,,,,
,,,,,,,,,,,,,,,712,2022-01-27_12h35.37.543,multiplicationStroop,2021.2.3,Win32,59.97720866,,,,,,,,,,,,,,,,,,,,,,,,,,,,,,,,,14,1.5169,1,0,24,24,18,1,7,×,2,7 × 2,incongruent,largerFirst,1,2,14,,,,,,,,
,,,,,,,,,,,,,,,712,2022-01-27_12h35.37.543,multiplicationStroop,2021.2.3,Win32,59.97720866,,,,,,,,,,,,,,,,,,,,,,,,,,,,,,,,,56,1.6993,1,0,25,25,0,1,7,×,8,7 × 8,incongruent,smallerFirst,2,1,56,,,,,,,,
,,,,,,,,,,,,,,,712,2022-01-27_12h35.37.543,multiplicationStroop,2021.2.3,Win32,59.97720866,,,,,,,,,,,,,,,,,,,,,,,,,,,,,,,,,45,1.7167,1,0,26,26,8,1,5,×,9,5 × 9,incongruent,smallerFirst,2,1,45,,,,,,,,
,,,,,,,,,,,,,,,712,2022-01-27_12h35.37.543,multiplicationStroop,2021.2.3,Win32,59.97720866,,,,,,,,,,,,,,,,,,,,,,,,,,,,,,,,,32,1.9328,1,0,27,27,21,1,8,×,4,8 × 4,incongruent,largerFirst,1,2,32,,,,,,,,
,,,,,,,,,,,,,,,712,2022-01-27_12h35.37.543,multiplicationStroop,2021.2.3,Win32,59.97720866,,,,,,,,,,,,,,,,,,,,,,,,,,,,,,,,,20,1.5329,1,0,28,28,13,1,4,×,5,4 × 5,incongruent,smallerFirst,2,1,20,,,,,,,,
,,,,,,,,,,,,,,,712,2022-01-27_12h35.37.543,multiplicationStroop,2021.2.3,Win32,59.97720866,,,,,,,,,,,,,,,,,,,,,,,,,,,,,,,,,21,1.2829,0,0,29,29,4,1,3,×,9,3 × 9,incongruent,smallerFirst,2,1,27,,,,,,,,
,,,,,,,,,,,,,,,712,2022-01-27_12h35.37.543,multiplicationStroop,2021.2.3,Win32,59.97720866,,,,,,,,,,,,,,,,,,,,,,,,,,,,,,,,,48,1.6495,1,0,30,30,15,1,8,×,6,8 × 6,incongruent,largerFirst,1,2,48,,,,,,,,
,,,,,,,,,,,,,,,712,2022-01-27_12h35.37.543,multiplicationStroop,2021.2.3,Win32,59.97720866,,,,,,,,,,,,,,,,,,,,,,,,,,,,,,,,,16,1.5994,1,0,31,31,9,1,2,×,8,2 × 8,incongruent,smallerFirst,2,1,16,,,,,,,,
,,,,,,,,,,,,,,,712,2022-01-27_12h35.37.543,multiplicationStroop,2021.2.3,Win32,59.97720866,,,,,,,,,,,,,,,,,,,,,,,,,,,,,,,,,35,1.7666,1,0,32,32,26,1,7,×,5,7 × 5,incongruent,largerFirst,1,2,35,,,,,,,,
,,,,,,,,,,,,,,,712,2022-01-27_12h35.37.543,multiplicationStroop,2021.2.3,Win32,59.97720866,,,,,,,,,,,,,,,,,,,,,,,,,,,,,,,,,49,1.8333,1,0,33,33,33,1,7,×,7,7 × 7,neutral,tie,2,1,49,,,,,,,,
,,,,,,,,,,,,,,,712,2022-01-27_12h35.37.543,multiplicationStroop,2021.2.3,Win32,59.97720866,,,,,,,,,,,,,,,,,,,,,,,,,,,,,,,,,36,1.733,1,0,34,34,32,1,6,×,6,6 × 6,neutral,tie,2,1,36,,,,,,,,
,,,,,,,,,,,,,,,712,2022-01-27_12h35.37.543,multiplicationStroop,2021.2.3,Win32,59.97720866,,,,,,,,,,,,,,,,,,,,,,,,,,,,,,,,,63,2.3827,1,0,35,35,17,1,9,×,7,9 × 7,incongruent,largerFirst,1,2,63,,,,,,,,
,,,,,,,,,,,,,,,712,2022-01-27_12h35.37.543,multiplicationStroop,2021.2.3,Win32,59.97720866,,,,,,,,,,,,,,,,,,,,,,,,,,,,,,,,,,,,,,,,,,,,,,,,,,0,4,4,4,1,stimulusFile/mult_blk5_INcongruent.xlsx,,
,,,,,,,,,,,,,,,712,2022-01-27_12h35.37.543,multiplicationStroop,2021.2.3,Win32,59.97720866,,,,,,,,,,,,,,,,,,,,,,,,,,,,,,,space,5.7605,48,1.6319,1,0,0,0,15,1,8,×,6,8 × 6,neutral,largerFirst,1.5,1.5,48,,,,,,,,
,,,,,,,,,,,,,,,712,2022-01-27_12h35.37.543,multiplicationStroop,2021.2.3,Win32,59.97720866,,,,,,,,,,,,,,,,,,,,,,,,,,,,,,,,,21,1.183,1,0,1,1,8,1,3,×,7,3 × 7,neutral,smallerFirst,1.5,1.5,21,,,,,,,,
,,,,,,,,,,,,,,,712,2022-01-27_12h35.37.543,multiplicationStroop,2021.2.3,Win32,59.97720866,,,,,,,,,,,,,,,,,,,,,,,,,,,,,,,,,12,1.4831,1,0,2,2,25,1,6,×,2,6 × 2,neutral,largerFirst,1.5,1.5,12,,,,,,,,
,,,,,,,,,,,,,,,712,2022-01-27_12h35.37.543,multiplicationStroop,2021.2.3,Win32,59.97720866,,,,,,,,,,,,,,,,,,,,,,,,,,,,,,,,,40,1.4332,1,0,3,3,24,1,8,×,5,8 × 5,neutral,largerFirst,1.5,1.5,40,,,,,,,,
,,,,,,,,,,,,,,,712,2022-01-27_12h35.37.543,multiplicationStroop,2021.2.3,Win32,59.97720866,,,,,,,,,,,,,,,,,,,,,,,,,,,,,,,,,14,1.616,1,0,4,4,16,1,7,×,2,7 × 2,neutral,largerFirst,1.5,1.5,14,,,,,,,,
,,,,,,,,,,,,,,,712,2022-01-27_12h35.37.543,multiplicationStroop,2021.2.3,Win32,59.97720866,,,,,,,,,,,,,,,,,,,,,,,,,,,,,,,,,18,1.3166,1,0,5,5,0,1,3,×,6,3 × 6,neutral,smallerFirst,1.5,1.5,18,,,,,,,,
,,,,,,,,,,,,,,,712,2022-01-27_12h35.37.543,multiplicationStroop,2021.2.3,Win32,59.97720866,,,,,,,,,,,,,,,,,,,,,,,,,,,,,,,,,32,1.4328,1,0,6,6,23,1,8,×,4,8 × 4,neutral,largerFirst,1.5,1.5,32,,,,,,,,
,,,,,,,,,,,,,,,712,2022-01-27_12h35.37.543,multiplicationStroop,2021.2.3,Win32,59.97720866,,,,,,,,,,,,,,,,,,,,,,,,,,,,,,,,,64,1.7499,1,0,7,7,34,1,8,×,8,8 × 8,neutral,tie,1.5,1.5,64,,,,,,,,
,,,,,,,,,,,,,,,712,2022-01-27_12h35.37.543,multiplicationStroop,2021.2.3,Win32,59.97720866,,,,,,,,,,,,,,,,,,,,,,,,,,,,,,,,,4,1.233,1,0,8,8,28,1,2,×,2,2 × 2,neutral,tie,1.5,1.5,4,,,,,,,,
,,,,,,,,,,,,,,,712,2022-01-27_12h35.37.543,multiplicationStroop,2021.2.3,Win32,59.97720866,,,,,,,,,,,,,,,,,,,,,,,,,,,,,,,,,63,1.7164,1,0,9,9,12,1,7,×,9,7 × 9,neutral,smallerFirst,1.5,1.5,63,,,,,,,,
,,,,,,,,,,,,,,,712,2022-01-27_12h35.37.543,multiplicationStroop,2021.2.3,Win32,59.97720866,,,,,,,,,,,,,,,,,,,,,,,,,,,,,,,,,6,1.4495,1,0,10,10,26,1,3,×,2,3 × 2,neutral,largerFirst,1.5,1.5,6,,,,,,,,
,,,,,,,,,,,,,,,712,2022-01-27_12h35.37.543,multiplicationStroop,2021.2.3,Win32,59.97720866,,,,,,,,,,,,,,,,,,,,,,,,,,,,,,,,,36,1.5994,1,0,11,11,32,1,6,×,6,6 × 6,neutral,tie,1.5,1.5,36,,,,,,,,
,,,,,,,,,,,,,,,712,2022-01-27_12h35.37.543,multiplicationStroop,2021.2.3,Win32,59.97720866,,,,,,,,,,,,,,,,,,,,,,,,,,,,,,,,,16,1.5996,1,0,12,12,13,1,2,×,8,2 × 8,neutral,smallerFirst,1.5,1.5,16,,,,,,,,
,,,,,,,,,,,,,,,712,2022-01-27_12h35.37.543,multiplicationStroop,2021.2.3,Win32,59.97720866,,,,,,,,,,,,,,,,,,,,,,,,,,,,,,,,,49,1.7659,1,0,13,13,33,1,7,×,7,7 × 7,neutral,tie,1.5,1.5,49,,,,,,,,
,,,,,,,,,,,,,,,712,2022-01-27_12h35.37.543,multiplicationStroop,2021.2.3,Win32,59.97720866,,,,,,,,,,,,,,,,,,,,,,,,,,,,,,,,,30,1.3832,1,0,14,14,19,1,6,×,5,6 × 5,neutral,largerFirst,1.5,1.5,30,,,,,,,,
,,,,,,,,,,,,,,,712,2022-01-27_12h35.37.543,multiplicationStroop,2021.2.3,Win32,59.97720866,,,,,,,,,,,,,,,,,,,,,,,,,,,,,,,,,42,1.9335,1,0,15,15,6,1,6,×,7,6 × 7,neutral,smallerFirst,1.5,1.5,42,,,,,,,,
,,,,,,,,,,,,,,,712,2022-01-27_12h35.37.543,multiplicationStroop,2021.2.3,Win32,59.97720866,,,,,,,,,,,,,,,,,,,,,,,,,,,,,,,,,8,1.6495,1,0,16,16,3,1,2,×,4,2 × 4,neutral,smallerFirst,1.5,1.5,8,,,,,,,,
,,,,,,,,,,,,,,,712,2022-01-27_12h35.37.543,multiplicationStroop,2021.2.3,Win32,59.97720866,,,,,,,,,,,,,,,,,,,,,,,,,,,,,,,,,24,1.4829,1,0,17,17,22,1,8,×,3,8 × 3,neutral,largerFirst,1.5,1.5,24,,,,,,,,
,,,,,,,,,,,,,,,712,2022-01-27_12h35.37.543,multiplicationStroop,2021.2.3,Win32,59.97720866,,,,,,,,,,,,,,,,,,,,,,,,,,,,,,,,,36,2.2163,1,0,18,18,27,1,9,×,4,9 × 4,neutral,largerFirst,1.5,1.5,36,,,,,,,,
,,,,,,,,,,,,,,,712,2022-01-27_12h35.37.543,multiplicationStroop,2021.2.3,Win32,59.97720866,,,,,,,,,,,,,,,,,,,,,,,,,,,,,,,,,54,1.9163,1,0,19,19,7,1,6,×,9,6 × 9,neutral,smallerFirst,1.5,1.5,54,,,,,,,,
,,,,,,,,,,,,,,,712,2022-01-27_12h35.37.543,multiplicationStroop,2021.2.3,Win32,59.97720866,,,,,,,,,,,,,,,,,,,,,,,,,,,,,,,,,28,1.7994,1,0,20,20,17,1,7,×,4,7 × 4,neutral,largerFirst,1.5,1.5,28,,,,,,,,
,,,,,,,,,,,,,,,712,2022-01-27_12h35.37.543,multiplicationStroop,2021.2.3,Win32,59.97720866,,,,,,,,,,,,,,,,,,,,,,,,,,,,,,,,,9,1.2162,1,0,21,21,29,1,3,×,3,3 × 3,neutral,tie,1.5,1.5,9,,,,,,,,
,,,,,,,,,,,,,,,712,2022-01-27_12h35.37.543,multiplicationStroop,2021.2.3,Win32,59.97720866,,,,,,,,,,,,,,,,,,,,,,,,,,,,,,,,,72,1.6332,1,0,22,22,11,1,8,×,9,8 × 9,neutral,smallerFirst,1.5,1.5,72,,,,,,,,
,,,,,,,,,,,,,,,712,2022-01-27_12h35.37.543,multiplicationStroop,2021.2.3,Win32,59.97720866,,,,,,,,,,,,,,,,,,,,,,,,,,,,,,,,,27,1.5169,1,0,23,23,14,1,9,×,3,9 × 3,neutral,largerFirst,1.5,1.5,27,,,,,,,,
,,,,,,,,,,,,,,,712,2022-01-27_12h35.37.543,multiplicationStroop,2021.2.3,Win32,59.97720866,,,,,,,,,,,,,,,,,,,,,,,,,,,,,,,,,18,1.4327,1,0,24,24,18,1,9,×,2,9 × 2,neutral,largerFirst,1.5,1.5,18,,,,,,,,
,,,,,,,,,,,,,,,712,2022-01-27_12h35.37.543,multiplicationStroop,2021.2.3,Win32,59.97720866,,,,,,,,,,,,,,,,,,,,,,,,,,,,,,,,,81,1.2666,1,0,25,25,35,1,9,×,9,9 × 9,neutral,tie,1.5,1.5,81,,,,,,,,
,,,,,,,,,,,,,,,712,2022-01-27_12h35.37.543,multiplicationStroop,2021.2.3,Win32,59.97720866,,,,,,,,,,,,,,,,,,,,,,,,,,,,,,,,,25,1.4327,1,0,26,26,31,1,5,×,5,5 × 5,neutral,tie,1.5,1.5,25,,,,,,,,
,,,,,,,,,,,,,,,712,2022-01-27_12h35.37.543,multiplicationStroop,2021.2.3,Win32,59.97720866,,,,,,,,,,,,,,,,,,,,,,,,,,,,,,,,,16,1.35,1,0,27,27,30,1,4,×,4,4 × 4,neutral,tie,1.5,1.5,16,,,,,,,,
,,,,,,,,,,,,,,,712,2022-01-27_12h35.37.543,multiplicationStroop,2021.2.3,Win32,59.97720866,,,,,,,,,,,,,,,,,,,,,,,,,,,,,,,,,45,1.7162,1,0,28,28,10,1,5,×,9,5 × 9,neutral,smallerFirst,1.5,1.5,45,,,,,,,,
,,,,,,,,,,,,,,,712,2022-01-27_12h35.37.543,multiplicationStroop,2021.2.3,Win32,59.97720866,,,,,,,,,,,,,,,,,,,,,,,,,,,,,,,,,10,1.3828,1,0,29,29,4,1,2,×,5,2 × 5,neutral,smallerFirst,1.5,1.5,10,,,,,,,,
,,,,,,,,,,,,,,,712,2022-01-27_12h35.37.543,multiplicationStroop,2021.2.3,Win32,59.97720866,,,,,,,,,,,,,,,,,,,,,,,,,,,,,,,,,15,1.5995,1,0,30,30,5,1,3,×,5,3 × 5,neutral,smallerFirst,1.5,1.5,15,,,,,,,,
,,,,,,,,,,,,,,,712,2022-01-27_12h35.37.543,multiplicationStroop,2021.2.3,Win32,59.97720866,,,,,,,,,,,,,,,,,,,,,,,,,,,,,,,,,24,1.7832,1,0,31,31,2,1,4,×,6,4 × 6,neutral,smallerFirst,1.5,1.5,24,,,,,,,,
,,,,,,,,,,,,,,,712,2022-01-27_12h35.37.543,multiplicationStroop,2021.2.3,Win32,59.97720866,,,,,,,,,,,,,,,,,,,,,,,,,,,,,,,,,56,1.7995,1,0,32,32,9,1,7,×,8,7 × 8,neutral,smallerFirst,1.5,1.5,56,,,,,,,,
,,,,,,,,,,,,,,,712,2022-01-27_12h35.37.543,multiplicationStroop,2021.2.3,Win32,59.97720866,,,,,,,,,,,,,,,,,,,,,,,,,,,,,,,,,35,1.9499,1,0,33,33,1,1,5,×,7,5 × 7,neutral,smallerFirst,1.5,1.5,35,,,,,,,,
,,,,,,,,,,,,,,,712,2022-01-27_12h35.37.543,multiplicationStroop,2021.2.3,Win32,59.97720866,,,,,,,,,,,,,,,,,,,,,,,,,,,,,,,,,12,1.4161,1,0,34,34,21,1,4,×,3,4 × 3,neutral,largerFirst,1.5,1.5,12,,,,,,,,
,,,,,,,,,,,,,,,712,2022-01-27_12h35.37.543,multiplicationStroop,2021.2.3,Win32,59.97720866,,,,,,,,,,,,,,,,,,,,,,,,,,,,,,,,,20,1.5,1,0,35,35,20,1,5,×,4,5 × 4,neutral,largerFirst,1.5,1.5,20,,,,,,,,
,,,,,,,,,,,,,,,712,2022-01-27_12h35.37.543,multiplicationStroop,2021.2.3,Win32,59.97720866,,,,,,,,,,,,,,,,,,,,,,,,,,,,,,,,,,,,,,,,,,,,,,,,,,0,5,5,1,1,stimulusFile/mult_blk2.xlsx,,
,,,,,,,,,,,,,,,712,2022-01-27_12h35.37.543,multiplicationStroop,2021.2.3,Win32,59.97720866,,,,,,,,,,,,,,,,,,,,,,,,,,,,,,,,,,,,,,,,,,,,,,,,,,,,,,,,space,20.4306