welcomeKey_resp.keys,welcomeKey_resp.rt,X Scale,Y Scale,rt_resp_4.keys,rt_resp_4.corr,rt_resp_4.rt,speedtest_2.thisRepN,speedtest_2.thisTrialN,speedtest_2.thisN,speedtest_2.thisIndex,speedtest_2.ran,numberSc,posX,positionLayout,participant,date,expName,psychopyVersion,OS,frameRate,ct_instrresp.keys,ct_instrresp.rt,key_resp_2.keys,key_resp_2.rt,ct_keyResp.keys,ct_keyResp.corr,ct_keyResp.rt,trials.thisRepN,trials.thisTrialN,trials.thisN,trials.thisIndex,trials.ran,leftNo,rightNo,displayProblem,numDistance,leftNo_size,rightNo_size,Dims,keyAnswer,TS_Loop.thisRepN,TS_Loop.thisTrialN,TS_Loop.thisN,TS_Loop.thisIndex,TS_Loop.ran,Condition,ActionInst,instrImage,mltptaskInst_resp.keys,mltptaskInst_resp.rt,continue_resp_2.keys,continue_resp_2.rt,multp_Answer,multi_RT,multiplyCorr,LoopingMultiply.thisRepN,LoopingMultiply.thisTrialN,LoopingMultiply.thisN,LoopingMultiply.thisIndex,LoopingMultiply.ran,factor1,multiplySign,factor2,multliplyProblem,physicalSize,orderOperand,sizeF1,sizeF2,mult_answer,trials_stroop.thisRepN,trials_stroop.thisTrialN,trials_stroop.thisN,trials_stroop.thisIndex,trials_stroop.ran,multiplicationFile,esckey_resp_2.keys,esckey_resp_2.rt
y,5.3297,44.7,45.1,right,1,1.0411,0,0,0,12,1,6,200,right,713,2022-02-12_17h41.36.202,multiplicationStroop,2021.2.3,Win32,60.93473889,,,,,,,,,,,,,,,,,,,,,,,,,,,,,,,,,,,,,,,,,,,,,,,,,,,,,,,,,
,,,,left,1,0.2822,0,1,1,7,1,9,-200,left,713,2022-02-12_17h41.36.202,multiplicationStroop,2021.2.3,Win32,60.93473889,,,,,,,,,,,,,,,,,,,,,,,,,,,,,,,,,,,,,,,,,,,,,,,,,,,,,,,,,
,,,,left,1,0.2999,0,2,2,3,1,4,-200,left,713,2022-02-12_17h41.36.202,multiplicationStroop,2021.2.3,Win32,60.93473889,,,,,,,,,,,,,,,,,,,,,,,,,,,,,,,,,,,,,,,,,,,,,,,,,,,,,,,,,
,,,,right,1,0.3182,0,3,3,11,1,4,200,right,713,2022-02-12_17h41.36.202,multiplicationStroop,2021.2.3,Win32,60.93473889,,,,,,,,,,,,,,,,,,,,,,,,,,,,,,,,,,,,,,,,,,,,,,,,,,,,,,,,,
,,,,right,1,0.3177,0,4,4,13,1,7,200,right,713,2022-02-12_17h41.36.202,multiplicationStroop,2021.2.3,Win32,60.93473889,,,,,,,,,,,,,,,,,,,,,,,,,,,,,,,,,,,,,,,,,,,,,,,,,,,,,,,,,
,,,,left,1,0.2832,0,5,5,6,1,8,-200,left,713,2022-02-12_17h41.36.202,multiplicationStroop,2021.2.3,Win32,60.93473889,,,,,,,,,,,,,,,,,,,,,,,,,,,,,,,,,,,,,,,,,,,,,,,,,,,,,,,,,
,,,,right,0,0.0179,0,6,6,4,1,6,-200,left,713,2022-02-12_17h41.36.202,multiplicationStroop,2021.2.3,Win32,60.93473889,,,,,,,,,,,,,,,,,,,,,,,,,,,,,,,,,,,,,,,,,,,,,,,,,,,,,,,,,
,,,,left,1,0.5383,0,7,7,5,1,7,-200,left,713,2022-02-12_17h41.36.202,multiplicationStroop,2021.2.3,Win32,60.93473889,,,,,,,,,,,,,,,,,,,,,,,,,,,,,,,,,,,,,,,,,,,,,,,,,,,,,,,,,
,,,,right,1,0.353,0,8,8,9,1,2,200,right,713,2022-02-12_17h41.36.202,multiplicationStroop,2021.2.3,Win32,60.93473889,,,,,,,,,,,,,,,,,,,,,,,,,,,,,,,,,,,,,,,,,,,,,,,,,,,,,,,,,
,,,,right,1,0.3513,0,9,9,8,1,1,200,right,713,2022-02-12_17h41.36.202,multiplicationStroop,2021.2.3,Win32,60.93473889,,,,,,,,,,,,,,,,,,,,,,,,,,,,,,,,,,,,,,,,,,,,,,,,,,,,,,,,,
,,,,right,1,0.3488,0,10,10,15,1,9,200,right,713,2022-02-12_17h41.36.202,multiplicationStroop,2021.2.3,Win32,60.93473889,,,,,,,,,,,,,,,,,,,,,,,,,,,,,,,,,,,,,,,,,,,,,,,,,,,,,,,,,
,,,,right,1,0.2849,0,11,11,14,1,8,200,right,713,2022-02-12_17h41.36.202,multiplicationStroop,2021.2.3,Win32,60.93473889,,,,,,,,,,,,,,,,,,,,,,,,,,,,,,,,,,,,,,,,,,,,,,,,,,,,,,,,,
,,,,left,1,0.3859,0,12,12,1,1,2,-200,left,713,2022-02-12_17h41.36.202,multiplicationStroop,2021.2.3,Win32,60.93473889,,,,,,,,,,,,,,,,,,,,,,,,,,,,,,,,,,,,,,,,,,,,,,,,,,,,,,,,,
,,,,right,1,0.252,0,13,13,10,1,3,200,right,713,2022-02-12_17h41.36.202,multiplicationStroop,2021.2.3,Win32,60.93473889,,,,,,,,,,,,,,,,,,,,,,,,,,,,,,,,,,,,,,,,,,,,,,,,,,,,,,,,,
,,,,left,1,0.2537,0,14,14,0,1,1,-200,left,713,2022-02-12_17h41.36.202,multiplicationStroop,2021.2.3,Win32,60.93473889,,,,,,,,,,,,,,,,,,,,,,,,,,,,,,,,,,,,,,,,,,,,,,,,,,,,,,,,,
,,,,left,1,0.436,0,15,15,2,1,3,-200,left,713,2022-02-12_17h41.36.202,multiplicationStroop,2021.2.3,Win32,60.93473889,,,,,,,,,,,,,,,,,,,,,,,,,,,,,,,,,,,,,,,,,,,,,,,,,,,,,,,,,
,,,,right,1,0.3509,1,0,16,11,1,4,200,right,713,2022-02-12_17h41.36.202,multiplicationStroop,2021.2.3,Win32,60.93473889,,,,,,,,,,,,,,,,,,,,,,,,,,,,,,,,,,,,,,,,,,,,,,,,,,,,,,,,,
,,,,left,1,0.3011,1,1,17,7,1,9,-200,left,713,2022-02-12_17h41.36.202,multiplicationStroop,2021.2.3,Win32,60.93473889,,,,,,,,,,,,,,,,,,,,,,,,,,,,,,,,,,,,,,,,,,,,,,,,,,,,,,,,,
,,,,right,1,0.2845,1,2,18,12,1,6,200,right,713,2022-02-12_17h41.36.202,multiplicationStroop,2021.2.3,Win32,60.93473889,,,,,,,,,,,,,,,,,,,,,,,,,,,,,,,,,,,,,,,,,,,,,,,,,,,,,,,,,
,,,,left,1,0.3183,1,3,19,6,1,8,-200,left,713,2022-02-12_17h41.36.202,multiplicationStroop,2021.2.3,Win32,60.93473889,,,,,,,,,,,,,,,,,,,,,,,,,,,,,,,,,,,,,,,,,,,,,,,,,,,,,,,,,
,,,,right,1,0.2534,1,4,20,15,1,9,200,right,713,2022-02-12_17h41.36.202,multiplicationStroop,2021.2.3,Win32,60.93473889,,,,,,,,,,,,,,,,,,,,,,,,,,,,,,,,,,,,,,,,,,,,,,,,,,,,,,,,,
,,,,right,1,0.336,1,5,21,14,1,8,200,right,713,2022-02-12_17h41.36.202,multiplicationStroop,2021.2.3,Win32,60.93473889,,,,,,,,,,,,,,,,,,,,,,,,,,,,,,,,,,,,,,,,,,,,,,,,,,,,,,,,,
,,,,right,1,0.2887,1,6,22,10,1,3,200,right,713,2022-02-12_17h41.36.202,multiplicationStroop,2021.2.3,Win32,60.93473889,,,,,,,,,,,,,,,,,,,,,,,,,,,,,,,,,,,,,,,,,,,,,,,,,,,,,,,,,
,,,,right,1,0.302,1,7,23,13,1,7,200,right,713,2022-02-12_17h41.36.202,multiplicationStroop,2021.2.3,Win32,60.93473889,,,,,,,,,,,,,,,,,,,,,,,,,,,,,,,,,,,,,,,,,,,,,,,,,,,,,,,,,
,,,,left,1,0.3664,1,8,24,0,1,1,-200,left,713,2022-02-12_17h41.36.202,multiplicationStroop,2021.2.3,Win32,60.93473889,,,,,,,,,,,,,,,,,,,,,,,,,,,,,,,,,,,,,,,,,,,,,,,,,,,,,,,,,
,,,,left,1,0.3193,1,9,25,2,1,3,-200,left,713,2022-02-12_17h41.36.202,multiplicationStroop,2021.2.3,Win32,60.93473889,,,,,,,,,,,,,,,,,,,,,,,,,,,,,,,,,,,,,,,,,,,,,,,,,,,,,,,,,
,,,,left,1,0.2422,1,10,26,4,1,6,-200,left,713,2022-02-12_17h41.36.202,multiplicationStroop,2021.2.3,Win32,60.93473889,,,,,,,,,,,,,,,,,,,,,,,,,,,,,,,,,,,,,,,,,,,,,,,,,,,,,,,,,
,,,,left,1,0.2848,1,11,27,3,1,4,-200,left,713,2022-02-12_17h41.36.202,multiplicationStroop,2021.2.3,Win32,60.93473889,,,,,,,,,,,,,,,,,,,,,,,,,,,,,,,,,,,,,,,,,,,,,,,,,,,,,,,,,
,,,,right,1,0.3163,1,12,28,9,1,2,200,right,713,2022-02-12_17h41.36.202,multiplicationStroop,2021.2.3,Win32,60.93473889,,,,,,,,,,,,,,,,,,,,,,,,,,,,,,,,,,,,,,,,,,,,,,,,,,,,,,,,,
,,,,left,1,0.2363,1,13,29,5,1,7,-200,left,713,2022-02-12_17h41.36.202,multiplicationStroop,2021.2.3,Win32,60.93473889,,,,,,,,,,,,,,,,,,,,,,,,,,,,,,,,,,,,,,,,,,,,,,,,,,,,,,,,,
,,,,right,0,0.0846,1,14,30,1,1,2,-200,left,713,2022-02-12_17h41.36.202,multiplicationStroop,2021.2.3,Win32,60.93473889,,,,,,,,,,,,,,,,,,,,,,,,,,,,,,,,,,,,,,,,,,,,,,,,,,,,,,,,,
,,,,left,0,0.4548,1,15,31,8,1,1,200,right,713,2022-02-12_17h41.36.202,multiplicationStroop,2021.2.3,Win32,60.93473889,,,,,,,,,,,,,,,,,,,,,,,,,,,,,,,,,,,,,,,,,,,,,,,,,,,,,,,,,
,,,,left,1,0.5175,2,0,32,6,1,8,-200,left,713,2022-02-12_17h41.36.202,multiplicationStroop,2021.2.3,Win32,60.93473889,,,,,,,,,,,,,,,,,,,,,,,,,,,,,,,,,,,,,,,,,,,,,,,,,,,,,,,,,
,,,,left,1,0.3188,2,1,33,3,1,4,-200,left,713,2022-02-12_17h41.36.202,multiplicationStroop,2021.2.3,Win32,60.93473889,,,,,,,,,,,,,,,,,,,,,,,,,,,,,,,,,,,,,,,,,,,,,,,,,,,,,,,,,
,,,,right,1,0.3519,2,2,34,14,1,8,200,right,713,2022-02-12_17h41.36.202,multiplicationStroop,2021.2.3,Win32,60.93473889,,,,,,,,,,,,,,,,,,,,,,,,,,,,,,,,,,,,,,,,,,,,,,,,,,,,,,,,,
,,,,right,1,0.3689,2,3,35,12,1,6,200,right,713,2022-02-12_17h41.36.202,multiplicationStroop,2021.2.3,Win32,60.93473889,,,,,,,,,,,,,,,,,,,,,,,,,,,,,,,,,,,,,,,,,,,,,,,,,,,,,,,,,
,,,,right,1,0.301,2,4,36,13,1,7,200,right,713,2022-02-12_17h41.36.202,multiplicationStroop,2021.2.3,Win32,60.93473889,,,,,,,,,,,,,,,,,,,,,,,,,,,,,,,,,,,,,,,,,,,,,,,,,,,,,,,,,
,,,,right,1,0.2836,2,5,37,10,1,3,200,right,713,2022-02-12_17h41.36.202,multiplicationStroop,2021.2.3,Win32,60.93473889,,,,,,,,,,,,,,,,,,,,,,,,,,,,,,,,,,,,,,,,,,,,,,,,,,,,,,,,,
,,,,left,1,0.6511,2,6,38,1,1,2,-200,left,713,2022-02-12_17h41.36.202,multiplicationStroop,2021.2.3,Win32,60.93473889,,,,,,,,,,,,,,,,,,,,,,,,,,,,,,,,,,,,,,,,,,,,,,,,,,,,,,,,,
,,,,right,0,0.2218,2,7,39,0,1,1,-200,left,713,2022-02-12_17h41.36.202,multiplicationStroop,2021.2.3,Win32,60.93473889,,,,,,,,,,,,,,,,,,,,,,,,,,,,,,,,,,,,,,,,,,,,,,,,,,,,,,,,,
,,,,right,1,0.5514,2,8,40,15,1,9,200,right,713,2022-02-12_17h41.36.202,multiplicationStroop,2021.2.3,Win32,60.93473889,,,,,,,,,,,,,,,,,,,,,,,,,,,,,,,,,,,,,,,,,,,,,,,,,,,,,,,,,
,,,,left,1,0.3012,2,9,41,7,1,9,-200,left,713,2022-02-12_17h41.36.202,multiplicationStroop,2021.2.3,Win32,60.93473889,,,,,,,,,,,,,,,,,,,,,,,,,,,,,,,,,,,,,,,,,,,,,,,,,,,,,,,,,
,,,,left,1,0.3354,2,10,42,5,1,7,-200,left,713,2022-02-12_17h41.36.202,multiplicationStroop,2021.2.3,Win32,60.93473889,,,,,,,,,,,,,,,,,,,,,,,,,,,,,,,,,,,,,,,,,,,,,,,,,,,,,,,,,
,,,,right,1,0.2844,2,11,43,11,1,4,200,right,713,2022-02-12_17h41.36.202,multiplicationStroop,2021.2.3,Win32,60.93473889,,,,,,,,,,,,,,,,,,,,,,,,,,,,,,,,,,,,,,,,,,,,,,,,,,,,,,,,,
,,,,right,1,0.3187,2,12,44,9,1,2,200,right,713,2022-02-12_17h41.36.202,multiplicationStroop,2021.2.3,Win32,60.93473889,,,,,,,,,,,,,,,,,,,,,,,,,,,,,,,,,,,,,,,,,,,,,,,,,,,,,,,,,
,,,,left,1,0.3431,2,13,45,4,1,6,-200,left,713,2022-02-12_17h41.36.202,multiplicationStroop,2021.2.3,Win32,60.93473889,,,,,,,,,,,,,,,,,,,,,,,,,,,,,,,,,,,,,,,,,,,,,,,,,,,,,,,,,
,,,,right,1,0.1846,2,14,46,8,1,1,200,right,713,2022-02-12_17h41.36.202,multiplicationStroop,2021.2.3,Win32,60.93473889,,,,,,,,,,,,,,,,,,,,,,,,,,,,,,,,,,,,,,,,,,,,,,,,,,,,,,,,,
,,,,left,1,0.0842,2,15,47,2,1,3,-200,left,713,2022-02-12_17h41.36.202,multiplicationStroop,2021.2.3,Win32,60.93473889,,,,,,,,,,,,,,,,,,,,,,,,,,,,,,,,,,,,,,,,,,,,,,,,,,,,,,,,,
,,,,right,1,0.251,3,0,48,13,1,7,200,right,713,2022-02-12_17h41.36.202,multiplicationStroop,2021.2.3,Win32,60.93473889,,,,,,,,,,,,,,,,,,,,,,,,,,,,,,,,,,,,,,,,,,,,,,,,,,,,,,,,,
,,,,right,1,0.3402,3,1,49,12,1,6,200,right,713,2022-02-12_17h41.36.202,multiplicationStroop,2021.2.3,Win32,60.93473889,,,,,,,,,,,,,,,,,,,,,,,,,,,,,,,,,,,,,,,,,,,,,,,,,,,,,,,,,
,,,,left,1,0.3251,3,2,50,7,1,9,-200,left,713,2022-02-12_17h41.36.202,multiplicationStroop,2021.2.3,Win32,60.93473889,,,,,,,,,,,,,,,,,,,,,,,,,,,,,,,,,,,,,,,,,,,,,,,,,,,,,,,,,
,,,,right,0,0.025,3,3,51,6,1,8,-200,left,713,2022-02-12_17h41.36.202,multiplicationStroop,2021.2.3,Win32,60.93473889,,,,,,,,,,,,,,,,,,,,,,,,,,,,,,,,,,,,,,,,,,,,,,,,,,,,,,,,,
,,,,right,1,0.4014,3,4,52,11,1,4,200,right,713,2022-02-12_17h41.36.202,multiplicationStroop,2021.2.3,Win32,60.93473889,,,,,,,,,,,,,,,,,,,,,,,,,,,,,,,,,,,,,,,,,,,,,,,,,,,,,,,,,
,,,,left,0,0.2186,3,5,53,8,1,1,200,right,713,2022-02-12_17h41.36.202,multiplicationStroop,2021.2.3,Win32,60.93473889,,,,,,,,,,,,,,,,,,,,,,,,,,,,,,,,,,,,,,,,,,,,,,,,,,,,,,,,,
,,,,left,1,0.5533,3,6,54,4,1,6,-200,left,713,2022-02-12_17h41.36.202,multiplicationStroop,2021.2.3,Win32,60.93473889,,,,,,,,,,,,,,,,,,,,,,,,,,,,,,,,,,,,,,,,,,,,,,,,,,,,,,,,,
,,,,left,1,0.451,3,7,55,3,1,4,-200,left,713,2022-02-12_17h41.36.202,multiplicationStroop,2021.2.3,Win32,60.93473889,,,,,,,,,,,,,,,,,,,,,,,,,,,,,,,,,,,,,,,,,,,,,,,,,,,,,,,,,
,,,,left,1,0.307,3,8,56,5,1,7,-200,left,713,2022-02-12_17h41.36.202,multiplicationStroop,2021.2.3,Win32,60.93473889,,,,,,,,,,,,,,,,,,,,,,,,,,,,,,,,,,,,,,,,,,,,,,,,,,,,,,,,,
,,,,right,1,0.3011,3,9,57,15,1,9,200,right,713,2022-02-12_17h41.36.202,multiplicationStroop,2021.2.3,Win32,60.93473889,,,,,,,,,,,,,,,,,,,,,,,,,,,,,,,,,,,,,,,,,,,,,,,,,,,,,,,,,
,,,,right,1,0.4219,3,10,58,14,1,8,200,right,713,2022-02-12_17h41.36.202,multiplicationStroop,2021.2.3,Win32,60.93473889,,,,,,,,,,,,,,,,,,,,,,,,,,,,,,,,,,,,,,,,,,,,,,,,,,,,,,,,,
,,,,left,1,0.3578,3,11,59,2,1,3,-200,left,713,2022-02-12_17h41.36.202,multiplicationStroop,2021.2.3,Win32,60.93473889,,,,,,,,,,,,,,,,,,,,,,,,,,,,,,,,,,,,,,,,,,,,,,,,,,,,,,,,,
,,,,left,1,0.3194,3,12,60,1,1,2,-200,left,713,2022-02-12_17h41.36.202,multiplicationStroop,2021.2.3,Win32,60.93473889,,,,,,,,,,,,,,,,,,,,,,,,,,,,,,,,,,,,,,,,,,,,,,,,,,,,,,,,,
,,,,right,1,0.2846,3,13,61,9,1,2,200,right,713,2022-02-12_17h41.36.202,multiplicationStroop,2021.2.3,Win32,60.93473889,,,,,,,,,,,,,,,,,,,,,,,,,,,,,,,,,,,,,,,,,,,,,,,,,,,,,,,,,
,,,,left,1,0.271,3,14,62,0,1,1,-200,left,713,2022-02-12_17h41.36.202,multiplicationStroop,2021.2.3,Win32,60.93473889,,,,,,,,,,,,,,,,,,,,,,,,,,,,,,,,,,,,,,,,,,,,,,,,,,,,,,,,,
,,,,right,1,0.2685,3,15,63,10,1,3,200,right,713,2022-02-12_17h41.36.202,multiplicationStroop,2021.2.3,Win32,60.93473889,,,,,,,,,,,,,,,,,,,,,,,,,,,,,,,,,,,,,,,,,,,,,,,,,,,,,,,,,
,,,,,,,,,,,,,,,713,2022-02-12_17h41.36.202,multiplicationStroop,2021.2.3,Win32,60.93473889,space,10.5253,space,9.056,left,0,1.1805,0,0,0,64,1,1,1,1 | 1,0,1.9756,1.4111,neutral,right,,,,,,stimulusFile/physical.xlsx,,,,,,,,,,,,,,,,,,,,,,,,,,,,,,,
,,,,,,,,,,,,,,,713,2022-02-12_17h41.36.202,multiplicationStroop,2021.2.3,Win32,60.93473889,,,,,right,1,0.5774,0,1,1,59,1,7,7,7 | 7,0,1.4111,1.9756,neutral,right,,,,,,stimulusFile/physical.xlsx,,,,,,,,,,,,,,,,,,,,,,,,,,,,,,,
,,,,,,,,,,,,,,,713,2022-02-12_17h41.36.202,multiplicationStroop,2021.2.3,Win32,60.93473889,,,,,right,1,0.5633,0,2,2,18,1,3,8,3 | 8,5,1.4111,1.9756,congruent,right,,,,,,stimulusFile/physical.xlsx,,,,,,,,,,,,,,,,,,,,,,,,,,,,,,,
,,,,,,,,,,,,,,,713,2022-02-12_17h41.36.202,multiplicationStroop,2021.2.3,Win32,60.93473889,,,,,left,1,0.6094,0,3,3,42,1,3,8,3 | 8,5,1.9756,1.4111,incongruent,left,,,,,,stimulusFile/physical.xlsx,,,,,,,,,,,,,,,,,,,,,,,,,,,,,,,
,,,,,,,,,,,,,,,713,2022-02-12_17h41.36.202,multiplicationStroop,2021.2.3,Win32,60.93473889,,,,,left,1,0.5958,0,4,4,23,1,9,4,9 | 4,5,1.9756,1.4111,congruent,left,,,,,,stimulusFile/physical.xlsx,,,,,,,,,,,,,,,,,,,,,,,,,,,,,,,
,,,,,,,,,,,,,,,713,2022-02-12_17h41.36.202,multiplicationStroop,2021.2.3,Win32,60.93473889,,,,,right,1,0.4214,0,5,5,29,1,4,3,4 | 3,1,1.4111,1.9756,incongruent,right,,,,,,stimulusFile/physical.xlsx,,,,,,,,,,,,,,,,,,,,,,,,,,,,,,,
,,,,,,,,,,,,,,,713,2022-02-12_17h41.36.202,multiplicationStroop,2021.2.3,Win32,60.93473889,,,,,right,0,0.596,0,6,6,71,1,9,9,9 | 9,0,1.4111,1.9756,neutral,left,,,,,,stimulusFile/physical.xlsx,,,,,,,,,,,,,,,,,,,,,,,,,,,,,,,
,,,,,,,,,,,,,,,713,2022-02-12_17h41.36.202,multiplicationStroop,2021.2.3,Win32,60.93473889,,,,,left,1,0.7299,0,7,7,54,1,7,7,7 | 7,0,1.9756,1.4111,neutral,left,,,,,,stimulusFile/physical.xlsx,,,,,,,,,,,,,,,,,,,,,,,,,,,,,,,
,,,,,,,,,,,,,,,713,2022-02-12_17h41.36.202,multiplicationStroop,2021.2.3,Win32,60.93473889,,,,,right,1,0.4805,0,8,8,67,1,4,4,4 | 4,0,1.4111,1.9756,neutral,right,,,,,,stimulusFile/physical.xlsx,,,,,,,,,,,,,,,,,,,,,,,,,,,,,,,
,,,,,,,,,,,,,,,713,2022-02-12_17h41.36.202,multiplicationStroop,2021.2.3,Win32,60.93473889,,,,,right,1,0.5035,0,9,9,45,1,7,2,7 | 2,5,1.4111,1.9756,incongruent,right,,,,,,stimulusFile/physical.xlsx,,,,,,,,,,,,,,,,,,,,,,,,,,,,,,,
,,,,,,,,,,,,,,,713,2022-02-12_17h41.36.202,multiplicationStroop,2021.2.3,Win32,60.93473889,,,,,left,1,0.5184,0,10,10,25,1,3,4,3 | 4,1,1.9756,1.4111,incongruent,left,,,,,,stimulusFile/physical.xlsx,,,,,,,,,,,,,,,,,,,,,,,,,,,,,,,
,,,,,,,,,,,,,,,713,2022-02-12_17h41.36.202,multiplicationStroop,2021.2.3,Win32,60.93473889,,,,,right,1,0.3803,0,11,11,63,1,9,9,9 | 9,0,1.4111,1.9756,neutral,right,,,,,,stimulusFile/physical.xlsx,,,,,,,,,,,,,,,,,,,,,,,,,,,,,,,
,,,,,,,,,,,,,,,713,2022-02-12_17h41.36.202,multiplicationStroop,2021.2.3,Win32,60.93473889,,,,,right,1,0.5011,0,12,12,39,1,9,7,9 | 7,2,1.4111,1.9756,incongruent,right,,,,,,stimulusFile/physical.xlsx,,,,,,,,,,,,,,,,,,,,,,,,,,,,,,,
,,,,,,,,,,,,,,,713,2022-02-12_17h41.36.202,multiplicationStroop,2021.2.3,Win32,60.93473889,,,,,right,1,0.4511,0,13,13,65,1,2,2,2 | 2,0,1.4111,1.9756,neutral,right,,,,,,stimulusFile/physical.xlsx,,,,,,,,,,,,,,,,,,,,,,,,,,,,,,,
,,,,,,,,,,,,,,,713,2022-02-12_17h41.36.202,multiplicationStroop,2021.2.3,Win32,60.93473889,,,,,right,1,0.4708,0,14,14,0,1,1,2,1 | 2,1,1.4111,1.9756,congruent,right,,,,,,stimulusFile/physical.xlsx,,,,,,,,,,,,,,,,,,,,,,,,,,,,,,,
,,,,,,,,,,,,,,,713,2022-02-12_17h41.36.202,multiplicationStroop,2021.2.3,Win32,60.93473889,,,,,left,1,0.6158,0,15,15,22,1,8,3,8 | 3,5,1.9756,1.4111,congruent,left,,,,,,stimulusFile/physical.xlsx,,,,,,,,,,,,,,,,,,,,,,,,,,,,,,,
,,,,,,,,,,,,,,,713,2022-02-12_17h41.36.202,multiplicationStroop,2021.2.3,Win32,60.93473889,,,,,right,1,0.249,0,16,16,61,1,4,4,4 | 4,0,1.4111,1.9756,neutral,right,,,,,,stimulusFile/physical.xlsx,,,,,,,,,,,,,,,,,,,,,,,,,,,,,,,
,,,,,,,,,,,,,,,713,2022-02-12_17h41.36.202,multiplicationStroop,2021.2.3,Win32,60.93473889,,,,,right,1,0.5822,0,17,17,28,1,2,1,2 | 1,1,1.4111,1.9756,incongruent,right,,,,,,stimulusFile/physical.xlsx,,,,,,,,,,,,,,,,,,,,,,,,,,,,,,,
,,,,,,,,,,,,,,,713,2022-02-12_17h41.36.202,multiplicationStroop,2021.2.3,Win32,60.93473889,,,,,right,1,0.4144,0,18,18,62,1,8,8,8 | 8,0,1.4111,1.9756,neutral,right,,,,,,stimulusFile/physical.xlsx,,,,,,,,,,,,,,,,,,,,,,,,,,,,,,,
,,,,,,,,,,,,,,,713,2022-02-12_17h41.36.202,multiplicationStroop,2021.2.3,Win32,60.93473889,,,,,left,0,0.5799,0,19,19,66,1,3,3,3 | 3,0,1.9756,1.4111,neutral,right,,,,,,stimulusFile/physical.xlsx,,,,,,,,,,,,,,,,,,,,,,,,,,,,,,,
,,,,,,,,,,,,,,,713,2022-02-12_17h41.36.202,multiplicationStroop,2021.2.3,Win32,60.93473889,,,,,right,0,0.5065,0,20,20,24,1,1,2,1 | 2,1,1.9756,1.4111,incongruent,left,,,,,,stimulusFile/physical.xlsx,,,,,,,,,,,,,,,,,,,,,,,,,,,,,,,
,,,,,,,,,,,,,,,713,2022-02-12_17h41.36.202,multiplicationStroop,2021.2.3,Win32,60.93473889,,,,,right,1,0.5299,0,21,21,44,1,6,1,6 | 1,5,1.4111,1.9756,incongruent,right,,,,,,stimulusFile/physical.xlsx,,,,,,,,,,,,,,,,,,,,,,,,,,,,,,,
,,,,,,,,,,,,,,,713,2022-02-12_17h41.36.202,multiplicationStroop,2021.2.3,Win32,60.93473889,,,,,right,1,0.6826,0,22,22,3,1,8,9,8 | 9,1,1.4111,1.9756,congruent,right,,,,,,stimulusFile/physical.xlsx,,,,,,,,,,,,,,,,,,,,,,,,,,,,,,,
,,,,,,,,,,,,,,,713,2022-02-12_17h41.36.202,multiplicationStroop,2021.2.3,Win32,60.93473889,,,,,left,1,0.581,0,23,23,43,1,4,9,4 | 9,5,1.9756,1.4111,incongruent,left,,,,,,stimulusFile/physical.xlsx,,,,,,,,,,,,,,,,,,,,,,,,,,,,,,,
,,,,,,,,,,,,,,,713,2022-02-12_17h41.36.202,multiplicationStroop,2021.2.3,Win32,60.93473889,,,,,right,1,0.488,0,24,24,58,1,6,6,6 | 6,0,1.4111,1.9756,neutral,right,,,,,,stimulusFile/physical.xlsx,,,,,,,,,,,,,,,,,,,,,,,,,,,,,,,
,,,,,,,,,,,,,,,713,2022-02-12_17h41.36.202,multiplicationStroop,2021.2.3,Win32,60.93473889,,,,,right,1,0.6652,0,25,25,17,1,2,7,2 | 7,5,1.4111,1.9756,congruent,right,,,,,,stimulusFile/physical.xlsx,,,,,,,,,,,,,,,,,,,,,,,,,,,,,,,
,,,,,,,,,,,,,,,713,2022-02-12_17h41.36.202,multiplicationStroop,2021.2.3,Win32,60.93473889,,,,,right,1,0.6025,0,26,26,60,1,3,3,3 | 3,0,1.4111,1.9756,neutral,right,,,,,,stimulusFile/physical.xlsx,,,,,,,,,,,,,,,,,,,,,,,,,,,,,,,
,,,,,,,,,,,,,,,713,2022-02-12_17h41.36.202,multiplicationStroop,2021.2.3,Win32,60.93473889,,,,,left,1,0.6143,0,27,27,5,1,4,3,4 | 3,1,1.9756,1.4111,congruent,left,,,,,,stimulusFile/physical.xlsx,,,,,,,,,,,,,,,,,,,,,,,,,,,,,,,
,,,,,,,,,,,,,,,713,2022-02-12_17h41.36.202,multiplicationStroop,2021.2.3,Win32,60.93473889,,,,,right,1,0.664,0,28,28,57,1,2,2,2 | 2,0,1.4111,1.9756,neutral,right,,,,,,stimulusFile/physical.xlsx,,,,,,,,,,,,,,,,,,,,,,,,,,,,,,,
,,,,,,,,,,,,,,,713,2022-02-12_17h41.36.202,multiplicationStroop,2021.2.3,Win32,60.93473889,,,,,left,1,0.5498,0,29,29,4,1,2,1,2 | 1,1,1.9756,1.4111,congruent,left,,,,,,stimulusFile/physical.xlsx,,,,,,,,,,,,,,,,,,,,,,,,,,,,,,,
,,,,,,,,,,,,,,,713,2022-02-12_17h41.36.202,multiplicationStroop,2021.2.3,Win32,60.93473889,,,,,right,1,0.5147,0,30,30,8,1,1,3,1 | 3,2,1.4111,1.9756,congruent,right,,,,,,stimulusFile/physical.xlsx,,,,,,,,,,,,,,,,,,,,,,,,,,,,,,,
,,,,,,,,,,,,,,,713,2022-02-12_17h41.36.202,multiplicationStroop,2021.2.3,Win32,60.93473889,,,,,right,1,0.6813,0,31,31,36,1,3,1,3 | 1,2,1.4111,1.9756,incongruent,right,,,,,,stimulusFile/physical.xlsx,,,,,,,,,,,,,,,,,,,,,,,,,,,,,,,
,,,,,,,,,,,,,,,713,2022-02-12_17h41.36.202,multiplicationStroop,2021.2.3,Win32,60.93473889,,,,,right,1,1.3383,0,32,32,38,1,8,6,8 | 6,2,1.4111,1.9756,incongruent,right,,,,,,stimulusFile/physical.xlsx,,,,,,,,,,,,,,,,,,,,,,,,,,,,,,,
,,,,,,,,,,,,,,,713,2022-02-12_17h41.36.202,multiplicationStroop,2021.2.3,Win32,60.93473889,,,,,right,1,0.4697,0,33,33,11,1,7,9,7 | 9,2,1.4111,1.9756,congruent,right,,,,,,stimulusFile/physical.xlsx,,,,,,,,,,,,,,,,,,,,,,,,,,,,,,,
,,,,,,,,,,,,,,,713,2022-02-12_17h41.36.202,multiplicationStroop,2021.2.3,Win32,60.93473889,,,,,left,1,0.5643,0,34,34,12,1,3,1,3 | 1,2,1.9756,1.4111,congruent,left,,,,,,stimulusFile/physical.xlsx,,,,,,,,,,,,,,,,,,,,,,,,,,,,,,,
,,,,,,,,,,,,,,,713,2022-02-12_17h41.36.202,multiplicationStroop,2021.2.3,Win32,60.93473889,,,,,right,0,1.2722,0,35,35,69,1,7,7,7 | 7,0,1.4111,1.9756,neutral,left,,,,,,stimulusFile/physical.xlsx,,,,,,,,,,,,,,,,,,,,,,,,,,,,,,,
,,,,,,,,,,,,,,,713,2022-02-12_17h41.36.202,multiplicationStroop,2021.2.3,Win32,60.93473889,,,,,right,1,0.8718,0,36,36,9,1,2,4,2 | 4,2,1.4111,1.9756,congruent,right,,,,,,stimulusFile/physical.xlsx,,,,,,,,,,,,,,,,,,,,,,,,,,,,,,,
,,,,,,,,,,,,,,,713,2022-02-12_17h41.36.202,multiplicationStroop,2021.2.3,Win32,60.93473889,,,,,left,1,0.5131,0,37,37,51,1,8,8,8 | 8,0,1.9756,1.4111,neutral,left,,,,,,stimulusFile/physical.xlsx,,,,,,,,,,,,,,,,,,,,,,,,,,,,,,,
,,,,,,,,,,,,,,,713,2022-02-12_17h41.36.202,multiplicationStroop,2021.2.3,Win32,60.93473889,,,,,right,1,0.4316,0,38,38,47,1,9,4,9 | 4,5,1.4111,1.9756,incongruent,right,,,,,,stimulusFile/physical.xlsx,,,,,,,,,,,,,,,,,,,,,,,,,,,,,,,
,,,,,,,,,,,,,,,713,2022-02-12_17h41.36.202,multiplicationStroop,2021.2.3,Win32,60.93473889,,,,,left,1,0.4971,0,39,39,21,1,7,2,7 | 2,5,1.9756,1.4111,congruent,left,,,,,,stimulusFile/physical.xlsx,,,,,,,,,,,,,,,,,,,,,,,,,,,,,,,
,,,,,,,,,,,,,,,713,2022-02-12_17h41.36.202,multiplicationStroop,2021.2.3,Win32,60.93473889,,,,,left,1,0.6006,0,40,40,7,1,9,8,9 | 8,1,1.9756,1.4111,congruent,left,,,,,,stimulusFile/physical.xlsx,,,,,,,,,,,,,,,,,,,,,,,,,,,,,,,
,,,,,,,,,,,,,,,713,2022-02-12_17h41.36.202,multiplicationStroop,2021.2.3,Win32,60.93473889,,,,,left,1,0.5628,0,41,41,48,1,1,1,1 | 1,0,1.9756,1.4111,neutral,left,,,,,,stimulusFile/physical.xlsx,,,,,,,,,,,,,,,,,,,,,,,,,,,,,,,
,,,,,,,,,,,,,,,713,2022-02-12_17h41.36.202,multiplicationStroop,2021.2.3,Win32,60.93473889,,,,,left,1,0.481,0,42,42,52,1,2,2,2 | 2,0,1.9756,1.4111,neutral,left,,,,,,stimulusFile/physical.xlsx,,,,,,,,,,,,,,,,,,,,,,,,,,,,,,,
,,,,,,,,,,,,,,,713,2022-02-12_17h41.36.202,multiplicationStroop,2021.2.3,Win32,60.93473889,,,,,right,1,0.4627,0,43,43,16,1,1,6,1 | 6,5,1.4111,1.9756,congruent,right,,,,,,stimulusFile/physical.xlsx,,,,,,,,,,,,,,,,,,,,,,,,,,,,,,,
,,,,,,,,,,,,,,,713,2022-02-12_17h41.36.202,multiplicationStroop,2021.2.3,Win32,60.93473889,,,,,left,0,0.2867,0,44,44,10,1,6,8,6 | 8,2,1.4111,1.9756,congruent,right,,,,,,stimulusFile/physical.xlsx,,,,,,,,,,,,,,,,,,,,,,,,,,,,,,,
,,,,,,,,,,,,,,,713,2022-02-12_17h41.36.202,multiplicationStroop,2021.2.3,Win32,60.93473889,,,,,left,1,0.6801,0,45,45,41,1,2,7,2 | 7,5,1.9756,1.4111,incongruent,left,,,,,,stimulusFile/physical.xlsx,,,,,,,,,,,,,,,,,,,,,,,,,,,,,,,
,,,,,,,,,,,,,,,713,2022-02-12_17h41.36.202,multiplicationStroop,2021.2.3,Win32,60.93473889,,,,,left,1,0.504,0,46,46,53,1,4,4,4 | 4,0,1.9756,1.4111,neutral,left,,,,,,stimulusFile/physical.xlsx,,,,,,,,,,,,,,,,,,,,,,,,,,,,,,,
,,,,,,,,,,,,,,,713,2022-02-12_17h41.36.202,multiplicationStroop,2021.2.3,Win32,60.93473889,,,,,left,1,0.5181,0,47,47,70,1,8,8,8 | 8,0,1.9756,1.4111,neutral,left,,,,,,stimulusFile/physical.xlsx,,,,,,,,,,,,,,,,,,,,,,,,,,,,,,,
,,,,,,,,,,,,,,,713,2022-02-12_17h41.36.202,multiplicationStroop,2021.2.3,Win32,60.93473889,,,,,left,1,0.555,0,48,48,50,1,6,6,6 | 6,0,1.9756,1.4111,neutral,left,,,,,,stimulusFile/physical.xlsx,,,,,,,,,,,,,,,,,,,,,,,,,,,,,,,
,,,,,,,,,,,,,,,713,2022-02-12_17h41.36.202,multiplicationStroop,2021.2.3,Win32,60.93473889,,,,,right,1,0.4305,0,49,49,1,1,3,4,3 | 4,1,1.4111,1.9756,congruent,right,,,,,,stimulusFile/physical.xlsx,,,,,,,,,,,,,,,,,,,,,,,,,,,,,,,
,,,,,,,,,,,,,,,713,2022-02-12_17h41.36.202,multiplicationStroop,2021.2.3,Win32,60.93473889,,,,,left,1,0.7138,0,50,50,35,1,7,9,7 | 9,2,1.9756,1.4111,incongruent,left,,,,,,stimulusFile/physical.xlsx,,,,,,,,,,,,,,,,,,,,,,,,,,,,,,,
,,,,,,,,,,,,,,,713,2022-02-12_17h41.36.202,multiplicationStroop,2021.2.3,Win32,60.93473889,,,,,left,1,0.5606,0,51,51,33,1,2,4,2 | 4,2,1.9756,1.4111,incongruent,left,,,,,,stimulusFile/physical.xlsx,,,,,,,,,,,,,,,,,,,,,,,,,,,,,,,
,,,,,,,,,,,,,,,713,2022-02-12_17h41.36.202,multiplicationStroop,2021.2.3,Win32,60.93473889,,,,,right,1,0.4499,0,52,52,56,1,1,1,1 | 1,0,1.4111,1.9756,neutral,right,,,,,,stimulusFile/physical.xlsx,,,,,,,,,,,,,,,,,,,,,,,,,,,,,,,
,,,,,,,,,,,,,,,713,2022-02-12_17h41.36.202,multiplicationStroop,2021.2.3,Win32,60.93473889,,,,,left,1,0.4814,0,53,53,15,1,9,7,9 | 7,2,1.9756,1.4111,congruent,left,,,,,,stimulusFile/physical.xlsx,,,,,,,,,,,,,,,,,,,,,,,,,,,,,,,
,,,,,,,,,,,,,,,713,2022-02-12_17h41.36.202,multiplicationStroop,2021.2.3,Win32,60.93473889,,,,,left,1,0.5312,0,54,54,14,1,8,6,8 | 6,2,1.9756,1.4111,congruent,left,,,,,,stimulusFile/physical.xlsx,,,,,,,,,,,,,,,,,,,,,,,,,,,,,,,
,,,,,,,,,,,,,,,713,2022-02-12_17h41.36.202,multiplicationStroop,2021.2.3,Win32,60.93473889,,,,,left,1,0.6386,0,55,55,13,1,4,2,4 | 2,2,1.9756,1.4111,congruent,left,,,,,,stimulusFile/physical.xlsx,,,,,,,,,,,,,,,,,,,,,,,,,,,,,,,
,,,,,,,,,,,,,,,713,2022-02-12_17h41.36.202,multiplicationStroop,2021.2.3,Win32,60.93473889,,,,,left,1,0.5513,0,56,56,6,1,7,6,7 | 6,1,1.9756,1.4111,congruent,left,,,,,,stimulusFile/physical.xlsx,,,,,,,,,,,,,,,,,,,,,,,,,,,,,,,
,,,,,,,,,,,,,,,713,2022-02-12_17h41.36.202,multiplicationStroop,2021.2.3,Win32,60.93473889,,,,,left,1,0.4896,0,57,57,40,1,1,6,1 | 6,5,1.9756,1.4111,incongruent,left,,,,,,stimulusFile/physical.xlsx,,,,,,,,,,,,,,,,,,,,,,,,,,,,,,,
,,,,,,,,,,,,,,,713,2022-02-12_17h41.36.202,multiplicationStroop,2021.2.3,Win32,60.93473889,,,,,right,1,0.5558,0,58,58,19,1,4,9,4 | 9,5,1.4111,1.9756,congruent,right,,,,,,stimulusFile/physical.xlsx,,,,,,,,,,,,,,,,,,,,,,,,,,,,,,,
,,,,,,,,,,,,,,,713,2022-02-12_17h41.36.202,multiplicationStroop,2021.2.3,Win32,60.93473889,,,,,left,1,0.3358,0,59,59,55,1,9,9,9 | 9,0,1.9756,1.4111,neutral,left,,,,,,stimulusFile/physical.xlsx,,,,,,,,,,,,,,,,,,,,,,,,,,,,,,,
,,,,,,,,,,,,,,,713,2022-02-12_17h41.36.202,multiplicationStroop,2021.2.3,Win32,60.93473889,,,,,right,0,0.269,0,60,60,34,1,6,8,6 | 8,2,1.9756,1.4111,incongruent,left,,,,,,stimulusFile/physical.xlsx,,,,,,,,,,,,,,,,,,,,,,,,,,,,,,,
,,,,,,,,,,,,,,,713,2022-02-12_17h41.36.202,multiplicationStroop,2021.2.3,Win32,60.93473889,,,,,left,1,0.7355,0,61,61,27,1,8,9,8 | 9,1,1.9756,1.4111,incongruent,left,,,,,,stimulusFile/physical.xlsx,,,,,,,,,,,,,,,,,,,,,,,,,,,,,,,
,,,,,,,,,,,,,,,713,2022-02-12_17h41.36.202,multiplicationStroop,2021.2.3,Win32,60.93473889,,,,,right,1,0.5357,0,62,62,37,1,4,2,4 | 2,2,1.4111,1.9756,incongruent,right,,,,,,stimulusFile/physical.xlsx,,,,,,,,,,,,,,,,,,,,,,,,,,,,,,,
,,,,,,,,,,,,,,,713,2022-02-12_17h41.36.202,multiplicationStroop,2021.2.3,Win32,60.93473889,,,,,left,1,0.5359,0,63,63,26,1,6,7,6 | 7,1,1.9756,1.4111,incongruent,left,,,,,,stimulusFile/physical.xlsx,,,,,,,,,,,,,,,,,,,,,,,,,,,,,,,
,,,,,,,,,,,,,,,713,2022-02-12_17h41.36.202,multiplicationStroop,2021.2.3,Win32,60.93473889,,,,,right,1,0.4852,0,64,64,2,1,6,7,6 | 7,1,1.4111,1.9756,congruent,right,,,,,,stimulusFile/physical.xlsx,,,,,,,,,,,,,,,,,,,,,,,,,,,,,,,
,,,,,,,,,,,,,,,713,2022-02-12_17h41.36.202,multiplicationStroop,2021.2.3,Win32,60.93473889,,,,,left,1,0.4027,0,65,65,20,1,6,1,6 | 1,5,1.9756,1.4111,congruent,left,,,,,,stimulusFile/physical.xlsx,,,,,,,,,,,,,,,,,,,,,,,,,,,,,,,
,,,,,,,,,,,,,,,713,2022-02-12_17h41.36.202,multiplicationStroop,2021.2.3,Win32,60.93473889,,,,,left,1,0.9192,0,66,66,68,1,6,6,6 | 6,0,1.9756,1.4111,neutral,left,,,,,,stimulusFile/physical.xlsx,,,,,,,,,,,,,,,,,,,,,,,,,,,,,,,
,,,,,,,,,,,,,,,713,2022-02-12_17h41.36.202,multiplicationStroop,2021.2.3,Win32,60.93473889,,,,,right,1,1.1687,0,67,67,30,1,7,6,7 | 6,1,1.4111,1.9756,incongruent,right,,,,,,stimulusFile/physical.xlsx,,,,,,,,,,,,,,,,,,,,,,,,,,,,,,,
,,,,,,,,,,,,,,,713,2022-02-12_17h41.36.202,multiplicationStroop,2021.2.3,Win32,60.93473889,,,,,left,1,0.6362,0,68,68,32,1,1,3,1 | 3,2,1.9756,1.4111,incongruent,left,,,,,,stimulusFile/physical.xlsx,,,,,,,,,,,,,,,,,,,,,,,,,,,,,,,
,,,,,,,,,,,,,,,713,2022-02-12_17h41.36.202,multiplicationStroop,2021.2.3,Win32,60.93473889,,,,,right,1,0.6029,0,69,69,31,1,9,8,9 | 8,1,1.4111,1.9756,incongruent,right,,,,,,stimulusFile/physical.xlsx,,,,,,,,,,,,,,,,,,,,,,,,,,,,,,,
,,,,,,,,,,,,,,,713,2022-02-12_17h41.36.202,multiplicationStroop,2021.2.3,Win32,60.93473889,,,,,right,1,0.6536,0,70,70,46,1,8,3,8 | 3,5,1.4111,1.9756,incongruent,right,,,,,,stimulusFile/physical.xlsx,,,,,,,,,,,,,,,,,,,,,,,,,,,,,,,
,,,,,,,,,,,,,,,713,2022-02-12_17h41.36.202,multiplicationStroop,2021.2.3,Win32,60.93473889,,,,,left,1,0.5178,0,71,71,49,1,3,3,3 | 3,0,1.9756,1.4111,neutral,left,,,,,,stimulusFile/physical.xlsx,,,,,,,,,,,,,,,,,,,,,,,,,,,,,,,
,,,,,,,,,,,,,,,713,2022-02-12_17h41.36.202,multiplicationStroop,2021.2.3,Win32,60.93473889,,,,,,,,,,,,,,,,,,,,,0,0,0,1,1,stimulusFile/physical.xlsx,PHYSICALLY larger (larger font size).,images/physicallyLarger.png,,,,,,,,,,,,,,,,,,,,,,,,,,,,,
,,,,,,,,,,,,,,,713,2022-02-12_17h41.36.202,multiplicationStroop,2021.2.3,Win32,60.93473889,space,2.3967,space,8.0494,right,1,1.1366,0,0,0,64,1,1,6,1 | 6,5,1.6933,1.6933,neutral,right,,,,,,stimulusFile/magnitude.xlsx,,,,,,,,,,,,,,,,,,,,,,,,,,,,,,,
,,,,,,,,,,,,,,,713,2022-02-12_17h41.36.202,multiplicationStroop,2021.2.3,Win32,60.93473889,,,,,left,1,0.7858,0,1,1,31,1,9,8,9 | 8,1,1.4111,1.9756,incongruent,left,,,,,,stimulusFile/magnitude.xlsx,,,,,,,,,,,,,,,,,,,,,,,,,,,,,,,
,,,,,,,,,,,,,,,713,2022-02-12_17h41.36.202,multiplicationStroop,2021.2.3,Win32,60.93473889,,,,,left,1,0.7894,0,2,2,45,1,7,2,7 | 2,5,1.4111,1.9756,incongruent,left,,,,,,stimulusFile/magnitude.xlsx,,,,,,,,,,,,,,,,,,,,,,,,,,,,,,,
,,,,,,,,,,,,,,,713,2022-02-12_17h41.36.202,multiplicationStroop,2021.2.3,Win32,60.93473889,,,,,right,0,0.7655,0,3,3,68,1,6,1,6 | 1,5,1.6933,1.6933,neutral,left,,,,,,stimulusFile/magnitude.xlsx,,,,,,,,,,,,,,,,,,,,,,,,,,,,,,,
,,,,,,,,,,,,,,,713,2022-02-12_17h41.36.202,multiplicationStroop,2021.2.3,Win32,60.93473889,,,,,right,1,0.7624,0,4,4,32,1,1,3,1 | 3,2,1.9756,1.4111,incongruent,right,,,,,,stimulusFile/magnitude.xlsx,,,,,,,,,,,,,,,,,,,,,,,,,,,,,,,
,,,,,,,,,,,,,,,713,2022-02-12_17h41.36.202,multiplicationStroop,2021.2.3,Win32,60.93473889,,,,,left,0,0.5657,0,5,5,2,1,6,7,6 | 7,1,1.4111,1.9756,congruent,right,,,,,,stimulusFile/magnitude.xlsx,,,,,,,,,,,,,,,,,,,,,,,,,,,,,,,
,,,,,,,,,,,,,,,713,2022-02-12_17h41.36.202,multiplicationStroop,2021.2.3,Win32,60.93473889,,,,,right,1,0.9322,0,6,6,8,1,1,3,1 | 3,2,1.4111,1.9756,congruent,right,,,,,,stimulusFile/magnitude.xlsx,,,,,,,,,,,,,,,,,,,,,,,,,,,,,,,
,,,,,,,,,,,,,,,713,2022-02-12_17h41.36.202,multiplicationStroop,2021.2.3,Win32,60.93473889,,,,,left,1,1.1422,0,7,7,46,1,8,3,8 | 3,5,1.4111,1.9756,incongruent,left,,,,,,stimulusFile/magnitude.xlsx,,,,,,,,,,,,,,,,,,,,,,,,,,,,,,,
,,,,,,,,,,,,,,,713,2022-02-12_17h41.36.202,multiplicationStroop,2021.2.3,Win32,60.93473889,,,,,right,1,0.5228,0,8,8,18,1,3,8,3 | 8,5,1.4111,1.9756,congruent,right,,,,,,stimulusFile/magnitude.xlsx,,,,,,,,,,,,,,,,,,,,,,,,,,,,,,,
,,,,,,,,,,,,,,,713,2022-02-12_17h41.36.202,multiplicationStroop,2021.2.3,Win32,60.93473889,,,,,left,1,0.7387,0,9,9,38,1,8,6,8 | 6,2,1.4111,1.9756,incongruent,left,,,,,,stimulusFile/magnitude.xlsx,,,,,,,,,,,,,,,,,,,,,,,,,,,,,,,
,,,,,,,,,,,,,,,713,2022-02-12_17h41.36.202,multiplicationStroop,2021.2.3,Win32,60.93473889,,,,,left,1,0.7594,0,10,10,30,1,7,6,7 | 6,1,1.4111,1.9756,incongruent,left,,,,,,stimulusFile/magnitude.xlsx,,,,,,,,,,,,,,,,,,,,,,,,,,,,,,,
,,,,,,,,,,,,,,,713,2022-02-12_17h41.36.202,multiplicationStroop,2021.2.3,Win32,60.93473889,,,,,left,1,0.7474,0,11,11,13,1,4,2,4 | 2,2,1.9756,1.4111,congruent,left,,,,,,stimulusFile/magnitude.xlsx,,,,,,,,,,,,,,,,,,,,,,,,,,,,,,,
,,,,,,,,,,,,,,,713,2022-02-12_17h41.36.202,multiplicationStroop,2021.2.3,Win32,60.93473889,,,,,left,1,1.3444,0,12,12,71,1,9,4,9 | 4,5,1.6933,1.6933,neutral,left,,,,,,stimulusFile/magnitude.xlsx,,,,,,,,,,,,,,,,,,,,,,,,,,,,,,,
,,,,,,,,,,,,,,,713,2022-02-12_17h41.36.202,multiplicationStroop,2021.2.3,Win32,60.93473889,,,,,right,1,0.4989,0,13,13,41,1,2,7,2 | 7,5,1.9756,1.4111,incongruent,right,,,,,,stimulusFile/magnitude.xlsx,,,,,,,,,,,,,,,,,,,,,,,,,,,,,,,
,,,,,,,,,,,,,,,713,2022-02-12_17h41.36.202,multiplicationStroop,2021.2.3,Win32,60.93473889,,,,,right,1,0.5985,0,14,14,25,1,3,4,3 | 4,1,1.9756,1.4111,incongruent,right,,,,,,stimulusFile/magnitude.xlsx,,,,,,,,,,,,,,,,,,,,,,,,,,,,,,,
,,,,,,,,,,,,,,,713,2022-02-12_17h41.36.202,multiplicationStroop,2021.2.3,Win32,60.93473889,,,,,left,1,0.569,0,15,15,69,1,7,2,7 | 2,5,1.6933,1.6933,neutral,left,,,,,,stimulusFile/magnitude.xlsx,,,,,,,,,,,,,,,,,,,,,,,,,,,,,,,
,,,,,,,,,,,,,,,713,2022-02-12_17h41.36.202,multiplicationStroop,2021.2.3,Win32,60.93473889,,,,,left,1,0.7443,0,16,16,44,1,6,1,6 | 1,5,1.4111,1.9756,incongruent,left,,,,,,stimulusFile/magnitude.xlsx,,,,,,,,,,,,,,,,,,,,,,,,,,,,,,,
,,,,,,,,,,,,,,,713,2022-02-12_17h41.36.202,multiplicationStroop,2021.2.3,Win32,60.93473889,,,,,right,1,0.6162,0,17,17,57,1,2,4,2 | 4,2,1.6933,1.6933,neutral,right,,,,,,stimulusFile/magnitude.xlsx,,,,,,,,,,,,,,,,,,,,,,,,,,,,,,,
,,,,,,,,,,,,,,,713,2022-02-12_17h41.36.202,multiplicationStroop,2021.2.3,Win32,60.93473889,,,,,right,1,0.6011,0,18,18,65,1,2,7,2 | 7,5,1.6933,1.6933,neutral,right,,,,,,stimulusFile/magnitude.xlsx,,,,,,,,,,,,,,,,,,,,,,,,,,,,,,,
,,,,,,,,,,,,,,,713,2022-02-12_17h41.36.202,multiplicationStroop,2021.2.3,Win32,60.93473889,,,,,right,0,1.6506,0,19,19,52,1,2,1,2 | 1,1,1.6933,1.6933,neutral,left,,,,,,stimulusFile/magnitude.xlsx,,,,,,,,,,,,,,,,,,,,,,,,,,,,,,,
,,,,,,,,,,,,,,,713,2022-02-12_17h41.36.202,multiplicationStroop,2021.2.3,Win32,60.93473889,,,,,left,1,0.9436,0,20,20,14,1,8,6,8 | 6,2,1.9756,1.4111,congruent,left,,,,,,stimulusFile/magnitude.xlsx,,,,,,,,,,,,,,,,,,,,,,,,,,,,,,,
,,,,,,,,,,,,,,,713,2022-02-12_17h41.36.202,multiplicationStroop,2021.2.3,Win32,60.93473889,,,,,right,0,0.6498,0,21,21,28,1,2,1,2 | 1,1,1.4111,1.9756,incongruent,left,,,,,,stimulusFile/magnitude.xlsx,,,,,,,,,,,,,,,,,,,,,,,,,,,,,,,
,,,,,,,,,,,,,,,713,2022-02-12_17h41.36.202,multiplicationStroop,2021.2.3,Win32,60.93473889,,,,,left,1,1.0968,0,22,22,54,1,7,6,7 | 6,1,1.6933,1.6933,neutral,left,,,,,,stimulusFile/magnitude.xlsx,,,,,,,,,,,,,,,,,,,,,,,,,,,,,,,
,,,,,,,,,,,,,,,713,2022-02-12_17h41.36.202,multiplicationStroop,2021.2.3,Win32,60.93473889,,,,,left,1,2.2151,0,23,23,22,1,8,3,8 | 3,5,1.9756,1.4111,congruent,left,,,,,,stimulusFile/magnitude.xlsx,,,,,,,,,,,,,,,,,,,,,,,,,,,,,,,
,,,,,,,,,,,,,,,713,2022-02-12_17h41.36.202,multiplicationStroop,2021.2.3,Win32,60.93473889,,,,,right,1,0.5833,0,24,24,16,1,1,6,1 | 6,5,1.4111,1.9756,congruent,right,,,,,,stimulusFile/magnitude.xlsx,,,,,,,,,,,,,,,,,,,,,,,,,,,,,,,
,,,,,,,,,,,,,,,713,2022-02-12_17h41.36.202,multiplicationStroop,2021.2.3,Win32,60.93473889,,,,,right,1,0.5814,0,25,25,51,1,8,9,8 | 9,1,1.6933,1.6933,neutral,right,,,,,,stimulusFile/magnitude.xlsx,,,,,,,,,,,,,,,,,,,,,,,,,,,,,,,
,,,,,,,,,,,,,,,713,2022-02-12_17h41.36.202,multiplicationStroop,2021.2.3,Win32,60.93473889,,,,,right,1,0.4143,0,26,26,40,1,1,6,1 | 6,5,1.9756,1.4111,incongruent,right,,,,,,stimulusFile/magnitude.xlsx,,,,,,,,,,,,,,,,,,,,,,,,,,,,,,,
,,,,,,,,,,,,,,,713,2022-02-12_17h41.36.202,multiplicationStroop,2021.2.3,Win32,60.93473889,,,,,right,1,0.717,0,27,27,0,1,1,2,1 | 2,1,1.4111,1.9756,congruent,right,,,,,,stimulusFile/magnitude.xlsx,,,,,,,,,,,,,,,,,,,,,,,,,,,,,,,
,,,,,,,,,,,,,,,713,2022-02-12_17h41.36.202,multiplicationStroop,2021.2.3,Win32,60.93473889,,,,,left,1,1.0966,0,28,28,60,1,3,1,3 | 1,2,1.6933,1.6933,neutral,left,,,,,,stimulusFile/magnitude.xlsx,,,,,,,,,,,,,,,,,,,,,,,,,,,,,,,
,,,,,,,,,,,,,,,713,2022-02-12_17h41.36.202,multiplicationStroop,2021.2.3,Win32,60.93473889,,,,,left,1,0.5522,0,29,29,53,1,4,3,4 | 3,1,1.6933,1.6933,neutral,left,,,,,,stimulusFile/magnitude.xlsx,,,,,,,,,,,,,,,,,,,,,,,,,,,,,,,
,,,,,,,,,,,,,,,713,2022-02-12_17h41.36.202,multiplicationStroop,2021.2.3,Win32,60.93473889,,,,,right,1,0.4405,0,30,30,17,1,2,7,2 | 7,5,1.4111,1.9756,congruent,right,,,,,,stimulusFile/magnitude.xlsx,,,,,,,,,,,,,,,,,,,,,,,,,,,,,,,
,,,,,,,,,,,,,,,713,2022-02-12_17h41.36.202,multiplicationStroop,2021.2.3,Win32,60.93473889,,,,,right,1,0.7342,0,31,31,48,1,1,2,1 | 2,1,1.6933,1.6933,neutral,right,,,,,,stimulusFile/magnitude.xlsx,,,,,,,,,,,,,,,,,,,,,,,,,,,,,,,
,,,,,,,,,,,,,,,713,2022-02-12_17h41.36.202,multiplicationStroop,2021.2.3,Win32,60.93473889,,,,,left,1,0.5887,0,32,32,6,1,7,6,7 | 6,1,1.9756,1.4111,congruent,left,,,,,,stimulusFile/magnitude.xlsx,,,,,,,,,,,,,,,,,,,,,,,,,,,,,,,
,,,,,,,,,,,,,,,713,2022-02-12_17h41.36.202,multiplicationStroop,2021.2.3,Win32,60.93473889,,,,,right,0,0.4813,0,33,33,37,1,4,2,4 | 2,2,1.4111,1.9756,incongruent,left,,,,,,stimulusFile/magnitude.xlsx,,,,,,,,,,,,,,,,,,,,,,,,,,,,,,,
,,,,,,,,,,,,,,,713,2022-02-12_17h41.36.202,multiplicationStroop,2021.2.3,Win32,60.93473889,,,,,left,1,0.5698,0,34,34,4,1,2,1,2 | 1,1,1.9756,1.4111,congruent,left,,,,,,stimulusFile/magnitude.xlsx,,,,,,,,,,,,,,,,,,,,,,,,,,,,,,,
,,,,,,,,,,,,,,,713,2022-02-12_17h41.36.202,multiplicationStroop,2021.2.3,Win32,60.93473889,,,,,left,1,0.9273,0,35,35,61,1,4,2,4 | 2,2,1.6933,1.6933,neutral,left,,,,,,stimulusFile/magnitude.xlsx,,,,,,,,,,,,,,,,,,,,,,,,,,,,,,,
,,,,,,,,,,,,,,,713,2022-02-12_17h41.36.202,multiplicationStroop,2021.2.3,Win32,60.93473889,,,,,right,1,0.8663,0,36,36,49,1,3,4,3 | 4,1,1.6933,1.6933,neutral,right,,,,,,stimulusFile/magnitude.xlsx,,,,,,,,,,,,,,,,,,,,,,,,,,,,,,,
,,,,,,,,,,,,,,,713,2022-02-12_17h41.36.202,multiplicationStroop,2021.2.3,Win32,60.93473889,,,,,left,1,0.4647,0,37,37,21,1,7,2,7 | 2,5,1.9756,1.4111,congruent,left,,,,,,stimulusFile/magnitude.xlsx,,,,,,,,,,,,,,,,,,,,,,,,,,,,,,,
,,,,,,,,,,,,,,,713,2022-02-12_17h41.36.202,multiplicationStroop,2021.2.3,Win32,60.93473889,,,,,left,1,0.5801,0,38,38,7,1,9,8,9 | 8,1,1.9756,1.4111,congruent,left,,,,,,stimulusFile/magnitude.xlsx,,,,,,,,,,,,,,,,,,,,,,,,,,,,,,,
,,,,,,,,,,,,,,,713,2022-02-12_17h41.36.202,multiplicationStroop,2021.2.3,Win32,60.93473889,,,,,left,0,0.6146,0,39,39,35,1,7,9,7 | 9,2,1.9756,1.4111,incongruent,right,,,,,,stimulusFile/magnitude.xlsx,,,,,,,,,,,,,,,,,,,,,,,,,,,,,,,
,,,,,,,,,,,,,,,713,2022-02-12_17h41.36.202,multiplicationStroop,2021.2.3,Win32,60.93473889,,,,,right,1,0.5486,0,40,40,50,1,6,7,6 | 7,1,1.6933,1.6933,neutral,right,,,,,,stimulusFile/magnitude.xlsx,,,,,,,,,,,,,,,,,,,,,,,,,,,,,,,
,,,,,,,,,,,,,,,713,2022-02-12_17h41.36.202,multiplicationStroop,2021.2.3,Win32,60.93473889,,,,,right,1,0.5986,0,41,41,11,1,7,9,7 | 9,2,1.4111,1.9756,congruent,right,,,,,,stimulusFile/magnitude.xlsx,,,,,,,,,,,,,,,,,,,,,,,,,,,,,,,
,,,,,,,,,,,,,,,713,2022-02-12_17h41.36.202,multiplicationStroop,2021.2.3,Win32,60.93473889,,,,,left,1,0.5251,0,42,42,5,1,4,3,4 | 3,1,1.9756,1.4111,congruent,left,,,,,,stimulusFile/magnitude.xlsx,,,,,,,,,,,,,,,,,,,,,,,,,,,,,,,
,,,,,,,,,,,,,,,713,2022-02-12_17h41.36.202,multiplicationStroop,2021.2.3,Win32,60.93473889,,,,,right,1,0.4249,0,43,43,19,1,4,9,4 | 9,5,1.4111,1.9756,congruent,right,,,,,,stimulusFile/magnitude.xlsx,,,,,,,,,,,,,,,,,,,,,,,,,,,,,,,
,,,,,,,,,,,,,,,713,2022-02-12_17h41.36.202,multiplicationStroop,2021.2.3,Win32,60.93473889,,,,,left,1,0.5971,0,44,44,63,1,9,7,9 | 7,2,1.6933,1.6933,neutral,left,,,,,,stimulusFile/magnitude.xlsx,,,,,,,,,,,,,,,,,,,,,,,,,,,,,,,
,,,,,,,,,,,,,,,713,2022-02-12_17h41.36.202,multiplicationStroop,2021.2.3,Win32,60.93473889,,,,,right,1,0.763,0,45,45,42,1,3,8,3 | 8,5,1.9756,1.4111,incongruent,right,,,,,,stimulusFile/magnitude.xlsx,,,,,,,,,,,,,,,,,,,,,,,,,,,,,,,
,,,,,,,,,,,,,,,713,2022-02-12_17h41.36.202,multiplicationStroop,2021.2.3,Win32,60.93473889,,,,,right,1,0.806,0,46,46,33,1,2,4,2 | 4,2,1.9756,1.4111,incongruent,right,,,,,,stimulusFile/magnitude.xlsx,,,,,,,,,,,,,,,,,,,,,,,,,,,,,,,
,,,,,,,,,,,,,,,713,2022-02-12_17h41.36.202,multiplicationStroop,2021.2.3,Win32,60.93473889,,,,,left,1,0.6018,0,47,47,70,1,8,3,8 | 3,5,1.6933,1.6933,neutral,left,,,,,,stimulusFile/magnitude.xlsx,,,,,,,,,,,,,,,,,,,,,,,,,,,,,,,
,,,,,,,,,,,,,,,713,2022-02-12_17h41.36.202,multiplicationStroop,2021.2.3,Win32,60.93473889,,,,,right,0,0.5227,0,48,48,39,1,9,7,9 | 7,2,1.4111,1.9756,incongruent,left,,,,,,stimulusFile/magnitude.xlsx,,,,,,,,,,,,,,,,,,,,,,,,,,,,,,,
,,,,,,,,,,,,,,,713,2022-02-12_17h41.36.202,multiplicationStroop,2021.2.3,Win32,60.93473889,,,,,right,1,0.7641,0,49,49,66,1,3,8,3 | 8,5,1.6933,1.6933,neutral,right,,,,,,stimulusFile/magnitude.xlsx,,,,,,,,,,,,,,,,,,,,,,,,,,,,,,,
,,,,,,,,,,,,,,,713,2022-02-12_17h41.36.202,multiplicationStroop,2021.2.3,Win32,60.93473889,,,,,right,1,1.4488,0,50,50,34,1,6,8,6 | 8,2,1.9756,1.4111,incongruent,right,,,,,,stimulusFile/magnitude.xlsx,,,,,,,,,,,,,,,,,,,,,,,,,,,,,,,
,,,,,,,,,,,,,,,713,2022-02-12_17h41.36.202,multiplicationStroop,2021.2.3,Win32,60.93473889,,,,,left,1,0.9471,0,51,51,15,1,9,7,9 | 7,2,1.9756,1.4111,congruent,left,,,,,,stimulusFile/magnitude.xlsx,,,,,,,,,,,,,,,,,,,,,,,,,,,,,,,
,,,,,,,,,,,,,,,713,2022-02-12_17h41.36.202,multiplicationStroop,2021.2.3,Win32,60.93473889,,,,,left,1,1.6144,0,52,52,55,1,9,8,9 | 8,1,1.6933,1.6933,neutral,left,,,,,,stimulusFile/magnitude.xlsx,,,,,,,,,,,,,,,,,,,,,,,,,,,,,,,
,,,,,,,,,,,,,,,713,2022-02-12_17h41.36.202,multiplicationStroop,2021.2.3,Win32,60.93473889,,,,,left,1,0.5555,0,53,53,20,1,6,1,6 | 1,5,1.9756,1.4111,congruent,left,,,,,,stimulusFile/magnitude.xlsx,,,,,,,,,,,,,,,,,,,,,,,,,,,,,,,
,,,,,,,,,,,,,,,713,2022-02-12_17h41.36.202,multiplicationStroop,2021.2.3,Win32,60.93473889,,,,,right,1,0.6777,0,54,54,27,1,8,9,8 | 9,1,1.9756,1.4111,incongruent,right,,,,,,stimulusFile/magnitude.xlsx,,,,,,,,,,,,,,,,,,,,,,,,,,,,,,,
,,,,,,,,,,,,,,,713,2022-02-12_17h41.36.202,multiplicationStroop,2021.2.3,Win32,60.93473889,,,,,right,1,0.5644,0,55,55,59,1,7,9,7 | 9,2,1.6933,1.6933,neutral,right,,,,,,stimulusFile/magnitude.xlsx,,,,,,,,,,,,,,,,,,,,,,,,,,,,,,,
,,,,,,,,,,,,,,,713,2022-02-12_17h41.36.202,multiplicationStroop,2021.2.3,Win32,60.93473889,,,,,left,1,0.598,0,56,56,47,1,9,4,9 | 4,5,1.4111,1.9756,incongruent,left,,,,,,stimulusFile/magnitude.xlsx,,,,,,,,,,,,,,,,,,,,,,,,,,,,,,,
,,,,,,,,,,,,,,,713,2022-02-12_17h41.36.202,multiplicationStroop,2021.2.3,Win32,60.93473889,,,,,right,1,0.7483,0,57,57,26,1,6,7,6 | 7,1,1.9756,1.4111,incongruent,right,,,,,,stimulusFile/magnitude.xlsx,,,,,,,,,,,,,,,,,,,,,,,,,,,,,,,
,,,,,,,,,,,,,,,713,2022-02-12_17h41.36.202,multiplicationStroop,2021.2.3,Win32,60.93473889,,,,,right,1,0.5876,0,58,58,43,1,4,9,4 | 9,5,1.9756,1.4111,incongruent,right,,,,,,stimulusFile/magnitude.xlsx,,,,,,,,,,,,,,,,,,,,,,,,,,,,,,,
,,,,,,,,,,,,,,,713,2022-02-12_17h41.36.202,multiplicationStroop,2021.2.3,Win32,60.93473889,,,,,left,1,0.6315,0,59,59,62,1,8,6,8 | 6,2,1.6933,1.6933,neutral,left,,,,,,stimulusFile/magnitude.xlsx,,,,,,,,,,,,,,,,,,,,,,,,,,,,,,,
,,,,,,,,,,,,,,,713,2022-02-12_17h41.36.202,multiplicationStroop,2021.2.3,Win32,60.93473889,,,,,right,1,0.6477,0,60,60,58,1,6,8,6 | 8,2,1.6933,1.6933,neutral,right,,,,,,stimulusFile/magnitude.xlsx,,,,,,,,,,,,,,,,,,,,,,,,,,,,,,,
,,,,,,,,,,,,,,,713,2022-02-12_17h41.36.202,multiplicationStroop,2021.2.3,Win32,60.93473889,,,,,right,1,0.628,0,61,61,3,1,8,9,8 | 9,1,1.4111,1.9756,congruent,right,,,,,,stimulusFile/magnitude.xlsx,,,,,,,,,,,,,,,,,,,,,,,,,,,,,,,
,,,,,,,,,,,,,,,713,2022-02-12_17h41.36.202,multiplicationStroop,2021.2.3,Win32,60.93473889,,,,,left,1,1.1634,0,62,62,29,1,4,3,4 | 3,1,1.4111,1.9756,incongruent,left,,,,,,stimulusFile/magnitude.xlsx,,,,,,,,,,,,,,,,,,,,,,,,,,,,,,,
,,,,,,,,,,,,,,,713,2022-02-12_17h41.36.202,multiplicationStroop,2021.2.3,Win32,60.93473889,,,,,right,1,0.58,0,63,63,24,1,1,2,1 | 2,1,1.9756,1.4111,incongruent,right,,,,,,stimulusFile/magnitude.xlsx,,,,,,,,,,,,,,,,,,,,,,,,,,,,,,,
,,,,,,,,,,,,,,,713,2022-02-12_17h41.36.202,multiplicationStroop,2021.2.3,Win32,60.93473889,,,,,left,1,0.8285,0,64,64,36,1,3,1,3 | 1,2,1.4111,1.9756,incongruent,left,,,,,,stimulusFile/magnitude.xlsx,,,,,,,,,,,,,,,,,,,,,,,,,,,,,,,
,,,,,,,,,,,,,,,713,2022-02-12_17h41.36.202,multiplicationStroop,2021.2.3,Win32,60.93473889,,,,,right,1,0.5318,0,65,65,9,1,2,4,2 | 4,2,1.4111,1.9756,congruent,right,,,,,,stimulusFile/magnitude.xlsx,,,,,,,,,,,,,,,,,,,,,,,,,,,,,,,
,,,,,,,,,,,,,,,713,2022-02-12_17h41.36.202,multiplicationStroop,2021.2.3,Win32,60.93473889,,,,,right,1,0.5225,0,66,66,1,1,3,4,3 | 4,1,1.4111,1.9756,congruent,right,,,,,,stimulusFile/magnitude.xlsx,,,,,,,,,,,,,,,,,,,,,,,,,,,,,,,
,,,,,,,,,,,,,,,713,2022-02-12_17h41.36.202,multiplicationStroop,2021.2.3,Win32,60.93473889,,,,,right,1,0.7648,0,67,67,10,1,6,8,6 | 8,2,1.4111,1.9756,congruent,right,,,,,,stimulusFile/magnitude.xlsx,,,,,,,,,,,,,,,,,,,,,,,,,,,,,,,
,,,,,,,,,,,,,,,713,2022-02-12_17h41.36.202,multiplicationStroop,2021.2.3,Win32,60.93473889,,,,,right,1,0.4948,0,68,68,67,1,4,9,4 | 9,5,1.6933,1.6933,neutral,right,,,,,,stimulusFile/magnitude.xlsx,,,,,,,,,,,,,,,,,,,,,,,,,,,,,,,
,,,,,,,,,,,,,,,713,2022-02-12_17h41.36.202,multiplicationStroop,2021.2.3,Win32,60.93473889,,,,,left,1,1.3026,0,69,69,12,1,3,1,3 | 1,2,1.9756,1.4111,congruent,left,,,,,,stimulusFile/magnitude.xlsx,,,,,,,,,,,,,,,,,,,,,,,,,,,,,,,
,,,,,,,,,,,,,,,713,2022-02-12_17h41.36.202,multiplicationStroop,2021.2.3,Win32,60.93473889,,,,,right,1,0.4123,0,70,70,56,1,1,3,1 | 3,2,1.6933,1.6933,neutral,right,,,,,,stimulusFile/magnitude.xlsx,,,,,,,,,,,,,,,,,,,,,,,,,,,,,,,
,,,,,,,,,,,,,,,713,2022-02-12_17h41.36.202,multiplicationStroop,2021.2.3,Win32,60.93473889,,,,,left,1,0.4261,0,71,71,23,1,9,4,9 | 4,5,1.9756,1.4111,congruent,left,,,,,,stimulusFile/magnitude.xlsx,,,,,,,,,,,,,,,,,,,,,,,,,,,,,,,
,,,,,,,,,,,,,,,713,2022-02-12_17h41.36.202,multiplicationStroop,2021.2.3,Win32,60.93473889,,,,,,,,,,,,,,,,,,,,,0,1,1,0,1,stimulusFile/magnitude.xlsx,NUMERICALLY larger (larger coefficient).,images/numericallyLarger.png,,,,,,,,,,,,,,,,,,,,,,,,,,,,,
,,,,,,,,,,,,,,,713,2022-02-12_17h41.36.202,multiplicationStroop,2021.2.3,Win32,60.93473889,,,,,,,,,,,,,,,,,,,,,,,,,,,,,space,3.3929,space,1.7696,6,4.3362,1,0,0,0,25,1,3,×,2,3 × 2,incongruent,largerFirst,1,2,6,,,,,,,,
,,,,,,,,,,,,,,,713,2022-02-12_17h41.36.202,multiplicationStroop,2021.2.3,Win32,60.93473889,,,,,,,,,,,,,,,,,,,,,,,,,,,,,,,,,21,2.2571,1,0,1,1,12,1,3,×,7,3 × 7,incongruent,smallerFirst,2,1,21,,,,,,,,
,,,,,,,,,,,,,,,713,2022-02-12_17h41.36.202,multiplicationStroop,2021.2.3,Win32,60.93473889,,,,,,,,,,,,,,,,,,,,,,,,,,,,,,,,,54,5.8143,1,0,2,2,20,1,9,×,6,9 × 6,incongruent,largerFirst,1,2,54,,,,,,,,
,,,,,,,,,,,,,,,713,2022-02-12_17h41.36.202,multiplicationStroop,2021.2.3,Win32,60.93473889,,,,,,,,,,,,,,,,,,,,,,,,,,,,,,,,,8,2.3158,1,0,3,3,10,1,2,×,4,2 × 4,incongruent,smallerFirst,2,1,8,,,,,,,,
,,,,,,,,,,,,,,,713,2022-02-12_17h41.36.202,multiplicationStroop,2021.2.3,Win32,60.93473889,,,,,,,,,,,,,,,,,,,,,,,,,,,,,,,,,4,1.6645,1,0,4,4,28,1,2,×,2,2 × 2,neutral,tie,2,1,4,,,,,,,,
,,,,,,,,,,,,,,,713,2022-02-12_17h41.36.202,multiplicationStroop,2021.2.3,Win32,60.93473889,,,,,,,,,,,,,,,,,,,,,,,,,,,,,,,,,24,1.631,1,0,5,5,23,1,8,×,3,8 × 3,incongruent,largerFirst,1,2,24,,,,,,,,
,,,,,,,,,,,,,,,713,2022-02-12_17h41.36.202,multiplicationStroop,2021.2.3,Win32,60.93473889,,,,,,,,,,,,,,,,,,,,,,,,,,,,,,,,,36,1.8642,1,0,6,6,32,1,6,×,6,6 × 6,neutral,tie,2,1,36,,,,,,,,
,,,,,,,,,,,,,,,713,2022-02-12_17h41.36.202,multiplicationStroop,2021.2.3,Win32,60.93473889,,,,,,,,,,,,,,,,,,,,,,,,,,,,,,,,,18,4.7636,1,0,7,7,22,1,6,×,3,6 × 3,incongruent,largerFirst,1,2,18,,,,,,,,
,,,,,,,,,,,,,,,713,2022-02-12_17h41.36.202,multiplicationStroop,2021.2.3,Win32,60.93473889,,,,,,,,,,,,,,,,,,,,,,,,,,,,,,,,,1,2.2051,0,0,8,8,9,1,2,×,8,2 × 8,incongruent,smallerFirst,2,1,16,,,,,,,,
,,,,,,,,,,,,,,,713,2022-02-12_17h41.36.202,multiplicationStroop,2021.2.3,Win32,60.93473889,,,,,,,,,,,,,,,,,,,,,,,,,,,,,,,,,24,3.2305,1,0,9,9,6,1,4,×,6,4 × 6,incongruent,smallerFirst,2,1,24,,,,,,,,
,,,,,,,,,,,,,,,713,2022-02-12_17h41.36.202,multiplicationStroop,2021.2.3,Win32,60.93473889,,,,,,,,,,,,,,,,,,,,,,,,,,,,,,,,,56,2.8671,1,0,10,10,0,1,7,×,8,7 × 8,incongruent,smallerFirst,2,1,56,,,,,,,,
,,,,,,,,,,,,,,,713,2022-02-12_17h41.36.202,multiplicationStroop,2021.2.3,Win32,60.93473889,,,,,,,,,,,,,,,,,,,,,,,,,,,,,,,,,18,1.9734,1,0,11,11,16,1,9,×,2,9 × 2,incongruent,largerFirst,1,2,18,,,,,,,,
,,,,,,,,,,,,,,,713,2022-02-12_17h41.36.202,multiplicationStroop,2021.2.3,Win32,60.93473889,,,,,,,,,,,,,,,,,,,,,,,,,,,,,,,,,25,1.8493,1,0,12,12,31,1,5,×,5,5 × 5,neutral,tie,2,1,25,,,,,,,,
,,,,,,,,,,,,,,,713,2022-02-12_17h41.36.202,multiplicationStroop,2021.2.3,Win32,60.93473889,,,,,,,,,,,,,,,,,,,,,,,,,,,,,,,,,40,2.3327,1,0,13,13,27,1,8,×,5,8 × 5,incongruent,largerFirst,1,2,40,,,,,,,,
,,,,,,,,,,,,,,,713,2022-02-12_17h41.36.202,multiplicationStroop,2021.2.3,Win32,60.93473889,,,,,,,,,,,,,,,,,,,,,,,,,,,,,,,,,20,1.8816,1,0,14,14,13,1,4,×,5,4 × 5,incongruent,smallerFirst,2,1,20,,,,,,,,
,,,,,,,,,,,,,,,713,2022-02-12_17h41.36.202,multiplicationStroop,2021.2.3,Win32,60.93473889,,,,,,,,,,,,,,,,,,,,,,,,,,,,,,,,,16,2.1143,1,0,15,15,30,1,4,×,4,4 × 4,neutral,tie,2,1,16,,,,,,,,
,,,,,,,,,,,,,,,713,2022-02-12_17h41.36.202,multiplicationStroop,2021.2.3,Win32,60.93473889,,,,,,,,,,,,,,,,,,,,,,,,,,,,,,,,,42,7.6821,0,0,16,16,15,1,8,×,6,8 × 6,incongruent,largerFirst,1,2,48,,,,,,,,
,,,,,,,,,,,,,,,713,2022-02-12_17h41.36.202,multiplicationStroop,2021.2.3,Win32,60.93473889,,,,,,,,,,,,,,,,,,,,,,,,,,,,,,,,,27,1.7729,1,0,17,17,4,1,3,×,9,3 × 9,incongruent,smallerFirst,2,1,27,,,,,,,,
,,,,,,,,,,,,,,,713,2022-02-12_17h41.36.202,multiplicationStroop,2021.2.3,Win32,60.93473889,,,,,,,,,,,,,,,,,,,,,,,,,,,,,,,,,63,3.4807,1,0,18,18,17,1,9,×,7,9 × 7,incongruent,largerFirst,1,2,63,,,,,,,,
,,,,,,,,,,,,,,,713,2022-02-12_17h41.36.202,multiplicationStroop,2021.2.3,Win32,60.93473889,,,,,,,,,,,,,,,,,,,,,,,,,,,,,,,,,30,1.8846,1,0,19,19,11,1,5,×,6,5 × 6,incongruent,smallerFirst,2,1,30,,,,,,,,
,,,,,,,,,,,,,,,713,2022-02-12_17h41.36.202,multiplicationStroop,2021.2.3,Win32,60.93473889,,,,,,,,,,,,,,,,,,,,,,,,,,,,,,,,,12,1.9484,1,0,20,20,5,1,2,×,6,2 × 6,incongruent,smallerFirst,2,1,12,,,,,,,,
,,,,,,,,,,,,,,,713,2022-02-12_17h41.36.202,multiplicationStroop,2021.2.3,Win32,60.93473889,,,,,,,,,,,,,,,,,,,,,,,,,,,,,,,,,45,7.5814,1,0,21,21,8,1,5,×,9,5 × 9,incongruent,smallerFirst,2,1,45,,,,,,,,
,,,,,,,,,,,,,,,713,2022-02-12_17h41.36.202,multiplicationStroop,2021.2.3,Win32,60.93473889,,,,,,,,,,,,,,,,,,,,,,,,,,,,,,,,,36,3.4819,1,0,22,22,1,1,4,×,9,4 × 9,incongruent,smallerFirst,2,1,36,,,,,,,,
,,,,,,,,,,,,,,,713,2022-02-12_17h41.36.202,multiplicationStroop,2021.2.3,Win32,60.93473889,,,,,,,,,,,,,,,,,,,,,,,,,,,,,,,,,72,5.4646,1,0,23,23,14,1,9,×,8,9 × 8,incongruent,largerFirst,1,2,72,,,,,,,,
,,,,,,,,,,,,,,,713,2022-02-12_17h41.36.202,multiplicationStroop,2021.2.3,Win32,60.93473889,,,,,,,,,,,,,,,,,,,,,,,,,,,,,,,,,10,2.0751,1,0,24,24,7,1,2,×,5,2 × 5,incongruent,smallerFirst,2,1,10,,,,,,,,
,,,,,,,,,,,,,,,713,2022-02-12_17h41.36.202,multiplicationStroop,2021.2.3,Win32,60.93473889,,,,,,,,,,,,,,,,,,,,,,,,,,,,,,,,,28,1.7316,1,0,25,25,2,1,4,×,7,4 × 7,incongruent,smallerFirst,2,1,28,,,,,,,,
,,,,,,,,,,,,,,,713,2022-02-12_17h41.36.202,multiplicationStroop,2021.2.3,Win32,60.93473889,,,,,,,,,,,,,,,,,,,,,,,,,,,,,,,,,32,4.3986,1,0,26,26,21,1,8,×,4,8 × 4,incongruent,largerFirst,1,2,32,,,,,,,,
,,,,,,,,,,,,,,,713,2022-02-12_17h41.36.202,multiplicationStroop,2021.2.3,Win32,60.93473889,,,,,,,,,,,,,,,,,,,,,,,,,,,,,,,,,12,1.4227,1,0,27,27,19,1,4,×,3,4 × 3,incongruent,largerFirst,1,2,12,,,,,,,,
,,,,,,,,,,,,,,,713,2022-02-12_17h41.36.202,multiplicationStroop,2021.2.3,Win32,60.93473889,,,,,,,,,,,,,,,,,,,,,,,,,,,,,,,,,64,1.9138,1,0,28,28,34,1,8,×,8,8 × 8,neutral,tie,2,1,64,,,,,,,,
,,,,,,,,,,,,,,,713,2022-02-12_17h41.36.202,multiplicationStroop,2021.2.3,Win32,60.93473889,,,,,,,,,,,,,,,,,,,,,,,,,,,,,,,,,81,2.1316,1,0,29,29,35,1,9,×,9,9 × 9,neutral,tie,2,1,81,,,,,,,,
,,,,,,,,,,,,,,,713,2022-02-12_17h41.36.202,multiplicationStroop,2021.2.3,Win32,60.93473889,,,,,,,,,,,,,,,,,,,,,,,,,,,,,,,,,14,2.0476,1,0,30,30,18,1,7,×,2,7 × 2,incongruent,largerFirst,1,2,14,,,,,,,,
,,,,,,,,,,,,,,,713,2022-02-12_17h41.36.202,multiplicationStroop,2021.2.3,Win32,60.93473889,,,,,,,,,,,,,,,,,,,,,,,,,,,,,,,,,42,8.8806,1,0,31,31,3,1,6,×,7,6 × 7,incongruent,smallerFirst,2,1,42,,,,,,,,
,,,,,,,,,,,,,,,713,2022-02-12_17h41.36.202,multiplicationStroop,2021.2.3,Win32,60.93473889,,,,,,,,,,,,,,,,,,,,,,,,,,,,,,,,,9,3.2734,1,0,32,32,29,1,3,×,3,3 × 3,neutral,tie,2,1,9,,,,,,,,
,,,,,,,,,,,,,,,713,2022-02-12_17h41.36.202,multiplicationStroop,2021.2.3,Win32,60.93473889,,,,,,,,,,,,,,,,,,,,,,,,,,,,,,,,,35,1.8336,1,0,33,33,26,1,7,×,5,7 × 5,incongruent,largerFirst,1,2,35,,,,,,,,
,,,,,,,,,,,,,,,713,2022-02-12_17h41.36.202,multiplicationStroop,2021.2.3,Win32,60.93473889,,,,,,,,,,,,,,,,,,,,,,,,,,,,,,,,,49,2.0149,1,0,34,34,33,1,7,×,7,7 × 7,neutral,tie,2,1,49,,,,,,,,
,,,,,,,,,,,,,,,713,2022-02-12_17h41.36.202,multiplicationStroop,2021.2.3,Win32,60.93473889,,,,,,,,,,,,,,,,,,,,,,,,,,,,,,,,,15,1.9981,1,0,35,35,24,1,5,×,3,5 × 3,incongruent,largerFirst,1,2,15,,,,,,,,
,,,,,,,,,,,,,,,713,2022-02-12_17h41.36.202,multiplicationStroop,2021.2.3,Win32,60.93473889,,,,,,,,,,,,,,,,,,,,,,,,,,,,,,,,,,,,,,,,,,,,,,,,,,0,0,0,4,1,stimulusFile/mult_blk5_INcongruent.xlsx,,
,,,,,,,,,,,,,,,713,2022-02-12_17h41.36.202,multiplicationStroop,2021.2.3,Win32,60.93473889,,,,,,,,,,,,,,,,,,,,,,,,,,,,,,,space,2.2191,6,1.7463,1,0,0,0,27,1,3,×,2,3 × 2,congruent,largerFirst,2,1,6,,,,,,,,
,,,,,,,,,,,,,,,713,2022-02-12_17h41.36.202,multiplicationStroop,2021.2.3,Win32,60.93473889,,,,,,,,,,,,,,,,,,,,,,,,,,,,,,,,,45,2.3307,1,0,1,1,9,1,5,×,9,5 × 9,congruent,smallerFirst,1,2,45,,,,,,,,
,,,,,,,,,,,,,,,713,2022-02-12_17h41.36.202,multiplicationStroop,2021.2.3,Win32,60.93473889,,,,,,,,,,,,,,,,,,,,,,,,,,,,,,,,,36,1.8983,1,0,2,2,14,1,9,×,4,9 × 4,congruent,largerFirst,2,1,36,,,,,,,,
,,,,,,,,,,,,,,,713,2022-02-12_17h41.36.202,multiplicationStroop,2021.2.3,Win32,60.93473889,,,,,,,,,,,,,,,,,,,,,,,,,,,,,,,,,24,2.0661,1,0,3,3,24,1,8,×,3,8 × 3,congruent,largerFirst,2,1,24,,,,,,,,
,,,,,,,,,,,,,,,713,2022-02-12_17h41.36.202,multiplicationStroop,2021.2.3,Win32,60.93473889,,,,,,,,,,,,,,,,,,,,,,,,,,,,,,,,,54,5.9648,1,0,4,4,26,1,9,×,6,9 × 6,congruent,largerFirst,2,1,54,,,,,,,,
,,,,,,,,,,,,,,,713,2022-02-12_17h41.36.202,multiplicationStroop,2021.2.3,Win32,60.93473889,,,,,,,,,,,,,,,,,,,,,,,,,,,,,,,,,32,2.2016,1,0,5,5,6,1,4,×,8,4 × 8,congruent,smallerFirst,1,2,32,,,,,,,,
,,,,,,,,,,,,,,,713,2022-02-12_17h41.36.202,multiplicationStroop,2021.2.3,Win32,60.93473889,,,,,,,,,,,,,,,,,,,,,,,,,,,,,,,,,28,1.9792,1,0,6,6,13,1,4,×,7,4 × 7,congruent,smallerFirst,1,2,28,,,,,,,,
,,,,,,,,,,,,,,,713,2022-02-12_17h41.36.202,multiplicationStroop,2021.2.3,Win32,60.93473889,,,,,,,,,,,,,,,,,,,,,,,,,,,,,,,,,81,1.7477,1,0,7,7,35,1,9,×,9,9 × 9,neutral,tie,1,2,81,,,,,,,,
,,,,,,,,,,,,,,,713,2022-02-12_17h41.36.202,multiplicationStroop,2021.2.3,Win32,60.93473889,,,,,,,,,,,,,,,,,,,,,,,,,,,,,,,,,42,2.9978,1,0,8,8,17,1,7,×,6,7 × 6,congruent,largerFirst,2,1,42,,,,,,,,
,,,,,,,,,,,,,,,713,2022-02-12_17h41.36.202,multiplicationStroop,2021.2.3,Win32,60.93473889,,,,,,,,,,,,,,,,,,,,,,,,,,,,,,,,,15,1.6006,1,0,9,9,18,1,5,×,3,5 × 3,congruent,largerFirst,2,1,15,,,,,,,,
,,,,,,,,,,,,,,,713,2022-02-12_17h41.36.202,multiplicationStroop,2021.2.3,Win32,60.93473889,,,,,,,,,,,,,,,,,,,,,,,,,,,,,,,,,49,2.4153,1,0,10,10,33,1,7,×,7,7 × 7,neutral,tie,1,2,49,,,,,,,,
,,,,,,,,,,,,,,,713,2022-02-12_17h41.36.202,multiplicationStroop,2021.2.3,Win32,60.93473889,,,,,,,,,,,,,,,,,,,,,,,,,,,,,,,,,21,2.4143,1,0,11,11,2,1,3,×,7,3 × 7,congruent,smallerFirst,1,2,21,,,,,,,,
,,,,,,,,,,,,,,,713,2022-02-12_17h41.36.202,multiplicationStroop,2021.2.3,Win32,60.93473889,,,,,,,,,,,,,,,,,,,,,,,,,,,,,,,,,4,1.6482,1,0,12,12,28,1,2,×,2,2 × 2,neutral,tie,1,2,4,,,,,,,,
,,,,,,,,,,,,,,,713,2022-02-12_17h41.36.202,multiplicationStroop,2021.2.3,Win32,60.93473889,,,,,,,,,,,,,,,,,,,,,,,,,,,,,,,,,10,1.7143,1,0,13,13,10,1,2,×,5,2 × 5,congruent,smallerFirst,1,2,10,,,,,,,,
,,,,,,,,,,,,,,,713,2022-02-12_17h41.36.202,multiplicationStroop,2021.2.3,Win32,60.93473889,,,,,,,,,,,,,,,,,,,,,,,,,,,,,,,,,25,1.5313,1,0,14,14,31,1,5,×,5,5 × 5,neutral,tie,1,2,25,,,,,,,,
,,,,,,,,,,,,,,,713,2022-02-12_17h41.36.202,multiplicationStroop,2021.2.3,Win32,60.93473889,,,,,,,,,,,,,,,,,,,,,,,,,,,,,,,,,40,1.9816,1,0,15,15,20,1,8,×,5,8 × 5,congruent,largerFirst,2,1,40,,,,,,,,
,,,,,,,,,,,,,,,713,2022-02-12_17h41.36.202,multiplicationStroop,2021.2.3,Win32,60.93473889,,,,,,,,,,,,,,,,,,,,,,,,,,,,,,,,,18,1.9639,1,0,16,16,25,1,6,×,3,6 × 3,congruent,largerFirst,2,1,18,,,,,,,,
,,,,,,,,,,,,,,,713,2022-02-12_17h41.36.202,multiplicationStroop,2021.2.3,Win32,60.93473889,,,,,,,,,,,,,,,,,,,,,,,,,,,,,,,,,12,1.4647,1,0,17,17,16,1,4,×,3,4 × 3,congruent,largerFirst,2,1,12,,,,,,,,
,,,,,,,,,,,,,,,713,2022-02-12_17h41.36.202,multiplicationStroop,2021.2.3,Win32,60.93473889,,,,,,,,,,,,,,,,,,,,,,,,,,,,,,,,,4,2.481,0,0,18,18,34,1,8,×,8,8 × 8,neutral,tie,1,2,64,,,,,,,,
,,,,,,,,,,,,,,,713,2022-02-12_17h41.36.202,multiplicationStroop,2021.2.3,Win32,60.93473889,,,,,,,,,,,,,,,,,,,,,,,,,,,,,,,,,14,3.5311,1,0,19,19,0,1,2,×,7,2 × 7,congruent,smallerFirst,1,2,14,,,,,,,,
,,,,,,,,,,,,,,,713,2022-02-12_17h41.36.202,multiplicationStroop,2021.2.3,Win32,60.93473889,,,,,,,,,,,,,,,,,,,,,,,,,,,,,,,,,72,2.107,1,0,20,20,3,1,8,×,9,8 × 9,congruent,smallerFirst,1,2,72,,,,,,,,
,,,,,,,,,,,,,,,713,2022-02-12_17h41.36.202,multiplicationStroop,2021.2.3,Win32,60.93473889,,,,,,,,,,,,,,,,,,,,,,,,,,,,,,,,,27,3.6736,1,0,21,21,12,1,3,×,9,3 × 9,congruent,smallerFirst,1,2,27,,,,,,,,
,,,,,,,,,,,,,,,713,2022-02-12_17h41.36.202,multiplicationStroop,2021.2.3,Win32,60.93473889,,,,,,,,,,,,,,,,,,,,,,,,,,,,,,,,,16,1.816,1,0,22,22,30,1,4,×,4,4 × 4,neutral,tie,1,2,16,,,,,,,,
,,,,,,,,,,,,,,,713,2022-02-12_17h41.36.202,multiplicationStroop,2021.2.3,Win32,60.93473889,,,,,,,,,,,,,,,,,,,,,,,,,,,,,,,,,12,2.864,1,0,23,23,5,1,2,×,6,2 × 6,congruent,smallerFirst,1,2,12,,,,,,,,
,,,,,,,,,,,,,,,713,2022-02-12_17h41.36.202,multiplicationStroop,2021.2.3,Win32,60.93473889,,,,,,,,,,,,,,,,,,,,,,,,,,,,,,,,,35,2.0809,1,0,24,24,15,1,7,×,5,7 × 5,congruent,largerFirst,2,1,35,,,,,,,,
,,,,,,,,,,,,,,,713,2022-02-12_17h41.36.202,multiplicationStroop,2021.2.3,Win32,60.93473889,,,,,,,,,,,,,,,,,,,,,,,,,,,,,,,,,30,1.9643,1,0,25,25,1,1,5,×,6,5 × 6,congruent,smallerFirst,1,2,30,,,,,,,,
,,,,,,,,,,,,,,,713,2022-02-12_17h41.36.202,multiplicationStroop,2021.2.3,Win32,60.93473889,,,,,,,,,,,,,,,,,,,,,,,,,,,,,,,,,35,2.1643,0,0,26,26,22,1,8,×,7,8 × 7,congruent,largerFirst,2,1,56,,,,,,,,
,,,,,,,,,,,,,,,713,2022-02-12_17h41.36.202,multiplicationStroop,2021.2.3,Win32,60.93473889,,,,,,,,,,,,,,,,,,,,,,,,,,,,,,,,,8,2.0313,1,0,27,27,23,1,4,×,2,4 × 2,congruent,largerFirst,2,1,8,,,,,,,,
,,,,,,,,,,,,,,,713,2022-02-12_17h41.36.202,multiplicationStroop,2021.2.3,Win32,60.93473889,,,,,,,,,,,,,,,,,,,,,,,,,,,,,,,,,9,2.2141,1,0,28,28,29,1,3,×,3,3 × 3,neutral,tie,1,2,9,,,,,,,,
,,,,,,,,,,,,,,,713,2022-02-12_17h41.36.202,multiplicationStroop,2021.2.3,Win32,60.93473889,,,,,,,,,,,,,,,,,,,,,,,,,,,,,,,,,36,1.6644,1,0,29,29,32,1,6,×,6,6 × 6,neutral,tie,1,2,36,,,,,,,,
,,,,,,,,,,,,,,,713,2022-02-12_17h41.36.202,multiplicationStroop,2021.2.3,Win32,60.93473889,,,,,,,,,,,,,,,,,,,,,,,,,,,,,,,,,48,2.0975,1,0,30,30,4,1,6,×,8,6 × 8,congruent,smallerFirst,1,2,48,,,,,,,,
,,,,,,,,,,,,,,,713,2022-02-12_17h41.36.202,multiplicationStroop,2021.2.3,Win32,60.93473889,,,,,,,,,,,,,,,,,,,,,,,,,,,,,,,,,24,1.8317,1,0,31,31,11,1,4,×,6,4 × 6,congruent,smallerFirst,1,2,24,,,,,,,,
,,,,,,,,,,,,,,,713,2022-02-12_17h41.36.202,multiplicationStroop,2021.2.3,Win32,60.93473889,,,,,,,,,,,,,,,,,,,,,,,,,,,,,,,,,63,5.6153,1,0,32,32,7,1,7,×,9,7 × 9,congruent,smallerFirst,1,2,63,,,,,,,,
,,,,,,,,,,,,,,,713,2022-02-12_17h41.36.202,multiplicationStroop,2021.2.3,Win32,60.93473889,,,,,,,,,,,,,,,,,,,,,,,,,,,,,,,,,20,1.7673,1,0,33,33,21,1,5,×,4,5 × 4,congruent,largerFirst,2,1,20,,,,,,,,
,,,,,,,,,,,,,,,713,2022-02-12_17h41.36.202,multiplicationStroop,2021.2.3,Win32,60.93473889,,,,,,,,,,,,,,,,,,,,,,,,,,,,,,,,,16,2.4155,1,0,34,34,19,1,8,×,2,8 × 2,congruent,largerFirst,2,1,16,,,,,,,,
,,,,,,,,,,,,,,,713,2022-02-12_17h41.36.202,multiplicationStroop,2021.2.3,Win32,60.93473889,,,,,,,,,,,,,,,,,,,,,,,,,,,,,,,,,18,1.8132,1,0,35,35,8,1,2,×,9,2 × 9,congruent,smallerFirst,1,2,18,,,,,,,,
,,,,,,,,,,,,,,,713,2022-02-12_17h41.36.202,multiplicationStroop,2021.2.3,Win32,60.93473889,,,,,,,,,,,,,,,,,,,,,,,,,,,,,,,,,,,,,,,,,,,,,,,,,,0,1,1,3,1,stimulusFile/mult_blk4_congruent.xlsx,,
,,,,,,,,,,,,,,,713,2022-02-12_17h41.36.202,multiplicationStroop,2021.2.3,Win32,60.93473889,,,,,,,,,,,,,,,,,,,,,,,,,,,,,,,space,1.0531,30,1.7203,1,0,0,0,5,1,5,×,6,5 × 6,neutral,smallerFirst,1.5,1.5,30,,,,,,,,
,,,,,,,,,,,,,,,713,2022-02-12_17h41.36.202,multiplicationStroop,2021.2.3,Win32,60.93473889,,,,,,,,,,,,,,,,,,,,,,,,,,,,,,,,,81,1.6317,1,0,1,1,35,1,9,×,9,9 × 9,neutral,tie,1.5,1.5,81,,,,,,,,
,,,,,,,,,,,,,,,713,2022-02-12_17h41.36.202,multiplicationStroop,2021.2.3,Win32,60.93473889,,,,,,,,,,,,,,,,,,,,,,,,,,,,,,,,,9,2.431,1,0,2,2,29,1,3,×,3,3 × 3,neutral,tie,1.5,1.5,9,,,,,,,,
,,,,,,,,,,,,,,,713,2022-02-12_17h41.36.202,multiplicationStroop,2021.2.3,Win32,60.93473889,,,,,,,,,,,,,,,,,,,,,,,,,,,,,,,,,10,1.6306,1,0,3,3,18,1,5,×,2,5 × 2,neutral,largerFirst,1.5,1.5,10,,,,,,,,
,,,,,,,,,,,,,,,713,2022-02-12_17h41.36.202,multiplicationStroop,2021.2.3,Win32,60.93473889,,,,,,,,,,,,,,,,,,,,,,,,,,,,,,,,,14,2.4314,1,0,4,4,2,1,2,×,7,2 × 7,neutral,smallerFirst,1.5,1.5,14,,,,,,,,
,,,,,,,,,,,,,,,713,2022-02-12_17h41.36.202,multiplicationStroop,2021.2.3,Win32,60.93473889,,,,,,,,,,,,,,,,,,,,,,,,,,,,,,,,,42,4.4584,1,0,5,5,20,1,7,×,6,7 × 6,neutral,largerFirst,1.5,1.5,42,,,,,,,,
,,,,,,,,,,,,,,,713,2022-02-12_17h41.36.202,multiplicationStroop,2021.2.3,Win32,60.93473889,,,,,,,,,,,,,,,,,,,,,,,,,,,,,,,,,12,1.4717,1,0,6,6,11,1,2,×,6,2 × 6,neutral,smallerFirst,1.5,1.5,12,,,,,,,,
,,,,,,,,,,,,,,,713,2022-02-12_17h41.36.202,multiplicationStroop,2021.2.3,Win32,60.93473889,,,,,,,,,,,,,,,,,,,,,,,,,,,,,,,,,18,1.6637,1,0,7,7,4,1,2,×,9,2 × 9,neutral,smallerFirst,1.5,1.5,18,,,,,,,,
,,,,,,,,,,,,,,,713,2022-02-12_17h41.36.202,multiplicationStroop,2021.2.3,Win32,60.93473889,,,,,,,,,,,,,,,,,,,,,,,,,,,,,,,,,40,1.8647,1,0,8,8,10,1,5,×,8,5 × 8,neutral,smallerFirst,1.5,1.5,40,,,,,,,,
,,,,,,,,,,,,,,,713,2022-02-12_17h41.36.202,multiplicationStroop,2021.2.3,Win32,60.93473889,,,,,,,,,,,,,,,,,,,,,,,,,,,,,,,,,18,1.682,1,0,9,9,14,1,6,×,3,6 × 3,neutral,largerFirst,1.5,1.5,18,,,,,,,,
,,,,,,,,,,,,,,,713,2022-02-12_17h41.36.202,multiplicationStroop,2021.2.3,Win32,60.93473889,,,,,,,,,,,,,,,,,,,,,,,,,,,,,,,,,36,2.0913,1,0,10,10,13,1,4,×,9,4 × 9,neutral,smallerFirst,1.5,1.5,36,,,,,,,,
,,,,,,,,,,,,,,,713,2022-02-12_17h41.36.202,multiplicationStroop,2021.2.3,Win32,60.93473889,,,,,,,,,,,,,,,,,,,,,,,,,,,,,,,,,20,2.3475,1,0,11,11,6,1,4,×,5,4 × 5,neutral,smallerFirst,1.5,1.5,20,,,,,,,,
,,,,,,,,,,,,,,,713,2022-02-12_17h41.36.202,multiplicationStroop,2021.2.3,Win32,60.93473889,,,,,,,,,,,,,,,,,,,,,,,,,,,,,,,,,25,1.8562,1,0,12,12,31,1,5,×,5,5 × 5,neutral,tie,1.5,1.5,25,,,,,,,,
,,,,,,,,,,,,,,,713,2022-02-12_17h41.36.202,multiplicationStroop,2021.2.3,Win32,60.93473889,,,,,,,,,,,,,,,,,,,,,,,,,,,,,,,,,6,1.7477,1,0,13,13,12,1,2,×,3,2 × 3,neutral,smallerFirst,1.5,1.5,6,,,,,,,,
,,,,,,,,,,,,,,,713,2022-02-12_17h41.36.202,multiplicationStroop,2021.2.3,Win32,60.93473889,,,,,,,,,,,,,,,,,,,,,,,,,,,,,,,,,15,1.864,1,0,14,14,19,1,5,×,3,5 × 3,neutral,largerFirst,1.5,1.5,15,,,,,,,,
,,,,,,,,,,,,,,,713,2022-02-12_17h41.36.202,multiplicationStroop,2021.2.3,Win32,60.93473889,,,,,,,,,,,,,,,,,,,,,,,,,,,,,,,,,40,1.7159,0,0,15,15,24,1,9,×,5,9 × 5,neutral,largerFirst,1.5,1.5,45,,,,,,,,
,,,,,,,,,,,,,,,713,2022-02-12_17h41.36.202,multiplicationStroop,2021.2.3,Win32,60.93473889,,,,,,,,,,,,,,,,,,,,,,,,,,,,,,,,,4,1.4805,1,0,16,16,28,1,2,×,2,2 × 2,neutral,tie,1.5,1.5,4,,,,,,,,
,,,,,,,,,,,,,,,713,2022-02-12_17h41.36.202,multiplicationStroop,2021.2.3,Win32,60.93473889,,,,,,,,,,,,,,,,,,,,,,,,,,,,,,,,,16,2.4817,1,0,17,17,27,1,8,×,2,8 × 2,neutral,largerFirst,1.5,1.5,16,,,,,,,,
,,,,,,,,,,,,,,,713,2022-02-12_17h41.36.202,multiplicationStroop,2021.2.3,Win32,60.93473889,,,,,,,,,,,,,,,,,,,,,,,,,,,,,,,,,64,2.9976,1,0,18,18,34,1,8,×,8,8 × 8,neutral,tie,1.5,1.5,64,,,,,,,,
,,,,,,,,,,,,,,,713,2022-02-12_17h41.36.202,multiplicationStroop,2021.2.3,Win32,60.93473889,,,,,,,,,,,,,,,,,,,,,,,,,,,,,,,,,28,1.8314,1,0,19,19,3,1,4,×,7,4 × 7,neutral,smallerFirst,1.5,1.5,28,,,,,,,,
,,,,,,,,,,,,,,,713,2022-02-12_17h41.36.202,multiplicationStroop,2021.2.3,Win32,60.93473889,,,,,,,,,,,,,,,,,,,,,,,,,,,,,,,,,12,1.781,1,0,20,20,7,1,3,×,4,3 × 4,neutral,smallerFirst,1.5,1.5,12,,,,,,,,
,,,,,,,,,,,,,,,713,2022-02-12_17h41.36.202,multiplicationStroop,2021.2.3,Win32,60.93473889,,,,,,,,,,,,,,,,,,,,,,,,,,,,,,,,,24,2.0308,1,0,21,21,8,1,3,×,8,3 × 8,neutral,smallerFirst,1.5,1.5,24,,,,,,,,
,,,,,,,,,,,,,,,713,2022-02-12_17h41.36.202,multiplicationStroop,2021.2.3,Win32,60.93473889,,,,,,,,,,,,,,,,,,,,,,,,,,,,,,,,,42,2.4655,0,0,22,22,1,1,6,×,8,6 × 8,neutral,smallerFirst,1.5,1.5,48,,,,,,,,
,,,,,,,,,,,,,,,713,2022-02-12_17h41.36.202,multiplicationStroop,2021.2.3,Win32,60.93473889,,,,,,,,,,,,,,,,,,,,,,,,,,,,,,,,,27,3.2809,1,0,23,23,0,1,3,×,9,3 × 9,neutral,smallerFirst,1.5,1.5,27,,,,,,,,
,,,,,,,,,,,,,,,713,2022-02-12_17h41.36.202,multiplicationStroop,2021.2.3,Win32,60.93473889,,,,,,,,,,,,,,,,,,,,,,,,,,,,,,,,,35,2.6171,1,0,24,24,15,1,7,×,5,7 × 5,neutral,largerFirst,1.5,1.5,35,,,,,,,,
,,,,,,,,,,,,,,,713,2022-02-12_17h41.36.202,multiplicationStroop,2021.2.3,Win32,60.93473889,,,,,,,,,,,,,,,,,,,,,,,,,,,,,,,,,54,1.8653,1,0,25,25,21,1,9,×,6,9 × 6,neutral,largerFirst,1.5,1.5,54,,,,,,,,
,,,,,,,,,,,,,,,713,2022-02-12_17h41.36.202,multiplicationStroop,2021.2.3,Win32,60.93473889,,,,,,,,,,,,,,,,,,,,,,,,,,,,,,,,,49,2.5327,1,0,26,26,33,1,7,×,7,7 × 7,neutral,tie,1.5,1.5,49,,,,,,,,
,,,,,,,,,,,,,,,713,2022-02-12_17h41.36.202,multiplicationStroop,2021.2.3,Win32,60.93473889,,,,,,,,,,,,,,,,,,,,,,,,,,,,,,,,,5,1.89,0,0,27,27,26,1,9,×,7,9 × 7,neutral,largerFirst,1.5,1.5,63,,,,,,,,
,,,,,,,,,,,,,,,713,2022-02-12_17h41.36.202,multiplicationStroop,2021.2.3,Win32,60.93473889,,,,,,,,,,,,,,,,,,,,,,,,,,,,,,,,,32,3.4665,1,0,28,28,9,1,4,×,8,4 × 8,neutral,smallerFirst,1.5,1.5,32,,,,,,,,
,,,,,,,,,,,,,,,713,2022-02-12_17h41.36.202,multiplicationStroop,2021.2.3,Win32,60.93473889,,,,,,,,,,,,,,,,,,,,,,,,,,,,,,,,,36,2.3316,1,0,29,29,32,1,6,×,6,6 × 6,neutral,tie,1.5,1.5,36,,,,,,,,
,,,,,,,,,,,,,,,713,2022-02-12_17h41.36.202,multiplicationStroop,2021.2.3,Win32,60.93473889,,,,,,,,,,,,,,,,,,,,,,,,,,,,,,,,,21,1.7483,1,0,30,30,22,1,7,×,3,7 × 3,neutral,largerFirst,1.5,1.5,21,,,,,,,,
,,,,,,,,,,,,,,,713,2022-02-12_17h41.36.202,multiplicationStroop,2021.2.3,Win32,60.93473889,,,,,,,,,,,,,,,,,,,,,,,,,,,,,,,,,56,1.999,1,0,31,31,23,1,8,×,7,8 × 7,neutral,largerFirst,1.5,1.5,56,,,,,,,,
,,,,,,,,,,,,,,,713,2022-02-12_17h41.36.202,multiplicationStroop,2021.2.3,Win32,60.93473889,,,,,,,,,,,,,,,,,,,,,,,,,,,,,,,,,72,3.2406,1,0,32,32,25,1,9,×,8,9 × 8,neutral,largerFirst,1.5,1.5,72,,,,,,,,
,,,,,,,,,,,,,,,713,2022-02-12_17h41.36.202,multiplicationStroop,2021.2.3,Win32,60.93473889,,,,,,,,,,,,,,,,,,,,,,,,,,,,,,,,,16,3.221,1,0,33,33,30,1,4,×,4,4 × 4,neutral,tie,1.5,1.5,16,,,,,,,,
,,,,,,,,,,,,,,,713,2022-02-12_17h41.36.202,multiplicationStroop,2021.2.3,Win32,60.93473889,,,,,,,,,,,,,,,,,,,,,,,,,,,,,,,,,8,2.031,1,0,34,34,17,1,4,×,2,4 × 2,neutral,largerFirst,1.5,1.5,8,,,,,,,,
,,,,,,,,,,,,,,,713,2022-02-12_17h41.36.202,multiplicationStroop,2021.2.3,Win32,60.93473889,,,,,,,,,,,,,,,,,,,,,,,,,,,,,,,,,24,1.9814,1,0,35,35,16,1,6,×,4,6 × 4,neutral,largerFirst,1.5,1.5,24,,,,,,,,
,,,,,,,,,,,,,,,713,2022-02-12_17h41.36.202,multiplicationStroop,2021.2.3,Win32,60.93473889,,,,,,,,,,,,,,,,,,,,,,,,,,,,,,,,,,,,,,,,,,,,,,,,,,0,2,2,0,1,stimulusFile/mult_blk1.xlsx,,
,,,,,,,,,,,,,,,713,2022-02-12_17h41.36.202,multiplicationStroop,2021.2.3,Win32,60.93473889,,,,,,,,,,,,,,,,,,,,,,,,,,,,,,,space,1.0005,36,1.9845,1,0,0,0,32,1,6,×,6,6 × 6,neutral,tie,1.5,1.5,36,,,,,,,,
,,,,,,,,,,,,,,,713,2022-02-12_17h41.36.202,multiplicationStroop,2021.2.3,Win32,60.93473889,,,,,,,,,,,,,,,,,,,,,,,,,,,,,,,,,45,3.3718,1,0,1,1,10,1,5,×,9,5 × 9,neutral,smallerFirst,1.5,1.5,45,,,,,,,,
,,,,,,,,,,,,,,,713,2022-02-12_17h41.36.202,multiplicationStroop,2021.2.3,Win32,60.93473889,,,,,,,,,,,,,,,,,,,,,,,,,,,,,,,,,10,2.6001,1,0,2,2,4,1,2,×,5,2 × 5,neutral,smallerFirst,1.5,1.5,10,,,,,,,,
,,,,,,,,,,,,,,,713,2022-02-12_17h41.36.202,multiplicationStroop,2021.2.3,Win32,60.93473889,,,,,,,,,,,,,,,,,,,,,,,,,,,,,,,,,16,5.8984,1,0,3,3,30,1,4,×,4,4 × 4,neutral,tie,1.5,1.5,16,,,,,,,,
,,,,,,,,,,,,,,,713,2022-02-12_17h41.36.202,multiplicationStroop,2021.2.3,Win32,60.93473889,,,,,,,,,,,,,,,,,,,,,,,,,,,,,,,,,4,1.4311,1,0,4,4,28,1,2,×,2,2 × 2,neutral,tie,1.5,1.5,4,,,,,,,,
,,,,,,,,,,,,,,,713,2022-02-12_17h41.36.202,multiplicationStroop,2021.2.3,Win32,60.93473889,,,,,,,,,,,,,,,,,,,,,,,,,,,,,,,,,64,1.7507,1,0,5,5,34,1,8,×,8,8 × 8,neutral,tie,1.5,1.5,64,,,,,,,,
,,,,,,,,,,,,,,,713,2022-02-12_17h41.36.202,multiplicationStroop,2021.2.3,Win32,60.93473889,,,,,,,,,,,,,,,,,,,,,,,,,,,,,,,,,81,1.7632,1,0,6,6,35,1,9,×,9,9 × 9,neutral,tie,1.5,1.5,81,,,,,,,,
,,,,,,,,,,,,,,,713,2022-02-12_17h41.36.202,multiplicationStroop,2021.2.3,Win32,60.93473889,,,,,,,,,,,,,,,,,,,,,,,,,,,,,,,,,42,1.7007,0,0,7,7,15,1,8,×,6,8 × 6,neutral,largerFirst,1.5,1.5,48,,,,,,,,
,,,,,,,,,,,,,,,713,2022-02-12_17h41.36.202,multiplicationStroop,2021.2.3,Win32,60.93473889,,,,,,,,,,,,,,,,,,,,,,,,,,,,,,,,,8,1.4653,1,0,8,8,3,1,2,×,4,2 × 4,neutral,smallerFirst,1.5,1.5,8,,,,,,,,
,,,,,,,,,,,,,,,713,2022-02-12_17h41.36.202,multiplicationStroop,2021.2.3,Win32,60.93473889,,,,,,,,,,,,,,,,,,,,,,,,,,,,,,,,,72,3.4156,1,0,9,9,11,1,8,×,9,8 × 9,neutral,smallerFirst,1.5,1.5,72,,,,,,,,
,,,,,,,,,,,,,,,713,2022-02-12_17h41.36.202,multiplicationStroop,2021.2.3,Win32,60.93473889,,,,,,,,,,,,,,,,,,,,,,,,,,,,,,,,,20,1.7553,1,0,10,10,20,1,5,×,4,5 × 4,neutral,largerFirst,1.5,1.5,20,,,,,,,,
,,,,,,,,,,,,,,,713,2022-02-12_17h41.36.202,multiplicationStroop,2021.2.3,Win32,60.93473889,,,,,,,,,,,,,,,,,,,,,,,,,,,,,,,,,18,1.8977,1,0,11,11,0,1,3,×,6,3 × 6,neutral,smallerFirst,1.5,1.5,18,,,,,,,,
,,,,,,,,,,,,,,,713,2022-02-12_17h41.36.202,multiplicationStroop,2021.2.3,Win32,60.93473889,,,,,,,,,,,,,,,,,,,,,,,,,,,,,,,,,24,1.7332,1,0,12,12,2,1,4,×,6,4 × 6,neutral,smallerFirst,1.5,1.5,24,,,,,,,,
,,,,,,,,,,,,,,,713,2022-02-12_17h41.36.202,multiplicationStroop,2021.2.3,Win32,60.93473889,,,,,,,,,,,,,,,,,,,,,,,,,,,,,,,,,16,1.7807,1,0,13,13,13,1,2,×,8,2 × 8,neutral,smallerFirst,1.5,1.5,16,,,,,,,,
,,,,,,,,,,,,,,,713,2022-02-12_17h41.36.202,multiplicationStroop,2021.2.3,Win32,60.93473889,,,,,,,,,,,,,,,,,,,,,,,,,,,,,,,,,42,7.3336,1,0,14,14,6,1,6,×,7,6 × 7,neutral,smallerFirst,1.5,1.5,42,,,,,,,,
,,,,,,,,,,,,,,,713,2022-02-12_17h41.36.202,multiplicationStroop,2021.2.3,Win32,60.93473889,,,,,,,,,,,,,,,,,,,,,,,,,,,,,,,,,54,3.8553,1,0,15,15,7,1,6,×,9,6 × 9,neutral,smallerFirst,1.5,1.5,54,,,,,,,,
,,,,,,,,,,,,,,,713,2022-02-12_17h41.36.202,multiplicationStroop,2021.2.3,Win32,60.93473889,,,,,,,,,,,,,,,,,,,,,,,,,,,,,,,,,6,1.4999,1,0,16,16,26,1,3,×,2,3 × 2,neutral,largerFirst,1.5,1.5,6,,,,,,,,
,,,,,,,,,,,,,,,713,2022-02-12_17h41.36.202,multiplicationStroop,2021.2.3,Win32,60.93473889,,,,,,,,,,,,,,,,,,,,,,,,,,,,,,,,,21,1.7492,1,0,17,17,8,1,3,×,7,3 × 7,neutral,smallerFirst,1.5,1.5,21,,,,,,,,
,,,,,,,,,,,,,,,713,2022-02-12_17h41.36.202,multiplicationStroop,2021.2.3,Win32,60.93473889,,,,,,,,,,,,,,,,,,,,,,,,,,,,,,,,,28,1.9981,1,0,18,18,17,1,7,×,4,7 × 4,neutral,largerFirst,1.5,1.5,28,,,,,,,,
,,,,,,,,,,,,,,,713,2022-02-12_17h41.36.202,multiplicationStroop,2021.2.3,Win32,60.93473889,,,,,,,,,,,,,,,,,,,,,,,,,,,,,,,,,25,1.8491,1,0,19,19,31,1,5,×,5,5 × 5,neutral,tie,1.5,1.5,25,,,,,,,,
,,,,,,,,,,,,,,,713,2022-02-12_17h41.36.202,multiplicationStroop,2021.2.3,Win32,60.93473889,,,,,,,,,,,,,,,,,,,,,,,,,,,,,,,,,12,2.3667,1,0,20,20,25,1,6,×,2,6 × 2,neutral,largerFirst,1.5,1.5,12,,,,,,,,
,,,,,,,,,,,,,,,713,2022-02-12_17h41.36.202,multiplicationStroop,2021.2.3,Win32,60.93473889,,,,,,,,,,,,,,,,,,,,,,,,,,,,,,,,,63,4.2804,1,0,21,21,12,1,7,×,9,7 × 9,neutral,smallerFirst,1.5,1.5,63,,,,,,,,
,,,,,,,,,,,,,,,713,2022-02-12_17h41.36.202,multiplicationStroop,2021.2.3,Win32,60.93473889,,,,,,,,,,,,,,,,,,,,,,,,,,,,,,,,,40,1.8495,1,0,22,22,24,1,8,×,5,8 × 5,neutral,largerFirst,1.5,1.5,40,,,,,,,,
,,,,,,,,,,,,,,,713,2022-02-12_17h41.36.202,multiplicationStroop,2021.2.3,Win32,60.93473889,,,,,,,,,,,,,,,,,,,,,,,,,,,,,,,,,30,2.1822,1,0,23,23,19,1,6,×,5,6 × 5,neutral,largerFirst,1.5,1.5,30,,,,,,,,
,,,,,,,,,,,,,,,713,2022-02-12_17h41.36.202,multiplicationStroop,2021.2.3,Win32,60.93473889,,,,,,,,,,,,,,,,,,,,,,,,,,,,,,,,,198,1.8832,0,0,24,24,18,1,9,×,2,9 × 2,neutral,largerFirst,1.5,1.5,18,,,,,,,,
,,,,,,,,,,,,,,,713,2022-02-12_17h41.36.202,multiplicationStroop,2021.2.3,Win32,60.93473889,,,,,,,,,,,,,,,,,,,,,,,,,,,,,,,,,2,3.8965,0,0,25,25,22,1,8,×,3,8 × 3,neutral,largerFirst,1.5,1.5,24,,,,,,,,
,,,,,,,,,,,,,,,713,2022-02-12_17h41.36.202,multiplicationStroop,2021.2.3,Win32,60.93473889,,,,,,,,,,,,,,,,,,,,,,,,,,,,,,,,,9,1.8155,1,0,26,26,29,1,3,×,3,3 × 3,neutral,tie,1.5,1.5,9,,,,,,,,
,,,,,,,,,,,,,,,713,2022-02-12_17h41.36.202,multiplicationStroop,2021.2.3,Win32,60.93473889,,,,,,,,,,,,,,,,,,,,,,,,,,,,,,,,,35,1.6515,1,0,27,27,1,1,5,×,7,5 × 7,neutral,smallerFirst,1.5,1.5,35,,,,,,,,
,,,,,,,,,,,,,,,713,2022-02-12_17h41.36.202,multiplicationStroop,2021.2.3,Win32,60.93473889,,,,,,,,,,,,,,,,,,,,,,,,,,,,,,,,,56,2.2956,1,0,28,28,9,1,7,×,8,7 × 8,neutral,smallerFirst,1.5,1.5,56,,,,,,,,
,,,,,,,,,,,,,,,713,2022-02-12_17h41.36.202,multiplicationStroop,2021.2.3,Win32,60.93473889,,,,,,,,,,,,,,,,,,,,,,,,,,,,,,,,,32,1.7642,1,0,29,29,23,1,8,×,4,8 × 4,neutral,largerFirst,1.5,1.5,32,,,,,,,,
,,,,,,,,,,,,,,,713,2022-02-12_17h41.36.202,multiplicationStroop,2021.2.3,Win32,60.93473889,,,,,,,,,,,,,,,,,,,,,,,,,,,,,,,,,15,1.5641,1,0,30,30,5,1,3,×,5,3 × 5,neutral,smallerFirst,1.5,1.5,15,,,,,,,,
,,,,,,,,,,,,,,,713,2022-02-12_17h41.36.202,multiplicationStroop,2021.2.3,Win32,60.93473889,,,,,,,,,,,,,,,,,,,,,,,,,,,,,,,,,27,2.9146,1,0,31,31,14,1,9,×,3,9 × 3,neutral,largerFirst,1.5,1.5,27,,,,,,,,
,,,,,,,,,,,,,,,713,2022-02-12_17h41.36.202,multiplicationStroop,2021.2.3,Win32,60.93473889,,,,,,,,,,,,,,,,,,,,,,,,,,,,,,,,,12,1.3669,1,0,32,32,21,1,4,×,3,4 × 3,neutral,largerFirst,1.5,1.5,12,,,,,,,,
,,,,,,,,,,,,,,,713,2022-02-12_17h41.36.202,multiplicationStroop,2021.2.3,Win32,60.93473889,,,,,,,,,,,,,,,,,,,,,,,,,,,,,,,,,36,1.7984,1,0,33,33,27,1,9,×,4,9 × 4,neutral,largerFirst,1.5,1.5,36,,,,,,,,
,,,,,,,,,,,,,,,713,2022-02-12_17h41.36.202,multiplicationStroop,2021.2.3,Win32,60.93473889,,,,,,,,,,,,,,,,,,,,,,,,,,,,,,,,,14,2.7492,1,0,34,34,16,1,7,×,2,7 × 2,neutral,largerFirst,1.5,1.5,14,,,,,,,,
,,,,,,,,,,,,,,,713,2022-02-12_17h41.36.202,multiplicationStroop,2021.2.3,Win32,60.93473889,,,,,,,,,,,,,,,,,,,,,,,,,,,,,,,,,49,2.3047,1,0,35,35,33,1,7,×,7,7 × 7,neutral,tie,1.5,1.5,49,,,,,,,,
,,,,,,,,,,,,,,,713,2022-02-12_17h41.36.202,multiplicationStroop,2021.2.3,Win32,60.93473889,,,,,,,,,,,,,,,,,,,,,,,,,,,,,,,,,,,,,,,,,,,,,,,,,,0,3,3,1,1,stimulusFile/mult_blk2.xlsx,,
,,,,,,,,,,,,,,,713,2022-02-12_17h41.36.202,multiplicationStroop,2021.2.3,Win32,60.93473889,,,,,,,,,,,,,,,,,,,,,,,,,,,,,,,space,1.0693,16,2.1385,1,0,0,0,30,1,4,×,4,4 × 4,neutral,tie,2,1,16,,,,,,,,
,,,,,,,,,,,,,,,713,2022-02-12_17h41.36.202,multiplicationStroop,2021.2.3,Win32,60.93473889,,,,,,,,,,,,,,,,,,,,,,,,,,,,,,,,,42,5.2806,1,0,1,1,3,1,6,×,7,6 × 7,congruent,smallerFirst,1,2,42,,,,,,,,
,,,,,,,,,,,,,,,713,2022-02-12_17h41.36.202,multiplicationStroop,2021.2.3,Win32,60.93473889,,,,,,,,,,,,,,,,,,,,,,,,,,,,,,,,,40,2.1418,1,0,2,2,6,1,5,×,8,5 × 8,congruent,smallerFirst,1,2,40,,,,,,,,
,,,,,,,,,,,,,,,713,2022-02-12_17h41.36.202,multiplicationStroop,2021.2.3,Win32,60.93473889,,,,,,,,,,,,,,,,,,,,,,,,,,,,,,,,,30,2.1787,1,0,3,3,15,1,6,×,5,6 × 5,congruent,largerFirst,2,1,30,,,,,,,,
,,,,,,,,,,,,,,,713,2022-02-12_17h41.36.202,multiplicationStroop,2021.2.3,Win32,60.93473889,,,,,,,,,,,,,,,,,,,,,,,,,,,,,,,,,24,2.85,1,0,4,4,10,1,3,×,8,3 × 8,congruent,smallerFirst,1,2,24,,,,,,,,
,,,,,,,,,,,,,,,713,2022-02-12_17h41.36.202,multiplicationStroop,2021.2.3,Win32,60.93473889,,,,,,,,,,,,,,,,,,,,,,,,,,,,,,,,,56,2.9206,1,0,5,5,8,1,7,×,8,7 × 8,congruent,smallerFirst,1,2,56,,,,,,,,
,,,,,,,,,,,,,,,713,2022-02-12_17h41.36.202,multiplicationStroop,2021.2.3,Win32,60.93473889,,,,,,,,,,,,,,,,,,,,,,,,,,,,,,,,,1,1.7642,0,0,6,6,24,1,5,×,2,5 × 2,congruent,largerFirst,2,1,10,,,,,,,,
,,,,,,,,,,,,,,,713,2022-02-12_17h41.36.202,multiplicationStroop,2021.2.3,Win32,60.93473889,,,,,,,,,,,,,,,,,,,,,,,,,,,,,,,,,72,5.0808,1,0,7,7,17,1,9,×,8,9 × 8,congruent,largerFirst,2,1,72,,,,,,,,
,,,,,,,,,,,,,,,713,2022-02-12_17h41.36.202,multiplicationStroop,2021.2.3,Win32,60.93473889,,,,,,,,,,,,,,,,,,,,,,,,,,,,,,,,,36,1.775,1,0,8,8,0,1,4,×,9,4 × 9,congruent,smallerFirst,1,2,36,,,,,,,,
,,,,,,,,,,,,,,,713,2022-02-12_17h41.36.202,multiplicationStroop,2021.2.3,Win32,60.93473889,,,,,,,,,,,,,,,,,,,,,,,,,,,,,,,,,81,1.7997,1,0,9,9,35,1,9,×,9,9 × 9,neutral,tie,2,1,81,,,,,,,,
,,,,,,,,,,,,,,,713,2022-02-12_17h41.36.202,multiplicationStroop,2021.2.3,Win32,60.93473889,,,,,,,,,,,,,,,,,,,,,,,,,,,,,,,,,14,2.5647,1,0,10,10,14,1,7,×,2,7 × 2,congruent,largerFirst,2,1,14,,,,,,,,
,,,,,,,,,,,,,,,713,2022-02-12_17h41.36.202,multiplicationStroop,2021.2.3,Win32,60.93473889,,,,,,,,,,,,,,,,,,,,,,,,,,,,,,,,,21,1.4078,1,0,11,11,16,1,7,×,3,7 × 3,congruent,largerFirst,2,1,21,,,,,,,,
,,,,,,,,,,,,,,,713,2022-02-12_17h41.36.202,multiplicationStroop,2021.2.3,Win32,60.93473889,,,,,,,,,,,,,,,,,,,,,,,,,,,,,,,,,6,1.9158,1,0,12,12,13,1,2,×,3,2 × 3,congruent,smallerFirst,1,2,6,,,,,,,,
,,,,,,,,,,,,,,,713,2022-02-12_17h41.36.202,multiplicationStroop,2021.2.3,Win32,60.93473889,,,,,,,,,,,,,,,,,,,,,,,,,,,,,,,,,35,1.6814,1,0,13,13,1,1,5,×,7,5 × 7,congruent,smallerFirst,1,2,35,,,,,,,,
,,,,,,,,,,,,,,,713,2022-02-12_17h41.36.202,multiplicationStroop,2021.2.3,Win32,60.93473889,,,,,,,,,,,,,,,,,,,,,,,,,,,,,,,,,12,1.366,1,0,14,14,2,1,3,×,4,3 × 4,congruent,smallerFirst,1,2,12,,,,,,,,
,,,,,,,,,,,,,,,713,2022-02-12_17h41.36.202,multiplicationStroop,2021.2.3,Win32,60.93473889,,,,,,,,,,,,,,,,,,,,,,,,,,,,,,,,,32,1.4486,1,0,15,15,20,1,8,×,4,8 × 4,congruent,largerFirst,2,1,32,,,,,,,,
,,,,,,,,,,,,,,,713,2022-02-12_17h41.36.202,multiplicationStroop,2021.2.3,Win32,60.93473889,,,,,,,,,,,,,,,,,,,,,,,,,,,,,,,,,54,2.066,1,0,16,16,12,1,6,×,9,6 × 9,congruent,smallerFirst,1,2,54,,,,,,,,
,,,,,,,,,,,,,,,713,2022-02-12_17h41.36.202,multiplicationStroop,2021.2.3,Win32,60.93473889,,,,,,,,,,,,,,,,,,,,,,,,,,,,,,,,,4,1.9822,1,0,17,17,28,1,2,×,2,2 × 2,neutral,tie,2,1,4,,,,,,,,
,,,,,,,,,,,,,,,713,2022-02-12_17h41.36.202,multiplicationStroop,2021.2.3,Win32,60.93473889,,,,,,,,,,,,,,,,,,,,,,,,,,,,,,,,,24,2.5154,1,0,18,18,25,1,6,×,4,6 × 4,congruent,largerFirst,2,1,24,,,,,,,,
,,,,,,,,,,,,,,,713,2022-02-12_17h41.36.202,multiplicationStroop,2021.2.3,Win32,60.93473889,,,,,,,,,,,,,,,,,,,,,,,,,,,,,,,,,28,3.9707,1,0,19,19,27,1,7,×,4,7 × 4,congruent,largerFirst,2,1,28,,,,,,,,
,,,,,,,,,,,,,,,713,2022-02-12_17h41.36.202,multiplicationStroop,2021.2.3,Win32,60.93473889,,,,,,,,,,,,,,,,,,,,,,,,,,,,,,,,,20,2.2396,1,0,20,20,7,1,4,×,5,4 × 5,congruent,smallerFirst,1,2,20,,,,,,,,
,,,,,,,,,,,,,,,713,2022-02-12_17h41.36.202,multiplicationStroop,2021.2.3,Win32,60.93473889,,,,,,,,,,,,,,,,,,,,,,,,,,,,,,,,,36,2.2806,1,0,21,21,32,1,6,×,6,6 × 6,neutral,tie,2,1,36,,,,,,,,
,,,,,,,,,,,,,,,713,2022-02-12_17h41.36.202,multiplicationStroop,2021.2.3,Win32,60.93473889,,,,,,,,,,,,,,,,,,,,,,,,,,,,,,,,,25,1.7455,1,0,22,22,31,1,5,×,5,5 × 5,neutral,tie,2,1,25,,,,,,,,
,,,,,,,,,,,,,,,713,2022-02-12_17h41.36.202,multiplicationStroop,2021.2.3,Win32,60.93473889,,,,,,,,,,,,,,,,,,,,,,,,,,,,,,,,,18,2.8325,1,0,23,23,22,1,9,×,2,9 × 2,congruent,largerFirst,2,1,18,,,,,,,,
,,,,,,,,,,,,,,,713,2022-02-12_17h41.36.202,multiplicationStroop,2021.2.3,Win32,60.93473889,,,,,,,,,,,,,,,,,,,,,,,,,,,,,,,,,12,2.0468,1,0,24,24,19,1,6,×,2,6 × 2,congruent,largerFirst,2,1,12,,,,,,,,
,,,,,,,,,,,,,,,713,2022-02-12_17h41.36.202,multiplicationStroop,2021.2.3,Win32,60.93473889,,,,,,,,,,,,,,,,,,,,,,,,,,,,,,,,,64,1.8144,1,0,25,25,34,1,8,×,8,8 × 8,neutral,tie,2,1,64,,,,,,,,
,,,,,,,,,,,,,,,713,2022-02-12_17h41.36.202,multiplicationStroop,2021.2.3,Win32,60.93473889,,,,,,,,,,,,,,,,,,,,,,,,,,,,,,,,,27,2.3482,1,0,26,26,26,1,9,×,3,9 × 3,congruent,largerFirst,2,1,27,,,,,,,,
,,,,,,,,,,,,,,,713,2022-02-12_17h41.36.202,multiplicationStroop,2021.2.3,Win32,60.93473889,,,,,,,,,,,,,,,,,,,,,,,,,,,,,,,,,15,1.4975,1,0,27,27,4,1,3,×,5,3 × 5,congruent,smallerFirst,1,2,15,,,,,,,,
,,,,,,,,,,,,,,,713,2022-02-12_17h41.36.202,multiplicationStroop,2021.2.3,Win32,60.93473889,,,,,,,,,,,,,,,,,,,,,,,,,,,,,,,,,42,1.6806,0,0,28,28,18,1,8,×,6,8 × 6,congruent,largerFirst,2,1,48,,,,,,,,
,,,,,,,,,,,,,,,713,2022-02-12_17h41.36.202,multiplicationStroop,2021.2.3,Win32,60.93473889,,,,,,,,,,,,,,,,,,,,,,,,,,,,,,,,,16,2.3316,1,0,29,29,5,1,2,×,8,2 × 8,congruent,smallerFirst,1,2,16,,,,,,,,
,,,,,,,,,,,,,,,713,2022-02-12_17h41.36.202,multiplicationStroop,2021.2.3,Win32,60.93473889,,,,,,,,,,,,,,,,,,,,,,,,,,,,,,,,,45,1.7307,1,0,30,30,23,1,9,×,5,9 × 5,congruent,largerFirst,2,1,45,,,,,,,,
,,,,,,,,,,,,,,,713,2022-02-12_17h41.36.202,multiplicationStroop,2021.2.3,Win32,60.93473889,,,,,,,,,,,,,,,,,,,,,,,,,,,,,,,,,9,1.4649,1,0,31,31,29,1,3,×,3,3 × 3,neutral,tie,2,1,9,,,,,,,,
,,,,,,,,,,,,,,,713,2022-02-12_17h41.36.202,multiplicationStroop,2021.2.3,Win32,60.93473889,,,,,,,,,,,,,,,,,,,,,,,,,,,,,,,,,49,2.4642,1,0,32,32,33,1,7,×,7,7 × 7,neutral,tie,2,1,49,,,,,,,,
,,,,,,,,,,,,,,,713,2022-02-12_17h41.36.202,multiplicationStroop,2021.2.3,Win32,60.93473889,,,,,,,,,,,,,,,,,,,,,,,,,,,,,,,,,63,10.8302,1,0,33,33,21,1,9,×,7,9 × 7,congruent,largerFirst,2,1,63,,,,,,,,
,,,,,,,,,,,,,,,713,2022-02-12_17h41.36.202,multiplicationStroop,2021.2.3,Win32,60.93473889,,,,,,,,,,,,,,,,,,,,,,,,,,,,,,,,,8,1.6887,1,0,34,34,9,1,2,×,4,2 × 4,congruent,smallerFirst,1,2,8,,,,,,,,
,,,,,,,,,,,,,,,713,2022-02-12_17h41.36.202,multiplicationStroop,2021.2.3,Win32,60.93473889,,,,,,,,,,,,,,,,,,,,,,,,,,,,,,,,,18,2.9485,1,0,35,35,11,1,3,×,6,3 × 6,congruent,smallerFirst,1,2,18,,,,,,,,
,,,,,,,,,,,,,,,713,2022-02-12_17h41.36.202,multiplicationStroop,2021.2.3,Win32,60.93473889,,,,,,,,,,,,,,,,,,,,,,,,,,,,,,,,,,,,,,,,,,,,,,,,,,0,4,4,2,1,stimulusFile/mult_blk3_congruent.xlsx,,
,,,,,,,,,,,,,,,713,2022-02-12_17h41.36.202,multiplicationStroop,2021.2.3,Win32,60.93473889,,,,,,,,,,,,,,,,,,,,,,,,,,,,,,,space,1.0605,56,2.565,1,0,0,0,14,1,8,×,7,8 × 7,incongruent,largerFirst,1,2,56,,,,,,,,
,,,,,,,,,,,,,,,713,2022-02-12_17h41.36.202,multiplicationStroop,2021.2.3,Win32,60.93473889,,,,,,,,,,,,,,,,,,,,,,,,,,,,,,,,,42,1.8007,1,0,1,1,17,1,7,×,6,7 × 6,incongruent,largerFirst,1,2,42,,,,,,,,
,,,,,,,,,,,,,,,713,2022-02-12_17h41.36.202,multiplicationStroop,2021.2.3,Win32,60.93473889,,,,,,,,,,,,,,,,,,,,,,,,,,,,,,,,,40,1.7982,1,0,2,2,13,1,5,×,8,5 × 8,incongruent,smallerFirst,2,1,40,,,,,,,,
,,,,,,,,,,,,,,,713,2022-02-12_17h41.36.202,multiplicationStroop,2021.2.3,Win32,60.93473889,,,,,,,,,,,,,,,,,,,,,,,,,,,,,,,,,20,1.7483,1,0,3,3,27,1,5,×,4,5 × 4,incongruent,largerFirst,1,2,20,,,,,,,,
,,,,,,,,,,,,,,,713,2022-02-12_17h41.36.202,multiplicationStroop,2021.2.3,Win32,60.93473889,,,,,,,,,,,,,,,,,,,,,,,,,,,,,,,,,24,5.6819,1,0,4,4,9,1,3,×,8,3 × 8,incongruent,smallerFirst,2,1,24,,,,,,,,
,,,,,,,,,,,,,,,713,2022-02-12_17h41.36.202,multiplicationStroop,2021.2.3,Win32,60.93473889,,,,,,,,,,,,,,,,,,,,,,,,,,,,,,,,,49,1.7989,1,0,5,5,33,1,7,×,7,7 × 7,incongruent,tie,1,2,49,,,,,,,,
,,,,,,,,,,,,,,,713,2022-02-12_17h41.36.202,multiplicationStroop,2021.2.3,Win32,60.93473889,,,,,,,,,,,,,,,,,,,,,,,,,,,,,,,,,36,1.6489,1,0,6,6,32,1,6,×,6,6 × 6,incongruent,tie,1,2,36,,,,,,,,
,,,,,,,,,,,,,,,713,2022-02-12_17h41.36.202,multiplicationStroop,2021.2.3,Win32,60.93473889,,,,,,,,,,,,,,,,,,,,,,,,,,,,,,,,,9,1.3476,1,0,7,7,29,1,3,×,3,3 × 3,incongruent,tie,1,2,9,,,,,,,,
,,,,,,,,,,,,,,,713,2022-02-12_17h41.36.202,multiplicationStroop,2021.2.3,Win32,60.93473889,,,,,,,,,,,,,,,,,,,,,,,,,,,,,,,,,12,2.9986,1,0,8,8,19,1,6,×,2,6 × 2,incongruent,largerFirst,1,2,12,,,,,,,,
,,,,,,,,,,,,,,,713,2022-02-12_17h41.36.202,multiplicationStroop,2021.2.3,Win32,60.93473889,,,,,,,,,,,,,,,,,,,,,,,,,,,,,,,,,12,1.1968,1,0,9,9,5,1,3,×,4,3 × 4,incongruent,smallerFirst,2,1,12,,,,,,,,
,,,,,,,,,,,,,,,713,2022-02-12_17h41.36.202,multiplicationStroop,2021.2.3,Win32,60.93473889,,,,,,,,,,,,,,,,,,,,,,,,,,,,,,,,,54,2.6646,1,0,10,10,6,1,6,×,9,6 × 9,incongruent,smallerFirst,2,1,54,,,,,,,,
,,,,,,,,,,,,,,,713,2022-02-12_17h41.36.202,multiplicationStroop,2021.2.3,Win32,60.93473889,,,,,,,,,,,,,,,,,,,,,,,,,,,,,,,,,4,1.4477,1,0,11,11,28,1,2,×,2,2 × 2,incongruent,tie,1,2,4,,,,,,,,
,,,,,,,,,,,,,,,713,2022-02-12_17h41.36.202,multiplicationStroop,2021.2.3,Win32,60.93473889,,,,,,,,,,,,,,,,,,,,,,,,,,,,,,,,,14,1.5832,1,0,12,12,4,1,2,×,7,2 × 7,incongruent,smallerFirst,2,1,14,,,,,,,,
,,,,,,,,,,,,,,,713,2022-02-12_17h41.36.202,multiplicationStroop,2021.2.3,Win32,60.93473889,,,,,,,,,,,,,,,,,,,,,,,,,,,,,,,,,25,1.6464,1,0,13,13,31,1,5,×,5,5 × 5,incongruent,tie,1,2,25,,,,,,,,
,,,,,,,,,,,,,,,713,2022-02-12_17h41.36.202,multiplicationStroop,2021.2.3,Win32,60.93473889,,,,,,,,,,,,,,,,,,,,,,,,,,,,,,,,,48,1.9476,1,0,14,14,1,1,6,×,8,6 × 8,incongruent,smallerFirst,2,1,48,,,,,,,,
,,,,,,,,,,,,,,,713,2022-02-12_17h41.36.202,multiplicationStroop,2021.2.3,Win32,60.93473889,,,,,,,,,,,,,,,,,,,,,,,,,,,,,,,,,30,1.9146,1,0,15,15,25,1,6,×,5,6 × 5,incongruent,largerFirst,1,2,30,,,,,,,,
,,,,,,,,,,,,,,,713,2022-02-12_17h41.36.202,multiplicationStroop,2021.2.3,Win32,60.93473889,,,,,,,,,,,,,,,,,,,,,,,,,,,,,,,,,72,2.314,1,0,16,16,0,1,8,×,9,8 × 9,incongruent,smallerFirst,2,1,72,,,,,,,,
,,,,,,,,,,,,,,,713,2022-02-12_17h41.36.202,multiplicationStroop,2021.2.3,Win32,60.93473889,,,,,,,,,,,,,,,,,,,,,,,,,,,,,,,,,21,2.981,1,0,17,17,26,1,7,×,3,7 × 3,incongruent,largerFirst,1,2,21,,,,,,,,
,,,,,,,,,,,,,,,713,2022-02-12_17h41.36.202,multiplicationStroop,2021.2.3,Win32,60.93473889,,,,,,,,,,,,,,,,,,,,,,,,,,,,,,,,,18,1.8228,1,0,18,18,2,1,2,×,9,2 × 9,incongruent,smallerFirst,2,1,18,,,,,,,,
,,,,,,,,,,,,,,,713,2022-02-12_17h41.36.202,multiplicationStroop,2021.2.3,Win32,60.93473889,,,,,,,,,,,,,,,,,,,,,,,,,,,,,,,,,6,1.9828,1,0,19,19,11,1,2,×,3,2 × 3,incongruent,smallerFirst,2,1,6,,,,,,,,
,,,,,,,,,,,,,,,713,2022-02-12_17h41.36.202,multiplicationStroop,2021.2.3,Win32,60.93473889,,,,,,,,,,,,,,,,,,,,,,,,,,,,,,,,,45,3.7638,1,0,20,20,22,1,9,×,5,9 × 5,incongruent,largerFirst,1,2,45,,,,,,,,
,,,,,,,,,,,,,,,713,2022-02-12_17h41.36.202,multiplicationStroop,2021.2.3,Win32,60.93473889,,,,,,,,,,,,,,,,,,,,,,,,,,,,,,,,,64,2.239,1,0,21,21,34,1,8,×,8,8 × 8,incongruent,tie,1,2,64,,,,,,,,
,,,,,,,,,,,,,,,713,2022-02-12_17h41.36.202,multiplicationStroop,2021.2.3,Win32,60.93473889,,,,,,,,,,,,,,,,,,,,,,,,,,,,,,,,,63,4.0475,1,0,22,22,3,1,7,×,9,7 × 9,incongruent,smallerFirst,2,1,63,,,,,,,,
,,,,,,,,,,,,,,,713,2022-02-12_17h41.36.202,multiplicationStroop,2021.2.3,Win32,60.93473889,,,,,,,,,,,,,,,,,,,,,,,,,,,,,,,,,8,1.7087,1,0,23,23,24,1,4,×,2,4 × 2,incongruent,largerFirst,1,2,8,,,,,,,,
,,,,,,,,,,,,,,,713,2022-02-12_17h41.36.202,multiplicationStroop,2021.2.3,Win32,60.93473889,,,,,,,,,,,,,,,,,,,,,,,,,,,,,,,,,24,1.6153,1,0,24,24,20,1,6,×,4,6 × 4,incongruent,largerFirst,1,2,24,,,,,,,,
,,,,,,,,,,,,,,,713,2022-02-12_17h41.36.202,multiplicationStroop,2021.2.3,Win32,60.93473889,,,,,,,,,,,,,,,,,,,,,,,,,,,,,,,,,81,3.2656,1,0,25,25,35,1,9,×,9,9 × 9,incongruent,tie,1,2,81,,,,,,,,
,,,,,,,,,,,,,,,713,2022-02-12_17h41.36.202,multiplicationStroop,2021.2.3,Win32,60.93473889,,,,,,,,,,,,,,,,,,,,,,,,,,,,,,,,,18,3.0823,1,0,26,26,8,1,3,×,6,3 × 6,incongruent,smallerFirst,2,1,18,,,,,,,,
,,,,,,,,,,,,,,,713,2022-02-12_17h41.36.202,multiplicationStroop,2021.2.3,Win32,60.93473889,,,,,,,,,,,,,,,,,,,,,,,,,,,,,,,,,27,1.7927,1,0,27,27,18,1,9,×,3,9 × 3,incongruent,largerFirst,1,2,27,,,,,,,,
,,,,,,,,,,,,,,,713,2022-02-12_17h41.36.202,multiplicationStroop,2021.2.3,Win32,60.93473889,,,,,,,,,,,,,,,,,,,,,,,,,,,,,,,,,16,2.0969,1,0,28,28,30,1,4,×,4,4 × 4,incongruent,tie,1,2,16,,,,,,,,
,,,,,,,,,,,,,,,713,2022-02-12_17h41.36.202,multiplicationStroop,2021.2.3,Win32,60.93473889,,,,,,,,,,,,,,,,,,,,,,,,,,,,,,,,,16,1.9162,1,0,29,29,23,1,8,×,2,8 × 2,incongruent,largerFirst,1,2,16,,,,,,,,
,,,,,,,,,,,,,,,713,2022-02-12_17h41.36.202,multiplicationStroop,2021.2.3,Win32,60.93473889,,,,,,,,,,,,,,,,,,,,,,,,,,,,,,,,,32,2.9297,1,0,30,30,7,1,4,×,8,4 × 8,incongruent,smallerFirst,2,1,32,,,,,,,,
,,,,,,,,,,,,,,,713,2022-02-12_17h41.36.202,multiplicationStroop,2021.2.3,Win32,60.93473889,,,,,,,,,,,,,,,,,,,,,,,,,,,,,,,,,28,1.9308,1,0,31,31,16,1,7,×,4,7 × 4,incongruent,largerFirst,1,2,28,,,,,,,,
,,,,,,,,,,,,,,,713,2022-02-12_17h41.36.202,multiplicationStroop,2021.2.3,Win32,60.93473889,,,,,,,,,,,,,,,,,,,,,,,,,,,,,,,,,10,1.5149,1,0,32,32,21,1,5,×,2,5 × 2,incongruent,largerFirst,1,2,10,,,,,,,,
,,,,,,,,,,,,,,,713,2022-02-12_17h41.36.202,multiplicationStroop,2021.2.3,Win32,60.93473889,,,,,,,,,,,,,,,,,,,,,,,,,,,,,,,,,35,2.3983,1,0,33,33,12,1,5,×,7,5 × 7,incongruent,smallerFirst,2,1,35,,,,,,,,
,,,,,,,,,,,,,,,713,2022-02-12_17h41.36.202,multiplicationStroop,2021.2.3,Win32,60.93473889,,,,,,,,,,,,,,,,,,,,,,,,,,,,,,,,,15,1.5667,1,0,34,34,10,1,3,×,5,3 × 5,incongruent,smallerFirst,2,1,15,,,,,,,,
,,,,,,,,,,,,,,,713,2022-02-12_17h41.36.202,multiplicationStroop,2021.2.3,Win32,60.93473889,,,,,,,,,,,,,,,,,,,,,,,,,,,,,,,,,36,2.5295,1,0,35,35,15,1,9,×,4,9 × 4,incongruent,largerFirst,1,2,36,,,,,,,,
,,,,,,,,,,,,,,,713,2022-02-12_17h41.36.202,multiplicationStroop,2021.2.3,Win32,60.93473889,,,,,,,,,,,,,,,,,,,,,,,,,,,,,,,,,,,,,,,,,,,,,,,,,,0,5,5,5,1,stimulusFile/mult_blk6_INcongruent.xlsx,,
,,,,,,,,,,,,,,,713,2022-02-12_17h41.36.202,multiplicationStroop,2021.2.3,Win32,60.93473889,,,,,,,,,,,,,,,,,,,,,,,,,,,,,,,,,,,,,,,,,,,,,,,,,,,,,,,,space,5.2455