welcomeKey_resp.keys,welcomeKey_resp.rt,X Scale,Y Scale,rt_resp_4.keys,rt_resp_4.corr,rt_resp_4.rt,speedtest_2.thisRepN,speedtest_2.thisTrialN,speedtest_2.thisN,speedtest_2.thisIndex,speedtest_2.ran,numberSc,posX,positionLayout,participant,date,expName,psychopyVersion,OS,frameRate,ct_instrresp.keys,ct_instrresp.rt,key_resp_2.keys,key_resp_2.rt,ct_keyResp.keys,ct_keyResp.corr,ct_keyResp.rt,trials.thisRepN,trials.thisTrialN,trials.thisN,trials.thisIndex,trials.ran,leftNo,rightNo,displayProblem,numDistance,leftNo_size,rightNo_size,Dims,keyAnswer,TS_Loop.thisRepN,TS_Loop.thisTrialN,TS_Loop.thisN,TS_Loop.thisIndex,TS_Loop.ran,Condition,ActionInst,instrImage,mltptaskInst_resp.keys,mltptaskInst_resp.rt,continue_resp_2.keys,continue_resp_2.rt,multp_Answer,multi_RT,multiplyCorr,LoopingMultiply.thisRepN,LoopingMultiply.thisTrialN,LoopingMultiply.thisN,LoopingMultiply.thisIndex,LoopingMultiply.ran,factor1,multiplySign,factor2,multliplyProblem,physicalSize,orderOperand,sizeF1,sizeF2,mult_answer,trials_stroop.thisRepN,trials_stroop.thisTrialN,trials_stroop.thisN,trials_stroop.thisIndex,trials_stroop.ran,multiplicationFile,esckey_resp_2.keys,esckey_resp_2.rt
y,6.0059,45.1,44.7,right,1,0.4999,0,0,0,14,1,8,200,right,714,2022-01-28_22h26.17.350,multiplicationStroop,2021.2.3,Win32,153.0690341,,,,,,,,,,,,,,,,,,,,,,,,,,,,,,,,,,,,,,,,,,,,,,,,,,,,,,,,,
,,,,left,1,0.2722,0,1,1,0,1,1,-200,left,714,2022-01-28_22h26.17.350,multiplicationStroop,2021.2.3,Win32,153.0690341,,,,,,,,,,,,,,,,,,,,,,,,,,,,,,,,,,,,,,,,,,,,,,,,,,,,,,,,,
,,,,right,1,0.2819,0,2,2,12,1,6,200,right,714,2022-01-28_22h26.17.350,multiplicationStroop,2021.2.3,Win32,153.0690341,,,,,,,,,,,,,,,,,,,,,,,,,,,,,,,,,,,,,,,,,,,,,,,,,,,,,,,,,
,,,,right,1,0.297,0,3,3,11,1,4,200,right,714,2022-01-28_22h26.17.350,multiplicationStroop,2021.2.3,Win32,153.0690341,,,,,,,,,,,,,,,,,,,,,,,,,,,,,,,,,,,,,,,,,,,,,,,,,,,,,,,,,
,,,,left,1,0.2528,0,4,4,2,1,3,-200,left,714,2022-01-28_22h26.17.350,multiplicationStroop,2021.2.3,Win32,153.0690341,,,,,,,,,,,,,,,,,,,,,,,,,,,,,,,,,,,,,,,,,,,,,,,,,,,,,,,,,
,,,,right,1,0.1947,0,5,5,13,1,7,200,right,714,2022-01-28_22h26.17.350,multiplicationStroop,2021.2.3,Win32,153.0690341,,,,,,,,,,,,,,,,,,,,,,,,,,,,,,,,,,,,,,,,,,,,,,,,,,,,,,,,,
,,,,right,1,0.2924,0,6,6,9,1,2,200,right,714,2022-01-28_22h26.17.350,multiplicationStroop,2021.2.3,Win32,153.0690341,,,,,,,,,,,,,,,,,,,,,,,,,,,,,,,,,,,,,,,,,,,,,,,,,,,,,,,,,
,,,,right,1,0.2901,0,7,7,10,1,3,200,right,714,2022-01-28_22h26.17.350,multiplicationStroop,2021.2.3,Win32,153.0690341,,,,,,,,,,,,,,,,,,,,,,,,,,,,,,,,,,,,,,,,,,,,,,,,,,,,,,,,,
,,,,left,1,0.2569,0,8,8,7,1,9,-200,left,714,2022-01-28_22h26.17.350,multiplicationStroop,2021.2.3,Win32,153.0690341,,,,,,,,,,,,,,,,,,,,,,,,,,,,,,,,,,,,,,,,,,,,,,,,,,,,,,,,,
,,,,right,0,0.2884,0,9,9,1,1,2,-200,left,714,2022-01-28_22h26.17.350,multiplicationStroop,2021.2.3,Win32,153.0690341,,,,,,,,,,,,,,,,,,,,,,,,,,,,,,,,,,,,,,,,,,,,,,,,,,,,,,,,,
,,,,right,1,0.3964,0,10,10,15,1,9,200,right,714,2022-01-28_22h26.17.350,multiplicationStroop,2021.2.3,Win32,153.0690341,,,,,,,,,,,,,,,,,,,,,,,,,,,,,,,,,,,,,,,,,,,,,,,,,,,,,,,,,
,,,,left,1,0.2186,0,11,11,4,1,6,-200,left,714,2022-01-28_22h26.17.350,multiplicationStroop,2021.2.3,Win32,153.0690341,,,,,,,,,,,,,,,,,,,,,,,,,,,,,,,,,,,,,,,,,,,,,,,,,,,,,,,,,
,,,,right,1,0.2913,0,12,12,8,1,1,200,right,714,2022-01-28_22h26.17.350,multiplicationStroop,2021.2.3,Win32,153.0690341,,,,,,,,,,,,,,,,,,,,,,,,,,,,,,,,,,,,,,,,,,,,,,,,,,,,,,,,,
,,,,left,1,0.2724,0,13,13,3,1,4,-200,left,714,2022-01-28_22h26.17.350,multiplicationStroop,2021.2.3,Win32,153.0690341,,,,,,,,,,,,,,,,,,,,,,,,,,,,,,,,,,,,,,,,,,,,,,,,,,,,,,,,,
,,,,left,1,0.2835,0,14,14,5,1,7,-200,left,714,2022-01-28_22h26.17.350,multiplicationStroop,2021.2.3,Win32,153.0690341,,,,,,,,,,,,,,,,,,,,,,,,,,,,,,,,,,,,,,,,,,,,,,,,,,,,,,,,,
,,,,left,1,0.2367,0,15,15,6,1,8,-200,left,714,2022-01-28_22h26.17.350,multiplicationStroop,2021.2.3,Win32,153.0690341,,,,,,,,,,,,,,,,,,,,,,,,,,,,,,,,,,,,,,,,,,,,,,,,,,,,,,,,,
,,,,left,1,0.2462,1,0,16,3,1,4,-200,left,714,2022-01-28_22h26.17.350,multiplicationStroop,2021.2.3,Win32,153.0690341,,,,,,,,,,,,,,,,,,,,,,,,,,,,,,,,,,,,,,,,,,,,,,,,,,,,,,,,,
,,,,right,1,0.2561,1,1,17,9,1,2,200,right,714,2022-01-28_22h26.17.350,multiplicationStroop,2021.2.3,Win32,153.0690341,,,,,,,,,,,,,,,,,,,,,,,,,,,,,,,,,,,,,,,,,,,,,,,,,,,,,,,,,
,,,,right,1,0.2535,1,2,18,8,1,1,200,right,714,2022-01-28_22h26.17.350,multiplicationStroop,2021.2.3,Win32,153.0690341,,,,,,,,,,,,,,,,,,,,,,,,,,,,,,,,,,,,,,,,,,,,,,,,,,,,,,,,,
,,,,left,1,0.2501,1,3,19,0,1,1,-200,left,714,2022-01-28_22h26.17.350,multiplicationStroop,2021.2.3,Win32,153.0690341,,,,,,,,,,,,,,,,,,,,,,,,,,,,,,,,,,,,,,,,,,,,,,,,,,,,,,,,,
,,,,right,1,0.2015,1,4,20,15,1,9,200,right,714,2022-01-28_22h26.17.350,multiplicationStroop,2021.2.3,Win32,153.0690341,,,,,,,,,,,,,,,,,,,,,,,,,,,,,,,,,,,,,,,,,,,,,,,,,,,,,,,,,
,,,,left,1,0.2296,1,5,21,1,1,2,-200,left,714,2022-01-28_22h26.17.350,multiplicationStroop,2021.2.3,Win32,153.0690341,,,,,,,,,,,,,,,,,,,,,,,,,,,,,,,,,,,,,,,,,,,,,,,,,,,,,,,,,
,,,,left,1,0.3184,1,6,22,2,1,3,-200,left,714,2022-01-28_22h26.17.350,multiplicationStroop,2021.2.3,Win32,153.0690341,,,,,,,,,,,,,,,,,,,,,,,,,,,,,,,,,,,,,,,,,,,,,,,,,,,,,,,,,
,,,,right,1,0.2779,1,7,23,14,1,8,200,right,714,2022-01-28_22h26.17.350,multiplicationStroop,2021.2.3,Win32,153.0690341,,,,,,,,,,,,,,,,,,,,,,,,,,,,,,,,,,,,,,,,,,,,,,,,,,,,,,,,,
,,,,left,1,0.2031,1,8,24,7,1,9,-200,left,714,2022-01-28_22h26.17.350,multiplicationStroop,2021.2.3,Win32,153.0690341,,,,,,,,,,,,,,,,,,,,,,,,,,,,,,,,,,,,,,,,,,,,,,,,,,,,,,,,,
,,,,right,1,0.2567,1,9,25,12,1,6,200,right,714,2022-01-28_22h26.17.350,multiplicationStroop,2021.2.3,Win32,153.0690341,,,,,,,,,,,,,,,,,,,,,,,,,,,,,,,,,,,,,,,,,,,,,,,,,,,,,,,,,
,,,,right,1,0.3001,1,10,26,10,1,3,200,right,714,2022-01-28_22h26.17.350,multiplicationStroop,2021.2.3,Win32,153.0690341,,,,,,,,,,,,,,,,,,,,,,,,,,,,,,,,,,,,,,,,,,,,,,,,,,,,,,,,,
,,,,right,1,0.2416,1,11,27,11,1,4,200,right,714,2022-01-28_22h26.17.350,multiplicationStroop,2021.2.3,Win32,153.0690341,,,,,,,,,,,,,,,,,,,,,,,,,,,,,,,,,,,,,,,,,,,,,,,,,,,,,,,,,
,,,,left,1,0.2425,1,12,28,5,1,7,-200,left,714,2022-01-28_22h26.17.350,multiplicationStroop,2021.2.3,Win32,153.0690341,,,,,,,,,,,,,,,,,,,,,,,,,,,,,,,,,,,,,,,,,,,,,,,,,,,,,,,,,
,,,,right,1,0.1968,1,13,29,13,1,7,200,right,714,2022-01-28_22h26.17.350,multiplicationStroop,2021.2.3,Win32,153.0690341,,,,,,,,,,,,,,,,,,,,,,,,,,,,,,,,,,,,,,,,,,,,,,,,,,,,,,,,,
,,,,left,1,0.2333,1,14,30,6,1,8,-200,left,714,2022-01-28_22h26.17.350,multiplicationStroop,2021.2.3,Win32,153.0690341,,,,,,,,,,,,,,,,,,,,,,,,,,,,,,,,,,,,,,,,,,,,,,,,,,,,,,,,,
,,,,right,0,0.18,1,15,31,4,1,6,-200,left,714,2022-01-28_22h26.17.350,multiplicationStroop,2021.2.3,Win32,153.0690341,,,,,,,,,,,,,,,,,,,,,,,,,,,,,,,,,,,,,,,,,,,,,,,,,,,,,,,,,
,,,,left,1,0.4771,2,0,32,2,1,3,-200,left,714,2022-01-28_22h26.17.350,multiplicationStroop,2021.2.3,Win32,153.0690341,,,,,,,,,,,,,,,,,,,,,,,,,,,,,,,,,,,,,,,,,,,,,,,,,,,,,,,,,
,,,,left,1,0.3626,2,1,33,1,1,2,-200,left,714,2022-01-28_22h26.17.350,multiplicationStroop,2021.2.3,Win32,153.0690341,,,,,,,,,,,,,,,,,,,,,,,,,,,,,,,,,,,,,,,,,,,,,,,,,,,,,,,,,
,,,,right,1,0.3408,2,2,34,9,1,2,200,right,714,2022-01-28_22h26.17.350,multiplicationStroop,2021.2.3,Win32,153.0690341,,,,,,,,,,,,,,,,,,,,,,,,,,,,,,,,,,,,,,,,,,,,,,,,,,,,,,,,,
,,,,left,1,0.2517,2,3,35,3,1,4,-200,left,714,2022-01-28_22h26.17.350,multiplicationStroop,2021.2.3,Win32,153.0690341,,,,,,,,,,,,,,,,,,,,,,,,,,,,,,,,,,,,,,,,,,,,,,,,,,,,,,,,,
,,,,left,1,0.2547,2,4,36,5,1,7,-200,left,714,2022-01-28_22h26.17.350,multiplicationStroop,2021.2.3,Win32,153.0690341,,,,,,,,,,,,,,,,,,,,,,,,,,,,,,,,,,,,,,,,,,,,,,,,,,,,,,,,,
,,,,right,1,0.2625,2,5,37,8,1,1,200,right,714,2022-01-28_22h26.17.350,multiplicationStroop,2021.2.3,Win32,153.0690341,,,,,,,,,,,,,,,,,,,,,,,,,,,,,,,,,,,,,,,,,,,,,,,,,,,,,,,,,
,,,,right,1,0.3108,2,6,38,12,1,6,200,right,714,2022-01-28_22h26.17.350,multiplicationStroop,2021.2.3,Win32,153.0690341,,,,,,,,,,,,,,,,,,,,,,,,,,,,,,,,,,,,,,,,,,,,,,,,,,,,,,,,,
,,,,left,1,0.2442,2,7,39,7,1,9,-200,left,714,2022-01-28_22h26.17.350,multiplicationStroop,2021.2.3,Win32,153.0690341,,,,,,,,,,,,,,,,,,,,,,,,,,,,,,,,,,,,,,,,,,,,,,,,,,,,,,,,,
,,,,right,1,0.2522,2,8,40,15,1,9,200,right,714,2022-01-28_22h26.17.350,multiplicationStroop,2021.2.3,Win32,153.0690341,,,,,,,,,,,,,,,,,,,,,,,,,,,,,,,,,,,,,,,,,,,,,,,,,,,,,,,,,
,,,,right,1,0.2632,2,9,41,13,1,7,200,right,714,2022-01-28_22h26.17.350,multiplicationStroop,2021.2.3,Win32,153.0690341,,,,,,,,,,,,,,,,,,,,,,,,,,,,,,,,,,,,,,,,,,,,,,,,,,,,,,,,,
,,,,right,1,0.2654,2,10,42,11,1,4,200,right,714,2022-01-28_22h26.17.350,multiplicationStroop,2021.2.3,Win32,153.0690341,,,,,,,,,,,,,,,,,,,,,,,,,,,,,,,,,,,,,,,,,,,,,,,,,,,,,,,,,
,,,,left,1,0.2549,2,11,43,6,1,8,-200,left,714,2022-01-28_22h26.17.350,multiplicationStroop,2021.2.3,Win32,153.0690341,,,,,,,,,,,,,,,,,,,,,,,,,,,,,,,,,,,,,,,,,,,,,,,,,,,,,,,,,
,,,,left,1,0.2635,2,12,44,0,1,1,-200,left,714,2022-01-28_22h26.17.350,multiplicationStroop,2021.2.3,Win32,153.0690341,,,,,,,,,,,,,,,,,,,,,,,,,,,,,,,,,,,,,,,,,,,,,,,,,,,,,,,,,
,,,,right,1,0.3086,2,13,45,14,1,8,200,right,714,2022-01-28_22h26.17.350,multiplicationStroop,2021.2.3,Win32,153.0690341,,,,,,,,,,,,,,,,,,,,,,,,,,,,,,,,,,,,,,,,,,,,,,,,,,,,,,,,,
,,,,left,1,0.2999,2,14,46,4,1,6,-200,left,714,2022-01-28_22h26.17.350,multiplicationStroop,2021.2.3,Win32,153.0690341,,,,,,,,,,,,,,,,,,,,,,,,,,,,,,,,,,,,,,,,,,,,,,,,,,,,,,,,,
,,,,right,1,0.2388,2,15,47,10,1,3,200,right,714,2022-01-28_22h26.17.350,multiplicationStroop,2021.2.3,Win32,153.0690341,,,,,,,,,,,,,,,,,,,,,,,,,,,,,,,,,,,,,,,,,,,,,,,,,,,,,,,,,
,,,,left,1,0.2563,3,0,48,5,1,7,-200,left,714,2022-01-28_22h26.17.350,multiplicationStroop,2021.2.3,Win32,153.0690341,,,,,,,,,,,,,,,,,,,,,,,,,,,,,,,,,,,,,,,,,,,,,,,,,,,,,,,,,
,,,,right,1,0.4134,3,1,49,11,1,4,200,right,714,2022-01-28_22h26.17.350,multiplicationStroop,2021.2.3,Win32,153.0690341,,,,,,,,,,,,,,,,,,,,,,,,,,,,,,,,,,,,,,,,,,,,,,,,,,,,,,,,,
,,,,left,1,0.2501,3,2,50,7,1,9,-200,left,714,2022-01-28_22h26.17.350,multiplicationStroop,2021.2.3,Win32,153.0690341,,,,,,,,,,,,,,,,,,,,,,,,,,,,,,,,,,,,,,,,,,,,,,,,,,,,,,,,,
,,,,left,1,0.2678,3,3,51,1,1,2,-200,left,714,2022-01-28_22h26.17.350,multiplicationStroop,2021.2.3,Win32,153.0690341,,,,,,,,,,,,,,,,,,,,,,,,,,,,,,,,,,,,,,,,,,,,,,,,,,,,,,,,,
,,,,right,1,0.3053,3,4,52,13,1,7,200,right,714,2022-01-28_22h26.17.350,multiplicationStroop,2021.2.3,Win32,153.0690341,,,,,,,,,,,,,,,,,,,,,,,,,,,,,,,,,,,,,,,,,,,,,,,,,,,,,,,,,
,,,,left,1,0.2943,3,5,53,3,1,4,-200,left,714,2022-01-28_22h26.17.350,multiplicationStroop,2021.2.3,Win32,153.0690341,,,,,,,,,,,,,,,,,,,,,,,,,,,,,,,,,,,,,,,,,,,,,,,,,,,,,,,,,
,,,,right,1,0.2426,3,6,54,15,1,9,200,right,714,2022-01-28_22h26.17.350,multiplicationStroop,2021.2.3,Win32,153.0690341,,,,,,,,,,,,,,,,,,,,,,,,,,,,,,,,,,,,,,,,,,,,,,,,,,,,,,,,,
,,,,left,1,0.2286,3,7,55,6,1,8,-200,left,714,2022-01-28_22h26.17.350,multiplicationStroop,2021.2.3,Win32,153.0690341,,,,,,,,,,,,,,,,,,,,,,,,,,,,,,,,,,,,,,,,,,,,,,,,,,,,,,,,,
,,,,left,1,0.2911,3,8,56,0,1,1,-200,left,714,2022-01-28_22h26.17.350,multiplicationStroop,2021.2.3,Win32,153.0690341,,,,,,,,,,,,,,,,,,,,,,,,,,,,,,,,,,,,,,,,,,,,,,,,,,,,,,,,,
,,,,right,1,0.2992,3,9,57,10,1,3,200,right,714,2022-01-28_22h26.17.350,multiplicationStroop,2021.2.3,Win32,153.0690341,,,,,,,,,,,,,,,,,,,,,,,,,,,,,,,,,,,,,,,,,,,,,,,,,,,,,,,,,
,,,,left,1,0.2024,3,10,58,2,1,3,-200,left,714,2022-01-28_22h26.17.350,multiplicationStroop,2021.2.3,Win32,153.0690341,,,,,,,,,,,,,,,,,,,,,,,,,,,,,,,,,,,,,,,,,,,,,,,,,,,,,,,,,
,,,,right,1,0.2794,3,11,59,12,1,6,200,right,714,2022-01-28_22h26.17.350,multiplicationStroop,2021.2.3,Win32,153.0690341,,,,,,,,,,,,,,,,,,,,,,,,,,,,,,,,,,,,,,,,,,,,,,,,,,,,,,,,,
,,,,left,1,0.2449,3,12,60,4,1,6,-200,left,714,2022-01-28_22h26.17.350,multiplicationStroop,2021.2.3,Win32,153.0690341,,,,,,,,,,,,,,,,,,,,,,,,,,,,,,,,,,,,,,,,,,,,,,,,,,,,,,,,,
,,,,right,1,0.2336,3,13,61,9,1,2,200,right,714,2022-01-28_22h26.17.350,multiplicationStroop,2021.2.3,Win32,153.0690341,,,,,,,,,,,,,,,,,,,,,,,,,,,,,,,,,,,,,,,,,,,,,,,,,,,,,,,,,
,,,,right,1,0.3712,3,14,62,14,1,8,200,right,714,2022-01-28_22h26.17.350,multiplicationStroop,2021.2.3,Win32,153.0690341,,,,,,,,,,,,,,,,,,,,,,,,,,,,,,,,,,,,,,,,,,,,,,,,,,,,,,,,,
,,,,right,1,0.2645,3,15,63,8,1,1,200,right,714,2022-01-28_22h26.17.350,multiplicationStroop,2021.2.3,Win32,153.0690341,,,,,,,,,,,,,,,,,,,,,,,,,,,,,,,,,,,,,,,,,,,,,,,,,,,,,,,,,
,,,,,,,,,,,,,,,714,2022-01-28_22h26.17.350,multiplicationStroop,2021.2.3,Win32,153.0690341,space,14.2196,space,8.4238,right,1,0.5536,0,0,0,43,1,4,9,4 | 9,5,1.9756,1.4111,incongruent,right,,,,,,stimulusFile/magnitude.xlsx,,,,,,,,,,,,,,,,,,,,,,,,,,,,,,,
,,,,,,,,,,,,,,,714,2022-01-28_22h26.17.350,multiplicationStroop,2021.2.3,Win32,153.0690341,,,,,left,1,0.4303,0,1,1,4,1,2,1,2 | 1,1,1.9756,1.4111,congruent,left,,,,,,stimulusFile/magnitude.xlsx,,,,,,,,,,,,,,,,,,,,,,,,,,,,,,,
,,,,,,,,,,,,,,,714,2022-01-28_22h26.17.350,multiplicationStroop,2021.2.3,Win32,153.0690341,,,,,right,1,0.3303,0,2,2,64,1,1,6,1 | 6,5,1.6933,1.6933,neutral,right,,,,,,stimulusFile/magnitude.xlsx,,,,,,,,,,,,,,,,,,,,,,,,,,,,,,,
,,,,,,,,,,,,,,,714,2022-01-28_22h26.17.350,multiplicationStroop,2021.2.3,Win32,153.0690341,,,,,left,1,0.3266,0,3,3,68,1,6,1,6 | 1,5,1.6933,1.6933,neutral,left,,,,,,stimulusFile/magnitude.xlsx,,,,,,,,,,,,,,,,,,,,,,,,,,,,,,,
,,,,,,,,,,,,,,,714,2022-01-28_22h26.17.350,multiplicationStroop,2021.2.3,Win32,153.0690341,,,,,left,0,0.3463,0,4,4,2,1,6,7,6 | 7,1,1.4111,1.9756,congruent,right,,,,,,stimulusFile/magnitude.xlsx,,,,,,,,,,,,,,,,,,,,,,,,,,,,,,,
,,,,,,,,,,,,,,,714,2022-01-28_22h26.17.350,multiplicationStroop,2021.2.3,Win32,153.0690341,,,,,left,1,0.8486,0,5,5,37,1,4,2,4 | 2,2,1.4111,1.9756,incongruent,left,,,,,,stimulusFile/magnitude.xlsx,,,,,,,,,,,,,,,,,,,,,,,,,,,,,,,
,,,,,,,,,,,,,,,714,2022-01-28_22h26.17.350,multiplicationStroop,2021.2.3,Win32,153.0690341,,,,,left,1,0.4652,0,6,6,60,1,3,1,3 | 1,2,1.6933,1.6933,neutral,left,,,,,,stimulusFile/magnitude.xlsx,,,,,,,,,,,,,,,,,,,,,,,,,,,,,,,
,,,,,,,,,,,,,,,714,2022-01-28_22h26.17.350,multiplicationStroop,2021.2.3,Win32,153.0690341,,,,,left,1,0.5354,0,7,7,23,1,9,4,9 | 4,5,1.9756,1.4111,congruent,left,,,,,,stimulusFile/magnitude.xlsx,,,,,,,,,,,,,,,,,,,,,,,,,,,,,,,
,,,,,,,,,,,,,,,714,2022-01-28_22h26.17.350,multiplicationStroop,2021.2.3,Win32,153.0690341,,,,,left,1,0.5003,0,8,8,69,1,7,2,7 | 2,5,1.6933,1.6933,neutral,left,,,,,,stimulusFile/magnitude.xlsx,,,,,,,,,,,,,,,,,,,,,,,,,,,,,,,
,,,,,,,,,,,,,,,714,2022-01-28_22h26.17.350,multiplicationStroop,2021.2.3,Win32,153.0690341,,,,,right,1,0.4075,0,9,9,57,1,2,4,2 | 4,2,1.6933,1.6933,neutral,right,,,,,,stimulusFile/magnitude.xlsx,,,,,,,,,,,,,,,,,,,,,,,,,,,,,,,
,,,,,,,,,,,,,,,714,2022-01-28_22h26.17.350,multiplicationStroop,2021.2.3,Win32,153.0690341,,,,,right,1,0.4993,0,10,10,42,1,3,8,3 | 8,5,1.9756,1.4111,incongruent,right,,,,,,stimulusFile/magnitude.xlsx,,,,,,,,,,,,,,,,,,,,,,,,,,,,,,,
,,,,,,,,,,,,,,,714,2022-01-28_22h26.17.350,multiplicationStroop,2021.2.3,Win32,153.0690341,,,,,right,1,0.435,0,11,11,66,1,3,8,3 | 8,5,1.6933,1.6933,neutral,right,,,,,,stimulusFile/magnitude.xlsx,,,,,,,,,,,,,,,,,,,,,,,,,,,,,,,
,,,,,,,,,,,,,,,714,2022-01-28_22h26.17.350,multiplicationStroop,2021.2.3,Win32,153.0690341,,,,,right,1,0.5213,0,12,12,11,1,7,9,7 | 9,2,1.4111,1.9756,congruent,right,,,,,,stimulusFile/magnitude.xlsx,,,,,,,,,,,,,,,,,,,,,,,,,,,,,,,
,,,,,,,,,,,,,,,714,2022-01-28_22h26.17.350,multiplicationStroop,2021.2.3,Win32,153.0690341,,,,,right,1,0.5766,0,13,13,32,1,1,3,1 | 3,2,1.9756,1.4111,incongruent,right,,,,,,stimulusFile/magnitude.xlsx,,,,,,,,,,,,,,,,,,,,,,,,,,,,,,,
,,,,,,,,,,,,,,,714,2022-01-28_22h26.17.350,multiplicationStroop,2021.2.3,Win32,153.0690341,,,,,left,1,0.3661,0,14,14,55,1,9,8,9 | 8,1,1.6933,1.6933,neutral,left,,,,,,stimulusFile/magnitude.xlsx,,,,,,,,,,,,,,,,,,,,,,,,,,,,,,,
,,,,,,,,,,,,,,,714,2022-01-28_22h26.17.350,multiplicationStroop,2021.2.3,Win32,153.0690341,,,,,left,1,0.4115,0,15,15,20,1,6,1,6 | 1,5,1.9756,1.4111,congruent,left,,,,,,stimulusFile/magnitude.xlsx,,,,,,,,,,,,,,,,,,,,,,,,,,,,,,,
,,,,,,,,,,,,,,,714,2022-01-28_22h26.17.350,multiplicationStroop,2021.2.3,Win32,153.0690341,,,,,right,1,0.4681,0,16,16,10,1,6,8,6 | 8,2,1.4111,1.9756,congruent,right,,,,,,stimulusFile/magnitude.xlsx,,,,,,,,,,,,,,,,,,,,,,,,,,,,,,,
,,,,,,,,,,,,,,,714,2022-01-28_22h26.17.350,multiplicationStroop,2021.2.3,Win32,153.0690341,,,,,left,1,0.403,0,17,17,21,1,7,2,7 | 2,5,1.9756,1.4111,congruent,left,,,,,,stimulusFile/magnitude.xlsx,,,,,,,,,,,,,,,,,,,,,,,,,,,,,,,
,,,,,,,,,,,,,,,714,2022-01-28_22h26.17.350,multiplicationStroop,2021.2.3,Win32,153.0690341,,,,,right,1,0.4376,0,18,18,8,1,1,3,1 | 3,2,1.4111,1.9756,congruent,right,,,,,,stimulusFile/magnitude.xlsx,,,,,,,,,,,,,,,,,,,,,,,,,,,,,,,
,,,,,,,,,,,,,,,714,2022-01-28_22h26.17.350,multiplicationStroop,2021.2.3,Win32,153.0690341,,,,,right,1,0.5501,0,19,19,41,1,2,7,2 | 7,5,1.9756,1.4111,incongruent,right,,,,,,stimulusFile/magnitude.xlsx,,,,,,,,,,,,,,,,,,,,,,,,,,,,,,,
,,,,,,,,,,,,,,,714,2022-01-28_22h26.17.350,multiplicationStroop,2021.2.3,Win32,153.0690341,,,,,right,0,0.586,0,20,20,29,1,4,3,4 | 3,1,1.4111,1.9756,incongruent,left,,,,,,stimulusFile/magnitude.xlsx,,,,,,,,,,,,,,,,,,,,,,,,,,,,,,,
,,,,,,,,,,,,,,,714,2022-01-28_22h26.17.350,multiplicationStroop,2021.2.3,Win32,153.0690341,,,,,left,1,0.5046,0,21,21,53,1,4,3,4 | 3,1,1.6933,1.6933,neutral,left,,,,,,stimulusFile/magnitude.xlsx,,,,,,,,,,,,,,,,,,,,,,,,,,,,,,,
,,,,,,,,,,,,,,,714,2022-01-28_22h26.17.350,multiplicationStroop,2021.2.3,Win32,153.0690341,,,,,right,1,0.5623,0,22,22,48,1,1,2,1 | 2,1,1.6933,1.6933,neutral,right,,,,,,stimulusFile/magnitude.xlsx,,,,,,,,,,,,,,,,,,,,,,,,,,,,,,,
,,,,,,,,,,,,,,,714,2022-01-28_22h26.17.350,multiplicationStroop,2021.2.3,Win32,153.0690341,,,,,right,1,0.542,0,23,23,19,1,4,9,4 | 9,5,1.4111,1.9756,congruent,right,,,,,,stimulusFile/magnitude.xlsx,,,,,,,,,,,,,,,,,,,,,,,,,,,,,,,
,,,,,,,,,,,,,,,714,2022-01-28_22h26.17.350,multiplicationStroop,2021.2.3,Win32,153.0690341,,,,,right,1,0.5559,0,24,24,51,1,8,9,8 | 9,1,1.6933,1.6933,neutral,right,,,,,,stimulusFile/magnitude.xlsx,,,,,,,,,,,,,,,,,,,,,,,,,,,,,,,
,,,,,,,,,,,,,,,714,2022-01-28_22h26.17.350,multiplicationStroop,2021.2.3,Win32,153.0690341,,,,,left,1,0.4862,0,25,25,71,1,9,4,9 | 4,5,1.6933,1.6933,neutral,left,,,,,,stimulusFile/magnitude.xlsx,,,,,,,,,,,,,,,,,,,,,,,,,,,,,,,
,,,,,,,,,,,,,,,714,2022-01-28_22h26.17.350,multiplicationStroop,2021.2.3,Win32,153.0690341,,,,,left,1,0.6737,0,26,26,38,1,8,6,8 | 6,2,1.4111,1.9756,incongruent,left,,,,,,stimulusFile/magnitude.xlsx,,,,,,,,,,,,,,,,,,,,,,,,,,,,,,,
,,,,,,,,,,,,,,,714,2022-01-28_22h26.17.350,multiplicationStroop,2021.2.3,Win32,153.0690341,,,,,right,1,0.3908,0,27,27,67,1,4,9,4 | 9,5,1.6933,1.6933,neutral,right,,,,,,stimulusFile/magnitude.xlsx,,,,,,,,,,,,,,,,,,,,,,,,,,,,,,,
,,,,,,,,,,,,,,,714,2022-01-28_22h26.17.350,multiplicationStroop,2021.2.3,Win32,153.0690341,,,,,left,1,0.3964,0,28,28,12,1,3,1,3 | 1,2,1.9756,1.4111,congruent,left,,,,,,stimulusFile/magnitude.xlsx,,,,,,,,,,,,,,,,,,,,,,,,,,,,,,,
,,,,,,,,,,,,,,,714,2022-01-28_22h26.17.350,multiplicationStroop,2021.2.3,Win32,153.0690341,,,,,right,1,0.3828,0,29,29,16,1,1,6,1 | 6,5,1.4111,1.9756,congruent,right,,,,,,stimulusFile/magnitude.xlsx,,,,,,,,,,,,,,,,,,,,,,,,,,,,,,,
,,,,,,,,,,,,,,,714,2022-01-28_22h26.17.350,multiplicationStroop,2021.2.3,Win32,153.0690341,,,,,left,1,0.4239,0,30,30,45,1,7,2,7 | 2,5,1.4111,1.9756,incongruent,left,,,,,,stimulusFile/magnitude.xlsx,,,,,,,,,,,,,,,,,,,,,,,,,,,,,,,
,,,,,,,,,,,,,,,714,2022-01-28_22h26.17.350,multiplicationStroop,2021.2.3,Win32,153.0690341,,,,,right,1,0.3894,0,31,31,1,1,3,4,3 | 4,1,1.4111,1.9756,congruent,right,,,,,,stimulusFile/magnitude.xlsx,,,,,,,,,,,,,,,,,,,,,,,,,,,,,,,
,,,,,,,,,,,,,,,714,2022-01-28_22h26.17.350,multiplicationStroop,2021.2.3,Win32,153.0690341,,,,,right,1,0.4347,0,32,32,18,1,3,8,3 | 8,5,1.4111,1.9756,congruent,right,,,,,,stimulusFile/magnitude.xlsx,,,,,,,,,,,,,,,,,,,,,,,,,,,,,,,
,,,,,,,,,,,,,,,714,2022-01-28_22h26.17.350,multiplicationStroop,2021.2.3,Win32,153.0690341,,,,,right,1,0.5539,0,33,33,40,1,1,6,1 | 6,5,1.9756,1.4111,incongruent,right,,,,,,stimulusFile/magnitude.xlsx,,,,,,,,,,,,,,,,,,,,,,,,,,,,,,,
,,,,,,,,,,,,,,,714,2022-01-28_22h26.17.350,multiplicationStroop,2021.2.3,Win32,153.0690341,,,,,left,1,0.3842,0,34,34,70,1,8,3,8 | 3,5,1.6933,1.6933,neutral,left,,,,,,stimulusFile/magnitude.xlsx,,,,,,,,,,,,,,,,,,,,,,,,,,,,,,,
,,,,,,,,,,,,,,,714,2022-01-28_22h26.17.350,multiplicationStroop,2021.2.3,Win32,153.0690341,,,,,right,1,0.4404,0,35,35,50,1,6,7,6 | 7,1,1.6933,1.6933,neutral,right,,,,,,stimulusFile/magnitude.xlsx,,,,,,,,,,,,,,,,,,,,,,,,,,,,,,,
,,,,,,,,,,,,,,,714,2022-01-28_22h26.17.350,multiplicationStroop,2021.2.3,Win32,153.0690341,,,,,left,1,0.3475,0,36,36,13,1,4,2,4 | 2,2,1.9756,1.4111,congruent,left,,,,,,stimulusFile/magnitude.xlsx,,,,,,,,,,,,,,,,,,,,,,,,,,,,,,,
,,,,,,,,,,,,,,,714,2022-01-28_22h26.17.350,multiplicationStroop,2021.2.3,Win32,153.0690341,,,,,right,1,0.4371,0,37,37,35,1,7,9,7 | 9,2,1.9756,1.4111,incongruent,right,,,,,,stimulusFile/magnitude.xlsx,,,,,,,,,,,,,,,,,,,,,,,,,,,,,,,
,,,,,,,,,,,,,,,714,2022-01-28_22h26.17.350,multiplicationStroop,2021.2.3,Win32,153.0690341,,,,,left,0,0.4011,0,38,38,25,1,3,4,3 | 4,1,1.9756,1.4111,incongruent,right,,,,,,stimulusFile/magnitude.xlsx,,,,,,,,,,,,,,,,,,,,,,,,,,,,,,,
,,,,,,,,,,,,,,,714,2022-01-28_22h26.17.350,multiplicationStroop,2021.2.3,Win32,153.0690341,,,,,right,1,0.9235,0,39,39,24,1,1,2,1 | 2,1,1.9756,1.4111,incongruent,right,,,,,,stimulusFile/magnitude.xlsx,,,,,,,,,,,,,,,,,,,,,,,,,,,,,,,
,,,,,,,,,,,,,,,714,2022-01-28_22h26.17.350,multiplicationStroop,2021.2.3,Win32,153.0690341,,,,,left,1,0.4347,0,40,40,28,1,2,1,2 | 1,1,1.4111,1.9756,incongruent,left,,,,,,stimulusFile/magnitude.xlsx,,,,,,,,,,,,,,,,,,,,,,,,,,,,,,,
,,,,,,,,,,,,,,,714,2022-01-28_22h26.17.350,multiplicationStroop,2021.2.3,Win32,153.0690341,,,,,right,1,0.4323,0,41,41,58,1,6,8,6 | 8,2,1.6933,1.6933,neutral,right,,,,,,stimulusFile/magnitude.xlsx,,,,,,,,,,,,,,,,,,,,,,,,,,,,,,,
,,,,,,,,,,,,,,,714,2022-01-28_22h26.17.350,multiplicationStroop,2021.2.3,Win32,153.0690341,,,,,left,1,0.5316,0,42,42,6,1,7,6,7 | 6,1,1.9756,1.4111,congruent,left,,,,,,stimulusFile/magnitude.xlsx,,,,,,,,,,,,,,,,,,,,,,,,,,,,,,,
,,,,,,,,,,,,,,,714,2022-01-28_22h26.17.350,multiplicationStroop,2021.2.3,Win32,153.0690341,,,,,right,1,0.5209,0,43,43,59,1,7,9,7 | 9,2,1.6933,1.6933,neutral,right,,,,,,stimulusFile/magnitude.xlsx,,,,,,,,,,,,,,,,,,,,,,,,,,,,,,,
,,,,,,,,,,,,,,,714,2022-01-28_22h26.17.350,multiplicationStroop,2021.2.3,Win32,153.0690341,,,,,right,1,0.4862,0,44,44,9,1,2,4,2 | 4,2,1.4111,1.9756,congruent,right,,,,,,stimulusFile/magnitude.xlsx,,,,,,,,,,,,,,,,,,,,,,,,,,,,,,,
,,,,,,,,,,,,,,,714,2022-01-28_22h26.17.350,multiplicationStroop,2021.2.3,Win32,153.0690341,,,,,left,1,0.4515,0,45,45,7,1,9,8,9 | 8,1,1.9756,1.4111,congruent,left,,,,,,stimulusFile/magnitude.xlsx,,,,,,,,,,,,,,,,,,,,,,,,,,,,,,,
,,,,,,,,,,,,,,,714,2022-01-28_22h26.17.350,multiplicationStroop,2021.2.3,Win32,153.0690341,,,,,left,1,0.6541,0,46,46,52,1,2,1,2 | 1,1,1.6933,1.6933,neutral,left,,,,,,stimulusFile/magnitude.xlsx,,,,,,,,,,,,,,,,,,,,,,,,,,,,,,,
,,,,,,,,,,,,,,,714,2022-01-28_22h26.17.350,multiplicationStroop,2021.2.3,Win32,153.0690341,,,,,left,1,0.4376,0,47,47,36,1,3,1,3 | 1,2,1.4111,1.9756,incongruent,left,,,,,,stimulusFile/magnitude.xlsx,,,,,,,,,,,,,,,,,,,,,,,,,,,,,,,
,,,,,,,,,,,,,,,714,2022-01-28_22h26.17.350,multiplicationStroop,2021.2.3,Win32,153.0690341,,,,,left,1,0.5142,0,48,48,22,1,8,3,8 | 3,5,1.9756,1.4111,congruent,left,,,,,,stimulusFile/magnitude.xlsx,,,,,,,,,,,,,,,,,,,,,,,,,,,,,,,
,,,,,,,,,,,,,,,714,2022-01-28_22h26.17.350,multiplicationStroop,2021.2.3,Win32,153.0690341,,,,,right,0,0.3961,0,49,49,30,1,7,6,7 | 6,1,1.4111,1.9756,incongruent,left,,,,,,stimulusFile/magnitude.xlsx,,,,,,,,,,,,,,,,,,,,,,,,,,,,,,,
,,,,,,,,,,,,,,,714,2022-01-28_22h26.17.350,multiplicationStroop,2021.2.3,Win32,153.0690341,,,,,right,1,0.5205,0,50,50,3,1,8,9,8 | 9,1,1.4111,1.9756,congruent,right,,,,,,stimulusFile/magnitude.xlsx,,,,,,,,,,,,,,,,,,,,,,,,,,,,,,,
,,,,,,,,,,,,,,,714,2022-01-28_22h26.17.350,multiplicationStroop,2021.2.3,Win32,153.0690341,,,,,left,1,0.5699,0,51,51,15,1,9,7,9 | 7,2,1.9756,1.4111,congruent,left,,,,,,stimulusFile/magnitude.xlsx,,,,,,,,,,,,,,,,,,,,,,,,,,,,,,,
,,,,,,,,,,,,,,,714,2022-01-28_22h26.17.350,multiplicationStroop,2021.2.3,Win32,153.0690341,,,,,left,1,0.3749,0,52,52,63,1,9,7,9 | 7,2,1.6933,1.6933,neutral,left,,,,,,stimulusFile/magnitude.xlsx,,,,,,,,,,,,,,,,,,,,,,,,,,,,,,,
,,,,,,,,,,,,,,,714,2022-01-28_22h26.17.350,multiplicationStroop,2021.2.3,Win32,153.0690341,,,,,right,1,0.4446,0,53,53,17,1,2,7,2 | 7,5,1.4111,1.9756,congruent,right,,,,,,stimulusFile/magnitude.xlsx,,,,,,,,,,,,,,,,,,,,,,,,,,,,,,,
,,,,,,,,,,,,,,,714,2022-01-28_22h26.17.350,multiplicationStroop,2021.2.3,Win32,153.0690341,,,,,left,1,0.6259,0,54,54,31,1,9,8,9 | 8,1,1.4111,1.9756,incongruent,left,,,,,,stimulusFile/magnitude.xlsx,,,,,,,,,,,,,,,,,,,,,,,,,,,,,,,
,,,,,,,,,,,,,,,714,2022-01-28_22h26.17.350,multiplicationStroop,2021.2.3,Win32,153.0690341,,,,,right,1,0.5362,0,55,55,27,1,8,9,8 | 9,1,1.9756,1.4111,incongruent,right,,,,,,stimulusFile/magnitude.xlsx,,,,,,,,,,,,,,,,,,,,,,,,,,,,,,,
,,,,,,,,,,,,,,,714,2022-01-28_22h26.17.350,multiplicationStroop,2021.2.3,Win32,153.0690341,,,,,right,1,0.5237,0,56,56,34,1,6,8,6 | 8,2,1.9756,1.4111,incongruent,right,,,,,,stimulusFile/magnitude.xlsx,,,,,,,,,,,,,,,,,,,,,,,,,,,,,,,
,,,,,,,,,,,,,,,714,2022-01-28_22h26.17.350,multiplicationStroop,2021.2.3,Win32,153.0690341,,,,,left,1,0.4611,0,57,57,44,1,6,1,6 | 1,5,1.4111,1.9756,incongruent,left,,,,,,stimulusFile/magnitude.xlsx,,,,,,,,,,,,,,,,,,,,,,,,,,,,,,,
,,,,,,,,,,,,,,,714,2022-01-28_22h26.17.350,multiplicationStroop,2021.2.3,Win32,153.0690341,,,,,left,1,0.3756,0,58,58,61,1,4,2,4 | 2,2,1.6933,1.6933,neutral,left,,,,,,stimulusFile/magnitude.xlsx,,,,,,,,,,,,,,,,,,,,,,,,,,,,,,,
,,,,,,,,,,,,,,,714,2022-01-28_22h26.17.350,multiplicationStroop,2021.2.3,Win32,153.0690341,,,,,right,1,0.403,0,59,59,0,1,1,2,1 | 2,1,1.4111,1.9756,congruent,right,,,,,,stimulusFile/magnitude.xlsx,,,,,,,,,,,,,,,,,,,,,,,,,,,,,,,
,,,,,,,,,,,,,,,714,2022-01-28_22h26.17.350,multiplicationStroop,2021.2.3,Win32,153.0690341,,,,,left,1,0.4373,0,60,60,47,1,9,4,9 | 4,5,1.4111,1.9756,incongruent,left,,,,,,stimulusFile/magnitude.xlsx,,,,,,,,,,,,,,,,,,,,,,,,,,,,,,,
,,,,,,,,,,,,,,,714,2022-01-28_22h26.17.350,multiplicationStroop,2021.2.3,Win32,153.0690341,,,,,left,1,0.8047,0,61,61,62,1,8,6,8 | 6,2,1.6933,1.6933,neutral,left,,,,,,stimulusFile/magnitude.xlsx,,,,,,,,,,,,,,,,,,,,,,,,,,,,,,,
,,,,,,,,,,,,,,,714,2022-01-28_22h26.17.350,multiplicationStroop,2021.2.3,Win32,153.0690341,,,,,right,1,0.4626,0,62,62,33,1,2,4,2 | 4,2,1.9756,1.4111,incongruent,right,,,,,,stimulusFile/magnitude.xlsx,,,,,,,,,,,,,,,,,,,,,,,,,,,,,,,
,,,,,,,,,,,,,,,714,2022-01-28_22h26.17.350,multiplicationStroop,2021.2.3,Win32,153.0690341,,,,,right,1,0.5158,0,63,63,49,1,3,4,3 | 4,1,1.6933,1.6933,neutral,right,,,,,,stimulusFile/magnitude.xlsx,,,,,,,,,,,,,,,,,,,,,,,,,,,,,,,
,,,,,,,,,,,,,,,714,2022-01-28_22h26.17.350,multiplicationStroop,2021.2.3,Win32,153.0690341,,,,,right,1,0.4206,0,64,64,56,1,1,3,1 | 3,2,1.6933,1.6933,neutral,right,,,,,,stimulusFile/magnitude.xlsx,,,,,,,,,,,,,,,,,,,,,,,,,,,,,,,
,,,,,,,,,,,,,,,714,2022-01-28_22h26.17.350,multiplicationStroop,2021.2.3,Win32,153.0690341,,,,,right,1,0.5682,0,65,65,26,1,6,7,6 | 7,1,1.9756,1.4111,incongruent,right,,,,,,stimulusFile/magnitude.xlsx,,,,,,,,,,,,,,,,,,,,,,,,,,,,,,,
,,,,,,,,,,,,,,,714,2022-01-28_22h26.17.350,multiplicationStroop,2021.2.3,Win32,153.0690341,,,,,right,1,0.4862,0,66,66,65,1,2,7,2 | 7,5,1.6933,1.6933,neutral,right,,,,,,stimulusFile/magnitude.xlsx,,,,,,,,,,,,,,,,,,,,,,,,,,,,,,,
,,,,,,,,,,,,,,,714,2022-01-28_22h26.17.350,multiplicationStroop,2021.2.3,Win32,153.0690341,,,,,left,1,0.4784,0,67,67,54,1,7,6,7 | 6,1,1.6933,1.6933,neutral,left,,,,,,stimulusFile/magnitude.xlsx,,,,,,,,,,,,,,,,,,,,,,,,,,,,,,,
,,,,,,,,,,,,,,,714,2022-01-28_22h26.17.350,multiplicationStroop,2021.2.3,Win32,153.0690341,,,,,left,1,0.4371,0,68,68,5,1,4,3,4 | 3,1,1.9756,1.4111,congruent,left,,,,,,stimulusFile/magnitude.xlsx,,,,,,,,,,,,,,,,,,,,,,,,,,,,,,,
,,,,,,,,,,,,,,,714,2022-01-28_22h26.17.350,multiplicationStroop,2021.2.3,Win32,153.0690341,,,,,right,0,0.384,0,69,69,39,1,9,7,9 | 7,2,1.4111,1.9756,incongruent,left,,,,,,stimulusFile/magnitude.xlsx,,,,,,,,,,,,,,,,,,,,,,,,,,,,,,,
,,,,,,,,,,,,,,,714,2022-01-28_22h26.17.350,multiplicationStroop,2021.2.3,Win32,153.0690341,,,,,left,1,0.4394,0,70,70,46,1,8,3,8 | 3,5,1.4111,1.9756,incongruent,left,,,,,,stimulusFile/magnitude.xlsx,,,,,,,,,,,,,,,,,,,,,,,,,,,,,,,
,,,,,,,,,,,,,,,714,2022-01-28_22h26.17.350,multiplicationStroop,2021.2.3,Win32,153.0690341,,,,,left,1,0.4384,0,71,71,14,1,8,6,8 | 6,2,1.9756,1.4111,congruent,left,,,,,,stimulusFile/magnitude.xlsx,,,,,,,,,,,,,,,,,,,,,,,,,,,,,,,
,,,,,,,,,,,,,,,714,2022-01-28_22h26.17.350,multiplicationStroop,2021.2.3,Win32,153.0690341,,,,,,,,,,,,,,,,,,,,,0,0,0,0,1,stimulusFile/magnitude.xlsx,NUMERICALLY larger (larger coefficient).,images/numericallyLarger.png,,,,,,,,,,,,,,,,,,,,,,,,,,,,,
,,,,,,,,,,,,,,,714,2022-01-28_22h26.17.350,multiplicationStroop,2021.2.3,Win32,153.0690341,space,2.6465,space,0.8103,left,1,0.6868,0,0,0,55,1,9,9,9 | 9,0,1.9756,1.4111,neutral,left,,,,,,stimulusFile/physical.xlsx,,,,,,,,,,,,,,,,,,,,,,,,,,,,,,,
,,,,,,,,,,,,,,,714,2022-01-28_22h26.17.350,multiplicationStroop,2021.2.3,Win32,153.0690341,,,,,right,1,0.4427,0,1,1,44,1,6,1,6 | 1,5,1.4111,1.9756,incongruent,right,,,,,,stimulusFile/physical.xlsx,,,,,,,,,,,,,,,,,,,,,,,,,,,,,,,
,,,,,,,,,,,,,,,714,2022-01-28_22h26.17.350,multiplicationStroop,2021.2.3,Win32,153.0690341,,,,,left,0,0.395,0,2,2,66,1,3,3,3 | 3,0,1.9756,1.4111,neutral,right,,,,,,stimulusFile/physical.xlsx,,,,,,,,,,,,,,,,,,,,,,,,,,,,,,,
,,,,,,,,,,,,,,,714,2022-01-28_22h26.17.350,multiplicationStroop,2021.2.3,Win32,153.0690341,,,,,left,1,0.4846,0,3,3,51,1,8,8,8 | 8,0,1.9756,1.4111,neutral,left,,,,,,stimulusFile/physical.xlsx,,,,,,,,,,,,,,,,,,,,,,,,,,,,,,,
,,,,,,,,,,,,,,,714,2022-01-28_22h26.17.350,multiplicationStroop,2021.2.3,Win32,153.0690341,,,,,right,1,0.3329,0,4,4,36,1,3,1,3 | 1,2,1.4111,1.9756,incongruent,right,,,,,,stimulusFile/physical.xlsx,,,,,,,,,,,,,,,,,,,,,,,,,,,,,,,
,,,,,,,,,,,,,,,714,2022-01-28_22h26.17.350,multiplicationStroop,2021.2.3,Win32,153.0690341,,,,,left,0,0.4099,0,5,5,9,1,2,4,2 | 4,2,1.4111,1.9756,congruent,right,,,,,,stimulusFile/physical.xlsx,,,,,,,,,,,,,,,,,,,,,,,,,,,,,,,
,,,,,,,,,,,,,,,714,2022-01-28_22h26.17.350,multiplicationStroop,2021.2.3,Win32,153.0690341,,,,,left,1,0.4866,0,6,6,5,1,4,3,4 | 3,1,1.9756,1.4111,congruent,left,,,,,,stimulusFile/physical.xlsx,,,,,,,,,,,,,,,,,,,,,,,,,,,,,,,
,,,,,,,,,,,,,,,714,2022-01-28_22h26.17.350,multiplicationStroop,2021.2.3,Win32,153.0690341,,,,,right,1,0.394,0,7,7,19,1,4,9,4 | 9,5,1.4111,1.9756,congruent,right,,,,,,stimulusFile/physical.xlsx,,,,,,,,,,,,,,,,,,,,,,,,,,,,,,,
,,,,,,,,,,,,,,,714,2022-01-28_22h26.17.350,multiplicationStroop,2021.2.3,Win32,153.0690341,,,,,left,1,0.4303,0,8,8,70,1,8,8,8 | 8,0,1.9756,1.4111,neutral,left,,,,,,stimulusFile/physical.xlsx,,,,,,,,,,,,,,,,,,,,,,,,,,,,,,,
,,,,,,,,,,,,,,,714,2022-01-28_22h26.17.350,multiplicationStroop,2021.2.3,Win32,153.0690341,,,,,right,1,0.4034,0,9,9,10,1,6,8,6 | 8,2,1.4111,1.9756,congruent,right,,,,,,stimulusFile/physical.xlsx,,,,,,,,,,,,,,,,,,,,,,,,,,,,,,,
,,,,,,,,,,,,,,,714,2022-01-28_22h26.17.350,multiplicationStroop,2021.2.3,Win32,153.0690341,,,,,left,1,0.3547,0,10,10,14,1,8,6,8 | 6,2,1.9756,1.4111,congruent,left,,,,,,stimulusFile/physical.xlsx,,,,,,,,,,,,,,,,,,,,,,,,,,,,,,,
,,,,,,,,,,,,,,,714,2022-01-28_22h26.17.350,multiplicationStroop,2021.2.3,Win32,153.0690341,,,,,right,1,0.3793,0,11,11,62,1,8,8,8 | 8,0,1.4111,1.9756,neutral,right,,,,,,stimulusFile/physical.xlsx,,,,,,,,,,,,,,,,,,,,,,,,,,,,,,,
,,,,,,,,,,,,,,,714,2022-01-28_22h26.17.350,multiplicationStroop,2021.2.3,Win32,153.0690341,,,,,right,1,0.4352,0,12,12,65,1,2,2,2 | 2,0,1.4111,1.9756,neutral,right,,,,,,stimulusFile/physical.xlsx,,,,,,,,,,,,,,,,,,,,,,,,,,,,,,,
,,,,,,,,,,,,,,,714,2022-01-28_22h26.17.350,multiplicationStroop,2021.2.3,Win32,153.0690341,,,,,right,0,0.3838,0,13,13,40,1,1,6,1 | 6,5,1.9756,1.4111,incongruent,left,,,,,,stimulusFile/physical.xlsx,,,,,,,,,,,,,,,,,,,,,,,,,,,,,,,
,,,,,,,,,,,,,,,714,2022-01-28_22h26.17.350,multiplicationStroop,2021.2.3,Win32,153.0690341,,,,,left,1,0.6166,0,14,14,68,1,6,6,6 | 6,0,1.9756,1.4111,neutral,left,,,,,,stimulusFile/physical.xlsx,,,,,,,,,,,,,,,,,,,,,,,,,,,,,,,
,,,,,,,,,,,,,,,714,2022-01-28_22h26.17.350,multiplicationStroop,2021.2.3,Win32,153.0690341,,,,,left,1,0.3985,0,15,15,4,1,2,1,2 | 1,1,1.9756,1.4111,congruent,left,,,,,,stimulusFile/physical.xlsx,,,,,,,,,,,,,,,,,,,,,,,,,,,,,,,
,,,,,,,,,,,,,,,714,2022-01-28_22h26.17.350,multiplicationStroop,2021.2.3,Win32,153.0690341,,,,,right,1,0.3895,0,16,16,11,1,7,9,7 | 9,2,1.4111,1.9756,congruent,right,,,,,,stimulusFile/physical.xlsx,,,,,,,,,,,,,,,,,,,,,,,,,,,,,,,
,,,,,,,,,,,,,,,714,2022-01-28_22h26.17.350,multiplicationStroop,2021.2.3,Win32,153.0690341,,,,,right,1,0.4232,0,17,17,60,1,3,3,3 | 3,0,1.4111,1.9756,neutral,right,,,,,,stimulusFile/physical.xlsx,,,,,,,,,,,,,,,,,,,,,,,,,,,,,,,
,,,,,,,,,,,,,,,714,2022-01-28_22h26.17.350,multiplicationStroop,2021.2.3,Win32,153.0690341,,,,,right,1,0.4443,0,18,18,18,1,3,8,3 | 8,5,1.4111,1.9756,congruent,right,,,,,,stimulusFile/physical.xlsx,,,,,,,,,,,,,,,,,,,,,,,,,,,,,,,
,,,,,,,,,,,,,,,714,2022-01-28_22h26.17.350,multiplicationStroop,2021.2.3,Win32,153.0690341,,,,,right,1,0.6196,0,19,19,31,1,9,8,9 | 8,1,1.4111,1.9756,incongruent,right,,,,,,stimulusFile/physical.xlsx,,,,,,,,,,,,,,,,,,,,,,,,,,,,,,,
,,,,,,,,,,,,,,,714,2022-01-28_22h26.17.350,multiplicationStroop,2021.2.3,Win32,153.0690341,,,,,right,1,0.5433,0,20,20,37,1,4,2,4 | 2,2,1.4111,1.9756,incongruent,right,,,,,,stimulusFile/physical.xlsx,,,,,,,,,,,,,,,,,,,,,,,,,,,,,,,
,,,,,,,,,,,,,,,714,2022-01-28_22h26.17.350,multiplicationStroop,2021.2.3,Win32,153.0690341,,,,,left,1,0.5482,0,21,21,24,1,1,2,1 | 2,1,1.9756,1.4111,incongruent,left,,,,,,stimulusFile/physical.xlsx,,,,,,,,,,,,,,,,,,,,,,,,,,,,,,,
,,,,,,,,,,,,,,,714,2022-01-28_22h26.17.350,multiplicationStroop,2021.2.3,Win32,153.0690341,,,,,left,1,0.3771,0,22,22,21,1,7,2,7 | 2,5,1.9756,1.4111,congruent,left,,,,,,stimulusFile/physical.xlsx,,,,,,,,,,,,,,,,,,,,,,,,,,,,,,,
,,,,,,,,,,,,,,,714,2022-01-28_22h26.17.350,multiplicationStroop,2021.2.3,Win32,153.0690341,,,,,left,1,0.5795,0,23,23,42,1,3,8,3 | 8,5,1.9756,1.4111,incongruent,left,,,,,,stimulusFile/physical.xlsx,,,,,,,,,,,,,,,,,,,,,,,,,,,,,,,
,,,,,,,,,,,,,,,714,2022-01-28_22h26.17.350,multiplicationStroop,2021.2.3,Win32,153.0690341,,,,,right,1,0.4119,0,24,24,30,1,7,6,7 | 6,1,1.4111,1.9756,incongruent,right,,,,,,stimulusFile/physical.xlsx,,,,,,,,,,,,,,,,,,,,,,,,,,,,,,,
,,,,,,,,,,,,,,,714,2022-01-28_22h26.17.350,multiplicationStroop,2021.2.3,Win32,153.0690341,,,,,right,1,0.4381,0,25,25,38,1,8,6,8 | 6,2,1.4111,1.9756,incongruent,right,,,,,,stimulusFile/physical.xlsx,,,,,,,,,,,,,,,,,,,,,,,,,,,,,,,
,,,,,,,,,,,,,,,714,2022-01-28_22h26.17.350,multiplicationStroop,2021.2.3,Win32,153.0690341,,,,,left,1,0.5581,0,26,26,33,1,2,4,2 | 4,2,1.9756,1.4111,incongruent,left,,,,,,stimulusFile/physical.xlsx,,,,,,,,,,,,,,,,,,,,,,,,,,,,,,,
,,,,,,,,,,,,,,,714,2022-01-28_22h26.17.350,multiplicationStroop,2021.2.3,Win32,153.0690341,,,,,left,1,0.3964,0,27,27,20,1,6,1,6 | 1,5,1.9756,1.4111,congruent,left,,,,,,stimulusFile/physical.xlsx,,,,,,,,,,,,,,,,,,,,,,,,,,,,,,,
,,,,,,,,,,,,,,,714,2022-01-28_22h26.17.350,multiplicationStroop,2021.2.3,Win32,153.0690341,,,,,right,1,0.429,0,28,28,58,1,6,6,6 | 6,0,1.4111,1.9756,neutral,right,,,,,,stimulusFile/physical.xlsx,,,,,,,,,,,,,,,,,,,,,,,,,,,,,,,
,,,,,,,,,,,,,,,714,2022-01-28_22h26.17.350,multiplicationStroop,2021.2.3,Win32,153.0690341,,,,,left,1,0.3801,0,29,29,6,1,7,6,7 | 6,1,1.9756,1.4111,congruent,left,,,,,,stimulusFile/physical.xlsx,,,,,,,,,,,,,,,,,,,,,,,,,,,,,,,
,,,,,,,,,,,,,,,714,2022-01-28_22h26.17.350,multiplicationStroop,2021.2.3,Win32,153.0690341,,,,,left,0,0.4213,0,30,30,64,1,1,1,1 | 1,0,1.9756,1.4111,neutral,right,,,,,,stimulusFile/physical.xlsx,,,,,,,,,,,,,,,,,,,,,,,,,,,,,,,
,,,,,,,,,,,,,,,714,2022-01-28_22h26.17.350,multiplicationStroop,2021.2.3,Win32,153.0690341,,,,,left,1,0.3976,0,31,31,22,1,8,3,8 | 3,5,1.9756,1.4111,congruent,left,,,,,,stimulusFile/physical.xlsx,,,,,,,,,,,,,,,,,,,,,,,,,,,,,,,
,,,,,,,,,,,,,,,714,2022-01-28_22h26.17.350,multiplicationStroop,2021.2.3,Win32,153.0690341,,,,,left,1,0.43,0,32,32,48,1,1,1,1 | 1,0,1.9756,1.4111,neutral,left,,,,,,stimulusFile/physical.xlsx,,,,,,,,,,,,,,,,,,,,,,,,,,,,,,,
,,,,,,,,,,,,,,,714,2022-01-28_22h26.17.350,multiplicationStroop,2021.2.3,Win32,153.0690341,,,,,left,1,0.3806,0,33,33,43,1,4,9,4 | 9,5,1.9756,1.4111,incongruent,left,,,,,,stimulusFile/physical.xlsx,,,,,,,,,,,,,,,,,,,,,,,,,,,,,,,
,,,,,,,,,,,,,,,714,2022-01-28_22h26.17.350,multiplicationStroop,2021.2.3,Win32,153.0690341,,,,,left,1,0.5842,0,34,34,53,1,4,4,4 | 4,0,1.9756,1.4111,neutral,left,,,,,,stimulusFile/physical.xlsx,,,,,,,,,,,,,,,,,,,,,,,,,,,,,,,
,,,,,,,,,,,,,,,714,2022-01-28_22h26.17.350,multiplicationStroop,2021.2.3,Win32,153.0690341,,,,,right,0,0.7132,0,35,35,25,1,3,4,3 | 4,1,1.9756,1.4111,incongruent,left,,,,,,stimulusFile/physical.xlsx,,,,,,,,,,,,,,,,,,,,,,,,,,,,,,,
,,,,,,,,,,,,,,,714,2022-01-28_22h26.17.350,multiplicationStroop,2021.2.3,Win32,153.0690341,,,,,right,1,0.4977,0,36,36,67,1,4,4,4 | 4,0,1.4111,1.9756,neutral,right,,,,,,stimulusFile/physical.xlsx,,,,,,,,,,,,,,,,,,,,,,,,,,,,,,,
,,,,,,,,,,,,,,,714,2022-01-28_22h26.17.350,multiplicationStroop,2021.2.3,Win32,153.0690341,,,,,right,1,0.4433,0,37,37,0,1,1,2,1 | 2,1,1.4111,1.9756,congruent,right,,,,,,stimulusFile/physical.xlsx,,,,,,,,,,,,,,,,,,,,,,,,,,,,,,,
,,,,,,,,,,,,,,,714,2022-01-28_22h26.17.350,multiplicationStroop,2021.2.3,Win32,153.0690341,,,,,left,1,0.3981,0,38,38,49,1,3,3,3 | 3,0,1.9756,1.4111,neutral,left,,,,,,stimulusFile/physical.xlsx,,,,,,,,,,,,,,,,,,,,,,,,,,,,,,,
,,,,,,,,,,,,,,,714,2022-01-28_22h26.17.350,multiplicationStroop,2021.2.3,Win32,153.0690341,,,,,left,1,0.4394,0,39,39,52,1,2,2,2 | 2,0,1.9756,1.4111,neutral,left,,,,,,stimulusFile/physical.xlsx,,,,,,,,,,,,,,,,,,,,,,,,,,,,,,,
,,,,,,,,,,,,,,,714,2022-01-28_22h26.17.350,multiplicationStroop,2021.2.3,Win32,153.0690341,,,,,right,1,0.3943,0,40,40,16,1,1,6,1 | 6,5,1.4111,1.9756,congruent,right,,,,,,stimulusFile/physical.xlsx,,,,,,,,,,,,,,,,,,,,,,,,,,,,,,,
,,,,,,,,,,,,,,,714,2022-01-28_22h26.17.350,multiplicationStroop,2021.2.3,Win32,153.0690341,,,,,right,1,0.4081,0,41,41,1,1,3,4,3 | 4,1,1.4111,1.9756,congruent,right,,,,,,stimulusFile/physical.xlsx,,,,,,,,,,,,,,,,,,,,,,,,,,,,,,,
,,,,,,,,,,,,,,,714,2022-01-28_22h26.17.350,multiplicationStroop,2021.2.3,Win32,153.0690341,,,,,left,1,0.4565,0,42,42,50,1,6,6,6 | 6,0,1.9756,1.4111,neutral,left,,,,,,stimulusFile/physical.xlsx,,,,,,,,,,,,,,,,,,,,,,,,,,,,,,,
,,,,,,,,,,,,,,,714,2022-01-28_22h26.17.350,multiplicationStroop,2021.2.3,Win32,153.0690341,,,,,left,1,0.5685,0,43,43,54,1,7,7,7 | 7,0,1.9756,1.4111,neutral,left,,,,,,stimulusFile/physical.xlsx,,,,,,,,,,,,,,,,,,,,,,,,,,,,,,,
,,,,,,,,,,,,,,,714,2022-01-28_22h26.17.350,multiplicationStroop,2021.2.3,Win32,153.0690341,,,,,right,1,0.4138,0,44,44,56,1,1,1,1 | 1,0,1.4111,1.9756,neutral,right,,,,,,stimulusFile/physical.xlsx,,,,,,,,,,,,,,,,,,,,,,,,,,,,,,,
,,,,,,,,,,,,,,,714,2022-01-28_22h26.17.350,multiplicationStroop,2021.2.3,Win32,153.0690341,,,,,right,1,0.4502,0,45,45,17,1,2,7,2 | 7,5,1.4111,1.9756,congruent,right,,,,,,stimulusFile/physical.xlsx,,,,,,,,,,,,,,,,,,,,,,,,,,,,,,,
,,,,,,,,,,,,,,,714,2022-01-28_22h26.17.350,multiplicationStroop,2021.2.3,Win32,153.0690341,,,,,left,0,0.4189,0,46,46,28,1,2,1,2 | 1,1,1.4111,1.9756,incongruent,right,,,,,,stimulusFile/physical.xlsx,,,,,,,,,,,,,,,,,,,,,,,,,,,,,,,
,,,,,,,,,,,,,,,714,2022-01-28_22h26.17.350,multiplicationStroop,2021.2.3,Win32,153.0690341,,,,,left,1,0.5389,0,47,47,15,1,9,7,9 | 7,2,1.9756,1.4111,congruent,left,,,,,,stimulusFile/physical.xlsx,,,,,,,,,,,,,,,,,,,,,,,,,,,,,,,
,,,,,,,,,,,,,,,714,2022-01-28_22h26.17.350,multiplicationStroop,2021.2.3,Win32,153.0690341,,,,,right,1,0.5485,0,48,48,46,1,8,3,8 | 3,5,1.4111,1.9756,incongruent,right,,,,,,stimulusFile/physical.xlsx,,,,,,,,,,,,,,,,,,,,,,,,,,,,,,,
,,,,,,,,,,,,,,,714,2022-01-28_22h26.17.350,multiplicationStroop,2021.2.3,Win32,153.0690341,,,,,right,1,0.5189,0,49,49,45,1,7,2,7 | 2,5,1.4111,1.9756,incongruent,right,,,,,,stimulusFile/physical.xlsx,,,,,,,,,,,,,,,,,,,,,,,,,,,,,,,
,,,,,,,,,,,,,,,714,2022-01-28_22h26.17.350,multiplicationStroop,2021.2.3,Win32,153.0690341,,,,,right,1,0.4377,0,50,50,47,1,9,4,9 | 4,5,1.4111,1.9756,incongruent,right,,,,,,stimulusFile/physical.xlsx,,,,,,,,,,,,,,,,,,,,,,,,,,,,,,,
,,,,,,,,,,,,,,,714,2022-01-28_22h26.17.350,multiplicationStroop,2021.2.3,Win32,153.0690341,,,,,left,1,0.4094,0,51,51,23,1,9,4,9 | 4,5,1.9756,1.4111,congruent,left,,,,,,stimulusFile/physical.xlsx,,,,,,,,,,,,,,,,,,,,,,,,,,,,,,,
,,,,,,,,,,,,,,,714,2022-01-28_22h26.17.350,multiplicationStroop,2021.2.3,Win32,153.0690341,,,,,left,1,0.4328,0,52,52,12,1,3,1,3 | 1,2,1.9756,1.4111,congruent,left,,,,,,stimulusFile/physical.xlsx,,,,,,,,,,,,,,,,,,,,,,,,,,,,,,,
,,,,,,,,,,,,,,,714,2022-01-28_22h26.17.350,multiplicationStroop,2021.2.3,Win32,153.0690341,,,,,right,1,0.3526,0,53,53,2,1,6,7,6 | 7,1,1.4111,1.9756,congruent,right,,,,,,stimulusFile/physical.xlsx,,,,,,,,,,,,,,,,,,,,,,,,,,,,,,,
,,,,,,,,,,,,,,,714,2022-01-28_22h26.17.350,multiplicationStroop,2021.2.3,Win32,153.0690341,,,,,left,1,0.3946,0,54,54,13,1,4,2,4 | 2,2,1.9756,1.4111,congruent,left,,,,,,stimulusFile/physical.xlsx,,,,,,,,,,,,,,,,,,,,,,,,,,,,,,,
,,,,,,,,,,,,,,,714,2022-01-28_22h26.17.350,multiplicationStroop,2021.2.3,Win32,153.0690341,,,,,right,1,0.6182,0,55,55,59,1,7,7,7 | 7,0,1.4111,1.9756,neutral,right,,,,,,stimulusFile/physical.xlsx,,,,,,,,,,,,,,,,,,,,,,,,,,,,,,,
,,,,,,,,,,,,,,,714,2022-01-28_22h26.17.350,multiplicationStroop,2021.2.3,Win32,153.0690341,,,,,right,1,0.487,0,56,56,57,1,2,2,2 | 2,0,1.4111,1.9756,neutral,right,,,,,,stimulusFile/physical.xlsx,,,,,,,,,,,,,,,,,,,,,,,,,,,,,,,
,,,,,,,,,,,,,,,714,2022-01-28_22h26.17.350,multiplicationStroop,2021.2.3,Win32,153.0690341,,,,,left,1,0.8683,0,57,57,35,1,7,9,7 | 9,2,1.9756,1.4111,incongruent,left,,,,,,stimulusFile/physical.xlsx,,,,,,,,,,,,,,,,,,,,,,,,,,,,,,,
,,,,,,,,,,,,,,,714,2022-01-28_22h26.17.350,multiplicationStroop,2021.2.3,Win32,153.0690341,,,,,right,1,0.5299,0,58,58,29,1,4,3,4 | 3,1,1.4111,1.9756,incongruent,right,,,,,,stimulusFile/physical.xlsx,,,,,,,,,,,,,,,,,,,,,,,,,,,,,,,
,,,,,,,,,,,,,,,714,2022-01-28_22h26.17.350,multiplicationStroop,2021.2.3,Win32,153.0690341,,,,,right,1,0.4303,0,59,59,63,1,9,9,9 | 9,0,1.4111,1.9756,neutral,right,,,,,,stimulusFile/physical.xlsx,,,,,,,,,,,,,,,,,,,,,,,,,,,,,,,
,,,,,,,,,,,,,,,714,2022-01-28_22h26.17.350,multiplicationStroop,2021.2.3,Win32,153.0690341,,,,,right,1,0.4151,0,60,60,3,1,8,9,8 | 9,1,1.4111,1.9756,congruent,right,,,,,,stimulusFile/physical.xlsx,,,,,,,,,,,,,,,,,,,,,,,,,,,,,,,
,,,,,,,,,,,,,,,714,2022-01-28_22h26.17.350,multiplicationStroop,2021.2.3,Win32,153.0690341,,,,,left,1,0.3818,0,61,61,7,1,9,8,9 | 8,1,1.9756,1.4111,congruent,left,,,,,,stimulusFile/physical.xlsx,,,,,,,,,,,,,,,,,,,,,,,,,,,,,,,
,,,,,,,,,,,,,,,714,2022-01-28_22h26.17.350,multiplicationStroop,2021.2.3,Win32,153.0690341,,,,,right,1,0.3558,0,62,62,8,1,1,3,1 | 3,2,1.4111,1.9756,congruent,right,,,,,,stimulusFile/physical.xlsx,,,,,,,,,,,,,,,,,,,,,,,,,,,,,,,
,,,,,,,,,,,,,,,714,2022-01-28_22h26.17.350,multiplicationStroop,2021.2.3,Win32,153.0690341,,,,,right,0,0.4369,0,63,63,69,1,7,7,7 | 7,0,1.4111,1.9756,neutral,left,,,,,,stimulusFile/physical.xlsx,,,,,,,,,,,,,,,,,,,,,,,,,,,,,,,
,,,,,,,,,,,,,,,714,2022-01-28_22h26.17.350,multiplicationStroop,2021.2.3,Win32,153.0690341,,,,,left,1,0.5502,0,64,64,32,1,1,3,1 | 3,2,1.9756,1.4111,incongruent,left,,,,,,stimulusFile/physical.xlsx,,,,,,,,,,,,,,,,,,,,,,,,,,,,,,,
,,,,,,,,,,,,,,,714,2022-01-28_22h26.17.350,multiplicationStroop,2021.2.3,Win32,153.0690341,,,,,right,1,0.4727,0,65,65,61,1,4,4,4 | 4,0,1.4111,1.9756,neutral,right,,,,,,stimulusFile/physical.xlsx,,,,,,,,,,,,,,,,,,,,,,,,,,,,,,,
,,,,,,,,,,,,,,,714,2022-01-28_22h26.17.350,multiplicationStroop,2021.2.3,Win32,153.0690341,,,,,left,1,0.3885,0,66,66,41,1,2,7,2 | 7,5,1.9756,1.4111,incongruent,left,,,,,,stimulusFile/physical.xlsx,,,,,,,,,,,,,,,,,,,,,,,,,,,,,,,
,,,,,,,,,,,,,,,714,2022-01-28_22h26.17.350,multiplicationStroop,2021.2.3,Win32,153.0690341,,,,,right,0,0.4495,0,67,67,71,1,9,9,9 | 9,0,1.4111,1.9756,neutral,left,,,,,,stimulusFile/physical.xlsx,,,,,,,,,,,,,,,,,,,,,,,,,,,,,,,
,,,,,,,,,,,,,,,714,2022-01-28_22h26.17.350,multiplicationStroop,2021.2.3,Win32,153.0690341,,,,,right,1,0.3741,0,68,68,39,1,9,7,9 | 7,2,1.4111,1.9756,incongruent,right,,,,,,stimulusFile/physical.xlsx,,,,,,,,,,,,,,,,,,,,,,,,,,,,,,,
,,,,,,,,,,,,,,,714,2022-01-28_22h26.17.350,multiplicationStroop,2021.2.3,Win32,153.0690341,,,,,left,1,0.3778,0,69,69,26,1,6,7,6 | 7,1,1.9756,1.4111,incongruent,left,,,,,,stimulusFile/physical.xlsx,,,,,,,,,,,,,,,,,,,,,,,,,,,,,,,
,,,,,,,,,,,,,,,714,2022-01-28_22h26.17.350,multiplicationStroop,2021.2.3,Win32,153.0690341,,,,,left,1,0.5332,0,70,70,27,1,8,9,8 | 9,1,1.9756,1.4111,incongruent,left,,,,,,stimulusFile/physical.xlsx,,,,,,,,,,,,,,,,,,,,,,,,,,,,,,,
,,,,,,,,,,,,,,,714,2022-01-28_22h26.17.350,multiplicationStroop,2021.2.3,Win32,153.0690341,,,,,left,1,0.3976,0,71,71,34,1,6,8,6 | 8,2,1.9756,1.4111,incongruent,left,,,,,,stimulusFile/physical.xlsx,,,,,,,,,,,,,,,,,,,,,,,,,,,,,,,
,,,,,,,,,,,,,,,714,2022-01-28_22h26.17.350,multiplicationStroop,2021.2.3,Win32,153.0690341,,,,,,,,,,,,,,,,,,,,,0,1,1,1,1,stimulusFile/physical.xlsx,PHYSICALLY larger (larger font size).,images/physicallyLarger.png,,,,,,,,,,,,,,,,,,,,,,,,,,,,,
,,,,,,,,,,,,,,,714,2022-01-28_22h26.17.350,multiplicationStroop,2021.2.3,Win32,153.0690341,,,,,,,,,,,,,,,,,,,,,,,,,,,,,space,12.8843,space,3.3642,21,1.2555,1,0,0,0,12,1,3,×,7,3 × 7,incongruent,smallerFirst,2,1,21,,,,,,,,
,,,,,,,,,,,,,,,714,2022-01-28_22h26.17.350,multiplicationStroop,2021.2.3,Win32,153.0690341,,,,,,,,,,,,,,,,,,,,,,,,,,,,,,,,,30,1.3806,1,0,1,1,11,1,5,×,6,5 × 6,incongruent,smallerFirst,2,1,30,,,,,,,,
,,,,,,,,,,,,,,,714,2022-01-28_22h26.17.350,multiplicationStroop,2021.2.3,Win32,153.0690341,,,,,,,,,,,,,,,,,,,,,,,,,,,,,,,,,4,1.4017,1,0,2,2,28,1,2,×,2,2 × 2,neutral,tie,2,1,4,,,,,,,,
,,,,,,,,,,,,,,,714,2022-01-28_22h26.17.350,multiplicationStroop,2021.2.3,Win32,153.0690341,,,,,,,,,,,,,,,,,,,,,,,,,,,,,,,,,9,1.6997,1,0,3,3,29,1,3,×,3,3 × 3,neutral,tie,2,1,9,,,,,,,,
,,,,,,,,,,,,,,,714,2022-01-28_22h26.17.350,multiplicationStroop,2021.2.3,Win32,153.0690341,,,,,,,,,,,,,,,,,,,,,,,,,,,,,,,,,15,1.8886,1,0,4,4,24,1,5,×,3,5 × 3,incongruent,largerFirst,1,2,15,,,,,,,,
,,,,,,,,,,,,,,,714,2022-01-28_22h26.17.350,multiplicationStroop,2021.2.3,Win32,153.0690341,,,,,,,,,,,,,,,,,,,,,,,,,,,,,,,,,24,1.3098,1,0,5,5,23,1,8,×,3,8 × 3,incongruent,largerFirst,1,2,24,,,,,,,,
,,,,,,,,,,,,,,,714,2022-01-28_22h26.17.350,multiplicationStroop,2021.2.3,Win32,153.0690341,,,,,,,,,,,,,,,,,,,,,,,,,,,,,,,,,16,1.3802,1,0,6,6,9,1,2,×,8,2 × 8,incongruent,smallerFirst,2,1,16,,,,,,,,
,,,,,,,,,,,,,,,714,2022-01-28_22h26.17.350,multiplicationStroop,2021.2.3,Win32,153.0690341,,,,,,,,,,,,,,,,,,,,,,,,,,,,,,,,,10,1.2906,1,0,7,7,7,1,2,×,5,2 × 5,incongruent,smallerFirst,2,1,10,,,,,,,,
,,,,,,,,,,,,,,,714,2022-01-28_22h26.17.350,multiplicationStroop,2021.2.3,Win32,153.0690341,,,,,,,,,,,,,,,,,,,,,,,,,,,,,,,,,64,1.935,1,0,8,8,34,1,8,×,8,8 × 8,neutral,tie,2,1,64,,,,,,,,
,,,,,,,,,,,,,,,714,2022-01-28_22h26.17.350,multiplicationStroop,2021.2.3,Win32,153.0690341,,,,,,,,,,,,,,,,,,,,,,,,,,,,,,,,,36,1.5615,1,0,9,9,32,1,6,×,6,6 × 6,neutral,tie,2,1,36,,,,,,,,
,,,,,,,,,,,,,,,714,2022-01-28_22h26.17.350,multiplicationStroop,2021.2.3,Win32,153.0690341,,,,,,,,,,,,,,,,,,,,,,,,,,,,,,,,,18,2.2818,1,0,10,10,22,1,6,×,3,6 × 3,incongruent,largerFirst,1,2,18,,,,,,,,
,,,,,,,,,,,,,,,714,2022-01-28_22h26.17.350,multiplicationStroop,2021.2.3,Win32,153.0690341,,,,,,,,,,,,,,,,,,,,,,,,,,,,,,,,,166,1.568,0,0,11,11,30,1,4,×,4,4 × 4,neutral,tie,2,1,16,,,,,,,,
,,,,,,,,,,,,,,,714,2022-01-28_22h26.17.350,multiplicationStroop,2021.2.3,Win32,153.0690341,,,,,,,,,,,,,,,,,,,,,,,,,,,,,,,,,81,1.8388,1,0,12,12,35,1,9,×,9,9 × 9,neutral,tie,2,1,81,,,,,,,,
,,,,,,,,,,,,,,,714,2022-01-28_22h26.17.350,multiplicationStroop,2021.2.3,Win32,153.0690341,,,,,,,,,,,,,,,,,,,,,,,,,,,,,,,,,12,1.1653,1,0,13,13,19,1,4,×,3,4 × 3,incongruent,largerFirst,1,2,12,,,,,,,,
,,,,,,,,,,,,,,,714,2022-01-28_22h26.17.350,multiplicationStroop,2021.2.3,Win32,153.0690341,,,,,,,,,,,,,,,,,,,,,,,,,,,,,,,,,48,1.8803,1,0,14,14,15,1,8,×,6,8 × 6,incongruent,largerFirst,1,2,48,,,,,,,,
,,,,,,,,,,,,,,,714,2022-01-28_22h26.17.350,multiplicationStroop,2021.2.3,Win32,153.0690341,,,,,,,,,,,,,,,,,,,,,,,,,,,,,,,,,35,1.3113,1,0,15,15,26,1,7,×,5,7 × 5,incongruent,largerFirst,1,2,35,,,,,,,,
,,,,,,,,,,,,,,,714,2022-01-28_22h26.17.350,multiplicationStroop,2021.2.3,Win32,153.0690341,,,,,,,,,,,,,,,,,,,,,,,,,,,,,,,,,72,1.3875,1,0,16,16,14,1,9,×,8,9 × 8,incongruent,largerFirst,1,2,72,,,,,,,,
,,,,,,,,,,,,,,,714,2022-01-28_22h26.17.350,multiplicationStroop,2021.2.3,Win32,153.0690341,,,,,,,,,,,,,,,,,,,,,,,,,,,,,,,,,20,1.7554,1,0,17,17,13,1,4,×,5,4 × 5,incongruent,smallerFirst,2,1,20,,,,,,,,
,,,,,,,,,,,,,,,714,2022-01-28_22h26.17.350,multiplicationStroop,2021.2.3,Win32,153.0690341,,,,,,,,,,,,,,,,,,,,,,,,,,,,,,,,,8,1.554,1,0,18,18,10,1,2,×,4,2 × 4,incongruent,smallerFirst,2,1,8,,,,,,,,
,,,,,,,,,,,,,,,714,2022-01-28_22h26.17.350,multiplicationStroop,2021.2.3,Win32,153.0690341,,,,,,,,,,,,,,,,,,,,,,,,,,,,,,,,,21,1.2137,0,0,19,19,2,1,4,×,7,4 × 7,incongruent,smallerFirst,2,1,28,,,,,,,,
,,,,,,,,,,,,,,,714,2022-01-28_22h26.17.350,multiplicationStroop,2021.2.3,Win32,153.0690341,,,,,,,,,,,,,,,,,,,,,,,,,,,,,,,,,18,1.3804,1,0,20,20,16,1,9,×,2,9 × 2,incongruent,largerFirst,1,2,18,,,,,,,,
,,,,,,,,,,,,,,,714,2022-01-28_22h26.17.350,multiplicationStroop,2021.2.3,Win32,153.0690341,,,,,,,,,,,,,,,,,,,,,,,,,,,,,,,,,63,1.8596,1,0,21,21,17,1,9,×,7,9 × 7,incongruent,largerFirst,1,2,63,,,,,,,,
,,,,,,,,,,,,,,,714,2022-01-28_22h26.17.350,multiplicationStroop,2021.2.3,Win32,153.0690341,,,,,,,,,,,,,,,,,,,,,,,,,,,,,,,,,40,1.2904,1,0,22,22,27,1,8,×,5,8 × 5,incongruent,largerFirst,1,2,40,,,,,,,,
,,,,,,,,,,,,,,,714,2022-01-28_22h26.17.350,multiplicationStroop,2021.2.3,Win32,153.0690341,,,,,,,,,,,,,,,,,,,,,,,,,,,,,,,,,32,1.2346,1,0,23,23,21,1,8,×,4,8 × 4,incongruent,largerFirst,1,2,32,,,,,,,,
,,,,,,,,,,,,,,,714,2022-01-28_22h26.17.350,multiplicationStroop,2021.2.3,Win32,153.0690341,,,,,,,,,,,,,,,,,,,,,,,,,,,,,,,,,46,2.2412,0,0,24,24,8,1,5,×,9,5 × 9,incongruent,smallerFirst,2,1,45,,,,,,,,
,,,,,,,,,,,,,,,714,2022-01-28_22h26.17.350,multiplicationStroop,2021.2.3,Win32,153.0690341,,,,,,,,,,,,,,,,,,,,,,,,,,,,,,,,,6,1.3116,1,0,25,25,25,1,3,×,2,3 × 2,incongruent,largerFirst,1,2,6,,,,,,,,
,,,,,,,,,,,,,,,714,2022-01-28_22h26.17.350,multiplicationStroop,2021.2.3,Win32,153.0690341,,,,,,,,,,,,,,,,,,,,,,,,,,,,,,,,,12,1.2829,1,0,26,26,5,1,2,×,6,2 × 6,incongruent,smallerFirst,2,1,12,,,,,,,,
,,,,,,,,,,,,,,,714,2022-01-28_22h26.17.350,multiplicationStroop,2021.2.3,Win32,153.0690341,,,,,,,,,,,,,,,,,,,,,,,,,,,,,,,,,42,1.7902,1,0,27,27,3,1,6,×,7,6 × 7,incongruent,smallerFirst,2,1,42,,,,,,,,
,,,,,,,,,,,,,,,714,2022-01-28_22h26.17.350,multiplicationStroop,2021.2.3,Win32,153.0690341,,,,,,,,,,,,,,,,,,,,,,,,,,,,,,,,,27,1.8458,1,0,28,28,4,1,3,×,9,3 × 9,incongruent,smallerFirst,2,1,27,,,,,,,,
,,,,,,,,,,,,,,,714,2022-01-28_22h26.17.350,multiplicationStroop,2021.2.3,Win32,153.0690341,,,,,,,,,,,,,,,,,,,,,,,,,,,,,,,,,14,1.2276,1,0,29,29,18,1,7,×,2,7 × 2,incongruent,largerFirst,1,2,14,,,,,,,,
,,,,,,,,,,,,,,,714,2022-01-28_22h26.17.350,multiplicationStroop,2021.2.3,Win32,153.0690341,,,,,,,,,,,,,,,,,,,,,,,,,,,,,,,,,24,1.2417,1,0,30,30,6,1,4,×,6,4 × 6,incongruent,smallerFirst,2,1,24,,,,,,,,
,,,,,,,,,,,,,,,714,2022-01-28_22h26.17.350,multiplicationStroop,2021.2.3,Win32,153.0690341,,,,,,,,,,,,,,,,,,,,,,,,,,,,,,,,,36,1.7551,1,0,31,31,1,1,4,×,9,4 × 9,incongruent,smallerFirst,2,1,36,,,,,,,,
,,,,,,,,,,,,,,,714,2022-01-28_22h26.17.350,multiplicationStroop,2021.2.3,Win32,153.0690341,,,,,,,,,,,,,,,,,,,,,,,,,,,,,,,,,25,1.3602,1,0,32,32,31,1,5,×,5,5 × 5,neutral,tie,2,1,25,,,,,,,,
,,,,,,,,,,,,,,,714,2022-01-28_22h26.17.350,multiplicationStroop,2021.2.3,Win32,153.0690341,,,,,,,,,,,,,,,,,,,,,,,,,,,,,,,,,54,1.7344,1,0,33,33,20,1,9,×,6,9 × 6,incongruent,largerFirst,1,2,54,,,,,,,,
,,,,,,,,,,,,,,,714,2022-01-28_22h26.17.350,multiplicationStroop,2021.2.3,Win32,153.0690341,,,,,,,,,,,,,,,,,,,,,,,,,,,,,,,,,56,3.0112,1,0,34,34,0,1,7,×,8,7 × 8,incongruent,smallerFirst,2,1,56,,,,,,,,
,,,,,,,,,,,,,,,714,2022-01-28_22h26.17.350,multiplicationStroop,2021.2.3,Win32,153.0690341,,,,,,,,,,,,,,,,,,,,,,,,,,,,,,,,,49,1.4795,1,0,35,35,33,1,7,×,7,7 × 7,neutral,tie,2,1,49,,,,,,,,
,,,,,,,,,,,,,,,714,2022-01-28_22h26.17.350,multiplicationStroop,2021.2.3,Win32,153.0690341,,,,,,,,,,,,,,,,,,,,,,,,,,,,,,,,,,,,,,,,,,,,,,,,,,0,0,0,4,1,stimulusFile/mult_blk5_INcongruent.xlsx,,
,,,,,,,,,,,,,,,714,2022-01-28_22h26.17.350,multiplicationStroop,2021.2.3,Win32,153.0690341,,,,,,,,,,,,,,,,,,,,,,,,,,,,,,,space,2.2324,6,1.3033,1,0,0,0,27,1,3,×,2,3 × 2,congruent,largerFirst,2,1,6,,,,,,,,
,,,,,,,,,,,,,,,714,2022-01-28_22h26.17.350,multiplicationStroop,2021.2.3,Win32,153.0690341,,,,,,,,,,,,,,,,,,,,,,,,,,,,,,,,,21,1.1581,1,0,1,1,2,1,3,×,7,3 × 7,congruent,smallerFirst,1,2,21,,,,,,,,
,,,,,,,,,,,,,,,714,2022-01-28_22h26.17.350,multiplicationStroop,2021.2.3,Win32,153.0690341,,,,,,,,,,,,,,,,,,,,,,,,,,,,,,,,,36,1.5195,1,0,2,2,32,1,6,×,6,6 × 6,neutral,tie,1,2,36,,,,,,,,
,,,,,,,,,,,,,,,714,2022-01-28_22h26.17.350,multiplicationStroop,2021.2.3,Win32,153.0690341,,,,,,,,,,,,,,,,,,,,,,,,,,,,,,,,,72,1.3737,1,0,3,3,3,1,8,×,9,8 × 9,congruent,smallerFirst,1,2,72,,,,,,,,
,,,,,,,,,,,,,,,714,2022-01-28_22h26.17.350,multiplicationStroop,2021.2.3,Win32,153.0690341,,,,,,,,,,,,,,,,,,,,,,,,,,,,,,,,,14,1.1308,1,0,4,4,0,1,2,×,7,2 × 7,congruent,smallerFirst,1,2,14,,,,,,,,
,,,,,,,,,,,,,,,714,2022-01-28_22h26.17.350,multiplicationStroop,2021.2.3,Win32,153.0690341,,,,,,,,,,,,,,,,,,,,,,,,,,,,,,,,,27,1.4219,1,0,5,5,12,1,3,×,9,3 × 9,congruent,smallerFirst,1,2,27,,,,,,,,
,,,,,,,,,,,,,,,714,2022-01-28_22h26.17.350,multiplicationStroop,2021.2.3,Win32,153.0690341,,,,,,,,,,,,,,,,,,,,,,,,,,,,,,,,,24,1.1935,1,0,6,6,24,1,8,×,3,8 × 3,congruent,largerFirst,2,1,24,,,,,,,,
,,,,,,,,,,,,,,,714,2022-01-28_22h26.17.350,multiplicationStroop,2021.2.3,Win32,153.0690341,,,,,,,,,,,,,,,,,,,,,,,,,,,,,,,,,56,1.4846,1,0,7,7,22,1,8,×,7,8 × 7,congruent,largerFirst,2,1,56,,,,,,,,
,,,,,,,,,,,,,,,714,2022-01-28_22h26.17.350,multiplicationStroop,2021.2.3,Win32,153.0690341,,,,,,,,,,,,,,,,,,,,,,,,,,,,,,,,,28,1.5822,1,0,8,8,13,1,4,×,7,4 × 7,congruent,smallerFirst,1,2,28,,,,,,,,
,,,,,,,,,,,,,,,714,2022-01-28_22h26.17.350,multiplicationStroop,2021.2.3,Win32,153.0690341,,,,,,,,,,,,,,,,,,,,,,,,,,,,,,,,,48,1.4497,1,0,9,9,4,1,6,×,8,6 × 8,congruent,smallerFirst,1,2,48,,,,,,,,
,,,,,,,,,,,,,,,714,2022-01-28_22h26.17.350,multiplicationStroop,2021.2.3,Win32,153.0690341,,,,,,,,,,,,,,,,,,,,,,,,,,,,,,,,,49,1.4218,1,0,10,10,33,1,7,×,7,7 × 7,neutral,tie,1,2,49,,,,,,,,
,,,,,,,,,,,,,,,714,2022-01-28_22h26.17.350,multiplicationStroop,2021.2.3,Win32,153.0690341,,,,,,,,,,,,,,,,,,,,,,,,,,,,,,,,,32,1.686,1,0,11,11,6,1,4,×,8,4 × 8,congruent,smallerFirst,1,2,32,,,,,,,,
,,,,,,,,,,,,,,,714,2022-01-28_22h26.17.350,multiplicationStroop,2021.2.3,Win32,153.0690341,,,,,,,,,,,,,,,,,,,,,,,,,,,,,,,,,63,2.685,1,0,12,12,7,1,7,×,9,7 × 9,congruent,smallerFirst,1,2,63,,,,,,,,
,,,,,,,,,,,,,,,714,2022-01-28_22h26.17.350,multiplicationStroop,2021.2.3,Win32,153.0690341,,,,,,,,,,,,,,,,,,,,,,,,,,,,,,,,,20,1.5761,1,0,13,13,21,1,5,×,4,5 × 4,congruent,largerFirst,2,1,20,,,,,,,,
,,,,,,,,,,,,,,,714,2022-01-28_22h26.17.350,multiplicationStroop,2021.2.3,Win32,153.0690341,,,,,,,,,,,,,,,,,,,,,,,,,,,,,,,,,15,1.0893,1,0,14,14,18,1,5,×,3,5 × 3,congruent,largerFirst,2,1,15,,,,,,,,
,,,,,,,,,,,,,,,714,2022-01-28_22h26.17.350,multiplicationStroop,2021.2.3,Win32,153.0690341,,,,,,,,,,,,,,,,,,,,,,,,,,,,,,,,,18,1.311,1,0,15,15,25,1,6,×,3,6 × 3,congruent,largerFirst,2,1,18,,,,,,,,
,,,,,,,,,,,,,,,714,2022-01-28_22h26.17.350,multiplicationStroop,2021.2.3,Win32,153.0690341,,,,,,,,,,,,,,,,,,,,,,,,,,,,,,,,,64,1.6164,1,0,16,16,34,1,8,×,8,8 × 8,neutral,tie,1,2,64,,,,,,,,
,,,,,,,,,,,,,,,714,2022-01-28_22h26.17.350,multiplicationStroop,2021.2.3,Win32,153.0690341,,,,,,,,,,,,,,,,,,,,,,,,,,,,,,,,,12,1.1102,1,0,17,17,5,1,2,×,6,2 × 6,congruent,smallerFirst,1,2,12,,,,,,,,
,,,,,,,,,,,,,,,714,2022-01-28_22h26.17.350,multiplicationStroop,2021.2.3,Win32,153.0690341,,,,,,,,,,,,,,,,,,,,,,,,,,,,,,,,,81,2.4008,1,0,18,18,35,1,9,×,9,9 × 9,neutral,tie,1,2,81,,,,,,,,
,,,,,,,,,,,,,,,714,2022-01-28_22h26.17.350,multiplicationStroop,2021.2.3,Win32,153.0690341,,,,,,,,,,,,,,,,,,,,,,,,,,,,,,,,,36,2.0533,1,0,19,19,14,1,9,×,4,9 × 4,congruent,largerFirst,2,1,36,,,,,,,,
,,,,,,,,,,,,,,,714,2022-01-28_22h26.17.350,multiplicationStroop,2021.2.3,Win32,153.0690341,,,,,,,,,,,,,,,,,,,,,,,,,,,,,,,,,24,1.6589,1,0,20,20,11,1,4,×,6,4 × 6,congruent,smallerFirst,1,2,24,,,,,,,,
,,,,,,,,,,,,,,,714,2022-01-28_22h26.17.350,multiplicationStroop,2021.2.3,Win32,153.0690341,,,,,,,,,,,,,,,,,,,,,,,,,,,,,,,,,12,1.0469,1,0,21,21,16,1,4,×,3,4 × 3,congruent,largerFirst,2,1,12,,,,,,,,
,,,,,,,,,,,,,,,714,2022-01-28_22h26.17.350,multiplicationStroop,2021.2.3,Win32,153.0690341,,,,,,,,,,,,,,,,,,,,,,,,,,,,,,,,,9,1.9286,1,0,22,22,29,1,3,×,3,3 × 3,neutral,tie,1,2,9,,,,,,,,
,,,,,,,,,,,,,,,714,2022-01-28_22h26.17.350,multiplicationStroop,2021.2.3,Win32,153.0690341,,,,,,,,,,,,,,,,,,,,,,,,,,,,,,,,,30,1.6029,1,0,23,23,1,1,5,×,6,5 × 6,congruent,smallerFirst,1,2,30,,,,,,,,
,,,,,,,,,,,,,,,714,2022-01-28_22h26.17.350,multiplicationStroop,2021.2.3,Win32,153.0690341,,,,,,,,,,,,,,,,,,,,,,,,,,,,,,,,,8,1.2691,1,0,24,24,23,1,4,×,2,4 × 2,congruent,largerFirst,2,1,8,,,,,,,,
,,,,,,,,,,,,,,,714,2022-01-28_22h26.17.350,multiplicationStroop,2021.2.3,Win32,153.0690341,,,,,,,,,,,,,,,,,,,,,,,,,,,,,,,,,35,1.367,1,0,25,25,15,1,7,×,5,7 × 5,congruent,largerFirst,2,1,35,,,,,,,,
,,,,,,,,,,,,,,,714,2022-01-28_22h26.17.350,multiplicationStroop,2021.2.3,Win32,153.0690341,,,,,,,,,,,,,,,,,,,,,,,,,,,,,,,,,4,1.0892,1,0,26,26,28,1,2,×,2,2 × 2,neutral,tie,1,2,4,,,,,,,,
,,,,,,,,,,,,,,,714,2022-01-28_22h26.17.350,multiplicationStroop,2021.2.3,Win32,153.0690341,,,,,,,,,,,,,,,,,,,,,,,,,,,,,,,,,16,1.554,1,0,27,27,30,1,4,×,4,4 × 4,neutral,tie,1,2,16,,,,,,,,
,,,,,,,,,,,,,,,714,2022-01-28_22h26.17.350,multiplicationStroop,2021.2.3,Win32,153.0690341,,,,,,,,,,,,,,,,,,,,,,,,,,,,,,,,,40,1.3322,1,0,28,28,20,1,8,×,5,8 × 5,congruent,largerFirst,2,1,40,,,,,,,,
,,,,,,,,,,,,,,,714,2022-01-28_22h26.17.350,multiplicationStroop,2021.2.3,Win32,153.0690341,,,,,,,,,,,,,,,,,,,,,,,,,,,,,,,,,10,1.4918,1,0,29,29,10,1,2,×,5,2 × 5,congruent,smallerFirst,1,2,10,,,,,,,,
,,,,,,,,,,,,,,,714,2022-01-28_22h26.17.350,multiplicationStroop,2021.2.3,Win32,153.0690341,,,,,,,,,,,,,,,,,,,,,,,,,,,,,,,,,18,1.3246,1,0,30,30,8,1,2,×,9,2 × 9,congruent,smallerFirst,1,2,18,,,,,,,,
,,,,,,,,,,,,,,,714,2022-01-28_22h26.17.350,multiplicationStroop,2021.2.3,Win32,153.0690341,,,,,,,,,,,,,,,,,,,,,,,,,,,,,,,,,45,1.2763,1,0,31,31,9,1,5,×,9,5 × 9,congruent,smallerFirst,1,2,45,,,,,,,,
,,,,,,,,,,,,,,,714,2022-01-28_22h26.17.350,multiplicationStroop,2021.2.3,Win32,153.0690341,,,,,,,,,,,,,,,,,,,,,,,,,,,,,,,,,25,1.1723,1,0,32,32,31,1,5,×,5,5 × 5,neutral,tie,1,2,25,,,,,,,,
,,,,,,,,,,,,,,,714,2022-01-28_22h26.17.350,multiplicationStroop,2021.2.3,Win32,153.0690341,,,,,,,,,,,,,,,,,,,,,,,,,,,,,,,,,42,1.3385,1,0,33,33,17,1,7,×,6,7 × 6,congruent,largerFirst,2,1,42,,,,,,,,
,,,,,,,,,,,,,,,714,2022-01-28_22h26.17.350,multiplicationStroop,2021.2.3,Win32,153.0690341,,,,,,,,,,,,,,,,,,,,,,,,,,,,,,,,,16,1.2697,1,0,34,34,19,1,8,×,2,8 × 2,congruent,largerFirst,2,1,16,,,,,,,,
,,,,,,,,,,,,,,,714,2022-01-28_22h26.17.350,multiplicationStroop,2021.2.3,Win32,153.0690341,,,,,,,,,,,,,,,,,,,,,,,,,,,,,,,,,54,1.394,1,0,35,35,26,1,9,×,6,9 × 6,congruent,largerFirst,2,1,54,,,,,,,,
,,,,,,,,,,,,,,,714,2022-01-28_22h26.17.350,multiplicationStroop,2021.2.3,Win32,153.0690341,,,,,,,,,,,,,,,,,,,,,,,,,,,,,,,,,,,,,,,,,,,,,,,,,,0,1,1,3,1,stimulusFile/mult_blk4_congruent.xlsx,,
,,,,,,,,,,,,,,,714,2022-01-28_22h26.17.350,multiplicationStroop,2021.2.3,Win32,153.0690341,,,,,,,,,,,,,,,,,,,,,,,,,,,,,,,space,9.4106,20,1.5064,1,0,0,0,7,1,4,×,5,4 × 5,congruent,smallerFirst,1,2,20,,,,,,,,
,,,,,,,,,,,,,,,714,2022-01-28_22h26.17.350,multiplicationStroop,2021.2.3,Win32,153.0690341,,,,,,,,,,,,,,,,,,,,,,,,,,,,,,,,,4,1.082,1,0,1,1,28,1,2,×,2,2 × 2,neutral,tie,2,1,4,,,,,,,,
,,,,,,,,,,,,,,,714,2022-01-28_22h26.17.350,multiplicationStroop,2021.2.3,Win32,153.0690341,,,,,,,,,,,,,,,,,,,,,,,,,,,,,,,,,15,1.7834,1,0,2,2,4,1,3,×,5,3 × 5,congruent,smallerFirst,1,2,15,,,,,,,,
,,,,,,,,,,,,,,,714,2022-01-28_22h26.17.350,multiplicationStroop,2021.2.3,Win32,153.0690341,,,,,,,,,,,,,,,,,,,,,,,,,,,,,,,,,187,3.0875,0,0,3,3,11,1,3,×,6,3 × 6,congruent,smallerFirst,1,2,18,,,,,,,,
,,,,,,,,,,,,,,,714,2022-01-28_22h26.17.350,multiplicationStroop,2021.2.3,Win32,153.0690341,,,,,,,,,,,,,,,,,,,,,,,,,,,,,,,,,27,1.5891,1,0,4,4,26,1,9,×,3,9 × 3,congruent,largerFirst,2,1,27,,,,,,,,
,,,,,,,,,,,,,,,714,2022-01-28_22h26.17.350,multiplicationStroop,2021.2.3,Win32,153.0690341,,,,,,,,,,,,,,,,,,,,,,,,,,,,,,,,,12,1.1929,1,0,5,5,19,1,6,×,2,6 × 2,congruent,largerFirst,2,1,12,,,,,,,,
,,,,,,,,,,,,,,,714,2022-01-28_22h26.17.350,multiplicationStroop,2021.2.3,Win32,153.0690341,,,,,,,,,,,,,,,,,,,,,,,,,,,,,,,,,32,1.2215,1,0,6,6,20,1,8,×,4,8 × 4,congruent,largerFirst,2,1,32,,,,,,,,
,,,,,,,,,,,,,,,714,2022-01-28_22h26.17.350,multiplicationStroop,2021.2.3,Win32,153.0690341,,,,,,,,,,,,,,,,,,,,,,,,,,,,,,,,,36,1.4492,1,0,7,7,0,1,4,×,9,4 × 9,congruent,smallerFirst,1,2,36,,,,,,,,
,,,,,,,,,,,,,,,714,2022-01-28_22h26.17.350,multiplicationStroop,2021.2.3,Win32,153.0690341,,,,,,,,,,,,,,,,,,,,,,,,,,,,,,,,,12,1.3679,1,0,8,8,2,1,3,×,4,3 × 4,congruent,smallerFirst,1,2,12,,,,,,,,
,,,,,,,,,,,,,,,714,2022-01-28_22h26.17.350,multiplicationStroop,2021.2.3,Win32,153.0690341,,,,,,,,,,,,,,,,,,,,,,,,,,,,,,,,,21,1.2959,1,0,9,9,16,1,7,×,3,7 × 3,congruent,largerFirst,2,1,21,,,,,,,,
,,,,,,,,,,,,,,,714,2022-01-28_22h26.17.350,multiplicationStroop,2021.2.3,Win32,153.0690341,,,,,,,,,,,,,,,,,,,,,,,,,,,,,,,,,24,1.3528,1,0,10,10,25,1,6,×,4,6 × 4,congruent,largerFirst,2,1,24,,,,,,,,
,,,,,,,,,,,,,,,714,2022-01-28_22h26.17.350,multiplicationStroop,2021.2.3,Win32,153.0690341,,,,,,,,,,,,,,,,,,,,,,,,,,,,,,,,,48,2.6228,1,0,11,11,18,1,8,×,6,8 × 6,congruent,largerFirst,2,1,48,,,,,,,,
,,,,,,,,,,,,,,,714,2022-01-28_22h26.17.350,multiplicationStroop,2021.2.3,Win32,153.0690341,,,,,,,,,,,,,,,,,,,,,,,,,,,,,,,,,16,1.5471,1,0,12,12,5,1,2,×,8,2 × 8,congruent,smallerFirst,1,2,16,,,,,,,,
,,,,,,,,,,,,,,,714,2022-01-28_22h26.17.350,multiplicationStroop,2021.2.3,Win32,153.0690341,,,,,,,,,,,,,,,,,,,,,,,,,,,,,,,,,56,1.9425,1,0,13,13,8,1,7,×,8,7 × 8,congruent,smallerFirst,1,2,56,,,,,,,,
,,,,,,,,,,,,,,,714,2022-01-28_22h26.17.350,multiplicationStroop,2021.2.3,Win32,153.0690341,,,,,,,,,,,,,,,,,,,,,,,,,,,,,,,,,45,1.449,1,0,14,14,23,1,9,×,5,9 × 5,congruent,largerFirst,2,1,45,,,,,,,,
,,,,,,,,,,,,,,,714,2022-01-28_22h26.17.350,multiplicationStroop,2021.2.3,Win32,153.0690341,,,,,,,,,,,,,,,,,,,,,,,,,,,,,,,,,8,1.9422,1,0,15,15,9,1,2,×,4,2 × 4,congruent,smallerFirst,1,2,8,,,,,,,,
,,,,,,,,,,,,,,,714,2022-01-28_22h26.17.350,multiplicationStroop,2021.2.3,Win32,153.0690341,,,,,,,,,,,,,,,,,,,,,,,,,,,,,,,,,14,1.4017,1,0,16,16,14,1,7,×,2,7 × 2,congruent,largerFirst,2,1,14,,,,,,,,
,,,,,,,,,,,,,,,714,2022-01-28_22h26.17.350,multiplicationStroop,2021.2.3,Win32,153.0690341,,,,,,,,,,,,,,,,,,,,,,,,,,,,,,,,,63,2.3241,1,0,17,17,21,1,9,×,7,9 × 7,congruent,largerFirst,2,1,63,,,,,,,,
,,,,,,,,,,,,,,,714,2022-01-28_22h26.17.350,multiplicationStroop,2021.2.3,Win32,153.0690341,,,,,,,,,,,,,,,,,,,,,,,,,,,,,,,,,6,1.2715,1,0,18,18,13,1,2,×,3,2 × 3,congruent,smallerFirst,1,2,6,,,,,,,,
,,,,,,,,,,,,,,,714,2022-01-28_22h26.17.350,multiplicationStroop,2021.2.3,Win32,153.0690341,,,,,,,,,,,,,,,,,,,,,,,,,,,,,,,,,9,1.7483,1,0,19,19,29,1,3,×,3,3 × 3,neutral,tie,2,1,9,,,,,,,,
,,,,,,,,,,,,,,,714,2022-01-28_22h26.17.350,multiplicationStroop,2021.2.3,Win32,153.0690341,,,,,,,,,,,,,,,,,,,,,,,,,,,,,,,,,40,1.339,1,0,20,20,6,1,5,×,8,5 × 8,congruent,smallerFirst,1,2,40,,,,,,,,
,,,,,,,,,,,,,,,714,2022-01-28_22h26.17.350,multiplicationStroop,2021.2.3,Win32,153.0690341,,,,,,,,,,,,,,,,,,,,,,,,,,,,,,,,,54,1.7835,1,0,21,21,12,1,6,×,9,6 × 9,congruent,smallerFirst,1,2,54,,,,,,,,
,,,,,,,,,,,,,,,714,2022-01-28_22h26.17.350,multiplicationStroop,2021.2.3,Win32,153.0690341,,,,,,,,,,,,,,,,,,,,,,,,,,,,,,,,,10,1.3453,1,0,22,22,24,1,5,×,2,5 × 2,congruent,largerFirst,2,1,10,,,,,,,,
,,,,,,,,,,,,,,,714,2022-01-28_22h26.17.350,multiplicationStroop,2021.2.3,Win32,153.0690341,,,,,,,,,,,,,,,,,,,,,,,,,,,,,,,,,71,1.3179,0,0,23,23,17,1,9,×,8,9 × 8,congruent,largerFirst,2,1,72,,,,,,,,
,,,,,,,,,,,,,,,714,2022-01-28_22h26.17.350,multiplicationStroop,2021.2.3,Win32,153.0690341,,,,,,,,,,,,,,,,,,,,,,,,,,,,,,,,,35,1.9567,1,0,24,24,1,1,5,×,7,5 × 7,congruent,smallerFirst,1,2,35,,,,,,,,
,,,,,,,,,,,,,,,714,2022-01-28_22h26.17.350,multiplicationStroop,2021.2.3,Win32,153.0690341,,,,,,,,,,,,,,,,,,,,,,,,,,,,,,,,,16,1.4778,1,0,25,25,30,1,4,×,4,4 × 4,neutral,tie,2,1,16,,,,,,,,
,,,,,,,,,,,,,,,714,2022-01-28_22h26.17.350,multiplicationStroop,2021.2.3,Win32,153.0690341,,,,,,,,,,,,,,,,,,,,,,,,,,,,,,,,,28,1.5754,1,0,26,26,27,1,7,×,4,7 × 4,congruent,largerFirst,2,1,28,,,,,,,,
,,,,,,,,,,,,,,,714,2022-01-28_22h26.17.350,multiplicationStroop,2021.2.3,Win32,153.0690341,,,,,,,,,,,,,,,,,,,,,,,,,,,,,,,,,49,1.6437,1,0,27,27,33,1,7,×,7,7 × 7,neutral,tie,2,1,49,,,,,,,,
,,,,,,,,,,,,,,,714,2022-01-28_22h26.17.350,multiplicationStroop,2021.2.3,Win32,153.0690341,,,,,,,,,,,,,,,,,,,,,,,,,,,,,,,,,24,1.2555,1,0,28,28,10,1,3,×,8,3 × 8,congruent,smallerFirst,1,2,24,,,,,,,,
,,,,,,,,,,,,,,,714,2022-01-28_22h26.17.350,multiplicationStroop,2021.2.3,Win32,153.0690341,,,,,,,,,,,,,,,,,,,,,,,,,,,,,,,,,64,1.6861,1,0,29,29,34,1,8,×,8,8 × 8,neutral,tie,2,1,64,,,,,,,,
,,,,,,,,,,,,,,,714,2022-01-28_22h26.17.350,multiplicationStroop,2021.2.3,Win32,153.0690341,,,,,,,,,,,,,,,,,,,,,,,,,,,,,,,,,42,1.304,1,0,30,30,3,1,6,×,7,6 × 7,congruent,smallerFirst,1,2,42,,,,,,,,
,,,,,,,,,,,,,,,714,2022-01-28_22h26.17.350,multiplicationStroop,2021.2.3,Win32,153.0690341,,,,,,,,,,,,,,,,,,,,,,,,,,,,,,,,,36,1.5406,1,0,31,31,32,1,6,×,6,6 × 6,neutral,tie,2,1,36,,,,,,,,
,,,,,,,,,,,,,,,714,2022-01-28_22h26.17.350,multiplicationStroop,2021.2.3,Win32,153.0690341,,,,,,,,,,,,,,,,,,,,,,,,,,,,,,,,,81,1.4216,1,0,32,32,35,1,9,×,9,9 × 9,neutral,tie,2,1,81,,,,,,,,
,,,,,,,,,,,,,,,714,2022-01-28_22h26.17.350,multiplicationStroop,2021.2.3,Win32,153.0690341,,,,,,,,,,,,,,,,,,,,,,,,,,,,,,,,,30,1.5335,1,0,33,33,15,1,6,×,5,6 × 5,congruent,largerFirst,2,1,30,,,,,,,,
,,,,,,,,,,,,,,,714,2022-01-28_22h26.17.350,multiplicationStroop,2021.2.3,Win32,153.0690341,,,,,,,,,,,,,,,,,,,,,,,,,,,,,,,,,25,1.6095,1,0,34,34,31,1,5,×,5,5 × 5,neutral,tie,2,1,25,,,,,,,,
,,,,,,,,,,,,,,,714,2022-01-28_22h26.17.350,multiplicationStroop,2021.2.3,Win32,153.0690341,,,,,,,,,,,,,,,,,,,,,,,,,,,,,,,,,18,1.4574,1,0,35,35,22,1,9,×,2,9 × 2,congruent,largerFirst,2,1,18,,,,,,,,
,,,,,,,,,,,,,,,714,2022-01-28_22h26.17.350,multiplicationStroop,2021.2.3,Win32,153.0690341,,,,,,,,,,,,,,,,,,,,,,,,,,,,,,,,,,,,,,,,,,,,,,,,,,0,2,2,2,1,stimulusFile/mult_blk3_congruent.xlsx,,
,,,,,,,,,,,,,,,714,2022-01-28_22h26.17.350,multiplicationStroop,2021.2.3,Win32,153.0690341,,,,,,,,,,,,,,,,,,,,,,,,,,,,,,,space,14.863,27,1.4139,1,0,0,0,0,1,3,×,9,3 × 9,neutral,smallerFirst,1.5,1.5,27,,,,,,,,
,,,,,,,,,,,,,,,714,2022-01-28_22h26.17.350,multiplicationStroop,2021.2.3,Win32,153.0690341,,,,,,,,,,,,,,,,,,,,,,,,,,,,,,,,,81,1.2762,1,0,1,1,35,1,9,×,9,9 × 9,neutral,tie,1.5,1.5,81,,,,,,,,
,,,,,,,,,,,,,,,714,2022-01-28_22h26.17.350,multiplicationStroop,2021.2.3,Win32,153.0690341,,,,,,,,,,,,,,,,,,,,,,,,,,,,,,,,,64,1.5333,1,0,2,2,34,1,8,×,8,8 × 8,neutral,tie,1.5,1.5,64,,,,,,,,
,,,,,,,,,,,,,,,714,2022-01-28_22h26.17.350,multiplicationStroop,2021.2.3,Win32,153.0690341,,,,,,,,,,,,,,,,,,,,,,,,,,,,,,,,,18,1.2559,1,0,3,3,4,1,2,×,9,2 × 9,neutral,smallerFirst,1.5,1.5,18,,,,,,,,
,,,,,,,,,,,,,,,714,2022-01-28_22h26.17.350,multiplicationStroop,2021.2.3,Win32,153.0690341,,,,,,,,,,,,,,,,,,,,,,,,,,,,,,,,,40,1.401,1,0,4,4,10,1,5,×,8,5 × 8,neutral,smallerFirst,1.5,1.5,40,,,,,,,,
,,,,,,,,,,,,,,,714,2022-01-28_22h26.17.350,multiplicationStroop,2021.2.3,Win32,153.0690341,,,,,,,,,,,,,,,,,,,,,,,,,,,,,,,,,25,1.1725,1,0,5,5,31,1,5,×,5,5 × 5,neutral,tie,1.5,1.5,25,,,,,,,,
,,,,,,,,,,,,,,,714,2022-01-28_22h26.17.350,multiplicationStroop,2021.2.3,Win32,153.0690341,,,,,,,,,,,,,,,,,,,,,,,,,,,,,,,,,12,1.1864,1,0,6,6,11,1,2,×,6,2 × 6,neutral,smallerFirst,1.5,1.5,12,,,,,,,,
,,,,,,,,,,,,,,,714,2022-01-28_22h26.17.350,multiplicationStroop,2021.2.3,Win32,153.0690341,,,,,,,,,,,,,,,,,,,,,,,,,,,,,,,,,16,1.3808,1,0,7,7,30,1,4,×,4,4 × 4,neutral,tie,1.5,1.5,16,,,,,,,,
,,,,,,,,,,,,,,,714,2022-01-28_22h26.17.350,multiplicationStroop,2021.2.3,Win32,153.0690341,,,,,,,,,,,,,,,,,,,,,,,,,,,,,,,,,45,1.3665,1,0,8,8,24,1,9,×,5,9 × 5,neutral,largerFirst,1.5,1.5,45,,,,,,,,
,,,,,,,,,,,,,,,714,2022-01-28_22h26.17.350,multiplicationStroop,2021.2.3,Win32,153.0690341,,,,,,,,,,,,,,,,,,,,,,,,,,,,,,,,,63,1.5678,1,0,9,9,26,1,9,×,7,9 × 7,neutral,largerFirst,1.5,1.5,63,,,,,,,,
,,,,,,,,,,,,,,,714,2022-01-28_22h26.17.350,multiplicationStroop,2021.2.3,Win32,153.0690341,,,,,,,,,,,,,,,,,,,,,,,,,,,,,,,,,24,1.1655,1,0,10,10,16,1,6,×,4,6 × 4,neutral,largerFirst,1.5,1.5,24,,,,,,,,
,,,,,,,,,,,,,,,714,2022-01-28_22h26.17.350,multiplicationStroop,2021.2.3,Win32,153.0690341,,,,,,,,,,,,,,,,,,,,,,,,,,,,,,,,,48,1.4294,1,0,11,11,1,1,6,×,8,6 × 8,neutral,smallerFirst,1.5,1.5,48,,,,,,,,
,,,,,,,,,,,,,,,714,2022-01-28_22h26.17.350,multiplicationStroop,2021.2.3,Win32,153.0690341,,,,,,,,,,,,,,,,,,,,,,,,,,,,,,,,,35,1.36,1,0,12,12,15,1,7,×,5,7 × 5,neutral,largerFirst,1.5,1.5,35,,,,,,,,
,,,,,,,,,,,,,,,714,2022-01-28_22h26.17.350,multiplicationStroop,2021.2.3,Win32,153.0690341,,,,,,,,,,,,,,,,,,,,,,,,,,,,,,,,,15,1.193,1,0,13,13,19,1,5,×,3,5 × 3,neutral,largerFirst,1.5,1.5,15,,,,,,,,
,,,,,,,,,,,,,,,714,2022-01-28_22h26.17.350,multiplicationStroop,2021.2.3,Win32,153.0690341,,,,,,,,,,,,,,,,,,,,,,,,,,,,,,,,,49,1.4083,1,0,14,14,33,1,7,×,7,7 × 7,neutral,tie,1.5,1.5,49,,,,,,,,
,,,,,,,,,,,,,,,714,2022-01-28_22h26.17.350,multiplicationStroop,2021.2.3,Win32,153.0690341,,,,,,,,,,,,,,,,,,,,,,,,,,,,,,,,,12,1.1171,1,0,15,15,7,1,3,×,4,3 × 4,neutral,smallerFirst,1.5,1.5,12,,,,,,,,
,,,,,,,,,,,,,,,714,2022-01-28_22h26.17.350,multiplicationStroop,2021.2.3,Win32,153.0690341,,,,,,,,,,,,,,,,,,,,,,,,,,,,,,,,,36,1.6647,1,0,16,16,32,1,6,×,6,6 × 6,neutral,tie,1.5,1.5,36,,,,,,,,
,,,,,,,,,,,,,,,714,2022-01-28_22h26.17.350,multiplicationStroop,2021.2.3,Win32,153.0690341,,,,,,,,,,,,,,,,,,,,,,,,,,,,,,,,,24,1.6576,1,0,17,17,8,1,3,×,8,3 × 8,neutral,smallerFirst,1.5,1.5,24,,,,,,,,
,,,,,,,,,,,,,,,714,2022-01-28_22h26.17.350,multiplicationStroop,2021.2.3,Win32,153.0690341,,,,,,,,,,,,,,,,,,,,,,,,,,,,,,,,,28,1.7281,1,0,18,18,3,1,4,×,7,4 × 7,neutral,smallerFirst,1.5,1.5,28,,,,,,,,
,,,,,,,,,,,,,,,714,2022-01-28_22h26.17.350,multiplicationStroop,2021.2.3,Win32,153.0690341,,,,,,,,,,,,,,,,,,,,,,,,,,,,,,,,,9,2.8581,1,0,19,19,29,1,3,×,3,3 × 3,neutral,tie,1.5,1.5,9,,,,,,,,
,,,,,,,,,,,,,,,714,2022-01-28_22h26.17.350,multiplicationStroop,2021.2.3,Win32,153.0690341,,,,,,,,,,,,,,,,,,,,,,,,,,,,,,,,,16,1.4929,1,0,20,20,27,1,8,×,2,8 × 2,neutral,largerFirst,1.5,1.5,16,,,,,,,,
,,,,,,,,,,,,,,,714,2022-01-28_22h26.17.350,multiplicationStroop,2021.2.3,Win32,153.0690341,,,,,,,,,,,,,,,,,,,,,,,,,,,,,,,,,20,1.2973,1,0,21,21,6,1,4,×,5,4 × 5,neutral,smallerFirst,1.5,1.5,20,,,,,,,,
,,,,,,,,,,,,,,,714,2022-01-28_22h26.17.350,multiplicationStroop,2021.2.3,Win32,153.0690341,,,,,,,,,,,,,,,,,,,,,,,,,,,,,,,,,18,1.2904,1,0,22,22,14,1,6,×,3,6 × 3,neutral,largerFirst,1.5,1.5,18,,,,,,,,
,,,,,,,,,,,,,,,714,2022-01-28_22h26.17.350,multiplicationStroop,2021.2.3,Win32,153.0690341,,,,,,,,,,,,,,,,,,,,,,,,,,,,,,,,,10,1.1792,1,0,23,23,18,1,5,×,2,5 × 2,neutral,largerFirst,1.5,1.5,10,,,,,,,,
,,,,,,,,,,,,,,,714,2022-01-28_22h26.17.350,multiplicationStroop,2021.2.3,Win32,153.0690341,,,,,,,,,,,,,,,,,,,,,,,,,,,,,,,,,72,1.575,1,0,24,24,25,1,9,×,8,9 × 8,neutral,largerFirst,1.5,1.5,72,,,,,,,,
,,,,,,,,,,,,,,,714,2022-01-28_22h26.17.350,multiplicationStroop,2021.2.3,Win32,153.0690341,,,,,,,,,,,,,,,,,,,,,,,,,,,,,,,,,32,1.2208,1,0,25,25,9,1,4,×,8,4 × 8,neutral,smallerFirst,1.5,1.5,32,,,,,,,,
,,,,,,,,,,,,,,,714,2022-01-28_22h26.17.350,multiplicationStroop,2021.2.3,Win32,153.0690341,,,,,,,,,,,,,,,,,,,,,,,,,,,,,,,,,4,1.0549,1,0,26,26,28,1,2,×,2,2 × 2,neutral,tie,1.5,1.5,4,,,,,,,,
,,,,,,,,,,,,,,,714,2022-01-28_22h26.17.350,multiplicationStroop,2021.2.3,Win32,153.0690341,,,,,,,,,,,,,,,,,,,,,,,,,,,,,,,,,54,1.3729,1,0,27,27,21,1,9,×,6,9 × 6,neutral,largerFirst,1.5,1.5,54,,,,,,,,
,,,,,,,,,,,,,,,714,2022-01-28_22h26.17.350,multiplicationStroop,2021.2.3,Win32,153.0690341,,,,,,,,,,,,,,,,,,,,,,,,,,,,,,,,,42,1.3111,1,0,28,28,20,1,7,×,6,7 × 6,neutral,largerFirst,1.5,1.5,42,,,,,,,,
,,,,,,,,,,,,,,,714,2022-01-28_22h26.17.350,multiplicationStroop,2021.2.3,Win32,153.0690341,,,,,,,,,,,,,,,,,,,,,,,,,,,,,,,,,6,1.2069,1,0,29,29,12,1,2,×,3,2 × 3,neutral,smallerFirst,1.5,1.5,6,,,,,,,,
,,,,,,,,,,,,,,,714,2022-01-28_22h26.17.350,multiplicationStroop,2021.2.3,Win32,153.0690341,,,,,,,,,,,,,,,,,,,,,,,,,,,,,,,,,8,1.3463,1,0,30,30,17,1,4,×,2,4 × 2,neutral,largerFirst,1.5,1.5,8,,,,,,,,
,,,,,,,,,,,,,,,714,2022-01-28_22h26.17.350,multiplicationStroop,2021.2.3,Win32,153.0690341,,,,,,,,,,,,,,,,,,,,,,,,,,,,,,,,,56,1.3319,1,0,31,31,23,1,8,×,7,8 × 7,neutral,largerFirst,1.5,1.5,56,,,,,,,,
,,,,,,,,,,,,,,,714,2022-01-28_22h26.17.350,multiplicationStroop,2021.2.3,Win32,153.0690341,,,,,,,,,,,,,,,,,,,,,,,,,,,,,,,,,36,1.8173,1,0,32,32,13,1,4,×,9,4 × 9,neutral,smallerFirst,1.5,1.5,36,,,,,,,,
,,,,,,,,,,,,,,,714,2022-01-28_22h26.17.350,multiplicationStroop,2021.2.3,Win32,153.0690341,,,,,,,,,,,,,,,,,,,,,,,,,,,,,,,,,14,1.138,1,0,33,33,2,1,2,×,7,2 × 7,neutral,smallerFirst,1.5,1.5,14,,,,,,,,
,,,,,,,,,,,,,,,714,2022-01-28_22h26.17.350,multiplicationStroop,2021.2.3,Win32,153.0690341,,,,,,,,,,,,,,,,,,,,,,,,,,,,,,,,,30,1.8867,1,0,34,34,5,1,5,×,6,5 × 6,neutral,smallerFirst,1.5,1.5,30,,,,,,,,
,,,,,,,,,,,,,,,714,2022-01-28_22h26.17.350,multiplicationStroop,2021.2.3,Win32,153.0690341,,,,,,,,,,,,,,,,,,,,,,,,,,,,,,,,,21,1.0614,1,0,35,35,22,1,7,×,3,7 × 3,neutral,largerFirst,1.5,1.5,21,,,,,,,,
,,,,,,,,,,,,,,,714,2022-01-28_22h26.17.350,multiplicationStroop,2021.2.3,Win32,153.0690341,,,,,,,,,,,,,,,,,,,,,,,,,,,,,,,,,,,,,,,,,,,,,,,,,,0,3,3,0,1,stimulusFile/mult_blk1.xlsx,,
,,,,,,,,,,,,,,,714,2022-01-28_22h26.17.350,multiplicationStroop,2021.2.3,Win32,153.0690341,,,,,,,,,,,,,,,,,,,,,,,,,,,,,,,space,62.6292,16,1.9721,1,0,0,0,13,1,2,×,8,2 × 8,neutral,smallerFirst,1.5,1.5,16,,,,,,,,
,,,,,,,,,,,,,,,714,2022-01-28_22h26.17.350,multiplicationStroop,2021.2.3,Win32,153.0690341,,,,,,,,,,,,,,,,,,,,,,,,,,,,,,,,,25,1.1935,1,0,1,1,31,1,5,×,5,5 × 5,neutral,tie,1.5,1.5,25,,,,,,,,
,,,,,,,,,,,,,,,714,2022-01-28_22h26.17.350,multiplicationStroop,2021.2.3,Win32,153.0690341,,,,,,,,,,,,,,,,,,,,,,,,,,,,,,,,,48,1.4286,1,0,2,2,15,1,8,×,6,8 × 6,neutral,largerFirst,1.5,1.5,48,,,,,,,,
,,,,,,,,,,,,,,,714,2022-01-28_22h26.17.350,multiplicationStroop,2021.2.3,Win32,153.0690341,,,,,,,,,,,,,,,,,,,,,,,,,,,,,,,,,21,1.0822,1,0,3,3,8,1,3,×,7,3 × 7,neutral,smallerFirst,1.5,1.5,21,,,,,,,,
,,,,,,,,,,,,,,,714,2022-01-28_22h26.17.350,multiplicationStroop,2021.2.3,Win32,153.0690341,,,,,,,,,,,,,,,,,,,,,,,,,,,,,,,,,81,1.4157,1,0,4,4,35,1,9,×,9,9 × 9,neutral,tie,1.5,1.5,81,,,,,,,,
,,,,,,,,,,,,,,,714,2022-01-28_22h26.17.350,multiplicationStroop,2021.2.3,Win32,153.0690341,,,,,,,,,,,,,,,,,,,,,,,,,,,,,,,,,15,1.1027,1,0,5,5,5,1,3,×,5,3 × 5,neutral,smallerFirst,1.5,1.5,15,,,,,,,,
,,,,,,,,,,,,,,,714,2022-01-28_22h26.17.350,multiplicationStroop,2021.2.3,Win32,153.0690341,,,,,,,,,,,,,,,,,,,,,,,,,,,,,,,,,18,1.8253,1,0,6,6,0,1,3,×,6,3 × 6,neutral,smallerFirst,1.5,1.5,18,,,,,,,,
,,,,,,,,,,,,,,,714,2022-01-28_22h26.17.350,multiplicationStroop,2021.2.3,Win32,153.0690341,,,,,,,,,,,,,,,,,,,,,,,,,,,,,,,,,32,1.7063,1,0,7,7,23,1,8,×,4,8 × 4,neutral,largerFirst,1.5,1.5,32,,,,,,,,
,,,,,,,,,,,,,,,714,2022-01-28_22h26.17.350,multiplicationStroop,2021.2.3,Win32,153.0690341,,,,,,,,,,,,,,,,,,,,,,,,,,,,,,,,,6,1.5821,1,0,8,8,26,1,3,×,2,3 × 2,neutral,largerFirst,1.5,1.5,6,,,,,,,,
,,,,,,,,,,,,,,,714,2022-01-28_22h26.17.350,multiplicationStroop,2021.2.3,Win32,153.0690341,,,,,,,,,,,,,,,,,,,,,,,,,,,,,,,,,12,1.0814,1,0,9,9,21,1,4,×,3,4 × 3,neutral,largerFirst,1.5,1.5,12,,,,,,,,
,,,,,,,,,,,,,,,714,2022-01-28_22h26.17.350,multiplicationStroop,2021.2.3,Win32,153.0690341,,,,,,,,,,,,,,,,,,,,,,,,,,,,,,,,,24,1.228,1,0,10,10,22,1,8,×,3,8 × 3,neutral,largerFirst,1.5,1.5,24,,,,,,,,
,,,,,,,,,,,,,,,714,2022-01-28_22h26.17.350,multiplicationStroop,2021.2.3,Win32,153.0690341,,,,,,,,,,,,,,,,,,,,,,,,,,,,,,,,,36,1.8318,1,0,11,11,32,1,6,×,6,6 × 6,neutral,tie,1.5,1.5,36,,,,,,,,
,,,,,,,,,,,,,,,714,2022-01-28_22h26.17.350,multiplicationStroop,2021.2.3,Win32,153.0690341,,,,,,,,,,,,,,,,,,,,,,,,,,,,,,,,,20,1.332,1,0,12,12,20,1,5,×,4,5 × 4,neutral,largerFirst,1.5,1.5,20,,,,,,,,
,,,,,,,,,,,,,,,714,2022-01-28_22h26.17.350,multiplicationStroop,2021.2.3,Win32,153.0690341,,,,,,,,,,,,,,,,,,,,,,,,,,,,,,,,,63,1.9425,1,0,13,13,12,1,7,×,9,7 × 9,neutral,smallerFirst,1.5,1.5,63,,,,,,,,
,,,,,,,,,,,,,,,714,2022-01-28_22h26.17.350,multiplicationStroop,2021.2.3,Win32,153.0690341,,,,,,,,,,,,,,,,,,,,,,,,,,,,,,,,,36,1.8385,1,0,14,14,27,1,9,×,4,9 × 4,neutral,largerFirst,1.5,1.5,36,,,,,,,,
,,,,,,,,,,,,,,,714,2022-01-28_22h26.17.350,multiplicationStroop,2021.2.3,Win32,153.0690341,,,,,,,,,,,,,,,,,,,,,,,,,,,,,,,,,64,1.5958,1,0,15,15,34,1,8,×,8,8 × 8,neutral,tie,1.5,1.5,64,,,,,,,,
,,,,,,,,,,,,,,,714,2022-01-28_22h26.17.350,multiplicationStroop,2021.2.3,Win32,153.0690341,,,,,,,,,,,,,,,,,,,,,,,,,,,,,,,,,8,1.4429,1,0,16,16,3,1,2,×,4,2 × 4,neutral,smallerFirst,1.5,1.5,8,,,,,,,,
,,,,,,,,,,,,,,,714,2022-01-28_22h26.17.350,multiplicationStroop,2021.2.3,Win32,153.0690341,,,,,,,,,,,,,,,,,,,,,,,,,,,,,,,,,28,1.5193,1,0,17,17,17,1,7,×,4,7 × 4,neutral,largerFirst,1.5,1.5,28,,,,,,,,
,,,,,,,,,,,,,,,714,2022-01-28_22h26.17.350,multiplicationStroop,2021.2.3,Win32,153.0690341,,,,,,,,,,,,,,,,,,,,,,,,,,,,,,,,,4,0.9988,1,0,18,18,28,1,2,×,2,2 × 2,neutral,tie,1.5,1.5,4,,,,,,,,
,,,,,,,,,,,,,,,714,2022-01-28_22h26.17.350,multiplicationStroop,2021.2.3,Win32,153.0690341,,,,,,,,,,,,,,,,,,,,,,,,,,,,,,,,,56,1.6439,1,0,19,19,9,1,7,×,8,7 × 8,neutral,smallerFirst,1.5,1.5,56,,,,,,,,
,,,,,,,,,,,,,,,714,2022-01-28_22h26.17.350,multiplicationStroop,2021.2.3,Win32,153.0690341,,,,,,,,,,,,,,,,,,,,,,,,,,,,,,,,,12,1.4431,1,0,20,20,25,1,6,×,2,6 × 2,neutral,largerFirst,1.5,1.5,12,,,,,,,,
,,,,,,,,,,,,,,,714,2022-01-28_22h26.17.350,multiplicationStroop,2021.2.3,Win32,153.0690341,,,,,,,,,,,,,,,,,,,,,,,,,,,,,,,,,49,1.4227,1,0,21,21,33,1,7,×,7,7 × 7,neutral,tie,1.5,1.5,49,,,,,,,,
,,,,,,,,,,,,,,,714,2022-01-28_22h26.17.350,multiplicationStroop,2021.2.3,Win32,153.0690341,,,,,,,,,,,,,,,,,,,,,,,,,,,,,,,,,10,1.1579,1,0,22,22,4,1,2,×,5,2 × 5,neutral,smallerFirst,1.5,1.5,10,,,,,,,,
,,,,,,,,,,,,,,,714,2022-01-28_22h26.17.350,multiplicationStroop,2021.2.3,Win32,153.0690341,,,,,,,,,,,,,,,,,,,,,,,,,,,,,,,,,40,1.2976,1,0,23,23,24,1,8,×,5,8 × 5,neutral,largerFirst,1.5,1.5,40,,,,,,,,
,,,,,,,,,,,,,,,714,2022-01-28_22h26.17.350,multiplicationStroop,2021.2.3,Win32,153.0690341,,,,,,,,,,,,,,,,,,,,,,,,,,,,,,,,,54,1.7896,1,0,24,24,7,1,6,×,9,6 × 9,neutral,smallerFirst,1.5,1.5,54,,,,,,,,
,,,,,,,,,,,,,,,714,2022-01-28_22h26.17.350,multiplicationStroop,2021.2.3,Win32,153.0690341,,,,,,,,,,,,,,,,,,,,,,,,,,,,,,,,,30,1.2839,1,0,25,25,19,1,6,×,5,6 × 5,neutral,largerFirst,1.5,1.5,30,,,,,,,,
,,,,,,,,,,,,,,,714,2022-01-28_22h26.17.350,multiplicationStroop,2021.2.3,Win32,153.0690341,,,,,,,,,,,,,,,,,,,,,,,,,,,,,,,,,18,1.3664,1,0,26,26,18,1,9,×,2,9 × 2,neutral,largerFirst,1.5,1.5,18,,,,,,,,
,,,,,,,,,,,,,,,714,2022-01-28_22h26.17.350,multiplicationStroop,2021.2.3,Win32,153.0690341,,,,,,,,,,,,,,,,,,,,,,,,,,,,,,,,,27,1.7408,1,0,27,27,14,1,9,×,3,9 × 3,neutral,largerFirst,1.5,1.5,27,,,,,,,,
,,,,,,,,,,,,,,,714,2022-01-28_22h26.17.350,multiplicationStroop,2021.2.3,Win32,153.0690341,,,,,,,,,,,,,,,,,,,,,,,,,,,,,,,,,2,1.4295,0,0,28,28,11,1,8,×,9,8 × 9,neutral,smallerFirst,1.5,1.5,72,,,,,,,,
,,,,,,,,,,,,,,,714,2022-01-28_22h26.17.350,multiplicationStroop,2021.2.3,Win32,153.0690341,,,,,,,,,,,,,,,,,,,,,,,,,,,,,,,,,14,1.5885,1,0,29,29,16,1,7,×,2,7 × 2,neutral,largerFirst,1.5,1.5,14,,,,,,,,
,,,,,,,,,,,,,,,714,2022-01-28_22h26.17.350,multiplicationStroop,2021.2.3,Win32,153.0690341,,,,,,,,,,,,,,,,,,,,,,,,,,,,,,,,,42,1.8871,1,0,30,30,6,1,6,×,7,6 × 7,neutral,smallerFirst,1.5,1.5,42,,,,,,,,
,,,,,,,,,,,,,,,714,2022-01-28_22h26.17.350,multiplicationStroop,2021.2.3,Win32,153.0690341,,,,,,,,,,,,,,,,,,,,,,,,,,,,,,,,,16,1.3669,1,0,31,31,30,1,4,×,4,4 × 4,neutral,tie,1.5,1.5,16,,,,,,,,
,,,,,,,,,,,,,,,714,2022-01-28_22h26.17.350,multiplicationStroop,2021.2.3,Win32,153.0690341,,,,,,,,,,,,,,,,,,,,,,,,,,,,,,,,,9,1.3527,1,0,32,32,29,1,3,×,3,3 × 3,neutral,tie,1.5,1.5,9,,,,,,,,
,,,,,,,,,,,,,,,714,2022-01-28_22h26.17.350,multiplicationStroop,2021.2.3,Win32,153.0690341,,,,,,,,,,,,,,,,,,,,,,,,,,,,,,,,,35,1.4433,1,0,33,33,1,1,5,×,7,5 × 7,neutral,smallerFirst,1.5,1.5,35,,,,,,,,
,,,,,,,,,,,,,,,714,2022-01-28_22h26.17.350,multiplicationStroop,2021.2.3,Win32,153.0690341,,,,,,,,,,,,,,,,,,,,,,,,,,,,,,,,,24,1.3248,1,0,34,34,2,1,4,×,6,4 × 6,neutral,smallerFirst,1.5,1.5,24,,,,,,,,
,,,,,,,,,,,,,,,714,2022-01-28_22h26.17.350,multiplicationStroop,2021.2.3,Win32,153.0690341,,,,,,,,,,,,,,,,,,,,,,,,,,,,,,,,,45,1.464,1,0,35,35,10,1,5,×,9,5 × 9,neutral,smallerFirst,1.5,1.5,45,,,,,,,,
,,,,,,,,,,,,,,,714,2022-01-28_22h26.17.350,multiplicationStroop,2021.2.3,Win32,153.0690341,,,,,,,,,,,,,,,,,,,,,,,,,,,,,,,,,,,,,,,,,,,,,,,,,,0,4,4,1,1,stimulusFile/mult_blk2.xlsx,,
,,,,,,,,,,,,,,,714,2022-01-28_22h26.17.350,multiplicationStroop,2021.2.3,Win32,153.0690341,,,,,,,,,,,,,,,,,,,,,,,,,,,,,,,space,6.0573,24,1.3551,1,0,0,0,9,1,3,×,8,3 × 8,incongruent,smallerFirst,2,1,24,,,,,,,,
,,,,,,,,,,,,,,,714,2022-01-28_22h26.17.350,multiplicationStroop,2021.2.3,Win32,153.0690341,,,,,,,,,,,,,,,,,,,,,,,,,,,,,,,,,21,1.0613,1,0,1,1,26,1,7,×,3,7 × 3,incongruent,largerFirst,1,2,21,,,,,,,,
,,,,,,,,,,,,,,,714,2022-01-28_22h26.17.350,multiplicationStroop,2021.2.3,Win32,153.0690341,,,,,,,,,,,,,,,,,,,,,,,,,,,,,,,,,36,1.9219,1,0,2,2,15,1,9,×,4,9 × 4,incongruent,largerFirst,1,2,36,,,,,,,,
,,,,,,,,,,,,,,,714,2022-01-28_22h26.17.350,multiplicationStroop,2021.2.3,Win32,153.0690341,,,,,,,,,,,,,,,,,,,,,,,,,,,,,,,,,18,1.3461,1,0,3,3,2,1,2,×,9,2 × 9,incongruent,smallerFirst,2,1,18,,,,,,,,
,,,,,,,,,,,,,,,714,2022-01-28_22h26.17.350,multiplicationStroop,2021.2.3,Win32,153.0690341,,,,,,,,,,,,,,,,,,,,,,,,,,,,,,,,,32,1.1725,1,0,4,4,7,1,4,×,8,4 × 8,incongruent,smallerFirst,2,1,32,,,,,,,,
,,,,,,,,,,,,,,,714,2022-01-28_22h26.17.350,multiplicationStroop,2021.2.3,Win32,153.0690341,,,,,,,,,,,,,,,,,,,,,,,,,,,,,,,,,25,1.1097,1,0,5,5,31,1,5,×,5,5 × 5,incongruent,tie,1,2,25,,,,,,,,
,,,,,,,,,,,,,,,714,2022-01-28_22h26.17.350,multiplicationStroop,2021.2.3,Win32,153.0690341,,,,,,,,,,,,,,,,,,,,,,,,,,,,,,,,,49,1.3527,0,0,6,6,3,1,7,×,9,7 × 9,incongruent,smallerFirst,2,1,63,,,,,,,,
,,,,,,,,,,,,,,,714,2022-01-28_22h26.17.350,multiplicationStroop,2021.2.3,Win32,153.0690341,,,,,,,,,,,,,,,,,,,,,,,,,,,,,,,,,24,3.026,1,0,7,7,20,1,6,×,4,6 × 4,incongruent,largerFirst,1,2,24,,,,,,,,
,,,,,,,,,,,,,,,714,2022-01-28_22h26.17.350,multiplicationStroop,2021.2.3,Win32,153.0690341,,,,,,,,,,,,,,,,,,,,,,,,,,,,,,,,,14,1.1579,1,0,8,8,4,1,2,×,7,2 × 7,incongruent,smallerFirst,2,1,14,,,,,,,,
,,,,,,,,,,,,,,,714,2022-01-28_22h26.17.350,multiplicationStroop,2021.2.3,Win32,153.0690341,,,,,,,,,,,,,,,,,,,,,,,,,,,,,,,,,72,1.3943,1,0,9,9,0,1,8,×,9,8 × 9,incongruent,smallerFirst,2,1,72,,,,,,,,
,,,,,,,,,,,,,,,714,2022-01-28_22h26.17.350,multiplicationStroop,2021.2.3,Win32,153.0690341,,,,,,,,,,,,,,,,,,,,,,,,,,,,,,,,,6,1.4775,1,0,10,10,11,1,2,×,3,2 × 3,incongruent,smallerFirst,2,1,6,,,,,,,,
,,,,,,,,,,,,,,,714,2022-01-28_22h26.17.350,multiplicationStroop,2021.2.3,Win32,153.0690341,,,,,,,,,,,,,,,,,,,,,,,,,,,,,,,,,40,1.2279,1,0,11,11,13,1,5,×,8,5 × 8,incongruent,smallerFirst,2,1,40,,,,,,,,
,,,,,,,,,,,,,,,714,2022-01-28_22h26.17.350,multiplicationStroop,2021.2.3,Win32,153.0690341,,,,,,,,,,,,,,,,,,,,,,,,,,,,,,,,,12,1.1311,1,0,12,12,19,1,6,×,2,6 × 2,incongruent,largerFirst,1,2,12,,,,,,,,
,,,,,,,,,,,,,,,714,2022-01-28_22h26.17.350,multiplicationStroop,2021.2.3,Win32,153.0690341,,,,,,,,,,,,,,,,,,,,,,,,,,,,,,,,,49,1.3662,1,0,13,13,33,1,7,×,7,7 × 7,incongruent,tie,1,2,49,,,,,,,,
,,,,,,,,,,,,,,,714,2022-01-28_22h26.17.350,multiplicationStroop,2021.2.3,Win32,153.0690341,,,,,,,,,,,,,,,,,,,,,,,,,,,,,,,,,16,1.464,1,0,14,14,30,1,4,×,4,4 × 4,incongruent,tie,1,2,16,,,,,,,,
,,,,,,,,,,,,,,,714,2022-01-28_22h26.17.350,multiplicationStroop,2021.2.3,Win32,153.0690341,,,,,,,,,,,,,,,,,,,,,,,,,,,,,,,,,56,1.3383,1,0,15,15,14,1,8,×,7,8 × 7,incongruent,largerFirst,1,2,56,,,,,,,,
,,,,,,,,,,,,,,,714,2022-01-28_22h26.17.350,multiplicationStroop,2021.2.3,Win32,153.0690341,,,,,,,,,,,,,,,,,,,,,,,,,,,,,,,,,18,1.8317,1,0,16,16,8,1,3,×,6,3 × 6,incongruent,smallerFirst,2,1,18,,,,,,,,
,,,,,,,,,,,,,,,714,2022-01-28_22h26.17.350,multiplicationStroop,2021.2.3,Win32,153.0690341,,,,,,,,,,,,,,,,,,,,,,,,,,,,,,,,,35,1.3877,1,0,17,17,12,1,5,×,7,5 × 7,incongruent,smallerFirst,2,1,35,,,,,,,,
,,,,,,,,,,,,,,,714,2022-01-28_22h26.17.350,multiplicationStroop,2021.2.3,Win32,153.0690341,,,,,,,,,,,,,,,,,,,,,,,,,,,,,,,,,48,1.95,1,0,18,18,1,1,6,×,8,6 × 8,incongruent,smallerFirst,2,1,48,,,,,,,,
,,,,,,,,,,,,,,,714,2022-01-28_22h26.17.350,multiplicationStroop,2021.2.3,Win32,153.0690341,,,,,,,,,,,,,,,,,,,,,,,,,,,,,,,,,36,1.7964,1,0,19,19,32,1,6,×,6,6 × 6,incongruent,tie,1,2,36,,,,,,,,
,,,,,,,,,,,,,,,714,2022-01-28_22h26.17.350,multiplicationStroop,2021.2.3,Win32,153.0690341,,,,,,,,,,,,,,,,,,,,,,,,,,,,,,,,,16,1.4572,1,0,20,20,23,1,8,×,2,8 × 2,incongruent,largerFirst,1,2,16,,,,,,,,
,,,,,,,,,,,,,,,714,2022-01-28_22h26.17.350,multiplicationStroop,2021.2.3,Win32,153.0690341,,,,,,,,,,,,,,,,,,,,,,,,,,,,,,,,,72,1.4922,0,0,21,21,35,1,9,×,9,9 × 9,incongruent,tie,1,2,81,,,,,,,,
,,,,,,,,,,,,,,,714,2022-01-28_22h26.17.350,multiplicationStroop,2021.2.3,Win32,153.0690341,,,,,,,,,,,,,,,,,,,,,,,,,,,,,,,,,45,1.7689,1,0,22,22,22,1,9,×,5,9 × 5,incongruent,largerFirst,1,2,45,,,,,,,,
,,,,,,,,,,,,,,,714,2022-01-28_22h26.17.350,multiplicationStroop,2021.2.3,Win32,153.0690341,,,,,,,,,,,,,,,,,,,,,,,,,,,,,,,,,4,1.1791,1,0,23,23,28,1,2,×,2,2 × 2,incongruent,tie,1,2,4,,,,,,,,
,,,,,,,,,,,,,,,714,2022-01-28_22h26.17.350,multiplicationStroop,2021.2.3,Win32,153.0690341,,,,,,,,,,,,,,,,,,,,,,,,,,,,,,,,,9,1.2971,1,0,24,24,29,1,3,×,3,3 × 3,incongruent,tie,1,2,9,,,,,,,,
,,,,,,,,,,,,,,,714,2022-01-28_22h26.17.350,multiplicationStroop,2021.2.3,Win32,153.0690341,,,,,,,,,,,,,,,,,,,,,,,,,,,,,,,,,20,1.2349,1,0,25,25,27,1,5,×,4,5 × 4,incongruent,largerFirst,1,2,20,,,,,,,,
,,,,,,,,,,,,,,,714,2022-01-28_22h26.17.350,multiplicationStroop,2021.2.3,Win32,153.0690341,,,,,,,,,,,,,,,,,,,,,,,,,,,,,,,,,15,1.0752,1,0,26,26,10,1,3,×,5,3 × 5,incongruent,smallerFirst,2,1,15,,,,,,,,
,,,,,,,,,,,,,,,714,2022-01-28_22h26.17.350,multiplicationStroop,2021.2.3,Win32,153.0690341,,,,,,,,,,,,,,,,,,,,,,,,,,,,,,,,,10,1.1582,1,0,27,27,21,1,5,×,2,5 × 2,incongruent,largerFirst,1,2,10,,,,,,,,
,,,,,,,,,,,,,,,714,2022-01-28_22h26.17.350,multiplicationStroop,2021.2.3,Win32,153.0690341,,,,,,,,,,,,,,,,,,,,,,,,,,,,,,,,,30,1.3874,1,0,28,28,25,1,6,×,5,6 × 5,incongruent,largerFirst,1,2,30,,,,,,,,
,,,,,,,,,,,,,,,714,2022-01-28_22h26.17.350,multiplicationStroop,2021.2.3,Win32,153.0690341,,,,,,,,,,,,,,,,,,,,,,,,,,,,,,,,,27,1.5056,1,0,29,29,18,1,9,×,3,9 × 3,incongruent,largerFirst,1,2,27,,,,,,,,
,,,,,,,,,,,,,,,714,2022-01-28_22h26.17.350,multiplicationStroop,2021.2.3,Win32,153.0690341,,,,,,,,,,,,,,,,,,,,,,,,,,,,,,,,,54,3.5383,1,0,30,30,6,1,6,×,9,6 × 9,incongruent,smallerFirst,2,1,54,,,,,,,,
,,,,,,,,,,,,,,,714,2022-01-28_22h26.17.350,multiplicationStroop,2021.2.3,Win32,153.0690341,,,,,,,,,,,,,,,,,,,,,,,,,,,,,,,,,28,1.4302,1,0,31,31,16,1,7,×,4,7 × 4,incongruent,largerFirst,1,2,28,,,,,,,,
,,,,,,,,,,,,,,,714,2022-01-28_22h26.17.350,multiplicationStroop,2021.2.3,Win32,153.0690341,,,,,,,,,,,,,,,,,,,,,,,,,,,,,,,,,42,1.485,1,0,32,32,17,1,7,×,6,7 × 6,incongruent,largerFirst,1,2,42,,,,,,,,
,,,,,,,,,,,,,,,714,2022-01-28_22h26.17.350,multiplicationStroop,2021.2.3,Win32,153.0690341,,,,,,,,,,,,,,,,,,,,,,,,,,,,,,,,,12,1.0409,1,0,33,33,5,1,3,×,4,3 × 4,incongruent,smallerFirst,2,1,12,,,,,,,,
,,,,,,,,,,,,,,,714,2022-01-28_22h26.17.350,multiplicationStroop,2021.2.3,Win32,153.0690341,,,,,,,,,,,,,,,,,,,,,,,,,,,,,,,,,64,1.8868,1,0,34,34,34,1,8,×,8,8 × 8,incongruent,tie,1,2,64,,,,,,,,
,,,,,,,,,,,,,,,714,2022-01-28_22h26.17.350,multiplicationStroop,2021.2.3,Win32,153.0690341,,,,,,,,,,,,,,,,,,,,,,,,,,,,,,,,,8,1.4077,1,0,35,35,24,1,4,×,2,4 × 2,incongruent,largerFirst,1,2,8,,,,,,,,
,,,,,,,,,,,,,,,714,2022-01-28_22h26.17.350,multiplicationStroop,2021.2.3,Win32,153.0690341,,,,,,,,,,,,,,,,,,,,,,,,,,,,,,,,,,,,,,,,,,,,,,,,,,0,5,5,5,1,stimulusFile/mult_blk6_INcongruent.xlsx,,
,,,,,,,,,,,,,,,714,2022-01-28_22h26.17.350,multiplicationStroop,2021.2.3,Win32,153.0690341,,,,,,,,,,,,,,,,,,,,,,,,,,,,,,,,,,,,,,,,,,,,,,,,,,,,,,,,space,4.9905