welcomeKey_resp.keys,welcomeKey_resp.rt,X Scale,Y Scale,rt_resp_4.keys,rt_resp_4.corr,rt_resp_4.rt,speedtest_2.thisRepN,speedtest_2.thisTrialN,speedtest_2.thisN,speedtest_2.thisIndex,speedtest_2.ran,numberSc,posX,positionLayout,participant,date,expName,psychopyVersion,OS,frameRate,ct_instrresp.keys,ct_instrresp.rt,key_resp_2.keys,key_resp_2.rt,ct_keyResp.keys,ct_keyResp.corr,ct_keyResp.rt,trials.thisRepN,trials.thisTrialN,trials.thisN,trials.thisIndex,trials.ran,leftNo,rightNo,displayProblem,numDistance,leftNo_size,rightNo_size,Dims,keyAnswer,TS_Loop.thisRepN,TS_Loop.thisTrialN,TS_Loop.thisN,TS_Loop.thisIndex,TS_Loop.ran,Condition,ActionInst,instrImage,mltptaskInst_resp.keys,mltptaskInst_resp.rt,continue_resp_2.keys,continue_resp_2.rt,multp_Answer,multi_RT,multiplyCorr,LoopingMultiply.thisRepN,LoopingMultiply.thisTrialN,LoopingMultiply.thisN,LoopingMultiply.thisIndex,LoopingMultiply.ran,factor1,multiplySign,factor2,multliplyProblem,physicalSize,orderOperand,sizeF1,sizeF2,mult_answer,trials_stroop.thisRepN,trials_stroop.thisTrialN,trials_stroop.thisN,trials_stroop.thisIndex,trials_stroop.ran,multiplicationFile,esckey_resp_2.keys,esckey_resp_2.rt
y,9.9285,39.7,39.6,right,1,0.6127,0,0,0,15,1,9,200,right,715,2022-01-27_13h49.59.974,multiplicationStroop,2021.2.3,Win32,59.9880024,,,,,,,,,,,,,,,,,,,,,,,,,,,,,,,,,,,,,,,,,,,,,,,,,,,,,,,,,
,,,,left,1,0.3485,0,1,1,0,1,1,-200,left,715,2022-01-27_13h49.59.974,multiplicationStroop,2021.2.3,Win32,59.9880024,,,,,,,,,,,,,,,,,,,,,,,,,,,,,,,,,,,,,,,,,,,,,,,,,,,,,,,,,
,,,,right,1,0.2992,0,2,2,12,1,6,200,right,715,2022-01-27_13h49.59.974,multiplicationStroop,2021.2.3,Win32,59.9880024,,,,,,,,,,,,,,,,,,,,,,,,,,,,,,,,,,,,,,,,,,,,,,,,,,,,,,,,,
,,,,left,1,0.288,0,3,3,7,1,9,-200,left,715,2022-01-27_13h49.59.974,multiplicationStroop,2021.2.3,Win32,59.9880024,,,,,,,,,,,,,,,,,,,,,,,,,,,,,,,,,,,,,,,,,,,,,,,,,,,,,,,,,
,,,,right,1,0.2698,0,4,4,9,1,2,200,right,715,2022-01-27_13h49.59.974,multiplicationStroop,2021.2.3,Win32,59.9880024,,,,,,,,,,,,,,,,,,,,,,,,,,,,,,,,,,,,,,,,,,,,,,,,,,,,,,,,,
,,,,left,1,0.2699,0,5,5,2,1,3,-200,left,715,2022-01-27_13h49.59.974,multiplicationStroop,2021.2.3,Win32,59.9880024,,,,,,,,,,,,,,,,,,,,,,,,,,,,,,,,,,,,,,,,,,,,,,,,,,,,,,,,,
,,,,left,1,0.3342,0,6,6,6,1,8,-200,left,715,2022-01-27_13h49.59.974,multiplicationStroop,2021.2.3,Win32,59.9880024,,,,,,,,,,,,,,,,,,,,,,,,,,,,,,,,,,,,,,,,,,,,,,,,,,,,,,,,,
,,,,right,1,0.2844,0,7,7,8,1,1,200,right,715,2022-01-27_13h49.59.974,multiplicationStroop,2021.2.3,Win32,59.9880024,,,,,,,,,,,,,,,,,,,,,,,,,,,,,,,,,,,,,,,,,,,,,,,,,,,,,,,,,
,,,,left,1,0.2965,0,8,8,5,1,7,-200,left,715,2022-01-27_13h49.59.974,multiplicationStroop,2021.2.3,Win32,59.9880024,,,,,,,,,,,,,,,,,,,,,,,,,,,,,,,,,,,,,,,,,,,,,,,,,,,,,,,,,
,,,,right,1,0.3352,0,9,9,11,1,4,200,right,715,2022-01-27_13h49.59.974,multiplicationStroop,2021.2.3,Win32,59.9880024,,,,,,,,,,,,,,,,,,,,,,,,,,,,,,,,,,,,,,,,,,,,,,,,,,,,,,,,,
,,,,right,1,0.3166,0,10,10,13,1,7,200,right,715,2022-01-27_13h49.59.974,multiplicationStroop,2021.2.3,Win32,59.9880024,,,,,,,,,,,,,,,,,,,,,,,,,,,,,,,,,,,,,,,,,,,,,,,,,,,,,,,,,
,,,,left,1,0.2849,0,11,11,3,1,4,-200,left,715,2022-01-27_13h49.59.974,multiplicationStroop,2021.2.3,Win32,59.9880024,,,,,,,,,,,,,,,,,,,,,,,,,,,,,,,,,,,,,,,,,,,,,,,,,,,,,,,,,
,,,,left,1,0.2743,0,12,12,1,1,2,-200,left,715,2022-01-27_13h49.59.974,multiplicationStroop,2021.2.3,Win32,59.9880024,,,,,,,,,,,,,,,,,,,,,,,,,,,,,,,,,,,,,,,,,,,,,,,,,,,,,,,,,
,,,,left,1,0.2621,0,13,13,4,1,6,-200,left,715,2022-01-27_13h49.59.974,multiplicationStroop,2021.2.3,Win32,59.9880024,,,,,,,,,,,,,,,,,,,,,,,,,,,,,,,,,,,,,,,,,,,,,,,,,,,,,,,,,
,,,,right,1,0.2842,0,14,14,10,1,3,200,right,715,2022-01-27_13h49.59.974,multiplicationStroop,2021.2.3,Win32,59.9880024,,,,,,,,,,,,,,,,,,,,,,,,,,,,,,,,,,,,,,,,,,,,,,,,,,,,,,,,,
,,,,right,1,0.3085,0,15,15,14,1,8,200,right,715,2022-01-27_13h49.59.974,multiplicationStroop,2021.2.3,Win32,59.9880024,,,,,,,,,,,,,,,,,,,,,,,,,,,,,,,,,,,,,,,,,,,,,,,,,,,,,,,,,
,,,,right,1,0.2886,1,0,16,13,1,7,200,right,715,2022-01-27_13h49.59.974,multiplicationStroop,2021.2.3,Win32,59.9880024,,,,,,,,,,,,,,,,,,,,,,,,,,,,,,,,,,,,,,,,,,,,,,,,,,,,,,,,,
,,,,right,1,0.2999,1,1,17,12,1,6,200,right,715,2022-01-27_13h49.59.974,multiplicationStroop,2021.2.3,Win32,59.9880024,,,,,,,,,,,,,,,,,,,,,,,,,,,,,,,,,,,,,,,,,,,,,,,,,,,,,,,,,
,,,,left,1,0.2877,1,2,18,2,1,3,-200,left,715,2022-01-27_13h49.59.974,multiplicationStroop,2021.2.3,Win32,59.9880024,,,,,,,,,,,,,,,,,,,,,,,,,,,,,,,,,,,,,,,,,,,,,,,,,,,,,,,,,
,,,,right,1,0.4761,1,3,19,11,1,4,200,right,715,2022-01-27_13h49.59.974,multiplicationStroop,2021.2.3,Win32,59.9880024,,,,,,,,,,,,,,,,,,,,,,,,,,,,,,,,,,,,,,,,,,,,,,,,,,,,,,,,,
,,,,right,1,0.2878,1,4,20,9,1,2,200,right,715,2022-01-27_13h49.59.974,multiplicationStroop,2021.2.3,Win32,59.9880024,,,,,,,,,,,,,,,,,,,,,,,,,,,,,,,,,,,,,,,,,,,,,,,,,,,,,,,,,
,,,,left,1,0.2779,1,5,21,1,1,2,-200,left,715,2022-01-27_13h49.59.974,multiplicationStroop,2021.2.3,Win32,59.9880024,,,,,,,,,,,,,,,,,,,,,,,,,,,,,,,,,,,,,,,,,,,,,,,,,,,,,,,,,
,,,,left,1,0.3252,1,6,22,5,1,7,-200,left,715,2022-01-27_13h49.59.974,multiplicationStroop,2021.2.3,Win32,59.9880024,,,,,,,,,,,,,,,,,,,,,,,,,,,,,,,,,,,,,,,,,,,,,,,,,,,,,,,,,
,,,,right,1,0.285,1,7,23,8,1,1,200,right,715,2022-01-27_13h49.59.974,multiplicationStroop,2021.2.3,Win32,59.9880024,,,,,,,,,,,,,,,,,,,,,,,,,,,,,,,,,,,,,,,,,,,,,,,,,,,,,,,,,
,,,,right,1,0.2921,1,8,24,10,1,3,200,right,715,2022-01-27_13h49.59.974,multiplicationStroop,2021.2.3,Win32,59.9880024,,,,,,,,,,,,,,,,,,,,,,,,,,,,,,,,,,,,,,,,,,,,,,,,,,,,,,,,,
,,,,left,1,0.334,1,9,25,6,1,8,-200,left,715,2022-01-27_13h49.59.974,multiplicationStroop,2021.2.3,Win32,59.9880024,,,,,,,,,,,,,,,,,,,,,,,,,,,,,,,,,,,,,,,,,,,,,,,,,,,,,,,,,
,,,,left,1,0.2772,1,10,26,7,1,9,-200,left,715,2022-01-27_13h49.59.974,multiplicationStroop,2021.2.3,Win32,59.9880024,,,,,,,,,,,,,,,,,,,,,,,,,,,,,,,,,,,,,,,,,,,,,,,,,,,,,,,,,
,,,,left,1,0.2939,1,11,27,3,1,4,-200,left,715,2022-01-27_13h49.59.974,multiplicationStroop,2021.2.3,Win32,59.9880024,,,,,,,,,,,,,,,,,,,,,,,,,,,,,,,,,,,,,,,,,,,,,,,,,,,,,,,,,
,,,,left,1,0.3042,1,12,28,4,1,6,-200,left,715,2022-01-27_13h49.59.974,multiplicationStroop,2021.2.3,Win32,59.9880024,,,,,,,,,,,,,,,,,,,,,,,,,,,,,,,,,,,,,,,,,,,,,,,,,,,,,,,,,
,,,,right,1,0.3733,1,13,29,14,1,8,200,right,715,2022-01-27_13h49.59.974,multiplicationStroop,2021.2.3,Win32,59.9880024,,,,,,,,,,,,,,,,,,,,,,,,,,,,,,,,,,,,,,,,,,,,,,,,,,,,,,,,,
,,,,left,1,0.3227,1,14,30,0,1,1,-200,left,715,2022-01-27_13h49.59.974,multiplicationStroop,2021.2.3,Win32,59.9880024,,,,,,,,,,,,,,,,,,,,,,,,,,,,,,,,,,,,,,,,,,,,,,,,,,,,,,,,,
,,,,right,1,0.3006,1,15,31,15,1,9,200,right,715,2022-01-27_13h49.59.974,multiplicationStroop,2021.2.3,Win32,59.9880024,,,,,,,,,,,,,,,,,,,,,,,,,,,,,,,,,,,,,,,,,,,,,,,,,,,,,,,,,
,,,,right,1,0.3596,2,0,32,10,1,3,200,right,715,2022-01-27_13h49.59.974,multiplicationStroop,2021.2.3,Win32,59.9880024,,,,,,,,,,,,,,,,,,,,,,,,,,,,,,,,,,,,,,,,,,,,,,,,,,,,,,,,,
,,,,left,1,0.3327,2,1,33,2,1,3,-200,left,715,2022-01-27_13h49.59.974,multiplicationStroop,2021.2.3,Win32,59.9880024,,,,,,,,,,,,,,,,,,,,,,,,,,,,,,,,,,,,,,,,,,,,,,,,,,,,,,,,,
,,,,left,1,0.3173,2,2,34,3,1,4,-200,left,715,2022-01-27_13h49.59.974,multiplicationStroop,2021.2.3,Win32,59.9880024,,,,,,,,,,,,,,,,,,,,,,,,,,,,,,,,,,,,,,,,,,,,,,,,,,,,,,,,,
,,,,right,1,0.3338,2,3,35,9,1,2,200,right,715,2022-01-27_13h49.59.974,multiplicationStroop,2021.2.3,Win32,59.9880024,,,,,,,,,,,,,,,,,,,,,,,,,,,,,,,,,,,,,,,,,,,,,,,,,,,,,,,,,
,,,,left,1,0.3174,2,4,36,4,1,6,-200,left,715,2022-01-27_13h49.59.974,multiplicationStroop,2021.2.3,Win32,59.9880024,,,,,,,,,,,,,,,,,,,,,,,,,,,,,,,,,,,,,,,,,,,,,,,,,,,,,,,,,
,,,,right,1,0.3008,2,5,37,8,1,1,200,right,715,2022-01-27_13h49.59.974,multiplicationStroop,2021.2.3,Win32,59.9880024,,,,,,,,,,,,,,,,,,,,,,,,,,,,,,,,,,,,,,,,,,,,,,,,,,,,,,,,,
,,,,right,1,0.3507,2,6,38,15,1,9,200,right,715,2022-01-27_13h49.59.974,multiplicationStroop,2021.2.3,Win32,59.9880024,,,,,,,,,,,,,,,,,,,,,,,,,,,,,,,,,,,,,,,,,,,,,,,,,,,,,,,,,
,,,,left,1,0.2505,2,7,39,6,1,8,-200,left,715,2022-01-27_13h49.59.974,multiplicationStroop,2021.2.3,Win32,59.9880024,,,,,,,,,,,,,,,,,,,,,,,,,,,,,,,,,,,,,,,,,,,,,,,,,,,,,,,,,
,,,,right,1,0.3004,2,8,40,12,1,6,200,right,715,2022-01-27_13h49.59.974,multiplicationStroop,2021.2.3,Win32,59.9880024,,,,,,,,,,,,,,,,,,,,,,,,,,,,,,,,,,,,,,,,,,,,,,,,,,,,,,,,,
,,,,right,1,0.3504,2,9,41,11,1,4,200,right,715,2022-01-27_13h49.59.974,multiplicationStroop,2021.2.3,Win32,59.9880024,,,,,,,,,,,,,,,,,,,,,,,,,,,,,,,,,,,,,,,,,,,,,,,,,,,,,,,,,
,,,,left,1,0.2844,2,10,42,5,1,7,-200,left,715,2022-01-27_13h49.59.974,multiplicationStroop,2021.2.3,Win32,59.9880024,,,,,,,,,,,,,,,,,,,,,,,,,,,,,,,,,,,,,,,,,,,,,,,,,,,,,,,,,
,,,,left,1,0.284,2,11,43,7,1,9,-200,left,715,2022-01-27_13h49.59.974,multiplicationStroop,2021.2.3,Win32,59.9880024,,,,,,,,,,,,,,,,,,,,,,,,,,,,,,,,,,,,,,,,,,,,,,,,,,,,,,,,,
,,,,right,1,0.3505,2,12,44,14,1,8,200,right,715,2022-01-27_13h49.59.974,multiplicationStroop,2021.2.3,Win32,59.9880024,,,,,,,,,,,,,,,,,,,,,,,,,,,,,,,,,,,,,,,,,,,,,,,,,,,,,,,,,
,,,,right,1,0.2679,2,13,45,13,1,7,200,right,715,2022-01-27_13h49.59.974,multiplicationStroop,2021.2.3,Win32,59.9880024,,,,,,,,,,,,,,,,,,,,,,,,,,,,,,,,,,,,,,,,,,,,,,,,,,,,,,,,,
,,,,left,1,0.2843,2,14,46,1,1,2,-200,left,715,2022-01-27_13h49.59.974,multiplicationStroop,2021.2.3,Win32,59.9880024,,,,,,,,,,,,,,,,,,,,,,,,,,,,,,,,,,,,,,,,,,,,,,,,,,,,,,,,,
,,,,left,1,0.2843,2,15,47,0,1,1,-200,left,715,2022-01-27_13h49.59.974,multiplicationStroop,2021.2.3,Win32,59.9880024,,,,,,,,,,,,,,,,,,,,,,,,,,,,,,,,,,,,,,,,,,,,,,,,,,,,,,,,,
,,,,left,1,0.2846,3,0,48,2,1,3,-200,left,715,2022-01-27_13h49.59.974,multiplicationStroop,2021.2.3,Win32,59.9880024,,,,,,,,,,,,,,,,,,,,,,,,,,,,,,,,,,,,,,,,,,,,,,,,,,,,,,,,,
,,,,right,1,0.3345,3,1,49,11,1,4,200,right,715,2022-01-27_13h49.59.974,multiplicationStroop,2021.2.3,Win32,59.9880024,,,,,,,,,,,,,,,,,,,,,,,,,,,,,,,,,,,,,,,,,,,,,,,,,,,,,,,,,
,,,,right,1,0.2841,3,2,50,13,1,7,200,right,715,2022-01-27_13h49.59.974,multiplicationStroop,2021.2.3,Win32,59.9880024,,,,,,,,,,,,,,,,,,,,,,,,,,,,,,,,,,,,,,,,,,,,,,,,,,,,,,,,,
,,,,right,1,0.2839,3,3,51,9,1,2,200,right,715,2022-01-27_13h49.59.974,multiplicationStroop,2021.2.3,Win32,59.9880024,,,,,,,,,,,,,,,,,,,,,,,,,,,,,,,,,,,,,,,,,,,,,,,,,,,,,,,,,
,,,,left,1,0.2676,3,4,52,4,1,6,-200,left,715,2022-01-27_13h49.59.974,multiplicationStroop,2021.2.3,Win32,59.9880024,,,,,,,,,,,,,,,,,,,,,,,,,,,,,,,,,,,,,,,,,,,,,,,,,,,,,,,,,
,,,,left,1,0.2515,3,5,53,6,1,8,-200,left,715,2022-01-27_13h49.59.974,multiplicationStroop,2021.2.3,Win32,59.9880024,,,,,,,,,,,,,,,,,,,,,,,,,,,,,,,,,,,,,,,,,,,,,,,,,,,,,,,,,
,,,,right,1,0.3184,3,6,54,14,1,8,200,right,715,2022-01-27_13h49.59.974,multiplicationStroop,2021.2.3,Win32,59.9880024,,,,,,,,,,,,,,,,,,,,,,,,,,,,,,,,,,,,,,,,,,,,,,,,,,,,,,,,,
,,,,right,1,0.3003,3,7,55,8,1,1,200,right,715,2022-01-27_13h49.59.974,multiplicationStroop,2021.2.3,Win32,59.9880024,,,,,,,,,,,,,,,,,,,,,,,,,,,,,,,,,,,,,,,,,,,,,,,,,,,,,,,,,
,,,,left,1,0.2844,3,8,56,5,1,7,-200,left,715,2022-01-27_13h49.59.974,multiplicationStroop,2021.2.3,Win32,59.9880024,,,,,,,,,,,,,,,,,,,,,,,,,,,,,,,,,,,,,,,,,,,,,,,,,,,,,,,,,
,,,,right,1,0.3503,3,9,57,10,1,3,200,right,715,2022-01-27_13h49.59.974,multiplicationStroop,2021.2.3,Win32,59.9880024,,,,,,,,,,,,,,,,,,,,,,,,,,,,,,,,,,,,,,,,,,,,,,,,,,,,,,,,,
,,,,left,1,0.2674,3,10,58,3,1,4,-200,left,715,2022-01-27_13h49.59.974,multiplicationStroop,2021.2.3,Win32,59.9880024,,,,,,,,,,,,,,,,,,,,,,,,,,,,,,,,,,,,,,,,,,,,,,,,,,,,,,,,,
,,,,right,1,0.2526,3,11,59,15,1,9,200,right,715,2022-01-27_13h49.59.974,multiplicationStroop,2021.2.3,Win32,59.9880024,,,,,,,,,,,,,,,,,,,,,,,,,,,,,,,,,,,,,,,,,,,,,,,,,,,,,,,,,
,,,,right,1,0.5107,3,12,60,12,1,6,200,right,715,2022-01-27_13h49.59.974,multiplicationStroop,2021.2.3,Win32,59.9880024,,,,,,,,,,,,,,,,,,,,,,,,,,,,,,,,,,,,,,,,,,,,,,,,,,,,,,,,,
,,,,left,1,0.2671,3,13,61,1,1,2,-200,left,715,2022-01-27_13h49.59.974,multiplicationStroop,2021.2.3,Win32,59.9880024,,,,,,,,,,,,,,,,,,,,,,,,,,,,,,,,,,,,,,,,,,,,,,,,,,,,,,,,,
,,,,left,1,0.2496,3,14,62,0,1,1,-200,left,715,2022-01-27_13h49.59.974,multiplicationStroop,2021.2.3,Win32,59.9880024,,,,,,,,,,,,,,,,,,,,,,,,,,,,,,,,,,,,,,,,,,,,,,,,,,,,,,,,,
,,,,left,1,0.2747,3,15,63,7,1,9,-200,left,715,2022-01-27_13h49.59.974,multiplicationStroop,2021.2.3,Win32,59.9880024,,,,,,,,,,,,,,,,,,,,,,,,,,,,,,,,,,,,,,,,,,,,,,,,,,,,,,,,,
,,,,,,,,,,,,,,,715,2022-01-27_13h49.59.974,multiplicationStroop,2021.2.3,Win32,59.9880024,space,11.2163,space,23.9292,left,1,0.678,0,0,0,31,1,9,8,9 | 8,1,1.4111,1.9756,incongruent,left,,,,,,stimulusFile/magnitude.xlsx,,,,,,,,,,,,,,,,,,,,,,,,,,,,,,,
,,,,,,,,,,,,,,,715,2022-01-27_13h49.59.974,multiplicationStroop,2021.2.3,Win32,59.9880024,,,,,left,1,0.6967,0,1,1,14,1,8,6,8 | 6,2,1.9756,1.4111,congruent,left,,,,,,stimulusFile/magnitude.xlsx,,,,,,,,,,,,,,,,,,,,,,,,,,,,,,,
,,,,,,,,,,,,,,,715,2022-01-27_13h49.59.974,multiplicationStroop,2021.2.3,Win32,59.9880024,,,,,left,1,0.6389,0,2,2,54,1,7,6,7 | 6,1,1.6933,1.6933,neutral,left,,,,,,stimulusFile/magnitude.xlsx,,,,,,,,,,,,,,,,,,,,,,,,,,,,,,,
,,,,,,,,,,,,,,,715,2022-01-27_13h49.59.974,multiplicationStroop,2021.2.3,Win32,59.9880024,,,,,left,1,0.6173,0,3,3,20,1,6,1,6 | 1,5,1.9756,1.4111,congruent,left,,,,,,stimulusFile/magnitude.xlsx,,,,,,,,,,,,,,,,,,,,,,,,,,,,,,,
,,,,,,,,,,,,,,,715,2022-01-27_13h49.59.974,multiplicationStroop,2021.2.3,Win32,59.9880024,,,,,left,1,0.6489,0,4,4,63,1,9,7,9 | 7,2,1.6933,1.6933,neutral,left,,,,,,stimulusFile/magnitude.xlsx,,,,,,,,,,,,,,,,,,,,,,,,,,,,,,,
,,,,,,,,,,,,,,,715,2022-01-27_13h49.59.974,multiplicationStroop,2021.2.3,Win32,59.9880024,,,,,right,1,0.6466,0,5,5,34,1,6,8,6 | 8,2,1.9756,1.4111,incongruent,right,,,,,,stimulusFile/magnitude.xlsx,,,,,,,,,,,,,,,,,,,,,,,,,,,,,,,
,,,,,,,,,,,,,,,715,2022-01-27_13h49.59.974,multiplicationStroop,2021.2.3,Win32,59.9880024,,,,,right,1,0.5368,0,6,6,66,1,3,8,3 | 8,5,1.6933,1.6933,neutral,right,,,,,,stimulusFile/magnitude.xlsx,,,,,,,,,,,,,,,,,,,,,,,,,,,,,,,
,,,,,,,,,,,,,,,715,2022-01-27_13h49.59.974,multiplicationStroop,2021.2.3,Win32,59.9880024,,,,,right,1,0.6549,0,7,7,51,1,8,9,8 | 9,1,1.6933,1.6933,neutral,right,,,,,,stimulusFile/magnitude.xlsx,,,,,,,,,,,,,,,,,,,,,,,,,,,,,,,
,,,,,,,,,,,,,,,715,2022-01-27_13h49.59.974,multiplicationStroop,2021.2.3,Win32,59.9880024,,,,,right,1,0.4361,0,8,8,67,1,4,9,4 | 9,5,1.6933,1.6933,neutral,right,,,,,,stimulusFile/magnitude.xlsx,,,,,,,,,,,,,,,,,,,,,,,,,,,,,,,
,,,,,,,,,,,,,,,715,2022-01-27_13h49.59.974,multiplicationStroop,2021.2.3,Win32,59.9880024,,,,,right,1,0.4712,0,9,9,40,1,1,6,1 | 6,5,1.9756,1.4111,incongruent,right,,,,,,stimulusFile/magnitude.xlsx,,,,,,,,,,,,,,,,,,,,,,,,,,,,,,,
,,,,,,,,,,,,,,,715,2022-01-27_13h49.59.974,multiplicationStroop,2021.2.3,Win32,59.9880024,,,,,left,1,0.748,0,10,10,37,1,4,2,4 | 2,2,1.4111,1.9756,incongruent,left,,,,,,stimulusFile/magnitude.xlsx,,,,,,,,,,,,,,,,,,,,,,,,,,,,,,,
,,,,,,,,,,,,,,,715,2022-01-27_13h49.59.974,multiplicationStroop,2021.2.3,Win32,59.9880024,,,,,left,1,0.5793,0,11,11,5,1,4,3,4 | 3,1,1.9756,1.4111,congruent,left,,,,,,stimulusFile/magnitude.xlsx,,,,,,,,,,,,,,,,,,,,,,,,,,,,,,,
,,,,,,,,,,,,,,,715,2022-01-27_13h49.59.974,multiplicationStroop,2021.2.3,Win32,59.9880024,,,,,left,1,0.5965,0,12,12,71,1,9,4,9 | 4,5,1.6933,1.6933,neutral,left,,,,,,stimulusFile/magnitude.xlsx,,,,,,,,,,,,,,,,,,,,,,,,,,,,,,,
,,,,,,,,,,,,,,,715,2022-01-27_13h49.59.974,multiplicationStroop,2021.2.3,Win32,59.9880024,,,,,right,1,0.5511,0,13,13,19,1,4,9,4 | 9,5,1.4111,1.9756,congruent,right,,,,,,stimulusFile/magnitude.xlsx,,,,,,,,,,,,,,,,,,,,,,,,,,,,,,,
,,,,,,,,,,,,,,,715,2022-01-27_13h49.59.974,multiplicationStroop,2021.2.3,Win32,59.9880024,,,,,right,1,0.6619,0,14,14,50,1,6,7,6 | 7,1,1.6933,1.6933,neutral,right,,,,,,stimulusFile/magnitude.xlsx,,,,,,,,,,,,,,,,,,,,,,,,,,,,,,,
,,,,,,,,,,,,,,,715,2022-01-27_13h49.59.974,multiplicationStroop,2021.2.3,Win32,59.9880024,,,,,right,1,0.5353,0,15,15,11,1,7,9,7 | 9,2,1.4111,1.9756,congruent,right,,,,,,stimulusFile/magnitude.xlsx,,,,,,,,,,,,,,,,,,,,,,,,,,,,,,,
,,,,,,,,,,,,,,,715,2022-01-27_13h49.59.974,multiplicationStroop,2021.2.3,Win32,59.9880024,,,,,left,1,0.568,0,16,16,44,1,6,1,6 | 1,5,1.4111,1.9756,incongruent,left,,,,,,stimulusFile/magnitude.xlsx,,,,,,,,,,,,,,,,,,,,,,,,,,,,,,,
,,,,,,,,,,,,,,,715,2022-01-27_13h49.59.974,multiplicationStroop,2021.2.3,Win32,59.9880024,,,,,left,1,0.5181,0,17,17,55,1,9,8,9 | 8,1,1.6933,1.6933,neutral,left,,,,,,stimulusFile/magnitude.xlsx,,,,,,,,,,,,,,,,,,,,,,,,,,,,,,,
,,,,,,,,,,,,,,,715,2022-01-27_13h49.59.974,multiplicationStroop,2021.2.3,Win32,59.9880024,,,,,left,1,0.4719,0,18,18,45,1,7,2,7 | 2,5,1.4111,1.9756,incongruent,left,,,,,,stimulusFile/magnitude.xlsx,,,,,,,,,,,,,,,,,,,,,,,,,,,,,,,
,,,,,,,,,,,,,,,715,2022-01-27_13h49.59.974,multiplicationStroop,2021.2.3,Win32,59.9880024,,,,,right,1,0.5172,0,19,19,57,1,2,4,2 | 4,2,1.6933,1.6933,neutral,right,,,,,,stimulusFile/magnitude.xlsx,,,,,,,,,,,,,,,,,,,,,,,,,,,,,,,
,,,,,,,,,,,,,,,715,2022-01-27_13h49.59.974,multiplicationStroop,2021.2.3,Win32,59.9880024,,,,,left,1,0.5075,0,20,20,53,1,4,3,4 | 3,1,1.6933,1.6933,neutral,left,,,,,,stimulusFile/magnitude.xlsx,,,,,,,,,,,,,,,,,,,,,,,,,,,,,,,
,,,,,,,,,,,,,,,715,2022-01-27_13h49.59.974,multiplicationStroop,2021.2.3,Win32,59.9880024,,,,,right,1,0.5346,0,21,21,25,1,3,4,3 | 4,1,1.9756,1.4111,incongruent,right,,,,,,stimulusFile/magnitude.xlsx,,,,,,,,,,,,,,,,,,,,,,,,,,,,,,,
,,,,,,,,,,,,,,,715,2022-01-27_13h49.59.974,multiplicationStroop,2021.2.3,Win32,59.9880024,,,,,right,1,0.6682,0,22,22,27,1,8,9,8 | 9,1,1.9756,1.4111,incongruent,right,,,,,,stimulusFile/magnitude.xlsx,,,,,,,,,,,,,,,,,,,,,,,,,,,,,,,
,,,,,,,,,,,,,,,715,2022-01-27_13h49.59.974,multiplicationStroop,2021.2.3,Win32,59.9880024,,,,,right,1,0.634,0,23,23,42,1,3,8,3 | 8,5,1.9756,1.4111,incongruent,right,,,,,,stimulusFile/magnitude.xlsx,,,,,,,,,,,,,,,,,,,,,,,,,,,,,,,
,,,,,,,,,,,,,,,715,2022-01-27_13h49.59.974,multiplicationStroop,2021.2.3,Win32,59.9880024,,,,,right,1,0.6341,0,24,24,49,1,3,4,3 | 4,1,1.6933,1.6933,neutral,right,,,,,,stimulusFile/magnitude.xlsx,,,,,,,,,,,,,,,,,,,,,,,,,,,,,,,
,,,,,,,,,,,,,,,715,2022-01-27_13h49.59.974,multiplicationStroop,2021.2.3,Win32,59.9880024,,,,,right,1,0.4672,0,25,25,18,1,3,8,3 | 8,5,1.4111,1.9756,congruent,right,,,,,,stimulusFile/magnitude.xlsx,,,,,,,,,,,,,,,,,,,,,,,,,,,,,,,
,,,,,,,,,,,,,,,715,2022-01-27_13h49.59.974,multiplicationStroop,2021.2.3,Win32,59.9880024,,,,,right,1,0.4471,0,26,26,64,1,1,6,1 | 6,5,1.6933,1.6933,neutral,right,,,,,,stimulusFile/magnitude.xlsx,,,,,,,,,,,,,,,,,,,,,,,,,,,,,,,
,,,,,,,,,,,,,,,715,2022-01-27_13h49.59.974,multiplicationStroop,2021.2.3,Win32,59.9880024,,,,,left,1,0.485,0,27,27,46,1,8,3,8 | 3,5,1.4111,1.9756,incongruent,left,,,,,,stimulusFile/magnitude.xlsx,,,,,,,,,,,,,,,,,,,,,,,,,,,,,,,
,,,,,,,,,,,,,,,715,2022-01-27_13h49.59.974,multiplicationStroop,2021.2.3,Win32,59.9880024,,,,,left,1,0.4513,0,28,28,15,1,9,7,9 | 7,2,1.9756,1.4111,congruent,left,,,,,,stimulusFile/magnitude.xlsx,,,,,,,,,,,,,,,,,,,,,,,,,,,,,,,
,,,,,,,,,,,,,,,715,2022-01-27_13h49.59.974,multiplicationStroop,2021.2.3,Win32,59.9880024,,,,,left,1,0.401,0,29,29,6,1,7,6,7 | 6,1,1.9756,1.4111,congruent,left,,,,,,stimulusFile/magnitude.xlsx,,,,,,,,,,,,,,,,,,,,,,,,,,,,,,,
,,,,,,,,,,,,,,,715,2022-01-27_13h49.59.974,multiplicationStroop,2021.2.3,Win32,59.9880024,,,,,left,1,0.4004,0,30,30,68,1,6,1,6 | 1,5,1.6933,1.6933,neutral,left,,,,,,stimulusFile/magnitude.xlsx,,,,,,,,,,,,,,,,,,,,,,,,,,,,,,,
,,,,,,,,,,,,,,,715,2022-01-27_13h49.59.974,multiplicationStroop,2021.2.3,Win32,59.9880024,,,,,left,1,0.5172,0,31,31,62,1,8,6,8 | 6,2,1.6933,1.6933,neutral,left,,,,,,stimulusFile/magnitude.xlsx,,,,,,,,,,,,,,,,,,,,,,,,,,,,,,,
,,,,,,,,,,,,,,,715,2022-01-27_13h49.59.974,multiplicationStroop,2021.2.3,Win32,59.9880024,,,,,left,1,0.4248,0,32,32,70,1,8,3,8 | 3,5,1.6933,1.6933,neutral,left,,,,,,stimulusFile/magnitude.xlsx,,,,,,,,,,,,,,,,,,,,,,,,,,,,,,,
,,,,,,,,,,,,,,,715,2022-01-27_13h49.59.974,multiplicationStroop,2021.2.3,Win32,59.9880024,,,,,left,1,0.441,0,33,33,60,1,3,1,3 | 1,2,1.6933,1.6933,neutral,left,,,,,,stimulusFile/magnitude.xlsx,,,,,,,,,,,,,,,,,,,,,,,,,,,,,,,
,,,,,,,,,,,,,,,715,2022-01-27_13h49.59.974,multiplicationStroop,2021.2.3,Win32,59.9880024,,,,,right,1,0.4583,0,34,34,26,1,6,7,6 | 7,1,1.9756,1.4111,incongruent,right,,,,,,stimulusFile/magnitude.xlsx,,,,,,,,,,,,,,,,,,,,,,,,,,,,,,,
,,,,,,,,,,,,,,,715,2022-01-27_13h49.59.974,multiplicationStroop,2021.2.3,Win32,59.9880024,,,,,left,1,0.4397,0,35,35,47,1,9,4,9 | 4,5,1.4111,1.9756,incongruent,left,,,,,,stimulusFile/magnitude.xlsx,,,,,,,,,,,,,,,,,,,,,,,,,,,,,,,
,,,,,,,,,,,,,,,715,2022-01-27_13h49.59.974,multiplicationStroop,2021.2.3,Win32,59.9880024,,,,,right,1,0.394,0,36,36,1,1,3,4,3 | 4,1,1.4111,1.9756,congruent,right,,,,,,stimulusFile/magnitude.xlsx,,,,,,,,,,,,,,,,,,,,,,,,,,,,,,,
,,,,,,,,,,,,,,,715,2022-01-27_13h49.59.974,multiplicationStroop,2021.2.3,Win32,59.9880024,,,,,right,1,0.4231,0,37,37,56,1,1,3,1 | 3,2,1.6933,1.6933,neutral,right,,,,,,stimulusFile/magnitude.xlsx,,,,,,,,,,,,,,,,,,,,,,,,,,,,,,,
,,,,,,,,,,,,,,,715,2022-01-27_13h49.59.974,multiplicationStroop,2021.2.3,Win32,59.9880024,,,,,left,1,0.3846,0,38,38,28,1,2,1,2 | 1,1,1.4111,1.9756,incongruent,left,,,,,,stimulusFile/magnitude.xlsx,,,,,,,,,,,,,,,,,,,,,,,,,,,,,,,
,,,,,,,,,,,,,,,715,2022-01-27_13h49.59.974,multiplicationStroop,2021.2.3,Win32,59.9880024,,,,,left,1,0.4005,0,39,39,4,1,2,1,2 | 1,1,1.9756,1.4111,congruent,left,,,,,,stimulusFile/magnitude.xlsx,,,,,,,,,,,,,,,,,,,,,,,,,,,,,,,
,,,,,,,,,,,,,,,715,2022-01-27_13h49.59.974,multiplicationStroop,2021.2.3,Win32,59.9880024,,,,,right,1,0.5165,0,40,40,9,1,2,4,2 | 4,2,1.4111,1.9756,congruent,right,,,,,,stimulusFile/magnitude.xlsx,,,,,,,,,,,,,,,,,,,,,,,,,,,,,,,
,,,,,,,,,,,,,,,715,2022-01-27_13h49.59.974,multiplicationStroop,2021.2.3,Win32,59.9880024,,,,,left,1,0.4342,0,41,41,39,1,9,7,9 | 7,2,1.4111,1.9756,incongruent,left,,,,,,stimulusFile/magnitude.xlsx,,,,,,,,,,,,,,,,,,,,,,,,,,,,,,,
,,,,,,,,,,,,,,,715,2022-01-27_13h49.59.974,multiplicationStroop,2021.2.3,Win32,59.9880024,,,,,right,1,0.4054,0,42,42,48,1,1,2,1 | 2,1,1.6933,1.6933,neutral,right,,,,,,stimulusFile/magnitude.xlsx,,,,,,,,,,,,,,,,,,,,,,,,,,,,,,,
,,,,,,,,,,,,,,,715,2022-01-27_13h49.59.974,multiplicationStroop,2021.2.3,Win32,59.9880024,,,,,left,1,0.4176,0,43,43,69,1,7,2,7 | 2,5,1.6933,1.6933,neutral,left,,,,,,stimulusFile/magnitude.xlsx,,,,,,,,,,,,,,,,,,,,,,,,,,,,,,,
,,,,,,,,,,,,,,,715,2022-01-27_13h49.59.974,multiplicationStroop,2021.2.3,Win32,59.9880024,,,,,left,1,0.3913,0,44,44,22,1,8,3,8 | 3,5,1.9756,1.4111,congruent,left,,,,,,stimulusFile/magnitude.xlsx,,,,,,,,,,,,,,,,,,,,,,,,,,,,,,,
,,,,,,,,,,,,,,,715,2022-01-27_13h49.59.974,multiplicationStroop,2021.2.3,Win32,59.9880024,,,,,left,1,0.5189,0,45,45,52,1,2,1,2 | 1,1,1.6933,1.6933,neutral,left,,,,,,stimulusFile/magnitude.xlsx,,,,,,,,,,,,,,,,,,,,,,,,,,,,,,,
,,,,,,,,,,,,,,,715,2022-01-27_13h49.59.974,multiplicationStroop,2021.2.3,Win32,59.9880024,,,,,left,1,0.5168,0,46,46,21,1,7,2,7 | 2,5,1.9756,1.4111,congruent,left,,,,,,stimulusFile/magnitude.xlsx,,,,,,,,,,,,,,,,,,,,,,,,,,,,,,,
,,,,,,,,,,,,,,,715,2022-01-27_13h49.59.974,multiplicationStroop,2021.2.3,Win32,59.9880024,,,,,left,0,0.4902,0,47,47,32,1,1,3,1 | 3,2,1.9756,1.4111,incongruent,right,,,,,,stimulusFile/magnitude.xlsx,,,,,,,,,,,,,,,,,,,,,,,,,,,,,,,
,,,,,,,,,,,,,,,715,2022-01-27_13h49.59.974,multiplicationStroop,2021.2.3,Win32,59.9880024,,,,,right,1,0.7885,0,48,48,65,1,2,7,2 | 7,5,1.6933,1.6933,neutral,right,,,,,,stimulusFile/magnitude.xlsx,,,,,,,,,,,,,,,,,,,,,,,,,,,,,,,
,,,,,,,,,,,,,,,715,2022-01-27_13h49.59.974,multiplicationStroop,2021.2.3,Win32,59.9880024,,,,,left,1,0.5007,0,49,49,61,1,4,2,4 | 2,2,1.6933,1.6933,neutral,left,,,,,,stimulusFile/magnitude.xlsx,,,,,,,,,,,,,,,,,,,,,,,,,,,,,,,
,,,,,,,,,,,,,,,715,2022-01-27_13h49.59.974,multiplicationStroop,2021.2.3,Win32,59.9880024,,,,,left,1,0.5186,0,50,50,13,1,4,2,4 | 2,2,1.9756,1.4111,congruent,left,,,,,,stimulusFile/magnitude.xlsx,,,,,,,,,,,,,,,,,,,,,,,,,,,,,,,
,,,,,,,,,,,,,,,715,2022-01-27_13h49.59.974,multiplicationStroop,2021.2.3,Win32,59.9880024,,,,,right,1,0.47,0,51,51,16,1,1,6,1 | 6,5,1.4111,1.9756,congruent,right,,,,,,stimulusFile/magnitude.xlsx,,,,,,,,,,,,,,,,,,,,,,,,,,,,,,,
,,,,,,,,,,,,,,,715,2022-01-27_13h49.59.974,multiplicationStroop,2021.2.3,Win32,59.9880024,,,,,left,1,0.4844,0,52,52,38,1,8,6,8 | 6,2,1.4111,1.9756,incongruent,left,,,,,,stimulusFile/magnitude.xlsx,,,,,,,,,,,,,,,,,,,,,,,,,,,,,,,
,,,,,,,,,,,,,,,715,2022-01-27_13h49.59.974,multiplicationStroop,2021.2.3,Win32,59.9880024,,,,,left,1,0.5423,0,53,53,12,1,3,1,3 | 1,2,1.9756,1.4111,congruent,left,,,,,,stimulusFile/magnitude.xlsx,,,,,,,,,,,,,,,,,,,,,,,,,,,,,,,
,,,,,,,,,,,,,,,715,2022-01-27_13h49.59.974,multiplicationStroop,2021.2.3,Win32,59.9880024,,,,,right,1,0.3845,0,54,54,10,1,6,8,6 | 8,2,1.4111,1.9756,congruent,right,,,,,,stimulusFile/magnitude.xlsx,,,,,,,,,,,,,,,,,,,,,,,,,,,,,,,
,,,,,,,,,,,,,,,715,2022-01-27_13h49.59.974,multiplicationStroop,2021.2.3,Win32,59.9880024,,,,,right,1,0.4853,0,55,55,59,1,7,9,7 | 9,2,1.6933,1.6933,neutral,right,,,,,,stimulusFile/magnitude.xlsx,,,,,,,,,,,,,,,,,,,,,,,,,,,,,,,
,,,,,,,,,,,,,,,715,2022-01-27_13h49.59.974,multiplicationStroop,2021.2.3,Win32,59.9880024,,,,,right,1,0.5809,0,56,56,24,1,1,2,1 | 2,1,1.9756,1.4111,incongruent,right,,,,,,stimulusFile/magnitude.xlsx,,,,,,,,,,,,,,,,,,,,,,,,,,,,,,,
,,,,,,,,,,,,,,,715,2022-01-27_13h49.59.974,multiplicationStroop,2021.2.3,Win32,59.9880024,,,,,right,1,0.5992,0,57,57,43,1,4,9,4 | 9,5,1.9756,1.4111,incongruent,right,,,,,,stimulusFile/magnitude.xlsx,,,,,,,,,,,,,,,,,,,,,,,,,,,,,,,
,,,,,,,,,,,,,,,715,2022-01-27_13h49.59.974,multiplicationStroop,2021.2.3,Win32,59.9880024,,,,,right,1,0.451,0,58,58,3,1,8,9,8 | 9,1,1.4111,1.9756,congruent,right,,,,,,stimulusFile/magnitude.xlsx,,,,,,,,,,,,,,,,,,,,,,,,,,,,,,,
,,,,,,,,,,,,,,,715,2022-01-27_13h49.59.974,multiplicationStroop,2021.2.3,Win32,59.9880024,,,,,right,1,0.4798,0,59,59,35,1,7,9,7 | 9,2,1.9756,1.4111,incongruent,right,,,,,,stimulusFile/magnitude.xlsx,,,,,,,,,,,,,,,,,,,,,,,,,,,,,,,
,,,,,,,,,,,,,,,715,2022-01-27_13h49.59.974,multiplicationStroop,2021.2.3,Win32,59.9880024,,,,,right,1,0.4515,0,60,60,8,1,1,3,1 | 3,2,1.4111,1.9756,congruent,right,,,,,,stimulusFile/magnitude.xlsx,,,,,,,,,,,,,,,,,,,,,,,,,,,,,,,
,,,,,,,,,,,,,,,715,2022-01-27_13h49.59.974,multiplicationStroop,2021.2.3,Win32,59.9880024,,,,,right,1,0.5842,0,61,61,33,1,2,4,2 | 4,2,1.9756,1.4111,incongruent,right,,,,,,stimulusFile/magnitude.xlsx,,,,,,,,,,,,,,,,,,,,,,,,,,,,,,,
,,,,,,,,,,,,,,,715,2022-01-27_13h49.59.974,multiplicationStroop,2021.2.3,Win32,59.9880024,,,,,left,1,0.4418,0,62,62,23,1,9,4,9 | 4,5,1.9756,1.4111,congruent,left,,,,,,stimulusFile/magnitude.xlsx,,,,,,,,,,,,,,,,,,,,,,,,,,,,,,,
,,,,,,,,,,,,,,,715,2022-01-27_13h49.59.974,multiplicationStroop,2021.2.3,Win32,59.9880024,,,,,right,1,0.4415,0,63,63,2,1,6,7,6 | 7,1,1.4111,1.9756,congruent,right,,,,,,stimulusFile/magnitude.xlsx,,,,,,,,,,,,,,,,,,,,,,,,,,,,,,,
,,,,,,,,,,,,,,,715,2022-01-27_13h49.59.974,multiplicationStroop,2021.2.3,Win32,59.9880024,,,,,left,1,0.4294,0,64,64,36,1,3,1,3 | 1,2,1.4111,1.9756,incongruent,left,,,,,,stimulusFile/magnitude.xlsx,,,,,,,,,,,,,,,,,,,,,,,,,,,,,,,
,,,,,,,,,,,,,,,715,2022-01-27_13h49.59.974,multiplicationStroop,2021.2.3,Win32,59.9880024,,,,,left,1,0.4841,0,65,65,30,1,7,6,7 | 6,1,1.4111,1.9756,incongruent,left,,,,,,stimulusFile/magnitude.xlsx,,,,,,,,,,,,,,,,,,,,,,,,,,,,,,,
,,,,,,,,,,,,,,,715,2022-01-27_13h49.59.974,multiplicationStroop,2021.2.3,Win32,59.9880024,,,,,right,1,0.4218,0,66,66,58,1,6,8,6 | 8,2,1.6933,1.6933,neutral,right,,,,,,stimulusFile/magnitude.xlsx,,,,,,,,,,,,,,,,,,,,,,,,,,,,,,,
,,,,,,,,,,,,,,,715,2022-01-27_13h49.59.974,multiplicationStroop,2021.2.3,Win32,59.9880024,,,,,right,1,0.4208,0,67,67,17,1,2,7,2 | 7,5,1.4111,1.9756,congruent,right,,,,,,stimulusFile/magnitude.xlsx,,,,,,,,,,,,,,,,,,,,,,,,,,,,,,,
,,,,,,,,,,,,,,,715,2022-01-27_13h49.59.974,multiplicationStroop,2021.2.3,Win32,59.9880024,,,,,right,1,0.6261,0,68,68,41,1,2,7,2 | 7,5,1.9756,1.4111,incongruent,right,,,,,,stimulusFile/magnitude.xlsx,,,,,,,,,,,,,,,,,,,,,,,,,,,,,,,
,,,,,,,,,,,,,,,715,2022-01-27_13h49.59.974,multiplicationStroop,2021.2.3,Win32,59.9880024,,,,,right,1,0.4991,0,69,69,0,1,1,2,1 | 2,1,1.4111,1.9756,congruent,right,,,,,,stimulusFile/magnitude.xlsx,,,,,,,,,,,,,,,,,,,,,,,,,,,,,,,
,,,,,,,,,,,,,,,715,2022-01-27_13h49.59.974,multiplicationStroop,2021.2.3,Win32,59.9880024,,,,,left,1,0.5337,0,70,70,29,1,4,3,4 | 3,1,1.4111,1.9756,incongruent,left,,,,,,stimulusFile/magnitude.xlsx,,,,,,,,,,,,,,,,,,,,,,,,,,,,,,,
,,,,,,,,,,,,,,,715,2022-01-27_13h49.59.974,multiplicationStroop,2021.2.3,Win32,59.9880024,,,,,left,1,0.4019,0,71,71,7,1,9,8,9 | 8,1,1.9756,1.4111,congruent,left,,,,,,stimulusFile/magnitude.xlsx,,,,,,,,,,,,,,,,,,,,,,,,,,,,,,,
,,,,,,,,,,,,,,,715,2022-01-27_13h49.59.974,multiplicationStroop,2021.2.3,Win32,59.9880024,,,,,,,,,,,,,,,,,,,,,0,0,0,0,1,stimulusFile/magnitude.xlsx,NUMERICALLY larger (larger coefficient).,images/numericallyLarger.png,,,,,,,,,,,,,,,,,,,,,,,,,,,,,
,,,,,,,,,,,,,,,715,2022-01-27_13h49.59.974,multiplicationStroop,2021.2.3,Win32,59.9880024,space,2.3502,space,5.6003,right,1,0.8301,0,0,0,39,1,9,7,9 | 7,2,1.4111,1.9756,incongruent,right,,,,,,stimulusFile/physical.xlsx,,,,,,,,,,,,,,,,,,,,,,,,,,,,,,,
,,,,,,,,,,,,,,,715,2022-01-27_13h49.59.974,multiplicationStroop,2021.2.3,Win32,59.9880024,,,,,left,1,0.4747,0,1,1,24,1,1,2,1 | 2,1,1.9756,1.4111,incongruent,left,,,,,,stimulusFile/physical.xlsx,,,,,,,,,,,,,,,,,,,,,,,,,,,,,,,
,,,,,,,,,,,,,,,715,2022-01-27_13h49.59.974,multiplicationStroop,2021.2.3,Win32,59.9880024,,,,,right,1,0.5511,0,2,2,63,1,9,9,9 | 9,0,1.4111,1.9756,neutral,right,,,,,,stimulusFile/physical.xlsx,,,,,,,,,,,,,,,,,,,,,,,,,,,,,,,
,,,,,,,,,,,,,,,715,2022-01-27_13h49.59.974,multiplicationStroop,2021.2.3,Win32,59.9880024,,,,,right,1,0.7121,0,3,3,28,1,2,1,2 | 1,1,1.4111,1.9756,incongruent,right,,,,,,stimulusFile/physical.xlsx,,,,,,,,,,,,,,,,,,,,,,,,,,,,,,,
,,,,,,,,,,,,,,,715,2022-01-27_13h49.59.974,multiplicationStroop,2021.2.3,Win32,59.9880024,,,,,left,0,0.5907,0,4,4,64,1,1,1,1 | 1,0,1.9756,1.4111,neutral,right,,,,,,stimulusFile/physical.xlsx,,,,,,,,,,,,,,,,,,,,,,,,,,,,,,,
,,,,,,,,,,,,,,,715,2022-01-27_13h49.59.974,multiplicationStroop,2021.2.3,Win32,59.9880024,,,,,right,1,0.607,0,5,5,44,1,6,1,6 | 1,5,1.4111,1.9756,incongruent,right,,,,,,stimulusFile/physical.xlsx,,,,,,,,,,,,,,,,,,,,,,,,,,,,,,,
,,,,,,,,,,,,,,,715,2022-01-27_13h49.59.974,multiplicationStroop,2021.2.3,Win32,59.9880024,,,,,right,1,0.5372,0,6,6,11,1,7,9,7 | 9,2,1.4111,1.9756,congruent,right,,,,,,stimulusFile/physical.xlsx,,,,,,,,,,,,,,,,,,,,,,,,,,,,,,,
,,,,,,,,,,,,,,,715,2022-01-27_13h49.59.974,multiplicationStroop,2021.2.3,Win32,59.9880024,,,,,left,1,0.4333,0,7,7,54,1,7,7,7 | 7,0,1.9756,1.4111,neutral,left,,,,,,stimulusFile/physical.xlsx,,,,,,,,,,,,,,,,,,,,,,,,,,,,,,,
,,,,,,,,,,,,,,,715,2022-01-27_13h49.59.974,multiplicationStroop,2021.2.3,Win32,59.9880024,,,,,left,1,0.5167,0,8,8,33,1,2,4,2 | 4,2,1.9756,1.4111,incongruent,left,,,,,,stimulusFile/physical.xlsx,,,,,,,,,,,,,,,,,,,,,,,,,,,,,,,
,,,,,,,,,,,,,,,715,2022-01-27_13h49.59.974,multiplicationStroop,2021.2.3,Win32,59.9880024,,,,,right,1,0.6169,0,9,9,9,1,2,4,2 | 4,2,1.4111,1.9756,congruent,right,,,,,,stimulusFile/physical.xlsx,,,,,,,,,,,,,,,,,,,,,,,,,,,,,,,
,,,,,,,,,,,,,,,715,2022-01-27_13h49.59.974,multiplicationStroop,2021.2.3,Win32,59.9880024,,,,,left,1,0.4668,0,10,10,27,1,8,9,8 | 9,1,1.9756,1.4111,incongruent,left,,,,,,stimulusFile/physical.xlsx,,,,,,,,,,,,,,,,,,,,,,,,,,,,,,,
,,,,,,,,,,,,,,,715,2022-01-27_13h49.59.974,multiplicationStroop,2021.2.3,Win32,59.9880024,,,,,left,1,0.6749,0,11,11,49,1,3,3,3 | 3,0,1.9756,1.4111,neutral,left,,,,,,stimulusFile/physical.xlsx,,,,,,,,,,,,,,,,,,,,,,,,,,,,,,,
,,,,,,,,,,,,,,,715,2022-01-27_13h49.59.974,multiplicationStroop,2021.2.3,Win32,59.9880024,,,,,right,1,0.4675,0,12,12,62,1,8,8,8 | 8,0,1.4111,1.9756,neutral,right,,,,,,stimulusFile/physical.xlsx,,,,,,,,,,,,,,,,,,,,,,,,,,,,,,,
,,,,,,,,,,,,,,,715,2022-01-27_13h49.59.974,multiplicationStroop,2021.2.3,Win32,59.9880024,,,,,right,1,0.4971,0,13,13,31,1,9,8,9 | 8,1,1.4111,1.9756,incongruent,right,,,,,,stimulusFile/physical.xlsx,,,,,,,,,,,,,,,,,,,,,,,,,,,,,,,
,,,,,,,,,,,,,,,715,2022-01-27_13h49.59.974,multiplicationStroop,2021.2.3,Win32,59.9880024,,,,,left,1,0.6015,0,14,14,5,1,4,3,4 | 3,1,1.9756,1.4111,congruent,left,,,,,,stimulusFile/physical.xlsx,,,,,,,,,,,,,,,,,,,,,,,,,,,,,,,
,,,,,,,,,,,,,,,715,2022-01-27_13h49.59.974,multiplicationStroop,2021.2.3,Win32,59.9880024,,,,,left,1,0.6347,0,15,15,52,1,2,2,2 | 2,0,1.9756,1.4111,neutral,left,,,,,,stimulusFile/physical.xlsx,,,,,,,,,,,,,,,,,,,,,,,,,,,,,,,
,,,,,,,,,,,,,,,715,2022-01-27_13h49.59.974,multiplicationStroop,2021.2.3,Win32,59.9880024,,,,,left,1,0.5284,0,16,16,35,1,7,9,7 | 9,2,1.9756,1.4111,incongruent,left,,,,,,stimulusFile/physical.xlsx,,,,,,,,,,,,,,,,,,,,,,,,,,,,,,,
,,,,,,,,,,,,,,,715,2022-01-27_13h49.59.974,multiplicationStroop,2021.2.3,Win32,59.9880024,,,,,right,1,0.4176,0,17,17,18,1,3,8,3 | 8,5,1.4111,1.9756,congruent,right,,,,,,stimulusFile/physical.xlsx,,,,,,,,,,,,,,,,,,,,,,,,,,,,,,,
,,,,,,,,,,,,,,,715,2022-01-27_13h49.59.974,multiplicationStroop,2021.2.3,Win32,59.9880024,,,,,left,1,0.4506,0,18,18,43,1,4,9,4 | 9,5,1.9756,1.4111,incongruent,left,,,,,,stimulusFile/physical.xlsx,,,,,,,,,,,,,,,,,,,,,,,,,,,,,,,
,,,,,,,,,,,,,,,715,2022-01-27_13h49.59.974,multiplicationStroop,2021.2.3,Win32,59.9880024,,,,,right,1,0.4839,0,19,19,67,1,4,4,4 | 4,0,1.4111,1.9756,neutral,right,,,,,,stimulusFile/physical.xlsx,,,,,,,,,,,,,,,,,,,,,,,,,,,,,,,
,,,,,,,,,,,,,,,715,2022-01-27_13h49.59.974,multiplicationStroop,2021.2.3,Win32,59.9880024,,,,,left,1,0.3545,0,20,20,25,1,3,4,3 | 4,1,1.9756,1.4111,incongruent,left,,,,,,stimulusFile/physical.xlsx,,,,,,,,,,,,,,,,,,,,,,,,,,,,,,,
,,,,,,,,,,,,,,,715,2022-01-27_13h49.59.974,multiplicationStroop,2021.2.3,Win32,59.9880024,,,,,left,1,0.4335,0,21,21,53,1,4,4,4 | 4,0,1.9756,1.4111,neutral,left,,,,,,stimulusFile/physical.xlsx,,,,,,,,,,,,,,,,,,,,,,,,,,,,,,,
,,,,,,,,,,,,,,,715,2022-01-27_13h49.59.974,multiplicationStroop,2021.2.3,Win32,59.9880024,,,,,right,1,0.4347,0,22,22,10,1,6,8,6 | 8,2,1.4111,1.9756,congruent,right,,,,,,stimulusFile/physical.xlsx,,,,,,,,,,,,,,,,,,,,,,,,,,,,,,,
,,,,,,,,,,,,,,,715,2022-01-27_13h49.59.974,multiplicationStroop,2021.2.3,Win32,59.9880024,,,,,left,1,0.367,0,23,23,7,1,9,8,9 | 8,1,1.9756,1.4111,congruent,left,,,,,,stimulusFile/physical.xlsx,,,,,,,,,,,,,,,,,,,,,,,,,,,,,,,
,,,,,,,,,,,,,,,715,2022-01-27_13h49.59.974,multiplicationStroop,2021.2.3,Win32,59.9880024,,,,,left,1,0.3485,0,24,24,20,1,6,1,6 | 1,5,1.9756,1.4111,congruent,left,,,,,,stimulusFile/physical.xlsx,,,,,,,,,,,,,,,,,,,,,,,,,,,,,,,
,,,,,,,,,,,,,,,715,2022-01-27_13h49.59.974,multiplicationStroop,2021.2.3,Win32,59.9880024,,,,,right,1,0.4116,0,25,25,65,1,2,2,2 | 2,0,1.4111,1.9756,neutral,right,,,,,,stimulusFile/physical.xlsx,,,,,,,,,,,,,,,,,,,,,,,,,,,,,,,
,,,,,,,,,,,,,,,715,2022-01-27_13h49.59.974,multiplicationStroop,2021.2.3,Win32,59.9880024,,,,,right,0,0.4,0,26,26,71,1,9,9,9 | 9,0,1.4111,1.9756,neutral,left,,,,,,stimulusFile/physical.xlsx,,,,,,,,,,,,,,,,,,,,,,,,,,,,,,,
,,,,,,,,,,,,,,,715,2022-01-27_13h49.59.974,multiplicationStroop,2021.2.3,Win32,59.9880024,,,,,left,1,0.4008,0,27,27,21,1,7,2,7 | 2,5,1.9756,1.4111,congruent,left,,,,,,stimulusFile/physical.xlsx,,,,,,,,,,,,,,,,,,,,,,,,,,,,,,,
,,,,,,,,,,,,,,,715,2022-01-27_13h49.59.974,multiplicationStroop,2021.2.3,Win32,59.9880024,,,,,right,1,0.6341,0,28,28,38,1,8,6,8 | 6,2,1.4111,1.9756,incongruent,right,,,,,,stimulusFile/physical.xlsx,,,,,,,,,,,,,,,,,,,,,,,,,,,,,,,
,,,,,,,,,,,,,,,715,2022-01-27_13h49.59.974,multiplicationStroop,2021.2.3,Win32,59.9880024,,,,,left,1,0.5063,0,29,29,40,1,1,6,1 | 6,5,1.9756,1.4111,incongruent,left,,,,,,stimulusFile/physical.xlsx,,,,,,,,,,,,,,,,,,,,,,,,,,,,,,,
,,,,,,,,,,,,,,,715,2022-01-27_13h49.59.974,multiplicationStroop,2021.2.3,Win32,59.9880024,,,,,right,1,0.3875,0,30,30,19,1,4,9,4 | 9,5,1.4111,1.9756,congruent,right,,,,,,stimulusFile/physical.xlsx,,,,,,,,,,,,,,,,,,,,,,,,,,,,,,,
,,,,,,,,,,,,,,,715,2022-01-27_13h49.59.974,multiplicationStroop,2021.2.3,Win32,59.9880024,,,,,left,1,0.4018,0,31,31,41,1,2,7,2 | 7,5,1.9756,1.4111,incongruent,left,,,,,,stimulusFile/physical.xlsx,,,,,,,,,,,,,,,,,,,,,,,,,,,,,,,
,,,,,,,,,,,,,,,715,2022-01-27_13h49.59.974,multiplicationStroop,2021.2.3,Win32,59.9880024,,,,,right,1,0.4015,0,32,32,1,1,3,4,3 | 4,1,1.4111,1.9756,congruent,right,,,,,,stimulusFile/physical.xlsx,,,,,,,,,,,,,,,,,,,,,,,,,,,,,,,
,,,,,,,,,,,,,,,715,2022-01-27_13h49.59.974,multiplicationStroop,2021.2.3,Win32,59.9880024,,,,,left,0,0.3603,0,33,33,66,1,3,3,3 | 3,0,1.9756,1.4111,neutral,right,,,,,,stimulusFile/physical.xlsx,,,,,,,,,,,,,,,,,,,,,,,,,,,,,,,
,,,,,,,,,,,,,,,715,2022-01-27_13h49.59.974,multiplicationStroop,2021.2.3,Win32,59.9880024,,,,,left,1,0.4507,0,34,34,32,1,1,3,1 | 3,2,1.9756,1.4111,incongruent,left,,,,,,stimulusFile/physical.xlsx,,,,,,,,,,,,,,,,,,,,,,,,,,,,,,,
,,,,,,,,,,,,,,,715,2022-01-27_13h49.59.974,multiplicationStroop,2021.2.3,Win32,59.9880024,,,,,right,1,0.484,0,35,35,29,1,4,3,4 | 3,1,1.4111,1.9756,incongruent,right,,,,,,stimulusFile/physical.xlsx,,,,,,,,,,,,,,,,,,,,,,,,,,,,,,,
,,,,,,,,,,,,,,,715,2022-01-27_13h49.59.974,multiplicationStroop,2021.2.3,Win32,59.9880024,,,,,right,1,0.4096,0,36,36,0,1,1,2,1 | 2,1,1.4111,1.9756,congruent,right,,,,,,stimulusFile/physical.xlsx,,,,,,,,,,,,,,,,,,,,,,,,,,,,,,,
,,,,,,,,,,,,,,,715,2022-01-27_13h49.59.974,multiplicationStroop,2021.2.3,Win32,59.9880024,,,,,left,1,0.384,0,37,37,13,1,4,2,4 | 2,2,1.9756,1.4111,congruent,left,,,,,,stimulusFile/physical.xlsx,,,,,,,,,,,,,,,,,,,,,,,,,,,,,,,
,,,,,,,,,,,,,,,715,2022-01-27_13h49.59.974,multiplicationStroop,2021.2.3,Win32,59.9880024,,,,,right,1,0.334,0,38,38,8,1,1,3,1 | 3,2,1.4111,1.9756,congruent,right,,,,,,stimulusFile/physical.xlsx,,,,,,,,,,,,,,,,,,,,,,,,,,,,,,,
,,,,,,,,,,,,,,,715,2022-01-27_13h49.59.974,multiplicationStroop,2021.2.3,Win32,59.9880024,,,,,right,1,0.4957,0,39,39,56,1,1,1,1 | 1,0,1.4111,1.9756,neutral,right,,,,,,stimulusFile/physical.xlsx,,,,,,,,,,,,,,,,,,,,,,,,,,,,,,,
,,,,,,,,,,,,,,,715,2022-01-27_13h49.59.974,multiplicationStroop,2021.2.3,Win32,59.9880024,,,,,right,1,0.4528,0,40,40,57,1,2,2,2 | 2,0,1.4111,1.9756,neutral,right,,,,,,stimulusFile/physical.xlsx,,,,,,,,,,,,,,,,,,,,,,,,,,,,,,,
,,,,,,,,,,,,,,,715,2022-01-27_13h49.59.974,multiplicationStroop,2021.2.3,Win32,59.9880024,,,,,left,1,0.3672,0,41,41,70,1,8,8,8 | 8,0,1.9756,1.4111,neutral,left,,,,,,stimulusFile/physical.xlsx,,,,,,,,,,,,,,,,,,,,,,,,,,,,,,,
,,,,,,,,,,,,,,,715,2022-01-27_13h49.59.974,multiplicationStroop,2021.2.3,Win32,59.9880024,,,,,right,1,0.5006,0,42,42,45,1,7,2,7 | 2,5,1.4111,1.9756,incongruent,right,,,,,,stimulusFile/physical.xlsx,,,,,,,,,,,,,,,,,,,,,,,,,,,,,,,
,,,,,,,,,,,,,,,715,2022-01-27_13h49.59.974,multiplicationStroop,2021.2.3,Win32,59.9880024,,,,,left,1,0.407,0,43,43,14,1,8,6,8 | 6,2,1.9756,1.4111,congruent,left,,,,,,stimulusFile/physical.xlsx,,,,,,,,,,,,,,,,,,,,,,,,,,,,,,,
,,,,,,,,,,,,,,,715,2022-01-27_13h49.59.974,multiplicationStroop,2021.2.3,Win32,59.9880024,,,,,right,1,0.4509,0,44,44,30,1,7,6,7 | 6,1,1.4111,1.9756,incongruent,right,,,,,,stimulusFile/physical.xlsx,,,,,,,,,,,,,,,,,,,,,,,,,,,,,,,
,,,,,,,,,,,,,,,715,2022-01-27_13h49.59.974,multiplicationStroop,2021.2.3,Win32,59.9880024,,,,,left,1,0.3225,0,45,45,4,1,2,1,2 | 1,1,1.9756,1.4111,congruent,left,,,,,,stimulusFile/physical.xlsx,,,,,,,,,,,,,,,,,,,,,,,,,,,,,,,
,,,,,,,,,,,,,,,715,2022-01-27_13h49.59.974,multiplicationStroop,2021.2.3,Win32,59.9880024,,,,,left,1,0.4171,0,46,46,55,1,9,9,9 | 9,0,1.9756,1.4111,neutral,left,,,,,,stimulusFile/physical.xlsx,,,,,,,,,,,,,,,,,,,,,,,,,,,,,,,
,,,,,,,,,,,,,,,715,2022-01-27_13h49.59.974,multiplicationStroop,2021.2.3,Win32,59.9880024,,,,,left,1,0.4337,0,47,47,26,1,6,7,6 | 7,1,1.9756,1.4111,incongruent,left,,,,,,stimulusFile/physical.xlsx,,,,,,,,,,,,,,,,,,,,,,,,,,,,,,,
,,,,,,,,,,,,,,,715,2022-01-27_13h49.59.974,multiplicationStroop,2021.2.3,Win32,59.9880024,,,,,left,1,0.3671,0,48,48,12,1,3,1,3 | 1,2,1.9756,1.4111,congruent,left,,,,,,stimulusFile/physical.xlsx,,,,,,,,,,,,,,,,,,,,,,,,,,,,,,,
,,,,,,,,,,,,,,,715,2022-01-27_13h49.59.974,multiplicationStroop,2021.2.3,Win32,59.9880024,,,,,right,1,0.361,0,49,49,16,1,1,6,1 | 6,5,1.4111,1.9756,congruent,right,,,,,,stimulusFile/physical.xlsx,,,,,,,,,,,,,,,,,,,,,,,,,,,,,,,
,,,,,,,,,,,,,,,715,2022-01-27_13h49.59.974,multiplicationStroop,2021.2.3,Win32,59.9880024,,,,,right,1,0.4163,0,50,50,59,1,7,7,7 | 7,0,1.4111,1.9756,neutral,right,,,,,,stimulusFile/physical.xlsx,,,,,,,,,,,,,,,,,,,,,,,,,,,,,,,
,,,,,,,,,,,,,,,715,2022-01-27_13h49.59.974,multiplicationStroop,2021.2.3,Win32,59.9880024,,,,,left,1,0.3506,0,51,51,6,1,7,6,7 | 6,1,1.9756,1.4111,congruent,left,,,,,,stimulusFile/physical.xlsx,,,,,,,,,,,,,,,,,,,,,,,,,,,,,,,
,,,,,,,,,,,,,,,715,2022-01-27_13h49.59.974,multiplicationStroop,2021.2.3,Win32,59.9880024,,,,,left,1,0.582,0,52,52,50,1,6,6,6 | 6,0,1.9756,1.4111,neutral,left,,,,,,stimulusFile/physical.xlsx,,,,,,,,,,,,,,,,,,,,,,,,,,,,,,,
,,,,,,,,,,,,,,,715,2022-01-27_13h49.59.974,multiplicationStroop,2021.2.3,Win32,59.9880024,,,,,left,1,0.4336,0,53,53,22,1,8,3,8 | 3,5,1.9756,1.4111,congruent,left,,,,,,stimulusFile/physical.xlsx,,,,,,,,,,,,,,,,,,,,,,,,,,,,,,,
,,,,,,,,,,,,,,,715,2022-01-27_13h49.59.974,multiplicationStroop,2021.2.3,Win32,59.9880024,,,,,right,1,0.4419,0,54,54,58,1,6,6,6 | 6,0,1.4111,1.9756,neutral,right,,,,,,stimulusFile/physical.xlsx,,,,,,,,,,,,,,,,,,,,,,,,,,,,,,,
,,,,,,,,,,,,,,,715,2022-01-27_13h49.59.974,multiplicationStroop,2021.2.3,Win32,59.9880024,,,,,left,1,0.55,0,55,55,34,1,6,8,6 | 8,2,1.9756,1.4111,incongruent,left,,,,,,stimulusFile/physical.xlsx,,,,,,,,,,,,,,,,,,,,,,,,,,,,,,,
,,,,,,,,,,,,,,,715,2022-01-27_13h49.59.974,multiplicationStroop,2021.2.3,Win32,59.9880024,,,,,left,1,0.3862,0,56,56,15,1,9,7,9 | 7,2,1.9756,1.4111,congruent,left,,,,,,stimulusFile/physical.xlsx,,,,,,,,,,,,,,,,,,,,,,,,,,,,,,,
,,,,,,,,,,,,,,,715,2022-01-27_13h49.59.974,multiplicationStroop,2021.2.3,Win32,59.9880024,,,,,right,0,0.4299,0,57,57,69,1,7,7,7 | 7,0,1.4111,1.9756,neutral,left,,,,,,stimulusFile/physical.xlsx,,,,,,,,,,,,,,,,,,,,,,,,,,,,,,,
,,,,,,,,,,,,,,,715,2022-01-27_13h49.59.974,multiplicationStroop,2021.2.3,Win32,59.9880024,,,,,right,1,0.4669,0,58,58,61,1,4,4,4 | 4,0,1.4111,1.9756,neutral,right,,,,,,stimulusFile/physical.xlsx,,,,,,,,,,,,,,,,,,,,,,,,,,,,,,,
,,,,,,,,,,,,,,,715,2022-01-27_13h49.59.974,multiplicationStroop,2021.2.3,Win32,59.9880024,,,,,left,1,0.4509,0,59,59,51,1,8,8,8 | 8,0,1.9756,1.4111,neutral,left,,,,,,stimulusFile/physical.xlsx,,,,,,,,,,,,,,,,,,,,,,,,,,,,,,,
,,,,,,,,,,,,,,,715,2022-01-27_13h49.59.974,multiplicationStroop,2021.2.3,Win32,59.9880024,,,,,right,1,0.5348,0,60,60,37,1,4,2,4 | 2,2,1.4111,1.9756,incongruent,right,,,,,,stimulusFile/physical.xlsx,,,,,,,,,,,,,,,,,,,,,,,,,,,,,,,
,,,,,,,,,,,,,,,715,2022-01-27_13h49.59.974,multiplicationStroop,2021.2.3,Win32,59.9880024,,,,,right,1,0.3892,0,61,61,2,1,6,7,6 | 7,1,1.4111,1.9756,congruent,right,,,,,,stimulusFile/physical.xlsx,,,,,,,,,,,,,,,,,,,,,,,,,,,,,,,
,,,,,,,,,,,,,,,715,2022-01-27_13h49.59.974,multiplicationStroop,2021.2.3,Win32,59.9880024,,,,,left,1,0.4248,0,62,62,42,1,3,8,3 | 8,5,1.9756,1.4111,incongruent,left,,,,,,stimulusFile/physical.xlsx,,,,,,,,,,,,,,,,,,,,,,,,,,,,,,,
,,,,,,,,,,,,,,,715,2022-01-27_13h49.59.974,multiplicationStroop,2021.2.3,Win32,59.9880024,,,,,left,1,0.4463,0,63,63,23,1,9,4,9 | 4,5,1.9756,1.4111,congruent,left,,,,,,stimulusFile/physical.xlsx,,,,,,,,,,,,,,,,,,,,,,,,,,,,,,,
,,,,,,,,,,,,,,,715,2022-01-27_13h49.59.974,multiplicationStroop,2021.2.3,Win32,59.9880024,,,,,left,1,0.3865,0,64,64,48,1,1,1,1 | 1,0,1.9756,1.4111,neutral,left,,,,,,stimulusFile/physical.xlsx,,,,,,,,,,,,,,,,,,,,,,,,,,,,,,,
,,,,,,,,,,,,,,,715,2022-01-27_13h49.59.974,multiplicationStroop,2021.2.3,Win32,59.9880024,,,,,right,1,0.4737,0,65,65,36,1,3,1,3 | 1,2,1.4111,1.9756,incongruent,right,,,,,,stimulusFile/physical.xlsx,,,,,,,,,,,,,,,,,,,,,,,,,,,,,,,
,,,,,,,,,,,,,,,715,2022-01-27_13h49.59.974,multiplicationStroop,2021.2.3,Win32,59.9880024,,,,,right,1,0.4846,0,66,66,47,1,9,4,9 | 4,5,1.4111,1.9756,incongruent,right,,,,,,stimulusFile/physical.xlsx,,,,,,,,,,,,,,,,,,,,,,,,,,,,,,,
,,,,,,,,,,,,,,,715,2022-01-27_13h49.59.974,multiplicationStroop,2021.2.3,Win32,59.9880024,,,,,right,1,0.4015,0,67,67,17,1,2,7,2 | 7,5,1.4111,1.9756,congruent,right,,,,,,stimulusFile/physical.xlsx,,,,,,,,,,,,,,,,,,,,,,,,,,,,,,,
,,,,,,,,,,,,,,,715,2022-01-27_13h49.59.974,multiplicationStroop,2021.2.3,Win32,59.9880024,,,,,right,1,0.4336,0,68,68,46,1,8,3,8 | 3,5,1.4111,1.9756,incongruent,right,,,,,,stimulusFile/physical.xlsx,,,,,,,,,,,,,,,,,,,,,,,,,,,,,,,
,,,,,,,,,,,,,,,715,2022-01-27_13h49.59.974,multiplicationStroop,2021.2.3,Win32,59.9880024,,,,,right,1,0.439,0,69,69,60,1,3,3,3 | 3,0,1.4111,1.9756,neutral,right,,,,,,stimulusFile/physical.xlsx,,,,,,,,,,,,,,,,,,,,,,,,,,,,,,,
,,,,,,,,,,,,,,,715,2022-01-27_13h49.59.974,multiplicationStroop,2021.2.3,Win32,59.9880024,,,,,right,1,0.37,0,70,70,3,1,8,9,8 | 9,1,1.4111,1.9756,congruent,right,,,,,,stimulusFile/physical.xlsx,,,,,,,,,,,,,,,,,,,,,,,,,,,,,,,
,,,,,,,,,,,,,,,715,2022-01-27_13h49.59.974,multiplicationStroop,2021.2.3,Win32,59.9880024,,,,,left,1,0.3937,0,71,71,68,1,6,6,6 | 6,0,1.9756,1.4111,neutral,left,,,,,,stimulusFile/physical.xlsx,,,,,,,,,,,,,,,,,,,,,,,,,,,,,,,
,,,,,,,,,,,,,,,715,2022-01-27_13h49.59.974,multiplicationStroop,2021.2.3,Win32,59.9880024,,,,,,,,,,,,,,,,,,,,,0,1,1,1,1,stimulusFile/physical.xlsx,PHYSICALLY larger (larger font size).,images/physicallyLarger.png,,,,,,,,,,,,,,,,,,,,,,,,,,,,,
,,,,,,,,,,,,,,,715,2022-01-27_13h49.59.974,multiplicationStroop,2021.2.3,Win32,59.9880024,,,,,,,,,,,,,,,,,,,,,,,,,,,,,space,3.117,space,2.1825,54,3.5174,1,0,0,0,7,1,6,×,9,6 × 9,neutral,smallerFirst,1.5,1.5,54,,,,,,,,
,,,,,,,,,,,,,,,715,2022-01-27_13h49.59.974,multiplicationStroop,2021.2.3,Win32,59.9880024,,,,,,,,,,,,,,,,,,,,,,,,,,,,,,,,,12,1.4724,1,0,1,1,25,1,6,×,2,6 × 2,neutral,largerFirst,1.5,1.5,12,,,,,,,,
,,,,,,,,,,,,,,,715,2022-01-27_13h49.59.974,multiplicationStroop,2021.2.3,Win32,59.9880024,,,,,,,,,,,,,,,,,,,,,,,,,,,,,,,,,24,1.6127,1,0,2,2,22,1,8,×,3,8 × 3,neutral,largerFirst,1.5,1.5,24,,,,,,,,
,,,,,,,,,,,,,,,715,2022-01-27_13h49.59.974,multiplicationStroop,2021.2.3,Win32,59.9880024,,,,,,,,,,,,,,,,,,,,,,,,,,,,,,,,,4,1.8144,1,0,3,3,28,1,2,×,2,2 × 2,neutral,tie,1.5,1.5,4,,,,,,,,
,,,,,,,,,,,,,,,715,2022-01-27_13h49.59.974,multiplicationStroop,2021.2.3,Win32,59.9880024,,,,,,,,,,,,,,,,,,,,,,,,,,,,,,,,,18,1.6497,1,0,4,4,18,1,9,×,2,9 × 2,neutral,largerFirst,1.5,1.5,18,,,,,,,,
,,,,,,,,,,,,,,,715,2022-01-27_13h49.59.974,multiplicationStroop,2021.2.3,Win32,59.9880024,,,,,,,,,,,,,,,,,,,,,,,,,,,,,,,,,15,1.3992,1,0,5,5,5,1,3,×,5,3 × 5,neutral,smallerFirst,1.5,1.5,15,,,,,,,,
,,,,,,,,,,,,,,,715,2022-01-27_13h49.59.974,multiplicationStroop,2021.2.3,Win32,59.9880024,,,,,,,,,,,,,,,,,,,,,,,,,,,,,,,,,20,1.3824,1,0,6,6,20,1,5,×,4,5 × 4,neutral,largerFirst,1.5,1.5,20,,,,,,,,
,,,,,,,,,,,,,,,715,2022-01-27_13h49.59.974,multiplicationStroop,2021.2.3,Win32,59.9880024,,,,,,,,,,,,,,,,,,,,,,,,,,,,,,,,,6,2.0828,1,0,7,7,26,1,3,×,2,3 × 2,neutral,largerFirst,1.5,1.5,6,,,,,,,,
,,,,,,,,,,,,,,,715,2022-01-27_13h49.59.974,multiplicationStroop,2021.2.3,Win32,59.9880024,,,,,,,,,,,,,,,,,,,,,,,,,,,,,,,,,72,1.7159,1,0,8,8,11,1,8,×,9,8 × 9,neutral,smallerFirst,1.5,1.5,72,,,,,,,,
,,,,,,,,,,,,,,,715,2022-01-27_13h49.59.974,multiplicationStroop,2021.2.3,Win32,59.9880024,,,,,,,,,,,,,,,,,,,,,,,,,,,,,,,,,64,2.116,1,0,9,9,34,1,8,×,8,8 × 8,neutral,tie,1.5,1.5,64,,,,,,,,
,,,,,,,,,,,,,,,715,2022-01-27_13h49.59.974,multiplicationStroop,2021.2.3,Win32,59.9880024,,,,,,,,,,,,,,,,,,,,,,,,,,,,,,,,,10,1.9828,1,0,10,10,4,1,2,×,5,2 × 5,neutral,smallerFirst,1.5,1.5,10,,,,,,,,
,,,,,,,,,,,,,,,715,2022-01-27_13h49.59.974,multiplicationStroop,2021.2.3,Win32,59.9880024,,,,,,,,,,,,,,,,,,,,,,,,,,,,,,,,,16,1.666,1,0,11,11,13,1,2,×,8,2 × 8,neutral,smallerFirst,1.5,1.5,16,,,,,,,,
,,,,,,,,,,,,,,,715,2022-01-27_13h49.59.974,multiplicationStroop,2021.2.3,Win32,59.9880024,,,,,,,,,,,,,,,,,,,,,,,,,,,,,,,,,27,1.4368,1,0,12,12,14,1,9,×,3,9 × 3,neutral,largerFirst,1.5,1.5,27,,,,,,,,
,,,,,,,,,,,,,,,715,2022-01-27_13h49.59.974,multiplicationStroop,2021.2.3,Win32,59.9880024,,,,,,,,,,,,,,,,,,,,,,,,,,,,,,,,,28,1.3987,1,0,13,13,17,1,7,×,4,7 × 4,neutral,largerFirst,1.5,1.5,28,,,,,,,,
,,,,,,,,,,,,,,,715,2022-01-27_13h49.59.974,multiplicationStroop,2021.2.3,Win32,59.9880024,,,,,,,,,,,,,,,,,,,,,,,,,,,,,,,,,18,1.6165,1,0,14,14,0,1,3,×,6,3 × 6,neutral,smallerFirst,1.5,1.5,18,,,,,,,,
,,,,,,,,,,,,,,,715,2022-01-27_13h49.59.974,multiplicationStroop,2021.2.3,Win32,59.9880024,,,,,,,,,,,,,,,,,,,,,,,,,,,,,,,,,48,1.6627,1,0,15,15,15,1,8,×,6,8 × 6,neutral,largerFirst,1.5,1.5,48,,,,,,,,
,,,,,,,,,,,,,,,715,2022-01-27_13h49.59.974,multiplicationStroop,2021.2.3,Win32,59.9880024,,,,,,,,,,,,,,,,,,,,,,,,,,,,,,,,,81,1.4671,1,0,16,16,35,1,9,×,9,9 × 9,neutral,tie,1.5,1.5,81,,,,,,,,
,,,,,,,,,,,,,,,715,2022-01-27_13h49.59.974,multiplicationStroop,2021.2.3,Win32,59.9880024,,,,,,,,,,,,,,,,,,,,,,,,,,,,,,,,,8,1.4682,1,0,17,17,3,1,2,×,4,2 × 4,neutral,smallerFirst,1.5,1.5,8,,,,,,,,
,,,,,,,,,,,,,,,715,2022-01-27_13h49.59.974,multiplicationStroop,2021.2.3,Win32,59.9880024,,,,,,,,,,,,,,,,,,,,,,,,,,,,,,,,,21,1.2155,1,0,18,18,8,1,3,×,7,3 × 7,neutral,smallerFirst,1.5,1.5,21,,,,,,,,
,,,,,,,,,,,,,,,715,2022-01-27_13h49.59.974,multiplicationStroop,2021.2.3,Win32,59.9880024,,,,,,,,,,,,,,,,,,,,,,,,,,,,,,,,,36,1.4954,1,0,19,19,32,1,6,×,6,6 × 6,neutral,tie,1.5,1.5,36,,,,,,,,
,,,,,,,,,,,,,,,715,2022-01-27_13h49.59.974,multiplicationStroop,2021.2.3,Win32,59.9880024,,,,,,,,,,,,,,,,,,,,,,,,,,,,,,,,,32,1.3984,1,0,20,20,23,1,8,×,4,8 × 4,neutral,largerFirst,1.5,1.5,32,,,,,,,,
,,,,,,,,,,,,,,,715,2022-01-27_13h49.59.974,multiplicationStroop,2021.2.3,Win32,59.9880024,,,,,,,,,,,,,,,,,,,,,,,,,,,,,,,,,45,1.4186,1,0,21,21,10,1,5,×,9,5 × 9,neutral,smallerFirst,1.5,1.5,45,,,,,,,,
,,,,,,,,,,,,,,,715,2022-01-27_13h49.59.974,multiplicationStroop,2021.2.3,Win32,59.9880024,,,,,,,,,,,,,,,,,,,,,,,,,,,,,,,,,24,1.4282,1,0,22,22,2,1,4,×,6,4 × 6,neutral,smallerFirst,1.5,1.5,24,,,,,,,,
,,,,,,,,,,,,,,,715,2022-01-27_13h49.59.974,multiplicationStroop,2021.2.3,Win32,59.9880024,,,,,,,,,,,,,,,,,,,,,,,,,,,,,,,,,35,1.3853,1,0,23,23,1,1,5,×,7,5 × 7,neutral,smallerFirst,1.5,1.5,35,,,,,,,,
,,,,,,,,,,,,,,,715,2022-01-27_13h49.59.974,multiplicationStroop,2021.2.3,Win32,59.9880024,,,,,,,,,,,,,,,,,,,,,,,,,,,,,,,,,14,1.3151,1,0,24,24,16,1,7,×,2,7 × 2,neutral,largerFirst,1.5,1.5,14,,,,,,,,
,,,,,,,,,,,,,,,715,2022-01-27_13h49.59.974,multiplicationStroop,2021.2.3,Win32,59.9880024,,,,,,,,,,,,,,,,,,,,,,,,,,,,,,,,,25,1.4338,1,0,25,25,31,1,5,×,5,5 × 5,neutral,tie,1.5,1.5,25,,,,,,,,
,,,,,,,,,,,,,,,715,2022-01-27_13h49.59.974,multiplicationStroop,2021.2.3,Win32,59.9880024,,,,,,,,,,,,,,,,,,,,,,,,,,,,,,,,,49,1.6486,1,0,26,26,33,1,7,×,7,7 × 7,neutral,tie,1.5,1.5,49,,,,,,,,
,,,,,,,,,,,,,,,715,2022-01-27_13h49.59.974,multiplicationStroop,2021.2.3,Win32,59.9880024,,,,,,,,,,,,,,,,,,,,,,,,,,,,,,,,,9,2.0156,1,0,27,27,29,1,3,×,3,3 × 3,neutral,tie,1.5,1.5,9,,,,,,,,
,,,,,,,,,,,,,,,715,2022-01-27_13h49.59.974,multiplicationStroop,2021.2.3,Win32,59.9880024,,,,,,,,,,,,,,,,,,,,,,,,,,,,,,,,,16,1.5993,1,0,28,28,30,1,4,×,4,4 × 4,neutral,tie,1.5,1.5,16,,,,,,,,
,,,,,,,,,,,,,,,715,2022-01-27_13h49.59.974,multiplicationStroop,2021.2.3,Win32,59.9880024,,,,,,,,,,,,,,,,,,,,,,,,,,,,,,,,,30,1.4493,1,0,29,29,19,1,6,×,5,6 × 5,neutral,largerFirst,1.5,1.5,30,,,,,,,,
,,,,,,,,,,,,,,,715,2022-01-27_13h49.59.974,multiplicationStroop,2021.2.3,Win32,59.9880024,,,,,,,,,,,,,,,,,,,,,,,,,,,,,,,,,12,1.1826,1,0,30,30,21,1,4,×,3,4 × 3,neutral,largerFirst,1.5,1.5,12,,,,,,,,
,,,,,,,,,,,,,,,715,2022-01-27_13h49.59.974,multiplicationStroop,2021.2.3,Win32,59.9880024,,,,,,,,,,,,,,,,,,,,,,,,,,,,,,,,,36,1.7956,1,0,31,31,27,1,9,×,4,9 × 4,neutral,largerFirst,1.5,1.5,36,,,,,,,,
,,,,,,,,,,,,,,,715,2022-01-27_13h49.59.974,multiplicationStroop,2021.2.3,Win32,59.9880024,,,,,,,,,,,,,,,,,,,,,,,,,,,,,,,,,63,1.9019,1,0,32,32,12,1,7,×,9,7 × 9,neutral,smallerFirst,1.5,1.5,63,,,,,,,,
,,,,,,,,,,,,,,,715,2022-01-27_13h49.59.974,multiplicationStroop,2021.2.3,Win32,59.9880024,,,,,,,,,,,,,,,,,,,,,,,,,,,,,,,,,42,2.5325,1,0,33,33,6,1,6,×,7,6 × 7,neutral,smallerFirst,1.5,1.5,42,,,,,,,,
,,,,,,,,,,,,,,,715,2022-01-27_13h49.59.974,multiplicationStroop,2021.2.3,Win32,59.9880024,,,,,,,,,,,,,,,,,,,,,,,,,,,,,,,,,40,1.4281,1,0,34,34,24,1,8,×,5,8 × 5,neutral,largerFirst,1.5,1.5,40,,,,,,,,
,,,,,,,,,,,,,,,715,2022-01-27_13h49.59.974,multiplicationStroop,2021.2.3,Win32,59.9880024,,,,,,,,,,,,,,,,,,,,,,,,,,,,,,,,,56,1.5177,1,0,35,35,9,1,7,×,8,7 × 8,neutral,smallerFirst,1.5,1.5,56,,,,,,,,
,,,,,,,,,,,,,,,715,2022-01-27_13h49.59.974,multiplicationStroop,2021.2.3,Win32,59.9880024,,,,,,,,,,,,,,,,,,,,,,,,,,,,,,,,,,,,,,,,,,,,,,,,,,0,0,0,1,1,stimulusFile/mult_blk2.xlsx,,
,,,,,,,,,,,,,,,715,2022-01-27_13h49.59.974,multiplicationStroop,2021.2.3,Win32,59.9880024,,,,,,,,,,,,,,,,,,,,,,,,,,,,,,,space,1.0175,72,1.531,1,0,0,0,25,1,9,×,8,9 × 8,neutral,largerFirst,1.5,1.5,72,,,,,,,,
,,,,,,,,,,,,,,,715,2022-01-27_13h49.59.974,multiplicationStroop,2021.2.3,Win32,59.9880024,,,,,,,,,,,,,,,,,,,,,,,,,,,,,,,,,12,1.1347,1,0,1,1,11,1,2,×,6,2 × 6,neutral,smallerFirst,1.5,1.5,12,,,,,,,,
,,,,,,,,,,,,,,,715,2022-01-27_13h49.59.974,multiplicationStroop,2021.2.3,Win32,59.9880024,,,,,,,,,,,,,,,,,,,,,,,,,,,,,,,,,63,1.7166,1,0,2,2,26,1,9,×,7,9 × 7,neutral,largerFirst,1.5,1.5,63,,,,,,,,
,,,,,,,,,,,,,,,715,2022-01-27_13h49.59.974,multiplicationStroop,2021.2.3,Win32,59.9880024,,,,,,,,,,,,,,,,,,,,,,,,,,,,,,,,,15,1.496,1,0,3,3,19,1,5,×,3,5 × 3,neutral,largerFirst,1.5,1.5,15,,,,,,,,
,,,,,,,,,,,,,,,715,2022-01-27_13h49.59.974,multiplicationStroop,2021.2.3,Win32,59.9880024,,,,,,,,,,,,,,,,,,,,,,,,,,,,,,,,,56,1.668,1,0,4,4,23,1,8,×,7,8 × 7,neutral,largerFirst,1.5,1.5,56,,,,,,,,
,,,,,,,,,,,,,,,715,2022-01-27_13h49.59.974,multiplicationStroop,2021.2.3,Win32,59.9880024,,,,,,,,,,,,,,,,,,,,,,,,,,,,,,,,,36,1.5319,1,0,5,5,13,1,4,×,9,4 × 9,neutral,smallerFirst,1.5,1.5,36,,,,,,,,
,,,,,,,,,,,,,,,715,2022-01-27_13h49.59.974,multiplicationStroop,2021.2.3,Win32,59.9880024,,,,,,,,,,,,,,,,,,,,,,,,,,,,,,,,,16,1.5464,1,0,6,6,27,1,8,×,2,8 × 2,neutral,largerFirst,1.5,1.5,16,,,,,,,,
,,,,,,,,,,,,,,,715,2022-01-27_13h49.59.974,multiplicationStroop,2021.2.3,Win32,59.9880024,,,,,,,,,,,,,,,,,,,,,,,,,,,,,,,,,42,1.4641,1,0,7,7,20,1,7,×,6,7 × 6,neutral,largerFirst,1.5,1.5,42,,,,,,,,
,,,,,,,,,,,,,,,715,2022-01-27_13h49.59.974,multiplicationStroop,2021.2.3,Win32,59.9880024,,,,,,,,,,,,,,,,,,,,,,,,,,,,,,,,,30,1.402,1,0,8,8,5,1,5,×,6,5 × 6,neutral,smallerFirst,1.5,1.5,30,,,,,,,,
,,,,,,,,,,,,,,,715,2022-01-27_13h49.59.974,multiplicationStroop,2021.2.3,Win32,59.9880024,,,,,,,,,,,,,,,,,,,,,,,,,,,,,,,,,6,1.2987,1,0,9,9,12,1,2,×,3,2 × 3,neutral,smallerFirst,1.5,1.5,6,,,,,,,,
,,,,,,,,,,,,,,,715,2022-01-27_13h49.59.974,multiplicationStroop,2021.2.3,Win32,59.9880024,,,,,,,,,,,,,,,,,,,,,,,,,,,,,,,,,64,1.5166,1,0,10,10,34,1,8,×,8,8 × 8,neutral,tie,1.5,1.5,64,,,,,,,,
,,,,,,,,,,,,,,,715,2022-01-27_13h49.59.974,multiplicationStroop,2021.2.3,Win32,59.9880024,,,,,,,,,,,,,,,,,,,,,,,,,,,,,,,,,4,1.2454,1,0,11,11,28,1,2,×,2,2 × 2,neutral,tie,1.5,1.5,4,,,,,,,,
,,,,,,,,,,,,,,,715,2022-01-27_13h49.59.974,multiplicationStroop,2021.2.3,Win32,59.9880024,,,,,,,,,,,,,,,,,,,,,,,,,,,,,,,,,16,1.517,1,0,12,12,30,1,4,×,4,4 × 4,neutral,tie,1.5,1.5,16,,,,,,,,
,,,,,,,,,,,,,,,715,2022-01-27_13h49.59.974,multiplicationStroop,2021.2.3,Win32,59.9880024,,,,,,,,,,,,,,,,,,,,,,,,,,,,,,,,,10,1.3191,1,0,13,13,18,1,5,×,2,5 × 2,neutral,largerFirst,1.5,1.5,10,,,,,,,,
,,,,,,,,,,,,,,,715,2022-01-27_13h49.59.974,multiplicationStroop,2021.2.3,Win32,59.9880024,,,,,,,,,,,,,,,,,,,,,,,,,,,,,,,,,12,1.3286,1,0,14,14,7,1,3,×,4,3 × 4,neutral,smallerFirst,1.5,1.5,12,,,,,,,,
,,,,,,,,,,,,,,,715,2022-01-27_13h49.59.974,multiplicationStroop,2021.2.3,Win32,59.9880024,,,,,,,,,,,,,,,,,,,,,,,,,,,,,,,,,18,1.5677,1,0,15,15,14,1,6,×,3,6 × 3,neutral,largerFirst,1.5,1.5,18,,,,,,,,
,,,,,,,,,,,,,,,715,2022-01-27_13h49.59.974,multiplicationStroop,2021.2.3,Win32,59.9880024,,,,,,,,,,,,,,,,,,,,,,,,,,,,,,,,,25,1.2662,1,0,16,16,31,1,5,×,5,5 × 5,neutral,tie,1.5,1.5,25,,,,,,,,
,,,,,,,,,,,,,,,715,2022-01-27_13h49.59.974,multiplicationStroop,2021.2.3,Win32,59.9880024,,,,,,,,,,,,,,,,,,,,,,,,,,,,,,,,,40,1.4124,1,0,17,17,10,1,5,×,8,5 × 8,neutral,smallerFirst,1.5,1.5,40,,,,,,,,
,,,,,,,,,,,,,,,715,2022-01-27_13h49.59.974,multiplicationStroop,2021.2.3,Win32,59.9880024,,,,,,,,,,,,,,,,,,,,,,,,,,,,,,,,,18,1.3349,1,0,18,18,4,1,2,×,9,2 × 9,neutral,smallerFirst,1.5,1.5,18,,,,,,,,
,,,,,,,,,,,,,,,715,2022-01-27_13h49.59.974,multiplicationStroop,2021.2.3,Win32,59.9880024,,,,,,,,,,,,,,,,,,,,,,,,,,,,,,,,,27,1.4326,1,0,19,19,0,1,3,×,9,3 × 9,neutral,smallerFirst,1.5,1.5,27,,,,,,,,
,,,,,,,,,,,,,,,715,2022-01-27_13h49.59.974,multiplicationStroop,2021.2.3,Win32,59.9880024,,,,,,,,,,,,,,,,,,,,,,,,,,,,,,,,,24,1.2955,1,0,20,20,16,1,6,×,4,6 × 4,neutral,largerFirst,1.5,1.5,24,,,,,,,,
,,,,,,,,,,,,,,,715,2022-01-27_13h49.59.974,multiplicationStroop,2021.2.3,Win32,59.9880024,,,,,,,,,,,,,,,,,,,,,,,,,,,,,,,,,81,2.1516,1,0,21,21,35,1,9,×,9,9 × 9,neutral,tie,1.5,1.5,81,,,,,,,,
,,,,,,,,,,,,,,,715,2022-01-27_13h49.59.974,multiplicationStroop,2021.2.3,Win32,59.9880024,,,,,,,,,,,,,,,,,,,,,,,,,,,,,,,,,28,1.5293,1,0,22,22,3,1,4,×,7,4 × 7,neutral,smallerFirst,1.5,1.5,28,,,,,,,,
,,,,,,,,,,,,,,,715,2022-01-27_13h49.59.974,multiplicationStroop,2021.2.3,Win32,59.9880024,,,,,,,,,,,,,,,,,,,,,,,,,,,,,,,,,8,1.4683,1,0,23,23,17,1,4,×,2,4 × 2,neutral,largerFirst,1.5,1.5,8,,,,,,,,
,,,,,,,,,,,,,,,715,2022-01-27_13h49.59.974,multiplicationStroop,2021.2.3,Win32,59.9880024,,,,,,,,,,,,,,,,,,,,,,,,,,,,,,,,,48,1.9493,1,0,24,24,1,1,6,×,8,6 × 8,neutral,smallerFirst,1.5,1.5,48,,,,,,,,
,,,,,,,,,,,,,,,715,2022-01-27_13h49.59.974,multiplicationStroop,2021.2.3,Win32,59.9880024,,,,,,,,,,,,,,,,,,,,,,,,,,,,,,,,,14,1.2498,1,0,25,25,2,1,2,×,7,2 × 7,neutral,smallerFirst,1.5,1.5,14,,,,,,,,
,,,,,,,,,,,,,,,715,2022-01-27_13h49.59.974,multiplicationStroop,2021.2.3,Win32,59.9880024,,,,,,,,,,,,,,,,,,,,,,,,,,,,,,,,,32,1.6335,1,0,26,26,9,1,4,×,8,4 × 8,neutral,smallerFirst,1.5,1.5,32,,,,,,,,
,,,,,,,,,,,,,,,715,2022-01-27_13h49.59.974,multiplicationStroop,2021.2.3,Win32,59.9880024,,,,,,,,,,,,,,,,,,,,,,,,,,,,,,,,,20,1.5648,1,0,27,27,6,1,4,×,5,4 × 5,neutral,smallerFirst,1.5,1.5,20,,,,,,,,
,,,,,,,,,,,,,,,715,2022-01-27_13h49.59.974,multiplicationStroop,2021.2.3,Win32,59.9880024,,,,,,,,,,,,,,,,,,,,,,,,,,,,,,,,,21,1.1639,1,0,28,28,22,1,7,×,3,7 × 3,neutral,largerFirst,1.5,1.5,21,,,,,,,,
,,,,,,,,,,,,,,,715,2022-01-27_13h49.59.974,multiplicationStroop,2021.2.3,Win32,59.9880024,,,,,,,,,,,,,,,,,,,,,,,,,,,,,,,,,35,1.3148,1,0,29,29,15,1,7,×,5,7 × 5,neutral,largerFirst,1.5,1.5,35,,,,,,,,
,,,,,,,,,,,,,,,715,2022-01-27_13h49.59.974,multiplicationStroop,2021.2.3,Win32,59.9880024,,,,,,,,,,,,,,,,,,,,,,,,,,,,,,,,,24,1.268,1,0,30,30,8,1,3,×,8,3 × 8,neutral,smallerFirst,1.5,1.5,24,,,,,,,,
,,,,,,,,,,,,,,,715,2022-01-27_13h49.59.974,multiplicationStroop,2021.2.3,Win32,59.9880024,,,,,,,,,,,,,,,,,,,,,,,,,,,,,,,,,9,1.3625,1,0,31,31,29,1,3,×,3,3 × 3,neutral,tie,1.5,1.5,9,,,,,,,,
,,,,,,,,,,,,,,,715,2022-01-27_13h49.59.974,multiplicationStroop,2021.2.3,Win32,59.9880024,,,,,,,,,,,,,,,,,,,,,,,,,,,,,,,,,36,1.7517,1,0,32,32,32,1,6,×,6,6 × 6,neutral,tie,1.5,1.5,36,,,,,,,,
,,,,,,,,,,,,,,,715,2022-01-27_13h49.59.974,multiplicationStroop,2021.2.3,Win32,59.9880024,,,,,,,,,,,,,,,,,,,,,,,,,,,,,,,,,54,1.5498,1,0,33,33,21,1,9,×,6,9 × 6,neutral,largerFirst,1.5,1.5,54,,,,,,,,
,,,,,,,,,,,,,,,715,2022-01-27_13h49.59.974,multiplicationStroop,2021.2.3,Win32,59.9880024,,,,,,,,,,,,,,,,,,,,,,,,,,,,,,,,,45,1.365,1,0,34,34,24,1,9,×,5,9 × 5,neutral,largerFirst,1.5,1.5,45,,,,,,,,
,,,,,,,,,,,,,,,715,2022-01-27_13h49.59.974,multiplicationStroop,2021.2.3,Win32,59.9880024,,,,,,,,,,,,,,,,,,,,,,,,,,,,,,,,,49,1.379,1,0,35,35,33,1,7,×,7,7 × 7,neutral,tie,1.5,1.5,49,,,,,,,,
,,,,,,,,,,,,,,,715,2022-01-27_13h49.59.974,multiplicationStroop,2021.2.3,Win32,59.9880024,,,,,,,,,,,,,,,,,,,,,,,,,,,,,,,,,,,,,,,,,,,,,,,,,,0,1,1,0,1,stimulusFile/mult_blk1.xlsx,,
,,,,,,,,,,,,,,,715,2022-01-27_13h49.59.974,multiplicationStroop,2021.2.3,Win32,59.9880024,,,,,,,,,,,,,,,,,,,,,,,,,,,,,,,space,1.1842,36,2.1419,1,0,0,0,32,1,6,×,6,6 × 6,incongruent,tie,1,2,36,,,,,,,,
,,,,,,,,,,,,,,,715,2022-01-27_13h49.59.974,multiplicationStroop,2021.2.3,Win32,59.9880024,,,,,,,,,,,,,,,,,,,,,,,,,,,,,,,,,72,1.6995,1,0,1,1,0,1,8,×,9,8 × 9,incongruent,smallerFirst,2,1,72,,,,,,,,
,,,,,,,,,,,,,,,715,2022-01-27_13h49.59.974,multiplicationStroop,2021.2.3,Win32,59.9880024,,,,,,,,,,,,,,,,,,,,,,,,,,,,,,,,,63,1.7363,1,0,2,2,3,1,7,×,9,7 × 9,incongruent,smallerFirst,2,1,63,,,,,,,,
,,,,,,,,,,,,,,,715,2022-01-27_13h49.59.974,multiplicationStroop,2021.2.3,Win32,59.9880024,,,,,,,,,,,,,,,,,,,,,,,,,,,,,,,,,18,1.4824,1,0,3,3,2,1,2,×,9,2 × 9,incongruent,smallerFirst,2,1,18,,,,,,,,
,,,,,,,,,,,,,,,715,2022-01-27_13h49.59.974,multiplicationStroop,2021.2.3,Win32,59.9880024,,,,,,,,,,,,,,,,,,,,,,,,,,,,,,,,,54,1.8662,1,0,4,4,6,1,6,×,9,6 × 9,incongruent,smallerFirst,2,1,54,,,,,,,,
,,,,,,,,,,,,,,,715,2022-01-27_13h49.59.974,multiplicationStroop,2021.2.3,Win32,59.9880024,,,,,,,,,,,,,,,,,,,,,,,,,,,,,,,,,14,1.496,1,0,5,5,4,1,2,×,7,2 × 7,incongruent,smallerFirst,2,1,14,,,,,,,,
,,,,,,,,,,,,,,,715,2022-01-27_13h49.59.974,multiplicationStroop,2021.2.3,Win32,59.9880024,,,,,,,,,,,,,,,,,,,,,,,,,,,,,,,,,25,1.485,1,0,6,6,31,1,5,×,5,5 × 5,incongruent,tie,1,2,25,,,,,,,,
,,,,,,,,,,,,,,,715,2022-01-27_13h49.59.974,multiplicationStroop,2021.2.3,Win32,59.9880024,,,,,,,,,,,,,,,,,,,,,,,,,,,,,,,,,40,1.4167,1,0,7,7,13,1,5,×,8,5 × 8,incongruent,smallerFirst,2,1,40,,,,,,,,
,,,,,,,,,,,,,,,715,2022-01-27_13h49.59.974,multiplicationStroop,2021.2.3,Win32,59.9880024,,,,,,,,,,,,,,,,,,,,,,,,,,,,,,,,,12,1.1321,1,0,8,8,5,1,3,×,4,3 × 4,incongruent,smallerFirst,2,1,12,,,,,,,,
,,,,,,,,,,,,,,,715,2022-01-27_13h49.59.974,multiplicationStroop,2021.2.3,Win32,59.9880024,,,,,,,,,,,,,,,,,,,,,,,,,,,,,,,,,8,1.4302,1,0,9,9,24,1,4,×,2,4 × 2,incongruent,largerFirst,1,2,8,,,,,,,,
,,,,,,,,,,,,,,,715,2022-01-27_13h49.59.974,multiplicationStroop,2021.2.3,Win32,59.9880024,,,,,,,,,,,,,,,,,,,,,,,,,,,,,,,,,56,1.4015,1,0,10,10,14,1,8,×,7,8 × 7,incongruent,largerFirst,1,2,56,,,,,,,,
,,,,,,,,,,,,,,,715,2022-01-27_13h49.59.974,multiplicationStroop,2021.2.3,Win32,59.9880024,,,,,,,,,,,,,,,,,,,,,,,,,,,,,,,,,49,2.0662,1,0,11,11,33,1,7,×,7,7 × 7,incongruent,tie,1,2,49,,,,,,,,
,,,,,,,,,,,,,,,715,2022-01-27_13h49.59.974,multiplicationStroop,2021.2.3,Win32,59.9880024,,,,,,,,,,,,,,,,,,,,,,,,,,,,,,,,,18,1.6328,1,0,12,12,8,1,3,×,6,3 × 6,incongruent,smallerFirst,2,1,18,,,,,,,,
,,,,,,,,,,,,,,,715,2022-01-27_13h49.59.974,multiplicationStroop,2021.2.3,Win32,59.9880024,,,,,,,,,,,,,,,,,,,,,,,,,,,,,,,,,16,1.7799,1,0,13,13,30,1,4,×,4,4 × 4,incongruent,tie,1,2,16,,,,,,,,
,,,,,,,,,,,,,,,715,2022-01-27_13h49.59.974,multiplicationStroop,2021.2.3,Win32,59.9880024,,,,,,,,,,,,,,,,,,,,,,,,,,,,,,,,,24,1.3797,1,0,14,14,9,1,3,×,8,3 × 8,incongruent,smallerFirst,2,1,24,,,,,,,,
,,,,,,,,,,,,,,,715,2022-01-27_13h49.59.974,multiplicationStroop,2021.2.3,Win32,59.9880024,,,,,,,,,,,,,,,,,,,,,,,,,,,,,,,,,48,1.4661,1,0,15,15,1,1,6,×,8,6 × 8,incongruent,smallerFirst,2,1,48,,,,,,,,
,,,,,,,,,,,,,,,715,2022-01-27_13h49.59.974,multiplicationStroop,2021.2.3,Win32,59.9880024,,,,,,,,,,,,,,,,,,,,,,,,,,,,,,,,,81,1.3023,1,0,16,16,35,1,9,×,9,9 × 9,incongruent,tie,1,2,81,,,,,,,,
,,,,,,,,,,,,,,,715,2022-01-27_13h49.59.974,multiplicationStroop,2021.2.3,Win32,59.9880024,,,,,,,,,,,,,,,,,,,,,,,,,,,,,,,,,6,1.332,1,0,17,17,11,1,2,×,3,2 × 3,incongruent,smallerFirst,2,1,6,,,,,,,,
,,,,,,,,,,,,,,,715,2022-01-27_13h49.59.974,multiplicationStroop,2021.2.3,Win32,59.9880024,,,,,,,,,,,,,,,,,,,,,,,,,,,,,,,,,10,1.2829,1,0,18,18,21,1,5,×,2,5 × 2,incongruent,largerFirst,1,2,10,,,,,,,,
,,,,,,,,,,,,,,,715,2022-01-27_13h49.59.974,multiplicationStroop,2021.2.3,Win32,59.9880024,,,,,,,,,,,,,,,,,,,,,,,,,,,,,,,,,28,1.3285,1,0,19,19,16,1,7,×,4,7 × 4,incongruent,largerFirst,1,2,28,,,,,,,,
,,,,,,,,,,,,,,,715,2022-01-27_13h49.59.974,multiplicationStroop,2021.2.3,Win32,59.9880024,,,,,,,,,,,,,,,,,,,,,,,,,,,,,,,,,16,1.5146,1,0,20,20,23,1,8,×,2,8 × 2,incongruent,largerFirst,1,2,16,,,,,,,,
,,,,,,,,,,,,,,,715,2022-01-27_13h49.59.974,multiplicationStroop,2021.2.3,Win32,59.9880024,,,,,,,,,,,,,,,,,,,,,,,,,,,,,,,,,4,1.3306,1,0,21,21,28,1,2,×,2,2 × 2,incongruent,tie,1,2,4,,,,,,,,
,,,,,,,,,,,,,,,715,2022-01-27_13h49.59.974,multiplicationStroop,2021.2.3,Win32,59.9880024,,,,,,,,,,,,,,,,,,,,,,,,,,,,,,,,,21,1.2523,1,0,22,22,26,1,7,×,3,7 × 3,incongruent,largerFirst,1,2,21,,,,,,,,
,,,,,,,,,,,,,,,715,2022-01-27_13h49.59.974,multiplicationStroop,2021.2.3,Win32,59.9880024,,,,,,,,,,,,,,,,,,,,,,,,,,,,,,,,,45,1.3325,1,0,23,23,22,1,9,×,5,9 × 5,incongruent,largerFirst,1,2,45,,,,,,,,
,,,,,,,,,,,,,,,715,2022-01-27_13h49.59.974,multiplicationStroop,2021.2.3,Win32,59.9880024,,,,,,,,,,,,,,,,,,,,,,,,,,,,,,,,,12,1.1797,1,0,24,24,19,1,6,×,2,6 × 2,incongruent,largerFirst,1,2,12,,,,,,,,
,,,,,,,,,,,,,,,715,2022-01-27_13h49.59.974,multiplicationStroop,2021.2.3,Win32,59.9880024,,,,,,,,,,,,,,,,,,,,,,,,,,,,,,,,,20,1.7641,1,0,25,25,27,1,5,×,4,5 × 4,incongruent,largerFirst,1,2,20,,,,,,,,
,,,,,,,,,,,,,,,715,2022-01-27_13h49.59.974,multiplicationStroop,2021.2.3,Win32,59.9880024,,,,,,,,,,,,,,,,,,,,,,,,,,,,,,,,,27,1.3143,1,0,26,26,18,1,9,×,3,9 × 3,incongruent,largerFirst,1,2,27,,,,,,,,
,,,,,,,,,,,,,,,715,2022-01-27_13h49.59.974,multiplicationStroop,2021.2.3,Win32,59.9880024,,,,,,,,,,,,,,,,,,,,,,,,,,,,,,,,,32,1.3351,1,0,27,27,7,1,4,×,8,4 × 8,incongruent,smallerFirst,2,1,32,,,,,,,,
,,,,,,,,,,,,,,,715,2022-01-27_13h49.59.974,multiplicationStroop,2021.2.3,Win32,59.9880024,,,,,,,,,,,,,,,,,,,,,,,,,,,,,,,,,9,1.3659,1,0,28,28,29,1,3,×,3,3 × 3,incongruent,tie,1,2,9,,,,,,,,
,,,,,,,,,,,,,,,715,2022-01-27_13h49.59.974,multiplicationStroop,2021.2.3,Win32,59.9880024,,,,,,,,,,,,,,,,,,,,,,,,,,,,,,,,,36,1.6809,1,0,29,29,15,1,9,×,4,9 × 4,incongruent,largerFirst,1,2,36,,,,,,,,
,,,,,,,,,,,,,,,715,2022-01-27_13h49.59.974,multiplicationStroop,2021.2.3,Win32,59.9880024,,,,,,,,,,,,,,,,,,,,,,,,,,,,,,,,,15,1.4327,1,0,30,30,10,1,3,×,5,3 × 5,incongruent,smallerFirst,2,1,15,,,,,,,,
,,,,,,,,,,,,,,,715,2022-01-27_13h49.59.974,multiplicationStroop,2021.2.3,Win32,59.9880024,,,,,,,,,,,,,,,,,,,,,,,,,,,,,,,,,42,1.5293,1,0,31,31,17,1,7,×,6,7 × 6,incongruent,largerFirst,1,2,42,,,,,,,,
,,,,,,,,,,,,,,,715,2022-01-27_13h49.59.974,multiplicationStroop,2021.2.3,Win32,59.9880024,,,,,,,,,,,,,,,,,,,,,,,,,,,,,,,,,30,1.3658,1,0,32,32,25,1,6,×,5,6 × 5,incongruent,largerFirst,1,2,30,,,,,,,,
,,,,,,,,,,,,,,,715,2022-01-27_13h49.59.974,multiplicationStroop,2021.2.3,Win32,59.9880024,,,,,,,,,,,,,,,,,,,,,,,,,,,,,,,,,24,1.2495,1,0,33,33,20,1,6,×,4,6 × 4,incongruent,largerFirst,1,2,24,,,,,,,,
,,,,,,,,,,,,,,,715,2022-01-27_13h49.59.974,multiplicationStroop,2021.2.3,Win32,59.9880024,,,,,,,,,,,,,,,,,,,,,,,,,,,,,,,,,35,1.3325,1,0,34,34,12,1,5,×,7,5 × 7,incongruent,smallerFirst,2,1,35,,,,,,,,
,,,,,,,,,,,,,,,715,2022-01-27_13h49.59.974,multiplicationStroop,2021.2.3,Win32,59.9880024,,,,,,,,,,,,,,,,,,,,,,,,,,,,,,,,,64,1.9328,1,0,35,35,34,1,8,×,8,8 × 8,incongruent,tie,1,2,64,,,,,,,,
,,,,,,,,,,,,,,,715,2022-01-27_13h49.59.974,multiplicationStroop,2021.2.3,Win32,59.9880024,,,,,,,,,,,,,,,,,,,,,,,,,,,,,,,,,,,,,,,,,,,,,,,,,,0,2,2,5,1,stimulusFile/mult_blk6_INcongruent.xlsx,,
,,,,,,,,,,,,,,,715,2022-01-27_13h49.59.974,multiplicationStroop,2021.2.3,Win32,59.9880024,,,,,,,,,,,,,,,,,,,,,,,,,,,,,,,space,4.6644,45,2.0522,1,0,0,0,9,1,5,×,9,5 × 9,congruent,smallerFirst,1,2,45,,,,,,,,
,,,,,,,,,,,,,,,715,2022-01-27_13h49.59.974,multiplicationStroop,2021.2.3,Win32,59.9880024,,,,,,,,,,,,,,,,,,,,,,,,,,,,,,,,,16,1.4824,1,0,1,1,19,1,8,×,2,8 × 2,congruent,largerFirst,2,1,16,,,,,,,,
,,,,,,,,,,,,,,,715,2022-01-27_13h49.59.974,multiplicationStroop,2021.2.3,Win32,59.9880024,,,,,,,,,,,,,,,,,,,,,,,,,,,,,,,,,6,1.4827,0,0,2,2,34,1,8,×,8,8 × 8,neutral,tie,1,2,64,,,,,,,,
,,,,,,,,,,,,,,,715,2022-01-27_13h49.59.974,multiplicationStroop,2021.2.3,Win32,59.9880024,,,,,,,,,,,,,,,,,,,,,,,,,,,,,,,,,36,2.0997,1,0,3,3,32,1,6,×,6,6 × 6,neutral,tie,1,2,36,,,,,,,,
,,,,,,,,,,,,,,,715,2022-01-27_13h49.59.974,multiplicationStroop,2021.2.3,Win32,59.9880024,,,,,,,,,,,,,,,,,,,,,,,,,,,,,,,,,24,1.3129,1,0,4,4,24,1,8,×,3,8 × 3,congruent,largerFirst,2,1,24,,,,,,,,
,,,,,,,,,,,,,,,715,2022-01-27_13h49.59.974,multiplicationStroop,2021.2.3,Win32,59.9880024,,,,,,,,,,,,,,,,,,,,,,,,,,,,,,,,,4,1.2326,1,0,5,5,28,1,2,×,2,2 × 2,neutral,tie,1,2,4,,,,,,,,
,,,,,,,,,,,,,,,715,2022-01-27_13h49.59.974,multiplicationStroop,2021.2.3,Win32,59.9880024,,,,,,,,,,,,,,,,,,,,,,,,,,,,,,,,,56,1.5657,1,0,6,6,22,1,8,×,7,8 × 7,congruent,largerFirst,2,1,56,,,,,,,,
,,,,,,,,,,,,,,,715,2022-01-27_13h49.59.974,multiplicationStroop,2021.2.3,Win32,59.9880024,,,,,,,,,,,,,,,,,,,,,,,,,,,,,,,,,8,1.4337,1,0,7,7,23,1,4,×,2,4 × 2,congruent,largerFirst,2,1,8,,,,,,,,
,,,,,,,,,,,,,,,715,2022-01-27_13h49.59.974,multiplicationStroop,2021.2.3,Win32,59.9880024,,,,,,,,,,,,,,,,,,,,,,,,,,,,,,,,,18,1.3297,1,0,8,8,8,1,2,×,9,2 × 9,congruent,smallerFirst,1,2,18,,,,,,,,
,,,,,,,,,,,,,,,715,2022-01-27_13h49.59.974,multiplicationStroop,2021.2.3,Win32,59.9880024,,,,,,,,,,,,,,,,,,,,,,,,,,,,,,,,,12,1.0663,1,0,9,9,5,1,2,×,6,2 × 6,congruent,smallerFirst,1,2,12,,,,,,,,
,,,,,,,,,,,,,,,715,2022-01-27_13h49.59.974,multiplicationStroop,2021.2.3,Win32,59.9880024,,,,,,,,,,,,,,,,,,,,,,,,,,,,,,,,,20,1.2815,1,0,10,10,21,1,5,×,4,5 × 4,congruent,largerFirst,2,1,20,,,,,,,,
,,,,,,,,,,,,,,,715,2022-01-27_13h49.59.974,multiplicationStroop,2021.2.3,Win32,59.9880024,,,,,,,,,,,,,,,,,,,,,,,,,,,,,,,,,21,1.3495,1,0,11,11,2,1,3,×,7,3 × 7,congruent,smallerFirst,1,2,21,,,,,,,,
,,,,,,,,,,,,,,,715,2022-01-27_13h49.59.974,multiplicationStroop,2021.2.3,Win32,59.9880024,,,,,,,,,,,,,,,,,,,,,,,,,,,,,,,,,81,1.4162,1,0,12,12,35,1,9,×,9,9 × 9,neutral,tie,1,2,81,,,,,,,,
,,,,,,,,,,,,,,,715,2022-01-27_13h49.59.974,multiplicationStroop,2021.2.3,Win32,59.9880024,,,,,,,,,,,,,,,,,,,,,,,,,,,,,,,,,36,1.3658,1,0,13,13,14,1,9,×,4,9 × 4,congruent,largerFirst,2,1,36,,,,,,,,
,,,,,,,,,,,,,,,715,2022-01-27_13h49.59.974,multiplicationStroop,2021.2.3,Win32,59.9880024,,,,,,,,,,,,,,,,,,,,,,,,,,,,,,,,,18,1.3993,1,0,14,14,25,1,6,×,3,6 × 3,congruent,largerFirst,2,1,18,,,,,,,,
,,,,,,,,,,,,,,,715,2022-01-27_13h49.59.974,multiplicationStroop,2021.2.3,Win32,59.9880024,,,,,,,,,,,,,,,,,,,,,,,,,,,,,,,,,72,1.8996,1,0,15,15,3,1,8,×,9,8 × 9,congruent,smallerFirst,1,2,72,,,,,,,,
,,,,,,,,,,,,,,,715,2022-01-27_13h49.59.974,multiplicationStroop,2021.2.3,Win32,59.9880024,,,,,,,,,,,,,,,,,,,,,,,,,,,,,,,,,27,1.5505,1,0,16,16,12,1,3,×,9,3 × 9,congruent,smallerFirst,1,2,27,,,,,,,,
,,,,,,,,,,,,,,,715,2022-01-27_13h49.59.974,multiplicationStroop,2021.2.3,Win32,59.9880024,,,,,,,,,,,,,,,,,,,,,,,,,,,,,,,,,30,1.4974,1,0,17,17,1,1,5,×,6,5 × 6,congruent,smallerFirst,1,2,30,,,,,,,,
,,,,,,,,,,,,,,,715,2022-01-27_13h49.59.974,multiplicationStroop,2021.2.3,Win32,59.9880024,,,,,,,,,,,,,,,,,,,,,,,,,,,,,,,,,28,1.3016,1,0,18,18,13,1,4,×,7,4 × 7,congruent,smallerFirst,1,2,28,,,,,,,,
,,,,,,,,,,,,,,,715,2022-01-27_13h49.59.974,multiplicationStroop,2021.2.3,Win32,59.9880024,,,,,,,,,,,,,,,,,,,,,,,,,,,,,,,,,6,1.2832,1,0,19,19,27,1,3,×,2,3 × 2,congruent,largerFirst,2,1,6,,,,,,,,
,,,,,,,,,,,,,,,715,2022-01-27_13h49.59.974,multiplicationStroop,2021.2.3,Win32,59.9880024,,,,,,,,,,,,,,,,,,,,,,,,,,,,,,,,,25,1.2155,1,0,20,20,31,1,5,×,5,5 × 5,neutral,tie,1,2,25,,,,,,,,
,,,,,,,,,,,,,,,715,2022-01-27_13h49.59.974,multiplicationStroop,2021.2.3,Win32,59.9880024,,,,,,,,,,,,,,,,,,,,,,,,,,,,,,,,,32,1.4289,1,0,21,21,6,1,4,×,8,4 × 8,congruent,smallerFirst,1,2,32,,,,,,,,
,,,,,,,,,,,,,,,715,2022-01-27_13h49.59.974,multiplicationStroop,2021.2.3,Win32,59.9880024,,,,,,,,,,,,,,,,,,,,,,,,,,,,,,,,,40,1.4515,1,0,22,22,20,1,8,×,5,8 × 5,congruent,largerFirst,2,1,40,,,,,,,,
,,,,,,,,,,,,,,,715,2022-01-27_13h49.59.974,multiplicationStroop,2021.2.3,Win32,59.9880024,,,,,,,,,,,,,,,,,,,,,,,,,,,,,,,,,9,1.2632,1,0,23,23,29,1,3,×,3,3 × 3,neutral,tie,1,2,9,,,,,,,,
,,,,,,,,,,,,,,,715,2022-01-27_13h49.59.974,multiplicationStroop,2021.2.3,Win32,59.9880024,,,,,,,,,,,,,,,,,,,,,,,,,,,,,,,,,49,1.8348,1,0,24,24,33,1,7,×,7,7 × 7,neutral,tie,1,2,49,,,,,,,,
,,,,,,,,,,,,,,,715,2022-01-27_13h49.59.974,multiplicationStroop,2021.2.3,Win32,59.9880024,,,,,,,,,,,,,,,,,,,,,,,,,,,,,,,,,12,1.1455,1,0,25,25,16,1,4,×,3,4 × 3,congruent,largerFirst,2,1,12,,,,,,,,
,,,,,,,,,,,,,,,715,2022-01-27_13h49.59.974,multiplicationStroop,2021.2.3,Win32,59.9880024,,,,,,,,,,,,,,,,,,,,,,,,,,,,,,,,,42,1.4352,1,0,26,26,17,1,7,×,6,7 × 6,congruent,largerFirst,2,1,42,,,,,,,,
,,,,,,,,,,,,,,,715,2022-01-27_13h49.59.974,multiplicationStroop,2021.2.3,Win32,59.9880024,,,,,,,,,,,,,,,,,,,,,,,,,,,,,,,,,10,1.2801,1,0,27,27,10,1,2,×,5,2 × 5,congruent,smallerFirst,1,2,10,,,,,,,,
,,,,,,,,,,,,,,,715,2022-01-27_13h49.59.974,multiplicationStroop,2021.2.3,Win32,59.9880024,,,,,,,,,,,,,,,,,,,,,,,,,,,,,,,,,54,2.7508,1,0,28,28,26,1,9,×,6,9 × 6,congruent,largerFirst,2,1,54,,,,,,,,
,,,,,,,,,,,,,,,715,2022-01-27_13h49.59.974,multiplicationStroop,2021.2.3,Win32,59.9880024,,,,,,,,,,,,,,,,,,,,,,,,,,,,,,,,,24,1.8332,1,0,29,29,11,1,4,×,6,4 × 6,congruent,smallerFirst,1,2,24,,,,,,,,
,,,,,,,,,,,,,,,715,2022-01-27_13h49.59.974,multiplicationStroop,2021.2.3,Win32,59.9880024,,,,,,,,,,,,,,,,,,,,,,,,,,,,,,,,,14,1.4498,1,0,30,30,0,1,2,×,7,2 × 7,congruent,smallerFirst,1,2,14,,,,,,,,
,,,,,,,,,,,,,,,715,2022-01-27_13h49.59.974,multiplicationStroop,2021.2.3,Win32,59.9880024,,,,,,,,,,,,,,,,,,,,,,,,,,,,,,,,,16,1.6124,1,0,31,31,30,1,4,×,4,4 × 4,neutral,tie,1,2,16,,,,,,,,
,,,,,,,,,,,,,,,715,2022-01-27_13h49.59.974,multiplicationStroop,2021.2.3,Win32,59.9880024,,,,,,,,,,,,,,,,,,,,,,,,,,,,,,,,,15,1.3016,1,0,32,32,18,1,5,×,3,5 × 3,congruent,largerFirst,2,1,15,,,,,,,,
,,,,,,,,,,,,,,,715,2022-01-27_13h49.59.974,multiplicationStroop,2021.2.3,Win32,59.9880024,,,,,,,,,,,,,,,,,,,,,,,,,,,,,,,,,35,1.5657,1,0,33,33,15,1,7,×,5,7 × 5,congruent,largerFirst,2,1,35,,,,,,,,
,,,,,,,,,,,,,,,715,2022-01-27_13h49.59.974,multiplicationStroop,2021.2.3,Win32,59.9880024,,,,,,,,,,,,,,,,,,,,,,,,,,,,,,,,,48,1.6132,1,0,34,34,4,1,6,×,8,6 × 8,congruent,smallerFirst,1,2,48,,,,,,,,
,,,,,,,,,,,,,,,715,2022-01-27_13h49.59.974,multiplicationStroop,2021.2.3,Win32,59.9880024,,,,,,,,,,,,,,,,,,,,,,,,,,,,,,,,,63,2.2355,1,0,35,35,7,1,7,×,9,7 × 9,congruent,smallerFirst,1,2,63,,,,,,,,
,,,,,,,,,,,,,,,715,2022-01-27_13h49.59.974,multiplicationStroop,2021.2.3,Win32,59.9880024,,,,,,,,,,,,,,,,,,,,,,,,,,,,,,,,,,,,,,,,,,,,,,,,,,0,3,3,3,1,stimulusFile/mult_blk4_congruent.xlsx,,
,,,,,,,,,,,,,,,715,2022-01-27_13h49.59.974,multiplicationStroop,2021.2.3,Win32,59.9880024,,,,,,,,,,,,,,,,,,,,,,,,,,,,,,,space,0.7671,35,1.3927,1,0,0,0,1,1,5,×,7,5 × 7,congruent,smallerFirst,1,2,35,,,,,,,,
,,,,,,,,,,,,,,,715,2022-01-27_13h49.59.974,multiplicationStroop,2021.2.3,Win32,59.9880024,,,,,,,,,,,,,,,,,,,,,,,,,,,,,,,,,56,1.3482,1,0,1,1,8,1,7,×,8,7 × 8,congruent,smallerFirst,1,2,56,,,,,,,,
,,,,,,,,,,,,,,,715,2022-01-27_13h49.59.974,multiplicationStroop,2021.2.3,Win32,59.9880024,,,,,,,,,,,,,,,,,,,,,,,,,,,,,,,,,4,1.1853,1,0,2,2,28,1,2,×,2,2 × 2,neutral,tie,2,1,4,,,,,,,,
,,,,,,,,,,,,,,,715,2022-01-27_13h49.59.974,multiplicationStroop,2021.2.3,Win32,59.9880024,,,,,,,,,,,,,,,,,,,,,,,,,,,,,,,,,72,1.363,1,0,3,3,17,1,9,×,8,9 × 8,congruent,largerFirst,2,1,72,,,,,,,,
,,,,,,,,,,,,,,,715,2022-01-27_13h49.59.974,multiplicationStroop,2021.2.3,Win32,59.9880024,,,,,,,,,,,,,,,,,,,,,,,,,,,,,,,,,9,1.281,1,0,4,4,29,1,3,×,3,3 × 3,neutral,tie,2,1,9,,,,,,,,
,,,,,,,,,,,,,,,715,2022-01-27_13h49.59.974,multiplicationStroop,2021.2.3,Win32,59.9880024,,,,,,,,,,,,,,,,,,,,,,,,,,,,,,,,,32,1.5189,1,0,5,5,20,1,8,×,4,8 × 4,congruent,largerFirst,2,1,32,,,,,,,,
,,,,,,,,,,,,,,,715,2022-01-27_13h49.59.974,multiplicationStroop,2021.2.3,Win32,59.9880024,,,,,,,,,,,,,,,,,,,,,,,,,,,,,,,,,16,1.4317,1,0,6,6,30,1,4,×,4,4 × 4,neutral,tie,2,1,16,,,,,,,,
,,,,,,,,,,,,,,,715,2022-01-27_13h49.59.974,multiplicationStroop,2021.2.3,Win32,59.9880024,,,,,,,,,,,,,,,,,,,,,,,,,,,,,,,,,12,1.1833,1,0,7,7,2,1,3,×,4,3 × 4,congruent,smallerFirst,1,2,12,,,,,,,,
,,,,,,,,,,,,,,,715,2022-01-27_13h49.59.974,multiplicationStroop,2021.2.3,Win32,59.9880024,,,,,,,,,,,,,,,,,,,,,,,,,,,,,,,,,18,1.3291,1,0,8,8,22,1,9,×,2,9 × 2,congruent,largerFirst,2,1,18,,,,,,,,
,,,,,,,,,,,,,,,715,2022-01-27_13h49.59.974,multiplicationStroop,2021.2.3,Win32,59.9880024,,,,,,,,,,,,,,,,,,,,,,,,,,,,,,,,,18,1.5649,1,0,9,9,11,1,3,×,6,3 × 6,congruent,smallerFirst,1,2,18,,,,,,,,
,,,,,,,,,,,,,,,715,2022-01-27_13h49.59.974,multiplicationStroop,2021.2.3,Win32,59.9880024,,,,,,,,,,,,,,,,,,,,,,,,,,,,,,,,,14,1.3151,1,0,10,10,14,1,7,×,2,7 × 2,congruent,largerFirst,2,1,14,,,,,,,,
,,,,,,,,,,,,,,,715,2022-01-27_13h49.59.974,multiplicationStroop,2021.2.3,Win32,59.9880024,,,,,,,,,,,,,,,,,,,,,,,,,,,,,,,,,24,1.3343,1,0,11,11,25,1,6,×,4,6 × 4,congruent,largerFirst,2,1,24,,,,,,,,
,,,,,,,,,,,,,,,715,2022-01-27_13h49.59.974,multiplicationStroop,2021.2.3,Win32,59.9880024,,,,,,,,,,,,,,,,,,,,,,,,,,,,,,,,,6,1.383,1,0,12,12,13,1,2,×,3,2 × 3,congruent,smallerFirst,1,2,6,,,,,,,,
,,,,,,,,,,,,,,,715,2022-01-27_13h49.59.974,multiplicationStroop,2021.2.3,Win32,59.9880024,,,,,,,,,,,,,,,,,,,,,,,,,,,,,,,,,40,1.4494,1,0,13,13,6,1,5,×,8,5 × 8,congruent,smallerFirst,1,2,40,,,,,,,,
,,,,,,,,,,,,,,,715,2022-01-27_13h49.59.974,multiplicationStroop,2021.2.3,Win32,59.9880024,,,,,,,,,,,,,,,,,,,,,,,,,,,,,,,,,64,1.5786,1,0,14,14,34,1,8,×,8,8 × 8,neutral,tie,2,1,64,,,,,,,,
,,,,,,,,,,,,,,,715,2022-01-27_13h49.59.974,multiplicationStroop,2021.2.3,Win32,59.9880024,,,,,,,,,,,,,,,,,,,,,,,,,,,,,,,,,10,1.3684,1,0,15,15,24,1,5,×,2,5 × 2,congruent,largerFirst,2,1,10,,,,,,,,
,,,,,,,,,,,,,,,715,2022-01-27_13h49.59.974,multiplicationStroop,2021.2.3,Win32,59.9880024,,,,,,,,,,,,,,,,,,,,,,,,,,,,,,,,,8,1.4644,1,0,16,16,9,1,2,×,4,2 × 4,congruent,smallerFirst,1,2,8,,,,,,,,
,,,,,,,,,,,,,,,715,2022-01-27_13h49.59.974,multiplicationStroop,2021.2.3,Win32,59.9880024,,,,,,,,,,,,,,,,,,,,,,,,,,,,,,,,,49,1.6803,1,0,17,17,33,1,7,×,7,7 × 7,neutral,tie,2,1,49,,,,,,,,
,,,,,,,,,,,,,,,715,2022-01-27_13h49.59.974,multiplicationStroop,2021.2.3,Win32,59.9880024,,,,,,,,,,,,,,,,,,,,,,,,,,,,,,,,,16,1.3319,1,0,18,18,5,1,2,×,8,2 × 8,congruent,smallerFirst,1,2,16,,,,,,,,
,,,,,,,,,,,,,,,715,2022-01-27_13h49.59.974,multiplicationStroop,2021.2.3,Win32,59.9880024,,,,,,,,,,,,,,,,,,,,,,,,,,,,,,,,,20,2.052,1,0,19,19,7,1,4,×,5,4 × 5,congruent,smallerFirst,1,2,20,,,,,,,,
,,,,,,,,,,,,,,,715,2022-01-27_13h49.59.974,multiplicationStroop,2021.2.3,Win32,59.9880024,,,,,,,,,,,,,,,,,,,,,,,,,,,,,,,,,27,1.3495,1,0,20,20,26,1,9,×,3,9 × 3,congruent,largerFirst,2,1,27,,,,,,,,
,,,,,,,,,,,,,,,715,2022-01-27_13h49.59.974,multiplicationStroop,2021.2.3,Win32,59.9880024,,,,,,,,,,,,,,,,,,,,,,,,,,,,,,,,,30,1.3824,1,0,21,21,15,1,6,×,5,6 × 5,congruent,largerFirst,2,1,30,,,,,,,,
,,,,,,,,,,,,,,,715,2022-01-27_13h49.59.974,multiplicationStroop,2021.2.3,Win32,59.9880024,,,,,,,,,,,,,,,,,,,,,,,,,,,,,,,,,63,1.7324,1,0,22,22,21,1,9,×,7,9 × 7,congruent,largerFirst,2,1,63,,,,,,,,
,,,,,,,,,,,,,,,715,2022-01-27_13h49.59.974,multiplicationStroop,2021.2.3,Win32,59.9880024,,,,,,,,,,,,,,,,,,,,,,,,,,,,,,,,,36,1.43,1,0,23,23,0,1,4,×,9,4 × 9,congruent,smallerFirst,1,2,36,,,,,,,,
,,,,,,,,,,,,,,,715,2022-01-27_13h49.59.974,multiplicationStroop,2021.2.3,Win32,59.9880024,,,,,,,,,,,,,,,,,,,,,,,,,,,,,,,,,25,1.8007,1,0,24,24,31,1,5,×,5,5 × 5,neutral,tie,2,1,25,,,,,,,,
,,,,,,,,,,,,,,,715,2022-01-27_13h49.59.974,multiplicationStroop,2021.2.3,Win32,59.9880024,,,,,,,,,,,,,,,,,,,,,,,,,,,,,,,,,45,1.3954,1,0,25,25,23,1,9,×,5,9 × 5,congruent,largerFirst,2,1,45,,,,,,,,
,,,,,,,,,,,,,,,715,2022-01-27_13h49.59.974,multiplicationStroop,2021.2.3,Win32,59.9880024,,,,,,,,,,,,,,,,,,,,,,,,,,,,,,,,,81,1.2977,1,0,26,26,35,1,9,×,9,9 × 9,neutral,tie,2,1,81,,,,,,,,
,,,,,,,,,,,,,,,715,2022-01-27_13h49.59.974,multiplicationStroop,2021.2.3,Win32,59.9880024,,,,,,,,,,,,,,,,,,,,,,,,,,,,,,,,,21,1.1016,1,0,27,27,16,1,7,×,3,7 × 3,congruent,largerFirst,2,1,21,,,,,,,,
,,,,,,,,,,,,,,,715,2022-01-27_13h49.59.974,multiplicationStroop,2021.2.3,Win32,59.9880024,,,,,,,,,,,,,,,,,,,,,,,,,,,,,,,,,24,1.313,1,0,28,28,10,1,3,×,8,3 × 8,congruent,smallerFirst,1,2,24,,,,,,,,
,,,,,,,,,,,,,,,715,2022-01-27_13h49.59.974,multiplicationStroop,2021.2.3,Win32,59.9880024,,,,,,,,,,,,,,,,,,,,,,,,,,,,,,,,,48,2.4851,1,0,29,29,18,1,8,×,6,8 × 6,congruent,largerFirst,2,1,48,,,,,,,,
,,,,,,,,,,,,,,,715,2022-01-27_13h49.59.974,multiplicationStroop,2021.2.3,Win32,59.9880024,,,,,,,,,,,,,,,,,,,,,,,,,,,,,,,,,15,1.3496,1,0,30,30,4,1,3,×,5,3 × 5,congruent,smallerFirst,1,2,15,,,,,,,,
,,,,,,,,,,,,,,,715,2022-01-27_13h49.59.974,multiplicationStroop,2021.2.3,Win32,59.9880024,,,,,,,,,,,,,,,,,,,,,,,,,,,,,,,,,28,1.4288,1,0,31,31,27,1,7,×,4,7 × 4,congruent,largerFirst,2,1,28,,,,,,,,
,,,,,,,,,,,,,,,715,2022-01-27_13h49.59.974,multiplicationStroop,2021.2.3,Win32,59.9880024,,,,,,,,,,,,,,,,,,,,,,,,,,,,,,,,,12,1.1802,1,0,32,32,19,1,6,×,2,6 × 2,congruent,largerFirst,2,1,12,,,,,,,,
,,,,,,,,,,,,,,,715,2022-01-27_13h49.59.974,multiplicationStroop,2021.2.3,Win32,59.9880024,,,,,,,,,,,,,,,,,,,,,,,,,,,,,,,,,36,1.3647,1,0,33,33,32,1,6,×,6,6 × 6,neutral,tie,2,1,36,,,,,,,,
,,,,,,,,,,,,,,,715,2022-01-27_13h49.59.974,multiplicationStroop,2021.2.3,Win32,59.9880024,,,,,,,,,,,,,,,,,,,,,,,,,,,,,,,,,42,1.6687,1,0,34,34,3,1,6,×,7,6 × 7,congruent,smallerFirst,1,2,42,,,,,,,,
,,,,,,,,,,,,,,,715,2022-01-27_13h49.59.974,multiplicationStroop,2021.2.3,Win32,59.9880024,,,,,,,,,,,,,,,,,,,,,,,,,,,,,,,,,54,2.1996,1,0,35,35,12,1,6,×,9,6 × 9,congruent,smallerFirst,1,2,54,,,,,,,,
,,,,,,,,,,,,,,,715,2022-01-27_13h49.59.974,multiplicationStroop,2021.2.3,Win32,59.9880024,,,,,,,,,,,,,,,,,,,,,,,,,,,,,,,,,,,,,,,,,,,,,,,,,,0,4,4,2,1,stimulusFile/mult_blk3_congruent.xlsx,,
,,,,,,,,,,,,,,,715,2022-01-27_13h49.59.974,multiplicationStroop,2021.2.3,Win32,59.9880024,,,,,,,,,,,,,,,,,,,,,,,,,,,,,,,space,1.3362,8,1.3634,1,0,0,0,10,1,2,×,4,2 × 4,incongruent,smallerFirst,2,1,8,,,,,,,,
,,,,,,,,,,,,,,,715,2022-01-27_13h49.59.974,multiplicationStroop,2021.2.3,Win32,59.9880024,,,,,,,,,,,,,,,,,,,,,,,,,,,,,,,,,14,1.3018,1,0,1,1,18,1,7,×,2,7 × 2,incongruent,largerFirst,1,2,14,,,,,,,,
,,,,,,,,,,,,,,,715,2022-01-27_13h49.59.974,multiplicationStroop,2021.2.3,Win32,59.9880024,,,,,,,,,,,,,,,,,,,,,,,,,,,,,,,,,12,1.1825,1,0,2,2,5,1,2,×,6,2 × 6,incongruent,smallerFirst,2,1,12,,,,,,,,
,,,,,,,,,,,,,,,715,2022-01-27_13h49.59.974,multiplicationStroop,2021.2.3,Win32,59.9880024,,,,,,,,,,,,,,,,,,,,,,,,,,,,,,,,,18,1.4122,1,0,3,3,22,1,6,×,3,6 × 3,incongruent,largerFirst,1,2,18,,,,,,,,
,,,,,,,,,,,,,,,715,2022-01-27_13h49.59.974,multiplicationStroop,2021.2.3,Win32,59.9880024,,,,,,,,,,,,,,,,,,,,,,,,,,,,,,,,,4,1.1853,1,0,4,4,28,1,2,×,2,2 × 2,neutral,tie,2,1,4,,,,,,,,
,,,,,,,,,,,,,,,715,2022-01-27_13h49.59.974,multiplicationStroop,2021.2.3,Win32,59.9880024,,,,,,,,,,,,,,,,,,,,,,,,,,,,,,,,,54,1.5327,1,0,5,5,20,1,9,×,6,9 × 6,incongruent,largerFirst,1,2,54,,,,,,,,
,,,,,,,,,,,,,,,715,2022-01-27_13h49.59.974,multiplicationStroop,2021.2.3,Win32,59.9880024,,,,,,,,,,,,,,,,,,,,,,,,,,,,,,,,,25,1.3324,1,0,6,6,31,1,5,×,5,5 × 5,neutral,tie,2,1,25,,,,,,,,
,,,,,,,,,,,,,,,715,2022-01-27_13h49.59.974,multiplicationStroop,2021.2.3,Win32,59.9880024,,,,,,,,,,,,,,,,,,,,,,,,,,,,,,,,,48,1.4493,1,0,7,7,15,1,8,×,6,8 × 6,incongruent,largerFirst,1,2,48,,,,,,,,
,,,,,,,,,,,,,,,715,2022-01-27_13h49.59.974,multiplicationStroop,2021.2.3,Win32,59.9880024,,,,,,,,,,,,,,,,,,,,,,,,,,,,,,,,,6,1.7991,1,0,8,8,25,1,3,×,2,3 × 2,incongruent,largerFirst,1,2,6,,,,,,,,
,,,,,,,,,,,,,,,715,2022-01-27_13h49.59.974,multiplicationStroop,2021.2.3,Win32,59.9880024,,,,,,,,,,,,,,,,,,,,,,,,,,,,,,,,,45,1.5992,1,0,9,9,8,1,5,×,9,5 × 9,incongruent,smallerFirst,2,1,45,,,,,,,,
,,,,,,,,,,,,,,,715,2022-01-27_13h49.59.974,multiplicationStroop,2021.2.3,Win32,59.9880024,,,,,,,,,,,,,,,,,,,,,,,,,,,,,,,,,21,1.1177,1,0,10,10,12,1,3,×,7,3 × 7,incongruent,smallerFirst,2,1,21,,,,,,,,
,,,,,,,,,,,,,,,715,2022-01-27_13h49.59.974,multiplicationStroop,2021.2.3,Win32,59.9880024,,,,,,,,,,,,,,,,,,,,,,,,,,,,,,,,,20,1.3313,1,0,11,11,13,1,4,×,5,4 × 5,incongruent,smallerFirst,2,1,20,,,,,,,,
,,,,,,,,,,,,,,,715,2022-01-27_13h49.59.974,multiplicationStroop,2021.2.3,Win32,59.9880024,,,,,,,,,,,,,,,,,,,,,,,,,,,,,,,,,10,1.3997,1,0,12,12,7,1,2,×,5,2 × 5,incongruent,smallerFirst,2,1,10,,,,,,,,
,,,,,,,,,,,,,,,715,2022-01-27_13h49.59.974,multiplicationStroop,2021.2.3,Win32,59.9880024,,,,,,,,,,,,,,,,,,,,,,,,,,,,,,,,,42,1.4496,1,0,13,13,3,1,6,×,7,6 × 7,incongruent,smallerFirst,2,1,42,,,,,,,,
,,,,,,,,,,,,,,,715,2022-01-27_13h49.59.974,multiplicationStroop,2021.2.3,Win32,59.9880024,,,,,,,,,,,,,,,,,,,,,,,,,,,,,,,,,32,1.3657,1,0,14,14,21,1,8,×,4,8 × 4,incongruent,largerFirst,1,2,32,,,,,,,,
,,,,,,,,,,,,,,,715,2022-01-27_13h49.59.974,multiplicationStroop,2021.2.3,Win32,59.9880024,,,,,,,,,,,,,,,,,,,,,,,,,,,,,,,,,16,1.7326,1,0,15,15,9,1,2,×,8,2 × 8,incongruent,smallerFirst,2,1,16,,,,,,,,
,,,,,,,,,,,,,,,715,2022-01-27_13h49.59.974,multiplicationStroop,2021.2.3,Win32,59.9880024,,,,,,,,,,,,,,,,,,,,,,,,,,,,,,,,,36,1.5286,1,0,16,16,32,1,6,×,6,6 × 6,neutral,tie,2,1,36,,,,,,,,
,,,,,,,,,,,,,,,715,2022-01-27_13h49.59.974,multiplicationStroop,2021.2.3,Win32,59.9880024,,,,,,,,,,,,,,,,,,,,,,,,,,,,,,,,,72,1.5851,1,0,17,17,14,1,9,×,8,9 × 8,incongruent,largerFirst,1,2,72,,,,,,,,
,,,,,,,,,,,,,,,715,2022-01-27_13h49.59.974,multiplicationStroop,2021.2.3,Win32,59.9880024,,,,,,,,,,,,,,,,,,,,,,,,,,,,,,,,,64,1.9335,1,0,18,18,34,1,8,×,8,8 × 8,neutral,tie,2,1,64,,,,,,,,
,,,,,,,,,,,,,,,715,2022-01-27_13h49.59.974,multiplicationStroop,2021.2.3,Win32,59.9880024,,,,,,,,,,,,,,,,,,,,,,,,,,,,,,,,,30,1.7319,1,0,19,19,11,1,5,×,6,5 × 6,incongruent,smallerFirst,2,1,30,,,,,,,,
,,,,,,,,,,,,,,,715,2022-01-27_13h49.59.974,multiplicationStroop,2021.2.3,Win32,59.9880024,,,,,,,,,,,,,,,,,,,,,,,,,,,,,,,,,36,1.4493,1,0,20,20,1,1,4,×,9,4 × 9,incongruent,smallerFirst,2,1,36,,,,,,,,
,,,,,,,,,,,,,,,715,2022-01-27_13h49.59.974,multiplicationStroop,2021.2.3,Win32,59.9880024,,,,,,,,,,,,,,,,,,,,,,,,,,,,,,,,,56,1.6309,1,0,21,21,0,1,7,×,8,7 × 8,incongruent,smallerFirst,2,1,56,,,,,,,,
,,,,,,,,,,,,,,,715,2022-01-27_13h49.59.974,multiplicationStroop,2021.2.3,Win32,59.9880024,,,,,,,,,,,,,,,,,,,,,,,,,,,,,,,,,12,1.0856,1,0,22,22,19,1,4,×,3,4 × 3,incongruent,largerFirst,1,2,12,,,,,,,,
,,,,,,,,,,,,,,,715,2022-01-27_13h49.59.974,multiplicationStroop,2021.2.3,Win32,59.9880024,,,,,,,,,,,,,,,,,,,,,,,,,,,,,,,,,18,1.2939,1,0,23,23,16,1,9,×,2,9 × 2,incongruent,largerFirst,1,2,18,,,,,,,,
,,,,,,,,,,,,,,,715,2022-01-27_13h49.59.974,multiplicationStroop,2021.2.3,Win32,59.9880024,,,,,,,,,,,,,,,,,,,,,,,,,,,,,,,,,49,1.5477,1,0,24,24,33,1,7,×,7,7 × 7,neutral,tie,2,1,49,,,,,,,,
,,,,,,,,,,,,,,,715,2022-01-27_13h49.59.974,multiplicationStroop,2021.2.3,Win32,59.9880024,,,,,,,,,,,,,,,,,,,,,,,,,,,,,,,,,40,1.4695,1,0,25,25,27,1,8,×,5,8 × 5,incongruent,largerFirst,1,2,40,,,,,,,,
,,,,,,,,,,,,,,,715,2022-01-27_13h49.59.974,multiplicationStroop,2021.2.3,Win32,59.9880024,,,,,,,,,,,,,,,,,,,,,,,,,,,,,,,,,27,1.5667,1,0,26,26,4,1,3,×,9,3 × 9,incongruent,smallerFirst,2,1,27,,,,,,,,
,,,,,,,,,,,,,,,715,2022-01-27_13h49.59.974,multiplicationStroop,2021.2.3,Win32,59.9880024,,,,,,,,,,,,,,,,,,,,,,,,,,,,,,,,,63,1.4791,1,0,27,27,17,1,9,×,7,9 × 7,incongruent,largerFirst,1,2,63,,,,,,,,
,,,,,,,,,,,,,,,715,2022-01-27_13h49.59.974,multiplicationStroop,2021.2.3,Win32,59.9880024,,,,,,,,,,,,,,,,,,,,,,,,,,,,,,,,,24,1.3854,1,0,28,28,6,1,4,×,6,4 × 6,incongruent,smallerFirst,2,1,24,,,,,,,,
,,,,,,,,,,,,,,,715,2022-01-27_13h49.59.974,multiplicationStroop,2021.2.3,Win32,59.9880024,,,,,,,,,,,,,,,,,,,,,,,,,,,,,,,,,9,1.2625,1,0,29,29,29,1,3,×,3,3 × 3,neutral,tie,2,1,9,,,,,,,,
,,,,,,,,,,,,,,,715,2022-01-27_13h49.59.974,multiplicationStroop,2021.2.3,Win32,59.9880024,,,,,,,,,,,,,,,,,,,,,,,,,,,,,,,,,81,1.3017,1,0,30,30,35,1,9,×,9,9 × 9,neutral,tie,2,1,81,,,,,,,,
,,,,,,,,,,,,,,,715,2022-01-27_13h49.59.974,multiplicationStroop,2021.2.3,Win32,59.9880024,,,,,,,,,,,,,,,,,,,,,,,,,,,,,,,,,35,1.266,1,0,31,31,26,1,7,×,5,7 × 5,incongruent,largerFirst,1,2,35,,,,,,,,
,,,,,,,,,,,,,,,715,2022-01-27_13h49.59.974,multiplicationStroop,2021.2.3,Win32,59.9880024,,,,,,,,,,,,,,,,,,,,,,,,,,,,,,,,,28,1.3998,1,0,32,32,2,1,4,×,7,4 × 7,incongruent,smallerFirst,2,1,28,,,,,,,,
,,,,,,,,,,,,,,,715,2022-01-27_13h49.59.974,multiplicationStroop,2021.2.3,Win32,59.9880024,,,,,,,,,,,,,,,,,,,,,,,,,,,,,,,,,15,1.3614,1,0,33,33,24,1,5,×,3,5 × 3,incongruent,largerFirst,1,2,15,,,,,,,,
,,,,,,,,,,,,,,,715,2022-01-27_13h49.59.974,multiplicationStroop,2021.2.3,Win32,59.9880024,,,,,,,,,,,,,,,,,,,,,,,,,,,,,,,,,16,1.3147,1,0,34,34,30,1,4,×,4,4 × 4,neutral,tie,2,1,16,,,,,,,,
,,,,,,,,,,,,,,,715,2022-01-27_13h49.59.974,multiplicationStroop,2021.2.3,Win32,59.9880024,,,,,,,,,,,,,,,,,,,,,,,,,,,,,,,,,24,1.3347,1,0,35,35,23,1,8,×,3,8 × 3,incongruent,largerFirst,1,2,24,,,,,,,,
,,,,,,,,,,,,,,,715,2022-01-27_13h49.59.974,multiplicationStroop,2021.2.3,Win32,59.9880024,,,,,,,,,,,,,,,,,,,,,,,,,,,,,,,,,,,,,,,,,,,,,,,,,,0,5,5,4,1,stimulusFile/mult_blk5_INcongruent.xlsx,,
,,,,,,,,,,,,,,,715,2022-01-27_13h49.59.974,multiplicationStroop,2021.2.3,Win32,59.9880024,,,,,,,,,,,,,,,,,,,,,,,,,,,,,,,,,,,,,,,,,,,,,,,,,,,,,,,,space,2.6543