welcomeKey_resp.keys,welcomeKey_resp.rt,X Scale,Y Scale,rt_resp_4.keys,rt_resp_4.corr,rt_resp_4.rt,speedtest_2.thisRepN,speedtest_2.thisTrialN,speedtest_2.thisN,speedtest_2.thisIndex,speedtest_2.ran,numberSc,posX,positionLayout,participant,date,expName,psychopyVersion,OS,frameRate,ct_instrresp.keys,ct_instrresp.rt,key_resp_2.keys,key_resp_2.rt,ct_keyResp.keys,ct_keyResp.corr,ct_keyResp.rt,trials.thisRepN,trials.thisTrialN,trials.thisN,trials.thisIndex,trials.ran,leftNo,rightNo,displayProblem,numDistance,leftNo_size,rightNo_size,Dims,keyAnswer,TS_Loop.thisRepN,TS_Loop.thisTrialN,TS_Loop.thisN,TS_Loop.thisIndex,TS_Loop.ran,Condition,ActionInst,instrImage,mltptaskInst_resp.keys,mltptaskInst_resp.rt,continue_resp_2.keys,continue_resp_2.rt,multp_Answer,multi_RT,multiplyCorr,LoopingMultiply.thisRepN,LoopingMultiply.thisTrialN,LoopingMultiply.thisN,LoopingMultiply.thisIndex,LoopingMultiply.ran,factor1,multiplySign,factor2,multliplyProblem,physicalSize,orderOperand,sizeF1,sizeF2,mult_answer,trials_stroop.thisRepN,trials_stroop.thisTrialN,trials_stroop.thisN,trials_stroop.thisIndex,trials_stroop.ran,multiplicationFile,esckey_resp_2.keys,esckey_resp_2.rt
y,4.0034,41.8,42.8,left,1,0.4169,0,0,0,2,1,3,-200,left,719,2022-01-25_09h15.56.084,multiplicationStroop,2021.2.3,Win32,60.0528465,,,,,,,,,,,,,,,,,,,,,,,,,,,,,,,,,,,,,,,,,,,,,,,,,,,,,,,,,
,,,,left,1,0.5116,0,1,1,4,1,6,-200,left,719,2022-01-25_09h15.56.084,multiplicationStroop,2021.2.3,Win32,60.0528465,,,,,,,,,,,,,,,,,,,,,,,,,,,,,,,,,,,,,,,,,,,,,,,,,,,,,,,,,
,,,,right,1,0.3108,0,2,2,8,1,1,200,right,719,2022-01-25_09h15.56.084,multiplicationStroop,2021.2.3,Win32,60.0528465,,,,,,,,,,,,,,,,,,,,,,,,,,,,,,,,,,,,,,,,,,,,,,,,,,,,,,,,,
,,,,right,1,0.3443,0,3,3,13,1,7,200,right,719,2022-01-25_09h15.56.084,multiplicationStroop,2021.2.3,Win32,60.0528465,,,,,,,,,,,,,,,,,,,,,,,,,,,,,,,,,,,,,,,,,,,,,,,,,,,,,,,,,
,,,,right,1,0.3167,0,4,4,10,1,3,200,right,719,2022-01-25_09h15.56.084,multiplicationStroop,2021.2.3,Win32,60.0528465,,,,,,,,,,,,,,,,,,,,,,,,,,,,,,,,,,,,,,,,,,,,,,,,,,,,,,,,,
,,,,left,1,0.3003,0,5,5,3,1,4,-200,left,719,2022-01-25_09h15.56.084,multiplicationStroop,2021.2.3,Win32,60.0528465,,,,,,,,,,,,,,,,,,,,,,,,,,,,,,,,,,,,,,,,,,,,,,,,,,,,,,,,,
,,,,right,1,0.363,0,6,6,9,1,2,200,right,719,2022-01-25_09h15.56.084,multiplicationStroop,2021.2.3,Win32,60.0528465,,,,,,,,,,,,,,,,,,,,,,,,,,,,,,,,,,,,,,,,,,,,,,,,,,,,,,,,,
,,,,right,1,0.3101,0,7,7,12,1,6,200,right,719,2022-01-25_09h15.56.084,multiplicationStroop,2021.2.3,Win32,60.0528465,,,,,,,,,,,,,,,,,,,,,,,,,,,,,,,,,,,,,,,,,,,,,,,,,,,,,,,,,
,,,,left,1,0.2926,0,8,8,6,1,8,-200,left,719,2022-01-25_09h15.56.084,multiplicationStroop,2021.2.3,Win32,60.0528465,,,,,,,,,,,,,,,,,,,,,,,,,,,,,,,,,,,,,,,,,,,,,,,,,,,,,,,,,
,,,,right,1,0.2719,0,9,9,15,1,9,200,right,719,2022-01-25_09h15.56.084,multiplicationStroop,2021.2.3,Win32,60.0528465,,,,,,,,,,,,,,,,,,,,,,,,,,,,,,,,,,,,,,,,,,,,,,,,,,,,,,,,,
,,,,left,1,0.2891,0,10,10,1,1,2,-200,left,719,2022-01-25_09h15.56.084,multiplicationStroop,2021.2.3,Win32,60.0528465,,,,,,,,,,,,,,,,,,,,,,,,,,,,,,,,,,,,,,,,,,,,,,,,,,,,,,,,,
,,,,left,1,0.3376,0,11,11,5,1,7,-200,left,719,2022-01-25_09h15.56.084,multiplicationStroop,2021.2.3,Win32,60.0528465,,,,,,,,,,,,,,,,,,,,,,,,,,,,,,,,,,,,,,,,,,,,,,,,,,,,,,,,,
,,,,right,1,0.3089,0,12,12,14,1,8,200,right,719,2022-01-25_09h15.56.084,multiplicationStroop,2021.2.3,Win32,60.0528465,,,,,,,,,,,,,,,,,,,,,,,,,,,,,,,,,,,,,,,,,,,,,,,,,,,,,,,,,
,,,,right,1,0.3063,0,13,13,11,1,4,200,right,719,2022-01-25_09h15.56.084,multiplicationStroop,2021.2.3,Win32,60.0528465,,,,,,,,,,,,,,,,,,,,,,,,,,,,,,,,,,,,,,,,,,,,,,,,,,,,,,,,,
,,,,left,1,0.2728,0,14,14,7,1,9,-200,left,719,2022-01-25_09h15.56.084,multiplicationStroop,2021.2.3,Win32,60.0528465,,,,,,,,,,,,,,,,,,,,,,,,,,,,,,,,,,,,,,,,,,,,,,,,,,,,,,,,,
,,,,left,1,0.3181,0,15,15,0,1,1,-200,left,719,2022-01-25_09h15.56.084,multiplicationStroop,2021.2.3,Win32,60.0528465,,,,,,,,,,,,,,,,,,,,,,,,,,,,,,,,,,,,,,,,,,,,,,,,,,,,,,,,,
,,,,left,1,0.3193,1,0,16,0,1,1,-200,left,719,2022-01-25_09h15.56.084,multiplicationStroop,2021.2.3,Win32,60.0528465,,,,,,,,,,,,,,,,,,,,,,,,,,,,,,,,,,,,,,,,,,,,,,,,,,,,,,,,,
,,,,left,1,0.2906,1,1,17,3,1,4,-200,left,719,2022-01-25_09h15.56.084,multiplicationStroop,2021.2.3,Win32,60.0528465,,,,,,,,,,,,,,,,,,,,,,,,,,,,,,,,,,,,,,,,,,,,,,,,,,,,,,,,,
,,,,left,1,0.2851,1,2,18,2,1,3,-200,left,719,2022-01-25_09h15.56.084,multiplicationStroop,2021.2.3,Win32,60.0528465,,,,,,,,,,,,,,,,,,,,,,,,,,,,,,,,,,,,,,,,,,,,,,,,,,,,,,,,,
,,,,right,1,0.3277,1,3,19,12,1,6,200,right,719,2022-01-25_09h15.56.084,multiplicationStroop,2021.2.3,Win32,60.0528465,,,,,,,,,,,,,,,,,,,,,,,,,,,,,,,,,,,,,,,,,,,,,,,,,,,,,,,,,
,,,,right,1,0.2745,1,4,20,14,1,8,200,right,719,2022-01-25_09h15.56.084,multiplicationStroop,2021.2.3,Win32,60.0528465,,,,,,,,,,,,,,,,,,,,,,,,,,,,,,,,,,,,,,,,,,,,,,,,,,,,,,,,,
,,,,right,1,0.2859,1,5,21,11,1,4,200,right,719,2022-01-25_09h15.56.084,multiplicationStroop,2021.2.3,Win32,60.0528465,,,,,,,,,,,,,,,,,,,,,,,,,,,,,,,,,,,,,,,,,,,,,,,,,,,,,,,,,
,,,,left,1,0.3057,1,6,22,6,1,8,-200,left,719,2022-01-25_09h15.56.084,multiplicationStroop,2021.2.3,Win32,60.0528465,,,,,,,,,,,,,,,,,,,,,,,,,,,,,,,,,,,,,,,,,,,,,,,,,,,,,,,,,
,,,,left,1,0.2875,1,7,23,5,1,7,-200,left,719,2022-01-25_09h15.56.084,multiplicationStroop,2021.2.3,Win32,60.0528465,,,,,,,,,,,,,,,,,,,,,,,,,,,,,,,,,,,,,,,,,,,,,,,,,,,,,,,,,
,,,,left,1,0.2541,1,8,24,4,1,6,-200,left,719,2022-01-25_09h15.56.084,multiplicationStroop,2021.2.3,Win32,60.0528465,,,,,,,,,,,,,,,,,,,,,,,,,,,,,,,,,,,,,,,,,,,,,,,,,,,,,,,,,
,,,,right,1,0.3394,1,9,25,8,1,1,200,right,719,2022-01-25_09h15.56.084,multiplicationStroop,2021.2.3,Win32,60.0528465,,,,,,,,,,,,,,,,,,,,,,,,,,,,,,,,,,,,,,,,,,,,,,,,,,,,,,,,,
,,,,right,1,0.2914,1,10,26,9,1,2,200,right,719,2022-01-25_09h15.56.084,multiplicationStroop,2021.2.3,Win32,60.0528465,,,,,,,,,,,,,,,,,,,,,,,,,,,,,,,,,,,,,,,,,,,,,,,,,,,,,,,,,
,,,,right,1,0.334,1,11,27,15,1,9,200,right,719,2022-01-25_09h15.56.084,multiplicationStroop,2021.2.3,Win32,60.0528465,,,,,,,,,,,,,,,,,,,,,,,,,,,,,,,,,,,,,,,,,,,,,,,,,,,,,,,,,
,,,,left,1,0.3133,1,12,28,7,1,9,-200,left,719,2022-01-25_09h15.56.084,multiplicationStroop,2021.2.3,Win32,60.0528465,,,,,,,,,,,,,,,,,,,,,,,,,,,,,,,,,,,,,,,,,,,,,,,,,,,,,,,,,
,,,,right,1,0.3697,1,13,29,10,1,3,200,right,719,2022-01-25_09h15.56.084,multiplicationStroop,2021.2.3,Win32,60.0528465,,,,,,,,,,,,,,,,,,,,,,,,,,,,,,,,,,,,,,,,,,,,,,,,,,,,,,,,,
,,,,left,1,0.2871,1,14,30,1,1,2,-200,left,719,2022-01-25_09h15.56.084,multiplicationStroop,2021.2.3,Win32,60.0528465,,,,,,,,,,,,,,,,,,,,,,,,,,,,,,,,,,,,,,,,,,,,,,,,,,,,,,,,,
,,,,right,1,0.2842,1,15,31,13,1,7,200,right,719,2022-01-25_09h15.56.084,multiplicationStroop,2021.2.3,Win32,60.0528465,,,,,,,,,,,,,,,,,,,,,,,,,,,,,,,,,,,,,,,,,,,,,,,,,,,,,,,,,
,,,,right,1,0.3964,2,0,32,8,1,1,200,right,719,2022-01-25_09h15.56.084,multiplicationStroop,2021.2.3,Win32,60.0528465,,,,,,,,,,,,,,,,,,,,,,,,,,,,,,,,,,,,,,,,,,,,,,,,,,,,,,,,,
,,,,right,1,0.2392,2,1,33,12,1,6,200,right,719,2022-01-25_09h15.56.084,multiplicationStroop,2021.2.3,Win32,60.0528465,,,,,,,,,,,,,,,,,,,,,,,,,,,,,,,,,,,,,,,,,,,,,,,,,,,,,,,,,
,,,,right,1,0.2351,2,2,34,9,1,2,200,right,719,2022-01-25_09h15.56.084,multiplicationStroop,2021.2.3,Win32,60.0528465,,,,,,,,,,,,,,,,,,,,,,,,,,,,,,,,,,,,,,,,,,,,,,,,,,,,,,,,,
,,,,right,1,0.2361,2,3,35,10,1,3,200,right,719,2022-01-25_09h15.56.084,multiplicationStroop,2021.2.3,Win32,60.0528465,,,,,,,,,,,,,,,,,,,,,,,,,,,,,,,,,,,,,,,,,,,,,,,,,,,,,,,,,
,,,,left,1,0.3016,2,4,36,6,1,8,-200,left,719,2022-01-25_09h15.56.084,multiplicationStroop,2021.2.3,Win32,60.0528465,,,,,,,,,,,,,,,,,,,,,,,,,,,,,,,,,,,,,,,,,,,,,,,,,,,,,,,,,
,,,,right,1,0.2901,2,5,37,15,1,9,200,right,719,2022-01-25_09h15.56.084,multiplicationStroop,2021.2.3,Win32,60.0528465,,,,,,,,,,,,,,,,,,,,,,,,,,,,,,,,,,,,,,,,,,,,,,,,,,,,,,,,,
,,,,left,1,0.2539,2,6,38,5,1,7,-200,left,719,2022-01-25_09h15.56.084,multiplicationStroop,2021.2.3,Win32,60.0528465,,,,,,,,,,,,,,,,,,,,,,,,,,,,,,,,,,,,,,,,,,,,,,,,,,,,,,,,,
,,,,right,0,0.3203,2,7,39,3,1,4,-200,left,719,2022-01-25_09h15.56.084,multiplicationStroop,2021.2.3,Win32,60.0528465,,,,,,,,,,,,,,,,,,,,,,,,,,,,,,,,,,,,,,,,,,,,,,,,,,,,,,,,,
,,,,left,1,0.326,2,8,40,7,1,9,-200,left,719,2022-01-25_09h15.56.084,multiplicationStroop,2021.2.3,Win32,60.0528465,,,,,,,,,,,,,,,,,,,,,,,,,,,,,,,,,,,,,,,,,,,,,,,,,,,,,,,,,
,,,,left,1,0.3345,2,9,41,2,1,3,-200,left,719,2022-01-25_09h15.56.084,multiplicationStroop,2021.2.3,Win32,60.0528465,,,,,,,,,,,,,,,,,,,,,,,,,,,,,,,,,,,,,,,,,,,,,,,,,,,,,,,,,
,,,,right,1,0.344,2,10,42,13,1,7,200,right,719,2022-01-25_09h15.56.084,multiplicationStroop,2021.2.3,Win32,60.0528465,,,,,,,,,,,,,,,,,,,,,,,,,,,,,,,,,,,,,,,,,,,,,,,,,,,,,,,,,
,,,,right,1,0.2911,2,11,43,14,1,8,200,right,719,2022-01-25_09h15.56.084,multiplicationStroop,2021.2.3,Win32,60.0528465,,,,,,,,,,,,,,,,,,,,,,,,,,,,,,,,,,,,,,,,,,,,,,,,,,,,,,,,,
,,,,left,1,0.3267,2,12,44,0,1,1,-200,left,719,2022-01-25_09h15.56.084,multiplicationStroop,2021.2.3,Win32,60.0528465,,,,,,,,,,,,,,,,,,,,,,,,,,,,,,,,,,,,,,,,,,,,,,,,,,,,,,,,,
,,,,right,1,0.2788,2,13,45,11,1,4,200,right,719,2022-01-25_09h15.56.084,multiplicationStroop,2021.2.3,Win32,60.0528465,,,,,,,,,,,,,,,,,,,,,,,,,,,,,,,,,,,,,,,,,,,,,,,,,,,,,,,,,
,,,,left,1,0.3084,2,14,46,1,1,2,-200,left,719,2022-01-25_09h15.56.084,multiplicationStroop,2021.2.3,Win32,60.0528465,,,,,,,,,,,,,,,,,,,,,,,,,,,,,,,,,,,,,,,,,,,,,,,,,,,,,,,,,
,,,,left,1,0.3681,2,15,47,4,1,6,-200,left,719,2022-01-25_09h15.56.084,multiplicationStroop,2021.2.3,Win32,60.0528465,,,,,,,,,,,,,,,,,,,,,,,,,,,,,,,,,,,,,,,,,,,,,,,,,,,,,,,,,
,,,,left,1,0.2938,3,0,48,0,1,1,-200,left,719,2022-01-25_09h15.56.084,multiplicationStroop,2021.2.3,Win32,60.0528465,,,,,,,,,,,,,,,,,,,,,,,,,,,,,,,,,,,,,,,,,,,,,,,,,,,,,,,,,
,,,,left,1,0.3011,3,1,49,5,1,7,-200,left,719,2022-01-25_09h15.56.084,multiplicationStroop,2021.2.3,Win32,60.0528465,,,,,,,,,,,,,,,,,,,,,,,,,,,,,,,,,,,,,,,,,,,,,,,,,,,,,,,,,
,,,,left,1,0.2961,3,2,50,6,1,8,-200,left,719,2022-01-25_09h15.56.084,multiplicationStroop,2021.2.3,Win32,60.0528465,,,,,,,,,,,,,,,,,,,,,,,,,,,,,,,,,,,,,,,,,,,,,,,,,,,,,,,,,
,,,,right,1,0.3786,3,3,51,8,1,1,200,right,719,2022-01-25_09h15.56.084,multiplicationStroop,2021.2.3,Win32,60.0528465,,,,,,,,,,,,,,,,,,,,,,,,,,,,,,,,,,,,,,,,,,,,,,,,,,,,,,,,,
,,,,right,1,0.3108,3,4,52,12,1,6,200,right,719,2022-01-25_09h15.56.084,multiplicationStroop,2021.2.3,Win32,60.0528465,,,,,,,,,,,,,,,,,,,,,,,,,,,,,,,,,,,,,,,,,,,,,,,,,,,,,,,,,
,,,,left,1,0.3027,3,5,53,7,1,9,-200,left,719,2022-01-25_09h15.56.084,multiplicationStroop,2021.2.3,Win32,60.0528465,,,,,,,,,,,,,,,,,,,,,,,,,,,,,,,,,,,,,,,,,,,,,,,,,,,,,,,,,
,,,,right,1,0.2688,3,6,54,14,1,8,200,right,719,2022-01-25_09h15.56.084,multiplicationStroop,2021.2.3,Win32,60.0528465,,,,,,,,,,,,,,,,,,,,,,,,,,,,,,,,,,,,,,,,,,,,,,,,,,,,,,,,,
,,,,left,1,0.2569,3,7,55,1,1,2,-200,left,719,2022-01-25_09h15.56.084,multiplicationStroop,2021.2.3,Win32,60.0528465,,,,,,,,,,,,,,,,,,,,,,,,,,,,,,,,,,,,,,,,,,,,,,,,,,,,,,,,,
,,,,left,1,0.3066,3,8,56,2,1,3,-200,left,719,2022-01-25_09h15.56.084,multiplicationStroop,2021.2.3,Win32,60.0528465,,,,,,,,,,,,,,,,,,,,,,,,,,,,,,,,,,,,,,,,,,,,,,,,,,,,,,,,,
,,,,right,1,0.3517,3,9,57,10,1,3,200,right,719,2022-01-25_09h15.56.084,multiplicationStroop,2021.2.3,Win32,60.0528465,,,,,,,,,,,,,,,,,,,,,,,,,,,,,,,,,,,,,,,,,,,,,,,,,,,,,,,,,
,,,,right,1,0.3272,3,10,58,13,1,7,200,right,719,2022-01-25_09h15.56.084,multiplicationStroop,2021.2.3,Win32,60.0528465,,,,,,,,,,,,,,,,,,,,,,,,,,,,,,,,,,,,,,,,,,,,,,,,,,,,,,,,,
,,,,left,1,0.319,3,11,59,4,1,6,-200,left,719,2022-01-25_09h15.56.084,multiplicationStroop,2021.2.3,Win32,60.0528465,,,,,,,,,,,,,,,,,,,,,,,,,,,,,,,,,,,,,,,,,,,,,,,,,,,,,,,,,
,,,,right,1,0.2184,3,12,60,15,1,9,200,right,719,2022-01-25_09h15.56.084,multiplicationStroop,2021.2.3,Win32,60.0528465,,,,,,,,,,,,,,,,,,,,,,,,,,,,,,,,,,,,,,,,,,,,,,,,,,,,,,,,,
,,,,right,1,0.3593,3,13,61,9,1,2,200,right,719,2022-01-25_09h15.56.084,multiplicationStroop,2021.2.3,Win32,60.0528465,,,,,,,,,,,,,,,,,,,,,,,,,,,,,,,,,,,,,,,,,,,,,,,,,,,,,,,,,
,,,,left,1,0.3054,3,14,62,3,1,4,-200,left,719,2022-01-25_09h15.56.084,multiplicationStroop,2021.2.3,Win32,60.0528465,,,,,,,,,,,,,,,,,,,,,,,,,,,,,,,,,,,,,,,,,,,,,,,,,,,,,,,,,
,,,,right,1,0.288,3,15,63,11,1,4,200,right,719,2022-01-25_09h15.56.084,multiplicationStroop,2021.2.3,Win32,60.0528465,,,,,,,,,,,,,,,,,,,,,,,,,,,,,,,,,,,,,,,,,,,,,,,,,,,,,,,,,
,,,,,,,,,,,,,,,719,2022-01-25_09h15.56.084,multiplicationStroop,2021.2.3,Win32,60.0528465,space,10.0781,space,6.3521,left,1,1.1188,0,0,0,20,1,6,1,6 | 1,5,1.9756,1.4111,congruent,left,,,,,,stimulusFile/physical.xlsx,,,,,,,,,,,,,,,,,,,,,,,,,,,,,,,
,,,,,,,,,,,,,,,719,2022-01-25_09h15.56.084,multiplicationStroop,2021.2.3,Win32,60.0528465,,,,,left,1,0.6197,0,1,1,43,1,4,9,4 | 9,5,1.9756,1.4111,incongruent,left,,,,,,stimulusFile/physical.xlsx,,,,,,,,,,,,,,,,,,,,,,,,,,,,,,,
,,,,,,,,,,,,,,,719,2022-01-25_09h15.56.084,multiplicationStroop,2021.2.3,Win32,60.0528465,,,,,left,0,0.4822,0,2,2,64,1,1,1,1 | 1,0,1.9756,1.4111,neutral,right,,,,,,stimulusFile/physical.xlsx,,,,,,,,,,,,,,,,,,,,,,,,,,,,,,,
,,,,,,,,,,,,,,,719,2022-01-25_09h15.56.084,multiplicationStroop,2021.2.3,Win32,60.0528465,,,,,left,1,0.5112,0,3,3,23,1,9,4,9 | 4,5,1.9756,1.4111,congruent,left,,,,,,stimulusFile/physical.xlsx,,,,,,,,,,,,,,,,,,,,,,,,,,,,,,,
,,,,,,,,,,,,,,,719,2022-01-25_09h15.56.084,multiplicationStroop,2021.2.3,Win32,60.0528465,,,,,left,1,0.4604,0,4,4,41,1,2,7,2 | 7,5,1.9756,1.4111,incongruent,left,,,,,,stimulusFile/physical.xlsx,,,,,,,,,,,,,,,,,,,,,,,,,,,,,,,
,,,,,,,,,,,,,,,719,2022-01-25_09h15.56.084,multiplicationStroop,2021.2.3,Win32,60.0528465,,,,,left,1,0.5328,0,5,5,48,1,1,1,1 | 1,0,1.9756,1.4111,neutral,left,,,,,,stimulusFile/physical.xlsx,,,,,,,,,,,,,,,,,,,,,,,,,,,,,,,
,,,,,,,,,,,,,,,719,2022-01-25_09h15.56.084,multiplicationStroop,2021.2.3,Win32,60.0528465,,,,,right,1,0.5071,0,6,6,58,1,6,6,6 | 6,0,1.4111,1.9756,neutral,right,,,,,,stimulusFile/physical.xlsx,,,,,,,,,,,,,,,,,,,,,,,,,,,,,,,
,,,,,,,,,,,,,,,719,2022-01-25_09h15.56.084,multiplicationStroop,2021.2.3,Win32,60.0528465,,,,,right,1,0.495,0,7,7,47,1,9,4,9 | 4,5,1.4111,1.9756,incongruent,right,,,,,,stimulusFile/physical.xlsx,,,,,,,,,,,,,,,,,,,,,,,,,,,,,,,
,,,,,,,,,,,,,,,719,2022-01-25_09h15.56.084,multiplicationStroop,2021.2.3,Win32,60.0528465,,,,,right,1,0.4087,0,8,8,0,1,1,2,1 | 2,1,1.4111,1.9756,congruent,right,,,,,,stimulusFile/physical.xlsx,,,,,,,,,,,,,,,,,,,,,,,,,,,,,,,
,,,,,,,,,,,,,,,719,2022-01-25_09h15.56.084,multiplicationStroop,2021.2.3,Win32,60.0528465,,,,,left,1,0.4094,0,9,9,13,1,4,2,4 | 2,2,1.9756,1.4111,congruent,left,,,,,,stimulusFile/physical.xlsx,,,,,,,,,,,,,,,,,,,,,,,,,,,,,,,
,,,,,,,,,,,,,,,719,2022-01-25_09h15.56.084,multiplicationStroop,2021.2.3,Win32,60.0528465,,,,,left,1,0.4964,0,10,10,32,1,1,3,1 | 3,2,1.9756,1.4111,incongruent,left,,,,,,stimulusFile/physical.xlsx,,,,,,,,,,,,,,,,,,,,,,,,,,,,,,,
,,,,,,,,,,,,,,,719,2022-01-25_09h15.56.084,multiplicationStroop,2021.2.3,Win32,60.0528465,,,,,right,1,0.7805,0,11,11,28,1,2,1,2 | 1,1,1.4111,1.9756,incongruent,right,,,,,,stimulusFile/physical.xlsx,,,,,,,,,,,,,,,,,,,,,,,,,,,,,,,
,,,,,,,,,,,,,,,719,2022-01-25_09h15.56.084,multiplicationStroop,2021.2.3,Win32,60.0528465,,,,,left,1,0.5595,0,12,12,24,1,1,2,1 | 2,1,1.9756,1.4111,incongruent,left,,,,,,stimulusFile/physical.xlsx,,,,,,,,,,,,,,,,,,,,,,,,,,,,,,,
,,,,,,,,,,,,,,,719,2022-01-25_09h15.56.084,multiplicationStroop,2021.2.3,Win32,60.0528465,,,,,left,1,0.4272,0,13,13,33,1,2,4,2 | 4,2,1.9756,1.4111,incongruent,left,,,,,,stimulusFile/physical.xlsx,,,,,,,,,,,,,,,,,,,,,,,,,,,,,,,
,,,,,,,,,,,,,,,719,2022-01-25_09h15.56.084,multiplicationStroop,2021.2.3,Win32,60.0528465,,,,,right,1,0.3312,0,14,14,19,1,4,9,4 | 9,5,1.4111,1.9756,congruent,right,,,,,,stimulusFile/physical.xlsx,,,,,,,,,,,,,,,,,,,,,,,,,,,,,,,
,,,,,,,,,,,,,,,719,2022-01-25_09h15.56.084,multiplicationStroop,2021.2.3,Win32,60.0528465,,,,,left,1,0.3645,0,15,15,35,1,7,9,7 | 9,2,1.9756,1.4111,incongruent,left,,,,,,stimulusFile/physical.xlsx,,,,,,,,,,,,,,,,,,,,,,,,,,,,,,,
,,,,,,,,,,,,,,,719,2022-01-25_09h15.56.084,multiplicationStroop,2021.2.3,Win32,60.0528465,,,,,left,1,0.4413,0,16,16,12,1,3,1,3 | 1,2,1.9756,1.4111,congruent,left,,,,,,stimulusFile/physical.xlsx,,,,,,,,,,,,,,,,,,,,,,,,,,,,,,,
,,,,,,,,,,,,,,,719,2022-01-25_09h15.56.084,multiplicationStroop,2021.2.3,Win32,60.0528465,,,,,left,1,0.4715,0,17,17,51,1,8,8,8 | 8,0,1.9756,1.4111,neutral,left,,,,,,stimulusFile/physical.xlsx,,,,,,,,,,,,,,,,,,,,,,,,,,,,,,,
,,,,,,,,,,,,,,,719,2022-01-25_09h15.56.084,multiplicationStroop,2021.2.3,Win32,60.0528465,,,,,right,1,0.3734,0,18,18,62,1,8,8,8 | 8,0,1.4111,1.9756,neutral,right,,,,,,stimulusFile/physical.xlsx,,,,,,,,,,,,,,,,,,,,,,,,,,,,,,,
,,,,,,,,,,,,,,,719,2022-01-25_09h15.56.084,multiplicationStroop,2021.2.3,Win32,60.0528465,,,,,left,0,0.3453,0,19,19,66,1,3,3,3 | 3,0,1.9756,1.4111,neutral,right,,,,,,stimulusFile/physical.xlsx,,,,,,,,,,,,,,,,,,,,,,,,,,,,,,,
,,,,,,,,,,,,,,,719,2022-01-25_09h15.56.084,multiplicationStroop,2021.2.3,Win32,60.0528465,,,,,right,1,0.5077,0,20,20,37,1,4,2,4 | 2,2,1.4111,1.9756,incongruent,right,,,,,,stimulusFile/physical.xlsx,,,,,,,,,,,,,,,,,,,,,,,,,,,,,,,
,,,,,,,,,,,,,,,719,2022-01-25_09h15.56.084,multiplicationStroop,2021.2.3,Win32,60.0528465,,,,,left,0,0.3687,0,21,21,45,1,7,2,7 | 2,5,1.4111,1.9756,incongruent,right,,,,,,stimulusFile/physical.xlsx,,,,,,,,,,,,,,,,,,,,,,,,,,,,,,,
,,,,,,,,,,,,,,,719,2022-01-25_09h15.56.084,multiplicationStroop,2021.2.3,Win32,60.0528465,,,,,right,1,0.6069,0,22,22,31,1,9,8,9 | 8,1,1.4111,1.9756,incongruent,right,,,,,,stimulusFile/physical.xlsx,,,,,,,,,,,,,,,,,,,,,,,,,,,,,,,
,,,,,,,,,,,,,,,719,2022-01-25_09h15.56.084,multiplicationStroop,2021.2.3,Win32,60.0528465,,,,,right,1,0.5422,0,23,23,65,1,2,2,2 | 2,0,1.4111,1.9756,neutral,right,,,,,,stimulusFile/physical.xlsx,,,,,,,,,,,,,,,,,,,,,,,,,,,,,,,
,,,,,,,,,,,,,,,719,2022-01-25_09h15.56.084,multiplicationStroop,2021.2.3,Win32,60.0528465,,,,,left,1,0.4775,0,24,24,26,1,6,7,6 | 7,1,1.9756,1.4111,incongruent,left,,,,,,stimulusFile/physical.xlsx,,,,,,,,,,,,,,,,,,,,,,,,,,,,,,,
,,,,,,,,,,,,,,,719,2022-01-25_09h15.56.084,multiplicationStroop,2021.2.3,Win32,60.0528465,,,,,right,1,0.4355,0,25,25,59,1,7,7,7 | 7,0,1.4111,1.9756,neutral,right,,,,,,stimulusFile/physical.xlsx,,,,,,,,,,,,,,,,,,,,,,,,,,,,,,,
,,,,,,,,,,,,,,,719,2022-01-25_09h15.56.084,multiplicationStroop,2021.2.3,Win32,60.0528465,,,,,left,1,0.3966,0,26,26,70,1,8,8,8 | 8,0,1.9756,1.4111,neutral,left,,,,,,stimulusFile/physical.xlsx,,,,,,,,,,,,,,,,,,,,,,,,,,,,,,,
,,,,,,,,,,,,,,,719,2022-01-25_09h15.56.084,multiplicationStroop,2021.2.3,Win32,60.0528465,,,,,left,1,0.4314,0,27,27,42,1,3,8,3 | 8,5,1.9756,1.4111,incongruent,left,,,,,,stimulusFile/physical.xlsx,,,,,,,,,,,,,,,,,,,,,,,,,,,,,,,
,,,,,,,,,,,,,,,719,2022-01-25_09h15.56.084,multiplicationStroop,2021.2.3,Win32,60.0528465,,,,,left,1,0.4119,0,28,28,27,1,8,9,8 | 9,1,1.9756,1.4111,incongruent,left,,,,,,stimulusFile/physical.xlsx,,,,,,,,,,,,,,,,,,,,,,,,,,,,,,,
,,,,,,,,,,,,,,,719,2022-01-25_09h15.56.084,multiplicationStroop,2021.2.3,Win32,60.0528465,,,,,left,1,0.3911,0,29,29,7,1,9,8,9 | 8,1,1.9756,1.4111,congruent,left,,,,,,stimulusFile/physical.xlsx,,,,,,,,,,,,,,,,,,,,,,,,,,,,,,,
,,,,,,,,,,,,,,,719,2022-01-25_09h15.56.084,multiplicationStroop,2021.2.3,Win32,60.0528465,,,,,right,1,0.3972,0,30,30,9,1,2,4,2 | 4,2,1.4111,1.9756,congruent,right,,,,,,stimulusFile/physical.xlsx,,,,,,,,,,,,,,,,,,,,,,,,,,,,,,,
,,,,,,,,,,,,,,,719,2022-01-25_09h15.56.084,multiplicationStroop,2021.2.3,Win32,60.0528465,,,,,right,0,0.5093,0,31,31,69,1,7,7,7 | 7,0,1.4111,1.9756,neutral,left,,,,,,stimulusFile/physical.xlsx,,,,,,,,,,,,,,,,,,,,,,,,,,,,,,,
,,,,,,,,,,,,,,,719,2022-01-25_09h15.56.084,multiplicationStroop,2021.2.3,Win32,60.0528465,,,,,right,1,0.5111,0,32,32,3,1,8,9,8 | 9,1,1.4111,1.9756,congruent,right,,,,,,stimulusFile/physical.xlsx,,,,,,,,,,,,,,,,,,,,,,,,,,,,,,,
,,,,,,,,,,,,,,,719,2022-01-25_09h15.56.084,multiplicationStroop,2021.2.3,Win32,60.0528465,,,,,right,1,0.4142,0,33,33,2,1,6,7,6 | 7,1,1.4111,1.9756,congruent,right,,,,,,stimulusFile/physical.xlsx,,,,,,,,,,,,,,,,,,,,,,,,,,,,,,,
,,,,,,,,,,,,,,,719,2022-01-25_09h15.56.084,multiplicationStroop,2021.2.3,Win32,60.0528465,,,,,left,1,0.3511,0,34,34,49,1,3,3,3 | 3,0,1.9756,1.4111,neutral,left,,,,,,stimulusFile/physical.xlsx,,,,,,,,,,,,,,,,,,,,,,,,,,,,,,,
,,,,,,,,,,,,,,,719,2022-01-25_09h15.56.084,multiplicationStroop,2021.2.3,Win32,60.0528465,,,,,left,1,0.3872,0,35,35,5,1,4,3,4 | 3,1,1.9756,1.4111,congruent,left,,,,,,stimulusFile/physical.xlsx,,,,,,,,,,,,,,,,,,,,,,,,,,,,,,,
,,,,,,,,,,,,,,,719,2022-01-25_09h15.56.084,multiplicationStroop,2021.2.3,Win32,60.0528465,,,,,right,1,0.3612,0,36,36,17,1,2,7,2 | 7,5,1.4111,1.9756,congruent,right,,,,,,stimulusFile/physical.xlsx,,,,,,,,,,,,,,,,,,,,,,,,,,,,,,,
,,,,,,,,,,,,,,,719,2022-01-25_09h15.56.084,multiplicationStroop,2021.2.3,Win32,60.0528465,,,,,left,1,0.3761,0,37,37,52,1,2,2,2 | 2,0,1.9756,1.4111,neutral,left,,,,,,stimulusFile/physical.xlsx,,,,,,,,,,,,,,,,,,,,,,,,,,,,,,,
,,,,,,,,,,,,,,,719,2022-01-25_09h15.56.084,multiplicationStroop,2021.2.3,Win32,60.0528465,,,,,left,1,0.38,0,38,38,21,1,7,2,7 | 2,5,1.9756,1.4111,congruent,left,,,,,,stimulusFile/physical.xlsx,,,,,,,,,,,,,,,,,,,,,,,,,,,,,,,
,,,,,,,,,,,,,,,719,2022-01-25_09h15.56.084,multiplicationStroop,2021.2.3,Win32,60.0528465,,,,,right,1,0.3789,0,39,39,18,1,3,8,3 | 8,5,1.4111,1.9756,congruent,right,,,,,,stimulusFile/physical.xlsx,,,,,,,,,,,,,,,,,,,,,,,,,,,,,,,
,,,,,,,,,,,,,,,719,2022-01-25_09h15.56.084,multiplicationStroop,2021.2.3,Win32,60.0528465,,,,,left,1,0.4472,0,40,40,22,1,8,3,8 | 3,5,1.9756,1.4111,congruent,left,,,,,,stimulusFile/physical.xlsx,,,,,,,,,,,,,,,,,,,,,,,,,,,,,,,
,,,,,,,,,,,,,,,719,2022-01-25_09h15.56.084,multiplicationStroop,2021.2.3,Win32,60.0528465,,,,,right,1,0.4621,0,41,41,11,1,7,9,7 | 9,2,1.4111,1.9756,congruent,right,,,,,,stimulusFile/physical.xlsx,,,,,,,,,,,,,,,,,,,,,,,,,,,,,,,
,,,,,,,,,,,,,,,719,2022-01-25_09h15.56.084,multiplicationStroop,2021.2.3,Win32,60.0528465,,,,,left,1,0.3579,0,42,42,34,1,6,8,6 | 8,2,1.9756,1.4111,incongruent,left,,,,,,stimulusFile/physical.xlsx,,,,,,,,,,,,,,,,,,,,,,,,,,,,,,,
,,,,,,,,,,,,,,,719,2022-01-25_09h15.56.084,multiplicationStroop,2021.2.3,Win32,60.0528465,,,,,right,1,0.3838,0,43,43,29,1,4,3,4 | 3,1,1.4111,1.9756,incongruent,right,,,,,,stimulusFile/physical.xlsx,,,,,,,,,,,,,,,,,,,,,,,,,,,,,,,
,,,,,,,,,,,,,,,719,2022-01-25_09h15.56.084,multiplicationStroop,2021.2.3,Win32,60.0528465,,,,,right,1,0.5983,0,44,44,46,1,8,3,8 | 3,5,1.4111,1.9756,incongruent,right,,,,,,stimulusFile/physical.xlsx,,,,,,,,,,,,,,,,,,,,,,,,,,,,,,,
,,,,,,,,,,,,,,,719,2022-01-25_09h15.56.084,multiplicationStroop,2021.2.3,Win32,60.0528465,,,,,right,1,0.3989,0,45,45,39,1,9,7,9 | 7,2,1.4111,1.9756,incongruent,right,,,,,,stimulusFile/physical.xlsx,,,,,,,,,,,,,,,,,,,,,,,,,,,,,,,
,,,,,,,,,,,,,,,719,2022-01-25_09h15.56.084,multiplicationStroop,2021.2.3,Win32,60.0528465,,,,,left,1,0.3861,0,46,46,54,1,7,7,7 | 7,0,1.9756,1.4111,neutral,left,,,,,,stimulusFile/physical.xlsx,,,,,,,,,,,,,,,,,,,,,,,,,,,,,,,
,,,,,,,,,,,,,,,719,2022-01-25_09h15.56.084,multiplicationStroop,2021.2.3,Win32,60.0528465,,,,,right,1,0.396,0,47,47,8,1,1,3,1 | 3,2,1.4111,1.9756,congruent,right,,,,,,stimulusFile/physical.xlsx,,,,,,,,,,,,,,,,,,,,,,,,,,,,,,,
,,,,,,,,,,,,,,,719,2022-01-25_09h15.56.084,multiplicationStroop,2021.2.3,Win32,60.0528465,,,,,left,1,0.3134,0,48,48,55,1,9,9,9 | 9,0,1.9756,1.4111,neutral,left,,,,,,stimulusFile/physical.xlsx,,,,,,,,,,,,,,,,,,,,,,,,,,,,,,,
,,,,,,,,,,,,,,,719,2022-01-25_09h15.56.084,multiplicationStroop,2021.2.3,Win32,60.0528465,,,,,left,1,0.4293,0,49,49,53,1,4,4,4 | 4,0,1.9756,1.4111,neutral,left,,,,,,stimulusFile/physical.xlsx,,,,,,,,,,,,,,,,,,,,,,,,,,,,,,,
,,,,,,,,,,,,,,,719,2022-01-25_09h15.56.084,multiplicationStroop,2021.2.3,Win32,60.0528465,,,,,left,1,0.3741,0,50,50,40,1,1,6,1 | 6,5,1.9756,1.4111,incongruent,left,,,,,,stimulusFile/physical.xlsx,,,,,,,,,,,,,,,,,,,,,,,,,,,,,,,
,,,,,,,,,,,,,,,719,2022-01-25_09h15.56.084,multiplicationStroop,2021.2.3,Win32,60.0528465,,,,,right,1,0.4178,0,51,51,61,1,4,4,4 | 4,0,1.4111,1.9756,neutral,right,,,,,,stimulusFile/physical.xlsx,,,,,,,,,,,,,,,,,,,,,,,,,,,,,,,
,,,,,,,,,,,,,,,719,2022-01-25_09h15.56.084,multiplicationStroop,2021.2.3,Win32,60.0528465,,,,,right,1,0.3671,0,52,52,1,1,3,4,3 | 4,1,1.4111,1.9756,congruent,right,,,,,,stimulusFile/physical.xlsx,,,,,,,,,,,,,,,,,,,,,,,,,,,,,,,
,,,,,,,,,,,,,,,719,2022-01-25_09h15.56.084,multiplicationStroop,2021.2.3,Win32,60.0528465,,,,,right,1,0.5767,0,53,53,56,1,1,1,1 | 1,0,1.4111,1.9756,neutral,right,,,,,,stimulusFile/physical.xlsx,,,,,,,,,,,,,,,,,,,,,,,,,,,,,,,
,,,,,,,,,,,,,,,719,2022-01-25_09h15.56.084,multiplicationStroop,2021.2.3,Win32,60.0528465,,,,,left,1,0.4568,0,54,54,50,1,6,6,6 | 6,0,1.9756,1.4111,neutral,left,,,,,,stimulusFile/physical.xlsx,,,,,,,,,,,,,,,,,,,,,,,,,,,,,,,
,,,,,,,,,,,,,,,719,2022-01-25_09h15.56.084,multiplicationStroop,2021.2.3,Win32,60.0528465,,,,,right,1,0.3446,0,55,55,63,1,9,9,9 | 9,0,1.4111,1.9756,neutral,right,,,,,,stimulusFile/physical.xlsx,,,,,,,,,,,,,,,,,,,,,,,,,,,,,,,
,,,,,,,,,,,,,,,719,2022-01-25_09h15.56.084,multiplicationStroop,2021.2.3,Win32,60.0528465,,,,,right,1,0.5257,0,56,56,30,1,7,6,7 | 6,1,1.4111,1.9756,incongruent,right,,,,,,stimulusFile/physical.xlsx,,,,,,,,,,,,,,,,,,,,,,,,,,,,,,,
,,,,,,,,,,,,,,,719,2022-01-25_09h15.56.084,multiplicationStroop,2021.2.3,Win32,60.0528465,,,,,left,1,0.4632,0,57,57,14,1,8,6,8 | 6,2,1.9756,1.4111,congruent,left,,,,,,stimulusFile/physical.xlsx,,,,,,,,,,,,,,,,,,,,,,,,,,,,,,,
,,,,,,,,,,,,,,,719,2022-01-25_09h15.56.084,multiplicationStroop,2021.2.3,Win32,60.0528465,,,,,left,1,0.5187,0,58,58,25,1,3,4,3 | 4,1,1.9756,1.4111,incongruent,left,,,,,,stimulusFile/physical.xlsx,,,,,,,,,,,,,,,,,,,,,,,,,,,,,,,
,,,,,,,,,,,,,,,719,2022-01-25_09h15.56.084,multiplicationStroop,2021.2.3,Win32,60.0528465,,,,,right,1,0.3828,0,59,59,36,1,3,1,3 | 1,2,1.4111,1.9756,incongruent,right,,,,,,stimulusFile/physical.xlsx,,,,,,,,,,,,,,,,,,,,,,,,,,,,,,,
,,,,,,,,,,,,,,,719,2022-01-25_09h15.56.084,multiplicationStroop,2021.2.3,Win32,60.0528465,,,,,right,1,0.5246,0,60,60,67,1,4,4,4 | 4,0,1.4111,1.9756,neutral,right,,,,,,stimulusFile/physical.xlsx,,,,,,,,,,,,,,,,,,,,,,,,,,,,,,,
,,,,,,,,,,,,,,,719,2022-01-25_09h15.56.084,multiplicationStroop,2021.2.3,Win32,60.0528465,,,,,left,1,0.6677,0,61,61,6,1,7,6,7 | 6,1,1.9756,1.4111,congruent,left,,,,,,stimulusFile/physical.xlsx,,,,,,,,,,,,,,,,,,,,,,,,,,,,,,,
,,,,,,,,,,,,,,,719,2022-01-25_09h15.56.084,multiplicationStroop,2021.2.3,Win32,60.0528465,,,,,left,1,0.4293,0,62,62,68,1,6,6,6 | 6,0,1.9756,1.4111,neutral,left,,,,,,stimulusFile/physical.xlsx,,,,,,,,,,,,,,,,,,,,,,,,,,,,,,,
,,,,,,,,,,,,,,,719,2022-01-25_09h15.56.084,multiplicationStroop,2021.2.3,Win32,60.0528465,,,,,right,1,0.3934,0,63,63,57,1,2,2,2 | 2,0,1.4111,1.9756,neutral,right,,,,,,stimulusFile/physical.xlsx,,,,,,,,,,,,,,,,,,,,,,,,,,,,,,,
,,,,,,,,,,,,,,,719,2022-01-25_09h15.56.084,multiplicationStroop,2021.2.3,Win32,60.0528465,,,,,right,0,0.3415,0,64,64,71,1,9,9,9 | 9,0,1.4111,1.9756,neutral,left,,,,,,stimulusFile/physical.xlsx,,,,,,,,,,,,,,,,,,,,,,,,,,,,,,,
,,,,,,,,,,,,,,,719,2022-01-25_09h15.56.084,multiplicationStroop,2021.2.3,Win32,60.0528465,,,,,right,1,0.5089,0,65,65,16,1,1,6,1 | 6,5,1.4111,1.9756,congruent,right,,,,,,stimulusFile/physical.xlsx,,,,,,,,,,,,,,,,,,,,,,,,,,,,,,,
,,,,,,,,,,,,,,,719,2022-01-25_09h15.56.084,multiplicationStroop,2021.2.3,Win32,60.0528465,,,,,right,1,0.4681,0,66,66,44,1,6,1,6 | 1,5,1.4111,1.9756,incongruent,right,,,,,,stimulusFile/physical.xlsx,,,,,,,,,,,,,,,,,,,,,,,,,,,,,,,
,,,,,,,,,,,,,,,719,2022-01-25_09h15.56.084,multiplicationStroop,2021.2.3,Win32,60.0528465,,,,,right,1,0.5544,0,67,67,60,1,3,3,3 | 3,0,1.4111,1.9756,neutral,right,,,,,,stimulusFile/physical.xlsx,,,,,,,,,,,,,,,,,,,,,,,,,,,,,,,
,,,,,,,,,,,,,,,719,2022-01-25_09h15.56.084,multiplicationStroop,2021.2.3,Win32,60.0528465,,,,,left,1,0.5048,0,68,68,4,1,2,1,2 | 1,1,1.9756,1.4111,congruent,left,,,,,,stimulusFile/physical.xlsx,,,,,,,,,,,,,,,,,,,,,,,,,,,,,,,
,,,,,,,,,,,,,,,719,2022-01-25_09h15.56.084,multiplicationStroop,2021.2.3,Win32,60.0528465,,,,,right,1,0.3755,0,69,69,38,1,8,6,8 | 6,2,1.4111,1.9756,incongruent,right,,,,,,stimulusFile/physical.xlsx,,,,,,,,,,,,,,,,,,,,,,,,,,,,,,,
,,,,,,,,,,,,,,,719,2022-01-25_09h15.56.084,multiplicationStroop,2021.2.3,Win32,60.0528465,,,,,right,1,0.5175,0,70,70,10,1,6,8,6 | 8,2,1.4111,1.9756,congruent,right,,,,,,stimulusFile/physical.xlsx,,,,,,,,,,,,,,,,,,,,,,,,,,,,,,,
,,,,,,,,,,,,,,,719,2022-01-25_09h15.56.084,multiplicationStroop,2021.2.3,Win32,60.0528465,,,,,left,1,0.375,0,71,71,15,1,9,7,9 | 7,2,1.9756,1.4111,congruent,left,,,,,,stimulusFile/physical.xlsx,,,,,,,,,,,,,,,,,,,,,,,,,,,,,,,
,,,,,,,,,,,,,,,719,2022-01-25_09h15.56.084,multiplicationStroop,2021.2.3,Win32,60.0528465,,,,,,,,,,,,,,,,,,,,,0,0,0,1,1,stimulusFile/physical.xlsx,PHYSICALLY larger (larger font size).,images/physicallyLarger.png,,,,,,,,,,,,,,,,,,,,,,,,,,,,,
,,,,,,,,,,,,,,,719,2022-01-25_09h15.56.084,multiplicationStroop,2021.2.3,Win32,60.0528465,space,3.7845,space,15.3516,right,1,1.3161,0,0,0,48,1,1,2,1 | 2,1,1.6933,1.6933,neutral,right,,,,,,stimulusFile/magnitude.xlsx,,,,,,,,,,,,,,,,,,,,,,,,,,,,,,,
,,,,,,,,,,,,,,,719,2022-01-25_09h15.56.084,multiplicationStroop,2021.2.3,Win32,60.0528465,,,,,left,1,0.8152,0,1,1,36,1,3,1,3 | 1,2,1.4111,1.9756,incongruent,left,,,,,,stimulusFile/magnitude.xlsx,,,,,,,,,,,,,,,,,,,,,,,,,,,,,,,
,,,,,,,,,,,,,,,719,2022-01-25_09h15.56.084,multiplicationStroop,2021.2.3,Win32,60.0528465,,,,,left,1,0.9949,0,2,2,31,1,9,8,9 | 8,1,1.4111,1.9756,incongruent,left,,,,,,stimulusFile/magnitude.xlsx,,,,,,,,,,,,,,,,,,,,,,,,,,,,,,,
,,,,,,,,,,,,,,,719,2022-01-25_09h15.56.084,multiplicationStroop,2021.2.3,Win32,60.0528465,,,,,left,1,0.9432,0,3,3,62,1,8,6,8 | 6,2,1.6933,1.6933,neutral,left,,,,,,stimulusFile/magnitude.xlsx,,,,,,,,,,,,,,,,,,,,,,,,,,,,,,,
,,,,,,,,,,,,,,,719,2022-01-25_09h15.56.084,multiplicationStroop,2021.2.3,Win32,60.0528465,,,,,right,1,0.6527,0,4,4,65,1,2,7,2 | 7,5,1.6933,1.6933,neutral,right,,,,,,stimulusFile/magnitude.xlsx,,,,,,,,,,,,,,,,,,,,,,,,,,,,,,,
,,,,,,,,,,,,,,,719,2022-01-25_09h15.56.084,multiplicationStroop,2021.2.3,Win32,60.0528465,,,,,right,1,0.8308,0,5,5,18,1,3,8,3 | 8,5,1.4111,1.9756,congruent,right,,,,,,stimulusFile/magnitude.xlsx,,,,,,,,,,,,,,,,,,,,,,,,,,,,,,,
,,,,,,,,,,,,,,,719,2022-01-25_09h15.56.084,multiplicationStroop,2021.2.3,Win32,60.0528465,,,,,right,1,0.6015,0,6,6,11,1,7,9,7 | 9,2,1.4111,1.9756,congruent,right,,,,,,stimulusFile/magnitude.xlsx,,,,,,,,,,,,,,,,,,,,,,,,,,,,,,,
,,,,,,,,,,,,,,,719,2022-01-25_09h15.56.084,multiplicationStroop,2021.2.3,Win32,60.0528465,,,,,right,1,0.7609,0,7,7,43,1,4,9,4 | 9,5,1.9756,1.4111,incongruent,right,,,,,,stimulusFile/magnitude.xlsx,,,,,,,,,,,,,,,,,,,,,,,,,,,,,,,
,,,,,,,,,,,,,,,719,2022-01-25_09h15.56.084,multiplicationStroop,2021.2.3,Win32,60.0528465,,,,,right,1,0.778,0,8,8,10,1,6,8,6 | 8,2,1.4111,1.9756,congruent,right,,,,,,stimulusFile/magnitude.xlsx,,,,,,,,,,,,,,,,,,,,,,,,,,,,,,,
,,,,,,,,,,,,,,,719,2022-01-25_09h15.56.084,multiplicationStroop,2021.2.3,Win32,60.0528465,,,,,right,1,0.5746,0,9,9,1,1,3,4,3 | 4,1,1.4111,1.9756,congruent,right,,,,,,stimulusFile/magnitude.xlsx,,,,,,,,,,,,,,,,,,,,,,,,,,,,,,,
,,,,,,,,,,,,,,,719,2022-01-25_09h15.56.084,multiplicationStroop,2021.2.3,Win32,60.0528465,,,,,right,1,0.6518,0,10,10,49,1,3,4,3 | 4,1,1.6933,1.6933,neutral,right,,,,,,stimulusFile/magnitude.xlsx,,,,,,,,,,,,,,,,,,,,,,,,,,,,,,,
,,,,,,,,,,,,,,,719,2022-01-25_09h15.56.084,multiplicationStroop,2021.2.3,Win32,60.0528465,,,,,left,1,0.6295,0,11,11,44,1,6,1,6 | 1,5,1.4111,1.9756,incongruent,left,,,,,,stimulusFile/magnitude.xlsx,,,,,,,,,,,,,,,,,,,,,,,,,,,,,,,
,,,,,,,,,,,,,,,719,2022-01-25_09h15.56.084,multiplicationStroop,2021.2.3,Win32,60.0528465,,,,,left,1,0.5682,0,12,12,15,1,9,7,9 | 7,2,1.9756,1.4111,congruent,left,,,,,,stimulusFile/magnitude.xlsx,,,,,,,,,,,,,,,,,,,,,,,,,,,,,,,
,,,,,,,,,,,,,,,719,2022-01-25_09h15.56.084,multiplicationStroop,2021.2.3,Win32,60.0528465,,,,,right,0,0.4331,0,13,13,39,1,9,7,9 | 7,2,1.4111,1.9756,incongruent,left,,,,,,stimulusFile/magnitude.xlsx,,,,,,,,,,,,,,,,,,,,,,,,,,,,,,,
,,,,,,,,,,,,,,,719,2022-01-25_09h15.56.084,multiplicationStroop,2021.2.3,Win32,60.0528465,,,,,right,1,1.2993,0,14,14,51,1,8,9,8 | 9,1,1.6933,1.6933,neutral,right,,,,,,stimulusFile/magnitude.xlsx,,,,,,,,,,,,,,,,,,,,,,,,,,,,,,,
,,,,,,,,,,,,,,,719,2022-01-25_09h15.56.084,multiplicationStroop,2021.2.3,Win32,60.0528465,,,,,left,1,0.5657,0,15,15,4,1,2,1,2 | 1,1,1.9756,1.4111,congruent,left,,,,,,stimulusFile/magnitude.xlsx,,,,,,,,,,,,,,,,,,,,,,,,,,,,,,,
,,,,,,,,,,,,,,,719,2022-01-25_09h15.56.084,multiplicationStroop,2021.2.3,Win32,60.0528465,,,,,right,1,0.7127,0,16,16,59,1,7,9,7 | 9,2,1.6933,1.6933,neutral,right,,,,,,stimulusFile/magnitude.xlsx,,,,,,,,,,,,,,,,,,,,,,,,,,,,,,,
,,,,,,,,,,,,,,,719,2022-01-25_09h15.56.084,multiplicationStroop,2021.2.3,Win32,60.0528465,,,,,left,1,0.5679,0,17,17,7,1,9,8,9 | 8,1,1.9756,1.4111,congruent,left,,,,,,stimulusFile/magnitude.xlsx,,,,,,,,,,,,,,,,,,,,,,,,,,,,,,,
,,,,,,,,,,,,,,,719,2022-01-25_09h15.56.084,multiplicationStroop,2021.2.3,Win32,60.0528465,,,,,left,1,0.6023,0,18,18,69,1,7,2,7 | 2,5,1.6933,1.6933,neutral,left,,,,,,stimulusFile/magnitude.xlsx,,,,,,,,,,,,,,,,,,,,,,,,,,,,,,,
,,,,,,,,,,,,,,,719,2022-01-25_09h15.56.084,multiplicationStroop,2021.2.3,Win32,60.0528465,,,,,left,1,0.9345,0,19,19,52,1,2,1,2 | 1,1,1.6933,1.6933,neutral,left,,,,,,stimulusFile/magnitude.xlsx,,,,,,,,,,,,,,,,,,,,,,,,,,,,,,,
,,,,,,,,,,,,,,,719,2022-01-25_09h15.56.084,multiplicationStroop,2021.2.3,Win32,60.0528465,,,,,right,1,0.821,0,20,20,24,1,1,2,1 | 2,1,1.9756,1.4111,incongruent,right,,,,,,stimulusFile/magnitude.xlsx,,,,,,,,,,,,,,,,,,,,,,,,,,,,,,,
,,,,,,,,,,,,,,,719,2022-01-25_09h15.56.084,multiplicationStroop,2021.2.3,Win32,60.0528465,,,,,left,1,0.5177,0,21,21,12,1,3,1,3 | 1,2,1.9756,1.4111,congruent,left,,,,,,stimulusFile/magnitude.xlsx,,,,,,,,,,,,,,,,,,,,,,,,,,,,,,,
,,,,,,,,,,,,,,,719,2022-01-25_09h15.56.084,multiplicationStroop,2021.2.3,Win32,60.0528465,,,,,left,1,0.7874,0,22,22,60,1,3,1,3 | 1,2,1.6933,1.6933,neutral,left,,,,,,stimulusFile/magnitude.xlsx,,,,,,,,,,,,,,,,,,,,,,,,,,,,,,,
,,,,,,,,,,,,,,,719,2022-01-25_09h15.56.084,multiplicationStroop,2021.2.3,Win32,60.0528465,,,,,left,1,0.5862,0,23,23,53,1,4,3,4 | 3,1,1.6933,1.6933,neutral,left,,,,,,stimulusFile/magnitude.xlsx,,,,,,,,,,,,,,,,,,,,,,,,,,,,,,,
,,,,,,,,,,,,,,,719,2022-01-25_09h15.56.084,multiplicationStroop,2021.2.3,Win32,60.0528465,,,,,left,0,0.6277,0,24,24,33,1,2,4,2 | 4,2,1.9756,1.4111,incongruent,right,,,,,,stimulusFile/magnitude.xlsx,,,,,,,,,,,,,,,,,,,,,,,,,,,,,,,
,,,,,,,,,,,,,,,719,2022-01-25_09h15.56.084,multiplicationStroop,2021.2.3,Win32,60.0528465,,,,,right,1,0.7379,0,25,25,64,1,1,6,1 | 6,5,1.6933,1.6933,neutral,right,,,,,,stimulusFile/magnitude.xlsx,,,,,,,,,,,,,,,,,,,,,,,,,,,,,,,
,,,,,,,,,,,,,,,719,2022-01-25_09h15.56.084,multiplicationStroop,2021.2.3,Win32,60.0528465,,,,,right,1,0.6054,0,26,26,58,1,6,8,6 | 8,2,1.6933,1.6933,neutral,right,,,,,,stimulusFile/magnitude.xlsx,,,,,,,,,,,,,,,,,,,,,,,,,,,,,,,
,,,,,,,,,,,,,,,719,2022-01-25_09h15.56.084,multiplicationStroop,2021.2.3,Win32,60.0528465,,,,,left,1,0.9278,0,27,27,29,1,4,3,4 | 3,1,1.4111,1.9756,incongruent,left,,,,,,stimulusFile/magnitude.xlsx,,,,,,,,,,,,,,,,,,,,,,,,,,,,,,,
,,,,,,,,,,,,,,,719,2022-01-25_09h15.56.084,multiplicationStroop,2021.2.3,Win32,60.0528465,,,,,right,1,0.7021,0,28,28,32,1,1,3,1 | 3,2,1.9756,1.4111,incongruent,right,,,,,,stimulusFile/magnitude.xlsx,,,,,,,,,,,,,,,,,,,,,,,,,,,,,,,
,,,,,,,,,,,,,,,719,2022-01-25_09h15.56.084,multiplicationStroop,2021.2.3,Win32,60.0528465,,,,,right,1,0.4685,0,29,29,56,1,1,3,1 | 3,2,1.6933,1.6933,neutral,right,,,,,,stimulusFile/magnitude.xlsx,,,,,,,,,,,,,,,,,,,,,,,,,,,,,,,
,,,,,,,,,,,,,,,719,2022-01-25_09h15.56.084,multiplicationStroop,2021.2.3,Win32,60.0528465,,,,,left,0,0.7915,0,30,30,27,1,8,9,8 | 9,1,1.9756,1.4111,incongruent,right,,,,,,stimulusFile/magnitude.xlsx,,,,,,,,,,,,,,,,,,,,,,,,,,,,,,,
,,,,,,,,,,,,,,,719,2022-01-25_09h15.56.084,multiplicationStroop,2021.2.3,Win32,60.0528465,,,,,left,1,1.6222,0,31,31,28,1,2,1,2 | 1,1,1.4111,1.9756,incongruent,left,,,,,,stimulusFile/magnitude.xlsx,,,,,,,,,,,,,,,,,,,,,,,,,,,,,,,
,,,,,,,,,,,,,,,719,2022-01-25_09h15.56.084,multiplicationStroop,2021.2.3,Win32,60.0528465,,,,,left,1,0.884,0,32,32,5,1,4,3,4 | 3,1,1.9756,1.4111,congruent,left,,,,,,stimulusFile/magnitude.xlsx,,,,,,,,,,,,,,,,,,,,,,,,,,,,,,,
,,,,,,,,,,,,,,,719,2022-01-25_09h15.56.084,multiplicationStroop,2021.2.3,Win32,60.0528465,,,,,right,1,0.6525,0,33,33,57,1,2,4,2 | 4,2,1.6933,1.6933,neutral,right,,,,,,stimulusFile/magnitude.xlsx,,,,,,,,,,,,,,,,,,,,,,,,,,,,,,,
,,,,,,,,,,,,,,,719,2022-01-25_09h15.56.084,multiplicationStroop,2021.2.3,Win32,60.0528465,,,,,right,1,0.6867,0,34,34,66,1,3,8,3 | 8,5,1.6933,1.6933,neutral,right,,,,,,stimulusFile/magnitude.xlsx,,,,,,,,,,,,,,,,,,,,,,,,,,,,,,,
,,,,,,,,,,,,,,,719,2022-01-25_09h15.56.084,multiplicationStroop,2021.2.3,Win32,60.0528465,,,,,right,1,0.7183,0,35,35,42,1,3,8,3 | 8,5,1.9756,1.4111,incongruent,right,,,,,,stimulusFile/magnitude.xlsx,,,,,,,,,,,,,,,,,,,,,,,,,,,,,,,
,,,,,,,,,,,,,,,719,2022-01-25_09h15.56.084,multiplicationStroop,2021.2.3,Win32,60.0528465,,,,,right,1,0.5685,0,36,36,16,1,1,6,1 | 6,5,1.4111,1.9756,congruent,right,,,,,,stimulusFile/magnitude.xlsx,,,,,,,,,,,,,,,,,,,,,,,,,,,,,,,
,,,,,,,,,,,,,,,719,2022-01-25_09h15.56.084,multiplicationStroop,2021.2.3,Win32,60.0528465,,,,,left,1,0.5351,0,37,37,22,1,8,3,8 | 3,5,1.9756,1.4111,congruent,left,,,,,,stimulusFile/magnitude.xlsx,,,,,,,,,,,,,,,,,,,,,,,,,,,,,,,
,,,,,,,,,,,,,,,719,2022-01-25_09h15.56.084,multiplicationStroop,2021.2.3,Win32,60.0528465,,,,,left,1,0.5062,0,38,38,71,1,9,4,9 | 4,5,1.6933,1.6933,neutral,left,,,,,,stimulusFile/magnitude.xlsx,,,,,,,,,,,,,,,,,,,,,,,,,,,,,,,
,,,,,,,,,,,,,,,719,2022-01-25_09h15.56.084,multiplicationStroop,2021.2.3,Win32,60.0528465,,,,,right,1,0.5942,0,39,39,41,1,2,7,2 | 7,5,1.9756,1.4111,incongruent,right,,,,,,stimulusFile/magnitude.xlsx,,,,,,,,,,,,,,,,,,,,,,,,,,,,,,,
,,,,,,,,,,,,,,,719,2022-01-25_09h15.56.084,multiplicationStroop,2021.2.3,Win32,60.0528465,,,,,left,1,0.4736,0,40,40,70,1,8,3,8 | 3,5,1.6933,1.6933,neutral,left,,,,,,stimulusFile/magnitude.xlsx,,,,,,,,,,,,,,,,,,,,,,,,,,,,,,,
,,,,,,,,,,,,,,,719,2022-01-25_09h15.56.084,multiplicationStroop,2021.2.3,Win32,60.0528465,,,,,right,1,0.5257,0,41,41,40,1,1,6,1 | 6,5,1.9756,1.4111,incongruent,right,,,,,,stimulusFile/magnitude.xlsx,,,,,,,,,,,,,,,,,,,,,,,,,,,,,,,
,,,,,,,,,,,,,,,719,2022-01-25_09h15.56.084,multiplicationStroop,2021.2.3,Win32,60.0528465,,,,,left,1,0.5006,0,42,42,21,1,7,2,7 | 2,5,1.9756,1.4111,congruent,left,,,,,,stimulusFile/magnitude.xlsx,,,,,,,,,,,,,,,,,,,,,,,,,,,,,,,
,,,,,,,,,,,,,,,719,2022-01-25_09h15.56.084,multiplicationStroop,2021.2.3,Win32,60.0528465,,,,,left,1,0.6296,0,43,43,37,1,4,2,4 | 2,2,1.4111,1.9756,incongruent,left,,,,,,stimulusFile/magnitude.xlsx,,,,,,,,,,,,,,,,,,,,,,,,,,,,,,,
,,,,,,,,,,,,,,,719,2022-01-25_09h15.56.084,multiplicationStroop,2021.2.3,Win32,60.0528465,,,,,left,1,0.4381,0,44,44,20,1,6,1,6 | 1,5,1.9756,1.4111,congruent,left,,,,,,stimulusFile/magnitude.xlsx,,,,,,,,,,,,,,,,,,,,,,,,,,,,,,,
,,,,,,,,,,,,,,,719,2022-01-25_09h15.56.084,multiplicationStroop,2021.2.3,Win32,60.0528465,,,,,left,1,0.64,0,45,45,54,1,7,6,7 | 6,1,1.6933,1.6933,neutral,left,,,,,,stimulusFile/magnitude.xlsx,,,,,,,,,,,,,,,,,,,,,,,,,,,,,,,
,,,,,,,,,,,,,,,719,2022-01-25_09h15.56.084,multiplicationStroop,2021.2.3,Win32,60.0528465,,,,,left,1,0.405,0,46,46,61,1,4,2,4 | 2,2,1.6933,1.6933,neutral,left,,,,,,stimulusFile/magnitude.xlsx,,,,,,,,,,,,,,,,,,,,,,,,,,,,,,,
,,,,,,,,,,,,,,,719,2022-01-25_09h15.56.084,multiplicationStroop,2021.2.3,Win32,60.0528465,,,,,right,1,0.6227,0,47,47,0,1,1,2,1 | 2,1,1.4111,1.9756,congruent,right,,,,,,stimulusFile/magnitude.xlsx,,,,,,,,,,,,,,,,,,,,,,,,,,,,,,,
,,,,,,,,,,,,,,,719,2022-01-25_09h15.56.084,multiplicationStroop,2021.2.3,Win32,60.0528465,,,,,left,1,0.5006,0,48,48,14,1,8,6,8 | 6,2,1.9756,1.4111,congruent,left,,,,,,stimulusFile/magnitude.xlsx,,,,,,,,,,,,,,,,,,,,,,,,,,,,,,,
,,,,,,,,,,,,,,,719,2022-01-25_09h15.56.084,multiplicationStroop,2021.2.3,Win32,60.0528465,,,,,left,1,0.5016,0,49,49,6,1,7,6,7 | 6,1,1.9756,1.4111,congruent,left,,,,,,stimulusFile/magnitude.xlsx,,,,,,,,,,,,,,,,,,,,,,,,,,,,,,,
,,,,,,,,,,,,,,,719,2022-01-25_09h15.56.084,multiplicationStroop,2021.2.3,Win32,60.0528465,,,,,right,1,0.4872,0,50,50,2,1,6,7,6 | 7,1,1.4111,1.9756,congruent,right,,,,,,stimulusFile/magnitude.xlsx,,,,,,,,,,,,,,,,,,,,,,,,,,,,,,,
,,,,,,,,,,,,,,,719,2022-01-25_09h15.56.084,multiplicationStroop,2021.2.3,Win32,60.0528465,,,,,right,1,0.669,0,51,51,34,1,6,8,6 | 8,2,1.9756,1.4111,incongruent,right,,,,,,stimulusFile/magnitude.xlsx,,,,,,,,,,,,,,,,,,,,,,,,,,,,,,,
,,,,,,,,,,,,,,,719,2022-01-25_09h15.56.084,multiplicationStroop,2021.2.3,Win32,60.0528465,,,,,right,1,0.6353,0,52,52,25,1,3,4,3 | 4,1,1.9756,1.4111,incongruent,right,,,,,,stimulusFile/magnitude.xlsx,,,,,,,,,,,,,,,,,,,,,,,,,,,,,,,
,,,,,,,,,,,,,,,719,2022-01-25_09h15.56.084,multiplicationStroop,2021.2.3,Win32,60.0528465,,,,,left,1,0.7344,0,53,53,68,1,6,1,6 | 1,5,1.6933,1.6933,neutral,left,,,,,,stimulusFile/magnitude.xlsx,,,,,,,,,,,,,,,,,,,,,,,,,,,,,,,
,,,,,,,,,,,,,,,719,2022-01-25_09h15.56.084,multiplicationStroop,2021.2.3,Win32,60.0528465,,,,,right,1,0.4842,0,54,54,9,1,2,4,2 | 4,2,1.4111,1.9756,congruent,right,,,,,,stimulusFile/magnitude.xlsx,,,,,,,,,,,,,,,,,,,,,,,,,,,,,,,
,,,,,,,,,,,,,,,719,2022-01-25_09h15.56.084,multiplicationStroop,2021.2.3,Win32,60.0528465,,,,,right,1,0.8442,0,55,55,26,1,6,7,6 | 7,1,1.9756,1.4111,incongruent,right,,,,,,stimulusFile/magnitude.xlsx,,,,,,,,,,,,,,,,,,,,,,,,,,,,,,,
,,,,,,,,,,,,,,,719,2022-01-25_09h15.56.084,multiplicationStroop,2021.2.3,Win32,60.0528465,,,,,left,1,0.79,0,56,56,38,1,8,6,8 | 6,2,1.4111,1.9756,incongruent,left,,,,,,stimulusFile/magnitude.xlsx,,,,,,,,,,,,,,,,,,,,,,,,,,,,,,,
,,,,,,,,,,,,,,,719,2022-01-25_09h15.56.084,multiplicationStroop,2021.2.3,Win32,60.0528465,,,,,left,1,0.6994,0,57,57,63,1,9,7,9 | 7,2,1.6933,1.6933,neutral,left,,,,,,stimulusFile/magnitude.xlsx,,,,,,,,,,,,,,,,,,,,,,,,,,,,,,,
,,,,,,,,,,,,,,,719,2022-01-25_09h15.56.084,multiplicationStroop,2021.2.3,Win32,60.0528465,,,,,right,1,0.6396,0,58,58,3,1,8,9,8 | 9,1,1.4111,1.9756,congruent,right,,,,,,stimulusFile/magnitude.xlsx,,,,,,,,,,,,,,,,,,,,,,,,,,,,,,,
,,,,,,,,,,,,,,,719,2022-01-25_09h15.56.084,multiplicationStroop,2021.2.3,Win32,60.0528465,,,,,left,1,1.0116,0,59,59,30,1,7,6,7 | 6,1,1.4111,1.9756,incongruent,left,,,,,,stimulusFile/magnitude.xlsx,,,,,,,,,,,,,,,,,,,,,,,,,,,,,,,
,,,,,,,,,,,,,,,719,2022-01-25_09h15.56.084,multiplicationStroop,2021.2.3,Win32,60.0528465,,,,,left,1,0.7414,0,60,60,13,1,4,2,4 | 2,2,1.9756,1.4111,congruent,left,,,,,,stimulusFile/magnitude.xlsx,,,,,,,,,,,,,,,,,,,,,,,,,,,,,,,
,,,,,,,,,,,,,,,719,2022-01-25_09h15.56.084,multiplicationStroop,2021.2.3,Win32,60.0528465,,,,,left,1,0.5028,0,61,61,23,1,9,4,9 | 4,5,1.9756,1.4111,congruent,left,,,,,,stimulusFile/magnitude.xlsx,,,,,,,,,,,,,,,,,,,,,,,,,,,,,,,
,,,,,,,,,,,,,,,719,2022-01-25_09h15.56.084,multiplicationStroop,2021.2.3,Win32,60.0528465,,,,,left,1,0.6517,0,62,62,55,1,9,8,9 | 8,1,1.6933,1.6933,neutral,left,,,,,,stimulusFile/magnitude.xlsx,,,,,,,,,,,,,,,,,,,,,,,,,,,,,,,
,,,,,,,,,,,,,,,719,2022-01-25_09h15.56.084,multiplicationStroop,2021.2.3,Win32,60.0528465,,,,,right,1,0.529,0,63,63,19,1,4,9,4 | 9,5,1.4111,1.9756,congruent,right,,,,,,stimulusFile/magnitude.xlsx,,,,,,,,,,,,,,,,,,,,,,,,,,,,,,,
,,,,,,,,,,,,,,,719,2022-01-25_09h15.56.084,multiplicationStroop,2021.2.3,Win32,60.0528465,,,,,left,1,0.7681,0,64,64,47,1,9,4,9 | 4,5,1.4111,1.9756,incongruent,left,,,,,,stimulusFile/magnitude.xlsx,,,,,,,,,,,,,,,,,,,,,,,,,,,,,,,
,,,,,,,,,,,,,,,719,2022-01-25_09h15.56.084,multiplicationStroop,2021.2.3,Win32,60.0528465,,,,,right,1,0.5698,0,65,65,67,1,4,9,4 | 9,5,1.6933,1.6933,neutral,right,,,,,,stimulusFile/magnitude.xlsx,,,,,,,,,,,,,,,,,,,,,,,,,,,,,,,
,,,,,,,,,,,,,,,719,2022-01-25_09h15.56.084,multiplicationStroop,2021.2.3,Win32,60.0528465,,,,,right,1,0.7702,0,66,66,50,1,6,7,6 | 7,1,1.6933,1.6933,neutral,right,,,,,,stimulusFile/magnitude.xlsx,,,,,,,,,,,,,,,,,,,,,,,,,,,,,,,
,,,,,,,,,,,,,,,719,2022-01-25_09h15.56.084,multiplicationStroop,2021.2.3,Win32,60.0528465,,,,,right,1,0.4737,0,67,67,8,1,1,3,1 | 3,2,1.4111,1.9756,congruent,right,,,,,,stimulusFile/magnitude.xlsx,,,,,,,,,,,,,,,,,,,,,,,,,,,,,,,
,,,,,,,,,,,,,,,719,2022-01-25_09h15.56.084,multiplicationStroop,2021.2.3,Win32,60.0528465,,,,,left,1,0.8518,0,68,68,46,1,8,3,8 | 3,5,1.4111,1.9756,incongruent,left,,,,,,stimulusFile/magnitude.xlsx,,,,,,,,,,,,,,,,,,,,,,,,,,,,,,,
,,,,,,,,,,,,,,,719,2022-01-25_09h15.56.084,multiplicationStroop,2021.2.3,Win32,60.0528465,,,,,left,1,0.5176,0,69,69,45,1,7,2,7 | 2,5,1.4111,1.9756,incongruent,left,,,,,,stimulusFile/magnitude.xlsx,,,,,,,,,,,,,,,,,,,,,,,,,,,,,,,
,,,,,,,,,,,,,,,719,2022-01-25_09h15.56.084,multiplicationStroop,2021.2.3,Win32,60.0528465,,,,,right,1,0.5629,0,70,70,17,1,2,7,2 | 7,5,1.4111,1.9756,congruent,right,,,,,,stimulusFile/magnitude.xlsx,,,,,,,,,,,,,,,,,,,,,,,,,,,,,,,
,,,,,,,,,,,,,,,719,2022-01-25_09h15.56.084,multiplicationStroop,2021.2.3,Win32,60.0528465,,,,,right,1,0.9196,0,71,71,35,1,7,9,7 | 9,2,1.9756,1.4111,incongruent,right,,,,,,stimulusFile/magnitude.xlsx,,,,,,,,,,,,,,,,,,,,,,,,,,,,,,,
,,,,,,,,,,,,,,,719,2022-01-25_09h15.56.084,multiplicationStroop,2021.2.3,Win32,60.0528465,,,,,,,,,,,,,,,,,,,,,0,1,1,0,1,stimulusFile/magnitude.xlsx,NUMERICALLY larger (larger coefficient).,images/numericallyLarger.png,,,,,,,,,,,,,,,,,,,,,,,,,,,,,
,,,,,,,,,,,,,,,719,2022-01-25_09h15.56.084,multiplicationStroop,2021.2.3,Win32,60.0528465,,,,,,,,,,,,,,,,,,,,,,,,,,,,,space,2.0412,space,2.011,21,3.3066,1,0,0,0,8,1,3,×,7,3 × 7,neutral,smallerFirst,1.5,1.5,21,,,,,,,,
,,,,,,,,,,,,,,,719,2022-01-25_09h15.56.084,multiplicationStroop,2021.2.3,Win32,60.0528465,,,,,,,,,,,,,,,,,,,,,,,,,,,,,,,,,24,2.1186,1,0,1,1,2,1,4,×,6,4 × 6,neutral,smallerFirst,1.5,1.5,24,,,,,,,,
,,,,,,,,,,,,,,,719,2022-01-25_09h15.56.084,multiplicationStroop,2021.2.3,Win32,60.0528465,,,,,,,,,,,,,,,,,,,,,,,,,,,,,,,,,72,2.0152,1,0,2,2,11,1,8,×,9,8 × 9,neutral,smallerFirst,1.5,1.5,72,,,,,,,,
,,,,,,,,,,,,,,,719,2022-01-25_09h15.56.084,multiplicationStroop,2021.2.3,Win32,60.0528465,,,,,,,,,,,,,,,,,,,,,,,,,,,,,,,,,8,1.7483,1,0,3,3,3,1,2,×,4,2 × 4,neutral,smallerFirst,1.5,1.5,8,,,,,,,,
,,,,,,,,,,,,,,,719,2022-01-25_09h15.56.084,multiplicationStroop,2021.2.3,Win32,60.0528465,,,,,,,,,,,,,,,,,,,,,,,,,,,,,,,,,12,1.8315,1,0,4,4,25,1,6,×,2,6 × 2,neutral,largerFirst,1.5,1.5,12,,,,,,,,
,,,,,,,,,,,,,,,719,2022-01-25_09h15.56.084,multiplicationStroop,2021.2.3,Win32,60.0528465,,,,,,,,,,,,,,,,,,,,,,,,,,,,,,,,,81,3.2647,1,0,5,5,35,1,9,×,9,9 × 9,neutral,tie,1.5,1.5,81,,,,,,,,
,,,,,,,,,,,,,,,719,2022-01-25_09h15.56.084,multiplicationStroop,2021.2.3,Win32,60.0528465,,,,,,,,,,,,,,,,,,,,,,,,,,,,,,,,,25,1.9823,0,0,6,6,1,1,5,×,7,5 × 7,neutral,smallerFirst,1.5,1.5,35,,,,,,,,
,,,,,,,,,,,,,,,719,2022-01-25_09h15.56.084,multiplicationStroop,2021.2.3,Win32,60.0528465,,,,,,,,,,,,,,,,,,,,,,,,,,,,,,,,,49,2.5646,1,0,7,7,33,1,7,×,7,7 × 7,neutral,tie,1.5,1.5,49,,,,,,,,
,,,,,,,,,,,,,,,719,2022-01-25_09h15.56.084,multiplicationStroop,2021.2.3,Win32,60.0528465,,,,,,,,,,,,,,,,,,,,,,,,,,,,,,,,,6,1.6885,1,0,8,8,26,1,3,×,2,3 × 2,neutral,largerFirst,1.5,1.5,6,,,,,,,,
,,,,,,,,,,,,,,,719,2022-01-25_09h15.56.084,multiplicationStroop,2021.2.3,Win32,60.0528465,,,,,,,,,,,,,,,,,,,,,,,,,,,,,,,,,18,1.8645,1,0,9,9,0,1,3,×,6,3 × 6,neutral,smallerFirst,1.5,1.5,18,,,,,,,,
,,,,,,,,,,,,,,,719,2022-01-25_09h15.56.084,multiplicationStroop,2021.2.3,Win32,60.0528465,,,,,,,,,,,,,,,,,,,,,,,,,,,,,,,,,56,1.982,1,0,10,10,9,1,7,×,8,7 × 8,neutral,smallerFirst,1.5,1.5,56,,,,,,,,
,,,,,,,,,,,,,,,719,2022-01-25_09h15.56.084,multiplicationStroop,2021.2.3,Win32,60.0528465,,,,,,,,,,,,,,,,,,,,,,,,,,,,,,,,,63,2.4477,1,0,11,11,12,1,7,×,9,7 × 9,neutral,smallerFirst,1.5,1.5,63,,,,,,,,
,,,,,,,,,,,,,,,719,2022-01-25_09h15.56.084,multiplicationStroop,2021.2.3,Win32,60.0528465,,,,,,,,,,,,,,,,,,,,,,,,,,,,,,,,,40,1.7571,1,0,12,12,24,1,8,×,5,8 × 5,neutral,largerFirst,1.5,1.5,40,,,,,,,,
,,,,,,,,,,,,,,,719,2022-01-25_09h15.56.084,multiplicationStroop,2021.2.3,Win32,60.0528465,,,,,,,,,,,,,,,,,,,,,,,,,,,,,,,,,20,1.5971,1,0,13,13,20,1,5,×,4,5 × 4,neutral,largerFirst,1.5,1.5,20,,,,,,,,
,,,,,,,,,,,,,,,719,2022-01-25_09h15.56.084,multiplicationStroop,2021.2.3,Win32,60.0528465,,,,,,,,,,,,,,,,,,,,,,,,,,,,,,,,,36,2.2139,1,0,14,14,27,1,9,×,4,9 × 4,neutral,largerFirst,1.5,1.5,36,,,,,,,,
,,,,,,,,,,,,,,,719,2022-01-25_09h15.56.084,multiplicationStroop,2021.2.3,Win32,60.0528465,,,,,,,,,,,,,,,,,,,,,,,,,,,,,,,,,16,1.9975,1,0,15,15,30,1,4,×,4,4 × 4,neutral,tie,1.5,1.5,16,,,,,,,,
,,,,,,,,,,,,,,,719,2022-01-25_09h15.56.084,multiplicationStroop,2021.2.3,Win32,60.0528465,,,,,,,,,,,,,,,,,,,,,,,,,,,,,,,,,16,1.8532,1,0,16,16,13,1,2,×,8,2 × 8,neutral,smallerFirst,1.5,1.5,16,,,,,,,,
,,,,,,,,,,,,,,,719,2022-01-25_09h15.56.084,multiplicationStroop,2021.2.3,Win32,60.0528465,,,,,,,,,,,,,,,,,,,,,,,,,,,,,,,,,9,1.6261,1,0,17,17,29,1,3,×,3,3 × 3,neutral,tie,1.5,1.5,9,,,,,,,,
,,,,,,,,,,,,,,,719,2022-01-25_09h15.56.084,multiplicationStroop,2021.2.3,Win32,60.0528465,,,,,,,,,,,,,,,,,,,,,,,,,,,,,,,,,48,2.0144,1,0,18,18,15,1,8,×,6,8 × 6,neutral,largerFirst,1.5,1.5,48,,,,,,,,
,,,,,,,,,,,,,,,719,2022-01-25_09h15.56.084,multiplicationStroop,2021.2.3,Win32,60.0528465,,,,,,,,,,,,,,,,,,,,,,,,,,,,,,,,,24,1.6642,1,0,19,19,22,1,8,×,3,8 × 3,neutral,largerFirst,1.5,1.5,24,,,,,,,,
,,,,,,,,,,,,,,,719,2022-01-25_09h15.56.084,multiplicationStroop,2021.2.3,Win32,60.0528465,,,,,,,,,,,,,,,,,,,,,,,,,,,,,,,,,4,1.5145,1,0,20,20,28,1,2,×,2,2 × 2,neutral,tie,1.5,1.5,4,,,,,,,,
,,,,,,,,,,,,,,,719,2022-01-25_09h15.56.084,multiplicationStroop,2021.2.3,Win32,60.0528465,,,,,,,,,,,,,,,,,,,,,,,,,,,,,,,,,27,1.7818,1,0,21,21,14,1,9,×,3,9 × 3,neutral,largerFirst,1.5,1.5,27,,,,,,,,
,,,,,,,,,,,,,,,719,2022-01-25_09h15.56.084,multiplicationStroop,2021.2.3,Win32,60.0528465,,,,,,,,,,,,,,,,,,,,,,,,,,,,,,,,,36,3.2635,1,0,22,22,32,1,6,×,6,6 × 6,neutral,tie,1.5,1.5,36,,,,,,,,
,,,,,,,,,,,,,,,719,2022-01-25_09h15.56.084,multiplicationStroop,2021.2.3,Win32,60.0528465,,,,,,,,,,,,,,,,,,,,,,,,,,,,,,,,,30,1.6648,1,0,23,23,19,1,6,×,5,6 × 5,neutral,largerFirst,1.5,1.5,30,,,,,,,,
,,,,,,,,,,,,,,,719,2022-01-25_09h15.56.084,multiplicationStroop,2021.2.3,Win32,60.0528465,,,,,,,,,,,,,,,,,,,,,,,,,,,,,,,,,12,1.6475,1,0,24,24,21,1,4,×,3,4 × 3,neutral,largerFirst,1.5,1.5,12,,,,,,,,
,,,,,,,,,,,,,,,719,2022-01-25_09h15.56.084,multiplicationStroop,2021.2.3,Win32,60.0528465,,,,,,,,,,,,,,,,,,,,,,,,,,,,,,,,,45,1.7644,1,0,25,25,10,1,5,×,9,5 × 9,neutral,smallerFirst,1.5,1.5,45,,,,,,,,
,,,,,,,,,,,,,,,719,2022-01-25_09h15.56.084,multiplicationStroop,2021.2.3,Win32,60.0528465,,,,,,,,,,,,,,,,,,,,,,,,,,,,,,,,,25,1.482,1,0,26,26,31,1,5,×,5,5 × 5,neutral,tie,1.5,1.5,25,,,,,,,,
,,,,,,,,,,,,,,,719,2022-01-25_09h15.56.084,multiplicationStroop,2021.2.3,Win32,60.0528465,,,,,,,,,,,,,,,,,,,,,,,,,,,,,,,,,42,2.8471,1,0,27,27,6,1,6,×,7,6 × 7,neutral,smallerFirst,1.5,1.5,42,,,,,,,,
,,,,,,,,,,,,,,,719,2022-01-25_09h15.56.084,multiplicationStroop,2021.2.3,Win32,60.0528465,,,,,,,,,,,,,,,,,,,,,,,,,,,,,,,,,15,1.8142,1,0,28,28,5,1,3,×,5,3 × 5,neutral,smallerFirst,1.5,1.5,15,,,,,,,,
,,,,,,,,,,,,,,,719,2022-01-25_09h15.56.084,multiplicationStroop,2021.2.3,Win32,60.0528465,,,,,,,,,,,,,,,,,,,,,,,,,,,,,,,,,32,2.364,1,0,29,29,23,1,8,×,4,8 × 4,neutral,largerFirst,1.5,1.5,32,,,,,,,,
,,,,,,,,,,,,,,,719,2022-01-25_09h15.56.084,multiplicationStroop,2021.2.3,Win32,60.0528465,,,,,,,,,,,,,,,,,,,,,,,,,,,,,,,,,18,2.0146,1,0,30,30,18,1,9,×,2,9 × 2,neutral,largerFirst,1.5,1.5,18,,,,,,,,
,,,,,,,,,,,,,,,719,2022-01-25_09h15.56.084,multiplicationStroop,2021.2.3,Win32,60.0528465,,,,,,,,,,,,,,,,,,,,,,,,,,,,,,,,,14,1.8645,1,0,31,31,16,1,7,×,2,7 × 2,neutral,largerFirst,1.5,1.5,14,,,,,,,,
,,,,,,,,,,,,,,,719,2022-01-25_09h15.56.084,multiplicationStroop,2021.2.3,Win32,60.0528465,,,,,,,,,,,,,,,,,,,,,,,,,,,,,,,,,54,2.4975,1,0,32,32,7,1,6,×,9,6 × 9,neutral,smallerFirst,1.5,1.5,54,,,,,,,,
,,,,,,,,,,,,,,,719,2022-01-25_09h15.56.084,multiplicationStroop,2021.2.3,Win32,60.0528465,,,,,,,,,,,,,,,,,,,,,,,,,,,,,,,,,28,1.9473,1,0,33,33,17,1,7,×,4,7 × 4,neutral,largerFirst,1.5,1.5,28,,,,,,,,
,,,,,,,,,,,,,,,719,2022-01-25_09h15.56.084,multiplicationStroop,2021.2.3,Win32,60.0528465,,,,,,,,,,,,,,,,,,,,,,,,,,,,,,,,,64,2.1324,1,0,34,34,34,1,8,×,8,8 × 8,neutral,tie,1.5,1.5,64,,,,,,,,
,,,,,,,,,,,,,,,719,2022-01-25_09h15.56.084,multiplicationStroop,2021.2.3,Win32,60.0528465,,,,,,,,,,,,,,,,,,,,,,,,,,,,,,,,,10,2.7627,1,0,35,35,4,1,2,×,5,2 × 5,neutral,smallerFirst,1.5,1.5,10,,,,,,,,
,,,,,,,,,,,,,,,719,2022-01-25_09h15.56.084,multiplicationStroop,2021.2.3,Win32,60.0528465,,,,,,,,,,,,,,,,,,,,,,,,,,,,,,,,,,,,,,,,,,,,,,,,,,0,0,0,1,1,stimulusFile/mult_blk2.xlsx,,
,,,,,,,,,,,,,,,719,2022-01-25_09h15.56.084,multiplicationStroop,2021.2.3,Win32,60.0528465,,,,,,,,,,,,,,,,,,,,,,,,,,,,,,,space,1.5226,12,1.5774,1,0,0,0,7,1,3,×,4,3 × 4,neutral,smallerFirst,1.5,1.5,12,,,,,,,,
,,,,,,,,,,,,,,,719,2022-01-25_09h15.56.084,multiplicationStroop,2021.2.3,Win32,60.0528465,,,,,,,,,,,,,,,,,,,,,,,,,,,,,,,,,8,1.7647,1,0,1,1,17,1,4,×,2,4 × 2,neutral,largerFirst,1.5,1.5,8,,,,,,,,
,,,,,,,,,,,,,,,719,2022-01-25_09h15.56.084,multiplicationStroop,2021.2.3,Win32,60.0528465,,,,,,,,,,,,,,,,,,,,,,,,,,,,,,,,,28,2.0306,1,0,2,2,3,1,4,×,7,4 × 7,neutral,smallerFirst,1.5,1.5,28,,,,,,,,
,,,,,,,,,,,,,,,719,2022-01-25_09h15.56.084,multiplicationStroop,2021.2.3,Win32,60.0528465,,,,,,,,,,,,,,,,,,,,,,,,,,,,,,,,,36,1.9537,1,0,3,3,32,1,6,×,6,6 × 6,neutral,tie,1.5,1.5,36,,,,,,,,
,,,,,,,,,,,,,,,719,2022-01-25_09h15.56.084,multiplicationStroop,2021.2.3,Win32,60.0528465,,,,,,,,,,,,,,,,,,,,,,,,,,,,,,,,,9,1.5095,1,0,4,4,29,1,3,×,3,3 × 3,neutral,tie,1.5,1.5,9,,,,,,,,
,,,,,,,,,,,,,,,719,2022-01-25_09h15.56.084,multiplicationStroop,2021.2.3,Win32,60.0528465,,,,,,,,,,,,,,,,,,,,,,,,,,,,,,,,,27,1.781,1,0,5,5,0,1,3,×,9,3 × 9,neutral,smallerFirst,1.5,1.5,27,,,,,,,,
,,,,,,,,,,,,,,,719,2022-01-25_09h15.56.084,multiplicationStroop,2021.2.3,Win32,60.0528465,,,,,,,,,,,,,,,,,,,,,,,,,,,,,,,,,42,2.1971,1,0,6,6,20,1,7,×,6,7 × 6,neutral,largerFirst,1.5,1.5,42,,,,,,,,
,,,,,,,,,,,,,,,719,2022-01-25_09h15.56.084,multiplicationStroop,2021.2.3,Win32,60.0528465,,,,,,,,,,,,,,,,,,,,,,,,,,,,,,,,,35,2.0147,1,0,7,7,15,1,7,×,5,7 × 5,neutral,largerFirst,1.5,1.5,35,,,,,,,,
,,,,,,,,,,,,,,,719,2022-01-25_09h15.56.084,multiplicationStroop,2021.2.3,Win32,60.0528465,,,,,,,,,,,,,,,,,,,,,,,,,,,,,,,,,45,2.2813,1,0,8,8,24,1,9,×,5,9 × 5,neutral,largerFirst,1.5,1.5,45,,,,,,,,
,,,,,,,,,,,,,,,719,2022-01-25_09h15.56.084,multiplicationStroop,2021.2.3,Win32,60.0528465,,,,,,,,,,,,,,,,,,,,,,,,,,,,,,,,,64,2.514,1,0,9,9,34,1,8,×,8,8 × 8,neutral,tie,1.5,1.5,64,,,,,,,,
,,,,,,,,,,,,,,,719,2022-01-25_09h15.56.084,multiplicationStroop,2021.2.3,Win32,60.0528465,,,,,,,,,,,,,,,,,,,,,,,,,,,,,,,,,54,2.8136,1,0,10,10,21,1,9,×,6,9 × 6,neutral,largerFirst,1.5,1.5,54,,,,,,,,
,,,,,,,,,,,,,,,719,2022-01-25_09h15.56.084,multiplicationStroop,2021.2.3,Win32,60.0528465,,,,,,,,,,,,,,,,,,,,,,,,,,,,,,,,,63,2.5174,1,0,11,11,26,1,9,×,7,9 × 7,neutral,largerFirst,1.5,1.5,63,,,,,,,,
,,,,,,,,,,,,,,,719,2022-01-25_09h15.56.084,multiplicationStroop,2021.2.3,Win32,60.0528465,,,,,,,,,,,,,,,,,,,,,,,,,,,,,,,,,36,3.8809,1,0,12,12,13,1,4,×,9,4 × 9,neutral,smallerFirst,1.5,1.5,36,,,,,,,,
,,,,,,,,,,,,,,,719,2022-01-25_09h15.56.084,multiplicationStroop,2021.2.3,Win32,60.0528465,,,,,,,,,,,,,,,,,,,,,,,,,,,,,,,,,12,1.7071,1,0,13,13,11,1,2,×,6,2 × 6,neutral,smallerFirst,1.5,1.5,12,,,,,,,,
,,,,,,,,,,,,,,,719,2022-01-25_09h15.56.084,multiplicationStroop,2021.2.3,Win32,60.0528465,,,,,,,,,,,,,,,,,,,,,,,,,,,,,,,,,15,1.6983,1,0,14,14,19,1,5,×,3,5 × 3,neutral,largerFirst,1.5,1.5,15,,,,,,,,
,,,,,,,,,,,,,,,719,2022-01-25_09h15.56.084,multiplicationStroop,2021.2.3,Win32,60.0528465,,,,,,,,,,,,,,,,,,,,,,,,,,,,,,,,,25,1.9143,1,0,15,15,31,1,5,×,5,5 × 5,neutral,tie,1.5,1.5,25,,,,,,,,
,,,,,,,,,,,,,,,719,2022-01-25_09h15.56.084,multiplicationStroop,2021.2.3,Win32,60.0528465,,,,,,,,,,,,,,,,,,,,,,,,,,,,,,,,,6,2.0718,1,0,16,16,12,1,2,×,3,2 × 3,neutral,smallerFirst,1.5,1.5,6,,,,,,,,
,,,,,,,,,,,,,,,719,2022-01-25_09h15.56.084,multiplicationStroop,2021.2.3,Win32,60.0528465,,,,,,,,,,,,,,,,,,,,,,,,,,,,,,,,,48,2.1104,1,0,17,17,1,1,6,×,8,6 × 8,neutral,smallerFirst,1.5,1.5,48,,,,,,,,
,,,,,,,,,,,,,,,719,2022-01-25_09h15.56.084,multiplicationStroop,2021.2.3,Win32,60.0528465,,,,,,,,,,,,,,,,,,,,,,,,,,,,,,,,,49,2.6975,1,0,18,18,33,1,7,×,7,7 × 7,neutral,tie,1.5,1.5,49,,,,,,,,
,,,,,,,,,,,,,,,719,2022-01-25_09h15.56.084,multiplicationStroop,2021.2.3,Win32,60.0528465,,,,,,,,,,,,,,,,,,,,,,,,,,,,,,,,,20,1.5982,1,0,19,19,6,1,4,×,5,4 × 5,neutral,smallerFirst,1.5,1.5,20,,,,,,,,
,,,,,,,,,,,,,,,719,2022-01-25_09h15.56.084,multiplicationStroop,2021.2.3,Win32,60.0528465,,,,,,,,,,,,,,,,,,,,,,,,,,,,,,,,,18,1.948,1,0,20,20,14,1,6,×,3,6 × 3,neutral,largerFirst,1.5,1.5,18,,,,,,,,
,,,,,,,,,,,,,,,719,2022-01-25_09h15.56.084,multiplicationStroop,2021.2.3,Win32,60.0528465,,,,,,,,,,,,,,,,,,,,,,,,,,,,,,,,,15,1.8139,0,0,21,21,2,1,2,×,7,2 × 7,neutral,smallerFirst,1.5,1.5,14,,,,,,,,
,,,,,,,,,,,,,,,719,2022-01-25_09h15.56.084,multiplicationStroop,2021.2.3,Win32,60.0528465,,,,,,,,,,,,,,,,,,,,,,,,,,,,,,,,,32,3.1643,1,0,22,22,9,1,4,×,8,4 × 8,neutral,smallerFirst,1.5,1.5,32,,,,,,,,
,,,,,,,,,,,,,,,719,2022-01-25_09h15.56.084,multiplicationStroop,2021.2.3,Win32,60.0528465,,,,,,,,,,,,,,,,,,,,,,,,,,,,,,,,,81,2.3976,1,0,23,23,35,1,9,×,9,9 × 9,neutral,tie,1.5,1.5,81,,,,,,,,
,,,,,,,,,,,,,,,719,2022-01-25_09h15.56.084,multiplicationStroop,2021.2.3,Win32,60.0528465,,,,,,,,,,,,,,,,,,,,,,,,,,,,,,,,,30,2.0138,1,0,24,24,5,1,5,×,6,5 × 6,neutral,smallerFirst,1.5,1.5,30,,,,,,,,
,,,,,,,,,,,,,,,719,2022-01-25_09h15.56.084,multiplicationStroop,2021.2.3,Win32,60.0528465,,,,,,,,,,,,,,,,,,,,,,,,,,,,,,,,,24,2.4813,1,0,25,25,8,1,3,×,8,3 × 8,neutral,smallerFirst,1.5,1.5,24,,,,,,,,
,,,,,,,,,,,,,,,719,2022-01-25_09h15.56.084,multiplicationStroop,2021.2.3,Win32,60.0528465,,,,,,,,,,,,,,,,,,,,,,,,,,,,,,,,,18,1.8176,1,0,26,26,4,1,2,×,9,2 × 9,neutral,smallerFirst,1.5,1.5,18,,,,,,,,
,,,,,,,,,,,,,,,719,2022-01-25_09h15.56.084,multiplicationStroop,2021.2.3,Win32,60.0528465,,,,,,,,,,,,,,,,,,,,,,,,,,,,,,,,,4,1.4819,1,0,27,27,28,1,2,×,2,2 × 2,neutral,tie,1.5,1.5,4,,,,,,,,
,,,,,,,,,,,,,,,719,2022-01-25_09h15.56.084,multiplicationStroop,2021.2.3,Win32,60.0528465,,,,,,,,,,,,,,,,,,,,,,,,,,,,,,,,,40,1.8485,1,0,28,28,10,1,5,×,8,5 × 8,neutral,smallerFirst,1.5,1.5,40,,,,,,,,
,,,,,,,,,,,,,,,719,2022-01-25_09h15.56.084,multiplicationStroop,2021.2.3,Win32,60.0528465,,,,,,,,,,,,,,,,,,,,,,,,,,,,,,,,,24,1.9635,1,0,29,29,16,1,6,×,4,6 × 4,neutral,largerFirst,1.5,1.5,24,,,,,,,,
,,,,,,,,,,,,,,,719,2022-01-25_09h15.56.084,multiplicationStroop,2021.2.3,Win32,60.0528465,,,,,,,,,,,,,,,,,,,,,,,,,,,,,,,,,5,1.8813,0,0,30,30,23,1,8,×,7,8 × 7,neutral,largerFirst,1.5,1.5,56,,,,,,,,
,,,,,,,,,,,,,,,719,2022-01-25_09h15.56.084,multiplicationStroop,2021.2.3,Win32,60.0528465,,,,,,,,,,,,,,,,,,,,,,,,,,,,,,,,,16,1.6147,1,0,31,31,27,1,8,×,2,8 × 2,neutral,largerFirst,1.5,1.5,16,,,,,,,,
,,,,,,,,,,,,,,,719,2022-01-25_09h15.56.084,multiplicationStroop,2021.2.3,Win32,60.0528465,,,,,,,,,,,,,,,,,,,,,,,,,,,,,,,,,10,1.548,1,0,32,32,18,1,5,×,2,5 × 2,neutral,largerFirst,1.5,1.5,10,,,,,,,,
,,,,,,,,,,,,,,,719,2022-01-25_09h15.56.084,multiplicationStroop,2021.2.3,Win32,60.0528465,,,,,,,,,,,,,,,,,,,,,,,,,,,,,,,,,72,2.348,1,0,33,33,25,1,9,×,8,9 × 8,neutral,largerFirst,1.5,1.5,72,,,,,,,,
,,,,,,,,,,,,,,,719,2022-01-25_09h15.56.084,multiplicationStroop,2021.2.3,Win32,60.0528465,,,,,,,,,,,,,,,,,,,,,,,,,,,,,,,,,16,1.8305,1,0,34,34,30,1,4,×,4,4 × 4,neutral,tie,1.5,1.5,16,,,,,,,,
,,,,,,,,,,,,,,,719,2022-01-25_09h15.56.084,multiplicationStroop,2021.2.3,Win32,60.0528465,,,,,,,,,,,,,,,,,,,,,,,,,,,,,,,,,21,1.6311,1,0,35,35,22,1,7,×,3,7 × 3,neutral,largerFirst,1.5,1.5,21,,,,,,,,
,,,,,,,,,,,,,,,719,2022-01-25_09h15.56.084,multiplicationStroop,2021.2.3,Win32,60.0528465,,,,,,,,,,,,,,,,,,,,,,,,,,,,,,,,,,,,,,,,,,,,,,,,,,0,1,1,0,1,stimulusFile/mult_blk1.xlsx,,
,,,,,,,,,,,,,,,719,2022-01-25_09h15.56.084,multiplicationStroop,2021.2.3,Win32,60.0528465,,,,,,,,,,,,,,,,,,,,,,,,,,,,,,,space,0.9747,45,3.8438,1,0,0,0,9,1,5,×,9,5 × 9,congruent,smallerFirst,1,2,45,,,,,,,,
,,,,,,,,,,,,,,,719,2022-01-25_09h15.56.084,multiplicationStroop,2021.2.3,Win32,60.0528465,,,,,,,,,,,,,,,,,,,,,,,,,,,,,,,,,54,1.9179,1,0,1,1,26,1,9,×,6,9 × 6,congruent,largerFirst,2,1,54,,,,,,,,
,,,,,,,,,,,,,,,719,2022-01-25_09h15.56.084,multiplicationStroop,2021.2.3,Win32,60.0528465,,,,,,,,,,,,,,,,,,,,,,,,,,,,,,,,,64,2.2317,1,0,2,2,34,1,8,×,8,8 × 8,neutral,tie,1,2,64,,,,,,,,
,,,,,,,,,,,,,,,719,2022-01-25_09h15.56.084,multiplicationStroop,2021.2.3,Win32,60.0528465,,,,,,,,,,,,,,,,,,,,,,,,,,,,,,,,,28,2.1645,1,0,3,3,13,1,4,×,7,4 × 7,congruent,smallerFirst,1,2,28,,,,,,,,
,,,,,,,,,,,,,,,719,2022-01-25_09h15.56.084,multiplicationStroop,2021.2.3,Win32,60.0528465,,,,,,,,,,,,,,,,,,,,,,,,,,,,,,,,,12,1.3986,1,0,4,4,16,1,4,×,3,4 × 3,congruent,largerFirst,2,1,12,,,,,,,,
,,,,,,,,,,,,,,,719,2022-01-25_09h15.56.084,multiplicationStroop,2021.2.3,Win32,60.0528465,,,,,,,,,,,,,,,,,,,,,,,,,,,,,,,,,8,1.6982,1,0,5,5,23,1,4,×,2,4 × 2,congruent,largerFirst,2,1,8,,,,,,,,
,,,,,,,,,,,,,,,719,2022-01-25_09h15.56.084,multiplicationStroop,2021.2.3,Win32,60.0528465,,,,,,,,,,,,,,,,,,,,,,,,,,,,,,,,,42,2.3126,1,0,6,6,17,1,7,×,6,7 × 6,congruent,largerFirst,2,1,42,,,,,,,,
,,,,,,,,,,,,,,,719,2022-01-25_09h15.56.084,multiplicationStroop,2021.2.3,Win32,60.0528465,,,,,,,,,,,,,,,,,,,,,,,,,,,,,,,,,14,1.7653,1,0,7,7,0,1,2,×,7,2 × 7,congruent,smallerFirst,1,2,14,,,,,,,,
,,,,,,,,,,,,,,,719,2022-01-25_09h15.56.084,multiplicationStroop,2021.2.3,Win32,60.0528465,,,,,,,,,,,,,,,,,,,,,,,,,,,,,,,,,72,1.815,1,0,8,8,3,1,8,×,9,8 × 9,congruent,smallerFirst,1,2,72,,,,,,,,
,,,,,,,,,,,,,,,719,2022-01-25_09h15.56.084,multiplicationStroop,2021.2.3,Win32,60.0528465,,,,,,,,,,,,,,,,,,,,,,,,,,,,,,,,,25,2.0495,1,0,9,9,31,1,5,×,5,5 × 5,neutral,tie,1,2,25,,,,,,,,
,,,,,,,,,,,,,,,719,2022-01-25_09h15.56.084,multiplicationStroop,2021.2.3,Win32,60.0528465,,,,,,,,,,,,,,,,,,,,,,,,,,,,,,,,,36,3.7636,1,0,10,10,14,1,9,×,4,9 × 4,congruent,largerFirst,2,1,36,,,,,,,,
,,,,,,,,,,,,,,,719,2022-01-25_09h15.56.084,multiplicationStroop,2021.2.3,Win32,60.0528465,,,,,,,,,,,,,,,,,,,,,,,,,,,,,,,,,56,1.8879,1,0,11,11,22,1,8,×,7,8 × 7,congruent,largerFirst,2,1,56,,,,,,,,
,,,,,,,,,,,,,,,719,2022-01-25_09h15.56.084,multiplicationStroop,2021.2.3,Win32,60.0528465,,,,,,,,,,,,,,,,,,,,,,,,,,,,,,,,,32,1.9984,1,0,12,12,6,1,4,×,8,4 × 8,congruent,smallerFirst,1,2,32,,,,,,,,
,,,,,,,,,,,,,,,719,2022-01-25_09h15.56.084,multiplicationStroop,2021.2.3,Win32,60.0528465,,,,,,,,,,,,,,,,,,,,,,,,,,,,,,,,,24,1.9482,1,0,13,13,11,1,4,×,6,4 × 6,congruent,smallerFirst,1,2,24,,,,,,,,
,,,,,,,,,,,,,,,719,2022-01-25_09h15.56.084,multiplicationStroop,2021.2.3,Win32,60.0528465,,,,,,,,,,,,,,,,,,,,,,,,,,,,,,,,,18,2.1011,1,0,14,14,8,1,2,×,9,2 × 9,congruent,smallerFirst,1,2,18,,,,,,,,
,,,,,,,,,,,,,,,719,2022-01-25_09h15.56.084,multiplicationStroop,2021.2.3,Win32,60.0528465,,,,,,,,,,,,,,,,,,,,,,,,,,,,,,,,,27,2.4754,1,0,15,15,12,1,3,×,9,3 × 9,congruent,smallerFirst,1,2,27,,,,,,,,
,,,,,,,,,,,,,,,719,2022-01-25_09h15.56.084,multiplicationStroop,2021.2.3,Win32,60.0528465,,,,,,,,,,,,,,,,,,,,,,,,,,,,,,,,,49,2.204,1,0,16,16,33,1,7,×,7,7 × 7,neutral,tie,1,2,49,,,,,,,,
,,,,,,,,,,,,,,,719,2022-01-25_09h15.56.084,multiplicationStroop,2021.2.3,Win32,60.0528465,,,,,,,,,,,,,,,,,,,,,,,,,,,,,,,,,10,1.6251,1,0,17,17,10,1,2,×,5,2 × 5,congruent,smallerFirst,1,2,10,,,,,,,,
,,,,,,,,,,,,,,,719,2022-01-25_09h15.56.084,multiplicationStroop,2021.2.3,Win32,60.0528465,,,,,,,,,,,,,,,,,,,,,,,,,,,,,,,,,81,1.7479,1,0,18,18,35,1,9,×,9,9 × 9,neutral,tie,1,2,81,,,,,,,,
,,,,,,,,,,,,,,,719,2022-01-25_09h15.56.084,multiplicationStroop,2021.2.3,Win32,60.0528465,,,,,,,,,,,,,,,,,,,,,,,,,,,,,,,,,16,1.7974,1,0,19,19,30,1,4,×,4,4 × 4,neutral,tie,1,2,16,,,,,,,,
,,,,,,,,,,,,,,,719,2022-01-25_09h15.56.084,multiplicationStroop,2021.2.3,Win32,60.0528465,,,,,,,,,,,,,,,,,,,,,,,,,,,,,,,,,24,1.8974,1,0,20,20,24,1,8,×,3,8 × 3,congruent,largerFirst,2,1,24,,,,,,,,
,,,,,,,,,,,,,,,719,2022-01-25_09h15.56.084,multiplicationStroop,2021.2.3,Win32,60.0528465,,,,,,,,,,,,,,,,,,,,,,,,,,,,,,,,,40,1.8643,1,0,21,21,20,1,8,×,5,8 × 5,congruent,largerFirst,2,1,40,,,,,,,,
,,,,,,,,,,,,,,,719,2022-01-25_09h15.56.084,multiplicationStroop,2021.2.3,Win32,60.0528465,,,,,,,,,,,,,,,,,,,,,,,,,,,,,,,,,36,2.2799,1,0,22,22,32,1,6,×,6,6 × 6,neutral,tie,1,2,36,,,,,,,,
,,,,,,,,,,,,,,,719,2022-01-25_09h15.56.084,multiplicationStroop,2021.2.3,Win32,60.0528465,,,,,,,,,,,,,,,,,,,,,,,,,,,,,,,,,21,1.9355,1,0,23,23,2,1,3,×,7,3 × 7,congruent,smallerFirst,1,2,21,,,,,,,,
,,,,,,,,,,,,,,,719,2022-01-25_09h15.56.084,multiplicationStroop,2021.2.3,Win32,60.0528465,,,,,,,,,,,,,,,,,,,,,,,,,,,,,,,,,18,1.8153,1,0,24,24,25,1,6,×,3,6 × 3,congruent,largerFirst,2,1,18,,,,,,,,
,,,,,,,,,,,,,,,719,2022-01-25_09h15.56.084,multiplicationStroop,2021.2.3,Win32,60.0528465,,,,,,,,,,,,,,,,,,,,,,,,,,,,,,,,,35,2.7984,1,0,25,25,15,1,7,×,5,7 × 5,congruent,largerFirst,2,1,35,,,,,,,,
,,,,,,,,,,,,,,,719,2022-01-25_09h15.56.084,multiplicationStroop,2021.2.3,Win32,60.0528465,,,,,,,,,,,,,,,,,,,,,,,,,,,,,,,,,15,1.6235,1,0,26,26,18,1,5,×,3,5 × 3,congruent,largerFirst,2,1,15,,,,,,,,
,,,,,,,,,,,,,,,719,2022-01-25_09h15.56.084,multiplicationStroop,2021.2.3,Win32,60.0528465,,,,,,,,,,,,,,,,,,,,,,,,,,,,,,,,,20,1.4815,1,0,27,27,21,1,5,×,4,5 × 4,congruent,largerFirst,2,1,20,,,,,,,,
,,,,,,,,,,,,,,,719,2022-01-25_09h15.56.084,multiplicationStroop,2021.2.3,Win32,60.0528465,,,,,,,,,,,,,,,,,,,,,,,,,,,,,,,,,12,1.3149,1,0,28,28,5,1,2,×,6,2 × 6,congruent,smallerFirst,1,2,12,,,,,,,,
,,,,,,,,,,,,,,,719,2022-01-25_09h15.56.084,multiplicationStroop,2021.2.3,Win32,60.0528465,,,,,,,,,,,,,,,,,,,,,,,,,,,,,,,,,48,2.004,1,0,29,29,4,1,6,×,8,6 × 8,congruent,smallerFirst,1,2,48,,,,,,,,
,,,,,,,,,,,,,,,719,2022-01-25_09h15.56.084,multiplicationStroop,2021.2.3,Win32,60.0528465,,,,,,,,,,,,,,,,,,,,,,,,,,,,,,,,,4,1.4593,1,0,30,30,28,1,2,×,2,2 × 2,neutral,tie,1,2,4,,,,,,,,
,,,,,,,,,,,,,,,719,2022-01-25_09h15.56.084,multiplicationStroop,2021.2.3,Win32,60.0528465,,,,,,,,,,,,,,,,,,,,,,,,,,,,,,,,,9,2.1801,1,0,31,31,29,1,3,×,3,3 × 3,neutral,tie,1,2,9,,,,,,,,
,,,,,,,,,,,,,,,719,2022-01-25_09h15.56.084,multiplicationStroop,2021.2.3,Win32,60.0528465,,,,,,,,,,,,,,,,,,,,,,,,,,,,,,,,,30,1.848,1,0,32,32,1,1,5,×,6,5 × 6,congruent,smallerFirst,1,2,30,,,,,,,,
,,,,,,,,,,,,,,,719,2022-01-25_09h15.56.084,multiplicationStroop,2021.2.3,Win32,60.0528465,,,,,,,,,,,,,,,,,,,,,,,,,,,,,,,,,16,2.1305,1,0,33,33,19,1,8,×,2,8 × 2,congruent,largerFirst,2,1,16,,,,,,,,
,,,,,,,,,,,,,,,719,2022-01-25_09h15.56.084,multiplicationStroop,2021.2.3,Win32,60.0528465,,,,,,,,,,,,,,,,,,,,,,,,,,,,,,,,,6,1.7312,1,0,34,34,27,1,3,×,2,3 × 2,congruent,largerFirst,2,1,6,,,,,,,,
,,,,,,,,,,,,,,,719,2022-01-25_09h15.56.084,multiplicationStroop,2021.2.3,Win32,60.0528465,,,,,,,,,,,,,,,,,,,,,,,,,,,,,,,,,63,2.6807,1,0,35,35,7,1,7,×,9,7 × 9,congruent,smallerFirst,1,2,63,,,,,,,,
,,,,,,,,,,,,,,,719,2022-01-25_09h15.56.084,multiplicationStroop,2021.2.3,Win32,60.0528465,,,,,,,,,,,,,,,,,,,,,,,,,,,,,,,,,,,,,,,,,,,,,,,,,,0,2,2,3,1,stimulusFile/mult_blk4_congruent.xlsx,,
,,,,,,,,,,,,,,,719,2022-01-25_09h15.56.084,multiplicationStroop,2021.2.3,Win32,60.0528465,,,,,,,,,,,,,,,,,,,,,,,,,,,,,,,space,1.1181,40,1.8596,1,0,0,0,27,1,8,×,5,8 × 5,incongruent,largerFirst,1,2,40,,,,,,,,
,,,,,,,,,,,,,,,719,2022-01-25_09h15.56.084,multiplicationStroop,2021.2.3,Win32,60.0528465,,,,,,,,,,,,,,,,,,,,,,,,,,,,,,,,,28,1.9141,1,0,1,1,2,1,4,×,7,4 × 7,incongruent,smallerFirst,2,1,28,,,,,,,,
,,,,,,,,,,,,,,,719,2022-01-25_09h15.56.084,multiplicationStroop,2021.2.3,Win32,60.0528465,,,,,,,,,,,,,,,,,,,,,,,,,,,,,,,,,18,1.814,1,0,2,2,16,1,9,×,2,9 × 2,incongruent,largerFirst,1,2,18,,,,,,,,
,,,,,,,,,,,,,,,719,2022-01-25_09h15.56.084,multiplicationStroop,2021.2.3,Win32,60.0528465,,,,,,,,,,,,,,,,,,,,,,,,,,,,,,,,,14,1.8879,1,0,3,3,18,1,7,×,2,7 × 2,incongruent,largerFirst,1,2,14,,,,,,,,
,,,,,,,,,,,,,,,719,2022-01-25_09h15.56.084,multiplicationStroop,2021.2.3,Win32,60.0528465,,,,,,,,,,,,,,,,,,,,,,,,,,,,,,,,,63,2.3958,1,0,4,4,17,1,9,×,7,9 × 7,incongruent,largerFirst,1,2,63,,,,,,,,
,,,,,,,,,,,,,,,719,2022-01-25_09h15.56.084,multiplicationStroop,2021.2.3,Win32,60.0528465,,,,,,,,,,,,,,,,,,,,,,,,,,,,,,,,,36,2.0307,1,0,5,5,32,1,6,×,6,6 × 6,neutral,tie,2,1,36,,,,,,,,
,,,,,,,,,,,,,,,719,2022-01-25_09h15.56.084,multiplicationStroop,2021.2.3,Win32,60.0528465,,,,,,,,,,,,,,,,,,,,,,,,,,,,,,,,,32,2.5647,1,0,6,6,21,1,8,×,4,8 × 4,incongruent,largerFirst,1,2,32,,,,,,,,
,,,,,,,,,,,,,,,719,2022-01-25_09h15.56.084,multiplicationStroop,2021.2.3,Win32,60.0528465,,,,,,,,,,,,,,,,,,,,,,,,,,,,,,,,,24,1.7818,1,0,7,7,6,1,4,×,6,4 × 6,incongruent,smallerFirst,2,1,24,,,,,,,,
,,,,,,,,,,,,,,,719,2022-01-25_09h15.56.084,multiplicationStroop,2021.2.3,Win32,60.0528465,,,,,,,,,,,,,,,,,,,,,,,,,,,,,,,,,30,1.6807,1,0,8,8,11,1,5,×,6,5 × 6,incongruent,smallerFirst,2,1,30,,,,,,,,
,,,,,,,,,,,,,,,719,2022-01-25_09h15.56.084,multiplicationStroop,2021.2.3,Win32,60.0528465,,,,,,,,,,,,,,,,,,,,,,,,,,,,,,,,,25,1.6481,1,0,9,9,31,1,5,×,5,5 × 5,neutral,tie,2,1,25,,,,,,,,
,,,,,,,,,,,,,,,719,2022-01-25_09h15.56.084,multiplicationStroop,2021.2.3,Win32,60.0528465,,,,,,,,,,,,,,,,,,,,,,,,,,,,,,,,,16,1.731,1,0,10,10,30,1,4,×,4,4 × 4,neutral,tie,2,1,16,,,,,,,,
,,,,,,,,,,,,,,,719,2022-01-25_09h15.56.084,multiplicationStroop,2021.2.3,Win32,60.0528465,,,,,,,,,,,,,,,,,,,,,,,,,,,,,,,,,54,2.2308,1,0,11,11,20,1,9,×,6,9 × 6,incongruent,largerFirst,1,2,54,,,,,,,,
,,,,,,,,,,,,,,,719,2022-01-25_09h15.56.084,multiplicationStroop,2021.2.3,Win32,60.0528465,,,,,,,,,,,,,,,,,,,,,,,,,,,,,,,,,6,1.5645,1,0,12,12,25,1,3,×,2,3 × 2,incongruent,largerFirst,1,2,6,,,,,,,,
,,,,,,,,,,,,,,,719,2022-01-25_09h15.56.084,multiplicationStroop,2021.2.3,Win32,60.0528465,,,,,,,,,,,,,,,,,,,,,,,,,,,,,,,,,72,2.1639,1,0,13,13,14,1,9,×,8,9 × 8,incongruent,largerFirst,1,2,72,,,,,,,,
,,,,,,,,,,,,,,,719,2022-01-25_09h15.56.084,multiplicationStroop,2021.2.3,Win32,60.0528465,,,,,,,,,,,,,,,,,,,,,,,,,,,,,,,,,15,1.4636,1,0,14,14,24,1,5,×,3,5 × 3,incongruent,largerFirst,1,2,15,,,,,,,,
,,,,,,,,,,,,,,,719,2022-01-25_09h15.56.084,multiplicationStroop,2021.2.3,Win32,60.0528465,,,,,,,,,,,,,,,,,,,,,,,,,,,,,,,,,48,2.0647,1,0,15,15,15,1,8,×,6,8 × 6,incongruent,largerFirst,1,2,48,,,,,,,,
,,,,,,,,,,,,,,,719,2022-01-25_09h15.56.084,multiplicationStroop,2021.2.3,Win32,60.0528465,,,,,,,,,,,,,,,,,,,,,,,,,,,,,,,,,8,1.63,1,0,16,16,10,1,2,×,4,2 × 4,incongruent,smallerFirst,2,1,8,,,,,,,,
,,,,,,,,,,,,,,,719,2022-01-25_09h15.56.084,multiplicationStroop,2021.2.3,Win32,60.0528465,,,,,,,,,,,,,,,,,,,,,,,,,,,,,,,,,21,1.5148,1,0,17,17,12,1,3,×,7,3 × 7,incongruent,smallerFirst,2,1,21,,,,,,,,
,,,,,,,,,,,,,,,719,2022-01-25_09h15.56.084,multiplicationStroop,2021.2.3,Win32,60.0528465,,,,,,,,,,,,,,,,,,,,,,,,,,,,,,,,,81,1.7649,1,0,18,18,35,1,9,×,9,9 × 9,neutral,tie,2,1,81,,,,,,,,
,,,,,,,,,,,,,,,719,2022-01-25_09h15.56.084,multiplicationStroop,2021.2.3,Win32,60.0528465,,,,,,,,,,,,,,,,,,,,,,,,,,,,,,,,,12,1.7314,1,0,19,19,5,1,2,×,6,2 × 6,incongruent,smallerFirst,2,1,12,,,,,,,,
,,,,,,,,,,,,,,,719,2022-01-25_09h15.56.084,multiplicationStroop,2021.2.3,Win32,60.0528465,,,,,,,,,,,,,,,,,,,,,,,,,,,,,,,,,16,1.8039,1,0,20,20,9,1,2,×,8,2 × 8,incongruent,smallerFirst,2,1,16,,,,,,,,
,,,,,,,,,,,,,,,719,2022-01-25_09h15.56.084,multiplicationStroop,2021.2.3,Win32,60.0528465,,,,,,,,,,,,,,,,,,,,,,,,,,,,,,,,,35,2.1086,1,0,21,21,26,1,7,×,5,7 × 5,incongruent,largerFirst,1,2,35,,,,,,,,
,,,,,,,,,,,,,,,719,2022-01-25_09h15.56.084,multiplicationStroop,2021.2.3,Win32,60.0528465,,,,,,,,,,,,,,,,,,,,,,,,,,,,,,,,,45,1.7978,1,0,22,22,8,1,5,×,9,5 × 9,incongruent,smallerFirst,2,1,45,,,,,,,,
,,,,,,,,,,,,,,,719,2022-01-25_09h15.56.084,multiplicationStroop,2021.2.3,Win32,60.0528465,,,,,,,,,,,,,,,,,,,,,,,,,,,,,,,,,10,1.7142,1,0,23,23,7,1,2,×,5,2 × 5,incongruent,smallerFirst,2,1,10,,,,,,,,
,,,,,,,,,,,,,,,719,2022-01-25_09h15.56.084,multiplicationStroop,2021.2.3,Win32,60.0528465,,,,,,,,,,,,,,,,,,,,,,,,,,,,,,,,,18,1.6976,1,0,24,24,22,1,6,×,3,6 × 3,incongruent,largerFirst,1,2,18,,,,,,,,
,,,,,,,,,,,,,,,719,2022-01-25_09h15.56.084,multiplicationStroop,2021.2.3,Win32,60.0528465,,,,,,,,,,,,,,,,,,,,,,,,,,,,,,,,,4,1.5485,1,0,25,25,28,1,2,×,2,2 × 2,neutral,tie,2,1,4,,,,,,,,
,,,,,,,,,,,,,,,719,2022-01-25_09h15.56.084,multiplicationStroop,2021.2.3,Win32,60.0528465,,,,,,,,,,,,,,,,,,,,,,,,,,,,,,,,,64,2.0816,1,0,26,26,34,1,8,×,8,8 × 8,neutral,tie,2,1,64,,,,,,,,
,,,,,,,,,,,,,,,719,2022-01-25_09h15.56.084,multiplicationStroop,2021.2.3,Win32,60.0528465,,,,,,,,,,,,,,,,,,,,,,,,,,,,,,,,,12,1.398,1,0,27,27,19,1,4,×,3,4 × 3,incongruent,largerFirst,1,2,12,,,,,,,,
,,,,,,,,,,,,,,,719,2022-01-25_09h15.56.084,multiplicationStroop,2021.2.3,Win32,60.0528465,,,,,,,,,,,,,,,,,,,,,,,,,,,,,,,,,9,1.5807,1,0,28,28,29,1,3,×,3,3 × 3,neutral,tie,2,1,9,,,,,,,,
,,,,,,,,,,,,,,,719,2022-01-25_09h15.56.084,multiplicationStroop,2021.2.3,Win32,60.0528465,,,,,,,,,,,,,,,,,,,,,,,,,,,,,,,,,20,1.4146,1,0,29,29,13,1,4,×,5,4 × 5,incongruent,smallerFirst,2,1,20,,,,,,,,
,,,,,,,,,,,,,,,719,2022-01-25_09h15.56.084,multiplicationStroop,2021.2.3,Win32,60.0528465,,,,,,,,,,,,,,,,,,,,,,,,,,,,,,,,,21,1.5979,0,0,30,30,4,1,3,×,9,3 × 9,incongruent,smallerFirst,2,1,27,,,,,,,,
,,,,,,,,,,,,,,,719,2022-01-25_09h15.56.084,multiplicationStroop,2021.2.3,Win32,60.0528465,,,,,,,,,,,,,,,,,,,,,,,,,,,,,,,,,42,3.2473,1,0,31,31,3,1,6,×,7,6 × 7,incongruent,smallerFirst,2,1,42,,,,,,,,
,,,,,,,,,,,,,,,719,2022-01-25_09h15.56.084,multiplicationStroop,2021.2.3,Win32,60.0528465,,,,,,,,,,,,,,,,,,,,,,,,,,,,,,,,,56,1.9476,1,0,32,32,0,1,7,×,8,7 × 8,incongruent,smallerFirst,2,1,56,,,,,,,,
,,,,,,,,,,,,,,,719,2022-01-25_09h15.56.084,multiplicationStroop,2021.2.3,Win32,60.0528465,,,,,,,,,,,,,,,,,,,,,,,,,,,,,,,,,49,2.0129,1,0,33,33,33,1,7,×,7,7 × 7,neutral,tie,2,1,49,,,,,,,,
,,,,,,,,,,,,,,,719,2022-01-25_09h15.56.084,multiplicationStroop,2021.2.3,Win32,60.0528465,,,,,,,,,,,,,,,,,,,,,,,,,,,,,,,,,36,2.2831,1,0,34,34,1,1,4,×,9,4 × 9,incongruent,smallerFirst,2,1,36,,,,,,,,
,,,,,,,,,,,,,,,719,2022-01-25_09h15.56.084,multiplicationStroop,2021.2.3,Win32,60.0528465,,,,,,,,,,,,,,,,,,,,,,,,,,,,,,,,,24,2.5486,1,0,35,35,23,1,8,×,3,8 × 3,incongruent,largerFirst,1,2,24,,,,,,,,
,,,,,,,,,,,,,,,719,2022-01-25_09h15.56.084,multiplicationStroop,2021.2.3,Win32,60.0528465,,,,,,,,,,,,,,,,,,,,,,,,,,,,,,,,,,,,,,,,,,,,,,,,,,0,3,3,4,1,stimulusFile/mult_blk5_INcongruent.xlsx,,
,,,,,,,,,,,,,,,719,2022-01-25_09h15.56.084,multiplicationStroop,2021.2.3,Win32,60.0528465,,,,,,,,,,,,,,,,,,,,,,,,,,,,,,,space,23.2465,42,1.9234,1,0,0,0,17,1,7,×,6,7 × 6,incongruent,largerFirst,1,2,42,,,,,,,,
,,,,,,,,,,,,,,,719,2022-01-25_09h15.56.084,multiplicationStroop,2021.2.3,Win32,60.0528465,,,,,,,,,,,,,,,,,,,,,,,,,,,,,,,,,45,1.7978,1,0,1,1,22,1,9,×,5,9 × 5,incongruent,largerFirst,1,2,45,,,,,,,,
,,,,,,,,,,,,,,,719,2022-01-25_09h15.56.084,multiplicationStroop,2021.2.3,Win32,60.0528465,,,,,,,,,,,,,,,,,,,,,,,,,,,,,,,,,24,1.8805,1,0,2,2,9,1,3,×,8,3 × 8,incongruent,smallerFirst,2,1,24,,,,,,,,
,,,,,,,,,,,,,,,719,2022-01-25_09h15.56.084,multiplicationStroop,2021.2.3,Win32,60.0528465,,,,,,,,,,,,,,,,,,,,,,,,,,,,,,,,,18,1.9311,1,0,3,3,8,1,3,×,6,3 × 6,incongruent,smallerFirst,2,1,18,,,,,,,,
,,,,,,,,,,,,,,,719,2022-01-25_09h15.56.084,multiplicationStroop,2021.2.3,Win32,60.0528465,,,,,,,,,,,,,,,,,,,,,,,,,,,,,,,,,49,1.9477,1,0,4,4,33,1,7,×,7,7 × 7,incongruent,tie,1,2,49,,,,,,,,
,,,,,,,,,,,,,,,719,2022-01-25_09h15.56.084,multiplicationStroop,2021.2.3,Win32,60.0528465,,,,,,,,,,,,,,,,,,,,,,,,,,,,,,,,,64,1.8309,1,0,5,5,34,1,8,×,8,8 × 8,incongruent,tie,1,2,64,,,,,,,,
,,,,,,,,,,,,,,,719,2022-01-25_09h15.56.084,multiplicationStroop,2021.2.3,Win32,60.0528465,,,,,,,,,,,,,,,,,,,,,,,,,,,,,,,,,28,1.9148,1,0,6,6,16,1,7,×,4,7 × 4,incongruent,largerFirst,1,2,28,,,,,,,,
,,,,,,,,,,,,,,,719,2022-01-25_09h15.56.084,multiplicationStroop,2021.2.3,Win32,60.0528465,,,,,,,,,,,,,,,,,,,,,,,,,,,,,,,,,36,1.7473,1,0,7,7,32,1,6,×,6,6 × 6,incongruent,tie,1,2,36,,,,,,,,
,,,,,,,,,,,,,,,719,2022-01-25_09h15.56.084,multiplicationStroop,2021.2.3,Win32,60.0528465,,,,,,,,,,,,,,,,,,,,,,,,,,,,,,,,,30,1.5816,1,0,8,8,25,1,6,×,5,6 × 5,incongruent,largerFirst,1,2,30,,,,,,,,
,,,,,,,,,,,,,,,719,2022-01-25_09h15.56.084,multiplicationStroop,2021.2.3,Win32,60.0528465,,,,,,,,,,,,,,,,,,,,,,,,,,,,,,,,,25,1.4312,1,0,9,9,31,1,5,×,5,5 × 5,incongruent,tie,1,2,25,,,,,,,,
,,,,,,,,,,,,,,,719,2022-01-25_09h15.56.084,multiplicationStroop,2021.2.3,Win32,60.0528465,,,,,,,,,,,,,,,,,,,,,,,,,,,,,,,,,18,1.799,1,0,10,10,2,1,2,×,9,2 × 9,incongruent,smallerFirst,2,1,18,,,,,,,,
,,,,,,,,,,,,,,,719,2022-01-25_09h15.56.084,multiplicationStroop,2021.2.3,Win32,60.0528465,,,,,,,,,,,,,,,,,,,,,,,,,,,,,,,,,63,2.5458,1,0,11,11,3,1,7,×,9,7 × 9,incongruent,smallerFirst,2,1,63,,,,,,,,
,,,,,,,,,,,,,,,719,2022-01-25_09h15.56.084,multiplicationStroop,2021.2.3,Win32,60.0528465,,,,,,,,,,,,,,,,,,,,,,,,,,,,,,,,,35,2.4012,1,0,12,12,12,1,5,×,7,5 × 7,incongruent,smallerFirst,2,1,35,,,,,,,,
,,,,,,,,,,,,,,,719,2022-01-25_09h15.56.084,multiplicationStroop,2021.2.3,Win32,60.0528465,,,,,,,,,,,,,,,,,,,,,,,,,,,,,,,,,16,1.7649,1,0,13,13,23,1,8,×,2,8 × 2,incongruent,largerFirst,1,2,16,,,,,,,,
,,,,,,,,,,,,,,,719,2022-01-25_09h15.56.084,multiplicationStroop,2021.2.3,Win32,60.0528465,,,,,,,,,,,,,,,,,,,,,,,,,,,,,,,,,14,2.4148,1,0,14,14,4,1,2,×,7,2 × 7,incongruent,smallerFirst,2,1,14,,,,,,,,
,,,,,,,,,,,,,,,719,2022-01-25_09h15.56.084,multiplicationStroop,2021.2.3,Win32,60.0528465,,,,,,,,,,,,,,,,,,,,,,,,,,,,,,,,,54,2.0317,1,0,15,15,6,1,6,×,9,6 × 9,incongruent,smallerFirst,2,1,54,,,,,,,,
,,,,,,,,,,,,,,,719,2022-01-25_09h15.56.084,multiplicationStroop,2021.2.3,Win32,60.0528465,,,,,,,,,,,,,,,,,,,,,,,,,,,,,,,,,10,2.7651,1,0,16,16,21,1,5,×,2,5 × 2,incongruent,largerFirst,1,2,10,,,,,,,,
,,,,,,,,,,,,,,,719,2022-01-25_09h15.56.084,multiplicationStroop,2021.2.3,Win32,60.0528465,,,,,,,,,,,,,,,,,,,,,,,,,,,,,,,,,48,2.665,1,0,17,17,1,1,6,×,8,6 × 8,incongruent,smallerFirst,2,1,48,,,,,,,,
,,,,,,,,,,,,,,,719,2022-01-25_09h15.56.084,multiplicationStroop,2021.2.3,Win32,60.0528465,,,,,,,,,,,,,,,,,,,,,,,,,,,,,,,,,40,1.822,1,0,18,18,13,1,5,×,8,5 × 8,incongruent,smallerFirst,2,1,40,,,,,,,,
,,,,,,,,,,,,,,,719,2022-01-25_09h15.56.084,multiplicationStroop,2021.2.3,Win32,60.0528465,,,,,,,,,,,,,,,,,,,,,,,,,,,,,,,,,9,1.4318,1,0,19,19,29,1,3,×,3,3 × 3,incongruent,tie,1,2,9,,,,,,,,
,,,,,,,,,,,,,,,719,2022-01-25_09h15.56.084,multiplicationStroop,2021.2.3,Win32,60.0528465,,,,,,,,,,,,,,,,,,,,,,,,,,,,,,,,,21,1.465,1,0,20,20,26,1,7,×,3,7 × 3,incongruent,largerFirst,1,2,21,,,,,,,,
,,,,,,,,,,,,,,,719,2022-01-25_09h15.56.084,multiplicationStroop,2021.2.3,Win32,60.0528465,,,,,,,,,,,,,,,,,,,,,,,,,,,,,,,,,12,1.898,1,0,21,21,5,1,3,×,4,3 × 4,incongruent,smallerFirst,2,1,12,,,,,,,,
,,,,,,,,,,,,,,,719,2022-01-25_09h15.56.084,multiplicationStroop,2021.2.3,Win32,60.0528465,,,,,,,,,,,,,,,,,,,,,,,,,,,,,,,,,4,1.5482,1,0,22,22,28,1,2,×,2,2 × 2,incongruent,tie,1,2,4,,,,,,,,
,,,,,,,,,,,,,,,719,2022-01-25_09h15.56.084,multiplicationStroop,2021.2.3,Win32,60.0528465,,,,,,,,,,,,,,,,,,,,,,,,,,,,,,,,,16,1.748,1,0,23,23,30,1,4,×,4,4 × 4,incongruent,tie,1,2,16,,,,,,,,
,,,,,,,,,,,,,,,719,2022-01-25_09h15.56.084,multiplicationStroop,2021.2.3,Win32,60.0528465,,,,,,,,,,,,,,,,,,,,,,,,,,,,,,,,,36,4.1975,1,0,24,24,15,1,9,×,4,9 × 4,incongruent,largerFirst,1,2,36,,,,,,,,
,,,,,,,,,,,,,,,719,2022-01-25_09h15.56.084,multiplicationStroop,2021.2.3,Win32,60.0528465,,,,,,,,,,,,,,,,,,,,,,,,,,,,,,,,,24,2.4348,1,0,25,25,20,1,6,×,4,6 × 4,incongruent,largerFirst,1,2,24,,,,,,,,
,,,,,,,,,,,,,,,719,2022-01-25_09h15.56.084,multiplicationStroop,2021.2.3,Win32,60.0528465,,,,,,,,,,,,,,,,,,,,,,,,,,,,,,,,,32,2.1153,1,0,26,26,7,1,4,×,8,4 × 8,incongruent,smallerFirst,2,1,32,,,,,,,,
,,,,,,,,,,,,,,,719,2022-01-25_09h15.56.084,multiplicationStroop,2021.2.3,Win32,60.0528465,,,,,,,,,,,,,,,,,,,,,,,,,,,,,,,,,6,1.6144,1,0,27,27,11,1,2,×,3,2 × 3,incongruent,smallerFirst,2,1,6,,,,,,,,
,,,,,,,,,,,,,,,719,2022-01-25_09h15.56.084,multiplicationStroop,2021.2.3,Win32,60.0528465,,,,,,,,,,,,,,,,,,,,,,,,,,,,,,,,,20,1.4815,1,0,28,28,27,1,5,×,4,5 × 4,incongruent,largerFirst,1,2,20,,,,,,,,
,,,,,,,,,,,,,,,719,2022-01-25_09h15.56.084,multiplicationStroop,2021.2.3,Win32,60.0528465,,,,,,,,,,,,,,,,,,,,,,,,,,,,,,,,,15,1.5325,1,0,29,29,10,1,3,×,5,3 × 5,incongruent,smallerFirst,2,1,15,,,,,,,,
,,,,,,,,,,,,,,,719,2022-01-25_09h15.56.084,multiplicationStroop,2021.2.3,Win32,60.0528465,,,,,,,,,,,,,,,,,,,,,,,,,,,,,,,,,56,2.5979,1,0,30,30,14,1,8,×,7,8 × 7,incongruent,largerFirst,1,2,56,,,,,,,,
,,,,,,,,,,,,,,,719,2022-01-25_09h15.56.084,multiplicationStroop,2021.2.3,Win32,60.0528465,,,,,,,,,,,,,,,,,,,,,,,,,,,,,,,,,8,1.5062,1,0,31,31,24,1,4,×,2,4 × 2,incongruent,largerFirst,1,2,8,,,,,,,,
,,,,,,,,,,,,,,,719,2022-01-25_09h15.56.084,multiplicationStroop,2021.2.3,Win32,60.0528465,,,,,,,,,,,,,,,,,,,,,,,,,,,,,,,,,12,1.4316,1,0,32,32,19,1,6,×,2,6 × 2,incongruent,largerFirst,1,2,12,,,,,,,,
,,,,,,,,,,,,,,,719,2022-01-25_09h15.56.084,multiplicationStroop,2021.2.3,Win32,60.0528465,,,,,,,,,,,,,,,,,,,,,,,,,,,,,,,,,27,1.8864,1,0,33,33,18,1,9,×,3,9 × 3,incongruent,largerFirst,1,2,27,,,,,,,,
,,,,,,,,,,,,,,,719,2022-01-25_09h15.56.084,multiplicationStroop,2021.2.3,Win32,60.0528465,,,,,,,,,,,,,,,,,,,,,,,,,,,,,,,,,81,2.176,1,0,34,34,35,1,9,×,9,9 × 9,incongruent,tie,1,2,81,,,,,,,,
,,,,,,,,,,,,,,,719,2022-01-25_09h15.56.084,multiplicationStroop,2021.2.3,Win32,60.0528465,,,,,,,,,,,,,,,,,,,,,,,,,,,,,,,,,72,1.9991,1,0,35,35,0,1,8,×,9,8 × 9,incongruent,smallerFirst,2,1,72,,,,,,,,
,,,,,,,,,,,,,,,719,2022-01-25_09h15.56.084,multiplicationStroop,2021.2.3,Win32,60.0528465,,,,,,,,,,,,,,,,,,,,,,,,,,,,,,,,,,,,,,,,,,,,,,,,,,0,4,4,5,1,stimulusFile/mult_blk6_INcongruent.xlsx,,
,,,,,,,,,,,,,,,719,2022-01-25_09h15.56.084,multiplicationStroop,2021.2.3,Win32,60.0528465,,,,,,,,,,,,,,,,,,,,,,,,,,,,,,,space,0.9431,42,7.4189,1,0,0,0,3,1,6,×,7,6 × 7,congruent,smallerFirst,1,2,42,,,,,,,,
,,,,,,,,,,,,,,,719,2022-01-25_09h15.56.084,multiplicationStroop,2021.2.3,Win32,60.0528465,,,,,,,,,,,,,,,,,,,,,,,,,,,,,,,,,36,2.1223,1,0,1,1,32,1,6,×,6,6 × 6,neutral,tie,2,1,36,,,,,,,,
,,,,,,,,,,,,,,,719,2022-01-25_09h15.56.084,multiplicationStroop,2021.2.3,Win32,60.0528465,,,,,,,,,,,,,,,,,,,,,,,,,,,,,,,,,24,2.5317,1,0,2,2,25,1,6,×,4,6 × 4,congruent,largerFirst,2,1,24,,,,,,,,
,,,,,,,,,,,,,,,719,2022-01-25_09h15.56.084,multiplicationStroop,2021.2.3,Win32,60.0528465,,,,,,,,,,,,,,,,,,,,,,,,,,,,,,,,,45,3.4663,1,0,3,3,23,1,9,×,5,9 × 5,congruent,largerFirst,2,1,45,,,,,,,,
,,,,,,,,,,,,,,,719,2022-01-25_09h15.56.084,multiplicationStroop,2021.2.3,Win32,60.0528465,,,,,,,,,,,,,,,,,,,,,,,,,,,,,,,,,32,1.9651,1,0,4,4,20,1,8,×,4,8 × 4,congruent,largerFirst,2,1,32,,,,,,,,
,,,,,,,,,,,,,,,719,2022-01-25_09h15.56.084,multiplicationStroop,2021.2.3,Win32,60.0528465,,,,,,,,,,,,,,,,,,,,,,,,,,,,,,,,,15,1.8648,1,0,5,5,4,1,3,×,5,3 × 5,congruent,smallerFirst,1,2,15,,,,,,,,
,,,,,,,,,,,,,,,719,2022-01-25_09h15.56.084,multiplicationStroop,2021.2.3,Win32,60.0528465,,,,,,,,,,,,,,,,,,,,,,,,,,,,,,,,,28,2.1819,1,0,6,6,27,1,7,×,4,7 × 4,congruent,largerFirst,2,1,28,,,,,,,,
,,,,,,,,,,,,,,,719,2022-01-25_09h15.56.084,multiplicationStroop,2021.2.3,Win32,60.0528465,,,,,,,,,,,,,,,,,,,,,,,,,,,,,,,,,40,1.9319,1,0,7,7,6,1,5,×,8,5 × 8,congruent,smallerFirst,1,2,40,,,,,,,,
,,,,,,,,,,,,,,,719,2022-01-25_09h15.56.084,multiplicationStroop,2021.2.3,Win32,60.0528465,,,,,,,,,,,,,,,,,,,,,,,,,,,,,,,,,6,1.7317,1,0,8,8,13,1,2,×,3,2 × 3,congruent,smallerFirst,1,2,6,,,,,,,,
,,,,,,,,,,,,,,,719,2022-01-25_09h15.56.084,multiplicationStroop,2021.2.3,Win32,60.0528465,,,,,,,,,,,,,,,,,,,,,,,,,,,,,,,,,8,1.7979,1,0,9,9,9,1,2,×,4,2 × 4,congruent,smallerFirst,1,2,8,,,,,,,,
,,,,,,,,,,,,,,,719,2022-01-25_09h15.56.084,multiplicationStroop,2021.2.3,Win32,60.0528465,,,,,,,,,,,,,,,,,,,,,,,,,,,,,,,,,16,1.9989,1,0,10,10,30,1,4,×,4,4 × 4,neutral,tie,2,1,16,,,,,,,,
,,,,,,,,,,,,,,,719,2022-01-25_09h15.56.084,multiplicationStroop,2021.2.3,Win32,60.0528465,,,,,,,,,,,,,,,,,,,,,,,,,,,,,,,,,20,1.5645,1,0,11,11,7,1,4,×,5,4 × 5,congruent,smallerFirst,1,2,20,,,,,,,,
,,,,,,,,,,,,,,,719,2022-01-25_09h15.56.084,multiplicationStroop,2021.2.3,Win32,60.0528465,,,,,,,,,,,,,,,,,,,,,,,,,,,,,,,,,72,1.7484,1,0,12,12,17,1,9,×,8,9 × 8,congruent,largerFirst,2,1,72,,,,,,,,
,,,,,,,,,,,,,,,719,2022-01-25_09h15.56.084,multiplicationStroop,2021.2.3,Win32,60.0528465,,,,,,,,,,,,,,,,,,,,,,,,,,,,,,,,,48,2.4651,1,0,13,13,18,1,8,×,6,8 × 6,congruent,largerFirst,2,1,48,,,,,,,,
,,,,,,,,,,,,,,,719,2022-01-25_09h15.56.084,multiplicationStroop,2021.2.3,Win32,60.0528465,,,,,,,,,,,,,,,,,,,,,,,,,,,,,,,,,36,2.465,1,0,14,14,0,1,4,×,9,4 × 9,congruent,smallerFirst,1,2,36,,,,,,,,
,,,,,,,,,,,,,,,719,2022-01-25_09h15.56.084,multiplicationStroop,2021.2.3,Win32,60.0528465,,,,,,,,,,,,,,,,,,,,,,,,,,,,,,,,,56,2.365,1,0,15,15,8,1,7,×,8,7 × 8,congruent,smallerFirst,1,2,56,,,,,,,,
,,,,,,,,,,,,,,,719,2022-01-25_09h15.56.084,multiplicationStroop,2021.2.3,Win32,60.0528465,,,,,,,,,,,,,,,,,,,,,,,,,,,,,,,,,64,1.8646,1,0,16,16,34,1,8,×,8,8 × 8,neutral,tie,2,1,64,,,,,,,,
,,,,,,,,,,,,,,,719,2022-01-25_09h15.56.084,multiplicationStroop,2021.2.3,Win32,60.0528465,,,,,,,,,,,,,,,,,,,,,,,,,,,,,,,,,25,2.2476,1,0,17,17,31,1,5,×,5,5 × 5,neutral,tie,2,1,25,,,,,,,,
,,,,,,,,,,,,,,,719,2022-01-25_09h15.56.084,multiplicationStroop,2021.2.3,Win32,60.0528465,,,,,,,,,,,,,,,,,,,,,,,,,,,,,,,,,21,1.3663,1,0,18,18,16,1,7,×,3,7 × 3,congruent,largerFirst,2,1,21,,,,,,,,
,,,,,,,,,,,,,,,719,2022-01-25_09h15.56.084,multiplicationStroop,2021.2.3,Win32,60.0528465,,,,,,,,,,,,,,,,,,,,,,,,,,,,,,,,,18,1.6654,1,0,19,19,22,1,9,×,2,9 × 2,congruent,largerFirst,2,1,18,,,,,,,,
,,,,,,,,,,,,,,,719,2022-01-25_09h15.56.084,multiplicationStroop,2021.2.3,Win32,60.0528465,,,,,,,,,,,,,,,,,,,,,,,,,,,,,,,,,54,1.9817,1,0,20,20,12,1,6,×,9,6 × 9,congruent,smallerFirst,1,2,54,,,,,,,,
,,,,,,,,,,,,,,,719,2022-01-25_09h15.56.084,multiplicationStroop,2021.2.3,Win32,60.0528465,,,,,,,,,,,,,,,,,,,,,,,,,,,,,,,,,18,1.649,1,0,21,21,11,1,3,×,6,3 × 6,congruent,smallerFirst,1,2,18,,,,,,,,
,,,,,,,,,,,,,,,719,2022-01-25_09h15.56.084,multiplicationStroop,2021.2.3,Win32,60.0528465,,,,,,,,,,,,,,,,,,,,,,,,,,,,,,,,,12,1.4979,1,0,22,22,2,1,3,×,4,3 × 4,congruent,smallerFirst,1,2,12,,,,,,,,
,,,,,,,,,,,,,,,719,2022-01-25_09h15.56.084,multiplicationStroop,2021.2.3,Win32,60.0528465,,,,,,,,,,,,,,,,,,,,,,,,,,,,,,,,,4,1.599,1,0,23,23,28,1,2,×,2,2 × 2,neutral,tie,2,1,4,,,,,,,,
,,,,,,,,,,,,,,,719,2022-01-25_09h15.56.084,multiplicationStroop,2021.2.3,Win32,60.0528465,,,,,,,,,,,,,,,,,,,,,,,,,,,,,,,,,14,1.6983,1,0,24,24,14,1,7,×,2,7 × 2,congruent,largerFirst,2,1,14,,,,,,,,
,,,,,,,,,,,,,,,719,2022-01-25_09h15.56.084,multiplicationStroop,2021.2.3,Win32,60.0528465,,,,,,,,,,,,,,,,,,,,,,,,,,,,,,,,,35,1.8153,1,0,25,25,1,1,5,×,7,5 × 7,congruent,smallerFirst,1,2,35,,,,,,,,
,,,,,,,,,,,,,,,719,2022-01-25_09h15.56.084,multiplicationStroop,2021.2.3,Win32,60.0528465,,,,,,,,,,,,,,,,,,,,,,,,,,,,,,,,,12,1.4988,1,0,26,26,19,1,6,×,2,6 × 2,congruent,largerFirst,2,1,12,,,,,,,,
,,,,,,,,,,,,,,,719,2022-01-25_09h15.56.084,multiplicationStroop,2021.2.3,Win32,60.0528465,,,,,,,,,,,,,,,,,,,,,,,,,,,,,,,,,81,1.5483,1,0,27,27,35,1,9,×,9,9 × 9,neutral,tie,2,1,81,,,,,,,,
,,,,,,,,,,,,,,,719,2022-01-25_09h15.56.084,multiplicationStroop,2021.2.3,Win32,60.0528465,,,,,,,,,,,,,,,,,,,,,,,,,,,,,,,,,30,1.4656,1,0,28,28,15,1,6,×,5,6 × 5,congruent,largerFirst,2,1,30,,,,,,,,
,,,,,,,,,,,,,,,719,2022-01-25_09h15.56.084,multiplicationStroop,2021.2.3,Win32,60.0528465,,,,,,,,,,,,,,,,,,,,,,,,,,,,,,,,,16,1.765,1,0,29,29,5,1,2,×,8,2 × 8,congruent,smallerFirst,1,2,16,,,,,,,,
,,,,,,,,,,,,,,,719,2022-01-25_09h15.56.084,multiplicationStroop,2021.2.3,Win32,60.0528465,,,,,,,,,,,,,,,,,,,,,,,,,,,,,,,,,24,1.6822,1,0,30,30,10,1,3,×,8,3 × 8,congruent,smallerFirst,1,2,24,,,,,,,,
,,,,,,,,,,,,,,,719,2022-01-25_09h15.56.084,multiplicationStroop,2021.2.3,Win32,60.0528465,,,,,,,,,,,,,,,,,,,,,,,,,,,,,,,,,27,1.9649,1,0,31,31,26,1,9,×,3,9 × 3,congruent,largerFirst,2,1,27,,,,,,,,
,,,,,,,,,,,,,,,719,2022-01-25_09h15.56.084,multiplicationStroop,2021.2.3,Win32,60.0528465,,,,,,,,,,,,,,,,,,,,,,,,,,,,,,,,,9,1.5151,1,0,32,32,29,1,3,×,3,3 × 3,neutral,tie,2,1,9,,,,,,,,
,,,,,,,,,,,,,,,719,2022-01-25_09h15.56.084,multiplicationStroop,2021.2.3,Win32,60.0528465,,,,,,,,,,,,,,,,,,,,,,,,,,,,,,,,,10,1.3485,1,0,33,33,24,1,5,×,2,5 × 2,congruent,largerFirst,2,1,10,,,,,,,,
,,,,,,,,,,,,,,,719,2022-01-25_09h15.56.084,multiplicationStroop,2021.2.3,Win32,60.0528465,,,,,,,,,,,,,,,,,,,,,,,,,,,,,,,,,49,1.8006,1,0,34,34,33,1,7,×,7,7 × 7,neutral,tie,2,1,49,,,,,,,,
,,,,,,,,,,,,,,,719,2022-01-25_09h15.56.084,multiplicationStroop,2021.2.3,Win32,60.0528465,,,,,,,,,,,,,,,,,,,,,,,,,,,,,,,,,63,4.6958,1,0,35,35,21,1,9,×,7,9 × 7,congruent,largerFirst,2,1,63,,,,,,,,
,,,,,,,,,,,,,,,719,2022-01-25_09h15.56.084,multiplicationStroop,2021.2.3,Win32,60.0528465,,,,,,,,,,,,,,,,,,,,,,,,,,,,,,,,,,,,,,,,,,,,,,,,,,0,5,5,2,1,stimulusFile/mult_blk3_congruent.xlsx,,
,,,,,,,,,,,,,,,719,2022-01-25_09h15.56.084,multiplicationStroop,2021.2.3,Win32,60.0528465,,,,,,,,,,,,,,,,,,,,,,,,,,,,,,,,,,,,,,,,,,,,,,,,,,,,,,,,space,7.1161