welcomeKey_resp.keys,welcomeKey_resp.rt,X Scale,Y Scale,rt_resp_4.keys,rt_resp_4.corr,rt_resp_4.rt,speedtest_2.thisRepN,speedtest_2.thisTrialN,speedtest_2.thisN,speedtest_2.thisIndex,speedtest_2.ran,numberSc,posX,positionLayout,participant,date,expName,psychopyVersion,OS,frameRate,ct_instrresp.keys,ct_instrresp.rt,key_resp_2.keys,key_resp_2.rt,ct_keyResp.keys,ct_keyResp.corr,ct_keyResp.rt,trials.thisRepN,trials.thisTrialN,trials.thisN,trials.thisIndex,trials.ran,leftNo,rightNo,displayProblem,numDistance,leftNo_size,rightNo_size,Dims,keyAnswer,TS_Loop.thisRepN,TS_Loop.thisTrialN,TS_Loop.thisN,TS_Loop.thisIndex,TS_Loop.ran,Condition,ActionInst,instrImage,mltptaskInst_resp.keys,mltptaskInst_resp.rt,continue_resp_2.keys,continue_resp_2.rt,multp_Answer,multi_RT,multiplyCorr,LoopingMultiply.thisRepN,LoopingMultiply.thisTrialN,LoopingMultiply.thisN,LoopingMultiply.thisIndex,LoopingMultiply.ran,factor1,multiplySign,factor2,multliplyProblem,physicalSize,orderOperand,sizeF1,sizeF2,mult_answer,trials_stroop.thisRepN,trials_stroop.thisTrialN,trials_stroop.thisN,trials_stroop.thisIndex,trials_stroop.ran,multiplicationFile,esckey_resp_2.keys,esckey_resp_2.rt
y,8.951,44.8,44.9,left,1,0.776,0,0,0,3,1,4,-200,left,721,2022-01-25_15h05.28,multiplicationStroop,2021.2.3,MacIntel,43.47826087,,,,,,,,,,,,,,,,,,,,,,,,,,,,,,,,,,,,,,,,,,,,,,,,,,,,,,,,,
,,,,left,1,0.387,0,1,1,1,1,2,-200,left,721,2022-01-25_15h05.28,multiplicationStroop,2021.2.3,MacIntel,43.47826087,,,,,,,,,,,,,,,,,,,,,,,,,,,,,,,,,,,,,,,,,,,,,,,,,,,,,,,,,
,,,,left,1,0.327,0,2,2,0,1,1,-200,left,721,2022-01-25_15h05.28,multiplicationStroop,2021.2.3,MacIntel,43.47826087,,,,,,,,,,,,,,,,,,,,,,,,,,,,,,,,,,,,,,,,,,,,,,,,,,,,,,,,,
,,,,right,1,0.362,0,3,3,10,1,3,200,right,721,2022-01-25_15h05.28,multiplicationStroop,2021.2.3,MacIntel,43.47826087,,,,,,,,,,,,,,,,,,,,,,,,,,,,,,,,,,,,,,,,,,,,,,,,,,,,,,,,,
,,,,left,1,0.32,0,4,4,5,1,7,-200,left,721,2022-01-25_15h05.28,multiplicationStroop,2021.2.3,MacIntel,43.47826087,,,,,,,,,,,,,,,,,,,,,,,,,,,,,,,,,,,,,,,,,,,,,,,,,,,,,,,,,
,,,,left,1,0.397,0,5,5,7,1,9,-200,left,721,2022-01-25_15h05.28,multiplicationStroop,2021.2.3,MacIntel,43.47826087,,,,,,,,,,,,,,,,,,,,,,,,,,,,,,,,,,,,,,,,,,,,,,,,,,,,,,,,,
,,,,right,1,0.319,0,6,6,9,1,2,200,right,721,2022-01-25_15h05.28,multiplicationStroop,2021.2.3,MacIntel,43.47826087,,,,,,,,,,,,,,,,,,,,,,,,,,,,,,,,,,,,,,,,,,,,,,,,,,,,,,,,,
,,,,right,1,0.369,0,7,7,15,1,9,200,right,721,2022-01-25_15h05.28,multiplicationStroop,2021.2.3,MacIntel,43.47826087,,,,,,,,,,,,,,,,,,,,,,,,,,,,,,,,,,,,,,,,,,,,,,,,,,,,,,,,,
,,,,right,1,0.33,0,8,8,14,1,8,200,right,721,2022-01-25_15h05.28,multiplicationStroop,2021.2.3,MacIntel,43.47826087,,,,,,,,,,,,,,,,,,,,,,,,,,,,,,,,,,,,,,,,,,,,,,,,,,,,,,,,,
,,,,right,1,0.345,0,9,9,13,1,7,200,right,721,2022-01-25_15h05.28,multiplicationStroop,2021.2.3,MacIntel,43.47826087,,,,,,,,,,,,,,,,,,,,,,,,,,,,,,,,,,,,,,,,,,,,,,,,,,,,,,,,,
,,,,left,1,0.383,0,10,10,2,1,3,-200,left,721,2022-01-25_15h05.28,multiplicationStroop,2021.2.3,MacIntel,43.47826087,,,,,,,,,,,,,,,,,,,,,,,,,,,,,,,,,,,,,,,,,,,,,,,,,,,,,,,,,
,,,,right,1,0.351,0,11,11,11,1,4,200,right,721,2022-01-25_15h05.28,multiplicationStroop,2021.2.3,MacIntel,43.47826087,,,,,,,,,,,,,,,,,,,,,,,,,,,,,,,,,,,,,,,,,,,,,,,,,,,,,,,,,
,,,,right,1,0.348,0,12,12,12,1,6,200,right,721,2022-01-25_15h05.28,multiplicationStroop,2021.2.3,MacIntel,43.47826087,,,,,,,,,,,,,,,,,,,,,,,,,,,,,,,,,,,,,,,,,,,,,,,,,,,,,,,,,
,,,,left,1,0.338,0,13,13,4,1,6,-200,left,721,2022-01-25_15h05.28,multiplicationStroop,2021.2.3,MacIntel,43.47826087,,,,,,,,,,,,,,,,,,,,,,,,,,,,,,,,,,,,,,,,,,,,,,,,,,,,,,,,,
,,,,left,1,0.385,0,14,14,6,1,8,-200,left,721,2022-01-25_15h05.28,multiplicationStroop,2021.2.3,MacIntel,43.47826087,,,,,,,,,,,,,,,,,,,,,,,,,,,,,,,,,,,,,,,,,,,,,,,,,,,,,,,,,
,,,,right,1,0.367,0,15,15,8,1,1,200,right,721,2022-01-25_15h05.28,multiplicationStroop,2021.2.3,MacIntel,43.47826087,,,,,,,,,,,,,,,,,,,,,,,,,,,,,,,,,,,,,,,,,,,,,,,,,,,,,,,,,
,,,,right,1,0.335,1,0,16,11,1,4,200,right,721,2022-01-25_15h05.28,multiplicationStroop,2021.2.3,MacIntel,43.47826087,,,,,,,,,,,,,,,,,,,,,,,,,,,,,,,,,,,,,,,,,,,,,,,,,,,,,,,,,
,,,,right,1,0.307,1,1,17,14,1,8,200,right,721,2022-01-25_15h05.28,multiplicationStroop,2021.2.3,MacIntel,43.47826087,,,,,,,,,,,,,,,,,,,,,,,,,,,,,,,,,,,,,,,,,,,,,,,,,,,,,,,,,
,,,,right,1,0.367,1,2,18,10,1,3,200,right,721,2022-01-25_15h05.28,multiplicationStroop,2021.2.3,MacIntel,43.47826087,,,,,,,,,,,,,,,,,,,,,,,,,,,,,,,,,,,,,,,,,,,,,,,,,,,,,,,,,
,,,,right,1,0.252,1,3,19,8,1,1,200,right,721,2022-01-25_15h05.28,multiplicationStroop,2021.2.3,MacIntel,43.47826087,,,,,,,,,,,,,,,,,,,,,,,,,,,,,,,,,,,,,,,,,,,,,,,,,,,,,,,,,
,,,,left,1,0.366,1,4,20,7,1,9,-200,left,721,2022-01-25_15h05.28,multiplicationStroop,2021.2.3,MacIntel,43.47826087,,,,,,,,,,,,,,,,,,,,,,,,,,,,,,,,,,,,,,,,,,,,,,,,,,,,,,,,,
,,,,left,1,0.338,1,5,21,3,1,4,-200,left,721,2022-01-25_15h05.28,multiplicationStroop,2021.2.3,MacIntel,43.47826087,,,,,,,,,,,,,,,,,,,,,,,,,,,,,,,,,,,,,,,,,,,,,,,,,,,,,,,,,
,,,,left,1,0.328,1,6,22,4,1,6,-200,left,721,2022-01-25_15h05.28,multiplicationStroop,2021.2.3,MacIntel,43.47826087,,,,,,,,,,,,,,,,,,,,,,,,,,,,,,,,,,,,,,,,,,,,,,,,,,,,,,,,,
,,,,left,1,0.283,1,7,23,6,1,8,-200,left,721,2022-01-25_15h05.28,multiplicationStroop,2021.2.3,MacIntel,43.47826087,,,,,,,,,,,,,,,,,,,,,,,,,,,,,,,,,,,,,,,,,,,,,,,,,,,,,,,,,
,,,,right,1,0.324,1,8,24,13,1,7,200,right,721,2022-01-25_15h05.28,multiplicationStroop,2021.2.3,MacIntel,43.47826087,,,,,,,,,,,,,,,,,,,,,,,,,,,,,,,,,,,,,,,,,,,,,,,,,,,,,,,,,
,,,,left,1,0.27,1,9,25,0,1,1,-200,left,721,2022-01-25_15h05.28,multiplicationStroop,2021.2.3,MacIntel,43.47826087,,,,,,,,,,,,,,,,,,,,,,,,,,,,,,,,,,,,,,,,,,,,,,,,,,,,,,,,,
,,,,right,1,0.315,1,10,26,9,1,2,200,right,721,2022-01-25_15h05.28,multiplicationStroop,2021.2.3,MacIntel,43.47826087,,,,,,,,,,,,,,,,,,,,,,,,,,,,,,,,,,,,,,,,,,,,,,,,,,,,,,,,,
,,,,right,1,0.369,1,11,27,15,1,9,200,right,721,2022-01-25_15h05.28,multiplicationStroop,2021.2.3,MacIntel,43.47826087,,,,,,,,,,,,,,,,,,,,,,,,,,,,,,,,,,,,,,,,,,,,,,,,,,,,,,,,,
,,,,right,0,0.252,1,12,28,1,1,2,-200,left,721,2022-01-25_15h05.28,multiplicationStroop,2021.2.3,MacIntel,43.47826087,,,,,,,,,,,,,,,,,,,,,,,,,,,,,,,,,,,,,,,,,,,,,,,,,,,,,,,,,
,,,,left,1,0.731,1,13,29,2,1,3,-200,left,721,2022-01-25_15h05.28,multiplicationStroop,2021.2.3,MacIntel,43.47826087,,,,,,,,,,,,,,,,,,,,,,,,,,,,,,,,,,,,,,,,,,,,,,,,,,,,,,,,,
,,,,left,1,0.315,1,14,30,5,1,7,-200,left,721,2022-01-25_15h05.28,multiplicationStroop,2021.2.3,MacIntel,43.47826087,,,,,,,,,,,,,,,,,,,,,,,,,,,,,,,,,,,,,,,,,,,,,,,,,,,,,,,,,
,,,,right,1,0.357,1,15,31,12,1,6,200,right,721,2022-01-25_15h05.28,multiplicationStroop,2021.2.3,MacIntel,43.47826087,,,,,,,,,,,,,,,,,,,,,,,,,,,,,,,,,,,,,,,,,,,,,,,,,,,,,,,,,
,,,,right,1,0.423,2,0,32,10,1,3,200,right,721,2022-01-25_15h05.28,multiplicationStroop,2021.2.3,MacIntel,43.47826087,,,,,,,,,,,,,,,,,,,,,,,,,,,,,,,,,,,,,,,,,,,,,,,,,,,,,,,,,
,,,,right,1,0.353,2,1,33,11,1,4,200,right,721,2022-01-25_15h05.28,multiplicationStroop,2021.2.3,MacIntel,43.47826087,,,,,,,,,,,,,,,,,,,,,,,,,,,,,,,,,,,,,,,,,,,,,,,,,,,,,,,,,
,,,,right,1,0.319,2,2,34,15,1,9,200,right,721,2022-01-25_15h05.28,multiplicationStroop,2021.2.3,MacIntel,43.47826087,,,,,,,,,,,,,,,,,,,,,,,,,,,,,,,,,,,,,,,,,,,,,,,,,,,,,,,,,
,,,,left,1,0.325,2,3,35,0,1,1,-200,left,721,2022-01-25_15h05.28,multiplicationStroop,2021.2.3,MacIntel,43.47826087,,,,,,,,,,,,,,,,,,,,,,,,,,,,,,,,,,,,,,,,,,,,,,,,,,,,,,,,,
,,,,left,1,0.36,2,4,36,5,1,7,-200,left,721,2022-01-25_15h05.28,multiplicationStroop,2021.2.3,MacIntel,43.47826087,,,,,,,,,,,,,,,,,,,,,,,,,,,,,,,,,,,,,,,,,,,,,,,,,,,,,,,,,
,,,,right,1,0.384,2,5,37,8,1,1,200,right,721,2022-01-25_15h05.28,multiplicationStroop,2021.2.3,MacIntel,43.47826087,,,,,,,,,,,,,,,,,,,,,,,,,,,,,,,,,,,,,,,,,,,,,,,,,,,,,,,,,
,,,,left,1,0.303,2,6,38,4,1,6,-200,left,721,2022-01-25_15h05.28,multiplicationStroop,2021.2.3,MacIntel,43.47826087,,,,,,,,,,,,,,,,,,,,,,,,,,,,,,,,,,,,,,,,,,,,,,,,,,,,,,,,,
,,,,right,1,0.288,2,7,39,14,1,8,200,right,721,2022-01-25_15h05.28,multiplicationStroop,2021.2.3,MacIntel,43.47826087,,,,,,,,,,,,,,,,,,,,,,,,,,,,,,,,,,,,,,,,,,,,,,,,,,,,,,,,,
,,,,left,1,0.283,2,8,40,3,1,4,-200,left,721,2022-01-25_15h05.28,multiplicationStroop,2021.2.3,MacIntel,43.47826087,,,,,,,,,,,,,,,,,,,,,,,,,,,,,,,,,,,,,,,,,,,,,,,,,,,,,,,,,
,,,,right,1,0.305,2,9,41,13,1,7,200,right,721,2022-01-25_15h05.28,multiplicationStroop,2021.2.3,MacIntel,43.47826087,,,,,,,,,,,,,,,,,,,,,,,,,,,,,,,,,,,,,,,,,,,,,,,,,,,,,,,,,
,,,,left,1,0.326,2,10,42,7,1,9,-200,left,721,2022-01-25_15h05.28,multiplicationStroop,2021.2.3,MacIntel,43.47826087,,,,,,,,,,,,,,,,,,,,,,,,,,,,,,,,,,,,,,,,,,,,,,,,,,,,,,,,,
,,,,left,1,0.388,2,11,43,1,1,2,-200,left,721,2022-01-25_15h05.28,multiplicationStroop,2021.2.3,MacIntel,43.47826087,,,,,,,,,,,,,,,,,,,,,,,,,,,,,,,,,,,,,,,,,,,,,,,,,,,,,,,,,
,,,,left,1,0.32,2,12,44,2,1,3,-200,left,721,2022-01-25_15h05.28,multiplicationStroop,2021.2.3,MacIntel,43.47826087,,,,,,,,,,,,,,,,,,,,,,,,,,,,,,,,,,,,,,,,,,,,,,,,,,,,,,,,,
,,,,left,1,0.295,2,13,45,6,1,8,-200,left,721,2022-01-25_15h05.28,multiplicationStroop,2021.2.3,MacIntel,43.47826087,,,,,,,,,,,,,,,,,,,,,,,,,,,,,,,,,,,,,,,,,,,,,,,,,,,,,,,,,
,,,,right,1,0.344,2,14,46,12,1,6,200,right,721,2022-01-25_15h05.28,multiplicationStroop,2021.2.3,MacIntel,43.47826087,,,,,,,,,,,,,,,,,,,,,,,,,,,,,,,,,,,,,,,,,,,,,,,,,,,,,,,,,
,,,,right,1,0.373,2,15,47,9,1,2,200,right,721,2022-01-25_15h05.28,multiplicationStroop,2021.2.3,MacIntel,43.47826087,,,,,,,,,,,,,,,,,,,,,,,,,,,,,,,,,,,,,,,,,,,,,,,,,,,,,,,,,
,,,,right,0,0.201,3,0,48,3,1,4,-200,left,721,2022-01-25_15h05.28,multiplicationStroop,2021.2.3,MacIntel,43.47826087,,,,,,,,,,,,,,,,,,,,,,,,,,,,,,,,,,,,,,,,,,,,,,,,,,,,,,,,,
,,,,left,1,0.564,3,1,49,1,1,2,-200,left,721,2022-01-25_15h05.28,multiplicationStroop,2021.2.3,MacIntel,43.47826087,,,,,,,,,,,,,,,,,,,,,,,,,,,,,,,,,,,,,,,,,,,,,,,,,,,,,,,,,
,,,,left,1,0.363,3,2,50,6,1,8,-200,left,721,2022-01-25_15h05.28,multiplicationStroop,2021.2.3,MacIntel,43.47826087,,,,,,,,,,,,,,,,,,,,,,,,,,,,,,,,,,,,,,,,,,,,,,,,,,,,,,,,,
,,,,right,1,0.379,3,3,51,14,1,8,200,right,721,2022-01-25_15h05.28,multiplicationStroop,2021.2.3,MacIntel,43.47826087,,,,,,,,,,,,,,,,,,,,,,,,,,,,,,,,,,,,,,,,,,,,,,,,,,,,,,,,,
,,,,left,1,0.307,3,4,52,0,1,1,-200,left,721,2022-01-25_15h05.28,multiplicationStroop,2021.2.3,MacIntel,43.47826087,,,,,,,,,,,,,,,,,,,,,,,,,,,,,,,,,,,,,,,,,,,,,,,,,,,,,,,,,
,,,,left,1,0.359,3,5,53,4,1,6,-200,left,721,2022-01-25_15h05.28,multiplicationStroop,2021.2.3,MacIntel,43.47826087,,,,,,,,,,,,,,,,,,,,,,,,,,,,,,,,,,,,,,,,,,,,,,,,,,,,,,,,,
,,,,right,1,0.369,3,6,54,10,1,3,200,right,721,2022-01-25_15h05.28,multiplicationStroop,2021.2.3,MacIntel,43.47826087,,,,,,,,,,,,,,,,,,,,,,,,,,,,,,,,,,,,,,,,,,,,,,,,,,,,,,,,,
,,,,right,1,0.584,3,7,55,9,1,2,200,right,721,2022-01-25_15h05.28,multiplicationStroop,2021.2.3,MacIntel,43.47826087,,,,,,,,,,,,,,,,,,,,,,,,,,,,,,,,,,,,,,,,,,,,,,,,,,,,,,,,,
,,,,right,1,0.335,3,8,56,15,1,9,200,right,721,2022-01-25_15h05.28,multiplicationStroop,2021.2.3,MacIntel,43.47826087,,,,,,,,,,,,,,,,,,,,,,,,,,,,,,,,,,,,,,,,,,,,,,,,,,,,,,,,,
,,,,left,1,0.353,3,9,57,7,1,9,-200,left,721,2022-01-25_15h05.28,multiplicationStroop,2021.2.3,MacIntel,43.47826087,,,,,,,,,,,,,,,,,,,,,,,,,,,,,,,,,,,,,,,,,,,,,,,,,,,,,,,,,
,,,,right,1,0.377,3,10,58,8,1,1,200,right,721,2022-01-25_15h05.28,multiplicationStroop,2021.2.3,MacIntel,43.47826087,,,,,,,,,,,,,,,,,,,,,,,,,,,,,,,,,,,,,,,,,,,,,,,,,,,,,,,,,
,,,,left,1,0.334,3,11,59,5,1,7,-200,left,721,2022-01-25_15h05.28,multiplicationStroop,2021.2.3,MacIntel,43.47826087,,,,,,,,,,,,,,,,,,,,,,,,,,,,,,,,,,,,,,,,,,,,,,,,,,,,,,,,,
,,,,left,1,0.532,3,12,60,2,1,3,-200,left,721,2022-01-25_15h05.28,multiplicationStroop,2021.2.3,MacIntel,43.47826087,,,,,,,,,,,,,,,,,,,,,,,,,,,,,,,,,,,,,,,,,,,,,,,,,,,,,,,,,
,,,,right,1,0.387,3,13,61,12,1,6,200,right,721,2022-01-25_15h05.28,multiplicationStroop,2021.2.3,MacIntel,43.47826087,,,,,,,,,,,,,,,,,,,,,,,,,,,,,,,,,,,,,,,,,,,,,,,,,,,,,,,,,
,,,,right,1,0.416,3,14,62,13,1,7,200,right,721,2022-01-25_15h05.28,multiplicationStroop,2021.2.3,MacIntel,43.47826087,,,,,,,,,,,,,,,,,,,,,,,,,,,,,,,,,,,,,,,,,,,,,,,,,,,,,,,,,
,,,,right,1,0.352,3,15,63,11,1,4,200,right,721,2022-01-25_15h05.28,multiplicationStroop,2021.2.3,MacIntel,43.47826087,,,,,,,,,,,,,,,,,,,,,,,,,,,,,,,,,,,,,,,,,,,,,,,,,,,,,,,,,
,,,,,,,,,,,,,,,721,2022-01-25_15h05.28,multiplicationStroop,2021.2.3,MacIntel,43.47826087,space,13.273,space,3.931,right,1,0.666,0,0,0,60,1,3,3,3 | 3,0,1.4111,1.9756,neutral,right,,,,,,stimulusFile/physical.xlsx,,,,,,,,,,,,,,,,,,,,,,,,,,,,,,,
,,,,,,,,,,,,,,,721,2022-01-25_15h05.28,multiplicationStroop,2021.2.3,MacIntel,43.47826087,,,,,left,1,0.779,0,1,1,33,1,2,4,2 | 4,2,1.9756,1.4111,incongruent,left,,,,,,stimulusFile/physical.xlsx,,,,,,,,,,,,,,,,,,,,,,,,,,,,,,,
,,,,,,,,,,,,,,,721,2022-01-25_15h05.28,multiplicationStroop,2021.2.3,MacIntel,43.47826087,,,,,left,1,0.551,0,2,2,49,1,3,3,3 | 3,0,1.9756,1.4111,neutral,left,,,,,,stimulusFile/physical.xlsx,,,,,,,,,,,,,,,,,,,,,,,,,,,,,,,
,,,,,,,,,,,,,,,721,2022-01-25_15h05.28,multiplicationStroop,2021.2.3,MacIntel,43.47826087,,,,,right,1,0.495,0,3,3,61,1,4,4,4 | 4,0,1.4111,1.9756,neutral,right,,,,,,stimulusFile/physical.xlsx,,,,,,,,,,,,,,,,,,,,,,,,,,,,,,,
,,,,,,,,,,,,,,,721,2022-01-25_15h05.28,multiplicationStroop,2021.2.3,MacIntel,43.47826087,,,,,left,1,0.488,0,4,4,50,1,6,6,6 | 6,0,1.9756,1.4111,neutral,left,,,,,,stimulusFile/physical.xlsx,,,,,,,,,,,,,,,,,,,,,,,,,,,,,,,
,,,,,,,,,,,,,,,721,2022-01-25_15h05.28,multiplicationStroop,2021.2.3,MacIntel,43.47826087,,,,,left,1,0.542,0,5,5,42,1,3,8,3 | 8,5,1.9756,1.4111,incongruent,left,,,,,,stimulusFile/physical.xlsx,,,,,,,,,,,,,,,,,,,,,,,,,,,,,,,
,,,,,,,,,,,,,,,721,2022-01-25_15h05.28,multiplicationStroop,2021.2.3,MacIntel,43.47826087,,,,,right,1,0.474,0,6,6,38,1,8,6,8 | 6,2,1.4111,1.9756,incongruent,right,,,,,,stimulusFile/physical.xlsx,,,,,,,,,,,,,,,,,,,,,,,,,,,,,,,
,,,,,,,,,,,,,,,721,2022-01-25_15h05.28,multiplicationStroop,2021.2.3,MacIntel,43.47826087,,,,,right,1,0.472,0,7,7,0,1,1,2,1 | 2,1,1.4111,1.9756,congruent,right,,,,,,stimulusFile/physical.xlsx,,,,,,,,,,,,,,,,,,,,,,,,,,,,,,,
,,,,,,,,,,,,,,,721,2022-01-25_15h05.28,multiplicationStroop,2021.2.3,MacIntel,43.47826087,,,,,right,1,0.542,0,8,8,10,1,6,8,6 | 8,2,1.4111,1.9756,congruent,right,,,,,,stimulusFile/physical.xlsx,,,,,,,,,,,,,,,,,,,,,,,,,,,,,,,
,,,,,,,,,,,,,,,721,2022-01-25_15h05.28,multiplicationStroop,2021.2.3,MacIntel,43.47826087,,,,,left,1,0.46,0,9,9,12,1,3,1,3 | 1,2,1.9756,1.4111,congruent,left,,,,,,stimulusFile/physical.xlsx,,,,,,,,,,,,,,,,,,,,,,,,,,,,,,,
,,,,,,,,,,,,,,,721,2022-01-25_15h05.28,multiplicationStroop,2021.2.3,MacIntel,43.47826087,,,,,right,1,0.797,0,10,10,45,1,7,2,7 | 2,5,1.4111,1.9756,incongruent,right,,,,,,stimulusFile/physical.xlsx,,,,,,,,,,,,,,,,,,,,,,,,,,,,,,,
,,,,,,,,,,,,,,,721,2022-01-25_15h05.28,multiplicationStroop,2021.2.3,MacIntel,43.47826087,,,,,right,1,0.642,0,11,11,58,1,6,6,6 | 6,0,1.4111,1.9756,neutral,right,,,,,,stimulusFile/physical.xlsx,,,,,,,,,,,,,,,,,,,,,,,,,,,,,,,
,,,,,,,,,,,,,,,721,2022-01-25_15h05.28,multiplicationStroop,2021.2.3,MacIntel,43.47826087,,,,,left,1,0.494,0,12,12,68,1,6,6,6 | 6,0,1.9756,1.4111,neutral,left,,,,,,stimulusFile/physical.xlsx,,,,,,,,,,,,,,,,,,,,,,,,,,,,,,,
,,,,,,,,,,,,,,,721,2022-01-25_15h05.28,multiplicationStroop,2021.2.3,MacIntel,43.47826087,,,,,left,1,0.44,0,13,13,26,1,6,7,6 | 7,1,1.9756,1.4111,incongruent,left,,,,,,stimulusFile/physical.xlsx,,,,,,,,,,,,,,,,,,,,,,,,,,,,,,,
,,,,,,,,,,,,,,,721,2022-01-25_15h05.28,multiplicationStroop,2021.2.3,MacIntel,43.47826087,,,,,right,1,0.441,0,14,14,29,1,4,3,4 | 3,1,1.4111,1.9756,incongruent,right,,,,,,stimulusFile/physical.xlsx,,,,,,,,,,,,,,,,,,,,,,,,,,,,,,,
,,,,,,,,,,,,,,,721,2022-01-25_15h05.28,multiplicationStroop,2021.2.3,MacIntel,43.47826087,,,,,right,1,0.54,0,15,15,37,1,4,2,4 | 2,2,1.4111,1.9756,incongruent,right,,,,,,stimulusFile/physical.xlsx,,,,,,,,,,,,,,,,,,,,,,,,,,,,,,,
,,,,,,,,,,,,,,,721,2022-01-25_15h05.28,multiplicationStroop,2021.2.3,MacIntel,43.47826087,,,,,left,1,0.424,0,16,16,20,1,6,1,6 | 1,5,1.9756,1.4111,congruent,left,,,,,,stimulusFile/physical.xlsx,,,,,,,,,,,,,,,,,,,,,,,,,,,,,,,
,,,,,,,,,,,,,,,721,2022-01-25_15h05.28,multiplicationStroop,2021.2.3,MacIntel,43.47826087,,,,,right,1,0.396,0,17,17,1,1,3,4,3 | 4,1,1.4111,1.9756,congruent,right,,,,,,stimulusFile/physical.xlsx,,,,,,,,,,,,,,,,,,,,,,,,,,,,,,,
,,,,,,,,,,,,,,,721,2022-01-25_15h05.28,multiplicationStroop,2021.2.3,MacIntel,43.47826087,,,,,left,1,0.478,0,18,18,32,1,1,3,1 | 3,2,1.9756,1.4111,incongruent,left,,,,,,stimulusFile/physical.xlsx,,,,,,,,,,,,,,,,,,,,,,,,,,,,,,,
,,,,,,,,,,,,,,,721,2022-01-25_15h05.28,multiplicationStroop,2021.2.3,MacIntel,43.47826087,,,,,left,1,0.564,0,19,19,22,1,8,3,8 | 3,5,1.9756,1.4111,congruent,left,,,,,,stimulusFile/physical.xlsx,,,,,,,,,,,,,,,,,,,,,,,,,,,,,,,
,,,,,,,,,,,,,,,721,2022-01-25_15h05.28,multiplicationStroop,2021.2.3,MacIntel,43.47826087,,,,,right,1,0.484,0,20,20,62,1,8,8,8 | 8,0,1.4111,1.9756,neutral,right,,,,,,stimulusFile/physical.xlsx,,,,,,,,,,,,,,,,,,,,,,,,,,,,,,,
,,,,,,,,,,,,,,,721,2022-01-25_15h05.28,multiplicationStroop,2021.2.3,MacIntel,43.47826087,,,,,left,1,0.521,0,21,21,7,1,9,8,9 | 8,1,1.9756,1.4111,congruent,left,,,,,,stimulusFile/physical.xlsx,,,,,,,,,,,,,,,,,,,,,,,,,,,,,,,
,,,,,,,,,,,,,,,721,2022-01-25_15h05.28,multiplicationStroop,2021.2.3,MacIntel,43.47826087,,,,,right,1,0.438,0,22,22,16,1,1,6,1 | 6,5,1.4111,1.9756,congruent,right,,,,,,stimulusFile/physical.xlsx,,,,,,,,,,,,,,,,,,,,,,,,,,,,,,,
,,,,,,,,,,,,,,,721,2022-01-25_15h05.28,multiplicationStroop,2021.2.3,MacIntel,43.47826087,,,,,left,1,0.472,0,23,23,55,1,9,9,9 | 9,0,1.9756,1.4111,neutral,left,,,,,,stimulusFile/physical.xlsx,,,,,,,,,,,,,,,,,,,,,,,,,,,,,,,
,,,,,,,,,,,,,,,721,2022-01-25_15h05.28,multiplicationStroop,2021.2.3,MacIntel,43.47826087,,,,,right,1,0.454,0,24,24,46,1,8,3,8 | 3,5,1.4111,1.9756,incongruent,right,,,,,,stimulusFile/physical.xlsx,,,,,,,,,,,,,,,,,,,,,,,,,,,,,,,
,,,,,,,,,,,,,,,721,2022-01-25_15h05.28,multiplicationStroop,2021.2.3,MacIntel,43.47826087,,,,,left,1,0.417,0,25,25,23,1,9,4,9 | 4,5,1.9756,1.4111,congruent,left,,,,,,stimulusFile/physical.xlsx,,,,,,,,,,,,,,,,,,,,,,,,,,,,,,,
,,,,,,,,,,,,,,,721,2022-01-25_15h05.28,multiplicationStroop,2021.2.3,MacIntel,43.47826087,,,,,right,0,0.394,0,26,26,43,1,4,9,4 | 9,5,1.9756,1.4111,incongruent,left,,,,,,stimulusFile/physical.xlsx,,,,,,,,,,,,,,,,,,,,,,,,,,,,,,,
,,,,,,,,,,,,,,,721,2022-01-25_15h05.28,multiplicationStroop,2021.2.3,MacIntel,43.47826087,,,,,left,1,0.856,0,27,27,24,1,1,2,1 | 2,1,1.9756,1.4111,incongruent,left,,,,,,stimulusFile/physical.xlsx,,,,,,,,,,,,,,,,,,,,,,,,,,,,,,,
,,,,,,,,,,,,,,,721,2022-01-25_15h05.28,multiplicationStroop,2021.2.3,MacIntel,43.47826087,,,,,right,0,0.568,0,28,28,69,1,7,7,7 | 7,0,1.4111,1.9756,neutral,left,,,,,,stimulusFile/physical.xlsx,,,,,,,,,,,,,,,,,,,,,,,,,,,,,,,
,,,,,,,,,,,,,,,721,2022-01-25_15h05.28,multiplicationStroop,2021.2.3,MacIntel,43.47826087,,,,,left,1,0.67,0,29,29,53,1,4,4,4 | 4,0,1.9756,1.4111,neutral,left,,,,,,stimulusFile/physical.xlsx,,,,,,,,,,,,,,,,,,,,,,,,,,,,,,,
,,,,,,,,,,,,,,,721,2022-01-25_15h05.28,multiplicationStroop,2021.2.3,MacIntel,43.47826087,,,,,left,1,0.574,0,30,30,48,1,1,1,1 | 1,0,1.9756,1.4111,neutral,left,,,,,,stimulusFile/physical.xlsx,,,,,,,,,,,,,,,,,,,,,,,,,,,,,,,
,,,,,,,,,,,,,,,721,2022-01-25_15h05.28,multiplicationStroop,2021.2.3,MacIntel,43.47826087,,,,,right,1,0.544,0,31,31,57,1,2,2,2 | 2,0,1.4111,1.9756,neutral,right,,,,,,stimulusFile/physical.xlsx,,,,,,,,,,,,,,,,,,,,,,,,,,,,,,,
,,,,,,,,,,,,,,,721,2022-01-25_15h05.28,multiplicationStroop,2021.2.3,MacIntel,43.47826087,,,,,left,1,0.565,0,32,32,35,1,7,9,7 | 9,2,1.9756,1.4111,incongruent,left,,,,,,stimulusFile/physical.xlsx,,,,,,,,,,,,,,,,,,,,,,,,,,,,,,,
,,,,,,,,,,,,,,,721,2022-01-25_15h05.28,multiplicationStroop,2021.2.3,MacIntel,43.47826087,,,,,left,1,0.601,0,33,33,13,1,4,2,4 | 2,2,1.9756,1.4111,congruent,left,,,,,,stimulusFile/physical.xlsx,,,,,,,,,,,,,,,,,,,,,,,,,,,,,,,
,,,,,,,,,,,,,,,721,2022-01-25_15h05.28,multiplicationStroop,2021.2.3,MacIntel,43.47826087,,,,,right,1,0.542,0,34,34,3,1,8,9,8 | 9,1,1.4111,1.9756,congruent,right,,,,,,stimulusFile/physical.xlsx,,,,,,,,,,,,,,,,,,,,,,,,,,,,,,,
,,,,,,,,,,,,,,,721,2022-01-25_15h05.28,multiplicationStroop,2021.2.3,MacIntel,43.47826087,,,,,left,1,0.465,0,35,35,21,1,7,2,7 | 2,5,1.9756,1.4111,congruent,left,,,,,,stimulusFile/physical.xlsx,,,,,,,,,,,,,,,,,,,,,,,,,,,,,,,
,,,,,,,,,,,,,,,721,2022-01-25_15h05.28,multiplicationStroop,2021.2.3,MacIntel,43.47826087,,,,,left,1,0.571,0,36,36,15,1,9,7,9 | 7,2,1.9756,1.4111,congruent,left,,,,,,stimulusFile/physical.xlsx,,,,,,,,,,,,,,,,,,,,,,,,,,,,,,,
,,,,,,,,,,,,,,,721,2022-01-25_15h05.28,multiplicationStroop,2021.2.3,MacIntel,43.47826087,,,,,right,1,0.491,0,37,37,47,1,9,4,9 | 4,5,1.4111,1.9756,incongruent,right,,,,,,stimulusFile/physical.xlsx,,,,,,,,,,,,,,,,,,,,,,,,,,,,,,,
,,,,,,,,,,,,,,,721,2022-01-25_15h05.28,multiplicationStroop,2021.2.3,MacIntel,43.47826087,,,,,right,1,0.567,0,38,38,19,1,4,9,4 | 9,5,1.4111,1.9756,congruent,right,,,,,,stimulusFile/physical.xlsx,,,,,,,,,,,,,,,,,,,,,,,,,,,,,,,
,,,,,,,,,,,,,,,721,2022-01-25_15h05.28,multiplicationStroop,2021.2.3,MacIntel,43.47826087,,,,,right,1,0.637,0,39,39,17,1,2,7,2 | 7,5,1.4111,1.9756,congruent,right,,,,,,stimulusFile/physical.xlsx,,,,,,,,,,,,,,,,,,,,,,,,,,,,,,,
,,,,,,,,,,,,,,,721,2022-01-25_15h05.28,multiplicationStroop,2021.2.3,MacIntel,43.47826087,,,,,left,1,0.55,0,40,40,40,1,1,6,1 | 6,5,1.9756,1.4111,incongruent,left,,,,,,stimulusFile/physical.xlsx,,,,,,,,,,,,,,,,,,,,,,,,,,,,,,,
,,,,,,,,,,,,,,,721,2022-01-25_15h05.28,multiplicationStroop,2021.2.3,MacIntel,43.47826087,,,,,left,1,0.554,0,41,41,34,1,6,8,6 | 8,2,1.9756,1.4111,incongruent,left,,,,,,stimulusFile/physical.xlsx,,,,,,,,,,,,,,,,,,,,,,,,,,,,,,,
,,,,,,,,,,,,,,,721,2022-01-25_15h05.28,multiplicationStroop,2021.2.3,MacIntel,43.47826087,,,,,right,1,0.464,0,42,42,36,1,3,1,3 | 1,2,1.4111,1.9756,incongruent,right,,,,,,stimulusFile/physical.xlsx,,,,,,,,,,,,,,,,,,,,,,,,,,,,,,,
,,,,,,,,,,,,,,,721,2022-01-25_15h05.28,multiplicationStroop,2021.2.3,MacIntel,43.47826087,,,,,left,1,0.442,0,43,43,27,1,8,9,8 | 9,1,1.9756,1.4111,incongruent,left,,,,,,stimulusFile/physical.xlsx,,,,,,,,,,,,,,,,,,,,,,,,,,,,,,,
,,,,,,,,,,,,,,,721,2022-01-25_15h05.28,multiplicationStroop,2021.2.3,MacIntel,43.47826087,,,,,right,1,0.535,0,44,44,63,1,9,9,9 | 9,0,1.4111,1.9756,neutral,right,,,,,,stimulusFile/physical.xlsx,,,,,,,,,,,,,,,,,,,,,,,,,,,,,,,
,,,,,,,,,,,,,,,721,2022-01-25_15h05.28,multiplicationStroop,2021.2.3,MacIntel,43.47826087,,,,,right,1,0.537,0,45,45,39,1,9,7,9 | 7,2,1.4111,1.9756,incongruent,right,,,,,,stimulusFile/physical.xlsx,,,,,,,,,,,,,,,,,,,,,,,,,,,,,,,
,,,,,,,,,,,,,,,721,2022-01-25_15h05.28,multiplicationStroop,2021.2.3,MacIntel,43.47826087,,,,,right,1,0.461,0,46,46,2,1,6,7,6 | 7,1,1.4111,1.9756,congruent,right,,,,,,stimulusFile/physical.xlsx,,,,,,,,,,,,,,,,,,,,,,,,,,,,,,,
,,,,,,,,,,,,,,,721,2022-01-25_15h05.28,multiplicationStroop,2021.2.3,MacIntel,43.47826087,,,,,right,1,0.594,0,47,47,9,1,2,4,2 | 4,2,1.4111,1.9756,congruent,right,,,,,,stimulusFile/physical.xlsx,,,,,,,,,,,,,,,,,,,,,,,,,,,,,,,
,,,,,,,,,,,,,,,721,2022-01-25_15h05.28,multiplicationStroop,2021.2.3,MacIntel,43.47826087,,,,,right,1,0.593,0,48,48,44,1,6,1,6 | 1,5,1.4111,1.9756,incongruent,right,,,,,,stimulusFile/physical.xlsx,,,,,,,,,,,,,,,,,,,,,,,,,,,,,,,
,,,,,,,,,,,,,,,721,2022-01-25_15h05.28,multiplicationStroop,2021.2.3,MacIntel,43.47826087,,,,,left,1,0.495,0,49,49,51,1,8,8,8 | 8,0,1.9756,1.4111,neutral,left,,,,,,stimulusFile/physical.xlsx,,,,,,,,,,,,,,,,,,,,,,,,,,,,,,,
,,,,,,,,,,,,,,,721,2022-01-25_15h05.28,multiplicationStroop,2021.2.3,MacIntel,43.47826087,,,,,left,1,0.731,0,50,50,25,1,3,4,3 | 4,1,1.9756,1.4111,incongruent,left,,,,,,stimulusFile/physical.xlsx,,,,,,,,,,,,,,,,,,,,,,,,,,,,,,,
,,,,,,,,,,,,,,,721,2022-01-25_15h05.28,multiplicationStroop,2021.2.3,MacIntel,43.47826087,,,,,left,1,0.836,0,51,51,70,1,8,8,8 | 8,0,1.9756,1.4111,neutral,left,,,,,,stimulusFile/physical.xlsx,,,,,,,,,,,,,,,,,,,,,,,,,,,,,,,
,,,,,,,,,,,,,,,721,2022-01-25_15h05.28,multiplicationStroop,2021.2.3,MacIntel,43.47826087,,,,,right,1,0.53,0,52,52,65,1,2,2,2 | 2,0,1.4111,1.9756,neutral,right,,,,,,stimulusFile/physical.xlsx,,,,,,,,,,,,,,,,,,,,,,,,,,,,,,,
,,,,,,,,,,,,,,,721,2022-01-25_15h05.28,multiplicationStroop,2021.2.3,MacIntel,43.47826087,,,,,right,1,0.527,0,53,53,30,1,7,6,7 | 6,1,1.4111,1.9756,incongruent,right,,,,,,stimulusFile/physical.xlsx,,,,,,,,,,,,,,,,,,,,,,,,,,,,,,,
,,,,,,,,,,,,,,,721,2022-01-25_15h05.28,multiplicationStroop,2021.2.3,MacIntel,43.47826087,,,,,left,1,0.493,0,54,54,4,1,2,1,2 | 1,1,1.9756,1.4111,congruent,left,,,,,,stimulusFile/physical.xlsx,,,,,,,,,,,,,,,,,,,,,,,,,,,,,,,
,,,,,,,,,,,,,,,721,2022-01-25_15h05.28,multiplicationStroop,2021.2.3,MacIntel,43.47826087,,,,,left,1,0.642,0,55,55,6,1,7,6,7 | 6,1,1.9756,1.4111,congruent,left,,,,,,stimulusFile/physical.xlsx,,,,,,,,,,,,,,,,,,,,,,,,,,,,,,,
,,,,,,,,,,,,,,,721,2022-01-25_15h05.28,multiplicationStroop,2021.2.3,MacIntel,43.47826087,,,,,right,1,0.462,0,56,56,59,1,7,7,7 | 7,0,1.4111,1.9756,neutral,right,,,,,,stimulusFile/physical.xlsx,,,,,,,,,,,,,,,,,,,,,,,,,,,,,,,
,,,,,,,,,,,,,,,721,2022-01-25_15h05.28,multiplicationStroop,2021.2.3,MacIntel,43.47826087,,,,,right,1,0.538,0,57,57,8,1,1,3,1 | 3,2,1.4111,1.9756,congruent,right,,,,,,stimulusFile/physical.xlsx,,,,,,,,,,,,,,,,,,,,,,,,,,,,,,,
,,,,,,,,,,,,,,,721,2022-01-25_15h05.28,multiplicationStroop,2021.2.3,MacIntel,43.47826087,,,,,right,1,0.372,0,58,58,67,1,4,4,4 | 4,0,1.4111,1.9756,neutral,right,,,,,,stimulusFile/physical.xlsx,,,,,,,,,,,,,,,,,,,,,,,,,,,,,,,
,,,,,,,,,,,,,,,721,2022-01-25_15h05.28,multiplicationStroop,2021.2.3,MacIntel,43.47826087,,,,,left,1,0.489,0,59,59,54,1,7,7,7 | 7,0,1.9756,1.4111,neutral,left,,,,,,stimulusFile/physical.xlsx,,,,,,,,,,,,,,,,,,,,,,,,,,,,,,,
,,,,,,,,,,,,,,,721,2022-01-25_15h05.28,multiplicationStroop,2021.2.3,MacIntel,43.47826087,,,,,left,1,0.454,0,60,60,52,1,2,2,2 | 2,0,1.9756,1.4111,neutral,left,,,,,,stimulusFile/physical.xlsx,,,,,,,,,,,,,,,,,,,,,,,,,,,,,,,
,,,,,,,,,,,,,,,721,2022-01-25_15h05.28,multiplicationStroop,2021.2.3,MacIntel,43.47826087,,,,,right,1,0.411,0,61,61,18,1,3,8,3 | 8,5,1.4111,1.9756,congruent,right,,,,,,stimulusFile/physical.xlsx,,,,,,,,,,,,,,,,,,,,,,,,,,,,,,,
,,,,,,,,,,,,,,,721,2022-01-25_15h05.28,multiplicationStroop,2021.2.3,MacIntel,43.47826087,,,,,left,1,0.622,0,62,62,5,1,4,3,4 | 3,1,1.9756,1.4111,congruent,left,,,,,,stimulusFile/physical.xlsx,,,,,,,,,,,,,,,,,,,,,,,,,,,,,,,
,,,,,,,,,,,,,,,721,2022-01-25_15h05.28,multiplicationStroop,2021.2.3,MacIntel,43.47826087,,,,,right,1,0.555,0,63,63,56,1,1,1,1 | 1,0,1.4111,1.9756,neutral,right,,,,,,stimulusFile/physical.xlsx,,,,,,,,,,,,,,,,,,,,,,,,,,,,,,,
,,,,,,,,,,,,,,,721,2022-01-25_15h05.28,multiplicationStroop,2021.2.3,MacIntel,43.47826087,,,,,right,1,0.679,0,64,64,31,1,9,8,9 | 8,1,1.4111,1.9756,incongruent,right,,,,,,stimulusFile/physical.xlsx,,,,,,,,,,,,,,,,,,,,,,,,,,,,,,,
,,,,,,,,,,,,,,,721,2022-01-25_15h05.28,multiplicationStroop,2021.2.3,MacIntel,43.47826087,,,,,right,0,0.374,0,65,65,71,1,9,9,9 | 9,0,1.4111,1.9756,neutral,left,,,,,,stimulusFile/physical.xlsx,,,,,,,,,,,,,,,,,,,,,,,,,,,,,,,
,,,,,,,,,,,,,,,721,2022-01-25_15h05.28,multiplicationStroop,2021.2.3,MacIntel,43.47826087,,,,,left,1,0.406,0,66,66,14,1,8,6,8 | 6,2,1.9756,1.4111,congruent,left,,,,,,stimulusFile/physical.xlsx,,,,,,,,,,,,,,,,,,,,,,,,,,,,,,,
,,,,,,,,,,,,,,,721,2022-01-25_15h05.28,multiplicationStroop,2021.2.3,MacIntel,43.47826087,,,,,left,1,0.447,0,67,67,41,1,2,7,2 | 7,5,1.9756,1.4111,incongruent,left,,,,,,stimulusFile/physical.xlsx,,,,,,,,,,,,,,,,,,,,,,,,,,,,,,,
,,,,,,,,,,,,,,,721,2022-01-25_15h05.28,multiplicationStroop,2021.2.3,MacIntel,43.47826087,,,,,right,1,0.486,0,68,68,28,1,2,1,2 | 1,1,1.4111,1.9756,incongruent,right,,,,,,stimulusFile/physical.xlsx,,,,,,,,,,,,,,,,,,,,,,,,,,,,,,,
,,,,,,,,,,,,,,,721,2022-01-25_15h05.28,multiplicationStroop,2021.2.3,MacIntel,43.47826087,,,,,left,0,0.456,0,69,69,64,1,1,1,1 | 1,0,1.9756,1.4111,neutral,right,,,,,,stimulusFile/physical.xlsx,,,,,,,,,,,,,,,,,,,,,,,,,,,,,,,
,,,,,,,,,,,,,,,721,2022-01-25_15h05.28,multiplicationStroop,2021.2.3,MacIntel,43.47826087,,,,,right,1,0.488,0,70,70,11,1,7,9,7 | 9,2,1.4111,1.9756,congruent,right,,,,,,stimulusFile/physical.xlsx,,,,,,,,,,,,,,,,,,,,,,,,,,,,,,,
,,,,,,,,,,,,,,,721,2022-01-25_15h05.28,multiplicationStroop,2021.2.3,MacIntel,43.47826087,,,,,left,0,0.73,0,71,71,66,1,3,3,3 | 3,0,1.9756,1.4111,neutral,right,,,,,,stimulusFile/physical.xlsx,,,,,,,,,,,,,,,,,,,,,,,,,,,,,,,
,,,,,,,,,,,,,,,721,2022-01-25_15h05.28,multiplicationStroop,2021.2.3,MacIntel,43.47826087,,,,,,,,,,,,,,,,,,,,,0,0,0,1,1,stimulusFile/physical.xlsx,PHYSICALLY larger (larger font size).,images/physicallyLarger.png,,,,,,,,,,,,,,,,,,,,,,,,,,,,,
,,,,,,,,,,,,,,,721,2022-01-25_15h05.28,multiplicationStroop,2021.2.3,MacIntel,43.47826087,space,2.325,space,7.422,left,1,0.857,0,0,0,60,1,3,1,3 | 1,2,1.6933,1.6933,neutral,left,,,,,,stimulusFile/magnitude.xlsx,,,,,,,,,,,,,,,,,,,,,,,,,,,,,,,
,,,,,,,,,,,,,,,721,2022-01-25_15h05.28,multiplicationStroop,2021.2.3,MacIntel,43.47826087,,,,,right,1,0.697,0,1,1,43,1,4,9,4 | 9,5,1.9756,1.4111,incongruent,right,,,,,,stimulusFile/magnitude.xlsx,,,,,,,,,,,,,,,,,,,,,,,,,,,,,,,
,,,,,,,,,,,,,,,721,2022-01-25_15h05.28,multiplicationStroop,2021.2.3,MacIntel,43.47826087,,,,,left,1,0.702,0,2,2,47,1,9,4,9 | 4,5,1.4111,1.9756,incongruent,left,,,,,,stimulusFile/magnitude.xlsx,,,,,,,,,,,,,,,,,,,,,,,,,,,,,,,
,,,,,,,,,,,,,,,721,2022-01-25_15h05.28,multiplicationStroop,2021.2.3,MacIntel,43.47826087,,,,,right,1,0.539,0,3,3,16,1,1,6,1 | 6,5,1.4111,1.9756,congruent,right,,,,,,stimulusFile/magnitude.xlsx,,,,,,,,,,,,,,,,,,,,,,,,,,,,,,,
,,,,,,,,,,,,,,,721,2022-01-25_15h05.28,multiplicationStroop,2021.2.3,MacIntel,43.47826087,,,,,left,1,0.745,0,4,4,37,1,4,2,4 | 2,2,1.4111,1.9756,incongruent,left,,,,,,stimulusFile/magnitude.xlsx,,,,,,,,,,,,,,,,,,,,,,,,,,,,,,,
,,,,,,,,,,,,,,,721,2022-01-25_15h05.28,multiplicationStroop,2021.2.3,MacIntel,43.47826087,,,,,left,1,0.475,0,5,5,68,1,6,1,6 | 1,5,1.6933,1.6933,neutral,left,,,,,,stimulusFile/magnitude.xlsx,,,,,,,,,,,,,,,,,,,,,,,,,,,,,,,
,,,,,,,,,,,,,,,721,2022-01-25_15h05.28,multiplicationStroop,2021.2.3,MacIntel,43.47826087,,,,,left,1,0.76,0,6,6,15,1,9,7,9 | 7,2,1.9756,1.4111,congruent,left,,,,,,stimulusFile/magnitude.xlsx,,,,,,,,,,,,,,,,,,,,,,,,,,,,,,,
,,,,,,,,,,,,,,,721,2022-01-25_15h05.28,multiplicationStroop,2021.2.3,MacIntel,43.47826087,,,,,right,1,0.728,0,7,7,41,1,2,7,2 | 7,5,1.9756,1.4111,incongruent,right,,,,,,stimulusFile/magnitude.xlsx,,,,,,,,,,,,,,,,,,,,,,,,,,,,,,,
,,,,,,,,,,,,,,,721,2022-01-25_15h05.28,multiplicationStroop,2021.2.3,MacIntel,43.47826087,,,,,right,1,0.701,0,8,8,27,1,8,9,8 | 9,1,1.9756,1.4111,incongruent,right,,,,,,stimulusFile/magnitude.xlsx,,,,,,,,,,,,,,,,,,,,,,,,,,,,,,,
,,,,,,,,,,,,,,,721,2022-01-25_15h05.28,multiplicationStroop,2021.2.3,MacIntel,43.47826087,,,,,left,1,0.792,0,9,9,12,1,3,1,3 | 1,2,1.9756,1.4111,congruent,left,,,,,,stimulusFile/magnitude.xlsx,,,,,,,,,,,,,,,,,,,,,,,,,,,,,,,
,,,,,,,,,,,,,,,721,2022-01-25_15h05.28,multiplicationStroop,2021.2.3,MacIntel,43.47826087,,,,,right,1,0.563,0,10,10,9,1,2,4,2 | 4,2,1.4111,1.9756,congruent,right,,,,,,stimulusFile/magnitude.xlsx,,,,,,,,,,,,,,,,,,,,,,,,,,,,,,,
,,,,,,,,,,,,,,,721,2022-01-25_15h05.28,multiplicationStroop,2021.2.3,MacIntel,43.47826087,,,,,left,1,0.553,0,11,11,28,1,2,1,2 | 1,1,1.4111,1.9756,incongruent,left,,,,,,stimulusFile/magnitude.xlsx,,,,,,,,,,,,,,,,,,,,,,,,,,,,,,,
,,,,,,,,,,,,,,,721,2022-01-25_15h05.28,multiplicationStroop,2021.2.3,MacIntel,43.47826087,,,,,right,1,0.813,0,12,12,59,1,7,9,7 | 9,2,1.6933,1.6933,neutral,right,,,,,,stimulusFile/magnitude.xlsx,,,,,,,,,,,,,,,,,,,,,,,,,,,,,,,
,,,,,,,,,,,,,,,721,2022-01-25_15h05.28,multiplicationStroop,2021.2.3,MacIntel,43.47826087,,,,,left,1,0.55,0,13,13,36,1,3,1,3 | 1,2,1.4111,1.9756,incongruent,left,,,,,,stimulusFile/magnitude.xlsx,,,,,,,,,,,,,,,,,,,,,,,,,,,,,,,
,,,,,,,,,,,,,,,721,2022-01-25_15h05.28,multiplicationStroop,2021.2.3,MacIntel,43.47826087,,,,,left,1,0.577,0,14,14,61,1,4,2,4 | 2,2,1.6933,1.6933,neutral,left,,,,,,stimulusFile/magnitude.xlsx,,,,,,,,,,,,,,,,,,,,,,,,,,,,,,,
,,,,,,,,,,,,,,,721,2022-01-25_15h05.28,multiplicationStroop,2021.2.3,MacIntel,43.47826087,,,,,right,1,0.601,0,15,15,18,1,3,8,3 | 8,5,1.4111,1.9756,congruent,right,,,,,,stimulusFile/magnitude.xlsx,,,,,,,,,,,,,,,,,,,,,,,,,,,,,,,
,,,,,,,,,,,,,,,721,2022-01-25_15h05.28,multiplicationStroop,2021.2.3,MacIntel,43.47826087,,,,,right,1,0.676,0,16,16,2,1,6,7,6 | 7,1,1.4111,1.9756,congruent,right,,,,,,stimulusFile/magnitude.xlsx,,,,,,,,,,,,,,,,,,,,,,,,,,,,,,,
,,,,,,,,,,,,,,,721,2022-01-25_15h05.28,multiplicationStroop,2021.2.3,MacIntel,43.47826087,,,,,left,1,0.515,0,17,17,69,1,7,2,7 | 2,5,1.6933,1.6933,neutral,left,,,,,,stimulusFile/magnitude.xlsx,,,,,,,,,,,,,,,,,,,,,,,,,,,,,,,
,,,,,,,,,,,,,,,721,2022-01-25_15h05.28,multiplicationStroop,2021.2.3,MacIntel,43.47826087,,,,,right,1,0.693,0,18,18,25,1,3,4,3 | 4,1,1.9756,1.4111,incongruent,right,,,,,,stimulusFile/magnitude.xlsx,,,,,,,,,,,,,,,,,,,,,,,,,,,,,,,
,,,,,,,,,,,,,,,721,2022-01-25_15h05.28,multiplicationStroop,2021.2.3,MacIntel,43.47826087,,,,,left,1,0.476,0,19,19,5,1,4,3,4 | 3,1,1.9756,1.4111,congruent,left,,,,,,stimulusFile/magnitude.xlsx,,,,,,,,,,,,,,,,,,,,,,,,,,,,,,,
,,,,,,,,,,,,,,,721,2022-01-25_15h05.28,multiplicationStroop,2021.2.3,MacIntel,43.47826087,,,,,right,1,0.504,0,20,20,8,1,1,3,1 | 3,2,1.4111,1.9756,congruent,right,,,,,,stimulusFile/magnitude.xlsx,,,,,,,,,,,,,,,,,,,,,,,,,,,,,,,
,,,,,,,,,,,,,,,721,2022-01-25_15h05.28,multiplicationStroop,2021.2.3,MacIntel,43.47826087,,,,,right,1,0.647,0,21,21,17,1,2,7,2 | 7,5,1.4111,1.9756,congruent,right,,,,,,stimulusFile/magnitude.xlsx,,,,,,,,,,,,,,,,,,,,,,,,,,,,,,,
,,,,,,,,,,,,,,,721,2022-01-25_15h05.28,multiplicationStroop,2021.2.3,MacIntel,43.47826087,,,,,right,1,0.586,0,22,22,11,1,7,9,7 | 9,2,1.4111,1.9756,congruent,right,,,,,,stimulusFile/magnitude.xlsx,,,,,,,,,,,,,,,,,,,,,,,,,,,,,,,
,,,,,,,,,,,,,,,721,2022-01-25_15h05.28,multiplicationStroop,2021.2.3,MacIntel,43.47826087,,,,,right,1,0.636,0,23,23,56,1,1,3,1 | 3,2,1.6933,1.6933,neutral,right,,,,,,stimulusFile/magnitude.xlsx,,,,,,,,,,,,,,,,,,,,,,,,,,,,,,,
,,,,,,,,,,,,,,,721,2022-01-25_15h05.28,multiplicationStroop,2021.2.3,MacIntel,43.47826087,,,,,left,1,0.6,0,24,24,45,1,7,2,7 | 2,5,1.4111,1.9756,incongruent,left,,,,,,stimulusFile/magnitude.xlsx,,,,,,,,,,,,,,,,,,,,,,,,,,,,,,,
,,,,,,,,,,,,,,,721,2022-01-25_15h05.28,multiplicationStroop,2021.2.3,MacIntel,43.47826087,,,,,right,1,0.575,0,25,25,48,1,1,2,1 | 2,1,1.6933,1.6933,neutral,right,,,,,,stimulusFile/magnitude.xlsx,,,,,,,,,,,,,,,,,,,,,,,,,,,,,,,
,,,,,,,,,,,,,,,721,2022-01-25_15h05.28,multiplicationStroop,2021.2.3,MacIntel,43.47826087,,,,,right,1,0.62,0,26,26,19,1,4,9,4 | 9,5,1.4111,1.9756,congruent,right,,,,,,stimulusFile/magnitude.xlsx,,,,,,,,,,,,,,,,,,,,,,,,,,,,,,,
,,,,,,,,,,,,,,,721,2022-01-25_15h05.28,multiplicationStroop,2021.2.3,MacIntel,43.47826087,,,,,right,1,0.514,0,27,27,64,1,1,6,1 | 6,5,1.6933,1.6933,neutral,right,,,,,,stimulusFile/magnitude.xlsx,,,,,,,,,,,,,,,,,,,,,,,,,,,,,,,
,,,,,,,,,,,,,,,721,2022-01-25_15h05.28,multiplicationStroop,2021.2.3,MacIntel,43.47826087,,,,,left,1,0.572,0,28,28,53,1,4,3,4 | 3,1,1.6933,1.6933,neutral,left,,,,,,stimulusFile/magnitude.xlsx,,,,,,,,,,,,,,,,,,,,,,,,,,,,,,,
,,,,,,,,,,,,,,,721,2022-01-25_15h05.28,multiplicationStroop,2021.2.3,MacIntel,43.47826087,,,,,right,1,0.57,0,29,29,51,1,8,9,8 | 9,1,1.6933,1.6933,neutral,right,,,,,,stimulusFile/magnitude.xlsx,,,,,,,,,,,,,,,,,,,,,,,,,,,,,,,
,,,,,,,,,,,,,,,721,2022-01-25_15h05.28,multiplicationStroop,2021.2.3,MacIntel,43.47826087,,,,,right,1,0.595,0,30,30,67,1,4,9,4 | 9,5,1.6933,1.6933,neutral,right,,,,,,stimulusFile/magnitude.xlsx,,,,,,,,,,,,,,,,,,,,,,,,,,,,,,,
,,,,,,,,,,,,,,,721,2022-01-25_15h05.28,multiplicationStroop,2021.2.3,MacIntel,43.47826087,,,,,right,1,0.737,0,31,31,34,1,6,8,6 | 8,2,1.9756,1.4111,incongruent,right,,,,,,stimulusFile/magnitude.xlsx,,,,,,,,,,,,,,,,,,,,,,,,,,,,,,,
,,,,,,,,,,,,,,,721,2022-01-25_15h05.28,multiplicationStroop,2021.2.3,MacIntel,43.47826087,,,,,left,1,0.629,0,32,32,62,1,8,6,8 | 6,2,1.6933,1.6933,neutral,left,,,,,,stimulusFile/magnitude.xlsx,,,,,,,,,,,,,,,,,,,,,,,,,,,,,,,
,,,,,,,,,,,,,,,721,2022-01-25_15h05.28,multiplicationStroop,2021.2.3,MacIntel,43.47826087,,,,,right,0,0.493,0,33,33,39,1,9,7,9 | 7,2,1.4111,1.9756,incongruent,left,,,,,,stimulusFile/magnitude.xlsx,,,,,,,,,,,,,,,,,,,,,,,,,,,,,,,
,,,,,,,,,,,,,,,721,2022-01-25_15h05.28,multiplicationStroop,2021.2.3,MacIntel,43.47826087,,,,,left,1,0.69,0,34,34,46,1,8,3,8 | 3,5,1.4111,1.9756,incongruent,left,,,,,,stimulusFile/magnitude.xlsx,,,,,,,,,,,,,,,,,,,,,,,,,,,,,,,
,,,,,,,,,,,,,,,721,2022-01-25_15h05.28,multiplicationStroop,2021.2.3,MacIntel,43.47826087,,,,,right,1,0.611,0,35,35,1,1,3,4,3 | 4,1,1.4111,1.9756,congruent,right,,,,,,stimulusFile/magnitude.xlsx,,,,,,,,,,,,,,,,,,,,,,,,,,,,,,,
,,,,,,,,,,,,,,,721,2022-01-25_15h05.28,multiplicationStroop,2021.2.3,MacIntel,43.47826087,,,,,right,1,0.796,0,36,36,24,1,1,2,1 | 2,1,1.9756,1.4111,incongruent,right,,,,,,stimulusFile/magnitude.xlsx,,,,,,,,,,,,,,,,,,,,,,,,,,,,,,,
,,,,,,,,,,,,,,,721,2022-01-25_15h05.28,multiplicationStroop,2021.2.3,MacIntel,43.47826087,,,,,left,1,0.691,0,37,37,29,1,4,3,4 | 3,1,1.4111,1.9756,incongruent,left,,,,,,stimulusFile/magnitude.xlsx,,,,,,,,,,,,,,,,,,,,,,,,,,,,,,,
,,,,,,,,,,,,,,,721,2022-01-25_15h05.28,multiplicationStroop,2021.2.3,MacIntel,43.47826087,,,,,right,1,0.548,0,38,38,0,1,1,2,1 | 2,1,1.4111,1.9756,congruent,right,,,,,,stimulusFile/magnitude.xlsx,,,,,,,,,,,,,,,,,,,,,,,,,,,,,,,
,,,,,,,,,,,,,,,721,2022-01-25_15h05.28,multiplicationStroop,2021.2.3,MacIntel,43.47826087,,,,,right,1,0.683,0,39,39,40,1,1,6,1 | 6,5,1.9756,1.4111,incongruent,right,,,,,,stimulusFile/magnitude.xlsx,,,,,,,,,,,,,,,,,,,,,,,,,,,,,,,
,,,,,,,,,,,,,,,721,2022-01-25_15h05.28,multiplicationStroop,2021.2.3,MacIntel,43.47826087,,,,,right,1,0.692,0,40,40,33,1,2,4,2 | 4,2,1.9756,1.4111,incongruent,right,,,,,,stimulusFile/magnitude.xlsx,,,,,,,,,,,,,,,,,,,,,,,,,,,,,,,
,,,,,,,,,,,,,,,721,2022-01-25_15h05.28,multiplicationStroop,2021.2.3,MacIntel,43.47826087,,,,,right,1,1.127,0,41,41,58,1,6,8,6 | 8,2,1.6933,1.6933,neutral,right,,,,,,stimulusFile/magnitude.xlsx,,,,,,,,,,,,,,,,,,,,,,,,,,,,,,,
,,,,,,,,,,,,,,,721,2022-01-25_15h05.28,multiplicationStroop,2021.2.3,MacIntel,43.47826087,,,,,left,1,0.476,0,42,42,23,1,9,4,9 | 4,5,1.9756,1.4111,congruent,left,,,,,,stimulusFile/magnitude.xlsx,,,,,,,,,,,,,,,,,,,,,,,,,,,,,,,
,,,,,,,,,,,,,,,721,2022-01-25_15h05.28,multiplicationStroop,2021.2.3,MacIntel,43.47826087,,,,,right,1,0.527,0,43,43,66,1,3,8,3 | 8,5,1.6933,1.6933,neutral,right,,,,,,stimulusFile/magnitude.xlsx,,,,,,,,,,,,,,,,,,,,,,,,,,,,,,,
,,,,,,,,,,,,,,,721,2022-01-25_15h05.28,multiplicationStroop,2021.2.3,MacIntel,43.47826087,,,,,left,1,0.616,0,44,44,6,1,7,6,7 | 6,1,1.9756,1.4111,congruent,left,,,,,,stimulusFile/magnitude.xlsx,,,,,,,,,,,,,,,,,,,,,,,,,,,,,,,
,,,,,,,,,,,,,,,721,2022-01-25_15h05.28,multiplicationStroop,2021.2.3,MacIntel,43.47826087,,,,,right,1,0.579,0,45,45,42,1,3,8,3 | 8,5,1.9756,1.4111,incongruent,right,,,,,,stimulusFile/magnitude.xlsx,,,,,,,,,,,,,,,,,,,,,,,,,,,,,,,
,,,,,,,,,,,,,,,721,2022-01-25_15h05.28,multiplicationStroop,2021.2.3,MacIntel,43.47826087,,,,,right,1,0.58,0,46,46,35,1,7,9,7 | 9,2,1.9756,1.4111,incongruent,right,,,,,,stimulusFile/magnitude.xlsx,,,,,,,,,,,,,,,,,,,,,,,,,,,,,,,
,,,,,,,,,,,,,,,721,2022-01-25_15h05.28,multiplicationStroop,2021.2.3,MacIntel,43.47826087,,,,,left,1,0.507,0,47,47,70,1,8,3,8 | 3,5,1.6933,1.6933,neutral,left,,,,,,stimulusFile/magnitude.xlsx,,,,,,,,,,,,,,,,,,,,,,,,,,,,,,,
,,,,,,,,,,,,,,,721,2022-01-25_15h05.28,multiplicationStroop,2021.2.3,MacIntel,43.47826087,,,,,left,1,0.497,0,48,48,14,1,8,6,8 | 6,2,1.9756,1.4111,congruent,left,,,,,,stimulusFile/magnitude.xlsx,,,,,,,,,,,,,,,,,,,,,,,,,,,,,,,
,,,,,,,,,,,,,,,721,2022-01-25_15h05.28,multiplicationStroop,2021.2.3,MacIntel,43.47826087,,,,,left,1,0.56,0,49,49,4,1,2,1,2 | 1,1,1.9756,1.4111,congruent,left,,,,,,stimulusFile/magnitude.xlsx,,,,,,,,,,,,,,,,,,,,,,,,,,,,,,,
,,,,,,,,,,,,,,,721,2022-01-25_15h05.28,multiplicationStroop,2021.2.3,MacIntel,43.47826087,,,,,left,1,0.764,0,50,50,38,1,8,6,8 | 6,2,1.4111,1.9756,incongruent,left,,,,,,stimulusFile/magnitude.xlsx,,,,,,,,,,,,,,,,,,,,,,,,,,,,,,,
,,,,,,,,,,,,,,,721,2022-01-25_15h05.28,multiplicationStroop,2021.2.3,MacIntel,43.47826087,,,,,left,1,0.674,0,51,51,7,1,9,8,9 | 8,1,1.9756,1.4111,congruent,left,,,,,,stimulusFile/magnitude.xlsx,,,,,,,,,,,,,,,,,,,,,,,,,,,,,,,
,,,,,,,,,,,,,,,721,2022-01-25_15h05.28,multiplicationStroop,2021.2.3,MacIntel,43.47826087,,,,,left,1,0.57,0,52,52,13,1,4,2,4 | 2,2,1.9756,1.4111,congruent,left,,,,,,stimulusFile/magnitude.xlsx,,,,,,,,,,,,,,,,,,,,,,,,,,,,,,,
,,,,,,,,,,,,,,,721,2022-01-25_15h05.28,multiplicationStroop,2021.2.3,MacIntel,43.47826087,,,,,left,1,0.664,0,53,53,55,1,9,8,9 | 8,1,1.6933,1.6933,neutral,left,,,,,,stimulusFile/magnitude.xlsx,,,,,,,,,,,,,,,,,,,,,,,,,,,,,,,
,,,,,,,,,,,,,,,721,2022-01-25_15h05.28,multiplicationStroop,2021.2.3,MacIntel,43.47826087,,,,,left,1,0.58,0,54,54,52,1,2,1,2 | 1,1,1.6933,1.6933,neutral,left,,,,,,stimulusFile/magnitude.xlsx,,,,,,,,,,,,,,,,,,,,,,,,,,,,,,,
,,,,,,,,,,,,,,,721,2022-01-25_15h05.28,multiplicationStroop,2021.2.3,MacIntel,43.47826087,,,,,right,1,0.643,0,55,55,65,1,2,7,2 | 7,5,1.6933,1.6933,neutral,right,,,,,,stimulusFile/magnitude.xlsx,,,,,,,,,,,,,,,,,,,,,,,,,,,,,,,
,,,,,,,,,,,,,,,721,2022-01-25_15h05.28,multiplicationStroop,2021.2.3,MacIntel,43.47826087,,,,,left,1,0.586,0,56,56,20,1,6,1,6 | 1,5,1.9756,1.4111,congruent,left,,,,,,stimulusFile/magnitude.xlsx,,,,,,,,,,,,,,,,,,,,,,,,,,,,,,,
,,,,,,,,,,,,,,,721,2022-01-25_15h05.28,multiplicationStroop,2021.2.3,MacIntel,43.47826087,,,,,left,1,0.52,0,57,57,22,1,8,3,8 | 3,5,1.9756,1.4111,congruent,left,,,,,,stimulusFile/magnitude.xlsx,,,,,,,,,,,,,,,,,,,,,,,,,,,,,,,
,,,,,,,,,,,,,,,721,2022-01-25_15h05.28,multiplicationStroop,2021.2.3,MacIntel,43.47826087,,,,,right,1,0.603,0,58,58,10,1,6,8,6 | 8,2,1.4111,1.9756,congruent,right,,,,,,stimulusFile/magnitude.xlsx,,,,,,,,,,,,,,,,,,,,,,,,,,,,,,,
,,,,,,,,,,,,,,,721,2022-01-25_15h05.28,multiplicationStroop,2021.2.3,MacIntel,43.47826087,,,,,left,1,0.585,0,59,59,71,1,9,4,9 | 4,5,1.6933,1.6933,neutral,left,,,,,,stimulusFile/magnitude.xlsx,,,,,,,,,,,,,,,,,,,,,,,,,,,,,,,
,,,,,,,,,,,,,,,721,2022-01-25_15h05.28,multiplicationStroop,2021.2.3,MacIntel,43.47826087,,,,,left,1,0.576,0,60,60,54,1,7,6,7 | 6,1,1.6933,1.6933,neutral,left,,,,,,stimulusFile/magnitude.xlsx,,,,,,,,,,,,,,,,,,,,,,,,,,,,,,,
,,,,,,,,,,,,,,,721,2022-01-25_15h05.28,multiplicationStroop,2021.2.3,MacIntel,43.47826087,,,,,right,1,0.59,0,61,61,26,1,6,7,6 | 7,1,1.9756,1.4111,incongruent,right,,,,,,stimulusFile/magnitude.xlsx,,,,,,,,,,,,,,,,,,,,,,,,,,,,,,,
,,,,,,,,,,,,,,,721,2022-01-25_15h05.28,multiplicationStroop,2021.2.3,MacIntel,43.47826087,,,,,right,1,0.511,0,62,62,3,1,8,9,8 | 9,1,1.4111,1.9756,congruent,right,,,,,,stimulusFile/magnitude.xlsx,,,,,,,,,,,,,,,,,,,,,,,,,,,,,,,
,,,,,,,,,,,,,,,721,2022-01-25_15h05.28,multiplicationStroop,2021.2.3,MacIntel,43.47826087,,,,,right,1,1.002,0,63,63,50,1,6,7,6 | 7,1,1.6933,1.6933,neutral,right,,,,,,stimulusFile/magnitude.xlsx,,,,,,,,,,,,,,,,,,,,,,,,,,,,,,,
,,,,,,,,,,,,,,,721,2022-01-25_15h05.28,multiplicationStroop,2021.2.3,MacIntel,43.47826087,,,,,left,1,0.793,0,64,64,31,1,9,8,9 | 8,1,1.4111,1.9756,incongruent,left,,,,,,stimulusFile/magnitude.xlsx,,,,,,,,,,,,,,,,,,,,,,,,,,,,,,,
,,,,,,,,,,,,,,,721,2022-01-25_15h05.28,multiplicationStroop,2021.2.3,MacIntel,43.47826087,,,,,left,1,0.468,0,65,65,63,1,9,7,9 | 7,2,1.6933,1.6933,neutral,left,,,,,,stimulusFile/magnitude.xlsx,,,,,,,,,,,,,,,,,,,,,,,,,,,,,,,
,,,,,,,,,,,,,,,721,2022-01-25_15h05.28,multiplicationStroop,2021.2.3,MacIntel,43.47826087,,,,,left,1,0.635,0,66,66,30,1,7,6,7 | 6,1,1.4111,1.9756,incongruent,left,,,,,,stimulusFile/magnitude.xlsx,,,,,,,,,,,,,,,,,,,,,,,,,,,,,,,
,,,,,,,,,,,,,,,721,2022-01-25_15h05.28,multiplicationStroop,2021.2.3,MacIntel,43.47826087,,,,,right,1,0.568,0,67,67,32,1,1,3,1 | 3,2,1.9756,1.4111,incongruent,right,,,,,,stimulusFile/magnitude.xlsx,,,,,,,,,,,,,,,,,,,,,,,,,,,,,,,
,,,,,,,,,,,,,,,721,2022-01-25_15h05.28,multiplicationStroop,2021.2.3,MacIntel,43.47826087,,,,,right,1,0.811,0,68,68,57,1,2,4,2 | 4,2,1.6933,1.6933,neutral,right,,,,,,stimulusFile/magnitude.xlsx,,,,,,,,,,,,,,,,,,,,,,,,,,,,,,,
,,,,,,,,,,,,,,,721,2022-01-25_15h05.28,multiplicationStroop,2021.2.3,MacIntel,43.47826087,,,,,left,1,0.509,0,69,69,21,1,7,2,7 | 2,5,1.9756,1.4111,congruent,left,,,,,,stimulusFile/magnitude.xlsx,,,,,,,,,,,,,,,,,,,,,,,,,,,,,,,
,,,,,,,,,,,,,,,721,2022-01-25_15h05.28,multiplicationStroop,2021.2.3,MacIntel,43.47826087,,,,,left,1,0.56,0,70,70,44,1,6,1,6 | 1,5,1.4111,1.9756,incongruent,left,,,,,,stimulusFile/magnitude.xlsx,,,,,,,,,,,,,,,,,,,,,,,,,,,,,,,
,,,,,,,,,,,,,,,721,2022-01-25_15h05.28,multiplicationStroop,2021.2.3,MacIntel,43.47826087,,,,,right,1,0.701,0,71,71,49,1,3,4,3 | 4,1,1.6933,1.6933,neutral,right,,,,,,stimulusFile/magnitude.xlsx,,,,,,,,,,,,,,,,,,,,,,,,,,,,,,,
,,,,,,,,,,,,,,,721,2022-01-25_15h05.28,multiplicationStroop,2021.2.3,MacIntel,43.47826087,,,,,,,,,,,,,,,,,,,,,0,1,1,0,1,stimulusFile/magnitude.xlsx,NUMERICALLY larger (larger coefficient).,images/numericallyLarger.png,,,,,,,,,,,,,,,,,,,,,,,,,,,,,
,,,,,,,,,,,,,,,721,2022-01-25_15h05.28,multiplicationStroop,2021.2.3,MacIntel,43.47826087,,,,,,,,,,,,,,,,,,,,,,,,,,,,,space,14.511,space,3.404,4,3.172,1,0,0,0,28,1,2,×,2,2 × 2,neutral,tie,1,2,4,,,,,,,,
,,,,,,,,,,,,,,,721,2022-01-25_15h05.28,multiplicationStroop,2021.2.3,MacIntel,43.47826087,,,,,,,,,,,,,,,,,,,,,,,,,,,,,,,,,30,2.591,1,0,1,1,1,1,5,×,6,5 × 6,congruent,smallerFirst,1,2,30,,,,,,,,
,,,,,,,,,,,,,,,721,2022-01-25_15h05.28,multiplicationStroop,2021.2.3,MacIntel,43.47826087,,,,,,,,,,,,,,,,,,,,,,,,,,,,,,,,,20,2.039,1,0,2,2,21,1,5,×,4,5 × 4,congruent,largerFirst,2,1,20,,,,,,,,
,,,,,,,,,,,,,,,721,2022-01-25_15h05.28,multiplicationStroop,2021.2.3,MacIntel,43.47826087,,,,,,,,,,,,,,,,,,,,,,,,,,,,,,,,,18,1.818,1,0,3,3,8,1,2,×,9,2 × 9,congruent,smallerFirst,1,2,18,,,,,,,,
,,,,,,,,,,,,,,,721,2022-01-25_15h05.28,multiplicationStroop,2021.2.3,MacIntel,43.47826087,,,,,,,,,,,,,,,,,,,,,,,,,,,,,,,,,14,1.705,0,0,4,4,33,1,7,×,7,7 × 7,neutral,tie,1,2,49,,,,,,,,
,,,,,,,,,,,,,,,721,2022-01-25_15h05.28,multiplicationStroop,2021.2.3,MacIntel,43.47826087,,,,,,,,,,,,,,,,,,,,,,,,,,,,,,,,,25,1.952,1,0,5,5,31,1,5,×,5,5 × 5,neutral,tie,1,2,25,,,,,,,,
,,,,,,,,,,,,,,,721,2022-01-25_15h05.28,multiplicationStroop,2021.2.3,MacIntel,43.47826087,,,,,,,,,,,,,,,,,,,,,,,,,,,,,,,,,72,2.271,1,0,6,6,3,1,8,×,9,8 × 9,congruent,smallerFirst,1,2,72,,,,,,,,
,,,,,,,,,,,,,,,721,2022-01-25_15h05.28,multiplicationStroop,2021.2.3,MacIntel,43.47826087,,,,,,,,,,,,,,,,,,,,,,,,,,,,,,,,,27,2.116,1,0,7,7,12,1,3,×,9,3 × 9,congruent,smallerFirst,1,2,27,,,,,,,,
,,,,,,,,,,,,,,,721,2022-01-25_15h05.28,multiplicationStroop,2021.2.3,MacIntel,43.47826087,,,,,,,,,,,,,,,,,,,,,,,,,,,,,,,,,56,1.986,1,0,8,8,22,1,8,×,7,8 × 7,congruent,largerFirst,2,1,56,,,,,,,,
,,,,,,,,,,,,,,,721,2022-01-25_15h05.28,multiplicationStroop,2021.2.3,MacIntel,43.47826087,,,,,,,,,,,,,,,,,,,,,,,,,,,,,,,,,21,1.877,1,0,9,9,2,1,3,×,7,3 × 7,congruent,smallerFirst,1,2,21,,,,,,,,
,,,,,,,,,,,,,,,721,2022-01-25_15h05.28,multiplicationStroop,2021.2.3,MacIntel,43.47826087,,,,,,,,,,,,,,,,,,,,,,,,,,,,,,,,,14,1.717,1,0,10,10,0,1,2,×,7,2 × 7,congruent,smallerFirst,1,2,14,,,,,,,,
,,,,,,,,,,,,,,,721,2022-01-25_15h05.28,multiplicationStroop,2021.2.3,MacIntel,43.47826087,,,,,,,,,,,,,,,,,,,,,,,,,,,,,,,,,36,2.167,1,0,11,11,32,1,6,×,6,6 × 6,neutral,tie,1,2,36,,,,,,,,
,,,,,,,,,,,,,,,721,2022-01-25_15h05.28,multiplicationStroop,2021.2.3,MacIntel,43.47826087,,,,,,,,,,,,,,,,,,,,,,,,,,,,,,,,,36,1.905,1,0,12,12,14,1,9,×,4,9 × 4,congruent,largerFirst,2,1,36,,,,,,,,
,,,,,,,,,,,,,,,721,2022-01-25_15h05.28,multiplicationStroop,2021.2.3,MacIntel,43.47826087,,,,,,,,,,,,,,,,,,,,,,,,,,,,,,,,,12,1.619,1,0,13,13,16,1,4,×,3,4 × 3,congruent,largerFirst,2,1,12,,,,,,,,
,,,,,,,,,,,,,,,721,2022-01-25_15h05.28,multiplicationStroop,2021.2.3,MacIntel,43.47826087,,,,,,,,,,,,,,,,,,,,,,,,,,,,,,,,,28,2.208,1,0,14,14,13,1,4,×,7,4 × 7,congruent,smallerFirst,1,2,28,,,,,,,,
,,,,,,,,,,,,,,,721,2022-01-25_15h05.28,multiplicationStroop,2021.2.3,MacIntel,43.47826087,,,,,,,,,,,,,,,,,,,,,,,,,,,,,,,,,54,3.663,1,0,15,15,26,1,9,×,6,9 × 6,congruent,largerFirst,2,1,54,,,,,,,,
,,,,,,,,,,,,,,,721,2022-01-25_15h05.28,multiplicationStroop,2021.2.3,MacIntel,43.47826087,,,,,,,,,,,,,,,,,,,,,,,,,,,,,,,,,40,3.406,1,0,16,16,20,1,8,×,5,8 × 5,congruent,largerFirst,2,1,40,,,,,,,,
,,,,,,,,,,,,,,,721,2022-01-25_15h05.28,multiplicationStroop,2021.2.3,MacIntel,43.47826087,,,,,,,,,,,,,,,,,,,,,,,,,,,,,,,,,12,1.783,1,0,17,17,5,1,2,×,6,2 × 6,congruent,smallerFirst,1,2,12,,,,,,,,
,,,,,,,,,,,,,,,721,2022-01-25_15h05.28,multiplicationStroop,2021.2.3,MacIntel,43.47826087,,,,,,,,,,,,,,,,,,,,,,,,,,,,,,,,,63,3.362,1,0,18,18,7,1,7,×,9,7 × 9,congruent,smallerFirst,1,2,63,,,,,,,,
,,,,,,,,,,,,,,,721,2022-01-25_15h05.28,multiplicationStroop,2021.2.3,MacIntel,43.47826087,,,,,,,,,,,,,,,,,,,,,,,,,,,,,,,,,35,1.817,1,0,19,19,15,1,7,×,5,7 × 5,congruent,largerFirst,2,1,35,,,,,,,,
,,,,,,,,,,,,,,,721,2022-01-25_15h05.28,multiplicationStroop,2021.2.3,MacIntel,43.47826087,,,,,,,,,,,,,,,,,,,,,,,,,,,,,,,,,24,1.762,1,0,20,20,11,1,4,×,6,4 × 6,congruent,smallerFirst,1,2,24,,,,,,,,
,,,,,,,,,,,,,,,721,2022-01-25_15h05.28,multiplicationStroop,2021.2.3,MacIntel,43.47826087,,,,,,,,,,,,,,,,,,,,,,,,,,,,,,,,,24,1.83,1,0,21,21,24,1,8,×,3,8 × 3,congruent,largerFirst,2,1,24,,,,,,,,
,,,,,,,,,,,,,,,721,2022-01-25_15h05.28,multiplicationStroop,2021.2.3,MacIntel,43.47826087,,,,,,,,,,,,,,,,,,,,,,,,,,,,,,,,,48,3.858,1,0,22,22,4,1,6,×,8,6 × 8,congruent,smallerFirst,1,2,48,,,,,,,,
,,,,,,,,,,,,,,,721,2022-01-25_15h05.28,multiplicationStroop,2021.2.3,MacIntel,43.47826087,,,,,,,,,,,,,,,,,,,,,,,,,,,,,,,,,6,2.23,1,0,23,23,27,1,3,×,2,3 × 2,congruent,largerFirst,2,1,6,,,,,,,,
,,,,,,,,,,,,,,,721,2022-01-25_15h05.28,multiplicationStroop,2021.2.3,MacIntel,43.47826087,,,,,,,,,,,,,,,,,,,,,,,,,,,,,,,,,15,1.898,1,0,24,24,18,1,5,×,3,5 × 3,congruent,largerFirst,2,1,15,,,,,,,,
,,,,,,,,,,,,,,,721,2022-01-25_15h05.28,multiplicationStroop,2021.2.3,MacIntel,43.47826087,,,,,,,,,,,,,,,,,,,,,,,,,,,,,,,,,16,3.432,1,0,25,25,19,1,8,×,2,8 × 2,congruent,largerFirst,2,1,16,,,,,,,,
,,,,,,,,,,,,,,,721,2022-01-25_15h05.28,multiplicationStroop,2021.2.3,MacIntel,43.47826087,,,,,,,,,,,,,,,,,,,,,,,,,,,,,,,,,9,2.037,1,0,26,26,29,1,3,×,3,3 × 3,neutral,tie,1,2,9,,,,,,,,
,,,,,,,,,,,,,,,721,2022-01-25_15h05.28,multiplicationStroop,2021.2.3,MacIntel,43.47826087,,,,,,,,,,,,,,,,,,,,,,,,,,,,,,,,,16,2.169,1,0,27,27,30,1,4,×,4,4 × 4,neutral,tie,1,2,16,,,,,,,,
,,,,,,,,,,,,,,,721,2022-01-25_15h05.28,multiplicationStroop,2021.2.3,MacIntel,43.47826087,,,,,,,,,,,,,,,,,,,,,,,,,,,,,,,,,8,4.37,1,0,28,28,23,1,4,×,2,4 × 2,congruent,largerFirst,2,1,8,,,,,,,,
,,,,,,,,,,,,,,,721,2022-01-25_15h05.28,multiplicationStroop,2021.2.3,MacIntel,43.47826087,,,,,,,,,,,,,,,,,,,,,,,,,,,,,,,,,62,30.918,0,0,29,29,34,1,8,×,8,8 × 8,neutral,tie,1,2,64,,,,,,,,
,,,,,,,,,,,,,,,721,2022-01-25_15h05.28,multiplicationStroop,2021.2.3,MacIntel,43.47826087,,,,,,,,,,,,,,,,,,,,,,,,,,,,,,,,,81,2.721,1,0,30,30,35,1,9,×,9,9 × 9,neutral,tie,1,2,81,,,,,,,,
,,,,,,,,,,,,,,,721,2022-01-25_15h05.28,multiplicationStroop,2021.2.3,MacIntel,43.47826087,,,,,,,,,,,,,,,,,,,,,,,,,,,,,,,,,42,3.436,1,0,31,31,17,1,7,×,6,7 × 6,congruent,largerFirst,2,1,42,,,,,,,,
,,,,,,,,,,,,,,,721,2022-01-25_15h05.28,multiplicationStroop,2021.2.3,MacIntel,43.47826087,,,,,,,,,,,,,,,,,,,,,,,,,,,,,,,,,32,3.585,1,0,32,32,6,1,4,×,8,4 × 8,congruent,smallerFirst,1,2,32,,,,,,,,
,,,,,,,,,,,,,,,721,2022-01-25_15h05.28,multiplicationStroop,2021.2.3,MacIntel,43.47826087,,,,,,,,,,,,,,,,,,,,,,,,,,,,,,,,,45,2.27,1,0,33,33,9,1,5,×,9,5 × 9,congruent,smallerFirst,1,2,45,,,,,,,,
,,,,,,,,,,,,,,,721,2022-01-25_15h05.28,multiplicationStroop,2021.2.3,MacIntel,43.47826087,,,,,,,,,,,,,,,,,,,,,,,,,,,,,,,,,10,2.03,1,0,34,34,10,1,2,×,5,2 × 5,congruent,smallerFirst,1,2,10,,,,,,,,
,,,,,,,,,,,,,,,721,2022-01-25_15h05.28,multiplicationStroop,2021.2.3,MacIntel,43.47826087,,,,,,,,,,,,,,,,,,,,,,,,,,,,,,,,,18,2.726,1,0,35,35,25,1,6,×,3,6 × 3,congruent,largerFirst,2,1,18,,,,,,,,
,,,,,,,,,,,,,,,721,2022-01-25_15h05.28,multiplicationStroop,2021.2.3,MacIntel,43.47826087,,,,,,,,,,,,,,,,,,,,,,,,,,,,,,,,,,,,,,,,,,,,,,,,,,0,0,0,3,1,stimulusFile/mult_blk4_congruent.xlsx,,
,,,,,,,,,,,,,,,721,2022-01-25_15h05.28,multiplicationStroop,2021.2.3,MacIntel,43.47826087,,,,,,,,,,,,,,,,,,,,,,,,,,,,,,,space,19.154,6,1.831,1,0,0,0,26,1,3,×,2,3 × 2,neutral,largerFirst,1.5,1.5,6,,,,,,,,
,,,,,,,,,,,,,,,721,2022-01-25_15h05.28,multiplicationStroop,2021.2.3,MacIntel,43.47826087,,,,,,,,,,,,,,,,,,,,,,,,,,,,,,,,,36,2.419,1,0,1,1,32,1,6,×,6,6 × 6,neutral,tie,1.5,1.5,36,,,,,,,,
,,,,,,,,,,,,,,,721,2022-01-25_15h05.28,multiplicationStroop,2021.2.3,MacIntel,43.47826087,,,,,,,,,,,,,,,,,,,,,,,,,,,,,,,,,12,1.482,1,0,2,2,25,1,6,×,2,6 × 2,neutral,largerFirst,1.5,1.5,12,,,,,,,,
,,,,,,,,,,,,,,,721,2022-01-25_15h05.28,multiplicationStroop,2021.2.3,MacIntel,43.47826087,,,,,,,,,,,,,,,,,,,,,,,,,,,,,,,,,72,2.048,1,0,3,3,11,1,8,×,9,8 × 9,neutral,smallerFirst,1.5,1.5,72,,,,,,,,
,,,,,,,,,,,,,,,721,2022-01-25_15h05.28,multiplicationStroop,2021.2.3,MacIntel,43.47826087,,,,,,,,,,,,,,,,,,,,,,,,,,,,,,,,,56,1.981,1,0,4,4,9,1,7,×,8,7 × 8,neutral,smallerFirst,1.5,1.5,56,,,,,,,,
,,,,,,,,,,,,,,,721,2022-01-25_15h05.28,multiplicationStroop,2021.2.3,MacIntel,43.47826087,,,,,,,,,,,,,,,,,,,,,,,,,,,,,,,,,27,3.477,1,0,5,5,14,1,9,×,3,9 × 3,neutral,largerFirst,1.5,1.5,27,,,,,,,,
,,,,,,,,,,,,,,,721,2022-01-25_15h05.28,multiplicationStroop,2021.2.3,MacIntel,43.47826087,,,,,,,,,,,,,,,,,,,,,,,,,,,,,,,,,32,2.858,1,0,6,6,23,1,8,×,4,8 × 4,neutral,largerFirst,1.5,1.5,32,,,,,,,,
,,,,,,,,,,,,,,,721,2022-01-25_15h05.28,multiplicationStroop,2021.2.3,MacIntel,43.47826087,,,,,,,,,,,,,,,,,,,,,,,,,,,,,,,,,63,2.65,1,0,7,7,12,1,7,×,9,7 × 9,neutral,smallerFirst,1.5,1.5,63,,,,,,,,
,,,,,,,,,,,,,,,721,2022-01-25_15h05.28,multiplicationStroop,2021.2.3,MacIntel,43.47826087,,,,,,,,,,,,,,,,,,,,,,,,,,,,,,,,,48,3.005,1,0,8,8,15,1,8,×,6,8 × 6,neutral,largerFirst,1.5,1.5,48,,,,,,,,
,,,,,,,,,,,,,,,721,2022-01-25_15h05.28,multiplicationStroop,2021.2.3,MacIntel,43.47826087,,,,,,,,,,,,,,,,,,,,,,,,,,,,,,,,,8,1.996,1,0,9,9,3,1,2,×,4,2 × 4,neutral,smallerFirst,1.5,1.5,8,,,,,,,,
,,,,,,,,,,,,,,,721,2022-01-25_15h05.28,multiplicationStroop,2021.2.3,MacIntel,43.47826087,,,,,,,,,,,,,,,,,,,,,,,,,,,,,,,,,36,2.09,1,0,10,10,27,1,9,×,4,9 × 4,neutral,largerFirst,1.5,1.5,36,,,,,,,,
,,,,,,,,,,,,,,,721,2022-01-25_15h05.28,multiplicationStroop,2021.2.3,MacIntel,43.47826087,,,,,,,,,,,,,,,,,,,,,,,,,,,,,,,,,30,2.481,1,0,11,11,19,1,6,×,5,6 × 5,neutral,largerFirst,1.5,1.5,30,,,,,,,,
,,,,,,,,,,,,,,,721,2022-01-25_15h05.28,multiplicationStroop,2021.2.3,MacIntel,43.47826087,,,,,,,,,,,,,,,,,,,,,,,,,,,,,,,,,24,3.384,1,0,12,12,2,1,4,×,6,4 × 6,neutral,smallerFirst,1.5,1.5,24,,,,,,,,
,,,,,,,,,,,,,,,721,2022-01-25_15h05.28,multiplicationStroop,2021.2.3,MacIntel,43.47826087,,,,,,,,,,,,,,,,,,,,,,,,,,,,,,,,,25,2.146,1,0,13,13,31,1,5,×,5,5 × 5,neutral,tie,1.5,1.5,25,,,,,,,,
,,,,,,,,,,,,,,,721,2022-01-25_15h05.28,multiplicationStroop,2021.2.3,MacIntel,43.47826087,,,,,,,,,,,,,,,,,,,,,,,,,,,,,,,,,24,2.271,1,0,14,14,22,1,8,×,3,8 × 3,neutral,largerFirst,1.5,1.5,24,,,,,,,,
,,,,,,,,,,,,,,,721,2022-01-25_15h05.28,multiplicationStroop,2021.2.3,MacIntel,43.47826087,,,,,,,,,,,,,,,,,,,,,,,,,,,,,,,,,21,1.635,1,0,15,15,8,1,3,×,7,3 × 7,neutral,smallerFirst,1.5,1.5,21,,,,,,,,
,,,,,,,,,,,,,,,721,2022-01-25_15h05.28,multiplicationStroop,2021.2.3,MacIntel,43.47826087,,,,,,,,,,,,,,,,,,,,,,,,,,,,,,,,,10,1.878,1,0,16,16,4,1,2,×,5,2 × 5,neutral,smallerFirst,1.5,1.5,10,,,,,,,,
,,,,,,,,,,,,,,,721,2022-01-25_15h05.28,multiplicationStroop,2021.2.3,MacIntel,43.47826087,,,,,,,,,,,,,,,,,,,,,,,,,,,,,,,,,54,2.237,1,0,17,17,7,1,6,×,9,6 × 9,neutral,smallerFirst,1.5,1.5,54,,,,,,,,
,,,,,,,,,,,,,,,721,2022-01-25_15h05.28,multiplicationStroop,2021.2.3,MacIntel,43.47826087,,,,,,,,,,,,,,,,,,,,,,,,,,,,,,,,,81,3.996,1,0,18,18,35,1,9,×,9,9 × 9,neutral,tie,1.5,1.5,81,,,,,,,,
,,,,,,,,,,,,,,,721,2022-01-25_15h05.28,multiplicationStroop,2021.2.3,MacIntel,43.47826087,,,,,,,,,,,,,,,,,,,,,,,,,,,,,,,,,9,1.831,1,0,19,19,29,1,3,×,3,3 × 3,neutral,tie,1.5,1.5,9,,,,,,,,
,,,,,,,,,,,,,,,721,2022-01-25_15h05.28,multiplicationStroop,2021.2.3,MacIntel,43.47826087,,,,,,,,,,,,,,,,,,,,,,,,,,,,,,,,,18,2.15,1,0,20,20,18,1,9,×,2,9 × 2,neutral,largerFirst,1.5,1.5,18,,,,,,,,
,,,,,,,,,,,,,,,721,2022-01-25_15h05.28,multiplicationStroop,2021.2.3,MacIntel,43.47826087,,,,,,,,,,,,,,,,,,,,,,,,,,,,,,,,,35,2.434,1,0,21,21,1,1,5,×,7,5 × 7,neutral,smallerFirst,1.5,1.5,35,,,,,,,,
,,,,,,,,,,,,,,,721,2022-01-25_15h05.28,multiplicationStroop,2021.2.3,MacIntel,43.47826087,,,,,,,,,,,,,,,,,,,,,,,,,,,,,,,,,42,2.101,1,0,22,22,6,1,6,×,7,6 × 7,neutral,smallerFirst,1.5,1.5,42,,,,,,,,
,,,,,,,,,,,,,,,721,2022-01-25_15h05.28,multiplicationStroop,2021.2.3,MacIntel,43.47826087,,,,,,,,,,,,,,,,,,,,,,,,,,,,,,,,,40,2.292,1,0,23,23,24,1,8,×,5,8 × 5,neutral,largerFirst,1.5,1.5,40,,,,,,,,
,,,,,,,,,,,,,,,721,2022-01-25_15h05.28,multiplicationStroop,2021.2.3,MacIntel,43.47826087,,,,,,,,,,,,,,,,,,,,,,,,,,,,,,,,,45,2.012,1,0,24,24,10,1,5,×,9,5 × 9,neutral,smallerFirst,1.5,1.5,45,,,,,,,,
,,,,,,,,,,,,,,,721,2022-01-25_15h05.28,multiplicationStroop,2021.2.3,MacIntel,43.47826087,,,,,,,,,,,,,,,,,,,,,,,,,,,,,,,,,64,3.233,1,0,25,25,34,1,8,×,8,8 × 8,neutral,tie,1.5,1.5,64,,,,,,,,
,,,,,,,,,,,,,,,721,2022-01-25_15h05.28,multiplicationStroop,2021.2.3,MacIntel,43.47826087,,,,,,,,,,,,,,,,,,,,,,,,,,,,,,,,,28,2.899,1,0,26,26,17,1,7,×,4,7 × 4,neutral,largerFirst,1.5,1.5,28,,,,,,,,
,,,,,,,,,,,,,,,721,2022-01-25_15h05.28,multiplicationStroop,2021.2.3,MacIntel,43.47826087,,,,,,,,,,,,,,,,,,,,,,,,,,,,,,,,,16,2.475,1,0,27,27,30,1,4,×,4,4 × 4,neutral,tie,1.5,1.5,16,,,,,,,,
,,,,,,,,,,,,,,,721,2022-01-25_15h05.28,multiplicationStroop,2021.2.3,MacIntel,43.47826087,,,,,,,,,,,,,,,,,,,,,,,,,,,,,,,,,15,2.4,1,0,28,28,5,1,3,×,5,3 × 5,neutral,smallerFirst,1.5,1.5,15,,,,,,,,
,,,,,,,,,,,,,,,721,2022-01-25_15h05.28,multiplicationStroop,2021.2.3,MacIntel,43.47826087,,,,,,,,,,,,,,,,,,,,,,,,,,,,,,,,,20,2.007,1,0,29,29,20,1,5,×,4,5 × 4,neutral,largerFirst,1.5,1.5,20,,,,,,,,
,,,,,,,,,,,,,,,721,2022-01-25_15h05.28,multiplicationStroop,2021.2.3,MacIntel,43.47826087,,,,,,,,,,,,,,,,,,,,,,,,,,,,,,,,,14,1.851,1,0,30,30,16,1,7,×,2,7 × 2,neutral,largerFirst,1.5,1.5,14,,,,,,,,
,,,,,,,,,,,,,,,721,2022-01-25_15h05.28,multiplicationStroop,2021.2.3,MacIntel,43.47826087,,,,,,,,,,,,,,,,,,,,,,,,,,,,,,,,,18,2.411,1,0,31,31,0,1,3,×,6,3 × 6,neutral,smallerFirst,1.5,1.5,18,,,,,,,,
,,,,,,,,,,,,,,,721,2022-01-25_15h05.28,multiplicationStroop,2021.2.3,MacIntel,43.47826087,,,,,,,,,,,,,,,,,,,,,,,,,,,,,,,,,16,1.875,1,0,32,32,13,1,2,×,8,2 × 8,neutral,smallerFirst,1.5,1.5,16,,,,,,,,
,,,,,,,,,,,,,,,721,2022-01-25_15h05.28,multiplicationStroop,2021.2.3,MacIntel,43.47826087,,,,,,,,,,,,,,,,,,,,,,,,,,,,,,,,,12,1.548,1,0,33,33,21,1,4,×,3,4 × 3,neutral,largerFirst,1.5,1.5,12,,,,,,,,
,,,,,,,,,,,,,,,721,2022-01-25_15h05.28,multiplicationStroop,2021.2.3,MacIntel,43.47826087,,,,,,,,,,,,,,,,,,,,,,,,,,,,,,,,,49,3.189,1,0,34,34,33,1,7,×,7,7 × 7,neutral,tie,1.5,1.5,49,,,,,,,,
,,,,,,,,,,,,,,,721,2022-01-25_15h05.28,multiplicationStroop,2021.2.3,MacIntel,43.47826087,,,,,,,,,,,,,,,,,,,,,,,,,,,,,,,,,4,1.798,1,0,35,35,28,1,2,×,2,2 × 2,neutral,tie,1.5,1.5,4,,,,,,,,
,,,,,,,,,,,,,,,721,2022-01-25_15h05.28,multiplicationStroop,2021.2.3,MacIntel,43.47826087,,,,,,,,,,,,,,,,,,,,,,,,,,,,,,,,,,,,,,,,,,,,,,,,,,0,1,1,1,1,stimulusFile/mult_blk2.xlsx,,
,,,,,,,,,,,,,,,721,2022-01-25_15h05.28,multiplicationStroop,2021.2.3,MacIntel,43.47826087,,,,,,,,,,,,,,,,,,,,,,,,,,,,,,,space,19.773,24,1.902,1,0,0,0,20,1,6,×,4,6 × 4,incongruent,largerFirst,1,2,24,,,,,,,,
,,,,,,,,,,,,,,,721,2022-01-25_15h05.28,multiplicationStroop,2021.2.3,MacIntel,43.47826087,,,,,,,,,,,,,,,,,,,,,,,,,,,,,,,,,12,1.369,1,0,1,1,19,1,6,×,2,6 × 2,incongruent,largerFirst,1,2,12,,,,,,,,
,,,,,,,,,,,,,,,721,2022-01-25_15h05.28,multiplicationStroop,2021.2.3,MacIntel,43.47826087,,,,,,,,,,,,,,,,,,,,,,,,,,,,,,,,,4,1.295,1,0,2,2,28,1,2,×,2,2 × 2,incongruent,tie,1,2,4,,,,,,,,
,,,,,,,,,,,,,,,721,2022-01-25_15h05.28,multiplicationStroop,2021.2.3,MacIntel,43.47826087,,,,,,,,,,,,,,,,,,,,,,,,,,,,,,,,,81,2.901,1,0,3,3,35,1,9,×,9,9 × 9,incongruent,tie,1,2,81,,,,,,,,
,,,,,,,,,,,,,,,721,2022-01-25_15h05.28,multiplicationStroop,2021.2.3,MacIntel,43.47826087,,,,,,,,,,,,,,,,,,,,,,,,,,,,,,,,,36,2.057,1,0,4,4,15,1,9,×,4,9 × 4,incongruent,largerFirst,1,2,36,,,,,,,,
,,,,,,,,,,,,,,,721,2022-01-25_15h05.28,multiplicationStroop,2021.2.3,MacIntel,43.47826087,,,,,,,,,,,,,,,,,,,,,,,,,,,,,,,,,30,1.972,1,0,5,5,25,1,6,×,5,6 × 5,incongruent,largerFirst,1,2,30,,,,,,,,
,,,,,,,,,,,,,,,721,2022-01-25_15h05.28,multiplicationStroop,2021.2.3,MacIntel,43.47826087,,,,,,,,,,,,,,,,,,,,,,,,,,,,,,,,,14,1.982,1,0,6,6,4,1,2,×,7,2 × 7,incongruent,smallerFirst,2,1,14,,,,,,,,
,,,,,,,,,,,,,,,721,2022-01-25_15h05.28,multiplicationStroop,2021.2.3,MacIntel,43.47826087,,,,,,,,,,,,,,,,,,,,,,,,,,,,,,,,,32,2.197,1,0,7,7,7,1,4,×,8,4 × 8,incongruent,smallerFirst,2,1,32,,,,,,,,
,,,,,,,,,,,,,,,721,2022-01-25_15h05.28,multiplicationStroop,2021.2.3,MacIntel,43.47826087,,,,,,,,,,,,,,,,,,,,,,,,,,,,,,,,,49,2.35,1,0,8,8,33,1,7,×,7,7 × 7,incongruent,tie,1,2,49,,,,,,,,
,,,,,,,,,,,,,,,721,2022-01-25_15h05.28,multiplicationStroop,2021.2.3,MacIntel,43.47826087,,,,,,,,,,,,,,,,,,,,,,,,,,,,,,,,,21,1.5,1,0,9,9,26,1,7,×,3,7 × 3,incongruent,largerFirst,1,2,21,,,,,,,,
,,,,,,,,,,,,,,,721,2022-01-25_15h05.28,multiplicationStroop,2021.2.3,MacIntel,43.47826087,,,,,,,,,,,,,,,,,,,,,,,,,,,,,,,,,64,2.517,1,0,10,10,34,1,8,×,8,8 × 8,incongruent,tie,1,2,64,,,,,,,,
,,,,,,,,,,,,,,,721,2022-01-25_15h05.28,multiplicationStroop,2021.2.3,MacIntel,43.47826087,,,,,,,,,,,,,,,,,,,,,,,,,,,,,,,,,16,2.259,1,0,11,11,30,1,4,×,4,4 × 4,incongruent,tie,1,2,16,,,,,,,,
,,,,,,,,,,,,,,,721,2022-01-25_15h05.28,multiplicationStroop,2021.2.3,MacIntel,43.47826087,,,,,,,,,,,,,,,,,,,,,,,,,,,,,,,,,72,2.643,1,0,12,12,0,1,8,×,9,8 × 9,incongruent,smallerFirst,2,1,72,,,,,,,,
,,,,,,,,,,,,,,,721,2022-01-25_15h05.28,multiplicationStroop,2021.2.3,MacIntel,43.47826087,,,,,,,,,,,,,,,,,,,,,,,,,,,,,,,,,42,2.644,1,0,13,13,17,1,7,×,6,7 × 6,incongruent,largerFirst,1,2,42,,,,,,,,
,,,,,,,,,,,,,,,721,2022-01-25_15h05.28,multiplicationStroop,2021.2.3,MacIntel,43.47826087,,,,,,,,,,,,,,,,,,,,,,,,,,,,,,,,,35,2.065,1,0,14,14,12,1,5,×,7,5 × 7,incongruent,smallerFirst,2,1,35,,,,,,,,
,,,,,,,,,,,,,,,721,2022-01-25_15h05.28,multiplicationStroop,2021.2.3,MacIntel,43.47826087,,,,,,,,,,,,,,,,,,,,,,,,,,,,,,,,,18,2.628,1,0,15,15,8,1,3,×,6,3 × 6,incongruent,smallerFirst,2,1,18,,,,,,,,
,,,,,,,,,,,,,,,721,2022-01-25_15h05.28,multiplicationStroop,2021.2.3,MacIntel,43.47826087,,,,,,,,,,,,,,,,,,,,,,,,,,,,,,,,,45,2.061,1,0,16,16,22,1,9,×,5,9 × 5,incongruent,largerFirst,1,2,45,,,,,,,,
,,,,,,,,,,,,,,,721,2022-01-25_15h05.28,multiplicationStroop,2021.2.3,MacIntel,43.47826087,,,,,,,,,,,,,,,,,,,,,,,,,,,,,,,,,18,2.082,1,0,17,17,2,1,2,×,9,2 × 9,incongruent,smallerFirst,2,1,18,,,,,,,,
,,,,,,,,,,,,,,,721,2022-01-25_15h05.28,multiplicationStroop,2021.2.3,MacIntel,43.47826087,,,,,,,,,,,,,,,,,,,,,,,,,,,,,,,,,63,4.762,1,0,18,18,3,1,7,×,9,7 × 9,incongruent,smallerFirst,2,1,63,,,,,,,,
,,,,,,,,,,,,,,,721,2022-01-25_15h05.28,multiplicationStroop,2021.2.3,MacIntel,43.47826087,,,,,,,,,,,,,,,,,,,,,,,,,,,,,,,,,8,3.668,1,0,19,19,24,1,4,×,2,4 × 2,incongruent,largerFirst,1,2,8,,,,,,,,
,,,,,,,,,,,,,,,721,2022-01-25_15h05.28,multiplicationStroop,2021.2.3,MacIntel,43.47826087,,,,,,,,,,,,,,,,,,,,,,,,,,,,,,,,,25,1.822,1,0,20,20,31,1,5,×,5,5 × 5,incongruent,tie,1,2,25,,,,,,,,
,,,,,,,,,,,,,,,721,2022-01-25_15h05.28,multiplicationStroop,2021.2.3,MacIntel,43.47826087,,,,,,,,,,,,,,,,,,,,,,,,,,,,,,,,,12,1.561,1,0,21,21,5,1,3,×,4,3 × 4,incongruent,smallerFirst,2,1,12,,,,,,,,
,,,,,,,,,,,,,,,721,2022-01-25_15h05.28,multiplicationStroop,2021.2.3,MacIntel,43.47826087,,,,,,,,,,,,,,,,,,,,,,,,,,,,,,,,,56,2.564,1,0,22,22,14,1,8,×,7,8 × 7,incongruent,largerFirst,1,2,56,,,,,,,,
,,,,,,,,,,,,,,,721,2022-01-25_15h05.28,multiplicationStroop,2021.2.3,MacIntel,43.47826087,,,,,,,,,,,,,,,,,,,,,,,,,,,,,,,,,20,2.851,1,0,23,23,27,1,5,×,4,5 × 4,incongruent,largerFirst,1,2,20,,,,,,,,
,,,,,,,,,,,,,,,721,2022-01-25_15h05.28,multiplicationStroop,2021.2.3,MacIntel,43.47826087,,,,,,,,,,,,,,,,,,,,,,,,,,,,,,,,,6,1.866,1,0,24,24,11,1,2,×,3,2 × 3,incongruent,smallerFirst,2,1,6,,,,,,,,
,,,,,,,,,,,,,,,721,2022-01-25_15h05.28,multiplicationStroop,2021.2.3,MacIntel,43.47826087,,,,,,,,,,,,,,,,,,,,,,,,,,,,,,,,,48,2.366,1,0,25,25,1,1,6,×,8,6 × 8,incongruent,smallerFirst,2,1,48,,,,,,,,
,,,,,,,,,,,,,,,721,2022-01-25_15h05.28,multiplicationStroop,2021.2.3,MacIntel,43.47826087,,,,,,,,,,,,,,,,,,,,,,,,,,,,,,,,,36,2.151,1,0,26,26,32,1,6,×,6,6 × 6,incongruent,tie,1,2,36,,,,,,,,
,,,,,,,,,,,,,,,721,2022-01-25_15h05.28,multiplicationStroop,2021.2.3,MacIntel,43.47826087,,,,,,,,,,,,,,,,,,,,,,,,,,,,,,,,,54,1.988,1,0,27,27,6,1,6,×,9,6 × 9,incongruent,smallerFirst,2,1,54,,,,,,,,
,,,,,,,,,,,,,,,721,2022-01-25_15h05.28,multiplicationStroop,2021.2.3,MacIntel,43.47826087,,,,,,,,,,,,,,,,,,,,,,,,,,,,,,,,,27,2.047,1,0,28,28,18,1,9,×,3,9 × 3,incongruent,largerFirst,1,2,27,,,,,,,,
,,,,,,,,,,,,,,,721,2022-01-25_15h05.28,multiplicationStroop,2021.2.3,MacIntel,43.47826087,,,,,,,,,,,,,,,,,,,,,,,,,,,,,,,,,16,4.074,1,0,29,29,23,1,8,×,2,8 × 2,incongruent,largerFirst,1,2,16,,,,,,,,
,,,,,,,,,,,,,,,721,2022-01-25_15h05.28,multiplicationStroop,2021.2.3,MacIntel,43.47826087,,,,,,,,,,,,,,,,,,,,,,,,,,,,,,,,,24,3.176,1,0,30,30,9,1,3,×,8,3 × 8,incongruent,smallerFirst,2,1,24,,,,,,,,
,,,,,,,,,,,,,,,721,2022-01-25_15h05.28,multiplicationStroop,2021.2.3,MacIntel,43.47826087,,,,,,,,,,,,,,,,,,,,,,,,,,,,,,,,,10,1.988,1,0,31,31,21,1,5,×,2,5 × 2,incongruent,largerFirst,1,2,10,,,,,,,,
,,,,,,,,,,,,,,,721,2022-01-25_15h05.28,multiplicationStroop,2021.2.3,MacIntel,43.47826087,,,,,,,,,,,,,,,,,,,,,,,,,,,,,,,,,28,2.198,1,0,32,32,16,1,7,×,4,7 × 4,incongruent,largerFirst,1,2,28,,,,,,,,
,,,,,,,,,,,,,,,721,2022-01-25_15h05.28,multiplicationStroop,2021.2.3,MacIntel,43.47826087,,,,,,,,,,,,,,,,,,,,,,,,,,,,,,,,,9,1.772,1,0,33,33,29,1,3,×,3,3 × 3,incongruent,tie,1,2,9,,,,,,,,
,,,,,,,,,,,,,,,721,2022-01-25_15h05.28,multiplicationStroop,2021.2.3,MacIntel,43.47826087,,,,,,,,,,,,,,,,,,,,,,,,,,,,,,,,,40,2.027,1,0,34,34,13,1,5,×,8,5 × 8,incongruent,smallerFirst,2,1,40,,,,,,,,
,,,,,,,,,,,,,,,721,2022-01-25_15h05.28,multiplicationStroop,2021.2.3,MacIntel,43.47826087,,,,,,,,,,,,,,,,,,,,,,,,,,,,,,,,,15,1.814,1,0,35,35,10,1,3,×,5,3 × 5,incongruent,smallerFirst,2,1,15,,,,,,,,
,,,,,,,,,,,,,,,721,2022-01-25_15h05.28,multiplicationStroop,2021.2.3,MacIntel,43.47826087,,,,,,,,,,,,,,,,,,,,,,,,,,,,,,,,,,,,,,,,,,,,,,,,,,0,2,2,5,1,stimulusFile/mult_blk6_INcongruent.xlsx,,
,,,,,,,,,,,,,,,721,2022-01-25_15h05.28,multiplicationStroop,2021.2.3,MacIntel,43.47826087,,,,,,,,,,,,,,,,,,,,,,,,,,,,,,,space,16.901,9,1.707,1,0,0,0,29,1,3,×,3,3 × 3,neutral,tie,2,1,9,,,,,,,,
,,,,,,,,,,,,,,,721,2022-01-25_15h05.28,multiplicationStroop,2021.2.3,MacIntel,43.47826087,,,,,,,,,,,,,,,,,,,,,,,,,,,,,,,,,63,2.658,1,0,1,1,21,1,9,×,7,9 × 7,congruent,largerFirst,2,1,63,,,,,,,,
,,,,,,,,,,,,,,,721,2022-01-25_15h05.28,multiplicationStroop,2021.2.3,MacIntel,43.47826087,,,,,,,,,,,,,,,,,,,,,,,,,,,,,,,,,14,1.967,1,0,2,2,14,1,7,×,2,7 × 2,congruent,largerFirst,2,1,14,,,,,,,,
,,,,,,,,,,,,,,,721,2022-01-25_15h05.28,multiplicationStroop,2021.2.3,MacIntel,43.47826087,,,,,,,,,,,,,,,,,,,,,,,,,,,,,,,,,12,1.442,1,0,3,3,19,1,6,×,2,6 × 2,congruent,largerFirst,2,1,12,,,,,,,,
,,,,,,,,,,,,,,,721,2022-01-25_15h05.28,multiplicationStroop,2021.2.3,MacIntel,43.47826087,,,,,,,,,,,,,,,,,,,,,,,,,,,,,,,,,48,1.943,1,0,4,4,18,1,8,×,6,8 × 6,congruent,largerFirst,2,1,48,,,,,,,,
,,,,,,,,,,,,,,,721,2022-01-25_15h05.28,multiplicationStroop,2021.2.3,MacIntel,43.47826087,,,,,,,,,,,,,,,,,,,,,,,,,,,,,,,,,28,2.937,1,0,5,5,27,1,7,×,4,7 × 4,congruent,largerFirst,2,1,28,,,,,,,,
,,,,,,,,,,,,,,,721,2022-01-25_15h05.28,multiplicationStroop,2021.2.3,MacIntel,43.47826087,,,,,,,,,,,,,,,,,,,,,,,,,,,,,,,,,15,1.702,1,0,6,6,4,1,3,×,5,3 × 5,congruent,smallerFirst,1,2,15,,,,,,,,
,,,,,,,,,,,,,,,721,2022-01-25_15h05.28,multiplicationStroop,2021.2.3,MacIntel,43.47826087,,,,,,,,,,,,,,,,,,,,,,,,,,,,,,,,,8,1.731,1,0,7,7,9,1,2,×,4,2 × 4,congruent,smallerFirst,1,2,8,,,,,,,,
,,,,,,,,,,,,,,,721,2022-01-25_15h05.28,multiplicationStroop,2021.2.3,MacIntel,43.47826087,,,,,,,,,,,,,,,,,,,,,,,,,,,,,,,,,16,2.037,1,0,8,8,5,1,2,×,8,2 × 8,congruent,smallerFirst,1,2,16,,,,,,,,
,,,,,,,,,,,,,,,721,2022-01-25_15h05.28,multiplicationStroop,2021.2.3,MacIntel,43.47826087,,,,,,,,,,,,,,,,,,,,,,,,,,,,,,,,,21,1.728,1,0,9,9,16,1,7,×,3,7 × 3,congruent,largerFirst,2,1,21,,,,,,,,
,,,,,,,,,,,,,,,721,2022-01-25_15h05.28,multiplicationStroop,2021.2.3,MacIntel,43.47826087,,,,,,,,,,,,,,,,,,,,,,,,,,,,,,,,,10,1.789,1,0,10,10,24,1,5,×,2,5 × 2,congruent,largerFirst,2,1,10,,,,,,,,
,,,,,,,,,,,,,,,721,2022-01-25_15h05.28,multiplicationStroop,2021.2.3,MacIntel,43.47826087,,,,,,,,,,,,,,,,,,,,,,,,,,,,,,,,,20,1.794,1,0,11,11,7,1,4,×,5,4 × 5,congruent,smallerFirst,1,2,20,,,,,,,,
,,,,,,,,,,,,,,,721,2022-01-25_15h05.28,multiplicationStroop,2021.2.3,MacIntel,43.47826087,,,,,,,,,,,,,,,,,,,,,,,,,,,,,,,,,18,2.429,1,0,12,12,11,1,3,×,6,3 × 6,congruent,smallerFirst,1,2,18,,,,,,,,
,,,,,,,,,,,,,,,721,2022-01-25_15h05.28,multiplicationStroop,2021.2.3,MacIntel,43.47826087,,,,,,,,,,,,,,,,,,,,,,,,,,,,,,,,,54,1.987,1,0,13,13,12,1,6,×,9,6 × 9,congruent,smallerFirst,1,2,54,,,,,,,,
,,,,,,,,,,,,,,,721,2022-01-25_15h05.28,multiplicationStroop,2021.2.3,MacIntel,43.47826087,,,,,,,,,,,,,,,,,,,,,,,,,,,,,,,,,81,1.956,1,0,14,14,35,1,9,×,9,9 × 9,neutral,tie,2,1,81,,,,,,,,
,,,,,,,,,,,,,,,721,2022-01-25_15h05.28,multiplicationStroop,2021.2.3,MacIntel,43.47826087,,,,,,,,,,,,,,,,,,,,,,,,,,,,,,,,,18,1.713,1,0,15,15,22,1,9,×,2,9 × 2,congruent,largerFirst,2,1,18,,,,,,,,
,,,,,,,,,,,,,,,721,2022-01-25_15h05.28,multiplicationStroop,2021.2.3,MacIntel,43.47826087,,,,,,,,,,,,,,,,,,,,,,,,,,,,,,,,,32,3.698,1,0,16,16,20,1,8,×,4,8 × 4,congruent,largerFirst,2,1,32,,,,,,,,
,,,,,,,,,,,,,,,721,2022-01-25_15h05.28,multiplicationStroop,2021.2.3,MacIntel,43.47826087,,,,,,,,,,,,,,,,,,,,,,,,,,,,,,,,,27,2.037,1,0,17,17,26,1,9,×,3,9 × 3,congruent,largerFirst,2,1,27,,,,,,,,
,,,,,,,,,,,,,,,721,2022-01-25_15h05.28,multiplicationStroop,2021.2.3,MacIntel,43.47826087,,,,,,,,,,,,,,,,,,,,,,,,,,,,,,,,,16,1.859,1,0,18,18,30,1,4,×,4,4 × 4,neutral,tie,2,1,16,,,,,,,,
,,,,,,,,,,,,,,,721,2022-01-25_15h05.28,multiplicationStroop,2021.2.3,MacIntel,43.47826087,,,,,,,,,,,,,,,,,,,,,,,,,,,,,,,,,45,2.11,1,0,19,19,23,1,9,×,5,9 × 5,congruent,largerFirst,2,1,45,,,,,,,,
,,,,,,,,,,,,,,,721,2022-01-25_15h05.28,multiplicationStroop,2021.2.3,MacIntel,43.47826087,,,,,,,,,,,,,,,,,,,,,,,,,,,,,,,,,24,2.094,1,0,20,20,25,1,6,×,4,6 × 4,congruent,largerFirst,2,1,24,,,,,,,,
,,,,,,,,,,,,,,,721,2022-01-25_15h05.28,multiplicationStroop,2021.2.3,MacIntel,43.47826087,,,,,,,,,,,,,,,,,,,,,,,,,,,,,,,,,72,2.079,1,0,21,21,17,1,9,×,8,9 × 8,congruent,largerFirst,2,1,72,,,,,,,,
,,,,,,,,,,,,,,,721,2022-01-25_15h05.28,multiplicationStroop,2021.2.3,MacIntel,43.47826087,,,,,,,,,,,,,,,,,,,,,,,,,,,,,,,,,36,2.255,1,0,22,22,0,1,4,×,9,4 × 9,congruent,smallerFirst,1,2,36,,,,,,,,
,,,,,,,,,,,,,,,721,2022-01-25_15h05.28,multiplicationStroop,2021.2.3,MacIntel,43.47826087,,,,,,,,,,,,,,,,,,,,,,,,,,,,,,,,,64,2.698,1,0,23,23,34,1,8,×,8,8 × 8,neutral,tie,2,1,64,,,,,,,,
,,,,,,,,,,,,,,,721,2022-01-25_15h05.28,multiplicationStroop,2021.2.3,MacIntel,43.47826087,,,,,,,,,,,,,,,,,,,,,,,,,,,,,,,,,25,1.658,1,0,24,24,31,1,5,×,5,5 × 5,neutral,tie,2,1,25,,,,,,,,
,,,,,,,,,,,,,,,721,2022-01-25_15h05.28,multiplicationStroop,2021.2.3,MacIntel,43.47826087,,,,,,,,,,,,,,,,,,,,,,,,,,,,,,,,,30,1.796,1,0,25,25,15,1,6,×,5,6 × 5,congruent,largerFirst,2,1,30,,,,,,,,
,,,,,,,,,,,,,,,721,2022-01-25_15h05.28,multiplicationStroop,2021.2.3,MacIntel,43.47826087,,,,,,,,,,,,,,,,,,,,,,,,,,,,,,,,,49,1.914,1,0,26,26,33,1,7,×,7,7 × 7,neutral,tie,2,1,49,,,,,,,,
,,,,,,,,,,,,,,,721,2022-01-25_15h05.28,multiplicationStroop,2021.2.3,MacIntel,43.47826087,,,,,,,,,,,,,,,,,,,,,,,,,,,,,,,,,35,1.881,1,0,27,27,1,1,5,×,7,5 × 7,congruent,smallerFirst,1,2,35,,,,,,,,
,,,,,,,,,,,,,,,721,2022-01-25_15h05.28,multiplicationStroop,2021.2.3,MacIntel,43.47826087,,,,,,,,,,,,,,,,,,,,,,,,,,,,,,,,,6,1.873,1,0,28,28,13,1,2,×,3,2 × 3,congruent,smallerFirst,1,2,6,,,,,,,,
,,,,,,,,,,,,,,,721,2022-01-25_15h05.28,multiplicationStroop,2021.2.3,MacIntel,43.47826087,,,,,,,,,,,,,,,,,,,,,,,,,,,,,,,,,40,1.753,1,0,29,29,6,1,5,×,8,5 × 8,congruent,smallerFirst,1,2,40,,,,,,,,
,,,,,,,,,,,,,,,721,2022-01-25_15h05.28,multiplicationStroop,2021.2.3,MacIntel,43.47826087,,,,,,,,,,,,,,,,,,,,,,,,,,,,,,,,,12,1.482,1,0,30,30,2,1,3,×,4,3 × 4,congruent,smallerFirst,1,2,12,,,,,,,,
,,,,,,,,,,,,,,,721,2022-01-25_15h05.28,multiplicationStroop,2021.2.3,MacIntel,43.47826087,,,,,,,,,,,,,,,,,,,,,,,,,,,,,,,,,4,1.43,1,0,31,31,28,1,2,×,2,2 × 2,neutral,tie,2,1,4,,,,,,,,
,,,,,,,,,,,,,,,721,2022-01-25_15h05.28,multiplicationStroop,2021.2.3,MacIntel,43.47826087,,,,,,,,,,,,,,,,,,,,,,,,,,,,,,,,,42,1.736,1,0,32,32,3,1,6,×,7,6 × 7,congruent,smallerFirst,1,2,42,,,,,,,,
,,,,,,,,,,,,,,,721,2022-01-25_15h05.28,multiplicationStroop,2021.2.3,MacIntel,43.47826087,,,,,,,,,,,,,,,,,,,,,,,,,,,,,,,,,56,1.714,1,0,33,33,8,1,7,×,8,7 × 8,congruent,smallerFirst,1,2,56,,,,,,,,
,,,,,,,,,,,,,,,721,2022-01-25_15h05.28,multiplicationStroop,2021.2.3,MacIntel,43.47826087,,,,,,,,,,,,,,,,,,,,,,,,,,,,,,,,,36,2.102,1,0,34,34,32,1,6,×,6,6 × 6,neutral,tie,2,1,36,,,,,,,,
,,,,,,,,,,,,,,,721,2022-01-25_15h05.28,multiplicationStroop,2021.2.3,MacIntel,43.47826087,,,,,,,,,,,,,,,,,,,,,,,,,,,,,,,,,24,2.356,1,0,35,35,10,1,3,×,8,3 × 8,congruent,smallerFirst,1,2,24,,,,,,,,
,,,,,,,,,,,,,,,721,2022-01-25_15h05.28,multiplicationStroop,2021.2.3,MacIntel,43.47826087,,,,,,,,,,,,,,,,,,,,,,,,,,,,,,,,,,,,,,,,,,,,,,,,,,0,3,3,2,1,stimulusFile/mult_blk3_congruent.xlsx,,
,,,,,,,,,,,,,,,721,2022-01-25_15h05.28,multiplicationStroop,2021.2.3,MacIntel,43.47826087,,,,,,,,,,,,,,,,,,,,,,,,,,,,,,,space,1.33,8,1.804,1,0,0,0,10,1,2,×,4,2 × 4,incongruent,smallerFirst,2,1,8,,,,,,,,
,,,,,,,,,,,,,,,721,2022-01-25_15h05.28,multiplicationStroop,2021.2.3,MacIntel,43.47826087,,,,,,,,,,,,,,,,,,,,,,,,,,,,,,,,,72,3.817,1,0,1,1,14,1,9,×,8,9 × 8,incongruent,largerFirst,1,2,72,,,,,,,,
,,,,,,,,,,,,,,,721,2022-01-25_15h05.28,multiplicationStroop,2021.2.3,MacIntel,43.47826087,,,,,,,,,,,,,,,,,,,,,,,,,,,,,,,,,49,2.455,1,0,2,2,33,1,7,×,7,7 × 7,neutral,tie,2,1,49,,,,,,,,
,,,,,,,,,,,,,,,721,2022-01-25_15h05.28,multiplicationStroop,2021.2.3,MacIntel,43.47826087,,,,,,,,,,,,,,,,,,,,,,,,,,,,,,,,,6,1.461,1,0,3,3,25,1,3,×,2,3 × 2,incongruent,largerFirst,1,2,6,,,,,,,,
,,,,,,,,,,,,,,,721,2022-01-25_15h05.28,multiplicationStroop,2021.2.3,MacIntel,43.47826087,,,,,,,,,,,,,,,,,,,,,,,,,,,,,,,,,42,1.915,1,0,4,4,3,1,6,×,7,6 × 7,incongruent,smallerFirst,2,1,42,,,,,,,,
,,,,,,,,,,,,,,,721,2022-01-25_15h05.28,multiplicationStroop,2021.2.3,MacIntel,43.47826087,,,,,,,,,,,,,,,,,,,,,,,,,,,,,,,,,28,1.89,1,0,5,5,2,1,4,×,7,4 × 7,incongruent,smallerFirst,2,1,28,,,,,,,,
,,,,,,,,,,,,,,,721,2022-01-25_15h05.28,multiplicationStroop,2021.2.3,MacIntel,43.47826087,,,,,,,,,,,,,,,,,,,,,,,,,,,,,,,,,54,1.682,1,0,6,6,20,1,9,×,6,9 × 6,incongruent,largerFirst,1,2,54,,,,,,,,
,,,,,,,,,,,,,,,721,2022-01-25_15h05.28,multiplicationStroop,2021.2.3,MacIntel,43.47826087,,,,,,,,,,,,,,,,,,,,,,,,,,,,,,,,,24,1.898,1,0,7,7,23,1,8,×,3,8 × 3,incongruent,largerFirst,1,2,24,,,,,,,,
,,,,,,,,,,,,,,,721,2022-01-25_15h05.28,multiplicationStroop,2021.2.3,MacIntel,43.47826087,,,,,,,,,,,,,,,,,,,,,,,,,,,,,,,,,10,1.563,1,0,8,8,7,1,2,×,5,2 × 5,incongruent,smallerFirst,2,1,10,,,,,,,,
,,,,,,,,,,,,,,,721,2022-01-25_15h05.28,multiplicationStroop,2021.2.3,MacIntel,43.47826087,,,,,,,,,,,,,,,,,,,,,,,,,,,,,,,,,16,2.303,1,0,9,9,9,1,2,×,8,2 × 8,incongruent,smallerFirst,2,1,16,,,,,,,,
,,,,,,,,,,,,,,,721,2022-01-25_15h05.28,multiplicationStroop,2021.2.3,MacIntel,43.47826087,,,,,,,,,,,,,,,,,,,,,,,,,,,,,,,,,15,1.623,1,0,10,10,24,1,5,×,3,5 × 3,incongruent,largerFirst,1,2,15,,,,,,,,
,,,,,,,,,,,,,,,721,2022-01-25_15h05.28,multiplicationStroop,2021.2.3,MacIntel,43.47826087,,,,,,,,,,,,,,,,,,,,,,,,,,,,,,,,,18,1.757,1,0,11,11,22,1,6,×,3,6 × 3,incongruent,largerFirst,1,2,18,,,,,,,,
,,,,,,,,,,,,,,,721,2022-01-25_15h05.28,multiplicationStroop,2021.2.3,MacIntel,43.47826087,,,,,,,,,,,,,,,,,,,,,,,,,,,,,,,,,27,2.247,1,0,12,12,4,1,3,×,9,3 × 9,incongruent,smallerFirst,2,1,27,,,,,,,,
,,,,,,,,,,,,,,,721,2022-01-25_15h05.28,multiplicationStroop,2021.2.3,MacIntel,43.47826087,,,,,,,,,,,,,,,,,,,,,,,,,,,,,,,,,64,2.088,1,0,13,13,34,1,8,×,8,8 × 8,neutral,tie,2,1,64,,,,,,,,
,,,,,,,,,,,,,,,721,2022-01-25_15h05.28,multiplicationStroop,2021.2.3,MacIntel,43.47826087,,,,,,,,,,,,,,,,,,,,,,,,,,,,,,,,,48,1.93,1,0,14,14,15,1,8,×,6,8 × 6,incongruent,largerFirst,1,2,48,,,,,,,,
,,,,,,,,,,,,,,,721,2022-01-25_15h05.28,multiplicationStroop,2021.2.3,MacIntel,43.47826087,,,,,,,,,,,,,,,,,,,,,,,,,,,,,,,,,20,2.315,1,0,15,15,13,1,4,×,5,4 × 5,incongruent,smallerFirst,2,1,20,,,,,,,,
,,,,,,,,,,,,,,,721,2022-01-25_15h05.28,multiplicationStroop,2021.2.3,MacIntel,43.47826087,,,,,,,,,,,,,,,,,,,,,,,,,,,,,,,,,18,2.1,1,0,16,16,16,1,9,×,2,9 × 2,incongruent,largerFirst,1,2,18,,,,,,,,
,,,,,,,,,,,,,,,721,2022-01-25_15h05.28,multiplicationStroop,2021.2.3,MacIntel,43.47826087,,,,,,,,,,,,,,,,,,,,,,,,,,,,,,,,,21,1.439,1,0,17,17,12,1,3,×,7,3 × 7,incongruent,smallerFirst,2,1,21,,,,,,,,
,,,,,,,,,,,,,,,721,2022-01-25_15h05.28,multiplicationStroop,2021.2.3,MacIntel,43.47826087,,,,,,,,,,,,,,,,,,,,,,,,,,,,,,,,,9,1.596,1,0,18,18,29,1,3,×,3,3 × 3,neutral,tie,2,1,9,,,,,,,,
,,,,,,,,,,,,,,,721,2022-01-25_15h05.28,multiplicationStroop,2021.2.3,MacIntel,43.47826087,,,,,,,,,,,,,,,,,,,,,,,,,,,,,,,,,45,1.657,1,0,19,19,8,1,5,×,9,5 × 9,incongruent,smallerFirst,2,1,45,,,,,,,,
,,,,,,,,,,,,,,,721,2022-01-25_15h05.28,multiplicationStroop,2021.2.3,MacIntel,43.47826087,,,,,,,,,,,,,,,,,,,,,,,,,,,,,,,,,16,1.81,1,0,20,20,30,1,4,×,4,4 × 4,neutral,tie,2,1,16,,,,,,,,
,,,,,,,,,,,,,,,721,2022-01-25_15h05.28,multiplicationStroop,2021.2.3,MacIntel,43.47826087,,,,,,,,,,,,,,,,,,,,,,,,,,,,,,,,,32,2.11,1,0,21,21,21,1,8,×,4,8 × 4,incongruent,largerFirst,1,2,32,,,,,,,,
,,,,,,,,,,,,,,,721,2022-01-25_15h05.28,multiplicationStroop,2021.2.3,MacIntel,43.47826087,,,,,,,,,,,,,,,,,,,,,,,,,,,,,,,,,12,1.319,1,0,22,22,19,1,4,×,3,4 × 3,incongruent,largerFirst,1,2,12,,,,,,,,
,,,,,,,,,,,,,,,721,2022-01-25_15h05.28,multiplicationStroop,2021.2.3,MacIntel,43.47826087,,,,,,,,,,,,,,,,,,,,,,,,,,,,,,,,,40,1.751,1,0,23,23,27,1,8,×,5,8 × 5,incongruent,largerFirst,1,2,40,,,,,,,,
,,,,,,,,,,,,,,,721,2022-01-25_15h05.28,multiplicationStroop,2021.2.3,MacIntel,43.47826087,,,,,,,,,,,,,,,,,,,,,,,,,,,,,,,,,25,1.834,1,0,24,24,31,1,5,×,5,5 × 5,neutral,tie,2,1,25,,,,,,,,
,,,,,,,,,,,,,,,721,2022-01-25_15h05.28,multiplicationStroop,2021.2.3,MacIntel,43.47826087,,,,,,,,,,,,,,,,,,,,,,,,,,,,,,,,,14,1.732,1,0,25,25,18,1,7,×,2,7 × 2,incongruent,largerFirst,1,2,14,,,,,,,,
,,,,,,,,,,,,,,,721,2022-01-25_15h05.28,multiplicationStroop,2021.2.3,MacIntel,43.47826087,,,,,,,,,,,,,,,,,,,,,,,,,,,,,,,,,30,1.67,1,0,26,26,11,1,5,×,6,5 × 6,incongruent,smallerFirst,2,1,30,,,,,,,,
,,,,,,,,,,,,,,,721,2022-01-25_15h05.28,multiplicationStroop,2021.2.3,MacIntel,43.47826087,,,,,,,,,,,,,,,,,,,,,,,,,,,,,,,,,36,2.112,1,0,27,27,1,1,4,×,9,4 × 9,incongruent,smallerFirst,2,1,36,,,,,,,,
,,,,,,,,,,,,,,,721,2022-01-25_15h05.28,multiplicationStroop,2021.2.3,MacIntel,43.47826087,,,,,,,,,,,,,,,,,,,,,,,,,,,,,,,,,12,1.806,1,0,28,28,5,1,2,×,6,2 × 6,incongruent,smallerFirst,2,1,12,,,,,,,,
,,,,,,,,,,,,,,,721,2022-01-25_15h05.28,multiplicationStroop,2021.2.3,MacIntel,43.47826087,,,,,,,,,,,,,,,,,,,,,,,,,,,,,,,,,4,1.476,1,0,29,29,28,1,2,×,2,2 × 2,neutral,tie,2,1,4,,,,,,,,
,,,,,,,,,,,,,,,721,2022-01-25_15h05.28,multiplicationStroop,2021.2.3,MacIntel,43.47826087,,,,,,,,,,,,,,,,,,,,,,,,,,,,,,,,,30,1.629,0,0,30,30,26,1,7,×,5,7 × 5,incongruent,largerFirst,1,2,35,,,,,,,,
,,,,,,,,,,,,,,,721,2022-01-25_15h05.28,multiplicationStroop,2021.2.3,MacIntel,43.47826087,,,,,,,,,,,,,,,,,,,,,,,,,,,,,,,,,36,1.825,1,0,31,31,32,1,6,×,6,6 × 6,neutral,tie,2,1,36,,,,,,,,
,,,,,,,,,,,,,,,721,2022-01-25_15h05.28,multiplicationStroop,2021.2.3,MacIntel,43.47826087,,,,,,,,,,,,,,,,,,,,,,,,,,,,,,,,,63,2.816,1,0,32,32,17,1,9,×,7,9 × 7,incongruent,largerFirst,1,2,63,,,,,,,,
,,,,,,,,,,,,,,,721,2022-01-25_15h05.28,multiplicationStroop,2021.2.3,MacIntel,43.47826087,,,,,,,,,,,,,,,,,,,,,,,,,,,,,,,,,56,1.769,1,0,33,33,0,1,7,×,8,7 × 8,incongruent,smallerFirst,2,1,56,,,,,,,,
,,,,,,,,,,,,,,,721,2022-01-25_15h05.28,multiplicationStroop,2021.2.3,MacIntel,43.47826087,,,,,,,,,,,,,,,,,,,,,,,,,,,,,,,,,81,1.787,1,0,34,34,35,1,9,×,9,9 × 9,neutral,tie,2,1,81,,,,,,,,
,,,,,,,,,,,,,,,721,2022-01-25_15h05.28,multiplicationStroop,2021.2.3,MacIntel,43.47826087,,,,,,,,,,,,,,,,,,,,,,,,,,,,,,,,,24,1.724,1,0,35,35,6,1,4,×,6,4 × 6,incongruent,smallerFirst,2,1,24,,,,,,,,
,,,,,,,,,,,,,,,721,2022-01-25_15h05.28,multiplicationStroop,2021.2.3,MacIntel,43.47826087,,,,,,,,,,,,,,,,,,,,,,,,,,,,,,,,,,,,,,,,,,,,,,,,,,0,4,4,4,1,stimulusFile/mult_blk5_INcongruent.xlsx,,
,,,,,,,,,,,,,,,721,2022-01-25_15h05.28,multiplicationStroop,2021.2.3,MacIntel,43.47826087,,,,,,,,,,,,,,,,,,,,,,,,,,,,,,,space,3.999,25,1.941,1,0,0,0,31,1,5,×,5,5 × 5,neutral,tie,1.5,1.5,25,,,,,,,,
,,,,,,,,,,,,,,,721,2022-01-25_15h05.28,multiplicationStroop,2021.2.3,MacIntel,43.47826087,,,,,,,,,,,,,,,,,,,,,,,,,,,,,,,,,12,1.589,1,0,1,1,11,1,2,×,6,2 × 6,neutral,smallerFirst,1.5,1.5,12,,,,,,,,
,,,,,,,,,,,,,,,721,2022-01-25_15h05.28,multiplicationStroop,2021.2.3,MacIntel,43.47826087,,,,,,,,,,,,,,,,,,,,,,,,,,,,,,,,,36,1.758,1,0,2,2,32,1,6,×,6,6 × 6,neutral,tie,1.5,1.5,36,,,,,,,,
,,,,,,,,,,,,,,,721,2022-01-25_15h05.28,multiplicationStroop,2021.2.3,MacIntel,43.47826087,,,,,,,,,,,,,,,,,,,,,,,,,,,,,,,,,30,1.601,1,0,3,3,5,1,5,×,6,5 × 6,neutral,smallerFirst,1.5,1.5,30,,,,,,,,
,,,,,,,,,,,,,,,721,2022-01-25_15h05.28,multiplicationStroop,2021.2.3,MacIntel,43.47826087,,,,,,,,,,,,,,,,,,,,,,,,,,,,,,,,,45,1.853,1,0,4,4,24,1,9,×,5,9 × 5,neutral,largerFirst,1.5,1.5,45,,,,,,,,
,,,,,,,,,,,,,,,721,2022-01-25_15h05.28,multiplicationStroop,2021.2.3,MacIntel,43.47826087,,,,,,,,,,,,,,,,,,,,,,,,,,,,,,,,,8,2.555,1,0,5,5,17,1,4,×,2,4 × 2,neutral,largerFirst,1.5,1.5,8,,,,,,,,
,,,,,,,,,,,,,,,721,2022-01-25_15h05.28,multiplicationStroop,2021.2.3,MacIntel,43.47826087,,,,,,,,,,,,,,,,,,,,,,,,,,,,,,,,,6,1.612,1,0,6,6,12,1,2,×,3,2 × 3,neutral,smallerFirst,1.5,1.5,6,,,,,,,,
,,,,,,,,,,,,,,,721,2022-01-25_15h05.28,multiplicationStroop,2021.2.3,MacIntel,43.47826087,,,,,,,,,,,,,,,,,,,,,,,,,,,,,,,,,42,1.768,1,0,7,7,20,1,7,×,6,7 × 6,neutral,largerFirst,1.5,1.5,42,,,,,,,,
,,,,,,,,,,,,,,,721,2022-01-25_15h05.28,multiplicationStroop,2021.2.3,MacIntel,43.47826087,,,,,,,,,,,,,,,,,,,,,,,,,,,,,,,,,20,1.783,1,0,8,8,6,1,4,×,5,4 × 5,neutral,smallerFirst,1.5,1.5,20,,,,,,,,
,,,,,,,,,,,,,,,721,2022-01-25_15h05.28,multiplicationStroop,2021.2.3,MacIntel,43.47826087,,,,,,,,,,,,,,,,,,,,,,,,,,,,,,,,,18,2.23,1,0,9,9,14,1,6,×,3,6 × 3,neutral,largerFirst,1.5,1.5,18,,,,,,,,
,,,,,,,,,,,,,,,721,2022-01-25_15h05.28,multiplicationStroop,2021.2.3,MacIntel,43.47826087,,,,,,,,,,,,,,,,,,,,,,,,,,,,,,,,,24,1.894,1,0,10,10,16,1,6,×,4,6 × 4,neutral,largerFirst,1.5,1.5,24,,,,,,,,
,,,,,,,,,,,,,,,721,2022-01-25_15h05.28,multiplicationStroop,2021.2.3,MacIntel,43.47826087,,,,,,,,,,,,,,,,,,,,,,,,,,,,,,,,,28,2.52,1,0,11,11,3,1,4,×,7,4 × 7,neutral,smallerFirst,1.5,1.5,28,,,,,,,,
,,,,,,,,,,,,,,,721,2022-01-25_15h05.28,multiplicationStroop,2021.2.3,MacIntel,43.47826087,,,,,,,,,,,,,,,,,,,,,,,,,,,,,,,,,16,1.804,1,0,12,12,30,1,4,×,4,4 × 4,neutral,tie,1.5,1.5,16,,,,,,,,
,,,,,,,,,,,,,,,721,2022-01-25_15h05.28,multiplicationStroop,2021.2.3,MacIntel,43.47826087,,,,,,,,,,,,,,,,,,,,,,,,,,,,,,,,,21,1.464,1,0,13,13,22,1,7,×,3,7 × 3,neutral,largerFirst,1.5,1.5,21,,,,,,,,
,,,,,,,,,,,,,,,721,2022-01-25_15h05.28,multiplicationStroop,2021.2.3,MacIntel,43.47826087,,,,,,,,,,,,,,,,,,,,,,,,,,,,,,,,,9,2.368,1,0,14,14,29,1,3,×,3,3 × 3,neutral,tie,1.5,1.5,9,,,,,,,,
,,,,,,,,,,,,,,,721,2022-01-25_15h05.28,multiplicationStroop,2021.2.3,MacIntel,43.47826087,,,,,,,,,,,,,,,,,,,,,,,,,,,,,,,,,7,2.221,0,0,15,15,25,1,9,×,8,9 × 8,neutral,largerFirst,1.5,1.5,72,,,,,,,,
,,,,,,,,,,,,,,,721,2022-01-25_15h05.28,multiplicationStroop,2021.2.3,MacIntel,43.47826087,,,,,,,,,,,,,,,,,,,,,,,,,,,,,,,,,35,5.563,1,0,16,16,15,1,7,×,5,7 × 5,neutral,largerFirst,1.5,1.5,35,,,,,,,,
,,,,,,,,,,,,,,,721,2022-01-25_15h05.28,multiplicationStroop,2021.2.3,MacIntel,43.47826087,,,,,,,,,,,,,,,,,,,,,,,,,,,,,,,,,10,1.711,1,0,17,17,18,1,5,×,2,5 × 2,neutral,largerFirst,1.5,1.5,10,,,,,,,,
,,,,,,,,,,,,,,,721,2022-01-25_15h05.28,multiplicationStroop,2021.2.3,MacIntel,43.47826087,,,,,,,,,,,,,,,,,,,,,,,,,,,,,,,,,18,2.885,1,0,18,18,4,1,2,×,9,2 × 9,neutral,smallerFirst,1.5,1.5,18,,,,,,,,
,,,,,,,,,,,,,,,721,2022-01-25_15h05.28,multiplicationStroop,2021.2.3,MacIntel,43.47826087,,,,,,,,,,,,,,,,,,,,,,,,,,,,,,,,,56,2.161,1,0,19,19,23,1,8,×,7,8 × 7,neutral,largerFirst,1.5,1.5,56,,,,,,,,
,,,,,,,,,,,,,,,721,2022-01-25_15h05.28,multiplicationStroop,2021.2.3,MacIntel,43.47826087,,,,,,,,,,,,,,,,,,,,,,,,,,,,,,,,,15,1.548,1,0,20,20,19,1,5,×,3,5 × 3,neutral,largerFirst,1.5,1.5,15,,,,,,,,
,,,,,,,,,,,,,,,721,2022-01-25_15h05.28,multiplicationStroop,2021.2.3,MacIntel,43.47826087,,,,,,,,,,,,,,,,,,,,,,,,,,,,,,,,,64,2.109,1,0,21,21,34,1,8,×,8,8 × 8,neutral,tie,1.5,1.5,64,,,,,,,,
,,,,,,,,,,,,,,,721,2022-01-25_15h05.28,multiplicationStroop,2021.2.3,MacIntel,43.47826087,,,,,,,,,,,,,,,,,,,,,,,,,,,,,,,,,81,1.566,1,0,22,22,35,1,9,×,9,9 × 9,neutral,tie,1.5,1.5,81,,,,,,,,
,,,,,,,,,,,,,,,721,2022-01-25_15h05.28,multiplicationStroop,2021.2.3,MacIntel,43.47826087,,,,,,,,,,,,,,,,,,,,,,,,,,,,,,,,,27,1.856,1,0,23,23,0,1,3,×,9,3 × 9,neutral,smallerFirst,1.5,1.5,27,,,,,,,,
,,,,,,,,,,,,,,,721,2022-01-25_15h05.28,multiplicationStroop,2021.2.3,MacIntel,43.47826087,,,,,,,,,,,,,,,,,,,,,,,,,,,,,,,,,14,1.863,1,0,24,24,2,1,2,×,7,2 × 7,neutral,smallerFirst,1.5,1.5,14,,,,,,,,
,,,,,,,,,,,,,,,721,2022-01-25_15h05.28,multiplicationStroop,2021.2.3,MacIntel,43.47826087,,,,,,,,,,,,,,,,,,,,,,,,,,,,,,,,,12,1.454,1,0,25,25,7,1,3,×,4,3 × 4,neutral,smallerFirst,1.5,1.5,12,,,,,,,,
,,,,,,,,,,,,,,,721,2022-01-25_15h05.28,multiplicationStroop,2021.2.3,MacIntel,43.47826087,,,,,,,,,,,,,,,,,,,,,,,,,,,,,,,,,32,2.185,1,0,26,26,9,1,4,×,8,4 × 8,neutral,smallerFirst,1.5,1.5,32,,,,,,,,
,,,,,,,,,,,,,,,721,2022-01-25_15h05.28,multiplicationStroop,2021.2.3,MacIntel,43.47826087,,,,,,,,,,,,,,,,,,,,,,,,,,,,,,,,,16,1.645,1,0,27,27,27,1,8,×,2,8 × 2,neutral,largerFirst,1.5,1.5,16,,,,,,,,
,,,,,,,,,,,,,,,721,2022-01-25_15h05.28,multiplicationStroop,2021.2.3,MacIntel,43.47826087,,,,,,,,,,,,,,,,,,,,,,,,,,,,,,,,,36,2.063,1,0,28,28,13,1,4,×,9,4 × 9,neutral,smallerFirst,1.5,1.5,36,,,,,,,,
,,,,,,,,,,,,,,,721,2022-01-25_15h05.28,multiplicationStroop,2021.2.3,MacIntel,43.47826087,,,,,,,,,,,,,,,,,,,,,,,,,,,,,,,,,63,2.908,1,0,29,29,26,1,9,×,7,9 × 7,neutral,largerFirst,1.5,1.5,63,,,,,,,,
,,,,,,,,,,,,,,,721,2022-01-25_15h05.28,multiplicationStroop,2021.2.3,MacIntel,43.47826087,,,,,,,,,,,,,,,,,,,,,,,,,,,,,,,,,24,1.766,1,0,30,30,8,1,3,×,8,3 × 8,neutral,smallerFirst,1.5,1.5,24,,,,,,,,
,,,,,,,,,,,,,,,721,2022-01-25_15h05.28,multiplicationStroop,2021.2.3,MacIntel,43.47826087,,,,,,,,,,,,,,,,,,,,,,,,,,,,,,,,,4,1.511,1,0,31,31,28,1,2,×,2,2 × 2,neutral,tie,1.5,1.5,4,,,,,,,,
,,,,,,,,,,,,,,,721,2022-01-25_15h05.28,multiplicationStroop,2021.2.3,MacIntel,43.47826087,,,,,,,,,,,,,,,,,,,,,,,,,,,,,,,,,49,3.789,1,0,32,32,33,1,7,×,7,7 × 7,neutral,tie,1.5,1.5,49,,,,,,,,
,,,,,,,,,,,,,,,721,2022-01-25_15h05.28,multiplicationStroop,2021.2.3,MacIntel,43.47826087,,,,,,,,,,,,,,,,,,,,,,,,,,,,,,,,,54,2.049,1,0,33,33,21,1,9,×,6,9 × 6,neutral,largerFirst,1.5,1.5,54,,,,,,,,
,,,,,,,,,,,,,,,721,2022-01-25_15h05.28,multiplicationStroop,2021.2.3,MacIntel,43.47826087,,,,,,,,,,,,,,,,,,,,,,,,,,,,,,,,,48,2.499,1,0,34,34,1,1,6,×,8,6 × 8,neutral,smallerFirst,1.5,1.5,48,,,,,,,,
,,,,,,,,,,,,,,,721,2022-01-25_15h05.28,multiplicationStroop,2021.2.3,MacIntel,43.47826087,,,,,,,,,,,,,,,,,,,,,,,,,,,,,,,,,40,1.985,1,0,35,35,10,1,5,×,8,5 × 8,neutral,smallerFirst,1.5,1.5,40,,,,,,,,
,,,,,,,,,,,,,,,721,2022-01-25_15h05.28,multiplicationStroop,2021.2.3,MacIntel,43.47826087,,,,,,,,,,,,,,,,,,,,,,,,,,,,,,,,,,,,,,,,,,,,,,,,,,0,5,5,0,1,stimulusFile/mult_blk1.xlsx,,
,,,,,,,,,,,,,,,721,2022-01-25_15h05.28,multiplicationStroop,2021.2.3,MacIntel,43.47826087,,,,,,,,,,,,,,,,,,,,,,,,,,,,,,,,,,,,,,,,,,,,,,,,,,,,,,,,space,5.291