welcomeKey_resp.keys,welcomeKey_resp.rt,X Scale,Y Scale,rt_resp_4.keys,rt_resp_4.corr,rt_resp_4.rt,speedtest_2.thisRepN,speedtest_2.thisTrialN,speedtest_2.thisN,speedtest_2.thisIndex,speedtest_2.ran,numberSc,posX,positionLayout,participant,date,expName,psychopyVersion,OS,frameRate,ct_instrresp.keys,ct_instrresp.rt,key_resp_2.keys,key_resp_2.rt,ct_keyResp.keys,ct_keyResp.corr,ct_keyResp.rt,trials.thisRepN,trials.thisTrialN,trials.thisN,trials.thisIndex,trials.ran,leftNo,rightNo,displayProblem,numDistance,leftNo_size,rightNo_size,Dims,keyAnswer,TS_Loop.thisRepN,TS_Loop.thisTrialN,TS_Loop.thisN,TS_Loop.thisIndex,TS_Loop.ran,Condition,ActionInst,instrImage,mltptaskInst_resp.keys,mltptaskInst_resp.rt,continue_resp_2.keys,continue_resp_2.rt,multp_Answer,multi_RT,multiplyCorr,LoopingMultiply.thisRepN,LoopingMultiply.thisTrialN,LoopingMultiply.thisN,LoopingMultiply.thisIndex,LoopingMultiply.ran,factor1,multiplySign,factor2,multliplyProblem,physicalSize,orderOperand,sizeF1,sizeF2,mult_answer,trials_stroop.thisRepN,trials_stroop.thisTrialN,trials_stroop.thisN,trials_stroop.thisIndex,trials_stroop.ran,multiplicationFile,esckey_resp_2.keys,esckey_resp_2.rt
y,13.873,44.8,44.8,left,1,0.6845,0,0,0,1,1,2,-200,left,723,2022-01-23_22h48.27.450,multiplicationStroop,2021.2.3,Win32,51.54639175,,,,,,,,,,,,,,,,,,,,,,,,,,,,,,,,,,,,,,,,,,,,,,,,,,,,,,,,,
,,,,right,1,0.3272,0,1,1,10,1,3,200,right,723,2022-01-23_22h48.27.450,multiplicationStroop,2021.2.3,Win32,51.54639175,,,,,,,,,,,,,,,,,,,,,,,,,,,,,,,,,,,,,,,,,,,,,,,,,,,,,,,,,
,,,,left,1,0.3842,0,2,2,3,1,4,-200,left,723,2022-01-23_22h48.27.450,multiplicationStroop,2021.2.3,Win32,51.54639175,,,,,,,,,,,,,,,,,,,,,,,,,,,,,,,,,,,,,,,,,,,,,,,,,,,,,,,,,
,,,,right,1,0.3185,0,3,3,15,1,9,200,right,723,2022-01-23_22h48.27.450,multiplicationStroop,2021.2.3,Win32,51.54639175,,,,,,,,,,,,,,,,,,,,,,,,,,,,,,,,,,,,,,,,,,,,,,,,,,,,,,,,,
,,,,right,1,0.4348,0,4,4,8,1,1,200,right,723,2022-01-23_22h48.27.450,multiplicationStroop,2021.2.3,Win32,51.54639175,,,,,,,,,,,,,,,,,,,,,,,,,,,,,,,,,,,,,,,,,,,,,,,,,,,,,,,,,
,,,,right,1,0.4014,0,5,5,14,1,8,200,right,723,2022-01-23_22h48.27.450,multiplicationStroop,2021.2.3,Win32,51.54639175,,,,,,,,,,,,,,,,,,,,,,,,,,,,,,,,,,,,,,,,,,,,,,,,,,,,,,,,,
,,,,right,1,0.3344,0,6,6,13,1,7,200,right,723,2022-01-23_22h48.27.450,multiplicationStroop,2021.2.3,Win32,51.54639175,,,,,,,,,,,,,,,,,,,,,,,,,,,,,,,,,,,,,,,,,,,,,,,,,,,,,,,,,
,,,,left,1,0.3264,0,7,7,0,1,1,-200,left,723,2022-01-23_22h48.27.450,multiplicationStroop,2021.2.3,Win32,51.54639175,,,,,,,,,,,,,,,,,,,,,,,,,,,,,,,,,,,,,,,,,,,,,,,,,,,,,,,,,
,,,,right,1,0.3181,0,8,8,9,1,2,200,right,723,2022-01-23_22h48.27.450,multiplicationStroop,2021.2.3,Win32,51.54639175,,,,,,,,,,,,,,,,,,,,,,,,,,,,,,,,,,,,,,,,,,,,,,,,,,,,,,,,,
,,,,right,1,0.3193,0,9,9,11,1,4,200,right,723,2022-01-23_22h48.27.450,multiplicationStroop,2021.2.3,Win32,51.54639175,,,,,,,,,,,,,,,,,,,,,,,,,,,,,,,,,,,,,,,,,,,,,,,,,,,,,,,,,
,,,,left,1,0.3035,0,10,10,7,1,9,-200,left,723,2022-01-23_22h48.27.450,multiplicationStroop,2021.2.3,Win32,51.54639175,,,,,,,,,,,,,,,,,,,,,,,,,,,,,,,,,,,,,,,,,,,,,,,,,,,,,,,,,
,,,,left,1,0.419,0,11,11,2,1,3,-200,left,723,2022-01-23_22h48.27.450,multiplicationStroop,2021.2.3,Win32,51.54639175,,,,,,,,,,,,,,,,,,,,,,,,,,,,,,,,,,,,,,,,,,,,,,,,,,,,,,,,,
,,,,left,1,0.3343,0,12,12,6,1,8,-200,left,723,2022-01-23_22h48.27.450,multiplicationStroop,2021.2.3,Win32,51.54639175,,,,,,,,,,,,,,,,,,,,,,,,,,,,,,,,,,,,,,,,,,,,,,,,,,,,,,,,,
,,,,left,1,0.3029,0,13,13,5,1,7,-200,left,723,2022-01-23_22h48.27.450,multiplicationStroop,2021.2.3,Win32,51.54639175,,,,,,,,,,,,,,,,,,,,,,,,,,,,,,,,,,,,,,,,,,,,,,,,,,,,,,,,,
,,,,left,1,0.3188,0,14,14,4,1,6,-200,left,723,2022-01-23_22h48.27.450,multiplicationStroop,2021.2.3,Win32,51.54639175,,,,,,,,,,,,,,,,,,,,,,,,,,,,,,,,,,,,,,,,,,,,,,,,,,,,,,,,,
,,,,right,1,0.3856,0,15,15,12,1,6,200,right,723,2022-01-23_22h48.27.450,multiplicationStroop,2021.2.3,Win32,51.54639175,,,,,,,,,,,,,,,,,,,,,,,,,,,,,,,,,,,,,,,,,,,,,,,,,,,,,,,,,
,,,,right,1,0.4201,1,0,16,10,1,3,200,right,723,2022-01-23_22h48.27.450,multiplicationStroop,2021.2.3,Win32,51.54639175,,,,,,,,,,,,,,,,,,,,,,,,,,,,,,,,,,,,,,,,,,,,,,,,,,,,,,,,,
,,,,left,1,0.3185,1,1,17,4,1,6,-200,left,723,2022-01-23_22h48.27.450,multiplicationStroop,2021.2.3,Win32,51.54639175,,,,,,,,,,,,,,,,,,,,,,,,,,,,,,,,,,,,,,,,,,,,,,,,,,,,,,,,,
,,,,right,1,0.3027,1,2,18,11,1,4,200,right,723,2022-01-23_22h48.27.450,multiplicationStroop,2021.2.3,Win32,51.54639175,,,,,,,,,,,,,,,,,,,,,,,,,,,,,,,,,,,,,,,,,,,,,,,,,,,,,,,,,
,,,,left,1,0.3007,1,3,19,2,1,3,-200,left,723,2022-01-23_22h48.27.450,multiplicationStroop,2021.2.3,Win32,51.54639175,,,,,,,,,,,,,,,,,,,,,,,,,,,,,,,,,,,,,,,,,,,,,,,,,,,,,,,,,
,,,,right,1,0.3019,1,4,20,15,1,9,200,right,723,2022-01-23_22h48.27.450,multiplicationStroop,2021.2.3,Win32,51.54639175,,,,,,,,,,,,,,,,,,,,,,,,,,,,,,,,,,,,,,,,,,,,,,,,,,,,,,,,,
,,,,left,1,0.3524,1,5,21,3,1,4,-200,left,723,2022-01-23_22h48.27.450,multiplicationStroop,2021.2.3,Win32,51.54639175,,,,,,,,,,,,,,,,,,,,,,,,,,,,,,,,,,,,,,,,,,,,,,,,,,,,,,,,,
,,,,left,1,0.4189,1,6,22,1,1,2,-200,left,723,2022-01-23_22h48.27.450,multiplicationStroop,2021.2.3,Win32,51.54639175,,,,,,,,,,,,,,,,,,,,,,,,,,,,,,,,,,,,,,,,,,,,,,,,,,,,,,,,,
,,,,right,1,0.3537,1,7,23,14,1,8,200,right,723,2022-01-23_22h48.27.450,multiplicationStroop,2021.2.3,Win32,51.54639175,,,,,,,,,,,,,,,,,,,,,,,,,,,,,,,,,,,,,,,,,,,,,,,,,,,,,,,,,
,,,,right,1,0.4195,1,8,24,12,1,6,200,right,723,2022-01-23_22h48.27.450,multiplicationStroop,2021.2.3,Win32,51.54639175,,,,,,,,,,,,,,,,,,,,,,,,,,,,,,,,,,,,,,,,,,,,,,,,,,,,,,,,,
,,,,left,1,0.3357,1,9,25,6,1,8,-200,left,723,2022-01-23_22h48.27.450,multiplicationStroop,2021.2.3,Win32,51.54639175,,,,,,,,,,,,,,,,,,,,,,,,,,,,,,,,,,,,,,,,,,,,,,,,,,,,,,,,,
,,,,right,1,0.2846,1,10,26,9,1,2,200,right,723,2022-01-23_22h48.27.450,multiplicationStroop,2021.2.3,Win32,51.54639175,,,,,,,,,,,,,,,,,,,,,,,,,,,,,,,,,,,,,,,,,,,,,,,,,,,,,,,,,
,,,,left,1,0.5526,1,11,27,5,1,7,-200,left,723,2022-01-23_22h48.27.450,multiplicationStroop,2021.2.3,Win32,51.54639175,,,,,,,,,,,,,,,,,,,,,,,,,,,,,,,,,,,,,,,,,,,,,,,,,,,,,,,,,
,,,,left,1,0.3188,1,12,28,7,1,9,-200,left,723,2022-01-23_22h48.27.450,multiplicationStroop,2021.2.3,Win32,51.54639175,,,,,,,,,,,,,,,,,,,,,,,,,,,,,,,,,,,,,,,,,,,,,,,,,,,,,,,,,
,,,,right,1,0.2863,1,13,29,13,1,7,200,right,723,2022-01-23_22h48.27.450,multiplicationStroop,2021.2.3,Win32,51.54639175,,,,,,,,,,,,,,,,,,,,,,,,,,,,,,,,,,,,,,,,,,,,,,,,,,,,,,,,,
,,,,left,1,0.2688,1,14,30,0,1,1,-200,left,723,2022-01-23_22h48.27.450,multiplicationStroop,2021.2.3,Win32,51.54639175,,,,,,,,,,,,,,,,,,,,,,,,,,,,,,,,,,,,,,,,,,,,,,,,,,,,,,,,,
,,,,right,1,0.2864,1,15,31,8,1,1,200,right,723,2022-01-23_22h48.27.450,multiplicationStroop,2021.2.3,Win32,51.54639175,,,,,,,,,,,,,,,,,,,,,,,,,,,,,,,,,,,,,,,,,,,,,,,,,,,,,,,,,
,,,,left,1,0.3376,2,0,32,5,1,7,-200,left,723,2022-01-23_22h48.27.450,multiplicationStroop,2021.2.3,Win32,51.54639175,,,,,,,,,,,,,,,,,,,,,,,,,,,,,,,,,,,,,,,,,,,,,,,,,,,,,,,,,
,,,,right,1,0.2535,2,1,33,12,1,6,200,right,723,2022-01-23_22h48.27.450,multiplicationStroop,2021.2.3,Win32,51.54639175,,,,,,,,,,,,,,,,,,,,,,,,,,,,,,,,,,,,,,,,,,,,,,,,,,,,,,,,,
,,,,right,1,0.352,2,2,34,8,1,1,200,right,723,2022-01-23_22h48.27.450,multiplicationStroop,2021.2.3,Win32,51.54639175,,,,,,,,,,,,,,,,,,,,,,,,,,,,,,,,,,,,,,,,,,,,,,,,,,,,,,,,,
,,,,left,1,0.3202,2,3,35,4,1,6,-200,left,723,2022-01-23_22h48.27.450,multiplicationStroop,2021.2.3,Win32,51.54639175,,,,,,,,,,,,,,,,,,,,,,,,,,,,,,,,,,,,,,,,,,,,,,,,,,,,,,,,,
,,,,right,0,0.07,2,4,36,6,1,8,-200,left,723,2022-01-23_22h48.27.450,multiplicationStroop,2021.2.3,Win32,51.54639175,,,,,,,,,,,,,,,,,,,,,,,,,,,,,,,,,,,,,,,,,,,,,,,,,,,,,,,,,
,,,,left,1,0.3585,2,5,37,3,1,4,-200,left,723,2022-01-23_22h48.27.450,multiplicationStroop,2021.2.3,Win32,51.54639175,,,,,,,,,,,,,,,,,,,,,,,,,,,,,,,,,,,,,,,,,,,,,,,,,,,,,,,,,
,,,,left,1,0.391,2,6,38,0,1,1,-200,left,723,2022-01-23_22h48.27.450,multiplicationStroop,2021.2.3,Win32,51.54639175,,,,,,,,,,,,,,,,,,,,,,,,,,,,,,,,,,,,,,,,,,,,,,,,,,,,,,,,,
,,,,right,1,0.3931,2,7,39,14,1,8,200,right,723,2022-01-23_22h48.27.450,multiplicationStroop,2021.2.3,Win32,51.54639175,,,,,,,,,,,,,,,,,,,,,,,,,,,,,,,,,,,,,,,,,,,,,,,,,,,,,,,,,
,,,,left,1,0.3176,2,8,40,2,1,3,-200,left,723,2022-01-23_22h48.27.450,multiplicationStroop,2021.2.3,Win32,51.54639175,,,,,,,,,,,,,,,,,,,,,,,,,,,,,,,,,,,,,,,,,,,,,,,,,,,,,,,,,
,,,,right,1,0.3849,2,9,41,13,1,7,200,right,723,2022-01-23_22h48.27.450,multiplicationStroop,2021.2.3,Win32,51.54639175,,,,,,,,,,,,,,,,,,,,,,,,,,,,,,,,,,,,,,,,,,,,,,,,,,,,,,,,,
,,,,left,1,0.3587,2,10,42,7,1,9,-200,left,723,2022-01-23_22h48.27.450,multiplicationStroop,2021.2.3,Win32,51.54639175,,,,,,,,,,,,,,,,,,,,,,,,,,,,,,,,,,,,,,,,,,,,,,,,,,,,,,,,,
,,,,right,1,0.3181,2,11,43,11,1,4,200,right,723,2022-01-23_22h48.27.450,multiplicationStroop,2021.2.3,Win32,51.54639175,,,,,,,,,,,,,,,,,,,,,,,,,,,,,,,,,,,,,,,,,,,,,,,,,,,,,,,,,
,,,,right,1,0.4351,2,12,44,15,1,9,200,right,723,2022-01-23_22h48.27.450,multiplicationStroop,2021.2.3,Win32,51.54639175,,,,,,,,,,,,,,,,,,,,,,,,,,,,,,,,,,,,,,,,,,,,,,,,,,,,,,,,,
,,,,right,1,0.3426,2,13,45,9,1,2,200,right,723,2022-01-23_22h48.27.450,multiplicationStroop,2021.2.3,Win32,51.54639175,,,,,,,,,,,,,,,,,,,,,,,,,,,,,,,,,,,,,,,,,,,,,,,,,,,,,,,,,
,,,,right,1,0.3341,2,14,46,10,1,3,200,right,723,2022-01-23_22h48.27.450,multiplicationStroop,2021.2.3,Win32,51.54639175,,,,,,,,,,,,,,,,,,,,,,,,,,,,,,,,,,,,,,,,,,,,,,,,,,,,,,,,,
,,,,left,1,0.434,2,15,47,1,1,2,-200,left,723,2022-01-23_22h48.27.450,multiplicationStroop,2021.2.3,Win32,51.54639175,,,,,,,,,,,,,,,,,,,,,,,,,,,,,,,,,,,,,,,,,,,,,,,,,,,,,,,,,
,,,,left,1,0.4344,3,0,48,5,1,7,-200,left,723,2022-01-23_22h48.27.450,multiplicationStroop,2021.2.3,Win32,51.54639175,,,,,,,,,,,,,,,,,,,,,,,,,,,,,,,,,,,,,,,,,,,,,,,,,,,,,,,,,
,,,,right,1,0.5352,3,1,49,8,1,1,200,right,723,2022-01-23_22h48.27.450,multiplicationStroop,2021.2.3,Win32,51.54639175,,,,,,,,,,,,,,,,,,,,,,,,,,,,,,,,,,,,,,,,,,,,,,,,,,,,,,,,,
,,,,right,1,0.36,3,2,50,15,1,9,200,right,723,2022-01-23_22h48.27.450,multiplicationStroop,2021.2.3,Win32,51.54639175,,,,,,,,,,,,,,,,,,,,,,,,,,,,,,,,,,,,,,,,,,,,,,,,,,,,,,,,,
,,,,left,1,0.3852,3,3,51,1,1,2,-200,left,723,2022-01-23_22h48.27.450,multiplicationStroop,2021.2.3,Win32,51.54639175,,,,,,,,,,,,,,,,,,,,,,,,,,,,,,,,,,,,,,,,,,,,,,,,,,,,,,,,,
,,,,left,1,0.3678,3,4,52,0,1,1,-200,left,723,2022-01-23_22h48.27.450,multiplicationStroop,2021.2.3,Win32,51.54639175,,,,,,,,,,,,,,,,,,,,,,,,,,,,,,,,,,,,,,,,,,,,,,,,,,,,,,,,,
,,,,right,1,0.3188,3,5,53,13,1,7,200,right,723,2022-01-23_22h48.27.450,multiplicationStroop,2021.2.3,Win32,51.54639175,,,,,,,,,,,,,,,,,,,,,,,,,,,,,,,,,,,,,,,,,,,,,,,,,,,,,,,,,
,,,,right,1,0.3755,3,6,54,14,1,8,200,right,723,2022-01-23_22h48.27.450,multiplicationStroop,2021.2.3,Win32,51.54639175,,,,,,,,,,,,,,,,,,,,,,,,,,,,,,,,,,,,,,,,,,,,,,,,,,,,,,,,,
,,,,left,1,0.4017,3,7,55,2,1,3,-200,left,723,2022-01-23_22h48.27.450,multiplicationStroop,2021.2.3,Win32,51.54639175,,,,,,,,,,,,,,,,,,,,,,,,,,,,,,,,,,,,,,,,,,,,,,,,,,,,,,,,,
,,,,right,1,0.4343,3,8,56,10,1,3,200,right,723,2022-01-23_22h48.27.450,multiplicationStroop,2021.2.3,Win32,51.54639175,,,,,,,,,,,,,,,,,,,,,,,,,,,,,,,,,,,,,,,,,,,,,,,,,,,,,,,,,
,,,,right,1,0.3678,3,9,57,11,1,4,200,right,723,2022-01-23_22h48.27.450,multiplicationStroop,2021.2.3,Win32,51.54639175,,,,,,,,,,,,,,,,,,,,,,,,,,,,,,,,,,,,,,,,,,,,,,,,,,,,,,,,,
,,,,left,1,0.3562,3,10,58,3,1,4,-200,left,723,2022-01-23_22h48.27.450,multiplicationStroop,2021.2.3,Win32,51.54639175,,,,,,,,,,,,,,,,,,,,,,,,,,,,,,,,,,,,,,,,,,,,,,,,,,,,,,,,,
,,,,left,1,0.4188,3,11,59,6,1,8,-200,left,723,2022-01-23_22h48.27.450,multiplicationStroop,2021.2.3,Win32,51.54639175,,,,,,,,,,,,,,,,,,,,,,,,,,,,,,,,,,,,,,,,,,,,,,,,,,,,,,,,,
,,,,left,1,0.336,3,12,60,4,1,6,-200,left,723,2022-01-23_22h48.27.450,multiplicationStroop,2021.2.3,Win32,51.54639175,,,,,,,,,,,,,,,,,,,,,,,,,,,,,,,,,,,,,,,,,,,,,,,,,,,,,,,,,
,,,,right,1,0.5173,3,13,61,9,1,2,200,right,723,2022-01-23_22h48.27.450,multiplicationStroop,2021.2.3,Win32,51.54639175,,,,,,,,,,,,,,,,,,,,,,,,,,,,,,,,,,,,,,,,,,,,,,,,,,,,,,,,,
,,,,right,1,0.376,3,14,62,12,1,6,200,right,723,2022-01-23_22h48.27.450,multiplicationStroop,2021.2.3,Win32,51.54639175,,,,,,,,,,,,,,,,,,,,,,,,,,,,,,,,,,,,,,,,,,,,,,,,,,,,,,,,,
,,,,left,1,0.4094,3,15,63,7,1,9,-200,left,723,2022-01-23_22h48.27.450,multiplicationStroop,2021.2.3,Win32,51.54639175,,,,,,,,,,,,,,,,,,,,,,,,,,,,,,,,,,,,,,,,,,,,,,,,,,,,,,,,,
,,,,,,,,,,,,,,,723,2022-01-23_22h48.27.450,multiplicationStroop,2021.2.3,Win32,51.54639175,space,14.9204,space,4.0136,left,1,0.8962,0,0,0,50,1,6,6,6 | 6,0,1.9756,1.4111,neutral,left,,,,,,stimulusFile/physical.xlsx,,,,,,,,,,,,,,,,,,,,,,,,,,,,,,,
,,,,,,,,,,,,,,,723,2022-01-23_22h48.27.450,multiplicationStroop,2021.2.3,Win32,51.54639175,,,,,left,1,0.486,0,1,1,12,1,3,1,3 | 1,2,1.9756,1.4111,congruent,left,,,,,,stimulusFile/physical.xlsx,,,,,,,,,,,,,,,,,,,,,,,,,,,,,,,
,,,,,,,,,,,,,,,723,2022-01-23_22h48.27.450,multiplicationStroop,2021.2.3,Win32,51.54639175,,,,,right,1,0.3863,0,2,2,3,1,8,9,8 | 9,1,1.4111,1.9756,congruent,right,,,,,,stimulusFile/physical.xlsx,,,,,,,,,,,,,,,,,,,,,,,,,,,,,,,
,,,,,,,,,,,,,,,723,2022-01-23_22h48.27.450,multiplicationStroop,2021.2.3,Win32,51.54639175,,,,,left,1,0.4519,0,3,3,22,1,8,3,8 | 3,5,1.9756,1.4111,congruent,left,,,,,,stimulusFile/physical.xlsx,,,,,,,,,,,,,,,,,,,,,,,,,,,,,,,
,,,,,,,,,,,,,,,723,2022-01-23_22h48.27.450,multiplicationStroop,2021.2.3,Win32,51.54639175,,,,,right,1,0.4846,0,4,4,65,1,2,2,2 | 2,0,1.4111,1.9756,neutral,right,,,,,,stimulusFile/physical.xlsx,,,,,,,,,,,,,,,,,,,,,,,,,,,,,,,
,,,,,,,,,,,,,,,723,2022-01-23_22h48.27.450,multiplicationStroop,2021.2.3,Win32,51.54639175,,,,,left,1,0.6027,0,5,5,41,1,2,7,2 | 7,5,1.9756,1.4111,incongruent,left,,,,,,stimulusFile/physical.xlsx,,,,,,,,,,,,,,,,,,,,,,,,,,,,,,,
,,,,,,,,,,,,,,,723,2022-01-23_22h48.27.450,multiplicationStroop,2021.2.3,Win32,51.54639175,,,,,left,1,0.5982,0,6,6,23,1,9,4,9 | 4,5,1.9756,1.4111,congruent,left,,,,,,stimulusFile/physical.xlsx,,,,,,,,,,,,,,,,,,,,,,,,,,,,,,,
,,,,,,,,,,,,,,,723,2022-01-23_22h48.27.450,multiplicationStroop,2021.2.3,Win32,51.54639175,,,,,left,1,0.5026,0,7,7,33,1,2,4,2 | 4,2,1.9756,1.4111,incongruent,left,,,,,,stimulusFile/physical.xlsx,,,,,,,,,,,,,,,,,,,,,,,,,,,,,,,
,,,,,,,,,,,,,,,723,2022-01-23_22h48.27.450,multiplicationStroop,2021.2.3,Win32,51.54639175,,,,,right,1,0.385,0,8,8,17,1,2,7,2 | 7,5,1.4111,1.9756,congruent,right,,,,,,stimulusFile/physical.xlsx,,,,,,,,,,,,,,,,,,,,,,,,,,,,,,,
,,,,,,,,,,,,,,,723,2022-01-23_22h48.27.450,multiplicationStroop,2021.2.3,Win32,51.54639175,,,,,right,1,0.5527,0,9,9,37,1,4,2,4 | 2,2,1.4111,1.9756,incongruent,right,,,,,,stimulusFile/physical.xlsx,,,,,,,,,,,,,,,,,,,,,,,,,,,,,,,
,,,,,,,,,,,,,,,723,2022-01-23_22h48.27.450,multiplicationStroop,2021.2.3,Win32,51.54639175,,,,,left,1,0.4015,0,10,10,35,1,7,9,7 | 9,2,1.9756,1.4111,incongruent,left,,,,,,stimulusFile/physical.xlsx,,,,,,,,,,,,,,,,,,,,,,,,,,,,,,,
,,,,,,,,,,,,,,,723,2022-01-23_22h48.27.450,multiplicationStroop,2021.2.3,Win32,51.54639175,,,,,left,1,0.4046,0,11,11,6,1,7,6,7 | 6,1,1.9756,1.4111,congruent,left,,,,,,stimulusFile/physical.xlsx,,,,,,,,,,,,,,,,,,,,,,,,,,,,,,,
,,,,,,,,,,,,,,,723,2022-01-23_22h48.27.450,multiplicationStroop,2021.2.3,Win32,51.54639175,,,,,left,1,0.9676,0,12,12,5,1,4,3,4 | 3,1,1.9756,1.4111,congruent,left,,,,,,stimulusFile/physical.xlsx,,,,,,,,,,,,,,,,,,,,,,,,,,,,,,,
,,,,,,,,,,,,,,,723,2022-01-23_22h48.27.450,multiplicationStroop,2021.2.3,Win32,51.54639175,,,,,right,1,0.535,0,13,13,11,1,7,9,7 | 9,2,1.4111,1.9756,congruent,right,,,,,,stimulusFile/physical.xlsx,,,,,,,,,,,,,,,,,,,,,,,,,,,,,,,
,,,,,,,,,,,,,,,723,2022-01-23_22h48.27.450,multiplicationStroop,2021.2.3,Win32,51.54639175,,,,,left,1,0.5186,0,14,14,15,1,9,7,9 | 7,2,1.9756,1.4111,congruent,left,,,,,,stimulusFile/physical.xlsx,,,,,,,,,,,,,,,,,,,,,,,,,,,,,,,
,,,,,,,,,,,,,,,723,2022-01-23_22h48.27.450,multiplicationStroop,2021.2.3,Win32,51.54639175,,,,,right,1,0.3361,0,15,15,2,1,6,7,6 | 7,1,1.4111,1.9756,congruent,right,,,,,,stimulusFile/physical.xlsx,,,,,,,,,,,,,,,,,,,,,,,,,,,,,,,
,,,,,,,,,,,,,,,723,2022-01-23_22h48.27.450,multiplicationStroop,2021.2.3,Win32,51.54639175,,,,,left,1,0.5027,0,16,16,68,1,6,6,6 | 6,0,1.9756,1.4111,neutral,left,,,,,,stimulusFile/physical.xlsx,,,,,,,,,,,,,,,,,,,,,,,,,,,,,,,
,,,,,,,,,,,,,,,723,2022-01-23_22h48.27.450,multiplicationStroop,2021.2.3,Win32,51.54639175,,,,,right,1,0.3854,0,17,17,9,1,2,4,2 | 4,2,1.4111,1.9756,congruent,right,,,,,,stimulusFile/physical.xlsx,,,,,,,,,,,,,,,,,,,,,,,,,,,,,,,
,,,,,,,,,,,,,,,723,2022-01-23_22h48.27.450,multiplicationStroop,2021.2.3,Win32,51.54639175,,,,,left,1,0.385,0,18,18,27,1,8,9,8 | 9,1,1.9756,1.4111,incongruent,left,,,,,,stimulusFile/physical.xlsx,,,,,,,,,,,,,,,,,,,,,,,,,,,,,,,
,,,,,,,,,,,,,,,723,2022-01-23_22h48.27.450,multiplicationStroop,2021.2.3,Win32,51.54639175,,,,,right,1,0.3678,0,19,19,29,1,4,3,4 | 3,1,1.4111,1.9756,incongruent,right,,,,,,stimulusFile/physical.xlsx,,,,,,,,,,,,,,,,,,,,,,,,,,,,,,,
,,,,,,,,,,,,,,,723,2022-01-23_22h48.27.450,multiplicationStroop,2021.2.3,Win32,51.54639175,,,,,left,1,0.3519,0,20,20,14,1,8,6,8 | 6,2,1.9756,1.4111,congruent,left,,,,,,stimulusFile/physical.xlsx,,,,,,,,,,,,,,,,,,,,,,,,,,,,,,,
,,,,,,,,,,,,,,,723,2022-01-23_22h48.27.450,multiplicationStroop,2021.2.3,Win32,51.54639175,,,,,right,0,0.4184,0,21,21,7,1,9,8,9 | 8,1,1.9756,1.4111,congruent,left,,,,,,stimulusFile/physical.xlsx,,,,,,,,,,,,,,,,,,,,,,,,,,,,,,,
,,,,,,,,,,,,,,,723,2022-01-23_22h48.27.450,multiplicationStroop,2021.2.3,Win32,51.54639175,,,,,left,1,0.8853,0,22,22,13,1,4,2,4 | 2,2,1.9756,1.4111,congruent,left,,,,,,stimulusFile/physical.xlsx,,,,,,,,,,,,,,,,,,,,,,,,,,,,,,,
,,,,,,,,,,,,,,,723,2022-01-23_22h48.27.450,multiplicationStroop,2021.2.3,Win32,51.54639175,,,,,right,1,0.4847,0,23,23,56,1,1,1,1 | 1,0,1.4111,1.9756,neutral,right,,,,,,stimulusFile/physical.xlsx,,,,,,,,,,,,,,,,,,,,,,,,,,,,,,,
,,,,,,,,,,,,,,,723,2022-01-23_22h48.27.450,multiplicationStroop,2021.2.3,Win32,51.54639175,,,,,right,1,0.5686,0,24,24,16,1,1,6,1 | 6,5,1.4111,1.9756,congruent,right,,,,,,stimulusFile/physical.xlsx,,,,,,,,,,,,,,,,,,,,,,,,,,,,,,,
,,,,,,,,,,,,,,,723,2022-01-23_22h48.27.450,multiplicationStroop,2021.2.3,Win32,51.54639175,,,,,right,1,0.5349,0,25,25,36,1,3,1,3 | 1,2,1.4111,1.9756,incongruent,right,,,,,,stimulusFile/physical.xlsx,,,,,,,,,,,,,,,,,,,,,,,,,,,,,,,
,,,,,,,,,,,,,,,723,2022-01-23_22h48.27.450,multiplicationStroop,2021.2.3,Win32,51.54639175,,,,,right,0,0.5016,0,26,26,69,1,7,7,7 | 7,0,1.4111,1.9756,neutral,left,,,,,,stimulusFile/physical.xlsx,,,,,,,,,,,,,,,,,,,,,,,,,,,,,,,
,,,,,,,,,,,,,,,723,2022-01-23_22h48.27.450,multiplicationStroop,2021.2.3,Win32,51.54639175,,,,,right,1,0.4022,0,27,27,1,1,3,4,3 | 4,1,1.4111,1.9756,congruent,right,,,,,,stimulusFile/physical.xlsx,,,,,,,,,,,,,,,,,,,,,,,,,,,,,,,
,,,,,,,,,,,,,,,723,2022-01-23_22h48.27.450,multiplicationStroop,2021.2.3,Win32,51.54639175,,,,,left,1,0.6352,0,28,28,53,1,4,4,4 | 4,0,1.9756,1.4111,neutral,left,,,,,,stimulusFile/physical.xlsx,,,,,,,,,,,,,,,,,,,,,,,,,,,,,,,
,,,,,,,,,,,,,,,723,2022-01-23_22h48.27.450,multiplicationStroop,2021.2.3,Win32,51.54639175,,,,,right,1,0.4355,0,29,29,60,1,3,3,3 | 3,0,1.4111,1.9756,neutral,right,,,,,,stimulusFile/physical.xlsx,,,,,,,,,,,,,,,,,,,,,,,,,,,,,,,
,,,,,,,,,,,,,,,723,2022-01-23_22h48.27.450,multiplicationStroop,2021.2.3,Win32,51.54639175,,,,,right,0,0.5349,0,30,30,71,1,9,9,9 | 9,0,1.4111,1.9756,neutral,left,,,,,,stimulusFile/physical.xlsx,,,,,,,,,,,,,,,,,,,,,,,,,,,,,,,
,,,,,,,,,,,,,,,723,2022-01-23_22h48.27.450,multiplicationStroop,2021.2.3,Win32,51.54639175,,,,,right,1,0.452,0,31,31,63,1,9,9,9 | 9,0,1.4111,1.9756,neutral,right,,,,,,stimulusFile/physical.xlsx,,,,,,,,,,,,,,,,,,,,,,,,,,,,,,,
,,,,,,,,,,,,,,,723,2022-01-23_22h48.27.450,multiplicationStroop,2021.2.3,Win32,51.54639175,,,,,right,1,0.768,0,32,32,28,1,2,1,2 | 1,1,1.4111,1.9756,incongruent,right,,,,,,stimulusFile/physical.xlsx,,,,,,,,,,,,,,,,,,,,,,,,,,,,,,,
,,,,,,,,,,,,,,,723,2022-01-23_22h48.27.450,multiplicationStroop,2021.2.3,Win32,51.54639175,,,,,left,0,0.4837,0,33,33,64,1,1,1,1 | 1,0,1.9756,1.4111,neutral,right,,,,,,stimulusFile/physical.xlsx,,,,,,,,,,,,,,,,,,,,,,,,,,,,,,,
,,,,,,,,,,,,,,,723,2022-01-23_22h48.27.450,multiplicationStroop,2021.2.3,Win32,51.54639175,,,,,right,1,0.517,0,34,34,31,1,9,8,9 | 8,1,1.4111,1.9756,incongruent,right,,,,,,stimulusFile/physical.xlsx,,,,,,,,,,,,,,,,,,,,,,,,,,,,,,,
,,,,,,,,,,,,,,,723,2022-01-23_22h48.27.450,multiplicationStroop,2021.2.3,Win32,51.54639175,,,,,right,1,0.5186,0,35,35,57,1,2,2,2 | 2,0,1.4111,1.9756,neutral,right,,,,,,stimulusFile/physical.xlsx,,,,,,,,,,,,,,,,,,,,,,,,,,,,,,,
,,,,,,,,,,,,,,,723,2022-01-23_22h48.27.450,multiplicationStroop,2021.2.3,Win32,51.54639175,,,,,left,1,0.552,0,36,36,34,1,6,8,6 | 8,2,1.9756,1.4111,incongruent,left,,,,,,stimulusFile/physical.xlsx,,,,,,,,,,,,,,,,,,,,,,,,,,,,,,,
,,,,,,,,,,,,,,,723,2022-01-23_22h48.27.450,multiplicationStroop,2021.2.3,Win32,51.54639175,,,,,left,1,0.6189,0,37,37,48,1,1,1,1 | 1,0,1.9756,1.4111,neutral,left,,,,,,stimulusFile/physical.xlsx,,,,,,,,,,,,,,,,,,,,,,,,,,,,,,,
,,,,,,,,,,,,,,,723,2022-01-23_22h48.27.450,multiplicationStroop,2021.2.3,Win32,51.54639175,,,,,left,1,0.4356,0,38,38,20,1,6,1,6 | 1,5,1.9756,1.4111,congruent,left,,,,,,stimulusFile/physical.xlsx,,,,,,,,,,,,,,,,,,,,,,,,,,,,,,,
,,,,,,,,,,,,,,,723,2022-01-23_22h48.27.450,multiplicationStroop,2021.2.3,Win32,51.54639175,,,,,right,1,0.6011,0,39,39,30,1,7,6,7 | 6,1,1.4111,1.9756,incongruent,right,,,,,,stimulusFile/physical.xlsx,,,,,,,,,,,,,,,,,,,,,,,,,,,,,,,
,,,,,,,,,,,,,,,723,2022-01-23_22h48.27.450,multiplicationStroop,2021.2.3,Win32,51.54639175,,,,,left,1,0.6706,0,40,40,40,1,1,6,1 | 6,5,1.9756,1.4111,incongruent,left,,,,,,stimulusFile/physical.xlsx,,,,,,,,,,,,,,,,,,,,,,,,,,,,,,,
,,,,,,,,,,,,,,,723,2022-01-23_22h48.27.450,multiplicationStroop,2021.2.3,Win32,51.54639175,,,,,left,1,0.5103,0,41,41,54,1,7,7,7 | 7,0,1.9756,1.4111,neutral,left,,,,,,stimulusFile/physical.xlsx,,,,,,,,,,,,,,,,,,,,,,,,,,,,,,,
,,,,,,,,,,,,,,,723,2022-01-23_22h48.27.450,multiplicationStroop,2021.2.3,Win32,51.54639175,,,,,left,1,0.3519,0,42,42,52,1,2,2,2 | 2,0,1.9756,1.4111,neutral,left,,,,,,stimulusFile/physical.xlsx,,,,,,,,,,,,,,,,,,,,,,,,,,,,,,,
,,,,,,,,,,,,,,,723,2022-01-23_22h48.27.450,multiplicationStroop,2021.2.3,Win32,51.54639175,,,,,right,1,0.4574,0,43,43,39,1,9,7,9 | 7,2,1.4111,1.9756,incongruent,right,,,,,,stimulusFile/physical.xlsx,,,,,,,,,,,,,,,,,,,,,,,,,,,,,,,
,,,,,,,,,,,,,,,723,2022-01-23_22h48.27.450,multiplicationStroop,2021.2.3,Win32,51.54639175,,,,,left,1,0.4418,0,44,44,25,1,3,4,3 | 4,1,1.9756,1.4111,incongruent,left,,,,,,stimulusFile/physical.xlsx,,,,,,,,,,,,,,,,,,,,,,,,,,,,,,,
,,,,,,,,,,,,,,,723,2022-01-23_22h48.27.450,multiplicationStroop,2021.2.3,Win32,51.54639175,,,,,left,1,0.5188,0,45,45,42,1,3,8,3 | 8,5,1.9756,1.4111,incongruent,left,,,,,,stimulusFile/physical.xlsx,,,,,,,,,,,,,,,,,,,,,,,,,,,,,,,
,,,,,,,,,,,,,,,723,2022-01-23_22h48.27.450,multiplicationStroop,2021.2.3,Win32,51.54639175,,,,,right,1,0.4929,0,46,46,67,1,4,4,4 | 4,0,1.4111,1.9756,neutral,right,,,,,,stimulusFile/physical.xlsx,,,,,,,,,,,,,,,,,,,,,,,,,,,,,,,
,,,,,,,,,,,,,,,723,2022-01-23_22h48.27.450,multiplicationStroop,2021.2.3,Win32,51.54639175,,,,,right,1,0.5667,0,47,47,44,1,6,1,6 | 1,5,1.4111,1.9756,incongruent,right,,,,,,stimulusFile/physical.xlsx,,,,,,,,,,,,,,,,,,,,,,,,,,,,,,,
,,,,,,,,,,,,,,,723,2022-01-23_22h48.27.450,multiplicationStroop,2021.2.3,Win32,51.54639175,,,,,right,1,0.5015,0,48,48,58,1,6,6,6 | 6,0,1.4111,1.9756,neutral,right,,,,,,stimulusFile/physical.xlsx,,,,,,,,,,,,,,,,,,,,,,,,,,,,,,,
,,,,,,,,,,,,,,,723,2022-01-23_22h48.27.450,multiplicationStroop,2021.2.3,Win32,51.54639175,,,,,right,1,0.4168,0,49,49,47,1,9,4,9 | 4,5,1.4111,1.9756,incongruent,right,,,,,,stimulusFile/physical.xlsx,,,,,,,,,,,,,,,,,,,,,,,,,,,,,,,
,,,,,,,,,,,,,,,723,2022-01-23_22h48.27.450,multiplicationStroop,2021.2.3,Win32,51.54639175,,,,,left,1,0.5173,0,50,50,32,1,1,3,1 | 3,2,1.9756,1.4111,incongruent,left,,,,,,stimulusFile/physical.xlsx,,,,,,,,,,,,,,,,,,,,,,,,,,,,,,,
,,,,,,,,,,,,,,,723,2022-01-23_22h48.27.450,multiplicationStroop,2021.2.3,Win32,51.54639175,,,,,left,1,0.4839,0,51,51,51,1,8,8,8 | 8,0,1.9756,1.4111,neutral,left,,,,,,stimulusFile/physical.xlsx,,,,,,,,,,,,,,,,,,,,,,,,,,,,,,,
,,,,,,,,,,,,,,,723,2022-01-23_22h48.27.450,multiplicationStroop,2021.2.3,Win32,51.54639175,,,,,left,1,0.6676,0,52,52,70,1,8,8,8 | 8,0,1.9756,1.4111,neutral,left,,,,,,stimulusFile/physical.xlsx,,,,,,,,,,,,,,,,,,,,,,,,,,,,,,,
,,,,,,,,,,,,,,,723,2022-01-23_22h48.27.450,multiplicationStroop,2021.2.3,Win32,51.54639175,,,,,right,1,0.4179,0,53,53,10,1,6,8,6 | 8,2,1.4111,1.9756,congruent,right,,,,,,stimulusFile/physical.xlsx,,,,,,,,,,,,,,,,,,,,,,,,,,,,,,,
,,,,,,,,,,,,,,,723,2022-01-23_22h48.27.450,multiplicationStroop,2021.2.3,Win32,51.54639175,,,,,right,1,0.5177,0,54,54,59,1,7,7,7 | 7,0,1.4111,1.9756,neutral,right,,,,,,stimulusFile/physical.xlsx,,,,,,,,,,,,,,,,,,,,,,,,,,,,,,,
,,,,,,,,,,,,,,,723,2022-01-23_22h48.27.450,multiplicationStroop,2021.2.3,Win32,51.54639175,,,,,left,1,0.5173,0,55,55,49,1,3,3,3 | 3,0,1.9756,1.4111,neutral,left,,,,,,stimulusFile/physical.xlsx,,,,,,,,,,,,,,,,,,,,,,,,,,,,,,,
,,,,,,,,,,,,,,,723,2022-01-23_22h48.27.450,multiplicationStroop,2021.2.3,Win32,51.54639175,,,,,left,1,0.7403,0,56,56,43,1,4,9,4 | 9,5,1.9756,1.4111,incongruent,left,,,,,,stimulusFile/physical.xlsx,,,,,,,,,,,,,,,,,,,,,,,,,,,,,,,
,,,,,,,,,,,,,,,723,2022-01-23_22h48.27.450,multiplicationStroop,2021.2.3,Win32,51.54639175,,,,,left,1,0.6357,0,57,57,4,1,2,1,2 | 1,1,1.9756,1.4111,congruent,left,,,,,,stimulusFile/physical.xlsx,,,,,,,,,,,,,,,,,,,,,,,,,,,,,,,
,,,,,,,,,,,,,,,723,2022-01-23_22h48.27.450,multiplicationStroop,2021.2.3,Win32,51.54639175,,,,,right,1,0.4425,0,58,58,38,1,8,6,8 | 6,2,1.4111,1.9756,incongruent,right,,,,,,stimulusFile/physical.xlsx,,,,,,,,,,,,,,,,,,,,,,,,,,,,,,,
,,,,,,,,,,,,,,,723,2022-01-23_22h48.27.450,multiplicationStroop,2021.2.3,Win32,51.54639175,,,,,left,1,0.5667,0,59,59,21,1,7,2,7 | 2,5,1.9756,1.4111,congruent,left,,,,,,stimulusFile/physical.xlsx,,,,,,,,,,,,,,,,,,,,,,,,,,,,,,,
,,,,,,,,,,,,,,,723,2022-01-23_22h48.27.450,multiplicationStroop,2021.2.3,Win32,51.54639175,,,,,right,1,0.37,0,60,60,45,1,7,2,7 | 2,5,1.4111,1.9756,incongruent,right,,,,,,stimulusFile/physical.xlsx,,,,,,,,,,,,,,,,,,,,,,,,,,,,,,,
,,,,,,,,,,,,,,,723,2022-01-23_22h48.27.450,multiplicationStroop,2021.2.3,Win32,51.54639175,,,,,right,1,0.6009,0,61,61,46,1,8,3,8 | 3,5,1.4111,1.9756,incongruent,right,,,,,,stimulusFile/physical.xlsx,,,,,,,,,,,,,,,,,,,,,,,,,,,,,,,
,,,,,,,,,,,,,,,723,2022-01-23_22h48.27.450,multiplicationStroop,2021.2.3,Win32,51.54639175,,,,,right,1,0.4837,0,62,62,18,1,3,8,3 | 8,5,1.4111,1.9756,congruent,right,,,,,,stimulusFile/physical.xlsx,,,,,,,,,,,,,,,,,,,,,,,,,,,,,,,
,,,,,,,,,,,,,,,723,2022-01-23_22h48.27.450,multiplicationStroop,2021.2.3,Win32,51.54639175,,,,,left,1,0.6666,0,63,63,26,1,6,7,6 | 7,1,1.9756,1.4111,incongruent,left,,,,,,stimulusFile/physical.xlsx,,,,,,,,,,,,,,,,,,,,,,,,,,,,,,,
,,,,,,,,,,,,,,,723,2022-01-23_22h48.27.450,multiplicationStroop,2021.2.3,Win32,51.54639175,,,,,right,1,0.4515,0,64,64,0,1,1,2,1 | 2,1,1.4111,1.9756,congruent,right,,,,,,stimulusFile/physical.xlsx,,,,,,,,,,,,,,,,,,,,,,,,,,,,,,,
,,,,,,,,,,,,,,,723,2022-01-23_22h48.27.450,multiplicationStroop,2021.2.3,Win32,51.54639175,,,,,right,1,0.5175,0,65,65,61,1,4,4,4 | 4,0,1.4111,1.9756,neutral,right,,,,,,stimulusFile/physical.xlsx,,,,,,,,,,,,,,,,,,,,,,,,,,,,,,,
,,,,,,,,,,,,,,,723,2022-01-23_22h48.27.450,multiplicationStroop,2021.2.3,Win32,51.54639175,,,,,right,1,0.6569,0,66,66,8,1,1,3,1 | 3,2,1.4111,1.9756,congruent,right,,,,,,stimulusFile/physical.xlsx,,,,,,,,,,,,,,,,,,,,,,,,,,,,,,,
,,,,,,,,,,,,,,,723,2022-01-23_22h48.27.450,multiplicationStroop,2021.2.3,Win32,51.54639175,,,,,left,0,0.5492,0,67,67,66,1,3,3,3 | 3,0,1.9756,1.4111,neutral,right,,,,,,stimulusFile/physical.xlsx,,,,,,,,,,,,,,,,,,,,,,,,,,,,,,,
,,,,,,,,,,,,,,,723,2022-01-23_22h48.27.450,multiplicationStroop,2021.2.3,Win32,51.54639175,,,,,left,1,0.5838,0,68,68,24,1,1,2,1 | 2,1,1.9756,1.4111,incongruent,left,,,,,,stimulusFile/physical.xlsx,,,,,,,,,,,,,,,,,,,,,,,,,,,,,,,
,,,,,,,,,,,,,,,723,2022-01-23_22h48.27.450,multiplicationStroop,2021.2.3,Win32,51.54639175,,,,,right,1,0.4296,0,69,69,19,1,4,9,4 | 9,5,1.4111,1.9756,congruent,right,,,,,,stimulusFile/physical.xlsx,,,,,,,,,,,,,,,,,,,,,,,,,,,,,,,
,,,,,,,,,,,,,,,723,2022-01-23_22h48.27.450,multiplicationStroop,2021.2.3,Win32,51.54639175,,,,,right,1,0.5239,0,70,70,62,1,8,8,8 | 8,0,1.4111,1.9756,neutral,right,,,,,,stimulusFile/physical.xlsx,,,,,,,,,,,,,,,,,,,,,,,,,,,,,,,
,,,,,,,,,,,,,,,723,2022-01-23_22h48.27.450,multiplicationStroop,2021.2.3,Win32,51.54639175,,,,,left,1,0.4801,0,71,71,55,1,9,9,9 | 9,0,1.9756,1.4111,neutral,left,,,,,,stimulusFile/physical.xlsx,,,,,,,,,,,,,,,,,,,,,,,,,,,,,,,
,,,,,,,,,,,,,,,723,2022-01-23_22h48.27.450,multiplicationStroop,2021.2.3,Win32,51.54639175,,,,,,,,,,,,,,,,,,,,,0,0,0,1,1,stimulusFile/physical.xlsx,PHYSICALLY larger (larger font size).,images/physicallyLarger.png,,,,,,,,,,,,,,,,,,,,,,,,,,,,,
,,,,,,,,,,,,,,,723,2022-01-23_22h48.27.450,multiplicationStroop,2021.2.3,Win32,51.54639175,space,6.6021,space,1.2324,left,1,0.7179,0,0,0,15,1,9,7,9 | 7,2,1.9756,1.4111,congruent,left,,,,,,stimulusFile/magnitude.xlsx,,,,,,,,,,,,,,,,,,,,,,,,,,,,,,,
,,,,,,,,,,,,,,,723,2022-01-23_22h48.27.450,multiplicationStroop,2021.2.3,Win32,51.54639175,,,,,left,1,0.8859,0,1,1,37,1,4,2,4 | 2,2,1.4111,1.9756,incongruent,left,,,,,,stimulusFile/magnitude.xlsx,,,,,,,,,,,,,,,,,,,,,,,,,,,,,,,
,,,,,,,,,,,,,,,723,2022-01-23_22h48.27.450,multiplicationStroop,2021.2.3,Win32,51.54639175,,,,,right,1,0.9656,0,2,2,58,1,6,8,6 | 8,2,1.6933,1.6933,neutral,right,,,,,,stimulusFile/magnitude.xlsx,,,,,,,,,,,,,,,,,,,,,,,,,,,,,,,
,,,,,,,,,,,,,,,723,2022-01-23_22h48.27.450,multiplicationStroop,2021.2.3,Win32,51.54639175,,,,,right,1,0.9008,0,3,3,59,1,7,9,7 | 9,2,1.6933,1.6933,neutral,right,,,,,,stimulusFile/magnitude.xlsx,,,,,,,,,,,,,,,,,,,,,,,,,,,,,,,
,,,,,,,,,,,,,,,723,2022-01-23_22h48.27.450,multiplicationStroop,2021.2.3,Win32,51.54639175,,,,,left,0,0.54,0,4,4,27,1,8,9,8 | 9,1,1.9756,1.4111,incongruent,right,,,,,,stimulusFile/magnitude.xlsx,,,,,,,,,,,,,,,,,,,,,,,,,,,,,,,
,,,,,,,,,,,,,,,723,2022-01-23_22h48.27.450,multiplicationStroop,2021.2.3,Win32,51.54639175,,,,,left,1,0.7315,0,5,5,60,1,3,1,3 | 1,2,1.6933,1.6933,neutral,left,,,,,,stimulusFile/magnitude.xlsx,,,,,,,,,,,,,,,,,,,,,,,,,,,,,,,
,,,,,,,,,,,,,,,723,2022-01-23_22h48.27.450,multiplicationStroop,2021.2.3,Win32,51.54639175,,,,,left,1,0.5512,0,6,6,22,1,8,3,8 | 3,5,1.9756,1.4111,congruent,left,,,,,,stimulusFile/magnitude.xlsx,,,,,,,,,,,,,,,,,,,,,,,,,,,,,,,
,,,,,,,,,,,,,,,723,2022-01-23_22h48.27.450,multiplicationStroop,2021.2.3,Win32,51.54639175,,,,,left,1,0.7512,0,7,7,23,1,9,4,9 | 4,5,1.9756,1.4111,congruent,left,,,,,,stimulusFile/magnitude.xlsx,,,,,,,,,,,,,,,,,,,,,,,,,,,,,,,
,,,,,,,,,,,,,,,723,2022-01-23_22h48.27.450,multiplicationStroop,2021.2.3,Win32,51.54639175,,,,,right,1,0.6931,0,8,8,35,1,7,9,7 | 9,2,1.9756,1.4111,incongruent,right,,,,,,stimulusFile/magnitude.xlsx,,,,,,,,,,,,,,,,,,,,,,,,,,,,,,,
,,,,,,,,,,,,,,,723,2022-01-23_22h48.27.450,multiplicationStroop,2021.2.3,Win32,51.54639175,,,,,right,0,0.7331,0,9,9,31,1,9,8,9 | 8,1,1.4111,1.9756,incongruent,left,,,,,,stimulusFile/magnitude.xlsx,,,,,,,,,,,,,,,,,,,,,,,,,,,,,,,
,,,,,,,,,,,,,,,723,2022-01-23_22h48.27.450,multiplicationStroop,2021.2.3,Win32,51.54639175,,,,,right,1,0.9648,0,10,10,65,1,2,7,2 | 7,5,1.6933,1.6933,neutral,right,,,,,,stimulusFile/magnitude.xlsx,,,,,,,,,,,,,,,,,,,,,,,,,,,,,,,
,,,,,,,,,,,,,,,723,2022-01-23_22h48.27.450,multiplicationStroop,2021.2.3,Win32,51.54639175,,,,,left,1,1.1571,0,11,11,54,1,7,6,7 | 6,1,1.6933,1.6933,neutral,left,,,,,,stimulusFile/magnitude.xlsx,,,,,,,,,,,,,,,,,,,,,,,,,,,,,,,
,,,,,,,,,,,,,,,723,2022-01-23_22h48.27.450,multiplicationStroop,2021.2.3,Win32,51.54639175,,,,,right,1,0.658,0,12,12,26,1,6,7,6 | 7,1,1.9756,1.4111,incongruent,right,,,,,,stimulusFile/magnitude.xlsx,,,,,,,,,,,,,,,,,,,,,,,,,,,,,,,
,,,,,,,,,,,,,,,723,2022-01-23_22h48.27.450,multiplicationStroop,2021.2.3,Win32,51.54639175,,,,,left,1,0.8921,0,13,13,47,1,9,4,9 | 4,5,1.4111,1.9756,incongruent,left,,,,,,stimulusFile/magnitude.xlsx,,,,,,,,,,,,,,,,,,,,,,,,,,,,,,,
,,,,,,,,,,,,,,,723,2022-01-23_22h48.27.450,multiplicationStroop,2021.2.3,Win32,51.54639175,,,,,right,1,0.6105,0,14,14,16,1,1,6,1 | 6,5,1.4111,1.9756,congruent,right,,,,,,stimulusFile/magnitude.xlsx,,,,,,,,,,,,,,,,,,,,,,,,,,,,,,,
,,,,,,,,,,,,,,,723,2022-01-23_22h48.27.450,multiplicationStroop,2021.2.3,Win32,51.54639175,,,,,right,1,0.6903,0,15,15,17,1,2,7,2 | 7,5,1.4111,1.9756,congruent,right,,,,,,stimulusFile/magnitude.xlsx,,,,,,,,,,,,,,,,,,,,,,,,,,,,,,,
,,,,,,,,,,,,,,,723,2022-01-23_22h48.27.450,multiplicationStroop,2021.2.3,Win32,51.54639175,,,,,left,1,1.375,0,16,16,30,1,7,6,7 | 6,1,1.4111,1.9756,incongruent,left,,,,,,stimulusFile/magnitude.xlsx,,,,,,,,,,,,,,,,,,,,,,,,,,,,,,,
,,,,,,,,,,,,,,,723,2022-01-23_22h48.27.450,multiplicationStroop,2021.2.3,Win32,51.54639175,,,,,left,1,0.5925,0,17,17,14,1,8,6,8 | 6,2,1.9756,1.4111,congruent,left,,,,,,stimulusFile/magnitude.xlsx,,,,,,,,,,,,,,,,,,,,,,,,,,,,,,,
,,,,,,,,,,,,,,,723,2022-01-23_22h48.27.450,multiplicationStroop,2021.2.3,Win32,51.54639175,,,,,left,1,0.6353,0,18,18,71,1,9,4,9 | 4,5,1.6933,1.6933,neutral,left,,,,,,stimulusFile/magnitude.xlsx,,,,,,,,,,,,,,,,,,,,,,,,,,,,,,,
,,,,,,,,,,,,,,,723,2022-01-23_22h48.27.450,multiplicationStroop,2021.2.3,Win32,51.54639175,,,,,left,1,0.6917,0,19,19,62,1,8,6,8 | 6,2,1.6933,1.6933,neutral,left,,,,,,stimulusFile/magnitude.xlsx,,,,,,,,,,,,,,,,,,,,,,,,,,,,,,,
,,,,,,,,,,,,,,,723,2022-01-23_22h48.27.450,multiplicationStroop,2021.2.3,Win32,51.54639175,,,,,right,1,0.7346,0,20,20,24,1,1,2,1 | 2,1,1.9756,1.4111,incongruent,right,,,,,,stimulusFile/magnitude.xlsx,,,,,,,,,,,,,,,,,,,,,,,,,,,,,,,
,,,,,,,,,,,,,,,723,2022-01-23_22h48.27.450,multiplicationStroop,2021.2.3,Win32,51.54639175,,,,,right,1,0.9008,0,21,21,41,1,2,7,2 | 7,5,1.9756,1.4111,incongruent,right,,,,,,stimulusFile/magnitude.xlsx,,,,,,,,,,,,,,,,,,,,,,,,,,,,,,,
,,,,,,,,,,,,,,,723,2022-01-23_22h48.27.450,multiplicationStroop,2021.2.3,Win32,51.54639175,,,,,right,1,0.6349,0,22,22,10,1,6,8,6 | 8,2,1.4111,1.9756,congruent,right,,,,,,stimulusFile/magnitude.xlsx,,,,,,,,,,,,,,,,,,,,,,,,,,,,,,,
,,,,,,,,,,,,,,,723,2022-01-23_22h48.27.450,multiplicationStroop,2021.2.3,Win32,51.54639175,,,,,left,1,0.9185,0,23,23,46,1,8,3,8 | 3,5,1.4111,1.9756,incongruent,left,,,,,,stimulusFile/magnitude.xlsx,,,,,,,,,,,,,,,,,,,,,,,,,,,,,,,
,,,,,,,,,,,,,,,723,2022-01-23_22h48.27.450,multiplicationStroop,2021.2.3,Win32,51.54639175,,,,,right,1,0.9986,0,24,24,51,1,8,9,8 | 9,1,1.6933,1.6933,neutral,right,,,,,,stimulusFile/magnitude.xlsx,,,,,,,,,,,,,,,,,,,,,,,,,,,,,,,
,,,,,,,,,,,,,,,723,2022-01-23_22h48.27.450,multiplicationStroop,2021.2.3,Win32,51.54639175,,,,,left,1,0.6008,0,25,25,12,1,3,1,3 | 1,2,1.9756,1.4111,congruent,left,,,,,,stimulusFile/magnitude.xlsx,,,,,,,,,,,,,,,,,,,,,,,,,,,,,,,
,,,,,,,,,,,,,,,723,2022-01-23_22h48.27.450,multiplicationStroop,2021.2.3,Win32,51.54639175,,,,,right,1,0.6515,0,26,26,66,1,3,8,3 | 8,5,1.6933,1.6933,neutral,right,,,,,,stimulusFile/magnitude.xlsx,,,,,,,,,,,,,,,,,,,,,,,,,,,,,,,
,,,,,,,,,,,,,,,723,2022-01-23_22h48.27.450,multiplicationStroop,2021.2.3,Win32,51.54639175,,,,,right,1,0.6425,0,27,27,2,1,6,7,6 | 7,1,1.4111,1.9756,congruent,right,,,,,,stimulusFile/magnitude.xlsx,,,,,,,,,,,,,,,,,,,,,,,,,,,,,,,
,,,,,,,,,,,,,,,723,2022-01-23_22h48.27.450,multiplicationStroop,2021.2.3,Win32,51.54639175,,,,,right,1,0.8347,0,28,28,0,1,1,2,1 | 2,1,1.4111,1.9756,congruent,right,,,,,,stimulusFile/magnitude.xlsx,,,,,,,,,,,,,,,,,,,,,,,,,,,,,,,
,,,,,,,,,,,,,,,723,2022-01-23_22h48.27.450,multiplicationStroop,2021.2.3,Win32,51.54639175,,,,,left,1,0.9833,0,29,29,28,1,2,1,2 | 1,1,1.4111,1.9756,incongruent,left,,,,,,stimulusFile/magnitude.xlsx,,,,,,,,,,,,,,,,,,,,,,,,,,,,,,,
,,,,,,,,,,,,,,,723,2022-01-23_22h48.27.450,multiplicationStroop,2021.2.3,Win32,51.54639175,,,,,left,1,0.8589,0,30,30,68,1,6,1,6 | 1,5,1.6933,1.6933,neutral,left,,,,,,stimulusFile/magnitude.xlsx,,,,,,,,,,,,,,,,,,,,,,,,,,,,,,,
,,,,,,,,,,,,,,,723,2022-01-23_22h48.27.450,multiplicationStroop,2021.2.3,Win32,51.54639175,,,,,right,1,0.6075,0,31,31,40,1,1,6,1 | 6,5,1.9756,1.4111,incongruent,right,,,,,,stimulusFile/magnitude.xlsx,,,,,,,,,,,,,,,,,,,,,,,,,,,,,,,
,,,,,,,,,,,,,,,723,2022-01-23_22h48.27.450,multiplicationStroop,2021.2.3,Win32,51.54639175,,,,,left,0,0.8087,0,32,32,43,1,4,9,4 | 9,5,1.9756,1.4111,incongruent,right,,,,,,stimulusFile/magnitude.xlsx,,,,,,,,,,,,,,,,,,,,,,,,,,,,,,,
,,,,,,,,,,,,,,,723,2022-01-23_22h48.27.450,multiplicationStroop,2021.2.3,Win32,51.54639175,,,,,right,0,1.2333,0,33,33,7,1,9,8,9 | 8,1,1.9756,1.4111,congruent,left,,,,,,stimulusFile/magnitude.xlsx,,,,,,,,,,,,,,,,,,,,,,,,,,,,,,,
,,,,,,,,,,,,,,,723,2022-01-23_22h48.27.450,multiplicationStroop,2021.2.3,Win32,51.54639175,,,,,left,0,1.4033,0,34,34,33,1,2,4,2 | 4,2,1.9756,1.4111,incongruent,right,,,,,,stimulusFile/magnitude.xlsx,,,,,,,,,,,,,,,,,,,,,,,,,,,,,,,
,,,,,,,,,,,,,,,723,2022-01-23_22h48.27.450,multiplicationStroop,2021.2.3,Win32,51.54639175,,,,,right,1,0.9163,0,35,35,19,1,4,9,4 | 9,5,1.4111,1.9756,congruent,right,,,,,,stimulusFile/magnitude.xlsx,,,,,,,,,,,,,,,,,,,,,,,,,,,,,,,
,,,,,,,,,,,,,,,723,2022-01-23_22h48.27.450,multiplicationStroop,2021.2.3,Win32,51.54639175,,,,,right,1,0.5844,0,36,36,3,1,8,9,8 | 9,1,1.4111,1.9756,congruent,right,,,,,,stimulusFile/magnitude.xlsx,,,,,,,,,,,,,,,,,,,,,,,,,,,,,,,
,,,,,,,,,,,,,,,723,2022-01-23_22h48.27.450,multiplicationStroop,2021.2.3,Win32,51.54639175,,,,,right,1,1.0416,0,37,37,49,1,3,4,3 | 4,1,1.6933,1.6933,neutral,right,,,,,,stimulusFile/magnitude.xlsx,,,,,,,,,,,,,,,,,,,,,,,,,,,,,,,
,,,,,,,,,,,,,,,723,2022-01-23_22h48.27.450,multiplicationStroop,2021.2.3,Win32,51.54639175,,,,,left,1,0.6842,0,38,38,70,1,8,3,8 | 3,5,1.6933,1.6933,neutral,left,,,,,,stimulusFile/magnitude.xlsx,,,,,,,,,,,,,,,,,,,,,,,,,,,,,,,
,,,,,,,,,,,,,,,723,2022-01-23_22h48.27.450,multiplicationStroop,2021.2.3,Win32,51.54639175,,,,,right,1,0.5416,0,39,39,9,1,2,4,2 | 4,2,1.4111,1.9756,congruent,right,,,,,,stimulusFile/magnitude.xlsx,,,,,,,,,,,,,,,,,,,,,,,,,,,,,,,
,,,,,,,,,,,,,,,723,2022-01-23_22h48.27.450,multiplicationStroop,2021.2.3,Win32,51.54639175,,,,,right,0,0.6007,0,40,40,38,1,8,6,8 | 6,2,1.4111,1.9756,incongruent,left,,,,,,stimulusFile/magnitude.xlsx,,,,,,,,,,,,,,,,,,,,,,,,,,,,,,,
,,,,,,,,,,,,,,,723,2022-01-23_22h48.27.450,multiplicationStroop,2021.2.3,Win32,51.54639175,,,,,left,1,0.6001,0,41,41,5,1,4,3,4 | 3,1,1.9756,1.4111,congruent,left,,,,,,stimulusFile/magnitude.xlsx,,,,,,,,,,,,,,,,,,,,,,,,,,,,,,,
,,,,,,,,,,,,,,,723,2022-01-23_22h48.27.450,multiplicationStroop,2021.2.3,Win32,51.54639175,,,,,left,1,1.0365,0,42,42,21,1,7,2,7 | 2,5,1.9756,1.4111,congruent,left,,,,,,stimulusFile/magnitude.xlsx,,,,,,,,,,,,,,,,,,,,,,,,,,,,,,,
,,,,,,,,,,,,,,,723,2022-01-23_22h48.27.450,multiplicationStroop,2021.2.3,Win32,51.54639175,,,,,left,1,1.3526,0,43,43,6,1,7,6,7 | 6,1,1.9756,1.4111,congruent,left,,,,,,stimulusFile/magnitude.xlsx,,,,,,,,,,,,,,,,,,,,,,,,,,,,,,,
,,,,,,,,,,,,,,,723,2022-01-23_22h48.27.450,multiplicationStroop,2021.2.3,Win32,51.54639175,,,,,left,1,1.1683,0,44,44,39,1,9,7,9 | 7,2,1.4111,1.9756,incongruent,left,,,,,,stimulusFile/magnitude.xlsx,,,,,,,,,,,,,,,,,,,,,,,,,,,,,,,
,,,,,,,,,,,,,,,723,2022-01-23_22h48.27.450,multiplicationStroop,2021.2.3,Win32,51.54639175,,,,,left,1,1.4822,0,45,45,4,1,2,1,2 | 1,1,1.9756,1.4111,congruent,left,,,,,,stimulusFile/magnitude.xlsx,,,,,,,,,,,,,,,,,,,,,,,,,,,,,,,
,,,,,,,,,,,,,,,723,2022-01-23_22h48.27.450,multiplicationStroop,2021.2.3,Win32,51.54639175,,,,,left,1,1.4323,0,46,46,53,1,4,3,4 | 3,1,1.6933,1.6933,neutral,left,,,,,,stimulusFile/magnitude.xlsx,,,,,,,,,,,,,,,,,,,,,,,,,,,,,,,
,,,,,,,,,,,,,,,723,2022-01-23_22h48.27.450,multiplicationStroop,2021.2.3,Win32,51.54639175,,,,,left,1,1.6493,0,47,47,52,1,2,1,2 | 1,1,1.6933,1.6933,neutral,left,,,,,,stimulusFile/magnitude.xlsx,,,,,,,,,,,,,,,,,,,,,,,,,,,,,,,
,,,,,,,,,,,,,,,723,2022-01-23_22h48.27.450,multiplicationStroop,2021.2.3,Win32,51.54639175,,,,,left,1,0.6239,0,48,48,69,1,7,2,7 | 2,5,1.6933,1.6933,neutral,left,,,,,,stimulusFile/magnitude.xlsx,,,,,,,,,,,,,,,,,,,,,,,,,,,,,,,
,,,,,,,,,,,,,,,723,2022-01-23_22h48.27.450,multiplicationStroop,2021.2.3,Win32,51.54639175,,,,,right,1,0.7337,0,49,49,1,1,3,4,3 | 4,1,1.4111,1.9756,congruent,right,,,,,,stimulusFile/magnitude.xlsx,,,,,,,,,,,,,,,,,,,,,,,,,,,,,,,
,,,,,,,,,,,,,,,723,2022-01-23_22h48.27.450,multiplicationStroop,2021.2.3,Win32,51.54639175,,,,,right,1,0.8502,0,50,50,34,1,6,8,6 | 8,2,1.9756,1.4111,incongruent,right,,,,,,stimulusFile/magnitude.xlsx,,,,,,,,,,,,,,,,,,,,,,,,,,,,,,,
,,,,,,,,,,,,,,,723,2022-01-23_22h48.27.450,multiplicationStroop,2021.2.3,Win32,51.54639175,,,,,left,1,1.2577,0,51,51,63,1,9,7,9 | 7,2,1.6933,1.6933,neutral,left,,,,,,stimulusFile/magnitude.xlsx,,,,,,,,,,,,,,,,,,,,,,,,,,,,,,,
,,,,,,,,,,,,,,,723,2022-01-23_22h48.27.450,multiplicationStroop,2021.2.3,Win32,51.54639175,,,,,right,1,0.9248,0,52,52,32,1,1,3,1 | 3,2,1.9756,1.4111,incongruent,right,,,,,,stimulusFile/magnitude.xlsx,,,,,,,,,,,,,,,,,,,,,,,,,,,,,,,
,,,,,,,,,,,,,,,723,2022-01-23_22h48.27.450,multiplicationStroop,2021.2.3,Win32,51.54639175,,,,,left,1,0.9841,0,53,53,61,1,4,2,4 | 2,2,1.6933,1.6933,neutral,left,,,,,,stimulusFile/magnitude.xlsx,,,,,,,,,,,,,,,,,,,,,,,,,,,,,,,
,,,,,,,,,,,,,,,723,2022-01-23_22h48.27.450,multiplicationStroop,2021.2.3,Win32,51.54639175,,,,,right,1,0.5182,0,54,54,57,1,2,4,2 | 4,2,1.6933,1.6933,neutral,right,,,,,,stimulusFile/magnitude.xlsx,,,,,,,,,,,,,,,,,,,,,,,,,,,,,,,
,,,,,,,,,,,,,,,723,2022-01-23_22h48.27.450,multiplicationStroop,2021.2.3,Win32,51.54639175,,,,,right,1,0.576,0,55,55,67,1,4,9,4 | 9,5,1.6933,1.6933,neutral,right,,,,,,stimulusFile/magnitude.xlsx,,,,,,,,,,,,,,,,,,,,,,,,,,,,,,,
,,,,,,,,,,,,,,,723,2022-01-23_22h48.27.450,multiplicationStroop,2021.2.3,Win32,51.54639175,,,,,right,1,0.8917,0,56,56,11,1,7,9,7 | 9,2,1.4111,1.9756,congruent,right,,,,,,stimulusFile/magnitude.xlsx,,,,,,,,,,,,,,,,,,,,,,,,,,,,,,,
,,,,,,,,,,,,,,,723,2022-01-23_22h48.27.450,multiplicationStroop,2021.2.3,Win32,51.54639175,,,,,right,1,1.3659,0,57,57,50,1,6,7,6 | 7,1,1.6933,1.6933,neutral,right,,,,,,stimulusFile/magnitude.xlsx,,,,,,,,,,,,,,,,,,,,,,,,,,,,,,,
,,,,,,,,,,,,,,,723,2022-01-23_22h48.27.450,multiplicationStroop,2021.2.3,Win32,51.54639175,,,,,right,1,1.5158,0,58,58,25,1,3,4,3 | 4,1,1.9756,1.4111,incongruent,right,,,,,,stimulusFile/magnitude.xlsx,,,,,,,,,,,,,,,,,,,,,,,,,,,,,,,
,,,,,,,,,,,,,,,723,2022-01-23_22h48.27.450,multiplicationStroop,2021.2.3,Win32,51.54639175,,,,,right,1,0.5838,0,59,59,56,1,1,3,1 | 3,2,1.6933,1.6933,neutral,right,,,,,,stimulusFile/magnitude.xlsx,,,,,,,,,,,,,,,,,,,,,,,,,,,,,,,
,,,,,,,,,,,,,,,723,2022-01-23_22h48.27.450,multiplicationStroop,2021.2.3,Win32,51.54639175,,,,,right,1,1.3677,0,60,60,48,1,1,2,1 | 2,1,1.6933,1.6933,neutral,right,,,,,,stimulusFile/magnitude.xlsx,,,,,,,,,,,,,,,,,,,,,,,,,,,,,,,
,,,,,,,,,,,,,,,723,2022-01-23_22h48.27.450,multiplicationStroop,2021.2.3,Win32,51.54639175,,,,,right,1,0.6433,0,61,61,42,1,3,8,3 | 8,5,1.9756,1.4111,incongruent,right,,,,,,stimulusFile/magnitude.xlsx,,,,,,,,,,,,,,,,,,,,,,,,,,,,,,,
,,,,,,,,,,,,,,,723,2022-01-23_22h48.27.450,multiplicationStroop,2021.2.3,Win32,51.54639175,,,,,right,0,0.9844,0,62,62,55,1,9,8,9 | 8,1,1.6933,1.6933,neutral,left,,,,,,stimulusFile/magnitude.xlsx,,,,,,,,,,,,,,,,,,,,,,,,,,,,,,,
,,,,,,,,,,,,,,,723,2022-01-23_22h48.27.450,multiplicationStroop,2021.2.3,Win32,51.54639175,,,,,left,1,0.7817,0,63,63,29,1,4,3,4 | 3,1,1.4111,1.9756,incongruent,left,,,,,,stimulusFile/magnitude.xlsx,,,,,,,,,,,,,,,,,,,,,,,,,,,,,,,
,,,,,,,,,,,,,,,723,2022-01-23_22h48.27.450,multiplicationStroop,2021.2.3,Win32,51.54639175,,,,,left,1,0.7171,0,64,64,45,1,7,2,7 | 2,5,1.4111,1.9756,incongruent,left,,,,,,stimulusFile/magnitude.xlsx,,,,,,,,,,,,,,,,,,,,,,,,,,,,,,,
,,,,,,,,,,,,,,,723,2022-01-23_22h48.27.450,multiplicationStroop,2021.2.3,Win32,51.54639175,,,,,left,1,0.7591,0,65,65,20,1,6,1,6 | 1,5,1.9756,1.4111,congruent,left,,,,,,stimulusFile/magnitude.xlsx,,,,,,,,,,,,,,,,,,,,,,,,,,,,,,,
,,,,,,,,,,,,,,,723,2022-01-23_22h48.27.450,multiplicationStroop,2021.2.3,Win32,51.54639175,,,,,right,1,0.982,0,66,66,64,1,1,6,1 | 6,5,1.6933,1.6933,neutral,right,,,,,,stimulusFile/magnitude.xlsx,,,,,,,,,,,,,,,,,,,,,,,,,,,,,,,
,,,,,,,,,,,,,,,723,2022-01-23_22h48.27.450,multiplicationStroop,2021.2.3,Win32,51.54639175,,,,,right,1,0.6425,0,67,67,8,1,1,3,1 | 3,2,1.4111,1.9756,congruent,right,,,,,,stimulusFile/magnitude.xlsx,,,,,,,,,,,,,,,,,,,,,,,,,,,,,,,
,,,,,,,,,,,,,,,723,2022-01-23_22h48.27.450,multiplicationStroop,2021.2.3,Win32,51.54639175,,,,,left,1,0.5348,0,68,68,13,1,4,2,4 | 2,2,1.9756,1.4111,congruent,left,,,,,,stimulusFile/magnitude.xlsx,,,,,,,,,,,,,,,,,,,,,,,,,,,,,,,
,,,,,,,,,,,,,,,723,2022-01-23_22h48.27.450,multiplicationStroop,2021.2.3,Win32,51.54639175,,,,,left,1,0.7335,0,69,69,44,1,6,1,6 | 1,5,1.4111,1.9756,incongruent,left,,,,,,stimulusFile/magnitude.xlsx,,,,,,,,,,,,,,,,,,,,,,,,,,,,,,,
,,,,,,,,,,,,,,,723,2022-01-23_22h48.27.450,multiplicationStroop,2021.2.3,Win32,51.54639175,,,,,left,1,1.1682,0,70,70,36,1,3,1,3 | 1,2,1.4111,1.9756,incongruent,left,,,,,,stimulusFile/magnitude.xlsx,,,,,,,,,,,,,,,,,,,,,,,,,,,,,,,
,,,,,,,,,,,,,,,723,2022-01-23_22h48.27.450,multiplicationStroop,2021.2.3,Win32,51.54639175,,,,,right,1,0.6844,0,71,71,18,1,3,8,3 | 8,5,1.4111,1.9756,congruent,right,,,,,,stimulusFile/magnitude.xlsx,,,,,,,,,,,,,,,,,,,,,,,,,,,,,,,
,,,,,,,,,,,,,,,723,2022-01-23_22h48.27.450,multiplicationStroop,2021.2.3,Win32,51.54639175,,,,,,,,,,,,,,,,,,,,,0,1,1,0,1,stimulusFile/magnitude.xlsx,NUMERICALLY larger (larger coefficient).,images/numericallyLarger.png,,,,,,,,,,,,,,,,,,,,,,,,,,,,,
,,,,,,,,,,,,,,,723,2022-01-23_22h48.27.450,multiplicationStroop,2021.2.3,Win32,51.54639175,,,,,,,,,,,,,,,,,,,,,,,,,,,,,space,9.2841,space,3.4351,16,5.7603,0,0,0,0,34,1,8,×,8,8 × 8,neutral,tie,1,2,64,,,,,,,,
,,,,,,,,,,,,,,,723,2022-01-23_22h48.27.450,multiplicationStroop,2021.2.3,Win32,51.54639175,,,,,,,,,,,,,,,,,,,,,,,,,,,,,,,,,15,2.4402,1,0,1,1,18,1,5,×,3,5 × 3,congruent,largerFirst,2,1,15,,,,,,,,
,,,,,,,,,,,,,,,723,2022-01-23_22h48.27.450,multiplicationStroop,2021.2.3,Win32,51.54639175,,,,,,,,,,,,,,,,,,,,,,,,,,,,,,,,,54,2.1775,1,0,2,2,26,1,9,×,6,9 × 6,congruent,largerFirst,2,1,54,,,,,,,,
,,,,,,,,,,,,,,,723,2022-01-23_22h48.27.450,multiplicationStroop,2021.2.3,Win32,51.54639175,,,,,,,,,,,,,,,,,,,,,,,,,,,,,,,,,49,2.9125,0,0,3,3,7,1,7,×,9,7 × 9,congruent,smallerFirst,1,2,63,,,,,,,,
,,,,,,,,,,,,,,,723,2022-01-23_22h48.27.450,multiplicationStroop,2021.2.3,Win32,51.54639175,,,,,,,,,,,,,,,,,,,,,,,,,,,,,,,,,25,2.459,1,0,4,4,31,1,5,×,5,5 × 5,neutral,tie,1,2,25,,,,,,,,
,,,,,,,,,,,,,,,723,2022-01-23_22h48.27.450,multiplicationStroop,2021.2.3,Win32,51.54639175,,,,,,,,,,,,,,,,,,,,,,,,,,,,,,,,,16,2.6792,1,0,5,5,30,1,4,×,4,4 × 4,neutral,tie,1,2,16,,,,,,,,
,,,,,,,,,,,,,,,723,2022-01-23_22h48.27.450,multiplicationStroop,2021.2.3,Win32,51.54639175,,,,,,,,,,,,,,,,,,,,,,,,,,,,,,,,,14,3.6116,1,0,6,6,0,1,2,×,7,2 × 7,congruent,smallerFirst,1,2,14,,,,,,,,
,,,,,,,,,,,,,,,723,2022-01-23_22h48.27.450,multiplicationStroop,2021.2.3,Win32,51.54639175,,,,,,,,,,,,,,,,,,,,,,,,,,,,,,,,,4,1.6885,1,0,7,7,28,1,2,×,2,2 × 2,neutral,tie,1,2,4,,,,,,,,
,,,,,,,,,,,,,,,723,2022-01-23_22h48.27.450,multiplicationStroop,2021.2.3,Win32,51.54639175,,,,,,,,,,,,,,,,,,,,,,,,,,,,,,,,,48,3.7753,1,0,8,8,4,1,6,×,8,6 × 8,congruent,smallerFirst,1,2,48,,,,,,,,
,,,,,,,,,,,,,,,723,2022-01-23_22h48.27.450,multiplicationStroop,2021.2.3,Win32,51.54639175,,,,,,,,,,,,,,,,,,,,,,,,,,,,,,,,,12,2.1856,1,0,9,9,16,1,4,×,3,4 × 3,congruent,largerFirst,2,1,12,,,,,,,,
,,,,,,,,,,,,,,,723,2022-01-23_22h48.27.450,multiplicationStroop,2021.2.3,Win32,51.54639175,,,,,,,,,,,,,,,,,,,,,,,,,,,,,,,,,24,3.3266,1,0,10,10,24,1,8,×,3,8 × 3,congruent,largerFirst,2,1,24,,,,,,,,
,,,,,,,,,,,,,,,723,2022-01-23_22h48.27.450,multiplicationStroop,2021.2.3,Win32,51.54639175,,,,,,,,,,,,,,,,,,,,,,,,,,,,,,,,,56,6.2961,1,0,11,11,22,1,8,×,7,8 × 7,congruent,largerFirst,2,1,56,,,,,,,,
,,,,,,,,,,,,,,,723,2022-01-23_22h48.27.450,multiplicationStroop,2021.2.3,Win32,51.54639175,,,,,,,,,,,,,,,,,,,,,,,,,,,,,,,,,64,2.8655,0,0,12,12,35,1,9,×,9,9 × 9,neutral,tie,1,2,81,,,,,,,,
,,,,,,,,,,,,,,,723,2022-01-23_22h48.27.450,multiplicationStroop,2021.2.3,Win32,51.54639175,,,,,,,,,,,,,,,,,,,,,,,,,,,,,,,,,36,2.0612,1,0,13,13,32,1,6,×,6,6 × 6,neutral,tie,1,2,36,,,,,,,,
,,,,,,,,,,,,,,,723,2022-01-23_22h48.27.450,multiplicationStroop,2021.2.3,Win32,51.54639175,,,,,,,,,,,,,,,,,,,,,,,,,,,,,,,,,24,4.3238,1,0,14,14,11,1,4,×,6,4 × 6,congruent,smallerFirst,1,2,24,,,,,,,,
,,,,,,,,,,,,,,,723,2022-01-23_22h48.27.450,multiplicationStroop,2021.2.3,Win32,51.54639175,,,,,,,,,,,,,,,,,,,,,,,,,,,,,,,,,21,1.5637,1,0,15,15,2,1,3,×,7,3 × 7,congruent,smallerFirst,1,2,21,,,,,,,,
,,,,,,,,,,,,,,,723,2022-01-23_22h48.27.450,multiplicationStroop,2021.2.3,Win32,51.54639175,,,,,,,,,,,,,,,,,,,,,,,,,,,,,,,,,16,1.9145,1,0,16,16,19,1,8,×,2,8 × 2,congruent,largerFirst,2,1,16,,,,,,,,
,,,,,,,,,,,,,,,723,2022-01-23_22h48.27.450,multiplicationStroop,2021.2.3,Win32,51.54639175,,,,,,,,,,,,,,,,,,,,,,,,,,,,,,,,,30,1.8976,1,0,17,17,1,1,5,×,6,5 × 6,congruent,smallerFirst,1,2,30,,,,,,,,
,,,,,,,,,,,,,,,723,2022-01-23_22h48.27.450,multiplicationStroop,2021.2.3,Win32,51.54639175,,,,,,,,,,,,,,,,,,,,,,,,,,,,,,,,,18,1.929,1,0,18,18,8,1,2,×,9,2 × 9,congruent,smallerFirst,1,2,18,,,,,,,,
,,,,,,,,,,,,,,,723,2022-01-23_22h48.27.450,multiplicationStroop,2021.2.3,Win32,51.54639175,,,,,,,,,,,,,,,,,,,,,,,,,,,,,,,,,6,1.8967,1,0,19,19,27,1,3,×,2,3 × 2,congruent,largerFirst,2,1,6,,,,,,,,
,,,,,,,,,,,,,,,723,2022-01-23_22h48.27.450,multiplicationStroop,2021.2.3,Win32,51.54639175,,,,,,,,,,,,,,,,,,,,,,,,,,,,,,,,,27,2.6631,1,0,20,20,12,1,3,×,9,3 × 9,congruent,smallerFirst,1,2,27,,,,,,,,
,,,,,,,,,,,,,,,723,2022-01-23_22h48.27.450,multiplicationStroop,2021.2.3,Win32,51.54639175,,,,,,,,,,,,,,,,,,,,,,,,,,,,,,,,,42,10.6535,1,0,21,21,17,1,7,×,6,7 × 6,congruent,largerFirst,2,1,42,,,,,,,,
,,,,,,,,,,,,,,,723,2022-01-23_22h48.27.450,multiplicationStroop,2021.2.3,Win32,51.54639175,,,,,,,,,,,,,,,,,,,,,,,,,,,,,,,,,28,1.946,1,0,22,22,13,1,4,×,7,4 × 7,congruent,smallerFirst,1,2,28,,,,,,,,
,,,,,,,,,,,,,,,723,2022-01-23_22h48.27.450,multiplicationStroop,2021.2.3,Win32,51.54639175,,,,,,,,,,,,,,,,,,,,,,,,,,,,,,,,,18,2.3634,0,0,23,23,5,1,2,×,6,2 × 6,congruent,smallerFirst,1,2,12,,,,,,,,
,,,,,,,,,,,,,,,723,2022-01-23_22h48.27.450,multiplicationStroop,2021.2.3,Win32,51.54639175,,,,,,,,,,,,,,,,,,,,,,,,,,,,,,,,,35,2.0559,1,0,24,24,15,1,7,×,5,7 × 5,congruent,largerFirst,2,1,35,,,,,,,,
,,,,,,,,,,,,,,,723,2022-01-23_22h48.27.450,multiplicationStroop,2021.2.3,Win32,51.54639175,,,,,,,,,,,,,,,,,,,,,,,,,,,,,,,,,20,1.9966,1,0,25,25,21,1,5,×,4,5 × 4,congruent,largerFirst,2,1,20,,,,,,,,
,,,,,,,,,,,,,,,723,2022-01-23_22h48.27.450,multiplicationStroop,2021.2.3,Win32,51.54639175,,,,,,,,,,,,,,,,,,,,,,,,,,,,,,,,,36,3.6795,1,0,26,26,14,1,9,×,4,9 × 4,congruent,largerFirst,2,1,36,,,,,,,,
,,,,,,,,,,,,,,,723,2022-01-23_22h48.27.450,multiplicationStroop,2021.2.3,Win32,51.54639175,,,,,,,,,,,,,,,,,,,,,,,,,,,,,,,,,10,1.6795,1,0,27,27,10,1,2,×,5,2 × 5,congruent,smallerFirst,1,2,10,,,,,,,,
,,,,,,,,,,,,,,,723,2022-01-23_22h48.27.450,multiplicationStroop,2021.2.3,Win32,51.54639175,,,,,,,,,,,,,,,,,,,,,,,,,,,,,,,,,49,2.3788,1,0,28,28,33,1,7,×,7,7 × 7,neutral,tie,1,2,49,,,,,,,,
,,,,,,,,,,,,,,,723,2022-01-23_22h48.27.450,multiplicationStroop,2021.2.3,Win32,51.54639175,,,,,,,,,,,,,,,,,,,,,,,,,,,,,,,,,40,1.9015,1,0,29,29,20,1,8,×,5,8 × 5,congruent,largerFirst,2,1,40,,,,,,,,
,,,,,,,,,,,,,,,723,2022-01-23_22h48.27.450,multiplicationStroop,2021.2.3,Win32,51.54639175,,,,,,,,,,,,,,,,,,,,,,,,,,,,,,,,,8,1.8782,1,0,30,30,23,1,4,×,2,4 × 2,congruent,largerFirst,2,1,8,,,,,,,,
,,,,,,,,,,,,,,,723,2022-01-23_22h48.27.450,multiplicationStroop,2021.2.3,Win32,51.54639175,,,,,,,,,,,,,,,,,,,,,,,,,,,,,,,,,9,1.5961,1,0,31,31,29,1,3,×,3,3 × 3,neutral,tie,1,2,9,,,,,,,,
,,,,,,,,,,,,,,,723,2022-01-23_22h48.27.450,multiplicationStroop,2021.2.3,Win32,51.54639175,,,,,,,,,,,,,,,,,,,,,,,,,,,,,,,,,40,2.7128,0,0,32,32,9,1,5,×,9,5 × 9,congruent,smallerFirst,1,2,45,,,,,,,,
,,,,,,,,,,,,,,,723,2022-01-23_22h48.27.450,multiplicationStroop,2021.2.3,Win32,51.54639175,,,,,,,,,,,,,,,,,,,,,,,,,,,,,,,,,18,2.2933,1,0,33,33,25,1,6,×,3,6 × 3,congruent,largerFirst,2,1,18,,,,,,,,
,,,,,,,,,,,,,,,723,2022-01-23_22h48.27.450,multiplicationStroop,2021.2.3,Win32,51.54639175,,,,,,,,,,,,,,,,,,,,,,,,,,,,,,,,,72,7.2246,1,0,34,34,3,1,8,×,9,8 × 9,congruent,smallerFirst,1,2,72,,,,,,,,
,,,,,,,,,,,,,,,723,2022-01-23_22h48.27.450,multiplicationStroop,2021.2.3,Win32,51.54639175,,,,,,,,,,,,,,,,,,,,,,,,,,,,,,,,,24,3.2571,0,0,35,35,6,1,4,×,8,4 × 8,congruent,smallerFirst,1,2,32,,,,,,,,
,,,,,,,,,,,,,,,723,2022-01-23_22h48.27.450,multiplicationStroop,2021.2.3,Win32,51.54639175,,,,,,,,,,,,,,,,,,,,,,,,,,,,,,,,,,,,,,,,,,,,,,,,,,0,0,0,3,1,stimulusFile/mult_blk4_congruent.xlsx,,
,,,,,,,,,,,,,,,723,2022-01-23_22h48.27.450,multiplicationStroop,2021.2.3,Win32,51.54639175,,,,,,,,,,,,,,,,,,,,,,,,,,,,,,,space,1.9141,63,3.8512,1,0,0,0,12,1,7,×,9,7 × 9,neutral,smallerFirst,1.5,1.5,63,,,,,,,,
,,,,,,,,,,,,,,,723,2022-01-23_22h48.27.450,multiplicationStroop,2021.2.3,Win32,51.54639175,,,,,,,,,,,,,,,,,,,,,,,,,,,,,,,,,48,4.4297,1,0,1,1,15,1,8,×,6,8 × 6,neutral,largerFirst,1.5,1.5,48,,,,,,,,
,,,,,,,,,,,,,,,723,2022-01-23_22h48.27.450,multiplicationStroop,2021.2.3,Win32,51.54639175,,,,,,,,,,,,,,,,,,,,,,,,,,,,,,,,,10,1.5569,1,0,2,2,4,1,2,×,5,2 × 5,neutral,smallerFirst,1.5,1.5,10,,,,,,,,
,,,,,,,,,,,,,,,723,2022-01-23_22h48.27.450,multiplicationStroop,2021.2.3,Win32,51.54639175,,,,,,,,,,,,,,,,,,,,,,,,,,,,,,,,,6,1.8297,1,0,3,3,26,1,3,×,2,3 × 2,neutral,largerFirst,1.5,1.5,6,,,,,,,,
,,,,,,,,,,,,,,,723,2022-01-23_22h48.27.450,multiplicationStroop,2021.2.3,Win32,51.54639175,,,,,,,,,,,,,,,,,,,,,,,,,,,,,,,,,16,2.2662,1,0,4,4,13,1,2,×,8,2 × 8,neutral,smallerFirst,1.5,1.5,16,,,,,,,,
,,,,,,,,,,,,,,,723,2022-01-23_22h48.27.450,multiplicationStroop,2021.2.3,Win32,51.54639175,,,,,,,,,,,,,,,,,,,,,,,,,,,,,,,,,14,1.7943,1,0,5,5,16,1,7,×,2,7 × 2,neutral,largerFirst,1.5,1.5,14,,,,,,,,
,,,,,,,,,,,,,,,723,2022-01-23_22h48.27.450,multiplicationStroop,2021.2.3,Win32,51.54639175,,,,,,,,,,,,,,,,,,,,,,,,,,,,,,,,,21,1.7,1,0,6,6,8,1,3,×,7,3 × 7,neutral,smallerFirst,1.5,1.5,21,,,,,,,,
,,,,,,,,,,,,,,,723,2022-01-23_22h48.27.450,multiplicationStroop,2021.2.3,Win32,51.54639175,,,,,,,,,,,,,,,,,,,,,,,,,,,,,,,,,81,10.0845,1,0,7,7,35,1,9,×,9,9 × 9,neutral,tie,1.5,1.5,81,,,,,,,,
,,,,,,,,,,,,,,,723,2022-01-23_22h48.27.450,multiplicationStroop,2021.2.3,Win32,51.54639175,,,,,,,,,,,,,,,,,,,,,,,,,,,,,,,,,16,2.0596,1,0,8,8,30,1,4,×,4,4 × 4,neutral,tie,1.5,1.5,16,,,,,,,,
,,,,,,,,,,,,,,,723,2022-01-23_22h48.27.450,multiplicationStroop,2021.2.3,Win32,51.54639175,,,,,,,,,,,,,,,,,,,,,,,,,,,,,,,,,24,2.8952,1,0,9,9,22,1,8,×,3,8 × 3,neutral,largerFirst,1.5,1.5,24,,,,,,,,
,,,,,,,,,,,,,,,723,2022-01-23_22h48.27.450,multiplicationStroop,2021.2.3,Win32,51.54639175,,,,,,,,,,,,,,,,,,,,,,,,,,,,,,,,,40,1.9634,1,0,10,10,24,1,8,×,5,8 × 5,neutral,largerFirst,1.5,1.5,40,,,,,,,,
,,,,,,,,,,,,,,,723,2022-01-23_22h48.27.450,multiplicationStroop,2021.2.3,Win32,51.54639175,,,,,,,,,,,,,,,,,,,,,,,,,,,,,,,,,18,2.8794,1,0,11,11,18,1,9,×,2,9 × 2,neutral,largerFirst,1.5,1.5,18,,,,,,,,
,,,,,,,,,,,,,,,723,2022-01-23_22h48.27.450,multiplicationStroop,2021.2.3,Win32,51.54639175,,,,,,,,,,,,,,,,,,,,,,,,,,,,,,,,,4,1.6396,1,0,12,12,28,1,2,×,2,2 × 2,neutral,tie,1.5,1.5,4,,,,,,,,
,,,,,,,,,,,,,,,723,2022-01-23_22h48.27.450,multiplicationStroop,2021.2.3,Win32,51.54639175,,,,,,,,,,,,,,,,,,,,,,,,,,,,,,,,,15,1.8713,1,0,13,13,5,1,3,×,5,3 × 5,neutral,smallerFirst,1.5,1.5,15,,,,,,,,
,,,,,,,,,,,,,,,723,2022-01-23_22h48.27.450,multiplicationStroop,2021.2.3,Win32,51.54639175,,,,,,,,,,,,,,,,,,,,,,,,,,,,,,,,,49,1.8475,1,0,14,14,33,1,7,×,7,7 × 7,neutral,tie,1.5,1.5,49,,,,,,,,
,,,,,,,,,,,,,,,723,2022-01-23_22h48.27.450,multiplicationStroop,2021.2.3,Win32,51.54639175,,,,,,,,,,,,,,,,,,,,,,,,,,,,,,,,,18,2.1967,1,0,15,15,0,1,3,×,6,3 × 6,neutral,smallerFirst,1.5,1.5,18,,,,,,,,
,,,,,,,,,,,,,,,723,2022-01-23_22h48.27.450,multiplicationStroop,2021.2.3,Win32,51.54639175,,,,,,,,,,,,,,,,,,,,,,,,,,,,,,,,,30,3.0284,1,0,16,16,19,1,6,×,5,6 × 5,neutral,largerFirst,1.5,1.5,30,,,,,,,,
,,,,,,,,,,,,,,,723,2022-01-23_22h48.27.450,multiplicationStroop,2021.2.3,Win32,51.54639175,,,,,,,,,,,,,,,,,,,,,,,,,,,,,,,,,35,2.6055,1,0,17,17,1,1,5,×,7,5 × 7,neutral,smallerFirst,1.5,1.5,35,,,,,,,,
,,,,,,,,,,,,,,,723,2022-01-23_22h48.27.450,multiplicationStroop,2021.2.3,Win32,51.54639175,,,,,,,,,,,,,,,,,,,,,,,,,,,,,,,,,64,6.4264,1,0,18,18,34,1,8,×,8,8 × 8,neutral,tie,1.5,1.5,64,,,,,,,,
,,,,,,,,,,,,,,,723,2022-01-23_22h48.27.450,multiplicationStroop,2021.2.3,Win32,51.54639175,,,,,,,,,,,,,,,,,,,,,,,,,,,,,,,,,42,8.8165,1,0,19,19,6,1,6,×,7,6 × 7,neutral,smallerFirst,1.5,1.5,42,,,,,,,,
,,,,,,,,,,,,,,,723,2022-01-23_22h48.27.450,multiplicationStroop,2021.2.3,Win32,51.54639175,,,,,,,,,,,,,,,,,,,,,,,,,,,,,,,,,9,1.472,1,0,20,20,29,1,3,×,3,3 × 3,neutral,tie,1.5,1.5,9,,,,,,,,
,,,,,,,,,,,,,,,723,2022-01-23_22h48.27.450,multiplicationStroop,2021.2.3,Win32,51.54639175,,,,,,,,,,,,,,,,,,,,,,,,,,,,,,,,,12,1.8312,1,0,21,21,21,1,4,×,3,4 × 3,neutral,largerFirst,1.5,1.5,12,,,,,,,,
,,,,,,,,,,,,,,,723,2022-01-23_22h48.27.450,multiplicationStroop,2021.2.3,Win32,51.54639175,,,,,,,,,,,,,,,,,,,,,,,,,,,,,,,,,45,3.845,1,0,22,22,10,1,5,×,9,5 × 9,neutral,smallerFirst,1.5,1.5,45,,,,,,,,
,,,,,,,,,,,,,,,723,2022-01-23_22h48.27.450,multiplicationStroop,2021.2.3,Win32,51.54639175,,,,,,,,,,,,,,,,,,,,,,,,,,,,,,,,,20,1.8813,1,0,23,23,20,1,5,×,4,5 × 4,neutral,largerFirst,1.5,1.5,20,,,,,,,,
,,,,,,,,,,,,,,,723,2022-01-23_22h48.27.450,multiplicationStroop,2021.2.3,Win32,51.54639175,,,,,,,,,,,,,,,,,,,,,,,,,,,,,,,,,54,8.4054,1,0,24,24,7,1,6,×,9,6 × 9,neutral,smallerFirst,1.5,1.5,54,,,,,,,,
,,,,,,,,,,,,,,,723,2022-01-23_22h48.27.450,multiplicationStroop,2021.2.3,Win32,51.54639175,,,,,,,,,,,,,,,,,,,,,,,,,,,,,,,,,56,11.0749,1,0,25,25,9,1,7,×,8,7 × 8,neutral,smallerFirst,1.5,1.5,56,,,,,,,,
,,,,,,,,,,,,,,,723,2022-01-23_22h48.27.450,multiplicationStroop,2021.2.3,Win32,51.54639175,,,,,,,,,,,,,,,,,,,,,,,,,,,,,,,,,8,1.9118,1,0,26,26,3,1,2,×,4,2 × 4,neutral,smallerFirst,1.5,1.5,8,,,,,,,,
,,,,,,,,,,,,,,,723,2022-01-23_22h48.27.450,multiplicationStroop,2021.2.3,Win32,51.54639175,,,,,,,,,,,,,,,,,,,,,,,,,,,,,,,,,36,2.1487,1,0,27,27,32,1,6,×,6,6 × 6,neutral,tie,1.5,1.5,36,,,,,,,,
,,,,,,,,,,,,,,,723,2022-01-23_22h48.27.450,multiplicationStroop,2021.2.3,Win32,51.54639175,,,,,,,,,,,,,,,,,,,,,,,,,,,,,,,,,24,5.0804,1,0,28,28,2,1,4,×,6,4 × 6,neutral,smallerFirst,1.5,1.5,24,,,,,,,,
,,,,,,,,,,,,,,,723,2022-01-23_22h48.27.450,multiplicationStroop,2021.2.3,Win32,51.54639175,,,,,,,,,,,,,,,,,,,,,,,,,,,,,,,,,32,4.5033,1,0,29,29,23,1,8,×,4,8 × 4,neutral,largerFirst,1.5,1.5,32,,,,,,,,
,,,,,,,,,,,,,,,723,2022-01-23_22h48.27.450,multiplicationStroop,2021.2.3,Win32,51.54639175,,,,,,,,,,,,,,,,,,,,,,,,,,,,,,,,,12,2.7979,1,0,30,30,25,1,6,×,2,6 × 2,neutral,largerFirst,1.5,1.5,12,,,,,,,,
,,,,,,,,,,,,,,,723,2022-01-23_22h48.27.450,multiplicationStroop,2021.2.3,Win32,51.54639175,,,,,,,,,,,,,,,,,,,,,,,,,,,,,,,,,25,2.1387,1,0,31,31,31,1,5,×,5,5 × 5,neutral,tie,1.5,1.5,25,,,,,,,,
,,,,,,,,,,,,,,,723,2022-01-23_22h48.27.450,multiplicationStroop,2021.2.3,Win32,51.54639175,,,,,,,,,,,,,,,,,,,,,,,,,,,,,,,,,27,2.5444,1,0,32,32,14,1,9,×,3,9 × 3,neutral,largerFirst,1.5,1.5,27,,,,,,,,
,,,,,,,,,,,,,,,723,2022-01-23_22h48.27.450,multiplicationStroop,2021.2.3,Win32,51.54639175,,,,,,,,,,,,,,,,,,,,,,,,,,,,,,,,,28,2.2299,1,0,33,33,17,1,7,×,4,7 × 4,neutral,largerFirst,1.5,1.5,28,,,,,,,,
,,,,,,,,,,,,,,,723,2022-01-23_22h48.27.450,multiplicationStroop,2021.2.3,Win32,51.54639175,,,,,,,,,,,,,,,,,,,,,,,,,,,,,,,,,36,3.3622,1,0,34,34,27,1,9,×,4,9 × 4,neutral,largerFirst,1.5,1.5,36,,,,,,,,
,,,,,,,,,,,,,,,723,2022-01-23_22h48.27.450,multiplicationStroop,2021.2.3,Win32,51.54639175,,,,,,,,,,,,,,,,,,,,,,,,,,,,,,,,,72,7.3025,1,0,35,35,11,1,8,×,9,8 × 9,neutral,smallerFirst,1.5,1.5,72,,,,,,,,
,,,,,,,,,,,,,,,723,2022-01-23_22h48.27.450,multiplicationStroop,2021.2.3,Win32,51.54639175,,,,,,,,,,,,,,,,,,,,,,,,,,,,,,,,,,,,,,,,,,,,,,,,,,0,1,1,1,1,stimulusFile/mult_blk2.xlsx,,
,,,,,,,,,,,,,,,723,2022-01-23_22h48.27.450,multiplicationStroop,2021.2.3,Win32,51.54639175,,,,,,,,,,,,,,,,,,,,,,,,,,,,,,,space,5.2239,45,2.1533,1,0,0,0,24,1,9,×,5,9 × 5,neutral,largerFirst,1.5,1.5,45,,,,,,,,
,,,,,,,,,,,,,,,723,2022-01-23_22h48.27.450,multiplicationStroop,2021.2.3,Win32,51.54639175,,,,,,,,,,,,,,,,,,,,,,,,,,,,,,,,,64,3.2118,1,0,1,1,34,1,8,×,8,8 × 8,neutral,tie,1.5,1.5,64,,,,,,,,
,,,,,,,,,,,,,,,723,2022-01-23_22h48.27.450,multiplicationStroop,2021.2.3,Win32,51.54639175,,,,,,,,,,,,,,,,,,,,,,,,,,,,,,,,,25,2.3054,1,0,2,2,31,1,5,×,5,5 × 5,neutral,tie,1.5,1.5,25,,,,,,,,
,,,,,,,,,,,,,,,723,2022-01-23_22h48.27.450,multiplicationStroop,2021.2.3,Win32,51.54639175,,,,,,,,,,,,,,,,,,,,,,,,,,,,,,,,,15,2.2977,1,0,3,3,19,1,5,×,3,5 × 3,neutral,largerFirst,1.5,1.5,15,,,,,,,,
,,,,,,,,,,,,,,,723,2022-01-23_22h48.27.450,multiplicationStroop,2021.2.3,Win32,51.54639175,,,,,,,,,,,,,,,,,,,,,,,,,,,,,,,,,63,2.9964,1,0,4,4,26,1,9,×,7,9 × 7,neutral,largerFirst,1.5,1.5,63,,,,,,,,
,,,,,,,,,,,,,,,723,2022-01-23_22h48.27.450,multiplicationStroop,2021.2.3,Win32,51.54639175,,,,,,,,,,,,,,,,,,,,,,,,,,,,,,,,,20,1.8341,1,0,5,5,6,1,4,×,5,4 × 5,neutral,smallerFirst,1.5,1.5,20,,,,,,,,
,,,,,,,,,,,,,,,723,2022-01-23_22h48.27.450,multiplicationStroop,2021.2.3,Win32,51.54639175,,,,,,,,,,,,,,,,,,,,,,,,,,,,,,,,,16,2.162,1,0,6,6,30,1,4,×,4,4 × 4,neutral,tie,1.5,1.5,16,,,,,,,,
,,,,,,,,,,,,,,,723,2022-01-23_22h48.27.450,multiplicationStroop,2021.2.3,Win32,51.54639175,,,,,,,,,,,,,,,,,,,,,,,,,,,,,,,,,9,1.664,1,0,7,7,29,1,3,×,3,3 × 3,neutral,tie,1.5,1.5,9,,,,,,,,
,,,,,,,,,,,,,,,723,2022-01-23_22h48.27.450,multiplicationStroop,2021.2.3,Win32,51.54639175,,,,,,,,,,,,,,,,,,,,,,,,,,,,,,,,,18,2.6826,1,0,8,8,14,1,6,×,3,6 × 3,neutral,largerFirst,1.5,1.5,18,,,,,,,,
,,,,,,,,,,,,,,,723,2022-01-23_22h48.27.450,multiplicationStroop,2021.2.3,Win32,51.54639175,,,,,,,,,,,,,,,,,,,,,,,,,,,,,,,,,36,6.1687,1,0,9,9,13,1,4,×,9,4 × 9,neutral,smallerFirst,1.5,1.5,36,,,,,,,,
,,,,,,,,,,,,,,,723,2022-01-23_22h48.27.450,multiplicationStroop,2021.2.3,Win32,51.54639175,,,,,,,,,,,,,,,,,,,,,,,,,,,,,,,,,40,2.4161,1,0,10,10,10,1,5,×,8,5 × 8,neutral,smallerFirst,1.5,1.5,40,,,,,,,,
,,,,,,,,,,,,,,,723,2022-01-23_22h48.27.450,multiplicationStroop,2021.2.3,Win32,51.54639175,,,,,,,,,,,,,,,,,,,,,,,,,,,,,,,,,18,1.9302,1,0,11,11,4,1,2,×,9,2 × 9,neutral,smallerFirst,1.5,1.5,18,,,,,,,,
,,,,,,,,,,,,,,,723,2022-01-23_22h48.27.450,multiplicationStroop,2021.2.3,Win32,51.54639175,,,,,,,,,,,,,,,,,,,,,,,,,,,,,,,,,48,6.1099,1,0,12,12,1,1,6,×,8,6 × 8,neutral,smallerFirst,1.5,1.5,48,,,,,,,,
,,,,,,,,,,,,,,,723,2022-01-23_22h48.27.450,multiplicationStroop,2021.2.3,Win32,51.54639175,,,,,,,,,,,,,,,,,,,,,,,,,,,,,,,,,30,2.1387,1,0,13,13,5,1,5,×,6,5 × 6,neutral,smallerFirst,1.5,1.5,30,,,,,,,,
,,,,,,,,,,,,,,,723,2022-01-23_22h48.27.450,multiplicationStroop,2021.2.3,Win32,51.54639175,,,,,,,,,,,,,,,,,,,,,,,,,,,,,,,,,35,2.4486,1,0,14,14,15,1,7,×,5,7 × 5,neutral,largerFirst,1.5,1.5,35,,,,,,,,
,,,,,,,,,,,,,,,723,2022-01-23_22h48.27.450,multiplicationStroop,2021.2.3,Win32,51.54639175,,,,,,,,,,,,,,,,,,,,,,,,,,,,,,,,,24,4.6749,1,0,15,15,16,1,6,×,4,6 × 4,neutral,largerFirst,1.5,1.5,24,,,,,,,,
,,,,,,,,,,,,,,,723,2022-01-23_22h48.27.450,multiplicationStroop,2021.2.3,Win32,51.54639175,,,,,,,,,,,,,,,,,,,,,,,,,,,,,,,,,14,1.8507,1,0,16,16,2,1,2,×,7,2 × 7,neutral,smallerFirst,1.5,1.5,14,,,,,,,,
,,,,,,,,,,,,,,,723,2022-01-23_22h48.27.450,multiplicationStroop,2021.2.3,Win32,51.54639175,,,,,,,,,,,,,,,,,,,,,,,,,,,,,,,,,42,2.3941,1,0,17,17,20,1,7,×,6,7 × 6,neutral,largerFirst,1.5,1.5,42,,,,,,,,
,,,,,,,,,,,,,,,723,2022-01-23_22h48.27.450,multiplicationStroop,2021.2.3,Win32,51.54639175,,,,,,,,,,,,,,,,,,,,,,,,,,,,,,,,,10,1.6448,1,0,18,18,18,1,5,×,2,5 × 2,neutral,largerFirst,1.5,1.5,10,,,,,,,,
,,,,,,,,,,,,,,,723,2022-01-23_22h48.27.450,multiplicationStroop,2021.2.3,Win32,51.54639175,,,,,,,,,,,,,,,,,,,,,,,,,,,,,,,,,16,1.8318,1,0,19,19,27,1,8,×,2,8 × 2,neutral,largerFirst,1.5,1.5,16,,,,,,,,
,,,,,,,,,,,,,,,723,2022-01-23_22h48.27.450,multiplicationStroop,2021.2.3,Win32,51.54639175,,,,,,,,,,,,,,,,,,,,,,,,,,,,,,,,,72,10.0688,1,0,20,20,25,1,9,×,8,9 × 8,neutral,largerFirst,1.5,1.5,72,,,,,,,,
,,,,,,,,,,,,,,,723,2022-01-23_22h48.27.450,multiplicationStroop,2021.2.3,Win32,51.54639175,,,,,,,,,,,,,,,,,,,,,,,,,,,,,,,,,12,1.7887,1,0,21,21,7,1,3,×,4,3 × 4,neutral,smallerFirst,1.5,1.5,12,,,,,,,,
,,,,,,,,,,,,,,,723,2022-01-23_22h48.27.450,multiplicationStroop,2021.2.3,Win32,51.54639175,,,,,,,,,,,,,,,,,,,,,,,,,,,,,,,,,24,4.7604,1,0,22,22,8,1,3,×,8,3 × 8,neutral,smallerFirst,1.5,1.5,24,,,,,,,,
,,,,,,,,,,,,,,,723,2022-01-23_22h48.27.450,multiplicationStroop,2021.2.3,Win32,51.54639175,,,,,,,,,,,,,,,,,,,,,,,,,,,,,,,,,8,1.7533,1,0,23,23,17,1,4,×,2,4 × 2,neutral,largerFirst,1.5,1.5,8,,,,,,,,
,,,,,,,,,,,,,,,723,2022-01-23_22h48.27.450,multiplicationStroop,2021.2.3,Win32,51.54639175,,,,,,,,,,,,,,,,,,,,,,,,,,,,,,,,,28,2.1125,1,0,24,24,3,1,4,×,7,4 × 7,neutral,smallerFirst,1.5,1.5,28,,,,,,,,
,,,,,,,,,,,,,,,723,2022-01-23_22h48.27.450,multiplicationStroop,2021.2.3,Win32,51.54639175,,,,,,,,,,,,,,,,,,,,,,,,,,,,,,,,,32,4.8934,1,0,25,25,9,1,4,×,8,4 × 8,neutral,smallerFirst,1.5,1.5,32,,,,,,,,
,,,,,,,,,,,,,,,723,2022-01-23_22h48.27.450,multiplicationStroop,2021.2.3,Win32,51.54639175,,,,,,,,,,,,,,,,,,,,,,,,,,,,,,,,,6,2.1072,1,0,26,26,12,1,2,×,3,2 × 3,neutral,smallerFirst,1.5,1.5,6,,,,,,,,
,,,,,,,,,,,,,,,723,2022-01-23_22h48.27.450,multiplicationStroop,2021.2.3,Win32,51.54639175,,,,,,,,,,,,,,,,,,,,,,,,,,,,,,,,,21,1.5145,1,0,27,27,22,1,7,×,3,7 × 3,neutral,largerFirst,1.5,1.5,21,,,,,,,,
,,,,,,,,,,,,,,,723,2022-01-23_22h48.27.450,multiplicationStroop,2021.2.3,Win32,51.54639175,,,,,,,,,,,,,,,,,,,,,,,,,,,,,,,,,36,2.5797,1,0,28,28,32,1,6,×,6,6 × 6,neutral,tie,1.5,1.5,36,,,,,,,,
,,,,,,,,,,,,,,,723,2022-01-23_22h48.27.450,multiplicationStroop,2021.2.3,Win32,51.54639175,,,,,,,,,,,,,,,,,,,,,,,,,,,,,,,,,12,2.1468,1,0,29,29,11,1,2,×,6,2 × 6,neutral,smallerFirst,1.5,1.5,12,,,,,,,,
,,,,,,,,,,,,,,,723,2022-01-23_22h48.27.450,multiplicationStroop,2021.2.3,Win32,51.54639175,,,,,,,,,,,,,,,,,,,,,,,,,,,,,,,,,49,2.2463,1,0,30,30,33,1,7,×,7,7 × 7,neutral,tie,1.5,1.5,49,,,,,,,,
,,,,,,,,,,,,,,,723,2022-01-23_22h48.27.450,multiplicationStroop,2021.2.3,Win32,51.54639175,,,,,,,,,,,,,,,,,,,,,,,,,,,,,,,,,54,5.7495,1,0,31,31,21,1,9,×,6,9 × 6,neutral,largerFirst,1.5,1.5,54,,,,,,,,
,,,,,,,,,,,,,,,723,2022-01-23_22h48.27.450,multiplicationStroop,2021.2.3,Win32,51.54639175,,,,,,,,,,,,,,,,,,,,,,,,,,,,,,,,,4,1.5005,1,0,32,32,28,1,2,×,2,2 × 2,neutral,tie,1.5,1.5,4,,,,,,,,
,,,,,,,,,,,,,,,723,2022-01-23_22h48.27.450,multiplicationStroop,2021.2.3,Win32,51.54639175,,,,,,,,,,,,,,,,,,,,,,,,,,,,,,,,,18,2.5995,0,0,33,33,0,1,3,×,9,3 × 9,neutral,smallerFirst,1.5,1.5,27,,,,,,,,
,,,,,,,,,,,,,,,723,2022-01-23_22h48.27.450,multiplicationStroop,2021.2.3,Win32,51.54639175,,,,,,,,,,,,,,,,,,,,,,,,,,,,,,,,,56,2.8591,1,0,34,34,23,1,8,×,7,8 × 7,neutral,largerFirst,1.5,1.5,56,,,,,,,,
,,,,,,,,,,,,,,,723,2022-01-23_22h48.27.450,multiplicationStroop,2021.2.3,Win32,51.54639175,,,,,,,,,,,,,,,,,,,,,,,,,,,,,,,,,81,9.8494,1,0,35,35,35,1,9,×,9,9 × 9,neutral,tie,1.5,1.5,81,,,,,,,,
,,,,,,,,,,,,,,,723,2022-01-23_22h48.27.450,multiplicationStroop,2021.2.3,Win32,51.54639175,,,,,,,,,,,,,,,,,,,,,,,,,,,,,,,,,,,,,,,,,,,,,,,,,,0,2,2,0,1,stimulusFile/mult_blk1.xlsx,,
,,,,,,,,,,,,,,,723,2022-01-23_22h48.27.450,multiplicationStroop,2021.2.3,Win32,51.54639175,,,,,,,,,,,,,,,,,,,,,,,,,,,,,,,space,2.2712,12,2.1844,1,0,0,0,5,1,3,×,4,3 × 4,incongruent,smallerFirst,2,1,12,,,,,,,,
,,,,,,,,,,,,,,,723,2022-01-23_22h48.27.450,multiplicationStroop,2021.2.3,Win32,51.54639175,,,,,,,,,,,,,,,,,,,,,,,,,,,,,,,,,32,5.8837,1,0,1,1,7,1,4,×,8,4 × 8,incongruent,smallerFirst,2,1,32,,,,,,,,
,,,,,,,,,,,,,,,723,2022-01-23_22h48.27.450,multiplicationStroop,2021.2.3,Win32,51.54639175,,,,,,,,,,,,,,,,,,,,,,,,,,,,,,,,,24,3.7419,1,0,2,2,20,1,6,×,4,6 × 4,incongruent,largerFirst,1,2,24,,,,,,,,
,,,,,,,,,,,,,,,723,2022-01-23_22h48.27.450,multiplicationStroop,2021.2.3,Win32,51.54639175,,,,,,,,,,,,,,,,,,,,,,,,,,,,,,,,,6,2.0562,1,0,3,3,11,1,2,×,3,2 × 3,incongruent,smallerFirst,2,1,6,,,,,,,,
,,,,,,,,,,,,,,,723,2022-01-23_22h48.27.450,multiplicationStroop,2021.2.3,Win32,51.54639175,,,,,,,,,,,,,,,,,,,,,,,,,,,,,,,,,64,3.229,1,0,4,4,34,1,8,×,8,8 × 8,incongruent,tie,1,2,64,,,,,,,,
,,,,,,,,,,,,,,,723,2022-01-23_22h48.27.450,multiplicationStroop,2021.2.3,Win32,51.54639175,,,,,,,,,,,,,,,,,,,,,,,,,,,,,,,,,14,1.5903,1,0,5,5,4,1,2,×,7,2 × 7,incongruent,smallerFirst,2,1,14,,,,,,,,
,,,,,,,,,,,,,,,723,2022-01-23_22h48.27.450,multiplicationStroop,2021.2.3,Win32,51.54639175,,,,,,,,,,,,,,,,,,,,,,,,,,,,,,,,,72,3.512,1,0,6,6,0,1,8,×,9,8 × 9,incongruent,smallerFirst,2,1,72,,,,,,,,
,,,,,,,,,,,,,,,723,2022-01-23_22h48.27.450,multiplicationStroop,2021.2.3,Win32,51.54639175,,,,,,,,,,,,,,,,,,,,,,,,,,,,,,,,,36,4.28,1,0,7,7,15,1,9,×,4,9 × 4,incongruent,largerFirst,1,2,36,,,,,,,,
,,,,,,,,,,,,,,,723,2022-01-23_22h48.27.450,multiplicationStroop,2021.2.3,Win32,51.54639175,,,,,,,,,,,,,,,,,,,,,,,,,,,,,,,,,35,2.459,1,0,8,8,12,1,5,×,7,5 × 7,incongruent,smallerFirst,2,1,35,,,,,,,,
,,,,,,,,,,,,,,,723,2022-01-23_22h48.27.450,multiplicationStroop,2021.2.3,Win32,51.54639175,,,,,,,,,,,,,,,,,,,,,,,,,,,,,,,,,56,2.9757,1,0,9,9,14,1,8,×,7,8 × 7,incongruent,largerFirst,1,2,56,,,,,,,,
,,,,,,,,,,,,,,,723,2022-01-23_22h48.27.450,multiplicationStroop,2021.2.3,Win32,51.54639175,,,,,,,,,,,,,,,,,,,,,,,,,,,,,,,,,63,3.6503,1,0,10,10,3,1,7,×,9,7 × 9,incongruent,smallerFirst,2,1,63,,,,,,,,
,,,,,,,,,,,,,,,723,2022-01-23_22h48.27.450,multiplicationStroop,2021.2.3,Win32,51.54639175,,,,,,,,,,,,,,,,,,,,,,,,,,,,,,,,,15,1.8122,1,0,11,11,10,1,3,×,5,3 × 5,incongruent,smallerFirst,2,1,15,,,,,,,,
,,,,,,,,,,,,,,,723,2022-01-23_22h48.27.450,multiplicationStroop,2021.2.3,Win32,51.54639175,,,,,,,,,,,,,,,,,,,,,,,,,,,,,,,,,25,2.0817,1,0,12,12,31,1,5,×,5,5 × 5,incongruent,tie,1,2,25,,,,,,,,
,,,,,,,,,,,,,,,723,2022-01-23_22h48.27.450,multiplicationStroop,2021.2.3,Win32,51.54639175,,,,,,,,,,,,,,,,,,,,,,,,,,,,,,,,,28,1.9784,1,0,13,13,16,1,7,×,4,7 × 4,incongruent,largerFirst,1,2,28,,,,,,,,
,,,,,,,,,,,,,,,723,2022-01-23_22h48.27.450,multiplicationStroop,2021.2.3,Win32,51.54639175,,,,,,,,,,,,,,,,,,,,,,,,,,,,,,,,,54,3.1986,0,0,14,14,17,1,7,×,6,7 × 6,incongruent,largerFirst,1,2,42,,,,,,,,
,,,,,,,,,,,,,,,723,2022-01-23_22h48.27.450,multiplicationStroop,2021.2.3,Win32,51.54639175,,,,,,,,,,,,,,,,,,,,,,,,,,,,,,,,,30,1.829,1,0,15,15,25,1,6,×,5,6 × 5,incongruent,largerFirst,1,2,30,,,,,,,,
,,,,,,,,,,,,,,,723,2022-01-23_22h48.27.450,multiplicationStroop,2021.2.3,Win32,51.54639175,,,,,,,,,,,,,,,,,,,,,,,,,,,,,,,,,10,1.897,1,0,16,16,21,1,5,×,2,5 × 2,incongruent,largerFirst,1,2,10,,,,,,,,
,,,,,,,,,,,,,,,723,2022-01-23_22h48.27.450,multiplicationStroop,2021.2.3,Win32,51.54639175,,,,,,,,,,,,,,,,,,,,,,,,,,,,,,,,,16,1.7968,1,0,17,17,30,1,4,×,4,4 × 4,incongruent,tie,1,2,16,,,,,,,,
,,,,,,,,,,,,,,,723,2022-01-23_22h48.27.450,multiplicationStroop,2021.2.3,Win32,51.54639175,,,,,,,,,,,,,,,,,,,,,,,,,,,,,,,,,9,1.5142,1,0,18,18,29,1,3,×,3,3 × 3,incongruent,tie,1,2,9,,,,,,,,
,,,,,,,,,,,,,,,723,2022-01-23_22h48.27.450,multiplicationStroop,2021.2.3,Win32,51.54639175,,,,,,,,,,,,,,,,,,,,,,,,,,,,,,,,,40,2.0309,1,0,19,19,13,1,5,×,8,5 × 8,incongruent,smallerFirst,2,1,40,,,,,,,,
,,,,,,,,,,,,,,,723,2022-01-23_22h48.27.450,multiplicationStroop,2021.2.3,Win32,51.54639175,,,,,,,,,,,,,,,,,,,,,,,,,,,,,,,,,16,1.947,1,0,20,20,23,1,8,×,2,8 × 2,incongruent,largerFirst,1,2,16,,,,,,,,
,,,,,,,,,,,,,,,723,2022-01-23_22h48.27.450,multiplicationStroop,2021.2.3,Win32,51.54639175,,,,,,,,,,,,,,,,,,,,,,,,,,,,,,,,,18,1.9815,1,0,21,21,2,1,2,×,9,2 × 9,incongruent,smallerFirst,2,1,18,,,,,,,,
,,,,,,,,,,,,,,,723,2022-01-23_22h48.27.450,multiplicationStroop,2021.2.3,Win32,51.54639175,,,,,,,,,,,,,,,,,,,,,,,,,,,,,,,,,49,1.9459,1,0,22,22,33,1,7,×,7,7 × 7,incongruent,tie,1,2,49,,,,,,,,
,,,,,,,,,,,,,,,723,2022-01-23_22h48.27.450,multiplicationStroop,2021.2.3,Win32,51.54639175,,,,,,,,,,,,,,,,,,,,,,,,,,,,,,,,,82,3.1283,0,0,23,23,35,1,9,×,9,9 × 9,incongruent,tie,1,2,81,,,,,,,,
,,,,,,,,,,,,,,,723,2022-01-23_22h48.27.450,multiplicationStroop,2021.2.3,Win32,51.54639175,,,,,,,,,,,,,,,,,,,,,,,,,,,,,,,,,4,2.6001,1,0,24,24,28,1,2,×,2,2 × 2,incongruent,tie,1,2,4,,,,,,,,
,,,,,,,,,,,,,,,723,2022-01-23_22h48.27.450,multiplicationStroop,2021.2.3,Win32,51.54639175,,,,,,,,,,,,,,,,,,,,,,,,,,,,,,,,,48,6.6939,1,0,25,25,1,1,6,×,8,6 × 8,incongruent,smallerFirst,2,1,48,,,,,,,,
,,,,,,,,,,,,,,,723,2022-01-23_22h48.27.450,multiplicationStroop,2021.2.3,Win32,51.54639175,,,,,,,,,,,,,,,,,,,,,,,,,,,,,,,,,24,5.4412,1,0,26,26,9,1,3,×,8,3 × 8,incongruent,smallerFirst,2,1,24,,,,,,,,
,,,,,,,,,,,,,,,723,2022-01-23_22h48.27.450,multiplicationStroop,2021.2.3,Win32,51.54639175,,,,,,,,,,,,,,,,,,,,,,,,,,,,,,,,,12,4.5646,1,0,27,27,19,1,6,×,2,6 × 2,incongruent,largerFirst,1,2,12,,,,,,,,
,,,,,,,,,,,,,,,723,2022-01-23_22h48.27.450,multiplicationStroop,2021.2.3,Win32,51.54639175,,,,,,,,,,,,,,,,,,,,,,,,,,,,,,,,,27,2.947,1,0,28,28,18,1,9,×,3,9 × 3,incongruent,largerFirst,1,2,27,,,,,,,,
,,,,,,,,,,,,,,,723,2022-01-23_22h48.27.450,multiplicationStroop,2021.2.3,Win32,51.54639175,,,,,,,,,,,,,,,,,,,,,,,,,,,,,,,,,20,2.25,1,0,29,29,27,1,5,×,4,5 × 4,incongruent,largerFirst,1,2,20,,,,,,,,
,,,,,,,,,,,,,,,723,2022-01-23_22h48.27.450,multiplicationStroop,2021.2.3,Win32,51.54639175,,,,,,,,,,,,,,,,,,,,,,,,,,,,,,,,,36,2.3638,1,0,30,30,32,1,6,×,6,6 × 6,incongruent,tie,1,2,36,,,,,,,,
,,,,,,,,,,,,,,,723,2022-01-23_22h48.27.450,multiplicationStroop,2021.2.3,Win32,51.54639175,,,,,,,,,,,,,,,,,,,,,,,,,,,,,,,,,54,6.8748,1,0,31,31,6,1,6,×,9,6 × 9,incongruent,smallerFirst,2,1,54,,,,,,,,
,,,,,,,,,,,,,,,723,2022-01-23_22h48.27.450,multiplicationStroop,2021.2.3,Win32,51.54639175,,,,,,,,,,,,,,,,,,,,,,,,,,,,,,,,,18,2.3289,1,0,32,32,8,1,3,×,6,3 × 6,incongruent,smallerFirst,2,1,18,,,,,,,,
,,,,,,,,,,,,,,,723,2022-01-23_22h48.27.450,multiplicationStroop,2021.2.3,Win32,51.54639175,,,,,,,,,,,,,,,,,,,,,,,,,,,,,,,,,45,2.7459,1,0,33,33,22,1,9,×,5,9 × 5,incongruent,largerFirst,1,2,45,,,,,,,,
,,,,,,,,,,,,,,,723,2022-01-23_22h48.27.450,multiplicationStroop,2021.2.3,Win32,51.54639175,,,,,,,,,,,,,,,,,,,,,,,,,,,,,,,,,21,3.812,1,0,34,34,26,1,7,×,3,7 × 3,incongruent,largerFirst,1,2,21,,,,,,,,
,,,,,,,,,,,,,,,723,2022-01-23_22h48.27.450,multiplicationStroop,2021.2.3,Win32,51.54639175,,,,,,,,,,,,,,,,,,,,,,,,,,,,,,,,,8,1.9309,1,0,35,35,24,1,4,×,2,4 × 2,incongruent,largerFirst,1,2,8,,,,,,,,
,,,,,,,,,,,,,,,723,2022-01-23_22h48.27.450,multiplicationStroop,2021.2.3,Win32,51.54639175,,,,,,,,,,,,,,,,,,,,,,,,,,,,,,,,,,,,,,,,,,,,,,,,,,0,3,3,5,1,stimulusFile/mult_blk6_INcongruent.xlsx,,
,,,,,,,,,,,,,,,723,2022-01-23_22h48.27.450,multiplicationStroop,2021.2.3,Win32,51.54639175,,,,,,,,,,,,,,,,,,,,,,,,,,,,,,,space,1.6327,9,1.4978,1,0,0,0,29,1,3,×,3,3 × 3,neutral,tie,2,1,9,,,,,,,,
,,,,,,,,,,,,,,,723,2022-01-23_22h48.27.450,multiplicationStroop,2021.2.3,Win32,51.54639175,,,,,,,,,,,,,,,,,,,,,,,,,,,,,,,,,4,1.5627,1,0,1,1,28,1,2,×,2,2 × 2,neutral,tie,2,1,4,,,,,,,,
,,,,,,,,,,,,,,,723,2022-01-23_22h48.27.450,multiplicationStroop,2021.2.3,Win32,51.54639175,,,,,,,,,,,,,,,,,,,,,,,,,,,,,,,,,30,2.0941,1,0,2,2,11,1,5,×,6,5 × 6,incongruent,smallerFirst,2,1,30,,,,,,,,
,,,,,,,,,,,,,,,723,2022-01-23_22h48.27.450,multiplicationStroop,2021.2.3,Win32,51.54639175,,,,,,,,,,,,,,,,,,,,,,,,,,,,,,,,,27,2.7315,1,0,3,3,4,1,3,×,9,3 × 9,incongruent,smallerFirst,2,1,27,,,,,,,,
,,,,,,,,,,,,,,,723,2022-01-23_22h48.27.450,multiplicationStroop,2021.2.3,Win32,51.54639175,,,,,,,,,,,,,,,,,,,,,,,,,,,,,,,,,8,1.9332,1,0,4,4,10,1,2,×,4,2 × 4,incongruent,smallerFirst,2,1,8,,,,,,,,
,,,,,,,,,,,,,,,723,2022-01-23_22h48.27.450,multiplicationStroop,2021.2.3,Win32,51.54639175,,,,,,,,,,,,,,,,,,,,,,,,,,,,,,,,,48,5.4418,1,0,5,5,15,1,8,×,6,8 × 6,incongruent,largerFirst,1,2,48,,,,,,,,
,,,,,,,,,,,,,,,723,2022-01-23_22h48.27.450,multiplicationStroop,2021.2.3,Win32,51.54639175,,,,,,,,,,,,,,,,,,,,,,,,,,,,,,,,,36,5.379,1,0,6,6,1,1,4,×,9,4 × 9,incongruent,smallerFirst,2,1,36,,,,,,,,
,,,,,,,,,,,,,,,723,2022-01-23_22h48.27.450,multiplicationStroop,2021.2.3,Win32,51.54639175,,,,,,,,,,,,,,,,,,,,,,,,,,,,,,,,,63,3.0964,1,0,7,7,17,1,9,×,7,9 × 7,incongruent,largerFirst,1,2,63,,,,,,,,
,,,,,,,,,,,,,,,723,2022-01-23_22h48.27.450,multiplicationStroop,2021.2.3,Win32,51.54639175,,,,,,,,,,,,,,,,,,,,,,,,,,,,,,,,,36,1.9282,1,0,8,8,32,1,6,×,6,6 × 6,neutral,tie,2,1,36,,,,,,,,
,,,,,,,,,,,,,,,723,2022-01-23_22h48.27.450,multiplicationStroop,2021.2.3,Win32,51.54639175,,,,,,,,,,,,,,,,,,,,,,,,,,,,,,,,,18,2.1996,1,0,9,9,22,1,6,×,3,6 × 3,incongruent,largerFirst,1,2,18,,,,,,,,
,,,,,,,,,,,,,,,723,2022-01-23_22h48.27.450,multiplicationStroop,2021.2.3,Win32,51.54639175,,,,,,,,,,,,,,,,,,,,,,,,,,,,,,,,,42,7.3386,1,0,10,10,3,1,6,×,7,6 × 7,incongruent,smallerFirst,2,1,42,,,,,,,,
,,,,,,,,,,,,,,,723,2022-01-23_22h48.27.450,multiplicationStroop,2021.2.3,Win32,51.54639175,,,,,,,,,,,,,,,,,,,,,,,,,,,,,,,,,16,2.6326,1,0,11,11,9,1,2,×,8,2 × 8,incongruent,smallerFirst,2,1,16,,,,,,,,
,,,,,,,,,,,,,,,723,2022-01-23_22h48.27.450,multiplicationStroop,2021.2.3,Win32,51.54639175,,,,,,,,,,,,,,,,,,,,,,,,,,,,,,,,,6,2.0308,1,0,12,12,25,1,3,×,2,3 × 2,incongruent,largerFirst,1,2,6,,,,,,,,
,,,,,,,,,,,,,,,723,2022-01-23_22h48.27.450,multiplicationStroop,2021.2.3,Win32,51.54639175,,,,,,,,,,,,,,,,,,,,,,,,,,,,,,,,,12,1.6629,1,0,13,13,19,1,4,×,3,4 × 3,incongruent,largerFirst,1,2,12,,,,,,,,
,,,,,,,,,,,,,,,723,2022-01-23_22h48.27.450,multiplicationStroop,2021.2.3,Win32,51.54639175,,,,,,,,,,,,,,,,,,,,,,,,,,,,,,,,,28,2.6978,1,0,14,14,2,1,4,×,7,4 × 7,incongruent,smallerFirst,2,1,28,,,,,,,,
,,,,,,,,,,,,,,,723,2022-01-23_22h48.27.450,multiplicationStroop,2021.2.3,Win32,51.54639175,,,,,,,,,,,,,,,,,,,,,,,,,,,,,,,,,21,1.8099,1,0,15,15,12,1,3,×,7,3 × 7,incongruent,smallerFirst,2,1,21,,,,,,,,
,,,,,,,,,,,,,,,723,2022-01-23_22h48.27.450,multiplicationStroop,2021.2.3,Win32,51.54639175,,,,,,,,,,,,,,,,,,,,,,,,,,,,,,,,,32,5.8092,1,0,16,16,21,1,8,×,4,8 × 4,incongruent,largerFirst,1,2,32,,,,,,,,
,,,,,,,,,,,,,,,723,2022-01-23_22h48.27.450,multiplicationStroop,2021.2.3,Win32,51.54639175,,,,,,,,,,,,,,,,,,,,,,,,,,,,,,,,,45,4.2946,1,0,17,17,8,1,5,×,9,5 × 9,incongruent,smallerFirst,2,1,45,,,,,,,,
,,,,,,,,,,,,,,,723,2022-01-23_22h48.27.450,multiplicationStroop,2021.2.3,Win32,51.54639175,,,,,,,,,,,,,,,,,,,,,,,,,,,,,,,,,54,6.2291,1,0,18,18,20,1,9,×,6,9 × 6,incongruent,largerFirst,1,2,54,,,,,,,,
,,,,,,,,,,,,,,,723,2022-01-23_22h48.27.450,multiplicationStroop,2021.2.3,Win32,51.54639175,,,,,,,,,,,,,,,,,,,,,,,,,,,,,,,,,16,2.0007,1,0,19,19,30,1,4,×,4,4 × 4,neutral,tie,2,1,16,,,,,,,,
,,,,,,,,,,,,,,,723,2022-01-23_22h48.27.450,multiplicationStroop,2021.2.3,Win32,51.54639175,,,,,,,,,,,,,,,,,,,,,,,,,,,,,,,,,49,2.0464,1,0,20,20,33,1,7,×,7,7 × 7,neutral,tie,2,1,49,,,,,,,,
,,,,,,,,,,,,,,,723,2022-01-23_22h48.27.450,multiplicationStroop,2021.2.3,Win32,51.54639175,,,,,,,,,,,,,,,,,,,,,,,,,,,,,,,,,72,7.6543,1,0,21,21,14,1,9,×,8,9 × 8,incongruent,largerFirst,1,2,72,,,,,,,,
,,,,,,,,,,,,,,,723,2022-01-23_22h48.27.450,multiplicationStroop,2021.2.3,Win32,51.54639175,,,,,,,,,,,,,,,,,,,,,,,,,,,,,,,,,40,1.9166,1,0,22,22,27,1,8,×,5,8 × 5,incongruent,largerFirst,1,2,40,,,,,,,,
,,,,,,,,,,,,,,,723,2022-01-23_22h48.27.450,multiplicationStroop,2021.2.3,Win32,51.54639175,,,,,,,,,,,,,,,,,,,,,,,,,,,,,,,,,20,2.0284,1,0,23,23,13,1,4,×,5,4 × 5,incongruent,smallerFirst,2,1,20,,,,,,,,
,,,,,,,,,,,,,,,723,2022-01-23_22h48.27.450,multiplicationStroop,2021.2.3,Win32,51.54639175,,,,,,,,,,,,,,,,,,,,,,,,,,,,,,,,,10,1.6156,1,0,24,24,7,1,2,×,5,2 × 5,incongruent,smallerFirst,2,1,10,,,,,,,,
,,,,,,,,,,,,,,,723,2022-01-23_22h48.27.450,multiplicationStroop,2021.2.3,Win32,51.54639175,,,,,,,,,,,,,,,,,,,,,,,,,,,,,,,,,56,8.5639,1,0,25,25,0,1,7,×,8,7 × 8,incongruent,smallerFirst,2,1,56,,,,,,,,
,,,,,,,,,,,,,,,723,2022-01-23_22h48.27.450,multiplicationStroop,2021.2.3,Win32,51.54639175,,,,,,,,,,,,,,,,,,,,,,,,,,,,,,,,,35,2.9548,1,0,26,26,26,1,7,×,5,7 × 5,incongruent,largerFirst,1,2,35,,,,,,,,
,,,,,,,,,,,,,,,723,2022-01-23_22h48.27.450,multiplicationStroop,2021.2.3,Win32,51.54639175,,,,,,,,,,,,,,,,,,,,,,,,,,,,,,,,,24,4.6103,1,0,27,27,23,1,8,×,3,8 × 3,incongruent,largerFirst,1,2,24,,,,,,,,
,,,,,,,,,,,,,,,723,2022-01-23_22h48.27.450,multiplicationStroop,2021.2.3,Win32,51.54639175,,,,,,,,,,,,,,,,,,,,,,,,,,,,,,,,,14,2.2924,1,0,28,28,18,1,7,×,2,7 × 2,incongruent,largerFirst,1,2,14,,,,,,,,
,,,,,,,,,,,,,,,723,2022-01-23_22h48.27.450,multiplicationStroop,2021.2.3,Win32,51.54639175,,,,,,,,,,,,,,,,,,,,,,,,,,,,,,,,,15,1.7817,1,0,29,29,24,1,5,×,3,5 × 3,incongruent,largerFirst,1,2,15,,,,,,,,
,,,,,,,,,,,,,,,723,2022-01-23_22h48.27.450,multiplicationStroop,2021.2.3,Win32,51.54639175,,,,,,,,,,,,,,,,,,,,,,,,,,,,,,,,,25,1.6634,1,0,30,30,31,1,5,×,5,5 × 5,neutral,tie,2,1,25,,,,,,,,
,,,,,,,,,,,,,,,723,2022-01-23_22h48.27.450,multiplicationStroop,2021.2.3,Win32,51.54639175,,,,,,,,,,,,,,,,,,,,,,,,,,,,,,,,,12,2.4933,1,0,31,31,5,1,2,×,6,2 × 6,incongruent,smallerFirst,2,1,12,,,,,,,,
,,,,,,,,,,,,,,,723,2022-01-23_22h48.27.450,multiplicationStroop,2021.2.3,Win32,51.54639175,,,,,,,,,,,,,,,,,,,,,,,,,,,,,,,,,81,4.5113,1,0,32,32,35,1,9,×,9,9 × 9,neutral,tie,2,1,81,,,,,,,,
,,,,,,,,,,,,,,,723,2022-01-23_22h48.27.450,multiplicationStroop,2021.2.3,Win32,51.54639175,,,,,,,,,,,,,,,,,,,,,,,,,,,,,,,,,18,2.4063,1,0,33,33,16,1,9,×,2,9 × 2,incongruent,largerFirst,1,2,18,,,,,,,,
,,,,,,,,,,,,,,,723,2022-01-23_22h48.27.450,multiplicationStroop,2021.2.3,Win32,51.54639175,,,,,,,,,,,,,,,,,,,,,,,,,,,,,,,,,64,8.1899,1,0,34,34,34,1,8,×,8,8 × 8,neutral,tie,2,1,64,,,,,,,,
,,,,,,,,,,,,,,,723,2022-01-23_22h48.27.450,multiplicationStroop,2021.2.3,Win32,51.54639175,,,,,,,,,,,,,,,,,,,,,,,,,,,,,,,,,24,5.1929,1,0,35,35,6,1,4,×,6,4 × 6,incongruent,smallerFirst,2,1,24,,,,,,,,
,,,,,,,,,,,,,,,723,2022-01-23_22h48.27.450,multiplicationStroop,2021.2.3,Win32,51.54639175,,,,,,,,,,,,,,,,,,,,,,,,,,,,,,,,,,,,,,,,,,,,,,,,,,0,4,4,4,1,stimulusFile/mult_blk5_INcongruent.xlsx,,
,,,,,,,,,,,,,,,723,2022-01-23_22h48.27.450,multiplicationStroop,2021.2.3,Win32,51.54639175,,,,,,,,,,,,,,,,,,,,,,,,,,,,,,,space,1.6255,35,5.5853,1,0,0,0,1,1,5,×,7,5 × 7,congruent,smallerFirst,1,2,35,,,,,,,,
,,,,,,,,,,,,,,,723,2022-01-23_22h48.27.450,multiplicationStroop,2021.2.3,Win32,51.54639175,,,,,,,,,,,,,,,,,,,,,,,,,,,,,,,,,54,2.9778,1,0,1,1,12,1,6,×,9,6 × 9,congruent,smallerFirst,1,2,54,,,,,,,,
,,,,,,,,,,,,,,,723,2022-01-23_22h48.27.450,multiplicationStroop,2021.2.3,Win32,51.54639175,,,,,,,,,,,,,,,,,,,,,,,,,,,,,,,,,18,1.8386,1,0,2,2,22,1,9,×,2,9 × 2,congruent,largerFirst,2,1,18,,,,,,,,
,,,,,,,,,,,,,,,723,2022-01-23_22h48.27.450,multiplicationStroop,2021.2.3,Win32,51.54639175,,,,,,,,,,,,,,,,,,,,,,,,,,,,,,,,,30,2.0636,1,0,3,3,15,1,6,×,5,6 × 5,congruent,largerFirst,2,1,30,,,,,,,,
,,,,,,,,,,,,,,,723,2022-01-23_22h48.27.450,multiplicationStroop,2021.2.3,Win32,51.54639175,,,,,,,,,,,,,,,,,,,,,,,,,,,,,,,,,6,1.765,1,0,4,4,13,1,2,×,3,2 × 3,congruent,smallerFirst,1,2,6,,,,,,,,
,,,,,,,,,,,,,,,723,2022-01-23_22h48.27.450,multiplicationStroop,2021.2.3,Win32,51.54639175,,,,,,,,,,,,,,,,,,,,,,,,,,,,,,,,,12,1.5457,1,0,5,5,2,1,3,×,4,3 × 4,congruent,smallerFirst,1,2,12,,,,,,,,
,,,,,,,,,,,,,,,723,2022-01-23_22h48.27.450,multiplicationStroop,2021.2.3,Win32,51.54639175,,,,,,,,,,,,,,,,,,,,,,,,,,,,,,,,,21,1.8946,1,0,6,6,16,1,7,×,3,7 × 3,congruent,largerFirst,2,1,21,,,,,,,,
,,,,,,,,,,,,,,,723,2022-01-23_22h48.27.450,multiplicationStroop,2021.2.3,Win32,51.54639175,,,,,,,,,,,,,,,,,,,,,,,,,,,,,,,,,16,1.7637,1,0,7,7,5,1,2,×,8,2 × 8,congruent,smallerFirst,1,2,16,,,,,,,,
,,,,,,,,,,,,,,,723,2022-01-23_22h48.27.450,multiplicationStroop,2021.2.3,Win32,51.54639175,,,,,,,,,,,,,,,,,,,,,,,,,,,,,,,,,36,2.5236,1,0,8,8,32,1,6,×,6,6 × 6,neutral,tie,2,1,36,,,,,,,,
,,,,,,,,,,,,,,,723,2022-01-23_22h48.27.450,multiplicationStroop,2021.2.3,Win32,51.54639175,,,,,,,,,,,,,,,,,,,,,,,,,,,,,,,,,54,2.1225,0,0,9,9,18,1,8,×,6,8 × 6,congruent,largerFirst,2,1,48,,,,,,,,
,,,,,,,,,,,,,,,723,2022-01-23_22h48.27.450,multiplicationStroop,2021.2.3,Win32,51.54639175,,,,,,,,,,,,,,,,,,,,,,,,,,,,,,,,,32,4.3938,1,0,10,10,20,1,8,×,4,8 × 4,congruent,largerFirst,2,1,32,,,,,,,,
,,,,,,,,,,,,,,,723,2022-01-23_22h48.27.450,multiplicationStroop,2021.2.3,Win32,51.54639175,,,,,,,,,,,,,,,,,,,,,,,,,,,,,,,,,40,1.9453,1,0,11,11,6,1,5,×,8,5 × 8,congruent,smallerFirst,1,2,40,,,,,,,,
,,,,,,,,,,,,,,,723,2022-01-23_22h48.27.450,multiplicationStroop,2021.2.3,Win32,51.54639175,,,,,,,,,,,,,,,,,,,,,,,,,,,,,,,,,18,2.2953,1,0,12,12,11,1,3,×,6,3 × 6,congruent,smallerFirst,1,2,18,,,,,,,,
,,,,,,,,,,,,,,,723,2022-01-23_22h48.27.450,multiplicationStroop,2021.2.3,Win32,51.54639175,,,,,,,,,,,,,,,,,,,,,,,,,,,,,,,,,36,4.7611,1,0,13,13,0,1,4,×,9,4 × 9,congruent,smallerFirst,1,2,36,,,,,,,,
,,,,,,,,,,,,,,,723,2022-01-23_22h48.27.450,multiplicationStroop,2021.2.3,Win32,51.54639175,,,,,,,,,,,,,,,,,,,,,,,,,,,,,,,,,20,1.8727,1,0,14,14,7,1,4,×,5,4 × 5,congruent,smallerFirst,1,2,20,,,,,,,,
,,,,,,,,,,,,,,,723,2022-01-23_22h48.27.450,multiplicationStroop,2021.2.3,Win32,51.54639175,,,,,,,,,,,,,,,,,,,,,,,,,,,,,,,,,24,7.4596,1,0,15,15,25,1,6,×,4,6 × 4,congruent,largerFirst,2,1,24,,,,,,,,
,,,,,,,,,,,,,,,723,2022-01-23_22h48.27.450,multiplicationStroop,2021.2.3,Win32,51.54639175,,,,,,,,,,,,,,,,,,,,,,,,,,,,,,,,,27,5.1531,1,0,16,16,26,1,9,×,3,9 × 3,congruent,largerFirst,2,1,27,,,,,,,,
,,,,,,,,,,,,,,,723,2022-01-23_22h48.27.450,multiplicationStroop,2021.2.3,Win32,51.54639175,,,,,,,,,,,,,,,,,,,,,,,,,,,,,,,,,72,8.1176,1,0,17,17,17,1,9,×,8,9 × 8,congruent,largerFirst,2,1,72,,,,,,,,
,,,,,,,,,,,,,,,723,2022-01-23_22h48.27.450,multiplicationStroop,2021.2.3,Win32,51.54639175,,,,,,,,,,,,,,,,,,,,,,,,,,,,,,,,,54,2.9431,0,0,18,18,34,1,8,×,8,8 × 8,neutral,tie,2,1,64,,,,,,,,
,,,,,,,,,,,,,,,723,2022-01-23_22h48.27.450,multiplicationStroop,2021.2.3,Win32,51.54639175,,,,,,,,,,,,,,,,,,,,,,,,,,,,,,,,,63,3.3848,1,0,19,19,21,1,9,×,7,9 × 7,congruent,largerFirst,2,1,63,,,,,,,,
,,,,,,,,,,,,,,,723,2022-01-23_22h48.27.450,multiplicationStroop,2021.2.3,Win32,51.54639175,,,,,,,,,,,,,,,,,,,,,,,,,,,,,,,,,16,2.393,1,0,20,20,30,1,4,×,4,4 × 4,neutral,tie,2,1,16,,,,,,,,
,,,,,,,,,,,,,,,723,2022-01-23_22h48.27.450,multiplicationStroop,2021.2.3,Win32,51.54639175,,,,,,,,,,,,,,,,,,,,,,,,,,,,,,,,,28,2.097,1,0,21,21,27,1,7,×,4,7 × 4,congruent,largerFirst,2,1,28,,,,,,,,
,,,,,,,,,,,,,,,723,2022-01-23_22h48.27.450,multiplicationStroop,2021.2.3,Win32,51.54639175,,,,,,,,,,,,,,,,,,,,,,,,,,,,,,,,,10,1.6493,1,0,22,22,24,1,5,×,2,5 × 2,congruent,largerFirst,2,1,10,,,,,,,,
,,,,,,,,,,,,,,,723,2022-01-23_22h48.27.450,multiplicationStroop,2021.2.3,Win32,51.54639175,,,,,,,,,,,,,,,,,,,,,,,,,,,,,,,,,9,1.4812,1,0,23,23,29,1,3,×,3,3 × 3,neutral,tie,2,1,9,,,,,,,,
,,,,,,,,,,,,,,,723,2022-01-23_22h48.27.450,multiplicationStroop,2021.2.3,Win32,51.54639175,,,,,,,,,,,,,,,,,,,,,,,,,,,,,,,,,24,3.8026,1,0,24,24,10,1,3,×,8,3 × 8,congruent,smallerFirst,1,2,24,,,,,,,,
,,,,,,,,,,,,,,,723,2022-01-23_22h48.27.450,multiplicationStroop,2021.2.3,Win32,51.54639175,,,,,,,,,,,,,,,,,,,,,,,,,,,,,,,,,49,3.4365,1,0,25,25,33,1,7,×,7,7 × 7,neutral,tie,2,1,49,,,,,,,,
,,,,,,,,,,,,,,,723,2022-01-23_22h48.27.450,multiplicationStroop,2021.2.3,Win32,51.54639175,,,,,,,,,,,,,,,,,,,,,,,,,,,,,,,,,56,3.7647,1,0,26,26,8,1,7,×,8,7 × 8,congruent,smallerFirst,1,2,56,,,,,,,,
,,,,,,,,,,,,,,,723,2022-01-23_22h48.27.450,multiplicationStroop,2021.2.3,Win32,51.54639175,,,,,,,,,,,,,,,,,,,,,,,,,,,,,,,,,15,1.8054,1,0,27,27,4,1,3,×,5,3 × 5,congruent,smallerFirst,1,2,15,,,,,,,,
,,,,,,,,,,,,,,,723,2022-01-23_22h48.27.450,multiplicationStroop,2021.2.3,Win32,51.54639175,,,,,,,,,,,,,,,,,,,,,,,,,,,,,,,,,81,2.8934,1,0,28,28,35,1,9,×,9,9 × 9,neutral,tie,2,1,81,,,,,,,,
,,,,,,,,,,,,,,,723,2022-01-23_22h48.27.450,multiplicationStroop,2021.2.3,Win32,51.54639175,,,,,,,,,,,,,,,,,,,,,,,,,,,,,,,,,42,6.1767,1,0,29,29,3,1,6,×,7,6 × 7,congruent,smallerFirst,1,2,42,,,,,,,,
,,,,,,,,,,,,,,,723,2022-01-23_22h48.27.450,multiplicationStroop,2021.2.3,Win32,51.54639175,,,,,,,,,,,,,,,,,,,,,,,,,,,,,,,,,12,1.9407,1,0,30,30,19,1,6,×,2,6 × 2,congruent,largerFirst,2,1,12,,,,,,,,
,,,,,,,,,,,,,,,723,2022-01-23_22h48.27.450,multiplicationStroop,2021.2.3,Win32,51.54639175,,,,,,,,,,,,,,,,,,,,,,,,,,,,,,,,,25,2.0324,1,0,31,31,31,1,5,×,5,5 × 5,neutral,tie,2,1,25,,,,,,,,
,,,,,,,,,,,,,,,723,2022-01-23_22h48.27.450,multiplicationStroop,2021.2.3,Win32,51.54639175,,,,,,,,,,,,,,,,,,,,,,,,,,,,,,,,,4,1.5592,1,0,32,32,28,1,2,×,2,2 × 2,neutral,tie,2,1,4,,,,,,,,
,,,,,,,,,,,,,,,723,2022-01-23_22h48.27.450,multiplicationStroop,2021.2.3,Win32,51.54639175,,,,,,,,,,,,,,,,,,,,,,,,,,,,,,,,,8,1.813,1,0,33,33,9,1,2,×,4,2 × 4,congruent,smallerFirst,1,2,8,,,,,,,,
,,,,,,,,,,,,,,,723,2022-01-23_22h48.27.450,multiplicationStroop,2021.2.3,Win32,51.54639175,,,,,,,,,,,,,,,,,,,,,,,,,,,,,,,,,45,2.599,1,0,34,34,23,1,9,×,5,9 × 5,congruent,largerFirst,2,1,45,,,,,,,,
,,,,,,,,,,,,,,,723,2022-01-23_22h48.27.450,multiplicationStroop,2021.2.3,Win32,51.54639175,,,,,,,,,,,,,,,,,,,,,,,,,,,,,,,,,14,1.8615,1,0,35,35,14,1,7,×,2,7 × 2,congruent,largerFirst,2,1,14,,,,,,,,
,,,,,,,,,,,,,,,723,2022-01-23_22h48.27.450,multiplicationStroop,2021.2.3,Win32,51.54639175,,,,,,,,,,,,,,,,,,,,,,,,,,,,,,,,,,,,,,,,,,,,,,,,,,0,5,5,2,1,stimulusFile/mult_blk3_congruent.xlsx,,
,,,,,,,,,,,,,,,723,2022-01-23_22h48.27.450,multiplicationStroop,2021.2.3,Win32,51.54639175,,,,,,,,,,,,,,,,,,,,,,,,,,,,,,,,,,,,,,,,,,,,,,,,,,,,,,,,space,7.7381