welcomeKey_resp.keys,welcomeKey_resp.rt,X Scale,Y Scale,rt_resp_4.keys,rt_resp_4.corr,rt_resp_4.rt,speedtest_2.thisRepN,speedtest_2.thisTrialN,speedtest_2.thisN,speedtest_2.thisIndex,speedtest_2.ran,numberSc,posX,positionLayout,participant,date,expName,psychopyVersion,OS,frameRate,ct_instrresp.keys,ct_instrresp.rt,key_resp_2.keys,key_resp_2.rt,ct_keyResp.keys,ct_keyResp.corr,ct_keyResp.rt,trials.thisRepN,trials.thisTrialN,trials.thisN,trials.thisIndex,trials.ran,leftNo,rightNo,displayProblem,numDistance,leftNo_size,rightNo_size,Dims,keyAnswer,TS_Loop.thisRepN,TS_Loop.thisTrialN,TS_Loop.thisN,TS_Loop.thisIndex,TS_Loop.ran,Condition,ActionInst,instrImage,mltptaskInst_resp.keys,mltptaskInst_resp.rt,continue_resp_2.keys,continue_resp_2.rt,multp_Answer,multi_RT,multiplyCorr,LoopingMultiply.thisRepN,LoopingMultiply.thisTrialN,LoopingMultiply.thisN,LoopingMultiply.thisIndex,LoopingMultiply.ran,factor1,multiplySign,factor2,multliplyProblem,physicalSize,orderOperand,sizeF1,sizeF2,mult_answer,trials_stroop.thisRepN,trials_stroop.thisTrialN,trials_stroop.thisN,trials_stroop.thisIndex,trials_stroop.ran,multiplicationFile,esckey_resp_2.keys,esckey_resp_2.rt
y,5.8833,40.3,40.6,right,1,0.7447,0,0,0,11,1,4,200,right,726,2022-01-23_17h42.37.461,multiplicationStroop,2021.2.3,Win32,60.10699044,,,,,,,,,,,,,,,,,,,,,,,,,,,,,,,,,,,,,,,,,,,,,,,,,,,,,,,,,
,,,,right,1,0.3975,0,1,1,15,1,9,200,right,726,2022-01-23_17h42.37.461,multiplicationStroop,2021.2.3,Win32,60.10699044,,,,,,,,,,,,,,,,,,,,,,,,,,,,,,,,,,,,,,,,,,,,,,,,,,,,,,,,,
,,,,left,1,0.3946,0,2,2,1,1,2,-200,left,726,2022-01-23_17h42.37.461,multiplicationStroop,2021.2.3,Win32,60.10699044,,,,,,,,,,,,,,,,,,,,,,,,,,,,,,,,,,,,,,,,,,,,,,,,,,,,,,,,,
,,,,right,1,0.5414,0,3,3,12,1,6,200,right,726,2022-01-23_17h42.37.461,multiplicationStroop,2021.2.3,Win32,60.10699044,,,,,,,,,,,,,,,,,,,,,,,,,,,,,,,,,,,,,,,,,,,,,,,,,,,,,,,,,
,,,,right,1,0.3201,0,4,4,10,1,3,200,right,726,2022-01-23_17h42.37.461,multiplicationStroop,2021.2.3,Win32,60.10699044,,,,,,,,,,,,,,,,,,,,,,,,,,,,,,,,,,,,,,,,,,,,,,,,,,,,,,,,,
,,,,right,1,0.2718,0,5,5,9,1,2,200,right,726,2022-01-23_17h42.37.461,multiplicationStroop,2021.2.3,Win32,60.10699044,,,,,,,,,,,,,,,,,,,,,,,,,,,,,,,,,,,,,,,,,,,,,,,,,,,,,,,,,
,,,,left,1,0.3311,0,6,6,5,1,7,-200,left,726,2022-01-23_17h42.37.461,multiplicationStroop,2021.2.3,Win32,60.10699044,,,,,,,,,,,,,,,,,,,,,,,,,,,,,,,,,,,,,,,,,,,,,,,,,,,,,,,,,
,,,,left,1,0.3142,0,7,7,6,1,8,-200,left,726,2022-01-23_17h42.37.461,multiplicationStroop,2021.2.3,Win32,60.10699044,,,,,,,,,,,,,,,,,,,,,,,,,,,,,,,,,,,,,,,,,,,,,,,,,,,,,,,,,
,,,,left,1,0.2875,0,8,8,7,1,9,-200,left,726,2022-01-23_17h42.37.461,multiplicationStroop,2021.2.3,Win32,60.10699044,,,,,,,,,,,,,,,,,,,,,,,,,,,,,,,,,,,,,,,,,,,,,,,,,,,,,,,,,
,,,,left,1,0.3154,0,9,9,2,1,3,-200,left,726,2022-01-23_17h42.37.461,multiplicationStroop,2021.2.3,Win32,60.10699044,,,,,,,,,,,,,,,,,,,,,,,,,,,,,,,,,,,,,,,,,,,,,,,,,,,,,,,,,
,,,,left,1,0.3149,0,10,10,3,1,4,-200,left,726,2022-01-23_17h42.37.461,multiplicationStroop,2021.2.3,Win32,60.10699044,,,,,,,,,,,,,,,,,,,,,,,,,,,,,,,,,,,,,,,,,,,,,,,,,,,,,,,,,
,,,,right,1,0.3596,0,11,11,14,1,8,200,right,726,2022-01-23_17h42.37.461,multiplicationStroop,2021.2.3,Win32,60.10699044,,,,,,,,,,,,,,,,,,,,,,,,,,,,,,,,,,,,,,,,,,,,,,,,,,,,,,,,,
,,,,left,1,0.2805,0,12,12,0,1,1,-200,left,726,2022-01-23_17h42.37.461,multiplicationStroop,2021.2.3,Win32,60.10699044,,,,,,,,,,,,,,,,,,,,,,,,,,,,,,,,,,,,,,,,,,,,,,,,,,,,,,,,,
,,,,left,1,0.3291,0,13,13,4,1,6,-200,left,726,2022-01-23_17h42.37.461,multiplicationStroop,2021.2.3,Win32,60.10699044,,,,,,,,,,,,,,,,,,,,,,,,,,,,,,,,,,,,,,,,,,,,,,,,,,,,,,,,,
,,,,right,1,0.3216,0,14,14,13,1,7,200,right,726,2022-01-23_17h42.37.461,multiplicationStroop,2021.2.3,Win32,60.10699044,,,,,,,,,,,,,,,,,,,,,,,,,,,,,,,,,,,,,,,,,,,,,,,,,,,,,,,,,
,,,,right,1,0.3178,0,15,15,8,1,1,200,right,726,2022-01-23_17h42.37.461,multiplicationStroop,2021.2.3,Win32,60.10699044,,,,,,,,,,,,,,,,,,,,,,,,,,,,,,,,,,,,,,,,,,,,,,,,,,,,,,,,,
,,,,right,1,0.3185,1,0,16,10,1,3,200,right,726,2022-01-23_17h42.37.461,multiplicationStroop,2021.2.3,Win32,60.10699044,,,,,,,,,,,,,,,,,,,,,,,,,,,,,,,,,,,,,,,,,,,,,,,,,,,,,,,,,
,,,,left,1,0.3291,1,1,17,6,1,8,-200,left,726,2022-01-23_17h42.37.461,multiplicationStroop,2021.2.3,Win32,60.10699044,,,,,,,,,,,,,,,,,,,,,,,,,,,,,,,,,,,,,,,,,,,,,,,,,,,,,,,,,
,,,,left,1,0.3174,1,2,18,0,1,1,-200,left,726,2022-01-23_17h42.37.461,multiplicationStroop,2021.2.3,Win32,60.10699044,,,,,,,,,,,,,,,,,,,,,,,,,,,,,,,,,,,,,,,,,,,,,,,,,,,,,,,,,
,,,,left,1,0.2697,1,3,19,5,1,7,-200,left,726,2022-01-23_17h42.37.461,multiplicationStroop,2021.2.3,Win32,60.10699044,,,,,,,,,,,,,,,,,,,,,,,,,,,,,,,,,,,,,,,,,,,,,,,,,,,,,,,,,
,,,,left,1,0.3169,1,4,20,2,1,3,-200,left,726,2022-01-23_17h42.37.461,multiplicationStroop,2021.2.3,Win32,60.10699044,,,,,,,,,,,,,,,,,,,,,,,,,,,,,,,,,,,,,,,,,,,,,,,,,,,,,,,,,
,,,,left,0,0.2976,1,5,21,8,1,1,200,right,726,2022-01-23_17h42.37.461,multiplicationStroop,2021.2.3,Win32,60.10699044,,,,,,,,,,,,,,,,,,,,,,,,,,,,,,,,,,,,,,,,,,,,,,,,,,,,,,,,,
,,,,right,1,0.1531,1,6,22,15,1,9,200,right,726,2022-01-23_17h42.37.461,multiplicationStroop,2021.2.3,Win32,60.10699044,,,,,,,,,,,,,,,,,,,,,,,,,,,,,,,,,,,,,,,,,,,,,,,,,,,,,,,,,
,,,,right,1,0.2974,1,7,23,11,1,4,200,right,726,2022-01-23_17h42.37.461,multiplicationStroop,2021.2.3,Win32,60.10699044,,,,,,,,,,,,,,,,,,,,,,,,,,,,,,,,,,,,,,,,,,,,,,,,,,,,,,,,,
,,,,right,1,0.2819,1,8,24,13,1,7,200,right,726,2022-01-23_17h42.37.461,multiplicationStroop,2021.2.3,Win32,60.10699044,,,,,,,,,,,,,,,,,,,,,,,,,,,,,,,,,,,,,,,,,,,,,,,,,,,,,,,,,
,,,,left,1,0.3452,1,9,25,1,1,2,-200,left,726,2022-01-23_17h42.37.461,multiplicationStroop,2021.2.3,Win32,60.10699044,,,,,,,,,,,,,,,,,,,,,,,,,,,,,,,,,,,,,,,,,,,,,,,,,,,,,,,,,
,,,,left,1,0.2898,1,10,26,4,1,6,-200,left,726,2022-01-23_17h42.37.461,multiplicationStroop,2021.2.3,Win32,60.10699044,,,,,,,,,,,,,,,,,,,,,,,,,,,,,,,,,,,,,,,,,,,,,,,,,,,,,,,,,
,,,,right,1,0.4048,1,11,27,14,1,8,200,right,726,2022-01-23_17h42.37.461,multiplicationStroop,2021.2.3,Win32,60.10699044,,,,,,,,,,,,,,,,,,,,,,,,,,,,,,,,,,,,,,,,,,,,,,,,,,,,,,,,,
,,,,left,1,0.2885,1,12,28,7,1,9,-200,left,726,2022-01-23_17h42.37.461,multiplicationStroop,2021.2.3,Win32,60.10699044,,,,,,,,,,,,,,,,,,,,,,,,,,,,,,,,,,,,,,,,,,,,,,,,,,,,,,,,,
,,,,right,1,0.2464,1,13,29,12,1,6,200,right,726,2022-01-23_17h42.37.461,multiplicationStroop,2021.2.3,Win32,60.10699044,,,,,,,,,,,,,,,,,,,,,,,,,,,,,,,,,,,,,,,,,,,,,,,,,,,,,,,,,
,,,,right,1,0.3306,1,14,30,9,1,2,200,right,726,2022-01-23_17h42.37.461,multiplicationStroop,2021.2.3,Win32,60.10699044,,,,,,,,,,,,,,,,,,,,,,,,,,,,,,,,,,,,,,,,,,,,,,,,,,,,,,,,,
,,,,left,1,0.3188,1,15,31,3,1,4,-200,left,726,2022-01-23_17h42.37.461,multiplicationStroop,2021.2.3,Win32,60.10699044,,,,,,,,,,,,,,,,,,,,,,,,,,,,,,,,,,,,,,,,,,,,,,,,,,,,,,,,,
,,,,left,1,0.331,2,0,32,7,1,9,-200,left,726,2022-01-23_17h42.37.461,multiplicationStroop,2021.2.3,Win32,60.10699044,,,,,,,,,,,,,,,,,,,,,,,,,,,,,,,,,,,,,,,,,,,,,,,,,,,,,,,,,
,,,,left,0,0.2571,2,1,33,13,1,7,200,right,726,2022-01-23_17h42.37.461,multiplicationStroop,2021.2.3,Win32,60.10699044,,,,,,,,,,,,,,,,,,,,,,,,,,,,,,,,,,,,,,,,,,,,,,,,,,,,,,,,,
,,,,right,1,0.4691,2,2,34,9,1,2,200,right,726,2022-01-23_17h42.37.461,multiplicationStroop,2021.2.3,Win32,60.10699044,,,,,,,,,,,,,,,,,,,,,,,,,,,,,,,,,,,,,,,,,,,,,,,,,,,,,,,,,
,,,,left,1,0.3992,2,3,35,2,1,3,-200,left,726,2022-01-23_17h42.37.461,multiplicationStroop,2021.2.3,Win32,60.10699044,,,,,,,,,,,,,,,,,,,,,,,,,,,,,,,,,,,,,,,,,,,,,,,,,,,,,,,,,
,,,,right,1,0.2823,2,4,36,14,1,8,200,right,726,2022-01-23_17h42.37.461,multiplicationStroop,2021.2.3,Win32,60.10699044,,,,,,,,,,,,,,,,,,,,,,,,,,,,,,,,,,,,,,,,,,,,,,,,,,,,,,,,,
,,,,left,1,0.3099,2,5,37,5,1,7,-200,left,726,2022-01-23_17h42.37.461,multiplicationStroop,2021.2.3,Win32,60.10699044,,,,,,,,,,,,,,,,,,,,,,,,,,,,,,,,,,,,,,,,,,,,,,,,,,,,,,,,,
,,,,left,1,0.3136,2,6,38,0,1,1,-200,left,726,2022-01-23_17h42.37.461,multiplicationStroop,2021.2.3,Win32,60.10699044,,,,,,,,,,,,,,,,,,,,,,,,,,,,,,,,,,,,,,,,,,,,,,,,,,,,,,,,,
,,,,right,1,0.3767,2,7,39,12,1,6,200,right,726,2022-01-23_17h42.37.461,multiplicationStroop,2021.2.3,Win32,60.10699044,,,,,,,,,,,,,,,,,,,,,,,,,,,,,,,,,,,,,,,,,,,,,,,,,,,,,,,,,
,,,,right,1,0.3325,2,8,40,8,1,1,200,right,726,2022-01-23_17h42.37.461,multiplicationStroop,2021.2.3,Win32,60.10699044,,,,,,,,,,,,,,,,,,,,,,,,,,,,,,,,,,,,,,,,,,,,,,,,,,,,,,,,,
,,,,left,1,0.3623,2,9,41,6,1,8,-200,left,726,2022-01-23_17h42.37.461,multiplicationStroop,2021.2.3,Win32,60.10699044,,,,,,,,,,,,,,,,,,,,,,,,,,,,,,,,,,,,,,,,,,,,,,,,,,,,,,,,,
,,,,left,1,0.3196,2,10,42,1,1,2,-200,left,726,2022-01-23_17h42.37.461,multiplicationStroop,2021.2.3,Win32,60.10699044,,,,,,,,,,,,,,,,,,,,,,,,,,,,,,,,,,,,,,,,,,,,,,,,,,,,,,,,,
,,,,right,1,0.3655,2,11,43,11,1,4,200,right,726,2022-01-23_17h42.37.461,multiplicationStroop,2021.2.3,Win32,60.10699044,,,,,,,,,,,,,,,,,,,,,,,,,,,,,,,,,,,,,,,,,,,,,,,,,,,,,,,,,
,,,,right,1,0.3131,2,12,44,15,1,9,200,right,726,2022-01-23_17h42.37.461,multiplicationStroop,2021.2.3,Win32,60.10699044,,,,,,,,,,,,,,,,,,,,,,,,,,,,,,,,,,,,,,,,,,,,,,,,,,,,,,,,,
,,,,right,0,0.258,2,13,45,3,1,4,-200,left,726,2022-01-23_17h42.37.461,multiplicationStroop,2021.2.3,Win32,60.10699044,,,,,,,,,,,,,,,,,,,,,,,,,,,,,,,,,,,,,,,,,,,,,,,,,,,,,,,,,
,,,,right,1,0.5219,2,14,46,10,1,3,200,right,726,2022-01-23_17h42.37.461,multiplicationStroop,2021.2.3,Win32,60.10699044,,,,,,,,,,,,,,,,,,,,,,,,,,,,,,,,,,,,,,,,,,,,,,,,,,,,,,,,,
,,,,left,1,0.3319,2,15,47,4,1,6,-200,left,726,2022-01-23_17h42.37.461,multiplicationStroop,2021.2.3,Win32,60.10699044,,,,,,,,,,,,,,,,,,,,,,,,,,,,,,,,,,,,,,,,,,,,,,,,,,,,,,,,,
,,,,left,1,0.3827,3,0,48,5,1,7,-200,left,726,2022-01-23_17h42.37.461,multiplicationStroop,2021.2.3,Win32,60.10699044,,,,,,,,,,,,,,,,,,,,,,,,,,,,,,,,,,,,,,,,,,,,,,,,,,,,,,,,,
,,,,right,1,0.3343,3,1,49,10,1,3,200,right,726,2022-01-23_17h42.37.461,multiplicationStroop,2021.2.3,Win32,60.10699044,,,,,,,,,,,,,,,,,,,,,,,,,,,,,,,,,,,,,,,,,,,,,,,,,,,,,,,,,
,,,,right,1,0.3484,3,2,50,11,1,4,200,right,726,2022-01-23_17h42.37.461,multiplicationStroop,2021.2.3,Win32,60.10699044,,,,,,,,,,,,,,,,,,,,,,,,,,,,,,,,,,,,,,,,,,,,,,,,,,,,,,,,,
,,,,left,1,0.3279,3,3,51,3,1,4,-200,left,726,2022-01-23_17h42.37.461,multiplicationStroop,2021.2.3,Win32,60.10699044,,,,,,,,,,,,,,,,,,,,,,,,,,,,,,,,,,,,,,,,,,,,,,,,,,,,,,,,,
,,,,left,1,0.3646,3,4,52,1,1,2,-200,left,726,2022-01-23_17h42.37.461,multiplicationStroop,2021.2.3,Win32,60.10699044,,,,,,,,,,,,,,,,,,,,,,,,,,,,,,,,,,,,,,,,,,,,,,,,,,,,,,,,,
,,,,left,1,0.3015,3,5,53,7,1,9,-200,left,726,2022-01-23_17h42.37.461,multiplicationStroop,2021.2.3,Win32,60.10699044,,,,,,,,,,,,,,,,,,,,,,,,,,,,,,,,,,,,,,,,,,,,,,,,,,,,,,,,,
,,,,left,1,0.3149,3,6,54,2,1,3,-200,left,726,2022-01-23_17h42.37.461,multiplicationStroop,2021.2.3,Win32,60.10699044,,,,,,,,,,,,,,,,,,,,,,,,,,,,,,,,,,,,,,,,,,,,,,,,,,,,,,,,,
,,,,left,1,0.3334,3,7,55,4,1,6,-200,left,726,2022-01-23_17h42.37.461,multiplicationStroop,2021.2.3,Win32,60.10699044,,,,,,,,,,,,,,,,,,,,,,,,,,,,,,,,,,,,,,,,,,,,,,,,,,,,,,,,,
,,,,right,1,0.337,3,8,56,8,1,1,200,right,726,2022-01-23_17h42.37.461,multiplicationStroop,2021.2.3,Win32,60.10699044,,,,,,,,,,,,,,,,,,,,,,,,,,,,,,,,,,,,,,,,,,,,,,,,,,,,,,,,,
,,,,right,1,0.3022,3,9,57,9,1,2,200,right,726,2022-01-23_17h42.37.461,multiplicationStroop,2021.2.3,Win32,60.10699044,,,,,,,,,,,,,,,,,,,,,,,,,,,,,,,,,,,,,,,,,,,,,,,,,,,,,,,,,
,,,,left,1,0.5308,3,10,58,0,1,1,-200,left,726,2022-01-23_17h42.37.461,multiplicationStroop,2021.2.3,Win32,60.10699044,,,,,,,,,,,,,,,,,,,,,,,,,,,,,,,,,,,,,,,,,,,,,,,,,,,,,,,,,
,,,,right,1,0.2828,3,11,59,13,1,7,200,right,726,2022-01-23_17h42.37.461,multiplicationStroop,2021.2.3,Win32,60.10699044,,,,,,,,,,,,,,,,,,,,,,,,,,,,,,,,,,,,,,,,,,,,,,,,,,,,,,,,,
,,,,right,1,0.3,3,12,60,14,1,8,200,right,726,2022-01-23_17h42.37.461,multiplicationStroop,2021.2.3,Win32,60.10699044,,,,,,,,,,,,,,,,,,,,,,,,,,,,,,,,,,,,,,,,,,,,,,,,,,,,,,,,,
,,,,left,1,0.3345,3,13,61,6,1,8,-200,left,726,2022-01-23_17h42.37.461,multiplicationStroop,2021.2.3,Win32,60.10699044,,,,,,,,,,,,,,,,,,,,,,,,,,,,,,,,,,,,,,,,,,,,,,,,,,,,,,,,,
,,,,right,1,0.275,3,14,62,15,1,9,200,right,726,2022-01-23_17h42.37.461,multiplicationStroop,2021.2.3,Win32,60.10699044,,,,,,,,,,,,,,,,,,,,,,,,,,,,,,,,,,,,,,,,,,,,,,,,,,,,,,,,,
,,,,right,1,0.2891,3,15,63,12,1,6,200,right,726,2022-01-23_17h42.37.461,multiplicationStroop,2021.2.3,Win32,60.10699044,,,,,,,,,,,,,,,,,,,,,,,,,,,,,,,,,,,,,,,,,,,,,,,,,,,,,,,,,
,,,,,,,,,,,,,,,726,2022-01-23_17h42.37.461,multiplicationStroop,2021.2.3,Win32,60.10699044,space,9.3941,space,2.4897,left,1,1.1224,0,0,0,48,1,1,1,1 | 1,0,1.9756,1.4111,neutral,left,,,,,,stimulusFile/physical.xlsx,,,,,,,,,,,,,,,,,,,,,,,,,,,,,,,
,,,,,,,,,,,,,,,726,2022-01-23_17h42.37.461,multiplicationStroop,2021.2.3,Win32,60.10699044,,,,,right,1,0.4865,0,1,1,17,1,2,7,2 | 7,5,1.4111,1.9756,congruent,right,,,,,,stimulusFile/physical.xlsx,,,,,,,,,,,,,,,,,,,,,,,,,,,,,,,
,,,,,,,,,,,,,,,726,2022-01-23_17h42.37.461,multiplicationStroop,2021.2.3,Win32,60.10699044,,,,,left,1,0.4147,0,2,2,33,1,2,4,2 | 4,2,1.9756,1.4111,incongruent,left,,,,,,stimulusFile/physical.xlsx,,,,,,,,,,,,,,,,,,,,,,,,,,,,,,,
,,,,,,,,,,,,,,,726,2022-01-23_17h42.37.461,multiplicationStroop,2021.2.3,Win32,60.10699044,,,,,left,1,0.4373,0,3,3,15,1,9,7,9 | 7,2,1.9756,1.4111,congruent,left,,,,,,stimulusFile/physical.xlsx,,,,,,,,,,,,,,,,,,,,,,,,,,,,,,,
,,,,,,,,,,,,,,,726,2022-01-23_17h42.37.461,multiplicationStroop,2021.2.3,Win32,60.10699044,,,,,right,1,0.5148,0,4,4,56,1,1,1,1 | 1,0,1.4111,1.9756,neutral,right,,,,,,stimulusFile/physical.xlsx,,,,,,,,,,,,,,,,,,,,,,,,,,,,,,,
,,,,,,,,,,,,,,,726,2022-01-23_17h42.37.461,multiplicationStroop,2021.2.3,Win32,60.10699044,,,,,right,1,0.6816,0,5,5,29,1,4,3,4 | 3,1,1.4111,1.9756,incongruent,right,,,,,,stimulusFile/physical.xlsx,,,,,,,,,,,,,,,,,,,,,,,,,,,,,,,
,,,,,,,,,,,,,,,726,2022-01-23_17h42.37.461,multiplicationStroop,2021.2.3,Win32,60.10699044,,,,,left,1,0.4122,0,6,6,7,1,9,8,9 | 8,1,1.9756,1.4111,congruent,left,,,,,,stimulusFile/physical.xlsx,,,,,,,,,,,,,,,,,,,,,,,,,,,,,,,
,,,,,,,,,,,,,,,726,2022-01-23_17h42.37.461,multiplicationStroop,2021.2.3,Win32,60.10699044,,,,,left,1,0.4164,0,7,7,42,1,3,8,3 | 8,5,1.9756,1.4111,incongruent,left,,,,,,stimulusFile/physical.xlsx,,,,,,,,,,,,,,,,,,,,,,,,,,,,,,,
,,,,,,,,,,,,,,,726,2022-01-23_17h42.37.461,multiplicationStroop,2021.2.3,Win32,60.10699044,,,,,left,1,0.4811,0,8,8,54,1,7,7,7 | 7,0,1.9756,1.4111,neutral,left,,,,,,stimulusFile/physical.xlsx,,,,,,,,,,,,,,,,,,,,,,,,,,,,,,,
,,,,,,,,,,,,,,,726,2022-01-23_17h42.37.461,multiplicationStroop,2021.2.3,Win32,60.10699044,,,,,left,0,0.524,0,9,9,64,1,1,1,1 | 1,0,1.9756,1.4111,neutral,right,,,,,,stimulusFile/physical.xlsx,,,,,,,,,,,,,,,,,,,,,,,,,,,,,,,
,,,,,,,,,,,,,,,726,2022-01-23_17h42.37.461,multiplicationStroop,2021.2.3,Win32,60.10699044,,,,,right,1,0.4627,0,10,10,61,1,4,4,4 | 4,0,1.4111,1.9756,neutral,right,,,,,,stimulusFile/physical.xlsx,,,,,,,,,,,,,,,,,,,,,,,,,,,,,,,
,,,,,,,,,,,,,,,726,2022-01-23_17h42.37.461,multiplicationStroop,2021.2.3,Win32,60.10699044,,,,,right,1,0.4891,0,11,11,46,1,8,3,8 | 3,5,1.4111,1.9756,incongruent,right,,,,,,stimulusFile/physical.xlsx,,,,,,,,,,,,,,,,,,,,,,,,,,,,,,,
,,,,,,,,,,,,,,,726,2022-01-23_17h42.37.461,multiplicationStroop,2021.2.3,Win32,60.10699044,,,,,right,1,0.7572,0,12,12,10,1,6,8,6 | 8,2,1.4111,1.9756,congruent,right,,,,,,stimulusFile/physical.xlsx,,,,,,,,,,,,,,,,,,,,,,,,,,,,,,,
,,,,,,,,,,,,,,,726,2022-01-23_17h42.37.461,multiplicationStroop,2021.2.3,Win32,60.10699044,,,,,left,1,0.4997,0,13,13,26,1,6,7,6 | 7,1,1.9756,1.4111,incongruent,left,,,,,,stimulusFile/physical.xlsx,,,,,,,,,,,,,,,,,,,,,,,,,,,,,,,
,,,,,,,,,,,,,,,726,2022-01-23_17h42.37.461,multiplicationStroop,2021.2.3,Win32,60.10699044,,,,,left,1,0.4281,0,14,14,20,1,6,1,6 | 1,5,1.9756,1.4111,congruent,left,,,,,,stimulusFile/physical.xlsx,,,,,,,,,,,,,,,,,,,,,,,,,,,,,,,
,,,,,,,,,,,,,,,726,2022-01-23_17h42.37.461,multiplicationStroop,2021.2.3,Win32,60.10699044,,,,,right,1,0.5061,0,15,15,36,1,3,1,3 | 1,2,1.4111,1.9756,incongruent,right,,,,,,stimulusFile/physical.xlsx,,,,,,,,,,,,,,,,,,,,,,,,,,,,,,,
,,,,,,,,,,,,,,,726,2022-01-23_17h42.37.461,multiplicationStroop,2021.2.3,Win32,60.10699044,,,,,right,1,0.4236,0,16,16,59,1,7,7,7 | 7,0,1.4111,1.9756,neutral,right,,,,,,stimulusFile/physical.xlsx,,,,,,,,,,,,,,,,,,,,,,,,,,,,,,,
,,,,,,,,,,,,,,,726,2022-01-23_17h42.37.461,multiplicationStroop,2021.2.3,Win32,60.10699044,,,,,left,1,0.4915,0,17,17,5,1,4,3,4 | 3,1,1.9756,1.4111,congruent,left,,,,,,stimulusFile/physical.xlsx,,,,,,,,,,,,,,,,,,,,,,,,,,,,,,,
,,,,,,,,,,,,,,,726,2022-01-23_17h42.37.461,multiplicationStroop,2021.2.3,Win32,60.10699044,,,,,left,1,0.4754,0,18,18,25,1,3,4,3 | 4,1,1.9756,1.4111,incongruent,left,,,,,,stimulusFile/physical.xlsx,,,,,,,,,,,,,,,,,,,,,,,,,,,,,,,
,,,,,,,,,,,,,,,726,2022-01-23_17h42.37.461,multiplicationStroop,2021.2.3,Win32,60.10699044,,,,,left,1,0.473,0,19,19,27,1,8,9,8 | 9,1,1.9756,1.4111,incongruent,left,,,,,,stimulusFile/physical.xlsx,,,,,,,,,,,,,,,,,,,,,,,,,,,,,,,
,,,,,,,,,,,,,,,726,2022-01-23_17h42.37.461,multiplicationStroop,2021.2.3,Win32,60.10699044,,,,,left,1,0.4165,0,20,20,49,1,3,3,3 | 3,0,1.9756,1.4111,neutral,left,,,,,,stimulusFile/physical.xlsx,,,,,,,,,,,,,,,,,,,,,,,,,,,,,,,
,,,,,,,,,,,,,,,726,2022-01-23_17h42.37.461,multiplicationStroop,2021.2.3,Win32,60.10699044,,,,,left,1,0.4705,0,21,21,34,1,6,8,6 | 8,2,1.9756,1.4111,incongruent,left,,,,,,stimulusFile/physical.xlsx,,,,,,,,,,,,,,,,,,,,,,,,,,,,,,,
,,,,,,,,,,,,,,,726,2022-01-23_17h42.37.461,multiplicationStroop,2021.2.3,Win32,60.10699044,,,,,right,1,0.4518,0,22,22,8,1,1,3,1 | 3,2,1.4111,1.9756,congruent,right,,,,,,stimulusFile/physical.xlsx,,,,,,,,,,,,,,,,,,,,,,,,,,,,,,,
,,,,,,,,,,,,,,,726,2022-01-23_17h42.37.461,multiplicationStroop,2021.2.3,Win32,60.10699044,,,,,left,0,0.3551,0,23,23,66,1,3,3,3 | 3,0,1.9756,1.4111,neutral,right,,,,,,stimulusFile/physical.xlsx,,,,,,,,,,,,,,,,,,,,,,,,,,,,,,,
,,,,,,,,,,,,,,,726,2022-01-23_17h42.37.461,multiplicationStroop,2021.2.3,Win32,60.10699044,,,,,right,1,0.4481,0,24,24,16,1,1,6,1 | 6,5,1.4111,1.9756,congruent,right,,,,,,stimulusFile/physical.xlsx,,,,,,,,,,,,,,,,,,,,,,,,,,,,,,,
,,,,,,,,,,,,,,,726,2022-01-23_17h42.37.461,multiplicationStroop,2021.2.3,Win32,60.10699044,,,,,right,1,0.5312,0,25,25,60,1,3,3,3 | 3,0,1.4111,1.9756,neutral,right,,,,,,stimulusFile/physical.xlsx,,,,,,,,,,,,,,,,,,,,,,,,,,,,,,,
,,,,,,,,,,,,,,,726,2022-01-23_17h42.37.461,multiplicationStroop,2021.2.3,Win32,60.10699044,,,,,right,1,0.5133,0,26,26,65,1,2,2,2 | 2,0,1.4111,1.9756,neutral,right,,,,,,stimulusFile/physical.xlsx,,,,,,,,,,,,,,,,,,,,,,,,,,,,,,,
,,,,,,,,,,,,,,,726,2022-01-23_17h42.37.461,multiplicationStroop,2021.2.3,Win32,60.10699044,,,,,right,1,0.3815,0,27,27,19,1,4,9,4 | 9,5,1.4111,1.9756,congruent,right,,,,,,stimulusFile/physical.xlsx,,,,,,,,,,,,,,,,,,,,,,,,,,,,,,,
,,,,,,,,,,,,,,,726,2022-01-23_17h42.37.461,multiplicationStroop,2021.2.3,Win32,60.10699044,,,,,left,1,0.4773,0,28,28,55,1,9,9,9 | 9,0,1.9756,1.4111,neutral,left,,,,,,stimulusFile/physical.xlsx,,,,,,,,,,,,,,,,,,,,,,,,,,,,,,,
,,,,,,,,,,,,,,,726,2022-01-23_17h42.37.461,multiplicationStroop,2021.2.3,Win32,60.10699044,,,,,left,1,0.4655,0,29,29,6,1,7,6,7 | 6,1,1.9756,1.4111,congruent,left,,,,,,stimulusFile/physical.xlsx,,,,,,,,,,,,,,,,,,,,,,,,,,,,,,,
,,,,,,,,,,,,,,,726,2022-01-23_17h42.37.461,multiplicationStroop,2021.2.3,Win32,60.10699044,,,,,right,1,0.4737,0,30,30,44,1,6,1,6 | 1,5,1.4111,1.9756,incongruent,right,,,,,,stimulusFile/physical.xlsx,,,,,,,,,,,,,,,,,,,,,,,,,,,,,,,
,,,,,,,,,,,,,,,726,2022-01-23_17h42.37.461,multiplicationStroop,2021.2.3,Win32,60.10699044,,,,,left,1,0.5117,0,31,31,23,1,9,4,9 | 4,5,1.9756,1.4111,congruent,left,,,,,,stimulusFile/physical.xlsx,,,,,,,,,,,,,,,,,,,,,,,,,,,,,,,
,,,,,,,,,,,,,,,726,2022-01-23_17h42.37.461,multiplicationStroop,2021.2.3,Win32,60.10699044,,,,,left,1,0.4599,0,32,32,50,1,6,6,6 | 6,0,1.9756,1.4111,neutral,left,,,,,,stimulusFile/physical.xlsx,,,,,,,,,,,,,,,,,,,,,,,,,,,,,,,
,,,,,,,,,,,,,,,726,2022-01-23_17h42.37.461,multiplicationStroop,2021.2.3,Win32,60.10699044,,,,,left,1,0.3791,0,33,33,12,1,3,1,3 | 1,2,1.9756,1.4111,congruent,left,,,,,,stimulusFile/physical.xlsx,,,,,,,,,,,,,,,,,,,,,,,,,,,,,,,
,,,,,,,,,,,,,,,726,2022-01-23_17h42.37.461,multiplicationStroop,2021.2.3,Win32,60.10699044,,,,,right,1,0.5265,0,34,34,2,1,6,7,6 | 7,1,1.4111,1.9756,congruent,right,,,,,,stimulusFile/physical.xlsx,,,,,,,,,,,,,,,,,,,,,,,,,,,,,,,
,,,,,,,,,,,,,,,726,2022-01-23_17h42.37.461,multiplicationStroop,2021.2.3,Win32,60.10699044,,,,,left,0,0.4653,0,35,35,28,1,2,1,2 | 1,1,1.4111,1.9756,incongruent,right,,,,,,stimulusFile/physical.xlsx,,,,,,,,,,,,,,,,,,,,,,,,,,,,,,,
,,,,,,,,,,,,,,,726,2022-01-23_17h42.37.461,multiplicationStroop,2021.2.3,Win32,60.10699044,,,,,right,1,0.4783,0,36,36,47,1,9,4,9 | 4,5,1.4111,1.9756,incongruent,right,,,,,,stimulusFile/physical.xlsx,,,,,,,,,,,,,,,,,,,,,,,,,,,,,,,
,,,,,,,,,,,,,,,726,2022-01-23_17h42.37.461,multiplicationStroop,2021.2.3,Win32,60.10699044,,,,,right,1,0.411,0,37,37,58,1,6,6,6 | 6,0,1.4111,1.9756,neutral,right,,,,,,stimulusFile/physical.xlsx,,,,,,,,,,,,,,,,,,,,,,,,,,,,,,,
,,,,,,,,,,,,,,,726,2022-01-23_17h42.37.461,multiplicationStroop,2021.2.3,Win32,60.10699044,,,,,right,1,0.4955,0,38,38,30,1,7,6,7 | 6,1,1.4111,1.9756,incongruent,right,,,,,,stimulusFile/physical.xlsx,,,,,,,,,,,,,,,,,,,,,,,,,,,,,,,
,,,,,,,,,,,,,,,726,2022-01-23_17h42.37.461,multiplicationStroop,2021.2.3,Win32,60.10699044,,,,,right,1,0.4841,0,39,39,0,1,1,2,1 | 2,1,1.4111,1.9756,congruent,right,,,,,,stimulusFile/physical.xlsx,,,,,,,,,,,,,,,,,,,,,,,,,,,,,,,
,,,,,,,,,,,,,,,726,2022-01-23_17h42.37.461,multiplicationStroop,2021.2.3,Win32,60.10699044,,,,,right,1,0.4997,0,40,40,18,1,3,8,3 | 8,5,1.4111,1.9756,congruent,right,,,,,,stimulusFile/physical.xlsx,,,,,,,,,,,,,,,,,,,,,,,,,,,,,,,
,,,,,,,,,,,,,,,726,2022-01-23_17h42.37.461,multiplicationStroop,2021.2.3,Win32,60.10699044,,,,,right,1,0.5263,0,41,41,3,1,8,9,8 | 9,1,1.4111,1.9756,congruent,right,,,,,,stimulusFile/physical.xlsx,,,,,,,,,,,,,,,,,,,,,,,,,,,,,,,
,,,,,,,,,,,,,,,726,2022-01-23_17h42.37.461,multiplicationStroop,2021.2.3,Win32,60.10699044,,,,,left,1,0.5437,0,42,42,43,1,4,9,4 | 9,5,1.9756,1.4111,incongruent,left,,,,,,stimulusFile/physical.xlsx,,,,,,,,,,,,,,,,,,,,,,,,,,,,,,,
,,,,,,,,,,,,,,,726,2022-01-23_17h42.37.461,multiplicationStroop,2021.2.3,Win32,60.10699044,,,,,left,1,0.4364,0,43,43,41,1,2,7,2 | 7,5,1.9756,1.4111,incongruent,left,,,,,,stimulusFile/physical.xlsx,,,,,,,,,,,,,,,,,,,,,,,,,,,,,,,
,,,,,,,,,,,,,,,726,2022-01-23_17h42.37.461,multiplicationStroop,2021.2.3,Win32,60.10699044,,,,,right,1,0.4105,0,44,44,31,1,9,8,9 | 8,1,1.4111,1.9756,incongruent,right,,,,,,stimulusFile/physical.xlsx,,,,,,,,,,,,,,,,,,,,,,,,,,,,,,,
,,,,,,,,,,,,,,,726,2022-01-23_17h42.37.461,multiplicationStroop,2021.2.3,Win32,60.10699044,,,,,right,1,0.4798,0,45,45,63,1,9,9,9 | 9,0,1.4111,1.9756,neutral,right,,,,,,stimulusFile/physical.xlsx,,,,,,,,,,,,,,,,,,,,,,,,,,,,,,,
,,,,,,,,,,,,,,,726,2022-01-23_17h42.37.461,multiplicationStroop,2021.2.3,Win32,60.10699044,,,,,left,1,0.4175,0,46,46,35,1,7,9,7 | 9,2,1.9756,1.4111,incongruent,left,,,,,,stimulusFile/physical.xlsx,,,,,,,,,,,,,,,,,,,,,,,,,,,,,,,
,,,,,,,,,,,,,,,726,2022-01-23_17h42.37.461,multiplicationStroop,2021.2.3,Win32,60.10699044,,,,,right,1,0.4528,0,47,47,38,1,8,6,8 | 6,2,1.4111,1.9756,incongruent,right,,,,,,stimulusFile/physical.xlsx,,,,,,,,,,,,,,,,,,,,,,,,,,,,,,,
,,,,,,,,,,,,,,,726,2022-01-23_17h42.37.461,multiplicationStroop,2021.2.3,Win32,60.10699044,,,,,right,1,0.5757,0,48,48,57,1,2,2,2 | 2,0,1.4111,1.9756,neutral,right,,,,,,stimulusFile/physical.xlsx,,,,,,,,,,,,,,,,,,,,,,,,,,,,,,,
,,,,,,,,,,,,,,,726,2022-01-23_17h42.37.461,multiplicationStroop,2021.2.3,Win32,60.10699044,,,,,left,1,0.5001,0,49,49,52,1,2,2,2 | 2,0,1.9756,1.4111,neutral,left,,,,,,stimulusFile/physical.xlsx,,,,,,,,,,,,,,,,,,,,,,,,,,,,,,,
,,,,,,,,,,,,,,,726,2022-01-23_17h42.37.461,multiplicationStroop,2021.2.3,Win32,60.10699044,,,,,right,0,0.448,0,50,50,71,1,9,9,9 | 9,0,1.4111,1.9756,neutral,left,,,,,,stimulusFile/physical.xlsx,,,,,,,,,,,,,,,,,,,,,,,,,,,,,,,
,,,,,,,,,,,,,,,726,2022-01-23_17h42.37.461,multiplicationStroop,2021.2.3,Win32,60.10699044,,,,,left,1,0.5348,0,51,51,22,1,8,3,8 | 3,5,1.9756,1.4111,congruent,left,,,,,,stimulusFile/physical.xlsx,,,,,,,,,,,,,,,,,,,,,,,,,,,,,,,
,,,,,,,,,,,,,,,726,2022-01-23_17h42.37.461,multiplicationStroop,2021.2.3,Win32,60.10699044,,,,,left,1,0.5677,0,52,52,68,1,6,6,6 | 6,0,1.9756,1.4111,neutral,left,,,,,,stimulusFile/physical.xlsx,,,,,,,,,,,,,,,,,,,,,,,,,,,,,,,
,,,,,,,,,,,,,,,726,2022-01-23_17h42.37.461,multiplicationStroop,2021.2.3,Win32,60.10699044,,,,,right,1,0.4621,0,53,53,37,1,4,2,4 | 2,2,1.4111,1.9756,incongruent,right,,,,,,stimulusFile/physical.xlsx,,,,,,,,,,,,,,,,,,,,,,,,,,,,,,,
,,,,,,,,,,,,,,,726,2022-01-23_17h42.37.461,multiplicationStroop,2021.2.3,Win32,60.10699044,,,,,left,1,0.4009,0,54,54,24,1,1,2,1 | 2,1,1.9756,1.4111,incongruent,left,,,,,,stimulusFile/physical.xlsx,,,,,,,,,,,,,,,,,,,,,,,,,,,,,,,
,,,,,,,,,,,,,,,726,2022-01-23_17h42.37.461,multiplicationStroop,2021.2.3,Win32,60.10699044,,,,,right,1,0.4408,0,55,55,45,1,7,2,7 | 2,5,1.4111,1.9756,incongruent,right,,,,,,stimulusFile/physical.xlsx,,,,,,,,,,,,,,,,,,,,,,,,,,,,,,,
,,,,,,,,,,,,,,,726,2022-01-23_17h42.37.461,multiplicationStroop,2021.2.3,Win32,60.10699044,,,,,right,0,0.4494,0,56,56,69,1,7,7,7 | 7,0,1.4111,1.9756,neutral,left,,,,,,stimulusFile/physical.xlsx,,,,,,,,,,,,,,,,,,,,,,,,,,,,,,,
,,,,,,,,,,,,,,,726,2022-01-23_17h42.37.461,multiplicationStroop,2021.2.3,Win32,60.10699044,,,,,right,1,0.5479,0,57,57,67,1,4,4,4 | 4,0,1.4111,1.9756,neutral,right,,,,,,stimulusFile/physical.xlsx,,,,,,,,,,,,,,,,,,,,,,,,,,,,,,,
,,,,,,,,,,,,,,,726,2022-01-23_17h42.37.461,multiplicationStroop,2021.2.3,Win32,60.10699044,,,,,left,1,0.4948,0,58,58,40,1,1,6,1 | 6,5,1.9756,1.4111,incongruent,left,,,,,,stimulusFile/physical.xlsx,,,,,,,,,,,,,,,,,,,,,,,,,,,,,,,
,,,,,,,,,,,,,,,726,2022-01-23_17h42.37.461,multiplicationStroop,2021.2.3,Win32,60.10699044,,,,,right,1,0.4539,0,59,59,11,1,7,9,7 | 9,2,1.4111,1.9756,congruent,right,,,,,,stimulusFile/physical.xlsx,,,,,,,,,,,,,,,,,,,,,,,,,,,,,,,
,,,,,,,,,,,,,,,726,2022-01-23_17h42.37.461,multiplicationStroop,2021.2.3,Win32,60.10699044,,,,,left,1,0.3445,0,60,60,70,1,8,8,8 | 8,0,1.9756,1.4111,neutral,left,,,,,,stimulusFile/physical.xlsx,,,,,,,,,,,,,,,,,,,,,,,,,,,,,,,
,,,,,,,,,,,,,,,726,2022-01-23_17h42.37.461,multiplicationStroop,2021.2.3,Win32,60.10699044,,,,,left,1,0.4851,0,61,61,53,1,4,4,4 | 4,0,1.9756,1.4111,neutral,left,,,,,,stimulusFile/physical.xlsx,,,,,,,,,,,,,,,,,,,,,,,,,,,,,,,
,,,,,,,,,,,,,,,726,2022-01-23_17h42.37.461,multiplicationStroop,2021.2.3,Win32,60.10699044,,,,,right,1,0.4987,0,62,62,1,1,3,4,3 | 4,1,1.4111,1.9756,congruent,right,,,,,,stimulusFile/physical.xlsx,,,,,,,,,,,,,,,,,,,,,,,,,,,,,,,
,,,,,,,,,,,,,,,726,2022-01-23_17h42.37.461,multiplicationStroop,2021.2.3,Win32,60.10699044,,,,,left,1,0.4426,0,63,63,21,1,7,2,7 | 2,5,1.9756,1.4111,congruent,left,,,,,,stimulusFile/physical.xlsx,,,,,,,,,,,,,,,,,,,,,,,,,,,,,,,
,,,,,,,,,,,,,,,726,2022-01-23_17h42.37.461,multiplicationStroop,2021.2.3,Win32,60.10699044,,,,,right,0,0.5556,0,64,64,51,1,8,8,8 | 8,0,1.9756,1.4111,neutral,left,,,,,,stimulusFile/physical.xlsx,,,,,,,,,,,,,,,,,,,,,,,,,,,,,,,
,,,,,,,,,,,,,,,726,2022-01-23_17h42.37.461,multiplicationStroop,2021.2.3,Win32,60.10699044,,,,,right,1,0.4913,0,65,65,62,1,8,8,8 | 8,0,1.4111,1.9756,neutral,right,,,,,,stimulusFile/physical.xlsx,,,,,,,,,,,,,,,,,,,,,,,,,,,,,,,
,,,,,,,,,,,,,,,726,2022-01-23_17h42.37.461,multiplicationStroop,2021.2.3,Win32,60.10699044,,,,,right,1,0.5423,0,66,66,39,1,9,7,9 | 7,2,1.4111,1.9756,incongruent,right,,,,,,stimulusFile/physical.xlsx,,,,,,,,,,,,,,,,,,,,,,,,,,,,,,,
,,,,,,,,,,,,,,,726,2022-01-23_17h42.37.461,multiplicationStroop,2021.2.3,Win32,60.10699044,,,,,left,1,0.4129,0,67,67,14,1,8,6,8 | 6,2,1.9756,1.4111,congruent,left,,,,,,stimulusFile/physical.xlsx,,,,,,,,,,,,,,,,,,,,,,,,,,,,,,,
,,,,,,,,,,,,,,,726,2022-01-23_17h42.37.461,multiplicationStroop,2021.2.3,Win32,60.10699044,,,,,left,1,0.4158,0,68,68,32,1,1,3,1 | 3,2,1.9756,1.4111,incongruent,left,,,,,,stimulusFile/physical.xlsx,,,,,,,,,,,,,,,,,,,,,,,,,,,,,,,
,,,,,,,,,,,,,,,726,2022-01-23_17h42.37.461,multiplicationStroop,2021.2.3,Win32,60.10699044,,,,,left,1,0.4341,0,69,69,13,1,4,2,4 | 2,2,1.9756,1.4111,congruent,left,,,,,,stimulusFile/physical.xlsx,,,,,,,,,,,,,,,,,,,,,,,,,,,,,,,
,,,,,,,,,,,,,,,726,2022-01-23_17h42.37.461,multiplicationStroop,2021.2.3,Win32,60.10699044,,,,,left,1,0.4616,0,70,70,4,1,2,1,2 | 1,1,1.9756,1.4111,congruent,left,,,,,,stimulusFile/physical.xlsx,,,,,,,,,,,,,,,,,,,,,,,,,,,,,,,
,,,,,,,,,,,,,,,726,2022-01-23_17h42.37.461,multiplicationStroop,2021.2.3,Win32,60.10699044,,,,,right,1,0.4839,0,71,71,9,1,2,4,2 | 4,2,1.4111,1.9756,congruent,right,,,,,,stimulusFile/physical.xlsx,,,,,,,,,,,,,,,,,,,,,,,,,,,,,,,
,,,,,,,,,,,,,,,726,2022-01-23_17h42.37.461,multiplicationStroop,2021.2.3,Win32,60.10699044,,,,,,,,,,,,,,,,,,,,,0,0,0,1,1,stimulusFile/physical.xlsx,PHYSICALLY larger (larger font size).,images/physicallyLarger.png,,,,,,,,,,,,,,,,,,,,,,,,,,,,,
,,,,,,,,,,,,,,,726,2022-01-23_17h42.37.461,multiplicationStroop,2021.2.3,Win32,60.10699044,space,4.7668,space,4.1902,left,1,0.9087,0,0,0,45,1,7,2,7 | 2,5,1.4111,1.9756,incongruent,left,,,,,,stimulusFile/magnitude.xlsx,,,,,,,,,,,,,,,,,,,,,,,,,,,,,,,
,,,,,,,,,,,,,,,726,2022-01-23_17h42.37.461,multiplicationStroop,2021.2.3,Win32,60.10699044,,,,,left,1,0.8557,0,1,1,47,1,9,4,9 | 4,5,1.4111,1.9756,incongruent,left,,,,,,stimulusFile/magnitude.xlsx,,,,,,,,,,,,,,,,,,,,,,,,,,,,,,,
,,,,,,,,,,,,,,,726,2022-01-23_17h42.37.461,multiplicationStroop,2021.2.3,Win32,60.10699044,,,,,left,1,0.6874,0,2,2,71,1,9,4,9 | 4,5,1.6933,1.6933,neutral,left,,,,,,stimulusFile/magnitude.xlsx,,,,,,,,,,,,,,,,,,,,,,,,,,,,,,,
,,,,,,,,,,,,,,,726,2022-01-23_17h42.37.461,multiplicationStroop,2021.2.3,Win32,60.10699044,,,,,right,1,0.8762,0,3,3,8,1,1,3,1 | 3,2,1.4111,1.9756,congruent,right,,,,,,stimulusFile/magnitude.xlsx,,,,,,,,,,,,,,,,,,,,,,,,,,,,,,,
,,,,,,,,,,,,,,,726,2022-01-23_17h42.37.461,multiplicationStroop,2021.2.3,Win32,60.10699044,,,,,right,1,0.8512,0,4,4,11,1,7,9,7 | 9,2,1.4111,1.9756,congruent,right,,,,,,stimulusFile/magnitude.xlsx,,,,,,,,,,,,,,,,,,,,,,,,,,,,,,,
,,,,,,,,,,,,,,,726,2022-01-23_17h42.37.461,multiplicationStroop,2021.2.3,Win32,60.10699044,,,,,left,1,0.6104,0,5,5,61,1,4,2,4 | 2,2,1.6933,1.6933,neutral,left,,,,,,stimulusFile/magnitude.xlsx,,,,,,,,,,,,,,,,,,,,,,,,,,,,,,,
,,,,,,,,,,,,,,,726,2022-01-23_17h42.37.461,multiplicationStroop,2021.2.3,Win32,60.10699044,,,,,left,1,0.4669,0,6,6,69,1,7,2,7 | 2,5,1.6933,1.6933,neutral,left,,,,,,stimulusFile/magnitude.xlsx,,,,,,,,,,,,,,,,,,,,,,,,,,,,,,,
,,,,,,,,,,,,,,,726,2022-01-23_17h42.37.461,multiplicationStroop,2021.2.3,Win32,60.10699044,,,,,right,1,0.6078,0,7,7,67,1,4,9,4 | 9,5,1.6933,1.6933,neutral,right,,,,,,stimulusFile/magnitude.xlsx,,,,,,,,,,,,,,,,,,,,,,,,,,,,,,,
,,,,,,,,,,,,,,,726,2022-01-23_17h42.37.461,multiplicationStroop,2021.2.3,Win32,60.10699044,,,,,left,1,0.6527,0,8,8,62,1,8,6,8 | 6,2,1.6933,1.6933,neutral,left,,,,,,stimulusFile/magnitude.xlsx,,,,,,,,,,,,,,,,,,,,,,,,,,,,,,,
,,,,,,,,,,,,,,,726,2022-01-23_17h42.37.461,multiplicationStroop,2021.2.3,Win32,60.10699044,,,,,right,1,0.7773,0,9,9,2,1,6,7,6 | 7,1,1.4111,1.9756,congruent,right,,,,,,stimulusFile/magnitude.xlsx,,,,,,,,,,,,,,,,,,,,,,,,,,,,,,,
,,,,,,,,,,,,,,,726,2022-01-23_17h42.37.461,multiplicationStroop,2021.2.3,Win32,60.10699044,,,,,left,1,0.7508,0,10,10,37,1,4,2,4 | 2,2,1.4111,1.9756,incongruent,left,,,,,,stimulusFile/magnitude.xlsx,,,,,,,,,,,,,,,,,,,,,,,,,,,,,,,
,,,,,,,,,,,,,,,726,2022-01-23_17h42.37.461,multiplicationStroop,2021.2.3,Win32,60.10699044,,,,,right,1,0.5293,0,11,11,1,1,3,4,3 | 4,1,1.4111,1.9756,congruent,right,,,,,,stimulusFile/magnitude.xlsx,,,,,,,,,,,,,,,,,,,,,,,,,,,,,,,
,,,,,,,,,,,,,,,726,2022-01-23_17h42.37.461,multiplicationStroop,2021.2.3,Win32,60.10699044,,,,,right,1,0.6532,0,12,12,35,1,7,9,7 | 9,2,1.9756,1.4111,incongruent,right,,,,,,stimulusFile/magnitude.xlsx,,,,,,,,,,,,,,,,,,,,,,,,,,,,,,,
,,,,,,,,,,,,,,,726,2022-01-23_17h42.37.461,multiplicationStroop,2021.2.3,Win32,60.10699044,,,,,right,1,0.9164,0,13,13,34,1,6,8,6 | 8,2,1.9756,1.4111,incongruent,right,,,,,,stimulusFile/magnitude.xlsx,,,,,,,,,,,,,,,,,,,,,,,,,,,,,,,
,,,,,,,,,,,,,,,726,2022-01-23_17h42.37.461,multiplicationStroop,2021.2.3,Win32,60.10699044,,,,,right,1,0.5176,0,14,14,51,1,8,9,8 | 9,1,1.6933,1.6933,neutral,right,,,,,,stimulusFile/magnitude.xlsx,,,,,,,,,,,,,,,,,,,,,,,,,,,,,,,
,,,,,,,,,,,,,,,726,2022-01-23_17h42.37.461,multiplicationStroop,2021.2.3,Win32,60.10699044,,,,,right,1,0.5587,0,15,15,27,1,8,9,8 | 9,1,1.9756,1.4111,incongruent,right,,,,,,stimulusFile/magnitude.xlsx,,,,,,,,,,,,,,,,,,,,,,,,,,,,,,,
,,,,,,,,,,,,,,,726,2022-01-23_17h42.37.461,multiplicationStroop,2021.2.3,Win32,60.10699044,,,,,right,1,0.5002,0,16,16,16,1,1,6,1 | 6,5,1.4111,1.9756,congruent,right,,,,,,stimulusFile/magnitude.xlsx,,,,,,,,,,,,,,,,,,,,,,,,,,,,,,,
,,,,,,,,,,,,,,,726,2022-01-23_17h42.37.461,multiplicationStroop,2021.2.3,Win32,60.10699044,,,,,left,1,0.6841,0,17,17,6,1,7,6,7 | 6,1,1.9756,1.4111,congruent,left,,,,,,stimulusFile/magnitude.xlsx,,,,,,,,,,,,,,,,,,,,,,,,,,,,,,,
,,,,,,,,,,,,,,,726,2022-01-23_17h42.37.461,multiplicationStroop,2021.2.3,Win32,60.10699044,,,,,left,1,0.6867,0,18,18,55,1,9,8,9 | 8,1,1.6933,1.6933,neutral,left,,,,,,stimulusFile/magnitude.xlsx,,,,,,,,,,,,,,,,,,,,,,,,,,,,,,,
,,,,,,,,,,,,,,,726,2022-01-23_17h42.37.461,multiplicationStroop,2021.2.3,Win32,60.10699044,,,,,left,1,0.5673,0,19,19,60,1,3,1,3 | 1,2,1.6933,1.6933,neutral,left,,,,,,stimulusFile/magnitude.xlsx,,,,,,,,,,,,,,,,,,,,,,,,,,,,,,,
,,,,,,,,,,,,,,,726,2022-01-23_17h42.37.461,multiplicationStroop,2021.2.3,Win32,60.10699044,,,,,right,1,0.5212,0,20,20,0,1,1,2,1 | 2,1,1.4111,1.9756,congruent,right,,,,,,stimulusFile/magnitude.xlsx,,,,,,,,,,,,,,,,,,,,,,,,,,,,,,,
,,,,,,,,,,,,,,,726,2022-01-23_17h42.37.461,multiplicationStroop,2021.2.3,Win32,60.10699044,,,,,right,1,0.5338,0,21,21,41,1,2,7,2 | 7,5,1.9756,1.4111,incongruent,right,,,,,,stimulusFile/magnitude.xlsx,,,,,,,,,,,,,,,,,,,,,,,,,,,,,,,
,,,,,,,,,,,,,,,726,2022-01-23_17h42.37.461,multiplicationStroop,2021.2.3,Win32,60.10699044,,,,,left,1,0.6511,0,22,22,29,1,4,3,4 | 3,1,1.4111,1.9756,incongruent,left,,,,,,stimulusFile/magnitude.xlsx,,,,,,,,,,,,,,,,,,,,,,,,,,,,,,,
,,,,,,,,,,,,,,,726,2022-01-23_17h42.37.461,multiplicationStroop,2021.2.3,Win32,60.10699044,,,,,right,1,0.6371,0,23,23,32,1,1,3,1 | 3,2,1.9756,1.4111,incongruent,right,,,,,,stimulusFile/magnitude.xlsx,,,,,,,,,,,,,,,,,,,,,,,,,,,,,,,
,,,,,,,,,,,,,,,726,2022-01-23_17h42.37.461,multiplicationStroop,2021.2.3,Win32,60.10699044,,,,,right,1,0.5004,0,24,24,64,1,1,6,1 | 6,5,1.6933,1.6933,neutral,right,,,,,,stimulusFile/magnitude.xlsx,,,,,,,,,,,,,,,,,,,,,,,,,,,,,,,
,,,,,,,,,,,,,,,726,2022-01-23_17h42.37.461,multiplicationStroop,2021.2.3,Win32,60.10699044,,,,,left,1,0.4872,0,25,25,70,1,8,3,8 | 3,5,1.6933,1.6933,neutral,left,,,,,,stimulusFile/magnitude.xlsx,,,,,,,,,,,,,,,,,,,,,,,,,,,,,,,
,,,,,,,,,,,,,,,726,2022-01-23_17h42.37.461,multiplicationStroop,2021.2.3,Win32,60.10699044,,,,,left,1,0.4677,0,26,26,44,1,6,1,6 | 1,5,1.4111,1.9756,incongruent,left,,,,,,stimulusFile/magnitude.xlsx,,,,,,,,,,,,,,,,,,,,,,,,,,,,,,,
,,,,,,,,,,,,,,,726,2022-01-23_17h42.37.461,multiplicationStroop,2021.2.3,Win32,60.10699044,,,,,right,1,0.4944,0,27,27,48,1,1,2,1 | 2,1,1.6933,1.6933,neutral,right,,,,,,stimulusFile/magnitude.xlsx,,,,,,,,,,,,,,,,,,,,,,,,,,,,,,,
,,,,,,,,,,,,,,,726,2022-01-23_17h42.37.461,multiplicationStroop,2021.2.3,Win32,60.10699044,,,,,left,1,0.5176,0,28,28,52,1,2,1,2 | 1,1,1.6933,1.6933,neutral,left,,,,,,stimulusFile/magnitude.xlsx,,,,,,,,,,,,,,,,,,,,,,,,,,,,,,,
,,,,,,,,,,,,,,,726,2022-01-23_17h42.37.461,multiplicationStroop,2021.2.3,Win32,60.10699044,,,,,left,1,0.5404,0,29,29,54,1,7,6,7 | 6,1,1.6933,1.6933,neutral,left,,,,,,stimulusFile/magnitude.xlsx,,,,,,,,,,,,,,,,,,,,,,,,,,,,,,,
,,,,,,,,,,,,,,,726,2022-01-23_17h42.37.461,multiplicationStroop,2021.2.3,Win32,60.10699044,,,,,right,1,0.4853,0,30,30,18,1,3,8,3 | 8,5,1.4111,1.9756,congruent,right,,,,,,stimulusFile/magnitude.xlsx,,,,,,,,,,,,,,,,,,,,,,,,,,,,,,,
,,,,,,,,,,,,,,,726,2022-01-23_17h42.37.461,multiplicationStroop,2021.2.3,Win32,60.10699044,,,,,right,1,0.6674,0,31,31,49,1,3,4,3 | 4,1,1.6933,1.6933,neutral,right,,,,,,stimulusFile/magnitude.xlsx,,,,,,,,,,,,,,,,,,,,,,,,,,,,,,,
,,,,,,,,,,,,,,,726,2022-01-23_17h42.37.461,multiplicationStroop,2021.2.3,Win32,60.10699044,,,,,left,1,0.4693,0,32,32,20,1,6,1,6 | 1,5,1.9756,1.4111,congruent,left,,,,,,stimulusFile/magnitude.xlsx,,,,,,,,,,,,,,,,,,,,,,,,,,,,,,,
,,,,,,,,,,,,,,,726,2022-01-23_17h42.37.461,multiplicationStroop,2021.2.3,Win32,60.10699044,,,,,right,1,0.7519,0,33,33,25,1,3,4,3 | 4,1,1.9756,1.4111,incongruent,right,,,,,,stimulusFile/magnitude.xlsx,,,,,,,,,,,,,,,,,,,,,,,,,,,,,,,
,,,,,,,,,,,,,,,726,2022-01-23_17h42.37.461,multiplicationStroop,2021.2.3,Win32,60.10699044,,,,,left,1,0.6613,0,34,34,38,1,8,6,8 | 6,2,1.4111,1.9756,incongruent,left,,,,,,stimulusFile/magnitude.xlsx,,,,,,,,,,,,,,,,,,,,,,,,,,,,,,,
,,,,,,,,,,,,,,,726,2022-01-23_17h42.37.461,multiplicationStroop,2021.2.3,Win32,60.10699044,,,,,left,1,0.601,0,35,35,15,1,9,7,9 | 7,2,1.9756,1.4111,congruent,left,,,,,,stimulusFile/magnitude.xlsx,,,,,,,,,,,,,,,,,,,,,,,,,,,,,,,
,,,,,,,,,,,,,,,726,2022-01-23_17h42.37.461,multiplicationStroop,2021.2.3,Win32,60.10699044,,,,,right,1,0.472,0,36,36,19,1,4,9,4 | 9,5,1.4111,1.9756,congruent,right,,,,,,stimulusFile/magnitude.xlsx,,,,,,,,,,,,,,,,,,,,,,,,,,,,,,,
,,,,,,,,,,,,,,,726,2022-01-23_17h42.37.461,multiplicationStroop,2021.2.3,Win32,60.10699044,,,,,left,1,0.4209,0,37,37,5,1,4,3,4 | 3,1,1.9756,1.4111,congruent,left,,,,,,stimulusFile/magnitude.xlsx,,,,,,,,,,,,,,,,,,,,,,,,,,,,,,,
,,,,,,,,,,,,,,,726,2022-01-23_17h42.37.461,multiplicationStroop,2021.2.3,Win32,60.10699044,,,,,left,1,0.5765,0,38,38,46,1,8,3,8 | 3,5,1.4111,1.9756,incongruent,left,,,,,,stimulusFile/magnitude.xlsx,,,,,,,,,,,,,,,,,,,,,,,,,,,,,,,
,,,,,,,,,,,,,,,726,2022-01-23_17h42.37.461,multiplicationStroop,2021.2.3,Win32,60.10699044,,,,,right,1,0.5176,0,39,39,65,1,2,7,2 | 7,5,1.6933,1.6933,neutral,right,,,,,,stimulusFile/magnitude.xlsx,,,,,,,,,,,,,,,,,,,,,,,,,,,,,,,
,,,,,,,,,,,,,,,726,2022-01-23_17h42.37.461,multiplicationStroop,2021.2.3,Win32,60.10699044,,,,,left,1,0.4678,0,40,40,63,1,9,7,9 | 7,2,1.6933,1.6933,neutral,left,,,,,,stimulusFile/magnitude.xlsx,,,,,,,,,,,,,,,,,,,,,,,,,,,,,,,
,,,,,,,,,,,,,,,726,2022-01-23_17h42.37.461,multiplicationStroop,2021.2.3,Win32,60.10699044,,,,,right,1,0.5509,0,41,41,3,1,8,9,8 | 9,1,1.4111,1.9756,congruent,right,,,,,,stimulusFile/magnitude.xlsx,,,,,,,,,,,,,,,,,,,,,,,,,,,,,,,
,,,,,,,,,,,,,,,726,2022-01-23_17h42.37.461,multiplicationStroop,2021.2.3,Win32,60.10699044,,,,,right,1,0.4886,0,42,42,17,1,2,7,2 | 7,5,1.4111,1.9756,congruent,right,,,,,,stimulusFile/magnitude.xlsx,,,,,,,,,,,,,,,,,,,,,,,,,,,,,,,
,,,,,,,,,,,,,,,726,2022-01-23_17h42.37.461,multiplicationStroop,2021.2.3,Win32,60.10699044,,,,,left,1,0.4284,0,43,43,22,1,8,3,8 | 3,5,1.9756,1.4111,congruent,left,,,,,,stimulusFile/magnitude.xlsx,,,,,,,,,,,,,,,,,,,,,,,,,,,,,,,
,,,,,,,,,,,,,,,726,2022-01-23_17h42.37.461,multiplicationStroop,2021.2.3,Win32,60.10699044,,,,,left,1,0.4523,0,44,44,7,1,9,8,9 | 8,1,1.9756,1.4111,congruent,left,,,,,,stimulusFile/magnitude.xlsx,,,,,,,,,,,,,,,,,,,,,,,,,,,,,,,
,,,,,,,,,,,,,,,726,2022-01-23_17h42.37.461,multiplicationStroop,2021.2.3,Win32,60.10699044,,,,,left,1,0.4679,0,45,45,4,1,2,1,2 | 1,1,1.9756,1.4111,congruent,left,,,,,,stimulusFile/magnitude.xlsx,,,,,,,,,,,,,,,,,,,,,,,,,,,,,,,
,,,,,,,,,,,,,,,726,2022-01-23_17h42.37.461,multiplicationStroop,2021.2.3,Win32,60.10699044,,,,,left,1,0.7712,0,46,46,30,1,7,6,7 | 6,1,1.4111,1.9756,incongruent,left,,,,,,stimulusFile/magnitude.xlsx,,,,,,,,,,,,,,,,,,,,,,,,,,,,,,,
,,,,,,,,,,,,,,,726,2022-01-23_17h42.37.461,multiplicationStroop,2021.2.3,Win32,60.10699044,,,,,left,1,0.3895,0,47,47,21,1,7,2,7 | 2,5,1.9756,1.4111,congruent,left,,,,,,stimulusFile/magnitude.xlsx,,,,,,,,,,,,,,,,,,,,,,,,,,,,,,,
,,,,,,,,,,,,,,,726,2022-01-23_17h42.37.461,multiplicationStroop,2021.2.3,Win32,60.10699044,,,,,right,1,0.5849,0,48,48,33,1,2,4,2 | 4,2,1.9756,1.4111,incongruent,right,,,,,,stimulusFile/magnitude.xlsx,,,,,,,,,,,,,,,,,,,,,,,,,,,,,,,
,,,,,,,,,,,,,,,726,2022-01-23_17h42.37.461,multiplicationStroop,2021.2.3,Win32,60.10699044,,,,,right,1,0.6512,0,49,49,43,1,4,9,4 | 9,5,1.9756,1.4111,incongruent,right,,,,,,stimulusFile/magnitude.xlsx,,,,,,,,,,,,,,,,,,,,,,,,,,,,,,,
,,,,,,,,,,,,,,,726,2022-01-23_17h42.37.461,multiplicationStroop,2021.2.3,Win32,60.10699044,,,,,right,1,0.5178,0,50,50,9,1,2,4,2 | 4,2,1.4111,1.9756,congruent,right,,,,,,stimulusFile/magnitude.xlsx,,,,,,,,,,,,,,,,,,,,,,,,,,,,,,,
,,,,,,,,,,,,,,,726,2022-01-23_17h42.37.461,multiplicationStroop,2021.2.3,Win32,60.10699044,,,,,right,1,0.5344,0,51,51,40,1,1,6,1 | 6,5,1.9756,1.4111,incongruent,right,,,,,,stimulusFile/magnitude.xlsx,,,,,,,,,,,,,,,,,,,,,,,,,,,,,,,
,,,,,,,,,,,,,,,726,2022-01-23_17h42.37.461,multiplicationStroop,2021.2.3,Win32,60.10699044,,,,,left,1,0.7821,0,52,52,14,1,8,6,8 | 6,2,1.9756,1.4111,congruent,left,,,,,,stimulusFile/magnitude.xlsx,,,,,,,,,,,,,,,,,,,,,,,,,,,,,,,
,,,,,,,,,,,,,,,726,2022-01-23_17h42.37.461,multiplicationStroop,2021.2.3,Win32,60.10699044,,,,,left,1,0.5998,0,53,53,28,1,2,1,2 | 1,1,1.4111,1.9756,incongruent,left,,,,,,stimulusFile/magnitude.xlsx,,,,,,,,,,,,,,,,,,,,,,,,,,,,,,,
,,,,,,,,,,,,,,,726,2022-01-23_17h42.37.461,multiplicationStroop,2021.2.3,Win32,60.10699044,,,,,left,0,0.5189,0,54,54,66,1,3,8,3 | 8,5,1.6933,1.6933,neutral,right,,,,,,stimulusFile/magnitude.xlsx,,,,,,,,,,,,,,,,,,,,,,,,,,,,,,,
,,,,,,,,,,,,,,,726,2022-01-23_17h42.37.461,multiplicationStroop,2021.2.3,Win32,60.10699044,,,,,left,1,0.968,0,55,55,39,1,9,7,9 | 7,2,1.4111,1.9756,incongruent,left,,,,,,stimulusFile/magnitude.xlsx,,,,,,,,,,,,,,,,,,,,,,,,,,,,,,,
,,,,,,,,,,,,,,,726,2022-01-23_17h42.37.461,multiplicationStroop,2021.2.3,Win32,60.10699044,,,,,left,1,0.5677,0,56,56,36,1,3,1,3 | 1,2,1.4111,1.9756,incongruent,left,,,,,,stimulusFile/magnitude.xlsx,,,,,,,,,,,,,,,,,,,,,,,,,,,,,,,
,,,,,,,,,,,,,,,726,2022-01-23_17h42.37.461,multiplicationStroop,2021.2.3,Win32,60.10699044,,,,,right,1,0.5324,0,57,57,59,1,7,9,7 | 9,2,1.6933,1.6933,neutral,right,,,,,,stimulusFile/magnitude.xlsx,,,,,,,,,,,,,,,,,,,,,,,,,,,,,,,
,,,,,,,,,,,,,,,726,2022-01-23_17h42.37.461,multiplicationStroop,2021.2.3,Win32,60.10699044,,,,,left,1,0.4879,0,58,58,13,1,4,2,4 | 2,2,1.9756,1.4111,congruent,left,,,,,,stimulusFile/magnitude.xlsx,,,,,,,,,,,,,,,,,,,,,,,,,,,,,,,
,,,,,,,,,,,,,,,726,2022-01-23_17h42.37.461,multiplicationStroop,2021.2.3,Win32,60.10699044,,,,,right,1,0.5835,0,59,59,57,1,2,4,2 | 4,2,1.6933,1.6933,neutral,right,,,,,,stimulusFile/magnitude.xlsx,,,,,,,,,,,,,,,,,,,,,,,,,,,,,,,
,,,,,,,,,,,,,,,726,2022-01-23_17h42.37.461,multiplicationStroop,2021.2.3,Win32,60.10699044,,,,,right,1,0.5709,0,60,60,10,1,6,8,6 | 8,2,1.4111,1.9756,congruent,right,,,,,,stimulusFile/magnitude.xlsx,,,,,,,,,,,,,,,,,,,,,,,,,,,,,,,
,,,,,,,,,,,,,,,726,2022-01-23_17h42.37.461,multiplicationStroop,2021.2.3,Win32,60.10699044,,,,,left,1,0.5168,0,61,61,12,1,3,1,3 | 1,2,1.9756,1.4111,congruent,left,,,,,,stimulusFile/magnitude.xlsx,,,,,,,,,,,,,,,,,,,,,,,,,,,,,,,
,,,,,,,,,,,,,,,726,2022-01-23_17h42.37.461,multiplicationStroop,2021.2.3,Win32,60.10699044,,,,,right,1,0.6002,0,62,62,50,1,6,7,6 | 7,1,1.6933,1.6933,neutral,right,,,,,,stimulusFile/magnitude.xlsx,,,,,,,,,,,,,,,,,,,,,,,,,,,,,,,
,,,,,,,,,,,,,,,726,2022-01-23_17h42.37.461,multiplicationStroop,2021.2.3,Win32,60.10699044,,,,,left,1,0.4574,0,63,63,53,1,4,3,4 | 3,1,1.6933,1.6933,neutral,left,,,,,,stimulusFile/magnitude.xlsx,,,,,,,,,,,,,,,,,,,,,,,,,,,,,,,
,,,,,,,,,,,,,,,726,2022-01-23_17h42.37.461,multiplicationStroop,2021.2.3,Win32,60.10699044,,,,,left,1,0.4509,0,64,64,68,1,6,1,6 | 1,5,1.6933,1.6933,neutral,left,,,,,,stimulusFile/magnitude.xlsx,,,,,,,,,,,,,,,,,,,,,,,,,,,,,,,
,,,,,,,,,,,,,,,726,2022-01-23_17h42.37.461,multiplicationStroop,2021.2.3,Win32,60.10699044,,,,,left,1,0.5761,0,65,65,31,1,9,8,9 | 8,1,1.4111,1.9756,incongruent,left,,,,,,stimulusFile/magnitude.xlsx,,,,,,,,,,,,,,,,,,,,,,,,,,,,,,,
,,,,,,,,,,,,,,,726,2022-01-23_17h42.37.461,multiplicationStroop,2021.2.3,Win32,60.10699044,,,,,left,1,0.4707,0,66,66,23,1,9,4,9 | 4,5,1.9756,1.4111,congruent,left,,,,,,stimulusFile/magnitude.xlsx,,,,,,,,,,,,,,,,,,,,,,,,,,,,,,,
,,,,,,,,,,,,,,,726,2022-01-23_17h42.37.461,multiplicationStroop,2021.2.3,Win32,60.10699044,,,,,right,1,0.602,0,67,67,58,1,6,8,6 | 8,2,1.6933,1.6933,neutral,right,,,,,,stimulusFile/magnitude.xlsx,,,,,,,,,,,,,,,,,,,,,,,,,,,,,,,
,,,,,,,,,,,,,,,726,2022-01-23_17h42.37.461,multiplicationStroop,2021.2.3,Win32,60.10699044,,,,,right,1,1.001,0,68,68,26,1,6,7,6 | 7,1,1.9756,1.4111,incongruent,right,,,,,,stimulusFile/magnitude.xlsx,,,,,,,,,,,,,,,,,,,,,,,,,,,,,,,
,,,,,,,,,,,,,,,726,2022-01-23_17h42.37.461,multiplicationStroop,2021.2.3,Win32,60.10699044,,,,,right,1,0.5399,0,69,69,56,1,1,3,1 | 3,2,1.6933,1.6933,neutral,right,,,,,,stimulusFile/magnitude.xlsx,,,,,,,,,,,,,,,,,,,,,,,,,,,,,,,
,,,,,,,,,,,,,,,726,2022-01-23_17h42.37.461,multiplicationStroop,2021.2.3,Win32,60.10699044,,,,,right,1,0.5454,0,70,70,42,1,3,8,3 | 8,5,1.9756,1.4111,incongruent,right,,,,,,stimulusFile/magnitude.xlsx,,,,,,,,,,,,,,,,,,,,,,,,,,,,,,,
,,,,,,,,,,,,,,,726,2022-01-23_17h42.37.461,multiplicationStroop,2021.2.3,Win32,60.10699044,,,,,right,1,0.6182,0,71,71,24,1,1,2,1 | 2,1,1.9756,1.4111,incongruent,right,,,,,,stimulusFile/magnitude.xlsx,,,,,,,,,,,,,,,,,,,,,,,,,,,,,,,
,,,,,,,,,,,,,,,726,2022-01-23_17h42.37.461,multiplicationStroop,2021.2.3,Win32,60.10699044,,,,,,,,,,,,,,,,,,,,,0,1,1,0,1,stimulusFile/magnitude.xlsx,NUMERICALLY larger (larger coefficient).,images/numericallyLarger.png,,,,,,,,,,,,,,,,,,,,,,,,,,,,,
,,,,,,,,,,,,,,,726,2022-01-23_17h42.37.461,multiplicationStroop,2021.2.3,Win32,60.10699044,,,,,,,,,,,,,,,,,,,,,,,,,,,,,space,9.3575,space,1.8303,45,3.3951,1,0,0,0,8,1,5,×,9,5 × 9,incongruent,smallerFirst,2,1,45,,,,,,,,
,,,,,,,,,,,,,,,726,2022-01-23_17h42.37.461,multiplicationStroop,2021.2.3,Win32,60.10699044,,,,,,,,,,,,,,,,,,,,,,,,,,,,,,,,,64,2.273,1,0,1,1,34,1,8,×,8,8 × 8,neutral,tie,2,1,64,,,,,,,,
,,,,,,,,,,,,,,,726,2022-01-23_17h42.37.461,multiplicationStroop,2021.2.3,Win32,60.10699044,,,,,,,,,,,,,,,,,,,,,,,,,,,,,,,,,15,2.7322,1,0,2,2,24,1,5,×,3,5 × 3,incongruent,largerFirst,1,2,15,,,,,,,,
,,,,,,,,,,,,,,,726,2022-01-23_17h42.37.461,multiplicationStroop,2021.2.3,Win32,60.10699044,,,,,,,,,,,,,,,,,,,,,,,,,,,,,,,,,18,1.8232,1,0,3,3,22,1,6,×,3,6 × 3,incongruent,largerFirst,1,2,18,,,,,,,,
,,,,,,,,,,,,,,,726,2022-01-23_17h42.37.461,multiplicationStroop,2021.2.3,Win32,60.10699044,,,,,,,,,,,,,,,,,,,,,,,,,,,,,,,,,35,2.1822,1,0,4,4,26,1,7,×,5,7 × 5,incongruent,largerFirst,1,2,35,,,,,,,,
,,,,,,,,,,,,,,,726,2022-01-23_17h42.37.461,multiplicationStroop,2021.2.3,Win32,60.10699044,,,,,,,,,,,,,,,,,,,,,,,,,,,,,,,,,36,2.0322,1,0,5,5,1,1,4,×,9,4 × 9,incongruent,smallerFirst,2,1,36,,,,,,,,
,,,,,,,,,,,,,,,726,2022-01-23_17h42.37.461,multiplicationStroop,2021.2.3,Win32,60.10699044,,,,,,,,,,,,,,,,,,,,,,,,,,,,,,,,,49,2.3822,1,0,6,6,33,1,7,×,7,7 × 7,neutral,tie,2,1,49,,,,,,,,
,,,,,,,,,,,,,,,726,2022-01-23_17h42.37.461,multiplicationStroop,2021.2.3,Win32,60.10699044,,,,,,,,,,,,,,,,,,,,,,,,,,,,,,,,,36,1.9323,1,0,7,7,32,1,6,×,6,6 × 6,neutral,tie,2,1,36,,,,,,,,
,,,,,,,,,,,,,,,726,2022-01-23_17h42.37.461,multiplicationStroop,2021.2.3,Win32,60.10699044,,,,,,,,,,,,,,,,,,,,,,,,,,,,,,,,,24,2.1989,1,0,8,8,23,1,8,×,3,8 × 3,incongruent,largerFirst,1,2,24,,,,,,,,
,,,,,,,,,,,,,,,726,2022-01-23_17h42.37.461,multiplicationStroop,2021.2.3,Win32,60.10699044,,,,,,,,,,,,,,,,,,,,,,,,,,,,,,,,,16,1.8322,1,0,9,9,30,1,4,×,4,4 × 4,neutral,tie,2,1,16,,,,,,,,
,,,,,,,,,,,,,,,726,2022-01-23_17h42.37.461,multiplicationStroop,2021.2.3,Win32,60.10699044,,,,,,,,,,,,,,,,,,,,,,,,,,,,,,,,,32,2.1991,1,0,10,10,21,1,8,×,4,8 × 4,incongruent,largerFirst,1,2,32,,,,,,,,
,,,,,,,,,,,,,,,726,2022-01-23_17h42.37.461,multiplicationStroop,2021.2.3,Win32,60.10699044,,,,,,,,,,,,,,,,,,,,,,,,,,,,,,,,,27,2.1491,1,0,11,11,4,1,3,×,9,3 × 9,incongruent,smallerFirst,2,1,27,,,,,,,,
,,,,,,,,,,,,,,,726,2022-01-23_17h42.37.461,multiplicationStroop,2021.2.3,Win32,60.10699044,,,,,,,,,,,,,,,,,,,,,,,,,,,,,,,,,16,2.0993,1,0,12,12,9,1,2,×,8,2 × 8,incongruent,smallerFirst,2,1,16,,,,,,,,
,,,,,,,,,,,,,,,726,2022-01-23_17h42.37.461,multiplicationStroop,2021.2.3,Win32,60.10699044,,,,,,,,,,,,,,,,,,,,,,,,,,,,,,,,,14,1.6659,1,0,13,13,18,1,7,×,2,7 × 2,incongruent,largerFirst,1,2,14,,,,,,,,
,,,,,,,,,,,,,,,726,2022-01-23_17h42.37.461,multiplicationStroop,2021.2.3,Win32,60.10699044,,,,,,,,,,,,,,,,,,,,,,,,,,,,,,,,,18,1.7323,1,0,14,14,16,1,9,×,2,9 × 2,incongruent,largerFirst,1,2,18,,,,,,,,
,,,,,,,,,,,,,,,726,2022-01-23_17h42.37.461,multiplicationStroop,2021.2.3,Win32,60.10699044,,,,,,,,,,,,,,,,,,,,,,,,,,,,,,,,,8,3.0489,1,0,15,15,10,1,2,×,4,2 × 4,incongruent,smallerFirst,2,1,8,,,,,,,,
,,,,,,,,,,,,,,,726,2022-01-23_17h42.37.461,multiplicationStroop,2021.2.3,Win32,60.10699044,,,,,,,,,,,,,,,,,,,,,,,,,,,,,,,,,81,10.7316,1,0,16,16,35,1,9,×,9,9 × 9,neutral,tie,2,1,81,,,,,,,,
,,,,,,,,,,,,,,,726,2022-01-23_17h42.37.461,multiplicationStroop,2021.2.3,Win32,60.10699044,,,,,,,,,,,,,,,,,,,,,,,,,,,,,,,,,24,2.5717,1,0,17,17,6,1,4,×,6,4 × 6,incongruent,smallerFirst,2,1,24,,,,,,,,
,,,,,,,,,,,,,,,726,2022-01-23_17h42.37.461,multiplicationStroop,2021.2.3,Win32,60.10699044,,,,,,,,,,,,,,,,,,,,,,,,,,,,,,,,,54,2.3819,1,0,18,18,20,1,9,×,6,9 × 6,incongruent,largerFirst,1,2,54,,,,,,,,
,,,,,,,,,,,,,,,726,2022-01-23_17h42.37.461,multiplicationStroop,2021.2.3,Win32,60.10699044,,,,,,,,,,,,,,,,,,,,,,,,,,,,,,,,,12,2.437,1,0,19,19,19,1,4,×,3,4 × 3,incongruent,largerFirst,1,2,12,,,,,,,,
,,,,,,,,,,,,,,,726,2022-01-23_17h42.37.461,multiplicationStroop,2021.2.3,Win32,60.10699044,,,,,,,,,,,,,,,,,,,,,,,,,,,,,,,,,25,2.3112,1,0,20,20,31,1,5,×,5,5 × 5,neutral,tie,2,1,25,,,,,,,,
,,,,,,,,,,,,,,,726,2022-01-23_17h42.37.461,multiplicationStroop,2021.2.3,Win32,60.10699044,,,,,,,,,,,,,,,,,,,,,,,,,,,,,,,,,56,2.8657,1,0,21,21,0,1,7,×,8,7 × 8,incongruent,smallerFirst,2,1,56,,,,,,,,
,,,,,,,,,,,,,,,726,2022-01-23_17h42.37.461,multiplicationStroop,2021.2.3,Win32,60.10699044,,,,,,,,,,,,,,,,,,,,,,,,,,,,,,,,,12,1.9204,1,0,22,22,5,1,2,×,6,2 × 6,incongruent,smallerFirst,2,1,12,,,,,,,,
,,,,,,,,,,,,,,,726,2022-01-23_17h42.37.461,multiplicationStroop,2021.2.3,Win32,60.10699044,,,,,,,,,,,,,,,,,,,,,,,,,,,,,,,,,40,2.3824,1,0,23,23,27,1,8,×,5,8 × 5,incongruent,largerFirst,1,2,40,,,,,,,,
,,,,,,,,,,,,,,,726,2022-01-23_17h42.37.461,multiplicationStroop,2021.2.3,Win32,60.10699044,,,,,,,,,,,,,,,,,,,,,,,,,,,,,,,,,56,6.3985,0,0,24,24,17,1,9,×,7,9 × 7,incongruent,largerFirst,1,2,63,,,,,,,,
,,,,,,,,,,,,,,,726,2022-01-23_17h42.37.461,multiplicationStroop,2021.2.3,Win32,60.10699044,,,,,,,,,,,,,,,,,,,,,,,,,,,,,,,,,48,4.6724,1,0,25,25,15,1,8,×,6,8 × 6,incongruent,largerFirst,1,2,48,,,,,,,,
,,,,,,,,,,,,,,,726,2022-01-23_17h42.37.461,multiplicationStroop,2021.2.3,Win32,60.10699044,,,,,,,,,,,,,,,,,,,,,,,,,,,,,,,,,30,2.8733,1,0,26,26,11,1,5,×,6,5 × 6,incongruent,smallerFirst,2,1,30,,,,,,,,
,,,,,,,,,,,,,,,726,2022-01-23_17h42.37.461,multiplicationStroop,2021.2.3,Win32,60.10699044,,,,,,,,,,,,,,,,,,,,,,,,,,,,,,,,,6,1.9569,1,0,27,27,25,1,3,×,2,3 × 2,incongruent,largerFirst,1,2,6,,,,,,,,
,,,,,,,,,,,,,,,726,2022-01-23_17h42.37.461,multiplicationStroop,2021.2.3,Win32,60.10699044,,,,,,,,,,,,,,,,,,,,,,,,,,,,,,,,,20,2.249,1,0,28,28,13,1,4,×,5,4 × 5,incongruent,smallerFirst,2,1,20,,,,,,,,
,,,,,,,,,,,,,,,726,2022-01-23_17h42.37.461,multiplicationStroop,2021.2.3,Win32,60.10699044,,,,,,,,,,,,,,,,,,,,,,,,,,,,,,,,,21,2.6155,1,0,29,29,12,1,3,×,7,3 × 7,incongruent,smallerFirst,2,1,21,,,,,,,,
,,,,,,,,,,,,,,,726,2022-01-23_17h42.37.461,multiplicationStroop,2021.2.3,Win32,60.10699044,,,,,,,,,,,,,,,,,,,,,,,,,,,,,,,,,42,2.5822,1,0,30,30,3,1,6,×,7,6 × 7,incongruent,smallerFirst,2,1,42,,,,,,,,
,,,,,,,,,,,,,,,726,2022-01-23_17h42.37.461,multiplicationStroop,2021.2.3,Win32,60.10699044,,,,,,,,,,,,,,,,,,,,,,,,,,,,,,,,,72,2.5559,1,0,31,31,14,1,9,×,8,9 × 8,incongruent,largerFirst,1,2,72,,,,,,,,
,,,,,,,,,,,,,,,726,2022-01-23_17h42.37.461,multiplicationStroop,2021.2.3,Win32,60.10699044,,,,,,,,,,,,,,,,,,,,,,,,,,,,,,,,,4,1.8158,1,0,32,32,28,1,2,×,2,2 × 2,neutral,tie,2,1,4,,,,,,,,
,,,,,,,,,,,,,,,726,2022-01-23_17h42.37.461,multiplicationStroop,2021.2.3,Win32,60.10699044,,,,,,,,,,,,,,,,,,,,,,,,,,,,,,,,,10,1.9158,1,0,33,33,7,1,2,×,5,2 × 5,incongruent,smallerFirst,2,1,10,,,,,,,,
,,,,,,,,,,,,,,,726,2022-01-23_17h42.37.461,multiplicationStroop,2021.2.3,Win32,60.10699044,,,,,,,,,,,,,,,,,,,,,,,,,,,,,,,,,9,1.999,1,0,34,34,29,1,3,×,3,3 × 3,neutral,tie,2,1,9,,,,,,,,
,,,,,,,,,,,,,,,726,2022-01-23_17h42.37.461,multiplicationStroop,2021.2.3,Win32,60.10699044,,,,,,,,,,,,,,,,,,,,,,,,,,,,,,,,,28,2.0156,1,0,35,35,2,1,4,×,7,4 × 7,incongruent,smallerFirst,2,1,28,,,,,,,,
,,,,,,,,,,,,,,,726,2022-01-23_17h42.37.461,multiplicationStroop,2021.2.3,Win32,60.10699044,,,,,,,,,,,,,,,,,,,,,,,,,,,,,,,,,,,,,,,,,,,,,,,,,,0,0,0,4,1,stimulusFile/mult_blk5_INcongruent.xlsx,,
,,,,,,,,,,,,,,,726,2022-01-23_17h42.37.461,multiplicationStroop,2021.2.3,Win32,60.10699044,,,,,,,,,,,,,,,,,,,,,,,,,,,,,,,space,1.3057,42,3.489,1,0,0,0,17,1,7,×,6,7 × 6,incongruent,largerFirst,1,2,42,,,,,,,,
,,,,,,,,,,,,,,,726,2022-01-23_17h42.37.461,multiplicationStroop,2021.2.3,Win32,60.10699044,,,,,,,,,,,,,,,,,,,,,,,,,,,,,,,,,21,1.4732,1,0,1,1,26,1,7,×,3,7 × 3,incongruent,largerFirst,1,2,21,,,,,,,,
,,,,,,,,,,,,,,,726,2022-01-23_17h42.37.461,multiplicationStroop,2021.2.3,Win32,60.10699044,,,,,,,,,,,,,,,,,,,,,,,,,,,,,,,,,28,2.0991,1,0,2,2,16,1,7,×,4,7 × 4,incongruent,largerFirst,1,2,28,,,,,,,,
,,,,,,,,,,,,,,,726,2022-01-23_17h42.37.461,multiplicationStroop,2021.2.3,Win32,60.10699044,,,,,,,,,,,,,,,,,,,,,,,,,,,,,,,,,25,1.8156,1,0,3,3,31,1,5,×,5,5 × 5,incongruent,tie,1,2,25,,,,,,,,
,,,,,,,,,,,,,,,726,2022-01-23_17h42.37.461,multiplicationStroop,2021.2.3,Win32,60.10699044,,,,,,,,,,,,,,,,,,,,,,,,,,,,,,,,,9,1.9657,1,0,4,4,29,1,3,×,3,3 × 3,incongruent,tie,1,2,9,,,,,,,,
,,,,,,,,,,,,,,,726,2022-01-23_17h42.37.461,multiplicationStroop,2021.2.3,Win32,60.10699044,,,,,,,,,,,,,,,,,,,,,,,,,,,,,,,,,36,2.2157,1,0,5,5,32,1,6,×,6,6 × 6,incongruent,tie,1,2,36,,,,,,,,
,,,,,,,,,,,,,,,726,2022-01-23_17h42.37.461,multiplicationStroop,2021.2.3,Win32,60.10699044,,,,,,,,,,,,,,,,,,,,,,,,,,,,,,,,,35,2.166,1,0,6,6,12,1,5,×,7,5 × 7,incongruent,smallerFirst,2,1,35,,,,,,,,
,,,,,,,,,,,,,,,726,2022-01-23_17h42.37.461,multiplicationStroop,2021.2.3,Win32,60.10699044,,,,,,,,,,,,,,,,,,,,,,,,,,,,,,,,,18,2.3655,1,0,7,7,2,1,2,×,9,2 × 9,incongruent,smallerFirst,2,1,18,,,,,,,,
,,,,,,,,,,,,,,,726,2022-01-23_17h42.37.461,multiplicationStroop,2021.2.3,Win32,60.10699044,,,,,,,,,,,,,,,,,,,,,,,,,,,,,,,,,56,5.2819,1,0,8,8,14,1,8,×,7,8 × 7,incongruent,largerFirst,1,2,56,,,,,,,,
,,,,,,,,,,,,,,,726,2022-01-23_17h42.37.461,multiplicationStroop,2021.2.3,Win32,60.10699044,,,,,,,,,,,,,,,,,,,,,,,,,,,,,,,,,54,2.1734,1,0,9,9,6,1,6,×,9,6 × 9,incongruent,smallerFirst,2,1,54,,,,,,,,
,,,,,,,,,,,,,,,726,2022-01-23_17h42.37.461,multiplicationStroop,2021.2.3,Win32,60.10699044,,,,,,,,,,,,,,,,,,,,,,,,,,,,,,,,,48,3.6489,1,0,10,10,1,1,6,×,8,6 × 8,incongruent,smallerFirst,2,1,48,,,,,,,,
,,,,,,,,,,,,,,,726,2022-01-23_17h42.37.461,multiplicationStroop,2021.2.3,Win32,60.10699044,,,,,,,,,,,,,,,,,,,,,,,,,,,,,,,,,24,2.1068,1,0,11,11,20,1,6,×,4,6 × 4,incongruent,largerFirst,1,2,24,,,,,,,,
,,,,,,,,,,,,,,,726,2022-01-23_17h42.37.461,multiplicationStroop,2021.2.3,Win32,60.10699044,,,,,,,,,,,,,,,,,,,,,,,,,,,,,,,,,40,2.0822,1,0,12,12,13,1,5,×,8,5 × 8,incongruent,smallerFirst,2,1,40,,,,,,,,
,,,,,,,,,,,,,,,726,2022-01-23_17h42.37.461,multiplicationStroop,2021.2.3,Win32,60.10699044,,,,,,,,,,,,,,,,,,,,,,,,,,,,,,,,,32,1.7157,1,0,13,13,7,1,4,×,8,4 × 8,incongruent,smallerFirst,2,1,32,,,,,,,,
,,,,,,,,,,,,,,,726,2022-01-23_17h42.37.461,multiplicationStroop,2021.2.3,Win32,60.10699044,,,,,,,,,,,,,,,,,,,,,,,,,,,,,,,,,63,5.8652,1,0,14,14,3,1,7,×,9,7 × 9,incongruent,smallerFirst,2,1,63,,,,,,,,
,,,,,,,,,,,,,,,726,2022-01-23_17h42.37.461,multiplicationStroop,2021.2.3,Win32,60.10699044,,,,,,,,,,,,,,,,,,,,,,,,,,,,,,,,,20,1.7066,1,0,15,15,27,1,5,×,4,5 × 4,incongruent,largerFirst,1,2,20,,,,,,,,
,,,,,,,,,,,,,,,726,2022-01-23_17h42.37.461,multiplicationStroop,2021.2.3,Win32,60.10699044,,,,,,,,,,,,,,,,,,,,,,,,,,,,,,,,,81,2.0324,1,0,16,16,35,1,9,×,9,9 × 9,incongruent,tie,1,2,81,,,,,,,,
,,,,,,,,,,,,,,,726,2022-01-23_17h42.37.461,multiplicationStroop,2021.2.3,Win32,60.10699044,,,,,,,,,,,,,,,,,,,,,,,,,,,,,,,,,16,2.1569,1,0,17,17,30,1,4,×,4,4 × 4,incongruent,tie,1,2,16,,,,,,,,
,,,,,,,,,,,,,,,726,2022-01-23_17h42.37.461,multiplicationStroop,2021.2.3,Win32,60.10699044,,,,,,,,,,,,,,,,,,,,,,,,,,,,,,,,,16,2.499,1,0,18,18,23,1,8,×,2,8 × 2,incongruent,largerFirst,1,2,16,,,,,,,,
,,,,,,,,,,,,,,,726,2022-01-23_17h42.37.461,multiplicationStroop,2021.2.3,Win32,60.10699044,,,,,,,,,,,,,,,,,,,,,,,,,,,,,,,,,36,4.4814,1,0,19,19,15,1,9,×,4,9 × 4,incongruent,largerFirst,1,2,36,,,,,,,,
,,,,,,,,,,,,,,,726,2022-01-23_17h42.37.461,multiplicationStroop,2021.2.3,Win32,60.10699044,,,,,,,,,,,,,,,,,,,,,,,,,,,,,,,,,10,1.5566,1,0,20,20,21,1,5,×,2,5 × 2,incongruent,largerFirst,1,2,10,,,,,,,,
,,,,,,,,,,,,,,,726,2022-01-23_17h42.37.461,multiplicationStroop,2021.2.3,Win32,60.10699044,,,,,,,,,,,,,,,,,,,,,,,,,,,,,,,,,6,1.7822,1,0,21,21,11,1,2,×,3,2 × 3,incongruent,smallerFirst,2,1,6,,,,,,,,
,,,,,,,,,,,,,,,726,2022-01-23_17h42.37.461,multiplicationStroop,2021.2.3,Win32,60.10699044,,,,,,,,,,,,,,,,,,,,,,,,,,,,,,,,,49,2.6631,1,0,22,22,33,1,7,×,7,7 × 7,incongruent,tie,1,2,49,,,,,,,,
,,,,,,,,,,,,,,,726,2022-01-23_17h42.37.461,multiplicationStroop,2021.2.3,Win32,60.10699044,,,,,,,,,,,,,,,,,,,,,,,,,,,,,,,,,8,2.5988,1,0,23,23,24,1,4,×,2,4 × 2,incongruent,largerFirst,1,2,8,,,,,,,,
,,,,,,,,,,,,,,,726,2022-01-23_17h42.37.461,multiplicationStroop,2021.2.3,Win32,60.10699044,,,,,,,,,,,,,,,,,,,,,,,,,,,,,,,,,24,1.9987,1,0,24,24,9,1,3,×,8,3 × 8,incongruent,smallerFirst,2,1,24,,,,,,,,
,,,,,,,,,,,,,,,726,2022-01-23_17h42.37.461,multiplicationStroop,2021.2.3,Win32,60.10699044,,,,,,,,,,,,,,,,,,,,,,,,,,,,,,,,,45,2.149,1,0,25,25,22,1,9,×,5,9 × 5,incongruent,largerFirst,1,2,45,,,,,,,,
,,,,,,,,,,,,,,,726,2022-01-23_17h42.37.461,multiplicationStroop,2021.2.3,Win32,60.10699044,,,,,,,,,,,,,,,,,,,,,,,,,,,,,,,,,18,2.3657,1,0,26,26,8,1,3,×,6,3 × 6,incongruent,smallerFirst,2,1,18,,,,,,,,
,,,,,,,,,,,,,,,726,2022-01-23_17h42.37.461,multiplicationStroop,2021.2.3,Win32,60.10699044,,,,,,,,,,,,,,,,,,,,,,,,,,,,,,,,,12,1.3898,1,0,27,27,19,1,6,×,2,6 × 2,incongruent,largerFirst,1,2,12,,,,,,,,
,,,,,,,,,,,,,,,726,2022-01-23_17h42.37.461,multiplicationStroop,2021.2.3,Win32,60.10699044,,,,,,,,,,,,,,,,,,,,,,,,,,,,,,,,,4,1.599,1,0,28,28,28,1,2,×,2,2 × 2,incongruent,tie,1,2,4,,,,,,,,
,,,,,,,,,,,,,,,726,2022-01-23_17h42.37.461,multiplicationStroop,2021.2.3,Win32,60.10699044,,,,,,,,,,,,,,,,,,,,,,,,,,,,,,,,,14,1.5822,1,0,29,29,4,1,2,×,7,2 × 7,incongruent,smallerFirst,2,1,14,,,,,,,,
,,,,,,,,,,,,,,,726,2022-01-23_17h42.37.461,multiplicationStroop,2021.2.3,Win32,60.10699044,,,,,,,,,,,,,,,,,,,,,,,,,,,,,,,,,27,2.5824,1,0,30,30,18,1,9,×,3,9 × 3,incongruent,largerFirst,1,2,27,,,,,,,,
,,,,,,,,,,,,,,,726,2022-01-23_17h42.37.461,multiplicationStroop,2021.2.3,Win32,60.10699044,,,,,,,,,,,,,,,,,,,,,,,,,,,,,,,,,64,2.3659,1,0,31,31,34,1,8,×,8,8 × 8,incongruent,tie,1,2,64,,,,,,,,
,,,,,,,,,,,,,,,726,2022-01-23_17h42.37.461,multiplicationStroop,2021.2.3,Win32,60.10699044,,,,,,,,,,,,,,,,,,,,,,,,,,,,,,,,,72,2.2657,1,0,32,32,0,1,8,×,9,8 × 9,incongruent,smallerFirst,2,1,72,,,,,,,,
,,,,,,,,,,,,,,,726,2022-01-23_17h42.37.461,multiplicationStroop,2021.2.3,Win32,60.10699044,,,,,,,,,,,,,,,,,,,,,,,,,,,,,,,,,15,1.8899,1,0,33,33,10,1,3,×,5,3 × 5,incongruent,smallerFirst,2,1,15,,,,,,,,
,,,,,,,,,,,,,,,726,2022-01-23_17h42.37.461,multiplicationStroop,2021.2.3,Win32,60.10699044,,,,,,,,,,,,,,,,,,,,,,,,,,,,,,,,,12,2.4489,1,0,34,34,5,1,3,×,4,3 × 4,incongruent,smallerFirst,2,1,12,,,,,,,,
,,,,,,,,,,,,,,,726,2022-01-23_17h42.37.461,multiplicationStroop,2021.2.3,Win32,60.10699044,,,,,,,,,,,,,,,,,,,,,,,,,,,,,,,,,30,2.0229,1,0,35,35,25,1,6,×,5,6 × 5,incongruent,largerFirst,1,2,30,,,,,,,,
,,,,,,,,,,,,,,,726,2022-01-23_17h42.37.461,multiplicationStroop,2021.2.3,Win32,60.10699044,,,,,,,,,,,,,,,,,,,,,,,,,,,,,,,,,,,,,,,,,,,,,,,,,,0,1,1,5,1,stimulusFile/mult_blk6_INcongruent.xlsx,,
,,,,,,,,,,,,,,,726,2022-01-23_17h42.37.461,multiplicationStroop,2021.2.3,Win32,60.10699044,,,,,,,,,,,,,,,,,,,,,,,,,,,,,,,space,1.3162,64,2.2021,1,0,0,0,34,1,8,×,8,8 × 8,neutral,tie,2,1,64,,,,,,,,
,,,,,,,,,,,,,,,726,2022-01-23_17h42.37.461,multiplicationStroop,2021.2.3,Win32,60.10699044,,,,,,,,,,,,,,,,,,,,,,,,,,,,,,,,,54,2.9492,1,0,1,1,12,1,6,×,9,6 × 9,congruent,smallerFirst,1,2,54,,,,,,,,
,,,,,,,,,,,,,,,726,2022-01-23_17h42.37.461,multiplicationStroop,2021.2.3,Win32,60.10699044,,,,,,,,,,,,,,,,,,,,,,,,,,,,,,,,,56,3.6551,1,0,2,2,8,1,7,×,8,7 × 8,congruent,smallerFirst,1,2,56,,,,,,,,
,,,,,,,,,,,,,,,726,2022-01-23_17h42.37.461,multiplicationStroop,2021.2.3,Win32,60.10699044,,,,,,,,,,,,,,,,,,,,,,,,,,,,,,,,,12,1.5562,1,0,3,3,2,1,3,×,4,3 × 4,congruent,smallerFirst,1,2,12,,,,,,,,
,,,,,,,,,,,,,,,726,2022-01-23_17h42.37.461,multiplicationStroop,2021.2.3,Win32,60.10699044,,,,,,,,,,,,,,,,,,,,,,,,,,,,,,,,,24,1.9157,1,0,4,4,10,1,3,×,8,3 × 8,congruent,smallerFirst,1,2,24,,,,,,,,
,,,,,,,,,,,,,,,726,2022-01-23_17h42.37.461,multiplicationStroop,2021.2.3,Win32,60.10699044,,,,,,,,,,,,,,,,,,,,,,,,,,,,,,,,,42,2.7491,1,0,5,5,3,1,6,×,7,6 × 7,congruent,smallerFirst,1,2,42,,,,,,,,
,,,,,,,,,,,,,,,726,2022-01-23_17h42.37.461,multiplicationStroop,2021.2.3,Win32,60.10699044,,,,,,,,,,,,,,,,,,,,,,,,,,,,,,,,,9,2.033,1,0,6,6,29,1,3,×,3,3 × 3,neutral,tie,2,1,9,,,,,,,,
,,,,,,,,,,,,,,,726,2022-01-23_17h42.37.461,multiplicationStroop,2021.2.3,Win32,60.10699044,,,,,,,,,,,,,,,,,,,,,,,,,,,,,,,,,45,2.6652,1,0,7,7,23,1,9,×,5,9 × 5,congruent,largerFirst,2,1,45,,,,,,,,
,,,,,,,,,,,,,,,726,2022-01-23_17h42.37.461,multiplicationStroop,2021.2.3,Win32,60.10699044,,,,,,,,,,,,,,,,,,,,,,,,,,,,,,,,,54,2.1804,0,0,8,8,25,1,6,×,4,6 × 4,congruent,largerFirst,2,1,24,,,,,,,,
,,,,,,,,,,,,,,,726,2022-01-23_17h42.37.461,multiplicationStroop,2021.2.3,Win32,60.10699044,,,,,,,,,,,,,,,,,,,,,,,,,,,,,,,,,21,1.6824,1,0,9,9,16,1,7,×,3,7 × 3,congruent,largerFirst,2,1,21,,,,,,,,
,,,,,,,,,,,,,,,726,2022-01-23_17h42.37.461,multiplicationStroop,2021.2.3,Win32,60.10699044,,,,,,,,,,,,,,,,,,,,,,,,,,,,,,,,,63,3.2991,1,0,10,10,21,1,9,×,7,9 × 7,congruent,largerFirst,2,1,63,,,,,,,,
,,,,,,,,,,,,,,,726,2022-01-23_17h42.37.461,multiplicationStroop,2021.2.3,Win32,60.10699044,,,,,,,,,,,,,,,,,,,,,,,,,,,,,,,,,81,1.6063,1,0,11,11,35,1,9,×,9,9 × 9,neutral,tie,2,1,81,,,,,,,,
,,,,,,,,,,,,,,,726,2022-01-23_17h42.37.461,multiplicationStroop,2021.2.3,Win32,60.10699044,,,,,,,,,,,,,,,,,,,,,,,,,,,,,,,,,30,2.2164,1,0,12,12,15,1,6,×,5,6 × 5,congruent,largerFirst,2,1,30,,,,,,,,
,,,,,,,,,,,,,,,726,2022-01-23_17h42.37.461,multiplicationStroop,2021.2.3,Win32,60.10699044,,,,,,,,,,,,,,,,,,,,,,,,,,,,,,,,,35,2.2151,1,0,13,13,1,1,5,×,7,5 × 7,congruent,smallerFirst,1,2,35,,,,,,,,
,,,,,,,,,,,,,,,726,2022-01-23_17h42.37.461,multiplicationStroop,2021.2.3,Win32,60.10699044,,,,,,,,,,,,,,,,,,,,,,,,,,,,,,,,,16,2.0327,0,0,14,14,11,1,3,×,6,3 × 6,congruent,smallerFirst,1,2,18,,,,,,,,
,,,,,,,,,,,,,,,726,2022-01-23_17h42.37.461,multiplicationStroop,2021.2.3,Win32,60.10699044,,,,,,,,,,,,,,,,,,,,,,,,,,,,,,,,,16,2.0156,1,0,15,15,30,1,4,×,4,4 × 4,neutral,tie,2,1,16,,,,,,,,
,,,,,,,,,,,,,,,726,2022-01-23_17h42.37.461,multiplicationStroop,2021.2.3,Win32,60.10699044,,,,,,,,,,,,,,,,,,,,,,,,,,,,,,,,,15,1.7825,1,0,16,16,4,1,3,×,5,3 × 5,congruent,smallerFirst,1,2,15,,,,,,,,
,,,,,,,,,,,,,,,726,2022-01-23_17h42.37.461,multiplicationStroop,2021.2.3,Win32,60.10699044,,,,,,,,,,,,,,,,,,,,,,,,,,,,,,,,,10,1.5823,1,0,17,17,24,1,5,×,2,5 × 2,congruent,largerFirst,2,1,10,,,,,,,,
,,,,,,,,,,,,,,,726,2022-01-23_17h42.37.461,multiplicationStroop,2021.2.3,Win32,60.10699044,,,,,,,,,,,,,,,,,,,,,,,,,,,,,,,,,32,2.7158,1,0,18,18,20,1,8,×,4,8 × 4,congruent,largerFirst,2,1,32,,,,,,,,
,,,,,,,,,,,,,,,726,2022-01-23_17h42.37.461,multiplicationStroop,2021.2.3,Win32,60.10699044,,,,,,,,,,,,,,,,,,,,,,,,,,,,,,,,,40,2.1995,1,0,19,19,6,1,5,×,8,5 × 8,congruent,smallerFirst,1,2,40,,,,,,,,
,,,,,,,,,,,,,,,726,2022-01-23_17h42.37.461,multiplicationStroop,2021.2.3,Win32,60.10699044,,,,,,,,,,,,,,,,,,,,,,,,,,,,,,,,,14,1.9821,1,0,20,20,14,1,7,×,2,7 × 2,congruent,largerFirst,2,1,14,,,,,,,,
,,,,,,,,,,,,,,,726,2022-01-23_17h42.37.461,multiplicationStroop,2021.2.3,Win32,60.10699044,,,,,,,,,,,,,,,,,,,,,,,,,,,,,,,,,72,2.3824,1,0,21,21,17,1,9,×,8,9 × 8,congruent,largerFirst,2,1,72,,,,,,,,
,,,,,,,,,,,,,,,726,2022-01-23_17h42.37.461,multiplicationStroop,2021.2.3,Win32,60.10699044,,,,,,,,,,,,,,,,,,,,,,,,,,,,,,,,,36,3.5826,1,0,22,22,0,1,4,×,9,4 × 9,congruent,smallerFirst,1,2,36,,,,,,,,
,,,,,,,,,,,,,,,726,2022-01-23_17h42.37.461,multiplicationStroop,2021.2.3,Win32,60.10699044,,,,,,,,,,,,,,,,,,,,,,,,,,,,,,,,,8,2.7896,1,0,23,23,9,1,2,×,4,2 × 4,congruent,smallerFirst,1,2,8,,,,,,,,
,,,,,,,,,,,,,,,726,2022-01-23_17h42.37.461,multiplicationStroop,2021.2.3,Win32,60.10699044,,,,,,,,,,,,,,,,,,,,,,,,,,,,,,,,,20,1.6993,1,0,24,24,7,1,4,×,5,4 × 5,congruent,smallerFirst,1,2,20,,,,,,,,
,,,,,,,,,,,,,,,726,2022-01-23_17h42.37.461,multiplicationStroop,2021.2.3,Win32,60.10699044,,,,,,,,,,,,,,,,,,,,,,,,,,,,,,,,,25,2.3663,1,0,25,25,31,1,5,×,5,5 × 5,neutral,tie,2,1,25,,,,,,,,
,,,,,,,,,,,,,,,726,2022-01-23_17h42.37.461,multiplicationStroop,2021.2.3,Win32,60.10699044,,,,,,,,,,,,,,,,,,,,,,,,,,,,,,,,,36,2.5153,1,0,26,26,32,1,6,×,6,6 × 6,neutral,tie,2,1,36,,,,,,,,
,,,,,,,,,,,,,,,726,2022-01-23_17h42.37.461,multiplicationStroop,2021.2.3,Win32,60.10699044,,,,,,,,,,,,,,,,,,,,,,,,,,,,,,,,,18,3.0732,1,0,27,27,22,1,9,×,2,9 × 2,congruent,largerFirst,2,1,18,,,,,,,,
,,,,,,,,,,,,,,,726,2022-01-23_17h42.37.461,multiplicationStroop,2021.2.3,Win32,60.10699044,,,,,,,,,,,,,,,,,,,,,,,,,,,,,,,,,16,3.4822,1,0,28,28,5,1,2,×,8,2 × 8,congruent,smallerFirst,1,2,16,,,,,,,,
,,,,,,,,,,,,,,,726,2022-01-23_17h42.37.461,multiplicationStroop,2021.2.3,Win32,60.10699044,,,,,,,,,,,,,,,,,,,,,,,,,,,,,,,,,27,2.6566,1,0,29,29,26,1,9,×,3,9 × 3,congruent,largerFirst,2,1,27,,,,,,,,
,,,,,,,,,,,,,,,726,2022-01-23_17h42.37.461,multiplicationStroop,2021.2.3,Win32,60.10699044,,,,,,,,,,,,,,,,,,,,,,,,,,,,,,,,,28,4.0988,1,0,30,30,27,1,7,×,4,7 × 4,congruent,largerFirst,2,1,28,,,,,,,,
,,,,,,,,,,,,,,,726,2022-01-23_17h42.37.461,multiplicationStroop,2021.2.3,Win32,60.10699044,,,,,,,,,,,,,,,,,,,,,,,,,,,,,,,,,12,1.4733,1,0,31,31,19,1,6,×,2,6 × 2,congruent,largerFirst,2,1,12,,,,,,,,
,,,,,,,,,,,,,,,726,2022-01-23_17h42.37.461,multiplicationStroop,2021.2.3,Win32,60.10699044,,,,,,,,,,,,,,,,,,,,,,,,,,,,,,,,,48,2.5158,1,0,32,32,18,1,8,×,6,8 × 6,congruent,largerFirst,2,1,48,,,,,,,,
,,,,,,,,,,,,,,,726,2022-01-23_17h42.37.461,multiplicationStroop,2021.2.3,Win32,60.10699044,,,,,,,,,,,,,,,,,,,,,,,,,,,,,,,,,2,1.2325,0,0,33,33,28,1,2,×,2,2 × 2,neutral,tie,2,1,4,,,,,,,,
,,,,,,,,,,,,,,,726,2022-01-23_17h42.37.461,multiplicationStroop,2021.2.3,Win32,60.10699044,,,,,,,,,,,,,,,,,,,,,,,,,,,,,,,,,6,1.8324,1,0,34,34,13,1,2,×,3,2 × 3,congruent,smallerFirst,1,2,6,,,,,,,,
,,,,,,,,,,,,,,,726,2022-01-23_17h42.37.461,multiplicationStroop,2021.2.3,Win32,60.10699044,,,,,,,,,,,,,,,,,,,,,,,,,,,,,,,,,49,2.9656,1,0,35,35,33,1,7,×,7,7 × 7,neutral,tie,2,1,49,,,,,,,,
,,,,,,,,,,,,,,,726,2022-01-23_17h42.37.461,multiplicationStroop,2021.2.3,Win32,60.10699044,,,,,,,,,,,,,,,,,,,,,,,,,,,,,,,,,,,,,,,,,,,,,,,,,,0,2,2,2,1,stimulusFile/mult_blk3_congruent.xlsx,,
,,,,,,,,,,,,,,,726,2022-01-23_17h42.37.461,multiplicationStroop,2021.2.3,Win32,60.10699044,,,,,,,,,,,,,,,,,,,,,,,,,,,,,,,space,1.0347,28,2.727,1,0,0,0,13,1,4,×,7,4 × 7,congruent,smallerFirst,1,2,28,,,,,,,,
,,,,,,,,,,,,,,,726,2022-01-23_17h42.37.461,multiplicationStroop,2021.2.3,Win32,60.10699044,,,,,,,,,,,,,,,,,,,,,,,,,,,,,,,,,20,1.7657,1,0,1,1,21,1,5,×,4,5 × 4,congruent,largerFirst,2,1,20,,,,,,,,
,,,,,,,,,,,,,,,726,2022-01-23_17h42.37.461,multiplicationStroop,2021.2.3,Win32,60.10699044,,,,,,,,,,,,,,,,,,,,,,,,,,,,,,,,,21,1.7993,1,0,2,2,2,1,3,×,7,3 × 7,congruent,smallerFirst,1,2,21,,,,,,,,
,,,,,,,,,,,,,,,726,2022-01-23_17h42.37.461,multiplicationStroop,2021.2.3,Win32,60.10699044,,,,,,,,,,,,,,,,,,,,,,,,,,,,,,,,,56,2.3156,1,0,3,3,22,1,8,×,7,8 × 7,congruent,largerFirst,2,1,56,,,,,,,,
,,,,,,,,,,,,,,,726,2022-01-23_17h42.37.461,multiplicationStroop,2021.2.3,Win32,60.10699044,,,,,,,,,,,,,,,,,,,,,,,,,,,,,,,,,16,1.8994,1,0,4,4,30,1,4,×,4,4 × 4,neutral,tie,1,2,16,,,,,,,,
,,,,,,,,,,,,,,,726,2022-01-23_17h42.37.461,multiplicationStroop,2021.2.3,Win32,60.10699044,,,,,,,,,,,,,,,,,,,,,,,,,,,,,,,,,18,2.0158,1,0,5,5,8,1,2,×,9,2 × 9,congruent,smallerFirst,1,2,18,,,,,,,,
,,,,,,,,,,,,,,,726,2022-01-23_17h42.37.461,multiplicationStroop,2021.2.3,Win32,60.10699044,,,,,,,,,,,,,,,,,,,,,,,,,,,,,,,,,9,2.7485,1,0,6,6,29,1,3,×,3,3 × 3,neutral,tie,1,2,9,,,,,,,,
,,,,,,,,,,,,,,,726,2022-01-23_17h42.37.461,multiplicationStroop,2021.2.3,Win32,60.10699044,,,,,,,,,,,,,,,,,,,,,,,,,,,,,,,,,18,2.6296,1,0,7,7,25,1,6,×,3,6 × 3,congruent,largerFirst,2,1,18,,,,,,,,
,,,,,,,,,,,,,,,726,2022-01-23_17h42.37.461,multiplicationStroop,2021.2.3,Win32,60.10699044,,,,,,,,,,,,,,,,,,,,,,,,,,,,,,,,,54,2.0566,1,0,8,8,26,1,9,×,6,9 × 6,congruent,largerFirst,2,1,54,,,,,,,,
,,,,,,,,,,,,,,,726,2022-01-23_17h42.37.461,multiplicationStroop,2021.2.3,Win32,60.10699044,,,,,,,,,,,,,,,,,,,,,,,,,,,,,,,,,45,2.1489,1,0,9,9,9,1,5,×,9,5 × 9,congruent,smallerFirst,1,2,45,,,,,,,,
,,,,,,,,,,,,,,,726,2022-01-23_17h42.37.461,multiplicationStroop,2021.2.3,Win32,60.10699044,,,,,,,,,,,,,,,,,,,,,,,,,,,,,,,,,14,2.0328,1,0,10,10,0,1,2,×,7,2 × 7,congruent,smallerFirst,1,2,14,,,,,,,,
,,,,,,,,,,,,,,,726,2022-01-23_17h42.37.461,multiplicationStroop,2021.2.3,Win32,60.10699044,,,,,,,,,,,,,,,,,,,,,,,,,,,,,,,,,72,2.2322,1,0,11,11,3,1,8,×,9,8 × 9,congruent,smallerFirst,1,2,72,,,,,,,,
,,,,,,,,,,,,,,,726,2022-01-23_17h42.37.461,multiplicationStroop,2021.2.3,Win32,60.10699044,,,,,,,,,,,,,,,,,,,,,,,,,,,,,,,,,12,2.6321,1,0,12,12,5,1,2,×,6,2 × 6,congruent,smallerFirst,1,2,12,,,,,,,,
,,,,,,,,,,,,,,,726,2022-01-23_17h42.37.461,multiplicationStroop,2021.2.3,Win32,60.10699044,,,,,,,,,,,,,,,,,,,,,,,,,,,,,,,,,25,1.6995,1,0,13,13,31,1,5,×,5,5 × 5,neutral,tie,1,2,25,,,,,,,,
,,,,,,,,,,,,,,,726,2022-01-23_17h42.37.461,multiplicationStroop,2021.2.3,Win32,60.10699044,,,,,,,,,,,,,,,,,,,,,,,,,,,,,,,,,35,2.4658,1,0,14,14,15,1,7,×,5,7 × 5,congruent,largerFirst,2,1,35,,,,,,,,
,,,,,,,,,,,,,,,726,2022-01-23_17h42.37.461,multiplicationStroop,2021.2.3,Win32,60.10699044,,,,,,,,,,,,,,,,,,,,,,,,,,,,,,,,,48,2.349,1,0,15,15,4,1,6,×,8,6 × 8,congruent,smallerFirst,1,2,48,,,,,,,,
,,,,,,,,,,,,,,,726,2022-01-23_17h42.37.461,multiplicationStroop,2021.2.3,Win32,60.10699044,,,,,,,,,,,,,,,,,,,,,,,,,,,,,,,,,30,1.8903,1,0,16,16,1,1,5,×,6,5 × 6,congruent,smallerFirst,1,2,30,,,,,,,,
,,,,,,,,,,,,,,,726,2022-01-23_17h42.37.461,multiplicationStroop,2021.2.3,Win32,60.10699044,,,,,,,,,,,,,,,,,,,,,,,,,,,,,,,,,64,2.1325,1,0,17,17,34,1,8,×,8,8 × 8,neutral,tie,1,2,64,,,,,,,,
,,,,,,,,,,,,,,,726,2022-01-23_17h42.37.461,multiplicationStroop,2021.2.3,Win32,60.10699044,,,,,,,,,,,,,,,,,,,,,,,,,,,,,,,,,32,1.7491,1,0,18,18,6,1,4,×,8,4 × 8,congruent,smallerFirst,1,2,32,,,,,,,,
,,,,,,,,,,,,,,,726,2022-01-23_17h42.37.461,multiplicationStroop,2021.2.3,Win32,60.10699044,,,,,,,,,,,,,,,,,,,,,,,,,,,,,,,,,49,2.4829,1,0,19,19,33,1,7,×,7,7 × 7,neutral,tie,1,2,49,,,,,,,,
,,,,,,,,,,,,,,,726,2022-01-23_17h42.37.461,multiplicationStroop,2021.2.3,Win32,60.10699044,,,,,,,,,,,,,,,,,,,,,,,,,,,,,,,,,42,5.4559,1,0,20,20,17,1,7,×,6,7 × 6,congruent,largerFirst,2,1,42,,,,,,,,
,,,,,,,,,,,,,,,726,2022-01-23_17h42.37.461,multiplicationStroop,2021.2.3,Win32,60.10699044,,,,,,,,,,,,,,,,,,,,,,,,,,,,,,,,,81,2.0573,1,0,21,21,35,1,9,×,9,9 × 9,neutral,tie,1,2,81,,,,,,,,
,,,,,,,,,,,,,,,726,2022-01-23_17h42.37.461,multiplicationStroop,2021.2.3,Win32,60.10699044,,,,,,,,,,,,,,,,,,,,,,,,,,,,,,,,,24,2.2805,1,0,22,22,24,1,8,×,3,8 × 3,congruent,largerFirst,2,1,24,,,,,,,,
,,,,,,,,,,,,,,,726,2022-01-23_17h42.37.461,multiplicationStroop,2021.2.3,Win32,60.10699044,,,,,,,,,,,,,,,,,,,,,,,,,,,,,,,,,16,1.9524,1,0,23,23,19,1,8,×,2,8 × 2,congruent,largerFirst,2,1,16,,,,,,,,
,,,,,,,,,,,,,,,726,2022-01-23_17h42.37.461,multiplicationStroop,2021.2.3,Win32,60.10699044,,,,,,,,,,,,,,,,,,,,,,,,,,,,,,,,,27,2.2323,1,0,24,24,12,1,3,×,9,3 × 9,congruent,smallerFirst,1,2,27,,,,,,,,
,,,,,,,,,,,,,,,726,2022-01-23_17h42.37.461,multiplicationStroop,2021.2.3,Win32,60.10699044,,,,,,,,,,,,,,,,,,,,,,,,,,,,,,,,,6,1.899,1,0,25,25,27,1,3,×,2,3 × 2,congruent,largerFirst,2,1,6,,,,,,,,
,,,,,,,,,,,,,,,726,2022-01-23_17h42.37.461,multiplicationStroop,2021.2.3,Win32,60.10699044,,,,,,,,,,,,,,,,,,,,,,,,,,,,,,,,,10,1.9322,1,0,26,26,10,1,2,×,5,2 × 5,congruent,smallerFirst,1,2,10,,,,,,,,
,,,,,,,,,,,,,,,726,2022-01-23_17h42.37.461,multiplicationStroop,2021.2.3,Win32,60.10699044,,,,,,,,,,,,,,,,,,,,,,,,,,,,,,,,,40,4.3658,1,0,27,27,20,1,8,×,5,8 × 5,congruent,largerFirst,2,1,40,,,,,,,,
,,,,,,,,,,,,,,,726,2022-01-23_17h42.37.461,multiplicationStroop,2021.2.3,Win32,60.10699044,,,,,,,,,,,,,,,,,,,,,,,,,,,,,,,,,36,4.2559,1,0,28,28,14,1,9,×,4,9 × 4,congruent,largerFirst,2,1,36,,,,,,,,
,,,,,,,,,,,,,,,726,2022-01-23_17h42.37.461,multiplicationStroop,2021.2.3,Win32,60.10699044,,,,,,,,,,,,,,,,,,,,,,,,,,,,,,,,,8,1.6911,1,0,29,29,23,1,4,×,2,4 × 2,congruent,largerFirst,2,1,8,,,,,,,,
,,,,,,,,,,,,,,,726,2022-01-23_17h42.37.461,multiplicationStroop,2021.2.3,Win32,60.10699044,,,,,,,,,,,,,,,,,,,,,,,,,,,,,,,,,4,1.8483,1,0,30,30,28,1,2,×,2,2 × 2,neutral,tie,1,2,4,,,,,,,,
,,,,,,,,,,,,,,,726,2022-01-23_17h42.37.461,multiplicationStroop,2021.2.3,Win32,60.10699044,,,,,,,,,,,,,,,,,,,,,,,,,,,,,,,,,36,2.8988,1,0,31,31,32,1,6,×,6,6 × 6,neutral,tie,1,2,36,,,,,,,,
,,,,,,,,,,,,,,,726,2022-01-23_17h42.37.461,multiplicationStroop,2021.2.3,Win32,60.10699044,,,,,,,,,,,,,,,,,,,,,,,,,,,,,,,,,24,3.1821,1,0,32,32,11,1,4,×,6,4 × 6,congruent,smallerFirst,1,2,24,,,,,,,,
,,,,,,,,,,,,,,,726,2022-01-23_17h42.37.461,multiplicationStroop,2021.2.3,Win32,60.10699044,,,,,,,,,,,,,,,,,,,,,,,,,,,,,,,,,12,1.6402,1,0,33,33,16,1,4,×,3,4 × 3,congruent,largerFirst,2,1,12,,,,,,,,
,,,,,,,,,,,,,,,726,2022-01-23_17h42.37.461,multiplicationStroop,2021.2.3,Win32,60.10699044,,,,,,,,,,,,,,,,,,,,,,,,,,,,,,,,,63,8.2651,1,0,34,34,7,1,7,×,9,7 × 9,congruent,smallerFirst,1,2,63,,,,,,,,
,,,,,,,,,,,,,,,726,2022-01-23_17h42.37.461,multiplicationStroop,2021.2.3,Win32,60.10699044,,,,,,,,,,,,,,,,,,,,,,,,,,,,,,,,,15,2.1881,1,0,35,35,18,1,5,×,3,5 × 3,congruent,largerFirst,2,1,15,,,,,,,,
,,,,,,,,,,,,,,,726,2022-01-23_17h42.37.461,multiplicationStroop,2021.2.3,Win32,60.10699044,,,,,,,,,,,,,,,,,,,,,,,,,,,,,,,,,,,,,,,,,,,,,,,,,,0,3,3,3,1,stimulusFile/mult_blk4_congruent.xlsx,,
,,,,,,,,,,,,,,,726,2022-01-23_17h42.37.461,multiplicationStroop,2021.2.3,Win32,60.10699044,,,,,,,,,,,,,,,,,,,,,,,,,,,,,,,space,1.0406,54,2.622,1,0,0,0,7,1,6,×,9,6 × 9,neutral,smallerFirst,1.5,1.5,54,,,,,,,,
,,,,,,,,,,,,,,,726,2022-01-23_17h42.37.461,multiplicationStroop,2021.2.3,Win32,60.10699044,,,,,,,,,,,,,,,,,,,,,,,,,,,,,,,,,12,1.5595,1,0,1,1,21,1,4,×,3,4 × 3,neutral,largerFirst,1.5,1.5,12,,,,,,,,
,,,,,,,,,,,,,,,726,2022-01-23_17h42.37.461,multiplicationStroop,2021.2.3,Win32,60.10699044,,,,,,,,,,,,,,,,,,,,,,,,,,,,,,,,,18,3.1993,1,0,2,2,0,1,3,×,6,3 × 6,neutral,smallerFirst,1.5,1.5,18,,,,,,,,
,,,,,,,,,,,,,,,726,2022-01-23_17h42.37.461,multiplicationStroop,2021.2.3,Win32,60.10699044,,,,,,,,,,,,,,,,,,,,,,,,,,,,,,,,,16,1.9651,1,0,3,3,13,1,2,×,8,2 × 8,neutral,smallerFirst,1.5,1.5,16,,,,,,,,
,,,,,,,,,,,,,,,726,2022-01-23_17h42.37.461,multiplicationStroop,2021.2.3,Win32,60.10699044,,,,,,,,,,,,,,,,,,,,,,,,,,,,,,,,,20,1.8822,1,0,4,4,20,1,5,×,4,5 × 4,neutral,largerFirst,1.5,1.5,20,,,,,,,,
,,,,,,,,,,,,,,,726,2022-01-23_17h42.37.461,multiplicationStroop,2021.2.3,Win32,60.10699044,,,,,,,,,,,,,,,,,,,,,,,,,,,,,,,,,25,1.8159,1,0,5,5,31,1,5,×,5,5 × 5,neutral,tie,1.5,1.5,25,,,,,,,,
,,,,,,,,,,,,,,,726,2022-01-23_17h42.37.461,multiplicationStroop,2021.2.3,Win32,60.10699044,,,,,,,,,,,,,,,,,,,,,,,,,,,,,,,,,6,1.9831,1,0,6,6,26,1,3,×,2,3 × 2,neutral,largerFirst,1.5,1.5,6,,,,,,,,
,,,,,,,,,,,,,,,726,2022-01-23_17h42.37.461,multiplicationStroop,2021.2.3,Win32,60.10699044,,,,,,,,,,,,,,,,,,,,,,,,,,,,,,,,,81,2.8825,1,0,7,7,35,1,9,×,9,9 × 9,neutral,tie,1.5,1.5,81,,,,,,,,
,,,,,,,,,,,,,,,726,2022-01-23_17h42.37.461,multiplicationStroop,2021.2.3,Win32,60.10699044,,,,,,,,,,,,,,,,,,,,,,,,,,,,,,,,,45,2.3823,1,0,8,8,10,1,5,×,9,5 × 9,neutral,smallerFirst,1.5,1.5,45,,,,,,,,
,,,,,,,,,,,,,,,726,2022-01-23_17h42.37.461,multiplicationStroop,2021.2.3,Win32,60.10699044,,,,,,,,,,,,,,,,,,,,,,,,,,,,,,,,,4,1.8657,1,0,9,9,28,1,2,×,2,2 × 2,neutral,tie,1.5,1.5,4,,,,,,,,
,,,,,,,,,,,,,,,726,2022-01-23_17h42.37.461,multiplicationStroop,2021.2.3,Win32,60.10699044,,,,,,,,,,,,,,,,,,,,,,,,,,,,,,,,,14,2.4311,1,0,10,10,16,1,7,×,2,7 × 2,neutral,largerFirst,1.5,1.5,14,,,,,,,,
,,,,,,,,,,,,,,,726,2022-01-23_17h42.37.461,multiplicationStroop,2021.2.3,Win32,60.10699044,,,,,,,,,,,,,,,,,,,,,,,,,,,,,,,,,16,2.4929,1,0,11,11,30,1,4,×,4,4 × 4,neutral,tie,1.5,1.5,16,,,,,,,,
,,,,,,,,,,,,,,,726,2022-01-23_17h42.37.461,multiplicationStroop,2021.2.3,Win32,60.10699044,,,,,,,,,,,,,,,,,,,,,,,,,,,,,,,,,35,2.2474,1,0,12,12,1,1,5,×,7,5 × 7,neutral,smallerFirst,1.5,1.5,35,,,,,,,,
,,,,,,,,,,,,,,,726,2022-01-23_17h42.37.461,multiplicationStroop,2021.2.3,Win32,60.10699044,,,,,,,,,,,,,,,,,,,,,,,,,,,,,,,,,48,2.7346,1,0,13,13,15,1,8,×,6,8 × 6,neutral,largerFirst,1.5,1.5,48,,,,,,,,
,,,,,,,,,,,,,,,726,2022-01-23_17h42.37.461,multiplicationStroop,2021.2.3,Win32,60.10699044,,,,,,,,,,,,,,,,,,,,,,,,,,,,,,,,,15,2.5464,1,0,14,14,5,1,3,×,5,3 × 5,neutral,smallerFirst,1.5,1.5,15,,,,,,,,
,,,,,,,,,,,,,,,726,2022-01-23_17h42.37.461,multiplicationStroop,2021.2.3,Win32,60.10699044,,,,,,,,,,,,,,,,,,,,,,,,,,,,,,,,,8,2.7728,1,0,15,15,3,1,2,×,4,2 × 4,neutral,smallerFirst,1.5,1.5,8,,,,,,,,
,,,,,,,,,,,,,,,726,2022-01-23_17h42.37.461,multiplicationStroop,2021.2.3,Win32,60.10699044,,,,,,,,,,,,,,,,,,,,,,,,,,,,,,,,,28,2.9328,1,0,16,16,17,1,7,×,4,7 × 4,neutral,largerFirst,1.5,1.5,28,,,,,,,,
,,,,,,,,,,,,,,,726,2022-01-23_17h42.37.461,multiplicationStroop,2021.2.3,Win32,60.10699044,,,,,,,,,,,,,,,,,,,,,,,,,,,,,,,,,36,2.7814,1,0,17,17,27,1,9,×,4,9 × 4,neutral,largerFirst,1.5,1.5,36,,,,,,,,
,,,,,,,,,,,,,,,726,2022-01-23_17h42.37.461,multiplicationStroop,2021.2.3,Win32,60.10699044,,,,,,,,,,,,,,,,,,,,,,,,,,,,,,,,,64,1.9905,1,0,18,18,34,1,8,×,8,8 × 8,neutral,tie,1.5,1.5,64,,,,,,,,
,,,,,,,,,,,,,,,726,2022-01-23_17h42.37.461,multiplicationStroop,2021.2.3,Win32,60.10699044,,,,,,,,,,,,,,,,,,,,,,,,,,,,,,,,,56,2.4658,0,0,19,19,12,1,7,×,9,7 × 9,neutral,smallerFirst,1.5,1.5,63,,,,,,,,
,,,,,,,,,,,,,,,726,2022-01-23_17h42.37.461,multiplicationStroop,2021.2.3,Win32,60.10699044,,,,,,,,,,,,,,,,,,,,,,,,,,,,,,,,,72,2.282,1,0,20,20,11,1,8,×,9,8 × 9,neutral,smallerFirst,1.5,1.5,72,,,,,,,,
,,,,,,,,,,,,,,,726,2022-01-23_17h42.37.461,multiplicationStroop,2021.2.3,Win32,60.10699044,,,,,,,,,,,,,,,,,,,,,,,,,,,,,,,,,56,2.6347,1,0,21,21,9,1,7,×,8,7 × 8,neutral,smallerFirst,1.5,1.5,56,,,,,,,,
,,,,,,,,,,,,,,,726,2022-01-23_17h42.37.461,multiplicationStroop,2021.2.3,Win32,60.10699044,,,,,,,,,,,,,,,,,,,,,,,,,,,,,,,,,42,2.3151,1,0,22,22,6,1,6,×,7,6 × 7,neutral,smallerFirst,1.5,1.5,42,,,,,,,,
,,,,,,,,,,,,,,,726,2022-01-23_17h42.37.461,multiplicationStroop,2021.2.3,Win32,60.10699044,,,,,,,,,,,,,,,,,,,,,,,,,,,,,,,,,24,2.3247,1,0,23,23,22,1,8,×,3,8 × 3,neutral,largerFirst,1.5,1.5,24,,,,,,,,
,,,,,,,,,,,,,,,726,2022-01-23_17h42.37.461,multiplicationStroop,2021.2.3,Win32,60.10699044,,,,,,,,,,,,,,,,,,,,,,,,,,,,,,,,,30,1.8312,1,0,24,24,19,1,6,×,5,6 × 5,neutral,largerFirst,1.5,1.5,30,,,,,,,,
,,,,,,,,,,,,,,,726,2022-01-23_17h42.37.461,multiplicationStroop,2021.2.3,Win32,60.10699044,,,,,,,,,,,,,,,,,,,,,,,,,,,,,,,,,12,1.4157,1,0,25,25,25,1,6,×,2,6 × 2,neutral,largerFirst,1.5,1.5,12,,,,,,,,
,,,,,,,,,,,,,,,726,2022-01-23_17h42.37.461,multiplicationStroop,2021.2.3,Win32,60.10699044,,,,,,,,,,,,,,,,,,,,,,,,,,,,,,,,,49,2.6322,1,0,26,26,33,1,7,×,7,7 × 7,neutral,tie,1.5,1.5,49,,,,,,,,
,,,,,,,,,,,,,,,726,2022-01-23_17h42.37.461,multiplicationStroop,2021.2.3,Win32,60.10699044,,,,,,,,,,,,,,,,,,,,,,,,,,,,,,,,,32,2.557,1,0,27,27,23,1,8,×,4,8 × 4,neutral,largerFirst,1.5,1.5,32,,,,,,,,
,,,,,,,,,,,,,,,726,2022-01-23_17h42.37.461,multiplicationStroop,2021.2.3,Win32,60.10699044,,,,,,,,,,,,,,,,,,,,,,,,,,,,,,,,,24,1.782,1,0,28,28,2,1,4,×,6,4 × 6,neutral,smallerFirst,1.5,1.5,24,,,,,,,,
,,,,,,,,,,,,,,,726,2022-01-23_17h42.37.461,multiplicationStroop,2021.2.3,Win32,60.10699044,,,,,,,,,,,,,,,,,,,,,,,,,,,,,,,,,40,2.0663,1,0,29,29,24,1,8,×,5,8 × 5,neutral,largerFirst,1.5,1.5,40,,,,,,,,
,,,,,,,,,,,,,,,726,2022-01-23_17h42.37.461,multiplicationStroop,2021.2.3,Win32,60.10699044,,,,,,,,,,,,,,,,,,,,,,,,,,,,,,,,,15,1.8957,0,0,30,30,4,1,2,×,5,2 × 5,neutral,smallerFirst,1.5,1.5,10,,,,,,,,
,,,,,,,,,,,,,,,726,2022-01-23_17h42.37.461,multiplicationStroop,2021.2.3,Win32,60.10699044,,,,,,,,,,,,,,,,,,,,,,,,,,,,,,,,,27,2.3491,1,0,31,31,14,1,9,×,3,9 × 3,neutral,largerFirst,1.5,1.5,27,,,,,,,,
,,,,,,,,,,,,,,,726,2022-01-23_17h42.37.461,multiplicationStroop,2021.2.3,Win32,60.10699044,,,,,,,,,,,,,,,,,,,,,,,,,,,,,,,,,36,2.5657,1,0,32,32,32,1,6,×,6,6 × 6,neutral,tie,1.5,1.5,36,,,,,,,,
,,,,,,,,,,,,,,,726,2022-01-23_17h42.37.461,multiplicationStroop,2021.2.3,Win32,60.10699044,,,,,,,,,,,,,,,,,,,,,,,,,,,,,,,,,18,1.9656,1,0,33,33,18,1,9,×,2,9 × 2,neutral,largerFirst,1.5,1.5,18,,,,,,,,
,,,,,,,,,,,,,,,726,2022-01-23_17h42.37.461,multiplicationStroop,2021.2.3,Win32,60.10699044,,,,,,,,,,,,,,,,,,,,,,,,,,,,,,,,,21,1.416,1,0,34,34,8,1,3,×,7,3 × 7,neutral,smallerFirst,1.5,1.5,21,,,,,,,,
,,,,,,,,,,,,,,,726,2022-01-23_17h42.37.461,multiplicationStroop,2021.2.3,Win32,60.10699044,,,,,,,,,,,,,,,,,,,,,,,,,,,,,,,,,9,1.6332,1,0,35,35,29,1,3,×,3,3 × 3,neutral,tie,1.5,1.5,9,,,,,,,,
,,,,,,,,,,,,,,,726,2022-01-23_17h42.37.461,multiplicationStroop,2021.2.3,Win32,60.10699044,,,,,,,,,,,,,,,,,,,,,,,,,,,,,,,,,,,,,,,,,,,,,,,,,,0,4,4,1,1,stimulusFile/mult_blk2.xlsx,,
,,,,,,,,,,,,,,,726,2022-01-23_17h42.37.461,multiplicationStroop,2021.2.3,Win32,60.10699044,,,,,,,,,,,,,,,,,,,,,,,,,,,,,,,space,1.1716,36,2.5818,1,0,0,0,13,1,4,×,9,4 × 9,neutral,smallerFirst,1.5,1.5,36,,,,,,,,
,,,,,,,,,,,,,,,726,2022-01-23_17h42.37.461,multiplicationStroop,2021.2.3,Win32,60.10699044,,,,,,,,,,,,,,,,,,,,,,,,,,,,,,,,,40,1.8396,1,0,1,1,10,1,5,×,8,5 × 8,neutral,smallerFirst,1.5,1.5,40,,,,,,,,
,,,,,,,,,,,,,,,726,2022-01-23_17h42.37.461,multiplicationStroop,2021.2.3,Win32,60.10699044,,,,,,,,,,,,,,,,,,,,,,,,,,,,,,,,,32,2.2825,1,0,2,2,9,1,4,×,8,4 × 8,neutral,smallerFirst,1.5,1.5,32,,,,,,,,
,,,,,,,,,,,,,,,726,2022-01-23_17h42.37.461,multiplicationStroop,2021.2.3,Win32,60.10699044,,,,,,,,,,,,,,,,,,,,,,,,,,,,,,,,,72,2.6655,1,0,3,3,25,1,9,×,8,9 × 8,neutral,largerFirst,1.5,1.5,72,,,,,,,,
,,,,,,,,,,,,,,,726,2022-01-23_17h42.37.461,multiplicationStroop,2021.2.3,Win32,60.10699044,,,,,,,,,,,,,,,,,,,,,,,,,,,,,,,,,18,2.2491,1,0,4,4,14,1,6,×,3,6 × 3,neutral,largerFirst,1.5,1.5,18,,,,,,,,
,,,,,,,,,,,,,,,726,2022-01-23_17h42.37.461,multiplicationStroop,2021.2.3,Win32,60.10699044,,,,,,,,,,,,,,,,,,,,,,,,,,,,,,,,,45,2.2158,1,0,5,5,24,1,9,×,5,9 × 5,neutral,largerFirst,1.5,1.5,45,,,,,,,,
,,,,,,,,,,,,,,,726,2022-01-23_17h42.37.461,multiplicationStroop,2021.2.3,Win32,60.10699044,,,,,,,,,,,,,,,,,,,,,,,,,,,,,,,,,10,1.849,1,0,6,6,18,1,5,×,2,5 × 2,neutral,largerFirst,1.5,1.5,10,,,,,,,,
,,,,,,,,,,,,,,,726,2022-01-23_17h42.37.461,multiplicationStroop,2021.2.3,Win32,60.10699044,,,,,,,,,,,,,,,,,,,,,,,,,,,,,,,,,64,1.7996,1,0,7,7,34,1,8,×,8,8 × 8,neutral,tie,1.5,1.5,64,,,,,,,,
,,,,,,,,,,,,,,,726,2022-01-23_17h42.37.461,multiplicationStroop,2021.2.3,Win32,60.10699044,,,,,,,,,,,,,,,,,,,,,,,,,,,,,,,,,14,2.082,1,0,8,8,2,1,2,×,7,2 × 7,neutral,smallerFirst,1.5,1.5,14,,,,,,,,
,,,,,,,,,,,,,,,726,2022-01-23_17h42.37.461,multiplicationStroop,2021.2.3,Win32,60.10699044,,,,,,,,,,,,,,,,,,,,,,,,,,,,,,,,,4,3.6158,1,0,9,9,28,1,2,×,2,2 × 2,neutral,tie,1.5,1.5,4,,,,,,,,
,,,,,,,,,,,,,,,726,2022-01-23_17h42.37.461,multiplicationStroop,2021.2.3,Win32,60.10699044,,,,,,,,,,,,,,,,,,,,,,,,,,,,,,,,,36,2.2397,1,0,10,10,32,1,6,×,6,6 × 6,neutral,tie,1.5,1.5,36,,,,,,,,
,,,,,,,,,,,,,,,726,2022-01-23_17h42.37.461,multiplicationStroop,2021.2.3,Win32,60.10699044,,,,,,,,,,,,,,,,,,,,,,,,,,,,,,,,,63,2.7158,1,0,11,11,26,1,9,×,7,9 × 7,neutral,largerFirst,1.5,1.5,63,,,,,,,,
,,,,,,,,,,,,,,,726,2022-01-23_17h42.37.461,multiplicationStroop,2021.2.3,Win32,60.10699044,,,,,,,,,,,,,,,,,,,,,,,,,,,,,,,,,42,2.5655,1,0,12,12,20,1,7,×,6,7 × 6,neutral,largerFirst,1.5,1.5,42,,,,,,,,
,,,,,,,,,,,,,,,726,2022-01-23_17h42.37.461,multiplicationStroop,2021.2.3,Win32,60.10699044,,,,,,,,,,,,,,,,,,,,,,,,,,,,,,,,,21,1.7408,1,0,13,13,22,1,7,×,3,7 × 3,neutral,largerFirst,1.5,1.5,21,,,,,,,,
,,,,,,,,,,,,,,,726,2022-01-23_17h42.37.461,multiplicationStroop,2021.2.3,Win32,60.10699044,,,,,,,,,,,,,,,,,,,,,,,,,,,,,,,,,24,2.0481,1,0,14,14,8,1,3,×,8,3 × 8,neutral,smallerFirst,1.5,1.5,24,,,,,,,,
,,,,,,,,,,,,,,,726,2022-01-23_17h42.37.461,multiplicationStroop,2021.2.3,Win32,60.10699044,,,,,,,,,,,,,,,,,,,,,,,,,,,,,,,,,12,1.5157,1,0,15,15,11,1,2,×,6,2 × 6,neutral,smallerFirst,1.5,1.5,12,,,,,,,,
,,,,,,,,,,,,,,,726,2022-01-23_17h42.37.461,multiplicationStroop,2021.2.3,Win32,60.10699044,,,,,,,,,,,,,,,,,,,,,,,,,,,,,,,,,28,2.1492,1,0,16,16,3,1,4,×,7,4 × 7,neutral,smallerFirst,1.5,1.5,28,,,,,,,,
,,,,,,,,,,,,,,,726,2022-01-23_17h42.37.461,multiplicationStroop,2021.2.3,Win32,60.10699044,,,,,,,,,,,,,,,,,,,,,,,,,,,,,,,,,24,1.8491,1,0,17,17,16,1,6,×,4,6 × 4,neutral,largerFirst,1.5,1.5,24,,,,,,,,
,,,,,,,,,,,,,,,726,2022-01-23_17h42.37.461,multiplicationStroop,2021.2.3,Win32,60.10699044,,,,,,,,,,,,,,,,,,,,,,,,,,,,,,,,,54,2.1156,1,0,18,18,21,1,9,×,6,9 × 6,neutral,largerFirst,1.5,1.5,54,,,,,,,,
,,,,,,,,,,,,,,,726,2022-01-23_17h42.37.461,multiplicationStroop,2021.2.3,Win32,60.10699044,,,,,,,,,,,,,,,,,,,,,,,,,,,,,,,,,16,1.7488,1,0,19,19,27,1,8,×,2,8 × 2,neutral,largerFirst,1.5,1.5,16,,,,,,,,
,,,,,,,,,,,,,,,726,2022-01-23_17h42.37.461,multiplicationStroop,2021.2.3,Win32,60.10699044,,,,,,,,,,,,,,,,,,,,,,,,,,,,,,,,,27,2.2323,1,0,20,20,0,1,3,×,9,3 × 9,neutral,smallerFirst,1.5,1.5,27,,,,,,,,
,,,,,,,,,,,,,,,726,2022-01-23_17h42.37.461,multiplicationStroop,2021.2.3,Win32,60.10699044,,,,,,,,,,,,,,,,,,,,,,,,,,,,,,,,,18,2.2156,1,0,21,21,4,1,2,×,9,2 × 9,neutral,smallerFirst,1.5,1.5,18,,,,,,,,
,,,,,,,,,,,,,,,726,2022-01-23_17h42.37.461,multiplicationStroop,2021.2.3,Win32,60.10699044,,,,,,,,,,,,,,,,,,,,,,,,,,,,,,,,,8,1.6235,1,0,22,22,17,1,4,×,2,4 × 2,neutral,largerFirst,1.5,1.5,8,,,,,,,,
,,,,,,,,,,,,,,,726,2022-01-23_17h42.37.461,multiplicationStroop,2021.2.3,Win32,60.10699044,,,,,,,,,,,,,,,,,,,,,,,,,,,,,,,,,15,1.7155,1,0,23,23,19,1,5,×,3,5 × 3,neutral,largerFirst,1.5,1.5,15,,,,,,,,
,,,,,,,,,,,,,,,726,2022-01-23_17h42.37.461,multiplicationStroop,2021.2.3,Win32,60.10699044,,,,,,,,,,,,,,,,,,,,,,,,,,,,,,,,,9,1.7992,1,0,24,24,29,1,3,×,3,3 × 3,neutral,tie,1.5,1.5,9,,,,,,,,
,,,,,,,,,,,,,,,726,2022-01-23_17h42.37.461,multiplicationStroop,2021.2.3,Win32,60.10699044,,,,,,,,,,,,,,,,,,,,,,,,,,,,,,,,,6,1.7158,1,0,25,25,12,1,2,×,3,2 × 3,neutral,smallerFirst,1.5,1.5,6,,,,,,,,
,,,,,,,,,,,,,,,726,2022-01-23_17h42.37.461,multiplicationStroop,2021.2.3,Win32,60.10699044,,,,,,,,,,,,,,,,,,,,,,,,,,,,,,,,,16,2.1158,1,0,26,26,30,1,4,×,4,4 × 4,neutral,tie,1.5,1.5,16,,,,,,,,
,,,,,,,,,,,,,,,726,2022-01-23_17h42.37.461,multiplicationStroop,2021.2.3,Win32,60.10699044,,,,,,,,,,,,,,,,,,,,,,,,,,,,,,,,,49,3.4155,1,0,27,27,33,1,7,×,7,7 × 7,neutral,tie,1.5,1.5,49,,,,,,,,
,,,,,,,,,,,,,,,726,2022-01-23_17h42.37.461,multiplicationStroop,2021.2.3,Win32,60.10699044,,,,,,,,,,,,,,,,,,,,,,,,,,,,,,,,,25,1.923,1,0,28,28,31,1,5,×,5,5 × 5,neutral,tie,1.5,1.5,25,,,,,,,,
,,,,,,,,,,,,,,,726,2022-01-23_17h42.37.461,multiplicationStroop,2021.2.3,Win32,60.10699044,,,,,,,,,,,,,,,,,,,,,,,,,,,,,,,,,35,2.8489,1,0,29,29,15,1,7,×,5,7 × 5,neutral,largerFirst,1.5,1.5,35,,,,,,,,
,,,,,,,,,,,,,,,726,2022-01-23_17h42.37.461,multiplicationStroop,2021.2.3,Win32,60.10699044,,,,,,,,,,,,,,,,,,,,,,,,,,,,,,,,,20,2.3324,1,0,30,30,6,1,4,×,5,4 × 5,neutral,smallerFirst,1.5,1.5,20,,,,,,,,
,,,,,,,,,,,,,,,726,2022-01-23_17h42.37.461,multiplicationStroop,2021.2.3,Win32,60.10699044,,,,,,,,,,,,,,,,,,,,,,,,,,,,,,,,,30,1.6826,1,0,31,31,5,1,5,×,6,5 × 6,neutral,smallerFirst,1.5,1.5,30,,,,,,,,
,,,,,,,,,,,,,,,726,2022-01-23_17h42.37.461,multiplicationStroop,2021.2.3,Win32,60.10699044,,,,,,,,,,,,,,,,,,,,,,,,,,,,,,,,,12,1.4321,1,0,32,32,7,1,3,×,4,3 × 4,neutral,smallerFirst,1.5,1.5,12,,,,,,,,
,,,,,,,,,,,,,,,726,2022-01-23_17h42.37.461,multiplicationStroop,2021.2.3,Win32,60.10699044,,,,,,,,,,,,,,,,,,,,,,,,,,,,,,,,,81,1.5491,1,0,33,33,35,1,9,×,9,9 × 9,neutral,tie,1.5,1.5,81,,,,,,,,
,,,,,,,,,,,,,,,726,2022-01-23_17h42.37.461,multiplicationStroop,2021.2.3,Win32,60.10699044,,,,,,,,,,,,,,,,,,,,,,,,,,,,,,,,,48,2.1494,1,0,34,34,1,1,6,×,8,6 × 8,neutral,smallerFirst,1.5,1.5,48,,,,,,,,
,,,,,,,,,,,,,,,726,2022-01-23_17h42.37.461,multiplicationStroop,2021.2.3,Win32,60.10699044,,,,,,,,,,,,,,,,,,,,,,,,,,,,,,,,,56,1.9989,1,0,35,35,23,1,8,×,7,8 × 7,neutral,largerFirst,1.5,1.5,56,,,,,,,,
,,,,,,,,,,,,,,,726,2022-01-23_17h42.37.461,multiplicationStroop,2021.2.3,Win32,60.10699044,,,,,,,,,,,,,,,,,,,,,,,,,,,,,,,,,,,,,,,,,,,,,,,,,,0,5,5,0,1,stimulusFile/mult_blk1.xlsx,,
,,,,,,,,,,,,,,,726,2022-01-23_17h42.37.461,multiplicationStroop,2021.2.3,Win32,60.10699044,,,,,,,,,,,,,,,,,,,,,,,,,,,,,,,,,,,,,,,,,,,,,,,,,,,,,,,,space,9.246