welcomeKey_resp.keys,welcomeKey_resp.rt,X Scale,Y Scale,rt_resp_4.keys,rt_resp_4.corr,rt_resp_4.rt,speedtest_2.thisRepN,speedtest_2.thisTrialN,speedtest_2.thisN,speedtest_2.thisIndex,speedtest_2.ran,numberSc,posX,positionLayout,participant,date,expName,psychopyVersion,OS,frameRate,ct_instrresp.keys,ct_instrresp.rt,key_resp_2.keys,key_resp_2.rt,ct_keyResp.keys,ct_keyResp.corr,ct_keyResp.rt,trials.thisRepN,trials.thisTrialN,trials.thisN,trials.thisIndex,trials.ran,leftNo,rightNo,displayProblem,numDistance,leftNo_size,rightNo_size,Dims,keyAnswer,TS_Loop.thisRepN,TS_Loop.thisTrialN,TS_Loop.thisN,TS_Loop.thisIndex,TS_Loop.ran,Condition,ActionInst,instrImage,mltptaskInst_resp.keys,mltptaskInst_resp.rt,continue_resp_2.keys,continue_resp_2.rt,multp_Answer,multi_RT,multiplyCorr,LoopingMultiply.thisRepN,LoopingMultiply.thisTrialN,LoopingMultiply.thisN,LoopingMultiply.thisIndex,LoopingMultiply.ran,factor1,multiplySign,factor2,multliplyProblem,physicalSize,orderOperand,sizeF1,sizeF2,mult_answer,trials_stroop.thisRepN,trials_stroop.thisTrialN,trials_stroop.thisN,trials_stroop.thisIndex,trials_stroop.ran,multiplicationFile,esckey_resp_2.keys,esckey_resp_2.rt
y,3.844,45.1,44.8,left,1,0.5464,0,0,0,3,1,4,-200,left,730,2022-01-23_12h15.47.795,multiplicationStroop,2021.2.3,Win32,59.89458553,,,,,,,,,,,,,,,,,,,,,,,,,,,,,,,,,,,,,,,,,,,,,,,,,,,,,,,,,
,,,,left,1,0.4092,0,1,1,6,1,8,-200,left,730,2022-01-23_12h15.47.795,multiplicationStroop,2021.2.3,Win32,59.89458553,,,,,,,,,,,,,,,,,,,,,,,,,,,,,,,,,,,,,,,,,,,,,,,,,,,,,,,,,
,,,,left,1,0.4497,0,2,2,4,1,6,-200,left,730,2022-01-23_12h15.47.795,multiplicationStroop,2021.2.3,Win32,59.89458553,,,,,,,,,,,,,,,,,,,,,,,,,,,,,,,,,,,,,,,,,,,,,,,,,,,,,,,,,
,,,,right,1,0.3778,0,3,3,12,1,6,200,right,730,2022-01-23_12h15.47.795,multiplicationStroop,2021.2.3,Win32,59.89458553,,,,,,,,,,,,,,,,,,,,,,,,,,,,,,,,,,,,,,,,,,,,,,,,,,,,,,,,,
,,,,right,1,0.3461,0,4,4,14,1,8,200,right,730,2022-01-23_12h15.47.795,multiplicationStroop,2021.2.3,Win32,59.89458553,,,,,,,,,,,,,,,,,,,,,,,,,,,,,,,,,,,,,,,,,,,,,,,,,,,,,,,,,
,,,,left,1,0.3551,0,5,5,0,1,1,-200,left,730,2022-01-23_12h15.47.795,multiplicationStroop,2021.2.3,Win32,59.89458553,,,,,,,,,,,,,,,,,,,,,,,,,,,,,,,,,,,,,,,,,,,,,,,,,,,,,,,,,
,,,,right,1,0.3012,0,6,6,10,1,3,200,right,730,2022-01-23_12h15.47.795,multiplicationStroop,2021.2.3,Win32,59.89458553,,,,,,,,,,,,,,,,,,,,,,,,,,,,,,,,,,,,,,,,,,,,,,,,,,,,,,,,,
,,,,left,1,0.3107,0,7,7,7,1,9,-200,left,730,2022-01-23_12h15.47.795,multiplicationStroop,2021.2.3,Win32,59.89458553,,,,,,,,,,,,,,,,,,,,,,,,,,,,,,,,,,,,,,,,,,,,,,,,,,,,,,,,,
,,,,left,1,0.344,0,8,8,5,1,7,-200,left,730,2022-01-23_12h15.47.795,multiplicationStroop,2021.2.3,Win32,59.89458553,,,,,,,,,,,,,,,,,,,,,,,,,,,,,,,,,,,,,,,,,,,,,,,,,,,,,,,,,
,,,,right,1,0.329,0,9,9,15,1,9,200,right,730,2022-01-23_12h15.47.795,multiplicationStroop,2021.2.3,Win32,59.89458553,,,,,,,,,,,,,,,,,,,,,,,,,,,,,,,,,,,,,,,,,,,,,,,,,,,,,,,,,
,,,,left,1,0.3305,0,10,10,2,1,3,-200,left,730,2022-01-23_12h15.47.795,multiplicationStroop,2021.2.3,Win32,59.89458553,,,,,,,,,,,,,,,,,,,,,,,,,,,,,,,,,,,,,,,,,,,,,,,,,,,,,,,,,
,,,,right,1,0.328,0,11,11,13,1,7,200,right,730,2022-01-23_12h15.47.795,multiplicationStroop,2021.2.3,Win32,59.89458553,,,,,,,,,,,,,,,,,,,,,,,,,,,,,,,,,,,,,,,,,,,,,,,,,,,,,,,,,
,,,,right,1,0.3315,0,12,12,9,1,2,200,right,730,2022-01-23_12h15.47.795,multiplicationStroop,2021.2.3,Win32,59.89458553,,,,,,,,,,,,,,,,,,,,,,,,,,,,,,,,,,,,,,,,,,,,,,,,,,,,,,,,,
,,,,left,1,0.3257,0,13,13,1,1,2,-200,left,730,2022-01-23_12h15.47.795,multiplicationStroop,2021.2.3,Win32,59.89458553,,,,,,,,,,,,,,,,,,,,,,,,,,,,,,,,,,,,,,,,,,,,,,,,,,,,,,,,,
,,,,right,1,0.3305,0,14,14,11,1,4,200,right,730,2022-01-23_12h15.47.795,multiplicationStroop,2021.2.3,Win32,59.89458553,,,,,,,,,,,,,,,,,,,,,,,,,,,,,,,,,,,,,,,,,,,,,,,,,,,,,,,,,
,,,,right,1,0.3394,0,15,15,8,1,1,200,right,730,2022-01-23_12h15.47.795,multiplicationStroop,2021.2.3,Win32,59.89458553,,,,,,,,,,,,,,,,,,,,,,,,,,,,,,,,,,,,,,,,,,,,,,,,,,,,,,,,,
,,,,right,1,0.3297,1,0,16,13,1,7,200,right,730,2022-01-23_12h15.47.795,multiplicationStroop,2021.2.3,Win32,59.89458553,,,,,,,,,,,,,,,,,,,,,,,,,,,,,,,,,,,,,,,,,,,,,,,,,,,,,,,,,
,,,,right,1,0.3336,1,1,17,14,1,8,200,right,730,2022-01-23_12h15.47.795,multiplicationStroop,2021.2.3,Win32,59.89458553,,,,,,,,,,,,,,,,,,,,,,,,,,,,,,,,,,,,,,,,,,,,,,,,,,,,,,,,,
,,,,left,1,0.3678,1,2,18,1,1,2,-200,left,730,2022-01-23_12h15.47.795,multiplicationStroop,2021.2.3,Win32,59.89458553,,,,,,,,,,,,,,,,,,,,,,,,,,,,,,,,,,,,,,,,,,,,,,,,,,,,,,,,,
,,,,left,1,0.3725,1,3,19,3,1,4,-200,left,730,2022-01-23_12h15.47.795,multiplicationStroop,2021.2.3,Win32,59.89458553,,,,,,,,,,,,,,,,,,,,,,,,,,,,,,,,,,,,,,,,,,,,,,,,,,,,,,,,,
,,,,right,1,0.3409,1,4,20,11,1,4,200,right,730,2022-01-23_12h15.47.795,multiplicationStroop,2021.2.3,Win32,59.89458553,,,,,,,,,,,,,,,,,,,,,,,,,,,,,,,,,,,,,,,,,,,,,,,,,,,,,,,,,
,,,,left,1,0.3295,1,5,21,5,1,7,-200,left,730,2022-01-23_12h15.47.795,multiplicationStroop,2021.2.3,Win32,59.89458553,,,,,,,,,,,,,,,,,,,,,,,,,,,,,,,,,,,,,,,,,,,,,,,,,,,,,,,,,
,,,,left,1,0.3976,1,6,22,4,1,6,-200,left,730,2022-01-23_12h15.47.795,multiplicationStroop,2021.2.3,Win32,59.89458553,,,,,,,,,,,,,,,,,,,,,,,,,,,,,,,,,,,,,,,,,,,,,,,,,,,,,,,,,
,,,,left,1,0.3191,1,7,23,6,1,8,-200,left,730,2022-01-23_12h15.47.795,multiplicationStroop,2021.2.3,Win32,59.89458553,,,,,,,,,,,,,,,,,,,,,,,,,,,,,,,,,,,,,,,,,,,,,,,,,,,,,,,,,
,,,,right,1,0.4576,1,8,24,9,1,2,200,right,730,2022-01-23_12h15.47.795,multiplicationStroop,2021.2.3,Win32,59.89458553,,,,,,,,,,,,,,,,,,,,,,,,,,,,,,,,,,,,,,,,,,,,,,,,,,,,,,,,,
,,,,left,1,0.3243,1,9,25,7,1,9,-200,left,730,2022-01-23_12h15.47.795,multiplicationStroop,2021.2.3,Win32,59.89458553,,,,,,,,,,,,,,,,,,,,,,,,,,,,,,,,,,,,,,,,,,,,,,,,,,,,,,,,,
,,,,right,1,0.3803,1,10,26,10,1,3,200,right,730,2022-01-23_12h15.47.795,multiplicationStroop,2021.2.3,Win32,59.89458553,,,,,,,,,,,,,,,,,,,,,,,,,,,,,,,,,,,,,,,,,,,,,,,,,,,,,,,,,
,,,,right,1,0.4472,1,11,27,8,1,1,200,right,730,2022-01-23_12h15.47.795,multiplicationStroop,2021.2.3,Win32,59.89458553,,,,,,,,,,,,,,,,,,,,,,,,,,,,,,,,,,,,,,,,,,,,,,,,,,,,,,,,,
,,,,left,1,0.3337,1,12,28,2,1,3,-200,left,730,2022-01-23_12h15.47.795,multiplicationStroop,2021.2.3,Win32,59.89458553,,,,,,,,,,,,,,,,,,,,,,,,,,,,,,,,,,,,,,,,,,,,,,,,,,,,,,,,,
,,,,left,1,0.351,1,13,29,0,1,1,-200,left,730,2022-01-23_12h15.47.795,multiplicationStroop,2021.2.3,Win32,59.89458553,,,,,,,,,,,,,,,,,,,,,,,,,,,,,,,,,,,,,,,,,,,,,,,,,,,,,,,,,
,,,,right,1,0.3325,1,14,30,12,1,6,200,right,730,2022-01-23_12h15.47.795,multiplicationStroop,2021.2.3,Win32,59.89458553,,,,,,,,,,,,,,,,,,,,,,,,,,,,,,,,,,,,,,,,,,,,,,,,,,,,,,,,,
,,,,right,1,0.3964,1,15,31,15,1,9,200,right,730,2022-01-23_12h15.47.795,multiplicationStroop,2021.2.3,Win32,59.89458553,,,,,,,,,,,,,,,,,,,,,,,,,,,,,,,,,,,,,,,,,,,,,,,,,,,,,,,,,
,,,,right,1,0.3629,2,0,32,10,1,3,200,right,730,2022-01-23_12h15.47.795,multiplicationStroop,2021.2.3,Win32,59.89458553,,,,,,,,,,,,,,,,,,,,,,,,,,,,,,,,,,,,,,,,,,,,,,,,,,,,,,,,,
,,,,left,1,0.3309,2,1,33,4,1,6,-200,left,730,2022-01-23_12h15.47.795,multiplicationStroop,2021.2.3,Win32,59.89458553,,,,,,,,,,,,,,,,,,,,,,,,,,,,,,,,,,,,,,,,,,,,,,,,,,,,,,,,,
,,,,right,1,0.3349,2,2,34,13,1,7,200,right,730,2022-01-23_12h15.47.795,multiplicationStroop,2021.2.3,Win32,59.89458553,,,,,,,,,,,,,,,,,,,,,,,,,,,,,,,,,,,,,,,,,,,,,,,,,,,,,,,,,
,,,,left,1,0.303,2,3,35,5,1,7,-200,left,730,2022-01-23_12h15.47.795,multiplicationStroop,2021.2.3,Win32,59.89458553,,,,,,,,,,,,,,,,,,,,,,,,,,,,,,,,,,,,,,,,,,,,,,,,,,,,,,,,,
,,,,right,1,0.3163,2,4,36,15,1,9,200,right,730,2022-01-23_12h15.47.795,multiplicationStroop,2021.2.3,Win32,59.89458553,,,,,,,,,,,,,,,,,,,,,,,,,,,,,,,,,,,,,,,,,,,,,,,,,,,,,,,,,
,,,,right,1,0.3881,2,5,37,14,1,8,200,right,730,2022-01-23_12h15.47.795,multiplicationStroop,2021.2.3,Win32,59.89458553,,,,,,,,,,,,,,,,,,,,,,,,,,,,,,,,,,,,,,,,,,,,,,,,,,,,,,,,,
,,,,left,1,0.3842,2,6,38,1,1,2,-200,left,730,2022-01-23_12h15.47.795,multiplicationStroop,2021.2.3,Win32,59.89458553,,,,,,,,,,,,,,,,,,,,,,,,,,,,,,,,,,,,,,,,,,,,,,,,,,,,,,,,,
,,,,right,1,0.3157,2,7,39,12,1,6,200,right,730,2022-01-23_12h15.47.795,multiplicationStroop,2021.2.3,Win32,59.89458553,,,,,,,,,,,,,,,,,,,,,,,,,,,,,,,,,,,,,,,,,,,,,,,,,,,,,,,,,
,,,,left,1,0.3194,2,8,40,3,1,4,-200,left,730,2022-01-23_12h15.47.795,multiplicationStroop,2021.2.3,Win32,59.89458553,,,,,,,,,,,,,,,,,,,,,,,,,,,,,,,,,,,,,,,,,,,,,,,,,,,,,,,,,
,,,,left,1,0.4554,2,9,41,2,1,3,-200,left,730,2022-01-23_12h15.47.795,multiplicationStroop,2021.2.3,Win32,59.89458553,,,,,,,,,,,,,,,,,,,,,,,,,,,,,,,,,,,,,,,,,,,,,,,,,,,,,,,,,
,,,,left,1,0.4301,2,10,42,6,1,8,-200,left,730,2022-01-23_12h15.47.795,multiplicationStroop,2021.2.3,Win32,59.89458553,,,,,,,,,,,,,,,,,,,,,,,,,,,,,,,,,,,,,,,,,,,,,,,,,,,,,,,,,
,,,,right,1,0.3633,2,11,43,8,1,1,200,right,730,2022-01-23_12h15.47.795,multiplicationStroop,2021.2.3,Win32,59.89458553,,,,,,,,,,,,,,,,,,,,,,,,,,,,,,,,,,,,,,,,,,,,,,,,,,,,,,,,,
,,,,left,1,0.3126,2,12,44,7,1,9,-200,left,730,2022-01-23_12h15.47.795,multiplicationStroop,2021.2.3,Win32,59.89458553,,,,,,,,,,,,,,,,,,,,,,,,,,,,,,,,,,,,,,,,,,,,,,,,,,,,,,,,,
,,,,left,1,0.3205,2,13,45,0,1,1,-200,left,730,2022-01-23_12h15.47.795,multiplicationStroop,2021.2.3,Win32,59.89458553,,,,,,,,,,,,,,,,,,,,,,,,,,,,,,,,,,,,,,,,,,,,,,,,,,,,,,,,,
,,,,right,1,0.3294,2,14,46,11,1,4,200,right,730,2022-01-23_12h15.47.795,multiplicationStroop,2021.2.3,Win32,59.89458553,,,,,,,,,,,,,,,,,,,,,,,,,,,,,,,,,,,,,,,,,,,,,,,,,,,,,,,,,
,,,,right,1,0.3127,2,15,47,9,1,2,200,right,730,2022-01-23_12h15.47.795,multiplicationStroop,2021.2.3,Win32,59.89458553,,,,,,,,,,,,,,,,,,,,,,,,,,,,,,,,,,,,,,,,,,,,,,,,,,,,,,,,,
,,,,right,1,0.338,3,0,48,13,1,7,200,right,730,2022-01-23_12h15.47.795,multiplicationStroop,2021.2.3,Win32,59.89458553,,,,,,,,,,,,,,,,,,,,,,,,,,,,,,,,,,,,,,,,,,,,,,,,,,,,,,,,,
,,,,left,1,0.3506,3,1,49,1,1,2,-200,left,730,2022-01-23_12h15.47.795,multiplicationStroop,2021.2.3,Win32,59.89458553,,,,,,,,,,,,,,,,,,,,,,,,,,,,,,,,,,,,,,,,,,,,,,,,,,,,,,,,,
,,,,right,1,0.3299,3,2,50,8,1,1,200,right,730,2022-01-23_12h15.47.795,multiplicationStroop,2021.2.3,Win32,59.89458553,,,,,,,,,,,,,,,,,,,,,,,,,,,,,,,,,,,,,,,,,,,,,,,,,,,,,,,,,
,,,,left,1,0.3126,3,3,51,5,1,7,-200,left,730,2022-01-23_12h15.47.795,multiplicationStroop,2021.2.3,Win32,59.89458553,,,,,,,,,,,,,,,,,,,,,,,,,,,,,,,,,,,,,,,,,,,,,,,,,,,,,,,,,
,,,,left,1,0.3905,3,4,52,7,1,9,-200,left,730,2022-01-23_12h15.47.795,multiplicationStroop,2021.2.3,Win32,59.89458553,,,,,,,,,,,,,,,,,,,,,,,,,,,,,,,,,,,,,,,,,,,,,,,,,,,,,,,,,
,,,,left,1,0.3488,3,5,53,3,1,4,-200,left,730,2022-01-23_12h15.47.795,multiplicationStroop,2021.2.3,Win32,59.89458553,,,,,,,,,,,,,,,,,,,,,,,,,,,,,,,,,,,,,,,,,,,,,,,,,,,,,,,,,
,,,,left,1,0.3288,3,6,54,2,1,3,-200,left,730,2022-01-23_12h15.47.795,multiplicationStroop,2021.2.3,Win32,59.89458553,,,,,,,,,,,,,,,,,,,,,,,,,,,,,,,,,,,,,,,,,,,,,,,,,,,,,,,,,
,,,,right,1,0.3225,3,7,55,10,1,3,200,right,730,2022-01-23_12h15.47.795,multiplicationStroop,2021.2.3,Win32,59.89458553,,,,,,,,,,,,,,,,,,,,,,,,,,,,,,,,,,,,,,,,,,,,,,,,,,,,,,,,,
,,,,left,1,0.4173,3,8,56,4,1,6,-200,left,730,2022-01-23_12h15.47.795,multiplicationStroop,2021.2.3,Win32,59.89458553,,,,,,,,,,,,,,,,,,,,,,,,,,,,,,,,,,,,,,,,,,,,,,,,,,,,,,,,,
,,,,right,1,0.3077,3,9,57,9,1,2,200,right,730,2022-01-23_12h15.47.795,multiplicationStroop,2021.2.3,Win32,59.89458553,,,,,,,,,,,,,,,,,,,,,,,,,,,,,,,,,,,,,,,,,,,,,,,,,,,,,,,,,
,,,,left,1,0.2795,3,10,58,6,1,8,-200,left,730,2022-01-23_12h15.47.795,multiplicationStroop,2021.2.3,Win32,59.89458553,,,,,,,,,,,,,,,,,,,,,,,,,,,,,,,,,,,,,,,,,,,,,,,,,,,,,,,,,
,,,,right,0,0.2814,3,11,59,0,1,1,-200,left,730,2022-01-23_12h15.47.795,multiplicationStroop,2021.2.3,Win32,59.89458553,,,,,,,,,,,,,,,,,,,,,,,,,,,,,,,,,,,,,,,,,,,,,,,,,,,,,,,,,
,,,,right,1,0.5747,3,12,60,11,1,4,200,right,730,2022-01-23_12h15.47.795,multiplicationStroop,2021.2.3,Win32,59.89458553,,,,,,,,,,,,,,,,,,,,,,,,,,,,,,,,,,,,,,,,,,,,,,,,,,,,,,,,,
,,,,right,1,0.3735,3,13,61,15,1,9,200,right,730,2022-01-23_12h15.47.795,multiplicationStroop,2021.2.3,Win32,59.89458553,,,,,,,,,,,,,,,,,,,,,,,,,,,,,,,,,,,,,,,,,,,,,,,,,,,,,,,,,
,,,,right,1,0.3333,3,14,62,14,1,8,200,right,730,2022-01-23_12h15.47.795,multiplicationStroop,2021.2.3,Win32,59.89458553,,,,,,,,,,,,,,,,,,,,,,,,,,,,,,,,,,,,,,,,,,,,,,,,,,,,,,,,,
,,,,right,1,0.3127,3,15,63,12,1,6,200,right,730,2022-01-23_12h15.47.795,multiplicationStroop,2021.2.3,Win32,59.89458553,,,,,,,,,,,,,,,,,,,,,,,,,,,,,,,,,,,,,,,,,,,,,,,,,,,,,,,,,
,,,,,,,,,,,,,,,730,2022-01-23_12h15.47.795,multiplicationStroop,2021.2.3,Win32,59.89458553,space,12.9805,space,9.3783,left,1,1.0108,0,0,0,4,1,2,1,2 | 1,1,1.9756,1.4111,congruent,left,,,,,,stimulusFile/magnitude.xlsx,,,,,,,,,,,,,,,,,,,,,,,,,,,,,,,
,,,,,,,,,,,,,,,730,2022-01-23_12h15.47.795,multiplicationStroop,2021.2.3,Win32,59.89458553,,,,,right,1,0.459,0,1,1,64,1,1,6,1 | 6,5,1.6933,1.6933,neutral,right,,,,,,stimulusFile/magnitude.xlsx,,,,,,,,,,,,,,,,,,,,,,,,,,,,,,,
,,,,,,,,,,,,,,,730,2022-01-23_12h15.47.795,multiplicationStroop,2021.2.3,Win32,59.89458553,,,,,left,1,0.523,0,2,2,20,1,6,1,6 | 1,5,1.9756,1.4111,congruent,left,,,,,,stimulusFile/magnitude.xlsx,,,,,,,,,,,,,,,,,,,,,,,,,,,,,,,
,,,,,,,,,,,,,,,730,2022-01-23_12h15.47.795,multiplicationStroop,2021.2.3,Win32,59.89458553,,,,,left,1,0.5221,0,3,3,14,1,8,6,8 | 6,2,1.9756,1.4111,congruent,left,,,,,,stimulusFile/magnitude.xlsx,,,,,,,,,,,,,,,,,,,,,,,,,,,,,,,
,,,,,,,,,,,,,,,730,2022-01-23_12h15.47.795,multiplicationStroop,2021.2.3,Win32,59.89458553,,,,,left,1,0.547,0,4,4,46,1,8,3,8 | 3,5,1.4111,1.9756,incongruent,left,,,,,,stimulusFile/magnitude.xlsx,,,,,,,,,,,,,,,,,,,,,,,,,,,,,,,
,,,,,,,,,,,,,,,730,2022-01-23_12h15.47.795,multiplicationStroop,2021.2.3,Win32,59.89458553,,,,,left,1,0.7422,0,5,5,54,1,7,6,7 | 6,1,1.6933,1.6933,neutral,left,,,,,,stimulusFile/magnitude.xlsx,,,,,,,,,,,,,,,,,,,,,,,,,,,,,,,
,,,,,,,,,,,,,,,730,2022-01-23_12h15.47.795,multiplicationStroop,2021.2.3,Win32,59.89458553,,,,,right,1,0.4973,0,6,6,26,1,6,7,6 | 7,1,1.9756,1.4111,incongruent,right,,,,,,stimulusFile/magnitude.xlsx,,,,,,,,,,,,,,,,,,,,,,,,,,,,,,,
,,,,,,,,,,,,,,,730,2022-01-23_12h15.47.795,multiplicationStroop,2021.2.3,Win32,59.89458553,,,,,right,1,0.7576,0,7,7,24,1,1,2,1 | 2,1,1.9756,1.4111,incongruent,right,,,,,,stimulusFile/magnitude.xlsx,,,,,,,,,,,,,,,,,,,,,,,,,,,,,,,
,,,,,,,,,,,,,,,730,2022-01-23_12h15.47.795,multiplicationStroop,2021.2.3,Win32,59.89458553,,,,,right,1,0.5149,0,8,8,17,1,2,7,2 | 7,5,1.4111,1.9756,congruent,right,,,,,,stimulusFile/magnitude.xlsx,,,,,,,,,,,,,,,,,,,,,,,,,,,,,,,
,,,,,,,,,,,,,,,730,2022-01-23_12h15.47.795,multiplicationStroop,2021.2.3,Win32,59.89458553,,,,,right,1,0.5613,0,9,9,16,1,1,6,1 | 6,5,1.4111,1.9756,congruent,right,,,,,,stimulusFile/magnitude.xlsx,,,,,,,,,,,,,,,,,,,,,,,,,,,,,,,
,,,,,,,,,,,,,,,730,2022-01-23_12h15.47.795,multiplicationStroop,2021.2.3,Win32,59.89458553,,,,,left,1,0.4903,0,10,10,69,1,7,2,7 | 2,5,1.6933,1.6933,neutral,left,,,,,,stimulusFile/magnitude.xlsx,,,,,,,,,,,,,,,,,,,,,,,,,,,,,,,
,,,,,,,,,,,,,,,730,2022-01-23_12h15.47.795,multiplicationStroop,2021.2.3,Win32,59.89458553,,,,,left,1,0.5607,0,11,11,13,1,4,2,4 | 2,2,1.9756,1.4111,congruent,left,,,,,,stimulusFile/magnitude.xlsx,,,,,,,,,,,,,,,,,,,,,,,,,,,,,,,
,,,,,,,,,,,,,,,730,2022-01-23_12h15.47.795,multiplicationStroop,2021.2.3,Win32,59.89458553,,,,,right,0,0.4621,0,12,12,31,1,9,8,9 | 8,1,1.4111,1.9756,incongruent,left,,,,,,stimulusFile/magnitude.xlsx,,,,,,,,,,,,,,,,,,,,,,,,,,,,,,,
,,,,,,,,,,,,,,,730,2022-01-23_12h15.47.795,multiplicationStroop,2021.2.3,Win32,59.89458553,,,,,left,1,0.7282,0,13,13,71,1,9,4,9 | 4,5,1.6933,1.6933,neutral,left,,,,,,stimulusFile/magnitude.xlsx,,,,,,,,,,,,,,,,,,,,,,,,,,,,,,,
,,,,,,,,,,,,,,,730,2022-01-23_12h15.47.795,multiplicationStroop,2021.2.3,Win32,59.89458553,,,,,left,1,0.8517,0,14,14,52,1,2,1,2 | 1,1,1.6933,1.6933,neutral,left,,,,,,stimulusFile/magnitude.xlsx,,,,,,,,,,,,,,,,,,,,,,,,,,,,,,,
,,,,,,,,,,,,,,,730,2022-01-23_12h15.47.795,multiplicationStroop,2021.2.3,Win32,59.89458553,,,,,left,1,0.658,0,15,15,29,1,4,3,4 | 3,1,1.4111,1.9756,incongruent,left,,,,,,stimulusFile/magnitude.xlsx,,,,,,,,,,,,,,,,,,,,,,,,,,,,,,,
,,,,,,,,,,,,,,,730,2022-01-23_12h15.47.795,multiplicationStroop,2021.2.3,Win32,59.89458553,,,,,right,1,0.5115,0,16,16,18,1,3,8,3 | 8,5,1.4111,1.9756,congruent,right,,,,,,stimulusFile/magnitude.xlsx,,,,,,,,,,,,,,,,,,,,,,,,,,,,,,,
,,,,,,,,,,,,,,,730,2022-01-23_12h15.47.795,multiplicationStroop,2021.2.3,Win32,59.89458553,,,,,left,1,0.4556,0,17,17,21,1,7,2,7 | 2,5,1.9756,1.4111,congruent,left,,,,,,stimulusFile/magnitude.xlsx,,,,,,,,,,,,,,,,,,,,,,,,,,,,,,,
,,,,,,,,,,,,,,,730,2022-01-23_12h15.47.795,multiplicationStroop,2021.2.3,Win32,59.89458553,,,,,right,1,0.6958,0,18,18,27,1,8,9,8 | 9,1,1.9756,1.4111,incongruent,right,,,,,,stimulusFile/magnitude.xlsx,,,,,,,,,,,,,,,,,,,,,,,,,,,,,,,
,,,,,,,,,,,,,,,730,2022-01-23_12h15.47.795,multiplicationStroop,2021.2.3,Win32,59.89458553,,,,,left,1,0.5258,0,19,19,5,1,4,3,4 | 3,1,1.9756,1.4111,congruent,left,,,,,,stimulusFile/magnitude.xlsx,,,,,,,,,,,,,,,,,,,,,,,,,,,,,,,
,,,,,,,,,,,,,,,730,2022-01-23_12h15.47.795,multiplicationStroop,2021.2.3,Win32,59.89458553,,,,,right,1,0.4954,0,20,20,0,1,1,2,1 | 2,1,1.4111,1.9756,congruent,right,,,,,,stimulusFile/magnitude.xlsx,,,,,,,,,,,,,,,,,,,,,,,,,,,,,,,
,,,,,,,,,,,,,,,730,2022-01-23_12h15.47.795,multiplicationStroop,2021.2.3,Win32,59.89458553,,,,,left,1,0.6311,0,21,21,30,1,7,6,7 | 6,1,1.4111,1.9756,incongruent,left,,,,,,stimulusFile/magnitude.xlsx,,,,,,,,,,,,,,,,,,,,,,,,,,,,,,,
,,,,,,,,,,,,,,,730,2022-01-23_12h15.47.795,multiplicationStroop,2021.2.3,Win32,59.89458553,,,,,left,1,0.5976,0,22,22,55,1,9,8,9 | 8,1,1.6933,1.6933,neutral,left,,,,,,stimulusFile/magnitude.xlsx,,,,,,,,,,,,,,,,,,,,,,,,,,,,,,,
,,,,,,,,,,,,,,,730,2022-01-23_12h15.47.795,multiplicationStroop,2021.2.3,Win32,59.89458553,,,,,left,1,0.5252,0,23,23,62,1,8,6,8 | 6,2,1.6933,1.6933,neutral,left,,,,,,stimulusFile/magnitude.xlsx,,,,,,,,,,,,,,,,,,,,,,,,,,,,,,,
,,,,,,,,,,,,,,,730,2022-01-23_12h15.47.795,multiplicationStroop,2021.2.3,Win32,59.89458553,,,,,left,1,0.5077,0,24,24,68,1,6,1,6 | 1,5,1.6933,1.6933,neutral,left,,,,,,stimulusFile/magnitude.xlsx,,,,,,,,,,,,,,,,,,,,,,,,,,,,,,,
,,,,,,,,,,,,,,,730,2022-01-23_12h15.47.795,multiplicationStroop,2021.2.3,Win32,59.89458553,,,,,right,1,0.5449,0,25,25,32,1,1,3,1 | 3,2,1.9756,1.4111,incongruent,right,,,,,,stimulusFile/magnitude.xlsx,,,,,,,,,,,,,,,,,,,,,,,,,,,,,,,
,,,,,,,,,,,,,,,730,2022-01-23_12h15.47.795,multiplicationStroop,2021.2.3,Win32,59.89458553,,,,,right,1,0.659,0,26,26,59,1,7,9,7 | 9,2,1.6933,1.6933,neutral,right,,,,,,stimulusFile/magnitude.xlsx,,,,,,,,,,,,,,,,,,,,,,,,,,,,,,,
,,,,,,,,,,,,,,,730,2022-01-23_12h15.47.795,multiplicationStroop,2021.2.3,Win32,59.89458553,,,,,right,1,0.6498,0,27,27,48,1,1,2,1 | 2,1,1.6933,1.6933,neutral,right,,,,,,stimulusFile/magnitude.xlsx,,,,,,,,,,,,,,,,,,,,,,,,,,,,,,,
,,,,,,,,,,,,,,,730,2022-01-23_12h15.47.795,multiplicationStroop,2021.2.3,Win32,59.89458553,,,,,right,1,0.5769,0,28,28,43,1,4,9,4 | 9,5,1.9756,1.4111,incongruent,right,,,,,,stimulusFile/magnitude.xlsx,,,,,,,,,,,,,,,,,,,,,,,,,,,,,,,
,,,,,,,,,,,,,,,730,2022-01-23_12h15.47.795,multiplicationStroop,2021.2.3,Win32,59.89458553,,,,,right,1,0.5011,0,29,29,56,1,1,3,1 | 3,2,1.6933,1.6933,neutral,right,,,,,,stimulusFile/magnitude.xlsx,,,,,,,,,,,,,,,,,,,,,,,,,,,,,,,
,,,,,,,,,,,,,,,730,2022-01-23_12h15.47.795,multiplicationStroop,2021.2.3,Win32,59.89458553,,,,,left,1,0.4801,0,30,30,7,1,9,8,9 | 8,1,1.9756,1.4111,congruent,left,,,,,,stimulusFile/magnitude.xlsx,,,,,,,,,,,,,,,,,,,,,,,,,,,,,,,
,,,,,,,,,,,,,,,730,2022-01-23_12h15.47.795,multiplicationStroop,2021.2.3,Win32,59.89458553,,,,,right,1,0.5652,0,31,31,58,1,6,8,6 | 8,2,1.6933,1.6933,neutral,right,,,,,,stimulusFile/magnitude.xlsx,,,,,,,,,,,,,,,,,,,,,,,,,,,,,,,
,,,,,,,,,,,,,,,730,2022-01-23_12h15.47.795,multiplicationStroop,2021.2.3,Win32,59.89458553,,,,,right,1,0.549,0,32,32,34,1,6,8,6 | 8,2,1.9756,1.4111,incongruent,right,,,,,,stimulusFile/magnitude.xlsx,,,,,,,,,,,,,,,,,,,,,,,,,,,,,,,
,,,,,,,,,,,,,,,730,2022-01-23_12h15.47.795,multiplicationStroop,2021.2.3,Win32,59.89458553,,,,,right,1,0.6911,0,33,33,33,1,2,4,2 | 4,2,1.9756,1.4111,incongruent,right,,,,,,stimulusFile/magnitude.xlsx,,,,,,,,,,,,,,,,,,,,,,,,,,,,,,,
,,,,,,,,,,,,,,,730,2022-01-23_12h15.47.795,multiplicationStroop,2021.2.3,Win32,59.89458553,,,,,right,1,0.4975,0,34,34,42,1,3,8,3 | 8,5,1.9756,1.4111,incongruent,right,,,,,,stimulusFile/magnitude.xlsx,,,,,,,,,,,,,,,,,,,,,,,,,,,,,,,
,,,,,,,,,,,,,,,730,2022-01-23_12h15.47.795,multiplicationStroop,2021.2.3,Win32,59.89458553,,,,,left,1,0.515,0,35,35,44,1,6,1,6 | 1,5,1.4111,1.9756,incongruent,left,,,,,,stimulusFile/magnitude.xlsx,,,,,,,,,,,,,,,,,,,,,,,,,,,,,,,
,,,,,,,,,,,,,,,730,2022-01-23_12h15.47.795,multiplicationStroop,2021.2.3,Win32,59.89458553,,,,,right,1,0.5356,0,36,36,41,1,2,7,2 | 7,5,1.9756,1.4111,incongruent,right,,,,,,stimulusFile/magnitude.xlsx,,,,,,,,,,,,,,,,,,,,,,,,,,,,,,,
,,,,,,,,,,,,,,,730,2022-01-23_12h15.47.795,multiplicationStroop,2021.2.3,Win32,59.89458553,,,,,left,1,0.4919,0,37,37,38,1,8,6,8 | 6,2,1.4111,1.9756,incongruent,left,,,,,,stimulusFile/magnitude.xlsx,,,,,,,,,,,,,,,,,,,,,,,,,,,,,,,
,,,,,,,,,,,,,,,730,2022-01-23_12h15.47.795,multiplicationStroop,2021.2.3,Win32,59.89458553,,,,,right,1,0.4924,0,38,38,9,1,2,4,2 | 4,2,1.4111,1.9756,congruent,right,,,,,,stimulusFile/magnitude.xlsx,,,,,,,,,,,,,,,,,,,,,,,,,,,,,,,
,,,,,,,,,,,,,,,730,2022-01-23_12h15.47.795,multiplicationStroop,2021.2.3,Win32,59.89458553,,,,,left,1,0.6018,0,39,39,28,1,2,1,2 | 1,1,1.4111,1.9756,incongruent,left,,,,,,stimulusFile/magnitude.xlsx,,,,,,,,,,,,,,,,,,,,,,,,,,,,,,,
,,,,,,,,,,,,,,,730,2022-01-23_12h15.47.795,multiplicationStroop,2021.2.3,Win32,59.89458553,,,,,right,1,0.4247,0,40,40,2,1,6,7,6 | 7,1,1.4111,1.9756,congruent,right,,,,,,stimulusFile/magnitude.xlsx,,,,,,,,,,,,,,,,,,,,,,,,,,,,,,,
,,,,,,,,,,,,,,,730,2022-01-23_12h15.47.795,multiplicationStroop,2021.2.3,Win32,59.89458553,,,,,right,1,0.6858,0,41,41,40,1,1,6,1 | 6,5,1.9756,1.4111,incongruent,right,,,,,,stimulusFile/magnitude.xlsx,,,,,,,,,,,,,,,,,,,,,,,,,,,,,,,
,,,,,,,,,,,,,,,730,2022-01-23_12h15.47.795,multiplicationStroop,2021.2.3,Win32,59.89458553,,,,,right,1,0.5421,0,42,42,19,1,4,9,4 | 9,5,1.4111,1.9756,congruent,right,,,,,,stimulusFile/magnitude.xlsx,,,,,,,,,,,,,,,,,,,,,,,,,,,,,,,
,,,,,,,,,,,,,,,730,2022-01-23_12h15.47.795,multiplicationStroop,2021.2.3,Win32,59.89458553,,,,,left,1,0.5081,0,43,43,15,1,9,7,9 | 7,2,1.9756,1.4111,congruent,left,,,,,,stimulusFile/magnitude.xlsx,,,,,,,,,,,,,,,,,,,,,,,,,,,,,,,
,,,,,,,,,,,,,,,730,2022-01-23_12h15.47.795,multiplicationStroop,2021.2.3,Win32,59.89458553,,,,,right,1,0.5224,0,44,44,1,1,3,4,3 | 4,1,1.4111,1.9756,congruent,right,,,,,,stimulusFile/magnitude.xlsx,,,,,,,,,,,,,,,,,,,,,,,,,,,,,,,
,,,,,,,,,,,,,,,730,2022-01-23_12h15.47.795,multiplicationStroop,2021.2.3,Win32,59.89458553,,,,,right,1,0.4929,0,45,45,49,1,3,4,3 | 4,1,1.6933,1.6933,neutral,right,,,,,,stimulusFile/magnitude.xlsx,,,,,,,,,,,,,,,,,,,,,,,,,,,,,,,
,,,,,,,,,,,,,,,730,2022-01-23_12h15.47.795,multiplicationStroop,2021.2.3,Win32,59.89458553,,,,,right,1,0.3917,0,46,46,8,1,1,3,1 | 3,2,1.4111,1.9756,congruent,right,,,,,,stimulusFile/magnitude.xlsx,,,,,,,,,,,,,,,,,,,,,,,,,,,,,,,
,,,,,,,,,,,,,,,730,2022-01-23_12h15.47.795,multiplicationStroop,2021.2.3,Win32,59.89458553,,,,,left,1,0.4969,0,47,47,61,1,4,2,4 | 2,2,1.6933,1.6933,neutral,left,,,,,,stimulusFile/magnitude.xlsx,,,,,,,,,,,,,,,,,,,,,,,,,,,,,,,
,,,,,,,,,,,,,,,730,2022-01-23_12h15.47.795,multiplicationStroop,2021.2.3,Win32,59.89458553,,,,,left,1,0.5271,0,48,48,63,1,9,7,9 | 7,2,1.6933,1.6933,neutral,left,,,,,,stimulusFile/magnitude.xlsx,,,,,,,,,,,,,,,,,,,,,,,,,,,,,,,
,,,,,,,,,,,,,,,730,2022-01-23_12h15.47.795,multiplicationStroop,2021.2.3,Win32,59.89458553,,,,,left,1,0.5108,0,49,49,70,1,8,3,8 | 3,5,1.6933,1.6933,neutral,left,,,,,,stimulusFile/magnitude.xlsx,,,,,,,,,,,,,,,,,,,,,,,,,,,,,,,
,,,,,,,,,,,,,,,730,2022-01-23_12h15.47.795,multiplicationStroop,2021.2.3,Win32,59.89458553,,,,,left,1,0.6703,0,50,50,37,1,4,2,4 | 2,2,1.4111,1.9756,incongruent,left,,,,,,stimulusFile/magnitude.xlsx,,,,,,,,,,,,,,,,,,,,,,,,,,,,,,,
,,,,,,,,,,,,,,,730,2022-01-23_12h15.47.795,multiplicationStroop,2021.2.3,Win32,59.89458553,,,,,right,1,0.5483,0,51,51,51,1,8,9,8 | 9,1,1.6933,1.6933,neutral,right,,,,,,stimulusFile/magnitude.xlsx,,,,,,,,,,,,,,,,,,,,,,,,,,,,,,,
,,,,,,,,,,,,,,,730,2022-01-23_12h15.47.795,multiplicationStroop,2021.2.3,Win32,59.89458553,,,,,left,1,0.491,0,52,52,12,1,3,1,3 | 1,2,1.9756,1.4111,congruent,left,,,,,,stimulusFile/magnitude.xlsx,,,,,,,,,,,,,,,,,,,,,,,,,,,,,,,
,,,,,,,,,,,,,,,730,2022-01-23_12h15.47.795,multiplicationStroop,2021.2.3,Win32,59.89458553,,,,,right,1,0.4598,0,53,53,50,1,6,7,6 | 7,1,1.6933,1.6933,neutral,right,,,,,,stimulusFile/magnitude.xlsx,,,,,,,,,,,,,,,,,,,,,,,,,,,,,,,
,,,,,,,,,,,,,,,730,2022-01-23_12h15.47.795,multiplicationStroop,2021.2.3,Win32,59.89458553,,,,,left,1,0.4777,0,54,54,36,1,3,1,3 | 1,2,1.4111,1.9756,incongruent,left,,,,,,stimulusFile/magnitude.xlsx,,,,,,,,,,,,,,,,,,,,,,,,,,,,,,,
,,,,,,,,,,,,,,,730,2022-01-23_12h15.47.795,multiplicationStroop,2021.2.3,Win32,59.89458553,,,,,left,1,0.6299,0,55,55,23,1,9,4,9 | 4,5,1.9756,1.4111,congruent,left,,,,,,stimulusFile/magnitude.xlsx,,,,,,,,,,,,,,,,,,,,,,,,,,,,,,,
,,,,,,,,,,,,,,,730,2022-01-23_12h15.47.795,multiplicationStroop,2021.2.3,Win32,59.89458553,,,,,right,1,0.4629,0,56,56,66,1,3,8,3 | 8,5,1.6933,1.6933,neutral,right,,,,,,stimulusFile/magnitude.xlsx,,,,,,,,,,,,,,,,,,,,,,,,,,,,,,,
,,,,,,,,,,,,,,,730,2022-01-23_12h15.47.795,multiplicationStroop,2021.2.3,Win32,59.89458553,,,,,left,1,0.493,0,57,57,47,1,9,4,9 | 4,5,1.4111,1.9756,incongruent,left,,,,,,stimulusFile/magnitude.xlsx,,,,,,,,,,,,,,,,,,,,,,,,,,,,,,,
,,,,,,,,,,,,,,,730,2022-01-23_12h15.47.795,multiplicationStroop,2021.2.3,Win32,59.89458553,,,,,right,1,0.5244,0,58,58,67,1,4,9,4 | 9,5,1.6933,1.6933,neutral,right,,,,,,stimulusFile/magnitude.xlsx,,,,,,,,,,,,,,,,,,,,,,,,,,,,,,,
,,,,,,,,,,,,,,,730,2022-01-23_12h15.47.795,multiplicationStroop,2021.2.3,Win32,59.89458553,,,,,left,1,0.504,0,59,59,53,1,4,3,4 | 3,1,1.6933,1.6933,neutral,left,,,,,,stimulusFile/magnitude.xlsx,,,,,,,,,,,,,,,,,,,,,,,,,,,,,,,
,,,,,,,,,,,,,,,730,2022-01-23_12h15.47.795,multiplicationStroop,2021.2.3,Win32,59.89458553,,,,,right,1,0.5079,0,60,60,3,1,8,9,8 | 9,1,1.4111,1.9756,congruent,right,,,,,,stimulusFile/magnitude.xlsx,,,,,,,,,,,,,,,,,,,,,,,,,,,,,,,
,,,,,,,,,,,,,,,730,2022-01-23_12h15.47.795,multiplicationStroop,2021.2.3,Win32,59.89458553,,,,,left,1,0.5083,0,61,61,60,1,3,1,3 | 1,2,1.6933,1.6933,neutral,left,,,,,,stimulusFile/magnitude.xlsx,,,,,,,,,,,,,,,,,,,,,,,,,,,,,,,
,,,,,,,,,,,,,,,730,2022-01-23_12h15.47.795,multiplicationStroop,2021.2.3,Win32,59.89458553,,,,,left,1,0.4829,0,62,62,22,1,8,3,8 | 3,5,1.9756,1.4111,congruent,left,,,,,,stimulusFile/magnitude.xlsx,,,,,,,,,,,,,,,,,,,,,,,,,,,,,,,
,,,,,,,,,,,,,,,730,2022-01-23_12h15.47.795,multiplicationStroop,2021.2.3,Win32,59.89458553,,,,,left,1,0.6899,0,63,63,39,1,9,7,9 | 7,2,1.4111,1.9756,incongruent,left,,,,,,stimulusFile/magnitude.xlsx,,,,,,,,,,,,,,,,,,,,,,,,,,,,,,,
,,,,,,,,,,,,,,,730,2022-01-23_12h15.47.795,multiplicationStroop,2021.2.3,Win32,59.89458553,,,,,left,1,0.4968,0,64,64,6,1,7,6,7 | 6,1,1.9756,1.4111,congruent,left,,,,,,stimulusFile/magnitude.xlsx,,,,,,,,,,,,,,,,,,,,,,,,,,,,,,,
,,,,,,,,,,,,,,,730,2022-01-23_12h15.47.795,multiplicationStroop,2021.2.3,Win32,59.89458553,,,,,right,1,0.4468,0,65,65,10,1,6,8,6 | 8,2,1.4111,1.9756,congruent,right,,,,,,stimulusFile/magnitude.xlsx,,,,,,,,,,,,,,,,,,,,,,,,,,,,,,,
,,,,,,,,,,,,,,,730,2022-01-23_12h15.47.795,multiplicationStroop,2021.2.3,Win32,59.89458553,,,,,right,1,0.5974,0,66,66,35,1,7,9,7 | 9,2,1.9756,1.4111,incongruent,right,,,,,,stimulusFile/magnitude.xlsx,,,,,,,,,,,,,,,,,,,,,,,,,,,,,,,
,,,,,,,,,,,,,,,730,2022-01-23_12h15.47.795,multiplicationStroop,2021.2.3,Win32,59.89458553,,,,,right,1,0.5757,0,67,67,25,1,3,4,3 | 4,1,1.9756,1.4111,incongruent,right,,,,,,stimulusFile/magnitude.xlsx,,,,,,,,,,,,,,,,,,,,,,,,,,,,,,,
,,,,,,,,,,,,,,,730,2022-01-23_12h15.47.795,multiplicationStroop,2021.2.3,Win32,59.89458553,,,,,right,1,0.6119,0,68,68,57,1,2,4,2 | 4,2,1.6933,1.6933,neutral,right,,,,,,stimulusFile/magnitude.xlsx,,,,,,,,,,,,,,,,,,,,,,,,,,,,,,,
,,,,,,,,,,,,,,,730,2022-01-23_12h15.47.795,multiplicationStroop,2021.2.3,Win32,59.89458553,,,,,right,1,0.5534,0,69,69,65,1,2,7,2 | 7,5,1.6933,1.6933,neutral,right,,,,,,stimulusFile/magnitude.xlsx,,,,,,,,,,,,,,,,,,,,,,,,,,,,,,,
,,,,,,,,,,,,,,,730,2022-01-23_12h15.47.795,multiplicationStroop,2021.2.3,Win32,59.89458553,,,,,left,1,0.5106,0,70,70,45,1,7,2,7 | 2,5,1.4111,1.9756,incongruent,left,,,,,,stimulusFile/magnitude.xlsx,,,,,,,,,,,,,,,,,,,,,,,,,,,,,,,
,,,,,,,,,,,,,,,730,2022-01-23_12h15.47.795,multiplicationStroop,2021.2.3,Win32,59.89458553,,,,,right,1,0.6111,0,71,71,11,1,7,9,7 | 9,2,1.4111,1.9756,congruent,right,,,,,,stimulusFile/magnitude.xlsx,,,,,,,,,,,,,,,,,,,,,,,,,,,,,,,
,,,,,,,,,,,,,,,730,2022-01-23_12h15.47.795,multiplicationStroop,2021.2.3,Win32,59.89458553,,,,,,,,,,,,,,,,,,,,,0,0,0,0,1,stimulusFile/magnitude.xlsx,NUMERICALLY larger (larger coefficient).,images/numericallyLarger.png,,,,,,,,,,,,,,,,,,,,,,,,,,,,,
,,,,,,,,,,,,,,,730,2022-01-23_12h15.47.795,multiplicationStroop,2021.2.3,Win32,59.89458553,space,3.3949,space,2.0203,left,0,0.7367,0,0,0,46,1,8,3,8 | 3,5,1.4111,1.9756,incongruent,right,,,,,,stimulusFile/physical.xlsx,,,,,,,,,,,,,,,,,,,,,,,,,,,,,,,
,,,,,,,,,,,,,,,730,2022-01-23_12h15.47.795,multiplicationStroop,2021.2.3,Win32,59.89458553,,,,,left,1,1.0311,0,1,1,7,1,9,8,9 | 8,1,1.9756,1.4111,congruent,left,,,,,,stimulusFile/physical.xlsx,,,,,,,,,,,,,,,,,,,,,,,,,,,,,,,
,,,,,,,,,,,,,,,730,2022-01-23_12h15.47.795,multiplicationStroop,2021.2.3,Win32,59.89458553,,,,,right,1,0.7763,0,2,2,36,1,3,1,3 | 1,2,1.4111,1.9756,incongruent,right,,,,,,stimulusFile/physical.xlsx,,,,,,,,,,,,,,,,,,,,,,,,,,,,,,,
,,,,,,,,,,,,,,,730,2022-01-23_12h15.47.795,multiplicationStroop,2021.2.3,Win32,59.89458553,,,,,left,1,0.625,0,3,3,54,1,7,7,7 | 7,0,1.9756,1.4111,neutral,left,,,,,,stimulusFile/physical.xlsx,,,,,,,,,,,,,,,,,,,,,,,,,,,,,,,
,,,,,,,,,,,,,,,730,2022-01-23_12h15.47.795,multiplicationStroop,2021.2.3,Win32,59.89458553,,,,,right,1,0.5349,0,4,4,1,1,3,4,3 | 4,1,1.4111,1.9756,congruent,right,,,,,,stimulusFile/physical.xlsx,,,,,,,,,,,,,,,,,,,,,,,,,,,,,,,
,,,,,,,,,,,,,,,730,2022-01-23_12h15.47.795,multiplicationStroop,2021.2.3,Win32,59.89458553,,,,,right,1,0.5924,0,5,5,30,1,7,6,7 | 6,1,1.4111,1.9756,incongruent,right,,,,,,stimulusFile/physical.xlsx,,,,,,,,,,,,,,,,,,,,,,,,,,,,,,,
,,,,,,,,,,,,,,,730,2022-01-23_12h15.47.795,multiplicationStroop,2021.2.3,Win32,59.89458553,,,,,left,1,0.6677,0,6,6,33,1,2,4,2 | 4,2,1.9756,1.4111,incongruent,left,,,,,,stimulusFile/physical.xlsx,,,,,,,,,,,,,,,,,,,,,,,,,,,,,,,
,,,,,,,,,,,,,,,730,2022-01-23_12h15.47.795,multiplicationStroop,2021.2.3,Win32,59.89458553,,,,,right,1,0.556,0,7,7,31,1,9,8,9 | 8,1,1.4111,1.9756,incongruent,right,,,,,,stimulusFile/physical.xlsx,,,,,,,,,,,,,,,,,,,,,,,,,,,,,,,
,,,,,,,,,,,,,,,730,2022-01-23_12h15.47.795,multiplicationStroop,2021.2.3,Win32,59.89458553,,,,,right,1,0.5339,0,8,8,17,1,2,7,2 | 7,5,1.4111,1.9756,congruent,right,,,,,,stimulusFile/physical.xlsx,,,,,,,,,,,,,,,,,,,,,,,,,,,,,,,
,,,,,,,,,,,,,,,730,2022-01-23_12h15.47.795,multiplicationStroop,2021.2.3,Win32,59.89458553,,,,,left,1,0.4826,0,9,9,20,1,6,1,6 | 1,5,1.9756,1.4111,congruent,left,,,,,,stimulusFile/physical.xlsx,,,,,,,,,,,,,,,,,,,,,,,,,,,,,,,
,,,,,,,,,,,,,,,730,2022-01-23_12h15.47.795,multiplicationStroop,2021.2.3,Win32,59.89458553,,,,,left,1,0.5302,0,10,10,55,1,9,9,9 | 9,0,1.9756,1.4111,neutral,left,,,,,,stimulusFile/physical.xlsx,,,,,,,,,,,,,,,,,,,,,,,,,,,,,,,
,,,,,,,,,,,,,,,730,2022-01-23_12h15.47.795,multiplicationStroop,2021.2.3,Win32,59.89458553,,,,,left,1,0.501,0,11,11,5,1,4,3,4 | 3,1,1.9756,1.4111,congruent,left,,,,,,stimulusFile/physical.xlsx,,,,,,,,,,,,,,,,,,,,,,,,,,,,,,,
,,,,,,,,,,,,,,,730,2022-01-23_12h15.47.795,multiplicationStroop,2021.2.3,Win32,59.89458553,,,,,left,1,0.5437,0,12,12,12,1,3,1,3 | 1,2,1.9756,1.4111,congruent,left,,,,,,stimulusFile/physical.xlsx,,,,,,,,,,,,,,,,,,,,,,,,,,,,,,,
,,,,,,,,,,,,,,,730,2022-01-23_12h15.47.795,multiplicationStroop,2021.2.3,Win32,59.89458553,,,,,right,1,1.1433,0,13,13,44,1,6,1,6 | 1,5,1.4111,1.9756,incongruent,right,,,,,,stimulusFile/physical.xlsx,,,,,,,,,,,,,,,,,,,,,,,,,,,,,,,
,,,,,,,,,,,,,,,730,2022-01-23_12h15.47.795,multiplicationStroop,2021.2.3,Win32,59.89458553,,,,,left,1,0.5278,0,14,14,13,1,4,2,4 | 2,2,1.9756,1.4111,congruent,left,,,,,,stimulusFile/physical.xlsx,,,,,,,,,,,,,,,,,,,,,,,,,,,,,,,
,,,,,,,,,,,,,,,730,2022-01-23_12h15.47.795,multiplicationStroop,2021.2.3,Win32,59.89458553,,,,,right,1,0.476,0,15,15,37,1,4,2,4 | 2,2,1.4111,1.9756,incongruent,right,,,,,,stimulusFile/physical.xlsx,,,,,,,,,,,,,,,,,,,,,,,,,,,,,,,
,,,,,,,,,,,,,,,730,2022-01-23_12h15.47.795,multiplicationStroop,2021.2.3,Win32,59.89458553,,,,,left,1,0.4679,0,16,16,14,1,8,6,8 | 6,2,1.9756,1.4111,congruent,left,,,,,,stimulusFile/physical.xlsx,,,,,,,,,,,,,,,,,,,,,,,,,,,,,,,
,,,,,,,,,,,,,,,730,2022-01-23_12h15.47.795,multiplicationStroop,2021.2.3,Win32,59.89458553,,,,,right,1,0.4275,0,17,17,3,1,8,9,8 | 9,1,1.4111,1.9756,congruent,right,,,,,,stimulusFile/physical.xlsx,,,,,,,,,,,,,,,,,,,,,,,,,,,,,,,
,,,,,,,,,,,,,,,730,2022-01-23_12h15.47.795,multiplicationStroop,2021.2.3,Win32,59.89458553,,,,,left,1,0.4945,0,18,18,68,1,6,6,6 | 6,0,1.9756,1.4111,neutral,left,,,,,,stimulusFile/physical.xlsx,,,,,,,,,,,,,,,,,,,,,,,,,,,,,,,
,,,,,,,,,,,,,,,730,2022-01-23_12h15.47.795,multiplicationStroop,2021.2.3,Win32,59.89458553,,,,,right,1,0.446,0,19,19,57,1,2,2,2 | 2,0,1.4111,1.9756,neutral,right,,,,,,stimulusFile/physical.xlsx,,,,,,,,,,,,,,,,,,,,,,,,,,,,,,,
,,,,,,,,,,,,,,,730,2022-01-23_12h15.47.795,multiplicationStroop,2021.2.3,Win32,59.89458553,,,,,right,0,0.5624,0,20,20,69,1,7,7,7 | 7,0,1.4111,1.9756,neutral,left,,,,,,stimulusFile/physical.xlsx,,,,,,,,,,,,,,,,,,,,,,,,,,,,,,,
,,,,,,,,,,,,,,,730,2022-01-23_12h15.47.795,multiplicationStroop,2021.2.3,Win32,59.89458553,,,,,left,1,0.5309,0,21,21,6,1,7,6,7 | 6,1,1.9756,1.4111,congruent,left,,,,,,stimulusFile/physical.xlsx,,,,,,,,,,,,,,,,,,,,,,,,,,,,,,,
,,,,,,,,,,,,,,,730,2022-01-23_12h15.47.795,multiplicationStroop,2021.2.3,Win32,59.89458553,,,,,left,1,0.5057,0,22,22,15,1,9,7,9 | 7,2,1.9756,1.4111,congruent,left,,,,,,stimulusFile/physical.xlsx,,,,,,,,,,,,,,,,,,,,,,,,,,,,,,,
,,,,,,,,,,,,,,,730,2022-01-23_12h15.47.795,multiplicationStroop,2021.2.3,Win32,59.89458553,,,,,left,1,0.4064,0,23,23,21,1,7,2,7 | 2,5,1.9756,1.4111,congruent,left,,,,,,stimulusFile/physical.xlsx,,,,,,,,,,,,,,,,,,,,,,,,,,,,,,,
,,,,,,,,,,,,,,,730,2022-01-23_12h15.47.795,multiplicationStroop,2021.2.3,Win32,59.89458553,,,,,left,1,0.6075,0,24,24,53,1,4,4,4 | 4,0,1.9756,1.4111,neutral,left,,,,,,stimulusFile/physical.xlsx,,,,,,,,,,,,,,,,,,,,,,,,,,,,,,,
,,,,,,,,,,,,,,,730,2022-01-23_12h15.47.795,multiplicationStroop,2021.2.3,Win32,59.89458553,,,,,right,1,0.4905,0,25,25,56,1,1,1,1 | 1,0,1.4111,1.9756,neutral,right,,,,,,stimulusFile/physical.xlsx,,,,,,,,,,,,,,,,,,,,,,,,,,,,,,,
,,,,,,,,,,,,,,,730,2022-01-23_12h15.47.795,multiplicationStroop,2021.2.3,Win32,59.89458553,,,,,right,1,0.5484,0,26,26,63,1,9,9,9 | 9,0,1.4111,1.9756,neutral,right,,,,,,stimulusFile/physical.xlsx,,,,,,,,,,,,,,,,,,,,,,,,,,,,,,,
,,,,,,,,,,,,,,,730,2022-01-23_12h15.47.795,multiplicationStroop,2021.2.3,Win32,59.89458553,,,,,left,0,0.5817,0,27,27,45,1,7,2,7 | 2,5,1.4111,1.9756,incongruent,right,,,,,,stimulusFile/physical.xlsx,,,,,,,,,,,,,,,,,,,,,,,,,,,,,,,
,,,,,,,,,,,,,,,730,2022-01-23_12h15.47.795,multiplicationStroop,2021.2.3,Win32,59.89458553,,,,,left,1,0.6244,0,28,28,48,1,1,1,1 | 1,0,1.9756,1.4111,neutral,left,,,,,,stimulusFile/physical.xlsx,,,,,,,,,,,,,,,,,,,,,,,,,,,,,,,
,,,,,,,,,,,,,,,730,2022-01-23_12h15.47.795,multiplicationStroop,2021.2.3,Win32,59.89458553,,,,,left,1,0.8095,0,29,29,34,1,6,8,6 | 8,2,1.9756,1.4111,incongruent,left,,,,,,stimulusFile/physical.xlsx,,,,,,,,,,,,,,,,,,,,,,,,,,,,,,,
,,,,,,,,,,,,,,,730,2022-01-23_12h15.47.795,multiplicationStroop,2021.2.3,Win32,59.89458553,,,,,left,1,0.7183,0,30,30,70,1,8,8,8 | 8,0,1.9756,1.4111,neutral,left,,,,,,stimulusFile/physical.xlsx,,,,,,,,,,,,,,,,,,,,,,,,,,,,,,,
,,,,,,,,,,,,,,,730,2022-01-23_12h15.47.795,multiplicationStroop,2021.2.3,Win32,59.89458553,,,,,left,1,0.9961,0,31,31,40,1,1,6,1 | 6,5,1.9756,1.4111,incongruent,left,,,,,,stimulusFile/physical.xlsx,,,,,,,,,,,,,,,,,,,,,,,,,,,,,,,
,,,,,,,,,,,,,,,730,2022-01-23_12h15.47.795,multiplicationStroop,2021.2.3,Win32,59.89458553,,,,,left,0,0.8003,0,32,32,64,1,1,1,1 | 1,0,1.9756,1.4111,neutral,right,,,,,,stimulusFile/physical.xlsx,,,,,,,,,,,,,,,,,,,,,,,,,,,,,,,
,,,,,,,,,,,,,,,730,2022-01-23_12h15.47.795,multiplicationStroop,2021.2.3,Win32,59.89458553,,,,,right,1,0.6009,0,33,33,8,1,1,3,1 | 3,2,1.4111,1.9756,congruent,right,,,,,,stimulusFile/physical.xlsx,,,,,,,,,,,,,,,,,,,,,,,,,,,,,,,
,,,,,,,,,,,,,,,730,2022-01-23_12h15.47.795,multiplicationStroop,2021.2.3,Win32,59.89458553,,,,,left,1,0.5173,0,34,34,32,1,1,3,1 | 3,2,1.9756,1.4111,incongruent,left,,,,,,stimulusFile/physical.xlsx,,,,,,,,,,,,,,,,,,,,,,,,,,,,,,,
,,,,,,,,,,,,,,,730,2022-01-23_12h15.47.795,multiplicationStroop,2021.2.3,Win32,59.89458553,,,,,right,1,0.4925,0,35,35,29,1,4,3,4 | 3,1,1.4111,1.9756,incongruent,right,,,,,,stimulusFile/physical.xlsx,,,,,,,,,,,,,,,,,,,,,,,,,,,,,,,
,,,,,,,,,,,,,,,730,2022-01-23_12h15.47.795,multiplicationStroop,2021.2.3,Win32,59.89458553,,,,,left,1,0.5365,0,36,36,27,1,8,9,8 | 9,1,1.9756,1.4111,incongruent,left,,,,,,stimulusFile/physical.xlsx,,,,,,,,,,,,,,,,,,,,,,,,,,,,,,,
,,,,,,,,,,,,,,,730,2022-01-23_12h15.47.795,multiplicationStroop,2021.2.3,Win32,59.89458553,,,,,right,1,0.4492,0,37,37,18,1,3,8,3 | 8,5,1.4111,1.9756,congruent,right,,,,,,stimulusFile/physical.xlsx,,,,,,,,,,,,,,,,,,,,,,,,,,,,,,,
,,,,,,,,,,,,,,,730,2022-01-23_12h15.47.795,multiplicationStroop,2021.2.3,Win32,59.89458553,,,,,right,1,0.605,0,38,38,28,1,2,1,2 | 1,1,1.4111,1.9756,incongruent,right,,,,,,stimulusFile/physical.xlsx,,,,,,,,,,,,,,,,,,,,,,,,,,,,,,,
,,,,,,,,,,,,,,,730,2022-01-23_12h15.47.795,multiplicationStroop,2021.2.3,Win32,59.89458553,,,,,right,1,0.5198,0,39,39,9,1,2,4,2 | 4,2,1.4111,1.9756,congruent,right,,,,,,stimulusFile/physical.xlsx,,,,,,,,,,,,,,,,,,,,,,,,,,,,,,,
,,,,,,,,,,,,,,,730,2022-01-23_12h15.47.795,multiplicationStroop,2021.2.3,Win32,59.89458553,,,,,left,1,0.4833,0,40,40,42,1,3,8,3 | 8,5,1.9756,1.4111,incongruent,left,,,,,,stimulusFile/physical.xlsx,,,,,,,,,,,,,,,,,,,,,,,,,,,,,,,
,,,,,,,,,,,,,,,730,2022-01-23_12h15.47.795,multiplicationStroop,2021.2.3,Win32,59.89458553,,,,,left,1,0.4768,0,41,41,22,1,8,3,8 | 3,5,1.9756,1.4111,congruent,left,,,,,,stimulusFile/physical.xlsx,,,,,,,,,,,,,,,,,,,,,,,,,,,,,,,
,,,,,,,,,,,,,,,730,2022-01-23_12h15.47.795,multiplicationStroop,2021.2.3,Win32,59.89458553,,,,,right,1,0.4432,0,42,42,11,1,7,9,7 | 9,2,1.4111,1.9756,congruent,right,,,,,,stimulusFile/physical.xlsx,,,,,,,,,,,,,,,,,,,,,,,,,,,,,,,
,,,,,,,,,,,,,,,730,2022-01-23_12h15.47.795,multiplicationStroop,2021.2.3,Win32,59.89458553,,,,,right,1,0.5311,0,43,43,62,1,8,8,8 | 8,0,1.4111,1.9756,neutral,right,,,,,,stimulusFile/physical.xlsx,,,,,,,,,,,,,,,,,,,,,,,,,,,,,,,
,,,,,,,,,,,,,,,730,2022-01-23_12h15.47.795,multiplicationStroop,2021.2.3,Win32,59.89458553,,,,,right,1,0.5249,0,44,44,61,1,4,4,4 | 4,0,1.4111,1.9756,neutral,right,,,,,,stimulusFile/physical.xlsx,,,,,,,,,,,,,,,,,,,,,,,,,,,,,,,
,,,,,,,,,,,,,,,730,2022-01-23_12h15.47.795,multiplicationStroop,2021.2.3,Win32,59.89458553,,,,,left,1,0.5254,0,45,45,43,1,4,9,4 | 9,5,1.9756,1.4111,incongruent,left,,,,,,stimulusFile/physical.xlsx,,,,,,,,,,,,,,,,,,,,,,,,,,,,,,,
,,,,,,,,,,,,,,,730,2022-01-23_12h15.47.795,multiplicationStroop,2021.2.3,Win32,59.89458553,,,,,left,0,0.4823,0,46,46,66,1,3,3,3 | 3,0,1.9756,1.4111,neutral,right,,,,,,stimulusFile/physical.xlsx,,,,,,,,,,,,,,,,,,,,,,,,,,,,,,,
,,,,,,,,,,,,,,,730,2022-01-23_12h15.47.795,multiplicationStroop,2021.2.3,Win32,59.89458553,,,,,right,1,0.4362,0,47,47,65,1,2,2,2 | 2,0,1.4111,1.9756,neutral,right,,,,,,stimulusFile/physical.xlsx,,,,,,,,,,,,,,,,,,,,,,,,,,,,,,,
,,,,,,,,,,,,,,,730,2022-01-23_12h15.47.795,multiplicationStroop,2021.2.3,Win32,59.89458553,,,,,left,1,0.5389,0,48,48,41,1,2,7,2 | 7,5,1.9756,1.4111,incongruent,left,,,,,,stimulusFile/physical.xlsx,,,,,,,,,,,,,,,,,,,,,,,,,,,,,,,
,,,,,,,,,,,,,,,730,2022-01-23_12h15.47.795,multiplicationStroop,2021.2.3,Win32,59.89458553,,,,,left,1,0.5279,0,49,49,50,1,6,6,6 | 6,0,1.9756,1.4111,neutral,left,,,,,,stimulusFile/physical.xlsx,,,,,,,,,,,,,,,,,,,,,,,,,,,,,,,
,,,,,,,,,,,,,,,730,2022-01-23_12h15.47.795,multiplicationStroop,2021.2.3,Win32,59.89458553,,,,,right,1,0.5854,0,50,50,10,1,6,8,6 | 8,2,1.4111,1.9756,congruent,right,,,,,,stimulusFile/physical.xlsx,,,,,,,,,,,,,,,,,,,,,,,,,,,,,,,
,,,,,,,,,,,,,,,730,2022-01-23_12h15.47.795,multiplicationStroop,2021.2.3,Win32,59.89458553,,,,,left,1,0.4878,0,51,51,49,1,3,3,3 | 3,0,1.9756,1.4111,neutral,left,,,,,,stimulusFile/physical.xlsx,,,,,,,,,,,,,,,,,,,,,,,,,,,,,,,
,,,,,,,,,,,,,,,730,2022-01-23_12h15.47.795,multiplicationStroop,2021.2.3,Win32,59.89458553,,,,,left,1,0.5257,0,52,52,4,1,2,1,2 | 1,1,1.9756,1.4111,congruent,left,,,,,,stimulusFile/physical.xlsx,,,,,,,,,,,,,,,,,,,,,,,,,,,,,,,
,,,,,,,,,,,,,,,730,2022-01-23_12h15.47.795,multiplicationStroop,2021.2.3,Win32,59.89458553,,,,,right,1,0.4417,0,53,53,0,1,1,2,1 | 2,1,1.4111,1.9756,congruent,right,,,,,,stimulusFile/physical.xlsx,,,,,,,,,,,,,,,,,,,,,,,,,,,,,,,
,,,,,,,,,,,,,,,730,2022-01-23_12h15.47.795,multiplicationStroop,2021.2.3,Win32,59.89458553,,,,,right,1,0.4842,0,54,54,19,1,4,9,4 | 9,5,1.4111,1.9756,congruent,right,,,,,,stimulusFile/physical.xlsx,,,,,,,,,,,,,,,,,,,,,,,,,,,,,,,
,,,,,,,,,,,,,,,730,2022-01-23_12h15.47.795,multiplicationStroop,2021.2.3,Win32,59.89458553,,,,,left,1,0.5206,0,55,55,24,1,1,2,1 | 2,1,1.9756,1.4111,incongruent,left,,,,,,stimulusFile/physical.xlsx,,,,,,,,,,,,,,,,,,,,,,,,,,,,,,,
,,,,,,,,,,,,,,,730,2022-01-23_12h15.47.795,multiplicationStroop,2021.2.3,Win32,59.89458553,,,,,right,1,0.4647,0,56,56,67,1,4,4,4 | 4,0,1.4111,1.9756,neutral,right,,,,,,stimulusFile/physical.xlsx,,,,,,,,,,,,,,,,,,,,,,,,,,,,,,,
,,,,,,,,,,,,,,,730,2022-01-23_12h15.47.795,multiplicationStroop,2021.2.3,Win32,59.89458553,,,,,right,1,0.4448,0,57,57,16,1,1,6,1 | 6,5,1.4111,1.9756,congruent,right,,,,,,stimulusFile/physical.xlsx,,,,,,,,,,,,,,,,,,,,,,,,,,,,,,,
,,,,,,,,,,,,,,,730,2022-01-23_12h15.47.795,multiplicationStroop,2021.2.3,Win32,59.89458553,,,,,right,1,0.9766,0,58,58,47,1,9,4,9 | 4,5,1.4111,1.9756,incongruent,right,,,,,,stimulusFile/physical.xlsx,,,,,,,,,,,,,,,,,,,,,,,,,,,,,,,
,,,,,,,,,,,,,,,730,2022-01-23_12h15.47.795,multiplicationStroop,2021.2.3,Win32,59.89458553,,,,,left,1,0.5768,0,59,59,26,1,6,7,6 | 7,1,1.9756,1.4111,incongruent,left,,,,,,stimulusFile/physical.xlsx,,,,,,,,,,,,,,,,,,,,,,,,,,,,,,,
,,,,,,,,,,,,,,,730,2022-01-23_12h15.47.795,multiplicationStroop,2021.2.3,Win32,59.89458553,,,,,right,1,0.8689,0,60,60,59,1,7,7,7 | 7,0,1.4111,1.9756,neutral,right,,,,,,stimulusFile/physical.xlsx,,,,,,,,,,,,,,,,,,,,,,,,,,,,,,,
,,,,,,,,,,,,,,,730,2022-01-23_12h15.47.795,multiplicationStroop,2021.2.3,Win32,59.89458553,,,,,right,1,0.551,0,61,61,58,1,6,6,6 | 6,0,1.4111,1.9756,neutral,right,,,,,,stimulusFile/physical.xlsx,,,,,,,,,,,,,,,,,,,,,,,,,,,,,,,
,,,,,,,,,,,,,,,730,2022-01-23_12h15.47.795,multiplicationStroop,2021.2.3,Win32,59.89458553,,,,,right,0,0.5421,0,62,62,71,1,9,9,9 | 9,0,1.4111,1.9756,neutral,left,,,,,,stimulusFile/physical.xlsx,,,,,,,,,,,,,,,,,,,,,,,,,,,,,,,
,,,,,,,,,,,,,,,730,2022-01-23_12h15.47.795,multiplicationStroop,2021.2.3,Win32,59.89458553,,,,,left,1,0.5119,0,63,63,23,1,9,4,9 | 4,5,1.9756,1.4111,congruent,left,,,,,,stimulusFile/physical.xlsx,,,,,,,,,,,,,,,,,,,,,,,,,,,,,,,
,,,,,,,,,,,,,,,730,2022-01-23_12h15.47.795,multiplicationStroop,2021.2.3,Win32,59.89458553,,,,,right,1,0.452,0,64,64,38,1,8,6,8 | 6,2,1.4111,1.9756,incongruent,right,,,,,,stimulusFile/physical.xlsx,,,,,,,,,,,,,,,,,,,,,,,,,,,,,,,
,,,,,,,,,,,,,,,730,2022-01-23_12h15.47.795,multiplicationStroop,2021.2.3,Win32,59.89458553,,,,,right,1,0.5306,0,65,65,2,1,6,7,6 | 7,1,1.4111,1.9756,congruent,right,,,,,,stimulusFile/physical.xlsx,,,,,,,,,,,,,,,,,,,,,,,,,,,,,,,
,,,,,,,,,,,,,,,730,2022-01-23_12h15.47.795,multiplicationStroop,2021.2.3,Win32,59.89458553,,,,,left,1,0.5853,0,66,66,25,1,3,4,3 | 4,1,1.9756,1.4111,incongruent,left,,,,,,stimulusFile/physical.xlsx,,,,,,,,,,,,,,,,,,,,,,,,,,,,,,,
,,,,,,,,,,,,,,,730,2022-01-23_12h15.47.795,multiplicationStroop,2021.2.3,Win32,59.89458553,,,,,right,1,0.7411,0,67,67,39,1,9,7,9 | 7,2,1.4111,1.9756,incongruent,right,,,,,,stimulusFile/physical.xlsx,,,,,,,,,,,,,,,,,,,,,,,,,,,,,,,
,,,,,,,,,,,,,,,730,2022-01-23_12h15.47.795,multiplicationStroop,2021.2.3,Win32,59.89458553,,,,,left,1,0.641,0,68,68,52,1,2,2,2 | 2,0,1.9756,1.4111,neutral,left,,,,,,stimulusFile/physical.xlsx,,,,,,,,,,,,,,,,,,,,,,,,,,,,,,,
,,,,,,,,,,,,,,,730,2022-01-23_12h15.47.795,multiplicationStroop,2021.2.3,Win32,59.89458553,,,,,left,1,0.5224,0,69,69,35,1,7,9,7 | 9,2,1.9756,1.4111,incongruent,left,,,,,,stimulusFile/physical.xlsx,,,,,,,,,,,,,,,,,,,,,,,,,,,,,,,
,,,,,,,,,,,,,,,730,2022-01-23_12h15.47.795,multiplicationStroop,2021.2.3,Win32,59.89458553,,,,,right,1,0.4245,0,70,70,60,1,3,3,3 | 3,0,1.4111,1.9756,neutral,right,,,,,,stimulusFile/physical.xlsx,,,,,,,,,,,,,,,,,,,,,,,,,,,,,,,
,,,,,,,,,,,,,,,730,2022-01-23_12h15.47.795,multiplicationStroop,2021.2.3,Win32,59.89458553,,,,,left,1,0.4895,0,71,71,51,1,8,8,8 | 8,0,1.9756,1.4111,neutral,left,,,,,,stimulusFile/physical.xlsx,,,,,,,,,,,,,,,,,,,,,,,,,,,,,,,
,,,,,,,,,,,,,,,730,2022-01-23_12h15.47.795,multiplicationStroop,2021.2.3,Win32,59.89458553,,,,,,,,,,,,,,,,,,,,,0,1,1,1,1,stimulusFile/physical.xlsx,PHYSICALLY larger (larger font size).,images/physicallyLarger.png,,,,,,,,,,,,,,,,,,,,,,,,,,,,,
,,,,,,,,,,,,,,,730,2022-01-23_12h15.47.795,multiplicationStroop,2021.2.3,Win32,59.89458553,,,,,,,,,,,,,,,,,,,,,,,,,,,,,space,34.5781,space,1.1259,6,4.4669,1,0,0,0,11,1,2,×,3,2 × 3,incongruent,smallerFirst,2,1,6,,,,,,,,
,,,,,,,,,,,,,,,730,2022-01-23_12h15.47.795,multiplicationStroop,2021.2.3,Win32,59.89458553,,,,,,,,,,,,,,,,,,,,,,,,,,,,,,,,,35,2.3209,1,0,1,1,12,1,5,×,7,5 × 7,incongruent,smallerFirst,2,1,35,,,,,,,,
,,,,,,,,,,,,,,,730,2022-01-23_12h15.47.795,multiplicationStroop,2021.2.3,Win32,59.89458553,,,,,,,,,,,,,,,,,,,,,,,,,,,,,,,,,8,2.1871,1,0,2,2,24,1,4,×,2,4 × 2,incongruent,largerFirst,1,2,8,,,,,,,,
,,,,,,,,,,,,,,,730,2022-01-23_12h15.47.795,multiplicationStroop,2021.2.3,Win32,59.89458553,,,,,,,,,,,,,,,,,,,,,,,,,,,,,,,,,24,1.933,1,0,3,3,20,1,6,×,4,6 × 4,incongruent,largerFirst,1,2,24,,,,,,,,
,,,,,,,,,,,,,,,730,2022-01-23_12h15.47.795,multiplicationStroop,2021.2.3,Win32,59.89458553,,,,,,,,,,,,,,,,,,,,,,,,,,,,,,,,,32,2.1853,1,0,4,4,7,1,4,×,8,4 × 8,incongruent,smallerFirst,2,1,32,,,,,,,,
,,,,,,,,,,,,,,,730,2022-01-23_12h15.47.795,multiplicationStroop,2021.2.3,Win32,59.89458553,,,,,,,,,,,,,,,,,,,,,,,,,,,,,,,,,27,2.1517,1,0,5,5,18,1,9,×,3,9 × 3,incongruent,largerFirst,1,2,27,,,,,,,,
,,,,,,,,,,,,,,,730,2022-01-23_12h15.47.795,multiplicationStroop,2021.2.3,Win32,59.89458553,,,,,,,,,,,,,,,,,,,,,,,,,,,,,,,,,36,1.7347,1,0,6,6,15,1,9,×,4,9 × 4,incongruent,largerFirst,1,2,36,,,,,,,,
,,,,,,,,,,,,,,,730,2022-01-23_12h15.47.795,multiplicationStroop,2021.2.3,Win32,59.89458553,,,,,,,,,,,,,,,,,,,,,,,,,,,,,,,,,4,2.8527,1,0,7,7,28,1,2,×,2,2 × 2,incongruent,tie,1,2,4,,,,,,,,
,,,,,,,,,,,,,,,730,2022-01-23_12h15.47.795,multiplicationStroop,2021.2.3,Win32,59.89458553,,,,,,,,,,,,,,,,,,,,,,,,,,,,,,,,,64,2.1849,1,0,8,8,34,1,8,×,8,8 × 8,incongruent,tie,1,2,64,,,,,,,,
,,,,,,,,,,,,,,,730,2022-01-23_12h15.47.795,multiplicationStroop,2021.2.3,Win32,59.89458553,,,,,,,,,,,,,,,,,,,,,,,,,,,,,,,,,20,1.8344,1,0,9,9,27,1,5,×,4,5 × 4,incongruent,largerFirst,1,2,20,,,,,,,,
,,,,,,,,,,,,,,,730,2022-01-23_12h15.47.795,multiplicationStroop,2021.2.3,Win32,59.89458553,,,,,,,,,,,,,,,,,,,,,,,,,,,,,,,,,28,1.939,1,0,10,10,16,1,7,×,4,7 × 4,incongruent,largerFirst,1,2,28,,,,,,,,
,,,,,,,,,,,,,,,730,2022-01-23_12h15.47.795,multiplicationStroop,2021.2.3,Win32,59.89458553,,,,,,,,,,,,,,,,,,,,,,,,,,,,,,,,,12,1.3967,1,0,11,11,19,1,6,×,2,6 × 2,incongruent,largerFirst,1,2,12,,,,,,,,
,,,,,,,,,,,,,,,730,2022-01-23_12h15.47.795,multiplicationStroop,2021.2.3,Win32,59.89458553,,,,,,,,,,,,,,,,,,,,,,,,,,,,,,,,,40,1.9355,1,0,12,12,13,1,5,×,8,5 × 8,incongruent,smallerFirst,2,1,40,,,,,,,,
,,,,,,,,,,,,,,,730,2022-01-23_12h15.47.795,multiplicationStroop,2021.2.3,Win32,59.89458553,,,,,,,,,,,,,,,,,,,,,,,,,,,,,,,,,72,2.7737,1,0,13,13,0,1,8,×,9,8 × 9,incongruent,smallerFirst,2,1,72,,,,,,,,
,,,,,,,,,,,,,,,730,2022-01-23_12h15.47.795,multiplicationStroop,2021.2.3,Win32,59.89458553,,,,,,,,,,,,,,,,,,,,,,,,,,,,,,,,,18,2.1633,1,0,14,14,8,1,3,×,6,3 × 6,incongruent,smallerFirst,2,1,18,,,,,,,,
,,,,,,,,,,,,,,,730,2022-01-23_12h15.47.795,multiplicationStroop,2021.2.3,Win32,59.89458553,,,,,,,,,,,,,,,,,,,,,,,,,,,,,,,,,14,1.618,1,0,15,15,4,1,2,×,7,2 × 7,incongruent,smallerFirst,2,1,14,,,,,,,,
,,,,,,,,,,,,,,,730,2022-01-23_12h15.47.795,multiplicationStroop,2021.2.3,Win32,59.89458553,,,,,,,,,,,,,,,,,,,,,,,,,,,,,,,,,30,1.7014,1,0,16,16,25,1,6,×,5,6 × 5,incongruent,largerFirst,1,2,30,,,,,,,,
,,,,,,,,,,,,,,,730,2022-01-23_12h15.47.795,multiplicationStroop,2021.2.3,Win32,59.89458553,,,,,,,,,,,,,,,,,,,,,,,,,,,,,,,,,48,2.502,1,0,17,17,1,1,6,×,8,6 × 8,incongruent,smallerFirst,2,1,48,,,,,,,,
,,,,,,,,,,,,,,,730,2022-01-23_12h15.47.795,multiplicationStroop,2021.2.3,Win32,59.89458553,,,,,,,,,,,,,,,,,,,,,,,,,,,,,,,,,25,2.402,1,0,18,18,31,1,5,×,5,5 × 5,incongruent,tie,1,2,25,,,,,,,,
,,,,,,,,,,,,,,,730,2022-01-23_12h15.47.795,multiplicationStroop,2021.2.3,Win32,59.89458553,,,,,,,,,,,,,,,,,,,,,,,,,,,,,,,,,56,2.1858,1,0,19,19,14,1,8,×,7,8 × 7,incongruent,largerFirst,1,2,56,,,,,,,,
,,,,,,,,,,,,,,,730,2022-01-23_12h15.47.795,multiplicationStroop,2021.2.3,Win32,59.89458553,,,,,,,,,,,,,,,,,,,,,,,,,,,,,,,,,24,2.3678,1,0,20,20,9,1,3,×,8,3 × 8,incongruent,smallerFirst,2,1,24,,,,,,,,
,,,,,,,,,,,,,,,730,2022-01-23_12h15.47.795,multiplicationStroop,2021.2.3,Win32,59.89458553,,,,,,,,,,,,,,,,,,,,,,,,,,,,,,,,,81,2.9218,1,0,21,21,35,1,9,×,9,9 × 9,incongruent,tie,1,2,81,,,,,,,,
,,,,,,,,,,,,,,,730,2022-01-23_12h15.47.795,multiplicationStroop,2021.2.3,Win32,59.89458553,,,,,,,,,,,,,,,,,,,,,,,,,,,,,,,,,16,2.1521,1,0,22,22,30,1,4,×,4,4 × 4,incongruent,tie,1,2,16,,,,,,,,
,,,,,,,,,,,,,,,730,2022-01-23_12h15.47.795,multiplicationStroop,2021.2.3,Win32,59.89458553,,,,,,,,,,,,,,,,,,,,,,,,,,,,,,,,,36,2.5521,1,0,23,23,32,1,6,×,6,6 × 6,incongruent,tie,1,2,36,,,,,,,,
,,,,,,,,,,,,,,,730,2022-01-23_12h15.47.795,multiplicationStroop,2021.2.3,Win32,59.89458553,,,,,,,,,,,,,,,,,,,,,,,,,,,,,,,,,10,2.319,1,0,24,24,21,1,5,×,2,5 × 2,incongruent,largerFirst,1,2,10,,,,,,,,
,,,,,,,,,,,,,,,730,2022-01-23_12h15.47.795,multiplicationStroop,2021.2.3,Win32,59.89458553,,,,,,,,,,,,,,,,,,,,,,,,,,,,,,,,,56,6.8896,0,0,25,25,3,1,7,×,9,7 × 9,incongruent,smallerFirst,2,1,63,,,,,,,,
,,,,,,,,,,,,,,,730,2022-01-23_12h15.47.795,multiplicationStroop,2021.2.3,Win32,59.89458553,,,,,,,,,,,,,,,,,,,,,,,,,,,,,,,,,16,3.5377,1,0,26,26,23,1,8,×,2,8 × 2,incongruent,largerFirst,1,2,16,,,,,,,,
,,,,,,,,,,,,,,,730,2022-01-23_12h15.47.795,multiplicationStroop,2021.2.3,Win32,59.89458553,,,,,,,,,,,,,,,,,,,,,,,,,,,,,,,,,9,1.8377,1,0,27,27,29,1,3,×,3,3 × 3,incongruent,tie,1,2,9,,,,,,,,
,,,,,,,,,,,,,,,730,2022-01-23_12h15.47.795,multiplicationStroop,2021.2.3,Win32,59.89458553,,,,,,,,,,,,,,,,,,,,,,,,,,,,,,,,,15,1.6852,1,0,28,28,10,1,3,×,5,3 × 5,incongruent,smallerFirst,2,1,15,,,,,,,,
,,,,,,,,,,,,,,,730,2022-01-23_12h15.47.795,multiplicationStroop,2021.2.3,Win32,59.89458553,,,,,,,,,,,,,,,,,,,,,,,,,,,,,,,,,49,2.0011,1,0,29,29,33,1,7,×,7,7 × 7,incongruent,tie,1,2,49,,,,,,,,
,,,,,,,,,,,,,,,730,2022-01-23_12h15.47.795,multiplicationStroop,2021.2.3,Win32,59.89458553,,,,,,,,,,,,,,,,,,,,,,,,,,,,,,,,,45,3.1029,1,0,30,30,22,1,9,×,5,9 × 5,incongruent,largerFirst,1,2,45,,,,,,,,
,,,,,,,,,,,,,,,730,2022-01-23_12h15.47.795,multiplicationStroop,2021.2.3,Win32,59.89458553,,,,,,,,,,,,,,,,,,,,,,,,,,,,,,,,,12,1.5378,1,0,31,31,5,1,3,×,4,3 × 4,incongruent,smallerFirst,2,1,12,,,,,,,,
,,,,,,,,,,,,,,,730,2022-01-23_12h15.47.795,multiplicationStroop,2021.2.3,Win32,59.89458553,,,,,,,,,,,,,,,,,,,,,,,,,,,,,,,,,54,5.272,1,0,32,32,6,1,6,×,9,6 × 9,incongruent,smallerFirst,2,1,54,,,,,,,,
,,,,,,,,,,,,,,,730,2022-01-23_12h15.47.795,multiplicationStroop,2021.2.3,Win32,59.89458553,,,,,,,,,,,,,,,,,,,,,,,,,,,,,,,,,21,1.5204,1,0,33,33,26,1,7,×,3,7 × 3,incongruent,largerFirst,1,2,21,,,,,,,,
,,,,,,,,,,,,,,,730,2022-01-23_12h15.47.795,multiplicationStroop,2021.2.3,Win32,59.89458553,,,,,,,,,,,,,,,,,,,,,,,,,,,,,,,,,18,2.0023,1,0,34,34,2,1,2,×,9,2 × 9,incongruent,smallerFirst,2,1,18,,,,,,,,
,,,,,,,,,,,,,,,730,2022-01-23_12h15.47.795,multiplicationStroop,2021.2.3,Win32,59.89458553,,,,,,,,,,,,,,,,,,,,,,,,,,,,,,,,,42,3.0349,1,0,35,35,17,1,7,×,6,7 × 6,incongruent,largerFirst,1,2,42,,,,,,,,
,,,,,,,,,,,,,,,730,2022-01-23_12h15.47.795,multiplicationStroop,2021.2.3,Win32,59.89458553,,,,,,,,,,,,,,,,,,,,,,,,,,,,,,,,,,,,,,,,,,,,,,,,,,0,0,0,5,1,stimulusFile/mult_blk6_INcongruent.xlsx,,
,,,,,,,,,,,,,,,730,2022-01-23_12h15.47.795,multiplicationStroop,2021.2.3,Win32,59.89458553,,,,,,,,,,,,,,,,,,,,,,,,,,,,,,,space,1.5562,18,2.0221,1,0,0,0,4,1,2,×,9,2 × 9,neutral,smallerFirst,1.5,1.5,18,,,,,,,,
,,,,,,,,,,,,,,,730,2022-01-23_12h15.47.795,multiplicationStroop,2021.2.3,Win32,59.89458553,,,,,,,,,,,,,,,,,,,,,,,,,,,,,,,,,15,1.8028,1,0,1,1,19,1,5,×,3,5 × 3,neutral,largerFirst,1.5,1.5,15,,,,,,,,
,,,,,,,,,,,,,,,730,2022-01-23_12h15.47.795,multiplicationStroop,2021.2.3,Win32,59.89458553,,,,,,,,,,,,,,,,,,,,,,,,,,,,,,,,,12,1.3336,1,0,2,2,7,1,3,×,4,3 × 4,neutral,smallerFirst,1.5,1.5,12,,,,,,,,
,,,,,,,,,,,,,,,730,2022-01-23_12h15.47.795,multiplicationStroop,2021.2.3,Win32,59.89458553,,,,,,,,,,,,,,,,,,,,,,,,,,,,,,,,,32,1.7018,1,0,3,3,9,1,4,×,8,4 × 8,neutral,smallerFirst,1.5,1.5,32,,,,,,,,
,,,,,,,,,,,,,,,730,2022-01-23_12h15.47.795,multiplicationStroop,2021.2.3,Win32,59.89458553,,,,,,,,,,,,,,,,,,,,,,,,,,,,,,,,,10,1.6347,1,0,4,4,18,1,5,×,2,5 × 2,neutral,largerFirst,1.5,1.5,10,,,,,,,,
,,,,,,,,,,,,,,,730,2022-01-23_12h15.47.795,multiplicationStroop,2021.2.3,Win32,59.89458553,,,,,,,,,,,,,,,,,,,,,,,,,,,,,,,,,16,1.701,1,0,5,5,27,1,8,×,2,8 × 2,neutral,largerFirst,1.5,1.5,16,,,,,,,,
,,,,,,,,,,,,,,,730,2022-01-23_12h15.47.795,multiplicationStroop,2021.2.3,Win32,59.89458553,,,,,,,,,,,,,,,,,,,,,,,,,,,,,,,,,48,1.9515,1,0,6,6,1,1,6,×,8,6 × 8,neutral,smallerFirst,1.5,1.5,48,,,,,,,,
,,,,,,,,,,,,,,,730,2022-01-23_12h15.47.795,multiplicationStroop,2021.2.3,Win32,59.89458553,,,,,,,,,,,,,,,,,,,,,,,,,,,,,,,,,4,1.8016,1,0,7,7,28,1,2,×,2,2 × 2,neutral,tie,1.5,1.5,4,,,,,,,,
,,,,,,,,,,,,,,,730,2022-01-23_12h15.47.795,multiplicationStroop,2021.2.3,Win32,59.89458553,,,,,,,,,,,,,,,,,,,,,,,,,,,,,,,,,6,1.9683,1,0,8,8,12,1,2,×,3,2 × 3,neutral,smallerFirst,1.5,1.5,6,,,,,,,,
,,,,,,,,,,,,,,,730,2022-01-23_12h15.47.795,multiplicationStroop,2021.2.3,Win32,59.89458553,,,,,,,,,,,,,,,,,,,,,,,,,,,,,,,,,9,1.534,1,0,9,9,29,1,3,×,3,3 × 3,neutral,tie,1.5,1.5,9,,,,,,,,
,,,,,,,,,,,,,,,730,2022-01-23_12h15.47.795,multiplicationStroop,2021.2.3,Win32,59.89458553,,,,,,,,,,,,,,,,,,,,,,,,,,,,,,,,,16,2.703,1,0,10,10,30,1,4,×,4,4 × 4,neutral,tie,1.5,1.5,16,,,,,,,,
,,,,,,,,,,,,,,,730,2022-01-23_12h15.47.795,multiplicationStroop,2021.2.3,Win32,59.89458553,,,,,,,,,,,,,,,,,,,,,,,,,,,,,,,,,32,7.2264,0,0,11,11,13,1,4,×,9,4 × 9,neutral,smallerFirst,1.5,1.5,36,,,,,,,,
,,,,,,,,,,,,,,,730,2022-01-23_12h15.47.795,multiplicationStroop,2021.2.3,Win32,59.89458553,,,,,,,,,,,,,,,,,,,,,,,,,,,,,,,,,49,2.1212,1,0,12,12,33,1,7,×,7,7 × 7,neutral,tie,1.5,1.5,49,,,,,,,,
,,,,,,,,,,,,,,,730,2022-01-23_12h15.47.795,multiplicationStroop,2021.2.3,Win32,59.89458553,,,,,,,,,,,,,,,,,,,,,,,,,,,,,,,,,14,1.6009,1,0,13,13,2,1,2,×,7,2 × 7,neutral,smallerFirst,1.5,1.5,14,,,,,,,,
,,,,,,,,,,,,,,,730,2022-01-23_12h15.47.795,multiplicationStroop,2021.2.3,Win32,59.89458553,,,,,,,,,,,,,,,,,,,,,,,,,,,,,,,,,81,2.7696,1,0,14,14,35,1,9,×,9,9 × 9,neutral,tie,1.5,1.5,81,,,,,,,,
,,,,,,,,,,,,,,,730,2022-01-23_12h15.47.795,multiplicationStroop,2021.2.3,Win32,59.89458553,,,,,,,,,,,,,,,,,,,,,,,,,,,,,,,,,18,2.2681,0,0,15,15,0,1,3,×,9,3 × 9,neutral,smallerFirst,1.5,1.5,27,,,,,,,,
,,,,,,,,,,,,,,,730,2022-01-23_12h15.47.795,multiplicationStroop,2021.2.3,Win32,59.89458553,,,,,,,,,,,,,,,,,,,,,,,,,,,,,,,,,45,1.8545,1,0,16,16,24,1,9,×,5,9 × 5,neutral,largerFirst,1.5,1.5,45,,,,,,,,
,,,,,,,,,,,,,,,730,2022-01-23_12h15.47.795,multiplicationStroop,2021.2.3,Win32,59.89458553,,,,,,,,,,,,,,,,,,,,,,,,,,,,,,,,,63,4.1369,1,0,17,17,26,1,9,×,7,9 × 7,neutral,largerFirst,1.5,1.5,63,,,,,,,,
,,,,,,,,,,,,,,,730,2022-01-23_12h15.47.795,multiplicationStroop,2021.2.3,Win32,59.89458553,,,,,,,,,,,,,,,,,,,,,,,,,,,,,,,,,42,4.0878,1,0,18,18,20,1,7,×,6,7 × 6,neutral,largerFirst,1.5,1.5,42,,,,,,,,
,,,,,,,,,,,,,,,730,2022-01-23_12h15.47.795,multiplicationStroop,2021.2.3,Win32,59.89458553,,,,,,,,,,,,,,,,,,,,,,,,,,,,,,,,,56,3.6232,1,0,19,19,23,1,8,×,7,8 × 7,neutral,largerFirst,1.5,1.5,56,,,,,,,,
,,,,,,,,,,,,,,,730,2022-01-23_12h15.47.795,multiplicationStroop,2021.2.3,Win32,59.89458553,,,,,,,,,,,,,,,,,,,,,,,,,,,,,,,,,54,4.538,1,0,20,20,21,1,9,×,6,9 × 6,neutral,largerFirst,1.5,1.5,54,,,,,,,,
,,,,,,,,,,,,,,,730,2022-01-23_12h15.47.795,multiplicationStroop,2021.2.3,Win32,59.89458553,,,,,,,,,,,,,,,,,,,,,,,,,,,,,,,,,40,2.1544,1,0,21,21,10,1,5,×,8,5 × 8,neutral,smallerFirst,1.5,1.5,40,,,,,,,,
,,,,,,,,,,,,,,,730,2022-01-23_12h15.47.795,multiplicationStroop,2021.2.3,Win32,59.89458553,,,,,,,,,,,,,,,,,,,,,,,,,,,,,,,,,30,2.4684,1,0,22,22,5,1,5,×,6,5 × 6,neutral,smallerFirst,1.5,1.5,30,,,,,,,,
,,,,,,,,,,,,,,,730,2022-01-23_12h15.47.795,multiplicationStroop,2021.2.3,Win32,59.89458553,,,,,,,,,,,,,,,,,,,,,,,,,,,,,,,,,18,2.0013,1,0,23,23,14,1,6,×,3,6 × 3,neutral,largerFirst,1.5,1.5,18,,,,,,,,
,,,,,,,,,,,,,,,730,2022-01-23_12h15.47.795,multiplicationStroop,2021.2.3,Win32,59.89458553,,,,,,,,,,,,,,,,,,,,,,,,,,,,,,,,,25,1.9854,1,0,24,24,31,1,5,×,5,5 × 5,neutral,tie,1.5,1.5,25,,,,,,,,
,,,,,,,,,,,,,,,730,2022-01-23_12h15.47.795,multiplicationStroop,2021.2.3,Win32,59.89458553,,,,,,,,,,,,,,,,,,,,,,,,,,,,,,,,,24,3.069,1,0,25,25,16,1,6,×,4,6 × 4,neutral,largerFirst,1.5,1.5,24,,,,,,,,
,,,,,,,,,,,,,,,730,2022-01-23_12h15.47.795,multiplicationStroop,2021.2.3,Win32,59.89458553,,,,,,,,,,,,,,,,,,,,,,,,,,,,,,,,,21,1.5373,1,0,26,26,22,1,7,×,3,7 × 3,neutral,largerFirst,1.5,1.5,21,,,,,,,,
,,,,,,,,,,,,,,,730,2022-01-23_12h15.47.795,multiplicationStroop,2021.2.3,Win32,59.89458553,,,,,,,,,,,,,,,,,,,,,,,,,,,,,,,,,8,1.6848,1,0,27,27,17,1,4,×,2,4 × 2,neutral,largerFirst,1.5,1.5,8,,,,,,,,
,,,,,,,,,,,,,,,730,2022-01-23_12h15.47.795,multiplicationStroop,2021.2.3,Win32,59.89458553,,,,,,,,,,,,,,,,,,,,,,,,,,,,,,,,,24,2.5861,1,0,28,28,8,1,3,×,8,3 × 8,neutral,smallerFirst,1.5,1.5,24,,,,,,,,
,,,,,,,,,,,,,,,730,2022-01-23_12h15.47.795,multiplicationStroop,2021.2.3,Win32,59.89458553,,,,,,,,,,,,,,,,,,,,,,,,,,,,,,,,,72,2.7855,1,0,29,29,25,1,9,×,8,9 × 8,neutral,largerFirst,1.5,1.5,72,,,,,,,,
,,,,,,,,,,,,,,,730,2022-01-23_12h15.47.795,multiplicationStroop,2021.2.3,Win32,59.89458553,,,,,,,,,,,,,,,,,,,,,,,,,,,,,,,,,36,1.8387,1,0,30,30,32,1,6,×,6,6 × 6,neutral,tie,1.5,1.5,36,,,,,,,,
,,,,,,,,,,,,,,,730,2022-01-23_12h15.47.795,multiplicationStroop,2021.2.3,Win32,59.89458553,,,,,,,,,,,,,,,,,,,,,,,,,,,,,,,,,21,2.3187,0,0,31,31,3,1,4,×,7,4 × 7,neutral,smallerFirst,1.5,1.5,28,,,,,,,,
,,,,,,,,,,,,,,,730,2022-01-23_12h15.47.795,multiplicationStroop,2021.2.3,Win32,59.89458553,,,,,,,,,,,,,,,,,,,,,,,,,,,,,,,,,20,1.9012,1,0,32,32,6,1,4,×,5,4 × 5,neutral,smallerFirst,1.5,1.5,20,,,,,,,,
,,,,,,,,,,,,,,,730,2022-01-23_12h15.47.795,multiplicationStroop,2021.2.3,Win32,59.89458553,,,,,,,,,,,,,,,,,,,,,,,,,,,,,,,,,12,2.6025,1,0,33,33,11,1,2,×,6,2 × 6,neutral,smallerFirst,1.5,1.5,12,,,,,,,,
,,,,,,,,,,,,,,,730,2022-01-23_12h15.47.795,multiplicationStroop,2021.2.3,Win32,59.89458553,,,,,,,,,,,,,,,,,,,,,,,,,,,,,,,,,64,1.7678,1,0,34,34,34,1,8,×,8,8 × 8,neutral,tie,1.5,1.5,64,,,,,,,,
,,,,,,,,,,,,,,,730,2022-01-23_12h15.47.795,multiplicationStroop,2021.2.3,Win32,59.89458553,,,,,,,,,,,,,,,,,,,,,,,,,,,,,,,,,35,1.7346,1,0,35,35,15,1,7,×,5,7 × 5,neutral,largerFirst,1.5,1.5,35,,,,,,,,
,,,,,,,,,,,,,,,730,2022-01-23_12h15.47.795,multiplicationStroop,2021.2.3,Win32,59.89458553,,,,,,,,,,,,,,,,,,,,,,,,,,,,,,,,,,,,,,,,,,,,,,,,,,0,1,1,0,1,stimulusFile/mult_blk1.xlsx,,
,,,,,,,,,,,,,,,730,2022-01-23_12h15.47.795,multiplicationStroop,2021.2.3,Win32,59.89458553,,,,,,,,,,,,,,,,,,,,,,,,,,,,,,,space,12.317,20,1.9617,1,0,0,0,13,1,4,×,5,4 × 5,incongruent,smallerFirst,2,1,20,,,,,,,,
,,,,,,,,,,,,,,,730,2022-01-23_12h15.47.795,multiplicationStroop,2021.2.3,Win32,59.89458553,,,,,,,,,,,,,,,,,,,,,,,,,,,,,,,,,35,1.7351,1,0,1,1,26,1,7,×,5,7 × 5,incongruent,largerFirst,1,2,35,,,,,,,,
,,,,,,,,,,,,,,,730,2022-01-23_12h15.47.795,multiplicationStroop,2021.2.3,Win32,59.89458553,,,,,,,,,,,,,,,,,,,,,,,,,,,,,,,,,18,2.3854,1,0,2,2,16,1,9,×,2,9 × 2,incongruent,largerFirst,1,2,18,,,,,,,,
,,,,,,,,,,,,,,,730,2022-01-23_12h15.47.795,multiplicationStroop,2021.2.3,Win32,59.89458553,,,,,,,,,,,,,,,,,,,,,,,,,,,,,,,,,48,2.3219,1,0,3,3,15,1,8,×,6,8 × 6,incongruent,largerFirst,1,2,48,,,,,,,,
,,,,,,,,,,,,,,,730,2022-01-23_12h15.47.795,multiplicationStroop,2021.2.3,Win32,59.89458553,,,,,,,,,,,,,,,,,,,,,,,,,,,,,,,,,72,4.421,1,0,4,4,14,1,9,×,8,9 × 8,incongruent,largerFirst,1,2,72,,,,,,,,
,,,,,,,,,,,,,,,730,2022-01-23_12h15.47.795,multiplicationStroop,2021.2.3,Win32,59.89458553,,,,,,,,,,,,,,,,,,,,,,,,,,,,,,,,,12,2.7368,1,0,5,5,19,1,4,×,3,4 × 3,incongruent,largerFirst,1,2,12,,,,,,,,
,,,,,,,,,,,,,,,730,2022-01-23_12h15.47.795,multiplicationStroop,2021.2.3,Win32,59.89458553,,,,,,,,,,,,,,,,,,,,,,,,,,,,,,,,,12,1.6678,1,0,6,6,5,1,2,×,6,2 × 6,incongruent,smallerFirst,2,1,12,,,,,,,,
,,,,,,,,,,,,,,,730,2022-01-23_12h15.47.795,multiplicationStroop,2021.2.3,Win32,59.89458553,,,,,,,,,,,,,,,,,,,,,,,,,,,,,,,,,42,7.5408,1,0,7,7,3,1,6,×,7,6 × 7,incongruent,smallerFirst,2,1,42,,,,,,,,
,,,,,,,,,,,,,,,730,2022-01-23_12h15.47.795,multiplicationStroop,2021.2.3,Win32,59.89458553,,,,,,,,,,,,,,,,,,,,,,,,,,,,,,,,,16,2.3708,1,0,8,8,30,1,4,×,4,4 × 4,neutral,tie,2,1,16,,,,,,,,
,,,,,,,,,,,,,,,730,2022-01-23_12h15.47.795,multiplicationStroop,2021.2.3,Win32,59.89458553,,,,,,,,,,,,,,,,,,,,,,,,,,,,,,,,,8,1.8178,1,0,9,9,10,1,2,×,4,2 × 4,incongruent,smallerFirst,2,1,8,,,,,,,,
,,,,,,,,,,,,,,,730,2022-01-23_12h15.47.795,multiplicationStroop,2021.2.3,Win32,59.89458553,,,,,,,,,,,,,,,,,,,,,,,,,,,,,,,,,81,2.3527,1,0,10,10,35,1,9,×,9,9 × 9,neutral,tie,2,1,81,,,,,,,,
,,,,,,,,,,,,,,,730,2022-01-23_12h15.47.795,multiplicationStroop,2021.2.3,Win32,59.89458553,,,,,,,,,,,,,,,,,,,,,,,,,,,,,,,,,16,3.5859,1,0,11,11,9,1,2,×,8,2 × 8,incongruent,smallerFirst,2,1,16,,,,,,,,
,,,,,,,,,,,,,,,730,2022-01-23_12h15.47.795,multiplicationStroop,2021.2.3,Win32,59.89458553,,,,,,,,,,,,,,,,,,,,,,,,,,,,,,,,,15,1.952,1,0,12,12,24,1,5,×,3,5 × 3,incongruent,largerFirst,1,2,15,,,,,,,,
,,,,,,,,,,,,,,,730,2022-01-23_12h15.47.795,multiplicationStroop,2021.2.3,Win32,59.89458553,,,,,,,,,,,,,,,,,,,,,,,,,,,,,,,,,14,1.7013,1,0,13,13,18,1,7,×,2,7 × 2,incongruent,largerFirst,1,2,14,,,,,,,,
,,,,,,,,,,,,,,,730,2022-01-23_12h15.47.795,multiplicationStroop,2021.2.3,Win32,59.89458553,,,,,,,,,,,,,,,,,,,,,,,,,,,,,,,,,63,2.5024,1,0,14,14,17,1,9,×,7,9 × 7,incongruent,largerFirst,1,2,63,,,,,,,,
,,,,,,,,,,,,,,,730,2022-01-23_12h15.47.795,multiplicationStroop,2021.2.3,Win32,59.89458553,,,,,,,,,,,,,,,,,,,,,,,,,,,,,,,,,36,1.7348,1,0,15,15,32,1,6,×,6,6 × 6,neutral,tie,2,1,36,,,,,,,,
,,,,,,,,,,,,,,,730,2022-01-23_12h15.47.795,multiplicationStroop,2021.2.3,Win32,59.89458553,,,,,,,,,,,,,,,,,,,,,,,,,,,,,,,,,24,1.9354,1,0,16,16,23,1,8,×,3,8 × 3,incongruent,largerFirst,1,2,24,,,,,,,,
,,,,,,,,,,,,,,,730,2022-01-23_12h15.47.795,multiplicationStroop,2021.2.3,Win32,59.89458553,,,,,,,,,,,,,,,,,,,,,,,,,,,,,,,,,21,1.5339,1,0,17,17,12,1,3,×,7,3 × 7,incongruent,smallerFirst,2,1,21,,,,,,,,
,,,,,,,,,,,,,,,730,2022-01-23_12h15.47.795,multiplicationStroop,2021.2.3,Win32,59.89458553,,,,,,,,,,,,,,,,,,,,,,,,,,,,,,,,,28,2.1853,1,0,18,18,2,1,4,×,7,4 × 7,incongruent,smallerFirst,2,1,28,,,,,,,,
,,,,,,,,,,,,,,,730,2022-01-23_12h15.47.795,multiplicationStroop,2021.2.3,Win32,59.89458553,,,,,,,,,,,,,,,,,,,,,,,,,,,,,,,,,6,2.1686,1,0,19,19,25,1,3,×,2,3 × 2,incongruent,largerFirst,1,2,6,,,,,,,,
,,,,,,,,,,,,,,,730,2022-01-23_12h15.47.795,multiplicationStroop,2021.2.3,Win32,59.89458553,,,,,,,,,,,,,,,,,,,,,,,,,,,,,,,,,18,1.8348,1,0,20,20,22,1,6,×,3,6 × 3,incongruent,largerFirst,1,2,18,,,,,,,,
,,,,,,,,,,,,,,,730,2022-01-23_12h15.47.795,multiplicationStroop,2021.2.3,Win32,59.89458553,,,,,,,,,,,,,,,,,,,,,,,,,,,,,,,,,56,2.0853,1,0,21,21,0,1,7,×,8,7 × 8,incongruent,smallerFirst,2,1,56,,,,,,,,
,,,,,,,,,,,,,,,730,2022-01-23_12h15.47.795,multiplicationStroop,2021.2.3,Win32,59.89458553,,,,,,,,,,,,,,,,,,,,,,,,,,,,,,,,,49,1.8517,1,0,22,22,33,1,7,×,7,7 × 7,neutral,tie,2,1,49,,,,,,,,
,,,,,,,,,,,,,,,730,2022-01-23_12h15.47.795,multiplicationStroop,2021.2.3,Win32,59.89458553,,,,,,,,,,,,,,,,,,,,,,,,,,,,,,,,,32,2.2184,1,0,23,23,21,1,8,×,4,8 × 4,incongruent,largerFirst,1,2,32,,,,,,,,
,,,,,,,,,,,,,,,730,2022-01-23_12h15.47.795,multiplicationStroop,2021.2.3,Win32,59.89458553,,,,,,,,,,,,,,,,,,,,,,,,,,,,,,,,,4,2.2007,1,0,24,24,28,1,2,×,2,2 × 2,neutral,tie,2,1,4,,,,,,,,
,,,,,,,,,,,,,,,730,2022-01-23_12h15.47.795,multiplicationStroop,2021.2.3,Win32,59.89458553,,,,,,,,,,,,,,,,,,,,,,,,,,,,,,,,,9,1.6685,1,0,25,25,29,1,3,×,3,3 × 3,neutral,tie,2,1,9,,,,,,,,
,,,,,,,,,,,,,,,730,2022-01-23_12h15.47.795,multiplicationStroop,2021.2.3,Win32,59.89458553,,,,,,,,,,,,,,,,,,,,,,,,,,,,,,,,,25,1.7841,1,0,26,26,31,1,5,×,5,5 × 5,neutral,tie,2,1,25,,,,,,,,
,,,,,,,,,,,,,,,730,2022-01-23_12h15.47.795,multiplicationStroop,2021.2.3,Win32,59.89458553,,,,,,,,,,,,,,,,,,,,,,,,,,,,,,,,,30,1.8512,1,0,27,27,11,1,5,×,6,5 × 6,incongruent,smallerFirst,2,1,30,,,,,,,,
,,,,,,,,,,,,,,,730,2022-01-23_12h15.47.795,multiplicationStroop,2021.2.3,Win32,59.89458553,,,,,,,,,,,,,,,,,,,,,,,,,,,,,,,,,36,7.8081,1,0,28,28,1,1,4,×,9,4 × 9,incongruent,smallerFirst,2,1,36,,,,,,,,
,,,,,,,,,,,,,,,730,2022-01-23_12h15.47.795,multiplicationStroop,2021.2.3,Win32,59.89458553,,,,,,,,,,,,,,,,,,,,,,,,,,,,,,,,,27,2.6038,1,0,29,29,4,1,3,×,9,3 × 9,incongruent,smallerFirst,2,1,27,,,,,,,,
,,,,,,,,,,,,,,,730,2022-01-23_12h15.47.795,multiplicationStroop,2021.2.3,Win32,59.89458553,,,,,,,,,,,,,,,,,,,,,,,,,,,,,,,,,10,1.6871,1,0,30,30,7,1,2,×,5,2 × 5,incongruent,smallerFirst,2,1,10,,,,,,,,
,,,,,,,,,,,,,,,730,2022-01-23_12h15.47.795,multiplicationStroop,2021.2.3,Win32,59.89458553,,,,,,,,,,,,,,,,,,,,,,,,,,,,,,,,,5,2.4026,0,0,31,31,20,1,9,×,6,9 × 6,incongruent,largerFirst,1,2,54,,,,,,,,
,,,,,,,,,,,,,,,730,2022-01-23_12h15.47.795,multiplicationStroop,2021.2.3,Win32,59.89458553,,,,,,,,,,,,,,,,,,,,,,,,,,,,,,,,,40,3.7201,1,0,32,32,27,1,8,×,5,8 × 5,incongruent,largerFirst,1,2,40,,,,,,,,
,,,,,,,,,,,,,,,730,2022-01-23_12h15.47.795,multiplicationStroop,2021.2.3,Win32,59.89458553,,,,,,,,,,,,,,,,,,,,,,,,,,,,,,,,,64,3.8061,1,0,33,33,34,1,8,×,8,8 × 8,neutral,tie,2,1,64,,,,,,,,
,,,,,,,,,,,,,,,730,2022-01-23_12h15.47.795,multiplicationStroop,2021.2.3,Win32,59.89458553,,,,,,,,,,,,,,,,,,,,,,,,,,,,,,,,,45,1.8544,1,0,34,34,8,1,5,×,9,5 × 9,incongruent,smallerFirst,2,1,45,,,,,,,,
,,,,,,,,,,,,,,,730,2022-01-23_12h15.47.795,multiplicationStroop,2021.2.3,Win32,59.89458553,,,,,,,,,,,,,,,,,,,,,,,,,,,,,,,,,24,2.869,1,0,35,35,6,1,4,×,6,4 × 6,incongruent,smallerFirst,2,1,24,,,,,,,,
,,,,,,,,,,,,,,,730,2022-01-23_12h15.47.795,multiplicationStroop,2021.2.3,Win32,59.89458553,,,,,,,,,,,,,,,,,,,,,,,,,,,,,,,,,,,,,,,,,,,,,,,,,,0,2,2,4,1,stimulusFile/mult_blk5_INcongruent.xlsx,,
,,,,,,,,,,,,,,,730,2022-01-23_12h15.47.795,multiplicationStroop,2021.2.3,Win32,59.89458553,,,,,,,,,,,,,,,,,,,,,,,,,,,,,,,space,1.6085,15,1.6799,1,0,0,0,18,1,5,×,3,5 × 3,congruent,largerFirst,2,1,15,,,,,,,,
,,,,,,,,,,,,,,,730,2022-01-23_12h15.47.795,multiplicationStroop,2021.2.3,Win32,59.89458553,,,,,,,,,,,,,,,,,,,,,,,,,,,,,,,,,24,1.9018,1,0,1,1,24,1,8,×,3,8 × 3,congruent,largerFirst,2,1,24,,,,,,,,
,,,,,,,,,,,,,,,730,2022-01-23_12h15.47.795,multiplicationStroop,2021.2.3,Win32,59.89458553,,,,,,,,,,,,,,,,,,,,,,,,,,,,,,,,,12,1.6512,1,0,2,2,16,1,4,×,3,4 × 3,congruent,largerFirst,2,1,12,,,,,,,,
,,,,,,,,,,,,,,,730,2022-01-23_12h15.47.795,multiplicationStroop,2021.2.3,Win32,59.89458553,,,,,,,,,,,,,,,,,,,,,,,,,,,,,,,,,72,3.3362,1,0,3,3,3,1,8,×,9,8 × 9,congruent,smallerFirst,1,2,72,,,,,,,,
,,,,,,,,,,,,,,,730,2022-01-23_12h15.47.795,multiplicationStroop,2021.2.3,Win32,59.89458553,,,,,,,,,,,,,,,,,,,,,,,,,,,,,,,,,36,1.7879,1,0,4,4,32,1,6,×,6,6 × 6,neutral,tie,1,2,36,,,,,,,,
,,,,,,,,,,,,,,,730,2022-01-23_12h15.47.795,multiplicationStroop,2021.2.3,Win32,59.89458553,,,,,,,,,,,,,,,,,,,,,,,,,,,,,,,,,56,5.5059,0,0,5,5,7,1,7,×,9,7 × 9,congruent,smallerFirst,1,2,63,,,,,,,,
,,,,,,,,,,,,,,,730,2022-01-23_12h15.47.795,multiplicationStroop,2021.2.3,Win32,59.89458553,,,,,,,,,,,,,,,,,,,,,,,,,,,,,,,,,54,5.7253,1,0,6,6,26,1,9,×,6,9 × 6,congruent,largerFirst,2,1,54,,,,,,,,
,,,,,,,,,,,,,,,730,2022-01-23_12h15.47.795,multiplicationStroop,2021.2.3,Win32,59.89458553,,,,,,,,,,,,,,,,,,,,,,,,,,,,,,,,,56,4.9909,1,0,7,7,22,1,8,×,7,8 × 7,congruent,largerFirst,2,1,56,,,,,,,,
,,,,,,,,,,,,,,,730,2022-01-23_12h15.47.795,multiplicationStroop,2021.2.3,Win32,59.89458553,,,,,,,,,,,,,,,,,,,,,,,,,,,,,,,,,40,2.0376,1,0,8,8,20,1,8,×,5,8 × 5,congruent,largerFirst,2,1,40,,,,,,,,
,,,,,,,,,,,,,,,730,2022-01-23_12h15.47.795,multiplicationStroop,2021.2.3,Win32,59.89458553,,,,,,,,,,,,,,,,,,,,,,,,,,,,,,,,,14,1.601,1,0,9,9,0,1,2,×,7,2 × 7,congruent,smallerFirst,1,2,14,,,,,,,,
,,,,,,,,,,,,,,,730,2022-01-23_12h15.47.795,multiplicationStroop,2021.2.3,Win32,59.89458553,,,,,,,,,,,,,,,,,,,,,,,,,,,,,,,,,12,2.1346,1,0,10,10,5,1,2,×,6,2 × 6,congruent,smallerFirst,1,2,12,,,,,,,,
,,,,,,,,,,,,,,,730,2022-01-23_12h15.47.795,multiplicationStroop,2021.2.3,Win32,59.89458553,,,,,,,,,,,,,,,,,,,,,,,,,,,,,,,,,16,1.968,1,0,11,11,30,1,4,×,4,4 × 4,neutral,tie,1,2,16,,,,,,,,
,,,,,,,,,,,,,,,730,2022-01-23_12h15.47.795,multiplicationStroop,2021.2.3,Win32,59.89458553,,,,,,,,,,,,,,,,,,,,,,,,,,,,,,,,,32,1.6349,1,0,12,12,6,1,4,×,8,4 × 8,congruent,smallerFirst,1,2,32,,,,,,,,
,,,,,,,,,,,,,,,730,2022-01-23_12h15.47.795,multiplicationStroop,2021.2.3,Win32,59.89458553,,,,,,,,,,,,,,,,,,,,,,,,,,,,,,,,,18,1.9186,1,0,13,13,25,1,6,×,3,6 × 3,congruent,largerFirst,2,1,18,,,,,,,,
,,,,,,,,,,,,,,,730,2022-01-23_12h15.47.795,multiplicationStroop,2021.2.3,Win32,59.89458553,,,,,,,,,,,,,,,,,,,,,,,,,,,,,,,,,64,1.7512,1,0,14,14,34,1,8,×,8,8 × 8,neutral,tie,1,2,64,,,,,,,,
,,,,,,,,,,,,,,,730,2022-01-23_12h15.47.795,multiplicationStroop,2021.2.3,Win32,59.89458553,,,,,,,,,,,,,,,,,,,,,,,,,,,,,,,,,20,1.7351,1,0,15,15,21,1,5,×,4,5 × 4,congruent,largerFirst,2,1,20,,,,,,,,
,,,,,,,,,,,,,,,730,2022-01-23_12h15.47.795,multiplicationStroop,2021.2.3,Win32,59.89458553,,,,,,,,,,,,,,,,,,,,,,,,,,,,,,,,,30,1.8341,1,0,16,16,1,1,5,×,6,5 × 6,congruent,smallerFirst,1,2,30,,,,,,,,
,,,,,,,,,,,,,,,730,2022-01-23_12h15.47.795,multiplicationStroop,2021.2.3,Win32,59.89458553,,,,,,,,,,,,,,,,,,,,,,,,,,,,,,,,,21,1.4682,1,0,17,17,2,1,3,×,7,3 × 7,congruent,smallerFirst,1,2,21,,,,,,,,
,,,,,,,,,,,,,,,730,2022-01-23_12h15.47.795,multiplicationStroop,2021.2.3,Win32,59.89458553,,,,,,,,,,,,,,,,,,,,,,,,,,,,,,,,,4,1.7672,1,0,18,18,28,1,2,×,2,2 × 2,neutral,tie,1,2,4,,,,,,,,
,,,,,,,,,,,,,,,730,2022-01-23_12h15.47.795,multiplicationStroop,2021.2.3,Win32,59.89458553,,,,,,,,,,,,,,,,,,,,,,,,,,,,,,,,,42,4.0373,1,0,19,19,17,1,7,×,6,7 × 6,congruent,largerFirst,2,1,42,,,,,,,,
,,,,,,,,,,,,,,,730,2022-01-23_12h15.47.795,multiplicationStroop,2021.2.3,Win32,59.89458553,,,,,,,,,,,,,,,,,,,,,,,,,,,,,,,,,48,2.2385,1,0,20,20,4,1,6,×,8,6 × 8,congruent,smallerFirst,1,2,48,,,,,,,,
,,,,,,,,,,,,,,,730,2022-01-23_12h15.47.795,multiplicationStroop,2021.2.3,Win32,59.89458553,,,,,,,,,,,,,,,,,,,,,,,,,,,,,,,,,28,5.1552,1,0,21,21,13,1,4,×,7,4 × 7,congruent,smallerFirst,1,2,28,,,,,,,,
,,,,,,,,,,,,,,,730,2022-01-23_12h15.47.795,multiplicationStroop,2021.2.3,Win32,59.89458553,,,,,,,,,,,,,,,,,,,,,,,,,,,,,,,,,35,1.5529,1,0,22,22,15,1,7,×,5,7 × 5,congruent,largerFirst,2,1,35,,,,,,,,
,,,,,,,,,,,,,,,730,2022-01-23_12h15.47.795,multiplicationStroop,2021.2.3,Win32,59.89458553,,,,,,,,,,,,,,,,,,,,,,,,,,,,,,,,,18,1.7678,1,0,23,23,8,1,2,×,9,2 × 9,congruent,smallerFirst,1,2,18,,,,,,,,
,,,,,,,,,,,,,,,730,2022-01-23_12h15.47.795,multiplicationStroop,2021.2.3,Win32,59.89458553,,,,,,,,,,,,,,,,,,,,,,,,,,,,,,,,,24,1.6679,1,0,24,24,11,1,4,×,6,4 × 6,congruent,smallerFirst,1,2,24,,,,,,,,
,,,,,,,,,,,,,,,730,2022-01-23_12h15.47.795,multiplicationStroop,2021.2.3,Win32,59.89458553,,,,,,,,,,,,,,,,,,,,,,,,,,,,,,,,,8,1.8175,1,0,25,25,23,1,4,×,2,4 × 2,congruent,largerFirst,2,1,8,,,,,,,,
,,,,,,,,,,,,,,,730,2022-01-23_12h15.47.795,multiplicationStroop,2021.2.3,Win32,59.89458553,,,,,,,,,,,,,,,,,,,,,,,,,,,,,,,,,81,2.2856,1,0,26,26,35,1,9,×,9,9 × 9,neutral,tie,1,2,81,,,,,,,,
,,,,,,,,,,,,,,,730,2022-01-23_12h15.47.795,multiplicationStroop,2021.2.3,Win32,59.89458553,,,,,,,,,,,,,,,,,,,,,,,,,,,,,,,,,32,2.3023,0,0,27,27,14,1,9,×,4,9 × 4,congruent,largerFirst,2,1,36,,,,,,,,
,,,,,,,,,,,,,,,730,2022-01-23_12h15.47.795,multiplicationStroop,2021.2.3,Win32,59.89458553,,,,,,,,,,,,,,,,,,,,,,,,,,,,,,,,,25,1.8015,1,0,28,28,31,1,5,×,5,5 × 5,neutral,tie,1,2,25,,,,,,,,
,,,,,,,,,,,,,,,730,2022-01-23_12h15.47.795,multiplicationStroop,2021.2.3,Win32,59.89458553,,,,,,,,,,,,,,,,,,,,,,,,,,,,,,,,,10,1.7845,1,0,29,29,10,1,2,×,5,2 × 5,congruent,smallerFirst,1,2,10,,,,,,,,
,,,,,,,,,,,,,,,730,2022-01-23_12h15.47.795,multiplicationStroop,2021.2.3,Win32,59.89458553,,,,,,,,,,,,,,,,,,,,,,,,,,,,,,,,,12,1.6177,0,0,30,30,27,1,3,×,2,3 × 2,congruent,largerFirst,2,1,6,,,,,,,,
,,,,,,,,,,,,,,,730,2022-01-23_12h15.47.795,multiplicationStroop,2021.2.3,Win32,59.89458553,,,,,,,,,,,,,,,,,,,,,,,,,,,,,,,,,45,3.5703,1,0,31,31,9,1,5,×,9,5 × 9,congruent,smallerFirst,1,2,45,,,,,,,,
,,,,,,,,,,,,,,,730,2022-01-23_12h15.47.795,multiplicationStroop,2021.2.3,Win32,59.89458553,,,,,,,,,,,,,,,,,,,,,,,,,,,,,,,,,49,2.2359,1,0,32,32,33,1,7,×,7,7 × 7,neutral,tie,1,2,49,,,,,,,,
,,,,,,,,,,,,,,,730,2022-01-23_12h15.47.795,multiplicationStroop,2021.2.3,Win32,59.89458553,,,,,,,,,,,,,,,,,,,,,,,,,,,,,,,,,16,3.0192,1,0,33,33,19,1,8,×,2,8 × 2,congruent,largerFirst,2,1,16,,,,,,,,
,,,,,,,,,,,,,,,730,2022-01-23_12h15.47.795,multiplicationStroop,2021.2.3,Win32,59.89458553,,,,,,,,,,,,,,,,,,,,,,,,,,,,,,,,,27,4.0705,1,0,34,34,12,1,3,×,9,3 × 9,congruent,smallerFirst,1,2,27,,,,,,,,
,,,,,,,,,,,,,,,730,2022-01-23_12h15.47.795,multiplicationStroop,2021.2.3,Win32,59.89458553,,,,,,,,,,,,,,,,,,,,,,,,,,,,,,,,,9,2.7718,1,0,35,35,29,1,3,×,3,3 × 3,neutral,tie,1,2,9,,,,,,,,
,,,,,,,,,,,,,,,730,2022-01-23_12h15.47.795,multiplicationStroop,2021.2.3,Win32,59.89458553,,,,,,,,,,,,,,,,,,,,,,,,,,,,,,,,,,,,,,,,,,,,,,,,,,0,3,3,3,1,stimulusFile/mult_blk4_congruent.xlsx,,
,,,,,,,,,,,,,,,730,2022-01-23_12h15.47.795,multiplicationStroop,2021.2.3,Win32,59.89458553,,,,,,,,,,,,,,,,,,,,,,,,,,,,,,,space,2.4634,30,1.7502,1,0,0,0,19,1,6,×,5,6 × 5,neutral,largerFirst,1.5,1.5,30,,,,,,,,
,,,,,,,,,,,,,,,730,2022-01-23_12h15.47.795,multiplicationStroop,2021.2.3,Win32,59.89458553,,,,,,,,,,,,,,,,,,,,,,,,,,,,,,,,,24,2.1185,1,0,1,1,22,1,8,×,3,8 × 3,neutral,largerFirst,1.5,1.5,24,,,,,,,,
,,,,,,,,,,,,,,,730,2022-01-23_12h15.47.795,multiplicationStroop,2021.2.3,Win32,59.89458553,,,,,,,,,,,,,,,,,,,,,,,,,,,,,,,,,10,1.6847,1,0,2,2,4,1,2,×,5,2 × 5,neutral,smallerFirst,1.5,1.5,10,,,,,,,,
,,,,,,,,,,,,,,,730,2022-01-23_12h15.47.795,multiplicationStroop,2021.2.3,Win32,59.89458553,,,,,,,,,,,,,,,,,,,,,,,,,,,,,,,,,20,1.8182,1,0,3,3,20,1,5,×,4,5 × 4,neutral,largerFirst,1.5,1.5,20,,,,,,,,
,,,,,,,,,,,,,,,730,2022-01-23_12h15.47.795,multiplicationStroop,2021.2.3,Win32,59.89458553,,,,,,,,,,,,,,,,,,,,,,,,,,,,,,,,,18,1.8673,1,0,4,4,0,1,3,×,6,3 × 6,neutral,smallerFirst,1.5,1.5,18,,,,,,,,
,,,,,,,,,,,,,,,730,2022-01-23_12h15.47.795,multiplicationStroop,2021.2.3,Win32,59.89458553,,,,,,,,,,,,,,,,,,,,,,,,,,,,,,,,,4,1.4343,1,0,5,5,28,1,2,×,2,2 × 2,neutral,tie,1.5,1.5,4,,,,,,,,
,,,,,,,,,,,,,,,730,2022-01-23_12h15.47.795,multiplicationStroop,2021.2.3,Win32,59.89458553,,,,,,,,,,,,,,,,,,,,,,,,,,,,,,,,,8,1.6012,1,0,6,6,3,1,2,×,4,2 × 4,neutral,smallerFirst,1.5,1.5,8,,,,,,,,
,,,,,,,,,,,,,,,730,2022-01-23_12h15.47.795,multiplicationStroop,2021.2.3,Win32,59.89458553,,,,,,,,,,,,,,,,,,,,,,,,,,,,,,,,,32,7.1235,0,0,7,7,27,1,9,×,4,9 × 4,neutral,largerFirst,1.5,1.5,36,,,,,,,,
,,,,,,,,,,,,,,,730,2022-01-23_12h15.47.795,multiplicationStroop,2021.2.3,Win32,59.89458553,,,,,,,,,,,,,,,,,,,,,,,,,,,,,,,,,16,1.9374,1,0,8,8,30,1,4,×,4,4 × 4,neutral,tie,1.5,1.5,16,,,,,,,,
,,,,,,,,,,,,,,,730,2022-01-23_12h15.47.795,multiplicationStroop,2021.2.3,Win32,59.89458553,,,,,,,,,,,,,,,,,,,,,,,,,,,,,,,,,72,3.2026,1,0,9,9,11,1,8,×,9,8 × 9,neutral,smallerFirst,1.5,1.5,72,,,,,,,,
,,,,,,,,,,,,,,,730,2022-01-23_12h15.47.795,multiplicationStroop,2021.2.3,Win32,59.89458553,,,,,,,,,,,,,,,,,,,,,,,,,,,,,,,,,15,3.1034,1,0,10,10,5,1,3,×,5,3 × 5,neutral,smallerFirst,1.5,1.5,15,,,,,,,,
,,,,,,,,,,,,,,,730,2022-01-23_12h15.47.795,multiplicationStroop,2021.2.3,Win32,59.89458553,,,,,,,,,,,,,,,,,,,,,,,,,,,,,,,,,63,4.5224,1,0,11,11,12,1,7,×,9,7 × 9,neutral,smallerFirst,1.5,1.5,63,,,,,,,,
,,,,,,,,,,,,,,,730,2022-01-23_12h15.47.795,multiplicationStroop,2021.2.3,Win32,59.89458553,,,,,,,,,,,,,,,,,,,,,,,,,,,,,,,,,45,1.9544,1,0,12,12,10,1,5,×,9,5 × 9,neutral,smallerFirst,1.5,1.5,45,,,,,,,,
,,,,,,,,,,,,,,,730,2022-01-23_12h15.47.795,multiplicationStroop,2021.2.3,Win32,59.89458553,,,,,,,,,,,,,,,,,,,,,,,,,,,,,,,,,6,2.1018,1,0,13,13,26,1,3,×,2,3 × 2,neutral,largerFirst,1.5,1.5,6,,,,,,,,
,,,,,,,,,,,,,,,730,2022-01-23_12h15.47.795,multiplicationStroop,2021.2.3,Win32,59.89458553,,,,,,,,,,,,,,,,,,,,,,,,,,,,,,,,,28,1.9351,1,0,14,14,17,1,7,×,4,7 × 4,neutral,largerFirst,1.5,1.5,28,,,,,,,,
,,,,,,,,,,,,,,,730,2022-01-23_12h15.47.795,multiplicationStroop,2021.2.3,Win32,59.89458553,,,,,,,,,,,,,,,,,,,,,,,,,,,,,,,,,35,2.2514,1,0,15,15,1,1,5,×,7,5 × 7,neutral,smallerFirst,1.5,1.5,35,,,,,,,,
,,,,,,,,,,,,,,,730,2022-01-23_12h15.47.795,multiplicationStroop,2021.2.3,Win32,59.89458553,,,,,,,,,,,,,,,,,,,,,,,,,,,,,,,,,18,2.9032,1,0,16,16,18,1,9,×,2,9 × 2,neutral,largerFirst,1.5,1.5,18,,,,,,,,
,,,,,,,,,,,,,,,730,2022-01-23_12h15.47.795,multiplicationStroop,2021.2.3,Win32,59.89458553,,,,,,,,,,,,,,,,,,,,,,,,,,,,,,,,,64,1.7521,1,0,17,17,34,1,8,×,8,8 × 8,neutral,tie,1.5,1.5,64,,,,,,,,
,,,,,,,,,,,,,,,730,2022-01-23_12h15.47.795,multiplicationStroop,2021.2.3,Win32,59.89458553,,,,,,,,,,,,,,,,,,,,,,,,,,,,,,,,,54,5.472,1,0,18,18,7,1,6,×,9,6 × 9,neutral,smallerFirst,1.5,1.5,54,,,,,,,,
,,,,,,,,,,,,,,,730,2022-01-23_12h15.47.795,multiplicationStroop,2021.2.3,Win32,59.89458553,,,,,,,,,,,,,,,,,,,,,,,,,,,,,,,,,49,1.971,1,0,19,19,33,1,7,×,7,7 × 7,neutral,tie,1.5,1.5,49,,,,,,,,
,,,,,,,,,,,,,,,730,2022-01-23_12h15.47.795,multiplicationStroop,2021.2.3,Win32,59.89458553,,,,,,,,,,,,,,,,,,,,,,,,,,,,,,,,,12,2.0847,1,0,20,20,21,1,4,×,3,4 × 3,neutral,largerFirst,1.5,1.5,12,,,,,,,,
,,,,,,,,,,,,,,,730,2022-01-23_12h15.47.795,multiplicationStroop,2021.2.3,Win32,59.89458553,,,,,,,,,,,,,,,,,,,,,,,,,,,,,,,,,25,1.9856,1,0,21,21,31,1,5,×,5,5 × 5,neutral,tie,1.5,1.5,25,,,,,,,,
,,,,,,,,,,,,,,,730,2022-01-23_12h15.47.795,multiplicationStroop,2021.2.3,Win32,59.89458553,,,,,,,,,,,,,,,,,,,,,,,,,,,,,,,,,36,1.6834,1,0,22,22,32,1,6,×,6,6 × 6,neutral,tie,1.5,1.5,36,,,,,,,,
,,,,,,,,,,,,,,,730,2022-01-23_12h15.47.795,multiplicationStroop,2021.2.3,Win32,59.89458553,,,,,,,,,,,,,,,,,,,,,,,,,,,,,,,,,24,2.9193,1,0,23,23,2,1,4,×,6,4 × 6,neutral,smallerFirst,1.5,1.5,24,,,,,,,,
,,,,,,,,,,,,,,,730,2022-01-23_12h15.47.795,multiplicationStroop,2021.2.3,Win32,59.89458553,,,,,,,,,,,,,,,,,,,,,,,,,,,,,,,,,56,2.1718,1,0,24,24,9,1,7,×,8,7 × 8,neutral,smallerFirst,1.5,1.5,56,,,,,,,,
,,,,,,,,,,,,,,,730,2022-01-23_12h15.47.795,multiplicationStroop,2021.2.3,Win32,59.89458553,,,,,,,,,,,,,,,,,,,,,,,,,,,,,,,,,16,3.0366,1,0,25,25,13,1,2,×,8,2 × 8,neutral,smallerFirst,1.5,1.5,16,,,,,,,,
,,,,,,,,,,,,,,,730,2022-01-23_12h15.47.795,multiplicationStroop,2021.2.3,Win32,59.89458553,,,,,,,,,,,,,,,,,,,,,,,,,,,,,,,,,21,1.3838,1,0,26,26,8,1,3,×,7,3 × 7,neutral,smallerFirst,1.5,1.5,21,,,,,,,,
,,,,,,,,,,,,,,,730,2022-01-23_12h15.47.795,multiplicationStroop,2021.2.3,Win32,59.89458553,,,,,,,,,,,,,,,,,,,,,,,,,,,,,,,,,45,1.5518,0,0,27,27,24,1,8,×,5,8 × 5,neutral,largerFirst,1.5,1.5,40,,,,,,,,
,,,,,,,,,,,,,,,730,2022-01-23_12h15.47.795,multiplicationStroop,2021.2.3,Win32,59.89458553,,,,,,,,,,,,,,,,,,,,,,,,,,,,,,,,,14,1.7509,1,0,28,28,16,1,7,×,2,7 × 2,neutral,largerFirst,1.5,1.5,14,,,,,,,,
,,,,,,,,,,,,,,,730,2022-01-23_12h15.47.795,multiplicationStroop,2021.2.3,Win32,59.89458553,,,,,,,,,,,,,,,,,,,,,,,,,,,,,,,,,81,3.9374,1,0,29,29,35,1,9,×,9,9 × 9,neutral,tie,1.5,1.5,81,,,,,,,,
,,,,,,,,,,,,,,,730,2022-01-23_12h15.47.795,multiplicationStroop,2021.2.3,Win32,59.89458553,,,,,,,,,,,,,,,,,,,,,,,,,,,,,,,,,12,1.8711,1,0,30,30,25,1,6,×,2,6 × 2,neutral,largerFirst,1.5,1.5,12,,,,,,,,
,,,,,,,,,,,,,,,730,2022-01-23_12h15.47.795,multiplicationStroop,2021.2.3,Win32,59.89458553,,,,,,,,,,,,,,,,,,,,,,,,,,,,,,,,,32,2.7356,1,0,31,31,23,1,8,×,4,8 × 4,neutral,largerFirst,1.5,1.5,32,,,,,,,,
,,,,,,,,,,,,,,,730,2022-01-23_12h15.47.795,multiplicationStroop,2021.2.3,Win32,59.89458553,,,,,,,,,,,,,,,,,,,,,,,,,,,,,,,,,27,1.9521,1,0,32,32,14,1,9,×,3,9 × 3,neutral,largerFirst,1.5,1.5,27,,,,,,,,
,,,,,,,,,,,,,,,730,2022-01-23_12h15.47.795,multiplicationStroop,2021.2.3,Win32,59.89458553,,,,,,,,,,,,,,,,,,,,,,,,,,,,,,,,,48,1.9516,1,0,33,33,15,1,8,×,6,8 × 6,neutral,largerFirst,1.5,1.5,48,,,,,,,,
,,,,,,,,,,,,,,,730,2022-01-23_12h15.47.795,multiplicationStroop,2021.2.3,Win32,59.89458553,,,,,,,,,,,,,,,,,,,,,,,,,,,,,,,,,42,2.402,1,0,34,34,6,1,6,×,7,6 × 7,neutral,smallerFirst,1.5,1.5,42,,,,,,,,
,,,,,,,,,,,,,,,730,2022-01-23_12h15.47.795,multiplicationStroop,2021.2.3,Win32,59.89458553,,,,,,,,,,,,,,,,,,,,,,,,,,,,,,,,,9,2.9357,1,0,35,35,29,1,3,×,3,3 × 3,neutral,tie,1.5,1.5,9,,,,,,,,
,,,,,,,,,,,,,,,730,2022-01-23_12h15.47.795,multiplicationStroop,2021.2.3,Win32,59.89458553,,,,,,,,,,,,,,,,,,,,,,,,,,,,,,,,,,,,,,,,,,,,,,,,,,0,4,4,1,1,stimulusFile/mult_blk2.xlsx,,
,,,,,,,,,,,,,,,730,2022-01-23_12h15.47.795,multiplicationStroop,2021.2.3,Win32,59.89458553,,,,,,,,,,,,,,,,,,,,,,,,,,,,,,,space,20.7284,15,1.8602,1,0,0,0,4,1,3,×,5,3 × 5,congruent,smallerFirst,1,2,15,,,,,,,,
,,,,,,,,,,,,,,,730,2022-01-23_12h15.47.795,multiplicationStroop,2021.2.3,Win32,59.89458553,,,,,,,,,,,,,,,,,,,,,,,,,,,,,,,,,25,1.6015,1,0,1,1,31,1,5,×,5,5 × 5,neutral,tie,2,1,25,,,,,,,,
,,,,,,,,,,,,,,,730,2022-01-23_12h15.47.795,multiplicationStroop,2021.2.3,Win32,59.89458553,,,,,,,,,,,,,,,,,,,,,,,,,,,,,,,,,24,2.4686,1,0,2,2,25,1,6,×,4,6 × 4,congruent,largerFirst,2,1,24,,,,,,,,
,,,,,,,,,,,,,,,730,2022-01-23_12h15.47.795,multiplicationStroop,2021.2.3,Win32,59.89458553,,,,,,,,,,,,,,,,,,,,,,,,,,,,,,,,,27,2.8695,0,0,3,3,10,1,3,×,8,3 × 8,congruent,smallerFirst,1,2,24,,,,,,,,
,,,,,,,,,,,,,,,730,2022-01-23_12h15.47.795,multiplicationStroop,2021.2.3,Win32,59.89458553,,,,,,,,,,,,,,,,,,,,,,,,,,,,,,,,,20,1.7208,1,0,4,4,7,1,4,×,5,4 × 5,congruent,smallerFirst,1,2,20,,,,,,,,
,,,,,,,,,,,,,,,730,2022-01-23_12h15.47.795,multiplicationStroop,2021.2.3,Win32,59.89458553,,,,,,,,,,,,,,,,,,,,,,,,,,,,,,,,,35,1.8011,1,0,5,5,1,1,5,×,7,5 × 7,congruent,smallerFirst,1,2,35,,,,,,,,
,,,,,,,,,,,,,,,730,2022-01-23_12h15.47.795,multiplicationStroop,2021.2.3,Win32,59.89458553,,,,,,,,,,,,,,,,,,,,,,,,,,,,,,,,,8,1.5517,1,0,6,6,9,1,2,×,4,2 × 4,congruent,smallerFirst,1,2,8,,,,,,,,
,,,,,,,,,,,,,,,730,2022-01-23_12h15.47.795,multiplicationStroop,2021.2.3,Win32,59.89458553,,,,,,,,,,,,,,,,,,,,,,,,,,,,,,,,,18,2.6521,1,0,7,7,22,1,9,×,2,9 × 2,congruent,largerFirst,2,1,18,,,,,,,,
,,,,,,,,,,,,,,,730,2022-01-23_12h15.47.795,multiplicationStroop,2021.2.3,Win32,59.89458553,,,,,,,,,,,,,,,,,,,,,,,,,,,,,,,,,30,1.8537,1,0,8,8,15,1,6,×,5,6 × 5,congruent,largerFirst,2,1,30,,,,,,,,
,,,,,,,,,,,,,,,730,2022-01-23_12h15.47.795,multiplicationStroop,2021.2.3,Win32,59.89458553,,,,,,,,,,,,,,,,,,,,,,,,,,,,,,,,,48,1.9182,1,0,9,9,18,1,8,×,6,8 × 6,congruent,largerFirst,2,1,48,,,,,,,,
,,,,,,,,,,,,,,,730,2022-01-23_12h15.47.795,multiplicationStroop,2021.2.3,Win32,59.89458553,,,,,,,,,,,,,,,,,,,,,,,,,,,,,,,,,32,1.9522,1,0,10,10,20,1,8,×,4,8 × 4,congruent,largerFirst,2,1,32,,,,,,,,
,,,,,,,,,,,,,,,730,2022-01-23_12h15.47.795,multiplicationStroop,2021.2.3,Win32,59.89458553,,,,,,,,,,,,,,,,,,,,,,,,,,,,,,,,,12,1.8511,1,0,11,11,2,1,3,×,4,3 × 4,congruent,smallerFirst,1,2,12,,,,,,,,
,,,,,,,,,,,,,,,730,2022-01-23_12h15.47.795,multiplicationStroop,2021.2.3,Win32,59.89458553,,,,,,,,,,,,,,,,,,,,,,,,,,,,,,,,,12,2.4525,1,0,12,12,19,1,6,×,2,6 × 2,congruent,largerFirst,2,1,12,,,,,,,,
,,,,,,,,,,,,,,,730,2022-01-23_12h15.47.795,multiplicationStroop,2021.2.3,Win32,59.89458553,,,,,,,,,,,,,,,,,,,,,,,,,,,,,,,,,16,3.4907,1,0,13,13,5,1,2,×,8,2 × 8,congruent,smallerFirst,1,2,16,,,,,,,,
,,,,,,,,,,,,,,,730,2022-01-23_12h15.47.795,multiplicationStroop,2021.2.3,Win32,59.89458553,,,,,,,,,,,,,,,,,,,,,,,,,,,,,,,,,21,1.3814,1,0,14,14,16,1,7,×,3,7 × 3,congruent,largerFirst,2,1,21,,,,,,,,
,,,,,,,,,,,,,,,730,2022-01-23_12h15.47.795,multiplicationStroop,2021.2.3,Win32,59.89458553,,,,,,,,,,,,,,,,,,,,,,,,,,,,,,,,,9,1.518,1,0,15,15,29,1,3,×,3,3 × 3,neutral,tie,2,1,9,,,,,,,,
,,,,,,,,,,,,,,,730,2022-01-23_12h15.47.795,multiplicationStroop,2021.2.3,Win32,59.89458553,,,,,,,,,,,,,,,,,,,,,,,,,,,,,,,,,45,1.6512,1,0,16,16,23,1,9,×,5,9 × 5,congruent,largerFirst,2,1,45,,,,,,,,
,,,,,,,,,,,,,,,730,2022-01-23_12h15.47.795,multiplicationStroop,2021.2.3,Win32,59.89458553,,,,,,,,,,,,,,,,,,,,,,,,,,,,,,,,,56,4.8718,1,0,17,17,8,1,7,×,8,7 × 8,congruent,smallerFirst,1,2,56,,,,,,,,
,,,,,,,,,,,,,,,730,2022-01-23_12h15.47.795,multiplicationStroop,2021.2.3,Win32,59.89458553,,,,,,,,,,,,,,,,,,,,,,,,,,,,,,,,,64,1.7381,1,0,18,18,34,1,8,×,8,8 × 8,neutral,tie,2,1,64,,,,,,,,
,,,,,,,,,,,,,,,730,2022-01-23_12h15.47.795,multiplicationStroop,2021.2.3,Win32,59.89458553,,,,,,,,,,,,,,,,,,,,,,,,,,,,,,,,,40,1.9179,1,0,19,19,6,1,5,×,8,5 × 8,congruent,smallerFirst,1,2,40,,,,,,,,
,,,,,,,,,,,,,,,730,2022-01-23_12h15.47.795,multiplicationStroop,2021.2.3,Win32,59.89458553,,,,,,,,,,,,,,,,,,,,,,,,,,,,,,,,,4,1.4173,1,0,20,20,28,1,2,×,2,2 × 2,neutral,tie,2,1,4,,,,,,,,
,,,,,,,,,,,,,,,730,2022-01-23_12h15.47.795,multiplicationStroop,2021.2.3,Win32,59.89458553,,,,,,,,,,,,,,,,,,,,,,,,,,,,,,,,,56,4.6215,0,0,21,21,21,1,9,×,7,9 × 7,congruent,largerFirst,2,1,63,,,,,,,,
,,,,,,,,,,,,,,,730,2022-01-23_12h15.47.795,multiplicationStroop,2021.2.3,Win32,59.89458553,,,,,,,,,,,,,,,,,,,,,,,,,,,,,,,,,49,1.7206,1,0,22,22,33,1,7,×,7,7 × 7,neutral,tie,2,1,49,,,,,,,,
,,,,,,,,,,,,,,,730,2022-01-23_12h15.47.795,multiplicationStroop,2021.2.3,Win32,59.89458553,,,,,,,,,,,,,,,,,,,,,,,,,,,,,,,,,42,1.9353,1,0,23,23,3,1,6,×,7,6 × 7,congruent,smallerFirst,1,2,42,,,,,,,,
,,,,,,,,,,,,,,,730,2022-01-23_12h15.47.795,multiplicationStroop,2021.2.3,Win32,59.89458553,,,,,,,,,,,,,,,,,,,,,,,,,,,,,,,,,27,2.6186,1,0,24,24,26,1,9,×,3,9 × 3,congruent,largerFirst,2,1,27,,,,,,,,
,,,,,,,,,,,,,,,730,2022-01-23_12h15.47.795,multiplicationStroop,2021.2.3,Win32,59.89458553,,,,,,,,,,,,,,,,,,,,,,,,,,,,,,,,,16,1.768,1,0,25,25,30,1,4,×,4,4 × 4,neutral,tie,2,1,16,,,,,,,,
,,,,,,,,,,,,,,,730,2022-01-23_12h15.47.795,multiplicationStroop,2021.2.3,Win32,59.89458553,,,,,,,,,,,,,,,,,,,,,,,,,,,,,,,,,72,4.1372,1,0,26,26,17,1,9,×,8,9 × 8,congruent,largerFirst,2,1,72,,,,,,,,
,,,,,,,,,,,,,,,730,2022-01-23_12h15.47.795,multiplicationStroop,2021.2.3,Win32,59.89458553,,,,,,,,,,,,,,,,,,,,,,,,,,,,,,,,,28,2.756,1,0,27,27,27,1,7,×,4,7 × 4,congruent,largerFirst,2,1,28,,,,,,,,
,,,,,,,,,,,,,,,730,2022-01-23_12h15.47.795,multiplicationStroop,2021.2.3,Win32,59.89458553,,,,,,,,,,,,,,,,,,,,,,,,,,,,,,,,,14,1.6702,1,0,28,28,14,1,7,×,2,7 × 2,congruent,largerFirst,2,1,14,,,,,,,,
,,,,,,,,,,,,,,,730,2022-01-23_12h15.47.795,multiplicationStroop,2021.2.3,Win32,59.89458553,,,,,,,,,,,,,,,,,,,,,,,,,,,,,,,,,36,1.8853,1,0,29,29,32,1,6,×,6,6 × 6,neutral,tie,2,1,36,,,,,,,,
,,,,,,,,,,,,,,,730,2022-01-23_12h15.47.795,multiplicationStroop,2021.2.3,Win32,59.89458553,,,,,,,,,,,,,,,,,,,,,,,,,,,,,,,,,10,2.0852,1,0,30,30,24,1,5,×,2,5 × 2,congruent,largerFirst,2,1,10,,,,,,,,
,,,,,,,,,,,,,,,730,2022-01-23_12h15.47.795,multiplicationStroop,2021.2.3,Win32,59.89458553,,,,,,,,,,,,,,,,,,,,,,,,,,,,,,,,,32,3.6869,0,0,31,31,0,1,4,×,9,4 × 9,congruent,smallerFirst,1,2,36,,,,,,,,
,,,,,,,,,,,,,,,730,2022-01-23_12h15.47.795,multiplicationStroop,2021.2.3,Win32,59.89458553,,,,,,,,,,,,,,,,,,,,,,,,,,,,,,,,,81,2.1867,1,0,32,32,35,1,9,×,9,9 × 9,neutral,tie,2,1,81,,,,,,,,
,,,,,,,,,,,,,,,730,2022-01-23_12h15.47.795,multiplicationStroop,2021.2.3,Win32,59.89458553,,,,,,,,,,,,,,,,,,,,,,,,,,,,,,,,,18,2.0018,1,0,33,33,11,1,3,×,6,3 × 6,congruent,smallerFirst,1,2,18,,,,,,,,
,,,,,,,,,,,,,,,730,2022-01-23_12h15.47.795,multiplicationStroop,2021.2.3,Win32,59.89458553,,,,,,,,,,,,,,,,,,,,,,,,,,,,,,,,,54,4.4045,1,0,34,34,12,1,6,×,9,6 × 9,congruent,smallerFirst,1,2,54,,,,,,,,
,,,,,,,,,,,,,,,730,2022-01-23_12h15.47.795,multiplicationStroop,2021.2.3,Win32,59.89458553,,,,,,,,,,,,,,,,,,,,,,,,,,,,,,,,,6,1.8867,1,0,35,35,13,1,2,×,3,2 × 3,congruent,smallerFirst,1,2,6,,,,,,,,
,,,,,,,,,,,,,,,730,2022-01-23_12h15.47.795,multiplicationStroop,2021.2.3,Win32,59.89458553,,,,,,,,,,,,,,,,,,,,,,,,,,,,,,,,,,,,,,,,,,,,,,,,,,0,5,5,2,1,stimulusFile/mult_blk3_congruent.xlsx,,
,,,,,,,,,,,,,,,730,2022-01-23_12h15.47.795,multiplicationStroop,2021.2.3,Win32,59.89458553,,,,,,,,,,,,,,,,,,,,,,,,,,,,,,,,,,,,,,,,,,,,,,,,,,,,,,,,space,3.1211