welcomeKey_resp.keys,welcomeKey_resp.rt,X Scale,Y Scale,rt_resp_4.keys,rt_resp_4.corr,rt_resp_4.rt,speedtest_2.thisRepN,speedtest_2.thisTrialN,speedtest_2.thisN,speedtest_2.thisIndex,speedtest_2.ran,numberSc,posX,positionLayout,participant,date,expName,psychopyVersion,OS,frameRate,ct_instrresp.keys,ct_instrresp.rt,key_resp_2.keys,key_resp_2.rt,ct_keyResp.keys,ct_keyResp.corr,ct_keyResp.rt,trials.thisRepN,trials.thisTrialN,trials.thisN,trials.thisIndex,trials.ran,leftNo,rightNo,displayProblem,numDistance,leftNo_size,rightNo_size,Dims,keyAnswer,TS_Loop.thisRepN,TS_Loop.thisTrialN,TS_Loop.thisN,TS_Loop.thisIndex,TS_Loop.ran,Condition,ActionInst,instrImage,mltptaskInst_resp.keys,mltptaskInst_resp.rt,continue_resp_2.keys,continue_resp_2.rt,multp_Answer,multi_RT,multiplyCorr,LoopingMultiply.thisRepN,LoopingMultiply.thisTrialN,LoopingMultiply.thisN,LoopingMultiply.thisIndex,LoopingMultiply.ran,factor1,multiplySign,factor2,multliplyProblem,physicalSize,orderOperand,sizeF1,sizeF2,mult_answer,trials_stroop.thisRepN,trials_stroop.thisTrialN,trials_stroop.thisN,trials_stroop.thisIndex,trials_stroop.ran,multiplicationFile,esckey_resp_2.keys,esckey_resp_2.rt
y,4.4728,60,52.1,left,1,1.0743,0,0,0,4,1,6,-200,left,732,2022-01-25_12h25.25.776,multiplicationStroop,2021.2.3,Win32,60.11783095,,,,,,,,,,,,,,,,,,,,,,,,,,,,,,,,,,,,,,,,,,,,,,,,,,,,,,,,,
,,,,left,1,0.4248,0,1,1,5,1,7,-200,left,732,2022-01-25_12h25.25.776,multiplicationStroop,2021.2.3,Win32,60.11783095,,,,,,,,,,,,,,,,,,,,,,,,,,,,,,,,,,,,,,,,,,,,,,,,,,,,,,,,,
,,,,right,1,0.4586,0,2,2,14,1,8,200,right,732,2022-01-25_12h25.25.776,multiplicationStroop,2021.2.3,Win32,60.11783095,,,,,,,,,,,,,,,,,,,,,,,,,,,,,,,,,,,,,,,,,,,,,,,,,,,,,,,,,
,,,,left,1,0.2565,0,3,3,2,1,3,-200,left,732,2022-01-25_12h25.25.776,multiplicationStroop,2021.2.3,Win32,60.11783095,,,,,,,,,,,,,,,,,,,,,,,,,,,,,,,,,,,,,,,,,,,,,,,,,,,,,,,,,
,,,,left,1,0.324,0,4,4,1,1,2,-200,left,732,2022-01-25_12h25.25.776,multiplicationStroop,2021.2.3,Win32,60.11783095,,,,,,,,,,,,,,,,,,,,,,,,,,,,,,,,,,,,,,,,,,,,,,,,,,,,,,,,,
,,,,left,1,0.2949,0,5,5,3,1,4,-200,left,732,2022-01-25_12h25.25.776,multiplicationStroop,2021.2.3,Win32,60.11783095,,,,,,,,,,,,,,,,,,,,,,,,,,,,,,,,,,,,,,,,,,,,,,,,,,,,,,,,,
,,,,right,1,0.3003,0,6,6,11,1,4,200,right,732,2022-01-25_12h25.25.776,multiplicationStroop,2021.2.3,Win32,60.11783095,,,,,,,,,,,,,,,,,,,,,,,,,,,,,,,,,,,,,,,,,,,,,,,,,,,,,,,,,
,,,,right,1,0.3508,0,7,7,8,1,1,200,right,732,2022-01-25_12h25.25.776,multiplicationStroop,2021.2.3,Win32,60.11783095,,,,,,,,,,,,,,,,,,,,,,,,,,,,,,,,,,,,,,,,,,,,,,,,,,,,,,,,,
,,,,left,1,0.272,0,8,8,0,1,1,-200,left,732,2022-01-25_12h25.25.776,multiplicationStroop,2021.2.3,Win32,60.11783095,,,,,,,,,,,,,,,,,,,,,,,,,,,,,,,,,,,,,,,,,,,,,,,,,,,,,,,,,
,,,,right,1,0.2506,0,9,9,10,1,3,200,right,732,2022-01-25_12h25.25.776,multiplicationStroop,2021.2.3,Win32,60.11783095,,,,,,,,,,,,,,,,,,,,,,,,,,,,,,,,,,,,,,,,,,,,,,,,,,,,,,,,,
,,,,left,1,0.2506,0,10,10,7,1,9,-200,left,732,2022-01-25_12h25.25.776,multiplicationStroop,2021.2.3,Win32,60.11783095,,,,,,,,,,,,,,,,,,,,,,,,,,,,,,,,,,,,,,,,,,,,,,,,,,,,,,,,,
,,,,right,1,0.2344,0,11,11,13,1,7,200,right,732,2022-01-25_12h25.25.776,multiplicationStroop,2021.2.3,Win32,60.11783095,,,,,,,,,,,,,,,,,,,,,,,,,,,,,,,,,,,,,,,,,,,,,,,,,,,,,,,,,
,,,,right,1,0.3065,0,12,12,15,1,9,200,right,732,2022-01-25_12h25.25.776,multiplicationStroop,2021.2.3,Win32,60.11783095,,,,,,,,,,,,,,,,,,,,,,,,,,,,,,,,,,,,,,,,,,,,,,,,,,,,,,,,,
,,,,right,1,0.2544,0,13,13,9,1,2,200,right,732,2022-01-25_12h25.25.776,multiplicationStroop,2021.2.3,Win32,60.11783095,,,,,,,,,,,,,,,,,,,,,,,,,,,,,,,,,,,,,,,,,,,,,,,,,,,,,,,,,
,,,,right,1,0.2416,0,14,14,12,1,6,200,right,732,2022-01-25_12h25.25.776,multiplicationStroop,2021.2.3,Win32,60.11783095,,,,,,,,,,,,,,,,,,,,,,,,,,,,,,,,,,,,,,,,,,,,,,,,,,,,,,,,,
,,,,left,1,0.2337,0,15,15,6,1,8,-200,left,732,2022-01-25_12h25.25.776,multiplicationStroop,2021.2.3,Win32,60.11783095,,,,,,,,,,,,,,,,,,,,,,,,,,,,,,,,,,,,,,,,,,,,,,,,,,,,,,,,,
,,,,left,1,0.302,1,0,16,3,1,4,-200,left,732,2022-01-25_12h25.25.776,multiplicationStroop,2021.2.3,Win32,60.11783095,,,,,,,,,,,,,,,,,,,,,,,,,,,,,,,,,,,,,,,,,,,,,,,,,,,,,,,,,
,,,,right,1,0.2335,1,1,17,11,1,4,200,right,732,2022-01-25_12h25.25.776,multiplicationStroop,2021.2.3,Win32,60.11783095,,,,,,,,,,,,,,,,,,,,,,,,,,,,,,,,,,,,,,,,,,,,,,,,,,,,,,,,,
,,,,left,1,0.2538,1,2,18,1,1,2,-200,left,732,2022-01-25_12h25.25.776,multiplicationStroop,2021.2.3,Win32,60.11783095,,,,,,,,,,,,,,,,,,,,,,,,,,,,,,,,,,,,,,,,,,,,,,,,,,,,,,,,,
,,,,right,1,0.3067,1,3,19,15,1,9,200,right,732,2022-01-25_12h25.25.776,multiplicationStroop,2021.2.3,Win32,60.11783095,,,,,,,,,,,,,,,,,,,,,,,,,,,,,,,,,,,,,,,,,,,,,,,,,,,,,,,,,
,,,,left,1,0.2278,1,4,20,6,1,8,-200,left,732,2022-01-25_12h25.25.776,multiplicationStroop,2021.2.3,Win32,60.11783095,,,,,,,,,,,,,,,,,,,,,,,,,,,,,,,,,,,,,,,,,,,,,,,,,,,,,,,,,
,,,,left,1,0.2943,1,5,21,4,1,6,-200,left,732,2022-01-25_12h25.25.776,multiplicationStroop,2021.2.3,Win32,60.11783095,,,,,,,,,,,,,,,,,,,,,,,,,,,,,,,,,,,,,,,,,,,,,,,,,,,,,,,,,
,,,,left,1,0.2839,1,6,22,2,1,3,-200,left,732,2022-01-25_12h25.25.776,multiplicationStroop,2021.2.3,Win32,60.11783095,,,,,,,,,,,,,,,,,,,,,,,,,,,,,,,,,,,,,,,,,,,,,,,,,,,,,,,,,
,,,,right,1,0.2507,1,7,23,14,1,8,200,right,732,2022-01-25_12h25.25.776,multiplicationStroop,2021.2.3,Win32,60.11783095,,,,,,,,,,,,,,,,,,,,,,,,,,,,,,,,,,,,,,,,,,,,,,,,,,,,,,,,,
,,,,right,1,0.3241,1,8,24,13,1,7,200,right,732,2022-01-25_12h25.25.776,multiplicationStroop,2021.2.3,Win32,60.11783095,,,,,,,,,,,,,,,,,,,,,,,,,,,,,,,,,,,,,,,,,,,,,,,,,,,,,,,,,
,,,,right,1,0.2579,1,9,25,10,1,3,200,right,732,2022-01-25_12h25.25.776,multiplicationStroop,2021.2.3,Win32,60.11783095,,,,,,,,,,,,,,,,,,,,,,,,,,,,,,,,,,,,,,,,,,,,,,,,,,,,,,,,,
,,,,right,1,0.2499,1,10,26,8,1,1,200,right,732,2022-01-25_12h25.25.776,multiplicationStroop,2021.2.3,Win32,60.11783095,,,,,,,,,,,,,,,,,,,,,,,,,,,,,,,,,,,,,,,,,,,,,,,,,,,,,,,,,
,,,,left,1,0.2835,1,11,27,0,1,1,-200,left,732,2022-01-25_12h25.25.776,multiplicationStroop,2021.2.3,Win32,60.11783095,,,,,,,,,,,,,,,,,,,,,,,,,,,,,,,,,,,,,,,,,,,,,,,,,,,,,,,,,
,,,,right,1,0.2999,1,12,28,12,1,6,200,right,732,2022-01-25_12h25.25.776,multiplicationStroop,2021.2.3,Win32,60.11783095,,,,,,,,,,,,,,,,,,,,,,,,,,,,,,,,,,,,,,,,,,,,,,,,,,,,,,,,,
,,,,left,1,0.2834,1,13,29,5,1,7,-200,left,732,2022-01-25_12h25.25.776,multiplicationStroop,2021.2.3,Win32,60.11783095,,,,,,,,,,,,,,,,,,,,,,,,,,,,,,,,,,,,,,,,,,,,,,,,,,,,,,,,,
,,,,right,1,0.1427,1,14,30,9,1,2,200,right,732,2022-01-25_12h25.25.776,multiplicationStroop,2021.2.3,Win32,60.11783095,,,,,,,,,,,,,,,,,,,,,,,,,,,,,,,,,,,,,,,,,,,,,,,,,,,,,,,,,
,,,,left,1,0.2215,1,15,31,7,1,9,-200,left,732,2022-01-25_12h25.25.776,multiplicationStroop,2021.2.3,Win32,60.11783095,,,,,,,,,,,,,,,,,,,,,,,,,,,,,,,,,,,,,,,,,,,,,,,,,,,,,,,,,
,,,,right,1,0.2436,2,0,32,12,1,6,200,right,732,2022-01-25_12h25.25.776,multiplicationStroop,2021.2.3,Win32,60.11783095,,,,,,,,,,,,,,,,,,,,,,,,,,,,,,,,,,,,,,,,,,,,,,,,,,,,,,,,,
,,,,left,1,0.2264,2,1,33,2,1,3,-200,left,732,2022-01-25_12h25.25.776,multiplicationStroop,2021.2.3,Win32,60.11783095,,,,,,,,,,,,,,,,,,,,,,,,,,,,,,,,,,,,,,,,,,,,,,,,,,,,,,,,,
,,,,right,0,0.1498,2,2,34,4,1,6,-200,left,732,2022-01-25_12h25.25.776,multiplicationStroop,2021.2.3,Win32,60.11783095,,,,,,,,,,,,,,,,,,,,,,,,,,,,,,,,,,,,,,,,,,,,,,,,,,,,,,,,,
,,,,left,1,0.5014,2,3,35,5,1,7,-200,left,732,2022-01-25_12h25.25.776,multiplicationStroop,2021.2.3,Win32,60.11783095,,,,,,,,,,,,,,,,,,,,,,,,,,,,,,,,,,,,,,,,,,,,,,,,,,,,,,,,,
,,,,right,1,0.3004,2,4,36,15,1,9,200,right,732,2022-01-25_12h25.25.776,multiplicationStroop,2021.2.3,Win32,60.11783095,,,,,,,,,,,,,,,,,,,,,,,,,,,,,,,,,,,,,,,,,,,,,,,,,,,,,,,,,
,,,,left,1,0.2674,2,5,37,1,1,2,-200,left,732,2022-01-25_12h25.25.776,multiplicationStroop,2021.2.3,Win32,60.11783095,,,,,,,,,,,,,,,,,,,,,,,,,,,,,,,,,,,,,,,,,,,,,,,,,,,,,,,,,
,,,,right,1,0.2568,2,6,38,11,1,4,200,right,732,2022-01-25_12h25.25.776,multiplicationStroop,2021.2.3,Win32,60.11783095,,,,,,,,,,,,,,,,,,,,,,,,,,,,,,,,,,,,,,,,,,,,,,,,,,,,,,,,,
,,,,left,1,0.2277,2,7,39,0,1,1,-200,left,732,2022-01-25_12h25.25.776,multiplicationStroop,2021.2.3,Win32,60.11783095,,,,,,,,,,,,,,,,,,,,,,,,,,,,,,,,,,,,,,,,,,,,,,,,,,,,,,,,,
,,,,right,1,0.2714,2,8,40,13,1,7,200,right,732,2022-01-25_12h25.25.776,multiplicationStroop,2021.2.3,Win32,60.11783095,,,,,,,,,,,,,,,,,,,,,,,,,,,,,,,,,,,,,,,,,,,,,,,,,,,,,,,,,
,,,,right,1,0.3844,2,9,41,10,1,3,200,right,732,2022-01-25_12h25.25.776,multiplicationStroop,2021.2.3,Win32,60.11783095,,,,,,,,,,,,,,,,,,,,,,,,,,,,,,,,,,,,,,,,,,,,,,,,,,,,,,,,,
,,,,right,1,0.3341,2,10,42,9,1,2,200,right,732,2022-01-25_12h25.25.776,multiplicationStroop,2021.2.3,Win32,60.11783095,,,,,,,,,,,,,,,,,,,,,,,,,,,,,,,,,,,,,,,,,,,,,,,,,,,,,,,,,
,,,,right,1,0.2608,2,11,43,8,1,1,200,right,732,2022-01-25_12h25.25.776,multiplicationStroop,2021.2.3,Win32,60.11783095,,,,,,,,,,,,,,,,,,,,,,,,,,,,,,,,,,,,,,,,,,,,,,,,,,,,,,,,,
,,,,right,1,0.255,2,12,44,14,1,8,200,right,732,2022-01-25_12h25.25.776,multiplicationStroop,2021.2.3,Win32,60.11783095,,,,,,,,,,,,,,,,,,,,,,,,,,,,,,,,,,,,,,,,,,,,,,,,,,,,,,,,,
,,,,left,1,0.7777,2,13,45,7,1,9,-200,left,732,2022-01-25_12h25.25.776,multiplicationStroop,2021.2.3,Win32,60.11783095,,,,,,,,,,,,,,,,,,,,,,,,,,,,,,,,,,,,,,,,,,,,,,,,,,,,,,,,,
,,,,left,1,0.3173,2,14,46,3,1,4,-200,left,732,2022-01-25_12h25.25.776,multiplicationStroop,2021.2.3,Win32,60.11783095,,,,,,,,,,,,,,,,,,,,,,,,,,,,,,,,,,,,,,,,,,,,,,,,,,,,,,,,,
,,,,left,1,0.3281,2,15,47,6,1,8,-200,left,732,2022-01-25_12h25.25.776,multiplicationStroop,2021.2.3,Win32,60.11783095,,,,,,,,,,,,,,,,,,,,,,,,,,,,,,,,,,,,,,,,,,,,,,,,,,,,,,,,,
,,,,left,0,0.2326,3,0,48,10,1,3,200,right,732,2022-01-25_12h25.25.776,multiplicationStroop,2021.2.3,Win32,60.11783095,,,,,,,,,,,,,,,,,,,,,,,,,,,,,,,,,,,,,,,,,,,,,,,,,,,,,,,,,
,,,,left,1,0.3511,3,1,49,2,1,3,-200,left,732,2022-01-25_12h25.25.776,multiplicationStroop,2021.2.3,Win32,60.11783095,,,,,,,,,,,,,,,,,,,,,,,,,,,,,,,,,,,,,,,,,,,,,,,,,,,,,,,,,
,,,,right,1,0.2449,3,2,50,13,1,7,200,right,732,2022-01-25_12h25.25.776,multiplicationStroop,2021.2.3,Win32,60.11783095,,,,,,,,,,,,,,,,,,,,,,,,,,,,,,,,,,,,,,,,,,,,,,,,,,,,,,,,,
,,,,right,1,0.334,3,3,51,14,1,8,200,right,732,2022-01-25_12h25.25.776,multiplicationStroop,2021.2.3,Win32,60.11783095,,,,,,,,,,,,,,,,,,,,,,,,,,,,,,,,,,,,,,,,,,,,,,,,,,,,,,,,,
,,,,left,1,0.2873,3,4,52,7,1,9,-200,left,732,2022-01-25_12h25.25.776,multiplicationStroop,2021.2.3,Win32,60.11783095,,,,,,,,,,,,,,,,,,,,,,,,,,,,,,,,,,,,,,,,,,,,,,,,,,,,,,,,,
,,,,right,1,0.3048,3,5,53,15,1,9,200,right,732,2022-01-25_12h25.25.776,multiplicationStroop,2021.2.3,Win32,60.11783095,,,,,,,,,,,,,,,,,,,,,,,,,,,,,,,,,,,,,,,,,,,,,,,,,,,,,,,,,
,,,,right,1,0.3012,3,6,54,8,1,1,200,right,732,2022-01-25_12h25.25.776,multiplicationStroop,2021.2.3,Win32,60.11783095,,,,,,,,,,,,,,,,,,,,,,,,,,,,,,,,,,,,,,,,,,,,,,,,,,,,,,,,,
,,,,left,1,0.2503,3,7,55,6,1,8,-200,left,732,2022-01-25_12h25.25.776,multiplicationStroop,2021.2.3,Win32,60.11783095,,,,,,,,,,,,,,,,,,,,,,,,,,,,,,,,,,,,,,,,,,,,,,,,,,,,,,,,,
,,,,right,1,0.2687,3,8,56,12,1,6,200,right,732,2022-01-25_12h25.25.776,multiplicationStroop,2021.2.3,Win32,60.11783095,,,,,,,,,,,,,,,,,,,,,,,,,,,,,,,,,,,,,,,,,,,,,,,,,,,,,,,,,
,,,,left,1,0.2323,3,9,57,3,1,4,-200,left,732,2022-01-25_12h25.25.776,multiplicationStroop,2021.2.3,Win32,60.11783095,,,,,,,,,,,,,,,,,,,,,,,,,,,,,,,,,,,,,,,,,,,,,,,,,,,,,,,,,
,,,,left,1,0.3399,3,10,58,0,1,1,-200,left,732,2022-01-25_12h25.25.776,multiplicationStroop,2021.2.3,Win32,60.11783095,,,,,,,,,,,,,,,,,,,,,,,,,,,,,,,,,,,,,,,,,,,,,,,,,,,,,,,,,
,,,,right,1,0.2387,3,11,59,9,1,2,200,right,732,2022-01-25_12h25.25.776,multiplicationStroop,2021.2.3,Win32,60.11783095,,,,,,,,,,,,,,,,,,,,,,,,,,,,,,,,,,,,,,,,,,,,,,,,,,,,,,,,,
,,,,left,1,0.2733,3,12,60,4,1,6,-200,left,732,2022-01-25_12h25.25.776,multiplicationStroop,2021.2.3,Win32,60.11783095,,,,,,,,,,,,,,,,,,,,,,,,,,,,,,,,,,,,,,,,,,,,,,,,,,,,,,,,,
,,,,left,1,0.3495,3,13,61,5,1,7,-200,left,732,2022-01-25_12h25.25.776,multiplicationStroop,2021.2.3,Win32,60.11783095,,,,,,,,,,,,,,,,,,,,,,,,,,,,,,,,,,,,,,,,,,,,,,,,,,,,,,,,,
,,,,right,0,0.24,3,14,62,1,1,2,-200,left,732,2022-01-25_12h25.25.776,multiplicationStroop,2021.2.3,Win32,60.11783095,,,,,,,,,,,,,,,,,,,,,,,,,,,,,,,,,,,,,,,,,,,,,,,,,,,,,,,,,
,,,,right,1,0.3679,3,15,63,11,1,4,200,right,732,2022-01-25_12h25.25.776,multiplicationStroop,2021.2.3,Win32,60.11783095,,,,,,,,,,,,,,,,,,,,,,,,,,,,,,,,,,,,,,,,,,,,,,,,,,,,,,,,,
,,,,,,,,,,,,,,,732,2022-01-25_12h25.25.776,multiplicationStroop,2021.2.3,Win32,60.11783095,space,8.2609,space,1.6215,left,1,0.7796,0,0,0,13,1,4,2,4 | 2,2,1.9756,1.4111,congruent,left,,,,,,stimulusFile/magnitude.xlsx,,,,,,,,,,,,,,,,,,,,,,,,,,,,,,,
,,,,,,,,,,,,,,,732,2022-01-25_12h25.25.776,multiplicationStroop,2021.2.3,Win32,60.11783095,,,,,right,0,0.3415,0,1,1,38,1,8,6,8 | 6,2,1.4111,1.9756,incongruent,left,,,,,,stimulusFile/magnitude.xlsx,,,,,,,,,,,,,,,,,,,,,,,,,,,,,,,
,,,,,,,,,,,,,,,732,2022-01-25_12h25.25.776,multiplicationStroop,2021.2.3,Win32,60.11783095,,,,,left,0,0.498,0,2,2,25,1,3,4,3 | 4,1,1.9756,1.4111,incongruent,right,,,,,,stimulusFile/magnitude.xlsx,,,,,,,,,,,,,,,,,,,,,,,,,,,,,,,
,,,,,,,,,,,,,,,732,2022-01-25_12h25.25.776,multiplicationStroop,2021.2.3,Win32,60.11783095,,,,,right,0,0.4771,0,3,3,39,1,9,7,9 | 7,2,1.4111,1.9756,incongruent,left,,,,,,stimulusFile/magnitude.xlsx,,,,,,,,,,,,,,,,,,,,,,,,,,,,,,,
,,,,,,,,,,,,,,,732,2022-01-25_12h25.25.776,multiplicationStroop,2021.2.3,Win32,60.11783095,,,,,left,1,0.4502,0,4,4,6,1,7,6,7 | 6,1,1.9756,1.4111,congruent,left,,,,,,stimulusFile/magnitude.xlsx,,,,,,,,,,,,,,,,,,,,,,,,,,,,,,,
,,,,,,,,,,,,,,,732,2022-01-25_12h25.25.776,multiplicationStroop,2021.2.3,Win32,60.11783095,,,,,left,1,0.4629,0,5,5,15,1,9,7,9 | 7,2,1.9756,1.4111,congruent,left,,,,,,stimulusFile/magnitude.xlsx,,,,,,,,,,,,,,,,,,,,,,,,,,,,,,,
,,,,,,,,,,,,,,,732,2022-01-25_12h25.25.776,multiplicationStroop,2021.2.3,Win32,60.11783095,,,,,left,1,0.3818,0,6,6,20,1,6,1,6 | 1,5,1.9756,1.4111,congruent,left,,,,,,stimulusFile/magnitude.xlsx,,,,,,,,,,,,,,,,,,,,,,,,,,,,,,,
,,,,,,,,,,,,,,,732,2022-01-25_12h25.25.776,multiplicationStroop,2021.2.3,Win32,60.11783095,,,,,right,1,0.3823,0,7,7,9,1,2,4,2 | 4,2,1.4111,1.9756,congruent,right,,,,,,stimulusFile/magnitude.xlsx,,,,,,,,,,,,,,,,,,,,,,,,,,,,,,,
,,,,,,,,,,,,,,,732,2022-01-25_12h25.25.776,multiplicationStroop,2021.2.3,Win32,60.11783095,,,,,right,1,1.0874,0,8,8,66,1,3,8,3 | 8,5,1.6933,1.6933,neutral,right,,,,,,stimulusFile/magnitude.xlsx,,,,,,,,,,,,,,,,,,,,,,,,,,,,,,,
,,,,,,,,,,,,,,,732,2022-01-25_12h25.25.776,multiplicationStroop,2021.2.3,Win32,60.11783095,,,,,right,1,0.7139,0,9,9,11,1,7,9,7 | 9,2,1.4111,1.9756,congruent,right,,,,,,stimulusFile/magnitude.xlsx,,,,,,,,,,,,,,,,,,,,,,,,,,,,,,,
,,,,,,,,,,,,,,,732,2022-01-25_12h25.25.776,multiplicationStroop,2021.2.3,Win32,60.11783095,,,,,left,1,0.9759,0,10,10,71,1,9,4,9 | 4,5,1.6933,1.6933,neutral,left,,,,,,stimulusFile/magnitude.xlsx,,,,,,,,,,,,,,,,,,,,,,,,,,,,,,,
,,,,,,,,,,,,,,,732,2022-01-25_12h25.25.776,multiplicationStroop,2021.2.3,Win32,60.11783095,,,,,right,1,0.5316,0,11,11,17,1,2,7,2 | 7,5,1.4111,1.9756,congruent,right,,,,,,stimulusFile/magnitude.xlsx,,,,,,,,,,,,,,,,,,,,,,,,,,,,,,,
,,,,,,,,,,,,,,,732,2022-01-25_12h25.25.776,multiplicationStroop,2021.2.3,Win32,60.11783095,,,,,right,0,0.7589,0,12,12,68,1,6,1,6 | 1,5,1.6933,1.6933,neutral,left,,,,,,stimulusFile/magnitude.xlsx,,,,,,,,,,,,,,,,,,,,,,,,,,,,,,,
,,,,,,,,,,,,,,,732,2022-01-25_12h25.25.776,multiplicationStroop,2021.2.3,Win32,60.11783095,,,,,right,1,0.7172,0,13,13,67,1,4,9,4 | 9,5,1.6933,1.6933,neutral,right,,,,,,stimulusFile/magnitude.xlsx,,,,,,,,,,,,,,,,,,,,,,,,,,,,,,,
,,,,,,,,,,,,,,,732,2022-01-25_12h25.25.776,multiplicationStroop,2021.2.3,Win32,60.11783095,,,,,right,1,0.5817,0,14,14,2,1,6,7,6 | 7,1,1.4111,1.9756,congruent,right,,,,,,stimulusFile/magnitude.xlsx,,,,,,,,,,,,,,,,,,,,,,,,,,,,,,,
,,,,,,,,,,,,,,,732,2022-01-25_12h25.25.776,multiplicationStroop,2021.2.3,Win32,60.11783095,,,,,left,1,0.4844,0,15,15,12,1,3,1,3 | 1,2,1.9756,1.4111,congruent,left,,,,,,stimulusFile/magnitude.xlsx,,,,,,,,,,,,,,,,,,,,,,,,,,,,,,,
,,,,,,,,,,,,,,,732,2022-01-25_12h25.25.776,multiplicationStroop,2021.2.3,Win32,60.11783095,,,,,right,0,0.5813,0,16,16,28,1,2,1,2 | 1,1,1.4111,1.9756,incongruent,left,,,,,,stimulusFile/magnitude.xlsx,,,,,,,,,,,,,,,,,,,,,,,,,,,,,,,
,,,,,,,,,,,,,,,732,2022-01-25_12h25.25.776,multiplicationStroop,2021.2.3,Win32,60.11783095,,,,,left,1,0.4677,0,17,17,23,1,9,4,9 | 4,5,1.9756,1.4111,congruent,left,,,,,,stimulusFile/magnitude.xlsx,,,,,,,,,,,,,,,,,,,,,,,,,,,,,,,
,,,,,,,,,,,,,,,732,2022-01-25_12h25.25.776,multiplicationStroop,2021.2.3,Win32,60.11783095,,,,,left,0,1.0157,0,18,18,40,1,1,6,1 | 6,5,1.9756,1.4111,incongruent,right,,,,,,stimulusFile/magnitude.xlsx,,,,,,,,,,,,,,,,,,,,,,,,,,,,,,,
,,,,,,,,,,,,,,,732,2022-01-25_12h25.25.776,multiplicationStroop,2021.2.3,Win32,60.11783095,,,,,left,1,0.6477,0,19,19,55,1,9,8,9 | 8,1,1.6933,1.6933,neutral,left,,,,,,stimulusFile/magnitude.xlsx,,,,,,,,,,,,,,,,,,,,,,,,,,,,,,,
,,,,,,,,,,,,,,,732,2022-01-25_12h25.25.776,multiplicationStroop,2021.2.3,Win32,60.11783095,,,,,left,0,0.641,0,20,20,24,1,1,2,1 | 2,1,1.9756,1.4111,incongruent,right,,,,,,stimulusFile/magnitude.xlsx,,,,,,,,,,,,,,,,,,,,,,,,,,,,,,,
,,,,,,,,,,,,,,,732,2022-01-25_12h25.25.776,multiplicationStroop,2021.2.3,Win32,60.11783095,,,,,right,1,0.5864,0,21,21,49,1,3,4,3 | 4,1,1.6933,1.6933,neutral,right,,,,,,stimulusFile/magnitude.xlsx,,,,,,,,,,,,,,,,,,,,,,,,,,,,,,,
,,,,,,,,,,,,,,,732,2022-01-25_12h25.25.776,multiplicationStroop,2021.2.3,Win32,60.11783095,,,,,left,1,0.4816,0,22,22,14,1,8,6,8 | 6,2,1.9756,1.4111,congruent,left,,,,,,stimulusFile/magnitude.xlsx,,,,,,,,,,,,,,,,,,,,,,,,,,,,,,,
,,,,,,,,,,,,,,,732,2022-01-25_12h25.25.776,multiplicationStroop,2021.2.3,Win32,60.11783095,,,,,right,1,0.4661,0,23,23,3,1,8,9,8 | 9,1,1.4111,1.9756,congruent,right,,,,,,stimulusFile/magnitude.xlsx,,,,,,,,,,,,,,,,,,,,,,,,,,,,,,,
,,,,,,,,,,,,,,,732,2022-01-25_12h25.25.776,multiplicationStroop,2021.2.3,Win32,60.11783095,,,,,left,1,0.416,0,24,24,5,1,4,3,4 | 3,1,1.9756,1.4111,congruent,left,,,,,,stimulusFile/magnitude.xlsx,,,,,,,,,,,,,,,,,,,,,,,,,,,,,,,
,,,,,,,,,,,,,,,732,2022-01-25_12h25.25.776,multiplicationStroop,2021.2.3,Win32,60.11783095,,,,,right,0,0.3199,0,25,25,44,1,6,1,6 | 1,5,1.4111,1.9756,incongruent,left,,,,,,stimulusFile/magnitude.xlsx,,,,,,,,,,,,,,,,,,,,,,,,,,,,,,,
,,,,,,,,,,,,,,,732,2022-01-25_12h25.25.776,multiplicationStroop,2021.2.3,Win32,60.11783095,,,,,left,0,0.4362,0,26,26,42,1,3,8,3 | 8,5,1.9756,1.4111,incongruent,right,,,,,,stimulusFile/magnitude.xlsx,,,,,,,,,,,,,,,,,,,,,,,,,,,,,,,
,,,,,,,,,,,,,,,732,2022-01-25_12h25.25.776,multiplicationStroop,2021.2.3,Win32,60.11783095,,,,,left,0,0.5547,0,27,27,32,1,1,3,1 | 3,2,1.9756,1.4111,incongruent,right,,,,,,stimulusFile/magnitude.xlsx,,,,,,,,,,,,,,,,,,,,,,,,,,,,,,,
,,,,,,,,,,,,,,,732,2022-01-25_12h25.25.776,multiplicationStroop,2021.2.3,Win32,60.11783095,,,,,right,0,0.6315,0,28,28,45,1,7,2,7 | 2,5,1.4111,1.9756,incongruent,left,,,,,,stimulusFile/magnitude.xlsx,,,,,,,,,,,,,,,,,,,,,,,,,,,,,,,
,,,,,,,,,,,,,,,732,2022-01-25_12h25.25.776,multiplicationStroop,2021.2.3,Win32,60.11783095,,,,,left,1,0.5174,0,29,29,61,1,4,2,4 | 2,2,1.6933,1.6933,neutral,left,,,,,,stimulusFile/magnitude.xlsx,,,,,,,,,,,,,,,,,,,,,,,,,,,,,,,
,,,,,,,,,,,,,,,732,2022-01-25_12h25.25.776,multiplicationStroop,2021.2.3,Win32,60.11783095,,,,,right,1,0.4716,0,30,30,59,1,7,9,7 | 9,2,1.6933,1.6933,neutral,right,,,,,,stimulusFile/magnitude.xlsx,,,,,,,,,,,,,,,,,,,,,,,,,,,,,,,
,,,,,,,,,,,,,,,732,2022-01-25_12h25.25.776,multiplicationStroop,2021.2.3,Win32,60.11783095,,,,,right,1,0.5972,0,31,31,10,1,6,8,6 | 8,2,1.4111,1.9756,congruent,right,,,,,,stimulusFile/magnitude.xlsx,,,,,,,,,,,,,,,,,,,,,,,,,,,,,,,
,,,,,,,,,,,,,,,732,2022-01-25_12h25.25.776,multiplicationStroop,2021.2.3,Win32,60.11783095,,,,,right,0,0.4478,0,32,32,54,1,7,6,7 | 6,1,1.6933,1.6933,neutral,left,,,,,,stimulusFile/magnitude.xlsx,,,,,,,,,,,,,,,,,,,,,,,,,,,,,,,
,,,,,,,,,,,,,,,732,2022-01-25_12h25.25.776,multiplicationStroop,2021.2.3,Win32,60.11783095,,,,,left,0,0.6223,0,33,33,57,1,2,4,2 | 4,2,1.6933,1.6933,neutral,right,,,,,,stimulusFile/magnitude.xlsx,,,,,,,,,,,,,,,,,,,,,,,,,,,,,,,
,,,,,,,,,,,,,,,732,2022-01-25_12h25.25.776,multiplicationStroop,2021.2.3,Win32,60.11783095,,,,,right,1,0.9591,0,34,34,64,1,1,6,1 | 6,5,1.6933,1.6933,neutral,right,,,,,,stimulusFile/magnitude.xlsx,,,,,,,,,,,,,,,,,,,,,,,,,,,,,,,
,,,,,,,,,,,,,,,732,2022-01-25_12h25.25.776,multiplicationStroop,2021.2.3,Win32,60.11783095,,,,,left,1,0.4431,0,35,35,22,1,8,3,8 | 3,5,1.9756,1.4111,congruent,left,,,,,,stimulusFile/magnitude.xlsx,,,,,,,,,,,,,,,,,,,,,,,,,,,,,,,
,,,,,,,,,,,,,,,732,2022-01-25_12h25.25.776,multiplicationStroop,2021.2.3,Win32,60.11783095,,,,,left,1,0.6151,0,36,36,63,1,9,7,9 | 7,2,1.6933,1.6933,neutral,left,,,,,,stimulusFile/magnitude.xlsx,,,,,,,,,,,,,,,,,,,,,,,,,,,,,,,
,,,,,,,,,,,,,,,732,2022-01-25_12h25.25.776,multiplicationStroop,2021.2.3,Win32,60.11783095,,,,,right,0,0.4658,0,37,37,31,1,9,8,9 | 8,1,1.4111,1.9756,incongruent,left,,,,,,stimulusFile/magnitude.xlsx,,,,,,,,,,,,,,,,,,,,,,,,,,,,,,,
,,,,,,,,,,,,,,,732,2022-01-25_12h25.25.776,multiplicationStroop,2021.2.3,Win32,60.11783095,,,,,left,1,0.4816,0,38,38,70,1,8,3,8 | 3,5,1.6933,1.6933,neutral,left,,,,,,stimulusFile/magnitude.xlsx,,,,,,,,,,,,,,,,,,,,,,,,,,,,,,,
,,,,,,,,,,,,,,,732,2022-01-25_12h25.25.776,multiplicationStroop,2021.2.3,Win32,60.11783095,,,,,right,0,0.4184,0,39,39,46,1,8,3,8 | 3,5,1.4111,1.9756,incongruent,left,,,,,,stimulusFile/magnitude.xlsx,,,,,,,,,,,,,,,,,,,,,,,,,,,,,,,
,,,,,,,,,,,,,,,732,2022-01-25_12h25.25.776,multiplicationStroop,2021.2.3,Win32,60.11783095,,,,,left,0,0.4479,0,40,40,27,1,8,9,8 | 9,1,1.9756,1.4111,incongruent,right,,,,,,stimulusFile/magnitude.xlsx,,,,,,,,,,,,,,,,,,,,,,,,,,,,,,,
,,,,,,,,,,,,,,,732,2022-01-25_12h25.25.776,multiplicationStroop,2021.2.3,Win32,60.11783095,,,,,right,1,0.3672,0,41,41,19,1,4,9,4 | 9,5,1.4111,1.9756,congruent,right,,,,,,stimulusFile/magnitude.xlsx,,,,,,,,,,,,,,,,,,,,,,,,,,,,,,,
,,,,,,,,,,,,,,,732,2022-01-25_12h25.25.776,multiplicationStroop,2021.2.3,Win32,60.11783095,,,,,right,0,0.5341,0,42,42,36,1,3,1,3 | 1,2,1.4111,1.9756,incongruent,left,,,,,,stimulusFile/magnitude.xlsx,,,,,,,,,,,,,,,,,,,,,,,,,,,,,,,
,,,,,,,,,,,,,,,732,2022-01-25_12h25.25.776,multiplicationStroop,2021.2.3,Win32,60.11783095,,,,,right,1,0.4358,0,43,43,8,1,1,3,1 | 3,2,1.4111,1.9756,congruent,right,,,,,,stimulusFile/magnitude.xlsx,,,,,,,,,,,,,,,,,,,,,,,,,,,,,,,
,,,,,,,,,,,,,,,732,2022-01-25_12h25.25.776,multiplicationStroop,2021.2.3,Win32,60.11783095,,,,,right,1,0.4916,0,44,44,0,1,1,2,1 | 2,1,1.4111,1.9756,congruent,right,,,,,,stimulusFile/magnitude.xlsx,,,,,,,,,,,,,,,,,,,,,,,,,,,,,,,
,,,,,,,,,,,,,,,732,2022-01-25_12h25.25.776,multiplicationStroop,2021.2.3,Win32,60.11783095,,,,,left,1,0.3983,0,45,45,52,1,2,1,2 | 1,1,1.6933,1.6933,neutral,left,,,,,,stimulusFile/magnitude.xlsx,,,,,,,,,,,,,,,,,,,,,,,,,,,,,,,
,,,,,,,,,,,,,,,732,2022-01-25_12h25.25.776,multiplicationStroop,2021.2.3,Win32,60.11783095,,,,,right,1,1.0306,0,46,46,51,1,8,9,8 | 9,1,1.6933,1.6933,neutral,right,,,,,,stimulusFile/magnitude.xlsx,,,,,,,,,,,,,,,,,,,,,,,,,,,,,,,
,,,,,,,,,,,,,,,732,2022-01-25_12h25.25.776,multiplicationStroop,2021.2.3,Win32,60.11783095,,,,,left,1,0.5984,0,47,47,69,1,7,2,7 | 2,5,1.6933,1.6933,neutral,left,,,,,,stimulusFile/magnitude.xlsx,,,,,,,,,,,,,,,,,,,,,,,,,,,,,,,
,,,,,,,,,,,,,,,732,2022-01-25_12h25.25.776,multiplicationStroop,2021.2.3,Win32,60.11783095,,,,,right,0,0.9372,0,48,48,62,1,8,6,8 | 6,2,1.6933,1.6933,neutral,left,,,,,,stimulusFile/magnitude.xlsx,,,,,,,,,,,,,,,,,,,,,,,,,,,,,,,
,,,,,,,,,,,,,,,732,2022-01-25_12h25.25.776,multiplicationStroop,2021.2.3,Win32,60.11783095,,,,,left,1,0.4414,0,49,49,4,1,2,1,2 | 1,1,1.9756,1.4111,congruent,left,,,,,,stimulusFile/magnitude.xlsx,,,,,,,,,,,,,,,,,,,,,,,,,,,,,,,
,,,,,,,,,,,,,,,732,2022-01-25_12h25.25.776,multiplicationStroop,2021.2.3,Win32,60.11783095,,,,,left,0,0.3855,0,50,50,65,1,2,7,2 | 7,5,1.6933,1.6933,neutral,right,,,,,,stimulusFile/magnitude.xlsx,,,,,,,,,,,,,,,,,,,,,,,,,,,,,,,
,,,,,,,,,,,,,,,732,2022-01-25_12h25.25.776,multiplicationStroop,2021.2.3,Win32,60.11783095,,,,,left,0,0.4979,0,51,51,33,1,2,4,2 | 4,2,1.9756,1.4111,incongruent,right,,,,,,stimulusFile/magnitude.xlsx,,,,,,,,,,,,,,,,,,,,,,,,,,,,,,,
,,,,,,,,,,,,,,,732,2022-01-25_12h25.25.776,multiplicationStroop,2021.2.3,Win32,60.11783095,,,,,left,1,0.4004,0,52,52,7,1,9,8,9 | 8,1,1.9756,1.4111,congruent,left,,,,,,stimulusFile/magnitude.xlsx,,,,,,,,,,,,,,,,,,,,,,,,,,,,,,,
,,,,,,,,,,,,,,,732,2022-01-25_12h25.25.776,multiplicationStroop,2021.2.3,Win32,60.11783095,,,,,right,0,0.3678,0,53,53,30,1,7,6,7 | 6,1,1.4111,1.9756,incongruent,left,,,,,,stimulusFile/magnitude.xlsx,,,,,,,,,,,,,,,,,,,,,,,,,,,,,,,
,,,,,,,,,,,,,,,732,2022-01-25_12h25.25.776,multiplicationStroop,2021.2.3,Win32,60.11783095,,,,,left,1,0.3699,0,54,54,21,1,7,2,7 | 2,5,1.9756,1.4111,congruent,left,,,,,,stimulusFile/magnitude.xlsx,,,,,,,,,,,,,,,,,,,,,,,,,,,,,,,
,,,,,,,,,,,,,,,732,2022-01-25_12h25.25.776,multiplicationStroop,2021.2.3,Win32,60.11783095,,,,,left,0,0.5029,0,55,55,41,1,2,7,2 | 7,5,1.9756,1.4111,incongruent,right,,,,,,stimulusFile/magnitude.xlsx,,,,,,,,,,,,,,,,,,,,,,,,,,,,,,,
,,,,,,,,,,,,,,,732,2022-01-25_12h25.25.776,multiplicationStroop,2021.2.3,Win32,60.11783095,,,,,left,0,0.4945,0,56,56,35,1,7,9,7 | 9,2,1.9756,1.4111,incongruent,right,,,,,,stimulusFile/magnitude.xlsx,,,,,,,,,,,,,,,,,,,,,,,,,,,,,,,
,,,,,,,,,,,,,,,732,2022-01-25_12h25.25.776,multiplicationStroop,2021.2.3,Win32,60.11783095,,,,,left,0,0.6662,0,57,57,43,1,4,9,4 | 9,5,1.9756,1.4111,incongruent,right,,,,,,stimulusFile/magnitude.xlsx,,,,,,,,,,,,,,,,,,,,,,,,,,,,,,,
,,,,,,,,,,,,,,,732,2022-01-25_12h25.25.776,multiplicationStroop,2021.2.3,Win32,60.11783095,,,,,left,0,0.4146,0,58,58,34,1,6,8,6 | 8,2,1.9756,1.4111,incongruent,right,,,,,,stimulusFile/magnitude.xlsx,,,,,,,,,,,,,,,,,,,,,,,,,,,,,,,
,,,,,,,,,,,,,,,732,2022-01-25_12h25.25.776,multiplicationStroop,2021.2.3,Win32,60.11783095,,,,,right,1,0.4378,0,59,59,48,1,1,2,1 | 2,1,1.6933,1.6933,neutral,right,,,,,,stimulusFile/magnitude.xlsx,,,,,,,,,,,,,,,,,,,,,,,,,,,,,,,
,,,,,,,,,,,,,,,732,2022-01-25_12h25.25.776,multiplicationStroop,2021.2.3,Win32,60.11783095,,,,,right,1,0.5252,0,60,60,1,1,3,4,3 | 4,1,1.4111,1.9756,congruent,right,,,,,,stimulusFile/magnitude.xlsx,,,,,,,,,,,,,,,,,,,,,,,,,,,,,,,
,,,,,,,,,,,,,,,732,2022-01-25_12h25.25.776,multiplicationStroop,2021.2.3,Win32,60.11783095,,,,,right,1,0.5867,0,61,61,58,1,6,8,6 | 8,2,1.6933,1.6933,neutral,right,,,,,,stimulusFile/magnitude.xlsx,,,,,,,,,,,,,,,,,,,,,,,,,,,,,,,
,,,,,,,,,,,,,,,732,2022-01-25_12h25.25.776,multiplicationStroop,2021.2.3,Win32,60.11783095,,,,,left,0,0.5149,0,62,62,26,1,6,7,6 | 7,1,1.9756,1.4111,incongruent,right,,,,,,stimulusFile/magnitude.xlsx,,,,,,,,,,,,,,,,,,,,,,,,,,,,,,,
,,,,,,,,,,,,,,,732,2022-01-25_12h25.25.776,multiplicationStroop,2021.2.3,Win32,60.11783095,,,,,left,1,0.4651,0,63,63,53,1,4,3,4 | 3,1,1.6933,1.6933,neutral,left,,,,,,stimulusFile/magnitude.xlsx,,,,,,,,,,,,,,,,,,,,,,,,,,,,,,,
,,,,,,,,,,,,,,,732,2022-01-25_12h25.25.776,multiplicationStroop,2021.2.3,Win32,60.11783095,,,,,right,1,0.4161,0,64,64,56,1,1,3,1 | 3,2,1.6933,1.6933,neutral,right,,,,,,stimulusFile/magnitude.xlsx,,,,,,,,,,,,,,,,,,,,,,,,,,,,,,,
,,,,,,,,,,,,,,,732,2022-01-25_12h25.25.776,multiplicationStroop,2021.2.3,Win32,60.11783095,,,,,left,0,0.3333,0,65,65,50,1,6,7,6 | 7,1,1.6933,1.6933,neutral,right,,,,,,stimulusFile/magnitude.xlsx,,,,,,,,,,,,,,,,,,,,,,,,,,,,,,,
,,,,,,,,,,,,,,,732,2022-01-25_12h25.25.776,multiplicationStroop,2021.2.3,Win32,60.11783095,,,,,right,0,0.5511,0,66,66,47,1,9,4,9 | 4,5,1.4111,1.9756,incongruent,left,,,,,,stimulusFile/magnitude.xlsx,,,,,,,,,,,,,,,,,,,,,,,,,,,,,,,
,,,,,,,,,,,,,,,732,2022-01-25_12h25.25.776,multiplicationStroop,2021.2.3,Win32,60.11783095,,,,,right,1,0.4655,0,67,67,16,1,1,6,1 | 6,5,1.4111,1.9756,congruent,right,,,,,,stimulusFile/magnitude.xlsx,,,,,,,,,,,,,,,,,,,,,,,,,,,,,,,
,,,,,,,,,,,,,,,732,2022-01-25_12h25.25.776,multiplicationStroop,2021.2.3,Win32,60.11783095,,,,,right,0,0.5032,0,68,68,29,1,4,3,4 | 3,1,1.4111,1.9756,incongruent,left,,,,,,stimulusFile/magnitude.xlsx,,,,,,,,,,,,,,,,,,,,,,,,,,,,,,,
,,,,,,,,,,,,,,,732,2022-01-25_12h25.25.776,multiplicationStroop,2021.2.3,Win32,60.11783095,,,,,right,0,0.9461,0,69,69,60,1,3,1,3 | 1,2,1.6933,1.6933,neutral,left,,,,,,stimulusFile/magnitude.xlsx,,,,,,,,,,,,,,,,,,,,,,,,,,,,,,,
,,,,,,,,,,,,,,,732,2022-01-25_12h25.25.776,multiplicationStroop,2021.2.3,Win32,60.11783095,,,,,right,0,0.4976,0,70,70,37,1,4,2,4 | 2,2,1.4111,1.9756,incongruent,left,,,,,,stimulusFile/magnitude.xlsx,,,,,,,,,,,,,,,,,,,,,,,,,,,,,,,
,,,,,,,,,,,,,,,732,2022-01-25_12h25.25.776,multiplicationStroop,2021.2.3,Win32,60.11783095,,,,,right,1,0.5032,0,71,71,18,1,3,8,3 | 8,5,1.4111,1.9756,congruent,right,,,,,,stimulusFile/magnitude.xlsx,,,,,,,,,,,,,,,,,,,,,,,,,,,,,,,
,,,,,,,,,,,,,,,732,2022-01-25_12h25.25.776,multiplicationStroop,2021.2.3,Win32,60.11783095,,,,,,,,,,,,,,,,,,,,,0,0,0,0,1,stimulusFile/magnitude.xlsx,NUMERICALLY larger (larger coefficient).,images/numericallyLarger.png,,,,,,,,,,,,,,,,,,,,,,,,,,,,,
,,,,,,,,,,,,,,,732,2022-01-25_12h25.25.776,multiplicationStroop,2021.2.3,Win32,60.11783095,space,3.1463,space,4.2903,right,1,0.5021,0,0,0,65,1,2,2,2 | 2,0,1.4111,1.9756,neutral,right,,,,,,stimulusFile/physical.xlsx,,,,,,,,,,,,,,,,,,,,,,,,,,,,,,,
,,,,,,,,,,,,,,,732,2022-01-25_12h25.25.776,multiplicationStroop,2021.2.3,Win32,60.11783095,,,,,right,1,0.4495,0,1,1,57,1,2,2,2 | 2,0,1.4111,1.9756,neutral,right,,,,,,stimulusFile/physical.xlsx,,,,,,,,,,,,,,,,,,,,,,,,,,,,,,,
,,,,,,,,,,,,,,,732,2022-01-25_12h25.25.776,multiplicationStroop,2021.2.3,Win32,60.11783095,,,,,right,1,0.3989,0,2,2,39,1,9,7,9 | 7,2,1.4111,1.9756,incongruent,right,,,,,,stimulusFile/physical.xlsx,,,,,,,,,,,,,,,,,,,,,,,,,,,,,,,
,,,,,,,,,,,,,,,732,2022-01-25_12h25.25.776,multiplicationStroop,2021.2.3,Win32,60.11783095,,,,,left,1,0.3812,0,3,3,21,1,7,2,7 | 2,5,1.9756,1.4111,congruent,left,,,,,,stimulusFile/physical.xlsx,,,,,,,,,,,,,,,,,,,,,,,,,,,,,,,
,,,,,,,,,,,,,,,732,2022-01-25_12h25.25.776,multiplicationStroop,2021.2.3,Win32,60.11783095,,,,,left,1,0.3925,0,4,4,23,1,9,4,9 | 4,5,1.9756,1.4111,congruent,left,,,,,,stimulusFile/physical.xlsx,,,,,,,,,,,,,,,,,,,,,,,,,,,,,,,
,,,,,,,,,,,,,,,732,2022-01-25_12h25.25.776,multiplicationStroop,2021.2.3,Win32,60.11783095,,,,,left,1,0.4925,0,5,5,49,1,3,3,3 | 3,0,1.9756,1.4111,neutral,left,,,,,,stimulusFile/physical.xlsx,,,,,,,,,,,,,,,,,,,,,,,,,,,,,,,
,,,,,,,,,,,,,,,732,2022-01-25_12h25.25.776,multiplicationStroop,2021.2.3,Win32,60.11783095,,,,,right,1,0.4399,0,6,6,37,1,4,2,4 | 2,2,1.4111,1.9756,incongruent,right,,,,,,stimulusFile/physical.xlsx,,,,,,,,,,,,,,,,,,,,,,,,,,,,,,,
,,,,,,,,,,,,,,,732,2022-01-25_12h25.25.776,multiplicationStroop,2021.2.3,Win32,60.11783095,,,,,right,1,0.4355,0,7,7,38,1,8,6,8 | 6,2,1.4111,1.9756,incongruent,right,,,,,,stimulusFile/physical.xlsx,,,,,,,,,,,,,,,,,,,,,,,,,,,,,,,
,,,,,,,,,,,,,,,732,2022-01-25_12h25.25.776,multiplicationStroop,2021.2.3,Win32,60.11783095,,,,,right,1,0.4149,0,8,8,8,1,1,3,1 | 3,2,1.4111,1.9756,congruent,right,,,,,,stimulusFile/physical.xlsx,,,,,,,,,,,,,,,,,,,,,,,,,,,,,,,
,,,,,,,,,,,,,,,732,2022-01-25_12h25.25.776,multiplicationStroop,2021.2.3,Win32,60.11783095,,,,,left,1,0.398,0,9,9,22,1,8,3,8 | 3,5,1.9756,1.4111,congruent,left,,,,,,stimulusFile/physical.xlsx,,,,,,,,,,,,,,,,,,,,,,,,,,,,,,,
,,,,,,,,,,,,,,,732,2022-01-25_12h25.25.776,multiplicationStroop,2021.2.3,Win32,60.11783095,,,,,right,1,0.422,0,10,10,3,1,8,9,8 | 9,1,1.4111,1.9756,congruent,right,,,,,,stimulusFile/physical.xlsx,,,,,,,,,,,,,,,,,,,,,,,,,,,,,,,
,,,,,,,,,,,,,,,732,2022-01-25_12h25.25.776,multiplicationStroop,2021.2.3,Win32,60.11783095,,,,,left,1,0.3651,0,11,11,7,1,9,8,9 | 8,1,1.9756,1.4111,congruent,left,,,,,,stimulusFile/physical.xlsx,,,,,,,,,,,,,,,,,,,,,,,,,,,,,,,
,,,,,,,,,,,,,,,732,2022-01-25_12h25.25.776,multiplicationStroop,2021.2.3,Win32,60.11783095,,,,,right,1,0.3175,0,12,12,1,1,3,4,3 | 4,1,1.4111,1.9756,congruent,right,,,,,,stimulusFile/physical.xlsx,,,,,,,,,,,,,,,,,,,,,,,,,,,,,,,
,,,,,,,,,,,,,,,732,2022-01-25_12h25.25.776,multiplicationStroop,2021.2.3,Win32,60.11783095,,,,,left,1,0.4141,0,13,13,12,1,3,1,3 | 1,2,1.9756,1.4111,congruent,left,,,,,,stimulusFile/physical.xlsx,,,,,,,,,,,,,,,,,,,,,,,,,,,,,,,
,,,,,,,,,,,,,,,732,2022-01-25_12h25.25.776,multiplicationStroop,2021.2.3,Win32,60.11783095,,,,,left,1,0.4498,0,14,14,24,1,1,2,1 | 2,1,1.9756,1.4111,incongruent,left,,,,,,stimulusFile/physical.xlsx,,,,,,,,,,,,,,,,,,,,,,,,,,,,,,,
,,,,,,,,,,,,,,,732,2022-01-25_12h25.25.776,multiplicationStroop,2021.2.3,Win32,60.11783095,,,,,left,1,0.4663,0,15,15,4,1,2,1,2 | 1,1,1.9756,1.4111,congruent,left,,,,,,stimulusFile/physical.xlsx,,,,,,,,,,,,,,,,,,,,,,,,,,,,,,,
,,,,,,,,,,,,,,,732,2022-01-25_12h25.25.776,multiplicationStroop,2021.2.3,Win32,60.11783095,,,,,right,1,0.4316,0,16,16,9,1,2,4,2 | 4,2,1.4111,1.9756,congruent,right,,,,,,stimulusFile/physical.xlsx,,,,,,,,,,,,,,,,,,,,,,,,,,,,,,,
,,,,,,,,,,,,,,,732,2022-01-25_12h25.25.776,multiplicationStroop,2021.2.3,Win32,60.11783095,,,,,right,1,0.4153,0,17,17,10,1,6,8,6 | 8,2,1.4111,1.9756,congruent,right,,,,,,stimulusFile/physical.xlsx,,,,,,,,,,,,,,,,,,,,,,,,,,,,,,,
,,,,,,,,,,,,,,,732,2022-01-25_12h25.25.776,multiplicationStroop,2021.2.3,Win32,60.11783095,,,,,right,1,0.4142,0,18,18,0,1,1,2,1 | 2,1,1.4111,1.9756,congruent,right,,,,,,stimulusFile/physical.xlsx,,,,,,,,,,,,,,,,,,,,,,,,,,,,,,,
,,,,,,,,,,,,,,,732,2022-01-25_12h25.25.776,multiplicationStroop,2021.2.3,Win32,60.11783095,,,,,right,0,0.2993,0,19,19,40,1,1,6,1 | 6,5,1.9756,1.4111,incongruent,left,,,,,,stimulusFile/physical.xlsx,,,,,,,,,,,,,,,,,,,,,,,,,,,,,,,
,,,,,,,,,,,,,,,732,2022-01-25_12h25.25.776,multiplicationStroop,2021.2.3,Win32,60.11783095,,,,,left,1,0.4828,0,20,20,5,1,4,3,4 | 3,1,1.9756,1.4111,congruent,left,,,,,,stimulusFile/physical.xlsx,,,,,,,,,,,,,,,,,,,,,,,,,,,,,,,
,,,,,,,,,,,,,,,732,2022-01-25_12h25.25.776,multiplicationStroop,2021.2.3,Win32,60.11783095,,,,,left,1,0.475,0,21,21,50,1,6,6,6 | 6,0,1.9756,1.4111,neutral,left,,,,,,stimulusFile/physical.xlsx,,,,,,,,,,,,,,,,,,,,,,,,,,,,,,,
,,,,,,,,,,,,,,,732,2022-01-25_12h25.25.776,multiplicationStroop,2021.2.3,Win32,60.11783095,,,,,right,1,0.2484,0,22,22,62,1,8,8,8 | 8,0,1.4111,1.9756,neutral,right,,,,,,stimulusFile/physical.xlsx,,,,,,,,,,,,,,,,,,,,,,,,,,,,,,,
,,,,,,,,,,,,,,,732,2022-01-25_12h25.25.776,multiplicationStroop,2021.2.3,Win32,60.11783095,,,,,left,0,0.375,0,23,23,47,1,9,4,9 | 4,5,1.4111,1.9756,incongruent,right,,,,,,stimulusFile/physical.xlsx,,,,,,,,,,,,,,,,,,,,,,,,,,,,,,,
,,,,,,,,,,,,,,,732,2022-01-25_12h25.25.776,multiplicationStroop,2021.2.3,Win32,60.11783095,,,,,left,1,0.4241,0,24,24,41,1,2,7,2 | 7,5,1.9756,1.4111,incongruent,left,,,,,,stimulusFile/physical.xlsx,,,,,,,,,,,,,,,,,,,,,,,,,,,,,,,
,,,,,,,,,,,,,,,732,2022-01-25_12h25.25.776,multiplicationStroop,2021.2.3,Win32,60.11783095,,,,,left,1,0.6334,0,25,25,32,1,1,3,1 | 3,2,1.9756,1.4111,incongruent,left,,,,,,stimulusFile/physical.xlsx,,,,,,,,,,,,,,,,,,,,,,,,,,,,,,,
,,,,,,,,,,,,,,,732,2022-01-25_12h25.25.776,multiplicationStroop,2021.2.3,Win32,60.11783095,,,,,left,1,0.5518,0,26,26,51,1,8,8,8 | 8,0,1.9756,1.4111,neutral,left,,,,,,stimulusFile/physical.xlsx,,,,,,,,,,,,,,,,,,,,,,,,,,,,,,,
,,,,,,,,,,,,,,,732,2022-01-25_12h25.25.776,multiplicationStroop,2021.2.3,Win32,60.11783095,,,,,left,1,0.3726,0,27,27,27,1,8,9,8 | 9,1,1.9756,1.4111,incongruent,left,,,,,,stimulusFile/physical.xlsx,,,,,,,,,,,,,,,,,,,,,,,,,,,,,,,
,,,,,,,,,,,,,,,732,2022-01-25_12h25.25.776,multiplicationStroop,2021.2.3,Win32,60.11783095,,,,,left,1,0.4379,0,28,28,35,1,7,9,7 | 9,2,1.9756,1.4111,incongruent,left,,,,,,stimulusFile/physical.xlsx,,,,,,,,,,,,,,,,,,,,,,,,,,,,,,,
,,,,,,,,,,,,,,,732,2022-01-25_12h25.25.776,multiplicationStroop,2021.2.3,Win32,60.11783095,,,,,right,1,0.3912,0,29,29,58,1,6,6,6 | 6,0,1.4111,1.9756,neutral,right,,,,,,stimulusFile/physical.xlsx,,,,,,,,,,,,,,,,,,,,,,,,,,,,,,,
,,,,,,,,,,,,,,,732,2022-01-25_12h25.25.776,multiplicationStroop,2021.2.3,Win32,60.11783095,,,,,right,0,0.3988,0,30,30,69,1,7,7,7 | 7,0,1.4111,1.9756,neutral,left,,,,,,stimulusFile/physical.xlsx,,,,,,,,,,,,,,,,,,,,,,,,,,,,,,,
,,,,,,,,,,,,,,,732,2022-01-25_12h25.25.776,multiplicationStroop,2021.2.3,Win32,60.11783095,,,,,left,1,0.4387,0,31,31,68,1,6,6,6 | 6,0,1.9756,1.4111,neutral,left,,,,,,stimulusFile/physical.xlsx,,,,,,,,,,,,,,,,,,,,,,,,,,,,,,,
,,,,,,,,,,,,,,,732,2022-01-25_12h25.25.776,multiplicationStroop,2021.2.3,Win32,60.11783095,,,,,right,1,0.4003,0,32,32,19,1,4,9,4 | 9,5,1.4111,1.9756,congruent,right,,,,,,stimulusFile/physical.xlsx,,,,,,,,,,,,,,,,,,,,,,,,,,,,,,,
,,,,,,,,,,,,,,,732,2022-01-25_12h25.25.776,multiplicationStroop,2021.2.3,Win32,60.11783095,,,,,right,1,0.4376,0,33,33,36,1,3,1,3 | 1,2,1.4111,1.9756,incongruent,right,,,,,,stimulusFile/physical.xlsx,,,,,,,,,,,,,,,,,,,,,,,,,,,,,,,
,,,,,,,,,,,,,,,732,2022-01-25_12h25.25.776,multiplicationStroop,2021.2.3,Win32,60.11783095,,,,,right,1,0.5142,0,34,34,67,1,4,4,4 | 4,0,1.4111,1.9756,neutral,right,,,,,,stimulusFile/physical.xlsx,,,,,,,,,,,,,,,,,,,,,,,,,,,,,,,
,,,,,,,,,,,,,,,732,2022-01-25_12h25.25.776,multiplicationStroop,2021.2.3,Win32,60.11783095,,,,,right,1,0.4636,0,35,35,28,1,2,1,2 | 1,1,1.4111,1.9756,incongruent,right,,,,,,stimulusFile/physical.xlsx,,,,,,,,,,,,,,,,,,,,,,,,,,,,,,,
,,,,,,,,,,,,,,,732,2022-01-25_12h25.25.776,multiplicationStroop,2021.2.3,Win32,60.11783095,,,,,left,1,0.5217,0,36,36,70,1,8,8,8 | 8,0,1.9756,1.4111,neutral,left,,,,,,stimulusFile/physical.xlsx,,,,,,,,,,,,,,,,,,,,,,,,,,,,,,,
,,,,,,,,,,,,,,,732,2022-01-25_12h25.25.776,multiplicationStroop,2021.2.3,Win32,60.11783095,,,,,left,1,0.5645,0,37,37,25,1,3,4,3 | 4,1,1.9756,1.4111,incongruent,left,,,,,,stimulusFile/physical.xlsx,,,,,,,,,,,,,,,,,,,,,,,,,,,,,,,
,,,,,,,,,,,,,,,732,2022-01-25_12h25.25.776,multiplicationStroop,2021.2.3,Win32,60.11783095,,,,,right,1,0.4745,0,38,38,45,1,7,2,7 | 2,5,1.4111,1.9756,incongruent,right,,,,,,stimulusFile/physical.xlsx,,,,,,,,,,,,,,,,,,,,,,,,,,,,,,,
,,,,,,,,,,,,,,,732,2022-01-25_12h25.25.776,multiplicationStroop,2021.2.3,Win32,60.11783095,,,,,right,1,0.4572,0,39,39,30,1,7,6,7 | 6,1,1.4111,1.9756,incongruent,right,,,,,,stimulusFile/physical.xlsx,,,,,,,,,,,,,,,,,,,,,,,,,,,,,,,
,,,,,,,,,,,,,,,732,2022-01-25_12h25.25.776,multiplicationStroop,2021.2.3,Win32,60.11783095,,,,,left,1,0.672,0,40,40,42,1,3,8,3 | 8,5,1.9756,1.4111,incongruent,left,,,,,,stimulusFile/physical.xlsx,,,,,,,,,,,,,,,,,,,,,,,,,,,,,,,
,,,,,,,,,,,,,,,732,2022-01-25_12h25.25.776,multiplicationStroop,2021.2.3,Win32,60.11783095,,,,,left,1,0.6996,0,41,41,48,1,1,1,1 | 1,0,1.9756,1.4111,neutral,left,,,,,,stimulusFile/physical.xlsx,,,,,,,,,,,,,,,,,,,,,,,,,,,,,,,
,,,,,,,,,,,,,,,732,2022-01-25_12h25.25.776,multiplicationStroop,2021.2.3,Win32,60.11783095,,,,,right,1,0.4206,0,42,42,16,1,1,6,1 | 6,5,1.4111,1.9756,congruent,right,,,,,,stimulusFile/physical.xlsx,,,,,,,,,,,,,,,,,,,,,,,,,,,,,,,
,,,,,,,,,,,,,,,732,2022-01-25_12h25.25.776,multiplicationStroop,2021.2.3,Win32,60.11783095,,,,,right,1,0.4815,0,43,43,60,1,3,3,3 | 3,0,1.4111,1.9756,neutral,right,,,,,,stimulusFile/physical.xlsx,,,,,,,,,,,,,,,,,,,,,,,,,,,,,,,
,,,,,,,,,,,,,,,732,2022-01-25_12h25.25.776,multiplicationStroop,2021.2.3,Win32,60.11783095,,,,,left,1,0.5052,0,44,44,54,1,7,7,7 | 7,0,1.9756,1.4111,neutral,left,,,,,,stimulusFile/physical.xlsx,,,,,,,,,,,,,,,,,,,,,,,,,,,,,,,
,,,,,,,,,,,,,,,732,2022-01-25_12h25.25.776,multiplicationStroop,2021.2.3,Win32,60.11783095,,,,,right,0,0.4291,0,45,45,71,1,9,9,9 | 9,0,1.4111,1.9756,neutral,left,,,,,,stimulusFile/physical.xlsx,,,,,,,,,,,,,,,,,,,,,,,,,,,,,,,
,,,,,,,,,,,,,,,732,2022-01-25_12h25.25.776,multiplicationStroop,2021.2.3,Win32,60.11783095,,,,,left,0,0.6503,0,46,46,66,1,3,3,3 | 3,0,1.9756,1.4111,neutral,right,,,,,,stimulusFile/physical.xlsx,,,,,,,,,,,,,,,,,,,,,,,,,,,,,,,
,,,,,,,,,,,,,,,732,2022-01-25_12h25.25.776,multiplicationStroop,2021.2.3,Win32,60.11783095,,,,,right,1,0.4487,0,47,47,63,1,9,9,9 | 9,0,1.4111,1.9756,neutral,right,,,,,,stimulusFile/physical.xlsx,,,,,,,,,,,,,,,,,,,,,,,,,,,,,,,
,,,,,,,,,,,,,,,732,2022-01-25_12h25.25.776,multiplicationStroop,2021.2.3,Win32,60.11783095,,,,,left,1,0.4422,0,48,48,26,1,6,7,6 | 7,1,1.9756,1.4111,incongruent,left,,,,,,stimulusFile/physical.xlsx,,,,,,,,,,,,,,,,,,,,,,,,,,,,,,,
,,,,,,,,,,,,,,,732,2022-01-25_12h25.25.776,multiplicationStroop,2021.2.3,Win32,60.11783095,,,,,right,1,0.3651,0,49,49,17,1,2,7,2 | 7,5,1.4111,1.9756,congruent,right,,,,,,stimulusFile/physical.xlsx,,,,,,,,,,,,,,,,,,,,,,,,,,,,,,,
,,,,,,,,,,,,,,,732,2022-01-25_12h25.25.776,multiplicationStroop,2021.2.3,Win32,60.11783095,,,,,left,1,0.6672,0,50,50,6,1,7,6,7 | 6,1,1.9756,1.4111,congruent,left,,,,,,stimulusFile/physical.xlsx,,,,,,,,,,,,,,,,,,,,,,,,,,,,,,,
,,,,,,,,,,,,,,,732,2022-01-25_12h25.25.776,multiplicationStroop,2021.2.3,Win32,60.11783095,,,,,left,1,0.6563,0,51,51,52,1,2,2,2 | 2,0,1.9756,1.4111,neutral,left,,,,,,stimulusFile/physical.xlsx,,,,,,,,,,,,,,,,,,,,,,,,,,,,,,,
,,,,,,,,,,,,,,,732,2022-01-25_12h25.25.776,multiplicationStroop,2021.2.3,Win32,60.11783095,,,,,left,1,0.4402,0,52,52,53,1,4,4,4 | 4,0,1.9756,1.4111,neutral,left,,,,,,stimulusFile/physical.xlsx,,,,,,,,,,,,,,,,,,,,,,,,,,,,,,,
,,,,,,,,,,,,,,,732,2022-01-25_12h25.25.776,multiplicationStroop,2021.2.3,Win32,60.11783095,,,,,left,0,0.6677,0,53,53,64,1,1,1,1 | 1,0,1.9756,1.4111,neutral,right,,,,,,stimulusFile/physical.xlsx,,,,,,,,,,,,,,,,,,,,,,,,,,,,,,,
,,,,,,,,,,,,,,,732,2022-01-25_12h25.25.776,multiplicationStroop,2021.2.3,Win32,60.11783095,,,,,right,1,0.4211,0,54,54,18,1,3,8,3 | 8,5,1.4111,1.9756,congruent,right,,,,,,stimulusFile/physical.xlsx,,,,,,,,,,,,,,,,,,,,,,,,,,,,,,,
,,,,,,,,,,,,,,,732,2022-01-25_12h25.25.776,multiplicationStroop,2021.2.3,Win32,60.11783095,,,,,right,1,0.4423,0,55,55,2,1,6,7,6 | 7,1,1.4111,1.9756,congruent,right,,,,,,stimulusFile/physical.xlsx,,,,,,,,,,,,,,,,,,,,,,,,,,,,,,,
,,,,,,,,,,,,,,,732,2022-01-25_12h25.25.776,multiplicationStroop,2021.2.3,Win32,60.11783095,,,,,right,0,0.3477,0,56,56,55,1,9,9,9 | 9,0,1.9756,1.4111,neutral,left,,,,,,stimulusFile/physical.xlsx,,,,,,,,,,,,,,,,,,,,,,,,,,,,,,,
,,,,,,,,,,,,,,,732,2022-01-25_12h25.25.776,multiplicationStroop,2021.2.3,Win32,60.11783095,,,,,right,1,0.4709,0,57,57,59,1,7,7,7 | 7,0,1.4111,1.9756,neutral,right,,,,,,stimulusFile/physical.xlsx,,,,,,,,,,,,,,,,,,,,,,,,,,,,,,,
,,,,,,,,,,,,,,,732,2022-01-25_12h25.25.776,multiplicationStroop,2021.2.3,Win32,60.11783095,,,,,left,1,0.3683,0,58,58,33,1,2,4,2 | 4,2,1.9756,1.4111,incongruent,left,,,,,,stimulusFile/physical.xlsx,,,,,,,,,,,,,,,,,,,,,,,,,,,,,,,
,,,,,,,,,,,,,,,732,2022-01-25_12h25.25.776,multiplicationStroop,2021.2.3,Win32,60.11783095,,,,,left,1,0.4417,0,59,59,34,1,6,8,6 | 8,2,1.9756,1.4111,incongruent,left,,,,,,stimulusFile/physical.xlsx,,,,,,,,,,,,,,,,,,,,,,,,,,,,,,,
,,,,,,,,,,,,,,,732,2022-01-25_12h25.25.776,multiplicationStroop,2021.2.3,Win32,60.11783095,,,,,left,1,0.5829,0,60,60,14,1,8,6,8 | 6,2,1.9756,1.4111,congruent,left,,,,,,stimulusFile/physical.xlsx,,,,,,,,,,,,,,,,,,,,,,,,,,,,,,,
,,,,,,,,,,,,,,,732,2022-01-25_12h25.25.776,multiplicationStroop,2021.2.3,Win32,60.11783095,,,,,right,1,0.5155,0,61,61,56,1,1,1,1 | 1,0,1.4111,1.9756,neutral,right,,,,,,stimulusFile/physical.xlsx,,,,,,,,,,,,,,,,,,,,,,,,,,,,,,,
,,,,,,,,,,,,,,,732,2022-01-25_12h25.25.776,multiplicationStroop,2021.2.3,Win32,60.11783095,,,,,right,1,0.5077,0,62,62,46,1,8,3,8 | 3,5,1.4111,1.9756,incongruent,right,,,,,,stimulusFile/physical.xlsx,,,,,,,,,,,,,,,,,,,,,,,,,,,,,,,
,,,,,,,,,,,,,,,732,2022-01-25_12h25.25.776,multiplicationStroop,2021.2.3,Win32,60.11783095,,,,,right,1,0.4932,0,63,63,44,1,6,1,6 | 1,5,1.4111,1.9756,incongruent,right,,,,,,stimulusFile/physical.xlsx,,,,,,,,,,,,,,,,,,,,,,,,,,,,,,,
,,,,,,,,,,,,,,,732,2022-01-25_12h25.25.776,multiplicationStroop,2021.2.3,Win32,60.11783095,,,,,left,1,0.6307,0,64,64,43,1,4,9,4 | 9,5,1.9756,1.4111,incongruent,left,,,,,,stimulusFile/physical.xlsx,,,,,,,,,,,,,,,,,,,,,,,,,,,,,,,
,,,,,,,,,,,,,,,732,2022-01-25_12h25.25.776,multiplicationStroop,2021.2.3,Win32,60.11783095,,,,,right,1,0.3657,0,65,65,31,1,9,8,9 | 8,1,1.4111,1.9756,incongruent,right,,,,,,stimulusFile/physical.xlsx,,,,,,,,,,,,,,,,,,,,,,,,,,,,,,,
,,,,,,,,,,,,,,,732,2022-01-25_12h25.25.776,multiplicationStroop,2021.2.3,Win32,60.11783095,,,,,left,1,0.3326,0,66,66,20,1,6,1,6 | 1,5,1.9756,1.4111,congruent,left,,,,,,stimulusFile/physical.xlsx,,,,,,,,,,,,,,,,,,,,,,,,,,,,,,,
,,,,,,,,,,,,,,,732,2022-01-25_12h25.25.776,multiplicationStroop,2021.2.3,Win32,60.11783095,,,,,right,1,0.265,0,67,67,11,1,7,9,7 | 9,2,1.4111,1.9756,congruent,right,,,,,,stimulusFile/physical.xlsx,,,,,,,,,,,,,,,,,,,,,,,,,,,,,,,
,,,,,,,,,,,,,,,732,2022-01-25_12h25.25.776,multiplicationStroop,2021.2.3,Win32,60.11783095,,,,,left,1,0.2711,0,68,68,13,1,4,2,4 | 2,2,1.9756,1.4111,congruent,left,,,,,,stimulusFile/physical.xlsx,,,,,,,,,,,,,,,,,,,,,,,,,,,,,,,
,,,,,,,,,,,,,,,732,2022-01-25_12h25.25.776,multiplicationStroop,2021.2.3,Win32,60.11783095,,,,,right,1,0.2596,0,69,69,61,1,4,4,4 | 4,0,1.4111,1.9756,neutral,right,,,,,,stimulusFile/physical.xlsx,,,,,,,,,,,,,,,,,,,,,,,,,,,,,,,
,,,,,,,,,,,,,,,732,2022-01-25_12h25.25.776,multiplicationStroop,2021.2.3,Win32,60.11783095,,,,,left,0,0.3503,0,70,70,29,1,4,3,4 | 3,1,1.4111,1.9756,incongruent,right,,,,,,stimulusFile/physical.xlsx,,,,,,,,,,,,,,,,,,,,,,,,,,,,,,,
,,,,,,,,,,,,,,,732,2022-01-25_12h25.25.776,multiplicationStroop,2021.2.3,Win32,60.11783095,,,,,left,1,0.4832,0,71,71,15,1,9,7,9 | 7,2,1.9756,1.4111,congruent,left,,,,,,stimulusFile/physical.xlsx,,,,,,,,,,,,,,,,,,,,,,,,,,,,,,,
,,,,,,,,,,,,,,,732,2022-01-25_12h25.25.776,multiplicationStroop,2021.2.3,Win32,60.11783095,,,,,,,,,,,,,,,,,,,,,0,1,1,1,1,stimulusFile/physical.xlsx,PHYSICALLY larger (larger font size).,images/physicallyLarger.png,,,,,,,,,,,,,,,,,,,,,,,,,,,,,
,,,,,,,,,,,,,,,732,2022-01-25_12h25.25.776,multiplicationStroop,2021.2.3,Win32,60.11783095,,,,,,,,,,,,,,,,,,,,,,,,,,,,,space,0.8661,space,1.3374,15,2.3918,1,0,0,0,19,1,5,×,3,5 × 3,neutral,largerFirst,1.5,1.5,15,,,,,,,,
,,,,,,,,,,,,,,,732,2022-01-25_12h25.25.776,multiplicationStroop,2021.2.3,Win32,60.11783095,,,,,,,,,,,,,,,,,,,,,,,,,,,,,,,,,9,1.6815,1,0,1,1,29,1,3,×,3,3 × 3,neutral,tie,1.5,1.5,9,,,,,,,,
,,,,,,,,,,,,,,,732,2022-01-25_12h25.25.776,multiplicationStroop,2021.2.3,Win32,60.11783095,,,,,,,,,,,,,,,,,,,,,,,,,,,,,,,,,72,2.0982,1,0,2,2,25,1,9,×,8,9 × 8,neutral,largerFirst,1.5,1.5,72,,,,,,,,
,,,,,,,,,,,,,,,732,2022-01-25_12h25.25.776,multiplicationStroop,2021.2.3,Win32,60.11783095,,,,,,,,,,,,,,,,,,,,,,,,,,,,,,,,,35,3.1302,1,0,3,3,15,1,7,×,5,7 × 5,neutral,largerFirst,1.5,1.5,35,,,,,,,,
,,,,,,,,,,,,,,,732,2022-01-25_12h25.25.776,multiplicationStroop,2021.2.3,Win32,60.11783095,,,,,,,,,,,,,,,,,,,,,,,,,,,,,,,,,49,2.9243,1,0,4,4,33,1,7,×,7,7 × 7,neutral,tie,1.5,1.5,49,,,,,,,,
,,,,,,,,,,,,,,,732,2022-01-25_12h25.25.776,multiplicationStroop,2021.2.3,Win32,60.11783095,,,,,,,,,,,,,,,,,,,,,,,,,,,,,,,,,18,1.9318,1,0,5,5,14,1,6,×,3,6 × 3,neutral,largerFirst,1.5,1.5,18,,,,,,,,
,,,,,,,,,,,,,,,732,2022-01-25_12h25.25.776,multiplicationStroop,2021.2.3,Win32,60.11783095,,,,,,,,,,,,,,,,,,,,,,,,,,,,,,,,,32,1.7477,1,0,6,6,9,1,4,×,8,4 × 8,neutral,smallerFirst,1.5,1.5,32,,,,,,,,
,,,,,,,,,,,,,,,732,2022-01-25_12h25.25.776,multiplicationStroop,2021.2.3,Win32,60.11783095,,,,,,,,,,,,,,,,,,,,,,,,,,,,,,,,,36,2.0148,1,0,7,7,32,1,6,×,6,6 × 6,neutral,tie,1.5,1.5,36,,,,,,,,
,,,,,,,,,,,,,,,732,2022-01-25_12h25.25.776,multiplicationStroop,2021.2.3,Win32,60.11783095,,,,,,,,,,,,,,,,,,,,,,,,,,,,,,,,,28,2.8804,1,0,8,8,3,1,4,×,7,4 × 7,neutral,smallerFirst,1.5,1.5,28,,,,,,,,
,,,,,,,,,,,,,,,732,2022-01-25_12h25.25.776,multiplicationStroop,2021.2.3,Win32,60.11783095,,,,,,,,,,,,,,,,,,,,,,,,,,,,,,,,,27,3.2054,1,0,9,9,0,1,3,×,9,3 × 9,neutral,smallerFirst,1.5,1.5,27,,,,,,,,
,,,,,,,,,,,,,,,732,2022-01-25_12h25.25.776,multiplicationStroop,2021.2.3,Win32,60.11783095,,,,,,,,,,,,,,,,,,,,,,,,,,,,,,,,,56,1.8814,1,0,10,10,23,1,8,×,7,8 × 7,neutral,largerFirst,1.5,1.5,56,,,,,,,,
,,,,,,,,,,,,,,,732,2022-01-25_12h25.25.776,multiplicationStroop,2021.2.3,Win32,60.11783095,,,,,,,,,,,,,,,,,,,,,,,,,,,,,,,,,40,1.8481,1,0,11,11,10,1,5,×,8,5 × 8,neutral,smallerFirst,1.5,1.5,40,,,,,,,,
,,,,,,,,,,,,,,,732,2022-01-25_12h25.25.776,multiplicationStroop,2021.2.3,Win32,60.11783095,,,,,,,,,,,,,,,,,,,,,,,,,,,,,,,,,16,1.5656,1,0,12,12,27,1,8,×,2,8 × 2,neutral,largerFirst,1.5,1.5,16,,,,,,,,
,,,,,,,,,,,,,,,732,2022-01-25_12h25.25.776,multiplicationStroop,2021.2.3,Win32,60.11783095,,,,,,,,,,,,,,,,,,,,,,,,,,,,,,,,,81,2.7137,1,0,13,13,35,1,9,×,9,9 × 9,neutral,tie,1.5,1.5,81,,,,,,,,
,,,,,,,,,,,,,,,732,2022-01-25_12h25.25.776,multiplicationStroop,2021.2.3,Win32,60.11783095,,,,,,,,,,,,,,,,,,,,,,,,,,,,,,,,,18,1.6981,1,0,14,14,4,1,2,×,9,2 × 9,neutral,smallerFirst,1.5,1.5,18,,,,,,,,
,,,,,,,,,,,,,,,732,2022-01-25_12h25.25.776,multiplicationStroop,2021.2.3,Win32,60.11783095,,,,,,,,,,,,,,,,,,,,,,,,,,,,,,,,,25,1.8819,0,0,15,15,16,1,6,×,4,6 × 4,neutral,largerFirst,1.5,1.5,24,,,,,,,,
,,,,,,,,,,,,,,,732,2022-01-25_12h25.25.776,multiplicationStroop,2021.2.3,Win32,60.11783095,,,,,,,,,,,,,,,,,,,,,,,,,,,,,,,,,10,1.6978,1,0,16,16,18,1,5,×,2,5 × 2,neutral,largerFirst,1.5,1.5,10,,,,,,,,
,,,,,,,,,,,,,,,732,2022-01-25_12h25.25.776,multiplicationStroop,2021.2.3,Win32,60.11783095,,,,,,,,,,,,,,,,,,,,,,,,,,,,,,,,,4,1.4655,1,0,17,17,28,1,2,×,2,2 × 2,neutral,tie,1.5,1.5,4,,,,,,,,
,,,,,,,,,,,,,,,732,2022-01-25_12h25.25.776,multiplicationStroop,2021.2.3,Win32,60.11783095,,,,,,,,,,,,,,,,,,,,,,,,,,,,,,,,,48,1.9814,1,0,18,18,1,1,6,×,8,6 × 8,neutral,smallerFirst,1.5,1.5,48,,,,,,,,
,,,,,,,,,,,,,,,732,2022-01-25_12h25.25.776,multiplicationStroop,2021.2.3,Win32,60.11783095,,,,,,,,,,,,,,,,,,,,,,,,,,,,,,,,,8,1.565,1,0,19,19,17,1,4,×,2,4 × 2,neutral,largerFirst,1.5,1.5,8,,,,,,,,
,,,,,,,,,,,,,,,732,2022-01-25_12h25.25.776,multiplicationStroop,2021.2.3,Win32,60.11783095,,,,,,,,,,,,,,,,,,,,,,,,,,,,,,,,,21,1.5986,1,0,20,20,22,1,7,×,3,7 × 3,neutral,largerFirst,1.5,1.5,21,,,,,,,,
,,,,,,,,,,,,,,,732,2022-01-25_12h25.25.776,multiplicationStroop,2021.2.3,Win32,60.11783095,,,,,,,,,,,,,,,,,,,,,,,,,,,,,,,,,54,2.3474,1,0,21,21,21,1,9,×,6,9 × 6,neutral,largerFirst,1.5,1.5,54,,,,,,,,
,,,,,,,,,,,,,,,732,2022-01-25_12h25.25.776,multiplicationStroop,2021.2.3,Win32,60.11783095,,,,,,,,,,,,,,,,,,,,,,,,,,,,,,,,,30,2.0479,1,0,22,22,5,1,5,×,6,5 × 6,neutral,smallerFirst,1.5,1.5,30,,,,,,,,
,,,,,,,,,,,,,,,732,2022-01-25_12h25.25.776,multiplicationStroop,2021.2.3,Win32,60.11783095,,,,,,,,,,,,,,,,,,,,,,,,,,,,,,,,,6,1.9651,1,0,23,23,12,1,2,×,3,2 × 3,neutral,smallerFirst,1.5,1.5,6,,,,,,,,
,,,,,,,,,,,,,,,732,2022-01-25_12h25.25.776,multiplicationStroop,2021.2.3,Win32,60.11783095,,,,,,,,,,,,,,,,,,,,,,,,,,,,,,,,,45,1.6648,1,0,24,24,24,1,9,×,5,9 × 5,neutral,largerFirst,1.5,1.5,45,,,,,,,,
,,,,,,,,,,,,,,,732,2022-01-25_12h25.25.776,multiplicationStroop,2021.2.3,Win32,60.11783095,,,,,,,,,,,,,,,,,,,,,,,,,,,,,,,,,14,2.0146,1,0,25,25,2,1,2,×,7,2 × 7,neutral,smallerFirst,1.5,1.5,14,,,,,,,,
,,,,,,,,,,,,,,,732,2022-01-25_12h25.25.776,multiplicationStroop,2021.2.3,Win32,60.11783095,,,,,,,,,,,,,,,,,,,,,,,,,,,,,,,,,64,1.9482,1,0,26,26,34,1,8,×,8,8 × 8,neutral,tie,1.5,1.5,64,,,,,,,,
,,,,,,,,,,,,,,,732,2022-01-25_12h25.25.776,multiplicationStroop,2021.2.3,Win32,60.11783095,,,,,,,,,,,,,,,,,,,,,,,,,,,,,,,,,12,1.3985,1,0,27,27,11,1,2,×,6,2 × 6,neutral,smallerFirst,1.5,1.5,12,,,,,,,,
,,,,,,,,,,,,,,,732,2022-01-25_12h25.25.776,multiplicationStroop,2021.2.3,Win32,60.11783095,,,,,,,,,,,,,,,,,,,,,,,,,,,,,,,,,24,1.7149,1,0,28,28,8,1,3,×,8,3 × 8,neutral,smallerFirst,1.5,1.5,24,,,,,,,,
,,,,,,,,,,,,,,,732,2022-01-25_12h25.25.776,multiplicationStroop,2021.2.3,Win32,60.11783095,,,,,,,,,,,,,,,,,,,,,,,,,,,,,,,,,16,1.5485,1,0,29,29,30,1,4,×,4,4 × 4,neutral,tie,1.5,1.5,16,,,,,,,,
,,,,,,,,,,,,,,,732,2022-01-25_12h25.25.776,multiplicationStroop,2021.2.3,Win32,60.11783095,,,,,,,,,,,,,,,,,,,,,,,,,,,,,,,,,42,1.8982,1,0,30,30,20,1,7,×,6,7 × 6,neutral,largerFirst,1.5,1.5,42,,,,,,,,
,,,,,,,,,,,,,,,732,2022-01-25_12h25.25.776,multiplicationStroop,2021.2.3,Win32,60.11783095,,,,,,,,,,,,,,,,,,,,,,,,,,,,,,,,,2,1.9481,0,0,31,31,6,1,4,×,5,4 × 5,neutral,smallerFirst,1.5,1.5,20,,,,,,,,
,,,,,,,,,,,,,,,732,2022-01-25_12h25.25.776,multiplicationStroop,2021.2.3,Win32,60.11783095,,,,,,,,,,,,,,,,,,,,,,,,,,,,,,,,,18,2.8307,0,0,32,32,7,1,3,×,4,3 × 4,neutral,smallerFirst,1.5,1.5,12,,,,,,,,
,,,,,,,,,,,,,,,732,2022-01-25_12h25.25.776,multiplicationStroop,2021.2.3,Win32,60.11783095,,,,,,,,,,,,,,,,,,,,,,,,,,,,,,,,,25,1.7252,1,0,33,33,31,1,5,×,5,5 × 5,neutral,tie,1.5,1.5,25,,,,,,,,
,,,,,,,,,,,,,,,732,2022-01-25_12h25.25.776,multiplicationStroop,2021.2.3,Win32,60.11783095,,,,,,,,,,,,,,,,,,,,,,,,,,,,,,,,,63,3.4802,1,0,34,34,26,1,9,×,7,9 × 7,neutral,largerFirst,1.5,1.5,63,,,,,,,,
,,,,,,,,,,,,,,,732,2022-01-25_12h25.25.776,multiplicationStroop,2021.2.3,Win32,60.11783095,,,,,,,,,,,,,,,,,,,,,,,,,,,,,,,,,32,1.8813,0,0,35,35,13,1,4,×,9,4 × 9,neutral,smallerFirst,1.5,1.5,36,,,,,,,,
,,,,,,,,,,,,,,,732,2022-01-25_12h25.25.776,multiplicationStroop,2021.2.3,Win32,60.11783095,,,,,,,,,,,,,,,,,,,,,,,,,,,,,,,,,,,,,,,,,,,,,,,,,,0,0,0,0,1,stimulusFile/mult_blk1.xlsx,,
,,,,,,,,,,,,,,,732,2022-01-25_12h25.25.776,multiplicationStroop,2021.2.3,Win32,60.11783095,,,,,,,,,,,,,,,,,,,,,,,,,,,,,,,space,1.2051,24,3.0566,1,0,0,0,11,1,4,×,6,4 × 6,congruent,smallerFirst,1,2,24,,,,,,,,
,,,,,,,,,,,,,,,732,2022-01-25_12h25.25.776,multiplicationStroop,2021.2.3,Win32,60.11783095,,,,,,,,,,,,,,,,,,,,,,,,,,,,,,,,,56,1.9316,1,0,1,1,22,1,8,×,7,8 × 7,congruent,largerFirst,2,1,56,,,,,,,,
,,,,,,,,,,,,,,,732,2022-01-25_12h25.25.776,multiplicationStroop,2021.2.3,Win32,60.11783095,,,,,,,,,,,,,,,,,,,,,,,,,,,,,,,,,64,2.0811,1,0,2,2,34,1,8,×,8,8 × 8,neutral,tie,1,2,64,,,,,,,,
,,,,,,,,,,,,,,,732,2022-01-25_12h25.25.776,multiplicationStroop,2021.2.3,Win32,60.11783095,,,,,,,,,,,,,,,,,,,,,,,,,,,,,,,,,9,1.5148,1,0,3,3,29,1,3,×,3,3 × 3,neutral,tie,1,2,9,,,,,,,,
,,,,,,,,,,,,,,,732,2022-01-25_12h25.25.776,multiplicationStroop,2021.2.3,Win32,60.11783095,,,,,,,,,,,,,,,,,,,,,,,,,,,,,,,,,48,2.8309,1,0,4,4,4,1,6,×,8,6 × 8,congruent,smallerFirst,1,2,48,,,,,,,,
,,,,,,,,,,,,,,,732,2022-01-25_12h25.25.776,multiplicationStroop,2021.2.3,Win32,60.11783095,,,,,,,,,,,,,,,,,,,,,,,,,,,,,,,,,32,1.6899,1,0,5,5,6,1,4,×,8,4 × 8,congruent,smallerFirst,1,2,32,,,,,,,,
,,,,,,,,,,,,,,,732,2022-01-25_12h25.25.776,multiplicationStroop,2021.2.3,Win32,60.11783095,,,,,,,,,,,,,,,,,,,,,,,,,,,,,,,,,45,2.4143,1,0,6,6,9,1,5,×,9,5 × 9,congruent,smallerFirst,1,2,45,,,,,,,,
,,,,,,,,,,,,,,,732,2022-01-25_12h25.25.776,multiplicationStroop,2021.2.3,Win32,60.11783095,,,,,,,,,,,,,,,,,,,,,,,,,,,,,,,,,20,1.6251,1,0,7,7,21,1,5,×,4,5 × 4,congruent,largerFirst,2,1,20,,,,,,,,
,,,,,,,,,,,,,,,732,2022-01-25_12h25.25.776,multiplicationStroop,2021.2.3,Win32,60.11783095,,,,,,,,,,,,,,,,,,,,,,,,,,,,,,,,,30,2.0147,1,0,8,8,1,1,5,×,6,5 × 6,congruent,smallerFirst,1,2,30,,,,,,,,
,,,,,,,,,,,,,,,732,2022-01-25_12h25.25.776,multiplicationStroop,2021.2.3,Win32,60.11783095,,,,,,,,,,,,,,,,,,,,,,,,,,,,,,,,,40,1.8816,1,0,9,9,20,1,8,×,5,8 × 5,congruent,largerFirst,2,1,40,,,,,,,,
,,,,,,,,,,,,,,,732,2022-01-25_12h25.25.776,multiplicationStroop,2021.2.3,Win32,60.11783095,,,,,,,,,,,,,,,,,,,,,,,,,,,,,,,,,27,1.9481,1,0,10,10,12,1,3,×,9,3 × 9,congruent,smallerFirst,1,2,27,,,,,,,,
,,,,,,,,,,,,,,,732,2022-01-25_12h25.25.776,multiplicationStroop,2021.2.3,Win32,60.11783095,,,,,,,,,,,,,,,,,,,,,,,,,,,,,,,,,24,2.0141,1,0,11,11,24,1,8,×,3,8 × 3,congruent,largerFirst,2,1,24,,,,,,,,
,,,,,,,,,,,,,,,732,2022-01-25_12h25.25.776,multiplicationStroop,2021.2.3,Win32,60.11783095,,,,,,,,,,,,,,,,,,,,,,,,,,,,,,,,,25,1.6322,1,0,12,12,31,1,5,×,5,5 × 5,neutral,tie,1,2,25,,,,,,,,
,,,,,,,,,,,,,,,732,2022-01-25_12h25.25.776,multiplicationStroop,2021.2.3,Win32,60.11783095,,,,,,,,,,,,,,,,,,,,,,,,,,,,,,,,,16,1.8144,1,0,13,13,30,1,4,×,4,4 × 4,neutral,tie,1,2,16,,,,,,,,
,,,,,,,,,,,,,,,732,2022-01-25_12h25.25.776,multiplicationStroop,2021.2.3,Win32,60.11783095,,,,,,,,,,,,,,,,,,,,,,,,,,,,,,,,,72,2.1984,1,0,14,14,3,1,8,×,9,8 × 9,congruent,smallerFirst,1,2,72,,,,,,,,
,,,,,,,,,,,,,,,732,2022-01-25_12h25.25.776,multiplicationStroop,2021.2.3,Win32,60.11783095,,,,,,,,,,,,,,,,,,,,,,,,,,,,,,,,,16,1.5646,1,0,15,15,19,1,8,×,2,8 × 2,congruent,largerFirst,2,1,16,,,,,,,,
,,,,,,,,,,,,,,,732,2022-01-25_12h25.25.776,multiplicationStroop,2021.2.3,Win32,60.11783095,,,,,,,,,,,,,,,,,,,,,,,,,,,,,,,,,63,2.1815,1,0,16,16,7,1,7,×,9,7 × 9,congruent,smallerFirst,1,2,63,,,,,,,,
,,,,,,,,,,,,,,,732,2022-01-25_12h25.25.776,multiplicationStroop,2021.2.3,Win32,60.11783095,,,,,,,,,,,,,,,,,,,,,,,,,,,,,,,,,49,2.1476,1,0,17,17,33,1,7,×,7,7 × 7,neutral,tie,1,2,49,,,,,,,,
,,,,,,,,,,,,,,,732,2022-01-25_12h25.25.776,multiplicationStroop,2021.2.3,Win32,60.11783095,,,,,,,,,,,,,,,,,,,,,,,,,,,,,,,,,15,1.5822,1,0,18,18,18,1,5,×,3,5 × 3,congruent,largerFirst,2,1,15,,,,,,,,
,,,,,,,,,,,,,,,732,2022-01-25_12h25.25.776,multiplicationStroop,2021.2.3,Win32,60.11783095,,,,,,,,,,,,,,,,,,,,,,,,,,,,,,,,,12,1.498,1,0,19,19,5,1,2,×,6,2 × 6,congruent,smallerFirst,1,2,12,,,,,,,,
,,,,,,,,,,,,,,,732,2022-01-25_12h25.25.776,multiplicationStroop,2021.2.3,Win32,60.11783095,,,,,,,,,,,,,,,,,,,,,,,,,,,,,,,,,36,2.065,1,0,20,20,32,1,6,×,6,6 × 6,neutral,tie,1,2,36,,,,,,,,
,,,,,,,,,,,,,,,732,2022-01-25_12h25.25.776,multiplicationStroop,2021.2.3,Win32,60.11783095,,,,,,,,,,,,,,,,,,,,,,,,,,,,,,,,,81,1.9981,1,0,21,21,35,1,9,×,9,9 × 9,neutral,tie,1,2,81,,,,,,,,
,,,,,,,,,,,,,,,732,2022-01-25_12h25.25.776,multiplicationStroop,2021.2.3,Win32,60.11783095,,,,,,,,,,,,,,,,,,,,,,,,,,,,,,,,,54,2.0643,1,0,22,22,26,1,9,×,6,9 × 6,congruent,largerFirst,2,1,54,,,,,,,,
,,,,,,,,,,,,,,,732,2022-01-25_12h25.25.776,multiplicationStroop,2021.2.3,Win32,60.11783095,,,,,,,,,,,,,,,,,,,,,,,,,,,,,,,,,12,1.3816,1,0,23,23,16,1,4,×,3,4 × 3,congruent,largerFirst,2,1,12,,,,,,,,
,,,,,,,,,,,,,,,732,2022-01-25_12h25.25.776,multiplicationStroop,2021.2.3,Win32,60.11783095,,,,,,,,,,,,,,,,,,,,,,,,,,,,,,,,,42,2.3477,1,0,24,24,17,1,7,×,6,7 × 6,congruent,largerFirst,2,1,42,,,,,,,,
,,,,,,,,,,,,,,,732,2022-01-25_12h25.25.776,multiplicationStroop,2021.2.3,Win32,60.11783095,,,,,,,,,,,,,,,,,,,,,,,,,,,,,,,,,36,2.3589,1,0,25,25,14,1,9,×,4,9 × 4,congruent,largerFirst,2,1,36,,,,,,,,
,,,,,,,,,,,,,,,732,2022-01-25_12h25.25.776,multiplicationStroop,2021.2.3,Win32,60.11783095,,,,,,,,,,,,,,,,,,,,,,,,,,,,,,,,,18,1.6978,1,0,26,26,25,1,6,×,3,6 × 3,congruent,largerFirst,2,1,18,,,,,,,,
,,,,,,,,,,,,,,,732,2022-01-25_12h25.25.776,multiplicationStroop,2021.2.3,Win32,60.11783095,,,,,,,,,,,,,,,,,,,,,,,,,,,,,,,,,18,1.6319,1,0,27,27,8,1,2,×,9,2 × 9,congruent,smallerFirst,1,2,18,,,,,,,,
,,,,,,,,,,,,,,,732,2022-01-25_12h25.25.776,multiplicationStroop,2021.2.3,Win32,60.11783095,,,,,,,,,,,,,,,,,,,,,,,,,,,,,,,,,6,1.4984,1,0,28,28,27,1,3,×,2,3 × 2,congruent,largerFirst,2,1,6,,,,,,,,
,,,,,,,,,,,,,,,732,2022-01-25_12h25.25.776,multiplicationStroop,2021.2.3,Win32,60.11783095,,,,,,,,,,,,,,,,,,,,,,,,,,,,,,,,,8,1.515,1,0,29,29,23,1,4,×,2,4 × 2,congruent,largerFirst,2,1,8,,,,,,,,
,,,,,,,,,,,,,,,732,2022-01-25_12h25.25.776,multiplicationStroop,2021.2.3,Win32,60.11783095,,,,,,,,,,,,,,,,,,,,,,,,,,,,,,,,,4,1.5317,1,0,30,30,28,1,2,×,2,2 × 2,neutral,tie,1,2,4,,,,,,,,
,,,,,,,,,,,,,,,732,2022-01-25_12h25.25.776,multiplicationStroop,2021.2.3,Win32,60.11783095,,,,,,,,,,,,,,,,,,,,,,,,,,,,,,,,,35,2.0147,1,0,31,31,15,1,7,×,5,7 × 5,congruent,largerFirst,2,1,35,,,,,,,,
,,,,,,,,,,,,,,,732,2022-01-25_12h25.25.776,multiplicationStroop,2021.2.3,Win32,60.11783095,,,,,,,,,,,,,,,,,,,,,,,,,,,,,,,,,21,1.5486,1,0,32,32,2,1,3,×,7,3 × 7,congruent,smallerFirst,1,2,21,,,,,,,,
,,,,,,,,,,,,,,,732,2022-01-25_12h25.25.776,multiplicationStroop,2021.2.3,Win32,60.11783095,,,,,,,,,,,,,,,,,,,,,,,,,,,,,,,,,10,1.6817,1,0,33,33,10,1,2,×,5,2 × 5,congruent,smallerFirst,1,2,10,,,,,,,,
,,,,,,,,,,,,,,,732,2022-01-25_12h25.25.776,multiplicationStroop,2021.2.3,Win32,60.11783095,,,,,,,,,,,,,,,,,,,,,,,,,,,,,,,,,28,2.8473,1,0,34,34,13,1,4,×,7,4 × 7,congruent,smallerFirst,1,2,28,,,,,,,,
,,,,,,,,,,,,,,,732,2022-01-25_12h25.25.776,multiplicationStroop,2021.2.3,Win32,60.11783095,,,,,,,,,,,,,,,,,,,,,,,,,,,,,,,,,14,1.7245,1,0,35,35,0,1,2,×,7,2 × 7,congruent,smallerFirst,1,2,14,,,,,,,,
,,,,,,,,,,,,,,,732,2022-01-25_12h25.25.776,multiplicationStroop,2021.2.3,Win32,60.11783095,,,,,,,,,,,,,,,,,,,,,,,,,,,,,,,,,,,,,,,,,,,,,,,,,,0,1,1,3,1,stimulusFile/mult_blk4_congruent.xlsx,,
,,,,,,,,,,,,,,,732,2022-01-25_12h25.25.776,multiplicationStroop,2021.2.3,Win32,60.11783095,,,,,,,,,,,,,,,,,,,,,,,,,,,,,,,space,6.0539,6,1.8022,1,0,0,0,11,1,2,×,3,2 × 3,incongruent,smallerFirst,2,1,6,,,,,,,,
,,,,,,,,,,,,,,,732,2022-01-25_12h25.25.776,multiplicationStroop,2021.2.3,Win32,60.11783095,,,,,,,,,,,,,,,,,,,,,,,,,,,,,,,,,16,1.7986,1,0,1,1,23,1,8,×,2,8 × 2,incongruent,largerFirst,1,2,16,,,,,,,,
,,,,,,,,,,,,,,,732,2022-01-25_12h25.25.776,multiplicationStroop,2021.2.3,Win32,60.11783095,,,,,,,,,,,,,,,,,,,,,,,,,,,,,,,,,63,3.1638,1,0,2,2,3,1,7,×,9,7 × 9,incongruent,smallerFirst,2,1,63,,,,,,,,
,,,,,,,,,,,,,,,732,2022-01-25_12h25.25.776,multiplicationStroop,2021.2.3,Win32,60.11783095,,,,,,,,,,,,,,,,,,,,,,,,,,,,,,,,,12,1.6066,1,0,3,3,5,1,3,×,4,3 × 4,incongruent,smallerFirst,2,1,12,,,,,,,,
,,,,,,,,,,,,,,,732,2022-01-25_12h25.25.776,multiplicationStroop,2021.2.3,Win32,60.11783095,,,,,,,,,,,,,,,,,,,,,,,,,,,,,,,,,12,1.6481,1,0,4,4,19,1,6,×,2,6 × 2,incongruent,largerFirst,1,2,12,,,,,,,,
,,,,,,,,,,,,,,,732,2022-01-25_12h25.25.776,multiplicationStroop,2021.2.3,Win32,60.11783095,,,,,,,,,,,,,,,,,,,,,,,,,,,,,,,,,28,2.148,1,0,5,5,16,1,7,×,4,7 × 4,incongruent,largerFirst,1,2,28,,,,,,,,
,,,,,,,,,,,,,,,732,2022-01-25_12h25.25.776,multiplicationStroop,2021.2.3,Win32,60.11783095,,,,,,,,,,,,,,,,,,,,,,,,,,,,,,,,,45,2.1136,1,0,6,6,22,1,9,×,5,9 × 5,incongruent,largerFirst,1,2,45,,,,,,,,
,,,,,,,,,,,,,,,732,2022-01-25_12h25.25.776,multiplicationStroop,2021.2.3,Win32,60.11783095,,,,,,,,,,,,,,,,,,,,,,,,,,,,,,,,,81,2.2648,1,0,7,7,35,1,9,×,9,9 × 9,incongruent,tie,1,2,81,,,,,,,,
,,,,,,,,,,,,,,,732,2022-01-25_12h25.25.776,multiplicationStroop,2021.2.3,Win32,60.11783095,,,,,,,,,,,,,,,,,,,,,,,,,,,,,,,,,42,3.4635,1,0,8,8,17,1,7,×,6,7 × 6,incongruent,largerFirst,1,2,42,,,,,,,,
,,,,,,,,,,,,,,,732,2022-01-25_12h25.25.776,multiplicationStroop,2021.2.3,Win32,60.11783095,,,,,,,,,,,,,,,,,,,,,,,,,,,,,,,,,48,2.0923,1,0,9,9,1,1,6,×,8,6 × 8,incongruent,smallerFirst,2,1,48,,,,,,,,
,,,,,,,,,,,,,,,732,2022-01-25_12h25.25.776,multiplicationStroop,2021.2.3,Win32,60.11783095,,,,,,,,,,,,,,,,,,,,,,,,,,,,,,,,,25,1.5482,1,0,10,10,31,1,5,×,5,5 × 5,incongruent,tie,1,2,25,,,,,,,,
,,,,,,,,,,,,,,,732,2022-01-25_12h25.25.776,multiplicationStroop,2021.2.3,Win32,60.11783095,,,,,,,,,,,,,,,,,,,,,,,,,,,,,,,,,49,1.8817,1,0,11,11,33,1,7,×,7,7 × 7,incongruent,tie,1,2,49,,,,,,,,
,,,,,,,,,,,,,,,732,2022-01-25_12h25.25.776,multiplicationStroop,2021.2.3,Win32,60.11783095,,,,,,,,,,,,,,,,,,,,,,,,,,,,,,,,,15,1.6814,1,0,12,12,10,1,3,×,5,3 × 5,incongruent,smallerFirst,2,1,15,,,,,,,,
,,,,,,,,,,,,,,,732,2022-01-25_12h25.25.776,multiplicationStroop,2021.2.3,Win32,60.11783095,,,,,,,,,,,,,,,,,,,,,,,,,,,,,,,,,18,1.8818,1,0,13,13,8,1,3,×,6,3 × 6,incongruent,smallerFirst,2,1,18,,,,,,,,
,,,,,,,,,,,,,,,732,2022-01-25_12h25.25.776,multiplicationStroop,2021.2.3,Win32,60.11783095,,,,,,,,,,,,,,,,,,,,,,,,,,,,,,,,,4,1.4151,1,0,14,14,28,1,2,×,2,2 × 2,incongruent,tie,1,2,4,,,,,,,,
,,,,,,,,,,,,,,,732,2022-01-25_12h25.25.776,multiplicationStroop,2021.2.3,Win32,60.11783095,,,,,,,,,,,,,,,,,,,,,,,,,,,,,,,,,10,1.5483,1,0,15,15,21,1,5,×,2,5 × 2,incongruent,largerFirst,1,2,10,,,,,,,,
,,,,,,,,,,,,,,,732,2022-01-25_12h25.25.776,multiplicationStroop,2021.2.3,Win32,60.11783095,,,,,,,,,,,,,,,,,,,,,,,,,,,,,,,,,35,2.0146,1,0,16,16,12,1,5,×,7,5 × 7,incongruent,smallerFirst,2,1,35,,,,,,,,
,,,,,,,,,,,,,,,732,2022-01-25_12h25.25.776,multiplicationStroop,2021.2.3,Win32,60.11783095,,,,,,,,,,,,,,,,,,,,,,,,,,,,,,,,,8,1.5989,1,0,17,17,24,1,4,×,2,4 × 2,incongruent,largerFirst,1,2,8,,,,,,,,
,,,,,,,,,,,,,,,732,2022-01-25_12h25.25.776,multiplicationStroop,2021.2.3,Win32,60.11783095,,,,,,,,,,,,,,,,,,,,,,,,,,,,,,,,,36,2.7142,1,0,18,18,32,1,6,×,6,6 × 6,incongruent,tie,1,2,36,,,,,,,,
,,,,,,,,,,,,,,,732,2022-01-25_12h25.25.776,multiplicationStroop,2021.2.3,Win32,60.11783095,,,,,,,,,,,,,,,,,,,,,,,,,,,,,,,,,18,2.1399,0,0,19,19,18,1,9,×,3,9 × 3,incongruent,largerFirst,1,2,27,,,,,,,,
,,,,,,,,,,,,,,,732,2022-01-25_12h25.25.776,multiplicationStroop,2021.2.3,Win32,60.11783095,,,,,,,,,,,,,,,,,,,,,,,,,,,,,,,,,24,1.6987,1,0,20,20,9,1,3,×,8,3 × 8,incongruent,smallerFirst,2,1,24,,,,,,,,
,,,,,,,,,,,,,,,732,2022-01-25_12h25.25.776,multiplicationStroop,2021.2.3,Win32,60.11783095,,,,,,,,,,,,,,,,,,,,,,,,,,,,,,,,,72,2.2313,1,0,21,21,0,1,8,×,9,8 × 9,incongruent,smallerFirst,2,1,72,,,,,,,,
,,,,,,,,,,,,,,,732,2022-01-25_12h25.25.776,multiplicationStroop,2021.2.3,Win32,60.11783095,,,,,,,,,,,,,,,,,,,,,,,,,,,,,,,,,56,1.7979,1,0,22,22,14,1,8,×,7,8 × 7,incongruent,largerFirst,1,2,56,,,,,,,,
,,,,,,,,,,,,,,,732,2022-01-25_12h25.25.776,multiplicationStroop,2021.2.3,Win32,60.11783095,,,,,,,,,,,,,,,,,,,,,,,,,,,,,,,,,21,1.4815,1,0,23,23,26,1,7,×,3,7 × 3,incongruent,largerFirst,1,2,21,,,,,,,,
,,,,,,,,,,,,,,,732,2022-01-25_12h25.25.776,multiplicationStroop,2021.2.3,Win32,60.11783095,,,,,,,,,,,,,,,,,,,,,,,,,,,,,,,,,36,2.831,1,0,24,24,15,1,9,×,4,9 × 4,incongruent,largerFirst,1,2,36,,,,,,,,
,,,,,,,,,,,,,,,732,2022-01-25_12h25.25.776,multiplicationStroop,2021.2.3,Win32,60.11783095,,,,,,,,,,,,,,,,,,,,,,,,,,,,,,,,,16,1.7649,1,0,25,25,30,1,4,×,4,4 × 4,incongruent,tie,1,2,16,,,,,,,,
,,,,,,,,,,,,,,,732,2022-01-25_12h25.25.776,multiplicationStroop,2021.2.3,Win32,60.11783095,,,,,,,,,,,,,,,,,,,,,,,,,,,,,,,,,64,2.0144,1,0,26,26,34,1,8,×,8,8 × 8,incongruent,tie,1,2,64,,,,,,,,
,,,,,,,,,,,,,,,732,2022-01-25_12h25.25.776,multiplicationStroop,2021.2.3,Win32,60.11783095,,,,,,,,,,,,,,,,,,,,,,,,,,,,,,,,,54,2.0647,1,0,27,27,6,1,6,×,9,6 × 9,incongruent,smallerFirst,2,1,54,,,,,,,,
,,,,,,,,,,,,,,,732,2022-01-25_12h25.25.776,multiplicationStroop,2021.2.3,Win32,60.11783095,,,,,,,,,,,,,,,,,,,,,,,,,,,,,,,,,40,1.8319,1,0,28,28,13,1,5,×,8,5 × 8,incongruent,smallerFirst,2,1,40,,,,,,,,
,,,,,,,,,,,,,,,732,2022-01-25_12h25.25.776,multiplicationStroop,2021.2.3,Win32,60.11783095,,,,,,,,,,,,,,,,,,,,,,,,,,,,,,,,,18,1.7646,1,0,29,29,2,1,2,×,9,2 × 9,incongruent,smallerFirst,2,1,18,,,,,,,,
,,,,,,,,,,,,,,,732,2022-01-25_12h25.25.776,multiplicationStroop,2021.2.3,Win32,60.11783095,,,,,,,,,,,,,,,,,,,,,,,,,,,,,,,,,24,1.615,1,0,30,30,20,1,6,×,4,6 × 4,incongruent,largerFirst,1,2,24,,,,,,,,
,,,,,,,,,,,,,,,732,2022-01-25_12h25.25.776,multiplicationStroop,2021.2.3,Win32,60.11783095,,,,,,,,,,,,,,,,,,,,,,,,,,,,,,,,,20,1.6485,1,0,31,31,27,1,5,×,4,5 × 4,incongruent,largerFirst,1,2,20,,,,,,,,
,,,,,,,,,,,,,,,732,2022-01-25_12h25.25.776,multiplicationStroop,2021.2.3,Win32,60.11783095,,,,,,,,,,,,,,,,,,,,,,,,,,,,,,,,,32,1.6982,1,0,32,32,7,1,4,×,8,4 × 8,incongruent,smallerFirst,2,1,32,,,,,,,,
,,,,,,,,,,,,,,,732,2022-01-25_12h25.25.776,multiplicationStroop,2021.2.3,Win32,60.11783095,,,,,,,,,,,,,,,,,,,,,,,,,,,,,,,,,14,1.6484,1,0,33,33,4,1,2,×,7,2 × 7,incongruent,smallerFirst,2,1,14,,,,,,,,
,,,,,,,,,,,,,,,732,2022-01-25_12h25.25.776,multiplicationStroop,2021.2.3,Win32,60.11783095,,,,,,,,,,,,,,,,,,,,,,,,,,,,,,,,,30,1.798,1,0,34,34,25,1,6,×,5,6 × 5,incongruent,largerFirst,1,2,30,,,,,,,,
,,,,,,,,,,,,,,,732,2022-01-25_12h25.25.776,multiplicationStroop,2021.2.3,Win32,60.11783095,,,,,,,,,,,,,,,,,,,,,,,,,,,,,,,,,9,1.4157,1,0,35,35,29,1,3,×,3,3 × 3,incongruent,tie,1,2,9,,,,,,,,
,,,,,,,,,,,,,,,732,2022-01-25_12h25.25.776,multiplicationStroop,2021.2.3,Win32,60.11783095,,,,,,,,,,,,,,,,,,,,,,,,,,,,,,,,,,,,,,,,,,,,,,,,,,0,2,2,5,1,stimulusFile/mult_blk6_INcongruent.xlsx,,
,,,,,,,,,,,,,,,732,2022-01-25_12h25.25.776,multiplicationStroop,2021.2.3,Win32,60.11783095,,,,,,,,,,,,,,,,,,,,,,,,,,,,,,,space,1.6078,20,1.8424,1,0,0,0,20,1,5,×,4,5 × 4,neutral,largerFirst,1.5,1.5,20,,,,,,,,
,,,,,,,,,,,,,,,732,2022-01-25_12h25.25.776,multiplicationStroop,2021.2.3,Win32,60.11783095,,,,,,,,,,,,,,,,,,,,,,,,,,,,,,,,,56,1.6649,1,0,1,1,9,1,7,×,8,7 × 8,neutral,smallerFirst,1.5,1.5,56,,,,,,,,
,,,,,,,,,,,,,,,732,2022-01-25_12h25.25.776,multiplicationStroop,2021.2.3,Win32,60.11783095,,,,,,,,,,,,,,,,,,,,,,,,,,,,,,,,,42,1.8316,1,0,2,2,6,1,6,×,7,6 × 7,neutral,smallerFirst,1.5,1.5,42,,,,,,,,
,,,,,,,,,,,,,,,732,2022-01-25_12h25.25.776,multiplicationStroop,2021.2.3,Win32,60.11783095,,,,,,,,,,,,,,,,,,,,,,,,,,,,,,,,,10,1.5486,1,0,3,3,4,1,2,×,5,2 × 5,neutral,smallerFirst,1.5,1.5,10,,,,,,,,
,,,,,,,,,,,,,,,732,2022-01-25_12h25.25.776,multiplicationStroop,2021.2.3,Win32,60.11783095,,,,,,,,,,,,,,,,,,,,,,,,,,,,,,,,,49,2.5806,1,0,4,4,33,1,7,×,7,7 × 7,neutral,tie,1.5,1.5,49,,,,,,,,
,,,,,,,,,,,,,,,732,2022-01-25_12h25.25.776,multiplicationStroop,2021.2.3,Win32,60.11783095,,,,,,,,,,,,,,,,,,,,,,,,,,,,,,,,,45,3.0139,0,0,5,5,1,1,5,×,7,5 × 7,neutral,smallerFirst,1.5,1.5,35,,,,,,,,
,,,,,,,,,,,,,,,732,2022-01-25_12h25.25.776,multiplicationStroop,2021.2.3,Win32,60.11783095,,,,,,,,,,,,,,,,,,,,,,,,,,,,,,,,,32,2.4564,0,0,6,6,27,1,9,×,4,9 × 4,neutral,largerFirst,1.5,1.5,36,,,,,,,,
,,,,,,,,,,,,,,,732,2022-01-25_12h25.25.776,multiplicationStroop,2021.2.3,Win32,60.11783095,,,,,,,,,,,,,,,,,,,,,,,,,,,,,,,,,27,2.8805,1,0,7,7,14,1,9,×,3,9 × 3,neutral,largerFirst,1.5,1.5,27,,,,,,,,
,,,,,,,,,,,,,,,732,2022-01-25_12h25.25.776,multiplicationStroop,2021.2.3,Win32,60.11783095,,,,,,,,,,,,,,,,,,,,,,,,,,,,,,,,,4,1.2821,1,0,8,8,28,1,2,×,2,2 × 2,neutral,tie,1.5,1.5,4,,,,,,,,
,,,,,,,,,,,,,,,732,2022-01-25_12h25.25.776,multiplicationStroop,2021.2.3,Win32,60.11783095,,,,,,,,,,,,,,,,,,,,,,,,,,,,,,,,,25,1.6816,1,0,9,9,31,1,5,×,5,5 × 5,neutral,tie,1.5,1.5,25,,,,,,,,
,,,,,,,,,,,,,,,732,2022-01-25_12h25.25.776,multiplicationStroop,2021.2.3,Win32,60.11783095,,,,,,,,,,,,,,,,,,,,,,,,,,,,,,,,,24,1.6816,1,0,10,10,2,1,4,×,6,4 × 6,neutral,smallerFirst,1.5,1.5,24,,,,,,,,
,,,,,,,,,,,,,,,732,2022-01-25_12h25.25.776,multiplicationStroop,2021.2.3,Win32,60.11783095,,,,,,,,,,,,,,,,,,,,,,,,,,,,,,,,,15,1.5817,1,0,11,11,5,1,3,×,5,3 × 5,neutral,smallerFirst,1.5,1.5,15,,,,,,,,
,,,,,,,,,,,,,,,732,2022-01-25_12h25.25.776,multiplicationStroop,2021.2.3,Win32,60.11783095,,,,,,,,,,,,,,,,,,,,,,,,,,,,,,,,,45,1.9148,1,0,12,12,10,1,5,×,9,5 × 9,neutral,smallerFirst,1.5,1.5,45,,,,,,,,
,,,,,,,,,,,,,,,732,2022-01-25_12h25.25.776,multiplicationStroop,2021.2.3,Win32,60.11783095,,,,,,,,,,,,,,,,,,,,,,,,,,,,,,,,,48,2.3811,1,0,13,13,15,1,8,×,6,8 × 6,neutral,largerFirst,1.5,1.5,48,,,,,,,,
,,,,,,,,,,,,,,,732,2022-01-25_12h25.25.776,multiplicationStroop,2021.2.3,Win32,60.11783095,,,,,,,,,,,,,,,,,,,,,,,,,,,,,,,,,28,2.1902,1,0,14,14,17,1,7,×,4,7 × 4,neutral,largerFirst,1.5,1.5,28,,,,,,,,
,,,,,,,,,,,,,,,732,2022-01-25_12h25.25.776,multiplicationStroop,2021.2.3,Win32,60.11783095,,,,,,,,,,,,,,,,,,,,,,,,,,,,,,,,,63,2.1809,1,0,15,15,12,1,7,×,9,7 × 9,neutral,smallerFirst,1.5,1.5,63,,,,,,,,
,,,,,,,,,,,,,,,732,2022-01-25_12h25.25.776,multiplicationStroop,2021.2.3,Win32,60.11783095,,,,,,,,,,,,,,,,,,,,,,,,,,,,,,,,,81,2.048,1,0,16,16,35,1,9,×,9,9 × 9,neutral,tie,1.5,1.5,81,,,,,,,,
,,,,,,,,,,,,,,,732,2022-01-25_12h25.25.776,multiplicationStroop,2021.2.3,Win32,60.11783095,,,,,,,,,,,,,,,,,,,,,,,,,,,,,,,,,16,1.6484,1,0,17,17,13,1,2,×,8,2 × 8,neutral,smallerFirst,1.5,1.5,16,,,,,,,,
,,,,,,,,,,,,,,,732,2022-01-25_12h25.25.776,multiplicationStroop,2021.2.3,Win32,60.11783095,,,,,,,,,,,,,,,,,,,,,,,,,,,,,,,,,21,1.7485,1,0,18,18,8,1,3,×,7,3 × 7,neutral,smallerFirst,1.5,1.5,21,,,,,,,,
,,,,,,,,,,,,,,,732,2022-01-25_12h25.25.776,multiplicationStroop,2021.2.3,Win32,60.11783095,,,,,,,,,,,,,,,,,,,,,,,,,,,,,,,,,8,1.6811,1,0,19,19,3,1,2,×,4,2 × 4,neutral,smallerFirst,1.5,1.5,8,,,,,,,,
,,,,,,,,,,,,,,,732,2022-01-25_12h25.25.776,multiplicationStroop,2021.2.3,Win32,60.11783095,,,,,,,,,,,,,,,,,,,,,,,,,,,,,,,,,64,2.0818,1,0,20,20,34,1,8,×,8,8 × 8,neutral,tie,1.5,1.5,64,,,,,,,,
,,,,,,,,,,,,,,,732,2022-01-25_12h25.25.776,multiplicationStroop,2021.2.3,Win32,60.11783095,,,,,,,,,,,,,,,,,,,,,,,,,,,,,,,,,12,2.8638,1,0,21,21,21,1,4,×,3,4 × 3,neutral,largerFirst,1.5,1.5,12,,,,,,,,
,,,,,,,,,,,,,,,732,2022-01-25_12h25.25.776,multiplicationStroop,2021.2.3,Win32,60.11783095,,,,,,,,,,,,,,,,,,,,,,,,,,,,,,,,,36,2.0422,1,0,22,22,32,1,6,×,6,6 × 6,neutral,tie,1.5,1.5,36,,,,,,,,
,,,,,,,,,,,,,,,732,2022-01-25_12h25.25.776,multiplicationStroop,2021.2.3,Win32,60.11783095,,,,,,,,,,,,,,,,,,,,,,,,,,,,,,,,,24,1.548,1,0,23,23,22,1,8,×,3,8 × 3,neutral,largerFirst,1.5,1.5,24,,,,,,,,
,,,,,,,,,,,,,,,732,2022-01-25_12h25.25.776,multiplicationStroop,2021.2.3,Win32,60.11783095,,,,,,,,,,,,,,,,,,,,,,,,,,,,,,,,,6,1.4987,1,0,24,24,26,1,3,×,2,3 × 2,neutral,largerFirst,1.5,1.5,6,,,,,,,,
,,,,,,,,,,,,,,,732,2022-01-25_12h25.25.776,multiplicationStroop,2021.2.3,Win32,60.11783095,,,,,,,,,,,,,,,,,,,,,,,,,,,,,,,,,16,1.6149,1,0,25,25,30,1,4,×,4,4 × 4,neutral,tie,1.5,1.5,16,,,,,,,,
,,,,,,,,,,,,,,,732,2022-01-25_12h25.25.776,multiplicationStroop,2021.2.3,Win32,60.11783095,,,,,,,,,,,,,,,,,,,,,,,,,,,,,,,,,24,1.5822,0,0,26,26,23,1,8,×,4,8 × 4,neutral,largerFirst,1.5,1.5,32,,,,,,,,
,,,,,,,,,,,,,,,732,2022-01-25_12h25.25.776,multiplicationStroop,2021.2.3,Win32,60.11783095,,,,,,,,,,,,,,,,,,,,,,,,,,,,,,,,,14,1.5816,1,0,27,27,16,1,7,×,2,7 × 2,neutral,largerFirst,1.5,1.5,14,,,,,,,,
,,,,,,,,,,,,,,,732,2022-01-25_12h25.25.776,multiplicationStroop,2021.2.3,Win32,60.11783095,,,,,,,,,,,,,,,,,,,,,,,,,,,,,,,,,54,2.0145,1,0,28,28,7,1,6,×,9,6 × 9,neutral,smallerFirst,1.5,1.5,54,,,,,,,,
,,,,,,,,,,,,,,,732,2022-01-25_12h25.25.776,multiplicationStroop,2021.2.3,Win32,60.11783095,,,,,,,,,,,,,,,,,,,,,,,,,,,,,,,,,9,1.5818,1,0,29,29,29,1,3,×,3,3 × 3,neutral,tie,1.5,1.5,9,,,,,,,,
,,,,,,,,,,,,,,,732,2022-01-25_12h25.25.776,multiplicationStroop,2021.2.3,Win32,60.11783095,,,,,,,,,,,,,,,,,,,,,,,,,,,,,,,,,40,1.8816,1,0,30,30,24,1,8,×,5,8 × 5,neutral,largerFirst,1.5,1.5,40,,,,,,,,
,,,,,,,,,,,,,,,732,2022-01-25_12h25.25.776,multiplicationStroop,2021.2.3,Win32,60.11783095,,,,,,,,,,,,,,,,,,,,,,,,,,,,,,,,,18,1.7483,1,0,31,31,18,1,9,×,2,9 × 2,neutral,largerFirst,1.5,1.5,18,,,,,,,,
,,,,,,,,,,,,,,,732,2022-01-25_12h25.25.776,multiplicationStroop,2021.2.3,Win32,60.11783095,,,,,,,,,,,,,,,,,,,,,,,,,,,,,,,,,12,1.4318,1,0,32,32,25,1,6,×,2,6 × 2,neutral,largerFirst,1.5,1.5,12,,,,,,,,
,,,,,,,,,,,,,,,732,2022-01-25_12h25.25.776,multiplicationStroop,2021.2.3,Win32,60.11783095,,,,,,,,,,,,,,,,,,,,,,,,,,,,,,,,,72,2.2311,1,0,33,33,11,1,8,×,9,8 × 9,neutral,smallerFirst,1.5,1.5,72,,,,,,,,
,,,,,,,,,,,,,,,732,2022-01-25_12h25.25.776,multiplicationStroop,2021.2.3,Win32,60.11783095,,,,,,,,,,,,,,,,,,,,,,,,,,,,,,,,,30,2.3146,1,0,34,34,19,1,6,×,5,6 × 5,neutral,largerFirst,1.5,1.5,30,,,,,,,,
,,,,,,,,,,,,,,,732,2022-01-25_12h25.25.776,multiplicationStroop,2021.2.3,Win32,60.11783095,,,,,,,,,,,,,,,,,,,,,,,,,,,,,,,,,18,3.2134,1,0,35,35,0,1,3,×,6,3 × 6,neutral,smallerFirst,1.5,1.5,18,,,,,,,,
,,,,,,,,,,,,,,,732,2022-01-25_12h25.25.776,multiplicationStroop,2021.2.3,Win32,60.11783095,,,,,,,,,,,,,,,,,,,,,,,,,,,,,,,,,,,,,,,,,,,,,,,,,,0,3,3,1,1,stimulusFile/mult_blk2.xlsx,,
,,,,,,,,,,,,,,,732,2022-01-25_12h25.25.776,multiplicationStroop,2021.2.3,Win32,60.11783095,,,,,,,,,,,,,,,,,,,,,,,,,,,,,,,space,1.032,40,2.4062,1,0,0,0,27,1,8,×,5,8 × 5,incongruent,largerFirst,1,2,40,,,,,,,,
,,,,,,,,,,,,,,,732,2022-01-25_12h25.25.776,multiplicationStroop,2021.2.3,Win32,60.11783095,,,,,,,,,,,,,,,,,,,,,,,,,,,,,,,,,81,1.5251,1,0,1,1,35,1,9,×,9,9 × 9,neutral,tie,2,1,81,,,,,,,,
,,,,,,,,,,,,,,,732,2022-01-25_12h25.25.776,multiplicationStroop,2021.2.3,Win32,60.11783095,,,,,,,,,,,,,,,,,,,,,,,,,,,,,,,,,63,2.115,1,0,2,2,17,1,9,×,7,9 × 7,incongruent,largerFirst,1,2,63,,,,,,,,
,,,,,,,,,,,,,,,732,2022-01-25_12h25.25.776,multiplicationStroop,2021.2.3,Win32,60.11783095,,,,,,,,,,,,,,,,,,,,,,,,,,,,,,,,,44,1.8645,0,0,3,3,8,1,5,×,9,5 × 9,incongruent,smallerFirst,2,1,45,,,,,,,,
,,,,,,,,,,,,,,,732,2022-01-25_12h25.25.776,multiplicationStroop,2021.2.3,Win32,60.11783095,,,,,,,,,,,,,,,,,,,,,,,,,,,,,,,,,6,1.5985,1,0,4,4,25,1,3,×,2,3 × 2,incongruent,largerFirst,1,2,6,,,,,,,,
,,,,,,,,,,,,,,,732,2022-01-25_12h25.25.776,multiplicationStroop,2021.2.3,Win32,60.11783095,,,,,,,,,,,,,,,,,,,,,,,,,,,,,,,,,32,1.9981,1,0,5,5,21,1,8,×,4,8 × 4,incongruent,largerFirst,1,2,32,,,,,,,,
,,,,,,,,,,,,,,,732,2022-01-25_12h25.25.776,multiplicationStroop,2021.2.3,Win32,60.11783095,,,,,,,,,,,,,,,,,,,,,,,,,,,,,,,,,10,1.5815,1,0,6,6,7,1,2,×,5,2 × 5,incongruent,smallerFirst,2,1,10,,,,,,,,
,,,,,,,,,,,,,,,732,2022-01-25_12h25.25.776,multiplicationStroop,2021.2.3,Win32,60.11783095,,,,,,,,,,,,,,,,,,,,,,,,,,,,,,,,,8,1.7316,1,0,7,7,10,1,2,×,4,2 × 4,incongruent,smallerFirst,2,1,8,,,,,,,,
,,,,,,,,,,,,,,,732,2022-01-25_12h25.25.776,multiplicationStroop,2021.2.3,Win32,60.11783095,,,,,,,,,,,,,,,,,,,,,,,,,,,,,,,,,72,1.8813,1,0,8,8,14,1,9,×,8,9 × 8,incongruent,largerFirst,1,2,72,,,,,,,,
,,,,,,,,,,,,,,,732,2022-01-25_12h25.25.776,multiplicationStroop,2021.2.3,Win32,60.11783095,,,,,,,,,,,,,,,,,,,,,,,,,,,,,,,,,12,1.3322,1,0,9,9,19,1,4,×,3,4 × 3,incongruent,largerFirst,1,2,12,,,,,,,,
,,,,,,,,,,,,,,,732,2022-01-25_12h25.25.776,multiplicationStroop,2021.2.3,Win32,60.11783095,,,,,,,,,,,,,,,,,,,,,,,,,,,,,,,,,24,1.5983,1,0,10,10,23,1,8,×,3,8 × 3,incongruent,largerFirst,1,2,24,,,,,,,,
,,,,,,,,,,,,,,,732,2022-01-25_12h25.25.776,multiplicationStroop,2021.2.3,Win32,60.11783095,,,,,,,,,,,,,,,,,,,,,,,,,,,,,,,,,9,1.3815,1,0,11,11,29,1,3,×,3,3 × 3,neutral,tie,2,1,9,,,,,,,,
,,,,,,,,,,,,,,,732,2022-01-25_12h25.25.776,multiplicationStroop,2021.2.3,Win32,60.11783095,,,,,,,,,,,,,,,,,,,,,,,,,,,,,,,,,21,1.5321,1,0,12,12,12,1,3,×,7,3 × 7,incongruent,smallerFirst,2,1,21,,,,,,,,
,,,,,,,,,,,,,,,732,2022-01-25_12h25.25.776,multiplicationStroop,2021.2.3,Win32,60.11783095,,,,,,,,,,,,,,,,,,,,,,,,,,,,,,,,,4,1.3483,1,0,13,13,28,1,2,×,2,2 × 2,neutral,tie,2,1,4,,,,,,,,
,,,,,,,,,,,,,,,732,2022-01-25_12h25.25.776,multiplicationStroop,2021.2.3,Win32,60.11783095,,,,,,,,,,,,,,,,,,,,,,,,,,,,,,,,,20,1.6485,1,0,14,14,13,1,4,×,5,4 × 5,incongruent,smallerFirst,2,1,20,,,,,,,,
,,,,,,,,,,,,,,,732,2022-01-25_12h25.25.776,multiplicationStroop,2021.2.3,Win32,60.11783095,,,,,,,,,,,,,,,,,,,,,,,,,,,,,,,,,48,1.9978,1,0,15,15,15,1,8,×,6,8 × 6,incongruent,largerFirst,1,2,48,,,,,,,,
,,,,,,,,,,,,,,,732,2022-01-25_12h25.25.776,multiplicationStroop,2021.2.3,Win32,60.11783095,,,,,,,,,,,,,,,,,,,,,,,,,,,,,,,,,49,2.4312,1,0,16,16,33,1,7,×,7,7 × 7,neutral,tie,2,1,49,,,,,,,,
,,,,,,,,,,,,,,,732,2022-01-25_12h25.25.776,multiplicationStroop,2021.2.3,Win32,60.11783095,,,,,,,,,,,,,,,,,,,,,,,,,,,,,,,,,35,1.7317,1,0,17,17,26,1,7,×,5,7 × 5,incongruent,largerFirst,1,2,35,,,,,,,,
,,,,,,,,,,,,,,,732,2022-01-25_12h25.25.776,multiplicationStroop,2021.2.3,Win32,60.11783095,,,,,,,,,,,,,,,,,,,,,,,,,,,,,,,,,14,1.6981,1,0,18,18,18,1,7,×,2,7 × 2,incongruent,largerFirst,1,2,14,,,,,,,,
,,,,,,,,,,,,,,,732,2022-01-25_12h25.25.776,multiplicationStroop,2021.2.3,Win32,60.11783095,,,,,,,,,,,,,,,,,,,,,,,,,,,,,,,,,42,1.9313,1,0,19,19,3,1,6,×,7,6 × 7,incongruent,smallerFirst,2,1,42,,,,,,,,
,,,,,,,,,,,,,,,732,2022-01-25_12h25.25.776,multiplicationStroop,2021.2.3,Win32,60.11783095,,,,,,,,,,,,,,,,,,,,,,,,,,,,,,,,,15,2.1647,1,0,20,20,24,1,5,×,3,5 × 3,incongruent,largerFirst,1,2,15,,,,,,,,
,,,,,,,,,,,,,,,732,2022-01-25_12h25.25.776,multiplicationStroop,2021.2.3,Win32,60.11783095,,,,,,,,,,,,,,,,,,,,,,,,,,,,,,,,,54,2.5646,1,0,21,21,20,1,9,×,6,9 × 6,incongruent,largerFirst,1,2,54,,,,,,,,
,,,,,,,,,,,,,,,732,2022-01-25_12h25.25.776,multiplicationStroop,2021.2.3,Win32,60.11783095,,,,,,,,,,,,,,,,,,,,,,,,,,,,,,,,,28,2.0812,1,0,22,22,2,1,4,×,7,4 × 7,incongruent,smallerFirst,2,1,28,,,,,,,,
,,,,,,,,,,,,,,,732,2022-01-25_12h25.25.776,multiplicationStroop,2021.2.3,Win32,60.11783095,,,,,,,,,,,,,,,,,,,,,,,,,,,,,,,,,16,1.8256,1,0,23,23,30,1,4,×,4,4 × 4,neutral,tie,2,1,16,,,,,,,,
,,,,,,,,,,,,,,,732,2022-01-25_12h25.25.776,multiplicationStroop,2021.2.3,Win32,60.11783095,,,,,,,,,,,,,,,,,,,,,,,,,,,,,,,,,18,1.6317,1,0,24,24,22,1,6,×,3,6 × 3,incongruent,largerFirst,1,2,18,,,,,,,,
,,,,,,,,,,,,,,,732,2022-01-25_12h25.25.776,multiplicationStroop,2021.2.3,Win32,60.11783095,,,,,,,,,,,,,,,,,,,,,,,,,,,,,,,,,18,1.7819,1,0,25,25,16,1,9,×,2,9 × 2,incongruent,largerFirst,1,2,18,,,,,,,,
,,,,,,,,,,,,,,,732,2022-01-25_12h25.25.776,multiplicationStroop,2021.2.3,Win32,60.11783095,,,,,,,,,,,,,,,,,,,,,,,,,,,,,,,,,12,1.4815,1,0,26,26,5,1,2,×,6,2 × 6,incongruent,smallerFirst,2,1,12,,,,,,,,
,,,,,,,,,,,,,,,732,2022-01-25_12h25.25.776,multiplicationStroop,2021.2.3,Win32,60.11783095,,,,,,,,,,,,,,,,,,,,,,,,,,,,,,,,,16,2.7809,1,0,27,27,9,1,2,×,8,2 × 8,incongruent,smallerFirst,2,1,16,,,,,,,,
,,,,,,,,,,,,,,,732,2022-01-25_12h25.25.776,multiplicationStroop,2021.2.3,Win32,60.11783095,,,,,,,,,,,,,,,,,,,,,,,,,,,,,,,,,36,1.9647,1,0,28,28,32,1,6,×,6,6 × 6,neutral,tie,2,1,36,,,,,,,,
,,,,,,,,,,,,,,,732,2022-01-25_12h25.25.776,multiplicationStroop,2021.2.3,Win32,60.11783095,,,,,,,,,,,,,,,,,,,,,,,,,,,,,,,,,36,3.5969,1,0,29,29,1,1,4,×,9,4 × 9,incongruent,smallerFirst,2,1,36,,,,,,,,
,,,,,,,,,,,,,,,732,2022-01-25_12h25.25.776,multiplicationStroop,2021.2.3,Win32,60.11783095,,,,,,,,,,,,,,,,,,,,,,,,,,,,,,,,,27,5.1376,1,0,30,30,4,1,3,×,9,3 × 9,incongruent,smallerFirst,2,1,27,,,,,,,,
,,,,,,,,,,,,,,,732,2022-01-25_12h25.25.776,multiplicationStroop,2021.2.3,Win32,60.11783095,,,,,,,,,,,,,,,,,,,,,,,,,,,,,,,,,2,1.6074,0,0,31,31,31,1,5,×,5,5 × 5,neutral,tie,2,1,25,,,,,,,,
,,,,,,,,,,,,,,,732,2022-01-25_12h25.25.776,multiplicationStroop,2021.2.3,Win32,60.11783095,,,,,,,,,,,,,,,,,,,,,,,,,,,,,,,,,16,1.5987,0,0,32,32,34,1,8,×,8,8 × 8,neutral,tie,2,1,64,,,,,,,,
,,,,,,,,,,,,,,,732,2022-01-25_12h25.25.776,multiplicationStroop,2021.2.3,Win32,60.11783095,,,,,,,,,,,,,,,,,,,,,,,,,,,,,,,,,56,1.8816,1,0,33,33,0,1,7,×,8,7 × 8,incongruent,smallerFirst,2,1,56,,,,,,,,
,,,,,,,,,,,,,,,732,2022-01-25_12h25.25.776,multiplicationStroop,2021.2.3,Win32,60.11783095,,,,,,,,,,,,,,,,,,,,,,,,,,,,,,,,,24,1.9645,1,0,34,34,6,1,4,×,6,4 × 6,incongruent,smallerFirst,2,1,24,,,,,,,,
,,,,,,,,,,,,,,,732,2022-01-25_12h25.25.776,multiplicationStroop,2021.2.3,Win32,60.11783095,,,,,,,,,,,,,,,,,,,,,,,,,,,,,,,,,30,2.1976,1,0,35,35,11,1,5,×,6,5 × 6,incongruent,smallerFirst,2,1,30,,,,,,,,
,,,,,,,,,,,,,,,732,2022-01-25_12h25.25.776,multiplicationStroop,2021.2.3,Win32,60.11783095,,,,,,,,,,,,,,,,,,,,,,,,,,,,,,,,,,,,,,,,,,,,,,,,,,0,4,4,4,1,stimulusFile/mult_blk5_INcongruent.xlsx,,
,,,,,,,,,,,,,,,732,2022-01-25_12h25.25.776,multiplicationStroop,2021.2.3,Win32,60.11783095,,,,,,,,,,,,,,,,,,,,,,,,,,,,,,,space,1.411,36,1.6729,1,0,0,0,32,1,6,×,6,6 × 6,neutral,tie,2,1,36,,,,,,,,
,,,,,,,,,,,,,,,732,2022-01-25_12h25.25.776,multiplicationStroop,2021.2.3,Win32,60.11783095,,,,,,,,,,,,,,,,,,,,,,,,,,,,,,,,,4,1.5982,1,0,1,1,28,1,2,×,2,2 × 2,neutral,tie,2,1,4,,,,,,,,
,,,,,,,,,,,,,,,732,2022-01-25_12h25.25.776,multiplicationStroop,2021.2.3,Win32,60.11783095,,,,,,,,,,,,,,,,,,,,,,,,,,,,,,,,,81,1.8478,1,0,2,2,35,1,9,×,9,9 × 9,neutral,tie,2,1,81,,,,,,,,
,,,,,,,,,,,,,,,732,2022-01-25_12h25.25.776,multiplicationStroop,2021.2.3,Win32,60.11783095,,,,,,,,,,,,,,,,,,,,,,,,,,,,,,,,,24,1.8647,0,0,3,3,20,1,8,×,4,8 × 4,congruent,largerFirst,2,1,32,,,,,,,,
,,,,,,,,,,,,,,,732,2022-01-25_12h25.25.776,multiplicationStroop,2021.2.3,Win32,60.11783095,,,,,,,,,,,,,,,,,,,,,,,,,,,,,,,,,45,1.9485,1,0,4,4,23,1,9,×,5,9 × 5,congruent,largerFirst,2,1,45,,,,,,,,
,,,,,,,,,,,,,,,732,2022-01-25_12h25.25.776,multiplicationStroop,2021.2.3,Win32,60.11783095,,,,,,,,,,,,,,,,,,,,,,,,,,,,,,,,,28,2.0479,1,0,5,5,27,1,7,×,4,7 × 4,congruent,largerFirst,2,1,28,,,,,,,,
,,,,,,,,,,,,,,,732,2022-01-25_12h25.25.776,multiplicationStroop,2021.2.3,Win32,60.11783095,,,,,,,,,,,,,,,,,,,,,,,,,,,,,,,,,14,1.9314,1,0,6,6,14,1,7,×,2,7 × 2,congruent,largerFirst,2,1,14,,,,,,,,
,,,,,,,,,,,,,,,732,2022-01-25_12h25.25.776,multiplicationStroop,2021.2.3,Win32,60.11783095,,,,,,,,,,,,,,,,,,,,,,,,,,,,,,,,,18,2.5978,1,0,7,7,22,1,9,×,2,9 × 2,congruent,largerFirst,2,1,18,,,,,,,,
,,,,,,,,,,,,,,,732,2022-01-25_12h25.25.776,multiplicationStroop,2021.2.3,Win32,60.11783095,,,,,,,,,,,,,,,,,,,,,,,,,,,,,,,,,12,2.3735,1,0,8,8,2,1,3,×,4,3 × 4,congruent,smallerFirst,1,2,12,,,,,,,,
,,,,,,,,,,,,,,,732,2022-01-25_12h25.25.776,multiplicationStroop,2021.2.3,Win32,60.11783095,,,,,,,,,,,,,,,,,,,,,,,,,,,,,,,,,42,2.414,1,0,9,9,3,1,6,×,7,6 × 7,congruent,smallerFirst,1,2,42,,,,,,,,
,,,,,,,,,,,,,,,732,2022-01-25_12h25.25.776,multiplicationStroop,2021.2.3,Win32,60.11783095,,,,,,,,,,,,,,,,,,,,,,,,,,,,,,,,,12,1.2659,1,0,10,10,19,1,6,×,2,6 × 2,congruent,largerFirst,2,1,12,,,,,,,,
,,,,,,,,,,,,,,,732,2022-01-25_12h25.25.776,multiplicationStroop,2021.2.3,Win32,60.11783095,,,,,,,,,,,,,,,,,,,,,,,,,,,,,,,,,64,1.9475,1,0,11,11,34,1,8,×,8,8 × 8,neutral,tie,2,1,64,,,,,,,,
,,,,,,,,,,,,,,,732,2022-01-25_12h25.25.776,multiplicationStroop,2021.2.3,Win32,60.11783095,,,,,,,,,,,,,,,,,,,,,,,,,,,,,,,,,72,1.7484,1,0,12,12,17,1,9,×,8,9 × 8,congruent,largerFirst,2,1,72,,,,,,,,
,,,,,,,,,,,,,,,732,2022-01-25_12h25.25.776,multiplicationStroop,2021.2.3,Win32,60.11783095,,,,,,,,,,,,,,,,,,,,,,,,,,,,,,,,,40,2.015,1,0,13,13,6,1,5,×,8,5 × 8,congruent,smallerFirst,1,2,40,,,,,,,,
,,,,,,,,,,,,,,,732,2022-01-25_12h25.25.776,multiplicationStroop,2021.2.3,Win32,60.11783095,,,,,,,,,,,,,,,,,,,,,,,,,,,,,,,,,16,1.6479,1,0,14,14,30,1,4,×,4,4 × 4,neutral,tie,2,1,16,,,,,,,,
,,,,,,,,,,,,,,,732,2022-01-25_12h25.25.776,multiplicationStroop,2021.2.3,Win32,60.11783095,,,,,,,,,,,,,,,,,,,,,,,,,,,,,,,,,36,2.6809,1,0,15,15,0,1,4,×,9,4 × 9,congruent,smallerFirst,1,2,36,,,,,,,,
,,,,,,,,,,,,,,,732,2022-01-25_12h25.25.776,multiplicationStroop,2021.2.3,Win32,60.11783095,,,,,,,,,,,,,,,,,,,,,,,,,,,,,,,,,56,1.726,1,0,16,16,8,1,7,×,8,7 × 8,congruent,smallerFirst,1,2,56,,,,,,,,
,,,,,,,,,,,,,,,732,2022-01-25_12h25.25.776,multiplicationStroop,2021.2.3,Win32,60.11783095,,,,,,,,,,,,,,,,,,,,,,,,,,,,,,,,,30,2.1312,1,0,17,17,15,1,6,×,5,6 × 5,congruent,largerFirst,2,1,30,,,,,,,,
,,,,,,,,,,,,,,,732,2022-01-25_12h25.25.776,multiplicationStroop,2021.2.3,Win32,60.11783095,,,,,,,,,,,,,,,,,,,,,,,,,,,,,,,,,24,1.632,1,0,18,18,25,1,6,×,4,6 × 4,congruent,largerFirst,2,1,24,,,,,,,,
,,,,,,,,,,,,,,,732,2022-01-25_12h25.25.776,multiplicationStroop,2021.2.3,Win32,60.11783095,,,,,,,,,,,,,,,,,,,,,,,,,,,,,,,,,25,1.6146,1,0,19,19,31,1,5,×,5,5 × 5,neutral,tie,2,1,25,,,,,,,,
,,,,,,,,,,,,,,,732,2022-01-25_12h25.25.776,multiplicationStroop,2021.2.3,Win32,60.11783095,,,,,,,,,,,,,,,,,,,,,,,,,,,,,,,,,54,1.8818,1,0,20,20,12,1,6,×,9,6 × 9,congruent,smallerFirst,1,2,54,,,,,,,,
,,,,,,,,,,,,,,,732,2022-01-25_12h25.25.776,multiplicationStroop,2021.2.3,Win32,60.11783095,,,,,,,,,,,,,,,,,,,,,,,,,,,,,,,,,10,1.5318,1,0,21,21,24,1,5,×,2,5 × 2,congruent,largerFirst,2,1,10,,,,,,,,
,,,,,,,,,,,,,,,732,2022-01-25_12h25.25.776,multiplicationStroop,2021.2.3,Win32,60.11783095,,,,,,,,,,,,,,,,,,,,,,,,,,,,,,,,,15,1.6819,1,0,22,22,4,1,3,×,5,3 × 5,congruent,smallerFirst,1,2,15,,,,,,,,
,,,,,,,,,,,,,,,732,2022-01-25_12h25.25.776,multiplicationStroop,2021.2.3,Win32,60.11783095,,,,,,,,,,,,,,,,,,,,,,,,,,,,,,,,,48,2.3307,1,0,23,23,18,1,8,×,6,8 × 6,congruent,largerFirst,2,1,48,,,,,,,,
,,,,,,,,,,,,,,,732,2022-01-25_12h25.25.776,multiplicationStroop,2021.2.3,Win32,60.11783095,,,,,,,,,,,,,,,,,,,,,,,,,,,,,,,,,35,2.0649,1,0,24,24,1,1,5,×,7,5 × 7,congruent,smallerFirst,1,2,35,,,,,,,,
,,,,,,,,,,,,,,,732,2022-01-25_12h25.25.776,multiplicationStroop,2021.2.3,Win32,60.11783095,,,,,,,,,,,,,,,,,,,,,,,,,,,,,,,,,9,1.7149,1,0,25,25,29,1,3,×,3,3 × 3,neutral,tie,2,1,9,,,,,,,,
,,,,,,,,,,,,,,,732,2022-01-25_12h25.25.776,multiplicationStroop,2021.2.3,Win32,60.11783095,,,,,,,,,,,,,,,,,,,,,,,,,,,,,,,,,21,1.8148,1,0,26,26,16,1,7,×,3,7 × 3,congruent,largerFirst,2,1,21,,,,,,,,
,,,,,,,,,,,,,,,732,2022-01-25_12h25.25.776,multiplicationStroop,2021.2.3,Win32,60.11783095,,,,,,,,,,,,,,,,,,,,,,,,,,,,,,,,,8,1.8652,1,0,27,27,9,1,2,×,4,2 × 4,congruent,smallerFirst,1,2,8,,,,,,,,
,,,,,,,,,,,,,,,732,2022-01-25_12h25.25.776,multiplicationStroop,2021.2.3,Win32,60.11783095,,,,,,,,,,,,,,,,,,,,,,,,,,,,,,,,,18,2.4973,1,0,28,28,11,1,3,×,6,3 × 6,congruent,smallerFirst,1,2,18,,,,,,,,
,,,,,,,,,,,,,,,732,2022-01-25_12h25.25.776,multiplicationStroop,2021.2.3,Win32,60.11783095,,,,,,,,,,,,,,,,,,,,,,,,,,,,,,,,,24,2.3978,1,0,29,29,10,1,3,×,8,3 × 8,congruent,smallerFirst,1,2,24,,,,,,,,
,,,,,,,,,,,,,,,732,2022-01-25_12h25.25.776,multiplicationStroop,2021.2.3,Win32,60.11783095,,,,,,,,,,,,,,,,,,,,,,,,,,,,,,,,,6,1.8815,1,0,30,30,13,1,2,×,3,2 × 3,congruent,smallerFirst,1,2,6,,,,,,,,
,,,,,,,,,,,,,,,732,2022-01-25_12h25.25.776,multiplicationStroop,2021.2.3,Win32,60.11783095,,,,,,,,,,,,,,,,,,,,,,,,,,,,,,,,,49,2.2979,1,0,31,31,33,1,7,×,7,7 × 7,neutral,tie,2,1,49,,,,,,,,
,,,,,,,,,,,,,,,732,2022-01-25_12h25.25.776,multiplicationStroop,2021.2.3,Win32,60.11783095,,,,,,,,,,,,,,,,,,,,,,,,,,,,,,,,,63,2.0652,1,0,32,32,21,1,9,×,7,9 × 7,congruent,largerFirst,2,1,63,,,,,,,,
,,,,,,,,,,,,,,,732,2022-01-25_12h25.25.776,multiplicationStroop,2021.2.3,Win32,60.11783095,,,,,,,,,,,,,,,,,,,,,,,,,,,,,,,,,27,2.8469,1,0,33,33,26,1,9,×,3,9 × 3,congruent,largerFirst,2,1,27,,,,,,,,
,,,,,,,,,,,,,,,732,2022-01-25_12h25.25.776,multiplicationStroop,2021.2.3,Win32,60.11783095,,,,,,,,,,,,,,,,,,,,,,,,,,,,,,,,,20,1.8255,1,0,34,34,7,1,4,×,5,4 × 5,congruent,smallerFirst,1,2,20,,,,,,,,
,,,,,,,,,,,,,,,732,2022-01-25_12h25.25.776,multiplicationStroop,2021.2.3,Win32,60.11783095,,,,,,,,,,,,,,,,,,,,,,,,,,,,,,,,,16,1.665,1,0,35,35,5,1,2,×,8,2 × 8,congruent,smallerFirst,1,2,16,,,,,,,,
,,,,,,,,,,,,,,,732,2022-01-25_12h25.25.776,multiplicationStroop,2021.2.3,Win32,60.11783095,,,,,,,,,,,,,,,,,,,,,,,,,,,,,,,,,,,,,,,,,,,,,,,,,,0,5,5,2,1,stimulusFile/mult_blk3_congruent.xlsx,,
,,,,,,,,,,,,,,,732,2022-01-25_12h25.25.776,multiplicationStroop,2021.2.3,Win32,60.11783095,,,,,,,,,,,,,,,,,,,,,,,,,,,,,,,,,,,,,,,,,,,,,,,,,,,,,,,,space,3.1489