welcomeKey_resp.keys,welcomeKey_resp.rt,X Scale,Y Scale,rt_resp_4.keys,rt_resp_4.corr,rt_resp_4.rt,speedtest_2.thisRepN,speedtest_2.thisTrialN,speedtest_2.thisN,speedtest_2.thisIndex,speedtest_2.ran,numberSc,posX,positionLayout,participant,date,expName,psychopyVersion,OS,frameRate,ct_instrresp.keys,ct_instrresp.rt,key_resp_2.keys,key_resp_2.rt,ct_keyResp.keys,ct_keyResp.corr,ct_keyResp.rt,trials.thisRepN,trials.thisTrialN,trials.thisN,trials.thisIndex,trials.ran,leftNo,rightNo,displayProblem,numDistance,leftNo_size,rightNo_size,Dims,keyAnswer,TS_Loop.thisRepN,TS_Loop.thisTrialN,TS_Loop.thisN,TS_Loop.thisIndex,TS_Loop.ran,Condition,ActionInst,instrImage,mltptaskInst_resp.keys,mltptaskInst_resp.rt,continue_resp_2.keys,continue_resp_2.rt,multp_Answer,multi_RT,multiplyCorr,LoopingMultiply.thisRepN,LoopingMultiply.thisTrialN,LoopingMultiply.thisN,LoopingMultiply.thisIndex,LoopingMultiply.ran,factor1,multiplySign,factor2,multliplyProblem,physicalSize,orderOperand,sizeF1,sizeF2,mult_answer,trials_stroop.thisRepN,trials_stroop.thisTrialN,trials_stroop.thisN,trials_stroop.thisIndex,trials_stroop.ran,multiplicationFile,esckey_resp_2.keys,esckey_resp_2.rt
y,11.2603,60,40,right,1,2.0445,0,0,0,11,1,4,200,right,733,2022-01-25_09h07.53.874,multiplicationStroop,2021.2.3,Win32,60.06366749,,,,,,,,,,,,,,,,,,,,,,,,,,,,,,,,,,,,,,,,,,,,,,,,,,,,,,,,,
,,,,left,1,0.5569,0,1,1,6,1,8,-200,left,733,2022-01-25_09h07.53.874,multiplicationStroop,2021.2.3,Win32,60.06366749,,,,,,,,,,,,,,,,,,,,,,,,,,,,,,,,,,,,,,,,,,,,,,,,,,,,,,,,,
,,,,left,1,0.3535,0,2,2,3,1,4,-200,left,733,2022-01-25_09h07.53.874,multiplicationStroop,2021.2.3,Win32,60.06366749,,,,,,,,,,,,,,,,,,,,,,,,,,,,,,,,,,,,,,,,,,,,,,,,,,,,,,,,,
,,,,left,1,0.2677,0,3,3,5,1,7,-200,left,733,2022-01-25_09h07.53.874,multiplicationStroop,2021.2.3,Win32,60.06366749,,,,,,,,,,,,,,,,,,,,,,,,,,,,,,,,,,,,,,,,,,,,,,,,,,,,,,,,,
,,,,left,1,0.2719,0,4,4,0,1,1,-200,left,733,2022-01-25_09h07.53.874,multiplicationStroop,2021.2.3,Win32,60.06366749,,,,,,,,,,,,,,,,,,,,,,,,,,,,,,,,,,,,,,,,,,,,,,,,,,,,,,,,,
,,,,right,1,0.3131,0,5,5,10,1,3,200,right,733,2022-01-25_09h07.53.874,multiplicationStroop,2021.2.3,Win32,60.06366749,,,,,,,,,,,,,,,,,,,,,,,,,,,,,,,,,,,,,,,,,,,,,,,,,,,,,,,,,
,,,,left,1,0.4497,0,6,6,2,1,3,-200,left,733,2022-01-25_09h07.53.874,multiplicationStroop,2021.2.3,Win32,60.06366749,,,,,,,,,,,,,,,,,,,,,,,,,,,,,,,,,,,,,,,,,,,,,,,,,,,,,,,,,
,,,,right,1,0.3057,0,7,7,13,1,7,200,right,733,2022-01-25_09h07.53.874,multiplicationStroop,2021.2.3,Win32,60.06366749,,,,,,,,,,,,,,,,,,,,,,,,,,,,,,,,,,,,,,,,,,,,,,,,,,,,,,,,,
,,,,left,1,0.2684,0,8,8,1,1,2,-200,left,733,2022-01-25_09h07.53.874,multiplicationStroop,2021.2.3,Win32,60.06366749,,,,,,,,,,,,,,,,,,,,,,,,,,,,,,,,,,,,,,,,,,,,,,,,,,,,,,,,,
,,,,left,1,0.3055,0,9,9,4,1,6,-200,left,733,2022-01-25_09h07.53.874,multiplicationStroop,2021.2.3,Win32,60.06366749,,,,,,,,,,,,,,,,,,,,,,,,,,,,,,,,,,,,,,,,,,,,,,,,,,,,,,,,,
,,,,right,1,0.2822,0,10,10,14,1,8,200,right,733,2022-01-25_09h07.53.874,multiplicationStroop,2021.2.3,Win32,60.06366749,,,,,,,,,,,,,,,,,,,,,,,,,,,,,,,,,,,,,,,,,,,,,,,,,,,,,,,,,
,,,,right,1,0.3644,0,11,11,8,1,1,200,right,733,2022-01-25_09h07.53.874,multiplicationStroop,2021.2.3,Win32,60.06366749,,,,,,,,,,,,,,,,,,,,,,,,,,,,,,,,,,,,,,,,,,,,,,,,,,,,,,,,,
,,,,right,1,0.5001,0,12,12,12,1,6,200,right,733,2022-01-25_09h07.53.874,multiplicationStroop,2021.2.3,Win32,60.06366749,,,,,,,,,,,,,,,,,,,,,,,,,,,,,,,,,,,,,,,,,,,,,,,,,,,,,,,,,
,,,,right,1,0.2686,0,13,13,15,1,9,200,right,733,2022-01-25_09h07.53.874,multiplicationStroop,2021.2.3,Win32,60.06366749,,,,,,,,,,,,,,,,,,,,,,,,,,,,,,,,,,,,,,,,,,,,,,,,,,,,,,,,,
,,,,right,1,0.2007,0,14,14,9,1,2,200,right,733,2022-01-25_09h07.53.874,multiplicationStroop,2021.2.3,Win32,60.06366749,,,,,,,,,,,,,,,,,,,,,,,,,,,,,,,,,,,,,,,,,,,,,,,,,,,,,,,,,
,,,,left,1,0.3476,0,15,15,7,1,9,-200,left,733,2022-01-25_09h07.53.874,multiplicationStroop,2021.2.3,Win32,60.06366749,,,,,,,,,,,,,,,,,,,,,,,,,,,,,,,,,,,,,,,,,,,,,,,,,,,,,,,,,
,,,,right,1,0.2244,1,0,16,10,1,3,200,right,733,2022-01-25_09h07.53.874,multiplicationStroop,2021.2.3,Win32,60.06366749,,,,,,,,,,,,,,,,,,,,,,,,,,,,,,,,,,,,,,,,,,,,,,,,,,,,,,,,,
,,,,left,1,0.3174,1,1,17,5,1,7,-200,left,733,2022-01-25_09h07.53.874,multiplicationStroop,2021.2.3,Win32,60.06366749,,,,,,,,,,,,,,,,,,,,,,,,,,,,,,,,,,,,,,,,,,,,,,,,,,,,,,,,,
,,,,right,0,0.1329,1,2,18,2,1,3,-200,left,733,2022-01-25_09h07.53.874,multiplicationStroop,2021.2.3,Win32,60.06366749,,,,,,,,,,,,,,,,,,,,,,,,,,,,,,,,,,,,,,,,,,,,,,,,,,,,,,,,,
,,,,left,1,1.0142,1,3,19,7,1,9,-200,left,733,2022-01-25_09h07.53.874,multiplicationStroop,2021.2.3,Win32,60.06366749,,,,,,,,,,,,,,,,,,,,,,,,,,,,,,,,,,,,,,,,,,,,,,,,,,,,,,,,,
,,,,right,1,0.2481,1,4,20,8,1,1,200,right,733,2022-01-25_09h07.53.874,multiplicationStroop,2021.2.3,Win32,60.06366749,,,,,,,,,,,,,,,,,,,,,,,,,,,,,,,,,,,,,,,,,,,,,,,,,,,,,,,,,
,,,,left,1,0.2553,1,5,21,0,1,1,-200,left,733,2022-01-25_09h07.53.874,multiplicationStroop,2021.2.3,Win32,60.06366749,,,,,,,,,,,,,,,,,,,,,,,,,,,,,,,,,,,,,,,,,,,,,,,,,,,,,,,,,
,,,,left,1,0.2735,1,6,22,6,1,8,-200,left,733,2022-01-25_09h07.53.874,multiplicationStroop,2021.2.3,Win32,60.06366749,,,,,,,,,,,,,,,,,,,,,,,,,,,,,,,,,,,,,,,,,,,,,,,,,,,,,,,,,
,,,,right,1,0.2409,1,7,23,13,1,7,200,right,733,2022-01-25_09h07.53.874,multiplicationStroop,2021.2.3,Win32,60.06366749,,,,,,,,,,,,,,,,,,,,,,,,,,,,,,,,,,,,,,,,,,,,,,,,,,,,,,,,,
,,,,left,1,0.2222,1,8,24,1,1,2,-200,left,733,2022-01-25_09h07.53.874,multiplicationStroop,2021.2.3,Win32,60.06366749,,,,,,,,,,,,,,,,,,,,,,,,,,,,,,,,,,,,,,,,,,,,,,,,,,,,,,,,,
,,,,right,1,0.2336,1,9,25,12,1,6,200,right,733,2022-01-25_09h07.53.874,multiplicationStroop,2021.2.3,Win32,60.06366749,,,,,,,,,,,,,,,,,,,,,,,,,,,,,,,,,,,,,,,,,,,,,,,,,,,,,,,,,
,,,,left,1,0.2376,1,10,26,4,1,6,-200,left,733,2022-01-25_09h07.53.874,multiplicationStroop,2021.2.3,Win32,60.06366749,,,,,,,,,,,,,,,,,,,,,,,,,,,,,,,,,,,,,,,,,,,,,,,,,,,,,,,,,
,,,,right,1,0.2409,1,11,27,11,1,4,200,right,733,2022-01-25_09h07.53.874,multiplicationStroop,2021.2.3,Win32,60.06366749,,,,,,,,,,,,,,,,,,,,,,,,,,,,,,,,,,,,,,,,,,,,,,,,,,,,,,,,,
,,,,left,1,0.219,1,12,28,3,1,4,-200,left,733,2022-01-25_09h07.53.874,multiplicationStroop,2021.2.3,Win32,60.06366749,,,,,,,,,,,,,,,,,,,,,,,,,,,,,,,,,,,,,,,,,,,,,,,,,,,,,,,,,
,,,,right,1,0.2104,1,13,29,9,1,2,200,right,733,2022-01-25_09h07.53.874,multiplicationStroop,2021.2.3,Win32,60.06366749,,,,,,,,,,,,,,,,,,,,,,,,,,,,,,,,,,,,,,,,,,,,,,,,,,,,,,,,,
,,,,left,0,0.1694,1,14,30,15,1,9,200,right,733,2022-01-25_09h07.53.874,multiplicationStroop,2021.2.3,Win32,60.06366749,,,,,,,,,,,,,,,,,,,,,,,,,,,,,,,,,,,,,,,,,,,,,,,,,,,,,,,,,
,,,,right,1,0.2734,1,15,31,14,1,8,200,right,733,2022-01-25_09h07.53.874,multiplicationStroop,2021.2.3,Win32,60.06366749,,,,,,,,,,,,,,,,,,,,,,,,,,,,,,,,,,,,,,,,,,,,,,,,,,,,,,,,,
,,,,right,1,0.317,2,0,32,15,1,9,200,right,733,2022-01-25_09h07.53.874,multiplicationStroop,2021.2.3,Win32,60.06366749,,,,,,,,,,,,,,,,,,,,,,,,,,,,,,,,,,,,,,,,,,,,,,,,,,,,,,,,,
,,,,left,1,0.3345,2,1,33,3,1,4,-200,left,733,2022-01-25_09h07.53.874,multiplicationStroop,2021.2.3,Win32,60.06366749,,,,,,,,,,,,,,,,,,,,,,,,,,,,,,,,,,,,,,,,,,,,,,,,,,,,,,,,,
,,,,right,1,0.2821,2,2,34,8,1,1,200,right,733,2022-01-25_09h07.53.874,multiplicationStroop,2021.2.3,Win32,60.06366749,,,,,,,,,,,,,,,,,,,,,,,,,,,,,,,,,,,,,,,,,,,,,,,,,,,,,,,,,
,,,,left,1,0.3808,2,3,35,6,1,8,-200,left,733,2022-01-25_09h07.53.874,multiplicationStroop,2021.2.3,Win32,60.06366749,,,,,,,,,,,,,,,,,,,,,,,,,,,,,,,,,,,,,,,,,,,,,,,,,,,,,,,,,
,,,,left,1,0.2903,2,4,36,0,1,1,-200,left,733,2022-01-25_09h07.53.874,multiplicationStroop,2021.2.3,Win32,60.06366749,,,,,,,,,,,,,,,,,,,,,,,,,,,,,,,,,,,,,,,,,,,,,,,,,,,,,,,,,
,,,,left,1,0.2424,2,5,37,1,1,2,-200,left,733,2022-01-25_09h07.53.874,multiplicationStroop,2021.2.3,Win32,60.06366749,,,,,,,,,,,,,,,,,,,,,,,,,,,,,,,,,,,,,,,,,,,,,,,,,,,,,,,,,
,,,,left,1,0.2384,2,6,38,5,1,7,-200,left,733,2022-01-25_09h07.53.874,multiplicationStroop,2021.2.3,Win32,60.06366749,,,,,,,,,,,,,,,,,,,,,,,,,,,,,,,,,,,,,,,,,,,,,,,,,,,,,,,,,
,,,,right,1,0.285,2,7,39,10,1,3,200,right,733,2022-01-25_09h07.53.874,multiplicationStroop,2021.2.3,Win32,60.06366749,,,,,,,,,,,,,,,,,,,,,,,,,,,,,,,,,,,,,,,,,,,,,,,,,,,,,,,,,
,,,,right,1,0.3075,2,8,40,14,1,8,200,right,733,2022-01-25_09h07.53.874,multiplicationStroop,2021.2.3,Win32,60.06366749,,,,,,,,,,,,,,,,,,,,,,,,,,,,,,,,,,,,,,,,,,,,,,,,,,,,,,,,,
,,,,left,1,0.2684,2,9,41,7,1,9,-200,left,733,2022-01-25_09h07.53.874,multiplicationStroop,2021.2.3,Win32,60.06366749,,,,,,,,,,,,,,,,,,,,,,,,,,,,,,,,,,,,,,,,,,,,,,,,,,,,,,,,,
,,,,right,1,0.3143,2,10,42,13,1,7,200,right,733,2022-01-25_09h07.53.874,multiplicationStroop,2021.2.3,Win32,60.06366749,,,,,,,,,,,,,,,,,,,,,,,,,,,,,,,,,,,,,,,,,,,,,,,,,,,,,,,,,
,,,,right,1,0.3167,2,11,43,11,1,4,200,right,733,2022-01-25_09h07.53.874,multiplicationStroop,2021.2.3,Win32,60.06366749,,,,,,,,,,,,,,,,,,,,,,,,,,,,,,,,,,,,,,,,,,,,,,,,,,,,,,,,,
,,,,right,1,0.248,2,12,44,9,1,2,200,right,733,2022-01-25_09h07.53.874,multiplicationStroop,2021.2.3,Win32,60.06366749,,,,,,,,,,,,,,,,,,,,,,,,,,,,,,,,,,,,,,,,,,,,,,,,,,,,,,,,,
,,,,right,1,0.2821,2,13,45,12,1,6,200,right,733,2022-01-25_09h07.53.874,multiplicationStroop,2021.2.3,Win32,60.06366749,,,,,,,,,,,,,,,,,,,,,,,,,,,,,,,,,,,,,,,,,,,,,,,,,,,,,,,,,
,,,,left,1,0.3057,2,14,46,2,1,3,-200,left,733,2022-01-25_09h07.53.874,multiplicationStroop,2021.2.3,Win32,60.06366749,,,,,,,,,,,,,,,,,,,,,,,,,,,,,,,,,,,,,,,,,,,,,,,,,,,,,,,,,
,,,,left,1,0.2874,2,15,47,4,1,6,-200,left,733,2022-01-25_09h07.53.874,multiplicationStroop,2021.2.3,Win32,60.06366749,,,,,,,,,,,,,,,,,,,,,,,,,,,,,,,,,,,,,,,,,,,,,,,,,,,,,,,,,
,,,,right,1,0.2924,3,0,48,14,1,8,200,right,733,2022-01-25_09h07.53.874,multiplicationStroop,2021.2.3,Win32,60.06366749,,,,,,,,,,,,,,,,,,,,,,,,,,,,,,,,,,,,,,,,,,,,,,,,,,,,,,,,,
,,,,left,1,0.2735,3,1,49,7,1,9,-200,left,733,2022-01-25_09h07.53.874,multiplicationStroop,2021.2.3,Win32,60.06366749,,,,,,,,,,,,,,,,,,,,,,,,,,,,,,,,,,,,,,,,,,,,,,,,,,,,,,,,,
,,,,right,1,0.2986,3,2,50,13,1,7,200,right,733,2022-01-25_09h07.53.874,multiplicationStroop,2021.2.3,Win32,60.06366749,,,,,,,,,,,,,,,,,,,,,,,,,,,,,,,,,,,,,,,,,,,,,,,,,,,,,,,,,
,,,,right,1,0.2823,3,3,51,9,1,2,200,right,733,2022-01-25_09h07.53.874,multiplicationStroop,2021.2.3,Win32,60.06366749,,,,,,,,,,,,,,,,,,,,,,,,,,,,,,,,,,,,,,,,,,,,,,,,,,,,,,,,,
,,,,right,1,0.2692,3,4,52,10,1,3,200,right,733,2022-01-25_09h07.53.874,multiplicationStroop,2021.2.3,Win32,60.06366749,,,,,,,,,,,,,,,,,,,,,,,,,,,,,,,,,,,,,,,,,,,,,,,,,,,,,,,,,
,,,,right,1,0.1596,3,5,53,12,1,6,200,right,733,2022-01-25_09h07.53.874,multiplicationStroop,2021.2.3,Win32,60.06366749,,,,,,,,,,,,,,,,,,,,,,,,,,,,,,,,,,,,,,,,,,,,,,,,,,,,,,,,,
,,,,right,0,0.1914,3,6,54,4,1,6,-200,left,733,2022-01-25_09h07.53.874,multiplicationStroop,2021.2.3,Win32,60.06366749,,,,,,,,,,,,,,,,,,,,,,,,,,,,,,,,,,,,,,,,,,,,,,,,,,,,,,,,,
,,,,right,1,0.3231,3,7,55,8,1,1,200,right,733,2022-01-25_09h07.53.874,multiplicationStroop,2021.2.3,Win32,60.06366749,,,,,,,,,,,,,,,,,,,,,,,,,,,,,,,,,,,,,,,,,,,,,,,,,,,,,,,,,
,,,,right,1,0.2806,3,8,56,11,1,4,200,right,733,2022-01-25_09h07.53.874,multiplicationStroop,2021.2.3,Win32,60.06366749,,,,,,,,,,,,,,,,,,,,,,,,,,,,,,,,,,,,,,,,,,,,,,,,,,,,,,,,,
,,,,left,1,0.2876,3,9,57,6,1,8,-200,left,733,2022-01-25_09h07.53.874,multiplicationStroop,2021.2.3,Win32,60.06366749,,,,,,,,,,,,,,,,,,,,,,,,,,,,,,,,,,,,,,,,,,,,,,,,,,,,,,,,,
,,,,left,1,0.3098,3,10,58,1,1,2,-200,left,733,2022-01-25_09h07.53.874,multiplicationStroop,2021.2.3,Win32,60.06366749,,,,,,,,,,,,,,,,,,,,,,,,,,,,,,,,,,,,,,,,,,,,,,,,,,,,,,,,,
,,,,left,1,0.375,3,11,59,2,1,3,-200,left,733,2022-01-25_09h07.53.874,multiplicationStroop,2021.2.3,Win32,60.06366749,,,,,,,,,,,,,,,,,,,,,,,,,,,,,,,,,,,,,,,,,,,,,,,,,,,,,,,,,
,,,,left,1,0.2423,3,12,60,5,1,7,-200,left,733,2022-01-25_09h07.53.874,multiplicationStroop,2021.2.3,Win32,60.06366749,,,,,,,,,,,,,,,,,,,,,,,,,,,,,,,,,,,,,,,,,,,,,,,,,,,,,,,,,
,,,,left,1,0.2675,3,13,61,3,1,4,-200,left,733,2022-01-25_09h07.53.874,multiplicationStroop,2021.2.3,Win32,60.06366749,,,,,,,,,,,,,,,,,,,,,,,,,,,,,,,,,,,,,,,,,,,,,,,,,,,,,,,,,
,,,,left,0,0.1706,3,14,62,15,1,9,200,right,733,2022-01-25_09h07.53.874,multiplicationStroop,2021.2.3,Win32,60.06366749,,,,,,,,,,,,,,,,,,,,,,,,,,,,,,,,,,,,,,,,,,,,,,,,,,,,,,,,,
,,,,right,0,0.2721,3,15,63,0,1,1,-200,left,733,2022-01-25_09h07.53.874,multiplicationStroop,2021.2.3,Win32,60.06366749,,,,,,,,,,,,,,,,,,,,,,,,,,,,,,,,,,,,,,,,,,,,,,,,,,,,,,,,,
,,,,,,,,,,,,,,,733,2022-01-25_09h07.53.874,multiplicationStroop,2021.2.3,Win32,60.06366749,space,9.3333,space,3.9487,right,1,0.6276,0,0,0,1,1,3,4,3 | 4,1,1.4111,1.9756,congruent,right,,,,,,stimulusFile/physical.xlsx,,,,,,,,,,,,,,,,,,,,,,,,,,,,,,,
,,,,,,,,,,,,,,,733,2022-01-25_09h07.53.874,multiplicationStroop,2021.2.3,Win32,60.06366749,,,,,left,1,0.5923,0,1,1,42,1,3,8,3 | 8,5,1.9756,1.4111,incongruent,left,,,,,,stimulusFile/physical.xlsx,,,,,,,,,,,,,,,,,,,,,,,,,,,,,,,
,,,,,,,,,,,,,,,733,2022-01-25_09h07.53.874,multiplicationStroop,2021.2.3,Win32,60.06366749,,,,,right,1,0.4472,0,2,2,29,1,4,3,4 | 3,1,1.4111,1.9756,incongruent,right,,,,,,stimulusFile/physical.xlsx,,,,,,,,,,,,,,,,,,,,,,,,,,,,,,,
,,,,,,,,,,,,,,,733,2022-01-25_09h07.53.874,multiplicationStroop,2021.2.3,Win32,60.06366749,,,,,left,1,0.4814,0,3,3,5,1,4,3,4 | 3,1,1.9756,1.4111,congruent,left,,,,,,stimulusFile/physical.xlsx,,,,,,,,,,,,,,,,,,,,,,,,,,,,,,,
,,,,,,,,,,,,,,,733,2022-01-25_09h07.53.874,multiplicationStroop,2021.2.3,Win32,60.06366749,,,,,left,1,0.4379,0,4,4,41,1,2,7,2 | 7,5,1.9756,1.4111,incongruent,left,,,,,,stimulusFile/physical.xlsx,,,,,,,,,,,,,,,,,,,,,,,,,,,,,,,
,,,,,,,,,,,,,,,733,2022-01-25_09h07.53.874,multiplicationStroop,2021.2.3,Win32,60.06366749,,,,,right,1,0.4711,0,5,5,58,1,6,6,6 | 6,0,1.4111,1.9756,neutral,right,,,,,,stimulusFile/physical.xlsx,,,,,,,,,,,,,,,,,,,,,,,,,,,,,,,
,,,,,,,,,,,,,,,733,2022-01-25_09h07.53.874,multiplicationStroop,2021.2.3,Win32,60.06366749,,,,,left,1,0.4204,0,6,6,33,1,2,4,2 | 4,2,1.9756,1.4111,incongruent,left,,,,,,stimulusFile/physical.xlsx,,,,,,,,,,,,,,,,,,,,,,,,,,,,,,,
,,,,,,,,,,,,,,,733,2022-01-25_09h07.53.874,multiplicationStroop,2021.2.3,Win32,60.06366749,,,,,right,1,0.4663,0,7,7,63,1,9,9,9 | 9,0,1.4111,1.9756,neutral,right,,,,,,stimulusFile/physical.xlsx,,,,,,,,,,,,,,,,,,,,,,,,,,,,,,,
,,,,,,,,,,,,,,,733,2022-01-25_09h07.53.874,multiplicationStroop,2021.2.3,Win32,60.06366749,,,,,right,1,0.4576,0,8,8,39,1,9,7,9 | 7,2,1.4111,1.9756,incongruent,right,,,,,,stimulusFile/physical.xlsx,,,,,,,,,,,,,,,,,,,,,,,,,,,,,,,
,,,,,,,,,,,,,,,733,2022-01-25_09h07.53.874,multiplicationStroop,2021.2.3,Win32,60.06366749,,,,,right,1,0.4113,0,9,9,3,1,8,9,8 | 9,1,1.4111,1.9756,congruent,right,,,,,,stimulusFile/physical.xlsx,,,,,,,,,,,,,,,,,,,,,,,,,,,,,,,
,,,,,,,,,,,,,,,733,2022-01-25_09h07.53.874,multiplicationStroop,2021.2.3,Win32,60.06366749,,,,,right,1,0.437,0,10,10,31,1,9,8,9 | 8,1,1.4111,1.9756,incongruent,right,,,,,,stimulusFile/physical.xlsx,,,,,,,,,,,,,,,,,,,,,,,,,,,,,,,
,,,,,,,,,,,,,,,733,2022-01-25_09h07.53.874,multiplicationStroop,2021.2.3,Win32,60.06366749,,,,,left,1,0.3871,0,11,11,21,1,7,2,7 | 2,5,1.9756,1.4111,congruent,left,,,,,,stimulusFile/physical.xlsx,,,,,,,,,,,,,,,,,,,,,,,,,,,,,,,
,,,,,,,,,,,,,,,733,2022-01-25_09h07.53.874,multiplicationStroop,2021.2.3,Win32,60.06366749,,,,,right,1,0.4401,0,12,12,17,1,2,7,2 | 7,5,1.4111,1.9756,congruent,right,,,,,,stimulusFile/physical.xlsx,,,,,,,,,,,,,,,,,,,,,,,,,,,,,,,
,,,,,,,,,,,,,,,733,2022-01-25_09h07.53.874,multiplicationStroop,2021.2.3,Win32,60.06366749,,,,,left,1,0.4032,0,13,13,54,1,7,7,7 | 7,0,1.9756,1.4111,neutral,left,,,,,,stimulusFile/physical.xlsx,,,,,,,,,,,,,,,,,,,,,,,,,,,,,,,
,,,,,,,,,,,,,,,733,2022-01-25_09h07.53.874,multiplicationStroop,2021.2.3,Win32,60.06366749,,,,,right,1,0.645,0,14,14,47,1,9,4,9 | 4,5,1.4111,1.9756,incongruent,right,,,,,,stimulusFile/physical.xlsx,,,,,,,,,,,,,,,,,,,,,,,,,,,,,,,
,,,,,,,,,,,,,,,733,2022-01-25_09h07.53.874,multiplicationStroop,2021.2.3,Win32,60.06366749,,,,,left,1,0.5039,0,15,15,68,1,6,6,6 | 6,0,1.9756,1.4111,neutral,left,,,,,,stimulusFile/physical.xlsx,,,,,,,,,,,,,,,,,,,,,,,,,,,,,,,
,,,,,,,,,,,,,,,733,2022-01-25_09h07.53.874,multiplicationStroop,2021.2.3,Win32,60.06366749,,,,,right,1,0.6379,0,16,16,16,1,1,6,1 | 6,5,1.4111,1.9756,congruent,right,,,,,,stimulusFile/physical.xlsx,,,,,,,,,,,,,,,,,,,,,,,,,,,,,,,
,,,,,,,,,,,,,,,733,2022-01-25_09h07.53.874,multiplicationStroop,2021.2.3,Win32,60.06366749,,,,,right,1,0.5636,0,17,17,38,1,8,6,8 | 6,2,1.4111,1.9756,incongruent,right,,,,,,stimulusFile/physical.xlsx,,,,,,,,,,,,,,,,,,,,,,,,,,,,,,,
,,,,,,,,,,,,,,,733,2022-01-25_09h07.53.874,multiplicationStroop,2021.2.3,Win32,60.06366749,,,,,right,1,0.4932,0,18,18,62,1,8,8,8 | 8,0,1.4111,1.9756,neutral,right,,,,,,stimulusFile/physical.xlsx,,,,,,,,,,,,,,,,,,,,,,,,,,,,,,,
,,,,,,,,,,,,,,,733,2022-01-25_09h07.53.874,multiplicationStroop,2021.2.3,Win32,60.06366749,,,,,right,1,0.4896,0,19,19,8,1,1,3,1 | 3,2,1.4111,1.9756,congruent,right,,,,,,stimulusFile/physical.xlsx,,,,,,,,,,,,,,,,,,,,,,,,,,,,,,,
,,,,,,,,,,,,,,,733,2022-01-25_09h07.53.874,multiplicationStroop,2021.2.3,Win32,60.06366749,,,,,right,1,0.418,0,20,20,30,1,7,6,7 | 6,1,1.4111,1.9756,incongruent,right,,,,,,stimulusFile/physical.xlsx,,,,,,,,,,,,,,,,,,,,,,,,,,,,,,,
,,,,,,,,,,,,,,,733,2022-01-25_09h07.53.874,multiplicationStroop,2021.2.3,Win32,60.06366749,,,,,right,1,0.435,0,21,21,59,1,7,7,7 | 7,0,1.4111,1.9756,neutral,right,,,,,,stimulusFile/physical.xlsx,,,,,,,,,,,,,,,,,,,,,,,,,,,,,,,
,,,,,,,,,,,,,,,733,2022-01-25_09h07.53.874,multiplicationStroop,2021.2.3,Win32,60.06366749,,,,,right,0,0.4197,0,22,22,69,1,7,7,7 | 7,0,1.4111,1.9756,neutral,left,,,,,,stimulusFile/physical.xlsx,,,,,,,,,,,,,,,,,,,,,,,,,,,,,,,
,,,,,,,,,,,,,,,733,2022-01-25_09h07.53.874,multiplicationStroop,2021.2.3,Win32,60.06366749,,,,,right,1,0.4936,0,23,23,44,1,6,1,6 | 1,5,1.4111,1.9756,incongruent,right,,,,,,stimulusFile/physical.xlsx,,,,,,,,,,,,,,,,,,,,,,,,,,,,,,,
,,,,,,,,,,,,,,,733,2022-01-25_09h07.53.874,multiplicationStroop,2021.2.3,Win32,60.06366749,,,,,left,1,0.4628,0,24,24,7,1,9,8,9 | 8,1,1.9756,1.4111,congruent,left,,,,,,stimulusFile/physical.xlsx,,,,,,,,,,,,,,,,,,,,,,,,,,,,,,,
,,,,,,,,,,,,,,,733,2022-01-25_09h07.53.874,multiplicationStroop,2021.2.3,Win32,60.06366749,,,,,right,1,0.5318,0,25,25,61,1,4,4,4 | 4,0,1.4111,1.9756,neutral,right,,,,,,stimulusFile/physical.xlsx,,,,,,,,,,,,,,,,,,,,,,,,,,,,,,,
,,,,,,,,,,,,,,,733,2022-01-25_09h07.53.874,multiplicationStroop,2021.2.3,Win32,60.06366749,,,,,left,1,0.5994,0,26,26,70,1,8,8,8 | 8,0,1.9756,1.4111,neutral,left,,,,,,stimulusFile/physical.xlsx,,,,,,,,,,,,,,,,,,,,,,,,,,,,,,,
,,,,,,,,,,,,,,,733,2022-01-25_09h07.53.874,multiplicationStroop,2021.2.3,Win32,60.06366749,,,,,left,1,0.6031,0,27,27,24,1,1,2,1 | 2,1,1.9756,1.4111,incongruent,left,,,,,,stimulusFile/physical.xlsx,,,,,,,,,,,,,,,,,,,,,,,,,,,,,,,
,,,,,,,,,,,,,,,733,2022-01-25_09h07.53.874,multiplicationStroop,2021.2.3,Win32,60.06366749,,,,,left,1,0.5146,0,28,28,52,1,2,2,2 | 2,0,1.9756,1.4111,neutral,left,,,,,,stimulusFile/physical.xlsx,,,,,,,,,,,,,,,,,,,,,,,,,,,,,,,
,,,,,,,,,,,,,,,733,2022-01-25_09h07.53.874,multiplicationStroop,2021.2.3,Win32,60.06366749,,,,,right,1,0.4638,0,29,29,0,1,1,2,1 | 2,1,1.4111,1.9756,congruent,right,,,,,,stimulusFile/physical.xlsx,,,,,,,,,,,,,,,,,,,,,,,,,,,,,,,
,,,,,,,,,,,,,,,733,2022-01-25_09h07.53.874,multiplicationStroop,2021.2.3,Win32,60.06366749,,,,,left,0,0.3537,0,30,30,66,1,3,3,3 | 3,0,1.9756,1.4111,neutral,right,,,,,,stimulusFile/physical.xlsx,,,,,,,,,,,,,,,,,,,,,,,,,,,,,,,
,,,,,,,,,,,,,,,733,2022-01-25_09h07.53.874,multiplicationStroop,2021.2.3,Win32,60.06366749,,,,,left,1,0.4854,0,31,31,13,1,4,2,4 | 2,2,1.9756,1.4111,congruent,left,,,,,,stimulusFile/physical.xlsx,,,,,,,,,,,,,,,,,,,,,,,,,,,,,,,
,,,,,,,,,,,,,,,733,2022-01-25_09h07.53.874,multiplicationStroop,2021.2.3,Win32,60.06366749,,,,,right,1,0.5397,0,32,32,65,1,2,2,2 | 2,0,1.4111,1.9756,neutral,right,,,,,,stimulusFile/physical.xlsx,,,,,,,,,,,,,,,,,,,,,,,,,,,,,,,
,,,,,,,,,,,,,,,733,2022-01-25_09h07.53.874,multiplicationStroop,2021.2.3,Win32,60.06366749,,,,,left,1,0.3959,0,33,33,26,1,6,7,6 | 7,1,1.9756,1.4111,incongruent,left,,,,,,stimulusFile/physical.xlsx,,,,,,,,,,,,,,,,,,,,,,,,,,,,,,,
,,,,,,,,,,,,,,,733,2022-01-25_09h07.53.874,multiplicationStroop,2021.2.3,Win32,60.06366749,,,,,left,1,0.4035,0,34,34,43,1,4,9,4 | 9,5,1.9756,1.4111,incongruent,left,,,,,,stimulusFile/physical.xlsx,,,,,,,,,,,,,,,,,,,,,,,,,,,,,,,
,,,,,,,,,,,,,,,733,2022-01-25_09h07.53.874,multiplicationStroop,2021.2.3,Win32,60.06366749,,,,,left,1,0.5286,0,35,35,48,1,1,1,1 | 1,0,1.9756,1.4111,neutral,left,,,,,,stimulusFile/physical.xlsx,,,,,,,,,,,,,,,,,,,,,,,,,,,,,,,
,,,,,,,,,,,,,,,733,2022-01-25_09h07.53.874,multiplicationStroop,2021.2.3,Win32,60.06366749,,,,,right,1,0.4115,0,36,36,36,1,3,1,3 | 1,2,1.4111,1.9756,incongruent,right,,,,,,stimulusFile/physical.xlsx,,,,,,,,,,,,,,,,,,,,,,,,,,,,,,,
,,,,,,,,,,,,,,,733,2022-01-25_09h07.53.874,multiplicationStroop,2021.2.3,Win32,60.06366749,,,,,right,1,0.5411,0,37,37,60,1,3,3,3 | 3,0,1.4111,1.9756,neutral,right,,,,,,stimulusFile/physical.xlsx,,,,,,,,,,,,,,,,,,,,,,,,,,,,,,,
,,,,,,,,,,,,,,,733,2022-01-25_09h07.53.874,multiplicationStroop,2021.2.3,Win32,60.06366749,,,,,left,1,0.368,0,38,38,22,1,8,3,8 | 3,5,1.9756,1.4111,congruent,left,,,,,,stimulusFile/physical.xlsx,,,,,,,,,,,,,,,,,,,,,,,,,,,,,,,
,,,,,,,,,,,,,,,733,2022-01-25_09h07.53.874,multiplicationStroop,2021.2.3,Win32,60.06366749,,,,,left,1,0.4284,0,39,39,53,1,4,4,4 | 4,0,1.9756,1.4111,neutral,left,,,,,,stimulusFile/physical.xlsx,,,,,,,,,,,,,,,,,,,,,,,,,,,,,,,
,,,,,,,,,,,,,,,733,2022-01-25_09h07.53.874,multiplicationStroop,2021.2.3,Win32,60.06366749,,,,,right,1,0.401,0,40,40,67,1,4,4,4 | 4,0,1.4111,1.9756,neutral,right,,,,,,stimulusFile/physical.xlsx,,,,,,,,,,,,,,,,,,,,,,,,,,,,,,,
,,,,,,,,,,,,,,,733,2022-01-25_09h07.53.874,multiplicationStroop,2021.2.3,Win32,60.06366749,,,,,right,1,0.4958,0,41,41,18,1,3,8,3 | 8,5,1.4111,1.9756,congruent,right,,,,,,stimulusFile/physical.xlsx,,,,,,,,,,,,,,,,,,,,,,,,,,,,,,,
,,,,,,,,,,,,,,,733,2022-01-25_09h07.53.874,multiplicationStroop,2021.2.3,Win32,60.06366749,,,,,left,1,0.3622,0,42,42,34,1,6,8,6 | 8,2,1.9756,1.4111,incongruent,left,,,,,,stimulusFile/physical.xlsx,,,,,,,,,,,,,,,,,,,,,,,,,,,,,,,
,,,,,,,,,,,,,,,733,2022-01-25_09h07.53.874,multiplicationStroop,2021.2.3,Win32,60.06366749,,,,,right,1,0.4015,0,43,43,45,1,7,2,7 | 2,5,1.4111,1.9756,incongruent,right,,,,,,stimulusFile/physical.xlsx,,,,,,,,,,,,,,,,,,,,,,,,,,,,,,,
,,,,,,,,,,,,,,,733,2022-01-25_09h07.53.874,multiplicationStroop,2021.2.3,Win32,60.06366749,,,,,right,1,0.4831,0,44,44,56,1,1,1,1 | 1,0,1.4111,1.9756,neutral,right,,,,,,stimulusFile/physical.xlsx,,,,,,,,,,,,,,,,,,,,,,,,,,,,,,,
,,,,,,,,,,,,,,,733,2022-01-25_09h07.53.874,multiplicationStroop,2021.2.3,Win32,60.06366749,,,,,left,0,0.5523,0,45,45,10,1,6,8,6 | 8,2,1.4111,1.9756,congruent,right,,,,,,stimulusFile/physical.xlsx,,,,,,,,,,,,,,,,,,,,,,,,,,,,,,,
,,,,,,,,,,,,,,,733,2022-01-25_09h07.53.874,multiplicationStroop,2021.2.3,Win32,60.06366749,,,,,right,1,0.8721,0,46,46,37,1,4,2,4 | 2,2,1.4111,1.9756,incongruent,right,,,,,,stimulusFile/physical.xlsx,,,,,,,,,,,,,,,,,,,,,,,,,,,,,,,
,,,,,,,,,,,,,,,733,2022-01-25_09h07.53.874,multiplicationStroop,2021.2.3,Win32,60.06366749,,,,,right,1,0.715,0,47,47,28,1,2,1,2 | 1,1,1.4111,1.9756,incongruent,right,,,,,,stimulusFile/physical.xlsx,,,,,,,,,,,,,,,,,,,,,,,,,,,,,,,
,,,,,,,,,,,,,,,733,2022-01-25_09h07.53.874,multiplicationStroop,2021.2.3,Win32,60.06366749,,,,,left,1,0.4349,0,48,48,4,1,2,1,2 | 1,1,1.9756,1.4111,congruent,left,,,,,,stimulusFile/physical.xlsx,,,,,,,,,,,,,,,,,,,,,,,,,,,,,,,
,,,,,,,,,,,,,,,733,2022-01-25_09h07.53.874,multiplicationStroop,2021.2.3,Win32,60.06366749,,,,,right,1,0.7711,0,49,49,2,1,6,7,6 | 7,1,1.4111,1.9756,congruent,right,,,,,,stimulusFile/physical.xlsx,,,,,,,,,,,,,,,,,,,,,,,,,,,,,,,
,,,,,,,,,,,,,,,733,2022-01-25_09h07.53.874,multiplicationStroop,2021.2.3,Win32,60.06366749,,,,,left,1,0.5455,0,50,50,20,1,6,1,6 | 1,5,1.9756,1.4111,congruent,left,,,,,,stimulusFile/physical.xlsx,,,,,,,,,,,,,,,,,,,,,,,,,,,,,,,
,,,,,,,,,,,,,,,733,2022-01-25_09h07.53.874,multiplicationStroop,2021.2.3,Win32,60.06366749,,,,,left,1,0.3315,0,51,51,12,1,3,1,3 | 1,2,1.9756,1.4111,congruent,left,,,,,,stimulusFile/physical.xlsx,,,,,,,,,,,,,,,,,,,,,,,,,,,,,,,
,,,,,,,,,,,,,,,733,2022-01-25_09h07.53.874,multiplicationStroop,2021.2.3,Win32,60.06366749,,,,,left,1,0.362,0,52,52,51,1,8,8,8 | 8,0,1.9756,1.4111,neutral,left,,,,,,stimulusFile/physical.xlsx,,,,,,,,,,,,,,,,,,,,,,,,,,,,,,,
,,,,,,,,,,,,,,,733,2022-01-25_09h07.53.874,multiplicationStroop,2021.2.3,Win32,60.06366749,,,,,left,1,0.3402,0,53,53,23,1,9,4,9 | 4,5,1.9756,1.4111,congruent,left,,,,,,stimulusFile/physical.xlsx,,,,,,,,,,,,,,,,,,,,,,,,,,,,,,,
,,,,,,,,,,,,,,,733,2022-01-25_09h07.53.874,multiplicationStroop,2021.2.3,Win32,60.06366749,,,,,left,1,0.3448,0,54,54,14,1,8,6,8 | 6,2,1.9756,1.4111,congruent,left,,,,,,stimulusFile/physical.xlsx,,,,,,,,,,,,,,,,,,,,,,,,,,,,,,,
,,,,,,,,,,,,,,,733,2022-01-25_09h07.53.874,multiplicationStroop,2021.2.3,Win32,60.06366749,,,,,left,1,0.4317,0,55,55,25,1,3,4,3 | 4,1,1.9756,1.4111,incongruent,left,,,,,,stimulusFile/physical.xlsx,,,,,,,,,,,,,,,,,,,,,,,,,,,,,,,
,,,,,,,,,,,,,,,733,2022-01-25_09h07.53.874,multiplicationStroop,2021.2.3,Win32,60.06366749,,,,,right,0,0.5118,0,56,56,71,1,9,9,9 | 9,0,1.4111,1.9756,neutral,left,,,,,,stimulusFile/physical.xlsx,,,,,,,,,,,,,,,,,,,,,,,,,,,,,,,
,,,,,,,,,,,,,,,733,2022-01-25_09h07.53.874,multiplicationStroop,2021.2.3,Win32,60.06366749,,,,,left,1,0.4148,0,57,57,55,1,9,9,9 | 9,0,1.9756,1.4111,neutral,left,,,,,,stimulusFile/physical.xlsx,,,,,,,,,,,,,,,,,,,,,,,,,,,,,,,
,,,,,,,,,,,,,,,733,2022-01-25_09h07.53.874,multiplicationStroop,2021.2.3,Win32,60.06366749,,,,,left,1,0.4455,0,58,58,49,1,3,3,3 | 3,0,1.9756,1.4111,neutral,left,,,,,,stimulusFile/physical.xlsx,,,,,,,,,,,,,,,,,,,,,,,,,,,,,,,
,,,,,,,,,,,,,,,733,2022-01-25_09h07.53.874,multiplicationStroop,2021.2.3,Win32,60.06366749,,,,,right,1,0.4011,0,59,59,57,1,2,2,2 | 2,0,1.4111,1.9756,neutral,right,,,,,,stimulusFile/physical.xlsx,,,,,,,,,,,,,,,,,,,,,,,,,,,,,,,
,,,,,,,,,,,,,,,733,2022-01-25_09h07.53.874,multiplicationStroop,2021.2.3,Win32,60.06366749,,,,,right,1,0.442,0,60,60,9,1,2,4,2 | 4,2,1.4111,1.9756,congruent,right,,,,,,stimulusFile/physical.xlsx,,,,,,,,,,,,,,,,,,,,,,,,,,,,,,,
,,,,,,,,,,,,,,,733,2022-01-25_09h07.53.874,multiplicationStroop,2021.2.3,Win32,60.06366749,,,,,left,1,0.3512,0,61,61,15,1,9,7,9 | 7,2,1.9756,1.4111,congruent,left,,,,,,stimulusFile/physical.xlsx,,,,,,,,,,,,,,,,,,,,,,,,,,,,,,,
,,,,,,,,,,,,,,,733,2022-01-25_09h07.53.874,multiplicationStroop,2021.2.3,Win32,60.06366749,,,,,left,0,0.4051,0,62,62,64,1,1,1,1 | 1,0,1.9756,1.4111,neutral,right,,,,,,stimulusFile/physical.xlsx,,,,,,,,,,,,,,,,,,,,,,,,,,,,,,,
,,,,,,,,,,,,,,,733,2022-01-25_09h07.53.874,multiplicationStroop,2021.2.3,Win32,60.06366749,,,,,left,1,0.3548,0,63,63,40,1,1,6,1 | 6,5,1.9756,1.4111,incongruent,left,,,,,,stimulusFile/physical.xlsx,,,,,,,,,,,,,,,,,,,,,,,,,,,,,,,
,,,,,,,,,,,,,,,733,2022-01-25_09h07.53.874,multiplicationStroop,2021.2.3,Win32,60.06366749,,,,,left,1,0.3131,0,64,64,35,1,7,9,7 | 9,2,1.9756,1.4111,incongruent,left,,,,,,stimulusFile/physical.xlsx,,,,,,,,,,,,,,,,,,,,,,,,,,,,,,,
,,,,,,,,,,,,,,,733,2022-01-25_09h07.53.874,multiplicationStroop,2021.2.3,Win32,60.06366749,,,,,left,1,0.4309,0,65,65,27,1,8,9,8 | 9,1,1.9756,1.4111,incongruent,left,,,,,,stimulusFile/physical.xlsx,,,,,,,,,,,,,,,,,,,,,,,,,,,,,,,
,,,,,,,,,,,,,,,733,2022-01-25_09h07.53.874,multiplicationStroop,2021.2.3,Win32,60.06366749,,,,,left,0,0.2747,0,66,66,19,1,4,9,4 | 9,5,1.4111,1.9756,congruent,right,,,,,,stimulusFile/physical.xlsx,,,,,,,,,,,,,,,,,,,,,,,,,,,,,,,
,,,,,,,,,,,,,,,733,2022-01-25_09h07.53.874,multiplicationStroop,2021.2.3,Win32,60.06366749,,,,,left,1,0.3789,0,67,67,50,1,6,6,6 | 6,0,1.9756,1.4111,neutral,left,,,,,,stimulusFile/physical.xlsx,,,,,,,,,,,,,,,,,,,,,,,,,,,,,,,
,,,,,,,,,,,,,,,733,2022-01-25_09h07.53.874,multiplicationStroop,2021.2.3,Win32,60.06366749,,,,,right,1,0.5375,0,68,68,11,1,7,9,7 | 9,2,1.4111,1.9756,congruent,right,,,,,,stimulusFile/physical.xlsx,,,,,,,,,,,,,,,,,,,,,,,,,,,,,,,
,,,,,,,,,,,,,,,733,2022-01-25_09h07.53.874,multiplicationStroop,2021.2.3,Win32,60.06366749,,,,,left,1,0.4286,0,69,69,6,1,7,6,7 | 6,1,1.9756,1.4111,congruent,left,,,,,,stimulusFile/physical.xlsx,,,,,,,,,,,,,,,,,,,,,,,,,,,,,,,
,,,,,,,,,,,,,,,733,2022-01-25_09h07.53.874,multiplicationStroop,2021.2.3,Win32,60.06366749,,,,,left,1,0.4297,0,70,70,32,1,1,3,1 | 3,2,1.9756,1.4111,incongruent,left,,,,,,stimulusFile/physical.xlsx,,,,,,,,,,,,,,,,,,,,,,,,,,,,,,,
,,,,,,,,,,,,,,,733,2022-01-25_09h07.53.874,multiplicationStroop,2021.2.3,Win32,60.06366749,,,,,right,1,0.6521,0,71,71,46,1,8,3,8 | 3,5,1.4111,1.9756,incongruent,right,,,,,,stimulusFile/physical.xlsx,,,,,,,,,,,,,,,,,,,,,,,,,,,,,,,
,,,,,,,,,,,,,,,733,2022-01-25_09h07.53.874,multiplicationStroop,2021.2.3,Win32,60.06366749,,,,,,,,,,,,,,,,,,,,,0,0,0,1,1,stimulusFile/physical.xlsx,PHYSICALLY larger (larger font size).,images/physicallyLarger.png,,,,,,,,,,,,,,,,,,,,,,,,,,,,,
,,,,,,,,,,,,,,,733,2022-01-25_09h07.53.874,multiplicationStroop,2021.2.3,Win32,60.06366749,space,8.0359,space,6.6755,right,1,0.734,0,0,0,64,1,1,6,1 | 6,5,1.6933,1.6933,neutral,right,,,,,,stimulusFile/magnitude.xlsx,,,,,,,,,,,,,,,,,,,,,,,,,,,,,,,
,,,,,,,,,,,,,,,733,2022-01-25_09h07.53.874,multiplicationStroop,2021.2.3,Win32,60.06366749,,,,,left,1,1.0876,0,1,1,44,1,6,1,6 | 1,5,1.4111,1.9756,incongruent,left,,,,,,stimulusFile/magnitude.xlsx,,,,,,,,,,,,,,,,,,,,,,,,,,,,,,,
,,,,,,,,,,,,,,,733,2022-01-25_09h07.53.874,multiplicationStroop,2021.2.3,Win32,60.06366749,,,,,left,1,0.7518,0,2,2,70,1,8,3,8 | 3,5,1.6933,1.6933,neutral,left,,,,,,stimulusFile/magnitude.xlsx,,,,,,,,,,,,,,,,,,,,,,,,,,,,,,,
,,,,,,,,,,,,,,,733,2022-01-25_09h07.53.874,multiplicationStroop,2021.2.3,Win32,60.06366749,,,,,left,1,0.5751,0,3,3,60,1,3,1,3 | 1,2,1.6933,1.6933,neutral,left,,,,,,stimulusFile/magnitude.xlsx,,,,,,,,,,,,,,,,,,,,,,,,,,,,,,,
,,,,,,,,,,,,,,,733,2022-01-25_09h07.53.874,multiplicationStroop,2021.2.3,Win32,60.06366749,,,,,left,1,0.4292,0,4,4,36,1,3,1,3 | 1,2,1.4111,1.9756,incongruent,left,,,,,,stimulusFile/magnitude.xlsx,,,,,,,,,,,,,,,,,,,,,,,,,,,,,,,
,,,,,,,,,,,,,,,733,2022-01-25_09h07.53.874,multiplicationStroop,2021.2.3,Win32,60.06366749,,,,,right,1,0.6558,0,5,5,43,1,4,9,4 | 9,5,1.9756,1.4111,incongruent,right,,,,,,stimulusFile/magnitude.xlsx,,,,,,,,,,,,,,,,,,,,,,,,,,,,,,,
,,,,,,,,,,,,,,,733,2022-01-25_09h07.53.874,multiplicationStroop,2021.2.3,Win32,60.06366749,,,,,left,1,0.6792,0,6,6,46,1,8,3,8 | 3,5,1.4111,1.9756,incongruent,left,,,,,,stimulusFile/magnitude.xlsx,,,,,,,,,,,,,,,,,,,,,,,,,,,,,,,
,,,,,,,,,,,,,,,733,2022-01-25_09h07.53.874,multiplicationStroop,2021.2.3,Win32,60.06366749,,,,,right,1,0.552,0,7,7,66,1,3,8,3 | 8,5,1.6933,1.6933,neutral,right,,,,,,stimulusFile/magnitude.xlsx,,,,,,,,,,,,,,,,,,,,,,,,,,,,,,,
,,,,,,,,,,,,,,,733,2022-01-25_09h07.53.874,multiplicationStroop,2021.2.3,Win32,60.06366749,,,,,left,1,0.6293,0,8,8,13,1,4,2,4 | 2,2,1.9756,1.4111,congruent,left,,,,,,stimulusFile/magnitude.xlsx,,,,,,,,,,,,,,,,,,,,,,,,,,,,,,,
,,,,,,,,,,,,,,,733,2022-01-25_09h07.53.874,multiplicationStroop,2021.2.3,Win32,60.06366749,,,,,right,1,0.5076,0,9,9,50,1,6,7,6 | 7,1,1.6933,1.6933,neutral,right,,,,,,stimulusFile/magnitude.xlsx,,,,,,,,,,,,,,,,,,,,,,,,,,,,,,,
,,,,,,,,,,,,,,,733,2022-01-25_09h07.53.874,multiplicationStroop,2021.2.3,Win32,60.06366749,,,,,left,1,0.6007,0,10,10,5,1,4,3,4 | 3,1,1.9756,1.4111,congruent,left,,,,,,stimulusFile/magnitude.xlsx,,,,,,,,,,,,,,,,,,,,,,,,,,,,,,,
,,,,,,,,,,,,,,,733,2022-01-25_09h07.53.874,multiplicationStroop,2021.2.3,Win32,60.06366749,,,,,right,1,0.5293,0,11,11,18,1,3,8,3 | 8,5,1.4111,1.9756,congruent,right,,,,,,stimulusFile/magnitude.xlsx,,,,,,,,,,,,,,,,,,,,,,,,,,,,,,,
,,,,,,,,,,,,,,,733,2022-01-25_09h07.53.874,multiplicationStroop,2021.2.3,Win32,60.06366749,,,,,left,1,0.638,0,12,12,55,1,9,8,9 | 8,1,1.6933,1.6933,neutral,left,,,,,,stimulusFile/magnitude.xlsx,,,,,,,,,,,,,,,,,,,,,,,,,,,,,,,
,,,,,,,,,,,,,,,733,2022-01-25_09h07.53.874,multiplicationStroop,2021.2.3,Win32,60.06366749,,,,,right,1,0.5721,0,13,13,49,1,3,4,3 | 4,1,1.6933,1.6933,neutral,right,,,,,,stimulusFile/magnitude.xlsx,,,,,,,,,,,,,,,,,,,,,,,,,,,,,,,
,,,,,,,,,,,,,,,733,2022-01-25_09h07.53.874,multiplicationStroop,2021.2.3,Win32,60.06366749,,,,,left,1,0.8452,0,14,14,30,1,7,6,7 | 6,1,1.4111,1.9756,incongruent,left,,,,,,stimulusFile/magnitude.xlsx,,,,,,,,,,,,,,,,,,,,,,,,,,,,,,,
,,,,,,,,,,,,,,,733,2022-01-25_09h07.53.874,multiplicationStroop,2021.2.3,Win32,60.06366749,,,,,right,1,0.5473,0,15,15,2,1,6,7,6 | 7,1,1.4111,1.9756,congruent,right,,,,,,stimulusFile/magnitude.xlsx,,,,,,,,,,,,,,,,,,,,,,,,,,,,,,,
,,,,,,,,,,,,,,,733,2022-01-25_09h07.53.874,multiplicationStroop,2021.2.3,Win32,60.06366749,,,,,right,1,0.7244,0,16,16,58,1,6,8,6 | 8,2,1.6933,1.6933,neutral,right,,,,,,stimulusFile/magnitude.xlsx,,,,,,,,,,,,,,,,,,,,,,,,,,,,,,,
,,,,,,,,,,,,,,,733,2022-01-25_09h07.53.874,multiplicationStroop,2021.2.3,Win32,60.06366749,,,,,left,1,0.5314,0,17,17,7,1,9,8,9 | 8,1,1.9756,1.4111,congruent,left,,,,,,stimulusFile/magnitude.xlsx,,,,,,,,,,,,,,,,,,,,,,,,,,,,,,,
,,,,,,,,,,,,,,,733,2022-01-25_09h07.53.874,multiplicationStroop,2021.2.3,Win32,60.06366749,,,,,right,1,0.5872,0,18,18,33,1,2,4,2 | 4,2,1.9756,1.4111,incongruent,right,,,,,,stimulusFile/magnitude.xlsx,,,,,,,,,,,,,,,,,,,,,,,,,,,,,,,
,,,,,,,,,,,,,,,733,2022-01-25_09h07.53.874,multiplicationStroop,2021.2.3,Win32,60.06366749,,,,,left,1,0.5639,0,19,19,52,1,2,1,2 | 1,1,1.6933,1.6933,neutral,left,,,,,,stimulusFile/magnitude.xlsx,,,,,,,,,,,,,,,,,,,,,,,,,,,,,,,
,,,,,,,,,,,,,,,733,2022-01-25_09h07.53.874,multiplicationStroop,2021.2.3,Win32,60.06366749,,,,,left,1,0.6302,0,20,20,15,1,9,7,9 | 7,2,1.9756,1.4111,congruent,left,,,,,,stimulusFile/magnitude.xlsx,,,,,,,,,,,,,,,,,,,,,,,,,,,,,,,
,,,,,,,,,,,,,,,733,2022-01-25_09h07.53.874,multiplicationStroop,2021.2.3,Win32,60.06366749,,,,,right,1,0.5877,0,21,21,0,1,1,2,1 | 2,1,1.4111,1.9756,congruent,right,,,,,,stimulusFile/magnitude.xlsx,,,,,,,,,,,,,,,,,,,,,,,,,,,,,,,
,,,,,,,,,,,,,,,733,2022-01-25_09h07.53.874,multiplicationStroop,2021.2.3,Win32,60.06366749,,,,,left,1,0.4075,0,22,22,23,1,9,4,9 | 4,5,1.9756,1.4111,congruent,left,,,,,,stimulusFile/magnitude.xlsx,,,,,,,,,,,,,,,,,,,,,,,,,,,,,,,
,,,,,,,,,,,,,,,733,2022-01-25_09h07.53.874,multiplicationStroop,2021.2.3,Win32,60.06366749,,,,,left,1,0.7328,0,23,23,38,1,8,6,8 | 6,2,1.4111,1.9756,incongruent,left,,,,,,stimulusFile/magnitude.xlsx,,,,,,,,,,,,,,,,,,,,,,,,,,,,,,,
,,,,,,,,,,,,,,,733,2022-01-25_09h07.53.874,multiplicationStroop,2021.2.3,Win32,60.06366749,,,,,right,1,0.6086,0,24,24,17,1,2,7,2 | 7,5,1.4111,1.9756,congruent,right,,,,,,stimulusFile/magnitude.xlsx,,,,,,,,,,,,,,,,,,,,,,,,,,,,,,,
,,,,,,,,,,,,,,,733,2022-01-25_09h07.53.874,multiplicationStroop,2021.2.3,Win32,60.06366749,,,,,right,1,0.5743,0,25,25,24,1,1,2,1 | 2,1,1.9756,1.4111,incongruent,right,,,,,,stimulusFile/magnitude.xlsx,,,,,,,,,,,,,,,,,,,,,,,,,,,,,,,
,,,,,,,,,,,,,,,733,2022-01-25_09h07.53.874,multiplicationStroop,2021.2.3,Win32,60.06366749,,,,,left,1,0.824,0,26,26,45,1,7,2,7 | 2,5,1.4111,1.9756,incongruent,left,,,,,,stimulusFile/magnitude.xlsx,,,,,,,,,,,,,,,,,,,,,,,,,,,,,,,
,,,,,,,,,,,,,,,733,2022-01-25_09h07.53.874,multiplicationStroop,2021.2.3,Win32,60.06366749,,,,,right,1,0.5046,0,27,27,32,1,1,3,1 | 3,2,1.9756,1.4111,incongruent,right,,,,,,stimulusFile/magnitude.xlsx,,,,,,,,,,,,,,,,,,,,,,,,,,,,,,,
,,,,,,,,,,,,,,,733,2022-01-25_09h07.53.874,multiplicationStroop,2021.2.3,Win32,60.06366749,,,,,left,1,0.5729,0,28,28,69,1,7,2,7 | 2,5,1.6933,1.6933,neutral,left,,,,,,stimulusFile/magnitude.xlsx,,,,,,,,,,,,,,,,,,,,,,,,,,,,,,,
,,,,,,,,,,,,,,,733,2022-01-25_09h07.53.874,multiplicationStroop,2021.2.3,Win32,60.06366749,,,,,right,1,0.5464,0,29,29,42,1,3,8,3 | 8,5,1.9756,1.4111,incongruent,right,,,,,,stimulusFile/magnitude.xlsx,,,,,,,,,,,,,,,,,,,,,,,,,,,,,,,
,,,,,,,,,,,,,,,733,2022-01-25_09h07.53.874,multiplicationStroop,2021.2.3,Win32,60.06366749,,,,,right,1,0.6023,0,30,30,35,1,7,9,7 | 9,2,1.9756,1.4111,incongruent,right,,,,,,stimulusFile/magnitude.xlsx,,,,,,,,,,,,,,,,,,,,,,,,,,,,,,,
,,,,,,,,,,,,,,,733,2022-01-25_09h07.53.874,multiplicationStroop,2021.2.3,Win32,60.06366749,,,,,left,1,0.5503,0,31,31,53,1,4,3,4 | 3,1,1.6933,1.6933,neutral,left,,,,,,stimulusFile/magnitude.xlsx,,,,,,,,,,,,,,,,,,,,,,,,,,,,,,,
,,,,,,,,,,,,,,,733,2022-01-25_09h07.53.874,multiplicationStroop,2021.2.3,Win32,60.06366749,,,,,left,1,0.4976,0,32,32,14,1,8,6,8 | 6,2,1.9756,1.4111,congruent,left,,,,,,stimulusFile/magnitude.xlsx,,,,,,,,,,,,,,,,,,,,,,,,,,,,,,,
,,,,,,,,,,,,,,,733,2022-01-25_09h07.53.874,multiplicationStroop,2021.2.3,Win32,60.06366749,,,,,right,1,0.5197,0,33,33,67,1,4,9,4 | 9,5,1.6933,1.6933,neutral,right,,,,,,stimulusFile/magnitude.xlsx,,,,,,,,,,,,,,,,,,,,,,,,,,,,,,,
,,,,,,,,,,,,,,,733,2022-01-25_09h07.53.874,multiplicationStroop,2021.2.3,Win32,60.06366749,,,,,right,1,0.5299,0,34,34,48,1,1,2,1 | 2,1,1.6933,1.6933,neutral,right,,,,,,stimulusFile/magnitude.xlsx,,,,,,,,,,,,,,,,,,,,,,,,,,,,,,,
,,,,,,,,,,,,,,,733,2022-01-25_09h07.53.874,multiplicationStroop,2021.2.3,Win32,60.06366749,,,,,left,1,0.5274,0,35,35,62,1,8,6,8 | 6,2,1.6933,1.6933,neutral,left,,,,,,stimulusFile/magnitude.xlsx,,,,,,,,,,,,,,,,,,,,,,,,,,,,,,,
,,,,,,,,,,,,,,,733,2022-01-25_09h07.53.874,multiplicationStroop,2021.2.3,Win32,60.06366749,,,,,right,1,0.4976,0,36,36,9,1,2,4,2 | 4,2,1.4111,1.9756,congruent,right,,,,,,stimulusFile/magnitude.xlsx,,,,,,,,,,,,,,,,,,,,,,,,,,,,,,,
,,,,,,,,,,,,,,,733,2022-01-25_09h07.53.874,multiplicationStroop,2021.2.3,Win32,60.06366749,,,,,left,1,0.5494,0,37,37,39,1,9,7,9 | 7,2,1.4111,1.9756,incongruent,left,,,,,,stimulusFile/magnitude.xlsx,,,,,,,,,,,,,,,,,,,,,,,,,,,,,,,
,,,,,,,,,,,,,,,733,2022-01-25_09h07.53.874,multiplicationStroop,2021.2.3,Win32,60.06366749,,,,,right,1,0.724,0,38,38,27,1,8,9,8 | 9,1,1.9756,1.4111,incongruent,right,,,,,,stimulusFile/magnitude.xlsx,,,,,,,,,,,,,,,,,,,,,,,,,,,,,,,
,,,,,,,,,,,,,,,733,2022-01-25_09h07.53.874,multiplicationStroop,2021.2.3,Win32,60.06366749,,,,,right,1,0.7737,0,39,39,41,1,2,7,2 | 7,5,1.9756,1.4111,incongruent,right,,,,,,stimulusFile/magnitude.xlsx,,,,,,,,,,,,,,,,,,,,,,,,,,,,,,,
,,,,,,,,,,,,,,,733,2022-01-25_09h07.53.874,multiplicationStroop,2021.2.3,Win32,60.06366749,,,,,right,1,0.5337,0,40,40,57,1,2,4,2 | 4,2,1.6933,1.6933,neutral,right,,,,,,stimulusFile/magnitude.xlsx,,,,,,,,,,,,,,,,,,,,,,,,,,,,,,,
,,,,,,,,,,,,,,,733,2022-01-25_09h07.53.874,multiplicationStroop,2021.2.3,Win32,60.06366749,,,,,right,1,1.0072,0,41,41,34,1,6,8,6 | 8,2,1.9756,1.4111,incongruent,right,,,,,,stimulusFile/magnitude.xlsx,,,,,,,,,,,,,,,,,,,,,,,,,,,,,,,
,,,,,,,,,,,,,,,733,2022-01-25_09h07.53.874,multiplicationStroop,2021.2.3,Win32,60.06366749,,,,,right,1,0.6543,0,42,42,19,1,4,9,4 | 9,5,1.4111,1.9756,congruent,right,,,,,,stimulusFile/magnitude.xlsx,,,,,,,,,,,,,,,,,,,,,,,,,,,,,,,
,,,,,,,,,,,,,,,733,2022-01-25_09h07.53.874,multiplicationStroop,2021.2.3,Win32,60.06366749,,,,,left,1,0.5285,0,43,43,28,1,2,1,2 | 1,1,1.4111,1.9756,incongruent,left,,,,,,stimulusFile/magnitude.xlsx,,,,,,,,,,,,,,,,,,,,,,,,,,,,,,,
,,,,,,,,,,,,,,,733,2022-01-25_09h07.53.874,multiplicationStroop,2021.2.3,Win32,60.06366749,,,,,left,1,0.4566,0,44,44,61,1,4,2,4 | 2,2,1.6933,1.6933,neutral,left,,,,,,stimulusFile/magnitude.xlsx,,,,,,,,,,,,,,,,,,,,,,,,,,,,,,,
,,,,,,,,,,,,,,,733,2022-01-25_09h07.53.874,multiplicationStroop,2021.2.3,Win32,60.06366749,,,,,right,1,0.506,0,45,45,59,1,7,9,7 | 9,2,1.6933,1.6933,neutral,right,,,,,,stimulusFile/magnitude.xlsx,,,,,,,,,,,,,,,,,,,,,,,,,,,,,,,
,,,,,,,,,,,,,,,733,2022-01-25_09h07.53.874,multiplicationStroop,2021.2.3,Win32,60.06366749,,,,,left,1,0.5117,0,46,46,71,1,9,4,9 | 4,5,1.6933,1.6933,neutral,left,,,,,,stimulusFile/magnitude.xlsx,,,,,,,,,,,,,,,,,,,,,,,,,,,,,,,
,,,,,,,,,,,,,,,733,2022-01-25_09h07.53.874,multiplicationStroop,2021.2.3,Win32,60.06366749,,,,,right,1,0.6301,0,47,47,25,1,3,4,3 | 4,1,1.9756,1.4111,incongruent,right,,,,,,stimulusFile/magnitude.xlsx,,,,,,,,,,,,,,,,,,,,,,,,,,,,,,,
,,,,,,,,,,,,,,,733,2022-01-25_09h07.53.874,multiplicationStroop,2021.2.3,Win32,60.06366749,,,,,left,1,0.4126,0,48,48,20,1,6,1,6 | 1,5,1.9756,1.4111,congruent,left,,,,,,stimulusFile/magnitude.xlsx,,,,,,,,,,,,,,,,,,,,,,,,,,,,,,,
,,,,,,,,,,,,,,,733,2022-01-25_09h07.53.874,multiplicationStroop,2021.2.3,Win32,60.06366749,,,,,right,1,0.5294,0,49,49,51,1,8,9,8 | 9,1,1.6933,1.6933,neutral,right,,,,,,stimulusFile/magnitude.xlsx,,,,,,,,,,,,,,,,,,,,,,,,,,,,,,,
,,,,,,,,,,,,,,,733,2022-01-25_09h07.53.874,multiplicationStroop,2021.2.3,Win32,60.06366749,,,,,left,1,0.7221,0,50,50,54,1,7,6,7 | 6,1,1.6933,1.6933,neutral,left,,,,,,stimulusFile/magnitude.xlsx,,,,,,,,,,,,,,,,,,,,,,,,,,,,,,,
,,,,,,,,,,,,,,,733,2022-01-25_09h07.53.874,multiplicationStroop,2021.2.3,Win32,60.06366749,,,,,right,1,0.4211,0,51,51,16,1,1,6,1 | 6,5,1.4111,1.9756,congruent,right,,,,,,stimulusFile/magnitude.xlsx,,,,,,,,,,,,,,,,,,,,,,,,,,,,,,,
,,,,,,,,,,,,,,,733,2022-01-25_09h07.53.874,multiplicationStroop,2021.2.3,Win32,60.06366749,,,,,left,1,0.4497,0,52,52,68,1,6,1,6 | 1,5,1.6933,1.6933,neutral,left,,,,,,stimulusFile/magnitude.xlsx,,,,,,,,,,,,,,,,,,,,,,,,,,,,,,,
,,,,,,,,,,,,,,,733,2022-01-25_09h07.53.874,multiplicationStroop,2021.2.3,Win32,60.06366749,,,,,right,1,0.4576,0,53,53,65,1,2,7,2 | 7,5,1.6933,1.6933,neutral,right,,,,,,stimulusFile/magnitude.xlsx,,,,,,,,,,,,,,,,,,,,,,,,,,,,,,,
,,,,,,,,,,,,,,,733,2022-01-25_09h07.53.874,multiplicationStroop,2021.2.3,Win32,60.06366749,,,,,left,1,0.446,0,54,54,47,1,9,4,9 | 4,5,1.4111,1.9756,incongruent,left,,,,,,stimulusFile/magnitude.xlsx,,,,,,,,,,,,,,,,,,,,,,,,,,,,,,,
,,,,,,,,,,,,,,,733,2022-01-25_09h07.53.874,multiplicationStroop,2021.2.3,Win32,60.06366749,,,,,right,1,0.4196,0,55,55,8,1,1,3,1 | 3,2,1.4111,1.9756,congruent,right,,,,,,stimulusFile/magnitude.xlsx,,,,,,,,,,,,,,,,,,,,,,,,,,,,,,,
,,,,,,,,,,,,,,,733,2022-01-25_09h07.53.874,multiplicationStroop,2021.2.3,Win32,60.06366749,,,,,right,1,0.4246,0,56,56,11,1,7,9,7 | 9,2,1.4111,1.9756,congruent,right,,,,,,stimulusFile/magnitude.xlsx,,,,,,,,,,,,,,,,,,,,,,,,,,,,,,,
,,,,,,,,,,,,,,,733,2022-01-25_09h07.53.874,multiplicationStroop,2021.2.3,Win32,60.06366749,,,,,left,1,0.6662,0,57,57,29,1,4,3,4 | 3,1,1.4111,1.9756,incongruent,left,,,,,,stimulusFile/magnitude.xlsx,,,,,,,,,,,,,,,,,,,,,,,,,,,,,,,
,,,,,,,,,,,,,,,733,2022-01-25_09h07.53.874,multiplicationStroop,2021.2.3,Win32,60.06366749,,,,,right,1,0.4705,0,58,58,10,1,6,8,6 | 8,2,1.4111,1.9756,congruent,right,,,,,,stimulusFile/magnitude.xlsx,,,,,,,,,,,,,,,,,,,,,,,,,,,,,,,
,,,,,,,,,,,,,,,733,2022-01-25_09h07.53.874,multiplicationStroop,2021.2.3,Win32,60.06366749,,,,,left,1,0.4645,0,59,59,4,1,2,1,2 | 1,1,1.9756,1.4111,congruent,left,,,,,,stimulusFile/magnitude.xlsx,,,,,,,,,,,,,,,,,,,,,,,,,,,,,,,
,,,,,,,,,,,,,,,733,2022-01-25_09h07.53.874,multiplicationStroop,2021.2.3,Win32,60.06366749,,,,,right,1,0.4039,0,60,60,40,1,1,6,1 | 6,5,1.9756,1.4111,incongruent,right,,,,,,stimulusFile/magnitude.xlsx,,,,,,,,,,,,,,,,,,,,,,,,,,,,,,,
,,,,,,,,,,,,,,,733,2022-01-25_09h07.53.874,multiplicationStroop,2021.2.3,Win32,60.06366749,,,,,left,1,0.5573,0,61,61,37,1,4,2,4 | 2,2,1.4111,1.9756,incongruent,left,,,,,,stimulusFile/magnitude.xlsx,,,,,,,,,,,,,,,,,,,,,,,,,,,,,,,
,,,,,,,,,,,,,,,733,2022-01-25_09h07.53.874,multiplicationStroop,2021.2.3,Win32,60.06366749,,,,,left,0,0.5626,0,62,62,26,1,6,7,6 | 7,1,1.9756,1.4111,incongruent,right,,,,,,stimulusFile/magnitude.xlsx,,,,,,,,,,,,,,,,,,,,,,,,,,,,,,,
,,,,,,,,,,,,,,,733,2022-01-25_09h07.53.874,multiplicationStroop,2021.2.3,Win32,60.06366749,,,,,left,1,1.1721,0,63,63,6,1,7,6,7 | 6,1,1.9756,1.4111,congruent,left,,,,,,stimulusFile/magnitude.xlsx,,,,,,,,,,,,,,,,,,,,,,,,,,,,,,,
,,,,,,,,,,,,,,,733,2022-01-25_09h07.53.874,multiplicationStroop,2021.2.3,Win32,60.06366749,,,,,left,1,0.3878,0,64,64,12,1,3,1,3 | 1,2,1.9756,1.4111,congruent,left,,,,,,stimulusFile/magnitude.xlsx,,,,,,,,,,,,,,,,,,,,,,,,,,,,,,,
,,,,,,,,,,,,,,,733,2022-01-25_09h07.53.874,multiplicationStroop,2021.2.3,Win32,60.06366749,,,,,right,1,0.5296,0,65,65,3,1,8,9,8 | 9,1,1.4111,1.9756,congruent,right,,,,,,stimulusFile/magnitude.xlsx,,,,,,,,,,,,,,,,,,,,,,,,,,,,,,,
,,,,,,,,,,,,,,,733,2022-01-25_09h07.53.874,multiplicationStroop,2021.2.3,Win32,60.06366749,,,,,left,1,0.5247,0,66,66,21,1,7,2,7 | 2,5,1.9756,1.4111,congruent,left,,,,,,stimulusFile/magnitude.xlsx,,,,,,,,,,,,,,,,,,,,,,,,,,,,,,,
,,,,,,,,,,,,,,,733,2022-01-25_09h07.53.874,multiplicationStroop,2021.2.3,Win32,60.06366749,,,,,left,1,0.6828,0,67,67,63,1,9,7,9 | 7,2,1.6933,1.6933,neutral,left,,,,,,stimulusFile/magnitude.xlsx,,,,,,,,,,,,,,,,,,,,,,,,,,,,,,,
,,,,,,,,,,,,,,,733,2022-01-25_09h07.53.874,multiplicationStroop,2021.2.3,Win32,60.06366749,,,,,left,1,0.5244,0,68,68,31,1,9,8,9 | 8,1,1.4111,1.9756,incongruent,left,,,,,,stimulusFile/magnitude.xlsx,,,,,,,,,,,,,,,,,,,,,,,,,,,,,,,
,,,,,,,,,,,,,,,733,2022-01-25_09h07.53.874,multiplicationStroop,2021.2.3,Win32,60.06366749,,,,,right,1,0.4514,0,69,69,56,1,1,3,1 | 3,2,1.6933,1.6933,neutral,right,,,,,,stimulusFile/magnitude.xlsx,,,,,,,,,,,,,,,,,,,,,,,,,,,,,,,
,,,,,,,,,,,,,,,733,2022-01-25_09h07.53.874,multiplicationStroop,2021.2.3,Win32,60.06366749,,,,,left,1,0.4626,0,70,70,22,1,8,3,8 | 3,5,1.9756,1.4111,congruent,left,,,,,,stimulusFile/magnitude.xlsx,,,,,,,,,,,,,,,,,,,,,,,,,,,,,,,
,,,,,,,,,,,,,,,733,2022-01-25_09h07.53.874,multiplicationStroop,2021.2.3,Win32,60.06366749,,,,,right,1,0.4847,0,71,71,1,1,3,4,3 | 4,1,1.4111,1.9756,congruent,right,,,,,,stimulusFile/magnitude.xlsx,,,,,,,,,,,,,,,,,,,,,,,,,,,,,,,
,,,,,,,,,,,,,,,733,2022-01-25_09h07.53.874,multiplicationStroop,2021.2.3,Win32,60.06366749,,,,,,,,,,,,,,,,,,,,,0,1,1,0,1,stimulusFile/magnitude.xlsx,NUMERICALLY larger (larger coefficient).,images/numericallyLarger.png,,,,,,,,,,,,,,,,,,,,,,,,,,,,,
,,,,,,,,,,,,,,,733,2022-01-25_09h07.53.874,multiplicationStroop,2021.2.3,Win32,60.06366749,,,,,,,,,,,,,,,,,,,,,,,,,,,,,space,13.3365,space,2.033,21,2.2659,1,0,0,0,8,1,3,×,7,3 × 7,neutral,smallerFirst,1.5,1.5,21,,,,,,,,
,,,,,,,,,,,,,,,733,2022-01-25_09h07.53.874,multiplicationStroop,2021.2.3,Win32,60.06366749,,,,,,,,,,,,,,,,,,,,,,,,,,,,,,,,,28,3.9801,1,0,1,1,17,1,7,×,4,7 × 4,neutral,largerFirst,1.5,1.5,28,,,,,,,,
,,,,,,,,,,,,,,,733,2022-01-25_09h07.53.874,multiplicationStroop,2021.2.3,Win32,60.06366749,,,,,,,,,,,,,,,,,,,,,,,,,,,,,,,,,36,3.2077,1,0,2,2,27,1,9,×,4,9 × 4,neutral,largerFirst,1.5,1.5,36,,,,,,,,
,,,,,,,,,,,,,,,733,2022-01-25_09h07.53.874,multiplicationStroop,2021.2.3,Win32,60.06366749,,,,,,,,,,,,,,,,,,,,,,,,,,,,,,,,,10,1.7161,1,0,3,3,4,1,2,×,5,2 × 5,neutral,smallerFirst,1.5,1.5,10,,,,,,,,
,,,,,,,,,,,,,,,733,2022-01-25_09h07.53.874,multiplicationStroop,2021.2.3,Win32,60.06366749,,,,,,,,,,,,,,,,,,,,,,,,,,,,,,,,,4,1.4493,1,0,4,4,28,1,2,×,2,2 × 2,neutral,tie,1.5,1.5,4,,,,,,,,
,,,,,,,,,,,,,,,733,2022-01-25_09h07.53.874,multiplicationStroop,2021.2.3,Win32,60.06366749,,,,,,,,,,,,,,,,,,,,,,,,,,,,,,,,,18,1.6688,1,0,5,5,18,1,9,×,2,9 × 2,neutral,largerFirst,1.5,1.5,18,,,,,,,,
,,,,,,,,,,,,,,,733,2022-01-25_09h07.53.874,multiplicationStroop,2021.2.3,Win32,60.06366749,,,,,,,,,,,,,,,,,,,,,,,,,,,,,,,,,56,2.7133,1,0,6,6,9,1,7,×,8,7 × 8,neutral,smallerFirst,1.5,1.5,56,,,,,,,,
,,,,,,,,,,,,,,,733,2022-01-25_09h07.53.874,multiplicationStroop,2021.2.3,Win32,60.06366749,,,,,,,,,,,,,,,,,,,,,,,,,,,,,,,,,30,2.0321,1,0,7,7,19,1,6,×,5,6 × 5,neutral,largerFirst,1.5,1.5,30,,,,,,,,
,,,,,,,,,,,,,,,733,2022-01-25_09h07.53.874,multiplicationStroop,2021.2.3,Win32,60.06366749,,,,,,,,,,,,,,,,,,,,,,,,,,,,,,,,,8,1.8158,1,0,8,8,3,1,2,×,4,2 × 4,neutral,smallerFirst,1.5,1.5,8,,,,,,,,
,,,,,,,,,,,,,,,733,2022-01-25_09h07.53.874,multiplicationStroop,2021.2.3,Win32,60.06366749,,,,,,,,,,,,,,,,,,,,,,,,,,,,,,,,,14,1.5322,1,0,9,9,16,1,7,×,2,7 × 2,neutral,largerFirst,1.5,1.5,14,,,,,,,,
,,,,,,,,,,,,,,,733,2022-01-25_09h07.53.874,multiplicationStroop,2021.2.3,Win32,60.06366749,,,,,,,,,,,,,,,,,,,,,,,,,,,,,,,,,24,2.3993,1,0,10,10,2,1,4,×,6,4 × 6,neutral,smallerFirst,1.5,1.5,24,,,,,,,,
,,,,,,,,,,,,,,,733,2022-01-25_09h07.53.874,multiplicationStroop,2021.2.3,Win32,60.06366749,,,,,,,,,,,,,,,,,,,,,,,,,,,,,,,,,40,3.0494,1,0,11,11,24,1,8,×,5,8 × 5,neutral,largerFirst,1.5,1.5,40,,,,,,,,
,,,,,,,,,,,,,,,733,2022-01-25_09h07.53.874,multiplicationStroop,2021.2.3,Win32,60.06366749,,,,,,,,,,,,,,,,,,,,,,,,,,,,,,,,,46,3.216,0,0,12,12,15,1,8,×,6,8 × 6,neutral,largerFirst,1.5,1.5,48,,,,,,,,
,,,,,,,,,,,,,,,733,2022-01-25_09h07.53.874,multiplicationStroop,2021.2.3,Win32,60.06366749,,,,,,,,,,,,,,,,,,,,,,,,,,,,,,,,,27,1.9075,1,0,13,13,14,1,9,×,3,9 × 3,neutral,largerFirst,1.5,1.5,27,,,,,,,,
,,,,,,,,,,,,,,,733,2022-01-25_09h07.53.874,multiplicationStroop,2021.2.3,Win32,60.06366749,,,,,,,,,,,,,,,,,,,,,,,,,,,,,,,,,12,1.5665,1,0,14,14,25,1,6,×,2,6 × 2,neutral,largerFirst,1.5,1.5,12,,,,,,,,
,,,,,,,,,,,,,,,733,2022-01-25_09h07.53.874,multiplicationStroop,2021.2.3,Win32,60.06366749,,,,,,,,,,,,,,,,,,,,,,,,,,,,,,,,,36,2.2495,1,0,15,15,32,1,6,×,6,6 × 6,neutral,tie,1.5,1.5,36,,,,,,,,
,,,,,,,,,,,,,,,733,2022-01-25_09h07.53.874,multiplicationStroop,2021.2.3,Win32,60.06366749,,,,,,,,,,,,,,,,,,,,,,,,,,,,,,,,,49,2.0681,1,0,16,16,33,1,7,×,7,7 × 7,neutral,tie,1.5,1.5,49,,,,,,,,
,,,,,,,,,,,,,,,733,2022-01-25_09h07.53.874,multiplicationStroop,2021.2.3,Win32,60.06366749,,,,,,,,,,,,,,,,,,,,,,,,,,,,,,,,,18,2.8296,1,0,17,17,0,1,3,×,6,3 × 6,neutral,smallerFirst,1.5,1.5,18,,,,,,,,
,,,,,,,,,,,,,,,733,2022-01-25_09h07.53.874,multiplicationStroop,2021.2.3,Win32,60.06366749,,,,,,,,,,,,,,,,,,,,,,,,,,,,,,,,,63,3.133,1,0,18,18,12,1,7,×,9,7 × 9,neutral,smallerFirst,1.5,1.5,63,,,,,,,,
,,,,,,,,,,,,,,,733,2022-01-25_09h07.53.874,multiplicationStroop,2021.2.3,Win32,60.06366749,,,,,,,,,,,,,,,,,,,,,,,,,,,,,,,,,32,2.0085,1,0,19,19,23,1,8,×,4,8 × 4,neutral,largerFirst,1.5,1.5,32,,,,,,,,
,,,,,,,,,,,,,,,733,2022-01-25_09h07.53.874,multiplicationStroop,2021.2.3,Win32,60.06366749,,,,,,,,,,,,,,,,,,,,,,,,,,,,,,,,,16,1.932,1,0,20,20,13,1,2,×,8,2 × 8,neutral,smallerFirst,1.5,1.5,16,,,,,,,,
,,,,,,,,,,,,,,,733,2022-01-25_09h07.53.874,multiplicationStroop,2021.2.3,Win32,60.06366749,,,,,,,,,,,,,,,,,,,,,,,,,,,,,,,,,9,1.5658,1,0,21,21,29,1,3,×,3,3 × 3,neutral,tie,1.5,1.5,9,,,,,,,,
,,,,,,,,,,,,,,,733,2022-01-25_09h07.53.874,multiplicationStroop,2021.2.3,Win32,60.06366749,,,,,,,,,,,,,,,,,,,,,,,,,,,,,,,,,42,3.5351,1,0,22,22,6,1,6,×,7,6 × 7,neutral,smallerFirst,1.5,1.5,42,,,,,,,,
,,,,,,,,,,,,,,,733,2022-01-25_09h07.53.874,multiplicationStroop,2021.2.3,Win32,60.06366749,,,,,,,,,,,,,,,,,,,,,,,,,,,,,,,,,24,1.9799,1,0,23,23,22,1,8,×,3,8 × 3,neutral,largerFirst,1.5,1.5,24,,,,,,,,
,,,,,,,,,,,,,,,733,2022-01-25_09h07.53.874,multiplicationStroop,2021.2.3,Win32,60.06366749,,,,,,,,,,,,,,,,,,,,,,,,,,,,,,,,,6,2.0827,1,0,24,24,26,1,3,×,2,3 × 2,neutral,largerFirst,1.5,1.5,6,,,,,,,,
,,,,,,,,,,,,,,,733,2022-01-25_09h07.53.874,multiplicationStroop,2021.2.3,Win32,60.06366749,,,,,,,,,,,,,,,,,,,,,,,,,,,,,,,,,35,1.8519,1,0,25,25,1,1,5,×,7,5 × 7,neutral,smallerFirst,1.5,1.5,35,,,,,,,,
,,,,,,,,,,,,,,,733,2022-01-25_09h07.53.874,multiplicationStroop,2021.2.3,Win32,60.06366749,,,,,,,,,,,,,,,,,,,,,,,,,,,,,,,,,16,2.6971,1,0,26,26,30,1,4,×,4,4 × 4,neutral,tie,1.5,1.5,16,,,,,,,,
,,,,,,,,,,,,,,,733,2022-01-25_09h07.53.874,multiplicationStroop,2021.2.3,Win32,60.06366749,,,,,,,,,,,,,,,,,,,,,,,,,,,,,,,,,64,3.2744,1,0,27,27,34,1,8,×,8,8 × 8,neutral,tie,1.5,1.5,64,,,,,,,,
,,,,,,,,,,,,,,,733,2022-01-25_09h07.53.874,multiplicationStroop,2021.2.3,Win32,60.06366749,,,,,,,,,,,,,,,,,,,,,,,,,,,,,,,,,81,2.5821,1,0,28,28,35,1,9,×,9,9 × 9,neutral,tie,1.5,1.5,81,,,,,,,,
,,,,,,,,,,,,,,,733,2022-01-25_09h07.53.874,multiplicationStroop,2021.2.3,Win32,60.06366749,,,,,,,,,,,,,,,,,,,,,,,,,,,,,,,,,72,8.1078,1,0,29,29,11,1,8,×,9,8 × 9,neutral,smallerFirst,1.5,1.5,72,,,,,,,,
,,,,,,,,,,,,,,,733,2022-01-25_09h07.53.874,multiplicationStroop,2021.2.3,Win32,60.06366749,,,,,,,,,,,,,,,,,,,,,,,,,,,,,,,,,20,2.4573,1,0,30,30,20,1,5,×,4,5 × 4,neutral,largerFirst,1.5,1.5,20,,,,,,,,
,,,,,,,,,,,,,,,733,2022-01-25_09h07.53.874,multiplicationStroop,2021.2.3,Win32,60.06366749,,,,,,,,,,,,,,,,,,,,,,,,,,,,,,,,,25,1.766,1,0,31,31,31,1,5,×,5,5 × 5,neutral,tie,1.5,1.5,25,,,,,,,,
,,,,,,,,,,,,,,,733,2022-01-25_09h07.53.874,multiplicationStroop,2021.2.3,Win32,60.06366749,,,,,,,,,,,,,,,,,,,,,,,,,,,,,,,,,15,1.7154,1,0,32,32,5,1,3,×,5,3 × 5,neutral,smallerFirst,1.5,1.5,15,,,,,,,,
,,,,,,,,,,,,,,,733,2022-01-25_09h07.53.874,multiplicationStroop,2021.2.3,Win32,60.06366749,,,,,,,,,,,,,,,,,,,,,,,,,,,,,,,,,4,3.8993,0,0,33,33,10,1,5,×,9,5 × 9,neutral,smallerFirst,1.5,1.5,45,,,,,,,,
,,,,,,,,,,,,,,,733,2022-01-25_09h07.53.874,multiplicationStroop,2021.2.3,Win32,60.06366749,,,,,,,,,,,,,,,,,,,,,,,,,,,,,,,,,63,4.2742,0,0,34,34,7,1,6,×,9,6 × 9,neutral,smallerFirst,1.5,1.5,54,,,,,,,,
,,,,,,,,,,,,,,,733,2022-01-25_09h07.53.874,multiplicationStroop,2021.2.3,Win32,60.06366749,,,,,,,,,,,,,,,,,,,,,,,,,,,,,,,,,122,1.8245,0,0,35,35,21,1,4,×,3,4 × 3,neutral,largerFirst,1.5,1.5,12,,,,,,,,
,,,,,,,,,,,,,,,733,2022-01-25_09h07.53.874,multiplicationStroop,2021.2.3,Win32,60.06366749,,,,,,,,,,,,,,,,,,,,,,,,,,,,,,,,,,,,,,,,,,,,,,,,,,0,0,0,1,1,stimulusFile/mult_blk2.xlsx,,
,,,,,,,,,,,,,,,733,2022-01-25_09h07.53.874,multiplicationStroop,2021.2.3,Win32,60.06366749,,,,,,,,,,,,,,,,,,,,,,,,,,,,,,,space,2.4679,16,2.015,1,0,0,0,30,1,4,×,4,4 × 4,neutral,tie,2,1,16,,,,,,,,
,,,,,,,,,,,,,,,733,2022-01-25_09h07.53.874,multiplicationStroop,2021.2.3,Win32,60.06366749,,,,,,,,,,,,,,,,,,,,,,,,,,,,,,,,,28,3.4994,1,0,1,1,2,1,4,×,7,4 × 7,incongruent,smallerFirst,2,1,28,,,,,,,,
,,,,,,,,,,,,,,,733,2022-01-25_09h07.53.874,multiplicationStroop,2021.2.3,Win32,60.06366749,,,,,,,,,,,,,,,,,,,,,,,,,,,,,,,,,21,1.6658,1,0,2,2,12,1,3,×,7,3 × 7,incongruent,smallerFirst,2,1,21,,,,,,,,
,,,,,,,,,,,,,,,733,2022-01-25_09h07.53.874,multiplicationStroop,2021.2.3,Win32,60.06366749,,,,,,,,,,,,,,,,,,,,,,,,,,,,,,,,,54,5.5658,1,0,3,3,20,1,9,×,6,9 × 6,incongruent,largerFirst,1,2,54,,,,,,,,
,,,,,,,,,,,,,,,733,2022-01-25_09h07.53.874,multiplicationStroop,2021.2.3,Win32,60.06366749,,,,,,,,,,,,,,,,,,,,,,,,,,,,,,,,,27,1.9918,1,0,4,4,4,1,3,×,9,3 × 9,incongruent,smallerFirst,2,1,27,,,,,,,,
,,,,,,,,,,,,,,,733,2022-01-25_09h07.53.874,multiplicationStroop,2021.2.3,Win32,60.06366749,,,,,,,,,,,,,,,,,,,,,,,,,,,,,,,,,15,1.6989,1,0,5,5,24,1,5,×,3,5 × 3,incongruent,largerFirst,1,2,15,,,,,,,,
,,,,,,,,,,,,,,,733,2022-01-25_09h07.53.874,multiplicationStroop,2021.2.3,Win32,60.06366749,,,,,,,,,,,,,,,,,,,,,,,,,,,,,,,,,81,2.0992,1,0,6,6,35,1,9,×,9,9 × 9,neutral,tie,2,1,81,,,,,,,,
,,,,,,,,,,,,,,,733,2022-01-25_09h07.53.874,multiplicationStroop,2021.2.3,Win32,60.06366749,,,,,,,,,,,,,,,,,,,,,,,,,,,,,,,,,32,2.5998,1,0,7,7,21,1,8,×,4,8 × 4,incongruent,largerFirst,1,2,32,,,,,,,,
,,,,,,,,,,,,,,,733,2022-01-25_09h07.53.874,multiplicationStroop,2021.2.3,Win32,60.06366749,,,,,,,,,,,,,,,,,,,,,,,,,,,,,,,,,24,2.5828,1,0,8,8,23,1,8,×,3,8 × 3,incongruent,largerFirst,1,2,24,,,,,,,,
,,,,,,,,,,,,,,,733,2022-01-25_09h07.53.874,multiplicationStroop,2021.2.3,Win32,60.06366749,,,,,,,,,,,,,,,,,,,,,,,,,,,,,,,,,63,2.5077,1,0,9,9,17,1,9,×,7,9 × 7,incongruent,largerFirst,1,2,63,,,,,,,,
,,,,,,,,,,,,,,,733,2022-01-25_09h07.53.874,multiplicationStroop,2021.2.3,Win32,60.06366749,,,,,,,,,,,,,,,,,,,,,,,,,,,,,,,,,36,2.0829,1,0,10,10,32,1,6,×,6,6 × 6,neutral,tie,2,1,36,,,,,,,,
,,,,,,,,,,,,,,,733,2022-01-25_09h07.53.874,multiplicationStroop,2021.2.3,Win32,60.06366749,,,,,,,,,,,,,,,,,,,,,,,,,,,,,,,,,42,3.7327,1,0,11,11,3,1,6,×,7,6 × 7,incongruent,smallerFirst,2,1,42,,,,,,,,
,,,,,,,,,,,,,,,733,2022-01-25_09h07.53.874,multiplicationStroop,2021.2.3,Win32,60.06366749,,,,,,,,,,,,,,,,,,,,,,,,,,,,,,,,,9,1.5076,1,0,12,12,29,1,3,×,3,3 × 3,neutral,tie,2,1,9,,,,,,,,
,,,,,,,,,,,,,,,733,2022-01-25_09h07.53.874,multiplicationStroop,2021.2.3,Win32,60.06366749,,,,,,,,,,,,,,,,,,,,,,,,,,,,,,,,,49,2.8996,1,0,13,13,33,1,7,×,7,7 × 7,neutral,tie,2,1,49,,,,,,,,
,,,,,,,,,,,,,,,733,2022-01-25_09h07.53.874,multiplicationStroop,2021.2.3,Win32,60.06366749,,,,,,,,,,,,,,,,,,,,,,,,,,,,,,,,,40,1.9241,1,0,14,14,27,1,8,×,5,8 × 5,incongruent,largerFirst,1,2,40,,,,,,,,
,,,,,,,,,,,,,,,733,2022-01-25_09h07.53.874,multiplicationStroop,2021.2.3,Win32,60.06366749,,,,,,,,,,,,,,,,,,,,,,,,,,,,,,,,,18,2.6832,1,0,15,15,22,1,6,×,3,6 × 3,incongruent,largerFirst,1,2,18,,,,,,,,
,,,,,,,,,,,,,,,733,2022-01-25_09h07.53.874,multiplicationStroop,2021.2.3,Win32,60.06366749,,,,,,,,,,,,,,,,,,,,,,,,,,,,,,,,,30,2.0159,1,0,16,16,11,1,5,×,6,5 × 6,incongruent,smallerFirst,2,1,30,,,,,,,,
,,,,,,,,,,,,,,,733,2022-01-25_09h07.53.874,multiplicationStroop,2021.2.3,Win32,60.06366749,,,,,,,,,,,,,,,,,,,,,,,,,,,,,,,,,6,2.866,1,0,17,17,25,1,3,×,2,3 × 2,incongruent,largerFirst,1,2,6,,,,,,,,
,,,,,,,,,,,,,,,733,2022-01-25_09h07.53.874,multiplicationStroop,2021.2.3,Win32,60.06366749,,,,,,,,,,,,,,,,,,,,,,,,,,,,,,,,,12,1.6914,1,0,18,18,19,1,4,×,3,4 × 3,incongruent,largerFirst,1,2,12,,,,,,,,
,,,,,,,,,,,,,,,733,2022-01-25_09h07.53.874,multiplicationStroop,2021.2.3,Win32,60.06366749,,,,,,,,,,,,,,,,,,,,,,,,,,,,,,,,,72,8.0319,1,0,19,19,14,1,9,×,8,9 × 8,incongruent,largerFirst,1,2,72,,,,,,,,
,,,,,,,,,,,,,,,733,2022-01-25_09h07.53.874,multiplicationStroop,2021.2.3,Win32,60.06366749,,,,,,,,,,,,,,,,,,,,,,,,,,,,,,,,,8,2.3742,1,0,20,20,10,1,2,×,4,2 × 4,incongruent,smallerFirst,2,1,8,,,,,,,,
,,,,,,,,,,,,,,,733,2022-01-25_09h07.53.874,multiplicationStroop,2021.2.3,Win32,60.06366749,,,,,,,,,,,,,,,,,,,,,,,,,,,,,,,,,14,2.1661,1,0,21,21,18,1,7,×,2,7 × 2,incongruent,largerFirst,1,2,14,,,,,,,,
,,,,,,,,,,,,,,,733,2022-01-25_09h07.53.874,multiplicationStroop,2021.2.3,Win32,60.06366749,,,,,,,,,,,,,,,,,,,,,,,,,,,,,,,,,10,1.8661,1,0,22,22,7,1,2,×,5,2 × 5,incongruent,smallerFirst,2,1,10,,,,,,,,
,,,,,,,,,,,,,,,733,2022-01-25_09h07.53.874,multiplicationStroop,2021.2.3,Win32,60.06366749,,,,,,,,,,,,,,,,,,,,,,,,,,,,,,,,,42,17.3639,0,0,23,23,0,1,7,×,8,7 × 8,incongruent,smallerFirst,2,1,56,,,,,,,,
,,,,,,,,,,,,,,,733,2022-01-25_09h07.53.874,multiplicationStroop,2021.2.3,Win32,60.06366749,,,,,,,,,,,,,,,,,,,,,,,,,,,,,,,,,36,5.34,1,0,24,24,1,1,4,×,9,4 × 9,incongruent,smallerFirst,2,1,36,,,,,,,,
,,,,,,,,,,,,,,,733,2022-01-25_09h07.53.874,multiplicationStroop,2021.2.3,Win32,60.06366749,,,,,,,,,,,,,,,,,,,,,,,,,,,,,,,,,4,1.2585,1,0,25,25,28,1,2,×,2,2 × 2,neutral,tie,2,1,4,,,,,,,,
,,,,,,,,,,,,,,,733,2022-01-25_09h07.53.874,multiplicationStroop,2021.2.3,Win32,60.06366749,,,,,,,,,,,,,,,,,,,,,,,,,,,,,,,,,45,1.9662,1,0,26,26,8,1,5,×,9,5 × 9,incongruent,smallerFirst,2,1,45,,,,,,,,
,,,,,,,,,,,,,,,733,2022-01-25_09h07.53.874,multiplicationStroop,2021.2.3,Win32,60.06366749,,,,,,,,,,,,,,,,,,,,,,,,,,,,,,,,,64,3.4661,1,0,27,27,34,1,8,×,8,8 × 8,neutral,tie,2,1,64,,,,,,,,
,,,,,,,,,,,,,,,733,2022-01-25_09h07.53.874,multiplicationStroop,2021.2.3,Win32,60.06366749,,,,,,,,,,,,,,,,,,,,,,,,,,,,,,,,,35,2.308,1,0,28,28,26,1,7,×,5,7 × 5,incongruent,largerFirst,1,2,35,,,,,,,,
,,,,,,,,,,,,,,,733,2022-01-25_09h07.53.874,multiplicationStroop,2021.2.3,Win32,60.06366749,,,,,,,,,,,,,,,,,,,,,,,,,,,,,,,,,48,4.6988,1,0,29,29,15,1,8,×,6,8 × 6,incongruent,largerFirst,1,2,48,,,,,,,,
,,,,,,,,,,,,,,,733,2022-01-25_09h07.53.874,multiplicationStroop,2021.2.3,Win32,60.06366749,,,,,,,,,,,,,,,,,,,,,,,,,,,,,,,,,25,2.508,1,0,30,30,31,1,5,×,5,5 × 5,neutral,tie,2,1,25,,,,,,,,
,,,,,,,,,,,,,,,733,2022-01-25_09h07.53.874,multiplicationStroop,2021.2.3,Win32,60.06366749,,,,,,,,,,,,,,,,,,,,,,,,,,,,,,,,,18,2.3656,1,0,31,31,16,1,9,×,2,9 × 2,incongruent,largerFirst,1,2,18,,,,,,,,
,,,,,,,,,,,,,,,733,2022-01-25_09h07.53.874,multiplicationStroop,2021.2.3,Win32,60.06366749,,,,,,,,,,,,,,,,,,,,,,,,,,,,,,,,,16,2.3663,1,0,32,32,9,1,2,×,8,2 × 8,incongruent,smallerFirst,2,1,16,,,,,,,,
,,,,,,,,,,,,,,,733,2022-01-25_09h07.53.874,multiplicationStroop,2021.2.3,Win32,60.06366749,,,,,,,,,,,,,,,,,,,,,,,,,,,,,,,,,24,3.2577,1,0,33,33,6,1,4,×,6,4 × 6,incongruent,smallerFirst,2,1,24,,,,,,,,
,,,,,,,,,,,,,,,733,2022-01-25_09h07.53.874,multiplicationStroop,2021.2.3,Win32,60.06366749,,,,,,,,,,,,,,,,,,,,,,,,,,,,,,,,,12,1.6999,1,0,34,34,5,1,2,×,6,2 × 6,incongruent,smallerFirst,2,1,12,,,,,,,,
,,,,,,,,,,,,,,,733,2022-01-25_09h07.53.874,multiplicationStroop,2021.2.3,Win32,60.06366749,,,,,,,,,,,,,,,,,,,,,,,,,,,,,,,,,20,1.8493,1,0,35,35,13,1,4,×,5,4 × 5,incongruent,smallerFirst,2,1,20,,,,,,,,
,,,,,,,,,,,,,,,733,2022-01-25_09h07.53.874,multiplicationStroop,2021.2.3,Win32,60.06366749,,,,,,,,,,,,,,,,,,,,,,,,,,,,,,,,,,,,,,,,,,,,,,,,,,0,1,1,4,1,stimulusFile/mult_blk5_INcongruent.xlsx,,
,,,,,,,,,,,,,,,733,2022-01-25_09h07.53.874,multiplicationStroop,2021.2.3,Win32,60.06366749,,,,,,,,,,,,,,,,,,,,,,,,,,,,,,,space,1.4499,81,2.0301,1,0,0,0,35,1,9,×,9,9 × 9,incongruent,tie,1,2,81,,,,,,,,
,,,,,,,,,,,,,,,733,2022-01-25_09h07.53.874,multiplicationStroop,2021.2.3,Win32,60.06366749,,,,,,,,,,,,,,,,,,,,,,,,,,,,,,,,,30,1.7995,1,0,1,1,25,1,6,×,5,6 × 5,incongruent,largerFirst,1,2,30,,,,,,,,
,,,,,,,,,,,,,,,733,2022-01-25_09h07.53.874,multiplicationStroop,2021.2.3,Win32,60.06366749,,,,,,,,,,,,,,,,,,,,,,,,,,,,,,,,,16,2.4323,1,0,2,2,23,1,8,×,2,8 × 2,incongruent,largerFirst,1,2,16,,,,,,,,
,,,,,,,,,,,,,,,733,2022-01-25_09h07.53.874,multiplicationStroop,2021.2.3,Win32,60.06366749,,,,,,,,,,,,,,,,,,,,,,,,,,,,,,,,,46,17.5136,0,0,3,3,14,1,8,×,7,8 × 7,incongruent,largerFirst,1,2,56,,,,,,,,
,,,,,,,,,,,,,,,733,2022-01-25_09h07.53.874,multiplicationStroop,2021.2.3,Win32,60.06366749,,,,,,,,,,,,,,,,,,,,,,,,,,,,,,,,,12,3.8247,1,0,4,4,19,1,6,×,2,6 × 2,incongruent,largerFirst,1,2,12,,,,,,,,
,,,,,,,,,,,,,,,733,2022-01-25_09h07.53.874,multiplicationStroop,2021.2.3,Win32,60.06366749,,,,,,,,,,,,,,,,,,,,,,,,,,,,,,,,,36,2.8493,1,0,5,5,32,1,6,×,6,6 × 6,incongruent,tie,1,2,36,,,,,,,,
,,,,,,,,,,,,,,,733,2022-01-25_09h07.53.874,multiplicationStroop,2021.2.3,Win32,60.06366749,,,,,,,,,,,,,,,,,,,,,,,,,,,,,,,,,15,1.975,1,0,6,6,10,1,3,×,5,3 × 5,incongruent,smallerFirst,2,1,15,,,,,,,,
,,,,,,,,,,,,,,,733,2022-01-25_09h07.53.874,multiplicationStroop,2021.2.3,Win32,60.06366749,,,,,,,,,,,,,,,,,,,,,,,,,,,,,,,,,10,2.4328,1,0,7,7,21,1,5,×,2,5 × 2,incongruent,largerFirst,1,2,10,,,,,,,,
,,,,,,,,,,,,,,,733,2022-01-25_09h07.53.874,multiplicationStroop,2021.2.3,Win32,60.06366749,,,,,,,,,,,,,,,,,,,,,,,,,,,,,,,,,48,2.3156,1,0,8,8,1,1,6,×,8,6 × 8,incongruent,smallerFirst,2,1,48,,,,,,,,
,,,,,,,,,,,,,,,733,2022-01-25_09h07.53.874,multiplicationStroop,2021.2.3,Win32,60.06366749,,,,,,,,,,,,,,,,,,,,,,,,,,,,,,,,,16,2.3666,1,0,9,9,30,1,4,×,4,4 × 4,incongruent,tie,1,2,16,,,,,,,,
,,,,,,,,,,,,,,,733,2022-01-25_09h07.53.874,multiplicationStroop,2021.2.3,Win32,60.06366749,,,,,,,,,,,,,,,,,,,,,,,,,,,,,,,,,9,1.4322,1,0,10,10,29,1,3,×,3,3 × 3,incongruent,tie,1,2,9,,,,,,,,
,,,,,,,,,,,,,,,733,2022-01-25_09h07.53.874,multiplicationStroop,2021.2.3,Win32,60.06366749,,,,,,,,,,,,,,,,,,,,,,,,,,,,,,,,,40,2.1497,1,0,11,11,13,1,5,×,8,5 × 8,incongruent,smallerFirst,2,1,40,,,,,,,,
,,,,,,,,,,,,,,,733,2022-01-25_09h07.53.874,multiplicationStroop,2021.2.3,Win32,60.06366749,,,,,,,,,,,,,,,,,,,,,,,,,,,,,,,,,64,2.1652,1,0,12,12,34,1,8,×,8,8 × 8,incongruent,tie,1,2,64,,,,,,,,
,,,,,,,,,,,,,,,733,2022-01-25_09h07.53.874,multiplicationStroop,2021.2.3,Win32,60.06366749,,,,,,,,,,,,,,,,,,,,,,,,,,,,,,,,,27,3.6666,1,0,13,13,18,1,9,×,3,9 × 3,incongruent,largerFirst,1,2,27,,,,,,,,
,,,,,,,,,,,,,,,733,2022-01-25_09h07.53.874,multiplicationStroop,2021.2.3,Win32,60.06366749,,,,,,,,,,,,,,,,,,,,,,,,,,,,,,,,,28,3.8244,1,0,14,14,16,1,7,×,4,7 × 4,incongruent,largerFirst,1,2,28,,,,,,,,
,,,,,,,,,,,,,,,733,2022-01-25_09h07.53.874,multiplicationStroop,2021.2.3,Win32,60.06366749,,,,,,,,,,,,,,,,,,,,,,,,,,,,,,,,,54,2.4912,1,0,15,15,6,1,6,×,9,6 × 9,incongruent,smallerFirst,2,1,54,,,,,,,,
,,,,,,,,,,,,,,,733,2022-01-25_09h07.53.874,multiplicationStroop,2021.2.3,Win32,60.06366749,,,,,,,,,,,,,,,,,,,,,,,,,,,,,,,,,18,2.6326,1,0,16,16,8,1,3,×,6,3 × 6,incongruent,smallerFirst,2,1,18,,,,,,,,
,,,,,,,,,,,,,,,733,2022-01-25_09h07.53.874,multiplicationStroop,2021.2.3,Win32,60.06366749,,,,,,,,,,,,,,,,,,,,,,,,,,,,,,,,,21,2.6581,1,0,17,17,26,1,7,×,3,7 × 3,incongruent,largerFirst,1,2,21,,,,,,,,
,,,,,,,,,,,,,,,733,2022-01-25_09h07.53.874,multiplicationStroop,2021.2.3,Win32,60.06366749,,,,,,,,,,,,,,,,,,,,,,,,,,,,,,,,,6,1.5992,1,0,18,18,11,1,2,×,3,2 × 3,incongruent,smallerFirst,2,1,6,,,,,,,,
,,,,,,,,,,,,,,,733,2022-01-25_09h07.53.874,multiplicationStroop,2021.2.3,Win32,60.06366749,,,,,,,,,,,,,,,,,,,,,,,,,,,,,,,,,49,1.8656,1,0,19,19,33,1,7,×,7,7 × 7,incongruent,tie,1,2,49,,,,,,,,
,,,,,,,,,,,,,,,733,2022-01-25_09h07.53.874,multiplicationStroop,2021.2.3,Win32,60.06366749,,,,,,,,,,,,,,,,,,,,,,,,,,,,,,,,,25,1.8334,1,0,20,20,31,1,5,×,5,5 × 5,incongruent,tie,1,2,25,,,,,,,,
,,,,,,,,,,,,,,,733,2022-01-25_09h07.53.874,multiplicationStroop,2021.2.3,Win32,60.06366749,,,,,,,,,,,,,,,,,,,,,,,,,,,,,,,,,8,1.6157,1,0,21,21,24,1,4,×,2,4 × 2,incongruent,largerFirst,1,2,8,,,,,,,,
,,,,,,,,,,,,,,,733,2022-01-25_09h07.53.874,multiplicationStroop,2021.2.3,Win32,60.06366749,,,,,,,,,,,,,,,,,,,,,,,,,,,,,,,,,32,1.9826,1,0,22,22,7,1,4,×,8,4 × 8,incongruent,smallerFirst,2,1,32,,,,,,,,
,,,,,,,,,,,,,,,733,2022-01-25_09h07.53.874,multiplicationStroop,2021.2.3,Win32,60.06366749,,,,,,,,,,,,,,,,,,,,,,,,,,,,,,,,,4,1.6328,1,0,23,23,28,1,2,×,2,2 × 2,incongruent,tie,1,2,4,,,,,,,,
,,,,,,,,,,,,,,,733,2022-01-25_09h07.53.874,multiplicationStroop,2021.2.3,Win32,60.06366749,,,,,,,,,,,,,,,,,,,,,,,,,,,,,,,,,36,2.7498,1,0,24,24,15,1,9,×,4,9 × 4,incongruent,largerFirst,1,2,36,,,,,,,,
,,,,,,,,,,,,,,,733,2022-01-25_09h07.53.874,multiplicationStroop,2021.2.3,Win32,60.06366749,,,,,,,,,,,,,,,,,,,,,,,,,,,,,,,,,45,3.3078,1,0,25,25,22,1,9,×,5,9 × 5,incongruent,largerFirst,1,2,45,,,,,,,,
,,,,,,,,,,,,,,,733,2022-01-25_09h07.53.874,multiplicationStroop,2021.2.3,Win32,60.06366749,,,,,,,,,,,,,,,,,,,,,,,,,,,,,,,,,24,2.9159,1,0,26,26,20,1,6,×,4,6 × 4,incongruent,largerFirst,1,2,24,,,,,,,,
,,,,,,,,,,,,,,,733,2022-01-25_09h07.53.874,multiplicationStroop,2021.2.3,Win32,60.06366749,,,,,,,,,,,,,,,,,,,,,,,,,,,,,,,,,42,2.5746,1,0,27,27,17,1,7,×,6,7 × 6,incongruent,largerFirst,1,2,42,,,,,,,,
,,,,,,,,,,,,,,,733,2022-01-25_09h07.53.874,multiplicationStroop,2021.2.3,Win32,60.06366749,,,,,,,,,,,,,,,,,,,,,,,,,,,,,,,,,24,3.4324,1,0,28,28,9,1,3,×,8,3 × 8,incongruent,smallerFirst,2,1,24,,,,,,,,
,,,,,,,,,,,,,,,733,2022-01-25_09h07.53.874,multiplicationStroop,2021.2.3,Win32,60.06366749,,,,,,,,,,,,,,,,,,,,,,,,,,,,,,,,,14,1.8579,1,0,29,29,4,1,2,×,7,2 × 7,incongruent,smallerFirst,2,1,14,,,,,,,,
,,,,,,,,,,,,,,,733,2022-01-25_09h07.53.874,multiplicationStroop,2021.2.3,Win32,60.06366749,,,,,,,,,,,,,,,,,,,,,,,,,,,,,,,,,72,4.5658,1,0,30,30,0,1,8,×,9,8 × 9,incongruent,smallerFirst,2,1,72,,,,,,,,
,,,,,,,,,,,,,,,733,2022-01-25_09h07.53.874,multiplicationStroop,2021.2.3,Win32,60.06366749,,,,,,,,,,,,,,,,,,,,,,,,,,,,,,,,,20,2.8916,1,0,31,31,27,1,5,×,4,5 × 4,incongruent,largerFirst,1,2,20,,,,,,,,
,,,,,,,,,,,,,,,733,2022-01-25_09h07.53.874,multiplicationStroop,2021.2.3,Win32,60.06366749,,,,,,,,,,,,,,,,,,,,,,,,,,,,,,,,,63,4.0661,1,0,32,32,3,1,7,×,9,7 × 9,incongruent,smallerFirst,2,1,63,,,,,,,,
,,,,,,,,,,,,,,,733,2022-01-25_09h07.53.874,multiplicationStroop,2021.2.3,Win32,60.06366749,,,,,,,,,,,,,,,,,,,,,,,,,,,,,,,,,45,2.0746,0,0,33,33,12,1,5,×,7,5 × 7,incongruent,smallerFirst,2,1,35,,,,,,,,
,,,,,,,,,,,,,,,733,2022-01-25_09h07.53.874,multiplicationStroop,2021.2.3,Win32,60.06366749,,,,,,,,,,,,,,,,,,,,,,,,,,,,,,,,,18,3.1994,1,0,34,34,2,1,2,×,9,2 × 9,incongruent,smallerFirst,2,1,18,,,,,,,,
,,,,,,,,,,,,,,,733,2022-01-25_09h07.53.874,multiplicationStroop,2021.2.3,Win32,60.06366749,,,,,,,,,,,,,,,,,,,,,,,,,,,,,,,,,12,1.4747,1,0,35,35,5,1,3,×,4,3 × 4,incongruent,smallerFirst,2,1,12,,,,,,,,
,,,,,,,,,,,,,,,733,2022-01-25_09h07.53.874,multiplicationStroop,2021.2.3,Win32,60.06366749,,,,,,,,,,,,,,,,,,,,,,,,,,,,,,,,,,,,,,,,,,,,,,,,,,0,2,2,5,1,stimulusFile/mult_blk6_INcongruent.xlsx,,
,,,,,,,,,,,,,,,733,2022-01-25_09h07.53.874,multiplicationStroop,2021.2.3,Win32,60.06366749,,,,,,,,,,,,,,,,,,,,,,,,,,,,,,,space,1.202,12,1.4343,1,0,0,0,2,1,3,×,4,3 × 4,congruent,smallerFirst,1,2,12,,,,,,,,
,,,,,,,,,,,,,,,733,2022-01-25_09h07.53.874,multiplicationStroop,2021.2.3,Win32,60.06366749,,,,,,,,,,,,,,,,,,,,,,,,,,,,,,,,,25,1.6329,1,0,1,1,31,1,5,×,5,5 × 5,neutral,tie,2,1,25,,,,,,,,
,,,,,,,,,,,,,,,733,2022-01-25_09h07.53.874,multiplicationStroop,2021.2.3,Win32,60.06366749,,,,,,,,,,,,,,,,,,,,,,,,,,,,,,,,,21,1.7324,1,0,2,2,16,1,7,×,3,7 × 3,congruent,largerFirst,2,1,21,,,,,,,,
,,,,,,,,,,,,,,,733,2022-01-25_09h07.53.874,multiplicationStroop,2021.2.3,Win32,60.06366749,,,,,,,,,,,,,,,,,,,,,,,,,,,,,,,,,32,2.5662,1,0,3,3,20,1,8,×,4,8 × 4,congruent,largerFirst,2,1,32,,,,,,,,
,,,,,,,,,,,,,,,733,2022-01-25_09h07.53.874,multiplicationStroop,2021.2.3,Win32,60.06366749,,,,,,,,,,,,,,,,,,,,,,,,,,,,,,,,,36,1.799,1,0,4,4,32,1,6,×,6,6 × 6,neutral,tie,2,1,36,,,,,,,,
,,,,,,,,,,,,,,,733,2022-01-25_09h07.53.874,multiplicationStroop,2021.2.3,Win32,60.06366749,,,,,,,,,,,,,,,,,,,,,,,,,,,,,,,,,18,1.7328,1,0,5,5,22,1,9,×,2,9 × 2,congruent,largerFirst,2,1,18,,,,,,,,
,,,,,,,,,,,,,,,733,2022-01-25_09h07.53.874,multiplicationStroop,2021.2.3,Win32,60.06366749,,,,,,,,,,,,,,,,,,,,,,,,,,,,,,,,,56,2.7662,1,0,6,6,8,1,7,×,8,7 × 8,congruent,smallerFirst,1,2,56,,,,,,,,
,,,,,,,,,,,,,,,733,2022-01-25_09h07.53.874,multiplicationStroop,2021.2.3,Win32,60.06366749,,,,,,,,,,,,,,,,,,,,,,,,,,,,,,,,,54,2.4987,1,0,7,7,12,1,6,×,9,6 × 9,congruent,smallerFirst,1,2,54,,,,,,,,
,,,,,,,,,,,,,,,733,2022-01-25_09h07.53.874,multiplicationStroop,2021.2.3,Win32,60.06366749,,,,,,,,,,,,,,,,,,,,,,,,,,,,,,,,,36,3.8662,1,0,8,8,0,1,4,×,9,4 × 9,congruent,smallerFirst,1,2,36,,,,,,,,
,,,,,,,,,,,,,,,733,2022-01-25_09h07.53.874,multiplicationStroop,2021.2.3,Win32,60.06366749,,,,,,,,,,,,,,,,,,,,,,,,,,,,,,,,,16,2.1919,1,0,9,9,30,1,4,×,4,4 × 4,neutral,tie,2,1,16,,,,,,,,
,,,,,,,,,,,,,,,733,2022-01-25_09h07.53.874,multiplicationStroop,2021.2.3,Win32,60.06366749,,,,,,,,,,,,,,,,,,,,,,,,,,,,,,,,,6,1.7492,1,0,10,10,13,1,2,×,3,2 × 3,congruent,smallerFirst,1,2,6,,,,,,,,
,,,,,,,,,,,,,,,733,2022-01-25_09h07.53.874,multiplicationStroop,2021.2.3,Win32,60.06366749,,,,,,,,,,,,,,,,,,,,,,,,,,,,,,,,,15,2.9657,1,0,11,11,4,1,3,×,5,3 × 5,congruent,smallerFirst,1,2,15,,,,,,,,
,,,,,,,,,,,,,,,733,2022-01-25_09h07.53.874,multiplicationStroop,2021.2.3,Win32,60.06366749,,,,,,,,,,,,,,,,,,,,,,,,,,,,,,,,,18,2.9081,1,0,12,12,11,1,3,×,6,3 × 6,congruent,smallerFirst,1,2,18,,,,,,,,
,,,,,,,,,,,,,,,733,2022-01-25_09h07.53.874,multiplicationStroop,2021.2.3,Win32,60.06366749,,,,,,,,,,,,,,,,,,,,,,,,,,,,,,,,,20,1.7658,1,0,13,13,7,1,4,×,5,4 × 5,congruent,smallerFirst,1,2,20,,,,,,,,
,,,,,,,,,,,,,,,733,2022-01-25_09h07.53.874,multiplicationStroop,2021.2.3,Win32,60.06366749,,,,,,,,,,,,,,,,,,,,,,,,,,,,,,,,,42,3.7161,0,0,14,14,27,1,7,×,4,7 × 4,congruent,largerFirst,2,1,28,,,,,,,,
,,,,,,,,,,,,,,,733,2022-01-25_09h07.53.874,multiplicationStroop,2021.2.3,Win32,60.06366749,,,,,,,,,,,,,,,,,,,,,,,,,,,,,,,,,48,3.8747,1,0,15,15,18,1,8,×,6,8 × 6,congruent,largerFirst,2,1,48,,,,,,,,
,,,,,,,,,,,,,,,733,2022-01-25_09h07.53.874,multiplicationStroop,2021.2.3,Win32,60.06366749,,,,,,,,,,,,,,,,,,,,,,,,,,,,,,,,,30,2.108,1,0,16,16,15,1,6,×,5,6 × 5,congruent,largerFirst,2,1,30,,,,,,,,
,,,,,,,,,,,,,,,733,2022-01-25_09h07.53.874,multiplicationStroop,2021.2.3,Win32,60.06366749,,,,,,,,,,,,,,,,,,,,,,,,,,,,,,,,,40,1.9994,1,0,17,17,6,1,5,×,8,5 × 8,congruent,smallerFirst,1,2,40,,,,,,,,
,,,,,,,,,,,,,,,733,2022-01-25_09h07.53.874,multiplicationStroop,2021.2.3,Win32,60.06366749,,,,,,,,,,,,,,,,,,,,,,,,,,,,,,,,,16,1.8496,1,0,18,18,5,1,2,×,8,2 × 8,congruent,smallerFirst,1,2,16,,,,,,,,
,,,,,,,,,,,,,,,733,2022-01-25_09h07.53.874,multiplicationStroop,2021.2.3,Win32,60.06366749,,,,,,,,,,,,,,,,,,,,,,,,,,,,,,,,,35,2.349,1,0,19,19,1,1,5,×,7,5 × 7,congruent,smallerFirst,1,2,35,,,,,,,,
,,,,,,,,,,,,,,,733,2022-01-25_09h07.53.874,multiplicationStroop,2021.2.3,Win32,60.06366749,,,,,,,,,,,,,,,,,,,,,,,,,,,,,,,,,8,1.6329,1,0,20,20,9,1,2,×,4,2 × 4,congruent,smallerFirst,1,2,8,,,,,,,,
,,,,,,,,,,,,,,,733,2022-01-25_09h07.53.874,multiplicationStroop,2021.2.3,Win32,60.06366749,,,,,,,,,,,,,,,,,,,,,,,,,,,,,,,,,64,3.4822,1,0,21,21,34,1,8,×,8,8 × 8,neutral,tie,2,1,64,,,,,,,,
,,,,,,,,,,,,,,,733,2022-01-25_09h07.53.874,multiplicationStroop,2021.2.3,Win32,60.06366749,,,,,,,,,,,,,,,,,,,,,,,,,,,,,,,,,10,1.5083,1,0,22,22,24,1,5,×,2,5 × 2,congruent,largerFirst,2,1,10,,,,,,,,
,,,,,,,,,,,,,,,733,2022-01-25_09h07.53.874,multiplicationStroop,2021.2.3,Win32,60.06366749,,,,,,,,,,,,,,,,,,,,,,,,,,,,,,,,,4,1.3495,1,0,23,23,28,1,2,×,2,2 × 2,neutral,tie,2,1,4,,,,,,,,
,,,,,,,,,,,,,,,733,2022-01-25_09h07.53.874,multiplicationStroop,2021.2.3,Win32,60.06366749,,,,,,,,,,,,,,,,,,,,,,,,,,,,,,,,,63,5.5486,1,0,24,24,21,1,9,×,7,9 × 7,congruent,largerFirst,2,1,63,,,,,,,,
,,,,,,,,,,,,,,,733,2022-01-25_09h07.53.874,multiplicationStroop,2021.2.3,Win32,60.06366749,,,,,,,,,,,,,,,,,,,,,,,,,,,,,,,,,49,2.1581,1,0,25,25,33,1,7,×,7,7 × 7,neutral,tie,2,1,49,,,,,,,,
,,,,,,,,,,,,,,,733,2022-01-25_09h07.53.874,multiplicationStroop,2021.2.3,Win32,60.06366749,,,,,,,,,,,,,,,,,,,,,,,,,,,,,,,,,27,4.216,1,0,26,26,26,1,9,×,3,9 × 3,congruent,largerFirst,2,1,27,,,,,,,,
,,,,,,,,,,,,,,,733,2022-01-25_09h07.53.874,multiplicationStroop,2021.2.3,Win32,60.06366749,,,,,,,,,,,,,,,,,,,,,,,,,,,,,,,,,24,2.2745,1,0,27,27,10,1,3,×,8,3 × 8,congruent,smallerFirst,1,2,24,,,,,,,,
,,,,,,,,,,,,,,,733,2022-01-25_09h07.53.874,multiplicationStroop,2021.2.3,Win32,60.06366749,,,,,,,,,,,,,,,,,,,,,,,,,,,,,,,,,24,1.9831,1,0,28,28,25,1,6,×,4,6 × 4,congruent,largerFirst,2,1,24,,,,,,,,
,,,,,,,,,,,,,,,733,2022-01-25_09h07.53.874,multiplicationStroop,2021.2.3,Win32,60.06366749,,,,,,,,,,,,,,,,,,,,,,,,,,,,,,,,,56,2.2827,0,0,29,29,17,1,9,×,8,9 × 8,congruent,largerFirst,2,1,72,,,,,,,,
,,,,,,,,,,,,,,,733,2022-01-25_09h07.53.874,multiplicationStroop,2021.2.3,Win32,60.06366749,,,,,,,,,,,,,,,,,,,,,,,,,,,,,,,,,81,3.7323,1,0,30,30,35,1,9,×,9,9 × 9,neutral,tie,2,1,81,,,,,,,,
,,,,,,,,,,,,,,,733,2022-01-25_09h07.53.874,multiplicationStroop,2021.2.3,Win32,60.06366749,,,,,,,,,,,,,,,,,,,,,,,,,,,,,,,,,40,1.9079,0,0,31,31,23,1,9,×,5,9 × 5,congruent,largerFirst,2,1,45,,,,,,,,
,,,,,,,,,,,,,,,733,2022-01-25_09h07.53.874,multiplicationStroop,2021.2.3,Win32,60.06366749,,,,,,,,,,,,,,,,,,,,,,,,,,,,,,,,,14,1.6997,1,0,32,32,14,1,7,×,2,7 × 2,congruent,largerFirst,2,1,14,,,,,,,,
,,,,,,,,,,,,,,,733,2022-01-25_09h07.53.874,multiplicationStroop,2021.2.3,Win32,60.06366749,,,,,,,,,,,,,,,,,,,,,,,,,,,,,,,,,42,6.1659,1,0,33,33,3,1,6,×,7,6 × 7,congruent,smallerFirst,1,2,42,,,,,,,,
,,,,,,,,,,,,,,,733,2022-01-25_09h07.53.874,multiplicationStroop,2021.2.3,Win32,60.06366749,,,,,,,,,,,,,,,,,,,,,,,,,,,,,,,,,9,2.9411,1,0,34,34,29,1,3,×,3,3 × 3,neutral,tie,2,1,9,,,,,,,,
,,,,,,,,,,,,,,,733,2022-01-25_09h07.53.874,multiplicationStroop,2021.2.3,Win32,60.06366749,,,,,,,,,,,,,,,,,,,,,,,,,,,,,,,,,12,1.8994,1,0,35,35,19,1,6,×,2,6 × 2,congruent,largerFirst,2,1,12,,,,,,,,
,,,,,,,,,,,,,,,733,2022-01-25_09h07.53.874,multiplicationStroop,2021.2.3,Win32,60.06366749,,,,,,,,,,,,,,,,,,,,,,,,,,,,,,,,,,,,,,,,,,,,,,,,,,0,3,3,2,1,stimulusFile/mult_blk3_congruent.xlsx,,
,,,,,,,,,,,,,,,733,2022-01-25_09h07.53.874,multiplicationStroop,2021.2.3,Win32,60.06366749,,,,,,,,,,,,,,,,,,,,,,,,,,,,,,,space,32.2404,9,1.5973,1,0,0,0,29,1,3,×,3,3 × 3,neutral,tie,1,2,9,,,,,,,,
,,,,,,,,,,,,,,,733,2022-01-25_09h07.53.874,multiplicationStroop,2021.2.3,Win32,60.06366749,,,,,,,,,,,,,,,,,,,,,,,,,,,,,,,,,25,1.6165,1,0,1,1,31,1,5,×,5,5 × 5,neutral,tie,1,2,25,,,,,,,,
,,,,,,,,,,,,,,,733,2022-01-25_09h07.53.874,multiplicationStroop,2021.2.3,Win32,60.06366749,,,,,,,,,,,,,,,,,,,,,,,,,,,,,,,,,28,7.8321,1,0,2,2,13,1,4,×,7,4 × 7,congruent,smallerFirst,1,2,28,,,,,,,,
,,,,,,,,,,,,,,,733,2022-01-25_09h07.53.874,multiplicationStroop,2021.2.3,Win32,60.06366749,,,,,,,,,,,,,,,,,,,,,,,,,,,,,,,,,54,2.2907,1,0,3,3,26,1,9,×,6,9 × 6,congruent,largerFirst,2,1,54,,,,,,,,
,,,,,,,,,,,,,,,733,2022-01-25_09h07.53.874,multiplicationStroop,2021.2.3,Win32,60.06366749,,,,,,,,,,,,,,,,,,,,,,,,,,,,,,,,,15,1.8323,1,0,4,4,18,1,5,×,3,5 × 3,congruent,largerFirst,2,1,15,,,,,,,,
,,,,,,,,,,,,,,,733,2022-01-25_09h07.53.874,multiplicationStroop,2021.2.3,Win32,60.06366749,,,,,,,,,,,,,,,,,,,,,,,,,,,,,,,,,32,2.7498,1,0,5,5,6,1,4,×,8,4 × 8,congruent,smallerFirst,1,2,32,,,,,,,,
,,,,,,,,,,,,,,,733,2022-01-25_09h07.53.874,multiplicationStroop,2021.2.3,Win32,60.06366749,,,,,,,,,,,,,,,,,,,,,,,,,,,,,,,,,45,2.9989,1,0,6,6,9,1,5,×,9,5 × 9,congruent,smallerFirst,1,2,45,,,,,,,,
,,,,,,,,,,,,,,,733,2022-01-25_09h07.53.874,multiplicationStroop,2021.2.3,Win32,60.06366749,,,,,,,,,,,,,,,,,,,,,,,,,,,,,,,,,63,2.7664,1,0,7,7,7,1,7,×,9,7 × 9,congruent,smallerFirst,1,2,63,,,,,,,,
,,,,,,,,,,,,,,,733,2022-01-25_09h07.53.874,multiplicationStroop,2021.2.3,Win32,60.06366749,,,,,,,,,,,,,,,,,,,,,,,,,,,,,,,,,12,2.3079,1,0,8,8,5,1,2,×,6,2 × 6,congruent,smallerFirst,1,2,12,,,,,,,,
,,,,,,,,,,,,,,,733,2022-01-25_09h07.53.874,multiplicationStroop,2021.2.3,Win32,60.06366749,,,,,,,,,,,,,,,,,,,,,,,,,,,,,,,,,14,1.6831,1,0,9,9,0,1,2,×,7,2 × 7,congruent,smallerFirst,1,2,14,,,,,,,,
,,,,,,,,,,,,,,,733,2022-01-25_09h07.53.874,multiplicationStroop,2021.2.3,Win32,60.06366749,,,,,,,,,,,,,,,,,,,,,,,,,,,,,,,,,24,2.8823,1,0,10,10,24,1,8,×,3,8 × 3,congruent,largerFirst,2,1,24,,,,,,,,
,,,,,,,,,,,,,,,733,2022-01-25_09h07.53.874,multiplicationStroop,2021.2.3,Win32,60.06366749,,,,,,,,,,,,,,,,,,,,,,,,,,,,,,,,,42,6.9158,1,0,11,11,17,1,7,×,6,7 × 6,congruent,largerFirst,2,1,42,,,,,,,,
,,,,,,,,,,,,,,,733,2022-01-25_09h07.53.874,multiplicationStroop,2021.2.3,Win32,60.06366749,,,,,,,,,,,,,,,,,,,,,,,,,,,,,,,,,27,3.6075,1,0,12,12,12,1,3,×,9,3 × 9,congruent,smallerFirst,1,2,27,,,,,,,,
,,,,,,,,,,,,,,,733,2022-01-25_09h07.53.874,multiplicationStroop,2021.2.3,Win32,60.06366749,,,,,,,,,,,,,,,,,,,,,,,,,,,,,,,,,49,1.9994,1,0,13,13,33,1,7,×,7,7 × 7,neutral,tie,1,2,49,,,,,,,,
,,,,,,,,,,,,,,,733,2022-01-25_09h07.53.874,multiplicationStroop,2021.2.3,Win32,60.06366749,,,,,,,,,,,,,,,,,,,,,,,,,,,,,,,,,30,2.416,1,0,14,14,1,1,5,×,6,5 × 6,congruent,smallerFirst,1,2,30,,,,,,,,
,,,,,,,,,,,,,,,733,2022-01-25_09h07.53.874,multiplicationStroop,2021.2.3,Win32,60.06366749,,,,,,,,,,,,,,,,,,,,,,,,,,,,,,,,,24,1.8915,1,0,15,15,11,1,4,×,6,4 × 6,congruent,smallerFirst,1,2,24,,,,,,,,
,,,,,,,,,,,,,,,733,2022-01-25_09h07.53.874,multiplicationStroop,2021.2.3,Win32,60.06366749,,,,,,,,,,,,,,,,,,,,,,,,,,,,,,,,,4,1.4989,1,0,16,16,28,1,2,×,2,2 × 2,neutral,tie,1,2,4,,,,,,,,
,,,,,,,,,,,,,,,733,2022-01-25_09h07.53.874,multiplicationStroop,2021.2.3,Win32,60.06366749,,,,,,,,,,,,,,,,,,,,,,,,,,,,,,,,,12,1.4165,1,0,17,17,16,1,4,×,3,4 × 3,congruent,largerFirst,2,1,12,,,,,,,,
,,,,,,,,,,,,,,,733,2022-01-25_09h07.53.874,multiplicationStroop,2021.2.3,Win32,60.06366749,,,,,,,,,,,,,,,,,,,,,,,,,,,,,,,,,56,2.2328,1,0,18,18,22,1,8,×,7,8 × 7,congruent,largerFirst,2,1,56,,,,,,,,
,,,,,,,,,,,,,,,733,2022-01-25_09h07.53.874,multiplicationStroop,2021.2.3,Win32,60.06366749,,,,,,,,,,,,,,,,,,,,,,,,,,,,,,,,,72,3.2162,1,0,19,19,3,1,8,×,9,8 × 9,congruent,smallerFirst,1,2,72,,,,,,,,
,,,,,,,,,,,,,,,733,2022-01-25_09h07.53.874,multiplicationStroop,2021.2.3,Win32,60.06366749,,,,,,,,,,,,,,,,,,,,,,,,,,,,,,,,,6,1.6747,1,0,20,20,27,1,3,×,2,3 × 2,congruent,largerFirst,2,1,6,,,,,,,,
,,,,,,,,,,,,,,,733,2022-01-25_09h07.53.874,multiplicationStroop,2021.2.3,Win32,60.06366749,,,,,,,,,,,,,,,,,,,,,,,,,,,,,,,,,64,2.349,1,0,21,21,34,1,8,×,8,8 × 8,neutral,tie,1,2,64,,,,,,,,
,,,,,,,,,,,,,,,733,2022-01-25_09h07.53.874,multiplicationStroop,2021.2.3,Win32,60.06366749,,,,,,,,,,,,,,,,,,,,,,,,,,,,,,,,,36,4.7077,1,0,22,22,14,1,9,×,4,9 × 4,congruent,largerFirst,2,1,36,,,,,,,,
,,,,,,,,,,,,,,,733,2022-01-25_09h07.53.874,multiplicationStroop,2021.2.3,Win32,60.06366749,,,,,,,,,,,,,,,,,,,,,,,,,,,,,,,,,10,2.6413,1,0,23,23,10,1,2,×,5,2 × 5,congruent,smallerFirst,1,2,10,,,,,,,,
,,,,,,,,,,,,,,,733,2022-01-25_09h07.53.874,multiplicationStroop,2021.2.3,Win32,60.06366749,,,,,,,,,,,,,,,,,,,,,,,,,,,,,,,,,40,2.0828,1,0,24,24,20,1,8,×,5,8 × 5,congruent,largerFirst,2,1,40,,,,,,,,
,,,,,,,,,,,,,,,733,2022-01-25_09h07.53.874,multiplicationStroop,2021.2.3,Win32,60.06366749,,,,,,,,,,,,,,,,,,,,,,,,,,,,,,,,,8,1.6162,1,0,25,25,23,1,4,×,2,4 × 2,congruent,largerFirst,2,1,8,,,,,,,,
,,,,,,,,,,,,,,,733,2022-01-25_09h07.53.874,multiplicationStroop,2021.2.3,Win32,60.06366749,,,,,,,,,,,,,,,,,,,,,,,,,,,,,,,,,81,1.8159,1,0,26,26,35,1,9,×,9,9 × 9,neutral,tie,1,2,81,,,,,,,,
,,,,,,,,,,,,,,,733,2022-01-25_09h07.53.874,multiplicationStroop,2021.2.3,Win32,60.06366749,,,,,,,,,,,,,,,,,,,,,,,,,,,,,,,,,21,1.7328,1,0,27,27,2,1,3,×,7,3 × 7,congruent,smallerFirst,1,2,21,,,,,,,,
,,,,,,,,,,,,,,,733,2022-01-25_09h07.53.874,multiplicationStroop,2021.2.3,Win32,60.06366749,,,,,,,,,,,,,,,,,,,,,,,,,,,,,,,,,18,2.0496,1,0,28,28,25,1,6,×,3,6 × 3,congruent,largerFirst,2,1,18,,,,,,,,
,,,,,,,,,,,,,,,733,2022-01-25_09h07.53.874,multiplicationStroop,2021.2.3,Win32,60.06366749,,,,,,,,,,,,,,,,,,,,,,,,,,,,,,,,,35,1.8156,1,0,29,29,15,1,7,×,5,7 × 5,congruent,largerFirst,2,1,35,,,,,,,,
,,,,,,,,,,,,,,,733,2022-01-25_09h07.53.874,multiplicationStroop,2021.2.3,Win32,60.06366749,,,,,,,,,,,,,,,,,,,,,,,,,,,,,,,,,36,1.9999,1,0,30,30,32,1,6,×,6,6 × 6,neutral,tie,1,2,36,,,,,,,,
,,,,,,,,,,,,,,,733,2022-01-25_09h07.53.874,multiplicationStroop,2021.2.3,Win32,60.06366749,,,,,,,,,,,,,,,,,,,,,,,,,,,,,,,,,48,3.3991,1,0,31,31,4,1,6,×,8,6 × 8,congruent,smallerFirst,1,2,48,,,,,,,,
,,,,,,,,,,,,,,,733,2022-01-25_09h07.53.874,multiplicationStroop,2021.2.3,Win32,60.06366749,,,,,,,,,,,,,,,,,,,,,,,,,,,,,,,,,16,2.1916,1,0,32,32,30,1,4,×,4,4 × 4,neutral,tie,1,2,16,,,,,,,,
,,,,,,,,,,,,,,,733,2022-01-25_09h07.53.874,multiplicationStroop,2021.2.3,Win32,60.06366749,,,,,,,,,,,,,,,,,,,,,,,,,,,,,,,,,18,1.8158,1,0,33,33,8,1,2,×,9,2 × 9,congruent,smallerFirst,1,2,18,,,,,,,,
,,,,,,,,,,,,,,,733,2022-01-25_09h07.53.874,multiplicationStroop,2021.2.3,Win32,60.06366749,,,,,,,,,,,,,,,,,,,,,,,,,,,,,,,,,20,1.6496,1,0,34,34,21,1,5,×,4,5 × 4,congruent,largerFirst,2,1,20,,,,,,,,
,,,,,,,,,,,,,,,733,2022-01-25_09h07.53.874,multiplicationStroop,2021.2.3,Win32,60.06366749,,,,,,,,,,,,,,,,,,,,,,,,,,,,,,,,,16,2.149,1,0,35,35,19,1,8,×,2,8 × 2,congruent,largerFirst,2,1,16,,,,,,,,
,,,,,,,,,,,,,,,733,2022-01-25_09h07.53.874,multiplicationStroop,2021.2.3,Win32,60.06366749,,,,,,,,,,,,,,,,,,,,,,,,,,,,,,,,,,,,,,,,,,,,,,,,,,0,4,4,3,1,stimulusFile/mult_blk4_congruent.xlsx,,
,,,,,,,,,,,,,,,733,2022-01-25_09h07.53.874,multiplicationStroop,2021.2.3,Win32,60.06366749,,,,,,,,,,,,,,,,,,,,,,,,,,,,,,,space,2.2565,12,1.6472,1,0,0,0,11,1,2,×,6,2 × 6,neutral,smallerFirst,1.5,1.5,12,,,,,,,,
,,,,,,,,,,,,,,,733,2022-01-25_09h07.53.874,multiplicationStroop,2021.2.3,Win32,60.06366749,,,,,,,,,,,,,,,,,,,,,,,,,,,,,,,,,48,2.5988,1,0,1,1,1,1,6,×,8,6 × 8,neutral,smallerFirst,1.5,1.5,48,,,,,,,,
,,,,,,,,,,,,,,,733,2022-01-25_09h07.53.874,multiplicationStroop,2021.2.3,Win32,60.06366749,,,,,,,,,,,,,,,,,,,,,,,,,,,,,,,,,42,2.9082,1,0,2,2,20,1,7,×,6,7 × 6,neutral,largerFirst,1.5,1.5,42,,,,,,,,
,,,,,,,,,,,,,,,733,2022-01-25_09h07.53.874,multiplicationStroop,2021.2.3,Win32,60.06366749,,,,,,,,,,,,,,,,,,,,,,,,,,,,,,,,,10,1.6494,1,0,3,3,18,1,5,×,2,5 × 2,neutral,largerFirst,1.5,1.5,10,,,,,,,,
,,,,,,,,,,,,,,,733,2022-01-25_09h07.53.874,multiplicationStroop,2021.2.3,Win32,60.06366749,,,,,,,,,,,,,,,,,,,,,,,,,,,,,,,,,30,1.8166,1,0,4,4,5,1,5,×,6,5 × 6,neutral,smallerFirst,1.5,1.5,30,,,,,,,,
,,,,,,,,,,,,,,,733,2022-01-25_09h07.53.874,multiplicationStroop,2021.2.3,Win32,60.06366749,,,,,,,,,,,,,,,,,,,,,,,,,,,,,,,,,64,2.6329,1,0,5,5,34,1,8,×,8,8 × 8,neutral,tie,1.5,1.5,64,,,,,,,,
,,,,,,,,,,,,,,,733,2022-01-25_09h07.53.874,multiplicationStroop,2021.2.3,Win32,60.06366749,,,,,,,,,,,,,,,,,,,,,,,,,,,,,,,,,9,1.4656,1,0,6,6,29,1,3,×,3,3 × 3,neutral,tie,1.5,1.5,9,,,,,,,,
,,,,,,,,,,,,,,,733,2022-01-25_09h07.53.874,multiplicationStroop,2021.2.3,Win32,60.06366749,,,,,,,,,,,,,,,,,,,,,,,,,,,,,,,,,24,2.866,1,0,7,7,16,1,6,×,4,6 × 4,neutral,largerFirst,1.5,1.5,24,,,,,,,,
,,,,,,,,,,,,,,,733,2022-01-25_09h07.53.874,multiplicationStroop,2021.2.3,Win32,60.06366749,,,,,,,,,,,,,,,,,,,,,,,,,,,,,,,,,16,1.5997,1,0,8,8,30,1,4,×,4,4 × 4,neutral,tie,1.5,1.5,16,,,,,,,,
,,,,,,,,,,,,,,,733,2022-01-25_09h07.53.874,multiplicationStroop,2021.2.3,Win32,60.06366749,,,,,,,,,,,,,,,,,,,,,,,,,,,,,,,,,27,1.9152,1,0,9,9,0,1,3,×,9,3 × 9,neutral,smallerFirst,1.5,1.5,27,,,,,,,,
,,,,,,,,,,,,,,,733,2022-01-25_09h07.53.874,multiplicationStroop,2021.2.3,Win32,60.06366749,,,,,,,,,,,,,,,,,,,,,,,,,,,,,,,,,25,1.8333,1,0,10,10,31,1,5,×,5,5 × 5,neutral,tie,1.5,1.5,25,,,,,,,,
,,,,,,,,,,,,,,,733,2022-01-25_09h07.53.874,multiplicationStroop,2021.2.3,Win32,60.06366749,,,,,,,,,,,,,,,,,,,,,,,,,,,,,,,,,35,2.2327,1,0,11,11,15,1,7,×,5,7 × 5,neutral,largerFirst,1.5,1.5,35,,,,,,,,
,,,,,,,,,,,,,,,733,2022-01-25_09h07.53.874,multiplicationStroop,2021.2.3,Win32,60.06366749,,,,,,,,,,,,,,,,,,,,,,,,,,,,,,,,,12,1.5494,1,0,12,12,7,1,3,×,4,3 × 4,neutral,smallerFirst,1.5,1.5,12,,,,,,,,
,,,,,,,,,,,,,,,733,2022-01-25_09h07.53.874,multiplicationStroop,2021.2.3,Win32,60.06366749,,,,,,,,,,,,,,,,,,,,,,,,,,,,,,,,,63,2.7492,1,0,13,13,26,1,9,×,7,9 × 7,neutral,largerFirst,1.5,1.5,63,,,,,,,,
,,,,,,,,,,,,,,,733,2022-01-25_09h07.53.874,multiplicationStroop,2021.2.3,Win32,60.06366749,,,,,,,,,,,,,,,,,,,,,,,,,,,,,,,,,20,1.8663,1,0,14,14,6,1,4,×,5,4 × 5,neutral,smallerFirst,1.5,1.5,20,,,,,,,,
,,,,,,,,,,,,,,,733,2022-01-25_09h07.53.874,multiplicationStroop,2021.2.3,Win32,60.06366749,,,,,,,,,,,,,,,,,,,,,,,,,,,,,,,,,81,1.7159,1,0,15,15,35,1,9,×,9,9 × 9,neutral,tie,1.5,1.5,81,,,,,,,,
,,,,,,,,,,,,,,,733,2022-01-25_09h07.53.874,multiplicationStroop,2021.2.3,Win32,60.06366749,,,,,,,,,,,,,,,,,,,,,,,,,,,,,,,,,72,2.0498,1,0,16,16,25,1,9,×,8,9 × 8,neutral,largerFirst,1.5,1.5,72,,,,,,,,
,,,,,,,,,,,,,,,733,2022-01-25_09h07.53.874,multiplicationStroop,2021.2.3,Win32,60.06366749,,,,,,,,,,,,,,,,,,,,,,,,,,,,,,,,,15,2.5492,1,0,17,17,19,1,5,×,3,5 × 3,neutral,largerFirst,1.5,1.5,15,,,,,,,,
,,,,,,,,,,,,,,,733,2022-01-25_09h07.53.874,multiplicationStroop,2021.2.3,Win32,60.06366749,,,,,,,,,,,,,,,,,,,,,,,,,,,,,,,,,54,2.799,1,0,18,18,21,1,9,×,6,9 × 6,neutral,largerFirst,1.5,1.5,54,,,,,,,,
,,,,,,,,,,,,,,,733,2022-01-25_09h07.53.874,multiplicationStroop,2021.2.3,Win32,60.06366749,,,,,,,,,,,,,,,,,,,,,,,,,,,,,,,,,36,4.3248,1,0,19,19,13,1,4,×,9,4 × 9,neutral,smallerFirst,1.5,1.5,36,,,,,,,,
,,,,,,,,,,,,,,,733,2022-01-25_09h07.53.874,multiplicationStroop,2021.2.3,Win32,60.06366749,,,,,,,,,,,,,,,,,,,,,,,,,,,,,,,,,28,5.5073,1,0,20,20,3,1,4,×,7,4 × 7,neutral,smallerFirst,1.5,1.5,28,,,,,,,,
,,,,,,,,,,,,,,,733,2022-01-25_09h07.53.874,multiplicationStroop,2021.2.3,Win32,60.06366749,,,,,,,,,,,,,,,,,,,,,,,,,,,,,,,,,18,2.2746,1,0,21,21,4,1,2,×,9,2 × 9,neutral,smallerFirst,1.5,1.5,18,,,,,,,,
,,,,,,,,,,,,,,,733,2022-01-25_09h07.53.874,multiplicationStroop,2021.2.3,Win32,60.06366749,,,,,,,,,,,,,,,,,,,,,,,,,,,,,,,,,49,2.0494,1,0,22,22,33,1,7,×,7,7 × 7,neutral,tie,1.5,1.5,49,,,,,,,,
,,,,,,,,,,,,,,,733,2022-01-25_09h07.53.874,multiplicationStroop,2021.2.3,Win32,60.06366749,,,,,,,,,,,,,,,,,,,,,,,,,,,,,,,,,16,1.6495,1,0,23,23,27,1,8,×,2,8 × 2,neutral,largerFirst,1.5,1.5,16,,,,,,,,
,,,,,,,,,,,,,,,733,2022-01-25_09h07.53.874,multiplicationStroop,2021.2.3,Win32,60.06366749,,,,,,,,,,,,,,,,,,,,,,,,,,,,,,,,,4,1.3996,1,0,24,24,28,1,2,×,2,2 × 2,neutral,tie,1.5,1.5,4,,,,,,,,
,,,,,,,,,,,,,,,733,2022-01-25_09h07.53.874,multiplicationStroop,2021.2.3,Win32,60.06366749,,,,,,,,,,,,,,,,,,,,,,,,,,,,,,,,,24,2.3831,1,0,25,25,8,1,3,×,8,3 × 8,neutral,smallerFirst,1.5,1.5,24,,,,,,,,
,,,,,,,,,,,,,,,733,2022-01-25_09h07.53.874,multiplicationStroop,2021.2.3,Win32,60.06366749,,,,,,,,,,,,,,,,,,,,,,,,,,,,,,,,,21,2.0079,1,0,26,26,22,1,7,×,3,7 × 3,neutral,largerFirst,1.5,1.5,21,,,,,,,,
,,,,,,,,,,,,,,,733,2022-01-25_09h07.53.874,multiplicationStroop,2021.2.3,Win32,60.06366749,,,,,,,,,,,,,,,,,,,,,,,,,,,,,,,,,18,2.0991,1,0,27,27,14,1,6,×,3,6 × 3,neutral,largerFirst,1.5,1.5,18,,,,,,,,
,,,,,,,,,,,,,,,733,2022-01-25_09h07.53.874,multiplicationStroop,2021.2.3,Win32,60.06366749,,,,,,,,,,,,,,,,,,,,,,,,,,,,,,,,,14,1.549,1,0,28,28,2,1,2,×,7,2 × 7,neutral,smallerFirst,1.5,1.5,14,,,,,,,,
,,,,,,,,,,,,,,,733,2022-01-25_09h07.53.874,multiplicationStroop,2021.2.3,Win32,60.06366749,,,,,,,,,,,,,,,,,,,,,,,,,,,,,,,,,6,1.7329,1,0,29,29,12,1,2,×,3,2 × 3,neutral,smallerFirst,1.5,1.5,6,,,,,,,,
,,,,,,,,,,,,,,,733,2022-01-25_09h07.53.874,multiplicationStroop,2021.2.3,Win32,60.06366749,,,,,,,,,,,,,,,,,,,,,,,,,,,,,,,,,45,2.7666,1,0,30,30,24,1,9,×,5,9 × 5,neutral,largerFirst,1.5,1.5,45,,,,,,,,
,,,,,,,,,,,,,,,733,2022-01-25_09h07.53.874,multiplicationStroop,2021.2.3,Win32,60.06366749,,,,,,,,,,,,,,,,,,,,,,,,,,,,,,,,,8,1.5083,1,0,31,31,17,1,4,×,2,4 × 2,neutral,largerFirst,1.5,1.5,8,,,,,,,,
,,,,,,,,,,,,,,,733,2022-01-25_09h07.53.874,multiplicationStroop,2021.2.3,Win32,60.06366749,,,,,,,,,,,,,,,,,,,,,,,,,,,,,,,,,36,1.7493,1,0,32,32,32,1,6,×,6,6 × 6,neutral,tie,1.5,1.5,36,,,,,,,,
,,,,,,,,,,,,,,,733,2022-01-25_09h07.53.874,multiplicationStroop,2021.2.3,Win32,60.06366749,,,,,,,,,,,,,,,,,,,,,,,,,,,,,,,,,40,1.9994,1,0,33,33,10,1,5,×,8,5 × 8,neutral,smallerFirst,1.5,1.5,40,,,,,,,,
,,,,,,,,,,,,,,,733,2022-01-25_09h07.53.874,multiplicationStroop,2021.2.3,Win32,60.06366749,,,,,,,,,,,,,,,,,,,,,,,,,,,,,,,,,56,1.999,1,0,34,34,23,1,8,×,7,8 × 7,neutral,largerFirst,1.5,1.5,56,,,,,,,,
,,,,,,,,,,,,,,,733,2022-01-25_09h07.53.874,multiplicationStroop,2021.2.3,Win32,60.06366749,,,,,,,,,,,,,,,,,,,,,,,,,,,,,,,,,32,2.916,1,0,35,35,9,1,4,×,8,4 × 8,neutral,smallerFirst,1.5,1.5,32,,,,,,,,
,,,,,,,,,,,,,,,733,2022-01-25_09h07.53.874,multiplicationStroop,2021.2.3,Win32,60.06366749,,,,,,,,,,,,,,,,,,,,,,,,,,,,,,,,,,,,,,,,,,,,,,,,,,0,5,5,0,1,stimulusFile/mult_blk1.xlsx,,
,,,,,,,,,,,,,,,733,2022-01-25_09h07.53.874,multiplicationStroop,2021.2.3,Win32,60.06366749,,,,,,,,,,,,,,,,,,,,,,,,,,,,,,,,,,,,,,,,,,,,,,,,,,,,,,,,space,11.4866