welcomeKey_resp.keys,welcomeKey_resp.rt,X Scale,Y Scale,rt_resp_4.keys,rt_resp_4.corr,rt_resp_4.rt,speedtest_2.thisRepN,speedtest_2.thisTrialN,speedtest_2.thisN,speedtest_2.thisIndex,speedtest_2.ran,numberSc,posX,positionLayout,participant,date,expName,psychopyVersion,OS,frameRate,ct_instrresp.keys,ct_instrresp.rt,key_resp_2.keys,key_resp_2.rt,ct_keyResp.keys,ct_keyResp.corr,ct_keyResp.rt,trials.thisRepN,trials.thisTrialN,trials.thisN,trials.thisIndex,trials.ran,leftNo,rightNo,displayProblem,numDistance,leftNo_size,rightNo_size,Dims,keyAnswer,TS_Loop.thisRepN,TS_Loop.thisTrialN,TS_Loop.thisN,TS_Loop.thisIndex,TS_Loop.ran,Condition,ActionInst,instrImage,mltptaskInst_resp.keys,mltptaskInst_resp.rt,continue_resp_2.keys,continue_resp_2.rt,multp_Answer,multi_RT,multiplyCorr,LoopingMultiply.thisRepN,LoopingMultiply.thisTrialN,LoopingMultiply.thisN,LoopingMultiply.thisIndex,LoopingMultiply.ran,factor1,multiplySign,factor2,multliplyProblem,physicalSize,orderOperand,sizeF1,sizeF2,mult_answer,trials_stroop.thisRepN,trials_stroop.thisTrialN,trials_stroop.thisN,trials_stroop.thisIndex,trials_stroop.ran,multiplicationFile,esckey_resp_2.keys,esckey_resp_2.rt
y,12.732,44.4,44.5,left,1,0.4662,0,0,0,3,1,4,-200,left,734,2022-01-23_12h53.02.731,multiplicationStroop,2021.2.3,Win32,299.2220227,,,,,,,,,,,,,,,,,,,,,,,,,,,,,,,,,,,,,,,,,,,,,,,,,,,,,,,,,
,,,,right,1,0.3069,0,1,1,11,1,4,200,right,734,2022-01-23_12h53.02.731,multiplicationStroop,2021.2.3,Win32,299.2220227,,,,,,,,,,,,,,,,,,,,,,,,,,,,,,,,,,,,,,,,,,,,,,,,,,,,,,,,,
,,,,right,1,0.319,0,2,2,12,1,6,200,right,734,2022-01-23_12h53.02.731,multiplicationStroop,2021.2.3,Win32,299.2220227,,,,,,,,,,,,,,,,,,,,,,,,,,,,,,,,,,,,,,,,,,,,,,,,,,,,,,,,,
,,,,right,1,0.3473,0,3,3,14,1,8,200,right,734,2022-01-23_12h53.02.731,multiplicationStroop,2021.2.3,Win32,299.2220227,,,,,,,,,,,,,,,,,,,,,,,,,,,,,,,,,,,,,,,,,,,,,,,,,,,,,,,,,
,,,,right,1,0.2405,0,4,4,8,1,1,200,right,734,2022-01-23_12h53.02.731,multiplicationStroop,2021.2.3,Win32,299.2220227,,,,,,,,,,,,,,,,,,,,,,,,,,,,,,,,,,,,,,,,,,,,,,,,,,,,,,,,,
,,,,left,1,0.2843,0,5,5,0,1,1,-200,left,734,2022-01-23_12h53.02.731,multiplicationStroop,2021.2.3,Win32,299.2220227,,,,,,,,,,,,,,,,,,,,,,,,,,,,,,,,,,,,,,,,,,,,,,,,,,,,,,,,,
,,,,right,1,0.2545,0,6,6,15,1,9,200,right,734,2022-01-23_12h53.02.731,multiplicationStroop,2021.2.3,Win32,299.2220227,,,,,,,,,,,,,,,,,,,,,,,,,,,,,,,,,,,,,,,,,,,,,,,,,,,,,,,,,
,,,,left,1,0.2597,0,7,7,1,1,2,-200,left,734,2022-01-23_12h53.02.731,multiplicationStroop,2021.2.3,Win32,299.2220227,,,,,,,,,,,,,,,,,,,,,,,,,,,,,,,,,,,,,,,,,,,,,,,,,,,,,,,,,
,,,,left,1,0.2901,0,8,8,5,1,7,-200,left,734,2022-01-23_12h53.02.731,multiplicationStroop,2021.2.3,Win32,299.2220227,,,,,,,,,,,,,,,,,,,,,,,,,,,,,,,,,,,,,,,,,,,,,,,,,,,,,,,,,
,,,,left,1,0.2268,0,9,9,7,1,9,-200,left,734,2022-01-23_12h53.02.731,multiplicationStroop,2021.2.3,Win32,299.2220227,,,,,,,,,,,,,,,,,,,,,,,,,,,,,,,,,,,,,,,,,,,,,,,,,,,,,,,,,
,,,,left,1,0.2318,0,10,10,4,1,6,-200,left,734,2022-01-23_12h53.02.731,multiplicationStroop,2021.2.3,Win32,299.2220227,,,,,,,,,,,,,,,,,,,,,,,,,,,,,,,,,,,,,,,,,,,,,,,,,,,,,,,,,
,,,,left,1,0.2539,0,11,11,2,1,3,-200,left,734,2022-01-23_12h53.02.731,multiplicationStroop,2021.2.3,Win32,299.2220227,,,,,,,,,,,,,,,,,,,,,,,,,,,,,,,,,,,,,,,,,,,,,,,,,,,,,,,,,
,,,,right,1,0.2616,0,12,12,9,1,2,200,right,734,2022-01-23_12h53.02.731,multiplicationStroop,2021.2.3,Win32,299.2220227,,,,,,,,,,,,,,,,,,,,,,,,,,,,,,,,,,,,,,,,,,,,,,,,,,,,,,,,,
,,,,right,1,0.2594,0,13,13,13,1,7,200,right,734,2022-01-23_12h53.02.731,multiplicationStroop,2021.2.3,Win32,299.2220227,,,,,,,,,,,,,,,,,,,,,,,,,,,,,,,,,,,,,,,,,,,,,,,,,,,,,,,,,
,,,,left,1,0.3003,0,14,14,6,1,8,-200,left,734,2022-01-23_12h53.02.731,multiplicationStroop,2021.2.3,Win32,299.2220227,,,,,,,,,,,,,,,,,,,,,,,,,,,,,,,,,,,,,,,,,,,,,,,,,,,,,,,,,
,,,,right,1,0.2599,0,15,15,10,1,3,200,right,734,2022-01-23_12h53.02.731,multiplicationStroop,2021.2.3,Win32,299.2220227,,,,,,,,,,,,,,,,,,,,,,,,,,,,,,,,,,,,,,,,,,,,,,,,,,,,,,,,,
,,,,left,1,0.2545,1,0,16,7,1,9,-200,left,734,2022-01-23_12h53.02.731,multiplicationStroop,2021.2.3,Win32,299.2220227,,,,,,,,,,,,,,,,,,,,,,,,,,,,,,,,,,,,,,,,,,,,,,,,,,,,,,,,,
,,,,left,1,0.2873,1,1,17,5,1,7,-200,left,734,2022-01-23_12h53.02.731,multiplicationStroop,2021.2.3,Win32,299.2220227,,,,,,,,,,,,,,,,,,,,,,,,,,,,,,,,,,,,,,,,,,,,,,,,,,,,,,,,,
,,,,left,1,0.2839,1,2,18,4,1,6,-200,left,734,2022-01-23_12h53.02.731,multiplicationStroop,2021.2.3,Win32,299.2220227,,,,,,,,,,,,,,,,,,,,,,,,,,,,,,,,,,,,,,,,,,,,,,,,,,,,,,,,,
,,,,right,1,0.2615,1,3,19,10,1,3,200,right,734,2022-01-23_12h53.02.731,multiplicationStroop,2021.2.3,Win32,299.2220227,,,,,,,,,,,,,,,,,,,,,,,,,,,,,,,,,,,,,,,,,,,,,,,,,,,,,,,,,
,,,,left,1,0.2272,1,4,20,6,1,8,-200,left,734,2022-01-23_12h53.02.731,multiplicationStroop,2021.2.3,Win32,299.2220227,,,,,,,,,,,,,,,,,,,,,,,,,,,,,,,,,,,,,,,,,,,,,,,,,,,,,,,,,
,,,,right,1,0.238,1,5,21,12,1,6,200,right,734,2022-01-23_12h53.02.731,multiplicationStroop,2021.2.3,Win32,299.2220227,,,,,,,,,,,,,,,,,,,,,,,,,,,,,,,,,,,,,,,,,,,,,,,,,,,,,,,,,
,,,,right,1,0.2981,1,6,22,9,1,2,200,right,734,2022-01-23_12h53.02.731,multiplicationStroop,2021.2.3,Win32,299.2220227,,,,,,,,,,,,,,,,,,,,,,,,,,,,,,,,,,,,,,,,,,,,,,,,,,,,,,,,,
,,,,right,1,0.2378,1,7,23,14,1,8,200,right,734,2022-01-23_12h53.02.731,multiplicationStroop,2021.2.3,Win32,299.2220227,,,,,,,,,,,,,,,,,,,,,,,,,,,,,,,,,,,,,,,,,,,,,,,,,,,,,,,,,
,,,,right,1,0.2209,1,8,24,8,1,1,200,right,734,2022-01-23_12h53.02.731,multiplicationStroop,2021.2.3,Win32,299.2220227,,,,,,,,,,,,,,,,,,,,,,,,,,,,,,,,,,,,,,,,,,,,,,,,,,,,,,,,,
,,,,right,1,0.2634,1,9,25,13,1,7,200,right,734,2022-01-23_12h53.02.731,multiplicationStroop,2021.2.3,Win32,299.2220227,,,,,,,,,,,,,,,,,,,,,,,,,,,,,,,,,,,,,,,,,,,,,,,,,,,,,,,,,
,,,,left,1,0.2942,1,10,26,0,1,1,-200,left,734,2022-01-23_12h53.02.731,multiplicationStroop,2021.2.3,Win32,299.2220227,,,,,,,,,,,,,,,,,,,,,,,,,,,,,,,,,,,,,,,,,,,,,,,,,,,,,,,,,
,,,,left,1,0.3303,1,11,27,1,1,2,-200,left,734,2022-01-23_12h53.02.731,multiplicationStroop,2021.2.3,Win32,299.2220227,,,,,,,,,,,,,,,,,,,,,,,,,,,,,,,,,,,,,,,,,,,,,,,,,,,,,,,,,
,,,,left,1,0.2941,1,12,28,3,1,4,-200,left,734,2022-01-23_12h53.02.731,multiplicationStroop,2021.2.3,Win32,299.2220227,,,,,,,,,,,,,,,,,,,,,,,,,,,,,,,,,,,,,,,,,,,,,,,,,,,,,,,,,
,,,,left,1,0.2569,1,13,29,2,1,3,-200,left,734,2022-01-23_12h53.02.731,multiplicationStroop,2021.2.3,Win32,299.2220227,,,,,,,,,,,,,,,,,,,,,,,,,,,,,,,,,,,,,,,,,,,,,,,,,,,,,,,,,
,,,,right,1,0.4865,1,14,30,11,1,4,200,right,734,2022-01-23_12h53.02.731,multiplicationStroop,2021.2.3,Win32,299.2220227,,,,,,,,,,,,,,,,,,,,,,,,,,,,,,,,,,,,,,,,,,,,,,,,,,,,,,,,,
,,,,right,1,0.2614,1,15,31,15,1,9,200,right,734,2022-01-23_12h53.02.731,multiplicationStroop,2021.2.3,Win32,299.2220227,,,,,,,,,,,,,,,,,,,,,,,,,,,,,,,,,,,,,,,,,,,,,,,,,,,,,,,,,
,,,,right,1,0.2893,2,0,32,15,1,9,200,right,734,2022-01-23_12h53.02.731,multiplicationStroop,2021.2.3,Win32,299.2220227,,,,,,,,,,,,,,,,,,,,,,,,,,,,,,,,,,,,,,,,,,,,,,,,,,,,,,,,,
,,,,left,1,0.2976,2,1,33,0,1,1,-200,left,734,2022-01-23_12h53.02.731,multiplicationStroop,2021.2.3,Win32,299.2220227,,,,,,,,,,,,,,,,,,,,,,,,,,,,,,,,,,,,,,,,,,,,,,,,,,,,,,,,,
,,,,left,1,0.3167,2,2,34,5,1,7,-200,left,734,2022-01-23_12h53.02.731,multiplicationStroop,2021.2.3,Win32,299.2220227,,,,,,,,,,,,,,,,,,,,,,,,,,,,,,,,,,,,,,,,,,,,,,,,,,,,,,,,,
,,,,right,1,0.2891,2,3,35,11,1,4,200,right,734,2022-01-23_12h53.02.731,multiplicationStroop,2021.2.3,Win32,299.2220227,,,,,,,,,,,,,,,,,,,,,,,,,,,,,,,,,,,,,,,,,,,,,,,,,,,,,,,,,
,,,,left,1,0.2601,2,4,36,3,1,4,-200,left,734,2022-01-23_12h53.02.731,multiplicationStroop,2021.2.3,Win32,299.2220227,,,,,,,,,,,,,,,,,,,,,,,,,,,,,,,,,,,,,,,,,,,,,,,,,,,,,,,,,
,,,,right,1,0.2116,2,5,37,8,1,1,200,right,734,2022-01-23_12h53.02.731,multiplicationStroop,2021.2.3,Win32,299.2220227,,,,,,,,,,,,,,,,,,,,,,,,,,,,,,,,,,,,,,,,,,,,,,,,,,,,,,,,,
,,,,right,1,0.3685,2,6,38,10,1,3,200,right,734,2022-01-23_12h53.02.731,multiplicationStroop,2021.2.3,Win32,299.2220227,,,,,,,,,,,,,,,,,,,,,,,,,,,,,,,,,,,,,,,,,,,,,,,,,,,,,,,,,
,,,,left,1,0.2611,2,7,39,2,1,3,-200,left,734,2022-01-23_12h53.02.731,multiplicationStroop,2021.2.3,Win32,299.2220227,,,,,,,,,,,,,,,,,,,,,,,,,,,,,,,,,,,,,,,,,,,,,,,,,,,,,,,,,
,,,,left,1,0.323,2,8,40,7,1,9,-200,left,734,2022-01-23_12h53.02.731,multiplicationStroop,2021.2.3,Win32,299.2220227,,,,,,,,,,,,,,,,,,,,,,,,,,,,,,,,,,,,,,,,,,,,,,,,,,,,,,,,,
,,,,left,1,0.2632,2,9,41,1,1,2,-200,left,734,2022-01-23_12h53.02.731,multiplicationStroop,2021.2.3,Win32,299.2220227,,,,,,,,,,,,,,,,,,,,,,,,,,,,,,,,,,,,,,,,,,,,,,,,,,,,,,,,,
,,,,right,1,0.2776,2,10,42,9,1,2,200,right,734,2022-01-23_12h53.02.731,multiplicationStroop,2021.2.3,Win32,299.2220227,,,,,,,,,,,,,,,,,,,,,,,,,,,,,,,,,,,,,,,,,,,,,,,,,,,,,,,,,
,,,,left,1,0.2679,2,11,43,4,1,6,-200,left,734,2022-01-23_12h53.02.731,multiplicationStroop,2021.2.3,Win32,299.2220227,,,,,,,,,,,,,,,,,,,,,,,,,,,,,,,,,,,,,,,,,,,,,,,,,,,,,,,,,
,,,,right,1,0.2303,2,12,44,13,1,7,200,right,734,2022-01-23_12h53.02.731,multiplicationStroop,2021.2.3,Win32,299.2220227,,,,,,,,,,,,,,,,,,,,,,,,,,,,,,,,,,,,,,,,,,,,,,,,,,,,,,,,,
,,,,right,1,0.2732,2,13,45,12,1,6,200,right,734,2022-01-23_12h53.02.731,multiplicationStroop,2021.2.3,Win32,299.2220227,,,,,,,,,,,,,,,,,,,,,,,,,,,,,,,,,,,,,,,,,,,,,,,,,,,,,,,,,
,,,,left,1,0.2804,2,14,46,6,1,8,-200,left,734,2022-01-23_12h53.02.731,multiplicationStroop,2021.2.3,Win32,299.2220227,,,,,,,,,,,,,,,,,,,,,,,,,,,,,,,,,,,,,,,,,,,,,,,,,,,,,,,,,
,,,,right,1,0.2565,2,15,47,14,1,8,200,right,734,2022-01-23_12h53.02.731,multiplicationStroop,2021.2.3,Win32,299.2220227,,,,,,,,,,,,,,,,,,,,,,,,,,,,,,,,,,,,,,,,,,,,,,,,,,,,,,,,,
,,,,right,1,0.382,3,0,48,8,1,1,200,right,734,2022-01-23_12h53.02.731,multiplicationStroop,2021.2.3,Win32,299.2220227,,,,,,,,,,,,,,,,,,,,,,,,,,,,,,,,,,,,,,,,,,,,,,,,,,,,,,,,,
,,,,left,1,0.2835,3,1,49,7,1,9,-200,left,734,2022-01-23_12h53.02.731,multiplicationStroop,2021.2.3,Win32,299.2220227,,,,,,,,,,,,,,,,,,,,,,,,,,,,,,,,,,,,,,,,,,,,,,,,,,,,,,,,,
,,,,right,1,0.2078,3,2,50,14,1,8,200,right,734,2022-01-23_12h53.02.731,multiplicationStroop,2021.2.3,Win32,299.2220227,,,,,,,,,,,,,,,,,,,,,,,,,,,,,,,,,,,,,,,,,,,,,,,,,,,,,,,,,
,,,,left,1,0.2299,3,3,51,2,1,3,-200,left,734,2022-01-23_12h53.02.731,multiplicationStroop,2021.2.3,Win32,299.2220227,,,,,,,,,,,,,,,,,,,,,,,,,,,,,,,,,,,,,,,,,,,,,,,,,,,,,,,,,
,,,,right,1,0.2359,3,4,52,12,1,6,200,right,734,2022-01-23_12h53.02.731,multiplicationStroop,2021.2.3,Win32,299.2220227,,,,,,,,,,,,,,,,,,,,,,,,,,,,,,,,,,,,,,,,,,,,,,,,,,,,,,,,,
,,,,left,1,0.2838,3,5,53,4,1,6,-200,left,734,2022-01-23_12h53.02.731,multiplicationStroop,2021.2.3,Win32,299.2220227,,,,,,,,,,,,,,,,,,,,,,,,,,,,,,,,,,,,,,,,,,,,,,,,,,,,,,,,,
,,,,right,1,0.2366,3,6,54,11,1,4,200,right,734,2022-01-23_12h53.02.731,multiplicationStroop,2021.2.3,Win32,299.2220227,,,,,,,,,,,,,,,,,,,,,,,,,,,,,,,,,,,,,,,,,,,,,,,,,,,,,,,,,
,,,,left,1,0.2805,3,7,55,3,1,4,-200,left,734,2022-01-23_12h53.02.731,multiplicationStroop,2021.2.3,Win32,299.2220227,,,,,,,,,,,,,,,,,,,,,,,,,,,,,,,,,,,,,,,,,,,,,,,,,,,,,,,,,
,,,,left,1,0.3169,3,8,56,5,1,7,-200,left,734,2022-01-23_12h53.02.731,multiplicationStroop,2021.2.3,Win32,299.2220227,,,,,,,,,,,,,,,,,,,,,,,,,,,,,,,,,,,,,,,,,,,,,,,,,,,,,,,,,
,,,,right,1,0.2706,3,9,57,15,1,9,200,right,734,2022-01-23_12h53.02.731,multiplicationStroop,2021.2.3,Win32,299.2220227,,,,,,,,,,,,,,,,,,,,,,,,,,,,,,,,,,,,,,,,,,,,,,,,,,,,,,,,,
,,,,left,1,0.2315,3,10,58,6,1,8,-200,left,734,2022-01-23_12h53.02.731,multiplicationStroop,2021.2.3,Win32,299.2220227,,,,,,,,,,,,,,,,,,,,,,,,,,,,,,,,,,,,,,,,,,,,,,,,,,,,,,,,,
,,,,right,1,0.2569,3,11,59,9,1,2,200,right,734,2022-01-23_12h53.02.731,multiplicationStroop,2021.2.3,Win32,299.2220227,,,,,,,,,,,,,,,,,,,,,,,,,,,,,,,,,,,,,,,,,,,,,,,,,,,,,,,,,
,,,,left,1,0.2464,3,12,60,1,1,2,-200,left,734,2022-01-23_12h53.02.731,multiplicationStroop,2021.2.3,Win32,299.2220227,,,,,,,,,,,,,,,,,,,,,,,,,,,,,,,,,,,,,,,,,,,,,,,,,,,,,,,,,
,,,,right,1,0.2545,3,13,61,13,1,7,200,right,734,2022-01-23_12h53.02.731,multiplicationStroop,2021.2.3,Win32,299.2220227,,,,,,,,,,,,,,,,,,,,,,,,,,,,,,,,,,,,,,,,,,,,,,,,,,,,,,,,,
,,,,right,1,0.359,3,14,62,10,1,3,200,right,734,2022-01-23_12h53.02.731,multiplicationStroop,2021.2.3,Win32,299.2220227,,,,,,,,,,,,,,,,,,,,,,,,,,,,,,,,,,,,,,,,,,,,,,,,,,,,,,,,,
,,,,left,1,0.2668,3,15,63,0,1,1,-200,left,734,2022-01-23_12h53.02.731,multiplicationStroop,2021.2.3,Win32,299.2220227,,,,,,,,,,,,,,,,,,,,,,,,,,stimulusFile/magnitude.xlsx,,,,,,,,,,,,,,,,,,,,,,,,,,,,,,,
,,,,,,,,,,,,,,,734,2022-01-23_12h53.02.731,multiplicationStroop,2021.2.3,Win32,299.2220227,space,27.8062,space,30.2287,right,1,1.7506,0,0,0,59,1,7,9,7 | 9,2,1.6933,1.6933,neutral,right,,,,,,stimulusFile/magnitude.xlsx,,,,,,,,,,,,,,,,,,,,,,,,,,,,,,,
,,,,,,,,,,,,,,,734,2022-01-23_12h53.02.731,multiplicationStroop,2021.2.3,Win32,299.2220227,,,,,right,1,1.2629,0,1,1,10,1,6,8,6 | 8,2,1.4111,1.9756,congruent,right,,,,,,stimulusFile/magnitude.xlsx,,,,,,,,,,,,,,,,,,,,,,,,,,,,,,,
,,,,,,,,,,,,,,,734,2022-01-23_12h53.02.731,multiplicationStroop,2021.2.3,Win32,299.2220227,,,,,right,1,0.663,0,2,2,16,1,1,6,1 | 6,5,1.4111,1.9756,congruent,right,,,,,,stimulusFile/magnitude.xlsx,,,,,,,,,,,,,,,,,,,,,,,,,,,,,,,
,,,,,,,,,,,,,,,734,2022-01-23_12h53.02.731,multiplicationStroop,2021.2.3,Win32,299.2220227,,,,,left,1,0.9901,0,3,3,36,1,3,1,3 | 1,2,1.4111,1.9756,incongruent,left,,,,,,stimulusFile/magnitude.xlsx,,,,,,,,,,,,,,,,,,,,,,,,,,,,,,,
,,,,,,,,,,,,,,,734,2022-01-23_12h53.02.731,multiplicationStroop,2021.2.3,Win32,299.2220227,,,,,right,1,0.5865,0,4,4,40,1,1,6,1 | 6,5,1.9756,1.4111,incongruent,right,,,,,,stimulusFile/magnitude.xlsx,,,,,,,,,,,,,,,,,,,,,,,,,,,,,,,
,,,,,,,,,,,,,,,734,2022-01-23_12h53.02.731,multiplicationStroop,2021.2.3,Win32,299.2220227,,,,,left,1,0.753,0,5,5,5,1,4,3,4 | 3,1,1.9756,1.4111,congruent,left,,,,,,stimulusFile/magnitude.xlsx,,,,,,,,,,,,,,,,,,,,,,,,,,,,,,,
,,,,,,,,,,,,,,,734,2022-01-23_12h53.02.731,multiplicationStroop,2021.2.3,Win32,299.2220227,,,,,right,1,0.6383,0,6,6,27,1,8,9,8 | 9,1,1.9756,1.4111,incongruent,right,,,,,,stimulusFile/magnitude.xlsx,,,,,,,,,,,,,,,,,,,,,,,,,,,,,,,
,,,,,,,,,,,,,,,734,2022-01-23_12h53.02.731,multiplicationStroop,2021.2.3,Win32,299.2220227,,,,,left,1,0.7204,0,7,7,38,1,8,6,8 | 6,2,1.4111,1.9756,incongruent,left,,,,,,stimulusFile/magnitude.xlsx,,,,,,,,,,,,,,,,,,,,,,,,,,,,,,,
,,,,,,,,,,,,,,,734,2022-01-23_12h53.02.731,multiplicationStroop,2021.2.3,Win32,299.2220227,,,,,right,1,0.6157,0,8,8,34,1,6,8,6 | 8,2,1.9756,1.4111,incongruent,right,,,,,,stimulusFile/magnitude.xlsx,,,,,,,,,,,,,,,,,,,,,,,,,,,,,,,
,,,,,,,,,,,,,,,734,2022-01-23_12h53.02.731,multiplicationStroop,2021.2.3,Win32,299.2220227,,,,,right,1,0.6909,0,9,9,24,1,1,2,1 | 2,1,1.9756,1.4111,incongruent,right,,,,,,stimulusFile/magnitude.xlsx,,,,,,,,,,,,,,,,,,,,,,,,,,,,,,,
,,,,,,,,,,,,,,,734,2022-01-23_12h53.02.731,multiplicationStroop,2021.2.3,Win32,299.2220227,,,,,right,1,0.7865,0,10,10,51,1,8,9,8 | 9,1,1.6933,1.6933,neutral,right,,,,,,stimulusFile/magnitude.xlsx,,,,,,,,,,,,,,,,,,,,,,,,,,,,,,,
,,,,,,,,,,,,,,,734,2022-01-23_12h53.02.731,multiplicationStroop,2021.2.3,Win32,299.2220227,,,,,left,1,0.7607,0,11,11,71,1,9,4,9 | 4,5,1.6933,1.6933,neutral,left,,,,,,stimulusFile/magnitude.xlsx,,,,,,,,,,,,,,,,,,,,,,,,,,,,,,,
,,,,,,,,,,,,,,,734,2022-01-23_12h53.02.731,multiplicationStroop,2021.2.3,Win32,299.2220227,,,,,left,1,0.6782,0,12,12,7,1,9,8,9 | 8,1,1.9756,1.4111,congruent,left,,,,,,stimulusFile/magnitude.xlsx,,,,,,,,,,,,,,,,,,,,,,,,,,,,,,,
,,,,,,,,,,,,,,,734,2022-01-23_12h53.02.731,multiplicationStroop,2021.2.3,Win32,299.2220227,,,,,left,1,0.7566,0,13,13,14,1,8,6,8 | 6,2,1.9756,1.4111,congruent,left,,,,,,stimulusFile/magnitude.xlsx,,,,,,,,,,,,,,,,,,,,,,,,,,,,,,,
,,,,,,,,,,,,,,,734,2022-01-23_12h53.02.731,multiplicationStroop,2021.2.3,Win32,299.2220227,,,,,left,1,0.7282,0,14,14,44,1,6,1,6 | 1,5,1.4111,1.9756,incongruent,left,,,,,,stimulusFile/magnitude.xlsx,,,,,,,,,,,,,,,,,,,,,,,,,,,,,,,
,,,,,,,,,,,,,,,734,2022-01-23_12h53.02.731,multiplicationStroop,2021.2.3,Win32,299.2220227,,,,,right,1,0.68,0,15,15,11,1,7,9,7 | 9,2,1.4111,1.9756,congruent,right,,,,,,stimulusFile/magnitude.xlsx,,,,,,,,,,,,,,,,,,,,,,,,,,,,,,,
,,,,,,,,,,,,,,,734,2022-01-23_12h53.02.731,multiplicationStroop,2021.2.3,Win32,299.2220227,,,,,right,1,0.7662,0,16,16,8,1,1,3,1 | 3,2,1.4111,1.9756,congruent,right,,,,,,stimulusFile/magnitude.xlsx,,,,,,,,,,,,,,,,,,,,,,,,,,,,,,,
,,,,,,,,,,,,,,,734,2022-01-23_12h53.02.731,multiplicationStroop,2021.2.3,Win32,299.2220227,,,,,left,1,0.5864,0,17,17,22,1,8,3,8 | 3,5,1.9756,1.4111,congruent,left,,,,,,stimulusFile/magnitude.xlsx,,,,,,,,,,,,,,,,,,,,,,,,,,,,,,,
,,,,,,,,,,,,,,,734,2022-01-23_12h53.02.731,multiplicationStroop,2021.2.3,Win32,299.2220227,,,,,right,1,0.5497,0,18,18,42,1,3,8,3 | 8,5,1.9756,1.4111,incongruent,right,,,,,,stimulusFile/magnitude.xlsx,,,,,,,,,,,,,,,,,,,,,,,,,,,,,,,
,,,,,,,,,,,,,,,734,2022-01-23_12h53.02.731,multiplicationStroop,2021.2.3,Win32,299.2220227,,,,,left,1,0.8334,0,19,19,54,1,7,6,7 | 6,1,1.6933,1.6933,neutral,left,,,,,,stimulusFile/magnitude.xlsx,,,,,,,,,,,,,,,,,,,,,,,,,,,,,,,
,,,,,,,,,,,,,,,734,2022-01-23_12h53.02.731,multiplicationStroop,2021.2.3,Win32,299.2220227,,,,,right,1,0.497,0,20,20,56,1,1,3,1 | 3,2,1.6933,1.6933,neutral,right,,,,,,stimulusFile/magnitude.xlsx,,,,,,,,,,,,,,,,,,,,,,,,,,,,,,,
,,,,,,,,,,,,,,,734,2022-01-23_12h53.02.731,multiplicationStroop,2021.2.3,Win32,299.2220227,,,,,right,1,0.8276,0,21,21,67,1,4,9,4 | 9,5,1.6933,1.6933,neutral,right,,,,,,stimulusFile/magnitude.xlsx,,,,,,,,,,,,,,,,,,,,,,,,,,,,,,,
,,,,,,,,,,,,,,,734,2022-01-23_12h53.02.731,multiplicationStroop,2021.2.3,Win32,299.2220227,,,,,left,1,0.6037,0,22,22,47,1,9,4,9 | 4,5,1.4111,1.9756,incongruent,left,,,,,,stimulusFile/magnitude.xlsx,,,,,,,,,,,,,,,,,,,,,,,,,,,,,,,
,,,,,,,,,,,,,,,734,2022-01-23_12h53.02.731,multiplicationStroop,2021.2.3,Win32,299.2220227,,,,,right,1,0.5866,0,23,23,66,1,3,8,3 | 8,5,1.6933,1.6933,neutral,right,,,,,,stimulusFile/magnitude.xlsx,,,,,,,,,,,,,,,,,,,,,,,,,,,,,,,
,,,,,,,,,,,,,,,734,2022-01-23_12h53.02.731,multiplicationStroop,2021.2.3,Win32,299.2220227,,,,,right,1,0.7026,0,24,24,33,1,2,4,2 | 4,2,1.9756,1.4111,incongruent,right,,,,,,stimulusFile/magnitude.xlsx,,,,,,,,,,,,,,,,,,,,,,,,,,,,,,,
,,,,,,,,,,,,,,,734,2022-01-23_12h53.02.731,multiplicationStroop,2021.2.3,Win32,299.2220227,,,,,left,1,0.7221,0,25,25,46,1,8,3,8 | 3,5,1.4111,1.9756,incongruent,left,,,,,,stimulusFile/magnitude.xlsx,,,,,,,,,,,,,,,,,,,,,,,,,,,,,,,
,,,,,,,,,,,,,,,734,2022-01-23_12h53.02.731,multiplicationStroop,2021.2.3,Win32,299.2220227,,,,,left,1,0.5831,0,26,26,60,1,3,1,3 | 1,2,1.6933,1.6933,neutral,left,,,,,,stimulusFile/magnitude.xlsx,,,,,,,,,,,,,,,,,,,,,,,,,,,,,,,
,,,,,,,,,,,,,,,734,2022-01-23_12h53.02.731,multiplicationStroop,2021.2.3,Win32,299.2220227,,,,,left,1,0.5673,0,27,27,21,1,7,2,7 | 2,5,1.9756,1.4111,congruent,left,,,,,,stimulusFile/magnitude.xlsx,,,,,,,,,,,,,,,,,,,,,,,,,,,,,,,
,,,,,,,,,,,,,,,734,2022-01-23_12h53.02.731,multiplicationStroop,2021.2.3,Win32,299.2220227,,,,,left,1,0.689,0,28,28,55,1,9,8,9 | 8,1,1.6933,1.6933,neutral,left,,,,,,stimulusFile/magnitude.xlsx,,,,,,,,,,,,,,,,,,,,,,,,,,,,,,,
,,,,,,,,,,,,,,,734,2022-01-23_12h53.02.731,multiplicationStroop,2021.2.3,Win32,299.2220227,,,,,left,1,0.6331,0,29,29,31,1,9,8,9 | 8,1,1.4111,1.9756,incongruent,left,,,,,,stimulusFile/magnitude.xlsx,,,,,,,,,,,,,,,,,,,,,,,,,,,,,,,
,,,,,,,,,,,,,,,734,2022-01-23_12h53.02.731,multiplicationStroop,2021.2.3,Win32,299.2220227,,,,,left,1,0.5996,0,30,30,53,1,4,3,4 | 3,1,1.6933,1.6933,neutral,left,,,,,,stimulusFile/magnitude.xlsx,,,,,,,,,,,,,,,,,,,,,,,,,,,,,,,
,,,,,,,,,,,,,,,734,2022-01-23_12h53.02.731,multiplicationStroop,2021.2.3,Win32,299.2220227,,,,,right,1,0.6196,0,31,31,32,1,1,3,1 | 3,2,1.9756,1.4111,incongruent,right,,,,,,stimulusFile/magnitude.xlsx,,,,,,,,,,,,,,,,,,,,,,,,,,,,,,,
,,,,,,,,,,,,,,,734,2022-01-23_12h53.02.731,multiplicationStroop,2021.2.3,Win32,299.2220227,,,,,right,1,0.8723,0,32,32,49,1,3,4,3 | 4,1,1.6933,1.6933,neutral,right,,,,,,stimulusFile/magnitude.xlsx,,,,,,,,,,,,,,,,,,,,,,,,,,,,,,,
,,,,,,,,,,,,,,,734,2022-01-23_12h53.02.731,multiplicationStroop,2021.2.3,Win32,299.2220227,,,,,right,1,0.4798,0,33,33,1,1,3,4,3 | 4,1,1.4111,1.9756,congruent,right,,,,,,stimulusFile/magnitude.xlsx,,,,,,,,,,,,,,,,,,,,,,,,,,,,,,,
,,,,,,,,,,,,,,,734,2022-01-23_12h53.02.731,multiplicationStroop,2021.2.3,Win32,299.2220227,,,,,right,1,0.6914,0,34,34,43,1,4,9,4 | 9,5,1.9756,1.4111,incongruent,right,,,,,,stimulusFile/magnitude.xlsx,,,,,,,,,,,,,,,,,,,,,,,,,,,,,,,
,,,,,,,,,,,,,,,734,2022-01-23_12h53.02.731,multiplicationStroop,2021.2.3,Win32,299.2220227,,,,,left,1,0.6439,0,35,35,52,1,2,1,2 | 1,1,1.6933,1.6933,neutral,left,,,,,,stimulusFile/magnitude.xlsx,,,,,,,,,,,,,,,,,,,,,,,,,,,,,,,
,,,,,,,,,,,,,,,734,2022-01-23_12h53.02.731,multiplicationStroop,2021.2.3,Win32,299.2220227,,,,,left,1,0.4476,0,36,36,28,1,2,1,2 | 1,1,1.4111,1.9756,incongruent,left,,,,,,stimulusFile/magnitude.xlsx,,,,,,,,,,,,,,,,,,,,,,,,,,,,,,,
,,,,,,,,,,,,,,,734,2022-01-23_12h53.02.731,multiplicationStroop,2021.2.3,Win32,299.2220227,,,,,left,1,0.5366,0,37,37,12,1,3,1,3 | 1,2,1.9756,1.4111,congruent,left,,,,,,stimulusFile/magnitude.xlsx,,,,,,,,,,,,,,,,,,,,,,,,,,,,,,,
,,,,,,,,,,,,,,,734,2022-01-23_12h53.02.731,multiplicationStroop,2021.2.3,Win32,299.2220227,,,,,right,1,0.6177,0,38,38,25,1,3,4,3 | 4,1,1.9756,1.4111,incongruent,right,,,,,,stimulusFile/magnitude.xlsx,,,,,,,,,,,,,,,,,,,,,,,,,,,,,,,
,,,,,,,,,,,,,,,734,2022-01-23_12h53.02.731,multiplicationStroop,2021.2.3,Win32,299.2220227,,,,,left,1,0.7529,0,39,39,30,1,7,6,7 | 6,1,1.4111,1.9756,incongruent,left,,,,,,stimulusFile/magnitude.xlsx,,,,,,,,,,,,,,,,,,,,,,,,,,,,,,,
,,,,,,,,,,,,,,,734,2022-01-23_12h53.02.731,multiplicationStroop,2021.2.3,Win32,299.2220227,,,,,left,1,0.6453,0,40,40,62,1,8,6,8 | 6,2,1.6933,1.6933,neutral,left,,,,,,stimulusFile/magnitude.xlsx,,,,,,,,,,,,,,,,,,,,,,,,,,,,,,,
,,,,,,,,,,,,,,,734,2022-01-23_12h53.02.731,multiplicationStroop,2021.2.3,Win32,299.2220227,,,,,right,1,0.5669,0,41,41,19,1,4,9,4 | 9,5,1.4111,1.9756,congruent,right,,,,,,stimulusFile/magnitude.xlsx,,,,,,,,,,,,,,,,,,,,,,,,,,,,,,,
,,,,,,,,,,,,,,,734,2022-01-23_12h53.02.731,multiplicationStroop,2021.2.3,Win32,299.2220227,,,,,right,1,0.819,0,42,42,58,1,6,8,6 | 8,2,1.6933,1.6933,neutral,right,,,,,,stimulusFile/magnitude.xlsx,,,,,,,,,,,,,,,,,,,,,,,,,,,,,,,
,,,,,,,,,,,,,,,734,2022-01-23_12h53.02.731,multiplicationStroop,2021.2.3,Win32,299.2220227,,,,,right,1,0.8038,0,43,43,35,1,7,9,7 | 9,2,1.9756,1.4111,incongruent,right,,,,,,stimulusFile/magnitude.xlsx,,,,,,,,,,,,,,,,,,,,,,,,,,,,,,,
,,,,,,,,,,,,,,,734,2022-01-23_12h53.02.731,multiplicationStroop,2021.2.3,Win32,299.2220227,,,,,right,1,0.5468,0,44,44,41,1,2,7,2 | 7,5,1.9756,1.4111,incongruent,right,,,,,,stimulusFile/magnitude.xlsx,,,,,,,,,,,,,,,,,,,,,,,,,,,,,,,
,,,,,,,,,,,,,,,734,2022-01-23_12h53.02.731,multiplicationStroop,2021.2.3,Win32,299.2220227,,,,,left,1,0.5973,0,45,45,68,1,6,1,6 | 1,5,1.6933,1.6933,neutral,left,,,,,,stimulusFile/magnitude.xlsx,,,,,,,,,,,,,,,,,,,,,,,,,,,,,,,
,,,,,,,,,,,,,,,734,2022-01-23_12h53.02.731,multiplicationStroop,2021.2.3,Win32,299.2220227,,,,,right,1,0.5641,0,46,46,65,1,2,7,2 | 7,5,1.6933,1.6933,neutral,right,,,,,,stimulusFile/magnitude.xlsx,,,,,,,,,,,,,,,,,,,,,,,,,,,,,,,
,,,,,,,,,,,,,,,734,2022-01-23_12h53.02.731,multiplicationStroop,2021.2.3,Win32,299.2220227,,,,,right,1,0.7859,0,47,47,2,1,6,7,6 | 7,1,1.4111,1.9756,congruent,right,,,,,,stimulusFile/magnitude.xlsx,,,,,,,,,,,,,,,,,,,,,,,,,,,,,,,
,,,,,,,,,,,,,,,734,2022-01-23_12h53.02.731,multiplicationStroop,2021.2.3,Win32,299.2220227,,,,,left,1,0.6159,0,48,48,63,1,9,7,9 | 7,2,1.6933,1.6933,neutral,left,,,,,,stimulusFile/magnitude.xlsx,,,,,,,,,,,,,,,,,,,,,,,,,,,,,,,
,,,,,,,,,,,,,,,734,2022-01-23_12h53.02.731,multiplicationStroop,2021.2.3,Win32,299.2220227,,,,,right,1,0.5441,0,49,49,57,1,2,4,2 | 4,2,1.6933,1.6933,neutral,right,,,,,,stimulusFile/magnitude.xlsx,,,,,,,,,,,,,,,,,,,,,,,,,,,,,,,
,,,,,,,,,,,,,,,734,2022-01-23_12h53.02.731,multiplicationStroop,2021.2.3,Win32,299.2220227,,,,,right,1,0.5448,0,50,50,9,1,2,4,2 | 4,2,1.4111,1.9756,congruent,right,,,,,,stimulusFile/magnitude.xlsx,,,,,,,,,,,,,,,,,,,,,,,,,,,,,,,
,,,,,,,,,,,,,,,734,2022-01-23_12h53.02.731,multiplicationStroop,2021.2.3,Win32,299.2220227,,,,,left,1,0.7212,0,51,51,29,1,4,3,4 | 3,1,1.4111,1.9756,incongruent,left,,,,,,stimulusFile/magnitude.xlsx,,,,,,,,,,,,,,,,,,,,,,,,,,,,,,,
,,,,,,,,,,,,,,,734,2022-01-23_12h53.02.731,multiplicationStroop,2021.2.3,Win32,299.2220227,,,,,right,1,0.5039,0,52,52,64,1,1,6,1 | 6,5,1.6933,1.6933,neutral,right,,,,,,stimulusFile/magnitude.xlsx,,,,,,,,,,,,,,,,,,,,,,,,,,,,,,,
,,,,,,,,,,,,,,,734,2022-01-23_12h53.02.731,multiplicationStroop,2021.2.3,Win32,299.2220227,,,,,right,1,0.9864,0,53,53,26,1,6,7,6 | 7,1,1.9756,1.4111,incongruent,right,,,,,,stimulusFile/magnitude.xlsx,,,,,,,,,,,,,,,,,,,,,,,,,,,,,,,
,,,,,,,,,,,,,,,734,2022-01-23_12h53.02.731,multiplicationStroop,2021.2.3,Win32,299.2220227,,,,,left,1,0.6464,0,54,54,4,1,2,1,2 | 1,1,1.9756,1.4111,congruent,left,,,,,,stimulusFile/magnitude.xlsx,,,,,,,,,,,,,,,,,,,,,,,,,,,,,,,
,,,,,,,,,,,,,,,734,2022-01-23_12h53.02.731,multiplicationStroop,2021.2.3,Win32,299.2220227,,,,,right,1,0.4867,0,55,55,0,1,1,2,1 | 2,1,1.4111,1.9756,congruent,right,,,,,,stimulusFile/magnitude.xlsx,,,,,,,,,,,,,,,,,,,,,,,,,,,,,,,
,,,,,,,,,,,,,,,734,2022-01-23_12h53.02.731,multiplicationStroop,2021.2.3,Win32,299.2220227,,,,,left,1,0.6166,0,56,56,15,1,9,7,9 | 7,2,1.9756,1.4111,congruent,left,,,,,,stimulusFile/magnitude.xlsx,,,,,,,,,,,,,,,,,,,,,,,,,,,,,,,
,,,,,,,,,,,,,,,734,2022-01-23_12h53.02.731,multiplicationStroop,2021.2.3,Win32,299.2220227,,,,,right,1,0.4967,0,57,57,17,1,2,7,2 | 7,5,1.4111,1.9756,congruent,right,,,,,,stimulusFile/magnitude.xlsx,,,,,,,,,,,,,,,,,,,,,,,,,,,,,,,
,,,,,,,,,,,,,,,734,2022-01-23_12h53.02.731,multiplicationStroop,2021.2.3,Win32,299.2220227,,,,,left,1,0.5429,0,58,58,45,1,7,2,7 | 2,5,1.4111,1.9756,incongruent,left,,,,,,stimulusFile/magnitude.xlsx,,,,,,,,,,,,,,,,,,,,,,,,,,,,,,,
,,,,,,,,,,,,,,,734,2022-01-23_12h53.02.731,multiplicationStroop,2021.2.3,Win32,299.2220227,,,,,left,1,0.5873,0,59,59,61,1,4,2,4 | 2,2,1.6933,1.6933,neutral,left,,,,,,stimulusFile/magnitude.xlsx,,,,,,,,,,,,,,,,,,,,,,,,,,,,,,,
,,,,,,,,,,,,,,,734,2022-01-23_12h53.02.731,multiplicationStroop,2021.2.3,Win32,299.2220227,,,,,left,1,0.7128,0,60,60,20,1,6,1,6 | 1,5,1.9756,1.4111,congruent,left,,,,,,stimulusFile/magnitude.xlsx,,,,,,,,,,,,,,,,,,,,,,,,,,,,,,,
,,,,,,,,,,,,,,,734,2022-01-23_12h53.02.731,multiplicationStroop,2021.2.3,Win32,299.2220227,,,,,left,1,0.6897,0,61,61,13,1,4,2,4 | 2,2,1.9756,1.4111,congruent,left,,,,,,stimulusFile/magnitude.xlsx,,,,,,,,,,,,,,,,,,,,,,,,,,,,,,,
,,,,,,,,,,,,,,,734,2022-01-23_12h53.02.731,multiplicationStroop,2021.2.3,Win32,299.2220227,,,,,left,1,0.6128,0,62,62,6,1,7,6,7 | 6,1,1.9756,1.4111,congruent,left,,,,,,stimulusFile/magnitude.xlsx,,,,,,,,,,,,,,,,,,,,,,,,,,,,,,,
,,,,,,,,,,,,,,,734,2022-01-23_12h53.02.731,multiplicationStroop,2021.2.3,Win32,299.2220227,,,,,left,1,0.5953,0,63,63,23,1,9,4,9 | 4,5,1.9756,1.4111,congruent,left,,,,,,stimulusFile/magnitude.xlsx,,,,,,,,,,,,,,,,,,,,,,,,,,,,,,,
,,,,,,,,,,,,,,,734,2022-01-23_12h53.02.731,multiplicationStroop,2021.2.3,Win32,299.2220227,,,,,right,1,0.4993,0,64,64,3,1,8,9,8 | 9,1,1.4111,1.9756,congruent,right,,,,,,stimulusFile/magnitude.xlsx,,,,,,,,,,,,,,,,,,,,,,,,,,,,,,,
,,,,,,,,,,,,,,,734,2022-01-23_12h53.02.731,multiplicationStroop,2021.2.3,Win32,299.2220227,,,,,right,1,0.6729,0,65,65,50,1,6,7,6 | 7,1,1.6933,1.6933,neutral,right,,,,,,stimulusFile/magnitude.xlsx,,,,,,,,,,,,,,,,,,,,,,,,,,,,,,,
,,,,,,,,,,,,,,,734,2022-01-23_12h53.02.731,multiplicationStroop,2021.2.3,Win32,299.2220227,,,,,left,1,0.6232,0,66,66,69,1,7,2,7 | 2,5,1.6933,1.6933,neutral,left,,,,,,stimulusFile/magnitude.xlsx,,,,,,,,,,,,,,,,,,,,,,,,,,,,,,,
,,,,,,,,,,,,,,,734,2022-01-23_12h53.02.731,multiplicationStroop,2021.2.3,Win32,299.2220227,,,,,left,1,0.6772,0,67,67,70,1,8,3,8 | 3,5,1.6933,1.6933,neutral,left,,,,,,stimulusFile/magnitude.xlsx,,,,,,,,,,,,,,,,,,,,,,,,,,,,,,,
,,,,,,,,,,,,,,,734,2022-01-23_12h53.02.731,multiplicationStroop,2021.2.3,Win32,299.2220227,,,,,right,1,0.6172,0,68,68,48,1,1,2,1 | 2,1,1.6933,1.6933,neutral,right,,,,,,stimulusFile/magnitude.xlsx,,,,,,,,,,,,,,,,,,,,,,,,,,,,,,,
,,,,,,,,,,,,,,,734,2022-01-23_12h53.02.731,multiplicationStroop,2021.2.3,Win32,299.2220227,,,,,right,1,0.5572,0,69,69,18,1,3,8,3 | 8,5,1.4111,1.9756,congruent,right,,,,,,stimulusFile/magnitude.xlsx,,,,,,,,,,,,,,,,,,,,,,,,,,,,,,,
,,,,,,,,,,,,,,,734,2022-01-23_12h53.02.731,multiplicationStroop,2021.2.3,Win32,299.2220227,,,,,left,1,0.6533,0,70,70,37,1,4,2,4 | 2,2,1.4111,1.9756,incongruent,left,,,,,,stimulusFile/magnitude.xlsx,,,,,,,,,,,,,,,,,,,,,,,,,,,,,,,
,,,,,,,,,,,,,,,734,2022-01-23_12h53.02.731,multiplicationStroop,2021.2.3,Win32,299.2220227,,,,,left,1,0.5855,0,71,71,39,1,9,7,9 | 7,2,1.4111,1.9756,incongruent,left,,,,,,stimulusFile/magnitude.xlsx,,,,,,,,,,,,,,,,,,,,,,,,,,,,,,,
,,,,,,,,,,,,,,,734,2022-01-23_12h53.02.731,multiplicationStroop,2021.2.3,Win32,299.2220227,,,,,,,,,,,,,,,,,,,,,0,0,0,0,1,stimulusFile/magnitude.xlsx,NUMERICALLY larger (larger coefficient).,images/numericallyLarger.png,,,,,,,,,,,,,,,,,,,,,,,,,,,,,
,,,,,,,,,,,,,,,734,2022-01-23_12h53.02.731,multiplicationStroop,2021.2.3,Win32,299.2220227,space,7.3411,space,6.4576,left,1,1.0594,0,0,0,26,1,6,7,6 | 7,1,1.9756,1.4111,incongruent,left,,,,,,stimulusFile/physical.xlsx,,,,,,,,,,,,,,,,,,,,,,,,,,,,,,,
,,,,,,,,,,,,,,,734,2022-01-23_12h53.02.731,multiplicationStroop,2021.2.3,Win32,299.2220227,,,,,right,1,0.5335,0,1,1,47,1,9,4,9 | 4,5,1.4111,1.9756,incongruent,right,,,,,,stimulusFile/physical.xlsx,,,,,,,,,,,,,,,,,,,,,,,,,,,,,,,
,,,,,,,,,,,,,,,734,2022-01-23_12h53.02.731,multiplicationStroop,2021.2.3,Win32,299.2220227,,,,,left,1,0.5178,0,2,2,22,1,8,3,8 | 3,5,1.9756,1.4111,congruent,left,,,,,,stimulusFile/physical.xlsx,,,,,,,,,,,,,,,,,,,,,,,,,,,,,,,
,,,,,,,,,,,,,,,734,2022-01-23_12h53.02.731,multiplicationStroop,2021.2.3,Win32,299.2220227,,,,,left,1,0.9328,0,3,3,23,1,9,4,9 | 4,5,1.9756,1.4111,congruent,left,,,,,,stimulusFile/physical.xlsx,,,,,,,,,,,,,,,,,,,,,,,,,,,,,,,
,,,,,,,,,,,,,,,734,2022-01-23_12h53.02.731,multiplicationStroop,2021.2.3,Win32,299.2220227,,,,,left,1,0.5376,0,4,4,5,1,4,3,4 | 3,1,1.9756,1.4111,congruent,left,,,,,,stimulusFile/physical.xlsx,,,,,,,,,,,,,,,,,,,,,,,,,,,,,,,
,,,,,,,,,,,,,,,734,2022-01-23_12h53.02.731,multiplicationStroop,2021.2.3,Win32,299.2220227,,,,,right,1,0.466,0,5,5,2,1,6,7,6 | 7,1,1.4111,1.9756,congruent,right,,,,,,stimulusFile/physical.xlsx,,,,,,,,,,,,,,,,,,,,,,,,,,,,,,,
,,,,,,,,,,,,,,,734,2022-01-23_12h53.02.731,multiplicationStroop,2021.2.3,Win32,299.2220227,,,,,left,1,0.5896,0,6,6,55,1,9,9,9 | 9,0,1.9756,1.4111,neutral,left,,,,,,stimulusFile/physical.xlsx,,,,,,,,,,,,,,,,,,,,,,,,,,,,,,,
,,,,,,,,,,,,,,,734,2022-01-23_12h53.02.731,multiplicationStroop,2021.2.3,Win32,299.2220227,,,,,right,1,0.4833,0,7,7,58,1,6,6,6 | 6,0,1.4111,1.9756,neutral,right,,,,,,stimulusFile/physical.xlsx,,,,,,,,,,,,,,,,,,,,,,,,,,,,,,,
,,,,,,,,,,,,,,,734,2022-01-23_12h53.02.731,multiplicationStroop,2021.2.3,Win32,299.2220227,,,,,right,1,0.5033,0,8,8,62,1,8,8,8 | 8,0,1.4111,1.9756,neutral,right,,,,,,stimulusFile/physical.xlsx,,,,,,,,,,,,,,,,,,,,,,,,,,,,,,,
,,,,,,,,,,,,,,,734,2022-01-23_12h53.02.731,multiplicationStroop,2021.2.3,Win32,299.2220227,,,,,right,1,0.4969,0,9,9,10,1,6,8,6 | 8,2,1.4111,1.9756,congruent,right,,,,,,stimulusFile/physical.xlsx,,,,,,,,,,,,,,,,,,,,,,,,,,,,,,,
,,,,,,,,,,,,,,,734,2022-01-23_12h53.02.731,multiplicationStroop,2021.2.3,Win32,299.2220227,,,,,right,1,1.0731,0,10,10,28,1,2,1,2 | 1,1,1.4111,1.9756,incongruent,right,,,,,,stimulusFile/physical.xlsx,,,,,,,,,,,,,,,,,,,,,,,,,,,,,,,
,,,,,,,,,,,,,,,734,2022-01-23_12h53.02.731,multiplicationStroop,2021.2.3,Win32,299.2220227,,,,,right,1,0.5303,0,11,11,18,1,3,8,3 | 8,5,1.4111,1.9756,congruent,right,,,,,,stimulusFile/physical.xlsx,,,,,,,,,,,,,,,,,,,,,,,,,,,,,,,
,,,,,,,,,,,,,,,734,2022-01-23_12h53.02.731,multiplicationStroop,2021.2.3,Win32,299.2220227,,,,,left,1,0.4934,0,12,12,49,1,3,3,3 | 3,0,1.9756,1.4111,neutral,left,,,,,,stimulusFile/physical.xlsx,,,,,,,,,,,,,,,,,,,,,,,,,,,,,,,
,,,,,,,,,,,,,,,734,2022-01-23_12h53.02.731,multiplicationStroop,2021.2.3,Win32,299.2220227,,,,,left,1,0.6375,0,13,13,68,1,6,6,6 | 6,0,1.9756,1.4111,neutral,left,,,,,,stimulusFile/physical.xlsx,,,,,,,,,,,,,,,,,,,,,,,,,,,,,,,
,,,,,,,,,,,,,,,734,2022-01-23_12h53.02.731,multiplicationStroop,2021.2.3,Win32,299.2220227,,,,,right,1,0.6898,0,14,14,44,1,6,1,6 | 1,5,1.4111,1.9756,incongruent,right,,,,,,stimulusFile/physical.xlsx,,,,,,,,,,,,,,,,,,,,,,,,,,,,,,,
,,,,,,,,,,,,,,,734,2022-01-23_12h53.02.731,multiplicationStroop,2021.2.3,Win32,299.2220227,,,,,left,1,0.5435,0,15,15,53,1,4,4,4 | 4,0,1.9756,1.4111,neutral,left,,,,,,stimulusFile/physical.xlsx,,,,,,,,,,,,,,,,,,,,,,,,,,,,,,,
,,,,,,,,,,,,,,,734,2022-01-23_12h53.02.731,multiplicationStroop,2021.2.3,Win32,299.2220227,,,,,left,1,0.4836,0,16,16,50,1,6,6,6 | 6,0,1.9756,1.4111,neutral,left,,,,,,stimulusFile/physical.xlsx,,,,,,,,,,,,,,,,,,,,,,,,,,,,,,,
,,,,,,,,,,,,,,,734,2022-01-23_12h53.02.731,multiplicationStroop,2021.2.3,Win32,299.2220227,,,,,left,1,0.5603,0,17,17,7,1,9,8,9 | 8,1,1.9756,1.4111,congruent,left,,,,,,stimulusFile/physical.xlsx,,,,,,,,,,,,,,,,,,,,,,,,,,,,,,,
,,,,,,,,,,,,,,,734,2022-01-23_12h53.02.731,multiplicationStroop,2021.2.3,Win32,299.2220227,,,,,right,1,0.4927,0,18,18,59,1,7,7,7 | 7,0,1.4111,1.9756,neutral,right,,,,,,stimulusFile/physical.xlsx,,,,,,,,,,,,,,,,,,,,,,,,,,,,,,,
,,,,,,,,,,,,,,,734,2022-01-23_12h53.02.731,multiplicationStroop,2021.2.3,Win32,299.2220227,,,,,left,1,0.6608,0,19,19,35,1,7,9,7 | 9,2,1.9756,1.4111,incongruent,left,,,,,,stimulusFile/physical.xlsx,,,,,,,,,,,,,,,,,,,,,,,,,,,,,,,
,,,,,,,,,,,,,,,734,2022-01-23_12h53.02.731,multiplicationStroop,2021.2.3,Win32,299.2220227,,,,,right,1,0.46,0,20,20,67,1,4,4,4 | 4,0,1.4111,1.9756,neutral,right,,,,,,stimulusFile/physical.xlsx,,,,,,,,,,,,,,,,,,,,,,,,,,,,,,,
,,,,,,,,,,,,,,,734,2022-01-23_12h53.02.731,multiplicationStroop,2021.2.3,Win32,299.2220227,,,,,left,1,0.8657,0,21,21,43,1,4,9,4 | 9,5,1.9756,1.4111,incongruent,left,,,,,,stimulusFile/physical.xlsx,,,,,,,,,,,,,,,,,,,,,,,,,,,,,,,
,,,,,,,,,,,,,,,734,2022-01-23_12h53.02.731,multiplicationStroop,2021.2.3,Win32,299.2220227,,,,,right,0,0.4569,0,22,22,71,1,9,9,9 | 9,0,1.4111,1.9756,neutral,left,,,,,,stimulusFile/physical.xlsx,,,,,,,,,,,,,,,,,,,,,,,,,,,,,,,
,,,,,,,,,,,,,,,734,2022-01-23_12h53.02.731,multiplicationStroop,2021.2.3,Win32,299.2220227,,,,,left,1,1.1969,0,23,23,15,1,9,7,9 | 7,2,1.9756,1.4111,congruent,left,,,,,,stimulusFile/physical.xlsx,,,,,,,,,,,,,,,,,,,,,,,,,,,,,,,
,,,,,,,,,,,,,,,734,2022-01-23_12h53.02.731,multiplicationStroop,2021.2.3,Win32,299.2220227,,,,,left,1,0.5568,0,24,24,20,1,6,1,6 | 1,5,1.9756,1.4111,congruent,left,,,,,,stimulusFile/physical.xlsx,,,,,,,,,,,,,,,,,,,,,,,,,,,,,,,
,,,,,,,,,,,,,,,734,2022-01-23_12h53.02.731,multiplicationStroop,2021.2.3,Win32,299.2220227,,,,,left,1,0.5402,0,25,25,51,1,8,8,8 | 8,0,1.9756,1.4111,neutral,left,,,,,,stimulusFile/physical.xlsx,,,,,,,,,,,,,,,,,,,,,,,,,,,,,,,
,,,,,,,,,,,,,,,734,2022-01-23_12h53.02.731,multiplicationStroop,2021.2.3,Win32,299.2220227,,,,,left,1,0.4493,0,26,26,4,1,2,1,2 | 1,1,1.9756,1.4111,congruent,left,,,,,,stimulusFile/physical.xlsx,,,,,,,,,,,,,,,,,,,,,,,,,,,,,,,
,,,,,,,,,,,,,,,734,2022-01-23_12h53.02.731,multiplicationStroop,2021.2.3,Win32,299.2220227,,,,,left,1,0.5065,0,27,27,70,1,8,8,8 | 8,0,1.9756,1.4111,neutral,left,,,,,,stimulusFile/physical.xlsx,,,,,,,,,,,,,,,,,,,,,,,,,,,,,,,
,,,,,,,,,,,,,,,734,2022-01-23_12h53.02.731,multiplicationStroop,2021.2.3,Win32,299.2220227,,,,,left,1,0.6504,0,28,28,42,1,3,8,3 | 8,5,1.9756,1.4111,incongruent,left,,,,,,stimulusFile/physical.xlsx,,,,,,,,,,,,,,,,,,,,,,,,,,,,,,,
,,,,,,,,,,,,,,,734,2022-01-23_12h53.02.731,multiplicationStroop,2021.2.3,Win32,299.2220227,,,,,left,1,0.4905,0,29,29,25,1,3,4,3 | 4,1,1.9756,1.4111,incongruent,left,,,,,,stimulusFile/physical.xlsx,,,,,,,,,,,,,,,,,,,,,,,,,,,,,,,
,,,,,,,,,,,,,,,734,2022-01-23_12h53.02.731,multiplicationStroop,2021.2.3,Win32,299.2220227,,,,,left,0,0.4471,0,30,30,66,1,3,3,3 | 3,0,1.9756,1.4111,neutral,right,,,,,,stimulusFile/physical.xlsx,,,,,,,,,,,,,,,,,,,,,,,,,,,,,,,
,,,,,,,,,,,,,,,734,2022-01-23_12h53.02.731,multiplicationStroop,2021.2.3,Win32,299.2220227,,,,,left,1,1.6433,0,31,31,27,1,8,9,8 | 9,1,1.9756,1.4111,incongruent,left,,,,,,stimulusFile/physical.xlsx,,,,,,,,,,,,,,,,,,,,,,,,,,,,,,,
,,,,,,,,,,,,,,,734,2022-01-23_12h53.02.731,multiplicationStroop,2021.2.3,Win32,299.2220227,,,,,right,1,0.5142,0,32,32,9,1,2,4,2 | 4,2,1.4111,1.9756,congruent,right,,,,,,stimulusFile/physical.xlsx,,,,,,,,,,,,,,,,,,,,,,,,,,,,,,,
,,,,,,,,,,,,,,,734,2022-01-23_12h53.02.731,multiplicationStroop,2021.2.3,Win32,299.2220227,,,,,right,1,0.6247,0,33,33,36,1,3,1,3 | 1,2,1.4111,1.9756,incongruent,right,,,,,,stimulusFile/physical.xlsx,,,,,,,,,,,,,,,,,,,,,,,,,,,,,,,
,,,,,,,,,,,,,,,734,2022-01-23_12h53.02.731,multiplicationStroop,2021.2.3,Win32,299.2220227,,,,,left,1,0.5064,0,34,34,13,1,4,2,4 | 2,2,1.9756,1.4111,congruent,left,,,,,,stimulusFile/physical.xlsx,,,,,,,,,,,,,,,,,,,,,,,,,,,,,,,
,,,,,,,,,,,,,,,734,2022-01-23_12h53.02.731,multiplicationStroop,2021.2.3,Win32,299.2220227,,,,,right,1,0.4381,0,35,35,61,1,4,4,4 | 4,0,1.4111,1.9756,neutral,right,,,,,,stimulusFile/physical.xlsx,,,,,,,,,,,,,,,,,,,,,,,,,,,,,,,
,,,,,,,,,,,,,,,734,2022-01-23_12h53.02.731,multiplicationStroop,2021.2.3,Win32,299.2220227,,,,,right,1,0.475,0,36,36,0,1,1,2,1 | 2,1,1.4111,1.9756,congruent,right,,,,,,stimulusFile/physical.xlsx,,,,,,,,,,,,,,,,,,,,,,,,,,,,,,,
,,,,,,,,,,,,,,,734,2022-01-23_12h53.02.731,multiplicationStroop,2021.2.3,Win32,299.2220227,,,,,right,1,0.5544,0,37,37,45,1,7,2,7 | 2,5,1.4111,1.9756,incongruent,right,,,,,,stimulusFile/physical.xlsx,,,,,,,,,,,,,,,,,,,,,,,,,,,,,,,
,,,,,,,,,,,,,,,734,2022-01-23_12h53.02.731,multiplicationStroop,2021.2.3,Win32,299.2220227,,,,,left,1,0.6145,0,38,38,34,1,6,8,6 | 8,2,1.9756,1.4111,incongruent,left,,,,,,stimulusFile/physical.xlsx,,,,,,,,,,,,,,,,,,,,,,,,,,,,,,,
,,,,,,,,,,,,,,,734,2022-01-23_12h53.02.731,multiplicationStroop,2021.2.3,Win32,299.2220227,,,,,left,1,0.5699,0,39,39,33,1,2,4,2 | 4,2,1.9756,1.4111,incongruent,left,,,,,,stimulusFile/physical.xlsx,,,,,,,,,,,,,,,,,,,,,,,,,,,,,,,
,,,,,,,,,,,,,,,734,2022-01-23_12h53.02.731,multiplicationStroop,2021.2.3,Win32,299.2220227,,,,,left,1,0.544,0,40,40,40,1,1,6,1 | 6,5,1.9756,1.4111,incongruent,left,,,,,,stimulusFile/physical.xlsx,,,,,,,,,,,,,,,,,,,,,,,,,,,,,,,
,,,,,,,,,,,,,,,734,2022-01-23_12h53.02.731,multiplicationStroop,2021.2.3,Win32,299.2220227,,,,,right,1,0.4463,0,41,41,57,1,2,2,2 | 2,0,1.4111,1.9756,neutral,right,,,,,,stimulusFile/physical.xlsx,,,,,,,,,,,,,,,,,,,,,,,,,,,,,,,
,,,,,,,,,,,,,,,734,2022-01-23_12h53.02.731,multiplicationStroop,2021.2.3,Win32,299.2220227,,,,,right,1,0.517,0,42,42,16,1,1,6,1 | 6,5,1.4111,1.9756,congruent,right,,,,,,stimulusFile/physical.xlsx,,,,,,,,,,,,,,,,,,,,,,,,,,,,,,,
,,,,,,,,,,,,,,,734,2022-01-23_12h53.02.731,multiplicationStroop,2021.2.3,Win32,299.2220227,,,,,right,1,0.6078,0,43,43,60,1,3,3,3 | 3,0,1.4111,1.9756,neutral,right,,,,,,stimulusFile/physical.xlsx,,,,,,,,,,,,,,,,,,,,,,,,,,,,,,,
,,,,,,,,,,,,,,,734,2022-01-23_12h53.02.731,multiplicationStroop,2021.2.3,Win32,299.2220227,,,,,right,1,0.4713,0,44,44,46,1,8,3,8 | 3,5,1.4111,1.9756,incongruent,right,,,,,,stimulusFile/physical.xlsx,,,,,,,,,,,,,,,,,,,,,,,,,,,,,,,
,,,,,,,,,,,,,,,734,2022-01-23_12h53.02.731,multiplicationStroop,2021.2.3,Win32,299.2220227,,,,,right,0,0.4932,0,45,45,69,1,7,7,7 | 7,0,1.4111,1.9756,neutral,left,,,,,,stimulusFile/physical.xlsx,,,,,,,,,,,,,,,,,,,,,,,,,,,,,,,
,,,,,,,,,,,,,,,734,2022-01-23_12h53.02.731,multiplicationStroop,2021.2.3,Win32,299.2220227,,,,,left,1,0.4499,0,46,46,6,1,7,6,7 | 6,1,1.9756,1.4111,congruent,left,,,,,,stimulusFile/physical.xlsx,,,,,,,,,,,,,,,,,,,,,,,,,,,,,,,
,,,,,,,,,,,,,,,734,2022-01-23_12h53.02.731,multiplicationStroop,2021.2.3,Win32,299.2220227,,,,,right,1,0.4691,0,47,47,38,1,8,6,8 | 6,2,1.4111,1.9756,incongruent,right,,,,,,stimulusFile/physical.xlsx,,,,,,,,,,,,,,,,,,,,,,,,,,,,,,,
,,,,,,,,,,,,,,,734,2022-01-23_12h53.02.731,multiplicationStroop,2021.2.3,Win32,299.2220227,,,,,left,0,0.4716,0,48,48,64,1,1,1,1 | 1,0,1.9756,1.4111,neutral,right,,,,,,stimulusFile/physical.xlsx,,,,,,,,,,,,,,,,,,,,,,,,,,,,,,,
,,,,,,,,,,,,,,,734,2022-01-23_12h53.02.731,multiplicationStroop,2021.2.3,Win32,299.2220227,,,,,left,1,0.5344,0,49,49,14,1,8,6,8 | 6,2,1.9756,1.4111,congruent,left,,,,,,stimulusFile/physical.xlsx,,,,,,,,,,,,,,,,,,,,,,,,,,,,,,,
,,,,,,,,,,,,,,,734,2022-01-23_12h53.02.731,multiplicationStroop,2021.2.3,Win32,299.2220227,,,,,left,1,0.5765,0,50,50,32,1,1,3,1 | 3,2,1.9756,1.4111,incongruent,left,,,,,,stimulusFile/physical.xlsx,,,,,,,,,,,,,,,,,,,,,,,,,,,,,,,
,,,,,,,,,,,,,,,734,2022-01-23_12h53.02.731,multiplicationStroop,2021.2.3,Win32,299.2220227,,,,,left,1,0.8238,0,51,51,24,1,1,2,1 | 2,1,1.9756,1.4111,incongruent,left,,,,,,stimulusFile/physical.xlsx,,,,,,,,,,,,,,,,,,,,,,,,,,,,,,,
,,,,,,,,,,,,,,,734,2022-01-23_12h53.02.731,multiplicationStroop,2021.2.3,Win32,299.2220227,,,,,right,1,0.4932,0,52,52,17,1,2,7,2 | 7,5,1.4111,1.9756,congruent,right,,,,,,stimulusFile/physical.xlsx,,,,,,,,,,,,,,,,,,,,,,,,,,,,,,,
,,,,,,,,,,,,,,,734,2022-01-23_12h53.02.731,multiplicationStroop,2021.2.3,Win32,299.2220227,,,,,right,1,0.4771,0,53,53,37,1,4,2,4 | 2,2,1.4111,1.9756,incongruent,right,,,,,,stimulusFile/physical.xlsx,,,,,,,,,,,,,,,,,,,,,,,,,,,,,,,
,,,,,,,,,,,,,,,734,2022-01-23_12h53.02.731,multiplicationStroop,2021.2.3,Win32,299.2220227,,,,,left,1,0.4581,0,54,54,54,1,7,7,7 | 7,0,1.9756,1.4111,neutral,left,,,,,,stimulusFile/physical.xlsx,,,,,,,,,,,,,,,,,,,,,,,,,,,,,,,
,,,,,,,,,,,,,,,734,2022-01-23_12h53.02.731,multiplicationStroop,2021.2.3,Win32,299.2220227,,,,,right,1,0.7932,0,55,55,29,1,4,3,4 | 3,1,1.4111,1.9756,incongruent,right,,,,,,stimulusFile/physical.xlsx,,,,,,,,,,,,,,,,,,,,,,,,,,,,,,,
,,,,,,,,,,,,,,,734,2022-01-23_12h53.02.731,multiplicationStroop,2021.2.3,Win32,299.2220227,,,,,right,1,0.6195,0,56,56,31,1,9,8,9 | 8,1,1.4111,1.9756,incongruent,right,,,,,,stimulusFile/physical.xlsx,,,,,,,,,,,,,,,,,,,,,,,,,,,,,,,
,,,,,,,,,,,,,,,734,2022-01-23_12h53.02.731,multiplicationStroop,2021.2.3,Win32,299.2220227,,,,,left,1,0.4275,0,57,57,48,1,1,1,1 | 1,0,1.9756,1.4111,neutral,left,,,,,,stimulusFile/physical.xlsx,,,,,,,,,,,,,,,,,,,,,,,,,,,,,,,
,,,,,,,,,,,,,,,734,2022-01-23_12h53.02.731,multiplicationStroop,2021.2.3,Win32,299.2220227,,,,,right,1,0.5411,0,58,58,39,1,9,7,9 | 7,2,1.4111,1.9756,incongruent,right,,,,,,stimulusFile/physical.xlsx,,,,,,,,,,,,,,,,,,,,,,,,,,,,,,,
,,,,,,,,,,,,,,,734,2022-01-23_12h53.02.731,multiplicationStroop,2021.2.3,Win32,299.2220227,,,,,right,1,0.7901,0,59,59,30,1,7,6,7 | 6,1,1.4111,1.9756,incongruent,right,,,,,,stimulusFile/physical.xlsx,,,,,,,,,,,,,,,,,,,,,,,,,,,,,,,
,,,,,,,,,,,,,,,734,2022-01-23_12h53.02.731,multiplicationStroop,2021.2.3,Win32,299.2220227,,,,,left,1,0.5505,0,60,60,41,1,2,7,2 | 7,5,1.9756,1.4111,incongruent,left,,,,,,stimulusFile/physical.xlsx,,,,,,,,,,,,,,,,,,,,,,,,,,,,,,,
,,,,,,,,,,,,,,,734,2022-01-23_12h53.02.731,multiplicationStroop,2021.2.3,Win32,299.2220227,,,,,left,1,0.5867,0,61,61,12,1,3,1,3 | 1,2,1.9756,1.4111,congruent,left,,,,,,stimulusFile/physical.xlsx,,,,,,,,,,,,,,,,,,,,,,,,,,,,,,,
,,,,,,,,,,,,,,,734,2022-01-23_12h53.02.731,multiplicationStroop,2021.2.3,Win32,299.2220227,,,,,right,1,1.5062,0,62,62,56,1,1,1,1 | 1,0,1.4111,1.9756,neutral,right,,,,,,stimulusFile/physical.xlsx,,,,,,,,,,,,,,,,,,,,,,,,,,,,,,,
,,,,,,,,,,,,,,,734,2022-01-23_12h53.02.731,multiplicationStroop,2021.2.3,Win32,299.2220227,,,,,right,1,0.4766,0,63,63,19,1,4,9,4 | 9,5,1.4111,1.9756,congruent,right,,,,,,stimulusFile/physical.xlsx,,,,,,,,,,,,,,,,,,,,,,,,,,,,,,,
,,,,,,,,,,,,,,,734,2022-01-23_12h53.02.731,multiplicationStroop,2021.2.3,Win32,299.2220227,,,,,right,1,0.4837,0,64,64,8,1,1,3,1 | 3,2,1.4111,1.9756,congruent,right,,,,,,stimulusFile/physical.xlsx,,,,,,,,,,,,,,,,,,,,,,,,,,,,,,,
,,,,,,,,,,,,,,,734,2022-01-23_12h53.02.731,multiplicationStroop,2021.2.3,Win32,299.2220227,,,,,left,1,0.5267,0,65,65,21,1,7,2,7 | 2,5,1.9756,1.4111,congruent,left,,,,,,stimulusFile/physical.xlsx,,,,,,,,,,,,,,,,,,,,,,,,,,,,,,,
,,,,,,,,,,,,,,,734,2022-01-23_12h53.02.731,multiplicationStroop,2021.2.3,Win32,299.2220227,,,,,left,1,0.6274,0,66,66,52,1,2,2,2 | 2,0,1.9756,1.4111,neutral,left,,,,,,stimulusFile/physical.xlsx,,,,,,,,,,,,,,,,,,,,,,,,,,,,,,,
,,,,,,,,,,,,,,,734,2022-01-23_12h53.02.731,multiplicationStroop,2021.2.3,Win32,299.2220227,,,,,right,1,1.5801,0,67,67,63,1,9,9,9 | 9,0,1.4111,1.9756,neutral,right,,,,,,stimulusFile/physical.xlsx,,,,,,,,,,,,,,,,,,,,,,,,,,,,,,,
,,,,,,,,,,,,,,,734,2022-01-23_12h53.02.731,multiplicationStroop,2021.2.3,Win32,299.2220227,,,,,right,1,0.5576,0,68,68,1,1,3,4,3 | 4,1,1.4111,1.9756,congruent,right,,,,,,stimulusFile/physical.xlsx,,,,,,,,,,,,,,,,,,,,,,,,,,,,,,,
,,,,,,,,,,,,,,,734,2022-01-23_12h53.02.731,multiplicationStroop,2021.2.3,Win32,299.2220227,,,,,right,1,0.4334,0,69,69,11,1,7,9,7 | 9,2,1.4111,1.9756,congruent,right,,,,,,stimulusFile/physical.xlsx,,,,,,,,,,,,,,,,,,,,,,,,,,,,,,,
,,,,,,,,,,,,,,,734,2022-01-23_12h53.02.731,multiplicationStroop,2021.2.3,Win32,299.2220227,,,,,right,1,0.3971,0,70,70,65,1,2,2,2 | 2,0,1.4111,1.9756,neutral,right,,,,,,stimulusFile/physical.xlsx,,,,,,,,,,,,,,,,,,,,,,,,,,,,,,,
,,,,,,,,,,,,,,,734,2022-01-23_12h53.02.731,multiplicationStroop,2021.2.3,Win32,299.2220227,,,,,right,1,0.3564,0,71,71,3,1,8,9,8 | 9,1,1.4111,1.9756,congruent,right,,,,,,stimulusFile/physical.xlsx,,,,,,,,,,,,,,,,,,,,,,,,,,,,,,,
,,,,,,,,,,,,,,,734,2022-01-23_12h53.02.731,multiplicationStroop,2021.2.3,Win32,299.2220227,,,,,,,,,,,,,,,,,,,,,0,1,1,1,1,stimulusFile/physical.xlsx,PHYSICALLY larger (larger font size).,images/physicallyLarger.png,,,,,,,,,,,,,,,,,,,,,,,,,,,,,
,,,,,,,,,,,,,,,734,2022-01-23_12h53.02.731,multiplicationStroop,2021.2.3,Win32,299.2220227,,,,,,,,,,,,,,,,,,,,,,,,,,,,,space,13.9669,space,1.5841,24,2.3951,0,0,0,0,16,1,7,×,2,7 × 2,neutral,largerFirst,1.5,1.5,14,,,,,,,,
,,,,,,,,,,,,,,,734,2022-01-23_12h53.02.731,multiplicationStroop,2021.2.3,Win32,299.2220227,,,,,,,,,,,,,,,,,,,,,,,,,,,,,,,,,6,3.5567,1,0,1,1,26,1,3,×,2,3 × 2,neutral,largerFirst,1.5,1.5,6,,,,,,,,
,,,,,,,,,,,,,,,734,2022-01-23_12h53.02.731,multiplicationStroop,2021.2.3,Win32,299.2220227,,,,,,,,,,,,,,,,,,,,,,,,,,,,,,,,,15,2.6373,1,0,2,2,5,1,3,×,5,3 × 5,neutral,smallerFirst,1.5,1.5,15,,,,,,,,
,,,,,,,,,,,,,,,734,2022-01-23_12h53.02.731,multiplicationStroop,2021.2.3,Win32,299.2220227,,,,,,,,,,,,,,,,,,,,,,,,,,,,,,,,,24,2.5012,0,0,3,3,23,1,8,×,4,8 × 4,neutral,largerFirst,1.5,1.5,32,,,,,,,,
,,,,,,,,,,,,,,,734,2022-01-23_12h53.02.731,multiplicationStroop,2021.2.3,Win32,299.2220227,,,,,,,,,,,,,,,,,,,,,,,,,,,,,,,,,27,4.8278,1,0,4,4,14,1,9,×,3,9 × 3,neutral,largerFirst,1.5,1.5,27,,,,,,,,
,,,,,,,,,,,,,,,734,2022-01-23_12h53.02.731,multiplicationStroop,2021.2.3,Win32,299.2220227,,,,,,,,,,,,,,,,,,,,,,,,,,,,,,,,,12,1.9076,1,0,5,5,25,1,6,×,2,6 × 2,neutral,largerFirst,1.5,1.5,12,,,,,,,,
,,,,,,,,,,,,,,,734,2022-01-23_12h53.02.731,multiplicationStroop,2021.2.3,Win32,299.2220227,,,,,,,,,,,,,,,,,,,,,,,,,,,,,,,,,45,1.7566,1,0,6,6,10,1,5,×,9,5 × 9,neutral,smallerFirst,1.5,1.5,45,,,,,,,,
,,,,,,,,,,,,,,,734,2022-01-23_12h53.02.731,multiplicationStroop,2021.2.3,Win32,299.2220227,,,,,,,,,,,,,,,,,,,,,,,,,,,,,,,,,48,3.8007,1,0,7,7,15,1,8,×,6,8 × 6,neutral,largerFirst,1.5,1.5,48,,,,,,,,
,,,,,,,,,,,,,,,734,2022-01-23_12h53.02.731,multiplicationStroop,2021.2.3,Win32,299.2220227,,,,,,,,,,,,,,,,,,,,,,,,,,,,,,,,,25,3.3306,1,0,8,8,31,1,5,×,5,5 × 5,neutral,tie,1.5,1.5,25,,,,,,,,
,,,,,,,,,,,,,,,734,2022-01-23_12h53.02.731,multiplicationStroop,2021.2.3,Win32,299.2220227,,,,,,,,,,,,,,,,,,,,,,,,,,,,,,,,,49,2.2839,1,0,9,9,33,1,7,×,7,7 × 7,neutral,tie,1.5,1.5,49,,,,,,,,
,,,,,,,,,,,,,,,734,2022-01-23_12h53.02.731,multiplicationStroop,2021.2.3,Win32,299.2220227,,,,,,,,,,,,,,,,,,,,,,,,,,,,,,,,,81,2.3287,1,0,10,10,35,1,9,×,9,9 × 9,neutral,tie,1.5,1.5,81,,,,,,,,
,,,,,,,,,,,,,,,734,2022-01-23_12h53.02.731,multiplicationStroop,2021.2.3,Win32,299.2220227,,,,,,,,,,,,,,,,,,,,,,,,,,,,,,,,,42,2.0789,1,0,11,11,6,1,6,×,7,6 × 7,neutral,smallerFirst,1.5,1.5,42,,,,,,,,
,,,,,,,,,,,,,,,734,2022-01-23_12h53.02.731,multiplicationStroop,2021.2.3,Win32,299.2220227,,,,,,,,,,,,,,,,,,,,,,,,,,,,,,,,,9,1.5989,1,0,12,12,29,1,3,×,3,3 × 3,neutral,tie,1.5,1.5,9,,,,,,,,
,,,,,,,,,,,,,,,734,2022-01-23_12h53.02.731,multiplicationStroop,2021.2.3,Win32,299.2220227,,,,,,,,,,,,,,,,,,,,,,,,,,,,,,,,,63,3.18,1,0,13,13,12,1,7,×,9,7 × 9,neutral,smallerFirst,1.5,1.5,63,,,,,,,,
,,,,,,,,,,,,,,,734,2022-01-23_12h53.02.731,multiplicationStroop,2021.2.3,Win32,299.2220227,,,,,,,,,,,,,,,,,,,,,,,,,,,,,,,,,40,1.8149,1,0,14,14,24,1,8,×,5,8 × 5,neutral,largerFirst,1.5,1.5,40,,,,,,,,
,,,,,,,,,,,,,,,734,2022-01-23_12h53.02.731,multiplicationStroop,2021.2.3,Win32,299.2220227,,,,,,,,,,,,,,,,,,,,,,,,,,,,,,,,,16,1.9324,1,0,15,15,30,1,4,×,4,4 × 4,neutral,tie,1.5,1.5,16,,,,,,,,
,,,,,,,,,,,,,,,734,2022-01-23_12h53.02.731,multiplicationStroop,2021.2.3,Win32,299.2220227,,,,,,,,,,,,,,,,,,,,,,,,,,,,,,,,,18,2.486,1,0,16,16,18,1,9,×,2,9 × 2,neutral,largerFirst,1.5,1.5,18,,,,,,,,
,,,,,,,,,,,,,,,734,2022-01-23_12h53.02.731,multiplicationStroop,2021.2.3,Win32,299.2220227,,,,,,,,,,,,,,,,,,,,,,,,,,,,,,,,,16,2.1837,1,0,17,17,13,1,2,×,8,2 × 8,neutral,smallerFirst,1.5,1.5,16,,,,,,,,
,,,,,,,,,,,,,,,734,2022-01-23_12h53.02.731,multiplicationStroop,2021.2.3,Win32,299.2220227,,,,,,,,,,,,,,,,,,,,,,,,,,,,,,,,,18,2.1491,1,0,18,18,0,1,3,×,6,3 × 6,neutral,smallerFirst,1.5,1.5,18,,,,,,,,
,,,,,,,,,,,,,,,734,2022-01-23_12h53.02.731,multiplicationStroop,2021.2.3,Win32,299.2220227,,,,,,,,,,,,,,,,,,,,,,,,,,,,,,,,,36,2.6873,1,0,19,19,27,1,9,×,4,9 × 4,neutral,largerFirst,1.5,1.5,36,,,,,,,,
,,,,,,,,,,,,,,,734,2022-01-23_12h53.02.731,multiplicationStroop,2021.2.3,Win32,299.2220227,,,,,,,,,,,,,,,,,,,,,,,,,,,,,,,,,20,1.9158,1,0,20,20,20,1,5,×,4,5 × 4,neutral,largerFirst,1.5,1.5,20,,,,,,,,
,,,,,,,,,,,,,,,734,2022-01-23_12h53.02.731,multiplicationStroop,2021.2.3,Win32,299.2220227,,,,,,,,,,,,,,,,,,,,,,,,,,,,,,,,,21,1.7208,1,0,21,21,8,1,3,×,7,3 × 7,neutral,smallerFirst,1.5,1.5,21,,,,,,,,
,,,,,,,,,,,,,,,734,2022-01-23_12h53.02.731,multiplicationStroop,2021.2.3,Win32,299.2220227,,,,,,,,,,,,,,,,,,,,,,,,,,,,,,,,,35,1.8358,1,0,22,22,1,1,5,×,7,5 × 7,neutral,smallerFirst,1.5,1.5,35,,,,,,,,
,,,,,,,,,,,,,,,734,2022-01-23_12h53.02.731,multiplicationStroop,2021.2.3,Win32,299.2220227,,,,,,,,,,,,,,,,,,,,,,,,,,,,,,,,,54,1.6923,1,0,23,23,7,1,6,×,9,6 × 9,neutral,smallerFirst,1.5,1.5,54,,,,,,,,
,,,,,,,,,,,,,,,734,2022-01-23_12h53.02.731,multiplicationStroop,2021.2.3,Win32,299.2220227,,,,,,,,,,,,,,,,,,,,,,,,,,,,,,,,,12,1.7898,1,0,24,24,21,1,4,×,3,4 × 3,neutral,largerFirst,1.5,1.5,12,,,,,,,,
,,,,,,,,,,,,,,,734,2022-01-23_12h53.02.731,multiplicationStroop,2021.2.3,Win32,299.2220227,,,,,,,,,,,,,,,,,,,,,,,,,,,,,,,,,10,1.6569,1,0,25,25,4,1,2,×,5,2 × 5,neutral,smallerFirst,1.5,1.5,10,,,,,,,,
,,,,,,,,,,,,,,,734,2022-01-23_12h53.02.731,multiplicationStroop,2021.2.3,Win32,299.2220227,,,,,,,,,,,,,,,,,,,,,,,,,,,,,,,,,28,1.8989,1,0,26,26,17,1,7,×,4,7 × 4,neutral,largerFirst,1.5,1.5,28,,,,,,,,
,,,,,,,,,,,,,,,734,2022-01-23_12h53.02.731,multiplicationStroop,2021.2.3,Win32,299.2220227,,,,,,,,,,,,,,,,,,,,,,,,,,,,,,,,,36,1.9513,1,0,27,27,32,1,6,×,6,6 × 6,neutral,tie,1.5,1.5,36,,,,,,,,
,,,,,,,,,,,,,,,734,2022-01-23_12h53.02.731,multiplicationStroop,2021.2.3,Win32,299.2220227,,,,,,,,,,,,,,,,,,,,,,,,,,,,,,,,,24,2.4756,1,0,28,28,2,1,4,×,6,4 × 6,neutral,smallerFirst,1.5,1.5,24,,,,,,,,
,,,,,,,,,,,,,,,734,2022-01-23_12h53.02.731,multiplicationStroop,2021.2.3,Win32,299.2220227,,,,,,,,,,,,,,,,,,,,,,,,,,,,,,,,,72,3.7733,1,0,29,29,11,1,8,×,9,8 × 9,neutral,smallerFirst,1.5,1.5,72,,,,,,,,
,,,,,,,,,,,,,,,734,2022-01-23_12h53.02.731,multiplicationStroop,2021.2.3,Win32,299.2220227,,,,,,,,,,,,,,,,,,,,,,,,,,,,,,,,,64,1.993,1,0,30,30,34,1,8,×,8,8 × 8,neutral,tie,1.5,1.5,64,,,,,,,,
,,,,,,,,,,,,,,,734,2022-01-23_12h53.02.731,multiplicationStroop,2021.2.3,Win32,299.2220227,,,,,,,,,,,,,,,,,,,,,,,,,,,,,,,,,30,1.7627,1,0,31,31,19,1,6,×,5,6 × 5,neutral,largerFirst,1.5,1.5,30,,,,,,,,
,,,,,,,,,,,,,,,734,2022-01-23_12h53.02.731,multiplicationStroop,2021.2.3,Win32,299.2220227,,,,,,,,,,,,,,,,,,,,,,,,,,,,,,,,,8,1.487,1,0,32,32,3,1,2,×,4,2 × 4,neutral,smallerFirst,1.5,1.5,8,,,,,,,,
,,,,,,,,,,,,,,,734,2022-01-23_12h53.02.731,multiplicationStroop,2021.2.3,Win32,299.2220227,,,,,,,,,,,,,,,,,,,,,,,,,,,,,,,,,4,1.3333,1,0,33,33,28,1,2,×,2,2 × 2,neutral,tie,1.5,1.5,4,,,,,,,,
,,,,,,,,,,,,,,,734,2022-01-23_12h53.02.731,multiplicationStroop,2021.2.3,Win32,299.2220227,,,,,,,,,,,,,,,,,,,,,,,,,,,,,,,,,24,2.61,1,0,34,34,22,1,8,×,3,8 × 3,neutral,largerFirst,1.5,1.5,24,,,,,,,,
,,,,,,,,,,,,,,,734,2022-01-23_12h53.02.731,multiplicationStroop,2021.2.3,Win32,299.2220227,,,,,,,,,,,,,,,,,,,,,,,,,,,,,,,,,56,1.8836,1,0,35,35,9,1,7,×,8,7 × 8,neutral,smallerFirst,1.5,1.5,56,,,,,,,,
,,,,,,,,,,,,,,,734,2022-01-23_12h53.02.731,multiplicationStroop,2021.2.3,Win32,299.2220227,,,,,,,,,,,,,,,,,,,,,,,,,,,,,,,,,,,,,,,,,,,,,,,,,,0,0,0,1,1,stimulusFile/mult_blk2.xlsx,,
,,,,,,,,,,,,,,,734,2022-01-23_12h53.02.731,multiplicationStroop,2021.2.3,Win32,299.2220227,,,,,,,,,,,,,,,,,,,,,,,,,,,,,,,space,1.5694,24,2.2221,1,0,0,0,6,1,4,×,6,4 × 6,incongruent,smallerFirst,2,1,24,,,,,,,,
,,,,,,,,,,,,,,,734,2022-01-23_12h53.02.731,multiplicationStroop,2021.2.3,Win32,299.2220227,,,,,,,,,,,,,,,,,,,,,,,,,,,,,,,,,9,1.4079,1,0,1,1,29,1,3,×,3,3 × 3,neutral,tie,2,1,9,,,,,,,,
,,,,,,,,,,,,,,,734,2022-01-23_12h53.02.731,multiplicationStroop,2021.2.3,Win32,299.2220227,,,,,,,,,,,,,,,,,,,,,,,,,,,,,,,,,35,2.3294,1,0,2,2,26,1,7,×,5,7 × 5,incongruent,largerFirst,1,2,35,,,,,,,,
,,,,,,,,,,,,,,,734,2022-01-23_12h53.02.731,multiplicationStroop,2021.2.3,Win32,299.2220227,,,,,,,,,,,,,,,,,,,,,,,,,,,,,,,,,28,2.5614,1,0,3,3,2,1,4,×,7,4 × 7,incongruent,smallerFirst,2,1,28,,,,,,,,
,,,,,,,,,,,,,,,734,2022-01-23_12h53.02.731,multiplicationStroop,2021.2.3,Win32,299.2220227,,,,,,,,,,,,,,,,,,,,,,,,,,,,,,,,,24,1.7473,1,0,4,4,23,1,8,×,3,8 × 3,incongruent,largerFirst,1,2,24,,,,,,,,
,,,,,,,,,,,,,,,734,2022-01-23_12h53.02.731,multiplicationStroop,2021.2.3,Win32,299.2220227,,,,,,,,,,,,,,,,,,,,,,,,,,,,,,,,,45,1.7385,1,0,5,5,8,1,5,×,9,5 × 9,incongruent,smallerFirst,2,1,45,,,,,,,,
,,,,,,,,,,,,,,,734,2022-01-23_12h53.02.731,multiplicationStroop,2021.2.3,Win32,299.2220227,,,,,,,,,,,,,,,,,,,,,,,,,,,,,,,,,36,1.9285,1,0,6,6,32,1,6,×,6,6 × 6,neutral,tie,2,1,36,,,,,,,,
,,,,,,,,,,,,,,,734,2022-01-23_12h53.02.731,multiplicationStroop,2021.2.3,Win32,299.2220227,,,,,,,,,,,,,,,,,,,,,,,,,,,,,,,,,18,2.0652,1,0,7,7,16,1,9,×,2,9 × 2,incongruent,largerFirst,1,2,18,,,,,,,,
,,,,,,,,,,,,,,,734,2022-01-23_12h53.02.731,multiplicationStroop,2021.2.3,Win32,299.2220227,,,,,,,,,,,,,,,,,,,,,,,,,,,,,,,,,54,2.4695,1,0,8,8,20,1,9,×,6,9 × 6,incongruent,largerFirst,1,2,54,,,,,,,,
,,,,,,,,,,,,,,,734,2022-01-23_12h53.02.731,multiplicationStroop,2021.2.3,Win32,299.2220227,,,,,,,,,,,,,,,,,,,,,,,,,,,,,,,,,25,1.5483,1,0,9,9,31,1,5,×,5,5 × 5,neutral,tie,2,1,25,,,,,,,,
,,,,,,,,,,,,,,,734,2022-01-23_12h53.02.731,multiplicationStroop,2021.2.3,Win32,299.2220227,,,,,,,,,,,,,,,,,,,,,,,,,,,,,,,,,27,1.9647,1,0,10,10,4,1,3,×,9,3 × 9,incongruent,smallerFirst,2,1,27,,,,,,,,
,,,,,,,,,,,,,,,734,2022-01-23_12h53.02.731,multiplicationStroop,2021.2.3,Win32,299.2220227,,,,,,,,,,,,,,,,,,,,,,,,,,,,,,,,,64,2.2017,1,0,11,11,34,1,8,×,8,8 × 8,neutral,tie,2,1,64,,,,,,,,
,,,,,,,,,,,,,,,734,2022-01-23_12h53.02.731,multiplicationStroop,2021.2.3,Win32,299.2220227,,,,,,,,,,,,,,,,,,,,,,,,,,,,,,,,,48,1.8392,1,0,12,12,15,1,8,×,6,8 × 6,incongruent,largerFirst,1,2,48,,,,,,,,
,,,,,,,,,,,,,,,734,2022-01-23_12h53.02.731,multiplicationStroop,2021.2.3,Win32,299.2220227,,,,,,,,,,,,,,,,,,,,,,,,,,,,,,,,,18,1.828,1,0,13,13,22,1,6,×,3,6 × 3,incongruent,largerFirst,1,2,18,,,,,,,,
,,,,,,,,,,,,,,,734,2022-01-23_12h53.02.731,multiplicationStroop,2021.2.3,Win32,299.2220227,,,,,,,,,,,,,,,,,,,,,,,,,,,,,,,,,56,1.5421,1,0,14,14,0,1,7,×,8,7 × 8,incongruent,smallerFirst,2,1,56,,,,,,,,
,,,,,,,,,,,,,,,734,2022-01-23_12h53.02.731,multiplicationStroop,2021.2.3,Win32,299.2220227,,,,,,,,,,,,,,,,,,,,,,,,,,,,,,,,,42,2.1445,1,0,15,15,3,1,6,×,7,6 × 7,incongruent,smallerFirst,2,1,42,,,,,,,,
,,,,,,,,,,,,,,,734,2022-01-23_12h53.02.731,multiplicationStroop,2021.2.3,Win32,299.2220227,,,,,,,,,,,,,,,,,,,,,,,,,,,,,,,,,16,1.7995,1,0,16,16,9,1,2,×,8,2 × 8,incongruent,smallerFirst,2,1,16,,,,,,,,
,,,,,,,,,,,,,,,734,2022-01-23_12h53.02.731,multiplicationStroop,2021.2.3,Win32,299.2220227,,,,,,,,,,,,,,,,,,,,,,,,,,,,,,,,,81,1.4722,1,0,17,17,35,1,9,×,9,9 × 9,neutral,tie,2,1,81,,,,,,,,
,,,,,,,,,,,,,,,734,2022-01-23_12h53.02.731,multiplicationStroop,2021.2.3,Win32,299.2220227,,,,,,,,,,,,,,,,,,,,,,,,,,,,,,,,,21,1.4482,1,0,18,18,12,1,3,×,7,3 × 7,incongruent,smallerFirst,2,1,21,,,,,,,,
,,,,,,,,,,,,,,,734,2022-01-23_12h53.02.731,multiplicationStroop,2021.2.3,Win32,299.2220227,,,,,,,,,,,,,,,,,,,,,,,,,,,,,,,,,15,1.8353,1,0,19,19,24,1,5,×,3,5 × 3,incongruent,largerFirst,1,2,15,,,,,,,,
,,,,,,,,,,,,,,,734,2022-01-23_12h53.02.731,multiplicationStroop,2021.2.3,Win32,299.2220227,,,,,,,,,,,,,,,,,,,,,,,,,,,,,,,,,12,1.7465,1,0,20,20,5,1,2,×,6,2 × 6,incongruent,smallerFirst,2,1,12,,,,,,,,
,,,,,,,,,,,,,,,734,2022-01-23_12h53.02.731,multiplicationStroop,2021.2.3,Win32,299.2220227,,,,,,,,,,,,,,,,,,,,,,,,,,,,,,,,,72,1.9414,1,0,21,21,14,1,9,×,8,9 × 8,incongruent,largerFirst,1,2,72,,,,,,,,
,,,,,,,,,,,,,,,734,2022-01-23_12h53.02.731,multiplicationStroop,2021.2.3,Win32,299.2220227,,,,,,,,,,,,,,,,,,,,,,,,,,,,,,,,,49,2.354,1,0,22,22,33,1,7,×,7,7 × 7,neutral,tie,2,1,49,,,,,,,,
,,,,,,,,,,,,,,,734,2022-01-23_12h53.02.731,multiplicationStroop,2021.2.3,Win32,299.2220227,,,,,,,,,,,,,,,,,,,,,,,,,,,,,,,,,6,1.3887,1,0,23,23,25,1,3,×,2,3 × 2,incongruent,largerFirst,1,2,6,,,,,,,,
,,,,,,,,,,,,,,,734,2022-01-23_12h53.02.731,multiplicationStroop,2021.2.3,Win32,299.2220227,,,,,,,,,,,,,,,,,,,,,,,,,,,,,,,,,63,2.0299,1,0,24,24,17,1,9,×,7,9 × 7,incongruent,largerFirst,1,2,63,,,,,,,,
,,,,,,,,,,,,,,,734,2022-01-23_12h53.02.731,multiplicationStroop,2021.2.3,Win32,299.2220227,,,,,,,,,,,,,,,,,,,,,,,,,,,,,,,,,20,3.2313,1,0,25,25,13,1,4,×,5,4 × 5,incongruent,smallerFirst,2,1,20,,,,,,,,
,,,,,,,,,,,,,,,734,2022-01-23_12h53.02.731,multiplicationStroop,2021.2.3,Win32,299.2220227,,,,,,,,,,,,,,,,,,,,,,,,,,,,,,,,,36,2.8627,1,0,26,26,1,1,4,×,9,4 × 9,incongruent,smallerFirst,2,1,36,,,,,,,,
,,,,,,,,,,,,,,,734,2022-01-23_12h53.02.731,multiplicationStroop,2021.2.3,Win32,299.2220227,,,,,,,,,,,,,,,,,,,,,,,,,,,,,,,,,30,1.952,1,0,27,27,11,1,5,×,6,5 × 6,incongruent,smallerFirst,2,1,30,,,,,,,,
,,,,,,,,,,,,,,,734,2022-01-23_12h53.02.731,multiplicationStroop,2021.2.3,Win32,299.2220227,,,,,,,,,,,,,,,,,,,,,,,,,,,,,,,,,14,1.569,1,0,28,28,18,1,7,×,2,7 × 2,incongruent,largerFirst,1,2,14,,,,,,,,
,,,,,,,,,,,,,,,734,2022-01-23_12h53.02.731,multiplicationStroop,2021.2.3,Win32,299.2220227,,,,,,,,,,,,,,,,,,,,,,,,,,,,,,,,,32,1.6126,1,0,29,29,21,1,8,×,4,8 × 4,incongruent,largerFirst,1,2,32,,,,,,,,
,,,,,,,,,,,,,,,734,2022-01-23_12h53.02.731,multiplicationStroop,2021.2.3,Win32,299.2220227,,,,,,,,,,,,,,,,,,,,,,,,,,,,,,,,,8,1.5428,1,0,30,30,10,1,2,×,4,2 × 4,incongruent,smallerFirst,2,1,8,,,,,,,,
,,,,,,,,,,,,,,,734,2022-01-23_12h53.02.731,multiplicationStroop,2021.2.3,Win32,299.2220227,,,,,,,,,,,,,,,,,,,,,,,,,,,,,,,,,16,2.3684,1,0,31,31,30,1,4,×,4,4 × 4,neutral,tie,2,1,16,,,,,,,,
,,,,,,,,,,,,,,,734,2022-01-23_12h53.02.731,multiplicationStroop,2021.2.3,Win32,299.2220227,,,,,,,,,,,,,,,,,,,,,,,,,,,,,,,,,4,1.2874,1,0,32,32,28,1,2,×,2,2 × 2,neutral,tie,2,1,4,,,,,,,,
,,,,,,,,,,,,,,,734,2022-01-23_12h53.02.731,multiplicationStroop,2021.2.3,Win32,299.2220227,,,,,,,,,,,,,,,,,,,,,,,,,,,,,,,,,10,1.4888,1,0,33,33,7,1,2,×,5,2 × 5,incongruent,smallerFirst,2,1,10,,,,,,,,
,,,,,,,,,,,,,,,734,2022-01-23_12h53.02.731,multiplicationStroop,2021.2.3,Win32,299.2220227,,,,,,,,,,,,,,,,,,,,,,,,,,,,,,,,,12,1.2756,1,0,34,34,19,1,4,×,3,4 × 3,incongruent,largerFirst,1,2,12,,,,,,,,
,,,,,,,,,,,,,,,734,2022-01-23_12h53.02.731,multiplicationStroop,2021.2.3,Win32,299.2220227,,,,,,,,,,,,,,,,,,,,,,,,,,,,,,,,,40,1.6102,1,0,35,35,27,1,8,×,5,8 × 5,incongruent,largerFirst,1,2,40,,,,,,,,
,,,,,,,,,,,,,,,734,2022-01-23_12h53.02.731,multiplicationStroop,2021.2.3,Win32,299.2220227,,,,,,,,,,,,,,,,,,,,,,,,,,,,,,,,,,,,,,,,,,,,,,,,,,0,1,1,4,1,stimulusFile/mult_blk5_INcongruent.xlsx,,
,,,,,,,,,,,,,,,734,2022-01-23_12h53.02.731,multiplicationStroop,2021.2.3,Win32,299.2220227,,,,,,,,,,,,,,,,,,,,,,,,,,,,,,,space,2.2455,54,1.8686,1,0,0,0,12,1,6,×,9,6 × 9,congruent,smallerFirst,1,2,54,,,,,,,,
,,,,,,,,,,,,,,,734,2022-01-23_12h53.02.731,multiplicationStroop,2021.2.3,Win32,299.2220227,,,,,,,,,,,,,,,,,,,,,,,,,,,,,,,,,15,1.6831,1,0,1,1,4,1,3,×,5,3 × 5,congruent,smallerFirst,1,2,15,,,,,,,,
,,,,,,,,,,,,,,,734,2022-01-23_12h53.02.731,multiplicationStroop,2021.2.3,Win32,299.2220227,,,,,,,,,,,,,,,,,,,,,,,,,,,,,,,,,25,2.3069,1,0,2,2,31,1,5,×,5,5 × 5,neutral,tie,2,1,25,,,,,,,,
,,,,,,,,,,,,,,,734,2022-01-23_12h53.02.731,multiplicationStroop,2021.2.3,Win32,299.2220227,,,,,,,,,,,,,,,,,,,,,,,,,,,,,,,,,45,3.0081,1,0,3,3,23,1,9,×,5,9 × 5,congruent,largerFirst,2,1,45,,,,,,,,
,,,,,,,,,,,,,,,734,2022-01-23_12h53.02.731,multiplicationStroop,2021.2.3,Win32,299.2220227,,,,,,,,,,,,,,,,,,,,,,,,,,,,,,,,,81,1.557,1,0,4,4,35,1,9,×,9,9 × 9,neutral,tie,2,1,81,,,,,,,,
,,,,,,,,,,,,,,,734,2022-01-23_12h53.02.731,multiplicationStroop,2021.2.3,Win32,299.2220227,,,,,,,,,,,,,,,,,,,,,,,,,,,,,,,,,21,1.3911,1,0,5,5,16,1,7,×,3,7 × 3,congruent,largerFirst,2,1,21,,,,,,,,
,,,,,,,,,,,,,,,734,2022-01-23_12h53.02.731,multiplicationStroop,2021.2.3,Win32,299.2220227,,,,,,,,,,,,,,,,,,,,,,,,,,,,,,,,,12,1.2817,1,0,6,6,19,1,6,×,2,6 × 2,congruent,largerFirst,2,1,12,,,,,,,,
,,,,,,,,,,,,,,,734,2022-01-23_12h53.02.731,multiplicationStroop,2021.2.3,Win32,299.2220227,,,,,,,,,,,,,,,,,,,,,,,,,,,,,,,,,16,1.7629,1,0,7,7,5,1,2,×,8,2 × 8,congruent,smallerFirst,1,2,16,,,,,,,,
,,,,,,,,,,,,,,,734,2022-01-23_12h53.02.731,multiplicationStroop,2021.2.3,Win32,299.2220227,,,,,,,,,,,,,,,,,,,,,,,,,,,,,,,,,14,1.4788,1,0,8,8,14,1,7,×,2,7 × 2,congruent,largerFirst,2,1,14,,,,,,,,
,,,,,,,,,,,,,,,734,2022-01-23_12h53.02.731,multiplicationStroop,2021.2.3,Win32,299.2220227,,,,,,,,,,,,,,,,,,,,,,,,,,,,,,,,,35,1.6552,1,0,9,9,1,1,5,×,7,5 × 7,congruent,smallerFirst,1,2,35,,,,,,,,
,,,,,,,,,,,,,,,734,2022-01-23_12h53.02.731,multiplicationStroop,2021.2.3,Win32,299.2220227,,,,,,,,,,,,,,,,,,,,,,,,,,,,,,,,,49,2.3355,1,0,10,10,33,1,7,×,7,7 × 7,neutral,tie,2,1,49,,,,,,,,
,,,,,,,,,,,,,,,734,2022-01-23_12h53.02.731,multiplicationStroop,2021.2.3,Win32,299.2220227,,,,,,,,,,,,,,,,,,,,,,,,,,,,,,,,,56,1.5129,1,0,11,11,8,1,7,×,8,7 × 8,congruent,smallerFirst,1,2,56,,,,,,,,
,,,,,,,,,,,,,,,734,2022-01-23_12h53.02.731,multiplicationStroop,2021.2.3,Win32,299.2220227,,,,,,,,,,,,,,,,,,,,,,,,,,,,,,,,,8,1.5876,1,0,12,12,9,1,2,×,4,2 × 4,congruent,smallerFirst,1,2,8,,,,,,,,
,,,,,,,,,,,,,,,734,2022-01-23_12h53.02.731,multiplicationStroop,2021.2.3,Win32,299.2220227,,,,,,,,,,,,,,,,,,,,,,,,,,,,,,,,,36,1.606,1,0,13,13,32,1,6,×,6,6 × 6,neutral,tie,2,1,36,,,,,,,,
,,,,,,,,,,,,,,,734,2022-01-23_12h53.02.731,multiplicationStroop,2021.2.3,Win32,299.2220227,,,,,,,,,,,,,,,,,,,,,,,,,,,,,,,,,72,1.7578,1,0,14,14,17,1,9,×,8,9 × 8,congruent,largerFirst,2,1,72,,,,,,,,
,,,,,,,,,,,,,,,734,2022-01-23_12h53.02.731,multiplicationStroop,2021.2.3,Win32,299.2220227,,,,,,,,,,,,,,,,,,,,,,,,,,,,,,,,,27,1.7463,1,0,15,15,26,1,9,×,3,9 × 3,congruent,largerFirst,2,1,27,,,,,,,,
,,,,,,,,,,,,,,,734,2022-01-23_12h53.02.731,multiplicationStroop,2021.2.3,Win32,299.2220227,,,,,,,,,,,,,,,,,,,,,,,,,,,,,,,,,4,1.2313,1,0,16,16,28,1,2,×,2,2 × 2,neutral,tie,2,1,4,,,,,,,,
,,,,,,,,,,,,,,,734,2022-01-23_12h53.02.731,multiplicationStroop,2021.2.3,Win32,299.2220227,,,,,,,,,,,,,,,,,,,,,,,,,,,,,,,,,42,1.5257,1,0,17,17,3,1,6,×,7,6 × 7,congruent,smallerFirst,1,2,42,,,,,,,,
,,,,,,,,,,,,,,,734,2022-01-23_12h53.02.731,multiplicationStroop,2021.2.3,Win32,299.2220227,,,,,,,,,,,,,,,,,,,,,,,,,,,,,,,,,36,1.9811,1,0,18,18,0,1,4,×,9,4 × 9,congruent,smallerFirst,1,2,36,,,,,,,,
,,,,,,,,,,,,,,,734,2022-01-23_12h53.02.731,multiplicationStroop,2021.2.3,Win32,299.2220227,,,,,,,,,,,,,,,,,,,,,,,,,,,,,,,,,24,1.6419,1,0,19,19,10,1,3,×,8,3 × 8,congruent,smallerFirst,1,2,24,,,,,,,,
,,,,,,,,,,,,,,,734,2022-01-23_12h53.02.731,multiplicationStroop,2021.2.3,Win32,299.2220227,,,,,,,,,,,,,,,,,,,,,,,,,,,,,,,,,10,1.6495,1,0,20,20,24,1,5,×,2,5 × 2,congruent,largerFirst,2,1,10,,,,,,,,
,,,,,,,,,,,,,,,734,2022-01-23_12h53.02.731,multiplicationStroop,2021.2.3,Win32,299.2220227,,,,,,,,,,,,,,,,,,,,,,,,,,,,,,,,,24,1.378,1,0,21,21,25,1,6,×,4,6 × 4,congruent,largerFirst,2,1,24,,,,,,,,
,,,,,,,,,,,,,,,734,2022-01-23_12h53.02.731,multiplicationStroop,2021.2.3,Win32,299.2220227,,,,,,,,,,,,,,,,,,,,,,,,,,,,,,,,,28,1.7789,1,0,22,22,27,1,7,×,4,7 × 4,congruent,largerFirst,2,1,28,,,,,,,,
,,,,,,,,,,,,,,,734,2022-01-23_12h53.02.731,multiplicationStroop,2021.2.3,Win32,299.2220227,,,,,,,,,,,,,,,,,,,,,,,,,,,,,,,,,63,3.1589,1,0,23,23,21,1,9,×,7,9 × 7,congruent,largerFirst,2,1,63,,,,,,,,
,,,,,,,,,,,,,,,734,2022-01-23_12h53.02.731,multiplicationStroop,2021.2.3,Win32,299.2220227,,,,,,,,,,,,,,,,,,,,,,,,,,,,,,,,,64,3.0768,1,0,24,24,34,1,8,×,8,8 × 8,neutral,tie,2,1,64,,,,,,,,
,,,,,,,,,,,,,,,734,2022-01-23_12h53.02.731,multiplicationStroop,2021.2.3,Win32,299.2220227,,,,,,,,,,,,,,,,,,,,,,,,,,,,,,,,,9,1.309,1,0,25,25,29,1,3,×,3,3 × 3,neutral,tie,2,1,9,,,,,,,,
,,,,,,,,,,,,,,,734,2022-01-23_12h53.02.731,multiplicationStroop,2021.2.3,Win32,299.2220227,,,,,,,,,,,,,,,,,,,,,,,,,,,,,,,,,32,1.6517,1,0,26,26,20,1,8,×,4,8 × 4,congruent,largerFirst,2,1,32,,,,,,,,
,,,,,,,,,,,,,,,734,2022-01-23_12h53.02.731,multiplicationStroop,2021.2.3,Win32,299.2220227,,,,,,,,,,,,,,,,,,,,,,,,,,,,,,,,,6,1.5262,1,0,27,27,13,1,2,×,3,2 × 3,congruent,smallerFirst,1,2,6,,,,,,,,
,,,,,,,,,,,,,,,734,2022-01-23_12h53.02.731,multiplicationStroop,2021.2.3,Win32,299.2220227,,,,,,,,,,,,,,,,,,,,,,,,,,,,,,,,,20,1.7679,1,0,28,28,7,1,4,×,5,4 × 5,congruent,smallerFirst,1,2,20,,,,,,,,
,,,,,,,,,,,,,,,734,2022-01-23_12h53.02.731,multiplicationStroop,2021.2.3,Win32,299.2220227,,,,,,,,,,,,,,,,,,,,,,,,,,,,,,,,,40,1.5032,1,0,29,29,6,1,5,×,8,5 × 8,congruent,smallerFirst,1,2,40,,,,,,,,
,,,,,,,,,,,,,,,734,2022-01-23_12h53.02.731,multiplicationStroop,2021.2.3,Win32,299.2220227,,,,,,,,,,,,,,,,,,,,,,,,,,,,,,,,,12,1.2712,1,0,30,30,2,1,3,×,4,3 × 4,congruent,smallerFirst,1,2,12,,,,,,,,
,,,,,,,,,,,,,,,734,2022-01-23_12h53.02.731,multiplicationStroop,2021.2.3,Win32,299.2220227,,,,,,,,,,,,,,,,,,,,,,,,,,,,,,,,,18,1.6931,1,0,31,31,11,1,3,×,6,3 × 6,congruent,smallerFirst,1,2,18,,,,,,,,
,,,,,,,,,,,,,,,734,2022-01-23_12h53.02.731,multiplicationStroop,2021.2.3,Win32,299.2220227,,,,,,,,,,,,,,,,,,,,,,,,,,,,,,,,,16,2.0793,1,0,32,32,30,1,4,×,4,4 × 4,neutral,tie,2,1,16,,,,,,,,
,,,,,,,,,,,,,,,734,2022-01-23_12h53.02.731,multiplicationStroop,2021.2.3,Win32,299.2220227,,,,,,,,,,,,,,,,,,,,,,,,,,,,,,,,,30,2.0046,1,0,33,33,15,1,6,×,5,6 × 5,congruent,largerFirst,2,1,30,,,,,,,,
,,,,,,,,,,,,,,,734,2022-01-23_12h53.02.731,multiplicationStroop,2021.2.3,Win32,299.2220227,,,,,,,,,,,,,,,,,,,,,,,,,,,,,,,,,48,2.2136,1,0,34,34,18,1,8,×,6,8 × 6,congruent,largerFirst,2,1,48,,,,,,,,
,,,,,,,,,,,,,,,734,2022-01-23_12h53.02.731,multiplicationStroop,2021.2.3,Win32,299.2220227,,,,,,,,,,,,,,,,,,,,,,,,,,,,,,,,,18,1.7355,1,0,35,35,22,1,9,×,2,9 × 2,congruent,largerFirst,2,1,18,,,,,,,,
,,,,,,,,,,,,,,,734,2022-01-23_12h53.02.731,multiplicationStroop,2021.2.3,Win32,299.2220227,,,,,,,,,,,,,,,,,,,,,,,,,,,,,,,,,,,,,,,,,,,,,,,,,,0,2,2,2,1,stimulusFile/mult_blk3_congruent.xlsx,,
,,,,,,,,,,,,,,,734,2022-01-23_12h53.02.731,multiplicationStroop,2021.2.3,Win32,299.2220227,,,,,,,,,,,,,,,,,,,,,,,,,,,,,,,space,34.6122,18,2.3808,1,0,0,0,14,1,6,×,3,6 × 3,neutral,largerFirst,1.5,1.5,18,,,,,,,,
,,,,,,,,,,,,,,,734,2022-01-23_12h53.02.731,multiplicationStroop,2021.2.3,Win32,299.2220227,,,,,,,,,,,,,,,,,,,,,,,,,,,,,,,,,24,2.3309,1,0,1,1,8,1,3,×,8,3 × 8,neutral,smallerFirst,1.5,1.5,24,,,,,,,,
,,,,,,,,,,,,,,,734,2022-01-23_12h53.02.731,multiplicationStroop,2021.2.3,Win32,299.2220227,,,,,,,,,,,,,,,,,,,,,,,,,,,,,,,,,9,1.8466,1,0,2,2,29,1,3,×,3,3 × 3,neutral,tie,1.5,1.5,9,,,,,,,,
,,,,,,,,,,,,,,,734,2022-01-23_12h53.02.731,multiplicationStroop,2021.2.3,Win32,299.2220227,,,,,,,,,,,,,,,,,,,,,,,,,,,,,,,,,6,1.502,1,0,3,3,12,1,2,×,3,2 × 3,neutral,smallerFirst,1.5,1.5,6,,,,,,,,
,,,,,,,,,,,,,,,734,2022-01-23_12h53.02.731,multiplicationStroop,2021.2.3,Win32,299.2220227,,,,,,,,,,,,,,,,,,,,,,,,,,,,,,,,,4,1.3911,1,0,4,4,28,1,2,×,2,2 × 2,neutral,tie,1.5,1.5,4,,,,,,,,
,,,,,,,,,,,,,,,734,2022-01-23_12h53.02.731,multiplicationStroop,2021.2.3,Win32,299.2220227,,,,,,,,,,,,,,,,,,,,,,,,,,,,,,,,,20,1.8652,1,0,5,5,6,1,4,×,5,4 × 5,neutral,smallerFirst,1.5,1.5,20,,,,,,,,
,,,,,,,,,,,,,,,734,2022-01-23_12h53.02.731,multiplicationStroop,2021.2.3,Win32,299.2220227,,,,,,,,,,,,,,,,,,,,,,,,,,,,,,,,,27,2.0654,1,0,6,6,0,1,3,×,9,3 × 9,neutral,smallerFirst,1.5,1.5,27,,,,,,,,
,,,,,,,,,,,,,,,734,2022-01-23_12h53.02.731,multiplicationStroop,2021.2.3,Win32,299.2220227,,,,,,,,,,,,,,,,,,,,,,,,,,,,,,,,,10,1.9897,1,0,7,7,18,1,5,×,2,5 × 2,neutral,largerFirst,1.5,1.5,10,,,,,,,,
,,,,,,,,,,,,,,,734,2022-01-23_12h53.02.731,multiplicationStroop,2021.2.3,Win32,299.2220227,,,,,,,,,,,,,,,,,,,,,,,,,,,,,,,,,21,1.865,1,0,8,8,22,1,7,×,3,7 × 3,neutral,largerFirst,1.5,1.5,21,,,,,,,,
,,,,,,,,,,,,,,,734,2022-01-23_12h53.02.731,multiplicationStroop,2021.2.3,Win32,299.2220227,,,,,,,,,,,,,,,,,,,,,,,,,,,,,,,,,30,1.9316,1,0,9,9,5,1,5,×,6,5 × 6,neutral,smallerFirst,1.5,1.5,30,,,,,,,,
,,,,,,,,,,,,,,,734,2022-01-23_12h53.02.731,multiplicationStroop,2021.2.3,Win32,299.2220227,,,,,,,,,,,,,,,,,,,,,,,,,,,,,,,,,36,2.0872,1,0,10,10,32,1,6,×,6,6 × 6,neutral,tie,1.5,1.5,36,,,,,,,,
,,,,,,,,,,,,,,,734,2022-01-23_12h53.02.731,multiplicationStroop,2021.2.3,Win32,299.2220227,,,,,,,,,,,,,,,,,,,,,,,,,,,,,,,,,18,2.483,1,0,11,11,4,1,2,×,9,2 × 9,neutral,smallerFirst,1.5,1.5,18,,,,,,,,
,,,,,,,,,,,,,,,734,2022-01-23_12h53.02.731,multiplicationStroop,2021.2.3,Win32,299.2220227,,,,,,,,,,,,,,,,,,,,,,,,,,,,,,,,,36,2.2475,1,0,12,12,13,1,4,×,9,4 × 9,neutral,smallerFirst,1.5,1.5,36,,,,,,,,
,,,,,,,,,,,,,,,734,2022-01-23_12h53.02.731,multiplicationStroop,2021.2.3,Win32,299.2220227,,,,,,,,,,,,,,,,,,,,,,,,,,,,,,,,,72,2.0462,1,0,13,13,25,1,9,×,8,9 × 8,neutral,largerFirst,1.5,1.5,72,,,,,,,,
,,,,,,,,,,,,,,,734,2022-01-23_12h53.02.731,multiplicationStroop,2021.2.3,Win32,299.2220227,,,,,,,,,,,,,,,,,,,,,,,,,,,,,,,,,54,1.9775,1,0,14,14,21,1,9,×,6,9 × 6,neutral,largerFirst,1.5,1.5,54,,,,,,,,
,,,,,,,,,,,,,,,734,2022-01-23_12h53.02.731,multiplicationStroop,2021.2.3,Win32,299.2220227,,,,,,,,,,,,,,,,,,,,,,,,,,,,,,,,,8,1.7315,1,0,15,15,17,1,4,×,2,4 × 2,neutral,largerFirst,1.5,1.5,8,,,,,,,,
,,,,,,,,,,,,,,,734,2022-01-23_12h53.02.731,multiplicationStroop,2021.2.3,Win32,299.2220227,,,,,,,,,,,,,,,,,,,,,,,,,,,,,,,,,49,2.8025,1,0,16,16,33,1,7,×,7,7 × 7,neutral,tie,1.5,1.5,49,,,,,,,,
,,,,,,,,,,,,,,,734,2022-01-23_12h53.02.731,multiplicationStroop,2021.2.3,Win32,299.2220227,,,,,,,,,,,,,,,,,,,,,,,,,,,,,,,,,42,1.834,1,0,17,17,20,1,7,×,6,7 × 6,neutral,largerFirst,1.5,1.5,42,,,,,,,,
,,,,,,,,,,,,,,,734,2022-01-23_12h53.02.731,multiplicationStroop,2021.2.3,Win32,299.2220227,,,,,,,,,,,,,,,,,,,,,,,,,,,,,,,,,12,1.8687,1,0,18,18,7,1,3,×,4,3 × 4,neutral,smallerFirst,1.5,1.5,12,,,,,,,,
,,,,,,,,,,,,,,,734,2022-01-23_12h53.02.731,multiplicationStroop,2021.2.3,Win32,299.2220227,,,,,,,,,,,,,,,,,,,,,,,,,,,,,,,,,56,1.7562,1,0,19,19,23,1,8,×,7,8 × 7,neutral,largerFirst,1.5,1.5,56,,,,,,,,
,,,,,,,,,,,,,,,734,2022-01-23_12h53.02.731,multiplicationStroop,2021.2.3,Win32,299.2220227,,,,,,,,,,,,,,,,,,,,,,,,,,,,,,,,,81,1.8119,1,0,20,20,35,1,9,×,9,9 × 9,neutral,tie,1.5,1.5,81,,,,,,,,
,,,,,,,,,,,,,,,734,2022-01-23_12h53.02.731,multiplicationStroop,2021.2.3,Win32,299.2220227,,,,,,,,,,,,,,,,,,,,,,,,,,,,,,,,,14,1.948,1,0,21,21,2,1,2,×,7,2 × 7,neutral,smallerFirst,1.5,1.5,14,,,,,,,,
,,,,,,,,,,,,,,,734,2022-01-23_12h53.02.731,multiplicationStroop,2021.2.3,Win32,299.2220227,,,,,,,,,,,,,,,,,,,,,,,,,,,,,,,,,45,2.142,1,0,22,22,24,1,9,×,5,9 × 5,neutral,largerFirst,1.5,1.5,45,,,,,,,,
,,,,,,,,,,,,,,,734,2022-01-23_12h53.02.731,multiplicationStroop,2021.2.3,Win32,299.2220227,,,,,,,,,,,,,,,,,,,,,,,,,,,,,,,,,64,1.8512,1,0,23,23,34,1,8,×,8,8 × 8,neutral,tie,1.5,1.5,64,,,,,,,,
,,,,,,,,,,,,,,,734,2022-01-23_12h53.02.731,multiplicationStroop,2021.2.3,Win32,299.2220227,,,,,,,,,,,,,,,,,,,,,,,,,,,,,,,,,40,1.9232,1,0,24,24,10,1,5,×,8,5 × 8,neutral,smallerFirst,1.5,1.5,40,,,,,,,,
,,,,,,,,,,,,,,,734,2022-01-23_12h53.02.731,multiplicationStroop,2021.2.3,Win32,299.2220227,,,,,,,,,,,,,,,,,,,,,,,,,,,,,,,,,15,2.9041,1,0,25,25,19,1,5,×,3,5 × 3,neutral,largerFirst,1.5,1.5,15,,,,,,,,
,,,,,,,,,,,,,,,734,2022-01-23_12h53.02.731,multiplicationStroop,2021.2.3,Win32,299.2220227,,,,,,,,,,,,,,,,,,,,,,,,,,,,,,,,,16,2.2082,1,0,26,26,27,1,8,×,2,8 × 2,neutral,largerFirst,1.5,1.5,16,,,,,,,,
,,,,,,,,,,,,,,,734,2022-01-23_12h53.02.731,multiplicationStroop,2021.2.3,Win32,299.2220227,,,,,,,,,,,,,,,,,,,,,,,,,,,,,,,,,25,1.6549,1,0,27,27,31,1,5,×,5,5 × 5,neutral,tie,1.5,1.5,25,,,,,,,,
,,,,,,,,,,,,,,,734,2022-01-23_12h53.02.731,multiplicationStroop,2021.2.3,Win32,299.2220227,,,,,,,,,,,,,,,,,,,,,,,,,,,,,,,,,12,1.356,1,0,28,28,11,1,2,×,6,2 × 6,neutral,smallerFirst,1.5,1.5,12,,,,,,,,
,,,,,,,,,,,,,,,734,2022-01-23_12h53.02.731,multiplicationStroop,2021.2.3,Win32,299.2220227,,,,,,,,,,,,,,,,,,,,,,,,,,,,,,,,,16,1.725,1,0,29,29,30,1,4,×,4,4 × 4,neutral,tie,1.5,1.5,16,,,,,,,,
,,,,,,,,,,,,,,,734,2022-01-23_12h53.02.731,multiplicationStroop,2021.2.3,Win32,299.2220227,,,,,,,,,,,,,,,,,,,,,,,,,,,,,,,,,35,1.9794,1,0,30,30,15,1,7,×,5,7 × 5,neutral,largerFirst,1.5,1.5,35,,,,,,,,
,,,,,,,,,,,,,,,734,2022-01-23_12h53.02.731,multiplicationStroop,2021.2.3,Win32,299.2220227,,,,,,,,,,,,,,,,,,,,,,,,,,,,,,,,,32,1.7546,1,0,31,31,9,1,4,×,8,4 × 8,neutral,smallerFirst,1.5,1.5,32,,,,,,,,
,,,,,,,,,,,,,,,734,2022-01-23_12h53.02.731,multiplicationStroop,2021.2.3,Win32,299.2220227,,,,,,,,,,,,,,,,,,,,,,,,,,,,,,,,,28,2.0049,1,0,32,32,3,1,4,×,7,4 × 7,neutral,smallerFirst,1.5,1.5,28,,,,,,,,
,,,,,,,,,,,,,,,734,2022-01-23_12h53.02.731,multiplicationStroop,2021.2.3,Win32,299.2220227,,,,,,,,,,,,,,,,,,,,,,,,,,,,,,,,,24,1.4807,1,0,33,33,16,1,6,×,4,6 × 4,neutral,largerFirst,1.5,1.5,24,,,,,,,,
,,,,,,,,,,,,,,,734,2022-01-23_12h53.02.731,multiplicationStroop,2021.2.3,Win32,299.2220227,,,,,,,,,,,,,,,,,,,,,,,,,,,,,,,,,63,2.5862,1,0,34,34,26,1,9,×,7,9 × 7,neutral,largerFirst,1.5,1.5,63,,,,,,,,
,,,,,,,,,,,,,,,734,2022-01-23_12h53.02.731,multiplicationStroop,2021.2.3,Win32,299.2220227,,,,,,,,,,,,,,,,,,,,,,,,,,,,,,,,,48,3.2095,1,0,35,35,1,1,6,×,8,6 × 8,neutral,smallerFirst,1.5,1.5,48,,,,,,,,
,,,,,,,,,,,,,,,734,2022-01-23_12h53.02.731,multiplicationStroop,2021.2.3,Win32,299.2220227,,,,,,,,,,,,,,,,,,,,,,,,,,,,,,,,,,,,,,,,,,,,,,,,,,0,3,3,0,1,stimulusFile/mult_blk1.xlsx,,
,,,,,,,,,,,,,,,734,2022-01-23_12h53.02.731,multiplicationStroop,2021.2.3,Win32,299.2220227,,,,,,,,,,,,,,,,,,,,,,,,,,,,,,,space,1.6306,36,2.4058,1,0,0,0,14,1,9,×,4,9 × 4,congruent,largerFirst,2,1,36,,,,,,,,
,,,,,,,,,,,,,,,734,2022-01-23_12h53.02.731,multiplicationStroop,2021.2.3,Win32,299.2220227,,,,,,,,,,,,,,,,,,,,,,,,,,,,,,,,,63,2.4822,1,0,1,1,7,1,7,×,9,7 × 9,congruent,smallerFirst,1,2,63,,,,,,,,
,,,,,,,,,,,,,,,734,2022-01-23_12h53.02.731,multiplicationStroop,2021.2.3,Win32,299.2220227,,,,,,,,,,,,,,,,,,,,,,,,,,,,,,,,,35,1.6583,1,0,2,2,15,1,7,×,5,7 × 5,congruent,largerFirst,2,1,35,,,,,,,,
,,,,,,,,,,,,,,,734,2022-01-23_12h53.02.731,multiplicationStroop,2021.2.3,Win32,299.2220227,,,,,,,,,,,,,,,,,,,,,,,,,,,,,,,,,14,3.0012,1,0,3,3,0,1,2,×,7,2 × 7,congruent,smallerFirst,1,2,14,,,,,,,,
,,,,,,,,,,,,,,,734,2022-01-23_12h53.02.731,multiplicationStroop,2021.2.3,Win32,299.2220227,,,,,,,,,,,,,,,,,,,,,,,,,,,,,,,,,54,1.9457,1,0,4,4,26,1,9,×,6,9 × 6,congruent,largerFirst,2,1,54,,,,,,,,
,,,,,,,,,,,,,,,734,2022-01-23_12h53.02.731,multiplicationStroop,2021.2.3,Win32,299.2220227,,,,,,,,,,,,,,,,,,,,,,,,,,,,,,,,,48,1.9282,1,0,5,5,4,1,6,×,8,6 × 8,congruent,smallerFirst,1,2,48,,,,,,,,
,,,,,,,,,,,,,,,734,2022-01-23_12h53.02.731,multiplicationStroop,2021.2.3,Win32,299.2220227,,,,,,,,,,,,,,,,,,,,,,,,,,,,,,,,,8,1.776,1,0,6,6,23,1,4,×,2,4 × 2,congruent,largerFirst,2,1,8,,,,,,,,
,,,,,,,,,,,,,,,734,2022-01-23_12h53.02.731,multiplicationStroop,2021.2.3,Win32,299.2220227,,,,,,,,,,,,,,,,,,,,,,,,,,,,,,,,,20,3.7671,1,0,7,7,21,1,5,×,4,5 × 4,congruent,largerFirst,2,1,20,,,,,,,,
,,,,,,,,,,,,,,,734,2022-01-23_12h53.02.731,multiplicationStroop,2021.2.3,Win32,299.2220227,,,,,,,,,,,,,,,,,,,,,,,,,,,,,,,,,6,1.3285,1,0,8,8,27,1,3,×,2,3 × 2,congruent,largerFirst,2,1,6,,,,,,,,
,,,,,,,,,,,,,,,734,2022-01-23_12h53.02.731,multiplicationStroop,2021.2.3,Win32,299.2220227,,,,,,,,,,,,,,,,,,,,,,,,,,,,,,,,,18,1.769,1,0,9,9,8,1,2,×,9,2 × 9,congruent,smallerFirst,1,2,18,,,,,,,,
,,,,,,,,,,,,,,,734,2022-01-23_12h53.02.731,multiplicationStroop,2021.2.3,Win32,299.2220227,,,,,,,,,,,,,,,,,,,,,,,,,,,,,,,,,45,1.6546,1,0,10,10,9,1,5,×,9,5 × 9,congruent,smallerFirst,1,2,45,,,,,,,,
,,,,,,,,,,,,,,,734,2022-01-23_12h53.02.731,multiplicationStroop,2021.2.3,Win32,299.2220227,,,,,,,,,,,,,,,,,,,,,,,,,,,,,,,,,10,1.7195,1,0,11,11,10,1,2,×,5,2 × 5,congruent,smallerFirst,1,2,10,,,,,,,,
,,,,,,,,,,,,,,,734,2022-01-23_12h53.02.731,multiplicationStroop,2021.2.3,Win32,299.2220227,,,,,,,,,,,,,,,,,,,,,,,,,,,,,,,,,40,1.7253,1,0,12,12,20,1,8,×,5,8 × 5,congruent,largerFirst,2,1,40,,,,,,,,
,,,,,,,,,,,,,,,734,2022-01-23_12h53.02.731,multiplicationStroop,2021.2.3,Win32,299.2220227,,,,,,,,,,,,,,,,,,,,,,,,,,,,,,,,,24,2.0911,1,0,13,13,11,1,4,×,6,4 × 6,congruent,smallerFirst,1,2,24,,,,,,,,
,,,,,,,,,,,,,,,734,2022-01-23_12h53.02.731,multiplicationStroop,2021.2.3,Win32,299.2220227,,,,,,,,,,,,,,,,,,,,,,,,,,,,,,,,,25,2.5284,1,0,14,14,31,1,5,×,5,5 × 5,neutral,tie,1,2,25,,,,,,,,
,,,,,,,,,,,,,,,734,2022-01-23_12h53.02.731,multiplicationStroop,2021.2.3,Win32,299.2220227,,,,,,,,,,,,,,,,,,,,,,,,,,,,,,,,,15,1.4384,1,0,15,15,18,1,5,×,3,5 × 3,congruent,largerFirst,2,1,15,,,,,,,,
,,,,,,,,,,,,,,,734,2022-01-23_12h53.02.731,multiplicationStroop,2021.2.3,Win32,299.2220227,,,,,,,,,,,,,,,,,,,,,,,,,,,,,,,,,4,1.4497,1,0,16,16,28,1,2,×,2,2 × 2,neutral,tie,1,2,4,,,,,,,,
,,,,,,,,,,,,,,,734,2022-01-23_12h53.02.731,multiplicationStroop,2021.2.3,Win32,299.2220227,,,,,,,,,,,,,,,,,,,,,,,,,,,,,,,,,42,2.1143,1,0,17,17,17,1,7,×,6,7 × 6,congruent,largerFirst,2,1,42,,,,,,,,
,,,,,,,,,,,,,,,734,2022-01-23_12h53.02.731,multiplicationStroop,2021.2.3,Win32,299.2220227,,,,,,,,,,,,,,,,,,,,,,,,,,,,,,,,,16,1.5822,1,0,18,18,19,1,8,×,2,8 × 2,congruent,largerFirst,2,1,16,,,,,,,,
,,,,,,,,,,,,,,,734,2022-01-23_12h53.02.731,multiplicationStroop,2021.2.3,Win32,299.2220227,,,,,,,,,,,,,,,,,,,,,,,,,,,,,,,,,32,2.3266,1,0,19,19,6,1,4,×,8,4 × 8,congruent,smallerFirst,1,2,32,,,,,,,,
,,,,,,,,,,,,,,,734,2022-01-23_12h53.02.731,multiplicationStroop,2021.2.3,Win32,299.2220227,,,,,,,,,,,,,,,,,,,,,,,,,,,,,,,,,36,2.6938,1,0,20,20,32,1,6,×,6,6 × 6,neutral,tie,1,2,36,,,,,,,,
,,,,,,,,,,,,,,,734,2022-01-23_12h53.02.731,multiplicationStroop,2021.2.3,Win32,299.2220227,,,,,,,,,,,,,,,,,,,,,,,,,,,,,,,,,30,2.2239,1,0,21,21,1,1,5,×,6,5 × 6,congruent,smallerFirst,1,2,30,,,,,,,,
,,,,,,,,,,,,,,,734,2022-01-23_12h53.02.731,multiplicationStroop,2021.2.3,Win32,299.2220227,,,,,,,,,,,,,,,,,,,,,,,,,,,,,,,,,16,1.9985,1,0,22,22,30,1,4,×,4,4 × 4,neutral,tie,1,2,16,,,,,,,,
,,,,,,,,,,,,,,,734,2022-01-23_12h53.02.731,multiplicationStroop,2021.2.3,Win32,299.2220227,,,,,,,,,,,,,,,,,,,,,,,,,,,,,,,,,28,3.4114,1,0,23,23,13,1,4,×,7,4 × 7,congruent,smallerFirst,1,2,28,,,,,,,,
,,,,,,,,,,,,,,,734,2022-01-23_12h53.02.731,multiplicationStroop,2021.2.3,Win32,299.2220227,,,,,,,,,,,,,,,,,,,,,,,,,,,,,,,,,64,2.5822,1,0,24,24,34,1,8,×,8,8 × 8,neutral,tie,1,2,64,,,,,,,,
,,,,,,,,,,,,,,,734,2022-01-23_12h53.02.731,multiplicationStroop,2021.2.3,Win32,299.2220227,,,,,,,,,,,,,,,,,,,,,,,,,,,,,,,,,49,2.1408,1,0,25,25,33,1,7,×,7,7 × 7,neutral,tie,1,2,49,,,,,,,,
,,,,,,,,,,,,,,,734,2022-01-23_12h53.02.731,multiplicationStroop,2021.2.3,Win32,299.2220227,,,,,,,,,,,,,,,,,,,,,,,,,,,,,,,,,27,2.5818,1,0,26,26,12,1,3,×,9,3 × 9,congruent,smallerFirst,1,2,27,,,,,,,,
,,,,,,,,,,,,,,,734,2022-01-23_12h53.02.731,multiplicationStroop,2021.2.3,Win32,299.2220227,,,,,,,,,,,,,,,,,,,,,,,,,,,,,,,,,18,1.8822,1,0,27,27,25,1,6,×,3,6 × 3,congruent,largerFirst,2,1,18,,,,,,,,
,,,,,,,,,,,,,,,734,2022-01-23_12h53.02.731,multiplicationStroop,2021.2.3,Win32,299.2220227,,,,,,,,,,,,,,,,,,,,,,,,,,,,,,,,,81,1.6342,1,0,28,28,35,1,9,×,9,9 × 9,neutral,tie,1,2,81,,,,,,,,
,,,,,,,,,,,,,,,734,2022-01-23_12h53.02.731,multiplicationStroop,2021.2.3,Win32,299.2220227,,,,,,,,,,,,,,,,,,,,,,,,,,,,,,,,,72,2.4081,1,0,29,29,3,1,8,×,9,8 × 9,congruent,smallerFirst,1,2,72,,,,,,,,
,,,,,,,,,,,,,,,734,2022-01-23_12h53.02.731,multiplicationStroop,2021.2.3,Win32,299.2220227,,,,,,,,,,,,,,,,,,,,,,,,,,,,,,,,,9,1.7428,1,0,30,30,29,1,3,×,3,3 × 3,neutral,tie,1,2,9,,,,,,,,
,,,,,,,,,,,,,,,734,2022-01-23_12h53.02.731,multiplicationStroop,2021.2.3,Win32,299.2220227,,,,,,,,,,,,,,,,,,,,,,,,,,,,,,,,,24,1.7385,1,0,31,31,24,1,8,×,3,8 × 3,congruent,largerFirst,2,1,24,,,,,,,,
,,,,,,,,,,,,,,,734,2022-01-23_12h53.02.731,multiplicationStroop,2021.2.3,Win32,299.2220227,,,,,,,,,,,,,,,,,,,,,,,,,,,,,,,,,56,2.1371,1,0,32,32,22,1,8,×,7,8 × 7,congruent,largerFirst,2,1,56,,,,,,,,
,,,,,,,,,,,,,,,734,2022-01-23_12h53.02.731,multiplicationStroop,2021.2.3,Win32,299.2220227,,,,,,,,,,,,,,,,,,,,,,,,,,,,,,,,,12,1.3674,1,0,33,33,16,1,4,×,3,4 × 3,congruent,largerFirst,2,1,12,,,,,,,,
,,,,,,,,,,,,,,,734,2022-01-23_12h53.02.731,multiplicationStroop,2021.2.3,Win32,299.2220227,,,,,,,,,,,,,,,,,,,,,,,,,,,,,,,,,12,1.5348,1,0,34,34,5,1,2,×,6,2 × 6,congruent,smallerFirst,1,2,12,,,,,,,,
,,,,,,,,,,,,,,,734,2022-01-23_12h53.02.731,multiplicationStroop,2021.2.3,Win32,299.2220227,,,,,,,,,,,,,,,,,,,,,,,,,,,,,,,,,21,1.3288,1,0,35,35,2,1,3,×,7,3 × 7,congruent,smallerFirst,1,2,21,,,,,,,,
,,,,,,,,,,,,,,,734,2022-01-23_12h53.02.731,multiplicationStroop,2021.2.3,Win32,299.2220227,,,,,,,,,,,,,,,,,,,,,,,,,,,,,,,,,,,,,,,,,,,,,,,,,,0,4,4,3,1,stimulusFile/mult_blk4_congruent.xlsx,,
,,,,,,,,,,,,,,,734,2022-01-23_12h53.02.731,multiplicationStroop,2021.2.3,Win32,299.2220227,,,,,,,,,,,,,,,,,,,,,,,,,,,,,,,space,1.3537,64,1.8182,1,0,0,0,34,1,8,×,8,8 × 8,incongruent,tie,1,2,64,,,,,,,,
,,,,,,,,,,,,,,,734,2022-01-23_12h53.02.731,multiplicationStroop,2021.2.3,Win32,299.2220227,,,,,,,,,,,,,,,,,,,,,,,,,,,,,,,,,18,1.4362,1,0,1,1,2,1,2,×,9,2 × 9,incongruent,smallerFirst,2,1,18,,,,,,,,
,,,,,,,,,,,,,,,734,2022-01-23_12h53.02.731,multiplicationStroop,2021.2.3,Win32,299.2220227,,,,,,,,,,,,,,,,,,,,,,,,,,,,,,,,,36,2.2079,1,0,2,2,15,1,9,×,4,9 × 4,incongruent,largerFirst,1,2,36,,,,,,,,
,,,,,,,,,,,,,,,734,2022-01-23_12h53.02.731,multiplicationStroop,2021.2.3,Win32,299.2220227,,,,,,,,,,,,,,,,,,,,,,,,,,,,,,,,,40,1.8857,1,0,3,3,13,1,5,×,8,5 × 8,incongruent,smallerFirst,2,1,40,,,,,,,,
,,,,,,,,,,,,,,,734,2022-01-23_12h53.02.731,multiplicationStroop,2021.2.3,Win32,299.2220227,,,,,,,,,,,,,,,,,,,,,,,,,,,,,,,,,8,2.0717,1,0,4,4,24,1,4,×,2,4 × 2,incongruent,largerFirst,1,2,8,,,,,,,,
,,,,,,,,,,,,,,,734,2022-01-23_12h53.02.731,multiplicationStroop,2021.2.3,Win32,299.2220227,,,,,,,,,,,,,,,,,,,,,,,,,,,,,,,,,81,1.4664,1,0,5,5,35,1,9,×,9,9 × 9,incongruent,tie,1,2,81,,,,,,,,
,,,,,,,,,,,,,,,734,2022-01-23_12h53.02.731,multiplicationStroop,2021.2.3,Win32,299.2220227,,,,,,,,,,,,,,,,,,,,,,,,,,,,,,,,,21,1.5584,1,0,6,6,26,1,7,×,3,7 × 3,incongruent,largerFirst,1,2,21,,,,,,,,
,,,,,,,,,,,,,,,734,2022-01-23_12h53.02.731,multiplicationStroop,2021.2.3,Win32,299.2220227,,,,,,,,,,,,,,,,,,,,,,,,,,,,,,,,,48,2.1578,1,0,7,7,1,1,6,×,8,6 × 8,incongruent,smallerFirst,2,1,48,,,,,,,,
,,,,,,,,,,,,,,,734,2022-01-23_12h53.02.731,multiplicationStroop,2021.2.3,Win32,299.2220227,,,,,,,,,,,,,,,,,,,,,,,,,,,,,,,,,16,1.8293,1,0,8,8,23,1,8,×,2,8 × 2,incongruent,largerFirst,1,2,16,,,,,,,,
,,,,,,,,,,,,,,,734,2022-01-23_12h53.02.731,multiplicationStroop,2021.2.3,Win32,299.2220227,,,,,,,,,,,,,,,,,,,,,,,,,,,,,,,,,10,1.4313,1,0,9,9,21,1,5,×,2,5 × 2,incongruent,largerFirst,1,2,10,,,,,,,,
,,,,,,,,,,,,,,,734,2022-01-23_12h53.02.731,multiplicationStroop,2021.2.3,Win32,299.2220227,,,,,,,,,,,,,,,,,,,,,,,,,,,,,,,,,16,1.9064,1,0,10,10,30,1,4,×,4,4 × 4,incongruent,tie,1,2,16,,,,,,,,
,,,,,,,,,,,,,,,734,2022-01-23_12h53.02.731,multiplicationStroop,2021.2.3,Win32,299.2220227,,,,,,,,,,,,,,,,,,,,,,,,,,,,,,,,,18,1.7114,1,0,11,11,8,1,3,×,6,3 × 6,incongruent,smallerFirst,2,1,18,,,,,,,,
,,,,,,,,,,,,,,,734,2022-01-23_12h53.02.731,multiplicationStroop,2021.2.3,Win32,299.2220227,,,,,,,,,,,,,,,,,,,,,,,,,,,,,,,,,24,2.4429,1,0,12,12,9,1,3,×,8,3 × 8,incongruent,smallerFirst,2,1,24,,,,,,,,
,,,,,,,,,,,,,,,734,2022-01-23_12h53.02.731,multiplicationStroop,2021.2.3,Win32,299.2220227,,,,,,,,,,,,,,,,,,,,,,,,,,,,,,,,,14,1.7837,1,0,13,13,4,1,2,×,7,2 × 7,incongruent,smallerFirst,2,1,14,,,,,,,,
,,,,,,,,,,,,,,,734,2022-01-23_12h53.02.731,multiplicationStroop,2021.2.3,Win32,299.2220227,,,,,,,,,,,,,,,,,,,,,,,,,,,,,,,,,4,1.1721,1,0,14,14,28,1,2,×,2,2 × 2,incongruent,tie,1,2,4,,,,,,,,
,,,,,,,,,,,,,,,734,2022-01-23_12h53.02.731,multiplicationStroop,2021.2.3,Win32,299.2220227,,,,,,,,,,,,,,,,,,,,,,,,,,,,,,,,,72,2.2788,1,0,15,15,0,1,8,×,9,8 × 9,incongruent,smallerFirst,2,1,72,,,,,,,,
,,,,,,,,,,,,,,,734,2022-01-23_12h53.02.731,multiplicationStroop,2021.2.3,Win32,299.2220227,,,,,,,,,,,,,,,,,,,,,,,,,,,,,,,,,12,1.336,1,0,16,16,19,1,6,×,2,6 × 2,incongruent,largerFirst,1,2,12,,,,,,,,
,,,,,,,,,,,,,,,734,2022-01-23_12h53.02.731,multiplicationStroop,2021.2.3,Win32,299.2220227,,,,,,,,,,,,,,,,,,,,,,,,,,,,,,,,,54,2.3941,1,0,17,17,6,1,6,×,9,6 × 9,incongruent,smallerFirst,2,1,54,,,,,,,,
,,,,,,,,,,,,,,,734,2022-01-23_12h53.02.731,multiplicationStroop,2021.2.3,Win32,299.2220227,,,,,,,,,,,,,,,,,,,,,,,,,,,,,,,,,45,1.8846,1,0,18,18,22,1,9,×,5,9 × 5,incongruent,largerFirst,1,2,45,,,,,,,,
,,,,,,,,,,,,,,,734,2022-01-23_12h53.02.731,multiplicationStroop,2021.2.3,Win32,299.2220227,,,,,,,,,,,,,,,,,,,,,,,,,,,,,,,,,30,1.9192,1,0,19,19,25,1,6,×,5,6 × 5,incongruent,largerFirst,1,2,30,,,,,,,,
,,,,,,,,,,,,,,,734,2022-01-23_12h53.02.731,multiplicationStroop,2021.2.3,Win32,299.2220227,,,,,,,,,,,,,,,,,,,,,,,,,,,,,,,,,6,1.3654,1,0,20,20,11,1,2,×,3,2 × 3,incongruent,smallerFirst,2,1,6,,,,,,,,
,,,,,,,,,,,,,,,734,2022-01-23_12h53.02.731,multiplicationStroop,2021.2.3,Win32,299.2220227,,,,,,,,,,,,,,,,,,,,,,,,,,,,,,,,,9,1.6046,1,0,21,21,29,1,3,×,3,3 × 3,incongruent,tie,1,2,9,,,,,,,,
,,,,,,,,,,,,,,,734,2022-01-23_12h53.02.731,multiplicationStroop,2021.2.3,Win32,299.2220227,,,,,,,,,,,,,,,,,,,,,,,,,,,,,,,,,28,1.9153,1,0,22,22,16,1,7,×,4,7 × 4,incongruent,largerFirst,1,2,28,,,,,,,,
,,,,,,,,,,,,,,,734,2022-01-23_12h53.02.731,multiplicationStroop,2021.2.3,Win32,299.2220227,,,,,,,,,,,,,,,,,,,,,,,,,,,,,,,,,63,3.6076,1,0,23,23,3,1,7,×,9,7 × 9,incongruent,smallerFirst,2,1,63,,,,,,,,
,,,,,,,,,,,,,,,734,2022-01-23_12h53.02.731,multiplicationStroop,2021.2.3,Win32,299.2220227,,,,,,,,,,,,,,,,,,,,,,,,,,,,,,,,,25,2.4812,1,0,24,24,31,1,5,×,5,5 × 5,incongruent,tie,1,2,25,,,,,,,,
,,,,,,,,,,,,,,,734,2022-01-23_12h53.02.731,multiplicationStroop,2021.2.3,Win32,299.2220227,,,,,,,,,,,,,,,,,,,,,,,,,,,,,,,,,56,1.5488,1,0,25,25,14,1,8,×,7,8 × 7,incongruent,largerFirst,1,2,56,,,,,,,,
,,,,,,,,,,,,,,,734,2022-01-23_12h53.02.731,multiplicationStroop,2021.2.3,Win32,299.2220227,,,,,,,,,,,,,,,,,,,,,,,,,,,,,,,,,32,1.5826,1,0,26,26,7,1,4,×,8,4 × 8,incongruent,smallerFirst,2,1,32,,,,,,,,
,,,,,,,,,,,,,,,734,2022-01-23_12h53.02.731,multiplicationStroop,2021.2.3,Win32,299.2220227,,,,,,,,,,,,,,,,,,,,,,,,,,,,,,,,,12,1.3847,1,0,27,27,5,1,3,×,4,3 × 4,incongruent,smallerFirst,2,1,12,,,,,,,,
,,,,,,,,,,,,,,,734,2022-01-23_12h53.02.731,multiplicationStroop,2021.2.3,Win32,299.2220227,,,,,,,,,,,,,,,,,,,,,,,,,,,,,,,,,15,1.3431,1,0,28,28,10,1,3,×,5,3 × 5,incongruent,smallerFirst,2,1,15,,,,,,,,
,,,,,,,,,,,,,,,734,2022-01-23_12h53.02.731,multiplicationStroop,2021.2.3,Win32,299.2220227,,,,,,,,,,,,,,,,,,,,,,,,,,,,,,,,,36,1.7248,1,0,29,29,32,1,6,×,6,6 × 6,incongruent,tie,1,2,36,,,,,,,,
,,,,,,,,,,,,,,,734,2022-01-23_12h53.02.731,multiplicationStroop,2021.2.3,Win32,299.2220227,,,,,,,,,,,,,,,,,,,,,,,,,,,,,,,,,29,1.6199,0,0,30,30,27,1,5,×,4,5 × 4,incongruent,largerFirst,1,2,20,,,,,,,,
,,,,,,,,,,,,,,,734,2022-01-23_12h53.02.731,multiplicationStroop,2021.2.3,Win32,299.2220227,,,,,,,,,,,,,,,,,,,,,,,,,,,,,,,,,27,3.9067,1,0,31,31,18,1,9,×,3,9 × 3,incongruent,largerFirst,1,2,27,,,,,,,,
,,,,,,,,,,,,,,,734,2022-01-23_12h53.02.731,multiplicationStroop,2021.2.3,Win32,299.2220227,,,,,,,,,,,,,,,,,,,,,,,,,,,,,,,,,49,2.6273,1,0,32,32,33,1,7,×,7,7 × 7,incongruent,tie,1,2,49,,,,,,,,
,,,,,,,,,,,,,,,734,2022-01-23_12h53.02.731,multiplicationStroop,2021.2.3,Win32,299.2220227,,,,,,,,,,,,,,,,,,,,,,,,,,,,,,,,,42,3.1382,1,0,33,33,17,1,7,×,6,7 × 6,incongruent,largerFirst,1,2,42,,,,,,,,
,,,,,,,,,,,,,,,734,2022-01-23_12h53.02.731,multiplicationStroop,2021.2.3,Win32,299.2220227,,,,,,,,,,,,,,,,,,,,,,,,,,,,,,,,,24,2.508,1,0,34,34,20,1,6,×,4,6 × 4,incongruent,largerFirst,1,2,24,,,,,,,,
,,,,,,,,,,,,,,,734,2022-01-23_12h53.02.731,multiplicationStroop,2021.2.3,Win32,299.2220227,,,,,,,,,,,,,,,,,,,,,,,,,,,,,,,,,35,2.464,1,0,35,35,12,1,5,×,7,5 × 7,incongruent,smallerFirst,2,1,35,,,,,,,,
,,,,,,,,,,,,,,,734,2022-01-23_12h53.02.731,multiplicationStroop,2021.2.3,Win32,299.2220227,,,,,,,,,,,,,,,,,,,,,,,,,,,,,,,,,,,,,,,,,,,,,,,,,,0,5,5,5,1,stimulusFile/mult_blk6_INcongruent.xlsx,,
,,,,,,,,,,,,,,,734,2022-01-23_12h53.02.731,multiplicationStroop,2021.2.3,Win32,299.2220227,,,,,,,,,,,,,,,,,,,,,,,,,,,,,,,,,,,,,,,,,,,,,,,,,,,,,,,,space,5.2038