welcomeKey_resp.keys,welcomeKey_resp.rt,X Scale,Y Scale,rt_resp_4.keys,rt_resp_4.corr,rt_resp_4.rt,speedtest_2.thisRepN,speedtest_2.thisTrialN,speedtest_2.thisN,speedtest_2.thisIndex,speedtest_2.ran,numberSc,posX,positionLayout,participant,date,expName,psychopyVersion,OS,frameRate,ct_instrresp.keys,ct_instrresp.rt,key_resp_2.keys,key_resp_2.rt,ct_keyResp.keys,ct_keyResp.corr,ct_keyResp.rt,trials.thisRepN,trials.thisTrialN,trials.thisN,trials.thisIndex,trials.ran,leftNo,rightNo,displayProblem,numDistance,leftNo_size,rightNo_size,Dims,keyAnswer,TS_Loop.thisRepN,TS_Loop.thisTrialN,TS_Loop.thisN,TS_Loop.thisIndex,TS_Loop.ran,Condition,ActionInst,instrImage,mltptaskInst_resp.keys,mltptaskInst_resp.rt,continue_resp_2.keys,continue_resp_2.rt,multp_Answer,multi_RT,multiplyCorr,LoopingMultiply.thisRepN,LoopingMultiply.thisTrialN,LoopingMultiply.thisN,LoopingMultiply.thisIndex,LoopingMultiply.ran,factor1,multiplySign,factor2,multliplyProblem,physicalSize,orderOperand,sizeF1,sizeF2,mult_answer,trials_stroop.thisRepN,trials_stroop.thisTrialN,trials_stroop.thisN,trials_stroop.thisIndex,trials_stroop.ran,multiplicationFile,esckey_resp_2.keys,esckey_resp_2.rt
y,12.6082,41.6,41.6,right,1,0.4798,0,0,0,8,1,1,200,right,739,2022-01-22_24h07.03.137,multiplicationStroop,2021.2.3,Win32,59.65875194,,,,,,,,,,,,,,,,,,,,,,,,,,,,,,,,,,,,,,,,,,,,,,,,,,,,,,,,,
,,,,right,1,0.3651,0,1,1,10,1,3,200,right,739,2022-01-22_24h07.03.137,multiplicationStroop,2021.2.3,Win32,59.65875194,,,,,,,,,,,,,,,,,,,,,,,,,,,,,,,,,,,,,,,,,,,,,,,,,,,,,,,,,
,,,,left,1,0.3594,0,2,2,5,1,7,-200,left,739,2022-01-22_24h07.03.137,multiplicationStroop,2021.2.3,Win32,59.65875194,,,,,,,,,,,,,,,,,,,,,,,,,,,,,,,,,,,,,,,,,,,,,,,,,,,,,,,,,
,,,,right,1,0.3466,0,3,3,15,1,9,200,right,739,2022-01-22_24h07.03.137,multiplicationStroop,2021.2.3,Win32,59.65875194,,,,,,,,,,,,,,,,,,,,,,,,,,,,,,,,,,,,,,,,,,,,,,,,,,,,,,,,,
,,,,left,1,0.3428,0,4,4,1,1,2,-200,left,739,2022-01-22_24h07.03.137,multiplicationStroop,2021.2.3,Win32,59.65875194,,,,,,,,,,,,,,,,,,,,,,,,,,,,,,,,,,,,,,,,,,,,,,,,,,,,,,,,,
,,,,left,1,0.378,0,5,5,7,1,9,-200,left,739,2022-01-22_24h07.03.137,multiplicationStroop,2021.2.3,Win32,59.65875194,,,,,,,,,,,,,,,,,,,,,,,,,,,,,,,,,,,,,,,,,,,,,,,,,,,,,,,,,
,,,,left,1,0.3331,0,6,6,2,1,3,-200,left,739,2022-01-22_24h07.03.137,multiplicationStroop,2021.2.3,Win32,59.65875194,,,,,,,,,,,,,,,,,,,,,,,,,,,,,,,,,,,,,,,,,,,,,,,,,,,,,,,,,
,,,,right,1,0.3122,0,7,7,13,1,7,200,right,739,2022-01-22_24h07.03.137,multiplicationStroop,2021.2.3,Win32,59.65875194,,,,,,,,,,,,,,,,,,,,,,,,,,,,,,,,,,,,,,,,,,,,,,,,,,,,,,,,,
,,,,left,1,0.3329,0,8,8,0,1,1,-200,left,739,2022-01-22_24h07.03.137,multiplicationStroop,2021.2.3,Win32,59.65875194,,,,,,,,,,,,,,,,,,,,,,,,,,,,,,,,,,,,,,,,,,,,,,,,,,,,,,,,,
,,,,right,1,0.3296,0,9,9,11,1,4,200,right,739,2022-01-22_24h07.03.137,multiplicationStroop,2021.2.3,Win32,59.65875194,,,,,,,,,,,,,,,,,,,,,,,,,,,,,,,,,,,,,,,,,,,,,,,,,,,,,,,,,
,,,,right,1,0.3569,0,10,10,9,1,2,200,right,739,2022-01-22_24h07.03.137,multiplicationStroop,2021.2.3,Win32,59.65875194,,,,,,,,,,,,,,,,,,,,,,,,,,,,,,,,,,,,,,,,,,,,,,,,,,,,,,,,,
,,,,right,1,0.3069,0,11,11,14,1,8,200,right,739,2022-01-22_24h07.03.137,multiplicationStroop,2021.2.3,Win32,59.65875194,,,,,,,,,,,,,,,,,,,,,,,,,,,,,,,,,,,,,,,,,,,,,,,,,,,,,,,,,
,,,,left,1,0.3305,0,12,12,4,1,6,-200,left,739,2022-01-22_24h07.03.137,multiplicationStroop,2021.2.3,Win32,59.65875194,,,,,,,,,,,,,,,,,,,,,,,,,,,,,,,,,,,,,,,,,,,,,,,,,,,,,,,,,
,,,,left,1,0.3173,0,13,13,3,1,4,-200,left,739,2022-01-22_24h07.03.137,multiplicationStroop,2021.2.3,Win32,59.65875194,,,,,,,,,,,,,,,,,,,,,,,,,,,,,,,,,,,,,,,,,,,,,,,,,,,,,,,,,
,,,,right,1,0.352,0,14,14,12,1,6,200,right,739,2022-01-22_24h07.03.137,multiplicationStroop,2021.2.3,Win32,59.65875194,,,,,,,,,,,,,,,,,,,,,,,,,,,,,,,,,,,,,,,,,,,,,,,,,,,,,,,,,
,,,,left,1,0.4256,0,15,15,6,1,8,-200,left,739,2022-01-22_24h07.03.137,multiplicationStroop,2021.2.3,Win32,59.65875194,,,,,,,,,,,,,,,,,,,,,,,,,,,,,,,,,,,,,,,,,,,,,,,,,,,,,,,,,
,,,,right,1,0.3489,1,0,16,9,1,2,200,right,739,2022-01-22_24h07.03.137,multiplicationStroop,2021.2.3,Win32,59.65875194,,,,,,,,,,,,,,,,,,,,,,,,,,,,,,,,,,,,,,,,,,,,,,,,,,,,,,,,,
,,,,left,1,0.3624,1,1,17,4,1,6,-200,left,739,2022-01-22_24h07.03.137,multiplicationStroop,2021.2.3,Win32,59.65875194,,,,,,,,,,,,,,,,,,,,,,,,,,,,,,,,,,,,,,,,,,,,,,,,,,,,,,,,,
,,,,left,1,0.3668,1,2,18,1,1,2,-200,left,739,2022-01-22_24h07.03.137,multiplicationStroop,2021.2.3,Win32,59.65875194,,,,,,,,,,,,,,,,,,,,,,,,,,,,,,,,,,,,,,,,,,,,,,,,,,,,,,,,,
,,,,left,1,0.3324,1,3,19,6,1,8,-200,left,739,2022-01-22_24h07.03.137,multiplicationStroop,2021.2.3,Win32,59.65875194,,,,,,,,,,,,,,,,,,,,,,,,,,,,,,,,,,,,,,,,,,,,,,,,,,,,,,,,,
,,,,right,1,0.321,1,4,20,13,1,7,200,right,739,2022-01-22_24h07.03.137,multiplicationStroop,2021.2.3,Win32,59.65875194,,,,,,,,,,,,,,,,,,,,,,,,,,,,,,,,,,,,,,,,,,,,,,,,,,,,,,,,,
,,,,left,1,0.346,1,5,21,5,1,7,-200,left,739,2022-01-22_24h07.03.137,multiplicationStroop,2021.2.3,Win32,59.65875194,,,,,,,,,,,,,,,,,,,,,,,,,,,,,,,,,,,,,,,,,,,,,,,,,,,,,,,,,
,,,,left,1,0.3677,1,6,22,3,1,4,-200,left,739,2022-01-22_24h07.03.137,multiplicationStroop,2021.2.3,Win32,59.65875194,,,,,,,,,,,,,,,,,,,,,,,,,,,,,,,,,,,,,,,,,,,,,,,,,,,,,,,,,
,,,,right,1,0.3735,1,7,23,10,1,3,200,right,739,2022-01-22_24h07.03.137,multiplicationStroop,2021.2.3,Win32,59.65875194,,,,,,,,,,,,,,,,,,,,,,,,,,,,,,,,,,,,,,,,,,,,,,,,,,,,,,,,,
,,,,left,1,0.334,1,8,24,0,1,1,-200,left,739,2022-01-22_24h07.03.137,multiplicationStroop,2021.2.3,Win32,59.65875194,,,,,,,,,,,,,,,,,,,,,,,,,,,,,,,,,,,,,,,,,,,,,,,,,,,,,,,,,
,,,,right,1,0.3564,1,9,25,14,1,8,200,right,739,2022-01-22_24h07.03.137,multiplicationStroop,2021.2.3,Win32,59.65875194,,,,,,,,,,,,,,,,,,,,,,,,,,,,,,,,,,,,,,,,,,,,,,,,,,,,,,,,,
,,,,right,1,0.3558,1,10,26,11,1,4,200,right,739,2022-01-22_24h07.03.137,multiplicationStroop,2021.2.3,Win32,59.65875194,,,,,,,,,,,,,,,,,,,,,,,,,,,,,,,,,,,,,,,,,,,,,,,,,,,,,,,,,
,,,,right,1,0.3004,1,11,27,15,1,9,200,right,739,2022-01-22_24h07.03.137,multiplicationStroop,2021.2.3,Win32,59.65875194,,,,,,,,,,,,,,,,,,,,,,,,,,,,,,,,,,,,,,,,,,,,,,,,,,,,,,,,,
,,,,left,1,0.31,1,12,28,2,1,3,-200,left,739,2022-01-22_24h07.03.137,multiplicationStroop,2021.2.3,Win32,59.65875194,,,,,,,,,,,,,,,,,,,,,,,,,,,,,,,,,,,,,,,,,,,,,,,,,,,,,,,,,
,,,,right,1,0.3644,1,13,29,8,1,1,200,right,739,2022-01-22_24h07.03.137,multiplicationStroop,2021.2.3,Win32,59.65875194,,,,,,,,,,,,,,,,,,,,,,,,,,,,,,,,,,,,,,,,,,,,,,,,,,,,,,,,,
,,,,left,1,0.3267,1,14,30,7,1,9,-200,left,739,2022-01-22_24h07.03.137,multiplicationStroop,2021.2.3,Win32,59.65875194,,,,,,,,,,,,,,,,,,,,,,,,,,,,,,,,,,,,,,,,,,,,,,,,,,,,,,,,,
,,,,right,1,0.3324,1,15,31,12,1,6,200,right,739,2022-01-22_24h07.03.137,multiplicationStroop,2021.2.3,Win32,59.65875194,,,,,,,,,,,,,,,,,,,,,,,,,,,,,,,,,,,,,,,,,,,,,,,,,,,,,,,,,
,,,,left,1,0.3149,2,0,32,7,1,9,-200,left,739,2022-01-22_24h07.03.137,multiplicationStroop,2021.2.3,Win32,59.65875194,,,,,,,,,,,,,,,,,,,,,,,,,,,,,,,,,,,,,,,,,,,,,,,,,,,,,,,,,
,,,,right,1,0.345,2,1,33,15,1,9,200,right,739,2022-01-22_24h07.03.137,multiplicationStroop,2021.2.3,Win32,59.65875194,,,,,,,,,,,,,,,,,,,,,,,,,,,,,,,,,,,,,,,,,,,,,,,,,,,,,,,,,
,,,,left,1,0.3374,2,2,34,0,1,1,-200,left,739,2022-01-22_24h07.03.137,multiplicationStroop,2021.2.3,Win32,59.65875194,,,,,,,,,,,,,,,,,,,,,,,,,,,,,,,,,,,,,,,,,,,,,,,,,,,,,,,,,
,,,,right,1,0.3625,2,3,35,11,1,4,200,right,739,2022-01-22_24h07.03.137,multiplicationStroop,2021.2.3,Win32,59.65875194,,,,,,,,,,,,,,,,,,,,,,,,,,,,,,,,,,,,,,,,,,,,,,,,,,,,,,,,,
,,,,left,1,0.2873,2,4,36,6,1,8,-200,left,739,2022-01-22_24h07.03.137,multiplicationStroop,2021.2.3,Win32,59.65875194,,,,,,,,,,,,,,,,,,,,,,,,,,,,,,,,,,,,,,,,,,,,,,,,,,,,,,,,,
,,,,right,1,0.3337,2,5,37,12,1,6,200,right,739,2022-01-22_24h07.03.137,multiplicationStroop,2021.2.3,Win32,59.65875194,,,,,,,,,,,,,,,,,,,,,,,,,,,,,,,,,,,,,,,,,,,,,,,,,,,,,,,,,
,,,,left,1,0.3181,2,6,38,5,1,7,-200,left,739,2022-01-22_24h07.03.137,multiplicationStroop,2021.2.3,Win32,59.65875194,,,,,,,,,,,,,,,,,,,,,,,,,,,,,,,,,,,,,,,,,,,,,,,,,,,,,,,,,
,,,,left,1,0.3854,2,7,39,2,1,3,-200,left,739,2022-01-22_24h07.03.137,multiplicationStroop,2021.2.3,Win32,59.65875194,,,,,,,,,,,,,,,,,,,,,,,,,,,,,,,,,,,,,,,,,,,,,,,,,,,,,,,,,
,,,,left,1,0.3184,2,8,40,3,1,4,-200,left,739,2022-01-22_24h07.03.137,multiplicationStroop,2021.2.3,Win32,59.65875194,,,,,,,,,,,,,,,,,,,,,,,,,,,,,,,,,,,,,,,,,,,,,,,,,,,,,,,,,
,,,,left,1,0.2929,2,9,41,1,1,2,-200,left,739,2022-01-22_24h07.03.137,multiplicationStroop,2021.2.3,Win32,59.65875194,,,,,,,,,,,,,,,,,,,,,,,,,,,,,,,,,,,,,,,,,,,,,,,,,,,,,,,,,
,,,,left,1,0.3166,2,10,42,4,1,6,-200,left,739,2022-01-22_24h07.03.137,multiplicationStroop,2021.2.3,Win32,59.65875194,,,,,,,,,,,,,,,,,,,,,,,,,,,,,,,,,,,,,,,,,,,,,,,,,,,,,,,,,
,,,,right,1,0.3714,2,11,43,14,1,8,200,right,739,2022-01-22_24h07.03.137,multiplicationStroop,2021.2.3,Win32,59.65875194,,,,,,,,,,,,,,,,,,,,,,,,,,,,,,,,,,,,,,,,,,,,,,,,,,,,,,,,,
,,,,right,1,0.3834,2,12,44,13,1,7,200,right,739,2022-01-22_24h07.03.137,multiplicationStroop,2021.2.3,Win32,59.65875194,,,,,,,,,,,,,,,,,,,,,,,,,,,,,,,,,,,,,,,,,,,,,,,,,,,,,,,,,
,,,,right,1,0.3282,2,13,45,8,1,1,200,right,739,2022-01-22_24h07.03.137,multiplicationStroop,2021.2.3,Win32,59.65875194,,,,,,,,,,,,,,,,,,,,,,,,,,,,,,,,,,,,,,,,,,,,,,,,,,,,,,,,,
,,,,right,1,0.3002,2,14,46,9,1,2,200,right,739,2022-01-22_24h07.03.137,multiplicationStroop,2021.2.3,Win32,59.65875194,,,,,,,,,,,,,,,,,,,,,,,,,,,,,,,,,,,,,,,,,,,,,,,,,,,,,,,,,
,,,,right,1,0.3178,2,15,47,10,1,3,200,right,739,2022-01-22_24h07.03.137,multiplicationStroop,2021.2.3,Win32,59.65875194,,,,,,,,,,,,,,,,,,,,,,,,,,,,,,,,,,,,,,,,,,,,,,,,,,,,,,,,,
,,,,left,1,0.354,3,0,48,2,1,3,-200,left,739,2022-01-22_24h07.03.137,multiplicationStroop,2021.2.3,Win32,59.65875194,,,,,,,,,,,,,,,,,,,,,,,,,,,,,,,,,,,,,,,,,,,,,,,,,,,,,,,,,
,,,,right,1,0.2916,3,1,49,12,1,6,200,right,739,2022-01-22_24h07.03.137,multiplicationStroop,2021.2.3,Win32,59.65875194,,,,,,,,,,,,,,,,,,,,,,,,,,,,,,,,,,,,,,,,,,,,,,,,,,,,,,,,,
,,,,left,1,0.3339,3,2,50,7,1,9,-200,left,739,2022-01-22_24h07.03.137,multiplicationStroop,2021.2.3,Win32,59.65875194,,,,,,,,,,,,,,,,,,,,,,,,,,,,,,,,,,,,,,,,,,,,,,,,,,,,,,,,,
,,,,left,1,0.3403,3,3,51,6,1,8,-200,left,739,2022-01-22_24h07.03.137,multiplicationStroop,2021.2.3,Win32,59.65875194,,,,,,,,,,,,,,,,,,,,,,,,,,,,,,,,,,,,,,,,,,,,,,,,,,,,,,,,,
,,,,right,1,0.5661,3,4,52,13,1,7,200,right,739,2022-01-22_24h07.03.137,multiplicationStroop,2021.2.3,Win32,59.65875194,,,,,,,,,,,,,,,,,,,,,,,,,,,,,,,,,,,,,,,,,,,,,,,,,,,,,,,,,
,,,,left,1,0.3563,3,5,53,3,1,4,-200,left,739,2022-01-22_24h07.03.137,multiplicationStroop,2021.2.3,Win32,59.65875194,,,,,,,,,,,,,,,,,,,,,,,,,,,,,,,,,,,,,,,,,,,,,,,,,,,,,,,,,
,,,,left,1,0.4145,3,6,54,0,1,1,-200,left,739,2022-01-22_24h07.03.137,multiplicationStroop,2021.2.3,Win32,59.65875194,,,,,,,,,,,,,,,,,,,,,,,,,,,,,,,,,,,,,,,,,,,,,,,,,,,,,,,,,
,,,,right,1,0.3314,3,7,55,11,1,4,200,right,739,2022-01-22_24h07.03.137,multiplicationStroop,2021.2.3,Win32,59.65875194,,,,,,,,,,,,,,,,,,,,,,,,,,,,,,,,,,,,,,,,,,,,,,,,,,,,,,,,,
,,,,right,1,0.3675,3,8,56,8,1,1,200,right,739,2022-01-22_24h07.03.137,multiplicationStroop,2021.2.3,Win32,59.65875194,,,,,,,,,,,,,,,,,,,,,,,,,,,,,,,,,,,,,,,,,,,,,,,,,,,,,,,,,
,,,,right,1,0.3311,3,9,57,10,1,3,200,right,739,2022-01-22_24h07.03.137,multiplicationStroop,2021.2.3,Win32,59.65875194,,,,,,,,,,,,,,,,,,,,,,,,,,,,,,,,,,,,,,,,,,,,,,,,,,,,,,,,,
,,,,left,1,0.3455,3,10,58,5,1,7,-200,left,739,2022-01-22_24h07.03.137,multiplicationStroop,2021.2.3,Win32,59.65875194,,,,,,,,,,,,,,,,,,,,,,,,,,,,,,,,,,,,,,,,,,,,,,,,,,,,,,,,,
,,,,right,1,0.3176,3,11,59,15,1,9,200,right,739,2022-01-22_24h07.03.137,multiplicationStroop,2021.2.3,Win32,59.65875194,,,,,,,,,,,,,,,,,,,,,,,,,,,,,,,,,,,,,,,,,,,,,,,,,,,,,,,,,
,,,,right,1,0.371,3,12,60,14,1,8,200,right,739,2022-01-22_24h07.03.137,multiplicationStroop,2021.2.3,Win32,59.65875194,,,,,,,,,,,,,,,,,,,,,,,,,,,,,,,,,,,,,,,,,,,,,,,,,,,,,,,,,
,,,,left,1,0.4103,3,13,61,1,1,2,-200,left,739,2022-01-22_24h07.03.137,multiplicationStroop,2021.2.3,Win32,59.65875194,,,,,,,,,,,,,,,,,,,,,,,,,,,,,,,,,,,,,,,,,,,,,,,,,,,,,,,,,
,,,,right,1,0.3072,3,14,62,9,1,2,200,right,739,2022-01-22_24h07.03.137,multiplicationStroop,2021.2.3,Win32,59.65875194,,,,,,,,,,,,,,,,,,,,,,,,,,,,,,,,,,,,,,,,,,,,,,,,,,,,,,,,,
,,,,left,1,0.2998,3,15,63,4,1,6,-200,left,739,2022-01-22_24h07.03.137,multiplicationStroop,2021.2.3,Win32,59.65875194,,,,,,,,,,,,,,,,,,,,,,,,,,,,,,,,,,,,,,,,,,,,,,,,,,,,,,,,,
,,,,,,,,,,,,,,,739,2022-01-22_24h07.03.137,multiplicationStroop,2021.2.3,Win32,59.65875194,space,17.0677,space,7.6424,right,1,0.8092,0,0,0,46,1,8,3,8 | 3,5,1.4111,1.9756,incongruent,right,,,,,,stimulusFile/physical.xlsx,,,,,,,,,,,,,,,,,,,,,,,,,,,,,,,
,,,,,,,,,,,,,,,739,2022-01-22_24h07.03.137,multiplicationStroop,2021.2.3,Win32,59.65875194,,,,,left,1,0.5637,0,1,1,53,1,4,4,4 | 4,0,1.9756,1.4111,neutral,left,,,,,,stimulusFile/physical.xlsx,,,,,,,,,,,,,,,,,,,,,,,,,,,,,,,
,,,,,,,,,,,,,,,739,2022-01-22_24h07.03.137,multiplicationStroop,2021.2.3,Win32,59.65875194,,,,,right,1,0.7945,0,2,2,1,1,3,4,3 | 4,1,1.4111,1.9756,congruent,right,,,,,,stimulusFile/physical.xlsx,,,,,,,,,,,,,,,,,,,,,,,,,,,,,,,
,,,,,,,,,,,,,,,739,2022-01-22_24h07.03.137,multiplicationStroop,2021.2.3,Win32,59.65875194,,,,,left,1,0.5171,0,3,3,6,1,7,6,7 | 6,1,1.9756,1.4111,congruent,left,,,,,,stimulusFile/physical.xlsx,,,,,,,,,,,,,,,,,,,,,,,,,,,,,,,
,,,,,,,,,,,,,,,739,2022-01-22_24h07.03.137,multiplicationStroop,2021.2.3,Win32,59.65875194,,,,,left,1,0.8144,0,4,4,26,1,6,7,6 | 7,1,1.9756,1.4111,incongruent,left,,,,,,stimulusFile/physical.xlsx,,,,,,,,,,,,,,,,,,,,,,,,,,,,,,,
,,,,,,,,,,,,,,,739,2022-01-22_24h07.03.137,multiplicationStroop,2021.2.3,Win32,59.65875194,,,,,right,1,1.5453,0,5,5,65,1,2,2,2 | 2,0,1.4111,1.9756,neutral,right,,,,,,stimulusFile/physical.xlsx,,,,,,,,,,,,,,,,,,,,,,,,,,,,,,,
,,,,,,,,,,,,,,,739,2022-01-22_24h07.03.137,multiplicationStroop,2021.2.3,Win32,59.65875194,,,,,right,1,0.5026,0,6,6,16,1,1,6,1 | 6,5,1.4111,1.9756,congruent,right,,,,,,stimulusFile/physical.xlsx,,,,,,,,,,,,,,,,,,,,,,,,,,,,,,,
,,,,,,,,,,,,,,,739,2022-01-22_24h07.03.137,multiplicationStroop,2021.2.3,Win32,59.65875194,,,,,left,1,0.4896,0,7,7,20,1,6,1,6 | 1,5,1.9756,1.4111,congruent,left,,,,,,stimulusFile/physical.xlsx,,,,,,,,,,,,,,,,,,,,,,,,,,,,,,,
,,,,,,,,,,,,,,,739,2022-01-22_24h07.03.137,multiplicationStroop,2021.2.3,Win32,59.65875194,,,,,left,0,0.4961,0,8,8,66,1,3,3,3 | 3,0,1.9756,1.4111,neutral,right,,,,,,stimulusFile/physical.xlsx,,,,,,,,,,,,,,,,,,,,,,,,,,,,,,,
,,,,,,,,,,,,,,,739,2022-01-22_24h07.03.137,multiplicationStroop,2021.2.3,Win32,59.65875194,,,,,right,1,0.465,0,9,9,0,1,1,2,1 | 2,1,1.4111,1.9756,congruent,right,,,,,,stimulusFile/physical.xlsx,,,,,,,,,,,,,,,,,,,,,,,,,,,,,,,
,,,,,,,,,,,,,,,739,2022-01-22_24h07.03.137,multiplicationStroop,2021.2.3,Win32,59.65875194,,,,,right,1,0.4999,0,10,10,31,1,9,8,9 | 8,1,1.4111,1.9756,incongruent,right,,,,,,stimulusFile/physical.xlsx,,,,,,,,,,,,,,,,,,,,,,,,,,,,,,,
,,,,,,,,,,,,,,,739,2022-01-22_24h07.03.137,multiplicationStroop,2021.2.3,Win32,59.65875194,,,,,right,1,0.4902,0,11,11,11,1,7,9,7 | 9,2,1.4111,1.9756,congruent,right,,,,,,stimulusFile/physical.xlsx,,,,,,,,,,,,,,,,,,,,,,,,,,,,,,,
,,,,,,,,,,,,,,,739,2022-01-22_24h07.03.137,multiplicationStroop,2021.2.3,Win32,59.65875194,,,,,left,1,0.4258,0,12,12,23,1,9,4,9 | 4,5,1.9756,1.4111,congruent,left,,,,,,stimulusFile/physical.xlsx,,,,,,,,,,,,,,,,,,,,,,,,,,,,,,,
,,,,,,,,,,,,,,,739,2022-01-22_24h07.03.137,multiplicationStroop,2021.2.3,Win32,59.65875194,,,,,left,1,0.4759,0,13,13,42,1,3,8,3 | 8,5,1.9756,1.4111,incongruent,left,,,,,,stimulusFile/physical.xlsx,,,,,,,,,,,,,,,,,,,,,,,,,,,,,,,
,,,,,,,,,,,,,,,739,2022-01-22_24h07.03.137,multiplicationStroop,2021.2.3,Win32,59.65875194,,,,,left,1,0.5319,0,14,14,25,1,3,4,3 | 4,1,1.9756,1.4111,incongruent,left,,,,,,stimulusFile/physical.xlsx,,,,,,,,,,,,,,,,,,,,,,,,,,,,,,,
,,,,,,,,,,,,,,,739,2022-01-22_24h07.03.137,multiplicationStroop,2021.2.3,Win32,59.65875194,,,,,left,1,0.5133,0,15,15,35,1,7,9,7 | 9,2,1.9756,1.4111,incongruent,left,,,,,,stimulusFile/physical.xlsx,,,,,,,,,,,,,,,,,,,,,,,,,,,,,,,
,,,,,,,,,,,,,,,739,2022-01-22_24h07.03.137,multiplicationStroop,2021.2.3,Win32,59.65875194,,,,,left,1,0.4517,0,16,16,13,1,4,2,4 | 2,2,1.9756,1.4111,congruent,left,,,,,,stimulusFile/physical.xlsx,,,,,,,,,,,,,,,,,,,,,,,,,,,,,,,
,,,,,,,,,,,,,,,739,2022-01-22_24h07.03.137,multiplicationStroop,2021.2.3,Win32,59.65875194,,,,,right,1,0.4741,0,17,17,9,1,2,4,2 | 4,2,1.4111,1.9756,congruent,right,,,,,,stimulusFile/physical.xlsx,,,,,,,,,,,,,,,,,,,,,,,,,,,,,,,
,,,,,,,,,,,,,,,739,2022-01-22_24h07.03.137,multiplicationStroop,2021.2.3,Win32,59.65875194,,,,,right,1,0.4568,0,18,18,56,1,1,1,1 | 1,0,1.4111,1.9756,neutral,right,,,,,,stimulusFile/physical.xlsx,,,,,,,,,,,,,,,,,,,,,,,,,,,,,,,
,,,,,,,,,,,,,,,739,2022-01-22_24h07.03.137,multiplicationStroop,2021.2.3,Win32,59.65875194,,,,,right,1,0.5483,0,19,19,10,1,6,8,6 | 8,2,1.4111,1.9756,congruent,right,,,,,,stimulusFile/physical.xlsx,,,,,,,,,,,,,,,,,,,,,,,,,,,,,,,
,,,,,,,,,,,,,,,739,2022-01-22_24h07.03.137,multiplicationStroop,2021.2.3,Win32,59.65875194,,,,,left,1,0.6232,0,20,20,40,1,1,6,1 | 6,5,1.9756,1.4111,incongruent,left,,,,,,stimulusFile/physical.xlsx,,,,,,,,,,,,,,,,,,,,,,,,,,,,,,,
,,,,,,,,,,,,,,,739,2022-01-22_24h07.03.137,multiplicationStroop,2021.2.3,Win32,59.65875194,,,,,left,1,0.5498,0,21,21,27,1,8,9,8 | 9,1,1.9756,1.4111,incongruent,left,,,,,,stimulusFile/physical.xlsx,,,,,,,,,,,,,,,,,,,,,,,,,,,,,,,
,,,,,,,,,,,,,,,739,2022-01-22_24h07.03.137,multiplicationStroop,2021.2.3,Win32,59.65875194,,,,,left,1,0.4783,0,22,22,12,1,3,1,3 | 1,2,1.9756,1.4111,congruent,left,,,,,,stimulusFile/physical.xlsx,,,,,,,,,,,,,,,,,,,,,,,,,,,,,,,
,,,,,,,,,,,,,,,739,2022-01-22_24h07.03.137,multiplicationStroop,2021.2.3,Win32,59.65875194,,,,,right,1,0.5004,0,23,23,58,1,6,6,6 | 6,0,1.4111,1.9756,neutral,right,,,,,,stimulusFile/physical.xlsx,,,,,,,,,,,,,,,,,,,,,,,,,,,,,,,
,,,,,,,,,,,,,,,739,2022-01-22_24h07.03.137,multiplicationStroop,2021.2.3,Win32,59.65875194,,,,,right,1,0.4799,0,24,24,62,1,8,8,8 | 8,0,1.4111,1.9756,neutral,right,,,,,,stimulusFile/physical.xlsx,,,,,,,,,,,,,,,,,,,,,,,,,,,,,,,
,,,,,,,,,,,,,,,739,2022-01-22_24h07.03.137,multiplicationStroop,2021.2.3,Win32,59.65875194,,,,,left,1,0.4449,0,25,25,21,1,7,2,7 | 2,5,1.9756,1.4111,congruent,left,,,,,,stimulusFile/physical.xlsx,,,,,,,,,,,,,,,,,,,,,,,,,,,,,,,
,,,,,,,,,,,,,,,739,2022-01-22_24h07.03.137,multiplicationStroop,2021.2.3,Win32,59.65875194,,,,,right,1,0.4854,0,26,26,2,1,6,7,6 | 7,1,1.4111,1.9756,congruent,right,,,,,,stimulusFile/physical.xlsx,,,,,,,,,,,,,,,,,,,,,,,,,,,,,,,
,,,,,,,,,,,,,,,739,2022-01-22_24h07.03.137,multiplicationStroop,2021.2.3,Win32,59.65875194,,,,,right,1,0.5674,0,27,27,57,1,2,2,2 | 2,0,1.4111,1.9756,neutral,right,,,,,,stimulusFile/physical.xlsx,,,,,,,,,,,,,,,,,,,,,,,,,,,,,,,
,,,,,,,,,,,,,,,739,2022-01-22_24h07.03.137,multiplicationStroop,2021.2.3,Win32,59.65875194,,,,,left,1,0.4229,0,28,28,22,1,8,3,8 | 3,5,1.9756,1.4111,congruent,left,,,,,,stimulusFile/physical.xlsx,,,,,,,,,,,,,,,,,,,,,,,,,,,,,,,
,,,,,,,,,,,,,,,739,2022-01-22_24h07.03.137,multiplicationStroop,2021.2.3,Win32,59.65875194,,,,,right,1,0.6982,0,29,29,39,1,9,7,9 | 7,2,1.4111,1.9756,incongruent,right,,,,,,stimulusFile/physical.xlsx,,,,,,,,,,,,,,,,,,,,,,,,,,,,,,,
,,,,,,,,,,,,,,,739,2022-01-22_24h07.03.137,multiplicationStroop,2021.2.3,Win32,59.65875194,,,,,right,1,0.4438,0,30,30,18,1,3,8,3 | 8,5,1.4111,1.9756,congruent,right,,,,,,stimulusFile/physical.xlsx,,,,,,,,,,,,,,,,,,,,,,,,,,,,,,,
,,,,,,,,,,,,,,,739,2022-01-22_24h07.03.137,multiplicationStroop,2021.2.3,Win32,59.65875194,,,,,right,1,0.6529,0,31,31,29,1,4,3,4 | 3,1,1.4111,1.9756,incongruent,right,,,,,,stimulusFile/physical.xlsx,,,,,,,,,,,,,,,,,,,,,,,,,,,,,,,
,,,,,,,,,,,,,,,739,2022-01-22_24h07.03.137,multiplicationStroop,2021.2.3,Win32,59.65875194,,,,,right,0,0.4818,0,32,32,69,1,7,7,7 | 7,0,1.4111,1.9756,neutral,left,,,,,,stimulusFile/physical.xlsx,,,,,,,,,,,,,,,,,,,,,,,,,,,,,,,
,,,,,,,,,,,,,,,739,2022-01-22_24h07.03.137,multiplicationStroop,2021.2.3,Win32,59.65875194,,,,,right,1,0.6167,0,33,33,61,1,4,4,4 | 4,0,1.4111,1.9756,neutral,right,,,,,,stimulusFile/physical.xlsx,,,,,,,,,,,,,,,,,,,,,,,,,,,,,,,
,,,,,,,,,,,,,,,739,2022-01-22_24h07.03.137,multiplicationStroop,2021.2.3,Win32,59.65875194,,,,,right,1,0.5869,0,34,34,36,1,3,1,3 | 1,2,1.4111,1.9756,incongruent,right,,,,,,stimulusFile/physical.xlsx,,,,,,,,,,,,,,,,,,,,,,,,,,,,,,,
,,,,,,,,,,,,,,,739,2022-01-22_24h07.03.137,multiplicationStroop,2021.2.3,Win32,59.65875194,,,,,right,1,0.4428,0,35,35,17,1,2,7,2 | 7,5,1.4111,1.9756,congruent,right,,,,,,stimulusFile/physical.xlsx,,,,,,,,,,,,,,,,,,,,,,,,,,,,,,,
,,,,,,,,,,,,,,,739,2022-01-22_24h07.03.137,multiplicationStroop,2021.2.3,Win32,59.65875194,,,,,right,1,0.847,0,36,36,47,1,9,4,9 | 4,5,1.4111,1.9756,incongruent,right,,,,,,stimulusFile/physical.xlsx,,,,,,,,,,,,,,,,,,,,,,,,,,,,,,,
,,,,,,,,,,,,,,,739,2022-01-22_24h07.03.137,multiplicationStroop,2021.2.3,Win32,59.65875194,,,,,left,1,0.5251,0,37,37,24,1,1,2,1 | 2,1,1.9756,1.4111,incongruent,left,,,,,,stimulusFile/physical.xlsx,,,,,,,,,,,,,,,,,,,,,,,,,,,,,,,
,,,,,,,,,,,,,,,739,2022-01-22_24h07.03.137,multiplicationStroop,2021.2.3,Win32,59.65875194,,,,,left,1,0.6,0,38,38,33,1,2,4,2 | 4,2,1.9756,1.4111,incongruent,left,,,,,,stimulusFile/physical.xlsx,,,,,,,,,,,,,,,,,,,,,,,,,,,,,,,
,,,,,,,,,,,,,,,739,2022-01-22_24h07.03.137,multiplicationStroop,2021.2.3,Win32,59.65875194,,,,,left,1,0.4879,0,39,39,51,1,8,8,8 | 8,0,1.9756,1.4111,neutral,left,,,,,,stimulusFile/physical.xlsx,,,,,,,,,,,,,,,,,,,,,,,,,,,,,,,
,,,,,,,,,,,,,,,739,2022-01-22_24h07.03.137,multiplicationStroop,2021.2.3,Win32,59.65875194,,,,,left,1,0.5077,0,40,40,43,1,4,9,4 | 9,5,1.9756,1.4111,incongruent,left,,,,,,stimulusFile/physical.xlsx,,,,,,,,,,,,,,,,,,,,,,,,,,,,,,,
,,,,,,,,,,,,,,,739,2022-01-22_24h07.03.137,multiplicationStroop,2021.2.3,Win32,59.65875194,,,,,left,1,0.45,0,41,41,55,1,9,9,9 | 9,0,1.9756,1.4111,neutral,left,,,,,,stimulusFile/physical.xlsx,,,,,,,,,,,,,,,,,,,,,,,,,,,,,,,
,,,,,,,,,,,,,,,739,2022-01-22_24h07.03.137,multiplicationStroop,2021.2.3,Win32,59.65875194,,,,,left,1,0.4383,0,42,42,14,1,8,6,8 | 6,2,1.9756,1.4111,congruent,left,,,,,,stimulusFile/physical.xlsx,,,,,,,,,,,,,,,,,,,,,,,,,,,,,,,
,,,,,,,,,,,,,,,739,2022-01-22_24h07.03.137,multiplicationStroop,2021.2.3,Win32,59.65875194,,,,,left,0,0.758,0,43,43,64,1,1,1,1 | 1,0,1.9756,1.4111,neutral,right,,,,,,stimulusFile/physical.xlsx,,,,,,,,,,,,,,,,,,,,,,,,,,,,,,,
,,,,,,,,,,,,,,,739,2022-01-22_24h07.03.137,multiplicationStroop,2021.2.3,Win32,59.65875194,,,,,right,0,0.5196,0,44,44,71,1,9,9,9 | 9,0,1.4111,1.9756,neutral,left,,,,,,stimulusFile/physical.xlsx,,,,,,,,,,,,,,,,,,,,,,,,,,,,,,,
,,,,,,,,,,,,,,,739,2022-01-22_24h07.03.137,multiplicationStroop,2021.2.3,Win32,59.65875194,,,,,left,1,0.4867,0,45,45,4,1,2,1,2 | 1,1,1.9756,1.4111,congruent,left,,,,,,stimulusFile/physical.xlsx,,,,,,,,,,,,,,,,,,,,,,,,,,,,,,,
,,,,,,,,,,,,,,,739,2022-01-22_24h07.03.137,multiplicationStroop,2021.2.3,Win32,59.65875194,,,,,right,1,0.4302,0,46,46,63,1,9,9,9 | 9,0,1.4111,1.9756,neutral,right,,,,,,stimulusFile/physical.xlsx,,,,,,,,,,,,,,,,,,,,,,,,,,,,,,,
,,,,,,,,,,,,,,,739,2022-01-22_24h07.03.137,multiplicationStroop,2021.2.3,Win32,59.65875194,,,,,left,1,0.5406,0,47,47,52,1,2,2,2 | 2,0,1.9756,1.4111,neutral,left,,,,,,stimulusFile/physical.xlsx,,,,,,,,,,,,,,,,,,,,,,,,,,,,,,,
,,,,,,,,,,,,,,,739,2022-01-22_24h07.03.137,multiplicationStroop,2021.2.3,Win32,59.65875194,,,,,left,1,0.5472,0,48,48,68,1,6,6,6 | 6,0,1.9756,1.4111,neutral,left,,,,,,stimulusFile/physical.xlsx,,,,,,,,,,,,,,,,,,,,,,,,,,,,,,,
,,,,,,,,,,,,,,,739,2022-01-22_24h07.03.137,multiplicationStroop,2021.2.3,Win32,59.65875194,,,,,left,1,0.799,0,49,49,32,1,1,3,1 | 3,2,1.9756,1.4111,incongruent,left,,,,,,stimulusFile/physical.xlsx,,,,,,,,,,,,,,,,,,,,,,,,,,,,,,,
,,,,,,,,,,,,,,,739,2022-01-22_24h07.03.137,multiplicationStroop,2021.2.3,Win32,59.65875194,,,,,left,1,0.9953,0,50,50,5,1,4,3,4 | 3,1,1.9756,1.4111,congruent,left,,,,,,stimulusFile/physical.xlsx,,,,,,,,,,,,,,,,,,,,,,,,,,,,,,,
,,,,,,,,,,,,,,,739,2022-01-22_24h07.03.137,multiplicationStroop,2021.2.3,Win32,59.65875194,,,,,right,1,0.7162,0,51,51,45,1,7,2,7 | 2,5,1.4111,1.9756,incongruent,right,,,,,,stimulusFile/physical.xlsx,,,,,,,,,,,,,,,,,,,,,,,,,,,,,,,
,,,,,,,,,,,,,,,739,2022-01-22_24h07.03.137,multiplicationStroop,2021.2.3,Win32,59.65875194,,,,,left,1,0.4817,0,52,52,7,1,9,8,9 | 8,1,1.9756,1.4111,congruent,left,,,,,,stimulusFile/physical.xlsx,,,,,,,,,,,,,,,,,,,,,,,,,,,,,,,
,,,,,,,,,,,,,,,739,2022-01-22_24h07.03.137,multiplicationStroop,2021.2.3,Win32,59.65875194,,,,,right,1,0.4408,0,53,53,3,1,8,9,8 | 9,1,1.4111,1.9756,congruent,right,,,,,,stimulusFile/physical.xlsx,,,,,,,,,,,,,,,,,,,,,,,,,,,,,,,
,,,,,,,,,,,,,,,739,2022-01-22_24h07.03.137,multiplicationStroop,2021.2.3,Win32,59.65875194,,,,,right,1,0.7131,0,54,54,59,1,7,7,7 | 7,0,1.4111,1.9756,neutral,right,,,,,,stimulusFile/physical.xlsx,,,,,,,,,,,,,,,,,,,,,,,,,,,,,,,
,,,,,,,,,,,,,,,739,2022-01-22_24h07.03.137,multiplicationStroop,2021.2.3,Win32,59.65875194,,,,,left,1,0.5092,0,55,55,15,1,9,7,9 | 7,2,1.9756,1.4111,congruent,left,,,,,,stimulusFile/physical.xlsx,,,,,,,,,,,,,,,,,,,,,,,,,,,,,,,
,,,,,,,,,,,,,,,739,2022-01-22_24h07.03.137,multiplicationStroop,2021.2.3,Win32,59.65875194,,,,,right,1,0.4471,0,56,56,28,1,2,1,2 | 1,1,1.4111,1.9756,incongruent,right,,,,,,stimulusFile/physical.xlsx,,,,,,,,,,,,,,,,,,,,,,,,,,,,,,,
,,,,,,,,,,,,,,,739,2022-01-22_24h07.03.137,multiplicationStroop,2021.2.3,Win32,59.65875194,,,,,right,1,0.5403,0,57,57,30,1,7,6,7 | 6,1,1.4111,1.9756,incongruent,right,,,,,,stimulusFile/physical.xlsx,,,,,,,,,,,,,,,,,,,,,,,,,,,,,,,
,,,,,,,,,,,,,,,739,2022-01-22_24h07.03.137,multiplicationStroop,2021.2.3,Win32,59.65875194,,,,,right,1,0.5231,0,58,58,38,1,8,6,8 | 6,2,1.4111,1.9756,incongruent,right,,,,,,stimulusFile/physical.xlsx,,,,,,,,,,,,,,,,,,,,,,,,,,,,,,,
,,,,,,,,,,,,,,,739,2022-01-22_24h07.03.137,multiplicationStroop,2021.2.3,Win32,59.65875194,,,,,left,1,0.4662,0,59,59,34,1,6,8,6 | 8,2,1.9756,1.4111,incongruent,left,,,,,,stimulusFile/physical.xlsx,,,,,,,,,,,,,,,,,,,,,,,,,,,,,,,
,,,,,,,,,,,,,,,739,2022-01-22_24h07.03.137,multiplicationStroop,2021.2.3,Win32,59.65875194,,,,,right,1,0.4158,0,60,60,19,1,4,9,4 | 9,5,1.4111,1.9756,congruent,right,,,,,,stimulusFile/physical.xlsx,,,,,,,,,,,,,,,,,,,,,,,,,,,,,,,
,,,,,,,,,,,,,,,739,2022-01-22_24h07.03.137,multiplicationStroop,2021.2.3,Win32,59.65875194,,,,,left,1,0.4778,0,61,61,54,1,7,7,7 | 7,0,1.9756,1.4111,neutral,left,,,,,,stimulusFile/physical.xlsx,,,,,,,,,,,,,,,,,,,,,,,,,,,,,,,
,,,,,,,,,,,,,,,739,2022-01-22_24h07.03.137,multiplicationStroop,2021.2.3,Win32,59.65875194,,,,,right,0,0.595,0,62,62,41,1,2,7,2 | 7,5,1.9756,1.4111,incongruent,left,,,,,,stimulusFile/physical.xlsx,,,,,,,,,,,,,,,,,,,,,,,,,,,,,,,
,,,,,,,,,,,,,,,739,2022-01-22_24h07.03.137,multiplicationStroop,2021.2.3,Win32,59.65875194,,,,,left,1,0.7654,0,63,63,48,1,1,1,1 | 1,0,1.9756,1.4111,neutral,left,,,,,,stimulusFile/physical.xlsx,,,,,,,,,,,,,,,,,,,,,,,,,,,,,,,
,,,,,,,,,,,,,,,739,2022-01-22_24h07.03.137,multiplicationStroop,2021.2.3,Win32,59.65875194,,,,,left,1,0.6138,0,64,64,49,1,3,3,3 | 3,0,1.9756,1.4111,neutral,left,,,,,,stimulusFile/physical.xlsx,,,,,,,,,,,,,,,,,,,,,,,,,,,,,,,
,,,,,,,,,,,,,,,739,2022-01-22_24h07.03.137,multiplicationStroop,2021.2.3,Win32,59.65875194,,,,,right,1,0.5141,0,65,65,37,1,4,2,4 | 2,2,1.4111,1.9756,incongruent,right,,,,,,stimulusFile/physical.xlsx,,,,,,,,,,,,,,,,,,,,,,,,,,,,,,,
,,,,,,,,,,,,,,,739,2022-01-22_24h07.03.137,multiplicationStroop,2021.2.3,Win32,59.65875194,,,,,right,1,0.501,0,66,66,8,1,1,3,1 | 3,2,1.4111,1.9756,congruent,right,,,,,,stimulusFile/physical.xlsx,,,,,,,,,,,,,,,,,,,,,,,,,,,,,,,
,,,,,,,,,,,,,,,739,2022-01-22_24h07.03.137,multiplicationStroop,2021.2.3,Win32,59.65875194,,,,,left,1,0.4752,0,67,67,70,1,8,8,8 | 8,0,1.9756,1.4111,neutral,left,,,,,,stimulusFile/physical.xlsx,,,,,,,,,,,,,,,,,,,,,,,,,,,,,,,
,,,,,,,,,,,,,,,739,2022-01-22_24h07.03.137,multiplicationStroop,2021.2.3,Win32,59.65875194,,,,,right,1,0.4827,0,68,68,67,1,4,4,4 | 4,0,1.4111,1.9756,neutral,right,,,,,,stimulusFile/physical.xlsx,,,,,,,,,,,,,,,,,,,,,,,,,,,,,,,
,,,,,,,,,,,,,,,739,2022-01-22_24h07.03.137,multiplicationStroop,2021.2.3,Win32,59.65875194,,,,,left,1,0.5084,0,69,69,50,1,6,6,6 | 6,0,1.9756,1.4111,neutral,left,,,,,,stimulusFile/physical.xlsx,,,,,,,,,,,,,,,,,,,,,,,,,,,,,,,
,,,,,,,,,,,,,,,739,2022-01-22_24h07.03.137,multiplicationStroop,2021.2.3,Win32,59.65875194,,,,,right,1,0.5028,0,70,70,60,1,3,3,3 | 3,0,1.4111,1.9756,neutral,right,,,,,,stimulusFile/physical.xlsx,,,,,,,,,,,,,,,,,,,,,,,,,,,,,,,
,,,,,,,,,,,,,,,739,2022-01-22_24h07.03.137,multiplicationStroop,2021.2.3,Win32,59.65875194,,,,,right,1,0.5967,0,71,71,44,1,6,1,6 | 1,5,1.4111,1.9756,incongruent,right,,,,,,stimulusFile/physical.xlsx,,,,,,,,,,,,,,,,,,,,,,,,,,,,,,,
,,,,,,,,,,,,,,,739,2022-01-22_24h07.03.137,multiplicationStroop,2021.2.3,Win32,59.65875194,,,,,,,,,,,,,,,,,,,,,0,0,0,1,1,stimulusFile/physical.xlsx,PHYSICALLY larger (larger font size).,images/physicallyLarger.png,,,,,,,,,,,,,,,,,,,,,,,,,,,,,
,,,,,,,,,,,,,,,739,2022-01-22_24h07.03.137,multiplicationStroop,2021.2.3,Win32,59.65875194,space,9.3708,space,6.7783,left,1,0.9439,0,0,0,15,1,9,7,9 | 7,2,1.9756,1.4111,congruent,left,,,,,,stimulusFile/magnitude.xlsx,,,,,,,,,,,,,,,,,,,,,,,,,,,,,,,
,,,,,,,,,,,,,,,739,2022-01-22_24h07.03.137,multiplicationStroop,2021.2.3,Win32,59.65875194,,,,,right,1,0.4943,0,1,1,56,1,1,3,1 | 3,2,1.6933,1.6933,neutral,right,,,,,,stimulusFile/magnitude.xlsx,,,,,,,,,,,,,,,,,,,,,,,,,,,,,,,
,,,,,,,,,,,,,,,739,2022-01-22_24h07.03.137,multiplicationStroop,2021.2.3,Win32,59.65875194,,,,,right,1,0.5927,0,2,2,16,1,1,6,1 | 6,5,1.4111,1.9756,congruent,right,,,,,,stimulusFile/magnitude.xlsx,,,,,,,,,,,,,,,,,,,,,,,,,,,,,,,
,,,,,,,,,,,,,,,739,2022-01-22_24h07.03.137,multiplicationStroop,2021.2.3,Win32,59.65875194,,,,,right,0,0.5531,0,3,3,36,1,3,1,3 | 1,2,1.4111,1.9756,incongruent,left,,,,,,stimulusFile/magnitude.xlsx,,,,,,,,,,,,,,,,,,,,,,,,,,,,,,,
,,,,,,,,,,,,,,,739,2022-01-22_24h07.03.137,multiplicationStroop,2021.2.3,Win32,59.65875194,,,,,left,1,0.4382,0,4,4,69,1,7,2,7 | 2,5,1.6933,1.6933,neutral,left,,,,,,stimulusFile/magnitude.xlsx,,,,,,,,,,,,,,,,,,,,,,,,,,,,,,,
,,,,,,,,,,,,,,,739,2022-01-22_24h07.03.137,multiplicationStroop,2021.2.3,Win32,59.65875194,,,,,right,0,0.4676,0,5,5,31,1,9,8,9 | 8,1,1.4111,1.9756,incongruent,left,,,,,,stimulusFile/magnitude.xlsx,,,,,,,,,,,,,,,,,,,,,,,,,,,,,,,
,,,,,,,,,,,,,,,739,2022-01-22_24h07.03.137,multiplicationStroop,2021.2.3,Win32,59.65875194,,,,,left,0,0.3885,0,6,6,43,1,4,9,4 | 9,5,1.9756,1.4111,incongruent,right,,,,,,stimulusFile/magnitude.xlsx,,,,,,,,,,,,,,,,,,,,,,,,,,,,,,,
,,,,,,,,,,,,,,,739,2022-01-22_24h07.03.137,multiplicationStroop,2021.2.3,Win32,59.65875194,,,,,right,1,1.9678,0,7,7,51,1,8,9,8 | 9,1,1.6933,1.6933,neutral,right,,,,,,stimulusFile/magnitude.xlsx,,,,,,,,,,,,,,,,,,,,,,,,,,,,,,,
,,,,,,,,,,,,,,,739,2022-01-22_24h07.03.137,multiplicationStroop,2021.2.3,Win32,59.65875194,,,,,right,0,0.6273,0,8,8,30,1,7,6,7 | 6,1,1.4111,1.9756,incongruent,left,,,,,,stimulusFile/magnitude.xlsx,,,,,,,,,,,,,,,,,,,,,,,,,,,,,,,
,,,,,,,,,,,,,,,739,2022-01-22_24h07.03.137,multiplicationStroop,2021.2.3,Win32,59.65875194,,,,,right,1,0.6581,0,9,9,19,1,4,9,4 | 9,5,1.4111,1.9756,congruent,right,,,,,,stimulusFile/magnitude.xlsx,,,,,,,,,,,,,,,,,,,,,,,,,,,,,,,
,,,,,,,,,,,,,,,739,2022-01-22_24h07.03.137,multiplicationStroop,2021.2.3,Win32,59.65875194,,,,,right,1,1.8651,0,10,10,58,1,6,8,6 | 8,2,1.6933,1.6933,neutral,right,,,,,,stimulusFile/magnitude.xlsx,,,,,,,,,,,,,,,,,,,,,,,,,,,,,,,
,,,,,,,,,,,,,,,739,2022-01-22_24h07.03.137,multiplicationStroop,2021.2.3,Win32,59.65875194,,,,,right,0,3.196,0,11,11,70,1,8,3,8 | 3,5,1.6933,1.6933,neutral,left,,,,,,stimulusFile/magnitude.xlsx,,,,,,,,,,,,,,,,,,,,,,,,,,,,,,,
,,,,,,,,,,,,,,,739,2022-01-22_24h07.03.137,multiplicationStroop,2021.2.3,Win32,59.65875194,,,,,left,0,0.6654,0,12,12,35,1,7,9,7 | 9,2,1.9756,1.4111,incongruent,right,,,,,,stimulusFile/magnitude.xlsx,,,,,,,,,,,,,,,,,,,,,,,,,,,,,,,
,,,,,,,,,,,,,,,739,2022-01-22_24h07.03.137,multiplicationStroop,2021.2.3,Win32,59.65875194,,,,,right,0,2.7148,0,13,13,60,1,3,1,3 | 1,2,1.6933,1.6933,neutral,left,,,,,,stimulusFile/magnitude.xlsx,,,,,,,,,,,,,,,,,,,,,,,,,,,,,,,
,,,,,,,,,,,,,,,739,2022-01-22_24h07.03.137,multiplicationStroop,2021.2.3,Win32,59.65875194,,,,,left,0,0.6507,0,14,14,27,1,8,9,8 | 9,1,1.9756,1.4111,incongruent,right,,,,,,stimulusFile/magnitude.xlsx,,,,,,,,,,,,,,,,,,,,,,,,,,,,,,,
,,,,,,,,,,,,,,,739,2022-01-22_24h07.03.137,multiplicationStroop,2021.2.3,Win32,59.65875194,,,,,left,0,0.739,0,15,15,32,1,1,3,1 | 3,2,1.9756,1.4111,incongruent,right,,,,,,stimulusFile/magnitude.xlsx,,,,,,,,,,,,,,,,,,,,,,,,,,,,,,,
,,,,,,,,,,,,,,,739,2022-01-22_24h07.03.137,multiplicationStroop,2021.2.3,Win32,59.65875194,,,,,right,1,0.5348,0,16,16,59,1,7,9,7 | 9,2,1.6933,1.6933,neutral,right,,,,,,stimulusFile/magnitude.xlsx,,,,,,,,,,,,,,,,,,,,,,,,,,,,,,,
,,,,,,,,,,,,,,,739,2022-01-22_24h07.03.137,multiplicationStroop,2021.2.3,Win32,59.65875194,,,,,left,1,0.5127,0,17,17,7,1,9,8,9 | 8,1,1.9756,1.4111,congruent,left,,,,,,stimulusFile/magnitude.xlsx,,,,,,,,,,,,,,,,,,,,,,,,,,,,,,,
,,,,,,,,,,,,,,,739,2022-01-22_24h07.03.137,multiplicationStroop,2021.2.3,Win32,59.65875194,,,,,right,1,0.5315,0,18,18,0,1,1,2,1 | 2,1,1.4111,1.9756,congruent,right,,,,,,stimulusFile/magnitude.xlsx,,,,,,,,,,,,,,,,,,,,,,,,,,,,,,,
,,,,,,,,,,,,,,,739,2022-01-22_24h07.03.137,multiplicationStroop,2021.2.3,Win32,59.65875194,,,,,right,0,0.9264,0,19,19,63,1,9,7,9 | 7,2,1.6933,1.6933,neutral,left,,,,,,stimulusFile/magnitude.xlsx,,,,,,,,,,,,,,,,,,,,,,,,,,,,,,,
,,,,,,,,,,,,,,,739,2022-01-22_24h07.03.137,multiplicationStroop,2021.2.3,Win32,59.65875194,,,,,left,1,0.4915,0,20,20,20,1,6,1,6 | 1,5,1.9756,1.4111,congruent,left,,,,,,stimulusFile/magnitude.xlsx,,,,,,,,,,,,,,,,,,,,,,,,,,,,,,,
,,,,,,,,,,,,,,,739,2022-01-22_24h07.03.137,multiplicationStroop,2021.2.3,Win32,59.65875194,,,,,right,0,0.4923,0,21,21,29,1,4,3,4 | 3,1,1.4111,1.9756,incongruent,left,,,,,,stimulusFile/magnitude.xlsx,,,,,,,,,,,,,,,,,,,,,,,,,,,,,,,
,,,,,,,,,,,,,,,739,2022-01-22_24h07.03.137,multiplicationStroop,2021.2.3,Win32,59.65875194,,,,,right,0,2.013,0,22,22,53,1,4,3,4 | 3,1,1.6933,1.6933,neutral,left,,,,,,stimulusFile/magnitude.xlsx,,,,,,,,,,,,,,,,,,,,,,,,,,,,,,,
,,,,,,,,,,,,,,,739,2022-01-22_24h07.03.137,multiplicationStroop,2021.2.3,Win32,59.65875194,,,,,right,0,0.7107,0,23,23,44,1,6,1,6 | 1,5,1.4111,1.9756,incongruent,left,,,,,,stimulusFile/magnitude.xlsx,,,,,,,,,,,,,,,,,,,,,,,,,,,,,,,
,,,,,,,,,,,,,,,739,2022-01-22_24h07.03.137,multiplicationStroop,2021.2.3,Win32,59.65875194,,,,,right,1,0.4901,0,24,24,3,1,8,9,8 | 9,1,1.4111,1.9756,congruent,right,,,,,,stimulusFile/magnitude.xlsx,,,,,,,,,,,,,,,,,,,,,,,,,,,,,,,
,,,,,,,,,,,,,,,739,2022-01-22_24h07.03.137,multiplicationStroop,2021.2.3,Win32,59.65875194,,,,,right,0,0.7589,0,25,25,45,1,7,2,7 | 2,5,1.4111,1.9756,incongruent,left,,,,,,stimulusFile/magnitude.xlsx,,,,,,,,,,,,,,,,,,,,,,,,,,,,,,,
,,,,,,,,,,,,,,,739,2022-01-22_24h07.03.137,multiplicationStroop,2021.2.3,Win32,59.65875194,,,,,right,0,0.5701,0,26,26,46,1,8,3,8 | 3,5,1.4111,1.9756,incongruent,left,,,,,,stimulusFile/magnitude.xlsx,,,,,,,,,,,,,,,,,,,,,,,,,,,,,,,
,,,,,,,,,,,,,,,739,2022-01-22_24h07.03.137,multiplicationStroop,2021.2.3,Win32,59.65875194,,,,,right,1,2.0966,0,27,27,57,1,2,4,2 | 4,2,1.6933,1.6933,neutral,right,,,,,,stimulusFile/magnitude.xlsx,,,,,,,,,,,,,,,,,,,,,,,,,,,,,,,
,,,,,,,,,,,,,,,739,2022-01-22_24h07.03.137,multiplicationStroop,2021.2.3,Win32,59.65875194,,,,,right,1,0.599,0,28,28,18,1,3,8,3 | 8,5,1.4111,1.9756,congruent,right,,,,,,stimulusFile/magnitude.xlsx,,,,,,,,,,,,,,,,,,,,,,,,,,,,,,,
,,,,,,,,,,,,,,,739,2022-01-22_24h07.03.137,multiplicationStroop,2021.2.3,Win32,59.65875194,,,,,right,0,0.6356,0,29,29,37,1,4,2,4 | 2,2,1.4111,1.9756,incongruent,left,,,,,,stimulusFile/magnitude.xlsx,,,,,,,,,,,,,,,,,,,,,,,,,,,,,,,
,,,,,,,,,,,,,,,739,2022-01-22_24h07.03.137,multiplicationStroop,2021.2.3,Win32,59.65875194,,,,,right,0,1.7634,0,30,30,71,1,9,4,9 | 4,5,1.6933,1.6933,neutral,left,,,,,,stimulusFile/magnitude.xlsx,,,,,,,,,,,,,,,,,,,,,,,,,,,,,,,
,,,,,,,,,,,,,,,739,2022-01-22_24h07.03.137,multiplicationStroop,2021.2.3,Win32,59.65875194,,,,,left,0,0.8791,0,31,31,33,1,2,4,2 | 4,2,1.9756,1.4111,incongruent,right,,,,,,stimulusFile/magnitude.xlsx,,,,,,,,,,,,,,,,,,,,,,,,,,,,,,,
,,,,,,,,,,,,,,,739,2022-01-22_24h07.03.137,multiplicationStroop,2021.2.3,Win32,59.65875194,,,,,left,0,0.8069,0,32,32,41,1,2,7,2 | 7,5,1.9756,1.4111,incongruent,right,,,,,,stimulusFile/magnitude.xlsx,,,,,,,,,,,,,,,,,,,,,,,,,,,,,,,
,,,,,,,,,,,,,,,739,2022-01-22_24h07.03.137,multiplicationStroop,2021.2.3,Win32,59.65875194,,,,,right,1,0.5541,0,33,33,11,1,7,9,7 | 9,2,1.4111,1.9756,congruent,right,,,,,,stimulusFile/magnitude.xlsx,,,,,,,,,,,,,,,,,,,,,,,,,,,,,,,
,,,,,,,,,,,,,,,739,2022-01-22_24h07.03.137,multiplicationStroop,2021.2.3,Win32,59.65875194,,,,,left,0,0.743,0,34,34,50,1,6,7,6 | 7,1,1.6933,1.6933,neutral,right,,,,,,stimulusFile/magnitude.xlsx,,,,,,,,,,,,,,,,,,,,,,,,,,,,,,,
,,,,,,,,,,,,,,,739,2022-01-22_24h07.03.137,multiplicationStroop,2021.2.3,Win32,59.65875194,,,,,left,0,0.5793,0,35,35,42,1,3,8,3 | 8,5,1.9756,1.4111,incongruent,right,,,,,,stimulusFile/magnitude.xlsx,,,,,,,,,,,,,,,,,,,,,,,,,,,,,,,
,,,,,,,,,,,,,,,739,2022-01-22_24h07.03.137,multiplicationStroop,2021.2.3,Win32,59.65875194,,,,,right,1,0.4426,0,36,36,64,1,1,6,1 | 6,5,1.6933,1.6933,neutral,right,,,,,,stimulusFile/magnitude.xlsx,,,,,,,,,,,,,,,,,,,,,,,,,,,,,,,
,,,,,,,,,,,,,,,739,2022-01-22_24h07.03.137,multiplicationStroop,2021.2.3,Win32,59.65875194,,,,,right,1,1.2405,0,37,37,49,1,3,4,3 | 4,1,1.6933,1.6933,neutral,right,,,,,,stimulusFile/magnitude.xlsx,,,,,,,,,,,,,,,,,,,,,,,,,,,,,,,
,,,,,,,,,,,,,,,739,2022-01-22_24h07.03.137,multiplicationStroop,2021.2.3,Win32,59.65875194,,,,,left,1,0.5341,0,38,38,21,1,7,2,7 | 2,5,1.9756,1.4111,congruent,left,,,,,,stimulusFile/magnitude.xlsx,,,,,,,,,,,,,,,,,,,,,,,,,,,,,,,
,,,,,,,,,,,,,,,739,2022-01-22_24h07.03.137,multiplicationStroop,2021.2.3,Win32,59.65875194,,,,,left,0,1.2383,0,39,39,67,1,4,9,4 | 9,5,1.6933,1.6933,neutral,right,,,,,,stimulusFile/magnitude.xlsx,,,,,,,,,,,,,,,,,,,,,,,,,,,,,,,
,,,,,,,,,,,,,,,739,2022-01-22_24h07.03.137,multiplicationStroop,2021.2.3,Win32,59.65875194,,,,,right,1,0.5182,0,40,40,8,1,1,3,1 | 3,2,1.4111,1.9756,congruent,right,,,,,,stimulusFile/magnitude.xlsx,,,,,,,,,,,,,,,,,,,,,,,,,,,,,,,
,,,,,,,,,,,,,,,739,2022-01-22_24h07.03.137,multiplicationStroop,2021.2.3,Win32,59.65875194,,,,,left,1,0.6048,0,41,41,13,1,4,2,4 | 2,2,1.9756,1.4111,congruent,left,,,,,,stimulusFile/magnitude.xlsx,,,,,,,,,,,,,,,,,,,,,,,,,,,,,,,
,,,,,,,,,,,,,,,739,2022-01-22_24h07.03.137,multiplicationStroop,2021.2.3,Win32,59.65875194,,,,,left,0,0.7019,0,42,42,26,1,6,7,6 | 7,1,1.9756,1.4111,incongruent,right,,,,,,stimulusFile/magnitude.xlsx,,,,,,,,,,,,,,,,,,,,,,,,,,,,,,,
,,,,,,,,,,,,,,,739,2022-01-22_24h07.03.137,multiplicationStroop,2021.2.3,Win32,59.65875194,,,,,left,0,0.8522,0,43,43,34,1,6,8,6 | 8,2,1.9756,1.4111,incongruent,right,,,,,,stimulusFile/magnitude.xlsx,,,,,,,,,,,,,,,,,,,,,,,,,,,,,,,
,,,,,,,,,,,,,,,739,2022-01-22_24h07.03.137,multiplicationStroop,2021.2.3,Win32,59.65875194,,,,,left,1,1.1678,0,44,44,55,1,9,8,9 | 8,1,1.6933,1.6933,neutral,left,,,,,,stimulusFile/magnitude.xlsx,,,,,,,,,,,,,,,,,,,,,,,,,,,,,,,
,,,,,,,,,,,,,,,739,2022-01-22_24h07.03.137,multiplicationStroop,2021.2.3,Win32,59.65875194,,,,,left,1,0.5977,0,45,45,23,1,9,4,9 | 4,5,1.9756,1.4111,congruent,left,,,,,,stimulusFile/magnitude.xlsx,,,,,,,,,,,,,,,,,,,,,,,,,,,,,,,
,,,,,,,,,,,,,,,739,2022-01-22_24h07.03.137,multiplicationStroop,2021.2.3,Win32,59.65875194,,,,,right,0,0.5176,0,46,46,39,1,9,7,9 | 7,2,1.4111,1.9756,incongruent,left,,,,,,stimulusFile/magnitude.xlsx,,,,,,,,,,,,,,,,,,,,,,,,,,,,,,,
,,,,,,,,,,,,,,,739,2022-01-22_24h07.03.137,multiplicationStroop,2021.2.3,Win32,59.65875194,,,,,right,1,0.5191,0,47,47,9,1,2,4,2 | 4,2,1.4111,1.9756,congruent,right,,,,,,stimulusFile/magnitude.xlsx,,,,,,,,,,,,,,,,,,,,,,,,,,,,,,,
,,,,,,,,,,,,,,,739,2022-01-22_24h07.03.137,multiplicationStroop,2021.2.3,Win32,59.65875194,,,,,right,0,1.0998,0,48,48,47,1,9,4,9 | 4,5,1.4111,1.9756,incongruent,left,,,,,,stimulusFile/magnitude.xlsx,,,,,,,,,,,,,,,,,,,,,,,,,,,,,,,
,,,,,,,,,,,,,,,739,2022-01-22_24h07.03.137,multiplicationStroop,2021.2.3,Win32,59.65875194,,,,,right,1,0.914,0,49,49,48,1,1,2,1 | 2,1,1.6933,1.6933,neutral,right,,,,,,stimulusFile/magnitude.xlsx,,,,,,,,,,,,,,,,,,,,,,,,,,,,,,,
,,,,,,,,,,,,,,,739,2022-01-22_24h07.03.137,multiplicationStroop,2021.2.3,Win32,59.65875194,,,,,right,0,0.8172,0,50,50,38,1,8,6,8 | 6,2,1.4111,1.9756,incongruent,left,,,,,,stimulusFile/magnitude.xlsx,,,,,,,,,,,,,,,,,,,,,,,,,,,,,,,
,,,,,,,,,,,,,,,739,2022-01-22_24h07.03.137,multiplicationStroop,2021.2.3,Win32,59.65875194,,,,,right,1,0.7701,0,51,51,10,1,6,8,6 | 8,2,1.4111,1.9756,congruent,right,,,,,,stimulusFile/magnitude.xlsx,,,,,,,,,,,,,,,,,,,,,,,,,,,,,,,
,,,,,,,,,,,,,,,739,2022-01-22_24h07.03.137,multiplicationStroop,2021.2.3,Win32,59.65875194,,,,,left,0,1.2291,0,52,52,25,1,3,4,3 | 4,1,1.9756,1.4111,incongruent,right,,,,,,stimulusFile/magnitude.xlsx,,,,,,,,,,,,,,,,,,,,,,,,,,,,,,,
,,,,,,,,,,,,,,,739,2022-01-22_24h07.03.137,multiplicationStroop,2021.2.3,Win32,59.65875194,,,,,left,1,0.8422,0,53,53,6,1,7,6,7 | 6,1,1.9756,1.4111,congruent,left,,,,,,stimulusFile/magnitude.xlsx,,,,,,,,,,,,,,,,,,,,,,,,,,,,,,,
,,,,,,,,,,,,,,,739,2022-01-22_24h07.03.137,multiplicationStroop,2021.2.3,Win32,59.65875194,,,,,right,0,0.6785,0,54,54,28,1,2,1,2 | 1,1,1.4111,1.9756,incongruent,left,,,,,,stimulusFile/magnitude.xlsx,,,,,,,,,,,,,,,,,,,,,,,,,,,,,,,
,,,,,,,,,,,,,,,739,2022-01-22_24h07.03.137,multiplicationStroop,2021.2.3,Win32,59.65875194,,,,,right,1,0.6724,0,55,55,2,1,6,7,6 | 7,1,1.4111,1.9756,congruent,right,,,,,,stimulusFile/magnitude.xlsx,,,,,,,,,,,,,,,,,,,,,,,,,,,,,,,
,,,,,,,,,,,,,,,739,2022-01-22_24h07.03.137,multiplicationStroop,2021.2.3,Win32,59.65875194,,,,,right,1,0.6351,0,56,56,66,1,3,8,3 | 8,5,1.6933,1.6933,neutral,right,,,,,,stimulusFile/magnitude.xlsx,,,,,,,,,,,,,,,,,,,,,,,,,,,,,,,
,,,,,,,,,,,,,,,739,2022-01-22_24h07.03.137,multiplicationStroop,2021.2.3,Win32,59.65875194,,,,,right,0,0.664,0,57,57,52,1,2,1,2 | 1,1,1.6933,1.6933,neutral,left,,,,,,stimulusFile/magnitude.xlsx,,,,,,,,,,,,,,,,,,,,,,,,,,,,,,,
,,,,,,,,,,,,,,,739,2022-01-22_24h07.03.137,multiplicationStroop,2021.2.3,Win32,59.65875194,,,,,right,0,1.4636,0,58,58,62,1,8,6,8 | 6,2,1.6933,1.6933,neutral,left,,,,,,stimulusFile/magnitude.xlsx,,,,,,,,,,,,,,,,,,,,,,,,,,,,,,,
,,,,,,,,,,,,,,,739,2022-01-22_24h07.03.137,multiplicationStroop,2021.2.3,Win32,59.65875194,,,,,right,1,0.5352,0,59,59,17,1,2,7,2 | 7,5,1.4111,1.9756,congruent,right,,,,,,stimulusFile/magnitude.xlsx,,,,,,,,,,,,,,,,,,,,,,,,,,,,,,,
,,,,,,,,,,,,,,,739,2022-01-22_24h07.03.137,multiplicationStroop,2021.2.3,Win32,59.65875194,,,,,left,0,0.6778,0,60,60,40,1,1,6,1 | 6,5,1.9756,1.4111,incongruent,right,,,,,,stimulusFile/magnitude.xlsx,,,,,,,,,,,,,,,,,,,,,,,,,,,,,,,
,,,,,,,,,,,,,,,739,2022-01-22_24h07.03.137,multiplicationStroop,2021.2.3,Win32,59.65875194,,,,,right,1,0.6413,0,61,61,65,1,2,7,2 | 7,5,1.6933,1.6933,neutral,right,,,,,,stimulusFile/magnitude.xlsx,,,,,,,,,,,,,,,,,,,,,,,,,,,,,,,
,,,,,,,,,,,,,,,739,2022-01-22_24h07.03.137,multiplicationStroop,2021.2.3,Win32,59.65875194,,,,,left,1,0.5515,0,62,62,5,1,4,3,4 | 3,1,1.9756,1.4111,congruent,left,,,,,,stimulusFile/magnitude.xlsx,,,,,,,,,,,,,,,,,,,,,,,,,,,,,,,
,,,,,,,,,,,,,,,739,2022-01-22_24h07.03.137,multiplicationStroop,2021.2.3,Win32,59.65875194,,,,,right,0,0.7838,0,63,63,54,1,7,6,7 | 6,1,1.6933,1.6933,neutral,left,,,,,,stimulusFile/magnitude.xlsx,,,,,,,,,,,,,,,,,,,,,,,,,,,,,,,
,,,,,,,,,,,,,,,739,2022-01-22_24h07.03.137,multiplicationStroop,2021.2.3,Win32,59.65875194,,,,,left,1,1.0185,0,64,64,61,1,4,2,4 | 2,2,1.6933,1.6933,neutral,left,,,,,,stimulusFile/magnitude.xlsx,,,,,,,,,,,,,,,,,,,,,,,,,,,,,,,
,,,,,,,,,,,,,,,739,2022-01-22_24h07.03.137,multiplicationStroop,2021.2.3,Win32,59.65875194,,,,,left,1,1.2221,0,65,65,12,1,3,1,3 | 1,2,1.9756,1.4111,congruent,left,,,,,,stimulusFile/magnitude.xlsx,,,,,,,,,,,,,,,,,,,,,,,,,,,,,,,
,,,,,,,,,,,,,,,739,2022-01-22_24h07.03.137,multiplicationStroop,2021.2.3,Win32,59.65875194,,,,,left,1,0.8342,0,66,66,4,1,2,1,2 | 1,1,1.9756,1.4111,congruent,left,,,,,,stimulusFile/magnitude.xlsx,,,,,,,,,,,,,,,,,,,,,,,,,,,,,,,
,,,,,,,,,,,,,,,739,2022-01-22_24h07.03.137,multiplicationStroop,2021.2.3,Win32,59.65875194,,,,,left,0,0.9342,0,67,67,24,1,1,2,1 | 2,1,1.9756,1.4111,incongruent,right,,,,,,stimulusFile/magnitude.xlsx,,,,,,,,,,,,,,,,,,,,,,,,,,,,,,,
,,,,,,,,,,,,,,,739,2022-01-22_24h07.03.137,multiplicationStroop,2021.2.3,Win32,59.65875194,,,,,left,1,0.5348,0,68,68,68,1,6,1,6 | 1,5,1.6933,1.6933,neutral,left,,,,,,stimulusFile/magnitude.xlsx,,,,,,,,,,,,,,,,,,,,,,,,,,,,,,,
,,,,,,,,,,,,,,,739,2022-01-22_24h07.03.137,multiplicationStroop,2021.2.3,Win32,59.65875194,,,,,left,1,4.6835,0,69,69,14,1,8,6,8 | 6,2,1.9756,1.4111,congruent,left,,,,,,stimulusFile/magnitude.xlsx,,,,,,,,,,,,,,,,,,,,,,,,,,,,,,,
,,,,,,,,,,,,,,,739,2022-01-22_24h07.03.137,multiplicationStroop,2021.2.3,Win32,59.65875194,,,,,right,1,0.6037,0,70,70,1,1,3,4,3 | 4,1,1.4111,1.9756,congruent,right,,,,,,stimulusFile/magnitude.xlsx,,,,,,,,,,,,,,,,,,,,,,,,,,,,,,,
,,,,,,,,,,,,,,,739,2022-01-22_24h07.03.137,multiplicationStroop,2021.2.3,Win32,59.65875194,,,,,left,1,0.5178,0,71,71,22,1,8,3,8 | 3,5,1.9756,1.4111,congruent,left,,,,,,stimulusFile/magnitude.xlsx,,,,,,,,,,,,,,,,,,,,,,,,,,,,,,,
,,,,,,,,,,,,,,,739,2022-01-22_24h07.03.137,multiplicationStroop,2021.2.3,Win32,59.65875194,,,,,,,,,,,,,,,,,,,,,0,1,1,0,1,stimulusFile/magnitude.xlsx,NUMERICALLY larger (larger coefficient).,images/numericallyLarger.png,,,,,,,,,,,,,,,,,,,,,,,,,,,,,
,,,,,,,,,,,,,,,739,2022-01-22_24h07.03.137,multiplicationStroop,2021.2.3,Win32,59.65875194,,,,,,,,,,,,,,,,,,,,,,,,,,,,,space,11.9281,space,1.5411,8,3.2895,1,0,0,0,3,1,2,×,4,2 × 4,neutral,smallerFirst,1.5,1.5,8,,,,,,,,
,,,,,,,,,,,,,,,739,2022-01-22_24h07.03.137,multiplicationStroop,2021.2.3,Win32,59.65875194,,,,,,,,,,,,,,,,,,,,,,,,,,,,,,,,,64,2.124,1,0,1,1,34,1,8,×,8,8 × 8,neutral,tie,1.5,1.5,64,,,,,,,,
,,,,,,,,,,,,,,,739,2022-01-22_24h07.03.137,multiplicationStroop,2021.2.3,Win32,59.65875194,,,,,,,,,,,,,,,,,,,,,,,,,,,,,,,,,24,2.8823,1,0,2,2,2,1,4,×,6,4 × 6,neutral,smallerFirst,1.5,1.5,24,,,,,,,,
,,,,,,,,,,,,,,,739,2022-01-22_24h07.03.137,multiplicationStroop,2021.2.3,Win32,59.65875194,,,,,,,,,,,,,,,,,,,,,,,,,,,,,,,,,81,2.1491,1,0,3,3,35,1,9,×,9,9 × 9,neutral,tie,1.5,1.5,81,,,,,,,,
,,,,,,,,,,,,,,,739,2022-01-22_24h07.03.137,multiplicationStroop,2021.2.3,Win32,59.65875194,,,,,,,,,,,,,,,,,,,,,,,,,,,,,,,,,42,1.7594,1,0,4,4,6,1,6,×,7,6 × 7,neutral,smallerFirst,1.5,1.5,42,,,,,,,,
,,,,,,,,,,,,,,,739,2022-01-22_24h07.03.137,multiplicationStroop,2021.2.3,Win32,59.65875194,,,,,,,,,,,,,,,,,,,,,,,,,,,,,,,,,36,1.9645,1,0,5,5,32,1,6,×,6,6 × 6,neutral,tie,1.5,1.5,36,,,,,,,,
,,,,,,,,,,,,,,,739,2022-01-22_24h07.03.137,multiplicationStroop,2021.2.3,Win32,59.65875194,,,,,,,,,,,,,,,,,,,,,,,,,,,,,,,,,20,1.8826,1,0,6,6,20,1,5,×,4,5 × 4,neutral,largerFirst,1.5,1.5,20,,,,,,,,
,,,,,,,,,,,,,,,739,2022-01-22_24h07.03.137,multiplicationStroop,2021.2.3,Win32,59.65875194,,,,,,,,,,,,,,,,,,,,,,,,,,,,,,,,,56,2.5821,1,0,7,7,9,1,7,×,8,7 × 8,neutral,smallerFirst,1.5,1.5,56,,,,,,,,
,,,,,,,,,,,,,,,739,2022-01-22_24h07.03.137,multiplicationStroop,2021.2.3,Win32,59.65875194,,,,,,,,,,,,,,,,,,,,,,,,,,,,,,,,,36,3.4078,1,0,8,8,27,1,9,×,4,9 × 4,neutral,largerFirst,1.5,1.5,36,,,,,,,,
,,,,,,,,,,,,,,,739,2022-01-22_24h07.03.137,multiplicationStroop,2021.2.3,Win32,59.65875194,,,,,,,,,,,,,,,,,,,,,,,,,,,,,,,,,30,2.049,1,0,9,9,19,1,6,×,5,6 × 5,neutral,largerFirst,1.5,1.5,30,,,,,,,,
,,,,,,,,,,,,,,,739,2022-01-22_24h07.03.137,multiplicationStroop,2021.2.3,Win32,59.65875194,,,,,,,,,,,,,,,,,,,,,,,,,,,,,,,,,25,1.7154,1,0,10,10,31,1,5,×,5,5 × 5,neutral,tie,1.5,1.5,25,,,,,,,,
,,,,,,,,,,,,,,,739,2022-01-22_24h07.03.137,multiplicationStroop,2021.2.3,Win32,59.65875194,,,,,,,,,,,,,,,,,,,,,,,,,,,,,,,,,6,1.915,1,0,11,11,26,1,3,×,2,3 × 2,neutral,largerFirst,1.5,1.5,6,,,,,,,,
,,,,,,,,,,,,,,,739,2022-01-22_24h07.03.137,multiplicationStroop,2021.2.3,Win32,59.65875194,,,,,,,,,,,,,,,,,,,,,,,,,,,,,,,,,32,1.8487,1,0,12,12,23,1,8,×,4,8 × 4,neutral,largerFirst,1.5,1.5,32,,,,,,,,
,,,,,,,,,,,,,,,739,2022-01-22_24h07.03.137,multiplicationStroop,2021.2.3,Win32,59.65875194,,,,,,,,,,,,,,,,,,,,,,,,,,,,,,,,,40,2.0815,1,0,13,13,24,1,8,×,5,8 × 5,neutral,largerFirst,1.5,1.5,40,,,,,,,,
,,,,,,,,,,,,,,,739,2022-01-22_24h07.03.137,multiplicationStroop,2021.2.3,Win32,59.65875194,,,,,,,,,,,,,,,,,,,,,,,,,,,,,,,,,12,1.4822,1,0,14,14,21,1,4,×,3,4 × 3,neutral,largerFirst,1.5,1.5,12,,,,,,,,
,,,,,,,,,,,,,,,739,2022-01-22_24h07.03.137,multiplicationStroop,2021.2.3,Win32,59.65875194,,,,,,,,,,,,,,,,,,,,,,,,,,,,,,,,,16,1.6655,1,0,15,15,13,1,2,×,8,2 × 8,neutral,smallerFirst,1.5,1.5,16,,,,,,,,
,,,,,,,,,,,,,,,739,2022-01-22_24h07.03.137,multiplicationStroop,2021.2.3,Win32,59.65875194,,,,,,,,,,,,,,,,,,,,,,,,,,,,,,,,,54,3.3152,0,0,16,16,12,1,7,×,9,7 × 9,neutral,smallerFirst,1.5,1.5,63,,,,,,,,
,,,,,,,,,,,,,,,739,2022-01-22_24h07.03.137,multiplicationStroop,2021.2.3,Win32,59.65875194,,,,,,,,,,,,,,,,,,,,,,,,,,,,,,,,,21,5.7984,0,0,17,17,14,1,9,×,3,9 × 3,neutral,largerFirst,1.5,1.5,27,,,,,,,,
,,,,,,,,,,,,,,,739,2022-01-22_24h07.03.137,multiplicationStroop,2021.2.3,Win32,59.65875194,,,,,,,,,,,,,,,,,,,,,,,,,,,,,,,,,16,1.9076,1,0,18,18,30,1,4,×,4,4 × 4,neutral,tie,1.5,1.5,16,,,,,,,,
,,,,,,,,,,,,,,,739,2022-01-22_24h07.03.137,multiplicationStroop,2021.2.3,Win32,59.65875194,,,,,,,,,,,,,,,,,,,,,,,,,,,,,,,,,18,1.8821,1,0,19,19,18,1,9,×,2,9 × 2,neutral,largerFirst,1.5,1.5,18,,,,,,,,
,,,,,,,,,,,,,,,739,2022-01-22_24h07.03.137,multiplicationStroop,2021.2.3,Win32,59.65875194,,,,,,,,,,,,,,,,,,,,,,,,,,,,,,,,,4,1.6818,1,0,20,20,28,1,2,×,2,2 × 2,neutral,tie,1.5,1.5,4,,,,,,,,
,,,,,,,,,,,,,,,739,2022-01-22_24h07.03.137,multiplicationStroop,2021.2.3,Win32,59.65875194,,,,,,,,,,,,,,,,,,,,,,,,,,,,,,,,,49,2.132,1,0,21,21,33,1,7,×,7,7 × 7,neutral,tie,1.5,1.5,49,,,,,,,,
,,,,,,,,,,,,,,,739,2022-01-22_24h07.03.137,multiplicationStroop,2021.2.3,Win32,59.65875194,,,,,,,,,,,,,,,,,,,,,,,,,,,,,,,,,28,2.3652,1,0,22,22,17,1,7,×,4,7 × 4,neutral,largerFirst,1.5,1.5,28,,,,,,,,
,,,,,,,,,,,,,,,739,2022-01-22_24h07.03.137,multiplicationStroop,2021.2.3,Win32,59.65875194,,,,,,,,,,,,,,,,,,,,,,,,,,,,,,,,,18,2.065,1,0,23,23,0,1,3,×,6,3 × 6,neutral,smallerFirst,1.5,1.5,18,,,,,,,,
,,,,,,,,,,,,,,,739,2022-01-22_24h07.03.137,multiplicationStroop,2021.2.3,Win32,59.65875194,,,,,,,,,,,,,,,,,,,,,,,,,,,,,,,,,45,2.3648,1,0,24,24,10,1,5,×,9,5 × 9,neutral,smallerFirst,1.5,1.5,45,,,,,,,,
,,,,,,,,,,,,,,,739,2022-01-22_24h07.03.137,multiplicationStroop,2021.2.3,Win32,59.65875194,,,,,,,,,,,,,,,,,,,,,,,,,,,,,,,,,35,2.283,1,0,25,25,1,1,5,×,7,5 × 7,neutral,smallerFirst,1.5,1.5,35,,,,,,,,
,,,,,,,,,,,,,,,739,2022-01-22_24h07.03.137,multiplicationStroop,2021.2.3,Win32,59.65875194,,,,,,,,,,,,,,,,,,,,,,,,,,,,,,,,,72,3.2418,1,0,26,26,11,1,8,×,9,8 × 9,neutral,smallerFirst,1.5,1.5,72,,,,,,,,
,,,,,,,,,,,,,,,739,2022-01-22_24h07.03.137,multiplicationStroop,2021.2.3,Win32,59.65875194,,,,,,,,,,,,,,,,,,,,,,,,,,,,,,,,,14,1.7161,1,0,27,27,16,1,7,×,2,7 × 2,neutral,largerFirst,1.5,1.5,14,,,,,,,,
,,,,,,,,,,,,,,,739,2022-01-22_24h07.03.137,multiplicationStroop,2021.2.3,Win32,59.65875194,,,,,,,,,,,,,,,,,,,,,,,,,,,,,,,,,9,1.8326,1,0,28,28,29,1,3,×,3,3 × 3,neutral,tie,1.5,1.5,9,,,,,,,,
,,,,,,,,,,,,,,,739,2022-01-22_24h07.03.137,multiplicationStroop,2021.2.3,Win32,59.65875194,,,,,,,,,,,,,,,,,,,,,,,,,,,,,,,,,54,3.9996,1,0,29,29,7,1,6,×,9,6 × 9,neutral,smallerFirst,1.5,1.5,54,,,,,,,,
,,,,,,,,,,,,,,,739,2022-01-22_24h07.03.137,multiplicationStroop,2021.2.3,Win32,59.65875194,,,,,,,,,,,,,,,,,,,,,,,,,,,,,,,,,48,1.9578,1,0,30,30,15,1,8,×,6,8 × 6,neutral,largerFirst,1.5,1.5,48,,,,,,,,
,,,,,,,,,,,,,,,739,2022-01-22_24h07.03.137,multiplicationStroop,2021.2.3,Win32,59.65875194,,,,,,,,,,,,,,,,,,,,,,,,,,,,,,,,,21,1.5989,1,0,31,31,8,1,3,×,7,3 × 7,neutral,smallerFirst,1.5,1.5,21,,,,,,,,
,,,,,,,,,,,,,,,739,2022-01-22_24h07.03.137,multiplicationStroop,2021.2.3,Win32,59.65875194,,,,,,,,,,,,,,,,,,,,,,,,,,,,,,,,,24,1.6661,1,0,32,32,22,1,8,×,3,8 × 3,neutral,largerFirst,1.5,1.5,24,,,,,,,,
,,,,,,,,,,,,,,,739,2022-01-22_24h07.03.137,multiplicationStroop,2021.2.3,Win32,59.65875194,,,,,,,,,,,,,,,,,,,,,,,,,,,,,,,,,10,1.8156,1,0,33,33,4,1,2,×,5,2 × 5,neutral,smallerFirst,1.5,1.5,10,,,,,,,,
,,,,,,,,,,,,,,,739,2022-01-22_24h07.03.137,multiplicationStroop,2021.2.3,Win32,59.65875194,,,,,,,,,,,,,,,,,,,,,,,,,,,,,,,,,15,1.6661,1,0,34,34,5,1,3,×,5,3 × 5,neutral,smallerFirst,1.5,1.5,15,,,,,,,,
,,,,,,,,,,,,,,,739,2022-01-22_24h07.03.137,multiplicationStroop,2021.2.3,Win32,59.65875194,,,,,,,,,,,,,,,,,,,,,,,,,,,,,,,,,12,1.6144,1,0,35,35,25,1,6,×,2,6 × 2,neutral,largerFirst,1.5,1.5,12,,,,,,,,
,,,,,,,,,,,,,,,739,2022-01-22_24h07.03.137,multiplicationStroop,2021.2.3,Win32,59.65875194,,,,,,,,,,,,,,,,,,,,,,,,,,,,,,,,,,,,,,,,,,,,,,,,,,0,0,0,1,1,stimulusFile/mult_blk2.xlsx,,
,,,,,,,,,,,,,,,739,2022-01-22_24h07.03.137,multiplicationStroop,2021.2.3,Win32,59.65875194,,,,,,,,,,,,,,,,,,,,,,,,,,,,,,,space,22.6373,81,4.7482,1,0,0,0,35,1,9,×,9,9 × 9,neutral,tie,1,2,81,,,,,,,,
,,,,,,,,,,,,,,,739,2022-01-22_24h07.03.137,multiplicationStroop,2021.2.3,Win32,59.65875194,,,,,,,,,,,,,,,,,,,,,,,,,,,,,,,,,49,2.0871,1,0,1,1,33,1,7,×,7,7 × 7,neutral,tie,1,2,49,,,,,,,,
,,,,,,,,,,,,,,,739,2022-01-22_24h07.03.137,multiplicationStroop,2021.2.3,Win32,59.65875194,,,,,,,,,,,,,,,,,,,,,,,,,,,,,,,,,15,1.9486,1,0,2,2,18,1,5,×,3,5 × 3,congruent,largerFirst,2,1,15,,,,,,,,
,,,,,,,,,,,,,,,739,2022-01-22_24h07.03.137,multiplicationStroop,2021.2.3,Win32,59.65875194,,,,,,,,,,,,,,,,,,,,,,,,,,,,,,,,,56,5.0149,1,0,3,3,22,1,8,×,7,8 × 7,congruent,largerFirst,2,1,56,,,,,,,,
,,,,,,,,,,,,,,,739,2022-01-22_24h07.03.137,multiplicationStroop,2021.2.3,Win32,59.65875194,,,,,,,,,,,,,,,,,,,,,,,,,,,,,,,,,6,1.8245,1,0,4,4,27,1,3,×,2,3 × 2,congruent,largerFirst,2,1,6,,,,,,,,
,,,,,,,,,,,,,,,739,2022-01-22_24h07.03.137,multiplicationStroop,2021.2.3,Win32,59.65875194,,,,,,,,,,,,,,,,,,,,,,,,,,,,,,,,,48,2.4811,1,0,5,5,4,1,6,×,8,6 × 8,congruent,smallerFirst,1,2,48,,,,,,,,
,,,,,,,,,,,,,,,739,2022-01-22_24h07.03.137,multiplicationStroop,2021.2.3,Win32,59.65875194,,,,,,,,,,,,,,,,,,,,,,,,,,,,,,,,,32,1.6736,1,0,6,6,6,1,4,×,8,4 × 8,congruent,smallerFirst,1,2,32,,,,,,,,
,,,,,,,,,,,,,,,739,2022-01-22_24h07.03.137,multiplicationStroop,2021.2.3,Win32,59.65875194,,,,,,,,,,,,,,,,,,,,,,,,,,,,,,,,,16,1.8658,1,0,7,7,19,1,8,×,2,8 × 2,congruent,largerFirst,2,1,16,,,,,,,,
,,,,,,,,,,,,,,,739,2022-01-22_24h07.03.137,multiplicationStroop,2021.2.3,Win32,59.65875194,,,,,,,,,,,,,,,,,,,,,,,,,,,,,,,,,42,1.8323,1,0,8,8,17,1,7,×,6,7 × 6,congruent,largerFirst,2,1,42,,,,,,,,
,,,,,,,,,,,,,,,739,2022-01-22_24h07.03.137,multiplicationStroop,2021.2.3,Win32,59.65875194,,,,,,,,,,,,,,,,,,,,,,,,,,,,,,,,,72,4.281,1,0,9,9,3,1,8,×,9,8 × 9,congruent,smallerFirst,1,2,72,,,,,,,,
,,,,,,,,,,,,,,,739,2022-01-22_24h07.03.137,multiplicationStroop,2021.2.3,Win32,59.65875194,,,,,,,,,,,,,,,,,,,,,,,,,,,,,,,,,14,1.6724,1,0,10,10,0,1,2,×,7,2 × 7,congruent,smallerFirst,1,2,14,,,,,,,,
,,,,,,,,,,,,,,,739,2022-01-22_24h07.03.137,multiplicationStroop,2021.2.3,Win32,59.65875194,,,,,,,,,,,,,,,,,,,,,,,,,,,,,,,,,27,1.9822,1,0,11,11,12,1,3,×,9,3 × 9,congruent,smallerFirst,1,2,27,,,,,,,,
,,,,,,,,,,,,,,,739,2022-01-22_24h07.03.137,multiplicationStroop,2021.2.3,Win32,59.65875194,,,,,,,,,,,,,,,,,,,,,,,,,,,,,,,,,36,2.3819,1,0,12,12,14,1,9,×,4,9 × 4,congruent,largerFirst,2,1,36,,,,,,,,
,,,,,,,,,,,,,,,739,2022-01-22_24h07.03.137,multiplicationStroop,2021.2.3,Win32,59.65875194,,,,,,,,,,,,,,,,,,,,,,,,,,,,,,,,,9,1.6159,1,0,13,13,29,1,3,×,3,3 × 3,neutral,tie,1,2,9,,,,,,,,
,,,,,,,,,,,,,,,739,2022-01-22_24h07.03.137,multiplicationStroop,2021.2.3,Win32,59.65875194,,,,,,,,,,,,,,,,,,,,,,,,,,,,,,,,,16,1.9156,1,0,14,14,30,1,4,×,4,4 × 4,neutral,tie,1,2,16,,,,,,,,
,,,,,,,,,,,,,,,739,2022-01-22_24h07.03.137,multiplicationStroop,2021.2.3,Win32,59.65875194,,,,,,,,,,,,,,,,,,,,,,,,,,,,,,,,,12,1.749,1,0,15,15,5,1,2,×,6,2 × 6,congruent,smallerFirst,1,2,12,,,,,,,,
,,,,,,,,,,,,,,,739,2022-01-22_24h07.03.137,multiplicationStroop,2021.2.3,Win32,59.65875194,,,,,,,,,,,,,,,,,,,,,,,,,,,,,,,,,30,2.2813,1,0,16,16,1,1,5,×,6,5 × 6,congruent,smallerFirst,1,2,30,,,,,,,,
,,,,,,,,,,,,,,,739,2022-01-22_24h07.03.137,multiplicationStroop,2021.2.3,Win32,59.65875194,,,,,,,,,,,,,,,,,,,,,,,,,,,,,,,,,18,2.099,1,0,17,17,25,1,6,×,3,6 × 3,congruent,largerFirst,2,1,18,,,,,,,,
,,,,,,,,,,,,,,,739,2022-01-22_24h07.03.137,multiplicationStroop,2021.2.3,Win32,59.65875194,,,,,,,,,,,,,,,,,,,,,,,,,,,,,,,,,10,2.3987,1,0,18,18,10,1,2,×,5,2 × 5,congruent,smallerFirst,1,2,10,,,,,,,,
,,,,,,,,,,,,,,,739,2022-01-22_24h07.03.137,multiplicationStroop,2021.2.3,Win32,59.65875194,,,,,,,,,,,,,,,,,,,,,,,,,,,,,,,,,8,1.9978,1,0,19,19,23,1,4,×,2,4 × 2,congruent,largerFirst,2,1,8,,,,,,,,
,,,,,,,,,,,,,,,739,2022-01-22_24h07.03.137,multiplicationStroop,2021.2.3,Win32,59.65875194,,,,,,,,,,,,,,,,,,,,,,,,,,,,,,,,,36,1.8685,1,0,20,20,32,1,6,×,6,6 × 6,neutral,tie,1,2,36,,,,,,,,
,,,,,,,,,,,,,,,739,2022-01-22_24h07.03.137,multiplicationStroop,2021.2.3,Win32,59.65875194,,,,,,,,,,,,,,,,,,,,,,,,,,,,,,,,,35,1.7632,1,0,21,21,15,1,7,×,5,7 × 5,congruent,largerFirst,2,1,35,,,,,,,,
,,,,,,,,,,,,,,,739,2022-01-22_24h07.03.137,multiplicationStroop,2021.2.3,Win32,59.65875194,,,,,,,,,,,,,,,,,,,,,,,,,,,,,,,,,42,3.2487,0,0,22,22,26,1,9,×,6,9 × 6,congruent,largerFirst,2,1,54,,,,,,,,
,,,,,,,,,,,,,,,739,2022-01-22_24h07.03.137,multiplicationStroop,2021.2.3,Win32,59.65875194,,,,,,,,,,,,,,,,,,,,,,,,,,,,,,,,,24,2.091,1,0,23,23,24,1,8,×,3,8 × 3,congruent,largerFirst,2,1,24,,,,,,,,
,,,,,,,,,,,,,,,739,2022-01-22_24h07.03.137,multiplicationStroop,2021.2.3,Win32,59.65875194,,,,,,,,,,,,,,,,,,,,,,,,,,,,,,,,,21,1.6816,1,0,24,24,2,1,3,×,7,3 × 7,congruent,smallerFirst,1,2,21,,,,,,,,
,,,,,,,,,,,,,,,739,2022-01-22_24h07.03.137,multiplicationStroop,2021.2.3,Win32,59.65875194,,,,,,,,,,,,,,,,,,,,,,,,,,,,,,,,,20,2.0825,1,0,25,25,21,1,5,×,4,5 × 4,congruent,largerFirst,2,1,20,,,,,,,,
,,,,,,,,,,,,,,,739,2022-01-22_24h07.03.137,multiplicationStroop,2021.2.3,Win32,59.65875194,,,,,,,,,,,,,,,,,,,,,,,,,,,,,,,,,64,2.8988,1,0,26,26,34,1,8,×,8,8 × 8,neutral,tie,1,2,64,,,,,,,,
,,,,,,,,,,,,,,,739,2022-01-22_24h07.03.137,multiplicationStroop,2021.2.3,Win32,59.65875194,,,,,,,,,,,,,,,,,,,,,,,,,,,,,,,,,4,1.5325,1,0,27,27,28,1,2,×,2,2 × 2,neutral,tie,1,2,4,,,,,,,,
,,,,,,,,,,,,,,,739,2022-01-22_24h07.03.137,multiplicationStroop,2021.2.3,Win32,59.65875194,,,,,,,,,,,,,,,,,,,,,,,,,,,,,,,,,63,3.9321,1,0,28,28,7,1,7,×,9,7 × 9,congruent,smallerFirst,1,2,63,,,,,,,,
,,,,,,,,,,,,,,,739,2022-01-22_24h07.03.137,multiplicationStroop,2021.2.3,Win32,59.65875194,,,,,,,,,,,,,,,,,,,,,,,,,,,,,,,,,40,2.5574,1,0,29,29,20,1,8,×,5,8 × 5,congruent,largerFirst,2,1,40,,,,,,,,
,,,,,,,,,,,,,,,739,2022-01-22_24h07.03.137,multiplicationStroop,2021.2.3,Win32,59.65875194,,,,,,,,,,,,,,,,,,,,,,,,,,,,,,,,,12,1.8317,1,0,30,30,16,1,4,×,3,4 × 3,congruent,largerFirst,2,1,12,,,,,,,,
,,,,,,,,,,,,,,,739,2022-01-22_24h07.03.137,multiplicationStroop,2021.2.3,Win32,59.65875194,,,,,,,,,,,,,,,,,,,,,,,,,,,,,,,,,24,1.9329,1,0,31,31,11,1,4,×,6,4 × 6,congruent,smallerFirst,1,2,24,,,,,,,,
,,,,,,,,,,,,,,,739,2022-01-22_24h07.03.137,multiplicationStroop,2021.2.3,Win32,59.65875194,,,,,,,,,,,,,,,,,,,,,,,,,,,,,,,,,28,2.5147,1,0,32,32,13,1,4,×,7,4 × 7,congruent,smallerFirst,1,2,28,,,,,,,,
,,,,,,,,,,,,,,,739,2022-01-22_24h07.03.137,multiplicationStroop,2021.2.3,Win32,59.65875194,,,,,,,,,,,,,,,,,,,,,,,,,,,,,,,,,18,3.0155,1,0,33,33,8,1,2,×,9,2 × 9,congruent,smallerFirst,1,2,18,,,,,,,,
,,,,,,,,,,,,,,,739,2022-01-22_24h07.03.137,multiplicationStroop,2021.2.3,Win32,59.65875194,,,,,,,,,,,,,,,,,,,,,,,,,,,,,,,,,25,1.8086,1,0,34,34,31,1,5,×,5,5 × 5,neutral,tie,1,2,25,,,,,,,,
,,,,,,,,,,,,,,,739,2022-01-22_24h07.03.137,multiplicationStroop,2021.2.3,Win32,59.65875194,,,,,,,,,,,,,,,,,,,,,,,,,,,,,,,,,45,2.2994,1,0,35,35,9,1,5,×,9,5 × 9,congruent,smallerFirst,1,2,45,,,,,,,,
,,,,,,,,,,,,,,,739,2022-01-22_24h07.03.137,multiplicationStroop,2021.2.3,Win32,59.65875194,,,,,,,,,,,,,,,,,,,,,,,,,,,,,,,,,,,,,,,,,,,,,,,,,,0,1,1,3,1,stimulusFile/mult_blk4_congruent.xlsx,,
,,,,,,,,,,,,,,,739,2022-01-22_24h07.03.137,multiplicationStroop,2021.2.3,Win32,59.65875194,,,,,,,,,,,,,,,,,,,,,,,,,,,,,,,space,2.6165,6,2.2156,1,0,0,0,13,1,2,×,3,2 × 3,congruent,smallerFirst,1,2,6,,,,,,,,
,,,,,,,,,,,,,,,739,2022-01-22_24h07.03.137,multiplicationStroop,2021.2.3,Win32,59.65875194,,,,,,,,,,,,,,,,,,,,,,,,,,,,,,,,,63,5.2154,1,0,1,1,21,1,9,×,7,9 × 7,congruent,largerFirst,2,1,63,,,,,,,,
,,,,,,,,,,,,,,,739,2022-01-22_24h07.03.137,multiplicationStroop,2021.2.3,Win32,59.65875194,,,,,,,,,,,,,,,,,,,,,,,,,,,,,,,,,81,2.073,1,0,2,2,35,1,9,×,9,9 × 9,neutral,tie,2,1,81,,,,,,,,
,,,,,,,,,,,,,,,739,2022-01-22_24h07.03.137,multiplicationStroop,2021.2.3,Win32,59.65875194,,,,,,,,,,,,,,,,,,,,,,,,,,,,,,,,,16,1.6321,1,0,3,3,30,1,4,×,4,4 × 4,neutral,tie,2,1,16,,,,,,,,
,,,,,,,,,,,,,,,739,2022-01-22_24h07.03.137,multiplicationStroop,2021.2.3,Win32,59.65875194,,,,,,,,,,,,,,,,,,,,,,,,,,,,,,,,,18,1.7158,1,0,4,4,22,1,9,×,2,9 × 2,congruent,largerFirst,2,1,18,,,,,,,,
,,,,,,,,,,,,,,,739,2022-01-22_24h07.03.137,multiplicationStroop,2021.2.3,Win32,59.65875194,,,,,,,,,,,,,,,,,,,,,,,,,,,,,,,,,54,1.6984,1,0,5,5,12,1,6,×,9,6 × 9,congruent,smallerFirst,1,2,54,,,,,,,,
,,,,,,,,,,,,,,,739,2022-01-22_24h07.03.137,multiplicationStroop,2021.2.3,Win32,59.65875194,,,,,,,,,,,,,,,,,,,,,,,,,,,,,,,,,64,2.1327,1,0,6,6,34,1,8,×,8,8 × 8,neutral,tie,2,1,64,,,,,,,,
,,,,,,,,,,,,,,,739,2022-01-22_24h07.03.137,multiplicationStroop,2021.2.3,Win32,59.65875194,,,,,,,,,,,,,,,,,,,,,,,,,,,,,,,,,56,1.9821,1,0,7,7,8,1,7,×,8,7 × 8,congruent,smallerFirst,1,2,56,,,,,,,,
,,,,,,,,,,,,,,,739,2022-01-22_24h07.03.137,multiplicationStroop,2021.2.3,Win32,59.65875194,,,,,,,,,,,,,,,,,,,,,,,,,,,,,,,,,27,1.9993,1,0,8,8,26,1,9,×,3,9 × 3,congruent,largerFirst,2,1,27,,,,,,,,
,,,,,,,,,,,,,,,739,2022-01-22_24h07.03.137,multiplicationStroop,2021.2.3,Win32,59.65875194,,,,,,,,,,,,,,,,,,,,,,,,,,,,,,,,,25,1.8158,1,0,9,9,31,1,5,×,5,5 × 5,neutral,tie,2,1,25,,,,,,,,
,,,,,,,,,,,,,,,739,2022-01-22_24h07.03.137,multiplicationStroop,2021.2.3,Win32,59.65875194,,,,,,,,,,,,,,,,,,,,,,,,,,,,,,,,,14,1.6991,0,0,10,10,4,1,3,×,5,3 × 5,congruent,smallerFirst,1,2,15,,,,,,,,
,,,,,,,,,,,,,,,739,2022-01-22_24h07.03.137,multiplicationStroop,2021.2.3,Win32,59.65875194,,,,,,,,,,,,,,,,,,,,,,,,,,,,,,,,,42,3.1493,1,0,11,11,3,1,6,×,7,6 × 7,congruent,smallerFirst,1,2,42,,,,,,,,
,,,,,,,,,,,,,,,739,2022-01-22_24h07.03.137,multiplicationStroop,2021.2.3,Win32,59.65875194,,,,,,,,,,,,,,,,,,,,,,,,,,,,,,,,,49,2.4577,1,0,12,12,33,1,7,×,7,7 × 7,neutral,tie,2,1,49,,,,,,,,
,,,,,,,,,,,,,,,739,2022-01-22_24h07.03.137,multiplicationStroop,2021.2.3,Win32,59.65875194,,,,,,,,,,,,,,,,,,,,,,,,,,,,,,,,,45,9.5654,1,0,13,13,23,1,9,×,5,9 × 5,congruent,largerFirst,2,1,45,,,,,,,,
,,,,,,,,,,,,,,,739,2022-01-22_24h07.03.137,multiplicationStroop,2021.2.3,Win32,59.65875194,,,,,,,,,,,,,,,,,,,,,,,,,,,,,,,,,24,1.7739,1,0,14,14,10,1,3,×,8,3 × 8,congruent,smallerFirst,1,2,24,,,,,,,,
,,,,,,,,,,,,,,,739,2022-01-22_24h07.03.137,multiplicationStroop,2021.2.3,Win32,59.65875194,,,,,,,,,,,,,,,,,,,,,,,,,,,,,,,,,12,1.3653,1,0,15,15,19,1,6,×,2,6 × 2,congruent,largerFirst,2,1,12,,,,,,,,
,,,,,,,,,,,,,,,739,2022-01-22_24h07.03.137,multiplicationStroop,2021.2.3,Win32,59.65875194,,,,,,,,,,,,,,,,,,,,,,,,,,,,,,,,,8,2.049,1,0,16,16,9,1,2,×,4,2 × 4,congruent,smallerFirst,1,2,8,,,,,,,,
,,,,,,,,,,,,,,,739,2022-01-22_24h07.03.137,multiplicationStroop,2021.2.3,Win32,59.65875194,,,,,,,,,,,,,,,,,,,,,,,,,,,,,,,,,12,1.5829,1,0,17,17,2,1,3,×,4,3 × 4,congruent,smallerFirst,1,2,12,,,,,,,,
,,,,,,,,,,,,,,,739,2022-01-22_24h07.03.137,multiplicationStroop,2021.2.3,Win32,59.65875194,,,,,,,,,,,,,,,,,,,,,,,,,,,,,,,,,28,2.6158,1,0,18,18,27,1,7,×,4,7 × 4,congruent,largerFirst,2,1,28,,,,,,,,
,,,,,,,,,,,,,,,739,2022-01-22_24h07.03.137,multiplicationStroop,2021.2.3,Win32,59.65875194,,,,,,,,,,,,,,,,,,,,,,,,,,,,,,,,,35,2.3148,1,0,19,19,1,1,5,×,7,5 × 7,congruent,smallerFirst,1,2,35,,,,,,,,
,,,,,,,,,,,,,,,739,2022-01-22_24h07.03.137,multiplicationStroop,2021.2.3,Win32,59.65875194,,,,,,,,,,,,,,,,,,,,,,,,,,,,,,,,,36,2.5486,1,0,20,20,32,1,6,×,6,6 × 6,neutral,tie,2,1,36,,,,,,,,
,,,,,,,,,,,,,,,739,2022-01-22_24h07.03.137,multiplicationStroop,2021.2.3,Win32,59.65875194,,,,,,,,,,,,,,,,,,,,,,,,,,,,,,,,,18,2.4407,1,0,21,21,11,1,3,×,6,3 × 6,congruent,smallerFirst,1,2,18,,,,,,,,
,,,,,,,,,,,,,,,739,2022-01-22_24h07.03.137,multiplicationStroop,2021.2.3,Win32,59.65875194,,,,,,,,,,,,,,,,,,,,,,,,,,,,,,,,,16,2.0979,1,0,22,22,5,1,2,×,8,2 × 8,congruent,smallerFirst,1,2,16,,,,,,,,
,,,,,,,,,,,,,,,739,2022-01-22_24h07.03.137,multiplicationStroop,2021.2.3,Win32,59.65875194,,,,,,,,,,,,,,,,,,,,,,,,,,,,,,,,,40,1.9314,1,0,23,23,6,1,5,×,8,5 × 8,congruent,smallerFirst,1,2,40,,,,,,,,
,,,,,,,,,,,,,,,739,2022-01-22_24h07.03.137,multiplicationStroop,2021.2.3,Win32,59.65875194,,,,,,,,,,,,,,,,,,,,,,,,,,,,,,,,,20,1.9819,1,0,24,24,7,1,4,×,5,4 × 5,congruent,smallerFirst,1,2,20,,,,,,,,
,,,,,,,,,,,,,,,739,2022-01-22_24h07.03.137,multiplicationStroop,2021.2.3,Win32,59.65875194,,,,,,,,,,,,,,,,,,,,,,,,,,,,,,,,,48,2.1823,1,0,25,25,18,1,8,×,6,8 × 6,congruent,largerFirst,2,1,48,,,,,,,,
,,,,,,,,,,,,,,,739,2022-01-22_24h07.03.137,multiplicationStroop,2021.2.3,Win32,59.65875194,,,,,,,,,,,,,,,,,,,,,,,,,,,,,,,,,14,6.6641,1,0,26,26,14,1,7,×,2,7 × 2,congruent,largerFirst,2,1,14,,,,,,,,
,,,,,,,,,,,,,,,739,2022-01-22_24h07.03.137,multiplicationStroop,2021.2.3,Win32,59.65875194,,,,,,,,,,,,,,,,,,,,,,,,,,,,,,,,,10,2.0742,1,0,27,27,24,1,5,×,2,5 × 2,congruent,largerFirst,2,1,10,,,,,,,,
,,,,,,,,,,,,,,,739,2022-01-22_24h07.03.137,multiplicationStroop,2021.2.3,Win32,59.65875194,,,,,,,,,,,,,,,,,,,,,,,,,,,,,,,,,24,1.5997,1,0,28,28,25,1,6,×,4,6 × 4,congruent,largerFirst,2,1,24,,,,,,,,
,,,,,,,,,,,,,,,739,2022-01-22_24h07.03.137,multiplicationStroop,2021.2.3,Win32,59.65875194,,,,,,,,,,,,,,,,,,,,,,,,,,,,,,,,,32,1.6667,1,0,29,29,20,1,8,×,4,8 × 4,congruent,largerFirst,2,1,32,,,,,,,,
,,,,,,,,,,,,,,,739,2022-01-22_24h07.03.137,multiplicationStroop,2021.2.3,Win32,59.65875194,,,,,,,,,,,,,,,,,,,,,,,,,,,,,,,,,21,1.5478,1,0,30,30,16,1,7,×,3,7 × 3,congruent,largerFirst,2,1,21,,,,,,,,
,,,,,,,,,,,,,,,739,2022-01-22_24h07.03.137,multiplicationStroop,2021.2.3,Win32,59.65875194,,,,,,,,,,,,,,,,,,,,,,,,,,,,,,,,,36,2.966,1,0,31,31,0,1,4,×,9,4 × 9,congruent,smallerFirst,1,2,36,,,,,,,,
,,,,,,,,,,,,,,,739,2022-01-22_24h07.03.137,multiplicationStroop,2021.2.3,Win32,59.65875194,,,,,,,,,,,,,,,,,,,,,,,,,,,,,,,,,72,3.6154,1,0,32,32,17,1,9,×,8,9 × 8,congruent,largerFirst,2,1,72,,,,,,,,
,,,,,,,,,,,,,,,739,2022-01-22_24h07.03.137,multiplicationStroop,2021.2.3,Win32,59.65875194,,,,,,,,,,,,,,,,,,,,,,,,,,,,,,,,,30,4.6242,1,0,33,33,15,1,6,×,5,6 × 5,congruent,largerFirst,2,1,30,,,,,,,,
,,,,,,,,,,,,,,,739,2022-01-22_24h07.03.137,multiplicationStroop,2021.2.3,Win32,59.65875194,,,,,,,,,,,,,,,,,,,,,,,,,,,,,,,,,9,1.824,1,0,34,34,29,1,3,×,3,3 × 3,neutral,tie,2,1,9,,,,,,,,
,,,,,,,,,,,,,,,739,2022-01-22_24h07.03.137,multiplicationStroop,2021.2.3,Win32,59.65875194,,,,,,,,,,,,,,,,,,,,,,,,,,,,,,,,,4,1.5156,1,0,35,35,28,1,2,×,2,2 × 2,neutral,tie,2,1,4,,,,,,,,
,,,,,,,,,,,,,,,739,2022-01-22_24h07.03.137,multiplicationStroop,2021.2.3,Win32,59.65875194,,,,,,,,,,,,,,,,,,,,,,,,,,,,,,,,,,,,,,,,,,,,,,,,,,0,2,2,2,1,stimulusFile/mult_blk3_congruent.xlsx,,
,,,,,,,,,,,,,,,739,2022-01-22_24h07.03.137,multiplicationStroop,2021.2.3,Win32,59.65875194,,,,,,,,,,,,,,,,,,,,,,,,,,,,,,,space,19.7429,10,2.8794,1,0,0,0,18,1,5,×,2,5 × 2,neutral,largerFirst,1.5,1.5,10,,,,,,,,
,,,,,,,,,,,,,,,739,2022-01-22_24h07.03.137,multiplicationStroop,2021.2.3,Win32,59.65875194,,,,,,,,,,,,,,,,,,,,,,,,,,,,,,,,,64,2.1152,1,0,1,1,34,1,8,×,8,8 × 8,neutral,tie,1.5,1.5,64,,,,,,,,
,,,,,,,,,,,,,,,739,2022-01-22_24h07.03.137,multiplicationStroop,2021.2.3,Win32,59.65875194,,,,,,,,,,,,,,,,,,,,,,,,,,,,,,,,,42,3.5489,1,0,2,2,20,1,7,×,6,7 × 6,neutral,largerFirst,1.5,1.5,42,,,,,,,,
,,,,,,,,,,,,,,,739,2022-01-22_24h07.03.137,multiplicationStroop,2021.2.3,Win32,59.65875194,,,,,,,,,,,,,,,,,,,,,,,,,,,,,,,,,16,1.8398,1,0,3,3,30,1,4,×,4,4 × 4,neutral,tie,1.5,1.5,16,,,,,,,,
,,,,,,,,,,,,,,,739,2022-01-22_24h07.03.137,multiplicationStroop,2021.2.3,Win32,59.65875194,,,,,,,,,,,,,,,,,,,,,,,,,,,,,,,,,18,1.6658,1,0,4,4,14,1,6,×,3,6 × 3,neutral,largerFirst,1.5,1.5,18,,,,,,,,
,,,,,,,,,,,,,,,739,2022-01-22_24h07.03.137,multiplicationStroop,2021.2.3,Win32,59.65875194,,,,,,,,,,,,,,,,,,,,,,,,,,,,,,,,,63,2.9321,1,0,5,5,26,1,9,×,7,9 × 7,neutral,largerFirst,1.5,1.5,63,,,,,,,,
,,,,,,,,,,,,,,,739,2022-01-22_24h07.03.137,multiplicationStroop,2021.2.3,Win32,59.65875194,,,,,,,,,,,,,,,,,,,,,,,,,,,,,,,,,81,1.7995,1,0,6,6,35,1,9,×,9,9 × 9,neutral,tie,1.5,1.5,81,,,,,,,,
,,,,,,,,,,,,,,,739,2022-01-22_24h07.03.137,multiplicationStroop,2021.2.3,Win32,59.65875194,,,,,,,,,,,,,,,,,,,,,,,,,,,,,,,,,12,1.4321,1,0,7,7,11,1,2,×,6,2 × 6,neutral,smallerFirst,1.5,1.5,12,,,,,,,,
,,,,,,,,,,,,,,,739,2022-01-22_24h07.03.137,multiplicationStroop,2021.2.3,Win32,59.65875194,,,,,,,,,,,,,,,,,,,,,,,,,,,,,,,,,63,4.5818,0,0,8,8,25,1,9,×,8,9 × 8,neutral,largerFirst,1.5,1.5,72,,,,,,,,
,,,,,,,,,,,,,,,739,2022-01-22_24h07.03.137,multiplicationStroop,2021.2.3,Win32,59.65875194,,,,,,,,,,,,,,,,,,,,,,,,,,,,,,,,,35,2.8869,1,0,9,9,15,1,7,×,5,7 × 5,neutral,largerFirst,1.5,1.5,35,,,,,,,,
,,,,,,,,,,,,,,,739,2022-01-22_24h07.03.137,multiplicationStroop,2021.2.3,Win32,59.65875194,,,,,,,,,,,,,,,,,,,,,,,,,,,,,,,,,4,1.5484,1,0,10,10,28,1,2,×,2,2 × 2,neutral,tie,1.5,1.5,4,,,,,,,,
,,,,,,,,,,,,,,,739,2022-01-22_24h07.03.137,multiplicationStroop,2021.2.3,Win32,59.65875194,,,,,,,,,,,,,,,,,,,,,,,,,,,,,,,,,54,2.5159,1,0,11,11,21,1,9,×,6,9 × 6,neutral,largerFirst,1.5,1.5,54,,,,,,,,
,,,,,,,,,,,,,,,739,2022-01-22_24h07.03.137,multiplicationStroop,2021.2.3,Win32,59.65875194,,,,,,,,,,,,,,,,,,,,,,,,,,,,,,,,,9,1.965,1,0,12,12,29,1,3,×,3,3 × 3,neutral,tie,1.5,1.5,9,,,,,,,,
,,,,,,,,,,,,,,,739,2022-01-22_24h07.03.137,multiplicationStroop,2021.2.3,Win32,59.65875194,,,,,,,,,,,,,,,,,,,,,,,,,,,,,,,,,15,1.6659,1,0,13,13,19,1,5,×,3,5 × 3,neutral,largerFirst,1.5,1.5,15,,,,,,,,
,,,,,,,,,,,,,,,739,2022-01-22_24h07.03.137,multiplicationStroop,2021.2.3,Win32,59.65875194,,,,,,,,,,,,,,,,,,,,,,,,,,,,,,,,,25,1.9981,1,0,14,14,31,1,5,×,5,5 × 5,neutral,tie,1.5,1.5,25,,,,,,,,
,,,,,,,,,,,,,,,739,2022-01-22_24h07.03.137,multiplicationStroop,2021.2.3,Win32,59.65875194,,,,,,,,,,,,,,,,,,,,,,,,,,,,,,,,,45,2.9993,1,0,15,15,24,1,9,×,5,9 × 5,neutral,largerFirst,1.5,1.5,45,,,,,,,,
,,,,,,,,,,,,,,,739,2022-01-22_24h07.03.137,multiplicationStroop,2021.2.3,Win32,59.65875194,,,,,,,,,,,,,,,,,,,,,,,,,,,,,,,,,18,3.2571,1,0,16,16,4,1,2,×,9,2 × 9,neutral,smallerFirst,1.5,1.5,18,,,,,,,,
,,,,,,,,,,,,,,,739,2022-01-22_24h07.03.137,multiplicationStroop,2021.2.3,Win32,59.65875194,,,,,,,,,,,,,,,,,,,,,,,,,,,,,,,,,56,9.2478,1,0,17,17,23,1,8,×,7,8 × 7,neutral,largerFirst,1.5,1.5,56,,,,,,,,
,,,,,,,,,,,,,,,739,2022-01-22_24h07.03.137,multiplicationStroop,2021.2.3,Win32,59.65875194,,,,,,,,,,,,,,,,,,,,,,,,,,,,,,,,,27,3.9566,1,0,18,18,0,1,3,×,9,3 × 9,neutral,smallerFirst,1.5,1.5,27,,,,,,,,
,,,,,,,,,,,,,,,739,2022-01-22_24h07.03.137,multiplicationStroop,2021.2.3,Win32,59.65875194,,,,,,,,,,,,,,,,,,,,,,,,,,,,,,,,,16,1.899,1,0,19,19,27,1,8,×,2,8 × 2,neutral,largerFirst,1.5,1.5,16,,,,,,,,
,,,,,,,,,,,,,,,739,2022-01-22_24h07.03.137,multiplicationStroop,2021.2.3,Win32,59.65875194,,,,,,,,,,,,,,,,,,,,,,,,,,,,,,,,,14,1.766,1,0,20,20,2,1,2,×,7,2 × 7,neutral,smallerFirst,1.5,1.5,14,,,,,,,,
,,,,,,,,,,,,,,,739,2022-01-22_24h07.03.137,multiplicationStroop,2021.2.3,Win32,59.65875194,,,,,,,,,,,,,,,,,,,,,,,,,,,,,,,,,6,1.7159,1,0,21,21,12,1,2,×,3,2 × 3,neutral,smallerFirst,1.5,1.5,6,,,,,,,,
,,,,,,,,,,,,,,,739,2022-01-22_24h07.03.137,multiplicationStroop,2021.2.3,Win32,59.65875194,,,,,,,,,,,,,,,,,,,,,,,,,,,,,,,,,36,6.0985,1,0,22,22,32,1,6,×,6,6 × 6,neutral,tie,1.5,1.5,36,,,,,,,,
,,,,,,,,,,,,,,,739,2022-01-22_24h07.03.137,multiplicationStroop,2021.2.3,Win32,59.65875194,,,,,,,,,,,,,,,,,,,,,,,,,,,,,,,,,32,1.624,1,0,23,23,9,1,4,×,8,4 × 8,neutral,smallerFirst,1.5,1.5,32,,,,,,,,
,,,,,,,,,,,,,,,739,2022-01-22_24h07.03.137,multiplicationStroop,2021.2.3,Win32,59.65875194,,,,,,,,,,,,,,,,,,,,,,,,,,,,,,,,,24,1.7159,1,0,24,24,8,1,3,×,8,3 × 8,neutral,smallerFirst,1.5,1.5,24,,,,,,,,
,,,,,,,,,,,,,,,739,2022-01-22_24h07.03.137,multiplicationStroop,2021.2.3,Win32,59.65875194,,,,,,,,,,,,,,,,,,,,,,,,,,,,,,,,,12,1.416,1,0,25,25,7,1,3,×,4,3 × 4,neutral,smallerFirst,1.5,1.5,12,,,,,,,,
,,,,,,,,,,,,,,,739,2022-01-22_24h07.03.137,multiplicationStroop,2021.2.3,Win32,59.65875194,,,,,,,,,,,,,,,,,,,,,,,,,,,,,,,,,24,1.8822,1,0,26,26,16,1,6,×,4,6 × 4,neutral,largerFirst,1.5,1.5,24,,,,,,,,
,,,,,,,,,,,,,,,739,2022-01-22_24h07.03.137,multiplicationStroop,2021.2.3,Win32,59.65875194,,,,,,,,,,,,,,,,,,,,,,,,,,,,,,,,,28,4.4318,1,0,27,27,3,1,4,×,7,4 × 7,neutral,smallerFirst,1.5,1.5,28,,,,,,,,
,,,,,,,,,,,,,,,739,2022-01-22_24h07.03.137,multiplicationStroop,2021.2.3,Win32,59.65875194,,,,,,,,,,,,,,,,,,,,,,,,,,,,,,,,,21,1.4921,1,0,28,28,22,1,7,×,3,7 × 3,neutral,largerFirst,1.5,1.5,21,,,,,,,,
,,,,,,,,,,,,,,,739,2022-01-22_24h07.03.137,multiplicationStroop,2021.2.3,Win32,59.65875194,,,,,,,,,,,,,,,,,,,,,,,,,,,,,,,,,36,3.7492,1,0,29,29,13,1,4,×,9,4 × 9,neutral,smallerFirst,1.5,1.5,36,,,,,,,,
,,,,,,,,,,,,,,,739,2022-01-22_24h07.03.137,multiplicationStroop,2021.2.3,Win32,59.65875194,,,,,,,,,,,,,,,,,,,,,,,,,,,,,,,,,30,2.1326,1,0,30,30,5,1,5,×,6,5 × 6,neutral,smallerFirst,1.5,1.5,30,,,,,,,,
,,,,,,,,,,,,,,,739,2022-01-22_24h07.03.137,multiplicationStroop,2021.2.3,Win32,59.65875194,,,,,,,,,,,,,,,,,,,,,,,,,,,,,,,,,48,2.2153,1,0,31,31,1,1,6,×,8,6 × 8,neutral,smallerFirst,1.5,1.5,48,,,,,,,,
,,,,,,,,,,,,,,,739,2022-01-22_24h07.03.137,multiplicationStroop,2021.2.3,Win32,59.65875194,,,,,,,,,,,,,,,,,,,,,,,,,,,,,,,,,49,2.2078,1,0,32,32,33,1,7,×,7,7 × 7,neutral,tie,1.5,1.5,49,,,,,,,,
,,,,,,,,,,,,,,,739,2022-01-22_24h07.03.137,multiplicationStroop,2021.2.3,Win32,59.65875194,,,,,,,,,,,,,,,,,,,,,,,,,,,,,,,,,8,1.8167,1,0,33,33,17,1,4,×,2,4 × 2,neutral,largerFirst,1.5,1.5,8,,,,,,,,
,,,,,,,,,,,,,,,739,2022-01-22_24h07.03.137,multiplicationStroop,2021.2.3,Win32,59.65875194,,,,,,,,,,,,,,,,,,,,,,,,,,,,,,,,,20,1.7652,1,0,34,34,6,1,4,×,5,4 × 5,neutral,smallerFirst,1.5,1.5,20,,,,,,,,
,,,,,,,,,,,,,,,739,2022-01-22_24h07.03.137,multiplicationStroop,2021.2.3,Win32,59.65875194,,,,,,,,,,,,,,,,,,,,,,,,,,,,,,,,,40,2.4488,1,0,35,35,10,1,5,×,8,5 × 8,neutral,smallerFirst,1.5,1.5,40,,,,,,,,
,,,,,,,,,,,,,,,739,2022-01-22_24h07.03.137,multiplicationStroop,2021.2.3,Win32,59.65875194,,,,,,,,,,,,,,,,,,,,,,,,,,,,,,,,,,,,,,,,,,,,,,,,,,0,3,3,0,1,stimulusFile/mult_blk1.xlsx,,
,,,,,,,,,,,,,,,739,2022-01-22_24h07.03.137,multiplicationStroop,2021.2.3,Win32,59.65875194,,,,,,,,,,,,,,,,,,,,,,,,,,,,,,,space,49.507,14,2.3582,1,0,0,0,4,1,2,×,7,2 × 7,incongruent,smallerFirst,2,1,14,,,,,,,,
,,,,,,,,,,,,,,,739,2022-01-22_24h07.03.137,multiplicationStroop,2021.2.3,Win32,59.65875194,,,,,,,,,,,,,,,,,,,,,,,,,,,,,,,,,54,7.5654,1,0,1,1,6,1,6,×,9,6 × 9,incongruent,smallerFirst,2,1,54,,,,,,,,
,,,,,,,,,,,,,,,739,2022-01-22_24h07.03.137,multiplicationStroop,2021.2.3,Win32,59.65875194,,,,,,,,,,,,,,,,,,,,,,,,,,,,,,,,,25,1.5073,1,0,2,2,31,1,5,×,5,5 × 5,incongruent,tie,1,2,25,,,,,,,,
,,,,,,,,,,,,,,,739,2022-01-22_24h07.03.137,multiplicationStroop,2021.2.3,Win32,59.65875194,,,,,,,,,,,,,,,,,,,,,,,,,,,,,,,,,10,1.7994,1,0,3,3,21,1,5,×,2,5 × 2,incongruent,largerFirst,1,2,10,,,,,,,,
,,,,,,,,,,,,,,,739,2022-01-22_24h07.03.137,multiplicationStroop,2021.2.3,Win32,59.65875194,,,,,,,,,,,,,,,,,,,,,,,,,,,,,,,,,12,1.4657,1,0,4,4,19,1,6,×,2,6 × 2,incongruent,largerFirst,1,2,12,,,,,,,,
,,,,,,,,,,,,,,,739,2022-01-22_24h07.03.137,multiplicationStroop,2021.2.3,Win32,59.65875194,,,,,,,,,,,,,,,,,,,,,,,,,,,,,,,,,20,1.732,1,0,5,5,27,1,5,×,4,5 × 4,incongruent,largerFirst,1,2,20,,,,,,,,
,,,,,,,,,,,,,,,739,2022-01-22_24h07.03.137,multiplicationStroop,2021.2.3,Win32,59.65875194,,,,,,,,,,,,,,,,,,,,,,,,,,,,,,,,,18,1.7657,1,0,6,6,2,1,2,×,9,2 × 9,incongruent,smallerFirst,2,1,18,,,,,,,,
,,,,,,,,,,,,,,,739,2022-01-22_24h07.03.137,multiplicationStroop,2021.2.3,Win32,59.65875194,,,,,,,,,,,,,,,,,,,,,,,,,,,,,,,,,15,1.4487,1,0,7,7,10,1,3,×,5,3 × 5,incongruent,smallerFirst,2,1,15,,,,,,,,
,,,,,,,,,,,,,,,739,2022-01-22_24h07.03.137,multiplicationStroop,2021.2.3,Win32,59.65875194,,,,,,,,,,,,,,,,,,,,,,,,,,,,,,,,,72,5.715,1,0,8,8,0,1,8,×,9,8 × 9,incongruent,smallerFirst,2,1,72,,,,,,,,
,,,,,,,,,,,,,,,739,2022-01-22_24h07.03.137,multiplicationStroop,2021.2.3,Win32,59.65875194,,,,,,,,,,,,,,,,,,,,,,,,,,,,,,,,,9,2.0769,1,0,9,9,29,1,3,×,3,3 × 3,incongruent,tie,1,2,9,,,,,,,,
,,,,,,,,,,,,,,,739,2022-01-22_24h07.03.137,multiplicationStroop,2021.2.3,Win32,59.65875194,,,,,,,,,,,,,,,,,,,,,,,,,,,,,,,,,6,1.6476,1,0,10,10,11,1,2,×,3,2 × 3,incongruent,smallerFirst,2,1,6,,,,,,,,
,,,,,,,,,,,,,,,739,2022-01-22_24h07.03.137,multiplicationStroop,2021.2.3,Win32,59.65875194,,,,,,,,,,,,,,,,,,,,,,,,,,,,,,,,,18,2.0662,1,0,11,11,8,1,3,×,6,3 × 6,incongruent,smallerFirst,2,1,18,,,,,,,,
,,,,,,,,,,,,,,,739,2022-01-22_24h07.03.137,multiplicationStroop,2021.2.3,Win32,59.65875194,,,,,,,,,,,,,,,,,,,,,,,,,,,,,,,,,8,1.649,1,0,12,12,24,1,4,×,2,4 × 2,incongruent,largerFirst,1,2,8,,,,,,,,
,,,,,,,,,,,,,,,739,2022-01-22_24h07.03.137,multiplicationStroop,2021.2.3,Win32,59.65875194,,,,,,,,,,,,,,,,,,,,,,,,,,,,,,,,,36,2.4825,1,0,13,13,32,1,6,×,6,6 × 6,incongruent,tie,1,2,36,,,,,,,,
,,,,,,,,,,,,,,,739,2022-01-22_24h07.03.137,multiplicationStroop,2021.2.3,Win32,59.65875194,,,,,,,,,,,,,,,,,,,,,,,,,,,,,,,,,32,2.0419,1,0,14,14,7,1,4,×,8,4 × 8,incongruent,smallerFirst,2,1,32,,,,,,,,
,,,,,,,,,,,,,,,739,2022-01-22_24h07.03.137,multiplicationStroop,2021.2.3,Win32,59.65875194,,,,,,,,,,,,,,,,,,,,,,,,,,,,,,,,,56,2.349,1,0,15,15,14,1,8,×,7,8 × 7,incongruent,largerFirst,1,2,56,,,,,,,,
,,,,,,,,,,,,,,,739,2022-01-22_24h07.03.137,multiplicationStroop,2021.2.3,Win32,59.65875194,,,,,,,,,,,,,,,,,,,,,,,,,,,,,,,,,24,1.7321,1,0,16,16,20,1,6,×,4,6 × 4,incongruent,largerFirst,1,2,24,,,,,,,,
,,,,,,,,,,,,,,,739,2022-01-22_24h07.03.137,multiplicationStroop,2021.2.3,Win32,59.65875194,,,,,,,,,,,,,,,,,,,,,,,,,,,,,,,,,30,1.8161,1,0,17,17,25,1,6,×,5,6 × 5,incongruent,largerFirst,1,2,30,,,,,,,,
,,,,,,,,,,,,,,,739,2022-01-22_24h07.03.137,multiplicationStroop,2021.2.3,Win32,59.65875194,,,,,,,,,,,,,,,,,,,,,,,,,,,,,,,,,4,1.4825,1,0,18,18,28,1,2,×,2,2 × 2,incongruent,tie,1,2,4,,,,,,,,
,,,,,,,,,,,,,,,739,2022-01-22_24h07.03.137,multiplicationStroop,2021.2.3,Win32,59.65875194,,,,,,,,,,,,,,,,,,,,,,,,,,,,,,,,,63,2.8491,1,0,19,19,3,1,7,×,9,7 × 9,incongruent,smallerFirst,2,1,63,,,,,,,,
,,,,,,,,,,,,,,,739,2022-01-22_24h07.03.137,multiplicationStroop,2021.2.3,Win32,59.65875194,,,,,,,,,,,,,,,,,,,,,,,,,,,,,,,,,21,1.5586,1,0,20,20,26,1,7,×,3,7 × 3,incongruent,largerFirst,1,2,21,,,,,,,,
,,,,,,,,,,,,,,,739,2022-01-22_24h07.03.137,multiplicationStroop,2021.2.3,Win32,59.65875194,,,,,,,,,,,,,,,,,,,,,,,,,,,,,,,,,16,1.8655,1,0,21,21,30,1,4,×,4,4 × 4,incongruent,tie,1,2,16,,,,,,,,
,,,,,,,,,,,,,,,739,2022-01-22_24h07.03.137,multiplicationStroop,2021.2.3,Win32,59.65875194,,,,,,,,,,,,,,,,,,,,,,,,,,,,,,,,,28,1.9157,1,0,22,22,16,1,7,×,4,7 × 4,incongruent,largerFirst,1,2,28,,,,,,,,
,,,,,,,,,,,,,,,739,2022-01-22_24h07.03.137,multiplicationStroop,2021.2.3,Win32,59.65875194,,,,,,,,,,,,,,,,,,,,,,,,,,,,,,,,,81,1.8163,1,0,23,23,35,1,9,×,9,9 × 9,incongruent,tie,1,2,81,,,,,,,,
,,,,,,,,,,,,,,,739,2022-01-22_24h07.03.137,multiplicationStroop,2021.2.3,Win32,59.65875194,,,,,,,,,,,,,,,,,,,,,,,,,,,,,,,,,16,1.732,1,0,24,24,23,1,8,×,2,8 × 2,incongruent,largerFirst,1,2,16,,,,,,,,
,,,,,,,,,,,,,,,739,2022-01-22_24h07.03.137,multiplicationStroop,2021.2.3,Win32,59.65875194,,,,,,,,,,,,,,,,,,,,,,,,,,,,,,,,,35,1.9327,1,0,25,25,12,1,5,×,7,5 × 7,incongruent,smallerFirst,2,1,35,,,,,,,,
,,,,,,,,,,,,,,,739,2022-01-22_24h07.03.137,multiplicationStroop,2021.2.3,Win32,59.65875194,,,,,,,,,,,,,,,,,,,,,,,,,,,,,,,,,24,1.7664,1,0,26,26,9,1,3,×,8,3 × 8,incongruent,smallerFirst,2,1,24,,,,,,,,
,,,,,,,,,,,,,,,739,2022-01-22_24h07.03.137,multiplicationStroop,2021.2.3,Win32,59.65875194,,,,,,,,,,,,,,,,,,,,,,,,,,,,,,,,,64,1.9649,1,0,27,27,34,1,8,×,8,8 × 8,incongruent,tie,1,2,64,,,,,,,,
,,,,,,,,,,,,,,,739,2022-01-22_24h07.03.137,multiplicationStroop,2021.2.3,Win32,59.65875194,,,,,,,,,,,,,,,,,,,,,,,,,,,,,,,,,42,2.1486,1,0,28,28,17,1,7,×,6,7 × 6,incongruent,largerFirst,1,2,42,,,,,,,,
,,,,,,,,,,,,,,,739,2022-01-22_24h07.03.137,multiplicationStroop,2021.2.3,Win32,59.65875194,,,,,,,,,,,,,,,,,,,,,,,,,,,,,,,,,27,2.2824,1,0,29,29,18,1,9,×,3,9 × 3,incongruent,largerFirst,1,2,27,,,,,,,,
,,,,,,,,,,,,,,,739,2022-01-22_24h07.03.137,multiplicationStroop,2021.2.3,Win32,59.65875194,,,,,,,,,,,,,,,,,,,,,,,,,,,,,,,,,36,2.1161,1,0,30,30,15,1,9,×,4,9 × 4,incongruent,largerFirst,1,2,36,,,,,,,,
,,,,,,,,,,,,,,,739,2022-01-22_24h07.03.137,multiplicationStroop,2021.2.3,Win32,59.65875194,,,,,,,,,,,,,,,,,,,,,,,,,,,,,,,,,45,1.8159,1,0,31,31,22,1,9,×,5,9 × 5,incongruent,largerFirst,1,2,45,,,,,,,,
,,,,,,,,,,,,,,,739,2022-01-22_24h07.03.137,multiplicationStroop,2021.2.3,Win32,59.65875194,,,,,,,,,,,,,,,,,,,,,,,,,,,,,,,,,40,1.9992,1,0,32,32,13,1,5,×,8,5 × 8,incongruent,smallerFirst,2,1,40,,,,,,,,
,,,,,,,,,,,,,,,739,2022-01-22_24h07.03.137,multiplicationStroop,2021.2.3,Win32,59.65875194,,,,,,,,,,,,,,,,,,,,,,,,,,,,,,,,,48,2.1819,1,0,33,33,1,1,6,×,8,6 × 8,incongruent,smallerFirst,2,1,48,,,,,,,,
,,,,,,,,,,,,,,,739,2022-01-22_24h07.03.137,multiplicationStroop,2021.2.3,Win32,59.65875194,,,,,,,,,,,,,,,,,,,,,,,,,,,,,,,,,49,3.2994,1,0,34,34,33,1,7,×,7,7 × 7,incongruent,tie,1,2,49,,,,,,,,
,,,,,,,,,,,,,,,739,2022-01-22_24h07.03.137,multiplicationStroop,2021.2.3,Win32,59.65875194,,,,,,,,,,,,,,,,,,,,,,,,,,,,,,,,,12,1.6743,1,0,35,35,5,1,3,×,4,3 × 4,incongruent,smallerFirst,2,1,12,,,,,,,,
,,,,,,,,,,,,,,,739,2022-01-22_24h07.03.137,multiplicationStroop,2021.2.3,Win32,59.65875194,,,,,,,,,,,,,,,,,,,,,,,,,,,,,,,,,,,,,,,,,,,,,,,,,,0,4,4,5,1,stimulusFile/mult_blk6_INcongruent.xlsx,,
,,,,,,,,,,,,,,,739,2022-01-22_24h07.03.137,multiplicationStroop,2021.2.3,Win32,59.65875194,,,,,,,,,,,,,,,,,,,,,,,,,,,,,,,space,30.9134,18,2.8001,1,0,0,0,16,1,9,×,2,9 × 2,incongruent,largerFirst,1,2,18,,,,,,,,
,,,,,,,,,,,,,,,739,2022-01-22_24h07.03.137,multiplicationStroop,2021.2.3,Win32,59.65875194,,,,,,,,,,,,,,,,,,,,,,,,,,,,,,,,,32,1.9659,1,0,1,1,21,1,8,×,4,8 × 4,incongruent,largerFirst,1,2,32,,,,,,,,
,,,,,,,,,,,,,,,739,2022-01-22_24h07.03.137,multiplicationStroop,2021.2.3,Win32,59.65875194,,,,,,,,,,,,,,,,,,,,,,,,,,,,,,,,,6,1.7155,1,0,2,2,25,1,3,×,2,3 × 2,incongruent,largerFirst,1,2,6,,,,,,,,
,,,,,,,,,,,,,,,739,2022-01-22_24h07.03.137,multiplicationStroop,2021.2.3,Win32,59.65875194,,,,,,,,,,,,,,,,,,,,,,,,,,,,,,,,,21,1.399,1,0,3,3,12,1,3,×,7,3 × 7,incongruent,smallerFirst,2,1,21,,,,,,,,
,,,,,,,,,,,,,,,739,2022-01-22_24h07.03.137,multiplicationStroop,2021.2.3,Win32,59.65875194,,,,,,,,,,,,,,,,,,,,,,,,,,,,,,,,,49,2.4651,1,0,4,4,33,1,7,×,7,7 × 7,neutral,tie,2,1,49,,,,,,,,
,,,,,,,,,,,,,,,739,2022-01-22_24h07.03.137,multiplicationStroop,2021.2.3,Win32,59.65875194,,,,,,,,,,,,,,,,,,,,,,,,,,,,,,,,,40,2.3254,1,0,5,5,27,1,8,×,5,8 × 5,incongruent,largerFirst,1,2,40,,,,,,,,
,,,,,,,,,,,,,,,739,2022-01-22_24h07.03.137,multiplicationStroop,2021.2.3,Win32,59.65875194,,,,,,,,,,,,,,,,,,,,,,,,,,,,,,,,,14,1.4315,1,0,6,6,18,1,7,×,2,7 × 2,incongruent,largerFirst,1,2,14,,,,,,,,
,,,,,,,,,,,,,,,739,2022-01-22_24h07.03.137,multiplicationStroop,2021.2.3,Win32,59.65875194,,,,,,,,,,,,,,,,,,,,,,,,,,,,,,,,,15,1.6316,1,0,7,7,24,1,5,×,3,5 × 3,incongruent,largerFirst,1,2,15,,,,,,,,
,,,,,,,,,,,,,,,739,2022-01-22_24h07.03.137,multiplicationStroop,2021.2.3,Win32,59.65875194,,,,,,,,,,,,,,,,,,,,,,,,,,,,,,,,,42,1.7825,1,0,8,8,3,1,6,×,7,6 × 7,incongruent,smallerFirst,2,1,42,,,,,,,,
,,,,,,,,,,,,,,,739,2022-01-22_24h07.03.137,multiplicationStroop,2021.2.3,Win32,59.65875194,,,,,,,,,,,,,,,,,,,,,,,,,,,,,,,,,12,3.532,1,0,9,9,5,1,2,×,6,2 × 6,incongruent,smallerFirst,2,1,12,,,,,,,,
,,,,,,,,,,,,,,,739,2022-01-22_24h07.03.137,multiplicationStroop,2021.2.3,Win32,59.65875194,,,,,,,,,,,,,,,,,,,,,,,,,,,,,,,,,4,1.4916,1,0,10,10,28,1,2,×,2,2 × 2,neutral,tie,2,1,4,,,,,,,,
,,,,,,,,,,,,,,,739,2022-01-22_24h07.03.137,multiplicationStroop,2021.2.3,Win32,59.65875194,,,,,,,,,,,,,,,,,,,,,,,,,,,,,,,,,36,2.7824,1,0,11,11,32,1,6,×,6,6 × 6,neutral,tie,2,1,36,,,,,,,,
,,,,,,,,,,,,,,,739,2022-01-22_24h07.03.137,multiplicationStroop,2021.2.3,Win32,59.65875194,,,,,,,,,,,,,,,,,,,,,,,,,,,,,,,,,30,1.8659,1,0,12,12,11,1,5,×,6,5 × 6,incongruent,smallerFirst,2,1,30,,,,,,,,
,,,,,,,,,,,,,,,739,2022-01-22_24h07.03.137,multiplicationStroop,2021.2.3,Win32,59.65875194,,,,,,,,,,,,,,,,,,,,,,,,,,,,,,,,,45,1.9333,1,0,13,13,8,1,5,×,9,5 × 9,incongruent,smallerFirst,2,1,45,,,,,,,,
,,,,,,,,,,,,,,,739,2022-01-22_24h07.03.137,multiplicationStroop,2021.2.3,Win32,59.65875194,,,,,,,,,,,,,,,,,,,,,,,,,,,,,,,,,25,1.5984,1,0,14,14,31,1,5,×,5,5 × 5,neutral,tie,2,1,25,,,,,,,,
,,,,,,,,,,,,,,,739,2022-01-22_24h07.03.137,multiplicationStroop,2021.2.3,Win32,59.65875194,,,,,,,,,,,,,,,,,,,,,,,,,,,,,,,,,16,1.4981,1,0,15,15,9,1,2,×,8,2 × 8,incongruent,smallerFirst,2,1,16,,,,,,,,
,,,,,,,,,,,,,,,739,2022-01-22_24h07.03.137,multiplicationStroop,2021.2.3,Win32,59.65875194,,,,,,,,,,,,,,,,,,,,,,,,,,,,,,,,,10,1.7477,1,0,16,16,7,1,2,×,5,2 × 5,incongruent,smallerFirst,2,1,10,,,,,,,,
,,,,,,,,,,,,,,,739,2022-01-22_24h07.03.137,multiplicationStroop,2021.2.3,Win32,59.65875194,,,,,,,,,,,,,,,,,,,,,,,,,,,,,,,,,24,1.7325,1,0,17,17,23,1,8,×,3,8 × 3,incongruent,largerFirst,1,2,24,,,,,,,,
,,,,,,,,,,,,,,,739,2022-01-22_24h07.03.137,multiplicationStroop,2021.2.3,Win32,59.65875194,,,,,,,,,,,,,,,,,,,,,,,,,,,,,,,,,8,1.8491,1,0,18,18,10,1,2,×,4,2 × 4,incongruent,smallerFirst,2,1,8,,,,,,,,
,,,,,,,,,,,,,,,739,2022-01-22_24h07.03.137,multiplicationStroop,2021.2.3,Win32,59.65875194,,,,,,,,,,,,,,,,,,,,,,,,,,,,,,,,,48,2.665,1,0,19,19,15,1,8,×,6,8 × 6,incongruent,largerFirst,1,2,48,,,,,,,,
,,,,,,,,,,,,,,,739,2022-01-22_24h07.03.137,multiplicationStroop,2021.2.3,Win32,59.65875194,,,,,,,,,,,,,,,,,,,,,,,,,,,,,,,,,24,1.5751,1,0,20,20,6,1,4,×,6,4 × 6,incongruent,smallerFirst,2,1,24,,,,,,,,
,,,,,,,,,,,,,,,739,2022-01-22_24h07.03.137,multiplicationStroop,2021.2.3,Win32,59.65875194,,,,,,,,,,,,,,,,,,,,,,,,,,,,,,,,,72,2.6818,1,0,21,21,14,1,9,×,8,9 × 8,incongruent,largerFirst,1,2,72,,,,,,,,
,,,,,,,,,,,,,,,739,2022-01-22_24h07.03.137,multiplicationStroop,2021.2.3,Win32,59.65875194,,,,,,,,,,,,,,,,,,,,,,,,,,,,,,,,,28,2.3074,1,0,22,22,2,1,4,×,7,4 × 7,incongruent,smallerFirst,2,1,28,,,,,,,,
,,,,,,,,,,,,,,,739,2022-01-22_24h07.03.137,multiplicationStroop,2021.2.3,Win32,59.65875194,,,,,,,,,,,,,,,,,,,,,,,,,,,,,,,,,9,1.6825,1,0,23,23,29,1,3,×,3,3 × 3,neutral,tie,2,1,9,,,,,,,,
,,,,,,,,,,,,,,,739,2022-01-22_24h07.03.137,multiplicationStroop,2021.2.3,Win32,59.65875194,,,,,,,,,,,,,,,,,,,,,,,,,,,,,,,,,27,1.9153,1,0,24,24,4,1,3,×,9,3 × 9,incongruent,smallerFirst,2,1,27,,,,,,,,
,,,,,,,,,,,,,,,739,2022-01-22_24h07.03.137,multiplicationStroop,2021.2.3,Win32,59.65875194,,,,,,,,,,,,,,,,,,,,,,,,,,,,,,,,,12,1.3984,1,0,25,25,19,1,4,×,3,4 × 3,incongruent,largerFirst,1,2,12,,,,,,,,
,,,,,,,,,,,,,,,739,2022-01-22_24h07.03.137,multiplicationStroop,2021.2.3,Win32,59.65875194,,,,,,,,,,,,,,,,,,,,,,,,,,,,,,,,,20,1.7834,1,0,26,26,13,1,4,×,5,4 × 5,incongruent,smallerFirst,2,1,20,,,,,,,,
,,,,,,,,,,,,,,,739,2022-01-22_24h07.03.137,multiplicationStroop,2021.2.3,Win32,59.65875194,,,,,,,,,,,,,,,,,,,,,,,,,,,,,,,,,36,2.8313,1,0,27,27,1,1,4,×,9,4 × 9,incongruent,smallerFirst,2,1,36,,,,,,,,
,,,,,,,,,,,,,,,739,2022-01-22_24h07.03.137,multiplicationStroop,2021.2.3,Win32,59.65875194,,,,,,,,,,,,,,,,,,,,,,,,,,,,,,,,,35,2.3415,1,0,28,28,26,1,7,×,5,7 × 5,incongruent,largerFirst,1,2,35,,,,,,,,
,,,,,,,,,,,,,,,739,2022-01-22_24h07.03.137,multiplicationStroop,2021.2.3,Win32,59.65875194,,,,,,,,,,,,,,,,,,,,,,,,,,,,,,,,,54,3.7987,1,0,29,29,20,1,9,×,6,9 × 6,incongruent,largerFirst,1,2,54,,,,,,,,
,,,,,,,,,,,,,,,739,2022-01-22_24h07.03.137,multiplicationStroop,2021.2.3,Win32,59.65875194,,,,,,,,,,,,,,,,,,,,,,,,,,,,,,,,,56,2.4948,1,0,30,30,0,1,7,×,8,7 × 8,incongruent,smallerFirst,2,1,56,,,,,,,,
,,,,,,,,,,,,,,,739,2022-01-22_24h07.03.137,multiplicationStroop,2021.2.3,Win32,59.65875194,,,,,,,,,,,,,,,,,,,,,,,,,,,,,,,,,16,1.7463,1,0,31,31,30,1,4,×,4,4 × 4,neutral,tie,2,1,16,,,,,,,,
,,,,,,,,,,,,,,,739,2022-01-22_24h07.03.137,multiplicationStroop,2021.2.3,Win32,59.65875194,,,,,,,,,,,,,,,,,,,,,,,,,,,,,,,,,64,1.9328,1,0,32,32,34,1,8,×,8,8 × 8,neutral,tie,2,1,64,,,,,,,,
,,,,,,,,,,,,,,,739,2022-01-22_24h07.03.137,multiplicationStroop,2021.2.3,Win32,59.65875194,,,,,,,,,,,,,,,,,,,,,,,,,,,,,,,,,81,1.6822,1,0,33,33,35,1,9,×,9,9 × 9,neutral,tie,2,1,81,,,,,,,,
,,,,,,,,,,,,,,,739,2022-01-22_24h07.03.137,multiplicationStroop,2021.2.3,Win32,59.65875194,,,,,,,,,,,,,,,,,,,,,,,,,,,,,,,,,18,2.0991,1,0,34,34,22,1,6,×,3,6 × 3,incongruent,largerFirst,1,2,18,,,,,,,,
,,,,,,,,,,,,,,,739,2022-01-22_24h07.03.137,multiplicationStroop,2021.2.3,Win32,59.65875194,,,,,,,,,,,,,,,,,,,,,,,,,,,,,,,,,63,3.1328,1,0,35,35,17,1,9,×,7,9 × 7,incongruent,largerFirst,1,2,63,,,,,,,,
,,,,,,,,,,,,,,,739,2022-01-22_24h07.03.137,multiplicationStroop,2021.2.3,Win32,59.65875194,,,,,,,,,,,,,,,,,,,,,,,,,,,,,,,,,,,,,,,,,,,,,,,,,,0,5,5,4,1,stimulusFile/mult_blk5_INcongruent.xlsx,,
,,,,,,,,,,,,,,,739,2022-01-22_24h07.03.137,multiplicationStroop,2021.2.3,Win32,59.65875194,,,,,,,,,,,,,,,,,,,,,,,,,,,,,,,,,,,,,,,,,,,,,,,,,,,,,,,,space,6.873