welcomeKey_resp.keys,welcomeKey_resp.rt,X Scale,Y Scale,rt_resp_4.keys,rt_resp_4.corr,rt_resp_4.rt,speedtest_2.thisRepN,speedtest_2.thisTrialN,speedtest_2.thisN,speedtest_2.thisIndex,speedtest_2.ran,numberSc,posX,positionLayout,participant,date,expName,psychopyVersion,OS,frameRate,ct_instrresp.keys,ct_instrresp.rt,key_resp_2.keys,key_resp_2.rt,ct_keyResp.keys,ct_keyResp.corr,ct_keyResp.rt,trials.thisRepN,trials.thisTrialN,trials.thisN,trials.thisIndex,trials.ran,leftNo,rightNo,displayProblem,numDistance,leftNo_size,rightNo_size,Dims,keyAnswer,TS_Loop.thisRepN,TS_Loop.thisTrialN,TS_Loop.thisN,TS_Loop.thisIndex,TS_Loop.ran,Condition,ActionInst,instrImage,mltptaskInst_resp.keys,mltptaskInst_resp.rt,continue_resp_2.keys,continue_resp_2.rt,multp_Answer,multi_RT,multiplyCorr,LoopingMultiply.thisRepN,LoopingMultiply.thisTrialN,LoopingMultiply.thisN,LoopingMultiply.thisIndex,LoopingMultiply.ran,factor1,multiplySign,factor2,multliplyProblem,physicalSize,orderOperand,sizeF1,sizeF2,mult_answer,trials_stroop.thisRepN,trials_stroop.thisTrialN,trials_stroop.thisN,trials_stroop.thisIndex,trials_stroop.ran,multiplicationFile,esckey_resp_2.keys,esckey_resp_2.rt
y,7.4106,40.5,40,right,1,0.4674,0,0,0,12,1,6,200,right,740,2022-01-21_10h18.53.017,multiplicationStroop,2021.2.3,Win32,60.03121623,,,,,,,,,,,,,,,,,,,,,,,,,,,,,,,,,,,,,,,,,,,,,,,,,,,,,,,,,
,,,,left,1,0.3187,0,1,1,0,1,1,-200,left,740,2022-01-21_10h18.53.017,multiplicationStroop,2021.2.3,Win32,60.03121623,,,,,,,,,,,,,,,,,,,,,,,,,,,,,,,,,,,,,,,,,,,,,,,,,,,,,,,,,
,,,,left,1,0.393,0,2,2,1,1,2,-200,left,740,2022-01-21_10h18.53.017,multiplicationStroop,2021.2.3,Win32,60.03121623,,,,,,,,,,,,,,,,,,,,,,,,,,,,,,,,,,,,,,,,,,,,,,,,,,,,,,,,,
,,,,left,1,0.3663,0,3,3,4,1,6,-200,left,740,2022-01-21_10h18.53.017,multiplicationStroop,2021.2.3,Win32,60.03121623,,,,,,,,,,,,,,,,,,,,,,,,,,,,,,,,,,,,,,,,,,,,,,,,,,,,,,,,,
,,,,right,1,0.3455,0,4,4,9,1,2,200,right,740,2022-01-21_10h18.53.017,multiplicationStroop,2021.2.3,Win32,60.03121623,,,,,,,,,,,,,,,,,,,,,,,,,,,,,,,,,,,,,,,,,,,,,,,,,,,,,,,,,
,,,,left,1,0.3381,0,5,5,3,1,4,-200,left,740,2022-01-21_10h18.53.017,multiplicationStroop,2021.2.3,Win32,60.03121623,,,,,,,,,,,,,,,,,,,,,,,,,,,,,,,,,,,,,,,,,,,,,,,,,,,,,,,,,
,,,,right,1,0.302,0,6,6,10,1,3,200,right,740,2022-01-21_10h18.53.017,multiplicationStroop,2021.2.3,Win32,60.03121623,,,,,,,,,,,,,,,,,,,,,,,,,,,,,,,,,,,,,,,,,,,,,,,,,,,,,,,,,
,,,,right,1,0.3453,0,7,7,15,1,9,200,right,740,2022-01-21_10h18.53.017,multiplicationStroop,2021.2.3,Win32,60.03121623,,,,,,,,,,,,,,,,,,,,,,,,,,,,,,,,,,,,,,,,,,,,,,,,,,,,,,,,,
,,,,right,1,0.3306,0,8,8,8,1,1,200,right,740,2022-01-21_10h18.53.017,multiplicationStroop,2021.2.3,Win32,60.03121623,,,,,,,,,,,,,,,,,,,,,,,,,,,,,,,,,,,,,,,,,,,,,,,,,,,,,,,,,
,,,,left,1,0.3358,0,9,9,7,1,9,-200,left,740,2022-01-21_10h18.53.017,multiplicationStroop,2021.2.3,Win32,60.03121623,,,,,,,,,,,,,,,,,,,,,,,,,,,,,,,,,,,,,,,,,,,,,,,,,,,,,,,,,
,,,,left,1,0.3949,0,10,10,5,1,7,-200,left,740,2022-01-21_10h18.53.017,multiplicationStroop,2021.2.3,Win32,60.03121623,,,,,,,,,,,,,,,,,,,,,,,,,,,,,,,,,,,,,,,,,,,,,,,,,,,,,,,,,
,,,,right,1,0.2832,0,11,11,11,1,4,200,right,740,2022-01-21_10h18.53.017,multiplicationStroop,2021.2.3,Win32,60.03121623,,,,,,,,,,,,,,,,,,,,,,,,,,,,,,,,,,,,,,,,,,,,,,,,,,,,,,,,,
,,,,right,1,0.3334,0,12,12,14,1,8,200,right,740,2022-01-21_10h18.53.017,multiplicationStroop,2021.2.3,Win32,60.03121623,,,,,,,,,,,,,,,,,,,,,,,,,,,,,,,,,,,,,,,,,,,,,,,,,,,,,,,,,
,,,,left,1,0.3216,0,13,13,6,1,8,-200,left,740,2022-01-21_10h18.53.017,multiplicationStroop,2021.2.3,Win32,60.03121623,,,,,,,,,,,,,,,,,,,,,,,,,,,,,,,,,,,,,,,,,,,,,,,,,,,,,,,,,
,,,,right,1,0.2752,0,14,14,13,1,7,200,right,740,2022-01-21_10h18.53.017,multiplicationStroop,2021.2.3,Win32,60.03121623,,,,,,,,,,,,,,,,,,,,,,,,,,,,,,,,,,,,,,,,,,,,,,,,,,,,,,,,,
,,,,left,1,0.3456,0,15,15,2,1,3,-200,left,740,2022-01-21_10h18.53.017,multiplicationStroop,2021.2.3,Win32,60.03121623,,,,,,,,,,,,,,,,,,,,,,,,,,,,,,,,,,,,,,,,,,,,,,,,,,,,,,,,,
,,,,left,1,0.3646,1,0,16,1,1,2,-200,left,740,2022-01-21_10h18.53.017,multiplicationStroop,2021.2.3,Win32,60.03121623,,,,,,,,,,,,,,,,,,,,,,,,,,,,,,,,,,,,,,,,,,,,,,,,,,,,,,,,,
,,,,right,1,0.3683,1,1,17,14,1,8,200,right,740,2022-01-21_10h18.53.017,multiplicationStroop,2021.2.3,Win32,60.03121623,,,,,,,,,,,,,,,,,,,,,,,,,,,,,,,,,,,,,,,,,,,,,,,,,,,,,,,,,
,,,,right,1,0.3333,1,2,18,9,1,2,200,right,740,2022-01-21_10h18.53.017,multiplicationStroop,2021.2.3,Win32,60.03121623,,,,,,,,,,,,,,,,,,,,,,,,,,,,,,,,,,,,,,,,,,,,,,,,,,,,,,,,,
,,,,right,1,0.3274,1,3,19,8,1,1,200,right,740,2022-01-21_10h18.53.017,multiplicationStroop,2021.2.3,Win32,60.03121623,,,,,,,,,,,,,,,,,,,,,,,,,,,,,,,,,,,,,,,,,,,,,,,,,,,,,,,,,
,,,,left,1,0.3261,1,4,20,3,1,4,-200,left,740,2022-01-21_10h18.53.017,multiplicationStroop,2021.2.3,Win32,60.03121623,,,,,,,,,,,,,,,,,,,,,,,,,,,,,,,,,,,,,,,,,,,,,,,,,,,,,,,,,
,,,,right,1,0.3331,1,5,21,12,1,6,200,right,740,2022-01-21_10h18.53.017,multiplicationStroop,2021.2.3,Win32,60.03121623,,,,,,,,,,,,,,,,,,,,,,,,,,,,,,,,,,,,,,,,,,,,,,,,,,,,,,,,,
,,,,left,1,0.2874,1,6,22,0,1,1,-200,left,740,2022-01-21_10h18.53.017,multiplicationStroop,2021.2.3,Win32,60.03121623,,,,,,,,,,,,,,,,,,,,,,,,,,,,,,,,,,,,,,,,,,,,,,,,,,,,,,,,,
,,,,left,1,0.3501,1,7,23,5,1,7,-200,left,740,2022-01-21_10h18.53.017,multiplicationStroop,2021.2.3,Win32,60.03121623,,,,,,,,,,,,,,,,,,,,,,,,,,,,,,,,,,,,,,,,,,,,,,,,,,,,,,,,,
,,,,left,1,0.3112,1,8,24,7,1,9,-200,left,740,2022-01-21_10h18.53.017,multiplicationStroop,2021.2.3,Win32,60.03121623,,,,,,,,,,,,,,,,,,,,,,,,,,,,,,,,,,,,,,,,,,,,,,,,,,,,,,,,,
,,,,left,1,0.2808,1,9,25,2,1,3,-200,left,740,2022-01-21_10h18.53.017,multiplicationStroop,2021.2.3,Win32,60.03121623,,,,,,,,,,,,,,,,,,,,,,,,,,,,,,,,,,,,,,,,,,,,,,,,,,,,,,,,,
,,,,right,1,0.3536,1,10,26,10,1,3,200,right,740,2022-01-21_10h18.53.017,multiplicationStroop,2021.2.3,Win32,60.03121623,,,,,,,,,,,,,,,,,,,,,,,,,,,,,,,,,,,,,,,,,,,,,,,,,,,,,,,,,
,,,,right,1,0.2937,1,11,27,11,1,4,200,right,740,2022-01-21_10h18.53.017,multiplicationStroop,2021.2.3,Win32,60.03121623,,,,,,,,,,,,,,,,,,,,,,,,,,,,,,,,,,,,,,,,,,,,,,,,,,,,,,,,,
,,,,left,1,0.3362,1,12,28,6,1,8,-200,left,740,2022-01-21_10h18.53.017,multiplicationStroop,2021.2.3,Win32,60.03121623,,,,,,,,,,,,,,,,,,,,,,,,,,,,,,,,,,,,,,,,,,,,,,,,,,,,,,,,,
,,,,left,1,0.3352,1,13,29,4,1,6,-200,left,740,2022-01-21_10h18.53.017,multiplicationStroop,2021.2.3,Win32,60.03121623,,,,,,,,,,,,,,,,,,,,,,,,,,,,,,,,,,,,,,,,,,,,,,,,,,,,,,,,,
,,,,right,1,0.3433,1,14,30,13,1,7,200,right,740,2022-01-21_10h18.53.017,multiplicationStroop,2021.2.3,Win32,60.03121623,,,,,,,,,,,,,,,,,,,,,,,,,,,,,,,,,,,,,,,,,,,,,,,,,,,,,,,,,
,,,,right,1,0.2684,1,15,31,15,1,9,200,right,740,2022-01-21_10h18.53.017,multiplicationStroop,2021.2.3,Win32,60.03121623,,,,,,,,,,,,,,,,,,,,,,,,,,,,,,,,,,,,,,,,,,,,,,,,,,,,,,,,,
,,,,right,1,0.2946,2,0,32,12,1,6,200,right,740,2022-01-21_10h18.53.017,multiplicationStroop,2021.2.3,Win32,60.03121623,,,,,,,,,,,,,,,,,,,,,,,,,,,,,,,,,,,,,,,,,,,,,,,,,,,,,,,,,
,,,,left,1,0.4165,2,1,33,1,1,2,-200,left,740,2022-01-21_10h18.53.017,multiplicationStroop,2021.2.3,Win32,60.03121623,,,,,,,,,,,,,,,,,,,,,,,,,,,,,,,,,,,,,,,,,,,,,,,,,,,,,,,,,
,,,,left,1,0.4039,2,2,34,5,1,7,-200,left,740,2022-01-21_10h18.53.017,multiplicationStroop,2021.2.3,Win32,60.03121623,,,,,,,,,,,,,,,,,,,,,,,,,,,,,,,,,,,,,,,,,,,,,,,,,,,,,,,,,
,,,,left,1,0.2921,2,3,35,4,1,6,-200,left,740,2022-01-21_10h18.53.017,multiplicationStroop,2021.2.3,Win32,60.03121623,,,,,,,,,,,,,,,,,,,,,,,,,,,,,,,,,,,,,,,,,,,,,,,,,,,,,,,,,
,,,,left,1,0.33,2,4,36,7,1,9,-200,left,740,2022-01-21_10h18.53.017,multiplicationStroop,2021.2.3,Win32,60.03121623,,,,,,,,,,,,,,,,,,,,,,,,,,,,,,,,,,,,,,,,,,,,,,,,,,,,,,,,,
,,,,left,1,0.3021,2,5,37,6,1,8,-200,left,740,2022-01-21_10h18.53.017,multiplicationStroop,2021.2.3,Win32,60.03121623,,,,,,,,,,,,,,,,,,,,,,,,,,,,,,,,,,,,,,,,,,,,,,,,,,,,,,,,,
,,,,right,1,0.3663,2,6,38,8,1,1,200,right,740,2022-01-21_10h18.53.017,multiplicationStroop,2021.2.3,Win32,60.03121623,,,,,,,,,,,,,,,,,,,,,,,,,,,,,,,,,,,,,,,,,,,,,,,,,,,,,,,,,
,,,,right,1,0.3258,2,7,39,10,1,3,200,right,740,2022-01-21_10h18.53.017,multiplicationStroop,2021.2.3,Win32,60.03121623,,,,,,,,,,,,,,,,,,,,,,,,,,,,,,,,,,,,,,,,,,,,,,,,,,,,,,,,,
,,,,left,1,0.3874,2,8,40,0,1,1,-200,left,740,2022-01-21_10h18.53.017,multiplicationStroop,2021.2.3,Win32,60.03121623,,,,,,,,,,,,,,,,,,,,,,,,,,,,,,,,,,,,,,,,,,,,,,,,,,,,,,,,,
,,,,left,1,0.3401,2,9,41,3,1,4,-200,left,740,2022-01-21_10h18.53.017,multiplicationStroop,2021.2.3,Win32,60.03121623,,,,,,,,,,,,,,,,,,,,,,,,,,,,,,,,,,,,,,,,,,,,,,,,,,,,,,,,,
,,,,right,1,0.3403,2,10,42,13,1,7,200,right,740,2022-01-21_10h18.53.017,multiplicationStroop,2021.2.3,Win32,60.03121623,,,,,,,,,,,,,,,,,,,,,,,,,,,,,,,,,,,,,,,,,,,,,,,,,,,,,,,,,
,,,,left,1,0.2912,2,11,43,2,1,3,-200,left,740,2022-01-21_10h18.53.017,multiplicationStroop,2021.2.3,Win32,60.03121623,,,,,,,,,,,,,,,,,,,,,,,,,,,,,,,,,,,,,,,,,,,,,,,,,,,,,,,,,
,,,,right,1,0.3232,2,12,44,15,1,9,200,right,740,2022-01-21_10h18.53.017,multiplicationStroop,2021.2.3,Win32,60.03121623,,,,,,,,,,,,,,,,,,,,,,,,,,,,,,,,,,,,,,,,,,,,,,,,,,,,,,,,,
,,,,right,1,0.3387,2,13,45,11,1,4,200,right,740,2022-01-21_10h18.53.017,multiplicationStroop,2021.2.3,Win32,60.03121623,,,,,,,,,,,,,,,,,,,,,,,,,,,,,,,,,,,,,,,,,,,,,,,,,,,,,,,,,
,,,,right,1,0.3137,2,14,46,9,1,2,200,right,740,2022-01-21_10h18.53.017,multiplicationStroop,2021.2.3,Win32,60.03121623,,,,,,,,,,,,,,,,,,,,,,,,,,,,,,,,,,,,,,,,,,,,,,,,,,,,,,,,,
,,,,right,1,0.285,2,15,47,14,1,8,200,right,740,2022-01-21_10h18.53.017,multiplicationStroop,2021.2.3,Win32,60.03121623,,,,,,,,,,,,,,,,,,,,,,,,,,,,,,,,,,,,,,,,,,,,,,,,,,,,,,,,,
,,,,left,1,0.3254,3,0,48,6,1,8,-200,left,740,2022-01-21_10h18.53.017,multiplicationStroop,2021.2.3,Win32,60.03121623,,,,,,,,,,,,,,,,,,,,,,,,,,,,,,,,,,,,,,,,,,,,,,,,,,,,,,,,,
,,,,left,1,0.2743,3,1,49,4,1,6,-200,left,740,2022-01-21_10h18.53.017,multiplicationStroop,2021.2.3,Win32,60.03121623,,,,,,,,,,,,,,,,,,,,,,,,,,,,,,,,,,,,,,,,,,,,,,,,,,,,,,,,,
,,,,left,1,0.2882,3,2,50,1,1,2,-200,left,740,2022-01-21_10h18.53.017,multiplicationStroop,2021.2.3,Win32,60.03121623,,,,,,,,,,,,,,,,,,,,,,,,,,,,,,,,,,,,,,,,,,,,,,,,,,,,,,,,,
,,,,left,1,0.3001,3,3,51,3,1,4,-200,left,740,2022-01-21_10h18.53.017,multiplicationStroop,2021.2.3,Win32,60.03121623,,,,,,,,,,,,,,,,,,,,,,,,,,,,,,,,,,,,,,,,,,,,,,,,,,,,,,,,,
,,,,right,1,0.3177,3,4,52,14,1,8,200,right,740,2022-01-21_10h18.53.017,multiplicationStroop,2021.2.3,Win32,60.03121623,,,,,,,,,,,,,,,,,,,,,,,,,,,,,,,,,,,,,,,,,,,,,,,,,,,,,,,,,
,,,,right,1,0.2848,3,5,53,9,1,2,200,right,740,2022-01-21_10h18.53.017,multiplicationStroop,2021.2.3,Win32,60.03121623,,,,,,,,,,,,,,,,,,,,,,,,,,,,,,,,,,,,,,,,,,,,,,,,,,,,,,,,,
,,,,right,1,0.3428,3,6,54,15,1,9,200,right,740,2022-01-21_10h18.53.017,multiplicationStroop,2021.2.3,Win32,60.03121623,,,,,,,,,,,,,,,,,,,,,,,,,,,,,,,,,,,,,,,,,,,,,,,,,,,,,,,,,
,,,,right,0,0.2035,3,7,55,0,1,1,-200,left,740,2022-01-21_10h18.53.017,multiplicationStroop,2021.2.3,Win32,60.03121623,,,,,,,,,,,,,,,,,,,,,,,,,,,,,,,,,,,,,,,,,,,,,,,,,,,,,,,,,
,,,,left,1,0.0009,3,8,56,2,1,3,-200,left,740,2022-01-21_10h18.53.017,multiplicationStroop,2021.2.3,Win32,60.03121623,,,,,,,,,,,,,,,,,,,,,,,,,,,,,,,,,,,,,,,,,,,,,,,,,,,,,,,,,
,,,,right,1,0.3147,3,9,57,13,1,7,200,right,740,2022-01-21_10h18.53.017,multiplicationStroop,2021.2.3,Win32,60.03121623,,,,,,,,,,,,,,,,,,,,,,,,,,,,,,,,,,,,,,,,,,,,,,,,,,,,,,,,,
,,,,right,1,0.3995,3,10,58,11,1,4,200,right,740,2022-01-21_10h18.53.017,multiplicationStroop,2021.2.3,Win32,60.03121623,,,,,,,,,,,,,,,,,,,,,,,,,,,,,,,,,,,,,,,,,,,,,,,,,,,,,,,,,
,,,,right,1,0.2998,3,11,59,10,1,3,200,right,740,2022-01-21_10h18.53.017,multiplicationStroop,2021.2.3,Win32,60.03121623,,,,,,,,,,,,,,,,,,,,,,,,,,,,,,,,,,,,,,,,,,,,,,,,,,,,,,,,,
,,,,left,1,0.347,3,12,60,5,1,7,-200,left,740,2022-01-21_10h18.53.017,multiplicationStroop,2021.2.3,Win32,60.03121623,,,,,,,,,,,,,,,,,,,,,,,,,,,,,,,,,,,,,,,,,,,,,,,,,,,,,,,,,
,,,,left,1,0.3484,3,13,61,7,1,9,-200,left,740,2022-01-21_10h18.53.017,multiplicationStroop,2021.2.3,Win32,60.03121623,,,,,,,,,,,,,,,,,,,,,,,,,,,,,,,,,,,,,,,,,,,,,,,,,,,,,,,,,
,,,,right,1,0.3812,3,14,62,12,1,6,200,right,740,2022-01-21_10h18.53.017,multiplicationStroop,2021.2.3,Win32,60.03121623,,,,,,,,,,,,,,,,,,,,,,,,,,,,,,,,,,,,,,,,,,,,,,,,,,,,,,,,,
,,,,right,1,0.3261,3,15,63,8,1,1,200,right,740,2022-01-21_10h18.53.017,multiplicationStroop,2021.2.3,Win32,60.03121623,,,,,,,,,,,,,,,,,,,,,,,,,,,,,,,,,,,,,,,,,,,,,,,,,,,,,,,,,
,,,,,,,,,,,,,,,740,2022-01-21_10h18.53.017,multiplicationStroop,2021.2.3,Win32,60.03121623,space,8.9688,space,5.7945,right,1,0.6147,0,0,0,33,1,2,4,2 | 4,2,1.9756,1.4111,incongruent,right,,,,,,stimulusFile/magnitude.xlsx,,,,,,,,,,,,,,,,,,,,,,,,,,,,,,,
,,,,,,,,,,,,,,,740,2022-01-21_10h18.53.017,multiplicationStroop,2021.2.3,Win32,60.03121623,,,,,left,1,0.4769,0,1,1,44,1,6,1,6 | 1,5,1.4111,1.9756,incongruent,left,,,,,,stimulusFile/magnitude.xlsx,,,,,,,,,,,,,,,,,,,,,,,,,,,,,,,
,,,,,,,,,,,,,,,740,2022-01-21_10h18.53.017,multiplicationStroop,2021.2.3,Win32,60.03121623,,,,,right,1,0.4846,0,2,2,56,1,1,3,1 | 3,2,1.6933,1.6933,neutral,right,,,,,,stimulusFile/magnitude.xlsx,,,,,,,,,,,,,,,,,,,,,,,,,,,,,,,
,,,,,,,,,,,,,,,740,2022-01-21_10h18.53.017,multiplicationStroop,2021.2.3,Win32,60.03121623,,,,,left,1,0.5005,0,3,3,71,1,9,4,9 | 4,5,1.6933,1.6933,neutral,left,,,,,,stimulusFile/magnitude.xlsx,,,,,,,,,,,,,,,,,,,,,,,,,,,,,,,
,,,,,,,,,,,,,,,740,2022-01-21_10h18.53.017,multiplicationStroop,2021.2.3,Win32,60.03121623,,,,,right,1,0.4266,0,4,4,10,1,6,8,6 | 8,2,1.4111,1.9756,congruent,right,,,,,,stimulusFile/magnitude.xlsx,,,,,,,,,,,,,,,,,,,,,,,,,,,,,,,
,,,,,,,,,,,,,,,740,2022-01-21_10h18.53.017,multiplicationStroop,2021.2.3,Win32,60.03121623,,,,,left,1,0.4506,0,5,5,21,1,7,2,7 | 2,5,1.9756,1.4111,congruent,left,,,,,,stimulusFile/magnitude.xlsx,,,,,,,,,,,,,,,,,,,,,,,,,,,,,,,
,,,,,,,,,,,,,,,740,2022-01-21_10h18.53.017,multiplicationStroop,2021.2.3,Win32,60.03121623,,,,,right,1,0.5165,0,6,6,16,1,1,6,1 | 6,5,1.4111,1.9756,congruent,right,,,,,,stimulusFile/magnitude.xlsx,,,,,,,,,,,,,,,,,,,,,,,,,,,,,,,
,,,,,,,,,,,,,,,740,2022-01-21_10h18.53.017,multiplicationStroop,2021.2.3,Win32,60.03121623,,,,,left,1,0.5325,0,7,7,53,1,4,3,4 | 3,1,1.6933,1.6933,neutral,left,,,,,,stimulusFile/magnitude.xlsx,,,,,,,,,,,,,,,,,,,,,,,,,,,,,,,
,,,,,,,,,,,,,,,740,2022-01-21_10h18.53.017,multiplicationStroop,2021.2.3,Win32,60.03121623,,,,,left,1,0.4615,0,8,8,69,1,7,2,7 | 2,5,1.6933,1.6933,neutral,left,,,,,,stimulusFile/magnitude.xlsx,,,,,,,,,,,,,,,,,,,,,,,,,,,,,,,
,,,,,,,,,,,,,,,740,2022-01-21_10h18.53.017,multiplicationStroop,2021.2.3,Win32,60.03121623,,,,,left,1,0.5013,0,9,9,15,1,9,7,9 | 7,2,1.9756,1.4111,congruent,left,,,,,,stimulusFile/magnitude.xlsx,,,,,,,,,,,,,,,,,,,,,,,,,,,,,,,
,,,,,,,,,,,,,,,740,2022-01-21_10h18.53.017,multiplicationStroop,2021.2.3,Win32,60.03121623,,,,,left,1,0.7817,0,10,10,38,1,8,6,8 | 6,2,1.4111,1.9756,incongruent,left,,,,,,stimulusFile/magnitude.xlsx,,,,,,,,,,,,,,,,,,,,,,,,,,,,,,,
,,,,,,,,,,,,,,,740,2022-01-21_10h18.53.017,multiplicationStroop,2021.2.3,Win32,60.03121623,,,,,right,1,0.5158,0,11,11,18,1,3,8,3 | 8,5,1.4111,1.9756,congruent,right,,,,,,stimulusFile/magnitude.xlsx,,,,,,,,,,,,,,,,,,,,,,,,,,,,,,,
,,,,,,,,,,,,,,,740,2022-01-21_10h18.53.017,multiplicationStroop,2021.2.3,Win32,60.03121623,,,,,right,1,0.5915,0,12,12,2,1,6,7,6 | 7,1,1.4111,1.9756,congruent,right,,,,,,stimulusFile/magnitude.xlsx,,,,,,,,,,,,,,,,,,,,,,,,,,,,,,,
,,,,,,,,,,,,,,,740,2022-01-21_10h18.53.017,multiplicationStroop,2021.2.3,Win32,60.03121623,,,,,left,0,0.5865,0,13,13,49,1,3,4,3 | 4,1,1.6933,1.6933,neutral,right,,,,,,stimulusFile/magnitude.xlsx,,,,,,,,,,,,,,,,,,,,,,,,,,,,,,,
,,,,,,,,,,,,,,,740,2022-01-21_10h18.53.017,multiplicationStroop,2021.2.3,Win32,60.03121623,,,,,left,1,0.5541,0,14,14,5,1,4,3,4 | 3,1,1.9756,1.4111,congruent,left,,,,,,stimulusFile/magnitude.xlsx,,,,,,,,,,,,,,,,,,,,,,,,,,,,,,,
,,,,,,,,,,,,,,,740,2022-01-21_10h18.53.017,multiplicationStroop,2021.2.3,Win32,60.03121623,,,,,right,1,0.5998,0,15,15,32,1,1,3,1 | 3,2,1.9756,1.4111,incongruent,right,,,,,,stimulusFile/magnitude.xlsx,,,,,,,,,,,,,,,,,,,,,,,,,,,,,,,
,,,,,,,,,,,,,,,740,2022-01-21_10h18.53.017,multiplicationStroop,2021.2.3,Win32,60.03121623,,,,,right,1,0.6501,0,16,16,11,1,7,9,7 | 9,2,1.4111,1.9756,congruent,right,,,,,,stimulusFile/magnitude.xlsx,,,,,,,,,,,,,,,,,,,,,,,,,,,,,,,
,,,,,,,,,,,,,,,740,2022-01-21_10h18.53.017,multiplicationStroop,2021.2.3,Win32,60.03121623,,,,,left,1,0.5161,0,17,17,29,1,4,3,4 | 3,1,1.4111,1.9756,incongruent,left,,,,,,stimulusFile/magnitude.xlsx,,,,,,,,,,,,,,,,,,,,,,,,,,,,,,,
,,,,,,,,,,,,,,,740,2022-01-21_10h18.53.017,multiplicationStroop,2021.2.3,Win32,60.03121623,,,,,right,1,0.5544,0,18,18,48,1,1,2,1 | 2,1,1.6933,1.6933,neutral,right,,,,,,stimulusFile/magnitude.xlsx,,,,,,,,,,,,,,,,,,,,,,,,,,,,,,,
,,,,,,,,,,,,,,,740,2022-01-21_10h18.53.017,multiplicationStroop,2021.2.3,Win32,60.03121623,,,,,left,1,0.5095,0,19,19,6,1,7,6,7 | 6,1,1.9756,1.4111,congruent,left,,,,,,stimulusFile/magnitude.xlsx,,,,,,,,,,,,,,,,,,,,,,,,,,,,,,,
,,,,,,,,,,,,,,,740,2022-01-21_10h18.53.017,multiplicationStroop,2021.2.3,Win32,60.03121623,,,,,right,1,0.5661,0,20,20,57,1,2,4,2 | 4,2,1.6933,1.6933,neutral,right,,,,,,stimulusFile/magnitude.xlsx,,,,,,,,,,,,,,,,,,,,,,,,,,,,,,,
,,,,,,,,,,,,,,,740,2022-01-21_10h18.53.017,multiplicationStroop,2021.2.3,Win32,60.03121623,,,,,left,0,0.4886,0,21,21,59,1,7,9,7 | 9,2,1.6933,1.6933,neutral,right,,,,,,stimulusFile/magnitude.xlsx,,,,,,,,,,,,,,,,,,,,,,,,,,,,,,,
,,,,,,,,,,,,,,,740,2022-01-21_10h18.53.017,multiplicationStroop,2021.2.3,Win32,60.03121623,,,,,left,1,0.6074,0,22,22,55,1,9,8,9 | 8,1,1.6933,1.6933,neutral,left,,,,,,stimulusFile/magnitude.xlsx,,,,,,,,,,,,,,,,,,,,,,,,,,,,,,,
,,,,,,,,,,,,,,,740,2022-01-21_10h18.53.017,multiplicationStroop,2021.2.3,Win32,60.03121623,,,,,right,1,0.4995,0,23,23,26,1,6,7,6 | 7,1,1.9756,1.4111,incongruent,right,,,,,,stimulusFile/magnitude.xlsx,,,,,,,,,,,,,,,,,,,,,,,,,,,,,,,
,,,,,,,,,,,,,,,740,2022-01-21_10h18.53.017,multiplicationStroop,2021.2.3,Win32,60.03121623,,,,,left,1,0.6385,0,24,24,23,1,9,4,9 | 4,5,1.9756,1.4111,congruent,left,,,,,,stimulusFile/magnitude.xlsx,,,,,,,,,,,,,,,,,,,,,,,,,,,,,,,
,,,,,,,,,,,,,,,740,2022-01-21_10h18.53.017,multiplicationStroop,2021.2.3,Win32,60.03121623,,,,,left,1,0.617,0,25,25,13,1,4,2,4 | 2,2,1.9756,1.4111,congruent,left,,,,,,stimulusFile/magnitude.xlsx,,,,,,,,,,,,,,,,,,,,,,,,,,,,,,,
,,,,,,,,,,,,,,,740,2022-01-21_10h18.53.017,multiplicationStroop,2021.2.3,Win32,60.03121623,,,,,left,1,0.6508,0,26,26,62,1,8,6,8 | 6,2,1.6933,1.6933,neutral,left,,,,,,stimulusFile/magnitude.xlsx,,,,,,,,,,,,,,,,,,,,,,,,,,,,,,,
,,,,,,,,,,,,,,,740,2022-01-21_10h18.53.017,multiplicationStroop,2021.2.3,Win32,60.03121623,,,,,right,1,0.5752,0,27,27,64,1,1,6,1 | 6,5,1.6933,1.6933,neutral,right,,,,,,stimulusFile/magnitude.xlsx,,,,,,,,,,,,,,,,,,,,,,,,,,,,,,,
,,,,,,,,,,,,,,,740,2022-01-21_10h18.53.017,multiplicationStroop,2021.2.3,Win32,60.03121623,,,,,left,1,0.5379,0,28,28,47,1,9,4,9 | 4,5,1.4111,1.9756,incongruent,left,,,,,,stimulusFile/magnitude.xlsx,,,,,,,,,,,,,,,,,,,,,,,,,,,,,,,
,,,,,,,,,,,,,,,740,2022-01-21_10h18.53.017,multiplicationStroop,2021.2.3,Win32,60.03121623,,,,,right,1,0.5683,0,29,29,9,1,2,4,2 | 4,2,1.4111,1.9756,congruent,right,,,,,,stimulusFile/magnitude.xlsx,,,,,,,,,,,,,,,,,,,,,,,,,,,,,,,
,,,,,,,,,,,,,,,740,2022-01-21_10h18.53.017,multiplicationStroop,2021.2.3,Win32,60.03121623,,,,,right,1,0.4762,0,30,30,17,1,2,7,2 | 7,5,1.4111,1.9756,congruent,right,,,,,,stimulusFile/magnitude.xlsx,,,,,,,,,,,,,,,,,,,,,,,,,,,,,,,
,,,,,,,,,,,,,,,740,2022-01-21_10h18.53.017,multiplicationStroop,2021.2.3,Win32,60.03121623,,,,,right,1,0.7653,0,31,31,34,1,6,8,6 | 8,2,1.9756,1.4111,incongruent,right,,,,,,stimulusFile/magnitude.xlsx,,,,,,,,,,,,,,,,,,,,,,,,,,,,,,,
,,,,,,,,,,,,,,,740,2022-01-21_10h18.53.017,multiplicationStroop,2021.2.3,Win32,60.03121623,,,,,left,1,0.6526,0,32,32,4,1,2,1,2 | 1,1,1.9756,1.4111,congruent,left,,,,,,stimulusFile/magnitude.xlsx,,,,,,,,,,,,,,,,,,,,,,,,,,,,,,,
,,,,,,,,,,,,,,,740,2022-01-21_10h18.53.017,multiplicationStroop,2021.2.3,Win32,60.03121623,,,,,left,1,0.6209,0,33,33,70,1,8,3,8 | 3,5,1.6933,1.6933,neutral,left,,,,,,stimulusFile/magnitude.xlsx,,,,,,,,,,,,,,,,,,,,,,,,,,,,,,,
,,,,,,,,,,,,,,,740,2022-01-21_10h18.53.017,multiplicationStroop,2021.2.3,Win32,60.03121623,,,,,left,1,0.6726,0,34,34,54,1,7,6,7 | 6,1,1.6933,1.6933,neutral,left,,,,,,stimulusFile/magnitude.xlsx,,,,,,,,,,,,,,,,,,,,,,,,,,,,,,,
,,,,,,,,,,,,,,,740,2022-01-21_10h18.53.017,multiplicationStroop,2021.2.3,Win32,60.03121623,,,,,right,1,0.5472,0,35,35,50,1,6,7,6 | 7,1,1.6933,1.6933,neutral,right,,,,,,stimulusFile/magnitude.xlsx,,,,,,,,,,,,,,,,,,,,,,,,,,,,,,,
,,,,,,,,,,,,,,,740,2022-01-21_10h18.53.017,multiplicationStroop,2021.2.3,Win32,60.03121623,,,,,right,1,0.7454,0,36,36,27,1,8,9,8 | 9,1,1.9756,1.4111,incongruent,right,,,,,,stimulusFile/magnitude.xlsx,,,,,,,,,,,,,,,,,,,,,,,,,,,,,,,
,,,,,,,,,,,,,,,740,2022-01-21_10h18.53.017,multiplicationStroop,2021.2.3,Win32,60.03121623,,,,,left,1,0.7156,0,37,37,14,1,8,6,8 | 6,2,1.9756,1.4111,congruent,left,,,,,,stimulusFile/magnitude.xlsx,,,,,,,,,,,,,,,,,,,,,,,,,,,,,,,
,,,,,,,,,,,,,,,740,2022-01-21_10h18.53.017,multiplicationStroop,2021.2.3,Win32,60.03121623,,,,,left,1,0.5613,0,38,38,7,1,9,8,9 | 8,1,1.9756,1.4111,congruent,left,,,,,,stimulusFile/magnitude.xlsx,,,,,,,,,,,,,,,,,,,,,,,,,,,,,,,
,,,,,,,,,,,,,,,740,2022-01-21_10h18.53.017,multiplicationStroop,2021.2.3,Win32,60.03121623,,,,,left,1,0.6365,0,39,39,28,1,2,1,2 | 1,1,1.4111,1.9756,incongruent,left,,,,,,stimulusFile/magnitude.xlsx,,,,,,,,,,,,,,,,,,,,,,,,,,,,,,,
,,,,,,,,,,,,,,,740,2022-01-21_10h18.53.017,multiplicationStroop,2021.2.3,Win32,60.03121623,,,,,left,1,0.666,0,40,40,36,1,3,1,3 | 1,2,1.4111,1.9756,incongruent,left,,,,,,stimulusFile/magnitude.xlsx,,,,,,,,,,,,,,,,,,,,,,,,,,,,,,,
,,,,,,,,,,,,,,,740,2022-01-21_10h18.53.017,multiplicationStroop,2021.2.3,Win32,60.03121623,,,,,left,1,0.5704,0,41,41,30,1,7,6,7 | 6,1,1.4111,1.9756,incongruent,left,,,,,,stimulusFile/magnitude.xlsx,,,,,,,,,,,,,,,,,,,,,,,,,,,,,,,
,,,,,,,,,,,,,,,740,2022-01-21_10h18.53.017,multiplicationStroop,2021.2.3,Win32,60.03121623,,,,,right,1,0.5464,0,42,42,43,1,4,9,4 | 9,5,1.9756,1.4111,incongruent,right,,,,,,stimulusFile/magnitude.xlsx,,,,,,,,,,,,,,,,,,,,,,,,,,,,,,,
,,,,,,,,,,,,,,,740,2022-01-21_10h18.53.017,multiplicationStroop,2021.2.3,Win32,60.03121623,,,,,left,1,0.6129,0,43,43,60,1,3,1,3 | 1,2,1.6933,1.6933,neutral,left,,,,,,stimulusFile/magnitude.xlsx,,,,,,,,,,,,,,,,,,,,,,,,,,,,,,,
,,,,,,,,,,,,,,,740,2022-01-21_10h18.53.017,multiplicationStroop,2021.2.3,Win32,60.03121623,,,,,right,1,0.563,0,44,44,25,1,3,4,3 | 4,1,1.9756,1.4111,incongruent,right,,,,,,stimulusFile/magnitude.xlsx,,,,,,,,,,,,,,,,,,,,,,,,,,,,,,,
,,,,,,,,,,,,,,,740,2022-01-21_10h18.53.017,multiplicationStroop,2021.2.3,Win32,60.03121623,,,,,left,1,0.5009,0,45,45,20,1,6,1,6 | 1,5,1.9756,1.4111,congruent,left,,,,,,stimulusFile/magnitude.xlsx,,,,,,,,,,,,,,,,,,,,,,,,,,,,,,,
,,,,,,,,,,,,,,,740,2022-01-21_10h18.53.017,multiplicationStroop,2021.2.3,Win32,60.03121623,,,,,right,1,0.5177,0,46,46,65,1,2,7,2 | 7,5,1.6933,1.6933,neutral,right,,,,,,stimulusFile/magnitude.xlsx,,,,,,,,,,,,,,,,,,,,,,,,,,,,,,,
,,,,,,,,,,,,,,,740,2022-01-21_10h18.53.017,multiplicationStroop,2021.2.3,Win32,60.03121623,,,,,left,1,0.72,0,47,47,37,1,4,2,4 | 2,2,1.4111,1.9756,incongruent,left,,,,,,stimulusFile/magnitude.xlsx,,,,,,,,,,,,,,,,,,,,,,,,,,,,,,,
,,,,,,,,,,,,,,,740,2022-01-21_10h18.53.017,multiplicationStroop,2021.2.3,Win32,60.03121623,,,,,right,1,0.4331,0,48,48,3,1,8,9,8 | 9,1,1.4111,1.9756,congruent,right,,,,,,stimulusFile/magnitude.xlsx,,,,,,,,,,,,,,,,,,,,,,,,,,,,,,,
,,,,,,,,,,,,,,,740,2022-01-21_10h18.53.017,multiplicationStroop,2021.2.3,Win32,60.03121623,,,,,left,1,0.7293,0,49,49,39,1,9,7,9 | 7,2,1.4111,1.9756,incongruent,left,,,,,,stimulusFile/magnitude.xlsx,,,,,,,,,,,,,,,,,,,,,,,,,,,,,,,
,,,,,,,,,,,,,,,740,2022-01-21_10h18.53.017,multiplicationStroop,2021.2.3,Win32,60.03121623,,,,,left,1,0.9649,0,50,50,61,1,4,2,4 | 2,2,1.6933,1.6933,neutral,left,,,,,,stimulusFile/magnitude.xlsx,,,,,,,,,,,,,,,,,,,,,,,,,,,,,,,
,,,,,,,,,,,,,,,740,2022-01-21_10h18.53.017,multiplicationStroop,2021.2.3,Win32,60.03121623,,,,,right,1,0.5134,0,51,51,66,1,3,8,3 | 8,5,1.6933,1.6933,neutral,right,,,,,,stimulusFile/magnitude.xlsx,,,,,,,,,,,,,,,,,,,,,,,,,,,,,,,
,,,,,,,,,,,,,,,740,2022-01-21_10h18.53.017,multiplicationStroop,2021.2.3,Win32,60.03121623,,,,,left,1,0.8999,0,52,52,31,1,9,8,9 | 8,1,1.4111,1.9756,incongruent,left,,,,,,stimulusFile/magnitude.xlsx,,,,,,,,,,,,,,,,,,,,,,,,,,,,,,,
,,,,,,,,,,,,,,,740,2022-01-21_10h18.53.017,multiplicationStroop,2021.2.3,Win32,60.03121623,,,,,right,1,0.5325,0,53,53,8,1,1,3,1 | 3,2,1.4111,1.9756,congruent,right,,,,,,stimulusFile/magnitude.xlsx,,,,,,,,,,,,,,,,,,,,,,,,,,,,,,,
,,,,,,,,,,,,,,,740,2022-01-21_10h18.53.017,multiplicationStroop,2021.2.3,Win32,60.03121623,,,,,left,1,0.4965,0,54,54,12,1,3,1,3 | 1,2,1.9756,1.4111,congruent,left,,,,,,stimulusFile/magnitude.xlsx,,,,,,,,,,,,,,,,,,,,,,,,,,,,,,,
,,,,,,,,,,,,,,,740,2022-01-21_10h18.53.017,multiplicationStroop,2021.2.3,Win32,60.03121623,,,,,right,1,0.4681,0,55,55,1,1,3,4,3 | 4,1,1.4111,1.9756,congruent,right,,,,,,stimulusFile/magnitude.xlsx,,,,,,,,,,,,,,,,,,,,,,,,,,,,,,,
,,,,,,,,,,,,,,,740,2022-01-21_10h18.53.017,multiplicationStroop,2021.2.3,Win32,60.03121623,,,,,right,1,0.6205,0,56,56,40,1,1,6,1 | 6,5,1.9756,1.4111,incongruent,right,,,,,,stimulusFile/magnitude.xlsx,,,,,,,,,,,,,,,,,,,,,,,,,,,,,,,
,,,,,,,,,,,,,,,740,2022-01-21_10h18.53.017,multiplicationStroop,2021.2.3,Win32,60.03121623,,,,,left,1,0.5888,0,57,57,63,1,9,7,9 | 7,2,1.6933,1.6933,neutral,left,,,,,,stimulusFile/magnitude.xlsx,,,,,,,,,,,,,,,,,,,,,,,,,,,,,,,
,,,,,,,,,,,,,,,740,2022-01-21_10h18.53.017,multiplicationStroop,2021.2.3,Win32,60.03121623,,,,,left,1,0.5348,0,58,58,22,1,8,3,8 | 3,5,1.9756,1.4111,congruent,left,,,,,,stimulusFile/magnitude.xlsx,,,,,,,,,,,,,,,,,,,,,,,,,,,,,,,
,,,,,,,,,,,,,,,740,2022-01-21_10h18.53.017,multiplicationStroop,2021.2.3,Win32,60.03121623,,,,,left,1,0.5408,0,59,59,45,1,7,2,7 | 2,5,1.4111,1.9756,incongruent,left,,,,,,stimulusFile/magnitude.xlsx,,,,,,,,,,,,,,,,,,,,,,,,,,,,,,,
,,,,,,,,,,,,,,,740,2022-01-21_10h18.53.017,multiplicationStroop,2021.2.3,Win32,60.03121623,,,,,right,1,0.5363,0,60,60,42,1,3,8,3 | 8,5,1.9756,1.4111,incongruent,right,,,,,,stimulusFile/magnitude.xlsx,,,,,,,,,,,,,,,,,,,,,,,,,,,,,,,
,,,,,,,,,,,,,,,740,2022-01-21_10h18.53.017,multiplicationStroop,2021.2.3,Win32,60.03121623,,,,,right,1,0.998,0,61,61,24,1,1,2,1 | 2,1,1.9756,1.4111,incongruent,right,,,,,,stimulusFile/magnitude.xlsx,,,,,,,,,,,,,,,,,,,,,,,,,,,,,,,
,,,,,,,,,,,,,,,740,2022-01-21_10h18.53.017,multiplicationStroop,2021.2.3,Win32,60.03121623,,,,,right,1,0.6205,0,62,62,58,1,6,8,6 | 8,2,1.6933,1.6933,neutral,right,,,,,,stimulusFile/magnitude.xlsx,,,,,,,,,,,,,,,,,,,,,,,,,,,,,,,
,,,,,,,,,,,,,,,740,2022-01-21_10h18.53.017,multiplicationStroop,2021.2.3,Win32,60.03121623,,,,,right,1,0.7504,0,63,63,0,1,1,2,1 | 2,1,1.4111,1.9756,congruent,right,,,,,,stimulusFile/magnitude.xlsx,,,,,,,,,,,,,,,,,,,,,,,,,,,,,,,
,,,,,,,,,,,,,,,740,2022-01-21_10h18.53.017,multiplicationStroop,2021.2.3,Win32,60.03121623,,,,,right,1,0.6163,0,64,64,51,1,8,9,8 | 9,1,1.6933,1.6933,neutral,right,,,,,,stimulusFile/magnitude.xlsx,,,,,,,,,,,,,,,,,,,,,,,,,,,,,,,
,,,,,,,,,,,,,,,740,2022-01-21_10h18.53.017,multiplicationStroop,2021.2.3,Win32,60.03121623,,,,,right,1,0.7323,0,65,65,35,1,7,9,7 | 9,2,1.9756,1.4111,incongruent,right,,,,,,stimulusFile/magnitude.xlsx,,,,,,,,,,,,,,,,,,,,,,,,,,,,,,,
,,,,,,,,,,,,,,,740,2022-01-21_10h18.53.017,multiplicationStroop,2021.2.3,Win32,60.03121623,,,,,right,1,0.5841,0,66,66,41,1,2,7,2 | 7,5,1.9756,1.4111,incongruent,right,,,,,,stimulusFile/magnitude.xlsx,,,,,,,,,,,,,,,,,,,,,,,,,,,,,,,
,,,,,,,,,,,,,,,740,2022-01-21_10h18.53.017,multiplicationStroop,2021.2.3,Win32,60.03121623,,,,,left,1,0.5586,0,67,67,46,1,8,3,8 | 3,5,1.4111,1.9756,incongruent,left,,,,,,stimulusFile/magnitude.xlsx,,,,,,,,,,,,,,,,,,,,,,,,,,,,,,,
,,,,,,,,,,,,,,,740,2022-01-21_10h18.53.017,multiplicationStroop,2021.2.3,Win32,60.03121623,,,,,left,1,0.4917,0,68,68,68,1,6,1,6 | 1,5,1.6933,1.6933,neutral,left,,,,,,stimulusFile/magnitude.xlsx,,,,,,,,,,,,,,,,,,,,,,,,,,,,,,,
,,,,,,,,,,,,,,,740,2022-01-21_10h18.53.017,multiplicationStroop,2021.2.3,Win32,60.03121623,,,,,right,1,0.491,0,69,69,19,1,4,9,4 | 9,5,1.4111,1.9756,congruent,right,,,,,,stimulusFile/magnitude.xlsx,,,,,,,,,,,,,,,,,,,,,,,,,,,,,,,
,,,,,,,,,,,,,,,740,2022-01-21_10h18.53.017,multiplicationStroop,2021.2.3,Win32,60.03121623,,,,,right,1,0.5809,0,70,70,67,1,4,9,4 | 9,5,1.6933,1.6933,neutral,right,,,,,,stimulusFile/magnitude.xlsx,,,,,,,,,,,,,,,,,,,,,,,,,,,,,,,
,,,,,,,,,,,,,,,740,2022-01-21_10h18.53.017,multiplicationStroop,2021.2.3,Win32,60.03121623,,,,,left,1,0.5827,0,71,71,52,1,2,1,2 | 1,1,1.6933,1.6933,neutral,left,,,,,,stimulusFile/magnitude.xlsx,,,,,,,,,,,,,,,,,,,,,,,,,,,,,,,
,,,,,,,,,,,,,,,740,2022-01-21_10h18.53.017,multiplicationStroop,2021.2.3,Win32,60.03121623,,,,,,,,,,,,,,,,,,,,,0,0,0,0,1,stimulusFile/magnitude.xlsx,NUMERICALLY larger (larger coefficient).,images/numericallyLarger.png,,,,,,,,,,,,,,,,,,,,,,,,,,,,,
,,,,,,,,,,,,,,,740,2022-01-21_10h18.53.017,multiplicationStroop,2021.2.3,Win32,60.03121623,space,6.9684,space,2.9808,left,1,0.5833,0,0,0,23,1,9,4,9 | 4,5,1.9756,1.4111,congruent,left,,,,,,stimulusFile/physical.xlsx,,,,,,,,,,,,,,,,,,,,,,,,,,,,,,,
,,,,,,,,,,,,,,,740,2022-01-21_10h18.53.017,multiplicationStroop,2021.2.3,Win32,60.03121623,,,,,left,1,0.5162,0,1,1,14,1,8,6,8 | 6,2,1.9756,1.4111,congruent,left,,,,,,stimulusFile/physical.xlsx,,,,,,,,,,,,,,,,,,,,,,,,,,,,,,,
,,,,,,,,,,,,,,,740,2022-01-21_10h18.53.017,multiplicationStroop,2021.2.3,Win32,60.03121623,,,,,left,1,0.7149,0,2,2,24,1,1,2,1 | 2,1,1.9756,1.4111,incongruent,left,,,,,,stimulusFile/physical.xlsx,,,,,,,,,,,,,,,,,,,,,,,,,,,,,,,
,,,,,,,,,,,,,,,740,2022-01-21_10h18.53.017,multiplicationStroop,2021.2.3,Win32,60.03121623,,,,,left,1,0.5339,0,3,3,21,1,7,2,7 | 2,5,1.9756,1.4111,congruent,left,,,,,,stimulusFile/physical.xlsx,,,,,,,,,,,,,,,,,,,,,,,,,,,,,,,
,,,,,,,,,,,,,,,740,2022-01-21_10h18.53.017,multiplicationStroop,2021.2.3,Win32,60.03121623,,,,,right,1,0.6707,0,4,4,36,1,3,1,3 | 1,2,1.4111,1.9756,incongruent,right,,,,,,stimulusFile/physical.xlsx,,,,,,,,,,,,,,,,,,,,,,,,,,,,,,,
,,,,,,,,,,,,,,,740,2022-01-21_10h18.53.017,multiplicationStroop,2021.2.3,Win32,60.03121623,,,,,right,1,0.6126,0,5,5,29,1,4,3,4 | 3,1,1.4111,1.9756,incongruent,right,,,,,,stimulusFile/physical.xlsx,,,,,,,,,,,,,,,,,,,,,,,,,,,,,,,
,,,,,,,,,,,,,,,740,2022-01-21_10h18.53.017,multiplicationStroop,2021.2.3,Win32,60.03121623,,,,,right,0,0.8154,0,6,6,69,1,7,7,7 | 7,0,1.4111,1.9756,neutral,left,,,,,,stimulusFile/physical.xlsx,,,,,,,,,,,,,,,,,,,,,,,,,,,,,,,
,,,,,,,,,,,,,,,740,2022-01-21_10h18.53.017,multiplicationStroop,2021.2.3,Win32,60.03121623,,,,,left,1,0.7265,0,7,7,42,1,3,8,3 | 8,5,1.9756,1.4111,incongruent,left,,,,,,stimulusFile/physical.xlsx,,,,,,,,,,,,,,,,,,,,,,,,,,,,,,,
,,,,,,,,,,,,,,,740,2022-01-21_10h18.53.017,multiplicationStroop,2021.2.3,Win32,60.03121623,,,,,left,0,0.6136,0,8,8,64,1,1,1,1 | 1,0,1.9756,1.4111,neutral,right,,,,,,stimulusFile/physical.xlsx,,,,,,,,,,,,,,,,,,,,,,,,,,,,,,,
,,,,,,,,,,,,,,,740,2022-01-21_10h18.53.017,multiplicationStroop,2021.2.3,Win32,60.03121623,,,,,right,1,0.5611,0,9,9,2,1,6,7,6 | 7,1,1.4111,1.9756,congruent,right,,,,,,stimulusFile/physical.xlsx,,,,,,,,,,,,,,,,,,,,,,,,,,,,,,,
,,,,,,,,,,,,,,,740,2022-01-21_10h18.53.017,multiplicationStroop,2021.2.3,Win32,60.03121623,,,,,left,1,0.537,0,10,10,25,1,3,4,3 | 4,1,1.9756,1.4111,incongruent,left,,,,,,stimulusFile/physical.xlsx,,,,,,,,,,,,,,,,,,,,,,,,,,,,,,,
,,,,,,,,,,,,,,,740,2022-01-21_10h18.53.017,multiplicationStroop,2021.2.3,Win32,60.03121623,,,,,right,1,0.5373,0,11,11,9,1,2,4,2 | 4,2,1.4111,1.9756,congruent,right,,,,,,stimulusFile/physical.xlsx,,,,,,,,,,,,,,,,,,,,,,,,,,,,,,,
,,,,,,,,,,,,,,,740,2022-01-21_10h18.53.017,multiplicationStroop,2021.2.3,Win32,60.03121623,,,,,right,1,0.566,0,12,12,61,1,4,4,4 | 4,0,1.4111,1.9756,neutral,right,,,,,,stimulusFile/physical.xlsx,,,,,,,,,,,,,,,,,,,,,,,,,,,,,,,
,,,,,,,,,,,,,,,740,2022-01-21_10h18.53.017,multiplicationStroop,2021.2.3,Win32,60.03121623,,,,,right,1,0.5179,0,13,13,3,1,8,9,8 | 9,1,1.4111,1.9756,congruent,right,,,,,,stimulusFile/physical.xlsx,,,,,,,,,,,,,,,,,,,,,,,,,,,,,,,
,,,,,,,,,,,,,,,740,2022-01-21_10h18.53.017,multiplicationStroop,2021.2.3,Win32,60.03121623,,,,,right,1,0.5829,0,14,14,17,1,2,7,2 | 7,5,1.4111,1.9756,congruent,right,,,,,,stimulusFile/physical.xlsx,,,,,,,,,,,,,,,,,,,,,,,,,,,,,,,
,,,,,,,,,,,,,,,740,2022-01-21_10h18.53.017,multiplicationStroop,2021.2.3,Win32,60.03121623,,,,,left,1,0.5828,0,15,15,33,1,2,4,2 | 4,2,1.9756,1.4111,incongruent,left,,,,,,stimulusFile/physical.xlsx,,,,,,,,,,,,,,,,,,,,,,,,,,,,,,,
,,,,,,,,,,,,,,,740,2022-01-21_10h18.53.017,multiplicationStroop,2021.2.3,Win32,60.03121623,,,,,right,1,0.4664,0,16,16,30,1,7,6,7 | 6,1,1.4111,1.9756,incongruent,right,,,,,,stimulusFile/physical.xlsx,,,,,,,,,,,,,,,,,,,,,,,,,,,,,,,
,,,,,,,,,,,,,,,740,2022-01-21_10h18.53.017,multiplicationStroop,2021.2.3,Win32,60.03121623,,,,,left,1,0.5233,0,17,17,50,1,6,6,6 | 6,0,1.9756,1.4111,neutral,left,,,,,,stimulusFile/physical.xlsx,,,,,,,,,,,,,,,,,,,,,,,,,,,,,,,
,,,,,,,,,,,,,,,740,2022-01-21_10h18.53.017,multiplicationStroop,2021.2.3,Win32,60.03121623,,,,,left,1,0.5191,0,18,18,7,1,9,8,9 | 8,1,1.9756,1.4111,congruent,left,,,,,,stimulusFile/physical.xlsx,,,,,,,,,,,,,,,,,,,,,,,,,,,,,,,
,,,,,,,,,,,,,,,740,2022-01-21_10h18.53.017,multiplicationStroop,2021.2.3,Win32,60.03121623,,,,,left,1,0.4849,0,19,19,12,1,3,1,3 | 1,2,1.9756,1.4111,congruent,left,,,,,,stimulusFile/physical.xlsx,,,,,,,,,,,,,,,,,,,,,,,,,,,,,,,
,,,,,,,,,,,,,,,740,2022-01-21_10h18.53.017,multiplicationStroop,2021.2.3,Win32,60.03121623,,,,,right,0,0.48,0,20,20,71,1,9,9,9 | 9,0,1.4111,1.9756,neutral,left,,,,,,stimulusFile/physical.xlsx,,,,,,,,,,,,,,,,,,,,,,,,,,,,,,,
,,,,,,,,,,,,,,,740,2022-01-21_10h18.53.017,multiplicationStroop,2021.2.3,Win32,60.03121623,,,,,left,1,0.5827,0,21,21,51,1,8,8,8 | 8,0,1.9756,1.4111,neutral,left,,,,,,stimulusFile/physical.xlsx,,,,,,,,,,,,,,,,,,,,,,,,,,,,,,,
,,,,,,,,,,,,,,,740,2022-01-21_10h18.53.017,multiplicationStroop,2021.2.3,Win32,60.03121623,,,,,left,1,0.687,0,22,22,27,1,8,9,8 | 9,1,1.9756,1.4111,incongruent,left,,,,,,stimulusFile/physical.xlsx,,,,,,,,,,,,,,,,,,,,,,,,,,,,,,,
,,,,,,,,,,,,,,,740,2022-01-21_10h18.53.017,multiplicationStroop,2021.2.3,Win32,60.03121623,,,,,right,1,0.5006,0,23,23,16,1,1,6,1 | 6,5,1.4111,1.9756,congruent,right,,,,,,stimulusFile/physical.xlsx,,,,,,,,,,,,,,,,,,,,,,,,,,,,,,,
,,,,,,,,,,,,,,,740,2022-01-21_10h18.53.017,multiplicationStroop,2021.2.3,Win32,60.03121623,,,,,right,1,0.687,0,24,24,56,1,1,1,1 | 1,0,1.4111,1.9756,neutral,right,,,,,,stimulusFile/physical.xlsx,,,,,,,,,,,,,,,,,,,,,,,,,,,,,,,
,,,,,,,,,,,,,,,740,2022-01-21_10h18.53.017,multiplicationStroop,2021.2.3,Win32,60.03121623,,,,,left,1,0.4988,0,25,25,35,1,7,9,7 | 9,2,1.9756,1.4111,incongruent,left,,,,,,stimulusFile/physical.xlsx,,,,,,,,,,,,,,,,,,,,,,,,,,,,,,,
,,,,,,,,,,,,,,,740,2022-01-21_10h18.53.017,multiplicationStroop,2021.2.3,Win32,60.03121623,,,,,right,1,0.6876,0,26,26,46,1,8,3,8 | 3,5,1.4111,1.9756,incongruent,right,,,,,,stimulusFile/physical.xlsx,,,,,,,,,,,,,,,,,,,,,,,,,,,,,,,
,,,,,,,,,,,,,,,740,2022-01-21_10h18.53.017,multiplicationStroop,2021.2.3,Win32,60.03121623,,,,,left,1,0.4601,0,27,27,4,1,2,1,2 | 1,1,1.9756,1.4111,congruent,left,,,,,,stimulusFile/physical.xlsx,,,,,,,,,,,,,,,,,,,,,,,,,,,,,,,
,,,,,,,,,,,,,,,740,2022-01-21_10h18.53.017,multiplicationStroop,2021.2.3,Win32,60.03121623,,,,,left,1,0.5659,0,28,28,26,1,6,7,6 | 7,1,1.9756,1.4111,incongruent,left,,,,,,stimulusFile/physical.xlsx,,,,,,,,,,,,,,,,,,,,,,,,,,,,,,,
,,,,,,,,,,,,,,,740,2022-01-21_10h18.53.017,multiplicationStroop,2021.2.3,Win32,60.03121623,,,,,right,1,0.5401,0,29,29,65,1,2,2,2 | 2,0,1.4111,1.9756,neutral,right,,,,,,stimulusFile/physical.xlsx,,,,,,,,,,,,,,,,,,,,,,,,,,,,,,,
,,,,,,,,,,,,,,,740,2022-01-21_10h18.53.017,multiplicationStroop,2021.2.3,Win32,60.03121623,,,,,left,1,0.4521,0,30,30,53,1,4,4,4 | 4,0,1.9756,1.4111,neutral,left,,,,,,stimulusFile/physical.xlsx,,,,,,,,,,,,,,,,,,,,,,,,,,,,,,,
,,,,,,,,,,,,,,,740,2022-01-21_10h18.53.017,multiplicationStroop,2021.2.3,Win32,60.03121623,,,,,right,1,0.4661,0,31,31,57,1,2,2,2 | 2,0,1.4111,1.9756,neutral,right,,,,,,stimulusFile/physical.xlsx,,,,,,,,,,,,,,,,,,,,,,,,,,,,,,,
,,,,,,,,,,,,,,,740,2022-01-21_10h18.53.017,multiplicationStroop,2021.2.3,Win32,60.03121623,,,,,right,1,0.6292,0,32,32,39,1,9,7,9 | 7,2,1.4111,1.9756,incongruent,right,,,,,,stimulusFile/physical.xlsx,,,,,,,,,,,,,,,,,,,,,,,,,,,,,,,
,,,,,,,,,,,,,,,740,2022-01-21_10h18.53.017,multiplicationStroop,2021.2.3,Win32,60.03121623,,,,,left,1,0.4428,0,33,33,13,1,4,2,4 | 2,2,1.9756,1.4111,congruent,left,,,,,,stimulusFile/physical.xlsx,,,,,,,,,,,,,,,,,,,,,,,,,,,,,,,
,,,,,,,,,,,,,,,740,2022-01-21_10h18.53.017,multiplicationStroop,2021.2.3,Win32,60.03121623,,,,,left,1,0.4542,0,34,34,70,1,8,8,8 | 8,0,1.9756,1.4111,neutral,left,,,,,,stimulusFile/physical.xlsx,,,,,,,,,,,,,,,,,,,,,,,,,,,,,,,
,,,,,,,,,,,,,,,740,2022-01-21_10h18.53.017,multiplicationStroop,2021.2.3,Win32,60.03121623,,,,,left,1,0.5289,0,35,35,52,1,2,2,2 | 2,0,1.9756,1.4111,neutral,left,,,,,,stimulusFile/physical.xlsx,,,,,,,,,,,,,,,,,,,,,,,,,,,,,,,
,,,,,,,,,,,,,,,740,2022-01-21_10h18.53.017,multiplicationStroop,2021.2.3,Win32,60.03121623,,,,,right,1,0.53,0,36,36,59,1,7,7,7 | 7,0,1.4111,1.9756,neutral,right,,,,,,stimulusFile/physical.xlsx,,,,,,,,,,,,,,,,,,,,,,,,,,,,,,,
,,,,,,,,,,,,,,,740,2022-01-21_10h18.53.017,multiplicationStroop,2021.2.3,Win32,60.03121623,,,,,left,1,0.5825,0,37,37,22,1,8,3,8 | 3,5,1.9756,1.4111,congruent,left,,,,,,stimulusFile/physical.xlsx,,,,,,,,,,,,,,,,,,,,,,,,,,,,,,,
,,,,,,,,,,,,,,,740,2022-01-21_10h18.53.017,multiplicationStroop,2021.2.3,Win32,60.03121623,,,,,right,1,0.6494,0,38,38,44,1,6,1,6 | 1,5,1.4111,1.9756,incongruent,right,,,,,,stimulusFile/physical.xlsx,,,,,,,,,,,,,,,,,,,,,,,,,,,,,,,
,,,,,,,,,,,,,,,740,2022-01-21_10h18.53.017,multiplicationStroop,2021.2.3,Win32,60.03121623,,,,,left,1,0.6483,0,39,39,32,1,1,3,1 | 3,2,1.9756,1.4111,incongruent,left,,,,,,stimulusFile/physical.xlsx,,,,,,,,,,,,,,,,,,,,,,,,,,,,,,,
,,,,,,,,,,,,,,,740,2022-01-21_10h18.53.017,multiplicationStroop,2021.2.3,Win32,60.03121623,,,,,left,1,0.6067,0,40,40,15,1,9,7,9 | 7,2,1.9756,1.4111,congruent,left,,,,,,stimulusFile/physical.xlsx,,,,,,,,,,,,,,,,,,,,,,,,,,,,,,,
,,,,,,,,,,,,,,,740,2022-01-21_10h18.53.017,multiplicationStroop,2021.2.3,Win32,60.03121623,,,,,left,1,0.4086,0,41,41,43,1,4,9,4 | 9,5,1.9756,1.4111,incongruent,left,,,,,,stimulusFile/physical.xlsx,,,,,,,,,,,,,,,,,,,,,,,,,,,,,,,
,,,,,,,,,,,,,,,740,2022-01-21_10h18.53.017,multiplicationStroop,2021.2.3,Win32,60.03121623,,,,,right,1,0.6051,0,42,42,63,1,9,9,9 | 9,0,1.4111,1.9756,neutral,right,,,,,,stimulusFile/physical.xlsx,,,,,,,,,,,,,,,,,,,,,,,,,,,,,,,
,,,,,,,,,,,,,,,740,2022-01-21_10h18.53.017,multiplicationStroop,2021.2.3,Win32,60.03121623,,,,,left,1,0.5361,0,43,43,49,1,3,3,3 | 3,0,1.9756,1.4111,neutral,left,,,,,,stimulusFile/physical.xlsx,,,,,,,,,,,,,,,,,,,,,,,,,,,,,,,
,,,,,,,,,,,,,,,740,2022-01-21_10h18.53.017,multiplicationStroop,2021.2.3,Win32,60.03121623,,,,,left,1,0.6327,0,44,44,6,1,7,6,7 | 6,1,1.9756,1.4111,congruent,left,,,,,,stimulusFile/physical.xlsx,,,,,,,,,,,,,,,,,,,,,,,,,,,,,,,
,,,,,,,,,,,,,,,740,2022-01-21_10h18.53.017,multiplicationStroop,2021.2.3,Win32,60.03121623,,,,,right,1,0.9187,0,45,45,47,1,9,4,9 | 4,5,1.4111,1.9756,incongruent,right,,,,,,stimulusFile/physical.xlsx,,,,,,,,,,,,,,,,,,,,,,,,,,,,,,,
,,,,,,,,,,,,,,,740,2022-01-21_10h18.53.017,multiplicationStroop,2021.2.3,Win32,60.03121623,,,,,left,0,0.4831,0,46,46,66,1,3,3,3 | 3,0,1.9756,1.4111,neutral,right,,,,,,stimulusFile/physical.xlsx,,,,,,,,,,,,,,,,,,,,,,,,,,,,,,,
,,,,,,,,,,,,,,,740,2022-01-21_10h18.53.017,multiplicationStroop,2021.2.3,Win32,60.03121623,,,,,right,1,0.5396,0,47,47,37,1,4,2,4 | 2,2,1.4111,1.9756,incongruent,right,,,,,,stimulusFile/physical.xlsx,,,,,,,,,,,,,,,,,,,,,,,,,,,,,,,
,,,,,,,,,,,,,,,740,2022-01-21_10h18.53.017,multiplicationStroop,2021.2.3,Win32,60.03121623,,,,,right,1,0.782,0,48,48,10,1,6,8,6 | 8,2,1.4111,1.9756,congruent,right,,,,,,stimulusFile/physical.xlsx,,,,,,,,,,,,,,,,,,,,,,,,,,,,,,,
,,,,,,,,,,,,,,,740,2022-01-21_10h18.53.017,multiplicationStroop,2021.2.3,Win32,60.03121623,,,,,left,1,0.5872,0,49,49,54,1,7,7,7 | 7,0,1.9756,1.4111,neutral,left,,,,,,stimulusFile/physical.xlsx,,,,,,,,,,,,,,,,,,,,,,,,,,,,,,,
,,,,,,,,,,,,,,,740,2022-01-21_10h18.53.017,multiplicationStroop,2021.2.3,Win32,60.03121623,,,,,right,1,0.5206,0,50,50,60,1,3,3,3 | 3,0,1.4111,1.9756,neutral,right,,,,,,stimulusFile/physical.xlsx,,,,,,,,,,,,,,,,,,,,,,,,,,,,,,,
,,,,,,,,,,,,,,,740,2022-01-21_10h18.53.017,multiplicationStroop,2021.2.3,Win32,60.03121623,,,,,right,1,0.8483,0,51,51,31,1,9,8,9 | 8,1,1.4111,1.9756,incongruent,right,,,,,,stimulusFile/physical.xlsx,,,,,,,,,,,,,,,,,,,,,,,,,,,,,,,
,,,,,,,,,,,,,,,740,2022-01-21_10h18.53.017,multiplicationStroop,2021.2.3,Win32,60.03121623,,,,,right,1,0.4388,0,52,52,11,1,7,9,7 | 9,2,1.4111,1.9756,congruent,right,,,,,,stimulusFile/physical.xlsx,,,,,,,,,,,,,,,,,,,,,,,,,,,,,,,
,,,,,,,,,,,,,,,740,2022-01-21_10h18.53.017,multiplicationStroop,2021.2.3,Win32,60.03121623,,,,,left,1,0.4594,0,53,53,68,1,6,6,6 | 6,0,1.9756,1.4111,neutral,left,,,,,,stimulusFile/physical.xlsx,,,,,,,,,,,,,,,,,,,,,,,,,,,,,,,
,,,,,,,,,,,,,,,740,2022-01-21_10h18.53.017,multiplicationStroop,2021.2.3,Win32,60.03121623,,,,,left,1,0.5213,0,54,54,20,1,6,1,6 | 1,5,1.9756,1.4111,congruent,left,,,,,,stimulusFile/physical.xlsx,,,,,,,,,,,,,,,,,,,,,,,,,,,,,,,
,,,,,,,,,,,,,,,740,2022-01-21_10h18.53.017,multiplicationStroop,2021.2.3,Win32,60.03121623,,,,,right,1,0.7085,0,55,55,28,1,2,1,2 | 1,1,1.4111,1.9756,incongruent,right,,,,,,stimulusFile/physical.xlsx,,,,,,,,,,,,,,,,,,,,,,,,,,,,,,,
,,,,,,,,,,,,,,,740,2022-01-21_10h18.53.017,multiplicationStroop,2021.2.3,Win32,60.03121623,,,,,right,1,0.5701,0,56,56,19,1,4,9,4 | 9,5,1.4111,1.9756,congruent,right,,,,,,stimulusFile/physical.xlsx,,,,,,,,,,,,,,,,,,,,,,,,,,,,,,,
,,,,,,,,,,,,,,,740,2022-01-21_10h18.53.017,multiplicationStroop,2021.2.3,Win32,60.03121623,,,,,left,1,0.5702,0,57,57,5,1,4,3,4 | 3,1,1.9756,1.4111,congruent,left,,,,,,stimulusFile/physical.xlsx,,,,,,,,,,,,,,,,,,,,,,,,,,,,,,,
,,,,,,,,,,,,,,,740,2022-01-21_10h18.53.017,multiplicationStroop,2021.2.3,Win32,60.03121623,,,,,right,1,0.5082,0,58,58,67,1,4,4,4 | 4,0,1.4111,1.9756,neutral,right,,,,,,stimulusFile/physical.xlsx,,,,,,,,,,,,,,,,,,,,,,,,,,,,,,,
,,,,,,,,,,,,,,,740,2022-01-21_10h18.53.017,multiplicationStroop,2021.2.3,Win32,60.03121623,,,,,right,1,0.601,0,59,59,62,1,8,8,8 | 8,0,1.4111,1.9756,neutral,right,,,,,,stimulusFile/physical.xlsx,,,,,,,,,,,,,,,,,,,,,,,,,,,,,,,
,,,,,,,,,,,,,,,740,2022-01-21_10h18.53.017,multiplicationStroop,2021.2.3,Win32,60.03121623,,,,,left,1,0.6638,0,60,60,40,1,1,6,1 | 6,5,1.9756,1.4111,incongruent,left,,,,,,stimulusFile/physical.xlsx,,,,,,,,,,,,,,,,,,,,,,,,,,,,,,,
,,,,,,,,,,,,,,,740,2022-01-21_10h18.53.017,multiplicationStroop,2021.2.3,Win32,60.03121623,,,,,right,1,0.5025,0,61,61,0,1,1,2,1 | 2,1,1.4111,1.9756,congruent,right,,,,,,stimulusFile/physical.xlsx,,,,,,,,,,,,,,,,,,,,,,,,,,,,,,,
,,,,,,,,,,,,,,,740,2022-01-21_10h18.53.017,multiplicationStroop,2021.2.3,Win32,60.03121623,,,,,left,1,0.5122,0,62,62,41,1,2,7,2 | 7,5,1.9756,1.4111,incongruent,left,,,,,,stimulusFile/physical.xlsx,,,,,,,,,,,,,,,,,,,,,,,,,,,,,,,
,,,,,,,,,,,,,,,740,2022-01-21_10h18.53.017,multiplicationStroop,2021.2.3,Win32,60.03121623,,,,,right,1,0.448,0,63,63,8,1,1,3,1 | 3,2,1.4111,1.9756,congruent,right,,,,,,stimulusFile/physical.xlsx,,,,,,,,,,,,,,,,,,,,,,,,,,,,,,,
,,,,,,,,,,,,,,,740,2022-01-21_10h18.53.017,multiplicationStroop,2021.2.3,Win32,60.03121623,,,,,right,1,0.5251,0,64,64,58,1,6,6,6 | 6,0,1.4111,1.9756,neutral,right,,,,,,stimulusFile/physical.xlsx,,,,,,,,,,,,,,,,,,,,,,,,,,,,,,,
,,,,,,,,,,,,,,,740,2022-01-21_10h18.53.017,multiplicationStroop,2021.2.3,Win32,60.03121623,,,,,left,1,0.4832,0,65,65,55,1,9,9,9 | 9,0,1.9756,1.4111,neutral,left,,,,,,stimulusFile/physical.xlsx,,,,,,,,,,,,,,,,,,,,,,,,,,,,,,,
,,,,,,,,,,,,,,,740,2022-01-21_10h18.53.017,multiplicationStroop,2021.2.3,Win32,60.03121623,,,,,left,1,0.581,0,66,66,48,1,1,1,1 | 1,0,1.9756,1.4111,neutral,left,,,,,,stimulusFile/physical.xlsx,,,,,,,,,,,,,,,,,,,,,,,,,,,,,,,
,,,,,,,,,,,,,,,740,2022-01-21_10h18.53.017,multiplicationStroop,2021.2.3,Win32,60.03121623,,,,,right,1,0.4042,0,67,67,38,1,8,6,8 | 6,2,1.4111,1.9756,incongruent,right,,,,,,stimulusFile/physical.xlsx,,,,,,,,,,,,,,,,,,,,,,,,,,,,,,,
,,,,,,,,,,,,,,,740,2022-01-21_10h18.53.017,multiplicationStroop,2021.2.3,Win32,60.03121623,,,,,left,1,0.483,0,68,68,34,1,6,8,6 | 8,2,1.9756,1.4111,incongruent,left,,,,,,stimulusFile/physical.xlsx,,,,,,,,,,,,,,,,,,,,,,,,,,,,,,,
,,,,,,,,,,,,,,,740,2022-01-21_10h18.53.017,multiplicationStroop,2021.2.3,Win32,60.03121623,,,,,right,1,0.486,0,69,69,1,1,3,4,3 | 4,1,1.4111,1.9756,congruent,right,,,,,,stimulusFile/physical.xlsx,,,,,,,,,,,,,,,,,,,,,,,,,,,,,,,
,,,,,,,,,,,,,,,740,2022-01-21_10h18.53.017,multiplicationStroop,2021.2.3,Win32,60.03121623,,,,,right,1,0.6748,0,70,70,18,1,3,8,3 | 8,5,1.4111,1.9756,congruent,right,,,,,,stimulusFile/physical.xlsx,,,,,,,,,,,,,,,,,,,,,,,,,,,,,,,
,,,,,,,,,,,,,,,740,2022-01-21_10h18.53.017,multiplicationStroop,2021.2.3,Win32,60.03121623,,,,,right,1,0.7655,0,71,71,45,1,7,2,7 | 2,5,1.4111,1.9756,incongruent,right,,,,,,stimulusFile/physical.xlsx,,,,,,,,,,,,,,,,,,,,,,,,,,,,,,,
,,,,,,,,,,,,,,,740,2022-01-21_10h18.53.017,multiplicationStroop,2021.2.3,Win32,60.03121623,,,,,,,,,,,,,,,,,,,,,0,1,1,1,1,stimulusFile/physical.xlsx,PHYSICALLY larger (larger font size).,images/physicallyLarger.png,,,,,,,,,,,,,,,,,,,,,,,,,,,,,
,,,,,,,,,,,,,,,740,2022-01-21_10h18.53.017,multiplicationStroop,2021.2.3,Win32,60.03121623,,,,,,,,,,,,,,,,,,,,,,,,,,,,,space,8.0118,space,2.4231,49,3.5134,1,0,0,0,33,1,7,×,7,7 × 7,neutral,tie,2,1,49,,,,,,,,
,,,,,,,,,,,,,,,740,2022-01-21_10h18.53.017,multiplicationStroop,2021.2.3,Win32,60.03121623,,,,,,,,,,,,,,,,,,,,,,,,,,,,,,,,,18,1.6394,1,0,1,1,16,1,9,×,2,9 × 2,incongruent,largerFirst,1,2,18,,,,,,,,
,,,,,,,,,,,,,,,740,2022-01-21_10h18.53.017,multiplicationStroop,2021.2.3,Win32,60.03121623,,,,,,,,,,,,,,,,,,,,,,,,,,,,,,,,,8,1.2898,1,0,2,2,10,1,2,×,4,2 × 4,incongruent,smallerFirst,2,1,8,,,,,,,,
,,,,,,,,,,,,,,,740,2022-01-21_10h18.53.017,multiplicationStroop,2021.2.3,Win32,60.03121623,,,,,,,,,,,,,,,,,,,,,,,,,,,,,,,,,64,1.8932,1,0,3,3,34,1,8,×,8,8 × 8,neutral,tie,2,1,64,,,,,,,,
,,,,,,,,,,,,,,,740,2022-01-21_10h18.53.017,multiplicationStroop,2021.2.3,Win32,60.03121623,,,,,,,,,,,,,,,,,,,,,,,,,,,,,,,,,48,2.6296,1,0,4,4,15,1,8,×,6,8 × 6,incongruent,largerFirst,1,2,48,,,,,,,,
,,,,,,,,,,,,,,,740,2022-01-21_10h18.53.017,multiplicationStroop,2021.2.3,Win32,60.03121623,,,,,,,,,,,,,,,,,,,,,,,,,,,,,,,,,18,1.6396,1,0,5,5,22,1,6,×,3,6 × 3,incongruent,largerFirst,1,2,18,,,,,,,,
,,,,,,,,,,,,,,,740,2022-01-21_10h18.53.017,multiplicationStroop,2021.2.3,Win32,60.03121623,,,,,,,,,,,,,,,,,,,,,,,,,,,,,,,,,56,2.1169,1,0,6,6,0,1,7,×,8,7 × 8,incongruent,smallerFirst,2,1,56,,,,,,,,
,,,,,,,,,,,,,,,740,2022-01-21_10h18.53.017,multiplicationStroop,2021.2.3,Win32,60.03121623,,,,,,,,,,,,,,,,,,,,,,,,,,,,,,,,,21,1.3715,1,0,7,7,12,1,3,×,7,3 × 7,incongruent,smallerFirst,2,1,21,,,,,,,,
,,,,,,,,,,,,,,,740,2022-01-21_10h18.53.017,multiplicationStroop,2021.2.3,Win32,60.03121623,,,,,,,,,,,,,,,,,,,,,,,,,,,,,,,,,10,1.5285,1,0,8,8,7,1,2,×,5,2 × 5,incongruent,smallerFirst,2,1,10,,,,,,,,
,,,,,,,,,,,,,,,740,2022-01-21_10h18.53.017,multiplicationStroop,2021.2.3,Win32,60.03121623,,,,,,,,,,,,,,,,,,,,,,,,,,,,,,,,,45,1.6774,1,0,9,9,8,1,5,×,9,5 × 9,incongruent,smallerFirst,2,1,45,,,,,,,,
,,,,,,,,,,,,,,,740,2022-01-21_10h18.53.017,multiplicationStroop,2021.2.3,Win32,60.03121623,,,,,,,,,,,,,,,,,,,,,,,,,,,,,,,,,32,2.3925,1,0,10,10,21,1,8,×,4,8 × 4,incongruent,largerFirst,1,2,32,,,,,,,,
,,,,,,,,,,,,,,,740,2022-01-21_10h18.53.017,multiplicationStroop,2021.2.3,Win32,60.03121623,,,,,,,,,,,,,,,,,,,,,,,,,,,,,,,,,25,1.8528,1,0,11,11,31,1,5,×,5,5 × 5,neutral,tie,2,1,25,,,,,,,,
,,,,,,,,,,,,,,,740,2022-01-21_10h18.53.017,multiplicationStroop,2021.2.3,Win32,60.03121623,,,,,,,,,,,,,,,,,,,,,,,,,,,,,,,,,36,2.816,1,0,12,12,1,1,4,×,9,4 × 9,incongruent,smallerFirst,2,1,36,,,,,,,,
,,,,,,,,,,,,,,,740,2022-01-21_10h18.53.017,multiplicationStroop,2021.2.3,Win32,60.03121623,,,,,,,,,,,,,,,,,,,,,,,,,,,,,,,,,35,1.7659,1,0,13,13,26,1,7,×,5,7 × 5,incongruent,largerFirst,1,2,35,,,,,,,,
,,,,,,,,,,,,,,,740,2022-01-21_10h18.53.017,multiplicationStroop,2021.2.3,Win32,60.03121623,,,,,,,,,,,,,,,,,,,,,,,,,,,,,,,,,14,1.4563,1,0,14,14,18,1,7,×,2,7 × 2,incongruent,largerFirst,1,2,14,,,,,,,,
,,,,,,,,,,,,,,,740,2022-01-21_10h18.53.017,multiplicationStroop,2021.2.3,Win32,60.03121623,,,,,,,,,,,,,,,,,,,,,,,,,,,,,,,,,42,1.9439,1,0,15,15,3,1,6,×,7,6 × 7,incongruent,smallerFirst,2,1,42,,,,,,,,
,,,,,,,,,,,,,,,740,2022-01-21_10h18.53.017,multiplicationStroop,2021.2.3,Win32,60.03121623,,,,,,,,,,,,,,,,,,,,,,,,,,,,,,,,,28,2.358,1,0,16,16,2,1,4,×,7,4 × 7,incongruent,smallerFirst,2,1,28,,,,,,,,
,,,,,,,,,,,,,,,740,2022-01-21_10h18.53.017,multiplicationStroop,2021.2.3,Win32,60.03121623,,,,,,,,,,,,,,,,,,,,,,,,,,,,,,,,,9,1.8279,1,0,17,17,29,1,3,×,3,3 × 3,neutral,tie,2,1,9,,,,,,,,
,,,,,,,,,,,,,,,740,2022-01-21_10h18.53.017,multiplicationStroop,2021.2.3,Win32,60.03121623,,,,,,,,,,,,,,,,,,,,,,,,,,,,,,,,,40,1.7766,1,0,18,18,27,1,8,×,5,8 × 5,incongruent,largerFirst,1,2,40,,,,,,,,
,,,,,,,,,,,,,,,740,2022-01-21_10h18.53.017,multiplicationStroop,2021.2.3,Win32,60.03121623,,,,,,,,,,,,,,,,,,,,,,,,,,,,,,,,,16,1.8448,1,0,19,19,30,1,4,×,4,4 × 4,neutral,tie,2,1,16,,,,,,,,
,,,,,,,,,,,,,,,740,2022-01-21_10h18.53.017,multiplicationStroop,2021.2.3,Win32,60.03121623,,,,,,,,,,,,,,,,,,,,,,,,,,,,,,,,,36,2.4075,0,0,20,20,20,1,9,×,6,9 × 6,incongruent,largerFirst,1,2,54,,,,,,,,
,,,,,,,,,,,,,,,740,2022-01-21_10h18.53.017,multiplicationStroop,2021.2.3,Win32,60.03121623,,,,,,,,,,,,,,,,,,,,,,,,,,,,,,,,,36,4.6923,1,0,21,21,32,1,6,×,6,6 × 6,neutral,tie,2,1,36,,,,,,,,
,,,,,,,,,,,,,,,740,2022-01-21_10h18.53.017,multiplicationStroop,2021.2.3,Win32,60.03121623,,,,,,,,,,,,,,,,,,,,,,,,,,,,,,,,,30,1.7639,1,0,22,22,11,1,5,×,6,5 × 6,incongruent,smallerFirst,2,1,30,,,,,,,,
,,,,,,,,,,,,,,,740,2022-01-21_10h18.53.017,multiplicationStroop,2021.2.3,Win32,60.03121623,,,,,,,,,,,,,,,,,,,,,,,,,,,,,,,,,63,3.5725,1,0,23,23,17,1,9,×,7,9 × 7,incongruent,largerFirst,1,2,63,,,,,,,,
,,,,,,,,,,,,,,,740,2022-01-21_10h18.53.017,multiplicationStroop,2021.2.3,Win32,60.03121623,,,,,,,,,,,,,,,,,,,,,,,,,,,,,,,,,72,2.3308,1,0,24,24,14,1,9,×,8,9 × 8,incongruent,largerFirst,1,2,72,,,,,,,,
,,,,,,,,,,,,,,,740,2022-01-21_10h18.53.017,multiplicationStroop,2021.2.3,Win32,60.03121623,,,,,,,,,,,,,,,,,,,,,,,,,,,,,,,,,6,1.4792,1,0,25,25,25,1,3,×,2,3 × 2,incongruent,largerFirst,1,2,6,,,,,,,,
,,,,,,,,,,,,,,,740,2022-01-21_10h18.53.017,multiplicationStroop,2021.2.3,Win32,60.03121623,,,,,,,,,,,,,,,,,,,,,,,,,,,,,,,,,16,1.8777,1,0,26,26,9,1,2,×,8,2 × 8,incongruent,smallerFirst,2,1,16,,,,,,,,
,,,,,,,,,,,,,,,740,2022-01-21_10h18.53.017,multiplicationStroop,2021.2.3,Win32,60.03121623,,,,,,,,,,,,,,,,,,,,,,,,,,,,,,,,,12,1.2782,1,0,27,27,19,1,4,×,3,4 × 3,incongruent,largerFirst,1,2,12,,,,,,,,
,,,,,,,,,,,,,,,740,2022-01-21_10h18.53.017,multiplicationStroop,2021.2.3,Win32,60.03121623,,,,,,,,,,,,,,,,,,,,,,,,,,,,,,,,,4,1.5783,1,0,28,28,28,1,2,×,2,2 × 2,neutral,tie,2,1,4,,,,,,,,
,,,,,,,,,,,,,,,740,2022-01-21_10h18.53.017,multiplicationStroop,2021.2.3,Win32,60.03121623,,,,,,,,,,,,,,,,,,,,,,,,,,,,,,,,,12,1.8766,1,0,29,29,5,1,2,×,6,2 × 6,incongruent,smallerFirst,2,1,12,,,,,,,,
,,,,,,,,,,,,,,,740,2022-01-21_10h18.53.017,multiplicationStroop,2021.2.3,Win32,60.03121623,,,,,,,,,,,,,,,,,,,,,,,,,,,,,,,,,20,1.5616,1,0,30,30,13,1,4,×,5,4 × 5,incongruent,smallerFirst,2,1,20,,,,,,,,
,,,,,,,,,,,,,,,740,2022-01-21_10h18.53.017,multiplicationStroop,2021.2.3,Win32,60.03121623,,,,,,,,,,,,,,,,,,,,,,,,,,,,,,,,,15,1.9601,1,0,31,31,24,1,5,×,3,5 × 3,incongruent,largerFirst,1,2,15,,,,,,,,
,,,,,,,,,,,,,,,740,2022-01-21_10h18.53.017,multiplicationStroop,2021.2.3,Win32,60.03121623,,,,,,,,,,,,,,,,,,,,,,,,,,,,,,,,,8,2.6412,0,0,32,32,35,1,9,×,9,9 × 9,neutral,tie,2,1,81,,,,,,,,
,,,,,,,,,,,,,,,740,2022-01-21_10h18.53.017,multiplicationStroop,2021.2.3,Win32,60.03121623,,,,,,,,,,,,,,,,,,,,,,,,,,,,,,,,,24,3.9717,1,0,33,33,6,1,4,×,6,4 × 6,incongruent,smallerFirst,2,1,24,,,,,,,,
,,,,,,,,,,,,,,,740,2022-01-21_10h18.53.017,multiplicationStroop,2021.2.3,Win32,60.03121623,,,,,,,,,,,,,,,,,,,,,,,,,,,,,,,,,27,3.4098,1,0,34,34,4,1,3,×,9,3 × 9,incongruent,smallerFirst,2,1,27,,,,,,,,
,,,,,,,,,,,,,,,740,2022-01-21_10h18.53.017,multiplicationStroop,2021.2.3,Win32,60.03121623,,,,,,,,,,,,,,,,,,,,,,,,,,,,,,,,,24,1.6662,1,0,35,35,23,1,8,×,3,8 × 3,incongruent,largerFirst,1,2,24,,,,,,,,
,,,,,,,,,,,,,,,740,2022-01-21_10h18.53.017,multiplicationStroop,2021.2.3,Win32,60.03121623,,,,,,,,,,,,,,,,,,,,,,,,,,,,,,,,,,,,,,,,,,,,,,,,,,0,0,0,4,1,stimulusFile/mult_blk5_INcongruent.xlsx,,
,,,,,,,,,,,,,,,740,2022-01-21_10h18.53.017,multiplicationStroop,2021.2.3,Win32,60.03121623,,,,,,,,,,,,,,,,,,,,,,,,,,,,,,,space,18.0189,20,1.848,1,0,0,0,6,1,4,×,5,4 × 5,neutral,smallerFirst,1.5,1.5,20,,,,,,,,
,,,,,,,,,,,,,,,740,2022-01-21_10h18.53.017,multiplicationStroop,2021.2.3,Win32,60.03121623,,,,,,,,,,,,,,,,,,,,,,,,,,,,,,,,,32,1.9607,1,0,1,1,9,1,4,×,8,4 × 8,neutral,smallerFirst,1.5,1.5,32,,,,,,,,
,,,,,,,,,,,,,,,740,2022-01-21_10h18.53.017,multiplicationStroop,2021.2.3,Win32,60.03121623,,,,,,,,,,,,,,,,,,,,,,,,,,,,,,,,,56,2.1514,1,0,2,2,23,1,8,×,7,8 × 7,neutral,largerFirst,1.5,1.5,56,,,,,,,,
,,,,,,,,,,,,,,,740,2022-01-21_10h18.53.017,multiplicationStroop,2021.2.3,Win32,60.03121623,,,,,,,,,,,,,,,,,,,,,,,,,,,,,,,,,14,1.4694,1,0,3,3,2,1,2,×,7,2 × 7,neutral,smallerFirst,1.5,1.5,14,,,,,,,,
,,,,,,,,,,,,,,,740,2022-01-21_10h18.53.017,multiplicationStroop,2021.2.3,Win32,60.03121623,,,,,,,,,,,,,,,,,,,,,,,,,,,,,,,,,35,1.7609,1,0,4,4,15,1,7,×,5,7 × 5,neutral,largerFirst,1.5,1.5,35,,,,,,,,
,,,,,,,,,,,,,,,740,2022-01-21_10h18.53.017,multiplicationStroop,2021.2.3,Win32,60.03121623,,,,,,,,,,,,,,,,,,,,,,,,,,,,,,,,,36,2.3143,1,0,5,5,32,1,6,×,6,6 × 6,neutral,tie,1.5,1.5,36,,,,,,,,
,,,,,,,,,,,,,,,740,2022-01-21_10h18.53.017,multiplicationStroop,2021.2.3,Win32,60.03121623,,,,,,,,,,,,,,,,,,,,,,,,,,,,,,,,,81,1.7232,1,0,6,6,35,1,9,×,9,9 × 9,neutral,tie,1.5,1.5,81,,,,,,,,
,,,,,,,,,,,,,,,740,2022-01-21_10h18.53.017,multiplicationStroop,2021.2.3,Win32,60.03121623,,,,,,,,,,,,,,,,,,,,,,,,,,,,,,,,,27,1.9094,1,0,7,7,0,1,3,×,9,3 × 9,neutral,smallerFirst,1.5,1.5,27,,,,,,,,
,,,,,,,,,,,,,,,740,2022-01-21_10h18.53.017,multiplicationStroop,2021.2.3,Win32,60.03121623,,,,,,,,,,,,,,,,,,,,,,,,,,,,,,,,,16,1.3837,1,0,8,8,27,1,8,×,2,8 × 2,neutral,largerFirst,1.5,1.5,16,,,,,,,,
,,,,,,,,,,,,,,,740,2022-01-21_10h18.53.017,multiplicationStroop,2021.2.3,Win32,60.03121623,,,,,,,,,,,,,,,,,,,,,,,,,,,,,,,,,10,1.5066,1,0,9,9,18,1,5,×,2,5 × 2,neutral,largerFirst,1.5,1.5,10,,,,,,,,
,,,,,,,,,,,,,,,740,2022-01-21_10h18.53.017,multiplicationStroop,2021.2.3,Win32,60.03121623,,,,,,,,,,,,,,,,,,,,,,,,,,,,,,,,,21,1.3117,1,0,10,10,22,1,7,×,3,7 × 3,neutral,largerFirst,1.5,1.5,21,,,,,,,,
,,,,,,,,,,,,,,,740,2022-01-21_10h18.53.017,multiplicationStroop,2021.2.3,Win32,60.03121623,,,,,,,,,,,,,,,,,,,,,,,,,,,,,,,,,49,2.7248,1,0,11,11,33,1,7,×,7,7 × 7,neutral,tie,1.5,1.5,49,,,,,,,,
,,,,,,,,,,,,,,,740,2022-01-21_10h18.53.017,multiplicationStroop,2021.2.3,Win32,60.03121623,,,,,,,,,,,,,,,,,,,,,,,,,,,,,,,,,12,1.2091,1,0,12,12,7,1,3,×,4,3 × 4,neutral,smallerFirst,1.5,1.5,12,,,,,,,,
,,,,,,,,,,,,,,,740,2022-01-21_10h18.53.017,multiplicationStroop,2021.2.3,Win32,60.03121623,,,,,,,,,,,,,,,,,,,,,,,,,,,,,,,,,25,1.6223,1,0,13,13,31,1,5,×,5,5 × 5,neutral,tie,1.5,1.5,25,,,,,,,,
,,,,,,,,,,,,,,,740,2022-01-21_10h18.53.017,multiplicationStroop,2021.2.3,Win32,60.03121623,,,,,,,,,,,,,,,,,,,,,,,,,,,,,,,,,15,2.0425,1,0,14,14,19,1,5,×,3,5 × 3,neutral,largerFirst,1.5,1.5,15,,,,,,,,
,,,,,,,,,,,,,,,740,2022-01-21_10h18.53.017,multiplicationStroop,2021.2.3,Win32,60.03121623,,,,,,,,,,,,,,,,,,,,,,,,,,,,,,,,,16,1.5124,1,0,15,15,30,1,4,×,4,4 × 4,neutral,tie,1.5,1.5,16,,,,,,,,
,,,,,,,,,,,,,,,740,2022-01-21_10h18.53.017,multiplicationStroop,2021.2.3,Win32,60.03121623,,,,,,,,,,,,,,,,,,,,,,,,,,,,,,,,,36,2.3136,1,0,16,16,13,1,4,×,9,4 × 9,neutral,smallerFirst,1.5,1.5,36,,,,,,,,
,,,,,,,,,,,,,,,740,2022-01-21_10h18.53.017,multiplicationStroop,2021.2.3,Win32,60.03121623,,,,,,,,,,,,,,,,,,,,,,,,,,,,,,,,,30,2.1548,1,0,17,17,5,1,5,×,6,5 × 6,neutral,smallerFirst,1.5,1.5,30,,,,,,,,
,,,,,,,,,,,,,,,740,2022-01-21_10h18.53.017,multiplicationStroop,2021.2.3,Win32,60.03121623,,,,,,,,,,,,,,,,,,,,,,,,,,,,,,,,,12,2.3926,1,0,18,18,11,1,2,×,6,2 × 6,neutral,smallerFirst,1.5,1.5,12,,,,,,,,
,,,,,,,,,,,,,,,740,2022-01-21_10h18.53.017,multiplicationStroop,2021.2.3,Win32,60.03121623,,,,,,,,,,,,,,,,,,,,,,,,,,,,,,,,,40,2.1762,1,0,19,19,10,1,5,×,8,5 × 8,neutral,smallerFirst,1.5,1.5,40,,,,,,,,
,,,,,,,,,,,,,,,740,2022-01-21_10h18.53.017,multiplicationStroop,2021.2.3,Win32,60.03121623,,,,,,,,,,,,,,,,,,,,,,,,,,,,,,,,,28,1.9094,1,0,20,20,3,1,4,×,7,4 × 7,neutral,smallerFirst,1.5,1.5,28,,,,,,,,
,,,,,,,,,,,,,,,740,2022-01-21_10h18.53.017,multiplicationStroop,2021.2.3,Win32,60.03121623,,,,,,,,,,,,,,,,,,,,,,,,,,,,,,,,,48,3.7897,1,0,21,21,1,1,6,×,8,6 × 8,neutral,smallerFirst,1.5,1.5,48,,,,,,,,
,,,,,,,,,,,,,,,740,2022-01-21_10h18.53.017,multiplicationStroop,2021.2.3,Win32,60.03121623,,,,,,,,,,,,,,,,,,,,,,,,,,,,,,,,,64,1.8611,1,0,22,22,34,1,8,×,8,8 × 8,neutral,tie,1.5,1.5,64,,,,,,,,
,,,,,,,,,,,,,,,740,2022-01-21_10h18.53.017,multiplicationStroop,2021.2.3,Win32,60.03121623,,,,,,,,,,,,,,,,,,,,,,,,,,,,,,,,,54,5.6333,1,0,23,23,21,1,9,×,6,9 × 6,neutral,largerFirst,1.5,1.5,54,,,,,,,,
,,,,,,,,,,,,,,,740,2022-01-21_10h18.53.017,multiplicationStroop,2021.2.3,Win32,60.03121623,,,,,,,,,,,,,,,,,,,,,,,,,,,,,,,,,8,1.6364,1,0,24,24,17,1,4,×,2,4 × 2,neutral,largerFirst,1.5,1.5,8,,,,,,,,
,,,,,,,,,,,,,,,740,2022-01-21_10h18.53.017,multiplicationStroop,2021.2.3,Win32,60.03121623,,,,,,,,,,,,,,,,,,,,,,,,,,,,,,,,,9,1.5289,1,0,25,25,29,1,3,×,3,3 × 3,neutral,tie,1.5,1.5,9,,,,,,,,
,,,,,,,,,,,,,,,740,2022-01-21_10h18.53.017,multiplicationStroop,2021.2.3,Win32,60.03121623,,,,,,,,,,,,,,,,,,,,,,,,,,,,,,,,,6,1.4457,1,0,26,26,12,1,2,×,3,2 × 3,neutral,smallerFirst,1.5,1.5,6,,,,,,,,
,,,,,,,,,,,,,,,740,2022-01-21_10h18.53.017,multiplicationStroop,2021.2.3,Win32,60.03121623,,,,,,,,,,,,,,,,,,,,,,,,,,,,,,,,,42,2.5078,1,0,27,27,20,1,7,×,6,7 × 6,neutral,largerFirst,1.5,1.5,42,,,,,,,,
,,,,,,,,,,,,,,,740,2022-01-21_10h18.53.017,multiplicationStroop,2021.2.3,Win32,60.03121623,,,,,,,,,,,,,,,,,,,,,,,,,,,,,,,,,63,3.1898,1,0,28,28,26,1,9,×,7,9 × 7,neutral,largerFirst,1.5,1.5,63,,,,,,,,
,,,,,,,,,,,,,,,740,2022-01-21_10h18.53.017,multiplicationStroop,2021.2.3,Win32,60.03121623,,,,,,,,,,,,,,,,,,,,,,,,,,,,,,,,,4,1.5177,1,0,29,29,28,1,2,×,2,2 × 2,neutral,tie,1.5,1.5,4,,,,,,,,
,,,,,,,,,,,,,,,740,2022-01-21_10h18.53.017,multiplicationStroop,2021.2.3,Win32,60.03121623,,,,,,,,,,,,,,,,,,,,,,,,,,,,,,,,,45,1.8845,1,0,30,30,24,1,9,×,5,9 × 5,neutral,largerFirst,1.5,1.5,45,,,,,,,,
,,,,,,,,,,,,,,,740,2022-01-21_10h18.53.017,multiplicationStroop,2021.2.3,Win32,60.03121623,,,,,,,,,,,,,,,,,,,,,,,,,,,,,,,,,72,1.952,1,0,31,31,25,1,9,×,8,9 × 8,neutral,largerFirst,1.5,1.5,72,,,,,,,,
,,,,,,,,,,,,,,,740,2022-01-21_10h18.53.017,multiplicationStroop,2021.2.3,Win32,60.03121623,,,,,,,,,,,,,,,,,,,,,,,,,,,,,,,,,24,4.2759,1,0,32,32,16,1,6,×,4,6 × 4,neutral,largerFirst,1.5,1.5,24,,,,,,,,
,,,,,,,,,,,,,,,740,2022-01-21_10h18.53.017,multiplicationStroop,2021.2.3,Win32,60.03121623,,,,,,,,,,,,,,,,,,,,,,,,,,,,,,,,,24,2.1993,1,0,33,33,8,1,3,×,8,3 × 8,neutral,smallerFirst,1.5,1.5,24,,,,,,,,
,,,,,,,,,,,,,,,740,2022-01-21_10h18.53.017,multiplicationStroop,2021.2.3,Win32,60.03121623,,,,,,,,,,,,,,,,,,,,,,,,,,,,,,,,,18,2.0881,1,0,34,34,14,1,6,×,3,6 × 3,neutral,largerFirst,1.5,1.5,18,,,,,,,,
,,,,,,,,,,,,,,,740,2022-01-21_10h18.53.017,multiplicationStroop,2021.2.3,Win32,60.03121623,,,,,,,,,,,,,,,,,,,,,,,,,,,,,,,,,18,1.7193,1,0,35,35,4,1,2,×,9,2 × 9,neutral,smallerFirst,1.5,1.5,18,,,,,,,,
,,,,,,,,,,,,,,,740,2022-01-21_10h18.53.017,multiplicationStroop,2021.2.3,Win32,60.03121623,,,,,,,,,,,,,,,,,,,,,,,,,,,,,,,,,,,,,,,,,,,,,,,,,,0,1,1,0,1,stimulusFile/mult_blk1.xlsx,,
,,,,,,,,,,,,,,,740,2022-01-21_10h18.53.017,multiplicationStroop,2021.2.3,Win32,60.03121623,,,,,,,,,,,,,,,,,,,,,,,,,,,,,,,space,14.9861,32,1.5957,1,0,0,0,20,1,8,×,4,8 × 4,congruent,largerFirst,2,1,32,,,,,,,,
,,,,,,,,,,,,,,,740,2022-01-21_10h18.53.017,multiplicationStroop,2021.2.3,Win32,60.03121623,,,,,,,,,,,,,,,,,,,,,,,,,,,,,,,,,81,1.5617,1,0,1,1,35,1,9,×,9,9 × 9,neutral,tie,2,1,81,,,,,,,,
,,,,,,,,,,,,,,,740,2022-01-21_10h18.53.017,multiplicationStroop,2021.2.3,Win32,60.03121623,,,,,,,,,,,,,,,,,,,,,,,,,,,,,,,,,28,1.7444,1,0,2,2,27,1,7,×,4,7 × 4,congruent,largerFirst,2,1,28,,,,,,,,
,,,,,,,,,,,,,,,740,2022-01-21_10h18.53.017,multiplicationStroop,2021.2.3,Win32,60.03121623,,,,,,,,,,,,,,,,,,,,,,,,,,,,,,,,,24,1.9764,1,0,3,3,10,1,3,×,8,3 × 8,congruent,smallerFirst,1,2,24,,,,,,,,
,,,,,,,,,,,,,,,740,2022-01-21_10h18.53.017,multiplicationStroop,2021.2.3,Win32,60.03121623,,,,,,,,,,,,,,,,,,,,,,,,,,,,,,,,,18,1.7997,1,0,4,4,22,1,9,×,2,9 × 2,congruent,largerFirst,2,1,18,,,,,,,,
,,,,,,,,,,,,,,,740,2022-01-21_10h18.53.017,multiplicationStroop,2021.2.3,Win32,60.03121623,,,,,,,,,,,,,,,,,,,,,,,,,,,,,,,,,48,2.9573,1,0,5,5,18,1,8,×,6,8 × 6,congruent,largerFirst,2,1,48,,,,,,,,
,,,,,,,,,,,,,,,740,2022-01-21_10h18.53.017,multiplicationStroop,2021.2.3,Win32,60.03121623,,,,,,,,,,,,,,,,,,,,,,,,,,,,,,,,,12,1.3402,1,0,6,6,2,1,3,×,4,3 × 4,congruent,smallerFirst,1,2,12,,,,,,,,
,,,,,,,,,,,,,,,740,2022-01-21_10h18.53.017,multiplicationStroop,2021.2.3,Win32,60.03121623,,,,,,,,,,,,,,,,,,,,,,,,,,,,,,,,,20,1.5449,1,0,7,7,7,1,4,×,5,4 × 5,congruent,smallerFirst,1,2,20,,,,,,,,
,,,,,,,,,,,,,,,740,2022-01-21_10h18.53.017,multiplicationStroop,2021.2.3,Win32,60.03121623,,,,,,,,,,,,,,,,,,,,,,,,,,,,,,,,,30,2.06,1,0,8,8,15,1,6,×,5,6 × 5,congruent,largerFirst,2,1,30,,,,,,,,
,,,,,,,,,,,,,,,740,2022-01-21_10h18.53.017,multiplicationStroop,2021.2.3,Win32,60.03121623,,,,,,,,,,,,,,,,,,,,,,,,,,,,,,,,,25,2.0645,1,0,9,9,31,1,5,×,5,5 × 5,neutral,tie,2,1,25,,,,,,,,
,,,,,,,,,,,,,,,740,2022-01-21_10h18.53.017,multiplicationStroop,2021.2.3,Win32,60.03121623,,,,,,,,,,,,,,,,,,,,,,,,,,,,,,,,,45,1.7396,1,0,10,10,23,1,9,×,5,9 × 5,congruent,largerFirst,2,1,45,,,,,,,,
,,,,,,,,,,,,,,,740,2022-01-21_10h18.53.017,multiplicationStroop,2021.2.3,Win32,60.03121623,,,,,,,,,,,,,,,,,,,,,,,,,,,,,,,,,14,1.4833,1,0,11,11,14,1,7,×,2,7 × 2,congruent,largerFirst,2,1,14,,,,,,,,
,,,,,,,,,,,,,,,740,2022-01-21_10h18.53.017,multiplicationStroop,2021.2.3,Win32,60.03121623,,,,,,,,,,,,,,,,,,,,,,,,,,,,,,,,,4,1.2572,1,0,12,12,28,1,2,×,2,2 × 2,neutral,tie,2,1,4,,,,,,,,
,,,,,,,,,,,,,,,740,2022-01-21_10h18.53.017,multiplicationStroop,2021.2.3,Win32,60.03121623,,,,,,,,,,,,,,,,,,,,,,,,,,,,,,,,,24,2.2144,1,0,13,13,25,1,6,×,4,6 × 4,congruent,largerFirst,2,1,24,,,,,,,,
,,,,,,,,,,,,,,,740,2022-01-21_10h18.53.017,multiplicationStroop,2021.2.3,Win32,60.03121623,,,,,,,,,,,,,,,,,,,,,,,,,,,,,,,,,18,2.0387,1,0,14,14,11,1,3,×,6,3 × 6,congruent,smallerFirst,1,2,18,,,,,,,,
,,,,,,,,,,,,,,,740,2022-01-21_10h18.53.017,multiplicationStroop,2021.2.3,Win32,60.03121623,,,,,,,,,,,,,,,,,,,,,,,,,,,,,,,,,10,1.4113,1,0,15,15,24,1,5,×,2,5 × 2,congruent,largerFirst,2,1,10,,,,,,,,
,,,,,,,,,,,,,,,740,2022-01-21_10h18.53.017,multiplicationStroop,2021.2.3,Win32,60.03121623,,,,,,,,,,,,,,,,,,,,,,,,,,,,,,,,,27,1.9104,0,0,16,16,17,1,9,×,8,9 × 8,congruent,largerFirst,2,1,72,,,,,,,,
,,,,,,,,,,,,,,,740,2022-01-21_10h18.53.017,multiplicationStroop,2021.2.3,Win32,60.03121623,,,,,,,,,,,,,,,,,,,,,,,,,,,,,,,,,18,1.5779,0,0,17,17,26,1,9,×,3,9 × 3,congruent,largerFirst,2,1,27,,,,,,,,
,,,,,,,,,,,,,,,740,2022-01-21_10h18.53.017,multiplicationStroop,2021.2.3,Win32,60.03121623,,,,,,,,,,,,,,,,,,,,,,,,,,,,,,,,,64,2.2975,1,0,18,18,34,1,8,×,8,8 × 8,neutral,tie,2,1,64,,,,,,,,
,,,,,,,,,,,,,,,740,2022-01-21_10h18.53.017,multiplicationStroop,2021.2.3,Win32,60.03121623,,,,,,,,,,,,,,,,,,,,,,,,,,,,,,,,,16,1.6231,1,0,19,19,30,1,4,×,4,4 × 4,neutral,tie,2,1,16,,,,,,,,
,,,,,,,,,,,,,,,740,2022-01-21_10h18.53.017,multiplicationStroop,2021.2.3,Win32,60.03121623,,,,,,,,,,,,,,,,,,,,,,,,,,,,,,,,,54,5.1841,1,0,20,20,12,1,6,×,9,6 × 9,congruent,smallerFirst,1,2,54,,,,,,,,
,,,,,,,,,,,,,,,740,2022-01-21_10h18.53.017,multiplicationStroop,2021.2.3,Win32,60.03121623,,,,,,,,,,,,,,,,,,,,,,,,,,,,,,,,,49,2.6161,1,0,21,21,33,1,7,×,7,7 × 7,neutral,tie,2,1,49,,,,,,,,
,,,,,,,,,,,,,,,740,2022-01-21_10h18.53.017,multiplicationStroop,2021.2.3,Win32,60.03121623,,,,,,,,,,,,,,,,,,,,,,,,,,,,,,,,,35,1.7608,1,0,22,22,1,1,5,×,7,5 × 7,congruent,smallerFirst,1,2,35,,,,,,,,
,,,,,,,,,,,,,,,740,2022-01-21_10h18.53.017,multiplicationStroop,2021.2.3,Win32,60.03121623,,,,,,,,,,,,,,,,,,,,,,,,,,,,,,,,,6,1.4946,1,0,23,23,13,1,2,×,3,2 × 3,congruent,smallerFirst,1,2,6,,,,,,,,
,,,,,,,,,,,,,,,740,2022-01-21_10h18.53.017,multiplicationStroop,2021.2.3,Win32,60.03121623,,,,,,,,,,,,,,,,,,,,,,,,,,,,,,,,,9,1.5278,1,0,24,24,29,1,3,×,3,3 × 3,neutral,tie,2,1,9,,,,,,,,
,,,,,,,,,,,,,,,740,2022-01-21_10h18.53.017,multiplicationStroop,2021.2.3,Win32,60.03121623,,,,,,,,,,,,,,,,,,,,,,,,,,,,,,,,,21,1.5605,1,0,25,25,16,1,7,×,3,7 × 3,congruent,largerFirst,2,1,21,,,,,,,,
,,,,,,,,,,,,,,,740,2022-01-21_10h18.53.017,multiplicationStroop,2021.2.3,Win32,60.03121623,,,,,,,,,,,,,,,,,,,,,,,,,,,,,,,,,36,2.9256,1,0,26,26,32,1,6,×,6,6 × 6,neutral,tie,2,1,36,,,,,,,,
,,,,,,,,,,,,,,,740,2022-01-21_10h18.53.017,multiplicationStroop,2021.2.3,Win32,60.03121623,,,,,,,,,,,,,,,,,,,,,,,,,,,,,,,,,16,2.6904,1,0,27,27,5,1,2,×,8,2 × 8,congruent,smallerFirst,1,2,16,,,,,,,,
,,,,,,,,,,,,,,,740,2022-01-21_10h18.53.017,multiplicationStroop,2021.2.3,Win32,60.03121623,,,,,,,,,,,,,,,,,,,,,,,,,,,,,,,,,40,2.044,1,0,28,28,6,1,5,×,8,5 × 8,congruent,smallerFirst,1,2,40,,,,,,,,
,,,,,,,,,,,,,,,740,2022-01-21_10h18.53.017,multiplicationStroop,2021.2.3,Win32,60.03121623,,,,,,,,,,,,,,,,,,,,,,,,,,,,,,,,,15,1.5612,1,0,29,29,4,1,3,×,5,3 × 5,congruent,smallerFirst,1,2,15,,,,,,,,
,,,,,,,,,,,,,,,740,2022-01-21_10h18.53.017,multiplicationStroop,2021.2.3,Win32,60.03121623,,,,,,,,,,,,,,,,,,,,,,,,,,,,,,,,,36,4.0712,1,0,30,30,0,1,4,×,9,4 × 9,congruent,smallerFirst,1,2,36,,,,,,,,
,,,,,,,,,,,,,,,740,2022-01-21_10h18.53.017,multiplicationStroop,2021.2.3,Win32,60.03121623,,,,,,,,,,,,,,,,,,,,,,,,,,,,,,,,,63,4.5086,1,0,31,31,21,1,9,×,7,9 × 7,congruent,largerFirst,2,1,63,,,,,,,,
,,,,,,,,,,,,,,,740,2022-01-21_10h18.53.017,multiplicationStroop,2021.2.3,Win32,60.03121623,,,,,,,,,,,,,,,,,,,,,,,,,,,,,,,,,56,1.5341,1,0,32,32,8,1,7,×,8,7 × 8,congruent,smallerFirst,1,2,56,,,,,,,,
,,,,,,,,,,,,,,,740,2022-01-21_10h18.53.017,multiplicationStroop,2021.2.3,Win32,60.03121623,,,,,,,,,,,,,,,,,,,,,,,,,,,,,,,,,42,1.7121,1,0,33,33,3,1,6,×,7,6 × 7,congruent,smallerFirst,1,2,42,,,,,,,,
,,,,,,,,,,,,,,,740,2022-01-21_10h18.53.017,multiplicationStroop,2021.2.3,Win32,60.03121623,,,,,,,,,,,,,,,,,,,,,,,,,,,,,,,,,8,1.5277,1,0,34,34,9,1,2,×,4,2 × 4,congruent,smallerFirst,1,2,8,,,,,,,,
,,,,,,,,,,,,,,,740,2022-01-21_10h18.53.017,multiplicationStroop,2021.2.3,Win32,60.03121623,,,,,,,,,,,,,,,,,,,,,,,,,,,,,,,,,12,1.6708,1,0,35,35,19,1,6,×,2,6 × 2,congruent,largerFirst,2,1,12,,,,,,,,
,,,,,,,,,,,,,,,740,2022-01-21_10h18.53.017,multiplicationStroop,2021.2.3,Win32,60.03121623,,,,,,,,,,,,,,,,,,,,,,,,,,,,,,,,,,,,,,,,,,,,,,,,,,0,2,2,2,1,stimulusFile/mult_blk3_congruent.xlsx,,
,,,,,,,,,,,,,,,740,2022-01-21_10h18.53.017,multiplicationStroop,2021.2.3,Win32,60.03121623,,,,,,,,,,,,,,,,,,,,,,,,,,,,,,,space,6.4932,25,1.7027,1,0,0,0,31,1,5,×,5,5 × 5,incongruent,tie,1,2,25,,,,,,,,
,,,,,,,,,,,,,,,740,2022-01-21_10h18.53.017,multiplicationStroop,2021.2.3,Win32,60.03121623,,,,,,,,,,,,,,,,,,,,,,,,,,,,,,,,,28,1.9089,1,0,1,1,16,1,7,×,4,7 × 4,incongruent,largerFirst,1,2,28,,,,,,,,
,,,,,,,,,,,,,,,740,2022-01-21_10h18.53.017,multiplicationStroop,2021.2.3,Win32,60.03121623,,,,,,,,,,,,,,,,,,,,,,,,,,,,,,,,,32,3.6222,1,0,2,2,7,1,4,×,8,4 × 8,incongruent,smallerFirst,2,1,32,,,,,,,,
,,,,,,,,,,,,,,,740,2022-01-21_10h18.53.017,multiplicationStroop,2021.2.3,Win32,60.03121623,,,,,,,,,,,,,,,,,,,,,,,,,,,,,,,,,54,3.083,1,0,3,3,6,1,6,×,9,6 × 9,incongruent,smallerFirst,2,1,54,,,,,,,,
,,,,,,,,,,,,,,,740,2022-01-21_10h18.53.017,multiplicationStroop,2021.2.3,Win32,60.03121623,,,,,,,,,,,,,,,,,,,,,,,,,,,,,,,,,20,1.7585,1,0,4,4,27,1,5,×,4,5 × 4,incongruent,largerFirst,1,2,20,,,,,,,,
,,,,,,,,,,,,,,,740,2022-01-21_10h18.53.017,multiplicationStroop,2021.2.3,Win32,60.03121623,,,,,,,,,,,,,,,,,,,,,,,,,,,,,,,,,16,1.4284,1,0,5,5,30,1,4,×,4,4 × 4,incongruent,tie,1,2,16,,,,,,,,
,,,,,,,,,,,,,,,740,2022-01-21_10h18.53.017,multiplicationStroop,2021.2.3,Win32,60.03121623,,,,,,,,,,,,,,,,,,,,,,,,,,,,,,,,,8,2.0766,1,0,6,6,24,1,4,×,2,4 × 2,incongruent,largerFirst,1,2,8,,,,,,,,
,,,,,,,,,,,,,,,740,2022-01-21_10h18.53.017,multiplicationStroop,2021.2.3,Win32,60.03121623,,,,,,,,,,,,,,,,,,,,,,,,,,,,,,,,,81,1.6449,1,0,7,7,35,1,9,×,9,9 × 9,incongruent,tie,1,2,81,,,,,,,,
,,,,,,,,,,,,,,,740,2022-01-21_10h18.53.017,multiplicationStroop,2021.2.3,Win32,60.03121623,,,,,,,,,,,,,,,,,,,,,,,,,,,,,,,,,63,2.5245,1,0,8,8,3,1,7,×,9,7 × 9,incongruent,smallerFirst,2,1,63,,,,,,,,
,,,,,,,,,,,,,,,740,2022-01-21_10h18.53.017,multiplicationStroop,2021.2.3,Win32,60.03121623,,,,,,,,,,,,,,,,,,,,,,,,,,,,,,,,,30,1.7939,1,0,9,9,25,1,6,×,5,6 × 5,incongruent,largerFirst,1,2,30,,,,,,,,
,,,,,,,,,,,,,,,740,2022-01-21_10h18.53.017,multiplicationStroop,2021.2.3,Win32,60.03121623,,,,,,,,,,,,,,,,,,,,,,,,,,,,,,,,,45,2.0104,1,0,10,10,22,1,9,×,5,9 × 5,incongruent,largerFirst,1,2,45,,,,,,,,
,,,,,,,,,,,,,,,740,2022-01-21_10h18.53.017,multiplicationStroop,2021.2.3,Win32,60.03121623,,,,,,,,,,,,,,,,,,,,,,,,,,,,,,,,,21,1.7522,1,0,11,11,26,1,7,×,3,7 × 3,incongruent,largerFirst,1,2,21,,,,,,,,
,,,,,,,,,,,,,,,740,2022-01-21_10h18.53.017,multiplicationStroop,2021.2.3,Win32,60.03121623,,,,,,,,,,,,,,,,,,,,,,,,,,,,,,,,,64,2.3511,1,0,12,12,34,1,8,×,8,8 × 8,incongruent,tie,1,2,64,,,,,,,,
,,,,,,,,,,,,,,,740,2022-01-21_10h18.53.017,multiplicationStroop,2021.2.3,Win32,60.03121623,,,,,,,,,,,,,,,,,,,,,,,,,,,,,,,,,10,1.7595,1,0,13,13,21,1,5,×,2,5 × 2,incongruent,largerFirst,1,2,10,,,,,,,,
,,,,,,,,,,,,,,,740,2022-01-21_10h18.53.017,multiplicationStroop,2021.2.3,Win32,60.03121623,,,,,,,,,,,,,,,,,,,,,,,,,,,,,,,,,18,2.3268,1,0,14,14,2,1,2,×,9,2 × 9,incongruent,smallerFirst,2,1,18,,,,,,,,
,,,,,,,,,,,,,,,740,2022-01-21_10h18.53.017,multiplicationStroop,2021.2.3,Win32,60.03121623,,,,,,,,,,,,,,,,,,,,,,,,,,,,,,,,,48,5.7546,1,0,15,15,1,1,6,×,8,6 × 8,incongruent,smallerFirst,2,1,48,,,,,,,,
,,,,,,,,,,,,,,,740,2022-01-21_10h18.53.017,multiplicationStroop,2021.2.3,Win32,60.03121623,,,,,,,,,,,,,,,,,,,,,,,,,,,,,,,,,16,1.5792,1,0,16,16,23,1,8,×,2,8 × 2,incongruent,largerFirst,1,2,16,,,,,,,,
,,,,,,,,,,,,,,,740,2022-01-21_10h18.53.017,multiplicationStroop,2021.2.3,Win32,60.03121623,,,,,,,,,,,,,,,,,,,,,,,,,,,,,,,,,36,1.9927,1,0,17,17,32,1,6,×,6,6 × 6,incongruent,tie,1,2,36,,,,,,,,
,,,,,,,,,,,,,,,740,2022-01-21_10h18.53.017,multiplicationStroop,2021.2.3,Win32,60.03121623,,,,,,,,,,,,,,,,,,,,,,,,,,,,,,,,,24,1.9434,1,0,18,18,9,1,3,×,8,3 × 8,incongruent,smallerFirst,2,1,24,,,,,,,,
,,,,,,,,,,,,,,,740,2022-01-21_10h18.53.017,multiplicationStroop,2021.2.3,Win32,60.03121623,,,,,,,,,,,,,,,,,,,,,,,,,,,,,,,,,36,2.2816,1,0,19,19,15,1,9,×,4,9 × 4,incongruent,largerFirst,1,2,36,,,,,,,,
,,,,,,,,,,,,,,,740,2022-01-21_10h18.53.017,multiplicationStroop,2021.2.3,Win32,60.03121623,,,,,,,,,,,,,,,,,,,,,,,,,,,,,,,,,18,1.6941,1,0,20,20,8,1,3,×,6,3 × 6,incongruent,smallerFirst,2,1,18,,,,,,,,
,,,,,,,,,,,,,,,740,2022-01-21_10h18.53.017,multiplicationStroop,2021.2.3,Win32,60.03121623,,,,,,,,,,,,,,,,,,,,,,,,,,,,,,,,,15,3.1902,1,0,21,21,10,1,3,×,5,3 × 5,incongruent,smallerFirst,2,1,15,,,,,,,,
,,,,,,,,,,,,,,,740,2022-01-21_10h18.53.017,multiplicationStroop,2021.2.3,Win32,60.03121623,,,,,,,,,,,,,,,,,,,,,,,,,,,,,,,,,4,2.0335,1,0,22,22,28,1,2,×,2,2 × 2,incongruent,tie,1,2,4,,,,,,,,
,,,,,,,,,,,,,,,740,2022-01-21_10h18.53.017,multiplicationStroop,2021.2.3,Win32,60.03121623,,,,,,,,,,,,,,,,,,,,,,,,,,,,,,,,,9,1.5624,1,0,23,23,29,1,3,×,3,3 × 3,incongruent,tie,1,2,9,,,,,,,,
,,,,,,,,,,,,,,,740,2022-01-21_10h18.53.017,multiplicationStroop,2021.2.3,Win32,60.03121623,,,,,,,,,,,,,,,,,,,,,,,,,,,,,,,,,27,2.1432,1,0,24,24,18,1,9,×,3,9 × 3,incongruent,largerFirst,1,2,27,,,,,,,,
,,,,,,,,,,,,,,,740,2022-01-21_10h18.53.017,multiplicationStroop,2021.2.3,Win32,60.03121623,,,,,,,,,,,,,,,,,,,,,,,,,,,,,,,,,40,1.9436,1,0,25,25,13,1,5,×,8,5 × 8,incongruent,smallerFirst,2,1,40,,,,,,,,
,,,,,,,,,,,,,,,740,2022-01-21_10h18.53.017,multiplicationStroop,2021.2.3,Win32,60.03121623,,,,,,,,,,,,,,,,,,,,,,,,,,,,,,,,,49,2.4639,1,0,26,26,33,1,7,×,7,7 × 7,incongruent,tie,1,2,49,,,,,,,,
,,,,,,,,,,,,,,,740,2022-01-21_10h18.53.017,multiplicationStroop,2021.2.3,Win32,60.03121623,,,,,,,,,,,,,,,,,,,,,,,,,,,,,,,,,56,2.4376,0,0,27,27,0,1,8,×,9,8 × 9,incongruent,smallerFirst,2,1,72,,,,,,,,
,,,,,,,,,,,,,,,740,2022-01-21_10h18.53.017,multiplicationStroop,2021.2.3,Win32,60.03121623,,,,,,,,,,,,,,,,,,,,,,,,,,,,,,,,,24,2.2751,1,0,28,28,20,1,6,×,4,6 × 4,incongruent,largerFirst,1,2,24,,,,,,,,
,,,,,,,,,,,,,,,740,2022-01-21_10h18.53.017,multiplicationStroop,2021.2.3,Win32,60.03121623,,,,,,,,,,,,,,,,,,,,,,,,,,,,,,,,,12,2.2597,1,0,29,29,5,1,3,×,4,3 × 4,incongruent,smallerFirst,2,1,12,,,,,,,,
,,,,,,,,,,,,,,,740,2022-01-21_10h18.53.017,multiplicationStroop,2021.2.3,Win32,60.03121623,,,,,,,,,,,,,,,,,,,,,,,,,,,,,,,,,12,1.9572,1,0,30,30,19,1,6,×,2,6 × 2,incongruent,largerFirst,1,2,12,,,,,,,,
,,,,,,,,,,,,,,,740,2022-01-21_10h18.53.017,multiplicationStroop,2021.2.3,Win32,60.03121623,,,,,,,,,,,,,,,,,,,,,,,,,,,,,,,,,35,2.5178,1,0,31,31,12,1,5,×,7,5 × 7,incongruent,smallerFirst,2,1,35,,,,,,,,
,,,,,,,,,,,,,,,740,2022-01-21_10h18.53.017,multiplicationStroop,2021.2.3,Win32,60.03121623,,,,,,,,,,,,,,,,,,,,,,,,,,,,,,,,,56,1.6446,1,0,32,32,14,1,8,×,7,8 × 7,incongruent,largerFirst,1,2,56,,,,,,,,
,,,,,,,,,,,,,,,740,2022-01-21_10h18.53.017,multiplicationStroop,2021.2.3,Win32,60.03121623,,,,,,,,,,,,,,,,,,,,,,,,,,,,,,,,,42,1.5669,1,0,33,33,17,1,7,×,6,7 × 6,incongruent,largerFirst,1,2,42,,,,,,,,
,,,,,,,,,,,,,,,740,2022-01-21_10h18.53.017,multiplicationStroop,2021.2.3,Win32,60.03121623,,,,,,,,,,,,,,,,,,,,,,,,,,,,,,,,,6,1.4899,1,0,34,34,11,1,2,×,3,2 × 3,incongruent,smallerFirst,2,1,6,,,,,,,,
,,,,,,,,,,,,,,,740,2022-01-21_10h18.53.017,multiplicationStroop,2021.2.3,Win32,60.03121623,,,,,,,,,,,,,,,,,,,,,,,,,,,,,,,,,14,1.6291,1,0,35,35,4,1,2,×,7,2 × 7,incongruent,smallerFirst,2,1,14,,,,,,,,
,,,,,,,,,,,,,,,740,2022-01-21_10h18.53.017,multiplicationStroop,2021.2.3,Win32,60.03121623,,,,,,,,,,,,,,,,,,,,,,,,,,,,,,,,,,,,,,,,,,,,,,,,,,0,3,3,5,1,stimulusFile/mult_blk6_INcongruent.xlsx,,
,,,,,,,,,,,,,,,740,2022-01-21_10h18.53.017,multiplicationStroop,2021.2.3,Win32,60.03121623,,,,,,,,,,,,,,,,,,,,,,,,,,,,,,,space,7.198,12,1.1046,1,0,0,0,21,1,4,×,3,4 × 3,neutral,largerFirst,1.5,1.5,12,,,,,,,,
,,,,,,,,,,,,,,,740,2022-01-21_10h18.53.017,multiplicationStroop,2021.2.3,Win32,60.03121623,,,,,,,,,,,,,,,,,,,,,,,,,,,,,,,,,20,1.445,1,0,1,1,20,1,5,×,4,5 × 4,neutral,largerFirst,1.5,1.5,20,,,,,,,,
,,,,,,,,,,,,,,,740,2022-01-21_10h18.53.017,multiplicationStroop,2021.2.3,Win32,60.03121623,,,,,,,,,,,,,,,,,,,,,,,,,,,,,,,,,24,1.4285,1,0,2,2,22,1,8,×,3,8 × 3,neutral,largerFirst,1.5,1.5,24,,,,,,,,
,,,,,,,,,,,,,,,740,2022-01-21_10h18.53.017,multiplicationStroop,2021.2.3,Win32,60.03121623,,,,,,,,,,,,,,,,,,,,,,,,,,,,,,,,,16,1.5944,1,0,3,3,13,1,2,×,8,2 × 8,neutral,smallerFirst,1.5,1.5,16,,,,,,,,
,,,,,,,,,,,,,,,740,2022-01-21_10h18.53.017,multiplicationStroop,2021.2.3,Win32,60.03121623,,,,,,,,,,,,,,,,,,,,,,,,,,,,,,,,,18,1.5449,1,0,4,4,18,1,9,×,2,9 × 2,neutral,largerFirst,1.5,1.5,18,,,,,,,,
,,,,,,,,,,,,,,,740,2022-01-21_10h18.53.017,multiplicationStroop,2021.2.3,Win32,60.03121623,,,,,,,,,,,,,,,,,,,,,,,,,,,,,,,,,49,2.3427,1,0,5,5,33,1,7,×,7,7 × 7,neutral,tie,1.5,1.5,49,,,,,,,,
,,,,,,,,,,,,,,,740,2022-01-21_10h18.53.017,multiplicationStroop,2021.2.3,Win32,60.03121623,,,,,,,,,,,,,,,,,,,,,,,,,,,,,,,,,72,3.2073,1,0,6,6,11,1,8,×,9,8 × 9,neutral,smallerFirst,1.5,1.5,72,,,,,,,,
,,,,,,,,,,,,,,,740,2022-01-21_10h18.53.017,multiplicationStroop,2021.2.3,Win32,60.03121623,,,,,,,,,,,,,,,,,,,,,,,,,,,,,,,,,10,1.3931,1,0,7,7,4,1,2,×,5,2 × 5,neutral,smallerFirst,1.5,1.5,10,,,,,,,,
,,,,,,,,,,,,,,,740,2022-01-21_10h18.53.017,multiplicationStroop,2021.2.3,Win32,60.03121623,,,,,,,,,,,,,,,,,,,,,,,,,,,,,,,,,40,1.5527,1,0,8,8,24,1,8,×,5,8 × 5,neutral,largerFirst,1.5,1.5,40,,,,,,,,
,,,,,,,,,,,,,,,740,2022-01-21_10h18.53.017,multiplicationStroop,2021.2.3,Win32,60.03121623,,,,,,,,,,,,,,,,,,,,,,,,,,,,,,,,,63,2.3922,1,0,9,9,12,1,7,×,9,7 × 9,neutral,smallerFirst,1.5,1.5,63,,,,,,,,
,,,,,,,,,,,,,,,740,2022-01-21_10h18.53.017,multiplicationStroop,2021.2.3,Win32,60.03121623,,,,,,,,,,,,,,,,,,,,,,,,,,,,,,,,,35,1.6398,1,0,10,10,1,1,5,×,7,5 × 7,neutral,smallerFirst,1.5,1.5,35,,,,,,,,
,,,,,,,,,,,,,,,740,2022-01-21_10h18.53.017,multiplicationStroop,2021.2.3,Win32,60.03121623,,,,,,,,,,,,,,,,,,,,,,,,,,,,,,,,,30,1.6726,1,0,11,11,19,1,6,×,5,6 × 5,neutral,largerFirst,1.5,1.5,30,,,,,,,,
,,,,,,,,,,,,,,,740,2022-01-21_10h18.53.017,multiplicationStroop,2021.2.3,Win32,60.03121623,,,,,,,,,,,,,,,,,,,,,,,,,,,,,,,,,42,2.3421,1,0,12,12,6,1,6,×,7,6 × 7,neutral,smallerFirst,1.5,1.5,42,,,,,,,,
,,,,,,,,,,,,,,,740,2022-01-21_10h18.53.017,multiplicationStroop,2021.2.3,Win32,60.03121623,,,,,,,,,,,,,,,,,,,,,,,,,,,,,,,,,24,2.152,1,0,13,13,2,1,4,×,6,4 × 6,neutral,smallerFirst,1.5,1.5,24,,,,,,,,
,,,,,,,,,,,,,,,740,2022-01-21_10h18.53.017,multiplicationStroop,2021.2.3,Win32,60.03121623,,,,,,,,,,,,,,,,,,,,,,,,,,,,,,,,,8,1.911,1,0,14,14,3,1,2,×,4,2 × 4,neutral,smallerFirst,1.5,1.5,8,,,,,,,,
,,,,,,,,,,,,,,,740,2022-01-21_10h18.53.017,multiplicationStroop,2021.2.3,Win32,60.03121623,,,,,,,,,,,,,,,,,,,,,,,,,,,,,,,,,15,1.7393,1,0,15,15,5,1,3,×,5,3 × 5,neutral,smallerFirst,1.5,1.5,15,,,,,,,,
,,,,,,,,,,,,,,,740,2022-01-21_10h18.53.017,multiplicationStroop,2021.2.3,Win32,60.03121623,,,,,,,,,,,,,,,,,,,,,,,,,,,,,,,,,27,1.8101,1,0,16,16,14,1,9,×,3,9 × 3,neutral,largerFirst,1.5,1.5,27,,,,,,,,
,,,,,,,,,,,,,,,740,2022-01-21_10h18.53.017,multiplicationStroop,2021.2.3,Win32,60.03121623,,,,,,,,,,,,,,,,,,,,,,,,,,,,,,,,,81,1.7444,1,0,17,17,35,1,9,×,9,9 × 9,neutral,tie,1.5,1.5,81,,,,,,,,
,,,,,,,,,,,,,,,740,2022-01-21_10h18.53.017,multiplicationStroop,2021.2.3,Win32,60.03121623,,,,,,,,,,,,,,,,,,,,,,,,,,,,,,,,,36,3.1398,1,0,18,18,32,1,6,×,6,6 × 6,neutral,tie,1.5,1.5,36,,,,,,,,
,,,,,,,,,,,,,,,740,2022-01-21_10h18.53.017,multiplicationStroop,2021.2.3,Win32,60.03121623,,,,,,,,,,,,,,,,,,,,,,,,,,,,,,,,,21,1.2514,1,0,19,19,8,1,3,×,7,3 × 7,neutral,smallerFirst,1.5,1.5,21,,,,,,,,
,,,,,,,,,,,,,,,740,2022-01-21_10h18.53.017,multiplicationStroop,2021.2.3,Win32,60.03121623,,,,,,,,,,,,,,,,,,,,,,,,,,,,,,,,,25,1.3829,1,0,20,20,31,1,5,×,5,5 × 5,neutral,tie,1.5,1.5,25,,,,,,,,
,,,,,,,,,,,,,,,740,2022-01-21_10h18.53.017,multiplicationStroop,2021.2.3,Win32,60.03121623,,,,,,,,,,,,,,,,,,,,,,,,,,,,,,,,,6,1.7786,1,0,21,21,26,1,3,×,2,3 × 2,neutral,largerFirst,1.5,1.5,6,,,,,,,,
,,,,,,,,,,,,,,,740,2022-01-21_10h18.53.017,multiplicationStroop,2021.2.3,Win32,60.03121623,,,,,,,,,,,,,,,,,,,,,,,,,,,,,,,,,4,1.3722,1,0,22,22,28,1,2,×,2,2 × 2,neutral,tie,1.5,1.5,4,,,,,,,,
,,,,,,,,,,,,,,,740,2022-01-21_10h18.53.017,multiplicationStroop,2021.2.3,Win32,60.03121623,,,,,,,,,,,,,,,,,,,,,,,,,,,,,,,,,54,3.0908,1,0,23,23,7,1,6,×,9,6 × 9,neutral,smallerFirst,1.5,1.5,54,,,,,,,,
,,,,,,,,,,,,,,,740,2022-01-21_10h18.53.017,multiplicationStroop,2021.2.3,Win32,60.03121623,,,,,,,,,,,,,,,,,,,,,,,,,,,,,,,,,16,2.0762,1,0,24,24,30,1,4,×,4,4 × 4,neutral,tie,1.5,1.5,16,,,,,,,,
,,,,,,,,,,,,,,,740,2022-01-21_10h18.53.017,multiplicationStroop,2021.2.3,Win32,60.03121623,,,,,,,,,,,,,,,,,,,,,,,,,,,,,,,,,14,1.545,1,0,25,25,16,1,7,×,2,7 × 2,neutral,largerFirst,1.5,1.5,14,,,,,,,,
,,,,,,,,,,,,,,,740,2022-01-21_10h18.53.017,multiplicationStroop,2021.2.3,Win32,60.03121623,,,,,,,,,,,,,,,,,,,,,,,,,,,,,,,,,56,1.4951,1,0,26,26,9,1,7,×,8,7 × 8,neutral,smallerFirst,1.5,1.5,56,,,,,,,,
,,,,,,,,,,,,,,,740,2022-01-21_10h18.53.017,multiplicationStroop,2021.2.3,Win32,60.03121623,,,,,,,,,,,,,,,,,,,,,,,,,,,,,,,,,45,2.7073,1,0,27,27,10,1,5,×,9,5 × 9,neutral,smallerFirst,1.5,1.5,45,,,,,,,,
,,,,,,,,,,,,,,,740,2022-01-21_10h18.53.017,multiplicationStroop,2021.2.3,Win32,60.03121623,,,,,,,,,,,,,,,,,,,,,,,,,,,,,,,,,18,1.8159,1,0,28,28,0,1,3,×,6,3 × 6,neutral,smallerFirst,1.5,1.5,18,,,,,,,,
,,,,,,,,,,,,,,,740,2022-01-21_10h18.53.017,multiplicationStroop,2021.2.3,Win32,60.03121623,,,,,,,,,,,,,,,,,,,,,,,,,,,,,,,,,64,1.9219,1,0,29,29,34,1,8,×,8,8 × 8,neutral,tie,1.5,1.5,64,,,,,,,,
,,,,,,,,,,,,,,,740,2022-01-21_10h18.53.017,multiplicationStroop,2021.2.3,Win32,60.03121623,,,,,,,,,,,,,,,,,,,,,,,,,,,,,,,,,28,2.4747,1,0,30,30,17,1,7,×,4,7 × 4,neutral,largerFirst,1.5,1.5,28,,,,,,,,
,,,,,,,,,,,,,,,740,2022-01-21_10h18.53.017,multiplicationStroop,2021.2.3,Win32,60.03121623,,,,,,,,,,,,,,,,,,,,,,,,,,,,,,,,,32,4.0718,1,0,31,31,23,1,8,×,4,8 × 4,neutral,largerFirst,1.5,1.5,32,,,,,,,,
,,,,,,,,,,,,,,,740,2022-01-21_10h18.53.017,multiplicationStroop,2021.2.3,Win32,60.03121623,,,,,,,,,,,,,,,,,,,,,,,,,,,,,,,,,9,2.1327,1,0,32,32,29,1,3,×,3,3 × 3,neutral,tie,1.5,1.5,9,,,,,,,,
,,,,,,,,,,,,,,,740,2022-01-21_10h18.53.017,multiplicationStroop,2021.2.3,Win32,60.03121623,,,,,,,,,,,,,,,,,,,,,,,,,,,,,,,,,48,3.0124,1,0,33,33,15,1,8,×,6,8 × 6,neutral,largerFirst,1.5,1.5,48,,,,,,,,
,,,,,,,,,,,,,,,740,2022-01-21_10h18.53.017,multiplicationStroop,2021.2.3,Win32,60.03121623,,,,,,,,,,,,,,,,,,,,,,,,,,,,,,,,,36,2.3342,1,0,34,34,27,1,9,×,4,9 × 4,neutral,largerFirst,1.5,1.5,36,,,,,,,,
,,,,,,,,,,,,,,,740,2022-01-21_10h18.53.017,multiplicationStroop,2021.2.3,Win32,60.03121623,,,,,,,,,,,,,,,,,,,,,,,,,,,,,,,,,12,1.8845,1,0,35,35,25,1,6,×,2,6 × 2,neutral,largerFirst,1.5,1.5,12,,,,,,,,
,,,,,,,,,,,,,,,740,2022-01-21_10h18.53.017,multiplicationStroop,2021.2.3,Win32,60.03121623,,,,,,,,,,,,,,,,,,,,,,,,,,,,,,,,,,,,,,,,,,,,,,,,,,0,4,4,1,1,stimulusFile/mult_blk2.xlsx,,
,,,,,,,,,,,,,,,740,2022-01-21_10h18.53.017,multiplicationStroop,2021.2.3,Win32,60.03121623,,,,,,,,,,,,,,,,,,,,,,,,,,,,,,,space,5.5529,21,1.1815,1,0,0,0,2,1,3,×,7,3 × 7,congruent,smallerFirst,1,2,21,,,,,,,,
,,,,,,,,,,,,,,,740,2022-01-21_10h18.53.017,multiplicationStroop,2021.2.3,Win32,60.03121623,,,,,,,,,,,,,,,,,,,,,,,,,,,,,,,,,32,2.0271,1,0,1,1,6,1,4,×,8,4 × 8,congruent,smallerFirst,1,2,32,,,,,,,,
,,,,,,,,,,,,,,,740,2022-01-21_10h18.53.017,multiplicationStroop,2021.2.3,Win32,60.03121623,,,,,,,,,,,,,,,,,,,,,,,,,,,,,,,,,16,2.0929,1,0,2,2,19,1,8,×,2,8 × 2,congruent,largerFirst,2,1,16,,,,,,,,
,,,,,,,,,,,,,,,740,2022-01-21_10h18.53.017,multiplicationStroop,2021.2.3,Win32,60.03121623,,,,,,,,,,,,,,,,,,,,,,,,,,,,,,,,,36,1.9934,1,0,3,3,32,1,6,×,6,6 × 6,neutral,tie,1,2,36,,,,,,,,
,,,,,,,,,,,,,,,740,2022-01-21_10h18.53.017,multiplicationStroop,2021.2.3,Win32,60.03121623,,,,,,,,,,,,,,,,,,,,,,,,,,,,,,,,,6,2.0599,1,0,4,4,27,1,3,×,2,3 × 2,congruent,largerFirst,2,1,6,,,,,,,,
,,,,,,,,,,,,,,,740,2022-01-21_10h18.53.017,multiplicationStroop,2021.2.3,Win32,60.03121623,,,,,,,,,,,,,,,,,,,,,,,,,,,,,,,,,27,1.877,1,0,5,5,12,1,3,×,9,3 × 9,congruent,smallerFirst,1,2,27,,,,,,,,
,,,,,,,,,,,,,,,740,2022-01-21_10h18.53.017,multiplicationStroop,2021.2.3,Win32,60.03121623,,,,,,,,,,,,,,,,,,,,,,,,,,,,,,,,,25,1.5781,0,0,6,6,15,1,7,×,5,7 × 5,congruent,largerFirst,2,1,35,,,,,,,,
,,,,,,,,,,,,,,,740,2022-01-21_10h18.53.017,multiplicationStroop,2021.2.3,Win32,60.03121623,,,,,,,,,,,,,,,,,,,,,,,,,,,,,,,,,8,1.4779,1,0,7,7,23,1,4,×,2,4 × 2,congruent,largerFirst,2,1,8,,,,,,,,
,,,,,,,,,,,,,,,740,2022-01-21_10h18.53.017,multiplicationStroop,2021.2.3,Win32,60.03121623,,,,,,,,,,,,,,,,,,,,,,,,,,,,,,,,,63,2.9907,1,0,8,8,7,1,7,×,9,7 × 9,congruent,smallerFirst,1,2,63,,,,,,,,
,,,,,,,,,,,,,,,740,2022-01-21_10h18.53.017,multiplicationStroop,2021.2.3,Win32,60.03121623,,,,,,,,,,,,,,,,,,,,,,,,,,,,,,,,,4,1.5118,1,0,9,9,28,1,2,×,2,2 × 2,neutral,tie,1,2,4,,,,,,,,
,,,,,,,,,,,,,,,740,2022-01-21_10h18.53.017,multiplicationStroop,2021.2.3,Win32,60.03121623,,,,,,,,,,,,,,,,,,,,,,,,,,,,,,,,,45,1.7658,1,0,10,10,9,1,5,×,9,5 × 9,congruent,smallerFirst,1,2,45,,,,,,,,
,,,,,,,,,,,,,,,740,2022-01-21_10h18.53.017,multiplicationStroop,2021.2.3,Win32,60.03121623,,,,,,,,,,,,,,,,,,,,,,,,,,,,,,,,,12,1.7229,1,0,11,11,5,1,2,×,6,2 × 6,congruent,smallerFirst,1,2,12,,,,,,,,
,,,,,,,,,,,,,,,740,2022-01-21_10h18.53.017,multiplicationStroop,2021.2.3,Win32,60.03121623,,,,,,,,,,,,,,,,,,,,,,,,,,,,,,,,,24,2.01,1,0,12,12,11,1,4,×,6,4 × 6,congruent,smallerFirst,1,2,24,,,,,,,,
,,,,,,,,,,,,,,,740,2022-01-21_10h18.53.017,multiplicationStroop,2021.2.3,Win32,60.03121623,,,,,,,,,,,,,,,,,,,,,,,,,,,,,,,,,56,1.6275,1,0,13,13,22,1,8,×,7,8 × 7,congruent,largerFirst,2,1,56,,,,,,,,
,,,,,,,,,,,,,,,740,2022-01-21_10h18.53.017,multiplicationStroop,2021.2.3,Win32,60.03121623,,,,,,,,,,,,,,,,,,,,,,,,,,,,,,,,,28,2.2762,1,0,14,14,13,1,4,×,7,4 × 7,congruent,smallerFirst,1,2,28,,,,,,,,
,,,,,,,,,,,,,,,740,2022-01-21_10h18.53.017,multiplicationStroop,2021.2.3,Win32,60.03121623,,,,,,,,,,,,,,,,,,,,,,,,,,,,,,,,,48,3.9712,1,0,15,15,4,1,6,×,8,6 × 8,congruent,smallerFirst,1,2,48,,,,,,,,
,,,,,,,,,,,,,,,740,2022-01-21_10h18.53.017,multiplicationStroop,2021.2.3,Win32,60.03121623,,,,,,,,,,,,,,,,,,,,,,,,,,,,,,,,,81,2.5519,1,0,16,16,35,1,9,×,9,9 × 9,neutral,tie,1,2,81,,,,,,,,
,,,,,,,,,,,,,,,740,2022-01-21_10h18.53.017,multiplicationStroop,2021.2.3,Win32,60.03121623,,,,,,,,,,,,,,,,,,,,,,,,,,,,,,,,,36,1.7444,1,0,17,17,14,1,9,×,4,9 × 4,congruent,largerFirst,2,1,36,,,,,,,,
,,,,,,,,,,,,,,,740,2022-01-21_10h18.53.017,multiplicationStroop,2021.2.3,Win32,60.03121623,,,,,,,,,,,,,,,,,,,,,,,,,,,,,,,,,24,2.3879,1,0,18,18,24,1,8,×,3,8 × 3,congruent,largerFirst,2,1,24,,,,,,,,
,,,,,,,,,,,,,,,740,2022-01-21_10h18.53.017,multiplicationStroop,2021.2.3,Win32,60.03121623,,,,,,,,,,,,,,,,,,,,,,,,,,,,,,,,,9,1.5822,1,0,19,19,29,1,3,×,3,3 × 3,neutral,tie,1,2,9,,,,,,,,
,,,,,,,,,,,,,,,740,2022-01-21_10h18.53.017,multiplicationStroop,2021.2.3,Win32,60.03121623,,,,,,,,,,,,,,,,,,,,,,,,,,,,,,,,,16,1.5403,1,0,20,20,30,1,4,×,4,4 × 4,neutral,tie,1,2,16,,,,,,,,
,,,,,,,,,,,,,,,740,2022-01-21_10h18.53.017,multiplicationStroop,2021.2.3,Win32,60.03121623,,,,,,,,,,,,,,,,,,,,,,,,,,,,,,,,,49,1.8442,1,0,21,21,33,1,7,×,7,7 × 7,neutral,tie,1,2,49,,,,,,,,
,,,,,,,,,,,,,,,740,2022-01-21_10h18.53.017,multiplicationStroop,2021.2.3,Win32,60.03121623,,,,,,,,,,,,,,,,,,,,,,,,,,,,,,,,,14,1.8993,1,0,22,22,0,1,2,×,7,2 × 7,congruent,smallerFirst,1,2,14,,,,,,,,
,,,,,,,,,,,,,,,740,2022-01-21_10h18.53.017,multiplicationStroop,2021.2.3,Win32,60.03121623,,,,,,,,,,,,,,,,,,,,,,,,,,,,,,,,,30,2.0381,1,0,23,23,1,1,5,×,6,5 × 6,congruent,smallerFirst,1,2,30,,,,,,,,
,,,,,,,,,,,,,,,740,2022-01-21_10h18.53.017,multiplicationStroop,2021.2.3,Win32,60.03121623,,,,,,,,,,,,,,,,,,,,,,,,,,,,,,,,,42,2.0639,1,0,24,24,17,1,7,×,6,7 × 6,congruent,largerFirst,2,1,42,,,,,,,,
,,,,,,,,,,,,,,,740,2022-01-21_10h18.53.017,multiplicationStroop,2021.2.3,Win32,60.03121623,,,,,,,,,,,,,,,,,,,,,,,,,,,,,,,,,64,2.9454,1,0,25,25,34,1,8,×,8,8 × 8,neutral,tie,1,2,64,,,,,,,,
,,,,,,,,,,,,,,,740,2022-01-21_10h18.53.017,multiplicationStroop,2021.2.3,Win32,60.03121623,,,,,,,,,,,,,,,,,,,,,,,,,,,,,,,,,18,1.4241,1,0,26,26,8,1,2,×,9,2 × 9,congruent,smallerFirst,1,2,18,,,,,,,,
,,,,,,,,,,,,,,,740,2022-01-21_10h18.53.017,multiplicationStroop,2021.2.3,Win32,60.03121623,,,,,,,,,,,,,,,,,,,,,,,,,,,,,,,,,63,5.0345,0,0,27,27,26,1,9,×,6,9 × 6,congruent,largerFirst,2,1,54,,,,,,,,
,,,,,,,,,,,,,,,740,2022-01-21_10h18.53.017,multiplicationStroop,2021.2.3,Win32,60.03121623,,,,,,,,,,,,,,,,,,,,,,,,,,,,,,,,,18,3.6891,1,0,28,28,25,1,6,×,3,6 × 3,congruent,largerFirst,2,1,18,,,,,,,,
,,,,,,,,,,,,,,,740,2022-01-21_10h18.53.017,multiplicationStroop,2021.2.3,Win32,60.03121623,,,,,,,,,,,,,,,,,,,,,,,,,,,,,,,,,40,1.8707,1,0,29,29,20,1,8,×,5,8 × 5,congruent,largerFirst,2,1,40,,,,,,,,
,,,,,,,,,,,,,,,740,2022-01-21_10h18.53.017,multiplicationStroop,2021.2.3,Win32,60.03121623,,,,,,,,,,,,,,,,,,,,,,,,,,,,,,,,,2,4.0339,0,0,30,30,31,1,5,×,5,5 × 5,neutral,tie,1,2,25,,,,,,,,
,,,,,,,,,,,,,,,740,2022-01-21_10h18.53.017,multiplicationStroop,2021.2.3,Win32,60.03121623,,,,,,,,,,,,,,,,,,,,,,,,,,,,,,,,,10,1.9871,1,0,31,31,10,1,2,×,5,2 × 5,congruent,smallerFirst,1,2,10,,,,,,,,
,,,,,,,,,,,,,,,740,2022-01-21_10h18.53.017,multiplicationStroop,2021.2.3,Win32,60.03121623,,,,,,,,,,,,,,,,,,,,,,,,,,,,,,,,,15,1.362,1,0,32,32,18,1,5,×,3,5 × 3,congruent,largerFirst,2,1,15,,,,,,,,
,,,,,,,,,,,,,,,740,2022-01-21_10h18.53.017,multiplicationStroop,2021.2.3,Win32,60.03121623,,,,,,,,,,,,,,,,,,,,,,,,,,,,,,,,,20,2.5841,1,0,33,33,21,1,5,×,4,5 × 4,congruent,largerFirst,2,1,20,,,,,,,,
,,,,,,,,,,,,,,,740,2022-01-21_10h18.53.017,multiplicationStroop,2021.2.3,Win32,60.03121623,,,,,,,,,,,,,,,,,,,,,,,,,,,,,,,,,12,1.3705,1,0,34,34,16,1,4,×,3,4 × 3,congruent,largerFirst,2,1,12,,,,,,,,
,,,,,,,,,,,,,,,740,2022-01-21_10h18.53.017,multiplicationStroop,2021.2.3,Win32,60.03121623,,,,,,,,,,,,,,,,,,,,,,,,,,,,,,,,,72,3.8711,1,0,35,35,3,1,8,×,9,8 × 9,congruent,smallerFirst,1,2,72,,,,,,,,
,,,,,,,,,,,,,,,740,2022-01-21_10h18.53.017,multiplicationStroop,2021.2.3,Win32,60.03121623,,,,,,,,,,,,,,,,,,,,,,,,,,,,,,,,,,,,,,,,,,,,,,,,,,0,5,5,3,1,stimulusFile/mult_blk4_congruent.xlsx,,
,,,,,,,,,,,,,,,740,2022-01-21_10h18.53.017,multiplicationStroop,2021.2.3,Win32,60.03121623,,,,,,,,,,,,,,,,,,,,,,,,,,,,,,,,,,,,,,,,,,,,,,,,,,,,,,,,space,11.1781