welcomeKey_resp.keys,welcomeKey_resp.rt,X Scale,Y Scale,rt_resp_4.keys,rt_resp_4.corr,rt_resp_4.rt,speedtest_2.thisRepN,speedtest_2.thisTrialN,speedtest_2.thisN,speedtest_2.thisIndex,speedtest_2.ran,numberSc,posX,positionLayout,participant,date,expName,psychopyVersion,OS,frameRate,ct_instrresp.keys,ct_instrresp.rt,key_resp_2.keys,key_resp_2.rt,ct_keyResp.keys,ct_keyResp.corr,ct_keyResp.rt,trials.thisRepN,trials.thisTrialN,trials.thisN,trials.thisIndex,trials.ran,leftNo,rightNo,displayProblem,numDistance,leftNo_size,rightNo_size,Dims,keyAnswer,TS_Loop.thisRepN,TS_Loop.thisTrialN,TS_Loop.thisN,TS_Loop.thisIndex,TS_Loop.ran,Condition,ActionInst,instrImage,mltptaskInst_resp.keys,mltptaskInst_resp.rt,continue_resp_2.keys,continue_resp_2.rt,multp_Answer,multi_RT,multiplyCorr,LoopingMultiply.thisRepN,LoopingMultiply.thisTrialN,LoopingMultiply.thisN,LoopingMultiply.thisIndex,LoopingMultiply.ran,factor1,multiplySign,factor2,multliplyProblem,physicalSize,orderOperand,sizeF1,sizeF2,mult_answer,trials_stroop.thisRepN,trials_stroop.thisTrialN,trials_stroop.thisN,trials_stroop.thisIndex,trials_stroop.ran,multiplicationFile,esckey_resp_2.keys,esckey_resp_2.rt
y,18.2574,60,40,right,1,1.0943,0,0,0,11,1,4,200,right,741,2022-01-20_22h46.01.728,multiplicationStroop,2021.2.3,Win32,144.5086705,,,,,,,,,,,,,,,,,,,,,,,,,,,,,,,,,,,,,,,,,,,,,,,,,,,,,,,,,
,,,,right,1,0.3521,0,1,1,8,1,1,200,right,741,2022-01-20_22h46.01.728,multiplicationStroop,2021.2.3,Win32,144.5086705,,,,,,,,,,,,,,,,,,,,,,,,,,,,,,,,,,,,,,,,,,,,,,,,,,,,,,,,,
,,,,right,1,0.2681,0,2,2,12,1,6,200,right,741,2022-01-20_22h46.01.728,multiplicationStroop,2021.2.3,Win32,144.5086705,,,,,,,,,,,,,,,,,,,,,,,,,,,,,,,,,,,,,,,,,,,,,,,,,,,,,,,,,
,,,,left,1,0.3883,0,3,3,6,1,8,-200,left,741,2022-01-20_22h46.01.728,multiplicationStroop,2021.2.3,Win32,144.5086705,,,,,,,,,,,,,,,,,,,,,,,,,,,,,,,,,,,,,,,,,,,,,,,,,,,,,,,,,
,,,,left,1,0.3888,0,4,4,0,1,1,-200,left,741,2022-01-20_22h46.01.728,multiplicationStroop,2021.2.3,Win32,144.5086705,,,,,,,,,,,,,,,,,,,,,,,,,,,,,,,,,,,,,,,,,,,,,,,,,,,,,,,,,
,,,,left,1,1.1573,0,5,5,2,1,3,-200,left,741,2022-01-20_22h46.01.728,multiplicationStroop,2021.2.3,Win32,144.5086705,,,,,,,,,,,,,,,,,,,,,,,,,,,,,,,,,,,,,,,,,,,,,,,,,,,,,,,,,
,,,,right,1,0.3888,0,6,6,9,1,2,200,right,741,2022-01-20_22h46.01.728,multiplicationStroop,2021.2.3,Win32,144.5086705,,,,,,,,,,,,,,,,,,,,,,,,,,,,,,,,,,,,,,,,,,,,,,,,,,,,,,,,,
,,,,left,1,0.3773,0,7,7,3,1,4,-200,left,741,2022-01-20_22h46.01.728,multiplicationStroop,2021.2.3,Win32,144.5086705,,,,,,,,,,,,,,,,,,,,,,,,,,,,,,,,,,,,,,,,,,,,,,,,,,,,,,,,,
,,,,right,1,0.4103,0,8,8,14,1,8,200,right,741,2022-01-20_22h46.01.728,multiplicationStroop,2021.2.3,Win32,144.5086705,,,,,,,,,,,,,,,,,,,,,,,,,,,,,,,,,,,,,,,,,,,,,,,,,,,,,,,,,
,,,,right,1,0.5283,0,9,9,10,1,3,200,right,741,2022-01-20_22h46.01.728,multiplicationStroop,2021.2.3,Win32,144.5086705,,,,,,,,,,,,,,,,,,,,,,,,,,,,,,,,,,,,,,,,,,,,,,,,,,,,,,,,,
,,,,left,1,0.4449,0,10,10,5,1,7,-200,left,741,2022-01-20_22h46.01.728,multiplicationStroop,2021.2.3,Win32,144.5086705,,,,,,,,,,,,,,,,,,,,,,,,,,,,,,,,,,,,,,,,,,,,,,,,,,,,,,,,,
,,,,left,1,0.4653,0,11,11,1,1,2,-200,left,741,2022-01-20_22h46.01.728,multiplicationStroop,2021.2.3,Win32,144.5086705,,,,,,,,,,,,,,,,,,,,,,,,,,,,,,,,,,,,,,,,,,,,,,,,,,,,,,,,,
,,,,left,1,0.3266,0,12,12,4,1,6,-200,left,741,2022-01-20_22h46.01.728,multiplicationStroop,2021.2.3,Win32,144.5086705,,,,,,,,,,,,,,,,,,,,,,,,,,,,,,,,,,,,,,,,,,,,,,,,,,,,,,,,,
,,,,left,1,0.306,0,13,13,7,1,9,-200,left,741,2022-01-20_22h46.01.728,multiplicationStroop,2021.2.3,Win32,144.5086705,,,,,,,,,,,,,,,,,,,,,,,,,,,,,,,,,,,,,,,,,,,,,,,,,,,,,,,,,
,,,,right,1,0.3733,0,14,14,15,1,9,200,right,741,2022-01-20_22h46.01.728,multiplicationStroop,2021.2.3,Win32,144.5086705,,,,,,,,,,,,,,,,,,,,,,,,,,,,,,,,,,,,,,,,,,,,,,,,,,,,,,,,,
,,,,right,1,0.3125,0,15,15,13,1,7,200,right,741,2022-01-20_22h46.01.728,multiplicationStroop,2021.2.3,Win32,144.5086705,,,,,,,,,,,,,,,,,,,,,,,,,,,,,,,,,,,,,,,,,,,,,,,,,,,,,,,,,
,,,,right,1,0.2889,1,0,16,15,1,9,200,right,741,2022-01-20_22h46.01.728,multiplicationStroop,2021.2.3,Win32,144.5086705,,,,,,,,,,,,,,,,,,,,,,,,,,,,,,,,,,,,,,,,,,,,,,,,,,,,,,,,,
,,,,right,1,0.2939,1,1,17,8,1,1,200,right,741,2022-01-20_22h46.01.728,multiplicationStroop,2021.2.3,Win32,144.5086705,,,,,,,,,,,,,,,,,,,,,,,,,,,,,,,,,,,,,,,,,,,,,,,,,,,,,,,,,
,,,,right,1,0.2931,1,2,18,11,1,4,200,right,741,2022-01-20_22h46.01.728,multiplicationStroop,2021.2.3,Win32,144.5086705,,,,,,,,,,,,,,,,,,,,,,,,,,,,,,,,,,,,,,,,,,,,,,,,,,,,,,,,,
,,,,left,1,0.3404,1,3,19,7,1,9,-200,left,741,2022-01-20_22h46.01.728,multiplicationStroop,2021.2.3,Win32,144.5086705,,,,,,,,,,,,,,,,,,,,,,,,,,,,,,,,,,,,,,,,,,,,,,,,,,,,,,,,,
,,,,left,1,0.3213,1,4,20,0,1,1,-200,left,741,2022-01-20_22h46.01.728,multiplicationStroop,2021.2.3,Win32,144.5086705,,,,,,,,,,,,,,,,,,,,,,,,,,,,,,,,,,,,,,,,,,,,,,,,,,,,,,,,,
,,,,left,1,0.2752,1,5,21,4,1,6,-200,left,741,2022-01-20_22h46.01.728,multiplicationStroop,2021.2.3,Win32,144.5086705,,,,,,,,,,,,,,,,,,,,,,,,,,,,,,,,,,,,,,,,,,,,,,,,,,,,,,,,,
,,,,right,1,0.3139,1,6,22,9,1,2,200,right,741,2022-01-20_22h46.01.728,multiplicationStroop,2021.2.3,Win32,144.5086705,,,,,,,,,,,,,,,,,,,,,,,,,,,,,,,,,,,,,,,,,,,,,,,,,,,,,,,,,
,,,,right,1,0.3165,1,7,23,12,1,6,200,right,741,2022-01-20_22h46.01.728,multiplicationStroop,2021.2.3,Win32,144.5086705,,,,,,,,,,,,,,,,,,,,,,,,,,,,,,,,,,,,,,,,,,,,,,,,,,,,,,,,,
,,,,left,1,0.3311,1,8,24,6,1,8,-200,left,741,2022-01-20_22h46.01.728,multiplicationStroop,2021.2.3,Win32,144.5086705,,,,,,,,,,,,,,,,,,,,,,,,,,,,,,,,,,,,,,,,,,,,,,,,,,,,,,,,,
,,,,right,1,0.4166,1,9,25,14,1,8,200,right,741,2022-01-20_22h46.01.728,multiplicationStroop,2021.2.3,Win32,144.5086705,,,,,,,,,,,,,,,,,,,,,,,,,,,,,,,,,,,,,,,,,,,,,,,,,,,,,,,,,
,,,,left,1,0.3195,1,10,26,5,1,7,-200,left,741,2022-01-20_22h46.01.728,multiplicationStroop,2021.2.3,Win32,144.5086705,,,,,,,,,,,,,,,,,,,,,,,,,,,,,,,,,,,,,,,,,,,,,,,,,,,,,,,,,
,,,,left,1,0.366,1,11,27,2,1,3,-200,left,741,2022-01-20_22h46.01.728,multiplicationStroop,2021.2.3,Win32,144.5086705,,,,,,,,,,,,,,,,,,,,,,,,,,,,,,,,,,,,,,,,,,,,,,,,,,,,,,,,,
,,,,left,1,0.2901,1,12,28,1,1,2,-200,left,741,2022-01-20_22h46.01.728,multiplicationStroop,2021.2.3,Win32,144.5086705,,,,,,,,,,,,,,,,,,,,,,,,,,,,,,,,,,,,,,,,,,,,,,,,,,,,,,,,,
,,,,right,1,0.3061,1,13,29,10,1,3,200,right,741,2022-01-20_22h46.01.728,multiplicationStroop,2021.2.3,Win32,144.5086705,,,,,,,,,,,,,,,,,,,,,,,,,,,,,,,,,,,,,,,,,,,,,,,,,,,,,,,,,
,,,,left,1,0.3554,1,14,30,3,1,4,-200,left,741,2022-01-20_22h46.01.728,multiplicationStroop,2021.2.3,Win32,144.5086705,,,,,,,,,,,,,,,,,,,,,,,,,,,,,,,,,,,,,,,,,,,,,,,,,,,,,,,,,
,,,,right,1,0.3346,1,15,31,13,1,7,200,right,741,2022-01-20_22h46.01.728,multiplicationStroop,2021.2.3,Win32,144.5086705,,,,,,,,,,,,,,,,,,,,,,,,,,,,,,,,,,,,,,,,,,,,,,,,,,,,,,,,,
,,,,right,1,0.3393,2,0,32,8,1,1,200,right,741,2022-01-20_22h46.01.728,multiplicationStroop,2021.2.3,Win32,144.5086705,,,,,,,,,,,,,,,,,,,,,,,,,,,,,,,,,,,,,,,,,,,,,,,,,,,,,,,,,
,,,,right,1,0.345,2,1,33,12,1,6,200,right,741,2022-01-20_22h46.01.728,multiplicationStroop,2021.2.3,Win32,144.5086705,,,,,,,,,,,,,,,,,,,,,,,,,,,,,,,,,,,,,,,,,,,,,,,,,,,,,,,,,
,,,,left,1,0.461,2,2,34,2,1,3,-200,left,741,2022-01-20_22h46.01.728,multiplicationStroop,2021.2.3,Win32,144.5086705,,,,,,,,,,,,,,,,,,,,,,,,,,,,,,,,,,,,,,,,,,,,,,,,,,,,,,,,,
,,,,right,1,0.3695,2,3,35,9,1,2,200,right,741,2022-01-20_22h46.01.728,multiplicationStroop,2021.2.3,Win32,144.5086705,,,,,,,,,,,,,,,,,,,,,,,,,,,,,,,,,,,,,,,,,,,,,,,,,,,,,,,,,
,,,,right,1,0.3884,2,4,36,14,1,8,200,right,741,2022-01-20_22h46.01.728,multiplicationStroop,2021.2.3,Win32,144.5086705,,,,,,,,,,,,,,,,,,,,,,,,,,,,,,,,,,,,,,,,,,,,,,,,,,,,,,,,,
,,,,left,1,0.3938,2,5,37,7,1,9,-200,left,741,2022-01-20_22h46.01.728,multiplicationStroop,2021.2.3,Win32,144.5086705,,,,,,,,,,,,,,,,,,,,,,,,,,,,,,,,,,,,,,,,,,,,,,,,,,,,,,,,,
,,,,right,1,0.3397,2,6,38,10,1,3,200,right,741,2022-01-20_22h46.01.728,multiplicationStroop,2021.2.3,Win32,144.5086705,,,,,,,,,,,,,,,,,,,,,,,,,,,,,,,,,,,,,,,,,,,,,,,,,,,,,,,,,
,,,,right,1,0.3679,2,7,39,11,1,4,200,right,741,2022-01-20_22h46.01.728,multiplicationStroop,2021.2.3,Win32,144.5086705,,,,,,,,,,,,,,,,,,,,,,,,,,,,,,,,,,,,,,,,,,,,,,,,,,,,,,,,,
,,,,left,1,0.417,2,8,40,3,1,4,-200,left,741,2022-01-20_22h46.01.728,multiplicationStroop,2021.2.3,Win32,144.5086705,,,,,,,,,,,,,,,,,,,,,,,,,,,,,,,,,,,,,,,,,,,,,,,,,,,,,,,,,
,,,,left,1,0.3062,2,9,41,6,1,8,-200,left,741,2022-01-20_22h46.01.728,multiplicationStroop,2021.2.3,Win32,144.5086705,,,,,,,,,,,,,,,,,,,,,,,,,,,,,,,,,,,,,,,,,,,,,,,,,,,,,,,,,
,,,,right,1,0.3565,2,10,42,15,1,9,200,right,741,2022-01-20_22h46.01.728,multiplicationStroop,2021.2.3,Win32,144.5086705,,,,,,,,,,,,,,,,,,,,,,,,,,,,,,,,,,,,,,,,,,,,,,,,,,,,,,,,,
,,,,right,1,0.3205,2,11,43,13,1,7,200,right,741,2022-01-20_22h46.01.728,multiplicationStroop,2021.2.3,Win32,144.5086705,,,,,,,,,,,,,,,,,,,,,,,,,,,,,,,,,,,,,,,,,,,,,,,,,,,,,,,,,
,,,,left,1,0.3135,2,12,44,0,1,1,-200,left,741,2022-01-20_22h46.01.728,multiplicationStroop,2021.2.3,Win32,144.5086705,,,,,,,,,,,,,,,,,,,,,,,,,,,,,,,,,,,,,,,,,,,,,,,,,,,,,,,,,
,,,,left,1,0.3377,2,13,45,5,1,7,-200,left,741,2022-01-20_22h46.01.728,multiplicationStroop,2021.2.3,Win32,144.5086705,,,,,,,,,,,,,,,,,,,,,,,,,,,,,,,,,,,,,,,,,,,,,,,,,,,,,,,,,
,,,,left,1,0.3035,2,14,46,1,1,2,-200,left,741,2022-01-20_22h46.01.728,multiplicationStroop,2021.2.3,Win32,144.5086705,,,,,,,,,,,,,,,,,,,,,,,,,,,,,,,,,,,,,,,,,,,,,,,,,,,,,,,,,
,,,,left,1,0.3051,2,15,47,4,1,6,-200,left,741,2022-01-20_22h46.01.728,multiplicationStroop,2021.2.3,Win32,144.5086705,,,,,,,,,,,,,,,,,,,,,,,,,,,,,,,,,,,,,,,,,,,,,,,,,,,,,,,,,
,,,,left,1,0.3004,3,0,48,5,1,7,-200,left,741,2022-01-20_22h46.01.728,multiplicationStroop,2021.2.3,Win32,144.5086705,,,,,,,,,,,,,,,,,,,,,,,,,,,,,,,,,,,,,,,,,,,,,,,,,,,,,,,,,
,,,,left,1,0.2846,3,1,49,1,1,2,-200,left,741,2022-01-20_22h46.01.728,multiplicationStroop,2021.2.3,Win32,144.5086705,,,,,,,,,,,,,,,,,,,,,,,,,,,,,,,,,,,,,,,,,,,,,,,,,,,,,,,,,
,,,,left,1,0.3166,3,2,50,6,1,8,-200,left,741,2022-01-20_22h46.01.728,multiplicationStroop,2021.2.3,Win32,144.5086705,,,,,,,,,,,,,,,,,,,,,,,,,,,,,,,,,,,,,,,,,,,,,,,,,,,,,,,,,
,,,,left,1,0.2835,3,3,51,2,1,3,-200,left,741,2022-01-20_22h46.01.728,multiplicationStroop,2021.2.3,Win32,144.5086705,,,,,,,,,,,,,,,,,,,,,,,,,,,,,,,,,,,,,,,,,,,,,,,,,,,,,,,,,
,,,,right,1,0.4457,3,4,52,12,1,6,200,right,741,2022-01-20_22h46.01.728,multiplicationStroop,2021.2.3,Win32,144.5086705,,,,,,,,,,,,,,,,,,,,,,,,,,,,,,,,,,,,,,,,,,,,,,,,,,,,,,,,,
,,,,right,1,0.3198,3,5,53,8,1,1,200,right,741,2022-01-20_22h46.01.728,multiplicationStroop,2021.2.3,Win32,144.5086705,,,,,,,,,,,,,,,,,,,,,,,,,,,,,,,,,,,,,,,,,,,,,,,,,,,,,,,,,
,,,,left,1,0.4218,3,6,54,4,1,6,-200,left,741,2022-01-20_22h46.01.728,multiplicationStroop,2021.2.3,Win32,144.5086705,,,,,,,,,,,,,,,,,,,,,,,,,,,,,,,,,,,,,,,,,,,,,,,,,,,,,,,,,
,,,,right,1,0.3308,3,7,55,13,1,7,200,right,741,2022-01-20_22h46.01.728,multiplicationStroop,2021.2.3,Win32,144.5086705,,,,,,,,,,,,,,,,,,,,,,,,,,,,,,,,,,,,,,,,,,,,,,,,,,,,,,,,,
,,,,left,1,0.3205,3,8,56,0,1,1,-200,left,741,2022-01-20_22h46.01.728,multiplicationStroop,2021.2.3,Win32,144.5086705,,,,,,,,,,,,,,,,,,,,,,,,,,,,,,,,,,,,,,,,,,,,,,,,,,,,,,,,,
,,,,right,1,0.3134,3,9,57,14,1,8,200,right,741,2022-01-20_22h46.01.728,multiplicationStroop,2021.2.3,Win32,144.5086705,,,,,,,,,,,,,,,,,,,,,,,,,,,,,,,,,,,,,,,,,,,,,,,,,,,,,,,,,
,,,,right,1,0.3614,3,10,58,10,1,3,200,right,741,2022-01-20_22h46.01.728,multiplicationStroop,2021.2.3,Win32,144.5086705,,,,,,,,,,,,,,,,,,,,,,,,,,,,,,,,,,,,,,,,,,,,,,,,,,,,,,,,,
,,,,left,1,0.4079,3,11,59,3,1,4,-200,left,741,2022-01-20_22h46.01.728,multiplicationStroop,2021.2.3,Win32,144.5086705,,,,,,,,,,,,,,,,,,,,,,,,,,,,,,,,,,,,,,,,,,,,,,,,,,,,,,,,,
,,,,right,1,0.3546,3,12,60,11,1,4,200,right,741,2022-01-20_22h46.01.728,multiplicationStroop,2021.2.3,Win32,144.5086705,,,,,,,,,,,,,,,,,,,,,,,,,,,,,,,,,,,,,,,,,,,,,,,,,,,,,,,,,
,,,,right,1,0.4643,3,13,61,9,1,2,200,right,741,2022-01-20_22h46.01.728,multiplicationStroop,2021.2.3,Win32,144.5086705,,,,,,,,,,,,,,,,,,,,,,,,,,,,,,,,,,,,,,,,,,,,,,,,,,,,,,,,,
,,,,left,1,0.3252,3,14,62,7,1,9,-200,left,741,2022-01-20_22h46.01.728,multiplicationStroop,2021.2.3,Win32,144.5086705,,,,,,,,,,,,,,,,,,,,,,,,,,,,,,,,,,,,,,,,,,,,,,,,,,,,,,,,,
,,,,right,1,0.3373,3,15,63,15,1,9,200,right,741,2022-01-20_22h46.01.728,multiplicationStroop,2021.2.3,Win32,144.5086705,,,,,,,,,,,,,,,,,,,,,,,,,,,,,,,,,,,,,,,,,,,,,,,,,,,,,,,,,
,,,,,,,,,,,,,,,741,2022-01-20_22h46.01.728,multiplicationStroop,2021.2.3,Win32,144.5086705,space,11.0468,space,32.0912,right,1,1.041,0,0,0,64,1,1,6,1 | 6,5,1.6933,1.6933,neutral,right,,,,,,stimulusFile/magnitude.xlsx,,,,,,,,,,,,,,,,,,,,,,,,,,,,,,,
,,,,,,,,,,,,,,,741,2022-01-20_22h46.01.728,multiplicationStroop,2021.2.3,Win32,144.5086705,,,,,left,1,0.4967,0,1,1,68,1,6,1,6 | 1,5,1.6933,1.6933,neutral,left,,,,,,stimulusFile/magnitude.xlsx,,,,,,,,,,,,,,,,,,,,,,,,,,,,,,,
,,,,,,,,,,,,,,,741,2022-01-20_22h46.01.728,multiplicationStroop,2021.2.3,Win32,144.5086705,,,,,right,1,0.5972,0,2,2,33,1,2,4,2 | 4,2,1.9756,1.4111,incongruent,right,,,,,,stimulusFile/magnitude.xlsx,,,,,,,,,,,,,,,,,,,,,,,,,,,,,,,
,,,,,,,,,,,,,,,741,2022-01-20_22h46.01.728,multiplicationStroop,2021.2.3,Win32,144.5086705,,,,,left,1,0.4941,0,3,3,13,1,4,2,4 | 2,2,1.9756,1.4111,congruent,left,,,,,,stimulusFile/magnitude.xlsx,,,,,,,,,,,,,,,,,,,,,,,,,,,,,,,
,,,,,,,,,,,,,,,741,2022-01-20_22h46.01.728,multiplicationStroop,2021.2.3,Win32,144.5086705,,,,,right,1,0.5356,0,4,4,9,1,2,4,2 | 4,2,1.4111,1.9756,congruent,right,,,,,,stimulusFile/magnitude.xlsx,,,,,,,,,,,,,,,,,,,,,,,,,,,,,,,
,,,,,,,,,,,,,,,741,2022-01-20_22h46.01.728,multiplicationStroop,2021.2.3,Win32,144.5086705,,,,,right,0,0.7934,0,5,5,29,1,4,3,4 | 3,1,1.4111,1.9756,incongruent,left,,,,,,stimulusFile/magnitude.xlsx,,,,,,,,,,,,,,,,,,,,,,,,,,,,,,,
,,,,,,,,,,,,,,,741,2022-01-20_22h46.01.728,multiplicationStroop,2021.2.3,Win32,144.5086705,,,,,right,1,0.8413,0,6,6,67,1,4,9,4 | 9,5,1.6933,1.6933,neutral,right,,,,,,stimulusFile/magnitude.xlsx,,,,,,,,,,,,,,,,,,,,,,,,,,,,,,,
,,,,,,,,,,,,,,,741,2022-01-20_22h46.01.728,multiplicationStroop,2021.2.3,Win32,144.5086705,,,,,right,1,0.5281,0,7,7,0,1,1,2,1 | 2,1,1.4111,1.9756,congruent,right,,,,,,stimulusFile/magnitude.xlsx,,,,,,,,,,,,,,,,,,,,,,,,,,,,,,,
,,,,,,,,,,,,,,,741,2022-01-20_22h46.01.728,multiplicationStroop,2021.2.3,Win32,144.5086705,,,,,left,1,0.6666,0,8,8,21,1,7,2,7 | 2,5,1.9756,1.4111,congruent,left,,,,,,stimulusFile/magnitude.xlsx,,,,,,,,,,,,,,,,,,,,,,,,,,,,,,,
,,,,,,,,,,,,,,,741,2022-01-20_22h46.01.728,multiplicationStroop,2021.2.3,Win32,144.5086705,,,,,left,1,0.6193,0,9,9,22,1,8,3,8 | 3,5,1.9756,1.4111,congruent,left,,,,,,stimulusFile/magnitude.xlsx,,,,,,,,,,,,,,,,,,,,,,,,,,,,,,,
,,,,,,,,,,,,,,,741,2022-01-20_22h46.01.728,multiplicationStroop,2021.2.3,Win32,144.5086705,,,,,right,1,0.6491,0,10,10,32,1,1,3,1 | 3,2,1.9756,1.4111,incongruent,right,,,,,,stimulusFile/magnitude.xlsx,,,,,,,,,,,,,,,,,,,,,,,,,,,,,,,
,,,,,,,,,,,,,,,741,2022-01-20_22h46.01.728,multiplicationStroop,2021.2.3,Win32,144.5086705,,,,,left,1,2.022,0,11,11,38,1,8,6,8 | 6,2,1.4111,1.9756,incongruent,left,,,,,,stimulusFile/magnitude.xlsx,,,,,,,,,,,,,,,,,,,,,,,,,,,,,,,
,,,,,,,,,,,,,,,741,2022-01-20_22h46.01.728,multiplicationStroop,2021.2.3,Win32,144.5086705,,,,,right,1,0.8475,0,12,12,58,1,6,8,6 | 8,2,1.6933,1.6933,neutral,right,,,,,,stimulusFile/magnitude.xlsx,,,,,,,,,,,,,,,,,,,,,,,,,,,,,,,
,,,,,,,,,,,,,,,741,2022-01-20_22h46.01.728,multiplicationStroop,2021.2.3,Win32,144.5086705,,,,,left,1,0.5427,0,13,13,60,1,3,1,3 | 1,2,1.6933,1.6933,neutral,left,,,,,,stimulusFile/magnitude.xlsx,,,,,,,,,,,,,,,,,,,,,,,,,,,,,,,
,,,,,,,,,,,,,,,741,2022-01-20_22h46.01.728,multiplicationStroop,2021.2.3,Win32,144.5086705,,,,,right,1,0.5423,0,14,14,18,1,3,8,3 | 8,5,1.4111,1.9756,congruent,right,,,,,,stimulusFile/magnitude.xlsx,,,,,,,,,,,,,,,,,,,,,,,,,,,,,,,
,,,,,,,,,,,,,,,741,2022-01-20_22h46.01.728,multiplicationStroop,2021.2.3,Win32,144.5086705,,,,,right,1,0.5165,0,15,15,65,1,2,7,2 | 7,5,1.6933,1.6933,neutral,right,,,,,,stimulusFile/magnitude.xlsx,,,,,,,,,,,,,,,,,,,,,,,,,,,,,,,
,,,,,,,,,,,,,,,741,2022-01-20_22h46.01.728,multiplicationStroop,2021.2.3,Win32,144.5086705,,,,,right,1,0.8893,0,16,16,26,1,6,7,6 | 7,1,1.9756,1.4111,incongruent,right,,,,,,stimulusFile/magnitude.xlsx,,,,,,,,,,,,,,,,,,,,,,,,,,,,,,,
,,,,,,,,,,,,,,,741,2022-01-20_22h46.01.728,multiplicationStroop,2021.2.3,Win32,144.5086705,,,,,right,1,0.6339,0,17,17,19,1,4,9,4 | 9,5,1.4111,1.9756,congruent,right,,,,,,stimulusFile/magnitude.xlsx,,,,,,,,,,,,,,,,,,,,,,,,,,,,,,,
,,,,,,,,,,,,,,,741,2022-01-20_22h46.01.728,multiplicationStroop,2021.2.3,Win32,144.5086705,,,,,right,1,0.6539,0,18,18,3,1,8,9,8 | 9,1,1.4111,1.9756,congruent,right,,,,,,stimulusFile/magnitude.xlsx,,,,,,,,,,,,,,,,,,,,,,,,,,,,,,,
,,,,,,,,,,,,,,,741,2022-01-20_22h46.01.728,multiplicationStroop,2021.2.3,Win32,144.5086705,,,,,left,1,0.515,0,19,19,20,1,6,1,6 | 1,5,1.9756,1.4111,congruent,left,,,,,,stimulusFile/magnitude.xlsx,,,,,,,,,,,,,,,,,,,,,,,,,,,,,,,
,,,,,,,,,,,,,,,741,2022-01-20_22h46.01.728,multiplicationStroop,2021.2.3,Win32,144.5086705,,,,,left,1,0.626,0,20,20,4,1,2,1,2 | 1,1,1.9756,1.4111,congruent,left,,,,,,stimulusFile/magnitude.xlsx,,,,,,,,,,,,,,,,,,,,,,,,,,,,,,,
,,,,,,,,,,,,,,,741,2022-01-20_22h46.01.728,multiplicationStroop,2021.2.3,Win32,144.5086705,,,,,right,1,0.7528,0,21,21,25,1,3,4,3 | 4,1,1.9756,1.4111,incongruent,right,,,,,,stimulusFile/magnitude.xlsx,,,,,,,,,,,,,,,,,,,,,,,,,,,,,,,
,,,,,,,,,,,,,,,741,2022-01-20_22h46.01.728,multiplicationStroop,2021.2.3,Win32,144.5086705,,,,,right,1,0.5073,0,22,22,1,1,3,4,3 | 4,1,1.4111,1.9756,congruent,right,,,,,,stimulusFile/magnitude.xlsx,,,,,,,,,,,,,,,,,,,,,,,,,,,,,,,
,,,,,,,,,,,,,,,741,2022-01-20_22h46.01.728,multiplicationStroop,2021.2.3,Win32,144.5086705,,,,,right,1,0.6403,0,23,23,41,1,2,7,2 | 7,5,1.9756,1.4111,incongruent,right,,,,,,stimulusFile/magnitude.xlsx,,,,,,,,,,,,,,,,,,,,,,,,,,,,,,,
,,,,,,,,,,,,,,,741,2022-01-20_22h46.01.728,multiplicationStroop,2021.2.3,Win32,144.5086705,,,,,left,1,0.8019,0,24,24,70,1,8,3,8 | 3,5,1.6933,1.6933,neutral,left,,,,,,stimulusFile/magnitude.xlsx,,,,,,,,,,,,,,,,,,,,,,,,,,,,,,,
,,,,,,,,,,,,,,,741,2022-01-20_22h46.01.728,multiplicationStroop,2021.2.3,Win32,144.5086705,,,,,right,1,0.8546,0,25,25,27,1,8,9,8 | 9,1,1.9756,1.4111,incongruent,right,,,,,,stimulusFile/magnitude.xlsx,,,,,,,,,,,,,,,,,,,,,,,,,,,,,,,
,,,,,,,,,,,,,,,741,2022-01-20_22h46.01.728,multiplicationStroop,2021.2.3,Win32,144.5086705,,,,,right,1,0.8154,0,26,26,34,1,6,8,6 | 8,2,1.9756,1.4111,incongruent,right,,,,,,stimulusFile/magnitude.xlsx,,,,,,,,,,,,,,,,,,,,,,,,,,,,,,,
,,,,,,,,,,,,,,,741,2022-01-20_22h46.01.728,multiplicationStroop,2021.2.3,Win32,144.5086705,,,,,right,1,0.5563,0,27,27,17,1,2,7,2 | 7,5,1.4111,1.9756,congruent,right,,,,,,stimulusFile/magnitude.xlsx,,,,,,,,,,,,,,,,,,,,,,,,,,,,,,,
,,,,,,,,,,,,,,,741,2022-01-20_22h46.01.728,multiplicationStroop,2021.2.3,Win32,144.5086705,,,,,left,1,0.9728,0,28,28,54,1,7,6,7 | 6,1,1.6933,1.6933,neutral,left,,,,,,stimulusFile/magnitude.xlsx,,,,,,,,,,,,,,,,,,,,,,,,,,,,,,,
,,,,,,,,,,,,,,,741,2022-01-20_22h46.01.728,multiplicationStroop,2021.2.3,Win32,144.5086705,,,,,right,1,0.5077,0,29,29,66,1,3,8,3 | 8,5,1.6933,1.6933,neutral,right,,,,,,stimulusFile/magnitude.xlsx,,,,,,,,,,,,,,,,,,,,,,,,,,,,,,,
,,,,,,,,,,,,,,,741,2022-01-20_22h46.01.728,multiplicationStroop,2021.2.3,Win32,144.5086705,,,,,right,1,0.5419,0,30,30,57,1,2,4,2 | 4,2,1.6933,1.6933,neutral,right,,,,,,stimulusFile/magnitude.xlsx,,,,,,,,,,,,,,,,,,,,,,,,,,,,,,,
,,,,,,,,,,,,,,,741,2022-01-20_22h46.01.728,multiplicationStroop,2021.2.3,Win32,144.5086705,,,,,right,1,0.5098,0,31,31,56,1,1,3,1 | 3,2,1.6933,1.6933,neutral,right,,,,,,stimulusFile/magnitude.xlsx,,,,,,,,,,,,,,,,,,,,,,,,,,,,,,,
,,,,,,,,,,,,,,,741,2022-01-20_22h46.01.728,multiplicationStroop,2021.2.3,Win32,144.5086705,,,,,right,1,0.7249,0,32,32,59,1,7,9,7 | 9,2,1.6933,1.6933,neutral,right,,,,,,stimulusFile/magnitude.xlsx,,,,,,,,,,,,,,,,,,,,,,,,,,,,,,,
,,,,,,,,,,,,,,,741,2022-01-20_22h46.01.728,multiplicationStroop,2021.2.3,Win32,144.5086705,,,,,left,1,0.669,0,33,33,15,1,9,7,9 | 7,2,1.9756,1.4111,congruent,left,,,,,,stimulusFile/magnitude.xlsx,,,,,,,,,,,,,,,,,,,,,,,,,,,,,,,
,,,,,,,,,,,,,,,741,2022-01-20_22h46.01.728,multiplicationStroop,2021.2.3,Win32,144.5086705,,,,,right,1,0.4661,0,34,34,40,1,1,6,1 | 6,5,1.9756,1.4111,incongruent,right,,,,,,stimulusFile/magnitude.xlsx,,,,,,,,,,,,,,,,,,,,,,,,,,,,,,,
,,,,,,,,,,,,,,,741,2022-01-20_22h46.01.728,multiplicationStroop,2021.2.3,Win32,144.5086705,,,,,left,1,0.8916,0,35,35,63,1,9,7,9 | 7,2,1.6933,1.6933,neutral,left,,,,,,stimulusFile/magnitude.xlsx,,,,,,,,,,,,,,,,,,,,,,,,,,,,,,,
,,,,,,,,,,,,,,,741,2022-01-20_22h46.01.728,multiplicationStroop,2021.2.3,Win32,144.5086705,,,,,left,1,0.8903,0,36,36,31,1,9,8,9 | 8,1,1.4111,1.9756,incongruent,left,,,,,,stimulusFile/magnitude.xlsx,,,,,,,,,,,,,,,,,,,,,,,,,,,,,,,
,,,,,,,,,,,,,,,741,2022-01-20_22h46.01.728,multiplicationStroop,2021.2.3,Win32,144.5086705,,,,,left,1,1.0981,0,37,37,45,1,7,2,7 | 2,5,1.4111,1.9756,incongruent,left,,,,,,stimulusFile/magnitude.xlsx,,,,,,,,,,,,,,,,,,,,,,,,,,,,,,,
,,,,,,,,,,,,,,,741,2022-01-20_22h46.01.728,multiplicationStroop,2021.2.3,Win32,144.5086705,,,,,left,1,1.216,0,38,38,61,1,4,2,4 | 2,2,1.6933,1.6933,neutral,left,,,,,,stimulusFile/magnitude.xlsx,,,,,,,,,,,,,,,,,,,,,,,,,,,,,,,
,,,,,,,,,,,,,,,741,2022-01-20_22h46.01.728,multiplicationStroop,2021.2.3,Win32,144.5086705,,,,,right,1,0.6883,0,39,39,49,1,3,4,3 | 4,1,1.6933,1.6933,neutral,right,,,,,,stimulusFile/magnitude.xlsx,,,,,,,,,,,,,,,,,,,,,,,,,,,,,,,
,,,,,,,,,,,,,,,741,2022-01-20_22h46.01.728,multiplicationStroop,2021.2.3,Win32,144.5086705,,,,,left,1,0.8923,0,40,40,55,1,9,8,9 | 8,1,1.6933,1.6933,neutral,left,,,,,,stimulusFile/magnitude.xlsx,,,,,,,,,,,,,,,,,,,,,,,,,,,,,,,
,,,,,,,,,,,,,,,741,2022-01-20_22h46.01.728,multiplicationStroop,2021.2.3,Win32,144.5086705,,,,,left,1,0.522,0,41,41,12,1,3,1,3 | 1,2,1.9756,1.4111,congruent,left,,,,,,stimulusFile/magnitude.xlsx,,,,,,,,,,,,,,,,,,,,,,,,,,,,,,,
,,,,,,,,,,,,,,,741,2022-01-20_22h46.01.728,multiplicationStroop,2021.2.3,Win32,144.5086705,,,,,left,1,0.6878,0,42,42,44,1,6,1,6 | 1,5,1.4111,1.9756,incongruent,left,,,,,,stimulusFile/magnitude.xlsx,,,,,,,,,,,,,,,,,,,,,,,,,,,,,,,
,,,,,,,,,,,,,,,741,2022-01-20_22h46.01.728,multiplicationStroop,2021.2.3,Win32,144.5086705,,,,,right,1,0.7995,0,43,43,35,1,7,9,7 | 9,2,1.9756,1.4111,incongruent,right,,,,,,stimulusFile/magnitude.xlsx,,,,,,,,,,,,,,,,,,,,,,,,,,,,,,,
,,,,,,,,,,,,,,,741,2022-01-20_22h46.01.728,multiplicationStroop,2021.2.3,Win32,144.5086705,,,,,right,1,0.6554,0,44,44,42,1,3,8,3 | 8,5,1.9756,1.4111,incongruent,right,,,,,,stimulusFile/magnitude.xlsx,,,,,,,,,,,,,,,,,,,,,,,,,,,,,,,
,,,,,,,,,,,,,,,741,2022-01-20_22h46.01.728,multiplicationStroop,2021.2.3,Win32,144.5086705,,,,,left,1,0.5426,0,45,45,14,1,8,6,8 | 6,2,1.9756,1.4111,congruent,left,,,,,,stimulusFile/magnitude.xlsx,,,,,,,,,,,,,,,,,,,,,,,,,,,,,,,
,,,,,,,,,,,,,,,741,2022-01-20_22h46.01.728,multiplicationStroop,2021.2.3,Win32,144.5086705,,,,,left,1,0.966,0,46,46,6,1,7,6,7 | 6,1,1.9756,1.4111,congruent,left,,,,,,stimulusFile/magnitude.xlsx,,,,,,,,,,,,,,,,,,,,,,,,,,,,,,,
,,,,,,,,,,,,,,,741,2022-01-20_22h46.01.728,multiplicationStroop,2021.2.3,Win32,144.5086705,,,,,left,1,1.4453,0,47,47,36,1,3,1,3 | 1,2,1.4111,1.9756,incongruent,left,,,,,,stimulusFile/magnitude.xlsx,,,,,,,,,,,,,,,,,,,,,,,,,,,,,,,
,,,,,,,,,,,,,,,741,2022-01-20_22h46.01.728,multiplicationStroop,2021.2.3,Win32,144.5086705,,,,,right,1,0.7857,0,48,48,51,1,8,9,8 | 9,1,1.6933,1.6933,neutral,right,,,,,,stimulusFile/magnitude.xlsx,,,,,,,,,,,,,,,,,,,,,,,,,,,,,,,
,,,,,,,,,,,,,,,741,2022-01-20_22h46.01.728,multiplicationStroop,2021.2.3,Win32,144.5086705,,,,,right,1,0.5842,0,49,49,48,1,1,2,1 | 2,1,1.6933,1.6933,neutral,right,,,,,,stimulusFile/magnitude.xlsx,,,,,,,,,,,,,,,,,,,,,,,,,,,,,,,
,,,,,,,,,,,,,,,741,2022-01-20_22h46.01.728,multiplicationStroop,2021.2.3,Win32,144.5086705,,,,,left,1,0.5433,0,50,50,69,1,7,2,7 | 2,5,1.6933,1.6933,neutral,left,,,,,,stimulusFile/magnitude.xlsx,,,,,,,,,,,,,,,,,,,,,,,,,,,,,,,
,,,,,,,,,,,,,,,741,2022-01-20_22h46.01.728,multiplicationStroop,2021.2.3,Win32,144.5086705,,,,,right,1,0.6535,0,51,51,11,1,7,9,7 | 9,2,1.4111,1.9756,congruent,right,,,,,,stimulusFile/magnitude.xlsx,,,,,,,,,,,,,,,,,,,,,,,,,,,,,,,
,,,,,,,,,,,,,,,741,2022-01-20_22h46.01.728,multiplicationStroop,2021.2.3,Win32,144.5086705,,,,,left,1,1.2296,0,52,52,30,1,7,6,7 | 6,1,1.4111,1.9756,incongruent,left,,,,,,stimulusFile/magnitude.xlsx,,,,,,,,,,,,,,,,,,,,,,,,,,,,,,,
,,,,,,,,,,,,,,,741,2022-01-20_22h46.01.728,multiplicationStroop,2021.2.3,Win32,144.5086705,,,,,left,1,1.042,0,53,53,62,1,8,6,8 | 6,2,1.6933,1.6933,neutral,left,,,,,,stimulusFile/magnitude.xlsx,,,,,,,,,,,,,,,,,,,,,,,,,,,,,,,
,,,,,,,,,,,,,,,741,2022-01-20_22h46.01.728,multiplicationStroop,2021.2.3,Win32,144.5086705,,,,,right,1,0.6815,0,54,54,50,1,6,7,6 | 7,1,1.6933,1.6933,neutral,right,,,,,,stimulusFile/magnitude.xlsx,,,,,,,,,,,,,,,,,,,,,,,,,,,,,,,
,,,,,,,,,,,,,,,741,2022-01-20_22h46.01.728,multiplicationStroop,2021.2.3,Win32,144.5086705,,,,,left,1,0.8699,0,55,55,46,1,8,3,8 | 3,5,1.4111,1.9756,incongruent,left,,,,,,stimulusFile/magnitude.xlsx,,,,,,,,,,,,,,,,,,,,,,,,,,,,,,,
,,,,,,,,,,,,,,,741,2022-01-20_22h46.01.728,multiplicationStroop,2021.2.3,Win32,144.5086705,,,,,left,1,0.6481,0,56,56,5,1,4,3,4 | 3,1,1.9756,1.4111,congruent,left,,,,,,stimulusFile/magnitude.xlsx,,,,,,,,,,,,,,,,,,,,,,,,,,,,,,,
,,,,,,,,,,,,,,,741,2022-01-20_22h46.01.728,multiplicationStroop,2021.2.3,Win32,144.5086705,,,,,left,1,0.4664,0,57,57,23,1,9,4,9 | 4,5,1.9756,1.4111,congruent,left,,,,,,stimulusFile/magnitude.xlsx,,,,,,,,,,,,,,,,,,,,,,,,,,,,,,,
,,,,,,,,,,,,,,,741,2022-01-20_22h46.01.728,multiplicationStroop,2021.2.3,Win32,144.5086705,,,,,right,1,0.5073,0,58,58,24,1,1,2,1 | 2,1,1.9756,1.4111,incongruent,right,,,,,,stimulusFile/magnitude.xlsx,,,,,,,,,,,,,,,,,,,,,,,,,,,,,,,
,,,,,,,,,,,,,,,741,2022-01-20_22h46.01.728,multiplicationStroop,2021.2.3,Win32,144.5086705,,,,,right,1,1.3438,0,59,59,2,1,6,7,6 | 7,1,1.4111,1.9756,congruent,right,,,,,,stimulusFile/magnitude.xlsx,,,,,,,,,,,,,,,,,,,,,,,,,,,,,,,
,,,,,,,,,,,,,,,741,2022-01-20_22h46.01.728,multiplicationStroop,2021.2.3,Win32,144.5086705,,,,,left,1,1.1322,0,60,60,28,1,2,1,2 | 1,1,1.4111,1.9756,incongruent,left,,,,,,stimulusFile/magnitude.xlsx,,,,,,,,,,,,,,,,,,,,,,,,,,,,,,,
,,,,,,,,,,,,,,,741,2022-01-20_22h46.01.728,multiplicationStroop,2021.2.3,Win32,144.5086705,,,,,left,1,1.1326,0,61,61,47,1,9,4,9 | 4,5,1.4111,1.9756,incongruent,left,,,,,,stimulusFile/magnitude.xlsx,,,,,,,,,,,,,,,,,,,,,,,,,,,,,,,
,,,,,,,,,,,,,,,741,2022-01-20_22h46.01.728,multiplicationStroop,2021.2.3,Win32,144.5086705,,,,,right,1,0.607,0,62,62,8,1,1,3,1 | 3,2,1.4111,1.9756,congruent,right,,,,,,stimulusFile/magnitude.xlsx,,,,,,,,,,,,,,,,,,,,,,,,,,,,,,,
,,,,,,,,,,,,,,,741,2022-01-20_22h46.01.728,multiplicationStroop,2021.2.3,Win32,144.5086705,,,,,left,1,0.9047,0,63,63,37,1,4,2,4 | 2,2,1.4111,1.9756,incongruent,left,,,,,,stimulusFile/magnitude.xlsx,,,,,,,,,,,,,,,,,,,,,,,,,,,,,,,
,,,,,,,,,,,,,,,741,2022-01-20_22h46.01.728,multiplicationStroop,2021.2.3,Win32,144.5086705,,,,,right,1,0.5381,0,64,64,43,1,4,9,4 | 9,5,1.9756,1.4111,incongruent,right,,,,,,stimulusFile/magnitude.xlsx,,,,,,,,,,,,,,,,,,,,,,,,,,,,,,,
,,,,,,,,,,,,,,,741,2022-01-20_22h46.01.728,multiplicationStroop,2021.2.3,Win32,144.5086705,,,,,left,1,0.6542,0,65,65,71,1,9,4,9 | 4,5,1.6933,1.6933,neutral,left,,,,,,stimulusFile/magnitude.xlsx,,,,,,,,,,,,,,,,,,,,,,,,,,,,,,,
,,,,,,,,,,,,,,,741,2022-01-20_22h46.01.728,multiplicationStroop,2021.2.3,Win32,144.5086705,,,,,right,1,0.5004,0,66,66,16,1,1,6,1 | 6,5,1.4111,1.9756,congruent,right,,,,,,stimulusFile/magnitude.xlsx,,,,,,,,,,,,,,,,,,,,,,,,,,,,,,,
,,,,,,,,,,,,,,,741,2022-01-20_22h46.01.728,multiplicationStroop,2021.2.3,Win32,144.5086705,,,,,left,1,0.6258,0,67,67,7,1,9,8,9 | 8,1,1.9756,1.4111,congruent,left,,,,,,stimulusFile/magnitude.xlsx,,,,,,,,,,,,,,,,,,,,,,,,,,,,,,,
,,,,,,,,,,,,,,,741,2022-01-20_22h46.01.728,multiplicationStroop,2021.2.3,Win32,144.5086705,,,,,left,1,0.8473,0,68,68,39,1,9,7,9 | 7,2,1.4111,1.9756,incongruent,left,,,,,,stimulusFile/magnitude.xlsx,,,,,,,,,,,,,,,,,,,,,,,,,,,,,,,
,,,,,,,,,,,,,,,741,2022-01-20_22h46.01.728,multiplicationStroop,2021.2.3,Win32,144.5086705,,,,,left,1,0.8059,0,69,69,53,1,4,3,4 | 3,1,1.6933,1.6933,neutral,left,,,,,,stimulusFile/magnitude.xlsx,,,,,,,,,,,,,,,,,,,,,,,,,,,,,,,
,,,,,,,,,,,,,,,741,2022-01-20_22h46.01.728,multiplicationStroop,2021.2.3,Win32,144.5086705,,,,,left,1,0.4518,0,70,70,52,1,2,1,2 | 1,1,1.6933,1.6933,neutral,left,,,,,,stimulusFile/magnitude.xlsx,,,,,,,,,,,,,,,,,,,,,,,,,,,,,,,
,,,,,,,,,,,,,,,741,2022-01-20_22h46.01.728,multiplicationStroop,2021.2.3,Win32,144.5086705,,,,,right,1,1.2713,0,71,71,10,1,6,8,6 | 8,2,1.4111,1.9756,congruent,right,,,,,,stimulusFile/magnitude.xlsx,,,,,,,,,,,,,,,,,,,,,,,,,,,,,,,
,,,,,,,,,,,,,,,741,2022-01-20_22h46.01.728,multiplicationStroop,2021.2.3,Win32,144.5086705,,,,,,,,,,,,,,,,,,,,,0,0,0,0,1,stimulusFile/magnitude.xlsx,NUMERICALLY larger (larger coefficient).,images/numericallyLarger.png,,,,,,,,,,,,,,,,,,,,,,,,,,,,,
,,,,,,,,,,,,,,,741,2022-01-20_22h46.01.728,multiplicationStroop,2021.2.3,Win32,144.5086705,space,7.2594,space,10.3087,left,1,1.2881,0,0,0,14,1,8,6,8 | 6,2,1.9756,1.4111,congruent,left,,,,,,stimulusFile/physical.xlsx,,,,,,,,,,,,,,,,,,,,,,,,,,,,,,,
,,,,,,,,,,,,,,,741,2022-01-20_22h46.01.728,multiplicationStroop,2021.2.3,Win32,144.5086705,,,,,right,1,0.5956,0,1,1,3,1,8,9,8 | 9,1,1.4111,1.9756,congruent,right,,,,,,stimulusFile/physical.xlsx,,,,,,,,,,,,,,,,,,,,,,,,,,,,,,,
,,,,,,,,,,,,,,,741,2022-01-20_22h46.01.728,multiplicationStroop,2021.2.3,Win32,144.5086705,,,,,right,1,0.5369,0,2,2,16,1,1,6,1 | 6,5,1.4111,1.9756,congruent,right,,,,,,stimulusFile/physical.xlsx,,,,,,,,,,,,,,,,,,,,,,,,,,,,,,,
,,,,,,,,,,,,,,,741,2022-01-20_22h46.01.728,multiplicationStroop,2021.2.3,Win32,144.5086705,,,,,left,1,0.6947,0,3,3,35,1,7,9,7 | 9,2,1.9756,1.4111,incongruent,left,,,,,,stimulusFile/physical.xlsx,,,,,,,,,,,,,,,,,,,,,,,,,,,,,,,
,,,,,,,,,,,,,,,741,2022-01-20_22h46.01.728,multiplicationStroop,2021.2.3,Win32,144.5086705,,,,,right,1,0.6099,0,4,4,44,1,6,1,6 | 1,5,1.4111,1.9756,incongruent,right,,,,,,stimulusFile/physical.xlsx,,,,,,,,,,,,,,,,,,,,,,,,,,,,,,,
,,,,,,,,,,,,,,,741,2022-01-20_22h46.01.728,multiplicationStroop,2021.2.3,Win32,144.5086705,,,,,right,1,0.6382,0,5,5,28,1,2,1,2 | 1,1,1.4111,1.9756,incongruent,right,,,,,,stimulusFile/physical.xlsx,,,,,,,,,,,,,,,,,,,,,,,,,,,,,,,
,,,,,,,,,,,,,,,741,2022-01-20_22h46.01.728,multiplicationStroop,2021.2.3,Win32,144.5086705,,,,,right,1,0.5524,0,6,6,37,1,4,2,4 | 2,2,1.4111,1.9756,incongruent,right,,,,,,stimulusFile/physical.xlsx,,,,,,,,,,,,,,,,,,,,,,,,,,,,,,,
,,,,,,,,,,,,,,,741,2022-01-20_22h46.01.728,multiplicationStroop,2021.2.3,Win32,144.5086705,,,,,right,1,0.7018,0,7,7,19,1,4,9,4 | 9,5,1.4111,1.9756,congruent,right,,,,,,stimulusFile/physical.xlsx,,,,,,,,,,,,,,,,,,,,,,,,,,,,,,,
,,,,,,,,,,,,,,,741,2022-01-20_22h46.01.728,multiplicationStroop,2021.2.3,Win32,144.5086705,,,,,left,1,0.6936,0,8,8,43,1,4,9,4 | 9,5,1.9756,1.4111,incongruent,left,,,,,,stimulusFile/physical.xlsx,,,,,,,,,,,,,,,,,,,,,,,,,,,,,,,
,,,,,,,,,,,,,,,741,2022-01-20_22h46.01.728,multiplicationStroop,2021.2.3,Win32,144.5086705,,,,,right,1,0.5463,0,9,9,31,1,9,8,9 | 8,1,1.4111,1.9756,incongruent,right,,,,,,stimulusFile/physical.xlsx,,,,,,,,,,,,,,,,,,,,,,,,,,,,,,,
,,,,,,,,,,,,,,,741,2022-01-20_22h46.01.728,multiplicationStroop,2021.2.3,Win32,144.5086705,,,,,left,1,0.5315,0,10,10,15,1,9,7,9 | 7,2,1.9756,1.4111,congruent,left,,,,,,stimulusFile/physical.xlsx,,,,,,,,,,,,,,,,,,,,,,,,,,,,,,,
,,,,,,,,,,,,,,,741,2022-01-20_22h46.01.728,multiplicationStroop,2021.2.3,Win32,144.5086705,,,,,left,1,0.4639,0,11,11,4,1,2,1,2 | 1,1,1.9756,1.4111,congruent,left,,,,,,stimulusFile/physical.xlsx,,,,,,,,,,,,,,,,,,,,,,,,,,,,,,,
,,,,,,,,,,,,,,,741,2022-01-20_22h46.01.728,multiplicationStroop,2021.2.3,Win32,144.5086705,,,,,left,1,0.773,0,12,12,25,1,3,4,3 | 4,1,1.9756,1.4111,incongruent,left,,,,,,stimulusFile/physical.xlsx,,,,,,,,,,,,,,,,,,,,,,,,,,,,,,,
,,,,,,,,,,,,,,,741,2022-01-20_22h46.01.728,multiplicationStroop,2021.2.3,Win32,144.5086705,,,,,left,1,0.7016,0,13,13,32,1,1,3,1 | 3,2,1.9756,1.4111,incongruent,left,,,,,,stimulusFile/physical.xlsx,,,,,,,,,,,,,,,,,,,,,,,,,,,,,,,
,,,,,,,,,,,,,,,741,2022-01-20_22h46.01.728,multiplicationStroop,2021.2.3,Win32,144.5086705,,,,,left,1,0.578,0,14,14,41,1,2,7,2 | 7,5,1.9756,1.4111,incongruent,left,,,,,,stimulusFile/physical.xlsx,,,,,,,,,,,,,,,,,,,,,,,,,,,,,,,
,,,,,,,,,,,,,,,741,2022-01-20_22h46.01.728,multiplicationStroop,2021.2.3,Win32,144.5086705,,,,,left,1,0.6113,0,15,15,52,1,2,2,2 | 2,0,1.9756,1.4111,neutral,left,,,,,,stimulusFile/physical.xlsx,,,,,,,,,,,,,,,,,,,,,,,,,,,,,,,
,,,,,,,,,,,,,,,741,2022-01-20_22h46.01.728,multiplicationStroop,2021.2.3,Win32,144.5086705,,,,,right,1,0.793,0,16,16,36,1,3,1,3 | 1,2,1.4111,1.9756,incongruent,right,,,,,,stimulusFile/physical.xlsx,,,,,,,,,,,,,,,,,,,,,,,,,,,,,,,
,,,,,,,,,,,,,,,741,2022-01-20_22h46.01.728,multiplicationStroop,2021.2.3,Win32,144.5086705,,,,,left,1,0.5756,0,17,17,51,1,8,8,8 | 8,0,1.9756,1.4111,neutral,left,,,,,,stimulusFile/physical.xlsx,,,,,,,,,,,,,,,,,,,,,,,,,,,,,,,
,,,,,,,,,,,,,,,741,2022-01-20_22h46.01.728,multiplicationStroop,2021.2.3,Win32,144.5086705,,,,,left,1,0.9288,0,18,18,50,1,6,6,6 | 6,0,1.9756,1.4111,neutral,left,,,,,,stimulusFile/physical.xlsx,,,,,,,,,,,,,,,,,,,,,,,,,,,,,,,
,,,,,,,,,,,,,,,741,2022-01-20_22h46.01.728,multiplicationStroop,2021.2.3,Win32,144.5086705,,,,,right,1,0.5309,0,19,19,18,1,3,8,3 | 8,5,1.4111,1.9756,congruent,right,,,,,,stimulusFile/physical.xlsx,,,,,,,,,,,,,,,,,,,,,,,,,,,,,,,
,,,,,,,,,,,,,,,741,2022-01-20_22h46.01.728,multiplicationStroop,2021.2.3,Win32,144.5086705,,,,,left,1,0.7116,0,20,20,33,1,2,4,2 | 4,2,1.9756,1.4111,incongruent,left,,,,,,stimulusFile/physical.xlsx,,,,,,,,,,,,,,,,,,,,,,,,,,,,,,,
,,,,,,,,,,,,,,,741,2022-01-20_22h46.01.728,multiplicationStroop,2021.2.3,Win32,144.5086705,,,,,right,1,0.5287,0,21,21,2,1,6,7,6 | 7,1,1.4111,1.9756,congruent,right,,,,,,stimulusFile/physical.xlsx,,,,,,,,,,,,,,,,,,,,,,,,,,,,,,,
,,,,,,,,,,,,,,,741,2022-01-20_22h46.01.728,multiplicationStroop,2021.2.3,Win32,144.5086705,,,,,right,1,0.5461,0,22,22,47,1,9,4,9 | 4,5,1.4111,1.9756,incongruent,right,,,,,,stimulusFile/physical.xlsx,,,,,,,,,,,,,,,,,,,,,,,,,,,,,,,
,,,,,,,,,,,,,,,741,2022-01-20_22h46.01.728,multiplicationStroop,2021.2.3,Win32,144.5086705,,,,,left,0,0.5389,0,23,23,66,1,3,3,3 | 3,0,1.9756,1.4111,neutral,right,,,,,,stimulusFile/physical.xlsx,,,,,,,,,,,,,,,,,,,,,,,,,,,,,,,
,,,,,,,,,,,,,,,741,2022-01-20_22h46.01.728,multiplicationStroop,2021.2.3,Win32,144.5086705,,,,,right,1,0.5312,0,24,24,56,1,1,1,1 | 1,0,1.4111,1.9756,neutral,right,,,,,,stimulusFile/physical.xlsx,,,,,,,,,,,,,,,,,,,,,,,,,,,,,,,
,,,,,,,,,,,,,,,741,2022-01-20_22h46.01.728,multiplicationStroop,2021.2.3,Win32,144.5086705,,,,,right,1,0.6443,0,25,25,46,1,8,3,8 | 3,5,1.4111,1.9756,incongruent,right,,,,,,stimulusFile/physical.xlsx,,,,,,,,,,,,,,,,,,,,,,,,,,,,,,,
,,,,,,,,,,,,,,,741,2022-01-20_22h46.01.728,multiplicationStroop,2021.2.3,Win32,144.5086705,,,,,right,1,0.5324,0,26,26,1,1,3,4,3 | 4,1,1.4111,1.9756,congruent,right,,,,,,stimulusFile/physical.xlsx,,,,,,,,,,,,,,,,,,,,,,,,,,,,,,,
,,,,,,,,,,,,,,,741,2022-01-20_22h46.01.728,multiplicationStroop,2021.2.3,Win32,144.5086705,,,,,right,1,0.7701,0,27,27,39,1,9,7,9 | 7,2,1.4111,1.9756,incongruent,right,,,,,,stimulusFile/physical.xlsx,,,,,,,,,,,,,,,,,,,,,,,,,,,,,,,
,,,,,,,,,,,,,,,741,2022-01-20_22h46.01.728,multiplicationStroop,2021.2.3,Win32,144.5086705,,,,,right,1,0.5391,0,28,28,61,1,4,4,4 | 4,0,1.4111,1.9756,neutral,right,,,,,,stimulusFile/physical.xlsx,,,,,,,,,,,,,,,,,,,,,,,,,,,,,,,
,,,,,,,,,,,,,,,741,2022-01-20_22h46.01.728,multiplicationStroop,2021.2.3,Win32,144.5086705,,,,,right,1,0.7768,0,29,29,62,1,8,8,8 | 8,0,1.4111,1.9756,neutral,right,,,,,,stimulusFile/physical.xlsx,,,,,,,,,,,,,,,,,,,,,,,,,,,,,,,
,,,,,,,,,,,,,,,741,2022-01-20_22h46.01.728,multiplicationStroop,2021.2.3,Win32,144.5086705,,,,,left,1,0.6269,0,30,30,21,1,7,2,7 | 2,5,1.9756,1.4111,congruent,left,,,,,,stimulusFile/physical.xlsx,,,,,,,,,,,,,,,,,,,,,,,,,,,,,,,
,,,,,,,,,,,,,,,741,2022-01-20_22h46.01.728,multiplicationStroop,2021.2.3,Win32,144.5086705,,,,,left,1,0.6662,0,31,31,24,1,1,2,1 | 2,1,1.9756,1.4111,incongruent,left,,,,,,stimulusFile/physical.xlsx,,,,,,,,,,,,,,,,,,,,,,,,,,,,,,,
,,,,,,,,,,,,,,,741,2022-01-20_22h46.01.728,multiplicationStroop,2021.2.3,Win32,144.5086705,,,,,left,1,0.521,0,32,32,54,1,7,7,7 | 7,0,1.9756,1.4111,neutral,left,,,,,,stimulusFile/physical.xlsx,,,,,,,,,,,,,,,,,,,,,,,,,,,,,,,
,,,,,,,,,,,,,,,741,2022-01-20_22h46.01.728,multiplicationStroop,2021.2.3,Win32,144.5086705,,,,,left,1,0.5089,0,33,33,6,1,7,6,7 | 6,1,1.9756,1.4111,congruent,left,,,,,,stimulusFile/physical.xlsx,,,,,,,,,,,,,,,,,,,,,,,,,,,,,,,
,,,,,,,,,,,,,,,741,2022-01-20_22h46.01.728,multiplicationStroop,2021.2.3,Win32,144.5086705,,,,,left,1,0.512,0,34,34,68,1,6,6,6 | 6,0,1.9756,1.4111,neutral,left,,,,,,stimulusFile/physical.xlsx,,,,,,,,,,,,,,,,,,,,,,,,,,,,,,,
,,,,,,,,,,,,,,,741,2022-01-20_22h46.01.728,multiplicationStroop,2021.2.3,Win32,144.5086705,,,,,right,1,0.4938,0,35,35,9,1,2,4,2 | 4,2,1.4111,1.9756,congruent,right,,,,,,stimulusFile/physical.xlsx,,,,,,,,,,,,,,,,,,,,,,,,,,,,,,,
,,,,,,,,,,,,,,,741,2022-01-20_22h46.01.728,multiplicationStroop,2021.2.3,Win32,144.5086705,,,,,left,1,0.5455,0,36,36,22,1,8,3,8 | 3,5,1.9756,1.4111,congruent,left,,,,,,stimulusFile/physical.xlsx,,,,,,,,,,,,,,,,,,,,,,,,,,,,,,,
,,,,,,,,,,,,,,,741,2022-01-20_22h46.01.728,multiplicationStroop,2021.2.3,Win32,144.5086705,,,,,left,1,0.493,0,37,37,26,1,6,7,6 | 7,1,1.9756,1.4111,incongruent,left,,,,,,stimulusFile/physical.xlsx,,,,,,,,,,,,,,,,,,,,,,,,,,,,,,,
,,,,,,,,,,,,,,,741,2022-01-20_22h46.01.728,multiplicationStroop,2021.2.3,Win32,144.5086705,,,,,left,1,0.6498,0,38,38,23,1,9,4,9 | 4,5,1.9756,1.4111,congruent,left,,,,,,stimulusFile/physical.xlsx,,,,,,,,,,,,,,,,,,,,,,,,,,,,,,,
,,,,,,,,,,,,,,,741,2022-01-20_22h46.01.728,multiplicationStroop,2021.2.3,Win32,144.5086705,,,,,right,1,0.4945,0,39,39,58,1,6,6,6 | 6,0,1.4111,1.9756,neutral,right,,,,,,stimulusFile/physical.xlsx,,,,,,,,,,,,,,,,,,,,,,,,,,,,,,,
,,,,,,,,,,,,,,,741,2022-01-20_22h46.01.728,multiplicationStroop,2021.2.3,Win32,144.5086705,,,,,left,1,0.52,0,40,40,34,1,6,8,6 | 8,2,1.9756,1.4111,incongruent,left,,,,,,stimulusFile/physical.xlsx,,,,,,,,,,,,,,,,,,,,,,,,,,,,,,,
,,,,,,,,,,,,,,,741,2022-01-20_22h46.01.728,multiplicationStroop,2021.2.3,Win32,144.5086705,,,,,right,1,0.4511,0,41,41,67,1,4,4,4 | 4,0,1.4111,1.9756,neutral,right,,,,,,stimulusFile/physical.xlsx,,,,,,,,,,,,,,,,,,,,,,,,,,,,,,,
,,,,,,,,,,,,,,,741,2022-01-20_22h46.01.728,multiplicationStroop,2021.2.3,Win32,144.5086705,,,,,left,1,0.4992,0,42,42,55,1,9,9,9 | 9,0,1.9756,1.4111,neutral,left,,,,,,stimulusFile/physical.xlsx,,,,,,,,,,,,,,,,,,,,,,,,,,,,,,,
,,,,,,,,,,,,,,,741,2022-01-20_22h46.01.728,multiplicationStroop,2021.2.3,Win32,144.5086705,,,,,left,1,0.7084,0,43,43,42,1,3,8,3 | 8,5,1.9756,1.4111,incongruent,left,,,,,,stimulusFile/physical.xlsx,,,,,,,,,,,,,,,,,,,,,,,,,,,,,,,
,,,,,,,,,,,,,,,741,2022-01-20_22h46.01.728,multiplicationStroop,2021.2.3,Win32,144.5086705,,,,,left,1,0.5221,0,44,44,49,1,3,3,3 | 3,0,1.9756,1.4111,neutral,left,,,,,,stimulusFile/physical.xlsx,,,,,,,,,,,,,,,,,,,,,,,,,,,,,,,
,,,,,,,,,,,,,,,741,2022-01-20_22h46.01.728,multiplicationStroop,2021.2.3,Win32,144.5086705,,,,,right,0,0.5757,0,45,45,69,1,7,7,7 | 7,0,1.4111,1.9756,neutral,left,,,,,,stimulusFile/physical.xlsx,,,,,,,,,,,,,,,,,,,,,,,,,,,,,,,
,,,,,,,,,,,,,,,741,2022-01-20_22h46.01.728,multiplicationStroop,2021.2.3,Win32,144.5086705,,,,,left,1,0.5869,0,46,46,53,1,4,4,4 | 4,0,1.9756,1.4111,neutral,left,,,,,,stimulusFile/physical.xlsx,,,,,,,,,,,,,,,,,,,,,,,,,,,,,,,
,,,,,,,,,,,,,,,741,2022-01-20_22h46.01.728,multiplicationStroop,2021.2.3,Win32,144.5086705,,,,,right,1,0.5288,0,47,47,0,1,1,2,1 | 2,1,1.4111,1.9756,congruent,right,,,,,,stimulusFile/physical.xlsx,,,,,,,,,,,,,,,,,,,,,,,,,,,,,,,
,,,,,,,,,,,,,,,741,2022-01-20_22h46.01.728,multiplicationStroop,2021.2.3,Win32,144.5086705,,,,,right,1,0.7916,0,48,48,59,1,7,7,7 | 7,0,1.4111,1.9756,neutral,right,,,,,,stimulusFile/physical.xlsx,,,,,,,,,,,,,,,,,,,,,,,,,,,,,,,
,,,,,,,,,,,,,,,741,2022-01-20_22h46.01.728,multiplicationStroop,2021.2.3,Win32,144.5086705,,,,,right,1,0.4952,0,49,49,30,1,7,6,7 | 6,1,1.4111,1.9756,incongruent,right,,,,,,stimulusFile/physical.xlsx,,,,,,,,,,,,,,,,,,,,,,,,,,,,,,,
,,,,,,,,,,,,,,,741,2022-01-20_22h46.01.728,multiplicationStroop,2021.2.3,Win32,144.5086705,,,,,right,1,0.7965,0,50,50,57,1,2,2,2 | 2,0,1.4111,1.9756,neutral,right,,,,,,stimulusFile/physical.xlsx,,,,,,,,,,,,,,,,,,,,,,,,,,,,,,,
,,,,,,,,,,,,,,,741,2022-01-20_22h46.01.728,multiplicationStroop,2021.2.3,Win32,144.5086705,,,,,left,1,0.5955,0,51,51,48,1,1,1,1 | 1,0,1.9756,1.4111,neutral,left,,,,,,stimulusFile/physical.xlsx,,,,,,,,,,,,,,,,,,,,,,,,,,,,,,,
,,,,,,,,,,,,,,,741,2022-01-20_22h46.01.728,multiplicationStroop,2021.2.3,Win32,144.5086705,,,,,left,1,0.5154,0,52,52,13,1,4,2,4 | 2,2,1.9756,1.4111,congruent,left,,,,,,stimulusFile/physical.xlsx,,,,,,,,,,,,,,,,,,,,,,,,,,,,,,,
,,,,,,,,,,,,,,,741,2022-01-20_22h46.01.728,multiplicationStroop,2021.2.3,Win32,144.5086705,,,,,right,1,1.0569,0,53,53,45,1,7,2,7 | 2,5,1.4111,1.9756,incongruent,right,,,,,,stimulusFile/physical.xlsx,,,,,,,,,,,,,,,,,,,,,,,,,,,,,,,
,,,,,,,,,,,,,,,741,2022-01-20_22h46.01.728,multiplicationStroop,2021.2.3,Win32,144.5086705,,,,,left,1,1.06,0,54,54,27,1,8,9,8 | 9,1,1.9756,1.4111,incongruent,left,,,,,,stimulusFile/physical.xlsx,,,,,,,,,,,,,,,,,,,,,,,,,,,,,,,
,,,,,,,,,,,,,,,741,2022-01-20_22h46.01.728,multiplicationStroop,2021.2.3,Win32,144.5086705,,,,,left,1,0.8266,0,55,55,40,1,1,6,1 | 6,5,1.9756,1.4111,incongruent,left,,,,,,stimulusFile/physical.xlsx,,,,,,,,,,,,,,,,,,,,,,,,,,,,,,,
,,,,,,,,,,,,,,,741,2022-01-20_22h46.01.728,multiplicationStroop,2021.2.3,Win32,144.5086705,,,,,right,1,0.5419,0,56,56,63,1,9,9,9 | 9,0,1.4111,1.9756,neutral,right,,,,,,stimulusFile/physical.xlsx,,,,,,,,,,,,,,,,,,,,,,,,,,,,,,,
,,,,,,,,,,,,,,,741,2022-01-20_22h46.01.728,multiplicationStroop,2021.2.3,Win32,144.5086705,,,,,left,1,0.5684,0,57,57,7,1,9,8,9 | 8,1,1.9756,1.4111,congruent,left,,,,,,stimulusFile/physical.xlsx,,,,,,,,,,,,,,,,,,,,,,,,,,,,,,,
,,,,,,,,,,,,,,,741,2022-01-20_22h46.01.728,multiplicationStroop,2021.2.3,Win32,144.5086705,,,,,right,1,0.4975,0,58,58,65,1,2,2,2 | 2,0,1.4111,1.9756,neutral,right,,,,,,stimulusFile/physical.xlsx,,,,,,,,,,,,,,,,,,,,,,,,,,,,,,,
,,,,,,,,,,,,,,,741,2022-01-20_22h46.01.728,multiplicationStroop,2021.2.3,Win32,144.5086705,,,,,right,1,0.5348,0,59,59,11,1,7,9,7 | 9,2,1.4111,1.9756,congruent,right,,,,,,stimulusFile/physical.xlsx,,,,,,,,,,,,,,,,,,,,,,,,,,,,,,,
,,,,,,,,,,,,,,,741,2022-01-20_22h46.01.728,multiplicationStroop,2021.2.3,Win32,144.5086705,,,,,right,1,0.8471,0,60,60,29,1,4,3,4 | 3,1,1.4111,1.9756,incongruent,right,,,,,,stimulusFile/physical.xlsx,,,,,,,,,,,,,,,,,,,,,,,,,,,,,,,
,,,,,,,,,,,,,,,741,2022-01-20_22h46.01.728,multiplicationStroop,2021.2.3,Win32,144.5086705,,,,,left,1,0.6226,0,61,61,5,1,4,3,4 | 3,1,1.9756,1.4111,congruent,left,,,,,,stimulusFile/physical.xlsx,,,,,,,,,,,,,,,,,,,,,,,,,,,,,,,
,,,,,,,,,,,,,,,741,2022-01-20_22h46.01.728,multiplicationStroop,2021.2.3,Win32,144.5086705,,,,,right,1,0.4698,0,62,62,10,1,6,8,6 | 8,2,1.4111,1.9756,congruent,right,,,,,,stimulusFile/physical.xlsx,,,,,,,,,,,,,,,,,,,,,,,,,,,,,,,
,,,,,,,,,,,,,,,741,2022-01-20_22h46.01.728,multiplicationStroop,2021.2.3,Win32,144.5086705,,,,,right,0,0.472,0,63,63,71,1,9,9,9 | 9,0,1.4111,1.9756,neutral,left,,,,,,stimulusFile/physical.xlsx,,,,,,,,,,,,,,,,,,,,,,,,,,,,,,,
,,,,,,,,,,,,,,,741,2022-01-20_22h46.01.728,multiplicationStroop,2021.2.3,Win32,144.5086705,,,,,left,0,0.7164,0,64,64,64,1,1,1,1 | 1,0,1.9756,1.4111,neutral,right,,,,,,stimulusFile/physical.xlsx,,,,,,,,,,,,,,,,,,,,,,,,,,,,,,,
,,,,,,,,,,,,,,,741,2022-01-20_22h46.01.728,multiplicationStroop,2021.2.3,Win32,144.5086705,,,,,left,1,0.4913,0,65,65,20,1,6,1,6 | 1,5,1.9756,1.4111,congruent,left,,,,,,stimulusFile/physical.xlsx,,,,,,,,,,,,,,,,,,,,,,,,,,,,,,,
,,,,,,,,,,,,,,,741,2022-01-20_22h46.01.728,multiplicationStroop,2021.2.3,Win32,144.5086705,,,,,right,1,0.4685,0,66,66,17,1,2,7,2 | 7,5,1.4111,1.9756,congruent,right,,,,,,stimulusFile/physical.xlsx,,,,,,,,,,,,,,,,,,,,,,,,,,,,,,,
,,,,,,,,,,,,,,,741,2022-01-20_22h46.01.728,multiplicationStroop,2021.2.3,Win32,144.5086705,,,,,left,1,0.5665,0,67,67,70,1,8,8,8 | 8,0,1.9756,1.4111,neutral,left,,,,,,stimulusFile/physical.xlsx,,,,,,,,,,,,,,,,,,,,,,,,,,,,,,,
,,,,,,,,,,,,,,,741,2022-01-20_22h46.01.728,multiplicationStroop,2021.2.3,Win32,144.5086705,,,,,right,1,0.438,0,68,68,8,1,1,3,1 | 3,2,1.4111,1.9756,congruent,right,,,,,,stimulusFile/physical.xlsx,,,,,,,,,,,,,,,,,,,,,,,,,,,,,,,
,,,,,,,,,,,,,,,741,2022-01-20_22h46.01.728,multiplicationStroop,2021.2.3,Win32,144.5086705,,,,,right,1,0.7307,0,69,69,38,1,8,6,8 | 6,2,1.4111,1.9756,incongruent,right,,,,,,stimulusFile/physical.xlsx,,,,,,,,,,,,,,,,,,,,,,,,,,,,,,,
,,,,,,,,,,,,,,,741,2022-01-20_22h46.01.728,multiplicationStroop,2021.2.3,Win32,144.5086705,,,,,left,1,0.5282,0,70,70,12,1,3,1,3 | 1,2,1.9756,1.4111,congruent,left,,,,,,stimulusFile/physical.xlsx,,,,,,,,,,,,,,,,,,,,,,,,,,,,,,,
,,,,,,,,,,,,,,,741,2022-01-20_22h46.01.728,multiplicationStroop,2021.2.3,Win32,144.5086705,,,,,right,1,0.4798,0,71,71,60,1,3,3,3 | 3,0,1.4111,1.9756,neutral,right,,,,,,stimulusFile/physical.xlsx,,,,,,,,,,,,,,,,,,,,,,,,,,,,,,,
,,,,,,,,,,,,,,,741,2022-01-20_22h46.01.728,multiplicationStroop,2021.2.3,Win32,144.5086705,,,,,,,,,,,,,,,,,,,,,0,1,1,1,1,stimulusFile/physical.xlsx,PHYSICALLY larger (larger font size).,images/physicallyLarger.png,,,,,,,,,,,,,,,,,,,,,,,,,,,,,
,,,,,,,,,,,,,,,741,2022-01-20_22h46.01.728,multiplicationStroop,2021.2.3,Win32,144.5086705,,,,,,,,,,,,,,,,,,,,,,,,,,,,,space,8.9991,space,1.7524,4,3.8747,1,0,0,0,28,1,2,×,2,2 × 2,neutral,tie,1,2,4,,,,,,,,
,,,,,,,,,,,,,,,741,2022-01-20_22h46.01.728,multiplicationStroop,2021.2.3,Win32,144.5086705,,,,,,,,,,,,,,,,,,,,,,,,,,,,,,,,,56,4.8104,1,0,1,1,22,1,8,×,7,8 × 7,congruent,largerFirst,2,1,56,,,,,,,,
,,,,,,,,,,,,,,,741,2022-01-20_22h46.01.728,multiplicationStroop,2021.2.3,Win32,144.5086705,,,,,,,,,,,,,,,,,,,,,,,,,,,,,,,,,6,2.2824,1,0,2,2,27,1,3,×,2,3 × 2,congruent,largerFirst,2,1,6,,,,,,,,
,,,,,,,,,,,,,,,741,2022-01-20_22h46.01.728,multiplicationStroop,2021.2.3,Win32,144.5086705,,,,,,,,,,,,,,,,,,,,,,,,,,,,,,,,,24,2.4886,1,0,3,3,11,1,4,×,6,4 × 6,congruent,smallerFirst,1,2,24,,,,,,,,
,,,,,,,,,,,,,,,741,2022-01-20_22h46.01.728,multiplicationStroop,2021.2.3,Win32,144.5086705,,,,,,,,,,,,,,,,,,,,,,,,,,,,,,,,,54,2.3952,1,0,4,4,26,1,9,×,6,9 × 6,congruent,largerFirst,2,1,54,,,,,,,,
,,,,,,,,,,,,,,,741,2022-01-20_22h46.01.728,multiplicationStroop,2021.2.3,Win32,144.5086705,,,,,,,,,,,,,,,,,,,,,,,,,,,,,,,,,21,1.9633,1,0,5,5,2,1,3,×,7,3 × 7,congruent,smallerFirst,1,2,21,,,,,,,,
,,,,,,,,,,,,,,,741,2022-01-20_22h46.01.728,multiplicationStroop,2021.2.3,Win32,144.5086705,,,,,,,,,,,,,,,,,,,,,,,,,,,,,,,,,9,2.0543,1,0,6,6,29,1,3,×,3,3 × 3,neutral,tie,1,2,9,,,,,,,,
,,,,,,,,,,,,,,,741,2022-01-20_22h46.01.728,multiplicationStroop,2021.2.3,Win32,144.5086705,,,,,,,,,,,,,,,,,,,,,,,,,,,,,,,,,64,2.4499,1,0,7,7,34,1,8,×,8,8 × 8,neutral,tie,1,2,64,,,,,,,,
,,,,,,,,,,,,,,,741,2022-01-20_22h46.01.728,multiplicationStroop,2021.2.3,Win32,144.5086705,,,,,,,,,,,,,,,,,,,,,,,,,,,,,,,,,15,2.3829,1,0,8,8,18,1,5,×,3,5 × 3,congruent,largerFirst,2,1,15,,,,,,,,
,,,,,,,,,,,,,,,741,2022-01-20_22h46.01.728,multiplicationStroop,2021.2.3,Win32,144.5086705,,,,,,,,,,,,,,,,,,,,,,,,,,,,,,,,,10,2.0337,1,0,9,9,10,1,2,×,5,2 × 5,congruent,smallerFirst,1,2,10,,,,,,,,
,,,,,,,,,,,,,,,741,2022-01-20_22h46.01.728,multiplicationStroop,2021.2.3,Win32,144.5086705,,,,,,,,,,,,,,,,,,,,,,,,,,,,,,,,,45,2.0747,1,0,10,10,9,1,5,×,9,5 × 9,congruent,smallerFirst,1,2,45,,,,,,,,
,,,,,,,,,,,,,,,741,2022-01-20_22h46.01.728,multiplicationStroop,2021.2.3,Win32,144.5086705,,,,,,,,,,,,,,,,,,,,,,,,,,,,,,,,,18,2.6373,1,0,11,11,25,1,6,×,3,6 × 3,congruent,largerFirst,2,1,18,,,,,,,,
,,,,,,,,,,,,,,,741,2022-01-20_22h46.01.728,multiplicationStroop,2021.2.3,Win32,144.5086705,,,,,,,,,,,,,,,,,,,,,,,,,,,,,,,,,25,2.1662,1,0,12,12,31,1,5,×,5,5 × 5,neutral,tie,1,2,25,,,,,,,,
,,,,,,,,,,,,,,,741,2022-01-20_22h46.01.728,multiplicationStroop,2021.2.3,Win32,144.5086705,,,,,,,,,,,,,,,,,,,,,,,,,,,,,,,,,28,2.4395,1,0,13,13,13,1,4,×,7,4 × 7,congruent,smallerFirst,1,2,28,,,,,,,,
,,,,,,,,,,,,,,,741,2022-01-20_22h46.01.728,multiplicationStroop,2021.2.3,Win32,144.5086705,,,,,,,,,,,,,,,,,,,,,,,,,,,,,,,,,36,2.052,1,0,14,14,14,1,9,×,4,9 × 4,congruent,largerFirst,2,1,36,,,,,,,,
,,,,,,,,,,,,,,,741,2022-01-20_22h46.01.728,multiplicationStroop,2021.2.3,Win32,144.5086705,,,,,,,,,,,,,,,,,,,,,,,,,,,,,,,,,12,1.9849,1,0,15,15,5,1,2,×,6,2 × 6,congruent,smallerFirst,1,2,12,,,,,,,,
,,,,,,,,,,,,,,,741,2022-01-20_22h46.01.728,multiplicationStroop,2021.2.3,Win32,144.5086705,,,,,,,,,,,,,,,,,,,,,,,,,,,,,,,,,35,1.9148,1,0,16,16,15,1,7,×,5,7 × 5,congruent,largerFirst,2,1,35,,,,,,,,
,,,,,,,,,,,,,,,741,2022-01-20_22h46.01.728,multiplicationStroop,2021.2.3,Win32,144.5086705,,,,,,,,,,,,,,,,,,,,,,,,,,,,,,,,,36,4.2341,1,0,17,17,32,1,6,×,6,6 × 6,neutral,tie,1,2,36,,,,,,,,
,,,,,,,,,,,,,,,741,2022-01-20_22h46.01.728,multiplicationStroop,2021.2.3,Win32,144.5086705,,,,,,,,,,,,,,,,,,,,,,,,,,,,,,,,,63,6.7717,1,0,18,18,7,1,7,×,9,7 × 9,congruent,smallerFirst,1,2,63,,,,,,,,
,,,,,,,,,,,,,,,741,2022-01-20_22h46.01.728,multiplicationStroop,2021.2.3,Win32,144.5086705,,,,,,,,,,,,,,,,,,,,,,,,,,,,,,,,,30,2.1333,1,0,19,19,1,1,5,×,6,5 × 6,congruent,smallerFirst,1,2,30,,,,,,,,
,,,,,,,,,,,,,,,741,2022-01-20_22h46.01.728,multiplicationStroop,2021.2.3,Win32,144.5086705,,,,,,,,,,,,,,,,,,,,,,,,,,,,,,,,,81,2.7134,1,0,20,20,35,1,9,×,9,9 × 9,neutral,tie,1,2,81,,,,,,,,
,,,,,,,,,,,,,,,741,2022-01-20_22h46.01.728,multiplicationStroop,2021.2.3,Win32,144.5086705,,,,,,,,,,,,,,,,,,,,,,,,,,,,,,,,,12,1.8528,1,0,21,21,16,1,4,×,3,4 × 3,congruent,largerFirst,2,1,12,,,,,,,,
,,,,,,,,,,,,,,,741,2022-01-20_22h46.01.728,multiplicationStroop,2021.2.3,Win32,144.5086705,,,,,,,,,,,,,,,,,,,,,,,,,,,,,,,,,48,3.3116,1,0,22,22,4,1,6,×,8,6 × 8,congruent,smallerFirst,1,2,48,,,,,,,,
,,,,,,,,,,,,,,,741,2022-01-20_22h46.01.728,multiplicationStroop,2021.2.3,Win32,144.5086705,,,,,,,,,,,,,,,,,,,,,,,,,,,,,,,,,14,1.7292,1,0,23,23,0,1,2,×,7,2 × 7,congruent,smallerFirst,1,2,14,,,,,,,,
,,,,,,,,,,,,,,,741,2022-01-20_22h46.01.728,multiplicationStroop,2021.2.3,Win32,144.5086705,,,,,,,,,,,,,,,,,,,,,,,,,,,,,,,,,42,2.7077,1,0,24,24,17,1,7,×,6,7 × 6,congruent,largerFirst,2,1,42,,,,,,,,
,,,,,,,,,,,,,,,741,2022-01-20_22h46.01.728,multiplicationStroop,2021.2.3,Win32,144.5086705,,,,,,,,,,,,,,,,,,,,,,,,,,,,,,,,,16,4.9494,1,0,25,25,30,1,4,×,4,4 × 4,neutral,tie,1,2,16,,,,,,,,
,,,,,,,,,,,,,,,741,2022-01-20_22h46.01.728,multiplicationStroop,2021.2.3,Win32,144.5086705,,,,,,,,,,,,,,,,,,,,,,,,,,,,,,,,,20,2.1946,1,0,26,26,21,1,5,×,4,5 × 4,congruent,largerFirst,2,1,20,,,,,,,,
,,,,,,,,,,,,,,,741,2022-01-20_22h46.01.728,multiplicationStroop,2021.2.3,Win32,144.5086705,,,,,,,,,,,,,,,,,,,,,,,,,,,,,,,,,49,3.5199,1,0,27,27,33,1,7,×,7,7 × 7,neutral,tie,1,2,49,,,,,,,,
,,,,,,,,,,,,,,,741,2022-01-20_22h46.01.728,multiplicationStroop,2021.2.3,Win32,144.5086705,,,,,,,,,,,,,,,,,,,,,,,,,,,,,,,,,72,5.6157,1,0,28,28,3,1,8,×,9,8 × 9,congruent,smallerFirst,1,2,72,,,,,,,,
,,,,,,,,,,,,,,,741,2022-01-20_22h46.01.728,multiplicationStroop,2021.2.3,Win32,144.5086705,,,,,,,,,,,,,,,,,,,,,,,,,,,,,,,,,32,2.3837,1,0,29,29,6,1,4,×,8,4 × 8,congruent,smallerFirst,1,2,32,,,,,,,,
,,,,,,,,,,,,,,,741,2022-01-20_22h46.01.728,multiplicationStroop,2021.2.3,Win32,144.5086705,,,,,,,,,,,,,,,,,,,,,,,,,,,,,,,,,18,2.2967,1,0,30,30,8,1,2,×,9,2 × 9,congruent,smallerFirst,1,2,18,,,,,,,,
,,,,,,,,,,,,,,,741,2022-01-20_22h46.01.728,multiplicationStroop,2021.2.3,Win32,144.5086705,,,,,,,,,,,,,,,,,,,,,,,,,,,,,,,,,8,1.8927,1,0,31,31,23,1,4,×,2,4 × 2,congruent,largerFirst,2,1,8,,,,,,,,
,,,,,,,,,,,,,,,741,2022-01-20_22h46.01.728,multiplicationStroop,2021.2.3,Win32,144.5086705,,,,,,,,,,,,,,,,,,,,,,,,,,,,,,,,,27,2.4012,1,0,32,32,12,1,3,×,9,3 × 9,congruent,smallerFirst,1,2,27,,,,,,,,
,,,,,,,,,,,,,,,741,2022-01-20_22h46.01.728,multiplicationStroop,2021.2.3,Win32,144.5086705,,,,,,,,,,,,,,,,,,,,,,,,,,,,,,,,,16,1.7,1,0,33,33,19,1,8,×,2,8 × 2,congruent,largerFirst,2,1,16,,,,,,,,
,,,,,,,,,,,,,,,741,2022-01-20_22h46.01.728,multiplicationStroop,2021.2.3,Win32,144.5086705,,,,,,,,,,,,,,,,,,,,,,,,,,,,,,,,,40,2.0954,1,0,34,34,20,1,8,×,5,8 × 5,congruent,largerFirst,2,1,40,,,,,,,,
,,,,,,,,,,,,,,,741,2022-01-20_22h46.01.728,multiplicationStroop,2021.2.3,Win32,144.5086705,,,,,,,,,,,,,,,,,,,,,,,,,,,,,,,,,24,2.9104,1,0,35,35,24,1,8,×,3,8 × 3,congruent,largerFirst,2,1,24,,,,,,,,
,,,,,,,,,,,,,,,741,2022-01-20_22h46.01.728,multiplicationStroop,2021.2.3,Win32,144.5086705,,,,,,,,,,,,,,,,,,,,,,,,,,,,,,,,,,,,,,,,,,,,,,,,,,0,0,0,3,1,stimulusFile/mult_blk4_congruent.xlsx,,
,,,,,,,,,,,,,,,741,2022-01-20_22h46.01.728,multiplicationStroop,2021.2.3,Win32,144.5086705,,,,,,,,,,,,,,,,,,,,,,,,,,,,,,,space,138.5253,45,2.9492,1,0,0,0,23,1,9,×,5,9 × 5,congruent,largerFirst,2,1,45,,,,,,,,
,,,,,,,,,,,,,,,741,2022-01-20_22h46.01.728,multiplicationStroop,2021.2.3,Win32,144.5086705,,,,,,,,,,,,,,,,,,,,,,,,,,,,,,,,,42,2.3043,1,0,1,1,3,1,6,×,7,6 × 7,congruent,smallerFirst,1,2,42,,,,,,,,
,,,,,,,,,,,,,,,741,2022-01-20_22h46.01.728,multiplicationStroop,2021.2.3,Win32,144.5086705,,,,,,,,,,,,,,,,,,,,,,,,,,,,,,,,,27,2.374,1,0,2,2,26,1,9,×,3,9 × 3,congruent,largerFirst,2,1,27,,,,,,,,
,,,,,,,,,,,,,,,741,2022-01-20_22h46.01.728,multiplicationStroop,2021.2.3,Win32,144.5086705,,,,,,,,,,,,,,,,,,,,,,,,,,,,,,,,,36,2.0883,1,0,3,3,0,1,4,×,9,4 × 9,congruent,smallerFirst,1,2,36,,,,,,,,
,,,,,,,,,,,,,,,741,2022-01-20_22h46.01.728,multiplicationStroop,2021.2.3,Win32,144.5086705,,,,,,,,,,,,,,,,,,,,,,,,,,,,,,,,,48,2.5625,1,0,4,4,18,1,8,×,6,8 × 6,congruent,largerFirst,2,1,48,,,,,,,,
,,,,,,,,,,,,,,,741,2022-01-20_22h46.01.728,multiplicationStroop,2021.2.3,Win32,144.5086705,,,,,,,,,,,,,,,,,,,,,,,,,,,,,,,,,56,3.6877,1,0,5,5,8,1,7,×,8,7 × 8,congruent,smallerFirst,1,2,56,,,,,,,,
,,,,,,,,,,,,,,,741,2022-01-20_22h46.01.728,multiplicationStroop,2021.2.3,Win32,144.5086705,,,,,,,,,,,,,,,,,,,,,,,,,,,,,,,,,81,3.096,1,0,6,6,35,1,9,×,9,9 × 9,neutral,tie,2,1,81,,,,,,,,
,,,,,,,,,,,,,,,741,2022-01-20_22h46.01.728,multiplicationStroop,2021.2.3,Win32,144.5086705,,,,,,,,,,,,,,,,,,,,,,,,,,,,,,,,,32,2.0916,1,0,7,7,20,1,8,×,4,8 × 4,congruent,largerFirst,2,1,32,,,,,,,,
,,,,,,,,,,,,,,,741,2022-01-20_22h46.01.728,multiplicationStroop,2021.2.3,Win32,144.5086705,,,,,,,,,,,,,,,,,,,,,,,,,,,,,,,,,8,1.956,1,0,8,8,9,1,2,×,4,2 × 4,congruent,smallerFirst,1,2,8,,,,,,,,
,,,,,,,,,,,,,,,741,2022-01-20_22h46.01.728,multiplicationStroop,2021.2.3,Win32,144.5086705,,,,,,,,,,,,,,,,,,,,,,,,,,,,,,,,,36,3.7838,1,0,9,9,32,1,6,×,6,6 × 6,neutral,tie,2,1,36,,,,,,,,
,,,,,,,,,,,,,,,741,2022-01-20_22h46.01.728,multiplicationStroop,2021.2.3,Win32,144.5086705,,,,,,,,,,,,,,,,,,,,,,,,,,,,,,,,,16,2.3617,1,0,10,10,5,1,2,×,8,2 × 8,congruent,smallerFirst,1,2,16,,,,,,,,
,,,,,,,,,,,,,,,741,2022-01-20_22h46.01.728,multiplicationStroop,2021.2.3,Win32,144.5086705,,,,,,,,,,,,,,,,,,,,,,,,,,,,,,,,,4,1.5443,1,0,11,11,28,1,2,×,2,2 × 2,neutral,tie,2,1,4,,,,,,,,
,,,,,,,,,,,,,,,741,2022-01-20_22h46.01.728,multiplicationStroop,2021.2.3,Win32,144.5086705,,,,,,,,,,,,,,,,,,,,,,,,,,,,,,,,,15,1.7327,1,0,12,12,4,1,3,×,5,3 × 5,congruent,smallerFirst,1,2,15,,,,,,,,
,,,,,,,,,,,,,,,741,2022-01-20_22h46.01.728,multiplicationStroop,2021.2.3,Win32,144.5086705,,,,,,,,,,,,,,,,,,,,,,,,,,,,,,,,,18,1.9639,1,0,13,13,22,1,9,×,2,9 × 2,congruent,largerFirst,2,1,18,,,,,,,,
,,,,,,,,,,,,,,,741,2022-01-20_22h46.01.728,multiplicationStroop,2021.2.3,Win32,144.5086705,,,,,,,,,,,,,,,,,,,,,,,,,,,,,,,,,64,1.9498,1,0,14,14,34,1,8,×,8,8 × 8,neutral,tie,2,1,64,,,,,,,,
,,,,,,,,,,,,,,,741,2022-01-20_22h46.01.728,multiplicationStroop,2021.2.3,Win32,144.5086705,,,,,,,,,,,,,,,,,,,,,,,,,,,,,,,,,49,1.9875,1,0,15,15,33,1,7,×,7,7 × 7,neutral,tie,2,1,49,,,,,,,,
,,,,,,,,,,,,,,,741,2022-01-20_22h46.01.728,multiplicationStroop,2021.2.3,Win32,144.5086705,,,,,,,,,,,,,,,,,,,,,,,,,,,,,,,,,12,2.4414,1,0,16,16,19,1,6,×,2,6 × 2,congruent,largerFirst,2,1,12,,,,,,,,
,,,,,,,,,,,,,,,741,2022-01-20_22h46.01.728,multiplicationStroop,2021.2.3,Win32,144.5086705,,,,,,,,,,,,,,,,,,,,,,,,,,,,,,,,,30,2.8458,1,0,17,17,15,1,6,×,5,6 × 5,congruent,largerFirst,2,1,30,,,,,,,,
,,,,,,,,,,,,,,,741,2022-01-20_22h46.01.728,multiplicationStroop,2021.2.3,Win32,144.5086705,,,,,,,,,,,,,,,,,,,,,,,,,,,,,,,,,10,1.8314,1,0,18,18,24,1,5,×,2,5 × 2,congruent,largerFirst,2,1,10,,,,,,,,
,,,,,,,,,,,,,,,741,2022-01-20_22h46.01.728,multiplicationStroop,2021.2.3,Win32,144.5086705,,,,,,,,,,,,,,,,,,,,,,,,,,,,,,,,,21,1.568,1,0,19,19,16,1,7,×,3,7 × 3,congruent,largerFirst,2,1,21,,,,,,,,
,,,,,,,,,,,,,,,741,2022-01-20_22h46.01.728,multiplicationStroop,2021.2.3,Win32,144.5086705,,,,,,,,,,,,,,,,,,,,,,,,,,,,,,,,,35,4.6943,1,0,20,20,1,1,5,×,7,5 × 7,congruent,smallerFirst,1,2,35,,,,,,,,
,,,,,,,,,,,,,,,741,2022-01-20_22h46.01.728,multiplicationStroop,2021.2.3,Win32,144.5086705,,,,,,,,,,,,,,,,,,,,,,,,,,,,,,,,,9,2.1809,1,0,21,21,29,1,3,×,3,3 × 3,neutral,tie,2,1,9,,,,,,,,
,,,,,,,,,,,,,,,741,2022-01-20_22h46.01.728,multiplicationStroop,2021.2.3,Win32,144.5086705,,,,,,,,,,,,,,,,,,,,,,,,,,,,,,,,,40,2.4306,1,0,22,22,6,1,5,×,8,5 × 8,congruent,smallerFirst,1,2,40,,,,,,,,
,,,,,,,,,,,,,,,741,2022-01-20_22h46.01.728,multiplicationStroop,2021.2.3,Win32,144.5086705,,,,,,,,,,,,,,,,,,,,,,,,,,,,,,,,,6,1.9018,1,0,23,23,13,1,2,×,3,2 × 3,congruent,smallerFirst,1,2,6,,,,,,,,
,,,,,,,,,,,,,,,741,2022-01-20_22h46.01.728,multiplicationStroop,2021.2.3,Win32,144.5086705,,,,,,,,,,,,,,,,,,,,,,,,,,,,,,,,,14,1.6443,1,0,24,24,14,1,7,×,2,7 × 2,congruent,largerFirst,2,1,14,,,,,,,,
,,,,,,,,,,,,,,,741,2022-01-20_22h46.01.728,multiplicationStroop,2021.2.3,Win32,144.5086705,,,,,,,,,,,,,,,,,,,,,,,,,,,,,,,,,24,2.3594,1,0,25,25,25,1,6,×,4,6 × 4,congruent,largerFirst,2,1,24,,,,,,,,
,,,,,,,,,,,,,,,741,2022-01-20_22h46.01.728,multiplicationStroop,2021.2.3,Win32,144.5086705,,,,,,,,,,,,,,,,,,,,,,,,,,,,,,,,,16,2.4294,1,0,26,26,30,1,4,×,4,4 × 4,neutral,tie,2,1,16,,,,,,,,
,,,,,,,,,,,,,,,741,2022-01-20_22h46.01.728,multiplicationStroop,2021.2.3,Win32,144.5086705,,,,,,,,,,,,,,,,,,,,,,,,,,,,,,,,,12,1.9917,1,0,27,27,2,1,3,×,4,3 × 4,congruent,smallerFirst,1,2,12,,,,,,,,
,,,,,,,,,,,,,,,741,2022-01-20_22h46.01.728,multiplicationStroop,2021.2.3,Win32,144.5086705,,,,,,,,,,,,,,,,,,,,,,,,,,,,,,,,,28,3.8456,1,0,28,28,27,1,7,×,4,7 × 4,congruent,largerFirst,2,1,28,,,,,,,,
,,,,,,,,,,,,,,,741,2022-01-20_22h46.01.728,multiplicationStroop,2021.2.3,Win32,144.5086705,,,,,,,,,,,,,,,,,,,,,,,,,,,,,,,,,54,2.4653,1,0,29,29,12,1,6,×,9,6 × 9,congruent,smallerFirst,1,2,54,,,,,,,,
,,,,,,,,,,,,,,,741,2022-01-20_22h46.01.728,multiplicationStroop,2021.2.3,Win32,144.5086705,,,,,,,,,,,,,,,,,,,,,,,,,,,,,,,,,25,1.9087,1,0,30,30,31,1,5,×,5,5 × 5,neutral,tie,2,1,25,,,,,,,,
,,,,,,,,,,,,,,,741,2022-01-20_22h46.01.728,multiplicationStroop,2021.2.3,Win32,144.5086705,,,,,,,,,,,,,,,,,,,,,,,,,,,,,,,,,72,6.402,1,0,31,31,17,1,9,×,8,9 × 8,congruent,largerFirst,2,1,72,,,,,,,,
,,,,,,,,,,,,,,,741,2022-01-20_22h46.01.728,multiplicationStroop,2021.2.3,Win32,144.5086705,,,,,,,,,,,,,,,,,,,,,,,,,,,,,,,,,18,2.7222,1,0,32,32,11,1,3,×,6,3 × 6,congruent,smallerFirst,1,2,18,,,,,,,,
,,,,,,,,,,,,,,,741,2022-01-20_22h46.01.728,multiplicationStroop,2021.2.3,Win32,144.5086705,,,,,,,,,,,,,,,,,,,,,,,,,,,,,,,,,63,6.1888,1,0,33,33,21,1,9,×,7,9 × 7,congruent,largerFirst,2,1,63,,,,,,,,
,,,,,,,,,,,,,,,741,2022-01-20_22h46.01.728,multiplicationStroop,2021.2.3,Win32,144.5086705,,,,,,,,,,,,,,,,,,,,,,,,,,,,,,,,,24,1.6878,1,0,34,34,10,1,3,×,8,3 × 8,congruent,smallerFirst,1,2,24,,,,,,,,
,,,,,,,,,,,,,,,741,2022-01-20_22h46.01.728,multiplicationStroop,2021.2.3,Win32,144.5086705,,,,,,,,,,,,,,,,,,,,,,,,,,,,,,,,,20,2.4305,1,0,35,35,7,1,4,×,5,4 × 5,congruent,smallerFirst,1,2,20,,,,,,,,
,,,,,,,,,,,,,,,741,2022-01-20_22h46.01.728,multiplicationStroop,2021.2.3,Win32,144.5086705,,,,,,,,,,,,,,,,,,,,,,,,,,,,,,,,,,,,,,,,,,,,,,,,,,0,1,1,2,1,stimulusFile/mult_blk3_congruent.xlsx,,
,,,,,,,,,,,,,,,741,2022-01-20_22h46.01.728,multiplicationStroop,2021.2.3,Win32,144.5086705,,,,,,,,,,,,,,,,,,,,,,,,,,,,,,,space,1.4522,24,1.743,1,0,0,0,8,1,3,×,8,3 × 8,neutral,smallerFirst,1.5,1.5,24,,,,,,,,
,,,,,,,,,,,,,,,741,2022-01-20_22h46.01.728,multiplicationStroop,2021.2.3,Win32,144.5086705,,,,,,,,,,,,,,,,,,,,,,,,,,,,,,,,,54,2.5954,1,0,1,1,21,1,9,×,6,9 × 6,neutral,largerFirst,1.5,1.5,54,,,,,,,,
,,,,,,,,,,,,,,,741,2022-01-20_22h46.01.728,multiplicationStroop,2021.2.3,Win32,144.5086705,,,,,,,,,,,,,,,,,,,,,,,,,,,,,,,,,35,1.6116,1,0,2,2,15,1,7,×,5,7 × 5,neutral,largerFirst,1.5,1.5,35,,,,,,,,
,,,,,,,,,,,,,,,741,2022-01-20_22h46.01.728,multiplicationStroop,2021.2.3,Win32,144.5086705,,,,,,,,,,,,,,,,,,,,,,,,,,,,,,,,,16,1.9375,1,0,3,3,30,1,4,×,4,4 × 4,neutral,tie,1.5,1.5,16,,,,,,,,
,,,,,,,,,,,,,,,741,2022-01-20_22h46.01.728,multiplicationStroop,2021.2.3,Win32,144.5086705,,,,,,,,,,,,,,,,,,,,,,,,,,,,,,,,,24,1.5953,1,0,4,4,16,1,6,×,4,6 × 4,neutral,largerFirst,1.5,1.5,24,,,,,,,,
,,,,,,,,,,,,,,,741,2022-01-20_22h46.01.728,multiplicationStroop,2021.2.3,Win32,144.5086705,,,,,,,,,,,,,,,,,,,,,,,,,,,,,,,,,4,2.7146,1,0,5,5,28,1,2,×,2,2 × 2,neutral,tie,1.5,1.5,4,,,,,,,,
,,,,,,,,,,,,,,,741,2022-01-20_22h46.01.728,multiplicationStroop,2021.2.3,Win32,144.5086705,,,,,,,,,,,,,,,,,,,,,,,,,,,,,,,,,81,2.3947,1,0,6,6,35,1,9,×,9,9 × 9,neutral,tie,1.5,1.5,81,,,,,,,,
,,,,,,,,,,,,,,,741,2022-01-20_22h46.01.728,multiplicationStroop,2021.2.3,Win32,144.5086705,,,,,,,,,,,,,,,,,,,,,,,,,,,,,,,,,45,1.7898,1,0,7,7,24,1,9,×,5,9 × 5,neutral,largerFirst,1.5,1.5,45,,,,,,,,
,,,,,,,,,,,,,,,741,2022-01-20_22h46.01.728,multiplicationStroop,2021.2.3,Win32,144.5086705,,,,,,,,,,,,,,,,,,,,,,,,,,,,,,,,,40,2.1656,1,0,8,8,10,1,5,×,8,5 × 8,neutral,smallerFirst,1.5,1.5,40,,,,,,,,
,,,,,,,,,,,,,,,741,2022-01-20_22h46.01.728,multiplicationStroop,2021.2.3,Win32,144.5086705,,,,,,,,,,,,,,,,,,,,,,,,,,,,,,,,,28,2.4303,1,0,9,9,3,1,4,×,7,4 × 7,neutral,smallerFirst,1.5,1.5,28,,,,,,,,
,,,,,,,,,,,,,,,741,2022-01-20_22h46.01.728,multiplicationStroop,2021.2.3,Win32,144.5086705,,,,,,,,,,,,,,,,,,,,,,,,,,,,,,,,,64,1.8249,1,0,10,10,34,1,8,×,8,8 × 8,neutral,tie,1.5,1.5,64,,,,,,,,
,,,,,,,,,,,,,,,741,2022-01-20_22h46.01.728,multiplicationStroop,2021.2.3,Win32,144.5086705,,,,,,,,,,,,,,,,,,,,,,,,,,,,,,,,,9,1.5959,1,0,11,11,29,1,3,×,3,3 × 3,neutral,tie,1.5,1.5,9,,,,,,,,
,,,,,,,,,,,,,,,741,2022-01-20_22h46.01.728,multiplicationStroop,2021.2.3,Win32,144.5086705,,,,,,,,,,,,,,,,,,,,,,,,,,,,,,,,,12,1.5464,1,0,12,12,11,1,2,×,6,2 × 6,neutral,smallerFirst,1.5,1.5,12,,,,,,,,
,,,,,,,,,,,,,,,741,2022-01-20_22h46.01.728,multiplicationStroop,2021.2.3,Win32,144.5086705,,,,,,,,,,,,,,,,,,,,,,,,,,,,,,,,,32,2.0403,1,0,13,13,9,1,4,×,8,4 × 8,neutral,smallerFirst,1.5,1.5,32,,,,,,,,
,,,,,,,,,,,,,,,741,2022-01-20_22h46.01.728,multiplicationStroop,2021.2.3,Win32,144.5086705,,,,,,,,,,,,,,,,,,,,,,,,,,,,,,,,,36,2.1522,1,0,14,14,32,1,6,×,6,6 × 6,neutral,tie,1.5,1.5,36,,,,,,,,
,,,,,,,,,,,,,,,741,2022-01-20_22h46.01.728,multiplicationStroop,2021.2.3,Win32,144.5086705,,,,,,,,,,,,,,,,,,,,,,,,,,,,,,,,,56,3.0347,1,0,15,15,23,1,8,×,7,8 × 7,neutral,largerFirst,1.5,1.5,56,,,,,,,,
,,,,,,,,,,,,,,,741,2022-01-20_22h46.01.728,multiplicationStroop,2021.2.3,Win32,144.5086705,,,,,,,,,,,,,,,,,,,,,,,,,,,,,,,,,10,1.6247,1,0,16,16,18,1,5,×,2,5 × 2,neutral,largerFirst,1.5,1.5,10,,,,,,,,
,,,,,,,,,,,,,,,741,2022-01-20_22h46.01.728,multiplicationStroop,2021.2.3,Win32,144.5086705,,,,,,,,,,,,,,,,,,,,,,,,,,,,,,,,,49,1.9007,1,0,17,17,33,1,7,×,7,7 × 7,neutral,tie,1.5,1.5,49,,,,,,,,
,,,,,,,,,,,,,,,741,2022-01-20_22h46.01.728,multiplicationStroop,2021.2.3,Win32,144.5086705,,,,,,,,,,,,,,,,,,,,,,,,,,,,,,,,,25,2.353,1,0,18,18,31,1,5,×,5,5 × 5,neutral,tie,1.5,1.5,25,,,,,,,,
,,,,,,,,,,,,,,,741,2022-01-20_22h46.01.728,multiplicationStroop,2021.2.3,Win32,144.5086705,,,,,,,,,,,,,,,,,,,,,,,,,,,,,,,,,48,3.262,1,0,19,19,1,1,6,×,8,6 × 8,neutral,smallerFirst,1.5,1.5,48,,,,,,,,
,,,,,,,,,,,,,,,741,2022-01-20_22h46.01.728,multiplicationStroop,2021.2.3,Win32,144.5086705,,,,,,,,,,,,,,,,,,,,,,,,,,,,,,,,,18,2.3687,1,0,20,20,14,1,6,×,3,6 × 3,neutral,largerFirst,1.5,1.5,18,,,,,,,,
,,,,,,,,,,,,,,,741,2022-01-20_22h46.01.728,multiplicationStroop,2021.2.3,Win32,144.5086705,,,,,,,,,,,,,,,,,,,,,,,,,,,,,,,,,18,1.9648,1,0,21,21,4,1,2,×,9,2 × 9,neutral,smallerFirst,1.5,1.5,18,,,,,,,,
,,,,,,,,,,,,,,,741,2022-01-20_22h46.01.728,multiplicationStroop,2021.2.3,Win32,144.5086705,,,,,,,,,,,,,,,,,,,,,,,,,,,,,,,,,21,1.5706,1,0,22,22,22,1,7,×,3,7 × 3,neutral,largerFirst,1.5,1.5,21,,,,,,,,
,,,,,,,,,,,,,,,741,2022-01-20_22h46.01.728,multiplicationStroop,2021.2.3,Win32,144.5086705,,,,,,,,,,,,,,,,,,,,,,,,,,,,,,,,,30,3.3023,1,0,23,23,5,1,5,×,6,5 × 6,neutral,smallerFirst,1.5,1.5,30,,,,,,,,
,,,,,,,,,,,,,,,741,2022-01-20_22h46.01.728,multiplicationStroop,2021.2.3,Win32,144.5086705,,,,,,,,,,,,,,,,,,,,,,,,,,,,,,,,,6,2.1649,1,0,24,24,12,1,2,×,3,2 × 3,neutral,smallerFirst,1.5,1.5,6,,,,,,,,
,,,,,,,,,,,,,,,741,2022-01-20_22h46.01.728,multiplicationStroop,2021.2.3,Win32,144.5086705,,,,,,,,,,,,,,,,,,,,,,,,,,,,,,,,,63,4.8539,1,0,25,25,26,1,9,×,7,9 × 7,neutral,largerFirst,1.5,1.5,63,,,,,,,,
,,,,,,,,,,,,,,,741,2022-01-20_22h46.01.728,multiplicationStroop,2021.2.3,Win32,144.5086705,,,,,,,,,,,,,,,,,,,,,,,,,,,,,,,,,14,1.7642,1,0,26,26,2,1,2,×,7,2 × 7,neutral,smallerFirst,1.5,1.5,14,,,,,,,,
,,,,,,,,,,,,,,,741,2022-01-20_22h46.01.728,multiplicationStroop,2021.2.3,Win32,144.5086705,,,,,,,,,,,,,,,,,,,,,,,,,,,,,,,,,42,7.227,1,0,27,27,20,1,7,×,6,7 × 6,neutral,largerFirst,1.5,1.5,42,,,,,,,,
,,,,,,,,,,,,,,,741,2022-01-20_22h46.01.728,multiplicationStroop,2021.2.3,Win32,144.5086705,,,,,,,,,,,,,,,,,,,,,,,,,,,,,,,,,15,1.9447,1,0,28,28,19,1,5,×,3,5 × 3,neutral,largerFirst,1.5,1.5,15,,,,,,,,
,,,,,,,,,,,,,,,741,2022-01-20_22h46.01.728,multiplicationStroop,2021.2.3,Win32,144.5086705,,,,,,,,,,,,,,,,,,,,,,,,,,,,,,,,,36,5.7701,1,0,29,29,13,1,4,×,9,4 × 9,neutral,smallerFirst,1.5,1.5,36,,,,,,,,
,,,,,,,,,,,,,,,741,2022-01-20_22h46.01.728,multiplicationStroop,2021.2.3,Win32,144.5086705,,,,,,,,,,,,,,,,,,,,,,,,,,,,,,,,,20,3.9255,1,0,30,30,6,1,4,×,5,4 × 5,neutral,smallerFirst,1.5,1.5,20,,,,,,,,
,,,,,,,,,,,,,,,741,2022-01-20_22h46.01.728,multiplicationStroop,2021.2.3,Win32,144.5086705,,,,,,,,,,,,,,,,,,,,,,,,,,,,,,,,,16,2.1027,1,0,31,31,27,1,8,×,2,8 × 2,neutral,largerFirst,1.5,1.5,16,,,,,,,,
,,,,,,,,,,,,,,,741,2022-01-20_22h46.01.728,multiplicationStroop,2021.2.3,Win32,144.5086705,,,,,,,,,,,,,,,,,,,,,,,,,,,,,,,,,12,3.6861,1,0,32,32,7,1,3,×,4,3 × 4,neutral,smallerFirst,1.5,1.5,12,,,,,,,,
,,,,,,,,,,,,,,,741,2022-01-20_22h46.01.728,multiplicationStroop,2021.2.3,Win32,144.5086705,,,,,,,,,,,,,,,,,,,,,,,,,,,,,,,,,8,2.0203,1,0,33,33,17,1,4,×,2,4 × 2,neutral,largerFirst,1.5,1.5,8,,,,,,,,
,,,,,,,,,,,,,,,741,2022-01-20_22h46.01.728,multiplicationStroop,2021.2.3,Win32,144.5086705,,,,,,,,,,,,,,,,,,,,,,,,,,,,,,,,,27,3.3598,1,0,34,34,0,1,3,×,9,3 × 9,neutral,smallerFirst,1.5,1.5,27,,,,,,,,
,,,,,,,,,,,,,,,741,2022-01-20_22h46.01.728,multiplicationStroop,2021.2.3,Win32,144.5086705,,,,,,,,,,,,,,,,,,,,,,,,,,,,,,,,,72,9.7164,1,0,35,35,25,1,9,×,8,9 × 8,neutral,largerFirst,1.5,1.5,72,,,,,,,,
,,,,,,,,,,,,,,,741,2022-01-20_22h46.01.728,multiplicationStroop,2021.2.3,Win32,144.5086705,,,,,,,,,,,,,,,,,,,,,,,,,,,,,,,,,,,,,,,,,,,,,,,,,,0,2,2,0,1,stimulusFile/mult_blk1.xlsx,,
,,,,,,,,,,,,,,,741,2022-01-20_22h46.01.728,multiplicationStroop,2021.2.3,Win32,144.5086705,,,,,,,,,,,,,,,,,,,,,,,,,,,,,,,space,313.4887,21,2.1702,1,0,0,0,26,1,7,×,3,7 × 3,incongruent,largerFirst,1,2,21,,,,,,,,
,,,,,,,,,,,,,,,741,2022-01-20_22h46.01.728,multiplicationStroop,2021.2.3,Win32,144.5086705,,,,,,,,,,,,,,,,,,,,,,,,,,,,,,,,,36,3.7973,1,0,1,1,32,1,6,×,6,6 × 6,incongruent,tie,1,2,36,,,,,,,,
,,,,,,,,,,,,,,,741,2022-01-20_22h46.01.728,multiplicationStroop,2021.2.3,Win32,144.5086705,,,,,,,,,,,,,,,,,,,,,,,,,,,,,,,,,6,2.6799,1,0,2,2,11,1,2,×,3,2 × 3,incongruent,smallerFirst,2,1,6,,,,,,,,
,,,,,,,,,,,,,,,741,2022-01-20_22h46.01.728,multiplicationStroop,2021.2.3,Win32,144.5086705,,,,,,,,,,,,,,,,,,,,,,,,,,,,,,,,,4,1.4525,1,0,3,3,28,1,2,×,2,2 × 2,incongruent,tie,1,2,4,,,,,,,,
,,,,,,,,,,,,,,,741,2022-01-20_22h46.01.728,multiplicationStroop,2021.2.3,Win32,144.5086705,,,,,,,,,,,,,,,,,,,,,,,,,,,,,,,,,40,2.8313,1,0,4,4,13,1,5,×,8,5 × 8,incongruent,smallerFirst,2,1,40,,,,,,,,
,,,,,,,,,,,,,,,741,2022-01-20_22h46.01.728,multiplicationStroop,2021.2.3,Win32,144.5086705,,,,,,,,,,,,,,,,,,,,,,,,,,,,,,,,,24,2.0759,1,0,5,5,20,1,6,×,4,6 × 4,incongruent,largerFirst,1,2,24,,,,,,,,
,,,,,,,,,,,,,,,741,2022-01-20_22h46.01.728,multiplicationStroop,2021.2.3,Win32,144.5086705,,,,,,,,,,,,,,,,,,,,,,,,,,,,,,,,,16,2.1993,1,0,6,6,30,1,4,×,4,4 × 4,incongruent,tie,1,2,16,,,,,,,,
,,,,,,,,,,,,,,,741,2022-01-20_22h46.01.728,multiplicationStroop,2021.2.3,Win32,144.5086705,,,,,,,,,,,,,,,,,,,,,,,,,,,,,,,,,18,2.3876,1,0,7,7,8,1,3,×,6,3 × 6,incongruent,smallerFirst,2,1,18,,,,,,,,
,,,,,,,,,,,,,,,741,2022-01-20_22h46.01.728,multiplicationStroop,2021.2.3,Win32,144.5086705,,,,,,,,,,,,,,,,,,,,,,,,,,,,,,,,,9,1.9301,1,0,8,8,29,1,3,×,3,3 × 3,incongruent,tie,1,2,9,,,,,,,,
,,,,,,,,,,,,,,,741,2022-01-20_22h46.01.728,multiplicationStroop,2021.2.3,Win32,144.5086705,,,,,,,,,,,,,,,,,,,,,,,,,,,,,,,,,56,4.7982,1,0,9,9,14,1,8,×,7,8 × 7,incongruent,largerFirst,1,2,56,,,,,,,,
,,,,,,,,,,,,,,,741,2022-01-20_22h46.01.728,multiplicationStroop,2021.2.3,Win32,144.5086705,,,,,,,,,,,,,,,,,,,,,,,,,,,,,,,,,49,2.5334,1,0,10,10,33,1,7,×,7,7 × 7,incongruent,tie,1,2,49,,,,,,,,
,,,,,,,,,,,,,,,741,2022-01-20_22h46.01.728,multiplicationStroop,2021.2.3,Win32,144.5086705,,,,,,,,,,,,,,,,,,,,,,,,,,,,,,,,,16,2.0268,1,0,11,11,23,1,8,×,2,8 × 2,incongruent,largerFirst,1,2,16,,,,,,,,
,,,,,,,,,,,,,,,741,2022-01-20_22h46.01.728,multiplicationStroop,2021.2.3,Win32,144.5086705,,,,,,,,,,,,,,,,,,,,,,,,,,,,,,,,,72,8.4367,1,0,12,12,0,1,8,×,9,8 × 9,incongruent,smallerFirst,2,1,72,,,,,,,,
,,,,,,,,,,,,,,,741,2022-01-20_22h46.01.728,multiplicationStroop,2021.2.3,Win32,144.5086705,,,,,,,,,,,,,,,,,,,,,,,,,,,,,,,,,32,1.9634,1,0,13,13,7,1,4,×,8,4 × 8,incongruent,smallerFirst,2,1,32,,,,,,,,
,,,,,,,,,,,,,,,741,2022-01-20_22h46.01.728,multiplicationStroop,2021.2.3,Win32,144.5086705,,,,,,,,,,,,,,,,,,,,,,,,,,,,,,,,,42,2.8188,1,0,14,14,17,1,7,×,6,7 × 6,incongruent,largerFirst,1,2,42,,,,,,,,
,,,,,,,,,,,,,,,741,2022-01-20_22h46.01.728,multiplicationStroop,2021.2.3,Win32,144.5086705,,,,,,,,,,,,,,,,,,,,,,,,,,,,,,,,,20,2.2785,1,0,15,15,27,1,5,×,4,5 × 4,incongruent,largerFirst,1,2,20,,,,,,,,
,,,,,,,,,,,,,,,741,2022-01-20_22h46.01.728,multiplicationStroop,2021.2.3,Win32,144.5086705,,,,,,,,,,,,,,,,,,,,,,,,,,,,,,,,,14,2.4716,1,0,16,16,4,1,2,×,7,2 × 7,incongruent,smallerFirst,2,1,14,,,,,,,,
,,,,,,,,,,,,,,,741,2022-01-20_22h46.01.728,multiplicationStroop,2021.2.3,Win32,144.5086705,,,,,,,,,,,,,,,,,,,,,,,,,,,,,,,,,27,2.2783,1,0,17,17,18,1,9,×,3,9 × 3,incongruent,largerFirst,1,2,27,,,,,,,,
,,,,,,,,,,,,,,,741,2022-01-20_22h46.01.728,multiplicationStroop,2021.2.3,Win32,144.5086705,,,,,,,,,,,,,,,,,,,,,,,,,,,,,,,,,48,2.3578,1,0,18,18,1,1,6,×,8,6 × 8,incongruent,smallerFirst,2,1,48,,,,,,,,
,,,,,,,,,,,,,,,741,2022-01-20_22h46.01.728,multiplicationStroop,2021.2.3,Win32,144.5086705,,,,,,,,,,,,,,,,,,,,,,,,,,,,,,,,,28,3.0067,1,0,19,19,16,1,7,×,4,7 × 4,incongruent,largerFirst,1,2,28,,,,,,,,
,,,,,,,,,,,,,,,741,2022-01-20_22h46.01.728,multiplicationStroop,2021.2.3,Win32,144.5086705,,,,,,,,,,,,,,,,,,,,,,,,,,,,,,,,,12,1.7688,1,0,20,20,19,1,6,×,2,6 × 2,incongruent,largerFirst,1,2,12,,,,,,,,
,,,,,,,,,,,,,,,741,2022-01-20_22h46.01.728,multiplicationStroop,2021.2.3,Win32,144.5086705,,,,,,,,,,,,,,,,,,,,,,,,,,,,,,,,,25,1.8678,1,0,21,21,31,1,5,×,5,5 × 5,incongruent,tie,1,2,25,,,,,,,,
,,,,,,,,,,,,,,,741,2022-01-20_22h46.01.728,multiplicationStroop,2021.2.3,Win32,144.5086705,,,,,,,,,,,,,,,,,,,,,,,,,,,,,,,,,30,1.8524,1,0,22,22,25,1,6,×,5,6 × 5,incongruent,largerFirst,1,2,30,,,,,,,,
,,,,,,,,,,,,,,,741,2022-01-20_22h46.01.728,multiplicationStroop,2021.2.3,Win32,144.5086705,,,,,,,,,,,,,,,,,,,,,,,,,,,,,,,,,81,2.6368,1,0,23,23,35,1,9,×,9,9 × 9,incongruent,tie,1,2,81,,,,,,,,
,,,,,,,,,,,,,,,741,2022-01-20_22h46.01.728,multiplicationStroop,2021.2.3,Win32,144.5086705,,,,,,,,,,,,,,,,,,,,,,,,,,,,,,,,,24,1.673,1,0,24,24,9,1,3,×,8,3 × 8,incongruent,smallerFirst,2,1,24,,,,,,,,
,,,,,,,,,,,,,,,741,2022-01-20_22h46.01.728,multiplicationStroop,2021.2.3,Win32,144.5086705,,,,,,,,,,,,,,,,,,,,,,,,,,,,,,,,,36,2.9497,1,0,25,25,15,1,9,×,4,9 × 4,incongruent,largerFirst,1,2,36,,,,,,,,
,,,,,,,,,,,,,,,741,2022-01-20_22h46.01.728,multiplicationStroop,2021.2.3,Win32,144.5086705,,,,,,,,,,,,,,,,,,,,,,,,,,,,,,,,,18,2.5813,1,0,26,26,2,1,2,×,9,2 × 9,incongruent,smallerFirst,2,1,18,,,,,,,,
,,,,,,,,,,,,,,,741,2022-01-20_22h46.01.728,multiplicationStroop,2021.2.3,Win32,144.5086705,,,,,,,,,,,,,,,,,,,,,,,,,,,,,,,,,35,1.8252,1,0,27,27,12,1,5,×,7,5 × 7,incongruent,smallerFirst,2,1,35,,,,,,,,
,,,,,,,,,,,,,,,741,2022-01-20_22h46.01.728,multiplicationStroop,2021.2.3,Win32,144.5086705,,,,,,,,,,,,,,,,,,,,,,,,,,,,,,,,,15,2.2705,1,0,28,28,10,1,3,×,5,3 × 5,incongruent,smallerFirst,2,1,15,,,,,,,,
,,,,,,,,,,,,,,,741,2022-01-20_22h46.01.728,multiplicationStroop,2021.2.3,Win32,144.5086705,,,,,,,,,,,,,,,,,,,,,,,,,,,,,,,,,8,1.8239,1,0,29,29,24,1,4,×,2,4 × 2,incongruent,largerFirst,1,2,8,,,,,,,,
,,,,,,,,,,,,,,,741,2022-01-20_22h46.01.728,multiplicationStroop,2021.2.3,Win32,144.5086705,,,,,,,,,,,,,,,,,,,,,,,,,,,,,,,,,63,4.6519,1,0,30,30,3,1,7,×,9,7 × 9,incongruent,smallerFirst,2,1,63,,,,,,,,
,,,,,,,,,,,,,,,741,2022-01-20_22h46.01.728,multiplicationStroop,2021.2.3,Win32,144.5086705,,,,,,,,,,,,,,,,,,,,,,,,,,,,,,,,,10,2.2438,1,0,31,31,21,1,5,×,2,5 × 2,incongruent,largerFirst,1,2,10,,,,,,,,
,,,,,,,,,,,,,,,741,2022-01-20_22h46.01.728,multiplicationStroop,2021.2.3,Win32,144.5086705,,,,,,,,,,,,,,,,,,,,,,,,,,,,,,,,,64,2.1373,1,0,32,32,34,1,8,×,8,8 × 8,incongruent,tie,1,2,64,,,,,,,,
,,,,,,,,,,,,,,,741,2022-01-20_22h46.01.728,multiplicationStroop,2021.2.3,Win32,144.5086705,,,,,,,,,,,,,,,,,,,,,,,,,,,,,,,,,54,2.4782,1,0,33,33,6,1,6,×,9,6 × 9,incongruent,smallerFirst,2,1,54,,,,,,,,
,,,,,,,,,,,,,,,741,2022-01-20_22h46.01.728,multiplicationStroop,2021.2.3,Win32,144.5086705,,,,,,,,,,,,,,,,,,,,,,,,,,,,,,,,,12,1.5882,1,0,34,34,5,1,3,×,4,3 × 4,incongruent,smallerFirst,2,1,12,,,,,,,,
,,,,,,,,,,,,,,,741,2022-01-20_22h46.01.728,multiplicationStroop,2021.2.3,Win32,144.5086705,,,,,,,,,,,,,,,,,,,,,,,,,,,,,,,,,45,1.833,1,0,35,35,22,1,9,×,5,9 × 5,incongruent,largerFirst,1,2,45,,,,,,,,
,,,,,,,,,,,,,,,741,2022-01-20_22h46.01.728,multiplicationStroop,2021.2.3,Win32,144.5086705,,,,,,,,,,,,,,,,,,,,,,,,,,,,,,,,,,,,,,,,,,,,,,,,,,0,3,3,5,1,stimulusFile/mult_blk6_INcongruent.xlsx,,
,,,,,,,,,,,,,,,741,2022-01-20_22h46.01.728,multiplicationStroop,2021.2.3,Win32,144.5086705,,,,,,,,,,,,,,,,,,,,,,,,,,,,,,,space,2.2863,72,3.3895,1,0,0,0,11,1,8,×,9,8 × 9,neutral,smallerFirst,1.5,1.5,72,,,,,,,,
,,,,,,,,,,,,,,,741,2022-01-20_22h46.01.728,multiplicationStroop,2021.2.3,Win32,144.5086705,,,,,,,,,,,,,,,,,,,,,,,,,,,,,,,,,35,2.1458,1,0,1,1,1,1,5,×,7,5 × 7,neutral,smallerFirst,1.5,1.5,35,,,,,,,,
,,,,,,,,,,,,,,,741,2022-01-20_22h46.01.728,multiplicationStroop,2021.2.3,Win32,144.5086705,,,,,,,,,,,,,,,,,,,,,,,,,,,,,,,,,16,1.7208,1,0,2,2,13,1,2,×,8,2 × 8,neutral,smallerFirst,1.5,1.5,16,,,,,,,,
,,,,,,,,,,,,,,,741,2022-01-20_22h46.01.728,multiplicationStroop,2021.2.3,Win32,144.5086705,,,,,,,,,,,,,,,,,,,,,,,,,,,,,,,,,10,1.7423,1,0,3,3,4,1,2,×,5,2 × 5,neutral,smallerFirst,1.5,1.5,10,,,,,,,,
,,,,,,,,,,,,,,,741,2022-01-20_22h46.01.728,multiplicationStroop,2021.2.3,Win32,144.5086705,,,,,,,,,,,,,,,,,,,,,,,,,,,,,,,,,12,1.6228,1,0,4,4,21,1,4,×,3,4 × 3,neutral,largerFirst,1.5,1.5,12,,,,,,,,
,,,,,,,,,,,,,,,741,2022-01-20_22h46.01.728,multiplicationStroop,2021.2.3,Win32,144.5086705,,,,,,,,,,,,,,,,,,,,,,,,,,,,,,,,,15,1.8544,1,0,5,5,5,1,3,×,5,3 × 5,neutral,smallerFirst,1.5,1.5,15,,,,,,,,
,,,,,,,,,,,,,,,741,2022-01-20_22h46.01.728,multiplicationStroop,2021.2.3,Win32,144.5086705,,,,,,,,,,,,,,,,,,,,,,,,,,,,,,,,,4,1.5601,1,0,6,6,28,1,2,×,2,2 × 2,neutral,tie,1.5,1.5,4,,,,,,,,
,,,,,,,,,,,,,,,741,2022-01-20_22h46.01.728,multiplicationStroop,2021.2.3,Win32,144.5086705,,,,,,,,,,,,,,,,,,,,,,,,,,,,,,,,,48,2.6518,1,0,7,7,15,1,8,×,6,8 × 6,neutral,largerFirst,1.5,1.5,48,,,,,,,,
,,,,,,,,,,,,,,,741,2022-01-20_22h46.01.728,multiplicationStroop,2021.2.3,Win32,144.5086705,,,,,,,,,,,,,,,,,,,,,,,,,,,,,,,,,45,2.124,1,0,8,8,10,1,5,×,9,5 × 9,neutral,smallerFirst,1.5,1.5,45,,,,,,,,
,,,,,,,,,,,,,,,741,2022-01-20_22h46.01.728,multiplicationStroop,2021.2.3,Win32,144.5086705,,,,,,,,,,,,,,,,,,,,,,,,,,,,,,,,,16,2.0341,1,0,9,9,30,1,4,×,4,4 × 4,neutral,tie,1.5,1.5,16,,,,,,,,
,,,,,,,,,,,,,,,741,2022-01-20_22h46.01.728,multiplicationStroop,2021.2.3,Win32,144.5086705,,,,,,,,,,,,,,,,,,,,,,,,,,,,,,,,,36,1.9703,1,0,10,10,27,1,9,×,4,9 × 4,neutral,largerFirst,1.5,1.5,36,,,,,,,,
,,,,,,,,,,,,,,,741,2022-01-20_22h46.01.728,multiplicationStroop,2021.2.3,Win32,144.5086705,,,,,,,,,,,,,,,,,,,,,,,,,,,,,,,,,54,2.1828,1,0,11,11,7,1,6,×,9,6 × 9,neutral,smallerFirst,1.5,1.5,54,,,,,,,,
,,,,,,,,,,,,,,,741,2022-01-20_22h46.01.728,multiplicationStroop,2021.2.3,Win32,144.5086705,,,,,,,,,,,,,,,,,,,,,,,,,,,,,,,,,14,1.4679,1,0,12,12,16,1,7,×,2,7 × 2,neutral,largerFirst,1.5,1.5,14,,,,,,,,
,,,,,,,,,,,,,,,741,2022-01-20_22h46.01.728,multiplicationStroop,2021.2.3,Win32,144.5086705,,,,,,,,,,,,,,,,,,,,,,,,,,,,,,,,,21,1.4438,1,0,13,13,8,1,3,×,7,3 × 7,neutral,smallerFirst,1.5,1.5,21,,,,,,,,
,,,,,,,,,,,,,,,741,2022-01-20_22h46.01.728,multiplicationStroop,2021.2.3,Win32,144.5086705,,,,,,,,,,,,,,,,,,,,,,,,,,,,,,,,,36,1.9634,1,0,14,14,32,1,6,×,6,6 × 6,neutral,tie,1.5,1.5,36,,,,,,,,
,,,,,,,,,,,,,,,741,2022-01-20_22h46.01.728,multiplicationStroop,2021.2.3,Win32,144.5086705,,,,,,,,,,,,,,,,,,,,,,,,,,,,,,,,,25,1.8663,1,0,15,15,31,1,5,×,5,5 × 5,neutral,tie,1.5,1.5,25,,,,,,,,
,,,,,,,,,,,,,,,741,2022-01-20_22h46.01.728,multiplicationStroop,2021.2.3,Win32,144.5086705,,,,,,,,,,,,,,,,,,,,,,,,,,,,,,,,,63,2.1381,1,0,16,16,12,1,7,×,9,7 × 9,neutral,smallerFirst,1.5,1.5,63,,,,,,,,
,,,,,,,,,,,,,,,741,2022-01-20_22h46.01.728,multiplicationStroop,2021.2.3,Win32,144.5086705,,,,,,,,,,,,,,,,,,,,,,,,,,,,,,,,,6,1.6791,1,0,17,17,26,1,3,×,2,3 × 2,neutral,largerFirst,1.5,1.5,6,,,,,,,,
,,,,,,,,,,,,,,,741,2022-01-20_22h46.01.728,multiplicationStroop,2021.2.3,Win32,144.5086705,,,,,,,,,,,,,,,,,,,,,,,,,,,,,,,,,40,2.0274,1,0,18,18,24,1,8,×,5,8 × 5,neutral,largerFirst,1.5,1.5,40,,,,,,,,
,,,,,,,,,,,,,,,741,2022-01-20_22h46.01.728,multiplicationStroop,2021.2.3,Win32,144.5086705,,,,,,,,,,,,,,,,,,,,,,,,,,,,,,,,,81,2.2694,1,0,19,19,35,1,9,×,9,9 × 9,neutral,tie,1.5,1.5,81,,,,,,,,
,,,,,,,,,,,,,,,741,2022-01-20_22h46.01.728,multiplicationStroop,2021.2.3,Win32,144.5086705,,,,,,,,,,,,,,,,,,,,,,,,,,,,,,,,,30,4.2972,1,0,20,20,19,1,6,×,5,6 × 5,neutral,largerFirst,1.5,1.5,30,,,,,,,,
,,,,,,,,,,,,,,,741,2022-01-20_22h46.01.728,multiplicationStroop,2021.2.3,Win32,144.5086705,,,,,,,,,,,,,,,,,,,,,,,,,,,,,,,,,18,1.9769,1,0,21,21,0,1,3,×,6,3 × 6,neutral,smallerFirst,1.5,1.5,18,,,,,,,,
,,,,,,,,,,,,,,,741,2022-01-20_22h46.01.728,multiplicationStroop,2021.2.3,Win32,144.5086705,,,,,,,,,,,,,,,,,,,,,,,,,,,,,,,,,42,2.249,1,0,22,22,6,1,6,×,7,6 × 7,neutral,smallerFirst,1.5,1.5,42,,,,,,,,
,,,,,,,,,,,,,,,741,2022-01-20_22h46.01.728,multiplicationStroop,2021.2.3,Win32,144.5086705,,,,,,,,,,,,,,,,,,,,,,,,,,,,,,,,,8,1.8731,1,0,23,23,3,1,2,×,4,2 × 4,neutral,smallerFirst,1.5,1.5,8,,,,,,,,
,,,,,,,,,,,,,,,741,2022-01-20_22h46.01.728,multiplicationStroop,2021.2.3,Win32,144.5086705,,,,,,,,,,,,,,,,,,,,,,,,,,,,,,,,,27,2.0901,1,0,24,24,14,1,9,×,3,9 × 3,neutral,largerFirst,1.5,1.5,27,,,,,,,,
,,,,,,,,,,,,,,,741,2022-01-20_22h46.01.728,multiplicationStroop,2021.2.3,Win32,144.5086705,,,,,,,,,,,,,,,,,,,,,,,,,,,,,,,,,56,2.3739,1,0,25,25,9,1,7,×,8,7 × 8,neutral,smallerFirst,1.5,1.5,56,,,,,,,,
,,,,,,,,,,,,,,,741,2022-01-20_22h46.01.728,multiplicationStroop,2021.2.3,Win32,144.5086705,,,,,,,,,,,,,,,,,,,,,,,,,,,,,,,,,12,1.3311,1,0,26,26,25,1,6,×,2,6 × 2,neutral,largerFirst,1.5,1.5,12,,,,,,,,
,,,,,,,,,,,,,,,741,2022-01-20_22h46.01.728,multiplicationStroop,2021.2.3,Win32,144.5086705,,,,,,,,,,,,,,,,,,,,,,,,,,,,,,,,,32,1.5748,1,0,27,27,23,1,8,×,4,8 × 4,neutral,largerFirst,1.5,1.5,32,,,,,,,,
,,,,,,,,,,,,,,,741,2022-01-20_22h46.01.728,multiplicationStroop,2021.2.3,Win32,144.5086705,,,,,,,,,,,,,,,,,,,,,,,,,,,,,,,,,64,2.2148,1,0,28,28,34,1,8,×,8,8 × 8,neutral,tie,1.5,1.5,64,,,,,,,,
,,,,,,,,,,,,,,,741,2022-01-20_22h46.01.728,multiplicationStroop,2021.2.3,Win32,144.5086705,,,,,,,,,,,,,,,,,,,,,,,,,,,,,,,,,49,1.7896,1,0,29,29,33,1,7,×,7,7 × 7,neutral,tie,1.5,1.5,49,,,,,,,,
,,,,,,,,,,,,,,,741,2022-01-20_22h46.01.728,multiplicationStroop,2021.2.3,Win32,144.5086705,,,,,,,,,,,,,,,,,,,,,,,,,,,,,,,,,24,2.8389,1,0,30,30,2,1,4,×,6,4 × 6,neutral,smallerFirst,1.5,1.5,24,,,,,,,,
,,,,,,,,,,,,,,,741,2022-01-20_22h46.01.728,multiplicationStroop,2021.2.3,Win32,144.5086705,,,,,,,,,,,,,,,,,,,,,,,,,,,,,,,,,18,1.6866,1,0,31,31,18,1,9,×,2,9 × 2,neutral,largerFirst,1.5,1.5,18,,,,,,,,
,,,,,,,,,,,,,,,741,2022-01-20_22h46.01.728,multiplicationStroop,2021.2.3,Win32,144.5086705,,,,,,,,,,,,,,,,,,,,,,,,,,,,,,,,,20,2.6648,1,0,32,32,20,1,5,×,4,5 × 4,neutral,largerFirst,1.5,1.5,20,,,,,,,,
,,,,,,,,,,,,,,,741,2022-01-20_22h46.01.728,multiplicationStroop,2021.2.3,Win32,144.5086705,,,,,,,,,,,,,,,,,,,,,,,,,,,,,,,,,28,3.1927,1,0,33,33,17,1,7,×,4,7 × 4,neutral,largerFirst,1.5,1.5,28,,,,,,,,
,,,,,,,,,,,,,,,741,2022-01-20_22h46.01.728,multiplicationStroop,2021.2.3,Win32,144.5086705,,,,,,,,,,,,,,,,,,,,,,,,,,,,,,,,,24,2.6809,1,0,34,34,22,1,8,×,3,8 × 3,neutral,largerFirst,1.5,1.5,24,,,,,,,,
,,,,,,,,,,,,,,,741,2022-01-20_22h46.01.728,multiplicationStroop,2021.2.3,Win32,144.5086705,,,,,,,,,,,,,,,,,,,,,,,,,,,,,,,,,9,1.9047,1,0,35,35,29,1,3,×,3,3 × 3,neutral,tie,1.5,1.5,9,,,,,,,,
,,,,,,,,,,,,,,,741,2022-01-20_22h46.01.728,multiplicationStroop,2021.2.3,Win32,144.5086705,,,,,,,,,,,,,,,,,,,,,,,,,,,,,,,,,,,,,,,,,,,,,,,,,,0,4,4,1,1,stimulusFile/mult_blk2.xlsx,,
,,,,,,,,,,,,,,,741,2022-01-20_22h46.01.728,multiplicationStroop,2021.2.3,Win32,144.5086705,,,,,,,,,,,,,,,,,,,,,,,,,,,,,,,space,1.4403,24,1.5617,1,0,0,0,23,1,8,×,3,8 × 3,incongruent,largerFirst,1,2,24,,,,,,,,
,,,,,,,,,,,,,,,741,2022-01-20_22h46.01.728,multiplicationStroop,2021.2.3,Win32,144.5086705,,,,,,,,,,,,,,,,,,,,,,,,,,,,,,,,,6,1.6802,1,0,1,1,25,1,3,×,2,3 × 2,incongruent,largerFirst,1,2,6,,,,,,,,
,,,,,,,,,,,,,,,741,2022-01-20_22h46.01.728,multiplicationStroop,2021.2.3,Win32,144.5086705,,,,,,,,,,,,,,,,,,,,,,,,,,,,,,,,,8,2.387,1,0,2,2,10,1,2,×,4,2 × 4,incongruent,smallerFirst,2,1,8,,,,,,,,
,,,,,,,,,,,,,,,741,2022-01-20_22h46.01.728,multiplicationStroop,2021.2.3,Win32,144.5086705,,,,,,,,,,,,,,,,,,,,,,,,,,,,,,,,,15,2.5202,1,0,3,3,24,1,5,×,3,5 × 3,incongruent,largerFirst,1,2,15,,,,,,,,
,,,,,,,,,,,,,,,741,2022-01-20_22h46.01.728,multiplicationStroop,2021.2.3,Win32,144.5086705,,,,,,,,,,,,,,,,,,,,,,,,,,,,,,,,,20,3.7553,1,0,4,4,13,1,4,×,5,4 × 5,incongruent,smallerFirst,2,1,20,,,,,,,,
,,,,,,,,,,,,,,,741,2022-01-20_22h46.01.728,multiplicationStroop,2021.2.3,Win32,144.5086705,,,,,,,,,,,,,,,,,,,,,,,,,,,,,,,,,16,3.0626,1,0,5,5,9,1,2,×,8,2 × 8,incongruent,smallerFirst,2,1,16,,,,,,,,
,,,,,,,,,,,,,,,741,2022-01-20_22h46.01.728,multiplicationStroop,2021.2.3,Win32,144.5086705,,,,,,,,,,,,,,,,,,,,,,,,,,,,,,,,,18,1.9522,1,0,6,6,16,1,9,×,2,9 × 2,incongruent,largerFirst,1,2,18,,,,,,,,
,,,,,,,,,,,,,,,741,2022-01-20_22h46.01.728,multiplicationStroop,2021.2.3,Win32,144.5086705,,,,,,,,,,,,,,,,,,,,,,,,,,,,,,,,,35,3.0815,1,0,7,7,26,1,7,×,5,7 × 5,incongruent,largerFirst,1,2,35,,,,,,,,
,,,,,,,,,,,,,,,741,2022-01-20_22h46.01.728,multiplicationStroop,2021.2.3,Win32,144.5086705,,,,,,,,,,,,,,,,,,,,,,,,,,,,,,,,,49,2.1184,1,0,8,8,33,1,7,×,7,7 × 7,neutral,tie,2,1,49,,,,,,,,
,,,,,,,,,,,,,,,741,2022-01-20_22h46.01.728,multiplicationStroop,2021.2.3,Win32,144.5086705,,,,,,,,,,,,,,,,,,,,,,,,,,,,,,,,,56,1.8049,1,0,9,9,0,1,7,×,8,7 × 8,incongruent,smallerFirst,2,1,56,,,,,,,,
,,,,,,,,,,,,,,,741,2022-01-20_22h46.01.728,multiplicationStroop,2021.2.3,Win32,144.5086705,,,,,,,,,,,,,,,,,,,,,,,,,,,,,,,,,63,2.1991,1,0,10,10,17,1,9,×,7,9 × 7,incongruent,largerFirst,1,2,63,,,,,,,,
,,,,,,,,,,,,,,,741,2022-01-20_22h46.01.728,multiplicationStroop,2021.2.3,Win32,144.5086705,,,,,,,,,,,,,,,,,,,,,,,,,,,,,,,,,9,1.8464,1,0,11,11,29,1,3,×,3,3 × 3,neutral,tie,2,1,9,,,,,,,,
,,,,,,,,,,,,,,,741,2022-01-20_22h46.01.728,multiplicationStroop,2021.2.3,Win32,144.5086705,,,,,,,,,,,,,,,,,,,,,,,,,,,,,,,,,36,2.7413,1,0,12,12,32,1,6,×,6,6 × 6,neutral,tie,2,1,36,,,,,,,,
,,,,,,,,,,,,,,,741,2022-01-20_22h46.01.728,multiplicationStroop,2021.2.3,Win32,144.5086705,,,,,,,,,,,,,,,,,,,,,,,,,,,,,,,,,10,1.6797,1,0,13,13,7,1,2,×,5,2 × 5,incongruent,smallerFirst,2,1,10,,,,,,,,
,,,,,,,,,,,,,,,741,2022-01-20_22h46.01.728,multiplicationStroop,2021.2.3,Win32,144.5086705,,,,,,,,,,,,,,,,,,,,,,,,,,,,,,,,,30,2.297,1,0,14,14,11,1,5,×,6,5 × 6,incongruent,smallerFirst,2,1,30,,,,,,,,
,,,,,,,,,,,,,,,741,2022-01-20_22h46.01.728,multiplicationStroop,2021.2.3,Win32,144.5086705,,,,,,,,,,,,,,,,,,,,,,,,,,,,,,,,,21,1.5,1,0,15,15,12,1,3,×,7,3 × 7,incongruent,smallerFirst,2,1,21,,,,,,,,
,,,,,,,,,,,,,,,741,2022-01-20_22h46.01.728,multiplicationStroop,2021.2.3,Win32,144.5086705,,,,,,,,,,,,,,,,,,,,,,,,,,,,,,,,,24,1.8523,1,0,16,16,6,1,4,×,6,4 × 6,incongruent,smallerFirst,2,1,24,,,,,,,,
,,,,,,,,,,,,,,,741,2022-01-20_22h46.01.728,multiplicationStroop,2021.2.3,Win32,144.5086705,,,,,,,,,,,,,,,,,,,,,,,,,,,,,,,,,12,1.6183,1,0,17,17,5,1,2,×,6,2 × 6,incongruent,smallerFirst,2,1,12,,,,,,,,
,,,,,,,,,,,,,,,741,2022-01-20_22h46.01.728,multiplicationStroop,2021.2.3,Win32,144.5086705,,,,,,,,,,,,,,,,,,,,,,,,,,,,,,,,,42,2.5599,1,0,18,18,3,1,6,×,7,6 × 7,incongruent,smallerFirst,2,1,42,,,,,,,,
,,,,,,,,,,,,,,,741,2022-01-20_22h46.01.728,multiplicationStroop,2021.2.3,Win32,144.5086705,,,,,,,,,,,,,,,,,,,,,,,,,,,,,,,,,27,2.8952,1,0,19,19,4,1,3,×,9,3 × 9,incongruent,smallerFirst,2,1,27,,,,,,,,
,,,,,,,,,,,,,,,741,2022-01-20_22h46.01.728,multiplicationStroop,2021.2.3,Win32,144.5086705,,,,,,,,,,,,,,,,,,,,,,,,,,,,,,,,,40,2.6677,1,0,20,20,27,1,8,×,5,8 × 5,incongruent,largerFirst,1,2,40,,,,,,,,
,,,,,,,,,,,,,,,741,2022-01-20_22h46.01.728,multiplicationStroop,2021.2.3,Win32,144.5086705,,,,,,,,,,,,,,,,,,,,,,,,,,,,,,,,,28,2.116,1,0,21,21,2,1,4,×,7,4 × 7,incongruent,smallerFirst,2,1,28,,,,,,,,
,,,,,,,,,,,,,,,741,2022-01-20_22h46.01.728,multiplicationStroop,2021.2.3,Win32,144.5086705,,,,,,,,,,,,,,,,,,,,,,,,,,,,,,,,,45,1.8108,1,0,22,22,8,1,5,×,9,5 × 9,incongruent,smallerFirst,2,1,45,,,,,,,,
,,,,,,,,,,,,,,,741,2022-01-20_22h46.01.728,multiplicationStroop,2021.2.3,Win32,144.5086705,,,,,,,,,,,,,,,,,,,,,,,,,,,,,,,,,48,2.6037,1,0,23,23,15,1,8,×,6,8 × 6,incongruent,largerFirst,1,2,48,,,,,,,,
,,,,,,,,,,,,,,,741,2022-01-20_22h46.01.728,multiplicationStroop,2021.2.3,Win32,144.5086705,,,,,,,,,,,,,,,,,,,,,,,,,,,,,,,,,36,2.9774,1,0,24,24,1,1,4,×,9,4 × 9,incongruent,smallerFirst,2,1,36,,,,,,,,
,,,,,,,,,,,,,,,741,2022-01-20_22h46.01.728,multiplicationStroop,2021.2.3,Win32,144.5086705,,,,,,,,,,,,,,,,,,,,,,,,,,,,,,,,,16,2.6329,1,0,25,25,30,1,4,×,4,4 × 4,neutral,tie,2,1,16,,,,,,,,
,,,,,,,,,,,,,,,741,2022-01-20_22h46.01.728,multiplicationStroop,2021.2.3,Win32,144.5086705,,,,,,,,,,,,,,,,,,,,,,,,,,,,,,,,,54,2.1444,1,0,26,26,20,1,9,×,6,9 × 6,incongruent,largerFirst,1,2,54,,,,,,,,
,,,,,,,,,,,,,,,741,2022-01-20_22h46.01.728,multiplicationStroop,2021.2.3,Win32,144.5086705,,,,,,,,,,,,,,,,,,,,,,,,,,,,,,,,,12,1.7827,1,0,27,27,19,1,4,×,3,4 × 3,incongruent,largerFirst,1,2,12,,,,,,,,
,,,,,,,,,,,,,,,741,2022-01-20_22h46.01.728,multiplicationStroop,2021.2.3,Win32,144.5086705,,,,,,,,,,,,,,,,,,,,,,,,,,,,,,,,,18,1.7354,1,0,28,28,22,1,6,×,3,6 × 3,incongruent,largerFirst,1,2,18,,,,,,,,
,,,,,,,,,,,,,,,741,2022-01-20_22h46.01.728,multiplicationStroop,2021.2.3,Win32,144.5086705,,,,,,,,,,,,,,,,,,,,,,,,,,,,,,,,,81,2.3107,1,0,29,29,35,1,9,×,9,9 × 9,neutral,tie,2,1,81,,,,,,,,
,,,,,,,,,,,,,,,741,2022-01-20_22h46.01.728,multiplicationStroop,2021.2.3,Win32,144.5086705,,,,,,,,,,,,,,,,,,,,,,,,,,,,,,,,,72,3.6028,1,0,30,30,14,1,9,×,8,9 × 8,incongruent,largerFirst,1,2,72,,,,,,,,
,,,,,,,,,,,,,,,741,2022-01-20_22h46.01.728,multiplicationStroop,2021.2.3,Win32,144.5086705,,,,,,,,,,,,,,,,,,,,,,,,,,,,,,,,,4,1.2645,1,0,31,31,28,1,2,×,2,2 × 2,neutral,tie,2,1,4,,,,,,,,
,,,,,,,,,,,,,,,741,2022-01-20_22h46.01.728,multiplicationStroop,2021.2.3,Win32,144.5086705,,,,,,,,,,,,,,,,,,,,,,,,,,,,,,,,,32,1.5952,1,0,32,32,21,1,8,×,4,8 × 4,incongruent,largerFirst,1,2,32,,,,,,,,
,,,,,,,,,,,,,,,741,2022-01-20_22h46.01.728,multiplicationStroop,2021.2.3,Win32,144.5086705,,,,,,,,,,,,,,,,,,,,,,,,,,,,,,,,,64,1.638,1,0,33,33,34,1,8,×,8,8 × 8,neutral,tie,2,1,64,,,,,,,,
,,,,,,,,,,,,,,,741,2022-01-20_22h46.01.728,multiplicationStroop,2021.2.3,Win32,144.5086705,,,,,,,,,,,,,,,,,,,,,,,,,,,,,,,,,14,1.9431,1,0,34,34,18,1,7,×,2,7 × 2,incongruent,largerFirst,1,2,14,,,,,,,,
,,,,,,,,,,,,,,,741,2022-01-20_22h46.01.728,multiplicationStroop,2021.2.3,Win32,144.5086705,,,,,,,,,,,,,,,,,,,,,,,,,,,,,,,,,25,2.1524,1,0,35,35,31,1,5,×,5,5 × 5,neutral,tie,2,1,25,,,,,,,,
,,,,,,,,,,,,,,,741,2022-01-20_22h46.01.728,multiplicationStroop,2021.2.3,Win32,144.5086705,,,,,,,,,,,,,,,,,,,,,,,,,,,,,,,,,,,,,,,,,,,,,,,,,,0,5,5,4,1,stimulusFile/mult_blk5_INcongruent.xlsx,,
,,,,,,,,,,,,,,,741,2022-01-20_22h46.01.728,multiplicationStroop,2021.2.3,Win32,144.5086705,,,,,,,,,,,,,,,,,,,,,,,,,,,,,,,,,,,,,,,,,,,,,,,,,,,,,,,,space,9.3035