welcomeKey_resp.keys,welcomeKey_resp.rt,X Scale,Y Scale,rt_resp_4.keys,rt_resp_4.corr,rt_resp_4.rt,speedtest_2.thisRepN,speedtest_2.thisTrialN,speedtest_2.thisN,speedtest_2.thisIndex,speedtest_2.ran,numberSc,posX,positionLayout,participant,date,expName,psychopyVersion,OS,frameRate,ct_instrresp.keys,ct_instrresp.rt,key_resp_2.keys,key_resp_2.rt,ct_keyResp.keys,ct_keyResp.corr,ct_keyResp.rt,trials.thisRepN,trials.thisTrialN,trials.thisN,trials.thisIndex,trials.ran,leftNo,rightNo,displayProblem,numDistance,leftNo_size,rightNo_size,Dims,keyAnswer,TS_Loop.thisRepN,TS_Loop.thisTrialN,TS_Loop.thisN,TS_Loop.thisIndex,TS_Loop.ran,Condition,ActionInst,instrImage,mltptaskInst_resp.keys,mltptaskInst_resp.rt,continue_resp_2.keys,continue_resp_2.rt,multp_Answer,multi_RT,multiplyCorr,LoopingMultiply.thisRepN,LoopingMultiply.thisTrialN,LoopingMultiply.thisN,LoopingMultiply.thisIndex,LoopingMultiply.ran,factor1,multiplySign,factor2,multliplyProblem,physicalSize,orderOperand,sizeF1,sizeF2,mult_answer,trials_stroop.thisRepN,trials_stroop.thisTrialN,trials_stroop.thisN,trials_stroop.thisIndex,trials_stroop.ran,multiplicationFile,esckey_resp_2.keys,esckey_resp_2.rt
y,26.0077,60,40,right,1,0.451,0,0,0,11,1,4,200,right,742,2022-01-20_11h49.43.307,multiplicationStroop,2021.2.3,Win32,60.0132029,,,,,,,,,,,,,,,,,,,,,,,,,,,,,,,,,,,,,,,,,,,,,,,,,,,,,,,,,
,,,,left,1,0.3294,0,1,1,2,1,3,-200,left,742,2022-01-20_11h49.43.307,multiplicationStroop,2021.2.3,Win32,60.0132029,,,,,,,,,,,,,,,,,,,,,,,,,,,,,,,,,,,,,,,,,,,,,,,,,,,,,,,,,
,,,,left,1,0.3295,0,2,2,5,1,7,-200,left,742,2022-01-20_11h49.43.307,multiplicationStroop,2021.2.3,Win32,60.0132029,,,,,,,,,,,,,,,,,,,,,,,,,,,,,,,,,,,,,,,,,,,,,,,,,,,,,,,,,
,,,,left,1,0.3541,0,3,3,6,1,8,-200,left,742,2022-01-20_11h49.43.307,multiplicationStroop,2021.2.3,Win32,60.0132029,,,,,,,,,,,,,,,,,,,,,,,,,,,,,,,,,,,,,,,,,,,,,,,,,,,,,,,,,
,,,,right,1,0.3465,0,4,4,8,1,1,200,right,742,2022-01-20_11h49.43.307,multiplicationStroop,2021.2.3,Win32,60.0132029,,,,,,,,,,,,,,,,,,,,,,,,,,,,,,,,,,,,,,,,,,,,,,,,,,,,,,,,,
,,,,right,1,0.3151,0,5,5,12,1,6,200,right,742,2022-01-20_11h49.43.307,multiplicationStroop,2021.2.3,Win32,60.0132029,,,,,,,,,,,,,,,,,,,,,,,,,,,,,,,,,,,,,,,,,,,,,,,,,,,,,,,,,
,,,,left,1,0.2745,0,6,6,0,1,1,-200,left,742,2022-01-20_11h49.43.307,multiplicationStroop,2021.2.3,Win32,60.0132029,,,,,,,,,,,,,,,,,,,,,,,,,,,,,,,,,,,,,,,,,,,,,,,,,,,,,,,,,
,,,,right,1,0.3145,0,7,7,15,1,9,200,right,742,2022-01-20_11h49.43.307,multiplicationStroop,2021.2.3,Win32,60.0132029,,,,,,,,,,,,,,,,,,,,,,,,,,,,,,,,,,,,,,,,,,,,,,,,,,,,,,,,,
,,,,right,1,0.3311,0,8,8,13,1,7,200,right,742,2022-01-20_11h49.43.307,multiplicationStroop,2021.2.3,Win32,60.0132029,,,,,,,,,,,,,,,,,,,,,,,,,,,,,,,,,,,,,,,,,,,,,,,,,,,,,,,,,
,,,,left,1,0.3055,0,9,9,1,1,2,-200,left,742,2022-01-20_11h49.43.307,multiplicationStroop,2021.2.3,Win32,60.0132029,,,,,,,,,,,,,,,,,,,,,,,,,,,,,,,,,,,,,,,,,,,,,,,,,,,,,,,,,
,,,,left,1,0.3077,0,10,10,3,1,4,-200,left,742,2022-01-20_11h49.43.307,multiplicationStroop,2021.2.3,Win32,60.0132029,,,,,,,,,,,,,,,,,,,,,,,,,,,,,,,,,,,,,,,,,,,,,,,,,,,,,,,,,
,,,,right,1,0.308,0,11,11,10,1,3,200,right,742,2022-01-20_11h49.43.307,multiplicationStroop,2021.2.3,Win32,60.0132029,,,,,,,,,,,,,,,,,,,,,,,,,,,,,,,,,,,,,,,,,,,,,,,,,,,,,,,,,
,,,,right,1,0.3237,0,12,12,9,1,2,200,right,742,2022-01-20_11h49.43.307,multiplicationStroop,2021.2.3,Win32,60.0132029,,,,,,,,,,,,,,,,,,,,,,,,,,,,,,,,,,,,,,,,,,,,,,,,,,,,,,,,,
,,,,left,1,0.3556,0,13,13,4,1,6,-200,left,742,2022-01-20_11h49.43.307,multiplicationStroop,2021.2.3,Win32,60.0132029,,,,,,,,,,,,,,,,,,,,,,,,,,,,,,,,,,,,,,,,,,,,,,,,,,,,,,,,,
,,,,right,1,0.3812,0,14,14,14,1,8,200,right,742,2022-01-20_11h49.43.307,multiplicationStroop,2021.2.3,Win32,60.0132029,,,,,,,,,,,,,,,,,,,,,,,,,,,,,,,,,,,,,,,,,,,,,,,,,,,,,,,,,
,,,,left,1,0.3884,0,15,15,7,1,9,-200,left,742,2022-01-20_11h49.43.307,multiplicationStroop,2021.2.3,Win32,60.0132029,,,,,,,,,,,,,,,,,,,,,,,,,,,,,,,,,,,,,,,,,,,,,,,,,,,,,,,,,
,,,,left,1,0.3394,1,0,16,5,1,7,-200,left,742,2022-01-20_11h49.43.307,multiplicationStroop,2021.2.3,Win32,60.0132029,,,,,,,,,,,,,,,,,,,,,,,,,,,,,,,,,,,,,,,,,,,,,,,,,,,,,,,,,
,,,,left,1,0.3167,1,1,17,2,1,3,-200,left,742,2022-01-20_11h49.43.307,multiplicationStroop,2021.2.3,Win32,60.0132029,,,,,,,,,,,,,,,,,,,,,,,,,,,,,,,,,,,,,,,,,,,,,,,,,,,,,,,,,
,,,,right,1,0.3236,1,2,18,12,1,6,200,right,742,2022-01-20_11h49.43.307,multiplicationStroop,2021.2.3,Win32,60.0132029,,,,,,,,,,,,,,,,,,,,,,,,,,,,,,,,,,,,,,,,,,,,,,,,,,,,,,,,,
,,,,right,1,0.3222,1,3,19,9,1,2,200,right,742,2022-01-20_11h49.43.307,multiplicationStroop,2021.2.3,Win32,60.0132029,,,,,,,,,,,,,,,,,,,,,,,,,,,,,,,,,,,,,,,,,,,,,,,,,,,,,,,,,
,,,,left,1,0.3087,1,4,20,4,1,6,-200,left,742,2022-01-20_11h49.43.307,multiplicationStroop,2021.2.3,Win32,60.0132029,,,,,,,,,,,,,,,,,,,,,,,,,,,,,,,,,,,,,,,,,,,,,,,,,,,,,,,,,
,,,,left,1,0.3501,1,5,21,3,1,4,-200,left,742,2022-01-20_11h49.43.307,multiplicationStroop,2021.2.3,Win32,60.0132029,,,,,,,,,,,,,,,,,,,,,,,,,,,,,,,,,,,,,,,,,,,,,,,,,,,,,,,,,
,,,,right,1,0.3082,1,6,22,13,1,7,200,right,742,2022-01-20_11h49.43.307,multiplicationStroop,2021.2.3,Win32,60.0132029,,,,,,,,,,,,,,,,,,,,,,,,,,,,,,,,,,,,,,,,,,,,,,,,,,,,,,,,,
,,,,left,1,0.3003,1,7,23,6,1,8,-200,left,742,2022-01-20_11h49.43.307,multiplicationStroop,2021.2.3,Win32,60.0132029,,,,,,,,,,,,,,,,,,,,,,,,,,,,,,,,,,,,,,,,,,,,,,,,,,,,,,,,,
,,,,right,1,0.2785,1,8,24,11,1,4,200,right,742,2022-01-20_11h49.43.307,multiplicationStroop,2021.2.3,Win32,60.0132029,,,,,,,,,,,,,,,,,,,,,,,,,,,,,,,,,,,,,,,,,,,,,,,,,,,,,,,,,
,,,,right,1,0.3486,1,9,25,10,1,3,200,right,742,2022-01-20_11h49.43.307,multiplicationStroop,2021.2.3,Win32,60.0132029,,,,,,,,,,,,,,,,,,,,,,,,,,,,,,,,,,,,,,,,,,,,,,,,,,,,,,,,,
,,,,left,1,0.3329,1,10,26,0,1,1,-200,left,742,2022-01-20_11h49.43.307,multiplicationStroop,2021.2.3,Win32,60.0132029,,,,,,,,,,,,,,,,,,,,,,,,,,,,,,,,,,,,,,,,,,,,,,,,,,,,,,,,,
,,,,right,1,0.3332,1,11,27,15,1,9,200,right,742,2022-01-20_11h49.43.307,multiplicationStroop,2021.2.3,Win32,60.0132029,,,,,,,,,,,,,,,,,,,,,,,,,,,,,,,,,,,,,,,,,,,,,,,,,,,,,,,,,
,,,,left,1,0.3388,1,12,28,1,1,2,-200,left,742,2022-01-20_11h49.43.307,multiplicationStroop,2021.2.3,Win32,60.0132029,,,,,,,,,,,,,,,,,,,,,,,,,,,,,,,,,,,,,,,,,,,,,,,,,,,,,,,,,
,,,,right,1,0.2918,1,13,29,8,1,1,200,right,742,2022-01-20_11h49.43.307,multiplicationStroop,2021.2.3,Win32,60.0132029,,,,,,,,,,,,,,,,,,,,,,,,,,,,,,,,,,,,,,,,,,,,,,,,,,,,,,,,,
,,,,right,1,0.3166,1,14,30,14,1,8,200,right,742,2022-01-20_11h49.43.307,multiplicationStroop,2021.2.3,Win32,60.0132029,,,,,,,,,,,,,,,,,,,,,,,,,,,,,,,,,,,,,,,,,,,,,,,,,,,,,,,,,
,,,,left,1,0.3084,1,15,31,7,1,9,-200,left,742,2022-01-20_11h49.43.307,multiplicationStroop,2021.2.3,Win32,60.0132029,,,,,,,,,,,,,,,,,,,,,,,,,,,,,,,,,,,,,,,,,,,,,,,,,,,,,,,,,
,,,,right,1,0.3244,2,0,32,9,1,2,200,right,742,2022-01-20_11h49.43.307,multiplicationStroop,2021.2.3,Win32,60.0132029,,,,,,,,,,,,,,,,,,,,,,,,,,,,,,,,,,,,,,,,,,,,,,,,,,,,,,,,,
,,,,right,1,0.3161,2,1,33,15,1,9,200,right,742,2022-01-20_11h49.43.307,multiplicationStroop,2021.2.3,Win32,60.0132029,,,,,,,,,,,,,,,,,,,,,,,,,,,,,,,,,,,,,,,,,,,,,,,,,,,,,,,,,
,,,,left,1,0.3344,2,2,34,7,1,9,-200,left,742,2022-01-20_11h49.43.307,multiplicationStroop,2021.2.3,Win32,60.0132029,,,,,,,,,,,,,,,,,,,,,,,,,,,,,,,,,,,,,,,,,,,,,,,,,,,,,,,,,
,,,,left,1,0.3274,2,3,35,4,1,6,-200,left,742,2022-01-20_11h49.43.307,multiplicationStroop,2021.2.3,Win32,60.0132029,,,,,,,,,,,,,,,,,,,,,,,,,,,,,,,,,,,,,,,,,,,,,,,,,,,,,,,,,
,,,,left,1,0.3091,2,4,36,2,1,3,-200,left,742,2022-01-20_11h49.43.307,multiplicationStroop,2021.2.3,Win32,60.0132029,,,,,,,,,,,,,,,,,,,,,,,,,,,,,,,,,,,,,,,,,,,,,,,,,,,,,,,,,
,,,,left,1,0.3311,2,5,37,5,1,7,-200,left,742,2022-01-20_11h49.43.307,multiplicationStroop,2021.2.3,Win32,60.0132029,,,,,,,,,,,,,,,,,,,,,,,,,,,,,,,,,,,,,,,,,,,,,,,,,,,,,,,,,
,,,,left,1,0.291,2,6,38,6,1,8,-200,left,742,2022-01-20_11h49.43.307,multiplicationStroop,2021.2.3,Win32,60.0132029,,,,,,,,,,,,,,,,,,,,,,,,,,,,,,,,,,,,,,,,,,,,,,,,,,,,,,,,,
,,,,left,1,0.3154,2,7,39,0,1,1,-200,left,742,2022-01-20_11h49.43.307,multiplicationStroop,2021.2.3,Win32,60.0132029,,,,,,,,,,,,,,,,,,,,,,,,,,,,,,,,,,,,,,,,,,,,,,,,,,,,,,,,,
,,,,right,1,0.34,2,8,40,11,1,4,200,right,742,2022-01-20_11h49.43.307,multiplicationStroop,2021.2.3,Win32,60.0132029,,,,,,,,,,,,,,,,,,,,,,,,,,,,,,,,,,,,,,,,,,,,,,,,,,,,,,,,,
,,,,right,1,0.3151,2,9,41,8,1,1,200,right,742,2022-01-20_11h49.43.307,multiplicationStroop,2021.2.3,Win32,60.0132029,,,,,,,,,,,,,,,,,,,,,,,,,,,,,,,,,,,,,,,,,,,,,,,,,,,,,,,,,
,,,,left,1,0.3559,2,10,42,3,1,4,-200,left,742,2022-01-20_11h49.43.307,multiplicationStroop,2021.2.3,Win32,60.0132029,,,,,,,,,,,,,,,,,,,,,,,,,,,,,,,,,,,,,,,,,,,,,,,,,,,,,,,,,
,,,,right,1,0.3155,2,11,43,13,1,7,200,right,742,2022-01-20_11h49.43.307,multiplicationStroop,2021.2.3,Win32,60.0132029,,,,,,,,,,,,,,,,,,,,,,,,,,,,,,,,,,,,,,,,,,,,,,,,,,,,,,,,,
,,,,left,1,0.2993,2,12,44,1,1,2,-200,left,742,2022-01-20_11h49.43.307,multiplicationStroop,2021.2.3,Win32,60.0132029,,,,,,,,,,,,,,,,,,,,,,,,,,,,,,,,,,,,,,,,,,,,,,,,,,,,,,,,,
,,,,right,1,0.2994,2,13,45,14,1,8,200,right,742,2022-01-20_11h49.43.307,multiplicationStroop,2021.2.3,Win32,60.0132029,,,,,,,,,,,,,,,,,,,,,,,,,,,,,,,,,,,,,,,,,,,,,,,,,,,,,,,,,
,,,,right,1,0.3159,2,14,46,12,1,6,200,right,742,2022-01-20_11h49.43.307,multiplicationStroop,2021.2.3,Win32,60.0132029,,,,,,,,,,,,,,,,,,,,,,,,,,,,,,,,,,,,,,,,,,,,,,,,,,,,,,,,,
,,,,right,1,0.3225,2,15,47,10,1,3,200,right,742,2022-01-20_11h49.43.307,multiplicationStroop,2021.2.3,Win32,60.0132029,,,,,,,,,,,,,,,,,,,,,,,,,,,,,,,,,,,,,,,,,,,,,,,,,,,,,,,,,
,,,,left,1,0.5714,3,0,48,1,1,2,-200,left,742,2022-01-20_11h49.43.307,multiplicationStroop,2021.2.3,Win32,60.0132029,,,,,,,,,,,,,,,,,,,,,,,,,,,,,,,,,,,,,,,,,,,,,,,,,,,,,,,,,
,,,,right,1,0.3406,3,1,49,12,1,6,200,right,742,2022-01-20_11h49.43.307,multiplicationStroop,2021.2.3,Win32,60.0132029,,,,,,,,,,,,,,,,,,,,,,,,,,,,,,,,,,,,,,,,,,,,,,,,,,,,,,,,,
,,,,left,1,0.316,3,2,50,3,1,4,-200,left,742,2022-01-20_11h49.43.307,multiplicationStroop,2021.2.3,Win32,60.0132029,,,,,,,,,,,,,,,,,,,,,,,,,,,,,,,,,,,,,,,,,,,,,,,,,,,,,,,,,
,,,,right,1,0.3331,3,3,51,13,1,7,200,right,742,2022-01-20_11h49.43.307,multiplicationStroop,2021.2.3,Win32,60.0132029,,,,,,,,,,,,,,,,,,,,,,,,,,,,,,,,,,,,,,,,,,,,,,,,,,,,,,,,,
,,,,right,1,0.3476,3,4,52,8,1,1,200,right,742,2022-01-20_11h49.43.307,multiplicationStroop,2021.2.3,Win32,60.0132029,,,,,,,,,,,,,,,,,,,,,,,,,,,,,,,,,,,,,,,,,,,,,,,,,,,,,,,,,
,,,,left,1,0.2845,3,5,53,6,1,8,-200,left,742,2022-01-20_11h49.43.307,multiplicationStroop,2021.2.3,Win32,60.0132029,,,,,,,,,,,,,,,,,,,,,,,,,,,,,,,,,,,,,,,,,,,,,,,,,,,,,,,,,
,,,,left,1,0.3398,3,6,54,5,1,7,-200,left,742,2022-01-20_11h49.43.307,multiplicationStroop,2021.2.3,Win32,60.0132029,,,,,,,,,,,,,,,,,,,,,,,,,,,,,,,,,,,,,,,,,,,,,,,,,,,,,,,,,
,,,,right,1,0.3176,3,7,55,14,1,8,200,right,742,2022-01-20_11h49.43.307,multiplicationStroop,2021.2.3,Win32,60.0132029,,,,,,,,,,,,,,,,,,,,,,,,,,,,,,,,,,,,,,,,,,,,,,,,,,,,,,,,,
,,,,left,1,0.3178,3,8,56,0,1,1,-200,left,742,2022-01-20_11h49.43.307,multiplicationStroop,2021.2.3,Win32,60.0132029,,,,,,,,,,,,,,,,,,,,,,,,,,,,,,,,,,,,,,,,,,,,,,,,,,,,,,,,,
,,,,right,1,0.3019,3,9,57,15,1,9,200,right,742,2022-01-20_11h49.43.307,multiplicationStroop,2021.2.3,Win32,60.0132029,,,,,,,,,,,,,,,,,,,,,,,,,,,,,,,,,,,,,,,,,,,,,,,,,,,,,,,,,
,,,,left,1,0.3017,3,10,58,7,1,9,-200,left,742,2022-01-20_11h49.43.307,multiplicationStroop,2021.2.3,Win32,60.0132029,,,,,,,,,,,,,,,,,,,,,,,,,,,,,,,,,,,,,,,,,,,,,,,,,,,,,,,,,
,,,,right,1,0.3098,3,11,59,10,1,3,200,right,742,2022-01-20_11h49.43.307,multiplicationStroop,2021.2.3,Win32,60.0132029,,,,,,,,,,,,,,,,,,,,,,,,,,,,,,,,,,,,,,,,,,,,,,,,,,,,,,,,,
,,,,left,1,0.2782,3,12,60,4,1,6,-200,left,742,2022-01-20_11h49.43.307,multiplicationStroop,2021.2.3,Win32,60.0132029,,,,,,,,,,,,,,,,,,,,,,,,,,,,,,,,,,,,,,,,,,,,,,,,,,,,,,,,,
,,,,right,1,0.3177,3,13,61,9,1,2,200,right,742,2022-01-20_11h49.43.307,multiplicationStroop,2021.2.3,Win32,60.0132029,,,,,,,,,,,,,,,,,,,,,,,,,,,,,,,,,,,,,,,,,,,,,,,,,,,,,,,,,
,,,,right,1,0.3087,3,14,62,11,1,4,200,right,742,2022-01-20_11h49.43.307,multiplicationStroop,2021.2.3,Win32,60.0132029,,,,,,,,,,,,,,,,,,,,,,,,,,,,,,,,,,,,,,,,,,,,,,,,,,,,,,,,,
,,,,left,1,0.3089,3,15,63,2,1,3,-200,left,742,2022-01-20_11h49.43.307,multiplicationStroop,2021.2.3,Win32,60.0132029,,,,,,,,,,,,,,,,,,,,,,,,,,,,,,,,,,,,,,,,,,,,,,,,,,,,,,,,,
,,,,,,,,,,,,,,,742,2022-01-20_11h49.43.307,multiplicationStroop,2021.2.3,Win32,60.0132029,space,20.4096,space,12.8666,left,1,0.576,0,0,0,21,1,7,2,7 | 2,5,1.9756,1.4111,congruent,left,,,,,,stimulusFile/physical.xlsx,,,,,,,,,,,,,,,,,,,,,,,,,,,,,,,
,,,,,,,,,,,,,,,742,2022-01-20_11h49.43.307,multiplicationStroop,2021.2.3,Win32,60.0132029,,,,,right,1,0.4493,0,1,1,18,1,3,8,3 | 8,5,1.4111,1.9756,congruent,right,,,,,,stimulusFile/physical.xlsx,,,,,,,,,,,,,,,,,,,,,,,,,,,,,,,
,,,,,,,,,,,,,,,742,2022-01-20_11h49.43.307,multiplicationStroop,2021.2.3,Win32,60.0132029,,,,,right,1,0.4291,0,2,2,65,1,2,2,2 | 2,0,1.4111,1.9756,neutral,right,,,,,,stimulusFile/physical.xlsx,,,,,,,,,,,,,,,,,,,,,,,,,,,,,,,
,,,,,,,,,,,,,,,742,2022-01-20_11h49.43.307,multiplicationStroop,2021.2.3,Win32,60.0132029,,,,,left,1,0.5069,0,3,3,6,1,7,6,7 | 6,1,1.9756,1.4111,congruent,left,,,,,,stimulusFile/physical.xlsx,,,,,,,,,,,,,,,,,,,,,,,,,,,,,,,
,,,,,,,,,,,,,,,742,2022-01-20_11h49.43.307,multiplicationStroop,2021.2.3,Win32,60.0132029,,,,,left,0,0.536,0,4,4,64,1,1,1,1 | 1,0,1.9756,1.4111,neutral,right,,,,,,stimulusFile/physical.xlsx,,,,,,,,,,,,,,,,,,,,,,,,,,,,,,,
,,,,,,,,,,,,,,,742,2022-01-20_11h49.43.307,multiplicationStroop,2021.2.3,Win32,60.0132029,,,,,left,1,0.7507,0,5,5,25,1,3,4,3 | 4,1,1.9756,1.4111,incongruent,left,,,,,,stimulusFile/physical.xlsx,,,,,,,,,,,,,,,,,,,,,,,,,,,,,,,
,,,,,,,,,,,,,,,742,2022-01-20_11h49.43.307,multiplicationStroop,2021.2.3,Win32,60.0132029,,,,,right,1,0.4597,0,6,6,61,1,4,4,4 | 4,0,1.4111,1.9756,neutral,right,,,,,,stimulusFile/physical.xlsx,,,,,,,,,,,,,,,,,,,,,,,,,,,,,,,
,,,,,,,,,,,,,,,742,2022-01-20_11h49.43.307,multiplicationStroop,2021.2.3,Win32,60.0132029,,,,,left,1,0.3955,0,7,7,52,1,2,2,2 | 2,0,1.9756,1.4111,neutral,left,,,,,,stimulusFile/physical.xlsx,,,,,,,,,,,,,,,,,,,,,,,,,,,,,,,
,,,,,,,,,,,,,,,742,2022-01-20_11h49.43.307,multiplicationStroop,2021.2.3,Win32,60.0132029,,,,,left,1,0.5412,0,8,8,33,1,2,4,2 | 4,2,1.9756,1.4111,incongruent,left,,,,,,stimulusFile/physical.xlsx,,,,,,,,,,,,,,,,,,,,,,,,,,,,,,,
,,,,,,,,,,,,,,,742,2022-01-20_11h49.43.307,multiplicationStroop,2021.2.3,Win32,60.0132029,,,,,left,1,0.5218,0,9,9,13,1,4,2,4 | 2,2,1.9756,1.4111,congruent,left,,,,,,stimulusFile/physical.xlsx,,,,,,,,,,,,,,,,,,,,,,,,,,,,,,,
,,,,,,,,,,,,,,,742,2022-01-20_11h49.43.307,multiplicationStroop,2021.2.3,Win32,60.0132029,,,,,left,1,0.5095,0,10,10,49,1,3,3,3 | 3,0,1.9756,1.4111,neutral,left,,,,,,stimulusFile/physical.xlsx,,,,,,,,,,,,,,,,,,,,,,,,,,,,,,,
,,,,,,,,,,,,,,,742,2022-01-20_11h49.43.307,multiplicationStroop,2021.2.3,Win32,60.0132029,,,,,right,1,0.4828,0,11,11,58,1,6,6,6 | 6,0,1.4111,1.9756,neutral,right,,,,,,stimulusFile/physical.xlsx,,,,,,,,,,,,,,,,,,,,,,,,,,,,,,,
,,,,,,,,,,,,,,,742,2022-01-20_11h49.43.307,multiplicationStroop,2021.2.3,Win32,60.0132029,,,,,left,1,0.4509,0,12,12,55,1,9,9,9 | 9,0,1.9756,1.4111,neutral,left,,,,,,stimulusFile/physical.xlsx,,,,,,,,,,,,,,,,,,,,,,,,,,,,,,,
,,,,,,,,,,,,,,,742,2022-01-20_11h49.43.307,multiplicationStroop,2021.2.3,Win32,60.0132029,,,,,right,1,0.5075,0,13,13,67,1,4,4,4 | 4,0,1.4111,1.9756,neutral,right,,,,,,stimulusFile/physical.xlsx,,,,,,,,,,,,,,,,,,,,,,,,,,,,,,,
,,,,,,,,,,,,,,,742,2022-01-20_11h49.43.307,multiplicationStroop,2021.2.3,Win32,60.0132029,,,,,left,1,0.4195,0,14,14,4,1,2,1,2 | 1,1,1.9756,1.4111,congruent,left,,,,,,stimulusFile/physical.xlsx,,,,,,,,,,,,,,,,,,,,,,,,,,,,,,,
,,,,,,,,,,,,,,,742,2022-01-20_11h49.43.307,multiplicationStroop,2021.2.3,Win32,60.0132029,,,,,right,1,0.4133,0,15,15,8,1,1,3,1 | 3,2,1.4111,1.9756,congruent,right,,,,,,stimulusFile/physical.xlsx,,,,,,,,,,,,,,,,,,,,,,,,,,,,,,,
,,,,,,,,,,,,,,,742,2022-01-20_11h49.43.307,multiplicationStroop,2021.2.3,Win32,60.0132029,,,,,right,1,0.5155,0,16,16,44,1,6,1,6 | 1,5,1.4111,1.9756,incongruent,right,,,,,,stimulusFile/physical.xlsx,,,,,,,,,,,,,,,,,,,,,,,,,,,,,,,
,,,,,,,,,,,,,,,742,2022-01-20_11h49.43.307,multiplicationStroop,2021.2.3,Win32,60.0132029,,,,,right,1,0.4221,0,17,17,2,1,6,7,6 | 7,1,1.4111,1.9756,congruent,right,,,,,,stimulusFile/physical.xlsx,,,,,,,,,,,,,,,,,,,,,,,,,,,,,,,
,,,,,,,,,,,,,,,742,2022-01-20_11h49.43.307,multiplicationStroop,2021.2.3,Win32,60.0132029,,,,,right,0,0.4543,0,18,18,69,1,7,7,7 | 7,0,1.4111,1.9756,neutral,left,,,,,,stimulusFile/physical.xlsx,,,,,,,,,,,,,,,,,,,,,,,,,,,,,,,
,,,,,,,,,,,,,,,742,2022-01-20_11h49.43.307,multiplicationStroop,2021.2.3,Win32,60.0132029,,,,,right,1,0.536,0,19,19,59,1,7,7,7 | 7,0,1.4111,1.9756,neutral,right,,,,,,stimulusFile/physical.xlsx,,,,,,,,,,,,,,,,,,,,,,,,,,,,,,,
,,,,,,,,,,,,,,,742,2022-01-20_11h49.43.307,multiplicationStroop,2021.2.3,Win32,60.0132029,,,,,right,0,0.4847,0,20,20,71,1,9,9,9 | 9,0,1.4111,1.9756,neutral,left,,,,,,stimulusFile/physical.xlsx,,,,,,,,,,,,,,,,,,,,,,,,,,,,,,,
,,,,,,,,,,,,,,,742,2022-01-20_11h49.43.307,multiplicationStroop,2021.2.3,Win32,60.0132029,,,,,left,1,0.493,0,21,21,35,1,7,9,7 | 9,2,1.9756,1.4111,incongruent,left,,,,,,stimulusFile/physical.xlsx,,,,,,,,,,,,,,,,,,,,,,,,,,,,,,,
,,,,,,,,,,,,,,,742,2022-01-20_11h49.43.307,multiplicationStroop,2021.2.3,Win32,60.0132029,,,,,left,1,0.4442,0,22,22,51,1,8,8,8 | 8,0,1.9756,1.4111,neutral,left,,,,,,stimulusFile/physical.xlsx,,,,,,,,,,,,,,,,,,,,,,,,,,,,,,,
,,,,,,,,,,,,,,,742,2022-01-20_11h49.43.307,multiplicationStroop,2021.2.3,Win32,60.0132029,,,,,right,1,0.4601,0,23,23,46,1,8,3,8 | 3,5,1.4111,1.9756,incongruent,right,,,,,,stimulusFile/physical.xlsx,,,,,,,,,,,,,,,,,,,,,,,,,,,,,,,
,,,,,,,,,,,,,,,742,2022-01-20_11h49.43.307,multiplicationStroop,2021.2.3,Win32,60.0132029,,,,,left,1,0.4464,0,24,24,50,1,6,6,6 | 6,0,1.9756,1.4111,neutral,left,,,,,,stimulusFile/physical.xlsx,,,,,,,,,,,,,,,,,,,,,,,,,,,,,,,
,,,,,,,,,,,,,,,742,2022-01-20_11h49.43.307,multiplicationStroop,2021.2.3,Win32,60.0132029,,,,,left,1,0.4455,0,25,25,7,1,9,8,9 | 8,1,1.9756,1.4111,congruent,left,,,,,,stimulusFile/physical.xlsx,,,,,,,,,,,,,,,,,,,,,,,,,,,,,,,
,,,,,,,,,,,,,,,742,2022-01-20_11h49.43.307,multiplicationStroop,2021.2.3,Win32,60.0132029,,,,,right,1,0.4524,0,26,26,17,1,2,7,2 | 7,5,1.4111,1.9756,congruent,right,,,,,,stimulusFile/physical.xlsx,,,,,,,,,,,,,,,,,,,,,,,,,,,,,,,
,,,,,,,,,,,,,,,742,2022-01-20_11h49.43.307,multiplicationStroop,2021.2.3,Win32,60.0132029,,,,,right,1,0.4537,0,27,27,37,1,4,2,4 | 2,2,1.4111,1.9756,incongruent,right,,,,,,stimulusFile/physical.xlsx,,,,,,,,,,,,,,,,,,,,,,,,,,,,,,,
,,,,,,,,,,,,,,,742,2022-01-20_11h49.43.307,multiplicationStroop,2021.2.3,Win32,60.0132029,,,,,right,1,0.4688,0,28,28,1,1,3,4,3 | 4,1,1.4111,1.9756,congruent,right,,,,,,stimulusFile/physical.xlsx,,,,,,,,,,,,,,,,,,,,,,,,,,,,,,,
,,,,,,,,,,,,,,,742,2022-01-20_11h49.43.307,multiplicationStroop,2021.2.3,Win32,60.0132029,,,,,left,1,0.4939,0,29,29,68,1,6,6,6 | 6,0,1.9756,1.4111,neutral,left,,,,,,stimulusFile/physical.xlsx,,,,,,,,,,,,,,,,,,,,,,,,,,,,,,,
,,,,,,,,,,,,,,,742,2022-01-20_11h49.43.307,multiplicationStroop,2021.2.3,Win32,60.0132029,,,,,left,1,0.4409,0,30,30,53,1,4,4,4 | 4,0,1.9756,1.4111,neutral,left,,,,,,stimulusFile/physical.xlsx,,,,,,,,,,,,,,,,,,,,,,,,,,,,,,,
,,,,,,,,,,,,,,,742,2022-01-20_11h49.43.307,multiplicationStroop,2021.2.3,Win32,60.0132029,,,,,right,1,0.556,0,31,31,36,1,3,1,3 | 1,2,1.4111,1.9756,incongruent,right,,,,,,stimulusFile/physical.xlsx,,,,,,,,,,,,,,,,,,,,,,,,,,,,,,,
,,,,,,,,,,,,,,,742,2022-01-20_11h49.43.307,multiplicationStroop,2021.2.3,Win32,60.0132029,,,,,left,1,0.4572,0,32,32,34,1,6,8,6 | 8,2,1.9756,1.4111,incongruent,left,,,,,,stimulusFile/physical.xlsx,,,,,,,,,,,,,,,,,,,,,,,,,,,,,,,
,,,,,,,,,,,,,,,742,2022-01-20_11h49.43.307,multiplicationStroop,2021.2.3,Win32,60.0132029,,,,,right,1,0.5442,0,33,33,3,1,8,9,8 | 9,1,1.4111,1.9756,congruent,right,,,,,,stimulusFile/physical.xlsx,,,,,,,,,,,,,,,,,,,,,,,,,,,,,,,
,,,,,,,,,,,,,,,742,2022-01-20_11h49.43.307,multiplicationStroop,2021.2.3,Win32,60.0132029,,,,,left,1,0.4529,0,34,34,23,1,9,4,9 | 4,5,1.9756,1.4111,congruent,left,,,,,,stimulusFile/physical.xlsx,,,,,,,,,,,,,,,,,,,,,,,,,,,,,,,
,,,,,,,,,,,,,,,742,2022-01-20_11h49.43.307,multiplicationStroop,2021.2.3,Win32,60.0132029,,,,,left,1,0.4138,0,35,35,22,1,8,3,8 | 3,5,1.9756,1.4111,congruent,left,,,,,,stimulusFile/physical.xlsx,,,,,,,,,,,,,,,,,,,,,,,,,,,,,,,
,,,,,,,,,,,,,,,742,2022-01-20_11h49.43.307,multiplicationStroop,2021.2.3,Win32,60.0132029,,,,,right,1,0.4215,0,36,36,9,1,2,4,2 | 4,2,1.4111,1.9756,congruent,right,,,,,,stimulusFile/physical.xlsx,,,,,,,,,,,,,,,,,,,,,,,,,,,,,,,
,,,,,,,,,,,,,,,742,2022-01-20_11h49.43.307,multiplicationStroop,2021.2.3,Win32,60.0132029,,,,,right,1,0.4091,0,37,37,16,1,1,6,1 | 6,5,1.4111,1.9756,congruent,right,,,,,,stimulusFile/physical.xlsx,,,,,,,,,,,,,,,,,,,,,,,,,,,,,,,
,,,,,,,,,,,,,,,742,2022-01-20_11h49.43.307,multiplicationStroop,2021.2.3,Win32,60.0132029,,,,,left,1,0.3966,0,38,38,15,1,9,7,9 | 7,2,1.9756,1.4111,congruent,left,,,,,,stimulusFile/physical.xlsx,,,,,,,,,,,,,,,,,,,,,,,,,,,,,,,
,,,,,,,,,,,,,,,742,2022-01-20_11h49.43.307,multiplicationStroop,2021.2.3,Win32,60.0132029,,,,,right,1,0.3814,0,39,39,19,1,4,9,4 | 9,5,1.4111,1.9756,congruent,right,,,,,,stimulusFile/physical.xlsx,,,,,,,,,,,,,,,,,,,,,,,,,,,,,,,
,,,,,,,,,,,,,,,742,2022-01-20_11h49.43.307,multiplicationStroop,2021.2.3,Win32,60.0132029,,,,,right,1,0.3939,0,40,40,38,1,8,6,8 | 6,2,1.4111,1.9756,incongruent,right,,,,,,stimulusFile/physical.xlsx,,,,,,,,,,,,,,,,,,,,,,,,,,,,,,,
,,,,,,,,,,,,,,,742,2022-01-20_11h49.43.307,multiplicationStroop,2021.2.3,Win32,60.0132029,,,,,right,1,0.4253,0,41,41,63,1,9,9,9 | 9,0,1.4111,1.9756,neutral,right,,,,,,stimulusFile/physical.xlsx,,,,,,,,,,,,,,,,,,,,,,,,,,,,,,,
,,,,,,,,,,,,,,,742,2022-01-20_11h49.43.307,multiplicationStroop,2021.2.3,Win32,60.0132029,,,,,left,1,0.3964,0,42,42,26,1,6,7,6 | 7,1,1.9756,1.4111,incongruent,left,,,,,,stimulusFile/physical.xlsx,,,,,,,,,,,,,,,,,,,,,,,,,,,,,,,
,,,,,,,,,,,,,,,742,2022-01-20_11h49.43.307,multiplicationStroop,2021.2.3,Win32,60.0132029,,,,,right,1,0.4132,0,43,43,31,1,9,8,9 | 8,1,1.4111,1.9756,incongruent,right,,,,,,stimulusFile/physical.xlsx,,,,,,,,,,,,,,,,,,,,,,,,,,,,,,,
,,,,,,,,,,,,,,,742,2022-01-20_11h49.43.307,multiplicationStroop,2021.2.3,Win32,60.0132029,,,,,left,1,0.3985,0,44,44,70,1,8,8,8 | 8,0,1.9756,1.4111,neutral,left,,,,,,stimulusFile/physical.xlsx,,,,,,,,,,,,,,,,,,,,,,,,,,,,,,,
,,,,,,,,,,,,,,,742,2022-01-20_11h49.43.307,multiplicationStroop,2021.2.3,Win32,60.0132029,,,,,right,1,0.3965,0,45,45,56,1,1,1,1 | 1,0,1.4111,1.9756,neutral,right,,,,,,stimulusFile/physical.xlsx,,,,,,,,,,,,,,,,,,,,,,,,,,,,,,,
,,,,,,,,,,,,,,,742,2022-01-20_11h49.43.307,multiplicationStroop,2021.2.3,Win32,60.0132029,,,,,left,1,0.3665,0,46,46,14,1,8,6,8 | 6,2,1.9756,1.4111,congruent,left,,,,,,stimulusFile/physical.xlsx,,,,,,,,,,,,,,,,,,,,,,,,,,,,,,,
,,,,,,,,,,,,,,,742,2022-01-20_11h49.43.307,multiplicationStroop,2021.2.3,Win32,60.0132029,,,,,left,1,0.4138,0,47,47,12,1,3,1,3 | 1,2,1.9756,1.4111,congruent,left,,,,,,stimulusFile/physical.xlsx,,,,,,,,,,,,,,,,,,,,,,,,,,,,,,,
,,,,,,,,,,,,,,,742,2022-01-20_11h49.43.307,multiplicationStroop,2021.2.3,Win32,60.0132029,,,,,right,0,0.4547,0,48,48,27,1,8,9,8 | 9,1,1.9756,1.4111,incongruent,left,,,,,,stimulusFile/physical.xlsx,,,,,,,,,,,,,,,,,,,,,,,,,,,,,,,
,,,,,,,,,,,,,,,742,2022-01-20_11h49.43.307,multiplicationStroop,2021.2.3,Win32,60.0132029,,,,,left,1,0.5198,0,49,49,5,1,4,3,4 | 3,1,1.9756,1.4111,congruent,left,,,,,,stimulusFile/physical.xlsx,,,,,,,,,,,,,,,,,,,,,,,,,,,,,,,
,,,,,,,,,,,,,,,742,2022-01-20_11h49.43.307,multiplicationStroop,2021.2.3,Win32,60.0132029,,,,,right,1,0.4312,0,50,50,10,1,6,8,6 | 8,2,1.4111,1.9756,congruent,right,,,,,,stimulusFile/physical.xlsx,,,,,,,,,,,,,,,,,,,,,,,,,,,,,,,
,,,,,,,,,,,,,,,742,2022-01-20_11h49.43.307,multiplicationStroop,2021.2.3,Win32,60.0132029,,,,,left,1,0.528,0,51,51,20,1,6,1,6 | 1,5,1.9756,1.4111,congruent,left,,,,,,stimulusFile/physical.xlsx,,,,,,,,,,,,,,,,,,,,,,,,,,,,,,,
,,,,,,,,,,,,,,,742,2022-01-20_11h49.43.307,multiplicationStroop,2021.2.3,Win32,60.0132029,,,,,right,0,0.4164,0,52,52,42,1,3,8,3 | 8,5,1.9756,1.4111,incongruent,left,,,,,,stimulusFile/physical.xlsx,,,,,,,,,,,,,,,,,,,,,,,,,,,,,,,
,,,,,,,,,,,,,,,742,2022-01-20_11h49.43.307,multiplicationStroop,2021.2.3,Win32,60.0132029,,,,,right,1,0.5199,0,53,53,29,1,4,3,4 | 3,1,1.4111,1.9756,incongruent,right,,,,,,stimulusFile/physical.xlsx,,,,,,,,,,,,,,,,,,,,,,,,,,,,,,,
,,,,,,,,,,,,,,,742,2022-01-20_11h49.43.307,multiplicationStroop,2021.2.3,Win32,60.0132029,,,,,left,1,0.4606,0,54,54,32,1,1,3,1 | 3,2,1.9756,1.4111,incongruent,left,,,,,,stimulusFile/physical.xlsx,,,,,,,,,,,,,,,,,,,,,,,,,,,,,,,
,,,,,,,,,,,,,,,742,2022-01-20_11h49.43.307,multiplicationStroop,2021.2.3,Win32,60.0132029,,,,,right,1,0.4165,0,55,55,62,1,8,8,8 | 8,0,1.4111,1.9756,neutral,right,,,,,,stimulusFile/physical.xlsx,,,,,,,,,,,,,,,,,,,,,,,,,,,,,,,
,,,,,,,,,,,,,,,742,2022-01-20_11h49.43.307,multiplicationStroop,2021.2.3,Win32,60.0132029,,,,,right,0,0.4247,0,56,56,40,1,1,6,1 | 6,5,1.9756,1.4111,incongruent,left,,,,,,stimulusFile/physical.xlsx,,,,,,,,,,,,,,,,,,,,,,,,,,,,,,,
,,,,,,,,,,,,,,,742,2022-01-20_11h49.43.307,multiplicationStroop,2021.2.3,Win32,60.0132029,,,,,left,1,0.5946,0,57,57,48,1,1,1,1 | 1,0,1.9756,1.4111,neutral,left,,,,,,stimulusFile/physical.xlsx,,,,,,,,,,,,,,,,,,,,,,,,,,,,,,,
,,,,,,,,,,,,,,,742,2022-01-20_11h49.43.307,multiplicationStroop,2021.2.3,Win32,60.0132029,,,,,left,0,0.4709,0,58,58,66,1,3,3,3 | 3,0,1.9756,1.4111,neutral,right,,,,,,stimulusFile/physical.xlsx,,,,,,,,,,,,,,,,,,,,,,,,,,,,,,,
,,,,,,,,,,,,,,,742,2022-01-20_11h49.43.307,multiplicationStroop,2021.2.3,Win32,60.0132029,,,,,right,1,0.4471,0,59,59,39,1,9,7,9 | 7,2,1.4111,1.9756,incongruent,right,,,,,,stimulusFile/physical.xlsx,,,,,,,,,,,,,,,,,,,,,,,,,,,,,,,
,,,,,,,,,,,,,,,742,2022-01-20_11h49.43.307,multiplicationStroop,2021.2.3,Win32,60.0132029,,,,,left,1,0.428,0,60,60,54,1,7,7,7 | 7,0,1.9756,1.4111,neutral,left,,,,,,stimulusFile/physical.xlsx,,,,,,,,,,,,,,,,,,,,,,,,,,,,,,,
,,,,,,,,,,,,,,,742,2022-01-20_11h49.43.307,multiplicationStroop,2021.2.3,Win32,60.0132029,,,,,right,1,0.4292,0,61,61,11,1,7,9,7 | 9,2,1.4111,1.9756,congruent,right,,,,,,stimulusFile/physical.xlsx,,,,,,,,,,,,,,,,,,,,,,,,,,,,,,,
,,,,,,,,,,,,,,,742,2022-01-20_11h49.43.307,multiplicationStroop,2021.2.3,Win32,60.0132029,,,,,right,1,0.4361,0,62,62,57,1,2,2,2 | 2,0,1.4111,1.9756,neutral,right,,,,,,stimulusFile/physical.xlsx,,,,,,,,,,,,,,,,,,,,,,,,,,,,,,,
,,,,,,,,,,,,,,,742,2022-01-20_11h49.43.307,multiplicationStroop,2021.2.3,Win32,60.0132029,,,,,right,1,0.4222,0,63,63,0,1,1,2,1 | 2,1,1.4111,1.9756,congruent,right,,,,,,stimulusFile/physical.xlsx,,,,,,,,,,,,,,,,,,,,,,,,,,,,,,,
,,,,,,,,,,,,,,,742,2022-01-20_11h49.43.307,multiplicationStroop,2021.2.3,Win32,60.0132029,,,,,left,1,0.4203,0,64,64,41,1,2,7,2 | 7,5,1.9756,1.4111,incongruent,left,,,,,,stimulusFile/physical.xlsx,,,,,,,,,,,,,,,,,,,,,,,,,,,,,,,
,,,,,,,,,,,,,,,742,2022-01-20_11h49.43.307,multiplicationStroop,2021.2.3,Win32,60.0132029,,,,,right,1,0.4181,0,65,65,45,1,7,2,7 | 2,5,1.4111,1.9756,incongruent,right,,,,,,stimulusFile/physical.xlsx,,,,,,,,,,,,,,,,,,,,,,,,,,,,,,,
,,,,,,,,,,,,,,,742,2022-01-20_11h49.43.307,multiplicationStroop,2021.2.3,Win32,60.0132029,,,,,right,1,0.4213,0,66,66,30,1,7,6,7 | 6,1,1.4111,1.9756,incongruent,right,,,,,,stimulusFile/physical.xlsx,,,,,,,,,,,,,,,,,,,,,,,,,,,,,,,
,,,,,,,,,,,,,,,742,2022-01-20_11h49.43.307,multiplicationStroop,2021.2.3,Win32,60.0132029,,,,,left,1,0.3868,0,67,67,43,1,4,9,4 | 9,5,1.9756,1.4111,incongruent,left,,,,,,stimulusFile/physical.xlsx,,,,,,,,,,,,,,,,,,,,,,,,,,,,,,,
,,,,,,,,,,,,,,,742,2022-01-20_11h49.43.307,multiplicationStroop,2021.2.3,Win32,60.0132029,,,,,left,1,0.4744,0,68,68,24,1,1,2,1 | 2,1,1.9756,1.4111,incongruent,left,,,,,,stimulusFile/physical.xlsx,,,,,,,,,,,,,,,,,,,,,,,,,,,,,,,
,,,,,,,,,,,,,,,742,2022-01-20_11h49.43.307,multiplicationStroop,2021.2.3,Win32,60.0132029,,,,,right,1,0.4432,0,69,69,28,1,2,1,2 | 1,1,1.4111,1.9756,incongruent,right,,,,,,stimulusFile/physical.xlsx,,,,,,,,,,,,,,,,,,,,,,,,,,,,,,,
,,,,,,,,,,,,,,,742,2022-01-20_11h49.43.307,multiplicationStroop,2021.2.3,Win32,60.0132029,,,,,right,1,0.3999,0,70,70,60,1,3,3,3 | 3,0,1.4111,1.9756,neutral,right,,,,,,stimulusFile/physical.xlsx,,,,,,,,,,,,,,,,,,,,,,,,,,,,,,,
,,,,,,,,,,,,,,,742,2022-01-20_11h49.43.307,multiplicationStroop,2021.2.3,Win32,60.0132029,,,,,left,0,0.4248,0,71,71,47,1,9,4,9 | 4,5,1.4111,1.9756,incongruent,right,,,,,,stimulusFile/physical.xlsx,,,,,,,,,,,,,,,,,,,,,,,,,,,,,,,
,,,,,,,,,,,,,,,742,2022-01-20_11h49.43.307,multiplicationStroop,2021.2.3,Win32,60.0132029,,,,,,,,,,,,,,,,,,,,,0,0,0,1,1,stimulusFile/physical.xlsx,PHYSICALLY larger (larger font size).,images/physicallyLarger.png,,,,,,,,,,,,,,,,,,,,,,,,,,,,,
,,,,,,,,,,,,,,,742,2022-01-20_11h49.43.307,multiplicationStroop,2021.2.3,Win32,60.0132029,space,12.6779,space,7.6613,right,1,0.7855,0,0,0,40,1,1,6,1 | 6,5,1.9756,1.4111,incongruent,right,,,,,,stimulusFile/magnitude.xlsx,,,,,,,,,,,,,,,,,,,,,,,,,,,,,,,
,,,,,,,,,,,,,,,742,2022-01-20_11h49.43.307,multiplicationStroop,2021.2.3,Win32,60.0132029,,,,,left,1,0.6595,0,1,1,30,1,7,6,7 | 6,1,1.4111,1.9756,incongruent,left,,,,,,stimulusFile/magnitude.xlsx,,,,,,,,,,,,,,,,,,,,,,,,,,,,,,,
,,,,,,,,,,,,,,,742,2022-01-20_11h49.43.307,multiplicationStroop,2021.2.3,Win32,60.0132029,,,,,left,1,0.6029,0,2,2,70,1,8,3,8 | 3,5,1.6933,1.6933,neutral,left,,,,,,stimulusFile/magnitude.xlsx,,,,,,,,,,,,,,,,,,,,,,,,,,,,,,,
,,,,,,,,,,,,,,,742,2022-01-20_11h49.43.307,multiplicationStroop,2021.2.3,Win32,60.0132029,,,,,right,0,0.4969,0,3,3,37,1,4,2,4 | 2,2,1.4111,1.9756,incongruent,left,,,,,,stimulusFile/magnitude.xlsx,,,,,,,,,,,,,,,,,,,,,,,,,,,,,,,
,,,,,,,,,,,,,,,742,2022-01-20_11h49.43.307,multiplicationStroop,2021.2.3,Win32,60.0132029,,,,,right,1,0.611,0,4,4,51,1,8,9,8 | 9,1,1.6933,1.6933,neutral,right,,,,,,stimulusFile/magnitude.xlsx,,,,,,,,,,,,,,,,,,,,,,,,,,,,,,,
,,,,,,,,,,,,,,,742,2022-01-20_11h49.43.307,multiplicationStroop,2021.2.3,Win32,60.0132029,,,,,left,1,0.6769,0,5,5,63,1,9,7,9 | 7,2,1.6933,1.6933,neutral,left,,,,,,stimulusFile/magnitude.xlsx,,,,,,,,,,,,,,,,,,,,,,,,,,,,,,,
,,,,,,,,,,,,,,,742,2022-01-20_11h49.43.307,multiplicationStroop,2021.2.3,Win32,60.0132029,,,,,right,1,0.6338,0,6,6,66,1,3,8,3 | 8,5,1.6933,1.6933,neutral,right,,,,,,stimulusFile/magnitude.xlsx,,,,,,,,,,,,,,,,,,,,,,,,,,,,,,,
,,,,,,,,,,,,,,,742,2022-01-20_11h49.43.307,multiplicationStroop,2021.2.3,Win32,60.0132029,,,,,left,1,0.635,0,7,7,45,1,7,2,7 | 2,5,1.4111,1.9756,incongruent,left,,,,,,stimulusFile/magnitude.xlsx,,,,,,,,,,,,,,,,,,,,,,,,,,,,,,,
,,,,,,,,,,,,,,,742,2022-01-20_11h49.43.307,multiplicationStroop,2021.2.3,Win32,60.0132029,,,,,right,1,0.7461,0,8,8,35,1,7,9,7 | 9,2,1.9756,1.4111,incongruent,right,,,,,,stimulusFile/magnitude.xlsx,,,,,,,,,,,,,,,,,,,,,,,,,,,,,,,
,,,,,,,,,,,,,,,742,2022-01-20_11h49.43.307,multiplicationStroop,2021.2.3,Win32,60.0132029,,,,,left,1,0.7231,0,9,9,38,1,8,6,8 | 6,2,1.4111,1.9756,incongruent,left,,,,,,stimulusFile/magnitude.xlsx,,,,,,,,,,,,,,,,,,,,,,,,,,,,,,,
,,,,,,,,,,,,,,,742,2022-01-20_11h49.43.307,multiplicationStroop,2021.2.3,Win32,60.0132029,,,,,right,1,0.5401,0,10,10,9,1,2,4,2 | 4,2,1.4111,1.9756,congruent,right,,,,,,stimulusFile/magnitude.xlsx,,,,,,,,,,,,,,,,,,,,,,,,,,,,,,,
,,,,,,,,,,,,,,,742,2022-01-20_11h49.43.307,multiplicationStroop,2021.2.3,Win32,60.0132029,,,,,left,1,0.5616,0,11,11,23,1,9,4,9 | 4,5,1.9756,1.4111,congruent,left,,,,,,stimulusFile/magnitude.xlsx,,,,,,,,,,,,,,,,,,,,,,,,,,,,,,,
,,,,,,,,,,,,,,,742,2022-01-20_11h49.43.307,multiplicationStroop,2021.2.3,Win32,60.0132029,,,,,right,1,0.7248,0,12,12,26,1,6,7,6 | 7,1,1.9756,1.4111,incongruent,right,,,,,,stimulusFile/magnitude.xlsx,,,,,,,,,,,,,,,,,,,,,,,,,,,,,,,
,,,,,,,,,,,,,,,742,2022-01-20_11h49.43.307,multiplicationStroop,2021.2.3,Win32,60.0132029,,,,,left,1,0.6596,0,13,13,28,1,2,1,2 | 1,1,1.4111,1.9756,incongruent,left,,,,,,stimulusFile/magnitude.xlsx,,,,,,,,,,,,,,,,,,,,,,,,,,,,,,,
,,,,,,,,,,,,,,,742,2022-01-20_11h49.43.307,multiplicationStroop,2021.2.3,Win32,60.0132029,,,,,left,1,0.5493,0,14,14,21,1,7,2,7 | 2,5,1.9756,1.4111,congruent,left,,,,,,stimulusFile/magnitude.xlsx,,,,,,,,,,,,,,,,,,,,,,,,,,,,,,,
,,,,,,,,,,,,,,,742,2022-01-20_11h49.43.307,multiplicationStroop,2021.2.3,Win32,60.0132029,,,,,right,1,0.6131,0,15,15,64,1,1,6,1 | 6,5,1.6933,1.6933,neutral,right,,,,,,stimulusFile/magnitude.xlsx,,,,,,,,,,,,,,,,,,,,,,,,,,,,,,,
,,,,,,,,,,,,,,,742,2022-01-20_11h49.43.307,multiplicationStroop,2021.2.3,Win32,60.0132029,,,,,right,1,0.6851,0,16,16,17,1,2,7,2 | 7,5,1.4111,1.9756,congruent,right,,,,,,stimulusFile/magnitude.xlsx,,,,,,,,,,,,,,,,,,,,,,,,,,,,,,,
,,,,,,,,,,,,,,,742,2022-01-20_11h49.43.307,multiplicationStroop,2021.2.3,Win32,60.0132029,,,,,left,1,0.483,0,17,17,12,1,3,1,3 | 1,2,1.9756,1.4111,congruent,left,,,,,,stimulusFile/magnitude.xlsx,,,,,,,,,,,,,,,,,,,,,,,,,,,,,,,
,,,,,,,,,,,,,,,742,2022-01-20_11h49.43.307,multiplicationStroop,2021.2.3,Win32,60.0132029,,,,,right,1,0.5654,0,18,18,27,1,8,9,8 | 9,1,1.9756,1.4111,incongruent,right,,,,,,stimulusFile/magnitude.xlsx,,,,,,,,,,,,,,,,,,,,,,,,,,,,,,,
,,,,,,,,,,,,,,,742,2022-01-20_11h49.43.307,multiplicationStroop,2021.2.3,Win32,60.0132029,,,,,left,1,0.7008,0,19,19,62,1,8,6,8 | 6,2,1.6933,1.6933,neutral,left,,,,,,stimulusFile/magnitude.xlsx,,,,,,,,,,,,,,,,,,,,,,,,,,,,,,,
,,,,,,,,,,,,,,,742,2022-01-20_11h49.43.307,multiplicationStroop,2021.2.3,Win32,60.0132029,,,,,right,1,0.5643,0,20,20,0,1,1,2,1 | 2,1,1.4111,1.9756,congruent,right,,,,,,stimulusFile/magnitude.xlsx,,,,,,,,,,,,,,,,,,,,,,,,,,,,,,,
,,,,,,,,,,,,,,,742,2022-01-20_11h49.43.307,multiplicationStroop,2021.2.3,Win32,60.0132029,,,,,left,1,0.6449,0,21,21,60,1,3,1,3 | 1,2,1.6933,1.6933,neutral,left,,,,,,stimulusFile/magnitude.xlsx,,,,,,,,,,,,,,,,,,,,,,,,,,,,,,,
,,,,,,,,,,,,,,,742,2022-01-20_11h49.43.307,multiplicationStroop,2021.2.3,Win32,60.0132029,,,,,right,1,0.6207,0,22,22,41,1,2,7,2 | 7,5,1.9756,1.4111,incongruent,right,,,,,,stimulusFile/magnitude.xlsx,,,,,,,,,,,,,,,,,,,,,,,,,,,,,,,
,,,,,,,,,,,,,,,742,2022-01-20_11h49.43.307,multiplicationStroop,2021.2.3,Win32,60.0132029,,,,,left,1,0.5574,0,23,23,13,1,4,2,4 | 2,2,1.9756,1.4111,congruent,left,,,,,,stimulusFile/magnitude.xlsx,,,,,,,,,,,,,,,,,,,,,,,,,,,,,,,
,,,,,,,,,,,,,,,742,2022-01-20_11h49.43.307,multiplicationStroop,2021.2.3,Win32,60.0132029,,,,,left,1,0.5978,0,24,24,6,1,7,6,7 | 6,1,1.9756,1.4111,congruent,left,,,,,,stimulusFile/magnitude.xlsx,,,,,,,,,,,,,,,,,,,,,,,,,,,,,,,
,,,,,,,,,,,,,,,742,2022-01-20_11h49.43.307,multiplicationStroop,2021.2.3,Win32,60.0132029,,,,,left,1,0.5079,0,25,25,15,1,9,7,9 | 7,2,1.9756,1.4111,congruent,left,,,,,,stimulusFile/magnitude.xlsx,,,,,,,,,,,,,,,,,,,,,,,,,,,,,,,
,,,,,,,,,,,,,,,742,2022-01-20_11h49.43.307,multiplicationStroop,2021.2.3,Win32,60.0132029,,,,,left,1,0.5599,0,26,26,4,1,2,1,2 | 1,1,1.9756,1.4111,congruent,left,,,,,,stimulusFile/magnitude.xlsx,,,,,,,,,,,,,,,,,,,,,,,,,,,,,,,
,,,,,,,,,,,,,,,742,2022-01-20_11h49.43.307,multiplicationStroop,2021.2.3,Win32,60.0132029,,,,,right,0,0.4761,0,27,27,31,1,9,8,9 | 8,1,1.4111,1.9756,incongruent,left,,,,,,stimulusFile/magnitude.xlsx,,,,,,,,,,,,,,,,,,,,,,,,,,,,,,,
,,,,,,,,,,,,,,,742,2022-01-20_11h49.43.307,multiplicationStroop,2021.2.3,Win32,60.0132029,,,,,right,1,0.6694,0,28,28,43,1,4,9,4 | 9,5,1.9756,1.4111,incongruent,right,,,,,,stimulusFile/magnitude.xlsx,,,,,,,,,,,,,,,,,,,,,,,,,,,,,,,
,,,,,,,,,,,,,,,742,2022-01-20_11h49.43.307,multiplicationStroop,2021.2.3,Win32,60.0132029,,,,,right,1,0.7925,0,29,29,25,1,3,4,3 | 4,1,1.9756,1.4111,incongruent,right,,,,,,stimulusFile/magnitude.xlsx,,,,,,,,,,,,,,,,,,,,,,,,,,,,,,,
,,,,,,,,,,,,,,,742,2022-01-20_11h49.43.307,multiplicationStroop,2021.2.3,Win32,60.0132029,,,,,left,1,0.6806,0,30,30,61,1,4,2,4 | 2,2,1.6933,1.6933,neutral,left,,,,,,stimulusFile/magnitude.xlsx,,,,,,,,,,,,,,,,,,,,,,,,,,,,,,,
,,,,,,,,,,,,,,,742,2022-01-20_11h49.43.307,multiplicationStroop,2021.2.3,Win32,60.0132029,,,,,right,1,0.5657,0,31,31,59,1,7,9,7 | 9,2,1.6933,1.6933,neutral,right,,,,,,stimulusFile/magnitude.xlsx,,,,,,,,,,,,,,,,,,,,,,,,,,,,,,,
,,,,,,,,,,,,,,,742,2022-01-20_11h49.43.307,multiplicationStroop,2021.2.3,Win32,60.0132029,,,,,left,1,0.7298,0,32,32,14,1,8,6,8 | 6,2,1.9756,1.4111,congruent,left,,,,,,stimulusFile/magnitude.xlsx,,,,,,,,,,,,,,,,,,,,,,,,,,,,,,,
,,,,,,,,,,,,,,,742,2022-01-20_11h49.43.307,multiplicationStroop,2021.2.3,Win32,60.0132029,,,,,left,1,0.55,0,33,33,52,1,2,1,2 | 1,1,1.6933,1.6933,neutral,left,,,,,,stimulusFile/magnitude.xlsx,,,,,,,,,,,,,,,,,,,,,,,,,,,,,,,
,,,,,,,,,,,,,,,742,2022-01-20_11h49.43.307,multiplicationStroop,2021.2.3,Win32,60.0132029,,,,,left,1,0.5765,0,34,34,53,1,4,3,4 | 3,1,1.6933,1.6933,neutral,left,,,,,,stimulusFile/magnitude.xlsx,,,,,,,,,,,,,,,,,,,,,,,,,,,,,,,
,,,,,,,,,,,,,,,742,2022-01-20_11h49.43.307,multiplicationStroop,2021.2.3,Win32,60.0132029,,,,,left,1,0.542,0,35,35,71,1,9,4,9 | 4,5,1.6933,1.6933,neutral,left,,,,,,stimulusFile/magnitude.xlsx,,,,,,,,,,,,,,,,,,,,,,,,,,,,,,,
,,,,,,,,,,,,,,,742,2022-01-20_11h49.43.307,multiplicationStroop,2021.2.3,Win32,60.0132029,,,,,left,1,0.7237,0,36,36,47,1,9,4,9 | 4,5,1.4111,1.9756,incongruent,left,,,,,,stimulusFile/magnitude.xlsx,,,,,,,,,,,,,,,,,,,,,,,,,,,,,,,
,,,,,,,,,,,,,,,742,2022-01-20_11h49.43.307,multiplicationStroop,2021.2.3,Win32,60.0132029,,,,,right,1,0.661,0,37,37,67,1,4,9,4 | 9,5,1.6933,1.6933,neutral,right,,,,,,stimulusFile/magnitude.xlsx,,,,,,,,,,,,,,,,,,,,,,,,,,,,,,,
,,,,,,,,,,,,,,,742,2022-01-20_11h49.43.307,multiplicationStroop,2021.2.3,Win32,60.0132029,,,,,right,1,0.7032,0,38,38,24,1,1,2,1 | 2,1,1.9756,1.4111,incongruent,right,,,,,,stimulusFile/magnitude.xlsx,,,,,,,,,,,,,,,,,,,,,,,,,,,,,,,
,,,,,,,,,,,,,,,742,2022-01-20_11h49.43.307,multiplicationStroop,2021.2.3,Win32,60.0132029,,,,,left,1,0.5825,0,39,39,55,1,9,8,9 | 8,1,1.6933,1.6933,neutral,left,,,,,,stimulusFile/magnitude.xlsx,,,,,,,,,,,,,,,,,,,,,,,,,,,,,,,
,,,,,,,,,,,,,,,742,2022-01-20_11h49.43.307,multiplicationStroop,2021.2.3,Win32,60.0132029,,,,,right,1,0.7807,0,40,40,50,1,6,7,6 | 7,1,1.6933,1.6933,neutral,right,,,,,,stimulusFile/magnitude.xlsx,,,,,,,,,,,,,,,,,,,,,,,,,,,,,,,
,,,,,,,,,,,,,,,742,2022-01-20_11h49.43.307,multiplicationStroop,2021.2.3,Win32,60.0132029,,,,,right,1,0.7092,0,41,41,32,1,1,3,1 | 3,2,1.9756,1.4111,incongruent,right,,,,,,stimulusFile/magnitude.xlsx,,,,,,,,,,,,,,,,,,,,,,,,,,,,,,,
,,,,,,,,,,,,,,,742,2022-01-20_11h49.43.307,multiplicationStroop,2021.2.3,Win32,60.0132029,,,,,right,1,0.5179,0,42,42,11,1,7,9,7 | 9,2,1.4111,1.9756,congruent,right,,,,,,stimulusFile/magnitude.xlsx,,,,,,,,,,,,,,,,,,,,,,,,,,,,,,,
,,,,,,,,,,,,,,,742,2022-01-20_11h49.43.307,multiplicationStroop,2021.2.3,Win32,60.0132029,,,,,right,1,0.6799,0,43,43,34,1,6,8,6 | 8,2,1.9756,1.4111,incongruent,right,,,,,,stimulusFile/magnitude.xlsx,,,,,,,,,,,,,,,,,,,,,,,,,,,,,,,
,,,,,,,,,,,,,,,742,2022-01-20_11h49.43.307,multiplicationStroop,2021.2.3,Win32,60.0132029,,,,,right,1,0.5351,0,44,44,65,1,2,7,2 | 7,5,1.6933,1.6933,neutral,right,,,,,,stimulusFile/magnitude.xlsx,,,,,,,,,,,,,,,,,,,,,,,,,,,,,,,
,,,,,,,,,,,,,,,742,2022-01-20_11h49.43.307,multiplicationStroop,2021.2.3,Win32,60.0132029,,,,,left,1,0.5516,0,45,45,20,1,6,1,6 | 1,5,1.9756,1.4111,congruent,left,,,,,,stimulusFile/magnitude.xlsx,,,,,,,,,,,,,,,,,,,,,,,,,,,,,,,
,,,,,,,,,,,,,,,742,2022-01-20_11h49.43.307,multiplicationStroop,2021.2.3,Win32,60.0132029,,,,,left,1,0.5927,0,46,46,69,1,7,2,7 | 2,5,1.6933,1.6933,neutral,left,,,,,,stimulusFile/magnitude.xlsx,,,,,,,,,,,,,,,,,,,,,,,,,,,,,,,
,,,,,,,,,,,,,,,742,2022-01-20_11h49.43.307,multiplicationStroop,2021.2.3,Win32,60.0132029,,,,,left,1,0.6622,0,47,47,7,1,9,8,9 | 8,1,1.9756,1.4111,congruent,left,,,,,,stimulusFile/magnitude.xlsx,,,,,,,,,,,,,,,,,,,,,,,,,,,,,,,
,,,,,,,,,,,,,,,742,2022-01-20_11h49.43.307,multiplicationStroop,2021.2.3,Win32,60.0132029,,,,,right,1,0.5035,0,48,48,8,1,1,3,1 | 3,2,1.4111,1.9756,congruent,right,,,,,,stimulusFile/magnitude.xlsx,,,,,,,,,,,,,,,,,,,,,,,,,,,,,,,
,,,,,,,,,,,,,,,742,2022-01-20_11h49.43.307,multiplicationStroop,2021.2.3,Win32,60.0132029,,,,,left,1,0.7362,0,49,49,39,1,9,7,9 | 7,2,1.4111,1.9756,incongruent,left,,,,,,stimulusFile/magnitude.xlsx,,,,,,,,,,,,,,,,,,,,,,,,,,,,,,,
,,,,,,,,,,,,,,,742,2022-01-20_11h49.43.307,multiplicationStroop,2021.2.3,Win32,60.0132029,,,,,left,1,0.5683,0,50,50,46,1,8,3,8 | 3,5,1.4111,1.9756,incongruent,left,,,,,,stimulusFile/magnitude.xlsx,,,,,,,,,,,,,,,,,,,,,,,,,,,,,,,
,,,,,,,,,,,,,,,742,2022-01-20_11h49.43.307,multiplicationStroop,2021.2.3,Win32,60.0132029,,,,,left,1,0.5836,0,51,51,68,1,6,1,6 | 1,5,1.6933,1.6933,neutral,left,,,,,,stimulusFile/magnitude.xlsx,,,,,,,,,,,,,,,,,,,,,,,,,,,,,,,
,,,,,,,,,,,,,,,742,2022-01-20_11h49.43.307,multiplicationStroop,2021.2.3,Win32,60.0132029,,,,,right,1,0.607,0,52,52,10,1,6,8,6 | 8,2,1.4111,1.9756,congruent,right,,,,,,stimulusFile/magnitude.xlsx,,,,,,,,,,,,,,,,,,,,,,,,,,,,,,,
,,,,,,,,,,,,,,,742,2022-01-20_11h49.43.307,multiplicationStroop,2021.2.3,Win32,60.0132029,,,,,right,1,0.5362,0,53,53,57,1,2,4,2 | 4,2,1.6933,1.6933,neutral,right,,,,,,stimulusFile/magnitude.xlsx,,,,,,,,,,,,,,,,,,,,,,,,,,,,,,,
,,,,,,,,,,,,,,,742,2022-01-20_11h49.43.307,multiplicationStroop,2021.2.3,Win32,60.0132029,,,,,right,1,0.5282,0,54,54,19,1,4,9,4 | 9,5,1.4111,1.9756,congruent,right,,,,,,stimulusFile/magnitude.xlsx,,,,,,,,,,,,,,,,,,,,,,,,,,,,,,,
,,,,,,,,,,,,,,,742,2022-01-20_11h49.43.307,multiplicationStroop,2021.2.3,Win32,60.0132029,,,,,left,1,0.6667,0,55,55,29,1,4,3,4 | 3,1,1.4111,1.9756,incongruent,left,,,,,,stimulusFile/magnitude.xlsx,,,,,,,,,,,,,,,,,,,,,,,,,,,,,,,
,,,,,,,,,,,,,,,742,2022-01-20_11h49.43.307,multiplicationStroop,2021.2.3,Win32,60.0132029,,,,,right,1,0.5678,0,56,56,48,1,1,2,1 | 2,1,1.6933,1.6933,neutral,right,,,,,,stimulusFile/magnitude.xlsx,,,,,,,,,,,,,,,,,,,,,,,,,,,,,,,
,,,,,,,,,,,,,,,742,2022-01-20_11h49.43.307,multiplicationStroop,2021.2.3,Win32,60.0132029,,,,,right,1,0.6275,0,57,57,56,1,1,3,1 | 3,2,1.6933,1.6933,neutral,right,,,,,,stimulusFile/magnitude.xlsx,,,,,,,,,,,,,,,,,,,,,,,,,,,,,,,
,,,,,,,,,,,,,,,742,2022-01-20_11h49.43.307,multiplicationStroop,2021.2.3,Win32,60.0132029,,,,,left,1,0.5209,0,58,58,5,1,4,3,4 | 3,1,1.9756,1.4111,congruent,left,,,,,,stimulusFile/magnitude.xlsx,,,,,,,,,,,,,,,,,,,,,,,,,,,,,,,
,,,,,,,,,,,,,,,742,2022-01-20_11h49.43.307,multiplicationStroop,2021.2.3,Win32,60.0132029,,,,,right,1,0.7047,0,59,59,58,1,6,8,6 | 8,2,1.6933,1.6933,neutral,right,,,,,,stimulusFile/magnitude.xlsx,,,,,,,,,,,,,,,,,,,,,,,,,,,,,,,
,,,,,,,,,,,,,,,742,2022-01-20_11h49.43.307,multiplicationStroop,2021.2.3,Win32,60.0132029,,,,,right,1,0.6169,0,60,60,42,1,3,8,3 | 8,5,1.9756,1.4111,incongruent,right,,,,,,stimulusFile/magnitude.xlsx,,,,,,,,,,,,,,,,,,,,,,,,,,,,,,,
,,,,,,,,,,,,,,,742,2022-01-20_11h49.43.307,multiplicationStroop,2021.2.3,Win32,60.0132029,,,,,right,1,0.5606,0,61,61,1,1,3,4,3 | 4,1,1.4111,1.9756,congruent,right,,,,,,stimulusFile/magnitude.xlsx,,,,,,,,,,,,,,,,,,,,,,,,,,,,,,,
,,,,,,,,,,,,,,,742,2022-01-20_11h49.43.307,multiplicationStroop,2021.2.3,Win32,60.0132029,,,,,left,1,0.5549,0,62,62,36,1,3,1,3 | 1,2,1.4111,1.9756,incongruent,left,,,,,,stimulusFile/magnitude.xlsx,,,,,,,,,,,,,,,,,,,,,,,,,,,,,,,
,,,,,,,,,,,,,,,742,2022-01-20_11h49.43.307,multiplicationStroop,2021.2.3,Win32,60.0132029,,,,,left,1,0.5553,0,63,63,44,1,6,1,6 | 1,5,1.4111,1.9756,incongruent,left,,,,,,stimulusFile/magnitude.xlsx,,,,,,,,,,,,,,,,,,,,,,,,,,,,,,,
,,,,,,,,,,,,,,,742,2022-01-20_11h49.43.307,multiplicationStroop,2021.2.3,Win32,60.0132029,,,,,left,1,0.5233,0,64,64,22,1,8,3,8 | 3,5,1.9756,1.4111,congruent,left,,,,,,stimulusFile/magnitude.xlsx,,,,,,,,,,,,,,,,,,,,,,,,,,,,,,,
,,,,,,,,,,,,,,,742,2022-01-20_11h49.43.307,multiplicationStroop,2021.2.3,Win32,60.0132029,,,,,left,1,0.6307,0,65,65,54,1,7,6,7 | 6,1,1.6933,1.6933,neutral,left,,,,,,stimulusFile/magnitude.xlsx,,,,,,,,,,,,,,,,,,,,,,,,,,,,,,,
,,,,,,,,,,,,,,,742,2022-01-20_11h49.43.307,multiplicationStroop,2021.2.3,Win32,60.0132029,,,,,right,1,0.5829,0,66,66,2,1,6,7,6 | 7,1,1.4111,1.9756,congruent,right,,,,,,stimulusFile/magnitude.xlsx,,,,,,,,,,,,,,,,,,,,,,,,,,,,,,,
,,,,,,,,,,,,,,,742,2022-01-20_11h49.43.307,multiplicationStroop,2021.2.3,Win32,60.0132029,,,,,right,1,0.7991,0,67,67,49,1,3,4,3 | 4,1,1.6933,1.6933,neutral,right,,,,,,stimulusFile/magnitude.xlsx,,,,,,,,,,,,,,,,,,,,,,,,,,,,,,,
,,,,,,,,,,,,,,,742,2022-01-20_11h49.43.307,multiplicationStroop,2021.2.3,Win32,60.0132029,,,,,right,1,0.496,0,68,68,18,1,3,8,3 | 8,5,1.4111,1.9756,congruent,right,,,,,,stimulusFile/magnitude.xlsx,,,,,,,,,,,,,,,,,,,,,,,,,,,,,,,
,,,,,,,,,,,,,,,742,2022-01-20_11h49.43.307,multiplicationStroop,2021.2.3,Win32,60.0132029,,,,,right,1,0.6089,0,69,69,3,1,8,9,8 | 9,1,1.4111,1.9756,congruent,right,,,,,,stimulusFile/magnitude.xlsx,,,,,,,,,,,,,,,,,,,,,,,,,,,,,,,
,,,,,,,,,,,,,,,742,2022-01-20_11h49.43.307,multiplicationStroop,2021.2.3,Win32,60.0132029,,,,,right,1,0.5989,0,70,70,33,1,2,4,2 | 4,2,1.9756,1.4111,incongruent,right,,,,,,stimulusFile/magnitude.xlsx,,,,,,,,,,,,,,,,,,,,,,,,,,,,,,,
,,,,,,,,,,,,,,,742,2022-01-20_11h49.43.307,multiplicationStroop,2021.2.3,Win32,60.0132029,,,,,right,1,0.48,0,71,71,16,1,1,6,1 | 6,5,1.4111,1.9756,congruent,right,,,,,,stimulusFile/magnitude.xlsx,,,,,,,,,,,,,,,,,,,,,,,,,,,,,,,
,,,,,,,,,,,,,,,742,2022-01-20_11h49.43.307,multiplicationStroop,2021.2.3,Win32,60.0132029,,,,,,,,,,,,,,,,,,,,,0,1,1,0,1,stimulusFile/magnitude.xlsx,NUMERICALLY larger (larger coefficient).,images/numericallyLarger.png,,,,,,,,,,,,,,,,,,,,,,,,,,,,,
,,,,,,,,,,,,,,,742,2022-01-20_11h49.43.307,multiplicationStroop,2021.2.3,Win32,60.0132029,,,,,,,,,,,,,,,,,,,,,,,,,,,,,space,16.6639,space,3.7983,6,1.8225,1,0,0,0,11,1,2,×,3,2 × 3,incongruent,smallerFirst,2,1,6,,,,,,,,
,,,,,,,,,,,,,,,742,2022-01-20_11h49.43.307,multiplicationStroop,2021.2.3,Win32,60.0132029,,,,,,,,,,,,,,,,,,,,,,,,,,,,,,,,,8,1.4818,1,0,1,1,24,1,4,×,2,4 × 2,incongruent,largerFirst,1,2,8,,,,,,,,
,,,,,,,,,,,,,,,742,2022-01-20_11h49.43.307,multiplicationStroop,2021.2.3,Win32,60.0132029,,,,,,,,,,,,,,,,,,,,,,,,,,,,,,,,,18,1.7156,1,0,2,2,8,1,3,×,6,3 × 6,incongruent,smallerFirst,2,1,18,,,,,,,,
,,,,,,,,,,,,,,,742,2022-01-20_11h49.43.307,multiplicationStroop,2021.2.3,Win32,60.0132029,,,,,,,,,,,,,,,,,,,,,,,,,,,,,,,,,18,2.0988,1,0,3,3,2,1,2,×,9,2 × 9,incongruent,smallerFirst,2,1,18,,,,,,,,
,,,,,,,,,,,,,,,742,2022-01-20_11h49.43.307,multiplicationStroop,2021.2.3,Win32,60.0132029,,,,,,,,,,,,,,,,,,,,,,,,,,,,,,,,,12,1.5353,1,0,4,4,19,1,6,×,2,6 × 2,incongruent,largerFirst,1,2,12,,,,,,,,
,,,,,,,,,,,,,,,742,2022-01-20_11h49.43.307,multiplicationStroop,2021.2.3,Win32,60.0132029,,,,,,,,,,,,,,,,,,,,,,,,,,,,,,,,,16,1.6459,1,0,5,5,30,1,4,×,4,4 × 4,incongruent,tie,1,2,16,,,,,,,,
,,,,,,,,,,,,,,,742,2022-01-20_11h49.43.307,multiplicationStroop,2021.2.3,Win32,60.0132029,,,,,,,,,,,,,,,,,,,,,,,,,,,,,,,,,56,1.7307,1,0,6,6,14,1,8,×,7,8 × 7,incongruent,largerFirst,1,2,56,,,,,,,,
,,,,,,,,,,,,,,,742,2022-01-20_11h49.43.307,multiplicationStroop,2021.2.3,Win32,60.0132029,,,,,,,,,,,,,,,,,,,,,,,,,,,,,,,,,36,1.6656,1,0,7,7,15,1,9,×,4,9 × 4,incongruent,largerFirst,1,2,36,,,,,,,,
,,,,,,,,,,,,,,,742,2022-01-20_11h49.43.307,multiplicationStroop,2021.2.3,Win32,60.0132029,,,,,,,,,,,,,,,,,,,,,,,,,,,,,,,,,64,1.851,1,0,8,8,34,1,8,×,8,8 × 8,incongruent,tie,1,2,64,,,,,,,,
,,,,,,,,,,,,,,,742,2022-01-20_11h49.43.307,multiplicationStroop,2021.2.3,Win32,60.0132029,,,,,,,,,,,,,,,,,,,,,,,,,,,,,,,,,30,1.797,1,0,9,9,25,1,6,×,5,6 × 5,incongruent,largerFirst,1,2,30,,,,,,,,
,,,,,,,,,,,,,,,742,2022-01-20_11h49.43.307,multiplicationStroop,2021.2.3,Win32,60.0132029,,,,,,,,,,,,,,,,,,,,,,,,,,,,,,,,,49,1.8652,1,0,10,10,33,1,7,×,7,7 × 7,incongruent,tie,1,2,49,,,,,,,,
,,,,,,,,,,,,,,,742,2022-01-20_11h49.43.307,multiplicationStroop,2021.2.3,Win32,60.0132029,,,,,,,,,,,,,,,,,,,,,,,,,,,,,,,,,36,1.749,1,0,11,11,32,1,6,×,6,6 × 6,incongruent,tie,1,2,36,,,,,,,,
,,,,,,,,,,,,,,,742,2022-01-20_11h49.43.307,multiplicationStroop,2021.2.3,Win32,60.0132029,,,,,,,,,,,,,,,,,,,,,,,,,,,,,,,,,20,1.6643,1,0,12,12,27,1,5,×,4,5 × 4,incongruent,largerFirst,1,2,20,,,,,,,,
,,,,,,,,,,,,,,,742,2022-01-20_11h49.43.307,multiplicationStroop,2021.2.3,Win32,60.0132029,,,,,,,,,,,,,,,,,,,,,,,,,,,,,,,,,63,1.951,1,0,13,13,3,1,7,×,9,7 × 9,incongruent,smallerFirst,2,1,63,,,,,,,,
,,,,,,,,,,,,,,,742,2022-01-20_11h49.43.307,multiplicationStroop,2021.2.3,Win32,60.0132029,,,,,,,,,,,,,,,,,,,,,,,,,,,,,,,,,32,3.8329,1,0,14,14,7,1,4,×,8,4 × 8,incongruent,smallerFirst,2,1,32,,,,,,,,
,,,,,,,,,,,,,,,742,2022-01-20_11h49.43.307,multiplicationStroop,2021.2.3,Win32,60.0132029,,,,,,,,,,,,,,,,,,,,,,,,,,,,,,,,,40,1.7806,1,0,15,15,13,1,5,×,8,5 × 8,incongruent,smallerFirst,2,1,40,,,,,,,,
,,,,,,,,,,,,,,,742,2022-01-20_11h49.43.307,multiplicationStroop,2021.2.3,Win32,60.0132029,,,,,,,,,,,,,,,,,,,,,,,,,,,,,,,,,14,1.6822,1,0,16,16,4,1,2,×,7,2 × 7,incongruent,smallerFirst,2,1,14,,,,,,,,
,,,,,,,,,,,,,,,742,2022-01-20_11h49.43.307,multiplicationStroop,2021.2.3,Win32,60.0132029,,,,,,,,,,,,,,,,,,,,,,,,,,,,,,,,,42,3.582,1,0,17,17,17,1,7,×,6,7 × 6,incongruent,largerFirst,1,2,42,,,,,,,,
,,,,,,,,,,,,,,,742,2022-01-20_11h49.43.307,multiplicationStroop,2021.2.3,Win32,60.0132029,,,,,,,,,,,,,,,,,,,,,,,,,,,,,,,,,81,1.9822,1,0,18,18,35,1,9,×,9,9 × 9,incongruent,tie,1,2,81,,,,,,,,
,,,,,,,,,,,,,,,742,2022-01-20_11h49.43.307,multiplicationStroop,2021.2.3,Win32,60.0132029,,,,,,,,,,,,,,,,,,,,,,,,,,,,,,,,,4,1.4656,1,0,19,19,28,1,2,×,2,2 × 2,incongruent,tie,1,2,4,,,,,,,,
,,,,,,,,,,,,,,,742,2022-01-20_11h49.43.307,multiplicationStroop,2021.2.3,Win32,60.0132029,,,,,,,,,,,,,,,,,,,,,,,,,,,,,,,,,16,1.7024,1,0,20,20,23,1,8,×,2,8 × 2,incongruent,largerFirst,1,2,16,,,,,,,,
,,,,,,,,,,,,,,,742,2022-01-20_11h49.43.307,multiplicationStroop,2021.2.3,Win32,60.0132029,,,,,,,,,,,,,,,,,,,,,,,,,,,,,,,,,15,1.7124,1,0,21,21,10,1,3,×,5,3 × 5,incongruent,smallerFirst,2,1,15,,,,,,,,
,,,,,,,,,,,,,,,742,2022-01-20_11h49.43.307,multiplicationStroop,2021.2.3,Win32,60.0132029,,,,,,,,,,,,,,,,,,,,,,,,,,,,,,,,,21,1.582,1,0,22,22,26,1,7,×,3,7 × 3,incongruent,largerFirst,1,2,21,,,,,,,,
,,,,,,,,,,,,,,,742,2022-01-20_11h49.43.307,multiplicationStroop,2021.2.3,Win32,60.0132029,,,,,,,,,,,,,,,,,,,,,,,,,,,,,,,,,72,2.032,1,0,23,23,0,1,8,×,9,8 × 9,incongruent,smallerFirst,2,1,72,,,,,,,,
,,,,,,,,,,,,,,,742,2022-01-20_11h49.43.307,multiplicationStroop,2021.2.3,Win32,60.0132029,,,,,,,,,,,,,,,,,,,,,,,,,,,,,,,,,48,1.9989,1,0,24,24,1,1,6,×,8,6 × 8,incongruent,smallerFirst,2,1,48,,,,,,,,
,,,,,,,,,,,,,,,742,2022-01-20_11h49.43.307,multiplicationStroop,2021.2.3,Win32,60.0132029,,,,,,,,,,,,,,,,,,,,,,,,,,,,,,,,,24,1.749,1,0,25,25,9,1,3,×,8,3 × 8,incongruent,smallerFirst,2,1,24,,,,,,,,
,,,,,,,,,,,,,,,742,2022-01-20_11h49.43.307,multiplicationStroop,2021.2.3,Win32,60.0132029,,,,,,,,,,,,,,,,,,,,,,,,,,,,,,,,,10,1.6484,1,0,26,26,21,1,5,×,2,5 × 2,incongruent,largerFirst,1,2,10,,,,,,,,
,,,,,,,,,,,,,,,742,2022-01-20_11h49.43.307,multiplicationStroop,2021.2.3,Win32,60.0132029,,,,,,,,,,,,,,,,,,,,,,,,,,,,,,,,,35,1.6484,1,0,27,27,12,1,5,×,7,5 × 7,incongruent,smallerFirst,2,1,35,,,,,,,,
,,,,,,,,,,,,,,,742,2022-01-20_11h49.43.307,multiplicationStroop,2021.2.3,Win32,60.0132029,,,,,,,,,,,,,,,,,,,,,,,,,,,,,,,,,12,1.516,1,0,28,28,5,1,3,×,4,3 × 4,incongruent,smallerFirst,2,1,12,,,,,,,,
,,,,,,,,,,,,,,,742,2022-01-20_11h49.43.307,multiplicationStroop,2021.2.3,Win32,60.0132029,,,,,,,,,,,,,,,,,,,,,,,,,,,,,,,,,45,1.6317,1,0,29,29,22,1,9,×,5,9 × 5,incongruent,largerFirst,1,2,45,,,,,,,,
,,,,,,,,,,,,,,,742,2022-01-20_11h49.43.307,multiplicationStroop,2021.2.3,Win32,60.0132029,,,,,,,,,,,,,,,,,,,,,,,,,,,,,,,,,24,1.5656,1,0,30,30,20,1,6,×,4,6 × 4,incongruent,largerFirst,1,2,24,,,,,,,,
,,,,,,,,,,,,,,,742,2022-01-20_11h49.43.307,multiplicationStroop,2021.2.3,Win32,60.0132029,,,,,,,,,,,,,,,,,,,,,,,,,,,,,,,,,9,1.5352,1,0,31,31,29,1,3,×,3,3 × 3,incongruent,tie,1,2,9,,,,,,,,
,,,,,,,,,,,,,,,742,2022-01-20_11h49.43.307,multiplicationStroop,2021.2.3,Win32,60.0132029,,,,,,,,,,,,,,,,,,,,,,,,,,,,,,,,,27,1.9933,1,0,32,32,18,1,9,×,3,9 × 3,incongruent,largerFirst,1,2,27,,,,,,,,
,,,,,,,,,,,,,,,742,2022-01-20_11h49.43.307,multiplicationStroop,2021.2.3,Win32,60.0132029,,,,,,,,,,,,,,,,,,,,,,,,,,,,,,,,,25,1.4998,1,0,33,33,31,1,5,×,5,5 × 5,incongruent,tie,1,2,25,,,,,,,,
,,,,,,,,,,,,,,,742,2022-01-20_11h49.43.307,multiplicationStroop,2021.2.3,Win32,60.0132029,,,,,,,,,,,,,,,,,,,,,,,,,,,,,,,,,54,1.8152,1,0,34,34,6,1,6,×,9,6 × 9,incongruent,smallerFirst,2,1,54,,,,,,,,
,,,,,,,,,,,,,,,742,2022-01-20_11h49.43.307,multiplicationStroop,2021.2.3,Win32,60.0132029,,,,,,,,,,,,,,,,,,,,,,,,,,,,,,,,,28,1.696,1,0,35,35,16,1,7,×,4,7 × 4,incongruent,largerFirst,1,2,28,,,,,,,,
,,,,,,,,,,,,,,,742,2022-01-20_11h49.43.307,multiplicationStroop,2021.2.3,Win32,60.0132029,,,,,,,,,,,,,,,,,,,,,,,,,,,,,,,,,,,,,,,,,,,,,,,,,,0,0,0,5,1,stimulusFile/mult_blk6_INcongruent.xlsx,,
,,,,,,,,,,,,,,,742,2022-01-20_11h49.43.307,multiplicationStroop,2021.2.3,Win32,60.0132029,,,,,,,,,,,,,,,,,,,,,,,,,,,,,,,space,10.2977,40,1.784,1,0,0,0,24,1,8,×,5,8 × 5,neutral,largerFirst,1.5,1.5,40,,,,,,,,
,,,,,,,,,,,,,,,742,2022-01-20_11h49.43.307,multiplicationStroop,2021.2.3,Win32,60.0132029,,,,,,,,,,,,,,,,,,,,,,,,,,,,,,,,,14,1.4547,1,0,1,1,16,1,7,×,2,7 × 2,neutral,largerFirst,1.5,1.5,14,,,,,,,,
,,,,,,,,,,,,,,,742,2022-01-20_11h49.43.307,multiplicationStroop,2021.2.3,Win32,60.0132029,,,,,,,,,,,,,,,,,,,,,,,,,,,,,,,,,6,1.447,1,0,2,2,26,1,3,×,2,3 × 2,neutral,largerFirst,1.5,1.5,6,,,,,,,,
,,,,,,,,,,,,,,,742,2022-01-20_11h49.43.307,multiplicationStroop,2021.2.3,Win32,60.0132029,,,,,,,,,,,,,,,,,,,,,,,,,,,,,,,,,42,1.8149,1,0,3,3,6,1,6,×,7,6 × 7,neutral,smallerFirst,1.5,1.5,42,,,,,,,,
,,,,,,,,,,,,,,,742,2022-01-20_11h49.43.307,multiplicationStroop,2021.2.3,Win32,60.0132029,,,,,,,,,,,,,,,,,,,,,,,,,,,,,,,,,30,1.6792,1,0,4,4,19,1,6,×,5,6 × 5,neutral,largerFirst,1.5,1.5,30,,,,,,,,
,,,,,,,,,,,,,,,742,2022-01-20_11h49.43.307,multiplicationStroop,2021.2.3,Win32,60.0132029,,,,,,,,,,,,,,,,,,,,,,,,,,,,,,,,,24,1.8154,1,0,5,5,22,1,8,×,3,8 × 3,neutral,largerFirst,1.5,1.5,24,,,,,,,,
,,,,,,,,,,,,,,,742,2022-01-20_11h49.43.307,multiplicationStroop,2021.2.3,Win32,60.0132029,,,,,,,,,,,,,,,,,,,,,,,,,,,,,,,,,54,1.6154,1,0,6,6,7,1,6,×,9,6 × 9,neutral,smallerFirst,1.5,1.5,54,,,,,,,,
,,,,,,,,,,,,,,,742,2022-01-20_11h49.43.307,multiplicationStroop,2021.2.3,Win32,60.0132029,,,,,,,,,,,,,,,,,,,,,,,,,,,,,,,,,10,1.5976,1,0,7,7,4,1,2,×,5,2 × 5,neutral,smallerFirst,1.5,1.5,10,,,,,,,,
,,,,,,,,,,,,,,,742,2022-01-20_11h49.43.307,multiplicationStroop,2021.2.3,Win32,60.0132029,,,,,,,,,,,,,,,,,,,,,,,,,,,,,,,,,9,1.5159,1,0,8,8,29,1,3,×,3,3 × 3,neutral,tie,1.5,1.5,9,,,,,,,,
,,,,,,,,,,,,,,,742,2022-01-20_11h49.43.307,multiplicationStroop,2021.2.3,Win32,60.0132029,,,,,,,,,,,,,,,,,,,,,,,,,,,,,,,,,27,1.7296,1,0,9,9,14,1,9,×,3,9 × 3,neutral,largerFirst,1.5,1.5,27,,,,,,,,
,,,,,,,,,,,,,,,742,2022-01-20_11h49.43.307,multiplicationStroop,2021.2.3,Win32,60.0132029,,,,,,,,,,,,,,,,,,,,,,,,,,,,,,,,,18,1.9503,1,0,10,10,18,1,9,×,2,9 × 2,neutral,largerFirst,1.5,1.5,18,,,,,,,,
,,,,,,,,,,,,,,,742,2022-01-20_11h49.43.307,multiplicationStroop,2021.2.3,Win32,60.0132029,,,,,,,,,,,,,,,,,,,,,,,,,,,,,,,,,21,1.6146,1,0,11,11,8,1,3,×,7,3 × 7,neutral,smallerFirst,1.5,1.5,21,,,,,,,,
,,,,,,,,,,,,,,,742,2022-01-20_11h49.43.307,multiplicationStroop,2021.2.3,Win32,60.0132029,,,,,,,,,,,,,,,,,,,,,,,,,,,,,,,,,25,1.5989,1,0,12,12,31,1,5,×,5,5 × 5,neutral,tie,1.5,1.5,25,,,,,,,,
,,,,,,,,,,,,,,,742,2022-01-20_11h49.43.307,multiplicationStroop,2021.2.3,Win32,60.0132029,,,,,,,,,,,,,,,,,,,,,,,,,,,,,,,,,36,1.6296,1,0,13,13,32,1,6,×,6,6 × 6,neutral,tie,1.5,1.5,36,,,,,,,,
,,,,,,,,,,,,,,,742,2022-01-20_11h49.43.307,multiplicationStroop,2021.2.3,Win32,60.0132029,,,,,,,,,,,,,,,,,,,,,,,,,,,,,,,,,49,1.8498,1,0,14,14,33,1,7,×,7,7 × 7,neutral,tie,1.5,1.5,49,,,,,,,,
,,,,,,,,,,,,,,,742,2022-01-20_11h49.43.307,multiplicationStroop,2021.2.3,Win32,60.0132029,,,,,,,,,,,,,,,,,,,,,,,,,,,,,,,,,4,1.5019,1,0,15,15,28,1,2,×,2,2 × 2,neutral,tie,1.5,1.5,4,,,,,,,,
,,,,,,,,,,,,,,,742,2022-01-20_11h49.43.307,multiplicationStroop,2021.2.3,Win32,60.0132029,,,,,,,,,,,,,,,,,,,,,,,,,,,,,,,,,35,1.6127,1,0,16,16,1,1,5,×,7,5 × 7,neutral,smallerFirst,1.5,1.5,35,,,,,,,,
,,,,,,,,,,,,,,,742,2022-01-20_11h49.43.307,multiplicationStroop,2021.2.3,Win32,60.0132029,,,,,,,,,,,,,,,,,,,,,,,,,,,,,,,,,16,2.1686,1,0,17,17,13,1,2,×,8,2 × 8,neutral,smallerFirst,1.5,1.5,16,,,,,,,,
,,,,,,,,,,,,,,,742,2022-01-20_11h49.43.307,multiplicationStroop,2021.2.3,Win32,60.0132029,,,,,,,,,,,,,,,,,,,,,,,,,,,,,,,,,16,1.9792,1,0,18,18,30,1,4,×,4,4 × 4,neutral,tie,1.5,1.5,16,,,,,,,,
,,,,,,,,,,,,,,,742,2022-01-20_11h49.43.307,multiplicationStroop,2021.2.3,Win32,60.0132029,,,,,,,,,,,,,,,,,,,,,,,,,,,,,,,,,28,1.6155,1,0,19,19,17,1,7,×,4,7 × 4,neutral,largerFirst,1.5,1.5,28,,,,,,,,
,,,,,,,,,,,,,,,742,2022-01-20_11h49.43.307,multiplicationStroop,2021.2.3,Win32,60.0132029,,,,,,,,,,,,,,,,,,,,,,,,,,,,,,,,,81,2.2822,1,0,20,20,35,1,9,×,9,9 × 9,neutral,tie,1.5,1.5,81,,,,,,,,
,,,,,,,,,,,,,,,742,2022-01-20_11h49.43.307,multiplicationStroop,2021.2.3,Win32,60.0132029,,,,,,,,,,,,,,,,,,,,,,,,,,,,,,,,,63,1.8998,1,0,21,21,12,1,7,×,9,7 × 9,neutral,smallerFirst,1.5,1.5,63,,,,,,,,
,,,,,,,,,,,,,,,742,2022-01-20_11h49.43.307,multiplicationStroop,2021.2.3,Win32,60.0132029,,,,,,,,,,,,,,,,,,,,,,,,,,,,,,,,,64,1.9154,1,0,22,22,34,1,8,×,8,8 × 8,neutral,tie,1.5,1.5,64,,,,,,,,
,,,,,,,,,,,,,,,742,2022-01-20_11h49.43.307,multiplicationStroop,2021.2.3,Win32,60.0132029,,,,,,,,,,,,,,,,,,,,,,,,,,,,,,,,,24,1.501,1,0,23,23,2,1,4,×,6,4 × 6,neutral,smallerFirst,1.5,1.5,24,,,,,,,,
,,,,,,,,,,,,,,,742,2022-01-20_11h49.43.307,multiplicationStroop,2021.2.3,Win32,60.0132029,,,,,,,,,,,,,,,,,,,,,,,,,,,,,,,,,12,1.4801,1,0,24,24,25,1,6,×,2,6 × 2,neutral,largerFirst,1.5,1.5,12,,,,,,,,
,,,,,,,,,,,,,,,742,2022-01-20_11h49.43.307,multiplicationStroop,2021.2.3,Win32,60.0132029,,,,,,,,,,,,,,,,,,,,,,,,,,,,,,,,,56,1.6989,1,0,25,25,9,1,7,×,8,7 × 8,neutral,smallerFirst,1.5,1.5,56,,,,,,,,
,,,,,,,,,,,,,,,742,2022-01-20_11h49.43.307,multiplicationStroop,2021.2.3,Win32,60.0132029,,,,,,,,,,,,,,,,,,,,,,,,,,,,,,,,,72,1.9483,1,0,26,26,11,1,8,×,9,8 × 9,neutral,smallerFirst,1.5,1.5,72,,,,,,,,
,,,,,,,,,,,,,,,742,2022-01-20_11h49.43.307,multiplicationStroop,2021.2.3,Win32,60.0132029,,,,,,,,,,,,,,,,,,,,,,,,,,,,,,,,,15,1.4656,1,0,27,27,5,1,3,×,5,3 × 5,neutral,smallerFirst,1.5,1.5,15,,,,,,,,
,,,,,,,,,,,,,,,742,2022-01-20_11h49.43.307,multiplicationStroop,2021.2.3,Win32,60.0132029,,,,,,,,,,,,,,,,,,,,,,,,,,,,,,,,,20,1.732,1,0,28,28,20,1,5,×,4,5 × 4,neutral,largerFirst,1.5,1.5,20,,,,,,,,
,,,,,,,,,,,,,,,742,2022-01-20_11h49.43.307,multiplicationStroop,2021.2.3,Win32,60.0132029,,,,,,,,,,,,,,,,,,,,,,,,,,,,,,,,,45,1.7991,1,0,29,29,10,1,5,×,9,5 × 9,neutral,smallerFirst,1.5,1.5,45,,,,,,,,
,,,,,,,,,,,,,,,742,2022-01-20_11h49.43.307,multiplicationStroop,2021.2.3,Win32,60.0132029,,,,,,,,,,,,,,,,,,,,,,,,,,,,,,,,,48,2.4654,1,0,30,30,15,1,8,×,6,8 × 6,neutral,largerFirst,1.5,1.5,48,,,,,,,,
,,,,,,,,,,,,,,,742,2022-01-20_11h49.43.307,multiplicationStroop,2021.2.3,Win32,60.0132029,,,,,,,,,,,,,,,,,,,,,,,,,,,,,,,,,8,1.6324,1,0,31,31,3,1,2,×,4,2 × 4,neutral,smallerFirst,1.5,1.5,8,,,,,,,,
,,,,,,,,,,,,,,,742,2022-01-20_11h49.43.307,multiplicationStroop,2021.2.3,Win32,60.0132029,,,,,,,,,,,,,,,,,,,,,,,,,,,,,,,,,36,1.5987,1,0,32,32,27,1,9,×,4,9 × 4,neutral,largerFirst,1.5,1.5,36,,,,,,,,
,,,,,,,,,,,,,,,742,2022-01-20_11h49.43.307,multiplicationStroop,2021.2.3,Win32,60.0132029,,,,,,,,,,,,,,,,,,,,,,,,,,,,,,,,,12,1.3988,1,0,33,33,21,1,4,×,3,4 × 3,neutral,largerFirst,1.5,1.5,12,,,,,,,,
,,,,,,,,,,,,,,,742,2022-01-20_11h49.43.307,multiplicationStroop,2021.2.3,Win32,60.0132029,,,,,,,,,,,,,,,,,,,,,,,,,,,,,,,,,18,1.8298,1,0,34,34,0,1,3,×,6,3 × 6,neutral,smallerFirst,1.5,1.5,18,,,,,,,,
,,,,,,,,,,,,,,,742,2022-01-20_11h49.43.307,multiplicationStroop,2021.2.3,Win32,60.0132029,,,,,,,,,,,,,,,,,,,,,,,,,,,,,,,,,32,1.7673,1,0,35,35,23,1,8,×,4,8 × 4,neutral,largerFirst,1.5,1.5,32,,,,,,,,
,,,,,,,,,,,,,,,742,2022-01-20_11h49.43.307,multiplicationStroop,2021.2.3,Win32,60.0132029,,,,,,,,,,,,,,,,,,,,,,,,,,,,,,,,,,,,,,,,,,,,,,,,,,0,1,1,1,1,stimulusFile/mult_blk2.xlsx,,
,,,,,,,,,,,,,,,742,2022-01-20_11h49.43.307,multiplicationStroop,2021.2.3,Win32,60.0132029,,,,,,,,,,,,,,,,,,,,,,,,,,,,,,,space,11.0385,49,2.0649,1,0,0,0,33,1,7,×,7,7 × 7,neutral,tie,2,1,49,,,,,,,,
,,,,,,,,,,,,,,,742,2022-01-20_11h49.43.307,multiplicationStroop,2021.2.3,Win32,60.0132029,,,,,,,,,,,,,,,,,,,,,,,,,,,,,,,,,35,1.6155,1,0,1,1,1,1,5,×,7,5 × 7,congruent,smallerFirst,1,2,35,,,,,,,,
,,,,,,,,,,,,,,,742,2022-01-20_11h49.43.307,multiplicationStroop,2021.2.3,Win32,60.0132029,,,,,,,,,,,,,,,,,,,,,,,,,,,,,,,,,21,1.4155,1,0,2,2,16,1,7,×,3,7 × 3,congruent,largerFirst,2,1,21,,,,,,,,
,,,,,,,,,,,,,,,742,2022-01-20_11h49.43.307,multiplicationStroop,2021.2.3,Win32,60.0132029,,,,,,,,,,,,,,,,,,,,,,,,,,,,,,,,,81,1.8158,1,0,3,3,35,1,9,×,9,9 × 9,neutral,tie,2,1,81,,,,,,,,
,,,,,,,,,,,,,,,742,2022-01-20_11h49.43.307,multiplicationStroop,2021.2.3,Win32,60.0132029,,,,,,,,,,,,,,,,,,,,,,,,,,,,,,,,,6,1.5322,1,0,4,4,13,1,2,×,3,2 × 3,congruent,smallerFirst,1,2,6,,,,,,,,
,,,,,,,,,,,,,,,742,2022-01-20_11h49.43.307,multiplicationStroop,2021.2.3,Win32,60.0132029,,,,,,,,,,,,,,,,,,,,,,,,,,,,,,,,,9,1.3656,1,0,5,5,29,1,3,×,3,3 × 3,neutral,tie,2,1,9,,,,,,,,
,,,,,,,,,,,,,,,742,2022-01-20_11h49.43.307,multiplicationStroop,2021.2.3,Win32,60.0132029,,,,,,,,,,,,,,,,,,,,,,,,,,,,,,,,,48,1.6991,1,0,6,6,18,1,8,×,6,8 × 6,congruent,largerFirst,2,1,48,,,,,,,,
,,,,,,,,,,,,,,,742,2022-01-20_11h49.43.307,multiplicationStroop,2021.2.3,Win32,60.0132029,,,,,,,,,,,,,,,,,,,,,,,,,,,,,,,,,45,2.2989,1,0,7,7,23,1,9,×,5,9 × 5,congruent,largerFirst,2,1,45,,,,,,,,
,,,,,,,,,,,,,,,742,2022-01-20_11h49.43.307,multiplicationStroop,2021.2.3,Win32,60.0132029,,,,,,,,,,,,,,,,,,,,,,,,,,,,,,,,,27,1.8354,1,0,8,8,26,1,9,×,3,9 × 3,congruent,largerFirst,2,1,27,,,,,,,,
,,,,,,,,,,,,,,,742,2022-01-20_11h49.43.307,multiplicationStroop,2021.2.3,Win32,60.0132029,,,,,,,,,,,,,,,,,,,,,,,,,,,,,,,,,30,1.8626,1,0,9,9,15,1,6,×,5,6 × 5,congruent,largerFirst,2,1,30,,,,,,,,
,,,,,,,,,,,,,,,742,2022-01-20_11h49.43.307,multiplicationStroop,2021.2.3,Win32,60.0132029,,,,,,,,,,,,,,,,,,,,,,,,,,,,,,,,,25,1.6637,1,0,10,10,31,1,5,×,5,5 × 5,neutral,tie,2,1,25,,,,,,,,
,,,,,,,,,,,,,,,742,2022-01-20_11h49.43.307,multiplicationStroop,2021.2.3,Win32,60.0132029,,,,,,,,,,,,,,,,,,,,,,,,,,,,,,,,,4,1.4828,1,0,11,11,28,1,2,×,2,2 × 2,neutral,tie,2,1,4,,,,,,,,
,,,,,,,,,,,,,,,742,2022-01-20_11h49.43.307,multiplicationStroop,2021.2.3,Win32,60.0132029,,,,,,,,,,,,,,,,,,,,,,,,,,,,,,,,,63,1.9486,1,0,12,12,21,1,9,×,7,9 × 7,congruent,largerFirst,2,1,63,,,,,,,,
,,,,,,,,,,,,,,,742,2022-01-20_11h49.43.307,multiplicationStroop,2021.2.3,Win32,60.0132029,,,,,,,,,,,,,,,,,,,,,,,,,,,,,,,,,12,1.5794,1,0,13,13,2,1,3,×,4,3 × 4,congruent,smallerFirst,1,2,12,,,,,,,,
,,,,,,,,,,,,,,,742,2022-01-20_11h49.43.307,multiplicationStroop,2021.2.3,Win32,60.0132029,,,,,,,,,,,,,,,,,,,,,,,,,,,,,,,,,36,2.3181,1,0,14,14,32,1,6,×,6,6 × 6,neutral,tie,2,1,36,,,,,,,,
,,,,,,,,,,,,,,,742,2022-01-20_11h49.43.307,multiplicationStroop,2021.2.3,Win32,60.0132029,,,,,,,,,,,,,,,,,,,,,,,,,,,,,,,,,24,1.5819,1,0,15,15,10,1,3,×,8,3 × 8,congruent,smallerFirst,1,2,24,,,,,,,,
,,,,,,,,,,,,,,,742,2022-01-20_11h49.43.307,multiplicationStroop,2021.2.3,Win32,60.0132029,,,,,,,,,,,,,,,,,,,,,,,,,,,,,,,,,40,1.8653,1,0,16,16,6,1,5,×,8,5 × 8,congruent,smallerFirst,1,2,40,,,,,,,,
,,,,,,,,,,,,,,,742,2022-01-20_11h49.43.307,multiplicationStroop,2021.2.3,Win32,60.0132029,,,,,,,,,,,,,,,,,,,,,,,,,,,,,,,,,64,1.7342,1,0,17,17,34,1,8,×,8,8 × 8,neutral,tie,2,1,64,,,,,,,,
,,,,,,,,,,,,,,,742,2022-01-20_11h49.43.307,multiplicationStroop,2021.2.3,Win32,60.0132029,,,,,,,,,,,,,,,,,,,,,,,,,,,,,,,,,28,1.7306,1,0,18,18,27,1,7,×,4,7 × 4,congruent,largerFirst,2,1,28,,,,,,,,
,,,,,,,,,,,,,,,742,2022-01-20_11h49.43.307,multiplicationStroop,2021.2.3,Win32,60.0132029,,,,,,,,,,,,,,,,,,,,,,,,,,,,,,,,,18,1.7824,1,0,19,19,22,1,9,×,2,9 × 2,congruent,largerFirst,2,1,18,,,,,,,,
,,,,,,,,,,,,,,,742,2022-01-20_11h49.43.307,multiplicationStroop,2021.2.3,Win32,60.0132029,,,,,,,,,,,,,,,,,,,,,,,,,,,,,,,,,14,1.5153,1,0,20,20,14,1,7,×,2,7 × 2,congruent,largerFirst,2,1,14,,,,,,,,
,,,,,,,,,,,,,,,742,2022-01-20_11h49.43.307,multiplicationStroop,2021.2.3,Win32,60.0132029,,,,,,,,,,,,,,,,,,,,,,,,,,,,,,,,,18,2.6156,1,0,21,21,11,1,3,×,6,3 × 6,congruent,smallerFirst,1,2,18,,,,,,,,
,,,,,,,,,,,,,,,742,2022-01-20_11h49.43.307,multiplicationStroop,2021.2.3,Win32,60.0132029,,,,,,,,,,,,,,,,,,,,,,,,,,,,,,,,,32,1.7844,1,0,22,22,20,1,8,×,4,8 × 4,congruent,largerFirst,2,1,32,,,,,,,,
,,,,,,,,,,,,,,,742,2022-01-20_11h49.43.307,multiplicationStroop,2021.2.3,Win32,60.0132029,,,,,,,,,,,,,,,,,,,,,,,,,,,,,,,,,15,1.513,1,0,23,23,4,1,3,×,5,3 × 5,congruent,smallerFirst,1,2,15,,,,,,,,
,,,,,,,,,,,,,,,742,2022-01-20_11h49.43.307,multiplicationStroop,2021.2.3,Win32,60.0132029,,,,,,,,,,,,,,,,,,,,,,,,,,,,,,,,,56,1.5658,1,0,24,24,8,1,7,×,8,7 × 8,congruent,smallerFirst,1,2,56,,,,,,,,
,,,,,,,,,,,,,,,742,2022-01-20_11h49.43.307,multiplicationStroop,2021.2.3,Win32,60.0132029,,,,,,,,,,,,,,,,,,,,,,,,,,,,,,,,,36,2.5156,1,0,25,25,0,1,4,×,9,4 × 9,congruent,smallerFirst,1,2,36,,,,,,,,
,,,,,,,,,,,,,,,742,2022-01-20_11h49.43.307,multiplicationStroop,2021.2.3,Win32,60.0132029,,,,,,,,,,,,,,,,,,,,,,,,,,,,,,,,,42,1.8321,1,0,26,26,3,1,6,×,7,6 × 7,congruent,smallerFirst,1,2,42,,,,,,,,
,,,,,,,,,,,,,,,742,2022-01-20_11h49.43.307,multiplicationStroop,2021.2.3,Win32,60.0132029,,,,,,,,,,,,,,,,,,,,,,,,,,,,,,,,,12,1.4824,1,0,27,27,19,1,6,×,2,6 × 2,congruent,largerFirst,2,1,12,,,,,,,,
,,,,,,,,,,,,,,,742,2022-01-20_11h49.43.307,multiplicationStroop,2021.2.3,Win32,60.0132029,,,,,,,,,,,,,,,,,,,,,,,,,,,,,,,,,8,1.5989,1,0,28,28,9,1,2,×,4,2 × 4,congruent,smallerFirst,1,2,8,,,,,,,,
,,,,,,,,,,,,,,,742,2022-01-20_11h49.43.307,multiplicationStroop,2021.2.3,Win32,60.0132029,,,,,,,,,,,,,,,,,,,,,,,,,,,,,,,,,20,2.3043,1,0,29,29,7,1,4,×,5,4 × 5,congruent,smallerFirst,1,2,20,,,,,,,,
,,,,,,,,,,,,,,,742,2022-01-20_11h49.43.307,multiplicationStroop,2021.2.3,Win32,60.0132029,,,,,,,,,,,,,,,,,,,,,,,,,,,,,,,,,24,1.6263,1,0,30,30,25,1,6,×,4,6 × 4,congruent,largerFirst,2,1,24,,,,,,,,
,,,,,,,,,,,,,,,742,2022-01-20_11h49.43.307,multiplicationStroop,2021.2.3,Win32,60.0132029,,,,,,,,,,,,,,,,,,,,,,,,,,,,,,,,,72,1.7489,1,0,31,31,17,1,9,×,8,9 × 8,congruent,largerFirst,2,1,72,,,,,,,,
,,,,,,,,,,,,,,,742,2022-01-20_11h49.43.307,multiplicationStroop,2021.2.3,Win32,60.0132029,,,,,,,,,,,,,,,,,,,,,,,,,,,,,,,,,54,2.4822,1,0,32,32,12,1,6,×,9,6 × 9,congruent,smallerFirst,1,2,54,,,,,,,,
,,,,,,,,,,,,,,,742,2022-01-20_11h49.43.307,multiplicationStroop,2021.2.3,Win32,60.0132029,,,,,,,,,,,,,,,,,,,,,,,,,,,,,,,,,16,1.7154,1,0,33,33,5,1,2,×,8,2 × 8,congruent,smallerFirst,1,2,16,,,,,,,,
,,,,,,,,,,,,,,,742,2022-01-20_11h49.43.307,multiplicationStroop,2021.2.3,Win32,60.0132029,,,,,,,,,,,,,,,,,,,,,,,,,,,,,,,,,10,1.699,1,0,34,34,24,1,5,×,2,5 × 2,congruent,largerFirst,2,1,10,,,,,,,,
,,,,,,,,,,,,,,,742,2022-01-20_11h49.43.307,multiplicationStroop,2021.2.3,Win32,60.0132029,,,,,,,,,,,,,,,,,,,,,,,,,,,,,,,,,16,1.6989,1,0,35,35,30,1,4,×,4,4 × 4,neutral,tie,2,1,16,,,,,,,,
,,,,,,,,,,,,,,,742,2022-01-20_11h49.43.307,multiplicationStroop,2021.2.3,Win32,60.0132029,,,,,,,,,,,,,,,,,,,,,,,,,,,,,,,,,,,,,,,,,,,,,,,,,,0,2,2,2,1,stimulusFile/mult_blk3_congruent.xlsx,,
,,,,,,,,,,,,,,,742,2022-01-20_11h49.43.307,multiplicationStroop,2021.2.3,Win32,60.0132029,,,,,,,,,,,,,,,,,,,,,,,,,,,,,,,space,8.5292,14,1.4411,1,0,0,0,0,1,2,×,7,2 × 7,congruent,smallerFirst,1,2,14,,,,,,,,
,,,,,,,,,,,,,,,742,2022-01-20_11h49.43.307,multiplicationStroop,2021.2.3,Win32,60.0132029,,,,,,,,,,,,,,,,,,,,,,,,,,,,,,,,,6,1.3319,1,0,1,1,27,1,3,×,2,3 × 2,congruent,largerFirst,2,1,6,,,,,,,,
,,,,,,,,,,,,,,,742,2022-01-20_11h49.43.307,multiplicationStroop,2021.2.3,Win32,60.0132029,,,,,,,,,,,,,,,,,,,,,,,,,,,,,,,,,36,1.6822,1,0,2,2,32,1,6,×,6,6 × 6,neutral,tie,1,2,36,,,,,,,,
,,,,,,,,,,,,,,,742,2022-01-20_11h49.43.307,multiplicationStroop,2021.2.3,Win32,60.0132029,,,,,,,,,,,,,,,,,,,,,,,,,,,,,,,,,54,1.4848,1,0,3,3,26,1,9,×,6,9 × 6,congruent,largerFirst,2,1,54,,,,,,,,
,,,,,,,,,,,,,,,742,2022-01-20_11h49.43.307,multiplicationStroop,2021.2.3,Win32,60.0132029,,,,,,,,,,,,,,,,,,,,,,,,,,,,,,,,,72,2.7946,1,0,4,4,3,1,8,×,9,8 × 9,congruent,smallerFirst,1,2,72,,,,,,,,
,,,,,,,,,,,,,,,742,2022-01-20_11h49.43.307,multiplicationStroop,2021.2.3,Win32,60.0132029,,,,,,,,,,,,,,,,,,,,,,,,,,,,,,,,,56,1.6525,1,0,5,5,22,1,8,×,7,8 × 7,congruent,largerFirst,2,1,56,,,,,,,,
,,,,,,,,,,,,,,,742,2022-01-20_11h49.43.307,multiplicationStroop,2021.2.3,Win32,60.0132029,,,,,,,,,,,,,,,,,,,,,,,,,,,,,,,,,25,1.5127,1,0,6,6,31,1,5,×,5,5 × 5,neutral,tie,1,2,25,,,,,,,,
,,,,,,,,,,,,,,,742,2022-01-20_11h49.43.307,multiplicationStroop,2021.2.3,Win32,60.0132029,,,,,,,,,,,,,,,,,,,,,,,,,,,,,,,,,15,1.4852,1,0,7,7,18,1,5,×,3,5 × 3,congruent,largerFirst,2,1,15,,,,,,,,
,,,,,,,,,,,,,,,742,2022-01-20_11h49.43.307,multiplicationStroop,2021.2.3,Win32,60.0132029,,,,,,,,,,,,,,,,,,,,,,,,,,,,,,,,,40,1.7127,1,0,8,8,20,1,8,×,5,8 × 5,congruent,largerFirst,2,1,40,,,,,,,,
,,,,,,,,,,,,,,,742,2022-01-20_11h49.43.307,multiplicationStroop,2021.2.3,Win32,60.0132029,,,,,,,,,,,,,,,,,,,,,,,,,,,,,,,,,24,3.2986,1,0,9,9,24,1,8,×,3,8 × 3,congruent,largerFirst,2,1,24,,,,,,,,
,,,,,,,,,,,,,,,742,2022-01-20_11h49.43.307,multiplicationStroop,2021.2.3,Win32,60.0132029,,,,,,,,,,,,,,,,,,,,,,,,,,,,,,,,,12,1.4498,1,0,10,10,16,1,4,×,3,4 × 3,congruent,largerFirst,2,1,12,,,,,,,,
,,,,,,,,,,,,,,,742,2022-01-20_11h49.43.307,multiplicationStroop,2021.2.3,Win32,60.0132029,,,,,,,,,,,,,,,,,,,,,,,,,,,,,,,,,56,1.7823,0,0,11,11,17,1,7,×,6,7 × 6,congruent,largerFirst,2,1,42,,,,,,,,
,,,,,,,,,,,,,,,742,2022-01-20_11h49.43.307,multiplicationStroop,2021.2.3,Win32,60.0132029,,,,,,,,,,,,,,,,,,,,,,,,,,,,,,,,,8,2.1352,1,0,12,12,23,1,4,×,2,4 × 2,congruent,largerFirst,2,1,8,,,,,,,,
,,,,,,,,,,,,,,,742,2022-01-20_11h49.43.307,multiplicationStroop,2021.2.3,Win32,60.0132029,,,,,,,,,,,,,,,,,,,,,,,,,,,,,,,,,12,1.446,1,0,13,13,5,1,2,×,6,2 × 6,congruent,smallerFirst,1,2,12,,,,,,,,
,,,,,,,,,,,,,,,742,2022-01-20_11h49.43.307,multiplicationStroop,2021.2.3,Win32,60.0132029,,,,,,,,,,,,,,,,,,,,,,,,,,,,,,,,,21,1.7354,1,0,14,14,2,1,3,×,7,3 × 7,congruent,smallerFirst,1,2,21,,,,,,,,
,,,,,,,,,,,,,,,742,2022-01-20_11h49.43.307,multiplicationStroop,2021.2.3,Win32,60.0132029,,,,,,,,,,,,,,,,,,,,,,,,,,,,,,,,,64,1.7293,1,0,15,15,34,1,8,×,8,8 × 8,neutral,tie,1,2,64,,,,,,,,
,,,,,,,,,,,,,,,742,2022-01-20_11h49.43.307,multiplicationStroop,2021.2.3,Win32,60.0132029,,,,,,,,,,,,,,,,,,,,,,,,,,,,,,,,,18,1.7655,1,0,16,16,8,1,2,×,9,2 × 9,congruent,smallerFirst,1,2,18,,,,,,,,
,,,,,,,,,,,,,,,742,2022-01-20_11h49.43.307,multiplicationStroop,2021.2.3,Win32,60.0132029,,,,,,,,,,,,,,,,,,,,,,,,,,,,,,,,,9,1.5305,1,0,17,17,29,1,3,×,3,3 × 3,neutral,tie,1,2,9,,,,,,,,
,,,,,,,,,,,,,,,742,2022-01-20_11h49.43.307,multiplicationStroop,2021.2.3,Win32,60.0132029,,,,,,,,,,,,,,,,,,,,,,,,,,,,,,,,,10,2.0494,1,0,18,18,10,1,2,×,5,2 × 5,congruent,smallerFirst,1,2,10,,,,,,,,
,,,,,,,,,,,,,,,742,2022-01-20_11h49.43.307,multiplicationStroop,2021.2.3,Win32,60.0132029,,,,,,,,,,,,,,,,,,,,,,,,,,,,,,,,,35,1.7159,1,0,19,19,15,1,7,×,5,7 × 5,congruent,largerFirst,2,1,35,,,,,,,,
,,,,,,,,,,,,,,,742,2022-01-20_11h49.43.307,multiplicationStroop,2021.2.3,Win32,60.0132029,,,,,,,,,,,,,,,,,,,,,,,,,,,,,,,,,63,2.2988,1,0,20,20,7,1,7,×,9,7 × 9,congruent,smallerFirst,1,2,63,,,,,,,,
,,,,,,,,,,,,,,,742,2022-01-20_11h49.43.307,multiplicationStroop,2021.2.3,Win32,60.0132029,,,,,,,,,,,,,,,,,,,,,,,,,,,,,,,,,28,1.9665,1,0,21,21,13,1,4,×,7,4 × 7,congruent,smallerFirst,1,2,28,,,,,,,,
,,,,,,,,,,,,,,,742,2022-01-20_11h49.43.307,multiplicationStroop,2021.2.3,Win32,60.0132029,,,,,,,,,,,,,,,,,,,,,,,,,,,,,,,,,32,2.0012,1,0,22,22,6,1,4,×,8,4 × 8,congruent,smallerFirst,1,2,32,,,,,,,,
,,,,,,,,,,,,,,,742,2022-01-20_11h49.43.307,multiplicationStroop,2021.2.3,Win32,60.0132029,,,,,,,,,,,,,,,,,,,,,,,,,,,,,,,,,18,1.7628,1,0,23,23,25,1,6,×,3,6 × 3,congruent,largerFirst,2,1,18,,,,,,,,
,,,,,,,,,,,,,,,742,2022-01-20_11h49.43.307,multiplicationStroop,2021.2.3,Win32,60.0132029,,,,,,,,,,,,,,,,,,,,,,,,,,,,,,,,,81,1.8821,1,0,24,24,35,1,9,×,9,9 × 9,neutral,tie,1,2,81,,,,,,,,
,,,,,,,,,,,,,,,742,2022-01-20_11h49.43.307,multiplicationStroop,2021.2.3,Win32,60.0132029,,,,,,,,,,,,,,,,,,,,,,,,,,,,,,,,,27,1.7487,1,0,25,25,12,1,3,×,9,3 × 9,congruent,smallerFirst,1,2,27,,,,,,,,
,,,,,,,,,,,,,,,742,2022-01-20_11h49.43.307,multiplicationStroop,2021.2.3,Win32,60.0132029,,,,,,,,,,,,,,,,,,,,,,,,,,,,,,,,,30,1.7795,1,0,26,26,1,1,5,×,6,5 × 6,congruent,smallerFirst,1,2,30,,,,,,,,
,,,,,,,,,,,,,,,742,2022-01-20_11h49.43.307,multiplicationStroop,2021.2.3,Win32,60.0132029,,,,,,,,,,,,,,,,,,,,,,,,,,,,,,,,,45,2.5182,1,0,27,27,9,1,5,×,9,5 × 9,congruent,smallerFirst,1,2,45,,,,,,,,
,,,,,,,,,,,,,,,742,2022-01-20_11h49.43.307,multiplicationStroop,2021.2.3,Win32,60.0132029,,,,,,,,,,,,,,,,,,,,,,,,,,,,,,,,,20,1.7491,1,0,28,28,21,1,5,×,4,5 × 4,congruent,largerFirst,2,1,20,,,,,,,,
,,,,,,,,,,,,,,,742,2022-01-20_11h49.43.307,multiplicationStroop,2021.2.3,Win32,60.0132029,,,,,,,,,,,,,,,,,,,,,,,,,,,,,,,,,16,1.5824,1,0,29,29,19,1,8,×,2,8 × 2,congruent,largerFirst,2,1,16,,,,,,,,
,,,,,,,,,,,,,,,742,2022-01-20_11h49.43.307,multiplicationStroop,2021.2.3,Win32,60.0132029,,,,,,,,,,,,,,,,,,,,,,,,,,,,,,,,,36,2.7458,1,0,30,30,14,1,9,×,4,9 × 4,congruent,largerFirst,2,1,36,,,,,,,,
,,,,,,,,,,,,,,,742,2022-01-20_11h49.43.307,multiplicationStroop,2021.2.3,Win32,60.0132029,,,,,,,,,,,,,,,,,,,,,,,,,,,,,,,,,16,2.218,1,0,31,31,30,1,4,×,4,4 × 4,neutral,tie,1,2,16,,,,,,,,
,,,,,,,,,,,,,,,742,2022-01-20_11h49.43.307,multiplicationStroop,2021.2.3,Win32,60.0132029,,,,,,,,,,,,,,,,,,,,,,,,,,,,,,,,,24,1.7991,1,0,32,32,11,1,4,×,6,4 × 6,congruent,smallerFirst,1,2,24,,,,,,,,
,,,,,,,,,,,,,,,742,2022-01-20_11h49.43.307,multiplicationStroop,2021.2.3,Win32,60.0132029,,,,,,,,,,,,,,,,,,,,,,,,,,,,,,,,,4,1.4822,1,0,33,33,28,1,2,×,2,2 × 2,neutral,tie,1,2,4,,,,,,,,
,,,,,,,,,,,,,,,742,2022-01-20_11h49.43.307,multiplicationStroop,2021.2.3,Win32,60.0132029,,,,,,,,,,,,,,,,,,,,,,,,,,,,,,,,,48,1.8489,1,0,34,34,4,1,6,×,8,6 × 8,congruent,smallerFirst,1,2,48,,,,,,,,
,,,,,,,,,,,,,,,742,2022-01-20_11h49.43.307,multiplicationStroop,2021.2.3,Win32,60.0132029,,,,,,,,,,,,,,,,,,,,,,,,,,,,,,,,,49,1.7824,1,0,35,35,33,1,7,×,7,7 × 7,neutral,tie,1,2,49,,,,,,,,
,,,,,,,,,,,,,,,742,2022-01-20_11h49.43.307,multiplicationStroop,2021.2.3,Win32,60.0132029,,,,,,,,,,,,,,,,,,,,,,,,,,,,,,,,,,,,,,,,,,,,,,,,,,0,3,3,3,1,stimulusFile/mult_blk4_congruent.xlsx,,
,,,,,,,,,,,,,,,742,2022-01-20_11h49.43.307,multiplicationStroop,2021.2.3,Win32,60.0132029,,,,,,,,,,,,,,,,,,,,,,,,,,,,,,,space,3.5858,72,3.7888,1,0,0,0,25,1,9,×,8,9 × 8,neutral,largerFirst,1.5,1.5,72,,,,,,,,
,,,,,,,,,,,,,,,742,2022-01-20_11h49.43.307,multiplicationStroop,2021.2.3,Win32,60.0132029,,,,,,,,,,,,,,,,,,,,,,,,,,,,,,,,,18,2.397,1,0,1,1,14,1,6,×,3,6 × 3,neutral,largerFirst,1.5,1.5,18,,,,,,,,
,,,,,,,,,,,,,,,742,2022-01-20_11h49.43.307,multiplicationStroop,2021.2.3,Win32,60.0132029,,,,,,,,,,,,,,,,,,,,,,,,,,,,,,,,,42,1.9341,1,0,2,2,20,1,7,×,6,7 × 6,neutral,largerFirst,1.5,1.5,42,,,,,,,,
,,,,,,,,,,,,,,,742,2022-01-20_11h49.43.307,multiplicationStroop,2021.2.3,Win32,60.0132029,,,,,,,,,,,,,,,,,,,,,,,,,,,,,,,,,36,1.9989,1,0,3,3,13,1,4,×,9,4 × 9,neutral,smallerFirst,1.5,1.5,36,,,,,,,,
,,,,,,,,,,,,,,,742,2022-01-20_11h49.43.307,multiplicationStroop,2021.2.3,Win32,60.0132029,,,,,,,,,,,,,,,,,,,,,,,,,,,,,,,,,35,1.6473,1,0,4,4,15,1,7,×,5,7 × 5,neutral,largerFirst,1.5,1.5,35,,,,,,,,
,,,,,,,,,,,,,,,742,2022-01-20_11h49.43.307,multiplicationStroop,2021.2.3,Win32,60.0132029,,,,,,,,,,,,,,,,,,,,,,,,,,,,,,,,,15,1.982,1,0,5,5,19,1,5,×,3,5 × 3,neutral,largerFirst,1.5,1.5,15,,,,,,,,
,,,,,,,,,,,,,,,742,2022-01-20_11h49.43.307,multiplicationStroop,2021.2.3,Win32,60.0132029,,,,,,,,,,,,,,,,,,,,,,,,,,,,,,,,,4,1.3141,1,0,6,6,28,1,2,×,2,2 × 2,neutral,tie,1.5,1.5,4,,,,,,,,
,,,,,,,,,,,,,,,742,2022-01-20_11h49.43.307,multiplicationStroop,2021.2.3,Win32,60.0132029,,,,,,,,,,,,,,,,,,,,,,,,,,,,,,,,,24,1.4825,1,0,7,7,8,1,3,×,8,3 × 8,neutral,smallerFirst,1.5,1.5,24,,,,,,,,
,,,,,,,,,,,,,,,742,2022-01-20_11h49.43.307,multiplicationStroop,2021.2.3,Win32,60.0132029,,,,,,,,,,,,,,,,,,,,,,,,,,,,,,,,,12,1.6159,1,0,8,8,11,1,2,×,6,2 × 6,neutral,smallerFirst,1.5,1.5,12,,,,,,,,
,,,,,,,,,,,,,,,742,2022-01-20_11h49.43.307,multiplicationStroop,2021.2.3,Win32,60.0132029,,,,,,,,,,,,,,,,,,,,,,,,,,,,,,,,,25,1.8647,1,0,9,9,31,1,5,×,5,5 × 5,neutral,tie,1.5,1.5,25,,,,,,,,
,,,,,,,,,,,,,,,742,2022-01-20_11h49.43.307,multiplicationStroop,2021.2.3,Win32,60.0132029,,,,,,,,,,,,,,,,,,,,,,,,,,,,,,,,,27,1.6989,1,0,10,10,0,1,3,×,9,3 × 9,neutral,smallerFirst,1.5,1.5,27,,,,,,,,
,,,,,,,,,,,,,,,742,2022-01-20_11h49.43.307,multiplicationStroop,2021.2.3,Win32,60.0132029,,,,,,,,,,,,,,,,,,,,,,,,,,,,,,,,,14,1.5657,1,0,11,11,2,1,2,×,7,2 × 7,neutral,smallerFirst,1.5,1.5,14,,,,,,,,
,,,,,,,,,,,,,,,742,2022-01-20_11h49.43.307,multiplicationStroop,2021.2.3,Win32,60.0132029,,,,,,,,,,,,,,,,,,,,,,,,,,,,,,,,,21,1.6352,1,0,12,12,22,1,7,×,3,7 × 3,neutral,largerFirst,1.5,1.5,21,,,,,,,,
,,,,,,,,,,,,,,,742,2022-01-20_11h49.43.307,multiplicationStroop,2021.2.3,Win32,60.0132029,,,,,,,,,,,,,,,,,,,,,,,,,,,,,,,,,28,1.9458,1,0,13,13,3,1,4,×,7,4 × 7,neutral,smallerFirst,1.5,1.5,28,,,,,,,,
,,,,,,,,,,,,,,,742,2022-01-20_11h49.43.307,multiplicationStroop,2021.2.3,Win32,60.0132029,,,,,,,,,,,,,,,,,,,,,,,,,,,,,,,,,45,1.5156,1,0,14,14,24,1,9,×,5,9 × 5,neutral,largerFirst,1.5,1.5,45,,,,,,,,
,,,,,,,,,,,,,,,742,2022-01-20_11h49.43.307,multiplicationStroop,2021.2.3,Win32,60.0132029,,,,,,,,,,,,,,,,,,,,,,,,,,,,,,,,,54,1.6991,1,0,15,15,21,1,9,×,6,9 × 6,neutral,largerFirst,1.5,1.5,54,,,,,,,,
,,,,,,,,,,,,,,,742,2022-01-20_11h49.43.307,multiplicationStroop,2021.2.3,Win32,60.0132029,,,,,,,,,,,,,,,,,,,,,,,,,,,,,,,,,9,1.5159,1,0,16,16,29,1,3,×,3,3 × 3,neutral,tie,1.5,1.5,9,,,,,,,,
,,,,,,,,,,,,,,,742,2022-01-20_11h49.43.307,multiplicationStroop,2021.2.3,Win32,60.0132029,,,,,,,,,,,,,,,,,,,,,,,,,,,,,,,,,16,1.6653,1,0,17,17,27,1,8,×,2,8 × 2,neutral,largerFirst,1.5,1.5,16,,,,,,,,
,,,,,,,,,,,,,,,742,2022-01-20_11h49.43.307,multiplicationStroop,2021.2.3,Win32,60.0132029,,,,,,,,,,,,,,,,,,,,,,,,,,,,,,,,,40,1.7324,1,0,18,18,10,1,5,×,8,5 × 8,neutral,smallerFirst,1.5,1.5,40,,,,,,,,
,,,,,,,,,,,,,,,742,2022-01-20_11h49.43.307,multiplicationStroop,2021.2.3,Win32,60.0132029,,,,,,,,,,,,,,,,,,,,,,,,,,,,,,,,,20,1.7323,1,0,19,19,6,1,4,×,5,4 × 5,neutral,smallerFirst,1.5,1.5,20,,,,,,,,
,,,,,,,,,,,,,,,742,2022-01-20_11h49.43.307,multiplicationStroop,2021.2.3,Win32,60.0132029,,,,,,,,,,,,,,,,,,,,,,,,,,,,,,,,,32,1.9822,1,0,20,20,9,1,4,×,8,4 × 8,neutral,smallerFirst,1.5,1.5,32,,,,,,,,
,,,,,,,,,,,,,,,742,2022-01-20_11h49.43.307,multiplicationStroop,2021.2.3,Win32,60.0132029,,,,,,,,,,,,,,,,,,,,,,,,,,,,,,,,,12,1.5823,1,0,21,21,7,1,3,×,4,3 × 4,neutral,smallerFirst,1.5,1.5,12,,,,,,,,
,,,,,,,,,,,,,,,742,2022-01-20_11h49.43.307,multiplicationStroop,2021.2.3,Win32,60.0132029,,,,,,,,,,,,,,,,,,,,,,,,,,,,,,,,,63,1.7989,1,0,22,22,26,1,9,×,7,9 × 7,neutral,largerFirst,1.5,1.5,63,,,,,,,,
,,,,,,,,,,,,,,,742,2022-01-20_11h49.43.307,multiplicationStroop,2021.2.3,Win32,60.0132029,,,,,,,,,,,,,,,,,,,,,,,,,,,,,,,,,6,1.9653,1,0,23,23,12,1,2,×,3,2 × 3,neutral,smallerFirst,1.5,1.5,6,,,,,,,,
,,,,,,,,,,,,,,,742,2022-01-20_11h49.43.307,multiplicationStroop,2021.2.3,Win32,60.0132029,,,,,,,,,,,,,,,,,,,,,,,,,,,,,,,,,18,1.6328,1,0,24,24,4,1,2,×,9,2 × 9,neutral,smallerFirst,1.5,1.5,18,,,,,,,,
,,,,,,,,,,,,,,,742,2022-01-20_11h49.43.307,multiplicationStroop,2021.2.3,Win32,60.0132029,,,,,,,,,,,,,,,,,,,,,,,,,,,,,,,,,10,1.5489,1,0,25,25,18,1,5,×,2,5 × 2,neutral,largerFirst,1.5,1.5,10,,,,,,,,
,,,,,,,,,,,,,,,742,2022-01-20_11h49.43.307,multiplicationStroop,2021.2.3,Win32,60.0132029,,,,,,,,,,,,,,,,,,,,,,,,,,,,,,,,,49,1.8489,1,0,26,26,33,1,7,×,7,7 × 7,neutral,tie,1.5,1.5,49,,,,,,,,
,,,,,,,,,,,,,,,742,2022-01-20_11h49.43.307,multiplicationStroop,2021.2.3,Win32,60.0132029,,,,,,,,,,,,,,,,,,,,,,,,,,,,,,,,,81,1.9329,1,0,27,27,35,1,9,×,9,9 × 9,neutral,tie,1.5,1.5,81,,,,,,,,
,,,,,,,,,,,,,,,742,2022-01-20_11h49.43.307,multiplicationStroop,2021.2.3,Win32,60.0132029,,,,,,,,,,,,,,,,,,,,,,,,,,,,,,,,,8,1.5824,1,0,28,28,17,1,4,×,2,4 × 2,neutral,largerFirst,1.5,1.5,8,,,,,,,,
,,,,,,,,,,,,,,,742,2022-01-20_11h49.43.307,multiplicationStroop,2021.2.3,Win32,60.0132029,,,,,,,,,,,,,,,,,,,,,,,,,,,,,,,,,30,1.6485,1,0,29,29,5,1,5,×,6,5 × 6,neutral,smallerFirst,1.5,1.5,30,,,,,,,,
,,,,,,,,,,,,,,,742,2022-01-20_11h49.43.307,multiplicationStroop,2021.2.3,Win32,60.0132029,,,,,,,,,,,,,,,,,,,,,,,,,,,,,,,,,64,1.9017,1,0,30,30,34,1,8,×,8,8 × 8,neutral,tie,1.5,1.5,64,,,,,,,,
,,,,,,,,,,,,,,,742,2022-01-20_11h49.43.307,multiplicationStroop,2021.2.3,Win32,60.0132029,,,,,,,,,,,,,,,,,,,,,,,,,,,,,,,,,36,1.7132,1,0,31,31,32,1,6,×,6,6 × 6,neutral,tie,1.5,1.5,36,,,,,,,,
,,,,,,,,,,,,,,,742,2022-01-20_11h49.43.307,multiplicationStroop,2021.2.3,Win32,60.0132029,,,,,,,,,,,,,,,,,,,,,,,,,,,,,,,,,16,1.7337,1,0,32,32,30,1,4,×,4,4 × 4,neutral,tie,1.5,1.5,16,,,,,,,,
,,,,,,,,,,,,,,,742,2022-01-20_11h49.43.307,multiplicationStroop,2021.2.3,Win32,60.0132029,,,,,,,,,,,,,,,,,,,,,,,,,,,,,,,,,56,1.6472,1,0,33,33,23,1,8,×,7,8 × 7,neutral,largerFirst,1.5,1.5,56,,,,,,,,
,,,,,,,,,,,,,,,742,2022-01-20_11h49.43.307,multiplicationStroop,2021.2.3,Win32,60.0132029,,,,,,,,,,,,,,,,,,,,,,,,,,,,,,,,,24,2.4965,1,0,34,34,16,1,6,×,4,6 × 4,neutral,largerFirst,1.5,1.5,24,,,,,,,,
,,,,,,,,,,,,,,,742,2022-01-20_11h49.43.307,multiplicationStroop,2021.2.3,Win32,60.0132029,,,,,,,,,,,,,,,,,,,,,,,,,,,,,,,,,48,2.1503,1,0,35,35,1,1,6,×,8,6 × 8,neutral,smallerFirst,1.5,1.5,48,,,,,,,,
,,,,,,,,,,,,,,,742,2022-01-20_11h49.43.307,multiplicationStroop,2021.2.3,Win32,60.0132029,,,,,,,,,,,,,,,,,,,,,,,,,,,,,,,,,,,,,,,,,,,,,,,,,,0,4,4,0,1,stimulusFile/mult_blk1.xlsx,,
,,,,,,,,,,,,,,,742,2022-01-20_11h49.43.307,multiplicationStroop,2021.2.3,Win32,60.0132029,,,,,,,,,,,,,,,,,,,,,,,,,,,,,,,space,3.673,35,2.6132,1,0,0,0,26,1,7,×,5,7 × 5,incongruent,largerFirst,1,2,35,,,,,,,,
,,,,,,,,,,,,,,,742,2022-01-20_11h49.43.307,multiplicationStroop,2021.2.3,Win32,60.0132029,,,,,,,,,,,,,,,,,,,,,,,,,,,,,,,,,28,1.6163,1,0,1,1,2,1,4,×,7,4 × 7,incongruent,smallerFirst,2,1,28,,,,,,,,
,,,,,,,,,,,,,,,742,2022-01-20_11h49.43.307,multiplicationStroop,2021.2.3,Win32,60.0132029,,,,,,,,,,,,,,,,,,,,,,,,,,,,,,,,,18,1.6658,1,0,2,2,16,1,9,×,2,9 × 2,incongruent,largerFirst,1,2,18,,,,,,,,
,,,,,,,,,,,,,,,742,2022-01-20_11h49.43.307,multiplicationStroop,2021.2.3,Win32,60.0132029,,,,,,,,,,,,,,,,,,,,,,,,,,,,,,,,,21,1.5489,1,0,3,3,12,1,3,×,7,3 × 7,incongruent,smallerFirst,2,1,21,,,,,,,,
,,,,,,,,,,,,,,,742,2022-01-20_11h49.43.307,multiplicationStroop,2021.2.3,Win32,60.0132029,,,,,,,,,,,,,,,,,,,,,,,,,,,,,,,,,45,1.5823,1,0,4,4,8,1,5,×,9,5 × 9,incongruent,smallerFirst,2,1,45,,,,,,,,
,,,,,,,,,,,,,,,742,2022-01-20_11h49.43.307,multiplicationStroop,2021.2.3,Win32,60.0132029,,,,,,,,,,,,,,,,,,,,,,,,,,,,,,,,,14,1.5323,1,0,5,5,18,1,7,×,2,7 × 2,incongruent,largerFirst,1,2,14,,,,,,,,
,,,,,,,,,,,,,,,742,2022-01-20_11h49.43.307,multiplicationStroop,2021.2.3,Win32,60.0132029,,,,,,,,,,,,,,,,,,,,,,,,,,,,,,,,,24,1.8491,1,0,6,6,23,1,8,×,3,8 × 3,incongruent,largerFirst,1,2,24,,,,,,,,
,,,,,,,,,,,,,,,742,2022-01-20_11h49.43.307,multiplicationStroop,2021.2.3,Win32,60.0132029,,,,,,,,,,,,,,,,,,,,,,,,,,,,,,,,,25,1.6491,1,0,7,7,31,1,5,×,5,5 × 5,neutral,tie,2,1,25,,,,,,,,
,,,,,,,,,,,,,,,742,2022-01-20_11h49.43.307,multiplicationStroop,2021.2.3,Win32,60.0132029,,,,,,,,,,,,,,,,,,,,,,,,,,,,,,,,,36,1.7655,1,0,8,8,32,1,6,×,6,6 × 6,neutral,tie,2,1,36,,,,,,,,
,,,,,,,,,,,,,,,742,2022-01-20_11h49.43.307,multiplicationStroop,2021.2.3,Win32,60.0132029,,,,,,,,,,,,,,,,,,,,,,,,,,,,,,,,,12,1.8663,1,0,9,9,5,1,2,×,6,2 × 6,incongruent,smallerFirst,2,1,12,,,,,,,,
,,,,,,,,,,,,,,,742,2022-01-20_11h49.43.307,multiplicationStroop,2021.2.3,Win32,60.0132029,,,,,,,,,,,,,,,,,,,,,,,,,,,,,,,,,16,1.785,1,0,10,10,9,1,2,×,8,2 × 8,incongruent,smallerFirst,2,1,16,,,,,,,,
,,,,,,,,,,,,,,,742,2022-01-20_11h49.43.307,multiplicationStroop,2021.2.3,Win32,60.0132029,,,,,,,,,,,,,,,,,,,,,,,,,,,,,,,,,8,1.7459,1,0,11,11,10,1,2,×,4,2 × 4,incongruent,smallerFirst,2,1,8,,,,,,,,
,,,,,,,,,,,,,,,742,2022-01-20_11h49.43.307,multiplicationStroop,2021.2.3,Win32,60.0132029,,,,,,,,,,,,,,,,,,,,,,,,,,,,,,,,,30,1.782,1,0,12,12,11,1,5,×,6,5 × 6,incongruent,smallerFirst,2,1,30,,,,,,,,
,,,,,,,,,,,,,,,742,2022-01-20_11h49.43.307,multiplicationStroop,2021.2.3,Win32,60.0132029,,,,,,,,,,,,,,,,,,,,,,,,,,,,,,,,,56,1.6659,1,0,13,13,0,1,7,×,8,7 × 8,incongruent,smallerFirst,2,1,56,,,,,,,,
,,,,,,,,,,,,,,,742,2022-01-20_11h49.43.307,multiplicationStroop,2021.2.3,Win32,60.0132029,,,,,,,,,,,,,,,,,,,,,,,,,,,,,,,,,16,1.6324,1,0,14,14,30,1,4,×,4,4 × 4,neutral,tie,2,1,16,,,,,,,,
,,,,,,,,,,,,,,,742,2022-01-20_11h49.43.307,multiplicationStroop,2021.2.3,Win32,60.0132029,,,,,,,,,,,,,,,,,,,,,,,,,,,,,,,,,48,1.7346,1,0,15,15,15,1,8,×,6,8 × 6,incongruent,largerFirst,1,2,48,,,,,,,,
,,,,,,,,,,,,,,,742,2022-01-20_11h49.43.307,multiplicationStroop,2021.2.3,Win32,60.0132029,,,,,,,,,,,,,,,,,,,,,,,,,,,,,,,,,32,1.7955,1,0,16,16,21,1,8,×,4,8 × 4,incongruent,largerFirst,1,2,32,,,,,,,,
,,,,,,,,,,,,,,,742,2022-01-20_11h49.43.307,multiplicationStroop,2021.2.3,Win32,60.0132029,,,,,,,,,,,,,,,,,,,,,,,,,,,,,,,,,20,1.7199,1,0,17,17,13,1,4,×,5,4 × 5,incongruent,smallerFirst,2,1,20,,,,,,,,
,,,,,,,,,,,,,,,742,2022-01-20_11h49.43.307,multiplicationStroop,2021.2.3,Win32,60.0132029,,,,,,,,,,,,,,,,,,,,,,,,,,,,,,,,,27,1.6945,1,0,18,18,4,1,3,×,9,3 × 9,incongruent,smallerFirst,2,1,27,,,,,,,,
,,,,,,,,,,,,,,,742,2022-01-20_11h49.43.307,multiplicationStroop,2021.2.3,Win32,60.0132029,,,,,,,,,,,,,,,,,,,,,,,,,,,,,,,,,36,1.814,1,0,19,19,1,1,4,×,9,4 × 9,incongruent,smallerFirst,2,1,36,,,,,,,,
,,,,,,,,,,,,,,,742,2022-01-20_11h49.43.307,multiplicationStroop,2021.2.3,Win32,60.0132029,,,,,,,,,,,,,,,,,,,,,,,,,,,,,,,,,9,1.4991,1,0,20,20,29,1,3,×,3,3 × 3,neutral,tie,2,1,9,,,,,,,,
,,,,,,,,,,,,,,,742,2022-01-20_11h49.43.307,multiplicationStroop,2021.2.3,Win32,60.0132029,,,,,,,,,,,,,,,,,,,,,,,,,,,,,,,,,54,1.6485,1,0,21,21,20,1,9,×,6,9 × 6,incongruent,largerFirst,1,2,54,,,,,,,,
,,,,,,,,,,,,,,,742,2022-01-20_11h49.43.307,multiplicationStroop,2021.2.3,Win32,60.0132029,,,,,,,,,,,,,,,,,,,,,,,,,,,,,,,,,24,1.7354,1,0,22,22,6,1,4,×,6,4 × 6,incongruent,smallerFirst,2,1,24,,,,,,,,
,,,,,,,,,,,,,,,742,2022-01-20_11h49.43.307,multiplicationStroop,2021.2.3,Win32,60.0132029,,,,,,,,,,,,,,,,,,,,,,,,,,,,,,,,,15,1.6458,1,0,23,23,24,1,5,×,3,5 × 3,incongruent,largerFirst,1,2,15,,,,,,,,
,,,,,,,,,,,,,,,742,2022-01-20_11h49.43.307,multiplicationStroop,2021.2.3,Win32,60.0132029,,,,,,,,,,,,,,,,,,,,,,,,,,,,,,,,,4,1.4659,1,0,24,24,28,1,2,×,2,2 × 2,neutral,tie,2,1,4,,,,,,,,
,,,,,,,,,,,,,,,742,2022-01-20_11h49.43.307,multiplicationStroop,2021.2.3,Win32,60.0132029,,,,,,,,,,,,,,,,,,,,,,,,,,,,,,,,,81,2.0154,1,0,25,25,35,1,9,×,9,9 × 9,neutral,tie,2,1,81,,,,,,,,
,,,,,,,,,,,,,,,742,2022-01-20_11h49.43.307,multiplicationStroop,2021.2.3,Win32,60.0132029,,,,,,,,,,,,,,,,,,,,,,,,,,,,,,,,,42,2.965,1,0,26,26,3,1,6,×,7,6 × 7,incongruent,smallerFirst,2,1,42,,,,,,,,
,,,,,,,,,,,,,,,742,2022-01-20_11h49.43.307,multiplicationStroop,2021.2.3,Win32,60.0132029,,,,,,,,,,,,,,,,,,,,,,,,,,,,,,,,,6,1.5021,1,0,27,27,25,1,3,×,2,3 × 2,incongruent,largerFirst,1,2,6,,,,,,,,
,,,,,,,,,,,,,,,742,2022-01-20_11h49.43.307,multiplicationStroop,2021.2.3,Win32,60.0132029,,,,,,,,,,,,,,,,,,,,,,,,,,,,,,,,,49,1.7989,1,0,28,28,33,1,7,×,7,7 × 7,neutral,tie,2,1,49,,,,,,,,
,,,,,,,,,,,,,,,742,2022-01-20_11h49.43.307,multiplicationStroop,2021.2.3,Win32,60.0132029,,,,,,,,,,,,,,,,,,,,,,,,,,,,,,,,,18,2.1294,1,0,29,29,22,1,6,×,3,6 × 3,incongruent,largerFirst,1,2,18,,,,,,,,
,,,,,,,,,,,,,,,742,2022-01-20_11h49.43.307,multiplicationStroop,2021.2.3,Win32,60.0132029,,,,,,,,,,,,,,,,,,,,,,,,,,,,,,,,,64,1.9155,1,0,30,30,34,1,8,×,8,8 × 8,neutral,tie,2,1,64,,,,,,,,
,,,,,,,,,,,,,,,742,2022-01-20_11h49.43.307,multiplicationStroop,2021.2.3,Win32,60.0132029,,,,,,,,,,,,,,,,,,,,,,,,,,,,,,,,,72,1.849,1,0,31,31,14,1,9,×,8,9 × 8,incongruent,largerFirst,1,2,72,,,,,,,,
,,,,,,,,,,,,,,,742,2022-01-20_11h49.43.307,multiplicationStroop,2021.2.3,Win32,60.0132029,,,,,,,,,,,,,,,,,,,,,,,,,,,,,,,,,40,1.7825,1,0,32,32,27,1,8,×,5,8 × 5,incongruent,largerFirst,1,2,40,,,,,,,,
,,,,,,,,,,,,,,,742,2022-01-20_11h49.43.307,multiplicationStroop,2021.2.3,Win32,60.0132029,,,,,,,,,,,,,,,,,,,,,,,,,,,,,,,,,63,1.666,1,0,33,33,17,1,9,×,7,9 × 7,incongruent,largerFirst,1,2,63,,,,,,,,
,,,,,,,,,,,,,,,742,2022-01-20_11h49.43.307,multiplicationStroop,2021.2.3,Win32,60.0132029,,,,,,,,,,,,,,,,,,,,,,,,,,,,,,,,,12,1.4153,1,0,34,34,19,1,4,×,3,4 × 3,incongruent,largerFirst,1,2,12,,,,,,,,
,,,,,,,,,,,,,,,742,2022-01-20_11h49.43.307,multiplicationStroop,2021.2.3,Win32,60.0132029,,,,,,,,,,,,,,,,,,,,,,,,,,,,,,,,,10,1.5654,1,0,35,35,7,1,2,×,5,2 × 5,incongruent,smallerFirst,2,1,10,,,,,,,,
,,,,,,,,,,,,,,,742,2022-01-20_11h49.43.307,multiplicationStroop,2021.2.3,Win32,60.0132029,,,,,,,,,,,,,,,,,,,,,,,,,,,,,,,,,,,,,,,,,,,,,,,,,,0,5,5,4,1,stimulusFile/mult_blk5_INcongruent.xlsx,,
,,,,,,,,,,,,,,,742,2022-01-20_11h49.43.307,multiplicationStroop,2021.2.3,Win32,60.0132029,,,,,,,,,,,,,,,,,,,,,,,,,,,,,,,,,,,,,,,,,,,,,,,,,,,,,,,,space,13.4468