welcomeKey_resp.keys,welcomeKey_resp.rt,X Scale,Y Scale,rt_resp_4.keys,rt_resp_4.corr,rt_resp_4.rt,speedtest_2.thisRepN,speedtest_2.thisTrialN,speedtest_2.thisN,speedtest_2.thisIndex,speedtest_2.ran,numberSc,posX,positionLayout,participant,date,expName,psychopyVersion,OS,frameRate,ct_instrresp.keys,ct_instrresp.rt,key_resp_2.keys,key_resp_2.rt,ct_keyResp.keys,ct_keyResp.corr,ct_keyResp.rt,trials.thisRepN,trials.thisTrialN,trials.thisN,trials.thisIndex,trials.ran,leftNo,rightNo,displayProblem,numDistance,leftNo_size,rightNo_size,Dims,keyAnswer,TS_Loop.thisRepN,TS_Loop.thisTrialN,TS_Loop.thisN,TS_Loop.thisIndex,TS_Loop.ran,Condition,ActionInst,instrImage,mltptaskInst_resp.keys,mltptaskInst_resp.rt,continue_resp_2.keys,continue_resp_2.rt,multp_Answer,multi_RT,multiplyCorr,LoopingMultiply.thisRepN,LoopingMultiply.thisTrialN,LoopingMultiply.thisN,LoopingMultiply.thisIndex,LoopingMultiply.ran,factor1,multiplySign,factor2,multliplyProblem,physicalSize,orderOperand,sizeF1,sizeF2,mult_answer,trials_stroop.thisRepN,trials_stroop.thisTrialN,trials_stroop.thisN,trials_stroop.thisIndex,trials_stroop.ran,multiplicationFile,esckey_resp_2.keys,esckey_resp_2.rt
y,7.2416,50.8,47.7,left,1,3.6652,0,0,0,6,1,8,-200,left,743,2022-01-20_14h24.22.486,multiplicationStroop,2021.2.3,MacIntel,60.0024001,,,,,,,,,,,,,,,,,,,,,,,,,,,,,,,,,,,,,,,,,,,,,,,,,,,,,,,,,
,,,,right,1,0.4763,0,1,1,15,1,9,200,right,743,2022-01-20_14h24.22.486,multiplicationStroop,2021.2.3,MacIntel,60.0024001,,,,,,,,,,,,,,,,,,,,,,,,,,,,,,,,,,,,,,,,,,,,,,,,,,,,,,,,,
,,,,left,1,0.4289,0,2,2,0,1,1,-200,left,743,2022-01-20_14h24.22.486,multiplicationStroop,2021.2.3,MacIntel,60.0024001,,,,,,,,,,,,,,,,,,,,,,,,,,,,,,,,,,,,,,,,,,,,,,,,,,,,,,,,,
,,,,left,1,0.5223,0,3,3,5,1,7,-200,left,743,2022-01-20_14h24.22.486,multiplicationStroop,2021.2.3,MacIntel,60.0024001,,,,,,,,,,,,,,,,,,,,,,,,,,,,,,,,,,,,,,,,,,,,,,,,,,,,,,,,,
,,,,left,1,0.5374,0,4,4,4,1,6,-200,left,743,2022-01-20_14h24.22.486,multiplicationStroop,2021.2.3,MacIntel,60.0024001,,,,,,,,,,,,,,,,,,,,,,,,,,,,,,,,,,,,,,,,,,,,,,,,,,,,,,,,,
,,,,right,1,1.0846,0,5,5,10,1,3,200,right,743,2022-01-20_14h24.22.486,multiplicationStroop,2021.2.3,MacIntel,60.0024001,,,,,,,,,,,,,,,,,,,,,,,,,,,,,,,,,,,,,,,,,,,,,,,,,,,,,,,,,
,,,,left,1,0.4212,0,6,6,3,1,4,-200,left,743,2022-01-20_14h24.22.486,multiplicationStroop,2021.2.3,MacIntel,60.0024001,,,,,,,,,,,,,,,,,,,,,,,,,,,,,,,,,,,,,,,,,,,,,,,,,,,,,,,,,
,,,,left,1,0.5685,0,7,7,2,1,3,-200,left,743,2022-01-20_14h24.22.486,multiplicationStroop,2021.2.3,MacIntel,60.0024001,,,,,,,,,,,,,,,,,,,,,,,,,,,,,,,,,,,,,,,,,,,,,,,,,,,,,,,,,
,,,,right,1,0.5225,0,8,8,11,1,4,200,right,743,2022-01-20_14h24.22.486,multiplicationStroop,2021.2.3,MacIntel,60.0024001,,,,,,,,,,,,,,,,,,,,,,,,,,,,,,,,,,,,,,,,,,,,,,,,,,,,,,,,,
,,,,left,1,0.5007,0,9,9,7,1,9,-200,left,743,2022-01-20_14h24.22.486,multiplicationStroop,2021.2.3,MacIntel,60.0024001,,,,,,,,,,,,,,,,,,,,,,,,,,,,,,,,,,,,,,,,,,,,,,,,,,,,,,,,,
,,,,right,1,0.5531,0,10,10,9,1,2,200,right,743,2022-01-20_14h24.22.486,multiplicationStroop,2021.2.3,MacIntel,60.0024001,,,,,,,,,,,,,,,,,,,,,,,,,,,,,,,,,,,,,,,,,,,,,,,,,,,,,,,,,
,,,,right,1,0.4599,0,11,11,8,1,1,200,right,743,2022-01-20_14h24.22.486,multiplicationStroop,2021.2.3,MacIntel,60.0024001,,,,,,,,,,,,,,,,,,,,,,,,,,,,,,,,,,,,,,,,,,,,,,,,,,,,,,,,,
,,,,right,1,0.3764,0,12,12,14,1,8,200,right,743,2022-01-20_14h24.22.486,multiplicationStroop,2021.2.3,MacIntel,60.0024001,,,,,,,,,,,,,,,,,,,,,,,,,,,,,,,,,,,,,,,,,,,,,,,,,,,,,,,,,
,,,,left,1,0.2975,0,13,13,1,1,2,-200,left,743,2022-01-20_14h24.22.486,multiplicationStroop,2021.2.3,MacIntel,60.0024001,,,,,,,,,,,,,,,,,,,,,,,,,,,,,,,,,,,,,,,,,,,,,,,,,,,,,,,,,
,,,,right,1,0.2802,0,14,14,13,1,7,200,right,743,2022-01-20_14h24.22.486,multiplicationStroop,2021.2.3,MacIntel,60.0024001,,,,,,,,,,,,,,,,,,,,,,,,,,,,,,,,,,,,,,,,,,,,,,,,,,,,,,,,,
,,,,right,1,0.3837,0,15,15,12,1,6,200,right,743,2022-01-20_14h24.22.486,multiplicationStroop,2021.2.3,MacIntel,60.0024001,,,,,,,,,,,,,,,,,,,,,,,,,,,,,,,,,,,,,,,,,,,,,,,,,,,,,,,,,
,,,,right,1,0.3246,1,0,16,9,1,2,200,right,743,2022-01-20_14h24.22.486,multiplicationStroop,2021.2.3,MacIntel,60.0024001,,,,,,,,,,,,,,,,,,,,,,,,,,,,,,,,,,,,,,,,,,,,,,,,,,,,,,,,,
,,,,right,1,0.2895,1,1,17,11,1,4,200,right,743,2022-01-20_14h24.22.486,multiplicationStroop,2021.2.3,MacIntel,60.0024001,,,,,,,,,,,,,,,,,,,,,,,,,,,,,,,,,,,,,,,,,,,,,,,,,,,,,,,,,
,,,,left,1,0.3324,1,2,18,6,1,8,-200,left,743,2022-01-20_14h24.22.486,multiplicationStroop,2021.2.3,MacIntel,60.0024001,,,,,,,,,,,,,,,,,,,,,,,,,,,,,,,,,,,,,,,,,,,,,,,,,,,,,,,,,
,,,,left,1,0.3821,1,3,19,5,1,7,-200,left,743,2022-01-20_14h24.22.486,multiplicationStroop,2021.2.3,MacIntel,60.0024001,,,,,,,,,,,,,,,,,,,,,,,,,,,,,,,,,,,,,,,,,,,,,,,,,,,,,,,,,
,,,,left,0,0.2467,1,4,20,13,1,7,200,right,743,2022-01-20_14h24.22.486,multiplicationStroop,2021.2.3,MacIntel,60.0024001,,,,,,,,,,,,,,,,,,,,,,,,,,,,,,,,,,,,,,,,,,,,,,,,,,,,,,,,,
,,,,left,1,0.5341,1,5,21,7,1,9,-200,left,743,2022-01-20_14h24.22.486,multiplicationStroop,2021.2.3,MacIntel,60.0024001,,,,,,,,,,,,,,,,,,,,,,,,,,,,,,,,,,,,,,,,,,,,,,,,,,,,,,,,,
,,,,right,1,0.3117,1,6,22,12,1,6,200,right,743,2022-01-20_14h24.22.486,multiplicationStroop,2021.2.3,MacIntel,60.0024001,,,,,,,,,,,,,,,,,,,,,,,,,,,,,,,,,,,,,,,,,,,,,,,,,,,,,,,,,
,,,,left,1,0.3262,1,7,23,4,1,6,-200,left,743,2022-01-20_14h24.22.486,multiplicationStroop,2021.2.3,MacIntel,60.0024001,,,,,,,,,,,,,,,,,,,,,,,,,,,,,,,,,,,,,,,,,,,,,,,,,,,,,,,,,
,,,,left,1,0.3459,1,8,24,2,1,3,-200,left,743,2022-01-20_14h24.22.486,multiplicationStroop,2021.2.3,MacIntel,60.0024001,,,,,,,,,,,,,,,,,,,,,,,,,,,,,,,,,,,,,,,,,,,,,,,,,,,,,,,,,
,,,,right,1,0.295,1,9,25,8,1,1,200,right,743,2022-01-20_14h24.22.486,multiplicationStroop,2021.2.3,MacIntel,60.0024001,,,,,,,,,,,,,,,,,,,,,,,,,,,,,,,,,,,,,,,,,,,,,,,,,,,,,,,,,
,,,,left,1,0.3252,1,10,26,3,1,4,-200,left,743,2022-01-20_14h24.22.486,multiplicationStroop,2021.2.3,MacIntel,60.0024001,,,,,,,,,,,,,,,,,,,,,,,,,,,,,,,,,,,,,,,,,,,,,,,,,,,,,,,,,
,,,,left,1,0.3894,1,11,27,1,1,2,-200,left,743,2022-01-20_14h24.22.486,multiplicationStroop,2021.2.3,MacIntel,60.0024001,,,,,,,,,,,,,,,,,,,,,,,,,,,,,,,,,,,,,,,,,,,,,,,,,,,,,,,,,
,,,,right,1,0.3941,1,12,28,15,1,9,200,right,743,2022-01-20_14h24.22.486,multiplicationStroop,2021.2.3,MacIntel,60.0024001,,,,,,,,,,,,,,,,,,,,,,,,,,,,,,,,,,,,,,,,,,,,,,,,,,,,,,,,,
,,,,right,1,0.6005,1,13,29,14,1,8,200,right,743,2022-01-20_14h24.22.486,multiplicationStroop,2021.2.3,MacIntel,60.0024001,,,,,,,,,,,,,,,,,,,,,,,,,,,,,,,,,,,,,,,,,,,,,,,,,,,,,,,,,
,,,,right,1,0.6669,1,14,30,10,1,3,200,right,743,2022-01-20_14h24.22.486,multiplicationStroop,2021.2.3,MacIntel,60.0024001,,,,,,,,,,,,,,,,,,,,,,,,,,,,,,,,,,,,,,,,,,,,,,,,,,,,,,,,,
,,,,left,1,0.5068,1,15,31,0,1,1,-200,left,743,2022-01-20_14h24.22.486,multiplicationStroop,2021.2.3,MacIntel,60.0024001,,,,,,,,,,,,,,,,,,,,,,,,,,,,,,,,,,,,,,,,,,,,,,,,,,,,,,,,,
,,,,left,1,0.3767,2,0,32,7,1,9,-200,left,743,2022-01-20_14h24.22.486,multiplicationStroop,2021.2.3,MacIntel,60.0024001,,,,,,,,,,,,,,,,,,,,,,,,,,,,,,,,,,,,,,,,,,,,,,,,,,,,,,,,,
,,,,left,1,0.4521,2,1,33,3,1,4,-200,left,743,2022-01-20_14h24.22.486,multiplicationStroop,2021.2.3,MacIntel,60.0024001,,,,,,,,,,,,,,,,,,,,,,,,,,,,,,,,,,,,,,,,,,,,,,,,,,,,,,,,,
,,,,right,1,0.4443,2,2,34,14,1,8,200,right,743,2022-01-20_14h24.22.486,multiplicationStroop,2021.2.3,MacIntel,60.0024001,,,,,,,,,,,,,,,,,,,,,,,,,,,,,,,,,,,,,,,,,,,,,,,,,,,,,,,,,
,,,,left,1,0.647,2,3,35,6,1,8,-200,left,743,2022-01-20_14h24.22.486,multiplicationStroop,2021.2.3,MacIntel,60.0024001,,,,,,,,,,,,,,,,,,,,,,,,,,,,,,,,,,,,,,,,,,,,,,,,,,,,,,,,,
,,,,right,1,0.4567,2,4,36,12,1,6,200,right,743,2022-01-20_14h24.22.486,multiplicationStroop,2021.2.3,MacIntel,60.0024001,,,,,,,,,,,,,,,,,,,,,,,,,,,,,,,,,,,,,,,,,,,,,,,,,,,,,,,,,
,,,,left,1,0.5344,2,5,37,0,1,1,-200,left,743,2022-01-20_14h24.22.486,multiplicationStroop,2021.2.3,MacIntel,60.0024001,,,,,,,,,,,,,,,,,,,,,,,,,,,,,,,,,,,,,,,,,,,,,,,,,,,,,,,,,
,,,,right,1,0.4646,2,6,38,9,1,2,200,right,743,2022-01-20_14h24.22.486,multiplicationStroop,2021.2.3,MacIntel,60.0024001,,,,,,,,,,,,,,,,,,,,,,,,,,,,,,,,,,,,,,,,,,,,,,,,,,,,,,,,,
,,,,right,1,0.536,2,7,39,8,1,1,200,right,743,2022-01-20_14h24.22.486,multiplicationStroop,2021.2.3,MacIntel,60.0024001,,,,,,,,,,,,,,,,,,,,,,,,,,,,,,,,,,,,,,,,,,,,,,,,,,,,,,,,,
,,,,right,1,0.5847,2,8,40,11,1,4,200,right,743,2022-01-20_14h24.22.486,multiplicationStroop,2021.2.3,MacIntel,60.0024001,,,,,,,,,,,,,,,,,,,,,,,,,,,,,,,,,,,,,,,,,,,,,,,,,,,,,,,,,
,,,,left,1,0.5541,2,9,41,4,1,6,-200,left,743,2022-01-20_14h24.22.486,multiplicationStroop,2021.2.3,MacIntel,60.0024001,,,,,,,,,,,,,,,,,,,,,,,,,,,,,,,,,,,,,,,,,,,,,,,,,,,,,,,,,
,,,,left,1,0.4947,2,10,42,1,1,2,-200,left,743,2022-01-20_14h24.22.486,multiplicationStroop,2021.2.3,MacIntel,60.0024001,,,,,,,,,,,,,,,,,,,,,,,,,,,,,,,,,,,,,,,,,,,,,,,,,,,,,,,,,
,,,,left,1,0.3843,2,11,43,2,1,3,-200,left,743,2022-01-20_14h24.22.486,multiplicationStroop,2021.2.3,MacIntel,60.0024001,,,,,,,,,,,,,,,,,,,,,,,,,,,,,,,,,,,,,,,,,,,,,,,,,,,,,,,,,
,,,,right,1,0.4806,2,12,44,15,1,9,200,right,743,2022-01-20_14h24.22.486,multiplicationStroop,2021.2.3,MacIntel,60.0024001,,,,,,,,,,,,,,,,,,,,,,,,,,,,,,,,,,,,,,,,,,,,,,,,,,,,,,,,,
,,,,left,1,0.4214,2,13,45,5,1,7,-200,left,743,2022-01-20_14h24.22.486,multiplicationStroop,2021.2.3,MacIntel,60.0024001,,,,,,,,,,,,,,,,,,,,,,,,,,,,,,,,,,,,,,,,,,,,,,,,,,,,,,,,,
,,,,right,1,0.4025,2,14,46,13,1,7,200,right,743,2022-01-20_14h24.22.486,multiplicationStroop,2021.2.3,MacIntel,60.0024001,,,,,,,,,,,,,,,,,,,,,,,,,,,,,,,,,,,,,,,,,,,,,,,,,,,,,,,,,
,,,,right,1,0.3313,2,15,47,10,1,3,200,right,743,2022-01-20_14h24.22.486,multiplicationStroop,2021.2.3,MacIntel,60.0024001,,,,,,,,,,,,,,,,,,,,,,,,,,,,,,,,,,,,,,,,,,,,,,,,,,,,,,,,,
,,,,right,1,0.3109,3,0,48,11,1,4,200,right,743,2022-01-20_14h24.22.486,multiplicationStroop,2021.2.3,MacIntel,60.0024001,,,,,,,,,,,,,,,,,,,,,,,,,,,,,,,,,,,,,,,,,,,,,,,,,,,,,,,,,
,,,,right,1,0.485,3,1,49,13,1,7,200,right,743,2022-01-20_14h24.22.486,multiplicationStroop,2021.2.3,MacIntel,60.0024001,,,,,,,,,,,,,,,,,,,,,,,,,,,,,,,,,,,,,,,,,,,,,,,,,,,,,,,,,
,,,,right,1,0.3485,3,2,50,14,1,8,200,right,743,2022-01-20_14h24.22.486,multiplicationStroop,2021.2.3,MacIntel,60.0024001,,,,,,,,,,,,,,,,,,,,,,,,,,,,,,,,,,,,,,,,,,,,,,,,,,,,,,,,,
,,,,left,1,0.4832,3,3,51,7,1,9,-200,left,743,2022-01-20_14h24.22.486,multiplicationStroop,2021.2.3,MacIntel,60.0024001,,,,,,,,,,,,,,,,,,,,,,,,,,,,,,,,,,,,,,,,,,,,,,,,,,,,,,,,,
,,,,left,1,0.8837,3,4,52,4,1,6,-200,left,743,2022-01-20_14h24.22.486,multiplicationStroop,2021.2.3,MacIntel,60.0024001,,,,,,,,,,,,,,,,,,,,,,,,,,,,,,,,,,,,,,,,,,,,,,,,,,,,,,,,,
,,,,left,1,0.3566,3,5,53,3,1,4,-200,left,743,2022-01-20_14h24.22.486,multiplicationStroop,2021.2.3,MacIntel,60.0024001,,,,,,,,,,,,,,,,,,,,,,,,,,,,,,,,,,,,,,,,,,,,,,,,,,,,,,,,,
,,,,left,1,0.5498,3,6,54,2,1,3,-200,left,743,2022-01-20_14h24.22.486,multiplicationStroop,2021.2.3,MacIntel,60.0024001,,,,,,,,,,,,,,,,,,,,,,,,,,,,,,,,,,,,,,,,,,,,,,,,,,,,,,,,,
,,,,right,1,0.4272,3,7,55,9,1,2,200,right,743,2022-01-20_14h24.22.486,multiplicationStroop,2021.2.3,MacIntel,60.0024001,,,,,,,,,,,,,,,,,,,,,,,,,,,,,,,,,,,,,,,,,,,,,,,,,,,,,,,,,
,,,,right,1,0.4652,3,8,56,10,1,3,200,right,743,2022-01-20_14h24.22.486,multiplicationStroop,2021.2.3,MacIntel,60.0024001,,,,,,,,,,,,,,,,,,,,,,,,,,,,,,,,,,,,,,,,,,,,,,,,,,,,,,,,,
,,,,left,1,0.3511,3,9,57,5,1,7,-200,left,743,2022-01-20_14h24.22.486,multiplicationStroop,2021.2.3,MacIntel,60.0024001,,,,,,,,,,,,,,,,,,,,,,,,,,,,,,,,,,,,,,,,,,,,,,,,,,,,,,,,,
,,,,left,1,0.353,3,10,58,1,1,2,-200,left,743,2022-01-20_14h24.22.486,multiplicationStroop,2021.2.3,MacIntel,60.0024001,,,,,,,,,,,,,,,,,,,,,,,,,,,,,,,,,,,,,,,,,,,,,,,,,,,,,,,,,
,,,,right,1,0.326,3,11,59,12,1,6,200,right,743,2022-01-20_14h24.22.486,multiplicationStroop,2021.2.3,MacIntel,60.0024001,,,,,,,,,,,,,,,,,,,,,,,,,,,,,,,,,,,,,,,,,,,,,,,,,,,,,,,,,
,,,,right,1,0.3631,3,12,60,8,1,1,200,right,743,2022-01-20_14h24.22.486,multiplicationStroop,2021.2.3,MacIntel,60.0024001,,,,,,,,,,,,,,,,,,,,,,,,,,,,,,,,,,,,,,,,,,,,,,,,,,,,,,,,,
,,,,right,1,0.2877,3,13,61,15,1,9,200,right,743,2022-01-20_14h24.22.486,multiplicationStroop,2021.2.3,MacIntel,60.0024001,,,,,,,,,,,,,,,,,,,,,,,,,,,,,,,,,,,,,,,,,,,,,,,,,,,,,,,,,
,,,,left,1,0.4326,3,14,62,0,1,1,-200,left,743,2022-01-20_14h24.22.486,multiplicationStroop,2021.2.3,MacIntel,60.0024001,,,,,,,,,,,,,,,,,,,,,,,,,,,,,,,,,,,,,,,,,,,,,,,,,,,,,,,,,
,,,,left,1,0.5202,3,15,63,6,1,8,-200,left,743,2022-01-20_14h24.22.486,multiplicationStroop,2021.2.3,MacIntel,60.0024001,,,,,,,,,,,,,,,,,,,,,,,,,,,,,,,,,,,,,,,,,,,,,,,,,,,,,,,,,
,,,,,,,,,,,,,,,743,2022-01-20_14h24.22.486,multiplicationStroop,2021.2.3,MacIntel,60.0024001,space,14.6939,space,4.7951,left,1,0.8338,0,0,0,26,1,6,7,6 | 7,1,1.9756,1.4111,incongruent,left,,,,,,stimulusFile/physical.xlsx,,,,,,,,,,,,,,,,,,,,,,,,,,,,,,,
,,,,,,,,,,,,,,,743,2022-01-20_14h24.22.486,multiplicationStroop,2021.2.3,MacIntel,60.0024001,,,,,right,1,1.3482,0,1,1,60,1,3,3,3 | 3,0,1.4111,1.9756,neutral,right,,,,,,stimulusFile/physical.xlsx,,,,,,,,,,,,,,,,,,,,,,,,,,,,,,,
,,,,,,,,,,,,,,,743,2022-01-20_14h24.22.486,multiplicationStroop,2021.2.3,MacIntel,60.0024001,,,,,left,1,0.5998,0,2,2,51,1,8,8,8 | 8,0,1.9756,1.4111,neutral,left,,,,,,stimulusFile/physical.xlsx,,,,,,,,,,,,,,,,,,,,,,,,,,,,,,,
,,,,,,,,,,,,,,,743,2022-01-20_14h24.22.486,multiplicationStroop,2021.2.3,MacIntel,60.0024001,,,,,left,1,0.5105,0,3,3,7,1,9,8,9 | 8,1,1.9756,1.4111,congruent,left,,,,,,stimulusFile/physical.xlsx,,,,,,,,,,,,,,,,,,,,,,,,,,,,,,,
,,,,,,,,,,,,,,,743,2022-01-20_14h24.22.486,multiplicationStroop,2021.2.3,MacIntel,60.0024001,,,,,left,1,0.5795,0,4,4,20,1,6,1,6 | 1,5,1.9756,1.4111,congruent,left,,,,,,stimulusFile/physical.xlsx,,,,,,,,,,,,,,,,,,,,,,,,,,,,,,,
,,,,,,,,,,,,,,,743,2022-01-20_14h24.22.486,multiplicationStroop,2021.2.3,MacIntel,60.0024001,,,,,left,1,0.502,0,5,5,53,1,4,4,4 | 4,0,1.9756,1.4111,neutral,left,,,,,,stimulusFile/physical.xlsx,,,,,,,,,,,,,,,,,,,,,,,,,,,,,,,
,,,,,,,,,,,,,,,743,2022-01-20_14h24.22.486,multiplicationStroop,2021.2.3,MacIntel,60.0024001,,,,,right,1,0.4266,0,6,6,2,1,6,7,6 | 7,1,1.4111,1.9756,congruent,right,,,,,,stimulusFile/physical.xlsx,,,,,,,,,,,,,,,,,,,,,,,,,,,,,,,
,,,,,,,,,,,,,,,743,2022-01-20_14h24.22.486,multiplicationStroop,2021.2.3,MacIntel,60.0024001,,,,,right,1,0.5519,0,7,7,8,1,1,3,1 | 3,2,1.4111,1.9756,congruent,right,,,,,,stimulusFile/physical.xlsx,,,,,,,,,,,,,,,,,,,,,,,,,,,,,,,
,,,,,,,,,,,,,,,743,2022-01-20_14h24.22.486,multiplicationStroop,2021.2.3,MacIntel,60.0024001,,,,,left,1,0.4408,0,8,8,13,1,4,2,4 | 2,2,1.9756,1.4111,congruent,left,,,,,,stimulusFile/physical.xlsx,,,,,,,,,,,,,,,,,,,,,,,,,,,,,,,
,,,,,,,,,,,,,,,743,2022-01-20_14h24.22.486,multiplicationStroop,2021.2.3,MacIntel,60.0024001,,,,,left,1,0.4525,0,9,9,42,1,3,8,3 | 8,5,1.9756,1.4111,incongruent,left,,,,,,stimulusFile/physical.xlsx,,,,,,,,,,,,,,,,,,,,,,,,,,,,,,,
,,,,,,,,,,,,,,,743,2022-01-20_14h24.22.486,multiplicationStroop,2021.2.3,MacIntel,60.0024001,,,,,right,1,0.4632,0,10,10,63,1,9,9,9 | 9,0,1.4111,1.9756,neutral,right,,,,,,stimulusFile/physical.xlsx,,,,,,,,,,,,,,,,,,,,,,,,,,,,,,,
,,,,,,,,,,,,,,,743,2022-01-20_14h24.22.486,multiplicationStroop,2021.2.3,MacIntel,60.0024001,,,,,left,1,0.5147,0,11,11,14,1,8,6,8 | 6,2,1.9756,1.4111,congruent,left,,,,,,stimulusFile/physical.xlsx,,,,,,,,,,,,,,,,,,,,,,,,,,,,,,,
,,,,,,,,,,,,,,,743,2022-01-20_14h24.22.486,multiplicationStroop,2021.2.3,MacIntel,60.0024001,,,,,left,1,0.473,0,12,12,6,1,7,6,7 | 6,1,1.9756,1.4111,congruent,left,,,,,,stimulusFile/physical.xlsx,,,,,,,,,,,,,,,,,,,,,,,,,,,,,,,
,,,,,,,,,,,,,,,743,2022-01-20_14h24.22.486,multiplicationStroop,2021.2.3,MacIntel,60.0024001,,,,,left,1,0.5001,0,13,13,43,1,4,9,4 | 9,5,1.9756,1.4111,incongruent,left,,,,,,stimulusFile/physical.xlsx,,,,,,,,,,,,,,,,,,,,,,,,,,,,,,,
,,,,,,,,,,,,,,,743,2022-01-20_14h24.22.486,multiplicationStroop,2021.2.3,MacIntel,60.0024001,,,,,left,1,0.5155,0,14,14,4,1,2,1,2 | 1,1,1.9756,1.4111,congruent,left,,,,,,stimulusFile/physical.xlsx,,,,,,,,,,,,,,,,,,,,,,,,,,,,,,,
,,,,,,,,,,,,,,,743,2022-01-20_14h24.22.486,multiplicationStroop,2021.2.3,MacIntel,60.0024001,,,,,right,1,0.727,0,15,15,39,1,9,7,9 | 7,2,1.4111,1.9756,incongruent,right,,,,,,stimulusFile/physical.xlsx,,,,,,,,,,,,,,,,,,,,,,,,,,,,,,,
,,,,,,,,,,,,,,,743,2022-01-20_14h24.22.486,multiplicationStroop,2021.2.3,MacIntel,60.0024001,,,,,left,1,0.8809,0,16,16,21,1,7,2,7 | 2,5,1.9756,1.4111,congruent,left,,,,,,stimulusFile/physical.xlsx,,,,,,,,,,,,,,,,,,,,,,,,,,,,,,,
,,,,,,,,,,,,,,,743,2022-01-20_14h24.22.486,multiplicationStroop,2021.2.3,MacIntel,60.0024001,,,,,right,1,0.6591,0,17,17,19,1,4,9,4 | 9,5,1.4111,1.9756,congruent,right,,,,,,stimulusFile/physical.xlsx,,,,,,,,,,,,,,,,,,,,,,,,,,,,,,,
,,,,,,,,,,,,,,,743,2022-01-20_14h24.22.486,multiplicationStroop,2021.2.3,MacIntel,60.0024001,,,,,right,1,0.9439,0,18,18,29,1,4,3,4 | 3,1,1.4111,1.9756,incongruent,right,,,,,,stimulusFile/physical.xlsx,,,,,,,,,,,,,,,,,,,,,,,,,,,,,,,
,,,,,,,,,,,,,,,743,2022-01-20_14h24.22.486,multiplicationStroop,2021.2.3,MacIntel,60.0024001,,,,,right,0,0.635,0,19,19,69,1,7,7,7 | 7,0,1.4111,1.9756,neutral,left,,,,,,stimulusFile/physical.xlsx,,,,,,,,,,,,,,,,,,,,,,,,,,,,,,,
,,,,,,,,,,,,,,,743,2022-01-20_14h24.22.486,multiplicationStroop,2021.2.3,MacIntel,60.0024001,,,,,left,1,0.8957,0,20,20,25,1,3,4,3 | 4,1,1.9756,1.4111,incongruent,left,,,,,,stimulusFile/physical.xlsx,,,,,,,,,,,,,,,,,,,,,,,,,,,,,,,
,,,,,,,,,,,,,,,743,2022-01-20_14h24.22.486,multiplicationStroop,2021.2.3,MacIntel,60.0024001,,,,,right,1,0.9243,0,21,21,31,1,9,8,9 | 8,1,1.4111,1.9756,incongruent,right,,,,,,stimulusFile/physical.xlsx,,,,,,,,,,,,,,,,,,,,,,,,,,,,,,,
,,,,,,,,,,,,,,,743,2022-01-20_14h24.22.486,multiplicationStroop,2021.2.3,MacIntel,60.0024001,,,,,right,1,0.7179,0,22,22,0,1,1,2,1 | 2,1,1.4111,1.9756,congruent,right,,,,,,stimulusFile/physical.xlsx,,,,,,,,,,,,,,,,,,,,,,,,,,,,,,,
,,,,,,,,,,,,,,,743,2022-01-20_14h24.22.486,multiplicationStroop,2021.2.3,MacIntel,60.0024001,,,,,right,1,0.5683,0,23,23,65,1,2,2,2 | 2,0,1.4111,1.9756,neutral,right,,,,,,stimulusFile/physical.xlsx,,,,,,,,,,,,,,,,,,,,,,,,,,,,,,,
,,,,,,,,,,,,,,,743,2022-01-20_14h24.22.486,multiplicationStroop,2021.2.3,MacIntel,60.0024001,,,,,right,1,0.9551,0,24,24,36,1,3,1,3 | 1,2,1.4111,1.9756,incongruent,right,,,,,,stimulusFile/physical.xlsx,,,,,,,,,,,,,,,,,,,,,,,,,,,,,,,
,,,,,,,,,,,,,,,743,2022-01-20_14h24.22.486,multiplicationStroop,2021.2.3,MacIntel,60.0024001,,,,,right,1,0.5171,0,25,25,30,1,7,6,7 | 6,1,1.4111,1.9756,incongruent,right,,,,,,stimulusFile/physical.xlsx,,,,,,,,,,,,,,,,,,,,,,,,,,,,,,,
,,,,,,,,,,,,,,,743,2022-01-20_14h24.22.486,multiplicationStroop,2021.2.3,MacIntel,60.0024001,,,,,left,1,0.5976,0,26,26,24,1,1,2,1 | 2,1,1.9756,1.4111,incongruent,left,,,,,,stimulusFile/physical.xlsx,,,,,,,,,,,,,,,,,,,,,,,,,,,,,,,
,,,,,,,,,,,,,,,743,2022-01-20_14h24.22.486,multiplicationStroop,2021.2.3,MacIntel,60.0024001,,,,,left,0,0.5531,0,27,27,64,1,1,1,1 | 1,0,1.9756,1.4111,neutral,right,,,,,,stimulusFile/physical.xlsx,,,,,,,,,,,,,,,,,,,,,,,,,,,,,,,
,,,,,,,,,,,,,,,743,2022-01-20_14h24.22.486,multiplicationStroop,2021.2.3,MacIntel,60.0024001,,,,,right,1,0.4646,0,28,28,45,1,7,2,7 | 2,5,1.4111,1.9756,incongruent,right,,,,,,stimulusFile/physical.xlsx,,,,,,,,,,,,,,,,,,,,,,,,,,,,,,,
,,,,,,,,,,,,,,,743,2022-01-20_14h24.22.486,multiplicationStroop,2021.2.3,MacIntel,60.0024001,,,,,left,1,0.5808,0,29,29,40,1,1,6,1 | 6,5,1.9756,1.4111,incongruent,left,,,,,,stimulusFile/physical.xlsx,,,,,,,,,,,,,,,,,,,,,,,,,,,,,,,
,,,,,,,,,,,,,,,743,2022-01-20_14h24.22.486,multiplicationStroop,2021.2.3,MacIntel,60.0024001,,,,,left,1,0.5113,0,30,30,15,1,9,7,9 | 7,2,1.9756,1.4111,congruent,left,,,,,,stimulusFile/physical.xlsx,,,,,,,,,,,,,,,,,,,,,,,,,,,,,,,
,,,,,,,,,,,,,,,743,2022-01-20_14h24.22.486,multiplicationStroop,2021.2.3,MacIntel,60.0024001,,,,,left,1,0.5703,0,31,31,27,1,8,9,8 | 9,1,1.9756,1.4111,incongruent,left,,,,,,stimulusFile/physical.xlsx,,,,,,,,,,,,,,,,,,,,,,,,,,,,,,,
,,,,,,,,,,,,,,,743,2022-01-20_14h24.22.486,multiplicationStroop,2021.2.3,MacIntel,60.0024001,,,,,right,1,0.5661,0,32,32,11,1,7,9,7 | 9,2,1.4111,1.9756,congruent,right,,,,,,stimulusFile/physical.xlsx,,,,,,,,,,,,,,,,,,,,,,,,,,,,,,,
,,,,,,,,,,,,,,,743,2022-01-20_14h24.22.486,multiplicationStroop,2021.2.3,MacIntel,60.0024001,,,,,left,1,0.4167,0,33,33,55,1,9,9,9 | 9,0,1.9756,1.4111,neutral,left,,,,,,stimulusFile/physical.xlsx,,,,,,,,,,,,,,,,,,,,,,,,,,,,,,,
,,,,,,,,,,,,,,,743,2022-01-20_14h24.22.486,multiplicationStroop,2021.2.3,MacIntel,60.0024001,,,,,left,0,0.4611,0,34,34,66,1,3,3,3 | 3,0,1.9756,1.4111,neutral,right,,,,,,stimulusFile/physical.xlsx,,,,,,,,,,,,,,,,,,,,,,,,,,,,,,,
,,,,,,,,,,,,,,,743,2022-01-20_14h24.22.486,multiplicationStroop,2021.2.3,MacIntel,60.0024001,,,,,left,1,0.4834,0,35,35,54,1,7,7,7 | 7,0,1.9756,1.4111,neutral,left,,,,,,stimulusFile/physical.xlsx,,,,,,,,,,,,,,,,,,,,,,,,,,,,,,,
,,,,,,,,,,,,,,,743,2022-01-20_14h24.22.486,multiplicationStroop,2021.2.3,MacIntel,60.0024001,,,,,right,1,0.5165,0,36,36,18,1,3,8,3 | 8,5,1.4111,1.9756,congruent,right,,,,,,stimulusFile/physical.xlsx,,,,,,,,,,,,,,,,,,,,,,,,,,,,,,,
,,,,,,,,,,,,,,,743,2022-01-20_14h24.22.486,multiplicationStroop,2021.2.3,MacIntel,60.0024001,,,,,left,1,0.4977,0,37,37,41,1,2,7,2 | 7,5,1.9756,1.4111,incongruent,left,,,,,,stimulusFile/physical.xlsx,,,,,,,,,,,,,,,,,,,,,,,,,,,,,,,
,,,,,,,,,,,,,,,743,2022-01-20_14h24.22.486,multiplicationStroop,2021.2.3,MacIntel,60.0024001,,,,,right,0,0.6458,0,38,38,71,1,9,9,9 | 9,0,1.4111,1.9756,neutral,left,,,,,,stimulusFile/physical.xlsx,,,,,,,,,,,,,,,,,,,,,,,,,,,,,,,
,,,,,,,,,,,,,,,743,2022-01-20_14h24.22.486,multiplicationStroop,2021.2.3,MacIntel,60.0024001,,,,,right,1,0.5514,0,39,39,61,1,4,4,4 | 4,0,1.4111,1.9756,neutral,right,,,,,,stimulusFile/physical.xlsx,,,,,,,,,,,,,,,,,,,,,,,,,,,,,,,
,,,,,,,,,,,,,,,743,2022-01-20_14h24.22.486,multiplicationStroop,2021.2.3,MacIntel,60.0024001,,,,,left,0,0.4594,0,40,40,3,1,8,9,8 | 9,1,1.4111,1.9756,congruent,right,,,,,,stimulusFile/physical.xlsx,,,,,,,,,,,,,,,,,,,,,,,,,,,,,,,
,,,,,,,,,,,,,,,743,2022-01-20_14h24.22.486,multiplicationStroop,2021.2.3,MacIntel,60.0024001,,,,,left,1,0.4807,0,41,41,32,1,1,3,1 | 3,2,1.9756,1.4111,incongruent,left,,,,,,stimulusFile/physical.xlsx,,,,,,,,,,,,,,,,,,,,,,,,,,,,,,,
,,,,,,,,,,,,,,,743,2022-01-20_14h24.22.486,multiplicationStroop,2021.2.3,MacIntel,60.0024001,,,,,left,1,0.4221,0,42,42,5,1,4,3,4 | 3,1,1.9756,1.4111,congruent,left,,,,,,stimulusFile/physical.xlsx,,,,,,,,,,,,,,,,,,,,,,,,,,,,,,,
,,,,,,,,,,,,,,,743,2022-01-20_14h24.22.486,multiplicationStroop,2021.2.3,MacIntel,60.0024001,,,,,right,1,0.5383,0,43,43,1,1,3,4,3 | 4,1,1.4111,1.9756,congruent,right,,,,,,stimulusFile/physical.xlsx,,,,,,,,,,,,,,,,,,,,,,,,,,,,,,,
,,,,,,,,,,,,,,,743,2022-01-20_14h24.22.486,multiplicationStroop,2021.2.3,MacIntel,60.0024001,,,,,right,1,0.633,0,44,44,16,1,1,6,1 | 6,5,1.4111,1.9756,congruent,right,,,,,,stimulusFile/physical.xlsx,,,,,,,,,,,,,,,,,,,,,,,,,,,,,,,
,,,,,,,,,,,,,,,743,2022-01-20_14h24.22.486,multiplicationStroop,2021.2.3,MacIntel,60.0024001,,,,,right,1,0.6261,0,45,45,59,1,7,7,7 | 7,0,1.4111,1.9756,neutral,right,,,,,,stimulusFile/physical.xlsx,,,,,,,,,,,,,,,,,,,,,,,,,,,,,,,
,,,,,,,,,,,,,,,743,2022-01-20_14h24.22.486,multiplicationStroop,2021.2.3,MacIntel,60.0024001,,,,,left,1,0.5526,0,46,46,22,1,8,3,8 | 3,5,1.9756,1.4111,congruent,left,,,,,,stimulusFile/physical.xlsx,,,,,,,,,,,,,,,,,,,,,,,,,,,,,,,
,,,,,,,,,,,,,,,743,2022-01-20_14h24.22.486,multiplicationStroop,2021.2.3,MacIntel,60.0024001,,,,,left,1,1.1137,0,47,47,35,1,7,9,7 | 9,2,1.9756,1.4111,incongruent,left,,,,,,stimulusFile/physical.xlsx,,,,,,,,,,,,,,,,,,,,,,,,,,,,,,,
,,,,,,,,,,,,,,,743,2022-01-20_14h24.22.486,multiplicationStroop,2021.2.3,MacIntel,60.0024001,,,,,right,1,0.7026,0,48,48,9,1,2,4,2 | 4,2,1.4111,1.9756,congruent,right,,,,,,stimulusFile/physical.xlsx,,,,,,,,,,,,,,,,,,,,,,,,,,,,,,,
,,,,,,,,,,,,,,,743,2022-01-20_14h24.22.486,multiplicationStroop,2021.2.3,MacIntel,60.0024001,,,,,right,1,0.7803,0,49,49,67,1,4,4,4 | 4,0,1.4111,1.9756,neutral,right,,,,,,stimulusFile/physical.xlsx,,,,,,,,,,,,,,,,,,,,,,,,,,,,,,,
,,,,,,,,,,,,,,,743,2022-01-20_14h24.22.486,multiplicationStroop,2021.2.3,MacIntel,60.0024001,,,,,right,1,1.4186,0,50,50,57,1,2,2,2 | 2,0,1.4111,1.9756,neutral,right,,,,,,stimulusFile/physical.xlsx,,,,,,,,,,,,,,,,,,,,,,,,,,,,,,,
,,,,,,,,,,,,,,,743,2022-01-20_14h24.22.486,multiplicationStroop,2021.2.3,MacIntel,60.0024001,,,,,left,1,0.8774,0,51,51,34,1,6,8,6 | 8,2,1.9756,1.4111,incongruent,left,,,,,,stimulusFile/physical.xlsx,,,,,,,,,,,,,,,,,,,,,,,,,,,,,,,
,,,,,,,,,,,,,,,743,2022-01-20_14h24.22.486,multiplicationStroop,2021.2.3,MacIntel,60.0024001,,,,,left,1,0.5048,0,52,52,70,1,8,8,8 | 8,0,1.9756,1.4111,neutral,left,,,,,,stimulusFile/physical.xlsx,,,,,,,,,,,,,,,,,,,,,,,,,,,,,,,
,,,,,,,,,,,,,,,743,2022-01-20_14h24.22.486,multiplicationStroop,2021.2.3,MacIntel,60.0024001,,,,,right,1,0.6392,0,53,53,37,1,4,2,4 | 2,2,1.4111,1.9756,incongruent,right,,,,,,stimulusFile/physical.xlsx,,,,,,,,,,,,,,,,,,,,,,,,,,,,,,,
,,,,,,,,,,,,,,,743,2022-01-20_14h24.22.486,multiplicationStroop,2021.2.3,MacIntel,60.0024001,,,,,right,1,0.6998,0,54,54,58,1,6,6,6 | 6,0,1.4111,1.9756,neutral,right,,,,,,stimulusFile/physical.xlsx,,,,,,,,,,,,,,,,,,,,,,,,,,,,,,,
,,,,,,,,,,,,,,,743,2022-01-20_14h24.22.486,multiplicationStroop,2021.2.3,MacIntel,60.0024001,,,,,left,1,0.4499,0,55,55,48,1,1,1,1 | 1,0,1.9756,1.4111,neutral,left,,,,,,stimulusFile/physical.xlsx,,,,,,,,,,,,,,,,,,,,,,,,,,,,,,,
,,,,,,,,,,,,,,,743,2022-01-20_14h24.22.486,multiplicationStroop,2021.2.3,MacIntel,60.0024001,,,,,right,1,0.5174,0,56,56,62,1,8,8,8 | 8,0,1.4111,1.9756,neutral,right,,,,,,stimulusFile/physical.xlsx,,,,,,,,,,,,,,,,,,,,,,,,,,,,,,,
,,,,,,,,,,,,,,,743,2022-01-20_14h24.22.486,multiplicationStroop,2021.2.3,MacIntel,60.0024001,,,,,left,0,0.4835,0,57,57,56,1,1,1,1 | 1,0,1.4111,1.9756,neutral,right,,,,,,stimulusFile/physical.xlsx,,,,,,,,,,,,,,,,,,,,,,,,,,,,,,,
,,,,,,,,,,,,,,,743,2022-01-20_14h24.22.486,multiplicationStroop,2021.2.3,MacIntel,60.0024001,,,,,right,1,0.5666,0,58,58,44,1,6,1,6 | 1,5,1.4111,1.9756,incongruent,right,,,,,,stimulusFile/physical.xlsx,,,,,,,,,,,,,,,,,,,,,,,,,,,,,,,
,,,,,,,,,,,,,,,743,2022-01-20_14h24.22.486,multiplicationStroop,2021.2.3,MacIntel,60.0024001,,,,,right,1,0.8001,0,59,59,28,1,2,1,2 | 1,1,1.4111,1.9756,incongruent,right,,,,,,stimulusFile/physical.xlsx,,,,,,,,,,,,,,,,,,,,,,,,,,,,,,,
,,,,,,,,,,,,,,,743,2022-01-20_14h24.22.486,multiplicationStroop,2021.2.3,MacIntel,60.0024001,,,,,right,1,0.7822,0,60,60,47,1,9,4,9 | 4,5,1.4111,1.9756,incongruent,right,,,,,,stimulusFile/physical.xlsx,,,,,,,,,,,,,,,,,,,,,,,,,,,,,,,
,,,,,,,,,,,,,,,743,2022-01-20_14h24.22.486,multiplicationStroop,2021.2.3,MacIntel,60.0024001,,,,,left,1,0.7113,0,61,61,33,1,2,4,2 | 4,2,1.9756,1.4111,incongruent,left,,,,,,stimulusFile/physical.xlsx,,,,,,,,,,,,,,,,,,,,,,,,,,,,,,,
,,,,,,,,,,,,,,,743,2022-01-20_14h24.22.486,multiplicationStroop,2021.2.3,MacIntel,60.0024001,,,,,left,1,0.9323,0,62,62,23,1,9,4,9 | 4,5,1.9756,1.4111,congruent,left,,,,,,stimulusFile/physical.xlsx,,,,,,,,,,,,,,,,,,,,,,,,,,,,,,,
,,,,,,,,,,,,,,,743,2022-01-20_14h24.22.486,multiplicationStroop,2021.2.3,MacIntel,60.0024001,,,,,right,1,0.9629,0,63,63,38,1,8,6,8 | 6,2,1.4111,1.9756,incongruent,right,,,,,,stimulusFile/physical.xlsx,,,,,,,,,,,,,,,,,,,,,,,,,,,,,,,
,,,,,,,,,,,,,,,743,2022-01-20_14h24.22.486,multiplicationStroop,2021.2.3,MacIntel,60.0024001,,,,,right,1,0.654,0,64,64,46,1,8,3,8 | 3,5,1.4111,1.9756,incongruent,right,,,,,,stimulusFile/physical.xlsx,,,,,,,,,,,,,,,,,,,,,,,,,,,,,,,
,,,,,,,,,,,,,,,743,2022-01-20_14h24.22.486,multiplicationStroop,2021.2.3,MacIntel,60.0024001,,,,,left,1,0.504,0,65,65,50,1,6,6,6 | 6,0,1.9756,1.4111,neutral,left,,,,,,stimulusFile/physical.xlsx,,,,,,,,,,,,,,,,,,,,,,,,,,,,,,,
,,,,,,,,,,,,,,,743,2022-01-20_14h24.22.486,multiplicationStroop,2021.2.3,MacIntel,60.0024001,,,,,left,1,0.4601,0,66,66,49,1,3,3,3 | 3,0,1.9756,1.4111,neutral,left,,,,,,stimulusFile/physical.xlsx,,,,,,,,,,,,,,,,,,,,,,,,,,,,,,,
,,,,,,,,,,,,,,,743,2022-01-20_14h24.22.486,multiplicationStroop,2021.2.3,MacIntel,60.0024001,,,,,right,1,1.0326,0,67,67,17,1,2,7,2 | 7,5,1.4111,1.9756,congruent,right,,,,,,stimulusFile/physical.xlsx,,,,,,,,,,,,,,,,,,,,,,,,,,,,,,,
,,,,,,,,,,,,,,,743,2022-01-20_14h24.22.486,multiplicationStroop,2021.2.3,MacIntel,60.0024001,,,,,left,1,0.5348,0,68,68,52,1,2,2,2 | 2,0,1.9756,1.4111,neutral,left,,,,,,stimulusFile/physical.xlsx,,,,,,,,,,,,,,,,,,,,,,,,,,,,,,,
,,,,,,,,,,,,,,,743,2022-01-20_14h24.22.486,multiplicationStroop,2021.2.3,MacIntel,60.0024001,,,,,right,1,0.5981,0,69,69,10,1,6,8,6 | 8,2,1.4111,1.9756,congruent,right,,,,,,stimulusFile/physical.xlsx,,,,,,,,,,,,,,,,,,,,,,,,,,,,,,,
,,,,,,,,,,,,,,,743,2022-01-20_14h24.22.486,multiplicationStroop,2021.2.3,MacIntel,60.0024001,,,,,left,1,0.4521,0,70,70,68,1,6,6,6 | 6,0,1.9756,1.4111,neutral,left,,,,,,stimulusFile/physical.xlsx,,,,,,,,,,,,,,,,,,,,,,,,,,,,,,,
,,,,,,,,,,,,,,,743,2022-01-20_14h24.22.486,multiplicationStroop,2021.2.3,MacIntel,60.0024001,,,,,left,1,0.6663,0,71,71,12,1,3,1,3 | 1,2,1.9756,1.4111,congruent,left,,,,,,stimulusFile/physical.xlsx,,,,,,,,,,,,,,,,,,,,,,,,,,,,,,,
,,,,,,,,,,,,,,,743,2022-01-20_14h24.22.486,multiplicationStroop,2021.2.3,MacIntel,60.0024001,,,,,,,,,,,,,,,,,,,,,0,0,0,1,1,stimulusFile/physical.xlsx,PHYSICALLY larger (larger font size).,images/physicallyLarger.png,,,,,,,,,,,,,,,,,,,,,,,,,,,,,
,,,,,,,,,,,,,,,743,2022-01-20_14h24.22.486,multiplicationStroop,2021.2.3,MacIntel,60.0024001,space,6.2326,space,2.4155,left,1,0.5871,0,0,0,6,1,7,6,7 | 6,1,1.9756,1.4111,congruent,left,,,,,,stimulusFile/magnitude.xlsx,,,,,,,,,,,,,,,,,,,,,,,,,,,,,,,
,,,,,,,,,,,,,,,743,2022-01-20_14h24.22.486,multiplicationStroop,2021.2.3,MacIntel,60.0024001,,,,,left,1,0.4266,0,1,1,13,1,4,2,4 | 2,2,1.9756,1.4111,congruent,left,,,,,,stimulusFile/magnitude.xlsx,,,,,,,,,,,,,,,,,,,,,,,,,,,,,,,
,,,,,,,,,,,,,,,743,2022-01-20_14h24.22.486,multiplicationStroop,2021.2.3,MacIntel,60.0024001,,,,,right,1,0.5287,0,2,2,0,1,1,2,1 | 2,1,1.4111,1.9756,congruent,right,,,,,,stimulusFile/magnitude.xlsx,,,,,,,,,,,,,,,,,,,,,,,,,,,,,,,
,,,,,,,,,,,,,,,743,2022-01-20_14h24.22.486,multiplicationStroop,2021.2.3,MacIntel,60.0024001,,,,,left,1,0.4772,0,3,3,14,1,8,6,8 | 6,2,1.9756,1.4111,congruent,left,,,,,,stimulusFile/magnitude.xlsx,,,,,,,,,,,,,,,,,,,,,,,,,,,,,,,
,,,,,,,,,,,,,,,743,2022-01-20_14h24.22.486,multiplicationStroop,2021.2.3,MacIntel,60.0024001,,,,,right,1,0.4655,0,4,4,8,1,1,3,1 | 3,2,1.4111,1.9756,congruent,right,,,,,,stimulusFile/magnitude.xlsx,,,,,,,,,,,,,,,,,,,,,,,,,,,,,,,
,,,,,,,,,,,,,,,743,2022-01-20_14h24.22.486,multiplicationStroop,2021.2.3,MacIntel,60.0024001,,,,,left,1,0.588,0,5,5,52,1,2,1,2 | 1,1,1.6933,1.6933,neutral,left,,,,,,stimulusFile/magnitude.xlsx,,,,,,,,,,,,,,,,,,,,,,,,,,,,,,,
,,,,,,,,,,,,,,,743,2022-01-20_14h24.22.486,multiplicationStroop,2021.2.3,MacIntel,60.0024001,,,,,right,1,0.4408,0,6,6,66,1,3,8,3 | 8,5,1.6933,1.6933,neutral,right,,,,,,stimulusFile/magnitude.xlsx,,,,,,,,,,,,,,,,,,,,,,,,,,,,,,,
,,,,,,,,,,,,,,,743,2022-01-20_14h24.22.486,multiplicationStroop,2021.2.3,MacIntel,60.0024001,,,,,left,1,0.5495,0,7,7,15,1,9,7,9 | 7,2,1.9756,1.4111,congruent,left,,,,,,stimulusFile/magnitude.xlsx,,,,,,,,,,,,,,,,,,,,,,,,,,,,,,,
,,,,,,,,,,,,,,,743,2022-01-20_14h24.22.486,multiplicationStroop,2021.2.3,MacIntel,60.0024001,,,,,right,1,0.6331,0,8,8,25,1,3,4,3 | 4,1,1.9756,1.4111,incongruent,right,,,,,,stimulusFile/magnitude.xlsx,,,,,,,,,,,,,,,,,,,,,,,,,,,,,,,
,,,,,,,,,,,,,,,743,2022-01-20_14h24.22.486,multiplicationStroop,2021.2.3,MacIntel,60.0024001,,,,,left,1,1.6017,0,9,9,7,1,9,8,9 | 8,1,1.9756,1.4111,congruent,left,,,,,,stimulusFile/magnitude.xlsx,,,,,,,,,,,,,,,,,,,,,,,,,,,,,,,
,,,,,,,,,,,,,,,743,2022-01-20_14h24.22.486,multiplicationStroop,2021.2.3,MacIntel,60.0024001,,,,,right,1,1.132,0,10,10,33,1,2,4,2 | 4,2,1.9756,1.4111,incongruent,right,,,,,,stimulusFile/magnitude.xlsx,,,,,,,,,,,,,,,,,,,,,,,,,,,,,,,
,,,,,,,,,,,,,,,743,2022-01-20_14h24.22.486,multiplicationStroop,2021.2.3,MacIntel,60.0024001,,,,,left,1,0.6383,0,11,11,47,1,9,4,9 | 4,5,1.4111,1.9756,incongruent,left,,,,,,stimulusFile/magnitude.xlsx,,,,,,,,,,,,,,,,,,,,,,,,,,,,,,,
,,,,,,,,,,,,,,,743,2022-01-20_14h24.22.486,multiplicationStroop,2021.2.3,MacIntel,60.0024001,,,,,right,1,0.5154,0,12,12,11,1,7,9,7 | 9,2,1.4111,1.9756,congruent,right,,,,,,stimulusFile/magnitude.xlsx,,,,,,,,,,,,,,,,,,,,,,,,,,,,,,,
,,,,,,,,,,,,,,,743,2022-01-20_14h24.22.486,multiplicationStroop,2021.2.3,MacIntel,60.0024001,,,,,left,0,0.549,0,13,13,26,1,6,7,6 | 7,1,1.9756,1.4111,incongruent,right,,,,,,stimulusFile/magnitude.xlsx,,,,,,,,,,,,,,,,,,,,,,,,,,,,,,,
,,,,,,,,,,,,,,,743,2022-01-20_14h24.22.486,multiplicationStroop,2021.2.3,MacIntel,60.0024001,,,,,right,1,0.7178,0,14,14,41,1,2,7,2 | 7,5,1.9756,1.4111,incongruent,right,,,,,,stimulusFile/magnitude.xlsx,,,,,,,,,,,,,,,,,,,,,,,,,,,,,,,
,,,,,,,,,,,,,,,743,2022-01-20_14h24.22.486,multiplicationStroop,2021.2.3,MacIntel,60.0024001,,,,,right,0,0.5831,0,15,15,44,1,6,1,6 | 1,5,1.4111,1.9756,incongruent,left,,,,,,stimulusFile/magnitude.xlsx,,,,,,,,,,,,,,,,,,,,,,,,,,,,,,,
,,,,,,,,,,,,,,,743,2022-01-20_14h24.22.486,multiplicationStroop,2021.2.3,MacIntel,60.0024001,,,,,left,1,0.7655,0,16,16,69,1,7,2,7 | 2,5,1.6933,1.6933,neutral,left,,,,,,stimulusFile/magnitude.xlsx,,,,,,,,,,,,,,,,,,,,,,,,,,,,,,,
,,,,,,,,,,,,,,,743,2022-01-20_14h24.22.486,multiplicationStroop,2021.2.3,MacIntel,60.0024001,,,,,left,1,0.503,0,17,17,71,1,9,4,9 | 4,5,1.6933,1.6933,neutral,left,,,,,,stimulusFile/magnitude.xlsx,,,,,,,,,,,,,,,,,,,,,,,,,,,,,,,
,,,,,,,,,,,,,,,743,2022-01-20_14h24.22.486,multiplicationStroop,2021.2.3,MacIntel,60.0024001,,,,,left,1,0.5112,0,18,18,5,1,4,3,4 | 3,1,1.9756,1.4111,congruent,left,,,,,,stimulusFile/magnitude.xlsx,,,,,,,,,,,,,,,,,,,,,,,,,,,,,,,
,,,,,,,,,,,,,,,743,2022-01-20_14h24.22.486,multiplicationStroop,2021.2.3,MacIntel,60.0024001,,,,,right,1,0.5096,0,19,19,32,1,1,3,1 | 3,2,1.9756,1.4111,incongruent,right,,,,,,stimulusFile/magnitude.xlsx,,,,,,,,,,,,,,,,,,,,,,,,,,,,,,,
,,,,,,,,,,,,,,,743,2022-01-20_14h24.22.486,multiplicationStroop,2021.2.3,MacIntel,60.0024001,,,,,right,1,0.619,0,20,20,67,1,4,9,4 | 9,5,1.6933,1.6933,neutral,right,,,,,,stimulusFile/magnitude.xlsx,,,,,,,,,,,,,,,,,,,,,,,,,,,,,,,
,,,,,,,,,,,,,,,743,2022-01-20_14h24.22.486,multiplicationStroop,2021.2.3,MacIntel,60.0024001,,,,,left,1,0.5863,0,21,21,63,1,9,7,9 | 7,2,1.6933,1.6933,neutral,left,,,,,,stimulusFile/magnitude.xlsx,,,,,,,,,,,,,,,,,,,,,,,,,,,,,,,
,,,,,,,,,,,,,,,743,2022-01-20_14h24.22.486,multiplicationStroop,2021.2.3,MacIntel,60.0024001,,,,,right,1,0.462,0,22,22,42,1,3,8,3 | 8,5,1.9756,1.4111,incongruent,right,,,,,,stimulusFile/magnitude.xlsx,,,,,,,,,,,,,,,,,,,,,,,,,,,,,,,
,,,,,,,,,,,,,,,743,2022-01-20_14h24.22.486,multiplicationStroop,2021.2.3,MacIntel,60.0024001,,,,,left,1,0.7292,0,23,23,30,1,7,6,7 | 6,1,1.4111,1.9756,incongruent,left,,,,,,stimulusFile/magnitude.xlsx,,,,,,,,,,,,,,,,,,,,,,,,,,,,,,,
,,,,,,,,,,,,,,,743,2022-01-20_14h24.22.486,multiplicationStroop,2021.2.3,MacIntel,60.0024001,,,,,left,1,0.5496,0,24,24,38,1,8,6,8 | 6,2,1.4111,1.9756,incongruent,left,,,,,,stimulusFile/magnitude.xlsx,,,,,,,,,,,,,,,,,,,,,,,,,,,,,,,
,,,,,,,,,,,,,,,743,2022-01-20_14h24.22.486,multiplicationStroop,2021.2.3,MacIntel,60.0024001,,,,,left,1,0.6077,0,25,25,46,1,8,3,8 | 3,5,1.4111,1.9756,incongruent,left,,,,,,stimulusFile/magnitude.xlsx,,,,,,,,,,,,,,,,,,,,,,,,,,,,,,,
,,,,,,,,,,,,,,,743,2022-01-20_14h24.22.486,multiplicationStroop,2021.2.3,MacIntel,60.0024001,,,,,right,1,0.6476,0,26,26,43,1,4,9,4 | 9,5,1.9756,1.4111,incongruent,right,,,,,,stimulusFile/magnitude.xlsx,,,,,,,,,,,,,,,,,,,,,,,,,,,,,,,
,,,,,,,,,,,,,,,743,2022-01-20_14h24.22.486,multiplicationStroop,2021.2.3,MacIntel,60.0024001,,,,,right,1,0.7943,0,27,27,27,1,8,9,8 | 9,1,1.9756,1.4111,incongruent,right,,,,,,stimulusFile/magnitude.xlsx,,,,,,,,,,,,,,,,,,,,,,,,,,,,,,,
,,,,,,,,,,,,,,,743,2022-01-20_14h24.22.486,multiplicationStroop,2021.2.3,MacIntel,60.0024001,,,,,left,1,0.6377,0,28,28,20,1,6,1,6 | 1,5,1.9756,1.4111,congruent,left,,,,,,stimulusFile/magnitude.xlsx,,,,,,,,,,,,,,,,,,,,,,,,,,,,,,,
,,,,,,,,,,,,,,,743,2022-01-20_14h24.22.486,multiplicationStroop,2021.2.3,MacIntel,60.0024001,,,,,right,1,0.5331,0,29,29,56,1,1,3,1 | 3,2,1.6933,1.6933,neutral,right,,,,,,stimulusFile/magnitude.xlsx,,,,,,,,,,,,,,,,,,,,,,,,,,,,,,,
,,,,,,,,,,,,,,,743,2022-01-20_14h24.22.486,multiplicationStroop,2021.2.3,MacIntel,60.0024001,,,,,left,1,0.5492,0,30,30,29,1,4,3,4 | 3,1,1.4111,1.9756,incongruent,left,,,,,,stimulusFile/magnitude.xlsx,,,,,,,,,,,,,,,,,,,,,,,,,,,,,,,
,,,,,,,,,,,,,,,743,2022-01-20_14h24.22.486,multiplicationStroop,2021.2.3,MacIntel,60.0024001,,,,,left,1,0.9254,0,31,31,39,1,9,7,9 | 7,2,1.4111,1.9756,incongruent,left,,,,,,stimulusFile/magnitude.xlsx,,,,,,,,,,,,,,,,,,,,,,,,,,,,,,,
,,,,,,,,,,,,,,,743,2022-01-20_14h24.22.486,multiplicationStroop,2021.2.3,MacIntel,60.0024001,,,,,left,1,1.6866,0,32,32,21,1,7,2,7 | 2,5,1.9756,1.4111,congruent,left,,,,,,stimulusFile/magnitude.xlsx,,,,,,,,,,,,,,,,,,,,,,,,,,,,,,,
,,,,,,,,,,,,,,,743,2022-01-20_14h24.22.486,multiplicationStroop,2021.2.3,MacIntel,60.0024001,,,,,right,1,0.9678,0,33,33,24,1,1,2,1 | 2,1,1.9756,1.4111,incongruent,right,,,,,,stimulusFile/magnitude.xlsx,,,,,,,,,,,,,,,,,,,,,,,,,,,,,,,
,,,,,,,,,,,,,,,743,2022-01-20_14h24.22.486,multiplicationStroop,2021.2.3,MacIntel,60.0024001,,,,,left,1,0.4205,0,34,34,12,1,3,1,3 | 1,2,1.9756,1.4111,congruent,left,,,,,,stimulusFile/magnitude.xlsx,,,,,,,,,,,,,,,,,,,,,,,,,,,,,,,
,,,,,,,,,,,,,,,743,2022-01-20_14h24.22.486,multiplicationStroop,2021.2.3,MacIntel,60.0024001,,,,,right,1,0.943,0,35,35,35,1,7,9,7 | 9,2,1.9756,1.4111,incongruent,right,,,,,,stimulusFile/magnitude.xlsx,,,,,,,,,,,,,,,,,,,,,,,,,,,,,,,
,,,,,,,,,,,,,,,743,2022-01-20_14h24.22.486,multiplicationStroop,2021.2.3,MacIntel,60.0024001,,,,,left,1,0.9279,0,36,36,28,1,2,1,2 | 1,1,1.4111,1.9756,incongruent,left,,,,,,stimulusFile/magnitude.xlsx,,,,,,,,,,,,,,,,,,,,,,,,,,,,,,,
,,,,,,,,,,,,,,,743,2022-01-20_14h24.22.486,multiplicationStroop,2021.2.3,MacIntel,60.0024001,,,,,left,1,0.7533,0,37,37,31,1,9,8,9 | 8,1,1.4111,1.9756,incongruent,left,,,,,,stimulusFile/magnitude.xlsx,,,,,,,,,,,,,,,,,,,,,,,,,,,,,,,
,,,,,,,,,,,,,,,743,2022-01-20_14h24.22.486,multiplicationStroop,2021.2.3,MacIntel,60.0024001,,,,,left,1,0.7088,0,38,38,55,1,9,8,9 | 8,1,1.6933,1.6933,neutral,left,,,,,,stimulusFile/magnitude.xlsx,,,,,,,,,,,,,,,,,,,,,,,,,,,,,,,
,,,,,,,,,,,,,,,743,2022-01-20_14h24.22.486,multiplicationStroop,2021.2.3,MacIntel,60.0024001,,,,,right,1,0.5692,0,39,39,19,1,4,9,4 | 9,5,1.4111,1.9756,congruent,right,,,,,,stimulusFile/magnitude.xlsx,,,,,,,,,,,,,,,,,,,,,,,,,,,,,,,
,,,,,,,,,,,,,,,743,2022-01-20_14h24.22.486,multiplicationStroop,2021.2.3,MacIntel,60.0024001,,,,,right,1,0.5099,0,40,40,64,1,1,6,1 | 6,5,1.6933,1.6933,neutral,right,,,,,,stimulusFile/magnitude.xlsx,,,,,,,,,,,,,,,,,,,,,,,,,,,,,,,
,,,,,,,,,,,,,,,743,2022-01-20_14h24.22.486,multiplicationStroop,2021.2.3,MacIntel,60.0024001,,,,,left,1,0.6164,0,41,41,54,1,7,6,7 | 6,1,1.6933,1.6933,neutral,left,,,,,,stimulusFile/magnitude.xlsx,,,,,,,,,,,,,,,,,,,,,,,,,,,,,,,
,,,,,,,,,,,,,,,743,2022-01-20_14h24.22.486,multiplicationStroop,2021.2.3,MacIntel,60.0024001,,,,,left,1,0.4825,0,42,42,4,1,2,1,2 | 1,1,1.9756,1.4111,congruent,left,,,,,,stimulusFile/magnitude.xlsx,,,,,,,,,,,,,,,,,,,,,,,,,,,,,,,
,,,,,,,,,,,,,,,743,2022-01-20_14h24.22.486,multiplicationStroop,2021.2.3,MacIntel,60.0024001,,,,,right,1,0.4492,0,43,43,40,1,1,6,1 | 6,5,1.9756,1.4111,incongruent,right,,,,,,stimulusFile/magnitude.xlsx,,,,,,,,,,,,,,,,,,,,,,,,,,,,,,,
,,,,,,,,,,,,,,,743,2022-01-20_14h24.22.486,multiplicationStroop,2021.2.3,MacIntel,60.0024001,,,,,right,1,0.5546,0,44,44,49,1,3,4,3 | 4,1,1.6933,1.6933,neutral,right,,,,,,stimulusFile/magnitude.xlsx,,,,,,,,,,,,,,,,,,,,,,,,,,,,,,,
,,,,,,,,,,,,,,,743,2022-01-20_14h24.22.486,multiplicationStroop,2021.2.3,MacIntel,60.0024001,,,,,left,1,0.5706,0,45,45,60,1,3,1,3 | 1,2,1.6933,1.6933,neutral,left,,,,,,stimulusFile/magnitude.xlsx,,,,,,,,,,,,,,,,,,,,,,,,,,,,,,,
,,,,,,,,,,,,,,,743,2022-01-20_14h24.22.486,multiplicationStroop,2021.2.3,MacIntel,60.0024001,,,,,right,1,0.5936,0,46,46,9,1,2,4,2 | 4,2,1.4111,1.9756,congruent,right,,,,,,stimulusFile/magnitude.xlsx,,,,,,,,,,,,,,,,,,,,,,,,,,,,,,,
,,,,,,,,,,,,,,,743,2022-01-20_14h24.22.486,multiplicationStroop,2021.2.3,MacIntel,60.0024001,,,,,right,1,0.4929,0,47,47,48,1,1,2,1 | 2,1,1.6933,1.6933,neutral,right,,,,,,stimulusFile/magnitude.xlsx,,,,,,,,,,,,,,,,,,,,,,,,,,,,,,,
,,,,,,,,,,,,,,,743,2022-01-20_14h24.22.486,multiplicationStroop,2021.2.3,MacIntel,60.0024001,,,,,right,1,0.5168,0,48,48,65,1,2,7,2 | 7,5,1.6933,1.6933,neutral,right,,,,,,stimulusFile/magnitude.xlsx,,,,,,,,,,,,,,,,,,,,,,,,,,,,,,,
,,,,,,,,,,,,,,,743,2022-01-20_14h24.22.486,multiplicationStroop,2021.2.3,MacIntel,60.0024001,,,,,right,1,0.4154,0,49,49,57,1,2,4,2 | 4,2,1.6933,1.6933,neutral,right,,,,,,stimulusFile/magnitude.xlsx,,,,,,,,,,,,,,,,,,,,,,,,,,,,,,,
,,,,,,,,,,,,,,,743,2022-01-20_14h24.22.486,multiplicationStroop,2021.2.3,MacIntel,60.0024001,,,,,right,1,0.6247,0,50,50,50,1,6,7,6 | 7,1,1.6933,1.6933,neutral,right,,,,,,stimulusFile/magnitude.xlsx,,,,,,,,,,,,,,,,,,,,,,,,,,,,,,,
,,,,,,,,,,,,,,,743,2022-01-20_14h24.22.486,multiplicationStroop,2021.2.3,MacIntel,60.0024001,,,,,left,1,0.5633,0,51,51,61,1,4,2,4 | 2,2,1.6933,1.6933,neutral,left,,,,,,stimulusFile/magnitude.xlsx,,,,,,,,,,,,,,,,,,,,,,,,,,,,,,,
,,,,,,,,,,,,,,,743,2022-01-20_14h24.22.486,multiplicationStroop,2021.2.3,MacIntel,60.0024001,,,,,right,1,0.6177,0,52,52,59,1,7,9,7 | 9,2,1.6933,1.6933,neutral,right,,,,,,stimulusFile/magnitude.xlsx,,,,,,,,,,,,,,,,,,,,,,,,,,,,,,,
,,,,,,,,,,,,,,,743,2022-01-20_14h24.22.486,multiplicationStroop,2021.2.3,MacIntel,60.0024001,,,,,left,1,0.5939,0,53,53,37,1,4,2,4 | 2,2,1.4111,1.9756,incongruent,left,,,,,,stimulusFile/magnitude.xlsx,,,,,,,,,,,,,,,,,,,,,,,,,,,,,,,
,,,,,,,,,,,,,,,743,2022-01-20_14h24.22.486,multiplicationStroop,2021.2.3,MacIntel,60.0024001,,,,,right,1,0.5621,0,54,54,10,1,6,8,6 | 8,2,1.4111,1.9756,congruent,right,,,,,,stimulusFile/magnitude.xlsx,,,,,,,,,,,,,,,,,,,,,,,,,,,,,,,
,,,,,,,,,,,,,,,743,2022-01-20_14h24.22.486,multiplicationStroop,2021.2.3,MacIntel,60.0024001,,,,,right,1,0.6526,0,55,55,34,1,6,8,6 | 8,2,1.9756,1.4111,incongruent,right,,,,,,stimulusFile/magnitude.xlsx,,,,,,,,,,,,,,,,,,,,,,,,,,,,,,,
,,,,,,,,,,,,,,,743,2022-01-20_14h24.22.486,multiplicationStroop,2021.2.3,MacIntel,60.0024001,,,,,left,1,0.5526,0,56,56,23,1,9,4,9 | 4,5,1.9756,1.4111,congruent,left,,,,,,stimulusFile/magnitude.xlsx,,,,,,,,,,,,,,,,,,,,,,,,,,,,,,,
,,,,,,,,,,,,,,,743,2022-01-20_14h24.22.486,multiplicationStroop,2021.2.3,MacIntel,60.0024001,,,,,left,1,0.565,0,57,57,70,1,8,3,8 | 3,5,1.6933,1.6933,neutral,left,,,,,,stimulusFile/magnitude.xlsx,,,,,,,,,,,,,,,,,,,,,,,,,,,,,,,
,,,,,,,,,,,,,,,743,2022-01-20_14h24.22.486,multiplicationStroop,2021.2.3,MacIntel,60.0024001,,,,,left,1,0.6156,0,58,58,36,1,3,1,3 | 1,2,1.4111,1.9756,incongruent,left,,,,,,stimulusFile/magnitude.xlsx,,,,,,,,,,,,,,,,,,,,,,,,,,,,,,,
,,,,,,,,,,,,,,,743,2022-01-20_14h24.22.486,multiplicationStroop,2021.2.3,MacIntel,60.0024001,,,,,left,1,0.6311,0,59,59,53,1,4,3,4 | 3,1,1.6933,1.6933,neutral,left,,,,,,stimulusFile/magnitude.xlsx,,,,,,,,,,,,,,,,,,,,,,,,,,,,,,,
,,,,,,,,,,,,,,,743,2022-01-20_14h24.22.486,multiplicationStroop,2021.2.3,MacIntel,60.0024001,,,,,right,1,0.7199,0,60,60,2,1,6,7,6 | 7,1,1.4111,1.9756,congruent,right,,,,,,stimulusFile/magnitude.xlsx,,,,,,,,,,,,,,,,,,,,,,,,,,,,,,,
,,,,,,,,,,,,,,,743,2022-01-20_14h24.22.486,multiplicationStroop,2021.2.3,MacIntel,60.0024001,,,,,left,1,0.9759,0,61,61,45,1,7,2,7 | 2,5,1.4111,1.9756,incongruent,left,,,,,,stimulusFile/magnitude.xlsx,,,,,,,,,,,,,,,,,,,,,,,,,,,,,,,
,,,,,,,,,,,,,,,743,2022-01-20_14h24.22.486,multiplicationStroop,2021.2.3,MacIntel,60.0024001,,,,,right,1,0.5145,0,62,62,1,1,3,4,3 | 4,1,1.4111,1.9756,congruent,right,,,,,,stimulusFile/magnitude.xlsx,,,,,,,,,,,,,,,,,,,,,,,,,,,,,,,
,,,,,,,,,,,,,,,743,2022-01-20_14h24.22.486,multiplicationStroop,2021.2.3,MacIntel,60.0024001,,,,,right,1,0.5979,0,63,63,58,1,6,8,6 | 8,2,1.6933,1.6933,neutral,right,,,,,,stimulusFile/magnitude.xlsx,,,,,,,,,,,,,,,,,,,,,,,,,,,,,,,
,,,,,,,,,,,,,,,743,2022-01-20_14h24.22.486,multiplicationStroop,2021.2.3,MacIntel,60.0024001,,,,,left,1,0.5319,0,64,64,22,1,8,3,8 | 3,5,1.9756,1.4111,congruent,left,,,,,,stimulusFile/magnitude.xlsx,,,,,,,,,,,,,,,,,,,,,,,,,,,,,,,
,,,,,,,,,,,,,,,743,2022-01-20_14h24.22.486,multiplicationStroop,2021.2.3,MacIntel,60.0024001,,,,,right,1,0.6115,0,65,65,18,1,3,8,3 | 8,5,1.4111,1.9756,congruent,right,,,,,,stimulusFile/magnitude.xlsx,,,,,,,,,,,,,,,,,,,,,,,,,,,,,,,
,,,,,,,,,,,,,,,743,2022-01-20_14h24.22.486,multiplicationStroop,2021.2.3,MacIntel,60.0024001,,,,,left,1,0.7544,0,66,66,62,1,8,6,8 | 6,2,1.6933,1.6933,neutral,left,,,,,,stimulusFile/magnitude.xlsx,,,,,,,,,,,,,,,,,,,,,,,,,,,,,,,
,,,,,,,,,,,,,,,743,2022-01-20_14h24.22.486,multiplicationStroop,2021.2.3,MacIntel,60.0024001,,,,,right,1,0.8416,0,67,67,3,1,8,9,8 | 9,1,1.4111,1.9756,congruent,right,,,,,,stimulusFile/magnitude.xlsx,,,,,,,,,,,,,,,,,,,,,,,,,,,,,,,
,,,,,,,,,,,,,,,743,2022-01-20_14h24.22.486,multiplicationStroop,2021.2.3,MacIntel,60.0024001,,,,,right,1,0.813,0,68,68,17,1,2,7,2 | 7,5,1.4111,1.9756,congruent,right,,,,,,stimulusFile/magnitude.xlsx,,,,,,,,,,,,,,,,,,,,,,,,,,,,,,,
,,,,,,,,,,,,,,,743,2022-01-20_14h24.22.486,multiplicationStroop,2021.2.3,MacIntel,60.0024001,,,,,right,1,0.6622,0,69,69,16,1,1,6,1 | 6,5,1.4111,1.9756,congruent,right,,,,,,stimulusFile/magnitude.xlsx,,,,,,,,,,,,,,,,,,,,,,,,,,,,,,,
,,,,,,,,,,,,,,,743,2022-01-20_14h24.22.486,multiplicationStroop,2021.2.3,MacIntel,60.0024001,,,,,left,1,0.4278,0,70,70,68,1,6,1,6 | 1,5,1.6933,1.6933,neutral,left,,,,,,stimulusFile/magnitude.xlsx,,,,,,,,,,,,,,,,,,,,,,,,,,,,,,,
,,,,,,,,,,,,,,,743,2022-01-20_14h24.22.486,multiplicationStroop,2021.2.3,MacIntel,60.0024001,,,,,right,1,0.439,0,71,71,51,1,8,9,8 | 9,1,1.6933,1.6933,neutral,right,,,,,,stimulusFile/magnitude.xlsx,,,,,,,,,,,,,,,,,,,,,,,,,,,,,,,
,,,,,,,,,,,,,,,743,2022-01-20_14h24.22.486,multiplicationStroop,2021.2.3,MacIntel,60.0024001,,,,,,,,,,,,,,,,,,,,,0,1,1,0,1,stimulusFile/magnitude.xlsx,NUMERICALLY larger (larger coefficient).,images/numericallyLarger.png,,,,,,,,,,,,,,,,,,,,,,,,,,,,,
,,,,,,,,,,,,,,,743,2022-01-20_14h24.22.486,multiplicationStroop,2021.2.3,MacIntel,60.0024001,,,,,,,,,,,,,,,,,,,,,,,,,,,,,space,4.9737,space,6.9991,12,1.6949,1,0,0,0,19,1,4,×,3,4 × 3,incongruent,largerFirst,1,2,12,,,,,,,,
,,,,,,,,,,,,,,,743,2022-01-20_14h24.22.486,multiplicationStroop,2021.2.3,MacIntel,60.0024001,,,,,,,,,,,,,,,,,,,,,,,,,,,,,,,,,36,1.7652,1,0,1,1,32,1,6,×,6,6 × 6,neutral,tie,2,1,36,,,,,,,,
,,,,,,,,,,,,,,,743,2022-01-20_14h24.22.486,multiplicationStroop,2021.2.3,MacIntel,60.0024001,,,,,,,,,,,,,,,,,,,,,,,,,,,,,,,,,21,1.2946,1,0,2,2,12,1,3,×,7,3 × 7,incongruent,smallerFirst,2,1,21,,,,,,,,
,,,,,,,,,,,,,,,743,2022-01-20_14h24.22.486,multiplicationStroop,2021.2.3,MacIntel,60.0024001,,,,,,,,,,,,,,,,,,,,,,,,,,,,,,,,,36,1.5649,1,0,3,3,1,1,4,×,9,4 × 9,incongruent,smallerFirst,2,1,36,,,,,,,,
,,,,,,,,,,,,,,,743,2022-01-20_14h24.22.486,multiplicationStroop,2021.2.3,MacIntel,60.0024001,,,,,,,,,,,,,,,,,,,,,,,,,,,,,,,,,12,1.1673,1,0,4,4,5,1,2,×,6,2 × 6,incongruent,smallerFirst,2,1,12,,,,,,,,
,,,,,,,,,,,,,,,743,2022-01-20_14h24.22.486,multiplicationStroop,2021.2.3,MacIntel,60.0024001,,,,,,,,,,,,,,,,,,,,,,,,,,,,,,,,,28,1.4666,1,0,5,5,2,1,4,×,7,4 × 7,incongruent,smallerFirst,2,1,28,,,,,,,,
,,,,,,,,,,,,,,,743,2022-01-20_14h24.22.486,multiplicationStroop,2021.2.3,MacIntel,60.0024001,,,,,,,,,,,,,,,,,,,,,,,,,,,,,,,,,15,1.4168,1,0,6,6,24,1,5,×,3,5 × 3,incongruent,largerFirst,1,2,15,,,,,,,,
,,,,,,,,,,,,,,,743,2022-01-20_14h24.22.486,multiplicationStroop,2021.2.3,MacIntel,60.0024001,,,,,,,,,,,,,,,,,,,,,,,,,,,,,,,,,40,1.3473,1,0,7,7,27,1,8,×,5,8 × 5,incongruent,largerFirst,1,2,40,,,,,,,,
,,,,,,,,,,,,,,,743,2022-01-20_14h24.22.486,multiplicationStroop,2021.2.3,MacIntel,60.0024001,,,,,,,,,,,,,,,,,,,,,,,,,,,,,,,,,48,1.6038,1,0,8,8,15,1,8,×,6,8 × 6,incongruent,largerFirst,1,2,48,,,,,,,,
,,,,,,,,,,,,,,,743,2022-01-20_14h24.22.486,multiplicationStroop,2021.2.3,MacIntel,60.0024001,,,,,,,,,,,,,,,,,,,,,,,,,,,,,,,,,24,1.4647,1,0,9,9,6,1,4,×,6,4 × 6,incongruent,smallerFirst,2,1,24,,,,,,,,
,,,,,,,,,,,,,,,743,2022-01-20_14h24.22.486,multiplicationStroop,2021.2.3,MacIntel,60.0024001,,,,,,,,,,,,,,,,,,,,,,,,,,,,,,,,,32,1.4665,1,0,10,10,21,1,8,×,4,8 × 4,incongruent,largerFirst,1,2,32,,,,,,,,
,,,,,,,,,,,,,,,743,2022-01-20_14h24.22.486,multiplicationStroop,2021.2.3,MacIntel,60.0024001,,,,,,,,,,,,,,,,,,,,,,,,,,,,,,,,,64,1.663,1,0,11,11,34,1,8,×,8,8 × 8,neutral,tie,2,1,64,,,,,,,,
,,,,,,,,,,,,,,,743,2022-01-20_14h24.22.486,multiplicationStroop,2021.2.3,MacIntel,60.0024001,,,,,,,,,,,,,,,,,,,,,,,,,,,,,,,,,72,2.3328,1,0,12,12,14,1,9,×,8,9 × 8,incongruent,largerFirst,1,2,72,,,,,,,,
,,,,,,,,,,,,,,,743,2022-01-20_14h24.22.486,multiplicationStroop,2021.2.3,MacIntel,60.0024001,,,,,,,,,,,,,,,,,,,,,,,,,,,,,,,,,45,2.4073,1,0,13,13,8,1,5,×,9,5 × 9,incongruent,smallerFirst,2,1,45,,,,,,,,
,,,,,,,,,,,,,,,743,2022-01-20_14h24.22.486,multiplicationStroop,2021.2.3,MacIntel,60.0024001,,,,,,,,,,,,,,,,,,,,,,,,,,,,,,,,,6,1.4638,1,0,14,14,25,1,3,×,2,3 × 2,incongruent,largerFirst,1,2,6,,,,,,,,
,,,,,,,,,,,,,,,743,2022-01-20_14h24.22.486,multiplicationStroop,2021.2.3,MacIntel,60.0024001,,,,,,,,,,,,,,,,,,,,,,,,,,,,,,,,,56,2.2331,1,0,15,15,0,1,7,×,8,7 × 8,incongruent,smallerFirst,2,1,56,,,,,,,,
,,,,,,,,,,,,,,,743,2022-01-20_14h24.22.486,multiplicationStroop,2021.2.3,MacIntel,60.0024001,,,,,,,,,,,,,,,,,,,,,,,,,,,,,,,,,10,1.232,1,0,16,16,7,1,2,×,5,2 × 5,incongruent,smallerFirst,2,1,10,,,,,,,,
,,,,,,,,,,,,,,,743,2022-01-20_14h24.22.486,multiplicationStroop,2021.2.3,MacIntel,60.0024001,,,,,,,,,,,,,,,,,,,,,,,,,,,,,,,,,9,1.4319,1,0,17,17,29,1,3,×,3,3 × 3,neutral,tie,2,1,9,,,,,,,,
,,,,,,,,,,,,,,,743,2022-01-20_14h24.22.486,multiplicationStroop,2021.2.3,MacIntel,60.0024001,,,,,,,,,,,,,,,,,,,,,,,,,,,,,,,,,16,1.4831,1,0,18,18,9,1,2,×,8,2 × 8,incongruent,smallerFirst,2,1,16,,,,,,,,
,,,,,,,,,,,,,,,743,2022-01-20_14h24.22.486,multiplicationStroop,2021.2.3,MacIntel,60.0024001,,,,,,,,,,,,,,,,,,,,,,,,,,,,,,,,,18,1.5164,1,0,19,19,16,1,9,×,2,9 × 2,incongruent,largerFirst,1,2,18,,,,,,,,
,,,,,,,,,,,,,,,743,2022-01-20_14h24.22.486,multiplicationStroop,2021.2.3,MacIntel,60.0024001,,,,,,,,,,,,,,,,,,,,,,,,,,,,,,,,,20,1.2512,1,0,20,20,13,1,4,×,5,4 × 5,incongruent,smallerFirst,2,1,20,,,,,,,,
,,,,,,,,,,,,,,,743,2022-01-20_14h24.22.486,multiplicationStroop,2021.2.3,MacIntel,60.0024001,,,,,,,,,,,,,,,,,,,,,,,,,,,,,,,,,30,1.6124,1,0,21,21,11,1,5,×,6,5 × 6,incongruent,smallerFirst,2,1,30,,,,,,,,
,,,,,,,,,,,,,,,743,2022-01-20_14h24.22.486,multiplicationStroop,2021.2.3,MacIntel,60.0024001,,,,,,,,,,,,,,,,,,,,,,,,,,,,,,,,,4,1.248,1,0,22,22,28,1,2,×,2,2 × 2,neutral,tie,2,1,4,,,,,,,,
,,,,,,,,,,,,,,,743,2022-01-20_14h24.22.486,multiplicationStroop,2021.2.3,MacIntel,60.0024001,,,,,,,,,,,,,,,,,,,,,,,,,,,,,,,,,24,1.5838,1,0,23,23,23,1,8,×,3,8 × 3,incongruent,largerFirst,1,2,24,,,,,,,,
,,,,,,,,,,,,,,,743,2022-01-20_14h24.22.486,multiplicationStroop,2021.2.3,MacIntel,60.0024001,,,,,,,,,,,,,,,,,,,,,,,,,,,,,,,,,16,1.4481,1,0,24,24,30,1,4,×,4,4 × 4,neutral,tie,2,1,16,,,,,,,,
,,,,,,,,,,,,,,,743,2022-01-20_14h24.22.486,multiplicationStroop,2021.2.3,MacIntel,60.0024001,,,,,,,,,,,,,,,,,,,,,,,,,,,,,,,,,63,1.7833,1,0,25,25,17,1,9,×,7,9 × 7,incongruent,largerFirst,1,2,63,,,,,,,,
,,,,,,,,,,,,,,,743,2022-01-20_14h24.22.486,multiplicationStroop,2021.2.3,MacIntel,60.0024001,,,,,,,,,,,,,,,,,,,,,,,,,,,,,,,,,81,1.3643,1,0,26,26,35,1,9,×,9,9 × 9,neutral,tie,2,1,81,,,,,,,,
,,,,,,,,,,,,,,,743,2022-01-20_14h24.22.486,multiplicationStroop,2021.2.3,MacIntel,60.0024001,,,,,,,,,,,,,,,,,,,,,,,,,,,,,,,,,27,1.6191,1,0,27,27,4,1,3,×,9,3 × 9,incongruent,smallerFirst,2,1,27,,,,,,,,
,,,,,,,,,,,,,,,743,2022-01-20_14h24.22.486,multiplicationStroop,2021.2.3,MacIntel,60.0024001,,,,,,,,,,,,,,,,,,,,,,,,,,,,,,,,,25,1.5485,1,0,28,28,31,1,5,×,5,5 × 5,neutral,tie,2,1,25,,,,,,,,
,,,,,,,,,,,,,,,743,2022-01-20_14h24.22.486,multiplicationStroop,2021.2.3,MacIntel,60.0024001,,,,,,,,,,,,,,,,,,,,,,,,,,,,,,,,,14,1.3005,1,0,29,29,18,1,7,×,2,7 × 2,incongruent,largerFirst,1,2,14,,,,,,,,
,,,,,,,,,,,,,,,743,2022-01-20_14h24.22.486,multiplicationStroop,2021.2.3,MacIntel,60.0024001,,,,,,,,,,,,,,,,,,,,,,,,,,,,,,,,,42,2.5145,1,0,30,30,3,1,6,×,7,6 × 7,incongruent,smallerFirst,2,1,42,,,,,,,,
,,,,,,,,,,,,,,,743,2022-01-20_14h24.22.486,multiplicationStroop,2021.2.3,MacIntel,60.0024001,,,,,,,,,,,,,,,,,,,,,,,,,,,,,,,,,54,1.4821,1,0,31,31,20,1,9,×,6,9 × 6,incongruent,largerFirst,1,2,54,,,,,,,,
,,,,,,,,,,,,,,,743,2022-01-20_14h24.22.486,multiplicationStroop,2021.2.3,MacIntel,60.0024001,,,,,,,,,,,,,,,,,,,,,,,,,,,,,,,,,8,1.5834,1,0,32,32,10,1,2,×,4,2 × 4,incongruent,smallerFirst,2,1,8,,,,,,,,
,,,,,,,,,,,,,,,743,2022-01-20_14h24.22.486,multiplicationStroop,2021.2.3,MacIntel,60.0024001,,,,,,,,,,,,,,,,,,,,,,,,,,,,,,,,,18,1.8151,1,0,33,33,22,1,6,×,3,6 × 3,incongruent,largerFirst,1,2,18,,,,,,,,
,,,,,,,,,,,,,,,743,2022-01-20_14h24.22.486,multiplicationStroop,2021.2.3,MacIntel,60.0024001,,,,,,,,,,,,,,,,,,,,,,,,,,,,,,,,,49,1.4487,1,0,34,34,33,1,7,×,7,7 × 7,neutral,tie,2,1,49,,,,,,,,
,,,,,,,,,,,,,,,743,2022-01-20_14h24.22.486,multiplicationStroop,2021.2.3,MacIntel,60.0024001,,,,,,,,,,,,,,,,,,,,,,,,,,,,,,,,,35,1.4329,1,0,35,35,26,1,7,×,5,7 × 5,incongruent,largerFirst,1,2,35,,,,,,,,
,,,,,,,,,,,,,,,743,2022-01-20_14h24.22.486,multiplicationStroop,2021.2.3,MacIntel,60.0024001,,,,,,,,,,,,,,,,,,,,,,,,,,,,,,,,,,,,,,,,,,,,,,,,,,0,0,0,4,1,stimulusFile/mult_blk5_INcongruent.xlsx,,
,,,,,,,,,,,,,,,743,2022-01-20_14h24.22.486,multiplicationStroop,2021.2.3,MacIntel,60.0024001,,,,,,,,,,,,,,,,,,,,,,,,,,,,,,,space,1.1142,35,1.6038,1,0,0,0,15,1,7,×,5,7 × 5,neutral,largerFirst,1.5,1.5,35,,,,,,,,
,,,,,,,,,,,,,,,743,2022-01-20_14h24.22.486,multiplicationStroop,2021.2.3,MacIntel,60.0024001,,,,,,,,,,,,,,,,,,,,,,,,,,,,,,,,,18,1.347,1,0,1,1,14,1,6,×,3,6 × 3,neutral,largerFirst,1.5,1.5,18,,,,,,,,
,,,,,,,,,,,,,,,743,2022-01-20_14h24.22.486,multiplicationStroop,2021.2.3,MacIntel,60.0024001,,,,,,,,,,,,,,,,,,,,,,,,,,,,,,,,,18,1.3478,1,0,2,2,4,1,2,×,9,2 × 9,neutral,smallerFirst,1.5,1.5,18,,,,,,,,
,,,,,,,,,,,,,,,743,2022-01-20_14h24.22.486,multiplicationStroop,2021.2.3,MacIntel,60.0024001,,,,,,,,,,,,,,,,,,,,,,,,,,,,,,,,,45,1.6654,1,0,3,3,24,1,9,×,5,9 × 5,neutral,largerFirst,1.5,1.5,45,,,,,,,,
,,,,,,,,,,,,,,,743,2022-01-20_14h24.22.486,multiplicationStroop,2021.2.3,MacIntel,60.0024001,,,,,,,,,,,,,,,,,,,,,,,,,,,,,,,,,54,1.7498,1,0,4,4,21,1,9,×,6,9 × 6,neutral,largerFirst,1.5,1.5,54,,,,,,,,
,,,,,,,,,,,,,,,743,2022-01-20_14h24.22.486,multiplicationStroop,2021.2.3,MacIntel,60.0024001,,,,,,,,,,,,,,,,,,,,,,,,,,,,,,,,,81,1.402,1,0,5,5,35,1,9,×,9,9 × 9,neutral,tie,1.5,1.5,81,,,,,,,,
,,,,,,,,,,,,,,,743,2022-01-20_14h24.22.486,multiplicationStroop,2021.2.3,MacIntel,60.0024001,,,,,,,,,,,,,,,,,,,,,,,,,,,,,,,,,48,1.663,1,0,6,6,1,1,6,×,8,6 × 8,neutral,smallerFirst,1.5,1.5,48,,,,,,,,
,,,,,,,,,,,,,,,743,2022-01-20_14h24.22.486,multiplicationStroop,2021.2.3,MacIntel,60.0024001,,,,,,,,,,,,,,,,,,,,,,,,,,,,,,,,,25,1.4015,1,0,7,7,31,1,5,×,5,5 × 5,neutral,tie,1.5,1.5,25,,,,,,,,
,,,,,,,,,,,,,,,743,2022-01-20_14h24.22.486,multiplicationStroop,2021.2.3,MacIntel,60.0024001,,,,,,,,,,,,,,,,,,,,,,,,,,,,,,,,,16,1.4667,1,0,8,8,27,1,8,×,2,8 × 2,neutral,largerFirst,1.5,1.5,16,,,,,,,,
,,,,,,,,,,,,,,,743,2022-01-20_14h24.22.486,multiplicationStroop,2021.2.3,MacIntel,60.0024001,,,,,,,,,,,,,,,,,,,,,,,,,,,,,,,,,24,1.9467,1,0,9,9,8,1,3,×,8,3 × 8,neutral,smallerFirst,1.5,1.5,24,,,,,,,,
,,,,,,,,,,,,,,,743,2022-01-20_14h24.22.486,multiplicationStroop,2021.2.3,MacIntel,60.0024001,,,,,,,,,,,,,,,,,,,,,,,,,,,,,,,,,6,1.2981,1,0,10,10,12,1,2,×,3,2 × 3,neutral,smallerFirst,1.5,1.5,6,,,,,,,,
,,,,,,,,,,,,,,,743,2022-01-20_14h24.22.486,multiplicationStroop,2021.2.3,MacIntel,60.0024001,,,,,,,,,,,,,,,,,,,,,,,,,,,,,,,,,21,1.3851,1,0,11,11,22,1,7,×,3,7 × 3,neutral,largerFirst,1.5,1.5,21,,,,,,,,
,,,,,,,,,,,,,,,743,2022-01-20_14h24.22.486,multiplicationStroop,2021.2.3,MacIntel,60.0024001,,,,,,,,,,,,,,,,,,,,,,,,,,,,,,,,,56,1.7471,1,0,12,12,23,1,8,×,7,8 × 7,neutral,largerFirst,1.5,1.5,56,,,,,,,,
,,,,,,,,,,,,,,,743,2022-01-20_14h24.22.486,multiplicationStroop,2021.2.3,MacIntel,60.0024001,,,,,,,,,,,,,,,,,,,,,,,,,,,,,,,,,14,1.4028,1,0,13,13,2,1,2,×,7,2 × 7,neutral,smallerFirst,1.5,1.5,14,,,,,,,,
,,,,,,,,,,,,,,,743,2022-01-20_14h24.22.486,multiplicationStroop,2021.2.3,MacIntel,60.0024001,,,,,,,,,,,,,,,,,,,,,,,,,,,,,,,,,12,1.3454,1,0,14,14,7,1,3,×,4,3 × 4,neutral,smallerFirst,1.5,1.5,12,,,,,,,,
,,,,,,,,,,,,,,,743,2022-01-20_14h24.22.486,multiplicationStroop,2021.2.3,MacIntel,60.0024001,,,,,,,,,,,,,,,,,,,,,,,,,,,,,,,,,9,1.2167,1,0,15,15,29,1,3,×,3,3 × 3,neutral,tie,1.5,1.5,9,,,,,,,,
,,,,,,,,,,,,,,,743,2022-01-20_14h24.22.486,multiplicationStroop,2021.2.3,MacIntel,60.0024001,,,,,,,,,,,,,,,,,,,,,,,,,,,,,,,,,15,1.4499,1,0,16,16,19,1,5,×,3,5 × 3,neutral,largerFirst,1.5,1.5,15,,,,,,,,
,,,,,,,,,,,,,,,743,2022-01-20_14h24.22.486,multiplicationStroop,2021.2.3,MacIntel,60.0024001,,,,,,,,,,,,,,,,,,,,,,,,,,,,,,,,,8,1.4,1,0,17,17,17,1,4,×,2,4 × 2,neutral,largerFirst,1.5,1.5,8,,,,,,,,
,,,,,,,,,,,,,,,743,2022-01-20_14h24.22.486,multiplicationStroop,2021.2.3,MacIntel,60.0024001,,,,,,,,,,,,,,,,,,,,,,,,,,,,,,,,,20,1.2482,1,0,18,18,6,1,4,×,5,4 × 5,neutral,smallerFirst,1.5,1.5,20,,,,,,,,
,,,,,,,,,,,,,,,743,2022-01-20_14h24.22.486,multiplicationStroop,2021.2.3,MacIntel,60.0024001,,,,,,,,,,,,,,,,,,,,,,,,,,,,,,,,,36,1.6175,1,0,19,19,32,1,6,×,6,6 × 6,neutral,tie,1.5,1.5,36,,,,,,,,
,,,,,,,,,,,,,,,743,2022-01-20_14h24.22.486,multiplicationStroop,2021.2.3,MacIntel,60.0024001,,,,,,,,,,,,,,,,,,,,,,,,,,,,,,,,,4,1.1161,1,0,20,20,28,1,2,×,2,2 × 2,neutral,tie,1.5,1.5,4,,,,,,,,
,,,,,,,,,,,,,,,743,2022-01-20_14h24.22.486,multiplicationStroop,2021.2.3,MacIntel,60.0024001,,,,,,,,,,,,,,,,,,,,,,,,,,,,,,,,,12,1.1969,1,0,21,21,11,1,2,×,6,2 × 6,neutral,smallerFirst,1.5,1.5,12,,,,,,,,
,,,,,,,,,,,,,,,743,2022-01-20_14h24.22.486,multiplicationStroop,2021.2.3,MacIntel,60.0024001,,,,,,,,,,,,,,,,,,,,,,,,,,,,,,,,,49,1.7509,1,0,22,22,33,1,7,×,7,7 × 7,neutral,tie,1.5,1.5,49,,,,,,,,
,,,,,,,,,,,,,,,743,2022-01-20_14h24.22.486,multiplicationStroop,2021.2.3,MacIntel,60.0024001,,,,,,,,,,,,,,,,,,,,,,,,,,,,,,,,,10,1.0978,1,0,23,23,18,1,5,×,2,5 × 2,neutral,largerFirst,1.5,1.5,10,,,,,,,,
,,,,,,,,,,,,,,,743,2022-01-20_14h24.22.486,multiplicationStroop,2021.2.3,MacIntel,60.0024001,,,,,,,,,,,,,,,,,,,,,,,,,,,,,,,,,28,1.6834,1,0,24,24,3,1,4,×,7,4 × 7,neutral,smallerFirst,1.5,1.5,28,,,,,,,,
,,,,,,,,,,,,,,,743,2022-01-20_14h24.22.486,multiplicationStroop,2021.2.3,MacIntel,60.0024001,,,,,,,,,,,,,,,,,,,,,,,,,,,,,,,,,32,1.4837,1,0,25,25,9,1,4,×,8,4 × 8,neutral,smallerFirst,1.5,1.5,32,,,,,,,,
,,,,,,,,,,,,,,,743,2022-01-20_14h24.22.486,multiplicationStroop,2021.2.3,MacIntel,60.0024001,,,,,,,,,,,,,,,,,,,,,,,,,,,,,,,,,24,1.4833,1,0,26,26,16,1,6,×,4,6 × 4,neutral,largerFirst,1.5,1.5,24,,,,,,,,
,,,,,,,,,,,,,,,743,2022-01-20_14h24.22.486,multiplicationStroop,2021.2.3,MacIntel,60.0024001,,,,,,,,,,,,,,,,,,,,,,,,,,,,,,,,,40,1.3812,1,0,27,27,10,1,5,×,8,5 × 8,neutral,smallerFirst,1.5,1.5,40,,,,,,,,
,,,,,,,,,,,,,,,743,2022-01-20_14h24.22.486,multiplicationStroop,2021.2.3,MacIntel,60.0024001,,,,,,,,,,,,,,,,,,,,,,,,,,,,,,,,,64,1.7507,1,0,28,28,34,1,8,×,8,8 × 8,neutral,tie,1.5,1.5,64,,,,,,,,
,,,,,,,,,,,,,,,743,2022-01-20_14h24.22.486,multiplicationStroop,2021.2.3,MacIntel,60.0024001,,,,,,,,,,,,,,,,,,,,,,,,,,,,,,,,,27,1.7316,1,0,29,29,0,1,3,×,9,3 × 9,neutral,smallerFirst,1.5,1.5,27,,,,,,,,
,,,,,,,,,,,,,,,743,2022-01-20_14h24.22.486,multiplicationStroop,2021.2.3,MacIntel,60.0024001,,,,,,,,,,,,,,,,,,,,,,,,,,,,,,,,,63,1.7017,1,0,30,30,26,1,9,×,7,9 × 7,neutral,largerFirst,1.5,1.5,63,,,,,,,,
,,,,,,,,,,,,,,,743,2022-01-20_14h24.22.486,multiplicationStroop,2021.2.3,MacIntel,60.0024001,,,,,,,,,,,,,,,,,,,,,,,,,,,,,,,,,72,1.5987,1,0,31,31,25,1,9,×,8,9 × 8,neutral,largerFirst,1.5,1.5,72,,,,,,,,
,,,,,,,,,,,,,,,743,2022-01-20_14h24.22.486,multiplicationStroop,2021.2.3,MacIntel,60.0024001,,,,,,,,,,,,,,,,,,,,,,,,,,,,,,,,,30,1.3954,1,0,32,32,5,1,5,×,6,5 × 6,neutral,smallerFirst,1.5,1.5,30,,,,,,,,
,,,,,,,,,,,,,,,743,2022-01-20_14h24.22.486,multiplicationStroop,2021.2.3,MacIntel,60.0024001,,,,,,,,,,,,,,,,,,,,,,,,,,,,,,,,,42,2.4992,1,0,33,33,20,1,7,×,6,7 × 6,neutral,largerFirst,1.5,1.5,42,,,,,,,,
,,,,,,,,,,,,,,,743,2022-01-20_14h24.22.486,multiplicationStroop,2021.2.3,MacIntel,60.0024001,,,,,,,,,,,,,,,,,,,,,,,,,,,,,,,,,36,1.6323,1,0,34,34,13,1,4,×,9,4 × 9,neutral,smallerFirst,1.5,1.5,36,,,,,,,,
,,,,,,,,,,,,,,,743,2022-01-20_14h24.22.486,multiplicationStroop,2021.2.3,MacIntel,60.0024001,,,,,,,,,,,,,,,,,,,,,,,,,,,,,,,,,16,1.4992,1,0,35,35,30,1,4,×,4,4 × 4,neutral,tie,1.5,1.5,16,,,,,,,,
,,,,,,,,,,,,,,,743,2022-01-20_14h24.22.486,multiplicationStroop,2021.2.3,MacIntel,60.0024001,,,,,,,,,,,,,,,,,,,,,,,,,,,,,,,,,,,,,,,,,,,,,,,,,,0,1,1,0,1,stimulusFile/mult_blk1.xlsx,,
,,,,,,,,,,,,,,,743,2022-01-20_14h24.22.486,multiplicationStroop,2021.2.3,MacIntel,60.0024001,,,,,,,,,,,,,,,,,,,,,,,,,,,,,,,space,0.8359,25,1.4541,1,0,0,0,31,1,5,×,5,5 × 5,neutral,tie,1,2,25,,,,,,,,
,,,,,,,,,,,,,,,743,2022-01-20_14h24.22.486,multiplicationStroop,2021.2.3,MacIntel,60.0024001,,,,,,,,,,,,,,,,,,,,,,,,,,,,,,,,,8,1.7153,1,0,1,1,23,1,4,×,2,4 × 2,congruent,largerFirst,2,1,8,,,,,,,,
,,,,,,,,,,,,,,,743,2022-01-20_14h24.22.486,multiplicationStroop,2021.2.3,MacIntel,60.0024001,,,,,,,,,,,,,,,,,,,,,,,,,,,,,,,,,12,1.2159,1,0,2,2,5,1,2,×,6,2 × 6,congruent,smallerFirst,1,2,12,,,,,,,,
,,,,,,,,,,,,,,,743,2022-01-20_14h24.22.486,multiplicationStroop,2021.2.3,MacIntel,60.0024001,,,,,,,,,,,,,,,,,,,,,,,,,,,,,,,,,54,1.5654,1,0,3,3,26,1,9,×,6,9 × 6,congruent,largerFirst,2,1,54,,,,,,,,
,,,,,,,,,,,,,,,743,2022-01-20_14h24.22.486,multiplicationStroop,2021.2.3,MacIntel,60.0024001,,,,,,,,,,,,,,,,,,,,,,,,,,,,,,,,,6,1.4988,1,0,4,4,27,1,3,×,2,3 × 2,congruent,largerFirst,2,1,6,,,,,,,,
,,,,,,,,,,,,,,,743,2022-01-20_14h24.22.486,multiplicationStroop,2021.2.3,MacIntel,60.0024001,,,,,,,,,,,,,,,,,,,,,,,,,,,,,,,,,48,1.7163,1,0,5,5,4,1,6,×,8,6 × 8,congruent,smallerFirst,1,2,48,,,,,,,,
,,,,,,,,,,,,,,,743,2022-01-20_14h24.22.486,multiplicationStroop,2021.2.3,MacIntel,60.0024001,,,,,,,,,,,,,,,,,,,,,,,,,,,,,,,,,49,1.6512,1,0,6,6,33,1,7,×,7,7 × 7,neutral,tie,1,2,49,,,,,,,,
,,,,,,,,,,,,,,,743,2022-01-20_14h24.22.486,multiplicationStroop,2021.2.3,MacIntel,60.0024001,,,,,,,,,,,,,,,,,,,,,,,,,,,,,,,,,64,1.4636,1,0,7,7,34,1,8,×,8,8 × 8,neutral,tie,1,2,64,,,,,,,,
,,,,,,,,,,,,,,,743,2022-01-20_14h24.22.486,multiplicationStroop,2021.2.3,MacIntel,60.0024001,,,,,,,,,,,,,,,,,,,,,,,,,,,,,,,,,18,1.5163,1,0,8,8,25,1,6,×,3,6 × 3,congruent,largerFirst,2,1,18,,,,,,,,
,,,,,,,,,,,,,,,743,2022-01-20_14h24.22.486,multiplicationStroop,2021.2.3,MacIntel,60.0024001,,,,,,,,,,,,,,,,,,,,,,,,,,,,,,,,,14,1.3824,1,0,9,9,0,1,2,×,7,2 × 7,congruent,smallerFirst,1,2,14,,,,,,,,
,,,,,,,,,,,,,,,743,2022-01-20_14h24.22.486,multiplicationStroop,2021.2.3,MacIntel,60.0024001,,,,,,,,,,,,,,,,,,,,,,,,,,,,,,,,,28,1.733,1,0,10,10,13,1,4,×,7,4 × 7,congruent,smallerFirst,1,2,28,,,,,,,,
,,,,,,,,,,,,,,,743,2022-01-20_14h24.22.486,multiplicationStroop,2021.2.3,MacIntel,60.0024001,,,,,,,,,,,,,,,,,,,,,,,,,,,,,,,,,10,1.1169,1,0,11,11,10,1,2,×,5,2 × 5,congruent,smallerFirst,1,2,10,,,,,,,,
,,,,,,,,,,,,,,,743,2022-01-20_14h24.22.486,multiplicationStroop,2021.2.3,MacIntel,60.0024001,,,,,,,,,,,,,,,,,,,,,,,,,,,,,,,,,18,1.3157,1,0,12,12,8,1,2,×,9,2 × 9,congruent,smallerFirst,1,2,18,,,,,,,,
,,,,,,,,,,,,,,,743,2022-01-20_14h24.22.486,multiplicationStroop,2021.2.3,MacIntel,60.0024001,,,,,,,,,,,,,,,,,,,,,,,,,,,,,,,,,32,1.5147,1,0,13,13,6,1,4,×,8,4 × 8,congruent,smallerFirst,1,2,32,,,,,,,,
,,,,,,,,,,,,,,,743,2022-01-20_14h24.22.486,multiplicationStroop,2021.2.3,MacIntel,60.0024001,,,,,,,,,,,,,,,,,,,,,,,,,,,,,,,,,40,1.6661,1,0,14,14,20,1,8,×,5,8 × 5,congruent,largerFirst,2,1,40,,,,,,,,
,,,,,,,,,,,,,,,743,2022-01-20_14h24.22.486,multiplicationStroop,2021.2.3,MacIntel,60.0024001,,,,,,,,,,,,,,,,,,,,,,,,,,,,,,,,,72,1.548,1,0,15,15,3,1,8,×,9,8 × 9,congruent,smallerFirst,1,2,72,,,,,,,,
,,,,,,,,,,,,,,,743,2022-01-20_14h24.22.486,multiplicationStroop,2021.2.3,MacIntel,60.0024001,,,,,,,,,,,,,,,,,,,,,,,,,,,,,,,,,24,1.7852,1,0,16,16,24,1,8,×,3,8 × 3,congruent,largerFirst,2,1,24,,,,,,,,
,,,,,,,,,,,,,,,743,2022-01-20_14h24.22.486,multiplicationStroop,2021.2.3,MacIntel,60.0024001,,,,,,,,,,,,,,,,,,,,,,,,,,,,,,,,,35,1.6998,1,0,17,17,15,1,7,×,5,7 × 5,congruent,largerFirst,2,1,35,,,,,,,,
,,,,,,,,,,,,,,,743,2022-01-20_14h24.22.486,multiplicationStroop,2021.2.3,MacIntel,60.0024001,,,,,,,,,,,,,,,,,,,,,,,,,,,,,,,,,27,1.6313,1,0,18,18,12,1,3,×,9,3 × 9,congruent,smallerFirst,1,2,27,,,,,,,,
,,,,,,,,,,,,,,,743,2022-01-20_14h24.22.486,multiplicationStroop,2021.2.3,MacIntel,60.0024001,,,,,,,,,,,,,,,,,,,,,,,,,,,,,,,,,63,2.432,1,0,19,19,7,1,7,×,9,7 × 9,congruent,smallerFirst,1,2,63,,,,,,,,
,,,,,,,,,,,,,,,743,2022-01-20_14h24.22.486,multiplicationStroop,2021.2.3,MacIntel,60.0024001,,,,,,,,,,,,,,,,,,,,,,,,,,,,,,,,,4,1.248,1,0,20,20,28,1,2,×,2,2 × 2,neutral,tie,1,2,4,,,,,,,,
,,,,,,,,,,,,,,,743,2022-01-20_14h24.22.486,multiplicationStroop,2021.2.3,MacIntel,60.0024001,,,,,,,,,,,,,,,,,,,,,,,,,,,,,,,,,81,2.0172,1,0,21,21,35,1,9,×,9,9 × 9,neutral,tie,1,2,81,,,,,,,,
,,,,,,,,,,,,,,,743,2022-01-20_14h24.22.486,multiplicationStroop,2021.2.3,MacIntel,60.0024001,,,,,,,,,,,,,,,,,,,,,,,,,,,,,,,,,9,1.4485,1,0,22,22,29,1,3,×,3,3 × 3,neutral,tie,1,2,9,,,,,,,,
,,,,,,,,,,,,,,,743,2022-01-20_14h24.22.486,multiplicationStroop,2021.2.3,MacIntel,60.0024001,,,,,,,,,,,,,,,,,,,,,,,,,,,,,,,,,30,1.4012,1,0,23,23,1,1,5,×,6,5 × 6,congruent,smallerFirst,1,2,30,,,,,,,,
,,,,,,,,,,,,,,,743,2022-01-20_14h24.22.486,multiplicationStroop,2021.2.3,MacIntel,60.0024001,,,,,,,,,,,,,,,,,,,,,,,,,,,,,,,,,15,1.5815,1,0,24,24,18,1,5,×,3,5 × 3,congruent,largerFirst,2,1,15,,,,,,,,
,,,,,,,,,,,,,,,743,2022-01-20_14h24.22.486,multiplicationStroop,2021.2.3,MacIntel,60.0024001,,,,,,,,,,,,,,,,,,,,,,,,,,,,,,,,,21,1.6515,1,0,25,25,2,1,3,×,7,3 × 7,congruent,smallerFirst,1,2,21,,,,,,,,
,,,,,,,,,,,,,,,743,2022-01-20_14h24.22.486,multiplicationStroop,2021.2.3,MacIntel,60.0024001,,,,,,,,,,,,,,,,,,,,,,,,,,,,,,,,,45,1.6319,1,0,26,26,9,1,5,×,9,5 × 9,congruent,smallerFirst,1,2,45,,,,,,,,
,,,,,,,,,,,,,,,743,2022-01-20_14h24.22.486,multiplicationStroop,2021.2.3,MacIntel,60.0024001,,,,,,,,,,,,,,,,,,,,,,,,,,,,,,,,,63,1.7796,0,0,27,27,22,1,8,×,7,8 × 7,congruent,largerFirst,2,1,56,,,,,,,,
,,,,,,,,,,,,,,,743,2022-01-20_14h24.22.486,multiplicationStroop,2021.2.3,MacIntel,60.0024001,,,,,,,,,,,,,,,,,,,,,,,,,,,,,,,,,20,1.3686,1,0,28,28,21,1,5,×,4,5 × 4,congruent,largerFirst,2,1,20,,,,,,,,
,,,,,,,,,,,,,,,743,2022-01-20_14h24.22.486,multiplicationStroop,2021.2.3,MacIntel,60.0024001,,,,,,,,,,,,,,,,,,,,,,,,,,,,,,,,,42,1.6479,1,0,29,29,17,1,7,×,6,7 × 6,congruent,largerFirst,2,1,42,,,,,,,,
,,,,,,,,,,,,,,,743,2022-01-20_14h24.22.486,multiplicationStroop,2021.2.3,MacIntel,60.0024001,,,,,,,,,,,,,,,,,,,,,,,,,,,,,,,,,356,1.501,0,0,30,30,32,1,6,×,6,6 × 6,neutral,tie,1,2,36,,,,,,,,
,,,,,,,,,,,,,,,743,2022-01-20_14h24.22.486,multiplicationStroop,2021.2.3,MacIntel,60.0024001,,,,,,,,,,,,,,,,,,,,,,,,,,,,,,,,,16,1.6127,1,0,31,31,19,1,8,×,2,8 × 2,congruent,largerFirst,2,1,16,,,,,,,,
,,,,,,,,,,,,,,,743,2022-01-20_14h24.22.486,multiplicationStroop,2021.2.3,MacIntel,60.0024001,,,,,,,,,,,,,,,,,,,,,,,,,,,,,,,,,12,1.269,1,0,32,32,16,1,4,×,3,4 × 3,congruent,largerFirst,2,1,12,,,,,,,,
,,,,,,,,,,,,,,,743,2022-01-20_14h24.22.486,multiplicationStroop,2021.2.3,MacIntel,60.0024001,,,,,,,,,,,,,,,,,,,,,,,,,,,,,,,,,32,2.6651,0,0,33,33,14,1,9,×,4,9 × 4,congruent,largerFirst,2,1,36,,,,,,,,
,,,,,,,,,,,,,,,743,2022-01-20_14h24.22.486,multiplicationStroop,2021.2.3,MacIntel,60.0024001,,,,,,,,,,,,,,,,,,,,,,,,,,,,,,,,,24,1.6155,1,0,34,34,11,1,4,×,6,4 × 6,congruent,smallerFirst,1,2,24,,,,,,,,
,,,,,,,,,,,,,,,743,2022-01-20_14h24.22.486,multiplicationStroop,2021.2.3,MacIntel,60.0024001,,,,,,,,,,,,,,,,,,,,,,,,,,,,,,,,,16,1.4859,1,0,35,35,30,1,4,×,4,4 × 4,neutral,tie,1,2,16,,,,,,,,
,,,,,,,,,,,,,,,743,2022-01-20_14h24.22.486,multiplicationStroop,2021.2.3,MacIntel,60.0024001,,,,,,,,,,,,,,,,,,,,,,,,,,,,,,,,,,,,,,,,,,,,,,,,,,0,2,2,3,1,stimulusFile/mult_blk4_congruent.xlsx,,
,,,,,,,,,,,,,,,743,2022-01-20_14h24.22.486,multiplicationStroop,2021.2.3,MacIntel,60.0024001,,,,,,,,,,,,,,,,,,,,,,,,,,,,,,,space,0.7526,45,1.444,1,0,0,0,22,1,9,×,5,9 × 5,incongruent,largerFirst,1,2,45,,,,,,,,
,,,,,,,,,,,,,,,743,2022-01-20_14h24.22.486,multiplicationStroop,2021.2.3,MacIntel,60.0024001,,,,,,,,,,,,,,,,,,,,,,,,,,,,,,,,,48,1.5992,1,0,1,1,1,1,6,×,8,6 × 8,incongruent,smallerFirst,2,1,48,,,,,,,,
,,,,,,,,,,,,,,,743,2022-01-20_14h24.22.486,multiplicationStroop,2021.2.3,MacIntel,60.0024001,,,,,,,,,,,,,,,,,,,,,,,,,,,,,,,,,54,1.7964,1,0,2,2,6,1,6,×,9,6 × 9,incongruent,smallerFirst,2,1,54,,,,,,,,
,,,,,,,,,,,,,,,743,2022-01-20_14h24.22.486,multiplicationStroop,2021.2.3,MacIntel,60.0024001,,,,,,,,,,,,,,,,,,,,,,,,,,,,,,,,,10,1.2505,1,0,3,3,21,1,5,×,2,5 × 2,incongruent,largerFirst,1,2,10,,,,,,,,
,,,,,,,,,,,,,,,743,2022-01-20_14h24.22.486,multiplicationStroop,2021.2.3,MacIntel,60.0024001,,,,,,,,,,,,,,,,,,,,,,,,,,,,,,,,,27,1.4849,1,0,4,4,18,1,9,×,3,9 × 3,incongruent,largerFirst,1,2,27,,,,,,,,
,,,,,,,,,,,,,,,743,2022-01-20_14h24.22.486,multiplicationStroop,2021.2.3,MacIntel,60.0024001,,,,,,,,,,,,,,,,,,,,,,,,,,,,,,,,,16,1.2495,1,0,5,5,23,1,8,×,2,8 × 2,incongruent,largerFirst,1,2,16,,,,,,,,
,,,,,,,,,,,,,,,743,2022-01-20_14h24.22.486,multiplicationStroop,2021.2.3,MacIntel,60.0024001,,,,,,,,,,,,,,,,,,,,,,,,,,,,,,,,,21,1.2974,1,0,6,6,26,1,7,×,3,7 × 3,incongruent,largerFirst,1,2,21,,,,,,,,
,,,,,,,,,,,,,,,743,2022-01-20_14h24.22.486,multiplicationStroop,2021.2.3,MacIntel,60.0024001,,,,,,,,,,,,,,,,,,,,,,,,,,,,,,,,,8,1.5011,1,0,7,7,24,1,4,×,2,4 × 2,incongruent,largerFirst,1,2,8,,,,,,,,
,,,,,,,,,,,,,,,743,2022-01-20_14h24.22.486,multiplicationStroop,2021.2.3,MacIntel,60.0024001,,,,,,,,,,,,,,,,,,,,,,,,,,,,,,,,,32,1.4157,1,0,8,8,7,1,4,×,8,4 × 8,incongruent,smallerFirst,2,1,32,,,,,,,,
,,,,,,,,,,,,,,,743,2022-01-20_14h24.22.486,multiplicationStroop,2021.2.3,MacIntel,60.0024001,,,,,,,,,,,,,,,,,,,,,,,,,,,,,,,,,63,1.5619,1,0,9,9,3,1,7,×,9,7 × 9,incongruent,smallerFirst,2,1,63,,,,,,,,
,,,,,,,,,,,,,,,743,2022-01-20_14h24.22.486,multiplicationStroop,2021.2.3,MacIntel,60.0024001,,,,,,,,,,,,,,,,,,,,,,,,,,,,,,,,,4,1.1535,1,0,10,10,28,1,2,×,2,2 × 2,incongruent,tie,1,2,4,,,,,,,,
,,,,,,,,,,,,,,,743,2022-01-20_14h24.22.486,multiplicationStroop,2021.2.3,MacIntel,60.0024001,,,,,,,,,,,,,,,,,,,,,,,,,,,,,,,,,42,2.0962,1,0,11,11,17,1,7,×,6,7 × 6,incongruent,largerFirst,1,2,42,,,,,,,,
,,,,,,,,,,,,,,,743,2022-01-20_14h24.22.486,multiplicationStroop,2021.2.3,MacIntel,60.0024001,,,,,,,,,,,,,,,,,,,,,,,,,,,,,,,,,20,1.3714,1,0,12,12,27,1,5,×,4,5 × 4,incongruent,largerFirst,1,2,20,,,,,,,,
,,,,,,,,,,,,,,,743,2022-01-20_14h24.22.486,multiplicationStroop,2021.2.3,MacIntel,60.0024001,,,,,,,,,,,,,,,,,,,,,,,,,,,,,,,,,24,1.6473,1,0,13,13,9,1,3,×,8,3 × 8,incongruent,smallerFirst,2,1,24,,,,,,,,
,,,,,,,,,,,,,,,743,2022-01-20_14h24.22.486,multiplicationStroop,2021.2.3,MacIntel,60.0024001,,,,,,,,,,,,,,,,,,,,,,,,,,,,,,,,,12,1.3126,1,0,14,14,5,1,3,×,4,3 × 4,incongruent,smallerFirst,2,1,12,,,,,,,,
,,,,,,,,,,,,,,,743,2022-01-20_14h24.22.486,multiplicationStroop,2021.2.3,MacIntel,60.0024001,,,,,,,,,,,,,,,,,,,,,,,,,,,,,,,,,25,1.4497,1,0,15,15,31,1,5,×,5,5 × 5,incongruent,tie,1,2,25,,,,,,,,
,,,,,,,,,,,,,,,743,2022-01-20_14h24.22.486,multiplicationStroop,2021.2.3,MacIntel,60.0024001,,,,,,,,,,,,,,,,,,,,,,,,,,,,,,,,,81,1.3322,1,0,16,16,35,1,9,×,9,9 × 9,incongruent,tie,1,2,81,,,,,,,,
,,,,,,,,,,,,,,,743,2022-01-20_14h24.22.486,multiplicationStroop,2021.2.3,MacIntel,60.0024001,,,,,,,,,,,,,,,,,,,,,,,,,,,,,,,,,40,1.6502,1,0,17,17,13,1,5,×,8,5 × 8,incongruent,smallerFirst,2,1,40,,,,,,,,
,,,,,,,,,,,,,,,743,2022-01-20_14h24.22.486,multiplicationStroop,2021.2.3,MacIntel,60.0024001,,,,,,,,,,,,,,,,,,,,,,,,,,,,,,,,,64,1.7009,1,0,18,18,34,1,8,×,8,8 × 8,incongruent,tie,1,2,64,,,,,,,,
,,,,,,,,,,,,,,,743,2022-01-20_14h24.22.486,multiplicationStroop,2021.2.3,MacIntel,60.0024001,,,,,,,,,,,,,,,,,,,,,,,,,,,,,,,,,356,1.7811,0,0,19,19,12,1,5,×,7,5 × 7,incongruent,smallerFirst,2,1,35,,,,,,,,
,,,,,,,,,,,,,,,743,2022-01-20_14h24.22.486,multiplicationStroop,2021.2.3,MacIntel,60.0024001,,,,,,,,,,,,,,,,,,,,,,,,,,,,,,,,,6,1.7332,1,0,20,20,11,1,2,×,3,2 × 3,incongruent,smallerFirst,2,1,6,,,,,,,,
,,,,,,,,,,,,,,,743,2022-01-20_14h24.22.486,multiplicationStroop,2021.2.3,MacIntel,60.0024001,,,,,,,,,,,,,,,,,,,,,,,,,,,,,,,,,9,1.5678,1,0,21,21,29,1,3,×,3,3 × 3,incongruent,tie,1,2,9,,,,,,,,
,,,,,,,,,,,,,,,743,2022-01-20_14h24.22.486,multiplicationStroop,2021.2.3,MacIntel,60.0024001,,,,,,,,,,,,,,,,,,,,,,,,,,,,,,,,,14,1.3825,1,0,22,22,4,1,2,×,7,2 × 7,incongruent,smallerFirst,2,1,14,,,,,,,,
,,,,,,,,,,,,,,,743,2022-01-20_14h24.22.486,multiplicationStroop,2021.2.3,MacIntel,60.0024001,,,,,,,,,,,,,,,,,,,,,,,,,,,,,,,,,18,1.333,1,0,23,23,2,1,2,×,9,2 × 9,incongruent,smallerFirst,2,1,18,,,,,,,,
,,,,,,,,,,,,,,,743,2022-01-20_14h24.22.486,multiplicationStroop,2021.2.3,MacIntel,60.0024001,,,,,,,,,,,,,,,,,,,,,,,,,,,,,,,,,12,1.3979,1,0,24,24,19,1,6,×,2,6 × 2,incongruent,largerFirst,1,2,12,,,,,,,,
,,,,,,,,,,,,,,,743,2022-01-20_14h24.22.486,multiplicationStroop,2021.2.3,MacIntel,60.0024001,,,,,,,,,,,,,,,,,,,,,,,,,,,,,,,,,49,1.682,1,0,25,25,33,1,7,×,7,7 × 7,incongruent,tie,1,2,49,,,,,,,,
,,,,,,,,,,,,,,,743,2022-01-20_14h24.22.486,multiplicationStroop,2021.2.3,MacIntel,60.0024001,,,,,,,,,,,,,,,,,,,,,,,,,,,,,,,,,56,1.7543,1,0,26,26,14,1,8,×,7,8 × 7,incongruent,largerFirst,1,2,56,,,,,,,,
,,,,,,,,,,,,,,,743,2022-01-20_14h24.22.486,multiplicationStroop,2021.2.3,MacIntel,60.0024001,,,,,,,,,,,,,,,,,,,,,,,,,,,,,,,,,72,1.8129,1,0,27,27,0,1,8,×,9,8 × 9,incongruent,smallerFirst,2,1,72,,,,,,,,
,,,,,,,,,,,,,,,743,2022-01-20_14h24.22.486,multiplicationStroop,2021.2.3,MacIntel,60.0024001,,,,,,,,,,,,,,,,,,,,,,,,,,,,,,,,,36,1.7007,1,0,28,28,15,1,9,×,4,9 × 4,incongruent,largerFirst,1,2,36,,,,,,,,
,,,,,,,,,,,,,,,743,2022-01-20_14h24.22.486,multiplicationStroop,2021.2.3,MacIntel,60.0024001,,,,,,,,,,,,,,,,,,,,,,,,,,,,,,,,,28,1.8833,1,0,29,29,16,1,7,×,4,7 × 4,incongruent,largerFirst,1,2,28,,,,,,,,
,,,,,,,,,,,,,,,743,2022-01-20_14h24.22.486,multiplicationStroop,2021.2.3,MacIntel,60.0024001,,,,,,,,,,,,,,,,,,,,,,,,,,,,,,,,,18,1.9808,1,0,30,30,8,1,3,×,6,3 × 6,incongruent,smallerFirst,2,1,18,,,,,,,,
,,,,,,,,,,,,,,,743,2022-01-20_14h24.22.486,multiplicationStroop,2021.2.3,MacIntel,60.0024001,,,,,,,,,,,,,,,,,,,,,,,,,,,,,,,,,30,1.3352,1,0,31,31,25,1,6,×,5,6 × 5,incongruent,largerFirst,1,2,30,,,,,,,,
,,,,,,,,,,,,,,,743,2022-01-20_14h24.22.486,multiplicationStroop,2021.2.3,MacIntel,60.0024001,,,,,,,,,,,,,,,,,,,,,,,,,,,,,,,,,15,1.4108,1,0,32,32,10,1,3,×,5,3 × 5,incongruent,smallerFirst,2,1,15,,,,,,,,
,,,,,,,,,,,,,,,743,2022-01-20_14h24.22.486,multiplicationStroop,2021.2.3,MacIntel,60.0024001,,,,,,,,,,,,,,,,,,,,,,,,,,,,,,,,,16,1.7494,1,0,33,33,30,1,4,×,4,4 × 4,incongruent,tie,1,2,16,,,,,,,,
,,,,,,,,,,,,,,,743,2022-01-20_14h24.22.486,multiplicationStroop,2021.2.3,MacIntel,60.0024001,,,,,,,,,,,,,,,,,,,,,,,,,,,,,,,,,36,1.8522,1,0,34,34,32,1,6,×,6,6 × 6,incongruent,tie,1,2,36,,,,,,,,
,,,,,,,,,,,,,,,743,2022-01-20_14h24.22.486,multiplicationStroop,2021.2.3,MacIntel,60.0024001,,,,,,,,,,,,,,,,,,,,,,,,,,,,,,,,,24,1.6824,1,0,35,35,20,1,6,×,4,6 × 4,incongruent,largerFirst,1,2,24,,,,,,,,
,,,,,,,,,,,,,,,743,2022-01-20_14h24.22.486,multiplicationStroop,2021.2.3,MacIntel,60.0024001,,,,,,,,,,,,,,,,,,,,,,,,,,,,,,,,,,,,,,,,,,,,,,,,,,0,3,3,5,1,stimulusFile/mult_blk6_INcongruent.xlsx,,
,,,,,,,,,,,,,,,743,2022-01-20_14h24.22.486,multiplicationStroop,2021.2.3,MacIntel,60.0024001,,,,,,,,,,,,,,,,,,,,,,,,,,,,,,,space,1.454,20,1.6895,1,0,0,0,7,1,4,×,5,4 × 5,congruent,smallerFirst,1,2,20,,,,,,,,
,,,,,,,,,,,,,,,743,2022-01-20_14h24.22.486,multiplicationStroop,2021.2.3,MacIntel,60.0024001,,,,,,,,,,,,,,,,,,,,,,,,,,,,,,,,,15,1.3341,1,0,1,1,4,1,3,×,5,3 × 5,congruent,smallerFirst,1,2,15,,,,,,,,
,,,,,,,,,,,,,,,743,2022-01-20_14h24.22.486,multiplicationStroop,2021.2.3,MacIntel,60.0024001,,,,,,,,,,,,,,,,,,,,,,,,,,,,,,,,,42,1.8288,1,0,2,2,3,1,6,×,7,6 × 7,congruent,smallerFirst,1,2,42,,,,,,,,
,,,,,,,,,,,,,,,743,2022-01-20_14h24.22.486,multiplicationStroop,2021.2.3,MacIntel,60.0024001,,,,,,,,,,,,,,,,,,,,,,,,,,,,,,,,,14,1.5386,1,0,3,3,14,1,7,×,2,7 × 2,congruent,largerFirst,2,1,14,,,,,,,,
,,,,,,,,,,,,,,,743,2022-01-20_14h24.22.486,multiplicationStroop,2021.2.3,MacIntel,60.0024001,,,,,,,,,,,,,,,,,,,,,,,,,,,,,,,,,36,1.7755,1,0,4,4,0,1,4,×,9,4 × 9,congruent,smallerFirst,1,2,36,,,,,,,,
,,,,,,,,,,,,,,,743,2022-01-20_14h24.22.486,multiplicationStroop,2021.2.3,MacIntel,60.0024001,,,,,,,,,,,,,,,,,,,,,,,,,,,,,,,,,12,1.2035,1,0,5,5,19,1,6,×,2,6 × 2,congruent,largerFirst,2,1,12,,,,,,,,
,,,,,,,,,,,,,,,743,2022-01-20_14h24.22.486,multiplicationStroop,2021.2.3,MacIntel,60.0024001,,,,,,,,,,,,,,,,,,,,,,,,,,,,,,,,,24,1.7618,1,0,6,6,25,1,6,×,4,6 × 4,congruent,largerFirst,2,1,24,,,,,,,,
,,,,,,,,,,,,,,,743,2022-01-20_14h24.22.486,multiplicationStroop,2021.2.3,MacIntel,60.0024001,,,,,,,,,,,,,,,,,,,,,,,,,,,,,,,,,36,1.7983,1,0,7,7,32,1,6,×,6,6 × 6,neutral,tie,2,1,36,,,,,,,,
,,,,,,,,,,,,,,,743,2022-01-20_14h24.22.486,multiplicationStroop,2021.2.3,MacIntel,60.0024001,,,,,,,,,,,,,,,,,,,,,,,,,,,,,,,,,40,1.4998,1,0,8,8,6,1,5,×,8,5 × 8,congruent,smallerFirst,1,2,40,,,,,,,,
,,,,,,,,,,,,,,,743,2022-01-20_14h24.22.486,multiplicationStroop,2021.2.3,MacIntel,60.0024001,,,,,,,,,,,,,,,,,,,,,,,,,,,,,,,,,6,1.4343,1,0,9,9,13,1,2,×,3,2 × 3,congruent,smallerFirst,1,2,6,,,,,,,,
,,,,,,,,,,,,,,,743,2022-01-20_14h24.22.486,multiplicationStroop,2021.2.3,MacIntel,60.0024001,,,,,,,,,,,,,,,,,,,,,,,,,,,,,,,,,18,1.4169,1,0,10,10,22,1,9,×,2,9 × 2,congruent,largerFirst,2,1,18,,,,,,,,
,,,,,,,,,,,,,,,743,2022-01-20_14h24.22.486,multiplicationStroop,2021.2.3,MacIntel,60.0024001,,,,,,,,,,,,,,,,,,,,,,,,,,,,,,,,,21,1.2977,1,0,11,11,16,1,7,×,3,7 × 3,congruent,largerFirst,2,1,21,,,,,,,,
,,,,,,,,,,,,,,,743,2022-01-20_14h24.22.486,multiplicationStroop,2021.2.3,MacIntel,60.0024001,,,,,,,,,,,,,,,,,,,,,,,,,,,,,,,,,30,1.4146,1,0,12,12,15,1,6,×,5,6 × 5,congruent,largerFirst,2,1,30,,,,,,,,
,,,,,,,,,,,,,,,743,2022-01-20_14h24.22.486,multiplicationStroop,2021.2.3,MacIntel,60.0024001,,,,,,,,,,,,,,,,,,,,,,,,,,,,,,,,,25,1.6657,1,0,13,13,31,1,5,×,5,5 × 5,neutral,tie,2,1,25,,,,,,,,
,,,,,,,,,,,,,,,743,2022-01-20_14h24.22.486,multiplicationStroop,2021.2.3,MacIntel,60.0024001,,,,,,,,,,,,,,,,,,,,,,,,,,,,,,,,,18,1.349,1,0,14,14,11,1,3,×,6,3 × 6,congruent,smallerFirst,1,2,18,,,,,,,,
,,,,,,,,,,,,,,,743,2022-01-20_14h24.22.486,multiplicationStroop,2021.2.3,MacIntel,60.0024001,,,,,,,,,,,,,,,,,,,,,,,,,,,,,,,,,49,1.9227,1,0,15,15,33,1,7,×,7,7 × 7,neutral,tie,2,1,49,,,,,,,,
,,,,,,,,,,,,,,,743,2022-01-20_14h24.22.486,multiplicationStroop,2021.2.3,MacIntel,60.0024001,,,,,,,,,,,,,,,,,,,,,,,,,,,,,,,,,72,1.6959,1,0,16,16,17,1,9,×,8,9 × 8,congruent,largerFirst,2,1,72,,,,,,,,
,,,,,,,,,,,,,,,743,2022-01-20_14h24.22.486,multiplicationStroop,2021.2.3,MacIntel,60.0024001,,,,,,,,,,,,,,,,,,,,,,,,,,,,,,,,,45,1.4822,1,0,17,17,23,1,9,×,5,9 × 5,congruent,largerFirst,2,1,45,,,,,,,,
,,,,,,,,,,,,,,,743,2022-01-20_14h24.22.486,multiplicationStroop,2021.2.3,MacIntel,60.0024001,,,,,,,,,,,,,,,,,,,,,,,,,,,,,,,,,63,1.7632,1,0,18,18,21,1,9,×,7,9 × 7,congruent,largerFirst,2,1,63,,,,,,,,
,,,,,,,,,,,,,,,743,2022-01-20_14h24.22.486,multiplicationStroop,2021.2.3,MacIntel,60.0024001,,,,,,,,,,,,,,,,,,,,,,,,,,,,,,,,,56,1.7689,1,0,19,19,8,1,7,×,8,7 × 8,congruent,smallerFirst,1,2,56,,,,,,,,
,,,,,,,,,,,,,,,743,2022-01-20_14h24.22.486,multiplicationStroop,2021.2.3,MacIntel,60.0024001,,,,,,,,,,,,,,,,,,,,,,,,,,,,,,,,,10,1.2025,1,0,20,20,24,1,5,×,2,5 × 2,congruent,largerFirst,2,1,10,,,,,,,,
,,,,,,,,,,,,,,,743,2022-01-20_14h24.22.486,multiplicationStroop,2021.2.3,MacIntel,60.0024001,,,,,,,,,,,,,,,,,,,,,,,,,,,,,,,,,54,1.7109,1,0,21,21,12,1,6,×,9,6 × 9,congruent,smallerFirst,1,2,54,,,,,,,,
,,,,,,,,,,,,,,,743,2022-01-20_14h24.22.486,multiplicationStroop,2021.2.3,MacIntel,60.0024001,,,,,,,,,,,,,,,,,,,,,,,,,,,,,,,,,4,1.8848,1,0,22,22,28,1,2,×,2,2 × 2,neutral,tie,2,1,4,,,,,,,,
,,,,,,,,,,,,,,,743,2022-01-20_14h24.22.486,multiplicationStroop,2021.2.3,MacIntel,60.0024001,,,,,,,,,,,,,,,,,,,,,,,,,,,,,,,,,16,1.3657,1,0,23,23,5,1,2,×,8,2 × 8,congruent,smallerFirst,1,2,16,,,,,,,,
,,,,,,,,,,,,,,,743,2022-01-20_14h24.22.486,multiplicationStroop,2021.2.3,MacIntel,60.0024001,,,,,,,,,,,,,,,,,,,,,,,,,,,,,,,,,32,1.4316,1,0,24,24,20,1,8,×,4,8 × 4,congruent,largerFirst,2,1,32,,,,,,,,
,,,,,,,,,,,,,,,743,2022-01-20_14h24.22.486,multiplicationStroop,2021.2.3,MacIntel,60.0024001,,,,,,,,,,,,,,,,,,,,,,,,,,,,,,,,,35,1.6336,1,0,25,25,1,1,5,×,7,5 × 7,congruent,smallerFirst,1,2,35,,,,,,,,
,,,,,,,,,,,,,,,743,2022-01-20_14h24.22.486,multiplicationStroop,2021.2.3,MacIntel,60.0024001,,,,,,,,,,,,,,,,,,,,,,,,,,,,,,,,,64,1.6648,1,0,26,26,34,1,8,×,8,8 × 8,neutral,tie,2,1,64,,,,,,,,
,,,,,,,,,,,,,,,743,2022-01-20_14h24.22.486,multiplicationStroop,2021.2.3,MacIntel,60.0024001,,,,,,,,,,,,,,,,,,,,,,,,,,,,,,,,,81,1.3179,1,0,27,27,35,1,9,×,9,9 × 9,neutral,tie,2,1,81,,,,,,,,
,,,,,,,,,,,,,,,743,2022-01-20_14h24.22.486,multiplicationStroop,2021.2.3,MacIntel,60.0024001,,,,,,,,,,,,,,,,,,,,,,,,,,,,,,,,,9,1.7477,1,0,28,28,29,1,3,×,3,3 × 3,neutral,tie,2,1,9,,,,,,,,
,,,,,,,,,,,,,,,743,2022-01-20_14h24.22.486,multiplicationStroop,2021.2.3,MacIntel,60.0024001,,,,,,,,,,,,,,,,,,,,,,,,,,,,,,,,,27,1.5512,1,0,29,29,26,1,9,×,3,9 × 3,congruent,largerFirst,2,1,27,,,,,,,,
,,,,,,,,,,,,,,,743,2022-01-20_14h24.22.486,multiplicationStroop,2021.2.3,MacIntel,60.0024001,,,,,,,,,,,,,,,,,,,,,,,,,,,,,,,,,48,1.7468,1,0,30,30,18,1,8,×,6,8 × 6,congruent,largerFirst,2,1,48,,,,,,,,
,,,,,,,,,,,,,,,743,2022-01-20_14h24.22.486,multiplicationStroop,2021.2.3,MacIntel,60.0024001,,,,,,,,,,,,,,,,,,,,,,,,,,,,,,,,,16,1.4335,1,0,31,31,30,1,4,×,4,4 × 4,neutral,tie,2,1,16,,,,,,,,
,,,,,,,,,,,,,,,743,2022-01-20_14h24.22.486,multiplicationStroop,2021.2.3,MacIntel,60.0024001,,,,,,,,,,,,,,,,,,,,,,,,,,,,,,,,,28,1.3982,1,0,32,32,27,1,7,×,4,7 × 4,congruent,largerFirst,2,1,28,,,,,,,,
,,,,,,,,,,,,,,,743,2022-01-20_14h24.22.486,multiplicationStroop,2021.2.3,MacIntel,60.0024001,,,,,,,,,,,,,,,,,,,,,,,,,,,,,,,,,12,1.2674,1,0,33,33,2,1,3,×,4,3 × 4,congruent,smallerFirst,1,2,12,,,,,,,,
,,,,,,,,,,,,,,,743,2022-01-20_14h24.22.486,multiplicationStroop,2021.2.3,MacIntel,60.0024001,,,,,,,,,,,,,,,,,,,,,,,,,,,,,,,,,24,1.9148,1,0,34,34,10,1,3,×,8,3 × 8,congruent,smallerFirst,1,2,24,,,,,,,,
,,,,,,,,,,,,,,,743,2022-01-20_14h24.22.486,multiplicationStroop,2021.2.3,MacIntel,60.0024001,,,,,,,,,,,,,,,,,,,,,,,,,,,,,,,,,8,1.2152,1,0,35,35,9,1,2,×,4,2 × 4,congruent,smallerFirst,1,2,8,,,,,,,,
,,,,,,,,,,,,,,,743,2022-01-20_14h24.22.486,multiplicationStroop,2021.2.3,MacIntel,60.0024001,,,,,,,,,,,,,,,,,,,,,,,,,,,,,,,,,,,,,,,,,,,,,,,,,,0,4,4,2,1,stimulusFile/mult_blk3_congruent.xlsx,,
,,,,,,,,,,,,,,,743,2022-01-20_14h24.22.486,multiplicationStroop,2021.2.3,MacIntel,60.0024001,,,,,,,,,,,,,,,,,,,,,,,,,,,,,,,space,0.8508,15,1.5707,1,0,0,0,5,1,3,×,5,3 × 5,neutral,smallerFirst,1.5,1.5,15,,,,,,,,
,,,,,,,,,,,,,,,743,2022-01-20_14h24.22.486,multiplicationStroop,2021.2.3,MacIntel,60.0024001,,,,,,,,,,,,,,,,,,,,,,,,,,,,,,,,,63,1.6159,1,0,1,1,12,1,7,×,9,7 × 9,neutral,smallerFirst,1.5,1.5,63,,,,,,,,
,,,,,,,,,,,,,,,743,2022-01-20_14h24.22.486,multiplicationStroop,2021.2.3,MacIntel,60.0024001,,,,,,,,,,,,,,,,,,,,,,,,,,,,,,,,,21,1.3005,1,0,2,2,8,1,3,×,7,3 × 7,neutral,smallerFirst,1.5,1.5,21,,,,,,,,
,,,,,,,,,,,,,,,743,2022-01-20_14h24.22.486,multiplicationStroop,2021.2.3,MacIntel,60.0024001,,,,,,,,,,,,,,,,,,,,,,,,,,,,,,,,,72,1.4987,1,0,3,3,11,1,8,×,9,8 × 9,neutral,smallerFirst,1.5,1.5,72,,,,,,,,
,,,,,,,,,,,,,,,743,2022-01-20_14h24.22.486,multiplicationStroop,2021.2.3,MacIntel,60.0024001,,,,,,,,,,,,,,,,,,,,,,,,,,,,,,,,,54,1.8324,1,0,4,4,7,1,6,×,9,6 × 9,neutral,smallerFirst,1.5,1.5,54,,,,,,,,
,,,,,,,,,,,,,,,743,2022-01-20_14h24.22.486,multiplicationStroop,2021.2.3,MacIntel,60.0024001,,,,,,,,,,,,,,,,,,,,,,,,,,,,,,,,,24,1.5845,1,0,5,5,22,1,8,×,3,8 × 3,neutral,largerFirst,1.5,1.5,24,,,,,,,,
,,,,,,,,,,,,,,,743,2022-01-20_14h24.22.486,multiplicationStroop,2021.2.3,MacIntel,60.0024001,,,,,,,,,,,,,,,,,,,,,,,,,,,,,,,,,35,1.948,1,0,6,6,1,1,5,×,7,5 × 7,neutral,smallerFirst,1.5,1.5,35,,,,,,,,
,,,,,,,,,,,,,,,743,2022-01-20_14h24.22.486,multiplicationStroop,2021.2.3,MacIntel,60.0024001,,,,,,,,,,,,,,,,,,,,,,,,,,,,,,,,,56,2.4981,1,0,7,7,9,1,7,×,8,7 × 8,neutral,smallerFirst,1.5,1.5,56,,,,,,,,
,,,,,,,,,,,,,,,743,2022-01-20_14h24.22.486,multiplicationStroop,2021.2.3,MacIntel,60.0024001,,,,,,,,,,,,,,,,,,,,,,,,,,,,,,,,,81,1.2518,1,0,8,8,35,1,9,×,9,9 × 9,neutral,tie,1.5,1.5,81,,,,,,,,
,,,,,,,,,,,,,,,743,2022-01-20_14h24.22.486,multiplicationStroop,2021.2.3,MacIntel,60.0024001,,,,,,,,,,,,,,,,,,,,,,,,,,,,,,,,,48,1.8159,1,0,9,9,15,1,8,×,6,8 × 6,neutral,largerFirst,1.5,1.5,48,,,,,,,,
,,,,,,,,,,,,,,,743,2022-01-20_14h24.22.486,multiplicationStroop,2021.2.3,MacIntel,60.0024001,,,,,,,,,,,,,,,,,,,,,,,,,,,,,,,,,49,1.4476,1,0,10,10,33,1,7,×,7,7 × 7,neutral,tie,1.5,1.5,49,,,,,,,,
,,,,,,,,,,,,,,,743,2022-01-20_14h24.22.486,multiplicationStroop,2021.2.3,MacIntel,60.0024001,,,,,,,,,,,,,,,,,,,,,,,,,,,,,,,,,6,1.8977,1,0,11,11,26,1,3,×,2,3 × 2,neutral,largerFirst,1.5,1.5,6,,,,,,,,
,,,,,,,,,,,,,,,743,2022-01-20_14h24.22.486,multiplicationStroop,2021.2.3,MacIntel,60.0024001,,,,,,,,,,,,,,,,,,,,,,,,,,,,,,,,,28,1.6665,1,0,12,12,17,1,7,×,4,7 × 4,neutral,largerFirst,1.5,1.5,28,,,,,,,,
,,,,,,,,,,,,,,,743,2022-01-20_14h24.22.486,multiplicationStroop,2021.2.3,MacIntel,60.0024001,,,,,,,,,,,,,,,,,,,,,,,,,,,,,,,,,20,2.0501,1,0,13,13,20,1,5,×,4,5 × 4,neutral,largerFirst,1.5,1.5,20,,,,,,,,
,,,,,,,,,,,,,,,743,2022-01-20_14h24.22.486,multiplicationStroop,2021.2.3,MacIntel,60.0024001,,,,,,,,,,,,,,,,,,,,,,,,,,,,,,,,,36,1.9477,1,0,14,14,27,1,9,×,4,9 × 4,neutral,largerFirst,1.5,1.5,36,,,,,,,,
,,,,,,,,,,,,,,,743,2022-01-20_14h24.22.486,multiplicationStroop,2021.2.3,MacIntel,60.0024001,,,,,,,,,,,,,,,,,,,,,,,,,,,,,,,,,10,1.3194,1,0,15,15,4,1,2,×,5,2 × 5,neutral,smallerFirst,1.5,1.5,10,,,,,,,,
,,,,,,,,,,,,,,,743,2022-01-20_14h24.22.486,multiplicationStroop,2021.2.3,MacIntel,60.0024001,,,,,,,,,,,,,,,,,,,,,,,,,,,,,,,,,9,1.2327,1,0,16,16,29,1,3,×,3,3 × 3,neutral,tie,1.5,1.5,9,,,,,,,,
,,,,,,,,,,,,,,,743,2022-01-20_14h24.22.486,multiplicationStroop,2021.2.3,MacIntel,60.0024001,,,,,,,,,,,,,,,,,,,,,,,,,,,,,,,,,30,1.5129,1,0,17,17,19,1,6,×,5,6 × 5,neutral,largerFirst,1.5,1.5,30,,,,,,,,
,,,,,,,,,,,,,,,743,2022-01-20_14h24.22.486,multiplicationStroop,2021.2.3,MacIntel,60.0024001,,,,,,,,,,,,,,,,,,,,,,,,,,,,,,,,,24,1.6328,1,0,18,18,2,1,4,×,6,4 × 6,neutral,smallerFirst,1.5,1.5,24,,,,,,,,
,,,,,,,,,,,,,,,743,2022-01-20_14h24.22.486,multiplicationStroop,2021.2.3,MacIntel,60.0024001,,,,,,,,,,,,,,,,,,,,,,,,,,,,,,,,,40,1.4845,1,0,19,19,24,1,8,×,5,8 × 5,neutral,largerFirst,1.5,1.5,40,,,,,,,,
,,,,,,,,,,,,,,,743,2022-01-20_14h24.22.486,multiplicationStroop,2021.2.3,MacIntel,60.0024001,,,,,,,,,,,,,,,,,,,,,,,,,,,,,,,,,16,1.4962,1,0,20,20,13,1,2,×,8,2 × 8,neutral,smallerFirst,1.5,1.5,16,,,,,,,,
,,,,,,,,,,,,,,,743,2022-01-20_14h24.22.486,multiplicationStroop,2021.2.3,MacIntel,60.0024001,,,,,,,,,,,,,,,,,,,,,,,,,,,,,,,,,12,1.3001,1,0,21,21,21,1,4,×,3,4 × 3,neutral,largerFirst,1.5,1.5,12,,,,,,,,
,,,,,,,,,,,,,,,743,2022-01-20_14h24.22.486,multiplicationStroop,2021.2.3,MacIntel,60.0024001,,,,,,,,,,,,,,,,,,,,,,,,,,,,,,,,,16,1.4179,1,0,22,22,30,1,4,×,4,4 × 4,neutral,tie,1.5,1.5,16,,,,,,,,
,,,,,,,,,,,,,,,743,2022-01-20_14h24.22.486,multiplicationStroop,2021.2.3,MacIntel,60.0024001,,,,,,,,,,,,,,,,,,,,,,,,,,,,,,,,,27,1.5185,1,0,23,23,14,1,9,×,3,9 × 3,neutral,largerFirst,1.5,1.5,27,,,,,,,,
,,,,,,,,,,,,,,,743,2022-01-20_14h24.22.486,multiplicationStroop,2021.2.3,MacIntel,60.0024001,,,,,,,,,,,,,,,,,,,,,,,,,,,,,,,,,64,1.4952,1,0,24,24,34,1,8,×,8,8 × 8,neutral,tie,1.5,1.5,64,,,,,,,,
,,,,,,,,,,,,,,,743,2022-01-20_14h24.22.486,multiplicationStroop,2021.2.3,MacIntel,60.0024001,,,,,,,,,,,,,,,,,,,,,,,,,,,,,,,,,14,1.3883,1,0,25,25,16,1,7,×,2,7 × 2,neutral,largerFirst,1.5,1.5,14,,,,,,,,
,,,,,,,,,,,,,,,743,2022-01-20_14h24.22.486,multiplicationStroop,2021.2.3,MacIntel,60.0024001,,,,,,,,,,,,,,,,,,,,,,,,,,,,,,,,,8,1.5104,1,0,26,26,3,1,2,×,4,2 × 4,neutral,smallerFirst,1.5,1.5,8,,,,,,,,
,,,,,,,,,,,,,,,743,2022-01-20_14h24.22.486,multiplicationStroop,2021.2.3,MacIntel,60.0024001,,,,,,,,,,,,,,,,,,,,,,,,,,,,,,,,,42,1.7536,1,0,27,27,6,1,6,×,7,6 × 7,neutral,smallerFirst,1.5,1.5,42,,,,,,,,
,,,,,,,,,,,,,,,743,2022-01-20_14h24.22.486,multiplicationStroop,2021.2.3,MacIntel,60.0024001,,,,,,,,,,,,,,,,,,,,,,,,,,,,,,,,,4,1.5637,1,0,28,28,28,1,2,×,2,2 × 2,neutral,tie,1.5,1.5,4,,,,,,,,
,,,,,,,,,,,,,,,743,2022-01-20_14h24.22.486,multiplicationStroop,2021.2.3,MacIntel,60.0024001,,,,,,,,,,,,,,,,,,,,,,,,,,,,,,,,,36,1.6482,1,0,29,29,32,1,6,×,6,6 × 6,neutral,tie,1.5,1.5,36,,,,,,,,
,,,,,,,,,,,,,,,743,2022-01-20_14h24.22.486,multiplicationStroop,2021.2.3,MacIntel,60.0024001,,,,,,,,,,,,,,,,,,,,,,,,,,,,,,,,,18,1.4015,1,0,30,30,0,1,3,×,6,3 × 6,neutral,smallerFirst,1.5,1.5,18,,,,,,,,
,,,,,,,,,,,,,,,743,2022-01-20_14h24.22.486,multiplicationStroop,2021.2.3,MacIntel,60.0024001,,,,,,,,,,,,,,,,,,,,,,,,,,,,,,,,,45,1.5153,1,0,31,31,10,1,5,×,9,5 × 9,neutral,smallerFirst,1.5,1.5,45,,,,,,,,
,,,,,,,,,,,,,,,743,2022-01-20_14h24.22.486,multiplicationStroop,2021.2.3,MacIntel,60.0024001,,,,,,,,,,,,,,,,,,,,,,,,,,,,,,,,,12,1.1633,1,0,32,32,25,1,6,×,2,6 × 2,neutral,largerFirst,1.5,1.5,12,,,,,,,,
,,,,,,,,,,,,,,,743,2022-01-20_14h24.22.486,multiplicationStroop,2021.2.3,MacIntel,60.0024001,,,,,,,,,,,,,,,,,,,,,,,,,,,,,,,,,25,1.6972,1,0,33,33,31,1,5,×,5,5 × 5,neutral,tie,1.5,1.5,25,,,,,,,,
,,,,,,,,,,,,,,,743,2022-01-20_14h24.22.486,multiplicationStroop,2021.2.3,MacIntel,60.0024001,,,,,,,,,,,,,,,,,,,,,,,,,,,,,,,,,32,1.3691,1,0,34,34,23,1,8,×,4,8 × 4,neutral,largerFirst,1.5,1.5,32,,,,,,,,
,,,,,,,,,,,,,,,743,2022-01-20_14h24.22.486,multiplicationStroop,2021.2.3,MacIntel,60.0024001,,,,,,,,,,,,,,,,,,,,,,,,,,,,,,,,,18,1.3293,1,0,35,35,18,1,9,×,2,9 × 2,neutral,largerFirst,1.5,1.5,18,,,,,,,,
,,,,,,,,,,,,,,,743,2022-01-20_14h24.22.486,multiplicationStroop,2021.2.3,MacIntel,60.0024001,,,,,,,,,,,,,,,,,,,,,,,,,,,,,,,,,,,,,,,,,,,,,,,,,,0,5,5,1,1,stimulusFile/mult_blk2.xlsx,,
,,,,,,,,,,,,,,,743,2022-01-20_14h24.22.486,multiplicationStroop,2021.2.3,MacIntel,60.0024001,,,,,,,,,,,,,,,,,,,,,,,,,,,,,,,,,,,,,,,,,,,,,,,,,,,,,,,,space,3.5628