welcomeKey_resp.keys,welcomeKey_resp.rt,X Scale,Y Scale,rt_resp_4.keys,rt_resp_4.corr,rt_resp_4.rt,speedtest_2.thisRepN,speedtest_2.thisTrialN,speedtest_2.thisN,speedtest_2.thisIndex,speedtest_2.ran,numberSc,posX,positionLayout,participant,date,expName,psychopyVersion,OS,frameRate,ct_instrresp.keys,ct_instrresp.rt,key_resp_2.keys,key_resp_2.rt,ct_keyResp.keys,ct_keyResp.corr,ct_keyResp.rt,trials.thisRepN,trials.thisTrialN,trials.thisN,trials.thisIndex,trials.ran,leftNo,rightNo,displayProblem,numDistance,leftNo_size,rightNo_size,Dims,keyAnswer,TS_Loop.thisRepN,TS_Loop.thisTrialN,TS_Loop.thisN,TS_Loop.thisIndex,TS_Loop.ran,Condition,ActionInst,instrImage,mltptaskInst_resp.keys,mltptaskInst_resp.rt,continue_resp_2.keys,continue_resp_2.rt,multp_Answer,multi_RT,multiplyCorr,LoopingMultiply.thisRepN,LoopingMultiply.thisTrialN,LoopingMultiply.thisN,LoopingMultiply.thisIndex,LoopingMultiply.ran,factor1,multiplySign,factor2,multliplyProblem,physicalSize,orderOperand,sizeF1,sizeF2,mult_answer,trials_stroop.thisRepN,trials_stroop.thisTrialN,trials_stroop.thisN,trials_stroop.thisIndex,trials_stroop.ran,multiplicationFile,esckey_resp_2.keys,esckey_resp_2.rt
y,16.5983,44.5,44.2,right,1,0.8927,0,0,0,15,1,9,200,right,745,2022-01-21_22h35.50.529,multiplicationStroop,2021.2.3,Win32,59.93048064,,,,,,,,,,,,,,,,,,,,,,,,,,,,,,,,,,,,,,,,,,,,,,,,,,,,,,,,,
,,,,left,1,0.5106,0,1,1,4,1,6,-200,left,745,2022-01-21_22h35.50.529,multiplicationStroop,2021.2.3,Win32,59.93048064,,,,,,,,,,,,,,,,,,,,,,,,,,,,,,,,,,,,,,,,,,,,,,,,,,,,,,,,,
,,,,right,1,0.3221,0,2,2,12,1,6,200,right,745,2022-01-21_22h35.50.529,multiplicationStroop,2021.2.3,Win32,59.93048064,,,,,,,,,,,,,,,,,,,,,,,,,,,,,,,,,,,,,,,,,,,,,,,,,,,,,,,,,
,,,,right,1,0.6272,0,3,3,8,1,1,200,right,745,2022-01-21_22h35.50.529,multiplicationStroop,2021.2.3,Win32,59.93048064,,,,,,,,,,,,,,,,,,,,,,,,,,,,,,,,,,,,,,,,,,,,,,,,,,,,,,,,,
,,,,left,1,0.4232,0,4,4,5,1,7,-200,left,745,2022-01-21_22h35.50.529,multiplicationStroop,2021.2.3,Win32,59.93048064,,,,,,,,,,,,,,,,,,,,,,,,,,,,,,,,,,,,,,,,,,,,,,,,,,,,,,,,,
,,,,right,1,0.2834,0,5,5,10,1,3,200,right,745,2022-01-21_22h35.50.529,multiplicationStroop,2021.2.3,Win32,59.93048064,,,,,,,,,,,,,,,,,,,,,,,,,,,,,,,,,,,,,,,,,,,,,,,,,,,,,,,,,
,,,,right,1,0.4272,0,6,6,13,1,7,200,right,745,2022-01-21_22h35.50.529,multiplicationStroop,2021.2.3,Win32,59.93048064,,,,,,,,,,,,,,,,,,,,,,,,,,,,,,,,,,,,,,,,,,,,,,,,,,,,,,,,,
,,,,left,1,0.4228,0,7,7,1,1,2,-200,left,745,2022-01-21_22h35.50.529,multiplicationStroop,2021.2.3,Win32,59.93048064,,,,,,,,,,,,,,,,,,,,,,,,,,,,,,,,,,,,,,,,,,,,,,,,,,,,,,,,,
,,,,right,1,0.3208,0,8,8,9,1,2,200,right,745,2022-01-21_22h35.50.529,multiplicationStroop,2021.2.3,Win32,59.93048064,,,,,,,,,,,,,,,,,,,,,,,,,,,,,,,,,,,,,,,,,,,,,,,,,,,,,,,,,
,,,,left,1,0.3519,0,9,9,2,1,3,-200,left,745,2022-01-21_22h35.50.529,multiplicationStroop,2021.2.3,Win32,59.93048064,,,,,,,,,,,,,,,,,,,,,,,,,,,,,,,,,,,,,,,,,,,,,,,,,,,,,,,,,
,,,,left,1,0.4515,0,10,10,7,1,9,-200,left,745,2022-01-21_22h35.50.529,multiplicationStroop,2021.2.3,Win32,59.93048064,,,,,,,,,,,,,,,,,,,,,,,,,,,,,,,,,,,,,,,,,,,,,,,,,,,,,,,,,
,,,,left,1,0.3756,0,11,11,0,1,1,-200,left,745,2022-01-21_22h35.50.529,multiplicationStroop,2021.2.3,Win32,59.93048064,,,,,,,,,,,,,,,,,,,,,,,,,,,,,,,,,,,,,,,,,,,,,,,,,,,,,,,,,
,,,,left,1,0.3414,0,12,12,6,1,8,-200,left,745,2022-01-21_22h35.50.529,multiplicationStroop,2021.2.3,Win32,59.93048064,,,,,,,,,,,,,,,,,,,,,,,,,,,,,,,,,,,,,,,,,,,,,,,,,,,,,,,,,
,,,,left,1,0.3536,0,13,13,3,1,4,-200,left,745,2022-01-21_22h35.50.529,multiplicationStroop,2021.2.3,Win32,59.93048064,,,,,,,,,,,,,,,,,,,,,,,,,,,,,,,,,,,,,,,,,,,,,,,,,,,,,,,,,
,,,,right,1,0.3944,0,14,14,14,1,8,200,right,745,2022-01-21_22h35.50.529,multiplicationStroop,2021.2.3,Win32,59.93048064,,,,,,,,,,,,,,,,,,,,,,,,,,,,,,,,,,,,,,,,,,,,,,,,,,,,,,,,,
,,,,left,0,0.378,0,15,15,11,1,4,200,right,745,2022-01-21_22h35.50.529,multiplicationStroop,2021.2.3,Win32,59.93048064,,,,,,,,,,,,,,,,,,,,,,,,,,,,,,,,,,,,,,,,,,,,,,,,,,,,,,,,,
,,,,left,1,0.5616,1,0,16,3,1,4,-200,left,745,2022-01-21_22h35.50.529,multiplicationStroop,2021.2.3,Win32,59.93048064,,,,,,,,,,,,,,,,,,,,,,,,,,,,,,,,,,,,,,,,,,,,,,,,,,,,,,,,,
,,,,left,1,0.2768,1,1,17,7,1,9,-200,left,745,2022-01-21_22h35.50.529,multiplicationStroop,2021.2.3,Win32,59.93048064,,,,,,,,,,,,,,,,,,,,,,,,,,,,,,,,,,,,,,,,,,,,,,,,,,,,,,,,,
,,,,right,1,0.4244,1,2,18,8,1,1,200,right,745,2022-01-21_22h35.50.529,multiplicationStroop,2021.2.3,Win32,59.93048064,,,,,,,,,,,,,,,,,,,,,,,,,,,,,,,,,,,,,,,,,,,,,,,,,,,,,,,,,
,,,,left,1,0.2968,1,3,19,6,1,8,-200,left,745,2022-01-21_22h35.50.529,multiplicationStroop,2021.2.3,Win32,59.93048064,,,,,,,,,,,,,,,,,,,,,,,,,,,,,,,,,,,,,,,,,,,,,,,,,,,,,,,,,
,,,,right,1,0.2918,1,4,20,12,1,6,200,right,745,2022-01-21_22h35.50.529,multiplicationStroop,2021.2.3,Win32,59.93048064,,,,,,,,,,,,,,,,,,,,,,,,,,,,,,,,,,,,,,,,,,,,,,,,,,,,,,,,,
,,,,right,1,0.5014,1,5,21,10,1,3,200,right,745,2022-01-21_22h35.50.529,multiplicationStroop,2021.2.3,Win32,59.93048064,,,,,,,,,,,,,,,,,,,,,,,,,,,,,,,,,,,,,,,,,,,,,,,,,,,,,,,,,
,,,,right,1,0.5086,1,6,22,13,1,7,200,right,745,2022-01-21_22h35.50.529,multiplicationStroop,2021.2.3,Win32,59.93048064,,,,,,,,,,,,,,,,,,,,,,,,,,,,,,,,,,,,,,,,,,,,,,,,,,,,,,,,,
,,,,left,1,0.3525,1,7,23,1,1,2,-200,left,745,2022-01-21_22h35.50.529,multiplicationStroop,2021.2.3,Win32,59.93048064,,,,,,,,,,,,,,,,,,,,,,,,,,,,,,,,,,,,,,,,,,,,,,,,,,,,,,,,,
,,,,left,1,0.4544,1,8,24,4,1,6,-200,left,745,2022-01-21_22h35.50.529,multiplicationStroop,2021.2.3,Win32,59.93048064,,,,,,,,,,,,,,,,,,,,,,,,,,,,,,,,,,,,,,,,,,,,,,,,,,,,,,,,,
,,,,left,1,0.3948,1,9,25,2,1,3,-200,left,745,2022-01-21_22h35.50.529,multiplicationStroop,2021.2.3,Win32,59.93048064,,,,,,,,,,,,,,,,,,,,,,,,,,,,,,,,,,,,,,,,,,,,,,,,,,,,,,,,,
,,,,right,1,0.4243,1,10,26,11,1,4,200,right,745,2022-01-21_22h35.50.529,multiplicationStroop,2021.2.3,Win32,59.93048064,,,,,,,,,,,,,,,,,,,,,,,,,,,,,,,,,,,,,,,,,,,,,,,,,,,,,,,,,
,,,,left,1,0.2759,1,11,27,5,1,7,-200,left,745,2022-01-21_22h35.50.529,multiplicationStroop,2021.2.3,Win32,59.93048064,,,,,,,,,,,,,,,,,,,,,,,,,,,,,,,,,,,,,,,,,,,,,,,,,,,,,,,,,
,,,,right,1,0.2552,1,12,28,15,1,9,200,right,745,2022-01-21_22h35.50.529,multiplicationStroop,2021.2.3,Win32,59.93048064,,,,,,,,,,,,,,,,,,,,,,,,,,,,,,,,,,,,,,,,,,,,,,,,,,,,,,,,,
,,,,right,1,0.686,1,13,29,14,1,8,200,right,745,2022-01-21_22h35.50.529,multiplicationStroop,2021.2.3,Win32,59.93048064,,,,,,,,,,,,,,,,,,,,,,,,,,,,,,,,,,,,,,,,,,,,,,,,,,,,,,,,,
,,,,left,1,0.5212,1,14,30,0,1,1,-200,left,745,2022-01-21_22h35.50.529,multiplicationStroop,2021.2.3,Win32,59.93048064,,,,,,,,,,,,,,,,,,,,,,,,,,,,,,,,,,,,,,,,,,,,,,,,,,,,,,,,,
,,,,right,1,0.2789,1,15,31,9,1,2,200,right,745,2022-01-21_22h35.50.529,multiplicationStroop,2021.2.3,Win32,59.93048064,,,,,,,,,,,,,,,,,,,,,,,,,,,,,,,,,,,,,,,,,,,,,,,,,,,,,,,,,
,,,,left,1,0.2713,2,0,32,7,1,9,-200,left,745,2022-01-21_22h35.50.529,multiplicationStroop,2021.2.3,Win32,59.93048064,,,,,,,,,,,,,,,,,,,,,,,,,,,,,,,,,,,,,,,,,,,,,,,,,,,,,,,,,
,,,,left,1,0.535,2,1,33,6,1,8,-200,left,745,2022-01-21_22h35.50.529,multiplicationStroop,2021.2.3,Win32,59.93048064,,,,,,,,,,,,,,,,,,,,,,,,,,,,,,,,,,,,,,,,,,,,,,,,,,,,,,,,,
,,,,left,1,0.2789,2,2,34,2,1,3,-200,left,745,2022-01-21_22h35.50.529,multiplicationStroop,2021.2.3,Win32,59.93048064,,,,,,,,,,,,,,,,,,,,,,,,,,,,,,,,,,,,,,,,,,,,,,,,,,,,,,,,,
,,,,left,0,0.3638,2,3,35,10,1,3,200,right,745,2022-01-21_22h35.50.529,multiplicationStroop,2021.2.3,Win32,59.93048064,,,,,,,,,,,,,,,,,,,,,,,,,,,,,,,,,,,,,,,,,,,,,,,,,,,,,,,,,
,,,,right,1,0.6372,2,4,36,8,1,1,200,right,745,2022-01-21_22h35.50.529,multiplicationStroop,2021.2.3,Win32,59.93048064,,,,,,,,,,,,,,,,,,,,,,,,,,,,,,,,,,,,,,,,,,,,,,,,,,,,,,,,,
,,,,left,1,0.362,2,5,37,1,1,2,-200,left,745,2022-01-21_22h35.50.529,multiplicationStroop,2021.2.3,Win32,59.93048064,,,,,,,,,,,,,,,,,,,,,,,,,,,,,,,,,,,,,,,,,,,,,,,,,,,,,,,,,
,,,,left,1,0.518,2,6,38,0,1,1,-200,left,745,2022-01-21_22h35.50.529,multiplicationStroop,2021.2.3,Win32,59.93048064,,,,,,,,,,,,,,,,,,,,,,,,,,,,,,,,,,,,,,,,,,,,,,,,,,,,,,,,,
,,,,right,1,0.6048,2,7,39,9,1,2,200,right,745,2022-01-21_22h35.50.529,multiplicationStroop,2021.2.3,Win32,59.93048064,,,,,,,,,,,,,,,,,,,,,,,,,,,,,,,,,,,,,,,,,,,,,,,,,,,,,,,,,
,,,,left,1,0.3182,2,8,40,5,1,7,-200,left,745,2022-01-21_22h35.50.529,multiplicationStroop,2021.2.3,Win32,59.93048064,,,,,,,,,,,,,,,,,,,,,,,,,,,,,,,,,,,,,,,,,,,,,,,,,,,,,,,,,
,,,,left,1,0.618,2,9,41,4,1,6,-200,left,745,2022-01-21_22h35.50.529,multiplicationStroop,2021.2.3,Win32,59.93048064,,,,,,,,,,,,,,,,,,,,,,,,,,,,,,,,,,,,,,,,,,,,,,,,,,,,,,,,,
,,,,left,1,0.3184,2,10,42,3,1,4,-200,left,745,2022-01-21_22h35.50.529,multiplicationStroop,2021.2.3,Win32,59.93048064,,,,,,,,,,,,,,,,,,,,,,,,,,,,,,,,,,,,,,,,,,,,,,,,,,,,,,,,,
,,,,right,1,0.4517,2,11,43,15,1,9,200,right,745,2022-01-21_22h35.50.529,multiplicationStroop,2021.2.3,Win32,59.93048064,,,,,,,,,,,,,,,,,,,,,,,,,,,,,,,,,,,,,,,,,,,,,,,,,,,,,,,,,
,,,,right,1,0.5199,2,12,44,11,1,4,200,right,745,2022-01-21_22h35.50.529,multiplicationStroop,2021.2.3,Win32,59.93048064,,,,,,,,,,,,,,,,,,,,,,,,,,,,,,,,,,,,,,,,,,,,,,,,,,,,,,,,,
,,,,right,1,0.3564,2,13,45,14,1,8,200,right,745,2022-01-21_22h35.50.529,multiplicationStroop,2021.2.3,Win32,59.93048064,,,,,,,,,,,,,,,,,,,,,,,,,,,,,,,,,,,,,,,,,,,,,,,,,,,,,,,,,
,,,,right,1,0.3848,2,14,46,13,1,7,200,right,745,2022-01-21_22h35.50.529,multiplicationStroop,2021.2.3,Win32,59.93048064,,,,,,,,,,,,,,,,,,,,,,,,,,,,,,,,,,,,,,,,,,,,,,,,,,,,,,,,,
,,,,right,1,0.3388,2,15,47,12,1,6,200,right,745,2022-01-21_22h35.50.529,multiplicationStroop,2021.2.3,Win32,59.93048064,,,,,,,,,,,,,,,,,,,,,,,,,,,,,,,,,,,,,,,,,,,,,,,,,,,,,,,,,
,,,,left,1,0.419,3,0,48,3,1,4,-200,left,745,2022-01-21_22h35.50.529,multiplicationStroop,2021.2.3,Win32,59.93048064,,,,,,,,,,,,,,,,,,,,,,,,,,,,,,,,,,,,,,,,,,,,,,,,,,,,,,,,,
,,,,left,1,0.844,3,1,49,2,1,3,-200,left,745,2022-01-21_22h35.50.529,multiplicationStroop,2021.2.3,Win32,59.93048064,,,,,,,,,,,,,,,,,,,,,,,,,,,,,,,,,,,,,,,,,,,,,,,,,,,,,,,,,
,,,,right,1,0.5403,3,2,50,10,1,3,200,right,745,2022-01-21_22h35.50.529,multiplicationStroop,2021.2.3,Win32,59.93048064,,,,,,,,,,,,,,,,,,,,,,,,,,,,,,,,,,,,,,,,,,,,,,,,,,,,,,,,,
,,,,left,1,0.3278,3,3,51,7,1,9,-200,left,745,2022-01-21_22h35.50.529,multiplicationStroop,2021.2.3,Win32,59.93048064,,,,,,,,,,,,,,,,,,,,,,,,,,,,,,,,,,,,,,,,,,,,,,,,,,,,,,,,,
,,,,right,1,0.3556,3,4,52,9,1,2,200,right,745,2022-01-21_22h35.50.529,multiplicationStroop,2021.2.3,Win32,59.93048064,,,,,,,,,,,,,,,,,,,,,,,,,,,,,,,,,,,,,,,,,,,,,,,,,,,,,,,,,
,,,,right,1,0.5015,3,5,53,15,1,9,200,right,745,2022-01-21_22h35.50.529,multiplicationStroop,2021.2.3,Win32,59.93048064,,,,,,,,,,,,,,,,,,,,,,,,,,,,,,,,,,,,,,,,,,,,,,,,,,,,,,,,,
,,,,left,1,0.4344,3,6,54,0,1,1,-200,left,745,2022-01-21_22h35.50.529,multiplicationStroop,2021.2.3,Win32,59.93048064,,,,,,,,,,,,,,,,,,,,,,,,,,,,,,,,,,,,,,,,,,,,,,,,,,,,,,,,,
,,,,right,1,0.354,3,7,55,13,1,7,200,right,745,2022-01-21_22h35.50.529,multiplicationStroop,2021.2.3,Win32,59.93048064,,,,,,,,,,,,,,,,,,,,,,,,,,,,,,,,,,,,,,,,,,,,,,,,,,,,,,,,,
,,,,right,1,0.4436,3,8,56,8,1,1,200,right,745,2022-01-21_22h35.50.529,multiplicationStroop,2021.2.3,Win32,59.93048064,,,,,,,,,,,,,,,,,,,,,,,,,,,,,,,,,,,,,,,,,,,,,,,,,,,,,,,,,
,,,,right,1,0.5348,3,9,57,12,1,6,200,right,745,2022-01-21_22h35.50.529,multiplicationStroop,2021.2.3,Win32,59.93048064,,,,,,,,,,,,,,,,,,,,,,,,,,,,,,,,,,,,,,,,,,,,,,,,,,,,,,,,,
,,,,right,1,0.4063,3,10,58,14,1,8,200,right,745,2022-01-21_22h35.50.529,multiplicationStroop,2021.2.3,Win32,59.93048064,,,,,,,,,,,,,,,,,,,,,,,,,,,,,,,,,,,,,,,,,,,,,,,,,,,,,,,,,
,,,,left,1,0.5667,3,11,59,6,1,8,-200,left,745,2022-01-21_22h35.50.529,multiplicationStroop,2021.2.3,Win32,59.93048064,,,,,,,,,,,,,,,,,,,,,,,,,,,,,,,,,,,,,,,,,,,,,,,,,,,,,,,,,
,,,,left,1,0.3845,3,12,60,1,1,2,-200,left,745,2022-01-21_22h35.50.529,multiplicationStroop,2021.2.3,Win32,59.93048064,,,,,,,,,,,,,,,,,,,,,,,,,,,,,,,,,,,,,,,,,,,,,,,,,,,,,,,,,
,,,,left,1,0.335,3,13,61,4,1,6,-200,left,745,2022-01-21_22h35.50.529,multiplicationStroop,2021.2.3,Win32,59.93048064,,,,,,,,,,,,,,,,,,,,,,,,,,,,,,,,,,,,,,,,,,,,,,,,,,,,,,,,,
,,,,left,1,0.3579,3,14,62,5,1,7,-200,left,745,2022-01-21_22h35.50.529,multiplicationStroop,2021.2.3,Win32,59.93048064,,,,,,,,,,,,,,,,,,,,,,,,,,,,,,,,,,,,,,,,,,,,,,,,,,,,,,,,,
,,,,right,1,0.474,3,15,63,11,1,4,200,right,745,2022-01-21_22h35.50.529,multiplicationStroop,2021.2.3,Win32,59.93048064,,,,,,,,,,,,,,,,,,,,,,,,,,,,,,,,,,,,,,,,,,,,,,,,,,,,,,,,,
,,,,,,,,,,,,,,,745,2022-01-21_22h35.50.529,multiplicationStroop,2021.2.3,Win32,59.93048064,space,17.084,space,15.2671,right,1,1.1303,0,0,0,8,1,1,3,1 | 3,2,1.4111,1.9756,congruent,right,,,,,,stimulusFile/magnitude.xlsx,,,,,,,,,,,,,,,,,,,,,,,,,,,,,,,
,,,,,,,,,,,,,,,745,2022-01-21_22h35.50.529,multiplicationStroop,2021.2.3,Win32,59.93048064,,,,,right,1,1.0435,0,1,1,66,1,3,8,3 | 8,5,1.6933,1.6933,neutral,right,,,,,,stimulusFile/magnitude.xlsx,,,,,,,,,,,,,,,,,,,,,,,,,,,,,,,
,,,,,,,,,,,,,,,745,2022-01-21_22h35.50.529,multiplicationStroop,2021.2.3,Win32,59.93048064,,,,,right,1,0.7424,0,2,2,40,1,1,6,1 | 6,5,1.9756,1.4111,incongruent,right,,,,,,stimulusFile/magnitude.xlsx,,,,,,,,,,,,,,,,,,,,,,,,,,,,,,,
,,,,,,,,,,,,,,,745,2022-01-21_22h35.50.529,multiplicationStroop,2021.2.3,Win32,59.93048064,,,,,right,1,1.0954,0,3,3,18,1,3,8,3 | 8,5,1.4111,1.9756,congruent,right,,,,,,stimulusFile/magnitude.xlsx,,,,,,,,,,,,,,,,,,,,,,,,,,,,,,,
,,,,,,,,,,,,,,,745,2022-01-21_22h35.50.529,multiplicationStroop,2021.2.3,Win32,59.93048064,,,,,right,1,0.7744,0,4,4,17,1,2,7,2 | 7,5,1.4111,1.9756,congruent,right,,,,,,stimulusFile/magnitude.xlsx,,,,,,,,,,,,,,,,,,,,,,,,,,,,,,,
,,,,,,,,,,,,,,,745,2022-01-21_22h35.50.529,multiplicationStroop,2021.2.3,Win32,59.93048064,,,,,right,1,1.0275,0,5,5,33,1,2,4,2 | 4,2,1.9756,1.4111,incongruent,right,,,,,,stimulusFile/magnitude.xlsx,,,,,,,,,,,,,,,,,,,,,,,,,,,,,,,
,,,,,,,,,,,,,,,745,2022-01-21_22h35.50.529,multiplicationStroop,2021.2.3,Win32,59.93048064,,,,,left,1,0.7067,0,6,6,28,1,2,1,2 | 1,1,1.4111,1.9756,incongruent,left,,,,,,stimulusFile/magnitude.xlsx,,,,,,,,,,,,,,,,,,,,,,,,,,,,,,,
,,,,,,,,,,,,,,,745,2022-01-21_22h35.50.529,multiplicationStroop,2021.2.3,Win32,59.93048064,,,,,left,1,0.765,0,7,7,31,1,9,8,9 | 8,1,1.4111,1.9756,incongruent,left,,,,,,stimulusFile/magnitude.xlsx,,,,,,,,,,,,,,,,,,,,,,,,,,,,,,,
,,,,,,,,,,,,,,,745,2022-01-21_22h35.50.529,multiplicationStroop,2021.2.3,Win32,59.93048064,,,,,left,1,0.8739,0,8,8,62,1,8,6,8 | 6,2,1.6933,1.6933,neutral,left,,,,,,stimulusFile/magnitude.xlsx,,,,,,,,,,,,,,,,,,,,,,,,,,,,,,,
,,,,,,,,,,,,,,,745,2022-01-21_22h35.50.529,multiplicationStroop,2021.2.3,Win32,59.93048064,,,,,right,1,1.0483,0,9,9,10,1,6,8,6 | 8,2,1.4111,1.9756,congruent,right,,,,,,stimulusFile/magnitude.xlsx,,,,,,,,,,,,,,,,,,,,,,,,,,,,,,,
,,,,,,,,,,,,,,,745,2022-01-21_22h35.50.529,multiplicationStroop,2021.2.3,Win32,59.93048064,,,,,right,1,0.907,0,10,10,25,1,3,4,3 | 4,1,1.9756,1.4111,incongruent,right,,,,,,stimulusFile/magnitude.xlsx,,,,,,,,,,,,,,,,,,,,,,,,,,,,,,,
,,,,,,,,,,,,,,,745,2022-01-21_22h35.50.529,multiplicationStroop,2021.2.3,Win32,59.93048064,,,,,right,1,0.9573,0,11,11,32,1,1,3,1 | 3,2,1.9756,1.4111,incongruent,right,,,,,,stimulusFile/magnitude.xlsx,,,,,,,,,,,,,,,,,,,,,,,,,,,,,,,
,,,,,,,,,,,,,,,745,2022-01-21_22h35.50.529,multiplicationStroop,2021.2.3,Win32,59.93048064,,,,,left,1,0.7597,0,12,12,12,1,3,1,3 | 1,2,1.9756,1.4111,congruent,left,,,,,,stimulusFile/magnitude.xlsx,,,,,,,,,,,,,,,,,,,,,,,,,,,,,,,
,,,,,,,,,,,,,,,745,2022-01-21_22h35.50.529,multiplicationStroop,2021.2.3,Win32,59.93048064,,,,,left,1,0.7115,0,13,13,52,1,2,1,2 | 1,1,1.6933,1.6933,neutral,left,,,,,,stimulusFile/magnitude.xlsx,,,,,,,,,,,,,,,,,,,,,,,,,,,,,,,
,,,,,,,,,,,,,,,745,2022-01-21_22h35.50.529,multiplicationStroop,2021.2.3,Win32,59.93048064,,,,,right,1,0.6104,0,14,14,48,1,1,2,1 | 2,1,1.6933,1.6933,neutral,right,,,,,,stimulusFile/magnitude.xlsx,,,,,,,,,,,,,,,,,,,,,,,,,,,,,,,
,,,,,,,,,,,,,,,745,2022-01-21_22h35.50.529,multiplicationStroop,2021.2.3,Win32,59.93048064,,,,,left,1,0.613,0,15,15,20,1,6,1,6 | 1,5,1.9756,1.4111,congruent,left,,,,,,stimulusFile/magnitude.xlsx,,,,,,,,,,,,,,,,,,,,,,,,,,,,,,,
,,,,,,,,,,,,,,,745,2022-01-21_22h35.50.529,multiplicationStroop,2021.2.3,Win32,59.93048064,,,,,left,1,0.5508,0,16,16,13,1,4,2,4 | 2,2,1.9756,1.4111,congruent,left,,,,,,stimulusFile/magnitude.xlsx,,,,,,,,,,,,,,,,,,,,,,,,,,,,,,,
,,,,,,,,,,,,,,,745,2022-01-21_22h35.50.529,multiplicationStroop,2021.2.3,Win32,59.93048064,,,,,right,1,0.7637,0,17,17,67,1,4,9,4 | 9,5,1.6933,1.6933,neutral,right,,,,,,stimulusFile/magnitude.xlsx,,,,,,,,,,,,,,,,,,,,,,,,,,,,,,,
,,,,,,,,,,,,,,,745,2022-01-21_22h35.50.529,multiplicationStroop,2021.2.3,Win32,59.93048064,,,,,left,1,0.6636,0,18,18,63,1,9,7,9 | 7,2,1.6933,1.6933,neutral,left,,,,,,stimulusFile/magnitude.xlsx,,,,,,,,,,,,,,,,,,,,,,,,,,,,,,,
,,,,,,,,,,,,,,,745,2022-01-21_22h35.50.529,multiplicationStroop,2021.2.3,Win32,59.93048064,,,,,left,1,0.5597,0,19,19,69,1,7,2,7 | 2,5,1.6933,1.6933,neutral,left,,,,,,stimulusFile/magnitude.xlsx,,,,,,,,,,,,,,,,,,,,,,,,,,,,,,,
,,,,,,,,,,,,,,,745,2022-01-21_22h35.50.529,multiplicationStroop,2021.2.3,Win32,59.93048064,,,,,right,1,0.7633,0,20,20,51,1,8,9,8 | 9,1,1.6933,1.6933,neutral,right,,,,,,stimulusFile/magnitude.xlsx,,,,,,,,,,,,,,,,,,,,,,,,,,,,,,,
,,,,,,,,,,,,,,,745,2022-01-21_22h35.50.529,multiplicationStroop,2021.2.3,Win32,59.93048064,,,,,left,1,0.7554,0,21,21,37,1,4,2,4 | 2,2,1.4111,1.9756,incongruent,left,,,,,,stimulusFile/magnitude.xlsx,,,,,,,,,,,,,,,,,,,,,,,,,,,,,,,
,,,,,,,,,,,,,,,745,2022-01-21_22h35.50.529,multiplicationStroop,2021.2.3,Win32,59.93048064,,,,,right,1,0.7239,0,22,22,34,1,6,8,6 | 8,2,1.9756,1.4111,incongruent,right,,,,,,stimulusFile/magnitude.xlsx,,,,,,,,,,,,,,,,,,,,,,,,,,,,,,,
,,,,,,,,,,,,,,,745,2022-01-21_22h35.50.529,multiplicationStroop,2021.2.3,Win32,59.93048064,,,,,left,1,0.5417,0,23,23,60,1,3,1,3 | 1,2,1.6933,1.6933,neutral,left,,,,,,stimulusFile/magnitude.xlsx,,,,,,,,,,,,,,,,,,,,,,,,,,,,,,,
,,,,,,,,,,,,,,,745,2022-01-21_22h35.50.529,multiplicationStroop,2021.2.3,Win32,59.93048064,,,,,right,1,0.7574,0,24,24,35,1,7,9,7 | 9,2,1.9756,1.4111,incongruent,right,,,,,,stimulusFile/magnitude.xlsx,,,,,,,,,,,,,,,,,,,,,,,,,,,,,,,
,,,,,,,,,,,,,,,745,2022-01-21_22h35.50.529,multiplicationStroop,2021.2.3,Win32,59.93048064,,,,,left,1,0.7791,0,25,25,54,1,7,6,7 | 6,1,1.6933,1.6933,neutral,left,,,,,,stimulusFile/magnitude.xlsx,,,,,,,,,,,,,,,,,,,,,,,,,,,,,,,
,,,,,,,,,,,,,,,745,2022-01-21_22h35.50.529,multiplicationStroop,2021.2.3,Win32,59.93048064,,,,,left,1,0.5636,0,26,26,46,1,8,3,8 | 3,5,1.4111,1.9756,incongruent,left,,,,,,stimulusFile/magnitude.xlsx,,,,,,,,,,,,,,,,,,,,,,,,,,,,,,,
,,,,,,,,,,,,,,,745,2022-01-21_22h35.50.529,multiplicationStroop,2021.2.3,Win32,59.93048064,,,,,left,1,0.6528,0,27,27,29,1,4,3,4 | 3,1,1.4111,1.9756,incongruent,left,,,,,,stimulusFile/magnitude.xlsx,,,,,,,,,,,,,,,,,,,,,,,,,,,,,,,
,,,,,,,,,,,,,,,745,2022-01-21_22h35.50.529,multiplicationStroop,2021.2.3,Win32,59.93048064,,,,,right,1,0.5117,0,28,28,57,1,2,4,2 | 4,2,1.6933,1.6933,neutral,right,,,,,,stimulusFile/magnitude.xlsx,,,,,,,,,,,,,,,,,,,,,,,,,,,,,,,
,,,,,,,,,,,,,,,745,2022-01-21_22h35.50.529,multiplicationStroop,2021.2.3,Win32,59.93048064,,,,,right,1,0.7865,0,29,29,59,1,7,9,7 | 9,2,1.6933,1.6933,neutral,right,,,,,,stimulusFile/magnitude.xlsx,,,,,,,,,,,,,,,,,,,,,,,,,,,,,,,
,,,,,,,,,,,,,,,745,2022-01-21_22h35.50.529,multiplicationStroop,2021.2.3,Win32,59.93048064,,,,,right,1,0.7471,0,30,30,50,1,6,7,6 | 7,1,1.6933,1.6933,neutral,right,,,,,,stimulusFile/magnitude.xlsx,,,,,,,,,,,,,,,,,,,,,,,,,,,,,,,
,,,,,,,,,,,,,,,745,2022-01-21_22h35.50.529,multiplicationStroop,2021.2.3,Win32,59.93048064,,,,,left,1,0.4978,0,31,31,6,1,7,6,7 | 6,1,1.9756,1.4111,congruent,left,,,,,,stimulusFile/magnitude.xlsx,,,,,,,,,,,,,,,,,,,,,,,,,,,,,,,
,,,,,,,,,,,,,,,745,2022-01-21_22h35.50.529,multiplicationStroop,2021.2.3,Win32,59.93048064,,,,,right,1,0.7844,0,32,32,41,1,2,7,2 | 7,5,1.9756,1.4111,incongruent,right,,,,,,stimulusFile/magnitude.xlsx,,,,,,,,,,,,,,,,,,,,,,,,,,,,,,,
,,,,,,,,,,,,,,,745,2022-01-21_22h35.50.529,multiplicationStroop,2021.2.3,Win32,59.93048064,,,,,left,1,0.4755,0,33,33,70,1,8,3,8 | 3,5,1.6933,1.6933,neutral,left,,,,,,stimulusFile/magnitude.xlsx,,,,,,,,,,,,,,,,,,,,,,,,,,,,,,,
,,,,,,,,,,,,,,,745,2022-01-21_22h35.50.529,multiplicationStroop,2021.2.3,Win32,59.93048064,,,,,right,1,0.5749,0,34,34,58,1,6,8,6 | 8,2,1.6933,1.6933,neutral,right,,,,,,stimulusFile/magnitude.xlsx,,,,,,,,,,,,,,,,,,,,,,,,,,,,,,,
,,,,,,,,,,,,,,,745,2022-01-21_22h35.50.529,multiplicationStroop,2021.2.3,Win32,59.93048064,,,,,left,1,0.466,0,35,35,15,1,9,7,9 | 7,2,1.9756,1.4111,congruent,left,,,,,,stimulusFile/magnitude.xlsx,,,,,,,,,,,,,,,,,,,,,,,,,,,,,,,
,,,,,,,,,,,,,,,745,2022-01-21_22h35.50.529,multiplicationStroop,2021.2.3,Win32,59.93048064,,,,,right,1,0.5895,0,36,36,26,1,6,7,6 | 7,1,1.9756,1.4111,incongruent,right,,,,,,stimulusFile/magnitude.xlsx,,,,,,,,,,,,,,,,,,,,,,,,,,,,,,,
,,,,,,,,,,,,,,,745,2022-01-21_22h35.50.529,multiplicationStroop,2021.2.3,Win32,59.93048064,,,,,left,1,0.7793,0,37,37,39,1,9,7,9 | 7,2,1.4111,1.9756,incongruent,left,,,,,,stimulusFile/magnitude.xlsx,,,,,,,,,,,,,,,,,,,,,,,,,,,,,,,
,,,,,,,,,,,,,,,745,2022-01-21_22h35.50.529,multiplicationStroop,2021.2.3,Win32,59.93048064,,,,,right,1,0.6034,0,38,38,65,1,2,7,2 | 7,5,1.6933,1.6933,neutral,right,,,,,,stimulusFile/magnitude.xlsx,,,,,,,,,,,,,,,,,,,,,,,,,,,,,,,
,,,,,,,,,,,,,,,745,2022-01-21_22h35.50.529,multiplicationStroop,2021.2.3,Win32,59.93048064,,,,,right,1,0.5925,0,39,39,11,1,7,9,7 | 9,2,1.4111,1.9756,congruent,right,,,,,,stimulusFile/magnitude.xlsx,,,,,,,,,,,,,,,,,,,,,,,,,,,,,,,
,,,,,,,,,,,,,,,745,2022-01-21_22h35.50.529,multiplicationStroop,2021.2.3,Win32,59.93048064,,,,,left,1,0.5825,0,40,40,30,1,7,6,7 | 6,1,1.4111,1.9756,incongruent,left,,,,,,stimulusFile/magnitude.xlsx,,,,,,,,,,,,,,,,,,,,,,,,,,,,,,,
,,,,,,,,,,,,,,,745,2022-01-21_22h35.50.529,multiplicationStroop,2021.2.3,Win32,59.93048064,,,,,right,1,0.5985,0,41,41,49,1,3,4,3 | 4,1,1.6933,1.6933,neutral,right,,,,,,stimulusFile/magnitude.xlsx,,,,,,,,,,,,,,,,,,,,,,,,,,,,,,,
,,,,,,,,,,,,,,,745,2022-01-21_22h35.50.529,multiplicationStroop,2021.2.3,Win32,59.93048064,,,,,left,1,0.4835,0,42,42,68,1,6,1,6 | 1,5,1.6933,1.6933,neutral,left,,,,,,stimulusFile/magnitude.xlsx,,,,,,,,,,,,,,,,,,,,,,,,,,,,,,,
,,,,,,,,,,,,,,,745,2022-01-21_22h35.50.529,multiplicationStroop,2021.2.3,Win32,59.93048064,,,,,left,0,0.6395,0,43,43,27,1,8,9,8 | 9,1,1.9756,1.4111,incongruent,right,,,,,,stimulusFile/magnitude.xlsx,,,,,,,,,,,,,,,,,,,,,,,,,,,,,,,
,,,,,,,,,,,,,,,745,2022-01-21_22h35.50.529,multiplicationStroop,2021.2.3,Win32,59.93048064,,,,,left,1,0.778,0,44,44,47,1,9,4,9 | 4,5,1.4111,1.9756,incongruent,left,,,,,,stimulusFile/magnitude.xlsx,,,,,,,,,,,,,,,,,,,,,,,,,,,,,,,
,,,,,,,,,,,,,,,745,2022-01-21_22h35.50.529,multiplicationStroop,2021.2.3,Win32,59.93048064,,,,,left,1,0.5592,0,45,45,4,1,2,1,2 | 1,1,1.9756,1.4111,congruent,left,,,,,,stimulusFile/magnitude.xlsx,,,,,,,,,,,,,,,,,,,,,,,,,,,,,,,
,,,,,,,,,,,,,,,745,2022-01-21_22h35.50.529,multiplicationStroop,2021.2.3,Win32,59.93048064,,,,,left,1,0.4015,0,46,46,23,1,9,4,9 | 4,5,1.9756,1.4111,congruent,left,,,,,,stimulusFile/magnitude.xlsx,,,,,,,,,,,,,,,,,,,,,,,,,,,,,,,
,,,,,,,,,,,,,,,745,2022-01-21_22h35.50.529,multiplicationStroop,2021.2.3,Win32,59.93048064,,,,,left,1,0.47,0,47,47,5,1,4,3,4 | 3,1,1.9756,1.4111,congruent,left,,,,,,stimulusFile/magnitude.xlsx,,,,,,,,,,,,,,,,,,,,,,,,,,,,,,,
,,,,,,,,,,,,,,,745,2022-01-21_22h35.50.529,multiplicationStroop,2021.2.3,Win32,59.93048064,,,,,left,1,0.4433,0,48,48,61,1,4,2,4 | 2,2,1.6933,1.6933,neutral,left,,,,,,stimulusFile/magnitude.xlsx,,,,,,,,,,,,,,,,,,,,,,,,,,,,,,,
,,,,,,,,,,,,,,,745,2022-01-21_22h35.50.529,multiplicationStroop,2021.2.3,Win32,59.93048064,,,,,left,0,0.3664,0,49,49,3,1,8,9,8 | 9,1,1.4111,1.9756,congruent,right,,,,,,stimulusFile/magnitude.xlsx,,,,,,,,,,,,,,,,,,,,,,,,,,,,,,,
,,,,,,,,,,,,,,,745,2022-01-21_22h35.50.529,multiplicationStroop,2021.2.3,Win32,59.93048064,,,,,left,1,0.6299,0,50,50,55,1,9,8,9 | 8,1,1.6933,1.6933,neutral,left,,,,,,stimulusFile/magnitude.xlsx,,,,,,,,,,,,,,,,,,,,,,,,,,,,,,,
,,,,,,,,,,,,,,,745,2022-01-21_22h35.50.529,multiplicationStroop,2021.2.3,Win32,59.93048064,,,,,right,1,0.5149,0,51,51,0,1,1,2,1 | 2,1,1.4111,1.9756,congruent,right,,,,,,stimulusFile/magnitude.xlsx,,,,,,,,,,,,,,,,,,,,,,,,,,,,,,,
,,,,,,,,,,,,,,,745,2022-01-21_22h35.50.529,multiplicationStroop,2021.2.3,Win32,59.93048064,,,,,left,0,0.3531,0,52,52,42,1,3,8,3 | 8,5,1.9756,1.4111,incongruent,right,,,,,,stimulusFile/magnitude.xlsx,,,,,,,,,,,,,,,,,,,,,,,,,,,,,,,
,,,,,,,,,,,,,,,745,2022-01-21_22h35.50.529,multiplicationStroop,2021.2.3,Win32,59.93048064,,,,,left,1,0.6288,0,53,53,44,1,6,1,6 | 1,5,1.4111,1.9756,incongruent,left,,,,,,stimulusFile/magnitude.xlsx,,,,,,,,,,,,,,,,,,,,,,,,,,,,,,,
,,,,,,,,,,,,,,,745,2022-01-21_22h35.50.529,multiplicationStroop,2021.2.3,Win32,59.93048064,,,,,right,1,0.4866,0,54,54,9,1,2,4,2 | 4,2,1.4111,1.9756,congruent,right,,,,,,stimulusFile/magnitude.xlsx,,,,,,,,,,,,,,,,,,,,,,,,,,,,,,,
,,,,,,,,,,,,,,,745,2022-01-21_22h35.50.529,multiplicationStroop,2021.2.3,Win32,59.93048064,,,,,left,1,0.7248,0,55,55,36,1,3,1,3 | 1,2,1.4111,1.9756,incongruent,left,,,,,,stimulusFile/magnitude.xlsx,,,,,,,,,,,,,,,,,,,,,,,,,,,,,,,
,,,,,,,,,,,,,,,745,2022-01-21_22h35.50.529,multiplicationStroop,2021.2.3,Win32,59.93048064,,,,,left,1,0.5457,0,56,56,22,1,8,3,8 | 3,5,1.9756,1.4111,congruent,left,,,,,,stimulusFile/magnitude.xlsx,,,,,,,,,,,,,,,,,,,,,,,,,,,,,,,
,,,,,,,,,,,,,,,745,2022-01-21_22h35.50.529,multiplicationStroop,2021.2.3,Win32,59.93048064,,,,,left,1,0.8649,0,57,57,45,1,7,2,7 | 2,5,1.4111,1.9756,incongruent,left,,,,,,stimulusFile/magnitude.xlsx,,,,,,,,,,,,,,,,,,,,,,,,,,,,,,,
,,,,,,,,,,,,,,,745,2022-01-21_22h35.50.529,multiplicationStroop,2021.2.3,Win32,59.93048064,,,,,right,1,0.7596,0,58,58,43,1,4,9,4 | 9,5,1.9756,1.4111,incongruent,right,,,,,,stimulusFile/magnitude.xlsx,,,,,,,,,,,,,,,,,,,,,,,,,,,,,,,
,,,,,,,,,,,,,,,745,2022-01-21_22h35.50.529,multiplicationStroop,2021.2.3,Win32,59.93048064,,,,,left,1,0.5342,0,59,59,38,1,8,6,8 | 6,2,1.4111,1.9756,incongruent,left,,,,,,stimulusFile/magnitude.xlsx,,,,,,,,,,,,,,,,,,,,,,,,,,,,,,,
,,,,,,,,,,,,,,,745,2022-01-21_22h35.50.529,multiplicationStroop,2021.2.3,Win32,59.93048064,,,,,right,1,0.5708,0,60,60,64,1,1,6,1 | 6,5,1.6933,1.6933,neutral,right,,,,,,stimulusFile/magnitude.xlsx,,,,,,,,,,,,,,,,,,,,,,,,,,,,,,,
,,,,,,,,,,,,,,,745,2022-01-21_22h35.50.529,multiplicationStroop,2021.2.3,Win32,59.93048064,,,,,right,1,0.7791,0,61,61,56,1,1,3,1 | 3,2,1.6933,1.6933,neutral,right,,,,,,stimulusFile/magnitude.xlsx,,,,,,,,,,,,,,,,,,,,,,,,,,,,,,,
,,,,,,,,,,,,,,,745,2022-01-21_22h35.50.529,multiplicationStroop,2021.2.3,Win32,59.93048064,,,,,right,1,1.0914,0,62,62,24,1,1,2,1 | 2,1,1.9756,1.4111,incongruent,right,,,,,,stimulusFile/magnitude.xlsx,,,,,,,,,,,,,,,,,,,,,,,,,,,,,,,
,,,,,,,,,,,,,,,745,2022-01-21_22h35.50.529,multiplicationStroop,2021.2.3,Win32,59.93048064,,,,,left,1,0.6529,0,63,63,21,1,7,2,7 | 2,5,1.9756,1.4111,congruent,left,,,,,,stimulusFile/magnitude.xlsx,,,,,,,,,,,,,,,,,,,,,,,,,,,,,,,
,,,,,,,,,,,,,,,745,2022-01-21_22h35.50.529,multiplicationStroop,2021.2.3,Win32,59.93048064,,,,,right,1,0.5734,0,64,64,19,1,4,9,4 | 9,5,1.4111,1.9756,congruent,right,,,,,,stimulusFile/magnitude.xlsx,,,,,,,,,,,,,,,,,,,,,,,,,,,,,,,
,,,,,,,,,,,,,,,745,2022-01-21_22h35.50.529,multiplicationStroop,2021.2.3,Win32,59.93048064,,,,,left,1,0.5785,0,65,65,53,1,4,3,4 | 3,1,1.6933,1.6933,neutral,left,,,,,,stimulusFile/magnitude.xlsx,,,,,,,,,,,,,,,,,,,,,,,,,,,,,,,
,,,,,,,,,,,,,,,745,2022-01-21_22h35.50.529,multiplicationStroop,2021.2.3,Win32,59.93048064,,,,,left,1,0.5628,0,66,66,7,1,9,8,9 | 8,1,1.9756,1.4111,congruent,left,,,,,,stimulusFile/magnitude.xlsx,,,,,,,,,,,,,,,,,,,,,,,,,,,,,,,
,,,,,,,,,,,,,,,745,2022-01-21_22h35.50.529,multiplicationStroop,2021.2.3,Win32,59.93048064,,,,,right,1,0.4798,0,67,67,16,1,1,6,1 | 6,5,1.4111,1.9756,congruent,right,,,,,,stimulusFile/magnitude.xlsx,,,,,,,,,,,,,,,,,,,,,,,,,,,,,,,
,,,,,,,,,,,,,,,745,2022-01-21_22h35.50.529,multiplicationStroop,2021.2.3,Win32,59.93048064,,,,,left,1,0.362,0,68,68,71,1,9,4,9 | 4,5,1.6933,1.6933,neutral,left,,,,,,stimulusFile/magnitude.xlsx,,,,,,,,,,,,,,,,,,,,,,,,,,,,,,,
,,,,,,,,,,,,,,,745,2022-01-21_22h35.50.529,multiplicationStroop,2021.2.3,Win32,59.93048064,,,,,right,1,0.4643,0,69,69,2,1,6,7,6 | 7,1,1.4111,1.9756,congruent,right,,,,,,stimulusFile/magnitude.xlsx,,,,,,,,,,,,,,,,,,,,,,,,,,,,,,,
,,,,,,,,,,,,,,,745,2022-01-21_22h35.50.529,multiplicationStroop,2021.2.3,Win32,59.93048064,,,,,right,1,0.7163,0,70,70,1,1,3,4,3 | 4,1,1.4111,1.9756,congruent,right,,,,,,stimulusFile/magnitude.xlsx,,,,,,,,,,,,,,,,,,,,,,,,,,,,,,,
,,,,,,,,,,,,,,,745,2022-01-21_22h35.50.529,multiplicationStroop,2021.2.3,Win32,59.93048064,,,,,left,1,0.4529,0,71,71,14,1,8,6,8 | 6,2,1.9756,1.4111,congruent,left,,,,,,stimulusFile/magnitude.xlsx,,,,,,,,,,,,,,,,,,,,,,,,,,,,,,,
,,,,,,,,,,,,,,,745,2022-01-21_22h35.50.529,multiplicationStroop,2021.2.3,Win32,59.93048064,,,,,,,,,,,,,,,,,,,,,0,0,0,0,1,stimulusFile/magnitude.xlsx,NUMERICALLY larger (larger coefficient).,images/numericallyLarger.png,,,,,,,,,,,,,,,,,,,,,,,,,,,,,
,,,,,,,,,,,,,,,745,2022-01-21_22h35.50.529,multiplicationStroop,2021.2.3,Win32,59.93048064,space,4.3914,space,4.6593,right,1,0.5999,0,0,0,31,1,9,8,9 | 8,1,1.4111,1.9756,incongruent,right,,,,,,stimulusFile/physical.xlsx,,,,,,,,,,,,,,,,,,,,,,,,,,,,,,,
,,,,,,,,,,,,,,,745,2022-01-21_22h35.50.529,multiplicationStroop,2021.2.3,Win32,59.93048064,,,,,left,1,0.5236,0,1,1,32,1,1,3,1 | 3,2,1.9756,1.4111,incongruent,left,,,,,,stimulusFile/physical.xlsx,,,,,,,,,,,,,,,,,,,,,,,,,,,,,,,
,,,,,,,,,,,,,,,745,2022-01-21_22h35.50.529,multiplicationStroop,2021.2.3,Win32,59.93048064,,,,,left,0,0.5618,0,2,2,66,1,3,3,3 | 3,0,1.9756,1.4111,neutral,right,,,,,,stimulusFile/physical.xlsx,,,,,,,,,,,,,,,,,,,,,,,,,,,,,,,
,,,,,,,,,,,,,,,745,2022-01-21_22h35.50.529,multiplicationStroop,2021.2.3,Win32,59.93048064,,,,,left,1,0.5169,0,3,3,27,1,8,9,8 | 9,1,1.9756,1.4111,incongruent,left,,,,,,stimulusFile/physical.xlsx,,,,,,,,,,,,,,,,,,,,,,,,,,,,,,,
,,,,,,,,,,,,,,,745,2022-01-21_22h35.50.529,multiplicationStroop,2021.2.3,Win32,59.93048064,,,,,left,1,0.6076,0,4,4,48,1,1,1,1 | 1,0,1.9756,1.4111,neutral,left,,,,,,stimulusFile/physical.xlsx,,,,,,,,,,,,,,,,,,,,,,,,,,,,,,,
,,,,,,,,,,,,,,,745,2022-01-21_22h35.50.529,multiplicationStroop,2021.2.3,Win32,59.93048064,,,,,left,1,0.3526,0,5,5,22,1,8,3,8 | 3,5,1.9756,1.4111,congruent,left,,,,,,stimulusFile/physical.xlsx,,,,,,,,,,,,,,,,,,,,,,,,,,,,,,,
,,,,,,,,,,,,,,,745,2022-01-21_22h35.50.529,multiplicationStroop,2021.2.3,Win32,59.93048064,,,,,left,1,0.483,0,6,6,24,1,1,2,1 | 2,1,1.9756,1.4111,incongruent,left,,,,,,stimulusFile/physical.xlsx,,,,,,,,,,,,,,,,,,,,,,,,,,,,,,,
,,,,,,,,,,,,,,,745,2022-01-21_22h35.50.529,multiplicationStroop,2021.2.3,Win32,59.93048064,,,,,left,1,0.7552,0,7,7,54,1,7,7,7 | 7,0,1.9756,1.4111,neutral,left,,,,,,stimulusFile/physical.xlsx,,,,,,,,,,,,,,,,,,,,,,,,,,,,,,,
,,,,,,,,,,,,,,,745,2022-01-21_22h35.50.529,multiplicationStroop,2021.2.3,Win32,59.93048064,,,,,right,1,0.6444,0,8,8,16,1,1,6,1 | 6,5,1.4111,1.9756,congruent,right,,,,,,stimulusFile/physical.xlsx,,,,,,,,,,,,,,,,,,,,,,,,,,,,,,,
,,,,,,,,,,,,,,,745,2022-01-21_22h35.50.529,multiplicationStroop,2021.2.3,Win32,59.93048064,,,,,left,1,0.4975,0,9,9,5,1,4,3,4 | 3,1,1.9756,1.4111,congruent,left,,,,,,stimulusFile/physical.xlsx,,,,,,,,,,,,,,,,,,,,,,,,,,,,,,,
,,,,,,,,,,,,,,,745,2022-01-21_22h35.50.529,multiplicationStroop,2021.2.3,Win32,59.93048064,,,,,right,1,0.5548,0,10,10,39,1,9,7,9 | 7,2,1.4111,1.9756,incongruent,right,,,,,,stimulusFile/physical.xlsx,,,,,,,,,,,,,,,,,,,,,,,,,,,,,,,
,,,,,,,,,,,,,,,745,2022-01-21_22h35.50.529,multiplicationStroop,2021.2.3,Win32,59.93048064,,,,,right,1,0.5086,0,11,11,62,1,8,8,8 | 8,0,1.4111,1.9756,neutral,right,,,,,,stimulusFile/physical.xlsx,,,,,,,,,,,,,,,,,,,,,,,,,,,,,,,
,,,,,,,,,,,,,,,745,2022-01-21_22h35.50.529,multiplicationStroop,2021.2.3,Win32,59.93048064,,,,,right,1,0.8382,0,12,12,37,1,4,2,4 | 2,2,1.4111,1.9756,incongruent,right,,,,,,stimulusFile/physical.xlsx,,,,,,,,,,,,,,,,,,,,,,,,,,,,,,,
,,,,,,,,,,,,,,,745,2022-01-21_22h35.50.529,multiplicationStroop,2021.2.3,Win32,59.93048064,,,,,left,1,0.5094,0,13,13,68,1,6,6,6 | 6,0,1.9756,1.4111,neutral,left,,,,,,stimulusFile/physical.xlsx,,,,,,,,,,,,,,,,,,,,,,,,,,,,,,,
,,,,,,,,,,,,,,,745,2022-01-21_22h35.50.529,multiplicationStroop,2021.2.3,Win32,59.93048064,,,,,right,1,0.5122,0,14,14,61,1,4,4,4 | 4,0,1.4111,1.9756,neutral,right,,,,,,stimulusFile/physical.xlsx,,,,,,,,,,,,,,,,,,,,,,,,,,,,,,,
,,,,,,,,,,,,,,,745,2022-01-21_22h35.50.529,multiplicationStroop,2021.2.3,Win32,59.93048064,,,,,right,1,0.8357,0,15,15,28,1,2,1,2 | 1,1,1.4111,1.9756,incongruent,right,,,,,,stimulusFile/physical.xlsx,,,,,,,,,,,,,,,,,,,,,,,,,,,,,,,
,,,,,,,,,,,,,,,745,2022-01-21_22h35.50.529,multiplicationStroop,2021.2.3,Win32,59.93048064,,,,,left,1,0.4929,0,16,16,4,1,2,1,2 | 1,1,1.9756,1.4111,congruent,left,,,,,,stimulusFile/physical.xlsx,,,,,,,,,,,,,,,,,,,,,,,,,,,,,,,
,,,,,,,,,,,,,,,745,2022-01-21_22h35.50.529,multiplicationStroop,2021.2.3,Win32,59.93048064,,,,,right,1,0.4109,0,17,17,8,1,1,3,1 | 3,2,1.4111,1.9756,congruent,right,,,,,,stimulusFile/physical.xlsx,,,,,,,,,,,,,,,,,,,,,,,,,,,,,,,
,,,,,,,,,,,,,,,745,2022-01-21_22h35.50.529,multiplicationStroop,2021.2.3,Win32,59.93048064,,,,,right,0,0.5067,0,18,18,71,1,9,9,9 | 9,0,1.4111,1.9756,neutral,left,,,,,,stimulusFile/physical.xlsx,,,,,,,,,,,,,,,,,,,,,,,,,,,,,,,
,,,,,,,,,,,,,,,745,2022-01-21_22h35.50.529,multiplicationStroop,2021.2.3,Win32,59.93048064,,,,,left,1,0.5029,0,19,19,53,1,4,4,4 | 4,0,1.9756,1.4111,neutral,left,,,,,,stimulusFile/physical.xlsx,,,,,,,,,,,,,,,,,,,,,,,,,,,,,,,
,,,,,,,,,,,,,,,745,2022-01-21_22h35.50.529,multiplicationStroop,2021.2.3,Win32,59.93048064,,,,,right,1,0.6185,0,20,20,67,1,4,4,4 | 4,0,1.4111,1.9756,neutral,right,,,,,,stimulusFile/physical.xlsx,,,,,,,,,,,,,,,,,,,,,,,,,,,,,,,
,,,,,,,,,,,,,,,745,2022-01-21_22h35.50.529,multiplicationStroop,2021.2.3,Win32,59.93048064,,,,,right,1,0.6032,0,21,21,57,1,2,2,2 | 2,0,1.4111,1.9756,neutral,right,,,,,,stimulusFile/physical.xlsx,,,,,,,,,,,,,,,,,,,,,,,,,,,,,,,
,,,,,,,,,,,,,,,745,2022-01-21_22h35.50.529,multiplicationStroop,2021.2.3,Win32,59.93048064,,,,,right,1,0.6749,0,22,22,47,1,9,4,9 | 4,5,1.4111,1.9756,incongruent,right,,,,,,stimulusFile/physical.xlsx,,,,,,,,,,,,,,,,,,,,,,,,,,,,,,,
,,,,,,,,,,,,,,,745,2022-01-21_22h35.50.529,multiplicationStroop,2021.2.3,Win32,59.93048064,,,,,right,1,0.5964,0,23,23,3,1,8,9,8 | 9,1,1.4111,1.9756,congruent,right,,,,,,stimulusFile/physical.xlsx,,,,,,,,,,,,,,,,,,,,,,,,,,,,,,,
,,,,,,,,,,,,,,,745,2022-01-21_22h35.50.529,multiplicationStroop,2021.2.3,Win32,59.93048064,,,,,left,1,0.4442,0,24,24,26,1,6,7,6 | 7,1,1.9756,1.4111,incongruent,left,,,,,,stimulusFile/physical.xlsx,,,,,,,,,,,,,,,,,,,,,,,,,,,,,,,
,,,,,,,,,,,,,,,745,2022-01-21_22h35.50.529,multiplicationStroop,2021.2.3,Win32,59.93048064,,,,,left,1,0.416,0,25,25,23,1,9,4,9 | 4,5,1.9756,1.4111,congruent,left,,,,,,stimulusFile/physical.xlsx,,,,,,,,,,,,,,,,,,,,,,,,,,,,,,,
,,,,,,,,,,,,,,,745,2022-01-21_22h35.50.529,multiplicationStroop,2021.2.3,Win32,59.93048064,,,,,left,1,0.5668,0,26,26,55,1,9,9,9 | 9,0,1.9756,1.4111,neutral,left,,,,,,stimulusFile/physical.xlsx,,,,,,,,,,,,,,,,,,,,,,,,,,,,,,,
,,,,,,,,,,,,,,,745,2022-01-21_22h35.50.529,multiplicationStroop,2021.2.3,Win32,59.93048064,,,,,left,1,0.6867,0,27,27,42,1,3,8,3 | 8,5,1.9756,1.4111,incongruent,left,,,,,,stimulusFile/physical.xlsx,,,,,,,,,,,,,,,,,,,,,,,,,,,,,,,
,,,,,,,,,,,,,,,745,2022-01-21_22h35.50.529,multiplicationStroop,2021.2.3,Win32,59.93048064,,,,,right,1,0.5638,0,28,28,11,1,7,9,7 | 9,2,1.4111,1.9756,congruent,right,,,,,,stimulusFile/physical.xlsx,,,,,,,,,,,,,,,,,,,,,,,,,,,,,,,
,,,,,,,,,,,,,,,745,2022-01-21_22h35.50.529,multiplicationStroop,2021.2.3,Win32,59.93048064,,,,,left,1,0.5258,0,29,29,43,1,4,9,4 | 9,5,1.9756,1.4111,incongruent,left,,,,,,stimulusFile/physical.xlsx,,,,,,,,,,,,,,,,,,,,,,,,,,,,,,,
,,,,,,,,,,,,,,,745,2022-01-21_22h35.50.529,multiplicationStroop,2021.2.3,Win32,59.93048064,,,,,right,1,0.8589,0,30,30,44,1,6,1,6 | 1,5,1.4111,1.9756,incongruent,right,,,,,,stimulusFile/physical.xlsx,,,,,,,,,,,,,,,,,,,,,,,,,,,,,,,
,,,,,,,,,,,,,,,745,2022-01-21_22h35.50.529,multiplicationStroop,2021.2.3,Win32,59.93048064,,,,,left,1,1.2603,0,31,31,15,1,9,7,9 | 7,2,1.9756,1.4111,congruent,left,,,,,,stimulusFile/physical.xlsx,,,,,,,,,,,,,,,,,,,,,,,,,,,,,,,
,,,,,,,,,,,,,,,745,2022-01-21_22h35.50.529,multiplicationStroop,2021.2.3,Win32,59.93048064,,,,,right,1,0.4691,0,32,32,63,1,9,9,9 | 9,0,1.4111,1.9756,neutral,right,,,,,,stimulusFile/physical.xlsx,,,,,,,,,,,,,,,,,,,,,,,,,,,,,,,
,,,,,,,,,,,,,,,745,2022-01-21_22h35.50.529,multiplicationStroop,2021.2.3,Win32,59.93048064,,,,,left,1,0.443,0,33,33,20,1,6,1,6 | 1,5,1.9756,1.4111,congruent,left,,,,,,stimulusFile/physical.xlsx,,,,,,,,,,,,,,,,,,,,,,,,,,,,,,,
,,,,,,,,,,,,,,,745,2022-01-21_22h35.50.529,multiplicationStroop,2021.2.3,Win32,59.93048064,,,,,right,0,0.3429,0,34,34,7,1,9,8,9 | 8,1,1.9756,1.4111,congruent,left,,,,,,stimulusFile/physical.xlsx,,,,,,,,,,,,,,,,,,,,,,,,,,,,,,,
,,,,,,,,,,,,,,,745,2022-01-21_22h35.50.529,multiplicationStroop,2021.2.3,Win32,59.93048064,,,,,left,1,0.5378,0,35,35,21,1,7,2,7 | 2,5,1.9756,1.4111,congruent,left,,,,,,stimulusFile/physical.xlsx,,,,,,,,,,,,,,,,,,,,,,,,,,,,,,,
,,,,,,,,,,,,,,,745,2022-01-21_22h35.50.529,multiplicationStroop,2021.2.3,Win32,59.93048064,,,,,right,1,0.4373,0,36,36,0,1,1,2,1 | 2,1,1.4111,1.9756,congruent,right,,,,,,stimulusFile/physical.xlsx,,,,,,,,,,,,,,,,,,,,,,,,,,,,,,,
,,,,,,,,,,,,,,,745,2022-01-21_22h35.50.529,multiplicationStroop,2021.2.3,Win32,59.93048064,,,,,right,1,0.9342,0,37,37,45,1,7,2,7 | 2,5,1.4111,1.9756,incongruent,right,,,,,,stimulusFile/physical.xlsx,,,,,,,,,,,,,,,,,,,,,,,,,,,,,,,
,,,,,,,,,,,,,,,745,2022-01-21_22h35.50.529,multiplicationStroop,2021.2.3,Win32,59.93048064,,,,,left,1,0.5031,0,38,38,13,1,4,2,4 | 2,2,1.9756,1.4111,congruent,left,,,,,,stimulusFile/physical.xlsx,,,,,,,,,,,,,,,,,,,,,,,,,,,,,,,
,,,,,,,,,,,,,,,745,2022-01-21_22h35.50.529,multiplicationStroop,2021.2.3,Win32,59.93048064,,,,,right,1,0.4779,0,39,39,58,1,6,6,6 | 6,0,1.4111,1.9756,neutral,right,,,,,,stimulusFile/physical.xlsx,,,,,,,,,,,,,,,,,,,,,,,,,,,,,,,
,,,,,,,,,,,,,,,745,2022-01-21_22h35.50.529,multiplicationStroop,2021.2.3,Win32,59.93048064,,,,,left,1,0.5083,0,40,40,6,1,7,6,7 | 6,1,1.9756,1.4111,congruent,left,,,,,,stimulusFile/physical.xlsx,,,,,,,,,,,,,,,,,,,,,,,,,,,,,,,
,,,,,,,,,,,,,,,745,2022-01-21_22h35.50.529,multiplicationStroop,2021.2.3,Win32,59.93048064,,,,,left,1,0.4444,0,41,41,70,1,8,8,8 | 8,0,1.9756,1.4111,neutral,left,,,,,,stimulusFile/physical.xlsx,,,,,,,,,,,,,,,,,,,,,,,,,,,,,,,
,,,,,,,,,,,,,,,745,2022-01-21_22h35.50.529,multiplicationStroop,2021.2.3,Win32,59.93048064,,,,,right,1,0.5106,0,42,42,18,1,3,8,3 | 8,5,1.4111,1.9756,congruent,right,,,,,,stimulusFile/physical.xlsx,,,,,,,,,,,,,,,,,,,,,,,,,,,,,,,
,,,,,,,,,,,,,,,745,2022-01-21_22h35.50.529,multiplicationStroop,2021.2.3,Win32,59.93048064,,,,,right,1,0.6017,0,43,43,36,1,3,1,3 | 1,2,1.4111,1.9756,incongruent,right,,,,,,stimulusFile/physical.xlsx,,,,,,,,,,,,,,,,,,,,,,,,,,,,,,,
,,,,,,,,,,,,,,,745,2022-01-21_22h35.50.529,multiplicationStroop,2021.2.3,Win32,59.93048064,,,,,right,1,0.5638,0,44,44,30,1,7,6,7 | 6,1,1.4111,1.9756,incongruent,right,,,,,,stimulusFile/physical.xlsx,,,,,,,,,,,,,,,,,,,,,,,,,,,,,,,
,,,,,,,,,,,,,,,745,2022-01-21_22h35.50.529,multiplicationStroop,2021.2.3,Win32,59.93048064,,,,,left,1,0.6098,0,45,45,25,1,3,4,3 | 4,1,1.9756,1.4111,incongruent,left,,,,,,stimulusFile/physical.xlsx,,,,,,,,,,,,,,,,,,,,,,,,,,,,,,,
,,,,,,,,,,,,,,,745,2022-01-21_22h35.50.529,multiplicationStroop,2021.2.3,Win32,59.93048064,,,,,left,1,0.4851,0,46,46,12,1,3,1,3 | 1,2,1.9756,1.4111,congruent,left,,,,,,stimulusFile/physical.xlsx,,,,,,,,,,,,,,,,,,,,,,,,,,,,,,,
,,,,,,,,,,,,,,,745,2022-01-21_22h35.50.529,multiplicationStroop,2021.2.3,Win32,59.93048064,,,,,left,1,0.4688,0,47,47,50,1,6,6,6 | 6,0,1.9756,1.4111,neutral,left,,,,,,stimulusFile/physical.xlsx,,,,,,,,,,,,,,,,,,,,,,,,,,,,,,,
,,,,,,,,,,,,,,,745,2022-01-21_22h35.50.529,multiplicationStroop,2021.2.3,Win32,59.93048064,,,,,right,1,1.3514,0,48,48,2,1,6,7,6 | 7,1,1.4111,1.9756,congruent,right,,,,,,stimulusFile/physical.xlsx,,,,,,,,,,,,,,,,,,,,,,,,,,,,,,,
,,,,,,,,,,,,,,,745,2022-01-21_22h35.50.529,multiplicationStroop,2021.2.3,Win32,59.93048064,,,,,right,1,0.8682,0,49,49,60,1,3,3,3 | 3,0,1.4111,1.9756,neutral,right,,,,,,stimulusFile/physical.xlsx,,,,,,,,,,,,,,,,,,,,,,,,,,,,,,,
,,,,,,,,,,,,,,,745,2022-01-21_22h35.50.529,multiplicationStroop,2021.2.3,Win32,59.93048064,,,,,left,0,0.6396,0,50,50,64,1,1,1,1 | 1,0,1.9756,1.4111,neutral,right,,,,,,stimulusFile/physical.xlsx,,,,,,,,,,,,,,,,,,,,,,,,,,,,,,,
,,,,,,,,,,,,,,,745,2022-01-21_22h35.50.529,multiplicationStroop,2021.2.3,Win32,59.93048064,,,,,left,1,0.6585,0,51,51,33,1,2,4,2 | 4,2,1.9756,1.4111,incongruent,left,,,,,,stimulusFile/physical.xlsx,,,,,,,,,,,,,,,,,,,,,,,,,,,,,,,
,,,,,,,,,,,,,,,745,2022-01-21_22h35.50.529,multiplicationStroop,2021.2.3,Win32,59.93048064,,,,,left,1,0.4628,0,52,52,49,1,3,3,3 | 3,0,1.9756,1.4111,neutral,left,,,,,,stimulusFile/physical.xlsx,,,,,,,,,,,,,,,,,,,,,,,,,,,,,,,
,,,,,,,,,,,,,,,745,2022-01-21_22h35.50.529,multiplicationStroop,2021.2.3,Win32,59.93048064,,,,,left,1,0.3944,0,53,53,35,1,7,9,7 | 9,2,1.9756,1.4111,incongruent,left,,,,,,stimulusFile/physical.xlsx,,,,,,,,,,,,,,,,,,,,,,,,,,,,,,,
,,,,,,,,,,,,,,,745,2022-01-21_22h35.50.529,multiplicationStroop,2021.2.3,Win32,59.93048064,,,,,right,1,0.6577,0,54,54,59,1,7,7,7 | 7,0,1.4111,1.9756,neutral,right,,,,,,stimulusFile/physical.xlsx,,,,,,,,,,,,,,,,,,,,,,,,,,,,,,,
,,,,,,,,,,,,,,,745,2022-01-21_22h35.50.529,multiplicationStroop,2021.2.3,Win32,59.93048064,,,,,right,1,0.6844,0,55,55,38,1,8,6,8 | 6,2,1.4111,1.9756,incongruent,right,,,,,,stimulusFile/physical.xlsx,,,,,,,,,,,,,,,,,,,,,,,,,,,,,,,
,,,,,,,,,,,,,,,745,2022-01-21_22h35.50.529,multiplicationStroop,2021.2.3,Win32,59.93048064,,,,,right,1,0.6425,0,56,56,56,1,1,1,1 | 1,0,1.4111,1.9756,neutral,right,,,,,,stimulusFile/physical.xlsx,,,,,,,,,,,,,,,,,,,,,,,,,,,,,,,
,,,,,,,,,,,,,,,745,2022-01-21_22h35.50.529,multiplicationStroop,2021.2.3,Win32,59.93048064,,,,,right,1,0.7794,0,57,57,46,1,8,3,8 | 3,5,1.4111,1.9756,incongruent,right,,,,,,stimulusFile/physical.xlsx,,,,,,,,,,,,,,,,,,,,,,,,,,,,,,,
,,,,,,,,,,,,,,,745,2022-01-21_22h35.50.529,multiplicationStroop,2021.2.3,Win32,59.93048064,,,,,left,1,0.5755,0,58,58,51,1,8,8,8 | 8,0,1.9756,1.4111,neutral,left,,,,,,stimulusFile/physical.xlsx,,,,,,,,,,,,,,,,,,,,,,,,,,,,,,,
,,,,,,,,,,,,,,,745,2022-01-21_22h35.50.529,multiplicationStroop,2021.2.3,Win32,59.93048064,,,,,right,1,0.6084,0,59,59,10,1,6,8,6 | 8,2,1.4111,1.9756,congruent,right,,,,,,stimulusFile/physical.xlsx,,,,,,,,,,,,,,,,,,,,,,,,,,,,,,,
,,,,,,,,,,,,,,,745,2022-01-21_22h35.50.529,multiplicationStroop,2021.2.3,Win32,59.93048064,,,,,right,1,0.7814,0,60,60,19,1,4,9,4 | 9,5,1.4111,1.9756,congruent,right,,,,,,stimulusFile/physical.xlsx,,,,,,,,,,,,,,,,,,,,,,,,,,,,,,,
,,,,,,,,,,,,,,,745,2022-01-21_22h35.50.529,multiplicationStroop,2021.2.3,Win32,59.93048064,,,,,right,1,0.4802,0,61,61,65,1,2,2,2 | 2,0,1.4111,1.9756,neutral,right,,,,,,stimulusFile/physical.xlsx,,,,,,,,,,,,,,,,,,,,,,,,,,,,,,,
,,,,,,,,,,,,,,,745,2022-01-21_22h35.50.529,multiplicationStroop,2021.2.3,Win32,59.93048064,,,,,left,1,0.5944,0,62,62,41,1,2,7,2 | 7,5,1.9756,1.4111,incongruent,left,,,,,,stimulusFile/physical.xlsx,,,,,,,,,,,,,,,,,,,,,,,,,,,,,,,
,,,,,,,,,,,,,,,745,2022-01-21_22h35.50.529,multiplicationStroop,2021.2.3,Win32,59.93048064,,,,,right,1,0.7834,0,63,63,1,1,3,4,3 | 4,1,1.4111,1.9756,congruent,right,,,,,,stimulusFile/physical.xlsx,,,,,,,,,,,,,,,,,,,,,,,,,,,,,,,
,,,,,,,,,,,,,,,745,2022-01-21_22h35.50.529,multiplicationStroop,2021.2.3,Win32,59.93048064,,,,,right,1,0.7604,0,64,64,29,1,4,3,4 | 3,1,1.4111,1.9756,incongruent,right,,,,,,stimulusFile/physical.xlsx,,,,,,,,,,,,,,,,,,,,,,,,,,,,,,,
,,,,,,,,,,,,,,,745,2022-01-21_22h35.50.529,multiplicationStroop,2021.2.3,Win32,59.93048064,,,,,right,1,0.7593,0,65,65,9,1,2,4,2 | 4,2,1.4111,1.9756,congruent,right,,,,,,stimulusFile/physical.xlsx,,,,,,,,,,,,,,,,,,,,,,,,,,,,,,,
,,,,,,,,,,,,,,,745,2022-01-21_22h35.50.529,multiplicationStroop,2021.2.3,Win32,59.93048064,,,,,left,1,0.8203,0,66,66,40,1,1,6,1 | 6,5,1.9756,1.4111,incongruent,left,,,,,,stimulusFile/physical.xlsx,,,,,,,,,,,,,,,,,,,,,,,,,,,,,,,
,,,,,,,,,,,,,,,745,2022-01-21_22h35.50.529,multiplicationStroop,2021.2.3,Win32,59.93048064,,,,,left,1,0.584,0,67,67,52,1,2,2,2 | 2,0,1.9756,1.4111,neutral,left,,,,,,stimulusFile/physical.xlsx,,,,,,,,,,,,,,,,,,,,,,,,,,,,,,,
,,,,,,,,,,,,,,,745,2022-01-21_22h35.50.529,multiplicationStroop,2021.2.3,Win32,59.93048064,,,,,left,1,0.4923,0,68,68,34,1,6,8,6 | 8,2,1.9756,1.4111,incongruent,left,,,,,,stimulusFile/physical.xlsx,,,,,,,,,,,,,,,,,,,,,,,,,,,,,,,
,,,,,,,,,,,,,,,745,2022-01-21_22h35.50.529,multiplicationStroop,2021.2.3,Win32,59.93048064,,,,,right,1,0.6603,0,69,69,17,1,2,7,2 | 7,5,1.4111,1.9756,congruent,right,,,,,,stimulusFile/physical.xlsx,,,,,,,,,,,,,,,,,,,,,,,,,,,,,,,
,,,,,,,,,,,,,,,745,2022-01-21_22h35.50.529,multiplicationStroop,2021.2.3,Win32,59.93048064,,,,,left,1,0.8255,0,70,70,14,1,8,6,8 | 6,2,1.9756,1.4111,congruent,left,,,,,,stimulusFile/physical.xlsx,,,,,,,,,,,,,,,,,,,,,,,,,,,,,,,
,,,,,,,,,,,,,,,745,2022-01-21_22h35.50.529,multiplicationStroop,2021.2.3,Win32,59.93048064,,,,,right,0,0.4733,0,71,71,69,1,7,7,7 | 7,0,1.4111,1.9756,neutral,left,,,,,,stimulusFile/physical.xlsx,,,,,,,,,,,,,,,,,,,,,,,,,,,,,,,
,,,,,,,,,,,,,,,745,2022-01-21_22h35.50.529,multiplicationStroop,2021.2.3,Win32,59.93048064,,,,,,,,,,,,,,,,,,,,,0,1,1,1,1,stimulusFile/physical.xlsx,PHYSICALLY larger (larger font size).,images/physicallyLarger.png,,,,,,,,,,,,,,,,,,,,,,,,,,,,,
,,,,,,,,,,,,,,,745,2022-01-21_22h35.50.529,multiplicationStroop,2021.2.3,Win32,59.93048064,,,,,,,,,,,,,,,,,,,,,,,,,,,,,space,17.038,space,2.8402,9,3.0549,1,0,0,0,29,1,3,×,3,3 × 3,neutral,tie,1,2,9,,,,,,,,
,,,,,,,,,,,,,,,745,2022-01-21_22h35.50.529,multiplicationStroop,2021.2.3,Win32,59.93048064,,,,,,,,,,,,,,,,,,,,,,,,,,,,,,,,,15,2.4804,1,0,1,1,18,1,5,×,3,5 × 3,congruent,largerFirst,2,1,15,,,,,,,,
,,,,,,,,,,,,,,,745,2022-01-21_22h35.50.529,multiplicationStroop,2021.2.3,Win32,59.93048064,,,,,,,,,,,,,,,,,,,,,,,,,,,,,,,,,56,2.0147,1,0,2,2,22,1,8,×,7,8 × 7,congruent,largerFirst,2,1,56,,,,,,,,
,,,,,,,,,,,,,,,745,2022-01-21_22h35.50.529,multiplicationStroop,2021.2.3,Win32,59.93048064,,,,,,,,,,,,,,,,,,,,,,,,,,,,,,,,,25,2.2977,1,0,3,3,31,1,5,×,5,5 × 5,neutral,tie,1,2,25,,,,,,,,
,,,,,,,,,,,,,,,745,2022-01-21_22h35.50.529,multiplicationStroop,2021.2.3,Win32,59.93048064,,,,,,,,,,,,,,,,,,,,,,,,,,,,,,,,,21,2.0313,1,0,4,4,2,1,3,×,7,3 × 7,congruent,smallerFirst,1,2,21,,,,,,,,
,,,,,,,,,,,,,,,745,2022-01-21_22h35.50.529,multiplicationStroop,2021.2.3,Win32,59.93048064,,,,,,,,,,,,,,,,,,,,,,,,,,,,,,,,,12,2.1159,1,0,5,5,16,1,4,×,3,4 × 3,congruent,largerFirst,2,1,12,,,,,,,,
,,,,,,,,,,,,,,,745,2022-01-21_22h35.50.529,multiplicationStroop,2021.2.3,Win32,59.93048064,,,,,,,,,,,,,,,,,,,,,,,,,,,,,,,,,6,2.6635,1,0,6,6,27,1,3,×,2,3 × 2,congruent,largerFirst,2,1,6,,,,,,,,
,,,,,,,,,,,,,,,745,2022-01-21_22h35.50.529,multiplicationStroop,2021.2.3,Win32,59.93048064,,,,,,,,,,,,,,,,,,,,,,,,,,,,,,,,,42,2.3493,1,0,7,7,17,1,7,×,6,7 × 6,congruent,largerFirst,2,1,42,,,,,,,,
,,,,,,,,,,,,,,,745,2022-01-21_22h35.50.529,multiplicationStroop,2021.2.3,Win32,59.93048064,,,,,,,,,,,,,,,,,,,,,,,,,,,,,,,,,35,1.9815,1,0,8,8,15,1,7,×,5,7 × 5,congruent,largerFirst,2,1,35,,,,,,,,
,,,,,,,,,,,,,,,745,2022-01-21_22h35.50.529,multiplicationStroop,2021.2.3,Win32,59.93048064,,,,,,,,,,,,,,,,,,,,,,,,,,,,,,,,,4,1.5161,1,0,9,9,28,1,2,×,2,2 × 2,neutral,tie,1,2,4,,,,,,,,
,,,,,,,,,,,,,,,745,2022-01-21_22h35.50.529,multiplicationStroop,2021.2.3,Win32,59.93048064,,,,,,,,,,,,,,,,,,,,,,,,,,,,,,,,,10,1.9826,1,0,10,10,10,1,2,×,5,2 × 5,congruent,smallerFirst,1,2,10,,,,,,,,
,,,,,,,,,,,,,,,745,2022-01-21_22h35.50.529,multiplicationStroop,2021.2.3,Win32,59.93048064,,,,,,,,,,,,,,,,,,,,,,,,,,,,,,,,,12,1.8487,1,0,11,11,5,1,2,×,6,2 × 6,congruent,smallerFirst,1,2,12,,,,,,,,
,,,,,,,,,,,,,,,745,2022-01-21_22h35.50.529,multiplicationStroop,2021.2.3,Win32,59.93048064,,,,,,,,,,,,,,,,,,,,,,,,,,,,,,,,,18,2.6813,1,0,12,12,25,1,6,×,3,6 × 3,congruent,largerFirst,2,1,18,,,,,,,,
,,,,,,,,,,,,,,,745,2022-01-21_22h35.50.529,multiplicationStroop,2021.2.3,Win32,59.93048064,,,,,,,,,,,,,,,,,,,,,,,,,,,,,,,,,40,2.5986,1,0,13,13,20,1,8,×,5,8 × 5,congruent,largerFirst,2,1,40,,,,,,,,
,,,,,,,,,,,,,,,745,2022-01-21_22h35.50.529,multiplicationStroop,2021.2.3,Win32,59.93048064,,,,,,,,,,,,,,,,,,,,,,,,,,,,,,,,,12,1.6674,0,0,14,14,30,1,4,×,4,4 × 4,neutral,tie,1,2,16,,,,,,,,
,,,,,,,,,,,,,,,745,2022-01-21_22h35.50.529,multiplicationStroop,2021.2.3,Win32,59.93048064,,,,,,,,,,,,,,,,,,,,,,,,,,,,,,,,,24,2.5152,1,0,15,15,24,1,8,×,3,8 × 3,congruent,largerFirst,2,1,24,,,,,,,,
,,,,,,,,,,,,,,,745,2022-01-21_22h35.50.529,multiplicationStroop,2021.2.3,Win32,59.93048064,,,,,,,,,,,,,,,,,,,,,,,,,,,,,,,,,28,2.4155,1,0,16,16,13,1,4,×,7,4 × 7,congruent,smallerFirst,1,2,28,,,,,,,,
,,,,,,,,,,,,,,,745,2022-01-21_22h35.50.529,multiplicationStroop,2021.2.3,Win32,59.93048064,,,,,,,,,,,,,,,,,,,,,,,,,,,,,,,,,16,2.0312,1,0,17,17,19,1,8,×,2,8 × 2,congruent,largerFirst,2,1,16,,,,,,,,
,,,,,,,,,,,,,,,745,2022-01-21_22h35.50.529,multiplicationStroop,2021.2.3,Win32,59.93048064,,,,,,,,,,,,,,,,,,,,,,,,,,,,,,,,,8,2.4812,1,0,18,18,23,1,4,×,2,4 × 2,congruent,largerFirst,2,1,8,,,,,,,,
,,,,,,,,,,,,,,,745,2022-01-21_22h35.50.529,multiplicationStroop,2021.2.3,Win32,59.93048064,,,,,,,,,,,,,,,,,,,,,,,,,,,,,,,,,36,3.2486,1,0,19,19,14,1,9,×,4,9 × 4,congruent,largerFirst,2,1,36,,,,,,,,
,,,,,,,,,,,,,,,745,2022-01-21_22h35.50.529,multiplicationStroop,2021.2.3,Win32,59.93048064,,,,,,,,,,,,,,,,,,,,,,,,,,,,,,,,,42,3.7853,0,0,20,20,4,1,6,×,8,6 × 8,congruent,smallerFirst,1,2,48,,,,,,,,
,,,,,,,,,,,,,,,745,2022-01-21_22h35.50.529,multiplicationStroop,2021.2.3,Win32,59.93048064,,,,,,,,,,,,,,,,,,,,,,,,,,,,,,,,,72,6.1679,1,0,21,21,3,1,8,×,9,8 × 9,congruent,smallerFirst,1,2,72,,,,,,,,
,,,,,,,,,,,,,,,745,2022-01-21_22h35.50.529,multiplicationStroop,2021.2.3,Win32,59.93048064,,,,,,,,,,,,,,,,,,,,,,,,,,,,,,,,,49,2.2842,1,0,22,22,33,1,7,×,7,7 × 7,neutral,tie,1,2,49,,,,,,,,
,,,,,,,,,,,,,,,745,2022-01-21_22h35.50.529,multiplicationStroop,2021.2.3,Win32,59.93048064,,,,,,,,,,,,,,,,,,,,,,,,,,,,,,,,,63,4.2151,1,0,23,23,7,1,7,×,9,7 × 9,congruent,smallerFirst,1,2,63,,,,,,,,
,,,,,,,,,,,,,,,745,2022-01-21_22h35.50.529,multiplicationStroop,2021.2.3,Win32,59.93048064,,,,,,,,,,,,,,,,,,,,,,,,,,,,,,,,,14,2.4336,1,0,24,24,0,1,2,×,7,2 × 7,congruent,smallerFirst,1,2,14,,,,,,,,
,,,,,,,,,,,,,,,745,2022-01-21_22h35.50.529,multiplicationStroop,2021.2.3,Win32,59.93048064,,,,,,,,,,,,,,,,,,,,,,,,,,,,,,,,,81,4.8821,1,0,25,25,35,1,9,×,9,9 × 9,neutral,tie,1,2,81,,,,,,,,
,,,,,,,,,,,,,,,745,2022-01-21_22h35.50.529,multiplicationStroop,2021.2.3,Win32,59.93048064,,,,,,,,,,,,,,,,,,,,,,,,,,,,,,,,,20,2.0338,1,0,26,26,21,1,5,×,4,5 × 4,congruent,largerFirst,2,1,20,,,,,,,,
,,,,,,,,,,,,,,,745,2022-01-21_22h35.50.529,multiplicationStroop,2021.2.3,Win32,59.93048064,,,,,,,,,,,,,,,,,,,,,,,,,,,,,,,,,54,4.1152,1,0,27,27,26,1,9,×,6,9 × 6,congruent,largerFirst,2,1,54,,,,,,,,
,,,,,,,,,,,,,,,745,2022-01-21_22h35.50.529,multiplicationStroop,2021.2.3,Win32,59.93048064,,,,,,,,,,,,,,,,,,,,,,,,,,,,,,,,,45,3.0307,1,0,28,28,9,1,5,×,9,5 × 9,congruent,smallerFirst,1,2,45,,,,,,,,
,,,,,,,,,,,,,,,745,2022-01-21_22h35.50.529,multiplicationStroop,2021.2.3,Win32,59.93048064,,,,,,,,,,,,,,,,,,,,,,,,,,,,,,,,,36,2.6314,1,0,29,29,32,1,6,×,6,6 × 6,neutral,tie,1,2,36,,,,,,,,
,,,,,,,,,,,,,,,745,2022-01-21_22h35.50.529,multiplicationStroop,2021.2.3,Win32,59.93048064,,,,,,,,,,,,,,,,,,,,,,,,,,,,,,,,,24,3.2181,1,0,30,30,11,1,4,×,6,4 × 6,congruent,smallerFirst,1,2,24,,,,,,,,
,,,,,,,,,,,,,,,745,2022-01-21_22h35.50.529,multiplicationStroop,2021.2.3,Win32,59.93048064,,,,,,,,,,,,,,,,,,,,,,,,,,,,,,,,,30,3.4154,1,0,31,31,1,1,5,×,6,5 × 6,congruent,smallerFirst,1,2,30,,,,,,,,
,,,,,,,,,,,,,,,745,2022-01-21_22h35.50.529,multiplicationStroop,2021.2.3,Win32,59.93048064,,,,,,,,,,,,,,,,,,,,,,,,,,,,,,,,,64,3.9838,1,0,32,32,34,1,8,×,8,8 × 8,neutral,tie,1,2,64,,,,,,,,
,,,,,,,,,,,,,,,745,2022-01-21_22h35.50.529,multiplicationStroop,2021.2.3,Win32,59.93048064,,,,,,,,,,,,,,,,,,,,,,,,,,,,,,,,,32,2.6344,1,0,33,33,6,1,4,×,8,4 × 8,congruent,smallerFirst,1,2,32,,,,,,,,
,,,,,,,,,,,,,,,745,2022-01-21_22h35.50.529,multiplicationStroop,2021.2.3,Win32,59.93048064,,,,,,,,,,,,,,,,,,,,,,,,,,,,,,,,,18,1.9983,1,0,34,34,8,1,2,×,9,2 × 9,congruent,smallerFirst,1,2,18,,,,,,,,
,,,,,,,,,,,,,,,745,2022-01-21_22h35.50.529,multiplicationStroop,2021.2.3,Win32,59.93048064,,,,,,,,,,,,,,,,,,,,,,,,,,,,,,,,,24,2.5149,0,0,35,35,12,1,3,×,9,3 × 9,congruent,smallerFirst,1,2,27,,,,,,,,
,,,,,,,,,,,,,,,745,2022-01-21_22h35.50.529,multiplicationStroop,2021.2.3,Win32,59.93048064,,,,,,,,,,,,,,,,,,,,,,,,,,,,,,,,,,,,,,,,,,,,,,,,,,0,0,0,3,1,stimulusFile/mult_blk4_congruent.xlsx,,
,,,,,,,,,,,,,,,745,2022-01-21_22h35.50.529,multiplicationStroop,2021.2.3,Win32,59.93048064,,,,,,,,,,,,,,,,,,,,,,,,,,,,,,,space,4.9981,45,2.6614,1,0,0,0,24,1,9,×,5,9 × 5,neutral,largerFirst,1.5,1.5,45,,,,,,,,
,,,,,,,,,,,,,,,745,2022-01-21_22h35.50.529,multiplicationStroop,2021.2.3,Win32,59.93048064,,,,,,,,,,,,,,,,,,,,,,,,,,,,,,,,,6,1.6338,1,0,1,1,12,1,2,×,3,2 × 3,neutral,smallerFirst,1.5,1.5,6,,,,,,,,
,,,,,,,,,,,,,,,745,2022-01-21_22h35.50.529,multiplicationStroop,2021.2.3,Win32,59.93048064,,,,,,,,,,,,,,,,,,,,,,,,,,,,,,,,,36,2.1646,1,0,2,2,32,1,6,×,6,6 × 6,neutral,tie,1.5,1.5,36,,,,,,,,
,,,,,,,,,,,,,,,745,2022-01-21_22h35.50.529,multiplicationStroop,2021.2.3,Win32,59.93048064,,,,,,,,,,,,,,,,,,,,,,,,,,,,,,,,,15,1.8983,1,0,3,3,19,1,5,×,3,5 × 3,neutral,largerFirst,1.5,1.5,15,,,,,,,,
,,,,,,,,,,,,,,,745,2022-01-21_22h35.50.529,multiplicationStroop,2021.2.3,Win32,59.93048064,,,,,,,,,,,,,,,,,,,,,,,,,,,,,,,,,42,3.9481,0,0,4,4,1,1,6,×,8,6 × 8,neutral,smallerFirst,1.5,1.5,48,,,,,,,,
,,,,,,,,,,,,,,,745,2022-01-21_22h35.50.529,multiplicationStroop,2021.2.3,Win32,59.93048064,,,,,,,,,,,,,,,,,,,,,,,,,,,,,,,,,49,2.6671,1,0,5,5,33,1,7,×,7,7 × 7,neutral,tie,1.5,1.5,49,,,,,,,,
,,,,,,,,,,,,,,,745,2022-01-21_22h35.50.529,multiplicationStroop,2021.2.3,Win32,59.93048064,,,,,,,,,,,,,,,,,,,,,,,,,,,,,,,,,4,1.3983,1,0,6,6,28,1,2,×,2,2 × 2,neutral,tie,1.5,1.5,4,,,,,,,,
,,,,,,,,,,,,,,,745,2022-01-21_22h35.50.529,multiplicationStroop,2021.2.3,Win32,59.93048064,,,,,,,,,,,,,,,,,,,,,,,,,,,,,,,,,8,1.5821,1,0,7,7,17,1,4,×,2,4 × 2,neutral,largerFirst,1.5,1.5,8,,,,,,,,
,,,,,,,,,,,,,,,745,2022-01-21_22h35.50.529,multiplicationStroop,2021.2.3,Win32,59.93048064,,,,,,,,,,,,,,,,,,,,,,,,,,,,,,,,,12,2.249,0,0,8,8,30,1,4,×,4,4 × 4,neutral,tie,1.5,1.5,16,,,,,,,,
,,,,,,,,,,,,,,,745,2022-01-21_22h35.50.529,multiplicationStroop,2021.2.3,Win32,59.93048064,,,,,,,,,,,,,,,,,,,,,,,,,,,,,,,,,56,2.9811,1,0,9,9,23,1,8,×,7,8 × 7,neutral,largerFirst,1.5,1.5,56,,,,,,,,
,,,,,,,,,,,,,,,745,2022-01-21_22h35.50.529,multiplicationStroop,2021.2.3,Win32,59.93048064,,,,,,,,,,,,,,,,,,,,,,,,,,,,,,,,,30,2.2173,1,0,10,10,5,1,5,×,6,5 × 6,neutral,smallerFirst,1.5,1.5,30,,,,,,,,
,,,,,,,,,,,,,,,745,2022-01-21_22h35.50.529,multiplicationStroop,2021.2.3,Win32,59.93048064,,,,,,,,,,,,,,,,,,,,,,,,,,,,,,,,,28,2.8308,1,0,11,11,3,1,4,×,7,4 × 7,neutral,smallerFirst,1.5,1.5,28,,,,,,,,
,,,,,,,,,,,,,,,745,2022-01-21_22h35.50.529,multiplicationStroop,2021.2.3,Win32,59.93048064,,,,,,,,,,,,,,,,,,,,,,,,,,,,,,,,,32,3.0983,1,0,12,12,9,1,4,×,8,4 × 8,neutral,smallerFirst,1.5,1.5,32,,,,,,,,
,,,,,,,,,,,,,,,745,2022-01-21_22h35.50.529,multiplicationStroop,2021.2.3,Win32,59.93048064,,,,,,,,,,,,,,,,,,,,,,,,,,,,,,,,,40,2.6528,1,0,13,13,10,1,5,×,8,5 × 8,neutral,smallerFirst,1.5,1.5,40,,,,,,,,
,,,,,,,,,,,,,,,745,2022-01-21_22h35.50.529,multiplicationStroop,2021.2.3,Win32,59.93048064,,,,,,,,,,,,,,,,,,,,,,,,,,,,,,,,,36,4.2148,1,0,14,14,13,1,4,×,9,4 × 9,neutral,smallerFirst,1.5,1.5,36,,,,,,,,
,,,,,,,,,,,,,,,745,2022-01-21_22h35.50.529,multiplicationStroop,2021.2.3,Win32,59.93048064,,,,,,,,,,,,,,,,,,,,,,,,,,,,,,,,,12,2.5182,1,0,15,15,11,1,2,×,6,2 × 6,neutral,smallerFirst,1.5,1.5,12,,,,,,,,
,,,,,,,,,,,,,,,745,2022-01-21_22h35.50.529,multiplicationStroop,2021.2.3,Win32,59.93048064,,,,,,,,,,,,,,,,,,,,,,,,,,,,,,,,,18,2.0176,1,0,16,16,4,1,2,×,9,2 × 9,neutral,smallerFirst,1.5,1.5,18,,,,,,,,
,,,,,,,,,,,,,,,745,2022-01-21_22h35.50.529,multiplicationStroop,2021.2.3,Win32,59.93048064,,,,,,,,,,,,,,,,,,,,,,,,,,,,,,,,,18,2.4146,1,0,17,17,14,1,6,×,3,6 × 3,neutral,largerFirst,1.5,1.5,18,,,,,,,,
,,,,,,,,,,,,,,,745,2022-01-21_22h35.50.529,multiplicationStroop,2021.2.3,Win32,59.93048064,,,,,,,,,,,,,,,,,,,,,,,,,,,,,,,,,24,3.5821,1,0,18,18,16,1,6,×,4,6 × 4,neutral,largerFirst,1.5,1.5,24,,,,,,,,
,,,,,,,,,,,,,,,745,2022-01-21_22h35.50.529,multiplicationStroop,2021.2.3,Win32,59.93048064,,,,,,,,,,,,,,,,,,,,,,,,,,,,,,,,,9,1.5675,1,0,19,19,29,1,3,×,3,3 × 3,neutral,tie,1.5,1.5,9,,,,,,,,
,,,,,,,,,,,,,,,745,2022-01-21_22h35.50.529,multiplicationStroop,2021.2.3,Win32,59.93048064,,,,,,,,,,,,,,,,,,,,,,,,,,,,,,,,,21,1.6994,1,0,20,20,22,1,7,×,3,7 × 3,neutral,largerFirst,1.5,1.5,21,,,,,,,,
,,,,,,,,,,,,,,,745,2022-01-21_22h35.50.529,multiplicationStroop,2021.2.3,Win32,59.93048064,,,,,,,,,,,,,,,,,,,,,,,,,,,,,,,,,72,5.4492,1,0,21,21,25,1,9,×,8,9 × 8,neutral,largerFirst,1.5,1.5,72,,,,,,,,
,,,,,,,,,,,,,,,745,2022-01-21_22h35.50.529,multiplicationStroop,2021.2.3,Win32,59.93048064,,,,,,,,,,,,,,,,,,,,,,,,,,,,,,,,,42,4.0681,1,0,22,22,20,1,7,×,6,7 × 6,neutral,largerFirst,1.5,1.5,42,,,,,,,,
,,,,,,,,,,,,,,,745,2022-01-21_22h35.50.529,multiplicationStroop,2021.2.3,Win32,59.93048064,,,,,,,,,,,,,,,,,,,,,,,,,,,,,,,,,54,4.4842,1,0,23,23,21,1,9,×,6,9 × 6,neutral,largerFirst,1.5,1.5,54,,,,,,,,
,,,,,,,,,,,,,,,745,2022-01-21_22h35.50.529,multiplicationStroop,2021.2.3,Win32,59.93048064,,,,,,,,,,,,,,,,,,,,,,,,,,,,,,,,,16,2.0354,1,0,24,24,27,1,8,×,2,8 × 2,neutral,largerFirst,1.5,1.5,16,,,,,,,,
,,,,,,,,,,,,,,,745,2022-01-21_22h35.50.529,multiplicationStroop,2021.2.3,Win32,59.93048064,,,,,,,,,,,,,,,,,,,,,,,,,,,,,,,,,25,2.6825,1,0,25,25,31,1,5,×,5,5 × 5,neutral,tie,1.5,1.5,25,,,,,,,,
,,,,,,,,,,,,,,,745,2022-01-21_22h35.50.529,multiplicationStroop,2021.2.3,Win32,59.93048064,,,,,,,,,,,,,,,,,,,,,,,,,,,,,,,,,81,4.3183,1,0,26,26,35,1,9,×,9,9 × 9,neutral,tie,1.5,1.5,81,,,,,,,,
,,,,,,,,,,,,,,,745,2022-01-21_22h35.50.529,multiplicationStroop,2021.2.3,Win32,59.93048064,,,,,,,,,,,,,,,,,,,,,,,,,,,,,,,,,10,2.4177,1,0,27,27,18,1,5,×,2,5 × 2,neutral,largerFirst,1.5,1.5,10,,,,,,,,
,,,,,,,,,,,,,,,745,2022-01-21_22h35.50.529,multiplicationStroop,2021.2.3,Win32,59.93048064,,,,,,,,,,,,,,,,,,,,,,,,,,,,,,,,,27,4.6157,1,0,28,28,0,1,3,×,9,3 × 9,neutral,smallerFirst,1.5,1.5,27,,,,,,,,
,,,,,,,,,,,,,,,745,2022-01-21_22h35.50.529,multiplicationStroop,2021.2.3,Win32,59.93048064,,,,,,,,,,,,,,,,,,,,,,,,,,,,,,,,,35,2.7846,1,0,29,29,15,1,7,×,5,7 × 5,neutral,largerFirst,1.5,1.5,35,,,,,,,,
,,,,,,,,,,,,,,,745,2022-01-21_22h35.50.529,multiplicationStroop,2021.2.3,Win32,59.93048064,,,,,,,,,,,,,,,,,,,,,,,,,,,,,,,,,64,3.4631,1,0,30,30,34,1,8,×,8,8 × 8,neutral,tie,1.5,1.5,64,,,,,,,,
,,,,,,,,,,,,,,,745,2022-01-21_22h35.50.529,multiplicationStroop,2021.2.3,Win32,59.93048064,,,,,,,,,,,,,,,,,,,,,,,,,,,,,,,,,24,2.7992,1,0,31,31,8,1,3,×,8,3 × 8,neutral,smallerFirst,1.5,1.5,24,,,,,,,,
,,,,,,,,,,,,,,,745,2022-01-21_22h35.50.529,multiplicationStroop,2021.2.3,Win32,59.93048064,,,,,,,,,,,,,,,,,,,,,,,,,,,,,,,,,63,4.7857,1,0,32,32,26,1,9,×,7,9 × 7,neutral,largerFirst,1.5,1.5,63,,,,,,,,
,,,,,,,,,,,,,,,745,2022-01-21_22h35.50.529,multiplicationStroop,2021.2.3,Win32,59.93048064,,,,,,,,,,,,,,,,,,,,,,,,,,,,,,,,,25,2.3847,0,0,33,33,6,1,4,×,5,4 × 5,neutral,smallerFirst,1.5,1.5,20,,,,,,,,
,,,,,,,,,,,,,,,745,2022-01-21_22h35.50.529,multiplicationStroop,2021.2.3,Win32,59.93048064,,,,,,,,,,,,,,,,,,,,,,,,,,,,,,,,,12,1.9983,1,0,34,34,7,1,3,×,4,3 × 4,neutral,smallerFirst,1.5,1.5,12,,,,,,,,
,,,,,,,,,,,,,,,745,2022-01-21_22h35.50.529,multiplicationStroop,2021.2.3,Win32,59.93048064,,,,,,,,,,,,,,,,,,,,,,,,,,,,,,,,,14,1.9495,1,0,35,35,2,1,2,×,7,2 × 7,neutral,smallerFirst,1.5,1.5,14,,,,,,,,
,,,,,,,,,,,,,,,745,2022-01-21_22h35.50.529,multiplicationStroop,2021.2.3,Win32,59.93048064,,,,,,,,,,,,,,,,,,,,,,,,,,,,,,,,,,,,,,,,,,,,,,,,,,0,1,1,0,1,stimulusFile/mult_blk1.xlsx,,
,,,,,,,,,,,,,,,745,2022-01-21_22h35.50.529,multiplicationStroop,2021.2.3,Win32,59.93048064,,,,,,,,,,,,,,,,,,,,,,,,,,,,,,,space,5.6537,14,2.1716,1,0,0,0,4,1,2,×,7,2 × 7,incongruent,smallerFirst,2,1,14,,,,,,,,
,,,,,,,,,,,,,,,745,2022-01-21_22h35.50.529,multiplicationStroop,2021.2.3,Win32,59.93048064,,,,,,,,,,,,,,,,,,,,,,,,,,,,,,,,,32,6.0991,1,0,1,1,7,1,4,×,8,4 × 8,incongruent,smallerFirst,2,1,32,,,,,,,,
,,,,,,,,,,,,,,,745,2022-01-21_22h35.50.529,multiplicationStroop,2021.2.3,Win32,59.93048064,,,,,,,,,,,,,,,,,,,,,,,,,,,,,,,,,28,4.9686,1,0,2,2,16,1,7,×,4,7 × 4,incongruent,largerFirst,1,2,28,,,,,,,,
,,,,,,,,,,,,,,,745,2022-01-21_22h35.50.529,multiplicationStroop,2021.2.3,Win32,59.93048064,,,,,,,,,,,,,,,,,,,,,,,,,,,,,,,,,16,2.0844,1,0,3,3,23,1,8,×,2,8 × 2,incongruent,largerFirst,1,2,16,,,,,,,,
,,,,,,,,,,,,,,,745,2022-01-21_22h35.50.529,multiplicationStroop,2021.2.3,Win32,59.93048064,,,,,,,,,,,,,,,,,,,,,,,,,,,,,,,,,81,4.6328,1,0,4,4,35,1,9,×,9,9 × 9,incongruent,tie,1,2,81,,,,,,,,
,,,,,,,,,,,,,,,745,2022-01-21_22h35.50.529,multiplicationStroop,2021.2.3,Win32,59.93048064,,,,,,,,,,,,,,,,,,,,,,,,,,,,,,,,,8,3.3185,1,0,5,5,24,1,4,×,2,4 × 2,incongruent,largerFirst,1,2,8,,,,,,,,
,,,,,,,,,,,,,,,745,2022-01-21_22h35.50.529,multiplicationStroop,2021.2.3,Win32,59.93048064,,,,,,,,,,,,,,,,,,,,,,,,,,,,,,,,,54,3.7345,1,0,6,6,6,1,6,×,9,6 × 9,incongruent,smallerFirst,2,1,54,,,,,,,,
,,,,,,,,,,,,,,,745,2022-01-21_22h35.50.529,multiplicationStroop,2021.2.3,Win32,59.93048064,,,,,,,,,,,,,,,,,,,,,,,,,,,,,,,,,20,2.0674,1,0,7,7,27,1,5,×,4,5 × 4,incongruent,largerFirst,1,2,20,,,,,,,,
,,,,,,,,,,,,,,,745,2022-01-21_22h35.50.529,multiplicationStroop,2021.2.3,Win32,59.93048064,,,,,,,,,,,,,,,,,,,,,,,,,,,,,,,,,25,2.3664,1,0,8,8,31,1,5,×,5,5 × 5,incongruent,tie,1,2,25,,,,,,,,
,,,,,,,,,,,,,,,745,2022-01-21_22h35.50.529,multiplicationStroop,2021.2.3,Win32,59.93048064,,,,,,,,,,,,,,,,,,,,,,,,,,,,,,,,,12,2.9658,1,0,9,9,19,1,6,×,2,6 × 2,incongruent,largerFirst,1,2,12,,,,,,,,
,,,,,,,,,,,,,,,745,2022-01-21_22h35.50.529,multiplicationStroop,2021.2.3,Win32,59.93048064,,,,,,,,,,,,,,,,,,,,,,,,,,,,,,,,,45,2.5821,1,0,10,10,22,1,9,×,5,9 × 5,incongruent,largerFirst,1,2,45,,,,,,,,
,,,,,,,,,,,,,,,745,2022-01-21_22h35.50.529,multiplicationStroop,2021.2.3,Win32,59.93048064,,,,,,,,,,,,,,,,,,,,,,,,,,,,,,,,,21,1.8505,1,0,11,11,26,1,7,×,3,7 × 3,incongruent,largerFirst,1,2,21,,,,,,,,
,,,,,,,,,,,,,,,745,2022-01-21_22h35.50.529,multiplicationStroop,2021.2.3,Win32,59.93048064,,,,,,,,,,,,,,,,,,,,,,,,,,,,,,,,,18,2.7322,1,0,12,12,2,1,2,×,9,2 × 9,incongruent,smallerFirst,2,1,18,,,,,,,,
,,,,,,,,,,,,,,,745,2022-01-21_22h35.50.529,multiplicationStroop,2021.2.3,Win32,59.93048064,,,,,,,,,,,,,,,,,,,,,,,,,,,,,,,,,42,9.0159,0,0,13,13,1,1,6,×,8,6 × 8,incongruent,smallerFirst,2,1,48,,,,,,,,
,,,,,,,,,,,,,,,745,2022-01-21_22h35.50.529,multiplicationStroop,2021.2.3,Win32,59.93048064,,,,,,,,,,,,,,,,,,,,,,,,,,,,,,,,,9,1.9669,1,0,14,14,29,1,3,×,3,3 × 3,incongruent,tie,1,2,9,,,,,,,,
,,,,,,,,,,,,,,,745,2022-01-21_22h35.50.529,multiplicationStroop,2021.2.3,Win32,59.93048064,,,,,,,,,,,,,,,,,,,,,,,,,,,,,,,,,27,2.3992,1,0,15,15,18,1,9,×,3,9 × 3,incongruent,largerFirst,1,2,27,,,,,,,,
,,,,,,,,,,,,,,,745,2022-01-21_22h35.50.529,multiplicationStroop,2021.2.3,Win32,59.93048064,,,,,,,,,,,,,,,,,,,,,,,,,,,,,,,,,10,1.8347,1,0,16,16,21,1,5,×,2,5 × 2,incongruent,largerFirst,1,2,10,,,,,,,,
,,,,,,,,,,,,,,,745,2022-01-21_22h35.50.529,multiplicationStroop,2021.2.3,Win32,59.93048064,,,,,,,,,,,,,,,,,,,,,,,,,,,,,,,,,36,3.0661,1,0,17,17,15,1,9,×,4,9 × 4,incongruent,largerFirst,1,2,36,,,,,,,,
,,,,,,,,,,,,,,,745,2022-01-21_22h35.50.529,multiplicationStroop,2021.2.3,Win32,59.93048064,,,,,,,,,,,,,,,,,,,,,,,,,,,,,,,,,30,3.3309,1,0,18,18,25,1,6,×,5,6 × 5,incongruent,largerFirst,1,2,30,,,,,,,,
,,,,,,,,,,,,,,,745,2022-01-21_22h35.50.529,multiplicationStroop,2021.2.3,Win32,59.93048064,,,,,,,,,,,,,,,,,,,,,,,,,,,,,,,,,63,5.2682,1,0,19,19,3,1,7,×,9,7 × 9,incongruent,smallerFirst,2,1,63,,,,,,,,
,,,,,,,,,,,,,,,745,2022-01-21_22h35.50.529,multiplicationStroop,2021.2.3,Win32,59.93048064,,,,,,,,,,,,,,,,,,,,,,,,,,,,,,,,,4,1.5685,1,0,20,20,28,1,2,×,2,2 × 2,incongruent,tie,1,2,4,,,,,,,,
,,,,,,,,,,,,,,,745,2022-01-21_22h35.50.529,multiplicationStroop,2021.2.3,Win32,59.93048064,,,,,,,,,,,,,,,,,,,,,,,,,,,,,,,,,18,2.5823,1,0,21,21,8,1,3,×,6,3 × 6,incongruent,smallerFirst,2,1,18,,,,,,,,
,,,,,,,,,,,,,,,745,2022-01-21_22h35.50.529,multiplicationStroop,2021.2.3,Win32,59.93048064,,,,,,,,,,,,,,,,,,,,,,,,,,,,,,,,,56,2.2516,1,0,22,22,14,1,8,×,7,8 × 7,incongruent,largerFirst,1,2,56,,,,,,,,
,,,,,,,,,,,,,,,745,2022-01-21_22h35.50.529,multiplicationStroop,2021.2.3,Win32,59.93048064,,,,,,,,,,,,,,,,,,,,,,,,,,,,,,,,,64,3.8657,1,0,23,23,34,1,8,×,8,8 × 8,incongruent,tie,1,2,64,,,,,,,,
,,,,,,,,,,,,,,,745,2022-01-21_22h35.50.529,multiplicationStroop,2021.2.3,Win32,59.93048064,,,,,,,,,,,,,,,,,,,,,,,,,,,,,,,,,40,3.8681,1,0,24,24,13,1,5,×,8,5 × 8,incongruent,smallerFirst,2,1,40,,,,,,,,
,,,,,,,,,,,,,,,745,2022-01-21_22h35.50.529,multiplicationStroop,2021.2.3,Win32,59.93048064,,,,,,,,,,,,,,,,,,,,,,,,,,,,,,,,,24,3.4013,1,0,25,25,9,1,3,×,8,3 × 8,incongruent,smallerFirst,2,1,24,,,,,,,,
,,,,,,,,,,,,,,,745,2022-01-21_22h35.50.529,multiplicationStroop,2021.2.3,Win32,59.93048064,,,,,,,,,,,,,,,,,,,,,,,,,,,,,,,,,16,2.3825,1,0,26,26,30,1,4,×,4,4 × 4,incongruent,tie,1,2,16,,,,,,,,
,,,,,,,,,,,,,,,745,2022-01-21_22h35.50.529,multiplicationStroop,2021.2.3,Win32,59.93048064,,,,,,,,,,,,,,,,,,,,,,,,,,,,,,,,,42,7.1822,1,0,27,27,17,1,7,×,6,7 × 6,incongruent,largerFirst,1,2,42,,,,,,,,
,,,,,,,,,,,,,,,745,2022-01-21_22h35.50.529,multiplicationStroop,2021.2.3,Win32,59.93048064,,,,,,,,,,,,,,,,,,,,,,,,,,,,,,,,,72,5.9669,1,0,28,28,0,1,8,×,9,8 × 9,incongruent,smallerFirst,2,1,72,,,,,,,,
,,,,,,,,,,,,,,,745,2022-01-21_22h35.50.529,multiplicationStroop,2021.2.3,Win32,59.93048064,,,,,,,,,,,,,,,,,,,,,,,,,,,,,,,,,49,2.2839,1,0,29,29,33,1,7,×,7,7 × 7,incongruent,tie,1,2,49,,,,,,,,
,,,,,,,,,,,,,,,745,2022-01-21_22h35.50.529,multiplicationStroop,2021.2.3,Win32,59.93048064,,,,,,,,,,,,,,,,,,,,,,,,,,,,,,,,,12,2.1987,1,0,30,30,5,1,3,×,4,3 × 4,incongruent,smallerFirst,2,1,12,,,,,,,,
,,,,,,,,,,,,,,,745,2022-01-21_22h35.50.529,multiplicationStroop,2021.2.3,Win32,59.93048064,,,,,,,,,,,,,,,,,,,,,,,,,,,,,,,,,6,1.8367,1,0,31,31,11,1,2,×,3,2 × 3,incongruent,smallerFirst,2,1,6,,,,,,,,
,,,,,,,,,,,,,,,745,2022-01-21_22h35.50.529,multiplicationStroop,2021.2.3,Win32,59.93048064,,,,,,,,,,,,,,,,,,,,,,,,,,,,,,,,,36,1.7948,1,0,32,32,32,1,6,×,6,6 × 6,incongruent,tie,1,2,36,,,,,,,,
,,,,,,,,,,,,,,,745,2022-01-21_22h35.50.529,multiplicationStroop,2021.2.3,Win32,59.93048064,,,,,,,,,,,,,,,,,,,,,,,,,,,,,,,,,24,3.0982,1,0,33,33,20,1,6,×,4,6 × 4,incongruent,largerFirst,1,2,24,,,,,,,,
,,,,,,,,,,,,,,,745,2022-01-21_22h35.50.529,multiplicationStroop,2021.2.3,Win32,59.93048064,,,,,,,,,,,,,,,,,,,,,,,,,,,,,,,,,35,4.4182,1,0,34,34,12,1,5,×,7,5 × 7,incongruent,smallerFirst,2,1,35,,,,,,,,
,,,,,,,,,,,,,,,745,2022-01-21_22h35.50.529,multiplicationStroop,2021.2.3,Win32,59.93048064,,,,,,,,,,,,,,,,,,,,,,,,,,,,,,,,,15,2.1003,1,0,35,35,10,1,3,×,5,3 × 5,incongruent,smallerFirst,2,1,15,,,,,,,,
,,,,,,,,,,,,,,,745,2022-01-21_22h35.50.529,multiplicationStroop,2021.2.3,Win32,59.93048064,,,,,,,,,,,,,,,,,,,,,,,,,,,,,,,,,,,,,,,,,,,,,,,,,,0,2,2,5,1,stimulusFile/mult_blk6_INcongruent.xlsx,,
,,,,,,,,,,,,,,,745,2022-01-21_22h35.50.529,multiplicationStroop,2021.2.3,Win32,59.93048064,,,,,,,,,,,,,,,,,,,,,,,,,,,,,,,space,2.0405,45,2.358,1,0,0,0,10,1,5,×,9,5 × 9,neutral,smallerFirst,1.5,1.5,45,,,,,,,,
,,,,,,,,,,,,,,,745,2022-01-21_22h35.50.529,multiplicationStroop,2021.2.3,Win32,59.93048064,,,,,,,,,,,,,,,,,,,,,,,,,,,,,,,,,10,2.6146,1,0,1,1,4,1,2,×,5,2 × 5,neutral,smallerFirst,1.5,1.5,10,,,,,,,,
,,,,,,,,,,,,,,,745,2022-01-21_22h35.50.529,multiplicationStroop,2021.2.3,Win32,59.93048064,,,,,,,,,,,,,,,,,,,,,,,,,,,,,,,,,42,7.3653,1,0,2,2,6,1,6,×,7,6 × 7,neutral,smallerFirst,1.5,1.5,42,,,,,,,,
,,,,,,,,,,,,,,,745,2022-01-21_22h35.50.529,multiplicationStroop,2021.2.3,Win32,59.93048064,,,,,,,,,,,,,,,,,,,,,,,,,,,,,,,,,49,2.1146,1,0,3,3,33,1,7,×,7,7 × 7,neutral,tie,1.5,1.5,49,,,,,,,,
,,,,,,,,,,,,,,,745,2022-01-21_22h35.50.529,multiplicationStroop,2021.2.3,Win32,59.93048064,,,,,,,,,,,,,,,,,,,,,,,,,,,,,,,,,4,1.5653,1,0,4,4,28,1,2,×,2,2 × 2,neutral,tie,1.5,1.5,4,,,,,,,,
,,,,,,,,,,,,,,,745,2022-01-21_22h35.50.529,multiplicationStroop,2021.2.3,Win32,59.93048064,,,,,,,,,,,,,,,,,,,,,,,,,,,,,,,,,36,2.815,1,0,5,5,32,1,6,×,6,6 × 6,neutral,tie,1.5,1.5,36,,,,,,,,
,,,,,,,,,,,,,,,745,2022-01-21_22h35.50.529,multiplicationStroop,2021.2.3,Win32,59.93048064,,,,,,,,,,,,,,,,,,,,,,,,,,,,,,,,,64,6.2497,1,0,6,6,34,1,8,×,8,8 × 8,neutral,tie,1.5,1.5,64,,,,,,,,
,,,,,,,,,,,,,,,745,2022-01-21_22h35.50.529,multiplicationStroop,2021.2.3,Win32,59.93048064,,,,,,,,,,,,,,,,,,,,,,,,,,,,,,,,,16,2.7003,1,0,7,7,30,1,4,×,4,4 × 4,neutral,tie,1.5,1.5,16,,,,,,,,
,,,,,,,,,,,,,,,745,2022-01-21_22h35.50.529,multiplicationStroop,2021.2.3,Win32,59.93048064,,,,,,,,,,,,,,,,,,,,,,,,,,,,,,,,,81,4.6673,1,0,8,8,35,1,9,×,9,9 × 9,neutral,tie,1.5,1.5,81,,,,,,,,
,,,,,,,,,,,,,,,745,2022-01-21_22h35.50.529,multiplicationStroop,2021.2.3,Win32,59.93048064,,,,,,,,,,,,,,,,,,,,,,,,,,,,,,,,,28,2.301,1,0,9,9,17,1,7,×,4,7 × 4,neutral,largerFirst,1.5,1.5,28,,,,,,,,
,,,,,,,,,,,,,,,745,2022-01-21_22h35.50.529,multiplicationStroop,2021.2.3,Win32,59.93048064,,,,,,,,,,,,,,,,,,,,,,,,,,,,,,,,,9,2.082,1,0,10,10,29,1,3,×,3,3 × 3,neutral,tie,1.5,1.5,9,,,,,,,,
,,,,,,,,,,,,,,,745,2022-01-21_22h35.50.529,multiplicationStroop,2021.2.3,Win32,59.93048064,,,,,,,,,,,,,,,,,,,,,,,,,,,,,,,,,54,5.5484,1,0,11,11,7,1,6,×,9,6 × 9,neutral,smallerFirst,1.5,1.5,54,,,,,,,,
,,,,,,,,,,,,,,,745,2022-01-21_22h35.50.529,multiplicationStroop,2021.2.3,Win32,59.93048064,,,,,,,,,,,,,,,,,,,,,,,,,,,,,,,,,48,8.2801,1,0,12,12,15,1,8,×,6,8 × 6,neutral,largerFirst,1.5,1.5,48,,,,,,,,
,,,,,,,,,,,,,,,745,2022-01-21_22h35.50.529,multiplicationStroop,2021.2.3,Win32,59.93048064,,,,,,,,,,,,,,,,,,,,,,,,,,,,,,,,,14,3.067,1,0,13,13,16,1,7,×,2,7 × 2,neutral,largerFirst,1.5,1.5,14,,,,,,,,
,,,,,,,,,,,,,,,745,2022-01-21_22h35.50.529,multiplicationStroop,2021.2.3,Win32,59.93048064,,,,,,,,,,,,,,,,,,,,,,,,,,,,,,,,,8,2.0843,1,0,14,14,3,1,2,×,4,2 × 4,neutral,smallerFirst,1.5,1.5,8,,,,,,,,
,,,,,,,,,,,,,,,745,2022-01-21_22h35.50.529,multiplicationStroop,2021.2.3,Win32,59.93048064,,,,,,,,,,,,,,,,,,,,,,,,,,,,,,,,,16,2.8316,0,0,15,15,22,1,8,×,3,8 × 3,neutral,largerFirst,1.5,1.5,24,,,,,,,,
,,,,,,,,,,,,,,,745,2022-01-21_22h35.50.529,multiplicationStroop,2021.2.3,Win32,59.93048064,,,,,,,,,,,,,,,,,,,,,,,,,,,,,,,,,20,2.0484,1,0,16,16,20,1,5,×,4,5 × 4,neutral,largerFirst,1.5,1.5,20,,,,,,,,
,,,,,,,,,,,,,,,745,2022-01-21_22h35.50.529,multiplicationStroop,2021.2.3,Win32,59.93048064,,,,,,,,,,,,,,,,,,,,,,,,,,,,,,,,,63,3.8147,1,0,17,17,12,1,7,×,9,7 × 9,neutral,smallerFirst,1.5,1.5,63,,,,,,,,
,,,,,,,,,,,,,,,745,2022-01-21_22h35.50.529,multiplicationStroop,2021.2.3,Win32,59.93048064,,,,,,,,,,,,,,,,,,,,,,,,,,,,,,,,,12,2.8304,1,0,18,18,25,1,6,×,2,6 × 2,neutral,largerFirst,1.5,1.5,12,,,,,,,,
,,,,,,,,,,,,,,,745,2022-01-21_22h35.50.529,multiplicationStroop,2021.2.3,Win32,59.93048064,,,,,,,,,,,,,,,,,,,,,,,,,,,,,,,,,32,3.9348,1,0,19,19,23,1,8,×,4,8 × 4,neutral,largerFirst,1.5,1.5,32,,,,,,,,
,,,,,,,,,,,,,,,745,2022-01-21_22h35.50.529,multiplicationStroop,2021.2.3,Win32,59.93048064,,,,,,,,,,,,,,,,,,,,,,,,,,,,,,,,,56,2.1007,1,0,20,20,9,1,7,×,8,7 × 8,neutral,smallerFirst,1.5,1.5,56,,,,,,,,
,,,,,,,,,,,,,,,745,2022-01-21_22h35.50.529,multiplicationStroop,2021.2.3,Win32,59.93048064,,,,,,,,,,,,,,,,,,,,,,,,,,,,,,,,,40,2.5161,1,0,21,21,24,1,8,×,5,8 × 5,neutral,largerFirst,1.5,1.5,40,,,,,,,,
,,,,,,,,,,,,,,,745,2022-01-21_22h35.50.529,multiplicationStroop,2021.2.3,Win32,59.93048064,,,,,,,,,,,,,,,,,,,,,,,,,,,,,,,,,72,6.4484,1,0,22,22,11,1,8,×,9,8 × 9,neutral,smallerFirst,1.5,1.5,72,,,,,,,,
,,,,,,,,,,,,,,,745,2022-01-21_22h35.50.529,multiplicationStroop,2021.2.3,Win32,59.93048064,,,,,,,,,,,,,,,,,,,,,,,,,,,,,,,,,30,1.7999,1,0,23,23,19,1,6,×,5,6 × 5,neutral,largerFirst,1.5,1.5,30,,,,,,,,
,,,,,,,,,,,,,,,745,2022-01-21_22h35.50.529,multiplicationStroop,2021.2.3,Win32,59.93048064,,,,,,,,,,,,,,,,,,,,,,,,,,,,,,,,,24,3.0658,1,0,24,24,2,1,4,×,6,4 × 6,neutral,smallerFirst,1.5,1.5,24,,,,,,,,
,,,,,,,,,,,,,,,745,2022-01-21_22h35.50.529,multiplicationStroop,2021.2.3,Win32,59.93048064,,,,,,,,,,,,,,,,,,,,,,,,,,,,,,,,,18,2.0191,1,0,25,25,18,1,9,×,2,9 × 2,neutral,largerFirst,1.5,1.5,18,,,,,,,,
,,,,,,,,,,,,,,,745,2022-01-21_22h35.50.529,multiplicationStroop,2021.2.3,Win32,59.93048064,,,,,,,,,,,,,,,,,,,,,,,,,,,,,,,,,27,3.3977,1,0,26,26,14,1,9,×,3,9 × 3,neutral,largerFirst,1.5,1.5,27,,,,,,,,
,,,,,,,,,,,,,,,745,2022-01-21_22h35.50.529,multiplicationStroop,2021.2.3,Win32,59.93048064,,,,,,,,,,,,,,,,,,,,,,,,,,,,,,,,,12,1.6149,1,0,27,27,21,1,4,×,3,4 × 3,neutral,largerFirst,1.5,1.5,12,,,,,,,,
,,,,,,,,,,,,,,,745,2022-01-21_22h35.50.529,multiplicationStroop,2021.2.3,Win32,59.93048064,,,,,,,,,,,,,,,,,,,,,,,,,,,,,,,,,16,1.9033,1,0,28,28,13,1,2,×,8,2 × 8,neutral,smallerFirst,1.5,1.5,16,,,,,,,,
,,,,,,,,,,,,,,,745,2022-01-21_22h35.50.529,multiplicationStroop,2021.2.3,Win32,59.93048064,,,,,,,,,,,,,,,,,,,,,,,,,,,,,,,,,15,1.7938,1,0,29,29,5,1,3,×,5,3 × 5,neutral,smallerFirst,1.5,1.5,15,,,,,,,,
,,,,,,,,,,,,,,,745,2022-01-21_22h35.50.529,multiplicationStroop,2021.2.3,Win32,59.93048064,,,,,,,,,,,,,,,,,,,,,,,,,,,,,,,,,18,2.1988,1,0,30,30,0,1,3,×,6,3 × 6,neutral,smallerFirst,1.5,1.5,18,,,,,,,,
,,,,,,,,,,,,,,,745,2022-01-21_22h35.50.529,multiplicationStroop,2021.2.3,Win32,59.93048064,,,,,,,,,,,,,,,,,,,,,,,,,,,,,,,,,45,2.4988,0,0,31,31,1,1,5,×,7,5 × 7,neutral,smallerFirst,1.5,1.5,35,,,,,,,,
,,,,,,,,,,,,,,,745,2022-01-21_22h35.50.529,multiplicationStroop,2021.2.3,Win32,59.93048064,,,,,,,,,,,,,,,,,,,,,,,,,,,,,,,,,36,3.2155,1,0,32,32,27,1,9,×,4,9 × 4,neutral,largerFirst,1.5,1.5,36,,,,,,,,
,,,,,,,,,,,,,,,745,2022-01-21_22h35.50.529,multiplicationStroop,2021.2.3,Win32,59.93048064,,,,,,,,,,,,,,,,,,,,,,,,,,,,,,,,,6,1.851,1,0,33,33,26,1,3,×,2,3 × 2,neutral,largerFirst,1.5,1.5,6,,,,,,,,
,,,,,,,,,,,,,,,745,2022-01-21_22h35.50.529,multiplicationStroop,2021.2.3,Win32,59.93048064,,,,,,,,,,,,,,,,,,,,,,,,,,,,,,,,,25,1.9314,1,0,34,34,31,1,5,×,5,5 × 5,neutral,tie,1.5,1.5,25,,,,,,,,
,,,,,,,,,,,,,,,745,2022-01-21_22h35.50.529,multiplicationStroop,2021.2.3,Win32,59.93048064,,,,,,,,,,,,,,,,,,,,,,,,,,,,,,,,,21,1.9971,1,0,35,35,8,1,3,×,7,3 × 7,neutral,smallerFirst,1.5,1.5,21,,,,,,,,
,,,,,,,,,,,,,,,745,2022-01-21_22h35.50.529,multiplicationStroop,2021.2.3,Win32,59.93048064,,,,,,,,,,,,,,,,,,,,,,,,,,,,,,,,,,,,,,,,,,,,,,,,,,0,3,3,1,1,stimulusFile/mult_blk2.xlsx,,
,,,,,,,,,,,,,,,745,2022-01-21_22h35.50.529,multiplicationStroop,2021.2.3,Win32,59.93048064,,,,,,,,,,,,,,,,,,,,,,,,,,,,,,,space,34.9691,9,2.5526,1,0,0,0,29,1,3,×,3,3 × 3,neutral,tie,2,1,9,,,,,,,,
,,,,,,,,,,,,,,,745,2022-01-21_22h35.50.529,multiplicationStroop,2021.2.3,Win32,59.93048064,,,,,,,,,,,,,,,,,,,,,,,,,,,,,,,,,81,4.4317,1,0,1,1,35,1,9,×,9,9 × 9,neutral,tie,2,1,81,,,,,,,,
,,,,,,,,,,,,,,,745,2022-01-21_22h35.50.529,multiplicationStroop,2021.2.3,Win32,59.93048064,,,,,,,,,,,,,,,,,,,,,,,,,,,,,,,,,42,2.4018,1,0,2,2,3,1,6,×,7,6 × 7,incongruent,smallerFirst,2,1,42,,,,,,,,
,,,,,,,,,,,,,,,745,2022-01-21_22h35.50.529,multiplicationStroop,2021.2.3,Win32,59.93048064,,,,,,,,,,,,,,,,,,,,,,,,,,,,,,,,,18,2.2973,1,0,3,3,22,1,6,×,3,6 × 3,incongruent,largerFirst,1,2,18,,,,,,,,
,,,,,,,,,,,,,,,745,2022-01-21_22h35.50.529,multiplicationStroop,2021.2.3,Win32,59.93048064,,,,,,,,,,,,,,,,,,,,,,,,,,,,,,,,,16,3.2483,1,0,4,4,30,1,4,×,4,4 × 4,neutral,tie,2,1,16,,,,,,,,
,,,,,,,,,,,,,,,745,2022-01-21_22h35.50.529,multiplicationStroop,2021.2.3,Win32,59.93048064,,,,,,,,,,,,,,,,,,,,,,,,,,,,,,,,,24,5.4166,1,0,5,5,23,1,8,×,3,8 × 3,incongruent,largerFirst,1,2,24,,,,,,,,
,,,,,,,,,,,,,,,745,2022-01-21_22h35.50.529,multiplicationStroop,2021.2.3,Win32,59.93048064,,,,,,,,,,,,,,,,,,,,,,,,,,,,,,,,,8,2.0004,1,0,6,6,10,1,2,×,4,2 × 4,incongruent,smallerFirst,2,1,8,,,,,,,,
,,,,,,,,,,,,,,,745,2022-01-21_22h35.50.529,multiplicationStroop,2021.2.3,Win32,59.93048064,,,,,,,,,,,,,,,,,,,,,,,,,,,,,,,,,36,4.2162,1,0,7,7,1,1,4,×,9,4 × 9,incongruent,smallerFirst,2,1,36,,,,,,,,
,,,,,,,,,,,,,,,745,2022-01-21_22h35.50.529,multiplicationStroop,2021.2.3,Win32,59.93048064,,,,,,,,,,,,,,,,,,,,,,,,,,,,,,,,,64,3.1335,1,0,8,8,34,1,8,×,8,8 × 8,neutral,tie,2,1,64,,,,,,,,
,,,,,,,,,,,,,,,745,2022-01-21_22h35.50.529,multiplicationStroop,2021.2.3,Win32,59.93048064,,,,,,,,,,,,,,,,,,,,,,,,,,,,,,,,,10,1.9478,1,0,9,9,7,1,2,×,5,2 × 5,incongruent,smallerFirst,2,1,10,,,,,,,,
,,,,,,,,,,,,,,,745,2022-01-21_22h35.50.529,multiplicationStroop,2021.2.3,Win32,59.93048064,,,,,,,,,,,,,,,,,,,,,,,,,,,,,,,,,30,2.1326,1,0,10,10,11,1,5,×,6,5 × 6,incongruent,smallerFirst,2,1,30,,,,,,,,
,,,,,,,,,,,,,,,745,2022-01-21_22h35.50.529,multiplicationStroop,2021.2.3,Win32,59.93048064,,,,,,,,,,,,,,,,,,,,,,,,,,,,,,,,,56,2.7827,1,0,11,11,0,1,7,×,8,7 × 8,incongruent,smallerFirst,2,1,56,,,,,,,,
,,,,,,,,,,,,,,,745,2022-01-21_22h35.50.529,multiplicationStroop,2021.2.3,Win32,59.93048064,,,,,,,,,,,,,,,,,,,,,,,,,,,,,,,,,15,1.9314,1,0,12,12,24,1,5,×,3,5 × 3,incongruent,largerFirst,1,2,15,,,,,,,,
,,,,,,,,,,,,,,,745,2022-01-21_22h35.50.529,multiplicationStroop,2021.2.3,Win32,59.93048064,,,,,,,,,,,,,,,,,,,,,,,,,,,,,,,,,72,5.0482,1,0,13,13,14,1,9,×,8,9 × 8,incongruent,largerFirst,1,2,72,,,,,,,,
,,,,,,,,,,,,,,,745,2022-01-21_22h35.50.529,multiplicationStroop,2021.2.3,Win32,59.93048064,,,,,,,,,,,,,,,,,,,,,,,,,,,,,,,,,25,2.333,1,0,14,14,31,1,5,×,5,5 × 5,neutral,tie,2,1,25,,,,,,,,
,,,,,,,,,,,,,,,745,2022-01-21_22h35.50.529,multiplicationStroop,2021.2.3,Win32,59.93048064,,,,,,,,,,,,,,,,,,,,,,,,,,,,,,,,,14,2.1158,1,0,15,15,18,1,7,×,2,7 × 2,incongruent,largerFirst,1,2,14,,,,,,,,
,,,,,,,,,,,,,,,745,2022-01-21_22h35.50.529,multiplicationStroop,2021.2.3,Win32,59.93048064,,,,,,,,,,,,,,,,,,,,,,,,,,,,,,,,,6,1.7339,1,0,16,16,25,1,3,×,2,3 × 2,incongruent,largerFirst,1,2,6,,,,,,,,
,,,,,,,,,,,,,,,745,2022-01-21_22h35.50.529,multiplicationStroop,2021.2.3,Win32,59.93048064,,,,,,,,,,,,,,,,,,,,,,,,,,,,,,,,,32,2.7479,1,0,17,17,21,1,8,×,4,8 × 4,incongruent,largerFirst,1,2,32,,,,,,,,
,,,,,,,,,,,,,,,745,2022-01-21_22h35.50.529,multiplicationStroop,2021.2.3,Win32,59.93048064,,,,,,,,,,,,,,,,,,,,,,,,,,,,,,,,,12,1.666,1,0,18,18,19,1,4,×,3,4 × 3,incongruent,largerFirst,1,2,12,,,,,,,,
,,,,,,,,,,,,,,,745,2022-01-21_22h35.50.529,multiplicationStroop,2021.2.3,Win32,59.93048064,,,,,,,,,,,,,,,,,,,,,,,,,,,,,,,,,35,2.4988,1,0,19,19,26,1,7,×,5,7 × 5,incongruent,largerFirst,1,2,35,,,,,,,,
,,,,,,,,,,,,,,,745,2022-01-21_22h35.50.529,multiplicationStroop,2021.2.3,Win32,59.93048064,,,,,,,,,,,,,,,,,,,,,,,,,,,,,,,,,28,3.0539,1,0,20,20,2,1,4,×,7,4 × 7,incongruent,smallerFirst,2,1,28,,,,,,,,
,,,,,,,,,,,,,,,745,2022-01-21_22h35.50.529,multiplicationStroop,2021.2.3,Win32,59.93048064,,,,,,,,,,,,,,,,,,,,,,,,,,,,,,,,,49,3.5272,1,0,21,21,33,1,7,×,7,7 × 7,neutral,tie,2,1,49,,,,,,,,
,,,,,,,,,,,,,,,745,2022-01-21_22h35.50.529,multiplicationStroop,2021.2.3,Win32,59.93048064,,,,,,,,,,,,,,,,,,,,,,,,,,,,,,,,,45,2.9348,1,0,22,22,8,1,5,×,9,5 × 9,incongruent,smallerFirst,2,1,45,,,,,,,,
,,,,,,,,,,,,,,,745,2022-01-21_22h35.50.529,multiplicationStroop,2021.2.3,Win32,59.93048064,,,,,,,,,,,,,,,,,,,,,,,,,,,,,,,,,21,3.3994,1,0,23,23,12,1,3,×,7,3 × 7,incongruent,smallerFirst,2,1,21,,,,,,,,
,,,,,,,,,,,,,,,745,2022-01-21_22h35.50.529,multiplicationStroop,2021.2.3,Win32,59.93048064,,,,,,,,,,,,,,,,,,,,,,,,,,,,,,,,,24,15.2492,1,0,24,24,6,1,4,×,6,4 × 6,incongruent,smallerFirst,2,1,24,,,,,,,,
,,,,,,,,,,,,,,,745,2022-01-21_22h35.50.529,multiplicationStroop,2021.2.3,Win32,59.93048064,,,,,,,,,,,,,,,,,,,,,,,,,,,,,,,,,40,2.0644,1,0,25,25,27,1,8,×,5,8 × 5,incongruent,largerFirst,1,2,40,,,,,,,,
,,,,,,,,,,,,,,,745,2022-01-21_22h35.50.529,multiplicationStroop,2021.2.3,Win32,59.93048064,,,,,,,,,,,,,,,,,,,,,,,,,,,,,,,,,36,3.2316,1,0,26,26,32,1,6,×,6,6 × 6,neutral,tie,2,1,36,,,,,,,,
,,,,,,,,,,,,,,,745,2022-01-21_22h35.50.529,multiplicationStroop,2021.2.3,Win32,59.93048064,,,,,,,,,,,,,,,,,,,,,,,,,,,,,,,,,48,5.7643,1,0,27,27,15,1,8,×,6,8 × 6,incongruent,largerFirst,1,2,48,,,,,,,,
,,,,,,,,,,,,,,,745,2022-01-21_22h35.50.529,multiplicationStroop,2021.2.3,Win32,59.93048064,,,,,,,,,,,,,,,,,,,,,,,,,,,,,,,,,16,3.2178,1,0,28,28,9,1,2,×,8,2 × 8,incongruent,smallerFirst,2,1,16,,,,,,,,
,,,,,,,,,,,,,,,745,2022-01-21_22h35.50.529,multiplicationStroop,2021.2.3,Win32,59.93048064,,,,,,,,,,,,,,,,,,,,,,,,,,,,,,,,,63,5.7331,1,0,29,29,17,1,9,×,7,9 × 7,incongruent,largerFirst,1,2,63,,,,,,,,
,,,,,,,,,,,,,,,745,2022-01-21_22h35.50.529,multiplicationStroop,2021.2.3,Win32,59.93048064,,,,,,,,,,,,,,,,,,,,,,,,,,,,,,,,,12,2.3348,1,0,30,30,5,1,2,×,6,2 × 6,incongruent,smallerFirst,2,1,12,,,,,,,,
,,,,,,,,,,,,,,,745,2022-01-21_22h35.50.529,multiplicationStroop,2021.2.3,Win32,59.93048064,,,,,,,,,,,,,,,,,,,,,,,,,,,,,,,,,20,5.0655,1,0,31,31,13,1,4,×,5,4 × 5,incongruent,smallerFirst,2,1,20,,,,,,,,
,,,,,,,,,,,,,,,745,2022-01-21_22h35.50.529,multiplicationStroop,2021.2.3,Win32,59.93048064,,,,,,,,,,,,,,,,,,,,,,,,,,,,,,,,,4,1.5334,1,0,32,32,28,1,2,×,2,2 × 2,neutral,tie,2,1,4,,,,,,,,
,,,,,,,,,,,,,,,745,2022-01-21_22h35.50.529,multiplicationStroop,2021.2.3,Win32,59.93048064,,,,,,,,,,,,,,,,,,,,,,,,,,,,,,,,,18,2.232,1,0,33,33,16,1,9,×,2,9 × 2,incongruent,largerFirst,1,2,18,,,,,,,,
,,,,,,,,,,,,,,,745,2022-01-21_22h35.50.529,multiplicationStroop,2021.2.3,Win32,59.93048064,,,,,,,,,,,,,,,,,,,,,,,,,,,,,,,,,54,5.2984,1,0,34,34,20,1,9,×,6,9 × 6,incongruent,largerFirst,1,2,54,,,,,,,,
,,,,,,,,,,,,,,,745,2022-01-21_22h35.50.529,multiplicationStroop,2021.2.3,Win32,59.93048064,,,,,,,,,,,,,,,,,,,,,,,,,,,,,,,,,27,2.8675,1,0,35,35,4,1,3,×,9,3 × 9,incongruent,smallerFirst,2,1,27,,,,,,,,
,,,,,,,,,,,,,,,745,2022-01-21_22h35.50.529,multiplicationStroop,2021.2.3,Win32,59.93048064,,,,,,,,,,,,,,,,,,,,,,,,,,,,,,,,,,,,,,,,,,,,,,,,,,0,4,4,4,1,stimulusFile/mult_blk5_INcongruent.xlsx,,
,,,,,,,,,,,,,,,745,2022-01-21_22h35.50.529,multiplicationStroop,2021.2.3,Win32,59.93048064,,,,,,,,,,,,,,,,,,,,,,,,,,,,,,,space,2.0261,12,1.9126,1,0,0,0,19,1,6,×,2,6 × 2,congruent,largerFirst,2,1,12,,,,,,,,
,,,,,,,,,,,,,,,745,2022-01-21_22h35.50.529,multiplicationStroop,2021.2.3,Win32,59.93048064,,,,,,,,,,,,,,,,,,,,,,,,,,,,,,,,,16,2.433,1,0,1,1,5,1,2,×,8,2 × 8,congruent,smallerFirst,1,2,16,,,,,,,,
,,,,,,,,,,,,,,,745,2022-01-21_22h35.50.529,multiplicationStroop,2021.2.3,Win32,59.93048064,,,,,,,,,,,,,,,,,,,,,,,,,,,,,,,,,10,1.6827,1,0,2,2,24,1,5,×,2,5 × 2,congruent,largerFirst,2,1,10,,,,,,,,
,,,,,,,,,,,,,,,745,2022-01-21_22h35.50.529,multiplicationStroop,2021.2.3,Win32,59.93048064,,,,,,,,,,,,,,,,,,,,,,,,,,,,,,,,,56,2.316,1,0,3,3,8,1,7,×,8,7 × 8,congruent,smallerFirst,1,2,56,,,,,,,,
,,,,,,,,,,,,,,,745,2022-01-21_22h35.50.529,multiplicationStroop,2021.2.3,Win32,59.93048064,,,,,,,,,,,,,,,,,,,,,,,,,,,,,,,,,25,2.0167,1,0,4,4,31,1,5,×,5,5 × 5,neutral,tie,2,1,25,,,,,,,,
,,,,,,,,,,,,,,,745,2022-01-21_22h35.50.529,multiplicationStroop,2021.2.3,Win32,59.93048064,,,,,,,,,,,,,,,,,,,,,,,,,,,,,,,,,54,4.9483,1,0,5,5,12,1,6,×,9,6 × 9,congruent,smallerFirst,1,2,54,,,,,,,,
,,,,,,,,,,,,,,,745,2022-01-21_22h35.50.529,multiplicationStroop,2021.2.3,Win32,59.93048064,,,,,,,,,,,,,,,,,,,,,,,,,,,,,,,,,21,2.4179,1,0,6,6,16,1,7,×,3,7 × 3,congruent,largerFirst,2,1,21,,,,,,,,
,,,,,,,,,,,,,,,745,2022-01-21_22h35.50.529,multiplicationStroop,2021.2.3,Win32,59.93048064,,,,,,,,,,,,,,,,,,,,,,,,,,,,,,,,,4,1.3825,1,0,7,7,28,1,2,×,2,2 × 2,neutral,tie,2,1,4,,,,,,,,
,,,,,,,,,,,,,,,745,2022-01-21_22h35.50.529,multiplicationStroop,2021.2.3,Win32,59.93048064,,,,,,,,,,,,,,,,,,,,,,,,,,,,,,,,,9,1.5994,1,0,8,8,29,1,3,×,3,3 × 3,neutral,tie,2,1,9,,,,,,,,
,,,,,,,,,,,,,,,745,2022-01-21_22h35.50.529,multiplicationStroop,2021.2.3,Win32,59.93048064,,,,,,,,,,,,,,,,,,,,,,,,,,,,,,,,,28,2.5661,1,0,9,9,27,1,7,×,4,7 × 4,congruent,largerFirst,2,1,28,,,,,,,,
,,,,,,,,,,,,,,,745,2022-01-21_22h35.50.529,multiplicationStroop,2021.2.3,Win32,59.93048064,,,,,,,,,,,,,,,,,,,,,,,,,,,,,,,,,45,1.7496,1,0,10,10,23,1,9,×,5,9 × 5,congruent,largerFirst,2,1,45,,,,,,,,
,,,,,,,,,,,,,,,745,2022-01-21_22h35.50.529,multiplicationStroop,2021.2.3,Win32,59.93048064,,,,,,,,,,,,,,,,,,,,,,,,,,,,,,,,,72,5.1661,1,0,11,11,17,1,9,×,8,9 × 8,congruent,largerFirst,2,1,72,,,,,,,,
,,,,,,,,,,,,,,,745,2022-01-21_22h35.50.529,multiplicationStroop,2021.2.3,Win32,59.93048064,,,,,,,,,,,,,,,,,,,,,,,,,,,,,,,,,18,3.3186,1,0,12,12,22,1,9,×,2,9 × 2,congruent,largerFirst,2,1,18,,,,,,,,
,,,,,,,,,,,,,,,745,2022-01-21_22h35.50.529,multiplicationStroop,2021.2.3,Win32,59.93048064,,,,,,,,,,,,,,,,,,,,,,,,,,,,,,,,,18,2.5183,1,0,13,13,11,1,3,×,6,3 × 6,congruent,smallerFirst,1,2,18,,,,,,,,
,,,,,,,,,,,,,,,745,2022-01-21_22h35.50.529,multiplicationStroop,2021.2.3,Win32,59.93048064,,,,,,,,,,,,,,,,,,,,,,,,,,,,,,,,,20,3.3495,1,0,14,14,7,1,4,×,5,4 × 5,congruent,smallerFirst,1,2,20,,,,,,,,
,,,,,,,,,,,,,,,745,2022-01-21_22h35.50.529,multiplicationStroop,2021.2.3,Win32,59.93048064,,,,,,,,,,,,,,,,,,,,,,,,,,,,,,,,,81,2.668,1,0,15,15,35,1,9,×,9,9 × 9,neutral,tie,2,1,81,,,,,,,,
,,,,,,,,,,,,,,,745,2022-01-21_22h35.50.529,multiplicationStroop,2021.2.3,Win32,59.93048064,,,,,,,,,,,,,,,,,,,,,,,,,,,,,,,,,24,2.7823,1,0,16,16,25,1,6,×,4,6 × 4,congruent,largerFirst,2,1,24,,,,,,,,
,,,,,,,,,,,,,,,745,2022-01-21_22h35.50.529,multiplicationStroop,2021.2.3,Win32,59.93048064,,,,,,,,,,,,,,,,,,,,,,,,,,,,,,,,,35,2.3513,1,0,17,17,1,1,5,×,7,5 × 7,congruent,smallerFirst,1,2,35,,,,,,,,
,,,,,,,,,,,,,,,745,2022-01-21_22h35.50.529,multiplicationStroop,2021.2.3,Win32,59.93048064,,,,,,,,,,,,,,,,,,,,,,,,,,,,,,,,,15,2.3329,1,0,18,18,4,1,3,×,5,3 × 5,congruent,smallerFirst,1,2,15,,,,,,,,
,,,,,,,,,,,,,,,745,2022-01-21_22h35.50.529,multiplicationStroop,2021.2.3,Win32,59.93048064,,,,,,,,,,,,,,,,,,,,,,,,,,,,,,,,,40,2.1994,1,0,19,19,6,1,5,×,8,5 × 8,congruent,smallerFirst,1,2,40,,,,,,,,
,,,,,,,,,,,,,,,745,2022-01-21_22h35.50.529,multiplicationStroop,2021.2.3,Win32,59.93048064,,,,,,,,,,,,,,,,,,,,,,,,,,,,,,,,,64,4.8656,1,0,20,20,34,1,8,×,8,8 × 8,neutral,tie,2,1,64,,,,,,,,
,,,,,,,,,,,,,,,745,2022-01-21_22h35.50.529,multiplicationStroop,2021.2.3,Win32,59.93048064,,,,,,,,,,,,,,,,,,,,,,,,,,,,,,,,,27,2.5348,1,0,21,21,26,1,9,×,3,9 × 3,congruent,largerFirst,2,1,27,,,,,,,,
,,,,,,,,,,,,,,,745,2022-01-21_22h35.50.529,multiplicationStroop,2021.2.3,Win32,59.93048064,,,,,,,,,,,,,,,,,,,,,,,,,,,,,,,,,63,5.7814,1,0,22,22,21,1,9,×,7,9 × 7,congruent,largerFirst,2,1,63,,,,,,,,
,,,,,,,,,,,,,,,745,2022-01-21_22h35.50.529,multiplicationStroop,2021.2.3,Win32,59.93048064,,,,,,,,,,,,,,,,,,,,,,,,,,,,,,,,,30,3.6731,1,0,23,23,15,1,6,×,5,6 × 5,congruent,largerFirst,2,1,30,,,,,,,,
,,,,,,,,,,,,,,,745,2022-01-21_22h35.50.529,multiplicationStroop,2021.2.3,Win32,59.93048064,,,,,,,,,,,,,,,,,,,,,,,,,,,,,,,,,42,4.4972,1,0,24,24,3,1,6,×,7,6 × 7,congruent,smallerFirst,1,2,42,,,,,,,,
,,,,,,,,,,,,,,,745,2022-01-21_22h35.50.529,multiplicationStroop,2021.2.3,Win32,59.93048064,,,,,,,,,,,,,,,,,,,,,,,,,,,,,,,,,36,5.0837,1,0,25,25,0,1,4,×,9,4 × 9,congruent,smallerFirst,1,2,36,,,,,,,,
,,,,,,,,,,,,,,,745,2022-01-21_22h35.50.529,multiplicationStroop,2021.2.3,Win32,59.93048064,,,,,,,,,,,,,,,,,,,,,,,,,,,,,,,,,48,10.4976,1,0,26,26,18,1,8,×,6,8 × 6,congruent,largerFirst,2,1,48,,,,,,,,
,,,,,,,,,,,,,,,745,2022-01-21_22h35.50.529,multiplicationStroop,2021.2.3,Win32,59.93048064,,,,,,,,,,,,,,,,,,,,,,,,,,,,,,,,,12,1.7169,0,0,27,27,30,1,4,×,4,4 × 4,neutral,tie,2,1,16,,,,,,,,
,,,,,,,,,,,,,,,745,2022-01-21_22h35.50.529,multiplicationStroop,2021.2.3,Win32,59.93048064,,,,,,,,,,,,,,,,,,,,,,,,,,,,,,,,,14,1.5656,1,0,28,28,14,1,7,×,2,7 × 2,congruent,largerFirst,2,1,14,,,,,,,,
,,,,,,,,,,,,,,,745,2022-01-21_22h35.50.529,multiplicationStroop,2021.2.3,Win32,59.93048064,,,,,,,,,,,,,,,,,,,,,,,,,,,,,,,,,49,2.1016,1,0,29,29,33,1,7,×,7,7 × 7,neutral,tie,2,1,49,,,,,,,,
,,,,,,,,,,,,,,,745,2022-01-21_22h35.50.529,multiplicationStroop,2021.2.3,Win32,59.93048064,,,,,,,,,,,,,,,,,,,,,,,,,,,,,,,,,36,2.6623,1,0,30,30,32,1,6,×,6,6 × 6,neutral,tie,2,1,36,,,,,,,,
,,,,,,,,,,,,,,,745,2022-01-21_22h35.50.529,multiplicationStroop,2021.2.3,Win32,59.93048064,,,,,,,,,,,,,,,,,,,,,,,,,,,,,,,,,24,2.7683,1,0,31,31,10,1,3,×,8,3 × 8,congruent,smallerFirst,1,2,24,,,,,,,,
,,,,,,,,,,,,,,,745,2022-01-21_22h35.50.529,multiplicationStroop,2021.2.3,Win32,59.93048064,,,,,,,,,,,,,,,,,,,,,,,,,,,,,,,,,6,1.7984,1,0,32,32,13,1,2,×,3,2 × 3,congruent,smallerFirst,1,2,6,,,,,,,,
,,,,,,,,,,,,,,,745,2022-01-21_22h35.50.529,multiplicationStroop,2021.2.3,Win32,59.93048064,,,,,,,,,,,,,,,,,,,,,,,,,,,,,,,,,12,1.9326,1,0,33,33,2,1,3,×,4,3 × 4,congruent,smallerFirst,1,2,12,,,,,,,,
,,,,,,,,,,,,,,,745,2022-01-21_22h35.50.529,multiplicationStroop,2021.2.3,Win32,59.93048064,,,,,,,,,,,,,,,,,,,,,,,,,,,,,,,,,32,3.3483,1,0,34,34,20,1,8,×,4,8 × 4,congruent,largerFirst,2,1,32,,,,,,,,
,,,,,,,,,,,,,,,745,2022-01-21_22h35.50.529,multiplicationStroop,2021.2.3,Win32,59.93048064,,,,,,,,,,,,,,,,,,,,,,,,,,,,,,,,,8,1.6986,1,0,35,35,9,1,2,×,4,2 × 4,congruent,smallerFirst,1,2,8,,,,,,,,
,,,,,,,,,,,,,,,745,2022-01-21_22h35.50.529,multiplicationStroop,2021.2.3,Win32,59.93048064,,,,,,,,,,,,,,,,,,,,,,,,,,,,,,,,,,,,,,,,,,,,,,,,,,0,5,5,2,1,stimulusFile/mult_blk3_congruent.xlsx,,
,,,,,,,,,,,,,,,745,2022-01-21_22h35.50.529,multiplicationStroop,2021.2.3,Win32,59.93048064,,,,,,,,,,,,,,,,,,,,,,,,,,,,,,,,,,,,,,,,,,,,,,,,,,,,,,,,space,6.5682