welcomeKey_resp.keys,welcomeKey_resp.rt,X Scale,Y Scale,rt_resp_4.keys,rt_resp_4.corr,rt_resp_4.rt,speedtest_2.thisRepN,speedtest_2.thisTrialN,speedtest_2.thisN,speedtest_2.thisIndex,speedtest_2.ran,numberSc,posX,positionLayout,participant,date,expName,psychopyVersion,OS,frameRate,ct_instrresp.keys,ct_instrresp.rt,key_resp_2.keys,key_resp_2.rt,ct_keyResp.keys,ct_keyResp.corr,ct_keyResp.rt,trials.thisRepN,trials.thisTrialN,trials.thisN,trials.thisIndex,trials.ran,leftNo,rightNo,displayProblem,numDistance,leftNo_size,rightNo_size,Dims,keyAnswer,TS_Loop.thisRepN,TS_Loop.thisTrialN,TS_Loop.thisN,TS_Loop.thisIndex,TS_Loop.ran,Condition,ActionInst,instrImage,mltptaskInst_resp.keys,mltptaskInst_resp.rt,continue_resp_2.keys,continue_resp_2.rt,multp_Answer,multi_RT,multiplyCorr,LoopingMultiply.thisRepN,LoopingMultiply.thisTrialN,LoopingMultiply.thisN,LoopingMultiply.thisIndex,LoopingMultiply.ran,factor1,multiplySign,factor2,multliplyProblem,physicalSize,orderOperand,sizeF1,sizeF2,mult_answer,trials_stroop.thisRepN,trials_stroop.thisTrialN,trials_stroop.thisN,trials_stroop.thisIndex,trials_stroop.ran,multiplicationFile,esckey_resp_2.keys,esckey_resp_2.rt
y,13.7063,45,45.2,left,1,0.7109,0,0,0,2,1,3,-200,left,746,2022-01-20_18h36.41.111,multiplicationStroop,2021.2.3,Win32,59.94485074,,,,,,,,,,,,,,,,,,,,,,,,,,,,,,,,,,,,,,,,,,,,,,,,,,,,,,,,,
,,,,left,1,1.3818,0,1,1,3,1,4,-200,left,746,2022-01-20_18h36.41.111,multiplicationStroop,2021.2.3,Win32,59.94485074,,,,,,,,,,,,,,,,,,,,,,,,,,,,,,,,,,,,,,,,,,,,,,,,,,,,,,,,,
,,,,left,1,0.4611,0,2,2,7,1,9,-200,left,746,2022-01-20_18h36.41.111,multiplicationStroop,2021.2.3,Win32,59.94485074,,,,,,,,,,,,,,,,,,,,,,,,,,,,,,,,,,,,,,,,,,,,,,,,,,,,,,,,,
,,,,left,1,0.2708,0,3,3,6,1,8,-200,left,746,2022-01-20_18h36.41.111,multiplicationStroop,2021.2.3,Win32,59.94485074,,,,,,,,,,,,,,,,,,,,,,,,,,,,,,,,,,,,,,,,,,,,,,,,,,,,,,,,,
,,,,left,1,0.2328,0,4,4,0,1,1,-200,left,746,2022-01-20_18h36.41.111,multiplicationStroop,2021.2.3,Win32,59.94485074,,,,,,,,,,,,,,,,,,,,,,,,,,,,,,,,,,,,,,,,,,,,,,,,,,,,,,,,,
,,,,right,1,0.3976,0,5,5,8,1,1,200,right,746,2022-01-20_18h36.41.111,multiplicationStroop,2021.2.3,Win32,59.94485074,,,,,,,,,,,,,,,,,,,,,,,,,,,,,,,,,,,,,,,,,,,,,,,,,,,,,,,,,
,,,,left,1,0.2764,0,6,6,5,1,7,-200,left,746,2022-01-20_18h36.41.111,multiplicationStroop,2021.2.3,Win32,59.94485074,,,,,,,,,,,,,,,,,,,,,,,,,,,,,,,,,,,,,,,,,,,,,,,,,,,,,,,,,
,,,,left,1,0.2932,0,7,7,1,1,2,-200,left,746,2022-01-20_18h36.41.111,multiplicationStroop,2021.2.3,Win32,59.94485074,,,,,,,,,,,,,,,,,,,,,,,,,,,,,,,,,,,,,,,,,,,,,,,,,,,,,,,,,
,,,,right,1,0.2953,0,8,8,14,1,8,200,right,746,2022-01-20_18h36.41.111,multiplicationStroop,2021.2.3,Win32,59.94485074,,,,,,,,,,,,,,,,,,,,,,,,,,,,,,,,,,,,,,,,,,,,,,,,,,,,,,,,,
,,,,right,1,0.336,0,9,9,11,1,4,200,right,746,2022-01-20_18h36.41.111,multiplicationStroop,2021.2.3,Win32,59.94485074,,,,,,,,,,,,,,,,,,,,,,,,,,,,,,,,,,,,,,,,,,,,,,,,,,,,,,,,,
,,,,right,1,0.2325,0,10,10,9,1,2,200,right,746,2022-01-20_18h36.41.111,multiplicationStroop,2021.2.3,Win32,59.94485074,,,,,,,,,,,,,,,,,,,,,,,,,,,,,,,,,,,,,,,,,,,,,,,,,,,,,,,,,
,,,,right,0,0.0675,0,11,11,4,1,6,-200,left,746,2022-01-20_18h36.41.111,multiplicationStroop,2021.2.3,Win32,59.94485074,,,,,,,,,,,,,,,,,,,,,,,,,,,,,,,,,,,,,,,,,,,,,,,,,,,,,,,,,
,,,,right,1,0.5505,0,12,12,15,1,9,200,right,746,2022-01-20_18h36.41.111,multiplicationStroop,2021.2.3,Win32,59.94485074,,,,,,,,,,,,,,,,,,,,,,,,,,,,,,,,,,,,,,,,,,,,,,,,,,,,,,,,,
,,,,right,1,0.3611,0,13,13,12,1,6,200,right,746,2022-01-20_18h36.41.111,multiplicationStroop,2021.2.3,Win32,59.94485074,,,,,,,,,,,,,,,,,,,,,,,,,,,,,,,,,,,,,,,,,,,,,,,,,,,,,,,,,
,,,,right,1,0.3432,0,14,14,10,1,3,200,right,746,2022-01-20_18h36.41.111,multiplicationStroop,2021.2.3,Win32,59.94485074,,,,,,,,,,,,,,,,,,,,,,,,,,,,,,,,,,,,,,,,,,,,,,,,,,,,,,,,,
,,,,right,1,0.2772,0,15,15,13,1,7,200,right,746,2022-01-20_18h36.41.111,multiplicationStroop,2021.2.3,Win32,59.94485074,,,,,,,,,,,,,,,,,,,,,,,,,,,,,,,,,,,,,,,,,,,,,,,,,,,,,,,,,
,,,,left,1,0.4063,1,0,16,2,1,3,-200,left,746,2022-01-20_18h36.41.111,multiplicationStroop,2021.2.3,Win32,59.94485074,,,,,,,,,,,,,,,,,,,,,,,,,,,,,,,,,,,,,,,,,,,,,,,,,,,,,,,,,
,,,,right,1,0.3397,1,1,17,14,1,8,200,right,746,2022-01-20_18h36.41.111,multiplicationStroop,2021.2.3,Win32,59.94485074,,,,,,,,,,,,,,,,,,,,,,,,,,,,,,,,,,,,,,,,,,,,,,,,,,,,,,,,,
,,,,right,1,0.3558,1,2,18,11,1,4,200,right,746,2022-01-20_18h36.41.111,multiplicationStroop,2021.2.3,Win32,59.94485074,,,,,,,,,,,,,,,,,,,,,,,,,,,,,,,,,,,,,,,,,,,,,,,,,,,,,,,,,
,,,,left,1,0.4187,1,3,19,4,1,6,-200,left,746,2022-01-20_18h36.41.111,multiplicationStroop,2021.2.3,Win32,59.94485074,,,,,,,,,,,,,,,,,,,,,,,,,,,,,,,,,,,,,,,,,,,,,,,,,,,,,,,,,
,,,,left,1,0.4956,1,4,20,3,1,4,-200,left,746,2022-01-20_18h36.41.111,multiplicationStroop,2021.2.3,Win32,59.94485074,,,,,,,,,,,,,,,,,,,,,,,,,,,,,,,,,,,,,,,,,,,,,,,,,,,,,,,,,
,,,,left,1,0.3213,1,5,21,6,1,8,-200,left,746,2022-01-20_18h36.41.111,multiplicationStroop,2021.2.3,Win32,59.94485074,,,,,,,,,,,,,,,,,,,,,,,,,,,,,,,,,,,,,,,,,,,,,,,,,,,,,,,,,
,,,,left,1,0.7379,1,6,22,5,1,7,-200,left,746,2022-01-20_18h36.41.111,multiplicationStroop,2021.2.3,Win32,59.94485074,,,,,,,,,,,,,,,,,,,,,,,,,,,,,,,,,,,,,,,,,,,,,,,,,,,,,,,,,
,,,,right,1,0.3779,1,7,23,12,1,6,200,right,746,2022-01-20_18h36.41.111,multiplicationStroop,2021.2.3,Win32,59.94485074,,,,,,,,,,,,,,,,,,,,,,,,,,,,,,,,,,,,,,,,,,,,,,,,,,,,,,,,,
,,,,left,1,0.312,1,8,24,1,1,2,-200,left,746,2022-01-20_18h36.41.111,multiplicationStroop,2021.2.3,Win32,59.94485074,,,,,,,,,,,,,,,,,,,,,,,,,,,,,,,,,,,,,,,,,,,,,,,,,,,,,,,,,
,,,,right,1,0.2796,1,9,25,9,1,2,200,right,746,2022-01-20_18h36.41.111,multiplicationStroop,2021.2.3,Win32,59.94485074,,,,,,,,,,,,,,,,,,,,,,,,,,,,,,,,,,,,,,,,,,,,,,,,,,,,,,,,,
,,,,left,1,0.3471,1,10,26,7,1,9,-200,left,746,2022-01-20_18h36.41.111,multiplicationStroop,2021.2.3,Win32,59.94485074,,,,,,,,,,,,,,,,,,,,,,,,,,,,,,,,,,,,,,,,,,,,,,,,,,,,,,,,,
,,,,right,1,0.2987,1,11,27,8,1,1,200,right,746,2022-01-20_18h36.41.111,multiplicationStroop,2021.2.3,Win32,59.94485074,,,,,,,,,,,,,,,,,,,,,,,,,,,,,,,,,,,,,,,,,,,,,,,,,,,,,,,,,
,,,,left,1,0.3561,1,12,28,0,1,1,-200,left,746,2022-01-20_18h36.41.111,multiplicationStroop,2021.2.3,Win32,59.94485074,,,,,,,,,,,,,,,,,,,,,,,,,,,,,,,,,,,,,,,,,,,,,,,,,,,,,,,,,
,,,,right,1,0.3152,1,13,29,13,1,7,200,right,746,2022-01-20_18h36.41.111,multiplicationStroop,2021.2.3,Win32,59.94485074,,,,,,,,,,,,,,,,,,,,,,,,,,,,,,,,,,,,,,,,,,,,,,,,,,,,,,,,,
,,,,right,1,0.3882,1,14,30,10,1,3,200,right,746,2022-01-20_18h36.41.111,multiplicationStroop,2021.2.3,Win32,59.94485074,,,,,,,,,,,,,,,,,,,,,,,,,,,,,,,,,,,,,,,,,,,,,,,,,,,,,,,,,
,,,,right,1,0.2938,1,15,31,15,1,9,200,right,746,2022-01-20_18h36.41.111,multiplicationStroop,2021.2.3,Win32,59.94485074,,,,,,,,,,,,,,,,,,,,,,,,,,,,,,,,,,,,,,,,,,,,,,,,,,,,,,,,,
,,,,right,1,0.2672,2,0,32,12,1,6,200,right,746,2022-01-20_18h36.41.111,multiplicationStroop,2021.2.3,Win32,59.94485074,,,,,,,,,,,,,,,,,,,,,,,,,,,,,,,,,,,,,,,,,,,,,,,,,,,,,,,,,
,,,,right,1,0.2706,2,1,33,9,1,2,200,right,746,2022-01-20_18h36.41.111,multiplicationStroop,2021.2.3,Win32,59.94485074,,,,,,,,,,,,,,,,,,,,,,,,,,,,,,,,,,,,,,,,,,,,,,,,,,,,,,,,,
,,,,right,1,0.265,2,2,34,14,1,8,200,right,746,2022-01-20_18h36.41.111,multiplicationStroop,2021.2.3,Win32,59.94485074,,,,,,,,,,,,,,,,,,,,,,,,,,,,,,,,,,,,,,,,,,,,,,,,,,,,,,,,,
,,,,right,1,0.2936,2,3,35,15,1,9,200,right,746,2022-01-20_18h36.41.111,multiplicationStroop,2021.2.3,Win32,59.94485074,,,,,,,,,,,,,,,,,,,,,,,,,,,,,,,,,,,,,,,,,,,,,,,,,,,,,,,,,
,,,,right,1,0.3104,2,4,36,13,1,7,200,right,746,2022-01-20_18h36.41.111,multiplicationStroop,2021.2.3,Win32,59.94485074,,,,,,,,,,,,,,,,,,,,,,,,,,,,,,,,,,,,,,,,,,,,,,,,,,,,,,,,,
,,,,left,1,0.4537,2,5,37,0,1,1,-200,left,746,2022-01-20_18h36.41.111,multiplicationStroop,2021.2.3,Win32,59.94485074,,,,,,,,,,,,,,,,,,,,,,,,,,,,,,,,,,,,,,,,,,,,,,,,,,,,,,,,,
,,,,right,1,0.3291,2,6,38,10,1,3,200,right,746,2022-01-20_18h36.41.111,multiplicationStroop,2021.2.3,Win32,59.94485074,,,,,,,,,,,,,,,,,,,,,,,,,,,,,,,,,,,,,,,,,,,,,,,,,,,,,,,,,
,,,,left,1,0.2812,2,7,39,7,1,9,-200,left,746,2022-01-20_18h36.41.111,multiplicationStroop,2021.2.3,Win32,59.94485074,,,,,,,,,,,,,,,,,,,,,,,,,,,,,,,,,,,,,,,,,,,,,,,,,,,,,,,,,
,,,,right,1,0.2936,2,8,40,11,1,4,200,right,746,2022-01-20_18h36.41.111,multiplicationStroop,2021.2.3,Win32,59.94485074,,,,,,,,,,,,,,,,,,,,,,,,,,,,,,,,,,,,,,,,,,,,,,,,,,,,,,,,,
,,,,left,1,0.2607,2,9,41,4,1,6,-200,left,746,2022-01-20_18h36.41.111,multiplicationStroop,2021.2.3,Win32,59.94485074,,,,,,,,,,,,,,,,,,,,,,,,,,,,,,,,,,,,,,,,,,,,,,,,,,,,,,,,,
,,,,right,0,0.2267,2,10,42,5,1,7,-200,left,746,2022-01-20_18h36.41.111,multiplicationStroop,2021.2.3,Win32,59.94485074,,,,,,,,,,,,,,,,,,,,,,,,,,,,,,,,,,,,,,,,,,,,,,,,,,,,,,,,,
,,,,right,1,0.604,2,11,43,8,1,1,200,right,746,2022-01-20_18h36.41.111,multiplicationStroop,2021.2.3,Win32,59.94485074,,,,,,,,,,,,,,,,,,,,,,,,,,,,,,,,,,,,,,,,,,,,,,,,,,,,,,,,,
,,,,left,1,0.3369,2,12,44,6,1,8,-200,left,746,2022-01-20_18h36.41.111,multiplicationStroop,2021.2.3,Win32,59.94485074,,,,,,,,,,,,,,,,,,,,,,,,,,,,,,,,,,,,,,,,,,,,,,,,,,,,,,,,,
,,,,left,1,0.4726,2,13,45,1,1,2,-200,left,746,2022-01-20_18h36.41.111,multiplicationStroop,2021.2.3,Win32,59.94485074,,,,,,,,,,,,,,,,,,,,,,,,,,,,,,,,,,,,,,,,,,,,,,,,,,,,,,,,,
,,,,left,1,0.3797,2,14,46,2,1,3,-200,left,746,2022-01-20_18h36.41.111,multiplicationStroop,2021.2.3,Win32,59.94485074,,,,,,,,,,,,,,,,,,,,,,,,,,,,,,,,,,,,,,,,,,,,,,,,,,,,,,,,,
,,,,left,1,0.2976,2,15,47,3,1,4,-200,left,746,2022-01-20_18h36.41.111,multiplicationStroop,2021.2.3,Win32,59.94485074,,,,,,,,,,,,,,,,,,,,,,,,,,,,,,,,,,,,,,,,,,,,,,,,,,,,,,,,,
,,,,right,1,0.4196,3,0,48,9,1,2,200,right,746,2022-01-20_18h36.41.111,multiplicationStroop,2021.2.3,Win32,59.94485074,,,,,,,,,,,,,,,,,,,,,,,,,,,,,,,,,,,,,,,,,,,,,,,,,,,,,,,,,
,,,,left,1,0.2956,3,1,49,5,1,7,-200,left,746,2022-01-20_18h36.41.111,multiplicationStroop,2021.2.3,Win32,59.94485074,,,,,,,,,,,,,,,,,,,,,,,,,,,,,,,,,,,,,,,,,,,,,,,,,,,,,,,,,
,,,,right,1,0.3048,3,2,50,11,1,4,200,right,746,2022-01-20_18h36.41.111,multiplicationStroop,2021.2.3,Win32,59.94485074,,,,,,,,,,,,,,,,,,,,,,,,,,,,,,,,,,,,,,,,,,,,,,,,,,,,,,,,,
,,,,left,1,0.332,3,3,51,7,1,9,-200,left,746,2022-01-20_18h36.41.111,multiplicationStroop,2021.2.3,Win32,59.94485074,,,,,,,,,,,,,,,,,,,,,,,,,,,,,,,,,,,,,,,,,,,,,,,,,,,,,,,,,
,,,,right,1,0.3006,3,4,52,15,1,9,200,right,746,2022-01-20_18h36.41.111,multiplicationStroop,2021.2.3,Win32,59.94485074,,,,,,,,,,,,,,,,,,,,,,,,,,,,,,,,,,,,,,,,,,,,,,,,,,,,,,,,,
,,,,right,1,0.6209,3,5,53,10,1,3,200,right,746,2022-01-20_18h36.41.111,multiplicationStroop,2021.2.3,Win32,59.94485074,,,,,,,,,,,,,,,,,,,,,,,,,,,,,,,,,,,,,,,,,,,,,,,,,,,,,,,,,
,,,,right,1,0.3124,3,6,54,8,1,1,200,right,746,2022-01-20_18h36.41.111,multiplicationStroop,2021.2.3,Win32,59.94485074,,,,,,,,,,,,,,,,,,,,,,,,,,,,,,,,,,,,,,,,,,,,,,,,,,,,,,,,,
,,,,left,1,0.4494,3,7,55,2,1,3,-200,left,746,2022-01-20_18h36.41.111,multiplicationStroop,2021.2.3,Win32,59.94485074,,,,,,,,,,,,,,,,,,,,,,,,,,,,,,,,,,,,,,,,,,,,,,,,,,,,,,,,,
,,,,left,1,0.3274,3,8,56,4,1,6,-200,left,746,2022-01-20_18h36.41.111,multiplicationStroop,2021.2.3,Win32,59.94485074,,,,,,,,,,,,,,,,,,,,,,,,,,,,,,,,,,,,,,,,,,,,,,,,,,,,,,,,,
,,,,right,1,0.381,3,9,57,12,1,6,200,right,746,2022-01-20_18h36.41.111,multiplicationStroop,2021.2.3,Win32,59.94485074,,,,,,,,,,,,,,,,,,,,,,,,,,,,,,,,,,,,,,,,,,,,,,,,,,,,,,,,,
,,,,left,1,0.2932,3,10,58,3,1,4,-200,left,746,2022-01-20_18h36.41.111,multiplicationStroop,2021.2.3,Win32,59.94485074,,,,,,,,,,,,,,,,,,,,,,,,,,,,,,,,,,,,,,,,,,,,,,,,,,,,,,,,,
,,,,left,1,0.4606,3,11,59,6,1,8,-200,left,746,2022-01-20_18h36.41.111,multiplicationStroop,2021.2.3,Win32,59.94485074,,,,,,,,,,,,,,,,,,,,,,,,,,,,,,,,,,,,,,,,,,,,,,,,,,,,,,,,,
,,,,right,1,0.5112,3,12,60,14,1,8,200,right,746,2022-01-20_18h36.41.111,multiplicationStroop,2021.2.3,Win32,59.94485074,,,,,,,,,,,,,,,,,,,,,,,,,,,,,,,,,,,,,,,,,,,,,,,,,,,,,,,,,
,,,,left,1,0.2717,3,13,61,1,1,2,-200,left,746,2022-01-20_18h36.41.111,multiplicationStroop,2021.2.3,Win32,59.94485074,,,,,,,,,,,,,,,,,,,,,,,,,,,,,,,,,,,,,,,,,,,,,,,,,,,,,,,,,
,,,,left,1,0.5145,3,14,62,0,1,1,-200,left,746,2022-01-20_18h36.41.111,multiplicationStroop,2021.2.3,Win32,59.94485074,,,,,,,,,,,,,,,,,,,,,,,,,,,,,,,,,,,,,,,,,,,,,,,,,,,,,,,,,
,,,,right,1,0.3653,3,15,63,13,1,7,200,right,746,2022-01-20_18h36.41.111,multiplicationStroop,2021.2.3,Win32,59.94485074,,,,,,,,,,,,,,,,,,,,,,,,,,,,,,,,,,,,,,,,,,,,,,,,,,,,,,,,,
,,,,,,,,,,,,,,,746,2022-01-20_18h36.41.111,multiplicationStroop,2021.2.3,Win32,59.94485074,space,20.4695,space,8.4677,right,1,0.8557,0,0,0,60,1,3,3,3 | 3,0,1.4111,1.9756,neutral,right,,,,,,stimulusFile/physical.xlsx,,,,,,,,,,,,,,,,,,,,,,,,,,,,,,,
,,,,,,,,,,,,,,,746,2022-01-20_18h36.41.111,multiplicationStroop,2021.2.3,Win32,59.94485074,,,,,right,1,1.1898,0,1,1,39,1,9,7,9 | 7,2,1.4111,1.9756,incongruent,right,,,,,,stimulusFile/physical.xlsx,,,,,,,,,,,,,,,,,,,,,,,,,,,,,,,
,,,,,,,,,,,,,,,746,2022-01-20_18h36.41.111,multiplicationStroop,2021.2.3,Win32,59.94485074,,,,,left,1,0.5406,0,2,2,14,1,8,6,8 | 6,2,1.9756,1.4111,congruent,left,,,,,,stimulusFile/physical.xlsx,,,,,,,,,,,,,,,,,,,,,,,,,,,,,,,
,,,,,,,,,,,,,,,746,2022-01-20_18h36.41.111,multiplicationStroop,2021.2.3,Win32,59.94485074,,,,,left,1,0.5095,0,3,3,25,1,3,4,3 | 4,1,1.9756,1.4111,incongruent,left,,,,,,stimulusFile/physical.xlsx,,,,,,,,,,,,,,,,,,,,,,,,,,,,,,,
,,,,,,,,,,,,,,,746,2022-01-20_18h36.41.111,multiplicationStroop,2021.2.3,Win32,59.94485074,,,,,left,1,0.4927,0,4,4,13,1,4,2,4 | 2,2,1.9756,1.4111,congruent,left,,,,,,stimulusFile/physical.xlsx,,,,,,,,,,,,,,,,,,,,,,,,,,,,,,,
,,,,,,,,,,,,,,,746,2022-01-20_18h36.41.111,multiplicationStroop,2021.2.3,Win32,59.94485074,,,,,left,0,0.5042,0,5,5,64,1,1,1,1 | 1,0,1.9756,1.4111,neutral,right,,,,,,stimulusFile/physical.xlsx,,,,,,,,,,,,,,,,,,,,,,,,,,,,,,,
,,,,,,,,,,,,,,,746,2022-01-20_18h36.41.111,multiplicationStroop,2021.2.3,Win32,59.94485074,,,,,left,1,0.5539,0,6,6,70,1,8,8,8 | 8,0,1.9756,1.4111,neutral,left,,,,,,stimulusFile/physical.xlsx,,,,,,,,,,,,,,,,,,,,,,,,,,,,,,,
,,,,,,,,,,,,,,,746,2022-01-20_18h36.41.111,multiplicationStroop,2021.2.3,Win32,59.94485074,,,,,left,1,0.5142,0,7,7,6,1,7,6,7 | 6,1,1.9756,1.4111,congruent,left,,,,,,stimulusFile/physical.xlsx,,,,,,,,,,,,,,,,,,,,,,,,,,,,,,,
,,,,,,,,,,,,,,,746,2022-01-20_18h36.41.111,multiplicationStroop,2021.2.3,Win32,59.94485074,,,,,left,1,0.511,0,8,8,41,1,2,7,2 | 7,5,1.9756,1.4111,incongruent,left,,,,,,stimulusFile/physical.xlsx,,,,,,,,,,,,,,,,,,,,,,,,,,,,,,,
,,,,,,,,,,,,,,,746,2022-01-20_18h36.41.111,multiplicationStroop,2021.2.3,Win32,59.94485074,,,,,right,1,0.4938,0,9,9,17,1,2,7,2 | 7,5,1.4111,1.9756,congruent,right,,,,,,stimulusFile/physical.xlsx,,,,,,,,,,,,,,,,,,,,,,,,,,,,,,,
,,,,,,,,,,,,,,,746,2022-01-20_18h36.41.111,multiplicationStroop,2021.2.3,Win32,59.94485074,,,,,left,1,0.5269,0,10,10,43,1,4,9,4 | 9,5,1.9756,1.4111,incongruent,left,,,,,,stimulusFile/physical.xlsx,,,,,,,,,,,,,,,,,,,,,,,,,,,,,,,
,,,,,,,,,,,,,,,746,2022-01-20_18h36.41.111,multiplicationStroop,2021.2.3,Win32,59.94485074,,,,,right,1,0.4848,0,11,11,61,1,4,4,4 | 4,0,1.4111,1.9756,neutral,right,,,,,,stimulusFile/physical.xlsx,,,,,,,,,,,,,,,,,,,,,,,,,,,,,,,
,,,,,,,,,,,,,,,746,2022-01-20_18h36.41.111,multiplicationStroop,2021.2.3,Win32,59.94485074,,,,,right,1,0.6396,0,12,12,28,1,2,1,2 | 1,1,1.4111,1.9756,incongruent,right,,,,,,stimulusFile/physical.xlsx,,,,,,,,,,,,,,,,,,,,,,,,,,,,,,,
,,,,,,,,,,,,,,,746,2022-01-20_18h36.41.111,multiplicationStroop,2021.2.3,Win32,59.94485074,,,,,left,1,0.4496,0,13,13,21,1,7,2,7 | 2,5,1.9756,1.4111,congruent,left,,,,,,stimulusFile/physical.xlsx,,,,,,,,,,,,,,,,,,,,,,,,,,,,,,,
,,,,,,,,,,,,,,,746,2022-01-20_18h36.41.111,multiplicationStroop,2021.2.3,Win32,59.94485074,,,,,right,0,0.3491,0,14,14,71,1,9,9,9 | 9,0,1.4111,1.9756,neutral,left,,,,,,stimulusFile/physical.xlsx,,,,,,,,,,,,,,,,,,,,,,,,,,,,,,,
,,,,,,,,,,,,,,,746,2022-01-20_18h36.41.111,multiplicationStroop,2021.2.3,Win32,59.94485074,,,,,right,1,0.5756,0,15,15,58,1,6,6,6 | 6,0,1.4111,1.9756,neutral,right,,,,,,stimulusFile/physical.xlsx,,,,,,,,,,,,,,,,,,,,,,,,,,,,,,,
,,,,,,,,,,,,,,,746,2022-01-20_18h36.41.111,multiplicationStroop,2021.2.3,Win32,59.94485074,,,,,right,1,0.4592,0,16,16,3,1,8,9,8 | 9,1,1.4111,1.9756,congruent,right,,,,,,stimulusFile/physical.xlsx,,,,,,,,,,,,,,,,,,,,,,,,,,,,,,,
,,,,,,,,,,,,,,,746,2022-01-20_18h36.41.111,multiplicationStroop,2021.2.3,Win32,59.94485074,,,,,right,1,0.5334,0,17,17,9,1,2,4,2 | 4,2,1.4111,1.9756,congruent,right,,,,,,stimulusFile/physical.xlsx,,,,,,,,,,,,,,,,,,,,,,,,,,,,,,,
,,,,,,,,,,,,,,,746,2022-01-20_18h36.41.111,multiplicationStroop,2021.2.3,Win32,59.94485074,,,,,left,1,0.479,0,18,18,51,1,8,8,8 | 8,0,1.9756,1.4111,neutral,left,,,,,,stimulusFile/physical.xlsx,,,,,,,,,,,,,,,,,,,,,,,,,,,,,,,
,,,,,,,,,,,,,,,746,2022-01-20_18h36.41.111,multiplicationStroop,2021.2.3,Win32,59.94485074,,,,,right,1,0.5283,0,19,19,59,1,7,7,7 | 7,0,1.4111,1.9756,neutral,right,,,,,,stimulusFile/physical.xlsx,,,,,,,,,,,,,,,,,,,,,,,,,,,,,,,
,,,,,,,,,,,,,,,746,2022-01-20_18h36.41.111,multiplicationStroop,2021.2.3,Win32,59.94485074,,,,,left,1,0.4099,0,20,20,23,1,9,4,9 | 4,5,1.9756,1.4111,congruent,left,,,,,,stimulusFile/physical.xlsx,,,,,,,,,,,,,,,,,,,,,,,,,,,,,,,
,,,,,,,,,,,,,,,746,2022-01-20_18h36.41.111,multiplicationStroop,2021.2.3,Win32,59.94485074,,,,,right,1,0.4791,0,21,21,67,1,4,4,4 | 4,0,1.4111,1.9756,neutral,right,,,,,,stimulusFile/physical.xlsx,,,,,,,,,,,,,,,,,,,,,,,,,,,,,,,
,,,,,,,,,,,,,,,746,2022-01-20_18h36.41.111,multiplicationStroop,2021.2.3,Win32,59.94485074,,,,,left,1,0.5278,0,22,22,40,1,1,6,1 | 6,5,1.9756,1.4111,incongruent,left,,,,,,stimulusFile/physical.xlsx,,,,,,,,,,,,,,,,,,,,,,,,,,,,,,,
,,,,,,,,,,,,,,,746,2022-01-20_18h36.41.111,multiplicationStroop,2021.2.3,Win32,59.94485074,,,,,right,1,0.4795,0,23,23,65,1,2,2,2 | 2,0,1.4111,1.9756,neutral,right,,,,,,stimulusFile/physical.xlsx,,,,,,,,,,,,,,,,,,,,,,,,,,,,,,,
,,,,,,,,,,,,,,,746,2022-01-20_18h36.41.111,multiplicationStroop,2021.2.3,Win32,59.94485074,,,,,left,0,0.3456,0,24,24,66,1,3,3,3 | 3,0,1.9756,1.4111,neutral,right,,,,,,stimulusFile/physical.xlsx,,,,,,,,,,,,,,,,,,,,,,,,,,,,,,,
,,,,,,,,,,,,,,,746,2022-01-20_18h36.41.111,multiplicationStroop,2021.2.3,Win32,59.94485074,,,,,right,1,0.4809,0,25,25,19,1,4,9,4 | 9,5,1.4111,1.9756,congruent,right,,,,,,stimulusFile/physical.xlsx,,,,,,,,,,,,,,,,,,,,,,,,,,,,,,,
,,,,,,,,,,,,,,,746,2022-01-20_18h36.41.111,multiplicationStroop,2021.2.3,Win32,59.94485074,,,,,left,1,0.4272,0,26,26,15,1,9,7,9 | 7,2,1.9756,1.4111,congruent,left,,,,,,stimulusFile/physical.xlsx,,,,,,,,,,,,,,,,,,,,,,,,,,,,,,,
,,,,,,,,,,,,,,,746,2022-01-20_18h36.41.111,multiplicationStroop,2021.2.3,Win32,59.94485074,,,,,right,1,0.3438,0,27,27,36,1,3,1,3 | 1,2,1.4111,1.9756,incongruent,right,,,,,,stimulusFile/physical.xlsx,,,,,,,,,,,,,,,,,,,,,,,,,,,,,,,
,,,,,,,,,,,,,,,746,2022-01-20_18h36.41.111,multiplicationStroop,2021.2.3,Win32,59.94485074,,,,,right,1,0.513,0,28,28,18,1,3,8,3 | 8,5,1.4111,1.9756,congruent,right,,,,,,stimulusFile/physical.xlsx,,,,,,,,,,,,,,,,,,,,,,,,,,,,,,,
,,,,,,,,,,,,,,,746,2022-01-20_18h36.41.111,multiplicationStroop,2021.2.3,Win32,59.94485074,,,,,left,1,0.4648,0,29,29,53,1,4,4,4 | 4,0,1.9756,1.4111,neutral,left,,,,,,stimulusFile/physical.xlsx,,,,,,,,,,,,,,,,,,,,,,,,,,,,,,,
,,,,,,,,,,,,,,,746,2022-01-20_18h36.41.111,multiplicationStroop,2021.2.3,Win32,59.94485074,,,,,left,1,0.5226,0,30,30,22,1,8,3,8 | 3,5,1.9756,1.4111,congruent,left,,,,,,stimulusFile/physical.xlsx,,,,,,,,,,,,,,,,,,,,,,,,,,,,,,,
,,,,,,,,,,,,,,,746,2022-01-20_18h36.41.111,multiplicationStroop,2021.2.3,Win32,59.94485074,,,,,left,1,0.6591,0,31,31,32,1,1,3,1 | 3,2,1.9756,1.4111,incongruent,left,,,,,,stimulusFile/physical.xlsx,,,,,,,,,,,,,,,,,,,,,,,,,,,,,,,
,,,,,,,,,,,,,,,746,2022-01-20_18h36.41.111,multiplicationStroop,2021.2.3,Win32,59.94485074,,,,,right,1,0.516,0,32,32,31,1,9,8,9 | 8,1,1.4111,1.9756,incongruent,right,,,,,,stimulusFile/physical.xlsx,,,,,,,,,,,,,,,,,,,,,,,,,,,,,,,
,,,,,,,,,,,,,,,746,2022-01-20_18h36.41.111,multiplicationStroop,2021.2.3,Win32,59.94485074,,,,,right,1,0.5655,0,33,33,29,1,4,3,4 | 3,1,1.4111,1.9756,incongruent,right,,,,,,stimulusFile/physical.xlsx,,,,,,,,,,,,,,,,,,,,,,,,,,,,,,,
,,,,,,,,,,,,,,,746,2022-01-20_18h36.41.111,multiplicationStroop,2021.2.3,Win32,59.94485074,,,,,left,1,0.4529,0,34,34,7,1,9,8,9 | 8,1,1.9756,1.4111,congruent,left,,,,,,stimulusFile/physical.xlsx,,,,,,,,,,,,,,,,,,,,,,,,,,,,,,,
,,,,,,,,,,,,,,,746,2022-01-20_18h36.41.111,multiplicationStroop,2021.2.3,Win32,59.94485074,,,,,left,1,0.5504,0,35,35,50,1,6,6,6 | 6,0,1.9756,1.4111,neutral,left,,,,,,stimulusFile/physical.xlsx,,,,,,,,,,,,,,,,,,,,,,,,,,,,,,,
,,,,,,,,,,,,,,,746,2022-01-20_18h36.41.111,multiplicationStroop,2021.2.3,Win32,59.94485074,,,,,left,1,0.5043,0,36,36,54,1,7,7,7 | 7,0,1.9756,1.4111,neutral,left,,,,,,stimulusFile/physical.xlsx,,,,,,,,,,,,,,,,,,,,,,,,,,,,,,,
,,,,,,,,,,,,,,,746,2022-01-20_18h36.41.111,multiplicationStroop,2021.2.3,Win32,59.94485074,,,,,left,1,0.4334,0,37,37,49,1,3,3,3 | 3,0,1.9756,1.4111,neutral,left,,,,,,stimulusFile/physical.xlsx,,,,,,,,,,,,,,,,,,,,,,,,,,,,,,,
,,,,,,,,,,,,,,,746,2022-01-20_18h36.41.111,multiplicationStroop,2021.2.3,Win32,59.94485074,,,,,right,1,0.4938,0,38,38,16,1,1,6,1 | 6,5,1.4111,1.9756,congruent,right,,,,,,stimulusFile/physical.xlsx,,,,,,,,,,,,,,,,,,,,,,,,,,,,,,,
,,,,,,,,,,,,,,,746,2022-01-20_18h36.41.111,multiplicationStroop,2021.2.3,Win32,59.94485074,,,,,right,1,0.4954,0,39,39,2,1,6,7,6 | 7,1,1.4111,1.9756,congruent,right,,,,,,stimulusFile/physical.xlsx,,,,,,,,,,,,,,,,,,,,,,,,,,,,,,,
,,,,,,,,,,,,,,,746,2022-01-20_18h36.41.111,multiplicationStroop,2021.2.3,Win32,59.94485074,,,,,left,1,0.4432,0,40,40,52,1,2,2,2 | 2,0,1.9756,1.4111,neutral,left,,,,,,stimulusFile/physical.xlsx,,,,,,,,,,,,,,,,,,,,,,,,,,,,,,,
,,,,,,,,,,,,,,,746,2022-01-20_18h36.41.111,multiplicationStroop,2021.2.3,Win32,59.94485074,,,,,right,1,0.4524,0,41,41,1,1,3,4,3 | 4,1,1.4111,1.9756,congruent,right,,,,,,stimulusFile/physical.xlsx,,,,,,,,,,,,,,,,,,,,,,,,,,,,,,,
,,,,,,,,,,,,,,,746,2022-01-20_18h36.41.111,multiplicationStroop,2021.2.3,Win32,59.94485074,,,,,left,1,0.393,0,42,42,24,1,1,2,1 | 2,1,1.9756,1.4111,incongruent,left,,,,,,stimulusFile/physical.xlsx,,,,,,,,,,,,,,,,,,,,,,,,,,,,,,,
,,,,,,,,,,,,,,,746,2022-01-20_18h36.41.111,multiplicationStroop,2021.2.3,Win32,59.94485074,,,,,right,0,0.3958,0,43,43,34,1,6,8,6 | 8,2,1.9756,1.4111,incongruent,left,,,,,,stimulusFile/physical.xlsx,,,,,,,,,,,,,,,,,,,,,,,,,,,,,,,
,,,,,,,,,,,,,,,746,2022-01-20_18h36.41.111,multiplicationStroop,2021.2.3,Win32,59.94485074,,,,,left,1,0.6101,0,44,44,48,1,1,1,1 | 1,0,1.9756,1.4111,neutral,left,,,,,,stimulusFile/physical.xlsx,,,,,,,,,,,,,,,,,,,,,,,,,,,,,,,
,,,,,,,,,,,,,,,746,2022-01-20_18h36.41.111,multiplicationStroop,2021.2.3,Win32,59.94485074,,,,,left,1,0.43,0,45,45,4,1,2,1,2 | 1,1,1.9756,1.4111,congruent,left,,,,,,stimulusFile/physical.xlsx,,,,,,,,,,,,,,,,,,,,,,,,,,,,,,,
,,,,,,,,,,,,,,,746,2022-01-20_18h36.41.111,multiplicationStroop,2021.2.3,Win32,59.94485074,,,,,left,1,0.3948,0,46,46,20,1,6,1,6 | 1,5,1.9756,1.4111,congruent,left,,,,,,stimulusFile/physical.xlsx,,,,,,,,,,,,,,,,,,,,,,,,,,,,,,,
,,,,,,,,,,,,,,,746,2022-01-20_18h36.41.111,multiplicationStroop,2021.2.3,Win32,59.94485074,,,,,right,1,0.4534,0,47,47,30,1,7,6,7 | 6,1,1.4111,1.9756,incongruent,right,,,,,,stimulusFile/physical.xlsx,,,,,,,,,,,,,,,,,,,,,,,,,,,,,,,
,,,,,,,,,,,,,,,746,2022-01-20_18h36.41.111,multiplicationStroop,2021.2.3,Win32,59.94485074,,,,,right,1,0.8518,0,48,48,38,1,8,6,8 | 6,2,1.4111,1.9756,incongruent,right,,,,,,stimulusFile/physical.xlsx,,,,,,,,,,,,,,,,,,,,,,,,,,,,,,,
,,,,,,,,,,,,,,,746,2022-01-20_18h36.41.111,multiplicationStroop,2021.2.3,Win32,59.94485074,,,,,left,1,0.511,0,49,49,68,1,6,6,6 | 6,0,1.9756,1.4111,neutral,left,,,,,,stimulusFile/physical.xlsx,,,,,,,,,,,,,,,,,,,,,,,,,,,,,,,
,,,,,,,,,,,,,,,746,2022-01-20_18h36.41.111,multiplicationStroop,2021.2.3,Win32,59.94485074,,,,,right,1,0.4104,0,50,50,10,1,6,8,6 | 8,2,1.4111,1.9756,congruent,right,,,,,,stimulusFile/physical.xlsx,,,,,,,,,,,,,,,,,,,,,,,,,,,,,,,
,,,,,,,,,,,,,,,746,2022-01-20_18h36.41.111,multiplicationStroop,2021.2.3,Win32,59.94485074,,,,,right,1,0.6684,0,51,51,62,1,8,8,8 | 8,0,1.4111,1.9756,neutral,right,,,,,,stimulusFile/physical.xlsx,,,,,,,,,,,,,,,,,,,,,,,,,,,,,,,
,,,,,,,,,,,,,,,746,2022-01-20_18h36.41.111,multiplicationStroop,2021.2.3,Win32,59.94485074,,,,,right,1,0.5194,0,52,52,57,1,2,2,2 | 2,0,1.4111,1.9756,neutral,right,,,,,,stimulusFile/physical.xlsx,,,,,,,,,,,,,,,,,,,,,,,,,,,,,,,
,,,,,,,,,,,,,,,746,2022-01-20_18h36.41.111,multiplicationStroop,2021.2.3,Win32,59.94485074,,,,,left,1,0.4476,0,53,53,26,1,6,7,6 | 7,1,1.9756,1.4111,incongruent,left,,,,,,stimulusFile/physical.xlsx,,,,,,,,,,,,,,,,,,,,,,,,,,,,,,,
,,,,,,,,,,,,,,,746,2022-01-20_18h36.41.111,multiplicationStroop,2021.2.3,Win32,59.94485074,,,,,right,1,0.466,0,54,54,45,1,7,2,7 | 2,5,1.4111,1.9756,incongruent,right,,,,,,stimulusFile/physical.xlsx,,,,,,,,,,,,,,,,,,,,,,,,,,,,,,,
,,,,,,,,,,,,,,,746,2022-01-20_18h36.41.111,multiplicationStroop,2021.2.3,Win32,59.94485074,,,,,left,1,0.4611,0,55,55,33,1,2,4,2 | 4,2,1.9756,1.4111,incongruent,left,,,,,,stimulusFile/physical.xlsx,,,,,,,,,,,,,,,,,,,,,,,,,,,,,,,
,,,,,,,,,,,,,,,746,2022-01-20_18h36.41.111,multiplicationStroop,2021.2.3,Win32,59.94485074,,,,,right,1,0.46,0,56,56,44,1,6,1,6 | 1,5,1.4111,1.9756,incongruent,right,,,,,,stimulusFile/physical.xlsx,,,,,,,,,,,,,,,,,,,,,,,,,,,,,,,
,,,,,,,,,,,,,,,746,2022-01-20_18h36.41.111,multiplicationStroop,2021.2.3,Win32,59.94485074,,,,,right,1,0.5264,0,57,57,11,1,7,9,7 | 9,2,1.4111,1.9756,congruent,right,,,,,,stimulusFile/physical.xlsx,,,,,,,,,,,,,,,,,,,,,,,,,,,,,,,
,,,,,,,,,,,,,,,746,2022-01-20_18h36.41.111,multiplicationStroop,2021.2.3,Win32,59.94485074,,,,,right,1,0.451,0,58,58,56,1,1,1,1 | 1,0,1.4111,1.9756,neutral,right,,,,,,stimulusFile/physical.xlsx,,,,,,,,,,,,,,,,,,,,,,,,,,,,,,,
,,,,,,,,,,,,,,,746,2022-01-20_18h36.41.111,multiplicationStroop,2021.2.3,Win32,59.94485074,,,,,right,1,0.8388,0,59,59,0,1,1,2,1 | 2,1,1.4111,1.9756,congruent,right,,,,,,stimulusFile/physical.xlsx,,,,,,,,,,,,,,,,,,,,,,,,,,,,,,,
,,,,,,,,,,,,,,,746,2022-01-20_18h36.41.111,multiplicationStroop,2021.2.3,Win32,59.94485074,,,,,right,1,0.4835,0,60,60,47,1,9,4,9 | 4,5,1.4111,1.9756,incongruent,right,,,,,,stimulusFile/physical.xlsx,,,,,,,,,,,,,,,,,,,,,,,,,,,,,,,
,,,,,,,,,,,,,,,746,2022-01-20_18h36.41.111,multiplicationStroop,2021.2.3,Win32,59.94485074,,,,,right,1,0.5436,0,61,61,37,1,4,2,4 | 2,2,1.4111,1.9756,incongruent,right,,,,,,stimulusFile/physical.xlsx,,,,,,,,,,,,,,,,,,,,,,,,,,,,,,,
,,,,,,,,,,,,,,,746,2022-01-20_18h36.41.111,multiplicationStroop,2021.2.3,Win32,59.94485074,,,,,left,1,0.5592,0,62,62,42,1,3,8,3 | 8,5,1.9756,1.4111,incongruent,left,,,,,,stimulusFile/physical.xlsx,,,,,,,,,,,,,,,,,,,,,,,,,,,,,,,
,,,,,,,,,,,,,,,746,2022-01-20_18h36.41.111,multiplicationStroop,2021.2.3,Win32,59.94485074,,,,,right,1,0.4196,0,63,63,8,1,1,3,1 | 3,2,1.4111,1.9756,congruent,right,,,,,,stimulusFile/physical.xlsx,,,,,,,,,,,,,,,,,,,,,,,,,,,,,,,
,,,,,,,,,,,,,,,746,2022-01-20_18h36.41.111,multiplicationStroop,2021.2.3,Win32,59.94485074,,,,,right,1,0.5197,0,64,64,63,1,9,9,9 | 9,0,1.4111,1.9756,neutral,right,,,,,,stimulusFile/physical.xlsx,,,,,,,,,,,,,,,,,,,,,,,,,,,,,,,
,,,,,,,,,,,,,,,746,2022-01-20_18h36.41.111,multiplicationStroop,2021.2.3,Win32,59.94485074,,,,,left,1,0.5608,0,65,65,55,1,9,9,9 | 9,0,1.9756,1.4111,neutral,left,,,,,,stimulusFile/physical.xlsx,,,,,,,,,,,,,,,,,,,,,,,,,,,,,,,
,,,,,,,,,,,,,,,746,2022-01-20_18h36.41.111,multiplicationStroop,2021.2.3,Win32,59.94485074,,,,,left,1,0.5113,0,66,66,35,1,7,9,7 | 9,2,1.9756,1.4111,incongruent,left,,,,,,stimulusFile/physical.xlsx,,,,,,,,,,,,,,,,,,,,,,,,,,,,,,,
,,,,,,,,,,,,,,,746,2022-01-20_18h36.41.111,multiplicationStroop,2021.2.3,Win32,59.94485074,,,,,left,1,0.3843,0,67,67,12,1,3,1,3 | 1,2,1.9756,1.4111,congruent,left,,,,,,stimulusFile/physical.xlsx,,,,,,,,,,,,,,,,,,,,,,,,,,,,,,,
,,,,,,,,,,,,,,,746,2022-01-20_18h36.41.111,multiplicationStroop,2021.2.3,Win32,59.94485074,,,,,right,1,0.5434,0,68,68,46,1,8,3,8 | 3,5,1.4111,1.9756,incongruent,right,,,,,,stimulusFile/physical.xlsx,,,,,,,,,,,,,,,,,,,,,,,,,,,,,,,
,,,,,,,,,,,,,,,746,2022-01-20_18h36.41.111,multiplicationStroop,2021.2.3,Win32,59.94485074,,,,,right,0,0.3932,0,69,69,27,1,8,9,8 | 9,1,1.9756,1.4111,incongruent,left,,,,,,stimulusFile/physical.xlsx,,,,,,,,,,,,,,,,,,,,,,,,,,,,,,,
,,,,,,,,,,,,,,,746,2022-01-20_18h36.41.111,multiplicationStroop,2021.2.3,Win32,59.94485074,,,,,left,1,0.5103,0,70,70,5,1,4,3,4 | 3,1,1.9756,1.4111,congruent,left,,,,,,stimulusFile/physical.xlsx,,,,,,,,,,,,,,,,,,,,,,,,,,,,,,,
,,,,,,,,,,,,,,,746,2022-01-20_18h36.41.111,multiplicationStroop,2021.2.3,Win32,59.94485074,,,,,right,0,0.3637,0,71,71,69,1,7,7,7 | 7,0,1.4111,1.9756,neutral,left,,,,,,stimulusFile/physical.xlsx,,,,,,,,,,,,,,,,,,,,,,,,,,,,,,,
,,,,,,,,,,,,,,,746,2022-01-20_18h36.41.111,multiplicationStroop,2021.2.3,Win32,59.94485074,,,,,,,,,,,,,,,,,,,,,0,0,0,1,1,stimulusFile/physical.xlsx,PHYSICALLY larger (larger font size).,images/physicallyLarger.png,,,,,,,,,,,,,,,,,,,,,,,,,,,,,
,,,,,,,,,,,,,,,746,2022-01-20_18h36.41.111,multiplicationStroop,2021.2.3,Win32,59.94485074,space,6.0706,space,0.7913,right,1,0.7838,0,0,0,26,1,6,7,6 | 7,1,1.9756,1.4111,incongruent,right,,,,,,stimulusFile/magnitude.xlsx,,,,,,,,,,,,,,,,,,,,,,,,,,,,,,,
,,,,,,,,,,,,,,,746,2022-01-20_18h36.41.111,multiplicationStroop,2021.2.3,Win32,59.94485074,,,,,left,1,0.6332,0,1,1,69,1,7,2,7 | 2,5,1.6933,1.6933,neutral,left,,,,,,stimulusFile/magnitude.xlsx,,,,,,,,,,,,,,,,,,,,,,,,,,,,,,,
,,,,,,,,,,,,,,,746,2022-01-20_18h36.41.111,multiplicationStroop,2021.2.3,Win32,59.94485074,,,,,left,1,0.6836,0,2,2,36,1,3,1,3 | 1,2,1.4111,1.9756,incongruent,left,,,,,,stimulusFile/magnitude.xlsx,,,,,,,,,,,,,,,,,,,,,,,,,,,,,,,
,,,,,,,,,,,,,,,746,2022-01-20_18h36.41.111,multiplicationStroop,2021.2.3,Win32,59.94485074,,,,,left,1,0.5053,0,3,3,53,1,4,3,4 | 3,1,1.6933,1.6933,neutral,left,,,,,,stimulusFile/magnitude.xlsx,,,,,,,,,,,,,,,,,,,,,,,,,,,,,,,
,,,,,,,,,,,,,,,746,2022-01-20_18h36.41.111,multiplicationStroop,2021.2.3,Win32,59.94485074,,,,,right,1,0.4338,0,4,4,8,1,1,3,1 | 3,2,1.4111,1.9756,congruent,right,,,,,,stimulusFile/magnitude.xlsx,,,,,,,,,,,,,,,,,,,,,,,,,,,,,,,
,,,,,,,,,,,,,,,746,2022-01-20_18h36.41.111,multiplicationStroop,2021.2.3,Win32,59.94485074,,,,,left,1,0.4005,0,5,5,6,1,7,6,7 | 6,1,1.9756,1.4111,congruent,left,,,,,,stimulusFile/magnitude.xlsx,,,,,,,,,,,,,,,,,,,,,,,,,,,,,,,
,,,,,,,,,,,,,,,746,2022-01-20_18h36.41.111,multiplicationStroop,2021.2.3,Win32,59.94485074,,,,,right,1,0.4005,0,6,6,19,1,4,9,4 | 9,5,1.4111,1.9756,congruent,right,,,,,,stimulusFile/magnitude.xlsx,,,,,,,,,,,,,,,,,,,,,,,,,,,,,,,
,,,,,,,,,,,,,,,746,2022-01-20_18h36.41.111,multiplicationStroop,2021.2.3,Win32,59.94485074,,,,,left,1,0.3839,0,7,7,44,1,6,1,6 | 1,5,1.4111,1.9756,incongruent,left,,,,,,stimulusFile/magnitude.xlsx,,,,,,,,,,,,,,,,,,,,,,,,,,,,,,,
,,,,,,,,,,,,,,,746,2022-01-20_18h36.41.111,multiplicationStroop,2021.2.3,Win32,59.94485074,,,,,left,1,0.42,0,8,8,20,1,6,1,6 | 1,5,1.9756,1.4111,congruent,left,,,,,,stimulusFile/magnitude.xlsx,,,,,,,,,,,,,,,,,,,,,,,,,,,,,,,
,,,,,,,,,,,,,,,746,2022-01-20_18h36.41.111,multiplicationStroop,2021.2.3,Win32,59.94485074,,,,,left,1,0.504,0,9,9,13,1,4,2,4 | 2,2,1.9756,1.4111,congruent,left,,,,,,stimulusFile/magnitude.xlsx,,,,,,,,,,,,,,,,,,,,,,,,,,,,,,,
,,,,,,,,,,,,,,,746,2022-01-20_18h36.41.111,multiplicationStroop,2021.2.3,Win32,59.94485074,,,,,left,1,0.7842,0,10,10,55,1,9,8,9 | 8,1,1.6933,1.6933,neutral,left,,,,,,stimulusFile/magnitude.xlsx,,,,,,,,,,,,,,,,,,,,,,,,,,,,,,,
,,,,,,,,,,,,,,,746,2022-01-20_18h36.41.111,multiplicationStroop,2021.2.3,Win32,59.94485074,,,,,right,1,0.4343,0,11,11,40,1,1,6,1 | 6,5,1.9756,1.4111,incongruent,right,,,,,,stimulusFile/magnitude.xlsx,,,,,,,,,,,,,,,,,,,,,,,,,,,,,,,
,,,,,,,,,,,,,,,746,2022-01-20_18h36.41.111,multiplicationStroop,2021.2.3,Win32,59.94485074,,,,,left,1,0.6008,0,12,12,30,1,7,6,7 | 6,1,1.4111,1.9756,incongruent,left,,,,,,stimulusFile/magnitude.xlsx,,,,,,,,,,,,,,,,,,,,,,,,,,,,,,,
,,,,,,,,,,,,,,,746,2022-01-20_18h36.41.111,multiplicationStroop,2021.2.3,Win32,59.94485074,,,,,right,1,0.5338,0,13,13,25,1,3,4,3 | 4,1,1.9756,1.4111,incongruent,right,,,,,,stimulusFile/magnitude.xlsx,,,,,,,,,,,,,,,,,,,,,,,,,,,,,,,
,,,,,,,,,,,,,,,746,2022-01-20_18h36.41.111,multiplicationStroop,2021.2.3,Win32,59.94485074,,,,,right,1,0.5338,0,14,14,9,1,2,4,2 | 4,2,1.4111,1.9756,congruent,right,,,,,,stimulusFile/magnitude.xlsx,,,,,,,,,,,,,,,,,,,,,,,,,,,,,,,
,,,,,,,,,,,,,,,746,2022-01-20_18h36.41.111,multiplicationStroop,2021.2.3,Win32,59.94485074,,,,,right,1,0.5252,0,15,15,18,1,3,8,3 | 8,5,1.4111,1.9756,congruent,right,,,,,,stimulusFile/magnitude.xlsx,,,,,,,,,,,,,,,,,,,,,,,,,,,,,,,
,,,,,,,,,,,,,,,746,2022-01-20_18h36.41.111,multiplicationStroop,2021.2.3,Win32,59.94485074,,,,,right,1,0.5893,0,16,16,41,1,2,7,2 | 7,5,1.9756,1.4111,incongruent,right,,,,,,stimulusFile/magnitude.xlsx,,,,,,,,,,,,,,,,,,,,,,,,,,,,,,,
,,,,,,,,,,,,,,,746,2022-01-20_18h36.41.111,multiplicationStroop,2021.2.3,Win32,59.94485074,,,,,left,1,0.6502,0,17,17,28,1,2,1,2 | 1,1,1.4111,1.9756,incongruent,left,,,,,,stimulusFile/magnitude.xlsx,,,,,,,,,,,,,,,,,,,,,,,,,,,,,,,
,,,,,,,,,,,,,,,746,2022-01-20_18h36.41.111,multiplicationStroop,2021.2.3,Win32,59.94485074,,,,,right,1,0.517,0,18,18,59,1,7,9,7 | 9,2,1.6933,1.6933,neutral,right,,,,,,stimulusFile/magnitude.xlsx,,,,,,,,,,,,,,,,,,,,,,,,,,,,,,,
,,,,,,,,,,,,,,,746,2022-01-20_18h36.41.111,multiplicationStroop,2021.2.3,Win32,59.94485074,,,,,right,1,0.8054,0,19,19,34,1,6,8,6 | 8,2,1.9756,1.4111,incongruent,right,,,,,,stimulusFile/magnitude.xlsx,,,,,,,,,,,,,,,,,,,,,,,,,,,,,,,
,,,,,,,,,,,,,,,746,2022-01-20_18h36.41.111,multiplicationStroop,2021.2.3,Win32,59.94485074,,,,,right,1,0.4901,0,20,20,16,1,1,6,1 | 6,5,1.4111,1.9756,congruent,right,,,,,,stimulusFile/magnitude.xlsx,,,,,,,,,,,,,,,,,,,,,,,,,,,,,,,
,,,,,,,,,,,,,,,746,2022-01-20_18h36.41.111,multiplicationStroop,2021.2.3,Win32,59.94485074,,,,,left,1,0.5077,0,21,21,47,1,9,4,9 | 4,5,1.4111,1.9756,incongruent,left,,,,,,stimulusFile/magnitude.xlsx,,,,,,,,,,,,,,,,,,,,,,,,,,,,,,,
,,,,,,,,,,,,,,,746,2022-01-20_18h36.41.111,multiplicationStroop,2021.2.3,Win32,59.94485074,,,,,right,1,0.388,0,22,22,11,1,7,9,7 | 9,2,1.4111,1.9756,congruent,right,,,,,,stimulusFile/magnitude.xlsx,,,,,,,,,,,,,,,,,,,,,,,,,,,,,,,
,,,,,,,,,,,,,,,746,2022-01-20_18h36.41.111,multiplicationStroop,2021.2.3,Win32,59.94485074,,,,,right,1,0.634,0,23,23,43,1,4,9,4 | 9,5,1.9756,1.4111,incongruent,right,,,,,,stimulusFile/magnitude.xlsx,,,,,,,,,,,,,,,,,,,,,,,,,,,,,,,
,,,,,,,,,,,,,,,746,2022-01-20_18h36.41.111,multiplicationStroop,2021.2.3,Win32,59.94485074,,,,,right,1,0.7013,0,24,24,35,1,7,9,7 | 9,2,1.9756,1.4111,incongruent,right,,,,,,stimulusFile/magnitude.xlsx,,,,,,,,,,,,,,,,,,,,,,,,,,,,,,,
,,,,,,,,,,,,,,,746,2022-01-20_18h36.41.111,multiplicationStroop,2021.2.3,Win32,59.94485074,,,,,right,1,0.484,0,25,25,64,1,1,6,1 | 6,5,1.6933,1.6933,neutral,right,,,,,,stimulusFile/magnitude.xlsx,,,,,,,,,,,,,,,,,,,,,,,,,,,,,,,
,,,,,,,,,,,,,,,746,2022-01-20_18h36.41.111,multiplicationStroop,2021.2.3,Win32,59.94485074,,,,,left,1,0.4872,0,26,26,22,1,8,3,8 | 3,5,1.9756,1.4111,congruent,left,,,,,,stimulusFile/magnitude.xlsx,,,,,,,,,,,,,,,,,,,,,,,,,,,,,,,
,,,,,,,,,,,,,,,746,2022-01-20_18h36.41.111,multiplicationStroop,2021.2.3,Win32,59.94485074,,,,,left,1,0.5847,0,27,27,62,1,8,6,8 | 6,2,1.6933,1.6933,neutral,left,,,,,,stimulusFile/magnitude.xlsx,,,,,,,,,,,,,,,,,,,,,,,,,,,,,,,
,,,,,,,,,,,,,,,746,2022-01-20_18h36.41.111,multiplicationStroop,2021.2.3,Win32,59.94485074,,,,,left,1,0.4673,0,28,28,45,1,7,2,7 | 2,5,1.4111,1.9756,incongruent,left,,,,,,stimulusFile/magnitude.xlsx,,,,,,,,,,,,,,,,,,,,,,,,,,,,,,,
,,,,,,,,,,,,,,,746,2022-01-20_18h36.41.111,multiplicationStroop,2021.2.3,Win32,59.94485074,,,,,left,1,0.6241,0,29,29,63,1,9,7,9 | 7,2,1.6933,1.6933,neutral,left,,,,,,stimulusFile/magnitude.xlsx,,,,,,,,,,,,,,,,,,,,,,,,,,,,,,,
,,,,,,,,,,,,,,,746,2022-01-20_18h36.41.111,multiplicationStroop,2021.2.3,Win32,59.94485074,,,,,left,1,0.3882,0,30,30,5,1,4,3,4 | 3,1,1.9756,1.4111,congruent,left,,,,,,stimulusFile/magnitude.xlsx,,,,,,,,,,,,,,,,,,,,,,,,,,,,,,,
,,,,,,,,,,,,,,,746,2022-01-20_18h36.41.111,multiplicationStroop,2021.2.3,Win32,59.94485074,,,,,right,1,0.5838,0,31,31,67,1,4,9,4 | 9,5,1.6933,1.6933,neutral,right,,,,,,stimulusFile/magnitude.xlsx,,,,,,,,,,,,,,,,,,,,,,,,,,,,,,,
,,,,,,,,,,,,,,,746,2022-01-20_18h36.41.111,multiplicationStroop,2021.2.3,Win32,59.94485074,,,,,right,1,0.5671,0,32,32,66,1,3,8,3 | 8,5,1.6933,1.6933,neutral,right,,,,,,stimulusFile/magnitude.xlsx,,,,,,,,,,,,,,,,,,,,,,,,,,,,,,,
,,,,,,,,,,,,,,,746,2022-01-20_18h36.41.111,multiplicationStroop,2021.2.3,Win32,59.94485074,,,,,left,1,0.5247,0,33,33,38,1,8,6,8 | 6,2,1.4111,1.9756,incongruent,left,,,,,,stimulusFile/magnitude.xlsx,,,,,,,,,,,,,,,,,,,,,,,,,,,,,,,
,,,,,,,,,,,,,,,746,2022-01-20_18h36.41.111,multiplicationStroop,2021.2.3,Win32,59.94485074,,,,,left,1,0.5339,0,34,34,46,1,8,3,8 | 3,5,1.4111,1.9756,incongruent,left,,,,,,stimulusFile/magnitude.xlsx,,,,,,,,,,,,,,,,,,,,,,,,,,,,,,,
,,,,,,,,,,,,,,,746,2022-01-20_18h36.41.111,multiplicationStroop,2021.2.3,Win32,59.94485074,,,,,right,1,0.5727,0,35,35,51,1,8,9,8 | 9,1,1.6933,1.6933,neutral,right,,,,,,stimulusFile/magnitude.xlsx,,,,,,,,,,,,,,,,,,,,,,,,,,,,,,,
,,,,,,,,,,,,,,,746,2022-01-20_18h36.41.111,multiplicationStroop,2021.2.3,Win32,59.94485074,,,,,right,1,0.4673,0,36,36,56,1,1,3,1 | 3,2,1.6933,1.6933,neutral,right,,,,,,stimulusFile/magnitude.xlsx,,,,,,,,,,,,,,,,,,,,,,,,,,,,,,,
,,,,,,,,,,,,,,,746,2022-01-20_18h36.41.111,multiplicationStroop,2021.2.3,Win32,59.94485074,,,,,left,1,0.5883,0,37,37,7,1,9,8,9 | 8,1,1.9756,1.4111,congruent,left,,,,,,stimulusFile/magnitude.xlsx,,,,,,,,,,,,,,,,,,,,,,,,,,,,,,,
,,,,,,,,,,,,,,,746,2022-01-20_18h36.41.111,multiplicationStroop,2021.2.3,Win32,59.94485074,,,,,right,1,0.6905,0,38,38,10,1,6,8,6 | 8,2,1.4111,1.9756,congruent,right,,,,,,stimulusFile/magnitude.xlsx,,,,,,,,,,,,,,,,,,,,,,,,,,,,,,,
,,,,,,,,,,,,,,,746,2022-01-20_18h36.41.111,multiplicationStroop,2021.2.3,Win32,59.94485074,,,,,right,1,0.434,0,39,39,2,1,6,7,6 | 7,1,1.4111,1.9756,congruent,right,,,,,,stimulusFile/magnitude.xlsx,,,,,,,,,,,,,,,,,,,,,,,,,,,,,,,
,,,,,,,,,,,,,,,746,2022-01-20_18h36.41.111,multiplicationStroop,2021.2.3,Win32,59.94485074,,,,,left,1,0.4674,0,40,40,15,1,9,7,9 | 7,2,1.9756,1.4111,congruent,left,,,,,,stimulusFile/magnitude.xlsx,,,,,,,,,,,,,,,,,,,,,,,,,,,,,,,
,,,,,,,,,,,,,,,746,2022-01-20_18h36.41.111,multiplicationStroop,2021.2.3,Win32,59.94485074,,,,,right,1,0.4253,0,41,41,58,1,6,8,6 | 8,2,1.6933,1.6933,neutral,right,,,,,,stimulusFile/magnitude.xlsx,,,,,,,,,,,,,,,,,,,,,,,,,,,,,,,
,,,,,,,,,,,,,,,746,2022-01-20_18h36.41.111,multiplicationStroop,2021.2.3,Win32,59.94485074,,,,,left,1,0.7175,0,42,42,12,1,3,1,3 | 1,2,1.9756,1.4111,congruent,left,,,,,,stimulusFile/magnitude.xlsx,,,,,,,,,,,,,,,,,,,,,,,,,,,,,,,
,,,,,,,,,,,,,,,746,2022-01-20_18h36.41.111,multiplicationStroop,2021.2.3,Win32,59.94485074,,,,,left,1,0.501,0,43,43,68,1,6,1,6 | 1,5,1.6933,1.6933,neutral,left,,,,,,stimulusFile/magnitude.xlsx,,,,,,,,,,,,,,,,,,,,,,,,,,,,,,,
,,,,,,,,,,,,,,,746,2022-01-20_18h36.41.111,multiplicationStroop,2021.2.3,Win32,59.94485074,,,,,right,1,0.406,0,44,44,57,1,2,4,2 | 4,2,1.6933,1.6933,neutral,right,,,,,,stimulusFile/magnitude.xlsx,,,,,,,,,,,,,,,,,,,,,,,,,,,,,,,
,,,,,,,,,,,,,,,746,2022-01-20_18h36.41.111,multiplicationStroop,2021.2.3,Win32,59.94485074,,,,,left,1,0.8173,0,45,45,31,1,9,8,9 | 8,1,1.4111,1.9756,incongruent,left,,,,,,stimulusFile/magnitude.xlsx,,,,,,,,,,,,,,,,,,,,,,,,,,,,,,,
,,,,,,,,,,,,,,,746,2022-01-20_18h36.41.111,multiplicationStroop,2021.2.3,Win32,59.94485074,,,,,right,1,0.4869,0,46,46,65,1,2,7,2 | 7,5,1.6933,1.6933,neutral,right,,,,,,stimulusFile/magnitude.xlsx,,,,,,,,,,,,,,,,,,,,,,,,,,,,,,,
,,,,,,,,,,,,,,,746,2022-01-20_18h36.41.111,multiplicationStroop,2021.2.3,Win32,59.94485074,,,,,left,1,0.4239,0,47,47,61,1,4,2,4 | 2,2,1.6933,1.6933,neutral,left,,,,,,stimulusFile/magnitude.xlsx,,,,,,,,,,,,,,,,,,,,,,,,,,,,,,,
,,,,,,,,,,,,,,,746,2022-01-20_18h36.41.111,multiplicationStroop,2021.2.3,Win32,59.94485074,,,,,left,1,0.684,0,48,48,54,1,7,6,7 | 6,1,1.6933,1.6933,neutral,left,,,,,,stimulusFile/magnitude.xlsx,,,,,,,,,,,,,,,,,,,,,,,,,,,,,,,
,,,,,,,,,,,,,,,746,2022-01-20_18h36.41.111,multiplicationStroop,2021.2.3,Win32,59.94485074,,,,,left,1,0.4854,0,49,49,60,1,3,1,3 | 1,2,1.6933,1.6933,neutral,left,,,,,,stimulusFile/magnitude.xlsx,,,,,,,,,,,,,,,,,,,,,,,,,,,,,,,
,,,,,,,,,,,,,,,746,2022-01-20_18h36.41.111,multiplicationStroop,2021.2.3,Win32,59.94485074,,,,,left,1,0.5507,0,50,50,23,1,9,4,9 | 4,5,1.9756,1.4111,congruent,left,,,,,,stimulusFile/magnitude.xlsx,,,,,,,,,,,,,,,,,,,,,,,,,,,,,,,
,,,,,,,,,,,,,,,746,2022-01-20_18h36.41.111,multiplicationStroop,2021.2.3,Win32,59.94485074,,,,,right,1,0.4703,0,51,51,50,1,6,7,6 | 7,1,1.6933,1.6933,neutral,right,,,,,,stimulusFile/magnitude.xlsx,,,,,,,,,,,,,,,,,,,,,,,,,,,,,,,
,,,,,,,,,,,,,,,746,2022-01-20_18h36.41.111,multiplicationStroop,2021.2.3,Win32,59.94485074,,,,,left,1,0.4878,0,52,52,21,1,7,2,7 | 2,5,1.9756,1.4111,congruent,left,,,,,,stimulusFile/magnitude.xlsx,,,,,,,,,,,,,,,,,,,,,,,,,,,,,,,
,,,,,,,,,,,,,,,746,2022-01-20_18h36.41.111,multiplicationStroop,2021.2.3,Win32,59.94485074,,,,,right,1,0.3836,0,53,53,3,1,8,9,8 | 9,1,1.4111,1.9756,congruent,right,,,,,,stimulusFile/magnitude.xlsx,,,,,,,,,,,,,,,,,,,,,,,,,,,,,,,
,,,,,,,,,,,,,,,746,2022-01-20_18h36.41.111,multiplicationStroop,2021.2.3,Win32,59.94485074,,,,,left,1,0.5671,0,54,54,14,1,8,6,8 | 6,2,1.9756,1.4111,congruent,left,,,,,,stimulusFile/magnitude.xlsx,,,,,,,,,,,,,,,,,,,,,,,,,,,,,,,
,,,,,,,,,,,,,,,746,2022-01-20_18h36.41.111,multiplicationStroop,2021.2.3,Win32,59.94485074,,,,,right,1,0.5412,0,55,55,1,1,3,4,3 | 4,1,1.4111,1.9756,congruent,right,,,,,,stimulusFile/magnitude.xlsx,,,,,,,,,,,,,,,,,,,,,,,,,,,,,,,
,,,,,,,,,,,,,,,746,2022-01-20_18h36.41.111,multiplicationStroop,2021.2.3,Win32,59.94485074,,,,,right,1,0.5241,0,56,56,17,1,2,7,2 | 7,5,1.4111,1.9756,congruent,right,,,,,,stimulusFile/magnitude.xlsx,,,,,,,,,,,,,,,,,,,,,,,,,,,,,,,
,,,,,,,,,,,,,,,746,2022-01-20_18h36.41.111,multiplicationStroop,2021.2.3,Win32,59.94485074,,,,,left,1,0.5004,0,57,57,71,1,9,4,9 | 4,5,1.6933,1.6933,neutral,left,,,,,,stimulusFile/magnitude.xlsx,,,,,,,,,,,,,,,,,,,,,,,,,,,,,,,
,,,,,,,,,,,,,,,746,2022-01-20_18h36.41.111,multiplicationStroop,2021.2.3,Win32,59.94485074,,,,,right,1,0.5007,0,58,58,42,1,3,8,3 | 8,5,1.9756,1.4111,incongruent,right,,,,,,stimulusFile/magnitude.xlsx,,,,,,,,,,,,,,,,,,,,,,,,,,,,,,,
,,,,,,,,,,,,,,,746,2022-01-20_18h36.41.111,multiplicationStroop,2021.2.3,Win32,59.94485074,,,,,left,1,0.6054,0,59,59,52,1,2,1,2 | 1,1,1.6933,1.6933,neutral,left,,,,,,stimulusFile/magnitude.xlsx,,,,,,,,,,,,,,,,,,,,,,,,,,,,,,,
,,,,,,,,,,,,,,,746,2022-01-20_18h36.41.111,multiplicationStroop,2021.2.3,Win32,59.94485074,,,,,right,1,0.4748,0,60,60,48,1,1,2,1 | 2,1,1.6933,1.6933,neutral,right,,,,,,stimulusFile/magnitude.xlsx,,,,,,,,,,,,,,,,,,,,,,,,,,,,,,,
,,,,,,,,,,,,,,,746,2022-01-20_18h36.41.111,multiplicationStroop,2021.2.3,Win32,59.94485074,,,,,right,1,0.6202,0,61,61,27,1,8,9,8 | 9,1,1.9756,1.4111,incongruent,right,,,,,,stimulusFile/magnitude.xlsx,,,,,,,,,,,,,,,,,,,,,,,,,,,,,,,
,,,,,,,,,,,,,,,746,2022-01-20_18h36.41.111,multiplicationStroop,2021.2.3,Win32,59.94485074,,,,,left,1,0.5203,0,62,62,70,1,8,3,8 | 3,5,1.6933,1.6933,neutral,left,,,,,,stimulusFile/magnitude.xlsx,,,,,,,,,,,,,,,,,,,,,,,,,,,,,,,
,,,,,,,,,,,,,,,746,2022-01-20_18h36.41.111,multiplicationStroop,2021.2.3,Win32,59.94485074,,,,,left,1,0.8507,0,63,63,29,1,4,3,4 | 3,1,1.4111,1.9756,incongruent,left,,,,,,stimulusFile/magnitude.xlsx,,,,,,,,,,,,,,,,,,,,,,,,,,,,,,,
,,,,,,,,,,,,,,,746,2022-01-20_18h36.41.111,multiplicationStroop,2021.2.3,Win32,59.94485074,,,,,right,1,0.4918,0,64,64,32,1,1,3,1 | 3,2,1.9756,1.4111,incongruent,right,,,,,,stimulusFile/magnitude.xlsx,,,,,,,,,,,,,,,,,,,,,,,,,,,,,,,
,,,,,,,,,,,,,,,746,2022-01-20_18h36.41.111,multiplicationStroop,2021.2.3,Win32,59.94485074,,,,,right,1,0.5671,0,65,65,49,1,3,4,3 | 4,1,1.6933,1.6933,neutral,right,,,,,,stimulusFile/magnitude.xlsx,,,,,,,,,,,,,,,,,,,,,,,,,,,,,,,
,,,,,,,,,,,,,,,746,2022-01-20_18h36.41.111,multiplicationStroop,2021.2.3,Win32,59.94485074,,,,,left,1,0.4507,0,66,66,4,1,2,1,2 | 1,1,1.9756,1.4111,congruent,left,,,,,,stimulusFile/magnitude.xlsx,,,,,,,,,,,,,,,,,,,,,,,,,,,,,,,
,,,,,,,,,,,,,,,746,2022-01-20_18h36.41.111,multiplicationStroop,2021.2.3,Win32,59.94485074,,,,,left,1,0.6217,0,67,67,39,1,9,7,9 | 7,2,1.4111,1.9756,incongruent,left,,,,,,stimulusFile/magnitude.xlsx,,,,,,,,,,,,,,,,,,,,,,,,,,,,,,,
,,,,,,,,,,,,,,,746,2022-01-20_18h36.41.111,multiplicationStroop,2021.2.3,Win32,59.94485074,,,,,right,1,0.4671,0,68,68,24,1,1,2,1 | 2,1,1.9756,1.4111,incongruent,right,,,,,,stimulusFile/magnitude.xlsx,,,,,,,,,,,,,,,,,,,,,,,,,,,,,,,
,,,,,,,,,,,,,,,746,2022-01-20_18h36.41.111,multiplicationStroop,2021.2.3,Win32,59.94485074,,,,,right,1,0.5171,0,69,69,0,1,1,2,1 | 2,1,1.4111,1.9756,congruent,right,,,,,,stimulusFile/magnitude.xlsx,,,,,,,,,,,,,,,,,,,,,,,,,,,,,,,
,,,,,,,,,,,,,,,746,2022-01-20_18h36.41.111,multiplicationStroop,2021.2.3,Win32,59.94485074,,,,,left,1,0.5074,0,70,70,37,1,4,2,4 | 2,2,1.4111,1.9756,incongruent,left,,,,,,stimulusFile/magnitude.xlsx,,,,,,,,,,,,,,,,,,,,,,,,,,,,,,,
,,,,,,,,,,,,,,,746,2022-01-20_18h36.41.111,multiplicationStroop,2021.2.3,Win32,59.94485074,,,,,right,1,0.6339,0,71,71,33,1,2,4,2 | 4,2,1.9756,1.4111,incongruent,right,,,,,,stimulusFile/magnitude.xlsx,,,,,,,,,,,,,,,,,,,,,,,,,,,,,,,
,,,,,,,,,,,,,,,746,2022-01-20_18h36.41.111,multiplicationStroop,2021.2.3,Win32,59.94485074,,,,,,,,,,,,,,,,,,,,,0,1,1,0,1,stimulusFile/magnitude.xlsx,NUMERICALLY larger (larger coefficient).,images/numericallyLarger.png,,,,,,,,,,,,,,,,,,,,,,,,,,,,,
,,,,,,,,,,,,,,,746,2022-01-20_18h36.41.111,multiplicationStroop,2021.2.3,Win32,59.94485074,,,,,,,,,,,,,,,,,,,,,,,,,,,,,space,13.5317,space,1.6449,32,3.4067,1,0,0,0,23,1,8,×,4,8 × 4,neutral,largerFirst,1.5,1.5,32,,,,,,,,
,,,,,,,,,,,,,,,746,2022-01-20_18h36.41.111,multiplicationStroop,2021.2.3,Win32,59.94485074,,,,,,,,,,,,,,,,,,,,,,,,,,,,,,,,,36,7.4155,1,0,1,1,27,1,9,×,4,9 × 4,neutral,largerFirst,1.5,1.5,36,,,,,,,,
,,,,,,,,,,,,,,,746,2022-01-20_18h36.41.111,multiplicationStroop,2021.2.3,Win32,59.94485074,,,,,,,,,,,,,,,,,,,,,,,,,,,,,,,,,35,2.09,1,0,2,2,1,1,5,×,7,5 × 7,neutral,smallerFirst,1.5,1.5,35,,,,,,,,
,,,,,,,,,,,,,,,746,2022-01-20_18h36.41.111,multiplicationStroop,2021.2.3,Win32,59.94485074,,,,,,,,,,,,,,,,,,,,,,,,,,,,,,,,,20,2.2328,1,0,3,3,20,1,5,×,4,5 × 4,neutral,largerFirst,1.5,1.5,20,,,,,,,,
,,,,,,,,,,,,,,,746,2022-01-20_18h36.41.111,multiplicationStroop,2021.2.3,Win32,59.94485074,,,,,,,,,,,,,,,,,,,,,,,,,,,,,,,,,87,3.2657,0,0,4,4,35,1,9,×,9,9 × 9,neutral,tie,1.5,1.5,81,,,,,,,,
,,,,,,,,,,,,,,,746,2022-01-20_18h36.41.111,multiplicationStroop,2021.2.3,Win32,59.94485074,,,,,,,,,,,,,,,,,,,,,,,,,,,,,,,,,6,2.033,1,0,5,5,26,1,3,×,2,3 × 2,neutral,largerFirst,1.5,1.5,6,,,,,,,,
,,,,,,,,,,,,,,,746,2022-01-20_18h36.41.111,multiplicationStroop,2021.2.3,Win32,59.94485074,,,,,,,,,,,,,,,,,,,,,,,,,,,,,,,,,45,2.0326,1,0,6,6,10,1,5,×,9,5 × 9,neutral,smallerFirst,1.5,1.5,45,,,,,,,,
,,,,,,,,,,,,,,,746,2022-01-20_18h36.41.111,multiplicationStroop,2021.2.3,Win32,59.94485074,,,,,,,,,,,,,,,,,,,,,,,,,,,,,,,,,14,2.3662,1,0,7,7,16,1,7,×,2,7 × 2,neutral,largerFirst,1.5,1.5,14,,,,,,,,
,,,,,,,,,,,,,,,746,2022-01-20_18h36.41.111,multiplicationStroop,2021.2.3,Win32,59.94485074,,,,,,,,,,,,,,,,,,,,,,,,,,,,,,,,,21,1.9238,1,0,8,8,8,1,3,×,7,3 × 7,neutral,smallerFirst,1.5,1.5,21,,,,,,,,
,,,,,,,,,,,,,,,746,2022-01-20_18h36.41.111,multiplicationStroop,2021.2.3,Win32,59.94485074,,,,,,,,,,,,,,,,,,,,,,,,,,,,,,,,,4,1.4995,1,0,9,9,28,1,2,×,2,2 × 2,neutral,tie,1.5,1.5,4,,,,,,,,
,,,,,,,,,,,,,,,746,2022-01-20_18h36.41.111,multiplicationStroop,2021.2.3,Win32,59.94485074,,,,,,,,,,,,,,,,,,,,,,,,,,,,,,,,,12,2.7327,1,0,10,10,21,1,4,×,3,4 × 3,neutral,largerFirst,1.5,1.5,12,,,,,,,,
,,,,,,,,,,,,,,,746,2022-01-20_18h36.41.111,multiplicationStroop,2021.2.3,Win32,59.94485074,,,,,,,,,,,,,,,,,,,,,,,,,,,,,,,,,54,2.7073,1,0,11,11,7,1,6,×,9,6 × 9,neutral,smallerFirst,1.5,1.5,54,,,,,,,,
,,,,,,,,,,,,,,,746,2022-01-20_18h36.41.111,multiplicationStroop,2021.2.3,Win32,59.94485074,,,,,,,,,,,,,,,,,,,,,,,,,,,,,,,,,18,2.4663,1,0,12,12,0,1,3,×,6,3 × 6,neutral,smallerFirst,1.5,1.5,18,,,,,,,,
,,,,,,,,,,,,,,,746,2022-01-20_18h36.41.111,multiplicationStroop,2021.2.3,Win32,59.94485074,,,,,,,,,,,,,,,,,,,,,,,,,,,,,,,,,16,2.0329,1,0,13,13,13,1,2,×,8,2 × 8,neutral,smallerFirst,1.5,1.5,16,,,,,,,,
,,,,,,,,,,,,,,,746,2022-01-20_18h36.41.111,multiplicationStroop,2021.2.3,Win32,59.94485074,,,,,,,,,,,,,,,,,,,,,,,,,,,,,,,,,18,2.0326,1,0,14,14,18,1,9,×,2,9 × 2,neutral,largerFirst,1.5,1.5,18,,,,,,,,
,,,,,,,,,,,,,,,746,2022-01-20_18h36.41.111,multiplicationStroop,2021.2.3,Win32,59.94485074,,,,,,,,,,,,,,,,,,,,,,,,,,,,,,,,,27,2.7663,1,0,15,15,14,1,9,×,3,9 × 3,neutral,largerFirst,1.5,1.5,27,,,,,,,,
,,,,,,,,,,,,,,,746,2022-01-20_18h36.41.111,multiplicationStroop,2021.2.3,Win32,59.94485074,,,,,,,,,,,,,,,,,,,,,,,,,,,,,,,,,36,7.8233,1,0,16,16,32,1,6,×,6,6 × 6,neutral,tie,1.5,1.5,36,,,,,,,,
,,,,,,,,,,,,,,,746,2022-01-20_18h36.41.111,multiplicationStroop,2021.2.3,Win32,59.94485074,,,,,,,,,,,,,,,,,,,,,,,,,,,,,,,,,15,1.8242,1,0,17,17,5,1,3,×,5,3 × 5,neutral,smallerFirst,1.5,1.5,15,,,,,,,,
,,,,,,,,,,,,,,,746,2022-01-20_18h36.41.111,multiplicationStroop,2021.2.3,Win32,59.94485074,,,,,,,,,,,,,,,,,,,,,,,,,,,,,,,,,64,1.833,1,0,18,18,34,1,8,×,8,8 × 8,neutral,tie,1.5,1.5,64,,,,,,,,
,,,,,,,,,,,,,,,746,2022-01-20_18h36.41.111,multiplicationStroop,2021.2.3,Win32,59.94485074,,,,,,,,,,,,,,,,,,,,,,,,,,,,,,,,,12,1.6829,1,0,19,19,25,1,6,×,2,6 × 2,neutral,largerFirst,1.5,1.5,12,,,,,,,,
,,,,,,,,,,,,,,,746,2022-01-20_18h36.41.111,multiplicationStroop,2021.2.3,Win32,59.94485074,,,,,,,,,,,,,,,,,,,,,,,,,,,,,,,,,10,1.6991,1,0,20,20,4,1,2,×,5,2 × 5,neutral,smallerFirst,1.5,1.5,10,,,,,,,,
,,,,,,,,,,,,,,,746,2022-01-20_18h36.41.111,multiplicationStroop,2021.2.3,Win32,59.94485074,,,,,,,,,,,,,,,,,,,,,,,,,,,,,,,,,8,2.183,1,0,21,21,3,1,2,×,4,2 × 4,neutral,smallerFirst,1.5,1.5,8,,,,,,,,
,,,,,,,,,,,,,,,746,2022-01-20_18h36.41.111,multiplicationStroop,2021.2.3,Win32,59.94485074,,,,,,,,,,,,,,,,,,,,,,,,,,,,,,,,,56,2.2325,1,0,22,22,9,1,7,×,8,7 × 8,neutral,smallerFirst,1.5,1.5,56,,,,,,,,
,,,,,,,,,,,,,,,746,2022-01-20_18h36.41.111,multiplicationStroop,2021.2.3,Win32,59.94485074,,,,,,,,,,,,,,,,,,,,,,,,,,,,,,,,,9,3.983,1,0,23,23,29,1,3,×,3,3 × 3,neutral,tie,1.5,1.5,9,,,,,,,,
,,,,,,,,,,,,,,,746,2022-01-20_18h36.41.111,multiplicationStroop,2021.2.3,Win32,59.94485074,,,,,,,,,,,,,,,,,,,,,,,,,,,,,,,,,28,4.0903,1,0,24,24,17,1,7,×,4,7 × 4,neutral,largerFirst,1.5,1.5,28,,,,,,,,
,,,,,,,,,,,,,,,746,2022-01-20_18h36.41.111,multiplicationStroop,2021.2.3,Win32,59.94485074,,,,,,,,,,,,,,,,,,,,,,,,,,,,,,,,,24,2.6909,1,0,25,25,2,1,4,×,6,4 × 6,neutral,smallerFirst,1.5,1.5,24,,,,,,,,
,,,,,,,,,,,,,,,746,2022-01-20_18h36.41.111,multiplicationStroop,2021.2.3,Win32,59.94485074,,,,,,,,,,,,,,,,,,,,,,,,,,,,,,,,,30,2.2737,1,0,26,26,19,1,6,×,5,6 × 5,neutral,largerFirst,1.5,1.5,30,,,,,,,,
,,,,,,,,,,,,,,,746,2022-01-20_18h36.41.111,multiplicationStroop,2021.2.3,Win32,59.94485074,,,,,,,,,,,,,,,,,,,,,,,,,,,,,,,,,24,2.2162,1,0,27,27,22,1,8,×,3,8 × 3,neutral,largerFirst,1.5,1.5,24,,,,,,,,
,,,,,,,,,,,,,,,746,2022-01-20_18h36.41.111,multiplicationStroop,2021.2.3,Win32,59.94485074,,,,,,,,,,,,,,,,,,,,,,,,,,,,,,,,,42,3.6327,1,0,28,28,6,1,6,×,7,6 × 7,neutral,smallerFirst,1.5,1.5,42,,,,,,,,
,,,,,,,,,,,,,,,746,2022-01-20_18h36.41.111,multiplicationStroop,2021.2.3,Win32,59.94485074,,,,,,,,,,,,,,,,,,,,,,,,,,,,,,,,,48,5.4406,1,0,29,29,15,1,8,×,6,8 × 6,neutral,largerFirst,1.5,1.5,48,,,,,,,,
,,,,,,,,,,,,,,,746,2022-01-20_18h36.41.111,multiplicationStroop,2021.2.3,Win32,59.94485074,,,,,,,,,,,,,,,,,,,,,,,,,,,,,,,,,40,2.324,1,0,30,30,24,1,8,×,5,8 × 5,neutral,largerFirst,1.5,1.5,40,,,,,,,,
,,,,,,,,,,,,,,,746,2022-01-20_18h36.41.111,multiplicationStroop,2021.2.3,Win32,59.94485074,,,,,,,,,,,,,,,,,,,,,,,,,,,,,,,,,16,2.7572,1,0,31,31,30,1,4,×,4,4 × 4,neutral,tie,1.5,1.5,16,,,,,,,,
,,,,,,,,,,,,,,,746,2022-01-20_18h36.41.111,multiplicationStroop,2021.2.3,Win32,59.94485074,,,,,,,,,,,,,,,,,,,,,,,,,,,,,,,,,63,6.5994,1,0,32,32,12,1,7,×,9,7 × 9,neutral,smallerFirst,1.5,1.5,63,,,,,,,,
,,,,,,,,,,,,,,,746,2022-01-20_18h36.41.111,multiplicationStroop,2021.2.3,Win32,59.94485074,,,,,,,,,,,,,,,,,,,,,,,,,,,,,,,,,56,2.1406,0,0,33,33,11,1,8,×,9,8 × 9,neutral,smallerFirst,1.5,1.5,72,,,,,,,,
,,,,,,,,,,,,,,,746,2022-01-20_18h36.41.111,multiplicationStroop,2021.2.3,Win32,59.94485074,,,,,,,,,,,,,,,,,,,,,,,,,,,,,,,,,49,2.2161,1,0,34,34,33,1,7,×,7,7 × 7,neutral,tie,1.5,1.5,49,,,,,,,,
,,,,,,,,,,,,,,,746,2022-01-20_18h36.41.111,multiplicationStroop,2021.2.3,Win32,59.94485074,,,,,,,,,,,,,,,,,,,,,,,,,,,,,,,,,25,2.0327,1,0,35,35,31,1,5,×,5,5 × 5,neutral,tie,1.5,1.5,25,,,,,,,,
,,,,,,,,,,,,,,,746,2022-01-20_18h36.41.111,multiplicationStroop,2021.2.3,Win32,59.94485074,,,,,,,,,,,,,,,,,,,,,,,,,,,,,,,,,,,,,,,,,,,,,,,,,,0,0,0,1,1,stimulusFile/mult_blk2.xlsx,,
,,,,,,,,,,,,,,,746,2022-01-20_18h36.41.111,multiplicationStroop,2021.2.3,Win32,59.94485074,,,,,,,,,,,,,,,,,,,,,,,,,,,,,,,space,1.6675,8,2.4909,1,0,0,0,17,1,4,×,2,4 × 2,neutral,largerFirst,1.5,1.5,8,,,,,,,,
,,,,,,,,,,,,,,,746,2022-01-20_18h36.41.111,multiplicationStroop,2021.2.3,Win32,59.94485074,,,,,,,,,,,,,,,,,,,,,,,,,,,,,,,,,6,1.8994,1,0,1,1,12,1,2,×,3,2 × 3,neutral,smallerFirst,1.5,1.5,6,,,,,,,,
,,,,,,,,,,,,,,,746,2022-01-20_18h36.41.111,multiplicationStroop,2021.2.3,Win32,59.94485074,,,,,,,,,,,,,,,,,,,,,,,,,,,,,,,,,28,3.8324,1,0,2,2,3,1,4,×,7,4 × 7,neutral,smallerFirst,1.5,1.5,28,,,,,,,,
,,,,,,,,,,,,,,,746,2022-01-20_18h36.41.111,multiplicationStroop,2021.2.3,Win32,59.94485074,,,,,,,,,,,,,,,,,,,,,,,,,,,,,,,,,32,2.841,1,0,3,3,9,1,4,×,8,4 × 8,neutral,smallerFirst,1.5,1.5,32,,,,,,,,
,,,,,,,,,,,,,,,746,2022-01-20_18h36.41.111,multiplicationStroop,2021.2.3,Win32,59.94485074,,,,,,,,,,,,,,,,,,,,,,,,,,,,,,,,,35,4.4906,1,0,4,4,15,1,7,×,5,7 × 5,neutral,largerFirst,1.5,1.5,35,,,,,,,,
,,,,,,,,,,,,,,,746,2022-01-20_18h36.41.111,multiplicationStroop,2021.2.3,Win32,59.94485074,,,,,,,,,,,,,,,,,,,,,,,,,,,,,,,,,30,2.4907,1,0,5,5,5,1,5,×,6,5 × 6,neutral,smallerFirst,1.5,1.5,30,,,,,,,,
,,,,,,,,,,,,,,,746,2022-01-20_18h36.41.111,multiplicationStroop,2021.2.3,Win32,59.94485074,,,,,,,,,,,,,,,,,,,,,,,,,,,,,,,,,10,1.8659,1,0,6,6,18,1,5,×,2,5 × 2,neutral,largerFirst,1.5,1.5,10,,,,,,,,
,,,,,,,,,,,,,,,746,2022-01-20_18h36.41.111,multiplicationStroop,2021.2.3,Win32,59.94485074,,,,,,,,,,,,,,,,,,,,,,,,,,,,,,,,,42,4.1659,1,0,7,7,20,1,7,×,6,7 × 6,neutral,largerFirst,1.5,1.5,42,,,,,,,,
,,,,,,,,,,,,,,,746,2022-01-20_18h36.41.111,multiplicationStroop,2021.2.3,Win32,59.94485074,,,,,,,,,,,,,,,,,,,,,,,,,,,,,,,,,54,2.774,1,0,8,8,21,1,9,×,6,9 × 6,neutral,largerFirst,1.5,1.5,54,,,,,,,,
,,,,,,,,,,,,,,,746,2022-01-20_18h36.41.111,multiplicationStroop,2021.2.3,Win32,59.94485074,,,,,,,,,,,,,,,,,,,,,,,,,,,,,,,,,72,7.5562,1,0,9,9,25,1,9,×,8,9 × 8,neutral,largerFirst,1.5,1.5,72,,,,,,,,
,,,,,,,,,,,,,,,746,2022-01-20_18h36.41.111,multiplicationStroop,2021.2.3,Win32,59.94485074,,,,,,,,,,,,,,,,,,,,,,,,,,,,,,,,,40,4.9072,1,0,10,10,10,1,5,×,8,5 × 8,neutral,smallerFirst,1.5,1.5,40,,,,,,,,
,,,,,,,,,,,,,,,746,2022-01-20_18h36.41.111,multiplicationStroop,2021.2.3,Win32,59.94485074,,,,,,,,,,,,,,,,,,,,,,,,,,,,,,,,,18,2.2404,1,0,11,11,4,1,2,×,9,2 × 9,neutral,smallerFirst,1.5,1.5,18,,,,,,,,
,,,,,,,,,,,,,,,746,2022-01-20_18h36.41.111,multiplicationStroop,2021.2.3,Win32,59.94485074,,,,,,,,,,,,,,,,,,,,,,,,,,,,,,,,,16,1.8496,1,0,12,12,27,1,8,×,2,8 × 2,neutral,largerFirst,1.5,1.5,16,,,,,,,,
,,,,,,,,,,,,,,,746,2022-01-20_18h36.41.111,multiplicationStroop,2021.2.3,Win32,59.94485074,,,,,,,,,,,,,,,,,,,,,,,,,,,,,,,,,18,2.3661,1,0,13,13,14,1,6,×,3,6 × 3,neutral,largerFirst,1.5,1.5,18,,,,,,,,
,,,,,,,,,,,,,,,746,2022-01-20_18h36.41.111,multiplicationStroop,2021.2.3,Win32,59.94485074,,,,,,,,,,,,,,,,,,,,,,,,,,,,,,,,,24,6.1325,1,0,14,14,8,1,3,×,8,3 × 8,neutral,smallerFirst,1.5,1.5,24,,,,,,,,
,,,,,,,,,,,,,,,746,2022-01-20_18h36.41.111,multiplicationStroop,2021.2.3,Win32,59.94485074,,,,,,,,,,,,,,,,,,,,,,,,,,,,,,,,,36,3.9237,1,0,15,15,13,1,4,×,9,4 × 9,neutral,smallerFirst,1.5,1.5,36,,,,,,,,
,,,,,,,,,,,,,,,746,2022-01-20_18h36.41.111,multiplicationStroop,2021.2.3,Win32,59.94485074,,,,,,,,,,,,,,,,,,,,,,,,,,,,,,,,,12,1.5243,1,0,16,16,11,1,2,×,6,2 × 6,neutral,smallerFirst,1.5,1.5,12,,,,,,,,
,,,,,,,,,,,,,,,746,2022-01-20_18h36.41.111,multiplicationStroop,2021.2.3,Win32,59.94485074,,,,,,,,,,,,,,,,,,,,,,,,,,,,,,,,,14,2.2995,1,0,17,17,2,1,2,×,7,2 × 7,neutral,smallerFirst,1.5,1.5,14,,,,,,,,
,,,,,,,,,,,,,,,746,2022-01-20_18h36.41.111,multiplicationStroop,2021.2.3,Win32,59.94485074,,,,,,,,,,,,,,,,,,,,,,,,,,,,,,,,,25,4.4327,1,0,18,18,31,1,5,×,5,5 × 5,neutral,tie,1.5,1.5,25,,,,,,,,
,,,,,,,,,,,,,,,746,2022-01-20_18h36.41.111,multiplicationStroop,2021.2.3,Win32,59.94485074,,,,,,,,,,,,,,,,,,,,,,,,,,,,,,,,,49,2.241,1,0,19,19,33,1,7,×,7,7 × 7,neutral,tie,1.5,1.5,49,,,,,,,,
,,,,,,,,,,,,,,,746,2022-01-20_18h36.41.111,multiplicationStroop,2021.2.3,Win32,59.94485074,,,,,,,,,,,,,,,,,,,,,,,,,,,,,,,,,15,1.7658,1,0,20,20,19,1,5,×,3,5 × 3,neutral,largerFirst,1.5,1.5,15,,,,,,,,
,,,,,,,,,,,,,,,746,2022-01-20_18h36.41.111,multiplicationStroop,2021.2.3,Win32,59.94485074,,,,,,,,,,,,,,,,,,,,,,,,,,,,,,,,,87,9.0325,0,0,21,21,35,1,9,×,9,9 × 9,neutral,tie,1.5,1.5,81,,,,,,,,
,,,,,,,,,,,,,,,746,2022-01-20_18h36.41.111,multiplicationStroop,2021.2.3,Win32,59.94485074,,,,,,,,,,,,,,,,,,,,,,,,,,,,,,,,,64,2.7904,1,0,22,22,34,1,8,×,8,8 × 8,neutral,tie,1.5,1.5,64,,,,,,,,
,,,,,,,,,,,,,,,746,2022-01-20_18h36.41.111,multiplicationStroop,2021.2.3,Win32,59.94485074,,,,,,,,,,,,,,,,,,,,,,,,,,,,,,,,,16,2.9827,1,0,23,23,30,1,4,×,4,4 × 4,neutral,tie,1.5,1.5,16,,,,,,,,
,,,,,,,,,,,,,,,746,2022-01-20_18h36.41.111,multiplicationStroop,2021.2.3,Win32,59.94485074,,,,,,,,,,,,,,,,,,,,,,,,,,,,,,,,,45,2.6161,1,0,24,24,24,1,9,×,5,9 × 5,neutral,largerFirst,1.5,1.5,45,,,,,,,,
,,,,,,,,,,,,,,,746,2022-01-20_18h36.41.111,multiplicationStroop,2021.2.3,Win32,59.94485074,,,,,,,,,,,,,,,,,,,,,,,,,,,,,,,,,27,2.4906,1,0,25,25,0,1,3,×,9,3 × 9,neutral,smallerFirst,1.5,1.5,27,,,,,,,,
,,,,,,,,,,,,,,,746,2022-01-20_18h36.41.111,multiplicationStroop,2021.2.3,Win32,59.94485074,,,,,,,,,,,,,,,,,,,,,,,,,,,,,,,,,9,2.5495,1,0,26,26,29,1,3,×,3,3 × 3,neutral,tie,1.5,1.5,9,,,,,,,,
,,,,,,,,,,,,,,,746,2022-01-20_18h36.41.111,multiplicationStroop,2021.2.3,Win32,59.94485074,,,,,,,,,,,,,,,,,,,,,,,,,,,,,,,,,20,2.1329,1,0,27,27,6,1,4,×,5,4 × 5,neutral,smallerFirst,1.5,1.5,20,,,,,,,,
,,,,,,,,,,,,,,,746,2022-01-20_18h36.41.111,multiplicationStroop,2021.2.3,Win32,59.94485074,,,,,,,,,,,,,,,,,,,,,,,,,,,,,,,,,12,1.8491,1,0,28,28,7,1,3,×,4,3 × 4,neutral,smallerFirst,1.5,1.5,12,,,,,,,,
,,,,,,,,,,,,,,,746,2022-01-20_18h36.41.111,multiplicationStroop,2021.2.3,Win32,59.94485074,,,,,,,,,,,,,,,,,,,,,,,,,,,,,,,,,48,2.9661,1,0,29,29,1,1,6,×,8,6 × 8,neutral,smallerFirst,1.5,1.5,48,,,,,,,,
,,,,,,,,,,,,,,,746,2022-01-20_18h36.41.111,multiplicationStroop,2021.2.3,Win32,59.94485074,,,,,,,,,,,,,,,,,,,,,,,,,,,,,,,,,21,2.3574,1,0,30,30,22,1,7,×,3,7 × 3,neutral,largerFirst,1.5,1.5,21,,,,,,,,
,,,,,,,,,,,,,,,746,2022-01-20_18h36.41.111,multiplicationStroop,2021.2.3,Win32,59.94485074,,,,,,,,,,,,,,,,,,,,,,,,,,,,,,,,,4,1.5325,1,0,31,31,28,1,2,×,2,2 × 2,neutral,tie,1.5,1.5,4,,,,,,,,
,,,,,,,,,,,,,,,746,2022-01-20_18h36.41.111,multiplicationStroop,2021.2.3,Win32,59.94485074,,,,,,,,,,,,,,,,,,,,,,,,,,,,,,,,,56,2.2162,1,0,32,32,23,1,8,×,7,8 × 7,neutral,largerFirst,1.5,1.5,56,,,,,,,,
,,,,,,,,,,,,,,,746,2022-01-20_18h36.41.111,multiplicationStroop,2021.2.3,Win32,59.94485074,,,,,,,,,,,,,,,,,,,,,,,,,,,,,,,,,36,5.3334,1,0,33,33,32,1,6,×,6,6 × 6,neutral,tie,1.5,1.5,36,,,,,,,,
,,,,,,,,,,,,,,,746,2022-01-20_18h36.41.111,multiplicationStroop,2021.2.3,Win32,59.94485074,,,,,,,,,,,,,,,,,,,,,,,,,,,,,,,,,63,2.4569,1,0,34,34,26,1,9,×,7,9 × 7,neutral,largerFirst,1.5,1.5,63,,,,,,,,
,,,,,,,,,,,,,,,746,2022-01-20_18h36.41.111,multiplicationStroop,2021.2.3,Win32,59.94485074,,,,,,,,,,,,,,,,,,,,,,,,,,,,,,,,,24,3.6242,1,0,35,35,16,1,6,×,4,6 × 4,neutral,largerFirst,1.5,1.5,24,,,,,,,,
,,,,,,,,,,,,,,,746,2022-01-20_18h36.41.111,multiplicationStroop,2021.2.3,Win32,59.94485074,,,,,,,,,,,,,,,,,,,,,,,,,,,,,,,,,,,,,,,,,,,,,,,,,,0,1,1,0,1,stimulusFile/mult_blk1.xlsx,,
,,,,,,,,,,,,,,,746,2022-01-20_18h36.41.111,multiplicationStroop,2021.2.3,Win32,59.94485074,,,,,,,,,,,,,,,,,,,,,,,,,,,,,,,space,4.1743,30,4.5266,1,0,0,0,15,1,6,×,5,6 × 5,congruent,largerFirst,2,1,30,,,,,,,,
,,,,,,,,,,,,,,,746,2022-01-20_18h36.41.111,multiplicationStroop,2021.2.3,Win32,59.94485074,,,,,,,,,,,,,,,,,,,,,,,,,,,,,,,,,81,7.9062,1,0,1,1,35,1,9,×,9,9 × 9,neutral,tie,2,1,81,,,,,,,,
,,,,,,,,,,,,,,,746,2022-01-20_18h36.41.111,multiplicationStroop,2021.2.3,Win32,59.94485074,,,,,,,,,,,,,,,,,,,,,,,,,,,,,,,,,36,4.5233,1,0,2,2,32,1,6,×,6,6 × 6,neutral,tie,2,1,36,,,,,,,,
,,,,,,,,,,,,,,,746,2022-01-20_18h36.41.111,multiplicationStroop,2021.2.3,Win32,59.94485074,,,,,,,,,,,,,,,,,,,,,,,,,,,,,,,,,24,3.9572,1,0,3,3,25,1,6,×,4,6 × 4,congruent,largerFirst,2,1,24,,,,,,,,
,,,,,,,,,,,,,,,746,2022-01-20_18h36.41.111,multiplicationStroop,2021.2.3,Win32,59.94485074,,,,,,,,,,,,,,,,,,,,,,,,,,,,,,,,,54,4.9237,1,0,4,4,12,1,6,×,9,6 × 9,congruent,smallerFirst,1,2,54,,,,,,,,
,,,,,,,,,,,,,,,746,2022-01-20_18h36.41.111,multiplicationStroop,2021.2.3,Win32,59.94485074,,,,,,,,,,,,,,,,,,,,,,,,,,,,,,,,,63,4.5405,1,0,5,5,21,1,9,×,7,9 × 7,congruent,largerFirst,2,1,63,,,,,,,,
,,,,,,,,,,,,,,,746,2022-01-20_18h36.41.111,multiplicationStroop,2021.2.3,Win32,59.94485074,,,,,,,,,,,,,,,,,,,,,,,,,,,,,,,,,14,1.9572,1,0,6,6,14,1,7,×,2,7 × 2,congruent,largerFirst,2,1,14,,,,,,,,
,,,,,,,,,,,,,,,746,2022-01-20_18h36.41.111,multiplicationStroop,2021.2.3,Win32,59.94485074,,,,,,,,,,,,,,,,,,,,,,,,,,,,,,,,,9,2.4828,1,0,7,7,29,1,3,×,3,3 × 3,neutral,tie,2,1,9,,,,,,,,
,,,,,,,,,,,,,,,746,2022-01-20_18h36.41.111,multiplicationStroop,2021.2.3,Win32,59.94485074,,,,,,,,,,,,,,,,,,,,,,,,,,,,,,,,,48,4.1738,1,0,8,8,18,1,8,×,6,8 × 6,congruent,largerFirst,2,1,48,,,,,,,,
,,,,,,,,,,,,,,,746,2022-01-20_18h36.41.111,multiplicationStroop,2021.2.3,Win32,59.94485074,,,,,,,,,,,,,,,,,,,,,,,,,,,,,,,,,18,2.7407,1,0,9,9,22,1,9,×,2,9 × 2,congruent,largerFirst,2,1,18,,,,,,,,
,,,,,,,,,,,,,,,746,2022-01-20_18h36.41.111,multiplicationStroop,2021.2.3,Win32,59.94485074,,,,,,,,,,,,,,,,,,,,,,,,,,,,,,,,,20,2.3662,1,0,10,10,7,1,4,×,5,4 × 5,congruent,smallerFirst,1,2,20,,,,,,,,
,,,,,,,,,,,,,,,746,2022-01-20_18h36.41.111,multiplicationStroop,2021.2.3,Win32,59.94485074,,,,,,,,,,,,,,,,,,,,,,,,,,,,,,,,,42,8.9988,1,0,11,11,3,1,6,×,7,6 × 7,congruent,smallerFirst,1,2,42,,,,,,,,
,,,,,,,,,,,,,,,746,2022-01-20_18h36.41.111,multiplicationStroop,2021.2.3,Win32,59.94485074,,,,,,,,,,,,,,,,,,,,,,,,,,,,,,,,,40,2.1227,1,0,12,12,6,1,5,×,8,5 × 8,congruent,smallerFirst,1,2,40,,,,,,,,
,,,,,,,,,,,,,,,746,2022-01-20_18h36.41.111,multiplicationStroop,2021.2.3,Win32,59.94485074,,,,,,,,,,,,,,,,,,,,,,,,,,,,,,,,,18,2.8164,1,0,13,13,11,1,3,×,6,3 × 6,congruent,smallerFirst,1,2,18,,,,,,,,
,,,,,,,,,,,,,,,746,2022-01-20_18h36.41.111,multiplicationStroop,2021.2.3,Win32,59.94485074,,,,,,,,,,,,,,,,,,,,,,,,,,,,,,,,,64,2.55,1,0,14,14,34,1,8,×,8,8 × 8,neutral,tie,2,1,64,,,,,,,,
,,,,,,,,,,,,,,,746,2022-01-20_18h36.41.111,multiplicationStroop,2021.2.3,Win32,59.94485074,,,,,,,,,,,,,,,,,,,,,,,,,,,,,,,,,27,2.9652,1,0,15,15,26,1,9,×,3,9 × 3,congruent,largerFirst,2,1,27,,,,,,,,
,,,,,,,,,,,,,,,746,2022-01-20_18h36.41.111,multiplicationStroop,2021.2.3,Win32,59.94485074,,,,,,,,,,,,,,,,,,,,,,,,,,,,,,,,,24,3.3071,1,0,16,16,10,1,3,×,8,3 × 8,congruent,smallerFirst,1,2,24,,,,,,,,
,,,,,,,,,,,,,,,746,2022-01-20_18h36.41.111,multiplicationStroop,2021.2.3,Win32,59.94485074,,,,,,,,,,,,,,,,,,,,,,,,,,,,,,,,,25,2.5993,1,0,17,17,31,1,5,×,5,5 × 5,neutral,tie,2,1,25,,,,,,,,
,,,,,,,,,,,,,,,746,2022-01-20_18h36.41.111,multiplicationStroop,2021.2.3,Win32,59.94485074,,,,,,,,,,,,,,,,,,,,,,,,,,,,,,,,,21,2.3241,1,0,18,18,16,1,7,×,3,7 × 3,congruent,largerFirst,2,1,21,,,,,,,,
,,,,,,,,,,,,,,,746,2022-01-20_18h36.41.111,multiplicationStroop,2021.2.3,Win32,59.94485074,,,,,,,,,,,,,,,,,,,,,,,,,,,,,,,,,72,6.6658,1,0,19,19,17,1,9,×,8,9 × 8,congruent,largerFirst,2,1,72,,,,,,,,
,,,,,,,,,,,,,,,746,2022-01-20_18h36.41.111,multiplicationStroop,2021.2.3,Win32,59.94485074,,,,,,,,,,,,,,,,,,,,,,,,,,,,,,,,,10,1.924,1,0,20,20,24,1,5,×,2,5 × 2,congruent,largerFirst,2,1,10,,,,,,,,
,,,,,,,,,,,,,,,746,2022-01-20_18h36.41.111,multiplicationStroop,2021.2.3,Win32,59.94485074,,,,,,,,,,,,,,,,,,,,,,,,,,,,,,,,,36,5.6658,1,0,21,21,0,1,4,×,9,4 × 9,congruent,smallerFirst,1,2,36,,,,,,,,
,,,,,,,,,,,,,,,746,2022-01-20_18h36.41.111,multiplicationStroop,2021.2.3,Win32,59.94485074,,,,,,,,,,,,,,,,,,,,,,,,,,,,,,,,,16,2.2407,1,0,22,22,5,1,2,×,8,2 × 8,congruent,smallerFirst,1,2,16,,,,,,,,
,,,,,,,,,,,,,,,746,2022-01-20_18h36.41.111,multiplicationStroop,2021.2.3,Win32,59.94485074,,,,,,,,,,,,,,,,,,,,,,,,,,,,,,,,,6,2.0993,1,0,23,23,13,1,2,×,3,2 × 3,congruent,smallerFirst,1,2,6,,,,,,,,
,,,,,,,,,,,,,,,746,2022-01-20_18h36.41.111,multiplicationStroop,2021.2.3,Win32,59.94485074,,,,,,,,,,,,,,,,,,,,,,,,,,,,,,,,,28,3.1329,1,0,24,24,27,1,7,×,4,7 × 4,congruent,largerFirst,2,1,28,,,,,,,,
,,,,,,,,,,,,,,,746,2022-01-20_18h36.41.111,multiplicationStroop,2021.2.3,Win32,59.94485074,,,,,,,,,,,,,,,,,,,,,,,,,,,,,,,,,56,4.7237,1,0,25,25,8,1,7,×,8,7 × 8,congruent,smallerFirst,1,2,56,,,,,,,,
,,,,,,,,,,,,,,,746,2022-01-20_18h36.41.111,multiplicationStroop,2021.2.3,Win32,59.94485074,,,,,,,,,,,,,,,,,,,,,,,,,,,,,,,,,35,8.6568,1,0,26,26,1,1,5,×,7,5 × 7,congruent,smallerFirst,1,2,35,,,,,,,,
,,,,,,,,,,,,,,,746,2022-01-20_18h36.41.111,multiplicationStroop,2021.2.3,Win32,59.94485074,,,,,,,,,,,,,,,,,,,,,,,,,,,,,,,,,12,2.64,1,0,27,27,2,1,3,×,4,3 × 4,congruent,smallerFirst,1,2,12,,,,,,,,
,,,,,,,,,,,,,,,746,2022-01-20_18h36.41.111,multiplicationStroop,2021.2.3,Win32,59.94485074,,,,,,,,,,,,,,,,,,,,,,,,,,,,,,,,,32,3.5661,1,0,28,28,20,1,8,×,4,8 × 4,congruent,largerFirst,2,1,32,,,,,,,,
,,,,,,,,,,,,,,,746,2022-01-20_18h36.41.111,multiplicationStroop,2021.2.3,Win32,59.94485074,,,,,,,,,,,,,,,,,,,,,,,,,,,,,,,,,12,1.6908,1,0,29,29,19,1,6,×,2,6 × 2,congruent,largerFirst,2,1,12,,,,,,,,
,,,,,,,,,,,,,,,746,2022-01-20_18h36.41.111,multiplicationStroop,2021.2.3,Win32,59.94485074,,,,,,,,,,,,,,,,,,,,,,,,,,,,,,,,,45,3.8993,1,0,30,30,23,1,9,×,5,9 × 5,congruent,largerFirst,2,1,45,,,,,,,,
,,,,,,,,,,,,,,,746,2022-01-20_18h36.41.111,multiplicationStroop,2021.2.3,Win32,59.94485074,,,,,,,,,,,,,,,,,,,,,,,,,,,,,,,,,4,2.1073,1,0,31,31,28,1,2,×,2,2 × 2,neutral,tie,2,1,4,,,,,,,,
,,,,,,,,,,,,,,,746,2022-01-20_18h36.41.111,multiplicationStroop,2021.2.3,Win32,59.94485074,,,,,,,,,,,,,,,,,,,,,,,,,,,,,,,,,15,1.8663,1,0,32,32,4,1,3,×,5,3 × 5,congruent,smallerFirst,1,2,15,,,,,,,,
,,,,,,,,,,,,,,,746,2022-01-20_18h36.41.111,multiplicationStroop,2021.2.3,Win32,59.94485074,,,,,,,,,,,,,,,,,,,,,,,,,,,,,,,,,49,2.266,1,0,33,33,33,1,7,×,7,7 × 7,neutral,tie,2,1,49,,,,,,,,
,,,,,,,,,,,,,,,746,2022-01-20_18h36.41.111,multiplicationStroop,2021.2.3,Win32,59.94485074,,,,,,,,,,,,,,,,,,,,,,,,,,,,,,,,,16,2.6742,1,0,34,34,30,1,4,×,4,4 × 4,neutral,tie,2,1,16,,,,,,,,
,,,,,,,,,,,,,,,746,2022-01-20_18h36.41.111,multiplicationStroop,2021.2.3,Win32,59.94485074,,,,,,,,,,,,,,,,,,,,,,,,,,,,,,,,,8,1.8325,1,0,35,35,9,1,2,×,4,2 × 4,congruent,smallerFirst,1,2,8,,,,,,,,
,,,,,,,,,,,,,,,746,2022-01-20_18h36.41.111,multiplicationStroop,2021.2.3,Win32,59.94485074,,,,,,,,,,,,,,,,,,,,,,,,,,,,,,,,,,,,,,,,,,,,,,,,,,0,2,2,2,1,stimulusFile/mult_blk3_congruent.xlsx,,
,,,,,,,,,,,,,,,746,2022-01-20_18h36.41.111,multiplicationStroop,2021.2.3,Win32,59.94485074,,,,,,,,,,,,,,,,,,,,,,,,,,,,,,,space,1.4466,15,2.0605,1,0,0,0,10,1,3,×,5,3 × 5,incongruent,smallerFirst,2,1,15,,,,,,,,
,,,,,,,,,,,,,,,746,2022-01-20_18h36.41.111,multiplicationStroop,2021.2.3,Win32,59.94485074,,,,,,,,,,,,,,,,,,,,,,,,,,,,,,,,,40,2.2908,1,0,1,1,13,1,5,×,8,5 × 8,incongruent,smallerFirst,2,1,40,,,,,,,,
,,,,,,,,,,,,,,,746,2022-01-20_18h36.41.111,multiplicationStroop,2021.2.3,Win32,59.94485074,,,,,,,,,,,,,,,,,,,,,,,,,,,,,,,,,18,2.3996,1,0,2,2,8,1,3,×,6,3 × 6,incongruent,smallerFirst,2,1,18,,,,,,,,
,,,,,,,,,,,,,,,746,2022-01-20_18h36.41.111,multiplicationStroop,2021.2.3,Win32,59.94485074,,,,,,,,,,,,,,,,,,,,,,,,,,,,,,,,,18,2.183,1,0,3,3,2,1,2,×,9,2 × 9,incongruent,smallerFirst,2,1,18,,,,,,,,
,,,,,,,,,,,,,,,746,2022-01-20_18h36.41.111,multiplicationStroop,2021.2.3,Win32,59.94485074,,,,,,,,,,,,,,,,,,,,,,,,,,,,,,,,,21,2.1661,1,0,4,4,26,1,7,×,3,7 × 3,incongruent,largerFirst,1,2,21,,,,,,,,
,,,,,,,,,,,,,,,746,2022-01-20_18h36.41.111,multiplicationStroop,2021.2.3,Win32,59.94485074,,,,,,,,,,,,,,,,,,,,,,,,,,,,,,,,,16,2.0831,1,0,5,5,30,1,4,×,4,4 × 4,incongruent,tie,1,2,16,,,,,,,,
,,,,,,,,,,,,,,,746,2022-01-20_18h36.41.111,multiplicationStroop,2021.2.3,Win32,59.94485074,,,,,,,,,,,,,,,,,,,,,,,,,,,,,,,,,24,3.5658,1,0,6,6,20,1,6,×,4,6 × 4,incongruent,largerFirst,1,2,24,,,,,,,,
,,,,,,,,,,,,,,,746,2022-01-20_18h36.41.111,multiplicationStroop,2021.2.3,Win32,59.94485074,,,,,,,,,,,,,,,,,,,,,,,,,,,,,,,,,56,2.6911,0,0,7,7,0,1,8,×,9,8 × 9,incongruent,smallerFirst,2,1,72,,,,,,,,
,,,,,,,,,,,,,,,746,2022-01-20_18h36.41.111,multiplicationStroop,2021.2.3,Win32,59.94485074,,,,,,,,,,,,,,,,,,,,,,,,,,,,,,,,,49,2.3825,1,0,8,8,33,1,7,×,7,7 × 7,incongruent,tie,1,2,49,,,,,,,,
,,,,,,,,,,,,,,,746,2022-01-20_18h36.41.111,multiplicationStroop,2021.2.3,Win32,59.94485074,,,,,,,,,,,,,,,,,,,,,,,,,,,,,,,,,27,2.9327,1,0,9,9,18,1,9,×,3,9 × 3,incongruent,largerFirst,1,2,27,,,,,,,,
,,,,,,,,,,,,,,,746,2022-01-20_18h36.41.111,multiplicationStroop,2021.2.3,Win32,59.94485074,,,,,,,,,,,,,,,,,,,,,,,,,,,,,,,,,36,3.3903,1,0,10,10,15,1,9,×,4,9 × 4,incongruent,largerFirst,1,2,36,,,,,,,,
,,,,,,,,,,,,,,,746,2022-01-20_18h36.41.111,multiplicationStroop,2021.2.3,Win32,59.94485074,,,,,,,,,,,,,,,,,,,,,,,,,,,,,,,,,48,4.0909,1,0,11,11,1,1,6,×,8,6 × 8,incongruent,smallerFirst,2,1,48,,,,,,,,
,,,,,,,,,,,,,,,746,2022-01-20_18h36.41.111,multiplicationStroop,2021.2.3,Win32,59.94485074,,,,,,,,,,,,,,,,,,,,,,,,,,,,,,,,,8,2.5908,1,0,12,12,24,1,4,×,2,4 × 2,incongruent,largerFirst,1,2,8,,,,,,,,
,,,,,,,,,,,,,,,746,2022-01-20_18h36.41.111,multiplicationStroop,2021.2.3,Win32,59.94485074,,,,,,,,,,,,,,,,,,,,,,,,,,,,,,,,,12,2.5493,1,0,13,13,19,1,6,×,2,6 × 2,incongruent,largerFirst,1,2,12,,,,,,,,
,,,,,,,,,,,,,,,746,2022-01-20_18h36.41.111,multiplicationStroop,2021.2.3,Win32,59.94485074,,,,,,,,,,,,,,,,,,,,,,,,,,,,,,,,,12,3.4492,1,0,14,14,5,1,3,×,4,3 × 4,incongruent,smallerFirst,2,1,12,,,,,,,,
,,,,,,,,,,,,,,,746,2022-01-20_18h36.41.111,multiplicationStroop,2021.2.3,Win32,59.94485074,,,,,,,,,,,,,,,,,,,,,,,,,,,,,,,,,25,5.2572,1,0,15,15,31,1,5,×,5,5 × 5,incongruent,tie,1,2,25,,,,,,,,
,,,,,,,,,,,,,,,746,2022-01-20_18h36.41.111,multiplicationStroop,2021.2.3,Win32,59.94485074,,,,,,,,,,,,,,,,,,,,,,,,,,,,,,,,,42,5.1906,1,0,16,16,17,1,7,×,6,7 × 6,incongruent,largerFirst,1,2,42,,,,,,,,
,,,,,,,,,,,,,,,746,2022-01-20_18h36.41.111,multiplicationStroop,2021.2.3,Win32,59.94485074,,,,,,,,,,,,,,,,,,,,,,,,,,,,,,,,,10,1.8743,1,0,17,17,21,1,5,×,2,5 × 2,incongruent,largerFirst,1,2,10,,,,,,,,
,,,,,,,,,,,,,,,746,2022-01-20_18h36.41.111,multiplicationStroop,2021.2.3,Win32,59.94485074,,,,,,,,,,,,,,,,,,,,,,,,,,,,,,,,,16,1.9161,1,0,18,18,23,1,8,×,2,8 × 2,incongruent,largerFirst,1,2,16,,,,,,,,
,,,,,,,,,,,,,,,746,2022-01-20_18h36.41.111,multiplicationStroop,2021.2.3,Win32,59.94485074,,,,,,,,,,,,,,,,,,,,,,,,,,,,,,,,,45,2.4824,1,0,19,19,22,1,9,×,5,9 × 5,incongruent,largerFirst,1,2,45,,,,,,,,
,,,,,,,,,,,,,,,746,2022-01-20_18h36.41.111,multiplicationStroop,2021.2.3,Win32,59.94485074,,,,,,,,,,,,,,,,,,,,,,,,,,,,,,,,,36,5.1829,1,0,20,20,32,1,6,×,6,6 × 6,incongruent,tie,1,2,36,,,,,,,,
,,,,,,,,,,,,,,,746,2022-01-20_18h36.41.111,multiplicationStroop,2021.2.3,Win32,59.94485074,,,,,,,,,,,,,,,,,,,,,,,,,,,,,,,,,64,2.6407,1,0,21,21,34,1,8,×,8,8 × 8,incongruent,tie,1,2,64,,,,,,,,
,,,,,,,,,,,,,,,746,2022-01-20_18h36.41.111,multiplicationStroop,2021.2.3,Win32,59.94485074,,,,,,,,,,,,,,,,,,,,,,,,,,,,,,,,,30,2.9828,1,0,22,22,25,1,6,×,5,6 × 5,incongruent,largerFirst,1,2,30,,,,,,,,
,,,,,,,,,,,,,,,746,2022-01-20_18h36.41.111,multiplicationStroop,2021.2.3,Win32,59.94485074,,,,,,,,,,,,,,,,,,,,,,,,,,,,,,,,,24,2.2405,1,0,23,23,9,1,3,×,8,3 × 8,incongruent,smallerFirst,2,1,24,,,,,,,,
,,,,,,,,,,,,,,,746,2022-01-20_18h36.41.111,multiplicationStroop,2021.2.3,Win32,59.94485074,,,,,,,,,,,,,,,,,,,,,,,,,,,,,,,,,20,2.0663,1,0,24,24,27,1,5,×,4,5 × 4,incongruent,largerFirst,1,2,20,,,,,,,,
,,,,,,,,,,,,,,,746,2022-01-20_18h36.41.111,multiplicationStroop,2021.2.3,Win32,59.94485074,,,,,,,,,,,,,,,,,,,,,,,,,,,,,,,,,63,7.0324,1,0,25,25,3,1,7,×,9,7 × 9,incongruent,smallerFirst,2,1,63,,,,,,,,
,,,,,,,,,,,,,,,746,2022-01-20_18h36.41.111,multiplicationStroop,2021.2.3,Win32,59.94485074,,,,,,,,,,,,,,,,,,,,,,,,,,,,,,,,,6,1.9909,1,0,26,26,11,1,2,×,3,2 × 3,incongruent,smallerFirst,2,1,6,,,,,,,,
,,,,,,,,,,,,,,,746,2022-01-20_18h36.41.111,multiplicationStroop,2021.2.3,Win32,59.94485074,,,,,,,,,,,,,,,,,,,,,,,,,,,,,,,,,4,1.4829,1,0,27,27,28,1,2,×,2,2 × 2,incongruent,tie,1,2,4,,,,,,,,
,,,,,,,,,,,,,,,746,2022-01-20_18h36.41.111,multiplicationStroop,2021.2.3,Win32,59.94485074,,,,,,,,,,,,,,,,,,,,,,,,,,,,,,,,,9,1.9997,1,0,28,28,29,1,3,×,3,3 × 3,incongruent,tie,1,2,9,,,,,,,,
,,,,,,,,,,,,,,,746,2022-01-20_18h36.41.111,multiplicationStroop,2021.2.3,Win32,59.94485074,,,,,,,,,,,,,,,,,,,,,,,,,,,,,,,,,14,1.9495,1,0,29,29,4,1,2,×,7,2 × 7,incongruent,smallerFirst,2,1,14,,,,,,,,
,,,,,,,,,,,,,,,746,2022-01-20_18h36.41.111,multiplicationStroop,2021.2.3,Win32,59.94485074,,,,,,,,,,,,,,,,,,,,,,,,,,,,,,,,,81,2.8328,1,0,30,30,35,1,9,×,9,9 × 9,incongruent,tie,1,2,81,,,,,,,,
,,,,,,,,,,,,,,,746,2022-01-20_18h36.41.111,multiplicationStroop,2021.2.3,Win32,59.94485074,,,,,,,,,,,,,,,,,,,,,,,,,,,,,,,,,32,8.2987,1,0,31,31,7,1,4,×,8,4 × 8,incongruent,smallerFirst,2,1,32,,,,,,,,
,,,,,,,,,,,,,,,746,2022-01-20_18h36.41.111,multiplicationStroop,2021.2.3,Win32,59.94485074,,,,,,,,,,,,,,,,,,,,,,,,,,,,,,,,,28,4.54,1,0,32,32,16,1,7,×,4,7 × 4,incongruent,largerFirst,1,2,28,,,,,,,,
,,,,,,,,,,,,,,,746,2022-01-20_18h36.41.111,multiplicationStroop,2021.2.3,Win32,59.94485074,,,,,,,,,,,,,,,,,,,,,,,,,,,,,,,,,54,6.007,1,0,33,33,6,1,6,×,9,6 × 9,incongruent,smallerFirst,2,1,54,,,,,,,,
,,,,,,,,,,,,,,,746,2022-01-20_18h36.41.111,multiplicationStroop,2021.2.3,Win32,59.94485074,,,,,,,,,,,,,,,,,,,,,,,,,,,,,,,,,35,2.8907,1,0,34,34,12,1,5,×,7,5 × 7,incongruent,smallerFirst,2,1,35,,,,,,,,
,,,,,,,,,,,,,,,746,2022-01-20_18h36.41.111,multiplicationStroop,2021.2.3,Win32,59.94485074,,,,,,,,,,,,,,,,,,,,,,,,,,,,,,,,,56,2.1996,1,0,35,35,14,1,8,×,7,8 × 7,incongruent,largerFirst,1,2,56,,,,,,,,
,,,,,,,,,,,,,,,746,2022-01-20_18h36.41.111,multiplicationStroop,2021.2.3,Win32,59.94485074,,,,,,,,,,,,,,,,,,,,,,,,,,,,,,,,,,,,,,,,,,,,,,,,,,0,3,3,5,1,stimulusFile/mult_blk6_INcongruent.xlsx,,
,,,,,,,,,,,,,,,746,2022-01-20_18h36.41.111,multiplicationStroop,2021.2.3,Win32,59.94485074,,,,,,,,,,,,,,,,,,,,,,,,,,,,,,,space,2.2675,49,2.3118,1,0,0,0,33,1,7,×,7,7 × 7,neutral,tie,2,1,49,,,,,,,,
,,,,,,,,,,,,,,,746,2022-01-20_18h36.41.111,multiplicationStroop,2021.2.3,Win32,59.94485074,,,,,,,,,,,,,,,,,,,,,,,,,,,,,,,,,12,1.8073,1,0,1,1,5,1,2,×,6,2 × 6,incongruent,smallerFirst,2,1,12,,,,,,,,
,,,,,,,,,,,,,,,746,2022-01-20_18h36.41.111,multiplicationStroop,2021.2.3,Win32,59.94485074,,,,,,,,,,,,,,,,,,,,,,,,,,,,,,,,,36,6.3493,1,0,2,2,1,1,4,×,9,4 × 9,incongruent,smallerFirst,2,1,36,,,,,,,,
,,,,,,,,,,,,,,,746,2022-01-20_18h36.41.111,multiplicationStroop,2021.2.3,Win32,59.94485074,,,,,,,,,,,,,,,,,,,,,,,,,,,,,,,,,15,2.5485,1,0,3,3,24,1,5,×,3,5 × 3,incongruent,largerFirst,1,2,15,,,,,,,,
,,,,,,,,,,,,,,,746,2022-01-20_18h36.41.111,multiplicationStroop,2021.2.3,Win32,59.94485074,,,,,,,,,,,,,,,,,,,,,,,,,,,,,,,,,48,4.7243,1,0,4,4,15,1,8,×,6,8 × 6,incongruent,largerFirst,1,2,48,,,,,,,,
,,,,,,,,,,,,,,,746,2022-01-20_18h36.41.111,multiplicationStroop,2021.2.3,Win32,59.94485074,,,,,,,,,,,,,,,,,,,,,,,,,,,,,,,,,81,9.7096,1,0,5,5,35,1,9,×,9,9 × 9,neutral,tie,2,1,81,,,,,,,,
,,,,,,,,,,,,,,,746,2022-01-20_18h36.41.111,multiplicationStroop,2021.2.3,Win32,59.94485074,,,,,,,,,,,,,,,,,,,,,,,,,,,,,,,,,5,3.2566,0,0,6,6,25,1,3,×,2,3 × 2,incongruent,largerFirst,1,2,6,,,,,,,,
,,,,,,,,,,,,,,,746,2022-01-20_18h36.41.111,multiplicationStroop,2021.2.3,Win32,59.94485074,,,,,,,,,,,,,,,,,,,,,,,,,,,,,,,,,9,1.916,1,0,7,7,29,1,3,×,3,3 × 3,neutral,tie,2,1,9,,,,,,,,
,,,,,,,,,,,,,,,746,2022-01-20_18h36.41.111,multiplicationStroop,2021.2.3,Win32,59.94485074,,,,,,,,,,,,,,,,,,,,,,,,,,,,,,,,,35,6.1327,1,0,8,8,26,1,7,×,5,7 × 5,incongruent,largerFirst,1,2,35,,,,,,,,
,,,,,,,,,,,,,,,746,2022-01-20_18h36.41.111,multiplicationStroop,2021.2.3,Win32,59.94485074,,,,,,,,,,,,,,,,,,,,,,,,,,,,,,,,,12,2.9238,1,0,9,9,19,1,4,×,3,4 × 3,incongruent,largerFirst,1,2,12,,,,,,,,
,,,,,,,,,,,,,,,746,2022-01-20_18h36.41.111,multiplicationStroop,2021.2.3,Win32,59.94485074,,,,,,,,,,,,,,,,,,,,,,,,,,,,,,,,,54,11.5734,1,0,10,10,20,1,9,×,6,9 × 6,incongruent,largerFirst,1,2,54,,,,,,,,
,,,,,,,,,,,,,,,746,2022-01-20_18h36.41.111,multiplicationStroop,2021.2.3,Win32,59.94485074,,,,,,,,,,,,,,,,,,,,,,,,,,,,,,,,,18,2.1569,1,0,11,11,16,1,9,×,2,9 × 2,incongruent,largerFirst,1,2,18,,,,,,,,
,,,,,,,,,,,,,,,746,2022-01-20_18h36.41.111,multiplicationStroop,2021.2.3,Win32,59.94485074,,,,,,,,,,,,,,,,,,,,,,,,,,,,,,,,,42,5.5825,1,0,12,12,3,1,6,×,7,6 × 7,incongruent,smallerFirst,2,1,42,,,,,,,,
,,,,,,,,,,,,,,,746,2022-01-20_18h36.41.111,multiplicationStroop,2021.2.3,Win32,59.94485074,,,,,,,,,,,,,,,,,,,,,,,,,,,,,,,,,64,2.2573,1,0,13,13,34,1,8,×,8,8 × 8,neutral,tie,2,1,64,,,,,,,,
,,,,,,,,,,,,,,,746,2022-01-20_18h36.41.111,multiplicationStroop,2021.2.3,Win32,59.94485074,,,,,,,,,,,,,,,,,,,,,,,,,,,,,,,,,32,4.2325,1,0,14,14,21,1,8,×,4,8 × 4,incongruent,largerFirst,1,2,32,,,,,,,,
,,,,,,,,,,,,,,,746,2022-01-20_18h36.41.111,multiplicationStroop,2021.2.3,Win32,59.94485074,,,,,,,,,,,,,,,,,,,,,,,,,,,,,,,,,72,5.3741,1,0,15,15,14,1,9,×,8,9 × 8,incongruent,largerFirst,1,2,72,,,,,,,,
,,,,,,,,,,,,,,,746,2022-01-20_18h36.41.111,multiplicationStroop,2021.2.3,Win32,59.94485074,,,,,,,,,,,,,,,,,,,,,,,,,,,,,,,,,16,2.1906,1,0,16,16,9,1,2,×,8,2 × 8,incongruent,smallerFirst,2,1,16,,,,,,,,
,,,,,,,,,,,,,,,746,2022-01-20_18h36.41.111,multiplicationStroop,2021.2.3,Win32,59.94485074,,,,,,,,,,,,,,,,,,,,,,,,,,,,,,,,,10,1.7826,1,0,17,17,7,1,2,×,5,2 × 5,incongruent,smallerFirst,2,1,10,,,,,,,,
,,,,,,,,,,,,,,,746,2022-01-20_18h36.41.111,multiplicationStroop,2021.2.3,Win32,59.94485074,,,,,,,,,,,,,,,,,,,,,,,,,,,,,,,,,45,2.1996,1,0,18,18,8,1,5,×,9,5 × 9,incongruent,smallerFirst,2,1,45,,,,,,,,
,,,,,,,,,,,,,,,746,2022-01-20_18h36.41.111,multiplicationStroop,2021.2.3,Win32,59.94485074,,,,,,,,,,,,,,,,,,,,,,,,,,,,,,,,,30,4.3994,1,0,19,19,11,1,5,×,6,5 × 6,incongruent,smallerFirst,2,1,30,,,,,,,,
,,,,,,,,,,,,,,,746,2022-01-20_18h36.41.111,multiplicationStroop,2021.2.3,Win32,59.94485074,,,,,,,,,,,,,,,,,,,,,,,,,,,,,,,,,18,2.2573,1,0,20,20,22,1,6,×,3,6 × 3,incongruent,largerFirst,1,2,18,,,,,,,,
,,,,,,,,,,,,,,,746,2022-01-20_18h36.41.111,multiplicationStroop,2021.2.3,Win32,59.94485074,,,,,,,,,,,,,,,,,,,,,,,,,,,,,,,,,63,2.8327,1,0,21,21,17,1,9,×,7,9 × 7,incongruent,largerFirst,1,2,63,,,,,,,,
,,,,,,,,,,,,,,,746,2022-01-20_18h36.41.111,multiplicationStroop,2021.2.3,Win32,59.94485074,,,,,,,,,,,,,,,,,,,,,,,,,,,,,,,,,21,2.5995,1,0,22,22,12,1,3,×,7,3 × 7,incongruent,smallerFirst,2,1,21,,,,,,,,
,,,,,,,,,,,,,,,746,2022-01-20_18h36.41.111,multiplicationStroop,2021.2.3,Win32,59.94485074,,,,,,,,,,,,,,,,,,,,,,,,,,,,,,,,,25,2.3663,1,0,23,23,31,1,5,×,5,5 × 5,neutral,tie,2,1,25,,,,,,,,
,,,,,,,,,,,,,,,746,2022-01-20_18h36.41.111,multiplicationStroop,2021.2.3,Win32,59.94485074,,,,,,,,,,,,,,,,,,,,,,,,,,,,,,,,,27,3.0234,1,0,24,24,4,1,3,×,9,3 × 9,incongruent,smallerFirst,2,1,27,,,,,,,,
,,,,,,,,,,,,,,,746,2022-01-20_18h36.41.111,multiplicationStroop,2021.2.3,Win32,59.94485074,,,,,,,,,,,,,,,,,,,,,,,,,,,,,,,,,16,2.9157,1,0,25,25,30,1,4,×,4,4 × 4,neutral,tie,2,1,16,,,,,,,,
,,,,,,,,,,,,,,,746,2022-01-20_18h36.41.111,multiplicationStroop,2021.2.3,Win32,59.94485074,,,,,,,,,,,,,,,,,,,,,,,,,,,,,,,,,8,1.8739,1,0,26,26,10,1,2,×,4,2 × 4,incongruent,smallerFirst,2,1,8,,,,,,,,
,,,,,,,,,,,,,,,746,2022-01-20_18h36.41.111,multiplicationStroop,2021.2.3,Win32,59.94485074,,,,,,,,,,,,,,,,,,,,,,,,,,,,,,,,,24,2.7328,1,0,27,27,23,1,8,×,3,8 × 3,incongruent,largerFirst,1,2,24,,,,,,,,
,,,,,,,,,,,,,,,746,2022-01-20_18h36.41.111,multiplicationStroop,2021.2.3,Win32,59.94485074,,,,,,,,,,,,,,,,,,,,,,,,,,,,,,,,,2,2.4571,0,0,28,28,13,1,4,×,5,4 × 5,incongruent,smallerFirst,2,1,20,,,,,,,,
,,,,,,,,,,,,,,,746,2022-01-20_18h36.41.111,multiplicationStroop,2021.2.3,Win32,59.94485074,,,,,,,,,,,,,,,,,,,,,,,,,,,,,,,,,56,5.7323,1,0,29,29,0,1,7,×,8,7 × 8,incongruent,smallerFirst,2,1,56,,,,,,,,
,,,,,,,,,,,,,,,746,2022-01-20_18h36.41.111,multiplicationStroop,2021.2.3,Win32,59.94485074,,,,,,,,,,,,,,,,,,,,,,,,,,,,,,,,,28,3.4741,1,0,30,30,2,1,4,×,7,4 × 7,incongruent,smallerFirst,2,1,28,,,,,,,,
,,,,,,,,,,,,,,,746,2022-01-20_18h36.41.111,multiplicationStroop,2021.2.3,Win32,59.94485074,,,,,,,,,,,,,,,,,,,,,,,,,,,,,,,,,4,1.7912,1,0,31,31,28,1,2,×,2,2 × 2,neutral,tie,2,1,4,,,,,,,,
,,,,,,,,,,,,,,,746,2022-01-20_18h36.41.111,multiplicationStroop,2021.2.3,Win32,59.94485074,,,,,,,,,,,,,,,,,,,,,,,,,,,,,,,,,36,4.4494,1,0,32,32,32,1,6,×,6,6 × 6,neutral,tie,2,1,36,,,,,,,,
,,,,,,,,,,,,,,,746,2022-01-20_18h36.41.111,multiplicationStroop,2021.2.3,Win32,59.94485074,,,,,,,,,,,,,,,,,,,,,,,,,,,,,,,,,24,3.5739,1,0,33,33,6,1,4,×,6,4 × 6,incongruent,smallerFirst,2,1,24,,,,,,,,
,,,,,,,,,,,,,,,746,2022-01-20_18h36.41.111,multiplicationStroop,2021.2.3,Win32,59.94485074,,,,,,,,,,,,,,,,,,,,,,,,,,,,,,,,,14,2.1241,1,0,34,34,18,1,7,×,2,7 × 2,incongruent,largerFirst,1,2,14,,,,,,,,
,,,,,,,,,,,,,,,746,2022-01-20_18h36.41.111,multiplicationStroop,2021.2.3,Win32,59.94485074,,,,,,,,,,,,,,,,,,,,,,,,,,,,,,,,,40,2.6161,1,0,35,35,27,1,8,×,5,8 × 5,incongruent,largerFirst,1,2,40,,,,,,,,
,,,,,,,,,,,,,,,746,2022-01-20_18h36.41.111,multiplicationStroop,2021.2.3,Win32,59.94485074,,,,,,,,,,,,,,,,,,,,,,,,,,,,,,,,,,,,,,,,,,,,,,,,,,0,4,4,4,1,stimulusFile/mult_blk5_INcongruent.xlsx,,
,,,,,,,,,,,,,,,746,2022-01-20_18h36.41.111,multiplicationStroop,2021.2.3,Win32,59.94485074,,,,,,,,,,,,,,,,,,,,,,,,,,,,,,,space,1.5377,48,4.4591,1,0,0,0,4,1,6,×,8,6 × 8,congruent,smallerFirst,1,2,48,,,,,,,,
,,,,,,,,,,,,,,,746,2022-01-20_18h36.41.111,multiplicationStroop,2021.2.3,Win32,59.94485074,,,,,,,,,,,,,,,,,,,,,,,,,,,,,,,,,6,2.0073,1,0,1,1,27,1,3,×,2,3 × 2,congruent,largerFirst,2,1,6,,,,,,,,
,,,,,,,,,,,,,,,746,2022-01-20_18h36.41.111,multiplicationStroop,2021.2.3,Win32,59.94485074,,,,,,,,,,,,,,,,,,,,,,,,,,,,,,,,,18,2.4662,1,0,2,2,25,1,6,×,3,6 × 3,congruent,largerFirst,2,1,18,,,,,,,,
,,,,,,,,,,,,,,,746,2022-01-20_18h36.41.111,multiplicationStroop,2021.2.3,Win32,59.94485074,,,,,,,,,,,,,,,,,,,,,,,,,,,,,,,,,35,2.316,1,0,3,3,15,1,7,×,5,7 × 5,congruent,largerFirst,2,1,35,,,,,,,,
,,,,,,,,,,,,,,,746,2022-01-20_18h36.41.111,multiplicationStroop,2021.2.3,Win32,59.94485074,,,,,,,,,,,,,,,,,,,,,,,,,,,,,,,,,56,2.5661,1,0,4,4,22,1,8,×,7,8 × 7,congruent,largerFirst,2,1,56,,,,,,,,
,,,,,,,,,,,,,,,746,2022-01-20_18h36.41.111,multiplicationStroop,2021.2.3,Win32,59.94485074,,,,,,,,,,,,,,,,,,,,,,,,,,,,,,,,,81,12.1395,1,0,5,5,35,1,9,×,9,9 × 9,neutral,tie,1,2,81,,,,,,,,
,,,,,,,,,,,,,,,746,2022-01-20_18h36.41.111,multiplicationStroop,2021.2.3,Win32,59.94485074,,,,,,,,,,,,,,,,,,,,,,,,,,,,,,,,,30,2.9066,1,0,6,6,1,1,5,×,6,5 × 6,congruent,smallerFirst,1,2,30,,,,,,,,
,,,,,,,,,,,,,,,746,2022-01-20_18h36.41.111,multiplicationStroop,2021.2.3,Win32,59.94485074,,,,,,,,,,,,,,,,,,,,,,,,,,,,,,,,,15,1.7828,1,0,7,7,18,1,5,×,3,5 × 3,congruent,largerFirst,2,1,15,,,,,,,,
,,,,,,,,,,,,,,,746,2022-01-20_18h36.41.111,multiplicationStroop,2021.2.3,Win32,59.94485074,,,,,,,,,,,,,,,,,,,,,,,,,,,,,,,,,12,1.8664,1,0,8,8,5,1,2,×,6,2 × 6,congruent,smallerFirst,1,2,12,,,,,,,,
,,,,,,,,,,,,,,,746,2022-01-20_18h36.41.111,multiplicationStroop,2021.2.3,Win32,59.94485074,,,,,,,,,,,,,,,,,,,,,,,,,,,,,,,,,8,1.9829,1,0,9,9,23,1,4,×,2,4 × 2,congruent,largerFirst,2,1,8,,,,,,,,
,,,,,,,,,,,,,,,746,2022-01-20_18h36.41.111,multiplicationStroop,2021.2.3,Win32,59.94485074,,,,,,,,,,,,,,,,,,,,,,,,,,,,,,,,,24,2.4993,1,0,10,10,24,1,8,×,3,8 × 3,congruent,largerFirst,2,1,24,,,,,,,,
,,,,,,,,,,,,,,,746,2022-01-20_18h36.41.111,multiplicationStroop,2021.2.3,Win32,59.94485074,,,,,,,,,,,,,,,,,,,,,,,,,,,,,,,,,4,1.5828,1,0,11,11,28,1,2,×,2,2 × 2,neutral,tie,1,2,4,,,,,,,,
,,,,,,,,,,,,,,,746,2022-01-20_18h36.41.111,multiplicationStroop,2021.2.3,Win32,59.94485074,,,,,,,,,,,,,,,,,,,,,,,,,,,,,,,,,25,1.9496,1,0,12,12,31,1,5,×,5,5 × 5,neutral,tie,1,2,25,,,,,,,,
,,,,,,,,,,,,,,,746,2022-01-20_18h36.41.111,multiplicationStroop,2021.2.3,Win32,59.94485074,,,,,,,,,,,,,,,,,,,,,,,,,,,,,,,,,16,2.5995,1,0,13,13,30,1,4,×,4,4 × 4,neutral,tie,1,2,16,,,,,,,,
,,,,,,,,,,,,,,,746,2022-01-20_18h36.41.111,multiplicationStroop,2021.2.3,Win32,59.94485074,,,,,,,,,,,,,,,,,,,,,,,,,,,,,,,,,36,3.3497,1,0,14,14,14,1,9,×,4,9 × 4,congruent,largerFirst,2,1,36,,,,,,,,
,,,,,,,,,,,,,,,746,2022-01-20_18h36.41.111,multiplicationStroop,2021.2.3,Win32,59.94485074,,,,,,,,,,,,,,,,,,,,,,,,,,,,,,,,,18,3.0568,1,0,15,15,8,1,2,×,9,2 × 9,congruent,smallerFirst,1,2,18,,,,,,,,
,,,,,,,,,,,,,,,746,2022-01-20_18h36.41.111,multiplicationStroop,2021.2.3,Win32,59.94485074,,,,,,,,,,,,,,,,,,,,,,,,,,,,,,,,,54,3.7494,1,0,16,16,26,1,9,×,6,9 × 6,congruent,largerFirst,2,1,54,,,,,,,,
,,,,,,,,,,,,,,,746,2022-01-20_18h36.41.111,multiplicationStroop,2021.2.3,Win32,59.94485074,,,,,,,,,,,,,,,,,,,,,,,,,,,,,,,,,20,2.0579,1,0,17,17,21,1,5,×,4,5 × 4,congruent,largerFirst,2,1,20,,,,,,,,
,,,,,,,,,,,,,,,746,2022-01-20_18h36.41.111,multiplicationStroop,2021.2.3,Win32,59.94485074,,,,,,,,,,,,,,,,,,,,,,,,,,,,,,,,,24,3.1494,1,0,18,18,11,1,4,×,6,4 × 6,congruent,smallerFirst,1,2,24,,,,,,,,
,,,,,,,,,,,,,,,746,2022-01-20_18h36.41.111,multiplicationStroop,2021.2.3,Win32,59.94485074,,,,,,,,,,,,,,,,,,,,,,,,,,,,,,,,,42,4.4572,1,0,19,19,17,1,7,×,6,7 × 6,congruent,largerFirst,2,1,42,,,,,,,,
,,,,,,,,,,,,,,,746,2022-01-20_18h36.41.111,multiplicationStroop,2021.2.3,Win32,59.94485074,,,,,,,,,,,,,,,,,,,,,,,,,,,,,,,,,40,2.2407,1,0,20,20,20,1,8,×,5,8 × 5,congruent,largerFirst,2,1,40,,,,,,,,
,,,,,,,,,,,,,,,746,2022-01-20_18h36.41.111,multiplicationStroop,2021.2.3,Win32,59.94485074,,,,,,,,,,,,,,,,,,,,,,,,,,,,,,,,,72,5.166,1,0,21,21,3,1,8,×,9,8 × 9,congruent,smallerFirst,1,2,72,,,,,,,,
,,,,,,,,,,,,,,,746,2022-01-20_18h36.41.111,multiplicationStroop,2021.2.3,Win32,59.94485074,,,,,,,,,,,,,,,,,,,,,,,,,,,,,,,,,21,2.324,1,0,22,22,2,1,3,×,7,3 × 7,congruent,smallerFirst,1,2,21,,,,,,,,
,,,,,,,,,,,,,,,746,2022-01-20_18h36.41.111,multiplicationStroop,2021.2.3,Win32,59.94485074,,,,,,,,,,,,,,,,,,,,,,,,,,,,,,,,,12,2.1828,1,0,23,23,16,1,4,×,3,4 × 3,congruent,largerFirst,2,1,12,,,,,,,,
,,,,,,,,,,,,,,,746,2022-01-20_18h36.41.111,multiplicationStroop,2021.2.3,Win32,59.94485074,,,,,,,,,,,,,,,,,,,,,,,,,,,,,,,,,9,1.8328,1,0,24,24,29,1,3,×,3,3 × 3,neutral,tie,1,2,9,,,,,,,,
,,,,,,,,,,,,,,,746,2022-01-20_18h36.41.111,multiplicationStroop,2021.2.3,Win32,59.94485074,,,,,,,,,,,,,,,,,,,,,,,,,,,,,,,,,14,1.6998,1,0,25,25,0,1,2,×,7,2 × 7,congruent,smallerFirst,1,2,14,,,,,,,,
,,,,,,,,,,,,,,,746,2022-01-20_18h36.41.111,multiplicationStroop,2021.2.3,Win32,59.94485074,,,,,,,,,,,,,,,,,,,,,,,,,,,,,,,,,36,8.7823,1,0,26,26,32,1,6,×,6,6 × 6,neutral,tie,1,2,36,,,,,,,,
,,,,,,,,,,,,,,,746,2022-01-20_18h36.41.111,multiplicationStroop,2021.2.3,Win32,59.94485074,,,,,,,,,,,,,,,,,,,,,,,,,,,,,,,,,27,2.8069,1,0,27,27,12,1,3,×,9,3 × 9,congruent,smallerFirst,1,2,27,,,,,,,,
,,,,,,,,,,,,,,,746,2022-01-20_18h36.41.111,multiplicationStroop,2021.2.3,Win32,59.94485074,,,,,,,,,,,,,,,,,,,,,,,,,,,,,,,,,45,2.1659,1,0,28,28,9,1,5,×,9,5 × 9,congruent,smallerFirst,1,2,45,,,,,,,,
,,,,,,,,,,,,,,,746,2022-01-20_18h36.41.111,multiplicationStroop,2021.2.3,Win32,59.94485074,,,,,,,,,,,,,,,,,,,,,,,,,,,,,,,,,49,2.066,1,0,29,29,33,1,7,×,7,7 × 7,neutral,tie,1,2,49,,,,,,,,
,,,,,,,,,,,,,,,746,2022-01-20_18h36.41.111,multiplicationStroop,2021.2.3,Win32,59.94485074,,,,,,,,,,,,,,,,,,,,,,,,,,,,,,,,,16,2.2164,1,0,30,30,19,1,8,×,2,8 × 2,congruent,largerFirst,2,1,16,,,,,,,,
,,,,,,,,,,,,,,,746,2022-01-20_18h36.41.111,multiplicationStroop,2021.2.3,Win32,59.94485074,,,,,,,,,,,,,,,,,,,,,,,,,,,,,,,,,32,2.5496,1,0,31,31,6,1,4,×,8,4 × 8,congruent,smallerFirst,1,2,32,,,,,,,,
,,,,,,,,,,,,,,,746,2022-01-20_18h36.41.111,multiplicationStroop,2021.2.3,Win32,59.94485074,,,,,,,,,,,,,,,,,,,,,,,,,,,,,,,,,63,2.2658,1,0,32,32,7,1,7,×,9,7 × 9,congruent,smallerFirst,1,2,63,,,,,,,,
,,,,,,,,,,,,,,,746,2022-01-20_18h36.41.111,multiplicationStroop,2021.2.3,Win32,59.94485074,,,,,,,,,,,,,,,,,,,,,,,,,,,,,,,,,28,5.0906,1,0,33,33,13,1,4,×,7,4 × 7,congruent,smallerFirst,1,2,28,,,,,,,,
,,,,,,,,,,,,,,,746,2022-01-20_18h36.41.111,multiplicationStroop,2021.2.3,Win32,59.94485074,,,,,,,,,,,,,,,,,,,,,,,,,,,,,,,,,10,3.341,1,0,34,34,10,1,2,×,5,2 × 5,congruent,smallerFirst,1,2,10,,,,,,,,
,,,,,,,,,,,,,,,746,2022-01-20_18h36.41.111,multiplicationStroop,2021.2.3,Win32,59.94485074,,,,,,,,,,,,,,,,,,,,,,,,,,,,,,,,,64,2.1405,1,0,35,35,34,1,8,×,8,8 × 8,neutral,tie,1,2,64,,,,,,,,
,,,,,,,,,,,,,,,746,2022-01-20_18h36.41.111,multiplicationStroop,2021.2.3,Win32,59.94485074,,,,,,,,,,,,,,,,,,,,,,,,,,,,,,,,,,,,,,,,,,,,,,,,,,0,5,5,3,1,stimulusFile/mult_blk4_congruent.xlsx,,
,,,,,,,,,,,,,,,746,2022-01-20_18h36.41.111,multiplicationStroop,2021.2.3,Win32,59.94485074,,,,,,,,,,,,,,,,,,,,,,,,,,,,,,,,,,,,,,,,,,,,,,,,,,,,,,,,space,34.2159