welcomeKey_resp.keys,welcomeKey_resp.rt,X Scale,Y Scale,rt_resp_4.keys,rt_resp_4.corr,rt_resp_4.rt,speedtest_2.thisRepN,speedtest_2.thisTrialN,speedtest_2.thisN,speedtest_2.thisIndex,speedtest_2.ran,numberSc,posX,positionLayout,participant,date,expName,psychopyVersion,OS,frameRate,ct_instrresp.keys,ct_instrresp.rt,key_resp_2.keys,key_resp_2.rt,ct_keyResp.keys,ct_keyResp.corr,ct_keyResp.rt,trials.thisRepN,trials.thisTrialN,trials.thisN,trials.thisIndex,trials.ran,leftNo,rightNo,displayProblem,numDistance,leftNo_size,rightNo_size,Dims,keyAnswer,TS_Loop.thisRepN,TS_Loop.thisTrialN,TS_Loop.thisN,TS_Loop.thisIndex,TS_Loop.ran,Condition,ActionInst,instrImage,mltptaskInst_resp.keys,mltptaskInst_resp.rt,continue_resp_2.keys,continue_resp_2.rt,multp_Answer,multi_RT,multiplyCorr,LoopingMultiply.thisRepN,LoopingMultiply.thisTrialN,LoopingMultiply.thisN,LoopingMultiply.thisIndex,LoopingMultiply.ran,factor1,multiplySign,factor2,multliplyProblem,physicalSize,orderOperand,sizeF1,sizeF2,mult_answer,trials_stroop.thisRepN,trials_stroop.thisTrialN,trials_stroop.thisN,trials_stroop.thisIndex,trials_stroop.ran,multiplicationFile,esckey_resp_2.keys,esckey_resp_2.rt
y,9.3561,41.7,41.1,left,1,0.8674,0,0,0,0,1,1,-200,left,747,2022-01-19_20h29.34.991,multiplicationStroop,2021.2.3,Win32,59.97720866,,,,,,,,,,,,,,,,,,,,,,,,,,,,,,,,,,,,,,,,,,,,,,,,,,,,,,,,,
,,,,right,1,0.4178,0,1,1,14,1,8,200,right,747,2022-01-19_20h29.34.991,multiplicationStroop,2021.2.3,Win32,59.97720866,,,,,,,,,,,,,,,,,,,,,,,,,,,,,,,,,,,,,,,,,,,,,,,,,,,,,,,,,
,,,,left,1,0.3013,0,2,2,2,1,3,-200,left,747,2022-01-19_20h29.34.991,multiplicationStroop,2021.2.3,Win32,59.97720866,,,,,,,,,,,,,,,,,,,,,,,,,,,,,,,,,,,,,,,,,,,,,,,,,,,,,,,,,
,,,,right,1,0.3512,0,3,3,10,1,3,200,right,747,2022-01-19_20h29.34.991,multiplicationStroop,2021.2.3,Win32,59.97720866,,,,,,,,,,,,,,,,,,,,,,,,,,,,,,,,,,,,,,,,,,,,,,,,,,,,,,,,,
,,,,left,1,0.272,0,4,4,7,1,9,-200,left,747,2022-01-19_20h29.34.991,multiplicationStroop,2021.2.3,Win32,59.97720866,,,,,,,,,,,,,,,,,,,,,,,,,,,,,,,,,,,,,,,,,,,,,,,,,,,,,,,,,
,,,,right,1,0.3214,0,5,5,12,1,6,200,right,747,2022-01-19_20h29.34.991,multiplicationStroop,2021.2.3,Win32,59.97720866,,,,,,,,,,,,,,,,,,,,,,,,,,,,,,,,,,,,,,,,,,,,,,,,,,,,,,,,,
,,,,left,1,0.3191,0,6,6,6,1,8,-200,left,747,2022-01-19_20h29.34.991,multiplicationStroop,2021.2.3,Win32,59.97720866,,,,,,,,,,,,,,,,,,,,,,,,,,,,,,,,,,,,,,,,,,,,,,,,,,,,,,,,,
,,,,right,0,0.3012,0,7,7,1,1,2,-200,left,747,2022-01-19_20h29.34.991,multiplicationStroop,2021.2.3,Win32,59.97720866,,,,,,,,,,,,,,,,,,,,,,,,,,,,,,,,,,,,,,,,,,,,,,,,,,,,,,,,,
,,,,left,1,0.4512,0,8,8,3,1,4,-200,left,747,2022-01-19_20h29.34.991,multiplicationStroop,2021.2.3,Win32,59.97720866,,,,,,,,,,,,,,,,,,,,,,,,,,,,,,,,,,,,,,,,,,,,,,,,,,,,,,,,,
,,,,right,1,0.4947,0,9,9,9,1,2,200,right,747,2022-01-19_20h29.34.991,multiplicationStroop,2021.2.3,Win32,59.97720866,,,,,,,,,,,,,,,,,,,,,,,,,,,,,,,,,,,,,,,,,,,,,,,,,,,,,,,,,
,,,,right,1,0.4061,0,10,10,11,1,4,200,right,747,2022-01-19_20h29.34.991,multiplicationStroop,2021.2.3,Win32,59.97720866,,,,,,,,,,,,,,,,,,,,,,,,,,,,,,,,,,,,,,,,,,,,,,,,,,,,,,,,,
,,,,right,1,0.3347,0,11,11,13,1,7,200,right,747,2022-01-19_20h29.34.991,multiplicationStroop,2021.2.3,Win32,59.97720866,,,,,,,,,,,,,,,,,,,,,,,,,,,,,,,,,,,,,,,,,,,,,,,,,,,,,,,,,
,,,,left,1,0.3679,0,12,12,4,1,6,-200,left,747,2022-01-19_20h29.34.991,multiplicationStroop,2021.2.3,Win32,59.97720866,,,,,,,,,,,,,,,,,,,,,,,,,,,,,,,,,,,,,,,,,,,,,,,,,,,,,,,,,
,,,,right,1,0.368,0,13,13,15,1,9,200,right,747,2022-01-19_20h29.34.991,multiplicationStroop,2021.2.3,Win32,59.97720866,,,,,,,,,,,,,,,,,,,,,,,,,,,,,,,,,,,,,,,,,,,,,,,,,,,,,,,,,
,,,,right,1,0.3706,0,14,14,8,1,1,200,right,747,2022-01-19_20h29.34.991,multiplicationStroop,2021.2.3,Win32,59.97720866,,,,,,,,,,,,,,,,,,,,,,,,,,,,,,,,,,,,,,,,,,,,,,,,,,,,,,,,,
,,,,left,1,0.3187,0,15,15,5,1,7,-200,left,747,2022-01-19_20h29.34.991,multiplicationStroop,2021.2.3,Win32,59.97720866,,,,,,,,,,,,,,,,,,,,,,,,,,,,,,,,,,,,,,,,,,,,,,,,,,,,,,,,,
,,,,left,1,0.3431,1,0,16,1,1,2,-200,left,747,2022-01-19_20h29.34.991,multiplicationStroop,2021.2.3,Win32,59.97720866,,,,,,,,,,,,,,,,,,,,,,,,,,,,,,,,,,,,,,,,,,,,,,,,,,,,,,,,,
,,,,left,1,0.3446,1,1,17,5,1,7,-200,left,747,2022-01-19_20h29.34.991,multiplicationStroop,2021.2.3,Win32,59.97720866,,,,,,,,,,,,,,,,,,,,,,,,,,,,,,,,,,,,,,,,,,,,,,,,,,,,,,,,,
,,,,left,1,0.2882,1,2,18,0,1,1,-200,left,747,2022-01-19_20h29.34.991,multiplicationStroop,2021.2.3,Win32,59.97720866,,,,,,,,,,,,,,,,,,,,,,,,,,,,,,,,,,,,,,,,,,,,,,,,,,,,,,,,,
,,,,right,1,0.3344,1,3,19,11,1,4,200,right,747,2022-01-19_20h29.34.991,multiplicationStroop,2021.2.3,Win32,59.97720866,,,,,,,,,,,,,,,,,,,,,,,,,,,,,,,,,,,,,,,,,,,,,,,,,,,,,,,,,
,,,,right,1,0.3234,1,4,20,8,1,1,200,right,747,2022-01-19_20h29.34.991,multiplicationStroop,2021.2.3,Win32,59.97720866,,,,,,,,,,,,,,,,,,,,,,,,,,,,,,,,,,,,,,,,,,,,,,,,,,,,,,,,,
,,,,right,1,0.3077,1,5,21,12,1,6,200,right,747,2022-01-19_20h29.34.991,multiplicationStroop,2021.2.3,Win32,59.97720866,,,,,,,,,,,,,,,,,,,,,,,,,,,,,,,,,,,,,,,,,,,,,,,,,,,,,,,,,
,,,,left,1,0.4183,1,6,22,7,1,9,-200,left,747,2022-01-19_20h29.34.991,multiplicationStroop,2021.2.3,Win32,59.97720866,,,,,,,,,,,,,,,,,,,,,,,,,,,,,,,,,,,,,,,,,,,,,,,,,,,,,,,,,
,,,,right,1,0.3114,1,7,23,13,1,7,200,right,747,2022-01-19_20h29.34.991,multiplicationStroop,2021.2.3,Win32,59.97720866,,,,,,,,,,,,,,,,,,,,,,,,,,,,,,,,,,,,,,,,,,,,,,,,,,,,,,,,,
,,,,right,1,0.4188,1,8,24,14,1,8,200,right,747,2022-01-19_20h29.34.991,multiplicationStroop,2021.2.3,Win32,59.97720866,,,,,,,,,,,,,,,,,,,,,,,,,,,,,,,,,,,,,,,,,,,,,,,,,,,,,,,,,
,,,,left,1,0.2946,1,9,25,3,1,4,-200,left,747,2022-01-19_20h29.34.991,multiplicationStroop,2021.2.3,Win32,59.97720866,,,,,,,,,,,,,,,,,,,,,,,,,,,,,,,,,,,,,,,,,,,,,,,,,,,,,,,,,
,,,,right,1,0.304,1,10,26,9,1,2,200,right,747,2022-01-19_20h29.34.991,multiplicationStroop,2021.2.3,Win32,59.97720866,,,,,,,,,,,,,,,,,,,,,,,,,,,,,,,,,,,,,,,,,,,,,,,,,,,,,,,,,
,,,,left,1,0.2706,1,11,27,4,1,6,-200,left,747,2022-01-19_20h29.34.991,multiplicationStroop,2021.2.3,Win32,59.97720866,,,,,,,,,,,,,,,,,,,,,,,,,,,,,,,,,,,,,,,,,,,,,,,,,,,,,,,,,
,,,,right,1,0.2925,1,12,28,10,1,3,200,right,747,2022-01-19_20h29.34.991,multiplicationStroop,2021.2.3,Win32,59.97720866,,,,,,,,,,,,,,,,,,,,,,,,,,,,,,,,,,,,,,,,,,,,,,,,,,,,,,,,,
,,,,left,1,0.2673,1,13,29,2,1,3,-200,left,747,2022-01-19_20h29.34.991,multiplicationStroop,2021.2.3,Win32,59.97720866,,,,,,,,,,,,,,,,,,,,,,,,,,,,,,,,,,,,,,,,,,,,,,,,,,,,,,,,,
,,,,right,1,0.2848,1,14,30,15,1,9,200,right,747,2022-01-19_20h29.34.991,multiplicationStroop,2021.2.3,Win32,59.97720866,,,,,,,,,,,,,,,,,,,,,,,,,,,,,,,,,,,,,,,,,,,,,,,,,,,,,,,,,
,,,,left,1,0.251,1,15,31,6,1,8,-200,left,747,2022-01-19_20h29.34.991,multiplicationStroop,2021.2.3,Win32,59.97720866,,,,,,,,,,,,,,,,,,,,,,,,,,,,,,,,,,,,,,,,,,,,,,,,,,,,,,,,,
,,,,right,0,0.3032,2,0,32,2,1,3,-200,left,747,2022-01-19_20h29.34.991,multiplicationStroop,2021.2.3,Win32,59.97720866,,,,,,,,,,,,,,,,,,,,,,,,,,,,,,,,,,,,,,,,,,,,,,,,,,,,,,,,,
,,,,left,0,0.2558,2,1,33,9,1,2,200,right,747,2022-01-19_20h29.34.991,multiplicationStroop,2021.2.3,Win32,59.97720866,,,,,,,,,,,,,,,,,,,,,,,,,,,,,,,,,,,,,,,,,,,,,,,,,,,,,,,,,
,,,,right,1,0.4261,2,2,34,15,1,9,200,right,747,2022-01-19_20h29.34.991,multiplicationStroop,2021.2.3,Win32,59.97720866,,,,,,,,,,,,,,,,,,,,,,,,,,,,,,,,,,,,,,,,,,,,,,,,,,,,,,,,,
,,,,left,1,0.5203,2,3,35,6,1,8,-200,left,747,2022-01-19_20h29.34.991,multiplicationStroop,2021.2.3,Win32,59.97720866,,,,,,,,,,,,,,,,,,,,,,,,,,,,,,,,,,,,,,,,,,,,,,,,,,,,,,,,,
,,,,right,1,0.3187,2,4,36,13,1,7,200,right,747,2022-01-19_20h29.34.991,multiplicationStroop,2021.2.3,Win32,59.97720866,,,,,,,,,,,,,,,,,,,,,,,,,,,,,,,,,,,,,,,,,,,,,,,,,,,,,,,,,
,,,,left,1,0.3853,2,5,37,0,1,1,-200,left,747,2022-01-19_20h29.34.991,multiplicationStroop,2021.2.3,Win32,59.97720866,,,,,,,,,,,,,,,,,,,,,,,,,,,,,,,,,,,,,,,,,,,,,,,,,,,,,,,,,
,,,,left,1,0.4846,2,6,38,4,1,6,-200,left,747,2022-01-19_20h29.34.991,multiplicationStroop,2021.2.3,Win32,59.97720866,,,,,,,,,,,,,,,,,,,,,,,,,,,,,,,,,,,,,,,,,,,,,,,,,,,,,,,,,
,,,,left,1,0.3517,2,7,39,7,1,9,-200,left,747,2022-01-19_20h29.34.991,multiplicationStroop,2021.2.3,Win32,59.97720866,,,,,,,,,,,,,,,,,,,,,,,,,,,,,,,,,,,,,,,,,,,,,,,,,,,,,,,,,
,,,,right,1,0.4017,2,8,40,11,1,4,200,right,747,2022-01-19_20h29.34.991,multiplicationStroop,2021.2.3,Win32,59.97720866,,,,,,,,,,,,,,,,,,,,,,,,,,,,,,,,,,,,,,,,,,,,,,,,,,,,,,,,,
,,,,right,1,0.3283,2,9,41,14,1,8,200,right,747,2022-01-19_20h29.34.991,multiplicationStroop,2021.2.3,Win32,59.97720866,,,,,,,,,,,,,,,,,,,,,,,,,,,,,,,,,,,,,,,,,,,,,,,,,,,,,,,,,
,,,,left,1,0.5858,2,10,42,1,1,2,-200,left,747,2022-01-19_20h29.34.991,multiplicationStroop,2021.2.3,Win32,59.97720866,,,,,,,,,,,,,,,,,,,,,,,,,,,,,,,,,,,,,,,,,,,,,,,,,,,,,,,,,
,,,,right,1,0.4012,2,11,43,10,1,3,200,right,747,2022-01-19_20h29.34.991,multiplicationStroop,2021.2.3,Win32,59.97720866,,,,,,,,,,,,,,,,,,,,,,,,,,,,,,,,,,,,,,,,,,,,,,,,,,,,,,,,,
,,,,right,1,0.3593,2,12,44,12,1,6,200,right,747,2022-01-19_20h29.34.991,multiplicationStroop,2021.2.3,Win32,59.97720866,,,,,,,,,,,,,,,,,,,,,,,,,,,,,,,,,,,,,,,,,,,,,,,,,,,,,,,,,
,,,,left,1,0.4665,2,13,45,3,1,4,-200,left,747,2022-01-19_20h29.34.991,multiplicationStroop,2021.2.3,Win32,59.97720866,,,,,,,,,,,,,,,,,,,,,,,,,,,,,,,,,,,,,,,,,,,,,,,,,,,,,,,,,
,,,,left,1,0.3733,2,14,46,5,1,7,-200,left,747,2022-01-19_20h29.34.991,multiplicationStroop,2021.2.3,Win32,59.97720866,,,,,,,,,,,,,,,,,,,,,,,,,,,,,,,,,,,,,,,,,,,,,,,,,,,,,,,,,
,,,,right,1,0.3934,2,15,47,8,1,1,200,right,747,2022-01-19_20h29.34.991,multiplicationStroop,2021.2.3,Win32,59.97720866,,,,,,,,,,,,,,,,,,,,,,,,,,,,,,,,,,,,,,,,,,,,,,,,,,,,,,,,,
,,,,right,1,0.3023,3,0,48,13,1,7,200,right,747,2022-01-19_20h29.34.991,multiplicationStroop,2021.2.3,Win32,59.97720866,,,,,,,,,,,,,,,,,,,,,,,,,,,,,,,,,,,,,,,,,,,,,,,,,,,,,,,,,
,,,,left,1,0.3779,3,1,49,2,1,3,-200,left,747,2022-01-19_20h29.34.991,multiplicationStroop,2021.2.3,Win32,59.97720866,,,,,,,,,,,,,,,,,,,,,,,,,,,,,,,,,,,,,,,,,,,,,,,,,,,,,,,,,
,,,,right,1,0.3201,3,2,50,14,1,8,200,right,747,2022-01-19_20h29.34.991,multiplicationStroop,2021.2.3,Win32,59.97720866,,,,,,,,,,,,,,,,,,,,,,,,,,,,,,,,,,,,,,,,,,,,,,,,,,,,,,,,,
,,,,left,1,0.29,3,3,51,7,1,9,-200,left,747,2022-01-19_20h29.34.991,multiplicationStroop,2021.2.3,Win32,59.97720866,,,,,,,,,,,,,,,,,,,,,,,,,,,,,,,,,,,,,,,,,,,,,,,,,,,,,,,,,
,,,,right,1,0.3013,3,4,52,9,1,2,200,right,747,2022-01-19_20h29.34.991,multiplicationStroop,2021.2.3,Win32,59.97720866,,,,,,,,,,,,,,,,,,,,,,,,,,,,,,,,,,,,,,,,,,,,,,,,,,,,,,,,,
,,,,right,1,0.3749,3,5,53,15,1,9,200,right,747,2022-01-19_20h29.34.991,multiplicationStroop,2021.2.3,Win32,59.97720866,,,,,,,,,,,,,,,,,,,,,,,,,,,,,,,,,,,,,,,,,,,,,,,,,,,,,,,,,
,,,,left,1,0.3775,3,6,54,5,1,7,-200,left,747,2022-01-19_20h29.34.991,multiplicationStroop,2021.2.3,Win32,59.97720866,,,,,,,,,,,,,,,,,,,,,,,,,,,,,,,,,,,,,,,,,,,,,,,,,,,,,,,,,
,,,,left,1,0.3677,3,7,55,4,1,6,-200,left,747,2022-01-19_20h29.34.991,multiplicationStroop,2021.2.3,Win32,59.97720866,,,,,,,,,,,,,,,,,,,,,,,,,,,,,,,,,,,,,,,,,,,,,,,,,,,,,,,,,
,,,,right,1,0.4561,3,8,56,12,1,6,200,right,747,2022-01-19_20h29.34.991,multiplicationStroop,2021.2.3,Win32,59.97720866,,,,,,,,,,,,,,,,,,,,,,,,,,,,,,,,,,,,,,,,,,,,,,,,,,,,,,,,,
,,,,left,1,0.3881,3,9,57,1,1,2,-200,left,747,2022-01-19_20h29.34.991,multiplicationStroop,2021.2.3,Win32,59.97720866,,,,,,,,,,,,,,,,,,,,,,,,,,,,,,,,,,,,,,,,,,,,,,,,,,,,,,,,,
,,,,left,1,0.4179,3,10,58,3,1,4,-200,left,747,2022-01-19_20h29.34.991,multiplicationStroop,2021.2.3,Win32,59.97720866,,,,,,,,,,,,,,,,,,,,,,,,,,,,,,,,,,,,,,,,,,,,,,,,,,,,,,,,,
,,,,right,1,0.8675,3,11,59,10,1,3,200,right,747,2022-01-19_20h29.34.991,multiplicationStroop,2021.2.3,Win32,59.97720866,,,,,,,,,,,,,,,,,,,,,,,,,,,,,,,,,,,,,,,,,,,,,,,,,,,,,,,,,
,,,,left,1,0.3563,3,12,60,6,1,8,-200,left,747,2022-01-19_20h29.34.991,multiplicationStroop,2021.2.3,Win32,59.97720866,,,,,,,,,,,,,,,,,,,,,,,,,,,,,,,,,,,,,,,,,,,,,,,,,,,,,,,,,
,,,,right,1,0.3759,3,13,61,11,1,4,200,right,747,2022-01-19_20h29.34.991,multiplicationStroop,2021.2.3,Win32,59.97720866,,,,,,,,,,,,,,,,,,,,,,,,,,,,,,,,,,,,,,,,,,,,,,,,,,,,,,,,,
,,,,left,1,0.3181,3,14,62,0,1,1,-200,left,747,2022-01-19_20h29.34.991,multiplicationStroop,2021.2.3,Win32,59.97720866,,,,,,,,,,,,,,,,,,,,,,,,,,,,,,,,,,,,,,,,,,,,,,,,,,,,,,,,,
,,,,right,1,0.3172,3,15,63,8,1,1,200,right,747,2022-01-19_20h29.34.991,multiplicationStroop,2021.2.3,Win32,59.97720866,,,,,,,,,,,,,,,,,,,,,,,,,,,,,,,,,,,,,,,,,,,,,,,,,,,,,,,,,
,,,,,,,,,,,,,,,747,2022-01-19_20h29.34.991,multiplicationStroop,2021.2.3,Win32,59.97720866,space,14.8088,space,7.6002,left,1,0.827,0,0,0,42,1,3,8,3 | 8,5,1.9756,1.4111,incongruent,left,,,,,,stimulusFile/physical.xlsx,,,,,,,,,,,,,,,,,,,,,,,,,,,,,,,
,,,,,,,,,,,,,,,747,2022-01-19_20h29.34.991,multiplicationStroop,2021.2.3,Win32,59.97720866,,,,,right,1,0.5527,0,1,1,57,1,2,2,2 | 2,0,1.4111,1.9756,neutral,right,,,,,,stimulusFile/physical.xlsx,,,,,,,,,,,,,,,,,,,,,,,,,,,,,,,
,,,,,,,,,,,,,,,747,2022-01-19_20h29.34.991,multiplicationStroop,2021.2.3,Win32,59.97720866,,,,,left,1,0.4825,0,2,2,25,1,3,4,3 | 4,1,1.9756,1.4111,incongruent,left,,,,,,stimulusFile/physical.xlsx,,,,,,,,,,,,,,,,,,,,,,,,,,,,,,,
,,,,,,,,,,,,,,,747,2022-01-19_20h29.34.991,multiplicationStroop,2021.2.3,Win32,59.97720866,,,,,right,1,0.4799,0,3,3,62,1,8,8,8 | 8,0,1.4111,1.9756,neutral,right,,,,,,stimulusFile/physical.xlsx,,,,,,,,,,,,,,,,,,,,,,,,,,,,,,,
,,,,,,,,,,,,,,,747,2022-01-19_20h29.34.991,multiplicationStroop,2021.2.3,Win32,59.97720866,,,,,right,1,0.6272,0,4,4,36,1,3,1,3 | 1,2,1.4111,1.9756,incongruent,right,,,,,,stimulusFile/physical.xlsx,,,,,,,,,,,,,,,,,,,,,,,,,,,,,,,
,,,,,,,,,,,,,,,747,2022-01-19_20h29.34.991,multiplicationStroop,2021.2.3,Win32,59.97720866,,,,,left,1,0.4928,0,5,5,32,1,1,3,1 | 3,2,1.9756,1.4111,incongruent,left,,,,,,stimulusFile/physical.xlsx,,,,,,,,,,,,,,,,,,,,,,,,,,,,,,,
,,,,,,,,,,,,,,,747,2022-01-19_20h29.34.991,multiplicationStroop,2021.2.3,Win32,59.97720866,,,,,right,1,0.4967,0,6,6,67,1,4,4,4 | 4,0,1.4111,1.9756,neutral,right,,,,,,stimulusFile/physical.xlsx,,,,,,,,,,,,,,,,,,,,,,,,,,,,,,,
,,,,,,,,,,,,,,,747,2022-01-19_20h29.34.991,multiplicationStroop,2021.2.3,Win32,59.97720866,,,,,right,0,0.7485,0,7,7,69,1,7,7,7 | 7,0,1.4111,1.9756,neutral,left,,,,,,stimulusFile/physical.xlsx,,,,,,,,,,,,,,,,,,,,,,,,,,,,,,,
,,,,,,,,,,,,,,,747,2022-01-19_20h29.34.991,multiplicationStroop,2021.2.3,Win32,59.97720866,,,,,right,1,0.5648,0,8,8,47,1,9,4,9 | 4,5,1.4111,1.9756,incongruent,right,,,,,,stimulusFile/physical.xlsx,,,,,,,,,,,,,,,,,,,,,,,,,,,,,,,
,,,,,,,,,,,,,,,747,2022-01-19_20h29.34.991,multiplicationStroop,2021.2.3,Win32,59.97720866,,,,,left,1,0.473,0,9,9,51,1,8,8,8 | 8,0,1.9756,1.4111,neutral,left,,,,,,stimulusFile/physical.xlsx,,,,,,,,,,,,,,,,,,,,,,,,,,,,,,,
,,,,,,,,,,,,,,,747,2022-01-19_20h29.34.991,multiplicationStroop,2021.2.3,Win32,59.97720866,,,,,right,1,0.5213,0,10,10,0,1,1,2,1 | 2,1,1.4111,1.9756,congruent,right,,,,,,stimulusFile/physical.xlsx,,,,,,,,,,,,,,,,,,,,,,,,,,,,,,,
,,,,,,,,,,,,,,,747,2022-01-19_20h29.34.991,multiplicationStroop,2021.2.3,Win32,59.97720866,,,,,right,1,0.6499,0,11,11,29,1,4,3,4 | 3,1,1.4111,1.9756,incongruent,right,,,,,,stimulusFile/physical.xlsx,,,,,,,,,,,,,,,,,,,,,,,,,,,,,,,
,,,,,,,,,,,,,,,747,2022-01-19_20h29.34.991,multiplicationStroop,2021.2.3,Win32,59.97720866,,,,,left,1,0.4603,0,12,12,55,1,9,9,9 | 9,0,1.9756,1.4111,neutral,left,,,,,,stimulusFile/physical.xlsx,,,,,,,,,,,,,,,,,,,,,,,,,,,,,,,
,,,,,,,,,,,,,,,747,2022-01-19_20h29.34.991,multiplicationStroop,2021.2.3,Win32,59.97720866,,,,,left,1,0.7577,0,13,13,26,1,6,7,6 | 7,1,1.9756,1.4111,incongruent,left,,,,,,stimulusFile/physical.xlsx,,,,,,,,,,,,,,,,,,,,,,,,,,,,,,,
,,,,,,,,,,,,,,,747,2022-01-19_20h29.34.991,multiplicationStroop,2021.2.3,Win32,59.97720866,,,,,right,1,0.5451,0,14,14,1,1,3,4,3 | 4,1,1.4111,1.9756,congruent,right,,,,,,stimulusFile/physical.xlsx,,,,,,,,,,,,,,,,,,,,,,,,,,,,,,,
,,,,,,,,,,,,,,,747,2022-01-19_20h29.34.991,multiplicationStroop,2021.2.3,Win32,59.97720866,,,,,right,1,0.6361,0,15,15,65,1,2,2,2 | 2,0,1.4111,1.9756,neutral,right,,,,,,stimulusFile/physical.xlsx,,,,,,,,,,,,,,,,,,,,,,,,,,,,,,,
,,,,,,,,,,,,,,,747,2022-01-19_20h29.34.991,multiplicationStroop,2021.2.3,Win32,59.97720866,,,,,left,1,0.5763,0,16,16,41,1,2,7,2 | 7,5,1.9756,1.4111,incongruent,left,,,,,,stimulusFile/physical.xlsx,,,,,,,,,,,,,,,,,,,,,,,,,,,,,,,
,,,,,,,,,,,,,,,747,2022-01-19_20h29.34.991,multiplicationStroop,2021.2.3,Win32,59.97720866,,,,,left,1,0.7277,0,17,17,48,1,1,1,1 | 1,0,1.9756,1.4111,neutral,left,,,,,,stimulusFile/physical.xlsx,,,,,,,,,,,,,,,,,,,,,,,,,,,,,,,
,,,,,,,,,,,,,,,747,2022-01-19_20h29.34.991,multiplicationStroop,2021.2.3,Win32,59.97720866,,,,,left,1,0.6981,0,18,18,35,1,7,9,7 | 9,2,1.9756,1.4111,incongruent,left,,,,,,stimulusFile/physical.xlsx,,,,,,,,,,,,,,,,,,,,,,,,,,,,,,,
,,,,,,,,,,,,,,,747,2022-01-19_20h29.34.991,multiplicationStroop,2021.2.3,Win32,59.97720866,,,,,left,1,0.5841,0,19,19,54,1,7,7,7 | 7,0,1.9756,1.4111,neutral,left,,,,,,stimulusFile/physical.xlsx,,,,,,,,,,,,,,,,,,,,,,,,,,,,,,,
,,,,,,,,,,,,,,,747,2022-01-19_20h29.34.991,multiplicationStroop,2021.2.3,Win32,59.97720866,,,,,left,1,0.5272,0,20,20,43,1,4,9,4 | 9,5,1.9756,1.4111,incongruent,left,,,,,,stimulusFile/physical.xlsx,,,,,,,,,,,,,,,,,,,,,,,,,,,,,,,
,,,,,,,,,,,,,,,747,2022-01-19_20h29.34.991,multiplicationStroop,2021.2.3,Win32,59.97720866,,,,,left,1,0.4651,0,21,21,22,1,8,3,8 | 3,5,1.9756,1.4111,congruent,left,,,,,,stimulusFile/physical.xlsx,,,,,,,,,,,,,,,,,,,,,,,,,,,,,,,
,,,,,,,,,,,,,,,747,2022-01-19_20h29.34.991,multiplicationStroop,2021.2.3,Win32,59.97720866,,,,,right,1,0.4726,0,22,22,8,1,1,3,1 | 3,2,1.4111,1.9756,congruent,right,,,,,,stimulusFile/physical.xlsx,,,,,,,,,,,,,,,,,,,,,,,,,,,,,,,
,,,,,,,,,,,,,,,747,2022-01-19_20h29.34.991,multiplicationStroop,2021.2.3,Win32,59.97720866,,,,,left,1,0.4807,0,23,23,14,1,8,6,8 | 6,2,1.9756,1.4111,congruent,left,,,,,,stimulusFile/physical.xlsx,,,,,,,,,,,,,,,,,,,,,,,,,,,,,,,
,,,,,,,,,,,,,,,747,2022-01-19_20h29.34.991,multiplicationStroop,2021.2.3,Win32,59.97720866,,,,,right,1,0.5233,0,24,24,38,1,8,6,8 | 6,2,1.4111,1.9756,incongruent,right,,,,,,stimulusFile/physical.xlsx,,,,,,,,,,,,,,,,,,,,,,,,,,,,,,,
,,,,,,,,,,,,,,,747,2022-01-19_20h29.34.991,multiplicationStroop,2021.2.3,Win32,59.97720866,,,,,right,1,0.5138,0,25,25,3,1,8,9,8 | 9,1,1.4111,1.9756,congruent,right,,,,,,stimulusFile/physical.xlsx,,,,,,,,,,,,,,,,,,,,,,,,,,,,,,,
,,,,,,,,,,,,,,,747,2022-01-19_20h29.34.991,multiplicationStroop,2021.2.3,Win32,59.97720866,,,,,right,1,0.4612,0,26,26,63,1,9,9,9 | 9,0,1.4111,1.9756,neutral,right,,,,,,stimulusFile/physical.xlsx,,,,,,,,,,,,,,,,,,,,,,,,,,,,,,,
,,,,,,,,,,,,,,,747,2022-01-19_20h29.34.991,multiplicationStroop,2021.2.3,Win32,59.97720866,,,,,right,1,0.4726,0,27,27,2,1,6,7,6 | 7,1,1.4111,1.9756,congruent,right,,,,,,stimulusFile/physical.xlsx,,,,,,,,,,,,,,,,,,,,,,,,,,,,,,,
,,,,,,,,,,,,,,,747,2022-01-19_20h29.34.991,multiplicationStroop,2021.2.3,Win32,59.97720866,,,,,left,1,0.4154,0,28,28,49,1,3,3,3 | 3,0,1.9756,1.4111,neutral,left,,,,,,stimulusFile/physical.xlsx,,,,,,,,,,,,,,,,,,,,,,,,,,,,,,,
,,,,,,,,,,,,,,,747,2022-01-19_20h29.34.991,multiplicationStroop,2021.2.3,Win32,59.97720866,,,,,left,1,0.5389,0,29,29,24,1,1,2,1 | 2,1,1.9756,1.4111,incongruent,left,,,,,,stimulusFile/physical.xlsx,,,,,,,,,,,,,,,,,,,,,,,,,,,,,,,
,,,,,,,,,,,,,,,747,2022-01-19_20h29.34.991,multiplicationStroop,2021.2.3,Win32,59.97720866,,,,,left,1,0.4709,0,30,30,6,1,7,6,7 | 6,1,1.9756,1.4111,congruent,left,,,,,,stimulusFile/physical.xlsx,,,,,,,,,,,,,,,,,,,,,,,,,,,,,,,
,,,,,,,,,,,,,,,747,2022-01-19_20h29.34.991,multiplicationStroop,2021.2.3,Win32,59.97720866,,,,,left,1,0.8658,0,31,31,40,1,1,6,1 | 6,5,1.9756,1.4111,incongruent,left,,,,,,stimulusFile/physical.xlsx,,,,,,,,,,,,,,,,,,,,,,,,,,,,,,,
,,,,,,,,,,,,,,,747,2022-01-19_20h29.34.991,multiplicationStroop,2021.2.3,Win32,59.97720866,,,,,right,1,0.4975,0,32,32,60,1,3,3,3 | 3,0,1.4111,1.9756,neutral,right,,,,,,stimulusFile/physical.xlsx,,,,,,,,,,,,,,,,,,,,,,,,,,,,,,,
,,,,,,,,,,,,,,,747,2022-01-19_20h29.34.991,multiplicationStroop,2021.2.3,Win32,59.97720866,,,,,right,1,0.6015,0,33,33,28,1,2,1,2 | 1,1,1.4111,1.9756,incongruent,right,,,,,,stimulusFile/physical.xlsx,,,,,,,,,,,,,,,,,,,,,,,,,,,,,,,
,,,,,,,,,,,,,,,747,2022-01-19_20h29.34.991,multiplicationStroop,2021.2.3,Win32,59.97720866,,,,,right,0,0.4738,0,34,34,71,1,9,9,9 | 9,0,1.4111,1.9756,neutral,left,,,,,,stimulusFile/physical.xlsx,,,,,,,,,,,,,,,,,,,,,,,,,,,,,,,
,,,,,,,,,,,,,,,747,2022-01-19_20h29.34.991,multiplicationStroop,2021.2.3,Win32,59.97720866,,,,,right,1,0.773,0,35,35,9,1,2,4,2 | 4,2,1.4111,1.9756,congruent,right,,,,,,stimulusFile/physical.xlsx,,,,,,,,,,,,,,,,,,,,,,,,,,,,,,,
,,,,,,,,,,,,,,,747,2022-01-19_20h29.34.991,multiplicationStroop,2021.2.3,Win32,59.97720866,,,,,left,1,0.4775,0,36,36,33,1,2,4,2 | 4,2,1.9756,1.4111,incongruent,left,,,,,,stimulusFile/physical.xlsx,,,,,,,,,,,,,,,,,,,,,,,,,,,,,,,
,,,,,,,,,,,,,,,747,2022-01-19_20h29.34.991,multiplicationStroop,2021.2.3,Win32,59.97720866,,,,,right,1,0.461,0,37,37,46,1,8,3,8 | 3,5,1.4111,1.9756,incongruent,right,,,,,,stimulusFile/physical.xlsx,,,,,,,,,,,,,,,,,,,,,,,,,,,,,,,
,,,,,,,,,,,,,,,747,2022-01-19_20h29.34.991,multiplicationStroop,2021.2.3,Win32,59.97720866,,,,,left,1,0.5046,0,38,38,7,1,9,8,9 | 8,1,1.9756,1.4111,congruent,left,,,,,,stimulusFile/physical.xlsx,,,,,,,,,,,,,,,,,,,,,,,,,,,,,,,
,,,,,,,,,,,,,,,747,2022-01-19_20h29.34.991,multiplicationStroop,2021.2.3,Win32,59.97720866,,,,,right,1,0.6942,0,39,39,10,1,6,8,6 | 8,2,1.4111,1.9756,congruent,right,,,,,,stimulusFile/physical.xlsx,,,,,,,,,,,,,,,,,,,,,,,,,,,,,,,
,,,,,,,,,,,,,,,747,2022-01-19_20h29.34.991,multiplicationStroop,2021.2.3,Win32,59.97720866,,,,,left,1,0.4907,0,40,40,12,1,3,1,3 | 1,2,1.9756,1.4111,congruent,left,,,,,,stimulusFile/physical.xlsx,,,,,,,,,,,,,,,,,,,,,,,,,,,,,,,
,,,,,,,,,,,,,,,747,2022-01-19_20h29.34.991,multiplicationStroop,2021.2.3,Win32,59.97720866,,,,,left,1,0.5132,0,41,41,5,1,4,3,4 | 3,1,1.9756,1.4111,congruent,left,,,,,,stimulusFile/physical.xlsx,,,,,,,,,,,,,,,,,,,,,,,,,,,,,,,
,,,,,,,,,,,,,,,747,2022-01-19_20h29.34.991,multiplicationStroop,2021.2.3,Win32,59.97720866,,,,,right,1,0.4517,0,42,42,17,1,2,7,2 | 7,5,1.4111,1.9756,congruent,right,,,,,,stimulusFile/physical.xlsx,,,,,,,,,,,,,,,,,,,,,,,,,,,,,,,
,,,,,,,,,,,,,,,747,2022-01-19_20h29.34.991,multiplicationStroop,2021.2.3,Win32,59.97720866,,,,,left,1,0.4874,0,43,43,15,1,9,7,9 | 7,2,1.9756,1.4111,congruent,left,,,,,,stimulusFile/physical.xlsx,,,,,,,,,,,,,,,,,,,,,,,,,,,,,,,
,,,,,,,,,,,,,,,747,2022-01-19_20h29.34.991,multiplicationStroop,2021.2.3,Win32,59.97720866,,,,,left,1,0.602,0,44,44,20,1,6,1,6 | 1,5,1.9756,1.4111,congruent,left,,,,,,stimulusFile/physical.xlsx,,,,,,,,,,,,,,,,,,,,,,,,,,,,,,,
,,,,,,,,,,,,,,,747,2022-01-19_20h29.34.991,multiplicationStroop,2021.2.3,Win32,59.97720866,,,,,right,1,0.4849,0,45,45,19,1,4,9,4 | 9,5,1.4111,1.9756,congruent,right,,,,,,stimulusFile/physical.xlsx,,,,,,,,,,,,,,,,,,,,,,,,,,,,,,,
,,,,,,,,,,,,,,,747,2022-01-19_20h29.34.991,multiplicationStroop,2021.2.3,Win32,59.97720866,,,,,left,1,0.385,0,46,46,27,1,8,9,8 | 9,1,1.9756,1.4111,incongruent,left,,,,,,stimulusFile/physical.xlsx,,,,,,,,,,,,,,,,,,,,,,,,,,,,,,,
,,,,,,,,,,,,,,,747,2022-01-19_20h29.34.991,multiplicationStroop,2021.2.3,Win32,59.97720866,,,,,right,1,0.4907,0,47,47,16,1,1,6,1 | 6,5,1.4111,1.9756,congruent,right,,,,,,stimulusFile/physical.xlsx,,,,,,,,,,,,,,,,,,,,,,,,,,,,,,,
,,,,,,,,,,,,,,,747,2022-01-19_20h29.34.991,multiplicationStroop,2021.2.3,Win32,59.97720866,,,,,left,1,0.411,0,48,48,21,1,7,2,7 | 2,5,1.9756,1.4111,congruent,left,,,,,,stimulusFile/physical.xlsx,,,,,,,,,,,,,,,,,,,,,,,,,,,,,,,
,,,,,,,,,,,,,,,747,2022-01-19_20h29.34.991,multiplicationStroop,2021.2.3,Win32,59.97720866,,,,,right,1,0.5679,0,49,49,59,1,7,7,7 | 7,0,1.4111,1.9756,neutral,right,,,,,,stimulusFile/physical.xlsx,,,,,,,,,,,,,,,,,,,,,,,,,,,,,,,
,,,,,,,,,,,,,,,747,2022-01-19_20h29.34.991,multiplicationStroop,2021.2.3,Win32,59.97720866,,,,,left,1,0.3567,0,50,50,68,1,6,6,6 | 6,0,1.9756,1.4111,neutral,left,,,,,,stimulusFile/physical.xlsx,,,,,,,,,,,,,,,,,,,,,,,,,,,,,,,
,,,,,,,,,,,,,,,747,2022-01-19_20h29.34.991,multiplicationStroop,2021.2.3,Win32,59.97720866,,,,,right,1,0.5374,0,51,51,58,1,6,6,6 | 6,0,1.4111,1.9756,neutral,right,,,,,,stimulusFile/physical.xlsx,,,,,,,,,,,,,,,,,,,,,,,,,,,,,,,
,,,,,,,,,,,,,,,747,2022-01-19_20h29.34.991,multiplicationStroop,2021.2.3,Win32,59.97720866,,,,,left,1,0.4507,0,52,52,13,1,4,2,4 | 2,2,1.9756,1.4111,congruent,left,,,,,,stimulusFile/physical.xlsx,,,,,,,,,,,,,,,,,,,,,,,,,,,,,,,
,,,,,,,,,,,,,,,747,2022-01-19_20h29.34.991,multiplicationStroop,2021.2.3,Win32,59.97720866,,,,,right,1,0.451,0,53,53,56,1,1,1,1 | 1,0,1.4111,1.9756,neutral,right,,,,,,stimulusFile/physical.xlsx,,,,,,,,,,,,,,,,,,,,,,,,,,,,,,,
,,,,,,,,,,,,,,,747,2022-01-19_20h29.34.991,multiplicationStroop,2021.2.3,Win32,59.97720866,,,,,left,1,0.4575,0,54,54,70,1,8,8,8 | 8,0,1.9756,1.4111,neutral,left,,,,,,stimulusFile/physical.xlsx,,,,,,,,,,,,,,,,,,,,,,,,,,,,,,,
,,,,,,,,,,,,,,,747,2022-01-19_20h29.34.991,multiplicationStroop,2021.2.3,Win32,59.97720866,,,,,left,1,0.5347,0,55,55,34,1,6,8,6 | 8,2,1.9756,1.4111,incongruent,left,,,,,,stimulusFile/physical.xlsx,,,,,,,,,,,,,,,,,,,,,,,,,,,,,,,
,,,,,,,,,,,,,,,747,2022-01-19_20h29.34.991,multiplicationStroop,2021.2.3,Win32,59.97720866,,,,,right,1,0.4436,0,56,56,30,1,7,6,7 | 6,1,1.4111,1.9756,incongruent,right,,,,,,stimulusFile/physical.xlsx,,,,,,,,,,,,,,,,,,,,,,,,,,,,,,,
,,,,,,,,,,,,,,,747,2022-01-19_20h29.34.991,multiplicationStroop,2021.2.3,Win32,59.97720866,,,,,right,1,1.0688,0,57,57,31,1,9,8,9 | 8,1,1.4111,1.9756,incongruent,right,,,,,,stimulusFile/physical.xlsx,,,,,,,,,,,,,,,,,,,,,,,,,,,,,,,
,,,,,,,,,,,,,,,747,2022-01-19_20h29.34.991,multiplicationStroop,2021.2.3,Win32,59.97720866,,,,,left,0,0.4605,0,58,58,64,1,1,1,1 | 1,0,1.9756,1.4111,neutral,right,,,,,,stimulusFile/physical.xlsx,,,,,,,,,,,,,,,,,,,,,,,,,,,,,,,
,,,,,,,,,,,,,,,747,2022-01-19_20h29.34.991,multiplicationStroop,2021.2.3,Win32,59.97720866,,,,,right,1,0.7569,0,59,59,44,1,6,1,6 | 1,5,1.4111,1.9756,incongruent,right,,,,,,stimulusFile/physical.xlsx,,,,,,,,,,,,,,,,,,,,,,,,,,,,,,,
,,,,,,,,,,,,,,,747,2022-01-19_20h29.34.991,multiplicationStroop,2021.2.3,Win32,59.97720866,,,,,left,1,0.502,0,60,60,23,1,9,4,9 | 4,5,1.9756,1.4111,congruent,left,,,,,,stimulusFile/physical.xlsx,,,,,,,,,,,,,,,,,,,,,,,,,,,,,,,
,,,,,,,,,,,,,,,747,2022-01-19_20h29.34.991,multiplicationStroop,2021.2.3,Win32,59.97720866,,,,,right,1,0.485,0,61,61,45,1,7,2,7 | 2,5,1.4111,1.9756,incongruent,right,,,,,,stimulusFile/physical.xlsx,,,,,,,,,,,,,,,,,,,,,,,,,,,,,,,
,,,,,,,,,,,,,,,747,2022-01-19_20h29.34.991,multiplicationStroop,2021.2.3,Win32,59.97720866,,,,,left,1,0.5056,0,62,62,50,1,6,6,6 | 6,0,1.9756,1.4111,neutral,left,,,,,,stimulusFile/physical.xlsx,,,,,,,,,,,,,,,,,,,,,,,,,,,,,,,
,,,,,,,,,,,,,,,747,2022-01-19_20h29.34.991,multiplicationStroop,2021.2.3,Win32,59.97720866,,,,,left,1,0.606,0,63,63,52,1,2,2,2 | 2,0,1.9756,1.4111,neutral,left,,,,,,stimulusFile/physical.xlsx,,,,,,,,,,,,,,,,,,,,,,,,,,,,,,,
,,,,,,,,,,,,,,,747,2022-01-19_20h29.34.991,multiplicationStroop,2021.2.3,Win32,59.97720866,,,,,right,1,0.4357,0,64,64,37,1,4,2,4 | 2,2,1.4111,1.9756,incongruent,right,,,,,,stimulusFile/physical.xlsx,,,,,,,,,,,,,,,,,,,,,,,,,,,,,,,
,,,,,,,,,,,,,,,747,2022-01-19_20h29.34.991,multiplicationStroop,2021.2.3,Win32,59.97720866,,,,,left,1,0.5584,0,65,65,53,1,4,4,4 | 4,0,1.9756,1.4111,neutral,left,,,,,,stimulusFile/physical.xlsx,,,,,,,,,,,,,,,,,,,,,,,,,,,,,,,
,,,,,,,,,,,,,,,747,2022-01-19_20h29.34.991,multiplicationStroop,2021.2.3,Win32,59.97720866,,,,,left,0,0.4859,0,66,66,66,1,3,3,3 | 3,0,1.9756,1.4111,neutral,right,,,,,,stimulusFile/physical.xlsx,,,,,,,,,,,,,,,,,,,,,,,,,,,,,,,
,,,,,,,,,,,,,,,747,2022-01-19_20h29.34.991,multiplicationStroop,2021.2.3,Win32,59.97720866,,,,,right,1,0.4348,0,67,67,61,1,4,4,4 | 4,0,1.4111,1.9756,neutral,right,,,,,,stimulusFile/physical.xlsx,,,,,,,,,,,,,,,,,,,,,,,,,,,,,,,
,,,,,,,,,,,,,,,747,2022-01-19_20h29.34.991,multiplicationStroop,2021.2.3,Win32,59.97720866,,,,,right,1,0.5019,0,68,68,18,1,3,8,3 | 8,5,1.4111,1.9756,congruent,right,,,,,,stimulusFile/physical.xlsx,,,,,,,,,,,,,,,,,,,,,,,,,,,,,,,
,,,,,,,,,,,,,,,747,2022-01-19_20h29.34.991,multiplicationStroop,2021.2.3,Win32,59.97720866,,,,,right,1,0.4078,0,69,69,11,1,7,9,7 | 9,2,1.4111,1.9756,congruent,right,,,,,,stimulusFile/physical.xlsx,,,,,,,,,,,,,,,,,,,,,,,,,,,,,,,
,,,,,,,,,,,,,,,747,2022-01-19_20h29.34.991,multiplicationStroop,2021.2.3,Win32,59.97720866,,,,,left,1,0.4749,0,70,70,4,1,2,1,2 | 1,1,1.9756,1.4111,congruent,left,,,,,,stimulusFile/physical.xlsx,,,,,,,,,,,,,,,,,,,,,,,,,,,,,,,
,,,,,,,,,,,,,,,747,2022-01-19_20h29.34.991,multiplicationStroop,2021.2.3,Win32,59.97720866,,,,,right,1,0.4412,0,71,71,39,1,9,7,9 | 7,2,1.4111,1.9756,incongruent,right,,,,,,stimulusFile/physical.xlsx,,,,,,,,,,,,,,,,,,,,,,,,,,,,,,,
,,,,,,,,,,,,,,,747,2022-01-19_20h29.34.991,multiplicationStroop,2021.2.3,Win32,59.97720866,,,,,,,,,,,,,,,,,,,,,0,0,0,1,1,stimulusFile/physical.xlsx,PHYSICALLY larger (larger font size).,images/physicallyLarger.png,,,,,,,,,,,,,,,,,,,,,,,,,,,,,
,,,,,,,,,,,,,,,747,2022-01-19_20h29.34.991,multiplicationStroop,2021.2.3,Win32,59.97720866,space,5.9258,space,5.0656,left,1,1.3173,0,0,0,54,1,7,6,7 | 6,1,1.6933,1.6933,neutral,left,,,,,,stimulusFile/magnitude.xlsx,,,,,,,,,,,,,,,,,,,,,,,,,,,,,,,
,,,,,,,,,,,,,,,747,2022-01-19_20h29.34.991,multiplicationStroop,2021.2.3,Win32,59.97720866,,,,,left,1,0.584,0,1,1,6,1,7,6,7 | 6,1,1.9756,1.4111,congruent,left,,,,,,stimulusFile/magnitude.xlsx,,,,,,,,,,,,,,,,,,,,,,,,,,,,,,,
,,,,,,,,,,,,,,,747,2022-01-19_20h29.34.991,multiplicationStroop,2021.2.3,Win32,59.97720866,,,,,left,1,0.5014,0,2,2,22,1,8,3,8 | 3,5,1.9756,1.4111,congruent,left,,,,,,stimulusFile/magnitude.xlsx,,,,,,,,,,,,,,,,,,,,,,,,,,,,,,,
,,,,,,,,,,,,,,,747,2022-01-19_20h29.34.991,multiplicationStroop,2021.2.3,Win32,59.97720866,,,,,left,1,0.5678,0,3,3,44,1,6,1,6 | 1,5,1.4111,1.9756,incongruent,left,,,,,,stimulusFile/magnitude.xlsx,,,,,,,,,,,,,,,,,,,,,,,,,,,,,,,
,,,,,,,,,,,,,,,747,2022-01-19_20h29.34.991,multiplicationStroop,2021.2.3,Win32,59.97720866,,,,,right,1,1.1736,0,4,4,50,1,6,7,6 | 7,1,1.6933,1.6933,neutral,right,,,,,,stimulusFile/magnitude.xlsx,,,,,,,,,,,,,,,,,,,,,,,,,,,,,,,
,,,,,,,,,,,,,,,747,2022-01-19_20h29.34.991,multiplicationStroop,2021.2.3,Win32,59.97720866,,,,,right,1,0.6867,0,5,5,66,1,3,8,3 | 8,5,1.6933,1.6933,neutral,right,,,,,,stimulusFile/magnitude.xlsx,,,,,,,,,,,,,,,,,,,,,,,,,,,,,,,
,,,,,,,,,,,,,,,747,2022-01-19_20h29.34.991,multiplicationStroop,2021.2.3,Win32,59.97720866,,,,,left,1,0.8177,0,6,6,28,1,2,1,2 | 1,1,1.4111,1.9756,incongruent,left,,,,,,stimulusFile/magnitude.xlsx,,,,,,,,,,,,,,,,,,,,,,,,,,,,,,,
,,,,,,,,,,,,,,,747,2022-01-19_20h29.34.991,multiplicationStroop,2021.2.3,Win32,59.97720866,,,,,right,1,0.7199,0,7,7,2,1,6,7,6 | 7,1,1.4111,1.9756,congruent,right,,,,,,stimulusFile/magnitude.xlsx,,,,,,,,,,,,,,,,,,,,,,,,,,,,,,,
,,,,,,,,,,,,,,,747,2022-01-19_20h29.34.991,multiplicationStroop,2021.2.3,Win32,59.97720866,,,,,right,1,0.7682,0,8,8,25,1,3,4,3 | 4,1,1.9756,1.4111,incongruent,right,,,,,,stimulusFile/magnitude.xlsx,,,,,,,,,,,,,,,,,,,,,,,,,,,,,,,
,,,,,,,,,,,,,,,747,2022-01-19_20h29.34.991,multiplicationStroop,2021.2.3,Win32,59.97720866,,,,,left,1,0.7863,0,9,9,55,1,9,8,9 | 8,1,1.6933,1.6933,neutral,left,,,,,,stimulusFile/magnitude.xlsx,,,,,,,,,,,,,,,,,,,,,,,,,,,,,,,
,,,,,,,,,,,,,,,747,2022-01-19_20h29.34.991,multiplicationStroop,2021.2.3,Win32,59.97720866,,,,,right,1,0.8339,0,10,10,41,1,2,7,2 | 7,5,1.9756,1.4111,incongruent,right,,,,,,stimulusFile/magnitude.xlsx,,,,,,,,,,,,,,,,,,,,,,,,,,,,,,,
,,,,,,,,,,,,,,,747,2022-01-19_20h29.34.991,multiplicationStroop,2021.2.3,Win32,59.97720866,,,,,right,1,0.868,0,11,11,26,1,6,7,6 | 7,1,1.9756,1.4111,incongruent,right,,,,,,stimulusFile/magnitude.xlsx,,,,,,,,,,,,,,,,,,,,,,,,,,,,,,,
,,,,,,,,,,,,,,,747,2022-01-19_20h29.34.991,multiplicationStroop,2021.2.3,Win32,59.97720866,,,,,left,1,0.7009,0,12,12,60,1,3,1,3 | 1,2,1.6933,1.6933,neutral,left,,,,,,stimulusFile/magnitude.xlsx,,,,,,,,,,,,,,,,,,,,,,,,,,,,,,,
,,,,,,,,,,,,,,,747,2022-01-19_20h29.34.991,multiplicationStroop,2021.2.3,Win32,59.97720866,,,,,right,1,0.7536,0,13,13,42,1,3,8,3 | 8,5,1.9756,1.4111,incongruent,right,,,,,,stimulusFile/magnitude.xlsx,,,,,,,,,,,,,,,,,,,,,,,,,,,,,,,
,,,,,,,,,,,,,,,747,2022-01-19_20h29.34.991,multiplicationStroop,2021.2.3,Win32,59.97720866,,,,,right,1,0.618,0,14,14,8,1,1,3,1 | 3,2,1.4111,1.9756,congruent,right,,,,,,stimulusFile/magnitude.xlsx,,,,,,,,,,,,,,,,,,,,,,,,,,,,,,,
,,,,,,,,,,,,,,,747,2022-01-19_20h29.34.991,multiplicationStroop,2021.2.3,Win32,59.97720866,,,,,right,1,0.6845,0,15,15,1,1,3,4,3 | 4,1,1.4111,1.9756,congruent,right,,,,,,stimulusFile/magnitude.xlsx,,,,,,,,,,,,,,,,,,,,,,,,,,,,,,,
,,,,,,,,,,,,,,,747,2022-01-19_20h29.34.991,multiplicationStroop,2021.2.3,Win32,59.97720866,,,,,left,0,0.6923,0,16,16,24,1,1,2,1 | 2,1,1.9756,1.4111,incongruent,right,,,,,,stimulusFile/magnitude.xlsx,,,,,,,,,,,,,,,,,,,,,,,,,,,,,,,
,,,,,,,,,,,,,,,747,2022-01-19_20h29.34.991,multiplicationStroop,2021.2.3,Win32,59.97720866,,,,,left,1,0.9509,0,17,17,71,1,9,4,9 | 4,5,1.6933,1.6933,neutral,left,,,,,,stimulusFile/magnitude.xlsx,,,,,,,,,,,,,,,,,,,,,,,,,,,,,,,
,,,,,,,,,,,,,,,747,2022-01-19_20h29.34.991,multiplicationStroop,2021.2.3,Win32,59.97720866,,,,,right,1,0.8673,0,18,18,43,1,4,9,4 | 9,5,1.9756,1.4111,incongruent,right,,,,,,stimulusFile/magnitude.xlsx,,,,,,,,,,,,,,,,,,,,,,,,,,,,,,,
,,,,,,,,,,,,,,,747,2022-01-19_20h29.34.991,multiplicationStroop,2021.2.3,Win32,59.97720866,,,,,right,1,0.7343,0,19,19,48,1,1,2,1 | 2,1,1.6933,1.6933,neutral,right,,,,,,stimulusFile/magnitude.xlsx,,,,,,,,,,,,,,,,,,,,,,,,,,,,,,,
,,,,,,,,,,,,,,,747,2022-01-19_20h29.34.991,multiplicationStroop,2021.2.3,Win32,59.97720866,,,,,left,1,0.659,0,20,20,30,1,7,6,7 | 6,1,1.4111,1.9756,incongruent,left,,,,,,stimulusFile/magnitude.xlsx,,,,,,,,,,,,,,,,,,,,,,,,,,,,,,,
,,,,,,,,,,,,,,,747,2022-01-19_20h29.34.991,multiplicationStroop,2021.2.3,Win32,59.97720866,,,,,left,1,0.5345,0,21,21,38,1,8,6,8 | 6,2,1.4111,1.9756,incongruent,left,,,,,,stimulusFile/magnitude.xlsx,,,,,,,,,,,,,,,,,,,,,,,,,,,,,,,
,,,,,,,,,,,,,,,747,2022-01-19_20h29.34.991,multiplicationStroop,2021.2.3,Win32,59.97720866,,,,,right,1,0.5675,0,22,22,19,1,4,9,4 | 9,5,1.4111,1.9756,congruent,right,,,,,,stimulusFile/magnitude.xlsx,,,,,,,,,,,,,,,,,,,,,,,,,,,,,,,
,,,,,,,,,,,,,,,747,2022-01-19_20h29.34.991,multiplicationStroop,2021.2.3,Win32,59.97720866,,,,,right,1,0.5177,0,23,23,16,1,1,6,1 | 6,5,1.4111,1.9756,congruent,right,,,,,,stimulusFile/magnitude.xlsx,,,,,,,,,,,,,,,,,,,,,,,,,,,,,,,
,,,,,,,,,,,,,,,747,2022-01-19_20h29.34.991,multiplicationStroop,2021.2.3,Win32,59.97720866,,,,,right,1,0.8012,0,24,24,64,1,1,6,1 | 6,5,1.6933,1.6933,neutral,right,,,,,,stimulusFile/magnitude.xlsx,,,,,,,,,,,,,,,,,,,,,,,,,,,,,,,
,,,,,,,,,,,,,,,747,2022-01-19_20h29.34.991,multiplicationStroop,2021.2.3,Win32,59.97720866,,,,,right,0,0.9402,0,25,25,31,1,9,8,9 | 8,1,1.4111,1.9756,incongruent,left,,,,,,stimulusFile/magnitude.xlsx,,,,,,,,,,,,,,,,,,,,,,,,,,,,,,,
,,,,,,,,,,,,,,,747,2022-01-19_20h29.34.991,multiplicationStroop,2021.2.3,Win32,59.97720866,,,,,right,1,0.9108,0,26,26,32,1,1,3,1 | 3,2,1.9756,1.4111,incongruent,right,,,,,,stimulusFile/magnitude.xlsx,,,,,,,,,,,,,,,,,,,,,,,,,,,,,,,
,,,,,,,,,,,,,,,747,2022-01-19_20h29.34.991,multiplicationStroop,2021.2.3,Win32,59.97720866,,,,,left,1,0.6013,0,27,27,4,1,2,1,2 | 1,1,1.9756,1.4111,congruent,left,,,,,,stimulusFile/magnitude.xlsx,,,,,,,,,,,,,,,,,,,,,,,,,,,,,,,
,,,,,,,,,,,,,,,747,2022-01-19_20h29.34.991,multiplicationStroop,2021.2.3,Win32,59.97720866,,,,,right,1,0.8676,0,28,28,40,1,1,6,1 | 6,5,1.9756,1.4111,incongruent,right,,,,,,stimulusFile/magnitude.xlsx,,,,,,,,,,,,,,,,,,,,,,,,,,,,,,,
,,,,,,,,,,,,,,,747,2022-01-19_20h29.34.991,multiplicationStroop,2021.2.3,Win32,59.97720866,,,,,left,1,0.62,0,29,29,7,1,9,8,9 | 8,1,1.9756,1.4111,congruent,left,,,,,,stimulusFile/magnitude.xlsx,,,,,,,,,,,,,,,,,,,,,,,,,,,,,,,
,,,,,,,,,,,,,,,747,2022-01-19_20h29.34.991,multiplicationStroop,2021.2.3,Win32,59.97720866,,,,,right,1,0.8718,0,30,30,57,1,2,4,2 | 4,2,1.6933,1.6933,neutral,right,,,,,,stimulusFile/magnitude.xlsx,,,,,,,,,,,,,,,,,,,,,,,,,,,,,,,
,,,,,,,,,,,,,,,747,2022-01-19_20h29.34.991,multiplicationStroop,2021.2.3,Win32,59.97720866,,,,,right,1,0.8176,0,31,31,27,1,8,9,8 | 9,1,1.9756,1.4111,incongruent,right,,,,,,stimulusFile/magnitude.xlsx,,,,,,,,,,,,,,,,,,,,,,,,,,,,,,,
,,,,,,,,,,,,,,,747,2022-01-19_20h29.34.991,multiplicationStroop,2021.2.3,Win32,59.97720866,,,,,right,1,0.8346,0,32,32,56,1,1,3,1 | 3,2,1.6933,1.6933,neutral,right,,,,,,stimulusFile/magnitude.xlsx,,,,,,,,,,,,,,,,,,,,,,,,,,,,,,,
,,,,,,,,,,,,,,,747,2022-01-19_20h29.34.991,multiplicationStroop,2021.2.3,Win32,59.97720866,,,,,left,1,0.661,0,33,33,61,1,4,2,4 | 2,2,1.6933,1.6933,neutral,left,,,,,,stimulusFile/magnitude.xlsx,,,,,,,,,,,,,,,,,,,,,,,,,,,,,,,
,,,,,,,,,,,,,,,747,2022-01-19_20h29.34.991,multiplicationStroop,2021.2.3,Win32,59.97720866,,,,,left,1,1.0558,0,34,34,62,1,8,6,8 | 6,2,1.6933,1.6933,neutral,left,,,,,,stimulusFile/magnitude.xlsx,,,,,,,,,,,,,,,,,,,,,,,,,,,,,,,
,,,,,,,,,,,,,,,747,2022-01-19_20h29.34.991,multiplicationStroop,2021.2.3,Win32,59.97720866,,,,,left,1,0.7102,0,35,35,12,1,3,1,3 | 1,2,1.9756,1.4111,congruent,left,,,,,,stimulusFile/magnitude.xlsx,,,,,,,,,,,,,,,,,,,,,,,,,,,,,,,
,,,,,,,,,,,,,,,747,2022-01-19_20h29.34.991,multiplicationStroop,2021.2.3,Win32,59.97720866,,,,,right,1,0.8206,0,36,36,59,1,7,9,7 | 9,2,1.6933,1.6933,neutral,right,,,,,,stimulusFile/magnitude.xlsx,,,,,,,,,,,,,,,,,,,,,,,,,,,,,,,
,,,,,,,,,,,,,,,747,2022-01-19_20h29.34.991,multiplicationStroop,2021.2.3,Win32,59.97720866,,,,,right,1,0.7895,0,37,37,65,1,2,7,2 | 7,5,1.6933,1.6933,neutral,right,,,,,,stimulusFile/magnitude.xlsx,,,,,,,,,,,,,,,,,,,,,,,,,,,,,,,
,,,,,,,,,,,,,,,747,2022-01-19_20h29.34.991,multiplicationStroop,2021.2.3,Win32,59.97720866,,,,,left,1,0.7684,0,38,38,29,1,4,3,4 | 3,1,1.4111,1.9756,incongruent,left,,,,,,stimulusFile/magnitude.xlsx,,,,,,,,,,,,,,,,,,,,,,,,,,,,,,,
,,,,,,,,,,,,,,,747,2022-01-19_20h29.34.991,multiplicationStroop,2021.2.3,Win32,59.97720866,,,,,right,1,0.8586,0,39,39,3,1,8,9,8 | 9,1,1.4111,1.9756,congruent,right,,,,,,stimulusFile/magnitude.xlsx,,,,,,,,,,,,,,,,,,,,,,,,,,,,,,,
,,,,,,,,,,,,,,,747,2022-01-19_20h29.34.991,multiplicationStroop,2021.2.3,Win32,59.97720866,,,,,left,1,0.6618,0,40,40,37,1,4,2,4 | 2,2,1.4111,1.9756,incongruent,left,,,,,,stimulusFile/magnitude.xlsx,,,,,,,,,,,,,,,,,,,,,,,,,,,,,,,
,,,,,,,,,,,,,,,747,2022-01-19_20h29.34.991,multiplicationStroop,2021.2.3,Win32,59.97720866,,,,,left,1,0.6353,0,41,41,45,1,7,2,7 | 2,5,1.4111,1.9756,incongruent,left,,,,,,stimulusFile/magnitude.xlsx,,,,,,,,,,,,,,,,,,,,,,,,,,,,,,,
,,,,,,,,,,,,,,,747,2022-01-19_20h29.34.991,multiplicationStroop,2021.2.3,Win32,59.97720866,,,,,left,1,0.621,0,42,42,53,1,4,3,4 | 3,1,1.6933,1.6933,neutral,left,,,,,,stimulusFile/magnitude.xlsx,,,,,,,,,,,,,,,,,,,,,,,,,,,,,,,
,,,,,,,,,,,,,,,747,2022-01-19_20h29.34.991,multiplicationStroop,2021.2.3,Win32,59.97720866,,,,,left,1,0.5219,0,43,43,63,1,9,7,9 | 7,2,1.6933,1.6933,neutral,left,,,,,,stimulusFile/magnitude.xlsx,,,,,,,,,,,,,,,,,,,,,,,,,,,,,,,
,,,,,,,,,,,,,,,747,2022-01-19_20h29.34.991,multiplicationStroop,2021.2.3,Win32,59.97720866,,,,,right,1,0.5844,0,44,44,33,1,2,4,2 | 4,2,1.9756,1.4111,incongruent,right,,,,,,stimulusFile/magnitude.xlsx,,,,,,,,,,,,,,,,,,,,,,,,,,,,,,,
,,,,,,,,,,,,,,,747,2022-01-19_20h29.34.991,multiplicationStroop,2021.2.3,Win32,59.97720866,,,,,left,1,0.8525,0,45,45,39,1,9,7,9 | 7,2,1.4111,1.9756,incongruent,left,,,,,,stimulusFile/magnitude.xlsx,,,,,,,,,,,,,,,,,,,,,,,,,,,,,,,
,,,,,,,,,,,,,,,747,2022-01-19_20h29.34.991,multiplicationStroop,2021.2.3,Win32,59.97720866,,,,,left,1,0.6182,0,46,46,46,1,8,3,8 | 3,5,1.4111,1.9756,incongruent,left,,,,,,stimulusFile/magnitude.xlsx,,,,,,,,,,,,,,,,,,,,,,,,,,,,,,,
,,,,,,,,,,,,,,,747,2022-01-19_20h29.34.991,multiplicationStroop,2021.2.3,Win32,59.97720866,,,,,left,1,0.6512,0,47,47,20,1,6,1,6 | 1,5,1.9756,1.4111,congruent,left,,,,,,stimulusFile/magnitude.xlsx,,,,,,,,,,,,,,,,,,,,,,,,,,,,,,,
,,,,,,,,,,,,,,,747,2022-01-19_20h29.34.991,multiplicationStroop,2021.2.3,Win32,59.97720866,,,,,right,1,0.6507,0,48,48,11,1,7,9,7 | 9,2,1.4111,1.9756,congruent,right,,,,,,stimulusFile/magnitude.xlsx,,,,,,,,,,,,,,,,,,,,,,,,,,,,,,,
,,,,,,,,,,,,,,,747,2022-01-19_20h29.34.991,multiplicationStroop,2021.2.3,Win32,59.97720866,,,,,right,1,0.6008,0,49,49,67,1,4,9,4 | 9,5,1.6933,1.6933,neutral,right,,,,,,stimulusFile/magnitude.xlsx,,,,,,,,,,,,,,,,,,,,,,,,,,,,,,,
,,,,,,,,,,,,,,,747,2022-01-19_20h29.34.991,multiplicationStroop,2021.2.3,Win32,59.97720866,,,,,right,1,0.551,0,50,50,17,1,2,7,2 | 7,5,1.4111,1.9756,congruent,right,,,,,,stimulusFile/magnitude.xlsx,,,,,,,,,,,,,,,,,,,,,,,,,,,,,,,
,,,,,,,,,,,,,,,747,2022-01-19_20h29.34.991,multiplicationStroop,2021.2.3,Win32,59.97720866,,,,,left,1,0.5208,0,51,51,23,1,9,4,9 | 4,5,1.9756,1.4111,congruent,left,,,,,,stimulusFile/magnitude.xlsx,,,,,,,,,,,,,,,,,,,,,,,,,,,,,,,
,,,,,,,,,,,,,,,747,2022-01-19_20h29.34.991,multiplicationStroop,2021.2.3,Win32,59.97720866,,,,,right,1,0.8703,0,52,52,51,1,8,9,8 | 9,1,1.6933,1.6933,neutral,right,,,,,,stimulusFile/magnitude.xlsx,,,,,,,,,,,,,,,,,,,,,,,,,,,,,,,
,,,,,,,,,,,,,,,747,2022-01-19_20h29.34.991,multiplicationStroop,2021.2.3,Win32,59.97720866,,,,,right,1,0.735,0,53,53,34,1,6,8,6 | 8,2,1.9756,1.4111,incongruent,right,,,,,,stimulusFile/magnitude.xlsx,,,,,,,,,,,,,,,,,,,,,,,,,,,,,,,
,,,,,,,,,,,,,,,747,2022-01-19_20h29.34.991,multiplicationStroop,2021.2.3,Win32,59.97720866,,,,,left,1,0.5596,0,54,54,47,1,9,4,9 | 4,5,1.4111,1.9756,incongruent,left,,,,,,stimulusFile/magnitude.xlsx,,,,,,,,,,,,,,,,,,,,,,,,,,,,,,,
,,,,,,,,,,,,,,,747,2022-01-19_20h29.34.991,multiplicationStroop,2021.2.3,Win32,59.97720866,,,,,left,1,0.602,0,55,55,52,1,2,1,2 | 1,1,1.6933,1.6933,neutral,left,,,,,,stimulusFile/magnitude.xlsx,,,,,,,,,,,,,,,,,,,,,,,,,,,,,,,
,,,,,,,,,,,,,,,747,2022-01-19_20h29.34.991,multiplicationStroop,2021.2.3,Win32,59.97720866,,,,,left,1,0.8176,0,56,56,14,1,8,6,8 | 6,2,1.9756,1.4111,congruent,left,,,,,,stimulusFile/magnitude.xlsx,,,,,,,,,,,,,,,,,,,,,,,,,,,,,,,
,,,,,,,,,,,,,,,747,2022-01-19_20h29.34.991,multiplicationStroop,2021.2.3,Win32,59.97720866,,,,,left,1,0.5181,0,57,57,21,1,7,2,7 | 2,5,1.9756,1.4111,congruent,left,,,,,,stimulusFile/magnitude.xlsx,,,,,,,,,,,,,,,,,,,,,,,,,,,,,,,
,,,,,,,,,,,,,,,747,2022-01-19_20h29.34.991,multiplicationStroop,2021.2.3,Win32,59.97720866,,,,,left,1,0.6337,0,58,58,70,1,8,3,8 | 3,5,1.6933,1.6933,neutral,left,,,,,,stimulusFile/magnitude.xlsx,,,,,,,,,,,,,,,,,,,,,,,,,,,,,,,
,,,,,,,,,,,,,,,747,2022-01-19_20h29.34.991,multiplicationStroop,2021.2.3,Win32,59.97720866,,,,,right,1,0.6843,0,59,59,35,1,7,9,7 | 9,2,1.9756,1.4111,incongruent,right,,,,,,stimulusFile/magnitude.xlsx,,,,,,,,,,,,,,,,,,,,,,,,,,,,,,,
,,,,,,,,,,,,,,,747,2022-01-19_20h29.34.991,multiplicationStroop,2021.2.3,Win32,59.97720866,,,,,left,1,0.6261,0,60,60,5,1,4,3,4 | 3,1,1.9756,1.4111,congruent,left,,,,,,stimulusFile/magnitude.xlsx,,,,,,,,,,,,,,,,,,,,,,,,,,,,,,,
,,,,,,,,,,,,,,,747,2022-01-19_20h29.34.991,multiplicationStroop,2021.2.3,Win32,59.97720866,,,,,right,1,0.5386,0,61,61,58,1,6,8,6 | 8,2,1.6933,1.6933,neutral,right,,,,,,stimulusFile/magnitude.xlsx,,,,,,,,,,,,,,,,,,,,,,,,,,,,,,,
,,,,,,,,,,,,,,,747,2022-01-19_20h29.34.991,multiplicationStroop,2021.2.3,Win32,59.97720866,,,,,left,1,0.5178,0,62,62,15,1,9,7,9 | 7,2,1.9756,1.4111,congruent,left,,,,,,stimulusFile/magnitude.xlsx,,,,,,,,,,,,,,,,,,,,,,,,,,,,,,,
,,,,,,,,,,,,,,,747,2022-01-19_20h29.34.991,multiplicationStroop,2021.2.3,Win32,59.97720866,,,,,left,1,0.6278,0,63,63,69,1,7,2,7 | 2,5,1.6933,1.6933,neutral,left,,,,,,stimulusFile/magnitude.xlsx,,,,,,,,,,,,,,,,,,,,,,,,,,,,,,,
,,,,,,,,,,,,,,,747,2022-01-19_20h29.34.991,multiplicationStroop,2021.2.3,Win32,59.97720866,,,,,right,1,0.5266,0,64,64,18,1,3,8,3 | 8,5,1.4111,1.9756,congruent,right,,,,,,stimulusFile/magnitude.xlsx,,,,,,,,,,,,,,,,,,,,,,,,,,,,,,,
,,,,,,,,,,,,,,,747,2022-01-19_20h29.34.991,multiplicationStroop,2021.2.3,Win32,59.97720866,,,,,right,1,0.518,0,65,65,10,1,6,8,6 | 8,2,1.4111,1.9756,congruent,right,,,,,,stimulusFile/magnitude.xlsx,,,,,,,,,,,,,,,,,,,,,,,,,,,,,,,
,,,,,,,,,,,,,,,747,2022-01-19_20h29.34.991,multiplicationStroop,2021.2.3,Win32,59.97720866,,,,,left,1,0.6868,0,66,66,36,1,3,1,3 | 1,2,1.4111,1.9756,incongruent,left,,,,,,stimulusFile/magnitude.xlsx,,,,,,,,,,,,,,,,,,,,,,,,,,,,,,,
,,,,,,,,,,,,,,,747,2022-01-19_20h29.34.991,multiplicationStroop,2021.2.3,Win32,59.97720866,,,,,left,1,0.6011,0,67,67,13,1,4,2,4 | 2,2,1.9756,1.4111,congruent,left,,,,,,stimulusFile/magnitude.xlsx,,,,,,,,,,,,,,,,,,,,,,,,,,,,,,,
,,,,,,,,,,,,,,,747,2022-01-19_20h29.34.991,multiplicationStroop,2021.2.3,Win32,59.97720866,,,,,right,1,0.601,0,68,68,0,1,1,2,1 | 2,1,1.4111,1.9756,congruent,right,,,,,,stimulusFile/magnitude.xlsx,,,,,,,,,,,,,,,,,,,,,,,,,,,,,,,
,,,,,,,,,,,,,,,747,2022-01-19_20h29.34.991,multiplicationStroop,2021.2.3,Win32,59.97720866,,,,,right,1,0.6583,0,69,69,49,1,3,4,3 | 4,1,1.6933,1.6933,neutral,right,,,,,,stimulusFile/magnitude.xlsx,,,,,,,,,,,,,,,,,,,,,,,,,,,,,,,
,,,,,,,,,,,,,,,747,2022-01-19_20h29.34.991,multiplicationStroop,2021.2.3,Win32,59.97720866,,,,,right,1,0.5257,0,70,70,9,1,2,4,2 | 4,2,1.4111,1.9756,congruent,right,,,,,,stimulusFile/magnitude.xlsx,,,,,,,,,,,,,,,,,,,,,,,,,,,,,,,
,,,,,,,,,,,,,,,747,2022-01-19_20h29.34.991,multiplicationStroop,2021.2.3,Win32,59.97720866,,,,,left,1,0.5843,0,71,71,68,1,6,1,6 | 1,5,1.6933,1.6933,neutral,left,,,,,,stimulusFile/magnitude.xlsx,,,,,,,,,,,,,,,,,,,,,,,,,,,,,,,
,,,,,,,,,,,,,,,747,2022-01-19_20h29.34.991,multiplicationStroop,2021.2.3,Win32,59.97720866,,,,,,,,,,,,,,,,,,,,,0,1,1,0,1,stimulusFile/magnitude.xlsx,NUMERICALLY larger (larger coefficient).,images/numericallyLarger.png,,,,,,,,,,,,,,,,,,,,,,,,,,,,,
,,,,,,,,,,,,,,,747,2022-01-19_20h29.34.991,multiplicationStroop,2021.2.3,Win32,59.97720866,,,,,,,,,,,,,,,,,,,,,,,,,,,,,space,7.1192,space,2.1545,49,2.6116,1,0,0,0,33,1,7,×,7,7 × 7,neutral,tie,1.5,1.5,49,,,,,,,,
,,,,,,,,,,,,,,,747,2022-01-19_20h29.34.991,multiplicationStroop,2021.2.3,Win32,59.97720866,,,,,,,,,,,,,,,,,,,,,,,,,,,,,,,,,36,1.8151,1,0,1,1,13,1,4,×,9,4 × 9,neutral,smallerFirst,1.5,1.5,36,,,,,,,,
,,,,,,,,,,,,,,,747,2022-01-19_20h29.34.991,multiplicationStroop,2021.2.3,Win32,59.97720866,,,,,,,,,,,,,,,,,,,,,,,,,,,,,,,,,21,1.2985,1,0,2,2,22,1,7,×,3,7 × 3,neutral,largerFirst,1.5,1.5,21,,,,,,,,
,,,,,,,,,,,,,,,747,2022-01-19_20h29.34.991,multiplicationStroop,2021.2.3,Win32,59.97720866,,,,,,,,,,,,,,,,,,,,,,,,,,,,,,,,,16,1.4988,1,0,3,3,27,1,8,×,2,8 × 2,neutral,largerFirst,1.5,1.5,16,,,,,,,,
,,,,,,,,,,,,,,,747,2022-01-19_20h29.34.991,multiplicationStroop,2021.2.3,Win32,59.97720866,,,,,,,,,,,,,,,,,,,,,,,,,,,,,,,,,48,1.8653,1,0,4,4,1,1,6,×,8,6 × 8,neutral,smallerFirst,1.5,1.5,48,,,,,,,,
,,,,,,,,,,,,,,,747,2022-01-19_20h29.34.991,multiplicationStroop,2021.2.3,Win32,59.97720866,,,,,,,,,,,,,,,,,,,,,,,,,,,,,,,,,81,1.8153,1,0,5,5,35,1,9,×,9,9 × 9,neutral,tie,1.5,1.5,81,,,,,,,,
,,,,,,,,,,,,,,,747,2022-01-19_20h29.34.991,multiplicationStroop,2021.2.3,Win32,59.97720866,,,,,,,,,,,,,,,,,,,,,,,,,,,,,,,,,12,3.2481,1,0,6,6,7,1,3,×,4,3 × 4,neutral,smallerFirst,1.5,1.5,12,,,,,,,,
,,,,,,,,,,,,,,,747,2022-01-19_20h29.34.991,multiplicationStroop,2021.2.3,Win32,59.97720866,,,,,,,,,,,,,,,,,,,,,,,,,,,,,,,,,9,2.0482,1,0,7,7,29,1,3,×,3,3 × 3,neutral,tie,1.5,1.5,9,,,,,,,,
,,,,,,,,,,,,,,,747,2022-01-19_20h29.34.991,multiplicationStroop,2021.2.3,Win32,59.97720866,,,,,,,,,,,,,,,,,,,,,,,,,,,,,,,,,4,1.2324,1,0,8,8,28,1,2,×,2,2 × 2,neutral,tie,1.5,1.5,4,,,,,,,,
,,,,,,,,,,,,,,,747,2022-01-19_20h29.34.991,multiplicationStroop,2021.2.3,Win32,59.97720866,,,,,,,,,,,,,,,,,,,,,,,,,,,,,,,,,72,2.6157,1,0,9,9,25,1,9,×,8,9 × 8,neutral,largerFirst,1.5,1.5,72,,,,,,,,
,,,,,,,,,,,,,,,747,2022-01-19_20h29.34.991,multiplicationStroop,2021.2.3,Win32,59.97720866,,,,,,,,,,,,,,,,,,,,,,,,,,,,,,,,,36,2.0651,1,0,10,10,32,1,6,×,6,6 × 6,neutral,tie,1.5,1.5,36,,,,,,,,
,,,,,,,,,,,,,,,747,2022-01-19_20h29.34.991,multiplicationStroop,2021.2.3,Win32,59.97720866,,,,,,,,,,,,,,,,,,,,,,,,,,,,,,,,,15,1.3824,1,0,11,11,19,1,5,×,3,5 × 3,neutral,largerFirst,1.5,1.5,15,,,,,,,,
,,,,,,,,,,,,,,,747,2022-01-19_20h29.34.991,multiplicationStroop,2021.2.3,Win32,59.97720866,,,,,,,,,,,,,,,,,,,,,,,,,,,,,,,,,64,2.082,0,0,12,12,26,1,9,×,7,9 × 7,neutral,largerFirst,1.5,1.5,63,,,,,,,,
,,,,,,,,,,,,,,,747,2022-01-19_20h29.34.991,multiplicationStroop,2021.2.3,Win32,59.97720866,,,,,,,,,,,,,,,,,,,,,,,,,,,,,,,,,56,3.3482,1,0,13,13,23,1,8,×,7,8 × 7,neutral,largerFirst,1.5,1.5,56,,,,,,,,
,,,,,,,,,,,,,,,747,2022-01-19_20h29.34.991,multiplicationStroop,2021.2.3,Win32,59.97720866,,,,,,,,,,,,,,,,,,,,,,,,,,,,,,,,,10,1.3668,1,0,14,14,18,1,5,×,2,5 × 2,neutral,largerFirst,1.5,1.5,10,,,,,,,,
,,,,,,,,,,,,,,,747,2022-01-19_20h29.34.991,multiplicationStroop,2021.2.3,Win32,59.97720866,,,,,,,,,,,,,,,,,,,,,,,,,,,,,,,,,42,2.5318,1,0,15,15,20,1,7,×,6,7 × 6,neutral,largerFirst,1.5,1.5,42,,,,,,,,
,,,,,,,,,,,,,,,747,2022-01-19_20h29.34.991,multiplicationStroop,2021.2.3,Win32,59.97720866,,,,,,,,,,,,,,,,,,,,,,,,,,,,,,,,,45,4.8831,1,0,16,16,24,1,9,×,5,9 × 5,neutral,largerFirst,1.5,1.5,45,,,,,,,,
,,,,,,,,,,,,,,,747,2022-01-19_20h29.34.991,multiplicationStroop,2021.2.3,Win32,59.97720866,,,,,,,,,,,,,,,,,,,,,,,,,,,,,,,,,16,1.7189,1,0,17,17,30,1,4,×,4,4 × 4,neutral,tie,1.5,1.5,16,,,,,,,,
,,,,,,,,,,,,,,,747,2022-01-19_20h29.34.991,multiplicationStroop,2021.2.3,Win32,59.97720866,,,,,,,,,,,,,,,,,,,,,,,,,,,,,,,,,1,1.4491,0,0,18,18,2,1,2,×,7,2 × 7,neutral,smallerFirst,1.5,1.5,14,,,,,,,,
,,,,,,,,,,,,,,,747,2022-01-19_20h29.34.991,multiplicationStroop,2021.2.3,Win32,59.97720866,,,,,,,,,,,,,,,,,,,,,,,,,,,,,,,,,20,2.0484,1,0,19,19,6,1,4,×,5,4 × 5,neutral,smallerFirst,1.5,1.5,20,,,,,,,,
,,,,,,,,,,,,,,,747,2022-01-19_20h29.34.991,multiplicationStroop,2021.2.3,Win32,59.97720866,,,,,,,,,,,,,,,,,,,,,,,,,,,,,,,,,12,1.6155,1,0,20,20,11,1,2,×,6,2 × 6,neutral,smallerFirst,1.5,1.5,12,,,,,,,,
,,,,,,,,,,,,,,,747,2022-01-19_20h29.34.991,multiplicationStroop,2021.2.3,Win32,59.97720866,,,,,,,,,,,,,,,,,,,,,,,,,,,,,,,,,18,1.9821,1,0,21,21,4,1,2,×,9,2 × 9,neutral,smallerFirst,1.5,1.5,18,,,,,,,,
,,,,,,,,,,,,,,,747,2022-01-19_20h29.34.991,multiplicationStroop,2021.2.3,Win32,59.97720866,,,,,,,,,,,,,,,,,,,,,,,,,,,,,,,,,8,1.682,1,0,22,22,17,1,4,×,2,4 × 2,neutral,largerFirst,1.5,1.5,8,,,,,,,,
,,,,,,,,,,,,,,,747,2022-01-19_20h29.34.991,multiplicationStroop,2021.2.3,Win32,59.97720866,,,,,,,,,,,,,,,,,,,,,,,,,,,,,,,,,30,1.6823,1,0,23,23,5,1,5,×,6,5 × 6,neutral,smallerFirst,1.5,1.5,30,,,,,,,,
,,,,,,,,,,,,,,,747,2022-01-19_20h29.34.991,multiplicationStroop,2021.2.3,Win32,59.97720866,,,,,,,,,,,,,,,,,,,,,,,,,,,,,,,,,6,1.6155,1,0,24,24,12,1,2,×,3,2 × 3,neutral,smallerFirst,1.5,1.5,6,,,,,,,,
,,,,,,,,,,,,,,,747,2022-01-19_20h29.34.991,multiplicationStroop,2021.2.3,Win32,59.97720866,,,,,,,,,,,,,,,,,,,,,,,,,,,,,,,,,32,1.5822,1,0,25,25,9,1,4,×,8,4 × 8,neutral,smallerFirst,1.5,1.5,32,,,,,,,,
,,,,,,,,,,,,,,,747,2022-01-19_20h29.34.991,multiplicationStroop,2021.2.3,Win32,59.97720866,,,,,,,,,,,,,,,,,,,,,,,,,,,,,,,,,18,1.7155,1,0,26,26,14,1,6,×,3,6 × 3,neutral,largerFirst,1.5,1.5,18,,,,,,,,
,,,,,,,,,,,,,,,747,2022-01-19_20h29.34.991,multiplicationStroop,2021.2.3,Win32,59.97720866,,,,,,,,,,,,,,,,,,,,,,,,,,,,,,,,,24,1.9653,1,0,27,27,16,1,6,×,4,6 × 4,neutral,largerFirst,1.5,1.5,24,,,,,,,,
,,,,,,,,,,,,,,,747,2022-01-19_20h29.34.991,multiplicationStroop,2021.2.3,Win32,59.97720866,,,,,,,,,,,,,,,,,,,,,,,,,,,,,,,,,64,1.9319,1,0,28,28,34,1,8,×,8,8 × 8,neutral,tie,1.5,1.5,64,,,,,,,,
,,,,,,,,,,,,,,,747,2022-01-19_20h29.34.991,multiplicationStroop,2021.2.3,Win32,59.97720866,,,,,,,,,,,,,,,,,,,,,,,,,,,,,,,,,54,3.6646,1,0,29,29,21,1,9,×,6,9 × 6,neutral,largerFirst,1.5,1.5,54,,,,,,,,
,,,,,,,,,,,,,,,747,2022-01-19_20h29.34.991,multiplicationStroop,2021.2.3,Win32,59.97720866,,,,,,,,,,,,,,,,,,,,,,,,,,,,,,,,,40,1.7819,1,0,30,30,10,1,5,×,8,5 × 8,neutral,smallerFirst,1.5,1.5,40,,,,,,,,
,,,,,,,,,,,,,,,747,2022-01-19_20h29.34.991,multiplicationStroop,2021.2.3,Win32,59.97720866,,,,,,,,,,,,,,,,,,,,,,,,,,,,,,,,,25,1.5824,1,0,31,31,31,1,5,×,5,5 × 5,neutral,tie,1.5,1.5,25,,,,,,,,
,,,,,,,,,,,,,,,747,2022-01-19_20h29.34.991,multiplicationStroop,2021.2.3,Win32,59.97720866,,,,,,,,,,,,,,,,,,,,,,,,,,,,,,,,,27,2.765,1,0,32,32,0,1,3,×,9,3 × 9,neutral,smallerFirst,1.5,1.5,27,,,,,,,,
,,,,,,,,,,,,,,,747,2022-01-19_20h29.34.991,multiplicationStroop,2021.2.3,Win32,59.97720866,,,,,,,,,,,,,,,,,,,,,,,,,,,,,,,,,24,1.5653,1,0,33,33,8,1,3,×,8,3 × 8,neutral,smallerFirst,1.5,1.5,24,,,,,,,,
,,,,,,,,,,,,,,,747,2022-01-19_20h29.34.991,multiplicationStroop,2021.2.3,Win32,59.97720866,,,,,,,,,,,,,,,,,,,,,,,,,,,,,,,,,35,1.649,1,0,34,34,15,1,7,×,5,7 × 5,neutral,largerFirst,1.5,1.5,35,,,,,,,,
,,,,,,,,,,,,,,,747,2022-01-19_20h29.34.991,multiplicationStroop,2021.2.3,Win32,59.97720866,,,,,,,,,,,,,,,,,,,,,,,,,,,,,,,,,28,2.1488,1,0,35,35,3,1,4,×,7,4 × 7,neutral,smallerFirst,1.5,1.5,28,,,,,,,,
,,,,,,,,,,,,,,,747,2022-01-19_20h29.34.991,multiplicationStroop,2021.2.3,Win32,59.97720866,,,,,,,,,,,,,,,,,,,,,,,,,,,,,,,,,,,,,,,,,,,,,,,,,,0,0,0,0,1,stimulusFile/mult_blk1.xlsx,,
,,,,,,,,,,,,,,,747,2022-01-19_20h29.34.991,multiplicationStroop,2021.2.3,Win32,59.97720866,,,,,,,,,,,,,,,,,,,,,,,,,,,,,,,space,1.9701,36,2.2848,1,0,0,0,32,1,6,×,6,6 × 6,neutral,tie,2,1,36,,,,,,,,
,,,,,,,,,,,,,,,747,2022-01-19_20h29.34.991,multiplicationStroop,2021.2.3,Win32,59.97720866,,,,,,,,,,,,,,,,,,,,,,,,,,,,,,,,,32,1.6321,1,0,1,1,20,1,8,×,4,8 × 4,congruent,largerFirst,2,1,32,,,,,,,,
,,,,,,,,,,,,,,,747,2022-01-19_20h29.34.991,multiplicationStroop,2021.2.3,Win32,59.97720866,,,,,,,,,,,,,,,,,,,,,,,,,,,,,,,,,14,1.8988,1,0,2,2,14,1,7,×,2,7 × 2,congruent,largerFirst,2,1,14,,,,,,,,
,,,,,,,,,,,,,,,747,2022-01-19_20h29.34.991,multiplicationStroop,2021.2.3,Win32,59.97720866,,,,,,,,,,,,,,,,,,,,,,,,,,,,,,,,,56,2.2982,1,0,3,3,8,1,7,×,8,7 × 8,congruent,smallerFirst,1,2,56,,,,,,,,
,,,,,,,,,,,,,,,747,2022-01-19_20h29.34.991,multiplicationStroop,2021.2.3,Win32,59.97720866,,,,,,,,,,,,,,,,,,,,,,,,,,,,,,,,,12,1.2825,1,0,4,4,19,1,6,×,2,6 × 2,congruent,largerFirst,2,1,12,,,,,,,,
,,,,,,,,,,,,,,,747,2022-01-19_20h29.34.991,multiplicationStroop,2021.2.3,Win32,59.97720866,,,,,,,,,,,,,,,,,,,,,,,,,,,,,,,,,48,1.9486,1,0,5,5,18,1,8,×,6,8 × 6,congruent,largerFirst,2,1,48,,,,,,,,
,,,,,,,,,,,,,,,747,2022-01-19_20h29.34.991,multiplicationStroop,2021.2.3,Win32,59.97720866,,,,,,,,,,,,,,,,,,,,,,,,,,,,,,,,,21,1.3324,1,0,6,6,16,1,7,×,3,7 × 3,congruent,largerFirst,2,1,21,,,,,,,,
,,,,,,,,,,,,,,,747,2022-01-19_20h29.34.991,multiplicationStroop,2021.2.3,Win32,59.97720866,,,,,,,,,,,,,,,,,,,,,,,,,,,,,,,,,49,1.782,1,0,7,7,33,1,7,×,7,7 × 7,neutral,tie,2,1,49,,,,,,,,
,,,,,,,,,,,,,,,747,2022-01-19_20h29.34.991,multiplicationStroop,2021.2.3,Win32,59.97720866,,,,,,,,,,,,,,,,,,,,,,,,,,,,,,,,,15,1.4152,1,0,8,8,4,1,3,×,5,3 × 5,congruent,smallerFirst,1,2,15,,,,,,,,
,,,,,,,,,,,,,,,747,2022-01-19_20h29.34.991,multiplicationStroop,2021.2.3,Win32,59.97720866,,,,,,,,,,,,,,,,,,,,,,,,,,,,,,,,,40,1.4992,1,0,9,9,6,1,5,×,8,5 × 8,congruent,smallerFirst,1,2,40,,,,,,,,
,,,,,,,,,,,,,,,747,2022-01-19_20h29.34.991,multiplicationStroop,2021.2.3,Win32,59.97720866,,,,,,,,,,,,,,,,,,,,,,,,,,,,,,,,,12,1.2822,1,0,10,10,2,1,3,×,4,3 × 4,congruent,smallerFirst,1,2,12,,,,,,,,
,,,,,,,,,,,,,,,747,2022-01-19_20h29.34.991,multiplicationStroop,2021.2.3,Win32,59.97720866,,,,,,,,,,,,,,,,,,,,,,,,,,,,,,,,,24,1.4823,1,0,11,11,10,1,3,×,8,3 × 8,congruent,smallerFirst,1,2,24,,,,,,,,
,,,,,,,,,,,,,,,747,2022-01-19_20h29.34.991,multiplicationStroop,2021.2.3,Win32,59.97720866,,,,,,,,,,,,,,,,,,,,,,,,,,,,,,,,,63,1.9153,1,0,12,12,21,1,9,×,7,9 × 7,congruent,largerFirst,2,1,63,,,,,,,,
,,,,,,,,,,,,,,,747,2022-01-19_20h29.34.991,multiplicationStroop,2021.2.3,Win32,59.97720866,,,,,,,,,,,,,,,,,,,,,,,,,,,,,,,,,28,2.4484,1,0,13,13,27,1,7,×,4,7 × 4,congruent,largerFirst,2,1,28,,,,,,,,
,,,,,,,,,,,,,,,747,2022-01-19_20h29.34.991,multiplicationStroop,2021.2.3,Win32,59.97720866,,,,,,,,,,,,,,,,,,,,,,,,,,,,,,,,,18,1.6321,1,0,14,14,11,1,3,×,6,3 × 6,congruent,smallerFirst,1,2,18,,,,,,,,
,,,,,,,,,,,,,,,747,2022-01-19_20h29.34.991,multiplicationStroop,2021.2.3,Win32,59.97720866,,,,,,,,,,,,,,,,,,,,,,,,,,,,,,,,,10,2.1654,1,0,15,15,24,1,5,×,2,5 × 2,congruent,largerFirst,2,1,10,,,,,,,,
,,,,,,,,,,,,,,,747,2022-01-19_20h29.34.991,multiplicationStroop,2021.2.3,Win32,59.97720866,,,,,,,,,,,,,,,,,,,,,,,,,,,,,,,,,25,1.6655,1,0,16,16,31,1,5,×,5,5 × 5,neutral,tie,2,1,25,,,,,,,,
,,,,,,,,,,,,,,,747,2022-01-19_20h29.34.991,multiplicationStroop,2021.2.3,Win32,59.97720866,,,,,,,,,,,,,,,,,,,,,,,,,,,,,,,,,45,1.482,1,0,17,17,23,1,9,×,5,9 × 5,congruent,largerFirst,2,1,45,,,,,,,,
,,,,,,,,,,,,,,,747,2022-01-19_20h29.34.991,multiplicationStroop,2021.2.3,Win32,59.97720866,,,,,,,,,,,,,,,,,,,,,,,,,,,,,,,,,30,1.4824,1,0,18,18,15,1,6,×,5,6 × 5,congruent,largerFirst,2,1,30,,,,,,,,
,,,,,,,,,,,,,,,747,2022-01-19_20h29.34.991,multiplicationStroop,2021.2.3,Win32,59.97720866,,,,,,,,,,,,,,,,,,,,,,,,,,,,,,,,,81,1.5488,1,0,19,19,35,1,9,×,9,9 × 9,neutral,tie,2,1,81,,,,,,,,
,,,,,,,,,,,,,,,747,2022-01-19_20h29.34.991,multiplicationStroop,2021.2.3,Win32,59.97720866,,,,,,,,,,,,,,,,,,,,,,,,,,,,,,,,,16,1.5652,1,0,20,20,30,1,4,×,4,4 × 4,neutral,tie,2,1,16,,,,,,,,
,,,,,,,,,,,,,,,747,2022-01-19_20h29.34.991,multiplicationStroop,2021.2.3,Win32,59.97720866,,,,,,,,,,,,,,,,,,,,,,,,,,,,,,,,,4,1.2326,1,0,21,21,28,1,2,×,2,2 × 2,neutral,tie,2,1,4,,,,,,,,
,,,,,,,,,,,,,,,747,2022-01-19_20h29.34.991,multiplicationStroop,2021.2.3,Win32,59.97720866,,,,,,,,,,,,,,,,,,,,,,,,,,,,,,,,,18,1.8155,1,0,22,22,22,1,9,×,2,9 × 2,congruent,largerFirst,2,1,18,,,,,,,,
,,,,,,,,,,,,,,,747,2022-01-19_20h29.34.991,multiplicationStroop,2021.2.3,Win32,59.97720866,,,,,,,,,,,,,,,,,,,,,,,,,,,,,,,,,72,5.2139,1,0,23,23,17,1,9,×,8,9 × 8,congruent,largerFirst,2,1,72,,,,,,,,
,,,,,,,,,,,,,,,747,2022-01-19_20h29.34.991,multiplicationStroop,2021.2.3,Win32,59.97720866,,,,,,,,,,,,,,,,,,,,,,,,,,,,,,,,,35,2.4338,1,0,24,24,1,1,5,×,7,5 × 7,congruent,smallerFirst,1,2,35,,,,,,,,
,,,,,,,,,,,,,,,747,2022-01-19_20h29.34.991,multiplicationStroop,2021.2.3,Win32,59.97720866,,,,,,,,,,,,,,,,,,,,,,,,,,,,,,,,,42,2.4818,1,0,25,25,3,1,6,×,7,6 × 7,congruent,smallerFirst,1,2,42,,,,,,,,
,,,,,,,,,,,,,,,747,2022-01-19_20h29.34.991,multiplicationStroop,2021.2.3,Win32,59.97720866,,,,,,,,,,,,,,,,,,,,,,,,,,,,,,,,,6,1.4347,1,0,26,26,13,1,2,×,3,2 × 3,congruent,smallerFirst,1,2,6,,,,,,,,
,,,,,,,,,,,,,,,747,2022-01-19_20h29.34.991,multiplicationStroop,2021.2.3,Win32,59.97720866,,,,,,,,,,,,,,,,,,,,,,,,,,,,,,,,,36,3.0797,1,0,27,27,0,1,4,×,9,4 × 9,congruent,smallerFirst,1,2,36,,,,,,,,
,,,,,,,,,,,,,,,747,2022-01-19_20h29.34.991,multiplicationStroop,2021.2.3,Win32,59.97720866,,,,,,,,,,,,,,,,,,,,,,,,,,,,,,,,,54,2.1675,1,0,28,28,12,1,6,×,9,6 × 9,congruent,smallerFirst,1,2,54,,,,,,,,
,,,,,,,,,,,,,,,747,2022-01-19_20h29.34.991,multiplicationStroop,2021.2.3,Win32,59.97720866,,,,,,,,,,,,,,,,,,,,,,,,,,,,,,,,,8,1.7819,1,0,29,29,9,1,2,×,4,2 × 4,congruent,smallerFirst,1,2,8,,,,,,,,
,,,,,,,,,,,,,,,747,2022-01-19_20h29.34.991,multiplicationStroop,2021.2.3,Win32,59.97720866,,,,,,,,,,,,,,,,,,,,,,,,,,,,,,,,,64,3.6482,1,0,30,30,34,1,8,×,8,8 × 8,neutral,tie,2,1,64,,,,,,,,
,,,,,,,,,,,,,,,747,2022-01-19_20h29.34.991,multiplicationStroop,2021.2.3,Win32,59.97720866,,,,,,,,,,,,,,,,,,,,,,,,,,,,,,,,,24,1.7506,1,0,31,31,25,1,6,×,4,6 × 4,congruent,largerFirst,2,1,24,,,,,,,,
,,,,,,,,,,,,,,,747,2022-01-19_20h29.34.991,multiplicationStroop,2021.2.3,Win32,59.97720866,,,,,,,,,,,,,,,,,,,,,,,,,,,,,,,,,20,1.3993,1,0,32,32,7,1,4,×,5,4 × 5,congruent,smallerFirst,1,2,20,,,,,,,,
,,,,,,,,,,,,,,,747,2022-01-19_20h29.34.991,multiplicationStroop,2021.2.3,Win32,59.97720866,,,,,,,,,,,,,,,,,,,,,,,,,,,,,,,,,9,1.6154,1,0,33,33,29,1,3,×,3,3 × 3,neutral,tie,2,1,9,,,,,,,,
,,,,,,,,,,,,,,,747,2022-01-19_20h29.34.991,multiplicationStroop,2021.2.3,Win32,59.97720866,,,,,,,,,,,,,,,,,,,,,,,,,,,,,,,,,27,2.4317,1,0,34,34,26,1,9,×,3,9 × 3,congruent,largerFirst,2,1,27,,,,,,,,
,,,,,,,,,,,,,,,747,2022-01-19_20h29.34.991,multiplicationStroop,2021.2.3,Win32,59.97720866,,,,,,,,,,,,,,,,,,,,,,,,,,,,,,,,,16,2.4657,1,0,35,35,5,1,2,×,8,2 × 8,congruent,smallerFirst,1,2,16,,,,,,,,
,,,,,,,,,,,,,,,747,2022-01-19_20h29.34.991,multiplicationStroop,2021.2.3,Win32,59.97720866,,,,,,,,,,,,,,,,,,,,,,,,,,,,,,,,,,,,,,,,,,,,,,,,,,0,1,1,2,1,stimulusFile/mult_blk3_congruent.xlsx,,
,,,,,,,,,,,,,,,747,2022-01-19_20h29.34.991,multiplicationStroop,2021.2.3,Win32,59.97720866,,,,,,,,,,,,,,,,,,,,,,,,,,,,,,,space,0.905,20,1.9312,1,0,0,0,21,1,5,×,4,5 × 4,congruent,largerFirst,2,1,20,,,,,,,,
,,,,,,,,,,,,,,,747,2022-01-19_20h29.34.991,multiplicationStroop,2021.2.3,Win32,59.97720866,,,,,,,,,,,,,,,,,,,,,,,,,,,,,,,,,81,1.6821,1,0,1,1,35,1,9,×,9,9 × 9,neutral,tie,1,2,81,,,,,,,,
,,,,,,,,,,,,,,,747,2022-01-19_20h29.34.991,multiplicationStroop,2021.2.3,Win32,59.97720866,,,,,,,,,,,,,,,,,,,,,,,,,,,,,,,,,16,1.7487,1,0,2,2,19,1,8,×,2,8 × 2,congruent,largerFirst,2,1,16,,,,,,,,
,,,,,,,,,,,,,,,747,2022-01-19_20h29.34.991,multiplicationStroop,2021.2.3,Win32,59.97720866,,,,,,,,,,,,,,,,,,,,,,,,,,,,,,,,,16,1.9819,1,0,3,3,30,1,4,×,4,4 × 4,neutral,tie,1,2,16,,,,,,,,
,,,,,,,,,,,,,,,747,2022-01-19_20h29.34.991,multiplicationStroop,2021.2.3,Win32,59.97720866,,,,,,,,,,,,,,,,,,,,,,,,,,,,,,,,,40,1.8657,1,0,4,4,20,1,8,×,5,8 × 5,congruent,largerFirst,2,1,40,,,,,,,,
,,,,,,,,,,,,,,,747,2022-01-19_20h29.34.991,multiplicationStroop,2021.2.3,Win32,59.97720866,,,,,,,,,,,,,,,,,,,,,,,,,,,,,,,,,72,2.5155,1,0,5,5,3,1,8,×,9,8 × 9,congruent,smallerFirst,1,2,72,,,,,,,,
,,,,,,,,,,,,,,,747,2022-01-19_20h29.34.991,multiplicationStroop,2021.2.3,Win32,59.97720866,,,,,,,,,,,,,,,,,,,,,,,,,,,,,,,,,21,1.6653,1,0,6,6,2,1,3,×,7,3 × 7,congruent,smallerFirst,1,2,21,,,,,,,,
,,,,,,,,,,,,,,,747,2022-01-19_20h29.34.991,multiplicationStroop,2021.2.3,Win32,59.97720866,,,,,,,,,,,,,,,,,,,,,,,,,,,,,,,,,36,2.3652,1,0,7,7,14,1,9,×,4,9 × 4,congruent,largerFirst,2,1,36,,,,,,,,
,,,,,,,,,,,,,,,747,2022-01-19_20h29.34.991,multiplicationStroop,2021.2.3,Win32,59.97720866,,,,,,,,,,,,,,,,,,,,,,,,,,,,,,,,,18,2.4484,1,0,8,8,25,1,6,×,3,6 × 3,congruent,largerFirst,2,1,18,,,,,,,,
,,,,,,,,,,,,,,,747,2022-01-19_20h29.34.991,multiplicationStroop,2021.2.3,Win32,59.97720866,,,,,,,,,,,,,,,,,,,,,,,,,,,,,,,,,14,1.4157,1,0,9,9,0,1,2,×,7,2 × 7,congruent,smallerFirst,1,2,14,,,,,,,,
,,,,,,,,,,,,,,,747,2022-01-19_20h29.34.991,multiplicationStroop,2021.2.3,Win32,59.97720866,,,,,,,,,,,,,,,,,,,,,,,,,,,,,,,,,12,1.2991,1,0,10,10,16,1,4,×,3,4 × 3,congruent,largerFirst,2,1,12,,,,,,,,
,,,,,,,,,,,,,,,747,2022-01-19_20h29.34.991,multiplicationStroop,2021.2.3,Win32,59.97720866,,,,,,,,,,,,,,,,,,,,,,,,,,,,,,,,,6,1.3989,1,0,11,11,27,1,3,×,2,3 × 2,congruent,largerFirst,2,1,6,,,,,,,,
,,,,,,,,,,,,,,,747,2022-01-19_20h29.34.991,multiplicationStroop,2021.2.3,Win32,59.97720866,,,,,,,,,,,,,,,,,,,,,,,,,,,,,,,,,18,1.597,1,0,12,12,8,1,2,×,9,2 × 9,congruent,smallerFirst,1,2,18,,,,,,,,
,,,,,,,,,,,,,,,747,2022-01-19_20h29.34.991,multiplicationStroop,2021.2.3,Win32,59.97720866,,,,,,,,,,,,,,,,,,,,,,,,,,,,,,,,,64,1.682,1,0,13,13,34,1,8,×,8,8 × 8,neutral,tie,1,2,64,,,,,,,,
,,,,,,,,,,,,,,,747,2022-01-19_20h29.34.991,multiplicationStroop,2021.2.3,Win32,59.97720866,,,,,,,,,,,,,,,,,,,,,,,,,,,,,,,,,9,1.5658,1,0,14,14,29,1,3,×,3,3 × 3,neutral,tie,1,2,9,,,,,,,,
,,,,,,,,,,,,,,,747,2022-01-19_20h29.34.991,multiplicationStroop,2021.2.3,Win32,59.97720866,,,,,,,,,,,,,,,,,,,,,,,,,,,,,,,,,25,1.7989,1,0,15,15,31,1,5,×,5,5 × 5,neutral,tie,1,2,25,,,,,,,,
,,,,,,,,,,,,,,,747,2022-01-19_20h29.34.991,multiplicationStroop,2021.2.3,Win32,59.97720866,,,,,,,,,,,,,,,,,,,,,,,,,,,,,,,,,15,1.6152,1,0,16,16,18,1,5,×,3,5 × 3,congruent,largerFirst,2,1,15,,,,,,,,
,,,,,,,,,,,,,,,747,2022-01-19_20h29.34.991,multiplicationStroop,2021.2.3,Win32,59.97720866,,,,,,,,,,,,,,,,,,,,,,,,,,,,,,,,,28,1.7656,1,0,17,17,13,1,4,×,7,4 × 7,congruent,smallerFirst,1,2,28,,,,,,,,
,,,,,,,,,,,,,,,747,2022-01-19_20h29.34.991,multiplicationStroop,2021.2.3,Win32,59.97720866,,,,,,,,,,,,,,,,,,,,,,,,,,,,,,,,,30,1.6492,1,0,18,18,1,1,5,×,6,5 × 6,congruent,smallerFirst,1,2,30,,,,,,,,
,,,,,,,,,,,,,,,747,2022-01-19_20h29.34.991,multiplicationStroop,2021.2.3,Win32,59.97720866,,,,,,,,,,,,,,,,,,,,,,,,,,,,,,,,,8,1.5323,1,0,19,19,23,1,4,×,2,4 × 2,congruent,largerFirst,2,1,8,,,,,,,,
,,,,,,,,,,,,,,,747,2022-01-19_20h29.34.991,multiplicationStroop,2021.2.3,Win32,59.97720866,,,,,,,,,,,,,,,,,,,,,,,,,,,,,,,,,4,1.4321,1,0,20,20,28,1,2,×,2,2 × 2,neutral,tie,1,2,4,,,,,,,,
,,,,,,,,,,,,,,,747,2022-01-19_20h29.34.991,multiplicationStroop,2021.2.3,Win32,59.97720866,,,,,,,,,,,,,,,,,,,,,,,,,,,,,,,,,42,1.6989,1,0,21,21,17,1,7,×,6,7 × 6,congruent,largerFirst,2,1,42,,,,,,,,
,,,,,,,,,,,,,,,747,2022-01-19_20h29.34.991,multiplicationStroop,2021.2.3,Win32,59.97720866,,,,,,,,,,,,,,,,,,,,,,,,,,,,,,,,,10,1.3494,1,0,22,22,10,1,2,×,5,2 × 5,congruent,smallerFirst,1,2,10,,,,,,,,
,,,,,,,,,,,,,,,747,2022-01-19_20h29.34.991,multiplicationStroop,2021.2.3,Win32,59.97720866,,,,,,,,,,,,,,,,,,,,,,,,,,,,,,,,,27,2.3483,1,0,23,23,12,1,3,×,9,3 × 9,congruent,smallerFirst,1,2,27,,,,,,,,
,,,,,,,,,,,,,,,747,2022-01-19_20h29.34.991,multiplicationStroop,2021.2.3,Win32,59.97720866,,,,,,,,,,,,,,,,,,,,,,,,,,,,,,,,,12,1.6155,1,0,24,24,5,1,2,×,6,2 × 6,congruent,smallerFirst,1,2,12,,,,,,,,
,,,,,,,,,,,,,,,747,2022-01-19_20h29.34.991,multiplicationStroop,2021.2.3,Win32,59.97720866,,,,,,,,,,,,,,,,,,,,,,,,,,,,,,,,,35,2.3488,1,0,25,25,15,1,7,×,5,7 × 5,congruent,largerFirst,2,1,35,,,,,,,,
,,,,,,,,,,,,,,,747,2022-01-19_20h29.34.991,multiplicationStroop,2021.2.3,Win32,59.97720866,,,,,,,,,,,,,,,,,,,,,,,,,,,,,,,,,49,1.8319,1,0,26,26,33,1,7,×,7,7 × 7,neutral,tie,1,2,49,,,,,,,,
,,,,,,,,,,,,,,,747,2022-01-19_20h29.34.991,multiplicationStroop,2021.2.3,Win32,59.97720866,,,,,,,,,,,,,,,,,,,,,,,,,,,,,,,,,56,2.3982,1,0,27,27,22,1,8,×,7,8 × 7,congruent,largerFirst,2,1,56,,,,,,,,
,,,,,,,,,,,,,,,747,2022-01-19_20h29.34.991,multiplicationStroop,2021.2.3,Win32,59.97720866,,,,,,,,,,,,,,,,,,,,,,,,,,,,,,,,,24,1.6161,1,0,28,28,11,1,4,×,6,4 × 6,congruent,smallerFirst,1,2,24,,,,,,,,
,,,,,,,,,,,,,,,747,2022-01-19_20h29.34.991,multiplicationStroop,2021.2.3,Win32,59.97720866,,,,,,,,,,,,,,,,,,,,,,,,,,,,,,,,,45,1.9321,1,0,29,29,9,1,5,×,9,5 × 9,congruent,smallerFirst,1,2,45,,,,,,,,
,,,,,,,,,,,,,,,747,2022-01-19_20h29.34.991,multiplicationStroop,2021.2.3,Win32,59.97720866,,,,,,,,,,,,,,,,,,,,,,,,,,,,,,,,,54,1.782,1,0,30,30,26,1,9,×,6,9 × 6,congruent,largerFirst,2,1,54,,,,,,,,
,,,,,,,,,,,,,,,747,2022-01-19_20h29.34.991,multiplicationStroop,2021.2.3,Win32,59.97720866,,,,,,,,,,,,,,,,,,,,,,,,,,,,,,,,,36,1.7153,1,0,31,31,32,1,6,×,6,6 × 6,neutral,tie,1,2,36,,,,,,,,
,,,,,,,,,,,,,,,747,2022-01-19_20h29.34.991,multiplicationStroop,2021.2.3,Win32,59.97720866,,,,,,,,,,,,,,,,,,,,,,,,,,,,,,,,,24,3.4485,1,0,32,32,24,1,8,×,3,8 × 3,congruent,largerFirst,2,1,24,,,,,,,,
,,,,,,,,,,,,,,,747,2022-01-19_20h29.34.991,multiplicationStroop,2021.2.3,Win32,59.97720866,,,,,,,,,,,,,,,,,,,,,,,,,,,,,,,,,32,1.9507,1,0,33,33,6,1,4,×,8,4 × 8,congruent,smallerFirst,1,2,32,,,,,,,,
,,,,,,,,,,,,,,,747,2022-01-19_20h29.34.991,multiplicationStroop,2021.2.3,Win32,59.97720866,,,,,,,,,,,,,,,,,,,,,,,,,,,,,,,,,48,2.0653,1,0,34,34,4,1,6,×,8,6 × 8,congruent,smallerFirst,1,2,48,,,,,,,,
,,,,,,,,,,,,,,,747,2022-01-19_20h29.34.991,multiplicationStroop,2021.2.3,Win32,59.97720866,,,,,,,,,,,,,,,,,,,,,,,,,,,,,,,,,63,1.9988,1,0,35,35,7,1,7,×,9,7 × 9,congruent,smallerFirst,1,2,63,,,,,,,,
,,,,,,,,,,,,,,,747,2022-01-19_20h29.34.991,multiplicationStroop,2021.2.3,Win32,59.97720866,,,,,,,,,,,,,,,,,,,,,,,,,,,,,,,,,,,,,,,,,,,,,,,,,,0,2,2,3,1,stimulusFile/mult_blk4_congruent.xlsx,,
,,,,,,,,,,,,,,,747,2022-01-19_20h29.34.991,multiplicationStroop,2021.2.3,Win32,59.97720866,,,,,,,,,,,,,,,,,,,,,,,,,,,,,,,space,1.07,24,1.5109,1,0,0,0,9,1,3,×,8,3 × 8,incongruent,smallerFirst,2,1,24,,,,,,,,
,,,,,,,,,,,,,,,747,2022-01-19_20h29.34.991,multiplicationStroop,2021.2.3,Win32,59.97720866,,,,,,,,,,,,,,,,,,,,,,,,,,,,,,,,,20,1.3321,1,0,1,1,27,1,5,×,4,5 × 4,incongruent,largerFirst,1,2,20,,,,,,,,
,,,,,,,,,,,,,,,747,2022-01-19_20h29.34.991,multiplicationStroop,2021.2.3,Win32,59.97720866,,,,,,,,,,,,,,,,,,,,,,,,,,,,,,,,,12,1.1989,1,0,2,2,19,1,6,×,2,6 × 2,incongruent,largerFirst,1,2,12,,,,,,,,
,,,,,,,,,,,,,,,747,2022-01-19_20h29.34.991,multiplicationStroop,2021.2.3,Win32,59.97720866,,,,,,,,,,,,,,,,,,,,,,,,,,,,,,,,,24,1.6489,1,0,3,3,20,1,6,×,4,6 × 4,incongruent,largerFirst,1,2,24,,,,,,,,
,,,,,,,,,,,,,,,747,2022-01-19_20h29.34.991,multiplicationStroop,2021.2.3,Win32,59.97720866,,,,,,,,,,,,,,,,,,,,,,,,,,,,,,,,,48,1.7989,1,0,4,4,1,1,6,×,8,6 × 8,incongruent,smallerFirst,2,1,48,,,,,,,,
,,,,,,,,,,,,,,,747,2022-01-19_20h29.34.991,multiplicationStroop,2021.2.3,Win32,59.97720866,,,,,,,,,,,,,,,,,,,,,,,,,,,,,,,,,15,1.3988,1,0,5,5,10,1,3,×,5,3 × 5,incongruent,smallerFirst,2,1,15,,,,,,,,
,,,,,,,,,,,,,,,747,2022-01-19_20h29.34.991,multiplicationStroop,2021.2.3,Win32,59.97720866,,,,,,,,,,,,,,,,,,,,,,,,,,,,,,,,,4,1.6989,1,0,6,6,28,1,2,×,2,2 × 2,incongruent,tie,1,2,4,,,,,,,,
,,,,,,,,,,,,,,,747,2022-01-19_20h29.34.991,multiplicationStroop,2021.2.3,Win32,59.97720866,,,,,,,,,,,,,,,,,,,,,,,,,,,,,,,,,6,1.5154,1,0,7,7,11,1,2,×,3,2 × 3,incongruent,smallerFirst,2,1,6,,,,,,,,
,,,,,,,,,,,,,,,747,2022-01-19_20h29.34.991,multiplicationStroop,2021.2.3,Win32,59.97720866,,,,,,,,,,,,,,,,,,,,,,,,,,,,,,,,,30,1.6985,1,0,8,8,25,1,6,×,5,6 × 5,incongruent,largerFirst,1,2,30,,,,,,,,
,,,,,,,,,,,,,,,747,2022-01-19_20h29.34.991,multiplicationStroop,2021.2.3,Win32,59.97720866,,,,,,,,,,,,,,,,,,,,,,,,,,,,,,,,,63,1.832,1,0,9,9,3,1,7,×,9,7 × 9,incongruent,smallerFirst,2,1,63,,,,,,,,
,,,,,,,,,,,,,,,747,2022-01-19_20h29.34.991,multiplicationStroop,2021.2.3,Win32,59.97720866,,,,,,,,,,,,,,,,,,,,,,,,,,,,,,,,,18,1.5322,1,0,10,10,2,1,2,×,9,2 × 9,incongruent,smallerFirst,2,1,18,,,,,,,,
,,,,,,,,,,,,,,,747,2022-01-19_20h29.34.991,multiplicationStroop,2021.2.3,Win32,59.97720866,,,,,,,,,,,,,,,,,,,,,,,,,,,,,,,,,9,1.4322,1,0,11,11,29,1,3,×,3,3 × 3,incongruent,tie,1,2,9,,,,,,,,
,,,,,,,,,,,,,,,747,2022-01-19_20h29.34.991,multiplicationStroop,2021.2.3,Win32,59.97720866,,,,,,,,,,,,,,,,,,,,,,,,,,,,,,,,,81,1.499,1,0,12,12,35,1,9,×,9,9 × 9,incongruent,tie,1,2,81,,,,,,,,
,,,,,,,,,,,,,,,747,2022-01-19_20h29.34.991,multiplicationStroop,2021.2.3,Win32,59.97720866,,,,,,,,,,,,,,,,,,,,,,,,,,,,,,,,,72,1.815,1,0,13,13,0,1,8,×,9,8 × 9,incongruent,smallerFirst,2,1,72,,,,,,,,
,,,,,,,,,,,,,,,747,2022-01-19_20h29.34.991,multiplicationStroop,2021.2.3,Win32,59.97720866,,,,,,,,,,,,,,,,,,,,,,,,,,,,,,,,,56,2.4657,1,0,14,14,14,1,8,×,7,8 × 7,incongruent,largerFirst,1,2,56,,,,,,,,
,,,,,,,,,,,,,,,747,2022-01-19_20h29.34.991,multiplicationStroop,2021.2.3,Win32,59.97720866,,,,,,,,,,,,,,,,,,,,,,,,,,,,,,,,,40,1.6489,1,0,15,15,13,1,5,×,8,5 × 8,incongruent,smallerFirst,2,1,40,,,,,,,,
,,,,,,,,,,,,,,,747,2022-01-19_20h29.34.991,multiplicationStroop,2021.2.3,Win32,59.97720866,,,,,,,,,,,,,,,,,,,,,,,,,,,,,,,,,32,1.8987,1,0,16,16,7,1,4,×,8,4 × 8,incongruent,smallerFirst,2,1,32,,,,,,,,
,,,,,,,,,,,,,,,747,2022-01-19_20h29.34.991,multiplicationStroop,2021.2.3,Win32,59.97720866,,,,,,,,,,,,,,,,,,,,,,,,,,,,,,,,,35,2.1486,1,0,17,17,12,1,5,×,7,5 × 7,incongruent,smallerFirst,2,1,35,,,,,,,,
,,,,,,,,,,,,,,,747,2022-01-19_20h29.34.991,multiplicationStroop,2021.2.3,Win32,59.97720866,,,,,,,,,,,,,,,,,,,,,,,,,,,,,,,,,14,1.5156,1,0,18,18,4,1,2,×,7,2 × 7,incongruent,smallerFirst,2,1,14,,,,,,,,
,,,,,,,,,,,,,,,747,2022-01-19_20h29.34.991,multiplicationStroop,2021.2.3,Win32,59.97720866,,,,,,,,,,,,,,,,,,,,,,,,,,,,,,,,,36,1.582,1,0,19,19,32,1,6,×,6,6 × 6,incongruent,tie,1,2,36,,,,,,,,
,,,,,,,,,,,,,,,747,2022-01-19_20h29.34.991,multiplicationStroop,2021.2.3,Win32,59.97720866,,,,,,,,,,,,,,,,,,,,,,,,,,,,,,,,,21,1.2992,1,0,20,20,26,1,7,×,3,7 × 3,incongruent,largerFirst,1,2,21,,,,,,,,
,,,,,,,,,,,,,,,747,2022-01-19_20h29.34.991,multiplicationStroop,2021.2.3,Win32,59.97720866,,,,,,,,,,,,,,,,,,,,,,,,,,,,,,,,,12,1.2323,1,0,21,21,5,1,3,×,4,3 × 4,incongruent,smallerFirst,2,1,12,,,,,,,,
,,,,,,,,,,,,,,,747,2022-01-19_20h29.34.991,multiplicationStroop,2021.2.3,Win32,59.97720866,,,,,,,,,,,,,,,,,,,,,,,,,,,,,,,,,10,1.3987,1,0,22,22,21,1,5,×,2,5 × 2,incongruent,largerFirst,1,2,10,,,,,,,,
,,,,,,,,,,,,,,,747,2022-01-19_20h29.34.991,multiplicationStroop,2021.2.3,Win32,59.97720866,,,,,,,,,,,,,,,,,,,,,,,,,,,,,,,,,8,1.5656,1,0,23,23,24,1,4,×,2,4 × 2,incongruent,largerFirst,1,2,8,,,,,,,,
,,,,,,,,,,,,,,,747,2022-01-19_20h29.34.991,multiplicationStroop,2021.2.3,Win32,59.97720866,,,,,,,,,,,,,,,,,,,,,,,,,,,,,,,,,28,2.3486,1,0,24,24,16,1,7,×,4,7 × 4,incongruent,largerFirst,1,2,28,,,,,,,,
,,,,,,,,,,,,,,,747,2022-01-19_20h29.34.991,multiplicationStroop,2021.2.3,Win32,59.97720866,,,,,,,,,,,,,,,,,,,,,,,,,,,,,,,,,27,1.732,1,0,25,25,18,1,9,×,3,9 × 3,incongruent,largerFirst,1,2,27,,,,,,,,
,,,,,,,,,,,,,,,747,2022-01-19_20h29.34.991,multiplicationStroop,2021.2.3,Win32,59.97720866,,,,,,,,,,,,,,,,,,,,,,,,,,,,,,,,,54,2.9984,1,0,26,26,6,1,6,×,9,6 × 9,incongruent,smallerFirst,2,1,54,,,,,,,,
,,,,,,,,,,,,,,,747,2022-01-19_20h29.34.991,multiplicationStroop,2021.2.3,Win32,59.97720866,,,,,,,,,,,,,,,,,,,,,,,,,,,,,,,,,42,2.6316,1,0,27,27,17,1,7,×,6,7 × 6,incongruent,largerFirst,1,2,42,,,,,,,,
,,,,,,,,,,,,,,,747,2022-01-19_20h29.34.991,multiplicationStroop,2021.2.3,Win32,59.97720866,,,,,,,,,,,,,,,,,,,,,,,,,,,,,,,,,25,1.7821,1,0,28,28,31,1,5,×,5,5 × 5,incongruent,tie,1,2,25,,,,,,,,
,,,,,,,,,,,,,,,747,2022-01-19_20h29.34.991,multiplicationStroop,2021.2.3,Win32,59.97720866,,,,,,,,,,,,,,,,,,,,,,,,,,,,,,,,,49,1.7657,1,0,29,29,33,1,7,×,7,7 × 7,incongruent,tie,1,2,49,,,,,,,,
,,,,,,,,,,,,,,,747,2022-01-19_20h29.34.991,multiplicationStroop,2021.2.3,Win32,59.97720866,,,,,,,,,,,,,,,,,,,,,,,,,,,,,,,,,16,1.9654,1,0,30,30,30,1,4,×,4,4 × 4,incongruent,tie,1,2,16,,,,,,,,
,,,,,,,,,,,,,,,747,2022-01-19_20h29.34.991,multiplicationStroop,2021.2.3,Win32,59.97720866,,,,,,,,,,,,,,,,,,,,,,,,,,,,,,,,,64,1.9985,1,0,31,31,34,1,8,×,8,8 × 8,incongruent,tie,1,2,64,,,,,,,,
,,,,,,,,,,,,,,,747,2022-01-19_20h29.34.991,multiplicationStroop,2021.2.3,Win32,59.97720866,,,,,,,,,,,,,,,,,,,,,,,,,,,,,,,,,16,1.4656,1,0,32,32,23,1,8,×,2,8 × 2,incongruent,largerFirst,1,2,16,,,,,,,,
,,,,,,,,,,,,,,,747,2022-01-19_20h29.34.991,multiplicationStroop,2021.2.3,Win32,59.97720866,,,,,,,,,,,,,,,,,,,,,,,,,,,,,,,,,36,2.1988,1,0,33,33,15,1,9,×,4,9 × 4,incongruent,largerFirst,1,2,36,,,,,,,,
,,,,,,,,,,,,,,,747,2022-01-19_20h29.34.991,multiplicationStroop,2021.2.3,Win32,59.97720866,,,,,,,,,,,,,,,,,,,,,,,,,,,,,,,,,45,1.499,1,0,34,34,22,1,9,×,5,9 × 5,incongruent,largerFirst,1,2,45,,,,,,,,
,,,,,,,,,,,,,,,747,2022-01-19_20h29.34.991,multiplicationStroop,2021.2.3,Win32,59.97720866,,,,,,,,,,,,,,,,,,,,,,,,,,,,,,,,,18,1.8153,1,0,35,35,8,1,3,×,6,3 × 6,incongruent,smallerFirst,2,1,18,,,,,,,,
,,,,,,,,,,,,,,,747,2022-01-19_20h29.34.991,multiplicationStroop,2021.2.3,Win32,59.97720866,,,,,,,,,,,,,,,,,,,,,,,,,,,,,,,,,,,,,,,,,,,,,,,,,,0,3,3,5,1,stimulusFile/mult_blk6_INcongruent.xlsx,,
,,,,,,,,,,,,,,,747,2022-01-19_20h29.34.991,multiplicationStroop,2021.2.3,Win32,59.97720866,,,,,,,,,,,,,,,,,,,,,,,,,,,,,,,space,0.8222,81,1.642,1,0,0,0,35,1,9,×,9,9 × 9,neutral,tie,2,1,81,,,,,,,,
,,,,,,,,,,,,,,,747,2022-01-19_20h29.34.991,multiplicationStroop,2021.2.3,Win32,59.97720866,,,,,,,,,,,,,,,,,,,,,,,,,,,,,,,,,64,1.7987,1,0,1,1,34,1,8,×,8,8 × 8,neutral,tie,2,1,64,,,,,,,,
,,,,,,,,,,,,,,,747,2022-01-19_20h29.34.991,multiplicationStroop,2021.2.3,Win32,59.97720866,,,,,,,,,,,,,,,,,,,,,,,,,,,,,,,,,72,1.8155,1,0,2,2,14,1,9,×,8,9 × 8,incongruent,largerFirst,1,2,72,,,,,,,,
,,,,,,,,,,,,,,,747,2022-01-19_20h29.34.991,multiplicationStroop,2021.2.3,Win32,59.97720866,,,,,,,,,,,,,,,,,,,,,,,,,,,,,,,,,49,1.7158,1,0,3,3,33,1,7,×,7,7 × 7,neutral,tie,2,1,49,,,,,,,,
,,,,,,,,,,,,,,,747,2022-01-19_20h29.34.991,multiplicationStroop,2021.2.3,Win32,59.97720866,,,,,,,,,,,,,,,,,,,,,,,,,,,,,,,,,9,1.6319,1,0,4,4,29,1,3,×,3,3 × 3,neutral,tie,2,1,9,,,,,,,,
,,,,,,,,,,,,,,,747,2022-01-19_20h29.34.991,multiplicationStroop,2021.2.3,Win32,59.97720866,,,,,,,,,,,,,,,,,,,,,,,,,,,,,,,,,4,1.3492,1,0,5,5,28,1,2,×,2,2 × 2,neutral,tie,2,1,4,,,,,,,,
,,,,,,,,,,,,,,,747,2022-01-19_20h29.34.991,multiplicationStroop,2021.2.3,Win32,59.97720866,,,,,,,,,,,,,,,,,,,,,,,,,,,,,,,,,35,1.9319,1,0,6,6,26,1,7,×,5,7 × 5,incongruent,largerFirst,1,2,35,,,,,,,,
,,,,,,,,,,,,,,,747,2022-01-19_20h29.34.991,multiplicationStroop,2021.2.3,Win32,59.97720866,,,,,,,,,,,,,,,,,,,,,,,,,,,,,,,,,54,2.0486,1,0,7,7,20,1,9,×,6,9 × 6,incongruent,largerFirst,1,2,54,,,,,,,,
,,,,,,,,,,,,,,,747,2022-01-19_20h29.34.991,multiplicationStroop,2021.2.3,Win32,59.97720866,,,,,,,,,,,,,,,,,,,,,,,,,,,,,,,,,42,1.5988,1,0,8,8,3,1,6,×,7,6 × 7,incongruent,smallerFirst,2,1,42,,,,,,,,
,,,,,,,,,,,,,,,747,2022-01-19_20h29.34.991,multiplicationStroop,2021.2.3,Win32,59.97720866,,,,,,,,,,,,,,,,,,,,,,,,,,,,,,,,,14,1.4487,1,0,9,9,18,1,7,×,2,7 × 2,incongruent,largerFirst,1,2,14,,,,,,,,
,,,,,,,,,,,,,,,747,2022-01-19_20h29.34.991,multiplicationStroop,2021.2.3,Win32,59.97720866,,,,,,,,,,,,,,,,,,,,,,,,,,,,,,,,,16,1.5654,1,0,10,10,9,1,2,×,8,2 × 8,incongruent,smallerFirst,2,1,16,,,,,,,,
,,,,,,,,,,,,,,,747,2022-01-19_20h29.34.991,multiplicationStroop,2021.2.3,Win32,59.97720866,,,,,,,,,,,,,,,,,,,,,,,,,,,,,,,,,36,2.1989,1,0,11,11,1,1,4,×,9,4 × 9,incongruent,smallerFirst,2,1,36,,,,,,,,
,,,,,,,,,,,,,,,747,2022-01-19_20h29.34.991,multiplicationStroop,2021.2.3,Win32,59.97720866,,,,,,,,,,,,,,,,,,,,,,,,,,,,,,,,,15,1.4657,1,0,12,12,24,1,5,×,3,5 × 3,incongruent,largerFirst,1,2,15,,,,,,,,
,,,,,,,,,,,,,,,747,2022-01-19_20h29.34.991,multiplicationStroop,2021.2.3,Win32,59.97720866,,,,,,,,,,,,,,,,,,,,,,,,,,,,,,,,,32,1.5992,1,0,13,13,21,1,8,×,4,8 × 4,incongruent,largerFirst,1,2,32,,,,,,,,
,,,,,,,,,,,,,,,747,2022-01-19_20h29.34.991,multiplicationStroop,2021.2.3,Win32,59.97720866,,,,,,,,,,,,,,,,,,,,,,,,,,,,,,,,,63,1.9656,1,0,14,14,17,1,9,×,7,9 × 7,incongruent,largerFirst,1,2,63,,,,,,,,
,,,,,,,,,,,,,,,747,2022-01-19_20h29.34.991,multiplicationStroop,2021.2.3,Win32,59.97720866,,,,,,,,,,,,,,,,,,,,,,,,,,,,,,,,,10,1.4154,1,0,15,15,7,1,2,×,5,2 × 5,incongruent,smallerFirst,2,1,10,,,,,,,,
,,,,,,,,,,,,,,,747,2022-01-19_20h29.34.991,multiplicationStroop,2021.2.3,Win32,59.97720866,,,,,,,,,,,,,,,,,,,,,,,,,,,,,,,,,36,1.7154,1,0,16,16,32,1,6,×,6,6 × 6,neutral,tie,2,1,36,,,,,,,,
,,,,,,,,,,,,,,,747,2022-01-19_20h29.34.991,multiplicationStroop,2021.2.3,Win32,59.97720866,,,,,,,,,,,,,,,,,,,,,,,,,,,,,,,,,16,1.6321,1,0,17,17,30,1,4,×,4,4 × 4,neutral,tie,2,1,16,,,,,,,,
,,,,,,,,,,,,,,,747,2022-01-19_20h29.34.991,multiplicationStroop,2021.2.3,Win32,59.97720866,,,,,,,,,,,,,,,,,,,,,,,,,,,,,,,,,28,1.9487,1,0,18,18,2,1,4,×,7,4 × 7,incongruent,smallerFirst,2,1,28,,,,,,,,
,,,,,,,,,,,,,,,747,2022-01-19_20h29.34.991,multiplicationStroop,2021.2.3,Win32,59.97720866,,,,,,,,,,,,,,,,,,,,,,,,,,,,,,,,,56,2.5656,1,0,19,19,0,1,7,×,8,7 × 8,incongruent,smallerFirst,2,1,56,,,,,,,,
,,,,,,,,,,,,,,,747,2022-01-19_20h29.34.991,multiplicationStroop,2021.2.3,Win32,59.97720866,,,,,,,,,,,,,,,,,,,,,,,,,,,,,,,,,12,1.2339,1,0,20,20,19,1,4,×,3,4 × 3,incongruent,largerFirst,1,2,12,,,,,,,,
,,,,,,,,,,,,,,,747,2022-01-19_20h29.34.991,multiplicationStroop,2021.2.3,Win32,59.97720866,,,,,,,,,,,,,,,,,,,,,,,,,,,,,,,,,27,1.9486,1,0,21,21,4,1,3,×,9,3 × 9,incongruent,smallerFirst,2,1,27,,,,,,,,
,,,,,,,,,,,,,,,747,2022-01-19_20h29.34.991,multiplicationStroop,2021.2.3,Win32,59.97720866,,,,,,,,,,,,,,,,,,,,,,,,,,,,,,,,,21,1.6654,1,0,22,22,12,1,3,×,7,3 × 7,incongruent,smallerFirst,2,1,21,,,,,,,,
,,,,,,,,,,,,,,,747,2022-01-19_20h29.34.991,multiplicationStroop,2021.2.3,Win32,59.97720866,,,,,,,,,,,,,,,,,,,,,,,,,,,,,,,,,20,1.4157,1,0,23,23,13,1,4,×,5,4 × 5,incongruent,smallerFirst,2,1,20,,,,,,,,
,,,,,,,,,,,,,,,747,2022-01-19_20h29.34.991,multiplicationStroop,2021.2.3,Win32,59.97720866,,,,,,,,,,,,,,,,,,,,,,,,,,,,,,,,,18,1.582,1,0,24,24,16,1,9,×,2,9 × 2,incongruent,largerFirst,1,2,18,,,,,,,,
,,,,,,,,,,,,,,,747,2022-01-19_20h29.34.991,multiplicationStroop,2021.2.3,Win32,59.97720866,,,,,,,,,,,,,,,,,,,,,,,,,,,,,,,,,45,1.6991,1,0,25,25,8,1,5,×,9,5 × 9,incongruent,smallerFirst,2,1,45,,,,,,,,
,,,,,,,,,,,,,,,747,2022-01-19_20h29.34.991,multiplicationStroop,2021.2.3,Win32,59.97720866,,,,,,,,,,,,,,,,,,,,,,,,,,,,,,,,,12,1.4825,1,0,26,26,5,1,2,×,6,2 × 6,incongruent,smallerFirst,2,1,12,,,,,,,,
,,,,,,,,,,,,,,,747,2022-01-19_20h29.34.991,multiplicationStroop,2021.2.3,Win32,59.97720866,,,,,,,,,,,,,,,,,,,,,,,,,,,,,,,,,8,1.9486,1,0,27,27,10,1,2,×,4,2 × 4,incongruent,smallerFirst,2,1,8,,,,,,,,
,,,,,,,,,,,,,,,747,2022-01-19_20h29.34.991,multiplicationStroop,2021.2.3,Win32,59.97720866,,,,,,,,,,,,,,,,,,,,,,,,,,,,,,,,,6,1.5656,1,0,28,28,25,1,3,×,2,3 × 2,incongruent,largerFirst,1,2,6,,,,,,,,
,,,,,,,,,,,,,,,747,2022-01-19_20h29.34.991,multiplicationStroop,2021.2.3,Win32,59.97720866,,,,,,,,,,,,,,,,,,,,,,,,,,,,,,,,,30,1.6824,1,0,29,29,11,1,5,×,6,5 × 6,incongruent,smallerFirst,2,1,30,,,,,,,,
,,,,,,,,,,,,,,,747,2022-01-19_20h29.34.991,multiplicationStroop,2021.2.3,Win32,59.97720866,,,,,,,,,,,,,,,,,,,,,,,,,,,,,,,,,40,2.3319,1,0,30,30,27,1,8,×,5,8 × 5,incongruent,largerFirst,1,2,40,,,,,,,,
,,,,,,,,,,,,,,,747,2022-01-19_20h29.34.991,multiplicationStroop,2021.2.3,Win32,59.97720866,,,,,,,,,,,,,,,,,,,,,,,,,,,,,,,,,25,2.0153,1,0,31,31,31,1,5,×,5,5 × 5,neutral,tie,2,1,25,,,,,,,,
,,,,,,,,,,,,,,,747,2022-01-19_20h29.34.991,multiplicationStroop,2021.2.3,Win32,59.97720866,,,,,,,,,,,,,,,,,,,,,,,,,,,,,,,,,24,1.7158,1,0,32,32,23,1,8,×,3,8 × 3,incongruent,largerFirst,1,2,24,,,,,,,,
,,,,,,,,,,,,,,,747,2022-01-19_20h29.34.991,multiplicationStroop,2021.2.3,Win32,59.97720866,,,,,,,,,,,,,,,,,,,,,,,,,,,,,,,,,18,1.6319,1,0,33,33,22,1,6,×,3,6 × 3,incongruent,largerFirst,1,2,18,,,,,,,,
,,,,,,,,,,,,,,,747,2022-01-19_20h29.34.991,multiplicationStroop,2021.2.3,Win32,59.97720866,,,,,,,,,,,,,,,,,,,,,,,,,,,,,,,,,48,4.6479,1,0,34,34,15,1,8,×,6,8 × 6,incongruent,largerFirst,1,2,48,,,,,,,,
,,,,,,,,,,,,,,,747,2022-01-19_20h29.34.991,multiplicationStroop,2021.2.3,Win32,59.97720866,,,,,,,,,,,,,,,,,,,,,,,,,,,,,,,,,24,1.4668,1,0,35,35,6,1,4,×,6,4 × 6,incongruent,smallerFirst,2,1,24,,,,,,,,
,,,,,,,,,,,,,,,747,2022-01-19_20h29.34.991,multiplicationStroop,2021.2.3,Win32,59.97720866,,,,,,,,,,,,,,,,,,,,,,,,,,,,,,,,,,,,,,,,,,,,,,,,,,0,4,4,4,1,stimulusFile/mult_blk5_INcongruent.xlsx,,
,,,,,,,,,,,,,,,747,2022-01-19_20h29.34.991,multiplicationStroop,2021.2.3,Win32,59.97720866,,,,,,,,,,,,,,,,,,,,,,,,,,,,,,,space,0.8994,18,1.547,1,0,0,0,18,1,9,×,2,9 × 2,neutral,largerFirst,1.5,1.5,18,,,,,,,,
,,,,,,,,,,,,,,,747,2022-01-19_20h29.34.991,multiplicationStroop,2021.2.3,Win32,59.97720866,,,,,,,,,,,,,,,,,,,,,,,,,,,,,,,,,49,1.7986,1,0,1,1,33,1,7,×,7,7 × 7,neutral,tie,1.5,1.5,49,,,,,,,,
,,,,,,,,,,,,,,,747,2022-01-19_20h29.34.991,multiplicationStroop,2021.2.3,Win32,59.97720866,,,,,,,,,,,,,,,,,,,,,,,,,,,,,,,,,6,1.4987,1,0,2,2,26,1,3,×,2,3 × 2,neutral,largerFirst,1.5,1.5,6,,,,,,,,
,,,,,,,,,,,,,,,747,2022-01-19_20h29.34.991,multiplicationStroop,2021.2.3,Win32,59.97720866,,,,,,,,,,,,,,,,,,,,,,,,,,,,,,,,,16,1.8988,1,0,3,3,30,1,4,×,4,4 × 4,neutral,tie,1.5,1.5,16,,,,,,,,
,,,,,,,,,,,,,,,747,2022-01-19_20h29.34.991,multiplicationStroop,2021.2.3,Win32,59.97720866,,,,,,,,,,,,,,,,,,,,,,,,,,,,,,,,,24,1.7153,1,0,4,4,22,1,8,×,3,8 × 3,neutral,largerFirst,1.5,1.5,24,,,,,,,,
,,,,,,,,,,,,,,,747,2022-01-19_20h29.34.991,multiplicationStroop,2021.2.3,Win32,59.97720866,,,,,,,,,,,,,,,,,,,,,,,,,,,,,,,,,14,1.3656,1,0,5,5,16,1,7,×,2,7 × 2,neutral,largerFirst,1.5,1.5,14,,,,,,,,
,,,,,,,,,,,,,,,747,2022-01-19_20h29.34.991,multiplicationStroop,2021.2.3,Win32,59.97720866,,,,,,,,,,,,,,,,,,,,,,,,,,,,,,,,,12,1.3661,1,0,6,6,21,1,4,×,3,4 × 3,neutral,largerFirst,1.5,1.5,12,,,,,,,,
,,,,,,,,,,,,,,,747,2022-01-19_20h29.34.991,multiplicationStroop,2021.2.3,Win32,59.97720866,,,,,,,,,,,,,,,,,,,,,,,,,,,,,,,,,45,1.4322,1,0,7,7,10,1,5,×,9,5 × 9,neutral,smallerFirst,1.5,1.5,45,,,,,,,,
,,,,,,,,,,,,,,,747,2022-01-19_20h29.34.991,multiplicationStroop,2021.2.3,Win32,59.97720866,,,,,,,,,,,,,,,,,,,,,,,,,,,,,,,,,36,2.3149,1,0,8,8,27,1,9,×,4,9 × 4,neutral,largerFirst,1.5,1.5,36,,,,,,,,
,,,,,,,,,,,,,,,747,2022-01-19_20h29.34.991,multiplicationStroop,2021.2.3,Win32,59.97720866,,,,,,,,,,,,,,,,,,,,,,,,,,,,,,,,,8,1.6076,1,0,9,9,3,1,2,×,4,2 × 4,neutral,smallerFirst,1.5,1.5,8,,,,,,,,
,,,,,,,,,,,,,,,747,2022-01-19_20h29.34.991,multiplicationStroop,2021.2.3,Win32,59.97720866,,,,,,,,,,,,,,,,,,,,,,,,,,,,,,,,,15,2.1487,1,0,10,10,5,1,3,×,5,3 × 5,neutral,smallerFirst,1.5,1.5,15,,,,,,,,
,,,,,,,,,,,,,,,747,2022-01-19_20h29.34.991,multiplicationStroop,2021.2.3,Win32,59.97720866,,,,,,,,,,,,,,,,,,,,,,,,,,,,,,,,,36,2.0319,1,0,11,11,32,1,6,×,6,6 × 6,neutral,tie,1.5,1.5,36,,,,,,,,
,,,,,,,,,,,,,,,747,2022-01-19_20h29.34.991,multiplicationStroop,2021.2.3,Win32,59.97720866,,,,,,,,,,,,,,,,,,,,,,,,,,,,,,,,,63,2.1486,1,0,12,12,12,1,7,×,9,7 × 9,neutral,smallerFirst,1.5,1.5,63,,,,,,,,
,,,,,,,,,,,,,,,747,2022-01-19_20h29.34.991,multiplicationStroop,2021.2.3,Win32,59.97720866,,,,,,,,,,,,,,,,,,,,,,,,,,,,,,,,,64,1.9022,1,0,13,13,34,1,8,×,8,8 × 8,neutral,tie,1.5,1.5,64,,,,,,,,
,,,,,,,,,,,,,,,747,2022-01-19_20h29.34.991,multiplicationStroop,2021.2.3,Win32,59.97720866,,,,,,,,,,,,,,,,,,,,,,,,,,,,,,,,,30,1.6328,1,0,14,14,19,1,6,×,5,6 × 5,neutral,largerFirst,1.5,1.5,30,,,,,,,,
,,,,,,,,,,,,,,,747,2022-01-19_20h29.34.991,multiplicationStroop,2021.2.3,Win32,59.97720866,,,,,,,,,,,,,,,,,,,,,,,,,,,,,,,,,18,1.5986,1,0,15,15,0,1,3,×,6,3 × 6,neutral,smallerFirst,1.5,1.5,18,,,,,,,,
,,,,,,,,,,,,,,,747,2022-01-19_20h29.34.991,multiplicationStroop,2021.2.3,Win32,59.97720866,,,,,,,,,,,,,,,,,,,,,,,,,,,,,,,,,28,1.5322,0,0,16,16,14,1,9,×,3,9 × 3,neutral,largerFirst,1.5,1.5,27,,,,,,,,
,,,,,,,,,,,,,,,747,2022-01-19_20h29.34.991,multiplicationStroop,2021.2.3,Win32,59.97720866,,,,,,,,,,,,,,,,,,,,,,,,,,,,,,,,,12,1.6486,1,0,17,17,25,1,6,×,2,6 × 2,neutral,largerFirst,1.5,1.5,12,,,,,,,,
,,,,,,,,,,,,,,,747,2022-01-19_20h29.34.991,multiplicationStroop,2021.2.3,Win32,59.97720866,,,,,,,,,,,,,,,,,,,,,,,,,,,,,,,,,81,1.4988,1,0,18,18,35,1,9,×,9,9 × 9,neutral,tie,1.5,1.5,81,,,,,,,,
,,,,,,,,,,,,,,,747,2022-01-19_20h29.34.991,multiplicationStroop,2021.2.3,Win32,59.97720866,,,,,,,,,,,,,,,,,,,,,,,,,,,,,,,,,56,1.8825,1,0,19,19,9,1,7,×,8,7 × 8,neutral,smallerFirst,1.5,1.5,56,,,,,,,,
,,,,,,,,,,,,,,,747,2022-01-19_20h29.34.991,multiplicationStroop,2021.2.3,Win32,59.97720866,,,,,,,,,,,,,,,,,,,,,,,,,,,,,,,,,4,1.2319,1,0,20,20,28,1,2,×,2,2 × 2,neutral,tie,1.5,1.5,4,,,,,,,,
,,,,,,,,,,,,,,,747,2022-01-19_20h29.34.991,multiplicationStroop,2021.2.3,Win32,59.97720866,,,,,,,,,,,,,,,,,,,,,,,,,,,,,,,,,40,1.5329,1,0,21,21,24,1,8,×,5,8 × 5,neutral,largerFirst,1.5,1.5,40,,,,,,,,
,,,,,,,,,,,,,,,747,2022-01-19_20h29.34.991,multiplicationStroop,2021.2.3,Win32,59.97720866,,,,,,,,,,,,,,,,,,,,,,,,,,,,,,,,,25,1.9149,1,0,22,22,31,1,5,×,5,5 × 5,neutral,tie,1.5,1.5,25,,,,,,,,
,,,,,,,,,,,,,,,747,2022-01-19_20h29.34.991,multiplicationStroop,2021.2.3,Win32,59.97720866,,,,,,,,,,,,,,,,,,,,,,,,,,,,,,,,,54,1.6486,1,0,23,23,7,1,6,×,9,6 × 9,neutral,smallerFirst,1.5,1.5,54,,,,,,,,
,,,,,,,,,,,,,,,747,2022-01-19_20h29.34.991,multiplicationStroop,2021.2.3,Win32,59.97720866,,,,,,,,,,,,,,,,,,,,,,,,,,,,,,,,,42,1.8151,1,0,24,24,6,1,6,×,7,6 × 7,neutral,smallerFirst,1.5,1.5,42,,,,,,,,
,,,,,,,,,,,,,,,747,2022-01-19_20h29.34.991,multiplicationStroop,2021.2.3,Win32,59.97720866,,,,,,,,,,,,,,,,,,,,,,,,,,,,,,,,,9,1.5158,1,0,25,25,29,1,3,×,3,3 × 3,neutral,tie,1.5,1.5,9,,,,,,,,
,,,,,,,,,,,,,,,747,2022-01-19_20h29.34.991,multiplicationStroop,2021.2.3,Win32,59.97720866,,,,,,,,,,,,,,,,,,,,,,,,,,,,,,,,,28,2.2814,1,0,26,26,17,1,7,×,4,7 × 4,neutral,largerFirst,1.5,1.5,28,,,,,,,,
,,,,,,,,,,,,,,,747,2022-01-19_20h29.34.991,multiplicationStroop,2021.2.3,Win32,59.97720866,,,,,,,,,,,,,,,,,,,,,,,,,,,,,,,,,20,1.7322,1,0,27,27,20,1,5,×,4,5 × 4,neutral,largerFirst,1.5,1.5,20,,,,,,,,
,,,,,,,,,,,,,,,747,2022-01-19_20h29.34.991,multiplicationStroop,2021.2.3,Win32,59.97720866,,,,,,,,,,,,,,,,,,,,,,,,,,,,,,,,,35,1.5818,1,0,28,28,1,1,5,×,7,5 × 7,neutral,smallerFirst,1.5,1.5,35,,,,,,,,
,,,,,,,,,,,,,,,747,2022-01-19_20h29.34.991,multiplicationStroop,2021.2.3,Win32,59.97720866,,,,,,,,,,,,,,,,,,,,,,,,,,,,,,,,,16,2.082,1,0,29,29,13,1,2,×,8,2 × 8,neutral,smallerFirst,1.5,1.5,16,,,,,,,,
,,,,,,,,,,,,,,,747,2022-01-19_20h29.34.991,multiplicationStroop,2021.2.3,Win32,59.97720866,,,,,,,,,,,,,,,,,,,,,,,,,,,,,,,,,48,2.1152,1,0,30,30,15,1,8,×,6,8 × 6,neutral,largerFirst,1.5,1.5,48,,,,,,,,
,,,,,,,,,,,,,,,747,2022-01-19_20h29.34.991,multiplicationStroop,2021.2.3,Win32,59.97720866,,,,,,,,,,,,,,,,,,,,,,,,,,,,,,,,,10,1.3989,1,0,31,31,4,1,2,×,5,2 × 5,neutral,smallerFirst,1.5,1.5,10,,,,,,,,
,,,,,,,,,,,,,,,747,2022-01-19_20h29.34.991,multiplicationStroop,2021.2.3,Win32,59.97720866,,,,,,,,,,,,,,,,,,,,,,,,,,,,,,,,,21,1.3989,1,0,32,32,8,1,3,×,7,3 × 7,neutral,smallerFirst,1.5,1.5,21,,,,,,,,
,,,,,,,,,,,,,,,747,2022-01-19_20h29.34.991,multiplicationStroop,2021.2.3,Win32,59.97720866,,,,,,,,,,,,,,,,,,,,,,,,,,,,,,,,,32,2.0816,1,0,33,33,23,1,8,×,4,8 × 4,neutral,largerFirst,1.5,1.5,32,,,,,,,,
,,,,,,,,,,,,,,,747,2022-01-19_20h29.34.991,multiplicationStroop,2021.2.3,Win32,59.97720866,,,,,,,,,,,,,,,,,,,,,,,,,,,,,,,,,24,1.534,1,0,34,34,2,1,4,×,6,4 × 6,neutral,smallerFirst,1.5,1.5,24,,,,,,,,
,,,,,,,,,,,,,,,747,2022-01-19_20h29.34.991,multiplicationStroop,2021.2.3,Win32,59.97720866,,,,,,,,,,,,,,,,,,,,,,,,,,,,,,,,,72,2.0989,1,0,35,35,11,1,8,×,9,8 × 9,neutral,smallerFirst,1.5,1.5,72,,,,,,,,
,,,,,,,,,,,,,,,747,2022-01-19_20h29.34.991,multiplicationStroop,2021.2.3,Win32,59.97720866,,,,,,,,,,,,,,,,,,,,,,,,,,,,,,,,,,,,,,,,,,,,,,,,,,0,5,5,1,1,stimulusFile/mult_blk2.xlsx,,
,,,,,,,,,,,,,,,747,2022-01-19_20h29.34.991,multiplicationStroop,2021.2.3,Win32,59.97720866,,,,,,,,,,,,,,,,,,,,,,,,,,,,,,,,,,,,,,,,,,,,,,,,,,,,,,,,space,6.4067