welcomeKey_resp.keys,welcomeKey_resp.rt,X Scale,Y Scale,rt_resp_4.keys,rt_resp_4.corr,rt_resp_4.rt,speedtest_2.thisRepN,speedtest_2.thisTrialN,speedtest_2.thisN,speedtest_2.thisIndex,speedtest_2.ran,numberSc,posX,positionLayout,participant,date,expName,psychopyVersion,OS,frameRate,ct_instrresp.keys,ct_instrresp.rt,key_resp_2.keys,key_resp_2.rt,ct_keyResp.keys,ct_keyResp.corr,ct_keyResp.rt,trials.thisRepN,trials.thisTrialN,trials.thisN,trials.thisIndex,trials.ran,leftNo,rightNo,displayProblem,numDistance,leftNo_size,rightNo_size,Dims,keyAnswer,TS_Loop.thisRepN,TS_Loop.thisTrialN,TS_Loop.thisN,TS_Loop.thisIndex,TS_Loop.ran,Condition,ActionInst,instrImage,mltptaskInst_resp.keys,mltptaskInst_resp.rt,continue_resp_2.keys,continue_resp_2.rt,multp_Answer,multi_RT,multiplyCorr,LoopingMultiply.thisRepN,LoopingMultiply.thisTrialN,LoopingMultiply.thisN,LoopingMultiply.thisIndex,LoopingMultiply.ran,factor1,multiplySign,factor2,multliplyProblem,physicalSize,orderOperand,sizeF1,sizeF2,mult_answer,trials_stroop.thisRepN,trials_stroop.thisTrialN,trials_stroop.thisN,trials_stroop.thisIndex,trials_stroop.ran,multiplicationFile,esckey_resp_2.keys,esckey_resp_2.rt
y,26.7531,56.1,55.8,right,1,0.5463,0,0,0,15,1,9,200,right,748,2022-01-21_21h29.19.568,multiplicationStroop,2021.2.3,Win32,144.4669171,,,,,,,,,,,,,,,,,,,,,,,,,,,,,,,,,,,,,,,,,,,,,,,,,,,,,,,,,
,,,,right,1,0.4584,0,1,1,9,1,2,200,right,748,2022-01-21_21h29.19.568,multiplicationStroop,2021.2.3,Win32,144.4669171,,,,,,,,,,,,,,,,,,,,,,,,,,,,,,,,,,,,,,,,,,,,,,,,,,,,,,,,,
,,,,right,1,0.3545,0,2,2,13,1,7,200,right,748,2022-01-21_21h29.19.568,multiplicationStroop,2021.2.3,Win32,144.4669171,,,,,,,,,,,,,,,,,,,,,,,,,,,,,,,,,,,,,,,,,,,,,,,,,,,,,,,,,
,,,,left,1,0.4375,0,3,3,5,1,7,-200,left,748,2022-01-21_21h29.19.568,multiplicationStroop,2021.2.3,Win32,144.4669171,,,,,,,,,,,,,,,,,,,,,,,,,,,,,,,,,,,,,,,,,,,,,,,,,,,,,,,,,
,,,,right,1,0.4119,0,4,4,8,1,1,200,right,748,2022-01-21_21h29.19.568,multiplicationStroop,2021.2.3,Win32,144.4669171,,,,,,,,,,,,,,,,,,,,,,,,,,,,,,,,,,,,,,,,,,,,,,,,,,,,,,,,,
,,,,right,1,0.3682,0,5,5,14,1,8,200,right,748,2022-01-21_21h29.19.568,multiplicationStroop,2021.2.3,Win32,144.4669171,,,,,,,,,,,,,,,,,,,,,,,,,,,,,,,,,,,,,,,,,,,,,,,,,,,,,,,,,
,,,,left,1,0.3611,0,6,6,4,1,6,-200,left,748,2022-01-21_21h29.19.568,multiplicationStroop,2021.2.3,Win32,144.4669171,,,,,,,,,,,,,,,,,,,,,,,,,,,,,,,,,,,,,,,,,,,,,,,,,,,,,,,,,
,,,,left,1,0.3196,0,7,7,1,1,2,-200,left,748,2022-01-21_21h29.19.568,multiplicationStroop,2021.2.3,Win32,144.4669171,,,,,,,,,,,,,,,,,,,,,,,,,,,,,,,,,,,,,,,,,,,,,,,,,,,,,,,,,
,,,,right,1,0.3614,0,8,8,11,1,4,200,right,748,2022-01-21_21h29.19.568,multiplicationStroop,2021.2.3,Win32,144.4669171,,,,,,,,,,,,,,,,,,,,,,,,,,,,,,,,,,,,,,,,,,,,,,,,,,,,,,,,,
,,,,right,1,0.3131,0,9,9,10,1,3,200,right,748,2022-01-21_21h29.19.568,multiplicationStroop,2021.2.3,Win32,144.4669171,,,,,,,,,,,,,,,,,,,,,,,,,,,,,,,,,,,,,,,,,,,,,,,,,,,,,,,,,
,,,,left,1,0.3404,0,10,10,6,1,8,-200,left,748,2022-01-21_21h29.19.568,multiplicationStroop,2021.2.3,Win32,144.4669171,,,,,,,,,,,,,,,,,,,,,,,,,,,,,,,,,,,,,,,,,,,,,,,,,,,,,,,,,
,,,,left,1,0.3269,0,11,11,2,1,3,-200,left,748,2022-01-21_21h29.19.568,multiplicationStroop,2021.2.3,Win32,144.4669171,,,,,,,,,,,,,,,,,,,,,,,,,,,,,,,,,,,,,,,,,,,,,,,,,,,,,,,,,
,,,,left,1,0.3271,0,12,12,7,1,9,-200,left,748,2022-01-21_21h29.19.568,multiplicationStroop,2021.2.3,Win32,144.4669171,,,,,,,,,,,,,,,,,,,,,,,,,,,,,,,,,,,,,,,,,,,,,,,,,,,,,,,,,
,,,,right,1,0.3545,0,13,13,12,1,6,200,right,748,2022-01-21_21h29.19.568,multiplicationStroop,2021.2.3,Win32,144.4669171,,,,,,,,,,,,,,,,,,,,,,,,,,,,,,,,,,,,,,,,,,,,,,,,,,,,,,,,,
,,,,left,1,0.3335,0,14,14,3,1,4,-200,left,748,2022-01-21_21h29.19.568,multiplicationStroop,2021.2.3,Win32,144.4669171,,,,,,,,,,,,,,,,,,,,,,,,,,,,,,,,,,,,,,,,,,,,,,,,,,,,,,,,,
,,,,left,1,0.3333,0,15,15,0,1,1,-200,left,748,2022-01-21_21h29.19.568,multiplicationStroop,2021.2.3,Win32,144.4669171,,,,,,,,,,,,,,,,,,,,,,,,,,,,,,,,,,,,,,,,,,,,,,,,,,,,,,,,,
,,,,right,1,0.3197,1,0,16,14,1,8,200,right,748,2022-01-21_21h29.19.568,multiplicationStroop,2021.2.3,Win32,144.4669171,,,,,,,,,,,,,,,,,,,,,,,,,,,,,,,,,,,,,,,,,,,,,,,,,,,,,,,,,
,,,,right,1,0.3199,1,1,17,13,1,7,200,right,748,2022-01-21_21h29.19.568,multiplicationStroop,2021.2.3,Win32,144.4669171,,,,,,,,,,,,,,,,,,,,,,,,,,,,,,,,,,,,,,,,,,,,,,,,,,,,,,,,,
,,,,left,1,0.3083,1,2,18,6,1,8,-200,left,748,2022-01-21_21h29.19.568,multiplicationStroop,2021.2.3,Win32,144.4669171,,,,,,,,,,,,,,,,,,,,,,,,,,,,,,,,,,,,,,,,,,,,,,,,,,,,,,,,,
,,,,right,1,0.3058,1,3,19,8,1,1,200,right,748,2022-01-21_21h29.19.568,multiplicationStroop,2021.2.3,Win32,144.4669171,,,,,,,,,,,,,,,,,,,,,,,,,,,,,,,,,,,,,,,,,,,,,,,,,,,,,,,,,
,,,,left,1,0.2711,1,4,20,3,1,4,-200,left,748,2022-01-21_21h29.19.568,multiplicationStroop,2021.2.3,Win32,144.4669171,,,,,,,,,,,,,,,,,,,,,,,,,,,,,,,,,,,,,,,,,,,,,,,,,,,,,,,,,
,,,,right,1,0.292,1,5,21,10,1,3,200,right,748,2022-01-21_21h29.19.568,multiplicationStroop,2021.2.3,Win32,144.4669171,,,,,,,,,,,,,,,,,,,,,,,,,,,,,,,,,,,,,,,,,,,,,,,,,,,,,,,,,
,,,,left,1,0.3615,1,6,22,4,1,6,-200,left,748,2022-01-21_21h29.19.568,multiplicationStroop,2021.2.3,Win32,144.4669171,,,,,,,,,,,,,,,,,,,,,,,,,,,,,,,,,,,,,,,,,,,,,,,,,,,,,,,,,
,,,,right,1,0.3406,1,7,23,15,1,9,200,right,748,2022-01-21_21h29.19.568,multiplicationStroop,2021.2.3,Win32,144.4669171,,,,,,,,,,,,,,,,,,,,,,,,,,,,,,,,,,,,,,,,,,,,,,,,,,,,,,,,,
,,,,left,1,0.3552,1,8,24,0,1,1,-200,left,748,2022-01-21_21h29.19.568,multiplicationStroop,2021.2.3,Win32,144.4669171,,,,,,,,,,,,,,,,,,,,,,,,,,,,,,,,,,,,,,,,,,,,,,,,,,,,,,,,,
,,,,right,1,0.3473,1,9,25,11,1,4,200,right,748,2022-01-21_21h29.19.568,multiplicationStroop,2021.2.3,Win32,144.4669171,,,,,,,,,,,,,,,,,,,,,,,,,,,,,,,,,,,,,,,,,,,,,,,,,,,,,,,,,
,,,,left,1,0.3335,1,10,26,1,1,2,-200,left,748,2022-01-21_21h29.19.568,multiplicationStroop,2021.2.3,Win32,144.4669171,,,,,,,,,,,,,,,,,,,,,,,,,,,,,,,,,,,,,,,,,,,,,,,,,,,,,,,,,
,,,,left,1,0.3266,1,11,27,7,1,9,-200,left,748,2022-01-21_21h29.19.568,multiplicationStroop,2021.2.3,Win32,144.4669171,,,,,,,,,,,,,,,,,,,,,,,,,,,,,,,,,,,,,,,,,,,,,,,,,,,,,,,,,
,,,,left,1,0.3337,1,12,28,2,1,3,-200,left,748,2022-01-21_21h29.19.568,multiplicationStroop,2021.2.3,Win32,144.4669171,,,,,,,,,,,,,,,,,,,,,,,,,,,,,,,,,,,,,,,,,,,,,,,,,,,,,,,,,
,,,,left,1,0.3621,1,13,29,5,1,7,-200,left,748,2022-01-21_21h29.19.568,multiplicationStroop,2021.2.3,Win32,144.4669171,,,,,,,,,,,,,,,,,,,,,,,,,,,,,,,,,,,,,,,,,,,,,,,,,,,,,,,,,
,,,,right,1,0.3831,1,14,30,9,1,2,200,right,748,2022-01-21_21h29.19.568,multiplicationStroop,2021.2.3,Win32,144.4669171,,,,,,,,,,,,,,,,,,,,,,,,,,,,,,,,,,,,,,,,,,,,,,,,,,,,,,,,,
,,,,right,1,0.3202,1,15,31,12,1,6,200,right,748,2022-01-21_21h29.19.568,multiplicationStroop,2021.2.3,Win32,144.4669171,,,,,,,,,,,,,,,,,,,,,,,,,,,,,,,,,,,,,,,,,,,,,,,,,,,,,,,,,
,,,,left,1,0.3271,2,0,32,7,1,9,-200,left,748,2022-01-21_21h29.19.568,multiplicationStroop,2021.2.3,Win32,144.4669171,,,,,,,,,,,,,,,,,,,,,,,,,,,,,,,,,,,,,,,,,,,,,,,,,,,,,,,,,
,,,,right,1,0.2848,2,1,33,13,1,7,200,right,748,2022-01-21_21h29.19.568,multiplicationStroop,2021.2.3,Win32,144.4669171,,,,,,,,,,,,,,,,,,,,,,,,,,,,,,,,,,,,,,,,,,,,,,,,,,,,,,,,,
,,,,right,1,0.3055,2,2,34,11,1,4,200,right,748,2022-01-21_21h29.19.568,multiplicationStroop,2021.2.3,Win32,144.4669171,,,,,,,,,,,,,,,,,,,,,,,,,,,,,,,,,,,,,,,,,,,,,,,,,,,,,,,,,
,,,,left,1,0.3125,2,3,35,5,1,7,-200,left,748,2022-01-21_21h29.19.568,multiplicationStroop,2021.2.3,Win32,144.4669171,,,,,,,,,,,,,,,,,,,,,,,,,,,,,,,,,,,,,,,,,,,,,,,,,,,,,,,,,
,,,,left,1,0.348,2,4,36,2,1,3,-200,left,748,2022-01-21_21h29.19.568,multiplicationStroop,2021.2.3,Win32,144.4669171,,,,,,,,,,,,,,,,,,,,,,,,,,,,,,,,,,,,,,,,,,,,,,,,,,,,,,,,,
,,,,left,1,0.3545,2,5,37,0,1,1,-200,left,748,2022-01-21_21h29.19.568,multiplicationStroop,2021.2.3,Win32,144.4669171,,,,,,,,,,,,,,,,,,,,,,,,,,,,,,,,,,,,,,,,,,,,,,,,,,,,,,,,,
,,,,right,1,0.354,2,6,38,15,1,9,200,right,748,2022-01-21_21h29.19.568,multiplicationStroop,2021.2.3,Win32,144.4669171,,,,,,,,,,,,,,,,,,,,,,,,,,,,,,,,,,,,,,,,,,,,,,,,,,,,,,,,,
,,,,right,1,0.3195,2,7,39,12,1,6,200,right,748,2022-01-21_21h29.19.568,multiplicationStroop,2021.2.3,Win32,144.4669171,,,,,,,,,,,,,,,,,,,,,,,,,,,,,,,,,,,,,,,,,,,,,,,,,,,,,,,,,
,,,,right,1,0.2713,2,8,40,8,1,1,200,right,748,2022-01-21_21h29.19.568,multiplicationStroop,2021.2.3,Win32,144.4669171,,,,,,,,,,,,,,,,,,,,,,,,,,,,,,,,,,,,,,,,,,,,,,,,,,,,,,,,,
,,,,right,1,0.2921,2,9,41,9,1,2,200,right,748,2022-01-21_21h29.19.568,multiplicationStroop,2021.2.3,Win32,144.4669171,,,,,,,,,,,,,,,,,,,,,,,,,,,,,,,,,,,,,,,,,,,,,,,,,,,,,,,,,
,,,,left,1,0.2923,2,10,42,4,1,6,-200,left,748,2022-01-21_21h29.19.568,multiplicationStroop,2021.2.3,Win32,144.4669171,,,,,,,,,,,,,,,,,,,,,,,,,,,,,,,,,,,,,,,,,,,,,,,,,,,,,,,,,
,,,,left,1,0.327,2,11,43,6,1,8,-200,left,748,2022-01-21_21h29.19.568,multiplicationStroop,2021.2.3,Win32,144.4669171,,,,,,,,,,,,,,,,,,,,,,,,,,,,,,,,,,,,,,,,,,,,,,,,,,,,,,,,,
,,,,right,1,0.3476,2,12,44,14,1,8,200,right,748,2022-01-21_21h29.19.568,multiplicationStroop,2021.2.3,Win32,144.4669171,,,,,,,,,,,,,,,,,,,,,,,,,,,,,,,,,,,,,,,,,,,,,,,,,,,,,,,,,
,,,,left,1,0.3481,2,13,45,1,1,2,-200,left,748,2022-01-21_21h29.19.568,multiplicationStroop,2021.2.3,Win32,144.4669171,,,,,,,,,,,,,,,,,,,,,,,,,,,,,,,,,,,,,,,,,,,,,,,,,,,,,,,,,
,,,,left,1,0.3751,2,14,46,3,1,4,-200,left,748,2022-01-21_21h29.19.568,multiplicationStroop,2021.2.3,Win32,144.4669171,,,,,,,,,,,,,,,,,,,,,,,,,,,,,,,,,,,,,,,,,,,,,,,,,,,,,,,,,
,,,,right,1,0.3055,2,15,47,10,1,3,200,right,748,2022-01-21_21h29.19.568,multiplicationStroop,2021.2.3,Win32,144.4669171,,,,,,,,,,,,,,,,,,,,,,,,,,,,,,,,,,,,,,,,,,,,,,,,,,,,,,,,,
,,,,left,1,0.3748,3,0,48,5,1,7,-200,left,748,2022-01-21_21h29.19.568,multiplicationStroop,2021.2.3,Win32,144.4669171,,,,,,,,,,,,,,,,,,,,,,,,,,,,,,,,,,,,,,,,,,,,,,,,,,,,,,,,,
,,,,left,1,0.3265,3,1,49,0,1,1,-200,left,748,2022-01-21_21h29.19.568,multiplicationStroop,2021.2.3,Win32,144.4669171,,,,,,,,,,,,,,,,,,,,,,,,,,,,,,,,,,,,,,,,,,,,,,,,,,,,,,,,,
,,,,left,1,0.3197,3,2,50,1,1,2,-200,left,748,2022-01-21_21h29.19.568,multiplicationStroop,2021.2.3,Win32,144.4669171,,,,,,,,,,,,,,,,,,,,,,,,,,,,,,,,,,,,,,,,,,,,,,,,,,,,,,,,,
,,,,left,1,0.2919,3,3,51,7,1,9,-200,left,748,2022-01-21_21h29.19.568,multiplicationStroop,2021.2.3,Win32,144.4669171,,,,,,,,,,,,,,,,,,,,,,,,,,,,,,,,,,,,,,,,,,,,,,,,,,,,,,,,,
,,,,right,1,0.3054,3,4,52,15,1,9,200,right,748,2022-01-21_21h29.19.568,multiplicationStroop,2021.2.3,Win32,144.4669171,,,,,,,,,,,,,,,,,,,,,,,,,,,,,,,,,,,,,,,,,,,,,,,,,,,,,,,,,
,,,,left,1,0.3335,3,5,53,4,1,6,-200,left,748,2022-01-21_21h29.19.568,multiplicationStroop,2021.2.3,Win32,144.4669171,,,,,,,,,,,,,,,,,,,,,,,,,,,,,,,,,,,,,,,,,,,,,,,,,,,,,,,,,
,,,,right,1,0.2574,3,6,54,8,1,1,200,right,748,2022-01-21_21h29.19.568,multiplicationStroop,2021.2.3,Win32,144.4669171,,,,,,,,,,,,,,,,,,,,,,,,,,,,,,,,,,,,,,,,,,,,,,,,,,,,,,,,,
,,,,right,1,0.3616,3,7,55,9,1,2,200,right,748,2022-01-21_21h29.19.568,multiplicationStroop,2021.2.3,Win32,144.4669171,,,,,,,,,,,,,,,,,,,,,,,,,,,,,,,,,,,,,,,,,,,,,,,,,,,,,,,,,
,,,,left,1,0.3063,3,8,56,2,1,3,-200,left,748,2022-01-21_21h29.19.568,multiplicationStroop,2021.2.3,Win32,144.4669171,,,,,,,,,,,,,,,,,,,,,,,,,,,,,,,,,,,,,,,,,,,,,,,,,,,,,,,,,
,,,,right,1,0.2157,3,9,57,14,1,8,200,right,748,2022-01-21_21h29.19.568,multiplicationStroop,2021.2.3,Win32,144.4669171,,,,,,,,,,,,,,,,,,,,,,,,,,,,,,,,,,,,,,,,,,,,,,,,,,,,,,,,,
,,,,right,1,0.3131,3,10,58,13,1,7,200,right,748,2022-01-21_21h29.19.568,multiplicationStroop,2021.2.3,Win32,144.4669171,,,,,,,,,,,,,,,,,,,,,,,,,,,,,,,,,,,,,,,,,,,,,,,,,,,,,,,,,
,,,,right,1,0.2646,3,11,59,12,1,6,200,right,748,2022-01-21_21h29.19.568,multiplicationStroop,2021.2.3,Win32,144.4669171,,,,,,,,,,,,,,,,,,,,,,,,,,,,,,,,,,,,,,,,,,,,,,,,,,,,,,,,,
,,,,left,1,0.2712,3,12,60,6,1,8,-200,left,748,2022-01-21_21h29.19.568,multiplicationStroop,2021.2.3,Win32,144.4669171,,,,,,,,,,,,,,,,,,,,,,,,,,,,,,,,,,,,,,,,,,,,,,,,,,,,,,,,,
,,,,right,1,0.2506,3,13,61,11,1,4,200,right,748,2022-01-21_21h29.19.568,multiplicationStroop,2021.2.3,Win32,144.4669171,,,,,,,,,,,,,,,,,,,,,,,,,,,,,,,,,,,,,,,,,,,,,,,,,,,,,,,,,
,,,,right,1,0.257,3,14,62,10,1,3,200,right,748,2022-01-21_21h29.19.568,multiplicationStroop,2021.2.3,Win32,144.4669171,,,,,,,,,,,,,,,,,,,,,,,,,,,,,,,,,,,,,,,,,,,,,,,,,,,,,,,,,
,,,,left,1,0.292,3,15,63,3,1,4,-200,left,748,2022-01-21_21h29.19.568,multiplicationStroop,2021.2.3,Win32,144.4669171,,,,,,,,,,,,,,,,,,,,,,,,,,,,,,,,,,,,,,,,,,,,,,,,,,,,,,,,,
,,,,,,,,,,,,,,,748,2022-01-21_21h29.19.568,multiplicationStroop,2021.2.3,Win32,144.4669171,space,14.8628,space,15.8641,left,1,6.5407,0,0,0,69,1,7,2,7 | 2,5,1.6933,1.6933,neutral,left,,,,,,stimulusFile/magnitude.xlsx,,,,,,,,,,,,,,,,,,,,,,,,,,,,,,,
,,,,,,,,,,,,,,,748,2022-01-21_21h29.19.568,multiplicationStroop,2021.2.3,Win32,144.4669171,,,,,left,1,1.222,0,1,1,21,1,7,2,7 | 2,5,1.9756,1.4111,congruent,left,,,,,,stimulusFile/magnitude.xlsx,,,,,,,,,,,,,,,,,,,,,,,,,,,,,,,
,,,,,,,,,,,,,,,748,2022-01-21_21h29.19.568,multiplicationStroop,2021.2.3,Win32,144.4669171,,,,,left,1,0.965,0,2,2,23,1,9,4,9 | 4,5,1.9756,1.4111,congruent,left,,,,,,stimulusFile/magnitude.xlsx,,,,,,,,,,,,,,,,,,,,,,,,,,,,,,,
,,,,,,,,,,,,,,,748,2022-01-21_21h29.19.568,multiplicationStroop,2021.2.3,Win32,144.4669171,,,,,left,1,0.8894,0,3,3,12,1,3,1,3 | 1,2,1.9756,1.4111,congruent,left,,,,,,stimulusFile/magnitude.xlsx,,,,,,,,,,,,,,,,,,,,,,,,,,,,,,,
,,,,,,,,,,,,,,,748,2022-01-21_21h29.19.568,multiplicationStroop,2021.2.3,Win32,144.4669171,,,,,right,1,7.6588,0,4,4,59,1,7,9,7 | 9,2,1.6933,1.6933,neutral,right,,,,,,stimulusFile/magnitude.xlsx,,,,,,,,,,,,,,,,,,,,,,,,,,,,,,,
,,,,,,,,,,,,,,,748,2022-01-21_21h29.19.568,multiplicationStroop,2021.2.3,Win32,144.4669171,,,,,right,0,2.8678,0,5,5,55,1,9,8,9 | 8,1,1.6933,1.6933,neutral,left,,,,,,stimulusFile/magnitude.xlsx,,,,,,,,,,,,,,,,,,,,,,,,,,,,,,,
,,,,,,,,,,,,,,,748,2022-01-21_21h29.19.568,multiplicationStroop,2021.2.3,Win32,144.4669171,,,,,right,1,0.5559,0,6,6,19,1,4,9,4 | 9,5,1.4111,1.9756,congruent,right,,,,,,stimulusFile/magnitude.xlsx,,,,,,,,,,,,,,,,,,,,,,,,,,,,,,,
,,,,,,,,,,,,,,,748,2022-01-21_21h29.19.568,multiplicationStroop,2021.2.3,Win32,144.4669171,,,,,left,1,0.5628,0,7,7,14,1,8,6,8 | 6,2,1.9756,1.4111,congruent,left,,,,,,stimulusFile/magnitude.xlsx,,,,,,,,,,,,,,,,,,,,,,,,,,,,,,,
,,,,,,,,,,,,,,,748,2022-01-21_21h29.19.568,multiplicationStroop,2021.2.3,Win32,144.4669171,,,,,left,0,3.9306,0,8,8,66,1,3,8,3 | 8,5,1.6933,1.6933,neutral,right,,,,,,stimulusFile/magnitude.xlsx,,,,,,,,,,,,,,,,,,,,,,,,,,,,,,,
,,,,,,,,,,,,,,,748,2022-01-21_21h29.19.568,multiplicationStroop,2021.2.3,Win32,144.4669171,,,,,right,0,0.6947,0,9,9,47,1,9,4,9 | 4,5,1.4111,1.9756,incongruent,left,,,,,,stimulusFile/magnitude.xlsx,,,,,,,,,,,,,,,,,,,,,,,,,,,,,,,
,,,,,,,,,,,,,,,748,2022-01-21_21h29.19.568,multiplicationStroop,2021.2.3,Win32,144.4669171,,,,,left,1,0.507,0,10,10,13,1,4,2,4 | 2,2,1.9756,1.4111,congruent,left,,,,,,stimulusFile/magnitude.xlsx,,,,,,,,,,,,,,,,,,,,,,,,,,,,,,,
,,,,,,,,,,,,,,,748,2022-01-21_21h29.19.568,multiplicationStroop,2021.2.3,Win32,144.4669171,,,,,right,1,0.487,0,11,11,9,1,2,4,2 | 4,2,1.4111,1.9756,congruent,right,,,,,,stimulusFile/magnitude.xlsx,,,,,,,,,,,,,,,,,,,,,,,,,,,,,,,
,,,,,,,,,,,,,,,748,2022-01-21_21h29.19.568,multiplicationStroop,2021.2.3,Win32,144.4669171,,,,,right,1,0.5556,0,12,12,65,1,2,7,2 | 7,5,1.6933,1.6933,neutral,right,,,,,,stimulusFile/magnitude.xlsx,,,,,,,,,,,,,,,,,,,,,,,,,,,,,,,
,,,,,,,,,,,,,,,748,2022-01-21_21h29.19.568,multiplicationStroop,2021.2.3,Win32,144.4669171,,,,,right,0,1.132,0,13,13,36,1,3,1,3 | 1,2,1.4111,1.9756,incongruent,left,,,,,,stimulusFile/magnitude.xlsx,,,,,,,,,,,,,,,,,,,,,,,,,,,,,,,
,,,,,,,,,,,,,,,748,2022-01-21_21h29.19.568,multiplicationStroop,2021.2.3,Win32,144.4669171,,,,,left,1,0.6045,0,14,14,53,1,4,3,4 | 3,1,1.6933,1.6933,neutral,left,,,,,,stimulusFile/magnitude.xlsx,,,,,,,,,,,,,,,,,,,,,,,,,,,,,,,
,,,,,,,,,,,,,,,748,2022-01-21_21h29.19.568,multiplicationStroop,2021.2.3,Win32,144.4669171,,,,,left,0,1.0557,0,15,15,58,1,6,8,6 | 8,2,1.6933,1.6933,neutral,right,,,,,,stimulusFile/magnitude.xlsx,,,,,,,,,,,,,,,,,,,,,,,,,,,,,,,
,,,,,,,,,,,,,,,748,2022-01-21_21h29.19.568,multiplicationStroop,2021.2.3,Win32,144.4669171,,,,,right,1,1.2428,0,16,16,67,1,4,9,4 | 9,5,1.6933,1.6933,neutral,right,,,,,,stimulusFile/magnitude.xlsx,,,,,,,,,,,,,,,,,,,,,,,,,,,,,,,
,,,,,,,,,,,,,,,748,2022-01-21_21h29.19.568,multiplicationStroop,2021.2.3,Win32,144.4669171,,,,,right,1,1.0551,0,17,17,0,1,1,2,1 | 2,1,1.4111,1.9756,congruent,right,,,,,,stimulusFile/magnitude.xlsx,,,,,,,,,,,,,,,,,,,,,,,,,,,,,,,
,,,,,,,,,,,,,,,748,2022-01-21_21h29.19.568,multiplicationStroop,2021.2.3,Win32,144.4669171,,,,,right,0,1.278,0,18,18,30,1,7,6,7 | 6,1,1.4111,1.9756,incongruent,left,,,,,,stimulusFile/magnitude.xlsx,,,,,,,,,,,,,,,,,,,,,,,,,,,,,,,
,,,,,,,,,,,,,,,748,2022-01-21_21h29.19.568,multiplicationStroop,2021.2.3,Win32,144.4669171,,,,,left,0,1.2853,0,19,19,27,1,8,9,8 | 9,1,1.9756,1.4111,incongruent,right,,,,,,stimulusFile/magnitude.xlsx,,,,,,,,,,,,,,,,,,,,,,,,,,,,,,,
,,,,,,,,,,,,,,,748,2022-01-21_21h29.19.568,multiplicationStroop,2021.2.3,Win32,144.4669171,,,,,left,1,0.632,0,20,20,20,1,6,1,6 | 1,5,1.9756,1.4111,congruent,left,,,,,,stimulusFile/magnitude.xlsx,,,,,,,,,,,,,,,,,,,,,,,,,,,,,,,
,,,,,,,,,,,,,,,748,2022-01-21_21h29.19.568,multiplicationStroop,2021.2.3,Win32,144.4669171,,,,,right,1,0.5353,0,21,21,8,1,1,3,1 | 3,2,1.4111,1.9756,congruent,right,,,,,,stimulusFile/magnitude.xlsx,,,,,,,,,,,,,,,,,,,,,,,,,,,,,,,
,,,,,,,,,,,,,,,748,2022-01-21_21h29.19.568,multiplicationStroop,2021.2.3,Win32,144.4669171,,,,,left,0,0.5491,0,22,22,26,1,6,7,6 | 7,1,1.9756,1.4111,incongruent,right,,,,,,stimulusFile/magnitude.xlsx,,,,,,,,,,,,,,,,,,,,,,,,,,,,,,,
,,,,,,,,,,,,,,,748,2022-01-21_21h29.19.568,multiplicationStroop,2021.2.3,Win32,144.4669171,,,,,right,0,0.5695,0,23,23,61,1,4,2,4 | 2,2,1.6933,1.6933,neutral,left,,,,,,stimulusFile/magnitude.xlsx,,,,,,,,,,,,,,,,,,,,,,,,,,,,,,,
,,,,,,,,,,,,,,,748,2022-01-21_21h29.19.568,multiplicationStroop,2021.2.3,Win32,144.4669171,,,,,right,0,0.7917,0,24,24,39,1,9,7,9 | 7,2,1.4111,1.9756,incongruent,left,,,,,,stimulusFile/magnitude.xlsx,,,,,,,,,,,,,,,,,,,,,,,,,,,,,,,
,,,,,,,,,,,,,,,748,2022-01-21_21h29.19.568,multiplicationStroop,2021.2.3,Win32,144.4669171,,,,,left,1,0.5212,0,25,25,71,1,9,4,9 | 4,5,1.6933,1.6933,neutral,left,,,,,,stimulusFile/magnitude.xlsx,,,,,,,,,,,,,,,,,,,,,,,,,,,,,,,
,,,,,,,,,,,,,,,748,2022-01-21_21h29.19.568,multiplicationStroop,2021.2.3,Win32,144.4669171,,,,,right,1,0.4718,0,26,26,10,1,6,8,6 | 8,2,1.4111,1.9756,congruent,right,,,,,,stimulusFile/magnitude.xlsx,,,,,,,,,,,,,,,,,,,,,,,,,,,,,,,
,,,,,,,,,,,,,,,748,2022-01-21_21h29.19.568,multiplicationStroop,2021.2.3,Win32,144.4669171,,,,,right,0,2.882,0,27,27,70,1,8,3,8 | 3,5,1.6933,1.6933,neutral,left,,,,,,stimulusFile/magnitude.xlsx,,,,,,,,,,,,,,,,,,,,,,,,,,,,,,,
,,,,,,,,,,,,,,,748,2022-01-21_21h29.19.568,multiplicationStroop,2021.2.3,Win32,144.4669171,,,,,right,1,0.6883,0,28,28,3,1,8,9,8 | 9,1,1.4111,1.9756,congruent,right,,,,,,stimulusFile/magnitude.xlsx,,,,,,,,,,,,,,,,,,,,,,,,,,,,,,,
,,,,,,,,,,,,,,,748,2022-01-21_21h29.19.568,multiplicationStroop,2021.2.3,Win32,144.4669171,,,,,left,1,0.6602,0,29,29,15,1,9,7,9 | 7,2,1.9756,1.4111,congruent,left,,,,,,stimulusFile/magnitude.xlsx,,,,,,,,,,,,,,,,,,,,,,,,,,,,,,,
,,,,,,,,,,,,,,,748,2022-01-21_21h29.19.568,multiplicationStroop,2021.2.3,Win32,144.4669171,,,,,right,0,1.0417,0,30,30,46,1,8,3,8 | 3,5,1.4111,1.9756,incongruent,left,,,,,,stimulusFile/magnitude.xlsx,,,,,,,,,,,,,,,,,,,,,,,,,,,,,,,
,,,,,,,,,,,,,,,748,2022-01-21_21h29.19.568,multiplicationStroop,2021.2.3,Win32,144.4669171,,,,,left,0,0.5349,0,31,31,43,1,4,9,4 | 9,5,1.9756,1.4111,incongruent,right,,,,,,stimulusFile/magnitude.xlsx,,,,,,,,,,,,,,,,,,,,,,,,,,,,,,,
,,,,,,,,,,,,,,,748,2022-01-21_21h29.19.568,multiplicationStroop,2021.2.3,Win32,144.4669171,,,,,left,0,0.6114,0,32,32,25,1,3,4,3 | 4,1,1.9756,1.4111,incongruent,right,,,,,,stimulusFile/magnitude.xlsx,,,,,,,,,,,,,,,,,,,,,,,,,,,,,,,
,,,,,,,,,,,,,,,748,2022-01-21_21h29.19.568,multiplicationStroop,2021.2.3,Win32,144.4669171,,,,,left,0,0.8194,0,33,33,35,1,7,9,7 | 9,2,1.9756,1.4111,incongruent,right,,,,,,stimulusFile/magnitude.xlsx,,,,,,,,,,,,,,,,,,,,,,,,,,,,,,,
,,,,,,,,,,,,,,,748,2022-01-21_21h29.19.568,multiplicationStroop,2021.2.3,Win32,144.4669171,,,,,left,0,1.354,0,34,34,48,1,1,2,1 | 2,1,1.6933,1.6933,neutral,right,,,,,,stimulusFile/magnitude.xlsx,,,,,,,,,,,,,,,,,,,,,,,,,,,,,,,
,,,,,,,,,,,,,,,748,2022-01-21_21h29.19.568,multiplicationStroop,2021.2.3,Win32,144.4669171,,,,,right,0,0.8541,0,35,35,44,1,6,1,6 | 1,5,1.4111,1.9756,incongruent,left,,,,,,stimulusFile/magnitude.xlsx,,,,,,,,,,,,,,,,,,,,,,,,,,,,,,,
,,,,,,,,,,,,,,,748,2022-01-21_21h29.19.568,multiplicationStroop,2021.2.3,Win32,144.4669171,,,,,left,0,0.5413,0,36,36,40,1,1,6,1 | 6,5,1.9756,1.4111,incongruent,right,,,,,,stimulusFile/magnitude.xlsx,,,,,,,,,,,,,,,,,,,,,,,,,,,,,,,
,,,,,,,,,,,,,,,748,2022-01-21_21h29.19.568,multiplicationStroop,2021.2.3,Win32,144.4669171,,,,,right,1,7.1173,0,37,37,49,1,3,4,3 | 4,1,1.6933,1.6933,neutral,right,,,,,,stimulusFile/magnitude.xlsx,,,,,,,,,,,,,,,,,,,,,,,,,,,,,,,
,,,,,,,,,,,,,,,748,2022-01-21_21h29.19.568,multiplicationStroop,2021.2.3,Win32,144.4669171,,,,,left,1,0.6182,0,38,38,7,1,9,8,9 | 8,1,1.9756,1.4111,congruent,left,,,,,,stimulusFile/magnitude.xlsx,,,,,,,,,,,,,,,,,,,,,,,,,,,,,,,
,,,,,,,,,,,,,,,748,2022-01-21_21h29.19.568,multiplicationStroop,2021.2.3,Win32,144.4669171,,,,,left,0,0.6809,0,39,39,24,1,1,2,1 | 2,1,1.9756,1.4111,incongruent,right,,,,,,stimulusFile/magnitude.xlsx,,,,,,,,,,,,,,,,,,,,,,,,,,,,,,,
,,,,,,,,,,,,,,,748,2022-01-21_21h29.19.568,multiplicationStroop,2021.2.3,Win32,144.4669171,,,,,right,0,0.5978,0,40,40,45,1,7,2,7 | 2,5,1.4111,1.9756,incongruent,left,,,,,,stimulusFile/magnitude.xlsx,,,,,,,,,,,,,,,,,,,,,,,,,,,,,,,
,,,,,,,,,,,,,,,748,2022-01-21_21h29.19.568,multiplicationStroop,2021.2.3,Win32,144.4669171,,,,,right,0,0.7576,0,41,41,31,1,9,8,9 | 8,1,1.4111,1.9756,incongruent,left,,,,,,stimulusFile/magnitude.xlsx,,,,,,,,,,,,,,,,,,,,,,,,,,,,,,,
,,,,,,,,,,,,,,,748,2022-01-21_21h29.19.568,multiplicationStroop,2021.2.3,Win32,144.4669171,,,,,right,0,0.5276,0,42,42,38,1,8,6,8 | 6,2,1.4111,1.9756,incongruent,left,,,,,,stimulusFile/magnitude.xlsx,,,,,,,,,,,,,,,,,,,,,,,,,,,,,,,
,,,,,,,,,,,,,,,748,2022-01-21_21h29.19.568,multiplicationStroop,2021.2.3,Win32,144.4669171,,,,,left,0,0.7429,0,43,43,56,1,1,3,1 | 3,2,1.6933,1.6933,neutral,right,,,,,,stimulusFile/magnitude.xlsx,,,,,,,,,,,,,,,,,,,,,,,,,,,,,,,
,,,,,,,,,,,,,,,748,2022-01-21_21h29.19.568,multiplicationStroop,2021.2.3,Win32,144.4669171,,,,,left,0,0.5838,0,44,44,34,1,6,8,6 | 8,2,1.9756,1.4111,incongruent,right,,,,,,stimulusFile/magnitude.xlsx,,,,,,,,,,,,,,,,,,,,,,,,,,,,,,,
,,,,,,,,,,,,,,,748,2022-01-21_21h29.19.568,multiplicationStroop,2021.2.3,Win32,144.4669171,,,,,right,1,0.8266,0,45,45,51,1,8,9,8 | 9,1,1.6933,1.6933,neutral,right,,,,,,stimulusFile/magnitude.xlsx,,,,,,,,,,,,,,,,,,,,,,,,,,,,,,,
,,,,,,,,,,,,,,,748,2022-01-21_21h29.19.568,multiplicationStroop,2021.2.3,Win32,144.4669171,,,,,left,1,1.4513,0,46,46,68,1,6,1,6 | 1,5,1.6933,1.6933,neutral,left,,,,,,stimulusFile/magnitude.xlsx,,,,,,,,,,,,,,,,,,,,,,,,,,,,,,,
,,,,,,,,,,,,,,,748,2022-01-21_21h29.19.568,multiplicationStroop,2021.2.3,Win32,144.4669171,,,,,left,1,0.4656,0,47,47,5,1,4,3,4 | 3,1,1.9756,1.4111,congruent,left,,,,,,stimulusFile/magnitude.xlsx,,,,,,,,,,,,,,,,,,,,,,,,,,,,,,,
,,,,,,,,,,,,,,,748,2022-01-21_21h29.19.568,multiplicationStroop,2021.2.3,Win32,144.4669171,,,,,left,0,1.7221,0,48,48,57,1,2,4,2 | 4,2,1.6933,1.6933,neutral,right,,,,,,stimulusFile/magnitude.xlsx,,,,,,,,,,,,,,,,,,,,,,,,,,,,,,,
,,,,,,,,,,,,,,,748,2022-01-21_21h29.19.568,multiplicationStroop,2021.2.3,Win32,144.4669171,,,,,right,0,0.6601,0,49,49,60,1,3,1,3 | 1,2,1.6933,1.6933,neutral,left,,,,,,stimulusFile/magnitude.xlsx,,,,,,,,,,,,,,,,,,,,,,,,,,,,,,,
,,,,,,,,,,,,,,,748,2022-01-21_21h29.19.568,multiplicationStroop,2021.2.3,Win32,144.4669171,,,,,right,0,2.2641,0,50,50,54,1,7,6,7 | 6,1,1.6933,1.6933,neutral,left,,,,,,stimulusFile/magnitude.xlsx,,,,,,,,,,,,,,,,,,,,,,,,,,,,,,,
,,,,,,,,,,,,,,,748,2022-01-21_21h29.19.568,multiplicationStroop,2021.2.3,Win32,144.4669171,,,,,left,0,0.5698,0,51,51,33,1,2,4,2 | 4,2,1.9756,1.4111,incongruent,right,,,,,,stimulusFile/magnitude.xlsx,,,,,,,,,,,,,,,,,,,,,,,,,,,,,,,
,,,,,,,,,,,,,,,748,2022-01-21_21h29.19.568,multiplicationStroop,2021.2.3,Win32,144.4669171,,,,,right,0,1.4588,0,52,52,29,1,4,3,4 | 3,1,1.4111,1.9756,incongruent,left,,,,,,stimulusFile/magnitude.xlsx,,,,,,,,,,,,,,,,,,,,,,,,,,,,,,,
,,,,,,,,,,,,,,,748,2022-01-21_21h29.19.568,multiplicationStroop,2021.2.3,Win32,144.4669171,,,,,right,1,0.5692,0,53,53,1,1,3,4,3 | 4,1,1.4111,1.9756,congruent,right,,,,,,stimulusFile/magnitude.xlsx,,,,,,,,,,,,,,,,,,,,,,,,,,,,,,,
,,,,,,,,,,,,,,,748,2022-01-21_21h29.19.568,multiplicationStroop,2021.2.3,Win32,144.4669171,,,,,left,1,9.3177,0,54,54,52,1,2,1,2 | 1,1,1.6933,1.6933,neutral,left,,,,,,stimulusFile/magnitude.xlsx,,,,,,,,,,,,,,,,,,,,,,,,,,,,,,,
,,,,,,,,,,,,,,,748,2022-01-21_21h29.19.568,multiplicationStroop,2021.2.3,Win32,144.4669171,,,,,right,1,0.6534,0,55,55,2,1,6,7,6 | 7,1,1.4111,1.9756,congruent,right,,,,,,stimulusFile/magnitude.xlsx,,,,,,,,,,,,,,,,,,,,,,,,,,,,,,,
,,,,,,,,,,,,,,,748,2022-01-21_21h29.19.568,multiplicationStroop,2021.2.3,Win32,144.4669171,,,,,left,1,0.5346,0,56,56,4,1,2,1,2 | 1,1,1.9756,1.4111,congruent,left,,,,,,stimulusFile/magnitude.xlsx,,,,,,,,,,,,,,,,,,,,,,,,,,,,,,,
,,,,,,,,,,,,,,,748,2022-01-21_21h29.19.568,multiplicationStroop,2021.2.3,Win32,144.4669171,,,,,left,1,3.3262,0,57,57,63,1,9,7,9 | 7,2,1.6933,1.6933,neutral,left,,,,,,stimulusFile/magnitude.xlsx,,,,,,,,,,,,,,,,,,,,,,,,,,,,,,,
,,,,,,,,,,,,,,,748,2022-01-21_21h29.19.568,multiplicationStroop,2021.2.3,Win32,144.4669171,,,,,right,1,0.5,0,58,58,16,1,1,6,1 | 6,5,1.4111,1.9756,congruent,right,,,,,,stimulusFile/magnitude.xlsx,,,,,,,,,,,,,,,,,,,,,,,,,,,,,,,
,,,,,,,,,,,,,,,748,2022-01-21_21h29.19.568,multiplicationStroop,2021.2.3,Win32,144.4669171,,,,,left,0,0.8056,0,59,59,42,1,3,8,3 | 8,5,1.9756,1.4111,incongruent,right,,,,,,stimulusFile/magnitude.xlsx,,,,,,,,,,,,,,,,,,,,,,,,,,,,,,,
,,,,,,,,,,,,,,,748,2022-01-21_21h29.19.568,multiplicationStroop,2021.2.3,Win32,144.4669171,,,,,left,0,0.5559,0,60,60,32,1,1,3,1 | 3,2,1.9756,1.4111,incongruent,right,,,,,,stimulusFile/magnitude.xlsx,,,,,,,,,,,,,,,,,,,,,,,,,,,,,,,
,,,,,,,,,,,,,,,748,2022-01-21_21h29.19.568,multiplicationStroop,2021.2.3,Win32,144.4669171,,,,,right,0,0.6107,0,61,61,62,1,8,6,8 | 6,2,1.6933,1.6933,neutral,left,,,,,,stimulusFile/magnitude.xlsx,,,,,,,,,,,,,,,,,,,,,,,,,,,,,,,
,,,,,,,,,,,,,,,748,2022-01-21_21h29.19.568,multiplicationStroop,2021.2.3,Win32,144.4669171,,,,,left,1,0.5213,0,62,62,6,1,7,6,7 | 6,1,1.9756,1.4111,congruent,left,,,,,,stimulusFile/magnitude.xlsx,,,,,,,,,,,,,,,,,,,,,,,,,,,,,,,
,,,,,,,,,,,,,,,748,2022-01-21_21h29.19.568,multiplicationStroop,2021.2.3,Win32,144.4669171,,,,,right,0,0.5002,0,63,63,37,1,4,2,4 | 2,2,1.4111,1.9756,incongruent,left,,,,,,stimulusFile/magnitude.xlsx,,,,,,,,,,,,,,,,,,,,,,,,,,,,,,,
,,,,,,,,,,,,,,,748,2022-01-21_21h29.19.568,multiplicationStroop,2021.2.3,Win32,144.4669171,,,,,right,1,0.6464,0,64,64,50,1,6,7,6 | 7,1,1.6933,1.6933,neutral,right,,,,,,stimulusFile/magnitude.xlsx,,,,,,,,,,,,,,,,,,,,,,,,,,,,,,,
,,,,,,,,,,,,,,,748,2022-01-21_21h29.19.568,multiplicationStroop,2021.2.3,Win32,144.4669171,,,,,right,1,1.3127,0,65,65,64,1,1,6,1 | 6,5,1.6933,1.6933,neutral,right,,,,,,stimulusFile/magnitude.xlsx,,,,,,,,,,,,,,,,,,,,,,,,,,,,,,,
,,,,,,,,,,,,,,,748,2022-01-21_21h29.19.568,multiplicationStroop,2021.2.3,Win32,144.4669171,,,,,right,0,0.7986,0,66,66,28,1,2,1,2 | 1,1,1.4111,1.9756,incongruent,left,,,,,,stimulusFile/magnitude.xlsx,,,,,,,,,,,,,,,,,,,,,,,,,,,,,,,
,,,,,,,,,,,,,,,748,2022-01-21_21h29.19.568,multiplicationStroop,2021.2.3,Win32,144.4669171,,,,,left,0,0.6183,0,67,67,41,1,2,7,2 | 7,5,1.9756,1.4111,incongruent,right,,,,,,stimulusFile/magnitude.xlsx,,,,,,,,,,,,,,,,,,,,,,,,,,,,,,,
,,,,,,,,,,,,,,,748,2022-01-21_21h29.19.568,multiplicationStroop,2021.2.3,Win32,144.4669171,,,,,right,1,0.5039,0,68,68,17,1,2,7,2 | 7,5,1.4111,1.9756,congruent,right,,,,,,stimulusFile/magnitude.xlsx,,,,,,,,,,,,,,,,,,,,,,,,,,,,,,,
,,,,,,,,,,,,,,,748,2022-01-21_21h29.19.568,multiplicationStroop,2021.2.3,Win32,144.4669171,,,,,left,1,0.5282,0,69,69,22,1,8,3,8 | 3,5,1.9756,1.4111,congruent,left,,,,,,stimulusFile/magnitude.xlsx,,,,,,,,,,,,,,,,,,,,,,,,,,,,,,,
,,,,,,,,,,,,,,,748,2022-01-21_21h29.19.568,multiplicationStroop,2021.2.3,Win32,144.4669171,,,,,right,1,0.5349,0,70,70,11,1,7,9,7 | 9,2,1.4111,1.9756,congruent,right,,,,,,stimulusFile/magnitude.xlsx,,,,,,,,,,,,,,,,,,,,,,,,,,,,,,,
,,,,,,,,,,,,,,,748,2022-01-21_21h29.19.568,multiplicationStroop,2021.2.3,Win32,144.4669171,,,,,right,1,0.7294,0,71,71,18,1,3,8,3 | 8,5,1.4111,1.9756,congruent,right,,,,,,stimulusFile/magnitude.xlsx,,,,,,,,,,,,,,,,,,,,,,,,,,,,,,,
,,,,,,,,,,,,,,,748,2022-01-21_21h29.19.568,multiplicationStroop,2021.2.3,Win32,144.4669171,,,,,,,,,,,,,,,,,,,,,0,0,0,0,1,stimulusFile/magnitude.xlsx,NUMERICALLY larger (larger coefficient).,images/numericallyLarger.png,,,,,,,,,,,,,,,,,,,,,,,,,,,,,
,,,,,,,,,,,,,,,748,2022-01-21_21h29.19.568,multiplicationStroop,2021.2.3,Win32,144.4669171,space,11.2273,space,8.028,right,1,1.0072,0,0,0,67,1,4,4,4 | 4,0,1.4111,1.9756,neutral,right,,,,,,stimulusFile/physical.xlsx,,,,,,,,,,,,,,,,,,,,,,,,,,,,,,,
,,,,,,,,,,,,,,,748,2022-01-21_21h29.19.568,multiplicationStroop,2021.2.3,Win32,144.4669171,,,,,left,1,1.7016,0,1,1,24,1,1,2,1 | 2,1,1.9756,1.4111,incongruent,left,,,,,,stimulusFile/physical.xlsx,,,,,,,,,,,,,,,,,,,,,,,,,,,,,,,
,,,,,,,,,,,,,,,748,2022-01-21_21h29.19.568,multiplicationStroop,2021.2.3,Win32,144.4669171,,,,,right,1,0.8619,0,2,2,1,1,3,4,3 | 4,1,1.4111,1.9756,congruent,right,,,,,,stimulusFile/physical.xlsx,,,,,,,,,,,,,,,,,,,,,,,,,,,,,,,
,,,,,,,,,,,,,,,748,2022-01-21_21h29.19.568,multiplicationStroop,2021.2.3,Win32,144.4669171,,,,,left,1,2.0488,0,3,3,6,1,7,6,7 | 6,1,1.9756,1.4111,congruent,left,,,,,,stimulusFile/physical.xlsx,,,,,,,,,,,,,,,,,,,,,,,,,,,,,,,
,,,,,,,,,,,,,,,748,2022-01-21_21h29.19.568,multiplicationStroop,2021.2.3,Win32,144.4669171,,,,,left,1,0.9587,0,4,4,41,1,2,7,2 | 7,5,1.9756,1.4111,incongruent,left,,,,,,stimulusFile/physical.xlsx,,,,,,,,,,,,,,,,,,,,,,,,,,,,,,,
,,,,,,,,,,,,,,,748,2022-01-21_21h29.19.568,multiplicationStroop,2021.2.3,Win32,144.4669171,,,,,left,1,0.5834,0,5,5,15,1,9,7,9 | 7,2,1.9756,1.4111,congruent,left,,,,,,stimulusFile/physical.xlsx,,,,,,,,,,,,,,,,,,,,,,,,,,,,,,,
,,,,,,,,,,,,,,,748,2022-01-21_21h29.19.568,multiplicationStroop,2021.2.3,Win32,144.4669171,,,,,left,0,0.7851,0,6,6,66,1,3,3,3 | 3,0,1.9756,1.4111,neutral,right,,,,,,stimulusFile/physical.xlsx,,,,,,,,,,,,,,,,,,,,,,,,,,,,,,,
,,,,,,,,,,,,,,,748,2022-01-21_21h29.19.568,multiplicationStroop,2021.2.3,Win32,144.4669171,,,,,left,1,0.882,0,7,7,32,1,1,3,1 | 3,2,1.9756,1.4111,incongruent,left,,,,,,stimulusFile/physical.xlsx,,,,,,,,,,,,,,,,,,,,,,,,,,,,,,,
,,,,,,,,,,,,,,,748,2022-01-21_21h29.19.568,multiplicationStroop,2021.2.3,Win32,144.4669171,,,,,right,1,0.4653,0,8,8,28,1,2,1,2 | 1,1,1.4111,1.9756,incongruent,right,,,,,,stimulusFile/physical.xlsx,,,,,,,,,,,,,,,,,,,,,,,,,,,,,,,
,,,,,,,,,,,,,,,748,2022-01-21_21h29.19.568,multiplicationStroop,2021.2.3,Win32,144.4669171,,,,,left,1,0.5071,0,9,9,43,1,4,9,4 | 9,5,1.9756,1.4111,incongruent,left,,,,,,stimulusFile/physical.xlsx,,,,,,,,,,,,,,,,,,,,,,,,,,,,,,,
,,,,,,,,,,,,,,,748,2022-01-21_21h29.19.568,multiplicationStroop,2021.2.3,Win32,144.4669171,,,,,right,1,0.5209,0,10,10,17,1,2,7,2 | 7,5,1.4111,1.9756,congruent,right,,,,,,stimulusFile/physical.xlsx,,,,,,,,,,,,,,,,,,,,,,,,,,,,,,,
,,,,,,,,,,,,,,,748,2022-01-21_21h29.19.568,multiplicationStroop,2021.2.3,Win32,144.4669171,,,,,left,1,0.4586,0,11,11,12,1,3,1,3 | 1,2,1.9756,1.4111,congruent,left,,,,,,stimulusFile/physical.xlsx,,,,,,,,,,,,,,,,,,,,,,,,,,,,,,,
,,,,,,,,,,,,,,,748,2022-01-21_21h29.19.568,multiplicationStroop,2021.2.3,Win32,144.4669171,,,,,left,1,0.514,0,12,12,4,1,2,1,2 | 1,1,1.9756,1.4111,congruent,left,,,,,,stimulusFile/physical.xlsx,,,,,,,,,,,,,,,,,,,,,,,,,,,,,,,
,,,,,,,,,,,,,,,748,2022-01-21_21h29.19.568,multiplicationStroop,2021.2.3,Win32,144.4669171,,,,,right,1,0.4163,0,13,13,37,1,4,2,4 | 2,2,1.4111,1.9756,incongruent,right,,,,,,stimulusFile/physical.xlsx,,,,,,,,,,,,,,,,,,,,,,,,,,,,,,,
,,,,,,,,,,,,,,,748,2022-01-21_21h29.19.568,multiplicationStroop,2021.2.3,Win32,144.4669171,,,,,right,1,0.7573,0,14,14,10,1,6,8,6 | 8,2,1.4111,1.9756,congruent,right,,,,,,stimulusFile/physical.xlsx,,,,,,,,,,,,,,,,,,,,,,,,,,,,,,,
,,,,,,,,,,,,,,,748,2022-01-21_21h29.19.568,multiplicationStroop,2021.2.3,Win32,144.4669171,,,,,left,1,0.5213,0,15,15,48,1,1,1,1 | 1,0,1.9756,1.4111,neutral,left,,,,,,stimulusFile/physical.xlsx,,,,,,,,,,,,,,,,,,,,,,,,,,,,,,,
,,,,,,,,,,,,,,,748,2022-01-21_21h29.19.568,multiplicationStroop,2021.2.3,Win32,144.4669171,,,,,right,1,0.5142,0,16,16,61,1,4,4,4 | 4,0,1.4111,1.9756,neutral,right,,,,,,stimulusFile/physical.xlsx,,,,,,,,,,,,,,,,,,,,,,,,,,,,,,,
,,,,,,,,,,,,,,,748,2022-01-21_21h29.19.568,multiplicationStroop,2021.2.3,Win32,144.4669171,,,,,left,1,0.4586,0,17,17,49,1,3,3,3 | 3,0,1.9756,1.4111,neutral,left,,,,,,stimulusFile/physical.xlsx,,,,,,,,,,,,,,,,,,,,,,,,,,,,,,,
,,,,,,,,,,,,,,,748,2022-01-21_21h29.19.568,multiplicationStroop,2021.2.3,Win32,144.4669171,,,,,right,1,0.4798,0,18,18,18,1,3,8,3 | 8,5,1.4111,1.9756,congruent,right,,,,,,stimulusFile/physical.xlsx,,,,,,,,,,,,,,,,,,,,,,,,,,,,,,,
,,,,,,,,,,,,,,,748,2022-01-21_21h29.19.568,multiplicationStroop,2021.2.3,Win32,144.4669171,,,,,left,1,0.507,0,19,19,35,1,7,9,7 | 9,2,1.9756,1.4111,incongruent,left,,,,,,stimulusFile/physical.xlsx,,,,,,,,,,,,,,,,,,,,,,,,,,,,,,,
,,,,,,,,,,,,,,,748,2022-01-21_21h29.19.568,multiplicationStroop,2021.2.3,Win32,144.4669171,,,,,right,1,0.5975,0,20,20,29,1,4,3,4 | 3,1,1.4111,1.9756,incongruent,right,,,,,,stimulusFile/physical.xlsx,,,,,,,,,,,,,,,,,,,,,,,,,,,,,,,
,,,,,,,,,,,,,,,748,2022-01-21_21h29.19.568,multiplicationStroop,2021.2.3,Win32,144.4669171,,,,,left,1,0.4795,0,21,21,5,1,4,3,4 | 3,1,1.9756,1.4111,congruent,left,,,,,,stimulusFile/physical.xlsx,,,,,,,,,,,,,,,,,,,,,,,,,,,,,,,
,,,,,,,,,,,,,,,748,2022-01-21_21h29.19.568,multiplicationStroop,2021.2.3,Win32,144.4669171,,,,,right,1,0.4862,0,22,22,19,1,4,9,4 | 9,5,1.4111,1.9756,congruent,right,,,,,,stimulusFile/physical.xlsx,,,,,,,,,,,,,,,,,,,,,,,,,,,,,,,
,,,,,,,,,,,,,,,748,2022-01-21_21h29.19.568,multiplicationStroop,2021.2.3,Win32,144.4669171,,,,,right,1,0.6111,0,23,23,11,1,7,9,7 | 9,2,1.4111,1.9756,congruent,right,,,,,,stimulusFile/physical.xlsx,,,,,,,,,,,,,,,,,,,,,,,,,,,,,,,
,,,,,,,,,,,,,,,748,2022-01-21_21h29.19.568,multiplicationStroop,2021.2.3,Win32,144.4669171,,,,,right,1,0.5695,0,24,24,36,1,3,1,3 | 1,2,1.4111,1.9756,incongruent,right,,,,,,stimulusFile/physical.xlsx,,,,,,,,,,,,,,,,,,,,,,,,,,,,,,,
,,,,,,,,,,,,,,,748,2022-01-21_21h29.19.568,multiplicationStroop,2021.2.3,Win32,144.4669171,,,,,left,1,0.5003,0,25,25,51,1,8,8,8 | 8,0,1.9756,1.4111,neutral,left,,,,,,stimulusFile/physical.xlsx,,,,,,,,,,,,,,,,,,,,,,,,,,,,,,,
,,,,,,,,,,,,,,,748,2022-01-21_21h29.19.568,multiplicationStroop,2021.2.3,Win32,144.4669171,,,,,right,1,0.5836,0,26,26,8,1,1,3,1 | 3,2,1.4111,1.9756,congruent,right,,,,,,stimulusFile/physical.xlsx,,,,,,,,,,,,,,,,,,,,,,,,,,,,,,,
,,,,,,,,,,,,,,,748,2022-01-21_21h29.19.568,multiplicationStroop,2021.2.3,Win32,144.4669171,,,,,left,1,0.4996,0,27,27,14,1,8,6,8 | 6,2,1.9756,1.4111,congruent,left,,,,,,stimulusFile/physical.xlsx,,,,,,,,,,,,,,,,,,,,,,,,,,,,,,,
,,,,,,,,,,,,,,,748,2022-01-21_21h29.19.568,multiplicationStroop,2021.2.3,Win32,144.4669171,,,,,left,1,0.515,0,28,28,42,1,3,8,3 | 8,5,1.9756,1.4111,incongruent,left,,,,,,stimulusFile/physical.xlsx,,,,,,,,,,,,,,,,,,,,,,,,,,,,,,,
,,,,,,,,,,,,,,,748,2022-01-21_21h29.19.568,multiplicationStroop,2021.2.3,Win32,144.4669171,,,,,left,1,0.7295,0,29,29,68,1,6,6,6 | 6,0,1.9756,1.4111,neutral,left,,,,,,stimulusFile/physical.xlsx,,,,,,,,,,,,,,,,,,,,,,,,,,,,,,,
,,,,,,,,,,,,,,,748,2022-01-21_21h29.19.568,multiplicationStroop,2021.2.3,Win32,144.4669171,,,,,left,1,0.4864,0,30,30,7,1,9,8,9 | 8,1,1.9756,1.4111,congruent,left,,,,,,stimulusFile/physical.xlsx,,,,,,,,,,,,,,,,,,,,,,,,,,,,,,,
,,,,,,,,,,,,,,,748,2022-01-21_21h29.19.568,multiplicationStroop,2021.2.3,Win32,144.4669171,,,,,right,1,0.5279,0,31,31,31,1,9,8,9 | 8,1,1.4111,1.9756,incongruent,right,,,,,,stimulusFile/physical.xlsx,,,,,,,,,,,,,,,,,,,,,,,,,,,,,,,
,,,,,,,,,,,,,,,748,2022-01-21_21h29.19.568,multiplicationStroop,2021.2.3,Win32,144.4669171,,,,,right,1,0.6809,0,32,32,39,1,9,7,9 | 7,2,1.4111,1.9756,incongruent,right,,,,,,stimulusFile/physical.xlsx,,,,,,,,,,,,,,,,,,,,,,,,,,,,,,,
,,,,,,,,,,,,,,,748,2022-01-21_21h29.19.568,multiplicationStroop,2021.2.3,Win32,144.4669171,,,,,right,0,0.7029,0,33,33,69,1,7,7,7 | 7,0,1.4111,1.9756,neutral,left,,,,,,stimulusFile/physical.xlsx,,,,,,,,,,,,,,,,,,,,,,,,,,,,,,,
,,,,,,,,,,,,,,,748,2022-01-21_21h29.19.568,multiplicationStroop,2021.2.3,Win32,144.4669171,,,,,right,1,0.5078,0,34,34,16,1,1,6,1 | 6,5,1.4111,1.9756,congruent,right,,,,,,stimulusFile/physical.xlsx,,,,,,,,,,,,,,,,,,,,,,,,,,,,,,,
,,,,,,,,,,,,,,,748,2022-01-21_21h29.19.568,multiplicationStroop,2021.2.3,Win32,144.4669171,,,,,right,1,0.7984,0,35,35,45,1,7,2,7 | 2,5,1.4111,1.9756,incongruent,right,,,,,,stimulusFile/physical.xlsx,,,,,,,,,,,,,,,,,,,,,,,,,,,,,,,
,,,,,,,,,,,,,,,748,2022-01-21_21h29.19.568,multiplicationStroop,2021.2.3,Win32,144.4669171,,,,,right,1,0.5415,0,36,36,60,1,3,3,3 | 3,0,1.4111,1.9756,neutral,right,,,,,,stimulusFile/physical.xlsx,,,,,,,,,,,,,,,,,,,,,,,,,,,,,,,
,,,,,,,,,,,,,,,748,2022-01-21_21h29.19.568,multiplicationStroop,2021.2.3,Win32,144.4669171,,,,,right,1,1.0981,0,37,37,46,1,8,3,8 | 3,5,1.4111,1.9756,incongruent,right,,,,,,stimulusFile/physical.xlsx,,,,,,,,,,,,,,,,,,,,,,,,,,,,,,,
,,,,,,,,,,,,,,,748,2022-01-21_21h29.19.568,multiplicationStroop,2021.2.3,Win32,144.4669171,,,,,left,0,0.6389,0,38,38,64,1,1,1,1 | 1,0,1.9756,1.4111,neutral,right,,,,,,stimulusFile/physical.xlsx,,,,,,,,,,,,,,,,,,,,,,,,,,,,,,,
,,,,,,,,,,,,,,,748,2022-01-21_21h29.19.568,multiplicationStroop,2021.2.3,Win32,144.4669171,,,,,left,1,0.5837,0,39,39,26,1,6,7,6 | 7,1,1.9756,1.4111,incongruent,left,,,,,,stimulusFile/physical.xlsx,,,,,,,,,,,,,,,,,,,,,,,,,,,,,,,
,,,,,,,,,,,,,,,748,2022-01-21_21h29.19.568,multiplicationStroop,2021.2.3,Win32,144.4669171,,,,,right,1,0.4465,0,40,40,59,1,7,7,7 | 7,0,1.4111,1.9756,neutral,right,,,,,,stimulusFile/physical.xlsx,,,,,,,,,,,,,,,,,,,,,,,,,,,,,,,
,,,,,,,,,,,,,,,748,2022-01-21_21h29.19.568,multiplicationStroop,2021.2.3,Win32,144.4669171,,,,,right,1,0.6176,0,41,41,44,1,6,1,6 | 1,5,1.4111,1.9756,incongruent,right,,,,,,stimulusFile/physical.xlsx,,,,,,,,,,,,,,,,,,,,,,,,,,,,,,,
,,,,,,,,,,,,,,,748,2022-01-21_21h29.19.568,multiplicationStroop,2021.2.3,Win32,144.4669171,,,,,right,1,0.5212,0,42,42,58,1,6,6,6 | 6,0,1.4111,1.9756,neutral,right,,,,,,stimulusFile/physical.xlsx,,,,,,,,,,,,,,,,,,,,,,,,,,,,,,,
,,,,,,,,,,,,,,,748,2022-01-21_21h29.19.568,multiplicationStroop,2021.2.3,Win32,144.4669171,,,,,left,1,0.5141,0,43,43,25,1,3,4,3 | 4,1,1.9756,1.4111,incongruent,left,,,,,,stimulusFile/physical.xlsx,,,,,,,,,,,,,,,,,,,,,,,,,,,,,,,
,,,,,,,,,,,,,,,748,2022-01-21_21h29.19.568,multiplicationStroop,2021.2.3,Win32,144.4669171,,,,,left,1,0.4029,0,44,44,13,1,4,2,4 | 2,2,1.9756,1.4111,congruent,left,,,,,,stimulusFile/physical.xlsx,,,,,,,,,,,,,,,,,,,,,,,,,,,,,,,
,,,,,,,,,,,,,,,748,2022-01-21_21h29.19.568,multiplicationStroop,2021.2.3,Win32,144.4669171,,,,,left,1,0.4798,0,45,45,70,1,8,8,8 | 8,0,1.9756,1.4111,neutral,left,,,,,,stimulusFile/physical.xlsx,,,,,,,,,,,,,,,,,,,,,,,,,,,,,,,
,,,,,,,,,,,,,,,748,2022-01-21_21h29.19.568,multiplicationStroop,2021.2.3,Win32,144.4669171,,,,,right,1,0.4239,0,46,46,38,1,8,6,8 | 6,2,1.4111,1.9756,incongruent,right,,,,,,stimulusFile/physical.xlsx,,,,,,,,,,,,,,,,,,,,,,,,,,,,,,,
,,,,,,,,,,,,,,,748,2022-01-21_21h29.19.568,multiplicationStroop,2021.2.3,Win32,144.4669171,,,,,left,1,0.4387,0,47,47,23,1,9,4,9 | 4,5,1.9756,1.4111,congruent,left,,,,,,stimulusFile/physical.xlsx,,,,,,,,,,,,,,,,,,,,,,,,,,,,,,,
,,,,,,,,,,,,,,,748,2022-01-21_21h29.19.568,multiplicationStroop,2021.2.3,Win32,144.4669171,,,,,right,1,0.3889,0,48,48,3,1,8,9,8 | 9,1,1.4111,1.9756,congruent,right,,,,,,stimulusFile/physical.xlsx,,,,,,,,,,,,,,,,,,,,,,,,,,,,,,,
,,,,,,,,,,,,,,,748,2022-01-21_21h29.19.568,multiplicationStroop,2021.2.3,Win32,144.4669171,,,,,right,1,0.5419,0,49,49,0,1,1,2,1 | 2,1,1.4111,1.9756,congruent,right,,,,,,stimulusFile/physical.xlsx,,,,,,,,,,,,,,,,,,,,,,,,,,,,,,,
,,,,,,,,,,,,,,,748,2022-01-21_21h29.19.568,multiplicationStroop,2021.2.3,Win32,144.4669171,,,,,right,1,0.5626,0,50,50,56,1,1,1,1 | 1,0,1.4111,1.9756,neutral,right,,,,,,stimulusFile/physical.xlsx,,,,,,,,,,,,,,,,,,,,,,,,,,,,,,,
,,,,,,,,,,,,,,,748,2022-01-21_21h29.19.568,multiplicationStroop,2021.2.3,Win32,144.4669171,,,,,right,1,0.5484,0,51,51,57,1,2,2,2 | 2,0,1.4111,1.9756,neutral,right,,,,,,stimulusFile/physical.xlsx,,,,,,,,,,,,,,,,,,,,,,,,,,,,,,,
,,,,,,,,,,,,,,,748,2022-01-21_21h29.19.568,multiplicationStroop,2021.2.3,Win32,144.4669171,,,,,right,1,0.5694,0,52,52,30,1,7,6,7 | 6,1,1.4111,1.9756,incongruent,right,,,,,,stimulusFile/physical.xlsx,,,,,,,,,,,,,,,,,,,,,,,,,,,,,,,
,,,,,,,,,,,,,,,748,2022-01-21_21h29.19.568,multiplicationStroop,2021.2.3,Win32,144.4669171,,,,,right,1,0.7705,0,53,53,2,1,6,7,6 | 7,1,1.4111,1.9756,congruent,right,,,,,,stimulusFile/physical.xlsx,,,,,,,,,,,,,,,,,,,,,,,,,,,,,,,
,,,,,,,,,,,,,,,748,2022-01-21_21h29.19.568,multiplicationStroop,2021.2.3,Win32,144.4669171,,,,,left,1,0.4864,0,54,54,22,1,8,3,8 | 3,5,1.9756,1.4111,congruent,left,,,,,,stimulusFile/physical.xlsx,,,,,,,,,,,,,,,,,,,,,,,,,,,,,,,
,,,,,,,,,,,,,,,748,2022-01-21_21h29.19.568,multiplicationStroop,2021.2.3,Win32,144.4669171,,,,,left,1,0.5348,0,55,55,33,1,2,4,2 | 4,2,1.9756,1.4111,incongruent,left,,,,,,stimulusFile/physical.xlsx,,,,,,,,,,,,,,,,,,,,,,,,,,,,,,,
,,,,,,,,,,,,,,,748,2022-01-21_21h29.19.568,multiplicationStroop,2021.2.3,Win32,144.4669171,,,,,right,1,0.4865,0,56,56,62,1,8,8,8 | 8,0,1.4111,1.9756,neutral,right,,,,,,stimulusFile/physical.xlsx,,,,,,,,,,,,,,,,,,,,,,,,,,,,,,,
,,,,,,,,,,,,,,,748,2022-01-21_21h29.19.568,multiplicationStroop,2021.2.3,Win32,144.4669171,,,,,left,1,0.4184,0,57,57,21,1,7,2,7 | 2,5,1.9756,1.4111,congruent,left,,,,,,stimulusFile/physical.xlsx,,,,,,,,,,,,,,,,,,,,,,,,,,,,,,,
,,,,,,,,,,,,,,,748,2022-01-21_21h29.19.568,multiplicationStroop,2021.2.3,Win32,144.4669171,,,,,right,0,0.4588,0,58,58,71,1,9,9,9 | 9,0,1.4111,1.9756,neutral,left,,,,,,stimulusFile/physical.xlsx,,,,,,,,,,,,,,,,,,,,,,,,,,,,,,,
,,,,,,,,,,,,,,,748,2022-01-21_21h29.19.568,multiplicationStroop,2021.2.3,Win32,144.4669171,,,,,right,1,0.3889,0,59,59,63,1,9,9,9 | 9,0,1.4111,1.9756,neutral,right,,,,,,stimulusFile/physical.xlsx,,,,,,,,,,,,,,,,,,,,,,,,,,,,,,,
,,,,,,,,,,,,,,,748,2022-01-21_21h29.19.568,multiplicationStroop,2021.2.3,Win32,144.4669171,,,,,right,0,0.3687,0,60,60,27,1,8,9,8 | 9,1,1.9756,1.4111,incongruent,left,,,,,,stimulusFile/physical.xlsx,,,,,,,,,,,,,,,,,,,,,,,,,,,,,,,
,,,,,,,,,,,,,,,748,2022-01-21_21h29.19.568,multiplicationStroop,2021.2.3,Win32,144.4669171,,,,,left,1,0.9514,0,61,61,34,1,6,8,6 | 8,2,1.9756,1.4111,incongruent,left,,,,,,stimulusFile/physical.xlsx,,,,,,,,,,,,,,,,,,,,,,,,,,,,,,,
,,,,,,,,,,,,,,,748,2022-01-21_21h29.19.568,multiplicationStroop,2021.2.3,Win32,144.4669171,,,,,left,1,0.6178,0,62,62,55,1,9,9,9 | 9,0,1.9756,1.4111,neutral,left,,,,,,stimulusFile/physical.xlsx,,,,,,,,,,,,,,,,,,,,,,,,,,,,,,,
,,,,,,,,,,,,,,,748,2022-01-21_21h29.19.568,multiplicationStroop,2021.2.3,Win32,144.4669171,,,,,left,1,0.6037,0,63,63,50,1,6,6,6 | 6,0,1.9756,1.4111,neutral,left,,,,,,stimulusFile/physical.xlsx,,,,,,,,,,,,,,,,,,,,,,,,,,,,,,,
,,,,,,,,,,,,,,,748,2022-01-21_21h29.19.568,multiplicationStroop,2021.2.3,Win32,144.4669171,,,,,left,1,0.702,0,64,64,53,1,4,4,4 | 4,0,1.9756,1.4111,neutral,left,,,,,,stimulusFile/physical.xlsx,,,,,,,,,,,,,,,,,,,,,,,,,,,,,,,
,,,,,,,,,,,,,,,748,2022-01-21_21h29.19.568,multiplicationStroop,2021.2.3,Win32,144.4669171,,,,,left,1,0.5279,0,65,65,20,1,6,1,6 | 1,5,1.9756,1.4111,congruent,left,,,,,,stimulusFile/physical.xlsx,,,,,,,,,,,,,,,,,,,,,,,,,,,,,,,
,,,,,,,,,,,,,,,748,2022-01-21_21h29.19.568,multiplicationStroop,2021.2.3,Win32,144.4669171,,,,,left,1,0.5352,0,66,66,52,1,2,2,2 | 2,0,1.9756,1.4111,neutral,left,,,,,,stimulusFile/physical.xlsx,,,,,,,,,,,,,,,,,,,,,,,,,,,,,,,
,,,,,,,,,,,,,,,748,2022-01-21_21h29.19.568,multiplicationStroop,2021.2.3,Win32,144.4669171,,,,,left,1,1.1044,0,67,67,40,1,1,6,1 | 6,5,1.9756,1.4111,incongruent,left,,,,,,stimulusFile/physical.xlsx,,,,,,,,,,,,,,,,,,,,,,,,,,,,,,,
,,,,,,,,,,,,,,,748,2022-01-21_21h29.19.568,multiplicationStroop,2021.2.3,Win32,144.4669171,,,,,right,1,0.7293,0,68,68,9,1,2,4,2 | 4,2,1.4111,1.9756,congruent,right,,,,,,stimulusFile/physical.xlsx,,,,,,,,,,,,,,,,,,,,,,,,,,,,,,,
,,,,,,,,,,,,,,,748,2022-01-21_21h29.19.568,multiplicationStroop,2021.2.3,Win32,144.4669171,,,,,right,1,0.4721,0,69,69,47,1,9,4,9 | 4,5,1.4111,1.9756,incongruent,right,,,,,,stimulusFile/physical.xlsx,,,,,,,,,,,,,,,,,,,,,,,,,,,,,,,
,,,,,,,,,,,,,,,748,2022-01-21_21h29.19.568,multiplicationStroop,2021.2.3,Win32,144.4669171,,,,,left,1,0.5141,0,70,70,54,1,7,7,7 | 7,0,1.9756,1.4111,neutral,left,,,,,,stimulusFile/physical.xlsx,,,,,,,,,,,,,,,,,,,,,,,,,,,,,,,
,,,,,,,,,,,,,,,748,2022-01-21_21h29.19.568,multiplicationStroop,2021.2.3,Win32,144.4669171,,,,,right,1,0.4232,0,71,71,65,1,2,2,2 | 2,0,1.4111,1.9756,neutral,right,,,,,,stimulusFile/physical.xlsx,,,,,,,,,,,,,,,,,,,,,,,,,,,,,,,
,,,,,,,,,,,,,,,748,2022-01-21_21h29.19.568,multiplicationStroop,2021.2.3,Win32,144.4669171,,,,,,,,,,,,,,,,,,,,,0,1,1,1,1,stimulusFile/physical.xlsx,PHYSICALLY larger (larger font size).,images/physicallyLarger.png,,,,,,,,,,,,,,,,,,,,,,,,,,,,,
,,,,,,,,,,,,,,,748,2022-01-21_21h29.19.568,multiplicationStroop,2021.2.3,Win32,144.4669171,,,,,,,,,,,,,,,,,,,,,,,,,,,,,space,23.5089,space,2.0302,21,3.6231,1,0,0,0,8,1,3,×,7,3 × 7,neutral,smallerFirst,1.5,1.5,21,,,,,,,,
,,,,,,,,,,,,,,,748,2022-01-21_21h29.19.568,multiplicationStroop,2021.2.3,Win32,144.4669171,,,,,,,,,,,,,,,,,,,,,,,,,,,,,,,,,27,3.221,1,0,1,1,14,1,9,×,3,9 × 3,neutral,largerFirst,1.5,1.5,27,,,,,,,,
,,,,,,,,,,,,,,,748,2022-01-21_21h29.19.568,multiplicationStroop,2021.2.3,Win32,144.4669171,,,,,,,,,,,,,,,,,,,,,,,,,,,,,,,,,4,1.9517,1,0,2,2,28,1,2,×,2,2 × 2,neutral,tie,1.5,1.5,4,,,,,,,,
,,,,,,,,,,,,,,,748,2022-01-21_21h29.19.568,multiplicationStroop,2021.2.3,Win32,144.4669171,,,,,,,,,,,,,,,,,,,,,,,,,,,,,,,,,16,2.3158,1,0,3,3,13,1,2,×,8,2 × 8,neutral,smallerFirst,1.5,1.5,16,,,,,,,,
,,,,,,,,,,,,,,,748,2022-01-21_21h29.19.568,multiplicationStroop,2021.2.3,Win32,144.4669171,,,,,,,,,,,,,,,,,,,,,,,,,,,,,,,,,9,1.9051,1,0,4,4,29,1,3,×,3,3 × 3,neutral,tie,1.5,1.5,9,,,,,,,,
,,,,,,,,,,,,,,,748,2022-01-21_21h29.19.568,multiplicationStroop,2021.2.3,Win32,144.4669171,,,,,,,,,,,,,,,,,,,,,,,,,,,,,,,,,24,2.0823,1,0,5,5,2,1,4,×,6,4 × 6,neutral,smallerFirst,1.5,1.5,24,,,,,,,,
,,,,,,,,,,,,,,,748,2022-01-21_21h29.19.568,multiplicationStroop,2021.2.3,Win32,144.4669171,,,,,,,,,,,,,,,,,,,,,,,,,,,,,,,,,64,2.0965,1,0,6,6,34,1,8,×,8,8 × 8,neutral,tie,1.5,1.5,64,,,,,,,,
,,,,,,,,,,,,,,,748,2022-01-21_21h29.19.568,multiplicationStroop,2021.2.3,Win32,144.4669171,,,,,,,,,,,,,,,,,,,,,,,,,,,,,,,,,16,1.8952,1,0,7,7,30,1,4,×,4,4 × 4,neutral,tie,1.5,1.5,16,,,,,,,,
,,,,,,,,,,,,,,,748,2022-01-21_21h29.19.568,multiplicationStroop,2021.2.3,Win32,144.4669171,,,,,,,,,,,,,,,,,,,,,,,,,,,,,,,,,63,4.684,1,0,8,8,12,1,7,×,9,7 × 9,neutral,smallerFirst,1.5,1.5,63,,,,,,,,
,,,,,,,,,,,,,,,748,2022-01-21_21h29.19.568,multiplicationStroop,2021.2.3,Win32,144.4669171,,,,,,,,,,,,,,,,,,,,,,,,,,,,,,,,,25,2.0081,1,0,9,9,31,1,5,×,5,5 × 5,neutral,tie,1.5,1.5,25,,,,,,,,
,,,,,,,,,,,,,,,748,2022-01-21_21h29.19.568,multiplicationStroop,2021.2.3,Win32,144.4669171,,,,,,,,,,,,,,,,,,,,,,,,,,,,,,,,,35,1.9304,1,0,10,10,1,1,5,×,7,5 × 7,neutral,smallerFirst,1.5,1.5,35,,,,,,,,
,,,,,,,,,,,,,,,748,2022-01-21_21h29.19.568,multiplicationStroop,2021.2.3,Win32,144.4669171,,,,,,,,,,,,,,,,,,,,,,,,,,,,,,,,,12,2.1112,1,0,11,11,25,1,6,×,2,6 × 2,neutral,largerFirst,1.5,1.5,12,,,,,,,,
,,,,,,,,,,,,,,,748,2022-01-21_21h29.19.568,multiplicationStroop,2021.2.3,Win32,144.4669171,,,,,,,,,,,,,,,,,,,,,,,,,,,,,,,,,48,3.0191,1,0,12,12,15,1,8,×,6,8 × 6,neutral,largerFirst,1.5,1.5,48,,,,,,,,
,,,,,,,,,,,,,,,748,2022-01-21_21h29.19.568,multiplicationStroop,2021.2.3,Win32,144.4669171,,,,,,,,,,,,,,,,,,,,,,,,,,,,,,,,,81,2.722,1,0,13,13,35,1,9,×,9,9 × 9,neutral,tie,1.5,1.5,81,,,,,,,,
,,,,,,,,,,,,,,,748,2022-01-21_21h29.19.568,multiplicationStroop,2021.2.3,Win32,144.4669171,,,,,,,,,,,,,,,,,,,,,,,,,,,,,,,,,12,1.4898,1,0,14,14,21,1,4,×,3,4 × 3,neutral,largerFirst,1.5,1.5,12,,,,,,,,
,,,,,,,,,,,,,,,748,2022-01-21_21h29.19.568,multiplicationStroop,2021.2.3,Win32,144.4669171,,,,,,,,,,,,,,,,,,,,,,,,,,,,,,,,,54,1.9667,1,0,15,15,7,1,6,×,9,6 × 9,neutral,smallerFirst,1.5,1.5,54,,,,,,,,
,,,,,,,,,,,,,,,748,2022-01-21_21h29.19.568,multiplicationStroop,2021.2.3,Win32,144.4669171,,,,,,,,,,,,,,,,,,,,,,,,,,,,,,,,,42,6.1103,1,0,16,16,6,1,6,×,7,6 × 7,neutral,smallerFirst,1.5,1.5,42,,,,,,,,
,,,,,,,,,,,,,,,748,2022-01-21_21h29.19.568,multiplicationStroop,2021.2.3,Win32,144.4669171,,,,,,,,,,,,,,,,,,,,,,,,,,,,,,,,,24,2.5102,1,0,17,17,22,1,8,×,3,8 × 3,neutral,largerFirst,1.5,1.5,24,,,,,,,,
,,,,,,,,,,,,,,,748,2022-01-21_21h29.19.568,multiplicationStroop,2021.2.3,Win32,144.4669171,,,,,,,,,,,,,,,,,,,,,,,,,,,,,,,,,35,1.7657,0,0,18,18,19,1,6,×,5,6 × 5,neutral,largerFirst,1.5,1.5,30,,,,,,,,
,,,,,,,,,,,,,,,748,2022-01-21_21h29.19.568,multiplicationStroop,2021.2.3,Win32,144.4669171,,,,,,,,,,,,,,,,,,,,,,,,,,,,,,,,,10,8.8589,1,0,19,19,4,1,2,×,5,2 × 5,neutral,smallerFirst,1.5,1.5,10,,,,,,,,
,,,,,,,,,,,,,,,748,2022-01-21_21h29.19.568,multiplicationStroop,2021.2.3,Win32,144.4669171,,,,,,,,,,,,,,,,,,,,,,,,,,,,,,,,,49,3.5409,1,0,20,20,33,1,7,×,7,7 × 7,neutral,tie,1.5,1.5,49,,,,,,,,
,,,,,,,,,,,,,,,748,2022-01-21_21h29.19.568,multiplicationStroop,2021.2.3,Win32,144.4669171,,,,,,,,,,,,,,,,,,,,,,,,,,,,,,,,,36,5.2905,1,0,21,21,27,1,9,×,4,9 × 4,neutral,largerFirst,1.5,1.5,36,,,,,,,,
,,,,,,,,,,,,,,,748,2022-01-21_21h29.19.568,multiplicationStroop,2021.2.3,Win32,144.4669171,,,,,,,,,,,,,,,,,,,,,,,,,,,,,,,,,36,4.2355,1,0,22,22,32,1,6,×,6,6 × 6,neutral,tie,1.5,1.5,36,,,,,,,,
,,,,,,,,,,,,,,,748,2022-01-21_21h29.19.568,multiplicationStroop,2021.2.3,Win32,144.4669171,,,,,,,,,,,,,,,,,,,,,,,,,,,,,,,,,6,6.6368,1,0,23,23,26,1,3,×,2,3 × 2,neutral,largerFirst,1.5,1.5,6,,,,,,,,
,,,,,,,,,,,,,,,748,2022-01-21_21h29.19.568,multiplicationStroop,2021.2.3,Win32,144.4669171,,,,,,,,,,,,,,,,,,,,,,,,,,,,,,,,,14,3.1592,1,0,24,24,16,1,7,×,2,7 × 2,neutral,largerFirst,1.5,1.5,14,,,,,,,,
,,,,,,,,,,,,,,,748,2022-01-21_21h29.19.568,multiplicationStroop,2021.2.3,Win32,144.4669171,,,,,,,,,,,,,,,,,,,,,,,,,,,,,,,,,40,4.7291,1,0,25,25,24,1,8,×,5,8 × 5,neutral,largerFirst,1.5,1.5,40,,,,,,,,
,,,,,,,,,,,,,,,748,2022-01-21_21h29.19.568,multiplicationStroop,2021.2.3,Win32,144.4669171,,,,,,,,,,,,,,,,,,,,,,,,,,,,,,,,,56,5.4012,1,0,26,26,9,1,7,×,8,7 × 8,neutral,smallerFirst,1.5,1.5,56,,,,,,,,
,,,,,,,,,,,,,,,748,2022-01-21_21h29.19.568,multiplicationStroop,2021.2.3,Win32,144.4669171,,,,,,,,,,,,,,,,,,,,,,,,,,,,,,,,,18,3.6872,1,0,27,27,0,1,3,×,6,3 × 6,neutral,smallerFirst,1.5,1.5,18,,,,,,,,
,,,,,,,,,,,,,,,748,2022-01-21_21h29.19.568,multiplicationStroop,2021.2.3,Win32,144.4669171,,,,,,,,,,,,,,,,,,,,,,,,,,,,,,,,,45,2.5346,1,0,28,28,10,1,5,×,9,5 × 9,neutral,smallerFirst,1.5,1.5,45,,,,,,,,
,,,,,,,,,,,,,,,748,2022-01-21_21h29.19.568,multiplicationStroop,2021.2.3,Win32,144.4669171,,,,,,,,,,,,,,,,,,,,,,,,,,,,,,,,,32,3.4754,1,0,29,29,23,1,8,×,4,8 × 4,neutral,largerFirst,1.5,1.5,32,,,,,,,,
,,,,,,,,,,,,,,,748,2022-01-21_21h29.19.568,multiplicationStroop,2021.2.3,Win32,144.4669171,,,,,,,,,,,,,,,,,,,,,,,,,,,,,,,,,15,1.9398,1,0,30,30,5,1,3,×,5,3 × 5,neutral,smallerFirst,1.5,1.5,15,,,,,,,,
,,,,,,,,,,,,,,,748,2022-01-21_21h29.19.568,multiplicationStroop,2021.2.3,Win32,144.4669171,,,,,,,,,,,,,,,,,,,,,,,,,,,,,,,,,20,4.0055,1,0,31,31,20,1,5,×,4,5 × 4,neutral,largerFirst,1.5,1.5,20,,,,,,,,
,,,,,,,,,,,,,,,748,2022-01-21_21h29.19.568,multiplicationStroop,2021.2.3,Win32,144.4669171,,,,,,,,,,,,,,,,,,,,,,,,,,,,,,,,,8,1.9867,1,0,32,32,3,1,2,×,4,2 × 4,neutral,smallerFirst,1.5,1.5,8,,,,,,,,
,,,,,,,,,,,,,,,748,2022-01-21_21h29.19.568,multiplicationStroop,2021.2.3,Win32,144.4669171,,,,,,,,,,,,,,,,,,,,,,,,,,,,,,,,,18,4.201,1,0,33,33,18,1,9,×,2,9 × 2,neutral,largerFirst,1.5,1.5,18,,,,,,,,
,,,,,,,,,,,,,,,748,2022-01-21_21h29.19.568,multiplicationStroop,2021.2.3,Win32,144.4669171,,,,,,,,,,,,,,,,,,,,,,,,,,,,,,,,,28,3.7898,1,0,34,34,17,1,7,×,4,7 × 4,neutral,largerFirst,1.5,1.5,28,,,,,,,,
,,,,,,,,,,,,,,,748,2022-01-21_21h29.19.568,multiplicationStroop,2021.2.3,Win32,144.4669171,,,,,,,,,,,,,,,,,,,,,,,,,,,,,,,,,72,6.1169,1,0,35,35,11,1,8,×,9,8 × 9,neutral,smallerFirst,1.5,1.5,72,,,,,,,,
,,,,,,,,,,,,,,,748,2022-01-21_21h29.19.568,multiplicationStroop,2021.2.3,Win32,144.4669171,,,,,,,,,,,,,,,,,,,,,,,,,,,,,,,,,,,,,,,,,,,,,,,,,,0,0,0,1,1,stimulusFile/mult_blk2.xlsx,,
,,,,,,,,,,,,,,,748,2022-01-21_21h29.19.568,multiplicationStroop,2021.2.3,Win32,144.4669171,,,,,,,,,,,,,,,,,,,,,,,,,,,,,,,space,3.4993,72,14.8854,1,0,0,0,0,1,8,×,9,8 × 9,incongruent,smallerFirst,2,1,72,,,,,,,,
,,,,,,,,,,,,,,,748,2022-01-21_21h29.19.568,multiplicationStroop,2021.2.3,Win32,144.4669171,,,,,,,,,,,,,,,,,,,,,,,,,,,,,,,,,25,4.0474,1,0,1,1,31,1,5,×,5,5 × 5,incongruent,tie,1,2,25,,,,,,,,
,,,,,,,,,,,,,,,748,2022-01-21_21h29.19.568,multiplicationStroop,2021.2.3,Win32,144.4669171,,,,,,,,,,,,,,,,,,,,,,,,,,,,,,,,,12,2.9162,1,0,2,2,5,1,3,×,4,3 × 4,incongruent,smallerFirst,2,1,12,,,,,,,,
,,,,,,,,,,,,,,,748,2022-01-21_21h29.19.568,multiplicationStroop,2021.2.3,Win32,144.4669171,,,,,,,,,,,,,,,,,,,,,,,,,,,,,,,,,42,3.4086,1,0,3,3,17,1,7,×,6,7 × 6,incongruent,largerFirst,1,2,42,,,,,,,,
,,,,,,,,,,,,,,,748,2022-01-21_21h29.19.568,multiplicationStroop,2021.2.3,Win32,144.4669171,,,,,,,,,,,,,,,,,,,,,,,,,,,,,,,,,27,3.1041,1,0,4,4,18,1,9,×,3,9 × 3,incongruent,largerFirst,1,2,27,,,,,,,,
,,,,,,,,,,,,,,,748,2022-01-21_21h29.19.568,multiplicationStroop,2021.2.3,Win32,144.4669171,,,,,,,,,,,,,,,,,,,,,,,,,,,,,,,,,30,2.2259,1,0,5,5,25,1,6,×,5,6 × 5,incongruent,largerFirst,1,2,30,,,,,,,,
,,,,,,,,,,,,,,,748,2022-01-21_21h29.19.568,multiplicationStroop,2021.2.3,Win32,144.4669171,,,,,,,,,,,,,,,,,,,,,,,,,,,,,,,,,54,2.5151,1,0,6,6,6,1,6,×,9,6 × 9,incongruent,smallerFirst,2,1,54,,,,,,,,
,,,,,,,,,,,,,,,748,2022-01-21_21h29.19.568,multiplicationStroop,2021.2.3,Win32,144.4669171,,,,,,,,,,,,,,,,,,,,,,,,,,,,,,,,,20,2.0275,1,0,7,7,27,1,5,×,4,5 × 4,incongruent,largerFirst,1,2,20,,,,,,,,
,,,,,,,,,,,,,,,748,2022-01-21_21h29.19.568,multiplicationStroop,2021.2.3,Win32,144.4669171,,,,,,,,,,,,,,,,,,,,,,,,,,,,,,,,,64,2.1109,1,0,8,8,34,1,8,×,8,8 × 8,incongruent,tie,1,2,64,,,,,,,,
,,,,,,,,,,,,,,,748,2022-01-21_21h29.19.568,multiplicationStroop,2021.2.3,Win32,144.4669171,,,,,,,,,,,,,,,,,,,,,,,,,,,,,,,,,63,4.3668,1,0,9,9,3,1,7,×,9,7 × 9,incongruent,smallerFirst,2,1,63,,,,,,,,
,,,,,,,,,,,,,,,748,2022-01-21_21h29.19.568,multiplicationStroop,2021.2.3,Win32,144.4669171,,,,,,,,,,,,,,,,,,,,,,,,,,,,,,,,,15,2.5899,1,0,10,10,10,1,3,×,5,3 × 5,incongruent,smallerFirst,2,1,15,,,,,,,,
,,,,,,,,,,,,,,,748,2022-01-21_21h29.19.568,multiplicationStroop,2021.2.3,Win32,144.4669171,,,,,,,,,,,,,,,,,,,,,,,,,,,,,,,,,36,1.7607,1,0,11,11,32,1,6,×,6,6 × 6,incongruent,tie,1,2,36,,,,,,,,
,,,,,,,,,,,,,,,748,2022-01-21_21h29.19.568,multiplicationStroop,2021.2.3,Win32,144.4669171,,,,,,,,,,,,,,,,,,,,,,,,,,,,,,,,,16,2.6955,1,0,12,12,23,1,8,×,2,8 × 2,incongruent,largerFirst,1,2,16,,,,,,,,
,,,,,,,,,,,,,,,748,2022-01-21_21h29.19.568,multiplicationStroop,2021.2.3,Win32,144.4669171,,,,,,,,,,,,,,,,,,,,,,,,,,,,,,,,,9,2.0184,1,0,13,13,29,1,3,×,3,3 × 3,incongruent,tie,1,2,9,,,,,,,,
,,,,,,,,,,,,,,,748,2022-01-21_21h29.19.568,multiplicationStroop,2021.2.3,Win32,144.4669171,,,,,,,,,,,,,,,,,,,,,,,,,,,,,,,,,28,2.7165,1,0,14,14,16,1,7,×,4,7 × 4,incongruent,largerFirst,1,2,28,,,,,,,,
,,,,,,,,,,,,,,,748,2022-01-21_21h29.19.568,multiplicationStroop,2021.2.3,Win32,144.4669171,,,,,,,,,,,,,,,,,,,,,,,,,,,,,,,,,18,6.1589,1,0,15,15,8,1,3,×,6,3 × 6,incongruent,smallerFirst,2,1,18,,,,,,,,
,,,,,,,,,,,,,,,748,2022-01-21_21h29.19.568,multiplicationStroop,2021.2.3,Win32,144.4669171,,,,,,,,,,,,,,,,,,,,,,,,,,,,,,,,,45,2.2288,1,0,16,16,22,1,9,×,5,9 × 5,incongruent,largerFirst,1,2,45,,,,,,,,
,,,,,,,,,,,,,,,748,2022-01-21_21h29.19.568,multiplicationStroop,2021.2.3,Win32,144.4669171,,,,,,,,,,,,,,,,,,,,,,,,,,,,,,,,,49,2.2769,1,0,17,17,33,1,7,×,7,7 × 7,incongruent,tie,1,2,49,,,,,,,,
,,,,,,,,,,,,,,,748,2022-01-21_21h29.19.568,multiplicationStroop,2021.2.3,Win32,144.4669171,,,,,,,,,,,,,,,,,,,,,,,,,,,,,,,,,6,2.1871,1,0,18,18,11,1,2,×,3,2 × 3,incongruent,smallerFirst,2,1,6,,,,,,,,
,,,,,,,,,,,,,,,748,2022-01-21_21h29.19.568,multiplicationStroop,2021.2.3,Win32,144.4669171,,,,,,,,,,,,,,,,,,,,,,,,,,,,,,,,,56,2.68,1,0,19,19,14,1,8,×,7,8 × 7,incongruent,largerFirst,1,2,56,,,,,,,,
,,,,,,,,,,,,,,,748,2022-01-21_21h29.19.568,multiplicationStroop,2021.2.3,Win32,144.4669171,,,,,,,,,,,,,,,,,,,,,,,,,,,,,,,,,12,2.0132,1,0,20,20,19,1,6,×,2,6 × 2,incongruent,largerFirst,1,2,12,,,,,,,,
,,,,,,,,,,,,,,,748,2022-01-21_21h29.19.568,multiplicationStroop,2021.2.3,Win32,144.4669171,,,,,,,,,,,,,,,,,,,,,,,,,,,,,,,,,21,1.7008,1,0,21,21,26,1,7,×,3,7 × 3,incongruent,largerFirst,1,2,21,,,,,,,,
,,,,,,,,,,,,,,,748,2022-01-21_21h29.19.568,multiplicationStroop,2021.2.3,Win32,144.4669171,,,,,,,,,,,,,,,,,,,,,,,,,,,,,,,,,4,1.8118,1,0,22,22,28,1,2,×,2,2 × 2,incongruent,tie,1,2,4,,,,,,,,
,,,,,,,,,,,,,,,748,2022-01-21_21h29.19.568,multiplicationStroop,2021.2.3,Win32,144.4669171,,,,,,,,,,,,,,,,,,,,,,,,,,,,,,,,,24,2.9573,1,0,23,23,20,1,6,×,4,6 × 4,incongruent,largerFirst,1,2,24,,,,,,,,
,,,,,,,,,,,,,,,748,2022-01-21_21h29.19.568,multiplicationStroop,2021.2.3,Win32,144.4669171,,,,,,,,,,,,,,,,,,,,,,,,,,,,,,,,,35,3.2429,1,0,24,24,12,1,5,×,7,5 × 7,incongruent,smallerFirst,2,1,35,,,,,,,,
,,,,,,,,,,,,,,,748,2022-01-21_21h29.19.568,multiplicationStroop,2021.2.3,Win32,144.4669171,,,,,,,,,,,,,,,,,,,,,,,,,,,,,,,,,8,2.4787,1,0,25,25,24,1,4,×,2,4 × 2,incongruent,largerFirst,1,2,8,,,,,,,,
,,,,,,,,,,,,,,,748,2022-01-21_21h29.19.568,multiplicationStroop,2021.2.3,Win32,144.4669171,,,,,,,,,,,,,,,,,,,,,,,,,,,,,,,,,48,2.9019,1,0,26,26,1,1,6,×,8,6 × 8,incongruent,smallerFirst,2,1,48,,,,,,,,
,,,,,,,,,,,,,,,748,2022-01-21_21h29.19.568,multiplicationStroop,2021.2.3,Win32,144.4669171,,,,,,,,,,,,,,,,,,,,,,,,,,,,,,,,,16,2.1112,1,0,27,27,30,1,4,×,4,4 × 4,incongruent,tie,1,2,16,,,,,,,,
,,,,,,,,,,,,,,,748,2022-01-21_21h29.19.568,multiplicationStroop,2021.2.3,Win32,144.4669171,,,,,,,,,,,,,,,,,,,,,,,,,,,,,,,,,81,2.5133,1,0,28,28,35,1,9,×,9,9 × 9,incongruent,tie,1,2,81,,,,,,,,
,,,,,,,,,,,,,,,748,2022-01-21_21h29.19.568,multiplicationStroop,2021.2.3,Win32,144.4669171,,,,,,,,,,,,,,,,,,,,,,,,,,,,,,,,,24,2.0967,1,0,29,29,9,1,3,×,8,3 × 8,incongruent,smallerFirst,2,1,24,,,,,,,,
,,,,,,,,,,,,,,,748,2022-01-21_21h29.19.568,multiplicationStroop,2021.2.3,Win32,144.4669171,,,,,,,,,,,,,,,,,,,,,,,,,,,,,,,,,14,3.0063,1,0,30,30,4,1,2,×,7,2 × 7,incongruent,smallerFirst,2,1,14,,,,,,,,
,,,,,,,,,,,,,,,748,2022-01-21_21h29.19.568,multiplicationStroop,2021.2.3,Win32,144.4669171,,,,,,,,,,,,,,,,,,,,,,,,,,,,,,,,,32,22.7245,1,0,31,31,7,1,4,×,8,4 × 8,incongruent,smallerFirst,2,1,32,,,,,,,,
,,,,,,,,,,,,,,,748,2022-01-21_21h29.19.568,multiplicationStroop,2021.2.3,Win32,144.4669171,,,,,,,,,,,,,,,,,,,,,,,,,,,,,,,,,10,2.9435,1,0,32,32,21,1,5,×,2,5 × 2,incongruent,largerFirst,1,2,10,,,,,,,,
,,,,,,,,,,,,,,,748,2022-01-21_21h29.19.568,multiplicationStroop,2021.2.3,Win32,144.4669171,,,,,,,,,,,,,,,,,,,,,,,,,,,,,,,,,18,2.427,1,0,33,33,2,1,2,×,9,2 × 9,incongruent,smallerFirst,2,1,18,,,,,,,,
,,,,,,,,,,,,,,,748,2022-01-21_21h29.19.568,multiplicationStroop,2021.2.3,Win32,144.4669171,,,,,,,,,,,,,,,,,,,,,,,,,,,,,,,,,36,4.0221,1,0,34,34,15,1,9,×,4,9 × 4,incongruent,largerFirst,1,2,36,,,,,,,,
,,,,,,,,,,,,,,,748,2022-01-21_21h29.19.568,multiplicationStroop,2021.2.3,Win32,144.4669171,,,,,,,,,,,,,,,,,,,,,,,,,,,,,,,,,40,6.8116,1,0,35,35,13,1,5,×,8,5 × 8,incongruent,smallerFirst,2,1,40,,,,,,,,
,,,,,,,,,,,,,,,748,2022-01-21_21h29.19.568,multiplicationStroop,2021.2.3,Win32,144.4669171,,,,,,,,,,,,,,,,,,,,,,,,,,,,,,,,,,,,,,,,,,,,,,,,,,0,1,1,5,1,stimulusFile/mult_blk6_INcongruent.xlsx,,
,,,,,,,,,,,,,,,748,2022-01-21_21h29.19.568,multiplicationStroop,2021.2.3,Win32,144.4669171,,,,,,,,,,,,,,,,,,,,,,,,,,,,,,,space,1.8959,81,3.8394,1,0,0,0,35,1,9,×,9,9 × 9,neutral,tie,2,1,81,,,,,,,,
,,,,,,,,,,,,,,,748,2022-01-21_21h29.19.568,multiplicationStroop,2021.2.3,Win32,144.4669171,,,,,,,,,,,,,,,,,,,,,,,,,,,,,,,,,49,2.0828,1,0,1,1,33,1,7,×,7,7 × 7,neutral,tie,2,1,49,,,,,,,,
,,,,,,,,,,,,,,,748,2022-01-21_21h29.19.568,multiplicationStroop,2021.2.3,Win32,144.4669171,,,,,,,,,,,,,,,,,,,,,,,,,,,,,,,,,8,2.3119,1,0,2,2,10,1,2,×,4,2 × 4,incongruent,smallerFirst,2,1,8,,,,,,,,
,,,,,,,,,,,,,,,748,2022-01-21_21h29.19.568,multiplicationStroop,2021.2.3,Win32,144.4669171,,,,,,,,,,,,,,,,,,,,,,,,,,,,,,,,,12,2.0143,1,0,3,3,19,1,4,×,3,4 × 3,incongruent,largerFirst,1,2,12,,,,,,,,
,,,,,,,,,,,,,,,748,2022-01-21_21h29.19.568,multiplicationStroop,2021.2.3,Win32,144.4669171,,,,,,,,,,,,,,,,,,,,,,,,,,,,,,,,,64,2.3041,1,0,4,4,34,1,8,×,8,8 × 8,neutral,tie,2,1,64,,,,,,,,
,,,,,,,,,,,,,,,748,2022-01-21_21h29.19.568,multiplicationStroop,2021.2.3,Win32,144.4669171,,,,,,,,,,,,,,,,,,,,,,,,,,,,,,,,,12,2.1175,1,0,5,5,5,1,2,×,6,2 × 6,incongruent,smallerFirst,2,1,12,,,,,,,,
,,,,,,,,,,,,,,,748,2022-01-21_21h29.19.568,multiplicationStroop,2021.2.3,Win32,144.4669171,,,,,,,,,,,,,,,,,,,,,,,,,,,,,,,,,6,2.4068,1,0,6,6,25,1,3,×,2,3 × 2,incongruent,largerFirst,1,2,6,,,,,,,,
,,,,,,,,,,,,,,,748,2022-01-21_21h29.19.568,multiplicationStroop,2021.2.3,Win32,144.4669171,,,,,,,,,,,,,,,,,,,,,,,,,,,,,,,,,42,5.5362,1,0,7,7,3,1,6,×,7,6 × 7,incongruent,smallerFirst,2,1,42,,,,,,,,
,,,,,,,,,,,,,,,748,2022-01-21_21h29.19.568,multiplicationStroop,2021.2.3,Win32,144.4669171,,,,,,,,,,,,,,,,,,,,,,,,,,,,,,,,,30,2.6115,1,0,8,8,11,1,5,×,6,5 × 6,incongruent,smallerFirst,2,1,30,,,,,,,,
,,,,,,,,,,,,,,,748,2022-01-21_21h29.19.568,multiplicationStroop,2021.2.3,Win32,144.4669171,,,,,,,,,,,,,,,,,,,,,,,,,,,,,,,,,54,2.8878,1,0,9,9,20,1,9,×,6,9 × 6,incongruent,largerFirst,1,2,54,,,,,,,,
,,,,,,,,,,,,,,,748,2022-01-21_21h29.19.568,multiplicationStroop,2021.2.3,Win32,144.4669171,,,,,,,,,,,,,,,,,,,,,,,,,,,,,,,,,24,4.9133,1,0,10,10,23,1,8,×,3,8 × 3,incongruent,largerFirst,1,2,24,,,,,,,,
,,,,,,,,,,,,,,,748,2022-01-21_21h29.19.568,multiplicationStroop,2021.2.3,Win32,144.4669171,,,,,,,,,,,,,,,,,,,,,,,,,,,,,,,,,18,5.6824,1,0,11,11,22,1,6,×,3,6 × 3,incongruent,largerFirst,1,2,18,,,,,,,,
,,,,,,,,,,,,,,,748,2022-01-21_21h29.19.568,multiplicationStroop,2021.2.3,Win32,144.4669171,,,,,,,,,,,,,,,,,,,,,,,,,,,,,,,,,16,2.1592,1,0,12,12,9,1,2,×,8,2 × 8,incongruent,smallerFirst,2,1,16,,,,,,,,
,,,,,,,,,,,,,,,748,2022-01-21_21h29.19.568,multiplicationStroop,2021.2.3,Win32,144.4669171,,,,,,,,,,,,,,,,,,,,,,,,,,,,,,,,,40,2.2701,1,0,13,13,27,1,8,×,5,8 × 5,incongruent,largerFirst,1,2,40,,,,,,,,
,,,,,,,,,,,,,,,748,2022-01-21_21h29.19.568,multiplicationStroop,2021.2.3,Win32,144.4669171,,,,,,,,,,,,,,,,,,,,,,,,,,,,,,,,,4,1.5964,1,0,14,14,28,1,2,×,2,2 × 2,neutral,tie,2,1,4,,,,,,,,
,,,,,,,,,,,,,,,748,2022-01-21_21h29.19.568,multiplicationStroop,2021.2.3,Win32,144.4669171,,,,,,,,,,,,,,,,,,,,,,,,,,,,,,,,,36,1.9439,1,0,15,15,32,1,6,×,6,6 × 6,neutral,tie,2,1,36,,,,,,,,
,,,,,,,,,,,,,,,748,2022-01-21_21h29.19.568,multiplicationStroop,2021.2.3,Win32,144.4669171,,,,,,,,,,,,,,,,,,,,,,,,,,,,,,,,,14,1.9787,1,0,16,16,18,1,7,×,2,7 × 2,incongruent,largerFirst,1,2,14,,,,,,,,
,,,,,,,,,,,,,,,748,2022-01-21_21h29.19.568,multiplicationStroop,2021.2.3,Win32,144.4669171,,,,,,,,,,,,,,,,,,,,,,,,,,,,,,,,,20,2.4898,1,0,17,17,13,1,4,×,5,4 × 5,incongruent,smallerFirst,2,1,20,,,,,,,,
,,,,,,,,,,,,,,,748,2022-01-21_21h29.19.568,multiplicationStroop,2021.2.3,Win32,144.4669171,,,,,,,,,,,,,,,,,,,,,,,,,,,,,,,,,32,4.939,1,0,18,18,21,1,8,×,4,8 × 4,incongruent,largerFirst,1,2,32,,,,,,,,
,,,,,,,,,,,,,,,748,2022-01-21_21h29.19.568,multiplicationStroop,2021.2.3,Win32,144.4669171,,,,,,,,,,,,,,,,,,,,,,,,,,,,,,,,,56,2.7779,1,0,19,19,0,1,7,×,8,7 × 8,incongruent,smallerFirst,2,1,56,,,,,,,,
,,,,,,,,,,,,,,,748,2022-01-21_21h29.19.568,multiplicationStroop,2021.2.3,Win32,144.4669171,,,,,,,,,,,,,,,,,,,,,,,,,,,,,,,,,27,3.1454,1,0,20,20,4,1,3,×,9,3 × 9,incongruent,smallerFirst,2,1,27,,,,,,,,
,,,,,,,,,,,,,,,748,2022-01-21_21h29.19.568,multiplicationStroop,2021.2.3,Win32,144.4669171,,,,,,,,,,,,,,,,,,,,,,,,,,,,,,,,,48,3.1031,1,0,21,21,15,1,8,×,6,8 × 6,incongruent,largerFirst,1,2,48,,,,,,,,
,,,,,,,,,,,,,,,748,2022-01-21_21h29.19.568,multiplicationStroop,2021.2.3,Win32,144.4669171,,,,,,,,,,,,,,,,,,,,,,,,,,,,,,,,,25,1.993,1,0,22,22,31,1,5,×,5,5 × 5,neutral,tie,2,1,25,,,,,,,,
,,,,,,,,,,,,,,,748,2022-01-21_21h29.19.568,multiplicationStroop,2021.2.3,Win32,144.4669171,,,,,,,,,,,,,,,,,,,,,,,,,,,,,,,,,63,26.1611,1,0,23,23,17,1,9,×,7,9 × 7,incongruent,largerFirst,1,2,63,,,,,,,,
,,,,,,,,,,,,,,,748,2022-01-21_21h29.19.568,multiplicationStroop,2021.2.3,Win32,144.4669171,,,,,,,,,,,,,,,,,,,,,,,,,,,,,,,,,21,2.2769,1,0,24,24,12,1,3,×,7,3 × 7,incongruent,smallerFirst,2,1,21,,,,,,,,
,,,,,,,,,,,,,,,748,2022-01-21_21h29.19.568,multiplicationStroop,2021.2.3,Win32,144.4669171,,,,,,,,,,,,,,,,,,,,,,,,,,,,,,,,,35,2.0207,1,0,25,25,26,1,7,×,5,7 × 5,incongruent,largerFirst,1,2,35,,,,,,,,
,,,,,,,,,,,,,,,748,2022-01-21_21h29.19.568,multiplicationStroop,2021.2.3,Win32,144.4669171,,,,,,,,,,,,,,,,,,,,,,,,,,,,,,,,,16,3.3325,1,0,26,26,30,1,4,×,4,4 × 4,neutral,tie,2,1,16,,,,,,,,
,,,,,,,,,,,,,,,748,2022-01-21_21h29.19.568,multiplicationStroop,2021.2.3,Win32,144.4669171,,,,,,,,,,,,,,,,,,,,,,,,,,,,,,,,,18,2.1727,1,0,27,27,16,1,9,×,2,9 × 2,incongruent,largerFirst,1,2,18,,,,,,,,
,,,,,,,,,,,,,,,748,2022-01-21_21h29.19.568,multiplicationStroop,2021.2.3,Win32,144.4669171,,,,,,,,,,,,,,,,,,,,,,,,,,,,,,,,,45,3.5898,1,0,28,28,8,1,5,×,9,5 × 9,incongruent,smallerFirst,2,1,45,,,,,,,,
,,,,,,,,,,,,,,,748,2022-01-21_21h29.19.568,multiplicationStroop,2021.2.3,Win32,144.4669171,,,,,,,,,,,,,,,,,,,,,,,,,,,,,,,,,9,2.0688,1,0,29,29,29,1,3,×,3,3 × 3,neutral,tie,2,1,9,,,,,,,,
,,,,,,,,,,,,,,,748,2022-01-21_21h29.19.568,multiplicationStroop,2021.2.3,Win32,144.4669171,,,,,,,,,,,,,,,,,,,,,,,,,,,,,,,,,28,3.4431,1,0,30,30,2,1,4,×,7,4 × 7,incongruent,smallerFirst,2,1,28,,,,,,,,
,,,,,,,,,,,,,,,748,2022-01-21_21h29.19.568,multiplicationStroop,2021.2.3,Win32,144.4669171,,,,,,,,,,,,,,,,,,,,,,,,,,,,,,,,,36,4.9228,1,0,31,31,1,1,4,×,9,4 × 9,incongruent,smallerFirst,2,1,36,,,,,,,,
,,,,,,,,,,,,,,,748,2022-01-21_21h29.19.568,multiplicationStroop,2021.2.3,Win32,144.4669171,,,,,,,,,,,,,,,,,,,,,,,,,,,,,,,,,24,6.7841,1,0,32,32,6,1,4,×,6,4 × 6,incongruent,smallerFirst,2,1,24,,,,,,,,
,,,,,,,,,,,,,,,748,2022-01-21_21h29.19.568,multiplicationStroop,2021.2.3,Win32,144.4669171,,,,,,,,,,,,,,,,,,,,,,,,,,,,,,,,,72,2.875,1,0,33,33,14,1,9,×,8,9 × 8,incongruent,largerFirst,1,2,72,,,,,,,,
,,,,,,,,,,,,,,,748,2022-01-21_21h29.19.568,multiplicationStroop,2021.2.3,Win32,144.4669171,,,,,,,,,,,,,,,,,,,,,,,,,,,,,,,,,10,2.1862,1,0,34,34,7,1,2,×,5,2 × 5,incongruent,smallerFirst,2,1,10,,,,,,,,
,,,,,,,,,,,,,,,748,2022-01-21_21h29.19.568,multiplicationStroop,2021.2.3,Win32,144.4669171,,,,,,,,,,,,,,,,,,,,,,,,,,,,,,,,,15,5.4918,1,0,35,35,24,1,5,×,3,5 × 3,incongruent,largerFirst,1,2,15,,,,,,,,
,,,,,,,,,,,,,,,748,2022-01-21_21h29.19.568,multiplicationStroop,2021.2.3,Win32,144.4669171,,,,,,,,,,,,,,,,,,,,,,,,,,,,,,,,,,,,,,,,,,,,,,,,,,0,2,2,4,1,stimulusFile/mult_blk5_INcongruent.xlsx,,
,,,,,,,,,,,,,,,748,2022-01-21_21h29.19.568,multiplicationStroop,2021.2.3,Win32,144.4669171,,,,,,,,,,,,,,,,,,,,,,,,,,,,,,,space,1.5643,24,3.681,1,0,0,0,11,1,4,×,6,4 × 6,congruent,smallerFirst,1,2,24,,,,,,,,
,,,,,,,,,,,,,,,748,2022-01-21_21h29.19.568,multiplicationStroop,2021.2.3,Win32,144.4669171,,,,,,,,,,,,,,,,,,,,,,,,,,,,,,,,,8,3.1939,1,0,1,1,23,1,4,×,2,4 × 2,congruent,largerFirst,2,1,8,,,,,,,,
,,,,,,,,,,,,,,,748,2022-01-21_21h29.19.568,multiplicationStroop,2021.2.3,Win32,144.4669171,,,,,,,,,,,,,,,,,,,,,,,,,,,,,,,,,16,3.8045,1,0,2,2,19,1,8,×,2,8 × 2,congruent,largerFirst,2,1,16,,,,,,,,
,,,,,,,,,,,,,,,748,2022-01-21_21h29.19.568,multiplicationStroop,2021.2.3,Win32,144.4669171,,,,,,,,,,,,,,,,,,,,,,,,,,,,,,,,,21,2.604,1,0,3,3,2,1,3,×,7,3 × 7,congruent,smallerFirst,1,2,21,,,,,,,,
,,,,,,,,,,,,,,,748,2022-01-21_21h29.19.568,multiplicationStroop,2021.2.3,Win32,144.4669171,,,,,,,,,,,,,,,,,,,,,,,,,,,,,,,,,40,3.4689,1,0,4,4,20,1,8,×,5,8 × 5,congruent,largerFirst,2,1,40,,,,,,,,
,,,,,,,,,,,,,,,748,2022-01-21_21h29.19.568,multiplicationStroop,2021.2.3,Win32,144.4669171,,,,,,,,,,,,,,,,,,,,,,,,,,,,,,,,,12,1.4731,1,0,5,5,5,1,2,×,6,2 × 6,congruent,smallerFirst,1,2,12,,,,,,,,
,,,,,,,,,,,,,,,748,2022-01-21_21h29.19.568,multiplicationStroop,2021.2.3,Win32,144.4669171,,,,,,,,,,,,,,,,,,,,,,,,,,,,,,,,,25,1.9647,1,0,6,6,31,1,5,×,5,5 × 5,neutral,tie,1,2,25,,,,,,,,
,,,,,,,,,,,,,,,748,2022-01-21_21h29.19.568,multiplicationStroop,2021.2.3,Win32,144.4669171,,,,,,,,,,,,,,,,,,,,,,,,,,,,,,,,,42,8.533,1,0,7,7,17,1,7,×,6,7 × 6,congruent,largerFirst,2,1,42,,,,,,,,
,,,,,,,,,,,,,,,748,2022-01-21_21h29.19.568,multiplicationStroop,2021.2.3,Win32,144.4669171,,,,,,,,,,,,,,,,,,,,,,,,,,,,,,,,,54,5.2692,1,0,8,8,26,1,9,×,6,9 × 6,congruent,largerFirst,2,1,54,,,,,,,,
,,,,,,,,,,,,,,,748,2022-01-21_21h29.19.568,multiplicationStroop,2021.2.3,Win32,144.4669171,,,,,,,,,,,,,,,,,,,,,,,,,,,,,,,,,36,12.6297,1,0,9,9,32,1,6,×,6,6 × 6,neutral,tie,1,2,36,,,,,,,,
,,,,,,,,,,,,,,,748,2022-01-21_21h29.19.568,multiplicationStroop,2021.2.3,Win32,144.4669171,,,,,,,,,,,,,,,,,,,,,,,,,,,,,,,,,20,6.0335,1,0,10,10,21,1,5,×,4,5 × 4,congruent,largerFirst,2,1,20,,,,,,,,
,,,,,,,,,,,,,,,748,2022-01-21_21h29.19.568,multiplicationStroop,2021.2.3,Win32,144.4669171,,,,,,,,,,,,,,,,,,,,,,,,,,,,,,,,,56,3.1392,1,0,11,11,22,1,8,×,7,8 × 7,congruent,largerFirst,2,1,56,,,,,,,,
,,,,,,,,,,,,,,,748,2022-01-21_21h29.19.568,multiplicationStroop,2021.2.3,Win32,144.4669171,,,,,,,,,,,,,,,,,,,,,,,,,,,,,,,,,45,5.1936,1,0,12,12,9,1,5,×,9,5 × 9,congruent,smallerFirst,1,2,45,,,,,,,,
,,,,,,,,,,,,,,,748,2022-01-21_21h29.19.568,multiplicationStroop,2021.2.3,Win32,144.4669171,,,,,,,,,,,,,,,,,,,,,,,,,,,,,,,,,72,6.1717,1,0,13,13,3,1,8,×,9,8 × 9,congruent,smallerFirst,1,2,72,,,,,,,,
,,,,,,,,,,,,,,,748,2022-01-21_21h29.19.568,multiplicationStroop,2021.2.3,Win32,144.4669171,,,,,,,,,,,,,,,,,,,,,,,,,,,,,,,,,4,1.9234,1,0,14,14,28,1,2,×,2,2 × 2,neutral,tie,1,2,4,,,,,,,,
,,,,,,,,,,,,,,,748,2022-01-21_21h29.19.568,multiplicationStroop,2021.2.3,Win32,144.4669171,,,,,,,,,,,,,,,,,,,,,,,,,,,,,,,,,16,3.6939,1,0,15,15,30,1,4,×,4,4 × 4,neutral,tie,1,2,16,,,,,,,,
,,,,,,,,,,,,,,,748,2022-01-21_21h29.19.568,multiplicationStroop,2021.2.3,Win32,144.4669171,,,,,,,,,,,,,,,,,,,,,,,,,,,,,,,,,6,7.4363,1,0,16,16,27,1,3,×,2,3 × 2,congruent,largerFirst,2,1,6,,,,,,,,
,,,,,,,,,,,,,,,748,2022-01-21_21h29.19.568,multiplicationStroop,2021.2.3,Win32,144.4669171,,,,,,,,,,,,,,,,,,,,,,,,,,,,,,,,,30,3.5978,1,0,17,17,1,1,5,×,6,5 × 6,congruent,smallerFirst,1,2,30,,,,,,,,
,,,,,,,,,,,,,,,748,2022-01-21_21h29.19.568,multiplicationStroop,2021.2.3,Win32,144.4669171,,,,,,,,,,,,,,,,,,,,,,,,,,,,,,,,,49,2.8809,1,0,18,18,33,1,7,×,7,7 × 7,neutral,tie,1,2,49,,,,,,,,
,,,,,,,,,,,,,,,748,2022-01-21_21h29.19.568,multiplicationStroop,2021.2.3,Win32,144.4669171,,,,,,,,,,,,,,,,,,,,,,,,,,,,,,,,,36,6.3598,1,0,19,19,14,1,9,×,4,9 × 4,congruent,largerFirst,2,1,36,,,,,,,,
,,,,,,,,,,,,,,,748,2022-01-21_21h29.19.568,multiplicationStroop,2021.2.3,Win32,144.4669171,,,,,,,,,,,,,,,,,,,,,,,,,,,,,,,,,18,2.545,1,0,20,20,8,1,2,×,9,2 × 9,congruent,smallerFirst,1,2,18,,,,,,,,
,,,,,,,,,,,,,,,748,2022-01-21_21h29.19.568,multiplicationStroop,2021.2.3,Win32,144.4669171,,,,,,,,,,,,,,,,,,,,,,,,,,,,,,,,,18,3.6049,1,0,21,21,25,1,6,×,3,6 × 3,congruent,largerFirst,2,1,18,,,,,,,,
,,,,,,,,,,,,,,,748,2022-01-21_21h29.19.568,multiplicationStroop,2021.2.3,Win32,144.4669171,,,,,,,,,,,,,,,,,,,,,,,,,,,,,,,,,15,2.9441,1,0,22,22,18,1,5,×,3,5 × 3,congruent,largerFirst,2,1,15,,,,,,,,
,,,,,,,,,,,,,,,748,2022-01-21_21h29.19.568,multiplicationStroop,2021.2.3,Win32,144.4669171,,,,,,,,,,,,,,,,,,,,,,,,,,,,,,,,,24,2.4786,1,0,23,23,24,1,8,×,3,8 × 3,congruent,largerFirst,2,1,24,,,,,,,,
,,,,,,,,,,,,,,,748,2022-01-21_21h29.19.568,multiplicationStroop,2021.2.3,Win32,144.4669171,,,,,,,,,,,,,,,,,,,,,,,,,,,,,,,,,14,3.5128,1,0,24,24,0,1,2,×,7,2 × 7,congruent,smallerFirst,1,2,14,,,,,,,,
,,,,,,,,,,,,,,,748,2022-01-21_21h29.19.568,multiplicationStroop,2021.2.3,Win32,144.4669171,,,,,,,,,,,,,,,,,,,,,,,,,,,,,,,,,28,2.77,1,0,25,25,13,1,4,×,7,4 × 7,congruent,smallerFirst,1,2,28,,,,,,,,
,,,,,,,,,,,,,,,748,2022-01-21_21h29.19.568,multiplicationStroop,2021.2.3,Win32,144.4669171,,,,,,,,,,,,,,,,,,,,,,,,,,,,,,,,,27,4.6653,1,0,26,26,12,1,3,×,9,3 × 9,congruent,smallerFirst,1,2,27,,,,,,,,
,,,,,,,,,,,,,,,748,2022-01-21_21h29.19.568,multiplicationStroop,2021.2.3,Win32,144.4669171,,,,,,,,,,,,,,,,,,,,,,,,,,,,,,,,,48,4.4013,1,0,27,27,4,1,6,×,8,6 × 8,congruent,smallerFirst,1,2,48,,,,,,,,
,,,,,,,,,,,,,,,748,2022-01-21_21h29.19.568,multiplicationStroop,2021.2.3,Win32,144.4669171,,,,,,,,,,,,,,,,,,,,,,,,,,,,,,,,,81,5.7773,1,0,28,28,35,1,9,×,9,9 × 9,neutral,tie,1,2,81,,,,,,,,
,,,,,,,,,,,,,,,748,2022-01-21_21h29.19.568,multiplicationStroop,2021.2.3,Win32,144.4669171,,,,,,,,,,,,,,,,,,,,,,,,,,,,,,,,,64,4.4012,1,0,29,29,34,1,8,×,8,8 × 8,neutral,tie,1,2,64,,,,,,,,
,,,,,,,,,,,,,,,748,2022-01-21_21h29.19.568,multiplicationStroop,2021.2.3,Win32,144.4669171,,,,,,,,,,,,,,,,,,,,,,,,,,,,,,,,,9,2.8681,1,0,30,30,29,1,3,×,3,3 × 3,neutral,tie,1,2,9,,,,,,,,
,,,,,,,,,,,,,,,748,2022-01-21_21h29.19.568,multiplicationStroop,2021.2.3,Win32,144.4669171,,,,,,,,,,,,,,,,,,,,,,,,,,,,,,,,,12,4.0832,1,0,31,31,16,1,4,×,3,4 × 3,congruent,largerFirst,2,1,12,,,,,,,,
,,,,,,,,,,,,,,,748,2022-01-21_21h29.19.568,multiplicationStroop,2021.2.3,Win32,144.4669171,,,,,,,,,,,,,,,,,,,,,,,,,,,,,,,,,35,2.7911,1,0,32,32,15,1,7,×,5,7 × 5,congruent,largerFirst,2,1,35,,,,,,,,
,,,,,,,,,,,,,,,748,2022-01-21_21h29.19.568,multiplicationStroop,2021.2.3,Win32,144.4669171,,,,,,,,,,,,,,,,,,,,,,,,,,,,,,,,,32,3.597,1,0,33,33,6,1,4,×,8,4 × 8,congruent,smallerFirst,1,2,32,,,,,,,,
,,,,,,,,,,,,,,,748,2022-01-21_21h29.19.568,multiplicationStroop,2021.2.3,Win32,144.4669171,,,,,,,,,,,,,,,,,,,,,,,,,,,,,,,,,63,15.3028,1,0,34,34,7,1,7,×,9,7 × 9,congruent,smallerFirst,1,2,63,,,,,,,,
,,,,,,,,,,,,,,,748,2022-01-21_21h29.19.568,multiplicationStroop,2021.2.3,Win32,144.4669171,,,,,,,,,,,,,,,,,,,,,,,,,,,,,,,,,10,3.2972,1,0,35,35,10,1,2,×,5,2 × 5,congruent,smallerFirst,1,2,10,,,,,,,,
,,,,,,,,,,,,,,,748,2022-01-21_21h29.19.568,multiplicationStroop,2021.2.3,Win32,144.4669171,,,,,,,,,,,,,,,,,,,,,,,,,,,,,,,,,,,,,,,,,,,,,,,,,,0,3,3,3,1,stimulusFile/mult_blk4_congruent.xlsx,,
,,,,,,,,,,,,,,,748,2022-01-21_21h29.19.568,multiplicationStroop,2021.2.3,Win32,144.4669171,,,,,,,,,,,,,,,,,,,,,,,,,,,,,,,space,1.1325,12,6.9214,1,0,0,0,19,1,6,×,2,6 × 2,congruent,largerFirst,2,1,12,,,,,,,,
,,,,,,,,,,,,,,,748,2022-01-21_21h29.19.568,multiplicationStroop,2021.2.3,Win32,144.4669171,,,,,,,,,,,,,,,,,,,,,,,,,,,,,,,,,28,2.9368,1,0,1,1,27,1,7,×,4,7 × 4,congruent,largerFirst,2,1,28,,,,,,,,
,,,,,,,,,,,,,,,748,2022-01-21_21h29.19.568,multiplicationStroop,2021.2.3,Win32,144.4669171,,,,,,,,,,,,,,,,,,,,,,,,,,,,,,,,,45,4.4163,1,0,2,2,23,1,9,×,5,9 × 5,congruent,largerFirst,2,1,45,,,,,,,,
,,,,,,,,,,,,,,,748,2022-01-21_21h29.19.568,multiplicationStroop,2021.2.3,Win32,144.4669171,,,,,,,,,,,,,,,,,,,,,,,,,,,,,,,,,9,2.0276,1,0,3,3,29,1,3,×,3,3 × 3,neutral,tie,2,1,9,,,,,,,,
,,,,,,,,,,,,,,,748,2022-01-21_21h29.19.568,multiplicationStroop,2021.2.3,Win32,144.4669171,,,,,,,,,,,,,,,,,,,,,,,,,,,,,,,,,21,4.9709,1,0,4,4,16,1,7,×,3,7 × 3,congruent,largerFirst,2,1,21,,,,,,,,
,,,,,,,,,,,,,,,748,2022-01-21_21h29.19.568,multiplicationStroop,2021.2.3,Win32,144.4669171,,,,,,,,,,,,,,,,,,,,,,,,,,,,,,,,,18,10.3801,1,0,5,5,22,1,9,×,2,9 × 2,congruent,largerFirst,2,1,18,,,,,,,,
,,,,,,,,,,,,,,,748,2022-01-21_21h29.19.568,multiplicationStroop,2021.2.3,Win32,144.4669171,,,,,,,,,,,,,,,,,,,,,,,,,,,,,,,,,42,10.6616,1,0,6,6,3,1,6,×,7,6 × 7,congruent,smallerFirst,1,2,42,,,,,,,,
,,,,,,,,,,,,,,,748,2022-01-21_21h29.19.568,multiplicationStroop,2021.2.3,Win32,144.4669171,,,,,,,,,,,,,,,,,,,,,,,,,,,,,,,,,63,10.0196,1,0,7,7,21,1,9,×,7,9 × 7,congruent,largerFirst,2,1,63,,,,,,,,
,,,,,,,,,,,,,,,748,2022-01-21_21h29.19.568,multiplicationStroop,2021.2.3,Win32,144.4669171,,,,,,,,,,,,,,,,,,,,,,,,,,,,,,,,,54,2.5822,1,0,8,8,12,1,6,×,9,6 × 9,congruent,smallerFirst,1,2,54,,,,,,,,
,,,,,,,,,,,,,,,748,2022-01-21_21h29.19.568,multiplicationStroop,2021.2.3,Win32,144.4669171,,,,,,,,,,,,,,,,,,,,,,,,,,,,,,,,,10,2.2014,1,0,9,9,24,1,5,×,2,5 × 2,congruent,largerFirst,2,1,10,,,,,,,,
,,,,,,,,,,,,,,,748,2022-01-21_21h29.19.568,multiplicationStroop,2021.2.3,Win32,144.4669171,,,,,,,,,,,,,,,,,,,,,,,,,,,,,,,,,12,2.2633,1,0,10,10,2,1,3,×,4,3 × 4,congruent,smallerFirst,1,2,12,,,,,,,,
,,,,,,,,,,,,,,,748,2022-01-21_21h29.19.568,multiplicationStroop,2021.2.3,Win32,144.4669171,,,,,,,,,,,,,,,,,,,,,,,,,,,,,,,,,4,4.1726,1,0,11,11,28,1,2,×,2,2 × 2,neutral,tie,2,1,4,,,,,,,,
,,,,,,,,,,,,,,,748,2022-01-21_21h29.19.568,multiplicationStroop,2021.2.3,Win32,144.4669171,,,,,,,,,,,,,,,,,,,,,,,,,,,,,,,,,24,6.5405,1,0,12,12,25,1,6,×,4,6 × 4,congruent,largerFirst,2,1,24,,,,,,,,
,,,,,,,,,,,,,,,748,2022-01-21_21h29.19.568,multiplicationStroop,2021.2.3,Win32,144.4669171,,,,,,,,,,,,,,,,,,,,,,,,,,,,,,,,,72,3.6023,1,0,13,13,17,1,9,×,8,9 × 8,congruent,largerFirst,2,1,72,,,,,,,,
,,,,,,,,,,,,,,,748,2022-01-21_21h29.19.568,multiplicationStroop,2021.2.3,Win32,144.4669171,,,,,,,,,,,,,,,,,,,,,,,,,,,,,,,,,16,2.5963,1,0,14,14,5,1,2,×,8,2 × 8,congruent,smallerFirst,1,2,16,,,,,,,,
,,,,,,,,,,,,,,,748,2022-01-21_21h29.19.568,multiplicationStroop,2021.2.3,Win32,144.4669171,,,,,,,,,,,,,,,,,,,,,,,,,,,,,,,,,81,2.9856,1,0,15,15,35,1,9,×,9,9 × 9,neutral,tie,2,1,81,,,,,,,,
,,,,,,,,,,,,,,,748,2022-01-21_21h29.19.568,multiplicationStroop,2021.2.3,Win32,144.4669171,,,,,,,,,,,,,,,,,,,,,,,,,,,,,,,,,49,2.528,1,0,16,16,33,1,7,×,7,7 × 7,neutral,tie,2,1,49,,,,,,,,
,,,,,,,,,,,,,,,748,2022-01-21_21h29.19.568,multiplicationStroop,2021.2.3,Win32,144.4669171,,,,,,,,,,,,,,,,,,,,,,,,,,,,,,,,,8,3.2349,1,0,17,17,9,1,2,×,4,2 × 4,congruent,smallerFirst,1,2,8,,,,,,,,
,,,,,,,,,,,,,,,748,2022-01-21_21h29.19.568,multiplicationStroop,2021.2.3,Win32,144.4669171,,,,,,,,,,,,,,,,,,,,,,,,,,,,,,,,,36,2.2426,1,0,18,18,32,1,6,×,6,6 × 6,neutral,tie,2,1,36,,,,,,,,
,,,,,,,,,,,,,,,748,2022-01-21_21h29.19.568,multiplicationStroop,2021.2.3,Win32,144.4669171,,,,,,,,,,,,,,,,,,,,,,,,,,,,,,,,,16,2.2914,1,0,19,19,30,1,4,×,4,4 × 4,neutral,tie,2,1,16,,,,,,,,
,,,,,,,,,,,,,,,748,2022-01-21_21h29.19.568,multiplicationStroop,2021.2.3,Win32,144.4669171,,,,,,,,,,,,,,,,,,,,,,,,,,,,,,,,,56,4.1585,1,0,20,20,8,1,7,×,8,7 × 8,congruent,smallerFirst,1,2,56,,,,,,,,
,,,,,,,,,,,,,,,748,2022-01-21_21h29.19.568,multiplicationStroop,2021.2.3,Win32,144.4669171,,,,,,,,,,,,,,,,,,,,,,,,,,,,,,,,,14,1.8606,1,0,21,21,14,1,7,×,2,7 × 2,congruent,largerFirst,2,1,14,,,,,,,,
,,,,,,,,,,,,,,,748,2022-01-21_21h29.19.568,multiplicationStroop,2021.2.3,Win32,144.4669171,,,,,,,,,,,,,,,,,,,,,,,,,,,,,,,,,24,4.0409,1,0,22,22,10,1,3,×,8,3 × 8,congruent,smallerFirst,1,2,24,,,,,,,,
,,,,,,,,,,,,,,,748,2022-01-21_21h29.19.568,multiplicationStroop,2021.2.3,Win32,144.4669171,,,,,,,,,,,,,,,,,,,,,,,,,,,,,,,,,15,2.5548,1,0,23,23,4,1,3,×,5,3 × 5,congruent,smallerFirst,1,2,15,,,,,,,,
,,,,,,,,,,,,,,,748,2022-01-21_21h29.19.568,multiplicationStroop,2021.2.3,Win32,144.4669171,,,,,,,,,,,,,,,,,,,,,,,,,,,,,,,,,40,2.8399,1,0,24,24,6,1,5,×,8,5 × 8,congruent,smallerFirst,1,2,40,,,,,,,,
,,,,,,,,,,,,,,,748,2022-01-21_21h29.19.568,multiplicationStroop,2021.2.3,Win32,144.4669171,,,,,,,,,,,,,,,,,,,,,,,,,,,,,,,,,25,2.0135,1,0,25,25,31,1,5,×,5,5 × 5,neutral,tie,2,1,25,,,,,,,,
,,,,,,,,,,,,,,,748,2022-01-21_21h29.19.568,multiplicationStroop,2021.2.3,Win32,144.4669171,,,,,,,,,,,,,,,,,,,,,,,,,,,,,,,,,18,3.6793,1,0,26,26,11,1,3,×,6,3 × 6,congruent,smallerFirst,1,2,18,,,,,,,,
,,,,,,,,,,,,,,,748,2022-01-21_21h29.19.568,multiplicationStroop,2021.2.3,Win32,144.4669171,,,,,,,,,,,,,,,,,,,,,,,,,,,,,,,,,20,3.4514,1,0,27,27,7,1,4,×,5,4 × 5,congruent,smallerFirst,1,2,20,,,,,,,,
,,,,,,,,,,,,,,,748,2022-01-21_21h29.19.568,multiplicationStroop,2021.2.3,Win32,144.4669171,,,,,,,,,,,,,,,,,,,,,,,,,,,,,,,,,64,2.1172,1,0,28,28,34,1,8,×,8,8 × 8,neutral,tie,2,1,64,,,,,,,,
,,,,,,,,,,,,,,,748,2022-01-21_21h29.19.568,multiplicationStroop,2021.2.3,Win32,144.4669171,,,,,,,,,,,,,,,,,,,,,,,,,,,,,,,,,48,3.4092,1,0,29,29,18,1,8,×,6,8 × 6,congruent,largerFirst,2,1,48,,,,,,,,
,,,,,,,,,,,,,,,748,2022-01-21_21h29.19.568,multiplicationStroop,2021.2.3,Win32,144.4669171,,,,,,,,,,,,,,,,,,,,,,,,,,,,,,,,,30,4.5455,1,0,30,30,15,1,6,×,5,6 × 5,congruent,largerFirst,2,1,30,,,,,,,,
,,,,,,,,,,,,,,,748,2022-01-21_21h29.19.568,multiplicationStroop,2021.2.3,Win32,144.4669171,,,,,,,,,,,,,,,,,,,,,,,,,,,,,,,,,32,3.7444,1,0,31,31,20,1,8,×,4,8 × 4,congruent,largerFirst,2,1,32,,,,,,,,
,,,,,,,,,,,,,,,748,2022-01-21_21h29.19.568,multiplicationStroop,2021.2.3,Win32,144.4669171,,,,,,,,,,,,,,,,,,,,,,,,,,,,,,,,,27,4.9238,1,0,32,32,26,1,9,×,3,9 × 3,congruent,largerFirst,2,1,27,,,,,,,,
,,,,,,,,,,,,,,,748,2022-01-21_21h29.19.568,multiplicationStroop,2021.2.3,Win32,144.4669171,,,,,,,,,,,,,,,,,,,,,,,,,,,,,,,,,6,3.0972,1,0,33,33,13,1,2,×,3,2 × 3,congruent,smallerFirst,1,2,6,,,,,,,,
,,,,,,,,,,,,,,,748,2022-01-21_21h29.19.568,multiplicationStroop,2021.2.3,Win32,144.4669171,,,,,,,,,,,,,,,,,,,,,,,,,,,,,,,,,35,3.5237,1,0,34,34,1,1,5,×,7,5 × 7,congruent,smallerFirst,1,2,35,,,,,,,,
,,,,,,,,,,,,,,,748,2022-01-21_21h29.19.568,multiplicationStroop,2021.2.3,Win32,144.4669171,,,,,,,,,,,,,,,,,,,,,,,,,,,,,,,,,36,5.0646,1,0,35,35,0,1,4,×,9,4 × 9,congruent,smallerFirst,1,2,36,,,,,,,,
,,,,,,,,,,,,,,,748,2022-01-21_21h29.19.568,multiplicationStroop,2021.2.3,Win32,144.4669171,,,,,,,,,,,,,,,,,,,,,,,,,,,,,,,,,,,,,,,,,,,,,,,,,,0,4,4,2,1,stimulusFile/mult_blk3_congruent.xlsx,,
,,,,,,,,,,,,,,,748,2022-01-21_21h29.19.568,multiplicationStroop,2021.2.3,Win32,144.4669171,,,,,,,,,,,,,,,,,,,,,,,,,,,,,,,space,1.4863,63,21.5787,1,0,0,0,26,1,9,×,7,9 × 7,neutral,largerFirst,1.5,1.5,63,,,,,,,,
,,,,,,,,,,,,,,,748,2022-01-21_21h29.19.568,multiplicationStroop,2021.2.3,Win32,144.4669171,,,,,,,,,,,,,,,,,,,,,,,,,,,,,,,,,14,2.5134,1,0,1,1,2,1,2,×,7,2 × 7,neutral,smallerFirst,1.5,1.5,14,,,,,,,,
,,,,,,,,,,,,,,,748,2022-01-21_21h29.19.568,multiplicationStroop,2021.2.3,Win32,144.4669171,,,,,,,,,,,,,,,,,,,,,,,,,,,,,,,,,4,1.6941,1,0,2,2,28,1,2,×,2,2 × 2,neutral,tie,1.5,1.5,4,,,,,,,,
,,,,,,,,,,,,,,,748,2022-01-21_21h29.19.568,multiplicationStroop,2021.2.3,Win32,144.4669171,,,,,,,,,,,,,,,,,,,,,,,,,,,,,,,,,16,1.9227,1,0,3,3,30,1,4,×,4,4 × 4,neutral,tie,1.5,1.5,16,,,,,,,,
,,,,,,,,,,,,,,,748,2022-01-21_21h29.19.568,multiplicationStroop,2021.2.3,Win32,144.4669171,,,,,,,,,,,,,,,,,,,,,,,,,,,,,,,,,27,2.2604,1,0,4,4,0,1,3,×,9,3 × 9,neutral,smallerFirst,1.5,1.5,27,,,,,,,,
,,,,,,,,,,,,,,,748,2022-01-21_21h29.19.568,multiplicationStroop,2021.2.3,Win32,144.4669171,,,,,,,,,,,,,,,,,,,,,,,,,,,,,,,,,9,2.3002,1,0,5,5,29,1,3,×,3,3 × 3,neutral,tie,1.5,1.5,9,,,,,,,,
,,,,,,,,,,,,,,,748,2022-01-21_21h29.19.568,multiplicationStroop,2021.2.3,Win32,144.4669171,,,,,,,,,,,,,,,,,,,,,,,,,,,,,,,,,20,2.3674,1,0,6,6,6,1,4,×,5,4 × 5,neutral,smallerFirst,1.5,1.5,20,,,,,,,,
,,,,,,,,,,,,,,,748,2022-01-21_21h29.19.568,multiplicationStroop,2021.2.3,Win32,144.4669171,,,,,,,,,,,,,,,,,,,,,,,,,,,,,,,,,8,2.3327,1,0,7,7,17,1,4,×,2,4 × 2,neutral,largerFirst,1.5,1.5,8,,,,,,,,
,,,,,,,,,,,,,,,748,2022-01-21_21h29.19.568,multiplicationStroop,2021.2.3,Win32,144.4669171,,,,,,,,,,,,,,,,,,,,,,,,,,,,,,,,,64,2.2349,1,0,8,8,34,1,8,×,8,8 × 8,neutral,tie,1.5,1.5,64,,,,,,,,
,,,,,,,,,,,,,,,748,2022-01-21_21h29.19.568,multiplicationStroop,2021.2.3,Win32,144.4669171,,,,,,,,,,,,,,,,,,,,,,,,,,,,,,,,,45,3.3602,1,0,9,9,24,1,9,×,5,9 × 5,neutral,largerFirst,1.5,1.5,45,,,,,,,,
,,,,,,,,,,,,,,,748,2022-01-21_21h29.19.568,multiplicationStroop,2021.2.3,Win32,144.4669171,,,,,,,,,,,,,,,,,,,,,,,,,,,,,,,,,15,2.8123,1,0,10,10,19,1,5,×,3,5 × 3,neutral,largerFirst,1.5,1.5,15,,,,,,,,
,,,,,,,,,,,,,,,748,2022-01-21_21h29.19.568,multiplicationStroop,2021.2.3,Win32,144.4669171,,,,,,,,,,,,,,,,,,,,,,,,,,,,,,,,,25,2.0408,1,0,11,11,31,1,5,×,5,5 × 5,neutral,tie,1.5,1.5,25,,,,,,,,
,,,,,,,,,,,,,,,748,2022-01-21_21h29.19.568,multiplicationStroop,2021.2.3,Win32,144.4669171,,,,,,,,,,,,,,,,,,,,,,,,,,,,,,,,,30,2.1731,1,0,12,12,5,1,5,×,6,5 × 6,neutral,smallerFirst,1.5,1.5,30,,,,,,,,
,,,,,,,,,,,,,,,748,2022-01-21_21h29.19.568,multiplicationStroop,2021.2.3,Win32,144.4669171,,,,,,,,,,,,,,,,,,,,,,,,,,,,,,,,,10,2.2703,1,0,13,13,18,1,5,×,2,5 × 2,neutral,largerFirst,1.5,1.5,10,,,,,,,,
,,,,,,,,,,,,,,,748,2022-01-21_21h29.19.568,multiplicationStroop,2021.2.3,Win32,144.4669171,,,,,,,,,,,,,,,,,,,,,,,,,,,,,,,,,40,4.478,1,0,14,14,10,1,5,×,8,5 × 8,neutral,smallerFirst,1.5,1.5,40,,,,,,,,
,,,,,,,,,,,,,,,748,2022-01-21_21h29.19.568,multiplicationStroop,2021.2.3,Win32,144.4669171,,,,,,,,,,,,,,,,,,,,,,,,,,,,,,,,,49,2.3262,1,0,15,15,33,1,7,×,7,7 × 7,neutral,tie,1.5,1.5,49,,,,,,,,
,,,,,,,,,,,,,,,748,2022-01-21_21h29.19.568,multiplicationStroop,2021.2.3,Win32,144.4669171,,,,,,,,,,,,,,,,,,,,,,,,,,,,,,,,,56,3.6997,1,0,16,16,23,1,8,×,7,8 × 7,neutral,largerFirst,1.5,1.5,56,,,,,,,,
,,,,,,,,,,,,,,,748,2022-01-21_21h29.19.568,multiplicationStroop,2021.2.3,Win32,144.4669171,,,,,,,,,,,,,,,,,,,,,,,,,,,,,,,,,18,29.0227,1,0,17,17,4,1,2,×,9,2 × 9,neutral,smallerFirst,1.5,1.5,18,,,,,,,,
,,,,,,,,,,,,,,,748,2022-01-21_21h29.19.568,multiplicationStroop,2021.2.3,Win32,144.4669171,,,,,,,,,,,,,,,,,,,,,,,,,,,,,,,,,18,3.7286,1,0,18,18,14,1,6,×,3,6 × 3,neutral,largerFirst,1.5,1.5,18,,,,,,,,
,,,,,,,,,,,,,,,748,2022-01-21_21h29.19.568,multiplicationStroop,2021.2.3,Win32,144.4669171,,,,,,,,,,,,,,,,,,,,,,,,,,,,,,,,,42,19.8984,1,0,19,19,20,1,7,×,6,7 × 6,neutral,largerFirst,1.5,1.5,42,,,,,,,,
,,,,,,,,,,,,,,,748,2022-01-21_21h29.19.568,multiplicationStroop,2021.2.3,Win32,144.4669171,,,,,,,,,,,,,,,,,,,,,,,,,,,,,,,,,12,1.8259,1,0,20,20,7,1,3,×,4,3 × 4,neutral,smallerFirst,1.5,1.5,12,,,,,,,,
,,,,,,,,,,,,,,,748,2022-01-21_21h29.19.568,multiplicationStroop,2021.2.3,Win32,144.4669171,,,,,,,,,,,,,,,,,,,,,,,,,,,,,,,,,21,7.1579,1,0,21,21,22,1,7,×,3,7 × 3,neutral,largerFirst,1.5,1.5,21,,,,,,,,
,,,,,,,,,,,,,,,748,2022-01-21_21h29.19.568,multiplicationStroop,2021.2.3,Win32,144.4669171,,,,,,,,,,,,,,,,,,,,,,,,,,,,,,,,,24,14.733,1,0,22,22,16,1,6,×,4,6 × 4,neutral,largerFirst,1.5,1.5,24,,,,,,,,
,,,,,,,,,,,,,,,748,2022-01-21_21h29.19.568,multiplicationStroop,2021.2.3,Win32,144.4669171,,,,,,,,,,,,,,,,,,,,,,,,,,,,,,,,,32,3.4649,1,0,23,23,9,1,4,×,8,4 × 8,neutral,smallerFirst,1.5,1.5,32,,,,,,,,
,,,,,,,,,,,,,,,748,2022-01-21_21h29.19.568,multiplicationStroop,2021.2.3,Win32,144.4669171,,,,,,,,,,,,,,,,,,,,,,,,,,,,,,,,,72,4.2353,1,0,24,24,25,1,9,×,8,9 × 8,neutral,largerFirst,1.5,1.5,72,,,,,,,,
,,,,,,,,,,,,,,,748,2022-01-21_21h29.19.568,multiplicationStroop,2021.2.3,Win32,144.4669171,,,,,,,,,,,,,,,,,,,,,,,,,,,,,,,,,35,2.2,1,0,25,25,15,1,7,×,5,7 × 5,neutral,largerFirst,1.5,1.5,35,,,,,,,,
,,,,,,,,,,,,,,,748,2022-01-21_21h29.19.568,multiplicationStroop,2021.2.3,Win32,144.4669171,,,,,,,,,,,,,,,,,,,,,,,,,,,,,,,,,36,2.0205,1,0,26,26,32,1,6,×,6,6 × 6,neutral,tie,1.5,1.5,36,,,,,,,,
,,,,,,,,,,,,,,,748,2022-01-21_21h29.19.568,multiplicationStroop,2021.2.3,Win32,144.4669171,,,,,,,,,,,,,,,,,,,,,,,,,,,,,,,,,12,2.3879,1,0,27,27,11,1,2,×,6,2 × 6,neutral,smallerFirst,1.5,1.5,12,,,,,,,,
,,,,,,,,,,,,,,,748,2022-01-21_21h29.19.568,multiplicationStroop,2021.2.3,Win32,144.4669171,,,,,,,,,,,,,,,,,,,,,,,,,,,,,,,,,36,4.4089,1,0,28,28,13,1,4,×,9,4 × 9,neutral,smallerFirst,1.5,1.5,36,,,,,,,,
,,,,,,,,,,,,,,,748,2022-01-21_21h29.19.568,multiplicationStroop,2021.2.3,Win32,144.4669171,,,,,,,,,,,,,,,,,,,,,,,,,,,,,,,,,28,15.6571,1,0,29,29,3,1,4,×,7,4 × 7,neutral,smallerFirst,1.5,1.5,28,,,,,,,,
,,,,,,,,,,,,,,,748,2022-01-21_21h29.19.568,multiplicationStroop,2021.2.3,Win32,144.4669171,,,,,,,,,,,,,,,,,,,,,,,,,,,,,,,,,24,3.5822,1,0,30,30,8,1,3,×,8,3 × 8,neutral,smallerFirst,1.5,1.5,24,,,,,,,,
,,,,,,,,,,,,,,,748,2022-01-21_21h29.19.568,multiplicationStroop,2021.2.3,Win32,144.4669171,,,,,,,,,,,,,,,,,,,,,,,,,,,,,,,,,54,5.8741,1,0,31,31,21,1,9,×,6,9 × 6,neutral,largerFirst,1.5,1.5,54,,,,,,,,
,,,,,,,,,,,,,,,748,2022-01-21_21h29.19.568,multiplicationStroop,2021.2.3,Win32,144.4669171,,,,,,,,,,,,,,,,,,,,,,,,,,,,,,,,,81,2.4858,1,0,32,32,35,1,9,×,9,9 × 9,neutral,tie,1.5,1.5,81,,,,,,,,
,,,,,,,,,,,,,,,748,2022-01-21_21h29.19.568,multiplicationStroop,2021.2.3,Win32,144.4669171,,,,,,,,,,,,,,,,,,,,,,,,,,,,,,,,,16,2.1797,1,0,33,33,27,1,8,×,2,8 × 2,neutral,largerFirst,1.5,1.5,16,,,,,,,,
,,,,,,,,,,,,,,,748,2022-01-21_21h29.19.568,multiplicationStroop,2021.2.3,Win32,144.4669171,,,,,,,,,,,,,,,,,,,,,,,,,,,,,,,,,6,3.8886,1,0,34,34,12,1,2,×,3,2 × 3,neutral,smallerFirst,1.5,1.5,6,,,,,,,,
,,,,,,,,,,,,,,,748,2022-01-21_21h29.19.568,multiplicationStroop,2021.2.3,Win32,144.4669171,,,,,,,,,,,,,,,,,,,,,,,,,,,,,,,,,48,5.9711,1,0,35,35,1,1,6,×,8,6 × 8,neutral,smallerFirst,1.5,1.5,48,,,,,,,,
,,,,,,,,,,,,,,,748,2022-01-21_21h29.19.568,multiplicationStroop,2021.2.3,Win32,144.4669171,,,,,,,,,,,,,,,,,,,,,,,,,,,,,,,,,,,,,,,,,,,,,,,,,,0,5,5,0,1,stimulusFile/mult_blk1.xlsx,,
,,,,,,,,,,,,,,,748,2022-01-21_21h29.19.568,multiplicationStroop,2021.2.3,Win32,144.4669171,,,,,,,,,,,,,,,,,,,,,,,,,,,,,,,,,,,,,,,,,,,,,,,,,,,,,,,,space,5.0184