welcomeKey_resp.keys,welcomeKey_resp.rt,X Scale,Y Scale,rt_resp_4.keys,rt_resp_4.corr,rt_resp_4.rt,speedtest_2.thisRepN,speedtest_2.thisTrialN,speedtest_2.thisN,speedtest_2.thisIndex,speedtest_2.ran,numberSc,posX,positionLayout,participant,date,expName,psychopyVersion,OS,frameRate,ct_instrresp.keys,ct_instrresp.rt,key_resp_2.keys,key_resp_2.rt,ct_keyResp.keys,ct_keyResp.corr,ct_keyResp.rt,trials.thisRepN,trials.thisTrialN,trials.thisN,trials.thisIndex,trials.ran,leftNo,rightNo,displayProblem,numDistance,leftNo_size,rightNo_size,Dims,keyAnswer,TS_Loop.thisRepN,TS_Loop.thisTrialN,TS_Loop.thisN,TS_Loop.thisIndex,TS_Loop.ran,Condition,ActionInst,instrImage,mltptaskInst_resp.keys,mltptaskInst_resp.rt,continue_resp_2.keys,continue_resp_2.rt,multp_Answer,multi_RT,multiplyCorr,LoopingMultiply.thisRepN,LoopingMultiply.thisTrialN,LoopingMultiply.thisN,LoopingMultiply.thisIndex,LoopingMultiply.ran,factor1,multiplySign,factor2,multliplyProblem,physicalSize,orderOperand,sizeF1,sizeF2,mult_answer,trials_stroop.thisRepN,trials_stroop.thisTrialN,trials_stroop.thisN,trials_stroop.thisIndex,trials_stroop.ran,multiplicationFile,esckey_resp_2.keys,esckey_resp_2.rt
y,2.1336,60,40,right,1,17.0006,0,0,0,11,1,4,200,right,749,2022-01-20_08h21.58.448,multiplicationStroop,2021.2.3,Win32,59.56280898,,,,,,,,,,,,,,,,,,,,,,,,,,,,,,,,,,,,,,,,,,,,,,,,,,,,,,,,,
,,,,right,0,1.9962,0,1,1,1,1,2,-200,left,749,2022-01-20_08h21.58.448,multiplicationStroop,2021.2.3,Win32,59.56280898,,,,,,,,,,,,,,,,,,,,,,,,,,,,,,,,,,,,,,,,,,,,,,,,,,,,,,,,,
,,,,right,1,2.4583,0,2,2,12,1,6,200,right,749,2022-01-20_08h21.58.448,multiplicationStroop,2021.2.3,Win32,59.56280898,,,,,,,,,,,,,,,,,,,,,,,,,,,,,,,,,,,,,,,,,,,,,,,,,,,,,,,,,
,,,,right,0,0.6963,0,3,3,0,1,1,-200,left,749,2022-01-20_08h21.58.448,multiplicationStroop,2021.2.3,Win32,59.56280898,,,,,,,,,,,,,,,,,,,,,,,,,,,,,,,,,,,,,,,,,,,,,,,,,,,,,,,,,
,,,,right,0,0.5873,0,4,4,6,1,8,-200,left,749,2022-01-20_08h21.58.448,multiplicationStroop,2021.2.3,Win32,59.56280898,,,,,,,,,,,,,,,,,,,,,,,,,,,,,,,,,,,,,,,,,,,,,,,,,,,,,,,,,
,,,,right,0,0.3847,0,5,5,3,1,4,-200,left,749,2022-01-20_08h21.58.448,multiplicationStroop,2021.2.3,Win32,59.56280898,,,,,,,,,,,,,,,,,,,,,,,,,,,,,,,,,,,,,,,,,,,,,,,,,,,,,,,,,
,,,,right,1,0.6305,0,6,6,10,1,3,200,right,749,2022-01-20_08h21.58.448,multiplicationStroop,2021.2.3,Win32,59.56280898,,,,,,,,,,,,,,,,,,,,,,,,,,,,,,,,,,,,,,,,,,,,,,,,,,,,,,,,,
,,,,right,1,0.4339,0,7,7,8,1,1,200,right,749,2022-01-20_08h21.58.448,multiplicationStroop,2021.2.3,Win32,59.56280898,,,,,,,,,,,,,,,,,,,,,,,,,,,,,,,,,,,,,,,,,,,,,,,,,,,,,,,,,
,,,,right,1,0.3954,0,8,8,9,1,2,200,right,749,2022-01-20_08h21.58.448,multiplicationStroop,2021.2.3,Win32,59.56280898,,,,,,,,,,,,,,,,,,,,,,,,,,,,,,,,,,,,,,,,,,,,,,,,,,,,,,,,,
,,,,right,1,0.3779,0,9,9,14,1,8,200,right,749,2022-01-20_08h21.58.448,multiplicationStroop,2021.2.3,Win32,59.56280898,,,,,,,,,,,,,,,,,,,,,,,,,,,,,,,,,,,,,,,,,,,,,,,,,,,,,,,,,
,,,,right,0,0.447,0,10,10,5,1,7,-200,left,749,2022-01-20_08h21.58.448,multiplicationStroop,2021.2.3,Win32,59.56280898,,,,,,,,,,,,,,,,,,,,,,,,,,,,,,,,,,,,,,,,,,,,,,,,,,,,,,,,,
,,,,right,0,0.442,0,11,11,7,1,9,-200,left,749,2022-01-20_08h21.58.448,multiplicationStroop,2021.2.3,Win32,59.56280898,,,,,,,,,,,,,,,,,,,,,,,,,,,,,,,,,,,,,,,,,,,,,,,,,,,,,,,,,
,,,,right,0,0.8783,0,12,12,2,1,3,-200,left,749,2022-01-20_08h21.58.448,multiplicationStroop,2021.2.3,Win32,59.56280898,,,,,,,,,,,,,,,,,,,,,,,,,,,,,,,,,,,,,,,,,,,,,,,,,,,,,,,,,
,,,,right,0,0.4281,0,13,13,4,1,6,-200,left,749,2022-01-20_08h21.58.448,multiplicationStroop,2021.2.3,Win32,59.56280898,,,,,,,,,,,,,,,,,,,,,,,,,,,,,,,,,,,,,,,,,,,,,,,,,,,,,,,,,
,,,,right,1,13.1361,0,14,14,13,1,7,200,right,749,2022-01-20_08h21.58.448,multiplicationStroop,2021.2.3,Win32,59.56280898,,,,,,,,,,,,,,,,,,,,,,,,,,,,,,,,,,,,,,,,,,,,,,,,,,,,,,,,,
,,,,right,1,2.0643,0,15,15,15,1,9,200,right,749,2022-01-20_08h21.58.448,multiplicationStroop,2021.2.3,Win32,59.56280898,,,,,,,,,,,,,,,,,,,,,,,,,,,,,,,,,,,,,,,,,,,,,,,,,,,,,,,,,
,,,,right,0,2.1652,1,0,16,7,1,9,-200,left,749,2022-01-20_08h21.58.448,multiplicationStroop,2021.2.3,Win32,59.56280898,,,,,,,,,,,,,,,,,,,,,,,,,,,,,,,,,,,,,,,,,,,,,,,,,,,,,,,,,
,,,,right,0,1.4948,1,1,17,4,1,6,-200,left,749,2022-01-20_08h21.58.448,multiplicationStroop,2021.2.3,Win32,59.56280898,,,,,,,,,,,,,,,,,,,,,,,,,,,,,,,,,,,,,,,,,,,,,,,,,,,,,,,,,
,,,,right,1,2.7725,1,2,18,11,1,4,200,right,749,2022-01-20_08h21.58.448,multiplicationStroop,2021.2.3,Win32,59.56280898,,,,,,,,,,,,,,,,,,,,,,,,,,,,,,,,,,,,,,,,,,,,,,,,,,,,,,,,,
,,,,right,1,1.2558,1,3,19,15,1,9,200,right,749,2022-01-20_08h21.58.448,multiplicationStroop,2021.2.3,Win32,59.56280898,,,,,,,,,,,,,,,,,,,,,,,,,,,,,,,,,,,,,,,,,,,,,,,,,,,,,,,,,
,,,,right,0,1.5306,1,4,20,1,1,2,-200,left,749,2022-01-20_08h21.58.448,multiplicationStroop,2021.2.3,Win32,59.56280898,,,,,,,,,,,,,,,,,,,,,,,,,,,,,,,,,,,,,,,,,,,,,,,,,,,,,,,,,
,,,,right,1,1.6285,1,5,21,12,1,6,200,right,749,2022-01-20_08h21.58.448,multiplicationStroop,2021.2.3,Win32,59.56280898,,,,,,,,,,,,,,,,,,,,,,,,,,,,,,,,,,,,,,,,,,,,,,,,,,,,,,,,,
,,,,right,1,2.6141,1,6,22,10,1,3,200,right,749,2022-01-20_08h21.58.448,multiplicationStroop,2021.2.3,Win32,59.56280898,,,,,,,,,,,,,,,,,,,,,,,,,,,,,,,,,,,,,,,,,,,,,,,,,,,,,,,,,
,,,,right,0,2.0049,1,7,23,3,1,4,-200,left,749,2022-01-20_08h21.58.448,multiplicationStroop,2021.2.3,Win32,59.56280898,,,,,,,,,,,,,,,,,,,,,,,,,,,,,,,,,,,,,,,,,,,,,,,,,,,,,,,,,
,,,,right,0,1.6153,1,8,24,5,1,7,-200,left,749,2022-01-20_08h21.58.448,multiplicationStroop,2021.2.3,Win32,59.56280898,,,,,,,,,,,,,,,,,,,,,,,,,,,,,,,,,,,,,,,,,,,,,,,,,,,,,,,,,
,,,,right,1,1.4802,1,9,25,9,1,2,200,right,749,2022-01-20_08h21.58.448,multiplicationStroop,2021.2.3,Win32,59.56280898,,,,,,,,,,,,,,,,,,,,,,,,,,,,,,,,,,,,,,,,,,,,,,,,,,,,,,,,,
,,,,right,1,2.0268,1,10,26,14,1,8,200,right,749,2022-01-20_08h21.58.448,multiplicationStroop,2021.2.3,Win32,59.56280898,,,,,,,,,,,,,,,,,,,,,,,,,,,,,,,,,,,,,,,,,,,,,,,,,,,,,,,,,
,,,,right,0,1.4224,1,11,27,0,1,1,-200,left,749,2022-01-20_08h21.58.448,multiplicationStroop,2021.2.3,Win32,59.56280898,,,,,,,,,,,,,,,,,,,,,,,,,,,,,,,,,,,,,,,,,,,,,,,,,,,,,,,,,
,,,,right,1,1.5181,1,12,28,8,1,1,200,right,749,2022-01-20_08h21.58.448,multiplicationStroop,2021.2.3,Win32,59.56280898,,,,,,,,,,,,,,,,,,,,,,,,,,,,,,,,,,,,,,,,,,,,,,,,,,,,,,,,,
,,,,right,0,1.5889,1,13,29,2,1,3,-200,left,749,2022-01-20_08h21.58.448,multiplicationStroop,2021.2.3,Win32,59.56280898,,,,,,,,,,,,,,,,,,,,,,,,,,,,,,,,,,,,,,,,,,,,,,,,,,,,,,,,,
,,,,right,1,2.1713,1,14,30,13,1,7,200,right,749,2022-01-20_08h21.58.448,multiplicationStroop,2021.2.3,Win32,59.56280898,,,,,,,,,,,,,,,,,,,,,,,,,,,,,,,,,,,,,,,,,,,,,,,,,,,,,,,,,
,,,,right,0,3.6859,1,15,31,6,1,8,-200,left,749,2022-01-20_08h21.58.448,multiplicationStroop,2021.2.3,Win32,59.56280898,,,,,,,,,,,,,,,,,,,,,,,,,,,,,,,,,,,,,,,,,,,,,,,,,,,,,,,,,
,,,,right,1,2.0758,2,0,32,11,1,4,200,right,749,2022-01-20_08h21.58.448,multiplicationStroop,2021.2.3,Win32,59.56280898,,,,,,,,,,,,,,,,,,,,,,,,,,,,,,,,,,,,,,,,,,,,,,,,,,,,,,,,,
,,,,right,1,1.399,2,1,33,8,1,1,200,right,749,2022-01-20_08h21.58.448,multiplicationStroop,2021.2.3,Win32,59.56280898,,,,,,,,,,,,,,,,,,,,,,,,,,,,,,,,,,,,,,,,,,,,,,,,,,,,,,,,,
,,,,right,1,1.4629,2,2,34,14,1,8,200,right,749,2022-01-20_08h21.58.448,multiplicationStroop,2021.2.3,Win32,59.56280898,,,,,,,,,,,,,,,,,,,,,,,,,,,,,,,,,,,,,,,,,,,,,,,,,,,,,,,,,
,,,,right,1,1.0048,2,3,35,10,1,3,200,right,749,2022-01-20_08h21.58.448,multiplicationStroop,2021.2.3,Win32,59.56280898,,,,,,,,,,,,,,,,,,,,,,,,,,,,,,,,,,,,,,,,,,,,,,,,,,,,,,,,,
,,,,right,0,1.5789,2,4,36,1,1,2,-200,left,749,2022-01-20_08h21.58.448,multiplicationStroop,2021.2.3,Win32,59.56280898,,,,,,,,,,,,,,,,,,,,,,,,,,,,,,,,,,,,,,,,,,,,,,,,,,,,,,,,,
,,,,right,1,1.497,2,5,37,15,1,9,200,right,749,2022-01-20_08h21.58.448,multiplicationStroop,2021.2.3,Win32,59.56280898,,,,,,,,,,,,,,,,,,,,,,,,,,,,,,,,,,,,,,,,,,,,,,,,,,,,,,,,,
,,,,right,0,1.6028,2,6,38,2,1,3,-200,left,749,2022-01-20_08h21.58.448,multiplicationStroop,2021.2.3,Win32,59.56280898,,,,,,,,,,,,,,,,,,,,,,,,,,,,,,,,,,,,,,,,,,,,,,,,,,,,,,,,,
,,,,right,0,1.8382,2,7,39,4,1,6,-200,left,749,2022-01-20_08h21.58.448,multiplicationStroop,2021.2.3,Win32,59.56280898,,,,,,,,,,,,,,,,,,,,,,,,,,,,,,,,,,,,,,,,,,,,,,,,,,,,,,,,,
,,,,right,1,1.3921,2,8,40,12,1,6,200,right,749,2022-01-20_08h21.58.448,multiplicationStroop,2021.2.3,Win32,59.56280898,,,,,,,,,,,,,,,,,,,,,,,,,,,,,,,,,,,,,,,,,,,,,,,,,,,,,,,,,
,,,,right,0,1.5472,2,9,41,5,1,7,-200,left,749,2022-01-20_08h21.58.448,multiplicationStroop,2021.2.3,Win32,59.56280898,,,,,,,,,,,,,,,,,,,,,,,,,,,,,,,,,,,,,,,,,,,,,,,,,,,,,,,,,
,,,,right,0,1.2616,2,10,42,7,1,9,-200,left,749,2022-01-20_08h21.58.448,multiplicationStroop,2021.2.3,Win32,59.56280898,,,,,,,,,,,,,,,,,,,,,,,,,,,,,,,,,,,,,,,,,,,,,,,,,,,,,,,,,
,,,,right,0,1.9112,2,11,43,0,1,1,-200,left,749,2022-01-20_08h21.58.448,multiplicationStroop,2021.2.3,Win32,59.56280898,,,,,,,,,,,,,,,,,,,,,,,,,,,,,,,,,,,,,,,,,,,,,,,,,,,,,,,,,
,,,,right,1,1.6256,2,12,44,13,1,7,200,right,749,2022-01-20_08h21.58.448,multiplicationStroop,2021.2.3,Win32,59.56280898,,,,,,,,,,,,,,,,,,,,,,,,,,,,,,,,,,,,,,,,,,,,,,,,,,,,,,,,,
,,,,right,0,2.2277,2,13,45,6,1,8,-200,left,749,2022-01-20_08h21.58.448,multiplicationStroop,2021.2.3,Win32,59.56280898,,,,,,,,,,,,,,,,,,,,,,,,,,,,,,,,,,,,,,,,,,,,,,,,,,,,,,,,,
,,,,right,1,1.7318,2,14,46,9,1,2,200,right,749,2022-01-20_08h21.58.448,multiplicationStroop,2021.2.3,Win32,59.56280898,,,,,,,,,,,,,,,,,,,,,,,,,,,,,,,,,,,,,,,,,,,,,,,,,,,,,,,,,
,,,,right,0,1.5633,2,15,47,3,1,4,-200,left,749,2022-01-20_08h21.58.448,multiplicationStroop,2021.2.3,Win32,59.56280898,,,,,,,,,,,,,,,,,,,,,,,,,,,,,,,,,,,,,,,,,,,,,,,,,,,,,,,,,
,,,,right,1,1.697,3,0,48,9,1,2,200,right,749,2022-01-20_08h21.58.448,multiplicationStroop,2021.2.3,Win32,59.56280898,,,,,,,,,,,,,,,,,,,,,,,,,,,,,,,,,,,,,,,,,,,,,,,,,,,,,,,,,
,,,,right,0,1.6956,3,1,49,7,1,9,-200,left,749,2022-01-20_08h21.58.448,multiplicationStroop,2021.2.3,Win32,59.56280898,,,,,,,,,,,,,,,,,,,,,,,,,,,,,,,,,,,,,,,,,,,,,,,,,,,,,,,,,
,,,,right,1,1.0671,3,2,50,8,1,1,200,right,749,2022-01-20_08h21.58.448,multiplicationStroop,2021.2.3,Win32,59.56280898,,,,,,,,,,,,,,,,,,,,,,,,,,,,,,,,,,,,,,,,,,,,,,,,,,,,,,,,,
,,,,right,1,1.2756,3,3,51,11,1,4,200,right,749,2022-01-20_08h21.58.448,multiplicationStroop,2021.2.3,Win32,59.56280898,,,,,,,,,,,,,,,,,,,,,,,,,,,,,,,,,,,,,,,,,,,,,,,,,,,,,,,,,
,,,,right,0,1.5104,3,4,52,6,1,8,-200,left,749,2022-01-20_08h21.58.448,multiplicationStroop,2021.2.3,Win32,59.56280898,,,,,,,,,,,,,,,,,,,,,,,,,,,,,,,,,,,,,,,,,,,,,,,,,,,,,,,,,
,,,,right,1,1.3848,3,5,53,14,1,8,200,right,749,2022-01-20_08h21.58.448,multiplicationStroop,2021.2.3,Win32,59.56280898,,,,,,,,,,,,,,,,,,,,,,,,,,,,,,,,,,,,,,,,,,,,,,,,,,,,,,,,,
,,,,right,1,1.3958,3,6,54,10,1,3,200,right,749,2022-01-20_08h21.58.448,multiplicationStroop,2021.2.3,Win32,59.56280898,,,,,,,,,,,,,,,,,,,,,,,,,,,,,,,,,,,,,,,,,,,,,,,,,,,,,,,,,
,,,,right,1,1.3585,3,7,55,12,1,6,200,right,749,2022-01-20_08h21.58.448,multiplicationStroop,2021.2.3,Win32,59.56280898,,,,,,,,,,,,,,,,,,,,,,,,,,,,,,,,,,,,,,,,,,,,,,,,,,,,,,,,,
,,,,right,0,1.3928,3,8,56,4,1,6,-200,left,749,2022-01-20_08h21.58.448,multiplicationStroop,2021.2.3,Win32,59.56280898,,,,,,,,,,,,,,,,,,,,,,,,,,,,,,,,,,,,,,,,,,,,,,,,,,,,,,,,,
,,,,right,1,1.3352,3,9,57,13,1,7,200,right,749,2022-01-20_08h21.58.448,multiplicationStroop,2021.2.3,Win32,59.56280898,,,,,,,,,,,,,,,,,,,,,,,,,,,,,,,,,,,,,,,,,,,,,,,,,,,,,,,,,
,,,,right,0,1.3016,3,10,58,5,1,7,-200,left,749,2022-01-20_08h21.58.448,multiplicationStroop,2021.2.3,Win32,59.56280898,,,,,,,,,,,,,,,,,,,,,,,,,,,,,,,,,,,,,,,,,,,,,,,,,,,,,,,,,
,,,,right,0,1.2757,3,11,59,0,1,1,-200,left,749,2022-01-20_08h21.58.448,multiplicationStroop,2021.2.3,Win32,59.56280898,,,,,,,,,,,,,,,,,,,,,,,,,,,,,,,,,,,,,,,,,,,,,,,,,,,,,,,,,
,,,,right,0,1.377,3,12,60,3,1,4,-200,left,749,2022-01-20_08h21.58.448,multiplicationStroop,2021.2.3,Win32,59.56280898,,,,,,,,,,,,,,,,,,,,,,,,,,,,,,,,,,,,,,,,,,,,,,,,,,,,,,,,,
,,,,right,0,1.4737,3,13,61,1,1,2,-200,left,749,2022-01-20_08h21.58.448,multiplicationStroop,2021.2.3,Win32,59.56280898,,,,,,,,,,,,,,,,,,,,,,,,,,,,,,,,,,,,,,,,,,,,,,,,,,,,,,,,,
,,,,right,1,1.3827,3,14,62,15,1,9,200,right,749,2022-01-20_08h21.58.448,multiplicationStroop,2021.2.3,Win32,59.56280898,,,,,,,,,,,,,,,,,,,,,,,,,,,,,,,,,,,,,,,,,,,,,,,,,,,,,,,,,
,,,,right,0,1.4956,3,15,63,2,1,3,-200,left,749,2022-01-20_08h21.58.448,multiplicationStroop,2021.2.3,Win32,59.56280898,,,,,,,,,,,,,,,,,,,,,,,,,,,,,,,,,,,,,,,,,,,,,,,,,,,,,,,,,
,,,,,,,,,,,,,,,749,2022-01-20_08h21.58.448,multiplicationStroop,2021.2.3,Win32,59.56280898,space,2.5308,space,11.981,right,1,2.1248,0,0,0,2,1,6,7,6 | 7,1,1.4111,1.9756,congruent,right,,,,,,stimulusFile/physical.xlsx,,,,,,,,,,,,,,,,,,,,,,,,,,,,,,,
,,,,,,,,,,,,,,,749,2022-01-20_08h21.58.448,multiplicationStroop,2021.2.3,Win32,59.56280898,,,,,right,1,0.6259,0,1,1,39,1,9,7,9 | 7,2,1.4111,1.9756,incongruent,right,,,,,,stimulusFile/physical.xlsx,,,,,,,,,,,,,,,,,,,,,,,,,,,,,,,
,,,,,,,,,,,,,,,749,2022-01-20_08h21.58.448,multiplicationStroop,2021.2.3,Win32,59.56280898,,,,,right,1,0.688,0,2,2,67,1,4,4,4 | 4,0,1.4111,1.9756,neutral,right,,,,,,stimulusFile/physical.xlsx,,,,,,,,,,,,,,,,,,,,,,,,,,,,,,,
,,,,,,,,,,,,,,,749,2022-01-20_08h21.58.448,multiplicationStroop,2021.2.3,Win32,59.56280898,,,,,left,1,0.5987,0,3,3,35,1,7,9,7 | 9,2,1.9756,1.4111,incongruent,left,,,,,,stimulusFile/physical.xlsx,,,,,,,,,,,,,,,,,,,,,,,,,,,,,,,
,,,,,,,,,,,,,,,749,2022-01-20_08h21.58.448,multiplicationStroop,2021.2.3,Win32,59.56280898,,,,,left,1,0.6698,0,4,4,13,1,4,2,4 | 2,2,1.9756,1.4111,congruent,left,,,,,,stimulusFile/physical.xlsx,,,,,,,,,,,,,,,,,,,,,,,,,,,,,,,
,,,,,,,,,,,,,,,749,2022-01-20_08h21.58.448,multiplicationStroop,2021.2.3,Win32,59.56280898,,,,,left,1,0.6712,0,5,5,7,1,9,8,9 | 8,1,1.9756,1.4111,congruent,left,,,,,,stimulusFile/physical.xlsx,,,,,,,,,,,,,,,,,,,,,,,,,,,,,,,
,,,,,,,,,,,,,,,749,2022-01-20_08h21.58.448,multiplicationStroop,2021.2.3,Win32,59.56280898,,,,,left,1,0.6177,0,6,6,70,1,8,8,8 | 8,0,1.9756,1.4111,neutral,left,,,,,,stimulusFile/physical.xlsx,,,,,,,,,,,,,,,,,,,,,,,,,,,,,,,
,,,,,,,,,,,,,,,749,2022-01-20_08h21.58.448,multiplicationStroop,2021.2.3,Win32,59.56280898,,,,,left,1,0.5117,0,7,7,43,1,4,9,4 | 9,5,1.9756,1.4111,incongruent,left,,,,,,stimulusFile/physical.xlsx,,,,,,,,,,,,,,,,,,,,,,,,,,,,,,,
,,,,,,,,,,,,,,,749,2022-01-20_08h21.58.448,multiplicationStroop,2021.2.3,Win32,59.56280898,,,,,left,1,0.637,0,8,8,4,1,2,1,2 | 1,1,1.9756,1.4111,congruent,left,,,,,,stimulusFile/physical.xlsx,,,,,,,,,,,,,,,,,,,,,,,,,,,,,,,
,,,,,,,,,,,,,,,749,2022-01-20_08h21.58.448,multiplicationStroop,2021.2.3,Win32,59.56280898,,,,,right,1,0.6096,0,9,9,57,1,2,2,2 | 2,0,1.4111,1.9756,neutral,right,,,,,,stimulusFile/physical.xlsx,,,,,,,,,,,,,,,,,,,,,,,,,,,,,,,
,,,,,,,,,,,,,,,749,2022-01-20_08h21.58.448,multiplicationStroop,2021.2.3,Win32,59.56280898,,,,,right,1,0.9335,0,10,10,19,1,4,9,4 | 9,5,1.4111,1.9756,congruent,right,,,,,,stimulusFile/physical.xlsx,,,,,,,,,,,,,,,,,,,,,,,,,,,,,,,
,,,,,,,,,,,,,,,749,2022-01-20_08h21.58.448,multiplicationStroop,2021.2.3,Win32,59.56280898,,,,,right,1,0.7246,0,11,11,62,1,8,8,8 | 8,0,1.4111,1.9756,neutral,right,,,,,,stimulusFile/physical.xlsx,,,,,,,,,,,,,,,,,,,,,,,,,,,,,,,
,,,,,,,,,,,,,,,749,2022-01-20_08h21.58.448,multiplicationStroop,2021.2.3,Win32,59.56280898,,,,,right,1,0.7629,0,12,12,65,1,2,2,2 | 2,0,1.4111,1.9756,neutral,right,,,,,,stimulusFile/physical.xlsx,,,,,,,,,,,,,,,,,,,,,,,,,,,,,,,
,,,,,,,,,,,,,,,749,2022-01-20_08h21.58.448,multiplicationStroop,2021.2.3,Win32,59.56280898,,,,,right,1,0.6234,0,13,13,38,1,8,6,8 | 6,2,1.4111,1.9756,incongruent,right,,,,,,stimulusFile/physical.xlsx,,,,,,,,,,,,,,,,,,,,,,,,,,,,,,,
,,,,,,,,,,,,,,,749,2022-01-20_08h21.58.448,multiplicationStroop,2021.2.3,Win32,59.56280898,,,,,left,0,0.4607,0,14,14,8,1,1,3,1 | 3,2,1.4111,1.9756,congruent,right,,,,,,stimulusFile/physical.xlsx,,,,,,,,,,,,,,,,,,,,,,,,,,,,,,,
,,,,,,,,,,,,,,,749,2022-01-20_08h21.58.448,multiplicationStroop,2021.2.3,Win32,59.56280898,,,,,right,0,1.1726,0,15,15,71,1,9,9,9 | 9,0,1.4111,1.9756,neutral,left,,,,,,stimulusFile/physical.xlsx,,,,,,,,,,,,,,,,,,,,,,,,,,,,,,,
,,,,,,,,,,,,,,,749,2022-01-20_08h21.58.448,multiplicationStroop,2021.2.3,Win32,59.56280898,,,,,left,1,0.7368,0,16,16,32,1,1,3,1 | 3,2,1.9756,1.4111,incongruent,left,,,,,,stimulusFile/physical.xlsx,,,,,,,,,,,,,,,,,,,,,,,,,,,,,,,
,,,,,,,,,,,,,,,749,2022-01-20_08h21.58.448,multiplicationStroop,2021.2.3,Win32,59.56280898,,,,,left,1,1.215,0,17,17,51,1,8,8,8 | 8,0,1.9756,1.4111,neutral,left,,,,,,stimulusFile/physical.xlsx,,,,,,,,,,,,,,,,,,,,,,,,,,,,,,,
,,,,,,,,,,,,,,,749,2022-01-20_08h21.58.448,multiplicationStroop,2021.2.3,Win32,59.56280898,,,,,left,1,0.8635,0,18,18,42,1,3,8,3 | 8,5,1.9756,1.4111,incongruent,left,,,,,,stimulusFile/physical.xlsx,,,,,,,,,,,,,,,,,,,,,,,,,,,,,,,
,,,,,,,,,,,,,,,749,2022-01-20_08h21.58.448,multiplicationStroop,2021.2.3,Win32,59.56280898,,,,,left,1,0.6249,0,19,19,68,1,6,6,6 | 6,0,1.9756,1.4111,neutral,left,,,,,,stimulusFile/physical.xlsx,,,,,,,,,,,,,,,,,,,,,,,,,,,,,,,
,,,,,,,,,,,,,,,749,2022-01-20_08h21.58.448,multiplicationStroop,2021.2.3,Win32,59.56280898,,,,,left,1,0.8227,0,20,20,50,1,6,6,6 | 6,0,1.9756,1.4111,neutral,left,,,,,,stimulusFile/physical.xlsx,,,,,,,,,,,,,,,,,,,,,,,,,,,,,,,
,,,,,,,,,,,,,,,749,2022-01-20_08h21.58.448,multiplicationStroop,2021.2.3,Win32,59.56280898,,,,,right,1,0.5077,0,21,21,63,1,9,9,9 | 9,0,1.4111,1.9756,neutral,right,,,,,,stimulusFile/physical.xlsx,,,,,,,,,,,,,,,,,,,,,,,,,,,,,,,
,,,,,,,,,,,,,,,749,2022-01-20_08h21.58.448,multiplicationStroop,2021.2.3,Win32,59.56280898,,,,,left,1,0.9134,0,22,22,34,1,6,8,6 | 8,2,1.9756,1.4111,incongruent,left,,,,,,stimulusFile/physical.xlsx,,,,,,,,,,,,,,,,,,,,,,,,,,,,,,,
,,,,,,,,,,,,,,,749,2022-01-20_08h21.58.448,multiplicationStroop,2021.2.3,Win32,59.56280898,,,,,right,1,0.8089,0,23,23,10,1,6,8,6 | 8,2,1.4111,1.9756,congruent,right,,,,,,stimulusFile/physical.xlsx,,,,,,,,,,,,,,,,,,,,,,,,,,,,,,,
,,,,,,,,,,,,,,,749,2022-01-20_08h21.58.448,multiplicationStroop,2021.2.3,Win32,59.56280898,,,,,left,1,0.9925,0,24,24,21,1,7,2,7 | 2,5,1.9756,1.4111,congruent,left,,,,,,stimulusFile/physical.xlsx,,,,,,,,,,,,,,,,,,,,,,,,,,,,,,,
,,,,,,,,,,,,,,,749,2022-01-20_08h21.58.448,multiplicationStroop,2021.2.3,Win32,59.56280898,,,,,left,1,1.2018,0,25,25,12,1,3,1,3 | 1,2,1.9756,1.4111,congruent,left,,,,,,stimulusFile/physical.xlsx,,,,,,,,,,,,,,,,,,,,,,,,,,,,,,,
,,,,,,,,,,,,,,,749,2022-01-20_08h21.58.448,multiplicationStroop,2021.2.3,Win32,59.56280898,,,,,left,1,0.7514,0,26,26,53,1,4,4,4 | 4,0,1.9756,1.4111,neutral,left,,,,,,stimulusFile/physical.xlsx,,,,,,,,,,,,,,,,,,,,,,,,,,,,,,,
,,,,,,,,,,,,,,,749,2022-01-20_08h21.58.448,multiplicationStroop,2021.2.3,Win32,59.56280898,,,,,left,1,1.2458,0,27,27,26,1,6,7,6 | 7,1,1.9756,1.4111,incongruent,left,,,,,,stimulusFile/physical.xlsx,,,,,,,,,,,,,,,,,,,,,,,,,,,,,,,
,,,,,,,,,,,,,,,749,2022-01-20_08h21.58.448,multiplicationStroop,2021.2.3,Win32,59.56280898,,,,,right,1,0.6495,0,28,28,59,1,7,7,7 | 7,0,1.4111,1.9756,neutral,right,,,,,,stimulusFile/physical.xlsx,,,,,,,,,,,,,,,,,,,,,,,,,,,,,,,
,,,,,,,,,,,,,,,749,2022-01-20_08h21.58.448,multiplicationStroop,2021.2.3,Win32,59.56280898,,,,,right,1,0.7283,0,29,29,11,1,7,9,7 | 9,2,1.4111,1.9756,congruent,right,,,,,,stimulusFile/physical.xlsx,,,,,,,,,,,,,,,,,,,,,,,,,,,,,,,
,,,,,,,,,,,,,,,749,2022-01-20_08h21.58.448,multiplicationStroop,2021.2.3,Win32,59.56280898,,,,,right,1,0.6004,0,30,30,16,1,1,6,1 | 6,5,1.4111,1.9756,congruent,right,,,,,,stimulusFile/physical.xlsx,,,,,,,,,,,,,,,,,,,,,,,,,,,,,,,
,,,,,,,,,,,,,,,749,2022-01-20_08h21.58.448,multiplicationStroop,2021.2.3,Win32,59.56280898,,,,,right,1,0.8823,0,31,31,29,1,4,3,4 | 3,1,1.4111,1.9756,incongruent,right,,,,,,stimulusFile/physical.xlsx,,,,,,,,,,,,,,,,,,,,,,,,,,,,,,,
,,,,,,,,,,,,,,,749,2022-01-20_08h21.58.448,multiplicationStroop,2021.2.3,Win32,59.56280898,,,,,right,1,0.6502,0,32,32,1,1,3,4,3 | 4,1,1.4111,1.9756,congruent,right,,,,,,stimulusFile/physical.xlsx,,,,,,,,,,,,,,,,,,,,,,,,,,,,,,,
,,,,,,,,,,,,,,,749,2022-01-20_08h21.58.448,multiplicationStroop,2021.2.3,Win32,59.56280898,,,,,right,1,0.6792,0,33,33,47,1,9,4,9 | 4,5,1.4111,1.9756,incongruent,right,,,,,,stimulusFile/physical.xlsx,,,,,,,,,,,,,,,,,,,,,,,,,,,,,,,
,,,,,,,,,,,,,,,749,2022-01-20_08h21.58.448,multiplicationStroop,2021.2.3,Win32,59.56280898,,,,,right,1,1.0757,0,34,34,30,1,7,6,7 | 6,1,1.4111,1.9756,incongruent,right,,,,,,stimulusFile/physical.xlsx,,,,,,,,,,,,,,,,,,,,,,,,,,,,,,,
,,,,,,,,,,,,,,,749,2022-01-20_08h21.58.448,multiplicationStroop,2021.2.3,Win32,59.56280898,,,,,left,1,0.5962,0,35,35,20,1,6,1,6 | 1,5,1.9756,1.4111,congruent,left,,,,,,stimulusFile/physical.xlsx,,,,,,,,,,,,,,,,,,,,,,,,,,,,,,,
,,,,,,,,,,,,,,,749,2022-01-20_08h21.58.448,multiplicationStroop,2021.2.3,Win32,59.56280898,,,,,left,1,0.8566,0,36,36,25,1,3,4,3 | 4,1,1.9756,1.4111,incongruent,left,,,,,,stimulusFile/physical.xlsx,,,,,,,,,,,,,,,,,,,,,,,,,,,,,,,
,,,,,,,,,,,,,,,749,2022-01-20_08h21.58.448,multiplicationStroop,2021.2.3,Win32,59.56280898,,,,,left,1,0.7289,0,37,37,55,1,9,9,9 | 9,0,1.9756,1.4111,neutral,left,,,,,,stimulusFile/physical.xlsx,,,,,,,,,,,,,,,,,,,,,,,,,,,,,,,
,,,,,,,,,,,,,,,749,2022-01-20_08h21.58.448,multiplicationStroop,2021.2.3,Win32,59.56280898,,,,,left,1,1.5118,0,38,38,49,1,3,3,3 | 3,0,1.9756,1.4111,neutral,left,,,,,,stimulusFile/physical.xlsx,,,,,,,,,,,,,,,,,,,,,,,,,,,,,,,
,,,,,,,,,,,,,,,749,2022-01-20_08h21.58.448,multiplicationStroop,2021.2.3,Win32,59.56280898,,,,,right,1,0.5767,0,39,39,17,1,2,7,2 | 7,5,1.4111,1.9756,congruent,right,,,,,,stimulusFile/physical.xlsx,,,,,,,,,,,,,,,,,,,,,,,,,,,,,,,
,,,,,,,,,,,,,,,749,2022-01-20_08h21.58.448,multiplicationStroop,2021.2.3,Win32,59.56280898,,,,,left,0,0.981,0,40,40,64,1,1,1,1 | 1,0,1.9756,1.4111,neutral,right,,,,,,stimulusFile/physical.xlsx,,,,,,,,,,,,,,,,,,,,,,,,,,,,,,,
,,,,,,,,,,,,,,,749,2022-01-20_08h21.58.448,multiplicationStroop,2021.2.3,Win32,59.56280898,,,,,left,1,0.585,0,41,41,22,1,8,3,8 | 3,5,1.9756,1.4111,congruent,left,,,,,,stimulusFile/physical.xlsx,,,,,,,,,,,,,,,,,,,,,,,,,,,,,,,
,,,,,,,,,,,,,,,749,2022-01-20_08h21.58.448,multiplicationStroop,2021.2.3,Win32,59.56280898,,,,,left,1,0.7902,0,42,42,54,1,7,7,7 | 7,0,1.9756,1.4111,neutral,left,,,,,,stimulusFile/physical.xlsx,,,,,,,,,,,,,,,,,,,,,,,,,,,,,,,
,,,,,,,,,,,,,,,749,2022-01-20_08h21.58.448,multiplicationStroop,2021.2.3,Win32,59.56280898,,,,,left,1,0.6222,0,43,43,15,1,9,7,9 | 7,2,1.9756,1.4111,congruent,left,,,,,,stimulusFile/physical.xlsx,,,,,,,,,,,,,,,,,,,,,,,,,,,,,,,
,,,,,,,,,,,,,,,749,2022-01-20_08h21.58.448,multiplicationStroop,2021.2.3,Win32,59.56280898,,,,,right,0,0.5582,0,44,44,69,1,7,7,7 | 7,0,1.4111,1.9756,neutral,left,,,,,,stimulusFile/physical.xlsx,,,,,,,,,,,,,,,,,,,,,,,,,,,,,,,
,,,,,,,,,,,,,,,749,2022-01-20_08h21.58.448,multiplicationStroop,2021.2.3,Win32,59.56280898,,,,,right,1,0.5756,0,45,45,58,1,6,6,6 | 6,0,1.4111,1.9756,neutral,right,,,,,,stimulusFile/physical.xlsx,,,,,,,,,,,,,,,,,,,,,,,,,,,,,,,
,,,,,,,,,,,,,,,749,2022-01-20_08h21.58.448,multiplicationStroop,2021.2.3,Win32,59.56280898,,,,,left,1,0.9744,0,46,46,52,1,2,2,2 | 2,0,1.9756,1.4111,neutral,left,,,,,,stimulusFile/physical.xlsx,,,,,,,,,,,,,,,,,,,,,,,,,,,,,,,
,,,,,,,,,,,,,,,749,2022-01-20_08h21.58.448,multiplicationStroop,2021.2.3,Win32,59.56280898,,,,,right,1,0.7332,0,47,47,18,1,3,8,3 | 8,5,1.4111,1.9756,congruent,right,,,,,,stimulusFile/physical.xlsx,,,,,,,,,,,,,,,,,,,,,,,,,,,,,,,
,,,,,,,,,,,,,,,749,2022-01-20_08h21.58.448,multiplicationStroop,2021.2.3,Win32,59.56280898,,,,,left,1,1.684,0,48,48,41,1,2,7,2 | 7,5,1.9756,1.4111,incongruent,left,,,,,,stimulusFile/physical.xlsx,,,,,,,,,,,,,,,,,,,,,,,,,,,,,,,
,,,,,,,,,,,,,,,749,2022-01-20_08h21.58.448,multiplicationStroop,2021.2.3,Win32,59.56280898,,,,,right,0,0.662,0,49,49,14,1,8,6,8 | 6,2,1.9756,1.4111,congruent,left,,,,,,stimulusFile/physical.xlsx,,,,,,,,,,,,,,,,,,,,,,,,,,,,,,,
,,,,,,,,,,,,,,,749,2022-01-20_08h21.58.448,multiplicationStroop,2021.2.3,Win32,59.56280898,,,,,left,0,1.6934,0,50,50,66,1,3,3,3 | 3,0,1.9756,1.4111,neutral,right,,,,,,stimulusFile/physical.xlsx,,,,,,,,,,,,,,,,,,,,,,,,,,,,,,,
,,,,,,,,,,,,,,,749,2022-01-20_08h21.58.448,multiplicationStroop,2021.2.3,Win32,59.56280898,,,,,left,1,0.9529,0,51,51,27,1,8,9,8 | 9,1,1.9756,1.4111,incongruent,left,,,,,,stimulusFile/physical.xlsx,,,,,,,,,,,,,,,,,,,,,,,,,,,,,,,
,,,,,,,,,,,,,,,749,2022-01-20_08h21.58.448,multiplicationStroop,2021.2.3,Win32,59.56280898,,,,,right,1,0.5633,0,52,52,28,1,2,1,2 | 1,1,1.4111,1.9756,incongruent,right,,,,,,stimulusFile/physical.xlsx,,,,,,,,,,,,,,,,,,,,,,,,,,,,,,,
,,,,,,,,,,,,,,,749,2022-01-20_08h21.58.448,multiplicationStroop,2021.2.3,Win32,59.56280898,,,,,right,1,0.7155,0,53,53,46,1,8,3,8 | 3,5,1.4111,1.9756,incongruent,right,,,,,,stimulusFile/physical.xlsx,,,,,,,,,,,,,,,,,,,,,,,,,,,,,,,
,,,,,,,,,,,,,,,749,2022-01-20_08h21.58.448,multiplicationStroop,2021.2.3,Win32,59.56280898,,,,,right,1,0.7427,0,54,54,37,1,4,2,4 | 2,2,1.4111,1.9756,incongruent,right,,,,,,stimulusFile/physical.xlsx,,,,,,,,,,,,,,,,,,,,,,,,,,,,,,,
,,,,,,,,,,,,,,,749,2022-01-20_08h21.58.448,multiplicationStroop,2021.2.3,Win32,59.56280898,,,,,left,1,0.5405,0,55,55,48,1,1,1,1 | 1,0,1.9756,1.4111,neutral,left,,,,,,stimulusFile/physical.xlsx,,,,,,,,,,,,,,,,,,,,,,,,,,,,,,,
,,,,,,,,,,,,,,,749,2022-01-20_08h21.58.448,multiplicationStroop,2021.2.3,Win32,59.56280898,,,,,right,1,1.6083,0,56,56,44,1,6,1,6 | 1,5,1.4111,1.9756,incongruent,right,,,,,,stimulusFile/physical.xlsx,,,,,,,,,,,,,,,,,,,,,,,,,,,,,,,
,,,,,,,,,,,,,,,749,2022-01-20_08h21.58.448,multiplicationStroop,2021.2.3,Win32,59.56280898,,,,,right,1,0.7738,0,57,57,0,1,1,2,1 | 2,1,1.4111,1.9756,congruent,right,,,,,,stimulusFile/physical.xlsx,,,,,,,,,,,,,,,,,,,,,,,,,,,,,,,
,,,,,,,,,,,,,,,749,2022-01-20_08h21.58.448,multiplicationStroop,2021.2.3,Win32,59.56280898,,,,,right,1,1.9036,0,58,58,45,1,7,2,7 | 2,5,1.4111,1.9756,incongruent,right,,,,,,stimulusFile/physical.xlsx,,,,,,,,,,,,,,,,,,,,,,,,,,,,,,,
,,,,,,,,,,,,,,,749,2022-01-20_08h21.58.448,multiplicationStroop,2021.2.3,Win32,59.56280898,,,,,right,1,0.8759,0,59,59,36,1,3,1,3 | 1,2,1.4111,1.9756,incongruent,right,,,,,,stimulusFile/physical.xlsx,,,,,,,,,,,,,,,,,,,,,,,,,,,,,,,
,,,,,,,,,,,,,,,749,2022-01-20_08h21.58.448,multiplicationStroop,2021.2.3,Win32,59.56280898,,,,,left,1,0.7093,0,60,60,24,1,1,2,1 | 2,1,1.9756,1.4111,incongruent,left,,,,,,stimulusFile/physical.xlsx,,,,,,,,,,,,,,,,,,,,,,,,,,,,,,,
,,,,,,,,,,,,,,,749,2022-01-20_08h21.58.448,multiplicationStroop,2021.2.3,Win32,59.56280898,,,,,right,1,0.6066,0,61,61,61,1,4,4,4 | 4,0,1.4111,1.9756,neutral,right,,,,,,stimulusFile/physical.xlsx,,,,,,,,,,,,,,,,,,,,,,,,,,,,,,,
,,,,,,,,,,,,,,,749,2022-01-20_08h21.58.448,multiplicationStroop,2021.2.3,Win32,59.56280898,,,,,left,0,0.9311,0,62,62,9,1,2,4,2 | 4,2,1.4111,1.9756,congruent,right,,,,,,stimulusFile/physical.xlsx,,,,,,,,,,,,,,,,,,,,,,,,,,,,,,,
,,,,,,,,,,,,,,,749,2022-01-20_08h21.58.448,multiplicationStroop,2021.2.3,Win32,59.56280898,,,,,right,1,1.0298,0,63,63,31,1,9,8,9 | 8,1,1.4111,1.9756,incongruent,right,,,,,,stimulusFile/physical.xlsx,,,,,,,,,,,,,,,,,,,,,,,,,,,,,,,
,,,,,,,,,,,,,,,749,2022-01-20_08h21.58.448,multiplicationStroop,2021.2.3,Win32,59.56280898,,,,,right,1,0.549,0,64,64,56,1,1,1,1 | 1,0,1.4111,1.9756,neutral,right,,,,,,stimulusFile/physical.xlsx,,,,,,,,,,,,,,,,,,,,,,,,,,,,,,,
,,,,,,,,,,,,,,,749,2022-01-20_08h21.58.448,multiplicationStroop,2021.2.3,Win32,59.56280898,,,,,left,1,0.5908,0,65,65,5,1,4,3,4 | 3,1,1.9756,1.4111,congruent,left,,,,,,stimulusFile/physical.xlsx,,,,,,,,,,,,,,,,,,,,,,,,,,,,,,,
,,,,,,,,,,,,,,,749,2022-01-20_08h21.58.448,multiplicationStroop,2021.2.3,Win32,59.56280898,,,,,left,1,0.9095,0,66,66,33,1,2,4,2 | 4,2,1.9756,1.4111,incongruent,left,,,,,,stimulusFile/physical.xlsx,,,,,,,,,,,,,,,,,,,,,,,,,,,,,,,
,,,,,,,,,,,,,,,749,2022-01-20_08h21.58.448,multiplicationStroop,2021.2.3,Win32,59.56280898,,,,,right,1,0.5643,0,67,67,3,1,8,9,8 | 9,1,1.4111,1.9756,congruent,right,,,,,,stimulusFile/physical.xlsx,,,,,,,,,,,,,,,,,,,,,,,,,,,,,,,
,,,,,,,,,,,,,,,749,2022-01-20_08h21.58.448,multiplicationStroop,2021.2.3,Win32,59.56280898,,,,,left,1,0.9297,0,68,68,40,1,1,6,1 | 6,5,1.9756,1.4111,incongruent,left,,,,,,stimulusFile/physical.xlsx,,,,,,,,,,,,,,,,,,,,,,,,,,,,,,,
,,,,,,,,,,,,,,,749,2022-01-20_08h21.58.448,multiplicationStroop,2021.2.3,Win32,59.56280898,,,,,left,1,1.1823,0,69,69,6,1,7,6,7 | 6,1,1.9756,1.4111,congruent,left,,,,,,stimulusFile/physical.xlsx,,,,,,,,,,,,,,,,,,,,,,,,,,,,,,,
,,,,,,,,,,,,,,,749,2022-01-20_08h21.58.448,multiplicationStroop,2021.2.3,Win32,59.56280898,,,,,left,1,0.8358,0,70,70,23,1,9,4,9 | 4,5,1.9756,1.4111,congruent,left,,,,,,stimulusFile/physical.xlsx,,,,,,,,,,,,,,,,,,,,,,,,,,,,,,,
,,,,,,,,,,,,,,,749,2022-01-20_08h21.58.448,multiplicationStroop,2021.2.3,Win32,59.56280898,,,,,right,1,0.5105,0,71,71,60,1,3,3,3 | 3,0,1.4111,1.9756,neutral,right,,,,,,stimulusFile/physical.xlsx,,,,,,,,,,,,,,,,,,,,,,,,,,,,,,,
,,,,,,,,,,,,,,,749,2022-01-20_08h21.58.448,multiplicationStroop,2021.2.3,Win32,59.56280898,,,,,,,,,,,,,,,,,,,,,0,0,0,1,1,stimulusFile/physical.xlsx,PHYSICALLY larger (larger font size).,images/physicallyLarger.png,,,,,,,,,,,,,,,,,,,,,,,,,,,,,
,,,,,,,,,,,,,,,749,2022-01-20_08h21.58.448,multiplicationStroop,2021.2.3,Win32,59.56280898,space,1.8528,space,15.0288,right,1,0.488,0,0,0,2,1,6,7,6 | 7,1,1.4111,1.9756,congruent,right,,,,,,stimulusFile/magnitude.xlsx,,,,,,,,,,,,,,,,,,,,,,,,,,,,,,,
,,,,,,,,,,,,,,,749,2022-01-20_08h21.58.448,multiplicationStroop,2021.2.3,Win32,59.56280898,,,,,left,1,0.6665,0,1,1,20,1,6,1,6 | 1,5,1.9756,1.4111,congruent,left,,,,,,stimulusFile/magnitude.xlsx,,,,,,,,,,,,,,,,,,,,,,,,,,,,,,,
,,,,,,,,,,,,,,,749,2022-01-20_08h21.58.448,multiplicationStroop,2021.2.3,Win32,59.56280898,,,,,left,0,0.6857,0,2,2,26,1,6,7,6 | 7,1,1.9756,1.4111,incongruent,right,,,,,,stimulusFile/magnitude.xlsx,,,,,,,,,,,,,,,,,,,,,,,,,,,,,,,
,,,,,,,,,,,,,,,749,2022-01-20_08h21.58.448,multiplicationStroop,2021.2.3,Win32,59.56280898,,,,,right,0,0.5002,0,3,3,38,1,8,6,8 | 6,2,1.4111,1.9756,incongruent,left,,,,,,stimulusFile/magnitude.xlsx,,,,,,,,,,,,,,,,,,,,,,,,,,,,,,,
,,,,,,,,,,,,,,,749,2022-01-20_08h21.58.448,multiplicationStroop,2021.2.3,Win32,59.56280898,,,,,left,1,1.5723,0,4,4,62,1,8,6,8 | 6,2,1.6933,1.6933,neutral,left,,,,,,stimulusFile/magnitude.xlsx,,,,,,,,,,,,,,,,,,,,,,,,,,,,,,,
,,,,,,,,,,,,,,,749,2022-01-20_08h21.58.448,multiplicationStroop,2021.2.3,Win32,59.56280898,,,,,left,0,0.9187,0,5,5,18,1,3,8,3 | 8,5,1.4111,1.9756,congruent,right,,,,,,stimulusFile/magnitude.xlsx,,,,,,,,,,,,,,,,,,,,,,,,,,,,,,,
,,,,,,,,,,,,,,,749,2022-01-20_08h21.58.448,multiplicationStroop,2021.2.3,Win32,59.56280898,,,,,left,1,0.4696,0,6,6,45,1,7,2,7 | 2,5,1.4111,1.9756,incongruent,left,,,,,,stimulusFile/magnitude.xlsx,,,,,,,,,,,,,,,,,,,,,,,,,,,,,,,
,,,,,,,,,,,,,,,749,2022-01-20_08h21.58.448,multiplicationStroop,2021.2.3,Win32,59.56280898,,,,,left,1,0.3956,0,7,7,54,1,7,6,7 | 6,1,1.6933,1.6933,neutral,left,,,,,,stimulusFile/magnitude.xlsx,,,,,,,,,,,,,,,,,,,,,,,,,,,,,,,
,,,,,,,,,,,,,,,749,2022-01-20_08h21.58.448,multiplicationStroop,2021.2.3,Win32,59.56280898,,,,,right,1,0.9714,0,8,8,27,1,8,9,8 | 9,1,1.9756,1.4111,incongruent,right,,,,,,stimulusFile/magnitude.xlsx,,,,,,,,,,,,,,,,,,,,,,,,,,,,,,,
,,,,,,,,,,,,,,,749,2022-01-20_08h21.58.448,multiplicationStroop,2021.2.3,Win32,59.56280898,,,,,left,1,0.5011,0,9,9,31,1,9,8,9 | 8,1,1.4111,1.9756,incongruent,left,,,,,,stimulusFile/magnitude.xlsx,,,,,,,,,,,,,,,,,,,,,,,,,,,,,,,
,,,,,,,,,,,,,,,749,2022-01-20_08h21.58.448,multiplicationStroop,2021.2.3,Win32,59.56280898,,,,,left,0,2.5341,0,10,10,58,1,6,8,6 | 8,2,1.6933,1.6933,neutral,right,,,,,,stimulusFile/magnitude.xlsx,,,,,,,,,,,,,,,,,,,,,,,,,,,,,,,
,,,,,,,,,,,,,,,749,2022-01-20_08h21.58.448,multiplicationStroop,2021.2.3,Win32,59.56280898,,,,,right,1,0.9244,0,11,11,3,1,8,9,8 | 9,1,1.4111,1.9756,congruent,right,,,,,,stimulusFile/magnitude.xlsx,,,,,,,,,,,,,,,,,,,,,,,,,,,,,,,
,,,,,,,,,,,,,,,749,2022-01-20_08h21.58.448,multiplicationStroop,2021.2.3,Win32,59.56280898,,,,,left,0,0.732,0,12,12,33,1,2,4,2 | 4,2,1.9756,1.4111,incongruent,right,,,,,,stimulusFile/magnitude.xlsx,,,,,,,,,,,,,,,,,,,,,,,,,,,,,,,
,,,,,,,,,,,,,,,749,2022-01-20_08h21.58.448,multiplicationStroop,2021.2.3,Win32,59.56280898,,,,,left,0,0.7274,0,13,13,64,1,1,6,1 | 6,5,1.6933,1.6933,neutral,right,,,,,,stimulusFile/magnitude.xlsx,,,,,,,,,,,,,,,,,,,,,,,,,,,,,,,
,,,,,,,,,,,,,,,749,2022-01-20_08h21.58.448,multiplicationStroop,2021.2.3,Win32,59.56280898,,,,,right,0,0.7617,0,14,14,36,1,3,1,3 | 1,2,1.4111,1.9756,incongruent,left,,,,,,stimulusFile/magnitude.xlsx,,,,,,,,,,,,,,,,,,,,,,,,,,,,,,,
,,,,,,,,,,,,,,,749,2022-01-20_08h21.58.448,multiplicationStroop,2021.2.3,Win32,59.56280898,,,,,right,1,1.2454,0,15,15,66,1,3,8,3 | 8,5,1.6933,1.6933,neutral,right,,,,,,stimulusFile/magnitude.xlsx,,,,,,,,,,,,,,,,,,,,,,,,,,,,,,,
,,,,,,,,,,,,,,,749,2022-01-20_08h21.58.448,multiplicationStroop,2021.2.3,Win32,59.56280898,,,,,left,0,0.6271,0,16,16,11,1,7,9,7 | 9,2,1.4111,1.9756,congruent,right,,,,,,stimulusFile/magnitude.xlsx,,,,,,,,,,,,,,,,,,,,,,,,,,,,,,,
,,,,,,,,,,,,,,,749,2022-01-20_08h21.58.448,multiplicationStroop,2021.2.3,Win32,59.56280898,,,,,right,0,1.1249,0,17,17,6,1,7,6,7 | 6,1,1.9756,1.4111,congruent,left,,,,,,stimulusFile/magnitude.xlsx,,,,,,,,,,,,,,,,,,,,,,,,,,,,,,,
,,,,,,,,,,,,,,,749,2022-01-20_08h21.58.448,multiplicationStroop,2021.2.3,Win32,59.56280898,,,,,left,1,3.3404,0,18,18,68,1,6,1,6 | 1,5,1.6933,1.6933,neutral,left,,,,,,stimulusFile/magnitude.xlsx,,,,,,,,,,,,,,,,,,,,,,,,,,,,,,,
,,,,,,,,,,,,,,,749,2022-01-20_08h21.58.448,multiplicationStroop,2021.2.3,Win32,59.56280898,,,,,right,0,0.674,0,19,19,22,1,8,3,8 | 3,5,1.9756,1.4111,congruent,left,,,,,,stimulusFile/magnitude.xlsx,,,,,,,,,,,,,,,,,,,,,,,,,,,,,,,
,,,,,,,,,,,,,,,749,2022-01-20_08h21.58.448,multiplicationStroop,2021.2.3,Win32,59.56280898,,,,,left,0,0.6651,0,20,20,19,1,4,9,4 | 9,5,1.4111,1.9756,congruent,right,,,,,,stimulusFile/magnitude.xlsx,,,,,,,,,,,,,,,,,,,,,,,,,,,,,,,
,,,,,,,,,,,,,,,749,2022-01-20_08h21.58.448,multiplicationStroop,2021.2.3,Win32,59.56280898,,,,,right,1,1.1748,0,21,21,51,1,8,9,8 | 9,1,1.6933,1.6933,neutral,right,,,,,,stimulusFile/magnitude.xlsx,,,,,,,,,,,,,,,,,,,,,,,,,,,,,,,
,,,,,,,,,,,,,,,749,2022-01-20_08h21.58.448,multiplicationStroop,2021.2.3,Win32,59.56280898,,,,,right,0,0.7249,0,22,22,69,1,7,2,7 | 2,5,1.6933,1.6933,neutral,left,,,,,,stimulusFile/magnitude.xlsx,,,,,,,,,,,,,,,,,,,,,,,,,,,,,,,
,,,,,,,,,,,,,,,749,2022-01-20_08h21.58.448,multiplicationStroop,2021.2.3,Win32,59.56280898,,,,,left,0,0.8739,0,23,23,50,1,6,7,6 | 7,1,1.6933,1.6933,neutral,right,,,,,,stimulusFile/magnitude.xlsx,,,,,,,,,,,,,,,,,,,,,,,,,,,,,,,
,,,,,,,,,,,,,,,749,2022-01-20_08h21.58.448,multiplicationStroop,2021.2.3,Win32,59.56280898,,,,,right,1,0.66,0,24,24,34,1,6,8,6 | 8,2,1.9756,1.4111,incongruent,right,,,,,,stimulusFile/magnitude.xlsx,,,,,,,,,,,,,,,,,,,,,,,,,,,,,,,
,,,,,,,,,,,,,,,749,2022-01-20_08h21.58.448,multiplicationStroop,2021.2.3,Win32,59.56280898,,,,,left,1,0.7428,0,25,25,63,1,9,7,9 | 7,2,1.6933,1.6933,neutral,left,,,,,,stimulusFile/magnitude.xlsx,,,,,,,,,,,,,,,,,,,,,,,,,,,,,,,
,,,,,,,,,,,,,,,749,2022-01-20_08h21.58.448,multiplicationStroop,2021.2.3,Win32,59.56280898,,,,,left,0,0.7408,0,26,26,16,1,1,6,1 | 6,5,1.4111,1.9756,congruent,right,,,,,,stimulusFile/magnitude.xlsx,,,,,,,,,,,,,,,,,,,,,,,,,,,,,,,
,,,,,,,,,,,,,,,749,2022-01-20_08h21.58.448,multiplicationStroop,2021.2.3,Win32,59.56280898,,,,,right,0,0.678,0,27,27,12,1,3,1,3 | 1,2,1.9756,1.4111,congruent,left,,,,,,stimulusFile/magnitude.xlsx,,,,,,,,,,,,,,,,,,,,,,,,,,,,,,,
,,,,,,,,,,,,,,,749,2022-01-20_08h21.58.448,multiplicationStroop,2021.2.3,Win32,59.56280898,,,,,right,1,0.9787,0,28,28,42,1,3,8,3 | 8,5,1.9756,1.4111,incongruent,right,,,,,,stimulusFile/magnitude.xlsx,,,,,,,,,,,,,,,,,,,,,,,,,,,,,,,
,,,,,,,,,,,,,,,749,2022-01-20_08h21.58.448,multiplicationStroop,2021.2.3,Win32,59.56280898,,,,,left,1,1.2198,0,29,29,52,1,2,1,2 | 1,1,1.6933,1.6933,neutral,left,,,,,,stimulusFile/magnitude.xlsx,,,,,,,,,,,,,,,,,,,,,,,,,,,,,,,
,,,,,,,,,,,,,,,749,2022-01-20_08h21.58.448,multiplicationStroop,2021.2.3,Win32,59.56280898,,,,,left,1,0.9962,0,30,30,39,1,9,7,9 | 7,2,1.4111,1.9756,incongruent,left,,,,,,stimulusFile/magnitude.xlsx,,,,,,,,,,,,,,,,,,,,,,,,,,,,,,,
,,,,,,,,,,,,,,,749,2022-01-20_08h21.58.448,multiplicationStroop,2021.2.3,Win32,59.56280898,,,,,right,0,1.0302,0,31,31,21,1,7,2,7 | 2,5,1.9756,1.4111,congruent,left,,,,,,stimulusFile/magnitude.xlsx,,,,,,,,,,,,,,,,,,,,,,,,,,,,,,,
,,,,,,,,,,,,,,,749,2022-01-20_08h21.58.448,multiplicationStroop,2021.2.3,Win32,59.56280898,,,,,left,0,0.6359,0,32,32,1,1,3,4,3 | 4,1,1.4111,1.9756,congruent,right,,,,,,stimulusFile/magnitude.xlsx,,,,,,,,,,,,,,,,,,,,,,,,,,,,,,,
,,,,,,,,,,,,,,,749,2022-01-20_08h21.58.448,multiplicationStroop,2021.2.3,Win32,59.56280898,,,,,left,0,1.3626,0,33,33,56,1,1,3,1 | 3,2,1.6933,1.6933,neutral,right,,,,,,stimulusFile/magnitude.xlsx,,,,,,,,,,,,,,,,,,,,,,,,,,,,,,,
,,,,,,,,,,,,,,,749,2022-01-20_08h21.58.448,multiplicationStroop,2021.2.3,Win32,59.56280898,,,,,left,1,1.0452,0,34,34,47,1,9,4,9 | 4,5,1.4111,1.9756,incongruent,left,,,,,,stimulusFile/magnitude.xlsx,,,,,,,,,,,,,,,,,,,,,,,,,,,,,,,
,,,,,,,,,,,,,,,749,2022-01-20_08h21.58.448,multiplicationStroop,2021.2.3,Win32,59.56280898,,,,,left,1,2.217,0,35,35,61,1,4,2,4 | 2,2,1.6933,1.6933,neutral,left,,,,,,stimulusFile/magnitude.xlsx,,,,,,,,,,,,,,,,,,,,,,,,,,,,,,,
,,,,,,,,,,,,,,,749,2022-01-20_08h21.58.448,multiplicationStroop,2021.2.3,Win32,59.56280898,,,,,left,0,0.7758,0,36,36,9,1,2,4,2 | 4,2,1.4111,1.9756,congruent,right,,,,,,stimulusFile/magnitude.xlsx,,,,,,,,,,,,,,,,,,,,,,,,,,,,,,,
,,,,,,,,,,,,,,,749,2022-01-20_08h21.58.448,multiplicationStroop,2021.2.3,Win32,59.56280898,,,,,left,0,0.5492,0,37,37,17,1,2,7,2 | 7,5,1.4111,1.9756,congruent,right,,,,,,stimulusFile/magnitude.xlsx,,,,,,,,,,,,,,,,,,,,,,,,,,,,,,,
,,,,,,,,,,,,,,,749,2022-01-20_08h21.58.448,multiplicationStroop,2021.2.3,Win32,59.56280898,,,,,left,1,0.873,0,38,38,37,1,4,2,4 | 2,2,1.4111,1.9756,incongruent,left,,,,,,stimulusFile/magnitude.xlsx,,,,,,,,,,,,,,,,,,,,,,,,,,,,,,,
,,,,,,,,,,,,,,,749,2022-01-20_08h21.58.448,multiplicationStroop,2021.2.3,Win32,59.56280898,,,,,left,0,0.6004,0,39,39,10,1,6,8,6 | 8,2,1.4111,1.9756,congruent,right,,,,,,stimulusFile/magnitude.xlsx,,,,,,,,,,,,,,,,,,,,,,,,,,,,,,,
,,,,,,,,,,,,,,,749,2022-01-20_08h21.58.448,multiplicationStroop,2021.2.3,Win32,59.56280898,,,,,right,0,0.6456,0,40,40,15,1,9,7,9 | 7,2,1.9756,1.4111,congruent,left,,,,,,stimulusFile/magnitude.xlsx,,,,,,,,,,,,,,,,,,,,,,,,,,,,,,,
,,,,,,,,,,,,,,,749,2022-01-20_08h21.58.448,multiplicationStroop,2021.2.3,Win32,59.56280898,,,,,left,1,1.6047,0,41,41,55,1,9,8,9 | 8,1,1.6933,1.6933,neutral,left,,,,,,stimulusFile/magnitude.xlsx,,,,,,,,,,,,,,,,,,,,,,,,,,,,,,,
,,,,,,,,,,,,,,,749,2022-01-20_08h21.58.448,multiplicationStroop,2021.2.3,Win32,59.56280898,,,,,left,1,0.7699,0,42,42,70,1,8,3,8 | 3,5,1.6933,1.6933,neutral,left,,,,,,stimulusFile/magnitude.xlsx,,,,,,,,,,,,,,,,,,,,,,,,,,,,,,,
,,,,,,,,,,,,,,,749,2022-01-20_08h21.58.448,multiplicationStroop,2021.2.3,Win32,59.56280898,,,,,right,1,0.3307,0,43,43,65,1,2,7,2 | 7,5,1.6933,1.6933,neutral,right,,,,,,stimulusFile/magnitude.xlsx,,,,,,,,,,,,,,,,,,,,,,,,,,,,,,,
,,,,,,,,,,,,,,,749,2022-01-20_08h21.58.448,multiplicationStroop,2021.2.3,Win32,59.56280898,,,,,left,1,0.1782,0,44,44,29,1,4,3,4 | 3,1,1.4111,1.9756,incongruent,left,,,,,,stimulusFile/magnitude.xlsx,,,,,,,,,,,,,,,,,,,,,,,,,,,,,,,
,,,,,,,,,,,,,,,749,2022-01-20_08h21.58.448,multiplicationStroop,2021.2.3,Win32,59.56280898,,,,,left,1,0.1377,0,45,45,46,1,8,3,8 | 3,5,1.4111,1.9756,incongruent,left,,,,,,stimulusFile/magnitude.xlsx,,,,,,,,,,,,,,,,,,,,,,,,,,,,,,,
,,,,,,,,,,,,,,,749,2022-01-20_08h21.58.448,multiplicationStroop,2021.2.3,Win32,59.56280898,,,,,right,1,0.0012,0,46,46,40,1,1,6,1 | 6,5,1.9756,1.4111,incongruent,right,,,,,,stimulusFile/magnitude.xlsx,,,,,,,,,,,,,,,,,,,,,,,,,,,,,,,
,,,,,,,,,,,,,,,749,2022-01-20_08h21.58.448,multiplicationStroop,2021.2.3,Win32,59.56280898,,,,,right,0,0.2452,0,47,47,14,1,8,6,8 | 6,2,1.9756,1.4111,congruent,left,,,,,,stimulusFile/magnitude.xlsx,,,,,,,,,,,,,,,,,,,,,,,,,,,,,,,
,,,,,,,,,,,,,,,749,2022-01-20_08h21.58.448,multiplicationStroop,2021.2.3,Win32,59.56280898,,,,,right,0,0.0617,0,48,48,30,1,7,6,7 | 6,1,1.4111,1.9756,incongruent,left,,,,,,stimulusFile/magnitude.xlsx,,,,,,,,,,,,,,,,,,,,,,,,,,,,,,,
,,,,,,,,,,,,,,,749,2022-01-20_08h21.58.448,multiplicationStroop,2021.2.3,Win32,59.56280898,,,,,left,0,0.6242,0,49,49,57,1,2,4,2 | 4,2,1.6933,1.6933,neutral,right,,,,,,stimulusFile/magnitude.xlsx,,,,,,,,,,,,,,,,,,,,,,,,,,,,,,,
,,,,,,,,,,,,,,,749,2022-01-20_08h21.58.448,multiplicationStroop,2021.2.3,Win32,59.56280898,,,,,left,0,0.0638,0,50,50,0,1,1,2,1 | 2,1,1.4111,1.9756,congruent,right,,,,,,stimulusFile/magnitude.xlsx,,,,,,,,,,,,,,,,,,,,,,,,,,,,,,,
,,,,,,,,,,,,,,,749,2022-01-20_08h21.58.448,multiplicationStroop,2021.2.3,Win32,59.56280898,,,,,right,1,0.0603,0,51,51,67,1,4,9,4 | 9,5,1.6933,1.6933,neutral,right,,,,,,stimulusFile/magnitude.xlsx,,,,,,,,,,,,,,,,,,,,,,,,,,,,,,,
,,,,,,,,,,,,,,,749,2022-01-20_08h21.58.448,multiplicationStroop,2021.2.3,Win32,59.56280898,,,,,right,0,0.0409,0,52,52,71,1,9,4,9 | 4,5,1.6933,1.6933,neutral,left,,,,,,stimulusFile/magnitude.xlsx,,,,,,,,,,,,,,,,,,,,,,,,,,,,,,,
,,,,,,,,,,,,,,,749,2022-01-20_08h21.58.448,multiplicationStroop,2021.2.3,Win32,59.56280898,,,,,left,1,0.2814,0,53,53,4,1,2,1,2 | 1,1,1.9756,1.4111,congruent,left,,,,,,stimulusFile/magnitude.xlsx,,,,,,,,,,,,,,,,,,,,,,,,,,,,,,,
,,,,,,,,,,,,,,,749,2022-01-20_08h21.58.448,multiplicationStroop,2021.2.3,Win32,59.56280898,,,,,left,1,0.108,0,54,54,28,1,2,1,2 | 1,1,1.4111,1.9756,incongruent,left,,,,,,stimulusFile/magnitude.xlsx,,,,,,,,,,,,,,,,,,,,,,,,,,,,,,,
,,,,,,,,,,,,,,,749,2022-01-20_08h21.58.448,multiplicationStroop,2021.2.3,Win32,59.56280898,,,,,left,0,0.0745,0,55,55,48,1,1,2,1 | 2,1,1.6933,1.6933,neutral,right,,,,,,stimulusFile/magnitude.xlsx,,,,,,,,,,,,,,,,,,,,,,,,,,,,,,,
,,,,,,,,,,,,,,,749,2022-01-20_08h21.58.448,multiplicationStroop,2021.2.3,Win32,59.56280898,,,,,left,0,0.0199,0,56,56,35,1,7,9,7 | 9,2,1.9756,1.4111,incongruent,right,,,,,,stimulusFile/magnitude.xlsx,,,,,,,,,,,,,,,,,,,,,,,,,,,,,,,
,,,,,,,,,,,,,,,749,2022-01-20_08h21.58.448,multiplicationStroop,2021.2.3,Win32,59.56280898,,,,,left,1,0.1903,0,57,57,7,1,9,8,9 | 8,1,1.9756,1.4111,congruent,left,,,,,,stimulusFile/magnitude.xlsx,,,,,,,,,,,,,,,,,,,,,,,,,,,,,,,
,,,,,,,,,,,,,,,749,2022-01-20_08h21.58.448,multiplicationStroop,2021.2.3,Win32,59.56280898,,,,,right,1,0.1732,0,58,58,25,1,3,4,3 | 4,1,1.9756,1.4111,incongruent,right,,,,,,stimulusFile/magnitude.xlsx,,,,,,,,,,,,,,,,,,,,,,,,,,,,,,,
,,,,,,,,,,,,,,,749,2022-01-20_08h21.58.448,multiplicationStroop,2021.2.3,Win32,59.56280898,,,,,left,0,0.0716,0,59,59,8,1,1,3,1 | 3,2,1.4111,1.9756,congruent,right,,,,,,stimulusFile/magnitude.xlsx,,,,,,,,,,,,,,,,,,,,,,,,,,,,,,,
,,,,,,,,,,,,,,,749,2022-01-20_08h21.58.448,multiplicationStroop,2021.2.3,Win32,59.56280898,,,,,right,0,0.047,0,60,60,23,1,9,4,9 | 4,5,1.9756,1.4111,congruent,left,,,,,,stimulusFile/magnitude.xlsx,,,,,,,,,,,,,,,,,,,,,,,,,,,,,,,
,,,,,,,,,,,,,,,749,2022-01-20_08h21.58.448,multiplicationStroop,2021.2.3,Win32,59.56280898,,,,,left,0,0.0579,0,61,61,49,1,3,4,3 | 4,1,1.6933,1.6933,neutral,right,,,,,,stimulusFile/magnitude.xlsx,,,,,,,,,,,,,,,,,,,,,,,,,,,,,,,
,,,,,,,,,,,,,,,749,2022-01-20_08h21.58.448,multiplicationStroop,2021.2.3,Win32,59.56280898,,,,,left,0,0.0555,0,62,62,43,1,4,9,4 | 9,5,1.9756,1.4111,incongruent,right,,,,,,stimulusFile/magnitude.xlsx,,,,,,,,,,,,,,,,,,,,,,,,,,,,,,,
,,,,,,,,,,,,,,,749,2022-01-20_08h21.58.448,multiplicationStroop,2021.2.3,Win32,59.56280898,,,,,left,1,0.0748,0,63,63,60,1,3,1,3 | 1,2,1.6933,1.6933,neutral,left,,,,,,stimulusFile/magnitude.xlsx,,,,,,,,,,,,,,,,,,,,,,,,,,,,,,,
,,,,,,,,,,,,,,,749,2022-01-20_08h21.58.448,multiplicationStroop,2021.2.3,Win32,59.56280898,,,,,right,1,0.0597,0,64,64,59,1,7,9,7 | 9,2,1.6933,1.6933,neutral,right,,,,,,stimulusFile/magnitude.xlsx,,,,,,,,,,,,,,,,,,,,,,,,,,,,,,,
,,,,,,,,,,,,,,,749,2022-01-20_08h21.58.448,multiplicationStroop,2021.2.3,Win32,59.56280898,,,,,left,1,0.0948,0,65,65,13,1,4,2,4 | 2,2,1.9756,1.4111,congruent,left,,,,,,stimulusFile/magnitude.xlsx,,,,,,,,,,,,,,,,,,,,,,,,,,,,,,,
,,,,,,,,,,,,,,,749,2022-01-20_08h21.58.448,multiplicationStroop,2021.2.3,Win32,59.56280898,,,,,left,1,0.1068,0,66,66,53,1,4,3,4 | 3,1,1.6933,1.6933,neutral,left,,,,,,stimulusFile/magnitude.xlsx,,,,,,,,,,,,,,,,,,,,,,,,,,,,,,,
,,,,,,,,,,,,,,,749,2022-01-20_08h21.58.448,multiplicationStroop,2021.2.3,Win32,59.56280898,,,,,right,1,0.0997,0,67,67,24,1,1,2,1 | 2,1,1.9756,1.4111,incongruent,right,,,,,,stimulusFile/magnitude.xlsx,,,,,,,,,,,,,,,,,,,,,,,,,,,,,,,
,,,,,,,,,,,,,,,749,2022-01-20_08h21.58.448,multiplicationStroop,2021.2.3,Win32,59.56280898,,,,,left,1,0.1295,0,68,68,44,1,6,1,6 | 1,5,1.4111,1.9756,incongruent,left,,,,,,stimulusFile/magnitude.xlsx,,,,,,,,,,,,,,,,,,,,,,,,,,,,,,,
,,,,,,,,,,,,,,,749,2022-01-20_08h21.58.448,multiplicationStroop,2021.2.3,Win32,59.56280898,,,,,right,1,0.1068,0,69,69,32,1,1,3,1 | 3,2,1.9756,1.4111,incongruent,right,,,,,,stimulusFile/magnitude.xlsx,,,,,,,,,,,,,,,,,,,,,,,,,,,,,,,
,,,,,,,,,,,,,,,749,2022-01-20_08h21.58.448,multiplicationStroop,2021.2.3,Win32,59.56280898,,,,,left,1,0.1779,0,70,70,5,1,4,3,4 | 3,1,1.9756,1.4111,congruent,left,,,,,,stimulusFile/magnitude.xlsx,,,,,,,,,,,,,,,,,,,,,,,,,,,,,,,
,,,,,,,,,,,,,,,749,2022-01-20_08h21.58.448,multiplicationStroop,2021.2.3,Win32,59.56280898,,,,,right,1,0.0534,0,71,71,41,1,2,7,2 | 7,5,1.9756,1.4111,incongruent,right,,,,,,stimulusFile/magnitude.xlsx,,,,,,,,,,,,,,,,,,,,,,,,,,,,,,,
,,,,,,,,,,,,,,,749,2022-01-20_08h21.58.448,multiplicationStroop,2021.2.3,Win32,59.56280898,,,,,,,,,,,,,,,,,,,,,0,1,1,0,1,stimulusFile/magnitude.xlsx,NUMERICALLY larger (larger coefficient).,images/numericallyLarger.png,,,,,,,,,,,,,,,,,,,,,,,,,,,,,
,,,,,,,,,,,,,,,749,2022-01-20_08h21.58.448,multiplicationStroop,2021.2.3,Win32,59.56280898,,,,,,,,,,,,,,,,,,,,,,,,,,,,,space,0.9372,space,2.7619,4,4.7874,1,0,0,0,28,1,2,×,2,2 × 2,neutral,tie,2,1,4,,,,,,,,
,,,,,,,,,,,,,,,749,2022-01-20_08h21.58.448,multiplicationStroop,2021.2.3,Win32,59.56280898,,,,,,,,,,,,,,,,,,,,,,,,,,,,,,,,,36,2.5837,1,0,1,1,0,1,4,×,9,4 × 9,congruent,smallerFirst,1,2,36,,,,,,,,
,,,,,,,,,,,,,,,749,2022-01-20_08h21.58.448,multiplicationStroop,2021.2.3,Win32,59.56280898,,,,,,,,,,,,,,,,,,,,,,,,,,,,,,,,,15,4.9484,1,0,2,2,4,1,3,×,5,3 × 5,congruent,smallerFirst,1,2,15,,,,,,,,
,,,,,,,,,,,,,,,749,2022-01-20_08h21.58.448,multiplicationStroop,2021.2.3,Win32,59.56280898,,,,,,,,,,,,,,,,,,,,,,,,,,,,,,,,,9,1.6176,1,0,3,3,29,1,3,×,3,3 × 3,neutral,tie,2,1,9,,,,,,,,
,,,,,,,,,,,,,,,749,2022-01-20_08h21.58.448,multiplicationStroop,2021.2.3,Win32,59.56280898,,,,,,,,,,,,,,,,,,,,,,,,,,,,,,,,,63,4.0147,1,0,4,4,21,1,9,×,7,9 × 7,congruent,largerFirst,2,1,63,,,,,,,,
,,,,,,,,,,,,,,,749,2022-01-20_08h21.58.448,multiplicationStroop,2021.2.3,Win32,59.56280898,,,,,,,,,,,,,,,,,,,,,,,,,,,,,,,,,27,5.1841,1,0,5,5,26,1,9,×,3,9 × 3,congruent,largerFirst,2,1,27,,,,,,,,
,,,,,,,,,,,,,,,749,2022-01-20_08h21.58.448,multiplicationStroop,2021.2.3,Win32,59.56280898,,,,,,,,,,,,,,,,,,,,,,,,,,,,,,,,,16,2.6516,1,0,6,6,5,1,2,×,8,2 × 8,congruent,smallerFirst,1,2,16,,,,,,,,
,,,,,,,,,,,,,,,749,2022-01-20_08h21.58.448,multiplicationStroop,2021.2.3,Win32,59.56280898,,,,,,,,,,,,,,,,,,,,,,,,,,,,,,,,,42,2.8304,1,0,7,7,3,1,6,×,7,6 × 7,congruent,smallerFirst,1,2,42,,,,,,,,
,,,,,,,,,,,,,,,749,2022-01-20_08h21.58.448,multiplicationStroop,2021.2.3,Win32,59.56280898,,,,,,,,,,,,,,,,,,,,,,,,,,,,,,,,,20,3.6153,1,0,8,8,7,1,4,×,5,4 × 5,congruent,smallerFirst,1,2,20,,,,,,,,
,,,,,,,,,,,,,,,749,2022-01-20_08h21.58.448,multiplicationStroop,2021.2.3,Win32,59.56280898,,,,,,,,,,,,,,,,,,,,,,,,,,,,,,,,,14,1.9511,1,0,9,9,14,1,7,×,2,7 × 2,congruent,largerFirst,2,1,14,,,,,,,,
,,,,,,,,,,,,,,,749,2022-01-20_08h21.58.448,multiplicationStroop,2021.2.3,Win32,59.56280898,,,,,,,,,,,,,,,,,,,,,,,,,,,,,,,,,24,2.9993,1,0,10,10,25,1,6,×,4,6 × 4,congruent,largerFirst,2,1,24,,,,,,,,
,,,,,,,,,,,,,,,749,2022-01-20_08h21.58.448,multiplicationStroop,2021.2.3,Win32,59.56280898,,,,,,,,,,,,,,,,,,,,,,,,,,,,,,,,,25,2.3827,1,0,11,11,31,1,5,×,5,5 × 5,neutral,tie,2,1,25,,,,,,,,
,,,,,,,,,,,,,,,749,2022-01-20_08h21.58.448,multiplicationStroop,2021.2.3,Win32,59.56280898,,,,,,,,,,,,,,,,,,,,,,,,,,,,,,,,,12,3.4013,1,0,12,12,2,1,3,×,4,3 × 4,congruent,smallerFirst,1,2,12,,,,,,,,
,,,,,,,,,,,,,,,749,2022-01-20_08h21.58.448,multiplicationStroop,2021.2.3,Win32,59.56280898,,,,,,,,,,,,,,,,,,,,,,,,,,,,,,,,,36,2.0325,1,0,13,13,32,1,6,×,6,6 × 6,neutral,tie,2,1,36,,,,,,,,
,,,,,,,,,,,,,,,749,2022-01-20_08h21.58.448,multiplicationStroop,2021.2.3,Win32,59.56280898,,,,,,,,,,,,,,,,,,,,,,,,,,,,,,,,,35,2.5831,1,0,14,14,1,1,5,×,7,5 × 7,congruent,smallerFirst,1,2,35,,,,,,,,
,,,,,,,,,,,,,,,749,2022-01-20_08h21.58.448,multiplicationStroop,2021.2.3,Win32,59.56280898,,,,,,,,,,,,,,,,,,,,,,,,,,,,,,,,,16,2.2672,1,0,15,15,30,1,4,×,4,4 × 4,neutral,tie,2,1,16,,,,,,,,
,,,,,,,,,,,,,,,749,2022-01-20_08h21.58.448,multiplicationStroop,2021.2.3,Win32,59.56280898,,,,,,,,,,,,,,,,,,,,,,,,,,,,,,,,,72,2.7326,1,0,16,16,17,1,9,×,8,9 × 8,congruent,largerFirst,2,1,72,,,,,,,,
,,,,,,,,,,,,,,,749,2022-01-20_08h21.58.448,multiplicationStroop,2021.2.3,Win32,59.56280898,,,,,,,,,,,,,,,,,,,,,,,,,,,,,,,,,32,3.5996,1,0,17,17,20,1,8,×,4,8 × 4,congruent,largerFirst,2,1,32,,,,,,,,
,,,,,,,,,,,,,,,749,2022-01-20_08h21.58.448,multiplicationStroop,2021.2.3,Win32,59.56280898,,,,,,,,,,,,,,,,,,,,,,,,,,,,,,,,,21,2.435,1,0,18,18,16,1,7,×,3,7 × 3,congruent,largerFirst,2,1,21,,,,,,,,
,,,,,,,,,,,,,,,749,2022-01-20_08h21.58.448,multiplicationStroop,2021.2.3,Win32,59.56280898,,,,,,,,,,,,,,,,,,,,,,,,,,,,,,,,,18,2.3315,1,0,19,19,11,1,3,×,6,3 × 6,congruent,smallerFirst,1,2,18,,,,,,,,
,,,,,,,,,,,,,,,749,2022-01-20_08h21.58.448,multiplicationStroop,2021.2.3,Win32,59.56280898,,,,,,,,,,,,,,,,,,,,,,,,,,,,,,,,,30,2.1996,1,0,20,20,15,1,6,×,5,6 × 5,congruent,largerFirst,2,1,30,,,,,,,,
,,,,,,,,,,,,,,,749,2022-01-20_08h21.58.448,multiplicationStroop,2021.2.3,Win32,59.56280898,,,,,,,,,,,,,,,,,,,,,,,,,,,,,,,,,48,3.6984,1,0,21,21,18,1,8,×,6,8 × 6,congruent,largerFirst,2,1,48,,,,,,,,
,,,,,,,,,,,,,,,749,2022-01-20_08h21.58.448,multiplicationStroop,2021.2.3,Win32,59.56280898,,,,,,,,,,,,,,,,,,,,,,,,,,,,,,,,,56,2.1565,1,0,22,22,8,1,7,×,8,7 × 8,congruent,smallerFirst,1,2,56,,,,,,,,
,,,,,,,,,,,,,,,749,2022-01-20_08h21.58.448,multiplicationStroop,2021.2.3,Win32,59.56280898,,,,,,,,,,,,,,,,,,,,,,,,,,,,,,,,,49,1.9829,1,0,23,23,33,1,7,×,7,7 × 7,neutral,tie,2,1,49,,,,,,,,
,,,,,,,,,,,,,,,749,2022-01-20_08h21.58.448,multiplicationStroop,2021.2.3,Win32,59.56280898,,,,,,,,,,,,,,,,,,,,,,,,,,,,,,,,,81,3.3993,1,0,24,24,35,1,9,×,9,9 × 9,neutral,tie,2,1,81,,,,,,,,
,,,,,,,,,,,,,,,749,2022-01-20_08h21.58.448,multiplicationStroop,2021.2.3,Win32,59.56280898,,,,,,,,,,,,,,,,,,,,,,,,,,,,,,,,,6,1.9842,1,0,25,25,13,1,2,×,3,2 × 3,congruent,smallerFirst,1,2,6,,,,,,,,
,,,,,,,,,,,,,,,749,2022-01-20_08h21.58.448,multiplicationStroop,2021.2.3,Win32,59.56280898,,,,,,,,,,,,,,,,,,,,,,,,,,,,,,,,,64,7.7992,1,0,26,26,34,1,8,×,8,8 × 8,neutral,tie,2,1,64,,,,,,,,
,,,,,,,,,,,,,,,749,2022-01-20_08h21.58.448,multiplicationStroop,2021.2.3,Win32,59.56280898,,,,,,,,,,,,,,,,,,,,,,,,,,,,,,,,,28,6.7496,1,0,27,27,27,1,7,×,4,7 × 4,congruent,largerFirst,2,1,28,,,,,,,,
,,,,,,,,,,,,,,,749,2022-01-20_08h21.58.448,multiplicationStroop,2021.2.3,Win32,59.56280898,,,,,,,,,,,,,,,,,,,,,,,,,,,,,,,,,8,2.3501,1,0,28,28,9,1,2,×,4,2 × 4,congruent,smallerFirst,1,2,8,,,,,,,,
,,,,,,,,,,,,,,,749,2022-01-20_08h21.58.448,multiplicationStroop,2021.2.3,Win32,59.56280898,,,,,,,,,,,,,,,,,,,,,,,,,,,,,,,,,18,2.2996,1,0,29,29,22,1,9,×,2,9 × 2,congruent,largerFirst,2,1,18,,,,,,,,
,,,,,,,,,,,,,,,749,2022-01-20_08h21.58.448,multiplicationStroop,2021.2.3,Win32,59.56280898,,,,,,,,,,,,,,,,,,,,,,,,,,,,,,,,,40,1.9327,1,0,30,30,6,1,5,×,8,5 × 8,congruent,smallerFirst,1,2,40,,,,,,,,
,,,,,,,,,,,,,,,749,2022-01-20_08h21.58.448,multiplicationStroop,2021.2.3,Win32,59.56280898,,,,,,,,,,,,,,,,,,,,,,,,,,,,,,,,,54,2.6838,1,0,31,31,12,1,6,×,9,6 × 9,congruent,smallerFirst,1,2,54,,,,,,,,
,,,,,,,,,,,,,,,749,2022-01-20_08h21.58.448,multiplicationStroop,2021.2.3,Win32,59.56280898,,,,,,,,,,,,,,,,,,,,,,,,,,,,,,,,,10,2.1807,1,0,32,32,24,1,5,×,2,5 × 2,congruent,largerFirst,2,1,10,,,,,,,,
,,,,,,,,,,,,,,,749,2022-01-20_08h21.58.448,multiplicationStroop,2021.2.3,Win32,59.56280898,,,,,,,,,,,,,,,,,,,,,,,,,,,,,,,,,24,3.7162,1,0,33,33,10,1,3,×,8,3 × 8,congruent,smallerFirst,1,2,24,,,,,,,,
,,,,,,,,,,,,,,,749,2022-01-20_08h21.58.448,multiplicationStroop,2021.2.3,Win32,59.56280898,,,,,,,,,,,,,,,,,,,,,,,,,,,,,,,,,45,2.1995,1,0,34,34,23,1,9,×,5,9 × 5,congruent,largerFirst,2,1,45,,,,,,,,
,,,,,,,,,,,,,,,749,2022-01-20_08h21.58.448,multiplicationStroop,2021.2.3,Win32,59.56280898,,,,,,,,,,,,,,,,,,,,,,,,,,,,,,,,,12,1.601,1,0,35,35,19,1,6,×,2,6 × 2,congruent,largerFirst,2,1,12,,,,,,,,
,,,,,,,,,,,,,,,749,2022-01-20_08h21.58.448,multiplicationStroop,2021.2.3,Win32,59.56280898,,,,,,,,,,,,,,,,,,,,,,,,,,,,,,,,,,,,,,,,,,,,,,,,,,0,0,0,2,1,stimulusFile/mult_blk3_congruent.xlsx,,
,,,,,,,,,,,,,,,749,2022-01-20_08h21.58.448,multiplicationStroop,2021.2.3,Win32,59.56280898,,,,,,,,,,,,,,,,,,,,,,,,,,,,,,,space,2.7028,28,2.966,1,0,0,0,16,1,7,×,4,7 × 4,incongruent,largerFirst,1,2,28,,,,,,,,
,,,,,,,,,,,,,,,749,2022-01-20_08h21.58.448,multiplicationStroop,2021.2.3,Win32,59.56280898,,,,,,,,,,,,,,,,,,,,,,,,,,,,,,,,,9,1.6659,1,0,1,1,29,1,3,×,3,3 × 3,incongruent,tie,1,2,9,,,,,,,,
,,,,,,,,,,,,,,,749,2022-01-20_08h21.58.448,multiplicationStroop,2021.2.3,Win32,59.56280898,,,,,,,,,,,,,,,,,,,,,,,,,,,,,,,,,32,2.4494,1,0,2,2,7,1,4,×,8,4 × 8,incongruent,smallerFirst,2,1,32,,,,,,,,
,,,,,,,,,,,,,,,749,2022-01-20_08h21.58.448,multiplicationStroop,2021.2.3,Win32,59.56280898,,,,,,,,,,,,,,,,,,,,,,,,,,,,,,,,,35,7.5995,1,0,3,3,12,1,5,×,7,5 × 7,incongruent,smallerFirst,2,1,35,,,,,,,,
,,,,,,,,,,,,,,,749,2022-01-20_08h21.58.448,multiplicationStroop,2021.2.3,Win32,59.56280898,,,,,,,,,,,,,,,,,,,,,,,,,,,,,,,,,24,2.6829,1,0,4,4,9,1,3,×,8,3 × 8,incongruent,smallerFirst,2,1,24,,,,,,,,
,,,,,,,,,,,,,,,749,2022-01-20_08h21.58.448,multiplicationStroop,2021.2.3,Win32,59.56280898,,,,,,,,,,,,,,,,,,,,,,,,,,,,,,,,,5,2.1162,0,0,5,5,14,1,8,×,7,8 × 7,incongruent,largerFirst,1,2,56,,,,,,,,
,,,,,,,,,,,,,,,749,2022-01-20_08h21.58.448,multiplicationStroop,2021.2.3,Win32,59.56280898,,,,,,,,,,,,,,,,,,,,,,,,,,,,,,,,,27,4.0829,1,0,6,6,18,1,9,×,3,9 × 3,incongruent,largerFirst,1,2,27,,,,,,,,
,,,,,,,,,,,,,,,749,2022-01-20_08h21.58.448,multiplicationStroop,2021.2.3,Win32,59.56280898,,,,,,,,,,,,,,,,,,,,,,,,,,,,,,,,,8,2.7175,1,0,7,7,24,1,4,×,2,4 × 2,incongruent,largerFirst,1,2,8,,,,,,,,
,,,,,,,,,,,,,,,749,2022-01-20_08h21.58.448,multiplicationStroop,2021.2.3,Win32,59.56280898,,,,,,,,,,,,,,,,,,,,,,,,,,,,,,,,,72,3.1664,1,0,8,8,0,1,8,×,9,8 × 9,incongruent,smallerFirst,2,1,72,,,,,,,,
,,,,,,,,,,,,,,,749,2022-01-20_08h21.58.448,multiplicationStroop,2021.2.3,Win32,59.56280898,,,,,,,,,,,,,,,,,,,,,,,,,,,,,,,,,63,5.2012,1,0,9,9,3,1,7,×,9,7 × 9,incongruent,smallerFirst,2,1,63,,,,,,,,
,,,,,,,,,,,,,,,749,2022-01-20_08h21.58.448,multiplicationStroop,2021.2.3,Win32,59.56280898,,,,,,,,,,,,,,,,,,,,,,,,,,,,,,,,,20,2.0845,1,0,10,10,27,1,5,×,4,5 × 4,incongruent,largerFirst,1,2,20,,,,,,,,
,,,,,,,,,,,,,,,749,2022-01-20_08h21.58.448,multiplicationStroop,2021.2.3,Win32,59.56280898,,,,,,,,,,,,,,,,,,,,,,,,,,,,,,,,,25,2.6512,1,0,11,11,31,1,5,×,5,5 × 5,incongruent,tie,1,2,25,,,,,,,,
,,,,,,,,,,,,,,,749,2022-01-20_08h21.58.448,multiplicationStroop,2021.2.3,Win32,59.56280898,,,,,,,,,,,,,,,,,,,,,,,,,,,,,,,,,4,1.7493,1,0,12,12,28,1,2,×,2,2 × 2,incongruent,tie,1,2,4,,,,,,,,
,,,,,,,,,,,,,,,749,2022-01-20_08h21.58.448,multiplicationStroop,2021.2.3,Win32,59.56280898,,,,,,,,,,,,,,,,,,,,,,,,,,,,,,,,,54,3.0328,1,0,13,13,6,1,6,×,9,6 × 9,incongruent,smallerFirst,2,1,54,,,,,,,,
,,,,,,,,,,,,,,,749,2022-01-20_08h21.58.448,multiplicationStroop,2021.2.3,Win32,59.56280898,,,,,,,,,,,,,,,,,,,,,,,,,,,,,,,,,64,6.0327,1,0,14,14,34,1,8,×,8,8 × 8,incongruent,tie,1,2,64,,,,,,,,
,,,,,,,,,,,,,,,749,2022-01-20_08h21.58.448,multiplicationStroop,2021.2.3,Win32,59.56280898,,,,,,,,,,,,,,,,,,,,,,,,,,,,,,,,,36,4.5344,1,0,15,15,15,1,9,×,4,9 × 4,incongruent,largerFirst,1,2,36,,,,,,,,
,,,,,,,,,,,,,,,749,2022-01-20_08h21.58.448,multiplicationStroop,2021.2.3,Win32,59.56280898,,,,,,,,,,,,,,,,,,,,,,,,,,,,,,,,,21,3.2009,1,0,16,16,26,1,7,×,3,7 × 3,incongruent,largerFirst,1,2,21,,,,,,,,
,,,,,,,,,,,,,,,749,2022-01-20_08h21.58.448,multiplicationStroop,2021.2.3,Win32,59.56280898,,,,,,,,,,,,,,,,,,,,,,,,,,,,,,,,,36,2.8663,1,0,17,17,32,1,6,×,6,6 × 6,incongruent,tie,1,2,36,,,,,,,,
,,,,,,,,,,,,,,,749,2022-01-20_08h21.58.448,multiplicationStroop,2021.2.3,Win32,59.56280898,,,,,,,,,,,,,,,,,,,,,,,,,,,,,,,,,42,2.0338,1,0,18,18,17,1,7,×,6,7 × 6,incongruent,largerFirst,1,2,42,,,,,,,,
,,,,,,,,,,,,,,,749,2022-01-20_08h21.58.448,multiplicationStroop,2021.2.3,Win32,59.56280898,,,,,,,,,,,,,,,,,,,,,,,,,,,,,,,,,12,1.8658,1,0,19,19,19,1,6,×,2,6 × 2,incongruent,largerFirst,1,2,12,,,,,,,,
,,,,,,,,,,,,,,,749,2022-01-20_08h21.58.448,multiplicationStroop,2021.2.3,Win32,59.56280898,,,,,,,,,,,,,,,,,,,,,,,,,,,,,,,,,18,2.7167,1,0,20,20,2,1,2,×,9,2 × 9,incongruent,smallerFirst,2,1,18,,,,,,,,
,,,,,,,,,,,,,,,749,2022-01-20_08h21.58.448,multiplicationStroop,2021.2.3,Win32,59.56280898,,,,,,,,,,,,,,,,,,,,,,,,,,,,,,,,,30,1.9494,1,0,21,21,25,1,6,×,5,6 × 5,incongruent,largerFirst,1,2,30,,,,,,,,
,,,,,,,,,,,,,,,749,2022-01-20_08h21.58.448,multiplicationStroop,2021.2.3,Win32,59.56280898,,,,,,,,,,,,,,,,,,,,,,,,,,,,,,,,,15,1.9326,1,0,22,22,10,1,3,×,5,3 × 5,incongruent,smallerFirst,2,1,15,,,,,,,,
,,,,,,,,,,,,,,,749,2022-01-20_08h21.58.448,multiplicationStroop,2021.2.3,Win32,59.56280898,,,,,,,,,,,,,,,,,,,,,,,,,,,,,,,,,14,1.6996,1,0,23,23,4,1,2,×,7,2 × 7,incongruent,smallerFirst,2,1,14,,,,,,,,
,,,,,,,,,,,,,,,749,2022-01-20_08h21.58.448,multiplicationStroop,2021.2.3,Win32,59.56280898,,,,,,,,,,,,,,,,,,,,,,,,,,,,,,,,,16,3.416,1,0,24,24,30,1,4,×,4,4 × 4,incongruent,tie,1,2,16,,,,,,,,
,,,,,,,,,,,,,,,749,2022-01-20_08h21.58.448,multiplicationStroop,2021.2.3,Win32,59.56280898,,,,,,,,,,,,,,,,,,,,,,,,,,,,,,,,,81,5.5495,1,0,25,25,35,1,9,×,9,9 × 9,incongruent,tie,1,2,81,,,,,,,,
,,,,,,,,,,,,,,,749,2022-01-20_08h21.58.448,multiplicationStroop,2021.2.3,Win32,59.56280898,,,,,,,,,,,,,,,,,,,,,,,,,,,,,,,,,10,2.6673,1,0,26,26,21,1,5,×,2,5 × 2,incongruent,largerFirst,1,2,10,,,,,,,,
,,,,,,,,,,,,,,,749,2022-01-20_08h21.58.448,multiplicationStroop,2021.2.3,Win32,59.56280898,,,,,,,,,,,,,,,,,,,,,,,,,,,,,,,,,49,2.883,1,0,27,27,33,1,7,×,7,7 × 7,incongruent,tie,1,2,49,,,,,,,,
,,,,,,,,,,,,,,,749,2022-01-20_08h21.58.448,multiplicationStroop,2021.2.3,Win32,59.56280898,,,,,,,,,,,,,,,,,,,,,,,,,,,,,,,,,18,2.9342,1,0,28,28,8,1,3,×,6,3 × 6,incongruent,smallerFirst,2,1,18,,,,,,,,
,,,,,,,,,,,,,,,749,2022-01-20_08h21.58.448,multiplicationStroop,2021.2.3,Win32,59.56280898,,,,,,,,,,,,,,,,,,,,,,,,,,,,,,,,,48,2.7328,1,0,29,29,1,1,6,×,8,6 × 8,incongruent,smallerFirst,2,1,48,,,,,,,,
,,,,,,,,,,,,,,,749,2022-01-20_08h21.58.448,multiplicationStroop,2021.2.3,Win32,59.56280898,,,,,,,,,,,,,,,,,,,,,,,,,,,,,,,,,6,3.0346,1,0,30,30,11,1,2,×,3,2 × 3,incongruent,smallerFirst,2,1,6,,,,,,,,
,,,,,,,,,,,,,,,749,2022-01-20_08h21.58.448,multiplicationStroop,2021.2.3,Win32,59.56280898,,,,,,,,,,,,,,,,,,,,,,,,,,,,,,,,,24,2.9494,1,0,31,31,20,1,6,×,4,6 × 4,incongruent,largerFirst,1,2,24,,,,,,,,
,,,,,,,,,,,,,,,749,2022-01-20_08h21.58.448,multiplicationStroop,2021.2.3,Win32,59.56280898,,,,,,,,,,,,,,,,,,,,,,,,,,,,,,,,,16,2.6181,1,0,32,32,23,1,8,×,2,8 × 2,incongruent,largerFirst,1,2,16,,,,,,,,
,,,,,,,,,,,,,,,749,2022-01-20_08h21.58.448,multiplicationStroop,2021.2.3,Win32,59.56280898,,,,,,,,,,,,,,,,,,,,,,,,,,,,,,,,,40,3.3328,1,0,33,33,13,1,5,×,8,5 × 8,incongruent,smallerFirst,2,1,40,,,,,,,,
,,,,,,,,,,,,,,,749,2022-01-20_08h21.58.448,multiplicationStroop,2021.2.3,Win32,59.56280898,,,,,,,,,,,,,,,,,,,,,,,,,,,,,,,,,4,6.5008,0,0,34,34,22,1,9,×,5,9 × 5,incongruent,largerFirst,1,2,45,,,,,,,,
,,,,,,,,,,,,,,,749,2022-01-20_08h21.58.448,multiplicationStroop,2021.2.3,Win32,59.56280898,,,,,,,,,,,,,,,,,,,,,,,,,,,,,,,,,12,4.4346,1,0,35,35,5,1,3,×,4,3 × 4,incongruent,smallerFirst,2,1,12,,,,,,,,
,,,,,,,,,,,,,,,749,2022-01-20_08h21.58.448,multiplicationStroop,2021.2.3,Win32,59.56280898,,,,,,,,,,,,,,,,,,,,,,,,,,,,,,,,,,,,,,,,,,,,,,,,,,0,1,1,5,1,stimulusFile/mult_blk6_INcongruent.xlsx,,
,,,,,,,,,,,,,,,749,2022-01-20_08h21.58.448,multiplicationStroop,2021.2.3,Win32,59.56280898,,,,,,,,,,,,,,,,,,,,,,,,,,,,,,,space,2.0382,20,5.5845,1,0,0,0,13,1,4,×,5,4 × 5,incongruent,smallerFirst,2,1,20,,,,,,,,
,,,,,,,,,,,,,,,749,2022-01-20_08h21.58.448,multiplicationStroop,2021.2.3,Win32,59.56280898,,,,,,,,,,,,,,,,,,,,,,,,,,,,,,,,,27,3.6855,1,0,1,1,4,1,3,×,9,3 × 9,incongruent,smallerFirst,2,1,27,,,,,,,,
,,,,,,,,,,,,,,,749,2022-01-20_08h21.58.448,multiplicationStroop,2021.2.3,Win32,59.56280898,,,,,,,,,,,,,,,,,,,,,,,,,,,,,,,,,72,2.8681,1,0,2,2,14,1,9,×,8,9 × 8,incongruent,largerFirst,1,2,72,,,,,,,,
,,,,,,,,,,,,,,,749,2022-01-20_08h21.58.448,multiplicationStroop,2021.2.3,Win32,59.56280898,,,,,,,,,,,,,,,,,,,,,,,,,,,,,,,,,12,4.2325,1,0,3,3,19,1,4,×,3,4 × 3,incongruent,largerFirst,1,2,12,,,,,,,,
,,,,,,,,,,,,,,,749,2022-01-20_08h21.58.448,multiplicationStroop,2021.2.3,Win32,59.56280898,,,,,,,,,,,,,,,,,,,,,,,,,,,,,,,,,18,2.2508,1,0,4,4,22,1,6,×,3,6 × 3,incongruent,largerFirst,1,2,18,,,,,,,,
,,,,,,,,,,,,,,,749,2022-01-20_08h21.58.448,multiplicationStroop,2021.2.3,Win32,59.56280898,,,,,,,,,,,,,,,,,,,,,,,,,,,,,,,,,36,2.3679,1,0,5,5,1,1,4,×,9,4 × 9,incongruent,smallerFirst,2,1,36,,,,,,,,
,,,,,,,,,,,,,,,749,2022-01-20_08h21.58.448,multiplicationStroop,2021.2.3,Win32,59.56280898,,,,,,,,,,,,,,,,,,,,,,,,,,,,,,,,,24,3.1494,1,0,6,6,6,1,4,×,6,4 × 6,incongruent,smallerFirst,2,1,24,,,,,,,,
,,,,,,,,,,,,,,,749,2022-01-20_08h21.58.448,multiplicationStroop,2021.2.3,Win32,59.56280898,,,,,,,,,,,,,,,,,,,,,,,,,,,,,,,,,49,2.2829,1,0,7,7,33,1,7,×,7,7 × 7,neutral,tie,2,1,49,,,,,,,,
,,,,,,,,,,,,,,,749,2022-01-20_08h21.58.448,multiplicationStroop,2021.2.3,Win32,59.56280898,,,,,,,,,,,,,,,,,,,,,,,,,,,,,,,,,14,1.6996,1,0,8,8,18,1,7,×,2,7 × 2,incongruent,largerFirst,1,2,14,,,,,,,,
,,,,,,,,,,,,,,,749,2022-01-20_08h21.58.448,multiplicationStroop,2021.2.3,Win32,59.56280898,,,,,,,,,,,,,,,,,,,,,,,,,,,,,,,,,48,2.5498,1,0,9,9,15,1,8,×,6,8 × 6,incongruent,largerFirst,1,2,48,,,,,,,,
,,,,,,,,,,,,,,,749,2022-01-20_08h21.58.448,multiplicationStroop,2021.2.3,Win32,59.56280898,,,,,,,,,,,,,,,,,,,,,,,,,,,,,,,,,16,2.7175,1,0,10,10,30,1,4,×,4,4 × 4,neutral,tie,2,1,16,,,,,,,,
,,,,,,,,,,,,,,,749,2022-01-20_08h21.58.448,multiplicationStroop,2021.2.3,Win32,59.56280898,,,,,,,,,,,,,,,,,,,,,,,,,,,,,,,,,9,2.3659,1,0,11,11,29,1,3,×,3,3 × 3,neutral,tie,2,1,9,,,,,,,,
,,,,,,,,,,,,,,,749,2022-01-20_08h21.58.448,multiplicationStroop,2021.2.3,Win32,59.56280898,,,,,,,,,,,,,,,,,,,,,,,,,,,,,,,,,12,1.7827,1,0,12,12,5,1,2,×,6,2 × 6,incongruent,smallerFirst,2,1,12,,,,,,,,
,,,,,,,,,,,,,,,749,2022-01-20_08h21.58.448,multiplicationStroop,2021.2.3,Win32,59.56280898,,,,,,,,,,,,,,,,,,,,,,,,,,,,,,,,,81,2.4496,1,0,13,13,35,1,9,×,9,9 × 9,neutral,tie,2,1,81,,,,,,,,
,,,,,,,,,,,,,,,749,2022-01-20_08h21.58.448,multiplicationStroop,2021.2.3,Win32,59.56280898,,,,,,,,,,,,,,,,,,,,,,,,,,,,,,,,,56,3.1326,1,0,14,14,0,1,7,×,8,7 × 8,incongruent,smallerFirst,2,1,56,,,,,,,,
,,,,,,,,,,,,,,,749,2022-01-20_08h21.58.448,multiplicationStroop,2021.2.3,Win32,59.56280898,,,,,,,,,,,,,,,,,,,,,,,,,,,,,,,,,21,3.5344,1,0,15,15,12,1,3,×,7,3 × 7,incongruent,smallerFirst,2,1,21,,,,,,,,
,,,,,,,,,,,,,,,749,2022-01-20_08h21.58.448,multiplicationStroop,2021.2.3,Win32,59.56280898,,,,,,,,,,,,,,,,,,,,,,,,,,,,,,,,,64,4.6058,1,0,16,16,34,1,8,×,8,8 × 8,neutral,tie,2,1,64,,,,,,,,
,,,,,,,,,,,,,,,749,2022-01-20_08h21.58.448,multiplicationStroop,2021.2.3,Win32,59.56280898,,,,,,,,,,,,,,,,,,,,,,,,,,,,,,,,,32,4.0133,1,0,17,17,21,1,8,×,4,8 × 4,incongruent,largerFirst,1,2,32,,,,,,,,
,,,,,,,,,,,,,,,749,2022-01-20_08h21.58.448,multiplicationStroop,2021.2.3,Win32,59.56280898,,,,,,,,,,,,,,,,,,,,,,,,,,,,,,,,,6,1.9676,1,0,18,18,25,1,3,×,2,3 × 2,incongruent,largerFirst,1,2,6,,,,,,,,
,,,,,,,,,,,,,,,749,2022-01-20_08h21.58.448,multiplicationStroop,2021.2.3,Win32,59.56280898,,,,,,,,,,,,,,,,,,,,,,,,,,,,,,,,,4,1.5495,1,0,19,19,28,1,2,×,2,2 × 2,neutral,tie,2,1,4,,,,,,,,
,,,,,,,,,,,,,,,749,2022-01-20_08h21.58.448,multiplicationStroop,2021.2.3,Win32,59.56280898,,,,,,,,,,,,,,,,,,,,,,,,,,,,,,,,,45,2.4326,1,0,20,20,8,1,5,×,9,5 × 9,incongruent,smallerFirst,2,1,45,,,,,,,,
,,,,,,,,,,,,,,,749,2022-01-20_08h21.58.448,multiplicationStroop,2021.2.3,Win32,59.56280898,,,,,,,,,,,,,,,,,,,,,,,,,,,,,,,,,18,4.4491,0,0,21,21,9,1,2,×,8,2 × 8,incongruent,smallerFirst,2,1,16,,,,,,,,
,,,,,,,,,,,,,,,749,2022-01-20_08h21.58.448,multiplicationStroop,2021.2.3,Win32,59.56280898,,,,,,,,,,,,,,,,,,,,,,,,,,,,,,,,,54,3.9175,1,0,22,22,20,1,9,×,6,9 × 6,incongruent,largerFirst,1,2,54,,,,,,,,
,,,,,,,,,,,,,,,749,2022-01-20_08h21.58.448,multiplicationStroop,2021.2.3,Win32,59.56280898,,,,,,,,,,,,,,,,,,,,,,,,,,,,,,,,,15,2.1012,1,0,23,23,24,1,5,×,3,5 × 3,incongruent,largerFirst,1,2,15,,,,,,,,
,,,,,,,,,,,,,,,749,2022-01-20_08h21.58.448,multiplicationStroop,2021.2.3,Win32,59.56280898,,,,,,,,,,,,,,,,,,,,,,,,,,,,,,,,,40,7.9823,1,0,24,24,27,1,8,×,5,8 × 5,incongruent,largerFirst,1,2,40,,,,,,,,
,,,,,,,,,,,,,,,749,2022-01-20_08h21.58.448,multiplicationStroop,2021.2.3,Win32,59.56280898,,,,,,,,,,,,,,,,,,,,,,,,,,,,,,,,,28,3.6663,1,0,25,25,2,1,4,×,7,4 × 7,incongruent,smallerFirst,2,1,28,,,,,,,,
,,,,,,,,,,,,,,,749,2022-01-20_08h21.58.448,multiplicationStroop,2021.2.3,Win32,59.56280898,,,,,,,,,,,,,,,,,,,,,,,,,,,,,,,,,1,1.3164,0,0,26,26,7,1,2,×,5,2 × 5,incongruent,smallerFirst,2,1,10,,,,,,,,
,,,,,,,,,,,,,,,749,2022-01-20_08h21.58.448,multiplicationStroop,2021.2.3,Win32,59.56280898,,,,,,,,,,,,,,,,,,,,,,,,,,,,,,,,,30,4.0494,1,0,27,27,11,1,5,×,6,5 × 6,incongruent,smallerFirst,2,1,30,,,,,,,,
,,,,,,,,,,,,,,,749,2022-01-20_08h21.58.448,multiplicationStroop,2021.2.3,Win32,59.56280898,,,,,,,,,,,,,,,,,,,,,,,,,,,,,,,,,24,2.6345,1,0,28,28,23,1,8,×,3,8 × 3,incongruent,largerFirst,1,2,24,,,,,,,,
,,,,,,,,,,,,,,,749,2022-01-20_08h21.58.448,multiplicationStroop,2021.2.3,Win32,59.56280898,,,,,,,,,,,,,,,,,,,,,,,,,,,,,,,,,18,2.0156,1,0,29,29,16,1,9,×,2,9 × 2,incongruent,largerFirst,1,2,18,,,,,,,,
,,,,,,,,,,,,,,,749,2022-01-20_08h21.58.448,multiplicationStroop,2021.2.3,Win32,59.56280898,,,,,,,,,,,,,,,,,,,,,,,,,,,,,,,,,25,1.933,1,0,30,30,31,1,5,×,5,5 × 5,neutral,tie,2,1,25,,,,,,,,
,,,,,,,,,,,,,,,749,2022-01-20_08h21.58.448,multiplicationStroop,2021.2.3,Win32,59.56280898,,,,,,,,,,,,,,,,,,,,,,,,,,,,,,,,,63,3.9986,1,0,31,31,17,1,9,×,7,9 × 7,incongruent,largerFirst,1,2,63,,,,,,,,
,,,,,,,,,,,,,,,749,2022-01-20_08h21.58.448,multiplicationStroop,2021.2.3,Win32,59.56280898,,,,,,,,,,,,,,,,,,,,,,,,,,,,,,,,,35,3.7845,1,0,32,32,26,1,7,×,5,7 × 5,incongruent,largerFirst,1,2,35,,,,,,,,
,,,,,,,,,,,,,,,749,2022-01-20_08h21.58.448,multiplicationStroop,2021.2.3,Win32,59.56280898,,,,,,,,,,,,,,,,,,,,,,,,,,,,,,,,,42,2.6011,1,0,33,33,3,1,6,×,7,6 × 7,incongruent,smallerFirst,2,1,42,,,,,,,,
,,,,,,,,,,,,,,,749,2022-01-20_08h21.58.448,multiplicationStroop,2021.2.3,Win32,59.56280898,,,,,,,,,,,,,,,,,,,,,,,,,,,,,,,,,36,2.3342,1,0,34,34,32,1,6,×,6,6 × 6,neutral,tie,2,1,36,,,,,,,,
,,,,,,,,,,,,,,,749,2022-01-20_08h21.58.448,multiplicationStroop,2021.2.3,Win32,59.56280898,,,,,,,,,,,,,,,,,,,,,,,,,,,,,,,,,8,2.1494,1,0,35,35,10,1,2,×,4,2 × 4,incongruent,smallerFirst,2,1,8,,,,,,,,
,,,,,,,,,,,,,,,749,2022-01-20_08h21.58.448,multiplicationStroop,2021.2.3,Win32,59.56280898,,,,,,,,,,,,,,,,,,,,,,,,,,,,,,,,,,,,,,,,,,,,,,,,,,0,2,2,4,1,stimulusFile/mult_blk5_INcongruent.xlsx,,
,,,,,,,,,,,,,,,749,2022-01-20_08h21.58.448,multiplicationStroop,2021.2.3,Win32,59.56280898,,,,,,,,,,,,,,,,,,,,,,,,,,,,,,,space,1.4029,36,5.091,1,0,0,0,14,1,9,×,4,9 × 4,congruent,largerFirst,2,1,36,,,,,,,,
,,,,,,,,,,,,,,,749,2022-01-20_08h21.58.448,multiplicationStroop,2021.2.3,Win32,59.56280898,,,,,,,,,,,,,,,,,,,,,,,,,,,,,,,,,72,2.617,1,0,1,1,3,1,8,×,9,8 × 9,congruent,smallerFirst,1,2,72,,,,,,,,
,,,,,,,,,,,,,,,749,2022-01-20_08h21.58.448,multiplicationStroop,2021.2.3,Win32,59.56280898,,,,,,,,,,,,,,,,,,,,,,,,,,,,,,,,,15,2.0494,1,0,2,2,18,1,5,×,3,5 × 3,congruent,largerFirst,2,1,15,,,,,,,,
,,,,,,,,,,,,,,,749,2022-01-20_08h21.58.448,multiplicationStroop,2021.2.3,Win32,59.56280898,,,,,,,,,,,,,,,,,,,,,,,,,,,,,,,,,6,2.6327,1,0,3,3,27,1,3,×,2,3 × 2,congruent,largerFirst,2,1,6,,,,,,,,
,,,,,,,,,,,,,,,749,2022-01-20_08h21.58.448,multiplicationStroop,2021.2.3,Win32,59.56280898,,,,,,,,,,,,,,,,,,,,,,,,,,,,,,,,,27,2.4179,1,0,4,4,12,1,3,×,9,3 × 9,congruent,smallerFirst,1,2,27,,,,,,,,
,,,,,,,,,,,,,,,749,2022-01-20_08h21.58.448,multiplicationStroop,2021.2.3,Win32,59.56280898,,,,,,,,,,,,,,,,,,,,,,,,,,,,,,,,,12,1.8323,1,0,5,5,5,1,2,×,6,2 × 6,congruent,smallerFirst,1,2,12,,,,,,,,
,,,,,,,,,,,,,,,749,2022-01-20_08h21.58.448,multiplicationStroop,2021.2.3,Win32,59.56280898,,,,,,,,,,,,,,,,,,,,,,,,,,,,,,,,,24,2.2827,1,0,6,6,11,1,4,×,6,4 × 6,congruent,smallerFirst,1,2,24,,,,,,,,
,,,,,,,,,,,,,,,749,2022-01-20_08h21.58.448,multiplicationStroop,2021.2.3,Win32,59.56280898,,,,,,,,,,,,,,,,,,,,,,,,,,,,,,,,,81,2.083,1,0,7,7,35,1,9,×,9,9 × 9,neutral,tie,1,2,81,,,,,,,,
,,,,,,,,,,,,,,,749,2022-01-20_08h21.58.448,multiplicationStroop,2021.2.3,Win32,59.56280898,,,,,,,,,,,,,,,,,,,,,,,,,,,,,,,,,14,1.9658,1,0,8,8,0,1,2,×,7,2 × 7,congruent,smallerFirst,1,2,14,,,,,,,,
,,,,,,,,,,,,,,,749,2022-01-20_08h21.58.448,multiplicationStroop,2021.2.3,Win32,59.56280898,,,,,,,,,,,,,,,,,,,,,,,,,,,,,,,,,64,4.9827,1,0,9,9,34,1,8,×,8,8 × 8,neutral,tie,1,2,64,,,,,,,,
,,,,,,,,,,,,,,,749,2022-01-20_08h21.58.448,multiplicationStroop,2021.2.3,Win32,59.56280898,,,,,,,,,,,,,,,,,,,,,,,,,,,,,,,,,49,2.5496,1,0,10,10,33,1,7,×,7,7 × 7,neutral,tie,1,2,49,,,,,,,,
,,,,,,,,,,,,,,,749,2022-01-20_08h21.58.448,multiplicationStroop,2021.2.3,Win32,59.56280898,,,,,,,,,,,,,,,,,,,,,,,,,,,,,,,,,21,2.0844,1,0,11,11,2,1,3,×,7,3 × 7,congruent,smallerFirst,1,2,21,,,,,,,,
,,,,,,,,,,,,,,,749,2022-01-20_08h21.58.448,multiplicationStroop,2021.2.3,Win32,59.56280898,,,,,,,,,,,,,,,,,,,,,,,,,,,,,,,,,20,2.7492,1,0,12,12,21,1,5,×,4,5 × 4,congruent,largerFirst,2,1,20,,,,,,,,
,,,,,,,,,,,,,,,749,2022-01-20_08h21.58.448,multiplicationStroop,2021.2.3,Win32,59.56280898,,,,,,,,,,,,,,,,,,,,,,,,,,,,,,,,,16,6.8493,1,0,13,13,30,1,4,×,4,4 × 4,neutral,tie,1,2,16,,,,,,,,
,,,,,,,,,,,,,,,749,2022-01-20_08h21.58.448,multiplicationStroop,2021.2.3,Win32,59.56280898,,,,,,,,,,,,,,,,,,,,,,,,,,,,,,,,,16,3.2157,1,0,14,14,19,1,8,×,2,8 × 2,congruent,largerFirst,2,1,16,,,,,,,,
,,,,,,,,,,,,,,,749,2022-01-20_08h21.58.448,multiplicationStroop,2021.2.3,Win32,59.56280898,,,,,,,,,,,,,,,,,,,,,,,,,,,,,,,,,63,4.2162,1,0,15,15,7,1,7,×,9,7 × 9,congruent,smallerFirst,1,2,63,,,,,,,,
,,,,,,,,,,,,,,,749,2022-01-20_08h21.58.448,multiplicationStroop,2021.2.3,Win32,59.56280898,,,,,,,,,,,,,,,,,,,,,,,,,,,,,,,,,8,2.0008,1,0,16,16,23,1,4,×,2,4 × 2,congruent,largerFirst,2,1,8,,,,,,,,
,,,,,,,,,,,,,,,749,2022-01-20_08h21.58.448,multiplicationStroop,2021.2.3,Win32,59.56280898,,,,,,,,,,,,,,,,,,,,,,,,,,,,,,,,,48,2.7995,1,0,17,17,4,1,6,×,8,6 × 8,congruent,smallerFirst,1,2,48,,,,,,,,
,,,,,,,,,,,,,,,749,2022-01-20_08h21.58.448,multiplicationStroop,2021.2.3,Win32,59.56280898,,,,,,,,,,,,,,,,,,,,,,,,,,,,,,,,,24,3.2348,1,0,18,18,24,1,8,×,3,8 × 3,congruent,largerFirst,2,1,24,,,,,,,,
,,,,,,,,,,,,,,,749,2022-01-20_08h21.58.448,multiplicationStroop,2021.2.3,Win32,59.56280898,,,,,,,,,,,,,,,,,,,,,,,,,,,,,,,,,40,1.9822,1,0,19,19,20,1,8,×,5,8 × 5,congruent,largerFirst,2,1,40,,,,,,,,
,,,,,,,,,,,,,,,749,2022-01-20_08h21.58.448,multiplicationStroop,2021.2.3,Win32,59.56280898,,,,,,,,,,,,,,,,,,,,,,,,,,,,,,,,,18,2.1329,1,0,20,20,8,1,2,×,9,2 × 9,congruent,smallerFirst,1,2,18,,,,,,,,
,,,,,,,,,,,,,,,749,2022-01-20_08h21.58.448,multiplicationStroop,2021.2.3,Win32,59.56280898,,,,,,,,,,,,,,,,,,,,,,,,,,,,,,,,,18,2.7329,1,0,21,21,25,1,6,×,3,6 × 3,congruent,largerFirst,2,1,18,,,,,,,,
,,,,,,,,,,,,,,,749,2022-01-20_08h21.58.448,multiplicationStroop,2021.2.3,Win32,59.56280898,,,,,,,,,,,,,,,,,,,,,,,,,,,,,,,,,54,2.3179,1,0,22,22,26,1,9,×,6,9 × 6,congruent,largerFirst,2,1,54,,,,,,,,
,,,,,,,,,,,,,,,749,2022-01-20_08h21.58.448,multiplicationStroop,2021.2.3,Win32,59.56280898,,,,,,,,,,,,,,,,,,,,,,,,,,,,,,,,,45,2.2827,1,0,23,23,9,1,5,×,9,5 × 9,congruent,smallerFirst,1,2,45,,,,,,,,
,,,,,,,,,,,,,,,749,2022-01-20_08h21.58.448,multiplicationStroop,2021.2.3,Win32,59.56280898,,,,,,,,,,,,,,,,,,,,,,,,,,,,,,,,,56,3.2326,1,0,24,24,22,1,8,×,7,8 × 7,congruent,largerFirst,2,1,56,,,,,,,,
,,,,,,,,,,,,,,,749,2022-01-20_08h21.58.448,multiplicationStroop,2021.2.3,Win32,59.56280898,,,,,,,,,,,,,,,,,,,,,,,,,,,,,,,,,42,2.4648,1,0,25,25,17,1,7,×,6,7 × 6,congruent,largerFirst,2,1,42,,,,,,,,
,,,,,,,,,,,,,,,749,2022-01-20_08h21.58.448,multiplicationStroop,2021.2.3,Win32,59.56280898,,,,,,,,,,,,,,,,,,,,,,,,,,,,,,,,,28,3.1159,1,0,26,26,13,1,4,×,7,4 × 7,congruent,smallerFirst,1,2,28,,,,,,,,
,,,,,,,,,,,,,,,749,2022-01-20_08h21.58.448,multiplicationStroop,2021.2.3,Win32,59.56280898,,,,,,,,,,,,,,,,,,,,,,,,,,,,,,,,,25,1.9993,1,0,27,27,31,1,5,×,5,5 × 5,neutral,tie,1,2,25,,,,,,,,
,,,,,,,,,,,,,,,749,2022-01-20_08h21.58.448,multiplicationStroop,2021.2.3,Win32,59.56280898,,,,,,,,,,,,,,,,,,,,,,,,,,,,,,,,,4,1.6163,1,0,28,28,28,1,2,×,2,2 × 2,neutral,tie,1,2,4,,,,,,,,
,,,,,,,,,,,,,,,749,2022-01-20_08h21.58.448,multiplicationStroop,2021.2.3,Win32,59.56280898,,,,,,,,,,,,,,,,,,,,,,,,,,,,,,,,,12,3.2994,1,0,29,29,16,1,4,×,3,4 × 3,congruent,largerFirst,2,1,12,,,,,,,,
,,,,,,,,,,,,,,,749,2022-01-20_08h21.58.448,multiplicationStroop,2021.2.3,Win32,59.56280898,,,,,,,,,,,,,,,,,,,,,,,,,,,,,,,,,30,2.051,1,0,30,30,1,1,5,×,6,5 × 6,congruent,smallerFirst,1,2,30,,,,,,,,
,,,,,,,,,,,,,,,749,2022-01-20_08h21.58.448,multiplicationStroop,2021.2.3,Win32,59.56280898,,,,,,,,,,,,,,,,,,,,,,,,,,,,,,,,,9,1.9163,1,0,31,31,29,1,3,×,3,3 × 3,neutral,tie,1,2,9,,,,,,,,
,,,,,,,,,,,,,,,749,2022-01-20_08h21.58.448,multiplicationStroop,2021.2.3,Win32,59.56280898,,,,,,,,,,,,,,,,,,,,,,,,,,,,,,,,,35,7.1488,1,0,32,32,15,1,7,×,5,7 × 5,congruent,largerFirst,2,1,35,,,,,,,,
,,,,,,,,,,,,,,,749,2022-01-20_08h21.58.448,multiplicationStroop,2021.2.3,Win32,59.56280898,,,,,,,,,,,,,,,,,,,,,,,,,,,,,,,,,10,1.8345,1,0,33,33,10,1,2,×,5,2 × 5,congruent,smallerFirst,1,2,10,,,,,,,,
,,,,,,,,,,,,,,,749,2022-01-20_08h21.58.448,multiplicationStroop,2021.2.3,Win32,59.56280898,,,,,,,,,,,,,,,,,,,,,,,,,,,,,,,,,32,6.4823,1,0,34,34,6,1,4,×,8,4 × 8,congruent,smallerFirst,1,2,32,,,,,,,,
,,,,,,,,,,,,,,,749,2022-01-20_08h21.58.448,multiplicationStroop,2021.2.3,Win32,59.56280898,,,,,,,,,,,,,,,,,,,,,,,,,,,,,,,,,36,3.0144,1,0,35,35,32,1,6,×,6,6 × 6,neutral,tie,1,2,36,,,,,,,,
,,,,,,,,,,,,,,,749,2022-01-20_08h21.58.448,multiplicationStroop,2021.2.3,Win32,59.56280898,,,,,,,,,,,,,,,,,,,,,,,,,,,,,,,,,,,,,,,,,,,,,,,,,,0,3,3,3,1,stimulusFile/mult_blk4_congruent.xlsx,,
,,,,,,,,,,,,,,,749,2022-01-20_08h21.58.448,multiplicationStroop,2021.2.3,Win32,59.56280898,,,,,,,,,,,,,,,,,,,,,,,,,,,,,,,space,1.5219,56,2.3431,1,0,0,0,9,1,7,×,8,7 × 8,neutral,smallerFirst,1.5,1.5,56,,,,,,,,
,,,,,,,,,,,,,,,749,2022-01-20_08h21.58.448,multiplicationStroop,2021.2.3,Win32,59.56280898,,,,,,,,,,,,,,,,,,,,,,,,,,,,,,,,,36,6.249,1,0,1,1,27,1,9,×,4,9 × 4,neutral,largerFirst,1.5,1.5,36,,,,,,,,
,,,,,,,,,,,,,,,749,2022-01-20_08h21.58.448,multiplicationStroop,2021.2.3,Win32,59.56280898,,,,,,,,,,,,,,,,,,,,,,,,,,,,,,,,,63,5.9043,1,0,2,2,12,1,7,×,9,7 × 9,neutral,smallerFirst,1.5,1.5,63,,,,,,,,
,,,,,,,,,,,,,,,749,2022-01-20_08h21.58.448,multiplicationStroop,2021.2.3,Win32,59.56280898,,,,,,,,,,,,,,,,,,,,,,,,,,,,,,,,,15,2.0349,1,0,3,3,5,1,3,×,5,3 × 5,neutral,smallerFirst,1.5,1.5,15,,,,,,,,
,,,,,,,,,,,,,,,749,2022-01-20_08h21.58.448,multiplicationStroop,2021.2.3,Win32,59.56280898,,,,,,,,,,,,,,,,,,,,,,,,,,,,,,,,,25,2.0158,1,0,4,4,31,1,5,×,5,5 × 5,neutral,tie,1.5,1.5,25,,,,,,,,
,,,,,,,,,,,,,,,749,2022-01-20_08h21.58.448,multiplicationStroop,2021.2.3,Win32,59.56280898,,,,,,,,,,,,,,,,,,,,,,,,,,,,,,,,,28,2.1324,1,0,5,5,17,1,7,×,4,7 × 4,neutral,largerFirst,1.5,1.5,28,,,,,,,,
,,,,,,,,,,,,,,,749,2022-01-20_08h21.58.448,multiplicationStroop,2021.2.3,Win32,59.56280898,,,,,,,,,,,,,,,,,,,,,,,,,,,,,,,,,18,3.6326,1,0,6,6,18,1,9,×,2,9 × 2,neutral,largerFirst,1.5,1.5,18,,,,,,,,
,,,,,,,,,,,,,,,749,2022-01-20_08h21.58.448,multiplicationStroop,2021.2.3,Win32,59.56280898,,,,,,,,,,,,,,,,,,,,,,,,,,,,,,,,,14,1.8176,1,0,7,7,16,1,7,×,2,7 × 2,neutral,largerFirst,1.5,1.5,14,,,,,,,,
,,,,,,,,,,,,,,,749,2022-01-20_08h21.58.448,multiplicationStroop,2021.2.3,Win32,59.56280898,,,,,,,,,,,,,,,,,,,,,,,,,,,,,,,,,21,1.8328,1,0,8,8,8,1,3,×,7,3 × 7,neutral,smallerFirst,1.5,1.5,21,,,,,,,,
,,,,,,,,,,,,,,,749,2022-01-20_08h21.58.448,multiplicationStroop,2021.2.3,Win32,59.56280898,,,,,,,,,,,,,,,,,,,,,,,,,,,,,,,,,32,2.3154,1,0,9,9,23,1,8,×,4,8 × 4,neutral,largerFirst,1.5,1.5,32,,,,,,,,
,,,,,,,,,,,,,,,749,2022-01-20_08h21.58.448,multiplicationStroop,2021.2.3,Win32,59.56280898,,,,,,,,,,,,,,,,,,,,,,,,,,,,,,,,,16,3.2995,1,0,10,10,13,1,2,×,8,2 × 8,neutral,smallerFirst,1.5,1.5,16,,,,,,,,
,,,,,,,,,,,,,,,749,2022-01-20_08h21.58.448,multiplicationStroop,2021.2.3,Win32,59.56280898,,,,,,,,,,,,,,,,,,,,,,,,,,,,,,,,,45,1.9512,1,0,11,11,10,1,5,×,9,5 × 9,neutral,smallerFirst,1.5,1.5,45,,,,,,,,
,,,,,,,,,,,,,,,749,2022-01-20_08h21.58.448,multiplicationStroop,2021.2.3,Win32,59.56280898,,,,,,,,,,,,,,,,,,,,,,,,,,,,,,,,,64,3.8656,1,0,12,12,34,1,8,×,8,8 × 8,neutral,tie,1.5,1.5,64,,,,,,,,
,,,,,,,,,,,,,,,749,2022-01-20_08h21.58.448,multiplicationStroop,2021.2.3,Win32,59.56280898,,,,,,,,,,,,,,,,,,,,,,,,,,,,,,,,,27,2.5822,1,0,13,13,14,1,9,×,3,9 × 3,neutral,largerFirst,1.5,1.5,27,,,,,,,,
,,,,,,,,,,,,,,,749,2022-01-20_08h21.58.448,multiplicationStroop,2021.2.3,Win32,59.56280898,,,,,,,,,,,,,,,,,,,,,,,,,,,,,,,,,6,1.7347,1,0,14,14,26,1,3,×,2,3 × 2,neutral,largerFirst,1.5,1.5,6,,,,,,,,
,,,,,,,,,,,,,,,749,2022-01-20_08h21.58.448,multiplicationStroop,2021.2.3,Win32,59.56280898,,,,,,,,,,,,,,,,,,,,,,,,,,,,,,,,,20,5.5326,1,0,15,15,20,1,5,×,4,5 × 4,neutral,largerFirst,1.5,1.5,20,,,,,,,,
,,,,,,,,,,,,,,,749,2022-01-20_08h21.58.448,multiplicationStroop,2021.2.3,Win32,59.56280898,,,,,,,,,,,,,,,,,,,,,,,,,,,,,,,,,42,2.7507,1,0,16,16,6,1,6,×,7,6 × 7,neutral,smallerFirst,1.5,1.5,42,,,,,,,,
,,,,,,,,,,,,,,,749,2022-01-20_08h21.58.448,multiplicationStroop,2021.2.3,Win32,59.56280898,,,,,,,,,,,,,,,,,,,,,,,,,,,,,,,,,12,2.101,1,0,17,17,25,1,6,×,2,6 × 2,neutral,largerFirst,1.5,1.5,12,,,,,,,,
,,,,,,,,,,,,,,,749,2022-01-20_08h21.58.448,multiplicationStroop,2021.2.3,Win32,59.56280898,,,,,,,,,,,,,,,,,,,,,,,,,,,,,,,,,16,6.1325,1,0,18,18,30,1,4,×,4,4 × 4,neutral,tie,1.5,1.5,16,,,,,,,,
,,,,,,,,,,,,,,,749,2022-01-20_08h21.58.448,multiplicationStroop,2021.2.3,Win32,59.56280898,,,,,,,,,,,,,,,,,,,,,,,,,,,,,,,,,18,3.368,1,0,19,19,0,1,3,×,6,3 × 6,neutral,smallerFirst,1.5,1.5,18,,,,,,,,
,,,,,,,,,,,,,,,749,2022-01-20_08h21.58.448,multiplicationStroop,2021.2.3,Win32,59.56280898,,,,,,,,,,,,,,,,,,,,,,,,,,,,,,,,,24,2.3672,1,0,20,20,2,1,4,×,6,4 × 6,neutral,smallerFirst,1.5,1.5,24,,,,,,,,
,,,,,,,,,,,,,,,749,2022-01-20_08h21.58.448,multiplicationStroop,2021.2.3,Win32,59.56280898,,,,,,,,,,,,,,,,,,,,,,,,,,,,,,,,,40,3.3876,1,0,21,21,24,1,8,×,5,8 × 5,neutral,largerFirst,1.5,1.5,40,,,,,,,,
,,,,,,,,,,,,,,,749,2022-01-20_08h21.58.448,multiplicationStroop,2021.2.3,Win32,59.56280898,,,,,,,,,,,,,,,,,,,,,,,,,,,,,,,,,36,1.8282,1,0,22,22,32,1,6,×,6,6 × 6,neutral,tie,1.5,1.5,36,,,,,,,,
,,,,,,,,,,,,,,,749,2022-01-20_08h21.58.448,multiplicationStroop,2021.2.3,Win32,59.56280898,,,,,,,,,,,,,,,,,,,,,,,,,,,,,,,,,30,2.1157,1,0,23,23,19,1,6,×,5,6 × 5,neutral,largerFirst,1.5,1.5,30,,,,,,,,
,,,,,,,,,,,,,,,749,2022-01-20_08h21.58.448,multiplicationStroop,2021.2.3,Win32,59.56280898,,,,,,,,,,,,,,,,,,,,,,,,,,,,,,,,,24,3.3492,1,0,24,24,22,1,8,×,3,8 × 3,neutral,largerFirst,1.5,1.5,24,,,,,,,,
,,,,,,,,,,,,,,,749,2022-01-20_08h21.58.448,multiplicationStroop,2021.2.3,Win32,59.56280898,,,,,,,,,,,,,,,,,,,,,,,,,,,,,,,,,4,1.5177,1,0,25,25,28,1,2,×,2,2 × 2,neutral,tie,1.5,1.5,4,,,,,,,,
,,,,,,,,,,,,,,,749,2022-01-20_08h21.58.448,multiplicationStroop,2021.2.3,Win32,59.56280898,,,,,,,,,,,,,,,,,,,,,,,,,,,,,,,,,9,1.6994,1,0,26,26,29,1,3,×,3,3 × 3,neutral,tie,1.5,1.5,9,,,,,,,,
,,,,,,,,,,,,,,,749,2022-01-20_08h21.58.448,multiplicationStroop,2021.2.3,Win32,59.56280898,,,,,,,,,,,,,,,,,,,,,,,,,,,,,,,,,35,2.4664,1,0,27,27,1,1,5,×,7,5 × 7,neutral,smallerFirst,1.5,1.5,35,,,,,,,,
,,,,,,,,,,,,,,,749,2022-01-20_08h21.58.448,multiplicationStroop,2021.2.3,Win32,59.56280898,,,,,,,,,,,,,,,,,,,,,,,,,,,,,,,,,48,6.0988,1,0,28,28,15,1,8,×,6,8 × 6,neutral,largerFirst,1.5,1.5,48,,,,,,,,
,,,,,,,,,,,,,,,749,2022-01-20_08h21.58.448,multiplicationStroop,2021.2.3,Win32,59.56280898,,,,,,,,,,,,,,,,,,,,,,,,,,,,,,,,,54,2.7013,1,0,29,29,7,1,6,×,9,6 × 9,neutral,smallerFirst,1.5,1.5,54,,,,,,,,
,,,,,,,,,,,,,,,749,2022-01-20_08h21.58.448,multiplicationStroop,2021.2.3,Win32,59.56280898,,,,,,,,,,,,,,,,,,,,,,,,,,,,,,,,,49,2.0998,1,0,30,30,33,1,7,×,7,7 × 7,neutral,tie,1.5,1.5,49,,,,,,,,
,,,,,,,,,,,,,,,749,2022-01-20_08h21.58.448,multiplicationStroop,2021.2.3,Win32,59.56280898,,,,,,,,,,,,,,,,,,,,,,,,,,,,,,,,,10,1.7819,1,0,31,31,4,1,2,×,5,2 × 5,neutral,smallerFirst,1.5,1.5,10,,,,,,,,
,,,,,,,,,,,,,,,749,2022-01-20_08h21.58.448,multiplicationStroop,2021.2.3,Win32,59.56280898,,,,,,,,,,,,,,,,,,,,,,,,,,,,,,,,,81,2.1329,1,0,32,32,35,1,9,×,9,9 × 9,neutral,tie,1.5,1.5,81,,,,,,,,
,,,,,,,,,,,,,,,749,2022-01-20_08h21.58.448,multiplicationStroop,2021.2.3,Win32,59.56280898,,,,,,,,,,,,,,,,,,,,,,,,,,,,,,,,,8,2.5824,1,0,33,33,3,1,2,×,4,2 × 4,neutral,smallerFirst,1.5,1.5,8,,,,,,,,
,,,,,,,,,,,,,,,749,2022-01-20_08h21.58.448,multiplicationStroop,2021.2.3,Win32,59.56280898,,,,,,,,,,,,,,,,,,,,,,,,,,,,,,,,,12,1.668,1,0,34,34,21,1,4,×,3,4 × 3,neutral,largerFirst,1.5,1.5,12,,,,,,,,
,,,,,,,,,,,,,,,749,2022-01-20_08h21.58.448,multiplicationStroop,2021.2.3,Win32,59.56280898,,,,,,,,,,,,,,,,,,,,,,,,,,,,,,,,,72,2.199,1,0,35,35,11,1,8,×,9,8 × 9,neutral,smallerFirst,1.5,1.5,72,,,,,,,,
,,,,,,,,,,,,,,,749,2022-01-20_08h21.58.448,multiplicationStroop,2021.2.3,Win32,59.56280898,,,,,,,,,,,,,,,,,,,,,,,,,,,,,,,,,,,,,,,,,,,,,,,,,,0,4,4,1,1,stimulusFile/mult_blk2.xlsx,,
,,,,,,,,,,,,,,,749,2022-01-20_08h21.58.448,multiplicationStroop,2021.2.3,Win32,59.56280898,,,,,,,,,,,,,,,,,,,,,,,,,,,,,,,space,1.4019,63,2.3159,1,0,0,0,26,1,9,×,7,9 × 7,neutral,largerFirst,1.5,1.5,63,,,,,,,,
,,,,,,,,,,,,,,,749,2022-01-20_08h21.58.448,multiplicationStroop,2021.2.3,Win32,59.56280898,,,,,,,,,,,,,,,,,,,,,,,,,,,,,,,,,45,1.9829,1,0,1,1,24,1,9,×,5,9 × 5,neutral,largerFirst,1.5,1.5,45,,,,,,,,
,,,,,,,,,,,,,,,749,2022-01-20_08h21.58.448,multiplicationStroop,2021.2.3,Win32,59.56280898,,,,,,,,,,,,,,,,,,,,,,,,,,,,,,,,,24,2.6329,1,0,2,2,8,1,3,×,8,3 × 8,neutral,smallerFirst,1.5,1.5,24,,,,,,,,
,,,,,,,,,,,,,,,749,2022-01-20_08h21.58.448,multiplicationStroop,2021.2.3,Win32,59.56280898,,,,,,,,,,,,,,,,,,,,,,,,,,,,,,,,,15,1.7509,1,0,3,3,19,1,5,×,3,5 × 3,neutral,largerFirst,1.5,1.5,15,,,,,,,,
,,,,,,,,,,,,,,,749,2022-01-20_08h21.58.448,multiplicationStroop,2021.2.3,Win32,59.56280898,,,,,,,,,,,,,,,,,,,,,,,,,,,,,,,,,16,1.8,1,0,4,4,30,1,4,×,4,4 × 4,neutral,tie,1.5,1.5,16,,,,,,,,
,,,,,,,,,,,,,,,749,2022-01-20_08h21.58.448,multiplicationStroop,2021.2.3,Win32,59.56280898,,,,,,,,,,,,,,,,,,,,,,,,,,,,,,,,,18,2.0156,1,0,5,5,14,1,6,×,3,6 × 3,neutral,largerFirst,1.5,1.5,18,,,,,,,,
,,,,,,,,,,,,,,,749,2022-01-20_08h21.58.448,multiplicationStroop,2021.2.3,Win32,59.56280898,,,,,,,,,,,,,,,,,,,,,,,,,,,,,,,,,56,2.4992,1,0,6,6,23,1,8,×,7,8 × 7,neutral,largerFirst,1.5,1.5,56,,,,,,,,
,,,,,,,,,,,,,,,749,2022-01-20_08h21.58.448,multiplicationStroop,2021.2.3,Win32,59.56280898,,,,,,,,,,,,,,,,,,,,,,,,,,,,,,,,,24,2.4165,1,0,7,7,16,1,6,×,4,6 × 4,neutral,largerFirst,1.5,1.5,24,,,,,,,,
,,,,,,,,,,,,,,,749,2022-01-20_08h21.58.448,multiplicationStroop,2021.2.3,Win32,59.56280898,,,,,,,,,,,,,,,,,,,,,,,,,,,,,,,,,49,3.4661,1,0,8,8,33,1,7,×,7,7 × 7,neutral,tie,1.5,1.5,49,,,,,,,,
,,,,,,,,,,,,,,,749,2022-01-20_08h21.58.448,multiplicationStroop,2021.2.3,Win32,59.56280898,,,,,,,,,,,,,,,,,,,,,,,,,,,,,,,,,12,1.7846,1,0,9,9,11,1,2,×,6,2 × 6,neutral,smallerFirst,1.5,1.5,12,,,,,,,,
,,,,,,,,,,,,,,,749,2022-01-20_08h21.58.448,multiplicationStroop,2021.2.3,Win32,59.56280898,,,,,,,,,,,,,,,,,,,,,,,,,,,,,,,,,54,2.2994,1,0,10,10,21,1,9,×,6,9 × 6,neutral,largerFirst,1.5,1.5,54,,,,,,,,
,,,,,,,,,,,,,,,749,2022-01-20_08h21.58.448,multiplicationStroop,2021.2.3,Win32,59.56280898,,,,,,,,,,,,,,,,,,,,,,,,,,,,,,,,,24,2.9329,0,0,11,11,9,1,4,×,8,4 × 8,neutral,smallerFirst,1.5,1.5,32,,,,,,,,
,,,,,,,,,,,,,,,749,2022-01-20_08h21.58.448,multiplicationStroop,2021.2.3,Win32,59.56280898,,,,,,,,,,,,,,,,,,,,,,,,,,,,,,,,,18,2.3158,1,0,12,12,4,1,2,×,9,2 × 9,neutral,smallerFirst,1.5,1.5,18,,,,,,,,
,,,,,,,,,,,,,,,749,2022-01-20_08h21.58.448,multiplicationStroop,2021.2.3,Win32,59.56280898,,,,,,,,,,,,,,,,,,,,,,,,,,,,,,,,,8,2.4838,1,0,13,13,17,1,4,×,2,4 × 2,neutral,largerFirst,1.5,1.5,8,,,,,,,,
,,,,,,,,,,,,,,,749,2022-01-20_08h21.58.448,multiplicationStroop,2021.2.3,Win32,59.56280898,,,,,,,,,,,,,,,,,,,,,,,,,,,,,,,,,14,2.3497,1,0,14,14,2,1,2,×,7,2 × 7,neutral,smallerFirst,1.5,1.5,14,,,,,,,,
,,,,,,,,,,,,,,,749,2022-01-20_08h21.58.448,multiplicationStroop,2021.2.3,Win32,59.56280898,,,,,,,,,,,,,,,,,,,,,,,,,,,,,,,,,27,2.8326,1,0,15,15,0,1,3,×,9,3 × 9,neutral,smallerFirst,1.5,1.5,27,,,,,,,,
,,,,,,,,,,,,,,,749,2022-01-20_08h21.58.448,multiplicationStroop,2021.2.3,Win32,59.56280898,,,,,,,,,,,,,,,,,,,,,,,,,,,,,,,,,36,1.9496,1,0,16,16,13,1,4,×,9,4 × 9,neutral,smallerFirst,1.5,1.5,36,,,,,,,,
,,,,,,,,,,,,,,,749,2022-01-20_08h21.58.448,multiplicationStroop,2021.2.3,Win32,59.56280898,,,,,,,,,,,,,,,,,,,,,,,,,,,,,,,,,21,2.8825,1,0,17,17,22,1,7,×,3,7 × 3,neutral,largerFirst,1.5,1.5,21,,,,,,,,
,,,,,,,,,,,,,,,749,2022-01-20_08h21.58.448,multiplicationStroop,2021.2.3,Win32,59.56280898,,,,,,,,,,,,,,,,,,,,,,,,,,,,,,,,,30,6.4843,1,0,18,18,5,1,5,×,6,5 × 6,neutral,smallerFirst,1.5,1.5,30,,,,,,,,
,,,,,,,,,,,,,,,749,2022-01-20_08h21.58.448,multiplicationStroop,2021.2.3,Win32,59.56280898,,,,,,,,,,,,,,,,,,,,,,,,,,,,,,,,,12,1.901,1,0,19,19,7,1,3,×,4,3 × 4,neutral,smallerFirst,1.5,1.5,12,,,,,,,,
,,,,,,,,,,,,,,,749,2022-01-20_08h21.58.448,multiplicationStroop,2021.2.3,Win32,59.56280898,,,,,,,,,,,,,,,,,,,,,,,,,,,,,,,,,64,4.966,1,0,20,20,34,1,8,×,8,8 × 8,neutral,tie,1.5,1.5,64,,,,,,,,
,,,,,,,,,,,,,,,749,2022-01-20_08h21.58.448,multiplicationStroop,2021.2.3,Win32,59.56280898,,,,,,,,,,,,,,,,,,,,,,,,,,,,,,,,,42,2.4511,1,0,21,21,20,1,7,×,6,7 × 6,neutral,largerFirst,1.5,1.5,42,,,,,,,,
,,,,,,,,,,,,,,,749,2022-01-20_08h21.58.448,multiplicationStroop,2021.2.3,Win32,59.56280898,,,,,,,,,,,,,,,,,,,,,,,,,,,,,,,,,81,1.7843,1,0,22,22,35,1,9,×,9,9 × 9,neutral,tie,1.5,1.5,81,,,,,,,,
,,,,,,,,,,,,,,,749,2022-01-20_08h21.58.448,multiplicationStroop,2021.2.3,Win32,59.56280898,,,,,,,,,,,,,,,,,,,,,,,,,,,,,,,,,35,1.8328,1,0,23,23,15,1,7,×,5,7 × 5,neutral,largerFirst,1.5,1.5,35,,,,,,,,
,,,,,,,,,,,,,,,749,2022-01-20_08h21.58.448,multiplicationStroop,2021.2.3,Win32,59.56280898,,,,,,,,,,,,,,,,,,,,,,,,,,,,,,,,,20,3.1828,1,0,24,24,6,1,4,×,5,4 × 5,neutral,smallerFirst,1.5,1.5,20,,,,,,,,
,,,,,,,,,,,,,,,749,2022-01-20_08h21.58.448,multiplicationStroop,2021.2.3,Win32,59.56280898,,,,,,,,,,,,,,,,,,,,,,,,,,,,,,,,,16,1.7684,1,0,25,25,27,1,8,×,2,8 × 2,neutral,largerFirst,1.5,1.5,16,,,,,,,,
,,,,,,,,,,,,,,,749,2022-01-20_08h21.58.448,multiplicationStroop,2021.2.3,Win32,59.56280898,,,,,,,,,,,,,,,,,,,,,,,,,,,,,,,,,25,2.0323,1,0,26,26,31,1,5,×,5,5 × 5,neutral,tie,1.5,1.5,25,,,,,,,,
,,,,,,,,,,,,,,,749,2022-01-20_08h21.58.448,multiplicationStroop,2021.2.3,Win32,59.56280898,,,,,,,,,,,,,,,,,,,,,,,,,,,,,,,,,10,1.7499,1,0,27,27,18,1,5,×,2,5 × 2,neutral,largerFirst,1.5,1.5,10,,,,,,,,
,,,,,,,,,,,,,,,749,2022-01-20_08h21.58.448,multiplicationStroop,2021.2.3,Win32,59.56280898,,,,,,,,,,,,,,,,,,,,,,,,,,,,,,,,,16,2.3992,0,0,28,28,1,1,6,×,8,6 × 8,neutral,smallerFirst,1.5,1.5,48,,,,,,,,
,,,,,,,,,,,,,,,749,2022-01-20_08h21.58.448,multiplicationStroop,2021.2.3,Win32,59.56280898,,,,,,,,,,,,,,,,,,,,,,,,,,,,,,,,,72,2.5496,1,0,29,29,25,1,9,×,8,9 × 8,neutral,largerFirst,1.5,1.5,72,,,,,,,,
,,,,,,,,,,,,,,,749,2022-01-20_08h21.58.448,multiplicationStroop,2021.2.3,Win32,59.56280898,,,,,,,,,,,,,,,,,,,,,,,,,,,,,,,,,4,1.5663,1,0,30,30,28,1,2,×,2,2 × 2,neutral,tie,1.5,1.5,4,,,,,,,,
,,,,,,,,,,,,,,,749,2022-01-20_08h21.58.448,multiplicationStroop,2021.2.3,Win32,59.56280898,,,,,,,,,,,,,,,,,,,,,,,,,,,,,,,,,36,1.966,1,0,31,31,32,1,6,×,6,6 × 6,neutral,tie,1.5,1.5,36,,,,,,,,
,,,,,,,,,,,,,,,749,2022-01-20_08h21.58.448,multiplicationStroop,2021.2.3,Win32,59.56280898,,,,,,,,,,,,,,,,,,,,,,,,,,,,,,,,,6,1.9161,1,0,32,32,12,1,2,×,3,2 × 3,neutral,smallerFirst,1.5,1.5,6,,,,,,,,
,,,,,,,,,,,,,,,749,2022-01-20_08h21.58.448,multiplicationStroop,2021.2.3,Win32,59.56280898,,,,,,,,,,,,,,,,,,,,,,,,,,,,,,,,,28,2.2661,1,0,33,33,3,1,4,×,7,4 × 7,neutral,smallerFirst,1.5,1.5,28,,,,,,,,
,,,,,,,,,,,,,,,749,2022-01-20_08h21.58.448,multiplicationStroop,2021.2.3,Win32,59.56280898,,,,,,,,,,,,,,,,,,,,,,,,,,,,,,,,,9,1.6162,1,0,34,34,29,1,3,×,3,3 × 3,neutral,tie,1.5,1.5,9,,,,,,,,
,,,,,,,,,,,,,,,749,2022-01-20_08h21.58.448,multiplicationStroop,2021.2.3,Win32,59.56280898,,,,,,,,,,,,,,,,,,,,,,,,,,,,,,,,,40,2.1494,1,0,35,35,10,1,5,×,8,5 × 8,neutral,smallerFirst,1.5,1.5,40,,,,,,,,
,,,,,,,,,,,,,,,749,2022-01-20_08h21.58.448,multiplicationStroop,2021.2.3,Win32,59.56280898,,,,,,,,,,,,,,,,,,,,,,,,,,,,,,,,,,,,,,,,,,,,,,,,,,0,5,5,0,1,stimulusFile/mult_blk1.xlsx,,
,,,,,,,,,,,,,,,749,2022-01-20_08h21.58.448,multiplicationStroop,2021.2.3,Win32,59.56280898,,,,,,,,,,,,,,,,,,,,,,,,,,,,,,,,,,,,,,,,,,,,,,,,,,,,,,,,space,1.3411