welcomeKey_resp.keys,welcomeKey_resp.rt,X Scale,Y Scale,rt_resp_4.keys,rt_resp_4.corr,rt_resp_4.rt,speedtest_2.thisRepN,speedtest_2.thisTrialN,speedtest_2.thisN,speedtest_2.thisIndex,speedtest_2.ran,numberSc,posX,positionLayout,participant,date,expName,psychopyVersion,OS,frameRate,ct_instrresp.keys,ct_instrresp.rt,key_resp_2.keys,key_resp_2.rt,ct_keyResp.keys,ct_keyResp.corr,ct_keyResp.rt,trials.thisRepN,trials.thisTrialN,trials.thisN,trials.thisIndex,trials.ran,leftNo,rightNo,displayProblem,numDistance,leftNo_size,rightNo_size,Dims,keyAnswer,TS_Loop.thisRepN,TS_Loop.thisTrialN,TS_Loop.thisN,TS_Loop.thisIndex,TS_Loop.ran,Condition,ActionInst,instrImage,mltptaskInst_resp.keys,mltptaskInst_resp.rt,continue_resp_2.keys,continue_resp_2.rt,multp_Answer,multi_RT,multiplyCorr,LoopingMultiply.thisRepN,LoopingMultiply.thisTrialN,LoopingMultiply.thisN,LoopingMultiply.thisIndex,LoopingMultiply.ran,factor1,multiplySign,factor2,multliplyProblem,physicalSize,orderOperand,sizeF1,sizeF2,mult_answer,trials_stroop.thisRepN,trials_stroop.thisTrialN,trials_stroop.thisN,trials_stroop.thisIndex,trials_stroop.ran,multiplicationFile,esckey_resp_2.keys,esckey_resp_2.rt
y,5.3648,41.9,41.1,right,1,0.6832,0,0,0,10,1,3,200,right,750,2022-01-21_22h13.05.152,multiplicationStroop,2021.2.3,Win32,60.17933442,,,,,,,,,,,,,,,,,,,,,,,,,,,,,,,,,,,,,,,,,,,,,,,,,,,,,,,,,
,,,,right,1,0.3512,0,1,1,15,1,9,200,right,750,2022-01-21_22h13.05.152,multiplicationStroop,2021.2.3,Win32,60.17933442,,,,,,,,,,,,,,,,,,,,,,,,,,,,,,,,,,,,,,,,,,,,,,,,,,,,,,,,,
,,,,left,1,0.4929,0,2,2,5,1,7,-200,left,750,2022-01-21_22h13.05.152,multiplicationStroop,2021.2.3,Win32,60.17933442,,,,,,,,,,,,,,,,,,,,,,,,,,,,,,,,,,,,,,,,,,,,,,,,,,,,,,,,,
,,,,left,1,0.4282,0,3,3,2,1,3,-200,left,750,2022-01-21_22h13.05.152,multiplicationStroop,2021.2.3,Win32,60.17933442,,,,,,,,,,,,,,,,,,,,,,,,,,,,,,,,,,,,,,,,,,,,,,,,,,,,,,,,,
,,,,right,1,0.3718,0,4,4,8,1,1,200,right,750,2022-01-21_22h13.05.152,multiplicationStroop,2021.2.3,Win32,60.17933442,,,,,,,,,,,,,,,,,,,,,,,,,,,,,,,,,,,,,,,,,,,,,,,,,,,,,,,,,
,,,,right,1,0.3522,0,5,5,9,1,2,200,right,750,2022-01-21_22h13.05.152,multiplicationStroop,2021.2.3,Win32,60.17933442,,,,,,,,,,,,,,,,,,,,,,,,,,,,,,,,,,,,,,,,,,,,,,,,,,,,,,,,,
,,,,left,1,0.4494,0,6,6,6,1,8,-200,left,750,2022-01-21_22h13.05.152,multiplicationStroop,2021.2.3,Win32,60.17933442,,,,,,,,,,,,,,,,,,,,,,,,,,,,,,,,,,,,,,,,,,,,,,,,,,,,,,,,,
,,,,left,1,0.3591,0,7,7,3,1,4,-200,left,750,2022-01-21_22h13.05.152,multiplicationStroop,2021.2.3,Win32,60.17933442,,,,,,,,,,,,,,,,,,,,,,,,,,,,,,,,,,,,,,,,,,,,,,,,,,,,,,,,,
,,,,left,1,0.5845,0,8,8,7,1,9,-200,left,750,2022-01-21_22h13.05.152,multiplicationStroop,2021.2.3,Win32,60.17933442,,,,,,,,,,,,,,,,,,,,,,,,,,,,,,,,,,,,,,,,,,,,,,,,,,,,,,,,,
,,,,right,1,0.4232,0,9,9,12,1,6,200,right,750,2022-01-21_22h13.05.152,multiplicationStroop,2021.2.3,Win32,60.17933442,,,,,,,,,,,,,,,,,,,,,,,,,,,,,,,,,,,,,,,,,,,,,,,,,,,,,,,,,
,,,,left,1,0.3626,0,10,10,1,1,2,-200,left,750,2022-01-21_22h13.05.152,multiplicationStroop,2021.2.3,Win32,60.17933442,,,,,,,,,,,,,,,,,,,,,,,,,,,,,,,,,,,,,,,,,,,,,,,,,,,,,,,,,
,,,,right,1,0.3514,0,11,11,13,1,7,200,right,750,2022-01-21_22h13.05.152,multiplicationStroop,2021.2.3,Win32,60.17933442,,,,,,,,,,,,,,,,,,,,,,,,,,,,,,,,,,,,,,,,,,,,,,,,,,,,,,,,,
,,,,left,1,0.3164,0,12,12,0,1,1,-200,left,750,2022-01-21_22h13.05.152,multiplicationStroop,2021.2.3,Win32,60.17933442,,,,,,,,,,,,,,,,,,,,,,,,,,,,,,,,,,,,,,,,,,,,,,,,,,,,,,,,,
,,,,left,1,0.3665,0,13,13,4,1,6,-200,left,750,2022-01-21_22h13.05.152,multiplicationStroop,2021.2.3,Win32,60.17933442,,,,,,,,,,,,,,,,,,,,,,,,,,,,,,,,,,,,,,,,,,,,,,,,,,,,,,,,,
,,,,right,1,0.329,0,14,14,14,1,8,200,right,750,2022-01-21_22h13.05.152,multiplicationStroop,2021.2.3,Win32,60.17933442,,,,,,,,,,,,,,,,,,,,,,,,,,,,,,,,,,,,,,,,,,,,,,,,,,,,,,,,,
,,,,right,1,0.4467,0,15,15,11,1,4,200,right,750,2022-01-21_22h13.05.152,multiplicationStroop,2021.2.3,Win32,60.17933442,,,,,,,,,,,,,,,,,,,,,,,,,,,,,,,,,,,,,,,,,,,,,,,,,,,,,,,,,
,,,,right,1,0.3291,1,0,16,13,1,7,200,right,750,2022-01-21_22h13.05.152,multiplicationStroop,2021.2.3,Win32,60.17933442,,,,,,,,,,,,,,,,,,,,,,,,,,,,,,,,,,,,,,,,,,,,,,,,,,,,,,,,,
,,,,left,1,0.3314,1,1,17,6,1,8,-200,left,750,2022-01-21_22h13.05.152,multiplicationStroop,2021.2.3,Win32,60.17933442,,,,,,,,,,,,,,,,,,,,,,,,,,,,,,,,,,,,,,,,,,,,,,,,,,,,,,,,,
,,,,left,1,0.3376,1,2,18,7,1,9,-200,left,750,2022-01-21_22h13.05.152,multiplicationStroop,2021.2.3,Win32,60.17933442,,,,,,,,,,,,,,,,,,,,,,,,,,,,,,,,,,,,,,,,,,,,,,,,,,,,,,,,,
,,,,right,1,0.297,1,3,19,9,1,2,200,right,750,2022-01-21_22h13.05.152,multiplicationStroop,2021.2.3,Win32,60.17933442,,,,,,,,,,,,,,,,,,,,,,,,,,,,,,,,,,,,,,,,,,,,,,,,,,,,,,,,,
,,,,right,1,0.3629,1,4,20,10,1,3,200,right,750,2022-01-21_22h13.05.152,multiplicationStroop,2021.2.3,Win32,60.17933442,,,,,,,,,,,,,,,,,,,,,,,,,,,,,,,,,,,,,,,,,,,,,,,,,,,,,,,,,
,,,,left,1,0.3312,1,5,21,4,1,6,-200,left,750,2022-01-21_22h13.05.152,multiplicationStroop,2021.2.3,Win32,60.17933442,,,,,,,,,,,,,,,,,,,,,,,,,,,,,,,,,,,,,,,,,,,,,,,,,,,,,,,,,
,,,,right,1,0.2787,1,6,22,15,1,9,200,right,750,2022-01-21_22h13.05.152,multiplicationStroop,2021.2.3,Win32,60.17933442,,,,,,,,,,,,,,,,,,,,,,,,,,,,,,,,,,,,,,,,,,,,,,,,,,,,,,,,,
,,,,right,1,0.348,1,7,23,14,1,8,200,right,750,2022-01-21_22h13.05.152,multiplicationStroop,2021.2.3,Win32,60.17933442,,,,,,,,,,,,,,,,,,,,,,,,,,,,,,,,,,,,,,,,,,,,,,,,,,,,,,,,,
,,,,right,1,0.2516,1,8,24,12,1,6,200,right,750,2022-01-21_22h13.05.152,multiplicationStroop,2021.2.3,Win32,60.17933442,,,,,,,,,,,,,,,,,,,,,,,,,,,,,,,,,,,,,,,,,,,,,,,,,,,,,,,,,
,,,,right,1,0.3548,1,9,25,8,1,1,200,right,750,2022-01-21_22h13.05.152,multiplicationStroop,2021.2.3,Win32,60.17933442,,,,,,,,,,,,,,,,,,,,,,,,,,,,,,,,,,,,,,,,,,,,,,,,,,,,,,,,,
,,,,left,1,0.3192,1,10,26,3,1,4,-200,left,750,2022-01-21_22h13.05.152,multiplicationStroop,2021.2.3,Win32,60.17933442,,,,,,,,,,,,,,,,,,,,,,,,,,,,,,,,,,,,,,,,,,,,,,,,,,,,,,,,,
,,,,left,1,0.3877,1,11,27,5,1,7,-200,left,750,2022-01-21_22h13.05.152,multiplicationStroop,2021.2.3,Win32,60.17933442,,,,,,,,,,,,,,,,,,,,,,,,,,,,,,,,,,,,,,,,,,,,,,,,,,,,,,,,,
,,,,left,1,0.3566,1,12,28,2,1,3,-200,left,750,2022-01-21_22h13.05.152,multiplicationStroop,2021.2.3,Win32,60.17933442,,,,,,,,,,,,,,,,,,,,,,,,,,,,,,,,,,,,,,,,,,,,,,,,,,,,,,,,,
,,,,right,1,0.3651,1,13,29,11,1,4,200,right,750,2022-01-21_22h13.05.152,multiplicationStroop,2021.2.3,Win32,60.17933442,,,,,,,,,,,,,,,,,,,,,,,,,,,,,,,,,,,,,,,,,,,,,,,,,,,,,,,,,
,,,,left,1,0.3034,1,14,30,1,1,2,-200,left,750,2022-01-21_22h13.05.152,multiplicationStroop,2021.2.3,Win32,60.17933442,,,,,,,,,,,,,,,,,,,,,,,,,,,,,,,,,,,,,,,,,,,,,,,,,,,,,,,,,
,,,,left,1,0.3648,1,15,31,0,1,1,-200,left,750,2022-01-21_22h13.05.152,multiplicationStroop,2021.2.3,Win32,60.17933442,,,,,,,,,,,,,,,,,,,,,,,,,,,,,,,,,,,,,,,,,,,,,,,,,,,,,,,,,
,,,,right,1,0.3562,2,0,32,8,1,1,200,right,750,2022-01-21_22h13.05.152,multiplicationStroop,2021.2.3,Win32,60.17933442,,,,,,,,,,,,,,,,,,,,,,,,,,,,,,,,,,,,,,,,,,,,,,,,,,,,,,,,,
,,,,right,1,0.4027,2,1,33,15,1,9,200,right,750,2022-01-21_22h13.05.152,multiplicationStroop,2021.2.3,Win32,60.17933442,,,,,,,,,,,,,,,,,,,,,,,,,,,,,,,,,,,,,,,,,,,,,,,,,,,,,,,,,
,,,,left,1,0.362,2,2,34,2,1,3,-200,left,750,2022-01-21_22h13.05.152,multiplicationStroop,2021.2.3,Win32,60.17933442,,,,,,,,,,,,,,,,,,,,,,,,,,,,,,,,,,,,,,,,,,,,,,,,,,,,,,,,,
,,,,left,1,0.38,2,3,35,6,1,8,-200,left,750,2022-01-21_22h13.05.152,multiplicationStroop,2021.2.3,Win32,60.17933442,,,,,,,,,,,,,,,,,,,,,,,,,,,,,,,,,,,,,,,,,,,,,,,,,,,,,,,,,
,,,,right,1,0.3294,2,4,36,13,1,7,200,right,750,2022-01-21_22h13.05.152,multiplicationStroop,2021.2.3,Win32,60.17933442,,,,,,,,,,,,,,,,,,,,,,,,,,,,,,,,,,,,,,,,,,,,,,,,,,,,,,,,,
,,,,left,1,0.3461,2,5,37,3,1,4,-200,left,750,2022-01-21_22h13.05.152,multiplicationStroop,2021.2.3,Win32,60.17933442,,,,,,,,,,,,,,,,,,,,,,,,,,,,,,,,,,,,,,,,,,,,,,,,,,,,,,,,,
,,,,left,1,0.3631,2,6,38,5,1,7,-200,left,750,2022-01-21_22h13.05.152,multiplicationStroop,2021.2.3,Win32,60.17933442,,,,,,,,,,,,,,,,,,,,,,,,,,,,,,,,,,,,,,,,,,,,,,,,,,,,,,,,,
,,,,right,1,0.3335,2,7,39,11,1,4,200,right,750,2022-01-21_22h13.05.152,multiplicationStroop,2021.2.3,Win32,60.17933442,,,,,,,,,,,,,,,,,,,,,,,,,,,,,,,,,,,,,,,,,,,,,,,,,,,,,,,,,
,,,,right,1,0.3344,2,8,40,10,1,3,200,right,750,2022-01-21_22h13.05.152,multiplicationStroop,2021.2.3,Win32,60.17933442,,,,,,,,,,,,,,,,,,,,,,,,,,,,,,,,,,,,,,,,,,,,,,,,,,,,,,,,,
,,,,left,1,0.3725,2,9,41,4,1,6,-200,left,750,2022-01-21_22h13.05.152,multiplicationStroop,2021.2.3,Win32,60.17933442,,,,,,,,,,,,,,,,,,,,,,,,,,,,,,,,,,,,,,,,,,,,,,,,,,,,,,,,,
,,,,right,1,0.3293,2,10,42,9,1,2,200,right,750,2022-01-21_22h13.05.152,multiplicationStroop,2021.2.3,Win32,60.17933442,,,,,,,,,,,,,,,,,,,,,,,,,,,,,,,,,,,,,,,,,,,,,,,,,,,,,,,,,
,,,,right,1,0.3465,2,11,43,14,1,8,200,right,750,2022-01-21_22h13.05.152,multiplicationStroop,2021.2.3,Win32,60.17933442,,,,,,,,,,,,,,,,,,,,,,,,,,,,,,,,,,,,,,,,,,,,,,,,,,,,,,,,,
,,,,right,0,0.3466,2,12,44,0,1,1,-200,left,750,2022-01-21_22h13.05.152,multiplicationStroop,2021.2.3,Win32,60.17933442,,,,,,,,,,,,,,,,,,,,,,,,,,,,,,,,,,,,,,,,,,,,,,,,,,,,,,,,,
,,,,left,1,0.6986,2,13,45,1,1,2,-200,left,750,2022-01-21_22h13.05.152,multiplicationStroop,2021.2.3,Win32,60.17933442,,,,,,,,,,,,,,,,,,,,,,,,,,,,,,,,,,,,,,,,,,,,,,,,,,,,,,,,,
,,,,right,1,0.4102,2,14,46,12,1,6,200,right,750,2022-01-21_22h13.05.152,multiplicationStroop,2021.2.3,Win32,60.17933442,,,,,,,,,,,,,,,,,,,,,,,,,,,,,,,,,,,,,,,,,,,,,,,,,,,,,,,,,
,,,,left,1,0.3171,2,15,47,7,1,9,-200,left,750,2022-01-21_22h13.05.152,multiplicationStroop,2021.2.3,Win32,60.17933442,,,,,,,,,,,,,,,,,,,,,,,,,,,,,,,,,,,,,,,,,,,,,,,,,,,,,,,,,
,,,,left,1,0.3631,3,0,48,6,1,8,-200,left,750,2022-01-21_22h13.05.152,multiplicationStroop,2021.2.3,Win32,60.17933442,,,,,,,,,,,,,,,,,,,,,,,,,,,,,,,,,,,,,,,,,,,,,,,,,,,,,,,,,
,,,,right,1,0.3463,3,1,49,12,1,6,200,right,750,2022-01-21_22h13.05.152,multiplicationStroop,2021.2.3,Win32,60.17933442,,,,,,,,,,,,,,,,,,,,,,,,,,,,,,,,,,,,,,,,,,,,,,,,,,,,,,,,,
,,,,left,1,0.3021,3,2,50,7,1,9,-200,left,750,2022-01-21_22h13.05.152,multiplicationStroop,2021.2.3,Win32,60.17933442,,,,,,,,,,,,,,,,,,,,,,,,,,,,,,,,,,,,,,,,,,,,,,,,,,,,,,,,,
,,,,right,1,0.3168,3,3,51,10,1,3,200,right,750,2022-01-21_22h13.05.152,multiplicationStroop,2021.2.3,Win32,60.17933442,,,,,,,,,,,,,,,,,,,,,,,,,,,,,,,,,,,,,,,,,,,,,,,,,,,,,,,,,
,,,,right,1,0.3444,3,4,52,14,1,8,200,right,750,2022-01-21_22h13.05.152,multiplicationStroop,2021.2.3,Win32,60.17933442,,,,,,,,,,,,,,,,,,,,,,,,,,,,,,,,,,,,,,,,,,,,,,,,,,,,,,,,,
,,,,right,1,0.2961,3,5,53,13,1,7,200,right,750,2022-01-21_22h13.05.152,multiplicationStroop,2021.2.3,Win32,60.17933442,,,,,,,,,,,,,,,,,,,,,,,,,,,,,,,,,,,,,,,,,,,,,,,,,,,,,,,,,
,,,,left,1,0.3456,3,6,54,2,1,3,-200,left,750,2022-01-21_22h13.05.152,multiplicationStroop,2021.2.3,Win32,60.17933442,,,,,,,,,,,,,,,,,,,,,,,,,,,,,,,,,,,,,,,,,,,,,,,,,,,,,,,,,
,,,,left,1,0.3448,3,7,55,5,1,7,-200,left,750,2022-01-21_22h13.05.152,multiplicationStroop,2021.2.3,Win32,60.17933442,,,,,,,,,,,,,,,,,,,,,,,,,,,,,,,,,,,,,,,,,,,,,,,,,,,,,,,,,
,,,,right,1,0.2852,3,8,56,9,1,2,200,right,750,2022-01-21_22h13.05.152,multiplicationStroop,2021.2.3,Win32,60.17933442,,,,,,,,,,,,,,,,,,,,,,,,,,,,,,,,,,,,,,,,,,,,,,,,,,,,,,,,,
,,,,right,1,0.3289,3,9,57,15,1,9,200,right,750,2022-01-21_22h13.05.152,multiplicationStroop,2021.2.3,Win32,60.17933442,,,,,,,,,,,,,,,,,,,,,,,,,,,,,,,,,,,,,,,,,,,,,,,,,,,,,,,,,
,,,,right,0,0.2962,3,10,58,1,1,2,-200,left,750,2022-01-21_22h13.05.152,multiplicationStroop,2021.2.3,Win32,60.17933442,,,,,,,,,,,,,,,,,,,,,,,,,,,,,,,,,,,,,,,,,,,,,,,,,,,,,,,,,
,,,,left,1,0.6615,3,11,59,0,1,1,-200,left,750,2022-01-21_22h13.05.152,multiplicationStroop,2021.2.3,Win32,60.17933442,,,,,,,,,,,,,,,,,,,,,,,,,,,,,,,,,,,,,,,,,,,,,,,,,,,,,,,,,
,,,,right,1,0.3627,3,12,60,11,1,4,200,right,750,2022-01-21_22h13.05.152,multiplicationStroop,2021.2.3,Win32,60.17933442,,,,,,,,,,,,,,,,,,,,,,,,,,,,,,,,,,,,,,,,,,,,,,,,,,,,,,,,,
,,,,left,1,0.3673,3,13,61,3,1,4,-200,left,750,2022-01-21_22h13.05.152,multiplicationStroop,2021.2.3,Win32,60.17933442,,,,,,,,,,,,,,,,,,,,,,,,,,,,,,,,,,,,,,,,,,,,,,,,,,,,,,,,,
,,,,left,1,0.3686,3,14,62,4,1,6,-200,left,750,2022-01-21_22h13.05.152,multiplicationStroop,2021.2.3,Win32,60.17933442,,,,,,,,,,,,,,,,,,,,,,,,,,,,,,,,,,,,,,,,,,,,,,,,,,,,,,,,,
,,,,right,1,0.3286,3,15,63,8,1,1,200,right,750,2022-01-21_22h13.05.152,multiplicationStroop,2021.2.3,Win32,60.17933442,,,,,,,,,,,,,,,,,,,,,,,,,,,,,,,,,,,,,,,,,,,,,,,,,,,,,,,,,
,,,,,,,,,,,,,,,750,2022-01-21_22h13.05.152,multiplicationStroop,2021.2.3,Win32,60.17933442,space,19.3059,space,7.5072,right,1,0.7667,0,0,0,10,1,6,8,6 | 8,2,1.4111,1.9756,congruent,right,,,,,,stimulusFile/magnitude.xlsx,,,,,,,,,,,,,,,,,,,,,,,,,,,,,,,
,,,,,,,,,,,,,,,750,2022-01-21_22h13.05.152,multiplicationStroop,2021.2.3,Win32,60.17933442,,,,,left,1,0.5999,0,1,1,4,1,2,1,2 | 1,1,1.9756,1.4111,congruent,left,,,,,,stimulusFile/magnitude.xlsx,,,,,,,,,,,,,,,,,,,,,,,,,,,,,,,
,,,,,,,,,,,,,,,750,2022-01-21_22h13.05.152,multiplicationStroop,2021.2.3,Win32,60.17933442,,,,,left,1,0.668,0,2,2,71,1,9,4,9 | 4,5,1.6933,1.6933,neutral,left,,,,,,stimulusFile/magnitude.xlsx,,,,,,,,,,,,,,,,,,,,,,,,,,,,,,,
,,,,,,,,,,,,,,,750,2022-01-21_22h13.05.152,multiplicationStroop,2021.2.3,Win32,60.17933442,,,,,left,1,0.8185,0,3,3,37,1,4,2,4 | 2,2,1.4111,1.9756,incongruent,left,,,,,,stimulusFile/magnitude.xlsx,,,,,,,,,,,,,,,,,,,,,,,,,,,,,,,
,,,,,,,,,,,,,,,750,2022-01-21_22h13.05.152,multiplicationStroop,2021.2.3,Win32,60.17933442,,,,,left,1,0.6179,0,4,4,62,1,8,6,8 | 6,2,1.6933,1.6933,neutral,left,,,,,,stimulusFile/magnitude.xlsx,,,,,,,,,,,,,,,,,,,,,,,,,,,,,,,
,,,,,,,,,,,,,,,750,2022-01-21_22h13.05.152,multiplicationStroop,2021.2.3,Win32,60.17933442,,,,,right,1,0.6156,0,5,5,9,1,2,4,2 | 4,2,1.4111,1.9756,congruent,right,,,,,,stimulusFile/magnitude.xlsx,,,,,,,,,,,,,,,,,,,,,,,,,,,,,,,
,,,,,,,,,,,,,,,750,2022-01-21_22h13.05.152,multiplicationStroop,2021.2.3,Win32,60.17933442,,,,,left,1,0.5678,0,6,6,13,1,4,2,4 | 2,2,1.9756,1.4111,congruent,left,,,,,,stimulusFile/magnitude.xlsx,,,,,,,,,,,,,,,,,,,,,,,,,,,,,,,
,,,,,,,,,,,,,,,750,2022-01-21_22h13.05.152,multiplicationStroop,2021.2.3,Win32,60.17933442,,,,,left,1,0.7233,0,7,7,29,1,4,3,4 | 3,1,1.4111,1.9756,incongruent,left,,,,,,stimulusFile/magnitude.xlsx,,,,,,,,,,,,,,,,,,,,,,,,,,,,,,,
,,,,,,,,,,,,,,,750,2022-01-21_22h13.05.152,multiplicationStroop,2021.2.3,Win32,60.17933442,,,,,right,1,1.0201,0,8,8,65,1,2,7,2 | 7,5,1.6933,1.6933,neutral,right,,,,,,stimulusFile/magnitude.xlsx,,,,,,,,,,,,,,,,,,,,,,,,,,,,,,,
,,,,,,,,,,,,,,,750,2022-01-21_22h13.05.152,multiplicationStroop,2021.2.3,Win32,60.17933442,,,,,right,1,0.547,0,9,9,16,1,1,6,1 | 6,5,1.4111,1.9756,congruent,right,,,,,,stimulusFile/magnitude.xlsx,,,,,,,,,,,,,,,,,,,,,,,,,,,,,,,
,,,,,,,,,,,,,,,750,2022-01-21_22h13.05.152,multiplicationStroop,2021.2.3,Win32,60.17933442,,,,,left,1,0.5519,0,10,10,52,1,2,1,2 | 1,1,1.6933,1.6933,neutral,left,,,,,,stimulusFile/magnitude.xlsx,,,,,,,,,,,,,,,,,,,,,,,,,,,,,,,
,,,,,,,,,,,,,,,750,2022-01-21_22h13.05.152,multiplicationStroop,2021.2.3,Win32,60.17933442,,,,,left,1,0.8172,0,11,11,31,1,9,8,9 | 8,1,1.4111,1.9756,incongruent,left,,,,,,stimulusFile/magnitude.xlsx,,,,,,,,,,,,,,,,,,,,,,,,,,,,,,,
,,,,,,,,,,,,,,,750,2022-01-21_22h13.05.152,multiplicationStroop,2021.2.3,Win32,60.17933442,,,,,right,1,0.7501,0,12,12,34,1,6,8,6 | 8,2,1.9756,1.4111,incongruent,right,,,,,,stimulusFile/magnitude.xlsx,,,,,,,,,,,,,,,,,,,,,,,,,,,,,,,
,,,,,,,,,,,,,,,750,2022-01-21_22h13.05.152,multiplicationStroop,2021.2.3,Win32,60.17933442,,,,,left,1,0.6006,0,13,13,63,1,9,7,9 | 7,2,1.6933,1.6933,neutral,left,,,,,,stimulusFile/magnitude.xlsx,,,,,,,,,,,,,,,,,,,,,,,,,,,,,,,
,,,,,,,,,,,,,,,750,2022-01-21_22h13.05.152,multiplicationStroop,2021.2.3,Win32,60.17933442,,,,,left,1,0.6563,0,14,14,46,1,8,3,8 | 3,5,1.4111,1.9756,incongruent,left,,,,,,stimulusFile/magnitude.xlsx,,,,,,,,,,,,,,,,,,,,,,,,,,,,,,,
,,,,,,,,,,,,,,,750,2022-01-21_22h13.05.152,multiplicationStroop,2021.2.3,Win32,60.17933442,,,,,left,1,0.5331,0,15,15,44,1,6,1,6 | 1,5,1.4111,1.9756,incongruent,left,,,,,,stimulusFile/magnitude.xlsx,,,,,,,,,,,,,,,,,,,,,,,,,,,,,,,
,,,,,,,,,,,,,,,750,2022-01-21_22h13.05.152,multiplicationStroop,2021.2.3,Win32,60.17933442,,,,,right,1,0.5499,0,16,16,41,1,2,7,2 | 7,5,1.9756,1.4111,incongruent,right,,,,,,stimulusFile/magnitude.xlsx,,,,,,,,,,,,,,,,,,,,,,,,,,,,,,,
,,,,,,,,,,,,,,,750,2022-01-21_22h13.05.152,multiplicationStroop,2021.2.3,Win32,60.17933442,,,,,right,1,0.6506,0,17,17,59,1,7,9,7 | 9,2,1.6933,1.6933,neutral,right,,,,,,stimulusFile/magnitude.xlsx,,,,,,,,,,,,,,,,,,,,,,,,,,,,,,,
,,,,,,,,,,,,,,,750,2022-01-21_22h13.05.152,multiplicationStroop,2021.2.3,Win32,60.17933442,,,,,left,0,0.5998,0,18,18,50,1,6,7,6 | 7,1,1.6933,1.6933,neutral,right,,,,,,stimulusFile/magnitude.xlsx,,,,,,,,,,,,,,,,,,,,,,,,,,,,,,,
,,,,,,,,,,,,,,,750,2022-01-21_22h13.05.152,multiplicationStroop,2021.2.3,Win32,60.17933442,,,,,left,1,0.7162,0,19,19,54,1,7,6,7 | 6,1,1.6933,1.6933,neutral,left,,,,,,stimulusFile/magnitude.xlsx,,,,,,,,,,,,,,,,,,,,,,,,,,,,,,,
,,,,,,,,,,,,,,,750,2022-01-21_22h13.05.152,multiplicationStroop,2021.2.3,Win32,60.17933442,,,,,right,1,0.572,0,20,20,32,1,1,3,1 | 3,2,1.9756,1.4111,incongruent,right,,,,,,stimulusFile/magnitude.xlsx,,,,,,,,,,,,,,,,,,,,,,,,,,,,,,,
,,,,,,,,,,,,,,,750,2022-01-21_22h13.05.152,multiplicationStroop,2021.2.3,Win32,60.17933442,,,,,left,1,0.5015,0,21,21,15,1,9,7,9 | 7,2,1.9756,1.4111,congruent,left,,,,,,stimulusFile/magnitude.xlsx,,,,,,,,,,,,,,,,,,,,,,,,,,,,,,,
,,,,,,,,,,,,,,,750,2022-01-21_22h13.05.152,multiplicationStroop,2021.2.3,Win32,60.17933442,,,,,right,1,0.5149,0,22,22,64,1,1,6,1 | 6,5,1.6933,1.6933,neutral,right,,,,,,stimulusFile/magnitude.xlsx,,,,,,,,,,,,,,,,,,,,,,,,,,,,,,,
,,,,,,,,,,,,,,,750,2022-01-21_22h13.05.152,multiplicationStroop,2021.2.3,Win32,60.17933442,,,,,right,1,0.5482,0,23,23,11,1,7,9,7 | 9,2,1.4111,1.9756,congruent,right,,,,,,stimulusFile/magnitude.xlsx,,,,,,,,,,,,,,,,,,,,,,,,,,,,,,,
,,,,,,,,,,,,,,,750,2022-01-21_22h13.05.152,multiplicationStroop,2021.2.3,Win32,60.17933442,,,,,right,1,0.5319,0,24,24,66,1,3,8,3 | 8,5,1.6933,1.6933,neutral,right,,,,,,stimulusFile/magnitude.xlsx,,,,,,,,,,,,,,,,,,,,,,,,,,,,,,,
,,,,,,,,,,,,,,,750,2022-01-21_22h13.05.152,multiplicationStroop,2021.2.3,Win32,60.17933442,,,,,left,1,0.6007,0,25,25,7,1,9,8,9 | 8,1,1.9756,1.4111,congruent,left,,,,,,stimulusFile/magnitude.xlsx,,,,,,,,,,,,,,,,,,,,,,,,,,,,,,,
,,,,,,,,,,,,,,,750,2022-01-21_22h13.05.152,multiplicationStroop,2021.2.3,Win32,60.17933442,,,,,left,1,0.5253,0,26,26,21,1,7,2,7 | 2,5,1.9756,1.4111,congruent,left,,,,,,stimulusFile/magnitude.xlsx,,,,,,,,,,,,,,,,,,,,,,,,,,,,,,,
,,,,,,,,,,,,,,,750,2022-01-21_22h13.05.152,multiplicationStroop,2021.2.3,Win32,60.17933442,,,,,left,1,0.778,0,27,27,55,1,9,8,9 | 8,1,1.6933,1.6933,neutral,left,,,,,,stimulusFile/magnitude.xlsx,,,,,,,,,,,,,,,,,,,,,,,,,,,,,,,
,,,,,,,,,,,,,,,750,2022-01-21_22h13.05.152,multiplicationStroop,2021.2.3,Win32,60.17933442,,,,,right,1,0.5346,0,28,28,19,1,4,9,4 | 9,5,1.4111,1.9756,congruent,right,,,,,,stimulusFile/magnitude.xlsx,,,,,,,,,,,,,,,,,,,,,,,,,,,,,,,
,,,,,,,,,,,,,,,750,2022-01-21_22h13.05.152,multiplicationStroop,2021.2.3,Win32,60.17933442,,,,,left,1,0.5325,0,29,29,22,1,8,3,8 | 3,5,1.9756,1.4111,congruent,left,,,,,,stimulusFile/magnitude.xlsx,,,,,,,,,,,,,,,,,,,,,,,,,,,,,,,
,,,,,,,,,,,,,,,750,2022-01-21_22h13.05.152,multiplicationStroop,2021.2.3,Win32,60.17933442,,,,,right,0,0.568,0,30,30,30,1,7,6,7 | 6,1,1.4111,1.9756,incongruent,left,,,,,,stimulusFile/magnitude.xlsx,,,,,,,,,,,,,,,,,,,,,,,,,,,,,,,
,,,,,,,,,,,,,,,750,2022-01-21_22h13.05.152,multiplicationStroop,2021.2.3,Win32,60.17933442,,,,,right,1,1.1839,0,31,31,26,1,6,7,6 | 7,1,1.9756,1.4111,incongruent,right,,,,,,stimulusFile/magnitude.xlsx,,,,,,,,,,,,,,,,,,,,,,,,,,,,,,,
,,,,,,,,,,,,,,,750,2022-01-21_22h13.05.152,multiplicationStroop,2021.2.3,Win32,60.17933442,,,,,left,1,0.5329,0,32,32,69,1,7,2,7 | 2,5,1.6933,1.6933,neutral,left,,,,,,stimulusFile/magnitude.xlsx,,,,,,,,,,,,,,,,,,,,,,,,,,,,,,,
,,,,,,,,,,,,,,,750,2022-01-21_22h13.05.152,multiplicationStroop,2021.2.3,Win32,60.17933442,,,,,left,1,0.5177,0,33,33,23,1,9,4,9 | 4,5,1.9756,1.4111,congruent,left,,,,,,stimulusFile/magnitude.xlsx,,,,,,,,,,,,,,,,,,,,,,,,,,,,,,,
,,,,,,,,,,,,,,,750,2022-01-21_22h13.05.152,multiplicationStroop,2021.2.3,Win32,60.17933442,,,,,left,1,0.6179,0,34,34,60,1,3,1,3 | 1,2,1.6933,1.6933,neutral,left,,,,,,stimulusFile/magnitude.xlsx,,,,,,,,,,,,,,,,,,,,,,,,,,,,,,,
,,,,,,,,,,,,,,,750,2022-01-21_22h13.05.152,multiplicationStroop,2021.2.3,Win32,60.17933442,,,,,right,1,0.528,0,35,35,1,1,3,4,3 | 4,1,1.4111,1.9756,congruent,right,,,,,,stimulusFile/magnitude.xlsx,,,,,,,,,,,,,,,,,,,,,,,,,,,,,,,
,,,,,,,,,,,,,,,750,2022-01-21_22h13.05.152,multiplicationStroop,2021.2.3,Win32,60.17933442,,,,,left,1,0.5346,0,36,36,14,1,8,6,8 | 6,2,1.9756,1.4111,congruent,left,,,,,,stimulusFile/magnitude.xlsx,,,,,,,,,,,,,,,,,,,,,,,,,,,,,,,
,,,,,,,,,,,,,,,750,2022-01-21_22h13.05.152,multiplicationStroop,2021.2.3,Win32,60.17933442,,,,,left,1,0.7007,0,37,37,6,1,7,6,7 | 6,1,1.9756,1.4111,congruent,left,,,,,,stimulusFile/magnitude.xlsx,,,,,,,,,,,,,,,,,,,,,,,,,,,,,,,
,,,,,,,,,,,,,,,750,2022-01-21_22h13.05.152,multiplicationStroop,2021.2.3,Win32,60.17933442,,,,,right,1,0.5198,0,38,38,18,1,3,8,3 | 8,5,1.4111,1.9756,congruent,right,,,,,,stimulusFile/magnitude.xlsx,,,,,,,,,,,,,,,,,,,,,,,,,,,,,,,
,,,,,,,,,,,,,,,750,2022-01-21_22h13.05.152,multiplicationStroop,2021.2.3,Win32,60.17933442,,,,,left,1,0.6088,0,39,39,39,1,9,7,9 | 7,2,1.4111,1.9756,incongruent,left,,,,,,stimulusFile/magnitude.xlsx,,,,,,,,,,,,,,,,,,,,,,,,,,,,,,,
,,,,,,,,,,,,,,,750,2022-01-21_22h13.05.152,multiplicationStroop,2021.2.3,Win32,60.17933442,,,,,right,1,0.6322,0,40,40,56,1,1,3,1 | 3,2,1.6933,1.6933,neutral,right,,,,,,stimulusFile/magnitude.xlsx,,,,,,,,,,,,,,,,,,,,,,,,,,,,,,,
,,,,,,,,,,,,,,,750,2022-01-21_22h13.05.152,multiplicationStroop,2021.2.3,Win32,60.17933442,,,,,left,1,0.5004,0,41,41,12,1,3,1,3 | 1,2,1.9756,1.4111,congruent,left,,,,,,stimulusFile/magnitude.xlsx,,,,,,,,,,,,,,,,,,,,,,,,,,,,,,,
,,,,,,,,,,,,,,,750,2022-01-21_22h13.05.152,multiplicationStroop,2021.2.3,Win32,60.17933442,,,,,left,1,0.7179,0,42,42,70,1,8,3,8 | 3,5,1.6933,1.6933,neutral,left,,,,,,stimulusFile/magnitude.xlsx,,,,,,,,,,,,,,,,,,,,,,,,,,,,,,,
,,,,,,,,,,,,,,,750,2022-01-21_22h13.05.152,multiplicationStroop,2021.2.3,Win32,60.17933442,,,,,right,1,0.6015,0,43,43,40,1,1,6,1 | 6,5,1.9756,1.4111,incongruent,right,,,,,,stimulusFile/magnitude.xlsx,,,,,,,,,,,,,,,,,,,,,,,,,,,,,,,
,,,,,,,,,,,,,,,750,2022-01-21_22h13.05.152,multiplicationStroop,2021.2.3,Win32,60.17933442,,,,,left,1,0.8344,0,44,44,38,1,8,6,8 | 6,2,1.4111,1.9756,incongruent,left,,,,,,stimulusFile/magnitude.xlsx,,,,,,,,,,,,,,,,,,,,,,,,,,,,,,,
,,,,,,,,,,,,,,,750,2022-01-21_22h13.05.152,multiplicationStroop,2021.2.3,Win32,60.17933442,,,,,right,1,0.6675,0,45,45,57,1,2,4,2 | 4,2,1.6933,1.6933,neutral,right,,,,,,stimulusFile/magnitude.xlsx,,,,,,,,,,,,,,,,,,,,,,,,,,,,,,,
,,,,,,,,,,,,,,,750,2022-01-21_22h13.05.152,multiplicationStroop,2021.2.3,Win32,60.17933442,,,,,left,1,0.5276,0,46,46,68,1,6,1,6 | 1,5,1.6933,1.6933,neutral,left,,,,,,stimulusFile/magnitude.xlsx,,,,,,,,,,,,,,,,,,,,,,,,,,,,,,,
,,,,,,,,,,,,,,,750,2022-01-21_22h13.05.152,multiplicationStroop,2021.2.3,Win32,60.17933442,,,,,right,1,0.88,0,47,47,58,1,6,8,6 | 8,2,1.6933,1.6933,neutral,right,,,,,,stimulusFile/magnitude.xlsx,,,,,,,,,,,,,,,,,,,,,,,,,,,,,,,
,,,,,,,,,,,,,,,750,2022-01-21_22h13.05.152,multiplicationStroop,2021.2.3,Win32,60.17933442,,,,,left,1,0.6506,0,48,48,28,1,2,1,2 | 1,1,1.4111,1.9756,incongruent,left,,,,,,stimulusFile/magnitude.xlsx,,,,,,,,,,,,,,,,,,,,,,,,,,,,,,,
,,,,,,,,,,,,,,,750,2022-01-21_22h13.05.152,multiplicationStroop,2021.2.3,Win32,60.17933442,,,,,right,1,0.6812,0,49,49,49,1,3,4,3 | 4,1,1.6933,1.6933,neutral,right,,,,,,stimulusFile/magnitude.xlsx,,,,,,,,,,,,,,,,,,,,,,,,,,,,,,,
,,,,,,,,,,,,,,,750,2022-01-21_22h13.05.152,multiplicationStroop,2021.2.3,Win32,60.17933442,,,,,right,1,0.6177,0,50,50,2,1,6,7,6 | 7,1,1.4111,1.9756,congruent,right,,,,,,stimulusFile/magnitude.xlsx,,,,,,,,,,,,,,,,,,,,,,,,,,,,,,,
,,,,,,,,,,,,,,,750,2022-01-21_22h13.05.152,multiplicationStroop,2021.2.3,Win32,60.17933442,,,,,right,1,0.6065,0,51,51,48,1,1,2,1 | 2,1,1.6933,1.6933,neutral,right,,,,,,stimulusFile/magnitude.xlsx,,,,,,,,,,,,,,,,,,,,,,,,,,,,,,,
,,,,,,,,,,,,,,,750,2022-01-21_22h13.05.152,multiplicationStroop,2021.2.3,Win32,60.17933442,,,,,left,1,0.5734,0,52,52,47,1,9,4,9 | 4,5,1.4111,1.9756,incongruent,left,,,,,,stimulusFile/magnitude.xlsx,,,,,,,,,,,,,,,,,,,,,,,,,,,,,,,
,,,,,,,,,,,,,,,750,2022-01-21_22h13.05.152,multiplicationStroop,2021.2.3,Win32,60.17933442,,,,,left,1,0.6614,0,53,53,53,1,4,3,4 | 3,1,1.6933,1.6933,neutral,left,,,,,,stimulusFile/magnitude.xlsx,,,,,,,,,,,,,,,,,,,,,,,,,,,,,,,
,,,,,,,,,,,,,,,750,2022-01-21_22h13.05.152,multiplicationStroop,2021.2.3,Win32,60.17933442,,,,,right,1,0.5555,0,54,54,0,1,1,2,1 | 2,1,1.4111,1.9756,congruent,right,,,,,,stimulusFile/magnitude.xlsx,,,,,,,,,,,,,,,,,,,,,,,,,,,,,,,
,,,,,,,,,,,,,,,750,2022-01-21_22h13.05.152,multiplicationStroop,2021.2.3,Win32,60.17933442,,,,,left,1,0.48,0,55,55,20,1,6,1,6 | 1,5,1.9756,1.4111,congruent,left,,,,,,stimulusFile/magnitude.xlsx,,,,,,,,,,,,,,,,,,,,,,,,,,,,,,,
,,,,,,,,,,,,,,,750,2022-01-21_22h13.05.152,multiplicationStroop,2021.2.3,Win32,60.17933442,,,,,left,1,0.7489,0,56,56,36,1,3,1,3 | 1,2,1.4111,1.9756,incongruent,left,,,,,,stimulusFile/magnitude.xlsx,,,,,,,,,,,,,,,,,,,,,,,,,,,,,,,
,,,,,,,,,,,,,,,750,2022-01-21_22h13.05.152,multiplicationStroop,2021.2.3,Win32,60.17933442,,,,,left,1,0.6086,0,57,57,61,1,4,2,4 | 2,2,1.6933,1.6933,neutral,left,,,,,,stimulusFile/magnitude.xlsx,,,,,,,,,,,,,,,,,,,,,,,,,,,,,,,
,,,,,,,,,,,,,,,750,2022-01-21_22h13.05.152,multiplicationStroop,2021.2.3,Win32,60.17933442,,,,,left,1,0.5776,0,58,58,45,1,7,2,7 | 2,5,1.4111,1.9756,incongruent,left,,,,,,stimulusFile/magnitude.xlsx,,,,,,,,,,,,,,,,,,,,,,,,,,,,,,,
,,,,,,,,,,,,,,,750,2022-01-21_22h13.05.152,multiplicationStroop,2021.2.3,Win32,60.17933442,,,,,right,1,0.5684,0,59,59,25,1,3,4,3 | 4,1,1.9756,1.4111,incongruent,right,,,,,,stimulusFile/magnitude.xlsx,,,,,,,,,,,,,,,,,,,,,,,,,,,,,,,
,,,,,,,,,,,,,,,750,2022-01-21_22h13.05.152,multiplicationStroop,2021.2.3,Win32,60.17933442,,,,,right,1,0.5506,0,60,60,27,1,8,9,8 | 9,1,1.9756,1.4111,incongruent,right,,,,,,stimulusFile/magnitude.xlsx,,,,,,,,,,,,,,,,,,,,,,,,,,,,,,,
,,,,,,,,,,,,,,,750,2022-01-21_22h13.05.152,multiplicationStroop,2021.2.3,Win32,60.17933442,,,,,right,1,0.507,0,61,61,3,1,8,9,8 | 9,1,1.4111,1.9756,congruent,right,,,,,,stimulusFile/magnitude.xlsx,,,,,,,,,,,,,,,,,,,,,,,,,,,,,,,
,,,,,,,,,,,,,,,750,2022-01-21_22h13.05.152,multiplicationStroop,2021.2.3,Win32,60.17933442,,,,,left,0,0.6011,0,62,62,51,1,8,9,8 | 9,1,1.6933,1.6933,neutral,right,,,,,,stimulusFile/magnitude.xlsx,,,,,,,,,,,,,,,,,,,,,,,,,,,,,,,
,,,,,,,,,,,,,,,750,2022-01-21_22h13.05.152,multiplicationStroop,2021.2.3,Win32,60.17933442,,,,,right,1,0.7078,0,63,63,43,1,4,9,4 | 9,5,1.9756,1.4111,incongruent,right,,,,,,stimulusFile/magnitude.xlsx,,,,,,,,,,,,,,,,,,,,,,,,,,,,,,,
,,,,,,,,,,,,,,,750,2022-01-21_22h13.05.152,multiplicationStroop,2021.2.3,Win32,60.17933442,,,,,right,1,0.8172,0,64,64,33,1,2,4,2 | 4,2,1.9756,1.4111,incongruent,right,,,,,,stimulusFile/magnitude.xlsx,,,,,,,,,,,,,,,,,,,,,,,,,,,,,,,
,,,,,,,,,,,,,,,750,2022-01-21_22h13.05.152,multiplicationStroop,2021.2.3,Win32,60.17933442,,,,,right,1,0.5343,0,65,65,67,1,4,9,4 | 9,5,1.6933,1.6933,neutral,right,,,,,,stimulusFile/magnitude.xlsx,,,,,,,,,,,,,,,,,,,,,,,,,,,,,,,
,,,,,,,,,,,,,,,750,2022-01-21_22h13.05.152,multiplicationStroop,2021.2.3,Win32,60.17933442,,,,,right,1,0.6897,0,66,66,35,1,7,9,7 | 9,2,1.9756,1.4111,incongruent,right,,,,,,stimulusFile/magnitude.xlsx,,,,,,,,,,,,,,,,,,,,,,,,,,,,,,,
,,,,,,,,,,,,,,,750,2022-01-21_22h13.05.152,multiplicationStroop,2021.2.3,Win32,60.17933442,,,,,right,1,0.5422,0,67,67,42,1,3,8,3 | 8,5,1.9756,1.4111,incongruent,right,,,,,,stimulusFile/magnitude.xlsx,,,,,,,,,,,,,,,,,,,,,,,,,,,,,,,
,,,,,,,,,,,,,,,750,2022-01-21_22h13.05.152,multiplicationStroop,2021.2.3,Win32,60.17933442,,,,,right,1,0.6681,0,68,68,24,1,1,2,1 | 2,1,1.9756,1.4111,incongruent,right,,,,,,stimulusFile/magnitude.xlsx,,,,,,,,,,,,,,,,,,,,,,,,,,,,,,,
,,,,,,,,,,,,,,,750,2022-01-21_22h13.05.152,multiplicationStroop,2021.2.3,Win32,60.17933442,,,,,right,1,0.5315,0,69,69,17,1,2,7,2 | 7,5,1.4111,1.9756,congruent,right,,,,,,stimulusFile/magnitude.xlsx,,,,,,,,,,,,,,,,,,,,,,,,,,,,,,,
,,,,,,,,,,,,,,,750,2022-01-21_22h13.05.152,multiplicationStroop,2021.2.3,Win32,60.17933442,,,,,right,1,0.5378,0,70,70,8,1,1,3,1 | 3,2,1.4111,1.9756,congruent,right,,,,,,stimulusFile/magnitude.xlsx,,,,,,,,,,,,,,,,,,,,,,,,,,,,,,,
,,,,,,,,,,,,,,,750,2022-01-21_22h13.05.152,multiplicationStroop,2021.2.3,Win32,60.17933442,,,,,left,1,0.5902,0,71,71,5,1,4,3,4 | 3,1,1.9756,1.4111,congruent,left,,,,,,stimulusFile/magnitude.xlsx,,,,,,,,,,,,,,,,,,,,,,,,,,,,,,,
,,,,,,,,,,,,,,,750,2022-01-21_22h13.05.152,multiplicationStroop,2021.2.3,Win32,60.17933442,,,,,,,,,,,,,,,,,,,,,0,0,0,0,1,stimulusFile/magnitude.xlsx,NUMERICALLY larger (larger coefficient).,images/numericallyLarger.png,,,,,,,,,,,,,,,,,,,,,,,,,,,,,
,,,,,,,,,,,,,,,750,2022-01-21_22h13.05.152,multiplicationStroop,2021.2.3,Win32,60.17933442,space,6.1781,space,3.2378,right,1,0.7571,0,0,0,56,1,1,1,1 | 1,0,1.4111,1.9756,neutral,right,,,,,,stimulusFile/physical.xlsx,,,,,,,,,,,,,,,,,,,,,,,,,,,,,,,
,,,,,,,,,,,,,,,750,2022-01-21_22h13.05.152,multiplicationStroop,2021.2.3,Win32,60.17933442,,,,,right,0,0.5265,0,1,1,71,1,9,9,9 | 9,0,1.4111,1.9756,neutral,left,,,,,,stimulusFile/physical.xlsx,,,,,,,,,,,,,,,,,,,,,,,,,,,,,,,
,,,,,,,,,,,,,,,750,2022-01-21_22h13.05.152,multiplicationStroop,2021.2.3,Win32,60.17933442,,,,,left,1,0.4757,0,2,2,4,1,2,1,2 | 1,1,1.9756,1.4111,congruent,left,,,,,,stimulusFile/physical.xlsx,,,,,,,,,,,,,,,,,,,,,,,,,,,,,,,
,,,,,,,,,,,,,,,750,2022-01-21_22h13.05.152,multiplicationStroop,2021.2.3,Win32,60.17933442,,,,,right,1,0.425,0,3,3,8,1,1,3,1 | 3,2,1.4111,1.9756,congruent,right,,,,,,stimulusFile/physical.xlsx,,,,,,,,,,,,,,,,,,,,,,,,,,,,,,,
,,,,,,,,,,,,,,,750,2022-01-21_22h13.05.152,multiplicationStroop,2021.2.3,Win32,60.17933442,,,,,right,1,0.5976,0,4,4,39,1,9,7,9 | 7,2,1.4111,1.9756,incongruent,right,,,,,,stimulusFile/physical.xlsx,,,,,,,,,,,,,,,,,,,,,,,,,,,,,,,
,,,,,,,,,,,,,,,750,2022-01-21_22h13.05.152,multiplicationStroop,2021.2.3,Win32,60.17933442,,,,,right,1,0.4648,0,5,5,60,1,3,3,3 | 3,0,1.4111,1.9756,neutral,right,,,,,,stimulusFile/physical.xlsx,,,,,,,,,,,,,,,,,,,,,,,,,,,,,,,
,,,,,,,,,,,,,,,750,2022-01-21_22h13.05.152,multiplicationStroop,2021.2.3,Win32,60.17933442,,,,,right,1,0.6758,0,6,6,37,1,4,2,4 | 2,2,1.4111,1.9756,incongruent,right,,,,,,stimulusFile/physical.xlsx,,,,,,,,,,,,,,,,,,,,,,,,,,,,,,,
,,,,,,,,,,,,,,,750,2022-01-21_22h13.05.152,multiplicationStroop,2021.2.3,Win32,60.17933442,,,,,right,1,0.5239,0,7,7,30,1,7,6,7 | 6,1,1.4111,1.9756,incongruent,right,,,,,,stimulusFile/physical.xlsx,,,,,,,,,,,,,,,,,,,,,,,,,,,,,,,
,,,,,,,,,,,,,,,750,2022-01-21_22h13.05.152,multiplicationStroop,2021.2.3,Win32,60.17933442,,,,,right,1,0.5706,0,8,8,47,1,9,4,9 | 4,5,1.4111,1.9756,incongruent,right,,,,,,stimulusFile/physical.xlsx,,,,,,,,,,,,,,,,,,,,,,,,,,,,,,,
,,,,,,,,,,,,,,,750,2022-01-21_22h13.05.152,multiplicationStroop,2021.2.3,Win32,60.17933442,,,,,right,1,0.6528,0,9,9,29,1,4,3,4 | 3,1,1.4111,1.9756,incongruent,right,,,,,,stimulusFile/physical.xlsx,,,,,,,,,,,,,,,,,,,,,,,,,,,,,,,
,,,,,,,,,,,,,,,750,2022-01-21_22h13.05.152,multiplicationStroop,2021.2.3,Win32,60.17933442,,,,,left,1,0.5719,0,10,10,48,1,1,1,1 | 1,0,1.9756,1.4111,neutral,left,,,,,,stimulusFile/physical.xlsx,,,,,,,,,,,,,,,,,,,,,,,,,,,,,,,
,,,,,,,,,,,,,,,750,2022-01-21_22h13.05.152,multiplicationStroop,2021.2.3,Win32,60.17933442,,,,,left,1,0.6913,0,11,11,35,1,7,9,7 | 9,2,1.9756,1.4111,incongruent,left,,,,,,stimulusFile/physical.xlsx,,,,,,,,,,,,,,,,,,,,,,,,,,,,,,,
,,,,,,,,,,,,,,,750,2022-01-21_22h13.05.152,multiplicationStroop,2021.2.3,Win32,60.17933442,,,,,left,1,0.6072,0,12,12,5,1,4,3,4 | 3,1,1.9756,1.4111,congruent,left,,,,,,stimulusFile/physical.xlsx,,,,,,,,,,,,,,,,,,,,,,,,,,,,,,,
,,,,,,,,,,,,,,,750,2022-01-21_22h13.05.152,multiplicationStroop,2021.2.3,Win32,60.17933442,,,,,right,1,0.4553,0,13,13,45,1,7,2,7 | 2,5,1.4111,1.9756,incongruent,right,,,,,,stimulusFile/physical.xlsx,,,,,,,,,,,,,,,,,,,,,,,,,,,,,,,
,,,,,,,,,,,,,,,750,2022-01-21_22h13.05.152,multiplicationStroop,2021.2.3,Win32,60.17933442,,,,,left,1,0.4369,0,14,14,7,1,9,8,9 | 8,1,1.9756,1.4111,congruent,left,,,,,,stimulusFile/physical.xlsx,,,,,,,,,,,,,,,,,,,,,,,,,,,,,,,
,,,,,,,,,,,,,,,750,2022-01-21_22h13.05.152,multiplicationStroop,2021.2.3,Win32,60.17933442,,,,,right,1,0.4393,0,15,15,0,1,1,2,1 | 2,1,1.4111,1.9756,congruent,right,,,,,,stimulusFile/physical.xlsx,,,,,,,,,,,,,,,,,,,,,,,,,,,,,,,
,,,,,,,,,,,,,,,750,2022-01-21_22h13.05.152,multiplicationStroop,2021.2.3,Win32,60.17933442,,,,,left,1,0.6279,0,16,16,42,1,3,8,3 | 8,5,1.9756,1.4111,incongruent,left,,,,,,stimulusFile/physical.xlsx,,,,,,,,,,,,,,,,,,,,,,,,,,,,,,,
,,,,,,,,,,,,,,,750,2022-01-21_22h13.05.152,multiplicationStroop,2021.2.3,Win32,60.17933442,,,,,left,1,0.6245,0,17,17,13,1,4,2,4 | 2,2,1.9756,1.4111,congruent,left,,,,,,stimulusFile/physical.xlsx,,,,,,,,,,,,,,,,,,,,,,,,,,,,,,,
,,,,,,,,,,,,,,,750,2022-01-21_22h13.05.152,multiplicationStroop,2021.2.3,Win32,60.17933442,,,,,right,0,0.4227,0,18,18,69,1,7,7,7 | 7,0,1.4111,1.9756,neutral,left,,,,,,stimulusFile/physical.xlsx,,,,,,,,,,,,,,,,,,,,,,,,,,,,,,,
,,,,,,,,,,,,,,,750,2022-01-21_22h13.05.152,multiplicationStroop,2021.2.3,Win32,60.17933442,,,,,left,1,0.5236,0,19,19,55,1,9,9,9 | 9,0,1.9756,1.4111,neutral,left,,,,,,stimulusFile/physical.xlsx,,,,,,,,,,,,,,,,,,,,,,,,,,,,,,,
,,,,,,,,,,,,,,,750,2022-01-21_22h13.05.152,multiplicationStroop,2021.2.3,Win32,60.17933442,,,,,right,1,0.4902,0,20,20,58,1,6,6,6 | 6,0,1.4111,1.9756,neutral,right,,,,,,stimulusFile/physical.xlsx,,,,,,,,,,,,,,,,,,,,,,,,,,,,,,,
,,,,,,,,,,,,,,,750,2022-01-21_22h13.05.152,multiplicationStroop,2021.2.3,Win32,60.17933442,,,,,right,1,1.09,0,21,21,57,1,2,2,2 | 2,0,1.4111,1.9756,neutral,right,,,,,,stimulusFile/physical.xlsx,,,,,,,,,,,,,,,,,,,,,,,,,,,,,,,
,,,,,,,,,,,,,,,750,2022-01-21_22h13.05.152,multiplicationStroop,2021.2.3,Win32,60.17933442,,,,,left,1,0.7464,0,22,22,26,1,6,7,6 | 7,1,1.9756,1.4111,incongruent,left,,,,,,stimulusFile/physical.xlsx,,,,,,,,,,,,,,,,,,,,,,,,,,,,,,,
,,,,,,,,,,,,,,,750,2022-01-21_22h13.05.152,multiplicationStroop,2021.2.3,Win32,60.17933442,,,,,left,1,0.5431,0,23,23,25,1,3,4,3 | 4,1,1.9756,1.4111,incongruent,left,,,,,,stimulusFile/physical.xlsx,,,,,,,,,,,,,,,,,,,,,,,,,,,,,,,
,,,,,,,,,,,,,,,750,2022-01-21_22h13.05.152,multiplicationStroop,2021.2.3,Win32,60.17933442,,,,,right,1,0.4582,0,24,24,19,1,4,9,4 | 9,5,1.4111,1.9756,congruent,right,,,,,,stimulusFile/physical.xlsx,,,,,,,,,,,,,,,,,,,,,,,,,,,,,,,
,,,,,,,,,,,,,,,750,2022-01-21_22h13.05.152,multiplicationStroop,2021.2.3,Win32,60.17933442,,,,,left,1,0.4954,0,25,25,51,1,8,8,8 | 8,0,1.9756,1.4111,neutral,left,,,,,,stimulusFile/physical.xlsx,,,,,,,,,,,,,,,,,,,,,,,,,,,,,,,
,,,,,,,,,,,,,,,750,2022-01-21_22h13.05.152,multiplicationStroop,2021.2.3,Win32,60.17933442,,,,,left,0,0.5903,0,26,26,66,1,3,3,3 | 3,0,1.9756,1.4111,neutral,right,,,,,,stimulusFile/physical.xlsx,,,,,,,,,,,,,,,,,,,,,,,,,,,,,,,
,,,,,,,,,,,,,,,750,2022-01-21_22h13.05.152,multiplicationStroop,2021.2.3,Win32,60.17933442,,,,,left,1,0.4631,0,27,27,15,1,9,7,9 | 7,2,1.9756,1.4111,congruent,left,,,,,,stimulusFile/physical.xlsx,,,,,,,,,,,,,,,,,,,,,,,,,,,,,,,
,,,,,,,,,,,,,,,750,2022-01-21_22h13.05.152,multiplicationStroop,2021.2.3,Win32,60.17933442,,,,,left,0,0.5917,0,28,28,64,1,1,1,1 | 1,0,1.9756,1.4111,neutral,right,,,,,,stimulusFile/physical.xlsx,,,,,,,,,,,,,,,,,,,,,,,,,,,,,,,
,,,,,,,,,,,,,,,750,2022-01-21_22h13.05.152,multiplicationStroop,2021.2.3,Win32,60.17933442,,,,,right,1,0.524,0,29,29,28,1,2,1,2 | 1,1,1.4111,1.9756,incongruent,right,,,,,,stimulusFile/physical.xlsx,,,,,,,,,,,,,,,,,,,,,,,,,,,,,,,
,,,,,,,,,,,,,,,750,2022-01-21_22h13.05.152,multiplicationStroop,2021.2.3,Win32,60.17933442,,,,,left,1,0.492,0,30,30,50,1,6,6,6 | 6,0,1.9756,1.4111,neutral,left,,,,,,stimulusFile/physical.xlsx,,,,,,,,,,,,,,,,,,,,,,,,,,,,,,,
,,,,,,,,,,,,,,,750,2022-01-21_22h13.05.152,multiplicationStroop,2021.2.3,Win32,60.17933442,,,,,left,1,0.5428,0,31,31,41,1,2,7,2 | 7,5,1.9756,1.4111,incongruent,left,,,,,,stimulusFile/physical.xlsx,,,,,,,,,,,,,,,,,,,,,,,,,,,,,,,
,,,,,,,,,,,,,,,750,2022-01-21_22h13.05.152,multiplicationStroop,2021.2.3,Win32,60.17933442,,,,,right,1,0.5089,0,32,32,63,1,9,9,9 | 9,0,1.4111,1.9756,neutral,right,,,,,,stimulusFile/physical.xlsx,,,,,,,,,,,,,,,,,,,,,,,,,,,,,,,
,,,,,,,,,,,,,,,750,2022-01-21_22h13.05.152,multiplicationStroop,2021.2.3,Win32,60.17933442,,,,,left,1,0.4449,0,33,33,24,1,1,2,1 | 2,1,1.9756,1.4111,incongruent,left,,,,,,stimulusFile/physical.xlsx,,,,,,,,,,,,,,,,,,,,,,,,,,,,,,,
,,,,,,,,,,,,,,,750,2022-01-21_22h13.05.152,multiplicationStroop,2021.2.3,Win32,60.17933442,,,,,left,1,0.5372,0,34,34,68,1,6,6,6 | 6,0,1.9756,1.4111,neutral,left,,,,,,stimulusFile/physical.xlsx,,,,,,,,,,,,,,,,,,,,,,,,,,,,,,,
,,,,,,,,,,,,,,,750,2022-01-21_22h13.05.152,multiplicationStroop,2021.2.3,Win32,60.17933442,,,,,right,1,0.5988,0,35,35,44,1,6,1,6 | 1,5,1.4111,1.9756,incongruent,right,,,,,,stimulusFile/physical.xlsx,,,,,,,,,,,,,,,,,,,,,,,,,,,,,,,
,,,,,,,,,,,,,,,750,2022-01-21_22h13.05.152,multiplicationStroop,2021.2.3,Win32,60.17933442,,,,,right,1,0.5611,0,36,36,36,1,3,1,3 | 1,2,1.4111,1.9756,incongruent,right,,,,,,stimulusFile/physical.xlsx,,,,,,,,,,,,,,,,,,,,,,,,,,,,,,,
,,,,,,,,,,,,,,,750,2022-01-21_22h13.05.152,multiplicationStroop,2021.2.3,Win32,60.17933442,,,,,left,1,0.5778,0,37,37,34,1,6,8,6 | 8,2,1.9756,1.4111,incongruent,left,,,,,,stimulusFile/physical.xlsx,,,,,,,,,,,,,,,,,,,,,,,,,,,,,,,
,,,,,,,,,,,,,,,750,2022-01-21_22h13.05.152,multiplicationStroop,2021.2.3,Win32,60.17933442,,,,,right,1,0.4408,0,38,38,18,1,3,8,3 | 8,5,1.4111,1.9756,congruent,right,,,,,,stimulusFile/physical.xlsx,,,,,,,,,,,,,,,,,,,,,,,,,,,,,,,
,,,,,,,,,,,,,,,750,2022-01-21_22h13.05.152,multiplicationStroop,2021.2.3,Win32,60.17933442,,,,,left,0,0.6239,0,39,39,46,1,8,3,8 | 3,5,1.4111,1.9756,incongruent,right,,,,,,stimulusFile/physical.xlsx,,,,,,,,,,,,,,,,,,,,,,,,,,,,,,,
,,,,,,,,,,,,,,,750,2022-01-21_22h13.05.152,multiplicationStroop,2021.2.3,Win32,60.17933442,,,,,left,1,0.5125,0,40,40,12,1,3,1,3 | 1,2,1.9756,1.4111,congruent,left,,,,,,stimulusFile/physical.xlsx,,,,,,,,,,,,,,,,,,,,,,,,,,,,,,,
,,,,,,,,,,,,,,,750,2022-01-21_22h13.05.152,multiplicationStroop,2021.2.3,Win32,60.17933442,,,,,right,1,0.457,0,41,41,9,1,2,4,2 | 4,2,1.4111,1.9756,congruent,right,,,,,,stimulusFile/physical.xlsx,,,,,,,,,,,,,,,,,,,,,,,,,,,,,,,
,,,,,,,,,,,,,,,750,2022-01-21_22h13.05.152,multiplicationStroop,2021.2.3,Win32,60.17933442,,,,,left,1,0.44,0,42,42,49,1,3,3,3 | 3,0,1.9756,1.4111,neutral,left,,,,,,stimulusFile/physical.xlsx,,,,,,,,,,,,,,,,,,,,,,,,,,,,,,,
,,,,,,,,,,,,,,,750,2022-01-21_22h13.05.152,multiplicationStroop,2021.2.3,Win32,60.17933442,,,,,right,1,0.5075,0,43,43,61,1,4,4,4 | 4,0,1.4111,1.9756,neutral,right,,,,,,stimulusFile/physical.xlsx,,,,,,,,,,,,,,,,,,,,,,,,,,,,,,,
,,,,,,,,,,,,,,,750,2022-01-21_22h13.05.152,multiplicationStroop,2021.2.3,Win32,60.17933442,,,,,left,1,0.5442,0,44,44,27,1,8,9,8 | 9,1,1.9756,1.4111,incongruent,left,,,,,,stimulusFile/physical.xlsx,,,,,,,,,,,,,,,,,,,,,,,,,,,,,,,
,,,,,,,,,,,,,,,750,2022-01-21_22h13.05.152,multiplicationStroop,2021.2.3,Win32,60.17933442,,,,,right,1,0.3869,0,45,45,62,1,8,8,8 | 8,0,1.4111,1.9756,neutral,right,,,,,,stimulusFile/physical.xlsx,,,,,,,,,,,,,,,,,,,,,,,,,,,,,,,
,,,,,,,,,,,,,,,750,2022-01-21_22h13.05.152,multiplicationStroop,2021.2.3,Win32,60.17933442,,,,,left,1,0.4136,0,46,46,23,1,9,4,9 | 4,5,1.9756,1.4111,congruent,left,,,,,,stimulusFile/physical.xlsx,,,,,,,,,,,,,,,,,,,,,,,,,,,,,,,
,,,,,,,,,,,,,,,750,2022-01-21_22h13.05.152,multiplicationStroop,2021.2.3,Win32,60.17933442,,,,,right,1,0.3744,0,47,47,67,1,4,4,4 | 4,0,1.4111,1.9756,neutral,right,,,,,,stimulusFile/physical.xlsx,,,,,,,,,,,,,,,,,,,,,,,,,,,,,,,
,,,,,,,,,,,,,,,750,2022-01-21_22h13.05.152,multiplicationStroop,2021.2.3,Win32,60.17933442,,,,,right,1,0.4915,0,48,48,17,1,2,7,2 | 7,5,1.4111,1.9756,congruent,right,,,,,,stimulusFile/physical.xlsx,,,,,,,,,,,,,,,,,,,,,,,,,,,,,,,
,,,,,,,,,,,,,,,750,2022-01-21_22h13.05.152,multiplicationStroop,2021.2.3,Win32,60.17933442,,,,,left,1,0.4409,0,49,49,20,1,6,1,6 | 1,5,1.9756,1.4111,congruent,left,,,,,,stimulusFile/physical.xlsx,,,,,,,,,,,,,,,,,,,,,,,,,,,,,,,
,,,,,,,,,,,,,,,750,2022-01-21_22h13.05.152,multiplicationStroop,2021.2.3,Win32,60.17933442,,,,,right,0,0.3382,0,50,50,14,1,8,6,8 | 6,2,1.9756,1.4111,congruent,left,,,,,,stimulusFile/physical.xlsx,,,,,,,,,,,,,,,,,,,,,,,,,,,,,,,
,,,,,,,,,,,,,,,750,2022-01-21_22h13.05.152,multiplicationStroop,2021.2.3,Win32,60.17933442,,,,,right,1,0.5582,0,51,51,65,1,2,2,2 | 2,0,1.4111,1.9756,neutral,right,,,,,,stimulusFile/physical.xlsx,,,,,,,,,,,,,,,,,,,,,,,,,,,,,,,
,,,,,,,,,,,,,,,750,2022-01-21_22h13.05.152,multiplicationStroop,2021.2.3,Win32,60.17933442,,,,,right,1,0.4589,0,52,52,31,1,9,8,9 | 8,1,1.4111,1.9756,incongruent,right,,,,,,stimulusFile/physical.xlsx,,,,,,,,,,,,,,,,,,,,,,,,,,,,,,,
,,,,,,,,,,,,,,,750,2022-01-21_22h13.05.152,multiplicationStroop,2021.2.3,Win32,60.17933442,,,,,left,1,0.4911,0,53,53,6,1,7,6,7 | 6,1,1.9756,1.4111,congruent,left,,,,,,stimulusFile/physical.xlsx,,,,,,,,,,,,,,,,,,,,,,,,,,,,,,,
,,,,,,,,,,,,,,,750,2022-01-21_22h13.05.152,multiplicationStroop,2021.2.3,Win32,60.17933442,,,,,left,1,0.5779,0,54,54,33,1,2,4,2 | 4,2,1.9756,1.4111,incongruent,left,,,,,,stimulusFile/physical.xlsx,,,,,,,,,,,,,,,,,,,,,,,,,,,,,,,
,,,,,,,,,,,,,,,750,2022-01-21_22h13.05.152,multiplicationStroop,2021.2.3,Win32,60.17933442,,,,,left,1,0.5281,0,55,55,53,1,4,4,4 | 4,0,1.9756,1.4111,neutral,left,,,,,,stimulusFile/physical.xlsx,,,,,,,,,,,,,,,,,,,,,,,,,,,,,,,
,,,,,,,,,,,,,,,750,2022-01-21_22h13.05.152,multiplicationStroop,2021.2.3,Win32,60.17933442,,,,,left,1,0.4746,0,56,56,22,1,8,3,8 | 3,5,1.9756,1.4111,congruent,left,,,,,,stimulusFile/physical.xlsx,,,,,,,,,,,,,,,,,,,,,,,,,,,,,,,
,,,,,,,,,,,,,,,750,2022-01-21_22h13.05.152,multiplicationStroop,2021.2.3,Win32,60.17933442,,,,,left,1,0.5093,0,57,57,21,1,7,2,7 | 2,5,1.9756,1.4111,congruent,left,,,,,,stimulusFile/physical.xlsx,,,,,,,,,,,,,,,,,,,,,,,,,,,,,,,
,,,,,,,,,,,,,,,750,2022-01-21_22h13.05.152,multiplicationStroop,2021.2.3,Win32,60.17933442,,,,,right,1,0.5205,0,58,58,10,1,6,8,6 | 8,2,1.4111,1.9756,congruent,right,,,,,,stimulusFile/physical.xlsx,,,,,,,,,,,,,,,,,,,,,,,,,,,,,,,
,,,,,,,,,,,,,,,750,2022-01-21_22h13.05.152,multiplicationStroop,2021.2.3,Win32,60.17933442,,,,,left,1,0.5867,0,59,59,32,1,1,3,1 | 3,2,1.9756,1.4111,incongruent,left,,,,,,stimulusFile/physical.xlsx,,,,,,,,,,,,,,,,,,,,,,,,,,,,,,,
,,,,,,,,,,,,,,,750,2022-01-21_22h13.05.152,multiplicationStroop,2021.2.3,Win32,60.17933442,,,,,left,1,1.0869,0,60,60,43,1,4,9,4 | 9,5,1.9756,1.4111,incongruent,left,,,,,,stimulusFile/physical.xlsx,,,,,,,,,,,,,,,,,,,,,,,,,,,,,,,
,,,,,,,,,,,,,,,750,2022-01-21_22h13.05.152,multiplicationStroop,2021.2.3,Win32,60.17933442,,,,,right,1,0.9077,0,61,61,38,1,8,6,8 | 6,2,1.4111,1.9756,incongruent,right,,,,,,stimulusFile/physical.xlsx,,,,,,,,,,,,,,,,,,,,,,,,,,,,,,,
,,,,,,,,,,,,,,,750,2022-01-21_22h13.05.152,multiplicationStroop,2021.2.3,Win32,60.17933442,,,,,right,1,0.4614,0,62,62,3,1,8,9,8 | 9,1,1.4111,1.9756,congruent,right,,,,,,stimulusFile/physical.xlsx,,,,,,,,,,,,,,,,,,,,,,,,,,,,,,,
,,,,,,,,,,,,,,,750,2022-01-21_22h13.05.152,multiplicationStroop,2021.2.3,Win32,60.17933442,,,,,right,1,0.4409,0,63,63,2,1,6,7,6 | 7,1,1.4111,1.9756,congruent,right,,,,,,stimulusFile/physical.xlsx,,,,,,,,,,,,,,,,,,,,,,,,,,,,,,,
,,,,,,,,,,,,,,,750,2022-01-21_22h13.05.152,multiplicationStroop,2021.2.3,Win32,60.17933442,,,,,left,1,0.5571,0,64,64,40,1,1,6,1 | 6,5,1.9756,1.4111,incongruent,left,,,,,,stimulusFile/physical.xlsx,,,,,,,,,,,,,,,,,,,,,,,,,,,,,,,
,,,,,,,,,,,,,,,750,2022-01-21_22h13.05.152,multiplicationStroop,2021.2.3,Win32,60.17933442,,,,,left,1,0.5296,0,65,65,70,1,8,8,8 | 8,0,1.9756,1.4111,neutral,left,,,,,,stimulusFile/physical.xlsx,,,,,,,,,,,,,,,,,,,,,,,,,,,,,,,
,,,,,,,,,,,,,,,750,2022-01-21_22h13.05.152,multiplicationStroop,2021.2.3,Win32,60.17933442,,,,,right,1,0.4431,0,66,66,59,1,7,7,7 | 7,0,1.4111,1.9756,neutral,right,,,,,,stimulusFile/physical.xlsx,,,,,,,,,,,,,,,,,,,,,,,,,,,,,,,
,,,,,,,,,,,,,,,750,2022-01-21_22h13.05.152,multiplicationStroop,2021.2.3,Win32,60.17933442,,,,,left,1,0.423,0,67,67,52,1,2,2,2 | 2,0,1.9756,1.4111,neutral,left,,,,,,stimulusFile/physical.xlsx,,,,,,,,,,,,,,,,,,,,,,,,,,,,,,,
,,,,,,,,,,,,,,,750,2022-01-21_22h13.05.152,multiplicationStroop,2021.2.3,Win32,60.17933442,,,,,right,1,0.3873,0,68,68,16,1,1,6,1 | 6,5,1.4111,1.9756,congruent,right,,,,,,stimulusFile/physical.xlsx,,,,,,,,,,,,,,,,,,,,,,,,,,,,,,,
,,,,,,,,,,,,,,,750,2022-01-21_22h13.05.152,multiplicationStroop,2021.2.3,Win32,60.17933442,,,,,left,1,0.3771,0,69,69,54,1,7,7,7 | 7,0,1.9756,1.4111,neutral,left,,,,,,stimulusFile/physical.xlsx,,,,,,,,,,,,,,,,,,,,,,,,,,,,,,,
,,,,,,,,,,,,,,,750,2022-01-21_22h13.05.152,multiplicationStroop,2021.2.3,Win32,60.17933442,,,,,right,1,0.4861,0,70,70,11,1,7,9,7 | 9,2,1.4111,1.9756,congruent,right,,,,,,stimulusFile/physical.xlsx,,,,,,,,,,,,,,,,,,,,,,,,,,,,,,,
,,,,,,,,,,,,,,,750,2022-01-21_22h13.05.152,multiplicationStroop,2021.2.3,Win32,60.17933442,,,,,right,1,0.5407,0,71,71,1,1,3,4,3 | 4,1,1.4111,1.9756,congruent,right,,,,,,stimulusFile/physical.xlsx,,,,,,,,,,,,,,,,,,,,,,,,,,,,,,,
,,,,,,,,,,,,,,,750,2022-01-21_22h13.05.152,multiplicationStroop,2021.2.3,Win32,60.17933442,,,,,,,,,,,,,,,,,,,,,0,1,1,1,1,stimulusFile/physical.xlsx,PHYSICALLY larger (larger font size).,images/physicallyLarger.png,,,,,,,,,,,,,,,,,,,,,,,,,,,,,
,,,,,,,,,,,,,,,750,2022-01-21_22h13.05.152,multiplicationStroop,2021.2.3,Win32,60.17933442,,,,,,,,,,,,,,,,,,,,,,,,,,,,,space,15.809,space,3.0696,24,2.4391,1,0,0,0,25,1,6,×,4,6 × 4,congruent,largerFirst,2,1,24,,,,,,,,
,,,,,,,,,,,,,,,750,2022-01-21_22h13.05.152,multiplicationStroop,2021.2.3,Win32,60.17933442,,,,,,,,,,,,,,,,,,,,,,,,,,,,,,,,,24,1.8624,1,0,1,1,10,1,3,×,8,3 × 8,congruent,smallerFirst,1,2,24,,,,,,,,
,,,,,,,,,,,,,,,750,2022-01-21_22h13.05.152,multiplicationStroop,2021.2.3,Win32,60.17933442,,,,,,,,,,,,,,,,,,,,,,,,,,,,,,,,,12,1.4806,1,0,2,2,19,1,6,×,2,6 × 2,congruent,largerFirst,2,1,12,,,,,,,,
,,,,,,,,,,,,,,,750,2022-01-21_22h13.05.152,multiplicationStroop,2021.2.3,Win32,60.17933442,,,,,,,,,,,,,,,,,,,,,,,,,,,,,,,,,40,1.7955,1,0,3,3,6,1,5,×,8,5 × 8,congruent,smallerFirst,1,2,40,,,,,,,,
,,,,,,,,,,,,,,,750,2022-01-21_22h13.05.152,multiplicationStroop,2021.2.3,Win32,60.17933442,,,,,,,,,,,,,,,,,,,,,,,,,,,,,,,,,36,1.7304,1,0,4,4,32,1,6,×,6,6 × 6,neutral,tie,2,1,36,,,,,,,,
,,,,,,,,,,,,,,,750,2022-01-21_22h13.05.152,multiplicationStroop,2021.2.3,Win32,60.17933442,,,,,,,,,,,,,,,,,,,,,,,,,,,,,,,,,8,1.5309,1,0,5,5,9,1,2,×,4,2 × 4,congruent,smallerFirst,1,2,8,,,,,,,,
,,,,,,,,,,,,,,,750,2022-01-21_22h13.05.152,multiplicationStroop,2021.2.3,Win32,60.17933442,,,,,,,,,,,,,,,,,,,,,,,,,,,,,,,,,21,1.5125,1,0,6,6,16,1,7,×,3,7 × 3,congruent,largerFirst,2,1,21,,,,,,,,
,,,,,,,,,,,,,,,750,2022-01-21_22h13.05.152,multiplicationStroop,2021.2.3,Win32,60.17933442,,,,,,,,,,,,,,,,,,,,,,,,,,,,,,,,,30,1.7972,1,0,7,7,15,1,6,×,5,6 × 5,congruent,largerFirst,2,1,30,,,,,,,,
,,,,,,,,,,,,,,,750,2022-01-21_22h13.05.152,multiplicationStroop,2021.2.3,Win32,60.17933442,,,,,,,,,,,,,,,,,,,,,,,,,,,,,,,,,45,1.6974,1,0,8,8,23,1,9,×,5,9 × 5,congruent,largerFirst,2,1,45,,,,,,,,
,,,,,,,,,,,,,,,750,2022-01-21_22h13.05.152,multiplicationStroop,2021.2.3,Win32,60.17933442,,,,,,,,,,,,,,,,,,,,,,,,,,,,,,,,,64,2.0799,1,0,9,9,34,1,8,×,8,8 × 8,neutral,tie,2,1,64,,,,,,,,
,,,,,,,,,,,,,,,750,2022-01-21_22h13.05.152,multiplicationStroop,2021.2.3,Win32,60.17933442,,,,,,,,,,,,,,,,,,,,,,,,,,,,,,,,,49,1.8142,1,0,10,10,33,1,7,×,7,7 × 7,neutral,tie,2,1,49,,,,,,,,
,,,,,,,,,,,,,,,750,2022-01-21_22h13.05.152,multiplicationStroop,2021.2.3,Win32,60.17933442,,,,,,,,,,,,,,,,,,,,,,,,,,,,,,,,,35,1.6304,1,0,11,11,1,1,5,×,7,5 × 7,congruent,smallerFirst,1,2,35,,,,,,,,
,,,,,,,,,,,,,,,750,2022-01-21_22h13.05.152,multiplicationStroop,2021.2.3,Win32,60.17933442,,,,,,,,,,,,,,,,,,,,,,,,,,,,,,,,,72,1.9473,1,0,12,12,17,1,9,×,8,9 × 8,congruent,largerFirst,2,1,72,,,,,,,,
,,,,,,,,,,,,,,,750,2022-01-21_22h13.05.152,multiplicationStroop,2021.2.3,Win32,60.17933442,,,,,,,,,,,,,,,,,,,,,,,,,,,,,,,,,16,1.7638,1,0,13,13,5,1,2,×,8,2 × 8,congruent,smallerFirst,1,2,16,,,,,,,,
,,,,,,,,,,,,,,,750,2022-01-21_22h13.05.152,multiplicationStroop,2021.2.3,Win32,60.17933442,,,,,,,,,,,,,,,,,,,,,,,,,,,,,,,,,42,2.9129,0,0,14,14,8,1,7,×,8,7 × 8,congruent,smallerFirst,1,2,56,,,,,,,,
,,,,,,,,,,,,,,,750,2022-01-21_22h13.05.152,multiplicationStroop,2021.2.3,Win32,60.17933442,,,,,,,,,,,,,,,,,,,,,,,,,,,,,,,,,6,1.7803,1,0,15,15,13,1,2,×,3,2 × 3,congruent,smallerFirst,1,2,6,,,,,,,,
,,,,,,,,,,,,,,,750,2022-01-21_22h13.05.152,multiplicationStroop,2021.2.3,Win32,60.17933442,,,,,,,,,,,,,,,,,,,,,,,,,,,,,,,,,42,1.7141,1,0,16,16,3,1,6,×,7,6 × 7,congruent,smallerFirst,1,2,42,,,,,,,,
,,,,,,,,,,,,,,,750,2022-01-21_22h13.05.152,multiplicationStroop,2021.2.3,Win32,60.17933442,,,,,,,,,,,,,,,,,,,,,,,,,,,,,,,,,14,1.4473,1,0,17,17,14,1,7,×,2,7 × 2,congruent,largerFirst,2,1,14,,,,,,,,
,,,,,,,,,,,,,,,750,2022-01-21_22h13.05.152,multiplicationStroop,2021.2.3,Win32,60.17933442,,,,,,,,,,,,,,,,,,,,,,,,,,,,,,,,,18,2.6136,1,0,18,18,11,1,3,×,6,3 × 6,congruent,smallerFirst,1,2,18,,,,,,,,
,,,,,,,,,,,,,,,750,2022-01-21_22h13.05.152,multiplicationStroop,2021.2.3,Win32,60.17933442,,,,,,,,,,,,,,,,,,,,,,,,,,,,,,,,,25,2.5128,1,0,19,19,31,1,5,×,5,5 × 5,neutral,tie,2,1,25,,,,,,,,
,,,,,,,,,,,,,,,750,2022-01-21_22h13.05.152,multiplicationStroop,2021.2.3,Win32,60.17933442,,,,,,,,,,,,,,,,,,,,,,,,,,,,,,,,,20,1.8312,1,0,20,20,7,1,4,×,5,4 × 5,congruent,smallerFirst,1,2,20,,,,,,,,
,,,,,,,,,,,,,,,750,2022-01-21_22h13.05.152,multiplicationStroop,2021.2.3,Win32,60.17933442,,,,,,,,,,,,,,,,,,,,,,,,,,,,,,,,,10,1.5807,1,0,21,21,24,1,5,×,2,5 × 2,congruent,largerFirst,2,1,10,,,,,,,,
,,,,,,,,,,,,,,,750,2022-01-21_22h13.05.152,multiplicationStroop,2021.2.3,Win32,60.17933442,,,,,,,,,,,,,,,,,,,,,,,,,,,,,,,,,54,1.797,1,0,22,22,12,1,6,×,9,6 × 9,congruent,smallerFirst,1,2,54,,,,,,,,
,,,,,,,,,,,,,,,750,2022-01-21_22h13.05.152,multiplicationStroop,2021.2.3,Win32,60.17933442,,,,,,,,,,,,,,,,,,,,,,,,,,,,,,,,,63,2.2873,1,0,23,23,21,1,9,×,7,9 × 7,congruent,largerFirst,2,1,63,,,,,,,,
,,,,,,,,,,,,,,,750,2022-01-21_22h13.05.152,multiplicationStroop,2021.2.3,Win32,60.17933442,,,,,,,,,,,,,,,,,,,,,,,,,,,,,,,,,28,2.3299,1,0,24,24,27,1,7,×,4,7 × 4,congruent,largerFirst,2,1,28,,,,,,,,
,,,,,,,,,,,,,,,750,2022-01-21_22h13.05.152,multiplicationStroop,2021.2.3,Win32,60.17933442,,,,,,,,,,,,,,,,,,,,,,,,,,,,,,,,,18,1.8808,1,0,25,25,22,1,9,×,2,9 × 2,congruent,largerFirst,2,1,18,,,,,,,,
,,,,,,,,,,,,,,,750,2022-01-21_22h13.05.152,multiplicationStroop,2021.2.3,Win32,60.17933442,,,,,,,,,,,,,,,,,,,,,,,,,,,,,,,,,81,1.7414,1,0,26,26,35,1,9,×,9,9 × 9,neutral,tie,2,1,81,,,,,,,,
,,,,,,,,,,,,,,,750,2022-01-21_22h13.05.152,multiplicationStroop,2021.2.3,Win32,60.17933442,,,,,,,,,,,,,,,,,,,,,,,,,,,,,,,,,36,2.0024,1,0,27,27,0,1,4,×,9,4 × 9,congruent,smallerFirst,1,2,36,,,,,,,,
,,,,,,,,,,,,,,,750,2022-01-21_22h13.05.152,multiplicationStroop,2021.2.3,Win32,60.17933442,,,,,,,,,,,,,,,,,,,,,,,,,,,,,,,,,16,1.6486,1,0,28,28,30,1,4,×,4,4 × 4,neutral,tie,2,1,16,,,,,,,,
,,,,,,,,,,,,,,,750,2022-01-21_22h13.05.152,multiplicationStroop,2021.2.3,Win32,60.17933442,,,,,,,,,,,,,,,,,,,,,,,,,,,,,,,,,15,2.4635,1,0,29,29,4,1,3,×,5,3 × 5,congruent,smallerFirst,1,2,15,,,,,,,,
,,,,,,,,,,,,,,,750,2022-01-21_22h13.05.152,multiplicationStroop,2021.2.3,Win32,60.17933442,,,,,,,,,,,,,,,,,,,,,,,,,,,,,,,,,32,3.6062,1,0,30,30,20,1,8,×,4,8 × 4,congruent,largerFirst,2,1,32,,,,,,,,
,,,,,,,,,,,,,,,750,2022-01-21_22h13.05.152,multiplicationStroop,2021.2.3,Win32,60.17933442,,,,,,,,,,,,,,,,,,,,,,,,,,,,,,,,,12,2.0539,1,0,31,31,2,1,3,×,4,3 × 4,congruent,smallerFirst,1,2,12,,,,,,,,
,,,,,,,,,,,,,,,750,2022-01-21_22h13.05.152,multiplicationStroop,2021.2.3,Win32,60.17933442,,,,,,,,,,,,,,,,,,,,,,,,,,,,,,,,,27,1.7975,1,0,32,32,26,1,9,×,3,9 × 3,congruent,largerFirst,2,1,27,,,,,,,,
,,,,,,,,,,,,,,,750,2022-01-21_22h13.05.152,multiplicationStroop,2021.2.3,Win32,60.17933442,,,,,,,,,,,,,,,,,,,,,,,,,,,,,,,,,4,1.3473,1,0,33,33,28,1,2,×,2,2 × 2,neutral,tie,2,1,4,,,,,,,,
,,,,,,,,,,,,,,,750,2022-01-21_22h13.05.152,multiplicationStroop,2021.2.3,Win32,60.17933442,,,,,,,,,,,,,,,,,,,,,,,,,,,,,,,,,9,2.2136,1,0,34,34,29,1,3,×,3,3 × 3,neutral,tie,2,1,9,,,,,,,,
,,,,,,,,,,,,,,,750,2022-01-21_22h13.05.152,multiplicationStroop,2021.2.3,Win32,60.17933442,,,,,,,,,,,,,,,,,,,,,,,,,,,,,,,,,48,2.0471,1,0,35,35,18,1,8,×,6,8 × 6,congruent,largerFirst,2,1,48,,,,,,,,
,,,,,,,,,,,,,,,750,2022-01-21_22h13.05.152,multiplicationStroop,2021.2.3,Win32,60.17933442,,,,,,,,,,,,,,,,,,,,,,,,,,,,,,,,,,,,,,,,,,,,,,,,,,0,0,0,2,1,stimulusFile/mult_blk3_congruent.xlsx,,
,,,,,,,,,,,,,,,750,2022-01-21_22h13.05.152,multiplicationStroop,2021.2.3,Win32,60.17933442,,,,,,,,,,,,,,,,,,,,,,,,,,,,,,,space,2.2225,4,1.5871,1,0,0,0,28,1,2,×,2,2 × 2,neutral,tie,1.5,1.5,4,,,,,,,,
,,,,,,,,,,,,,,,750,2022-01-21_22h13.05.152,multiplicationStroop,2021.2.3,Win32,60.17933442,,,,,,,,,,,,,,,,,,,,,,,,,,,,,,,,,15,2.0803,1,0,1,1,5,1,3,×,5,3 × 5,neutral,smallerFirst,1.5,1.5,15,,,,,,,,
,,,,,,,,,,,,,,,750,2022-01-21_22h13.05.152,multiplicationStroop,2021.2.3,Win32,60.17933442,,,,,,,,,,,,,,,,,,,,,,,,,,,,,,,,,12,1.3472,1,0,2,2,21,1,4,×,3,4 × 3,neutral,largerFirst,1.5,1.5,12,,,,,,,,
,,,,,,,,,,,,,,,750,2022-01-21_22h13.05.152,multiplicationStroop,2021.2.3,Win32,60.17933442,,,,,,,,,,,,,,,,,,,,,,,,,,,,,,,,,27,1.5811,1,0,3,3,14,1,9,×,3,9 × 3,neutral,largerFirst,1.5,1.5,27,,,,,,,,
,,,,,,,,,,,,,,,750,2022-01-21_22h13.05.152,multiplicationStroop,2021.2.3,Win32,60.17933442,,,,,,,,,,,,,,,,,,,,,,,,,,,,,,,,,49,2.0303,1,0,4,4,33,1,7,×,7,7 × 7,neutral,tie,1.5,1.5,49,,,,,,,,
,,,,,,,,,,,,,,,750,2022-01-21_22h13.05.152,multiplicationStroop,2021.2.3,Win32,60.17933442,,,,,,,,,,,,,,,,,,,,,,,,,,,,,,,,,18,1.8804,1,0,5,5,0,1,3,×,6,3 × 6,neutral,smallerFirst,1.5,1.5,18,,,,,,,,
,,,,,,,,,,,,,,,750,2022-01-21_22h13.05.152,multiplicationStroop,2021.2.3,Win32,60.17933442,,,,,,,,,,,,,,,,,,,,,,,,,,,,,,,,,16,2.247,1,0,6,6,13,1,2,×,8,2 × 8,neutral,smallerFirst,1.5,1.5,16,,,,,,,,
,,,,,,,,,,,,,,,750,2022-01-21_22h13.05.152,multiplicationStroop,2021.2.3,Win32,60.17933442,,,,,,,,,,,,,,,,,,,,,,,,,,,,,,,,,32,2.4966,1,0,7,7,23,1,8,×,4,8 × 4,neutral,largerFirst,1.5,1.5,32,,,,,,,,
,,,,,,,,,,,,,,,750,2022-01-21_22h13.05.152,multiplicationStroop,2021.2.3,Win32,60.17933442,,,,,,,,,,,,,,,,,,,,,,,,,,,,,,,,,36,2.3632,1,0,8,8,27,1,9,×,4,9 × 4,neutral,largerFirst,1.5,1.5,36,,,,,,,,
,,,,,,,,,,,,,,,750,2022-01-21_22h13.05.152,multiplicationStroop,2021.2.3,Win32,60.17933442,,,,,,,,,,,,,,,,,,,,,,,,,,,,,,,,,10,1.5303,1,0,9,9,4,1,2,×,5,2 × 5,neutral,smallerFirst,1.5,1.5,10,,,,,,,,
,,,,,,,,,,,,,,,750,2022-01-21_22h13.05.152,multiplicationStroop,2021.2.3,Win32,60.17933442,,,,,,,,,,,,,,,,,,,,,,,,,,,,,,,,,14,1.4977,1,0,10,10,16,1,7,×,2,7 × 2,neutral,largerFirst,1.5,1.5,14,,,,,,,,
,,,,,,,,,,,,,,,750,2022-01-21_22h13.05.152,multiplicationStroop,2021.2.3,Win32,60.17933442,,,,,,,,,,,,,,,,,,,,,,,,,,,,,,,,,54,1.6805,1,0,11,11,7,1,6,×,9,6 × 9,neutral,smallerFirst,1.5,1.5,54,,,,,,,,
,,,,,,,,,,,,,,,750,2022-01-21_22h13.05.152,multiplicationStroop,2021.2.3,Win32,60.17933442,,,,,,,,,,,,,,,,,,,,,,,,,,,,,,,,,35,1.7135,1,0,12,12,1,1,5,×,7,5 × 7,neutral,smallerFirst,1.5,1.5,35,,,,,,,,
,,,,,,,,,,,,,,,750,2022-01-21_22h13.05.152,multiplicationStroop,2021.2.3,Win32,60.17933442,,,,,,,,,,,,,,,,,,,,,,,,,,,,,,,,,64,1.8299,1,0,13,13,34,1,8,×,8,8 × 8,neutral,tie,1.5,1.5,64,,,,,,,,
,,,,,,,,,,,,,,,750,2022-01-21_22h13.05.152,multiplicationStroop,2021.2.3,Win32,60.17933442,,,,,,,,,,,,,,,,,,,,,,,,,,,,,,,,,42,2.5299,0,0,14,14,15,1,8,×,6,8 × 6,neutral,largerFirst,1.5,1.5,48,,,,,,,,
,,,,,,,,,,,,,,,750,2022-01-21_22h13.05.152,multiplicationStroop,2021.2.3,Win32,60.17933442,,,,,,,,,,,,,,,,,,,,,,,,,,,,,,,,,21,1.5469,1,0,15,15,8,1,3,×,7,3 × 7,neutral,smallerFirst,1.5,1.5,21,,,,,,,,
,,,,,,,,,,,,,,,750,2022-01-21_22h13.05.152,multiplicationStroop,2021.2.3,Win32,60.17933442,,,,,,,,,,,,,,,,,,,,,,,,,,,,,,,,,16,1.5476,1,0,16,16,30,1,4,×,4,4 × 4,neutral,tie,1.5,1.5,16,,,,,,,,
,,,,,,,,,,,,,,,750,2022-01-21_22h13.05.152,multiplicationStroop,2021.2.3,Win32,60.17933442,,,,,,,,,,,,,,,,,,,,,,,,,,,,,,,,,45,1.6639,1,0,17,17,10,1,5,×,9,5 × 9,neutral,smallerFirst,1.5,1.5,45,,,,,,,,
,,,,,,,,,,,,,,,750,2022-01-21_22h13.05.152,multiplicationStroop,2021.2.3,Win32,60.17933442,,,,,,,,,,,,,,,,,,,,,,,,,,,,,,,,,9,2.1803,1,0,18,18,29,1,3,×,3,3 × 3,neutral,tie,1.5,1.5,9,,,,,,,,
,,,,,,,,,,,,,,,750,2022-01-21_22h13.05.152,multiplicationStroop,2021.2.3,Win32,60.17933442,,,,,,,,,,,,,,,,,,,,,,,,,,,,,,,,,24,1.5974,1,0,19,19,2,1,4,×,6,4 × 6,neutral,smallerFirst,1.5,1.5,24,,,,,,,,
,,,,,,,,,,,,,,,750,2022-01-21_22h13.05.152,multiplicationStroop,2021.2.3,Win32,60.17933442,,,,,,,,,,,,,,,,,,,,,,,,,,,,,,,,,8,1.6638,1,0,20,20,3,1,2,×,4,2 × 4,neutral,smallerFirst,1.5,1.5,8,,,,,,,,
,,,,,,,,,,,,,,,750,2022-01-21_22h13.05.152,multiplicationStroop,2021.2.3,Win32,60.17933442,,,,,,,,,,,,,,,,,,,,,,,,,,,,,,,,,6,1.4475,1,0,21,21,26,1,3,×,2,3 × 2,neutral,largerFirst,1.5,1.5,6,,,,,,,,
,,,,,,,,,,,,,,,750,2022-01-21_22h13.05.152,multiplicationStroop,2021.2.3,Win32,60.17933442,,,,,,,,,,,,,,,,,,,,,,,,,,,,,,,,,42,1.564,1,0,22,22,6,1,6,×,7,6 × 7,neutral,smallerFirst,1.5,1.5,42,,,,,,,,
,,,,,,,,,,,,,,,750,2022-01-21_22h13.05.152,multiplicationStroop,2021.2.3,Win32,60.17933442,,,,,,,,,,,,,,,,,,,,,,,,,,,,,,,,,81,2.0137,1,0,23,23,35,1,9,×,9,9 × 9,neutral,tie,1.5,1.5,81,,,,,,,,
,,,,,,,,,,,,,,,750,2022-01-21_22h13.05.152,multiplicationStroop,2021.2.3,Win32,60.17933442,,,,,,,,,,,,,,,,,,,,,,,,,,,,,,,,,36,1.8472,1,0,24,24,32,1,6,×,6,6 × 6,neutral,tie,1.5,1.5,36,,,,,,,,
,,,,,,,,,,,,,,,750,2022-01-21_22h13.05.152,multiplicationStroop,2021.2.3,Win32,60.17933442,,,,,,,,,,,,,,,,,,,,,,,,,,,,,,,,,42,3.7952,0,0,25,25,9,1,7,×,8,7 × 8,neutral,smallerFirst,1.5,1.5,56,,,,,,,,
,,,,,,,,,,,,,,,750,2022-01-21_22h13.05.152,multiplicationStroop,2021.2.3,Win32,60.17933442,,,,,,,,,,,,,,,,,,,,,,,,,,,,,,,,,24,1.9452,1,0,26,26,22,1,8,×,3,8 × 3,neutral,largerFirst,1.5,1.5,24,,,,,,,,
,,,,,,,,,,,,,,,750,2022-01-21_22h13.05.152,multiplicationStroop,2021.2.3,Win32,60.17933442,,,,,,,,,,,,,,,,,,,,,,,,,,,,,,,,,28,3.4068,1,0,27,27,17,1,7,×,4,7 × 4,neutral,largerFirst,1.5,1.5,28,,,,,,,,
,,,,,,,,,,,,,,,750,2022-01-21_22h13.05.152,multiplicationStroop,2021.2.3,Win32,60.17933442,,,,,,,,,,,,,,,,,,,,,,,,,,,,,,,,,72,2.0369,1,0,28,28,11,1,8,×,9,8 × 9,neutral,smallerFirst,1.5,1.5,72,,,,,,,,
,,,,,,,,,,,,,,,750,2022-01-21_22h13.05.152,multiplicationStroop,2021.2.3,Win32,60.17933442,,,,,,,,,,,,,,,,,,,,,,,,,,,,,,,,,30,1.7471,1,0,29,29,19,1,6,×,5,6 × 5,neutral,largerFirst,1.5,1.5,30,,,,,,,,
,,,,,,,,,,,,,,,750,2022-01-21_22h13.05.152,multiplicationStroop,2021.2.3,Win32,60.17933442,,,,,,,,,,,,,,,,,,,,,,,,,,,,,,,,,12,1.8306,1,0,30,30,25,1,6,×,2,6 × 2,neutral,largerFirst,1.5,1.5,12,,,,,,,,
,,,,,,,,,,,,,,,750,2022-01-21_22h13.05.152,multiplicationStroop,2021.2.3,Win32,60.17933442,,,,,,,,,,,,,,,,,,,,,,,,,,,,,,,,,25,1.4974,1,0,31,31,31,1,5,×,5,5 × 5,neutral,tie,1.5,1.5,25,,,,,,,,
,,,,,,,,,,,,,,,750,2022-01-21_22h13.05.152,multiplicationStroop,2021.2.3,Win32,60.17933442,,,,,,,,,,,,,,,,,,,,,,,,,,,,,,,,,40,1.7806,1,0,32,32,24,1,8,×,5,8 × 5,neutral,largerFirst,1.5,1.5,40,,,,,,,,
,,,,,,,,,,,,,,,750,2022-01-21_22h13.05.152,multiplicationStroop,2021.2.3,Win32,60.17933442,,,,,,,,,,,,,,,,,,,,,,,,,,,,,,,,,20,1.7471,1,0,33,33,20,1,5,×,4,5 × 4,neutral,largerFirst,1.5,1.5,20,,,,,,,,
,,,,,,,,,,,,,,,750,2022-01-21_22h13.05.152,multiplicationStroop,2021.2.3,Win32,60.17933442,,,,,,,,,,,,,,,,,,,,,,,,,,,,,,,,,18,1.7144,1,0,34,34,18,1,9,×,2,9 × 2,neutral,largerFirst,1.5,1.5,18,,,,,,,,
,,,,,,,,,,,,,,,750,2022-01-21_22h13.05.152,multiplicationStroop,2021.2.3,Win32,60.17933442,,,,,,,,,,,,,,,,,,,,,,,,,,,,,,,,,63,2.6298,1,0,35,35,12,1,7,×,9,7 × 9,neutral,smallerFirst,1.5,1.5,63,,,,,,,,
,,,,,,,,,,,,,,,750,2022-01-21_22h13.05.152,multiplicationStroop,2021.2.3,Win32,60.17933442,,,,,,,,,,,,,,,,,,,,,,,,,,,,,,,,,,,,,,,,,,,,,,,,,,0,1,1,1,1,stimulusFile/mult_blk2.xlsx,,
,,,,,,,,,,,,,,,750,2022-01-21_22h13.05.152,multiplicationStroop,2021.2.3,Win32,60.17933442,,,,,,,,,,,,,,,,,,,,,,,,,,,,,,,space,3.1952,18,2.6062,1,0,0,0,25,1,6,×,3,6 × 3,congruent,largerFirst,2,1,18,,,,,,,,
,,,,,,,,,,,,,,,750,2022-01-21_22h13.05.152,multiplicationStroop,2021.2.3,Win32,60.17933442,,,,,,,,,,,,,,,,,,,,,,,,,,,,,,,,,14,1.547,1,0,1,1,0,1,2,×,7,2 × 7,congruent,smallerFirst,1,2,14,,,,,,,,
,,,,,,,,,,,,,,,750,2022-01-21_22h13.05.152,multiplicationStroop,2021.2.3,Win32,60.17933442,,,,,,,,,,,,,,,,,,,,,,,,,,,,,,,,,36,1.98,1,0,2,2,14,1,9,×,4,9 × 4,congruent,largerFirst,2,1,36,,,,,,,,
,,,,,,,,,,,,,,,750,2022-01-21_22h13.05.152,multiplicationStroop,2021.2.3,Win32,60.17933442,,,,,,,,,,,,,,,,,,,,,,,,,,,,,,,,,49,1.9494,1,0,3,3,33,1,7,×,7,7 × 7,neutral,tie,1,2,49,,,,,,,,
,,,,,,,,,,,,,,,750,2022-01-21_22h13.05.152,multiplicationStroop,2021.2.3,Win32,60.17933442,,,,,,,,,,,,,,,,,,,,,,,,,,,,,,,,,72,1.9275,1,0,4,4,3,1,8,×,9,8 × 9,congruent,smallerFirst,1,2,72,,,,,,,,
,,,,,,,,,,,,,,,750,2022-01-21_22h13.05.152,multiplicationStroop,2021.2.3,Win32,60.17933442,,,,,,,,,,,,,,,,,,,,,,,,,,,,,,,,,16,1.9488,1,0,5,5,19,1,8,×,2,8 × 2,congruent,largerFirst,2,1,16,,,,,,,,
,,,,,,,,,,,,,,,750,2022-01-21_22h13.05.152,multiplicationStroop,2021.2.3,Win32,60.17933442,,,,,,,,,,,,,,,,,,,,,,,,,,,,,,,,,21,1.4793,1,0,6,6,2,1,3,×,7,3 × 7,congruent,smallerFirst,1,2,21,,,,,,,,
,,,,,,,,,,,,,,,750,2022-01-21_22h13.05.152,multiplicationStroop,2021.2.3,Win32,60.17933442,,,,,,,,,,,,,,,,,,,,,,,,,,,,,,,,,56,2.8455,1,0,7,7,22,1,8,×,7,8 × 7,congruent,largerFirst,2,1,56,,,,,,,,
,,,,,,,,,,,,,,,750,2022-01-21_22h13.05.152,multiplicationStroop,2021.2.3,Win32,60.17933442,,,,,,,,,,,,,,,,,,,,,,,,,,,,,,,,,28,2.6626,1,0,8,8,13,1,4,×,7,4 × 7,congruent,smallerFirst,1,2,28,,,,,,,,
,,,,,,,,,,,,,,,750,2022-01-21_22h13.05.152,multiplicationStroop,2021.2.3,Win32,60.17933442,,,,,,,,,,,,,,,,,,,,,,,,,,,,,,,,,4,1.4212,1,0,9,9,28,1,2,×,2,2 × 2,neutral,tie,1,2,4,,,,,,,,
,,,,,,,,,,,,,,,750,2022-01-21_22h13.05.152,multiplicationStroop,2021.2.3,Win32,60.17933442,,,,,,,,,,,,,,,,,,,,,,,,,,,,,,,,,18,2.1966,1,0,10,10,8,1,2,×,9,2 × 9,congruent,smallerFirst,1,2,18,,,,,,,,
,,,,,,,,,,,,,,,750,2022-01-21_22h13.05.152,multiplicationStroop,2021.2.3,Win32,60.17933442,,,,,,,,,,,,,,,,,,,,,,,,,,,,,,,,,30,1.7473,1,0,11,11,1,1,5,×,6,5 × 6,congruent,smallerFirst,1,2,30,,,,,,,,
,,,,,,,,,,,,,,,750,2022-01-21_22h13.05.152,multiplicationStroop,2021.2.3,Win32,60.17933442,,,,,,,,,,,,,,,,,,,,,,,,,,,,,,,,,8,1.5634,1,0,12,12,23,1,4,×,2,4 × 2,congruent,largerFirst,2,1,8,,,,,,,,
,,,,,,,,,,,,,,,750,2022-01-21_22h13.05.152,multiplicationStroop,2021.2.3,Win32,60.17933442,,,,,,,,,,,,,,,,,,,,,,,,,,,,,,,,,25,1.8477,1,0,13,13,31,1,5,×,5,5 × 5,neutral,tie,1,2,25,,,,,,,,
,,,,,,,,,,,,,,,750,2022-01-21_22h13.05.152,multiplicationStroop,2021.2.3,Win32,60.17933442,,,,,,,,,,,,,,,,,,,,,,,,,,,,,,,,,16,1.614,1,0,14,14,30,1,4,×,4,4 × 4,neutral,tie,1,2,16,,,,,,,,
,,,,,,,,,,,,,,,750,2022-01-21_22h13.05.152,multiplicationStroop,2021.2.3,Win32,60.17933442,,,,,,,,,,,,,,,,,,,,,,,,,,,,,,,,,15,2.0969,1,0,15,15,18,1,5,×,3,5 × 3,congruent,largerFirst,2,1,15,,,,,,,,
,,,,,,,,,,,,,,,750,2022-01-21_22h13.05.152,multiplicationStroop,2021.2.3,Win32,60.17933442,,,,,,,,,,,,,,,,,,,,,,,,,,,,,,,,,48,3.5457,1,0,16,16,4,1,6,×,8,6 × 8,congruent,smallerFirst,1,2,48,,,,,,,,
,,,,,,,,,,,,,,,750,2022-01-21_22h13.05.152,multiplicationStroop,2021.2.3,Win32,60.17933442,,,,,,,,,,,,,,,,,,,,,,,,,,,,,,,,,42,1.7719,1,0,17,17,17,1,7,×,6,7 × 6,congruent,largerFirst,2,1,42,,,,,,,,
,,,,,,,,,,,,,,,750,2022-01-21_22h13.05.152,multiplicationStroop,2021.2.3,Win32,60.17933442,,,,,,,,,,,,,,,,,,,,,,,,,,,,,,,,,6,1.6641,1,0,18,18,27,1,3,×,2,3 × 2,congruent,largerFirst,2,1,6,,,,,,,,
,,,,,,,,,,,,,,,750,2022-01-21_22h13.05.152,multiplicationStroop,2021.2.3,Win32,60.17933442,,,,,,,,,,,,,,,,,,,,,,,,,,,,,,,,,40,1.6305,1,0,19,19,20,1,8,×,5,8 × 5,congruent,largerFirst,2,1,40,,,,,,,,
,,,,,,,,,,,,,,,750,2022-01-21_22h13.05.152,multiplicationStroop,2021.2.3,Win32,60.17933442,,,,,,,,,,,,,,,,,,,,,,,,,,,,,,,,,12,1.3145,1,0,20,20,16,1,4,×,3,4 × 3,congruent,largerFirst,2,1,12,,,,,,,,
,,,,,,,,,,,,,,,750,2022-01-21_22h13.05.152,multiplicationStroop,2021.2.3,Win32,60.17933442,,,,,,,,,,,,,,,,,,,,,,,,,,,,,,,,,24,1.5456,1,0,21,21,11,1,4,×,6,4 × 6,congruent,smallerFirst,1,2,24,,,,,,,,
,,,,,,,,,,,,,,,750,2022-01-21_22h13.05.152,multiplicationStroop,2021.2.3,Win32,60.17933442,,,,,,,,,,,,,,,,,,,,,,,,,,,,,,,,,64,4.9111,1,0,22,22,34,1,8,×,8,8 × 8,neutral,tie,1,2,64,,,,,,,,
,,,,,,,,,,,,,,,750,2022-01-21_22h13.05.152,multiplicationStroop,2021.2.3,Win32,60.17933442,,,,,,,,,,,,,,,,,,,,,,,,,,,,,,,,,81,1.8566,1,0,23,23,35,1,9,×,9,9 × 9,neutral,tie,1,2,81,,,,,,,,
,,,,,,,,,,,,,,,750,2022-01-21_22h13.05.152,multiplicationStroop,2021.2.3,Win32,60.17933442,,,,,,,,,,,,,,,,,,,,,,,,,,,,,,,,,45,1.9662,1,0,24,24,9,1,5,×,9,5 × 9,congruent,smallerFirst,1,2,45,,,,,,,,
,,,,,,,,,,,,,,,750,2022-01-21_22h13.05.152,multiplicationStroop,2021.2.3,Win32,60.17933442,,,,,,,,,,,,,,,,,,,,,,,,,,,,,,,,,63,2.3591,1,0,25,25,7,1,7,×,9,7 × 9,congruent,smallerFirst,1,2,63,,,,,,,,
,,,,,,,,,,,,,,,750,2022-01-21_22h13.05.152,multiplicationStroop,2021.2.3,Win32,60.17933442,,,,,,,,,,,,,,,,,,,,,,,,,,,,,,,,,10,1.58,1,0,26,26,10,1,2,×,5,2 × 5,congruent,smallerFirst,1,2,10,,,,,,,,
,,,,,,,,,,,,,,,750,2022-01-21_22h13.05.152,multiplicationStroop,2021.2.3,Win32,60.17933442,,,,,,,,,,,,,,,,,,,,,,,,,,,,,,,,,35,1.7138,1,0,27,27,15,1,7,×,5,7 × 5,congruent,largerFirst,2,1,35,,,,,,,,
,,,,,,,,,,,,,,,750,2022-01-21_22h13.05.152,multiplicationStroop,2021.2.3,Win32,60.17933442,,,,,,,,,,,,,,,,,,,,,,,,,,,,,,,,,18,1.6636,0,0,28,28,5,1,2,×,6,2 × 6,congruent,smallerFirst,1,2,12,,,,,,,,
,,,,,,,,,,,,,,,750,2022-01-21_22h13.05.152,multiplicationStroop,2021.2.3,Win32,60.17933442,,,,,,,,,,,,,,,,,,,,,,,,,,,,,,,,,9,1.5636,1,0,29,29,29,1,3,×,3,3 × 3,neutral,tie,1,2,9,,,,,,,,
,,,,,,,,,,,,,,,750,2022-01-21_22h13.05.152,multiplicationStroop,2021.2.3,Win32,60.17933442,,,,,,,,,,,,,,,,,,,,,,,,,,,,,,,,,54,1.6639,1,0,30,30,26,1,9,×,6,9 × 6,congruent,largerFirst,2,1,54,,,,,,,,
,,,,,,,,,,,,,,,750,2022-01-21_22h13.05.152,multiplicationStroop,2021.2.3,Win32,60.17933442,,,,,,,,,,,,,,,,,,,,,,,,,,,,,,,,,27,2.5298,1,0,31,31,12,1,3,×,9,3 × 9,congruent,smallerFirst,1,2,27,,,,,,,,
,,,,,,,,,,,,,,,750,2022-01-21_22h13.05.152,multiplicationStroop,2021.2.3,Win32,60.17933442,,,,,,,,,,,,,,,,,,,,,,,,,,,,,,,,,24,1.7967,1,0,32,32,24,1,8,×,3,8 × 3,congruent,largerFirst,2,1,24,,,,,,,,
,,,,,,,,,,,,,,,750,2022-01-21_22h13.05.152,multiplicationStroop,2021.2.3,Win32,60.17933442,,,,,,,,,,,,,,,,,,,,,,,,,,,,,,,,,20,1.7296,1,0,33,33,21,1,5,×,4,5 × 4,congruent,largerFirst,2,1,20,,,,,,,,
,,,,,,,,,,,,,,,750,2022-01-21_22h13.05.152,multiplicationStroop,2021.2.3,Win32,60.17933442,,,,,,,,,,,,,,,,,,,,,,,,,,,,,,,,,32,3.3624,1,0,34,34,6,1,4,×,8,4 × 8,congruent,smallerFirst,1,2,32,,,,,,,,
,,,,,,,,,,,,,,,750,2022-01-21_22h13.05.152,multiplicationStroop,2021.2.3,Win32,60.17933442,,,,,,,,,,,,,,,,,,,,,,,,,,,,,,,,,36,1.8374,1,0,35,35,32,1,6,×,6,6 × 6,neutral,tie,1,2,36,,,,,,,,
,,,,,,,,,,,,,,,750,2022-01-21_22h13.05.152,multiplicationStroop,2021.2.3,Win32,60.17933442,,,,,,,,,,,,,,,,,,,,,,,,,,,,,,,,,,,,,,,,,,,,,,,,,,0,2,2,3,1,stimulusFile/mult_blk4_congruent.xlsx,,
,,,,,,,,,,,,,,,750,2022-01-21_22h13.05.152,multiplicationStroop,2021.2.3,Win32,60.17933442,,,,,,,,,,,,,,,,,,,,,,,,,,,,,,,space,4.2969,32,2.5955,1,0,0,0,21,1,8,×,4,8 × 4,incongruent,largerFirst,1,2,32,,,,,,,,
,,,,,,,,,,,,,,,750,2022-01-21_22h13.05.152,multiplicationStroop,2021.2.3,Win32,60.17933442,,,,,,,,,,,,,,,,,,,,,,,,,,,,,,,,,10,1.5415,1,0,1,1,7,1,2,×,5,2 × 5,incongruent,smallerFirst,2,1,10,,,,,,,,
,,,,,,,,,,,,,,,750,2022-01-21_22h13.05.152,multiplicationStroop,2021.2.3,Win32,60.17933442,,,,,,,,,,,,,,,,,,,,,,,,,,,,,,,,,24,1.5036,1,0,2,2,6,1,4,×,6,4 × 6,incongruent,smallerFirst,2,1,24,,,,,,,,
,,,,,,,,,,,,,,,750,2022-01-21_22h13.05.152,multiplicationStroop,2021.2.3,Win32,60.17933442,,,,,,,,,,,,,,,,,,,,,,,,,,,,,,,,,27,3.6786,1,0,3,3,4,1,3,×,9,3 × 9,incongruent,smallerFirst,2,1,27,,,,,,,,
,,,,,,,,,,,,,,,750,2022-01-21_22h13.05.152,multiplicationStroop,2021.2.3,Win32,60.17933442,,,,,,,,,,,,,,,,,,,,,,,,,,,,,,,,,48,1.9317,1,0,4,4,15,1,8,×,6,8 × 6,incongruent,largerFirst,1,2,48,,,,,,,,
,,,,,,,,,,,,,,,750,2022-01-21_22h13.05.152,multiplicationStroop,2021.2.3,Win32,60.17933442,,,,,,,,,,,,,,,,,,,,,,,,,,,,,,,,,36,4.1289,1,0,5,5,1,1,4,×,9,4 × 9,incongruent,smallerFirst,2,1,36,,,,,,,,
,,,,,,,,,,,,,,,750,2022-01-21_22h13.05.152,multiplicationStroop,2021.2.3,Win32,60.17933442,,,,,,,,,,,,,,,,,,,,,,,,,,,,,,,,,6,1.4387,1,0,6,6,25,1,3,×,2,3 × 2,incongruent,largerFirst,1,2,6,,,,,,,,
,,,,,,,,,,,,,,,750,2022-01-21_22h13.05.152,multiplicationStroop,2021.2.3,Win32,60.17933442,,,,,,,,,,,,,,,,,,,,,,,,,,,,,,,,,9,1.6135,1,0,7,7,29,1,3,×,3,3 × 3,neutral,tie,2,1,9,,,,,,,,
,,,,,,,,,,,,,,,750,2022-01-21_22h13.05.152,multiplicationStroop,2021.2.3,Win32,60.17933442,,,,,,,,,,,,,,,,,,,,,,,,,,,,,,,,,20,1.6977,1,0,8,8,13,1,4,×,5,4 × 5,incongruent,smallerFirst,2,1,20,,,,,,,,
,,,,,,,,,,,,,,,750,2022-01-21_22h13.05.152,multiplicationStroop,2021.2.3,Win32,60.17933442,,,,,,,,,,,,,,,,,,,,,,,,,,,,,,,,,36,1.8805,1,0,9,9,32,1,6,×,6,6 × 6,neutral,tie,2,1,36,,,,,,,,
,,,,,,,,,,,,,,,750,2022-01-21_22h13.05.152,multiplicationStroop,2021.2.3,Win32,60.17933442,,,,,,,,,,,,,,,,,,,,,,,,,,,,,,,,,76,1.8136,0,0,10,10,14,1,9,×,8,9 × 8,incongruent,largerFirst,1,2,72,,,,,,,,
,,,,,,,,,,,,,,,750,2022-01-21_22h13.05.152,multiplicationStroop,2021.2.3,Win32,60.17933442,,,,,,,,,,,,,,,,,,,,,,,,,,,,,,,,,16,1.9806,1,0,11,11,9,1,2,×,8,2 × 8,incongruent,smallerFirst,2,1,16,,,,,,,,
,,,,,,,,,,,,,,,750,2022-01-21_22h13.05.152,multiplicationStroop,2021.2.3,Win32,60.17933442,,,,,,,,,,,,,,,,,,,,,,,,,,,,,,,,,21,1.6642,1,0,12,12,12,1,3,×,7,3 × 7,incongruent,smallerFirst,2,1,21,,,,,,,,
,,,,,,,,,,,,,,,750,2022-01-21_22h13.05.152,multiplicationStroop,2021.2.3,Win32,60.17933442,,,,,,,,,,,,,,,,,,,,,,,,,,,,,,,,,12,1.9133,1,0,13,13,5,1,2,×,6,2 × 6,incongruent,smallerFirst,2,1,12,,,,,,,,
,,,,,,,,,,,,,,,750,2022-01-21_22h13.05.152,multiplicationStroop,2021.2.3,Win32,60.17933442,,,,,,,,,,,,,,,,,,,,,,,,,,,,,,,,,12,1.4148,1,0,14,14,19,1,4,×,3,4 × 3,incongruent,largerFirst,1,2,12,,,,,,,,
,,,,,,,,,,,,,,,750,2022-01-21_22h13.05.152,multiplicationStroop,2021.2.3,Win32,60.17933442,,,,,,,,,,,,,,,,,,,,,,,,,,,,,,,,,49,2.2969,1,0,15,15,33,1,7,×,7,7 × 7,neutral,tie,2,1,49,,,,,,,,
,,,,,,,,,,,,,,,750,2022-01-21_22h13.05.152,multiplicationStroop,2021.2.3,Win32,60.17933442,,,,,,,,,,,,,,,,,,,,,,,,,,,,,,,,,35,2.3376,1,0,16,16,26,1,7,×,5,7 × 5,incongruent,largerFirst,1,2,35,,,,,,,,
,,,,,,,,,,,,,,,750,2022-01-21_22h13.05.152,multiplicationStroop,2021.2.3,Win32,60.17933442,,,,,,,,,,,,,,,,,,,,,,,,,,,,,,,,,64,2.7467,1,0,17,17,34,1,8,×,8,8 × 8,neutral,tie,2,1,64,,,,,,,,
,,,,,,,,,,,,,,,750,2022-01-21_22h13.05.152,multiplicationStroop,2021.2.3,Win32,60.17933442,,,,,,,,,,,,,,,,,,,,,,,,,,,,,,,,,24,1.9303,1,0,18,18,23,1,8,×,3,8 × 3,incongruent,largerFirst,1,2,24,,,,,,,,
,,,,,,,,,,,,,,,750,2022-01-21_22h13.05.152,multiplicationStroop,2021.2.3,Win32,60.17933442,,,,,,,,,,,,,,,,,,,,,,,,,,,,,,,,,42,3.0296,0,0,19,19,0,1,7,×,8,7 × 8,incongruent,smallerFirst,2,1,56,,,,,,,,
,,,,,,,,,,,,,,,750,2022-01-21_22h13.05.152,multiplicationStroop,2021.2.3,Win32,60.17933442,,,,,,,,,,,,,,,,,,,,,,,,,,,,,,,,,81,2.4211,1,0,20,20,35,1,9,×,9,9 × 9,neutral,tie,2,1,81,,,,,,,,
,,,,,,,,,,,,,,,750,2022-01-21_22h13.05.152,multiplicationStroop,2021.2.3,Win32,60.17933442,,,,,,,,,,,,,,,,,,,,,,,,,,,,,,,,,16,1.5971,1,0,21,21,30,1,4,×,4,4 × 4,neutral,tie,2,1,16,,,,,,,,
,,,,,,,,,,,,,,,750,2022-01-21_22h13.05.152,multiplicationStroop,2021.2.3,Win32,60.17933442,,,,,,,,,,,,,,,,,,,,,,,,,,,,,,,,,18,2.8628,1,0,22,22,22,1,6,×,3,6 × 3,incongruent,largerFirst,1,2,18,,,,,,,,
,,,,,,,,,,,,,,,750,2022-01-21_22h13.05.152,multiplicationStroop,2021.2.3,Win32,60.17933442,,,,,,,,,,,,,,,,,,,,,,,,,,,,,,,,,25,1.8143,1,0,23,23,31,1,5,×,5,5 × 5,neutral,tie,2,1,25,,,,,,,,
,,,,,,,,,,,,,,,750,2022-01-21_22h13.05.152,multiplicationStroop,2021.2.3,Win32,60.17933442,,,,,,,,,,,,,,,,,,,,,,,,,,,,,,,,,30,1.7639,1,0,24,24,11,1,5,×,6,5 × 6,incongruent,smallerFirst,2,1,30,,,,,,,,
,,,,,,,,,,,,,,,750,2022-01-21_22h13.05.152,multiplicationStroop,2021.2.3,Win32,60.17933442,,,,,,,,,,,,,,,,,,,,,,,,,,,,,,,,,40,1.8148,1,0,25,25,27,1,8,×,5,8 × 5,incongruent,largerFirst,1,2,40,,,,,,,,
,,,,,,,,,,,,,,,750,2022-01-21_22h13.05.152,multiplicationStroop,2021.2.3,Win32,60.17933442,,,,,,,,,,,,,,,,,,,,,,,,,,,,,,,,,18,1.8962,1,0,26,26,16,1,9,×,2,9 × 2,incongruent,largerFirst,1,2,18,,,,,,,,
,,,,,,,,,,,,,,,750,2022-01-21_22h13.05.152,multiplicationStroop,2021.2.3,Win32,60.17933442,,,,,,,,,,,,,,,,,,,,,,,,,,,,,,,,,14,1.4972,1,0,27,27,18,1,7,×,2,7 × 2,incongruent,largerFirst,1,2,14,,,,,,,,
,,,,,,,,,,,,,,,750,2022-01-21_22h13.05.152,multiplicationStroop,2021.2.3,Win32,60.17933442,,,,,,,,,,,,,,,,,,,,,,,,,,,,,,,,,4,1.3142,1,0,28,28,28,1,2,×,2,2 × 2,neutral,tie,2,1,4,,,,,,,,
,,,,,,,,,,,,,,,750,2022-01-21_22h13.05.152,multiplicationStroop,2021.2.3,Win32,60.17933442,,,,,,,,,,,,,,,,,,,,,,,,,,,,,,,,,63,3.0298,1,0,29,29,17,1,9,×,7,9 × 7,incongruent,largerFirst,1,2,63,,,,,,,,
,,,,,,,,,,,,,,,750,2022-01-21_22h13.05.152,multiplicationStroop,2021.2.3,Win32,60.17933442,,,,,,,,,,,,,,,,,,,,,,,,,,,,,,,,,8,1.524,1,0,30,30,10,1,2,×,4,2 × 4,incongruent,smallerFirst,2,1,8,,,,,,,,
,,,,,,,,,,,,,,,750,2022-01-21_22h13.05.152,multiplicationStroop,2021.2.3,Win32,60.17933442,,,,,,,,,,,,,,,,,,,,,,,,,,,,,,,,,45,1.7786,1,0,31,31,8,1,5,×,9,5 × 9,incongruent,smallerFirst,2,1,45,,,,,,,,
,,,,,,,,,,,,,,,750,2022-01-21_22h13.05.152,multiplicationStroop,2021.2.3,Win32,60.17933442,,,,,,,,,,,,,,,,,,,,,,,,,,,,,,,,,42,2.2794,1,0,32,32,3,1,6,×,7,6 × 7,incongruent,smallerFirst,2,1,42,,,,,,,,
,,,,,,,,,,,,,,,750,2022-01-21_22h13.05.152,multiplicationStroop,2021.2.3,Win32,60.17933442,,,,,,,,,,,,,,,,,,,,,,,,,,,,,,,,,15,1.384,1,0,33,33,24,1,5,×,3,5 × 3,incongruent,largerFirst,1,2,15,,,,,,,,
,,,,,,,,,,,,,,,750,2022-01-21_22h13.05.152,multiplicationStroop,2021.2.3,Win32,60.17933442,,,,,,,,,,,,,,,,,,,,,,,,,,,,,,,,,54,2.1439,1,0,34,34,20,1,9,×,6,9 × 6,incongruent,largerFirst,1,2,54,,,,,,,,
,,,,,,,,,,,,,,,750,2022-01-21_22h13.05.152,multiplicationStroop,2021.2.3,Win32,60.17933442,,,,,,,,,,,,,,,,,,,,,,,,,,,,,,,,,28,1.9161,1,0,35,35,2,1,4,×,7,4 × 7,incongruent,smallerFirst,2,1,28,,,,,,,,
,,,,,,,,,,,,,,,750,2022-01-21_22h13.05.152,multiplicationStroop,2021.2.3,Win32,60.17933442,,,,,,,,,,,,,,,,,,,,,,,,,,,,,,,,,,,,,,,,,,,,,,,,,,0,3,3,4,1,stimulusFile/mult_blk5_INcongruent.xlsx,,
,,,,,,,,,,,,,,,750,2022-01-21_22h13.05.152,multiplicationStroop,2021.2.3,Win32,60.17933442,,,,,,,,,,,,,,,,,,,,,,,,,,,,,,,space,1.5429,72,2.2673,1,0,0,0,0,1,8,×,9,8 × 9,incongruent,smallerFirst,2,1,72,,,,,,,,
,,,,,,,,,,,,,,,750,2022-01-21_22h13.05.152,multiplicationStroop,2021.2.3,Win32,60.17933442,,,,,,,,,,,,,,,,,,,,,,,,,,,,,,,,,8,1.5974,1,0,1,1,24,1,4,×,2,4 × 2,incongruent,largerFirst,1,2,8,,,,,,,,
,,,,,,,,,,,,,,,750,2022-01-21_22h13.05.152,multiplicationStroop,2021.2.3,Win32,60.17933442,,,,,,,,,,,,,,,,,,,,,,,,,,,,,,,,,64,3.2291,0,0,2,2,14,1,8,×,7,8 × 7,incongruent,largerFirst,1,2,56,,,,,,,,
,,,,,,,,,,,,,,,750,2022-01-21_22h13.05.152,multiplicationStroop,2021.2.3,Win32,60.17933442,,,,,,,,,,,,,,,,,,,,,,,,,,,,,,,,,16,2.6632,1,0,3,3,23,1,8,×,2,8 × 2,incongruent,largerFirst,1,2,16,,,,,,,,
,,,,,,,,,,,,,,,750,2022-01-21_22h13.05.152,multiplicationStroop,2021.2.3,Win32,60.17933442,,,,,,,,,,,,,,,,,,,,,,,,,,,,,,,,,4,1.3232,1,0,4,4,28,1,2,×,2,2 × 2,incongruent,tie,1,2,4,,,,,,,,
,,,,,,,,,,,,,,,750,2022-01-21_22h13.05.152,multiplicationStroop,2021.2.3,Win32,60.17933442,,,,,,,,,,,,,,,,,,,,,,,,,,,,,,,,,16,1.6297,1,0,5,5,30,1,4,×,4,4 × 4,incongruent,tie,1,2,16,,,,,,,,
,,,,,,,,,,,,,,,750,2022-01-21_22h13.05.152,multiplicationStroop,2021.2.3,Win32,60.17933442,,,,,,,,,,,,,,,,,,,,,,,,,,,,,,,,,18,1.7806,1,0,6,6,2,1,2,×,9,2 × 9,incongruent,smallerFirst,2,1,18,,,,,,,,
,,,,,,,,,,,,,,,750,2022-01-21_22h13.05.152,multiplicationStroop,2021.2.3,Win32,60.17933442,,,,,,,,,,,,,,,,,,,,,,,,,,,,,,,,,32,1.947,1,0,7,7,7,1,4,×,8,4 × 8,incongruent,smallerFirst,2,1,32,,,,,,,,
,,,,,,,,,,,,,,,750,2022-01-21_22h13.05.152,multiplicationStroop,2021.2.3,Win32,60.17933442,,,,,,,,,,,,,,,,,,,,,,,,,,,,,,,,,54,1.7858,1,0,8,8,6,1,6,×,9,6 × 9,incongruent,smallerFirst,2,1,54,,,,,,,,
,,,,,,,,,,,,,,,750,2022-01-21_22h13.05.152,multiplicationStroop,2021.2.3,Win32,60.17933442,,,,,,,,,,,,,,,,,,,,,,,,,,,,,,,,,36,1.892,1,0,9,9,32,1,6,×,6,6 × 6,incongruent,tie,1,2,36,,,,,,,,
,,,,,,,,,,,,,,,750,2022-01-21_22h13.05.152,multiplicationStroop,2021.2.3,Win32,60.17933442,,,,,,,,,,,,,,,,,,,,,,,,,,,,,,,,,45,1.9027,1,0,10,10,22,1,9,×,5,9 × 5,incongruent,largerFirst,1,2,45,,,,,,,,
,,,,,,,,,,,,,,,750,2022-01-21_22h13.05.152,multiplicationStroop,2021.2.3,Win32,60.17933442,,,,,,,,,,,,,,,,,,,,,,,,,,,,,,,,,48,2.4641,1,0,11,11,1,1,6,×,8,6 × 8,incongruent,smallerFirst,2,1,48,,,,,,,,
,,,,,,,,,,,,,,,750,2022-01-21_22h13.05.152,multiplicationStroop,2021.2.3,Win32,60.17933442,,,,,,,,,,,,,,,,,,,,,,,,,,,,,,,,,40,1.841,1,0,12,12,13,1,5,×,8,5 × 8,incongruent,smallerFirst,2,1,40,,,,,,,,
,,,,,,,,,,,,,,,750,2022-01-21_22h13.05.152,multiplicationStroop,2021.2.3,Win32,60.17933442,,,,,,,,,,,,,,,,,,,,,,,,,,,,,,,,,10,1.5698,1,0,13,13,21,1,5,×,2,5 × 2,incongruent,largerFirst,1,2,10,,,,,,,,
,,,,,,,,,,,,,,,750,2022-01-21_22h13.05.152,multiplicationStroop,2021.2.3,Win32,60.17933442,,,,,,,,,,,,,,,,,,,,,,,,,,,,,,,,,35,1.748,1,0,14,14,12,1,5,×,7,5 × 7,incongruent,smallerFirst,2,1,35,,,,,,,,
,,,,,,,,,,,,,,,750,2022-01-21_22h13.05.152,multiplicationStroop,2021.2.3,Win32,60.17933442,,,,,,,,,,,,,,,,,,,,,,,,,,,,,,,,,30,1.7477,1,0,15,15,25,1,6,×,5,6 × 5,incongruent,largerFirst,1,2,30,,,,,,,,
,,,,,,,,,,,,,,,750,2022-01-21_22h13.05.152,multiplicationStroop,2021.2.3,Win32,60.17933442,,,,,,,,,,,,,,,,,,,,,,,,,,,,,,,,,9,1.541,1,0,16,16,29,1,3,×,3,3 × 3,incongruent,tie,1,2,9,,,,,,,,
,,,,,,,,,,,,,,,750,2022-01-21_22h13.05.152,multiplicationStroop,2021.2.3,Win32,60.17933442,,,,,,,,,,,,,,,,,,,,,,,,,,,,,,,,,81,4.2615,1,0,17,17,35,1,9,×,9,9 × 9,incongruent,tie,1,2,81,,,,,,,,
,,,,,,,,,,,,,,,750,2022-01-21_22h13.05.152,multiplicationStroop,2021.2.3,Win32,60.17933442,,,,,,,,,,,,,,,,,,,,,,,,,,,,,,,,,24,1.6375,1,0,18,18,20,1,6,×,4,6 × 4,incongruent,largerFirst,1,2,24,,,,,,,,
,,,,,,,,,,,,,,,750,2022-01-21_22h13.05.152,multiplicationStroop,2021.2.3,Win32,60.17933442,,,,,,,,,,,,,,,,,,,,,,,,,,,,,,,,,36,2.4964,1,0,19,19,15,1,9,×,4,9 × 4,incongruent,largerFirst,1,2,36,,,,,,,,
,,,,,,,,,,,,,,,750,2022-01-21_22h13.05.152,multiplicationStroop,2021.2.3,Win32,60.17933442,,,,,,,,,,,,,,,,,,,,,,,,,,,,,,,,,20,2.339,1,0,20,20,27,1,5,×,4,5 × 4,incongruent,largerFirst,1,2,20,,,,,,,,
,,,,,,,,,,,,,,,750,2022-01-21_22h13.05.152,multiplicationStroop,2021.2.3,Win32,60.17933442,,,,,,,,,,,,,,,,,,,,,,,,,,,,,,,,,63,3.2358,1,0,21,21,3,1,7,×,9,7 × 9,incongruent,smallerFirst,2,1,63,,,,,,,,
,,,,,,,,,,,,,,,750,2022-01-21_22h13.05.152,multiplicationStroop,2021.2.3,Win32,60.17933442,,,,,,,,,,,,,,,,,,,,,,,,,,,,,,,,,12,1.7139,1,0,22,22,19,1,6,×,2,6 × 2,incongruent,largerFirst,1,2,12,,,,,,,,
,,,,,,,,,,,,,,,750,2022-01-21_22h13.05.152,multiplicationStroop,2021.2.3,Win32,60.17933442,,,,,,,,,,,,,,,,,,,,,,,,,,,,,,,,,18,2.5242,1,0,23,23,8,1,3,×,6,3 × 6,incongruent,smallerFirst,2,1,18,,,,,,,,
,,,,,,,,,,,,,,,750,2022-01-21_22h13.05.152,multiplicationStroop,2021.2.3,Win32,60.17933442,,,,,,,,,,,,,,,,,,,,,,,,,,,,,,,,,14,1.5371,1,0,24,24,4,1,2,×,7,2 × 7,incongruent,smallerFirst,2,1,14,,,,,,,,
,,,,,,,,,,,,,,,750,2022-01-21_22h13.05.152,multiplicationStroop,2021.2.3,Win32,60.17933442,,,,,,,,,,,,,,,,,,,,,,,,,,,,,,,,,42,1.9908,1,0,25,25,17,1,7,×,6,7 × 6,incongruent,largerFirst,1,2,42,,,,,,,,
,,,,,,,,,,,,,,,750,2022-01-21_22h13.05.152,multiplicationStroop,2021.2.3,Win32,60.17933442,,,,,,,,,,,,,,,,,,,,,,,,,,,,,,,,,15,1.5302,1,0,26,26,10,1,3,×,5,3 × 5,incongruent,smallerFirst,2,1,15,,,,,,,,
,,,,,,,,,,,,,,,750,2022-01-21_22h13.05.152,multiplicationStroop,2021.2.3,Win32,60.17933442,,,,,,,,,,,,,,,,,,,,,,,,,,,,,,,,,28,1.8032,1,0,27,27,16,1,7,×,4,7 × 4,incongruent,largerFirst,1,2,28,,,,,,,,
,,,,,,,,,,,,,,,750,2022-01-21_22h13.05.152,multiplicationStroop,2021.2.3,Win32,60.17933442,,,,,,,,,,,,,,,,,,,,,,,,,,,,,,,,,21,1.4582,1,0,28,28,26,1,7,×,3,7 × 3,incongruent,largerFirst,1,2,21,,,,,,,,
,,,,,,,,,,,,,,,750,2022-01-21_22h13.05.152,multiplicationStroop,2021.2.3,Win32,60.17933442,,,,,,,,,,,,,,,,,,,,,,,,,,,,,,,,,27,2.2466,1,0,29,29,18,1,9,×,3,9 × 3,incongruent,largerFirst,1,2,27,,,,,,,,
,,,,,,,,,,,,,,,750,2022-01-21_22h13.05.152,multiplicationStroop,2021.2.3,Win32,60.17933442,,,,,,,,,,,,,,,,,,,,,,,,,,,,,,,,,6,2.0132,1,0,30,30,11,1,2,×,3,2 × 3,incongruent,smallerFirst,2,1,6,,,,,,,,
,,,,,,,,,,,,,,,750,2022-01-21_22h13.05.152,multiplicationStroop,2021.2.3,Win32,60.17933442,,,,,,,,,,,,,,,,,,,,,,,,,,,,,,,,,49,3.5123,1,0,31,31,33,1,7,×,7,7 × 7,incongruent,tie,1,2,49,,,,,,,,
,,,,,,,,,,,,,,,750,2022-01-21_22h13.05.152,multiplicationStroop,2021.2.3,Win32,60.17933442,,,,,,,,,,,,,,,,,,,,,,,,,,,,,,,,,24,1.8134,1,0,32,32,9,1,3,×,8,3 × 8,incongruent,smallerFirst,2,1,24,,,,,,,,
,,,,,,,,,,,,,,,750,2022-01-21_22h13.05.152,multiplicationStroop,2021.2.3,Win32,60.17933442,,,,,,,,,,,,,,,,,,,,,,,,,,,,,,,,,64,2.0199,1,0,33,33,34,1,8,×,8,8 × 8,incongruent,tie,1,2,64,,,,,,,,
,,,,,,,,,,,,,,,750,2022-01-21_22h13.05.152,multiplicationStroop,2021.2.3,Win32,60.17933442,,,,,,,,,,,,,,,,,,,,,,,,,,,,,,,,,25,1.6645,1,0,34,34,31,1,5,×,5,5 × 5,incongruent,tie,1,2,25,,,,,,,,
,,,,,,,,,,,,,,,750,2022-01-21_22h13.05.152,multiplicationStroop,2021.2.3,Win32,60.17933442,,,,,,,,,,,,,,,,,,,,,,,,,,,,,,,,,12,1.3637,1,0,35,35,5,1,3,×,4,3 × 4,incongruent,smallerFirst,2,1,12,,,,,,,,
,,,,,,,,,,,,,,,750,2022-01-21_22h13.05.152,multiplicationStroop,2021.2.3,Win32,60.17933442,,,,,,,,,,,,,,,,,,,,,,,,,,,,,,,,,,,,,,,,,,,,,,,,,,0,4,4,5,1,stimulusFile/mult_blk6_INcongruent.xlsx,,
,,,,,,,,,,,,,,,750,2022-01-21_22h13.05.152,multiplicationStroop,2021.2.3,Win32,60.17933442,,,,,,,,,,,,,,,,,,,,,,,,,,,,,,,space,1.5666,15,1.5624,1,0,0,0,19,1,5,×,3,5 × 3,neutral,largerFirst,1.5,1.5,15,,,,,,,,
,,,,,,,,,,,,,,,750,2022-01-21_22h13.05.152,multiplicationStroop,2021.2.3,Win32,60.17933442,,,,,,,,,,,,,,,,,,,,,,,,,,,,,,,,,18,2.1973,1,0,1,1,14,1,6,×,3,6 × 3,neutral,largerFirst,1.5,1.5,18,,,,,,,,
,,,,,,,,,,,,,,,750,2022-01-21_22h13.05.152,multiplicationStroop,2021.2.3,Win32,60.17933442,,,,,,,,,,,,,,,,,,,,,,,,,,,,,,,,,30,1.6568,1,0,2,2,5,1,5,×,6,5 × 6,neutral,smallerFirst,1.5,1.5,30,,,,,,,,
,,,,,,,,,,,,,,,750,2022-01-21_22h13.05.152,multiplicationStroop,2021.2.3,Win32,60.17933442,,,,,,,,,,,,,,,,,,,,,,,,,,,,,,,,,8,1.5623,1,0,3,3,17,1,4,×,2,4 × 2,neutral,largerFirst,1.5,1.5,8,,,,,,,,
,,,,,,,,,,,,,,,750,2022-01-21_22h13.05.152,multiplicationStroop,2021.2.3,Win32,60.17933442,,,,,,,,,,,,,,,,,,,,,,,,,,,,,,,,,27,2.0136,1,0,4,4,0,1,3,×,9,3 × 9,neutral,smallerFirst,1.5,1.5,27,,,,,,,,
,,,,,,,,,,,,,,,750,2022-01-21_22h13.05.152,multiplicationStroop,2021.2.3,Win32,60.17933442,,,,,,,,,,,,,,,,,,,,,,,,,,,,,,,,,25,1.5995,1,0,5,5,31,1,5,×,5,5 × 5,neutral,tie,1.5,1.5,25,,,,,,,,
,,,,,,,,,,,,,,,750,2022-01-21_22h13.05.152,multiplicationStroop,2021.2.3,Win32,60.17933442,,,,,,,,,,,,,,,,,,,,,,,,,,,,,,,,,81,2.028,1,0,6,6,35,1,9,×,9,9 × 9,neutral,tie,1.5,1.5,81,,,,,,,,
,,,,,,,,,,,,,,,750,2022-01-21_22h13.05.152,multiplicationStroop,2021.2.3,Win32,60.17933442,,,,,,,,,,,,,,,,,,,,,,,,,,,,,,,,,28,1.9626,1,0,7,7,3,1,4,×,7,4 × 7,neutral,smallerFirst,1.5,1.5,28,,,,,,,,
,,,,,,,,,,,,,,,750,2022-01-21_22h13.05.152,multiplicationStroop,2021.2.3,Win32,60.17933442,,,,,,,,,,,,,,,,,,,,,,,,,,,,,,,,,16,1.684,1,0,8,8,27,1,8,×,2,8 × 2,neutral,largerFirst,1.5,1.5,16,,,,,,,,
,,,,,,,,,,,,,,,750,2022-01-21_22h13.05.152,multiplicationStroop,2021.2.3,Win32,60.17933442,,,,,,,,,,,,,,,,,,,,,,,,,,,,,,,,,6,1.5286,1,0,9,9,12,1,2,×,3,2 × 3,neutral,smallerFirst,1.5,1.5,6,,,,,,,,
,,,,,,,,,,,,,,,750,2022-01-21_22h13.05.152,multiplicationStroop,2021.2.3,Win32,60.17933442,,,,,,,,,,,,,,,,,,,,,,,,,,,,,,,,,18,1.716,1,0,10,10,4,1,2,×,9,2 × 9,neutral,smallerFirst,1.5,1.5,18,,,,,,,,
,,,,,,,,,,,,,,,750,2022-01-21_22h13.05.152,multiplicationStroop,2021.2.3,Win32,60.17933442,,,,,,,,,,,,,,,,,,,,,,,,,,,,,,,,,54,1.7474,1,0,11,11,21,1,9,×,6,9 × 6,neutral,largerFirst,1.5,1.5,54,,,,,,,,
,,,,,,,,,,,,,,,750,2022-01-21_22h13.05.152,multiplicationStroop,2021.2.3,Win32,60.17933442,,,,,,,,,,,,,,,,,,,,,,,,,,,,,,,,,36,1.928,1,0,12,12,32,1,6,×,6,6 × 6,neutral,tie,1.5,1.5,36,,,,,,,,
,,,,,,,,,,,,,,,750,2022-01-21_22h13.05.152,multiplicationStroop,2021.2.3,Win32,60.17933442,,,,,,,,,,,,,,,,,,,,,,,,,,,,,,,,,63,5.3608,1,0,13,13,26,1,9,×,7,9 × 7,neutral,largerFirst,1.5,1.5,63,,,,,,,,
,,,,,,,,,,,,,,,750,2022-01-21_22h13.05.152,multiplicationStroop,2021.2.3,Win32,60.17933442,,,,,,,,,,,,,,,,,,,,,,,,,,,,,,,,,49,1.8868,1,0,14,14,33,1,7,×,7,7 × 7,neutral,tie,1.5,1.5,49,,,,,,,,
,,,,,,,,,,,,,,,750,2022-01-21_22h13.05.152,multiplicationStroop,2021.2.3,Win32,60.17933442,,,,,,,,,,,,,,,,,,,,,,,,,,,,,,,,,48,2.0136,1,0,15,15,1,1,6,×,8,6 × 8,neutral,smallerFirst,1.5,1.5,48,,,,,,,,
,,,,,,,,,,,,,,,750,2022-01-21_22h13.05.152,multiplicationStroop,2021.2.3,Win32,60.17933442,,,,,,,,,,,,,,,,,,,,,,,,,,,,,,,,,40,1.8642,1,0,16,16,10,1,5,×,8,5 × 8,neutral,smallerFirst,1.5,1.5,40,,,,,,,,
,,,,,,,,,,,,,,,750,2022-01-21_22h13.05.152,multiplicationStroop,2021.2.3,Win32,60.17933442,,,,,,,,,,,,,,,,,,,,,,,,,,,,,,,,,56,3.5793,1,0,17,17,23,1,8,×,7,8 × 7,neutral,largerFirst,1.5,1.5,56,,,,,,,,
,,,,,,,,,,,,,,,750,2022-01-21_22h13.05.152,multiplicationStroop,2021.2.3,Win32,60.17933442,,,,,,,,,,,,,,,,,,,,,,,,,,,,,,,,,32,2.1877,1,0,18,18,9,1,4,×,8,4 × 8,neutral,smallerFirst,1.5,1.5,32,,,,,,,,
,,,,,,,,,,,,,,,750,2022-01-21_22h13.05.152,multiplicationStroop,2021.2.3,Win32,60.17933442,,,,,,,,,,,,,,,,,,,,,,,,,,,,,,,,,20,1.7807,1,0,19,19,6,1,4,×,5,4 × 5,neutral,smallerFirst,1.5,1.5,20,,,,,,,,
,,,,,,,,,,,,,,,750,2022-01-21_22h13.05.152,multiplicationStroop,2021.2.3,Win32,60.17933442,,,,,,,,,,,,,,,,,,,,,,,,,,,,,,,,,10,1.4472,1,0,20,20,18,1,5,×,2,5 × 2,neutral,largerFirst,1.5,1.5,10,,,,,,,,
,,,,,,,,,,,,,,,750,2022-01-21_22h13.05.152,multiplicationStroop,2021.2.3,Win32,60.17933442,,,,,,,,,,,,,,,,,,,,,,,,,,,,,,,,,14,1.3476,1,0,21,21,2,1,2,×,7,2 × 7,neutral,smallerFirst,1.5,1.5,14,,,,,,,,
,,,,,,,,,,,,,,,750,2022-01-21_22h13.05.152,multiplicationStroop,2021.2.3,Win32,60.17933442,,,,,,,,,,,,,,,,,,,,,,,,,,,,,,,,,36,3.9461,1,0,22,22,13,1,4,×,9,4 × 9,neutral,smallerFirst,1.5,1.5,36,,,,,,,,
,,,,,,,,,,,,,,,750,2022-01-21_22h13.05.152,multiplicationStroop,2021.2.3,Win32,60.17933442,,,,,,,,,,,,,,,,,,,,,,,,,,,,,,,,,24,1.7716,1,0,23,23,16,1,6,×,4,6 × 4,neutral,largerFirst,1.5,1.5,24,,,,,,,,
,,,,,,,,,,,,,,,750,2022-01-21_22h13.05.152,multiplicationStroop,2021.2.3,Win32,60.17933442,,,,,,,,,,,,,,,,,,,,,,,,,,,,,,,,,72,2.0967,1,0,24,24,25,1,9,×,8,9 × 8,neutral,largerFirst,1.5,1.5,72,,,,,,,,
,,,,,,,,,,,,,,,750,2022-01-21_22h13.05.152,multiplicationStroop,2021.2.3,Win32,60.17933442,,,,,,,,,,,,,,,,,,,,,,,,,,,,,,,,,35,1.6975,1,0,25,25,15,1,7,×,5,7 × 5,neutral,largerFirst,1.5,1.5,35,,,,,,,,
,,,,,,,,,,,,,,,750,2022-01-21_22h13.05.152,multiplicationStroop,2021.2.3,Win32,60.17933442,,,,,,,,,,,,,,,,,,,,,,,,,,,,,,,,,18,1.697,0,0,26,26,11,1,2,×,6,2 × 6,neutral,smallerFirst,1.5,1.5,12,,,,,,,,
,,,,,,,,,,,,,,,750,2022-01-21_22h13.05.152,multiplicationStroop,2021.2.3,Win32,60.17933442,,,,,,,,,,,,,,,,,,,,,,,,,,,,,,,,,9,2.1805,1,0,27,27,29,1,3,×,3,3 × 3,neutral,tie,1.5,1.5,9,,,,,,,,
,,,,,,,,,,,,,,,750,2022-01-21_22h13.05.152,multiplicationStroop,2021.2.3,Win32,60.17933442,,,,,,,,,,,,,,,,,,,,,,,,,,,,,,,,,24,1.8473,1,0,28,28,8,1,3,×,8,3 × 8,neutral,smallerFirst,1.5,1.5,24,,,,,,,,
,,,,,,,,,,,,,,,750,2022-01-21_22h13.05.152,multiplicationStroop,2021.2.3,Win32,60.17933442,,,,,,,,,,,,,,,,,,,,,,,,,,,,,,,,,45,1.8468,1,0,29,29,24,1,9,×,5,9 × 5,neutral,largerFirst,1.5,1.5,45,,,,,,,,
,,,,,,,,,,,,,,,750,2022-01-21_22h13.05.152,multiplicationStroop,2021.2.3,Win32,60.17933442,,,,,,,,,,,,,,,,,,,,,,,,,,,,,,,,,21,2.1138,1,0,30,30,22,1,7,×,3,7 × 3,neutral,largerFirst,1.5,1.5,21,,,,,,,,
,,,,,,,,,,,,,,,750,2022-01-21_22h13.05.152,multiplicationStroop,2021.2.3,Win32,60.17933442,,,,,,,,,,,,,,,,,,,,,,,,,,,,,,,,,42,1.8786,1,0,31,31,20,1,7,×,6,7 × 6,neutral,largerFirst,1.5,1.5,42,,,,,,,,
,,,,,,,,,,,,,,,750,2022-01-21_22h13.05.152,multiplicationStroop,2021.2.3,Win32,60.17933442,,,,,,,,,,,,,,,,,,,,,,,,,,,,,,,,,64,2.4474,1,0,32,32,34,1,8,×,8,8 × 8,neutral,tie,1.5,1.5,64,,,,,,,,
,,,,,,,,,,,,,,,750,2022-01-21_22h13.05.152,multiplicationStroop,2021.2.3,Win32,60.17933442,,,,,,,,,,,,,,,,,,,,,,,,,,,,,,,,,4,1.4471,1,0,33,33,28,1,2,×,2,2 × 2,neutral,tie,1.5,1.5,4,,,,,,,,
,,,,,,,,,,,,,,,750,2022-01-21_22h13.05.152,multiplicationStroop,2021.2.3,Win32,60.17933442,,,,,,,,,,,,,,,,,,,,,,,,,,,,,,,,,16,1.464,1,0,34,34,30,1,4,×,4,4 × 4,neutral,tie,1.5,1.5,16,,,,,,,,
,,,,,,,,,,,,,,,750,2022-01-21_22h13.05.152,multiplicationStroop,2021.2.3,Win32,60.17933442,,,,,,,,,,,,,,,,,,,,,,,,,,,,,,,,,12,1.3477,1,0,35,35,7,1,3,×,4,3 × 4,neutral,smallerFirst,1.5,1.5,12,,,,,,,,
,,,,,,,,,,,,,,,750,2022-01-21_22h13.05.152,multiplicationStroop,2021.2.3,Win32,60.17933442,,,,,,,,,,,,,,,,,,,,,,,,,,,,,,,,,,,,,,,,,,,,,,,,,,0,5,5,0,1,stimulusFile/mult_blk1.xlsx,,
,,,,,,,,,,,,,,,750,2022-01-21_22h13.05.152,multiplicationStroop,2021.2.3,Win32,60.17933442,,,,,,,,,,,,,,,,,,,,,,,,,,,,,,,,,,,,,,,,,,,,,,,,,,,,,,,,space,5.7881