welcomeKey_resp.keys,welcomeKey_resp.rt,X Scale,Y Scale,rt_resp_4.keys,rt_resp_4.corr,rt_resp_4.rt,speedtest_2.thisRepN,speedtest_2.thisTrialN,speedtest_2.thisN,speedtest_2.thisIndex,speedtest_2.ran,numberSc,posX,positionLayout,participant,date,expName,psychopyVersion,OS,frameRate,ct_instrresp.keys,ct_instrresp.rt,key_resp_2.keys,key_resp_2.rt,ct_keyResp.keys,ct_keyResp.corr,ct_keyResp.rt,trials.thisRepN,trials.thisTrialN,trials.thisN,trials.thisIndex,trials.ran,leftNo,rightNo,displayProblem,numDistance,leftNo_size,rightNo_size,Dims,keyAnswer,TS_Loop.thisRepN,TS_Loop.thisTrialN,TS_Loop.thisN,TS_Loop.thisIndex,TS_Loop.ran,Condition,ActionInst,instrImage,mltptaskInst_resp.keys,mltptaskInst_resp.rt,continue_resp_2.keys,continue_resp_2.rt,multp_Answer,multi_RT,multiplyCorr,LoopingMultiply.thisRepN,LoopingMultiply.thisTrialN,LoopingMultiply.thisN,LoopingMultiply.thisIndex,LoopingMultiply.ran,factor1,multiplySign,factor2,multliplyProblem,physicalSize,orderOperand,sizeF1,sizeF2,mult_answer,trials_stroop.thisRepN,trials_stroop.thisTrialN,trials_stroop.thisN,trials_stroop.thisIndex,trials_stroop.ran,multiplicationFile,esckey_resp_2.keys,esckey_resp_2.rt
y,15.9425,44,44.3,right,1,0.8314,0,0,0,13,1,7,200,right,751,2022-01-19_20h12.00.878,multiplicationStroop,2021.2.3,Win32,59.8372427,,,,,,,,,,,,,,,,,,,,,,,,,,,,,,,,,,,,,,,,,,,,,,,,,,,,,,,,,
,,,,right,1,0.4049,0,1,1,11,1,4,200,right,751,2022-01-19_20h12.00.878,multiplicationStroop,2021.2.3,Win32,59.8372427,,,,,,,,,,,,,,,,,,,,,,,,,,,,,,,,,,,,,,,,,,,,,,,,,,,,,,,,,
,,,,left,1,0.3594,0,2,2,5,1,7,-200,left,751,2022-01-19_20h12.00.878,multiplicationStroop,2021.2.3,Win32,59.8372427,,,,,,,,,,,,,,,,,,,,,,,,,,,,,,,,,,,,,,,,,,,,,,,,,,,,,,,,,
,,,,left,1,0.3242,0,3,3,1,1,2,-200,left,751,2022-01-19_20h12.00.878,multiplicationStroop,2021.2.3,Win32,59.8372427,,,,,,,,,,,,,,,,,,,,,,,,,,,,,,,,,,,,,,,,,,,,,,,,,,,,,,,,,
,,,,left,1,0.3133,0,4,4,0,1,1,-200,left,751,2022-01-19_20h12.00.878,multiplicationStroop,2021.2.3,Win32,59.8372427,,,,,,,,,,,,,,,,,,,,,,,,,,,,,,,,,,,,,,,,,,,,,,,,,,,,,,,,,
,,,,left,1,0.3357,0,5,5,2,1,3,-200,left,751,2022-01-19_20h12.00.878,multiplicationStroop,2021.2.3,Win32,59.8372427,,,,,,,,,,,,,,,,,,,,,,,,,,,,,,,,,,,,,,,,,,,,,,,,,,,,,,,,,
,,,,right,1,0.3317,0,6,6,10,1,3,200,right,751,2022-01-19_20h12.00.878,multiplicationStroop,2021.2.3,Win32,59.8372427,,,,,,,,,,,,,,,,,,,,,,,,,,,,,,,,,,,,,,,,,,,,,,,,,,,,,,,,,
,,,,left,1,0.3101,0,7,7,3,1,4,-200,left,751,2022-01-19_20h12.00.878,multiplicationStroop,2021.2.3,Win32,59.8372427,,,,,,,,,,,,,,,,,,,,,,,,,,,,,,,,,,,,,,,,,,,,,,,,,,,,,,,,,
,,,,right,1,0.3215,0,8,8,8,1,1,200,right,751,2022-01-19_20h12.00.878,multiplicationStroop,2021.2.3,Win32,59.8372427,,,,,,,,,,,,,,,,,,,,,,,,,,,,,,,,,,,,,,,,,,,,,,,,,,,,,,,,,
,,,,left,1,0.3238,0,9,9,4,1,6,-200,left,751,2022-01-19_20h12.00.878,multiplicationStroop,2021.2.3,Win32,59.8372427,,,,,,,,,,,,,,,,,,,,,,,,,,,,,,,,,,,,,,,,,,,,,,,,,,,,,,,,,
,,,,right,1,0.3369,0,10,10,14,1,8,200,right,751,2022-01-19_20h12.00.878,multiplicationStroop,2021.2.3,Win32,59.8372427,,,,,,,,,,,,,,,,,,,,,,,,,,,,,,,,,,,,,,,,,,,,,,,,,,,,,,,,,
,,,,left,1,0.3575,0,11,11,7,1,9,-200,left,751,2022-01-19_20h12.00.878,multiplicationStroop,2021.2.3,Win32,59.8372427,,,,,,,,,,,,,,,,,,,,,,,,,,,,,,,,,,,,,,,,,,,,,,,,,,,,,,,,,
,,,,right,1,0.3378,0,12,12,12,1,6,200,right,751,2022-01-19_20h12.00.878,multiplicationStroop,2021.2.3,Win32,59.8372427,,,,,,,,,,,,,,,,,,,,,,,,,,,,,,,,,,,,,,,,,,,,,,,,,,,,,,,,,
,,,,right,1,0.3649,0,13,13,9,1,2,200,right,751,2022-01-19_20h12.00.878,multiplicationStroop,2021.2.3,Win32,59.8372427,,,,,,,,,,,,,,,,,,,,,,,,,,,,,,,,,,,,,,,,,,,,,,,,,,,,,,,,,
,,,,left,1,0.3415,0,14,14,6,1,8,-200,left,751,2022-01-19_20h12.00.878,multiplicationStroop,2021.2.3,Win32,59.8372427,,,,,,,,,,,,,,,,,,,,,,,,,,,,,,,,,,,,,,,,,,,,,,,,,,,,,,,,,
,,,,right,1,0.3242,0,15,15,15,1,9,200,right,751,2022-01-19_20h12.00.878,multiplicationStroop,2021.2.3,Win32,59.8372427,,,,,,,,,,,,,,,,,,,,,,,,,,,,,,,,,,,,,,,,,,,,,,,,,,,,,,,,,
,,,,right,1,0.3514,1,0,16,13,1,7,200,right,751,2022-01-19_20h12.00.878,multiplicationStroop,2021.2.3,Win32,59.8372427,,,,,,,,,,,,,,,,,,,,,,,,,,,,,,,,,,,,,,,,,,,,,,,,,,,,,,,,,
,,,,right,1,0.3613,1,1,17,14,1,8,200,right,751,2022-01-19_20h12.00.878,multiplicationStroop,2021.2.3,Win32,59.8372427,,,,,,,,,,,,,,,,,,,,,,,,,,,,,,,,,,,,,,,,,,,,,,,,,,,,,,,,,
,,,,left,1,0.3092,1,2,18,5,1,7,-200,left,751,2022-01-19_20h12.00.878,multiplicationStroop,2021.2.3,Win32,59.8372427,,,,,,,,,,,,,,,,,,,,,,,,,,,,,,,,,,,,,,,,,,,,,,,,,,,,,,,,,
,,,,left,1,0.3467,1,3,19,1,1,2,-200,left,751,2022-01-19_20h12.00.878,multiplicationStroop,2021.2.3,Win32,59.8372427,,,,,,,,,,,,,,,,,,,,,,,,,,,,,,,,,,,,,,,,,,,,,,,,,,,,,,,,,
,,,,left,1,0.338,1,4,20,3,1,4,-200,left,751,2022-01-19_20h12.00.878,multiplicationStroop,2021.2.3,Win32,59.8372427,,,,,,,,,,,,,,,,,,,,,,,,,,,,,,,,,,,,,,,,,,,,,,,,,,,,,,,,,
,,,,left,1,0.2885,1,5,21,7,1,9,-200,left,751,2022-01-19_20h12.00.878,multiplicationStroop,2021.2.3,Win32,59.8372427,,,,,,,,,,,,,,,,,,,,,,,,,,,,,,,,,,,,,,,,,,,,,,,,,,,,,,,,,
,,,,left,1,0.366,1,6,22,4,1,6,-200,left,751,2022-01-19_20h12.00.878,multiplicationStroop,2021.2.3,Win32,59.8372427,,,,,,,,,,,,,,,,,,,,,,,,,,,,,,,,,,,,,,,,,,,,,,,,,,,,,,,,,
,,,,left,1,0.4851,1,7,23,6,1,8,-200,left,751,2022-01-19_20h12.00.878,multiplicationStroop,2021.2.3,Win32,59.8372427,,,,,,,,,,,,,,,,,,,,,,,,,,,,,,,,,,,,,,,,,,,,,,,,,,,,,,,,,
,,,,right,1,0.4313,1,8,24,9,1,2,200,right,751,2022-01-19_20h12.00.878,multiplicationStroop,2021.2.3,Win32,59.8372427,,,,,,,,,,,,,,,,,,,,,,,,,,,,,,,,,,,,,,,,,,,,,,,,,,,,,,,,,
,,,,right,1,0.3664,1,9,25,11,1,4,200,right,751,2022-01-19_20h12.00.878,multiplicationStroop,2021.2.3,Win32,59.8372427,,,,,,,,,,,,,,,,,,,,,,,,,,,,,,,,,,,,,,,,,,,,,,,,,,,,,,,,,
,,,,right,1,0.3153,1,10,26,12,1,6,200,right,751,2022-01-19_20h12.00.878,multiplicationStroop,2021.2.3,Win32,59.8372427,,,,,,,,,,,,,,,,,,,,,,,,,,,,,,,,,,,,,,,,,,,,,,,,,,,,,,,,,
,,,,right,1,0.334,1,11,27,10,1,3,200,right,751,2022-01-19_20h12.00.878,multiplicationStroop,2021.2.3,Win32,59.8372427,,,,,,,,,,,,,,,,,,,,,,,,,,,,,,,,,,,,,,,,,,,,,,,,,,,,,,,,,
,,,,right,1,0.2697,1,12,28,15,1,9,200,right,751,2022-01-19_20h12.00.878,multiplicationStroop,2021.2.3,Win32,59.8372427,,,,,,,,,,,,,,,,,,,,,,,,,,,,,,,,,,,,,,,,,,,,,,,,,,,,,,,,,
,,,,left,1,0.4268,1,13,29,2,1,3,-200,left,751,2022-01-19_20h12.00.878,multiplicationStroop,2021.2.3,Win32,59.8372427,,,,,,,,,,,,,,,,,,,,,,,,,,,,,,,,,,,,,,,,,,,,,,,,,,,,,,,,,
,,,,left,1,0.3448,1,14,30,0,1,1,-200,left,751,2022-01-19_20h12.00.878,multiplicationStroop,2021.2.3,Win32,59.8372427,,,,,,,,,,,,,,,,,,,,,,,,,,,,,,,,,,,,,,,,,,,,,,,,,,,,,,,,,
,,,,right,1,0.4007,1,15,31,8,1,1,200,right,751,2022-01-19_20h12.00.878,multiplicationStroop,2021.2.3,Win32,59.8372427,,,,,,,,,,,,,,,,,,,,,,,,,,,,,,,,,,,,,,,,,,,,,,,,,,,,,,,,,
,,,,left,1,0.3501,2,0,32,3,1,4,-200,left,751,2022-01-19_20h12.00.878,multiplicationStroop,2021.2.3,Win32,59.8372427,,,,,,,,,,,,,,,,,,,,,,,,,,,,,,,,,,,,,,,,,,,,,,,,,,,,,,,,,
,,,,left,1,0.3745,2,1,33,6,1,8,-200,left,751,2022-01-19_20h12.00.878,multiplicationStroop,2021.2.3,Win32,59.8372427,,,,,,,,,,,,,,,,,,,,,,,,,,,,,,,,,,,,,,,,,,,,,,,,,,,,,,,,,
,,,,right,1,0.3521,2,2,34,12,1,6,200,right,751,2022-01-19_20h12.00.878,multiplicationStroop,2021.2.3,Win32,59.8372427,,,,,,,,,,,,,,,,,,,,,,,,,,,,,,,,,,,,,,,,,,,,,,,,,,,,,,,,,
,,,,right,1,0.3339,2,3,35,9,1,2,200,right,751,2022-01-19_20h12.00.878,multiplicationStroop,2021.2.3,Win32,59.8372427,,,,,,,,,,,,,,,,,,,,,,,,,,,,,,,,,,,,,,,,,,,,,,,,,,,,,,,,,
,,,,right,1,0.2997,2,4,36,15,1,9,200,right,751,2022-01-19_20h12.00.878,multiplicationStroop,2021.2.3,Win32,59.8372427,,,,,,,,,,,,,,,,,,,,,,,,,,,,,,,,,,,,,,,,,,,,,,,,,,,,,,,,,
,,,,left,1,0.3337,2,5,37,0,1,1,-200,left,751,2022-01-19_20h12.00.878,multiplicationStroop,2021.2.3,Win32,59.8372427,,,,,,,,,,,,,,,,,,,,,,,,,,,,,,,,,,,,,,,,,,,,,,,,,,,,,,,,,
,,,,right,1,0.3038,2,6,38,13,1,7,200,right,751,2022-01-19_20h12.00.878,multiplicationStroop,2021.2.3,Win32,59.8372427,,,,,,,,,,,,,,,,,,,,,,,,,,,,,,,,,,,,,,,,,,,,,,,,,,,,,,,,,
,,,,right,1,0.2935,2,7,39,11,1,4,200,right,751,2022-01-19_20h12.00.878,multiplicationStroop,2021.2.3,Win32,59.8372427,,,,,,,,,,,,,,,,,,,,,,,,,,,,,,,,,,,,,,,,,,,,,,,,,,,,,,,,,
,,,,right,1,0.2847,2,8,40,8,1,1,200,right,751,2022-01-19_20h12.00.878,multiplicationStroop,2021.2.3,Win32,59.8372427,,,,,,,,,,,,,,,,,,,,,,,,,,,,,,,,,,,,,,,,,,,,,,,,,,,,,,,,,
,,,,left,1,0.3169,2,9,41,7,1,9,-200,left,751,2022-01-19_20h12.00.878,multiplicationStroop,2021.2.3,Win32,59.8372427,,,,,,,,,,,,,,,,,,,,,,,,,,,,,,,,,,,,,,,,,,,,,,,,,,,,,,,,,
,,,,left,1,0.3311,2,10,42,2,1,3,-200,left,751,2022-01-19_20h12.00.878,multiplicationStroop,2021.2.3,Win32,59.8372427,,,,,,,,,,,,,,,,,,,,,,,,,,,,,,,,,,,,,,,,,,,,,,,,,,,,,,,,,
,,,,left,1,0.2649,2,11,43,5,1,7,-200,left,751,2022-01-19_20h12.00.878,multiplicationStroop,2021.2.3,Win32,59.8372427,,,,,,,,,,,,,,,,,,,,,,,,,,,,,,,,,,,,,,,,,,,,,,,,,,,,,,,,,
,,,,right,1,0.314,2,12,44,10,1,3,200,right,751,2022-01-19_20h12.00.878,multiplicationStroop,2021.2.3,Win32,59.8372427,,,,,,,,,,,,,,,,,,,,,,,,,,,,,,,,,,,,,,,,,,,,,,,,,,,,,,,,,
,,,,left,1,0.3054,2,13,45,4,1,6,-200,left,751,2022-01-19_20h12.00.878,multiplicationStroop,2021.2.3,Win32,59.8372427,,,,,,,,,,,,,,,,,,,,,,,,,,,,,,,,,,,,,,,,,,,,,,,,,,,,,,,,,
,,,,left,1,0.3089,2,14,46,1,1,2,-200,left,751,2022-01-19_20h12.00.878,multiplicationStroop,2021.2.3,Win32,59.8372427,,,,,,,,,,,,,,,,,,,,,,,,,,,,,,,,,,,,,,,,,,,,,,,,,,,,,,,,,
,,,,left,0,0.2947,2,15,47,14,1,8,200,right,751,2022-01-19_20h12.00.878,multiplicationStroop,2021.2.3,Win32,59.8372427,,,,,,,,,,,,,,,,,,,,,,,,,,,,,,,,,,,,,,,,,,,,,,,,,,,,,,,,,
,,,,left,1,0.5405,3,0,48,0,1,1,-200,left,751,2022-01-19_20h12.00.878,multiplicationStroop,2021.2.3,Win32,59.8372427,,,,,,,,,,,,,,,,,,,,,,,,,,,,,,,,,,,,,,,,,,,,,,,,,,,,,,,,,
,,,,right,1,0.3416,3,1,49,15,1,9,200,right,751,2022-01-19_20h12.00.878,multiplicationStroop,2021.2.3,Win32,59.8372427,,,,,,,,,,,,,,,,,,,,,,,,,,,,,,,,,,,,,,,,,,,,,,,,,,,,,,,,,
,,,,left,1,0.3321,3,2,50,5,1,7,-200,left,751,2022-01-19_20h12.00.878,multiplicationStroop,2021.2.3,Win32,59.8372427,,,,,,,,,,,,,,,,,,,,,,,,,,,,,,,,,,,,,,,,,,,,,,,,,,,,,,,,,
,,,,right,1,0.2992,3,3,51,12,1,6,200,right,751,2022-01-19_20h12.00.878,multiplicationStroop,2021.2.3,Win32,59.8372427,,,,,,,,,,,,,,,,,,,,,,,,,,,,,,,,,,,,,,,,,,,,,,,,,,,,,,,,,
,,,,right,1,0.3525,3,4,52,9,1,2,200,right,751,2022-01-19_20h12.00.878,multiplicationStroop,2021.2.3,Win32,59.8372427,,,,,,,,,,,,,,,,,,,,,,,,,,,,,,,,,,,,,,,,,,,,,,,,,,,,,,,,,
,,,,left,1,0.3315,3,5,53,1,1,2,-200,left,751,2022-01-19_20h12.00.878,multiplicationStroop,2021.2.3,Win32,59.8372427,,,,,,,,,,,,,,,,,,,,,,,,,,,,,,,,,,,,,,,,,,,,,,,,,,,,,,,,,
,,,,right,1,0.3238,3,6,54,14,1,8,200,right,751,2022-01-19_20h12.00.878,multiplicationStroop,2021.2.3,Win32,59.8372427,,,,,,,,,,,,,,,,,,,,,,,,,,,,,,,,,,,,,,,,,,,,,,,,,,,,,,,,,
,,,,right,1,0.3364,3,7,55,10,1,3,200,right,751,2022-01-19_20h12.00.878,multiplicationStroop,2021.2.3,Win32,59.8372427,,,,,,,,,,,,,,,,,,,,,,,,,,,,,,,,,,,,,,,,,,,,,,,,,,,,,,,,,
,,,,left,1,0.3232,3,8,56,3,1,4,-200,left,751,2022-01-19_20h12.00.878,multiplicationStroop,2021.2.3,Win32,59.8372427,,,,,,,,,,,,,,,,,,,,,,,,,,,,,,,,,,,,,,,,,,,,,,,,,,,,,,,,,
,,,,left,1,0.3702,3,9,57,2,1,3,-200,left,751,2022-01-19_20h12.00.878,multiplicationStroop,2021.2.3,Win32,59.8372427,,,,,,,,,,,,,,,,,,,,,,,,,,,,,,,,,,,,,,,,,,,,,,,,,,,,,,,,,
,,,,right,1,0.3039,3,10,58,13,1,7,200,right,751,2022-01-19_20h12.00.878,multiplicationStroop,2021.2.3,Win32,59.8372427,,,,,,,,,,,,,,,,,,,,,,,,,,,,,,,,,,,,,,,,,,,,,,,,,,,,,,,,,
,,,,left,1,0.2871,3,11,59,6,1,8,-200,left,751,2022-01-19_20h12.00.878,multiplicationStroop,2021.2.3,Win32,59.8372427,,,,,,,,,,,,,,,,,,,,,,,,,,,,,,,,,,,,,,,,,,,,,,,,,,,,,,,,,
,,,,right,1,0.3437,3,12,60,11,1,4,200,right,751,2022-01-19_20h12.00.878,multiplicationStroop,2021.2.3,Win32,59.8372427,,,,,,,,,,,,,,,,,,,,,,,,,,,,,,,,,,,,,,,,,,,,,,,,,,,,,,,,,
,,,,left,1,0.3157,3,13,61,4,1,6,-200,left,751,2022-01-19_20h12.00.878,multiplicationStroop,2021.2.3,Win32,59.8372427,,,,,,,,,,,,,,,,,,,,,,,,,,,,,,,,,,,,,,,,,,,,,,,,,,,,,,,,,
,,,,right,1,0.3604,3,14,62,8,1,1,200,right,751,2022-01-19_20h12.00.878,multiplicationStroop,2021.2.3,Win32,59.8372427,,,,,,,,,,,,,,,,,,,,,,,,,,,,,,,,,,,,,,,,,,,,,,,,,,,,,,,,,
,,,,left,1,0.3027,3,15,63,7,1,9,-200,left,751,2022-01-19_20h12.00.878,multiplicationStroop,2021.2.3,Win32,59.8372427,,,,,,,,,,,,,,,,,,,,,,,,,,,,,,,,,,,,,,,,,,,,,,,,,,,,,,,,,
,,,,,,,,,,,,,,,751,2022-01-19_20h12.00.878,multiplicationStroop,2021.2.3,Win32,59.8372427,space,11.1031,space,6.744,left,1,0.6791,0,0,0,70,1,8,8,8 | 8,0,1.9756,1.4111,neutral,left,,,,,,stimulusFile/physical.xlsx,,,,,,,,,,,,,,,,,,,,,,,,,,,,,,,
,,,,,,,,,,,,,,,751,2022-01-19_20h12.00.878,multiplicationStroop,2021.2.3,Win32,59.8372427,,,,,left,1,0.4986,0,1,1,52,1,2,2,2 | 2,0,1.9756,1.4111,neutral,left,,,,,,stimulusFile/physical.xlsx,,,,,,,,,,,,,,,,,,,,,,,,,,,,,,,
,,,,,,,,,,,,,,,751,2022-01-19_20h12.00.878,multiplicationStroop,2021.2.3,Win32,59.8372427,,,,,right,1,0.574,0,2,2,37,1,4,2,4 | 2,2,1.4111,1.9756,incongruent,right,,,,,,stimulusFile/physical.xlsx,,,,,,,,,,,,,,,,,,,,,,,,,,,,,,,
,,,,,,,,,,,,,,,751,2022-01-19_20h12.00.878,multiplicationStroop,2021.2.3,Win32,59.8372427,,,,,left,1,0.3826,0,3,3,4,1,2,1,2 | 1,1,1.9756,1.4111,congruent,left,,,,,,stimulusFile/physical.xlsx,,,,,,,,,,,,,,,,,,,,,,,,,,,,,,,
,,,,,,,,,,,,,,,751,2022-01-19_20h12.00.878,multiplicationStroop,2021.2.3,Win32,59.8372427,,,,,left,1,0.5191,0,4,4,24,1,1,2,1 | 2,1,1.9756,1.4111,incongruent,left,,,,,,stimulusFile/physical.xlsx,,,,,,,,,,,,,,,,,,,,,,,,,,,,,,,
,,,,,,,,,,,,,,,751,2022-01-19_20h12.00.878,multiplicationStroop,2021.2.3,Win32,59.8372427,,,,,left,1,0.449,0,5,5,41,1,2,7,2 | 7,5,1.9756,1.4111,incongruent,left,,,,,,stimulusFile/physical.xlsx,,,,,,,,,,,,,,,,,,,,,,,,,,,,,,,
,,,,,,,,,,,,,,,751,2022-01-19_20h12.00.878,multiplicationStroop,2021.2.3,Win32,59.8372427,,,,,right,1,0.4128,0,6,6,1,1,3,4,3 | 4,1,1.4111,1.9756,congruent,right,,,,,,stimulusFile/physical.xlsx,,,,,,,,,,,,,,,,,,,,,,,,,,,,,,,
,,,,,,,,,,,,,,,751,2022-01-19_20h12.00.878,multiplicationStroop,2021.2.3,Win32,59.8372427,,,,,left,1,0.4654,0,7,7,32,1,1,3,1 | 3,2,1.9756,1.4111,incongruent,left,,,,,,stimulusFile/physical.xlsx,,,,,,,,,,,,,,,,,,,,,,,,,,,,,,,
,,,,,,,,,,,,,,,751,2022-01-19_20h12.00.878,multiplicationStroop,2021.2.3,Win32,59.8372427,,,,,right,1,0.4565,0,8,8,10,1,6,8,6 | 8,2,1.4111,1.9756,congruent,right,,,,,,stimulusFile/physical.xlsx,,,,,,,,,,,,,,,,,,,,,,,,,,,,,,,
,,,,,,,,,,,,,,,751,2022-01-19_20h12.00.878,multiplicationStroop,2021.2.3,Win32,59.8372427,,,,,left,1,0.4523,0,9,9,33,1,2,4,2 | 4,2,1.9756,1.4111,incongruent,left,,,,,,stimulusFile/physical.xlsx,,,,,,,,,,,,,,,,,,,,,,,,,,,,,,,
,,,,,,,,,,,,,,,751,2022-01-19_20h12.00.878,multiplicationStroop,2021.2.3,Win32,59.8372427,,,,,left,1,0.5571,0,10,10,51,1,8,8,8 | 8,0,1.9756,1.4111,neutral,left,,,,,,stimulusFile/physical.xlsx,,,,,,,,,,,,,,,,,,,,,,,,,,,,,,,
,,,,,,,,,,,,,,,751,2022-01-19_20h12.00.878,multiplicationStroop,2021.2.3,Win32,59.8372427,,,,,right,1,0.5324,0,11,11,46,1,8,3,8 | 3,5,1.4111,1.9756,incongruent,right,,,,,,stimulusFile/physical.xlsx,,,,,,,,,,,,,,,,,,,,,,,,,,,,,,,
,,,,,,,,,,,,,,,751,2022-01-19_20h12.00.878,multiplicationStroop,2021.2.3,Win32,59.8372427,,,,,right,0,0.4932,0,12,12,69,1,7,7,7 | 7,0,1.4111,1.9756,neutral,left,,,,,,stimulusFile/physical.xlsx,,,,,,,,,,,,,,,,,,,,,,,,,,,,,,,
,,,,,,,,,,,,,,,751,2022-01-19_20h12.00.878,multiplicationStroop,2021.2.3,Win32,59.8372427,,,,,right,1,0.4192,0,13,13,0,1,1,2,1 | 2,1,1.4111,1.9756,congruent,right,,,,,,stimulusFile/physical.xlsx,,,,,,,,,,,,,,,,,,,,,,,,,,,,,,,
,,,,,,,,,,,,,,,751,2022-01-19_20h12.00.878,multiplicationStroop,2021.2.3,Win32,59.8372427,,,,,left,1,0.4482,0,14,14,34,1,6,8,6 | 8,2,1.9756,1.4111,incongruent,left,,,,,,stimulusFile/physical.xlsx,,,,,,,,,,,,,,,,,,,,,,,,,,,,,,,
,,,,,,,,,,,,,,,751,2022-01-19_20h12.00.878,multiplicationStroop,2021.2.3,Win32,59.8372427,,,,,left,1,0.6022,0,15,15,43,1,4,9,4 | 9,5,1.9756,1.4111,incongruent,left,,,,,,stimulusFile/physical.xlsx,,,,,,,,,,,,,,,,,,,,,,,,,,,,,,,
,,,,,,,,,,,,,,,751,2022-01-19_20h12.00.878,multiplicationStroop,2021.2.3,Win32,59.8372427,,,,,right,1,0.5406,0,16,16,29,1,4,3,4 | 3,1,1.4111,1.9756,incongruent,right,,,,,,stimulusFile/physical.xlsx,,,,,,,,,,,,,,,,,,,,,,,,,,,,,,,
,,,,,,,,,,,,,,,751,2022-01-19_20h12.00.878,multiplicationStroop,2021.2.3,Win32,59.8372427,,,,,right,1,0.5154,0,17,17,9,1,2,4,2 | 4,2,1.4111,1.9756,congruent,right,,,,,,stimulusFile/physical.xlsx,,,,,,,,,,,,,,,,,,,,,,,,,,,,,,,
,,,,,,,,,,,,,,,751,2022-01-19_20h12.00.878,multiplicationStroop,2021.2.3,Win32,59.8372427,,,,,right,1,0.4823,0,18,18,19,1,4,9,4 | 9,5,1.4111,1.9756,congruent,right,,,,,,stimulusFile/physical.xlsx,,,,,,,,,,,,,,,,,,,,,,,,,,,,,,,
,,,,,,,,,,,,,,,751,2022-01-19_20h12.00.878,multiplicationStroop,2021.2.3,Win32,59.8372427,,,,,left,1,0.4666,0,19,19,14,1,8,6,8 | 6,2,1.9756,1.4111,congruent,left,,,,,,stimulusFile/physical.xlsx,,,,,,,,,,,,,,,,,,,,,,,,,,,,,,,
,,,,,,,,,,,,,,,751,2022-01-19_20h12.00.878,multiplicationStroop,2021.2.3,Win32,59.8372427,,,,,right,1,0.4558,0,20,20,67,1,4,4,4 | 4,0,1.4111,1.9756,neutral,right,,,,,,stimulusFile/physical.xlsx,,,,,,,,,,,,,,,,,,,,,,,,,,,,,,,
,,,,,,,,,,,,,,,751,2022-01-19_20h12.00.878,multiplicationStroop,2021.2.3,Win32,59.8372427,,,,,left,1,0.4693,0,21,21,26,1,6,7,6 | 7,1,1.9756,1.4111,incongruent,left,,,,,,stimulusFile/physical.xlsx,,,,,,,,,,,,,,,,,,,,,,,,,,,,,,,
,,,,,,,,,,,,,,,751,2022-01-19_20h12.00.878,multiplicationStroop,2021.2.3,Win32,59.8372427,,,,,right,1,0.7332,0,22,22,36,1,3,1,3 | 1,2,1.4111,1.9756,incongruent,right,,,,,,stimulusFile/physical.xlsx,,,,,,,,,,,,,,,,,,,,,,,,,,,,,,,
,,,,,,,,,,,,,,,751,2022-01-19_20h12.00.878,multiplicationStroop,2021.2.3,Win32,59.8372427,,,,,right,1,0.517,0,23,23,30,1,7,6,7 | 6,1,1.4111,1.9756,incongruent,right,,,,,,stimulusFile/physical.xlsx,,,,,,,,,,,,,,,,,,,,,,,,,,,,,,,
,,,,,,,,,,,,,,,751,2022-01-19_20h12.00.878,multiplicationStroop,2021.2.3,Win32,59.8372427,,,,,right,1,0.586,0,24,24,28,1,2,1,2 | 1,1,1.4111,1.9756,incongruent,right,,,,,,stimulusFile/physical.xlsx,,,,,,,,,,,,,,,,,,,,,,,,,,,,,,,
,,,,,,,,,,,,,,,751,2022-01-19_20h12.00.878,multiplicationStroop,2021.2.3,Win32,59.8372427,,,,,left,1,0.5,0,25,25,7,1,9,8,9 | 8,1,1.9756,1.4111,congruent,left,,,,,,stimulusFile/physical.xlsx,,,,,,,,,,,,,,,,,,,,,,,,,,,,,,,
,,,,,,,,,,,,,,,751,2022-01-19_20h12.00.878,multiplicationStroop,2021.2.3,Win32,59.8372427,,,,,right,1,0.3858,0,26,26,39,1,9,7,9 | 7,2,1.4111,1.9756,incongruent,right,,,,,,stimulusFile/physical.xlsx,,,,,,,,,,,,,,,,,,,,,,,,,,,,,,,
,,,,,,,,,,,,,,,751,2022-01-19_20h12.00.878,multiplicationStroop,2021.2.3,Win32,59.8372427,,,,,left,1,0.4326,0,27,27,53,1,4,4,4 | 4,0,1.9756,1.4111,neutral,left,,,,,,stimulusFile/physical.xlsx,,,,,,,,,,,,,,,,,,,,,,,,,,,,,,,
,,,,,,,,,,,,,,,751,2022-01-19_20h12.00.878,multiplicationStroop,2021.2.3,Win32,59.8372427,,,,,right,0,0.3412,0,28,28,71,1,9,9,9 | 9,0,1.4111,1.9756,neutral,left,,,,,,stimulusFile/physical.xlsx,,,,,,,,,,,,,,,,,,,,,,,,,,,,,,,
,,,,,,,,,,,,,,,751,2022-01-19_20h12.00.878,multiplicationStroop,2021.2.3,Win32,59.8372427,,,,,right,1,0.4416,0,29,29,8,1,1,3,1 | 3,2,1.4111,1.9756,congruent,right,,,,,,stimulusFile/physical.xlsx,,,,,,,,,,,,,,,,,,,,,,,,,,,,,,,
,,,,,,,,,,,,,,,751,2022-01-19_20h12.00.878,multiplicationStroop,2021.2.3,Win32,59.8372427,,,,,left,1,0.4457,0,30,30,49,1,3,3,3 | 3,0,1.9756,1.4111,neutral,left,,,,,,stimulusFile/physical.xlsx,,,,,,,,,,,,,,,,,,,,,,,,,,,,,,,
,,,,,,,,,,,,,,,751,2022-01-19_20h12.00.878,multiplicationStroop,2021.2.3,Win32,59.8372427,,,,,right,1,0.4519,0,31,31,56,1,1,1,1 | 1,0,1.4111,1.9756,neutral,right,,,,,,stimulusFile/physical.xlsx,,,,,,,,,,,,,,,,,,,,,,,,,,,,,,,
,,,,,,,,,,,,,,,751,2022-01-19_20h12.00.878,multiplicationStroop,2021.2.3,Win32,59.8372427,,,,,right,1,0.4686,0,32,32,45,1,7,2,7 | 2,5,1.4111,1.9756,incongruent,right,,,,,,stimulusFile/physical.xlsx,,,,,,,,,,,,,,,,,,,,,,,,,,,,,,,
,,,,,,,,,,,,,,,751,2022-01-19_20h12.00.878,multiplicationStroop,2021.2.3,Win32,59.8372427,,,,,left,1,0.3958,0,33,33,20,1,6,1,6 | 1,5,1.9756,1.4111,congruent,left,,,,,,stimulusFile/physical.xlsx,,,,,,,,,,,,,,,,,,,,,,,,,,,,,,,
,,,,,,,,,,,,,,,751,2022-01-19_20h12.00.878,multiplicationStroop,2021.2.3,Win32,59.8372427,,,,,right,1,0.4049,0,34,34,38,1,8,6,8 | 6,2,1.4111,1.9756,incongruent,right,,,,,,stimulusFile/physical.xlsx,,,,,,,,,,,,,,,,,,,,,,,,,,,,,,,
,,,,,,,,,,,,,,,751,2022-01-19_20h12.00.878,multiplicationStroop,2021.2.3,Win32,59.8372427,,,,,right,1,0.473,0,35,35,65,1,2,2,2 | 2,0,1.4111,1.9756,neutral,right,,,,,,stimulusFile/physical.xlsx,,,,,,,,,,,,,,,,,,,,,,,,,,,,,,,
,,,,,,,,,,,,,,,751,2022-01-19_20h12.00.878,multiplicationStroop,2021.2.3,Win32,59.8372427,,,,,right,1,0.4669,0,36,36,31,1,9,8,9 | 8,1,1.4111,1.9756,incongruent,right,,,,,,stimulusFile/physical.xlsx,,,,,,,,,,,,,,,,,,,,,,,,,,,,,,,
,,,,,,,,,,,,,,,751,2022-01-19_20h12.00.878,multiplicationStroop,2021.2.3,Win32,59.8372427,,,,,left,1,0.4366,0,37,37,42,1,3,8,3 | 8,5,1.9756,1.4111,incongruent,left,,,,,,stimulusFile/physical.xlsx,,,,,,,,,,,,,,,,,,,,,,,,,,,,,,,
,,,,,,,,,,,,,,,751,2022-01-19_20h12.00.878,multiplicationStroop,2021.2.3,Win32,59.8372427,,,,,right,1,0.4823,0,38,38,60,1,3,3,3 | 3,0,1.4111,1.9756,neutral,right,,,,,,stimulusFile/physical.xlsx,,,,,,,,,,,,,,,,,,,,,,,,,,,,,,,
,,,,,,,,,,,,,,,751,2022-01-19_20h12.00.878,multiplicationStroop,2021.2.3,Win32,59.8372427,,,,,left,1,0.4939,0,39,39,21,1,7,2,7 | 2,5,1.9756,1.4111,congruent,left,,,,,,stimulusFile/physical.xlsx,,,,,,,,,,,,,,,,,,,,,,,,,,,,,,,
,,,,,,,,,,,,,,,751,2022-01-19_20h12.00.878,multiplicationStroop,2021.2.3,Win32,59.8372427,,,,,right,1,0.4738,0,40,40,47,1,9,4,9 | 4,5,1.4111,1.9756,incongruent,right,,,,,,stimulusFile/physical.xlsx,,,,,,,,,,,,,,,,,,,,,,,,,,,,,,,
,,,,,,,,,,,,,,,751,2022-01-19_20h12.00.878,multiplicationStroop,2021.2.3,Win32,59.8372427,,,,,left,1,0.4296,0,41,41,22,1,8,3,8 | 3,5,1.9756,1.4111,congruent,left,,,,,,stimulusFile/physical.xlsx,,,,,,,,,,,,,,,,,,,,,,,,,,,,,,,
,,,,,,,,,,,,,,,751,2022-01-19_20h12.00.878,multiplicationStroop,2021.2.3,Win32,59.8372427,,,,,right,1,0.3913,0,42,42,57,1,2,2,2 | 2,0,1.4111,1.9756,neutral,right,,,,,,stimulusFile/physical.xlsx,,,,,,,,,,,,,,,,,,,,,,,,,,,,,,,
,,,,,,,,,,,,,,,751,2022-01-19_20h12.00.878,multiplicationStroop,2021.2.3,Win32,59.8372427,,,,,left,1,0.417,0,43,43,54,1,7,7,7 | 7,0,1.9756,1.4111,neutral,left,,,,,,stimulusFile/physical.xlsx,,,,,,,,,,,,,,,,,,,,,,,,,,,,,,,
,,,,,,,,,,,,,,,751,2022-01-19_20h12.00.878,multiplicationStroop,2021.2.3,Win32,59.8372427,,,,,left,1,0.55,0,44,44,6,1,7,6,7 | 6,1,1.9756,1.4111,congruent,left,,,,,,stimulusFile/physical.xlsx,,,,,,,,,,,,,,,,,,,,,,,,,,,,,,,
,,,,,,,,,,,,,,,751,2022-01-19_20h12.00.878,multiplicationStroop,2021.2.3,Win32,59.8372427,,,,,left,1,0.514,0,45,45,55,1,9,9,9 | 9,0,1.9756,1.4111,neutral,left,,,,,,stimulusFile/physical.xlsx,,,,,,,,,,,,,,,,,,,,,,,,,,,,,,,
,,,,,,,,,,,,,,,751,2022-01-19_20h12.00.878,multiplicationStroop,2021.2.3,Win32,59.8372427,,,,,left,1,0.4506,0,46,46,13,1,4,2,4 | 2,2,1.9756,1.4111,congruent,left,,,,,,stimulusFile/physical.xlsx,,,,,,,,,,,,,,,,,,,,,,,,,,,,,,,
,,,,,,,,,,,,,,,751,2022-01-19_20h12.00.878,multiplicationStroop,2021.2.3,Win32,59.8372427,,,,,right,1,0.4183,0,47,47,11,1,7,9,7 | 9,2,1.4111,1.9756,congruent,right,,,,,,stimulusFile/physical.xlsx,,,,,,,,,,,,,,,,,,,,,,,,,,,,,,,
,,,,,,,,,,,,,,,751,2022-01-19_20h12.00.878,multiplicationStroop,2021.2.3,Win32,59.8372427,,,,,left,0,0.369,0,48,48,66,1,3,3,3 | 3,0,1.9756,1.4111,neutral,right,,,,,,stimulusFile/physical.xlsx,,,,,,,,,,,,,,,,,,,,,,,,,,,,,,,
,,,,,,,,,,,,,,,751,2022-01-19_20h12.00.878,multiplicationStroop,2021.2.3,Win32,59.8372427,,,,,right,0,0.3832,0,49,49,50,1,6,6,6 | 6,0,1.9756,1.4111,neutral,left,,,,,,stimulusFile/physical.xlsx,,,,,,,,,,,,,,,,,,,,,,,,,,,,,,,
,,,,,,,,,,,,,,,751,2022-01-19_20h12.00.878,multiplicationStroop,2021.2.3,Win32,59.8372427,,,,,right,1,0.468,0,50,50,2,1,6,7,6 | 7,1,1.4111,1.9756,congruent,right,,,,,,stimulusFile/physical.xlsx,,,,,,,,,,,,,,,,,,,,,,,,,,,,,,,
,,,,,,,,,,,,,,,751,2022-01-19_20h12.00.878,multiplicationStroop,2021.2.3,Win32,59.8372427,,,,,right,1,0.4826,0,51,51,62,1,8,8,8 | 8,0,1.4111,1.9756,neutral,right,,,,,,stimulusFile/physical.xlsx,,,,,,,,,,,,,,,,,,,,,,,,,,,,,,,
,,,,,,,,,,,,,,,751,2022-01-19_20h12.00.878,multiplicationStroop,2021.2.3,Win32,59.8372427,,,,,left,1,0.4491,0,52,52,48,1,1,1,1 | 1,0,1.9756,1.4111,neutral,left,,,,,,stimulusFile/physical.xlsx,,,,,,,,,,,,,,,,,,,,,,,,,,,,,,,
,,,,,,,,,,,,,,,751,2022-01-19_20h12.00.878,multiplicationStroop,2021.2.3,Win32,59.8372427,,,,,left,1,0.5452,0,53,53,40,1,1,6,1 | 6,5,1.9756,1.4111,incongruent,left,,,,,,stimulusFile/physical.xlsx,,,,,,,,,,,,,,,,,,,,,,,,,,,,,,,
,,,,,,,,,,,,,,,751,2022-01-19_20h12.00.878,multiplicationStroop,2021.2.3,Win32,59.8372427,,,,,left,1,0.4547,0,54,54,15,1,9,7,9 | 7,2,1.9756,1.4111,congruent,left,,,,,,stimulusFile/physical.xlsx,,,,,,,,,,,,,,,,,,,,,,,,,,,,,,,
,,,,,,,,,,,,,,,751,2022-01-19_20h12.00.878,multiplicationStroop,2021.2.3,Win32,59.8372427,,,,,left,1,0.5,0,55,55,5,1,4,3,4 | 3,1,1.9756,1.4111,congruent,left,,,,,,stimulusFile/physical.xlsx,,,,,,,,,,,,,,,,,,,,,,,,,,,,,,,
,,,,,,,,,,,,,,,751,2022-01-19_20h12.00.878,multiplicationStroop,2021.2.3,Win32,59.8372427,,,,,right,1,0.5278,0,56,56,44,1,6,1,6 | 1,5,1.4111,1.9756,incongruent,right,,,,,,stimulusFile/physical.xlsx,,,,,,,,,,,,,,,,,,,,,,,,,,,,,,,
,,,,,,,,,,,,,,,751,2022-01-19_20h12.00.878,multiplicationStroop,2021.2.3,Win32,59.8372427,,,,,right,1,0.4541,0,57,57,58,1,6,6,6 | 6,0,1.4111,1.9756,neutral,right,,,,,,stimulusFile/physical.xlsx,,,,,,,,,,,,,,,,,,,,,,,,,,,,,,,
,,,,,,,,,,,,,,,751,2022-01-19_20h12.00.878,multiplicationStroop,2021.2.3,Win32,59.8372427,,,,,left,0,0.4332,0,58,58,64,1,1,1,1 | 1,0,1.9756,1.4111,neutral,right,,,,,,stimulusFile/physical.xlsx,,,,,,,,,,,,,,,,,,,,,,,,,,,,,,,
,,,,,,,,,,,,,,,751,2022-01-19_20h12.00.878,multiplicationStroop,2021.2.3,Win32,59.8372427,,,,,right,1,0.4495,0,59,59,18,1,3,8,3 | 8,5,1.4111,1.9756,congruent,right,,,,,,stimulusFile/physical.xlsx,,,,,,,,,,,,,,,,,,,,,,,,,,,,,,,
,,,,,,,,,,,,,,,751,2022-01-19_20h12.00.878,multiplicationStroop,2021.2.3,Win32,59.8372427,,,,,left,1,0.4503,0,60,60,25,1,3,4,3 | 4,1,1.9756,1.4111,incongruent,left,,,,,,stimulusFile/physical.xlsx,,,,,,,,,,,,,,,,,,,,,,,,,,,,,,,
,,,,,,,,,,,,,,,751,2022-01-19_20h12.00.878,multiplicationStroop,2021.2.3,Win32,59.8372427,,,,,right,1,0.4159,0,61,61,17,1,2,7,2 | 7,5,1.4111,1.9756,congruent,right,,,,,,stimulusFile/physical.xlsx,,,,,,,,,,,,,,,,,,,,,,,,,,,,,,,
,,,,,,,,,,,,,,,751,2022-01-19_20h12.00.878,multiplicationStroop,2021.2.3,Win32,59.8372427,,,,,right,1,0.4415,0,62,62,59,1,7,7,7 | 7,0,1.4111,1.9756,neutral,right,,,,,,stimulusFile/physical.xlsx,,,,,,,,,,,,,,,,,,,,,,,,,,,,,,,
,,,,,,,,,,,,,,,751,2022-01-19_20h12.00.878,multiplicationStroop,2021.2.3,Win32,59.8372427,,,,,left,1,0.4053,0,63,63,35,1,7,9,7 | 9,2,1.9756,1.4111,incongruent,left,,,,,,stimulusFile/physical.xlsx,,,,,,,,,,,,,,,,,,,,,,,,,,,,,,,
,,,,,,,,,,,,,,,751,2022-01-19_20h12.00.878,multiplicationStroop,2021.2.3,Win32,59.8372427,,,,,right,1,0.4337,0,64,64,61,1,4,4,4 | 4,0,1.4111,1.9756,neutral,right,,,,,,stimulusFile/physical.xlsx,,,,,,,,,,,,,,,,,,,,,,,,,,,,,,,
,,,,,,,,,,,,,,,751,2022-01-19_20h12.00.878,multiplicationStroop,2021.2.3,Win32,59.8372427,,,,,left,1,0.4083,0,65,65,27,1,8,9,8 | 9,1,1.9756,1.4111,incongruent,left,,,,,,stimulusFile/physical.xlsx,,,,,,,,,,,,,,,,,,,,,,,,,,,,,,,
,,,,,,,,,,,,,,,751,2022-01-19_20h12.00.878,multiplicationStroop,2021.2.3,Win32,59.8372427,,,,,left,1,0.4721,0,66,66,68,1,6,6,6 | 6,0,1.9756,1.4111,neutral,left,,,,,,stimulusFile/physical.xlsx,,,,,,,,,,,,,,,,,,,,,,,,,,,,,,,
,,,,,,,,,,,,,,,751,2022-01-19_20h12.00.878,multiplicationStroop,2021.2.3,Win32,59.8372427,,,,,left,1,0.4668,0,67,67,12,1,3,1,3 | 1,2,1.9756,1.4111,congruent,left,,,,,,stimulusFile/physical.xlsx,,,,,,,,,,,,,,,,,,,,,,,,,,,,,,,
,,,,,,,,,,,,,,,751,2022-01-19_20h12.00.878,multiplicationStroop,2021.2.3,Win32,59.8372427,,,,,right,1,0.4109,0,68,68,3,1,8,9,8 | 9,1,1.4111,1.9756,congruent,right,,,,,,stimulusFile/physical.xlsx,,,,,,,,,,,,,,,,,,,,,,,,,,,,,,,
,,,,,,,,,,,,,,,751,2022-01-19_20h12.00.878,multiplicationStroop,2021.2.3,Win32,59.8372427,,,,,right,1,0.4743,0,69,69,63,1,9,9,9 | 9,0,1.4111,1.9756,neutral,right,,,,,,stimulusFile/physical.xlsx,,,,,,,,,,,,,,,,,,,,,,,,,,,,,,,
,,,,,,,,,,,,,,,751,2022-01-19_20h12.00.878,multiplicationStroop,2021.2.3,Win32,59.8372427,,,,,left,1,0.4332,0,70,70,23,1,9,4,9 | 4,5,1.9756,1.4111,congruent,left,,,,,,stimulusFile/physical.xlsx,,,,,,,,,,,,,,,,,,,,,,,,,,,,,,,
,,,,,,,,,,,,,,,751,2022-01-19_20h12.00.878,multiplicationStroop,2021.2.3,Win32,59.8372427,,,,,right,1,0.4168,0,71,71,16,1,1,6,1 | 6,5,1.4111,1.9756,congruent,right,,,,,,stimulusFile/physical.xlsx,,,,,,,,,,,,,,,,,,,,,,,,,,,,,,,
,,,,,,,,,,,,,,,751,2022-01-19_20h12.00.878,multiplicationStroop,2021.2.3,Win32,59.8372427,,,,,,,,,,,,,,,,,,,,,0,0,0,1,1,stimulusFile/physical.xlsx,PHYSICALLY larger (larger font size).,images/physicallyLarger.png,,,,,,,,,,,,,,,,,,,,,,,,,,,,,
,,,,,,,,,,,,,,,751,2022-01-19_20h12.00.878,multiplicationStroop,2021.2.3,Win32,59.8372427,space,6.1694,space,4.1126,left,1,0.739,0,0,0,61,1,4,2,4 | 2,2,1.6933,1.6933,neutral,left,,,,,,stimulusFile/magnitude.xlsx,,,,,,,,,,,,,,,,,,,,,,,,,,,,,,,
,,,,,,,,,,,,,,,751,2022-01-19_20h12.00.878,multiplicationStroop,2021.2.3,Win32,59.8372427,,,,,right,1,0.4551,0,1,1,18,1,3,8,3 | 8,5,1.4111,1.9756,congruent,right,,,,,,stimulusFile/magnitude.xlsx,,,,,,,,,,,,,,,,,,,,,,,,,,,,,,,
,,,,,,,,,,,,,,,751,2022-01-19_20h12.00.878,multiplicationStroop,2021.2.3,Win32,59.8372427,,,,,right,1,0.7848,0,2,2,50,1,6,7,6 | 7,1,1.6933,1.6933,neutral,right,,,,,,stimulusFile/magnitude.xlsx,,,,,,,,,,,,,,,,,,,,,,,,,,,,,,,
,,,,,,,,,,,,,,,751,2022-01-19_20h12.00.878,multiplicationStroop,2021.2.3,Win32,59.8372427,,,,,right,1,0.733,0,3,3,43,1,4,9,4 | 9,5,1.9756,1.4111,incongruent,right,,,,,,stimulusFile/magnitude.xlsx,,,,,,,,,,,,,,,,,,,,,,,,,,,,,,,
,,,,,,,,,,,,,,,751,2022-01-19_20h12.00.878,multiplicationStroop,2021.2.3,Win32,59.8372427,,,,,right,1,0.9461,0,4,4,24,1,1,2,1 | 2,1,1.9756,1.4111,incongruent,right,,,,,,stimulusFile/magnitude.xlsx,,,,,,,,,,,,,,,,,,,,,,,,,,,,,,,
,,,,,,,,,,,,,,,751,2022-01-19_20h12.00.878,multiplicationStroop,2021.2.3,Win32,59.8372427,,,,,right,1,0.7355,0,5,5,51,1,8,9,8 | 9,1,1.6933,1.6933,neutral,right,,,,,,stimulusFile/magnitude.xlsx,,,,,,,,,,,,,,,,,,,,,,,,,,,,,,,
,,,,,,,,,,,,,,,751,2022-01-19_20h12.00.878,multiplicationStroop,2021.2.3,Win32,59.8372427,,,,,right,1,0.7278,0,6,6,67,1,4,9,4 | 9,5,1.6933,1.6933,neutral,right,,,,,,stimulusFile/magnitude.xlsx,,,,,,,,,,,,,,,,,,,,,,,,,,,,,,,
,,,,,,,,,,,,,,,751,2022-01-19_20h12.00.878,multiplicationStroop,2021.2.3,Win32,59.8372427,,,,,right,1,0.6355,0,7,7,49,1,3,4,3 | 4,1,1.6933,1.6933,neutral,right,,,,,,stimulusFile/magnitude.xlsx,,,,,,,,,,,,,,,,,,,,,,,,,,,,,,,
,,,,,,,,,,,,,,,751,2022-01-19_20h12.00.878,multiplicationStroop,2021.2.3,Win32,59.8372427,,,,,left,1,0.5021,0,8,8,54,1,7,6,7 | 6,1,1.6933,1.6933,neutral,left,,,,,,stimulusFile/magnitude.xlsx,,,,,,,,,,,,,,,,,,,,,,,,,,,,,,,
,,,,,,,,,,,,,,,751,2022-01-19_20h12.00.878,multiplicationStroop,2021.2.3,Win32,59.8372427,,,,,left,1,0.848,0,9,9,36,1,3,1,3 | 1,2,1.4111,1.9756,incongruent,left,,,,,,stimulusFile/magnitude.xlsx,,,,,,,,,,,,,,,,,,,,,,,,,,,,,,,
,,,,,,,,,,,,,,,751,2022-01-19_20h12.00.878,multiplicationStroop,2021.2.3,Win32,59.8372427,,,,,left,1,0.4216,0,10,10,23,1,9,4,9 | 4,5,1.9756,1.4111,congruent,left,,,,,,stimulusFile/magnitude.xlsx,,,,,,,,,,,,,,,,,,,,,,,,,,,,,,,
,,,,,,,,,,,,,,,751,2022-01-19_20h12.00.878,multiplicationStroop,2021.2.3,Win32,59.8372427,,,,,left,1,0.7556,0,11,11,44,1,6,1,6 | 1,5,1.4111,1.9756,incongruent,left,,,,,,stimulusFile/magnitude.xlsx,,,,,,,,,,,,,,,,,,,,,,,,,,,,,,,
,,,,,,,,,,,,,,,751,2022-01-19_20h12.00.878,multiplicationStroop,2021.2.3,Win32,59.8372427,,,,,right,1,0.8411,0,12,12,56,1,1,3,1 | 3,2,1.6933,1.6933,neutral,right,,,,,,stimulusFile/magnitude.xlsx,,,,,,,,,,,,,,,,,,,,,,,,,,,,,,,
,,,,,,,,,,,,,,,751,2022-01-19_20h12.00.878,multiplicationStroop,2021.2.3,Win32,59.8372427,,,,,right,1,0.4826,0,13,13,59,1,7,9,7 | 9,2,1.6933,1.6933,neutral,right,,,,,,stimulusFile/magnitude.xlsx,,,,,,,,,,,,,,,,,,,,,,,,,,,,,,,
,,,,,,,,,,,,,,,751,2022-01-19_20h12.00.878,multiplicationStroop,2021.2.3,Win32,59.8372427,,,,,left,1,0.7051,0,14,14,29,1,4,3,4 | 3,1,1.4111,1.9756,incongruent,left,,,,,,stimulusFile/magnitude.xlsx,,,,,,,,,,,,,,,,,,,,,,,,,,,,,,,
,,,,,,,,,,,,,,,751,2022-01-19_20h12.00.878,multiplicationStroop,2021.2.3,Win32,59.8372427,,,,,left,1,0.5547,0,15,15,53,1,4,3,4 | 3,1,1.6933,1.6933,neutral,left,,,,,,stimulusFile/magnitude.xlsx,,,,,,,,,,,,,,,,,,,,,,,,,,,,,,,
,,,,,,,,,,,,,,,751,2022-01-19_20h12.00.878,multiplicationStroop,2021.2.3,Win32,59.8372427,,,,,left,1,0.4332,0,16,16,22,1,8,3,8 | 3,5,1.9756,1.4111,congruent,left,,,,,,stimulusFile/magnitude.xlsx,,,,,,,,,,,,,,,,,,,,,,,,,,,,,,,
,,,,,,,,,,,,,,,751,2022-01-19_20h12.00.878,multiplicationStroop,2021.2.3,Win32,59.8372427,,,,,right,1,0.5711,0,17,17,0,1,1,2,1 | 2,1,1.4111,1.9756,congruent,right,,,,,,stimulusFile/magnitude.xlsx,,,,,,,,,,,,,,,,,,,,,,,,,,,,,,,
,,,,,,,,,,,,,,,751,2022-01-19_20h12.00.878,multiplicationStroop,2021.2.3,Win32,59.8372427,,,,,left,1,0.4326,0,18,18,68,1,6,1,6 | 1,5,1.6933,1.6933,neutral,left,,,,,,stimulusFile/magnitude.xlsx,,,,,,,,,,,,,,,,,,,,,,,,,,,,,,,
,,,,,,,,,,,,,,,751,2022-01-19_20h12.00.878,multiplicationStroop,2021.2.3,Win32,59.8372427,,,,,right,1,0.6411,0,19,19,35,1,7,9,7 | 9,2,1.9756,1.4111,incongruent,right,,,,,,stimulusFile/magnitude.xlsx,,,,,,,,,,,,,,,,,,,,,,,,,,,,,,,
,,,,,,,,,,,,,,,751,2022-01-19_20h12.00.878,multiplicationStroop,2021.2.3,Win32,59.8372427,,,,,left,1,0.6471,0,20,20,63,1,9,7,9 | 7,2,1.6933,1.6933,neutral,left,,,,,,stimulusFile/magnitude.xlsx,,,,,,,,,,,,,,,,,,,,,,,,,,,,,,,
,,,,,,,,,,,,,,,751,2022-01-19_20h12.00.878,multiplicationStroop,2021.2.3,Win32,59.8372427,,,,,right,1,0.4658,0,21,21,2,1,6,7,6 | 7,1,1.4111,1.9756,congruent,right,,,,,,stimulusFile/magnitude.xlsx,,,,,,,,,,,,,,,,,,,,,,,,,,,,,,,
,,,,,,,,,,,,,,,751,2022-01-19_20h12.00.878,multiplicationStroop,2021.2.3,Win32,59.8372427,,,,,left,1,0.5998,0,22,22,31,1,9,8,9 | 8,1,1.4111,1.9756,incongruent,left,,,,,,stimulusFile/magnitude.xlsx,,,,,,,,,,,,,,,,,,,,,,,,,,,,,,,
,,,,,,,,,,,,,,,751,2022-01-19_20h12.00.878,multiplicationStroop,2021.2.3,Win32,59.8372427,,,,,left,1,0.6548,0,23,23,30,1,7,6,7 | 6,1,1.4111,1.9756,incongruent,left,,,,,,stimulusFile/magnitude.xlsx,,,,,,,,,,,,,,,,,,,,,,,,,,,,,,,
,,,,,,,,,,,,,,,751,2022-01-19_20h12.00.878,multiplicationStroop,2021.2.3,Win32,59.8372427,,,,,left,1,0.6815,0,24,24,28,1,2,1,2 | 1,1,1.4111,1.9756,incongruent,left,,,,,,stimulusFile/magnitude.xlsx,,,,,,,,,,,,,,,,,,,,,,,,,,,,,,,
,,,,,,,,,,,,,,,751,2022-01-19_20h12.00.878,multiplicationStroop,2021.2.3,Win32,59.8372427,,,,,left,1,0.4616,0,25,25,6,1,7,6,7 | 6,1,1.9756,1.4111,congruent,left,,,,,,stimulusFile/magnitude.xlsx,,,,,,,,,,,,,,,,,,,,,,,,,,,,,,,
,,,,,,,,,,,,,,,751,2022-01-19_20h12.00.878,multiplicationStroop,2021.2.3,Win32,59.8372427,,,,,right,1,0.4567,0,26,26,8,1,1,3,1 | 3,2,1.4111,1.9756,congruent,right,,,,,,stimulusFile/magnitude.xlsx,,,,,,,,,,,,,,,,,,,,,,,,,,,,,,,
,,,,,,,,,,,,,,,751,2022-01-19_20h12.00.878,multiplicationStroop,2021.2.3,Win32,59.8372427,,,,,left,1,0.4512,0,27,27,71,1,9,4,9 | 4,5,1.6933,1.6933,neutral,left,,,,,,stimulusFile/magnitude.xlsx,,,,,,,,,,,,,,,,,,,,,,,,,,,,,,,
,,,,,,,,,,,,,,,751,2022-01-19_20h12.00.878,multiplicationStroop,2021.2.3,Win32,59.8372427,,,,,right,1,0.4468,0,28,28,3,1,8,9,8 | 9,1,1.4111,1.9756,congruent,right,,,,,,stimulusFile/magnitude.xlsx,,,,,,,,,,,,,,,,,,,,,,,,,,,,,,,
,,,,,,,,,,,,,,,751,2022-01-19_20h12.00.878,multiplicationStroop,2021.2.3,Win32,59.8372427,,,,,left,1,0.4409,0,29,29,70,1,8,3,8 | 3,5,1.6933,1.6933,neutral,left,,,,,,stimulusFile/magnitude.xlsx,,,,,,,,,,,,,,,,,,,,,,,,,,,,,,,
,,,,,,,,,,,,,,,751,2022-01-19_20h12.00.878,multiplicationStroop,2021.2.3,Win32,59.8372427,,,,,left,1,0.4368,0,30,30,45,1,7,2,7 | 2,5,1.4111,1.9756,incongruent,left,,,,,,stimulusFile/magnitude.xlsx,,,,,,,,,,,,,,,,,,,,,,,,,,,,,,,
,,,,,,,,,,,,,,,751,2022-01-19_20h12.00.878,multiplicationStroop,2021.2.3,Win32,59.8372427,,,,,left,1,0.5029,0,31,31,46,1,8,3,8 | 3,5,1.4111,1.9756,incongruent,left,,,,,,stimulusFile/magnitude.xlsx,,,,,,,,,,,,,,,,,,,,,,,,,,,,,,,
,,,,,,,,,,,,,,,751,2022-01-19_20h12.00.878,multiplicationStroop,2021.2.3,Win32,59.8372427,,,,,left,1,0.4629,0,32,32,13,1,4,2,4 | 2,2,1.9756,1.4111,congruent,left,,,,,,stimulusFile/magnitude.xlsx,,,,,,,,,,,,,,,,,,,,,,,,,,,,,,,
,,,,,,,,,,,,,,,751,2022-01-19_20h12.00.878,multiplicationStroop,2021.2.3,Win32,59.8372427,,,,,right,1,0.4822,0,33,33,57,1,2,4,2 | 4,2,1.6933,1.6933,neutral,right,,,,,,stimulusFile/magnitude.xlsx,,,,,,,,,,,,,,,,,,,,,,,,,,,,,,,
,,,,,,,,,,,,,,,751,2022-01-19_20h12.00.878,multiplicationStroop,2021.2.3,Win32,59.8372427,,,,,left,1,0.3986,0,34,34,60,1,3,1,3 | 1,2,1.6933,1.6933,neutral,left,,,,,,stimulusFile/magnitude.xlsx,,,,,,,,,,,,,,,,,,,,,,,,,,,,,,,
,,,,,,,,,,,,,,,751,2022-01-19_20h12.00.878,multiplicationStroop,2021.2.3,Win32,59.8372427,,,,,right,1,0.7631,0,35,35,32,1,1,3,1 | 3,2,1.9756,1.4111,incongruent,right,,,,,,stimulusFile/magnitude.xlsx,,,,,,,,,,,,,,,,,,,,,,,,,,,,,,,
,,,,,,,,,,,,,,,751,2022-01-19_20h12.00.878,multiplicationStroop,2021.2.3,Win32,59.8372427,,,,,left,1,0.6264,0,36,36,39,1,9,7,9 | 7,2,1.4111,1.9756,incongruent,left,,,,,,stimulusFile/magnitude.xlsx,,,,,,,,,,,,,,,,,,,,,,,,,,,,,,,
,,,,,,,,,,,,,,,751,2022-01-19_20h12.00.878,multiplicationStroop,2021.2.3,Win32,59.8372427,,,,,right,1,0.61,0,37,37,41,1,2,7,2 | 7,5,1.9756,1.4111,incongruent,right,,,,,,stimulusFile/magnitude.xlsx,,,,,,,,,,,,,,,,,,,,,,,,,,,,,,,
,,,,,,,,,,,,,,,751,2022-01-19_20h12.00.878,multiplicationStroop,2021.2.3,Win32,59.8372427,,,,,right,1,0.4396,0,38,38,19,1,4,9,4 | 9,5,1.4111,1.9756,congruent,right,,,,,,stimulusFile/magnitude.xlsx,,,,,,,,,,,,,,,,,,,,,,,,,,,,,,,
,,,,,,,,,,,,,,,751,2022-01-19_20h12.00.878,multiplicationStroop,2021.2.3,Win32,59.8372427,,,,,left,0,0.4715,0,39,39,25,1,3,4,3 | 4,1,1.9756,1.4111,incongruent,right,,,,,,stimulusFile/magnitude.xlsx,,,,,,,,,,,,,,,,,,,,,,,,,,,,,,,
,,,,,,,,,,,,,,,751,2022-01-19_20h12.00.878,multiplicationStroop,2021.2.3,Win32,59.8372427,,,,,left,1,0.6302,0,40,40,62,1,8,6,8 | 6,2,1.6933,1.6933,neutral,left,,,,,,stimulusFile/magnitude.xlsx,,,,,,,,,,,,,,,,,,,,,,,,,,,,,,,
,,,,,,,,,,,,,,,751,2022-01-19_20h12.00.878,multiplicationStroop,2021.2.3,Win32,59.8372427,,,,,right,1,0.4548,0,41,41,17,1,2,7,2 | 7,5,1.4111,1.9756,congruent,right,,,,,,stimulusFile/magnitude.xlsx,,,,,,,,,,,,,,,,,,,,,,,,,,,,,,,
,,,,,,,,,,,,,,,751,2022-01-19_20h12.00.878,multiplicationStroop,2021.2.3,Win32,59.8372427,,,,,left,1,0.6684,0,42,42,55,1,9,8,9 | 8,1,1.6933,1.6933,neutral,left,,,,,,stimulusFile/magnitude.xlsx,,,,,,,,,,,,,,,,,,,,,,,,,,,,,,,
,,,,,,,,,,,,,,,751,2022-01-19_20h12.00.878,multiplicationStroop,2021.2.3,Win32,59.8372427,,,,,right,1,0.6163,0,43,43,9,1,2,4,2 | 4,2,1.4111,1.9756,congruent,right,,,,,,stimulusFile/magnitude.xlsx,,,,,,,,,,,,,,,,,,,,,,,,,,,,,,,
,,,,,,,,,,,,,,,751,2022-01-19_20h12.00.878,multiplicationStroop,2021.2.3,Win32,59.8372427,,,,,left,1,0.4463,0,44,44,4,1,2,1,2 | 1,1,1.9756,1.4111,congruent,left,,,,,,stimulusFile/magnitude.xlsx,,,,,,,,,,,,,,,,,,,,,,,,,,,,,,,
,,,,,,,,,,,,,,,751,2022-01-19_20h12.00.878,multiplicationStroop,2021.2.3,Win32,59.8372427,,,,,left,1,0.4824,0,45,45,14,1,8,6,8 | 6,2,1.9756,1.4111,congruent,left,,,,,,stimulusFile/magnitude.xlsx,,,,,,,,,,,,,,,,,,,,,,,,,,,,,,,
,,,,,,,,,,,,,,,751,2022-01-19_20h12.00.878,multiplicationStroop,2021.2.3,Win32,59.8372427,,,,,right,1,0.7194,0,46,46,33,1,2,4,2 | 4,2,1.9756,1.4111,incongruent,right,,,,,,stimulusFile/magnitude.xlsx,,,,,,,,,,,,,,,,,,,,,,,,,,,,,,,
,,,,,,,,,,,,,,,751,2022-01-19_20h12.00.878,multiplicationStroop,2021.2.3,Win32,59.8372427,,,,,right,1,0.5221,0,47,47,65,1,2,7,2 | 7,5,1.6933,1.6933,neutral,right,,,,,,stimulusFile/magnitude.xlsx,,,,,,,,,,,,,,,,,,,,,,,,,,,,,,,
,,,,,,,,,,,,,,,751,2022-01-19_20h12.00.878,multiplicationStroop,2021.2.3,Win32,59.8372427,,,,,right,1,0.4946,0,48,48,64,1,1,6,1 | 6,5,1.6933,1.6933,neutral,right,,,,,,stimulusFile/magnitude.xlsx,,,,,,,,,,,,,,,,,,,,,,,,,,,,,,,
,,,,,,,,,,,,,,,751,2022-01-19_20h12.00.878,multiplicationStroop,2021.2.3,Win32,59.8372427,,,,,left,1,0.5319,0,49,49,69,1,7,2,7 | 2,5,1.6933,1.6933,neutral,left,,,,,,stimulusFile/magnitude.xlsx,,,,,,,,,,,,,,,,,,,,,,,,,,,,,,,
,,,,,,,,,,,,,,,751,2022-01-19_20h12.00.878,multiplicationStroop,2021.2.3,Win32,59.8372427,,,,,right,1,0.5579,0,50,50,34,1,6,8,6 | 8,2,1.9756,1.4111,incongruent,right,,,,,,stimulusFile/magnitude.xlsx,,,,,,,,,,,,,,,,,,,,,,,,,,,,,,,
,,,,,,,,,,,,,,,751,2022-01-19_20h12.00.878,multiplicationStroop,2021.2.3,Win32,59.8372427,,,,,left,1,0.4736,0,51,51,7,1,9,8,9 | 8,1,1.9756,1.4111,congruent,left,,,,,,stimulusFile/magnitude.xlsx,,,,,,,,,,,,,,,,,,,,,,,,,,,,,,,
,,,,,,,,,,,,,,,751,2022-01-19_20h12.00.878,multiplicationStroop,2021.2.3,Win32,59.8372427,,,,,right,1,0.4979,0,52,52,40,1,1,6,1 | 6,5,1.9756,1.4111,incongruent,right,,,,,,stimulusFile/magnitude.xlsx,,,,,,,,,,,,,,,,,,,,,,,,,,,,,,,
,,,,,,,,,,,,,,,751,2022-01-19_20h12.00.878,multiplicationStroop,2021.2.3,Win32,59.8372427,,,,,left,1,0.7921,0,53,53,37,1,4,2,4 | 2,2,1.4111,1.9756,incongruent,left,,,,,,stimulusFile/magnitude.xlsx,,,,,,,,,,,,,,,,,,,,,,,,,,,,,,,
,,,,,,,,,,,,,,,751,2022-01-19_20h12.00.878,multiplicationStroop,2021.2.3,Win32,59.8372427,,,,,right,1,0.4486,0,54,54,11,1,7,9,7 | 9,2,1.4111,1.9756,congruent,right,,,,,,stimulusFile/magnitude.xlsx,,,,,,,,,,,,,,,,,,,,,,,,,,,,,,,
,,,,,,,,,,,,,,,751,2022-01-19_20h12.00.878,multiplicationStroop,2021.2.3,Win32,59.8372427,,,,,left,1,0.4122,0,55,55,5,1,4,3,4 | 3,1,1.9756,1.4111,congruent,left,,,,,,stimulusFile/magnitude.xlsx,,,,,,,,,,,,,,,,,,,,,,,,,,,,,,,
,,,,,,,,,,,,,,,751,2022-01-19_20h12.00.878,multiplicationStroop,2021.2.3,Win32,59.8372427,,,,,left,1,0.6231,0,56,56,38,1,8,6,8 | 6,2,1.4111,1.9756,incongruent,left,,,,,,stimulusFile/magnitude.xlsx,,,,,,,,,,,,,,,,,,,,,,,,,,,,,,,
,,,,,,,,,,,,,,,751,2022-01-19_20h12.00.878,multiplicationStroop,2021.2.3,Win32,59.8372427,,,,,left,1,0.4194,0,57,57,12,1,3,1,3 | 1,2,1.9756,1.4111,congruent,left,,,,,,stimulusFile/magnitude.xlsx,,,,,,,,,,,,,,,,,,,,,,,,,,,,,,,
,,,,,,,,,,,,,,,751,2022-01-19_20h12.00.878,multiplicationStroop,2021.2.3,Win32,59.8372427,,,,,right,1,0.4698,0,58,58,42,1,3,8,3 | 8,5,1.9756,1.4111,incongruent,right,,,,,,stimulusFile/magnitude.xlsx,,,,,,,,,,,,,,,,,,,,,,,,,,,,,,,
,,,,,,,,,,,,,,,751,2022-01-19_20h12.00.878,multiplicationStroop,2021.2.3,Win32,59.8372427,,,,,right,1,0.4414,0,59,59,10,1,6,8,6 | 8,2,1.4111,1.9756,congruent,right,,,,,,stimulusFile/magnitude.xlsx,,,,,,,,,,,,,,,,,,,,,,,,,,,,,,,
,,,,,,,,,,,,,,,751,2022-01-19_20h12.00.878,multiplicationStroop,2021.2.3,Win32,59.8372427,,,,,right,1,0.6541,0,60,60,26,1,6,7,6 | 7,1,1.9756,1.4111,incongruent,right,,,,,,stimulusFile/magnitude.xlsx,,,,,,,,,,,,,,,,,,,,,,,,,,,,,,,
,,,,,,,,,,,,,,,751,2022-01-19_20h12.00.878,multiplicationStroop,2021.2.3,Win32,59.8372427,,,,,left,1,0.4886,0,61,61,20,1,6,1,6 | 1,5,1.9756,1.4111,congruent,left,,,,,,stimulusFile/magnitude.xlsx,,,,,,,,,,,,,,,,,,,,,,,,,,,,,,,
,,,,,,,,,,,,,,,751,2022-01-19_20h12.00.878,multiplicationStroop,2021.2.3,Win32,59.8372427,,,,,right,1,0.4548,0,62,62,66,1,3,8,3 | 8,5,1.6933,1.6933,neutral,right,,,,,,stimulusFile/magnitude.xlsx,,,,,,,,,,,,,,,,,,,,,,,,,,,,,,,
,,,,,,,,,,,,,,,751,2022-01-19_20h12.00.878,multiplicationStroop,2021.2.3,Win32,59.8372427,,,,,left,1,0.3842,0,63,63,21,1,7,2,7 | 2,5,1.9756,1.4111,congruent,left,,,,,,stimulusFile/magnitude.xlsx,,,,,,,,,,,,,,,,,,,,,,,,,,,,,,,
,,,,,,,,,,,,,,,751,2022-01-19_20h12.00.878,multiplicationStroop,2021.2.3,Win32,59.8372427,,,,,left,1,0.4499,0,64,64,52,1,2,1,2 | 1,1,1.6933,1.6933,neutral,left,,,,,,stimulusFile/magnitude.xlsx,,,,,,,,,,,,,,,,,,,,,,,,,,,,,,,
,,,,,,,,,,,,,,,751,2022-01-19_20h12.00.878,multiplicationStroop,2021.2.3,Win32,59.8372427,,,,,right,1,0.4335,0,65,65,16,1,1,6,1 | 6,5,1.4111,1.9756,congruent,right,,,,,,stimulusFile/magnitude.xlsx,,,,,,,,,,,,,,,,,,,,,,,,,,,,,,,
,,,,,,,,,,,,,,,751,2022-01-19_20h12.00.878,multiplicationStroop,2021.2.3,Win32,59.8372427,,,,,right,1,0.4989,0,66,66,48,1,1,2,1 | 2,1,1.6933,1.6933,neutral,right,,,,,,stimulusFile/magnitude.xlsx,,,,,,,,,,,,,,,,,,,,,,,,,,,,,,,
,,,,,,,,,,,,,,,751,2022-01-19_20h12.00.878,multiplicationStroop,2021.2.3,Win32,59.8372427,,,,,left,1,0.4465,0,67,67,15,1,9,7,9 | 7,2,1.9756,1.4111,congruent,left,,,,,,stimulusFile/magnitude.xlsx,,,,,,,,,,,,,,,,,,,,,,,,,,,,,,,
,,,,,,,,,,,,,,,751,2022-01-19_20h12.00.878,multiplicationStroop,2021.2.3,Win32,59.8372427,,,,,right,1,0.4499,0,68,68,1,1,3,4,3 | 4,1,1.4111,1.9756,congruent,right,,,,,,stimulusFile/magnitude.xlsx,,,,,,,,,,,,,,,,,,,,,,,,,,,,,,,
,,,,,,,,,,,,,,,751,2022-01-19_20h12.00.878,multiplicationStroop,2021.2.3,Win32,59.8372427,,,,,right,1,0.4754,0,69,69,58,1,6,8,6 | 8,2,1.6933,1.6933,neutral,right,,,,,,stimulusFile/magnitude.xlsx,,,,,,,,,,,,,,,,,,,,,,,,,,,,,,,
,,,,,,,,,,,,,,,751,2022-01-19_20h12.00.878,multiplicationStroop,2021.2.3,Win32,59.8372427,,,,,right,1,0.5233,0,70,70,27,1,8,9,8 | 9,1,1.9756,1.4111,incongruent,right,,,,,,stimulusFile/magnitude.xlsx,,,,,,,,,,,,,,,,,,,,,,,,,,,,,,,
,,,,,,,,,,,,,,,751,2022-01-19_20h12.00.878,multiplicationStroop,2021.2.3,Win32,59.8372427,,,,,left,1,0.6034,0,71,71,47,1,9,4,9 | 4,5,1.4111,1.9756,incongruent,left,,,,,,stimulusFile/magnitude.xlsx,,,,,,,,,,,,,,,,,,,,,,,,,,,,,,,
,,,,,,,,,,,,,,,751,2022-01-19_20h12.00.878,multiplicationStroop,2021.2.3,Win32,59.8372427,,,,,,,,,,,,,,,,,,,,,0,1,1,0,1,stimulusFile/magnitude.xlsx,NUMERICALLY larger (larger coefficient).,images/numericallyLarger.png,,,,,,,,,,,,,,,,,,,,,,,,,,,,,
,,,,,,,,,,,,,,,751,2022-01-19_20h12.00.878,multiplicationStroop,2021.2.3,Win32,59.8372427,,,,,,,,,,,,,,,,,,,,,,,,,,,,,space,22.0708,space,2.5592,9,3.0734,1,0,0,0,29,1,3,×,3,3 × 3,neutral,tie,2,1,9,,,,,,,,
,,,,,,,,,,,,,,,751,2022-01-19_20h12.00.878,multiplicationStroop,2021.2.3,Win32,59.8372427,,,,,,,,,,,,,,,,,,,,,,,,,,,,,,,,,81,1.9001,1,0,1,1,35,1,9,×,9,9 × 9,neutral,tie,2,1,81,,,,,,,,
,,,,,,,,,,,,,,,751,2022-01-19_20h12.00.878,multiplicationStroop,2021.2.3,Win32,59.8372427,,,,,,,,,,,,,,,,,,,,,,,,,,,,,,,,,20,1.6005,1,0,2,2,7,1,4,×,5,4 × 5,congruent,smallerFirst,1,2,20,,,,,,,,
,,,,,,,,,,,,,,,751,2022-01-19_20h12.00.878,multiplicationStroop,2021.2.3,Win32,59.8372427,,,,,,,,,,,,,,,,,,,,,,,,,,,,,,,,,27,1.5671,1,0,3,3,26,1,9,×,3,9 × 3,congruent,largerFirst,2,1,27,,,,,,,,
,,,,,,,,,,,,,,,751,2022-01-19_20h12.00.878,multiplicationStroop,2021.2.3,Win32,59.8372427,,,,,,,,,,,,,,,,,,,,,,,,,,,,,,,,,24,1.7331,1,0,4,4,25,1,6,×,4,6 × 4,congruent,largerFirst,2,1,24,,,,,,,,
,,,,,,,,,,,,,,,751,2022-01-19_20h12.00.878,multiplicationStroop,2021.2.3,Win32,59.8372427,,,,,,,,,,,,,,,,,,,,,,,,,,,,,,,,,42,1.5341,1,0,5,5,3,1,6,×,7,6 × 7,congruent,smallerFirst,1,2,42,,,,,,,,
,,,,,,,,,,,,,,,751,2022-01-19_20h12.00.878,multiplicationStroop,2021.2.3,Win32,59.8372427,,,,,,,,,,,,,,,,,,,,,,,,,,,,,,,,,14,1.6002,1,0,6,6,14,1,7,×,2,7 × 2,congruent,largerFirst,2,1,14,,,,,,,,
,,,,,,,,,,,,,,,751,2022-01-19_20h12.00.878,multiplicationStroop,2021.2.3,Win32,59.8372427,,,,,,,,,,,,,,,,,,,,,,,,,,,,,,,,,10,1.3837,1,0,7,7,24,1,5,×,2,5 × 2,congruent,largerFirst,2,1,10,,,,,,,,
,,,,,,,,,,,,,,,751,2022-01-19_20h12.00.878,multiplicationStroop,2021.2.3,Win32,59.8372427,,,,,,,,,,,,,,,,,,,,,,,,,,,,,,,,,28,1.8499,1,0,8,8,27,1,7,×,4,7 × 4,congruent,largerFirst,2,1,28,,,,,,,,
,,,,,,,,,,,,,,,751,2022-01-19_20h12.00.878,multiplicationStroop,2021.2.3,Win32,59.8372427,,,,,,,,,,,,,,,,,,,,,,,,,,,,,,,,,54,1.6671,1,0,9,9,12,1,6,×,9,6 × 9,congruent,smallerFirst,1,2,54,,,,,,,,
,,,,,,,,,,,,,,,751,2022-01-19_20h12.00.878,multiplicationStroop,2021.2.3,Win32,59.8372427,,,,,,,,,,,,,,,,,,,,,,,,,,,,,,,,,40,1.6995,1,0,10,10,6,1,5,×,8,5 × 8,congruent,smallerFirst,1,2,40,,,,,,,,
,,,,,,,,,,,,,,,751,2022-01-19_20h12.00.878,multiplicationStroop,2021.2.3,Win32,59.8372427,,,,,,,,,,,,,,,,,,,,,,,,,,,,,,,,,8,1.4677,1,0,11,11,9,1,2,×,4,2 × 4,congruent,smallerFirst,1,2,8,,,,,,,,
,,,,,,,,,,,,,,,751,2022-01-19_20h12.00.878,multiplicationStroop,2021.2.3,Win32,59.8372427,,,,,,,,,,,,,,,,,,,,,,,,,,,,,,,,,72,1.7168,1,0,12,12,17,1,9,×,8,9 × 8,congruent,largerFirst,2,1,72,,,,,,,,
,,,,,,,,,,,,,,,751,2022-01-19_20h12.00.878,multiplicationStroop,2021.2.3,Win32,59.8372427,,,,,,,,,,,,,,,,,,,,,,,,,,,,,,,,,36,1.8167,1,0,13,13,32,1,6,×,6,6 × 6,neutral,tie,2,1,36,,,,,,,,
,,,,,,,,,,,,,,,751,2022-01-19_20h12.00.878,multiplicationStroop,2021.2.3,Win32,59.8372427,,,,,,,,,,,,,,,,,,,,,,,,,,,,,,,,,56,1.5995,1,0,14,14,8,1,7,×,8,7 × 8,congruent,smallerFirst,1,2,56,,,,,,,,
,,,,,,,,,,,,,,,751,2022-01-19_20h12.00.878,multiplicationStroop,2021.2.3,Win32,59.8372427,,,,,,,,,,,,,,,,,,,,,,,,,,,,,,,,,18,1.4841,1,0,15,15,11,1,3,×,6,3 × 6,congruent,smallerFirst,1,2,18,,,,,,,,
,,,,,,,,,,,,,,,751,2022-01-19_20h12.00.878,multiplicationStroop,2021.2.3,Win32,59.8372427,,,,,,,,,,,,,,,,,,,,,,,,,,,,,,,,,4,1.2827,1,0,16,16,28,1,2,×,2,2 × 2,neutral,tie,2,1,4,,,,,,,,
,,,,,,,,,,,,,,,751,2022-01-19_20h12.00.878,multiplicationStroop,2021.2.3,Win32,59.8372427,,,,,,,,,,,,,,,,,,,,,,,,,,,,,,,,,32,1.4672,1,0,17,17,20,1,8,×,4,8 × 4,congruent,largerFirst,2,1,32,,,,,,,,
,,,,,,,,,,,,,,,751,2022-01-19_20h12.00.878,multiplicationStroop,2021.2.3,Win32,59.8372427,,,,,,,,,,,,,,,,,,,,,,,,,,,,,,,,,12,1.4336,1,0,18,18,2,1,3,×,4,3 × 4,congruent,smallerFirst,1,2,12,,,,,,,,
,,,,,,,,,,,,,,,751,2022-01-19_20h12.00.878,multiplicationStroop,2021.2.3,Win32,59.8372427,,,,,,,,,,,,,,,,,,,,,,,,,,,,,,,,,49,1.7003,1,0,19,19,33,1,7,×,7,7 × 7,neutral,tie,2,1,49,,,,,,,,
,,,,,,,,,,,,,,,751,2022-01-19_20h12.00.878,multiplicationStroop,2021.2.3,Win32,59.8372427,,,,,,,,,,,,,,,,,,,,,,,,,,,,,,,,,35,1.6666,1,0,20,20,1,1,5,×,7,5 × 7,congruent,smallerFirst,1,2,35,,,,,,,,
,,,,,,,,,,,,,,,751,2022-01-19_20h12.00.878,multiplicationStroop,2021.2.3,Win32,59.8372427,,,,,,,,,,,,,,,,,,,,,,,,,,,,,,,,,16,2.1008,1,0,21,21,5,1,2,×,8,2 × 8,congruent,smallerFirst,1,2,16,,,,,,,,
,,,,,,,,,,,,,,,751,2022-01-19_20h12.00.878,multiplicationStroop,2021.2.3,Win32,59.8372427,,,,,,,,,,,,,,,,,,,,,,,,,,,,,,,,,15,1.3835,1,0,22,22,4,1,3,×,5,3 × 5,congruent,smallerFirst,1,2,15,,,,,,,,
,,,,,,,,,,,,,,,751,2022-01-19_20h12.00.878,multiplicationStroop,2021.2.3,Win32,59.8372427,,,,,,,,,,,,,,,,,,,,,,,,,,,,,,,,,36,1.5838,1,0,23,23,0,1,4,×,9,4 × 9,congruent,smallerFirst,1,2,36,,,,,,,,
,,,,,,,,,,,,,,,751,2022-01-19_20h12.00.878,multiplicationStroop,2021.2.3,Win32,59.8372427,,,,,,,,,,,,,,,,,,,,,,,,,,,,,,,,,25,1.5004,1,0,24,24,31,1,5,×,5,5 × 5,neutral,tie,2,1,25,,,,,,,,
,,,,,,,,,,,,,,,751,2022-01-19_20h12.00.878,multiplicationStroop,2021.2.3,Win32,59.8372427,,,,,,,,,,,,,,,,,,,,,,,,,,,,,,,,,64,1.5502,1,0,25,25,34,1,8,×,8,8 × 8,neutral,tie,2,1,64,,,,,,,,
,,,,,,,,,,,,,,,751,2022-01-19_20h12.00.878,multiplicationStroop,2021.2.3,Win32,59.8372427,,,,,,,,,,,,,,,,,,,,,,,,,,,,,,,,,63,2.3341,1,0,26,26,21,1,9,×,7,9 × 7,congruent,largerFirst,2,1,63,,,,,,,,
,,,,,,,,,,,,,,,751,2022-01-19_20h12.00.878,multiplicationStroop,2021.2.3,Win32,59.8372427,,,,,,,,,,,,,,,,,,,,,,,,,,,,,,,,,21,1.5097,1,0,27,27,16,1,7,×,3,7 × 3,congruent,largerFirst,2,1,21,,,,,,,,
,,,,,,,,,,,,,,,751,2022-01-19_20h12.00.878,multiplicationStroop,2021.2.3,Win32,59.8372427,,,,,,,,,,,,,,,,,,,,,,,,,,,,,,,,,24,1.45,1,0,28,28,10,1,3,×,8,3 × 8,congruent,smallerFirst,1,2,24,,,,,,,,
,,,,,,,,,,,,,,,751,2022-01-19_20h12.00.878,multiplicationStroop,2021.2.3,Win32,59.8372427,,,,,,,,,,,,,,,,,,,,,,,,,,,,,,,,,48,1.6498,1,0,29,29,18,1,8,×,6,8 × 6,congruent,largerFirst,2,1,48,,,,,,,,
,,,,,,,,,,,,,,,751,2022-01-19_20h12.00.878,multiplicationStroop,2021.2.3,Win32,59.8372427,,,,,,,,,,,,,,,,,,,,,,,,,,,,,,,,,6,1.4003,1,0,30,30,13,1,2,×,3,2 × 3,congruent,smallerFirst,1,2,6,,,,,,,,
,,,,,,,,,,,,,,,751,2022-01-19_20h12.00.878,multiplicationStroop,2021.2.3,Win32,59.8372427,,,,,,,,,,,,,,,,,,,,,,,,,,,,,,,,,30,1.5173,1,0,31,31,15,1,6,×,5,6 × 5,congruent,largerFirst,2,1,30,,,,,,,,
,,,,,,,,,,,,,,,751,2022-01-19_20h12.00.878,multiplicationStroop,2021.2.3,Win32,59.8372427,,,,,,,,,,,,,,,,,,,,,,,,,,,,,,,,,18,1.4004,1,0,32,32,22,1,9,×,2,9 × 2,congruent,largerFirst,2,1,18,,,,,,,,
,,,,,,,,,,,,,,,751,2022-01-19_20h12.00.878,multiplicationStroop,2021.2.3,Win32,59.8372427,,,,,,,,,,,,,,,,,,,,,,,,,,,,,,,,,16,1.4835,1,0,33,33,30,1,4,×,4,4 × 4,neutral,tie,2,1,16,,,,,,,,
,,,,,,,,,,,,,,,751,2022-01-19_20h12.00.878,multiplicationStroop,2021.2.3,Win32,59.8372427,,,,,,,,,,,,,,,,,,,,,,,,,,,,,,,,,12,1.3662,1,0,34,34,19,1,6,×,2,6 × 2,congruent,largerFirst,2,1,12,,,,,,,,
,,,,,,,,,,,,,,,751,2022-01-19_20h12.00.878,multiplicationStroop,2021.2.3,Win32,59.8372427,,,,,,,,,,,,,,,,,,,,,,,,,,,,,,,,,45,1.5831,1,0,35,35,23,1,9,×,5,9 × 5,congruent,largerFirst,2,1,45,,,,,,,,
,,,,,,,,,,,,,,,751,2022-01-19_20h12.00.878,multiplicationStroop,2021.2.3,Win32,59.8372427,,,,,,,,,,,,,,,,,,,,,,,,,,,,,,,,,,,,,,,,,,,,,,,,,,0,0,0,2,1,stimulusFile/mult_blk3_congruent.xlsx,,
,,,,,,,,,,,,,,,751,2022-01-19_20h12.00.878,multiplicationStroop,2021.2.3,Win32,59.8372427,,,,,,,,,,,,,,,,,,,,,,,,,,,,,,,space,1.4721,28,1.6774,1,0,0,0,16,1,7,×,4,7 × 4,incongruent,largerFirst,1,2,28,,,,,,,,
,,,,,,,,,,,,,,,751,2022-01-19_20h12.00.878,multiplicationStroop,2021.2.3,Win32,59.8372427,,,,,,,,,,,,,,,,,,,,,,,,,,,,,,,,,54,1.629,1,0,1,1,6,1,6,×,9,6 × 9,incongruent,smallerFirst,2,1,54,,,,,,,,
,,,,,,,,,,,,,,,751,2022-01-19_20h12.00.878,multiplicationStroop,2021.2.3,Win32,59.8372427,,,,,,,,,,,,,,,,,,,,,,,,,,,,,,,,,18,1.4844,1,0,2,2,8,1,3,×,6,3 × 6,incongruent,smallerFirst,2,1,18,,,,,,,,
,,,,,,,,,,,,,,,751,2022-01-19_20h12.00.878,multiplicationStroop,2021.2.3,Win32,59.8372427,,,,,,,,,,,,,,,,,,,,,,,,,,,,,,,,,25,1.6159,1,0,3,3,31,1,5,×,5,5 × 5,incongruent,tie,1,2,25,,,,,,,,
,,,,,,,,,,,,,,,751,2022-01-19_20h12.00.878,multiplicationStroop,2021.2.3,Win32,59.8372427,,,,,,,,,,,,,,,,,,,,,,,,,,,,,,,,,81,1.4827,1,0,4,4,35,1,9,×,9,9 × 9,incongruent,tie,1,2,81,,,,,,,,
,,,,,,,,,,,,,,,751,2022-01-19_20h12.00.878,multiplicationStroop,2021.2.3,Win32,59.8372427,,,,,,,,,,,,,,,,,,,,,,,,,,,,,,,,,12,1.3503,1,0,5,5,5,1,3,×,4,3 × 4,incongruent,smallerFirst,2,1,12,,,,,,,,
,,,,,,,,,,,,,,,751,2022-01-19_20h12.00.878,multiplicationStroop,2021.2.3,Win32,59.8372427,,,,,,,,,,,,,,,,,,,,,,,,,,,,,,,,,16,1.5339,1,0,6,6,23,1,8,×,2,8 × 2,incongruent,largerFirst,1,2,16,,,,,,,,
,,,,,,,,,,,,,,,751,2022-01-19_20h12.00.878,multiplicationStroop,2021.2.3,Win32,59.8372427,,,,,,,,,,,,,,,,,,,,,,,,,,,,,,,,,8,1.5671,1,0,7,7,24,1,4,×,2,4 × 2,incongruent,largerFirst,1,2,8,,,,,,,,
,,,,,,,,,,,,,,,751,2022-01-19_20h12.00.878,multiplicationStroop,2021.2.3,Win32,59.8372427,,,,,,,,,,,,,,,,,,,,,,,,,,,,,,,,,45,1.8004,1,0,8,8,22,1,9,×,5,9 × 5,incongruent,largerFirst,1,2,45,,,,,,,,
,,,,,,,,,,,,,,,751,2022-01-19_20h12.00.878,multiplicationStroop,2021.2.3,Win32,59.8372427,,,,,,,,,,,,,,,,,,,,,,,,,,,,,,,,,18,1.3834,1,0,9,9,2,1,2,×,9,2 × 9,incongruent,smallerFirst,2,1,18,,,,,,,,
,,,,,,,,,,,,,,,751,2022-01-19_20h12.00.878,multiplicationStroop,2021.2.3,Win32,59.8372427,,,,,,,,,,,,,,,,,,,,,,,,,,,,,,,,,21,1.3838,1,0,10,10,26,1,7,×,3,7 × 3,incongruent,largerFirst,1,2,21,,,,,,,,
,,,,,,,,,,,,,,,751,2022-01-19_20h12.00.878,multiplicationStroop,2021.2.3,Win32,59.8372427,,,,,,,,,,,,,,,,,,,,,,,,,,,,,,,,,24,2.7176,1,0,11,11,9,1,3,×,8,3 × 8,incongruent,smallerFirst,2,1,24,,,,,,,,
,,,,,,,,,,,,,,,751,2022-01-19_20h12.00.878,multiplicationStroop,2021.2.3,Win32,59.8372427,,,,,,,,,,,,,,,,,,,,,,,,,,,,,,,,,6,1.5668,1,0,12,12,11,1,2,×,3,2 × 3,incongruent,smallerFirst,2,1,6,,,,,,,,
,,,,,,,,,,,,,,,751,2022-01-19_20h12.00.878,multiplicationStroop,2021.2.3,Win32,59.8372427,,,,,,,,,,,,,,,,,,,,,,,,,,,,,,,,,4,1.3837,1,0,13,13,28,1,2,×,2,2 × 2,incongruent,tie,1,2,4,,,,,,,,
,,,,,,,,,,,,,,,751,2022-01-19_20h12.00.878,multiplicationStroop,2021.2.3,Win32,59.8372427,,,,,,,,,,,,,,,,,,,,,,,,,,,,,,,,,30,2.0002,1,0,14,14,25,1,6,×,5,6 × 5,incongruent,largerFirst,1,2,30,,,,,,,,
,,,,,,,,,,,,,,,751,2022-01-19_20h12.00.878,multiplicationStroop,2021.2.3,Win32,59.8372427,,,,,,,,,,,,,,,,,,,,,,,,,,,,,,,,,72,2.1011,1,0,15,15,0,1,8,×,9,8 × 9,incongruent,smallerFirst,2,1,72,,,,,,,,
,,,,,,,,,,,,,,,751,2022-01-19_20h12.00.878,multiplicationStroop,2021.2.3,Win32,59.8372427,,,,,,,,,,,,,,,,,,,,,,,,,,,,,,,,,63,1.8002,1,0,16,16,3,1,7,×,9,7 × 9,incongruent,smallerFirst,2,1,63,,,,,,,,
,,,,,,,,,,,,,,,751,2022-01-19_20h12.00.878,multiplicationStroop,2021.2.3,Win32,59.8372427,,,,,,,,,,,,,,,,,,,,,,,,,,,,,,,,,64,1.4832,1,0,17,17,34,1,8,×,8,8 × 8,incongruent,tie,1,2,64,,,,,,,,
,,,,,,,,,,,,,,,751,2022-01-19_20h12.00.878,multiplicationStroop,2021.2.3,Win32,59.8372427,,,,,,,,,,,,,,,,,,,,,,,,,,,,,,,,,36,2.7831,1,0,18,18,32,1,6,×,6,6 × 6,incongruent,tie,1,2,36,,,,,,,,
,,,,,,,,,,,,,,,751,2022-01-19_20h12.00.878,multiplicationStroop,2021.2.3,Win32,59.8372427,,,,,,,,,,,,,,,,,,,,,,,,,,,,,,,,,56,1.6161,1,0,19,19,14,1,8,×,7,8 × 7,incongruent,largerFirst,1,2,56,,,,,,,,
,,,,,,,,,,,,,,,751,2022-01-19_20h12.00.878,multiplicationStroop,2021.2.3,Win32,59.8372427,,,,,,,,,,,,,,,,,,,,,,,,,,,,,,,,,16,1.6663,1,0,20,20,30,1,4,×,4,4 × 4,incongruent,tie,1,2,16,,,,,,,,
,,,,,,,,,,,,,,,751,2022-01-19_20h12.00.878,multiplicationStroop,2021.2.3,Win32,59.8372427,,,,,,,,,,,,,,,,,,,,,,,,,,,,,,,,,49,1.5843,1,0,21,21,33,1,7,×,7,7 × 7,incongruent,tie,1,2,49,,,,,,,,
,,,,,,,,,,,,,,,751,2022-01-19_20h12.00.878,multiplicationStroop,2021.2.3,Win32,59.8372427,,,,,,,,,,,,,,,,,,,,,,,,,,,,,,,,,48,1.734,1,0,22,22,1,1,6,×,8,6 × 8,incongruent,smallerFirst,2,1,48,,,,,,,,
,,,,,,,,,,,,,,,751,2022-01-19_20h12.00.878,multiplicationStroop,2021.2.3,Win32,59.8372427,,,,,,,,,,,,,,,,,,,,,,,,,,,,,,,,,40,1.5001,1,0,23,23,13,1,5,×,8,5 × 8,incongruent,smallerFirst,2,1,40,,,,,,,,
,,,,,,,,,,,,,,,751,2022-01-19_20h12.00.878,multiplicationStroop,2021.2.3,Win32,59.8372427,,,,,,,,,,,,,,,,,,,,,,,,,,,,,,,,,10,1.467,1,0,24,24,21,1,5,×,2,5 × 2,incongruent,largerFirst,1,2,10,,,,,,,,
,,,,,,,,,,,,,,,751,2022-01-19_20h12.00.878,multiplicationStroop,2021.2.3,Win32,59.8372427,,,,,,,,,,,,,,,,,,,,,,,,,,,,,,,,,27,1.8837,1,0,25,25,18,1,9,×,3,9 × 3,incongruent,largerFirst,1,2,27,,,,,,,,
,,,,,,,,,,,,,,,751,2022-01-19_20h12.00.878,multiplicationStroop,2021.2.3,Win32,59.8372427,,,,,,,,,,,,,,,,,,,,,,,,,,,,,,,,,36,1.616,1,0,26,26,15,1,9,×,4,9 × 4,incongruent,largerFirst,1,2,36,,,,,,,,
,,,,,,,,,,,,,,,751,2022-01-19_20h12.00.878,multiplicationStroop,2021.2.3,Win32,59.8372427,,,,,,,,,,,,,,,,,,,,,,,,,,,,,,,,,32,1.4839,1,0,27,27,7,1,4,×,8,4 × 8,incongruent,smallerFirst,2,1,32,,,,,,,,
,,,,,,,,,,,,,,,751,2022-01-19_20h12.00.878,multiplicationStroop,2021.2.3,Win32,59.8372427,,,,,,,,,,,,,,,,,,,,,,,,,,,,,,,,,14,1.4343,1,0,28,28,4,1,2,×,7,2 × 7,incongruent,smallerFirst,2,1,14,,,,,,,,
,,,,,,,,,,,,,,,751,2022-01-19_20h12.00.878,multiplicationStroop,2021.2.3,Win32,59.8372427,,,,,,,,,,,,,,,,,,,,,,,,,,,,,,,,,20,1.383,1,0,29,29,27,1,5,×,4,5 × 4,incongruent,largerFirst,1,2,20,,,,,,,,
,,,,,,,,,,,,,,,751,2022-01-19_20h12.00.878,multiplicationStroop,2021.2.3,Win32,59.8372427,,,,,,,,,,,,,,,,,,,,,,,,,,,,,,,,,12,1.2169,1,0,30,30,19,1,6,×,2,6 × 2,incongruent,largerFirst,1,2,12,,,,,,,,
,,,,,,,,,,,,,,,751,2022-01-19_20h12.00.878,multiplicationStroop,2021.2.3,Win32,59.8372427,,,,,,,,,,,,,,,,,,,,,,,,,,,,,,,,,35,1.4835,1,0,31,31,12,1,5,×,7,5 × 7,incongruent,smallerFirst,2,1,35,,,,,,,,
,,,,,,,,,,,,,,,751,2022-01-19_20h12.00.878,multiplicationStroop,2021.2.3,Win32,59.8372427,,,,,,,,,,,,,,,,,,,,,,,,,,,,,,,,,9,1.467,1,0,32,32,29,1,3,×,3,3 × 3,incongruent,tie,1,2,9,,,,,,,,
,,,,,,,,,,,,,,,751,2022-01-19_20h12.00.878,multiplicationStroop,2021.2.3,Win32,59.8372427,,,,,,,,,,,,,,,,,,,,,,,,,,,,,,,,,24,1.4334,1,0,33,33,20,1,6,×,4,6 × 4,incongruent,largerFirst,1,2,24,,,,,,,,
,,,,,,,,,,,,,,,751,2022-01-19_20h12.00.878,multiplicationStroop,2021.2.3,Win32,59.8372427,,,,,,,,,,,,,,,,,,,,,,,,,,,,,,,,,42,1.5334,1,0,34,34,17,1,7,×,6,7 × 6,incongruent,largerFirst,1,2,42,,,,,,,,
,,,,,,,,,,,,,,,751,2022-01-19_20h12.00.878,multiplicationStroop,2021.2.3,Win32,59.8372427,,,,,,,,,,,,,,,,,,,,,,,,,,,,,,,,,15,1.4006,1,0,35,35,10,1,3,×,5,3 × 5,incongruent,smallerFirst,2,1,15,,,,,,,,
,,,,,,,,,,,,,,,751,2022-01-19_20h12.00.878,multiplicationStroop,2021.2.3,Win32,59.8372427,,,,,,,,,,,,,,,,,,,,,,,,,,,,,,,,,,,,,,,,,,,,,,,,,,0,1,1,5,1,stimulusFile/mult_blk6_INcongruent.xlsx,,
,,,,,,,,,,,,,,,751,2022-01-19_20h12.00.878,multiplicationStroop,2021.2.3,Win32,59.8372427,,,,,,,,,,,,,,,,,,,,,,,,,,,,,,,space,1.5456,20,1.4715,1,0,0,0,20,1,5,×,4,5 × 4,neutral,largerFirst,1.5,1.5,20,,,,,,,,
,,,,,,,,,,,,,,,751,2022-01-19_20h12.00.878,multiplicationStroop,2021.2.3,Win32,59.8372427,,,,,,,,,,,,,,,,,,,,,,,,,,,,,,,,,36,1.6003,1,0,1,1,32,1,6,×,6,6 × 6,neutral,tie,1.5,1.5,36,,,,,,,,
,,,,,,,,,,,,,,,751,2022-01-19_20h12.00.878,multiplicationStroop,2021.2.3,Win32,59.8372427,,,,,,,,,,,,,,,,,,,,,,,,,,,,,,,,,64,1.6503,1,0,2,2,34,1,8,×,8,8 × 8,neutral,tie,1.5,1.5,64,,,,,,,,
,,,,,,,,,,,,,,,751,2022-01-19_20h12.00.878,multiplicationStroop,2021.2.3,Win32,59.8372427,,,,,,,,,,,,,,,,,,,,,,,,,,,,,,,,,28,1.4501,1,0,3,3,17,1,7,×,4,7 × 4,neutral,largerFirst,1.5,1.5,28,,,,,,,,
,,,,,,,,,,,,,,,751,2022-01-19_20h12.00.878,multiplicationStroop,2021.2.3,Win32,59.8372427,,,,,,,,,,,,,,,,,,,,,,,,,,,,,,,,,42,1.5341,1,0,4,4,6,1,6,×,7,6 × 7,neutral,smallerFirst,1.5,1.5,42,,,,,,,,
,,,,,,,,,,,,,,,751,2022-01-19_20h12.00.878,multiplicationStroop,2021.2.3,Win32,59.8372427,,,,,,,,,,,,,,,,,,,,,,,,,,,,,,,,,32,1.3333,1,0,5,5,23,1,8,×,4,8 × 4,neutral,largerFirst,1.5,1.5,32,,,,,,,,
,,,,,,,,,,,,,,,751,2022-01-19_20h12.00.878,multiplicationStroop,2021.2.3,Win32,59.8372427,,,,,,,,,,,,,,,,,,,,,,,,,,,,,,,,,16,1.4504,1,0,6,6,30,1,4,×,4,4 × 4,neutral,tie,1.5,1.5,16,,,,,,,,
,,,,,,,,,,,,,,,751,2022-01-19_20h12.00.878,multiplicationStroop,2021.2.3,Win32,59.8372427,,,,,,,,,,,,,,,,,,,,,,,,,,,,,,,,,45,1.5173,1,0,7,7,10,1,5,×,9,5 × 9,neutral,smallerFirst,1.5,1.5,45,,,,,,,,
,,,,,,,,,,,,,,,751,2022-01-19_20h12.00.878,multiplicationStroop,2021.2.3,Win32,59.8372427,,,,,,,,,,,,,,,,,,,,,,,,,,,,,,,,,81,1.3159,1,0,8,8,35,1,9,×,9,9 × 9,neutral,tie,1.5,1.5,81,,,,,,,,
,,,,,,,,,,,,,,,751,2022-01-19_20h12.00.878,multiplicationStroop,2021.2.3,Win32,59.8372427,,,,,,,,,,,,,,,,,,,,,,,,,,,,,,,,,14,1.3169,1,0,9,9,16,1,7,×,2,7 × 2,neutral,largerFirst,1.5,1.5,14,,,,,,,,
,,,,,,,,,,,,,,,751,2022-01-19_20h12.00.878,multiplicationStroop,2021.2.3,Win32,59.8372427,,,,,,,,,,,,,,,,,,,,,,,,,,,,,,,,,35,1.4835,1,0,10,10,1,1,5,×,7,5 × 7,neutral,smallerFirst,1.5,1.5,35,,,,,,,,
,,,,,,,,,,,,,,,751,2022-01-19_20h12.00.878,multiplicationStroop,2021.2.3,Win32,59.8372427,,,,,,,,,,,,,,,,,,,,,,,,,,,,,,,,,15,1.5002,1,0,11,11,5,1,3,×,5,3 × 5,neutral,smallerFirst,1.5,1.5,15,,,,,,,,
,,,,,,,,,,,,,,,751,2022-01-19_20h12.00.878,multiplicationStroop,2021.2.3,Win32,59.8372427,,,,,,,,,,,,,,,,,,,,,,,,,,,,,,,,,18,1.3835,1,0,12,12,18,1,9,×,2,9 × 2,neutral,largerFirst,1.5,1.5,18,,,,,,,,
,,,,,,,,,,,,,,,751,2022-01-19_20h12.00.878,multiplicationStroop,2021.2.3,Win32,59.8372427,,,,,,,,,,,,,,,,,,,,,,,,,,,,,,,,,30,1.4,1,0,13,13,19,1,6,×,5,6 × 5,neutral,largerFirst,1.5,1.5,30,,,,,,,,
,,,,,,,,,,,,,,,751,2022-01-19_20h12.00.878,multiplicationStroop,2021.2.3,Win32,59.8372427,,,,,,,,,,,,,,,,,,,,,,,,,,,,,,,,,27,1.684,1,0,14,14,14,1,9,×,3,9 × 3,neutral,largerFirst,1.5,1.5,27,,,,,,,,
,,,,,,,,,,,,,,,751,2022-01-19_20h12.00.878,multiplicationStroop,2021.2.3,Win32,59.8372427,,,,,,,,,,,,,,,,,,,,,,,,,,,,,,,,,49,1.6155,1,0,15,15,33,1,7,×,7,7 × 7,neutral,tie,1.5,1.5,49,,,,,,,,
,,,,,,,,,,,,,,,751,2022-01-19_20h12.00.878,multiplicationStroop,2021.2.3,Win32,59.8372427,,,,,,,,,,,,,,,,,,,,,,,,,,,,,,,,,25,2.0497,1,0,16,16,31,1,5,×,5,5 × 5,neutral,tie,1.5,1.5,25,,,,,,,,
,,,,,,,,,,,,,,,751,2022-01-19_20h12.00.878,multiplicationStroop,2021.2.3,Win32,59.8372427,,,,,,,,,,,,,,,,,,,,,,,,,,,,,,,,,40,1.8506,1,0,17,17,24,1,8,×,5,8 × 5,neutral,largerFirst,1.5,1.5,40,,,,,,,,
,,,,,,,,,,,,,,,751,2022-01-19_20h12.00.878,multiplicationStroop,2021.2.3,Win32,59.8372427,,,,,,,,,,,,,,,,,,,,,,,,,,,,,,,,,21,1.317,1,0,18,18,8,1,3,×,7,3 × 7,neutral,smallerFirst,1.5,1.5,21,,,,,,,,
,,,,,,,,,,,,,,,751,2022-01-19_20h12.00.878,multiplicationStroop,2021.2.3,Win32,59.8372427,,,,,,,,,,,,,,,,,,,,,,,,,,,,,,,,,54,2.3841,1,0,19,19,7,1,6,×,9,6 × 9,neutral,smallerFirst,1.5,1.5,54,,,,,,,,
,,,,,,,,,,,,,,,751,2022-01-19_20h12.00.878,multiplicationStroop,2021.2.3,Win32,59.8372427,,,,,,,,,,,,,,,,,,,,,,,,,,,,,,,,,72,1.9504,1,0,20,20,11,1,8,×,9,8 × 9,neutral,smallerFirst,1.5,1.5,72,,,,,,,,
,,,,,,,,,,,,,,,751,2022-01-19_20h12.00.878,multiplicationStroop,2021.2.3,Win32,59.8372427,,,,,,,,,,,,,,,,,,,,,,,,,,,,,,,,,10,1.3002,1,0,21,21,4,1,2,×,5,2 × 5,neutral,smallerFirst,1.5,1.5,10,,,,,,,,
,,,,,,,,,,,,,,,751,2022-01-19_20h12.00.878,multiplicationStroop,2021.2.3,Win32,59.8372427,,,,,,,,,,,,,,,,,,,,,,,,,,,,,,,,,12,1.1827,1,0,22,22,25,1,6,×,2,6 × 2,neutral,largerFirst,1.5,1.5,12,,,,,,,,
,,,,,,,,,,,,,,,751,2022-01-19_20h12.00.878,multiplicationStroop,2021.2.3,Win32,59.8372427,,,,,,,,,,,,,,,,,,,,,,,,,,,,,,,,,9,1.2492,1,0,23,23,29,1,3,×,3,3 × 3,neutral,tie,1.5,1.5,9,,,,,,,,
,,,,,,,,,,,,,,,751,2022-01-19_20h12.00.878,multiplicationStroop,2021.2.3,Win32,59.8372427,,,,,,,,,,,,,,,,,,,,,,,,,,,,,,,,,16,1.4345,1,0,24,24,13,1,2,×,8,2 × 8,neutral,smallerFirst,1.5,1.5,16,,,,,,,,
,,,,,,,,,,,,,,,751,2022-01-19_20h12.00.878,multiplicationStroop,2021.2.3,Win32,59.8372427,,,,,,,,,,,,,,,,,,,,,,,,,,,,,,,,,6,1.3658,1,0,25,25,26,1,3,×,2,3 × 2,neutral,largerFirst,1.5,1.5,6,,,,,,,,
,,,,,,,,,,,,,,,751,2022-01-19_20h12.00.878,multiplicationStroop,2021.2.3,Win32,59.8372427,,,,,,,,,,,,,,,,,,,,,,,,,,,,,,,,,63,1.9673,1,0,26,26,12,1,7,×,9,7 × 9,neutral,smallerFirst,1.5,1.5,63,,,,,,,,
,,,,,,,,,,,,,,,751,2022-01-19_20h12.00.878,multiplicationStroop,2021.2.3,Win32,59.8372427,,,,,,,,,,,,,,,,,,,,,,,,,,,,,,,,,48,1.766,1,0,27,27,15,1,8,×,6,8 × 6,neutral,largerFirst,1.5,1.5,48,,,,,,,,
,,,,,,,,,,,,,,,751,2022-01-19_20h12.00.878,multiplicationStroop,2021.2.3,Win32,59.8372427,,,,,,,,,,,,,,,,,,,,,,,,,,,,,,,,,8,1.3679,1,0,28,28,3,1,2,×,4,2 × 4,neutral,smallerFirst,1.5,1.5,8,,,,,,,,
,,,,,,,,,,,,,,,751,2022-01-19_20h12.00.878,multiplicationStroop,2021.2.3,Win32,59.8372427,,,,,,,,,,,,,,,,,,,,,,,,,,,,,,,,,56,1.7336,1,0,29,29,9,1,7,×,8,7 × 8,neutral,smallerFirst,1.5,1.5,56,,,,,,,,
,,,,,,,,,,,,,,,751,2022-01-19_20h12.00.878,multiplicationStroop,2021.2.3,Win32,59.8372427,,,,,,,,,,,,,,,,,,,,,,,,,,,,,,,,,4,1.3668,1,0,30,30,28,1,2,×,2,2 × 2,neutral,tie,1.5,1.5,4,,,,,,,,
,,,,,,,,,,,,,,,751,2022-01-19_20h12.00.878,multiplicationStroop,2021.2.3,Win32,59.8372427,,,,,,,,,,,,,,,,,,,,,,,,,,,,,,,,,12,1.2336,1,0,31,31,21,1,4,×,3,4 × 3,neutral,largerFirst,1.5,1.5,12,,,,,,,,
,,,,,,,,,,,,,,,751,2022-01-19_20h12.00.878,multiplicationStroop,2021.2.3,Win32,59.8372427,,,,,,,,,,,,,,,,,,,,,,,,,,,,,,,,,24,1.4999,1,0,32,32,2,1,4,×,6,4 × 6,neutral,smallerFirst,1.5,1.5,24,,,,,,,,
,,,,,,,,,,,,,,,751,2022-01-19_20h12.00.878,multiplicationStroop,2021.2.3,Win32,59.8372427,,,,,,,,,,,,,,,,,,,,,,,,,,,,,,,,,18,1.5173,1,0,33,33,0,1,3,×,6,3 × 6,neutral,smallerFirst,1.5,1.5,18,,,,,,,,
,,,,,,,,,,,,,,,751,2022-01-19_20h12.00.878,multiplicationStroop,2021.2.3,Win32,59.8372427,,,,,,,,,,,,,,,,,,,,,,,,,,,,,,,,,24,1.3998,1,0,34,34,22,1,8,×,3,8 × 3,neutral,largerFirst,1.5,1.5,24,,,,,,,,
,,,,,,,,,,,,,,,751,2022-01-19_20h12.00.878,multiplicationStroop,2021.2.3,Win32,59.8372427,,,,,,,,,,,,,,,,,,,,,,,,,,,,,,,,,36,1.7327,1,0,35,35,27,1,9,×,4,9 × 4,neutral,largerFirst,1.5,1.5,36,,,,,,,,
,,,,,,,,,,,,,,,751,2022-01-19_20h12.00.878,multiplicationStroop,2021.2.3,Win32,59.8372427,,,,,,,,,,,,,,,,,,,,,,,,,,,,,,,,,,,,,,,,,,,,,,,,,,0,2,2,1,1,stimulusFile/mult_blk2.xlsx,,
,,,,,,,,,,,,,,,751,2022-01-19_20h12.00.878,multiplicationStroop,2021.2.3,Win32,59.8372427,,,,,,,,,,,,,,,,,,,,,,,,,,,,,,,space,4.7989,143,1.4484,0,0,0,0,0,1,2,×,7,2 × 7,congruent,smallerFirst,1,2,14,,,,,,,,
,,,,,,,,,,,,,,,751,2022-01-19_20h12.00.878,multiplicationStroop,2021.2.3,Win32,59.8372427,,,,,,,,,,,,,,,,,,,,,,,,,,,,,,,,,64,2.3672,1,0,1,1,34,1,8,×,8,8 × 8,neutral,tie,1,2,64,,,,,,,,
,,,,,,,,,,,,,,,751,2022-01-19_20h12.00.878,multiplicationStroop,2021.2.3,Win32,59.8372427,,,,,,,,,,,,,,,,,,,,,,,,,,,,,,,,,4,1.4003,1,0,2,2,28,1,2,×,2,2 × 2,neutral,tie,1,2,4,,,,,,,,
,,,,,,,,,,,,,,,751,2022-01-19_20h12.00.878,multiplicationStroop,2021.2.3,Win32,59.8372427,,,,,,,,,,,,,,,,,,,,,,,,,,,,,,,,,10,1.3002,1,0,3,3,10,1,2,×,5,2 × 5,congruent,smallerFirst,1,2,10,,,,,,,,
,,,,,,,,,,,,,,,751,2022-01-19_20h12.00.878,multiplicationStroop,2021.2.3,Win32,59.8372427,,,,,,,,,,,,,,,,,,,,,,,,,,,,,,,,,25,1.8839,1,0,4,4,31,1,5,×,5,5 × 5,neutral,tie,1,2,25,,,,,,,,
,,,,,,,,,,,,,,,751,2022-01-19_20h12.00.878,multiplicationStroop,2021.2.3,Win32,59.8372427,,,,,,,,,,,,,,,,,,,,,,,,,,,,,,,,,63,1.9836,1,0,5,5,7,1,7,×,9,7 × 9,congruent,smallerFirst,1,2,63,,,,,,,,
,,,,,,,,,,,,,,,751,2022-01-19_20h12.00.878,multiplicationStroop,2021.2.3,Win32,59.8372427,,,,,,,,,,,,,,,,,,,,,,,,,,,,,,,,,8,2.2004,1,0,6,6,23,1,4,×,2,4 × 2,congruent,largerFirst,2,1,8,,,,,,,,
,,,,,,,,,,,,,,,751,2022-01-19_20h12.00.878,multiplicationStroop,2021.2.3,Win32,59.8372427,,,,,,,,,,,,,,,,,,,,,,,,,,,,,,,,,36,1.6438,1,0,7,7,32,1,6,×,6,6 × 6,neutral,tie,1,2,36,,,,,,,,
,,,,,,,,,,,,,,,751,2022-01-19_20h12.00.878,multiplicationStroop,2021.2.3,Win32,59.8372427,,,,,,,,,,,,,,,,,,,,,,,,,,,,,,,,,12,1.3508,1,0,8,8,16,1,4,×,3,4 × 3,congruent,largerFirst,2,1,12,,,,,,,,
,,,,,,,,,,,,,,,751,2022-01-19_20h12.00.878,multiplicationStroop,2021.2.3,Win32,59.8372427,,,,,,,,,,,,,,,,,,,,,,,,,,,,,,,,,48,1.6821,1,0,9,9,4,1,6,×,8,6 × 8,congruent,smallerFirst,1,2,48,,,,,,,,
,,,,,,,,,,,,,,,751,2022-01-19_20h12.00.878,multiplicationStroop,2021.2.3,Win32,59.8372427,,,,,,,,,,,,,,,,,,,,,,,,,,,,,,,,,32,1.9663,1,0,10,10,6,1,4,×,8,4 × 8,congruent,smallerFirst,1,2,32,,,,,,,,
,,,,,,,,,,,,,,,751,2022-01-19_20h12.00.878,multiplicationStroop,2021.2.3,Win32,59.8372427,,,,,,,,,,,,,,,,,,,,,,,,,,,,,,,,,30,1.5502,1,0,11,11,1,1,5,×,6,5 × 6,congruent,smallerFirst,1,2,30,,,,,,,,
,,,,,,,,,,,,,,,751,2022-01-19_20h12.00.878,multiplicationStroop,2021.2.3,Win32,59.8372427,,,,,,,,,,,,,,,,,,,,,,,,,,,,,,,,,18,1.367,1,0,12,12,8,1,2,×,9,2 × 9,congruent,smallerFirst,1,2,18,,,,,,,,
,,,,,,,,,,,,,,,751,2022-01-19_20h12.00.878,multiplicationStroop,2021.2.3,Win32,59.8372427,,,,,,,,,,,,,,,,,,,,,,,,,,,,,,,,,24,1.567,1,0,13,13,11,1,4,×,6,4 × 6,congruent,smallerFirst,1,2,24,,,,,,,,
,,,,,,,,,,,,,,,751,2022-01-19_20h12.00.878,multiplicationStroop,2021.2.3,Win32,59.8372427,,,,,,,,,,,,,,,,,,,,,,,,,,,,,,,,,49,1.5505,1,0,14,14,33,1,7,×,7,7 × 7,neutral,tie,1,2,49,,,,,,,,
,,,,,,,,,,,,,,,751,2022-01-19_20h12.00.878,multiplicationStroop,2021.2.3,Win32,59.8372427,,,,,,,,,,,,,,,,,,,,,,,,,,,,,,,,,28,1.4828,1,0,15,15,13,1,4,×,7,4 × 7,congruent,smallerFirst,1,2,28,,,,,,,,
,,,,,,,,,,,,,,,751,2022-01-19_20h12.00.878,multiplicationStroop,2021.2.3,Win32,59.8372427,,,,,,,,,,,,,,,,,,,,,,,,,,,,,,,,,42,1.5506,1,0,16,16,17,1,7,×,6,7 × 6,congruent,largerFirst,2,1,42,,,,,,,,
,,,,,,,,,,,,,,,751,2022-01-19_20h12.00.878,multiplicationStroop,2021.2.3,Win32,59.8372427,,,,,,,,,,,,,,,,,,,,,,,,,,,,,,,,,54,1.5675,1,0,17,17,26,1,9,×,6,9 × 6,congruent,largerFirst,2,1,54,,,,,,,,
,,,,,,,,,,,,,,,751,2022-01-19_20h12.00.878,multiplicationStroop,2021.2.3,Win32,59.8372427,,,,,,,,,,,,,,,,,,,,,,,,,,,,,,,,,72,1.8335,1,0,18,18,3,1,8,×,9,8 × 9,congruent,smallerFirst,1,2,72,,,,,,,,
,,,,,,,,,,,,,,,751,2022-01-19_20h12.00.878,multiplicationStroop,2021.2.3,Win32,59.8372427,,,,,,,,,,,,,,,,,,,,,,,,,,,,,,,,,15,1.549,1,0,19,19,18,1,5,×,3,5 × 3,congruent,largerFirst,2,1,15,,,,,,,,
,,,,,,,,,,,,,,,751,2022-01-19_20h12.00.878,multiplicationStroop,2021.2.3,Win32,59.8372427,,,,,,,,,,,,,,,,,,,,,,,,,,,,,,,,,35,2.0182,1,0,20,20,15,1,7,×,5,7 × 5,congruent,largerFirst,2,1,35,,,,,,,,
,,,,,,,,,,,,,,,751,2022-01-19_20h12.00.878,multiplicationStroop,2021.2.3,Win32,59.8372427,,,,,,,,,,,,,,,,,,,,,,,,,,,,,,,,,20,1.3998,1,0,21,21,21,1,5,×,4,5 × 4,congruent,largerFirst,2,1,20,,,,,,,,
,,,,,,,,,,,,,,,751,2022-01-19_20h12.00.878,multiplicationStroop,2021.2.3,Win32,59.8372427,,,,,,,,,,,,,,,,,,,,,,,,,,,,,,,,,12,1.1825,1,0,22,22,5,1,2,×,6,2 × 6,congruent,smallerFirst,1,2,12,,,,,,,,
,,,,,,,,,,,,,,,751,2022-01-19_20h12.00.878,multiplicationStroop,2021.2.3,Win32,59.8372427,,,,,,,,,,,,,,,,,,,,,,,,,,,,,,,,,16,1.8509,1,0,23,23,19,1,8,×,2,8 × 2,congruent,largerFirst,2,1,16,,,,,,,,
,,,,,,,,,,,,,,,751,2022-01-19_20h12.00.878,multiplicationStroop,2021.2.3,Win32,59.8372427,,,,,,,,,,,,,,,,,,,,,,,,,,,,,,,,,6,1.5006,1,0,24,24,27,1,3,×,2,3 × 2,congruent,largerFirst,2,1,6,,,,,,,,
,,,,,,,,,,,,,,,751,2022-01-19_20h12.00.878,multiplicationStroop,2021.2.3,Win32,59.8372427,,,,,,,,,,,,,,,,,,,,,,,,,,,,,,,,,27,1.5672,1,0,25,25,12,1,3,×,9,3 × 9,congruent,smallerFirst,1,2,27,,,,,,,,
,,,,,,,,,,,,,,,751,2022-01-19_20h12.00.878,multiplicationStroop,2021.2.3,Win32,59.8372427,,,,,,,,,,,,,,,,,,,,,,,,,,,,,,,,,40,1.5332,1,0,26,26,20,1,8,×,5,8 × 5,congruent,largerFirst,2,1,40,,,,,,,,
,,,,,,,,,,,,,,,751,2022-01-19_20h12.00.878,multiplicationStroop,2021.2.3,Win32,59.8372427,,,,,,,,,,,,,,,,,,,,,,,,,,,,,,,,,81,1.434,1,0,27,27,35,1,9,×,9,9 × 9,neutral,tie,1,2,81,,,,,,,,
,,,,,,,,,,,,,,,751,2022-01-19_20h12.00.878,multiplicationStroop,2021.2.3,Win32,59.8372427,,,,,,,,,,,,,,,,,,,,,,,,,,,,,,,,,16,1.3831,1,0,28,28,30,1,4,×,4,4 × 4,neutral,tie,1,2,16,,,,,,,,
,,,,,,,,,,,,,,,751,2022-01-19_20h12.00.878,multiplicationStroop,2021.2.3,Win32,59.8372427,,,,,,,,,,,,,,,,,,,,,,,,,,,,,,,,,56,1.6491,1,0,29,29,22,1,8,×,7,8 × 7,congruent,largerFirst,2,1,56,,,,,,,,
,,,,,,,,,,,,,,,751,2022-01-19_20h12.00.878,multiplicationStroop,2021.2.3,Win32,59.8372427,,,,,,,,,,,,,,,,,,,,,,,,,,,,,,,,,24,1.4513,1,0,30,30,24,1,8,×,3,8 × 3,congruent,largerFirst,2,1,24,,,,,,,,
,,,,,,,,,,,,,,,751,2022-01-19_20h12.00.878,multiplicationStroop,2021.2.3,Win32,59.8372427,,,,,,,,,,,,,,,,,,,,,,,,,,,,,,,,,36,1.666,1,0,31,31,14,1,9,×,4,9 × 4,congruent,largerFirst,2,1,36,,,,,,,,
,,,,,,,,,,,,,,,751,2022-01-19_20h12.00.878,multiplicationStroop,2021.2.3,Win32,59.8372427,,,,,,,,,,,,,,,,,,,,,,,,,,,,,,,,,18,1.3833,1,0,32,32,25,1,6,×,3,6 × 3,congruent,largerFirst,2,1,18,,,,,,,,
,,,,,,,,,,,,,,,751,2022-01-19_20h12.00.878,multiplicationStroop,2021.2.3,Win32,59.8372427,,,,,,,,,,,,,,,,,,,,,,,,,,,,,,,,,21,1.2158,1,0,33,33,2,1,3,×,7,3 × 7,congruent,smallerFirst,1,2,21,,,,,,,,
,,,,,,,,,,,,,,,751,2022-01-19_20h12.00.878,multiplicationStroop,2021.2.3,Win32,59.8372427,,,,,,,,,,,,,,,,,,,,,,,,,,,,,,,,,9,1.2672,1,0,34,34,29,1,3,×,3,3 × 3,neutral,tie,1,2,9,,,,,,,,
,,,,,,,,,,,,,,,751,2022-01-19_20h12.00.878,multiplicationStroop,2021.2.3,Win32,59.8372427,,,,,,,,,,,,,,,,,,,,,,,,,,,,,,,,,45,1.6336,1,0,35,35,9,1,5,×,9,5 × 9,congruent,smallerFirst,1,2,45,,,,,,,,
,,,,,,,,,,,,,,,751,2022-01-19_20h12.00.878,multiplicationStroop,2021.2.3,Win32,59.8372427,,,,,,,,,,,,,,,,,,,,,,,,,,,,,,,,,,,,,,,,,,,,,,,,,,0,3,3,3,1,stimulusFile/mult_blk4_congruent.xlsx,,
,,,,,,,,,,,,,,,751,2022-01-19_20h12.00.878,multiplicationStroop,2021.2.3,Win32,59.8372427,,,,,,,,,,,,,,,,,,,,,,,,,,,,,,,space,8.987,72,1.8149,1,0,0,0,14,1,9,×,8,9 × 8,incongruent,largerFirst,1,2,72,,,,,,,,
,,,,,,,,,,,,,,,751,2022-01-19_20h12.00.878,multiplicationStroop,2021.2.3,Win32,59.8372427,,,,,,,,,,,,,,,,,,,,,,,,,,,,,,,,,30,1.3674,1,0,1,1,11,1,5,×,6,5 × 6,incongruent,smallerFirst,2,1,30,,,,,,,,
,,,,,,,,,,,,,,,751,2022-01-19_20h12.00.878,multiplicationStroop,2021.2.3,Win32,59.8372427,,,,,,,,,,,,,,,,,,,,,,,,,,,,,,,,,21,1.2335,1,0,2,2,12,1,3,×,7,3 × 7,incongruent,smallerFirst,2,1,21,,,,,,,,
,,,,,,,,,,,,,,,751,2022-01-19_20h12.00.878,multiplicationStroop,2021.2.3,Win32,59.8372427,,,,,,,,,,,,,,,,,,,,,,,,,,,,,,,,,27,1.5671,1,0,3,3,4,1,3,×,9,3 × 9,incongruent,smallerFirst,2,1,27,,,,,,,,
,,,,,,,,,,,,,,,751,2022-01-19_20h12.00.878,multiplicationStroop,2021.2.3,Win32,59.8372427,,,,,,,,,,,,,,,,,,,,,,,,,,,,,,,,,64,1.6339,1,0,4,4,34,1,8,×,8,8 × 8,neutral,tie,2,1,64,,,,,,,,
,,,,,,,,,,,,,,,751,2022-01-19_20h12.00.878,multiplicationStroop,2021.2.3,Win32,59.8372427,,,,,,,,,,,,,,,,,,,,,,,,,,,,,,,,,25,1.5,1,0,5,5,31,1,5,×,5,5 × 5,neutral,tie,2,1,25,,,,,,,,
,,,,,,,,,,,,,,,751,2022-01-19_20h12.00.878,multiplicationStroop,2021.2.3,Win32,59.8372427,,,,,,,,,,,,,,,,,,,,,,,,,,,,,,,,,24,1.5004,1,0,6,6,23,1,8,×,3,8 × 3,incongruent,largerFirst,1,2,24,,,,,,,,
,,,,,,,,,,,,,,,751,2022-01-19_20h12.00.878,multiplicationStroop,2021.2.3,Win32,59.8372427,,,,,,,,,,,,,,,,,,,,,,,,,,,,,,,,,12,1.3001,1,0,7,7,5,1,2,×,6,2 × 6,incongruent,smallerFirst,2,1,12,,,,,,,,
,,,,,,,,,,,,,,,751,2022-01-19_20h12.00.878,multiplicationStroop,2021.2.3,Win32,59.8372427,,,,,,,,,,,,,,,,,,,,,,,,,,,,,,,,,18,1.4498,1,0,8,8,22,1,6,×,3,6 × 3,incongruent,largerFirst,1,2,18,,,,,,,,
,,,,,,,,,,,,,,,751,2022-01-19_20h12.00.878,multiplicationStroop,2021.2.3,Win32,59.8372427,,,,,,,,,,,,,,,,,,,,,,,,,,,,,,,,,36,1.583,1,0,9,9,32,1,6,×,6,6 × 6,neutral,tie,2,1,36,,,,,,,,
,,,,,,,,,,,,,,,751,2022-01-19_20h12.00.878,multiplicationStroop,2021.2.3,Win32,59.8372427,,,,,,,,,,,,,,,,,,,,,,,,,,,,,,,,,32,1.2673,1,0,10,10,21,1,8,×,4,8 × 4,incongruent,largerFirst,1,2,32,,,,,,,,
,,,,,,,,,,,,,,,751,2022-01-19_20h12.00.878,multiplicationStroop,2021.2.3,Win32,59.8372427,,,,,,,,,,,,,,,,,,,,,,,,,,,,,,,,,49,1.4,1,0,11,11,33,1,7,×,7,7 × 7,neutral,tie,2,1,49,,,,,,,,
,,,,,,,,,,,,,,,751,2022-01-19_20h12.00.878,multiplicationStroop,2021.2.3,Win32,59.8372427,,,,,,,,,,,,,,,,,,,,,,,,,,,,,,,,,15,1.3674,1,0,12,12,24,1,5,×,3,5 × 3,incongruent,largerFirst,1,2,15,,,,,,,,
,,,,,,,,,,,,,,,751,2022-01-19_20h12.00.878,multiplicationStroop,2021.2.3,Win32,59.8372427,,,,,,,,,,,,,,,,,,,,,,,,,,,,,,,,,40,1.3654,1,0,13,13,27,1,8,×,5,8 × 5,incongruent,largerFirst,1,2,40,,,,,,,,
,,,,,,,,,,,,,,,751,2022-01-19_20h12.00.878,multiplicationStroop,2021.2.3,Win32,59.8372427,,,,,,,,,,,,,,,,,,,,,,,,,,,,,,,,,45,1.6673,1,0,14,14,8,1,5,×,9,5 × 9,incongruent,smallerFirst,2,1,45,,,,,,,,
,,,,,,,,,,,,,,,751,2022-01-19_20h12.00.878,multiplicationStroop,2021.2.3,Win32,59.8372427,,,,,,,,,,,,,,,,,,,,,,,,,,,,,,,,,6,1.3504,1,0,15,15,25,1,3,×,2,3 × 2,incongruent,largerFirst,1,2,6,,,,,,,,
,,,,,,,,,,,,,,,751,2022-01-19_20h12.00.878,multiplicationStroop,2021.2.3,Win32,59.8372427,,,,,,,,,,,,,,,,,,,,,,,,,,,,,,,,,20,1.3503,1,0,16,16,13,1,4,×,5,4 × 5,incongruent,smallerFirst,2,1,20,,,,,,,,
,,,,,,,,,,,,,,,751,2022-01-19_20h12.00.878,multiplicationStroop,2021.2.3,Win32,59.8372427,,,,,,,,,,,,,,,,,,,,,,,,,,,,,,,,,14,1.2667,1,0,17,17,18,1,7,×,2,7 × 2,incongruent,largerFirst,1,2,14,,,,,,,,
,,,,,,,,,,,,,,,751,2022-01-19_20h12.00.878,multiplicationStroop,2021.2.3,Win32,59.8372427,,,,,,,,,,,,,,,,,,,,,,,,,,,,,,,,,36,1.6338,1,0,18,18,1,1,4,×,9,4 × 9,incongruent,smallerFirst,2,1,36,,,,,,,,
,,,,,,,,,,,,,,,751,2022-01-19_20h12.00.878,multiplicationStroop,2021.2.3,Win32,59.8372427,,,,,,,,,,,,,,,,,,,,,,,,,,,,,,,,,56,1.6003,1,0,19,19,0,1,7,×,8,7 × 8,incongruent,smallerFirst,2,1,56,,,,,,,,
,,,,,,,,,,,,,,,751,2022-01-19_20h12.00.878,multiplicationStroop,2021.2.3,Win32,59.8372427,,,,,,,,,,,,,,,,,,,,,,,,,,,,,,,,,42,1.5006,1,0,20,20,3,1,6,×,7,6 × 7,incongruent,smallerFirst,2,1,42,,,,,,,,
,,,,,,,,,,,,,,,751,2022-01-19_20h12.00.878,multiplicationStroop,2021.2.3,Win32,59.8372427,,,,,,,,,,,,,,,,,,,,,,,,,,,,,,,,,10,1.2499,1,0,21,21,7,1,2,×,5,2 × 5,incongruent,smallerFirst,2,1,10,,,,,,,,
,,,,,,,,,,,,,,,751,2022-01-19_20h12.00.878,multiplicationStroop,2021.2.3,Win32,59.8372427,,,,,,,,,,,,,,,,,,,,,,,,,,,,,,,,,8,1.4504,1,0,22,22,10,1,2,×,4,2 × 4,incongruent,smallerFirst,2,1,8,,,,,,,,
,,,,,,,,,,,,,,,751,2022-01-19_20h12.00.878,multiplicationStroop,2021.2.3,Win32,59.8372427,,,,,,,,,,,,,,,,,,,,,,,,,,,,,,,,,54,1.7337,1,0,23,23,20,1,9,×,6,9 × 6,incongruent,largerFirst,1,2,54,,,,,,,,
,,,,,,,,,,,,,,,751,2022-01-19_20h12.00.878,multiplicationStroop,2021.2.3,Win32,59.8372427,,,,,,,,,,,,,,,,,,,,,,,,,,,,,,,,,16,1.4509,1,0,24,24,30,1,4,×,4,4 × 4,neutral,tie,2,1,16,,,,,,,,
,,,,,,,,,,,,,,,751,2022-01-19_20h12.00.878,multiplicationStroop,2021.2.3,Win32,59.8372427,,,,,,,,,,,,,,,,,,,,,,,,,,,,,,,,,24,1.7167,1,0,25,25,6,1,4,×,6,4 × 6,incongruent,smallerFirst,2,1,24,,,,,,,,
,,,,,,,,,,,,,,,751,2022-01-19_20h12.00.878,multiplicationStroop,2021.2.3,Win32,59.8372427,,,,,,,,,,,,,,,,,,,,,,,,,,,,,,,,,16,1.4156,1,0,26,26,9,1,2,×,8,2 × 8,incongruent,smallerFirst,2,1,16,,,,,,,,
,,,,,,,,,,,,,,,751,2022-01-19_20h12.00.878,multiplicationStroop,2021.2.3,Win32,59.8372427,,,,,,,,,,,,,,,,,,,,,,,,,,,,,,,,,18,1.2503,1,0,27,27,16,1,9,×,2,9 × 2,incongruent,largerFirst,1,2,18,,,,,,,,
,,,,,,,,,,,,,,,751,2022-01-19_20h12.00.878,multiplicationStroop,2021.2.3,Win32,59.8372427,,,,,,,,,,,,,,,,,,,,,,,,,,,,,,,,,81,1.4842,1,0,28,28,35,1,9,×,9,9 × 9,neutral,tie,2,1,81,,,,,,,,
,,,,,,,,,,,,,,,751,2022-01-19_20h12.00.878,multiplicationStroop,2021.2.3,Win32,59.8372427,,,,,,,,,,,,,,,,,,,,,,,,,,,,,,,,,35,2.1336,1,0,29,29,26,1,7,×,5,7 × 5,incongruent,largerFirst,1,2,35,,,,,,,,
,,,,,,,,,,,,,,,751,2022-01-19_20h12.00.878,multiplicationStroop,2021.2.3,Win32,59.8372427,,,,,,,,,,,,,,,,,,,,,,,,,,,,,,,,,63,1.9007,1,0,30,30,17,1,9,×,7,9 × 7,incongruent,largerFirst,1,2,63,,,,,,,,
,,,,,,,,,,,,,,,751,2022-01-19_20h12.00.878,multiplicationStroop,2021.2.3,Win32,59.8372427,,,,,,,,,,,,,,,,,,,,,,,,,,,,,,,,,48,1.4817,1,0,31,31,15,1,8,×,6,8 × 6,incongruent,largerFirst,1,2,48,,,,,,,,
,,,,,,,,,,,,,,,751,2022-01-19_20h12.00.878,multiplicationStroop,2021.2.3,Win32,59.8372427,,,,,,,,,,,,,,,,,,,,,,,,,,,,,,,,,4,1.2001,1,0,32,32,28,1,2,×,2,2 × 2,neutral,tie,2,1,4,,,,,,,,
,,,,,,,,,,,,,,,751,2022-01-19_20h12.00.878,multiplicationStroop,2021.2.3,Win32,59.8372427,,,,,,,,,,,,,,,,,,,,,,,,,,,,,,,,,28,1.4161,1,0,33,33,2,1,4,×,7,4 × 7,incongruent,smallerFirst,2,1,28,,,,,,,,
,,,,,,,,,,,,,,,751,2022-01-19_20h12.00.878,multiplicationStroop,2021.2.3,Win32,59.8372427,,,,,,,,,,,,,,,,,,,,,,,,,,,,,,,,,12,1.1826,1,0,34,34,19,1,4,×,3,4 × 3,incongruent,largerFirst,1,2,12,,,,,,,,
,,,,,,,,,,,,,,,751,2022-01-19_20h12.00.878,multiplicationStroop,2021.2.3,Win32,59.8372427,,,,,,,,,,,,,,,,,,,,,,,,,,,,,,,,,9,1.301,1,0,35,35,29,1,3,×,3,3 × 3,neutral,tie,2,1,9,,,,,,,,
,,,,,,,,,,,,,,,751,2022-01-19_20h12.00.878,multiplicationStroop,2021.2.3,Win32,59.8372427,,,,,,,,,,,,,,,,,,,,,,,,,,,,,,,,,,,,,,,,,,,,,,,,,,0,4,4,4,1,stimulusFile/mult_blk5_INcongruent.xlsx,,
,,,,,,,,,,,,,,,751,2022-01-19_20h12.00.878,multiplicationStroop,2021.2.3,Win32,59.8372427,,,,,,,,,,,,,,,,,,,,,,,,,,,,,,,space,1.0529,64,1.4591,1,0,0,0,34,1,8,×,8,8 × 8,neutral,tie,1.5,1.5,64,,,,,,,,
,,,,,,,,,,,,,,,751,2022-01-19_20h12.00.878,multiplicationStroop,2021.2.3,Win32,59.8372427,,,,,,,,,,,,,,,,,,,,,,,,,,,,,,,,,6,1.4986,1,0,1,1,12,1,2,×,3,2 × 3,neutral,smallerFirst,1.5,1.5,6,,,,,,,,
,,,,,,,,,,,,,,,751,2022-01-19_20h12.00.878,multiplicationStroop,2021.2.3,Win32,59.8372427,,,,,,,,,,,,,,,,,,,,,,,,,,,,,,,,,16,1.5507,1,0,2,2,27,1,8,×,2,8 × 2,neutral,largerFirst,1.5,1.5,16,,,,,,,,
,,,,,,,,,,,,,,,751,2022-01-19_20h12.00.878,multiplicationStroop,2021.2.3,Win32,59.8372427,,,,,,,,,,,,,,,,,,,,,,,,,,,,,,,,,14,1.433,1,0,3,3,2,1,2,×,7,2 × 7,neutral,smallerFirst,1.5,1.5,14,,,,,,,,
,,,,,,,,,,,,,,,751,2022-01-19_20h12.00.878,multiplicationStroop,2021.2.3,Win32,59.8372427,,,,,,,,,,,,,,,,,,,,,,,,,,,,,,,,,36,1.5665,1,0,4,4,32,1,6,×,6,6 × 6,neutral,tie,1.5,1.5,36,,,,,,,,
,,,,,,,,,,,,,,,751,2022-01-19_20h12.00.878,multiplicationStroop,2021.2.3,Win32,59.8372427,,,,,,,,,,,,,,,,,,,,,,,,,,,,,,,,,30,1.3327,1,0,5,5,5,1,5,×,6,5 × 6,neutral,smallerFirst,1.5,1.5,30,,,,,,,,
,,,,,,,,,,,,,,,751,2022-01-19_20h12.00.878,multiplicationStroop,2021.2.3,Win32,59.8372427,,,,,,,,,,,,,,,,,,,,,,,,,,,,,,,,,12,1.151,1,0,6,6,11,1,2,×,6,2 × 6,neutral,smallerFirst,1.5,1.5,12,,,,,,,,
,,,,,,,,,,,,,,,751,2022-01-19_20h12.00.878,multiplicationStroop,2021.2.3,Win32,59.8372427,,,,,,,,,,,,,,,,,,,,,,,,,,,,,,,,,49,1.4832,1,0,7,7,33,1,7,×,7,7 × 7,neutral,tie,1.5,1.5,49,,,,,,,,
,,,,,,,,,,,,,,,751,2022-01-19_20h12.00.878,multiplicationStroop,2021.2.3,Win32,59.8372427,,,,,,,,,,,,,,,,,,,,,,,,,,,,,,,,,21,2.3011,1,0,8,8,22,1,7,×,3,7 × 3,neutral,largerFirst,1.5,1.5,21,,,,,,,,
,,,,,,,,,,,,,,,751,2022-01-19_20h12.00.878,multiplicationStroop,2021.2.3,Win32,59.8372427,,,,,,,,,,,,,,,,,,,,,,,,,,,,,,,,,9,1.2665,1,0,9,9,29,1,3,×,3,3 × 3,neutral,tie,1.5,1.5,9,,,,,,,,
,,,,,,,,,,,,,,,751,2022-01-19_20h12.00.878,multiplicationStroop,2021.2.3,Win32,59.8372427,,,,,,,,,,,,,,,,,,,,,,,,,,,,,,,,,48,2.1994,1,0,10,10,1,1,6,×,8,6 × 8,neutral,smallerFirst,1.5,1.5,48,,,,,,,,
,,,,,,,,,,,,,,,751,2022-01-19_20h12.00.878,multiplicationStroop,2021.2.3,Win32,59.8372427,,,,,,,,,,,,,,,,,,,,,,,,,,,,,,,,,25,1.6675,1,0,11,11,31,1,5,×,5,5 × 5,neutral,tie,1.5,1.5,25,,,,,,,,
,,,,,,,,,,,,,,,751,2022-01-19_20h12.00.878,multiplicationStroop,2021.2.3,Win32,59.8372427,,,,,,,,,,,,,,,,,,,,,,,,,,,,,,,,,4,1.2662,1,0,12,12,28,1,2,×,2,2 × 2,neutral,tie,1.5,1.5,4,,,,,,,,
,,,,,,,,,,,,,,,751,2022-01-19_20h12.00.878,multiplicationStroop,2021.2.3,Win32,59.8372427,,,,,,,,,,,,,,,,,,,,,,,,,,,,,,,,,56,1.3995,1,0,13,13,23,1,8,×,7,8 × 7,neutral,largerFirst,1.5,1.5,56,,,,,,,,
,,,,,,,,,,,,,,,751,2022-01-19_20h12.00.878,multiplicationStroop,2021.2.3,Win32,59.8372427,,,,,,,,,,,,,,,,,,,,,,,,,,,,,,,,,15,1.4005,1,0,14,14,19,1,5,×,3,5 × 3,neutral,largerFirst,1.5,1.5,15,,,,,,,,
,,,,,,,,,,,,,,,751,2022-01-19_20h12.00.878,multiplicationStroop,2021.2.3,Win32,59.8372427,,,,,,,,,,,,,,,,,,,,,,,,,,,,,,,,,24,1.5336,1,0,15,15,8,1,3,×,8,3 × 8,neutral,smallerFirst,1.5,1.5,24,,,,,,,,
,,,,,,,,,,,,,,,751,2022-01-19_20h12.00.878,multiplicationStroop,2021.2.3,Win32,59.8372427,,,,,,,,,,,,,,,,,,,,,,,,,,,,,,,,,35,1.4669,1,0,16,16,15,1,7,×,5,7 × 5,neutral,largerFirst,1.5,1.5,35,,,,,,,,
,,,,,,,,,,,,,,,751,2022-01-19_20h12.00.878,multiplicationStroop,2021.2.3,Win32,59.8372427,,,,,,,,,,,,,,,,,,,,,,,,,,,,,,,,,40,1.3171,1,0,17,17,10,1,5,×,8,5 × 8,neutral,smallerFirst,1.5,1.5,40,,,,,,,,
,,,,,,,,,,,,,,,751,2022-01-19_20h12.00.878,multiplicationStroop,2021.2.3,Win32,59.8372427,,,,,,,,,,,,,,,,,,,,,,,,,,,,,,,,,32,1.3837,1,0,18,18,9,1,4,×,8,4 × 8,neutral,smallerFirst,1.5,1.5,32,,,,,,,,
,,,,,,,,,,,,,,,751,2022-01-19_20h12.00.878,multiplicationStroop,2021.2.3,Win32,59.8372427,,,,,,,,,,,,,,,,,,,,,,,,,,,,,,,,,20,1.2498,1,0,19,19,6,1,4,×,5,4 × 5,neutral,smallerFirst,1.5,1.5,20,,,,,,,,
,,,,,,,,,,,,,,,751,2022-01-19_20h12.00.878,multiplicationStroop,2021.2.3,Win32,59.8372427,,,,,,,,,,,,,,,,,,,,,,,,,,,,,,,,,16,2.4846,1,0,20,20,30,1,4,×,4,4 × 4,neutral,tie,1.5,1.5,16,,,,,,,,
,,,,,,,,,,,,,,,751,2022-01-19_20h12.00.878,multiplicationStroop,2021.2.3,Win32,59.8372427,,,,,,,,,,,,,,,,,,,,,,,,,,,,,,,,,10,1.165,1,0,21,21,18,1,5,×,2,5 × 2,neutral,largerFirst,1.5,1.5,10,,,,,,,,
,,,,,,,,,,,,,,,751,2022-01-19_20h12.00.878,multiplicationStroop,2021.2.3,Win32,59.8372427,,,,,,,,,,,,,,,,,,,,,,,,,,,,,,,,,8,1.3343,1,0,22,22,17,1,4,×,2,4 × 2,neutral,largerFirst,1.5,1.5,8,,,,,,,,
,,,,,,,,,,,,,,,751,2022-01-19_20h12.00.878,multiplicationStroop,2021.2.3,Win32,59.8372427,,,,,,,,,,,,,,,,,,,,,,,,,,,,,,,,,54,1.7501,1,0,23,23,21,1,9,×,6,9 × 6,neutral,largerFirst,1.5,1.5,54,,,,,,,,
,,,,,,,,,,,,,,,751,2022-01-19_20h12.00.878,multiplicationStroop,2021.2.3,Win32,59.8372427,,,,,,,,,,,,,,,,,,,,,,,,,,,,,,,,,42,1.6831,1,0,24,24,20,1,7,×,6,7 × 6,neutral,largerFirst,1.5,1.5,42,,,,,,,,
,,,,,,,,,,,,,,,751,2022-01-19_20h12.00.878,multiplicationStroop,2021.2.3,Win32,59.8372427,,,,,,,,,,,,,,,,,,,,,,,,,,,,,,,,,24,1.5014,1,0,25,25,16,1,6,×,4,6 × 4,neutral,largerFirst,1.5,1.5,24,,,,,,,,
,,,,,,,,,,,,,,,751,2022-01-19_20h12.00.878,multiplicationStroop,2021.2.3,Win32,59.8372427,,,,,,,,,,,,,,,,,,,,,,,,,,,,,,,,,63,1.9502,1,0,26,26,26,1,9,×,7,9 × 7,neutral,largerFirst,1.5,1.5,63,,,,,,,,
,,,,,,,,,,,,,,,751,2022-01-19_20h12.00.878,multiplicationStroop,2021.2.3,Win32,59.8372427,,,,,,,,,,,,,,,,,,,,,,,,,,,,,,,,,27,1.4998,1,0,27,27,0,1,3,×,9,3 × 9,neutral,smallerFirst,1.5,1.5,27,,,,,,,,
,,,,,,,,,,,,,,,751,2022-01-19_20h12.00.878,multiplicationStroop,2021.2.3,Win32,59.8372427,,,,,,,,,,,,,,,,,,,,,,,,,,,,,,,,,28,1.4657,1,0,28,28,3,1,4,×,7,4 × 7,neutral,smallerFirst,1.5,1.5,28,,,,,,,,
,,,,,,,,,,,,,,,751,2022-01-19_20h12.00.878,multiplicationStroop,2021.2.3,Win32,59.8372427,,,,,,,,,,,,,,,,,,,,,,,,,,,,,,,,,18,1.3342,1,0,29,29,4,1,2,×,9,2 × 9,neutral,smallerFirst,1.5,1.5,18,,,,,,,,
,,,,,,,,,,,,,,,751,2022-01-19_20h12.00.878,multiplicationStroop,2021.2.3,Win32,59.8372427,,,,,,,,,,,,,,,,,,,,,,,,,,,,,,,,,18,1.3335,1,0,30,30,14,1,6,×,3,6 × 3,neutral,largerFirst,1.5,1.5,18,,,,,,,,
,,,,,,,,,,,,,,,751,2022-01-19_20h12.00.878,multiplicationStroop,2021.2.3,Win32,59.8372427,,,,,,,,,,,,,,,,,,,,,,,,,,,,,,,,,72,2.0666,1,0,31,31,25,1,9,×,8,9 × 8,neutral,largerFirst,1.5,1.5,72,,,,,,,,
,,,,,,,,,,,,,,,751,2022-01-19_20h12.00.878,multiplicationStroop,2021.2.3,Win32,59.8372427,,,,,,,,,,,,,,,,,,,,,,,,,,,,,,,,,81,1.3502,1,0,32,32,35,1,9,×,9,9 × 9,neutral,tie,1.5,1.5,81,,,,,,,,
,,,,,,,,,,,,,,,751,2022-01-19_20h12.00.878,multiplicationStroop,2021.2.3,Win32,59.8372427,,,,,,,,,,,,,,,,,,,,,,,,,,,,,,,,,12,1.2827,1,0,33,33,7,1,3,×,4,3 × 4,neutral,smallerFirst,1.5,1.5,12,,,,,,,,
,,,,,,,,,,,,,,,751,2022-01-19_20h12.00.878,multiplicationStroop,2021.2.3,Win32,59.8372427,,,,,,,,,,,,,,,,,,,,,,,,,,,,,,,,,36,1.6674,1,0,34,34,13,1,4,×,9,4 × 9,neutral,smallerFirst,1.5,1.5,36,,,,,,,,
,,,,,,,,,,,,,,,751,2022-01-19_20h12.00.878,multiplicationStroop,2021.2.3,Win32,59.8372427,,,,,,,,,,,,,,,,,,,,,,,,,,,,,,,,,45,1.4668,1,0,35,35,24,1,9,×,5,9 × 5,neutral,largerFirst,1.5,1.5,45,,,,,,,,
,,,,,,,,,,,,,,,751,2022-01-19_20h12.00.878,multiplicationStroop,2021.2.3,Win32,59.8372427,,,,,,,,,,,,,,,,,,,,,,,,,,,,,,,,,,,,,,,,,,,,,,,,,,0,5,5,0,1,stimulusFile/mult_blk1.xlsx,,
,,,,,,,,,,,,,,,751,2022-01-19_20h12.00.878,multiplicationStroop,2021.2.3,Win32,59.8372427,,,,,,,,,,,,,,,,,,,,,,,,,,,,,,,,,,,,,,,,,,,,,,,,,,,,,,,,space,4.1586