welcomeKey_resp.keys,welcomeKey_resp.rt,X Scale,Y Scale,rt_resp_4.keys,rt_resp_4.corr,rt_resp_4.rt,speedtest_2.thisRepN,speedtest_2.thisTrialN,speedtest_2.thisN,speedtest_2.thisIndex,speedtest_2.ran,numberSc,posX,positionLayout,participant,date,expName,psychopyVersion,OS,frameRate,ct_instrresp.keys,ct_instrresp.rt,key_resp_2.keys,key_resp_2.rt,ct_keyResp.keys,ct_keyResp.corr,ct_keyResp.rt,trials.thisRepN,trials.thisTrialN,trials.thisN,trials.thisIndex,trials.ran,leftNo,rightNo,displayProblem,numDistance,leftNo_size,rightNo_size,Dims,keyAnswer,TS_Loop.thisRepN,TS_Loop.thisTrialN,TS_Loop.thisN,TS_Loop.thisIndex,TS_Loop.ran,Condition,ActionInst,instrImage,mltptaskInst_resp.keys,mltptaskInst_resp.rt,continue_resp_2.keys,continue_resp_2.rt,multp_Answer,multi_RT,multiplyCorr,LoopingMultiply.thisRepN,LoopingMultiply.thisTrialN,LoopingMultiply.thisN,LoopingMultiply.thisIndex,LoopingMultiply.ran,factor1,multiplySign,factor2,multliplyProblem,physicalSize,orderOperand,sizeF1,sizeF2,mult_answer,trials_stroop.thisRepN,trials_stroop.thisTrialN,trials_stroop.thisN,trials_stroop.thisIndex,trials_stroop.ran,multiplicationFile,esckey_resp_2.keys,esckey_resp_2.rt
y,6.4361,42,50.4,left,1,1.0426,0,0,0,6,1,8,-200,left,752,2022-01-20_20h01.06.983,multiplicationStroop,2021.2.3,MacIntel,59.99880002,,,,,,,,,,,,,,,,,,,,,,,,,,,,,,,,,,,,,,,,,,,,,,,,,,,,,,,,,
,,,,right,1,0.6303,0,1,1,15,1,9,200,right,752,2022-01-20_20h01.06.983,multiplicationStroop,2021.2.3,MacIntel,59.99880002,,,,,,,,,,,,,,,,,,,,,,,,,,,,,,,,,,,,,,,,,,,,,,,,,,,,,,,,,
,,,,left,1,0.4801,0,2,2,5,1,7,-200,left,752,2022-01-20_20h01.06.983,multiplicationStroop,2021.2.3,MacIntel,59.99880002,,,,,,,,,,,,,,,,,,,,,,,,,,,,,,,,,,,,,,,,,,,,,,,,,,,,,,,,,
,,,,right,1,0.6517,0,3,3,14,1,8,200,right,752,2022-01-20_20h01.06.983,multiplicationStroop,2021.2.3,MacIntel,59.99880002,,,,,,,,,,,,,,,,,,,,,,,,,,,,,,,,,,,,,,,,,,,,,,,,,,,,,,,,,
,,,,left,1,0.454,0,4,4,2,1,3,-200,left,752,2022-01-20_20h01.06.983,multiplicationStroop,2021.2.3,MacIntel,59.99880002,,,,,,,,,,,,,,,,,,,,,,,,,,,,,,,,,,,,,,,,,,,,,,,,,,,,,,,,,
,,,,left,1,0.5027,0,5,5,7,1,9,-200,left,752,2022-01-20_20h01.06.983,multiplicationStroop,2021.2.3,MacIntel,59.99880002,,,,,,,,,,,,,,,,,,,,,,,,,,,,,,,,,,,,,,,,,,,,,,,,,,,,,,,,,
,,,,left,1,0.3297,0,6,6,1,1,2,-200,left,752,2022-01-20_20h01.06.983,multiplicationStroop,2021.2.3,MacIntel,59.99880002,,,,,,,,,,,,,,,,,,,,,,,,,,,,,,,,,,,,,,,,,,,,,,,,,,,,,,,,,
,,,,left,1,0.3121,0,7,7,4,1,6,-200,left,752,2022-01-20_20h01.06.983,multiplicationStroop,2021.2.3,MacIntel,59.99880002,,,,,,,,,,,,,,,,,,,,,,,,,,,,,,,,,,,,,,,,,,,,,,,,,,,,,,,,,
,,,,right,1,0.3375,0,8,8,9,1,2,200,right,752,2022-01-20_20h01.06.983,multiplicationStroop,2021.2.3,MacIntel,59.99880002,,,,,,,,,,,,,,,,,,,,,,,,,,,,,,,,,,,,,,,,,,,,,,,,,,,,,,,,,
,,,,right,1,0.3099,0,9,9,12,1,6,200,right,752,2022-01-20_20h01.06.983,multiplicationStroop,2021.2.3,MacIntel,59.99880002,,,,,,,,,,,,,,,,,,,,,,,,,,,,,,,,,,,,,,,,,,,,,,,,,,,,,,,,,
,,,,right,1,0.2994,0,10,10,8,1,1,200,right,752,2022-01-20_20h01.06.983,multiplicationStroop,2021.2.3,MacIntel,59.99880002,,,,,,,,,,,,,,,,,,,,,,,,,,,,,,,,,,,,,,,,,,,,,,,,,,,,,,,,,
,,,,right,1,0.3103,0,11,11,11,1,4,200,right,752,2022-01-20_20h01.06.983,multiplicationStroop,2021.2.3,MacIntel,59.99880002,,,,,,,,,,,,,,,,,,,,,,,,,,,,,,,,,,,,,,,,,,,,,,,,,,,,,,,,,
,,,,left,1,0.3197,0,12,12,0,1,1,-200,left,752,2022-01-20_20h01.06.983,multiplicationStroop,2021.2.3,MacIntel,59.99880002,,,,,,,,,,,,,,,,,,,,,,,,,,,,,,,,,,,,,,,,,,,,,,,,,,,,,,,,,
,,,,right,1,0.3047,0,13,13,13,1,7,200,right,752,2022-01-20_20h01.06.983,multiplicationStroop,2021.2.3,MacIntel,59.99880002,,,,,,,,,,,,,,,,,,,,,,,,,,,,,,,,,,,,,,,,,,,,,,,,,,,,,,,,,
,,,,left,1,0.3537,0,14,14,3,1,4,-200,left,752,2022-01-20_20h01.06.983,multiplicationStroop,2021.2.3,MacIntel,59.99880002,,,,,,,,,,,,,,,,,,,,,,,,,,,,,,,,,,,,,,,,,,,,,,,,,,,,,,,,,
,,,,right,1,0.303,0,15,15,10,1,3,200,right,752,2022-01-20_20h01.06.983,multiplicationStroop,2021.2.3,MacIntel,59.99880002,,,,,,,,,,,,,,,,,,,,,,,,,,,,,,,,,,,,,,,,,,,,,,,,,,,,,,,,,
,,,,right,1,0.5838,1,0,16,14,1,8,200,right,752,2022-01-20_20h01.06.983,multiplicationStroop,2021.2.3,MacIntel,59.99880002,,,,,,,,,,,,,,,,,,,,,,,,,,,,,,,,,,,,,,,,,,,,,,,,,,,,,,,,,
,,,,right,1,0.4194,1,1,17,15,1,9,200,right,752,2022-01-20_20h01.06.983,multiplicationStroop,2021.2.3,MacIntel,59.99880002,,,,,,,,,,,,,,,,,,,,,,,,,,,,,,,,,,,,,,,,,,,,,,,,,,,,,,,,,
,,,,left,1,0.4078,1,2,18,7,1,9,-200,left,752,2022-01-20_20h01.06.983,multiplicationStroop,2021.2.3,MacIntel,59.99880002,,,,,,,,,,,,,,,,,,,,,,,,,,,,,,,,,,,,,,,,,,,,,,,,,,,,,,,,,
,,,,left,1,0.4021,1,3,19,1,1,2,-200,left,752,2022-01-20_20h01.06.983,multiplicationStroop,2021.2.3,MacIntel,59.99880002,,,,,,,,,,,,,,,,,,,,,,,,,,,,,,,,,,,,,,,,,,,,,,,,,,,,,,,,,
,,,,right,1,0.3839,1,4,20,11,1,4,200,right,752,2022-01-20_20h01.06.983,multiplicationStroop,2021.2.3,MacIntel,59.99880002,,,,,,,,,,,,,,,,,,,,,,,,,,,,,,,,,,,,,,,,,,,,,,,,,,,,,,,,,
,,,,right,1,0.424,1,5,21,13,1,7,200,right,752,2022-01-20_20h01.06.983,multiplicationStroop,2021.2.3,MacIntel,59.99880002,,,,,,,,,,,,,,,,,,,,,,,,,,,,,,,,,,,,,,,,,,,,,,,,,,,,,,,,,
,,,,left,1,0.3826,1,6,22,6,1,8,-200,left,752,2022-01-20_20h01.06.983,multiplicationStroop,2021.2.3,MacIntel,59.99880002,,,,,,,,,,,,,,,,,,,,,,,,,,,,,,,,,,,,,,,,,,,,,,,,,,,,,,,,,
,,,,right,1,0.3014,1,7,23,8,1,1,200,right,752,2022-01-20_20h01.06.983,multiplicationStroop,2021.2.3,MacIntel,59.99880002,,,,,,,,,,,,,,,,,,,,,,,,,,,,,,,,,,,,,,,,,,,,,,,,,,,,,,,,,
,,,,right,1,0.4351,1,8,24,10,1,3,200,right,752,2022-01-20_20h01.06.983,multiplicationStroop,2021.2.3,MacIntel,59.99880002,,,,,,,,,,,,,,,,,,,,,,,,,,,,,,,,,,,,,,,,,,,,,,,,,,,,,,,,,
,,,,right,1,0.3315,1,9,25,12,1,6,200,right,752,2022-01-20_20h01.06.983,multiplicationStroop,2021.2.3,MacIntel,59.99880002,,,,,,,,,,,,,,,,,,,,,,,,,,,,,,,,,,,,,,,,,,,,,,,,,,,,,,,,,
,,,,left,1,0.3381,1,10,26,2,1,3,-200,left,752,2022-01-20_20h01.06.983,multiplicationStroop,2021.2.3,MacIntel,59.99880002,,,,,,,,,,,,,,,,,,,,,,,,,,,,,,,,,,,,,,,,,,,,,,,,,,,,,,,,,
,,,,left,1,0.3991,1,11,27,4,1,6,-200,left,752,2022-01-20_20h01.06.983,multiplicationStroop,2021.2.3,MacIntel,59.99880002,,,,,,,,,,,,,,,,,,,,,,,,,,,,,,,,,,,,,,,,,,,,,,,,,,,,,,,,,
,,,,left,1,0.3439,1,12,28,5,1,7,-200,left,752,2022-01-20_20h01.06.983,multiplicationStroop,2021.2.3,MacIntel,59.99880002,,,,,,,,,,,,,,,,,,,,,,,,,,,,,,,,,,,,,,,,,,,,,,,,,,,,,,,,,
,,,,left,1,0.3033,1,13,29,3,1,4,-200,left,752,2022-01-20_20h01.06.983,multiplicationStroop,2021.2.3,MacIntel,59.99880002,,,,,,,,,,,,,,,,,,,,,,,,,,,,,,,,,,,,,,,,,,,,,,,,,,,,,,,,,
,,,,left,1,0.284,1,14,30,0,1,1,-200,left,752,2022-01-20_20h01.06.983,multiplicationStroop,2021.2.3,MacIntel,59.99880002,,,,,,,,,,,,,,,,,,,,,,,,,,,,,,,,,,,,,,,,,,,,,,,,,,,,,,,,,
,,,,right,1,0.3844,1,15,31,9,1,2,200,right,752,2022-01-20_20h01.06.983,multiplicationStroop,2021.2.3,MacIntel,59.99880002,,,,,,,,,,,,,,,,,,,,,,,,,,,,,,,,,,,,,,,,,,,,,,,,,,,,,,,,,
,,,,left,1,0.3876,2,0,32,3,1,4,-200,left,752,2022-01-20_20h01.06.983,multiplicationStroop,2021.2.3,MacIntel,59.99880002,,,,,,,,,,,,,,,,,,,,,,,,,,,,,,,,,,,,,,,,,,,,,,,,,,,,,,,,,
,,,,right,1,0.2847,2,1,33,14,1,8,200,right,752,2022-01-20_20h01.06.983,multiplicationStroop,2021.2.3,MacIntel,59.99880002,,,,,,,,,,,,,,,,,,,,,,,,,,,,,,,,,,,,,,,,,,,,,,,,,,,,,,,,,
,,,,right,1,0.3838,2,2,34,12,1,6,200,right,752,2022-01-20_20h01.06.983,multiplicationStroop,2021.2.3,MacIntel,59.99880002,,,,,,,,,,,,,,,,,,,,,,,,,,,,,,,,,,,,,,,,,,,,,,,,,,,,,,,,,
,,,,left,1,0.3837,2,3,35,5,1,7,-200,left,752,2022-01-20_20h01.06.983,multiplicationStroop,2021.2.3,MacIntel,59.99880002,,,,,,,,,,,,,,,,,,,,,,,,,,,,,,,,,,,,,,,,,,,,,,,,,,,,,,,,,
,,,,left,1,0.3245,2,4,36,7,1,9,-200,left,752,2022-01-20_20h01.06.983,multiplicationStroop,2021.2.3,MacIntel,59.99880002,,,,,,,,,,,,,,,,,,,,,,,,,,,,,,,,,,,,,,,,,,,,,,,,,,,,,,,,,
,,,,right,1,0.321,2,5,37,11,1,4,200,right,752,2022-01-20_20h01.06.983,multiplicationStroop,2021.2.3,MacIntel,59.99880002,,,,,,,,,,,,,,,,,,,,,,,,,,,,,,,,,,,,,,,,,,,,,,,,,,,,,,,,,
,,,,right,1,0.334,2,6,38,9,1,2,200,right,752,2022-01-20_20h01.06.983,multiplicationStroop,2021.2.3,MacIntel,59.99880002,,,,,,,,,,,,,,,,,,,,,,,,,,,,,,,,,,,,,,,,,,,,,,,,,,,,,,,,,
,,,,right,1,0.3027,2,7,39,13,1,7,200,right,752,2022-01-20_20h01.06.983,multiplicationStroop,2021.2.3,MacIntel,59.99880002,,,,,,,,,,,,,,,,,,,,,,,,,,,,,,,,,,,,,,,,,,,,,,,,,,,,,,,,,
,,,,left,1,0.3097,2,8,40,2,1,3,-200,left,752,2022-01-20_20h01.06.983,multiplicationStroop,2021.2.3,MacIntel,59.99880002,,,,,,,,,,,,,,,,,,,,,,,,,,,,,,,,,,,,,,,,,,,,,,,,,,,,,,,,,
,,,,left,1,0.3081,2,9,41,4,1,6,-200,left,752,2022-01-20_20h01.06.983,multiplicationStroop,2021.2.3,MacIntel,59.99880002,,,,,,,,,,,,,,,,,,,,,,,,,,,,,,,,,,,,,,,,,,,,,,,,,,,,,,,,,
,,,,left,1,0.2886,2,10,42,6,1,8,-200,left,752,2022-01-20_20h01.06.983,multiplicationStroop,2021.2.3,MacIntel,59.99880002,,,,,,,,,,,,,,,,,,,,,,,,,,,,,,,,,,,,,,,,,,,,,,,,,,,,,,,,,
,,,,right,1,0.3242,2,11,43,8,1,1,200,right,752,2022-01-20_20h01.06.983,multiplicationStroop,2021.2.3,MacIntel,59.99880002,,,,,,,,,,,,,,,,,,,,,,,,,,,,,,,,,,,,,,,,,,,,,,,,,,,,,,,,,
,,,,right,1,0.3252,2,12,44,10,1,3,200,right,752,2022-01-20_20h01.06.983,multiplicationStroop,2021.2.3,MacIntel,59.99880002,,,,,,,,,,,,,,,,,,,,,,,,,,,,,,,,,,,,,,,,,,,,,,,,,,,,,,,,,
,,,,left,1,0.3751,2,13,45,1,1,2,-200,left,752,2022-01-20_20h01.06.983,multiplicationStroop,2021.2.3,MacIntel,59.99880002,,,,,,,,,,,,,,,,,,,,,,,,,,,,,,,,,,,,,,,,,,,,,,,,,,,,,,,,,
,,,,left,1,0.3565,2,14,46,0,1,1,-200,left,752,2022-01-20_20h01.06.983,multiplicationStroop,2021.2.3,MacIntel,59.99880002,,,,,,,,,,,,,,,,,,,,,,,,,,,,,,,,,,,,,,,,,,,,,,,,,,,,,,,,,
,,,,right,1,0.3487,2,15,47,15,1,9,200,right,752,2022-01-20_20h01.06.983,multiplicationStroop,2021.2.3,MacIntel,59.99880002,,,,,,,,,,,,,,,,,,,,,,,,,,,,,,,,,,,,,,,,,,,,,,,,,,,,,,,,,
,,,,left,1,0.3175,3,0,48,0,1,1,-200,left,752,2022-01-20_20h01.06.983,multiplicationStroop,2021.2.3,MacIntel,59.99880002,,,,,,,,,,,,,,,,,,,,,,,,,,,,,,,,,,,,,,,,,,,,,,,,,,,,,,,,,
,,,,right,1,0.2573,3,1,49,14,1,8,200,right,752,2022-01-20_20h01.06.983,multiplicationStroop,2021.2.3,MacIntel,59.99880002,,,,,,,,,,,,,,,,,,,,,,,,,,,,,,,,,,,,,,,,,,,,,,,,,,,,,,,,,
,,,,left,1,0.2587,3,2,50,7,1,9,-200,left,752,2022-01-20_20h01.06.983,multiplicationStroop,2021.2.3,MacIntel,59.99880002,,,,,,,,,,,,,,,,,,,,,,,,,,,,,,,,,,,,,,,,,,,,,,,,,,,,,,,,,
,,,,right,1,0.2524,3,3,51,13,1,7,200,right,752,2022-01-20_20h01.06.983,multiplicationStroop,2021.2.3,MacIntel,59.99880002,,,,,,,,,,,,,,,,,,,,,,,,,,,,,,,,,,,,,,,,,,,,,,,,,,,,,,,,,
,,,,left,0,0.2526,3,4,52,15,1,9,200,right,752,2022-01-20_20h01.06.983,multiplicationStroop,2021.2.3,MacIntel,59.99880002,,,,,,,,,,,,,,,,,,,,,,,,,,,,,,,,,,,,,,,,,,,,,,,,,,,,,,,,,
,,,,left,1,0.7031,3,5,53,1,1,2,-200,left,752,2022-01-20_20h01.06.983,multiplicationStroop,2021.2.3,MacIntel,59.99880002,,,,,,,,,,,,,,,,,,,,,,,,,,,,,,,,,,,,,,,,,,,,,,,,,,,,,,,,,
,,,,left,1,0.5736,3,6,54,2,1,3,-200,left,752,2022-01-20_20h01.06.983,multiplicationStroop,2021.2.3,MacIntel,59.99880002,,,,,,,,,,,,,,,,,,,,,,,,,,,,,,,,,,,,,,,,,,,,,,,,,,,,,,,,,
,,,,right,1,0.4545,3,7,55,10,1,3,200,right,752,2022-01-20_20h01.06.983,multiplicationStroop,2021.2.3,MacIntel,59.99880002,,,,,,,,,,,,,,,,,,,,,,,,,,,,,,,,,,,,,,,,,,,,,,,,,,,,,,,,,
,,,,right,1,0.3053,3,8,56,8,1,1,200,right,752,2022-01-20_20h01.06.983,multiplicationStroop,2021.2.3,MacIntel,59.99880002,,,,,,,,,,,,,,,,,,,,,,,,,,,,,,,,,,,,,,,,,,,,,,,,,,,,,,,,,
,,,,right,1,0.3073,3,9,57,12,1,6,200,right,752,2022-01-20_20h01.06.983,multiplicationStroop,2021.2.3,MacIntel,59.99880002,,,,,,,,,,,,,,,,,,,,,,,,,,,,,,,,,,,,,,,,,,,,,,,,,,,,,,,,,
,,,,left,1,0.3326,3,10,58,5,1,7,-200,left,752,2022-01-20_20h01.06.983,multiplicationStroop,2021.2.3,MacIntel,59.99880002,,,,,,,,,,,,,,,,,,,,,,,,,,,,,,,,,,,,,,,,,,,,,,,,,,,,,,,,,
,,,,left,1,0.2677,3,11,59,4,1,6,-200,left,752,2022-01-20_20h01.06.983,multiplicationStroop,2021.2.3,MacIntel,59.99880002,,,,,,,,,,,,,,,,,,,,,,,,,,,,,,,,,,,,,,,,,,,,,,,,,,,,,,,,,
,,,,left,1,0.284,3,12,60,3,1,4,-200,left,752,2022-01-20_20h01.06.983,multiplicationStroop,2021.2.3,MacIntel,59.99880002,,,,,,,,,,,,,,,,,,,,,,,,,,,,,,,,,,,,,,,,,,,,,,,,,,,,,,,,,
,,,,left,1,0.2834,3,13,61,6,1,8,-200,left,752,2022-01-20_20h01.06.983,multiplicationStroop,2021.2.3,MacIntel,59.99880002,,,,,,,,,,,,,,,,,,,,,,,,,,,,,,,,,,,,,,,,,,,,,,,,,,,,,,,,,
,,,,right,1,0.3363,3,14,62,9,1,2,200,right,752,2022-01-20_20h01.06.983,multiplicationStroop,2021.2.3,MacIntel,59.99880002,,,,,,,,,,,,,,,,,,,,,,,,,,,,,,,,,,,,,,,,,,,,,,,,,,,,,,,,,
,,,,right,1,0.284,3,15,63,11,1,4,200,right,752,2022-01-20_20h01.06.983,multiplicationStroop,2021.2.3,MacIntel,59.99880002,,,,,,,,,,,,,,,,,,,,,,,,,,,,,,,,,,,,,,,,,,,,,,,,,,,,,,,,,
,,,,,,,,,,,,,,,752,2022-01-20_20h01.06.983,multiplicationStroop,2021.2.3,MacIntel,59.99880002,space,9.0043,space,6.542,right,1,1.1709,0,0,0,33,1,2,4,2 | 4,2,1.9756,1.4111,incongruent,right,,,,,,stimulusFile/magnitude.xlsx,,,,,,,,,,,,,,,,,,,,,,,,,,,,,,,
,,,,,,,,,,,,,,,752,2022-01-20_20h01.06.983,multiplicationStroop,2021.2.3,MacIntel,59.99880002,,,,,right,1,0.5789,0,1,1,56,1,1,3,1 | 3,2,1.6933,1.6933,neutral,right,,,,,,stimulusFile/magnitude.xlsx,,,,,,,,,,,,,,,,,,,,,,,,,,,,,,,
,,,,,,,,,,,,,,,752,2022-01-20_20h01.06.983,multiplicationStroop,2021.2.3,MacIntel,59.99880002,,,,,right,1,0.6155,0,2,2,67,1,4,9,4 | 9,5,1.6933,1.6933,neutral,right,,,,,,stimulusFile/magnitude.xlsx,,,,,,,,,,,,,,,,,,,,,,,,,,,,,,,
,,,,,,,,,,,,,,,752,2022-01-20_20h01.06.983,multiplicationStroop,2021.2.3,MacIntel,59.99880002,,,,,right,1,0.6566,0,3,3,50,1,6,7,6 | 7,1,1.6933,1.6933,neutral,right,,,,,,stimulusFile/magnitude.xlsx,,,,,,,,,,,,,,,,,,,,,,,,,,,,,,,
,,,,,,,,,,,,,,,752,2022-01-20_20h01.06.983,multiplicationStroop,2021.2.3,MacIntel,59.99880002,,,,,left,1,0.6492,0,4,4,54,1,7,6,7 | 6,1,1.6933,1.6933,neutral,left,,,,,,stimulusFile/magnitude.xlsx,,,,,,,,,,,,,,,,,,,,,,,,,,,,,,,
,,,,,,,,,,,,,,,752,2022-01-20_20h01.06.983,multiplicationStroop,2021.2.3,MacIntel,59.99880002,,,,,left,1,0.5693,0,5,5,45,1,7,2,7 | 2,5,1.4111,1.9756,incongruent,left,,,,,,stimulusFile/magnitude.xlsx,,,,,,,,,,,,,,,,,,,,,,,,,,,,,,,
,,,,,,,,,,,,,,,752,2022-01-20_20h01.06.983,multiplicationStroop,2021.2.3,MacIntel,59.99880002,,,,,right,1,0.583,0,6,6,64,1,1,6,1 | 6,5,1.6933,1.6933,neutral,right,,,,,,stimulusFile/magnitude.xlsx,,,,,,,,,,,,,,,,,,,,,,,,,,,,,,,
,,,,,,,,,,,,,,,752,2022-01-20_20h01.06.983,multiplicationStroop,2021.2.3,MacIntel,59.99880002,,,,,left,1,0.5488,0,7,7,29,1,4,3,4 | 3,1,1.4111,1.9756,incongruent,left,,,,,,stimulusFile/magnitude.xlsx,,,,,,,,,,,,,,,,,,,,,,,,,,,,,,,
,,,,,,,,,,,,,,,752,2022-01-20_20h01.06.983,multiplicationStroop,2021.2.3,MacIntel,59.99880002,,,,,left,1,0.6982,0,8,8,38,1,8,6,8 | 6,2,1.4111,1.9756,incongruent,left,,,,,,stimulusFile/magnitude.xlsx,,,,,,,,,,,,,,,,,,,,,,,,,,,,,,,
,,,,,,,,,,,,,,,752,2022-01-20_20h01.06.983,multiplicationStroop,2021.2.3,MacIntel,59.99880002,,,,,left,1,0.6153,0,9,9,37,1,4,2,4 | 2,2,1.4111,1.9756,incongruent,left,,,,,,stimulusFile/magnitude.xlsx,,,,,,,,,,,,,,,,,,,,,,,,,,,,,,,
,,,,,,,,,,,,,,,752,2022-01-20_20h01.06.983,multiplicationStroop,2021.2.3,MacIntel,59.99880002,,,,,left,1,0.928,0,10,10,53,1,4,3,4 | 3,1,1.6933,1.6933,neutral,left,,,,,,stimulusFile/magnitude.xlsx,,,,,,,,,,,,,,,,,,,,,,,,,,,,,,,
,,,,,,,,,,,,,,,752,2022-01-20_20h01.06.983,multiplicationStroop,2021.2.3,MacIntel,59.99880002,,,,,right,1,0.5462,0,11,11,66,1,3,8,3 | 8,5,1.6933,1.6933,neutral,right,,,,,,stimulusFile/magnitude.xlsx,,,,,,,,,,,,,,,,,,,,,,,,,,,,,,,
,,,,,,,,,,,,,,,752,2022-01-20_20h01.06.983,multiplicationStroop,2021.2.3,MacIntel,59.99880002,,,,,right,1,0.5182,0,12,12,17,1,2,7,2 | 7,5,1.4111,1.9756,congruent,right,,,,,,stimulusFile/magnitude.xlsx,,,,,,,,,,,,,,,,,,,,,,,,,,,,,,,
,,,,,,,,,,,,,,,752,2022-01-20_20h01.06.983,multiplicationStroop,2021.2.3,MacIntel,59.99880002,,,,,left,0,0.7973,0,13,13,25,1,3,4,3 | 4,1,1.9756,1.4111,incongruent,right,,,,,,stimulusFile/magnitude.xlsx,,,,,,,,,,,,,,,,,,,,,,,,,,,,,,,
,,,,,,,,,,,,,,,752,2022-01-20_20h01.06.983,multiplicationStroop,2021.2.3,MacIntel,59.99880002,,,,,left,1,0.8983,0,14,14,44,1,6,1,6 | 1,5,1.4111,1.9756,incongruent,left,,,,,,stimulusFile/magnitude.xlsx,,,,,,,,,,,,,,,,,,,,,,,,,,,,,,,
,,,,,,,,,,,,,,,752,2022-01-20_20h01.06.983,multiplicationStroop,2021.2.3,MacIntel,59.99880002,,,,,right,1,0.5976,0,15,15,43,1,4,9,4 | 9,5,1.9756,1.4111,incongruent,right,,,,,,stimulusFile/magnitude.xlsx,,,,,,,,,,,,,,,,,,,,,,,,,,,,,,,
,,,,,,,,,,,,,,,752,2022-01-20_20h01.06.983,multiplicationStroop,2021.2.3,MacIntel,59.99880002,,,,,left,1,0.7035,0,16,16,30,1,7,6,7 | 6,1,1.4111,1.9756,incongruent,left,,,,,,stimulusFile/magnitude.xlsx,,,,,,,,,,,,,,,,,,,,,,,,,,,,,,,
,,,,,,,,,,,,,,,752,2022-01-20_20h01.06.983,multiplicationStroop,2021.2.3,MacIntel,59.99880002,,,,,left,1,0.6537,0,17,17,28,1,2,1,2 | 1,1,1.4111,1.9756,incongruent,left,,,,,,stimulusFile/magnitude.xlsx,,,,,,,,,,,,,,,,,,,,,,,,,,,,,,,
,,,,,,,,,,,,,,,752,2022-01-20_20h01.06.983,multiplicationStroop,2021.2.3,MacIntel,59.99880002,,,,,left,1,0.5147,0,18,18,4,1,2,1,2 | 1,1,1.9756,1.4111,congruent,left,,,,,,stimulusFile/magnitude.xlsx,,,,,,,,,,,,,,,,,,,,,,,,,,,,,,,
,,,,,,,,,,,,,,,752,2022-01-20_20h01.06.983,multiplicationStroop,2021.2.3,MacIntel,59.99880002,,,,,left,1,0.8221,0,19,19,47,1,9,4,9 | 4,5,1.4111,1.9756,incongruent,left,,,,,,stimulusFile/magnitude.xlsx,,,,,,,,,,,,,,,,,,,,,,,,,,,,,,,
,,,,,,,,,,,,,,,752,2022-01-20_20h01.06.983,multiplicationStroop,2021.2.3,MacIntel,59.99880002,,,,,right,1,0.6659,0,20,20,27,1,8,9,8 | 9,1,1.9756,1.4111,incongruent,right,,,,,,stimulusFile/magnitude.xlsx,,,,,,,,,,,,,,,,,,,,,,,,,,,,,,,
,,,,,,,,,,,,,,,752,2022-01-20_20h01.06.983,multiplicationStroop,2021.2.3,MacIntel,59.99880002,,,,,right,1,0.6994,0,21,21,26,1,6,7,6 | 7,1,1.9756,1.4111,incongruent,right,,,,,,stimulusFile/magnitude.xlsx,,,,,,,,,,,,,,,,,,,,,,,,,,,,,,,
,,,,,,,,,,,,,,,752,2022-01-20_20h01.06.983,multiplicationStroop,2021.2.3,MacIntel,59.99880002,,,,,right,1,0.5645,0,22,22,19,1,4,9,4 | 9,5,1.4111,1.9756,congruent,right,,,,,,stimulusFile/magnitude.xlsx,,,,,,,,,,,,,,,,,,,,,,,,,,,,,,,
,,,,,,,,,,,,,,,752,2022-01-20_20h01.06.983,multiplicationStroop,2021.2.3,MacIntel,59.99880002,,,,,left,1,0.7915,0,23,23,31,1,9,8,9 | 8,1,1.4111,1.9756,incongruent,left,,,,,,stimulusFile/magnitude.xlsx,,,,,,,,,,,,,,,,,,,,,,,,,,,,,,,
,,,,,,,,,,,,,,,752,2022-01-20_20h01.06.983,multiplicationStroop,2021.2.3,MacIntel,59.99880002,,,,,right,1,0.719,0,24,24,3,1,8,9,8 | 9,1,1.4111,1.9756,congruent,right,,,,,,stimulusFile/magnitude.xlsx,,,,,,,,,,,,,,,,,,,,,,,,,,,,,,,
,,,,,,,,,,,,,,,752,2022-01-20_20h01.06.983,multiplicationStroop,2021.2.3,MacIntel,59.99880002,,,,,right,1,0.5909,0,25,25,11,1,7,9,7 | 9,2,1.4111,1.9756,congruent,right,,,,,,stimulusFile/magnitude.xlsx,,,,,,,,,,,,,,,,,,,,,,,,,,,,,,,
,,,,,,,,,,,,,,,752,2022-01-20_20h01.06.983,multiplicationStroop,2021.2.3,MacIntel,59.99880002,,,,,right,1,0.6118,0,26,26,51,1,8,9,8 | 9,1,1.6933,1.6933,neutral,right,,,,,,stimulusFile/magnitude.xlsx,,,,,,,,,,,,,,,,,,,,,,,,,,,,,,,
,,,,,,,,,,,,,,,752,2022-01-20_20h01.06.983,multiplicationStroop,2021.2.3,MacIntel,59.99880002,,,,,left,1,0.6545,0,27,27,20,1,6,1,6 | 1,5,1.9756,1.4111,congruent,left,,,,,,stimulusFile/magnitude.xlsx,,,,,,,,,,,,,,,,,,,,,,,,,,,,,,,
,,,,,,,,,,,,,,,752,2022-01-20_20h01.06.983,multiplicationStroop,2021.2.3,MacIntel,59.99880002,,,,,left,1,0.6062,0,28,28,60,1,3,1,3 | 1,2,1.6933,1.6933,neutral,left,,,,,,stimulusFile/magnitude.xlsx,,,,,,,,,,,,,,,,,,,,,,,,,,,,,,,
,,,,,,,,,,,,,,,752,2022-01-20_20h01.06.983,multiplicationStroop,2021.2.3,MacIntel,59.99880002,,,,,left,1,0.5723,0,29,29,21,1,7,2,7 | 2,5,1.9756,1.4111,congruent,left,,,,,,stimulusFile/magnitude.xlsx,,,,,,,,,,,,,,,,,,,,,,,,,,,,,,,
,,,,,,,,,,,,,,,752,2022-01-20_20h01.06.983,multiplicationStroop,2021.2.3,MacIntel,59.99880002,,,,,right,1,0.502,0,30,30,16,1,1,6,1 | 6,5,1.4111,1.9756,congruent,right,,,,,,stimulusFile/magnitude.xlsx,,,,,,,,,,,,,,,,,,,,,,,,,,,,,,,
,,,,,,,,,,,,,,,752,2022-01-20_20h01.06.983,multiplicationStroop,2021.2.3,MacIntel,59.99880002,,,,,right,1,0.4989,0,31,31,40,1,1,6,1 | 6,5,1.9756,1.4111,incongruent,right,,,,,,stimulusFile/magnitude.xlsx,,,,,,,,,,,,,,,,,,,,,,,,,,,,,,,
,,,,,,,,,,,,,,,752,2022-01-20_20h01.06.983,multiplicationStroop,2021.2.3,MacIntel,59.99880002,,,,,left,1,0.5076,0,32,32,13,1,4,2,4 | 2,2,1.9756,1.4111,congruent,left,,,,,,stimulusFile/magnitude.xlsx,,,,,,,,,,,,,,,,,,,,,,,,,,,,,,,
,,,,,,,,,,,,,,,752,2022-01-20_20h01.06.983,multiplicationStroop,2021.2.3,MacIntel,59.99880002,,,,,right,1,0.5775,0,33,33,24,1,1,2,1 | 2,1,1.9756,1.4111,incongruent,right,,,,,,stimulusFile/magnitude.xlsx,,,,,,,,,,,,,,,,,,,,,,,,,,,,,,,
,,,,,,,,,,,,,,,752,2022-01-20_20h01.06.983,multiplicationStroop,2021.2.3,MacIntel,59.99880002,,,,,right,1,0.5897,0,34,34,42,1,3,8,3 | 8,5,1.9756,1.4111,incongruent,right,,,,,,stimulusFile/magnitude.xlsx,,,,,,,,,,,,,,,,,,,,,,,,,,,,,,,
,,,,,,,,,,,,,,,752,2022-01-20_20h01.06.983,multiplicationStroop,2021.2.3,MacIntel,59.99880002,,,,,right,1,0.6137,0,35,35,59,1,7,9,7 | 9,2,1.6933,1.6933,neutral,right,,,,,,stimulusFile/magnitude.xlsx,,,,,,,,,,,,,,,,,,,,,,,,,,,,,,,
,,,,,,,,,,,,,,,752,2022-01-20_20h01.06.983,multiplicationStroop,2021.2.3,MacIntel,59.99880002,,,,,left,1,0.5925,0,36,36,70,1,8,3,8 | 3,5,1.6933,1.6933,neutral,left,,,,,,stimulusFile/magnitude.xlsx,,,,,,,,,,,,,,,,,,,,,,,,,,,,,,,
,,,,,,,,,,,,,,,752,2022-01-20_20h01.06.983,multiplicationStroop,2021.2.3,MacIntel,59.99880002,,,,,right,1,0.5735,0,37,37,41,1,2,7,2 | 7,5,1.9756,1.4111,incongruent,right,,,,,,stimulusFile/magnitude.xlsx,,,,,,,,,,,,,,,,,,,,,,,,,,,,,,,
,,,,,,,,,,,,,,,752,2022-01-20_20h01.06.983,multiplicationStroop,2021.2.3,MacIntel,59.99880002,,,,,left,1,0.5678,0,38,38,55,1,9,8,9 | 8,1,1.6933,1.6933,neutral,left,,,,,,stimulusFile/magnitude.xlsx,,,,,,,,,,,,,,,,,,,,,,,,,,,,,,,
,,,,,,,,,,,,,,,752,2022-01-20_20h01.06.983,multiplicationStroop,2021.2.3,MacIntel,59.99880002,,,,,left,1,0.5575,0,39,39,7,1,9,8,9 | 8,1,1.9756,1.4111,congruent,left,,,,,,stimulusFile/magnitude.xlsx,,,,,,,,,,,,,,,,,,,,,,,,,,,,,,,
,,,,,,,,,,,,,,,752,2022-01-20_20h01.06.983,multiplicationStroop,2021.2.3,MacIntel,59.99880002,,,,,right,1,0.7665,0,40,40,34,1,6,8,6 | 8,2,1.9756,1.4111,incongruent,right,,,,,,stimulusFile/magnitude.xlsx,,,,,,,,,,,,,,,,,,,,,,,,,,,,,,,
,,,,,,,,,,,,,,,752,2022-01-20_20h01.06.983,multiplicationStroop,2021.2.3,MacIntel,59.99880002,,,,,right,1,0.5827,0,41,41,57,1,2,4,2 | 4,2,1.6933,1.6933,neutral,right,,,,,,stimulusFile/magnitude.xlsx,,,,,,,,,,,,,,,,,,,,,,,,,,,,,,,
,,,,,,,,,,,,,,,752,2022-01-20_20h01.06.983,multiplicationStroop,2021.2.3,MacIntel,59.99880002,,,,,right,1,0.618,0,42,42,65,1,2,7,2 | 7,5,1.6933,1.6933,neutral,right,,,,,,stimulusFile/magnitude.xlsx,,,,,,,,,,,,,,,,,,,,,,,,,,,,,,,
,,,,,,,,,,,,,,,752,2022-01-20_20h01.06.983,multiplicationStroop,2021.2.3,MacIntel,59.99880002,,,,,right,1,0.7374,0,43,43,35,1,7,9,7 | 9,2,1.9756,1.4111,incongruent,right,,,,,,stimulusFile/magnitude.xlsx,,,,,,,,,,,,,,,,,,,,,,,,,,,,,,,
,,,,,,,,,,,,,,,752,2022-01-20_20h01.06.983,multiplicationStroop,2021.2.3,MacIntel,59.99880002,,,,,right,1,0.6534,0,44,44,1,1,3,4,3 | 4,1,1.4111,1.9756,congruent,right,,,,,,stimulusFile/magnitude.xlsx,,,,,,,,,,,,,,,,,,,,,,,,,,,,,,,
,,,,,,,,,,,,,,,752,2022-01-20_20h01.06.983,multiplicationStroop,2021.2.3,MacIntel,59.99880002,,,,,right,1,0.6495,0,45,45,10,1,6,8,6 | 8,2,1.4111,1.9756,congruent,right,,,,,,stimulusFile/magnitude.xlsx,,,,,,,,,,,,,,,,,,,,,,,,,,,,,,,
,,,,,,,,,,,,,,,752,2022-01-20_20h01.06.983,multiplicationStroop,2021.2.3,MacIntel,59.99880002,,,,,left,1,0.4733,0,46,46,68,1,6,1,6 | 1,5,1.6933,1.6933,neutral,left,,,,,,stimulusFile/magnitude.xlsx,,,,,,,,,,,,,,,,,,,,,,,,,,,,,,,
,,,,,,,,,,,,,,,752,2022-01-20_20h01.06.983,multiplicationStroop,2021.2.3,MacIntel,59.99880002,,,,,right,1,0.6873,0,47,47,48,1,1,2,1 | 2,1,1.6933,1.6933,neutral,right,,,,,,stimulusFile/magnitude.xlsx,,,,,,,,,,,,,,,,,,,,,,,,,,,,,,,
,,,,,,,,,,,,,,,752,2022-01-20_20h01.06.983,multiplicationStroop,2021.2.3,MacIntel,59.99880002,,,,,left,1,0.5314,0,48,48,69,1,7,2,7 | 2,5,1.6933,1.6933,neutral,left,,,,,,stimulusFile/magnitude.xlsx,,,,,,,,,,,,,,,,,,,,,,,,,,,,,,,
,,,,,,,,,,,,,,,752,2022-01-20_20h01.06.983,multiplicationStroop,2021.2.3,MacIntel,59.99880002,,,,,left,1,0.515,0,49,49,22,1,8,3,8 | 3,5,1.9756,1.4111,congruent,left,,,,,,stimulusFile/magnitude.xlsx,,,,,,,,,,,,,,,,,,,,,,,,,,,,,,,
,,,,,,,,,,,,,,,752,2022-01-20_20h01.06.983,multiplicationStroop,2021.2.3,MacIntel,59.99880002,,,,,left,1,0.6684,0,50,50,46,1,8,3,8 | 3,5,1.4111,1.9756,incongruent,left,,,,,,stimulusFile/magnitude.xlsx,,,,,,,,,,,,,,,,,,,,,,,,,,,,,,,
,,,,,,,,,,,,,,,752,2022-01-20_20h01.06.983,multiplicationStroop,2021.2.3,MacIntel,59.99880002,,,,,left,1,0.5482,0,51,51,6,1,7,6,7 | 6,1,1.9756,1.4111,congruent,left,,,,,,stimulusFile/magnitude.xlsx,,,,,,,,,,,,,,,,,,,,,,,,,,,,,,,
,,,,,,,,,,,,,,,752,2022-01-20_20h01.06.983,multiplicationStroop,2021.2.3,MacIntel,59.99880002,,,,,left,1,0.5674,0,52,52,63,1,9,7,9 | 7,2,1.6933,1.6933,neutral,left,,,,,,stimulusFile/magnitude.xlsx,,,,,,,,,,,,,,,,,,,,,,,,,,,,,,,
,,,,,,,,,,,,,,,752,2022-01-20_20h01.06.983,multiplicationStroop,2021.2.3,MacIntel,59.99880002,,,,,left,1,0.485,0,53,53,15,1,9,7,9 | 7,2,1.9756,1.4111,congruent,left,,,,,,stimulusFile/magnitude.xlsx,,,,,,,,,,,,,,,,,,,,,,,,,,,,,,,
,,,,,,,,,,,,,,,752,2022-01-20_20h01.06.983,multiplicationStroop,2021.2.3,MacIntel,59.99880002,,,,,right,1,0.5523,0,54,54,2,1,6,7,6 | 7,1,1.4111,1.9756,congruent,right,,,,,,stimulusFile/magnitude.xlsx,,,,,,,,,,,,,,,,,,,,,,,,,,,,,,,
,,,,,,,,,,,,,,,752,2022-01-20_20h01.06.983,multiplicationStroop,2021.2.3,MacIntel,59.99880002,,,,,left,1,0.5674,0,55,55,52,1,2,1,2 | 1,1,1.6933,1.6933,neutral,left,,,,,,stimulusFile/magnitude.xlsx,,,,,,,,,,,,,,,,,,,,,,,,,,,,,,,
,,,,,,,,,,,,,,,752,2022-01-20_20h01.06.983,multiplicationStroop,2021.2.3,MacIntel,59.99880002,,,,,left,1,0.6006,0,56,56,36,1,3,1,3 | 1,2,1.4111,1.9756,incongruent,left,,,,,,stimulusFile/magnitude.xlsx,,,,,,,,,,,,,,,,,,,,,,,,,,,,,,,
,,,,,,,,,,,,,,,752,2022-01-20_20h01.06.983,multiplicationStroop,2021.2.3,MacIntel,59.99880002,,,,,left,1,0.567,0,57,57,61,1,4,2,4 | 2,2,1.6933,1.6933,neutral,left,,,,,,stimulusFile/magnitude.xlsx,,,,,,,,,,,,,,,,,,,,,,,,,,,,,,,
,,,,,,,,,,,,,,,752,2022-01-20_20h01.06.983,multiplicationStroop,2021.2.3,MacIntel,59.99880002,,,,,right,1,0.6352,0,58,58,58,1,6,8,6 | 8,2,1.6933,1.6933,neutral,right,,,,,,stimulusFile/magnitude.xlsx,,,,,,,,,,,,,,,,,,,,,,,,,,,,,,,
,,,,,,,,,,,,,,,752,2022-01-20_20h01.06.983,multiplicationStroop,2021.2.3,MacIntel,59.99880002,,,,,right,1,0.5829,0,59,59,18,1,3,8,3 | 8,5,1.4111,1.9756,congruent,right,,,,,,stimulusFile/magnitude.xlsx,,,,,,,,,,,,,,,,,,,,,,,,,,,,,,,
,,,,,,,,,,,,,,,752,2022-01-20_20h01.06.983,multiplicationStroop,2021.2.3,MacIntel,59.99880002,,,,,left,1,0.5309,0,60,60,62,1,8,6,8 | 6,2,1.6933,1.6933,neutral,left,,,,,,stimulusFile/magnitude.xlsx,,,,,,,,,,,,,,,,,,,,,,,,,,,,,,,
,,,,,,,,,,,,,,,752,2022-01-20_20h01.06.983,multiplicationStroop,2021.2.3,MacIntel,59.99880002,,,,,right,1,0.4652,0,61,61,9,1,2,4,2 | 4,2,1.4111,1.9756,congruent,right,,,,,,stimulusFile/magnitude.xlsx,,,,,,,,,,,,,,,,,,,,,,,,,,,,,,,
,,,,,,,,,,,,,,,752,2022-01-20_20h01.06.983,multiplicationStroop,2021.2.3,MacIntel,59.99880002,,,,,right,1,0.5344,0,62,62,0,1,1,2,1 | 2,1,1.4111,1.9756,congruent,right,,,,,,stimulusFile/magnitude.xlsx,,,,,,,,,,,,,,,,,,,,,,,,,,,,,,,
,,,,,,,,,,,,,,,752,2022-01-20_20h01.06.983,multiplicationStroop,2021.2.3,MacIntel,59.99880002,,,,,left,1,0.5259,0,63,63,39,1,9,7,9 | 7,2,1.4111,1.9756,incongruent,left,,,,,,stimulusFile/magnitude.xlsx,,,,,,,,,,,,,,,,,,,,,,,,,,,,,,,
,,,,,,,,,,,,,,,752,2022-01-20_20h01.06.983,multiplicationStroop,2021.2.3,MacIntel,59.99880002,,,,,left,1,0.5367,0,64,64,12,1,3,1,3 | 1,2,1.9756,1.4111,congruent,left,,,,,,stimulusFile/magnitude.xlsx,,,,,,,,,,,,,,,,,,,,,,,,,,,,,,,
,,,,,,,,,,,,,,,752,2022-01-20_20h01.06.983,multiplicationStroop,2021.2.3,MacIntel,59.99880002,,,,,right,1,0.5334,0,65,65,8,1,1,3,1 | 3,2,1.4111,1.9756,congruent,right,,,,,,stimulusFile/magnitude.xlsx,,,,,,,,,,,,,,,,,,,,,,,,,,,,,,,
,,,,,,,,,,,,,,,752,2022-01-20_20h01.06.983,multiplicationStroop,2021.2.3,MacIntel,59.99880002,,,,,right,1,0.5002,0,66,66,32,1,1,3,1 | 3,2,1.9756,1.4111,incongruent,right,,,,,,stimulusFile/magnitude.xlsx,,,,,,,,,,,,,,,,,,,,,,,,,,,,,,,
,,,,,,,,,,,,,,,752,2022-01-20_20h01.06.983,multiplicationStroop,2021.2.3,MacIntel,59.99880002,,,,,left,1,0.5197,0,67,67,14,1,8,6,8 | 6,2,1.9756,1.4111,congruent,left,,,,,,stimulusFile/magnitude.xlsx,,,,,,,,,,,,,,,,,,,,,,,,,,,,,,,
,,,,,,,,,,,,,,,752,2022-01-20_20h01.06.983,multiplicationStroop,2021.2.3,MacIntel,59.99880002,,,,,left,1,0.524,0,68,68,5,1,4,3,4 | 3,1,1.9756,1.4111,congruent,left,,,,,,stimulusFile/magnitude.xlsx,,,,,,,,,,,,,,,,,,,,,,,,,,,,,,,
,,,,,,,,,,,,,,,752,2022-01-20_20h01.06.983,multiplicationStroop,2021.2.3,MacIntel,59.99880002,,,,,left,1,0.5671,0,69,69,23,1,9,4,9 | 4,5,1.9756,1.4111,congruent,left,,,,,,stimulusFile/magnitude.xlsx,,,,,,,,,,,,,,,,,,,,,,,,,,,,,,,
,,,,,,,,,,,,,,,752,2022-01-20_20h01.06.983,multiplicationStroop,2021.2.3,MacIntel,59.99880002,,,,,left,1,0.5154,0,70,70,71,1,9,4,9 | 4,5,1.6933,1.6933,neutral,left,,,,,,stimulusFile/magnitude.xlsx,,,,,,,,,,,,,,,,,,,,,,,,,,,,,,,
,,,,,,,,,,,,,,,752,2022-01-20_20h01.06.983,multiplicationStroop,2021.2.3,MacIntel,59.99880002,,,,,right,1,0.5225,0,71,71,49,1,3,4,3 | 4,1,1.6933,1.6933,neutral,right,,,,,,stimulusFile/magnitude.xlsx,,,,,,,,,,,,,,,,,,,,,,,,,,,,,,,
,,,,,,,,,,,,,,,752,2022-01-20_20h01.06.983,multiplicationStroop,2021.2.3,MacIntel,59.99880002,,,,,,,,,,,,,,,,,,,,,0,0,0,0,1,stimulusFile/magnitude.xlsx,NUMERICALLY larger (larger coefficient).,images/numericallyLarger.png,,,,,,,,,,,,,,,,,,,,,,,,,,,,,
,,,,,,,,,,,,,,,752,2022-01-20_20h01.06.983,multiplicationStroop,2021.2.3,MacIntel,59.99880002,space,8.3151,space,6.228,right,1,0.7169,0,0,0,47,1,9,4,9 | 4,5,1.4111,1.9756,incongruent,right,,,,,,stimulusFile/physical.xlsx,,,,,,,,,,,,,,,,,,,,,,,,,,,,,,,
,,,,,,,,,,,,,,,752,2022-01-20_20h01.06.983,multiplicationStroop,2021.2.3,MacIntel,59.99880002,,,,,left,1,0.5671,0,1,1,48,1,1,1,1 | 1,0,1.9756,1.4111,neutral,left,,,,,,stimulusFile/physical.xlsx,,,,,,,,,,,,,,,,,,,,,,,,,,,,,,,
,,,,,,,,,,,,,,,752,2022-01-20_20h01.06.983,multiplicationStroop,2021.2.3,MacIntel,59.99880002,,,,,right,1,0.5039,0,2,2,61,1,4,4,4 | 4,0,1.4111,1.9756,neutral,right,,,,,,stimulusFile/physical.xlsx,,,,,,,,,,,,,,,,,,,,,,,,,,,,,,,
,,,,,,,,,,,,,,,752,2022-01-20_20h01.06.983,multiplicationStroop,2021.2.3,MacIntel,59.99880002,,,,,left,1,0.4505,0,3,3,27,1,8,9,8 | 9,1,1.9756,1.4111,incongruent,left,,,,,,stimulusFile/physical.xlsx,,,,,,,,,,,,,,,,,,,,,,,,,,,,,,,
,,,,,,,,,,,,,,,752,2022-01-20_20h01.06.983,multiplicationStroop,2021.2.3,MacIntel,59.99880002,,,,,left,1,0.5421,0,4,4,13,1,4,2,4 | 2,2,1.9756,1.4111,congruent,left,,,,,,stimulusFile/physical.xlsx,,,,,,,,,,,,,,,,,,,,,,,,,,,,,,,
,,,,,,,,,,,,,,,752,2022-01-20_20h01.06.983,multiplicationStroop,2021.2.3,MacIntel,59.99880002,,,,,left,1,0.5134,0,5,5,54,1,7,7,7 | 7,0,1.9756,1.4111,neutral,left,,,,,,stimulusFile/physical.xlsx,,,,,,,,,,,,,,,,,,,,,,,,,,,,,,,
,,,,,,,,,,,,,,,752,2022-01-20_20h01.06.983,multiplicationStroop,2021.2.3,MacIntel,59.99880002,,,,,right,1,0.4547,0,6,6,67,1,4,4,4 | 4,0,1.4111,1.9756,neutral,right,,,,,,stimulusFile/physical.xlsx,,,,,,,,,,,,,,,,,,,,,,,,,,,,,,,
,,,,,,,,,,,,,,,752,2022-01-20_20h01.06.983,multiplicationStroop,2021.2.3,MacIntel,59.99880002,,,,,right,0,0.5008,0,7,7,40,1,1,6,1 | 6,5,1.9756,1.4111,incongruent,left,,,,,,stimulusFile/physical.xlsx,,,,,,,,,,,,,,,,,,,,,,,,,,,,,,,
,,,,,,,,,,,,,,,752,2022-01-20_20h01.06.983,multiplicationStroop,2021.2.3,MacIntel,59.99880002,,,,,right,1,0.7153,0,8,8,18,1,3,8,3 | 8,5,1.4111,1.9756,congruent,right,,,,,,stimulusFile/physical.xlsx,,,,,,,,,,,,,,,,,,,,,,,,,,,,,,,
,,,,,,,,,,,,,,,752,2022-01-20_20h01.06.983,multiplicationStroop,2021.2.3,MacIntel,59.99880002,,,,,left,1,0.4813,0,9,9,52,1,2,2,2 | 2,0,1.9756,1.4111,neutral,left,,,,,,stimulusFile/physical.xlsx,,,,,,,,,,,,,,,,,,,,,,,,,,,,,,,
,,,,,,,,,,,,,,,752,2022-01-20_20h01.06.983,multiplicationStroop,2021.2.3,MacIntel,59.99880002,,,,,left,1,0.7365,0,10,10,32,1,1,3,1 | 3,2,1.9756,1.4111,incongruent,left,,,,,,stimulusFile/physical.xlsx,,,,,,,,,,,,,,,,,,,,,,,,,,,,,,,
,,,,,,,,,,,,,,,752,2022-01-20_20h01.06.983,multiplicationStroop,2021.2.3,MacIntel,59.99880002,,,,,left,1,0.5484,0,11,11,68,1,6,6,6 | 6,0,1.9756,1.4111,neutral,left,,,,,,stimulusFile/physical.xlsx,,,,,,,,,,,,,,,,,,,,,,,,,,,,,,,
,,,,,,,,,,,,,,,752,2022-01-20_20h01.06.983,multiplicationStroop,2021.2.3,MacIntel,59.99880002,,,,,right,1,0.6611,0,12,12,45,1,7,2,7 | 2,5,1.4111,1.9756,incongruent,right,,,,,,stimulusFile/physical.xlsx,,,,,,,,,,,,,,,,,,,,,,,,,,,,,,,
,,,,,,,,,,,,,,,752,2022-01-20_20h01.06.983,multiplicationStroop,2021.2.3,MacIntel,59.99880002,,,,,left,1,0.4974,0,13,13,7,1,9,8,9 | 8,1,1.9756,1.4111,congruent,left,,,,,,stimulusFile/physical.xlsx,,,,,,,,,,,,,,,,,,,,,,,,,,,,,,,
,,,,,,,,,,,,,,,752,2022-01-20_20h01.06.983,multiplicationStroop,2021.2.3,MacIntel,59.99880002,,,,,right,1,0.5342,0,14,14,39,1,9,7,9 | 7,2,1.4111,1.9756,incongruent,right,,,,,,stimulusFile/physical.xlsx,,,,,,,,,,,,,,,,,,,,,,,,,,,,,,,
,,,,,,,,,,,,,,,752,2022-01-20_20h01.06.983,multiplicationStroop,2021.2.3,MacIntel,59.99880002,,,,,left,1,0.6174,0,15,15,34,1,6,8,6 | 8,2,1.9756,1.4111,incongruent,left,,,,,,stimulusFile/physical.xlsx,,,,,,,,,,,,,,,,,,,,,,,,,,,,,,,
,,,,,,,,,,,,,,,752,2022-01-20_20h01.06.983,multiplicationStroop,2021.2.3,MacIntel,59.99880002,,,,,left,1,0.634,0,16,16,33,1,2,4,2 | 4,2,1.9756,1.4111,incongruent,left,,,,,,stimulusFile/physical.xlsx,,,,,,,,,,,,,,,,,,,,,,,,,,,,,,,
,,,,,,,,,,,,,,,752,2022-01-20_20h01.06.983,multiplicationStroop,2021.2.3,MacIntel,59.99880002,,,,,left,1,0.5032,0,17,17,26,1,6,7,6 | 7,1,1.9756,1.4111,incongruent,left,,,,,,stimulusFile/physical.xlsx,,,,,,,,,,,,,,,,,,,,,,,,,,,,,,,
,,,,,,,,,,,,,,,752,2022-01-20_20h01.06.983,multiplicationStroop,2021.2.3,MacIntel,59.99880002,,,,,left,1,0.6993,0,18,18,6,1,7,6,7 | 6,1,1.9756,1.4111,congruent,left,,,,,,stimulusFile/physical.xlsx,,,,,,,,,,,,,,,,,,,,,,,,,,,,,,,
,,,,,,,,,,,,,,,752,2022-01-20_20h01.06.983,multiplicationStroop,2021.2.3,MacIntel,59.99880002,,,,,right,1,0.5818,0,19,19,62,1,8,8,8 | 8,0,1.4111,1.9756,neutral,right,,,,,,stimulusFile/physical.xlsx,,,,,,,,,,,,,,,,,,,,,,,,,,,,,,,
,,,,,,,,,,,,,,,752,2022-01-20_20h01.06.983,multiplicationStroop,2021.2.3,MacIntel,59.99880002,,,,,right,0,0.6008,0,20,20,69,1,7,7,7 | 7,0,1.4111,1.9756,neutral,left,,,,,,stimulusFile/physical.xlsx,,,,,,,,,,,,,,,,,,,,,,,,,,,,,,,
,,,,,,,,,,,,,,,752,2022-01-20_20h01.06.983,multiplicationStroop,2021.2.3,MacIntel,59.99880002,,,,,left,1,0.6655,0,21,21,21,1,7,2,7 | 2,5,1.9756,1.4111,congruent,left,,,,,,stimulusFile/physical.xlsx,,,,,,,,,,,,,,,,,,,,,,,,,,,,,,,
,,,,,,,,,,,,,,,752,2022-01-20_20h01.06.983,multiplicationStroop,2021.2.3,MacIntel,59.99880002,,,,,left,1,0.8014,0,22,22,15,1,9,7,9 | 7,2,1.9756,1.4111,congruent,left,,,,,,stimulusFile/physical.xlsx,,,,,,,,,,,,,,,,,,,,,,,,,,,,,,,
,,,,,,,,,,,,,,,752,2022-01-20_20h01.06.983,multiplicationStroop,2021.2.3,MacIntel,59.99880002,,,,,right,1,0.8846,0,23,23,28,1,2,1,2 | 1,1,1.4111,1.9756,incongruent,right,,,,,,stimulusFile/physical.xlsx,,,,,,,,,,,,,,,,,,,,,,,,,,,,,,,
,,,,,,,,,,,,,,,752,2022-01-20_20h01.06.983,multiplicationStroop,2021.2.3,MacIntel,59.99880002,,,,,left,0,0.5548,0,24,24,66,1,3,3,3 | 3,0,1.9756,1.4111,neutral,right,,,,,,stimulusFile/physical.xlsx,,,,,,,,,,,,,,,,,,,,,,,,,,,,,,,
,,,,,,,,,,,,,,,752,2022-01-20_20h01.06.983,multiplicationStroop,2021.2.3,MacIntel,59.99880002,,,,,left,1,0.5669,0,25,25,70,1,8,8,8 | 8,0,1.9756,1.4111,neutral,left,,,,,,stimulusFile/physical.xlsx,,,,,,,,,,,,,,,,,,,,,,,,,,,,,,,
,,,,,,,,,,,,,,,752,2022-01-20_20h01.06.983,multiplicationStroop,2021.2.3,MacIntel,59.99880002,,,,,right,1,0.5446,0,26,26,2,1,6,7,6 | 7,1,1.4111,1.9756,congruent,right,,,,,,stimulusFile/physical.xlsx,,,,,,,,,,,,,,,,,,,,,,,,,,,,,,,
,,,,,,,,,,,,,,,752,2022-01-20_20h01.06.983,multiplicationStroop,2021.2.3,MacIntel,59.99880002,,,,,left,1,0.4827,0,27,27,24,1,1,2,1 | 2,1,1.9756,1.4111,incongruent,left,,,,,,stimulusFile/physical.xlsx,,,,,,,,,,,,,,,,,,,,,,,,,,,,,,,
,,,,,,,,,,,,,,,752,2022-01-20_20h01.06.983,multiplicationStroop,2021.2.3,MacIntel,59.99880002,,,,,right,1,0.4396,0,28,28,9,1,2,4,2 | 4,2,1.4111,1.9756,congruent,right,,,,,,stimulusFile/physical.xlsx,,,,,,,,,,,,,,,,,,,,,,,,,,,,,,,
,,,,,,,,,,,,,,,752,2022-01-20_20h01.06.983,multiplicationStroop,2021.2.3,MacIntel,59.99880002,,,,,left,1,0.4177,0,29,29,22,1,8,3,8 | 3,5,1.9756,1.4111,congruent,left,,,,,,stimulusFile/physical.xlsx,,,,,,,,,,,,,,,,,,,,,,,,,,,,,,,
,,,,,,,,,,,,,,,752,2022-01-20_20h01.06.983,multiplicationStroop,2021.2.3,MacIntel,59.99880002,,,,,right,1,0.4004,0,30,30,58,1,6,6,6 | 6,0,1.4111,1.9756,neutral,right,,,,,,stimulusFile/physical.xlsx,,,,,,,,,,,,,,,,,,,,,,,,,,,,,,,
,,,,,,,,,,,,,,,752,2022-01-20_20h01.06.983,multiplicationStroop,2021.2.3,MacIntel,59.99880002,,,,,left,1,0.449,0,31,31,51,1,8,8,8 | 8,0,1.9756,1.4111,neutral,left,,,,,,stimulusFile/physical.xlsx,,,,,,,,,,,,,,,,,,,,,,,,,,,,,,,
,,,,,,,,,,,,,,,752,2022-01-20_20h01.06.983,multiplicationStroop,2021.2.3,MacIntel,59.99880002,,,,,right,1,0.6157,0,32,32,10,1,6,8,6 | 8,2,1.4111,1.9756,congruent,right,,,,,,stimulusFile/physical.xlsx,,,,,,,,,,,,,,,,,,,,,,,,,,,,,,,
,,,,,,,,,,,,,,,752,2022-01-20_20h01.06.983,multiplicationStroop,2021.2.3,MacIntel,59.99880002,,,,,right,1,0.5682,0,33,33,65,1,2,2,2 | 2,0,1.4111,1.9756,neutral,right,,,,,,stimulusFile/physical.xlsx,,,,,,,,,,,,,,,,,,,,,,,,,,,,,,,
,,,,,,,,,,,,,,,752,2022-01-20_20h01.06.983,multiplicationStroop,2021.2.3,MacIntel,59.99880002,,,,,right,1,0.4836,0,34,34,63,1,9,9,9 | 9,0,1.4111,1.9756,neutral,right,,,,,,stimulusFile/physical.xlsx,,,,,,,,,,,,,,,,,,,,,,,,,,,,,,,
,,,,,,,,,,,,,,,752,2022-01-20_20h01.06.983,multiplicationStroop,2021.2.3,MacIntel,59.99880002,,,,,right,1,0.5492,0,35,35,56,1,1,1,1 | 1,0,1.4111,1.9756,neutral,right,,,,,,stimulusFile/physical.xlsx,,,,,,,,,,,,,,,,,,,,,,,,,,,,,,,
,,,,,,,,,,,,,,,752,2022-01-20_20h01.06.983,multiplicationStroop,2021.2.3,MacIntel,59.99880002,,,,,left,1,0.5579,0,36,36,25,1,3,4,3 | 4,1,1.9756,1.4111,incongruent,left,,,,,,stimulusFile/physical.xlsx,,,,,,,,,,,,,,,,,,,,,,,,,,,,,,,
,,,,,,,,,,,,,,,752,2022-01-20_20h01.06.983,multiplicationStroop,2021.2.3,MacIntel,59.99880002,,,,,right,1,0.4653,0,37,37,57,1,2,2,2 | 2,0,1.4111,1.9756,neutral,right,,,,,,stimulusFile/physical.xlsx,,,,,,,,,,,,,,,,,,,,,,,,,,,,,,,
,,,,,,,,,,,,,,,752,2022-01-20_20h01.06.983,multiplicationStroop,2021.2.3,MacIntel,59.99880002,,,,,right,1,0.4462,0,38,38,0,1,1,2,1 | 2,1,1.4111,1.9756,congruent,right,,,,,,stimulusFile/physical.xlsx,,,,,,,,,,,,,,,,,,,,,,,,,,,,,,,
,,,,,,,,,,,,,,,752,2022-01-20_20h01.06.983,multiplicationStroop,2021.2.3,MacIntel,59.99880002,,,,,left,1,0.4611,0,39,39,55,1,9,9,9 | 9,0,1.9756,1.4111,neutral,left,,,,,,stimulusFile/physical.xlsx,,,,,,,,,,,,,,,,,,,,,,,,,,,,,,,
,,,,,,,,,,,,,,,752,2022-01-20_20h01.06.983,multiplicationStroop,2021.2.3,MacIntel,59.99880002,,,,,left,1,0.517,0,40,40,12,1,3,1,3 | 1,2,1.9756,1.4111,congruent,left,,,,,,stimulusFile/physical.xlsx,,,,,,,,,,,,,,,,,,,,,,,,,,,,,,,
,,,,,,,,,,,,,,,752,2022-01-20_20h01.06.983,multiplicationStroop,2021.2.3,MacIntel,59.99880002,,,,,left,1,0.6059,0,41,41,43,1,4,9,4 | 9,5,1.9756,1.4111,incongruent,left,,,,,,stimulusFile/physical.xlsx,,,,,,,,,,,,,,,,,,,,,,,,,,,,,,,
,,,,,,,,,,,,,,,752,2022-01-20_20h01.06.983,multiplicationStroop,2021.2.3,MacIntel,59.99880002,,,,,left,1,0.5345,0,42,42,50,1,6,6,6 | 6,0,1.9756,1.4111,neutral,left,,,,,,stimulusFile/physical.xlsx,,,,,,,,,,,,,,,,,,,,,,,,,,,,,,,
,,,,,,,,,,,,,,,752,2022-01-20_20h01.06.983,multiplicationStroop,2021.2.3,MacIntel,59.99880002,,,,,right,1,0.5073,0,43,43,3,1,8,9,8 | 9,1,1.4111,1.9756,congruent,right,,,,,,stimulusFile/physical.xlsx,,,,,,,,,,,,,,,,,,,,,,,,,,,,,,,
,,,,,,,,,,,,,,,752,2022-01-20_20h01.06.983,multiplicationStroop,2021.2.3,MacIntel,59.99880002,,,,,left,1,0.4726,0,44,44,42,1,3,8,3 | 8,5,1.9756,1.4111,incongruent,left,,,,,,stimulusFile/physical.xlsx,,,,,,,,,,,,,,,,,,,,,,,,,,,,,,,
,,,,,,,,,,,,,,,752,2022-01-20_20h01.06.983,multiplicationStroop,2021.2.3,MacIntel,59.99880002,,,,,right,0,0.5052,0,45,45,71,1,9,9,9 | 9,0,1.4111,1.9756,neutral,left,,,,,,stimulusFile/physical.xlsx,,,,,,,,,,,,,,,,,,,,,,,,,,,,,,,
,,,,,,,,,,,,,,,752,2022-01-20_20h01.06.983,multiplicationStroop,2021.2.3,MacIntel,59.99880002,,,,,right,1,0.5149,0,46,46,19,1,4,9,4 | 9,5,1.4111,1.9756,congruent,right,,,,,,stimulusFile/physical.xlsx,,,,,,,,,,,,,,,,,,,,,,,,,,,,,,,
,,,,,,,,,,,,,,,752,2022-01-20_20h01.06.983,multiplicationStroop,2021.2.3,MacIntel,59.99880002,,,,,left,1,0.5306,0,47,47,53,1,4,4,4 | 4,0,1.9756,1.4111,neutral,left,,,,,,stimulusFile/physical.xlsx,,,,,,,,,,,,,,,,,,,,,,,,,,,,,,,
,,,,,,,,,,,,,,,752,2022-01-20_20h01.06.983,multiplicationStroop,2021.2.3,MacIntel,59.99880002,,,,,left,1,0.5665,0,48,48,35,1,7,9,7 | 9,2,1.9756,1.4111,incongruent,left,,,,,,stimulusFile/physical.xlsx,,,,,,,,,,,,,,,,,,,,,,,,,,,,,,,
,,,,,,,,,,,,,,,752,2022-01-20_20h01.06.983,multiplicationStroop,2021.2.3,MacIntel,59.99880002,,,,,right,1,0.5819,0,49,49,46,1,8,3,8 | 3,5,1.4111,1.9756,incongruent,right,,,,,,stimulusFile/physical.xlsx,,,,,,,,,,,,,,,,,,,,,,,,,,,,,,,
,,,,,,,,,,,,,,,752,2022-01-20_20h01.06.983,multiplicationStroop,2021.2.3,MacIntel,59.99880002,,,,,right,1,0.5829,0,50,50,30,1,7,6,7 | 6,1,1.4111,1.9756,incongruent,right,,,,,,stimulusFile/physical.xlsx,,,,,,,,,,,,,,,,,,,,,,,,,,,,,,,
,,,,,,,,,,,,,,,752,2022-01-20_20h01.06.983,multiplicationStroop,2021.2.3,MacIntel,59.99880002,,,,,right,1,0.4849,0,51,51,59,1,7,7,7 | 7,0,1.4111,1.9756,neutral,right,,,,,,stimulusFile/physical.xlsx,,,,,,,,,,,,,,,,,,,,,,,,,,,,,,,
,,,,,,,,,,,,,,,752,2022-01-20_20h01.06.983,multiplicationStroop,2021.2.3,MacIntel,59.99880002,,,,,right,1,0.6983,0,52,52,44,1,6,1,6 | 1,5,1.4111,1.9756,incongruent,right,,,,,,stimulusFile/physical.xlsx,,,,,,,,,,,,,,,,,,,,,,,,,,,,,,,
,,,,,,,,,,,,,,,752,2022-01-20_20h01.06.983,multiplicationStroop,2021.2.3,MacIntel,59.99880002,,,,,right,1,0.5142,0,53,53,29,1,4,3,4 | 3,1,1.4111,1.9756,incongruent,right,,,,,,stimulusFile/physical.xlsx,,,,,,,,,,,,,,,,,,,,,,,,,,,,,,,
,,,,,,,,,,,,,,,752,2022-01-20_20h01.06.983,multiplicationStroop,2021.2.3,MacIntel,59.99880002,,,,,right,1,0.5531,0,54,54,60,1,3,3,3 | 3,0,1.4111,1.9756,neutral,right,,,,,,stimulusFile/physical.xlsx,,,,,,,,,,,,,,,,,,,,,,,,,,,,,,,
,,,,,,,,,,,,,,,752,2022-01-20_20h01.06.983,multiplicationStroop,2021.2.3,MacIntel,59.99880002,,,,,right,1,0.4665,0,55,55,11,1,7,9,7 | 9,2,1.4111,1.9756,congruent,right,,,,,,stimulusFile/physical.xlsx,,,,,,,,,,,,,,,,,,,,,,,,,,,,,,,
,,,,,,,,,,,,,,,752,2022-01-20_20h01.06.983,multiplicationStroop,2021.2.3,MacIntel,59.99880002,,,,,left,1,0.4827,0,56,56,41,1,2,7,2 | 7,5,1.9756,1.4111,incongruent,left,,,,,,stimulusFile/physical.xlsx,,,,,,,,,,,,,,,,,,,,,,,,,,,,,,,
,,,,,,,,,,,,,,,752,2022-01-20_20h01.06.983,multiplicationStroop,2021.2.3,MacIntel,59.99880002,,,,,left,1,0.4655,0,57,57,14,1,8,6,8 | 6,2,1.9756,1.4111,congruent,left,,,,,,stimulusFile/physical.xlsx,,,,,,,,,,,,,,,,,,,,,,,,,,,,,,,
,,,,,,,,,,,,,,,752,2022-01-20_20h01.06.983,multiplicationStroop,2021.2.3,MacIntel,59.99880002,,,,,left,0,0.5375,0,58,58,64,1,1,1,1 | 1,0,1.9756,1.4111,neutral,right,,,,,,stimulusFile/physical.xlsx,,,,,,,,,,,,,,,,,,,,,,,,,,,,,,,
,,,,,,,,,,,,,,,752,2022-01-20_20h01.06.983,multiplicationStroop,2021.2.3,MacIntel,59.99880002,,,,,left,1,0.6011,0,59,59,20,1,6,1,6 | 1,5,1.9756,1.4111,congruent,left,,,,,,stimulusFile/physical.xlsx,,,,,,,,,,,,,,,,,,,,,,,,,,,,,,,
,,,,,,,,,,,,,,,752,2022-01-20_20h01.06.983,multiplicationStroop,2021.2.3,MacIntel,59.99880002,,,,,right,1,0.5064,0,60,60,36,1,3,1,3 | 1,2,1.4111,1.9756,incongruent,right,,,,,,stimulusFile/physical.xlsx,,,,,,,,,,,,,,,,,,,,,,,,,,,,,,,
,,,,,,,,,,,,,,,752,2022-01-20_20h01.06.983,multiplicationStroop,2021.2.3,MacIntel,59.99880002,,,,,right,1,0.4542,0,61,61,16,1,1,6,1 | 6,5,1.4111,1.9756,congruent,right,,,,,,stimulusFile/physical.xlsx,,,,,,,,,,,,,,,,,,,,,,,,,,,,,,,
,,,,,,,,,,,,,,,752,2022-01-20_20h01.06.983,multiplicationStroop,2021.2.3,MacIntel,59.99880002,,,,,left,1,0.4217,0,62,62,5,1,4,3,4 | 3,1,1.9756,1.4111,congruent,left,,,,,,stimulusFile/physical.xlsx,,,,,,,,,,,,,,,,,,,,,,,,,,,,,,,
,,,,,,,,,,,,,,,752,2022-01-20_20h01.06.983,multiplicationStroop,2021.2.3,MacIntel,59.99880002,,,,,left,1,0.4817,0,63,63,49,1,3,3,3 | 3,0,1.9756,1.4111,neutral,left,,,,,,stimulusFile/physical.xlsx,,,,,,,,,,,,,,,,,,,,,,,,,,,,,,,
,,,,,,,,,,,,,,,752,2022-01-20_20h01.06.983,multiplicationStroop,2021.2.3,MacIntel,59.99880002,,,,,right,1,0.431,0,64,64,17,1,2,7,2 | 7,5,1.4111,1.9756,congruent,right,,,,,,stimulusFile/physical.xlsx,,,,,,,,,,,,,,,,,,,,,,,,,,,,,,,
,,,,,,,,,,,,,,,752,2022-01-20_20h01.06.983,multiplicationStroop,2021.2.3,MacIntel,59.99880002,,,,,right,1,0.5143,0,65,65,38,1,8,6,8 | 6,2,1.4111,1.9756,incongruent,right,,,,,,stimulusFile/physical.xlsx,,,,,,,,,,,,,,,,,,,,,,,,,,,,,,,
,,,,,,,,,,,,,,,752,2022-01-20_20h01.06.983,multiplicationStroop,2021.2.3,MacIntel,59.99880002,,,,,left,1,0.514,0,66,66,23,1,9,4,9 | 4,5,1.9756,1.4111,congruent,left,,,,,,stimulusFile/physical.xlsx,,,,,,,,,,,,,,,,,,,,,,,,,,,,,,,
,,,,,,,,,,,,,,,752,2022-01-20_20h01.06.983,multiplicationStroop,2021.2.3,MacIntel,59.99880002,,,,,right,1,0.456,0,67,67,8,1,1,3,1 | 3,2,1.4111,1.9756,congruent,right,,,,,,stimulusFile/physical.xlsx,,,,,,,,,,,,,,,,,,,,,,,,,,,,,,,
,,,,,,,,,,,,,,,752,2022-01-20_20h01.06.983,multiplicationStroop,2021.2.3,MacIntel,59.99880002,,,,,right,1,0.5498,0,68,68,31,1,9,8,9 | 8,1,1.4111,1.9756,incongruent,right,,,,,,stimulusFile/physical.xlsx,,,,,,,,,,,,,,,,,,,,,,,,,,,,,,,
,,,,,,,,,,,,,,,752,2022-01-20_20h01.06.983,multiplicationStroop,2021.2.3,MacIntel,59.99880002,,,,,right,1,0.4669,0,69,69,1,1,3,4,3 | 4,1,1.4111,1.9756,congruent,right,,,,,,stimulusFile/physical.xlsx,,,,,,,,,,,,,,,,,,,,,,,,,,,,,,,
,,,,,,,,,,,,,,,752,2022-01-20_20h01.06.983,multiplicationStroop,2021.2.3,MacIntel,59.99880002,,,,,left,0,0.5201,0,70,70,37,1,4,2,4 | 2,2,1.4111,1.9756,incongruent,right,,,,,,stimulusFile/physical.xlsx,,,,,,,,,,,,,,,,,,,,,,,,,,,,,,,
,,,,,,,,,,,,,,,752,2022-01-20_20h01.06.983,multiplicationStroop,2021.2.3,MacIntel,59.99880002,,,,,left,1,0.5394,0,71,71,4,1,2,1,2 | 1,1,1.9756,1.4111,congruent,left,,,,,,stimulusFile/physical.xlsx,,,,,,,,,,,,,,,,,,,,,,,,,,,,,,,
,,,,,,,,,,,,,,,752,2022-01-20_20h01.06.983,multiplicationStroop,2021.2.3,MacIntel,59.99880002,,,,,,,,,,,,,,,,,,,,,0,1,1,1,1,stimulusFile/physical.xlsx,PHYSICALLY larger (larger font size).,images/physicallyLarger.png,,,,,,,,,,,,,,,,,,,,,,,,,,,,,
,,,,,,,,,,,,,,,752,2022-01-20_20h01.06.983,multiplicationStroop,2021.2.3,MacIntel,59.99880002,,,,,,,,,,,,,,,,,,,,,,,,,,,,,space,11.1144,space,2.812,28,4.1022,1,0,0,0,27,1,7,×,4,7 × 4,congruent,largerFirst,2,1,28,,,,,,,,
,,,,,,,,,,,,,,,752,2022-01-20_20h01.06.983,multiplicationStroop,2021.2.3,MacIntel,59.99880002,,,,,,,,,,,,,,,,,,,,,,,,,,,,,,,,,36,2.0348,1,0,1,1,32,1,6,×,6,6 × 6,neutral,tie,2,1,36,,,,,,,,
,,,,,,,,,,,,,,,752,2022-01-20_20h01.06.983,multiplicationStroop,2021.2.3,MacIntel,59.99880002,,,,,,,,,,,,,,,,,,,,,,,,,,,,,,,,,27,2.033,1,0,2,2,26,1,9,×,3,9 × 3,congruent,largerFirst,2,1,27,,,,,,,,
,,,,,,,,,,,,,,,752,2022-01-20_20h01.06.983,multiplicationStroop,2021.2.3,MacIntel,59.99880002,,,,,,,,,,,,,,,,,,,,,,,,,,,,,,,,,35,1.9492,1,0,3,3,1,1,5,×,7,5 × 7,congruent,smallerFirst,1,2,35,,,,,,,,
,,,,,,,,,,,,,,,752,2022-01-20_20h01.06.983,multiplicationStroop,2021.2.3,MacIntel,59.99880002,,,,,,,,,,,,,,,,,,,,,,,,,,,,,,,,,72,2.1664,1,0,4,4,17,1,9,×,8,9 × 8,congruent,largerFirst,2,1,72,,,,,,,,
,,,,,,,,,,,,,,,752,2022-01-20_20h01.06.983,multiplicationStroop,2021.2.3,MacIntel,59.99880002,,,,,,,,,,,,,,,,,,,,,,,,,,,,,,,,,32,1.548,1,0,5,5,20,1,8,×,4,8 × 4,congruent,largerFirst,2,1,32,,,,,,,,
,,,,,,,,,,,,,,,752,2022-01-20_20h01.06.983,multiplicationStroop,2021.2.3,MacIntel,59.99880002,,,,,,,,,,,,,,,,,,,,,,,,,,,,,,,,,20,1.6662,1,0,6,6,7,1,4,×,5,4 × 5,congruent,smallerFirst,1,2,20,,,,,,,,
,,,,,,,,,,,,,,,752,2022-01-20_20h01.06.983,multiplicationStroop,2021.2.3,MacIntel,59.99880002,,,,,,,,,,,,,,,,,,,,,,,,,,,,,,,,,45,1.9657,1,0,7,7,23,1,9,×,5,9 × 5,congruent,largerFirst,2,1,45,,,,,,,,
,,,,,,,,,,,,,,,752,2022-01-20_20h01.06.983,multiplicationStroop,2021.2.3,MacIntel,59.99880002,,,,,,,,,,,,,,,,,,,,,,,,,,,,,,,,,30,3.0332,1,0,8,8,15,1,6,×,5,6 × 5,congruent,largerFirst,2,1,30,,,,,,,,
,,,,,,,,,,,,,,,752,2022-01-20_20h01.06.983,multiplicationStroop,2021.2.3,MacIntel,59.99880002,,,,,,,,,,,,,,,,,,,,,,,,,,,,,,,,,9,1.5992,1,0,9,9,29,1,3,×,3,3 × 3,neutral,tie,2,1,9,,,,,,,,
,,,,,,,,,,,,,,,752,2022-01-20_20h01.06.983,multiplicationStroop,2021.2.3,MacIntel,59.99880002,,,,,,,,,,,,,,,,,,,,,,,,,,,,,,,,,4,2.6658,1,0,10,10,28,1,2,×,2,2 × 2,neutral,tie,2,1,4,,,,,,,,
,,,,,,,,,,,,,,,752,2022-01-20_20h01.06.983,multiplicationStroop,2021.2.3,MacIntel,59.99880002,,,,,,,,,,,,,,,,,,,,,,,,,,,,,,,,,36,2.3655,1,0,11,11,0,1,4,×,9,4 × 9,congruent,smallerFirst,1,2,36,,,,,,,,
,,,,,,,,,,,,,,,752,2022-01-20_20h01.06.983,multiplicationStroop,2021.2.3,MacIntel,59.99880002,,,,,,,,,,,,,,,,,,,,,,,,,,,,,,,,,81,1.8494,1,0,12,12,35,1,9,×,9,9 × 9,neutral,tie,2,1,81,,,,,,,,
,,,,,,,,,,,,,,,752,2022-01-20_20h01.06.983,multiplicationStroop,2021.2.3,MacIntel,59.99880002,,,,,,,,,,,,,,,,,,,,,,,,,,,,,,,,,18,1.6175,1,0,13,13,22,1,9,×,2,9 × 2,congruent,largerFirst,2,1,18,,,,,,,,
,,,,,,,,,,,,,,,752,2022-01-20_20h01.06.983,multiplicationStroop,2021.2.3,MacIntel,59.99880002,,,,,,,,,,,,,,,,,,,,,,,,,,,,,,,,,64,1.8313,1,0,14,14,34,1,8,×,8,8 × 8,neutral,tie,2,1,64,,,,,,,,
,,,,,,,,,,,,,,,752,2022-01-20_20h01.06.983,multiplicationStroop,2021.2.3,MacIntel,59.99880002,,,,,,,,,,,,,,,,,,,,,,,,,,,,,,,,,8,1.9171,1,0,15,15,9,1,2,×,4,2 × 4,congruent,smallerFirst,1,2,8,,,,,,,,
,,,,,,,,,,,,,,,752,2022-01-20_20h01.06.983,multiplicationStroop,2021.2.3,MacIntel,59.99880002,,,,,,,,,,,,,,,,,,,,,,,,,,,,,,,,,6,1.699,1,0,16,16,13,1,2,×,3,2 × 3,congruent,smallerFirst,1,2,6,,,,,,,,
,,,,,,,,,,,,,,,752,2022-01-20_20h01.06.983,multiplicationStroop,2021.2.3,MacIntel,59.99880002,,,,,,,,,,,,,,,,,,,,,,,,,,,,,,,,,18,1.6319,1,0,17,17,11,1,3,×,6,3 × 6,congruent,smallerFirst,1,2,18,,,,,,,,
,,,,,,,,,,,,,,,752,2022-01-20_20h01.06.983,multiplicationStroop,2021.2.3,MacIntel,59.99880002,,,,,,,,,,,,,,,,,,,,,,,,,,,,,,,,,12,1.467,1,0,18,18,2,1,3,×,4,3 × 4,congruent,smallerFirst,1,2,12,,,,,,,,
,,,,,,,,,,,,,,,752,2022-01-20_20h01.06.983,multiplicationStroop,2021.2.3,MacIntel,59.99880002,,,,,,,,,,,,,,,,,,,,,,,,,,,,,,,,,14,1.6824,1,0,19,19,14,1,7,×,2,7 × 2,congruent,largerFirst,2,1,14,,,,,,,,
,,,,,,,,,,,,,,,752,2022-01-20_20h01.06.983,multiplicationStroop,2021.2.3,MacIntel,59.99880002,,,,,,,,,,,,,,,,,,,,,,,,,,,,,,,,,42,2.0155,1,0,20,20,3,1,6,×,7,6 × 7,congruent,smallerFirst,1,2,42,,,,,,,,
,,,,,,,,,,,,,,,752,2022-01-20_20h01.06.983,multiplicationStroop,2021.2.3,MacIntel,59.99880002,,,,,,,,,,,,,,,,,,,,,,,,,,,,,,,,,10,1.7155,1,0,21,21,24,1,5,×,2,5 × 2,congruent,largerFirst,2,1,10,,,,,,,,
,,,,,,,,,,,,,,,752,2022-01-20_20h01.06.983,multiplicationStroop,2021.2.3,MacIntel,59.99880002,,,,,,,,,,,,,,,,,,,,,,,,,,,,,,,,,54,1.6001,1,0,22,22,12,1,6,×,9,6 × 9,congruent,smallerFirst,1,2,54,,,,,,,,
,,,,,,,,,,,,,,,752,2022-01-20_20h01.06.983,multiplicationStroop,2021.2.3,MacIntel,59.99880002,,,,,,,,,,,,,,,,,,,,,,,,,,,,,,,,,25,1.7817,1,0,23,23,31,1,5,×,5,5 × 5,neutral,tie,2,1,25,,,,,,,,
,,,,,,,,,,,,,,,752,2022-01-20_20h01.06.983,multiplicationStroop,2021.2.3,MacIntel,59.99880002,,,,,,,,,,,,,,,,,,,,,,,,,,,,,,,,,16,1.5492,1,0,24,24,5,1,2,×,8,2 × 8,congruent,smallerFirst,1,2,16,,,,,,,,
,,,,,,,,,,,,,,,752,2022-01-20_20h01.06.983,multiplicationStroop,2021.2.3,MacIntel,59.99880002,,,,,,,,,,,,,,,,,,,,,,,,,,,,,,,,,40,3.0836,1,0,25,25,6,1,5,×,8,5 × 8,congruent,smallerFirst,1,2,40,,,,,,,,
,,,,,,,,,,,,,,,752,2022-01-20_20h01.06.983,multiplicationStroop,2021.2.3,MacIntel,59.99880002,,,,,,,,,,,,,,,,,,,,,,,,,,,,,,,,,24,1.6152,1,0,26,26,10,1,3,×,8,3 × 8,congruent,smallerFirst,1,2,24,,,,,,,,
,,,,,,,,,,,,,,,752,2022-01-20_20h01.06.983,multiplicationStroop,2021.2.3,MacIntel,59.99880002,,,,,,,,,,,,,,,,,,,,,,,,,,,,,,,,,56,1.7662,1,0,27,27,8,1,7,×,8,7 × 8,congruent,smallerFirst,1,2,56,,,,,,,,
,,,,,,,,,,,,,,,752,2022-01-20_20h01.06.983,multiplicationStroop,2021.2.3,MacIntel,59.99880002,,,,,,,,,,,,,,,,,,,,,,,,,,,,,,,,,21,1.7487,1,0,28,28,16,1,7,×,3,7 × 3,congruent,largerFirst,2,1,21,,,,,,,,
,,,,,,,,,,,,,,,752,2022-01-20_20h01.06.983,multiplicationStroop,2021.2.3,MacIntel,59.99880002,,,,,,,,,,,,,,,,,,,,,,,,,,,,,,,,,12,1.5666,1,0,29,29,19,1,6,×,2,6 × 2,congruent,largerFirst,2,1,12,,,,,,,,
,,,,,,,,,,,,,,,752,2022-01-20_20h01.06.983,multiplicationStroop,2021.2.3,MacIntel,59.99880002,,,,,,,,,,,,,,,,,,,,,,,,,,,,,,,,,48,1.7656,1,0,30,30,18,1,8,×,6,8 × 6,congruent,largerFirst,2,1,48,,,,,,,,
,,,,,,,,,,,,,,,752,2022-01-20_20h01.06.983,multiplicationStroop,2021.2.3,MacIntel,59.99880002,,,,,,,,,,,,,,,,,,,,,,,,,,,,,,,,,16,1.7498,1,0,31,31,30,1,4,×,4,4 × 4,neutral,tie,2,1,16,,,,,,,,
,,,,,,,,,,,,,,,752,2022-01-20_20h01.06.983,multiplicationStroop,2021.2.3,MacIntel,59.99880002,,,,,,,,,,,,,,,,,,,,,,,,,,,,,,,,,15,1.7821,1,0,32,32,4,1,3,×,5,3 × 5,congruent,smallerFirst,1,2,15,,,,,,,,
,,,,,,,,,,,,,,,752,2022-01-20_20h01.06.983,multiplicationStroop,2021.2.3,MacIntel,59.99880002,,,,,,,,,,,,,,,,,,,,,,,,,,,,,,,,,49,1.7659,1,0,33,33,33,1,7,×,7,7 × 7,neutral,tie,2,1,49,,,,,,,,
,,,,,,,,,,,,,,,752,2022-01-20_20h01.06.983,multiplicationStroop,2021.2.3,MacIntel,59.99880002,,,,,,,,,,,,,,,,,,,,,,,,,,,,,,,,,63,1.8658,1,0,34,34,21,1,9,×,7,9 × 7,congruent,largerFirst,2,1,63,,,,,,,,
,,,,,,,,,,,,,,,752,2022-01-20_20h01.06.983,multiplicationStroop,2021.2.3,MacIntel,59.99880002,,,,,,,,,,,,,,,,,,,,,,,,,,,,,,,,,24,1.7998,1,0,35,35,25,1,6,×,4,6 × 4,congruent,largerFirst,2,1,24,,,,,,,,
,,,,,,,,,,,,,,,752,2022-01-20_20h01.06.983,multiplicationStroop,2021.2.3,MacIntel,59.99880002,,,,,,,,,,,,,,,,,,,,,,,,,,,,,,,,,,,,,,,,,,,,,,,,,,0,0,0,2,1,stimulusFile/mult_blk3_congruent.xlsx,,
,,,,,,,,,,,,,,,752,2022-01-20_20h01.06.983,multiplicationStroop,2021.2.3,MacIntel,59.99880002,,,,,,,,,,,,,,,,,,,,,,,,,,,,,,,space,2.1521,18,1.7049,1,0,0,0,4,1,2,×,9,2 × 9,neutral,smallerFirst,1.5,1.5,18,,,,,,,,
,,,,,,,,,,,,,,,752,2022-01-20_20h01.06.983,multiplicationStroop,2021.2.3,MacIntel,59.99880002,,,,,,,,,,,,,,,,,,,,,,,,,,,,,,,,,72,2.1836,1,0,1,1,25,1,9,×,8,9 × 8,neutral,largerFirst,1.5,1.5,72,,,,,,,,
,,,,,,,,,,,,,,,752,2022-01-20_20h01.06.983,multiplicationStroop,2021.2.3,MacIntel,59.99880002,,,,,,,,,,,,,,,,,,,,,,,,,,,,,,,,,42,1.8824,1,0,2,2,20,1,7,×,6,7 × 6,neutral,largerFirst,1.5,1.5,42,,,,,,,,
,,,,,,,,,,,,,,,752,2022-01-20_20h01.06.983,multiplicationStroop,2021.2.3,MacIntel,59.99880002,,,,,,,,,,,,,,,,,,,,,,,,,,,,,,,,,25,1.7983,1,0,3,3,31,1,5,×,5,5 × 5,neutral,tie,1.5,1.5,25,,,,,,,,
,,,,,,,,,,,,,,,752,2022-01-20_20h01.06.983,multiplicationStroop,2021.2.3,MacIntel,59.99880002,,,,,,,,,,,,,,,,,,,,,,,,,,,,,,,,,12,1.4839,1,0,4,4,11,1,2,×,6,2 × 6,neutral,smallerFirst,1.5,1.5,12,,,,,,,,
,,,,,,,,,,,,,,,752,2022-01-20_20h01.06.983,multiplicationStroop,2021.2.3,MacIntel,59.99880002,,,,,,,,,,,,,,,,,,,,,,,,,,,,,,,,,36,1.699,1,0,5,5,32,1,6,×,6,6 × 6,neutral,tie,1.5,1.5,36,,,,,,,,
,,,,,,,,,,,,,,,752,2022-01-20_20h01.06.983,multiplicationStroop,2021.2.3,MacIntel,59.99880002,,,,,,,,,,,,,,,,,,,,,,,,,,,,,,,,,45,1.5649,1,0,6,6,24,1,9,×,5,9 × 5,neutral,largerFirst,1.5,1.5,45,,,,,,,,
,,,,,,,,,,,,,,,752,2022-01-20_20h01.06.983,multiplicationStroop,2021.2.3,MacIntel,59.99880002,,,,,,,,,,,,,,,,,,,,,,,,,,,,,,,,,64,1.6992,1,0,7,7,34,1,8,×,8,8 × 8,neutral,tie,1.5,1.5,64,,,,,,,,
,,,,,,,,,,,,,,,752,2022-01-20_20h01.06.983,multiplicationStroop,2021.2.3,MacIntel,59.99880002,,,,,,,,,,,,,,,,,,,,,,,,,,,,,,,,,27,2.0166,1,0,8,8,0,1,3,×,9,3 × 9,neutral,smallerFirst,1.5,1.5,27,,,,,,,,
,,,,,,,,,,,,,,,752,2022-01-20_20h01.06.983,multiplicationStroop,2021.2.3,MacIntel,59.99880002,,,,,,,,,,,,,,,,,,,,,,,,,,,,,,,,,32,1.6821,1,0,9,9,9,1,4,×,8,4 × 8,neutral,smallerFirst,1.5,1.5,32,,,,,,,,
,,,,,,,,,,,,,,,752,2022-01-20_20h01.06.983,multiplicationStroop,2021.2.3,MacIntel,59.99880002,,,,,,,,,,,,,,,,,,,,,,,,,,,,,,,,,15,1.5,1,0,10,10,19,1,5,×,3,5 × 3,neutral,largerFirst,1.5,1.5,15,,,,,,,,
,,,,,,,,,,,,,,,752,2022-01-20_20h01.06.983,multiplicationStroop,2021.2.3,MacIntel,59.99880002,,,,,,,,,,,,,,,,,,,,,,,,,,,,,,,,,36,1.6476,1,0,11,11,13,1,4,×,9,4 × 9,neutral,smallerFirst,1.5,1.5,36,,,,,,,,
,,,,,,,,,,,,,,,752,2022-01-20_20h01.06.983,multiplicationStroop,2021.2.3,MacIntel,59.99880002,,,,,,,,,,,,,,,,,,,,,,,,,,,,,,,,,49,1.601,1,0,12,12,33,1,7,×,7,7 × 7,neutral,tie,1.5,1.5,49,,,,,,,,
,,,,,,,,,,,,,,,752,2022-01-20_20h01.06.983,multiplicationStroop,2021.2.3,MacIntel,59.99880002,,,,,,,,,,,,,,,,,,,,,,,,,,,,,,,,,30,2.849,1,0,13,13,5,1,5,×,6,5 × 6,neutral,smallerFirst,1.5,1.5,30,,,,,,,,
,,,,,,,,,,,,,,,752,2022-01-20_20h01.06.983,multiplicationStroop,2021.2.3,MacIntel,59.99880002,,,,,,,,,,,,,,,,,,,,,,,,,,,,,,,,,28,1.769,1,0,14,14,3,1,4,×,7,4 × 7,neutral,smallerFirst,1.5,1.5,28,,,,,,,,
,,,,,,,,,,,,,,,752,2022-01-20_20h01.06.983,multiplicationStroop,2021.2.3,MacIntel,59.99880002,,,,,,,,,,,,,,,,,,,,,,,,,,,,,,,,,63,3.4316,1,0,15,15,26,1,9,×,7,9 × 7,neutral,largerFirst,1.5,1.5,63,,,,,,,,
,,,,,,,,,,,,,,,752,2022-01-20_20h01.06.983,multiplicationStroop,2021.2.3,MacIntel,59.99880002,,,,,,,,,,,,,,,,,,,,,,,,,,,,,,,,,18,1.7666,1,0,16,16,14,1,6,×,3,6 × 3,neutral,largerFirst,1.5,1.5,18,,,,,,,,
,,,,,,,,,,,,,,,752,2022-01-20_20h01.06.983,multiplicationStroop,2021.2.3,MacIntel,59.99880002,,,,,,,,,,,,,,,,,,,,,,,,,,,,,,,,,21,1.5323,1,0,17,17,22,1,7,×,3,7 × 3,neutral,largerFirst,1.5,1.5,21,,,,,,,,
,,,,,,,,,,,,,,,752,2022-01-20_20h01.06.983,multiplicationStroop,2021.2.3,MacIntel,59.99880002,,,,,,,,,,,,,,,,,,,,,,,,,,,,,,,,,24,1.8485,1,0,18,18,16,1,6,×,4,6 × 4,neutral,largerFirst,1.5,1.5,24,,,,,,,,
,,,,,,,,,,,,,,,752,2022-01-20_20h01.06.983,multiplicationStroop,2021.2.3,MacIntel,59.99880002,,,,,,,,,,,,,,,,,,,,,,,,,,,,,,,,,9,1.4491,1,0,19,19,29,1,3,×,3,3 × 3,neutral,tie,1.5,1.5,9,,,,,,,,
,,,,,,,,,,,,,,,752,2022-01-20_20h01.06.983,multiplicationStroop,2021.2.3,MacIntel,59.99880002,,,,,,,,,,,,,,,,,,,,,,,,,,,,,,,,,14,1.3664,1,0,20,20,2,1,2,×,7,2 × 7,neutral,smallerFirst,1.5,1.5,14,,,,,,,,
,,,,,,,,,,,,,,,752,2022-01-20_20h01.06.983,multiplicationStroop,2021.2.3,MacIntel,59.99880002,,,,,,,,,,,,,,,,,,,,,,,,,,,,,,,,,54,1.5825,1,0,21,21,21,1,9,×,6,9 × 6,neutral,largerFirst,1.5,1.5,54,,,,,,,,
,,,,,,,,,,,,,,,752,2022-01-20_20h01.06.983,multiplicationStroop,2021.2.3,MacIntel,59.99880002,,,,,,,,,,,,,,,,,,,,,,,,,,,,,,,,,81,1.5503,1,0,22,22,35,1,9,×,9,9 × 9,neutral,tie,1.5,1.5,81,,,,,,,,
,,,,,,,,,,,,,,,752,2022-01-20_20h01.06.983,multiplicationStroop,2021.2.3,MacIntel,59.99880002,,,,,,,,,,,,,,,,,,,,,,,,,,,,,,,,,56,1.7159,1,0,23,23,23,1,8,×,7,8 × 7,neutral,largerFirst,1.5,1.5,56,,,,,,,,
,,,,,,,,,,,,,,,752,2022-01-20_20h01.06.983,multiplicationStroop,2021.2.3,MacIntel,59.99880002,,,,,,,,,,,,,,,,,,,,,,,,,,,,,,,,,35,1.8492,1,0,24,24,15,1,7,×,5,7 × 5,neutral,largerFirst,1.5,1.5,35,,,,,,,,
,,,,,,,,,,,,,,,752,2022-01-20_20h01.06.983,multiplicationStroop,2021.2.3,MacIntel,59.99880002,,,,,,,,,,,,,,,,,,,,,,,,,,,,,,,,,8,1.5657,1,0,25,25,17,1,4,×,2,4 × 2,neutral,largerFirst,1.5,1.5,8,,,,,,,,
,,,,,,,,,,,,,,,752,2022-01-20_20h01.06.983,multiplicationStroop,2021.2.3,MacIntel,59.99880002,,,,,,,,,,,,,,,,,,,,,,,,,,,,,,,,,16,1.9,1,0,26,26,27,1,8,×,2,8 × 2,neutral,largerFirst,1.5,1.5,16,,,,,,,,
,,,,,,,,,,,,,,,752,2022-01-20_20h01.06.983,multiplicationStroop,2021.2.3,MacIntel,59.99880002,,,,,,,,,,,,,,,,,,,,,,,,,,,,,,,,,12,1.5665,1,0,27,27,7,1,3,×,4,3 × 4,neutral,smallerFirst,1.5,1.5,12,,,,,,,,
,,,,,,,,,,,,,,,752,2022-01-20_20h01.06.983,multiplicationStroop,2021.2.3,MacIntel,59.99880002,,,,,,,,,,,,,,,,,,,,,,,,,,,,,,,,,16,1.5642,1,0,28,28,30,1,4,×,4,4 × 4,neutral,tie,1.5,1.5,16,,,,,,,,
,,,,,,,,,,,,,,,752,2022-01-20_20h01.06.983,multiplicationStroop,2021.2.3,MacIntel,59.99880002,,,,,,,,,,,,,,,,,,,,,,,,,,,,,,,,,24,1.7169,1,0,29,29,8,1,3,×,8,3 × 8,neutral,smallerFirst,1.5,1.5,24,,,,,,,,
,,,,,,,,,,,,,,,752,2022-01-20_20h01.06.983,multiplicationStroop,2021.2.3,MacIntel,59.99880002,,,,,,,,,,,,,,,,,,,,,,,,,,,,,,,,,40,2.2661,1,0,30,30,10,1,5,×,8,5 × 8,neutral,smallerFirst,1.5,1.5,40,,,,,,,,
,,,,,,,,,,,,,,,752,2022-01-20_20h01.06.983,multiplicationStroop,2021.2.3,MacIntel,59.99880002,,,,,,,,,,,,,,,,,,,,,,,,,,,,,,,,,48,1.7492,1,0,31,31,1,1,6,×,8,6 × 8,neutral,smallerFirst,1.5,1.5,48,,,,,,,,
,,,,,,,,,,,,,,,752,2022-01-20_20h01.06.983,multiplicationStroop,2021.2.3,MacIntel,59.99880002,,,,,,,,,,,,,,,,,,,,,,,,,,,,,,,,,20,1.8496,1,0,32,32,6,1,4,×,5,4 × 5,neutral,smallerFirst,1.5,1.5,20,,,,,,,,
,,,,,,,,,,,,,,,752,2022-01-20_20h01.06.983,multiplicationStroop,2021.2.3,MacIntel,59.99880002,,,,,,,,,,,,,,,,,,,,,,,,,,,,,,,,,10,1.5155,1,0,33,33,18,1,5,×,2,5 × 2,neutral,largerFirst,1.5,1.5,10,,,,,,,,
,,,,,,,,,,,,,,,752,2022-01-20_20h01.06.983,multiplicationStroop,2021.2.3,MacIntel,59.99880002,,,,,,,,,,,,,,,,,,,,,,,,,,,,,,,,,6,1.466,1,0,34,34,12,1,2,×,3,2 × 3,neutral,smallerFirst,1.5,1.5,6,,,,,,,,
,,,,,,,,,,,,,,,752,2022-01-20_20h01.06.983,multiplicationStroop,2021.2.3,MacIntel,59.99880002,,,,,,,,,,,,,,,,,,,,,,,,,,,,,,,,,4,1.4991,1,0,35,35,28,1,2,×,2,2 × 2,neutral,tie,1.5,1.5,4,,,,,,,,
,,,,,,,,,,,,,,,752,2022-01-20_20h01.06.983,multiplicationStroop,2021.2.3,MacIntel,59.99880002,,,,,,,,,,,,,,,,,,,,,,,,,,,,,,,,,,,,,,,,,,,,,,,,,,0,1,1,0,1,stimulusFile/mult_blk1.xlsx,,
,,,,,,,,,,,,,,,752,2022-01-20_20h01.06.983,multiplicationStroop,2021.2.3,MacIntel,59.99880002,,,,,,,,,,,,,,,,,,,,,,,,,,,,,,,space,1.0154,15,1.471,1,0,0,0,18,1,5,×,3,5 × 3,congruent,largerFirst,2,1,15,,,,,,,,
,,,,,,,,,,,,,,,752,2022-01-20_20h01.06.983,multiplicationStroop,2021.2.3,MacIntel,59.99880002,,,,,,,,,,,,,,,,,,,,,,,,,,,,,,,,,9,1.315,1,0,1,1,29,1,3,×,3,3 × 3,neutral,tie,1,2,9,,,,,,,,
,,,,,,,,,,,,,,,752,2022-01-20_20h01.06.983,multiplicationStroop,2021.2.3,MacIntel,59.99880002,,,,,,,,,,,,,,,,,,,,,,,,,,,,,,,,,6,1.3492,1,0,2,2,27,1,3,×,2,3 × 2,congruent,largerFirst,2,1,6,,,,,,,,
,,,,,,,,,,,,,,,752,2022-01-20_20h01.06.983,multiplicationStroop,2021.2.3,MacIntel,59.99880002,,,,,,,,,,,,,,,,,,,,,,,,,,,,,,,,,49,2.3007,1,0,3,3,33,1,7,×,7,7 × 7,neutral,tie,1,2,49,,,,,,,,
,,,,,,,,,,,,,,,752,2022-01-20_20h01.06.983,multiplicationStroop,2021.2.3,MacIntel,59.99880002,,,,,,,,,,,,,,,,,,,,,,,,,,,,,,,,,12,1.4824,1,0,4,4,16,1,4,×,3,4 × 3,congruent,largerFirst,2,1,12,,,,,,,,
,,,,,,,,,,,,,,,752,2022-01-20_20h01.06.983,multiplicationStroop,2021.2.3,MacIntel,59.99880002,,,,,,,,,,,,,,,,,,,,,,,,,,,,,,,,,20,1.8492,1,0,5,5,21,1,5,×,4,5 × 4,congruent,largerFirst,2,1,20,,,,,,,,
,,,,,,,,,,,,,,,752,2022-01-20_20h01.06.983,multiplicationStroop,2021.2.3,MacIntel,59.99880002,,,,,,,,,,,,,,,,,,,,,,,,,,,,,,,,,32,1.6821,1,0,6,6,6,1,4,×,8,4 × 8,congruent,smallerFirst,1,2,32,,,,,,,,
,,,,,,,,,,,,,,,752,2022-01-20_20h01.06.983,multiplicationStroop,2021.2.3,MacIntel,59.99880002,,,,,,,,,,,,,,,,,,,,,,,,,,,,,,,,,42,1.6996,1,0,7,7,17,1,7,×,6,7 × 6,congruent,largerFirst,2,1,42,,,,,,,,
,,,,,,,,,,,,,,,752,2022-01-20_20h01.06.983,multiplicationStroop,2021.2.3,MacIntel,59.99880002,,,,,,,,,,,,,,,,,,,,,,,,,,,,,,,,,27,2.4475,1,0,8,8,12,1,3,×,9,3 × 9,congruent,smallerFirst,1,2,27,,,,,,,,
,,,,,,,,,,,,,,,752,2022-01-20_20h01.06.983,multiplicationStroop,2021.2.3,MacIntel,59.99880002,,,,,,,,,,,,,,,,,,,,,,,,,,,,,,,,,40,1.648,1,0,9,9,20,1,8,×,5,8 × 5,congruent,largerFirst,2,1,40,,,,,,,,
,,,,,,,,,,,,,,,752,2022-01-20_20h01.06.983,multiplicationStroop,2021.2.3,MacIntel,59.99880002,,,,,,,,,,,,,,,,,,,,,,,,,,,,,,,,,24,1.6333,1,0,10,10,11,1,4,×,6,4 × 6,congruent,smallerFirst,1,2,24,,,,,,,,
,,,,,,,,,,,,,,,752,2022-01-20_20h01.06.983,multiplicationStroop,2021.2.3,MacIntel,59.99880002,,,,,,,,,,,,,,,,,,,,,,,,,,,,,,,,,10,1.5335,1,0,11,11,10,1,2,×,5,2 × 5,congruent,smallerFirst,1,2,10,,,,,,,,
,,,,,,,,,,,,,,,752,2022-01-20_20h01.06.983,multiplicationStroop,2021.2.3,MacIntel,59.99880002,,,,,,,,,,,,,,,,,,,,,,,,,,,,,,,,,35,1.766,1,0,12,12,15,1,7,×,5,7 × 5,congruent,largerFirst,2,1,35,,,,,,,,
,,,,,,,,,,,,,,,752,2022-01-20_20h01.06.983,multiplicationStroop,2021.2.3,MacIntel,59.99880002,,,,,,,,,,,,,,,,,,,,,,,,,,,,,,,,,16,1.5158,1,0,13,13,30,1,4,×,4,4 × 4,neutral,tie,1,2,16,,,,,,,,
,,,,,,,,,,,,,,,752,2022-01-20_20h01.06.983,multiplicationStroop,2021.2.3,MacIntel,59.99880002,,,,,,,,,,,,,,,,,,,,,,,,,,,,,,,,,45,1.4664,1,0,14,14,9,1,5,×,9,5 × 9,congruent,smallerFirst,1,2,45,,,,,,,,
,,,,,,,,,,,,,,,752,2022-01-20_20h01.06.983,multiplicationStroop,2021.2.3,MacIntel,59.99880002,,,,,,,,,,,,,,,,,,,,,,,,,,,,,,,,,30,1.5978,1,0,15,15,1,1,5,×,6,5 × 6,congruent,smallerFirst,1,2,30,,,,,,,,
,,,,,,,,,,,,,,,752,2022-01-20_20h01.06.983,multiplicationStroop,2021.2.3,MacIntel,59.99880002,,,,,,,,,,,,,,,,,,,,,,,,,,,,,,,,,54,1.6166,1,0,16,16,26,1,9,×,6,9 × 6,congruent,largerFirst,2,1,54,,,,,,,,
,,,,,,,,,,,,,,,752,2022-01-20_20h01.06.983,multiplicationStroop,2021.2.3,MacIntel,59.99880002,,,,,,,,,,,,,,,,,,,,,,,,,,,,,,,,,25,1.5502,1,0,17,17,31,1,5,×,5,5 × 5,neutral,tie,1,2,25,,,,,,,,
,,,,,,,,,,,,,,,752,2022-01-20_20h01.06.983,multiplicationStroop,2021.2.3,MacIntel,59.99880002,,,,,,,,,,,,,,,,,,,,,,,,,,,,,,,,,21,1.5488,1,0,18,18,2,1,3,×,7,3 × 7,congruent,smallerFirst,1,2,21,,,,,,,,
,,,,,,,,,,,,,,,752,2022-01-20_20h01.06.983,multiplicationStroop,2021.2.3,MacIntel,59.99880002,,,,,,,,,,,,,,,,,,,,,,,,,,,,,,,,,63,1.8992,1,0,19,19,7,1,7,×,9,7 × 9,congruent,smallerFirst,1,2,63,,,,,,,,
,,,,,,,,,,,,,,,752,2022-01-20_20h01.06.983,multiplicationStroop,2021.2.3,MacIntel,59.99880002,,,,,,,,,,,,,,,,,,,,,,,,,,,,,,,,,14,1.3496,1,0,20,20,0,1,2,×,7,2 × 7,congruent,smallerFirst,1,2,14,,,,,,,,
,,,,,,,,,,,,,,,752,2022-01-20_20h01.06.983,multiplicationStroop,2021.2.3,MacIntel,59.99880002,,,,,,,,,,,,,,,,,,,,,,,,,,,,,,,,,36,2.4325,1,0,21,21,14,1,9,×,4,9 × 4,congruent,largerFirst,2,1,36,,,,,,,,
,,,,,,,,,,,,,,,752,2022-01-20_20h01.06.983,multiplicationStroop,2021.2.3,MacIntel,59.99880002,,,,,,,,,,,,,,,,,,,,,,,,,,,,,,,,,64,1.7336,1,0,22,22,34,1,8,×,8,8 × 8,neutral,tie,1,2,64,,,,,,,,
,,,,,,,,,,,,,,,752,2022-01-20_20h01.06.983,multiplicationStroop,2021.2.3,MacIntel,59.99880002,,,,,,,,,,,,,,,,,,,,,,,,,,,,,,,,,56,2.465,1,0,23,23,22,1,8,×,7,8 × 7,congruent,largerFirst,2,1,56,,,,,,,,
,,,,,,,,,,,,,,,752,2022-01-20_20h01.06.983,multiplicationStroop,2021.2.3,MacIntel,59.99880002,,,,,,,,,,,,,,,,,,,,,,,,,,,,,,,,,24,1.7659,1,0,24,24,24,1,8,×,3,8 × 3,congruent,largerFirst,2,1,24,,,,,,,,
,,,,,,,,,,,,,,,752,2022-01-20_20h01.06.983,multiplicationStroop,2021.2.3,MacIntel,59.99880002,,,,,,,,,,,,,,,,,,,,,,,,,,,,,,,,,16,1.5825,1,0,25,25,19,1,8,×,2,8 × 2,congruent,largerFirst,2,1,16,,,,,,,,
,,,,,,,,,,,,,,,752,2022-01-20_20h01.06.983,multiplicationStroop,2021.2.3,MacIntel,59.99880002,,,,,,,,,,,,,,,,,,,,,,,,,,,,,,,,,18,2.4327,1,0,26,26,8,1,2,×,9,2 × 9,congruent,smallerFirst,1,2,18,,,,,,,,
,,,,,,,,,,,,,,,752,2022-01-20_20h01.06.983,multiplicationStroop,2021.2.3,MacIntel,59.99880002,,,,,,,,,,,,,,,,,,,,,,,,,,,,,,,,,28,1.7826,1,0,27,27,13,1,4,×,7,4 × 7,congruent,smallerFirst,1,2,28,,,,,,,,
,,,,,,,,,,,,,,,752,2022-01-20_20h01.06.983,multiplicationStroop,2021.2.3,MacIntel,59.99880002,,,,,,,,,,,,,,,,,,,,,,,,,,,,,,,,,18,1.9156,1,0,28,28,25,1,6,×,3,6 × 3,congruent,largerFirst,2,1,18,,,,,,,,
,,,,,,,,,,,,,,,752,2022-01-20_20h01.06.983,multiplicationStroop,2021.2.3,MacIntel,59.99880002,,,,,,,,,,,,,,,,,,,,,,,,,,,,,,,,,12,1.4146,1,0,29,29,5,1,2,×,6,2 × 6,congruent,smallerFirst,1,2,12,,,,,,,,
,,,,,,,,,,,,,,,752,2022-01-20_20h01.06.983,multiplicationStroop,2021.2.3,MacIntel,59.99880002,,,,,,,,,,,,,,,,,,,,,,,,,,,,,,,,,8,1.5499,1,0,30,30,23,1,4,×,2,4 × 2,congruent,largerFirst,2,1,8,,,,,,,,
,,,,,,,,,,,,,,,752,2022-01-20_20h01.06.983,multiplicationStroop,2021.2.3,MacIntel,59.99880002,,,,,,,,,,,,,,,,,,,,,,,,,,,,,,,,,48,1.7826,1,0,31,31,4,1,6,×,8,6 × 8,congruent,smallerFirst,1,2,48,,,,,,,,
,,,,,,,,,,,,,,,752,2022-01-20_20h01.06.983,multiplicationStroop,2021.2.3,MacIntel,59.99880002,,,,,,,,,,,,,,,,,,,,,,,,,,,,,,,,,72,1.9991,1,0,32,32,3,1,8,×,9,8 × 9,congruent,smallerFirst,1,2,72,,,,,,,,
,,,,,,,,,,,,,,,752,2022-01-20_20h01.06.983,multiplicationStroop,2021.2.3,MacIntel,59.99880002,,,,,,,,,,,,,,,,,,,,,,,,,,,,,,,,,4,1.6336,1,0,33,33,28,1,2,×,2,2 × 2,neutral,tie,1,2,4,,,,,,,,
,,,,,,,,,,,,,,,752,2022-01-20_20h01.06.983,multiplicationStroop,2021.2.3,MacIntel,59.99880002,,,,,,,,,,,,,,,,,,,,,,,,,,,,,,,,,36,2.0824,1,0,34,34,32,1,6,×,6,6 × 6,neutral,tie,1,2,36,,,,,,,,
,,,,,,,,,,,,,,,752,2022-01-20_20h01.06.983,multiplicationStroop,2021.2.3,MacIntel,59.99880002,,,,,,,,,,,,,,,,,,,,,,,,,,,,,,,,,81,1.5665,1,0,35,35,35,1,9,×,9,9 × 9,neutral,tie,1,2,81,,,,,,,,
,,,,,,,,,,,,,,,752,2022-01-20_20h01.06.983,multiplicationStroop,2021.2.3,MacIntel,59.99880002,,,,,,,,,,,,,,,,,,,,,,,,,,,,,,,,,,,,,,,,,,,,,,,,,,0,2,2,3,1,stimulusFile/mult_blk4_congruent.xlsx,,
,,,,,,,,,,,,,,,752,2022-01-20_20h01.06.983,multiplicationStroop,2021.2.3,MacIntel,59.99880002,,,,,,,,,,,,,,,,,,,,,,,,,,,,,,,space,1.135,63,1.8678,1,0,0,0,17,1,9,×,7,9 × 7,incongruent,largerFirst,1,2,63,,,,,,,,
,,,,,,,,,,,,,,,752,2022-01-20_20h01.06.983,multiplicationStroop,2021.2.3,MacIntel,59.99880002,,,,,,,,,,,,,,,,,,,,,,,,,,,,,,,,,54,1.7149,1,0,1,1,20,1,9,×,6,9 × 6,incongruent,largerFirst,1,2,54,,,,,,,,
,,,,,,,,,,,,,,,752,2022-01-20_20h01.06.983,multiplicationStroop,2021.2.3,MacIntel,59.99880002,,,,,,,,,,,,,,,,,,,,,,,,,,,,,,,,,64,2.5168,1,0,2,2,34,1,8,×,8,8 × 8,neutral,tie,2,1,64,,,,,,,,
,,,,,,,,,,,,,,,752,2022-01-20_20h01.06.983,multiplicationStroop,2021.2.3,MacIntel,59.99880002,,,,,,,,,,,,,,,,,,,,,,,,,,,,,,,,,35,2.0175,0,0,3,3,31,1,5,×,5,5 × 5,neutral,tie,2,1,25,,,,,,,,
,,,,,,,,,,,,,,,752,2022-01-20_20h01.06.983,multiplicationStroop,2021.2.3,MacIntel,59.99880002,,,,,,,,,,,,,,,,,,,,,,,,,,,,,,,,,14,2.1171,1,0,4,4,18,1,7,×,2,7 × 2,incongruent,largerFirst,1,2,14,,,,,,,,
,,,,,,,,,,,,,,,752,2022-01-20_20h01.06.983,multiplicationStroop,2021.2.3,MacIntel,59.99880002,,,,,,,,,,,,,,,,,,,,,,,,,,,,,,,,,28,2.2157,1,0,5,5,2,1,4,×,7,4 × 7,incongruent,smallerFirst,2,1,28,,,,,,,,
,,,,,,,,,,,,,,,752,2022-01-20_20h01.06.983,multiplicationStroop,2021.2.3,MacIntel,59.99880002,,,,,,,,,,,,,,,,,,,,,,,,,,,,,,,,,56,1.7999,1,0,6,6,0,1,7,×,8,7 × 8,incongruent,smallerFirst,2,1,56,,,,,,,,
,,,,,,,,,,,,,,,752,2022-01-20_20h01.06.983,multiplicationStroop,2021.2.3,MacIntel,59.99880002,,,,,,,,,,,,,,,,,,,,,,,,,,,,,,,,,9,1.4822,1,0,7,7,29,1,3,×,3,3 × 3,neutral,tie,2,1,9,,,,,,,,
,,,,,,,,,,,,,,,752,2022-01-20_20h01.06.983,multiplicationStroop,2021.2.3,MacIntel,59.99880002,,,,,,,,,,,,,,,,,,,,,,,,,,,,,,,,,6,1.6333,1,0,8,8,25,1,3,×,2,3 × 2,incongruent,largerFirst,1,2,6,,,,,,,,
,,,,,,,,,,,,,,,752,2022-01-20_20h01.06.983,multiplicationStroop,2021.2.3,MacIntel,59.99880002,,,,,,,,,,,,,,,,,,,,,,,,,,,,,,,,,16,1.5154,1,0,9,9,30,1,4,×,4,4 × 4,neutral,tie,2,1,16,,,,,,,,
,,,,,,,,,,,,,,,752,2022-01-20_20h01.06.983,multiplicationStroop,2021.2.3,MacIntel,59.99880002,,,,,,,,,,,,,,,,,,,,,,,,,,,,,,,,,32,1.9998,1,0,10,10,21,1,8,×,4,8 × 4,incongruent,largerFirst,1,2,32,,,,,,,,
,,,,,,,,,,,,,,,752,2022-01-20_20h01.06.983,multiplicationStroop,2021.2.3,MacIntel,59.99880002,,,,,,,,,,,,,,,,,,,,,,,,,,,,,,,,,24,1.8825,1,0,11,11,6,1,4,×,6,4 × 6,incongruent,smallerFirst,2,1,24,,,,,,,,
,,,,,,,,,,,,,,,752,2022-01-20_20h01.06.983,multiplicationStroop,2021.2.3,MacIntel,59.99880002,,,,,,,,,,,,,,,,,,,,,,,,,,,,,,,,,35,1.7992,1,0,12,12,26,1,7,×,5,7 × 5,incongruent,largerFirst,1,2,35,,,,,,,,
,,,,,,,,,,,,,,,752,2022-01-20_20h01.06.983,multiplicationStroop,2021.2.3,MacIntel,59.99880002,,,,,,,,,,,,,,,,,,,,,,,,,,,,,,,,,36,1.8658,1,0,13,13,32,1,6,×,6,6 × 6,neutral,tie,2,1,36,,,,,,,,
,,,,,,,,,,,,,,,752,2022-01-20_20h01.06.983,multiplicationStroop,2021.2.3,MacIntel,59.99880002,,,,,,,,,,,,,,,,,,,,,,,,,,,,,,,,,45,2.4328,1,0,14,14,8,1,5,×,9,5 × 9,incongruent,smallerFirst,2,1,45,,,,,,,,
,,,,,,,,,,,,,,,752,2022-01-20_20h01.06.983,multiplicationStroop,2021.2.3,MacIntel,59.99880002,,,,,,,,,,,,,,,,,,,,,,,,,,,,,,,,,12,1.5821,1,0,15,15,5,1,2,×,6,2 × 6,incongruent,smallerFirst,2,1,12,,,,,,,,
,,,,,,,,,,,,,,,752,2022-01-20_20h01.06.983,multiplicationStroop,2021.2.3,MacIntel,59.99880002,,,,,,,,,,,,,,,,,,,,,,,,,,,,,,,,,18,2.5666,1,0,16,16,16,1,9,×,2,9 × 2,incongruent,largerFirst,1,2,18,,,,,,,,
,,,,,,,,,,,,,,,752,2022-01-20_20h01.06.983,multiplicationStroop,2021.2.3,MacIntel,59.99880002,,,,,,,,,,,,,,,,,,,,,,,,,,,,,,,,,40,1.7825,1,0,17,17,27,1,8,×,5,8 × 5,incongruent,largerFirst,1,2,40,,,,,,,,
,,,,,,,,,,,,,,,752,2022-01-20_20h01.06.983,multiplicationStroop,2021.2.3,MacIntel,59.99880002,,,,,,,,,,,,,,,,,,,,,,,,,,,,,,,,,42,1.6811,1,0,18,18,3,1,6,×,7,6 × 7,incongruent,smallerFirst,2,1,42,,,,,,,,
,,,,,,,,,,,,,,,752,2022-01-20_20h01.06.983,multiplicationStroop,2021.2.3,MacIntel,59.99880002,,,,,,,,,,,,,,,,,,,,,,,,,,,,,,,,,36,1.7831,1,0,19,19,1,1,4,×,9,4 × 9,incongruent,smallerFirst,2,1,36,,,,,,,,
,,,,,,,,,,,,,,,752,2022-01-20_20h01.06.983,multiplicationStroop,2021.2.3,MacIntel,59.99880002,,,,,,,,,,,,,,,,,,,,,,,,,,,,,,,,,30,1.8168,1,0,20,20,11,1,5,×,6,5 × 6,incongruent,smallerFirst,2,1,30,,,,,,,,
,,,,,,,,,,,,,,,752,2022-01-20_20h01.06.983,multiplicationStroop,2021.2.3,MacIntel,59.99880002,,,,,,,,,,,,,,,,,,,,,,,,,,,,,,,,,20,1.7312,1,0,21,21,13,1,4,×,5,4 × 5,incongruent,smallerFirst,2,1,20,,,,,,,,
,,,,,,,,,,,,,,,752,2022-01-20_20h01.06.983,multiplicationStroop,2021.2.3,MacIntel,59.99880002,,,,,,,,,,,,,,,,,,,,,,,,,,,,,,,,,4,1.3333,1,0,22,22,28,1,2,×,2,2 × 2,neutral,tie,2,1,4,,,,,,,,
,,,,,,,,,,,,,,,752,2022-01-20_20h01.06.983,multiplicationStroop,2021.2.3,MacIntel,59.99880002,,,,,,,,,,,,,,,,,,,,,,,,,,,,,,,,,18,1.6663,1,0,23,23,22,1,6,×,3,6 × 3,incongruent,largerFirst,1,2,18,,,,,,,,
,,,,,,,,,,,,,,,752,2022-01-20_20h01.06.983,multiplicationStroop,2021.2.3,MacIntel,59.99880002,,,,,,,,,,,,,,,,,,,,,,,,,,,,,,,,,49,1.9995,1,0,24,24,33,1,7,×,7,7 × 7,neutral,tie,2,1,49,,,,,,,,
,,,,,,,,,,,,,,,752,2022-01-20_20h01.06.983,multiplicationStroop,2021.2.3,MacIntel,59.99880002,,,,,,,,,,,,,,,,,,,,,,,,,,,,,,,,,21,1.549,1,0,25,25,12,1,3,×,7,3 × 7,incongruent,smallerFirst,2,1,21,,,,,,,,
,,,,,,,,,,,,,,,752,2022-01-20_20h01.06.983,multiplicationStroop,2021.2.3,MacIntel,59.99880002,,,,,,,,,,,,,,,,,,,,,,,,,,,,,,,,,10,1.3981,1,0,26,26,7,1,2,×,5,2 × 5,incongruent,smallerFirst,2,1,10,,,,,,,,
,,,,,,,,,,,,,,,752,2022-01-20_20h01.06.983,multiplicationStroop,2021.2.3,MacIntel,59.99880002,,,,,,,,,,,,,,,,,,,,,,,,,,,,,,,,,8,1.5991,1,0,27,27,10,1,2,×,4,2 × 4,incongruent,smallerFirst,2,1,8,,,,,,,,
,,,,,,,,,,,,,,,752,2022-01-20_20h01.06.983,multiplicationStroop,2021.2.3,MacIntel,59.99880002,,,,,,,,,,,,,,,,,,,,,,,,,,,,,,,,,15,1.584,1,0,28,28,24,1,5,×,3,5 × 3,incongruent,largerFirst,1,2,15,,,,,,,,
,,,,,,,,,,,,,,,752,2022-01-20_20h01.06.983,multiplicationStroop,2021.2.3,MacIntel,59.99880002,,,,,,,,,,,,,,,,,,,,,,,,,,,,,,,,,12,1.3652,1,0,29,29,19,1,4,×,3,4 × 3,incongruent,largerFirst,1,2,12,,,,,,,,
,,,,,,,,,,,,,,,752,2022-01-20_20h01.06.983,multiplicationStroop,2021.2.3,MacIntel,59.99880002,,,,,,,,,,,,,,,,,,,,,,,,,,,,,,,,,72,3.4508,1,0,30,30,14,1,9,×,8,9 × 8,incongruent,largerFirst,1,2,72,,,,,,,,
,,,,,,,,,,,,,,,752,2022-01-20_20h01.06.983,multiplicationStroop,2021.2.3,MacIntel,59.99880002,,,,,,,,,,,,,,,,,,,,,,,,,,,,,,,,,24,1.582,1,0,31,31,23,1,8,×,3,8 × 3,incongruent,largerFirst,1,2,24,,,,,,,,
,,,,,,,,,,,,,,,752,2022-01-20_20h01.06.983,multiplicationStroop,2021.2.3,MacIntel,59.99880002,,,,,,,,,,,,,,,,,,,,,,,,,,,,,,,,,48,1.8162,1,0,32,32,15,1,8,×,6,8 × 6,incongruent,largerFirst,1,2,48,,,,,,,,
,,,,,,,,,,,,,,,752,2022-01-20_20h01.06.983,multiplicationStroop,2021.2.3,MacIntel,59.99880002,,,,,,,,,,,,,,,,,,,,,,,,,,,,,,,,,27,1.8158,1,0,33,33,4,1,3,×,9,3 × 9,incongruent,smallerFirst,2,1,27,,,,,,,,
,,,,,,,,,,,,,,,752,2022-01-20_20h01.06.983,multiplicationStroop,2021.2.3,MacIntel,59.99880002,,,,,,,,,,,,,,,,,,,,,,,,,,,,,,,,,81,1.5994,1,0,34,34,35,1,9,×,9,9 × 9,neutral,tie,2,1,81,,,,,,,,
,,,,,,,,,,,,,,,752,2022-01-20_20h01.06.983,multiplicationStroop,2021.2.3,MacIntel,59.99880002,,,,,,,,,,,,,,,,,,,,,,,,,,,,,,,,,16,1.5484,1,0,35,35,9,1,2,×,8,2 × 8,incongruent,smallerFirst,2,1,16,,,,,,,,
,,,,,,,,,,,,,,,752,2022-01-20_20h01.06.983,multiplicationStroop,2021.2.3,MacIntel,59.99880002,,,,,,,,,,,,,,,,,,,,,,,,,,,,,,,,,,,,,,,,,,,,,,,,,,0,3,3,4,1,stimulusFile/mult_blk5_INcongruent.xlsx,,
,,,,,,,,,,,,,,,752,2022-01-20_20h01.06.983,multiplicationStroop,2021.2.3,MacIntel,59.99880002,,,,,,,,,,,,,,,,,,,,,,,,,,,,,,,space,0.7597,81,1.5553,1,0,0,0,35,1,9,×,9,9 × 9,incongruent,tie,1,2,81,,,,,,,,
,,,,,,,,,,,,,,,752,2022-01-20_20h01.06.983,multiplicationStroop,2021.2.3,MacIntel,59.99880002,,,,,,,,,,,,,,,,,,,,,,,,,,,,,,,,,27,1.8506,1,0,1,1,18,1,9,×,3,9 × 3,incongruent,largerFirst,1,2,27,,,,,,,,
,,,,,,,,,,,,,,,752,2022-01-20_20h01.06.983,multiplicationStroop,2021.2.3,MacIntel,59.99880002,,,,,,,,,,,,,,,,,,,,,,,,,,,,,,,,,64,1.8492,1,0,2,2,34,1,8,×,8,8 × 8,incongruent,tie,1,2,64,,,,,,,,
,,,,,,,,,,,,,,,752,2022-01-20_20h01.06.983,multiplicationStroop,2021.2.3,MacIntel,59.99880002,,,,,,,,,,,,,,,,,,,,,,,,,,,,,,,,,9,1.2829,1,0,3,3,29,1,3,×,3,3 × 3,incongruent,tie,1,2,9,,,,,,,,
,,,,,,,,,,,,,,,752,2022-01-20_20h01.06.983,multiplicationStroop,2021.2.3,MacIntel,59.99880002,,,,,,,,,,,,,,,,,,,,,,,,,,,,,,,,,16,1.4993,1,0,4,4,30,1,4,×,4,4 × 4,incongruent,tie,1,2,16,,,,,,,,
,,,,,,,,,,,,,,,752,2022-01-20_20h01.06.983,multiplicationStroop,2021.2.3,MacIntel,59.99880002,,,,,,,,,,,,,,,,,,,,,,,,,,,,,,,,,72,2.015,1,0,5,5,0,1,8,×,9,8 × 9,incongruent,smallerFirst,2,1,72,,,,,,,,
,,,,,,,,,,,,,,,752,2022-01-20_20h01.06.983,multiplicationStroop,2021.2.3,MacIntel,59.99880002,,,,,,,,,,,,,,,,,,,,,,,,,,,,,,,,,4,1.5652,1,0,6,6,28,1,2,×,2,2 × 2,incongruent,tie,1,2,4,,,,,,,,
,,,,,,,,,,,,,,,752,2022-01-20_20h01.06.983,multiplicationStroop,2021.2.3,MacIntel,59.99880002,,,,,,,,,,,,,,,,,,,,,,,,,,,,,,,,,45,1.6173,1,0,7,7,22,1,9,×,5,9 × 5,incongruent,largerFirst,1,2,45,,,,,,,,
,,,,,,,,,,,,,,,752,2022-01-20_20h01.06.983,multiplicationStroop,2021.2.3,MacIntel,59.99880002,,,,,,,,,,,,,,,,,,,,,,,,,,,,,,,,,32,1.7322,1,0,8,8,7,1,4,×,8,4 × 8,incongruent,smallerFirst,2,1,32,,,,,,,,
,,,,,,,,,,,,,,,752,2022-01-20_20h01.06.983,multiplicationStroop,2021.2.3,MacIntel,59.99880002,,,,,,,,,,,,,,,,,,,,,,,,,,,,,,,,,63,2.0168,1,0,9,9,3,1,7,×,9,7 × 9,incongruent,smallerFirst,2,1,63,,,,,,,,
,,,,,,,,,,,,,,,752,2022-01-20_20h01.06.983,multiplicationStroop,2021.2.3,MacIntel,59.99880002,,,,,,,,,,,,,,,,,,,,,,,,,,,,,,,,,24,1.7483,1,0,10,10,20,1,6,×,4,6 × 4,incongruent,largerFirst,1,2,24,,,,,,,,
,,,,,,,,,,,,,,,752,2022-01-20_20h01.06.983,multiplicationStroop,2021.2.3,MacIntel,59.99880002,,,,,,,,,,,,,,,,,,,,,,,,,,,,,,,,,49,1.9818,1,0,11,11,33,1,7,×,7,7 × 7,incongruent,tie,1,2,49,,,,,,,,
,,,,,,,,,,,,,,,752,2022-01-20_20h01.06.983,multiplicationStroop,2021.2.3,MacIntel,59.99880002,,,,,,,,,,,,,,,,,,,,,,,,,,,,,,,,,18,1.7171,1,0,12,12,8,1,3,×,6,3 × 6,incongruent,smallerFirst,2,1,18,,,,,,,,
,,,,,,,,,,,,,,,752,2022-01-20_20h01.06.983,multiplicationStroop,2021.2.3,MacIntel,59.99880002,,,,,,,,,,,,,,,,,,,,,,,,,,,,,,,,,36,1.7326,1,0,13,13,32,1,6,×,6,6 × 6,incongruent,tie,1,2,36,,,,,,,,
,,,,,,,,,,,,,,,752,2022-01-20_20h01.06.983,multiplicationStroop,2021.2.3,MacIntel,59.99880002,,,,,,,,,,,,,,,,,,,,,,,,,,,,,,,,,8,1.5817,1,0,14,14,24,1,4,×,2,4 × 2,incongruent,largerFirst,1,2,8,,,,,,,,
,,,,,,,,,,,,,,,752,2022-01-20_20h01.06.983,multiplicationStroop,2021.2.3,MacIntel,59.99880002,,,,,,,,,,,,,,,,,,,,,,,,,,,,,,,,,16,1.5494,1,0,15,15,23,1,8,×,2,8 × 2,incongruent,largerFirst,1,2,16,,,,,,,,
,,,,,,,,,,,,,,,752,2022-01-20_20h01.06.983,multiplicationStroop,2021.2.3,MacIntel,59.99880002,,,,,,,,,,,,,,,,,,,,,,,,,,,,,,,,,12,1.4671,1,0,16,16,5,1,3,×,4,3 × 4,incongruent,smallerFirst,2,1,12,,,,,,,,
,,,,,,,,,,,,,,,752,2022-01-20_20h01.06.983,multiplicationStroop,2021.2.3,MacIntel,59.99880002,,,,,,,,,,,,,,,,,,,,,,,,,,,,,,,,,24,1.7314,1,0,17,17,9,1,3,×,8,3 × 8,incongruent,smallerFirst,2,1,24,,,,,,,,
,,,,,,,,,,,,,,,752,2022-01-20_20h01.06.983,multiplicationStroop,2021.2.3,MacIntel,59.99880002,,,,,,,,,,,,,,,,,,,,,,,,,,,,,,,,,54,1.584,1,0,18,18,6,1,6,×,9,6 × 9,incongruent,smallerFirst,2,1,54,,,,,,,,
,,,,,,,,,,,,,,,752,2022-01-20_20h01.06.983,multiplicationStroop,2021.2.3,MacIntel,59.99880002,,,,,,,,,,,,,,,,,,,,,,,,,,,,,,,,,25,1.7987,1,0,19,19,31,1,5,×,5,5 × 5,incongruent,tie,1,2,25,,,,,,,,
,,,,,,,,,,,,,,,752,2022-01-20_20h01.06.983,multiplicationStroop,2021.2.3,MacIntel,59.99880002,,,,,,,,,,,,,,,,,,,,,,,,,,,,,,,,,40,1.8329,1,0,20,20,13,1,5,×,8,5 × 8,incongruent,smallerFirst,2,1,40,,,,,,,,
,,,,,,,,,,,,,,,752,2022-01-20_20h01.06.983,multiplicationStroop,2021.2.3,MacIntel,59.99880002,,,,,,,,,,,,,,,,,,,,,,,,,,,,,,,,,48,1.6981,1,0,21,21,1,1,6,×,8,6 × 8,incongruent,smallerFirst,2,1,48,,,,,,,,
,,,,,,,,,,,,,,,752,2022-01-20_20h01.06.983,multiplicationStroop,2021.2.3,MacIntel,59.99880002,,,,,,,,,,,,,,,,,,,,,,,,,,,,,,,,,36,1.9503,1,0,22,22,15,1,9,×,4,9 × 4,incongruent,largerFirst,1,2,36,,,,,,,,
,,,,,,,,,,,,,,,752,2022-01-20_20h01.06.983,multiplicationStroop,2021.2.3,MacIntel,59.99880002,,,,,,,,,,,,,,,,,,,,,,,,,,,,,,,,,42,1.6991,1,0,23,23,17,1,7,×,6,7 × 6,incongruent,largerFirst,1,2,42,,,,,,,,
,,,,,,,,,,,,,,,752,2022-01-20_20h01.06.983,multiplicationStroop,2021.2.3,MacIntel,59.99880002,,,,,,,,,,,,,,,,,,,,,,,,,,,,,,,,,18,1.7155,1,0,24,24,2,1,2,×,9,2 × 9,incongruent,smallerFirst,2,1,18,,,,,,,,
,,,,,,,,,,,,,,,752,2022-01-20_20h01.06.983,multiplicationStroop,2021.2.3,MacIntel,59.99880002,,,,,,,,,,,,,,,,,,,,,,,,,,,,,,,,,14,1.4656,1,0,25,25,4,1,2,×,7,2 × 7,incongruent,smallerFirst,2,1,14,,,,,,,,
,,,,,,,,,,,,,,,752,2022-01-20_20h01.06.983,multiplicationStroop,2021.2.3,MacIntel,59.99880002,,,,,,,,,,,,,,,,,,,,,,,,,,,,,,,,,35,1.5818,1,0,26,26,12,1,5,×,7,5 × 7,incongruent,smallerFirst,2,1,35,,,,,,,,
,,,,,,,,,,,,,,,752,2022-01-20_20h01.06.983,multiplicationStroop,2021.2.3,MacIntel,59.99880002,,,,,,,,,,,,,,,,,,,,,,,,,,,,,,,,,20,1.6336,1,0,27,27,27,1,5,×,4,5 × 4,incongruent,largerFirst,1,2,20,,,,,,,,
,,,,,,,,,,,,,,,752,2022-01-20_20h01.06.983,multiplicationStroop,2021.2.3,MacIntel,59.99880002,,,,,,,,,,,,,,,,,,,,,,,,,,,,,,,,,15,1.3493,1,0,28,28,10,1,3,×,5,3 × 5,incongruent,smallerFirst,2,1,15,,,,,,,,
,,,,,,,,,,,,,,,752,2022-01-20_20h01.06.983,multiplicationStroop,2021.2.3,MacIntel,59.99880002,,,,,,,,,,,,,,,,,,,,,,,,,,,,,,,,,30,1.5663,1,0,29,29,25,1,6,×,5,6 × 5,incongruent,largerFirst,1,2,30,,,,,,,,
,,,,,,,,,,,,,,,752,2022-01-20_20h01.06.983,multiplicationStroop,2021.2.3,MacIntel,59.99880002,,,,,,,,,,,,,,,,,,,,,,,,,,,,,,,,,56,1.6486,1,0,30,30,14,1,8,×,7,8 × 7,incongruent,largerFirst,1,2,56,,,,,,,,
,,,,,,,,,,,,,,,752,2022-01-20_20h01.06.983,multiplicationStroop,2021.2.3,MacIntel,59.99880002,,,,,,,,,,,,,,,,,,,,,,,,,,,,,,,,,21,1.5163,1,0,31,31,26,1,7,×,3,7 × 3,incongruent,largerFirst,1,2,21,,,,,,,,
,,,,,,,,,,,,,,,752,2022-01-20_20h01.06.983,multiplicationStroop,2021.2.3,MacIntel,59.99880002,,,,,,,,,,,,,,,,,,,,,,,,,,,,,,,,,28,1.5333,1,0,32,32,16,1,7,×,4,7 × 4,incongruent,largerFirst,1,2,28,,,,,,,,
,,,,,,,,,,,,,,,752,2022-01-20_20h01.06.983,multiplicationStroop,2021.2.3,MacIntel,59.99880002,,,,,,,,,,,,,,,,,,,,,,,,,,,,,,,,,10,1.3657,1,0,33,33,21,1,5,×,2,5 × 2,incongruent,largerFirst,1,2,10,,,,,,,,
,,,,,,,,,,,,,,,752,2022-01-20_20h01.06.983,multiplicationStroop,2021.2.3,MacIntel,59.99880002,,,,,,,,,,,,,,,,,,,,,,,,,,,,,,,,,6,1.3493,1,0,34,34,11,1,2,×,3,2 × 3,incongruent,smallerFirst,2,1,6,,,,,,,,
,,,,,,,,,,,,,,,752,2022-01-20_20h01.06.983,multiplicationStroop,2021.2.3,MacIntel,59.99880002,,,,,,,,,,,,,,,,,,,,,,,,,,,,,,,,,12,1.5479,1,0,35,35,19,1,6,×,2,6 × 2,incongruent,largerFirst,1,2,12,,,,,,,,
,,,,,,,,,,,,,,,752,2022-01-20_20h01.06.983,multiplicationStroop,2021.2.3,MacIntel,59.99880002,,,,,,,,,,,,,,,,,,,,,,,,,,,,,,,,,,,,,,,,,,,,,,,,,,0,4,4,5,1,stimulusFile/mult_blk6_INcongruent.xlsx,,
,,,,,,,,,,,,,,,752,2022-01-20_20h01.06.983,multiplicationStroop,2021.2.3,MacIntel,59.99880002,,,,,,,,,,,,,,,,,,,,,,,,,,,,,,,space,1.1681,25,1.6531,1,0,0,0,31,1,5,×,5,5 × 5,neutral,tie,1.5,1.5,25,,,,,,,,
,,,,,,,,,,,,,,,752,2022-01-20_20h01.06.983,multiplicationStroop,2021.2.3,MacIntel,59.99880002,,,,,,,,,,,,,,,,,,,,,,,,,,,,,,,,,18,1.783,1,0,1,1,18,1,9,×,2,9 × 2,neutral,largerFirst,1.5,1.5,18,,,,,,,,
,,,,,,,,,,,,,,,752,2022-01-20_20h01.06.983,multiplicationStroop,2021.2.3,MacIntel,59.99880002,,,,,,,,,,,,,,,,,,,,,,,,,,,,,,,,,30,1.7164,1,0,2,2,19,1,6,×,5,6 × 5,neutral,largerFirst,1.5,1.5,30,,,,,,,,
,,,,,,,,,,,,,,,752,2022-01-20_20h01.06.983,multiplicationStroop,2021.2.3,MacIntel,59.99880002,,,,,,,,,,,,,,,,,,,,,,,,,,,,,,,,,56,1.6312,1,0,3,3,9,1,7,×,8,7 × 8,neutral,smallerFirst,1.5,1.5,56,,,,,,,,
,,,,,,,,,,,,,,,752,2022-01-20_20h01.06.983,multiplicationStroop,2021.2.3,MacIntel,59.99880002,,,,,,,,,,,,,,,,,,,,,,,,,,,,,,,,,32,1.6505,1,0,4,4,23,1,8,×,4,8 × 4,neutral,largerFirst,1.5,1.5,32,,,,,,,,
,,,,,,,,,,,,,,,752,2022-01-20_20h01.06.983,multiplicationStroop,2021.2.3,MacIntel,59.99880002,,,,,,,,,,,,,,,,,,,,,,,,,,,,,,,,,35,1.8149,1,0,5,5,1,1,5,×,7,5 × 7,neutral,smallerFirst,1.5,1.5,35,,,,,,,,
,,,,,,,,,,,,,,,752,2022-01-20_20h01.06.983,multiplicationStroop,2021.2.3,MacIntel,59.99880002,,,,,,,,,,,,,,,,,,,,,,,,,,,,,,,,,18,1.7001,1,0,6,6,0,1,3,×,6,3 × 6,neutral,smallerFirst,1.5,1.5,18,,,,,,,,
,,,,,,,,,,,,,,,752,2022-01-20_20h01.06.983,multiplicationStroop,2021.2.3,MacIntel,59.99880002,,,,,,,,,,,,,,,,,,,,,,,,,,,,,,,,,81,1.5156,1,0,7,7,35,1,9,×,9,9 × 9,neutral,tie,1.5,1.5,81,,,,,,,,
,,,,,,,,,,,,,,,752,2022-01-20_20h01.06.983,multiplicationStroop,2021.2.3,MacIntel,59.99880002,,,,,,,,,,,,,,,,,,,,,,,,,,,,,,,,,54,1.4828,1,0,8,8,7,1,6,×,9,6 × 9,neutral,smallerFirst,1.5,1.5,54,,,,,,,,
,,,,,,,,,,,,,,,752,2022-01-20_20h01.06.983,multiplicationStroop,2021.2.3,MacIntel,59.99880002,,,,,,,,,,,,,,,,,,,,,,,,,,,,,,,,,6,1.4498,1,0,9,9,26,1,3,×,2,3 × 2,neutral,largerFirst,1.5,1.5,6,,,,,,,,
,,,,,,,,,,,,,,,752,2022-01-20_20h01.06.983,multiplicationStroop,2021.2.3,MacIntel,59.99880002,,,,,,,,,,,,,,,,,,,,,,,,,,,,,,,,,12,1.2656,1,0,10,10,21,1,4,×,3,4 × 3,neutral,largerFirst,1.5,1.5,12,,,,,,,,
,,,,,,,,,,,,,,,752,2022-01-20_20h01.06.983,multiplicationStroop,2021.2.3,MacIntel,59.99880002,,,,,,,,,,,,,,,,,,,,,,,,,,,,,,,,,10,1.3828,1,0,11,11,4,1,2,×,5,2 × 5,neutral,smallerFirst,1.5,1.5,10,,,,,,,,
,,,,,,,,,,,,,,,752,2022-01-20_20h01.06.983,multiplicationStroop,2021.2.3,MacIntel,59.99880002,,,,,,,,,,,,,,,,,,,,,,,,,,,,,,,,,14,1.3329,1,0,12,12,16,1,7,×,2,7 × 2,neutral,largerFirst,1.5,1.5,14,,,,,,,,
,,,,,,,,,,,,,,,752,2022-01-20_20h01.06.983,multiplicationStroop,2021.2.3,MacIntel,59.99880002,,,,,,,,,,,,,,,,,,,,,,,,,,,,,,,,,48,1.8327,1,0,13,13,15,1,8,×,6,8 × 6,neutral,largerFirst,1.5,1.5,48,,,,,,,,
,,,,,,,,,,,,,,,752,2022-01-20_20h01.06.983,multiplicationStroop,2021.2.3,MacIntel,59.99880002,,,,,,,,,,,,,,,,,,,,,,,,,,,,,,,,,4,1.948,1,0,14,14,28,1,2,×,2,2 × 2,neutral,tie,1.5,1.5,4,,,,,,,,
,,,,,,,,,,,,,,,752,2022-01-20_20h01.06.983,multiplicationStroop,2021.2.3,MacIntel,59.99880002,,,,,,,,,,,,,,,,,,,,,,,,,,,,,,,,,28,2.2005,1,0,15,15,17,1,7,×,4,7 × 4,neutral,largerFirst,1.5,1.5,28,,,,,,,,
,,,,,,,,,,,,,,,752,2022-01-20_20h01.06.983,multiplicationStroop,2021.2.3,MacIntel,59.99880002,,,,,,,,,,,,,,,,,,,,,,,,,,,,,,,,,16,1.9651,1,0,16,16,13,1,2,×,8,2 × 8,neutral,smallerFirst,1.5,1.5,16,,,,,,,,
,,,,,,,,,,,,,,,752,2022-01-20_20h01.06.983,multiplicationStroop,2021.2.3,MacIntel,59.99880002,,,,,,,,,,,,,,,,,,,,,,,,,,,,,,,,,9,1.4163,1,0,17,17,29,1,3,×,3,3 × 3,neutral,tie,1.5,1.5,9,,,,,,,,
,,,,,,,,,,,,,,,752,2022-01-20_20h01.06.983,multiplicationStroop,2021.2.3,MacIntel,59.99880002,,,,,,,,,,,,,,,,,,,,,,,,,,,,,,,,,24,1.8661,1,0,18,18,2,1,4,×,6,4 × 6,neutral,smallerFirst,1.5,1.5,24,,,,,,,,
,,,,,,,,,,,,,,,752,2022-01-20_20h01.06.983,multiplicationStroop,2021.2.3,MacIntel,59.99880002,,,,,,,,,,,,,,,,,,,,,,,,,,,,,,,,,12,1.3481,1,0,19,19,25,1,6,×,2,6 × 2,neutral,largerFirst,1.5,1.5,12,,,,,,,,
,,,,,,,,,,,,,,,752,2022-01-20_20h01.06.983,multiplicationStroop,2021.2.3,MacIntel,59.99880002,,,,,,,,,,,,,,,,,,,,,,,,,,,,,,,,,36,1.983,1,0,20,20,27,1,9,×,4,9 × 4,neutral,largerFirst,1.5,1.5,36,,,,,,,,
,,,,,,,,,,,,,,,752,2022-01-20_20h01.06.983,multiplicationStroop,2021.2.3,MacIntel,59.99880002,,,,,,,,,,,,,,,,,,,,,,,,,,,,,,,,,64,1.7994,1,0,21,21,34,1,8,×,8,8 × 8,neutral,tie,1.5,1.5,64,,,,,,,,
,,,,,,,,,,,,,,,752,2022-01-20_20h01.06.983,multiplicationStroop,2021.2.3,MacIntel,59.99880002,,,,,,,,,,,,,,,,,,,,,,,,,,,,,,,,,16,2.4656,1,0,22,22,30,1,4,×,4,4 × 4,neutral,tie,1.5,1.5,16,,,,,,,,
,,,,,,,,,,,,,,,752,2022-01-20_20h01.06.983,multiplicationStroop,2021.2.3,MacIntel,59.99880002,,,,,,,,,,,,,,,,,,,,,,,,,,,,,,,,,63,1.7507,1,0,23,23,12,1,7,×,9,7 × 9,neutral,smallerFirst,1.5,1.5,63,,,,,,,,
,,,,,,,,,,,,,,,752,2022-01-20_20h01.06.983,multiplicationStroop,2021.2.3,MacIntel,59.99880002,,,,,,,,,,,,,,,,,,,,,,,,,,,,,,,,,15,1.3481,1,0,24,24,5,1,3,×,5,3 × 5,neutral,smallerFirst,1.5,1.5,15,,,,,,,,
,,,,,,,,,,,,,,,752,2022-01-20_20h01.06.983,multiplicationStroop,2021.2.3,MacIntel,59.99880002,,,,,,,,,,,,,,,,,,,,,,,,,,,,,,,,,21,1.4989,1,0,25,25,8,1,3,×,7,3 × 7,neutral,smallerFirst,1.5,1.5,21,,,,,,,,
,,,,,,,,,,,,,,,752,2022-01-20_20h01.06.983,multiplicationStroop,2021.2.3,MacIntel,59.99880002,,,,,,,,,,,,,,,,,,,,,,,,,,,,,,,,,20,1.6834,1,0,26,26,20,1,5,×,4,5 × 4,neutral,largerFirst,1.5,1.5,20,,,,,,,,
,,,,,,,,,,,,,,,752,2022-01-20_20h01.06.983,multiplicationStroop,2021.2.3,MacIntel,59.99880002,,,,,,,,,,,,,,,,,,,,,,,,,,,,,,,,,27,1.749,1,0,27,27,14,1,9,×,3,9 × 3,neutral,largerFirst,1.5,1.5,27,,,,,,,,
,,,,,,,,,,,,,,,752,2022-01-20_20h01.06.983,multiplicationStroop,2021.2.3,MacIntel,59.99880002,,,,,,,,,,,,,,,,,,,,,,,,,,,,,,,,,42,1.7987,1,0,28,28,6,1,6,×,7,6 × 7,neutral,smallerFirst,1.5,1.5,42,,,,,,,,
,,,,,,,,,,,,,,,752,2022-01-20_20h01.06.983,multiplicationStroop,2021.2.3,MacIntel,59.99880002,,,,,,,,,,,,,,,,,,,,,,,,,,,,,,,,,24,1.7155,1,0,29,29,22,1,8,×,3,8 × 3,neutral,largerFirst,1.5,1.5,24,,,,,,,,
,,,,,,,,,,,,,,,752,2022-01-20_20h01.06.983,multiplicationStroop,2021.2.3,MacIntel,59.99880002,,,,,,,,,,,,,,,,,,,,,,,,,,,,,,,,,72,1.8507,1,0,30,30,11,1,8,×,9,8 × 9,neutral,smallerFirst,1.5,1.5,72,,,,,,,,
,,,,,,,,,,,,,,,752,2022-01-20_20h01.06.983,multiplicationStroop,2021.2.3,MacIntel,59.99880002,,,,,,,,,,,,,,,,,,,,,,,,,,,,,,,,,36,1.6159,1,0,31,31,32,1,6,×,6,6 × 6,neutral,tie,1.5,1.5,36,,,,,,,,
,,,,,,,,,,,,,,,752,2022-01-20_20h01.06.983,multiplicationStroop,2021.2.3,MacIntel,59.99880002,,,,,,,,,,,,,,,,,,,,,,,,,,,,,,,,,40,1.6154,1,0,32,32,24,1,8,×,5,8 × 5,neutral,largerFirst,1.5,1.5,40,,,,,,,,
,,,,,,,,,,,,,,,752,2022-01-20_20h01.06.983,multiplicationStroop,2021.2.3,MacIntel,59.99880002,,,,,,,,,,,,,,,,,,,,,,,,,,,,,,,,,8,1.5319,1,0,33,33,3,1,2,×,4,2 × 4,neutral,smallerFirst,1.5,1.5,8,,,,,,,,
,,,,,,,,,,,,,,,752,2022-01-20_20h01.06.983,multiplicationStroop,2021.2.3,MacIntel,59.99880002,,,,,,,,,,,,,,,,,,,,,,,,,,,,,,,,,49,1.8834,1,0,34,34,33,1,7,×,7,7 × 7,neutral,tie,1.5,1.5,49,,,,,,,,
,,,,,,,,,,,,,,,752,2022-01-20_20h01.06.983,multiplicationStroop,2021.2.3,MacIntel,59.99880002,,,,,,,,,,,,,,,,,,,,,,,,,,,,,,,,,45,1.515,1,0,35,35,10,1,5,×,9,5 × 9,neutral,smallerFirst,1.5,1.5,45,,,,,,,,
,,,,,,,,,,,,,,,752,2022-01-20_20h01.06.983,multiplicationStroop,2021.2.3,MacIntel,59.99880002,,,,,,,,,,,,,,,,,,,,,,,,,,,,,,,,,,,,,,,,,,,,,,,,,,0,5,5,1,1,stimulusFile/mult_blk2.xlsx,,
,,,,,,,,,,,,,,,752,2022-01-20_20h01.06.983,multiplicationStroop,2021.2.3,MacIntel,59.99880002,,,,,,,,,,,,,,,,,,,,,,,,,,,,,,,,,,,,,,,,,,,,,,,,,,,,,,,,space,10.0658