welcomeKey_resp.keys,welcomeKey_resp.rt,X Scale,Y Scale,rt_resp_4.keys,rt_resp_4.corr,rt_resp_4.rt,speedtest_2.thisRepN,speedtest_2.thisTrialN,speedtest_2.thisN,speedtest_2.thisIndex,speedtest_2.ran,numberSc,posX,positionLayout,participant,date,expName,psychopyVersion,OS,frameRate,ct_instrresp.keys,ct_instrresp.rt,key_resp_2.keys,key_resp_2.rt,ct_keyResp.keys,ct_keyResp.corr,ct_keyResp.rt,trials.thisRepN,trials.thisTrialN,trials.thisN,trials.thisIndex,trials.ran,leftNo,rightNo,displayProblem,numDistance,leftNo_size,rightNo_size,Dims,keyAnswer,TS_Loop.thisRepN,TS_Loop.thisTrialN,TS_Loop.thisN,TS_Loop.thisIndex,TS_Loop.ran,Condition,ActionInst,instrImage,mltptaskInst_resp.keys,mltptaskInst_resp.rt,continue_resp_2.keys,continue_resp_2.rt,multp_Answer,multi_RT,multiplyCorr,LoopingMultiply.thisRepN,LoopingMultiply.thisTrialN,LoopingMultiply.thisN,LoopingMultiply.thisIndex,LoopingMultiply.ran,factor1,multiplySign,factor2,multliplyProblem,physicalSize,orderOperand,sizeF1,sizeF2,mult_answer,trials_stroop.thisRepN,trials_stroop.thisTrialN,trials_stroop.thisN,trials_stroop.thisIndex,trials_stroop.ran,multiplicationFile,esckey_resp_2.keys,esckey_resp_2.rt
y,9.5028,45,44.8,right,1,0.424,0,0,0,15,1,9,200,right,753,2022-01-20_13h21.08.062,multiplicationStroop,2021.2.3,Win32,59.98440405,,,,,,,,,,,,,,,,,,,,,,,,,,,,,,,,,,,,,,,,,,,,,,,,,,,,,,,,,
,,,,left,1,0.3685,0,1,1,0,1,1,-200,left,753,2022-01-20_13h21.08.062,multiplicationStroop,2021.2.3,Win32,59.98440405,,,,,,,,,,,,,,,,,,,,,,,,,,,,,,,,,,,,,,,,,,,,,,,,,,,,,,,,,
,,,,right,1,0.3322,0,2,2,12,1,6,200,right,753,2022-01-20_13h21.08.062,multiplicationStroop,2021.2.3,Win32,59.98440405,,,,,,,,,,,,,,,,,,,,,,,,,,,,,,,,,,,,,,,,,,,,,,,,,,,,,,,,,
,,,,right,1,0.3383,0,3,3,11,1,4,200,right,753,2022-01-20_13h21.08.062,multiplicationStroop,2021.2.3,Win32,59.98440405,,,,,,,,,,,,,,,,,,,,,,,,,,,,,,,,,,,,,,,,,,,,,,,,,,,,,,,,,
,,,,left,1,0.3489,0,4,4,4,1,6,-200,left,753,2022-01-20_13h21.08.062,multiplicationStroop,2021.2.3,Win32,59.98440405,,,,,,,,,,,,,,,,,,,,,,,,,,,,,,,,,,,,,,,,,,,,,,,,,,,,,,,,,
,,,,right,1,0.349,0,5,5,13,1,7,200,right,753,2022-01-20_13h21.08.062,multiplicationStroop,2021.2.3,Win32,59.98440405,,,,,,,,,,,,,,,,,,,,,,,,,,,,,,,,,,,,,,,,,,,,,,,,,,,,,,,,,
,,,,right,1,0.3368,0,6,6,14,1,8,200,right,753,2022-01-20_13h21.08.062,multiplicationStroop,2021.2.3,Win32,59.98440405,,,,,,,,,,,,,,,,,,,,,,,,,,,,,,,,,,,,,,,,,,,,,,,,,,,,,,,,,
,,,,right,1,0.3429,0,7,7,9,1,2,200,right,753,2022-01-20_13h21.08.062,multiplicationStroop,2021.2.3,Win32,59.98440405,,,,,,,,,,,,,,,,,,,,,,,,,,,,,,,,,,,,,,,,,,,,,,,,,,,,,,,,,
,,,,right,1,0.3113,0,8,8,10,1,3,200,right,753,2022-01-20_13h21.08.062,multiplicationStroop,2021.2.3,Win32,59.98440405,,,,,,,,,,,,,,,,,,,,,,,,,,,,,,,,,,,,,,,,,,,,,,,,,,,,,,,,,
,,,,left,1,0.4107,0,9,9,3,1,4,-200,left,753,2022-01-20_13h21.08.062,multiplicationStroop,2021.2.3,Win32,59.98440405,,,,,,,,,,,,,,,,,,,,,,,,,,,,,,,,,,,,,,,,,,,,,,,,,,,,,,,,,
,,,,left,1,0.3071,0,10,10,7,1,9,-200,left,753,2022-01-20_13h21.08.062,multiplicationStroop,2021.2.3,Win32,59.98440405,,,,,,,,,,,,,,,,,,,,,,,,,,,,,,,,,,,,,,,,,,,,,,,,,,,,,,,,,
,,,,left,1,0.3088,0,11,11,1,1,2,-200,left,753,2022-01-20_13h21.08.062,multiplicationStroop,2021.2.3,Win32,59.98440405,,,,,,,,,,,,,,,,,,,,,,,,,,,,,,,,,,,,,,,,,,,,,,,,,,,,,,,,,
,,,,left,1,0.3216,0,12,12,5,1,7,-200,left,753,2022-01-20_13h21.08.062,multiplicationStroop,2021.2.3,Win32,59.98440405,,,,,,,,,,,,,,,,,,,,,,,,,,,,,,,,,,,,,,,,,,,,,,,,,,,,,,,,,
,,,,left,1,0.325,0,13,13,6,1,8,-200,left,753,2022-01-20_13h21.08.062,multiplicationStroop,2021.2.3,Win32,59.98440405,,,,,,,,,,,,,,,,,,,,,,,,,,,,,,,,,,,,,,,,,,,,,,,,,,,,,,,,,
,,,,left,1,0.3015,0,14,14,2,1,3,-200,left,753,2022-01-20_13h21.08.062,multiplicationStroop,2021.2.3,Win32,59.98440405,,,,,,,,,,,,,,,,,,,,,,,,,,,,,,,,,,,,,,,,,,,,,,,,,,,,,,,,,
,,,,right,1,0.3399,0,15,15,8,1,1,200,right,753,2022-01-20_13h21.08.062,multiplicationStroop,2021.2.3,Win32,59.98440405,,,,,,,,,,,,,,,,,,,,,,,,,,,,,,,,,,,,,,,,,,,,,,,,,,,,,,,,,
,,,,right,1,0.3157,1,0,16,10,1,3,200,right,753,2022-01-20_13h21.08.062,multiplicationStroop,2021.2.3,Win32,59.98440405,,,,,,,,,,,,,,,,,,,,,,,,,,,,,,,,,,,,,,,,,,,,,,,,,,,,,,,,,
,,,,left,1,0.3669,1,1,17,7,1,9,-200,left,753,2022-01-20_13h21.08.062,multiplicationStroop,2021.2.3,Win32,59.98440405,,,,,,,,,,,,,,,,,,,,,,,,,,,,,,,,,,,,,,,,,,,,,,,,,,,,,,,,,
,,,,left,1,0.3457,1,2,18,0,1,1,-200,left,753,2022-01-20_13h21.08.062,multiplicationStroop,2021.2.3,Win32,59.98440405,,,,,,,,,,,,,,,,,,,,,,,,,,,,,,,,,,,,,,,,,,,,,,,,,,,,,,,,,
,,,,left,1,0.3133,1,3,19,5,1,7,-200,left,753,2022-01-20_13h21.08.062,multiplicationStroop,2021.2.3,Win32,59.98440405,,,,,,,,,,,,,,,,,,,,,,,,,,,,,,,,,,,,,,,,,,,,,,,,,,,,,,,,,
,,,,right,1,0.3236,1,4,20,13,1,7,200,right,753,2022-01-20_13h21.08.062,multiplicationStroop,2021.2.3,Win32,59.98440405,,,,,,,,,,,,,,,,,,,,,,,,,,,,,,,,,,,,,,,,,,,,,,,,,,,,,,,,,
,,,,right,1,0.3143,1,5,21,8,1,1,200,right,753,2022-01-20_13h21.08.062,multiplicationStroop,2021.2.3,Win32,59.98440405,,,,,,,,,,,,,,,,,,,,,,,,,,,,,,,,,,,,,,,,,,,,,,,,,,,,,,,,,
,,,,left,1,0.3775,1,6,22,4,1,6,-200,left,753,2022-01-20_13h21.08.062,multiplicationStroop,2021.2.3,Win32,59.98440405,,,,,,,,,,,,,,,,,,,,,,,,,,,,,,,,,,,,,,,,,,,,,,,,,,,,,,,,,
,,,,right,1,0.3545,1,7,23,15,1,9,200,right,753,2022-01-20_13h21.08.062,multiplicationStroop,2021.2.3,Win32,59.98440405,,,,,,,,,,,,,,,,,,,,,,,,,,,,,,,,,,,,,,,,,,,,,,,,,,,,,,,,,
,,,,left,1,0.3479,1,8,24,3,1,4,-200,left,753,2022-01-20_13h21.08.062,multiplicationStroop,2021.2.3,Win32,59.98440405,,,,,,,,,,,,,,,,,,,,,,,,,,,,,,,,,,,,,,,,,,,,,,,,,,,,,,,,,
,,,,left,1,0.3479,1,9,25,6,1,8,-200,left,753,2022-01-20_13h21.08.062,multiplicationStroop,2021.2.3,Win32,59.98440405,,,,,,,,,,,,,,,,,,,,,,,,,,,,,,,,,,,,,,,,,,,,,,,,,,,,,,,,,
,,,,right,1,0.3198,1,10,26,9,1,2,200,right,753,2022-01-20_13h21.08.062,multiplicationStroop,2021.2.3,Win32,59.98440405,,,,,,,,,,,,,,,,,,,,,,,,,,,,,,,,,,,,,,,,,,,,,,,,,,,,,,,,,
,,,,left,1,0.2851,1,11,27,1,1,2,-200,left,753,2022-01-20_13h21.08.062,multiplicationStroop,2021.2.3,Win32,59.98440405,,,,,,,,,,,,,,,,,,,,,,,,,,,,,,,,,,,,,,,,,,,,,,,,,,,,,,,,,
,,,,left,1,0.3319,1,12,28,2,1,3,-200,left,753,2022-01-20_13h21.08.062,multiplicationStroop,2021.2.3,Win32,59.98440405,,,,,,,,,,,,,,,,,,,,,,,,,,,,,,,,,,,,,,,,,,,,,,,,,,,,,,,,,
,,,,right,1,0.3558,1,13,29,11,1,4,200,right,753,2022-01-20_13h21.08.062,multiplicationStroop,2021.2.3,Win32,59.98440405,,,,,,,,,,,,,,,,,,,,,,,,,,,,,,,,,,,,,,,,,,,,,,,,,,,,,,,,,
,,,,right,1,0.3104,1,14,30,14,1,8,200,right,753,2022-01-20_13h21.08.062,multiplicationStroop,2021.2.3,Win32,59.98440405,,,,,,,,,,,,,,,,,,,,,,,,,,,,,,,,,,,,,,,,,,,,,,,,,,,,,,,,,
,,,,right,1,0.3395,1,15,31,12,1,6,200,right,753,2022-01-20_13h21.08.062,multiplicationStroop,2021.2.3,Win32,59.98440405,,,,,,,,,,,,,,,,,,,,,,,,,,,,,,,,,,,,,,,,,,,,,,,,,,,,,,,,,
,,,,left,1,0.3249,2,0,32,4,1,6,-200,left,753,2022-01-20_13h21.08.062,multiplicationStroop,2021.2.3,Win32,59.98440405,,,,,,,,,,,,,,,,,,,,,,,,,,,,,,,,,,,,,,,,,,,,,,,,,,,,,,,,,
,,,,left,1,0.3055,2,1,33,3,1,4,-200,left,753,2022-01-20_13h21.08.062,multiplicationStroop,2021.2.3,Win32,59.98440405,,,,,,,,,,,,,,,,,,,,,,,,,,,,,,,,,,,,,,,,,,,,,,,,,,,,,,,,,
,,,,left,1,0.3346,2,2,34,5,1,7,-200,left,753,2022-01-20_13h21.08.062,multiplicationStroop,2021.2.3,Win32,59.98440405,,,,,,,,,,,,,,,,,,,,,,,,,,,,,,,,,,,,,,,,,,,,,,,,,,,,,,,,,
,,,,right,1,0.3483,2,3,35,10,1,3,200,right,753,2022-01-20_13h21.08.062,multiplicationStroop,2021.2.3,Win32,59.98440405,,,,,,,,,,,,,,,,,,,,,,,,,,,,,,,,,,,,,,,,,,,,,,,,,,,,,,,,,
,,,,right,1,0.3121,2,4,36,13,1,7,200,right,753,2022-01-20_13h21.08.062,multiplicationStroop,2021.2.3,Win32,59.98440405,,,,,,,,,,,,,,,,,,,,,,,,,,,,,,,,,,,,,,,,,,,,,,,,,,,,,,,,,
,,,,right,1,0.3155,2,5,37,8,1,1,200,right,753,2022-01-20_13h21.08.062,multiplicationStroop,2021.2.3,Win32,59.98440405,,,,,,,,,,,,,,,,,,,,,,,,,,,,,,,,,,,,,,,,,,,,,,,,,,,,,,,,,
,,,,right,1,0.3402,2,6,38,14,1,8,200,right,753,2022-01-20_13h21.08.062,multiplicationStroop,2021.2.3,Win32,59.98440405,,,,,,,,,,,,,,,,,,,,,,,,,,,,,,,,,,,,,,,,,,,,,,,,,,,,,,,,,
,,,,left,1,0.4143,2,7,39,1,1,2,-200,left,753,2022-01-20_13h21.08.062,multiplicationStroop,2021.2.3,Win32,59.98440405,,,,,,,,,,,,,,,,,,,,,,,,,,,,,,,,,,,,,,,,,,,,,,,,,,,,,,,,,
,,,,right,1,0.2996,2,8,40,15,1,9,200,right,753,2022-01-20_13h21.08.062,multiplicationStroop,2021.2.3,Win32,59.98440405,,,,,,,,,,,,,,,,,,,,,,,,,,,,,,,,,,,,,,,,,,,,,,,,,,,,,,,,,
,,,,left,1,0.3249,2,9,41,0,1,1,-200,left,753,2022-01-20_13h21.08.062,multiplicationStroop,2021.2.3,Win32,59.98440405,,,,,,,,,,,,,,,,,,,,,,,,,,,,,,,,,,,,,,,,,,,,,,,,,,,,,,,,,
,,,,left,1,0.384,2,10,42,2,1,3,-200,left,753,2022-01-20_13h21.08.062,multiplicationStroop,2021.2.3,Win32,59.98440405,,,,,,,,,,,,,,,,,,,,,,,,,,,,,,,,,,,,,,,,,,,,,,,,,,,,,,,,,
,,,,right,1,0.3064,2,11,43,9,1,2,200,right,753,2022-01-20_13h21.08.062,multiplicationStroop,2021.2.3,Win32,59.98440405,,,,,,,,,,,,,,,,,,,,,,,,,,,,,,,,,,,,,,,,,,,,,,,,,,,,,,,,,
,,,,left,1,0.3324,2,12,44,6,1,8,-200,left,753,2022-01-20_13h21.08.062,multiplicationStroop,2021.2.3,Win32,59.98440405,,,,,,,,,,,,,,,,,,,,,,,,,,,,,,,,,,,,,,,,,,,,,,,,,,,,,,,,,
,,,,right,1,0.307,2,13,45,11,1,4,200,right,753,2022-01-20_13h21.08.062,multiplicationStroop,2021.2.3,Win32,59.98440405,,,,,,,,,,,,,,,,,,,,,,,,,,,,,,,,,,,,,,,,,,,,,,,,,,,,,,,,,
,,,,right,1,0.3561,2,14,46,12,1,6,200,right,753,2022-01-20_13h21.08.062,multiplicationStroop,2021.2.3,Win32,59.98440405,,,,,,,,,,,,,,,,,,,,,,,,,,,,,,,,,,,,,,,,,,,,,,,,,,,,,,,,,
,,,,left,1,0.4022,2,15,47,7,1,9,-200,left,753,2022-01-20_13h21.08.062,multiplicationStroop,2021.2.3,Win32,59.98440405,,,,,,,,,,,,,,,,,,,,,,,,,,,,,,,,,,,,,,,,,,,,,,,,,,,,,,,,,
,,,,right,1,0.3252,3,0,48,12,1,6,200,right,753,2022-01-20_13h21.08.062,multiplicationStroop,2021.2.3,Win32,59.98440405,,,,,,,,,,,,,,,,,,,,,,,,,,,,,,,,,,,,,,,,,,,,,,,,,,,,,,,,,
,,,,right,1,0.3046,3,1,49,15,1,9,200,right,753,2022-01-20_13h21.08.062,multiplicationStroop,2021.2.3,Win32,59.98440405,,,,,,,,,,,,,,,,,,,,,,,,,,,,,,,,,,,,,,,,,,,,,,,,,,,,,,,,,
,,,,right,1,0.362,3,2,50,9,1,2,200,right,753,2022-01-20_13h21.08.062,multiplicationStroop,2021.2.3,Win32,59.98440405,,,,,,,,,,,,,,,,,,,,,,,,,,,,,,,,,,,,,,,,,,,,,,,,,,,,,,,,,
,,,,left,1,0.3467,3,3,51,3,1,4,-200,left,753,2022-01-20_13h21.08.062,multiplicationStroop,2021.2.3,Win32,59.98440405,,,,,,,,,,,,,,,,,,,,,,,,,,,,,,,,,,,,,,,,,,,,,,,,,,,,,,,,,
,,,,right,1,0.286,3,4,52,13,1,7,200,right,753,2022-01-20_13h21.08.062,multiplicationStroop,2021.2.3,Win32,59.98440405,,,,,,,,,,,,,,,,,,,,,,,,,,,,,,,,,,,,,,,,,,,,,,,,,,,,,,,,,
,,,,left,1,0.2447,3,5,53,7,1,9,-200,left,753,2022-01-20_13h21.08.062,multiplicationStroop,2021.2.3,Win32,59.98440405,,,,,,,,,,,,,,,,,,,,,,,,,,,,,,,,,,,,,,,,,,,,,,,,,,,,,,,,,
,,,,left,1,0.3335,3,6,54,1,1,2,-200,left,753,2022-01-20_13h21.08.062,multiplicationStroop,2021.2.3,Win32,59.98440405,,,,,,,,,,,,,,,,,,,,,,,,,,,,,,,,,,,,,,,,,,,,,,,,,,,,,,,,,
,,,,left,1,0.2692,3,7,55,2,1,3,-200,left,753,2022-01-20_13h21.08.062,multiplicationStroop,2021.2.3,Win32,59.98440405,,,,,,,,,,,,,,,,,,,,,,,,,,,,,,,,,,,,,,,,,,,,,,,,,,,,,,,,,
,,,,right,1,0.3101,3,8,56,10,1,3,200,right,753,2022-01-20_13h21.08.062,multiplicationStroop,2021.2.3,Win32,59.98440405,,,,,,,,,,,,,,,,,,,,,,,,,,,,,,,,,,,,,,,,,,,,,,,,,,,,,,,,,
,,,,right,0,0.2927,3,9,57,4,1,6,-200,left,753,2022-01-20_13h21.08.062,multiplicationStroop,2021.2.3,Win32,59.98440405,,,,,,,,,,,,,,,,,,,,,,,,,,,,,,,,,,,,,,,,,,,,,,,,,,,,,,,,,
,,,,left,1,0.5586,3,10,58,6,1,8,-200,left,753,2022-01-20_13h21.08.062,multiplicationStroop,2021.2.3,Win32,59.98440405,,,,,,,,,,,,,,,,,,,,,,,,,,,,,,,,,,,,,,,,,,,,,,,,,,,,,,,,,
,,,,left,1,0.3397,3,11,59,5,1,7,-200,left,753,2022-01-20_13h21.08.062,multiplicationStroop,2021.2.3,Win32,59.98440405,,,,,,,,,,,,,,,,,,,,,,,,,,,,,,,,,,,,,,,,,,,,,,,,,,,,,,,,,
,,,,right,1,0.3394,3,12,60,14,1,8,200,right,753,2022-01-20_13h21.08.062,multiplicationStroop,2021.2.3,Win32,59.98440405,,,,,,,,,,,,,,,,,,,,,,,,,,,,,,,,,,,,,,,,,,,,,,,,,,,,,,,,,
,,,,right,1,0.3297,3,13,61,8,1,1,200,right,753,2022-01-20_13h21.08.062,multiplicationStroop,2021.2.3,Win32,59.98440405,,,,,,,,,,,,,,,,,,,,,,,,,,,,,,,,,,,,,,,,,,,,,,,,,,,,,,,,,
,,,,left,1,0.403,3,14,62,0,1,1,-200,left,753,2022-01-20_13h21.08.062,multiplicationStroop,2021.2.3,Win32,59.98440405,,,,,,,,,,,,,,,,,,,,,,,,,,,,,,,,,,,,,,,,,,,,,,,,,,,,,,,,,
,,,,right,1,0.3182,3,15,63,11,1,4,200,right,753,2022-01-20_13h21.08.062,multiplicationStroop,2021.2.3,Win32,59.98440405,,,,,,,,,,,,,,,,,,,,,,,,,,,,,,,,,,,,,,,,,,,,,,,,,,,,,,,,,
,,,,,,,,,,,,,,,753,2022-01-20_13h21.08.062,multiplicationStroop,2021.2.3,Win32,59.98440405,space,10.6296,space,2.8711,left,1,0.5665,0,0,0,22,1,8,3,8 | 3,5,1.9756,1.4111,congruent,left,,,,,,stimulusFile/physical.xlsx,,,,,,,,,,,,,,,,,,,,,,,,,,,,,,,
,,,,,,,,,,,,,,,753,2022-01-20_13h21.08.062,multiplicationStroop,2021.2.3,Win32,59.98440405,,,,,right,1,0.4447,0,1,1,65,1,2,2,2 | 2,0,1.4111,1.9756,neutral,right,,,,,,stimulusFile/physical.xlsx,,,,,,,,,,,,,,,,,,,,,,,,,,,,,,,
,,,,,,,,,,,,,,,753,2022-01-20_13h21.08.062,multiplicationStroop,2021.2.3,Win32,59.98440405,,,,,left,1,0.4203,0,2,2,40,1,1,6,1 | 6,5,1.9756,1.4111,incongruent,left,,,,,,stimulusFile/physical.xlsx,,,,,,,,,,,,,,,,,,,,,,,,,,,,,,,
,,,,,,,,,,,,,,,753,2022-01-20_13h21.08.062,multiplicationStroop,2021.2.3,Win32,59.98440405,,,,,right,1,0.4117,0,3,3,19,1,4,9,4 | 9,5,1.4111,1.9756,congruent,right,,,,,,stimulusFile/physical.xlsx,,,,,,,,,,,,,,,,,,,,,,,,,,,,,,,
,,,,,,,,,,,,,,,753,2022-01-20_13h21.08.062,multiplicationStroop,2021.2.3,Win32,59.98440405,,,,,left,1,0.4263,0,4,4,55,1,9,9,9 | 9,0,1.9756,1.4111,neutral,left,,,,,,stimulusFile/physical.xlsx,,,,,,,,,,,,,,,,,,,,,,,,,,,,,,,
,,,,,,,,,,,,,,,753,2022-01-20_13h21.08.062,multiplicationStroop,2021.2.3,Win32,59.98440405,,,,,right,1,0.4145,0,5,5,18,1,3,8,3 | 8,5,1.4111,1.9756,congruent,right,,,,,,stimulusFile/physical.xlsx,,,,,,,,,,,,,,,,,,,,,,,,,,,,,,,
,,,,,,,,,,,,,,,753,2022-01-20_13h21.08.062,multiplicationStroop,2021.2.3,Win32,59.98440405,,,,,right,1,0.5144,0,6,6,38,1,8,6,8 | 6,2,1.4111,1.9756,incongruent,right,,,,,,stimulusFile/physical.xlsx,,,,,,,,,,,,,,,,,,,,,,,,,,,,,,,
,,,,,,,,,,,,,,,753,2022-01-20_13h21.08.062,multiplicationStroop,2021.2.3,Win32,59.98440405,,,,,left,1,0.4401,0,7,7,34,1,6,8,6 | 8,2,1.9756,1.4111,incongruent,left,,,,,,stimulusFile/physical.xlsx,,,,,,,,,,,,,,,,,,,,,,,,,,,,,,,
,,,,,,,,,,,,,,,753,2022-01-20_13h21.08.062,multiplicationStroop,2021.2.3,Win32,59.98440405,,,,,left,0,0.5235,0,8,8,64,1,1,1,1 | 1,0,1.9756,1.4111,neutral,right,,,,,,stimulusFile/physical.xlsx,,,,,,,,,,,,,,,,,,,,,,,,,,,,,,,
,,,,,,,,,,,,,,,753,2022-01-20_13h21.08.062,multiplicationStroop,2021.2.3,Win32,59.98440405,,,,,right,1,0.4379,0,9,9,31,1,9,8,9 | 8,1,1.4111,1.9756,incongruent,right,,,,,,stimulusFile/physical.xlsx,,,,,,,,,,,,,,,,,,,,,,,,,,,,,,,
,,,,,,,,,,,,,,,753,2022-01-20_13h21.08.062,multiplicationStroop,2021.2.3,Win32,59.98440405,,,,,right,1,0.4719,0,10,10,11,1,7,9,7 | 9,2,1.4111,1.9756,congruent,right,,,,,,stimulusFile/physical.xlsx,,,,,,,,,,,,,,,,,,,,,,,,,,,,,,,
,,,,,,,,,,,,,,,753,2022-01-20_13h21.08.062,multiplicationStroop,2021.2.3,Win32,59.98440405,,,,,left,1,0.3973,0,11,11,53,1,4,4,4 | 4,0,1.9756,1.4111,neutral,left,,,,,,stimulusFile/physical.xlsx,,,,,,,,,,,,,,,,,,,,,,,,,,,,,,,
,,,,,,,,,,,,,,,753,2022-01-20_13h21.08.062,multiplicationStroop,2021.2.3,Win32,59.98440405,,,,,right,1,0.415,0,12,12,60,1,3,3,3 | 3,0,1.4111,1.9756,neutral,right,,,,,,stimulusFile/physical.xlsx,,,,,,,,,,,,,,,,,,,,,,,,,,,,,,,
,,,,,,,,,,,,,,,753,2022-01-20_13h21.08.062,multiplicationStroop,2021.2.3,Win32,59.98440405,,,,,right,1,0.4906,0,13,13,45,1,7,2,7 | 2,5,1.4111,1.9756,incongruent,right,,,,,,stimulusFile/physical.xlsx,,,,,,,,,,,,,,,,,,,,,,,,,,,,,,,
,,,,,,,,,,,,,,,753,2022-01-20_13h21.08.062,multiplicationStroop,2021.2.3,Win32,59.98440405,,,,,right,1,0.4986,0,14,14,39,1,9,7,9 | 7,2,1.4111,1.9756,incongruent,right,,,,,,stimulusFile/physical.xlsx,,,,,,,,,,,,,,,,,,,,,,,,,,,,,,,
,,,,,,,,,,,,,,,753,2022-01-20_13h21.08.062,multiplicationStroop,2021.2.3,Win32,59.98440405,,,,,right,1,0.4888,0,15,15,3,1,8,9,8 | 9,1,1.4111,1.9756,congruent,right,,,,,,stimulusFile/physical.xlsx,,,,,,,,,,,,,,,,,,,,,,,,,,,,,,,
,,,,,,,,,,,,,,,753,2022-01-20_13h21.08.062,multiplicationStroop,2021.2.3,Win32,59.98440405,,,,,left,1,0.4058,0,16,16,35,1,7,9,7 | 9,2,1.9756,1.4111,incongruent,left,,,,,,stimulusFile/physical.xlsx,,,,,,,,,,,,,,,,,,,,,,,,,,,,,,,
,,,,,,,,,,,,,,,753,2022-01-20_13h21.08.062,multiplicationStroop,2021.2.3,Win32,59.98440405,,,,,right,1,0.4806,0,17,17,47,1,9,4,9 | 4,5,1.4111,1.9756,incongruent,right,,,,,,stimulusFile/physical.xlsx,,,,,,,,,,,,,,,,,,,,,,,,,,,,,,,
,,,,,,,,,,,,,,,753,2022-01-20_13h21.08.062,multiplicationStroop,2021.2.3,Win32,59.98440405,,,,,right,1,0.5024,0,18,18,56,1,1,1,1 | 1,0,1.4111,1.9756,neutral,right,,,,,,stimulusFile/physical.xlsx,,,,,,,,,,,,,,,,,,,,,,,,,,,,,,,
,,,,,,,,,,,,,,,753,2022-01-20_13h21.08.062,multiplicationStroop,2021.2.3,Win32,59.98440405,,,,,right,0,0.4139,0,19,19,69,1,7,7,7 | 7,0,1.4111,1.9756,neutral,left,,,,,,stimulusFile/physical.xlsx,,,,,,,,,,,,,,,,,,,,,,,,,,,,,,,
,,,,,,,,,,,,,,,753,2022-01-20_13h21.08.062,multiplicationStroop,2021.2.3,Win32,59.98440405,,,,,left,1,0.5128,0,20,20,48,1,1,1,1 | 1,0,1.9756,1.4111,neutral,left,,,,,,stimulusFile/physical.xlsx,,,,,,,,,,,,,,,,,,,,,,,,,,,,,,,
,,,,,,,,,,,,,,,753,2022-01-20_13h21.08.062,multiplicationStroop,2021.2.3,Win32,59.98440405,,,,,left,1,0.4898,0,21,21,51,1,8,8,8 | 8,0,1.9756,1.4111,neutral,left,,,,,,stimulusFile/physical.xlsx,,,,,,,,,,,,,,,,,,,,,,,,,,,,,,,
,,,,,,,,,,,,,,,753,2022-01-20_13h21.08.062,multiplicationStroop,2021.2.3,Win32,59.98440405,,,,,right,1,0.3913,0,22,22,16,1,1,6,1 | 6,5,1.4111,1.9756,congruent,right,,,,,,stimulusFile/physical.xlsx,,,,,,,,,,,,,,,,,,,,,,,,,,,,,,,
,,,,,,,,,,,,,,,753,2022-01-20_13h21.08.062,multiplicationStroop,2021.2.3,Win32,59.98440405,,,,,left,1,0.4075,0,23,23,21,1,7,2,7 | 2,5,1.9756,1.4111,congruent,left,,,,,,stimulusFile/physical.xlsx,,,,,,,,,,,,,,,,,,,,,,,,,,,,,,,
,,,,,,,,,,,,,,,753,2022-01-20_13h21.08.062,multiplicationStroop,2021.2.3,Win32,59.98440405,,,,,left,1,0.4198,0,24,24,15,1,9,7,9 | 7,2,1.9756,1.4111,congruent,left,,,,,,stimulusFile/physical.xlsx,,,,,,,,,,,,,,,,,,,,,,,,,,,,,,,
,,,,,,,,,,,,,,,753,2022-01-20_13h21.08.062,multiplicationStroop,2021.2.3,Win32,59.98440405,,,,,right,1,0.4492,0,25,25,28,1,2,1,2 | 1,1,1.4111,1.9756,incongruent,right,,,,,,stimulusFile/physical.xlsx,,,,,,,,,,,,,,,,,,,,,,,,,,,,,,,
,,,,,,,,,,,,,,,753,2022-01-20_13h21.08.062,multiplicationStroop,2021.2.3,Win32,59.98440405,,,,,left,1,0.4217,0,26,26,12,1,3,1,3 | 1,2,1.9756,1.4111,congruent,left,,,,,,stimulusFile/physical.xlsx,,,,,,,,,,,,,,,,,,,,,,,,,,,,,,,
,,,,,,,,,,,,,,,753,2022-01-20_13h21.08.062,multiplicationStroop,2021.2.3,Win32,59.98440405,,,,,left,1,0.4134,0,27,27,52,1,2,2,2 | 2,0,1.9756,1.4111,neutral,left,,,,,,stimulusFile/physical.xlsx,,,,,,,,,,,,,,,,,,,,,,,,,,,,,,,
,,,,,,,,,,,,,,,753,2022-01-20_13h21.08.062,multiplicationStroop,2021.2.3,Win32,59.98440405,,,,,right,1,0.3931,0,28,28,67,1,4,4,4 | 4,0,1.4111,1.9756,neutral,right,,,,,,stimulusFile/physical.xlsx,,,,,,,,,,,,,,,,,,,,,,,,,,,,,,,
,,,,,,,,,,,,,,,753,2022-01-20_13h21.08.062,multiplicationStroop,2021.2.3,Win32,59.98440405,,,,,left,1,0.4159,0,29,29,42,1,3,8,3 | 8,5,1.9756,1.4111,incongruent,left,,,,,,stimulusFile/physical.xlsx,,,,,,,,,,,,,,,,,,,,,,,,,,,,,,,
,,,,,,,,,,,,,,,753,2022-01-20_13h21.08.062,multiplicationStroop,2021.2.3,Win32,59.98440405,,,,,left,1,0.443,0,30,30,41,1,2,7,2 | 7,5,1.9756,1.4111,incongruent,left,,,,,,stimulusFile/physical.xlsx,,,,,,,,,,,,,,,,,,,,,,,,,,,,,,,
,,,,,,,,,,,,,,,753,2022-01-20_13h21.08.062,multiplicationStroop,2021.2.3,Win32,59.98440405,,,,,right,1,0.4972,0,31,31,2,1,6,7,6 | 7,1,1.4111,1.9756,congruent,right,,,,,,stimulusFile/physical.xlsx,,,,,,,,,,,,,,,,,,,,,,,,,,,,,,,
,,,,,,,,,,,,,,,753,2022-01-20_13h21.08.062,multiplicationStroop,2021.2.3,Win32,59.98440405,,,,,left,1,0.388,0,32,32,27,1,8,9,8 | 9,1,1.9756,1.4111,incongruent,left,,,,,,stimulusFile/physical.xlsx,,,,,,,,,,,,,,,,,,,,,,,,,,,,,,,
,,,,,,,,,,,,,,,753,2022-01-20_13h21.08.062,multiplicationStroop,2021.2.3,Win32,59.98440405,,,,,right,1,0.4107,0,33,33,9,1,2,4,2 | 4,2,1.4111,1.9756,congruent,right,,,,,,stimulusFile/physical.xlsx,,,,,,,,,,,,,,,,,,,,,,,,,,,,,,,
,,,,,,,,,,,,,,,753,2022-01-20_13h21.08.062,multiplicationStroop,2021.2.3,Win32,59.98440405,,,,,left,1,0.3828,0,34,34,43,1,4,9,4 | 9,5,1.9756,1.4111,incongruent,left,,,,,,stimulusFile/physical.xlsx,,,,,,,,,,,,,,,,,,,,,,,,,,,,,,,
,,,,,,,,,,,,,,,753,2022-01-20_13h21.08.062,multiplicationStroop,2021.2.3,Win32,59.98440405,,,,,left,1,0.4341,0,35,35,14,1,8,6,8 | 6,2,1.9756,1.4111,congruent,left,,,,,,stimulusFile/physical.xlsx,,,,,,,,,,,,,,,,,,,,,,,,,,,,,,,
,,,,,,,,,,,,,,,753,2022-01-20_13h21.08.062,multiplicationStroop,2021.2.3,Win32,59.98440405,,,,,right,0,0.4698,0,36,36,71,1,9,9,9 | 9,0,1.4111,1.9756,neutral,left,,,,,,stimulusFile/physical.xlsx,,,,,,,,,,,,,,,,,,,,,,,,,,,,,,,
,,,,,,,,,,,,,,,753,2022-01-20_13h21.08.062,multiplicationStroop,2021.2.3,Win32,59.98440405,,,,,right,1,0.5039,0,37,37,46,1,8,3,8 | 3,5,1.4111,1.9756,incongruent,right,,,,,,stimulusFile/physical.xlsx,,,,,,,,,,,,,,,,,,,,,,,,,,,,,,,
,,,,,,,,,,,,,,,753,2022-01-20_13h21.08.062,multiplicationStroop,2021.2.3,Win32,59.98440405,,,,,left,1,0.417,0,38,38,6,1,7,6,7 | 6,1,1.9756,1.4111,congruent,left,,,,,,stimulusFile/physical.xlsx,,,,,,,,,,,,,,,,,,,,,,,,,,,,,,,
,,,,,,,,,,,,,,,753,2022-01-20_13h21.08.062,multiplicationStroop,2021.2.3,Win32,59.98440405,,,,,left,1,0.399,0,39,39,50,1,6,6,6 | 6,0,1.9756,1.4111,neutral,left,,,,,,stimulusFile/physical.xlsx,,,,,,,,,,,,,,,,,,,,,,,,,,,,,,,
,,,,,,,,,,,,,,,753,2022-01-20_13h21.08.062,multiplicationStroop,2021.2.3,Win32,59.98440405,,,,,left,1,0.4395,0,40,40,7,1,9,8,9 | 8,1,1.9756,1.4111,congruent,left,,,,,,stimulusFile/physical.xlsx,,,,,,,,,,,,,,,,,,,,,,,,,,,,,,,
,,,,,,,,,,,,,,,753,2022-01-20_13h21.08.062,multiplicationStroop,2021.2.3,Win32,59.98440405,,,,,right,0,0.4212,0,41,41,26,1,6,7,6 | 7,1,1.9756,1.4111,incongruent,left,,,,,,stimulusFile/physical.xlsx,,,,,,,,,,,,,,,,,,,,,,,,,,,,,,,
,,,,,,,,,,,,,,,753,2022-01-20_13h21.08.062,multiplicationStroop,2021.2.3,Win32,59.98440405,,,,,right,1,0.4968,0,42,42,37,1,4,2,4 | 2,2,1.4111,1.9756,incongruent,right,,,,,,stimulusFile/physical.xlsx,,,,,,,,,,,,,,,,,,,,,,,,,,,,,,,
,,,,,,,,,,,,,,,753,2022-01-20_13h21.08.062,multiplicationStroop,2021.2.3,Win32,59.98440405,,,,,right,1,0.4825,0,43,43,62,1,8,8,8 | 8,0,1.4111,1.9756,neutral,right,,,,,,stimulusFile/physical.xlsx,,,,,,,,,,,,,,,,,,,,,,,,,,,,,,,
,,,,,,,,,,,,,,,753,2022-01-20_13h21.08.062,multiplicationStroop,2021.2.3,Win32,59.98440405,,,,,left,1,0.4468,0,44,44,5,1,4,3,4 | 3,1,1.9756,1.4111,congruent,left,,,,,,stimulusFile/physical.xlsx,,,,,,,,,,,,,,,,,,,,,,,,,,,,,,,
,,,,,,,,,,,,,,,753,2022-01-20_13h21.08.062,multiplicationStroop,2021.2.3,Win32,59.98440405,,,,,right,1,0.4128,0,45,45,8,1,1,3,1 | 3,2,1.4111,1.9756,congruent,right,,,,,,stimulusFile/physical.xlsx,,,,,,,,,,,,,,,,,,,,,,,,,,,,,,,
,,,,,,,,,,,,,,,753,2022-01-20_13h21.08.062,multiplicationStroop,2021.2.3,Win32,59.98440405,,,,,left,1,0.4545,0,46,46,4,1,2,1,2 | 1,1,1.9756,1.4111,congruent,left,,,,,,stimulusFile/physical.xlsx,,,,,,,,,,,,,,,,,,,,,,,,,,,,,,,
,,,,,,,,,,,,,,,753,2022-01-20_13h21.08.062,multiplicationStroop,2021.2.3,Win32,59.98440405,,,,,left,1,0.4573,0,47,47,33,1,2,4,2 | 4,2,1.9756,1.4111,incongruent,left,,,,,,stimulusFile/physical.xlsx,,,,,,,,,,,,,,,,,,,,,,,,,,,,,,,
,,,,,,,,,,,,,,,753,2022-01-20_13h21.08.062,multiplicationStroop,2021.2.3,Win32,59.98440405,,,,,left,1,0.4568,0,48,48,24,1,1,2,1 | 2,1,1.9756,1.4111,incongruent,left,,,,,,stimulusFile/physical.xlsx,,,,,,,,,,,,,,,,,,,,,,,,,,,,,,,
,,,,,,,,,,,,,,,753,2022-01-20_13h21.08.062,multiplicationStroop,2021.2.3,Win32,59.98440405,,,,,right,1,0.4342,0,49,49,29,1,4,3,4 | 3,1,1.4111,1.9756,incongruent,right,,,,,,stimulusFile/physical.xlsx,,,,,,,,,,,,,,,,,,,,,,,,,,,,,,,
,,,,,,,,,,,,,,,753,2022-01-20_13h21.08.062,multiplicationStroop,2021.2.3,Win32,59.98440405,,,,,left,1,0.4867,0,50,50,25,1,3,4,3 | 4,1,1.9756,1.4111,incongruent,left,,,,,,stimulusFile/physical.xlsx,,,,,,,,,,,,,,,,,,,,,,,,,,,,,,,
,,,,,,,,,,,,,,,753,2022-01-20_13h21.08.062,multiplicationStroop,2021.2.3,Win32,59.98440405,,,,,right,1,0.4461,0,51,51,57,1,2,2,2 | 2,0,1.4111,1.9756,neutral,right,,,,,,stimulusFile/physical.xlsx,,,,,,,,,,,,,,,,,,,,,,,,,,,,,,,
,,,,,,,,,,,,,,,753,2022-01-20_13h21.08.062,multiplicationStroop,2021.2.3,Win32,59.98440405,,,,,right,1,0.4828,0,52,52,58,1,6,6,6 | 6,0,1.4111,1.9756,neutral,right,,,,,,stimulusFile/physical.xlsx,,,,,,,,,,,,,,,,,,,,,,,,,,,,,,,
,,,,,,,,,,,,,,,753,2022-01-20_13h21.08.062,multiplicationStroop,2021.2.3,Win32,59.98440405,,,,,left,1,0.4327,0,53,53,20,1,6,1,6 | 1,5,1.9756,1.4111,congruent,left,,,,,,stimulusFile/physical.xlsx,,,,,,,,,,,,,,,,,,,,,,,,,,,,,,,
,,,,,,,,,,,,,,,753,2022-01-20_13h21.08.062,multiplicationStroop,2021.2.3,Win32,59.98440405,,,,,right,1,0.3976,0,54,54,0,1,1,2,1 | 2,1,1.4111,1.9756,congruent,right,,,,,,stimulusFile/physical.xlsx,,,,,,,,,,,,,,,,,,,,,,,,,,,,,,,
,,,,,,,,,,,,,,,753,2022-01-20_13h21.08.062,multiplicationStroop,2021.2.3,Win32,59.98440405,,,,,left,1,0.5152,0,55,55,68,1,6,6,6 | 6,0,1.9756,1.4111,neutral,left,,,,,,stimulusFile/physical.xlsx,,,,,,,,,,,,,,,,,,,,,,,,,,,,,,,
,,,,,,,,,,,,,,,753,2022-01-20_13h21.08.062,multiplicationStroop,2021.2.3,Win32,59.98440405,,,,,left,1,0.4914,0,56,56,23,1,9,4,9 | 4,5,1.9756,1.4111,congruent,left,,,,,,stimulusFile/physical.xlsx,,,,,,,,,,,,,,,,,,,,,,,,,,,,,,,
,,,,,,,,,,,,,,,753,2022-01-20_13h21.08.062,multiplicationStroop,2021.2.3,Win32,59.98440405,,,,,right,1,0.4369,0,57,57,30,1,7,6,7 | 6,1,1.4111,1.9756,incongruent,right,,,,,,stimulusFile/physical.xlsx,,,,,,,,,,,,,,,,,,,,,,,,,,,,,,,
,,,,,,,,,,,,,,,753,2022-01-20_13h21.08.062,multiplicationStroop,2021.2.3,Win32,59.98440405,,,,,right,1,0.5169,0,58,58,59,1,7,7,7 | 7,0,1.4111,1.9756,neutral,right,,,,,,stimulusFile/physical.xlsx,,,,,,,,,,,,,,,,,,,,,,,,,,,,,,,
,,,,,,,,,,,,,,,753,2022-01-20_13h21.08.062,multiplicationStroop,2021.2.3,Win32,59.98440405,,,,,left,1,0.423,0,59,59,70,1,8,8,8 | 8,0,1.9756,1.4111,neutral,left,,,,,,stimulusFile/physical.xlsx,,,,,,,,,,,,,,,,,,,,,,,,,,,,,,,
,,,,,,,,,,,,,,,753,2022-01-20_13h21.08.062,multiplicationStroop,2021.2.3,Win32,59.98440405,,,,,right,1,0.5283,0,60,60,44,1,6,1,6 | 1,5,1.4111,1.9756,incongruent,right,,,,,,stimulusFile/physical.xlsx,,,,,,,,,,,,,,,,,,,,,,,,,,,,,,,
,,,,,,,,,,,,,,,753,2022-01-20_13h21.08.062,multiplicationStroop,2021.2.3,Win32,59.98440405,,,,,right,1,0.4861,0,61,61,61,1,4,4,4 | 4,0,1.4111,1.9756,neutral,right,,,,,,stimulusFile/physical.xlsx,,,,,,,,,,,,,,,,,,,,,,,,,,,,,,,
,,,,,,,,,,,,,,,753,2022-01-20_13h21.08.062,multiplicationStroop,2021.2.3,Win32,59.98440405,,,,,left,0,0.4386,0,62,62,66,1,3,3,3 | 3,0,1.9756,1.4111,neutral,right,,,,,,stimulusFile/physical.xlsx,,,,,,,,,,,,,,,,,,,,,,,,,,,,,,,
,,,,,,,,,,,,,,,753,2022-01-20_13h21.08.062,multiplicationStroop,2021.2.3,Win32,59.98440405,,,,,right,1,0.3961,0,63,63,63,1,9,9,9 | 9,0,1.4111,1.9756,neutral,right,,,,,,stimulusFile/physical.xlsx,,,,,,,,,,,,,,,,,,,,,,,,,,,,,,,
,,,,,,,,,,,,,,,753,2022-01-20_13h21.08.062,multiplicationStroop,2021.2.3,Win32,59.98440405,,,,,left,1,0.4684,0,64,64,54,1,7,7,7 | 7,0,1.9756,1.4111,neutral,left,,,,,,stimulusFile/physical.xlsx,,,,,,,,,,,,,,,,,,,,,,,,,,,,,,,
,,,,,,,,,,,,,,,753,2022-01-20_13h21.08.062,multiplicationStroop,2021.2.3,Win32,59.98440405,,,,,right,1,0.4036,0,65,65,10,1,6,8,6 | 8,2,1.4111,1.9756,congruent,right,,,,,,stimulusFile/physical.xlsx,,,,,,,,,,,,,,,,,,,,,,,,,,,,,,,
,,,,,,,,,,,,,,,753,2022-01-20_13h21.08.062,multiplicationStroop,2021.2.3,Win32,59.98440405,,,,,right,1,0.4168,0,66,66,1,1,3,4,3 | 4,1,1.4111,1.9756,congruent,right,,,,,,stimulusFile/physical.xlsx,,,,,,,,,,,,,,,,,,,,,,,,,,,,,,,
,,,,,,,,,,,,,,,753,2022-01-20_13h21.08.062,multiplicationStroop,2021.2.3,Win32,59.98440405,,,,,right,1,0.4057,0,67,67,17,1,2,7,2 | 7,5,1.4111,1.9756,congruent,right,,,,,,stimulusFile/physical.xlsx,,,,,,,,,,,,,,,,,,,,,,,,,,,,,,,
,,,,,,,,,,,,,,,753,2022-01-20_13h21.08.062,multiplicationStroop,2021.2.3,Win32,59.98440405,,,,,left,1,0.4347,0,68,68,13,1,4,2,4 | 2,2,1.9756,1.4111,congruent,left,,,,,,stimulusFile/physical.xlsx,,,,,,,,,,,,,,,,,,,,,,,,,,,,,,,
,,,,,,,,,,,,,,,753,2022-01-20_13h21.08.062,multiplicationStroop,2021.2.3,Win32,59.98440405,,,,,left,1,0.3981,0,69,69,49,1,3,3,3 | 3,0,1.9756,1.4111,neutral,left,,,,,,stimulusFile/physical.xlsx,,,,,,,,,,,,,,,,,,,,,,,,,,,,,,,
,,,,,,,,,,,,,,,753,2022-01-20_13h21.08.062,multiplicationStroop,2021.2.3,Win32,59.98440405,,,,,right,1,0.3871,0,70,70,36,1,3,1,3 | 1,2,1.4111,1.9756,incongruent,right,,,,,,stimulusFile/physical.xlsx,,,,,,,,,,,,,,,,,,,,,,,,,,,,,,,
,,,,,,,,,,,,,,,753,2022-01-20_13h21.08.062,multiplicationStroop,2021.2.3,Win32,59.98440405,,,,,left,1,0.4555,0,71,71,32,1,1,3,1 | 3,2,1.9756,1.4111,incongruent,left,,,,,,stimulusFile/physical.xlsx,,,,,,,,,,,,,,,,,,,,,,,,,,,,,,,
,,,,,,,,,,,,,,,753,2022-01-20_13h21.08.062,multiplicationStroop,2021.2.3,Win32,59.98440405,,,,,,,,,,,,,,,,,,,,,0,0,0,1,1,stimulusFile/physical.xlsx,PHYSICALLY larger (larger font size).,images/physicallyLarger.png,,,,,,,,,,,,,,,,,,,,,,,,,,,,,
,,,,,,,,,,,,,,,753,2022-01-20_13h21.08.062,multiplicationStroop,2021.2.3,Win32,59.98440405,space,15.3636,space,4.3938,right,1,0.8237,0,0,0,24,1,1,2,1 | 2,1,1.9756,1.4111,incongruent,right,,,,,,stimulusFile/magnitude.xlsx,,,,,,,,,,,,,,,,,,,,,,,,,,,,,,,
,,,,,,,,,,,,,,,753,2022-01-20_13h21.08.062,multiplicationStroop,2021.2.3,Win32,59.98440405,,,,,right,1,0.5976,0,1,1,57,1,2,4,2 | 4,2,1.6933,1.6933,neutral,right,,,,,,stimulusFile/magnitude.xlsx,,,,,,,,,,,,,,,,,,,,,,,,,,,,,,,
,,,,,,,,,,,,,,,753,2022-01-20_13h21.08.062,multiplicationStroop,2021.2.3,Win32,59.98440405,,,,,right,1,0.4554,0,2,2,42,1,3,8,3 | 8,5,1.9756,1.4111,incongruent,right,,,,,,stimulusFile/magnitude.xlsx,,,,,,,,,,,,,,,,,,,,,,,,,,,,,,,
,,,,,,,,,,,,,,,753,2022-01-20_13h21.08.062,multiplicationStroop,2021.2.3,Win32,59.98440405,,,,,left,1,0.55,0,3,3,37,1,4,2,4 | 2,2,1.4111,1.9756,incongruent,left,,,,,,stimulusFile/magnitude.xlsx,,,,,,,,,,,,,,,,,,,,,,,,,,,,,,,
,,,,,,,,,,,,,,,753,2022-01-20_13h21.08.062,multiplicationStroop,2021.2.3,Win32,59.98440405,,,,,left,1,0.8819,0,4,4,22,1,8,3,8 | 3,5,1.9756,1.4111,congruent,left,,,,,,stimulusFile/magnitude.xlsx,,,,,,,,,,,,,,,,,,,,,,,,,,,,,,,
,,,,,,,,,,,,,,,753,2022-01-20_13h21.08.062,multiplicationStroop,2021.2.3,Win32,59.98440405,,,,,right,1,0.6435,0,5,5,35,1,7,9,7 | 9,2,1.9756,1.4111,incongruent,right,,,,,,stimulusFile/magnitude.xlsx,,,,,,,,,,,,,,,,,,,,,,,,,,,,,,,
,,,,,,,,,,,,,,,753,2022-01-20_13h21.08.062,multiplicationStroop,2021.2.3,Win32,59.98440405,,,,,right,1,0.6568,0,6,6,33,1,2,4,2 | 4,2,1.9756,1.4111,incongruent,right,,,,,,stimulusFile/magnitude.xlsx,,,,,,,,,,,,,,,,,,,,,,,,,,,,,,,
,,,,,,,,,,,,,,,753,2022-01-20_13h21.08.062,multiplicationStroop,2021.2.3,Win32,59.98440405,,,,,right,1,0.7055,0,7,7,41,1,2,7,2 | 7,5,1.9756,1.4111,incongruent,right,,,,,,stimulusFile/magnitude.xlsx,,,,,,,,,,,,,,,,,,,,,,,,,,,,,,,
,,,,,,,,,,,,,,,753,2022-01-20_13h21.08.062,multiplicationStroop,2021.2.3,Win32,59.98440405,,,,,right,1,0.4841,0,8,8,11,1,7,9,7 | 9,2,1.4111,1.9756,congruent,right,,,,,,stimulusFile/magnitude.xlsx,,,,,,,,,,,,,,,,,,,,,,,,,,,,,,,
,,,,,,,,,,,,,,,753,2022-01-20_13h21.08.062,multiplicationStroop,2021.2.3,Win32,59.98440405,,,,,right,1,0.4754,0,9,9,16,1,1,6,1 | 6,5,1.4111,1.9756,congruent,right,,,,,,stimulusFile/magnitude.xlsx,,,,,,,,,,,,,,,,,,,,,,,,,,,,,,,
,,,,,,,,,,,,,,,753,2022-01-20_13h21.08.062,multiplicationStroop,2021.2.3,Win32,59.98440405,,,,,right,1,0.515,0,10,10,43,1,4,9,4 | 9,5,1.9756,1.4111,incongruent,right,,,,,,stimulusFile/magnitude.xlsx,,,,,,,,,,,,,,,,,,,,,,,,,,,,,,,
,,,,,,,,,,,,,,,753,2022-01-20_13h21.08.062,multiplicationStroop,2021.2.3,Win32,59.98440405,,,,,right,1,0.636,0,11,11,1,1,3,4,3 | 4,1,1.4111,1.9756,congruent,right,,,,,,stimulusFile/magnitude.xlsx,,,,,,,,,,,,,,,,,,,,,,,,,,,,,,,
,,,,,,,,,,,,,,,753,2022-01-20_13h21.08.062,multiplicationStroop,2021.2.3,Win32,59.98440405,,,,,left,1,0.747,0,12,12,55,1,9,8,9 | 8,1,1.6933,1.6933,neutral,left,,,,,,stimulusFile/magnitude.xlsx,,,,,,,,,,,,,,,,,,,,,,,,,,,,,,,
,,,,,,,,,,,,,,,753,2022-01-20_13h21.08.062,multiplicationStroop,2021.2.3,Win32,59.98440405,,,,,left,1,0.7169,0,13,13,39,1,9,7,9 | 7,2,1.4111,1.9756,incongruent,left,,,,,,stimulusFile/magnitude.xlsx,,,,,,,,,,,,,,,,,,,,,,,,,,,,,,,
,,,,,,,,,,,,,,,753,2022-01-20_13h21.08.062,multiplicationStroop,2021.2.3,Win32,59.98440405,,,,,left,1,0.5212,0,14,14,20,1,6,1,6 | 1,5,1.9756,1.4111,congruent,left,,,,,,stimulusFile/magnitude.xlsx,,,,,,,,,,,,,,,,,,,,,,,,,,,,,,,
,,,,,,,,,,,,,,,753,2022-01-20_13h21.08.062,multiplicationStroop,2021.2.3,Win32,59.98440405,,,,,right,0,0.4828,0,15,15,31,1,9,8,9 | 8,1,1.4111,1.9756,incongruent,left,,,,,,stimulusFile/magnitude.xlsx,,,,,,,,,,,,,,,,,,,,,,,,,,,,,,,
,,,,,,,,,,,,,,,753,2022-01-20_13h21.08.062,multiplicationStroop,2021.2.3,Win32,59.98440405,,,,,right,1,1.2014,0,16,16,34,1,6,8,6 | 8,2,1.9756,1.4111,incongruent,right,,,,,,stimulusFile/magnitude.xlsx,,,,,,,,,,,,,,,,,,,,,,,,,,,,,,,
,,,,,,,,,,,,,,,753,2022-01-20_13h21.08.062,multiplicationStroop,2021.2.3,Win32,59.98440405,,,,,left,1,0.5493,0,17,17,60,1,3,1,3 | 1,2,1.6933,1.6933,neutral,left,,,,,,stimulusFile/magnitude.xlsx,,,,,,,,,,,,,,,,,,,,,,,,,,,,,,,
,,,,,,,,,,,,,,,753,2022-01-20_13h21.08.062,multiplicationStroop,2021.2.3,Win32,59.98440405,,,,,left,1,0.6651,0,18,18,53,1,4,3,4 | 3,1,1.6933,1.6933,neutral,left,,,,,,stimulusFile/magnitude.xlsx,,,,,,,,,,,,,,,,,,,,,,,,,,,,,,,
,,,,,,,,,,,,,,,753,2022-01-20_13h21.08.062,multiplicationStroop,2021.2.3,Win32,59.98440405,,,,,right,1,0.7599,0,19,19,51,1,8,9,8 | 9,1,1.6933,1.6933,neutral,right,,,,,,stimulusFile/magnitude.xlsx,,,,,,,,,,,,,,,,,,,,,,,,,,,,,,,
,,,,,,,,,,,,,,,753,2022-01-20_13h21.08.062,multiplicationStroop,2021.2.3,Win32,59.98440405,,,,,left,1,0.6841,0,20,20,6,1,7,6,7 | 6,1,1.9756,1.4111,congruent,left,,,,,,stimulusFile/magnitude.xlsx,,,,,,,,,,,,,,,,,,,,,,,,,,,,,,,
,,,,,,,,,,,,,,,753,2022-01-20_13h21.08.062,multiplicationStroop,2021.2.3,Win32,59.98440405,,,,,left,1,0.65,0,21,21,36,1,3,1,3 | 1,2,1.4111,1.9756,incongruent,left,,,,,,stimulusFile/magnitude.xlsx,,,,,,,,,,,,,,,,,,,,,,,,,,,,,,,
,,,,,,,,,,,,,,,753,2022-01-20_13h21.08.062,multiplicationStroop,2021.2.3,Win32,59.98440405,,,,,right,0,0.451,0,22,22,38,1,8,6,8 | 6,2,1.4111,1.9756,incongruent,left,,,,,,stimulusFile/magnitude.xlsx,,,,,,,,,,,,,,,,,,,,,,,,,,,,,,,
,,,,,,,,,,,,,,,753,2022-01-20_13h21.08.062,multiplicationStroop,2021.2.3,Win32,59.98440405,,,,,left,1,0.8966,0,23,23,12,1,3,1,3 | 1,2,1.9756,1.4111,congruent,left,,,,,,stimulusFile/magnitude.xlsx,,,,,,,,,,,,,,,,,,,,,,,,,,,,,,,
,,,,,,,,,,,,,,,753,2022-01-20_13h21.08.062,multiplicationStroop,2021.2.3,Win32,59.98440405,,,,,right,1,0.5125,0,24,24,58,1,6,8,6 | 8,2,1.6933,1.6933,neutral,right,,,,,,stimulusFile/magnitude.xlsx,,,,,,,,,,,,,,,,,,,,,,,,,,,,,,,
,,,,,,,,,,,,,,,753,2022-01-20_13h21.08.062,multiplicationStroop,2021.2.3,Win32,59.98440405,,,,,left,1,0.5647,0,25,25,52,1,2,1,2 | 1,1,1.6933,1.6933,neutral,left,,,,,,stimulusFile/magnitude.xlsx,,,,,,,,,,,,,,,,,,,,,,,,,,,,,,,
,,,,,,,,,,,,,,,753,2022-01-20_13h21.08.062,multiplicationStroop,2021.2.3,Win32,59.98440405,,,,,left,1,0.4994,0,26,26,69,1,7,2,7 | 2,5,1.6933,1.6933,neutral,left,,,,,,stimulusFile/magnitude.xlsx,,,,,,,,,,,,,,,,,,,,,,,,,,,,,,,
,,,,,,,,,,,,,,,753,2022-01-20_13h21.08.062,multiplicationStroop,2021.2.3,Win32,59.98440405,,,,,right,1,0.7232,0,27,27,26,1,6,7,6 | 7,1,1.9756,1.4111,incongruent,right,,,,,,stimulusFile/magnitude.xlsx,,,,,,,,,,,,,,,,,,,,,,,,,,,,,,,
,,,,,,,,,,,,,,,753,2022-01-20_13h21.08.062,multiplicationStroop,2021.2.3,Win32,59.98440405,,,,,right,1,0.5355,0,28,28,0,1,1,2,1 | 2,1,1.4111,1.9756,congruent,right,,,,,,stimulusFile/magnitude.xlsx,,,,,,,,,,,,,,,,,,,,,,,,,,,,,,,
,,,,,,,,,,,,,,,753,2022-01-20_13h21.08.062,multiplicationStroop,2021.2.3,Win32,59.98440405,,,,,right,1,0.5038,0,29,29,67,1,4,9,4 | 9,5,1.6933,1.6933,neutral,right,,,,,,stimulusFile/magnitude.xlsx,,,,,,,,,,,,,,,,,,,,,,,,,,,,,,,
,,,,,,,,,,,,,,,753,2022-01-20_13h21.08.062,multiplicationStroop,2021.2.3,Win32,59.98440405,,,,,left,1,0.4884,0,30,30,44,1,6,1,6 | 1,5,1.4111,1.9756,incongruent,left,,,,,,stimulusFile/magnitude.xlsx,,,,,,,,,,,,,,,,,,,,,,,,,,,,,,,
,,,,,,,,,,,,,,,753,2022-01-20_13h21.08.062,multiplicationStroop,2021.2.3,Win32,59.98440405,,,,,left,1,0.6232,0,31,31,47,1,9,4,9 | 4,5,1.4111,1.9756,incongruent,left,,,,,,stimulusFile/magnitude.xlsx,,,,,,,,,,,,,,,,,,,,,,,,,,,,,,,
,,,,,,,,,,,,,,,753,2022-01-20_13h21.08.062,multiplicationStroop,2021.2.3,Win32,59.98440405,,,,,left,1,0.4596,0,32,32,13,1,4,2,4 | 2,2,1.9756,1.4111,congruent,left,,,,,,stimulusFile/magnitude.xlsx,,,,,,,,,,,,,,,,,,,,,,,,,,,,,,,
,,,,,,,,,,,,,,,753,2022-01-20_13h21.08.062,multiplicationStroop,2021.2.3,Win32,59.98440405,,,,,left,1,0.8051,0,33,33,29,1,4,3,4 | 3,1,1.4111,1.9756,incongruent,left,,,,,,stimulusFile/magnitude.xlsx,,,,,,,,,,,,,,,,,,,,,,,,,,,,,,,
,,,,,,,,,,,,,,,753,2022-01-20_13h21.08.062,multiplicationStroop,2021.2.3,Win32,59.98440405,,,,,left,1,0.4854,0,34,34,4,1,2,1,2 | 1,1,1.9756,1.4111,congruent,left,,,,,,stimulusFile/magnitude.xlsx,,,,,,,,,,,,,,,,,,,,,,,,,,,,,,,
,,,,,,,,,,,,,,,753,2022-01-20_13h21.08.062,multiplicationStroop,2021.2.3,Win32,59.98440405,,,,,left,1,0.4983,0,35,35,7,1,9,8,9 | 8,1,1.9756,1.4111,congruent,left,,,,,,stimulusFile/magnitude.xlsx,,,,,,,,,,,,,,,,,,,,,,,,,,,,,,,
,,,,,,,,,,,,,,,753,2022-01-20_13h21.08.062,multiplicationStroop,2021.2.3,Win32,59.98440405,,,,,right,1,0.5945,0,36,36,56,1,1,3,1 | 3,2,1.6933,1.6933,neutral,right,,,,,,stimulusFile/magnitude.xlsx,,,,,,,,,,,,,,,,,,,,,,,,,,,,,,,
,,,,,,,,,,,,,,,753,2022-01-20_13h21.08.062,multiplicationStroop,2021.2.3,Win32,59.98440405,,,,,left,1,0.6691,0,37,37,30,1,7,6,7 | 6,1,1.4111,1.9756,incongruent,left,,,,,,stimulusFile/magnitude.xlsx,,,,,,,,,,,,,,,,,,,,,,,,,,,,,,,
,,,,,,,,,,,,,,,753,2022-01-20_13h21.08.062,multiplicationStroop,2021.2.3,Win32,59.98440405,,,,,left,1,0.519,0,38,38,45,1,7,2,7 | 2,5,1.4111,1.9756,incongruent,left,,,,,,stimulusFile/magnitude.xlsx,,,,,,,,,,,,,,,,,,,,,,,,,,,,,,,
,,,,,,,,,,,,,,,753,2022-01-20_13h21.08.062,multiplicationStroop,2021.2.3,Win32,59.98440405,,,,,left,1,0.4157,0,39,39,21,1,7,2,7 | 2,5,1.9756,1.4111,congruent,left,,,,,,stimulusFile/magnitude.xlsx,,,,,,,,,,,,,,,,,,,,,,,,,,,,,,,
,,,,,,,,,,,,,,,753,2022-01-20_13h21.08.062,multiplicationStroop,2021.2.3,Win32,59.98440405,,,,,right,1,0.5731,0,40,40,17,1,2,7,2 | 7,5,1.4111,1.9756,congruent,right,,,,,,stimulusFile/magnitude.xlsx,,,,,,,,,,,,,,,,,,,,,,,,,,,,,,,
,,,,,,,,,,,,,,,753,2022-01-20_13h21.08.062,multiplicationStroop,2021.2.3,Win32,59.98440405,,,,,right,1,0.833,0,41,41,50,1,6,7,6 | 7,1,1.6933,1.6933,neutral,right,,,,,,stimulusFile/magnitude.xlsx,,,,,,,,,,,,,,,,,,,,,,,,,,,,,,,
,,,,,,,,,,,,,,,753,2022-01-20_13h21.08.062,multiplicationStroop,2021.2.3,Win32,59.98440405,,,,,right,1,0.6073,0,42,42,8,1,1,3,1 | 3,2,1.4111,1.9756,congruent,right,,,,,,stimulusFile/magnitude.xlsx,,,,,,,,,,,,,,,,,,,,,,,,,,,,,,,
,,,,,,,,,,,,,,,753,2022-01-20_13h21.08.062,multiplicationStroop,2021.2.3,Win32,59.98440405,,,,,right,1,0.4484,0,43,43,2,1,6,7,6 | 7,1,1.4111,1.9756,congruent,right,,,,,,stimulusFile/magnitude.xlsx,,,,,,,,,,,,,,,,,,,,,,,,,,,,,,,
,,,,,,,,,,,,,,,753,2022-01-20_13h21.08.062,multiplicationStroop,2021.2.3,Win32,59.98440405,,,,,left,1,0.5237,0,44,44,15,1,9,7,9 | 7,2,1.9756,1.4111,congruent,left,,,,,,stimulusFile/magnitude.xlsx,,,,,,,,,,,,,,,,,,,,,,,,,,,,,,,
,,,,,,,,,,,,,,,753,2022-01-20_13h21.08.062,multiplicationStroop,2021.2.3,Win32,59.98440405,,,,,right,1,0.6171,0,45,45,49,1,3,4,3 | 4,1,1.6933,1.6933,neutral,right,,,,,,stimulusFile/magnitude.xlsx,,,,,,,,,,,,,,,,,,,,,,,,,,,,,,,
,,,,,,,,,,,,,,,753,2022-01-20_13h21.08.062,multiplicationStroop,2021.2.3,Win32,59.98440405,,,,,left,1,0.481,0,46,46,5,1,4,3,4 | 3,1,1.9756,1.4111,congruent,left,,,,,,stimulusFile/magnitude.xlsx,,,,,,,,,,,,,,,,,,,,,,,,,,,,,,,
,,,,,,,,,,,,,,,753,2022-01-20_13h21.08.062,multiplicationStroop,2021.2.3,Win32,59.98440405,,,,,left,1,0.4534,0,47,47,23,1,9,4,9 | 4,5,1.9756,1.4111,congruent,left,,,,,,stimulusFile/magnitude.xlsx,,,,,,,,,,,,,,,,,,,,,,,,,,,,,,,
,,,,,,,,,,,,,,,753,2022-01-20_13h21.08.062,multiplicationStroop,2021.2.3,Win32,59.98440405,,,,,left,1,0.7385,0,48,48,62,1,8,6,8 | 6,2,1.6933,1.6933,neutral,left,,,,,,stimulusFile/magnitude.xlsx,,,,,,,,,,,,,,,,,,,,,,,,,,,,,,,
,,,,,,,,,,,,,,,753,2022-01-20_13h21.08.062,multiplicationStroop,2021.2.3,Win32,59.98440405,,,,,right,1,0.5408,0,49,49,48,1,1,2,1 | 2,1,1.6933,1.6933,neutral,right,,,,,,stimulusFile/magnitude.xlsx,,,,,,,,,,,,,,,,,,,,,,,,,,,,,,,
,,,,,,,,,,,,,,,753,2022-01-20_13h21.08.062,multiplicationStroop,2021.2.3,Win32,59.98440405,,,,,left,1,1.048,0,50,50,28,1,2,1,2 | 1,1,1.4111,1.9756,incongruent,left,,,,,,stimulusFile/magnitude.xlsx,,,,,,,,,,,,,,,,,,,,,,,,,,,,,,,
,,,,,,,,,,,,,,,753,2022-01-20_13h21.08.062,multiplicationStroop,2021.2.3,Win32,59.98440405,,,,,right,1,0.5335,0,51,51,19,1,4,9,4 | 9,5,1.4111,1.9756,congruent,right,,,,,,stimulusFile/magnitude.xlsx,,,,,,,,,,,,,,,,,,,,,,,,,,,,,,,
,,,,,,,,,,,,,,,753,2022-01-20_13h21.08.062,multiplicationStroop,2021.2.3,Win32,59.98440405,,,,,right,1,0.4588,0,52,52,18,1,3,8,3 | 8,5,1.4111,1.9756,congruent,right,,,,,,stimulusFile/magnitude.xlsx,,,,,,,,,,,,,,,,,,,,,,,,,,,,,,,
,,,,,,,,,,,,,,,753,2022-01-20_13h21.08.062,multiplicationStroop,2021.2.3,Win32,59.98440405,,,,,right,1,0.5917,0,53,53,65,1,2,7,2 | 7,5,1.6933,1.6933,neutral,right,,,,,,stimulusFile/magnitude.xlsx,,,,,,,,,,,,,,,,,,,,,,,,,,,,,,,
,,,,,,,,,,,,,,,753,2022-01-20_13h21.08.062,multiplicationStroop,2021.2.3,Win32,59.98440405,,,,,right,1,0.8479,0,54,54,32,1,1,3,1 | 3,2,1.9756,1.4111,incongruent,right,,,,,,stimulusFile/magnitude.xlsx,,,,,,,,,,,,,,,,,,,,,,,,,,,,,,,
,,,,,,,,,,,,,,,753,2022-01-20_13h21.08.062,multiplicationStroop,2021.2.3,Win32,59.98440405,,,,,left,0,0.473,0,55,55,27,1,8,9,8 | 9,1,1.9756,1.4111,incongruent,right,,,,,,stimulusFile/magnitude.xlsx,,,,,,,,,,,,,,,,,,,,,,,,,,,,,,,
,,,,,,,,,,,,,,,753,2022-01-20_13h21.08.062,multiplicationStroop,2021.2.3,Win32,59.98440405,,,,,left,1,1.2982,0,56,56,63,1,9,7,9 | 7,2,1.6933,1.6933,neutral,left,,,,,,stimulusFile/magnitude.xlsx,,,,,,,,,,,,,,,,,,,,,,,,,,,,,,,
,,,,,,,,,,,,,,,753,2022-01-20_13h21.08.062,multiplicationStroop,2021.2.3,Win32,59.98440405,,,,,right,1,0.4853,0,57,57,10,1,6,8,6 | 8,2,1.4111,1.9756,congruent,right,,,,,,stimulusFile/magnitude.xlsx,,,,,,,,,,,,,,,,,,,,,,,,,,,,,,,
,,,,,,,,,,,,,,,753,2022-01-20_13h21.08.062,multiplicationStroop,2021.2.3,Win32,59.98440405,,,,,right,1,0.8183,0,58,58,64,1,1,6,1 | 6,5,1.6933,1.6933,neutral,right,,,,,,stimulusFile/magnitude.xlsx,,,,,,,,,,,,,,,,,,,,,,,,,,,,,,,
,,,,,,,,,,,,,,,753,2022-01-20_13h21.08.062,multiplicationStroop,2021.2.3,Win32,59.98440405,,,,,left,1,0.499,0,59,59,70,1,8,3,8 | 3,5,1.6933,1.6933,neutral,left,,,,,,stimulusFile/magnitude.xlsx,,,,,,,,,,,,,,,,,,,,,,,,,,,,,,,
,,,,,,,,,,,,,,,753,2022-01-20_13h21.08.062,multiplicationStroop,2021.2.3,Win32,59.98440405,,,,,left,1,0.6503,0,60,60,54,1,7,6,7 | 6,1,1.6933,1.6933,neutral,left,,,,,,stimulusFile/magnitude.xlsx,,,,,,,,,,,,,,,,,,,,,,,,,,,,,,,
,,,,,,,,,,,,,,,753,2022-01-20_13h21.08.062,multiplicationStroop,2021.2.3,Win32,59.98440405,,,,,left,1,0.5562,0,61,61,71,1,9,4,9 | 4,5,1.6933,1.6933,neutral,left,,,,,,stimulusFile/magnitude.xlsx,,,,,,,,,,,,,,,,,,,,,,,,,,,,,,,
,,,,,,,,,,,,,,,753,2022-01-20_13h21.08.062,multiplicationStroop,2021.2.3,Win32,59.98440405,,,,,left,1,0.571,0,62,62,46,1,8,3,8 | 3,5,1.4111,1.9756,incongruent,left,,,,,,stimulusFile/magnitude.xlsx,,,,,,,,,,,,,,,,,,,,,,,,,,,,,,,
,,,,,,,,,,,,,,,753,2022-01-20_13h21.08.062,multiplicationStroop,2021.2.3,Win32,59.98440405,,,,,right,1,0.5987,0,63,63,66,1,3,8,3 | 8,5,1.6933,1.6933,neutral,right,,,,,,stimulusFile/magnitude.xlsx,,,,,,,,,,,,,,,,,,,,,,,,,,,,,,,
,,,,,,,,,,,,,,,753,2022-01-20_13h21.08.062,multiplicationStroop,2021.2.3,Win32,59.98440405,,,,,right,1,0.6814,0,64,64,25,1,3,4,3 | 4,1,1.9756,1.4111,incongruent,right,,,,,,stimulusFile/magnitude.xlsx,,,,,,,,,,,,,,,,,,,,,,,,,,,,,,,
,,,,,,,,,,,,,,,753,2022-01-20_13h21.08.062,multiplicationStroop,2021.2.3,Win32,59.98440405,,,,,left,1,0.5511,0,65,65,14,1,8,6,8 | 6,2,1.9756,1.4111,congruent,left,,,,,,stimulusFile/magnitude.xlsx,,,,,,,,,,,,,,,,,,,,,,,,,,,,,,,
,,,,,,,,,,,,,,,753,2022-01-20_13h21.08.062,multiplicationStroop,2021.2.3,Win32,59.98440405,,,,,right,1,0.5281,0,66,66,3,1,8,9,8 | 9,1,1.4111,1.9756,congruent,right,,,,,,stimulusFile/magnitude.xlsx,,,,,,,,,,,,,,,,,,,,,,,,,,,,,,,
,,,,,,,,,,,,,,,753,2022-01-20_13h21.08.062,multiplicationStroop,2021.2.3,Win32,59.98440405,,,,,right,1,0.6423,0,67,67,59,1,7,9,7 | 9,2,1.6933,1.6933,neutral,right,,,,,,stimulusFile/magnitude.xlsx,,,,,,,,,,,,,,,,,,,,,,,,,,,,,,,
,,,,,,,,,,,,,,,753,2022-01-20_13h21.08.062,multiplicationStroop,2021.2.3,Win32,59.98440405,,,,,left,1,0.5172,0,68,68,68,1,6,1,6 | 1,5,1.6933,1.6933,neutral,left,,,,,,stimulusFile/magnitude.xlsx,,,,,,,,,,,,,,,,,,,,,,,,,,,,,,,
,,,,,,,,,,,,,,,753,2022-01-20_13h21.08.062,multiplicationStroop,2021.2.3,Win32,59.98440405,,,,,left,1,0.5731,0,69,69,61,1,4,2,4 | 2,2,1.6933,1.6933,neutral,left,,,,,,stimulusFile/magnitude.xlsx,,,,,,,,,,,,,,,,,,,,,,,,,,,,,,,
,,,,,,,,,,,,,,,753,2022-01-20_13h21.08.062,multiplicationStroop,2021.2.3,Win32,59.98440405,,,,,right,1,0.4466,0,70,70,9,1,2,4,2 | 4,2,1.4111,1.9756,congruent,right,,,,,,stimulusFile/magnitude.xlsx,,,,,,,,,,,,,,,,,,,,,,,,,,,,,,,
,,,,,,,,,,,,,,,753,2022-01-20_13h21.08.062,multiplicationStroop,2021.2.3,Win32,59.98440405,,,,,right,1,0.5486,0,71,71,40,1,1,6,1 | 6,5,1.9756,1.4111,incongruent,right,,,,,,stimulusFile/magnitude.xlsx,,,,,,,,,,,,,,,,,,,,,,,,,,,,,,,
,,,,,,,,,,,,,,,753,2022-01-20_13h21.08.062,multiplicationStroop,2021.2.3,Win32,59.98440405,,,,,,,,,,,,,,,,,,,,,0,1,1,0,1,stimulusFile/magnitude.xlsx,NUMERICALLY larger (larger coefficient).,images/numericallyLarger.png,,,,,,,,,,,,,,,,,,,,,,,,,,,,,
,,,,,,,,,,,,,,,753,2022-01-20_13h21.08.062,multiplicationStroop,2021.2.3,Win32,59.98440405,,,,,,,,,,,,,,,,,,,,,,,,,,,,,space,22.3081,space,1.7824,81,4.4563,1,0,0,0,35,1,9,×,9,9 × 9,neutral,tie,2,1,81,,,,,,,,
,,,,,,,,,,,,,,,753,2022-01-20_13h21.08.062,multiplicationStroop,2021.2.3,Win32,59.98440405,,,,,,,,,,,,,,,,,,,,,,,,,,,,,,,,,42,2.142,1,0,1,1,3,1,6,×,7,6 × 7,incongruent,smallerFirst,2,1,42,,,,,,,,
,,,,,,,,,,,,,,,753,2022-01-20_13h21.08.062,multiplicationStroop,2021.2.3,Win32,59.98440405,,,,,,,,,,,,,,,,,,,,,,,,,,,,,,,,,14,2.182,1,0,2,2,18,1,7,×,2,7 × 2,incongruent,largerFirst,1,2,14,,,,,,,,
,,,,,,,,,,,,,,,753,2022-01-20_13h21.08.062,multiplicationStroop,2021.2.3,Win32,59.98440405,,,,,,,,,,,,,,,,,,,,,,,,,,,,,,,,,18,2.3987,1,0,3,3,22,1,6,×,3,6 × 3,incongruent,largerFirst,1,2,18,,,,,,,,
,,,,,,,,,,,,,,,753,2022-01-20_13h21.08.062,multiplicationStroop,2021.2.3,Win32,59.98440405,,,,,,,,,,,,,,,,,,,,,,,,,,,,,,,,,49,2.1319,1,0,4,4,33,1,7,×,7,7 × 7,neutral,tie,2,1,49,,,,,,,,
,,,,,,,,,,,,,,,753,2022-01-20_13h21.08.062,multiplicationStroop,2021.2.3,Win32,59.98440405,,,,,,,,,,,,,,,,,,,,,,,,,,,,,,,,,30,1.7446,1,0,5,5,11,1,5,×,6,5 × 6,incongruent,smallerFirst,2,1,30,,,,,,,,
,,,,,,,,,,,,,,,753,2022-01-20_13h21.08.062,multiplicationStroop,2021.2.3,Win32,59.98440405,,,,,,,,,,,,,,,,,,,,,,,,,,,,,,,,,20,1.7653,1,0,6,6,13,1,4,×,5,4 × 5,incongruent,smallerFirst,2,1,20,,,,,,,,
,,,,,,,,,,,,,,,753,2022-01-20_13h21.08.062,multiplicationStroop,2021.2.3,Win32,59.98440405,,,,,,,,,,,,,,,,,,,,,,,,,,,,,,,,,36,2.1822,1,0,7,7,1,1,4,×,9,4 × 9,incongruent,smallerFirst,2,1,36,,,,,,,,
,,,,,,,,,,,,,,,753,2022-01-20_13h21.08.062,multiplicationStroop,2021.2.3,Win32,59.98440405,,,,,,,,,,,,,,,,,,,,,,,,,,,,,,,,,24,1.5651,1,0,8,8,23,1,8,×,3,8 × 3,incongruent,largerFirst,1,2,24,,,,,,,,
,,,,,,,,,,,,,,,753,2022-01-20_13h21.08.062,multiplicationStroop,2021.2.3,Win32,59.98440405,,,,,,,,,,,,,,,,,,,,,,,,,,,,,,,,,12,1.4992,1,0,9,9,19,1,4,×,3,4 × 3,incongruent,largerFirst,1,2,12,,,,,,,,
,,,,,,,,,,,,,,,753,2022-01-20_13h21.08.062,multiplicationStroop,2021.2.3,Win32,59.98440405,,,,,,,,,,,,,,,,,,,,,,,,,,,,,,,,,15,1.5027,1,0,10,10,24,1,5,×,3,5 × 3,incongruent,largerFirst,1,2,15,,,,,,,,
,,,,,,,,,,,,,,,753,2022-01-20_13h21.08.062,multiplicationStroop,2021.2.3,Win32,59.98440405,,,,,,,,,,,,,,,,,,,,,,,,,,,,,,,,,16,2.2947,1,0,11,11,9,1,2,×,8,2 × 8,incongruent,smallerFirst,2,1,16,,,,,,,,
,,,,,,,,,,,,,,,753,2022-01-20_13h21.08.062,multiplicationStroop,2021.2.3,Win32,59.98440405,,,,,,,,,,,,,,,,,,,,,,,,,,,,,,,,,40,2.2024,1,0,12,12,27,1,8,×,5,8 × 5,incongruent,largerFirst,1,2,40,,,,,,,,
,,,,,,,,,,,,,,,753,2022-01-20_13h21.08.062,multiplicationStroop,2021.2.3,Win32,59.98440405,,,,,,,,,,,,,,,,,,,,,,,,,,,,,,,,,8,3.5776,1,0,13,13,10,1,2,×,4,2 × 4,incongruent,smallerFirst,2,1,8,,,,,,,,
,,,,,,,,,,,,,,,753,2022-01-20_13h21.08.062,multiplicationStroop,2021.2.3,Win32,59.98440405,,,,,,,,,,,,,,,,,,,,,,,,,,,,,,,,,25,2.0895,1,0,14,14,31,1,5,×,5,5 × 5,neutral,tie,2,1,25,,,,,,,,
,,,,,,,,,,,,,,,753,2022-01-20_13h21.08.062,multiplicationStroop,2021.2.3,Win32,59.98440405,,,,,,,,,,,,,,,,,,,,,,,,,,,,,,,,,24,2.4658,1,0,15,15,6,1,4,×,6,4 × 6,incongruent,smallerFirst,2,1,24,,,,,,,,
,,,,,,,,,,,,,,,753,2022-01-20_13h21.08.062,multiplicationStroop,2021.2.3,Win32,59.98440405,,,,,,,,,,,,,,,,,,,,,,,,,,,,,,,,,27,2.3572,1,0,16,16,4,1,3,×,9,3 × 9,incongruent,smallerFirst,2,1,27,,,,,,,,
,,,,,,,,,,,,,,,753,2022-01-20_13h21.08.062,multiplicationStroop,2021.2.3,Win32,59.98440405,,,,,,,,,,,,,,,,,,,,,,,,,,,,,,,,,36,1.782,1,0,17,17,32,1,6,×,6,6 × 6,neutral,tie,2,1,36,,,,,,,,
,,,,,,,,,,,,,,,753,2022-01-20_13h21.08.062,multiplicationStroop,2021.2.3,Win32,59.98440405,,,,,,,,,,,,,,,,,,,,,,,,,,,,,,,,,9,1.499,1,0,18,18,29,1,3,×,3,3 × 3,neutral,tie,2,1,9,,,,,,,,
,,,,,,,,,,,,,,,753,2022-01-20_13h21.08.062,multiplicationStroop,2021.2.3,Win32,59.98440405,,,,,,,,,,,,,,,,,,,,,,,,,,,,,,,,,64,2.6485,1,0,19,19,34,1,8,×,8,8 × 8,neutral,tie,2,1,64,,,,,,,,
,,,,,,,,,,,,,,,753,2022-01-20_13h21.08.062,multiplicationStroop,2021.2.3,Win32,59.98440405,,,,,,,,,,,,,,,,,,,,,,,,,,,,,,,,,18,1.9741,1,0,20,20,16,1,9,×,2,9 × 2,incongruent,largerFirst,1,2,18,,,,,,,,
,,,,,,,,,,,,,,,753,2022-01-20_13h21.08.062,multiplicationStroop,2021.2.3,Win32,59.98440405,,,,,,,,,,,,,,,,,,,,,,,,,,,,,,,,,6,1.5658,1,0,21,21,25,1,3,×,2,3 × 2,incongruent,largerFirst,1,2,6,,,,,,,,
,,,,,,,,,,,,,,,753,2022-01-20_13h21.08.062,multiplicationStroop,2021.2.3,Win32,59.98440405,,,,,,,,,,,,,,,,,,,,,,,,,,,,,,,,,56,1.9649,1,0,22,22,0,1,7,×,8,7 × 8,incongruent,smallerFirst,2,1,56,,,,,,,,
,,,,,,,,,,,,,,,753,2022-01-20_13h21.08.062,multiplicationStroop,2021.2.3,Win32,59.98440405,,,,,,,,,,,,,,,,,,,,,,,,,,,,,,,,,72,2.4985,1,0,23,23,14,1,9,×,8,9 × 8,incongruent,largerFirst,1,2,72,,,,,,,,
,,,,,,,,,,,,,,,753,2022-01-20_13h21.08.062,multiplicationStroop,2021.2.3,Win32,59.98440405,,,,,,,,,,,,,,,,,,,,,,,,,,,,,,,,,35,1.8745,1,0,24,24,26,1,7,×,5,7 × 5,incongruent,largerFirst,1,2,35,,,,,,,,
,,,,,,,,,,,,,,,753,2022-01-20_13h21.08.062,multiplicationStroop,2021.2.3,Win32,59.98440405,,,,,,,,,,,,,,,,,,,,,,,,,,,,,,,,,63,3.215,1,0,25,25,17,1,9,×,7,9 × 7,incongruent,largerFirst,1,2,63,,,,,,,,
,,,,,,,,,,,,,,,753,2022-01-20_13h21.08.062,multiplicationStroop,2021.2.3,Win32,59.98440405,,,,,,,,,,,,,,,,,,,,,,,,,,,,,,,,,48,2.2978,1,0,26,26,15,1,8,×,6,8 × 6,incongruent,largerFirst,1,2,48,,,,,,,,
,,,,,,,,,,,,,,,753,2022-01-20_13h21.08.062,multiplicationStroop,2021.2.3,Win32,59.98440405,,,,,,,,,,,,,,,,,,,,,,,,,,,,,,,,,32,2.3149,1,0,27,27,21,1,8,×,4,8 × 4,incongruent,largerFirst,1,2,32,,,,,,,,
,,,,,,,,,,,,,,,753,2022-01-20_13h21.08.062,multiplicationStroop,2021.2.3,Win32,59.98440405,,,,,,,,,,,,,,,,,,,,,,,,,,,,,,,,,28,3.6896,1,0,28,28,2,1,4,×,7,4 × 7,incongruent,smallerFirst,2,1,28,,,,,,,,
,,,,,,,,,,,,,,,753,2022-01-20_13h21.08.062,multiplicationStroop,2021.2.3,Win32,59.98440405,,,,,,,,,,,,,,,,,,,,,,,,,,,,,,,,,54,2.5818,1,0,29,29,20,1,9,×,6,9 × 6,incongruent,largerFirst,1,2,54,,,,,,,,
,,,,,,,,,,,,,,,753,2022-01-20_13h21.08.062,multiplicationStroop,2021.2.3,Win32,59.98440405,,,,,,,,,,,,,,,,,,,,,,,,,,,,,,,,,12,1.608,1,0,30,30,5,1,2,×,6,2 × 6,incongruent,smallerFirst,2,1,12,,,,,,,,
,,,,,,,,,,,,,,,753,2022-01-20_13h21.08.062,multiplicationStroop,2021.2.3,Win32,59.98440405,,,,,,,,,,,,,,,,,,,,,,,,,,,,,,,,,21,1.6823,1,0,31,31,12,1,3,×,7,3 × 7,incongruent,smallerFirst,2,1,21,,,,,,,,
,,,,,,,,,,,,,,,753,2022-01-20_13h21.08.062,multiplicationStroop,2021.2.3,Win32,59.98440405,,,,,,,,,,,,,,,,,,,,,,,,,,,,,,,,,10,1.9653,1,0,32,32,7,1,2,×,5,2 × 5,incongruent,smallerFirst,2,1,10,,,,,,,,
,,,,,,,,,,,,,,,753,2022-01-20_13h21.08.062,multiplicationStroop,2021.2.3,Win32,59.98440405,,,,,,,,,,,,,,,,,,,,,,,,,,,,,,,,,4,1.5827,1,0,33,33,28,1,2,×,2,2 × 2,neutral,tie,2,1,4,,,,,,,,
,,,,,,,,,,,,,,,753,2022-01-20_13h21.08.062,multiplicationStroop,2021.2.3,Win32,59.98440405,,,,,,,,,,,,,,,,,,,,,,,,,,,,,,,,,45,1.8819,1,0,34,34,8,1,5,×,9,5 × 9,incongruent,smallerFirst,2,1,45,,,,,,,,
,,,,,,,,,,,,,,,753,2022-01-20_13h21.08.062,multiplicationStroop,2021.2.3,Win32,59.98440405,,,,,,,,,,,,,,,,,,,,,,,,,,,,,,,,,16,1.882,1,0,35,35,30,1,4,×,4,4 × 4,neutral,tie,2,1,16,,,,,,,,
,,,,,,,,,,,,,,,753,2022-01-20_13h21.08.062,multiplicationStroop,2021.2.3,Win32,59.98440405,,,,,,,,,,,,,,,,,,,,,,,,,,,,,,,,,,,,,,,,,,,,,,,,,,0,0,0,4,1,stimulusFile/mult_blk5_INcongruent.xlsx,,
,,,,,,,,,,,,,,,753,2022-01-20_13h21.08.062,multiplicationStroop,2021.2.3,Win32,59.98440405,,,,,,,,,,,,,,,,,,,,,,,,,,,,,,,space,3.0669,48,1.8074,1,0,0,0,1,1,6,×,8,6 × 8,incongruent,smallerFirst,2,1,48,,,,,,,,
,,,,,,,,,,,,,,,753,2022-01-20_13h21.08.062,multiplicationStroop,2021.2.3,Win32,59.98440405,,,,,,,,,,,,,,,,,,,,,,,,,,,,,,,,,12,1.7321,1,0,1,1,5,1,3,×,4,3 × 4,incongruent,smallerFirst,2,1,12,,,,,,,,
,,,,,,,,,,,,,,,753,2022-01-20_13h21.08.062,multiplicationStroop,2021.2.3,Win32,59.98440405,,,,,,,,,,,,,,,,,,,,,,,,,,,,,,,,,24,1.415,1,0,2,2,20,1,6,×,4,6 × 4,incongruent,largerFirst,1,2,24,,,,,,,,
,,,,,,,,,,,,,,,753,2022-01-20_13h21.08.062,multiplicationStroop,2021.2.3,Win32,59.98440405,,,,,,,,,,,,,,,,,,,,,,,,,,,,,,,,,49,2.3652,1,0,3,3,33,1,7,×,7,7 × 7,incongruent,tie,1,2,49,,,,,,,,
,,,,,,,,,,,,,,,753,2022-01-20_13h21.08.062,multiplicationStroop,2021.2.3,Win32,59.98440405,,,,,,,,,,,,,,,,,,,,,,,,,,,,,,,,,8,1.7006,1,0,4,4,24,1,4,×,2,4 × 2,incongruent,largerFirst,1,2,8,,,,,,,,
,,,,,,,,,,,,,,,753,2022-01-20_13h21.08.062,multiplicationStroop,2021.2.3,Win32,59.98440405,,,,,,,,,,,,,,,,,,,,,,,,,,,,,,,,,24,1.3971,1,0,5,5,9,1,3,×,8,3 × 8,incongruent,smallerFirst,2,1,24,,,,,,,,
,,,,,,,,,,,,,,,753,2022-01-20_13h21.08.062,multiplicationStroop,2021.2.3,Win32,59.98440405,,,,,,,,,,,,,,,,,,,,,,,,,,,,,,,,,4,2.0979,1,0,6,6,28,1,2,×,2,2 × 2,incongruent,tie,1,2,4,,,,,,,,
,,,,,,,,,,,,,,,753,2022-01-20_13h21.08.062,multiplicationStroop,2021.2.3,Win32,59.98440405,,,,,,,,,,,,,,,,,,,,,,,,,,,,,,,,,42,1.6988,1,0,7,7,17,1,7,×,6,7 × 6,incongruent,largerFirst,1,2,42,,,,,,,,
,,,,,,,,,,,,,,,753,2022-01-20_13h21.08.062,multiplicationStroop,2021.2.3,Win32,59.98440405,,,,,,,,,,,,,,,,,,,,,,,,,,,,,,,,,28,2.2985,1,0,8,8,16,1,7,×,4,7 × 4,incongruent,largerFirst,1,2,28,,,,,,,,
,,,,,,,,,,,,,,,753,2022-01-20_13h21.08.062,multiplicationStroop,2021.2.3,Win32,59.98440405,,,,,,,,,,,,,,,,,,,,,,,,,,,,,,,,,81,2.1485,1,0,9,9,35,1,9,×,9,9 × 9,incongruent,tie,1,2,81,,,,,,,,
,,,,,,,,,,,,,,,753,2022-01-20_13h21.08.062,multiplicationStroop,2021.2.3,Win32,59.98440405,,,,,,,,,,,,,,,,,,,,,,,,,,,,,,,,,14,1.449,1,0,10,10,4,1,2,×,7,2 × 7,incongruent,smallerFirst,2,1,14,,,,,,,,
,,,,,,,,,,,,,,,753,2022-01-20_13h21.08.062,multiplicationStroop,2021.2.3,Win32,59.98440405,,,,,,,,,,,,,,,,,,,,,,,,,,,,,,,,,16,1.6489,1,0,11,11,30,1,4,×,4,4 × 4,incongruent,tie,1,2,16,,,,,,,,
,,,,,,,,,,,,,,,753,2022-01-20_13h21.08.062,multiplicationStroop,2021.2.3,Win32,59.98440405,,,,,,,,,,,,,,,,,,,,,,,,,,,,,,,,,36,2.2322,1,0,12,12,15,1,9,×,4,9 × 4,incongruent,largerFirst,1,2,36,,,,,,,,
,,,,,,,,,,,,,,,753,2022-01-20_13h21.08.062,multiplicationStroop,2021.2.3,Win32,59.98440405,,,,,,,,,,,,,,,,,,,,,,,,,,,,,,,,,15,3.3804,1,0,13,13,10,1,3,×,5,3 × 5,incongruent,smallerFirst,2,1,15,,,,,,,,
,,,,,,,,,,,,,,,753,2022-01-20_13h21.08.062,multiplicationStroop,2021.2.3,Win32,59.98440405,,,,,,,,,,,,,,,,,,,,,,,,,,,,,,,,,21,1.4418,1,0,14,14,26,1,7,×,3,7 × 3,incongruent,largerFirst,1,2,21,,,,,,,,
,,,,,,,,,,,,,,,753,2022-01-20_13h21.08.062,multiplicationStroop,2021.2.3,Win32,59.98440405,,,,,,,,,,,,,,,,,,,,,,,,,,,,,,,,,40,1.7477,1,0,15,15,13,1,5,×,8,5 × 8,incongruent,smallerFirst,2,1,40,,,,,,,,
,,,,,,,,,,,,,,,753,2022-01-20_13h21.08.062,multiplicationStroop,2021.2.3,Win32,59.98440405,,,,,,,,,,,,,,,,,,,,,,,,,,,,,,,,,72,2.1151,1,0,16,16,0,1,8,×,9,8 × 9,incongruent,smallerFirst,2,1,72,,,,,,,,
,,,,,,,,,,,,,,,753,2022-01-20_13h21.08.062,multiplicationStroop,2021.2.3,Win32,59.98440405,,,,,,,,,,,,,,,,,,,,,,,,,,,,,,,,,18,2.0654,1,0,17,17,8,1,3,×,6,3 × 6,incongruent,smallerFirst,2,1,18,,,,,,,,
,,,,,,,,,,,,,,,753,2022-01-20_13h21.08.062,multiplicationStroop,2021.2.3,Win32,59.98440405,,,,,,,,,,,,,,,,,,,,,,,,,,,,,,,,,32,2.365,1,0,18,18,7,1,4,×,8,4 × 8,incongruent,smallerFirst,2,1,32,,,,,,,,
,,,,,,,,,,,,,,,753,2022-01-20_13h21.08.062,multiplicationStroop,2021.2.3,Win32,59.98440405,,,,,,,,,,,,,,,,,,,,,,,,,,,,,,,,,10,1.5671,1,0,19,19,21,1,5,×,2,5 × 2,incongruent,largerFirst,1,2,10,,,,,,,,
,,,,,,,,,,,,,,,753,2022-01-20_13h21.08.062,multiplicationStroop,2021.2.3,Win32,59.98440405,,,,,,,,,,,,,,,,,,,,,,,,,,,,,,,,,35,1.8971,1,0,20,20,12,1,5,×,7,5 × 7,incongruent,smallerFirst,2,1,35,,,,,,,,
,,,,,,,,,,,,,,,753,2022-01-20_13h21.08.062,multiplicationStroop,2021.2.3,Win32,59.98440405,,,,,,,,,,,,,,,,,,,,,,,,,,,,,,,,,16,2.415,1,0,21,21,23,1,8,×,2,8 × 2,incongruent,largerFirst,1,2,16,,,,,,,,
,,,,,,,,,,,,,,,753,2022-01-20_13h21.08.062,multiplicationStroop,2021.2.3,Win32,59.98440405,,,,,,,,,,,,,,,,,,,,,,,,,,,,,,,,,20,1.6819,1,0,22,22,27,1,5,×,4,5 × 4,incongruent,largerFirst,1,2,20,,,,,,,,
,,,,,,,,,,,,,,,753,2022-01-20_13h21.08.062,multiplicationStroop,2021.2.3,Win32,59.98440405,,,,,,,,,,,,,,,,,,,,,,,,,,,,,,,,,18,1.7987,1,0,23,23,2,1,2,×,9,2 × 9,incongruent,smallerFirst,2,1,18,,,,,,,,
,,,,,,,,,,,,,,,753,2022-01-20_13h21.08.062,multiplicationStroop,2021.2.3,Win32,59.98440405,,,,,,,,,,,,,,,,,,,,,,,,,,,,,,,,,30,1.6661,1,0,24,24,25,1,6,×,5,6 × 5,incongruent,largerFirst,1,2,30,,,,,,,,
,,,,,,,,,,,,,,,753,2022-01-20_13h21.08.062,multiplicationStroop,2021.2.3,Win32,59.98440405,,,,,,,,,,,,,,,,,,,,,,,,,,,,,,,,,9,1.4485,1,0,25,25,29,1,3,×,3,3 × 3,incongruent,tie,1,2,9,,,,,,,,
,,,,,,,,,,,,,,,753,2022-01-20_13h21.08.062,multiplicationStroop,2021.2.3,Win32,59.98440405,,,,,,,,,,,,,,,,,,,,,,,,,,,,,,,,,27,1.5657,1,0,26,26,18,1,9,×,3,9 × 3,incongruent,largerFirst,1,2,27,,,,,,,,
,,,,,,,,,,,,,,,753,2022-01-20_13h21.08.062,multiplicationStroop,2021.2.3,Win32,59.98440405,,,,,,,,,,,,,,,,,,,,,,,,,,,,,,,,,64,1.7152,1,0,27,27,34,1,8,×,8,8 × 8,incongruent,tie,1,2,64,,,,,,,,
,,,,,,,,,,,,,,,753,2022-01-20_13h21.08.062,multiplicationStroop,2021.2.3,Win32,59.98440405,,,,,,,,,,,,,,,,,,,,,,,,,,,,,,,,,6,1.8989,1,0,28,28,11,1,2,×,3,2 × 3,incongruent,smallerFirst,2,1,6,,,,,,,,
,,,,,,,,,,,,,,,753,2022-01-20_13h21.08.062,multiplicationStroop,2021.2.3,Win32,59.98440405,,,,,,,,,,,,,,,,,,,,,,,,,,,,,,,,,12,1.4322,1,0,29,29,19,1,6,×,2,6 × 2,incongruent,largerFirst,1,2,12,,,,,,,,
,,,,,,,,,,,,,,,753,2022-01-20_13h21.08.062,multiplicationStroop,2021.2.3,Win32,59.98440405,,,,,,,,,,,,,,,,,,,,,,,,,,,,,,,,,45,1.6492,1,0,30,30,22,1,9,×,5,9 × 5,incongruent,largerFirst,1,2,45,,,,,,,,
,,,,,,,,,,,,,,,753,2022-01-20_13h21.08.062,multiplicationStroop,2021.2.3,Win32,59.98440405,,,,,,,,,,,,,,,,,,,,,,,,,,,,,,,,,25,1.7145,1,0,31,31,31,1,5,×,5,5 × 5,incongruent,tie,1,2,25,,,,,,,,
,,,,,,,,,,,,,,,753,2022-01-20_13h21.08.062,multiplicationStroop,2021.2.3,Win32,59.98440405,,,,,,,,,,,,,,,,,,,,,,,,,,,,,,,,,54,2.6818,1,0,32,32,6,1,6,×,9,6 × 9,incongruent,smallerFirst,2,1,54,,,,,,,,
,,,,,,,,,,,,,,,753,2022-01-20_13h21.08.062,multiplicationStroop,2021.2.3,Win32,59.98440405,,,,,,,,,,,,,,,,,,,,,,,,,,,,,,,,,56,2.1744,1,0,33,33,14,1,8,×,7,8 × 7,incongruent,largerFirst,1,2,56,,,,,,,,
,,,,,,,,,,,,,,,753,2022-01-20_13h21.08.062,multiplicationStroop,2021.2.3,Win32,59.98440405,,,,,,,,,,,,,,,,,,,,,,,,,,,,,,,,,63,6.8965,1,0,34,34,3,1,7,×,9,7 × 9,incongruent,smallerFirst,2,1,63,,,,,,,,
,,,,,,,,,,,,,,,753,2022-01-20_13h21.08.062,multiplicationStroop,2021.2.3,Win32,59.98440405,,,,,,,,,,,,,,,,,,,,,,,,,,,,,,,,,36,1.5743,1,0,35,35,32,1,6,×,6,6 × 6,incongruent,tie,1,2,36,,,,,,,,
,,,,,,,,,,,,,,,753,2022-01-20_13h21.08.062,multiplicationStroop,2021.2.3,Win32,59.98440405,,,,,,,,,,,,,,,,,,,,,,,,,,,,,,,,,,,,,,,,,,,,,,,,,,0,1,1,5,1,stimulusFile/mult_blk6_INcongruent.xlsx,,
,,,,,,,,,,,,,,,753,2022-01-20_13h21.08.062,multiplicationStroop,2021.2.3,Win32,59.98440405,,,,,,,,,,,,,,,,,,,,,,,,,,,,,,,space,4.4127,49,1.9163,1,0,0,0,33,1,7,×,7,7 × 7,neutral,tie,2,1,49,,,,,,,,
,,,,,,,,,,,,,,,753,2022-01-20_13h21.08.062,multiplicationStroop,2021.2.3,Win32,59.98440405,,,,,,,,,,,,,,,,,,,,,,,,,,,,,,,,,32,3.7145,1,0,1,1,20,1,8,×,4,8 × 4,congruent,largerFirst,2,1,32,,,,,,,,
,,,,,,,,,,,,,,,753,2022-01-20_13h21.08.062,multiplicationStroop,2021.2.3,Win32,59.98440405,,,,,,,,,,,,,,,,,,,,,,,,,,,,,,,,,8,2.3916,1,0,2,2,9,1,2,×,4,2 × 4,congruent,smallerFirst,1,2,8,,,,,,,,
,,,,,,,,,,,,,,,753,2022-01-20_13h21.08.062,multiplicationStroop,2021.2.3,Win32,59.98440405,,,,,,,,,,,,,,,,,,,,,,,,,,,,,,,,,20,1.7151,1,0,3,3,7,1,4,×,5,4 × 5,congruent,smallerFirst,1,2,20,,,,,,,,
,,,,,,,,,,,,,,,753,2022-01-20_13h21.08.062,multiplicationStroop,2021.2.3,Win32,59.98440405,,,,,,,,,,,,,,,,,,,,,,,,,,,,,,,,,35,2.3651,1,0,4,4,1,1,5,×,7,5 × 7,congruent,smallerFirst,1,2,35,,,,,,,,
,,,,,,,,,,,,,,,753,2022-01-20_13h21.08.062,multiplicationStroop,2021.2.3,Win32,59.98440405,,,,,,,,,,,,,,,,,,,,,,,,,,,,,,,,,24,1.4327,1,0,5,5,25,1,6,×,4,6 × 4,congruent,largerFirst,2,1,24,,,,,,,,
,,,,,,,,,,,,,,,753,2022-01-20_13h21.08.062,multiplicationStroop,2021.2.3,Win32,59.98440405,,,,,,,,,,,,,,,,,,,,,,,,,,,,,,,,,18,1.8985,1,0,6,6,11,1,3,×,6,3 × 6,congruent,smallerFirst,1,2,18,,,,,,,,
,,,,,,,,,,,,,,,753,2022-01-20_13h21.08.062,multiplicationStroop,2021.2.3,Win32,59.98440405,,,,,,,,,,,,,,,,,,,,,,,,,,,,,,,,,12,1.366,1,0,7,7,2,1,3,×,4,3 × 4,congruent,smallerFirst,1,2,12,,,,,,,,
,,,,,,,,,,,,,,,753,2022-01-20_13h21.08.062,multiplicationStroop,2021.2.3,Win32,59.98440405,,,,,,,,,,,,,,,,,,,,,,,,,,,,,,,,,30,2.1482,1,0,8,8,15,1,6,×,5,6 × 5,congruent,largerFirst,2,1,30,,,,,,,,
,,,,,,,,,,,,,,,753,2022-01-20_13h21.08.062,multiplicationStroop,2021.2.3,Win32,59.98440405,,,,,,,,,,,,,,,,,,,,,,,,,,,,,,,,,25,2.7815,1,0,9,9,31,1,5,×,5,5 × 5,neutral,tie,2,1,25,,,,,,,,
,,,,,,,,,,,,,,,753,2022-01-20_13h21.08.062,multiplicationStroop,2021.2.3,Win32,59.98440405,,,,,,,,,,,,,,,,,,,,,,,,,,,,,,,,,24,2.0487,1,0,10,10,10,1,3,×,8,3 × 8,congruent,smallerFirst,1,2,24,,,,,,,,
,,,,,,,,,,,,,,,753,2022-01-20_13h21.08.062,multiplicationStroop,2021.2.3,Win32,59.98440405,,,,,,,,,,,,,,,,,,,,,,,,,,,,,,,,,16,2.2987,1,0,11,11,5,1,2,×,8,2 × 8,congruent,smallerFirst,1,2,16,,,,,,,,
,,,,,,,,,,,,,,,753,2022-01-20_13h21.08.062,multiplicationStroop,2021.2.3,Win32,59.98440405,,,,,,,,,,,,,,,,,,,,,,,,,,,,,,,,,48,1.965,1,0,12,12,18,1,8,×,6,8 × 6,congruent,largerFirst,2,1,48,,,,,,,,
,,,,,,,,,,,,,,,753,2022-01-20_13h21.08.062,multiplicationStroop,2021.2.3,Win32,59.98440405,,,,,,,,,,,,,,,,,,,,,,,,,,,,,,,,,9,1.4157,1,0,13,13,29,1,3,×,3,3 × 3,neutral,tie,2,1,9,,,,,,,,
,,,,,,,,,,,,,,,753,2022-01-20_13h21.08.062,multiplicationStroop,2021.2.3,Win32,59.98440405,,,,,,,,,,,,,,,,,,,,,,,,,,,,,,,,,14,1.3328,1,0,14,14,14,1,7,×,2,7 × 2,congruent,largerFirst,2,1,14,,,,,,,,
,,,,,,,,,,,,,,,753,2022-01-20_13h21.08.062,multiplicationStroop,2021.2.3,Win32,59.98440405,,,,,,,,,,,,,,,,,,,,,,,,,,,,,,,,,81,2.4645,1,0,15,15,35,1,9,×,9,9 × 9,neutral,tie,2,1,81,,,,,,,,
,,,,,,,,,,,,,,,753,2022-01-20_13h21.08.062,multiplicationStroop,2021.2.3,Win32,59.98440405,,,,,,,,,,,,,,,,,,,,,,,,,,,,,,,,,6,2.3316,1,0,16,16,13,1,2,×,3,2 × 3,congruent,smallerFirst,1,2,6,,,,,,,,
,,,,,,,,,,,,,,,753,2022-01-20_13h21.08.062,multiplicationStroop,2021.2.3,Win32,59.98440405,,,,,,,,,,,,,,,,,,,,,,,,,,,,,,,,,15,1.4329,1,0,17,17,4,1,3,×,5,3 × 5,congruent,smallerFirst,1,2,15,,,,,,,,
,,,,,,,,,,,,,,,753,2022-01-20_13h21.08.062,multiplicationStroop,2021.2.3,Win32,59.98440405,,,,,,,,,,,,,,,,,,,,,,,,,,,,,,,,,45,1.6817,1,0,18,18,23,1,9,×,5,9 × 5,congruent,largerFirst,2,1,45,,,,,,,,
,,,,,,,,,,,,,,,753,2022-01-20_13h21.08.062,multiplicationStroop,2021.2.3,Win32,59.98440405,,,,,,,,,,,,,,,,,,,,,,,,,,,,,,,,,4,1.3484,1,0,19,19,28,1,2,×,2,2 × 2,neutral,tie,2,1,4,,,,,,,,
,,,,,,,,,,,,,,,753,2022-01-20_13h21.08.062,multiplicationStroop,2021.2.3,Win32,59.98440405,,,,,,,,,,,,,,,,,,,,,,,,,,,,,,,,,12,1.3823,1,0,20,20,19,1,6,×,2,6 × 2,congruent,largerFirst,2,1,12,,,,,,,,
,,,,,,,,,,,,,,,753,2022-01-20_13h21.08.062,multiplicationStroop,2021.2.3,Win32,59.98440405,,,,,,,,,,,,,,,,,,,,,,,,,,,,,,,,,36,1.7833,1,0,21,21,32,1,6,×,6,6 × 6,neutral,tie,2,1,36,,,,,,,,
,,,,,,,,,,,,,,,753,2022-01-20_13h21.08.062,multiplicationStroop,2021.2.3,Win32,59.98440405,,,,,,,,,,,,,,,,,,,,,,,,,,,,,,,,,54,2.215,1,0,22,22,12,1,6,×,9,6 × 9,congruent,smallerFirst,1,2,54,,,,,,,,
,,,,,,,,,,,,,,,753,2022-01-20_13h21.08.062,multiplicationStroop,2021.2.3,Win32,59.98440405,,,,,,,,,,,,,,,,,,,,,,,,,,,,,,,,,72,3.7307,1,0,23,23,17,1,9,×,8,9 × 8,congruent,largerFirst,2,1,72,,,,,,,,
,,,,,,,,,,,,,,,753,2022-01-20_13h21.08.062,multiplicationStroop,2021.2.3,Win32,59.98440405,,,,,,,,,,,,,,,,,,,,,,,,,,,,,,,,,21,1.9237,1,0,24,24,16,1,7,×,3,7 × 3,congruent,largerFirst,2,1,21,,,,,,,,
,,,,,,,,,,,,,,,753,2022-01-20_13h21.08.062,multiplicationStroop,2021.2.3,Win32,59.98440405,,,,,,,,,,,,,,,,,,,,,,,,,,,,,,,,,63,3.498,1,0,25,25,21,1,9,×,7,9 × 7,congruent,largerFirst,2,1,63,,,,,,,,
,,,,,,,,,,,,,,,753,2022-01-20_13h21.08.062,multiplicationStroop,2021.2.3,Win32,59.98440405,,,,,,,,,,,,,,,,,,,,,,,,,,,,,,,,,36,2.0654,1,0,26,26,0,1,4,×,9,4 × 9,congruent,smallerFirst,1,2,36,,,,,,,,
,,,,,,,,,,,,,,,753,2022-01-20_13h21.08.062,multiplicationStroop,2021.2.3,Win32,59.98440405,,,,,,,,,,,,,,,,,,,,,,,,,,,,,,,,,10,2.4818,1,0,27,27,24,1,5,×,2,5 × 2,congruent,largerFirst,2,1,10,,,,,,,,
,,,,,,,,,,,,,,,753,2022-01-20_13h21.08.062,multiplicationStroop,2021.2.3,Win32,59.98440405,,,,,,,,,,,,,,,,,,,,,,,,,,,,,,,,,27,3.7073,1,0,28,28,26,1,9,×,3,9 × 3,congruent,largerFirst,2,1,27,,,,,,,,
,,,,,,,,,,,,,,,753,2022-01-20_13h21.08.062,multiplicationStroop,2021.2.3,Win32,59.98440405,,,,,,,,,,,,,,,,,,,,,,,,,,,,,,,,,16,1.657,1,0,29,29,30,1,4,×,4,4 × 4,neutral,tie,2,1,16,,,,,,,,
,,,,,,,,,,,,,,,753,2022-01-20_13h21.08.062,multiplicationStroop,2021.2.3,Win32,59.98440405,,,,,,,,,,,,,,,,,,,,,,,,,,,,,,,,,56,6.4635,1,0,30,30,8,1,7,×,8,7 × 8,congruent,smallerFirst,1,2,56,,,,,,,,
,,,,,,,,,,,,,,,753,2022-01-20_13h21.08.062,multiplicationStroop,2021.2.3,Win32,59.98440405,,,,,,,,,,,,,,,,,,,,,,,,,,,,,,,,,42,2.5894,1,0,31,31,3,1,6,×,7,6 × 7,congruent,smallerFirst,1,2,42,,,,,,,,
,,,,,,,,,,,,,,,753,2022-01-20_13h21.08.062,multiplicationStroop,2021.2.3,Win32,59.98440405,,,,,,,,,,,,,,,,,,,,,,,,,,,,,,,,,40,2.182,1,0,32,32,6,1,5,×,8,5 × 8,congruent,smallerFirst,1,2,40,,,,,,,,
,,,,,,,,,,,,,,,753,2022-01-20_13h21.08.062,multiplicationStroop,2021.2.3,Win32,59.98440405,,,,,,,,,,,,,,,,,,,,,,,,,,,,,,,,,28,2.1652,1,0,33,33,27,1,7,×,4,7 × 4,congruent,largerFirst,2,1,28,,,,,,,,
,,,,,,,,,,,,,,,753,2022-01-20_13h21.08.062,multiplicationStroop,2021.2.3,Win32,59.98440405,,,,,,,,,,,,,,,,,,,,,,,,,,,,,,,,,18,2.482,1,0,34,34,22,1,9,×,2,9 × 2,congruent,largerFirst,2,1,18,,,,,,,,
,,,,,,,,,,,,,,,753,2022-01-20_13h21.08.062,multiplicationStroop,2021.2.3,Win32,59.98440405,,,,,,,,,,,,,,,,,,,,,,,,,,,,,,,,,64,3.398,1,0,35,35,34,1,8,×,8,8 × 8,neutral,tie,2,1,64,,,,,,,,
,,,,,,,,,,,,,,,753,2022-01-20_13h21.08.062,multiplicationStroop,2021.2.3,Win32,59.98440405,,,,,,,,,,,,,,,,,,,,,,,,,,,,,,,,,,,,,,,,,,,,,,,,,,0,2,2,2,1,stimulusFile/mult_blk3_congruent.xlsx,,
,,,,,,,,,,,,,,,753,2022-01-20_13h21.08.062,multiplicationStroop,2021.2.3,Win32,59.98440405,,,,,,,,,,,,,,,,,,,,,,,,,,,,,,,space,4.7251,56,2.3473,1,0,0,0,9,1,7,×,8,7 × 8,neutral,smallerFirst,1.5,1.5,56,,,,,,,,
,,,,,,,,,,,,,,,753,2022-01-20_13h21.08.062,multiplicationStroop,2021.2.3,Win32,59.98440405,,,,,,,,,,,,,,,,,,,,,,,,,,,,,,,,,15,1.8245,1,0,1,1,5,1,3,×,5,3 × 5,neutral,smallerFirst,1.5,1.5,15,,,,,,,,
,,,,,,,,,,,,,,,753,2022-01-20_13h21.08.062,multiplicationStroop,2021.2.3,Win32,59.98440405,,,,,,,,,,,,,,,,,,,,,,,,,,,,,,,,,28,2.965,1,0,2,2,17,1,7,×,4,7 × 4,neutral,largerFirst,1.5,1.5,28,,,,,,,,
,,,,,,,,,,,,,,,753,2022-01-20_13h21.08.062,multiplicationStroop,2021.2.3,Win32,59.98440405,,,,,,,,,,,,,,,,,,,,,,,,,,,,,,,,,40,1.7487,1,0,3,3,24,1,8,×,5,8 × 5,neutral,largerFirst,1.5,1.5,40,,,,,,,,
,,,,,,,,,,,,,,,753,2022-01-20_13h21.08.062,multiplicationStroop,2021.2.3,Win32,59.98440405,,,,,,,,,,,,,,,,,,,,,,,,,,,,,,,,,81,2.1485,1,0,4,4,35,1,9,×,9,9 × 9,neutral,tie,1.5,1.5,81,,,,,,,,
,,,,,,,,,,,,,,,753,2022-01-20_13h21.08.062,multiplicationStroop,2021.2.3,Win32,59.98440405,,,,,,,,,,,,,,,,,,,,,,,,,,,,,,,,,49,1.7655,1,0,5,5,33,1,7,×,7,7 × 7,neutral,tie,1.5,1.5,49,,,,,,,,
,,,,,,,,,,,,,,,753,2022-01-20_13h21.08.062,multiplicationStroop,2021.2.3,Win32,59.98440405,,,,,,,,,,,,,,,,,,,,,,,,,,,,,,,,,20,1.6989,1,0,6,6,20,1,5,×,4,5 × 4,neutral,largerFirst,1.5,1.5,20,,,,,,,,
,,,,,,,,,,,,,,,753,2022-01-20_13h21.08.062,multiplicationStroop,2021.2.3,Win32,59.98440405,,,,,,,,,,,,,,,,,,,,,,,,,,,,,,,,,36,1.5655,1,0,7,7,32,1,6,×,6,6 × 6,neutral,tie,1.5,1.5,36,,,,,,,,
,,,,,,,,,,,,,,,753,2022-01-20_13h21.08.062,multiplicationStroop,2021.2.3,Win32,59.98440405,,,,,,,,,,,,,,,,,,,,,,,,,,,,,,,,,64,1.9159,1,0,8,8,34,1,8,×,8,8 × 8,neutral,tie,1.5,1.5,64,,,,,,,,
,,,,,,,,,,,,,,,753,2022-01-20_13h21.08.062,multiplicationStroop,2021.2.3,Win32,59.98440405,,,,,,,,,,,,,,,,,,,,,,,,,,,,,,,,,30,1.8481,1,0,9,9,19,1,6,×,5,6 × 5,neutral,largerFirst,1.5,1.5,30,,,,,,,,
,,,,,,,,,,,,,,,753,2022-01-20_13h21.08.062,multiplicationStroop,2021.2.3,Win32,59.98440405,,,,,,,,,,,,,,,,,,,,,,,,,,,,,,,,,8,2.1487,1,0,10,10,3,1,2,×,4,2 × 4,neutral,smallerFirst,1.5,1.5,8,,,,,,,,
,,,,,,,,,,,,,,,753,2022-01-20_13h21.08.062,multiplicationStroop,2021.2.3,Win32,59.98440405,,,,,,,,,,,,,,,,,,,,,,,,,,,,,,,,,16,1.6658,1,0,11,11,30,1,4,×,4,4 × 4,neutral,tie,1.5,1.5,16,,,,,,,,
,,,,,,,,,,,,,,,753,2022-01-20_13h21.08.062,multiplicationStroop,2021.2.3,Win32,59.98440405,,,,,,,,,,,,,,,,,,,,,,,,,,,,,,,,,14,2.465,1,0,12,12,16,1,7,×,2,7 × 2,neutral,largerFirst,1.5,1.5,14,,,,,,,,
,,,,,,,,,,,,,,,753,2022-01-20_13h21.08.062,multiplicationStroop,2021.2.3,Win32,59.98440405,,,,,,,,,,,,,,,,,,,,,,,,,,,,,,,,,12,1.3988,1,0,13,13,21,1,4,×,3,4 × 3,neutral,largerFirst,1.5,1.5,12,,,,,,,,
,,,,,,,,,,,,,,,753,2022-01-20_13h21.08.062,multiplicationStroop,2021.2.3,Win32,59.98440405,,,,,,,,,,,,,,,,,,,,,,,,,,,,,,,,,18,1.9321,1,0,14,14,0,1,3,×,6,3 × 6,neutral,smallerFirst,1.5,1.5,18,,,,,,,,
,,,,,,,,,,,,,,,753,2022-01-20_13h21.08.062,multiplicationStroop,2021.2.3,Win32,59.98440405,,,,,,,,,,,,,,,,,,,,,,,,,,,,,,,,,4,1.2992,1,0,15,15,28,1,2,×,2,2 × 2,neutral,tie,1.5,1.5,4,,,,,,,,
,,,,,,,,,,,,,,,753,2022-01-20_13h21.08.062,multiplicationStroop,2021.2.3,Win32,59.98440405,,,,,,,,,,,,,,,,,,,,,,,,,,,,,,,,,21,1.382,1,0,16,16,8,1,3,×,7,3 × 7,neutral,smallerFirst,1.5,1.5,21,,,,,,,,
,,,,,,,,,,,,,,,753,2022-01-20_13h21.08.062,multiplicationStroop,2021.2.3,Win32,59.98440405,,,,,,,,,,,,,,,,,,,,,,,,,,,,,,,,,36,1.8823,1,0,17,17,27,1,9,×,4,9 × 4,neutral,largerFirst,1.5,1.5,36,,,,,,,,
,,,,,,,,,,,,,,,753,2022-01-20_13h21.08.062,multiplicationStroop,2021.2.3,Win32,59.98440405,,,,,,,,,,,,,,,,,,,,,,,,,,,,,,,,,72,2.016,1,0,18,18,11,1,8,×,9,8 × 9,neutral,smallerFirst,1.5,1.5,72,,,,,,,,
,,,,,,,,,,,,,,,753,2022-01-20_13h21.08.062,multiplicationStroop,2021.2.3,Win32,59.98440405,,,,,,,,,,,,,,,,,,,,,,,,,,,,,,,,,24,2.9481,1,0,19,19,2,1,4,×,6,4 × 6,neutral,smallerFirst,1.5,1.5,24,,,,,,,,
,,,,,,,,,,,,,,,753,2022-01-20_13h21.08.062,multiplicationStroop,2021.2.3,Win32,59.98440405,,,,,,,,,,,,,,,,,,,,,,,,,,,,,,,,,54,2.174,1,0,20,20,7,1,6,×,9,6 × 9,neutral,smallerFirst,1.5,1.5,54,,,,,,,,
,,,,,,,,,,,,,,,753,2022-01-20_13h21.08.062,multiplicationStroop,2021.2.3,Win32,59.98440405,,,,,,,,,,,,,,,,,,,,,,,,,,,,,,,,,63,2.3321,1,0,21,21,12,1,7,×,9,7 × 9,neutral,smallerFirst,1.5,1.5,63,,,,,,,,
,,,,,,,,,,,,,,,753,2022-01-20_13h21.08.062,multiplicationStroop,2021.2.3,Win32,59.98440405,,,,,,,,,,,,,,,,,,,,,,,,,,,,,,,,,25,1.5491,1,0,22,22,31,1,5,×,5,5 × 5,neutral,tie,1.5,1.5,25,,,,,,,,
,,,,,,,,,,,,,,,753,2022-01-20_13h21.08.062,multiplicationStroop,2021.2.3,Win32,59.98440405,,,,,,,,,,,,,,,,,,,,,,,,,,,,,,,,,45,1.6482,1,0,23,23,10,1,5,×,9,5 × 9,neutral,smallerFirst,1.5,1.5,45,,,,,,,,
,,,,,,,,,,,,,,,753,2022-01-20_13h21.08.062,multiplicationStroop,2021.2.3,Win32,59.98440405,,,,,,,,,,,,,,,,,,,,,,,,,,,,,,,,,42,1.6822,1,0,24,24,6,1,6,×,7,6 × 7,neutral,smallerFirst,1.5,1.5,42,,,,,,,,
,,,,,,,,,,,,,,,753,2022-01-20_13h21.08.062,multiplicationStroop,2021.2.3,Win32,59.98440405,,,,,,,,,,,,,,,,,,,,,,,,,,,,,,,,,12,1.7989,1,0,25,25,25,1,6,×,2,6 × 2,neutral,largerFirst,1.5,1.5,12,,,,,,,,
,,,,,,,,,,,,,,,753,2022-01-20_13h21.08.062,multiplicationStroop,2021.2.3,Win32,59.98440405,,,,,,,,,,,,,,,,,,,,,,,,,,,,,,,,,10,2.4821,1,0,26,26,4,1,2,×,5,2 × 5,neutral,smallerFirst,1.5,1.5,10,,,,,,,,
,,,,,,,,,,,,,,,753,2022-01-20_13h21.08.062,multiplicationStroop,2021.2.3,Win32,59.98440405,,,,,,,,,,,,,,,,,,,,,,,,,,,,,,,,,48,1.724,1,0,27,27,15,1,8,×,6,8 × 6,neutral,largerFirst,1.5,1.5,48,,,,,,,,
,,,,,,,,,,,,,,,753,2022-01-20_13h21.08.062,multiplicationStroop,2021.2.3,Win32,59.98440405,,,,,,,,,,,,,,,,,,,,,,,,,,,,,,,,,27,1.6984,1,0,28,28,14,1,9,×,3,9 × 3,neutral,largerFirst,1.5,1.5,27,,,,,,,,
,,,,,,,,,,,,,,,753,2022-01-20_13h21.08.062,multiplicationStroop,2021.2.3,Win32,59.98440405,,,,,,,,,,,,,,,,,,,,,,,,,,,,,,,,,35,1.9487,1,0,29,29,1,1,5,×,7,5 × 7,neutral,smallerFirst,1.5,1.5,35,,,,,,,,
,,,,,,,,,,,,,,,753,2022-01-20_13h21.08.062,multiplicationStroop,2021.2.3,Win32,59.98440405,,,,,,,,,,,,,,,,,,,,,,,,,,,,,,,,,9,1.4155,1,0,30,30,29,1,3,×,3,3 × 3,neutral,tie,1.5,1.5,9,,,,,,,,
,,,,,,,,,,,,,,,753,2022-01-20_13h21.08.062,multiplicationStroop,2021.2.3,Win32,59.98440405,,,,,,,,,,,,,,,,,,,,,,,,,,,,,,,,,18,1.599,1,0,31,31,18,1,9,×,2,9 × 2,neutral,largerFirst,1.5,1.5,18,,,,,,,,
,,,,,,,,,,,,,,,753,2022-01-20_13h21.08.062,multiplicationStroop,2021.2.3,Win32,59.98440405,,,,,,,,,,,,,,,,,,,,,,,,,,,,,,,,,6,1.3825,1,0,32,32,26,1,3,×,2,3 × 2,neutral,largerFirst,1.5,1.5,6,,,,,,,,
,,,,,,,,,,,,,,,753,2022-01-20_13h21.08.062,multiplicationStroop,2021.2.3,Win32,59.98440405,,,,,,,,,,,,,,,,,,,,,,,,,,,,,,,,,16,2.3322,1,0,33,33,13,1,2,×,8,2 × 8,neutral,smallerFirst,1.5,1.5,16,,,,,,,,
,,,,,,,,,,,,,,,753,2022-01-20_13h21.08.062,multiplicationStroop,2021.2.3,Win32,59.98440405,,,,,,,,,,,,,,,,,,,,,,,,,,,,,,,,,24,1.5816,1,0,34,34,22,1,8,×,3,8 × 3,neutral,largerFirst,1.5,1.5,24,,,,,,,,
,,,,,,,,,,,,,,,753,2022-01-20_13h21.08.062,multiplicationStroop,2021.2.3,Win32,59.98440405,,,,,,,,,,,,,,,,,,,,,,,,,,,,,,,,,32,3.099,1,0,35,35,23,1,8,×,4,8 × 4,neutral,largerFirst,1.5,1.5,32,,,,,,,,
,,,,,,,,,,,,,,,753,2022-01-20_13h21.08.062,multiplicationStroop,2021.2.3,Win32,59.98440405,,,,,,,,,,,,,,,,,,,,,,,,,,,,,,,,,,,,,,,,,,,,,,,,,,0,3,3,1,1,stimulusFile/mult_blk2.xlsx,,
,,,,,,,,,,,,,,,753,2022-01-20_13h21.08.062,multiplicationStroop,2021.2.3,Win32,59.98440405,,,,,,,,,,,,,,,,,,,,,,,,,,,,,,,space,94.557,21,2.9007,1,0,0,0,22,1,7,×,3,7 × 3,neutral,largerFirst,1.5,1.5,21,,,,,,,,
,,,,,,,,,,,,,,,753,2022-01-20_13h21.08.062,multiplicationStroop,2021.2.3,Win32,59.98440405,,,,,,,,,,,,,,,,,,,,,,,,,,,,,,,,,18,3.231,1,0,1,1,14,1,6,×,3,6 × 3,neutral,largerFirst,1.5,1.5,18,,,,,,,,
,,,,,,,,,,,,,,,753,2022-01-20_13h21.08.062,multiplicationStroop,2021.2.3,Win32,59.98440405,,,,,,,,,,,,,,,,,,,,,,,,,,,,,,,,,10,1.4986,1,0,2,2,18,1,5,×,2,5 × 2,neutral,largerFirst,1.5,1.5,10,,,,,,,,
,,,,,,,,,,,,,,,753,2022-01-20_13h21.08.062,multiplicationStroop,2021.2.3,Win32,59.98440405,,,,,,,,,,,,,,,,,,,,,,,,,,,,,,,,,24,1.5158,1,0,3,3,8,1,3,×,8,3 × 8,neutral,smallerFirst,1.5,1.5,24,,,,,,,,
,,,,,,,,,,,,,,,753,2022-01-20_13h21.08.062,multiplicationStroop,2021.2.3,Win32,59.98440405,,,,,,,,,,,,,,,,,,,,,,,,,,,,,,,,,32,1.6655,1,0,4,4,9,1,4,×,8,4 × 8,neutral,smallerFirst,1.5,1.5,32,,,,,,,,
,,,,,,,,,,,,,,,753,2022-01-20_13h21.08.062,multiplicationStroop,2021.2.3,Win32,59.98440405,,,,,,,,,,,,,,,,,,,,,,,,,,,,,,,,,16,1.8151,1,0,5,5,30,1,4,×,4,4 × 4,neutral,tie,1.5,1.5,16,,,,,,,,
,,,,,,,,,,,,,,,753,2022-01-20_13h21.08.062,multiplicationStroop,2021.2.3,Win32,59.98440405,,,,,,,,,,,,,,,,,,,,,,,,,,,,,,,,,49,5.4347,1,0,6,6,33,1,7,×,7,7 × 7,neutral,tie,1.5,1.5,49,,,,,,,,
,,,,,,,,,,,,,,,753,2022-01-20_13h21.08.062,multiplicationStroop,2021.2.3,Win32,59.98440405,,,,,,,,,,,,,,,,,,,,,,,,,,,,,,,,,63,1.8862,0,0,7,7,34,1,8,×,8,8 × 8,neutral,tie,1.5,1.5,64,,,,,,,,
,,,,,,,,,,,,,,,753,2022-01-20_13h21.08.062,multiplicationStroop,2021.2.3,Win32,59.98440405,,,,,,,,,,,,,,,,,,,,,,,,,,,,,,,,,24,2.6651,1,0,8,8,16,1,6,×,4,6 × 4,neutral,largerFirst,1.5,1.5,24,,,,,,,,
,,,,,,,,,,,,,,,753,2022-01-20_13h21.08.062,multiplicationStroop,2021.2.3,Win32,59.98440405,,,,,,,,,,,,,,,,,,,,,,,,,,,,,,,,,12,3.9857,1,0,9,9,7,1,3,×,4,3 × 4,neutral,smallerFirst,1.5,1.5,12,,,,,,,,
,,,,,,,,,,,,,,,753,2022-01-20_13h21.08.062,multiplicationStroop,2021.2.3,Win32,59.98440405,,,,,,,,,,,,,,,,,,,,,,,,,,,,,,,,,27,2.8863,1,0,10,10,0,1,3,×,9,3 × 9,neutral,smallerFirst,1.5,1.5,27,,,,,,,,
,,,,,,,,,,,,,,,753,2022-01-20_13h21.08.062,multiplicationStroop,2021.2.3,Win32,59.98440405,,,,,,,,,,,,,,,,,,,,,,,,,,,,,,,,,72,1.9654,1,0,11,11,25,1,9,×,8,9 × 8,neutral,largerFirst,1.5,1.5,72,,,,,,,,
,,,,,,,,,,,,,,,753,2022-01-20_13h21.08.062,multiplicationStroop,2021.2.3,Win32,59.98440405,,,,,,,,,,,,,,,,,,,,,,,,,,,,,,,,,63,1.8985,1,0,12,12,26,1,9,×,7,9 × 7,neutral,largerFirst,1.5,1.5,63,,,,,,,,
,,,,,,,,,,,,,,,753,2022-01-20_13h21.08.062,multiplicationStroop,2021.2.3,Win32,59.98440405,,,,,,,,,,,,,,,,,,,,,,,,,,,,,,,,,16,2.0682,1,0,13,13,27,1,8,×,2,8 × 2,neutral,largerFirst,1.5,1.5,16,,,,,,,,
,,,,,,,,,,,,,,,753,2022-01-20_13h21.08.062,multiplicationStroop,2021.2.3,Win32,59.98440405,,,,,,,,,,,,,,,,,,,,,,,,,,,,,,,,,25,1.6329,1,0,14,14,31,1,5,×,5,5 × 5,neutral,tie,1.5,1.5,25,,,,,,,,
,,,,,,,,,,,,,,,753,2022-01-20_13h21.08.062,multiplicationStroop,2021.2.3,Win32,59.98440405,,,,,,,,,,,,,,,,,,,,,,,,,,,,,,,,,4,1.3107,1,0,15,15,28,1,2,×,2,2 × 2,neutral,tie,1.5,1.5,4,,,,,,,,
,,,,,,,,,,,,,,,753,2022-01-20_13h21.08.062,multiplicationStroop,2021.2.3,Win32,59.98440405,,,,,,,,,,,,,,,,,,,,,,,,,,,,,,,,,45,1.8698,1,0,16,16,24,1,9,×,5,9 × 5,neutral,largerFirst,1.5,1.5,45,,,,,,,,
,,,,,,,,,,,,,,,753,2022-01-20_13h21.08.062,multiplicationStroop,2021.2.3,Win32,59.98440405,,,,,,,,,,,,,,,,,,,,,,,,,,,,,,,,,12,2.0289,1,0,17,17,11,1,2,×,6,2 × 6,neutral,smallerFirst,1.5,1.5,12,,,,,,,,
,,,,,,,,,,,,,,,753,2022-01-20_13h21.08.062,multiplicationStroop,2021.2.3,Win32,59.98440405,,,,,,,,,,,,,,,,,,,,,,,,,,,,,,,,,14,1.6644,1,0,18,18,2,1,2,×,7,2 × 7,neutral,smallerFirst,1.5,1.5,14,,,,,,,,
,,,,,,,,,,,,,,,753,2022-01-20_13h21.08.062,multiplicationStroop,2021.2.3,Win32,59.98440405,,,,,,,,,,,,,,,,,,,,,,,,,,,,,,,,,8,2.2316,1,0,19,19,17,1,4,×,2,4 × 2,neutral,largerFirst,1.5,1.5,8,,,,,,,,
,,,,,,,,,,,,,,,753,2022-01-20_13h21.08.062,multiplicationStroop,2021.2.3,Win32,59.98440405,,,,,,,,,,,,,,,,,,,,,,,,,,,,,,,,,42,2.719,1,0,20,20,20,1,7,×,6,7 × 6,neutral,largerFirst,1.5,1.5,42,,,,,,,,
,,,,,,,,,,,,,,,753,2022-01-20_13h21.08.062,multiplicationStroop,2021.2.3,Win32,59.98440405,,,,,,,,,,,,,,,,,,,,,,,,,,,,,,,,,36,2.9942,1,0,21,21,13,1,4,×,9,4 × 9,neutral,smallerFirst,1.5,1.5,36,,,,,,,,
,,,,,,,,,,,,,,,753,2022-01-20_13h21.08.062,multiplicationStroop,2021.2.3,Win32,59.98440405,,,,,,,,,,,,,,,,,,,,,,,,,,,,,,,,,9,1.8413,1,0,22,22,29,1,3,×,3,3 × 3,neutral,tie,1.5,1.5,9,,,,,,,,
,,,,,,,,,,,,,,,753,2022-01-20_13h21.08.062,multiplicationStroop,2021.2.3,Win32,59.98440405,,,,,,,,,,,,,,,,,,,,,,,,,,,,,,,,,48,2.0155,1,0,23,23,1,1,6,×,8,6 × 8,neutral,smallerFirst,1.5,1.5,48,,,,,,,,
,,,,,,,,,,,,,,,753,2022-01-20_13h21.08.062,multiplicationStroop,2021.2.3,Win32,59.98440405,,,,,,,,,,,,,,,,,,,,,,,,,,,,,,,,,36,1.5988,1,0,24,24,32,1,6,×,6,6 × 6,neutral,tie,1.5,1.5,36,,,,,,,,
,,,,,,,,,,,,,,,753,2022-01-20_13h21.08.062,multiplicationStroop,2021.2.3,Win32,59.98440405,,,,,,,,,,,,,,,,,,,,,,,,,,,,,,,,,81,1.8985,1,0,25,25,35,1,9,×,9,9 × 9,neutral,tie,1.5,1.5,81,,,,,,,,
,,,,,,,,,,,,,,,753,2022-01-20_13h21.08.062,multiplicationStroop,2021.2.3,Win32,59.98440405,,,,,,,,,,,,,,,,,,,,,,,,,,,,,,,,,20,1.6153,1,0,26,26,6,1,4,×,5,4 × 5,neutral,smallerFirst,1.5,1.5,20,,,,,,,,
,,,,,,,,,,,,,,,753,2022-01-20_13h21.08.062,multiplicationStroop,2021.2.3,Win32,59.98440405,,,,,,,,,,,,,,,,,,,,,,,,,,,,,,,,,15,1.3813,1,0,27,27,19,1,5,×,3,5 × 3,neutral,largerFirst,1.5,1.5,15,,,,,,,,
,,,,,,,,,,,,,,,753,2022-01-20_13h21.08.062,multiplicationStroop,2021.2.3,Win32,59.98440405,,,,,,,,,,,,,,,,,,,,,,,,,,,,,,,,,28,2.0651,1,0,28,28,3,1,4,×,7,4 × 7,neutral,smallerFirst,1.5,1.5,28,,,,,,,,
,,,,,,,,,,,,,,,753,2022-01-20_13h21.08.062,multiplicationStroop,2021.2.3,Win32,59.98440405,,,,,,,,,,,,,,,,,,,,,,,,,,,,,,,,,40,1.6814,1,0,29,29,10,1,5,×,8,5 × 8,neutral,smallerFirst,1.5,1.5,40,,,,,,,,
,,,,,,,,,,,,,,,753,2022-01-20_13h21.08.062,multiplicationStroop,2021.2.3,Win32,59.98440405,,,,,,,,,,,,,,,,,,,,,,,,,,,,,,,,,18,1.7154,1,0,30,30,4,1,2,×,9,2 × 9,neutral,smallerFirst,1.5,1.5,18,,,,,,,,
,,,,,,,,,,,,,,,753,2022-01-20_13h21.08.062,multiplicationStroop,2021.2.3,Win32,59.98440405,,,,,,,,,,,,,,,,,,,,,,,,,,,,,,,,,54,1.7323,1,0,31,31,21,1,9,×,6,9 × 6,neutral,largerFirst,1.5,1.5,54,,,,,,,,
,,,,,,,,,,,,,,,753,2022-01-20_13h21.08.062,multiplicationStroop,2021.2.3,Win32,59.98440405,,,,,,,,,,,,,,,,,,,,,,,,,,,,,,,,,35,1.8202,1,0,32,32,15,1,7,×,5,7 × 5,neutral,largerFirst,1.5,1.5,35,,,,,,,,
,,,,,,,,,,,,,,,753,2022-01-20_13h21.08.062,multiplicationStroop,2021.2.3,Win32,59.98440405,,,,,,,,,,,,,,,,,,,,,,,,,,,,,,,,,6,1.3945,1,0,33,33,12,1,2,×,3,2 × 3,neutral,smallerFirst,1.5,1.5,6,,,,,,,,
,,,,,,,,,,,,,,,753,2022-01-20_13h21.08.062,multiplicationStroop,2021.2.3,Win32,59.98440405,,,,,,,,,,,,,,,,,,,,,,,,,,,,,,,,,30,1.8321,1,0,34,34,5,1,5,×,6,5 × 6,neutral,smallerFirst,1.5,1.5,30,,,,,,,,
,,,,,,,,,,,,,,,753,2022-01-20_13h21.08.062,multiplicationStroop,2021.2.3,Win32,59.98440405,,,,,,,,,,,,,,,,,,,,,,,,,,,,,,,,,56,2.3317,1,0,35,35,23,1,8,×,7,8 × 7,neutral,largerFirst,1.5,1.5,56,,,,,,,,
,,,,,,,,,,,,,,,753,2022-01-20_13h21.08.062,multiplicationStroop,2021.2.3,Win32,59.98440405,,,,,,,,,,,,,,,,,,,,,,,,,,,,,,,,,,,,,,,,,,,,,,,,,,0,4,4,0,1,stimulusFile/mult_blk1.xlsx,,
,,,,,,,,,,,,,,,753,2022-01-20_13h21.08.062,multiplicationStroop,2021.2.3,Win32,59.98440405,,,,,,,,,,,,,,,,,,,,,,,,,,,,,,,space,1.2506,24,1.9406,1,0,0,0,11,1,4,×,6,4 × 6,congruent,smallerFirst,1,2,24,,,,,,,,
,,,,,,,,,,,,,,,753,2022-01-20_13h21.08.062,multiplicationStroop,2021.2.3,Win32,59.98440405,,,,,,,,,,,,,,,,,,,,,,,,,,,,,,,,,36,1.7824,1,0,1,1,14,1,9,×,4,9 × 4,congruent,largerFirst,2,1,36,,,,,,,,
,,,,,,,,,,,,,,,753,2022-01-20_13h21.08.062,multiplicationStroop,2021.2.3,Win32,59.98440405,,,,,,,,,,,,,,,,,,,,,,,,,,,,,,,,,8,1.4488,1,0,2,2,23,1,4,×,2,4 × 2,congruent,largerFirst,2,1,8,,,,,,,,
,,,,,,,,,,,,,,,753,2022-01-20_13h21.08.062,multiplicationStroop,2021.2.3,Win32,59.98440405,,,,,,,,,,,,,,,,,,,,,,,,,,,,,,,,,35,2.3654,1,0,3,3,15,1,7,×,5,7 × 5,congruent,largerFirst,2,1,35,,,,,,,,
,,,,,,,,,,,,,,,753,2022-01-20_13h21.08.062,multiplicationStroop,2021.2.3,Win32,59.98440405,,,,,,,,,,,,,,,,,,,,,,,,,,,,,,,,,4,1.3986,1,0,4,4,28,1,2,×,2,2 × 2,neutral,tie,1,2,4,,,,,,,,
,,,,,,,,,,,,,,,753,2022-01-20_13h21.08.062,multiplicationStroop,2021.2.3,Win32,59.98440405,,,,,,,,,,,,,,,,,,,,,,,,,,,,,,,,,81,1.9687,1,0,5,5,35,1,9,×,9,9 × 9,neutral,tie,1,2,81,,,,,,,,
,,,,,,,,,,,,,,,753,2022-01-20_13h21.08.062,multiplicationStroop,2021.2.3,Win32,59.98440405,,,,,,,,,,,,,,,,,,,,,,,,,,,,,,,,,64,7.1762,1,0,6,6,34,1,8,×,8,8 × 8,neutral,tie,1,2,64,,,,,,,,
,,,,,,,,,,,,,,,753,2022-01-20_13h21.08.062,multiplicationStroop,2021.2.3,Win32,59.98440405,,,,,,,,,,,,,,,,,,,,,,,,,,,,,,,,,40,1.6898,1,0,7,7,20,1,8,×,5,8 × 5,congruent,largerFirst,2,1,40,,,,,,,,
,,,,,,,,,,,,,,,753,2022-01-20_13h21.08.062,multiplicationStroop,2021.2.3,Win32,59.98440405,,,,,,,,,,,,,,,,,,,,,,,,,,,,,,,,,16,1.9485,1,0,8,8,19,1,8,×,2,8 × 2,congruent,largerFirst,2,1,16,,,,,,,,
,,,,,,,,,,,,,,,753,2022-01-20_13h21.08.062,multiplicationStroop,2021.2.3,Win32,59.98440405,,,,,,,,,,,,,,,,,,,,,,,,,,,,,,,,,12,1.8152,1,0,9,9,16,1,4,×,3,4 × 3,congruent,largerFirst,2,1,12,,,,,,,,
,,,,,,,,,,,,,,,753,2022-01-20_13h21.08.062,multiplicationStroop,2021.2.3,Win32,59.98440405,,,,,,,,,,,,,,,,,,,,,,,,,,,,,,,,,18,1.6489,1,0,10,10,8,1,2,×,9,2 × 9,congruent,smallerFirst,1,2,18,,,,,,,,
,,,,,,,,,,,,,,,753,2022-01-20_13h21.08.062,multiplicationStroop,2021.2.3,Win32,59.98440405,,,,,,,,,,,,,,,,,,,,,,,,,,,,,,,,,6,1.549,1,0,11,11,27,1,3,×,2,3 × 2,congruent,largerFirst,2,1,6,,,,,,,,
,,,,,,,,,,,,,,,753,2022-01-20_13h21.08.062,multiplicationStroop,2021.2.3,Win32,59.98440405,,,,,,,,,,,,,,,,,,,,,,,,,,,,,,,,,45,1.9322,1,0,12,12,9,1,5,×,9,5 × 9,congruent,smallerFirst,1,2,45,,,,,,,,
,,,,,,,,,,,,,,,753,2022-01-20_13h21.08.062,multiplicationStroop,2021.2.3,Win32,59.98440405,,,,,,,,,,,,,,,,,,,,,,,,,,,,,,,,,25,2.1487,1,0,13,13,31,1,5,×,5,5 × 5,neutral,tie,1,2,25,,,,,,,,
,,,,,,,,,,,,,,,753,2022-01-20_13h21.08.062,multiplicationStroop,2021.2.3,Win32,59.98440405,,,,,,,,,,,,,,,,,,,,,,,,,,,,,,,,,20,2.648,1,0,14,14,21,1,5,×,4,5 × 4,congruent,largerFirst,2,1,20,,,,,,,,
,,,,,,,,,,,,,,,753,2022-01-20_13h21.08.062,multiplicationStroop,2021.2.3,Win32,59.98440405,,,,,,,,,,,,,,,,,,,,,,,,,,,,,,,,,12,1.4823,1,0,15,15,5,1,2,×,6,2 × 6,congruent,smallerFirst,1,2,12,,,,,,,,
,,,,,,,,,,,,,,,753,2022-01-20_13h21.08.062,multiplicationStroop,2021.2.3,Win32,59.98440405,,,,,,,,,,,,,,,,,,,,,,,,,,,,,,,,,30,2.1824,1,0,16,16,1,1,5,×,6,5 × 6,congruent,smallerFirst,1,2,30,,,,,,,,
,,,,,,,,,,,,,,,753,2022-01-20_13h21.08.062,multiplicationStroop,2021.2.3,Win32,59.98440405,,,,,,,,,,,,,,,,,,,,,,,,,,,,,,,,,15,1.365,1,0,17,17,18,1,5,×,3,5 × 3,congruent,largerFirst,2,1,15,,,,,,,,
,,,,,,,,,,,,,,,753,2022-01-20_13h21.08.062,multiplicationStroop,2021.2.3,Win32,59.98440405,,,,,,,,,,,,,,,,,,,,,,,,,,,,,,,,,18,1.8487,1,0,18,18,25,1,6,×,3,6 × 3,congruent,largerFirst,2,1,18,,,,,,,,
,,,,,,,,,,,,,,,753,2022-01-20_13h21.08.062,multiplicationStroop,2021.2.3,Win32,59.98440405,,,,,,,,,,,,,,,,,,,,,,,,,,,,,,,,,14,1.3652,1,0,19,19,0,1,2,×,7,2 × 7,congruent,smallerFirst,1,2,14,,,,,,,,
,,,,,,,,,,,,,,,753,2022-01-20_13h21.08.062,multiplicationStroop,2021.2.3,Win32,59.98440405,,,,,,,,,,,,,,,,,,,,,,,,,,,,,,,,,9,1.4822,1,0,20,20,29,1,3,×,3,3 × 3,neutral,tie,1,2,9,,,,,,,,
,,,,,,,,,,,,,,,753,2022-01-20_13h21.08.062,multiplicationStroop,2021.2.3,Win32,59.98440405,,,,,,,,,,,,,,,,,,,,,,,,,,,,,,,,,24,1.8833,1,0,21,21,24,1,8,×,3,8 × 3,congruent,largerFirst,2,1,24,,,,,,,,
,,,,,,,,,,,,,,,753,2022-01-20_13h21.08.062,multiplicationStroop,2021.2.3,Win32,59.98440405,,,,,,,,,,,,,,,,,,,,,,,,,,,,,,,,,10,1.6194,1,0,22,22,10,1,2,×,5,2 × 5,congruent,smallerFirst,1,2,10,,,,,,,,
,,,,,,,,,,,,,,,753,2022-01-20_13h21.08.062,multiplicationStroop,2021.2.3,Win32,59.98440405,,,,,,,,,,,,,,,,,,,,,,,,,,,,,,,,,32,1.7776,1,0,23,23,6,1,4,×,8,4 × 8,congruent,smallerFirst,1,2,32,,,,,,,,
,,,,,,,,,,,,,,,753,2022-01-20_13h21.08.062,multiplicationStroop,2021.2.3,Win32,59.98440405,,,,,,,,,,,,,,,,,,,,,,,,,,,,,,,,,72,1.7651,1,0,24,24,3,1,8,×,9,8 × 9,congruent,smallerFirst,1,2,72,,,,,,,,
,,,,,,,,,,,,,,,753,2022-01-20_13h21.08.062,multiplicationStroop,2021.2.3,Win32,59.98440405,,,,,,,,,,,,,,,,,,,,,,,,,,,,,,,,,49,2.0158,1,0,25,25,33,1,7,×,7,7 × 7,neutral,tie,1,2,49,,,,,,,,
,,,,,,,,,,,,,,,753,2022-01-20_13h21.08.062,multiplicationStroop,2021.2.3,Win32,59.98440405,,,,,,,,,,,,,,,,,,,,,,,,,,,,,,,,,28,3.9474,1,0,26,26,13,1,4,×,7,4 × 7,congruent,smallerFirst,1,2,28,,,,,,,,
,,,,,,,,,,,,,,,753,2022-01-20_13h21.08.062,multiplicationStroop,2021.2.3,Win32,59.98440405,,,,,,,,,,,,,,,,,,,,,,,,,,,,,,,,,56,1.908,1,0,27,27,22,1,8,×,7,8 × 7,congruent,largerFirst,2,1,56,,,,,,,,
,,,,,,,,,,,,,,,753,2022-01-20_13h21.08.062,multiplicationStroop,2021.2.3,Win32,59.98440405,,,,,,,,,,,,,,,,,,,,,,,,,,,,,,,,,21,1.9656,1,0,28,28,2,1,3,×,7,3 × 7,congruent,smallerFirst,1,2,21,,,,,,,,
,,,,,,,,,,,,,,,753,2022-01-20_13h21.08.062,multiplicationStroop,2021.2.3,Win32,59.98440405,,,,,,,,,,,,,,,,,,,,,,,,,,,,,,,,,54,2.6147,1,0,29,29,26,1,9,×,6,9 × 6,congruent,largerFirst,2,1,54,,,,,,,,
,,,,,,,,,,,,,,,753,2022-01-20_13h21.08.062,multiplicationStroop,2021.2.3,Win32,59.98440405,,,,,,,,,,,,,,,,,,,,,,,,,,,,,,,,,63,2.3489,1,0,30,30,7,1,7,×,9,7 × 9,congruent,smallerFirst,1,2,63,,,,,,,,
,,,,,,,,,,,,,,,753,2022-01-20_13h21.08.062,multiplicationStroop,2021.2.3,Win32,59.98440405,,,,,,,,,,,,,,,,,,,,,,,,,,,,,,,,,36,1.7653,1,0,31,31,32,1,6,×,6,6 × 6,neutral,tie,1,2,36,,,,,,,,
,,,,,,,,,,,,,,,753,2022-01-20_13h21.08.062,multiplicationStroop,2021.2.3,Win32,59.98440405,,,,,,,,,,,,,,,,,,,,,,,,,,,,,,,,,27,2.1693,1,0,32,32,12,1,3,×,9,3 × 9,congruent,smallerFirst,1,2,27,,,,,,,,
,,,,,,,,,,,,,,,753,2022-01-20_13h21.08.062,multiplicationStroop,2021.2.3,Win32,59.98440405,,,,,,,,,,,,,,,,,,,,,,,,,,,,,,,,,48,1.7615,1,0,33,33,4,1,6,×,8,6 × 8,congruent,smallerFirst,1,2,48,,,,,,,,
,,,,,,,,,,,,,,,753,2022-01-20_13h21.08.062,multiplicationStroop,2021.2.3,Win32,59.98440405,,,,,,,,,,,,,,,,,,,,,,,,,,,,,,,,,42,1.7523,1,0,34,34,17,1,7,×,6,7 × 6,congruent,largerFirst,2,1,42,,,,,,,,
,,,,,,,,,,,,,,,753,2022-01-20_13h21.08.062,multiplicationStroop,2021.2.3,Win32,59.98440405,,,,,,,,,,,,,,,,,,,,,,,,,,,,,,,,,16,1.5453,1,0,35,35,30,1,4,×,4,4 × 4,neutral,tie,1,2,16,,,,,,,,
,,,,,,,,,,,,,,,753,2022-01-20_13h21.08.062,multiplicationStroop,2021.2.3,Win32,59.98440405,,,,,,,,,,,,,,,,,,,,,,,,,,,,,,,,,,,,,,,,,,,,,,,,,,0,5,5,3,1,stimulusFile/mult_blk4_congruent.xlsx,,
,,,,,,,,,,,,,,,753,2022-01-20_13h21.08.062,multiplicationStroop,2021.2.3,Win32,59.98440405,,,,,,,,,,,,,,,,,,,,,,,,,,,,,,,,,,,,,,,,,,,,,,,,,,,,,,,,space,5.6125