welcomeKey_resp.keys,welcomeKey_resp.rt,X Scale,Y Scale,rt_resp_4.keys,rt_resp_4.corr,rt_resp_4.rt,speedtest_2.thisRepN,speedtest_2.thisTrialN,speedtest_2.thisN,speedtest_2.thisIndex,speedtest_2.ran,numberSc,posX,positionLayout,participant,date,expName,psychopyVersion,OS,frameRate,ct_instrresp.keys,ct_instrresp.rt,key_resp_2.keys,key_resp_2.rt,ct_keyResp.keys,ct_keyResp.corr,ct_keyResp.rt,trials.thisRepN,trials.thisTrialN,trials.thisN,trials.thisIndex,trials.ran,leftNo,rightNo,displayProblem,numDistance,leftNo_size,rightNo_size,Dims,keyAnswer,TS_Loop.thisRepN,TS_Loop.thisTrialN,TS_Loop.thisN,TS_Loop.thisIndex,TS_Loop.ran,Condition,ActionInst,instrImage,mltptaskInst_resp.keys,mltptaskInst_resp.rt,continue_resp_2.keys,continue_resp_2.rt,multp_Answer,multi_RT,multiplyCorr,LoopingMultiply.thisRepN,LoopingMultiply.thisTrialN,LoopingMultiply.thisN,LoopingMultiply.thisIndex,LoopingMultiply.ran,factor1,multiplySign,factor2,multliplyProblem,physicalSize,orderOperand,sizeF1,sizeF2,mult_answer,trials_stroop.thisRepN,trials_stroop.thisTrialN,trials_stroop.thisN,trials_stroop.thisIndex,trials_stroop.ran,multiplicationFile,esckey_resp_2.keys,esckey_resp_2.rt
y,3.4041,28.3,27.1,right,1,0.4877,0,0,0,10,1,3,200,right,754,2022-01-19_22h06.06.766,multiplicationStroop,2021.2.3,Win32,59.86231667,,,,,,,,,,,,,,,,,,,,,,,,,,,,,,,,,,,,,,,,,,,,,,,,,,,,,,,,,
,,,,left,1,0.4047,0,1,1,2,1,3,-200,left,754,2022-01-19_22h06.06.766,multiplicationStroop,2021.2.3,Win32,59.86231667,,,,,,,,,,,,,,,,,,,,,,,,,,,,,,,,,,,,,,,,,,,,,,,,,,,,,,,,,
,,,,left,1,0.4011,0,2,2,0,1,1,-200,left,754,2022-01-19_22h06.06.766,multiplicationStroop,2021.2.3,Win32,59.86231667,,,,,,,,,,,,,,,,,,,,,,,,,,,,,,,,,,,,,,,,,,,,,,,,,,,,,,,,,
,,,,left,1,0.3521,0,3,3,1,1,2,-200,left,754,2022-01-19_22h06.06.766,multiplicationStroop,2021.2.3,Win32,59.86231667,,,,,,,,,,,,,,,,,,,,,,,,,,,,,,,,,,,,,,,,,,,,,,,,,,,,,,,,,
,,,,right,1,0.3202,0,4,4,15,1,9,200,right,754,2022-01-19_22h06.06.766,multiplicationStroop,2021.2.3,Win32,59.86231667,,,,,,,,,,,,,,,,,,,,,,,,,,,,,,,,,,,,,,,,,,,,,,,,,,,,,,,,,
,,,,right,1,0.3442,0,5,5,13,1,7,200,right,754,2022-01-19_22h06.06.766,multiplicationStroop,2021.2.3,Win32,59.86231667,,,,,,,,,,,,,,,,,,,,,,,,,,,,,,,,,,,,,,,,,,,,,,,,,,,,,,,,,
,,,,left,1,0.3174,0,6,6,7,1,9,-200,left,754,2022-01-19_22h06.06.766,multiplicationStroop,2021.2.3,Win32,59.86231667,,,,,,,,,,,,,,,,,,,,,,,,,,,,,,,,,,,,,,,,,,,,,,,,,,,,,,,,,
,,,,left,1,0.3513,0,7,7,6,1,8,-200,left,754,2022-01-19_22h06.06.766,multiplicationStroop,2021.2.3,Win32,59.86231667,,,,,,,,,,,,,,,,,,,,,,,,,,,,,,,,,,,,,,,,,,,,,,,,,,,,,,,,,
,,,,left,1,0.3084,0,8,8,5,1,7,-200,left,754,2022-01-19_22h06.06.766,multiplicationStroop,2021.2.3,Win32,59.86231667,,,,,,,,,,,,,,,,,,,,,,,,,,,,,,,,,,,,,,,,,,,,,,,,,,,,,,,,,
,,,,right,1,0.3034,0,9,9,9,1,2,200,right,754,2022-01-19_22h06.06.766,multiplicationStroop,2021.2.3,Win32,59.86231667,,,,,,,,,,,,,,,,,,,,,,,,,,,,,,,,,,,,,,,,,,,,,,,,,,,,,,,,,
,,,,left,1,0.2874,0,10,10,4,1,6,-200,left,754,2022-01-19_22h06.06.766,multiplicationStroop,2021.2.3,Win32,59.86231667,,,,,,,,,,,,,,,,,,,,,,,,,,,,,,,,,,,,,,,,,,,,,,,,,,,,,,,,,
,,,,right,1,0.2882,0,11,11,11,1,4,200,right,754,2022-01-19_22h06.06.766,multiplicationStroop,2021.2.3,Win32,59.86231667,,,,,,,,,,,,,,,,,,,,,,,,,,,,,,,,,,,,,,,,,,,,,,,,,,,,,,,,,
,,,,left,0,0.2552,0,12,12,12,1,6,200,right,754,2022-01-19_22h06.06.766,multiplicationStroop,2021.2.3,Win32,59.86231667,,,,,,,,,,,,,,,,,,,,,,,,,,,,,,,,,,,,,,,,,,,,,,,,,,,,,,,,,
,,,,right,1,0.3906,0,13,13,8,1,1,200,right,754,2022-01-19_22h06.06.766,multiplicationStroop,2021.2.3,Win32,59.86231667,,,,,,,,,,,,,,,,,,,,,,,,,,,,,,,,,,,,,,,,,,,,,,,,,,,,,,,,,
,,,,right,1,0.3251,0,14,14,14,1,8,200,right,754,2022-01-19_22h06.06.766,multiplicationStroop,2021.2.3,Win32,59.86231667,,,,,,,,,,,,,,,,,,,,,,,,,,,,,,,,,,,,,,,,,,,,,,,,,,,,,,,,,
,,,,left,1,0.3491,0,15,15,3,1,4,-200,left,754,2022-01-19_22h06.06.766,multiplicationStroop,2021.2.3,Win32,59.86231667,,,,,,,,,,,,,,,,,,,,,,,,,,,,,,,,,,,,,,,,,,,,,,,,,,,,,,,,,
,,,,right,0,0.3398,1,0,16,7,1,9,-200,left,754,2022-01-19_22h06.06.766,multiplicationStroop,2021.2.3,Win32,59.86231667,,,,,,,,,,,,,,,,,,,,,,,,,,,,,,,,,,,,,,,,,,,,,,,,,,,,,,,,,
,,,,left,1,0.357,1,1,17,6,1,8,-200,left,754,2022-01-19_22h06.06.766,multiplicationStroop,2021.2.3,Win32,59.86231667,,,,,,,,,,,,,,,,,,,,,,,,,,,,,,,,,,,,,,,,,,,,,,,,,,,,,,,,,
,,,,right,1,0.3244,1,2,18,14,1,8,200,right,754,2022-01-19_22h06.06.766,multiplicationStroop,2021.2.3,Win32,59.86231667,,,,,,,,,,,,,,,,,,,,,,,,,,,,,,,,,,,,,,,,,,,,,,,,,,,,,,,,,
,,,,right,1,0.3476,1,3,19,12,1,6,200,right,754,2022-01-19_22h06.06.766,multiplicationStroop,2021.2.3,Win32,59.86231667,,,,,,,,,,,,,,,,,,,,,,,,,,,,,,,,,,,,,,,,,,,,,,,,,,,,,,,,,
,,,,left,1,0.3497,1,4,20,3,1,4,-200,left,754,2022-01-19_22h06.06.766,multiplicationStroop,2021.2.3,Win32,59.86231667,,,,,,,,,,,,,,,,,,,,,,,,,,,,,,,,,,,,,,,,,,,,,,,,,,,,,,,,,
,,,,left,1,0.3402,1,5,21,5,1,7,-200,left,754,2022-01-19_22h06.06.766,multiplicationStroop,2021.2.3,Win32,59.86231667,,,,,,,,,,,,,,,,,,,,,,,,,,,,,,,,,,,,,,,,,,,,,,,,,,,,,,,,,
,,,,left,1,0.3245,1,6,22,2,1,3,-200,left,754,2022-01-19_22h06.06.766,multiplicationStroop,2021.2.3,Win32,59.86231667,,,,,,,,,,,,,,,,,,,,,,,,,,,,,,,,,,,,,,,,,,,,,,,,,,,,,,,,,
,,,,right,1,0.3481,1,7,23,9,1,2,200,right,754,2022-01-19_22h06.06.766,multiplicationStroop,2021.2.3,Win32,59.86231667,,,,,,,,,,,,,,,,,,,,,,,,,,,,,,,,,,,,,,,,,,,,,,,,,,,,,,,,,
,,,,right,1,0.3717,1,8,24,13,1,7,200,right,754,2022-01-19_22h06.06.766,multiplicationStroop,2021.2.3,Win32,59.86231667,,,,,,,,,,,,,,,,,,,,,,,,,,,,,,,,,,,,,,,,,,,,,,,,,,,,,,,,,
,,,,left,1,0.3467,1,9,25,0,1,1,-200,left,754,2022-01-19_22h06.06.766,multiplicationStroop,2021.2.3,Win32,59.86231667,,,,,,,,,,,,,,,,,,,,,,,,,,,,,,,,,,,,,,,,,,,,,,,,,,,,,,,,,
,,,,right,0,0.3135,1,10,26,1,1,2,-200,left,754,2022-01-19_22h06.06.766,multiplicationStroop,2021.2.3,Win32,59.86231667,,,,,,,,,,,,,,,,,,,,,,,,,,,,,,,,,,,,,,,,,,,,,,,,,,,,,,,,,
,,,,right,1,0.6063,1,11,27,8,1,1,200,right,754,2022-01-19_22h06.06.766,multiplicationStroop,2021.2.3,Win32,59.86231667,,,,,,,,,,,,,,,,,,,,,,,,,,,,,,,,,,,,,,,,,,,,,,,,,,,,,,,,,
,,,,right,1,0.314,1,12,28,15,1,9,200,right,754,2022-01-19_22h06.06.766,multiplicationStroop,2021.2.3,Win32,59.86231667,,,,,,,,,,,,,,,,,,,,,,,,,,,,,,,,,,,,,,,,,,,,,,,,,,,,,,,,,
,,,,right,1,0.3145,1,13,29,10,1,3,200,right,754,2022-01-19_22h06.06.766,multiplicationStroop,2021.2.3,Win32,59.86231667,,,,,,,,,,,,,,,,,,,,,,,,,,,,,,,,,,,,,,,,,,,,,,,,,,,,,,,,,
,,,,right,1,0.3172,1,14,30,11,1,4,200,right,754,2022-01-19_22h06.06.766,multiplicationStroop,2021.2.3,Win32,59.86231667,,,,,,,,,,,,,,,,,,,,,,,,,,,,,,,,,,,,,,,,,,,,,,,,,,,,,,,,,
,,,,left,1,0.3726,1,15,31,4,1,6,-200,left,754,2022-01-19_22h06.06.766,multiplicationStroop,2021.2.3,Win32,59.86231667,,,,,,,,,,,,,,,,,,,,,,,,,,,,,,,,,,,,,,,,,,,,,,,,,,,,,,,,,
,,,,right,1,0.3473,2,0,32,13,1,7,200,right,754,2022-01-19_22h06.06.766,multiplicationStroop,2021.2.3,Win32,59.86231667,,,,,,,,,,,,,,,,,,,,,,,,,,,,,,,,,,,,,,,,,,,,,,,,,,,,,,,,,
,,,,right,1,0.4275,2,1,33,15,1,9,200,right,754,2022-01-19_22h06.06.766,multiplicationStroop,2021.2.3,Win32,59.86231667,,,,,,,,,,,,,,,,,,,,,,,,,,,,,,,,,,,,,,,,,,,,,,,,,,,,,,,,,
,,,,left,1,0.2934,2,2,34,3,1,4,-200,left,754,2022-01-19_22h06.06.766,multiplicationStroop,2021.2.3,Win32,59.86231667,,,,,,,,,,,,,,,,,,,,,,,,,,,,,,,,,,,,,,,,,,,,,,,,,,,,,,,,,
,,,,right,0,0.2718,2,3,35,7,1,9,-200,left,754,2022-01-19_22h06.06.766,multiplicationStroop,2021.2.3,Win32,59.86231667,,,,,,,,,,,,,,,,,,,,,,,,,,,,,,,,,,,,,,,,,,,,,,,,,,,,,,,,,
,,,,right,1,0.4355,2,4,36,14,1,8,200,right,754,2022-01-19_22h06.06.766,multiplicationStroop,2021.2.3,Win32,59.86231667,,,,,,,,,,,,,,,,,,,,,,,,,,,,,,,,,,,,,,,,,,,,,,,,,,,,,,,,,
,,,,left,1,0.3198,2,5,37,5,1,7,-200,left,754,2022-01-19_22h06.06.766,multiplicationStroop,2021.2.3,Win32,59.86231667,,,,,,,,,,,,,,,,,,,,,,,,,,,,,,,,,,,,,,,,,,,,,,,,,,,,,,,,,
,,,,right,0,0.14,2,6,38,1,1,2,-200,left,754,2022-01-19_22h06.06.766,multiplicationStroop,2021.2.3,Win32,59.86231667,,,,,,,,,,,,,,,,,,,,,,,,,,,,,,,,,,,,,,,,,,,,,,,,,,,,,,,,,
,,,,left,1,0.2354,2,7,39,0,1,1,-200,left,754,2022-01-19_22h06.06.766,multiplicationStroop,2021.2.3,Win32,59.86231667,,,,,,,,,,,,,,,,,,,,,,,,,,,,,,,,,,,,,,,,,,,,,,,,,,,,,,,,,
,,,,right,1,0.4101,2,8,40,8,1,1,200,right,754,2022-01-19_22h06.06.766,multiplicationStroop,2021.2.3,Win32,59.86231667,,,,,,,,,,,,,,,,,,,,,,,,,,,,,,,,,,,,,,,,,,,,,,,,,,,,,,,,,
,,,,right,1,0.4398,2,9,41,12,1,6,200,right,754,2022-01-19_22h06.06.766,multiplicationStroop,2021.2.3,Win32,59.86231667,,,,,,,,,,,,,,,,,,,,,,,,,,,,,,,,,,,,,,,,,,,,,,,,,,,,,,,,,
,,,,left,1,0.4254,2,10,42,2,1,3,-200,left,754,2022-01-19_22h06.06.766,multiplicationStroop,2021.2.3,Win32,59.86231667,,,,,,,,,,,,,,,,,,,,,,,,,,,,,,,,,,,,,,,,,,,,,,,,,,,,,,,,,
,,,,left,1,0.4166,2,11,43,6,1,8,-200,left,754,2022-01-19_22h06.06.766,multiplicationStroop,2021.2.3,Win32,59.86231667,,,,,,,,,,,,,,,,,,,,,,,,,,,,,,,,,,,,,,,,,,,,,,,,,,,,,,,,,
,,,,right,1,0.3399,2,12,44,10,1,3,200,right,754,2022-01-19_22h06.06.766,multiplicationStroop,2021.2.3,Win32,59.86231667,,,,,,,,,,,,,,,,,,,,,,,,,,,,,,,,,,,,,,,,,,,,,,,,,,,,,,,,,
,,,,right,1,0.4032,2,13,45,9,1,2,200,right,754,2022-01-19_22h06.06.766,multiplicationStroop,2021.2.3,Win32,59.86231667,,,,,,,,,,,,,,,,,,,,,,,,,,,,,,,,,,,,,,,,,,,,,,,,,,,,,,,,,
,,,,left,0,0.4108,2,14,46,11,1,4,200,right,754,2022-01-19_22h06.06.766,multiplicationStroop,2021.2.3,Win32,59.86231667,,,,,,,,,,,,,,,,,,,,,,,,,,,,,,,,,,,,,,,,,,,,,,,,,,,,,,,,,
,,,,left,1,0.4743,2,15,47,4,1,6,-200,left,754,2022-01-19_22h06.06.766,multiplicationStroop,2021.2.3,Win32,59.86231667,,,,,,,,,,,,,,,,,,,,,,,,,,,,,,,,,,,,,,,,,,,,,,,,,,,,,,,,,
,,,,left,1,0.4381,3,0,48,1,1,2,-200,left,754,2022-01-19_22h06.06.766,multiplicationStroop,2021.2.3,Win32,59.86231667,,,,,,,,,,,,,,,,,,,,,,,,,,,,,,,,,,,,,,,,,,,,,,,,,,,,,,,,,
,,,,right,1,0.3563,3,1,49,14,1,8,200,right,754,2022-01-19_22h06.06.766,multiplicationStroop,2021.2.3,Win32,59.86231667,,,,,,,,,,,,,,,,,,,,,,,,,,,,,,,,,,,,,,,,,,,,,,,,,,,,,,,,,
,,,,right,1,0.4037,3,2,50,10,1,3,200,right,754,2022-01-19_22h06.06.766,multiplicationStroop,2021.2.3,Win32,59.86231667,,,,,,,,,,,,,,,,,,,,,,,,,,,,,,,,,,,,,,,,,,,,,,,,,,,,,,,,,
,,,,right,1,0.343,3,3,51,12,1,6,200,right,754,2022-01-19_22h06.06.766,multiplicationStroop,2021.2.3,Win32,59.86231667,,,,,,,,,,,,,,,,,,,,,,,,,,,,,,,,,,,,,,,,,,,,,,,,,,,,,,,,,
,,,,right,1,0.3276,3,4,52,15,1,9,200,right,754,2022-01-19_22h06.06.766,multiplicationStroop,2021.2.3,Win32,59.86231667,,,,,,,,,,,,,,,,,,,,,,,,,,,,,,,,,,,,,,,,,,,,,,,,,,,,,,,,,
,,,,left,1,0.384,3,5,53,0,1,1,-200,left,754,2022-01-19_22h06.06.766,multiplicationStroop,2021.2.3,Win32,59.86231667,,,,,,,,,,,,,,,,,,,,,,,,,,,,,,,,,,,,,,,,,,,,,,,,,,,,,,,,,
,,,,left,1,0.3979,3,6,54,7,1,9,-200,left,754,2022-01-19_22h06.06.766,multiplicationStroop,2021.2.3,Win32,59.86231667,,,,,,,,,,,,,,,,,,,,,,,,,,,,,,,,,,,,,,,,,,,,,,,,,,,,,,,,,
,,,,right,1,0.3487,3,7,55,9,1,2,200,right,754,2022-01-19_22h06.06.766,multiplicationStroop,2021.2.3,Win32,59.86231667,,,,,,,,,,,,,,,,,,,,,,,,,,,,,,,,,,,,,,,,,,,,,,,,,,,,,,,,,
,,,,right,1,0.3678,3,8,56,13,1,7,200,right,754,2022-01-19_22h06.06.766,multiplicationStroop,2021.2.3,Win32,59.86231667,,,,,,,,,,,,,,,,,,,,,,,,,,,,,,,,,,,,,,,,,,,,,,,,,,,,,,,,,
,,,,right,1,0.3579,3,9,57,8,1,1,200,right,754,2022-01-19_22h06.06.766,multiplicationStroop,2021.2.3,Win32,59.86231667,,,,,,,,,,,,,,,,,,,,,,,,,,,,,,,,,,,,,,,,,,,,,,,,,,,,,,,,,
,,,,left,1,0.3595,3,10,58,3,1,4,-200,left,754,2022-01-19_22h06.06.766,multiplicationStroop,2021.2.3,Win32,59.86231667,,,,,,,,,,,,,,,,,,,,,,,,,,,,,,,,,,,,,,,,,,,,,,,,,,,,,,,,,
,,,,left,1,0.4054,3,11,59,5,1,7,-200,left,754,2022-01-19_22h06.06.766,multiplicationStroop,2021.2.3,Win32,59.86231667,,,,,,,,,,,,,,,,,,,,,,,,,,,,,,,,,,,,,,,,,,,,,,,,,,,,,,,,,
,,,,left,1,0.3912,3,12,60,6,1,8,-200,left,754,2022-01-19_22h06.06.766,multiplicationStroop,2021.2.3,Win32,59.86231667,,,,,,,,,,,,,,,,,,,,,,,,,,,,,,,,,,,,,,,,,,,,,,,,,,,,,,,,,
,,,,left,1,0.2914,3,13,61,2,1,3,-200,left,754,2022-01-19_22h06.06.766,multiplicationStroop,2021.2.3,Win32,59.86231667,,,,,,,,,,,,,,,,,,,,,,,,,,,,,,,,,,,,,,,,,,,,,,,,,,,,,,,,,
,,,,right,1,0.3609,3,14,62,11,1,4,200,right,754,2022-01-19_22h06.06.766,multiplicationStroop,2021.2.3,Win32,59.86231667,,,,,,,,,,,,,,,,,,,,,,,,,,,,,,,,,,,,,,,,,,,,,,,,,,,,,,,,,
,,,,left,1,0.3161,3,15,63,4,1,6,-200,left,754,2022-01-19_22h06.06.766,multiplicationStroop,2021.2.3,Win32,59.86231667,,,,,,,,,,,,,,,,,,,,,,,,,,,,,,,,,,,,,,,,,,,,,,,,,,,,,,,,,
,,,,,,,,,,,,,,,754,2022-01-19_22h06.06.766,multiplicationStroop,2021.2.3,Win32,59.86231667,space,10.9692,space,7.0151,right,1,0.9147,0,0,0,26,1,6,7,6 | 7,1,1.9756,1.4111,incongruent,right,,,,,,stimulusFile/magnitude.xlsx,,,,,,,,,,,,,,,,,,,,,,,,,,,,,,,
,,,,,,,,,,,,,,,754,2022-01-19_22h06.06.766,multiplicationStroop,2021.2.3,Win32,59.86231667,,,,,right,1,0.6615,0,1,1,18,1,3,8,3 | 8,5,1.4111,1.9756,congruent,right,,,,,,stimulusFile/magnitude.xlsx,,,,,,,,,,,,,,,,,,,,,,,,,,,,,,,
,,,,,,,,,,,,,,,754,2022-01-19_22h06.06.766,multiplicationStroop,2021.2.3,Win32,59.86231667,,,,,left,1,0.6474,0,2,2,52,1,2,1,2 | 1,1,1.6933,1.6933,neutral,left,,,,,,stimulusFile/magnitude.xlsx,,,,,,,,,,,,,,,,,,,,,,,,,,,,,,,
,,,,,,,,,,,,,,,754,2022-01-19_22h06.06.766,multiplicationStroop,2021.2.3,Win32,59.86231667,,,,,left,1,0.627,0,3,3,60,1,3,1,3 | 1,2,1.6933,1.6933,neutral,left,,,,,,stimulusFile/magnitude.xlsx,,,,,,,,,,,,,,,,,,,,,,,,,,,,,,,
,,,,,,,,,,,,,,,754,2022-01-19_22h06.06.766,multiplicationStroop,2021.2.3,Win32,59.86231667,,,,,left,1,0.6091,0,4,4,54,1,7,6,7 | 6,1,1.6933,1.6933,neutral,left,,,,,,stimulusFile/magnitude.xlsx,,,,,,,,,,,,,,,,,,,,,,,,,,,,,,,
,,,,,,,,,,,,,,,754,2022-01-19_22h06.06.766,multiplicationStroop,2021.2.3,Win32,59.86231667,,,,,right,1,0.5847,0,5,5,9,1,2,4,2 | 4,2,1.4111,1.9756,congruent,right,,,,,,stimulusFile/magnitude.xlsx,,,,,,,,,,,,,,,,,,,,,,,,,,,,,,,
,,,,,,,,,,,,,,,754,2022-01-19_22h06.06.766,multiplicationStroop,2021.2.3,Win32,59.86231667,,,,,right,1,0.7583,0,6,6,65,1,2,7,2 | 7,5,1.6933,1.6933,neutral,right,,,,,,stimulusFile/magnitude.xlsx,,,,,,,,,,,,,,,,,,,,,,,,,,,,,,,
,,,,,,,,,,,,,,,754,2022-01-19_22h06.06.766,multiplicationStroop,2021.2.3,Win32,59.86231667,,,,,right,1,0.6641,0,7,7,27,1,8,9,8 | 9,1,1.9756,1.4111,incongruent,right,,,,,,stimulusFile/magnitude.xlsx,,,,,,,,,,,,,,,,,,,,,,,,,,,,,,,
,,,,,,,,,,,,,,,754,2022-01-19_22h06.06.766,multiplicationStroop,2021.2.3,Win32,59.86231667,,,,,right,1,0.7296,0,8,8,40,1,1,6,1 | 6,5,1.9756,1.4111,incongruent,right,,,,,,stimulusFile/magnitude.xlsx,,,,,,,,,,,,,,,,,,,,,,,,,,,,,,,
,,,,,,,,,,,,,,,754,2022-01-19_22h06.06.766,multiplicationStroop,2021.2.3,Win32,59.86231667,,,,,left,1,0.6174,0,9,9,47,1,9,4,9 | 4,5,1.4111,1.9756,incongruent,left,,,,,,stimulusFile/magnitude.xlsx,,,,,,,,,,,,,,,,,,,,,,,,,,,,,,,
,,,,,,,,,,,,,,,754,2022-01-19_22h06.06.766,multiplicationStroop,2021.2.3,Win32,59.86231667,,,,,right,1,0.5895,0,10,10,42,1,3,8,3 | 8,5,1.9756,1.4111,incongruent,right,,,,,,stimulusFile/magnitude.xlsx,,,,,,,,,,,,,,,,,,,,,,,,,,,,,,,
,,,,,,,,,,,,,,,754,2022-01-19_22h06.06.766,multiplicationStroop,2021.2.3,Win32,59.86231667,,,,,left,1,0.5361,0,11,11,20,1,6,1,6 | 1,5,1.9756,1.4111,congruent,left,,,,,,stimulusFile/magnitude.xlsx,,,,,,,,,,,,,,,,,,,,,,,,,,,,,,,
,,,,,,,,,,,,,,,754,2022-01-19_22h06.06.766,multiplicationStroop,2021.2.3,Win32,59.86231667,,,,,right,1,0.5472,0,12,12,32,1,1,3,1 | 3,2,1.9756,1.4111,incongruent,right,,,,,,stimulusFile/magnitude.xlsx,,,,,,,,,,,,,,,,,,,,,,,,,,,,,,,
,,,,,,,,,,,,,,,754,2022-01-19_22h06.06.766,multiplicationStroop,2021.2.3,Win32,59.86231667,,,,,left,1,0.5943,0,13,13,68,1,6,1,6 | 1,5,1.6933,1.6933,neutral,left,,,,,,stimulusFile/magnitude.xlsx,,,,,,,,,,,,,,,,,,,,,,,,,,,,,,,
,,,,,,,,,,,,,,,754,2022-01-19_22h06.06.766,multiplicationStroop,2021.2.3,Win32,59.86231667,,,,,left,1,0.8142,0,14,14,29,1,4,3,4 | 3,1,1.4111,1.9756,incongruent,left,,,,,,stimulusFile/magnitude.xlsx,,,,,,,,,,,,,,,,,,,,,,,,,,,,,,,
,,,,,,,,,,,,,,,754,2022-01-19_22h06.06.766,multiplicationStroop,2021.2.3,Win32,59.86231667,,,,,left,1,0.5715,0,15,15,70,1,8,3,8 | 3,5,1.6933,1.6933,neutral,left,,,,,,stimulusFile/magnitude.xlsx,,,,,,,,,,,,,,,,,,,,,,,,,,,,,,,
,,,,,,,,,,,,,,,754,2022-01-19_22h06.06.766,multiplicationStroop,2021.2.3,Win32,59.86231667,,,,,left,1,0.4907,0,16,16,12,1,3,1,3 | 1,2,1.9756,1.4111,congruent,left,,,,,,stimulusFile/magnitude.xlsx,,,,,,,,,,,,,,,,,,,,,,,,,,,,,,,
,,,,,,,,,,,,,,,754,2022-01-19_22h06.06.766,multiplicationStroop,2021.2.3,Win32,59.86231667,,,,,right,1,0.494,0,17,17,17,1,2,7,2 | 7,5,1.4111,1.9756,congruent,right,,,,,,stimulusFile/magnitude.xlsx,,,,,,,,,,,,,,,,,,,,,,,,,,,,,,,
,,,,,,,,,,,,,,,754,2022-01-19_22h06.06.766,multiplicationStroop,2021.2.3,Win32,59.86231667,,,,,right,1,0.6206,0,18,18,48,1,1,2,1 | 2,1,1.6933,1.6933,neutral,right,,,,,,stimulusFile/magnitude.xlsx,,,,,,,,,,,,,,,,,,,,,,,,,,,,,,,
,,,,,,,,,,,,,,,754,2022-01-19_22h06.06.766,multiplicationStroop,2021.2.3,Win32,59.86231667,,,,,left,1,0.5913,0,19,19,23,1,9,4,9 | 4,5,1.9756,1.4111,congruent,left,,,,,,stimulusFile/magnitude.xlsx,,,,,,,,,,,,,,,,,,,,,,,,,,,,,,,
,,,,,,,,,,,,,,,754,2022-01-19_22h06.06.766,multiplicationStroop,2021.2.3,Win32,59.86231667,,,,,left,1,0.7306,0,20,20,37,1,4,2,4 | 2,2,1.4111,1.9756,incongruent,left,,,,,,stimulusFile/magnitude.xlsx,,,,,,,,,,,,,,,,,,,,,,,,,,,,,,,
,,,,,,,,,,,,,,,754,2022-01-19_22h06.06.766,multiplicationStroop,2021.2.3,Win32,59.86231667,,,,,right,1,0.6183,0,21,21,59,1,7,9,7 | 9,2,1.6933,1.6933,neutral,right,,,,,,stimulusFile/magnitude.xlsx,,,,,,,,,,,,,,,,,,,,,,,,,,,,,,,
,,,,,,,,,,,,,,,754,2022-01-19_22h06.06.766,multiplicationStroop,2021.2.3,Win32,59.86231667,,,,,left,0,0.5776,0,22,22,64,1,1,6,1 | 6,5,1.6933,1.6933,neutral,right,,,,,,stimulusFile/magnitude.xlsx,,,,,,,,,,,,,,,,,,,,,,,,,,,,,,,
,,,,,,,,,,,,,,,754,2022-01-19_22h06.06.766,multiplicationStroop,2021.2.3,Win32,59.86231667,,,,,left,1,0.5655,0,23,23,5,1,4,3,4 | 3,1,1.9756,1.4111,congruent,left,,,,,,stimulusFile/magnitude.xlsx,,,,,,,,,,,,,,,,,,,,,,,,,,,,,,,
,,,,,,,,,,,,,,,754,2022-01-19_22h06.06.766,multiplicationStroop,2021.2.3,Win32,59.86231667,,,,,left,1,0.7097,0,24,24,14,1,8,6,8 | 6,2,1.9756,1.4111,congruent,left,,,,,,stimulusFile/magnitude.xlsx,,,,,,,,,,,,,,,,,,,,,,,,,,,,,,,
,,,,,,,,,,,,,,,754,2022-01-19_22h06.06.766,multiplicationStroop,2021.2.3,Win32,59.86231667,,,,,left,1,0.7546,0,25,25,6,1,7,6,7 | 6,1,1.9756,1.4111,congruent,left,,,,,,stimulusFile/magnitude.xlsx,,,,,,,,,,,,,,,,,,,,,,,,,,,,,,,
,,,,,,,,,,,,,,,754,2022-01-19_22h06.06.766,multiplicationStroop,2021.2.3,Win32,59.86231667,,,,,left,1,0.6042,0,26,26,55,1,9,8,9 | 8,1,1.6933,1.6933,neutral,left,,,,,,stimulusFile/magnitude.xlsx,,,,,,,,,,,,,,,,,,,,,,,,,,,,,,,
,,,,,,,,,,,,,,,754,2022-01-19_22h06.06.766,multiplicationStroop,2021.2.3,Win32,59.86231667,,,,,left,1,0.5232,0,27,27,62,1,8,6,8 | 6,2,1.6933,1.6933,neutral,left,,,,,,stimulusFile/magnitude.xlsx,,,,,,,,,,,,,,,,,,,,,,,,,,,,,,,
,,,,,,,,,,,,,,,754,2022-01-19_22h06.06.766,multiplicationStroop,2021.2.3,Win32,59.86231667,,,,,right,1,0.5473,0,28,28,1,1,3,4,3 | 4,1,1.4111,1.9756,congruent,right,,,,,,stimulusFile/magnitude.xlsx,,,,,,,,,,,,,,,,,,,,,,,,,,,,,,,
,,,,,,,,,,,,,,,754,2022-01-19_22h06.06.766,multiplicationStroop,2021.2.3,Win32,59.86231667,,,,,right,1,0.5079,0,29,29,50,1,6,7,6 | 7,1,1.6933,1.6933,neutral,right,,,,,,stimulusFile/magnitude.xlsx,,,,,,,,,,,,,,,,,,,,,,,,,,,,,,,
,,,,,,,,,,,,,,,754,2022-01-19_22h06.06.766,multiplicationStroop,2021.2.3,Win32,59.86231667,,,,,right,1,0.7981,0,30,30,33,1,2,4,2 | 4,2,1.9756,1.4111,incongruent,right,,,,,,stimulusFile/magnitude.xlsx,,,,,,,,,,,,,,,,,,,,,,,,,,,,,,,
,,,,,,,,,,,,,,,754,2022-01-19_22h06.06.766,multiplicationStroop,2021.2.3,Win32,59.86231667,,,,,right,1,0.534,0,31,31,19,1,4,9,4 | 9,5,1.4111,1.9756,congruent,right,,,,,,stimulusFile/magnitude.xlsx,,,,,,,,,,,,,,,,,,,,,,,,,,,,,,,
,,,,,,,,,,,,,,,754,2022-01-19_22h06.06.766,multiplicationStroop,2021.2.3,Win32,59.86231667,,,,,left,1,0.5608,0,32,32,22,1,8,3,8 | 3,5,1.9756,1.4111,congruent,left,,,,,,stimulusFile/magnitude.xlsx,,,,,,,,,,,,,,,,,,,,,,,,,,,,,,,
,,,,,,,,,,,,,,,754,2022-01-19_22h06.06.766,multiplicationStroop,2021.2.3,Win32,59.86231667,,,,,right,0,0.587,0,33,33,28,1,2,1,2 | 1,1,1.4111,1.9756,incongruent,left,,,,,,stimulusFile/magnitude.xlsx,,,,,,,,,,,,,,,,,,,,,,,,,,,,,,,
,,,,,,,,,,,,,,,754,2022-01-19_22h06.06.766,multiplicationStroop,2021.2.3,Win32,59.86231667,,,,,right,1,0.6247,0,34,34,67,1,4,9,4 | 9,5,1.6933,1.6933,neutral,right,,,,,,stimulusFile/magnitude.xlsx,,,,,,,,,,,,,,,,,,,,,,,,,,,,,,,
,,,,,,,,,,,,,,,754,2022-01-19_22h06.06.766,multiplicationStroop,2021.2.3,Win32,59.86231667,,,,,left,1,0.5625,0,35,35,71,1,9,4,9 | 4,5,1.6933,1.6933,neutral,left,,,,,,stimulusFile/magnitude.xlsx,,,,,,,,,,,,,,,,,,,,,,,,,,,,,,,
,,,,,,,,,,,,,,,754,2022-01-19_22h06.06.766,multiplicationStroop,2021.2.3,Win32,59.86231667,,,,,right,1,0.5709,0,36,36,66,1,3,8,3 | 8,5,1.6933,1.6933,neutral,right,,,,,,stimulusFile/magnitude.xlsx,,,,,,,,,,,,,,,,,,,,,,,,,,,,,,,
,,,,,,,,,,,,,,,754,2022-01-19_22h06.06.766,multiplicationStroop,2021.2.3,Win32,59.86231667,,,,,left,0,0.5814,0,37,37,41,1,2,7,2 | 7,5,1.9756,1.4111,incongruent,right,,,,,,stimulusFile/magnitude.xlsx,,,,,,,,,,,,,,,,,,,,,,,,,,,,,,,
,,,,,,,,,,,,,,,754,2022-01-19_22h06.06.766,multiplicationStroop,2021.2.3,Win32,59.86231667,,,,,left,1,0.721,0,38,38,39,1,9,7,9 | 7,2,1.4111,1.9756,incongruent,left,,,,,,stimulusFile/magnitude.xlsx,,,,,,,,,,,,,,,,,,,,,,,,,,,,,,,
,,,,,,,,,,,,,,,754,2022-01-19_22h06.06.766,multiplicationStroop,2021.2.3,Win32,59.86231667,,,,,left,1,0.6473,0,39,39,21,1,7,2,7 | 2,5,1.9756,1.4111,congruent,left,,,,,,stimulusFile/magnitude.xlsx,,,,,,,,,,,,,,,,,,,,,,,,,,,,,,,
,,,,,,,,,,,,,,,754,2022-01-19_22h06.06.766,multiplicationStroop,2021.2.3,Win32,59.86231667,,,,,right,0,0.5837,0,40,40,31,1,9,8,9 | 8,1,1.4111,1.9756,incongruent,left,,,,,,stimulusFile/magnitude.xlsx,,,,,,,,,,,,,,,,,,,,,,,,,,,,,,,
,,,,,,,,,,,,,,,754,2022-01-19_22h06.06.766,multiplicationStroop,2021.2.3,Win32,59.86231667,,,,,left,1,0.6899,0,41,41,38,1,8,6,8 | 6,2,1.4111,1.9756,incongruent,left,,,,,,stimulusFile/magnitude.xlsx,,,,,,,,,,,,,,,,,,,,,,,,,,,,,,,
,,,,,,,,,,,,,,,754,2022-01-19_22h06.06.766,multiplicationStroop,2021.2.3,Win32,59.86231667,,,,,left,1,0.6613,0,42,42,46,1,8,3,8 | 3,5,1.4111,1.9756,incongruent,left,,,,,,stimulusFile/magnitude.xlsx,,,,,,,,,,,,,,,,,,,,,,,,,,,,,,,
,,,,,,,,,,,,,,,754,2022-01-19_22h06.06.766,multiplicationStroop,2021.2.3,Win32,59.86231667,,,,,right,1,0.8014,0,43,43,51,1,8,9,8 | 9,1,1.6933,1.6933,neutral,right,,,,,,stimulusFile/magnitude.xlsx,,,,,,,,,,,,,,,,,,,,,,,,,,,,,,,
,,,,,,,,,,,,,,,754,2022-01-19_22h06.06.766,multiplicationStroop,2021.2.3,Win32,59.86231667,,,,,right,1,0.7347,0,44,44,25,1,3,4,3 | 4,1,1.9756,1.4111,incongruent,right,,,,,,stimulusFile/magnitude.xlsx,,,,,,,,,,,,,,,,,,,,,,,,,,,,,,,
,,,,,,,,,,,,,,,754,2022-01-19_22h06.06.766,multiplicationStroop,2021.2.3,Win32,59.86231667,,,,,left,1,0.6003,0,45,45,69,1,7,2,7 | 2,5,1.6933,1.6933,neutral,left,,,,,,stimulusFile/magnitude.xlsx,,,,,,,,,,,,,,,,,,,,,,,,,,,,,,,
,,,,,,,,,,,,,,,754,2022-01-19_22h06.06.766,multiplicationStroop,2021.2.3,Win32,59.86231667,,,,,left,1,0.6886,0,46,46,53,1,4,3,4 | 3,1,1.6933,1.6933,neutral,left,,,,,,stimulusFile/magnitude.xlsx,,,,,,,,,,,,,,,,,,,,,,,,,,,,,,,
,,,,,,,,,,,,,,,754,2022-01-19_22h06.06.766,multiplicationStroop,2021.2.3,Win32,59.86231667,,,,,right,1,0.5591,0,47,47,43,1,4,9,4 | 9,5,1.9756,1.4111,incongruent,right,,,,,,stimulusFile/magnitude.xlsx,,,,,,,,,,,,,,,,,,,,,,,,,,,,,,,
,,,,,,,,,,,,,,,754,2022-01-19_22h06.06.766,multiplicationStroop,2021.2.3,Win32,59.86231667,,,,,right,1,0.6541,0,48,48,56,1,1,3,1 | 3,2,1.6933,1.6933,neutral,right,,,,,,stimulusFile/magnitude.xlsx,,,,,,,,,,,,,,,,,,,,,,,,,,,,,,,
,,,,,,,,,,,,,,,754,2022-01-19_22h06.06.766,multiplicationStroop,2021.2.3,Win32,59.86231667,,,,,left,0,0.5509,0,49,49,34,1,6,8,6 | 8,2,1.9756,1.4111,incongruent,right,,,,,,stimulusFile/magnitude.xlsx,,,,,,,,,,,,,,,,,,,,,,,,,,,,,,,
,,,,,,,,,,,,,,,754,2022-01-19_22h06.06.766,multiplicationStroop,2021.2.3,Win32,59.86231667,,,,,left,1,0.7514,0,50,50,30,1,7,6,7 | 6,1,1.4111,1.9756,incongruent,left,,,,,,stimulusFile/magnitude.xlsx,,,,,,,,,,,,,,,,,,,,,,,,,,,,,,,
,,,,,,,,,,,,,,,754,2022-01-19_22h06.06.766,multiplicationStroop,2021.2.3,Win32,59.86231667,,,,,left,1,0.6002,0,51,51,13,1,4,2,4 | 2,2,1.9756,1.4111,congruent,left,,,,,,stimulusFile/magnitude.xlsx,,,,,,,,,,,,,,,,,,,,,,,,,,,,,,,
,,,,,,,,,,,,,,,754,2022-01-19_22h06.06.766,multiplicationStroop,2021.2.3,Win32,59.86231667,,,,,right,1,0.5426,0,52,52,49,1,3,4,3 | 4,1,1.6933,1.6933,neutral,right,,,,,,stimulusFile/magnitude.xlsx,,,,,,,,,,,,,,,,,,,,,,,,,,,,,,,
,,,,,,,,,,,,,,,754,2022-01-19_22h06.06.766,multiplicationStroop,2021.2.3,Win32,59.86231667,,,,,left,1,0.585,0,53,53,4,1,2,1,2 | 1,1,1.9756,1.4111,congruent,left,,,,,,stimulusFile/magnitude.xlsx,,,,,,,,,,,,,,,,,,,,,,,,,,,,,,,
,,,,,,,,,,,,,,,754,2022-01-19_22h06.06.766,multiplicationStroop,2021.2.3,Win32,59.86231667,,,,,right,1,0.6011,0,54,54,10,1,6,8,6 | 8,2,1.4111,1.9756,congruent,right,,,,,,stimulusFile/magnitude.xlsx,,,,,,,,,,,,,,,,,,,,,,,,,,,,,,,
,,,,,,,,,,,,,,,754,2022-01-19_22h06.06.766,multiplicationStroop,2021.2.3,Win32,59.86231667,,,,,left,1,0.5435,0,55,55,15,1,9,7,9 | 7,2,1.9756,1.4111,congruent,left,,,,,,stimulusFile/magnitude.xlsx,,,,,,,,,,,,,,,,,,,,,,,,,,,,,,,
,,,,,,,,,,,,,,,754,2022-01-19_22h06.06.766,multiplicationStroop,2021.2.3,Win32,59.86231667,,,,,right,1,0.5528,0,56,56,24,1,1,2,1 | 2,1,1.9756,1.4111,incongruent,right,,,,,,stimulusFile/magnitude.xlsx,,,,,,,,,,,,,,,,,,,,,,,,,,,,,,,
,,,,,,,,,,,,,,,754,2022-01-19_22h06.06.766,multiplicationStroop,2021.2.3,Win32,59.86231667,,,,,left,1,0.5114,0,57,57,7,1,9,8,9 | 8,1,1.9756,1.4111,congruent,left,,,,,,stimulusFile/magnitude.xlsx,,,,,,,,,,,,,,,,,,,,,,,,,,,,,,,
,,,,,,,,,,,,,,,754,2022-01-19_22h06.06.766,multiplicationStroop,2021.2.3,Win32,59.86231667,,,,,right,1,0.5317,0,58,58,11,1,7,9,7 | 9,2,1.4111,1.9756,congruent,right,,,,,,stimulusFile/magnitude.xlsx,,,,,,,,,,,,,,,,,,,,,,,,,,,,,,,
,,,,,,,,,,,,,,,754,2022-01-19_22h06.06.766,multiplicationStroop,2021.2.3,Win32,59.86231667,,,,,right,1,0.5407,0,59,59,57,1,2,4,2 | 4,2,1.6933,1.6933,neutral,right,,,,,,stimulusFile/magnitude.xlsx,,,,,,,,,,,,,,,,,,,,,,,,,,,,,,,
,,,,,,,,,,,,,,,754,2022-01-19_22h06.06.766,multiplicationStroop,2021.2.3,Win32,59.86231667,,,,,left,0,0.4935,0,60,60,35,1,7,9,7 | 9,2,1.9756,1.4111,incongruent,right,,,,,,stimulusFile/magnitude.xlsx,,,,,,,,,,,,,,,,,,,,,,,,,,,,,,,
,,,,,,,,,,,,,,,754,2022-01-19_22h06.06.766,multiplicationStroop,2021.2.3,Win32,59.86231667,,,,,right,1,0.7678,0,61,61,0,1,1,2,1 | 2,1,1.4111,1.9756,congruent,right,,,,,,stimulusFile/magnitude.xlsx,,,,,,,,,,,,,,,,,,,,,,,,,,,,,,,
,,,,,,,,,,,,,,,754,2022-01-19_22h06.06.766,multiplicationStroop,2021.2.3,Win32,59.86231667,,,,,left,1,0.5651,0,62,62,61,1,4,2,4 | 2,2,1.6933,1.6933,neutral,left,,,,,,stimulusFile/magnitude.xlsx,,,,,,,,,,,,,,,,,,,,,,,,,,,,,,,
,,,,,,,,,,,,,,,754,2022-01-19_22h06.06.766,multiplicationStroop,2021.2.3,Win32,59.86231667,,,,,left,1,0.5406,0,63,63,44,1,6,1,6 | 1,5,1.4111,1.9756,incongruent,left,,,,,,stimulusFile/magnitude.xlsx,,,,,,,,,,,,,,,,,,,,,,,,,,,,,,,
,,,,,,,,,,,,,,,754,2022-01-19_22h06.06.766,multiplicationStroop,2021.2.3,Win32,59.86231667,,,,,left,1,0.6173,0,64,64,63,1,9,7,9 | 7,2,1.6933,1.6933,neutral,left,,,,,,stimulusFile/magnitude.xlsx,,,,,,,,,,,,,,,,,,,,,,,,,,,,,,,
,,,,,,,,,,,,,,,754,2022-01-19_22h06.06.766,multiplicationStroop,2021.2.3,Win32,59.86231667,,,,,right,1,0.5103,0,65,65,8,1,1,3,1 | 3,2,1.4111,1.9756,congruent,right,,,,,,stimulusFile/magnitude.xlsx,,,,,,,,,,,,,,,,,,,,,,,,,,,,,,,
,,,,,,,,,,,,,,,754,2022-01-19_22h06.06.766,multiplicationStroop,2021.2.3,Win32,59.86231667,,,,,left,1,0.5301,0,66,66,45,1,7,2,7 | 2,5,1.4111,1.9756,incongruent,left,,,,,,stimulusFile/magnitude.xlsx,,,,,,,,,,,,,,,,,,,,,,,,,,,,,,,
,,,,,,,,,,,,,,,754,2022-01-19_22h06.06.766,multiplicationStroop,2021.2.3,Win32,59.86231667,,,,,right,1,0.539,0,67,67,3,1,8,9,8 | 9,1,1.4111,1.9756,congruent,right,,,,,,stimulusFile/magnitude.xlsx,,,,,,,,,,,,,,,,,,,,,,,,,,,,,,,
,,,,,,,,,,,,,,,754,2022-01-19_22h06.06.766,multiplicationStroop,2021.2.3,Win32,59.86231667,,,,,right,1,0.5253,0,68,68,2,1,6,7,6 | 7,1,1.4111,1.9756,congruent,right,,,,,,stimulusFile/magnitude.xlsx,,,,,,,,,,,,,,,,,,,,,,,,,,,,,,,
,,,,,,,,,,,,,,,754,2022-01-19_22h06.06.766,multiplicationStroop,2021.2.3,Win32,59.86231667,,,,,right,1,0.497,0,69,69,16,1,1,6,1 | 6,5,1.4111,1.9756,congruent,right,,,,,,stimulusFile/magnitude.xlsx,,,,,,,,,,,,,,,,,,,,,,,,,,,,,,,
,,,,,,,,,,,,,,,754,2022-01-19_22h06.06.766,multiplicationStroop,2021.2.3,Win32,59.86231667,,,,,right,1,0.6161,0,70,70,58,1,6,8,6 | 8,2,1.6933,1.6933,neutral,right,,,,,,stimulusFile/magnitude.xlsx,,,,,,,,,,,,,,,,,,,,,,,,,,,,,,,
,,,,,,,,,,,,,,,754,2022-01-19_22h06.06.766,multiplicationStroop,2021.2.3,Win32,59.86231667,,,,,left,1,0.5756,0,71,71,36,1,3,1,3 | 1,2,1.4111,1.9756,incongruent,left,,,,,,stimulusFile/magnitude.xlsx,,,,,,,,,,,,,,,,,,,,,,,,,,,,,,,
,,,,,,,,,,,,,,,754,2022-01-19_22h06.06.766,multiplicationStroop,2021.2.3,Win32,59.86231667,,,,,,,,,,,,,,,,,,,,,0,0,0,0,1,stimulusFile/magnitude.xlsx,NUMERICALLY larger (larger coefficient).,images/numericallyLarger.png,,,,,,,,,,,,,,,,,,,,,,,,,,,,,
,,,,,,,,,,,,,,,754,2022-01-19_22h06.06.766,multiplicationStroop,2021.2.3,Win32,59.86231667,space,2.1059,space,3.156,right,1,0.6239,0,0,0,63,1,9,9,9 | 9,0,1.4111,1.9756,neutral,right,,,,,,stimulusFile/physical.xlsx,,,,,,,,,,,,,,,,,,,,,,,,,,,,,,,
,,,,,,,,,,,,,,,754,2022-01-19_22h06.06.766,multiplicationStroop,2021.2.3,Win32,59.86231667,,,,,right,1,0.5833,0,1,1,2,1,6,7,6 | 7,1,1.4111,1.9756,congruent,right,,,,,,stimulusFile/physical.xlsx,,,,,,,,,,,,,,,,,,,,,,,,,,,,,,,
,,,,,,,,,,,,,,,754,2022-01-19_22h06.06.766,multiplicationStroop,2021.2.3,Win32,59.86231667,,,,,left,1,0.4518,0,2,2,5,1,4,3,4 | 3,1,1.9756,1.4111,congruent,left,,,,,,stimulusFile/physical.xlsx,,,,,,,,,,,,,,,,,,,,,,,,,,,,,,,
,,,,,,,,,,,,,,,754,2022-01-19_22h06.06.766,multiplicationStroop,2021.2.3,Win32,59.86231667,,,,,right,1,0.4324,0,3,3,11,1,7,9,7 | 9,2,1.4111,1.9756,congruent,right,,,,,,stimulusFile/physical.xlsx,,,,,,,,,,,,,,,,,,,,,,,,,,,,,,,
,,,,,,,,,,,,,,,754,2022-01-19_22h06.06.766,multiplicationStroop,2021.2.3,Win32,59.86231667,,,,,left,1,0.4518,0,4,4,68,1,6,6,6 | 6,0,1.9756,1.4111,neutral,left,,,,,,stimulusFile/physical.xlsx,,,,,,,,,,,,,,,,,,,,,,,,,,,,,,,
,,,,,,,,,,,,,,,754,2022-01-19_22h06.06.766,multiplicationStroop,2021.2.3,Win32,59.86231667,,,,,left,1,0.4663,0,5,5,12,1,3,1,3 | 1,2,1.9756,1.4111,congruent,left,,,,,,stimulusFile/physical.xlsx,,,,,,,,,,,,,,,,,,,,,,,,,,,,,,,
,,,,,,,,,,,,,,,754,2022-01-19_22h06.06.766,multiplicationStroop,2021.2.3,Win32,59.86231667,,,,,left,1,0.4852,0,6,6,25,1,3,4,3 | 4,1,1.9756,1.4111,incongruent,left,,,,,,stimulusFile/physical.xlsx,,,,,,,,,,,,,,,,,,,,,,,,,,,,,,,
,,,,,,,,,,,,,,,754,2022-01-19_22h06.06.766,multiplicationStroop,2021.2.3,Win32,59.86231667,,,,,left,1,0.4548,0,7,7,20,1,6,1,6 | 1,5,1.9756,1.4111,congruent,left,,,,,,stimulusFile/physical.xlsx,,,,,,,,,,,,,,,,,,,,,,,,,,,,,,,
,,,,,,,,,,,,,,,754,2022-01-19_22h06.06.766,multiplicationStroop,2021.2.3,Win32,59.86231667,,,,,left,1,0.4347,0,8,8,32,1,1,3,1 | 3,2,1.9756,1.4111,incongruent,left,,,,,,stimulusFile/physical.xlsx,,,,,,,,,,,,,,,,,,,,,,,,,,,,,,,
,,,,,,,,,,,,,,,754,2022-01-19_22h06.06.766,multiplicationStroop,2021.2.3,Win32,59.86231667,,,,,right,1,0.4885,0,9,9,62,1,8,8,8 | 8,0,1.4111,1.9756,neutral,right,,,,,,stimulusFile/physical.xlsx,,,,,,,,,,,,,,,,,,,,,,,,,,,,,,,
,,,,,,,,,,,,,,,754,2022-01-19_22h06.06.766,multiplicationStroop,2021.2.3,Win32,59.86231667,,,,,left,1,0.4911,0,10,10,34,1,6,8,6 | 8,2,1.9756,1.4111,incongruent,left,,,,,,stimulusFile/physical.xlsx,,,,,,,,,,,,,,,,,,,,,,,,,,,,,,,
,,,,,,,,,,,,,,,754,2022-01-19_22h06.06.766,multiplicationStroop,2021.2.3,Win32,59.86231667,,,,,right,1,0.4714,0,11,11,39,1,9,7,9 | 7,2,1.4111,1.9756,incongruent,right,,,,,,stimulusFile/physical.xlsx,,,,,,,,,,,,,,,,,,,,,,,,,,,,,,,
,,,,,,,,,,,,,,,754,2022-01-19_22h06.06.766,multiplicationStroop,2021.2.3,Win32,59.86231667,,,,,left,0,0.4806,0,12,12,64,1,1,1,1 | 1,0,1.9756,1.4111,neutral,right,,,,,,stimulusFile/physical.xlsx,,,,,,,,,,,,,,,,,,,,,,,,,,,,,,,
,,,,,,,,,,,,,,,754,2022-01-19_22h06.06.766,multiplicationStroop,2021.2.3,Win32,59.86231667,,,,,left,1,0.5392,0,13,13,55,1,9,9,9 | 9,0,1.9756,1.4111,neutral,left,,,,,,stimulusFile/physical.xlsx,,,,,,,,,,,,,,,,,,,,,,,,,,,,,,,
,,,,,,,,,,,,,,,754,2022-01-19_22h06.06.766,multiplicationStroop,2021.2.3,Win32,59.86231667,,,,,left,0,0.4136,0,14,14,3,1,8,9,8 | 9,1,1.4111,1.9756,congruent,right,,,,,,stimulusFile/physical.xlsx,,,,,,,,,,,,,,,,,,,,,,,,,,,,,,,
,,,,,,,,,,,,,,,754,2022-01-19_22h06.06.766,multiplicationStroop,2021.2.3,Win32,59.86231667,,,,,left,1,0.505,0,15,15,23,1,9,4,9 | 4,5,1.9756,1.4111,congruent,left,,,,,,stimulusFile/physical.xlsx,,,,,,,,,,,,,,,,,,,,,,,,,,,,,,,
,,,,,,,,,,,,,,,754,2022-01-19_22h06.06.766,multiplicationStroop,2021.2.3,Win32,59.86231667,,,,,right,1,0.5257,0,16,16,56,1,1,1,1 | 1,0,1.4111,1.9756,neutral,right,,,,,,stimulusFile/physical.xlsx,,,,,,,,,,,,,,,,,,,,,,,,,,,,,,,
,,,,,,,,,,,,,,,754,2022-01-19_22h06.06.766,multiplicationStroop,2021.2.3,Win32,59.86231667,,,,,right,1,0.5337,0,17,17,10,1,6,8,6 | 8,2,1.4111,1.9756,congruent,right,,,,,,stimulusFile/physical.xlsx,,,,,,,,,,,,,,,,,,,,,,,,,,,,,,,
,,,,,,,,,,,,,,,754,2022-01-19_22h06.06.766,multiplicationStroop,2021.2.3,Win32,59.86231667,,,,,left,1,0.5043,0,18,18,48,1,1,1,1 | 1,0,1.9756,1.4111,neutral,left,,,,,,stimulusFile/physical.xlsx,,,,,,,,,,,,,,,,,,,,,,,,,,,,,,,
,,,,,,,,,,,,,,,754,2022-01-19_22h06.06.766,multiplicationStroop,2021.2.3,Win32,59.86231667,,,,,left,1,0.434,0,19,19,54,1,7,7,7 | 7,0,1.9756,1.4111,neutral,left,,,,,,stimulusFile/physical.xlsx,,,,,,,,,,,,,,,,,,,,,,,,,,,,,,,
,,,,,,,,,,,,,,,754,2022-01-19_22h06.06.766,multiplicationStroop,2021.2.3,Win32,59.86231667,,,,,right,1,0.4876,0,20,20,44,1,6,1,6 | 1,5,1.4111,1.9756,incongruent,right,,,,,,stimulusFile/physical.xlsx,,,,,,,,,,,,,,,,,,,,,,,,,,,,,,,
,,,,,,,,,,,,,,,754,2022-01-19_22h06.06.766,multiplicationStroop,2021.2.3,Win32,59.86231667,,,,,left,1,0.514,0,21,21,69,1,7,7,7 | 7,0,1.4111,1.9756,neutral,left,,,,,,stimulusFile/physical.xlsx,,,,,,,,,,,,,,,,,,,,,,,,,,,,,,,
,,,,,,,,,,,,,,,754,2022-01-19_22h06.06.766,multiplicationStroop,2021.2.3,Win32,59.86231667,,,,,left,1,0.5503,0,22,22,52,1,2,2,2 | 2,0,1.9756,1.4111,neutral,left,,,,,,stimulusFile/physical.xlsx,,,,,,,,,,,,,,,,,,,,,,,,,,,,,,,
,,,,,,,,,,,,,,,754,2022-01-19_22h06.06.766,multiplicationStroop,2021.2.3,Win32,59.86231667,,,,,left,1,0.5209,0,23,23,24,1,1,2,1 | 2,1,1.9756,1.4111,incongruent,left,,,,,,stimulusFile/physical.xlsx,,,,,,,,,,,,,,,,,,,,,,,,,,,,,,,
,,,,,,,,,,,,,,,754,2022-01-19_22h06.06.766,multiplicationStroop,2021.2.3,Win32,59.86231667,,,,,left,0,0.4899,0,24,24,57,1,2,2,2 | 2,0,1.4111,1.9756,neutral,right,,,,,,stimulusFile/physical.xlsx,,,,,,,,,,,,,,,,,,,,,,,,,,,,,,,
,,,,,,,,,,,,,,,754,2022-01-19_22h06.06.766,multiplicationStroop,2021.2.3,Win32,59.86231667,,,,,left,1,0.5602,0,25,25,14,1,8,6,8 | 6,2,1.9756,1.4111,congruent,left,,,,,,stimulusFile/physical.xlsx,,,,,,,,,,,,,,,,,,,,,,,,,,,,,,,
,,,,,,,,,,,,,,,754,2022-01-19_22h06.06.766,multiplicationStroop,2021.2.3,Win32,59.86231667,,,,,left,1,0.5639,0,26,26,4,1,2,1,2 | 1,1,1.9756,1.4111,congruent,left,,,,,,stimulusFile/physical.xlsx,,,,,,,,,,,,,,,,,,,,,,,,,,,,,,,
,,,,,,,,,,,,,,,754,2022-01-19_22h06.06.766,multiplicationStroop,2021.2.3,Win32,59.86231667,,,,,right,0,0.4384,0,27,27,71,1,9,9,9 | 9,0,1.4111,1.9756,neutral,left,,,,,,stimulusFile/physical.xlsx,,,,,,,,,,,,,,,,,,,,,,,,,,,,,,,
,,,,,,,,,,,,,,,754,2022-01-19_22h06.06.766,multiplicationStroop,2021.2.3,Win32,59.86231667,,,,,right,1,0.4355,0,28,28,67,1,4,4,4 | 4,0,1.4111,1.9756,neutral,right,,,,,,stimulusFile/physical.xlsx,,,,,,,,,,,,,,,,,,,,,,,,,,,,,,,
,,,,,,,,,,,,,,,754,2022-01-19_22h06.06.766,multiplicationStroop,2021.2.3,Win32,59.86231667,,,,,right,1,0.4323,0,29,29,59,1,7,7,7 | 7,0,1.4111,1.9756,neutral,right,,,,,,stimulusFile/physical.xlsx,,,,,,,,,,,,,,,,,,,,,,,,,,,,,,,
,,,,,,,,,,,,,,,754,2022-01-19_22h06.06.766,multiplicationStroop,2021.2.3,Win32,59.86231667,,,,,left,1,0.5417,0,30,30,42,1,3,8,3 | 8,5,1.9756,1.4111,incongruent,left,,,,,,stimulusFile/physical.xlsx,,,,,,,,,,,,,,,,,,,,,,,,,,,,,,,
,,,,,,,,,,,,,,,754,2022-01-19_22h06.06.766,multiplicationStroop,2021.2.3,Win32,59.86231667,,,,,right,1,0.4722,0,31,31,30,1,7,6,7 | 6,1,1.4111,1.9756,incongruent,right,,,,,,stimulusFile/physical.xlsx,,,,,,,,,,,,,,,,,,,,,,,,,,,,,,,
,,,,,,,,,,,,,,,754,2022-01-19_22h06.06.766,multiplicationStroop,2021.2.3,Win32,59.86231667,,,,,right,1,0.4918,0,32,32,61,1,4,4,4 | 4,0,1.4111,1.9756,neutral,right,,,,,,stimulusFile/physical.xlsx,,,,,,,,,,,,,,,,,,,,,,,,,,,,,,,
,,,,,,,,,,,,,,,754,2022-01-19_22h06.06.766,multiplicationStroop,2021.2.3,Win32,59.86231667,,,,,right,1,0.4612,0,33,33,47,1,9,4,9 | 4,5,1.4111,1.9756,incongruent,right,,,,,,stimulusFile/physical.xlsx,,,,,,,,,,,,,,,,,,,,,,,,,,,,,,,
,,,,,,,,,,,,,,,754,2022-01-19_22h06.06.766,multiplicationStroop,2021.2.3,Win32,59.86231667,,,,,right,1,0.4301,0,34,34,37,1,4,2,4 | 2,2,1.4111,1.9756,incongruent,right,,,,,,stimulusFile/physical.xlsx,,,,,,,,,,,,,,,,,,,,,,,,,,,,,,,
,,,,,,,,,,,,,,,754,2022-01-19_22h06.06.766,multiplicationStroop,2021.2.3,Win32,59.86231667,,,,,right,1,0.3591,0,35,35,29,1,4,3,4 | 3,1,1.4111,1.9756,incongruent,right,,,,,,stimulusFile/physical.xlsx,,,,,,,,,,,,,,,,,,,,,,,,,,,,,,,
,,,,,,,,,,,,,,,754,2022-01-19_22h06.06.766,multiplicationStroop,2021.2.3,Win32,59.86231667,,,,,left,1,0.5742,0,36,36,33,1,2,4,2 | 4,2,1.9756,1.4111,incongruent,left,,,,,,stimulusFile/physical.xlsx,,,,,,,,,,,,,,,,,,,,,,,,,,,,,,,
,,,,,,,,,,,,,,,754,2022-01-19_22h06.06.766,multiplicationStroop,2021.2.3,Win32,59.86231667,,,,,left,0,0.4611,0,37,37,28,1,2,1,2 | 1,1,1.4111,1.9756,incongruent,right,,,,,,stimulusFile/physical.xlsx,,,,,,,,,,,,,,,,,,,,,,,,,,,,,,,
,,,,,,,,,,,,,,,754,2022-01-19_22h06.06.766,multiplicationStroop,2021.2.3,Win32,59.86231667,,,,,right,1,0.6205,0,38,38,46,1,8,3,8 | 3,5,1.4111,1.9756,incongruent,right,,,,,,stimulusFile/physical.xlsx,,,,,,,,,,,,,,,,,,,,,,,,,,,,,,,
,,,,,,,,,,,,,,,754,2022-01-19_22h06.06.766,multiplicationStroop,2021.2.3,Win32,59.86231667,,,,,left,1,0.4675,0,39,39,22,1,8,3,8 | 3,5,1.9756,1.4111,congruent,left,,,,,,stimulusFile/physical.xlsx,,,,,,,,,,,,,,,,,,,,,,,,,,,,,,,
,,,,,,,,,,,,,,,754,2022-01-19_22h06.06.766,multiplicationStroop,2021.2.3,Win32,59.86231667,,,,,left,1,0.4308,0,40,40,51,1,8,8,8 | 8,0,1.9756,1.4111,neutral,left,,,,,,stimulusFile/physical.xlsx,,,,,,,,,,,,,,,,,,,,,,,,,,,,,,,
,,,,,,,,,,,,,,,754,2022-01-19_22h06.06.766,multiplicationStroop,2021.2.3,Win32,59.86231667,,,,,right,1,0.4837,0,41,41,65,1,2,2,2 | 2,0,1.4111,1.9756,neutral,right,,,,,,stimulusFile/physical.xlsx,,,,,,,,,,,,,,,,,,,,,,,,,,,,,,,
,,,,,,,,,,,,,,,754,2022-01-19_22h06.06.766,multiplicationStroop,2021.2.3,Win32,59.86231667,,,,,right,0,0.4306,0,42,42,53,1,4,4,4 | 4,0,1.9756,1.4111,neutral,left,,,,,,stimulusFile/physical.xlsx,,,,,,,,,,,,,,,,,,,,,,,,,,,,,,,
,,,,,,,,,,,,,,,754,2022-01-19_22h06.06.766,multiplicationStroop,2021.2.3,Win32,59.86231667,,,,,left,1,0.7756,0,43,43,27,1,8,9,8 | 9,1,1.9756,1.4111,incongruent,left,,,,,,stimulusFile/physical.xlsx,,,,,,,,,,,,,,,,,,,,,,,,,,,,,,,
,,,,,,,,,,,,,,,754,2022-01-19_22h06.06.766,multiplicationStroop,2021.2.3,Win32,59.86231667,,,,,right,1,0.5523,0,44,44,45,1,7,2,7 | 2,5,1.4111,1.9756,incongruent,right,,,,,,stimulusFile/physical.xlsx,,,,,,,,,,,,,,,,,,,,,,,,,,,,,,,
,,,,,,,,,,,,,,,754,2022-01-19_22h06.06.766,multiplicationStroop,2021.2.3,Win32,59.86231667,,,,,left,1,0.4875,0,45,45,15,1,9,7,9 | 7,2,1.9756,1.4111,congruent,left,,,,,,stimulusFile/physical.xlsx,,,,,,,,,,,,,,,,,,,,,,,,,,,,,,,
,,,,,,,,,,,,,,,754,2022-01-19_22h06.06.766,multiplicationStroop,2021.2.3,Win32,59.86231667,,,,,right,1,0.5241,0,46,46,19,1,4,9,4 | 9,5,1.4111,1.9756,congruent,right,,,,,,stimulusFile/physical.xlsx,,,,,,,,,,,,,,,,,,,,,,,,,,,,,,,
,,,,,,,,,,,,,,,754,2022-01-19_22h06.06.766,multiplicationStroop,2021.2.3,Win32,59.86231667,,,,,right,1,0.5168,0,47,47,16,1,1,6,1 | 6,5,1.4111,1.9756,congruent,right,,,,,,stimulusFile/physical.xlsx,,,,,,,,,,,,,,,,,,,,,,,,,,,,,,,
,,,,,,,,,,,,,,,754,2022-01-19_22h06.06.766,multiplicationStroop,2021.2.3,Win32,59.86231667,,,,,right,1,0.7811,0,48,48,38,1,8,6,8 | 6,2,1.4111,1.9756,incongruent,right,,,,,,stimulusFile/physical.xlsx,,,,,,,,,,,,,,,,,,,,,,,,,,,,,,,
,,,,,,,,,,,,,,,754,2022-01-19_22h06.06.766,multiplicationStroop,2021.2.3,Win32,59.86231667,,,,,left,1,0.8761,0,49,49,13,1,4,2,4 | 2,2,1.9756,1.4111,congruent,left,,,,,,stimulusFile/physical.xlsx,,,,,,,,,,,,,,,,,,,,,,,,,,,,,,,
,,,,,,,,,,,,,,,754,2022-01-19_22h06.06.766,multiplicationStroop,2021.2.3,Win32,59.86231667,,,,,left,1,0.4978,0,50,50,41,1,2,7,2 | 7,5,1.9756,1.4111,incongruent,left,,,,,,stimulusFile/physical.xlsx,,,,,,,,,,,,,,,,,,,,,,,,,,,,,,,
,,,,,,,,,,,,,,,754,2022-01-19_22h06.06.766,multiplicationStroop,2021.2.3,Win32,59.86231667,,,,,right,1,0.6274,0,51,51,36,1,3,1,3 | 1,2,1.4111,1.9756,incongruent,right,,,,,,stimulusFile/physical.xlsx,,,,,,,,,,,,,,,,,,,,,,,,,,,,,,,
,,,,,,,,,,,,,,,754,2022-01-19_22h06.06.766,multiplicationStroop,2021.2.3,Win32,59.86231667,,,,,left,1,0.5195,0,52,52,40,1,1,6,1 | 6,5,1.9756,1.4111,incongruent,left,,,,,,stimulusFile/physical.xlsx,,,,,,,,,,,,,,,,,,,,,,,,,,,,,,,
,,,,,,,,,,,,,,,754,2022-01-19_22h06.06.766,multiplicationStroop,2021.2.3,Win32,59.86231667,,,,,left,1,0.4668,0,53,53,26,1,6,7,6 | 7,1,1.9756,1.4111,incongruent,left,,,,,,stimulusFile/physical.xlsx,,,,,,,,,,,,,,,,,,,,,,,,,,,,,,,
,,,,,,,,,,,,,,,754,2022-01-19_22h06.06.766,multiplicationStroop,2021.2.3,Win32,59.86231667,,,,,left,1,0.5085,0,54,54,35,1,7,9,7 | 9,2,1.9756,1.4111,incongruent,left,,,,,,stimulusFile/physical.xlsx,,,,,,,,,,,,,,,,,,,,,,,,,,,,,,,
,,,,,,,,,,,,,,,754,2022-01-19_22h06.06.766,multiplicationStroop,2021.2.3,Win32,59.86231667,,,,,right,1,0.4847,0,55,55,60,1,3,3,3 | 3,0,1.4111,1.9756,neutral,right,,,,,,stimulusFile/physical.xlsx,,,,,,,,,,,,,,,,,,,,,,,,,,,,,,,
,,,,,,,,,,,,,,,754,2022-01-19_22h06.06.766,multiplicationStroop,2021.2.3,Win32,59.86231667,,,,,left,1,0.4981,0,56,56,49,1,3,3,3 | 3,0,1.9756,1.4111,neutral,left,,,,,,stimulusFile/physical.xlsx,,,,,,,,,,,,,,,,,,,,,,,,,,,,,,,
,,,,,,,,,,,,,,,754,2022-01-19_22h06.06.766,multiplicationStroop,2021.2.3,Win32,59.86231667,,,,,right,1,0.5408,0,57,57,8,1,1,3,1 | 3,2,1.4111,1.9756,congruent,right,,,,,,stimulusFile/physical.xlsx,,,,,,,,,,,,,,,,,,,,,,,,,,,,,,,
,,,,,,,,,,,,,,,754,2022-01-19_22h06.06.766,multiplicationStroop,2021.2.3,Win32,59.86231667,,,,,right,1,0.6174,0,58,58,1,1,3,4,3 | 4,1,1.4111,1.9756,congruent,right,,,,,,stimulusFile/physical.xlsx,,,,,,,,,,,,,,,,,,,,,,,,,,,,,,,
,,,,,,,,,,,,,,,754,2022-01-19_22h06.06.766,multiplicationStroop,2021.2.3,Win32,59.86231667,,,,,left,1,0.5427,0,59,59,6,1,7,6,7 | 6,1,1.9756,1.4111,congruent,left,,,,,,stimulusFile/physical.xlsx,,,,,,,,,,,,,,,,,,,,,,,,,,,,,,,
,,,,,,,,,,,,,,,754,2022-01-19_22h06.06.766,multiplicationStroop,2021.2.3,Win32,59.86231667,,,,,right,1,0.497,0,60,60,0,1,1,2,1 | 2,1,1.4111,1.9756,congruent,right,,,,,,stimulusFile/physical.xlsx,,,,,,,,,,,,,,,,,,,,,,,,,,,,,,,
,,,,,,,,,,,,,,,754,2022-01-19_22h06.06.766,multiplicationStroop,2021.2.3,Win32,59.86231667,,,,,left,0,0.4823,0,61,61,66,1,3,3,3 | 3,0,1.9756,1.4111,neutral,right,,,,,,stimulusFile/physical.xlsx,,,,,,,,,,,,,,,,,,,,,,,,,,,,,,,
,,,,,,,,,,,,,,,754,2022-01-19_22h06.06.766,multiplicationStroop,2021.2.3,Win32,59.86231667,,,,,right,1,0.4342,0,62,62,17,1,2,7,2 | 7,5,1.4111,1.9756,congruent,right,,,,,,stimulusFile/physical.xlsx,,,,,,,,,,,,,,,,,,,,,,,,,,,,,,,
,,,,,,,,,,,,,,,754,2022-01-19_22h06.06.766,multiplicationStroop,2021.2.3,Win32,59.86231667,,,,,right,1,0.9209,0,63,63,9,1,2,4,2 | 4,2,1.4111,1.9756,congruent,right,,,,,,stimulusFile/physical.xlsx,,,,,,,,,,,,,,,,,,,,,,,,,,,,,,,
,,,,,,,,,,,,,,,754,2022-01-19_22h06.06.766,multiplicationStroop,2021.2.3,Win32,59.86231667,,,,,right,1,0.5474,0,64,64,18,1,3,8,3 | 8,5,1.4111,1.9756,congruent,right,,,,,,stimulusFile/physical.xlsx,,,,,,,,,,,,,,,,,,,,,,,,,,,,,,,
,,,,,,,,,,,,,,,754,2022-01-19_22h06.06.766,multiplicationStroop,2021.2.3,Win32,59.86231667,,,,,left,1,0.5973,0,65,65,50,1,6,6,6 | 6,0,1.9756,1.4111,neutral,left,,,,,,stimulusFile/physical.xlsx,,,,,,,,,,,,,,,,,,,,,,,,,,,,,,,
,,,,,,,,,,,,,,,754,2022-01-19_22h06.06.766,multiplicationStroop,2021.2.3,Win32,59.86231667,,,,,right,1,0.5035,0,66,66,58,1,6,6,6 | 6,0,1.4111,1.9756,neutral,right,,,,,,stimulusFile/physical.xlsx,,,,,,,,,,,,,,,,,,,,,,,,,,,,,,,
,,,,,,,,,,,,,,,754,2022-01-19_22h06.06.766,multiplicationStroop,2021.2.3,Win32,59.86231667,,,,,left,1,0.5829,0,67,67,7,1,9,8,9 | 8,1,1.9756,1.4111,congruent,left,,,,,,stimulusFile/physical.xlsx,,,,,,,,,,,,,,,,,,,,,,,,,,,,,,,
,,,,,,,,,,,,,,,754,2022-01-19_22h06.06.766,multiplicationStroop,2021.2.3,Win32,59.86231667,,,,,left,1,0.5058,0,68,68,70,1,8,8,8 | 8,0,1.9756,1.4111,neutral,left,,,,,,stimulusFile/physical.xlsx,,,,,,,,,,,,,,,,,,,,,,,,,,,,,,,
,,,,,,,,,,,,,,,754,2022-01-19_22h06.06.766,multiplicationStroop,2021.2.3,Win32,59.86231667,,,,,right,1,0.5707,0,69,69,31,1,9,8,9 | 8,1,1.4111,1.9756,incongruent,right,,,,,,stimulusFile/physical.xlsx,,,,,,,,,,,,,,,,,,,,,,,,,,,,,,,
,,,,,,,,,,,,,,,754,2022-01-19_22h06.06.766,multiplicationStroop,2021.2.3,Win32,59.86231667,,,,,left,1,0.558,0,70,70,43,1,4,9,4 | 9,5,1.9756,1.4111,incongruent,left,,,,,,stimulusFile/physical.xlsx,,,,,,,,,,,,,,,,,,,,,,,,,,,,,,,
,,,,,,,,,,,,,,,754,2022-01-19_22h06.06.766,multiplicationStroop,2021.2.3,Win32,59.86231667,,,,,right,0,0.4708,0,71,71,21,1,7,2,7 | 2,5,1.9756,1.4111,congruent,left,,,,,,stimulusFile/physical.xlsx,,,,,,,,,,,,,,,,,,,,,,,,,,,,,,,
,,,,,,,,,,,,,,,754,2022-01-19_22h06.06.766,multiplicationStroop,2021.2.3,Win32,59.86231667,,,,,,,,,,,,,,,,,,,,,0,1,1,1,1,stimulusFile/physical.xlsx,PHYSICALLY larger (larger font size).,images/physicallyLarger.png,,,,,,,,,,,,,,,,,,,,,,,,,,,,,
,,,,,,,,,,,,,,,754,2022-01-19_22h06.06.766,multiplicationStroop,2021.2.3,Win32,59.86231667,,,,,,,,,,,,,,,,,,,,,,,,,,,,,space,5.2642,space,1.4159,36,2.7716,1,0,0,0,32,1,6,×,6,6 × 6,neutral,tie,1,2,36,,,,,,,,
,,,,,,,,,,,,,,,754,2022-01-19_22h06.06.766,multiplicationStroop,2021.2.3,Win32,59.86231667,,,,,,,,,,,,,,,,,,,,,,,,,,,,,,,,,49,2.1842,1,0,1,1,33,1,7,×,7,7 × 7,neutral,tie,1,2,49,,,,,,,,
,,,,,,,,,,,,,,,754,2022-01-19_22h06.06.766,multiplicationStroop,2021.2.3,Win32,59.86231667,,,,,,,,,,,,,,,,,,,,,,,,,,,,,,,,,40,3.2525,1,0,2,2,20,1,8,×,5,8 × 5,congruent,largerFirst,2,1,40,,,,,,,,
,,,,,,,,,,,,,,,754,2022-01-19_22h06.06.766,multiplicationStroop,2021.2.3,Win32,59.86231667,,,,,,,,,,,,,,,,,,,,,,,,,,,,,,,,,12,1.5767,1,0,3,3,5,1,2,×,6,2 × 6,congruent,smallerFirst,1,2,12,,,,,,,,
,,,,,,,,,,,,,,,754,2022-01-19_22h06.06.766,multiplicationStroop,2021.2.3,Win32,59.86231667,,,,,,,,,,,,,,,,,,,,,,,,,,,,,,,,,18,2.7688,1,0,4,4,8,1,2,×,9,2 × 9,congruent,smallerFirst,1,2,18,,,,,,,,
,,,,,,,,,,,,,,,754,2022-01-19_22h06.06.766,multiplicationStroop,2021.2.3,Win32,59.86231667,,,,,,,,,,,,,,,,,,,,,,,,,,,,,,,,,16,1.6509,1,0,5,5,30,1,4,×,4,4 × 4,neutral,tie,1,2,16,,,,,,,,
,,,,,,,,,,,,,,,754,2022-01-19_22h06.06.766,multiplicationStroop,2021.2.3,Win32,59.86231667,,,,,,,,,,,,,,,,,,,,,,,,,,,,,,,,,21,1.3176,1,0,6,6,2,1,3,×,7,3 × 7,congruent,smallerFirst,1,2,21,,,,,,,,
,,,,,,,,,,,,,,,754,2022-01-19_22h06.06.766,multiplicationStroop,2021.2.3,Win32,59.86231667,,,,,,,,,,,,,,,,,,,,,,,,,,,,,,,,,56,1.7509,1,0,7,7,22,1,8,×,7,8 × 7,congruent,largerFirst,2,1,56,,,,,,,,
,,,,,,,,,,,,,,,754,2022-01-19_22h06.06.766,multiplicationStroop,2021.2.3,Win32,59.86231667,,,,,,,,,,,,,,,,,,,,,,,,,,,,,,,,,27,1.5175,1,0,8,8,12,1,3,×,9,3 × 9,congruent,smallerFirst,1,2,27,,,,,,,,
,,,,,,,,,,,,,,,754,2022-01-19_22h06.06.766,multiplicationStroop,2021.2.3,Win32,59.86231667,,,,,,,,,,,,,,,,,,,,,,,,,,,,,,,,,10,1.3842,1,0,9,9,10,1,2,×,5,2 × 5,congruent,smallerFirst,1,2,10,,,,,,,,
,,,,,,,,,,,,,,,754,2022-01-19_22h06.06.766,multiplicationStroop,2021.2.3,Win32,59.86231667,,,,,,,,,,,,,,,,,,,,,,,,,,,,,,,,,63,1.8012,0,0,10,10,34,1,8,×,8,8 × 8,neutral,tie,1,2,64,,,,,,,,
,,,,,,,,,,,,,,,754,2022-01-19_22h06.06.766,multiplicationStroop,2021.2.3,Win32,59.86231667,,,,,,,,,,,,,,,,,,,,,,,,,,,,,,,,,12,1.2507,1,0,11,11,16,1,4,×,3,4 × 3,congruent,largerFirst,2,1,12,,,,,,,,
,,,,,,,,,,,,,,,754,2022-01-19_22h06.06.766,multiplicationStroop,2021.2.3,Win32,59.86231667,,,,,,,,,,,,,,,,,,,,,,,,,,,,,,,,,20,1.5011,1,0,12,12,21,1,5,×,4,5 × 4,congruent,largerFirst,2,1,20,,,,,,,,
,,,,,,,,,,,,,,,754,2022-01-19_22h06.06.766,multiplicationStroop,2021.2.3,Win32,59.86231667,,,,,,,,,,,,,,,,,,,,,,,,,,,,,,,,,36,3.1025,1,0,13,13,14,1,9,×,4,9 × 4,congruent,largerFirst,2,1,36,,,,,,,,
,,,,,,,,,,,,,,,754,2022-01-19_22h06.06.766,multiplicationStroop,2021.2.3,Win32,59.86231667,,,,,,,,,,,,,,,,,,,,,,,,,,,,,,,,,6,1.393,1,0,14,14,27,1,3,×,2,3 × 2,congruent,largerFirst,2,1,6,,,,,,,,
,,,,,,,,,,,,,,,754,2022-01-19_22h06.06.766,multiplicationStroop,2021.2.3,Win32,59.86231667,,,,,,,,,,,,,,,,,,,,,,,,,,,,,,,,,63,2.602,1,0,15,15,7,1,7,×,9,7 × 9,congruent,smallerFirst,1,2,63,,,,,,,,
,,,,,,,,,,,,,,,754,2022-01-19_22h06.06.766,multiplicationStroop,2021.2.3,Win32,59.86231667,,,,,,,,,,,,,,,,,,,,,,,,,,,,,,,,,72,1.7432,1,0,16,16,3,1,8,×,9,8 × 9,congruent,smallerFirst,1,2,72,,,,,,,,
,,,,,,,,,,,,,,,754,2022-01-19_22h06.06.766,multiplicationStroop,2021.2.3,Win32,59.86231667,,,,,,,,,,,,,,,,,,,,,,,,,,,,,,,,,35,2.068,1,0,17,17,15,1,7,×,5,7 × 5,congruent,largerFirst,2,1,35,,,,,,,,
,,,,,,,,,,,,,,,754,2022-01-19_22h06.06.766,multiplicationStroop,2021.2.3,Win32,59.86231667,,,,,,,,,,,,,,,,,,,,,,,,,,,,,,,,,54,3.4198,1,0,18,18,26,1,9,×,6,9 × 6,congruent,largerFirst,2,1,54,,,,,,,,
,,,,,,,,,,,,,,,754,2022-01-19_22h06.06.766,multiplicationStroop,2021.2.3,Win32,59.86231667,,,,,,,,,,,,,,,,,,,,,,,,,,,,,,,,,16,1.651,1,0,19,19,19,1,8,×,2,8 × 2,congruent,largerFirst,2,1,16,,,,,,,,
,,,,,,,,,,,,,,,754,2022-01-19_22h06.06.766,multiplicationStroop,2021.2.3,Win32,59.86231667,,,,,,,,,,,,,,,,,,,,,,,,,,,,,,,,,15,1.868,1,0,20,20,18,1,5,×,3,5 × 3,congruent,largerFirst,2,1,15,,,,,,,,
,,,,,,,,,,,,,,,754,2022-01-19_22h06.06.766,multiplicationStroop,2021.2.3,Win32,59.86231667,,,,,,,,,,,,,,,,,,,,,,,,,,,,,,,,,81,1.6512,1,0,21,21,35,1,9,×,9,9 × 9,neutral,tie,1,2,81,,,,,,,,
,,,,,,,,,,,,,,,754,2022-01-19_22h06.06.766,multiplicationStroop,2021.2.3,Win32,59.86231667,,,,,,,,,,,,,,,,,,,,,,,,,,,,,,,,,30,1.8012,1,0,22,22,1,1,5,×,6,5 × 6,congruent,smallerFirst,1,2,30,,,,,,,,
,,,,,,,,,,,,,,,754,2022-01-19_22h06.06.766,multiplicationStroop,2021.2.3,Win32,59.86231667,,,,,,,,,,,,,,,,,,,,,,,,,,,,,,,,,42,1.5675,1,0,23,23,17,1,7,×,6,7 × 6,congruent,largerFirst,2,1,42,,,,,,,,
,,,,,,,,,,,,,,,754,2022-01-19_22h06.06.766,multiplicationStroop,2021.2.3,Win32,59.86231667,,,,,,,,,,,,,,,,,,,,,,,,,,,,,,,,,9,1.4509,1,0,24,24,29,1,3,×,3,3 × 3,neutral,tie,1,2,9,,,,,,,,
,,,,,,,,,,,,,,,754,2022-01-19_22h06.06.766,multiplicationStroop,2021.2.3,Win32,59.86231667,,,,,,,,,,,,,,,,,,,,,,,,,,,,,,,,,8,1.5008,1,0,25,25,23,1,4,×,2,4 × 2,congruent,largerFirst,2,1,8,,,,,,,,
,,,,,,,,,,,,,,,754,2022-01-19_22h06.06.766,multiplicationStroop,2021.2.3,Win32,59.86231667,,,,,,,,,,,,,,,,,,,,,,,,,,,,,,,,,4,1.2841,1,0,26,26,28,1,2,×,2,2 × 2,neutral,tie,1,2,4,,,,,,,,
,,,,,,,,,,,,,,,754,2022-01-19_22h06.06.766,multiplicationStroop,2021.2.3,Win32,59.86231667,,,,,,,,,,,,,,,,,,,,,,,,,,,,,,,,,24,1.2507,1,0,27,27,11,1,4,×,6,4 × 6,congruent,smallerFirst,1,2,24,,,,,,,,
,,,,,,,,,,,,,,,754,2022-01-19_22h06.06.766,multiplicationStroop,2021.2.3,Win32,59.86231667,,,,,,,,,,,,,,,,,,,,,,,,,,,,,,,,,32,1.634,1,0,28,28,6,1,4,×,8,4 × 8,congruent,smallerFirst,1,2,32,,,,,,,,
,,,,,,,,,,,,,,,754,2022-01-19_22h06.06.766,multiplicationStroop,2021.2.3,Win32,59.86231667,,,,,,,,,,,,,,,,,,,,,,,,,,,,,,,,,28,1.3676,1,0,29,29,13,1,4,×,7,4 × 7,congruent,smallerFirst,1,2,28,,,,,,,,
,,,,,,,,,,,,,,,754,2022-01-19_22h06.06.766,multiplicationStroop,2021.2.3,Win32,59.86231667,,,,,,,,,,,,,,,,,,,,,,,,,,,,,,,,,18,1.601,1,0,30,30,25,1,6,×,3,6 × 3,congruent,largerFirst,2,1,18,,,,,,,,
,,,,,,,,,,,,,,,754,2022-01-19_22h06.06.766,multiplicationStroop,2021.2.3,Win32,59.86231667,,,,,,,,,,,,,,,,,,,,,,,,,,,,,,,,,48,2.6688,1,0,31,31,4,1,6,×,8,6 × 8,congruent,smallerFirst,1,2,48,,,,,,,,
,,,,,,,,,,,,,,,754,2022-01-19_22h06.06.766,multiplicationStroop,2021.2.3,Win32,59.86231667,,,,,,,,,,,,,,,,,,,,,,,,,,,,,,,,,45,1.7344,1,0,32,32,9,1,5,×,9,5 × 9,congruent,smallerFirst,1,2,45,,,,,,,,
,,,,,,,,,,,,,,,754,2022-01-19_22h06.06.766,multiplicationStroop,2021.2.3,Win32,59.86231667,,,,,,,,,,,,,,,,,,,,,,,,,,,,,,,,,24,1.284,1,0,33,33,24,1,8,×,3,8 × 3,congruent,largerFirst,2,1,24,,,,,,,,
,,,,,,,,,,,,,,,754,2022-01-19_22h06.06.766,multiplicationStroop,2021.2.3,Win32,59.86231667,,,,,,,,,,,,,,,,,,,,,,,,,,,,,,,,,14,2.6189,1,0,34,34,0,1,2,×,7,2 × 7,congruent,smallerFirst,1,2,14,,,,,,,,
,,,,,,,,,,,,,,,754,2022-01-19_22h06.06.766,multiplicationStroop,2021.2.3,Win32,59.86231667,,,,,,,,,,,,,,,,,,,,,,,,,,,,,,,,,25,2.427,1,0,35,35,31,1,5,×,5,5 × 5,neutral,tie,1,2,25,,,,,,,,
,,,,,,,,,,,,,,,754,2022-01-19_22h06.06.766,multiplicationStroop,2021.2.3,Win32,59.86231667,,,,,,,,,,,,,,,,,,,,,,,,,,,,,,,,,,,,,,,,,,,,,,,,,,0,0,0,3,1,stimulusFile/mult_blk4_congruent.xlsx,,
,,,,,,,,,,,,,,,754,2022-01-19_22h06.06.766,multiplicationStroop,2021.2.3,Win32,59.86231667,,,,,,,,,,,,,,,,,,,,,,,,,,,,,,,space,1.0768,30,1.3728,1,0,0,0,5,1,5,×,6,5 × 6,neutral,smallerFirst,1.5,1.5,30,,,,,,,,
,,,,,,,,,,,,,,,754,2022-01-19_22h06.06.766,multiplicationStroop,2021.2.3,Win32,59.86231667,,,,,,,,,,,,,,,,,,,,,,,,,,,,,,,,,72,1.5668,1,0,1,1,25,1,9,×,8,9 × 8,neutral,largerFirst,1.5,1.5,72,,,,,,,,
,,,,,,,,,,,,,,,754,2022-01-19_22h06.06.766,multiplicationStroop,2021.2.3,Win32,59.86231667,,,,,,,,,,,,,,,,,,,,,,,,,,,,,,,,,2,1.6845,0,0,2,2,7,1,3,×,4,3 × 4,neutral,smallerFirst,1.5,1.5,12,,,,,,,,
,,,,,,,,,,,,,,,754,2022-01-19_22h06.06.766,multiplicationStroop,2021.2.3,Win32,59.86231667,,,,,,,,,,,,,,,,,,,,,,,,,,,,,,,,,8,1.3676,1,0,3,3,17,1,4,×,2,4 × 2,neutral,largerFirst,1.5,1.5,8,,,,,,,,
,,,,,,,,,,,,,,,754,2022-01-19_22h06.06.766,multiplicationStroop,2021.2.3,Win32,59.86231667,,,,,,,,,,,,,,,,,,,,,,,,,,,,,,,,,40,1.5174,1,0,4,4,10,1,5,×,8,5 × 8,neutral,smallerFirst,1.5,1.5,40,,,,,,,,
,,,,,,,,,,,,,,,754,2022-01-19_22h06.06.766,multiplicationStroop,2021.2.3,Win32,59.86231667,,,,,,,,,,,,,,,,,,,,,,,,,,,,,,,,,4,1.3009,1,0,5,5,28,1,2,×,2,2 × 2,neutral,tie,1.5,1.5,4,,,,,,,,
,,,,,,,,,,,,,,,754,2022-01-19_22h06.06.766,multiplicationStroop,2021.2.3,Win32,59.86231667,,,,,,,,,,,,,,,,,,,,,,,,,,,,,,,,,64,2.201,1,0,6,6,34,1,8,×,8,8 × 8,neutral,tie,1.5,1.5,64,,,,,,,,
,,,,,,,,,,,,,,,754,2022-01-19_22h06.06.766,multiplicationStroop,2021.2.3,Win32,59.86231667,,,,,,,,,,,,,,,,,,,,,,,,,,,,,,,,,20,1.2841,1,0,7,7,6,1,4,×,5,4 × 5,neutral,smallerFirst,1.5,1.5,20,,,,,,,,
,,,,,,,,,,,,,,,754,2022-01-19_22h06.06.766,multiplicationStroop,2021.2.3,Win32,59.86231667,,,,,,,,,,,,,,,,,,,,,,,,,,,,,,,,,28,1.4008,1,0,8,8,3,1,4,×,7,4 × 7,neutral,smallerFirst,1.5,1.5,28,,,,,,,,
,,,,,,,,,,,,,,,754,2022-01-19_22h06.06.766,multiplicationStroop,2021.2.3,Win32,59.86231667,,,,,,,,,,,,,,,,,,,,,,,,,,,,,,,,,14,1.2173,1,0,9,9,2,1,2,×,7,2 × 7,neutral,smallerFirst,1.5,1.5,14,,,,,,,,
,,,,,,,,,,,,,,,754,2022-01-19_22h06.06.766,multiplicationStroop,2021.2.3,Win32,59.86231667,,,,,,,,,,,,,,,,,,,,,,,,,,,,,,,,,56,1.7179,1,0,10,10,23,1,8,×,7,8 × 7,neutral,largerFirst,1.5,1.5,56,,,,,,,,
,,,,,,,,,,,,,,,754,2022-01-19_22h06.06.766,multiplicationStroop,2021.2.3,Win32,59.86231667,,,,,,,,,,,,,,,,,,,,,,,,,,,,,,,,,63,2.3516,1,0,11,11,26,1,9,×,7,9 × 7,neutral,largerFirst,1.5,1.5,63,,,,,,,,
,,,,,,,,,,,,,,,754,2022-01-19_22h06.06.766,multiplicationStroop,2021.2.3,Win32,59.86231667,,,,,,,,,,,,,,,,,,,,,,,,,,,,,,,,,49,1.8011,1,0,12,12,33,1,7,×,7,7 × 7,neutral,tie,1.5,1.5,49,,,,,,,,
,,,,,,,,,,,,,,,754,2022-01-19_22h06.06.766,multiplicationStroop,2021.2.3,Win32,59.86231667,,,,,,,,,,,,,,,,,,,,,,,,,,,,,,,,,81,1.3007,1,0,13,13,35,1,9,×,9,9 × 9,neutral,tie,1.5,1.5,81,,,,,,,,
,,,,,,,,,,,,,,,754,2022-01-19_22h06.06.766,multiplicationStroop,2021.2.3,Win32,59.86231667,,,,,,,,,,,,,,,,,,,,,,,,,,,,,,,,,10,1.134,1,0,14,14,18,1,5,×,2,5 × 2,neutral,largerFirst,1.5,1.5,10,,,,,,,,
,,,,,,,,,,,,,,,754,2022-01-19_22h06.06.766,multiplicationStroop,2021.2.3,Win32,59.86231667,,,,,,,,,,,,,,,,,,,,,,,,,,,,,,,,,18,1.2174,1,0,15,15,4,1,2,×,9,2 × 9,neutral,smallerFirst,1.5,1.5,18,,,,,,,,
,,,,,,,,,,,,,,,754,2022-01-19_22h06.06.766,multiplicationStroop,2021.2.3,Win32,59.86231667,,,,,,,,,,,,,,,,,,,,,,,,,,,,,,,,,45,2.0677,1,0,16,16,24,1,9,×,5,9 × 5,neutral,largerFirst,1.5,1.5,45,,,,,,,,
,,,,,,,,,,,,,,,754,2022-01-19_22h06.06.766,multiplicationStroop,2021.2.3,Win32,59.86231667,,,,,,,,,,,,,,,,,,,,,,,,,,,,,,,,,24,1.8678,1,0,17,17,16,1,6,×,4,6 × 4,neutral,largerFirst,1.5,1.5,24,,,,,,,,
,,,,,,,,,,,,,,,754,2022-01-19_22h06.06.766,multiplicationStroop,2021.2.3,Win32,59.86231667,,,,,,,,,,,,,,,,,,,,,,,,,,,,,,,,,35,1.9346,1,0,18,18,15,1,7,×,5,7 × 5,neutral,largerFirst,1.5,1.5,35,,,,,,,,
,,,,,,,,,,,,,,,754,2022-01-19_22h06.06.766,multiplicationStroop,2021.2.3,Win32,59.86231667,,,,,,,,,,,,,,,,,,,,,,,,,,,,,,,,,6,1.5343,1,0,19,19,12,1,2,×,3,2 × 3,neutral,smallerFirst,1.5,1.5,6,,,,,,,,
,,,,,,,,,,,,,,,754,2022-01-19_22h06.06.766,multiplicationStroop,2021.2.3,Win32,59.86231667,,,,,,,,,,,,,,,,,,,,,,,,,,,,,,,,,64,2.2349,0,0,20,20,1,1,6,×,8,6 × 8,neutral,smallerFirst,1.5,1.5,48,,,,,,,,
,,,,,,,,,,,,,,,754,2022-01-19_22h06.06.766,multiplicationStroop,2021.2.3,Win32,59.86231667,,,,,,,,,,,,,,,,,,,,,,,,,,,,,,,,,21,1.0928,1,0,21,21,22,1,7,×,3,7 × 3,neutral,largerFirst,1.5,1.5,21,,,,,,,,
,,,,,,,,,,,,,,,754,2022-01-19_22h06.06.766,multiplicationStroop,2021.2.3,Win32,59.86231667,,,,,,,,,,,,,,,,,,,,,,,,,,,,,,,,,12,1.1677,1,0,22,22,11,1,2,×,6,2 × 6,neutral,smallerFirst,1.5,1.5,12,,,,,,,,
,,,,,,,,,,,,,,,754,2022-01-19_22h06.06.766,multiplicationStroop,2021.2.3,Win32,59.86231667,,,,,,,,,,,,,,,,,,,,,,,,,,,,,,,,,32,2.0179,1,0,23,23,9,1,4,×,8,4 × 8,neutral,smallerFirst,1.5,1.5,32,,,,,,,,
,,,,,,,,,,,,,,,754,2022-01-19_22h06.06.766,multiplicationStroop,2021.2.3,Win32,59.86231667,,,,,,,,,,,,,,,,,,,,,,,,,,,,,,,,,18,1.4344,1,0,24,24,14,1,6,×,3,6 × 3,neutral,largerFirst,1.5,1.5,18,,,,,,,,
,,,,,,,,,,,,,,,754,2022-01-19_22h06.06.766,multiplicationStroop,2021.2.3,Win32,59.86231667,,,,,,,,,,,,,,,,,,,,,,,,,,,,,,,,,356,1.8341,0,0,25,25,32,1,6,×,6,6 × 6,neutral,tie,1.5,1.5,36,,,,,,,,
,,,,,,,,,,,,,,,754,2022-01-19_22h06.06.766,multiplicationStroop,2021.2.3,Win32,59.86231667,,,,,,,,,,,,,,,,,,,,,,,,,,,,,,,,,15,1.3673,1,0,26,26,19,1,5,×,3,5 × 3,neutral,largerFirst,1.5,1.5,15,,,,,,,,
,,,,,,,,,,,,,,,754,2022-01-19_22h06.06.766,multiplicationStroop,2021.2.3,Win32,59.86231667,,,,,,,,,,,,,,,,,,,,,,,,,,,,,,,,,9,1.4177,1,0,27,27,29,1,3,×,3,3 × 3,neutral,tie,1.5,1.5,9,,,,,,,,
,,,,,,,,,,,,,,,754,2022-01-19_22h06.06.766,multiplicationStroop,2021.2.3,Win32,59.86231667,,,,,,,,,,,,,,,,,,,,,,,,,,,,,,,,,27,3.7196,1,0,28,28,0,1,3,×,9,3 × 9,neutral,smallerFirst,1.5,1.5,27,,,,,,,,
,,,,,,,,,,,,,,,754,2022-01-19_22h06.06.766,multiplicationStroop,2021.2.3,Win32,59.86231667,,,,,,,,,,,,,,,,,,,,,,,,,,,,,,,,,16,1.6433,1,0,29,29,27,1,8,×,2,8 × 2,neutral,largerFirst,1.5,1.5,16,,,,,,,,
,,,,,,,,,,,,,,,754,2022-01-19_22h06.06.766,multiplicationStroop,2021.2.3,Win32,59.86231667,,,,,,,,,,,,,,,,,,,,,,,,,,,,,,,,,25,2.085,1,0,30,30,31,1,5,×,5,5 × 5,neutral,tie,1.5,1.5,25,,,,,,,,
,,,,,,,,,,,,,,,754,2022-01-19_22h06.06.766,multiplicationStroop,2021.2.3,Win32,59.86231667,,,,,,,,,,,,,,,,,,,,,,,,,,,,,,,,,42,1.8273,1,0,31,31,20,1,7,×,6,7 × 6,neutral,largerFirst,1.5,1.5,42,,,,,,,,
,,,,,,,,,,,,,,,754,2022-01-19_22h06.06.766,multiplicationStroop,2021.2.3,Win32,59.86231667,,,,,,,,,,,,,,,,,,,,,,,,,,,,,,,,,54,1.6675,1,0,32,32,21,1,9,×,6,9 × 6,neutral,largerFirst,1.5,1.5,54,,,,,,,,
,,,,,,,,,,,,,,,754,2022-01-19_22h06.06.766,multiplicationStroop,2021.2.3,Win32,59.86231667,,,,,,,,,,,,,,,,,,,,,,,,,,,,,,,,,16,1.4499,1,0,33,33,30,1,4,×,4,4 × 4,neutral,tie,1.5,1.5,16,,,,,,,,
,,,,,,,,,,,,,,,754,2022-01-19_22h06.06.766,multiplicationStroop,2021.2.3,Win32,59.86231667,,,,,,,,,,,,,,,,,,,,,,,,,,,,,,,,,36,1.801,1,0,34,34,13,1,4,×,9,4 × 9,neutral,smallerFirst,1.5,1.5,36,,,,,,,,
,,,,,,,,,,,,,,,754,2022-01-19_22h06.06.766,multiplicationStroop,2021.2.3,Win32,59.86231667,,,,,,,,,,,,,,,,,,,,,,,,,,,,,,,,,24,1.7013,1,0,35,35,8,1,3,×,8,3 × 8,neutral,smallerFirst,1.5,1.5,24,,,,,,,,
,,,,,,,,,,,,,,,754,2022-01-19_22h06.06.766,multiplicationStroop,2021.2.3,Win32,59.86231667,,,,,,,,,,,,,,,,,,,,,,,,,,,,,,,,,,,,,,,,,,,,,,,,,,0,1,1,0,1,stimulusFile/mult_blk1.xlsx,,
,,,,,,,,,,,,,,,754,2022-01-19_22h06.06.766,multiplicationStroop,2021.2.3,Win32,59.86231667,,,,,,,,,,,,,,,,,,,,,,,,,,,,,,,space,1.1479,64,2.0592,1,0,0,0,34,1,8,×,8,8 × 8,neutral,tie,1.5,1.5,64,,,,,,,,
,,,,,,,,,,,,,,,754,2022-01-19_22h06.06.766,multiplicationStroop,2021.2.3,Win32,59.86231667,,,,,,,,,,,,,,,,,,,,,,,,,,,,,,,,,24,1.3841,1,0,1,1,22,1,8,×,3,8 × 3,neutral,largerFirst,1.5,1.5,24,,,,,,,,
,,,,,,,,,,,,,,,754,2022-01-19_22h06.06.766,multiplicationStroop,2021.2.3,Win32,59.86231667,,,,,,,,,,,,,,,,,,,,,,,,,,,,,,,,,40,1.4511,1,0,2,2,24,1,8,×,5,8 × 5,neutral,largerFirst,1.5,1.5,40,,,,,,,,
,,,,,,,,,,,,,,,754,2022-01-19_22h06.06.766,multiplicationStroop,2021.2.3,Win32,59.86231667,,,,,,,,,,,,,,,,,,,,,,,,,,,,,,,,,16,1.4841,1,0,3,3,30,1,4,×,4,4 × 4,neutral,tie,1.5,1.5,16,,,,,,,,
,,,,,,,,,,,,,,,754,2022-01-19_22h06.06.766,multiplicationStroop,2021.2.3,Win32,59.86231667,,,,,,,,,,,,,,,,,,,,,,,,,,,,,,,,,56,1.4508,1,0,4,4,9,1,7,×,8,7 × 8,neutral,smallerFirst,1.5,1.5,56,,,,,,,,
,,,,,,,,,,,,,,,754,2022-01-19_22h06.06.766,multiplicationStroop,2021.2.3,Win32,59.86231667,,,,,,,,,,,,,,,,,,,,,,,,,,,,,,,,,32,1.4175,1,0,5,5,23,1,8,×,4,8 × 4,neutral,largerFirst,1.5,1.5,32,,,,,,,,
,,,,,,,,,,,,,,,754,2022-01-19_22h06.06.766,multiplicationStroop,2021.2.3,Win32,59.86231667,,,,,,,,,,,,,,,,,,,,,,,,,,,,,,,,,20,1.234,1,0,6,6,20,1,5,×,4,5 × 4,neutral,largerFirst,1.5,1.5,20,,,,,,,,
,,,,,,,,,,,,,,,754,2022-01-19_22h06.06.766,multiplicationStroop,2021.2.3,Win32,59.86231667,,,,,,,,,,,,,,,,,,,,,,,,,,,,,,,,,27,1.5678,1,0,7,7,14,1,9,×,3,9 × 3,neutral,largerFirst,1.5,1.5,27,,,,,,,,
,,,,,,,,,,,,,,,754,2022-01-19_22h06.06.766,multiplicationStroop,2021.2.3,Win32,59.86231667,,,,,,,,,,,,,,,,,,,,,,,,,,,,,,,,,49,1.7512,1,0,8,8,33,1,7,×,7,7 × 7,neutral,tie,1.5,1.5,49,,,,,,,,
,,,,,,,,,,,,,,,754,2022-01-19_22h06.06.766,multiplicationStroop,2021.2.3,Win32,59.86231667,,,,,,,,,,,,,,,,,,,,,,,,,,,,,,,,,12,1.2174,1,0,9,9,25,1,6,×,2,6 × 2,neutral,largerFirst,1.5,1.5,12,,,,,,,,
,,,,,,,,,,,,,,,754,2022-01-19_22h06.06.766,multiplicationStroop,2021.2.3,Win32,59.86231667,,,,,,,,,,,,,,,,,,,,,,,,,,,,,,,,,12,1.1338,1,0,10,10,21,1,4,×,3,4 × 3,neutral,largerFirst,1.5,1.5,12,,,,,,,,
,,,,,,,,,,,,,,,754,2022-01-19_22h06.06.766,multiplicationStroop,2021.2.3,Win32,59.86231667,,,,,,,,,,,,,,,,,,,,,,,,,,,,,,,,,24,1.2345,1,0,11,11,2,1,4,×,6,4 × 6,neutral,smallerFirst,1.5,1.5,24,,,,,,,,
,,,,,,,,,,,,,,,754,2022-01-19_22h06.06.766,multiplicationStroop,2021.2.3,Win32,59.86231667,,,,,,,,,,,,,,,,,,,,,,,,,,,,,,,,,18,1.2673,1,0,12,12,0,1,3,×,6,3 × 6,neutral,smallerFirst,1.5,1.5,18,,,,,,,,
,,,,,,,,,,,,,,,754,2022-01-19_22h06.06.766,multiplicationStroop,2021.2.3,Win32,59.86231667,,,,,,,,,,,,,,,,,,,,,,,,,,,,,,,,,63,2.3348,1,0,13,13,12,1,7,×,9,7 × 9,neutral,smallerFirst,1.5,1.5,63,,,,,,,,
,,,,,,,,,,,,,,,754,2022-01-19_22h06.06.766,multiplicationStroop,2021.2.3,Win32,59.86231667,,,,,,,,,,,,,,,,,,,,,,,,,,,,,,,,,16,2.0845,1,0,14,14,13,1,2,×,8,2 × 8,neutral,smallerFirst,1.5,1.5,16,,,,,,,,
,,,,,,,,,,,,,,,754,2022-01-19_22h06.06.766,multiplicationStroop,2021.2.3,Win32,59.86231667,,,,,,,,,,,,,,,,,,,,,,,,,,,,,,,,,36,1.7179,1,0,15,15,27,1,9,×,4,9 × 4,neutral,largerFirst,1.5,1.5,36,,,,,,,,
,,,,,,,,,,,,,,,754,2022-01-19_22h06.06.766,multiplicationStroop,2021.2.3,Win32,59.86231667,,,,,,,,,,,,,,,,,,,,,,,,,,,,,,,,,15,1.2672,1,0,16,16,5,1,3,×,5,3 × 5,neutral,smallerFirst,1.5,1.5,15,,,,,,,,
,,,,,,,,,,,,,,,754,2022-01-19_22h06.06.766,multiplicationStroop,2021.2.3,Win32,59.86231667,,,,,,,,,,,,,,,,,,,,,,,,,,,,,,,,,35,1.8679,1,0,17,17,1,1,5,×,7,5 × 7,neutral,smallerFirst,1.5,1.5,35,,,,,,,,
,,,,,,,,,,,,,,,754,2022-01-19_22h06.06.766,multiplicationStroop,2021.2.3,Win32,59.86231667,,,,,,,,,,,,,,,,,,,,,,,,,,,,,,,,,28,1.3841,1,0,18,18,17,1,7,×,4,7 × 4,neutral,largerFirst,1.5,1.5,28,,,,,,,,
,,,,,,,,,,,,,,,754,2022-01-19_22h06.06.766,multiplicationStroop,2021.2.3,Win32,59.86231667,,,,,,,,,,,,,,,,,,,,,,,,,,,,,,,,,81,1.484,1,0,19,19,35,1,9,×,9,9 × 9,neutral,tie,1.5,1.5,81,,,,,,,,
,,,,,,,,,,,,,,,754,2022-01-19_22h06.06.766,multiplicationStroop,2021.2.3,Win32,59.86231667,,,,,,,,,,,,,,,,,,,,,,,,,,,,,,,,,72,2.068,1,0,20,20,11,1,8,×,9,8 × 9,neutral,smallerFirst,1.5,1.5,72,,,,,,,,
,,,,,,,,,,,,,,,754,2022-01-19_22h06.06.766,multiplicationStroop,2021.2.3,Win32,59.86231667,,,,,,,,,,,,,,,,,,,,,,,,,,,,,,,,,45,1.4509,1,0,21,21,10,1,5,×,9,5 × 9,neutral,smallerFirst,1.5,1.5,45,,,,,,,,
,,,,,,,,,,,,,,,754,2022-01-19_22h06.06.766,multiplicationStroop,2021.2.3,Win32,59.86231667,,,,,,,,,,,,,,,,,,,,,,,,,,,,,,,,,10,1.2501,1,0,22,22,4,1,2,×,5,2 × 5,neutral,smallerFirst,1.5,1.5,10,,,,,,,,
,,,,,,,,,,,,,,,754,2022-01-19_22h06.06.766,multiplicationStroop,2021.2.3,Win32,59.86231667,,,,,,,,,,,,,,,,,,,,,,,,,,,,,,,,,21,1.0339,1,0,23,23,8,1,3,×,7,3 × 7,neutral,smallerFirst,1.5,1.5,21,,,,,,,,
,,,,,,,,,,,,,,,754,2022-01-19_22h06.06.766,multiplicationStroop,2021.2.3,Win32,59.86231667,,,,,,,,,,,,,,,,,,,,,,,,,,,,,,,,,9,1.5175,1,0,24,24,29,1,3,×,3,3 × 3,neutral,tie,1.5,1.5,9,,,,,,,,
,,,,,,,,,,,,,,,754,2022-01-19_22h06.06.766,multiplicationStroop,2021.2.3,Win32,59.86231667,,,,,,,,,,,,,,,,,,,,,,,,,,,,,,,,,36,1.9014,1,0,25,25,32,1,6,×,6,6 × 6,neutral,tie,1.5,1.5,36,,,,,,,,
,,,,,,,,,,,,,,,754,2022-01-19_22h06.06.766,multiplicationStroop,2021.2.3,Win32,59.86231667,,,,,,,,,,,,,,,,,,,,,,,,,,,,,,,,,42,2.0015,1,0,26,26,6,1,6,×,7,6 × 7,neutral,smallerFirst,1.5,1.5,42,,,,,,,,
,,,,,,,,,,,,,,,754,2022-01-19_22h06.06.766,multiplicationStroop,2021.2.3,Win32,59.86231667,,,,,,,,,,,,,,,,,,,,,,,,,,,,,,,,,54,1.7179,1,0,27,27,7,1,6,×,9,6 × 9,neutral,smallerFirst,1.5,1.5,54,,,,,,,,
,,,,,,,,,,,,,,,754,2022-01-19_22h06.06.766,multiplicationStroop,2021.2.3,Win32,59.86231667,,,,,,,,,,,,,,,,,,,,,,,,,,,,,,,,,4,1.3008,1,0,28,28,28,1,2,×,2,2 × 2,neutral,tie,1.5,1.5,4,,,,,,,,
,,,,,,,,,,,,,,,754,2022-01-19_22h06.06.766,multiplicationStroop,2021.2.3,Win32,59.86231667,,,,,,,,,,,,,,,,,,,,,,,,,,,,,,,,,48,2.0683,1,0,29,29,15,1,8,×,6,8 × 6,neutral,largerFirst,1.5,1.5,48,,,,,,,,
,,,,,,,,,,,,,,,754,2022-01-19_22h06.06.766,multiplicationStroop,2021.2.3,Win32,59.86231667,,,,,,,,,,,,,,,,,,,,,,,,,,,,,,,,,25,2.168,1,0,30,30,31,1,5,×,5,5 × 5,neutral,tie,1.5,1.5,25,,,,,,,,
,,,,,,,,,,,,,,,754,2022-01-19_22h06.06.766,multiplicationStroop,2021.2.3,Win32,59.86231667,,,,,,,,,,,,,,,,,,,,,,,,,,,,,,,,,8,1.7179,1,0,31,31,3,1,2,×,4,2 × 4,neutral,smallerFirst,1.5,1.5,8,,,,,,,,
,,,,,,,,,,,,,,,754,2022-01-19_22h06.06.766,multiplicationStroop,2021.2.3,Win32,59.86231667,,,,,,,,,,,,,,,,,,,,,,,,,,,,,,,,,14,1.301,1,0,32,32,16,1,7,×,2,7 × 2,neutral,largerFirst,1.5,1.5,14,,,,,,,,
,,,,,,,,,,,,,,,754,2022-01-19_22h06.06.766,multiplicationStroop,2021.2.3,Win32,59.86231667,,,,,,,,,,,,,,,,,,,,,,,,,,,,,,,,,18,1.284,1,0,33,33,18,1,9,×,2,9 × 2,neutral,largerFirst,1.5,1.5,18,,,,,,,,
,,,,,,,,,,,,,,,754,2022-01-19_22h06.06.766,multiplicationStroop,2021.2.3,Win32,59.86231667,,,,,,,,,,,,,,,,,,,,,,,,,,,,,,,,,30,1.8678,1,0,34,34,19,1,6,×,5,6 × 5,neutral,largerFirst,1.5,1.5,30,,,,,,,,
,,,,,,,,,,,,,,,754,2022-01-19_22h06.06.766,multiplicationStroop,2021.2.3,Win32,59.86231667,,,,,,,,,,,,,,,,,,,,,,,,,,,,,,,,,6,1.3176,1,0,35,35,26,1,3,×,2,3 × 2,neutral,largerFirst,1.5,1.5,6,,,,,,,,
,,,,,,,,,,,,,,,754,2022-01-19_22h06.06.766,multiplicationStroop,2021.2.3,Win32,59.86231667,,,,,,,,,,,,,,,,,,,,,,,,,,,,,,,,,,,,,,,,,,,,,,,,,,0,2,2,1,1,stimulusFile/mult_blk2.xlsx,,
,,,,,,,,,,,,,,,754,2022-01-19_22h06.06.766,multiplicationStroop,2021.2.3,Win32,59.86231667,,,,,,,,,,,,,,,,,,,,,,,,,,,,,,,space,0.9246,16,1.775,1,0,0,0,30,1,4,×,4,4 × 4,incongruent,tie,1,2,16,,,,,,,,
,,,,,,,,,,,,,,,754,2022-01-19_22h06.06.766,multiplicationStroop,2021.2.3,Win32,59.86231667,,,,,,,,,,,,,,,,,,,,,,,,,,,,,,,,,72,1.4496,1,0,1,1,0,1,8,×,9,8 × 9,incongruent,smallerFirst,2,1,72,,,,,,,,
,,,,,,,,,,,,,,,754,2022-01-19_22h06.06.766,multiplicationStroop,2021.2.3,Win32,59.86231667,,,,,,,,,,,,,,,,,,,,,,,,,,,,,,,,,9,1.3675,1,0,2,2,29,1,3,×,3,3 × 3,incongruent,tie,1,2,9,,,,,,,,
,,,,,,,,,,,,,,,754,2022-01-19_22h06.06.766,multiplicationStroop,2021.2.3,Win32,59.86231667,,,,,,,,,,,,,,,,,,,,,,,,,,,,,,,,,24,1.3675,1,0,3,3,20,1,6,×,4,6 × 4,incongruent,largerFirst,1,2,24,,,,,,,,
,,,,,,,,,,,,,,,754,2022-01-19_22h06.06.766,multiplicationStroop,2021.2.3,Win32,59.86231667,,,,,,,,,,,,,,,,,,,,,,,,,,,,,,,,,40,1.7346,1,0,4,4,13,1,5,×,8,5 × 8,incongruent,smallerFirst,2,1,40,,,,,,,,
,,,,,,,,,,,,,,,754,2022-01-19_22h06.06.766,multiplicationStroop,2021.2.3,Win32,59.86231667,,,,,,,,,,,,,,,,,,,,,,,,,,,,,,,,,56,1.7845,1,0,5,5,14,1,8,×,7,8 × 7,incongruent,largerFirst,1,2,56,,,,,,,,
,,,,,,,,,,,,,,,754,2022-01-19_22h06.06.766,multiplicationStroop,2021.2.3,Win32,59.86231667,,,,,,,,,,,,,,,,,,,,,,,,,,,,,,,,,45,1.6179,1,0,6,6,22,1,9,×,5,9 × 5,incongruent,largerFirst,1,2,45,,,,,,,,
,,,,,,,,,,,,,,,754,2022-01-19_22h06.06.766,multiplicationStroop,2021.2.3,Win32,59.86231667,,,,,,,,,,,,,,,,,,,,,,,,,,,,,,,,,32,1.6009,1,0,7,7,7,1,4,×,8,4 × 8,incongruent,smallerFirst,2,1,32,,,,,,,,
,,,,,,,,,,,,,,,754,2022-01-19_22h06.06.766,multiplicationStroop,2021.2.3,Win32,59.86231667,,,,,,,,,,,,,,,,,,,,,,,,,,,,,,,,,25,1.4174,1,0,8,8,31,1,5,×,5,5 × 5,incongruent,tie,1,2,25,,,,,,,,
,,,,,,,,,,,,,,,754,2022-01-19_22h06.06.766,multiplicationStroop,2021.2.3,Win32,59.86231667,,,,,,,,,,,,,,,,,,,,,,,,,,,,,,,,,18,1.3845,1,0,9,9,8,1,3,×,6,3 × 6,incongruent,smallerFirst,2,1,18,,,,,,,,
,,,,,,,,,,,,,,,754,2022-01-19_22h06.06.766,multiplicationStroop,2021.2.3,Win32,59.86231667,,,,,,,,,,,,,,,,,,,,,,,,,,,,,,,,,28,2.3344,1,0,10,10,16,1,7,×,4,7 × 4,incongruent,largerFirst,1,2,28,,,,,,,,
,,,,,,,,,,,,,,,754,2022-01-19_22h06.06.766,multiplicationStroop,2021.2.3,Win32,59.86231667,,,,,,,,,,,,,,,,,,,,,,,,,,,,,,,,,4,1.2172,1,0,11,11,28,1,2,×,2,2 × 2,incongruent,tie,1,2,4,,,,,,,,
,,,,,,,,,,,,,,,754,2022-01-19_22h06.06.766,multiplicationStroop,2021.2.3,Win32,59.86231667,,,,,,,,,,,,,,,,,,,,,,,,,,,,,,,,,24,1.234,1,0,12,12,9,1,3,×,8,3 × 8,incongruent,smallerFirst,2,1,24,,,,,,,,
,,,,,,,,,,,,,,,754,2022-01-19_22h06.06.766,multiplicationStroop,2021.2.3,Win32,59.86231667,,,,,,,,,,,,,,,,,,,,,,,,,,,,,,,,,12,1.5844,1,0,13,13,19,1,6,×,2,6 × 2,incongruent,largerFirst,1,2,12,,,,,,,,
,,,,,,,,,,,,,,,754,2022-01-19_22h06.06.766,multiplicationStroop,2021.2.3,Win32,59.86231667,,,,,,,,,,,,,,,,,,,,,,,,,,,,,,,,,30,1.8011,1,0,14,14,25,1,6,×,5,6 × 5,incongruent,largerFirst,1,2,30,,,,,,,,
,,,,,,,,,,,,,,,754,2022-01-19_22h06.06.766,multiplicationStroop,2021.2.3,Win32,59.86231667,,,,,,,,,,,,,,,,,,,,,,,,,,,,,,,,,18,1.3841,1,0,15,15,2,1,2,×,9,2 × 9,incongruent,smallerFirst,2,1,18,,,,,,,,
,,,,,,,,,,,,,,,754,2022-01-19_22h06.06.766,multiplicationStroop,2021.2.3,Win32,59.86231667,,,,,,,,,,,,,,,,,,,,,,,,,,,,,,,,,54,1.6344,1,0,16,16,6,1,6,×,9,6 × 9,incongruent,smallerFirst,2,1,54,,,,,,,,
,,,,,,,,,,,,,,,754,2022-01-19_22h06.06.766,multiplicationStroop,2021.2.3,Win32,59.86231667,,,,,,,,,,,,,,,,,,,,,,,,,,,,,,,,,42,1.6846,1,0,17,17,17,1,7,×,6,7 × 6,incongruent,largerFirst,1,2,42,,,,,,,,
,,,,,,,,,,,,,,,754,2022-01-19_22h06.06.766,multiplicationStroop,2021.2.3,Win32,59.86231667,,,,,,,,,,,,,,,,,,,,,,,,,,,,,,,,,14,1.7512,1,0,18,18,4,1,2,×,7,2 × 7,incongruent,smallerFirst,2,1,14,,,,,,,,
,,,,,,,,,,,,,,,754,2022-01-19_22h06.06.766,multiplicationStroop,2021.2.3,Win32,59.86231667,,,,,,,,,,,,,,,,,,,,,,,,,,,,,,,,,49,1.5509,1,0,19,19,33,1,7,×,7,7 × 7,incongruent,tie,1,2,49,,,,,,,,
,,,,,,,,,,,,,,,754,2022-01-19_22h06.06.766,multiplicationStroop,2021.2.3,Win32,59.86231667,,,,,,,,,,,,,,,,,,,,,,,,,,,,,,,,,16,1.4845,1,0,20,20,23,1,8,×,2,8 × 2,incongruent,largerFirst,1,2,16,,,,,,,,
,,,,,,,,,,,,,,,754,2022-01-19_22h06.06.766,multiplicationStroop,2021.2.3,Win32,59.86231667,,,,,,,,,,,,,,,,,,,,,,,,,,,,,,,,,21,1.2671,1,0,21,21,26,1,7,×,3,7 × 3,incongruent,largerFirst,1,2,21,,,,,,,,
,,,,,,,,,,,,,,,754,2022-01-19_22h06.06.766,multiplicationStroop,2021.2.3,Win32,59.86231667,,,,,,,,,,,,,,,,,,,,,,,,,,,,,,,,,27,1.5844,1,0,22,22,18,1,9,×,3,9 × 3,incongruent,largerFirst,1,2,27,,,,,,,,
,,,,,,,,,,,,,,,754,2022-01-19_22h06.06.766,multiplicationStroop,2021.2.3,Win32,59.86231667,,,,,,,,,,,,,,,,,,,,,,,,,,,,,,,,,36,1.8514,1,0,23,23,32,1,6,×,6,6 × 6,incongruent,tie,1,2,36,,,,,,,,
,,,,,,,,,,,,,,,754,2022-01-19_22h06.06.766,multiplicationStroop,2021.2.3,Win32,59.86231667,,,,,,,,,,,,,,,,,,,,,,,,,,,,,,,,,64,2.0013,1,0,24,24,34,1,8,×,8,8 × 8,incongruent,tie,1,2,64,,,,,,,,
,,,,,,,,,,,,,,,754,2022-01-19_22h06.06.766,multiplicationStroop,2021.2.3,Win32,59.86231667,,,,,,,,,,,,,,,,,,,,,,,,,,,,,,,,,6,2.2682,1,0,25,25,11,1,2,×,3,2 × 3,incongruent,smallerFirst,2,1,6,,,,,,,,
,,,,,,,,,,,,,,,754,2022-01-19_22h06.06.766,multiplicationStroop,2021.2.3,Win32,59.86231667,,,,,,,,,,,,,,,,,,,,,,,,,,,,,,,,,10,1.6011,1,0,26,26,21,1,5,×,2,5 × 2,incongruent,largerFirst,1,2,10,,,,,,,,
,,,,,,,,,,,,,,,754,2022-01-19_22h06.06.766,multiplicationStroop,2021.2.3,Win32,59.86231667,,,,,,,,,,,,,,,,,,,,,,,,,,,,,,,,,20,1.4842,1,0,27,27,27,1,5,×,4,5 × 4,incongruent,largerFirst,1,2,20,,,,,,,,
,,,,,,,,,,,,,,,754,2022-01-19_22h06.06.766,multiplicationStroop,2021.2.3,Win32,59.86231667,,,,,,,,,,,,,,,,,,,,,,,,,,,,,,,,,48,2.1673,1,0,28,28,1,1,6,×,8,6 × 8,incongruent,smallerFirst,2,1,48,,,,,,,,
,,,,,,,,,,,,,,,754,2022-01-19_22h06.06.766,multiplicationStroop,2021.2.3,Win32,59.86231667,,,,,,,,,,,,,,,,,,,,,,,,,,,,,,,,,35,2.3512,1,0,29,29,12,1,5,×,7,5 × 7,incongruent,smallerFirst,2,1,35,,,,,,,,
,,,,,,,,,,,,,,,754,2022-01-19_22h06.06.766,multiplicationStroop,2021.2.3,Win32,59.86231667,,,,,,,,,,,,,,,,,,,,,,,,,,,,,,,,,12,1.7012,1,0,30,30,5,1,3,×,4,3 × 4,incongruent,smallerFirst,2,1,12,,,,,,,,
,,,,,,,,,,,,,,,754,2022-01-19_22h06.06.766,multiplicationStroop,2021.2.3,Win32,59.86231667,,,,,,,,,,,,,,,,,,,,,,,,,,,,,,,,,63,3.6196,1,0,31,31,3,1,7,×,9,7 × 9,incongruent,smallerFirst,2,1,63,,,,,,,,
,,,,,,,,,,,,,,,754,2022-01-19_22h06.06.766,multiplicationStroop,2021.2.3,Win32,59.86231667,,,,,,,,,,,,,,,,,,,,,,,,,,,,,,,,,81,1.6606,1,0,32,32,35,1,9,×,9,9 × 9,incongruent,tie,1,2,81,,,,,,,,
,,,,,,,,,,,,,,,754,2022-01-19_22h06.06.766,multiplicationStroop,2021.2.3,Win32,59.86231667,,,,,,,,,,,,,,,,,,,,,,,,,,,,,,,,,8,1.4174,1,0,33,33,24,1,4,×,2,4 × 2,incongruent,largerFirst,1,2,8,,,,,,,,
,,,,,,,,,,,,,,,754,2022-01-19_22h06.06.766,multiplicationStroop,2021.2.3,Win32,59.86231667,,,,,,,,,,,,,,,,,,,,,,,,,,,,,,,,,15,1.4003,1,0,34,34,10,1,3,×,5,3 × 5,incongruent,smallerFirst,2,1,15,,,,,,,,
,,,,,,,,,,,,,,,754,2022-01-19_22h06.06.766,multiplicationStroop,2021.2.3,Win32,59.86231667,,,,,,,,,,,,,,,,,,,,,,,,,,,,,,,,,36,1.7179,1,0,35,35,15,1,9,×,4,9 × 4,incongruent,largerFirst,1,2,36,,,,,,,,
,,,,,,,,,,,,,,,754,2022-01-19_22h06.06.766,multiplicationStroop,2021.2.3,Win32,59.86231667,,,,,,,,,,,,,,,,,,,,,,,,,,,,,,,,,,,,,,,,,,,,,,,,,,0,3,3,5,1,stimulusFile/mult_blk6_INcongruent.xlsx,,
,,,,,,,,,,,,,,,754,2022-01-19_22h06.06.766,multiplicationStroop,2021.2.3,Win32,59.86231667,,,,,,,,,,,,,,,,,,,,,,,,,,,,,,,space,0.7844,36,1.7086,1,0,0,0,32,1,6,×,6,6 × 6,neutral,tie,2,1,36,,,,,,,,
,,,,,,,,,,,,,,,754,2022-01-19_22h06.06.766,multiplicationStroop,2021.2.3,Win32,59.86231667,,,,,,,,,,,,,,,,,,,,,,,,,,,,,,,,,27,2.0181,1,0,1,1,4,1,3,×,9,3 × 9,incongruent,smallerFirst,2,1,27,,,,,,,,
,,,,,,,,,,,,,,,754,2022-01-19_22h06.06.766,multiplicationStroop,2021.2.3,Win32,59.86231667,,,,,,,,,,,,,,,,,,,,,,,,,,,,,,,,,14,1.2843,1,0,2,2,18,1,7,×,2,7 × 2,incongruent,largerFirst,1,2,14,,,,,,,,
,,,,,,,,,,,,,,,754,2022-01-19_22h06.06.766,multiplicationStroop,2021.2.3,Win32,59.86231667,,,,,,,,,,,,,,,,,,,,,,,,,,,,,,,,,16,1.6844,1,0,3,3,9,1,2,×,8,2 × 8,incongruent,smallerFirst,2,1,16,,,,,,,,
,,,,,,,,,,,,,,,754,2022-01-19_22h06.06.766,multiplicationStroop,2021.2.3,Win32,59.86231667,,,,,,,,,,,,,,,,,,,,,,,,,,,,,,,,,56,1.5846,1,0,4,4,0,1,7,×,8,7 × 8,incongruent,smallerFirst,2,1,56,,,,,,,,
,,,,,,,,,,,,,,,754,2022-01-19_22h06.06.766,multiplicationStroop,2021.2.3,Win32,59.86231667,,,,,,,,,,,,,,,,,,,,,,,,,,,,,,,,,10,1.2672,1,0,5,5,7,1,2,×,5,2 × 5,incongruent,smallerFirst,2,1,10,,,,,,,,
,,,,,,,,,,,,,,,754,2022-01-19_22h06.06.766,multiplicationStroop,2021.2.3,Win32,59.86231667,,,,,,,,,,,,,,,,,,,,,,,,,,,,,,,,,21,1.1171,1,0,6,6,12,1,3,×,7,3 × 7,incongruent,smallerFirst,2,1,21,,,,,,,,
,,,,,,,,,,,,,,,754,2022-01-19_22h06.06.766,multiplicationStroop,2021.2.3,Win32,59.86231667,,,,,,,,,,,,,,,,,,,,,,,,,,,,,,,,,30,1.6008,1,0,7,7,11,1,5,×,6,5 × 6,incongruent,smallerFirst,2,1,30,,,,,,,,
,,,,,,,,,,,,,,,754,2022-01-19_22h06.06.766,multiplicationStroop,2021.2.3,Win32,59.86231667,,,,,,,,,,,,,,,,,,,,,,,,,,,,,,,,,20,1.3676,1,0,8,8,13,1,4,×,5,4 × 5,incongruent,smallerFirst,2,1,20,,,,,,,,
,,,,,,,,,,,,,,,754,2022-01-19_22h06.06.766,multiplicationStroop,2021.2.3,Win32,59.86231667,,,,,,,,,,,,,,,,,,,,,,,,,,,,,,,,,63,1.9844,1,0,9,9,17,1,9,×,7,9 × 7,incongruent,largerFirst,1,2,63,,,,,,,,
,,,,,,,,,,,,,,,754,2022-01-19_22h06.06.766,multiplicationStroop,2021.2.3,Win32,59.86231667,,,,,,,,,,,,,,,,,,,,,,,,,,,,,,,,,45,1.6511,1,0,10,10,8,1,5,×,9,5 × 9,incongruent,smallerFirst,2,1,45,,,,,,,,
,,,,,,,,,,,,,,,754,2022-01-19_22h06.06.766,multiplicationStroop,2021.2.3,Win32,59.86231667,,,,,,,,,,,,,,,,,,,,,,,,,,,,,,,,,25,1.4177,0,0,11,11,26,1,7,×,5,7 × 5,incongruent,largerFirst,1,2,35,,,,,,,,
,,,,,,,,,,,,,,,754,2022-01-19_22h06.06.766,multiplicationStroop,2021.2.3,Win32,59.86231667,,,,,,,,,,,,,,,,,,,,,,,,,,,,,,,,,72,1.5177,1,0,12,12,14,1,9,×,8,9 × 8,incongruent,largerFirst,1,2,72,,,,,,,,
,,,,,,,,,,,,,,,754,2022-01-19_22h06.06.766,multiplicationStroop,2021.2.3,Win32,59.86231667,,,,,,,,,,,,,,,,,,,,,,,,,,,,,,,,,24,1.5173,1,0,13,13,23,1,8,×,3,8 × 3,incongruent,largerFirst,1,2,24,,,,,,,,
,,,,,,,,,,,,,,,754,2022-01-19_22h06.06.766,multiplicationStroop,2021.2.3,Win32,59.86231667,,,,,,,,,,,,,,,,,,,,,,,,,,,,,,,,,81,1.3508,1,0,14,14,35,1,9,×,9,9 × 9,neutral,tie,2,1,81,,,,,,,,
,,,,,,,,,,,,,,,754,2022-01-19_22h06.06.766,multiplicationStroop,2021.2.3,Win32,59.86231667,,,,,,,,,,,,,,,,,,,,,,,,,,,,,,,,,9,1.3509,1,0,15,15,29,1,3,×,3,3 × 3,neutral,tie,2,1,9,,,,,,,,
,,,,,,,,,,,,,,,754,2022-01-19_22h06.06.766,multiplicationStroop,2021.2.3,Win32,59.86231667,,,,,,,,,,,,,,,,,,,,,,,,,,,,,,,,,64,2.4855,1,0,16,16,34,1,8,×,8,8 × 8,neutral,tie,2,1,64,,,,,,,,
,,,,,,,,,,,,,,,754,2022-01-19_22h06.06.766,multiplicationStroop,2021.2.3,Win32,59.86231667,,,,,,,,,,,,,,,,,,,,,,,,,,,,,,,,,12,1.2264,1,0,17,17,19,1,4,×,3,4 × 3,incongruent,largerFirst,1,2,12,,,,,,,,
,,,,,,,,,,,,,,,754,2022-01-19_22h06.06.766,multiplicationStroop,2021.2.3,Win32,59.86231667,,,,,,,,,,,,,,,,,,,,,,,,,,,,,,,,,16,1.6345,1,0,18,18,30,1,4,×,4,4 × 4,neutral,tie,2,1,16,,,,,,,,
,,,,,,,,,,,,,,,754,2022-01-19_22h06.06.766,multiplicationStroop,2021.2.3,Win32,59.86231667,,,,,,,,,,,,,,,,,,,,,,,,,,,,,,,,,12,1.2507,1,0,19,19,5,1,2,×,6,2 × 6,incongruent,smallerFirst,2,1,12,,,,,,,,
,,,,,,,,,,,,,,,754,2022-01-19_22h06.06.766,multiplicationStroop,2021.2.3,Win32,59.86231667,,,,,,,,,,,,,,,,,,,,,,,,,,,,,,,,,9,1.3174,0,0,20,20,24,1,5,×,3,5 × 3,incongruent,largerFirst,1,2,15,,,,,,,,
,,,,,,,,,,,,,,,754,2022-01-19_22h06.06.766,multiplicationStroop,2021.2.3,Win32,59.86231667,,,,,,,,,,,,,,,,,,,,,,,,,,,,,,,,,32,1.6677,1,0,21,21,21,1,8,×,4,8 × 4,incongruent,largerFirst,1,2,32,,,,,,,,
,,,,,,,,,,,,,,,754,2022-01-19_22h06.06.766,multiplicationStroop,2021.2.3,Win32,59.86231667,,,,,,,,,,,,,,,,,,,,,,,,,,,,,,,,,36,1.9682,1,0,22,22,1,1,4,×,9,4 × 9,incongruent,smallerFirst,2,1,36,,,,,,,,
,,,,,,,,,,,,,,,754,2022-01-19_22h06.06.766,multiplicationStroop,2021.2.3,Win32,59.86231667,,,,,,,,,,,,,,,,,,,,,,,,,,,,,,,,,25,1.7345,1,0,23,23,31,1,5,×,5,5 × 5,neutral,tie,2,1,25,,,,,,,,
,,,,,,,,,,,,,,,754,2022-01-19_22h06.06.766,multiplicationStroop,2021.2.3,Win32,59.86231667,,,,,,,,,,,,,,,,,,,,,,,,,,,,,,,,,6,1.4844,1,0,24,24,25,1,3,×,2,3 × 2,incongruent,largerFirst,1,2,6,,,,,,,,
,,,,,,,,,,,,,,,754,2022-01-19_22h06.06.766,multiplicationStroop,2021.2.3,Win32,59.86231667,,,,,,,,,,,,,,,,,,,,,,,,,,,,,,,,,48,2.6185,1,0,25,25,15,1,8,×,6,8 × 6,incongruent,largerFirst,1,2,48,,,,,,,,
,,,,,,,,,,,,,,,754,2022-01-19_22h06.06.766,multiplicationStroop,2021.2.3,Win32,59.86231667,,,,,,,,,,,,,,,,,,,,,,,,,,,,,,,,,28,1.9181,1,0,26,26,2,1,4,×,7,4 × 7,incongruent,smallerFirst,2,1,28,,,,,,,,
,,,,,,,,,,,,,,,754,2022-01-19_22h06.06.766,multiplicationStroop,2021.2.3,Win32,59.86231667,,,,,,,,,,,,,,,,,,,,,,,,,,,,,,,,,24,2.1851,1,0,27,27,6,1,4,×,6,4 × 6,incongruent,smallerFirst,2,1,24,,,,,,,,
,,,,,,,,,,,,,,,754,2022-01-19_22h06.06.766,multiplicationStroop,2021.2.3,Win32,59.86231667,,,,,,,,,,,,,,,,,,,,,,,,,,,,,,,,,18,1.9012,1,0,28,28,22,1,6,×,3,6 × 3,incongruent,largerFirst,1,2,18,,,,,,,,
,,,,,,,,,,,,,,,754,2022-01-19_22h06.06.766,multiplicationStroop,2021.2.3,Win32,59.86231667,,,,,,,,,,,,,,,,,,,,,,,,,,,,,,,,,49,1.9345,1,0,29,29,33,1,7,×,7,7 × 7,neutral,tie,2,1,49,,,,,,,,
,,,,,,,,,,,,,,,754,2022-01-19_22h06.06.766,multiplicationStroop,2021.2.3,Win32,59.86231667,,,,,,,,,,,,,,,,,,,,,,,,,,,,,,,,,40,1.5844,1,0,30,30,27,1,8,×,5,8 × 5,incongruent,largerFirst,1,2,40,,,,,,,,
,,,,,,,,,,,,,,,754,2022-01-19_22h06.06.766,multiplicationStroop,2021.2.3,Win32,59.86231667,,,,,,,,,,,,,,,,,,,,,,,,,,,,,,,,,8,1.4675,1,0,31,31,10,1,2,×,4,2 × 4,incongruent,smallerFirst,2,1,8,,,,,,,,
,,,,,,,,,,,,,,,754,2022-01-19_22h06.06.766,multiplicationStroop,2021.2.3,Win32,59.86231667,,,,,,,,,,,,,,,,,,,,,,,,,,,,,,,,,4,1.2007,1,0,32,32,28,1,2,×,2,2 × 2,neutral,tie,2,1,4,,,,,,,,
,,,,,,,,,,,,,,,754,2022-01-19_22h06.06.766,multiplicationStroop,2021.2.3,Win32,59.86231667,,,,,,,,,,,,,,,,,,,,,,,,,,,,,,,,,18,1.3839,1,0,33,33,16,1,9,×,2,9 × 2,incongruent,largerFirst,1,2,18,,,,,,,,
,,,,,,,,,,,,,,,754,2022-01-19_22h06.06.766,multiplicationStroop,2021.2.3,Win32,59.86231667,,,,,,,,,,,,,,,,,,,,,,,,,,,,,,,,,42,2.0348,1,0,34,34,3,1,6,×,7,6 × 7,incongruent,smallerFirst,2,1,42,,,,,,,,
,,,,,,,,,,,,,,,754,2022-01-19_22h06.06.766,multiplicationStroop,2021.2.3,Win32,59.86231667,,,,,,,,,,,,,,,,,,,,,,,,,,,,,,,,,54,2.7857,1,0,35,35,20,1,9,×,6,9 × 6,incongruent,largerFirst,1,2,54,,,,,,,,
,,,,,,,,,,,,,,,754,2022-01-19_22h06.06.766,multiplicationStroop,2021.2.3,Win32,59.86231667,,,,,,,,,,,,,,,,,,,,,,,,,,,,,,,,,,,,,,,,,,,,,,,,,,0,4,4,4,1,stimulusFile/mult_blk5_INcongruent.xlsx,,
,,,,,,,,,,,,,,,754,2022-01-19_22h06.06.766,multiplicationStroop,2021.2.3,Win32,59.86231667,,,,,,,,,,,,,,,,,,,,,,,,,,,,,,,space,0.8169,10,1.1936,1,0,0,0,24,1,5,×,2,5 × 2,congruent,largerFirst,2,1,10,,,,,,,,
,,,,,,,,,,,,,,,754,2022-01-19_22h06.06.766,multiplicationStroop,2021.2.3,Win32,59.86231667,,,,,,,,,,,,,,,,,,,,,,,,,,,,,,,,,54,2.018,1,0,1,1,12,1,6,×,9,6 × 9,congruent,smallerFirst,1,2,54,,,,,,,,
,,,,,,,,,,,,,,,754,2022-01-19_22h06.06.766,multiplicationStroop,2021.2.3,Win32,59.86231667,,,,,,,,,,,,,,,,,,,,,,,,,,,,,,,,,12,1.2674,1,0,2,2,2,1,3,×,4,3 × 4,congruent,smallerFirst,1,2,12,,,,,,,,
,,,,,,,,,,,,,,,754,2022-01-19_22h06.06.766,multiplicationStroop,2021.2.3,Win32,59.86231667,,,,,,,,,,,,,,,,,,,,,,,,,,,,,,,,,20,1.7679,1,0,3,3,7,1,4,×,5,4 × 5,congruent,smallerFirst,1,2,20,,,,,,,,
,,,,,,,,,,,,,,,754,2022-01-19_22h06.06.766,multiplicationStroop,2021.2.3,Win32,59.86231667,,,,,,,,,,,,,,,,,,,,,,,,,,,,,,,,,6,1.8346,1,0,4,4,13,1,2,×,3,2 × 3,congruent,smallerFirst,1,2,6,,,,,,,,
,,,,,,,,,,,,,,,754,2022-01-19_22h06.06.766,multiplicationStroop,2021.2.3,Win32,59.86231667,,,,,,,,,,,,,,,,,,,,,,,,,,,,,,,,,56,2.0684,1,0,5,5,8,1,7,×,8,7 × 8,congruent,smallerFirst,1,2,56,,,,,,,,
,,,,,,,,,,,,,,,754,2022-01-19_22h06.06.766,multiplicationStroop,2021.2.3,Win32,59.86231667,,,,,,,,,,,,,,,,,,,,,,,,,,,,,,,,,28,1.5676,0,0,6,6,26,1,9,×,3,9 × 3,congruent,largerFirst,2,1,27,,,,,,,,
,,,,,,,,,,,,,,,754,2022-01-19_22h06.06.766,multiplicationStroop,2021.2.3,Win32,59.86231667,,,,,,,,,,,,,,,,,,,,,,,,,,,,,,,,,64,2.3853,1,0,7,7,34,1,8,×,8,8 × 8,neutral,tie,2,1,64,,,,,,,,
,,,,,,,,,,,,,,,754,2022-01-19_22h06.06.766,multiplicationStroop,2021.2.3,Win32,59.86231667,,,,,,,,,,,,,,,,,,,,,,,,,,,,,,,,,42,1.4844,1,0,8,8,3,1,6,×,7,6 × 7,congruent,smallerFirst,1,2,42,,,,,,,,
,,,,,,,,,,,,,,,754,2022-01-19_22h06.06.766,multiplicationStroop,2021.2.3,Win32,59.86231667,,,,,,,,,,,,,,,,,,,,,,,,,,,,,,,,,49,1.6677,1,0,9,9,33,1,7,×,7,7 × 7,neutral,tie,2,1,49,,,,,,,,
,,,,,,,,,,,,,,,754,2022-01-19_22h06.06.766,multiplicationStroop,2021.2.3,Win32,59.86231667,,,,,,,,,,,,,,,,,,,,,,,,,,,,,,,,,25,1.9512,1,0,10,10,31,1,5,×,5,5 × 5,neutral,tie,2,1,25,,,,,,,,
,,,,,,,,,,,,,,,754,2022-01-19_22h06.06.766,multiplicationStroop,2021.2.3,Win32,59.86231667,,,,,,,,,,,,,,,,,,,,,,,,,,,,,,,,,15,1.2507,1,0,11,11,4,1,3,×,5,3 × 5,congruent,smallerFirst,1,2,15,,,,,,,,
,,,,,,,,,,,,,,,754,2022-01-19_22h06.06.766,multiplicationStroop,2021.2.3,Win32,59.86231667,,,,,,,,,,,,,,,,,,,,,,,,,,,,,,,,,14,1.4509,1,0,12,12,14,1,7,×,2,7 × 2,congruent,largerFirst,2,1,14,,,,,,,,
,,,,,,,,,,,,,,,754,2022-01-19_22h06.06.766,multiplicationStroop,2021.2.3,Win32,59.86231667,,,,,,,,,,,,,,,,,,,,,,,,,,,,,,,,,32,1.5675,1,0,13,13,20,1,8,×,4,8 × 4,congruent,largerFirst,2,1,32,,,,,,,,
,,,,,,,,,,,,,,,754,2022-01-19_22h06.06.766,multiplicationStroop,2021.2.3,Win32,59.86231667,,,,,,,,,,,,,,,,,,,,,,,,,,,,,,,,,72,1.401,1,0,14,14,17,1,9,×,8,9 × 8,congruent,largerFirst,2,1,72,,,,,,,,
,,,,,,,,,,,,,,,754,2022-01-19_22h06.06.766,multiplicationStroop,2021.2.3,Win32,59.86231667,,,,,,,,,,,,,,,,,,,,,,,,,,,,,,,,,45,1.9848,1,0,15,15,23,1,9,×,5,9 × 5,congruent,largerFirst,2,1,45,,,,,,,,
,,,,,,,,,,,,,,,754,2022-01-19_22h06.06.766,multiplicationStroop,2021.2.3,Win32,59.86231667,,,,,,,,,,,,,,,,,,,,,,,,,,,,,,,,,18,1.7344,1,0,16,16,11,1,3,×,6,3 × 6,congruent,smallerFirst,1,2,18,,,,,,,,
,,,,,,,,,,,,,,,754,2022-01-19_22h06.06.766,multiplicationStroop,2021.2.3,Win32,59.86231667,,,,,,,,,,,,,,,,,,,,,,,,,,,,,,,,,4,1.4175,1,0,17,17,28,1,2,×,2,2 × 2,neutral,tie,2,1,4,,,,,,,,
,,,,,,,,,,,,,,,754,2022-01-19_22h06.06.766,multiplicationStroop,2021.2.3,Win32,59.86231667,,,,,,,,,,,,,,,,,,,,,,,,,,,,,,,,,48,1.6345,1,0,18,18,18,1,8,×,6,8 × 6,congruent,largerFirst,2,1,48,,,,,,,,
,,,,,,,,,,,,,,,754,2022-01-19_22h06.06.766,multiplicationStroop,2021.2.3,Win32,59.86231667,,,,,,,,,,,,,,,,,,,,,,,,,,,,,,,,,36,1.818,1,0,19,19,32,1,6,×,6,6 × 6,neutral,tie,2,1,36,,,,,,,,
,,,,,,,,,,,,,,,754,2022-01-19_22h06.06.766,multiplicationStroop,2021.2.3,Win32,59.86231667,,,,,,,,,,,,,,,,,,,,,,,,,,,,,,,,,35,1.9343,1,0,20,20,1,1,5,×,7,5 × 7,congruent,smallerFirst,1,2,35,,,,,,,,
,,,,,,,,,,,,,,,754,2022-01-19_22h06.06.766,multiplicationStroop,2021.2.3,Win32,59.86231667,,,,,,,,,,,,,,,,,,,,,,,,,,,,,,,,,87,1.8015,0,0,21,21,9,1,2,×,4,2 × 4,congruent,smallerFirst,1,2,8,,,,,,,,
,,,,,,,,,,,,,,,754,2022-01-19_22h06.06.766,multiplicationStroop,2021.2.3,Win32,59.86231667,,,,,,,,,,,,,,,,,,,,,,,,,,,,,,,,,16,1.751,1,0,22,22,30,1,4,×,4,4 × 4,neutral,tie,2,1,16,,,,,,,,
,,,,,,,,,,,,,,,754,2022-01-19_22h06.06.766,multiplicationStroop,2021.2.3,Win32,59.86231667,,,,,,,,,,,,,,,,,,,,,,,,,,,,,,,,,12,1.234,1,0,23,23,19,1,6,×,2,6 × 2,congruent,largerFirst,2,1,12,,,,,,,,
,,,,,,,,,,,,,,,754,2022-01-19_22h06.06.766,multiplicationStroop,2021.2.3,Win32,59.86231667,,,,,,,,,,,,,,,,,,,,,,,,,,,,,,,,,63,2.8355,1,0,24,24,21,1,9,×,7,9 × 7,congruent,largerFirst,2,1,63,,,,,,,,
,,,,,,,,,,,,,,,754,2022-01-19_22h06.06.766,multiplicationStroop,2021.2.3,Win32,59.86231667,,,,,,,,,,,,,,,,,,,,,,,,,,,,,,,,,16,1.3676,1,0,25,25,5,1,2,×,8,2 × 8,congruent,smallerFirst,1,2,16,,,,,,,,
,,,,,,,,,,,,,,,754,2022-01-19_22h06.06.766,multiplicationStroop,2021.2.3,Win32,59.86231667,,,,,,,,,,,,,,,,,,,,,,,,,,,,,,,,,24,1.5677,1,0,26,26,25,1,6,×,4,6 × 4,congruent,largerFirst,2,1,24,,,,,,,,
,,,,,,,,,,,,,,,754,2022-01-19_22h06.06.766,multiplicationStroop,2021.2.3,Win32,59.86231667,,,,,,,,,,,,,,,,,,,,,,,,,,,,,,,,,9,1.284,1,0,27,27,29,1,3,×,3,3 × 3,neutral,tie,2,1,9,,,,,,,,
,,,,,,,,,,,,,,,754,2022-01-19_22h06.06.766,multiplicationStroop,2021.2.3,Win32,59.86231667,,,,,,,,,,,,,,,,,,,,,,,,,,,,,,,,,18,1.4343,1,0,28,28,22,1,9,×,2,9 × 2,congruent,largerFirst,2,1,18,,,,,,,,
,,,,,,,,,,,,,,,754,2022-01-19_22h06.06.766,multiplicationStroop,2021.2.3,Win32,59.86231667,,,,,,,,,,,,,,,,,,,,,,,,,,,,,,,,,40,1.6011,1,0,29,29,6,1,5,×,8,5 × 8,congruent,smallerFirst,1,2,40,,,,,,,,
,,,,,,,,,,,,,,,754,2022-01-19_22h06.06.766,multiplicationStroop,2021.2.3,Win32,59.86231667,,,,,,,,,,,,,,,,,,,,,,,,,,,,,,,,,81,1.7344,1,0,30,30,35,1,9,×,9,9 × 9,neutral,tie,2,1,81,,,,,,,,
,,,,,,,,,,,,,,,754,2022-01-19_22h06.06.766,multiplicationStroop,2021.2.3,Win32,59.86231667,,,,,,,,,,,,,,,,,,,,,,,,,,,,,,,,,30,1.551,1,0,31,31,15,1,6,×,5,6 × 5,congruent,largerFirst,2,1,30,,,,,,,,
,,,,,,,,,,,,,,,754,2022-01-19_22h06.06.766,multiplicationStroop,2021.2.3,Win32,59.86231667,,,,,,,,,,,,,,,,,,,,,,,,,,,,,,,,,24,1.272,1,0,32,32,10,1,3,×,8,3 × 8,congruent,smallerFirst,1,2,24,,,,,,,,
,,,,,,,,,,,,,,,754,2022-01-19_22h06.06.766,multiplicationStroop,2021.2.3,Win32,59.86231667,,,,,,,,,,,,,,,,,,,,,,,,,,,,,,,,,36,2.3808,1,0,33,33,0,1,4,×,9,4 × 9,congruent,smallerFirst,1,2,36,,,,,,,,
,,,,,,,,,,,,,,,754,2022-01-19_22h06.06.766,multiplicationStroop,2021.2.3,Win32,59.86231667,,,,,,,,,,,,,,,,,,,,,,,,,,,,,,,,,28,1.4674,1,0,34,34,27,1,7,×,4,7 × 4,congruent,largerFirst,2,1,28,,,,,,,,
,,,,,,,,,,,,,,,754,2022-01-19_22h06.06.766,multiplicationStroop,2021.2.3,Win32,59.86231667,,,,,,,,,,,,,,,,,,,,,,,,,,,,,,,,,21,1.0836,1,0,35,35,16,1,7,×,3,7 × 3,congruent,largerFirst,2,1,21,,,,,,,,
,,,,,,,,,,,,,,,754,2022-01-19_22h06.06.766,multiplicationStroop,2021.2.3,Win32,59.86231667,,,,,,,,,,,,,,,,,,,,,,,,,,,,,,,,,,,,,,,,,,,,,,,,,,0,5,5,2,1,stimulusFile/mult_blk3_congruent.xlsx,,
,,,,,,,,,,,,,,,754,2022-01-19_22h06.06.766,multiplicationStroop,2021.2.3,Win32,59.86231667,,,,,,,,,,,,,,,,,,,,,,,,,,,,,,,,,,,,,,,,,,,,,,,,,,,,,,,,space,2.1265