welcomeKey_resp.keys,welcomeKey_resp.rt,X Scale,Y Scale,rt_resp_4.keys,rt_resp_4.corr,rt_resp_4.rt,speedtest_2.thisRepN,speedtest_2.thisTrialN,speedtest_2.thisN,speedtest_2.thisIndex,speedtest_2.ran,numberSc,posX,positionLayout,participant,date,expName,psychopyVersion,OS,frameRate,ct_instrresp.keys,ct_instrresp.rt,key_resp_2.keys,key_resp_2.rt,ct_keyResp.keys,ct_keyResp.corr,ct_keyResp.rt,trials.thisRepN,trials.thisTrialN,trials.thisN,trials.thisIndex,trials.ran,leftNo,rightNo,displayProblem,numDistance,leftNo_size,rightNo_size,Dims,keyAnswer,TS_Loop.thisRepN,TS_Loop.thisTrialN,TS_Loop.thisN,TS_Loop.thisIndex,TS_Loop.ran,Condition,ActionInst,instrImage,mltptaskInst_resp.keys,mltptaskInst_resp.rt,continue_resp_2.keys,continue_resp_2.rt,multp_Answer,multi_RT,multiplyCorr,LoopingMultiply.thisRepN,LoopingMultiply.thisTrialN,LoopingMultiply.thisN,LoopingMultiply.thisIndex,LoopingMultiply.ran,factor1,multiplySign,factor2,multliplyProblem,physicalSize,orderOperand,sizeF1,sizeF2,mult_answer,trials_stroop.thisRepN,trials_stroop.thisTrialN,trials_stroop.thisN,trials_stroop.thisIndex,trials_stroop.ran,multiplicationFile,esckey_resp_2.keys,esckey_resp_2.rt
y,40.705,60,40,right,1,0.949,0,0,0,12,1,6,200,right,755,2022-02-02_11h48.40.185,multiplicationStroop,2021.2.3,Linux armv8l,59.95203837,,,,,,,,,,,,,,,,,,,,,,,,,,,,,,,,,,,,,,,,,,,,,,,,,,,,,,,,,
,,,,right,1,0.645,0,1,1,13,1,7,200,right,755,2022-02-02_11h48.40.185,multiplicationStroop,2021.2.3,Linux armv8l,59.95203837,,,,,,,,,,,,,,,,,,,,,,,,,,,,,,,,,,,,,,,,,,,,,,,,,,,,,,,,,
,,,,right,1,0.621,0,2,2,10,1,3,200,right,755,2022-02-02_11h48.40.185,multiplicationStroop,2021.2.3,Linux armv8l,59.95203837,,,,,,,,,,,,,,,,,,,,,,,,,,,,,,,,,,,,,,,,,,,,,,,,,,,,,,,,,
,,,,left,1,0.66,0,3,3,7,1,9,-200,left,755,2022-02-02_11h48.40.185,multiplicationStroop,2021.2.3,Linux armv8l,59.95203837,,,,,,,,,,,,,,,,,,,,,,,,,,,,,,,,,,,,,,,,,,,,,,,,,,,,,,,,,
,,,,left,1,0.439,0,4,4,4,1,6,-200,left,755,2022-02-02_11h48.40.185,multiplicationStroop,2021.2.3,Linux armv8l,59.95203837,,,,,,,,,,,,,,,,,,,,,,,,,,,,,,,,,,,,,,,,,,,,,,,,,,,,,,,,,
,,,,left,1,0.385,0,5,5,1,1,2,-200,left,755,2022-02-02_11h48.40.185,multiplicationStroop,2021.2.3,Linux armv8l,59.95203837,,,,,,,,,,,,,,,,,,,,,,,,,,,,,,,,,,,,,,,,,,,,,,,,,,,,,,,,,
,,,,right,1,0.406,0,6,6,9,1,2,200,right,755,2022-02-02_11h48.40.185,multiplicationStroop,2021.2.3,Linux armv8l,59.95203837,,,,,,,,,,,,,,,,,,,,,,,,,,,,,,,,,,,,,,,,,,,,,,,,,,,,,,,,,
,,,,left,1,0.396,0,7,7,5,1,7,-200,left,755,2022-02-02_11h48.40.185,multiplicationStroop,2021.2.3,Linux armv8l,59.95203837,,,,,,,,,,,,,,,,,,,,,,,,,,,,,,,,,,,,,,,,,,,,,,,,,,,,,,,,,
,,,,right,1,0.354,0,8,8,15,1,9,200,right,755,2022-02-02_11h48.40.185,multiplicationStroop,2021.2.3,Linux armv8l,59.95203837,,,,,,,,,,,,,,,,,,,,,,,,,,,,,,,,,,,,,,,,,,,,,,,,,,,,,,,,,
,,,,right,1,0.677,0,9,9,8,1,1,200,right,755,2022-02-02_11h48.40.185,multiplicationStroop,2021.2.3,Linux armv8l,59.95203837,,,,,,,,,,,,,,,,,,,,,,,,,,,,,,,,,,,,,,,,,,,,,,,,,,,,,,,,,
,,,,left,1,0.414,0,10,10,3,1,4,-200,left,755,2022-02-02_11h48.40.185,multiplicationStroop,2021.2.3,Linux armv8l,59.95203837,,,,,,,,,,,,,,,,,,,,,,,,,,,,,,,,,,,,,,,,,,,,,,,,,,,,,,,,,
,,,,right,1,0.31,0,11,11,14,1,8,200,right,755,2022-02-02_11h48.40.185,multiplicationStroop,2021.2.3,Linux armv8l,59.95203837,,,,,,,,,,,,,,,,,,,,,,,,,,,,,,,,,,,,,,,,,,,,,,,,,,,,,,,,,
,,,,left,1,0.392,0,12,12,6,1,8,-200,left,755,2022-02-02_11h48.40.185,multiplicationStroop,2021.2.3,Linux armv8l,59.95203837,,,,,,,,,,,,,,,,,,,,,,,,,,,,,,,,,,,,,,,,,,,,,,,,,,,,,,,,,
,,,,left,1,0.426,0,13,13,2,1,3,-200,left,755,2022-02-02_11h48.40.185,multiplicationStroop,2021.2.3,Linux armv8l,59.95203837,,,,,,,,,,,,,,,,,,,,,,,,,,,,,,,,,,,,,,,,,,,,,,,,,,,,,,,,,
,,,,left,1,0.399,0,14,14,0,1,1,-200,left,755,2022-02-02_11h48.40.185,multiplicationStroop,2021.2.3,Linux armv8l,59.95203837,,,,,,,,,,,,,,,,,,,,,,,,,,,,,,,,,,,,,,,,,,,,,,,,,,,,,,,,,
,,,,right,1,0.4,0,15,15,11,1,4,200,right,755,2022-02-02_11h48.40.185,multiplicationStroop,2021.2.3,Linux armv8l,59.95203837,,,,,,,,,,,,,,,,,,,,,,,,,,,,,,,,,,,,,,,,,,,,,,,,,,,,,,,,,
,,,,right,1,0.444,1,0,16,15,1,9,200,right,755,2022-02-02_11h48.40.185,multiplicationStroop,2021.2.3,Linux armv8l,59.95203837,,,,,,,,,,,,,,,,,,,,,,,,,,,,,,,,,,,,,,,,,,,,,,,,,,,,,,,,,
,,,,right,1,0.349,1,1,17,10,1,3,200,right,755,2022-02-02_11h48.40.185,multiplicationStroop,2021.2.3,Linux armv8l,59.95203837,,,,,,,,,,,,,,,,,,,,,,,,,,,,,,,,,,,,,,,,,,,,,,,,,,,,,,,,,
,,,,left,1,0.479,1,2,18,7,1,9,-200,left,755,2022-02-02_11h48.40.185,multiplicationStroop,2021.2.3,Linux armv8l,59.95203837,,,,,,,,,,,,,,,,,,,,,,,,,,,,,,,,,,,,,,,,,,,,,,,,,,,,,,,,,
,,,,right,1,0.33,1,3,19,14,1,8,200,right,755,2022-02-02_11h48.40.185,multiplicationStroop,2021.2.3,Linux armv8l,59.95203837,,,,,,,,,,,,,,,,,,,,,,,,,,,,,,,,,,,,,,,,,,,,,,,,,,,,,,,,,
,,,,left,1,0.328,1,4,20,3,1,4,-200,left,755,2022-02-02_11h48.40.185,multiplicationStroop,2021.2.3,Linux armv8l,59.95203837,,,,,,,,,,,,,,,,,,,,,,,,,,,,,,,,,,,,,,,,,,,,,,,,,,,,,,,,,
,,,,right,1,0.332,1,5,21,13,1,7,200,right,755,2022-02-02_11h48.40.185,multiplicationStroop,2021.2.3,Linux armv8l,59.95203837,,,,,,,,,,,,,,,,,,,,,,,,,,,,,,,,,,,,,,,,,,,,,,,,,,,,,,,,,
,,,,left,1,0.325,1,6,22,5,1,7,-200,left,755,2022-02-02_11h48.40.185,multiplicationStroop,2021.2.3,Linux armv8l,59.95203837,,,,,,,,,,,,,,,,,,,,,,,,,,,,,,,,,,,,,,,,,,,,,,,,,,,,,,,,,
,,,,left,1,0.467,1,7,23,1,1,2,-200,left,755,2022-02-02_11h48.40.185,multiplicationStroop,2021.2.3,Linux armv8l,59.95203837,,,,,,,,,,,,,,,,,,,,,,,,,,,,,,,,,,,,,,,,,,,,,,,,,,,,,,,,,
,,,,left,1,0.363,1,8,24,6,1,8,-200,left,755,2022-02-02_11h48.40.185,multiplicationStroop,2021.2.3,Linux armv8l,59.95203837,,,,,,,,,,,,,,,,,,,,,,,,,,,,,,,,,,,,,,,,,,,,,,,,,,,,,,,,,
,,,,left,1,0.316,1,9,25,4,1,6,-200,left,755,2022-02-02_11h48.40.185,multiplicationStroop,2021.2.3,Linux armv8l,59.95203837,,,,,,,,,,,,,,,,,,,,,,,,,,,,,,,,,,,,,,,,,,,,,,,,,,,,,,,,,
,,,,left,1,0.363,1,10,26,0,1,1,-200,left,755,2022-02-02_11h48.40.185,multiplicationStroop,2021.2.3,Linux armv8l,59.95203837,,,,,,,,,,,,,,,,,,,,,,,,,,,,,,,,,,,,,,,,,,,,,,,,,,,,,,,,,
,,,,right,1,0.315,1,11,27,11,1,4,200,right,755,2022-02-02_11h48.40.185,multiplicationStroop,2021.2.3,Linux armv8l,59.95203837,,,,,,,,,,,,,,,,,,,,,,,,,,,,,,,,,,,,,,,,,,,,,,,,,,,,,,,,,
,,,,right,1,0.328,1,12,28,9,1,2,200,right,755,2022-02-02_11h48.40.185,multiplicationStroop,2021.2.3,Linux armv8l,59.95203837,,,,,,,,,,,,,,,,,,,,,,,,,,,,,,,,,,,,,,,,,,,,,,,,,,,,,,,,,
,,,,left,1,0.447,1,13,29,2,1,3,-200,left,755,2022-02-02_11h48.40.185,multiplicationStroop,2021.2.3,Linux armv8l,59.95203837,,,,,,,,,,,,,,,,,,,,,,,,,,,,,,,,,,,,,,,,,,,,,,,,,,,,,,,,,
,,,,right,1,0.33,1,14,30,12,1,6,200,right,755,2022-02-02_11h48.40.185,multiplicationStroop,2021.2.3,Linux armv8l,59.95203837,,,,,,,,,,,,,,,,,,,,,,,,,,,,,,,,,,,,,,,,,,,,,,,,,,,,,,,,,
,,,,right,1,0.435,1,15,31,8,1,1,200,right,755,2022-02-02_11h48.40.185,multiplicationStroop,2021.2.3,Linux armv8l,59.95203837,,,,,,,,,,,,,,,,,,,,,,,,,,,,,,,,,,,,,,,,,,,,,,,,,,,,,,,,,
,,,,left,1,0.447,2,0,32,1,1,2,-200,left,755,2022-02-02_11h48.40.185,multiplicationStroop,2021.2.3,Linux armv8l,59.95203837,,,,,,,,,,,,,,,,,,,,,,,,,,,,,,,,,,,,,,,,,,,,,,,,,,,,,,,,,
,,,,right,1,0.324,2,1,33,13,1,7,200,right,755,2022-02-02_11h48.40.185,multiplicationStroop,2021.2.3,Linux armv8l,59.95203837,,,,,,,,,,,,,,,,,,,,,,,,,,,,,,,,,,,,,,,,,,,,,,,,,,,,,,,,,
,,,,right,1,0.415,2,2,34,11,1,4,200,right,755,2022-02-02_11h48.40.185,multiplicationStroop,2021.2.3,Linux armv8l,59.95203837,,,,,,,,,,,,,,,,,,,,,,,,,,,,,,,,,,,,,,,,,,,,,,,,,,,,,,,,,
,,,,left,1,0.461,2,3,35,4,1,6,-200,left,755,2022-02-02_11h48.40.185,multiplicationStroop,2021.2.3,Linux armv8l,59.95203837,,,,,,,,,,,,,,,,,,,,,,,,,,,,,,,,,,,,,,,,,,,,,,,,,,,,,,,,,
,,,,left,1,0.435,2,4,36,6,1,8,-200,left,755,2022-02-02_11h48.40.185,multiplicationStroop,2021.2.3,Linux armv8l,59.95203837,,,,,,,,,,,,,,,,,,,,,,,,,,,,,,,,,,,,,,,,,,,,,,,,,,,,,,,,,
,,,,right,1,0.414,2,5,37,15,1,9,200,right,755,2022-02-02_11h48.40.185,multiplicationStroop,2021.2.3,Linux armv8l,59.95203837,,,,,,,,,,,,,,,,,,,,,,,,,,,,,,,,,,,,,,,,,,,,,,,,,,,,,,,,,
,,,,left,1,0.375,2,6,38,2,1,3,-200,left,755,2022-02-02_11h48.40.185,multiplicationStroop,2021.2.3,Linux armv8l,59.95203837,,,,,,,,,,,,,,,,,,,,,,,,,,,,,,,,,,,,,,,,,,,,,,,,,,,,,,,,,
,,,,right,1,0.327,2,7,39,9,1,2,200,right,755,2022-02-02_11h48.40.185,multiplicationStroop,2021.2.3,Linux armv8l,59.95203837,,,,,,,,,,,,,,,,,,,,,,,,,,,,,,,,,,,,,,,,,,,,,,,,,,,,,,,,,
,,,,left,0,0.208,2,8,40,12,1,6,200,right,755,2022-02-02_11h48.40.185,multiplicationStroop,2021.2.3,Linux armv8l,59.95203837,,,,,,,,,,,,,,,,,,,,,,,,,,,,,,,,,,,,,,,,,,,,,,,,,,,,,,,,,
,,,,left,1,0.709,2,9,41,5,1,7,-200,left,755,2022-02-02_11h48.40.185,multiplicationStroop,2021.2.3,Linux armv8l,59.95203837,,,,,,,,,,,,,,,,,,,,,,,,,,,,,,,,,,,,,,,,,,,,,,,,,,,,,,,,,
,,,,right,1,0.345,2,10,42,10,1,3,200,right,755,2022-02-02_11h48.40.185,multiplicationStroop,2021.2.3,Linux armv8l,59.95203837,,,,,,,,,,,,,,,,,,,,,,,,,,,,,,,,,,,,,,,,,,,,,,,,,,,,,,,,,
,,,,right,1,0.384,2,11,43,8,1,1,200,right,755,2022-02-02_11h48.40.185,multiplicationStroop,2021.2.3,Linux armv8l,59.95203837,,,,,,,,,,,,,,,,,,,,,,,,,,,,,,,,,,,,,,,,,,,,,,,,,,,,,,,,,
,,,,right,1,0.333,2,12,44,14,1,8,200,right,755,2022-02-02_11h48.40.185,multiplicationStroop,2021.2.3,Linux armv8l,59.95203837,,,,,,,,,,,,,,,,,,,,,,,,,,,,,,,,,,,,,,,,,,,,,,,,,,,,,,,,,
,,,,left,1,0.461,2,13,45,3,1,4,-200,left,755,2022-02-02_11h48.40.185,multiplicationStroop,2021.2.3,Linux armv8l,59.95203837,,,,,,,,,,,,,,,,,,,,,,,,,,,,,,,,,,,,,,,,,,,,,,,,,,,,,,,,,
,,,,left,1,0.336,2,14,46,7,1,9,-200,left,755,2022-02-02_11h48.40.185,multiplicationStroop,2021.2.3,Linux armv8l,59.95203837,,,,,,,,,,,,,,,,,,,,,,,,,,,,,,,,,,,,,,,,,,,,,,,,,,,,,,,,,
,,,,left,1,0.371,2,15,47,0,1,1,-200,left,755,2022-02-02_11h48.40.185,multiplicationStroop,2021.2.3,Linux armv8l,59.95203837,,,,,,,,,,,,,,,,,,,,,,,,,,,,,,,,,,,,,,,,,,,,,,,,,,,,,,,,,
,,,,right,1,0.422,3,0,48,14,1,8,200,right,755,2022-02-02_11h48.40.185,multiplicationStroop,2021.2.3,Linux armv8l,59.95203837,,,,,,,,,,,,,,,,,,,,,,,,,,,,,,,,,,,,,,,,,,,,,,,,,,,,,,,,,
,,,,left,1,0.358,3,1,49,3,1,4,-200,left,755,2022-02-02_11h48.40.185,multiplicationStroop,2021.2.3,Linux armv8l,59.95203837,,,,,,,,,,,,,,,,,,,,,,,,,,,,,,,,,,,,,,,,,,,,,,,,,,,,,,,,,
,,,,left,1,0.414,3,2,50,7,1,9,-200,left,755,2022-02-02_11h48.40.185,multiplicationStroop,2021.2.3,Linux armv8l,59.95203837,,,,,,,,,,,,,,,,,,,,,,,,,,,,,,,,,,,,,,,,,,,,,,,,,,,,,,,,,
,,,,left,1,0.384,3,3,51,4,1,6,-200,left,755,2022-02-02_11h48.40.185,multiplicationStroop,2021.2.3,Linux armv8l,59.95203837,,,,,,,,,,,,,,,,,,,,,,,,,,,,,,,,,,,,,,,,,,,,,,,,,,,,,,,,,
,,,,right,1,0.352,3,4,52,10,1,3,200,right,755,2022-02-02_11h48.40.185,multiplicationStroop,2021.2.3,Linux armv8l,59.95203837,,,,,,,,,,,,,,,,,,,,,,,,,,,,,,,,,,,,,,,,,,,,,,,,,,,,,,,,,
,,,,right,1,0.317,3,5,53,9,1,2,200,right,755,2022-02-02_11h48.40.185,multiplicationStroop,2021.2.3,Linux armv8l,59.95203837,,,,,,,,,,,,,,,,,,,,,,,,,,,,,,,,,,,,,,,,,,,,,,,,,,,,,,,,,
,,,,left,1,0.433,3,6,54,6,1,8,-200,left,755,2022-02-02_11h48.40.185,multiplicationStroop,2021.2.3,Linux armv8l,59.95203837,,,,,,,,,,,,,,,,,,,,,,,,,,,,,,,,,,,,,,,,,,,,,,,,,,,,,,,,,
,,,,right,1,0.366,3,7,55,15,1,9,200,right,755,2022-02-02_11h48.40.185,multiplicationStroop,2021.2.3,Linux armv8l,59.95203837,,,,,,,,,,,,,,,,,,,,,,,,,,,,,,,,,,,,,,,,,,,,,,,,,,,,,,,,,
,,,,left,0,0.31,3,8,56,8,1,1,200,right,755,2022-02-02_11h48.40.185,multiplicationStroop,2021.2.3,Linux armv8l,59.95203837,,,,,,,,,,,,,,,,,,,,,,,,,,,,,,,,,,,,,,,,,,,,,,,,,,,,,,,,,
,,,,right,1,0.574,3,9,57,12,1,6,200,right,755,2022-02-02_11h48.40.185,multiplicationStroop,2021.2.3,Linux armv8l,59.95203837,,,,,,,,,,,,,,,,,,,,,,,,,,,,,,,,,,,,,,,,,,,,,,,,,,,,,,,,,
,,,,right,1,0.384,3,10,58,11,1,4,200,right,755,2022-02-02_11h48.40.185,multiplicationStroop,2021.2.3,Linux armv8l,59.95203837,,,,,,,,,,,,,,,,,,,,,,,,,,,,,,,,,,,,,,,,,,,,,,,,,,,,,,,,,
,,,,left,1,0.499,3,11,59,0,1,1,-200,left,755,2022-02-02_11h48.40.185,multiplicationStroop,2021.2.3,Linux armv8l,59.95203837,,,,,,,,,,,,,,,,,,,,,,,,,,,,,,,,,,,,,,,,,,,,,,,,,,,,,,,,,
,,,,right,1,0.34,3,12,60,13,1,7,200,right,755,2022-02-02_11h48.40.185,multiplicationStroop,2021.2.3,Linux armv8l,59.95203837,,,,,,,,,,,,,,,,,,,,,,,,,,,,,,,,,,,,,,,,,,,,,,,,,,,,,,,,,
,,,,left,1,0.348,3,13,61,1,1,2,-200,left,755,2022-02-02_11h48.40.185,multiplicationStroop,2021.2.3,Linux armv8l,59.95203837,,,,,,,,,,,,,,,,,,,,,,,,,,,,,,,,,,,,,,,,,,,,,,,,,,,,,,,,,
,,,,left,1,0.579,3,14,62,5,1,7,-200,left,755,2022-02-02_11h48.40.185,multiplicationStroop,2021.2.3,Linux armv8l,59.95203837,,,,,,,,,,,,,,,,,,,,,,,,,,,,,,,,,,,,,,,,,,,,,,,,,,,,,,,,,
,,,,left,1,0.38,3,15,63,2,1,3,-200,left,755,2022-02-02_11h48.40.185,multiplicationStroop,2021.2.3,Linux armv8l,59.95203837,,,,,,,,,,,,,,,,,,,,,,,,,,,,,,,,,,,,,,,,,,,,,,,,,,,,,,,,,
,,,,,,,,,,,,,,,755,2022-02-02_11h48.40.185,multiplicationStroop,2021.2.3,Linux armv8l,59.95203837,space,21.215,space,6.78,left,1,1.26,0,0,0,70,1,8,8,8 | 8,0,1.9756,1.4111,neutral,left,,,,,,stimulusFile/physical.xlsx,,,,,,,,,,,,,,,,,,,,,,,,,,,,,,,
,,,,,,,,,,,,,,,755,2022-02-02_11h48.40.185,multiplicationStroop,2021.2.3,Linux armv8l,59.95203837,,,,,right,1,0.569,0,1,1,31,1,9,8,9 | 8,1,1.4111,1.9756,incongruent,right,,,,,,stimulusFile/physical.xlsx,,,,,,,,,,,,,,,,,,,,,,,,,,,,,,,
,,,,,,,,,,,,,,,755,2022-02-02_11h48.40.185,multiplicationStroop,2021.2.3,Linux armv8l,59.95203837,,,,,right,1,0.667,0,2,2,29,1,4,3,4 | 3,1,1.4111,1.9756,incongruent,right,,,,,,stimulusFile/physical.xlsx,,,,,,,,,,,,,,,,,,,,,,,,,,,,,,,
,,,,,,,,,,,,,,,755,2022-02-02_11h48.40.185,multiplicationStroop,2021.2.3,Linux armv8l,59.95203837,,,,,left,1,0.529,0,3,3,54,1,7,7,7 | 7,0,1.9756,1.4111,neutral,left,,,,,,stimulusFile/physical.xlsx,,,,,,,,,,,,,,,,,,,,,,,,,,,,,,,
,,,,,,,,,,,,,,,755,2022-02-02_11h48.40.185,multiplicationStroop,2021.2.3,Linux armv8l,59.95203837,,,,,left,1,0.405,0,4,4,6,1,7,6,7 | 6,1,1.9756,1.4111,congruent,left,,,,,,stimulusFile/physical.xlsx,,,,,,,,,,,,,,,,,,,,,,,,,,,,,,,
,,,,,,,,,,,,,,,755,2022-02-02_11h48.40.185,multiplicationStroop,2021.2.3,Linux armv8l,59.95203837,,,,,right,1,0.535,0,5,5,17,1,2,7,2 | 7,5,1.4111,1.9756,congruent,right,,,,,,stimulusFile/physical.xlsx,,,,,,,,,,,,,,,,,,,,,,,,,,,,,,,
,,,,,,,,,,,,,,,755,2022-02-02_11h48.40.185,multiplicationStroop,2021.2.3,Linux armv8l,59.95203837,,,,,left,1,0.655,0,6,6,41,1,2,7,2 | 7,5,1.9756,1.4111,incongruent,left,,,,,,stimulusFile/physical.xlsx,,,,,,,,,,,,,,,,,,,,,,,,,,,,,,,
,,,,,,,,,,,,,,,755,2022-02-02_11h48.40.185,multiplicationStroop,2021.2.3,Linux armv8l,59.95203837,,,,,right,1,0.632,0,7,7,44,1,6,1,6 | 1,5,1.4111,1.9756,incongruent,right,,,,,,stimulusFile/physical.xlsx,,,,,,,,,,,,,,,,,,,,,,,,,,,,,,,
,,,,,,,,,,,,,,,755,2022-02-02_11h48.40.185,multiplicationStroop,2021.2.3,Linux armv8l,59.95203837,,,,,right,1,0.541,0,8,8,19,1,4,9,4 | 9,5,1.4111,1.9756,congruent,right,,,,,,stimulusFile/physical.xlsx,,,,,,,,,,,,,,,,,,,,,,,,,,,,,,,
,,,,,,,,,,,,,,,755,2022-02-02_11h48.40.185,multiplicationStroop,2021.2.3,Linux armv8l,59.95203837,,,,,right,1,0.857,0,9,9,37,1,4,2,4 | 2,2,1.4111,1.9756,incongruent,right,,,,,,stimulusFile/physical.xlsx,,,,,,,,,,,,,,,,,,,,,,,,,,,,,,,
,,,,,,,,,,,,,,,755,2022-02-02_11h48.40.185,multiplicationStroop,2021.2.3,Linux armv8l,59.95203837,,,,,left,1,0.57,0,10,10,4,1,2,1,2 | 1,1,1.9756,1.4111,congruent,left,,,,,,stimulusFile/physical.xlsx,,,,,,,,,,,,,,,,,,,,,,,,,,,,,,,
,,,,,,,,,,,,,,,755,2022-02-02_11h48.40.185,multiplicationStroop,2021.2.3,Linux armv8l,59.95203837,,,,,left,1,0.66,0,11,11,24,1,1,2,1 | 2,1,1.9756,1.4111,incongruent,left,,,,,,stimulusFile/physical.xlsx,,,,,,,,,,,,,,,,,,,,,,,,,,,,,,,
,,,,,,,,,,,,,,,755,2022-02-02_11h48.40.185,multiplicationStroop,2021.2.3,Linux armv8l,59.95203837,,,,,left,0,0.638,0,12,12,64,1,1,1,1 | 1,0,1.9756,1.4111,neutral,right,,,,,,stimulusFile/physical.xlsx,,,,,,,,,,,,,,,,,,,,,,,,,,,,,,,
,,,,,,,,,,,,,,,755,2022-02-02_11h48.40.185,multiplicationStroop,2021.2.3,Linux armv8l,59.95203837,,,,,right,0,0.586,0,13,13,69,1,7,7,7 | 7,0,1.4111,1.9756,neutral,left,,,,,,stimulusFile/physical.xlsx,,,,,,,,,,,,,,,,,,,,,,,,,,,,,,,
,,,,,,,,,,,,,,,755,2022-02-02_11h48.40.185,multiplicationStroop,2021.2.3,Linux armv8l,59.95203837,,,,,left,1,0.691,0,14,14,53,1,4,4,4 | 4,0,1.9756,1.4111,neutral,left,,,,,,stimulusFile/physical.xlsx,,,,,,,,,,,,,,,,,,,,,,,,,,,,,,,
,,,,,,,,,,,,,,,755,2022-02-02_11h48.40.185,multiplicationStroop,2021.2.3,Linux armv8l,59.95203837,,,,,left,1,0.529,0,15,15,25,1,3,4,3 | 4,1,1.9756,1.4111,incongruent,left,,,,,,stimulusFile/physical.xlsx,,,,,,,,,,,,,,,,,,,,,,,,,,,,,,,
,,,,,,,,,,,,,,,755,2022-02-02_11h48.40.185,multiplicationStroop,2021.2.3,Linux armv8l,59.95203837,,,,,right,1,0.546,0,16,16,45,1,7,2,7 | 2,5,1.4111,1.9756,incongruent,right,,,,,,stimulusFile/physical.xlsx,,,,,,,,,,,,,,,,,,,,,,,,,,,,,,,
,,,,,,,,,,,,,,,755,2022-02-02_11h48.40.185,multiplicationStroop,2021.2.3,Linux armv8l,59.95203837,,,,,right,1,0.599,0,17,17,3,1,8,9,8 | 9,1,1.4111,1.9756,congruent,right,,,,,,stimulusFile/physical.xlsx,,,,,,,,,,,,,,,,,,,,,,,,,,,,,,,
,,,,,,,,,,,,,,,755,2022-02-02_11h48.40.185,multiplicationStroop,2021.2.3,Linux armv8l,59.95203837,,,,,left,1,0.591,0,18,18,48,1,1,1,1 | 1,0,1.9756,1.4111,neutral,left,,,,,,stimulusFile/physical.xlsx,,,,,,,,,,,,,,,,,,,,,,,,,,,,,,,
,,,,,,,,,,,,,,,755,2022-02-02_11h48.40.185,multiplicationStroop,2021.2.3,Linux armv8l,59.95203837,,,,,right,1,0.577,0,19,19,58,1,6,6,6 | 6,0,1.4111,1.9756,neutral,right,,,,,,stimulusFile/physical.xlsx,,,,,,,,,,,,,,,,,,,,,,,,,,,,,,,
,,,,,,,,,,,,,,,755,2022-02-02_11h48.40.185,multiplicationStroop,2021.2.3,Linux armv8l,59.95203837,,,,,right,1,0.689,0,20,20,56,1,1,1,1 | 1,0,1.4111,1.9756,neutral,right,,,,,,stimulusFile/physical.xlsx,,,,,,,,,,,,,,,,,,,,,,,,,,,,,,,
,,,,,,,,,,,,,,,755,2022-02-02_11h48.40.185,multiplicationStroop,2021.2.3,Linux armv8l,59.95203837,,,,,left,1,0.526,0,21,21,13,1,4,2,4 | 2,2,1.9756,1.4111,congruent,left,,,,,,stimulusFile/physical.xlsx,,,,,,,,,,,,,,,,,,,,,,,,,,,,,,,
,,,,,,,,,,,,,,,755,2022-02-02_11h48.40.185,multiplicationStroop,2021.2.3,Linux armv8l,59.95203837,,,,,left,1,0.532,0,22,22,68,1,6,6,6 | 6,0,1.9756,1.4111,neutral,left,,,,,,stimulusFile/physical.xlsx,,,,,,,,,,,,,,,,,,,,,,,,,,,,,,,
,,,,,,,,,,,,,,,755,2022-02-02_11h48.40.185,multiplicationStroop,2021.2.3,Linux armv8l,59.95203837,,,,,left,1,0.733,0,23,23,52,1,2,2,2 | 2,0,1.9756,1.4111,neutral,left,,,,,,stimulusFile/physical.xlsx,,,,,,,,,,,,,,,,,,,,,,,,,,,,,,,
,,,,,,,,,,,,,,,755,2022-02-02_11h48.40.185,multiplicationStroop,2021.2.3,Linux armv8l,59.95203837,,,,,right,1,0.65,0,24,24,36,1,3,1,3 | 1,2,1.4111,1.9756,incongruent,right,,,,,,stimulusFile/physical.xlsx,,,,,,,,,,,,,,,,,,,,,,,,,,,,,,,
,,,,,,,,,,,,,,,755,2022-02-02_11h48.40.185,multiplicationStroop,2021.2.3,Linux armv8l,59.95203837,,,,,right,1,0.621,0,25,25,61,1,4,4,4 | 4,0,1.4111,1.9756,neutral,right,,,,,,stimulusFile/physical.xlsx,,,,,,,,,,,,,,,,,,,,,,,,,,,,,,,
,,,,,,,,,,,,,,,755,2022-02-02_11h48.40.185,multiplicationStroop,2021.2.3,Linux armv8l,59.95203837,,,,,left,1,0.595,0,26,26,12,1,3,1,3 | 1,2,1.9756,1.4111,congruent,left,,,,,,stimulusFile/physical.xlsx,,,,,,,,,,,,,,,,,,,,,,,,,,,,,,,
,,,,,,,,,,,,,,,755,2022-02-02_11h48.40.185,multiplicationStroop,2021.2.3,Linux armv8l,59.95203837,,,,,right,1,0.572,0,27,27,63,1,9,9,9 | 9,0,1.4111,1.9756,neutral,right,,,,,,stimulusFile/physical.xlsx,,,,,,,,,,,,,,,,,,,,,,,,,,,,,,,
,,,,,,,,,,,,,,,755,2022-02-02_11h48.40.185,multiplicationStroop,2021.2.3,Linux armv8l,59.95203837,,,,,left,1,0.946,0,28,28,51,1,8,8,8 | 8,0,1.9756,1.4111,neutral,left,,,,,,stimulusFile/physical.xlsx,,,,,,,,,,,,,,,,,,,,,,,,,,,,,,,
,,,,,,,,,,,,,,,755,2022-02-02_11h48.40.185,multiplicationStroop,2021.2.3,Linux armv8l,59.95203837,,,,,left,1,0.555,0,29,29,21,1,7,2,7 | 2,5,1.9756,1.4111,congruent,left,,,,,,stimulusFile/physical.xlsx,,,,,,,,,,,,,,,,,,,,,,,,,,,,,,,
,,,,,,,,,,,,,,,755,2022-02-02_11h48.40.185,multiplicationStroop,2021.2.3,Linux armv8l,59.95203837,,,,,left,1,1.006,0,30,30,43,1,4,9,4 | 9,5,1.9756,1.4111,incongruent,left,,,,,,stimulusFile/physical.xlsx,,,,,,,,,,,,,,,,,,,,,,,,,,,,,,,
,,,,,,,,,,,,,,,755,2022-02-02_11h48.40.185,multiplicationStroop,2021.2.3,Linux armv8l,59.95203837,,,,,left,1,1.242,0,31,31,27,1,8,9,8 | 9,1,1.9756,1.4111,incongruent,left,,,,,,stimulusFile/physical.xlsx,,,,,,,,,,,,,,,,,,,,,,,,,,,,,,,
,,,,,,,,,,,,,,,755,2022-02-02_11h48.40.185,multiplicationStroop,2021.2.3,Linux armv8l,59.95203837,,,,,left,1,0.624,0,32,32,23,1,9,4,9 | 4,5,1.9756,1.4111,congruent,left,,,,,,stimulusFile/physical.xlsx,,,,,,,,,,,,,,,,,,,,,,,,,,,,,,,
,,,,,,,,,,,,,,,755,2022-02-02_11h48.40.185,multiplicationStroop,2021.2.3,Linux armv8l,59.95203837,,,,,left,1,0.668,0,33,33,32,1,1,3,1 | 3,2,1.9756,1.4111,incongruent,left,,,,,,stimulusFile/physical.xlsx,,,,,,,,,,,,,,,,,,,,,,,,,,,,,,,
,,,,,,,,,,,,,,,755,2022-02-02_11h48.40.185,multiplicationStroop,2021.2.3,Linux armv8l,59.95203837,,,,,right,1,0.606,0,34,34,62,1,8,8,8 | 8,0,1.4111,1.9756,neutral,right,,,,,,stimulusFile/physical.xlsx,,,,,,,,,,,,,,,,,,,,,,,,,,,,,,,
,,,,,,,,,,,,,,,755,2022-02-02_11h48.40.185,multiplicationStroop,2021.2.3,Linux armv8l,59.95203837,,,,,right,1,0.63,0,35,35,38,1,8,6,8 | 6,2,1.4111,1.9756,incongruent,right,,,,,,stimulusFile/physical.xlsx,,,,,,,,,,,,,,,,,,,,,,,,,,,,,,,
,,,,,,,,,,,,,,,755,2022-02-02_11h48.40.185,multiplicationStroop,2021.2.3,Linux armv8l,59.95203837,,,,,left,0,0.549,0,36,36,66,1,3,3,3 | 3,0,1.9756,1.4111,neutral,right,,,,,,stimulusFile/physical.xlsx,,,,,,,,,,,,,,,,,,,,,,,,,,,,,,,
,,,,,,,,,,,,,,,755,2022-02-02_11h48.40.185,multiplicationStroop,2021.2.3,Linux armv8l,59.95203837,,,,,left,1,0.625,0,37,37,40,1,1,6,1 | 6,5,1.9756,1.4111,incongruent,left,,,,,,stimulusFile/physical.xlsx,,,,,,,,,,,,,,,,,,,,,,,,,,,,,,,
,,,,,,,,,,,,,,,755,2022-02-02_11h48.40.185,multiplicationStroop,2021.2.3,Linux armv8l,59.95203837,,,,,right,1,0.607,0,38,38,2,1,6,7,6 | 7,1,1.4111,1.9756,congruent,right,,,,,,stimulusFile/physical.xlsx,,,,,,,,,,,,,,,,,,,,,,,,,,,,,,,
,,,,,,,,,,,,,,,755,2022-02-02_11h48.40.185,multiplicationStroop,2021.2.3,Linux armv8l,59.95203837,,,,,left,1,0.92,0,39,39,26,1,6,7,6 | 7,1,1.9756,1.4111,incongruent,left,,,,,,stimulusFile/physical.xlsx,,,,,,,,,,,,,,,,,,,,,,,,,,,,,,,
,,,,,,,,,,,,,,,755,2022-02-02_11h48.40.185,multiplicationStroop,2021.2.3,Linux armv8l,59.95203837,,,,,left,1,0.712,0,40,40,15,1,9,7,9 | 7,2,1.9756,1.4111,congruent,left,,,,,,stimulusFile/physical.xlsx,,,,,,,,,,,,,,,,,,,,,,,,,,,,,,,
,,,,,,,,,,,,,,,755,2022-02-02_11h48.40.185,multiplicationStroop,2021.2.3,Linux armv8l,59.95203837,,,,,right,1,0.688,0,41,41,18,1,3,8,3 | 8,5,1.4111,1.9756,congruent,right,,,,,,stimulusFile/physical.xlsx,,,,,,,,,,,,,,,,,,,,,,,,,,,,,,,
,,,,,,,,,,,,,,,755,2022-02-02_11h48.40.185,multiplicationStroop,2021.2.3,Linux armv8l,59.95203837,,,,,right,0,0.593,0,42,42,71,1,9,9,9 | 9,0,1.4111,1.9756,neutral,left,,,,,,stimulusFile/physical.xlsx,,,,,,,,,,,,,,,,,,,,,,,,,,,,,,,
,,,,,,,,,,,,,,,755,2022-02-02_11h48.40.185,multiplicationStroop,2021.2.3,Linux armv8l,59.95203837,,,,,right,1,0.527,0,43,43,59,1,7,7,7 | 7,0,1.4111,1.9756,neutral,right,,,,,,stimulusFile/physical.xlsx,,,,,,,,,,,,,,,,,,,,,,,,,,,,,,,
,,,,,,,,,,,,,,,755,2022-02-02_11h48.40.185,multiplicationStroop,2021.2.3,Linux armv8l,59.95203837,,,,,left,1,0.656,0,44,44,22,1,8,3,8 | 3,5,1.9756,1.4111,congruent,left,,,,,,stimulusFile/physical.xlsx,,,,,,,,,,,,,,,,,,,,,,,,,,,,,,,
,,,,,,,,,,,,,,,755,2022-02-02_11h48.40.185,multiplicationStroop,2021.2.3,Linux armv8l,59.95203837,,,,,left,1,0.626,0,45,45,7,1,9,8,9 | 8,1,1.9756,1.4111,congruent,left,,,,,,stimulusFile/physical.xlsx,,,,,,,,,,,,,,,,,,,,,,,,,,,,,,,
,,,,,,,,,,,,,,,755,2022-02-02_11h48.40.185,multiplicationStroop,2021.2.3,Linux armv8l,59.95203837,,,,,right,1,0.607,0,46,46,65,1,2,2,2 | 2,0,1.4111,1.9756,neutral,right,,,,,,stimulusFile/physical.xlsx,,,,,,,,,,,,,,,,,,,,,,,,,,,,,,,
,,,,,,,,,,,,,,,755,2022-02-02_11h48.40.185,multiplicationStroop,2021.2.3,Linux armv8l,59.95203837,,,,,right,1,0.508,0,47,47,46,1,8,3,8 | 3,5,1.4111,1.9756,incongruent,right,,,,,,stimulusFile/physical.xlsx,,,,,,,,,,,,,,,,,,,,,,,,,,,,,,,
,,,,,,,,,,,,,,,755,2022-02-02_11h48.40.185,multiplicationStroop,2021.2.3,Linux armv8l,59.95203837,,,,,right,0,0.401,0,48,48,49,1,3,3,3 | 3,0,1.9756,1.4111,neutral,left,,,,,,stimulusFile/physical.xlsx,,,,,,,,,,,,,,,,,,,,,,,,,,,,,,,
,,,,,,,,,,,,,,,755,2022-02-02_11h48.40.185,multiplicationStroop,2021.2.3,Linux armv8l,59.95203837,,,,,left,1,0.782,0,49,49,33,1,2,4,2 | 4,2,1.9756,1.4111,incongruent,left,,,,,,stimulusFile/physical.xlsx,,,,,,,,,,,,,,,,,,,,,,,,,,,,,,,
,,,,,,,,,,,,,,,755,2022-02-02_11h48.40.185,multiplicationStroop,2021.2.3,Linux armv8l,59.95203837,,,,,right,1,0.507,0,50,50,16,1,1,6,1 | 6,5,1.4111,1.9756,congruent,right,,,,,,stimulusFile/physical.xlsx,,,,,,,,,,,,,,,,,,,,,,,,,,,,,,,
,,,,,,,,,,,,,,,755,2022-02-02_11h48.40.185,multiplicationStroop,2021.2.3,Linux armv8l,59.95203837,,,,,left,1,0.836,0,51,51,55,1,9,9,9 | 9,0,1.9756,1.4111,neutral,left,,,,,,stimulusFile/physical.xlsx,,,,,,,,,,,,,,,,,,,,,,,,,,,,,,,
,,,,,,,,,,,,,,,755,2022-02-02_11h48.40.185,multiplicationStroop,2021.2.3,Linux armv8l,59.95203837,,,,,right,1,0.547,0,52,52,60,1,3,3,3 | 3,0,1.4111,1.9756,neutral,right,,,,,,stimulusFile/physical.xlsx,,,,,,,,,,,,,,,,,,,,,,,,,,,,,,,
,,,,,,,,,,,,,,,755,2022-02-02_11h48.40.185,multiplicationStroop,2021.2.3,Linux armv8l,59.95203837,,,,,right,1,0.493,0,53,53,47,1,9,4,9 | 4,5,1.4111,1.9756,incongruent,right,,,,,,stimulusFile/physical.xlsx,,,,,,,,,,,,,,,,,,,,,,,,,,,,,,,
,,,,,,,,,,,,,,,755,2022-02-02_11h48.40.185,multiplicationStroop,2021.2.3,Linux armv8l,59.95203837,,,,,right,1,0.601,0,54,54,1,1,3,4,3 | 4,1,1.4111,1.9756,congruent,right,,,,,,stimulusFile/physical.xlsx,,,,,,,,,,,,,,,,,,,,,,,,,,,,,,,
,,,,,,,,,,,,,,,755,2022-02-02_11h48.40.185,multiplicationStroop,2021.2.3,Linux armv8l,59.95203837,,,,,right,1,0.628,0,55,55,10,1,6,8,6 | 8,2,1.4111,1.9756,congruent,right,,,,,,stimulusFile/physical.xlsx,,,,,,,,,,,,,,,,,,,,,,,,,,,,,,,
,,,,,,,,,,,,,,,755,2022-02-02_11h48.40.185,multiplicationStroop,2021.2.3,Linux armv8l,59.95203837,,,,,left,1,0.695,0,56,56,14,1,8,6,8 | 6,2,1.9756,1.4111,congruent,left,,,,,,stimulusFile/physical.xlsx,,,,,,,,,,,,,,,,,,,,,,,,,,,,,,,
,,,,,,,,,,,,,,,755,2022-02-02_11h48.40.185,multiplicationStroop,2021.2.3,Linux armv8l,59.95203837,,,,,right,1,0.515,0,57,57,9,1,2,4,2 | 4,2,1.4111,1.9756,congruent,right,,,,,,stimulusFile/physical.xlsx,,,,,,,,,,,,,,,,,,,,,,,,,,,,,,,
,,,,,,,,,,,,,,,755,2022-02-02_11h48.40.185,multiplicationStroop,2021.2.3,Linux armv8l,59.95203837,,,,,right,1,0.581,0,58,58,30,1,7,6,7 | 6,1,1.4111,1.9756,incongruent,right,,,,,,stimulusFile/physical.xlsx,,,,,,,,,,,,,,,,,,,,,,,,,,,,,,,
,,,,,,,,,,,,,,,755,2022-02-02_11h48.40.185,multiplicationStroop,2021.2.3,Linux armv8l,59.95203837,,,,,right,1,0.458,0,59,59,11,1,7,9,7 | 9,2,1.4111,1.9756,congruent,right,,,,,,stimulusFile/physical.xlsx,,,,,,,,,,,,,,,,,,,,,,,,,,,,,,,
,,,,,,,,,,,,,,,755,2022-02-02_11h48.40.185,multiplicationStroop,2021.2.3,Linux armv8l,59.95203837,,,,,right,1,0.518,0,60,60,67,1,4,4,4 | 4,0,1.4111,1.9756,neutral,right,,,,,,stimulusFile/physical.xlsx,,,,,,,,,,,,,,,,,,,,,,,,,,,,,,,
,,,,,,,,,,,,,,,755,2022-02-02_11h48.40.185,multiplicationStroop,2021.2.3,Linux armv8l,59.95203837,,,,,left,1,1.077,0,61,61,34,1,6,8,6 | 8,2,1.9756,1.4111,incongruent,left,,,,,,stimulusFile/physical.xlsx,,,,,,,,,,,,,,,,,,,,,,,,,,,,,,,
,,,,,,,,,,,,,,,755,2022-02-02_11h48.40.185,multiplicationStroop,2021.2.3,Linux armv8l,59.95203837,,,,,left,1,0.734,0,62,62,35,1,7,9,7 | 9,2,1.9756,1.4111,incongruent,left,,,,,,stimulusFile/physical.xlsx,,,,,,,,,,,,,,,,,,,,,,,,,,,,,,,
,,,,,,,,,,,,,,,755,2022-02-02_11h48.40.185,multiplicationStroop,2021.2.3,Linux armv8l,59.95203837,,,,,right,1,0.554,0,63,63,8,1,1,3,1 | 3,2,1.4111,1.9756,congruent,right,,,,,,stimulusFile/physical.xlsx,,,,,,,,,,,,,,,,,,,,,,,,,,,,,,,
,,,,,,,,,,,,,,,755,2022-02-02_11h48.40.185,multiplicationStroop,2021.2.3,Linux armv8l,59.95203837,,,,,right,1,0.63,0,64,64,39,1,9,7,9 | 7,2,1.4111,1.9756,incongruent,right,,,,,,stimulusFile/physical.xlsx,,,,,,,,,,,,,,,,,,,,,,,,,,,,,,,
,,,,,,,,,,,,,,,755,2022-02-02_11h48.40.185,multiplicationStroop,2021.2.3,Linux armv8l,59.95203837,,,,,right,1,0.687,0,65,65,28,1,2,1,2 | 1,1,1.4111,1.9756,incongruent,right,,,,,,stimulusFile/physical.xlsx,,,,,,,,,,,,,,,,,,,,,,,,,,,,,,,
,,,,,,,,,,,,,,,755,2022-02-02_11h48.40.185,multiplicationStroop,2021.2.3,Linux armv8l,59.95203837,,,,,right,1,0.575,0,66,66,57,1,2,2,2 | 2,0,1.4111,1.9756,neutral,right,,,,,,stimulusFile/physical.xlsx,,,,,,,,,,,,,,,,,,,,,,,,,,,,,,,
,,,,,,,,,,,,,,,755,2022-02-02_11h48.40.185,multiplicationStroop,2021.2.3,Linux armv8l,59.95203837,,,,,left,1,0.637,0,67,67,5,1,4,3,4 | 3,1,1.9756,1.4111,congruent,left,,,,,,stimulusFile/physical.xlsx,,,,,,,,,,,,,,,,,,,,,,,,,,,,,,,
,,,,,,,,,,,,,,,755,2022-02-02_11h48.40.185,multiplicationStroop,2021.2.3,Linux armv8l,59.95203837,,,,,left,1,0.692,0,68,68,50,1,6,6,6 | 6,0,1.9756,1.4111,neutral,left,,,,,,stimulusFile/physical.xlsx,,,,,,,,,,,,,,,,,,,,,,,,,,,,,,,
,,,,,,,,,,,,,,,755,2022-02-02_11h48.40.185,multiplicationStroop,2021.2.3,Linux armv8l,59.95203837,,,,,left,1,1.075,0,69,69,42,1,3,8,3 | 8,5,1.9756,1.4111,incongruent,left,,,,,,stimulusFile/physical.xlsx,,,,,,,,,,,,,,,,,,,,,,,,,,,,,,,
,,,,,,,,,,,,,,,755,2022-02-02_11h48.40.185,multiplicationStroop,2021.2.3,Linux armv8l,59.95203837,,,,,left,1,0.671,0,70,70,20,1,6,1,6 | 1,5,1.9756,1.4111,congruent,left,,,,,,stimulusFile/physical.xlsx,,,,,,,,,,,,,,,,,,,,,,,,,,,,,,,
,,,,,,,,,,,,,,,755,2022-02-02_11h48.40.185,multiplicationStroop,2021.2.3,Linux armv8l,59.95203837,,,,,right,1,0.481,0,71,71,0,1,1,2,1 | 2,1,1.4111,1.9756,congruent,right,,,,,,stimulusFile/physical.xlsx,,,,,,,,,,,,,,,,,,,,,,,,,,,,,,,
,,,,,,,,,,,,,,,755,2022-02-02_11h48.40.185,multiplicationStroop,2021.2.3,Linux armv8l,59.95203837,,,,,,,,,,,,,,,,,,,,,0,0,0,1,1,stimulusFile/physical.xlsx,PHYSICALLY larger (larger font size).,images/physicallyLarger.png,,,,,,,,,,,,,,,,,,,,,,,,,,,,,
,,,,,,,,,,,,,,,755,2022-02-02_11h48.40.185,multiplicationStroop,2021.2.3,Linux armv8l,59.95203837,space,11.581,space,20.971,right,1,1.26,0,0,0,3,1,8,9,8 | 9,1,1.4111,1.9756,congruent,right,,,,,,stimulusFile/magnitude.xlsx,,,,,,,,,,,,,,,,,,,,,,,,,,,,,,,
,,,,,,,,,,,,,,,755,2022-02-02_11h48.40.185,multiplicationStroop,2021.2.3,Linux armv8l,59.95203837,,,,,right,0,0.524,0,1,1,36,1,3,1,3 | 1,2,1.4111,1.9756,incongruent,left,,,,,,stimulusFile/magnitude.xlsx,,,,,,,,,,,,,,,,,,,,,,,,,,,,,,,
,,,,,,,,,,,,,,,755,2022-02-02_11h48.40.185,multiplicationStroop,2021.2.3,Linux armv8l,59.95203837,,,,,right,1,0.512,0,2,2,1,1,3,4,3 | 4,1,1.4111,1.9756,congruent,right,,,,,,stimulusFile/magnitude.xlsx,,,,,,,,,,,,,,,,,,,,,,,,,,,,,,,
,,,,,,,,,,,,,,,755,2022-02-02_11h48.40.185,multiplicationStroop,2021.2.3,Linux armv8l,59.95203837,,,,,left,1,0.864,0,3,3,68,1,6,1,6 | 1,5,1.6933,1.6933,neutral,left,,,,,,stimulusFile/magnitude.xlsx,,,,,,,,,,,,,,,,,,,,,,,,,,,,,,,
,,,,,,,,,,,,,,,755,2022-02-02_11h48.40.185,multiplicationStroop,2021.2.3,Linux armv8l,59.95203837,,,,,left,1,2.404,0,4,4,53,1,4,3,4 | 3,1,1.6933,1.6933,neutral,left,,,,,,stimulusFile/magnitude.xlsx,,,,,,,,,,,,,,,,,,,,,,,,,,,,,,,
,,,,,,,,,,,,,,,755,2022-02-02_11h48.40.185,multiplicationStroop,2021.2.3,Linux armv8l,59.95203837,,,,,left,1,1.433,0,5,5,55,1,9,8,9 | 8,1,1.6933,1.6933,neutral,left,,,,,,stimulusFile/magnitude.xlsx,,,,,,,,,,,,,,,,,,,,,,,,,,,,,,,
,,,,,,,,,,,,,,,755,2022-02-02_11h48.40.185,multiplicationStroop,2021.2.3,Linux armv8l,59.95203837,,,,,left,0,0.938,0,6,6,26,1,6,7,6 | 7,1,1.9756,1.4111,incongruent,right,,,,,,stimulusFile/magnitude.xlsx,,,,,,,,,,,,,,,,,,,,,,,,,,,,,,,
,,,,,,,,,,,,,,,755,2022-02-02_11h48.40.185,multiplicationStroop,2021.2.3,Linux armv8l,59.95203837,,,,,right,1,0.528,0,7,7,10,1,6,8,6 | 8,2,1.4111,1.9756,congruent,right,,,,,,stimulusFile/magnitude.xlsx,,,,,,,,,,,,,,,,,,,,,,,,,,,,,,,
,,,,,,,,,,,,,,,755,2022-02-02_11h48.40.185,multiplicationStroop,2021.2.3,Linux armv8l,59.95203837,,,,,right,1,0.5,0,8,8,2,1,6,7,6 | 7,1,1.4111,1.9756,congruent,right,,,,,,stimulusFile/magnitude.xlsx,,,,,,,,,,,,,,,,,,,,,,,,,,,,,,,
,,,,,,,,,,,,,,,755,2022-02-02_11h48.40.185,multiplicationStroop,2021.2.3,Linux armv8l,59.95203837,,,,,right,0,6.368,0,9,9,61,1,4,2,4 | 2,2,1.6933,1.6933,neutral,left,,,,,,stimulusFile/magnitude.xlsx,,,,,,,,,,,,,,,,,,,,,,,,,,,,,,,
,,,,,,,,,,,,,,,755,2022-02-02_11h48.40.185,multiplicationStroop,2021.2.3,Linux armv8l,59.95203837,,,,,left,0,1.333,0,10,10,51,1,8,9,8 | 9,1,1.6933,1.6933,neutral,right,,,,,,stimulusFile/magnitude.xlsx,,,,,,,,,,,,,,,,,,,,,,,,,,,,,,,
,,,,,,,,,,,,,,,755,2022-02-02_11h48.40.185,multiplicationStroop,2021.2.3,Linux armv8l,59.95203837,,,,,left,1,0.578,0,11,11,20,1,6,1,6 | 1,5,1.9756,1.4111,congruent,left,,,,,,stimulusFile/magnitude.xlsx,,,,,,,,,,,,,,,,,,,,,,,,,,,,,,,
,,,,,,,,,,,,,,,755,2022-02-02_11h48.40.185,multiplicationStroop,2021.2.3,Linux armv8l,59.95203837,,,,,left,0,0.582,0,12,12,33,1,2,4,2 | 4,2,1.9756,1.4111,incongruent,right,,,,,,stimulusFile/magnitude.xlsx,,,,,,,,,,,,,,,,,,,,,,,,,,,,,,,
,,,,,,,,,,,,,,,755,2022-02-02_11h48.40.185,multiplicationStroop,2021.2.3,Linux armv8l,59.95203837,,,,,right,1,0.555,0,13,13,17,1,2,7,2 | 7,5,1.4111,1.9756,congruent,right,,,,,,stimulusFile/magnitude.xlsx,,,,,,,,,,,,,,,,,,,,,,,,,,,,,,,
,,,,,,,,,,,,,,,755,2022-02-02_11h48.40.185,multiplicationStroop,2021.2.3,Linux armv8l,59.95203837,,,,,left,1,0.58,0,14,14,23,1,9,4,9 | 4,5,1.9756,1.4111,congruent,left,,,,,,stimulusFile/magnitude.xlsx,,,,,,,,,,,,,,,,,,,,,,,,,,,,,,,
,,,,,,,,,,,,,,,755,2022-02-02_11h48.40.185,multiplicationStroop,2021.2.3,Linux armv8l,59.95203837,,,,,right,1,0.566,0,15,15,18,1,3,8,3 | 8,5,1.4111,1.9756,congruent,right,,,,,,stimulusFile/magnitude.xlsx,,,,,,,,,,,,,,,,,,,,,,,,,,,,,,,
,,,,,,,,,,,,,,,755,2022-02-02_11h48.40.185,multiplicationStroop,2021.2.3,Linux armv8l,59.95203837,,,,,right,1,2.888,0,16,16,67,1,4,9,4 | 9,5,1.6933,1.6933,neutral,right,,,,,,stimulusFile/magnitude.xlsx,,,,,,,,,,,,,,,,,,,,,,,,,,,,,,,
,,,,,,,,,,,,,,,755,2022-02-02_11h48.40.185,multiplicationStroop,2021.2.3,Linux armv8l,59.95203837,,,,,left,0,0.65,0,17,17,40,1,1,6,1 | 6,5,1.9756,1.4111,incongruent,right,,,,,,stimulusFile/magnitude.xlsx,,,,,,,,,,,,,,,,,,,,,,,,,,,,,,,
,,,,,,,,,,,,,,,755,2022-02-02_11h48.40.185,multiplicationStroop,2021.2.3,Linux armv8l,59.95203837,,,,,left,0,3.239,0,18,18,48,1,1,2,1 | 2,1,1.6933,1.6933,neutral,right,,,,,,stimulusFile/magnitude.xlsx,,,,,,,,,,,,,,,,,,,,,,,,,,,,,,,
,,,,,,,,,,,,,,,755,2022-02-02_11h48.40.185,multiplicationStroop,2021.2.3,Linux armv8l,59.95203837,,,,,right,0,0.662,0,19,19,70,1,8,3,8 | 3,5,1.6933,1.6933,neutral,left,,,,,,stimulusFile/magnitude.xlsx,,,,,,,,,,,,,,,,,,,,,,,,,,,,,,,
,,,,,,,,,,,,,,,755,2022-02-02_11h48.40.185,multiplicationStroop,2021.2.3,Linux armv8l,59.95203837,,,,,left,1,0.703,0,20,20,14,1,8,6,8 | 6,2,1.9756,1.4111,congruent,left,,,,,,stimulusFile/magnitude.xlsx,,,,,,,,,,,,,,,,,,,,,,,,,,,,,,,
,,,,,,,,,,,,,,,755,2022-02-02_11h48.40.185,multiplicationStroop,2021.2.3,Linux armv8l,59.95203837,,,,,right,0,1.255,0,21,21,69,1,7,2,7 | 2,5,1.6933,1.6933,neutral,left,,,,,,stimulusFile/magnitude.xlsx,,,,,,,,,,,,,,,,,,,,,,,,,,,,,,,
,,,,,,,,,,,,,,,755,2022-02-02_11h48.40.185,multiplicationStroop,2021.2.3,Linux armv8l,59.95203837,,,,,right,1,1.892,0,22,22,56,1,1,3,1 | 3,2,1.6933,1.6933,neutral,right,,,,,,stimulusFile/magnitude.xlsx,,,,,,,,,,,,,,,,,,,,,,,,,,,,,,,
,,,,,,,,,,,,,,,755,2022-02-02_11h48.40.185,multiplicationStroop,2021.2.3,Linux armv8l,59.95203837,,,,,left,1,0.603,0,23,23,7,1,9,8,9 | 8,1,1.9756,1.4111,congruent,left,,,,,,stimulusFile/magnitude.xlsx,,,,,,,,,,,,,,,,,,,,,,,,,,,,,,,
,,,,,,,,,,,,,,,755,2022-02-02_11h48.40.185,multiplicationStroop,2021.2.3,Linux armv8l,59.95203837,,,,,right,0,0.592,0,24,24,28,1,2,1,2 | 1,1,1.4111,1.9756,incongruent,left,,,,,,stimulusFile/magnitude.xlsx,,,,,,,,,,,,,,,,,,,,,,,,,,,,,,,
,,,,,,,,,,,,,,,755,2022-02-02_11h48.40.185,multiplicationStroop,2021.2.3,Linux armv8l,59.95203837,,,,,left,1,0.606,0,25,25,60,1,3,1,3 | 1,2,1.6933,1.6933,neutral,left,,,,,,stimulusFile/magnitude.xlsx,,,,,,,,,,,,,,,,,,,,,,,,,,,,,,,
,,,,,,,,,,,,,,,755,2022-02-02_11h48.40.185,multiplicationStroop,2021.2.3,Linux armv8l,59.95203837,,,,,left,1,1.899,0,26,26,71,1,9,4,9 | 4,5,1.6933,1.6933,neutral,left,,,,,,stimulusFile/magnitude.xlsx,,,,,,,,,,,,,,,,,,,,,,,,,,,,,,,
,,,,,,,,,,,,,,,755,2022-02-02_11h48.40.185,multiplicationStroop,2021.2.3,Linux armv8l,59.95203837,,,,,left,1,0.539,0,27,27,5,1,4,3,4 | 3,1,1.9756,1.4111,congruent,left,,,,,,stimulusFile/magnitude.xlsx,,,,,,,,,,,,,,,,,,,,,,,,,,,,,,,
,,,,,,,,,,,,,,,755,2022-02-02_11h48.40.185,multiplicationStroop,2021.2.3,Linux armv8l,59.95203837,,,,,right,0,1.46,0,28,28,54,1,7,6,7 | 6,1,1.6933,1.6933,neutral,left,,,,,,stimulusFile/magnitude.xlsx,,,,,,,,,,,,,,,,,,,,,,,,,,,,,,,
,,,,,,,,,,,,,,,755,2022-02-02_11h48.40.185,multiplicationStroop,2021.2.3,Linux armv8l,59.95203837,,,,,left,1,0.756,0,29,29,4,1,2,1,2 | 1,1,1.9756,1.4111,congruent,left,,,,,,stimulusFile/magnitude.xlsx,,,,,,,,,,,,,,,,,,,,,,,,,,,,,,,
,,,,,,,,,,,,,,,755,2022-02-02_11h48.40.185,multiplicationStroop,2021.2.3,Linux armv8l,59.95203837,,,,,left,1,0.727,0,30,30,6,1,7,6,7 | 6,1,1.9756,1.4111,congruent,left,,,,,,stimulusFile/magnitude.xlsx,,,,,,,,,,,,,,,,,,,,,,,,,,,,,,,
,,,,,,,,,,,,,,,755,2022-02-02_11h48.40.185,multiplicationStroop,2021.2.3,Linux armv8l,59.95203837,,,,,right,1,0.966,0,31,31,49,1,3,4,3 | 4,1,1.6933,1.6933,neutral,right,,,,,,stimulusFile/magnitude.xlsx,,,,,,,,,,,,,,,,,,,,,,,,,,,,,,,
,,,,,,,,,,,,,,,755,2022-02-02_11h48.40.185,multiplicationStroop,2021.2.3,Linux armv8l,59.95203837,,,,,left,0,0.688,0,32,32,24,1,1,2,1 | 2,1,1.9756,1.4111,incongruent,right,,,,,,stimulusFile/magnitude.xlsx,,,,,,,,,,,,,,,,,,,,,,,,,,,,,,,
,,,,,,,,,,,,,,,755,2022-02-02_11h48.40.185,multiplicationStroop,2021.2.3,Linux armv8l,59.95203837,,,,,right,0,0.64,0,33,33,30,1,7,6,7 | 6,1,1.4111,1.9756,incongruent,left,,,,,,stimulusFile/magnitude.xlsx,,,,,,,,,,,,,,,,,,,,,,,,,,,,,,,
,,,,,,,,,,,,,,,755,2022-02-02_11h48.40.185,multiplicationStroop,2021.2.3,Linux armv8l,59.95203837,,,,,right,0,0.583,0,34,34,46,1,8,3,8 | 3,5,1.4111,1.9756,incongruent,left,,,,,,stimulusFile/magnitude.xlsx,,,,,,,,,,,,,,,,,,,,,,,,,,,,,,,
,,,,,,,,,,,,,,,755,2022-02-02_11h48.40.185,multiplicationStroop,2021.2.3,Linux armv8l,59.95203837,,,,,right,0,0.572,0,35,35,47,1,9,4,9 | 4,5,1.4111,1.9756,incongruent,left,,,,,,stimulusFile/magnitude.xlsx,,,,,,,,,,,,,,,,,,,,,,,,,,,,,,,
,,,,,,,,,,,,,,,755,2022-02-02_11h48.40.185,multiplicationStroop,2021.2.3,Linux armv8l,59.95203837,,,,,right,1,0.863,0,36,36,64,1,1,6,1 | 6,5,1.6933,1.6933,neutral,right,,,,,,stimulusFile/magnitude.xlsx,,,,,,,,,,,,,,,,,,,,,,,,,,,,,,,
,,,,,,,,,,,,,,,755,2022-02-02_11h48.40.185,multiplicationStroop,2021.2.3,Linux armv8l,59.95203837,,,,,left,0,0.672,0,37,37,34,1,6,8,6 | 8,2,1.9756,1.4111,incongruent,right,,,,,,stimulusFile/magnitude.xlsx,,,,,,,,,,,,,,,,,,,,,,,,,,,,,,,
,,,,,,,,,,,,,,,755,2022-02-02_11h48.40.185,multiplicationStroop,2021.2.3,Linux armv8l,59.95203837,,,,,left,0,1.308,0,38,38,42,1,3,8,3 | 8,5,1.9756,1.4111,incongruent,right,,,,,,stimulusFile/magnitude.xlsx,,,,,,,,,,,,,,,,,,,,,,,,,,,,,,,
,,,,,,,,,,,,,,,755,2022-02-02_11h48.40.185,multiplicationStroop,2021.2.3,Linux armv8l,59.95203837,,,,,left,0,0.623,0,39,39,25,1,3,4,3 | 4,1,1.9756,1.4111,incongruent,right,,,,,,stimulusFile/magnitude.xlsx,,,,,,,,,,,,,,,,,,,,,,,,,,,,,,,
,,,,,,,,,,,,,,,755,2022-02-02_11h48.40.185,multiplicationStroop,2021.2.3,Linux armv8l,59.95203837,,,,,left,0,0.701,0,40,40,27,1,8,9,8 | 9,1,1.9756,1.4111,incongruent,right,,,,,,stimulusFile/magnitude.xlsx,,,,,,,,,,,,,,,,,,,,,,,,,,,,,,,
,,,,,,,,,,,,,,,755,2022-02-02_11h48.40.185,multiplicationStroop,2021.2.3,Linux armv8l,59.95203837,,,,,right,1,1.474,0,41,41,65,1,2,7,2 | 7,5,1.6933,1.6933,neutral,right,,,,,,stimulusFile/magnitude.xlsx,,,,,,,,,,,,,,,,,,,,,,,,,,,,,,,
,,,,,,,,,,,,,,,755,2022-02-02_11h48.40.185,multiplicationStroop,2021.2.3,Linux armv8l,59.95203837,,,,,right,1,0.518,0,42,42,11,1,7,9,7 | 9,2,1.4111,1.9756,congruent,right,,,,,,stimulusFile/magnitude.xlsx,,,,,,,,,,,,,,,,,,,,,,,,,,,,,,,
,,,,,,,,,,,,,,,755,2022-02-02_11h48.40.185,multiplicationStroop,2021.2.3,Linux armv8l,59.95203837,,,,,right,1,0.52,0,43,43,0,1,1,2,1 | 2,1,1.4111,1.9756,congruent,right,,,,,,stimulusFile/magnitude.xlsx,,,,,,,,,,,,,,,,,,,,,,,,,,,,,,,
,,,,,,,,,,,,,,,755,2022-02-02_11h48.40.185,multiplicationStroop,2021.2.3,Linux armv8l,59.95203837,,,,,right,0,0.789,0,44,44,63,1,9,7,9 | 7,2,1.6933,1.6933,neutral,left,,,,,,stimulusFile/magnitude.xlsx,,,,,,,,,,,,,,,,,,,,,,,,,,,,,,,
,,,,,,,,,,,,,,,755,2022-02-02_11h48.40.185,multiplicationStroop,2021.2.3,Linux armv8l,59.95203837,,,,,left,1,0.675,0,45,45,15,1,9,7,9 | 7,2,1.9756,1.4111,congruent,left,,,,,,stimulusFile/magnitude.xlsx,,,,,,,,,,,,,,,,,,,,,,,,,,,,,,,
,,,,,,,,,,,,,,,755,2022-02-02_11h48.40.185,multiplicationStroop,2021.2.3,Linux armv8l,59.95203837,,,,,right,1,0.793,0,46,46,50,1,6,7,6 | 7,1,1.6933,1.6933,neutral,right,,,,,,stimulusFile/magnitude.xlsx,,,,,,,,,,,,,,,,,,,,,,,,,,,,,,,
,,,,,,,,,,,,,,,755,2022-02-02_11h48.40.185,multiplicationStroop,2021.2.3,Linux armv8l,59.95203837,,,,,right,1,0.622,0,47,47,9,1,2,4,2 | 4,2,1.4111,1.9756,congruent,right,,,,,,stimulusFile/magnitude.xlsx,,,,,,,,,,,,,,,,,,,,,,,,,,,,,,,
,,,,,,,,,,,,,,,755,2022-02-02_11h48.40.185,multiplicationStroop,2021.2.3,Linux armv8l,59.95203837,,,,,right,1,0.492,0,48,48,19,1,4,9,4 | 9,5,1.4111,1.9756,congruent,right,,,,,,stimulusFile/magnitude.xlsx,,,,,,,,,,,,,,,,,,,,,,,,,,,,,,,
,,,,,,,,,,,,,,,755,2022-02-02_11h48.40.185,multiplicationStroop,2021.2.3,Linux armv8l,59.95203837,,,,,right,0,0.706,0,49,49,29,1,4,3,4 | 3,1,1.4111,1.9756,incongruent,left,,,,,,stimulusFile/magnitude.xlsx,,,,,,,,,,,,,,,,,,,,,,,,,,,,,,,
,,,,,,,,,,,,,,,755,2022-02-02_11h48.40.185,multiplicationStroop,2021.2.3,Linux armv8l,59.95203837,,,,,right,0,0.542,0,50,50,31,1,9,8,9 | 8,1,1.4111,1.9756,incongruent,left,,,,,,stimulusFile/magnitude.xlsx,,,,,,,,,,,,,,,,,,,,,,,,,,,,,,,
,,,,,,,,,,,,,,,755,2022-02-02_11h48.40.185,multiplicationStroop,2021.2.3,Linux armv8l,59.95203837,,,,,right,0,0.828,0,51,51,44,1,6,1,6 | 1,5,1.4111,1.9756,incongruent,left,,,,,,stimulusFile/magnitude.xlsx,,,,,,,,,,,,,,,,,,,,,,,,,,,,,,,
,,,,,,,,,,,,,,,755,2022-02-02_11h48.40.185,multiplicationStroop,2021.2.3,Linux armv8l,59.95203837,,,,,right,0,0.561,0,52,52,45,1,7,2,7 | 2,5,1.4111,1.9756,incongruent,left,,,,,,stimulusFile/magnitude.xlsx,,,,,,,,,,,,,,,,,,,,,,,,,,,,,,,
,,,,,,,,,,,,,,,755,2022-02-02_11h48.40.185,multiplicationStroop,2021.2.3,Linux armv8l,59.95203837,,,,,right,1,0.49,0,53,53,58,1,6,8,6 | 8,2,1.6933,1.6933,neutral,right,,,,,,stimulusFile/magnitude.xlsx,,,,,,,,,,,,,,,,,,,,,,,,,,,,,,,
,,,,,,,,,,,,,,,755,2022-02-02_11h48.40.185,multiplicationStroop,2021.2.3,Linux armv8l,59.95203837,,,,,right,1,0.585,0,54,54,16,1,1,6,1 | 6,5,1.4111,1.9756,congruent,right,,,,,,stimulusFile/magnitude.xlsx,,,,,,,,,,,,,,,,,,,,,,,,,,,,,,,
,,,,,,,,,,,,,,,755,2022-02-02_11h48.40.185,multiplicationStroop,2021.2.3,Linux armv8l,59.95203837,,,,,right,0,0.437,0,55,55,39,1,9,7,9 | 7,2,1.4111,1.9756,incongruent,left,,,,,,stimulusFile/magnitude.xlsx,,,,,,,,,,,,,,,,,,,,,,,,,,,,,,,
,,,,,,,,,,,,,,,755,2022-02-02_11h48.40.185,multiplicationStroop,2021.2.3,Linux armv8l,59.95203837,,,,,left,1,0.631,0,56,56,21,1,7,2,7 | 2,5,1.9756,1.4111,congruent,left,,,,,,stimulusFile/magnitude.xlsx,,,,,,,,,,,,,,,,,,,,,,,,,,,,,,,
,,,,,,,,,,,,,,,755,2022-02-02_11h48.40.185,multiplicationStroop,2021.2.3,Linux armv8l,59.95203837,,,,,right,0,0.583,0,57,57,37,1,4,2,4 | 2,2,1.4111,1.9756,incongruent,left,,,,,,stimulusFile/magnitude.xlsx,,,,,,,,,,,,,,,,,,,,,,,,,,,,,,,
,,,,,,,,,,,,,,,755,2022-02-02_11h48.40.185,multiplicationStroop,2021.2.3,Linux armv8l,59.95203837,,,,,left,0,1.967,0,58,58,66,1,3,8,3 | 8,5,1.6933,1.6933,neutral,right,,,,,,stimulusFile/magnitude.xlsx,,,,,,,,,,,,,,,,,,,,,,,,,,,,,,,
,,,,,,,,,,,,,,,755,2022-02-02_11h48.40.185,multiplicationStroop,2021.2.3,Linux armv8l,59.95203837,,,,,left,1,0.542,0,59,59,13,1,4,2,4 | 2,2,1.9756,1.4111,congruent,left,,,,,,stimulusFile/magnitude.xlsx,,,,,,,,,,,,,,,,,,,,,,,,,,,,,,,
,,,,,,,,,,,,,,,755,2022-02-02_11h48.40.185,multiplicationStroop,2021.2.3,Linux armv8l,59.95203837,,,,,left,0,0.685,0,60,60,41,1,2,7,2 | 7,5,1.9756,1.4111,incongruent,right,,,,,,stimulusFile/magnitude.xlsx,,,,,,,,,,,,,,,,,,,,,,,,,,,,,,,
,,,,,,,,,,,,,,,755,2022-02-02_11h48.40.185,multiplicationStroop,2021.2.3,Linux armv8l,59.95203837,,,,,left,0,0.595,0,61,61,35,1,7,9,7 | 9,2,1.9756,1.4111,incongruent,right,,,,,,stimulusFile/magnitude.xlsx,,,,,,,,,,,,,,,,,,,,,,,,,,,,,,,
,,,,,,,,,,,,,,,755,2022-02-02_11h48.40.185,multiplicationStroop,2021.2.3,Linux armv8l,59.95203837,,,,,right,0,0.605,0,62,62,38,1,8,6,8 | 6,2,1.4111,1.9756,incongruent,left,,,,,,stimulusFile/magnitude.xlsx,,,,,,,,,,,,,,,,,,,,,,,,,,,,,,,
,,,,,,,,,,,,,,,755,2022-02-02_11h48.40.185,multiplicationStroop,2021.2.3,Linux armv8l,59.95203837,,,,,right,1,1.054,0,63,63,57,1,2,4,2 | 4,2,1.6933,1.6933,neutral,right,,,,,,stimulusFile/magnitude.xlsx,,,,,,,,,,,,,,,,,,,,,,,,,,,,,,,
,,,,,,,,,,,,,,,755,2022-02-02_11h48.40.185,multiplicationStroop,2021.2.3,Linux armv8l,59.95203837,,,,,left,0,0.699,0,64,64,43,1,4,9,4 | 9,5,1.9756,1.4111,incongruent,right,,,,,,stimulusFile/magnitude.xlsx,,,,,,,,,,,,,,,,,,,,,,,,,,,,,,,
,,,,,,,,,,,,,,,755,2022-02-02_11h48.40.185,multiplicationStroop,2021.2.3,Linux armv8l,59.95203837,,,,,right,1,0.577,0,65,65,59,1,7,9,7 | 9,2,1.6933,1.6933,neutral,right,,,,,,stimulusFile/magnitude.xlsx,,,,,,,,,,,,,,,,,,,,,,,,,,,,,,,
,,,,,,,,,,,,,,,755,2022-02-02_11h48.40.185,multiplicationStroop,2021.2.3,Linux armv8l,59.95203837,,,,,left,0,0.708,0,66,66,32,1,1,3,1 | 3,2,1.9756,1.4111,incongruent,right,,,,,,stimulusFile/magnitude.xlsx,,,,,,,,,,,,,,,,,,,,,,,,,,,,,,,
,,,,,,,,,,,,,,,755,2022-02-02_11h48.40.185,multiplicationStroop,2021.2.3,Linux armv8l,59.95203837,,,,,left,1,1.279,0,67,67,62,1,8,6,8 | 6,2,1.6933,1.6933,neutral,left,,,,,,stimulusFile/magnitude.xlsx,,,,,,,,,,,,,,,,,,,,,,,,,,,,,,,
,,,,,,,,,,,,,,,755,2022-02-02_11h48.40.185,multiplicationStroop,2021.2.3,Linux armv8l,59.95203837,,,,,left,1,0.5,0,68,68,12,1,3,1,3 | 1,2,1.9756,1.4111,congruent,left,,,,,,stimulusFile/magnitude.xlsx,,,,,,,,,,,,,,,,,,,,,,,,,,,,,,,
,,,,,,,,,,,,,,,755,2022-02-02_11h48.40.185,multiplicationStroop,2021.2.3,Linux armv8l,59.95203837,,,,,left,1,0.602,0,69,69,22,1,8,3,8 | 3,5,1.9756,1.4111,congruent,left,,,,,,stimulusFile/magnitude.xlsx,,,,,,,,,,,,,,,,,,,,,,,,,,,,,,,
,,,,,,,,,,,,,,,755,2022-02-02_11h48.40.185,multiplicationStroop,2021.2.3,Linux armv8l,59.95203837,,,,,right,1,0.573,0,70,70,8,1,1,3,1 | 3,2,1.4111,1.9756,congruent,right,,,,,,stimulusFile/magnitude.xlsx,,,,,,,,,,,,,,,,,,,,,,,,,,,,,,,
,,,,,,,,,,,,,,,755,2022-02-02_11h48.40.185,multiplicationStroop,2021.2.3,Linux armv8l,59.95203837,,,,,left,1,0.507,0,71,71,52,1,2,1,2 | 1,1,1.6933,1.6933,neutral,left,,,,,,stimulusFile/magnitude.xlsx,,,,,,,,,,,,,,,,,,,,,,,,,,,,,,,
,,,,,,,,,,,,,,,755,2022-02-02_11h48.40.185,multiplicationStroop,2021.2.3,Linux armv8l,59.95203837,,,,,,,,,,,,,,,,,,,,,0,1,1,0,1,stimulusFile/magnitude.xlsx,NUMERICALLY larger (larger coefficient).,images/numericallyLarger.png,,,,,,,,,,,,,,,,,,,,,,,,,,,,,
,,,,,,,,,,,,,,,755,2022-02-02_11h48.40.185,multiplicationStroop,2021.2.3,Linux armv8l,59.95203837,,,,,,,,,,,,,,,,,,,,,,,,,,,,,space,7.343,space,2.123,16,5.02,1,0,0,0,5,1,2,×,8,2 × 8,congruent,smallerFirst,1,2,16,,,,,,,,
,,,,,,,,,,,,,,,755,2022-02-02_11h48.40.185,multiplicationStroop,2021.2.3,Linux armv8l,59.95203837,,,,,,,,,,,,,,,,,,,,,,,,,,,,,,,,,14,1.946,1,0,1,1,14,1,7,×,2,7 × 2,congruent,largerFirst,2,1,14,,,,,,,,
,,,,,,,,,,,,,,,755,2022-02-02_11h48.40.185,multiplicationStroop,2021.2.3,Linux armv8l,59.95203837,,,,,,,,,,,,,,,,,,,,,,,,,,,,,,,,,15,1.631,1,0,2,2,4,1,3,×,5,3 × 5,congruent,smallerFirst,1,2,15,,,,,,,,
,,,,,,,,,,,,,,,755,2022-02-02_11h48.40.185,multiplicationStroop,2021.2.3,Linux armv8l,59.95203837,,,,,,,,,,,,,,,,,,,,,,,,,,,,,,,,,42,2.048,1,0,3,3,3,1,6,×,7,6 × 7,congruent,smallerFirst,1,2,42,,,,,,,,
,,,,,,,,,,,,,,,755,2022-02-02_11h48.40.185,multiplicationStroop,2021.2.3,Linux armv8l,59.95203837,,,,,,,,,,,,,,,,,,,,,,,,,,,,,,,,,36,2.795,1,0,4,4,32,1,6,×,6,6 × 6,neutral,tie,2,1,36,,,,,,,,
,,,,,,,,,,,,,,,755,2022-02-02_11h48.40.185,multiplicationStroop,2021.2.3,Linux armv8l,59.95203837,,,,,,,,,,,,,,,,,,,,,,,,,,,,,,,,,24,1.681,1,0,5,5,25,1,6,×,4,6 × 4,congruent,largerFirst,2,1,24,,,,,,,,
,,,,,,,,,,,,,,,755,2022-02-02_11h48.40.185,multiplicationStroop,2021.2.3,Linux armv8l,59.95203837,,,,,,,,,,,,,,,,,,,,,,,,,,,,,,,,,10,1.962,1,0,6,6,24,1,5,×,2,5 × 2,congruent,largerFirst,2,1,10,,,,,,,,
,,,,,,,,,,,,,,,755,2022-02-02_11h48.40.185,multiplicationStroop,2021.2.3,Linux armv8l,59.95203837,,,,,,,,,,,,,,,,,,,,,,,,,,,,,,,,,2,1.83,0,0,7,7,7,1,4,×,5,4 × 5,congruent,smallerFirst,1,2,20,,,,,,,,
,,,,,,,,,,,,,,,755,2022-02-02_11h48.40.185,multiplicationStroop,2021.2.3,Linux armv8l,59.95203837,,,,,,,,,,,,,,,,,,,,,,,,,,,,,,,,,32,2.179,1,0,8,8,20,1,8,×,4,8 × 4,congruent,largerFirst,2,1,32,,,,,,,,
,,,,,,,,,,,,,,,755,2022-02-02_11h48.40.185,multiplicationStroop,2021.2.3,Linux armv8l,59.95203837,,,,,,,,,,,,,,,,,,,,,,,,,,,,,,,,,72,2.358,1,0,9,9,17,1,9,×,8,9 × 8,congruent,largerFirst,2,1,72,,,,,,,,
,,,,,,,,,,,,,,,755,2022-02-02_11h48.40.185,multiplicationStroop,2021.2.3,Linux armv8l,59.95203837,,,,,,,,,,,,,,,,,,,,,,,,,,,,,,,,,8,1.914,1,0,10,10,9,1,2,×,4,2 × 4,congruent,smallerFirst,1,2,8,,,,,,,,
,,,,,,,,,,,,,,,755,2022-02-02_11h48.40.185,multiplicationStroop,2021.2.3,Linux armv8l,59.95203837,,,,,,,,,,,,,,,,,,,,,,,,,,,,,,,,,9,1.83,1,0,11,11,29,1,3,×,3,3 × 3,neutral,tie,2,1,9,,,,,,,,
,,,,,,,,,,,,,,,755,2022-02-02_11h48.40.185,multiplicationStroop,2021.2.3,Linux armv8l,59.95203837,,,,,,,,,,,,,,,,,,,,,,,,,,,,,,,,,6,1.695,1,0,12,12,13,1,2,×,3,2 × 3,congruent,smallerFirst,1,2,6,,,,,,,,
,,,,,,,,,,,,,,,755,2022-02-02_11h48.40.185,multiplicationStroop,2021.2.3,Linux armv8l,59.95203837,,,,,,,,,,,,,,,,,,,,,,,,,,,,,,,,,30,2.095,1,0,13,13,15,1,6,×,5,6 × 5,congruent,largerFirst,2,1,30,,,,,,,,
,,,,,,,,,,,,,,,755,2022-02-02_11h48.40.185,multiplicationStroop,2021.2.3,Linux armv8l,59.95203837,,,,,,,,,,,,,,,,,,,,,,,,,,,,,,,,,24,1.797,1,0,14,14,10,1,3,×,8,3 × 8,congruent,smallerFirst,1,2,24,,,,,,,,
,,,,,,,,,,,,,,,755,2022-02-02_11h48.40.185,multiplicationStroop,2021.2.3,Linux armv8l,59.95203837,,,,,,,,,,,,,,,,,,,,,,,,,,,,,,,,,25,1.796,1,0,15,15,31,1,5,×,5,5 × 5,neutral,tie,2,1,25,,,,,,,,
,,,,,,,,,,,,,,,755,2022-02-02_11h48.40.185,multiplicationStroop,2021.2.3,Linux armv8l,59.95203837,,,,,,,,,,,,,,,,,,,,,,,,,,,,,,,,,49,2.23,1,0,16,16,33,1,7,×,7,7 × 7,neutral,tie,2,1,49,,,,,,,,
,,,,,,,,,,,,,,,755,2022-02-02_11h48.40.185,multiplicationStroop,2021.2.3,Linux armv8l,59.95203837,,,,,,,,,,,,,,,,,,,,,,,,,,,,,,,,,64,2.129,1,0,17,17,34,1,8,×,8,8 × 8,neutral,tie,2,1,64,,,,,,,,
,,,,,,,,,,,,,,,755,2022-02-02_11h48.40.185,multiplicationStroop,2021.2.3,Linux armv8l,59.95203837,,,,,,,,,,,,,,,,,,,,,,,,,,,,,,,,,56,2.312,1,0,18,18,8,1,7,×,8,7 × 8,congruent,smallerFirst,1,2,56,,,,,,,,
,,,,,,,,,,,,,,,755,2022-02-02_11h48.40.185,multiplicationStroop,2021.2.3,Linux armv8l,59.95203837,,,,,,,,,,,,,,,,,,,,,,,,,,,,,,,,,4,1.529,1,0,19,19,28,1,2,×,2,2 × 2,neutral,tie,2,1,4,,,,,,,,
,,,,,,,,,,,,,,,755,2022-02-02_11h48.40.185,multiplicationStroop,2021.2.3,Linux armv8l,59.95203837,,,,,,,,,,,,,,,,,,,,,,,,,,,,,,,,,54,2.048,1,0,20,20,12,1,6,×,9,6 × 9,congruent,smallerFirst,1,2,54,,,,,,,,
,,,,,,,,,,,,,,,755,2022-02-02_11h48.40.185,multiplicationStroop,2021.2.3,Linux armv8l,59.95203837,,,,,,,,,,,,,,,,,,,,,,,,,,,,,,,,,36,1.997,1,0,21,21,0,1,4,×,9,4 × 9,congruent,smallerFirst,1,2,36,,,,,,,,
,,,,,,,,,,,,,,,755,2022-02-02_11h48.40.185,multiplicationStroop,2021.2.3,Linux armv8l,59.95203837,,,,,,,,,,,,,,,,,,,,,,,,,,,,,,,,,27,2.349,1,0,22,22,26,1,9,×,3,9 × 3,congruent,largerFirst,2,1,27,,,,,,,,
,,,,,,,,,,,,,,,755,2022-02-02_11h48.40.185,multiplicationStroop,2021.2.3,Linux armv8l,59.95203837,,,,,,,,,,,,,,,,,,,,,,,,,,,,,,,,,63,2.493,1,0,23,23,21,1,9,×,7,9 × 7,congruent,largerFirst,2,1,63,,,,,,,,
,,,,,,,,,,,,,,,755,2022-02-02_11h48.40.185,multiplicationStroop,2021.2.3,Linux armv8l,59.95203837,,,,,,,,,,,,,,,,,,,,,,,,,,,,,,,,,21,1.677,1,0,24,24,16,1,7,×,3,7 × 3,congruent,largerFirst,2,1,21,,,,,,,,
,,,,,,,,,,,,,,,755,2022-02-02_11h48.40.185,multiplicationStroop,2021.2.3,Linux armv8l,59.95203837,,,,,,,,,,,,,,,,,,,,,,,,,,,,,,,,,81,2.631,1,0,25,25,35,1,9,×,9,9 × 9,neutral,tie,2,1,81,,,,,,,,
,,,,,,,,,,,,,,,755,2022-02-02_11h48.40.185,multiplicationStroop,2021.2.3,Linux armv8l,59.95203837,,,,,,,,,,,,,,,,,,,,,,,,,,,,,,,,,12,1.463,1,0,26,26,2,1,3,×,4,3 × 4,congruent,smallerFirst,1,2,12,,,,,,,,
,,,,,,,,,,,,,,,755,2022-02-02_11h48.40.185,multiplicationStroop,2021.2.3,Linux armv8l,59.95203837,,,,,,,,,,,,,,,,,,,,,,,,,,,,,,,,,45,2.513,1,0,27,27,23,1,9,×,5,9 × 5,congruent,largerFirst,2,1,45,,,,,,,,
,,,,,,,,,,,,,,,755,2022-02-02_11h48.40.185,multiplicationStroop,2021.2.3,Linux armv8l,59.95203837,,,,,,,,,,,,,,,,,,,,,,,,,,,,,,,,,28,2.212,1,0,28,28,27,1,7,×,4,7 × 4,congruent,largerFirst,2,1,28,,,,,,,,
,,,,,,,,,,,,,,,755,2022-02-02_11h48.40.185,multiplicationStroop,2021.2.3,Linux armv8l,59.95203837,,,,,,,,,,,,,,,,,,,,,,,,,,,,,,,,,18,2.089,1,0,29,29,11,1,3,×,6,3 × 6,congruent,smallerFirst,1,2,18,,,,,,,,
,,,,,,,,,,,,,,,755,2022-02-02_11h48.40.185,multiplicationStroop,2021.2.3,Linux armv8l,59.95203837,,,,,,,,,,,,,,,,,,,,,,,,,,,,,,,,,16,1.84,1,0,30,30,30,1,4,×,4,4 × 4,neutral,tie,2,1,16,,,,,,,,
,,,,,,,,,,,,,,,755,2022-02-02_11h48.40.185,multiplicationStroop,2021.2.3,Linux armv8l,59.95203837,,,,,,,,,,,,,,,,,,,,,,,,,,,,,,,,,18,1.913,1,0,31,31,22,1,9,×,2,9 × 2,congruent,largerFirst,2,1,18,,,,,,,,
,,,,,,,,,,,,,,,755,2022-02-02_11h48.40.185,multiplicationStroop,2021.2.3,Linux armv8l,59.95203837,,,,,,,,,,,,,,,,,,,,,,,,,,,,,,,,,12,1.432,1,0,32,32,19,1,6,×,2,6 × 2,congruent,largerFirst,2,1,12,,,,,,,,
,,,,,,,,,,,,,,,755,2022-02-02_11h48.40.185,multiplicationStroop,2021.2.3,Linux armv8l,59.95203837,,,,,,,,,,,,,,,,,,,,,,,,,,,,,,,,,35,1.86,1,0,33,33,1,1,5,×,7,5 × 7,congruent,smallerFirst,1,2,35,,,,,,,,
,,,,,,,,,,,,,,,755,2022-02-02_11h48.40.185,multiplicationStroop,2021.2.3,Linux armv8l,59.95203837,,,,,,,,,,,,,,,,,,,,,,,,,,,,,,,,,40,1.978,1,0,34,34,6,1,5,×,8,5 × 8,congruent,smallerFirst,1,2,40,,,,,,,,
,,,,,,,,,,,,,,,755,2022-02-02_11h48.40.185,multiplicationStroop,2021.2.3,Linux armv8l,59.95203837,,,,,,,,,,,,,,,,,,,,,,,,,,,,,,,,,48,2.038,1,0,35,35,18,1,8,×,6,8 × 6,congruent,largerFirst,2,1,48,,,,,,,,
,,,,,,,,,,,,,,,755,2022-02-02_11h48.40.185,multiplicationStroop,2021.2.3,Linux armv8l,59.95203837,,,,,,,,,,,,,,,,,,,,,,,,,,,,,,,,,,,,,,,,,,,,,,,,,,0,0,0,2,1,stimulusFile/mult_blk3_congruent.xlsx,,
,,,,,,,,,,,,,,,755,2022-02-02_11h48.40.185,multiplicationStroop,2021.2.3,Linux armv8l,59.95203837,,,,,,,,,,,,,,,,,,,,,,,,,,,,,,,space,1.457,20,5.424,1,0,0,0,6,1,4,×,5,4 × 5,neutral,smallerFirst,1.5,1.5,20,,,,,,,,
,,,,,,,,,,,,,,,755,2022-02-02_11h48.40.185,multiplicationStroop,2021.2.3,Linux armv8l,59.95203837,,,,,,,,,,,,,,,,,,,,,,,,,,,,,,,,,6,2.043,1,0,1,1,12,1,2,×,3,2 × 3,neutral,smallerFirst,1.5,1.5,6,,,,,,,,
,,,,,,,,,,,,,,,755,2022-02-02_11h48.40.185,multiplicationStroop,2021.2.3,Linux armv8l,59.95203837,,,,,,,,,,,,,,,,,,,,,,,,,,,,,,,,,48,2.213,1,0,2,2,1,1,6,×,8,6 × 8,neutral,smallerFirst,1.5,1.5,48,,,,,,,,
,,,,,,,,,,,,,,,755,2022-02-02_11h48.40.185,multiplicationStroop,2021.2.3,Linux armv8l,59.95203837,,,,,,,,,,,,,,,,,,,,,,,,,,,,,,,,,18,1.993,1,0,3,3,14,1,6,×,3,6 × 3,neutral,largerFirst,1.5,1.5,18,,,,,,,,
,,,,,,,,,,,,,,,755,2022-02-02_11h48.40.185,multiplicationStroop,2021.2.3,Linux armv8l,59.95203837,,,,,,,,,,,,,,,,,,,,,,,,,,,,,,,,,16,1.713,1,0,4,4,27,1,8,×,2,8 × 2,neutral,largerFirst,1.5,1.5,16,,,,,,,,
,,,,,,,,,,,,,,,755,2022-02-02_11h48.40.185,multiplicationStroop,2021.2.3,Linux armv8l,59.95203837,,,,,,,,,,,,,,,,,,,,,,,,,,,,,,,,,8,1.846,1,0,5,5,17,1,4,×,2,4 × 2,neutral,largerFirst,1.5,1.5,8,,,,,,,,
,,,,,,,,,,,,,,,755,2022-02-02_11h48.40.185,multiplicationStroop,2021.2.3,Linux armv8l,59.95203837,,,,,,,,,,,,,,,,,,,,,,,,,,,,,,,,,4,1.545,1,0,6,6,28,1,2,×,2,2 × 2,neutral,tie,1.5,1.5,4,,,,,,,,
,,,,,,,,,,,,,,,755,2022-02-02_11h48.40.185,multiplicationStroop,2021.2.3,Linux armv8l,59.95203837,,,,,,,,,,,,,,,,,,,,,,,,,,,,,,,,,9,1.629,1,0,7,7,29,1,3,×,3,3 × 3,neutral,tie,1.5,1.5,9,,,,,,,,
,,,,,,,,,,,,,,,755,2022-02-02_11h48.40.185,multiplicationStroop,2021.2.3,Linux armv8l,59.95203837,,,,,,,,,,,,,,,,,,,,,,,,,,,,,,,,,45,2.161,1,0,8,8,24,1,9,×,5,9 × 5,neutral,largerFirst,1.5,1.5,45,,,,,,,,
,,,,,,,,,,,,,,,755,2022-02-02_11h48.40.185,multiplicationStroop,2021.2.3,Linux armv8l,59.95203837,,,,,,,,,,,,,,,,,,,,,,,,,,,,,,,,,56,1.996,1,0,9,9,23,1,8,×,7,8 × 7,neutral,largerFirst,1.5,1.5,56,,,,,,,,
,,,,,,,,,,,,,,,755,2022-02-02_11h48.40.185,multiplicationStroop,2021.2.3,Linux armv8l,59.95203837,,,,,,,,,,,,,,,,,,,,,,,,,,,,,,,,,36,1.963,1,0,10,10,32,1,6,×,6,6 × 6,neutral,tie,1.5,1.5,36,,,,,,,,
,,,,,,,,,,,,,,,755,2022-02-02_11h48.40.185,multiplicationStroop,2021.2.3,Linux armv8l,59.95203837,,,,,,,,,,,,,,,,,,,,,,,,,,,,,,,,,27,1.848,1,0,11,11,0,1,3,×,9,3 × 9,neutral,smallerFirst,1.5,1.5,27,,,,,,,,
,,,,,,,,,,,,,,,755,2022-02-02_11h48.40.185,multiplicationStroop,2021.2.3,Linux armv8l,59.95203837,,,,,,,,,,,,,,,,,,,,,,,,,,,,,,,,,42,1.913,1,0,12,12,20,1,7,×,6,7 × 6,neutral,largerFirst,1.5,1.5,42,,,,,,,,
,,,,,,,,,,,,,,,755,2022-02-02_11h48.40.185,multiplicationStroop,2021.2.3,Linux armv8l,59.95203837,,,,,,,,,,,,,,,,,,,,,,,,,,,,,,,,,54,1.814,1,0,13,13,21,1,9,×,6,9 × 6,neutral,largerFirst,1.5,1.5,54,,,,,,,,
,,,,,,,,,,,,,,,755,2022-02-02_11h48.40.185,multiplicationStroop,2021.2.3,Linux armv8l,59.95203837,,,,,,,,,,,,,,,,,,,,,,,,,,,,,,,,,24,1.563,1,0,14,14,16,1,6,×,4,6 × 4,neutral,largerFirst,1.5,1.5,24,,,,,,,,
,,,,,,,,,,,,,,,755,2022-02-02_11h48.40.185,multiplicationStroop,2021.2.3,Linux armv8l,59.95203837,,,,,,,,,,,,,,,,,,,,,,,,,,,,,,,,,36,1.83,1,0,15,15,13,1,4,×,9,4 × 9,neutral,smallerFirst,1.5,1.5,36,,,,,,,,
,,,,,,,,,,,,,,,755,2022-02-02_11h48.40.185,multiplicationStroop,2021.2.3,Linux armv8l,59.95203837,,,,,,,,,,,,,,,,,,,,,,,,,,,,,,,,,30,1.913,1,0,16,16,5,1,5,×,6,5 × 6,neutral,smallerFirst,1.5,1.5,30,,,,,,,,
,,,,,,,,,,,,,,,755,2022-02-02_11h48.40.185,multiplicationStroop,2021.2.3,Linux armv8l,59.95203837,,,,,,,,,,,,,,,,,,,,,,,,,,,,,,,,,10,1.732,1,0,17,17,18,1,5,×,2,5 × 2,neutral,largerFirst,1.5,1.5,10,,,,,,,,
,,,,,,,,,,,,,,,755,2022-02-02_11h48.40.185,multiplicationStroop,2021.2.3,Linux armv8l,59.95203837,,,,,,,,,,,,,,,,,,,,,,,,,,,,,,,,,35,1.727,1,0,18,18,15,1,7,×,5,7 × 5,neutral,largerFirst,1.5,1.5,35,,,,,,,,
,,,,,,,,,,,,,,,755,2022-02-02_11h48.40.185,multiplicationStroop,2021.2.3,Linux armv8l,59.95203837,,,,,,,,,,,,,,,,,,,,,,,,,,,,,,,,,81,2.243,1,0,19,19,35,1,9,×,9,9 × 9,neutral,tie,1.5,1.5,81,,,,,,,,
,,,,,,,,,,,,,,,755,2022-02-02_11h48.40.185,multiplicationStroop,2021.2.3,Linux armv8l,59.95203837,,,,,,,,,,,,,,,,,,,,,,,,,,,,,,,,,15,1.646,1,0,20,20,19,1,5,×,3,5 × 3,neutral,largerFirst,1.5,1.5,15,,,,,,,,
,,,,,,,,,,,,,,,755,2022-02-02_11h48.40.185,multiplicationStroop,2021.2.3,Linux armv8l,59.95203837,,,,,,,,,,,,,,,,,,,,,,,,,,,,,,,,,14,1.681,1,0,21,21,2,1,2,×,7,2 × 7,neutral,smallerFirst,1.5,1.5,14,,,,,,,,
,,,,,,,,,,,,,,,755,2022-02-02_11h48.40.185,multiplicationStroop,2021.2.3,Linux armv8l,59.95203837,,,,,,,,,,,,,,,,,,,,,,,,,,,,,,,,,63,2.312,1,0,22,22,26,1,9,×,7,9 × 7,neutral,largerFirst,1.5,1.5,63,,,,,,,,
,,,,,,,,,,,,,,,755,2022-02-02_11h48.40.185,multiplicationStroop,2021.2.3,Linux armv8l,59.95203837,,,,,,,,,,,,,,,,,,,,,,,,,,,,,,,,,21,1.464,1,0,23,23,22,1,7,×,3,7 × 3,neutral,largerFirst,1.5,1.5,21,,,,,,,,
,,,,,,,,,,,,,,,755,2022-02-02_11h48.40.185,multiplicationStroop,2021.2.3,Linux armv8l,59.95203837,,,,,,,,,,,,,,,,,,,,,,,,,,,,,,,,,32,1.647,1,0,24,24,9,1,4,×,8,4 × 8,neutral,smallerFirst,1.5,1.5,32,,,,,,,,
,,,,,,,,,,,,,,,755,2022-02-02_11h48.40.185,multiplicationStroop,2021.2.3,Linux armv8l,59.95203837,,,,,,,,,,,,,,,,,,,,,,,,,,,,,,,,,18,1.781,1,0,25,25,4,1,2,×,9,2 × 9,neutral,smallerFirst,1.5,1.5,18,,,,,,,,
,,,,,,,,,,,,,,,755,2022-02-02_11h48.40.185,multiplicationStroop,2021.2.3,Linux armv8l,59.95203837,,,,,,,,,,,,,,,,,,,,,,,,,,,,,,,,,12,1.397,1,0,26,26,7,1,3,×,4,3 × 4,neutral,smallerFirst,1.5,1.5,12,,,,,,,,
,,,,,,,,,,,,,,,755,2022-02-02_11h48.40.185,multiplicationStroop,2021.2.3,Linux armv8l,59.95203837,,,,,,,,,,,,,,,,,,,,,,,,,,,,,,,,,72,2.532,1,0,27,27,25,1,9,×,8,9 × 8,neutral,largerFirst,1.5,1.5,72,,,,,,,,
,,,,,,,,,,,,,,,755,2022-02-02_11h48.40.185,multiplicationStroop,2021.2.3,Linux armv8l,59.95203837,,,,,,,,,,,,,,,,,,,,,,,,,,,,,,,,,6,1.763,0,0,28,28,34,1,8,×,8,8 × 8,neutral,tie,1.5,1.5,64,,,,,,,,
,,,,,,,,,,,,,,,755,2022-02-02_11h48.40.185,multiplicationStroop,2021.2.3,Linux armv8l,59.95203837,,,,,,,,,,,,,,,,,,,,,,,,,,,,,,,,,12,1.765,1,0,29,29,11,1,2,×,6,2 × 6,neutral,smallerFirst,1.5,1.5,12,,,,,,,,
,,,,,,,,,,,,,,,755,2022-02-02_11h48.40.185,multiplicationStroop,2021.2.3,Linux armv8l,59.95203837,,,,,,,,,,,,,,,,,,,,,,,,,,,,,,,,,40,2.028,1,0,30,30,10,1,5,×,8,5 × 8,neutral,smallerFirst,1.5,1.5,40,,,,,,,,
,,,,,,,,,,,,,,,755,2022-02-02_11h48.40.185,multiplicationStroop,2021.2.3,Linux armv8l,59.95203837,,,,,,,,,,,,,,,,,,,,,,,,,,,,,,,,,25,1.681,1,0,31,31,31,1,5,×,5,5 × 5,neutral,tie,1.5,1.5,25,,,,,,,,
,,,,,,,,,,,,,,,755,2022-02-02_11h48.40.185,multiplicationStroop,2021.2.3,Linux armv8l,59.95203837,,,,,,,,,,,,,,,,,,,,,,,,,,,,,,,,,16,1.703,1,0,32,32,30,1,4,×,4,4 × 4,neutral,tie,1.5,1.5,16,,,,,,,,
,,,,,,,,,,,,,,,755,2022-02-02_11h48.40.185,multiplicationStroop,2021.2.3,Linux armv8l,59.95203837,,,,,,,,,,,,,,,,,,,,,,,,,,,,,,,,,49,2.093,1,0,33,33,33,1,7,×,7,7 × 7,neutral,tie,1.5,1.5,49,,,,,,,,
,,,,,,,,,,,,,,,755,2022-02-02_11h48.40.185,multiplicationStroop,2021.2.3,Linux armv8l,59.95203837,,,,,,,,,,,,,,,,,,,,,,,,,,,,,,,,,28,2.098,1,0,34,34,3,1,4,×,7,4 × 7,neutral,smallerFirst,1.5,1.5,28,,,,,,,,
,,,,,,,,,,,,,,,755,2022-02-02_11h48.40.185,multiplicationStroop,2021.2.3,Linux armv8l,59.95203837,,,,,,,,,,,,,,,,,,,,,,,,,,,,,,,,,24,1.584,1,0,35,35,8,1,3,×,8,3 × 8,neutral,smallerFirst,1.5,1.5,24,,,,,,,,
,,,,,,,,,,,,,,,755,2022-02-02_11h48.40.185,multiplicationStroop,2021.2.3,Linux armv8l,59.95203837,,,,,,,,,,,,,,,,,,,,,,,,,,,,,,,,,,,,,,,,,,,,,,,,,,0,1,1,0,1,stimulusFile/mult_blk1.xlsx,,
,,,,,,,,,,,,,,,755,2022-02-02_11h48.40.185,multiplicationStroop,2021.2.3,Linux armv8l,59.95203837,,,,,,,,,,,,,,,,,,,,,,,,,,,,,,,space,1.13,12,1.481,1,0,0,0,5,1,3,×,4,3 × 4,incongruent,smallerFirst,2,1,12,,,,,,,,
,,,,,,,,,,,,,,,755,2022-02-02_11h48.40.185,multiplicationStroop,2021.2.3,Linux armv8l,59.95203837,,,,,,,,,,,,,,,,,,,,,,,,,,,,,,,,,21,1.512,1,0,1,1,26,1,7,×,3,7 × 3,incongruent,largerFirst,1,2,21,,,,,,,,
,,,,,,,,,,,,,,,755,2022-02-02_11h48.40.185,multiplicationStroop,2021.2.3,Linux armv8l,59.95203837,,,,,,,,,,,,,,,,,,,,,,,,,,,,,,,,,18,2.995,1,0,2,2,2,1,2,×,9,2 × 9,incongruent,smallerFirst,2,1,18,,,,,,,,
,,,,,,,,,,,,,,,755,2022-02-02_11h48.40.185,multiplicationStroop,2021.2.3,Linux armv8l,59.95203837,,,,,,,,,,,,,,,,,,,,,,,,,,,,,,,,,54,3.346,1,0,3,3,6,1,6,×,9,6 × 9,incongruent,smallerFirst,2,1,54,,,,,,,,
,,,,,,,,,,,,,,,755,2022-02-02_11h48.40.185,multiplicationStroop,2021.2.3,Linux armv8l,59.95203837,,,,,,,,,,,,,,,,,,,,,,,,,,,,,,,,,28,2.581,1,0,4,4,16,1,7,×,4,7 × 4,incongruent,largerFirst,1,2,28,,,,,,,,
,,,,,,,,,,,,,,,755,2022-02-02_11h48.40.185,multiplicationStroop,2021.2.3,Linux armv8l,59.95203837,,,,,,,,,,,,,,,,,,,,,,,,,,,,,,,,,49,2.31,1,0,5,5,33,1,7,×,7,7 × 7,incongruent,tie,1,2,49,,,,,,,,
,,,,,,,,,,,,,,,755,2022-02-02_11h48.40.185,multiplicationStroop,2021.2.3,Linux armv8l,59.95203837,,,,,,,,,,,,,,,,,,,,,,,,,,,,,,,,,14,1.632,1,0,6,6,4,1,2,×,7,2 × 7,incongruent,smallerFirst,2,1,14,,,,,,,,
,,,,,,,,,,,,,,,755,2022-02-02_11h48.40.185,multiplicationStroop,2021.2.3,Linux armv8l,59.95203837,,,,,,,,,,,,,,,,,,,,,,,,,,,,,,,,,40,2.263,1,0,7,7,13,1,5,×,8,5 × 8,incongruent,smallerFirst,2,1,40,,,,,,,,
,,,,,,,,,,,,,,,755,2022-02-02_11h48.40.185,multiplicationStroop,2021.2.3,Linux armv8l,59.95203837,,,,,,,,,,,,,,,,,,,,,,,,,,,,,,,,,36,3.111,1,0,8,8,15,1,9,×,4,9 × 4,incongruent,largerFirst,1,2,36,,,,,,,,
,,,,,,,,,,,,,,,755,2022-02-02_11h48.40.185,multiplicationStroop,2021.2.3,Linux armv8l,59.95203837,,,,,,,,,,,,,,,,,,,,,,,,,,,,,,,,,20,1.846,1,0,9,9,27,1,5,×,4,5 × 4,incongruent,largerFirst,1,2,20,,,,,,,,
,,,,,,,,,,,,,,,755,2022-02-02_11h48.40.185,multiplicationStroop,2021.2.3,Linux armv8l,59.95203837,,,,,,,,,,,,,,,,,,,,,,,,,,,,,,,,,24,1.881,1,0,10,10,9,1,3,×,8,3 × 8,incongruent,smallerFirst,2,1,24,,,,,,,,
,,,,,,,,,,,,,,,755,2022-02-02_11h48.40.185,multiplicationStroop,2021.2.3,Linux armv8l,59.95203837,,,,,,,,,,,,,,,,,,,,,,,,,,,,,,,,,35,6.797,1,0,11,11,12,1,5,×,7,5 × 7,incongruent,smallerFirst,2,1,35,,,,,,,,
,,,,,,,,,,,,,,,755,2022-02-02_11h48.40.185,multiplicationStroop,2021.2.3,Linux armv8l,59.95203837,,,,,,,,,,,,,,,,,,,,,,,,,,,,,,,,,25,1.758,1,0,12,12,31,1,5,×,5,5 × 5,incongruent,tie,1,2,25,,,,,,,,
,,,,,,,,,,,,,,,755,2022-02-02_11h48.40.185,multiplicationStroop,2021.2.3,Linux armv8l,59.95203837,,,,,,,,,,,,,,,,,,,,,,,,,,,,,,,,,27,2.011,1,0,13,13,18,1,9,×,3,9 × 3,incongruent,largerFirst,1,2,27,,,,,,,,
,,,,,,,,,,,,,,,755,2022-02-02_11h48.40.185,multiplicationStroop,2021.2.3,Linux armv8l,59.95203837,,,,,,,,,,,,,,,,,,,,,,,,,,,,,,,,,36,2.348,1,0,14,14,32,1,6,×,6,6 × 6,incongruent,tie,1,2,36,,,,,,,,
,,,,,,,,,,,,,,,755,2022-02-02_11h48.40.185,multiplicationStroop,2021.2.3,Linux armv8l,59.95203837,,,,,,,,,,,,,,,,,,,,,,,,,,,,,,,,,48,1.993,1,0,15,15,1,1,6,×,8,6 × 8,incongruent,smallerFirst,2,1,48,,,,,,,,
,,,,,,,,,,,,,,,755,2022-02-02_11h48.40.185,multiplicationStroop,2021.2.3,Linux armv8l,59.95203837,,,,,,,,,,,,,,,,,,,,,,,,,,,,,,,,,45,1.73,1,0,16,16,22,1,9,×,5,9 × 5,incongruent,largerFirst,1,2,45,,,,,,,,
,,,,,,,,,,,,,,,755,2022-02-02_11h48.40.185,multiplicationStroop,2021.2.3,Linux armv8l,59.95203837,,,,,,,,,,,,,,,,,,,,,,,,,,,,,,,,,72,2.463,1,0,17,17,0,1,8,×,9,8 × 9,incongruent,smallerFirst,2,1,72,,,,,,,,
,,,,,,,,,,,,,,,755,2022-02-02_11h48.40.185,multiplicationStroop,2021.2.3,Linux armv8l,59.95203837,,,,,,,,,,,,,,,,,,,,,,,,,,,,,,,,,4,1.498,1,0,18,18,28,1,2,×,2,2 × 2,incongruent,tie,1,2,4,,,,,,,,
,,,,,,,,,,,,,,,755,2022-02-02_11h48.40.185,multiplicationStroop,2021.2.3,Linux armv8l,59.95203837,,,,,,,,,,,,,,,,,,,,,,,,,,,,,,,,,81,2.964,1,0,19,19,35,1,9,×,9,9 × 9,incongruent,tie,1,2,81,,,,,,,,
,,,,,,,,,,,,,,,755,2022-02-02_11h48.40.185,multiplicationStroop,2021.2.3,Linux armv8l,59.95203837,,,,,,,,,,,,,,,,,,,,,,,,,,,,,,,,,30,1.929,1,0,20,20,25,1,6,×,5,6 × 5,incongruent,largerFirst,1,2,30,,,,,,,,
,,,,,,,,,,,,,,,755,2022-02-02_11h48.40.185,multiplicationStroop,2021.2.3,Linux armv8l,59.95203837,,,,,,,,,,,,,,,,,,,,,,,,,,,,,,,,,63,2.597,1,0,21,21,3,1,7,×,9,7 × 9,incongruent,smallerFirst,2,1,63,,,,,,,,
,,,,,,,,,,,,,,,755,2022-02-02_11h48.40.185,multiplicationStroop,2021.2.3,Linux armv8l,59.95203837,,,,,,,,,,,,,,,,,,,,,,,,,,,,,,,,,32,1.562,1,0,22,22,7,1,4,×,8,4 × 8,incongruent,smallerFirst,2,1,32,,,,,,,,
,,,,,,,,,,,,,,,755,2022-02-02_11h48.40.185,multiplicationStroop,2021.2.3,Linux armv8l,59.95203837,,,,,,,,,,,,,,,,,,,,,,,,,,,,,,,,,8,2.023,1,0,23,23,24,1,4,×,2,4 × 2,incongruent,largerFirst,1,2,8,,,,,,,,
,,,,,,,,,,,,,,,755,2022-02-02_11h48.40.185,multiplicationStroop,2021.2.3,Linux armv8l,59.95203837,,,,,,,,,,,,,,,,,,,,,,,,,,,,,,,,,42,1.77,1,0,24,24,17,1,7,×,6,7 × 6,incongruent,largerFirst,1,2,42,,,,,,,,
,,,,,,,,,,,,,,,755,2022-02-02_11h48.40.185,multiplicationStroop,2021.2.3,Linux armv8l,59.95203837,,,,,,,,,,,,,,,,,,,,,,,,,,,,,,,,,16,1.864,1,0,25,25,23,1,8,×,2,8 × 2,incongruent,largerFirst,1,2,16,,,,,,,,
,,,,,,,,,,,,,,,755,2022-02-02_11h48.40.185,multiplicationStroop,2021.2.3,Linux armv8l,59.95203837,,,,,,,,,,,,,,,,,,,,,,,,,,,,,,,,,18,1.986,1,0,26,26,8,1,3,×,6,3 × 6,incongruent,smallerFirst,2,1,18,,,,,,,,
,,,,,,,,,,,,,,,755,2022-02-02_11h48.40.185,multiplicationStroop,2021.2.3,Linux armv8l,59.95203837,,,,,,,,,,,,,,,,,,,,,,,,,,,,,,,,,10,1.705,1,0,27,27,21,1,5,×,2,5 × 2,incongruent,largerFirst,1,2,10,,,,,,,,
,,,,,,,,,,,,,,,755,2022-02-02_11h48.40.185,multiplicationStroop,2021.2.3,Linux armv8l,59.95203837,,,,,,,,,,,,,,,,,,,,,,,,,,,,,,,,,9,1.661,1,0,28,28,29,1,3,×,3,3 × 3,incongruent,tie,1,2,9,,,,,,,,
,,,,,,,,,,,,,,,755,2022-02-02_11h48.40.185,multiplicationStroop,2021.2.3,Linux armv8l,59.95203837,,,,,,,,,,,,,,,,,,,,,,,,,,,,,,,,,16,1.73,1,0,29,29,30,1,4,×,4,4 × 4,incongruent,tie,1,2,16,,,,,,,,
,,,,,,,,,,,,,,,755,2022-02-02_11h48.40.185,multiplicationStroop,2021.2.3,Linux armv8l,59.95203837,,,,,,,,,,,,,,,,,,,,,,,,,,,,,,,,,56,1.998,1,0,30,30,14,1,8,×,7,8 × 7,incongruent,largerFirst,1,2,56,,,,,,,,
,,,,,,,,,,,,,,,755,2022-02-02_11h48.40.185,multiplicationStroop,2021.2.3,Linux armv8l,59.95203837,,,,,,,,,,,,,,,,,,,,,,,,,,,,,,,,,12,3.361,1,0,31,31,19,1,6,×,2,6 × 2,incongruent,largerFirst,1,2,12,,,,,,,,
,,,,,,,,,,,,,,,755,2022-02-02_11h48.40.185,multiplicationStroop,2021.2.3,Linux armv8l,59.95203837,,,,,,,,,,,,,,,,,,,,,,,,,,,,,,,,,6,1.897,1,0,32,32,11,1,2,×,3,2 × 3,incongruent,smallerFirst,2,1,6,,,,,,,,
,,,,,,,,,,,,,,,755,2022-02-02_11h48.40.185,multiplicationStroop,2021.2.3,Linux armv8l,59.95203837,,,,,,,,,,,,,,,,,,,,,,,,,,,,,,,,,64,2.395,1,0,33,33,34,1,8,×,8,8 × 8,incongruent,tie,1,2,64,,,,,,,,
,,,,,,,,,,,,,,,755,2022-02-02_11h48.40.185,multiplicationStroop,2021.2.3,Linux armv8l,59.95203837,,,,,,,,,,,,,,,,,,,,,,,,,,,,,,,,,24,1.946,1,0,34,34,20,1,6,×,4,6 × 4,incongruent,largerFirst,1,2,24,,,,,,,,
,,,,,,,,,,,,,,,755,2022-02-02_11h48.40.185,multiplicationStroop,2021.2.3,Linux armv8l,59.95203837,,,,,,,,,,,,,,,,,,,,,,,,,,,,,,,,,15,1.564,1,0,35,35,10,1,3,×,5,3 × 5,incongruent,smallerFirst,2,1,15,,,,,,,,
,,,,,,,,,,,,,,,755,2022-02-02_11h48.40.185,multiplicationStroop,2021.2.3,Linux armv8l,59.95203837,,,,,,,,,,,,,,,,,,,,,,,,,,,,,,,,,,,,,,,,,,,,,,,,,,0,2,2,5,1,stimulusFile/mult_blk6_INcongruent.xlsx,,
,,,,,,,,,,,,,,,755,2022-02-02_11h48.40.185,multiplicationStroop,2021.2.3,Linux armv8l,59.95203837,,,,,,,,,,,,,,,,,,,,,,,,,,,,,,,space,1.288,12,1.541,1,0,0,0,5,1,2,×,6,2 × 6,incongruent,smallerFirst,2,1,12,,,,,,,,
,,,,,,,,,,,,,,,755,2022-02-02_11h48.40.185,multiplicationStroop,2021.2.3,Linux armv8l,59.95203837,,,,,,,,,,,,,,,,,,,,,,,,,,,,,,,,,4,1.48,1,0,1,1,28,1,2,×,2,2 × 2,neutral,tie,2,1,4,,,,,,,,
,,,,,,,,,,,,,,,755,2022-02-02_11h48.40.185,multiplicationStroop,2021.2.3,Linux armv8l,59.95203837,,,,,,,,,,,,,,,,,,,,,,,,,,,,,,,,,42,1.921,1,0,2,2,3,1,6,×,7,6 × 7,incongruent,smallerFirst,2,1,42,,,,,,,,
,,,,,,,,,,,,,,,755,2022-02-02_11h48.40.185,multiplicationStroop,2021.2.3,Linux armv8l,59.95203837,,,,,,,,,,,,,,,,,,,,,,,,,,,,,,,,,48,2.155,1,0,3,3,15,1,8,×,6,8 × 6,incongruent,largerFirst,1,2,48,,,,,,,,
,,,,,,,,,,,,,,,755,2022-02-02_11h48.40.185,multiplicationStroop,2021.2.3,Linux armv8l,59.95203837,,,,,,,,,,,,,,,,,,,,,,,,,,,,,,,,,56,1.849,1,0,4,4,0,1,7,×,8,7 × 8,incongruent,smallerFirst,2,1,56,,,,,,,,
,,,,,,,,,,,,,,,755,2022-02-02_11h48.40.185,multiplicationStroop,2021.2.3,Linux armv8l,59.95203837,,,,,,,,,,,,,,,,,,,,,,,,,,,,,,,,,24,1.779,1,0,5,5,23,1,8,×,3,8 × 3,incongruent,largerFirst,1,2,24,,,,,,,,
,,,,,,,,,,,,,,,755,2022-02-02_11h48.40.185,multiplicationStroop,2021.2.3,Linux armv8l,59.95203837,,,,,,,,,,,,,,,,,,,,,,,,,,,,,,,,,30,1.81,1,0,6,6,11,1,5,×,6,5 × 6,incongruent,smallerFirst,2,1,30,,,,,,,,
,,,,,,,,,,,,,,,755,2022-02-02_11h48.40.185,multiplicationStroop,2021.2.3,Linux armv8l,59.95203837,,,,,,,,,,,,,,,,,,,,,,,,,,,,,,,,,54,1.778,1,0,7,7,20,1,9,×,6,9 × 6,incongruent,largerFirst,1,2,54,,,,,,,,
,,,,,,,,,,,,,,,755,2022-02-02_11h48.40.185,multiplicationStroop,2021.2.3,Linux armv8l,59.95203837,,,,,,,,,,,,,,,,,,,,,,,,,,,,,,,,,36,2.362,1,0,8,8,1,1,4,×,9,4 × 9,incongruent,smallerFirst,2,1,36,,,,,,,,
,,,,,,,,,,,,,,,755,2022-02-02_11h48.40.185,multiplicationStroop,2021.2.3,Linux armv8l,59.95203837,,,,,,,,,,,,,,,,,,,,,,,,,,,,,,,,,27,2.498,1,0,9,9,4,1,3,×,9,3 × 9,incongruent,smallerFirst,2,1,27,,,,,,,,
,,,,,,,,,,,,,,,755,2022-02-02_11h48.40.185,multiplicationStroop,2021.2.3,Linux armv8l,59.95203837,,,,,,,,,,,,,,,,,,,,,,,,,,,,,,,,,18,2.527,1,0,10,10,16,1,9,×,2,9 × 2,incongruent,largerFirst,1,2,18,,,,,,,,
,,,,,,,,,,,,,,,755,2022-02-02_11h48.40.185,multiplicationStroop,2021.2.3,Linux armv8l,59.95203837,,,,,,,,,,,,,,,,,,,,,,,,,,,,,,,,,15,1.947,1,0,11,11,24,1,5,×,3,5 × 3,incongruent,largerFirst,1,2,15,,,,,,,,
,,,,,,,,,,,,,,,755,2022-02-02_11h48.40.185,multiplicationStroop,2021.2.3,Linux armv8l,59.95203837,,,,,,,,,,,,,,,,,,,,,,,,,,,,,,,,,49,2.112,1,0,12,12,33,1,7,×,7,7 × 7,neutral,tie,2,1,49,,,,,,,,
,,,,,,,,,,,,,,,755,2022-02-02_11h48.40.185,multiplicationStroop,2021.2.3,Linux armv8l,59.95203837,,,,,,,,,,,,,,,,,,,,,,,,,,,,,,,,,63,2.296,1,0,13,13,17,1,9,×,7,9 × 7,incongruent,largerFirst,1,2,63,,,,,,,,
,,,,,,,,,,,,,,,755,2022-02-02_11h48.40.185,multiplicationStroop,2021.2.3,Linux armv8l,59.95203837,,,,,,,,,,,,,,,,,,,,,,,,,,,,,,,,,10,1.795,1,0,14,14,7,1,2,×,5,2 × 5,incongruent,smallerFirst,2,1,10,,,,,,,,
,,,,,,,,,,,,,,,755,2022-02-02_11h48.40.185,multiplicationStroop,2021.2.3,Linux armv8l,59.95203837,,,,,,,,,,,,,,,,,,,,,,,,,,,,,,,,,24,1.683,1,0,15,15,6,1,4,×,6,4 × 6,incongruent,smallerFirst,2,1,24,,,,,,,,
,,,,,,,,,,,,,,,755,2022-02-02_11h48.40.185,multiplicationStroop,2021.2.3,Linux armv8l,59.95203837,,,,,,,,,,,,,,,,,,,,,,,,,,,,,,,,,20,1.86,1,0,16,16,13,1,4,×,5,4 × 5,incongruent,smallerFirst,2,1,20,,,,,,,,
,,,,,,,,,,,,,,,755,2022-02-02_11h48.40.185,multiplicationStroop,2021.2.3,Linux armv8l,59.95203837,,,,,,,,,,,,,,,,,,,,,,,,,,,,,,,,,25,1.662,1,0,17,17,31,1,5,×,5,5 × 5,neutral,tie,2,1,25,,,,,,,,
,,,,,,,,,,,,,,,755,2022-02-02_11h48.40.185,multiplicationStroop,2021.2.3,Linux armv8l,59.95203837,,,,,,,,,,,,,,,,,,,,,,,,,,,,,,,,,16,1.581,1,0,18,18,9,1,2,×,8,2 × 8,incongruent,smallerFirst,2,1,16,,,,,,,,
,,,,,,,,,,,,,,,755,2022-02-02_11h48.40.185,multiplicationStroop,2021.2.3,Linux armv8l,59.95203837,,,,,,,,,,,,,,,,,,,,,,,,,,,,,,,,,72,2.346,1,0,19,19,14,1,9,×,8,9 × 8,incongruent,largerFirst,1,2,72,,,,,,,,
,,,,,,,,,,,,,,,755,2022-02-02_11h48.40.185,multiplicationStroop,2021.2.3,Linux armv8l,59.95203837,,,,,,,,,,,,,,,,,,,,,,,,,,,,,,,,,32,1.63,1,0,20,20,21,1,8,×,4,8 × 4,incongruent,largerFirst,1,2,32,,,,,,,,
,,,,,,,,,,,,,,,755,2022-02-02_11h48.40.185,multiplicationStroop,2021.2.3,Linux armv8l,59.95203837,,,,,,,,,,,,,,,,,,,,,,,,,,,,,,,,,36,1.964,1,0,21,21,32,1,6,×,6,6 × 6,neutral,tie,2,1,36,,,,,,,,
,,,,,,,,,,,,,,,755,2022-02-02_11h48.40.185,multiplicationStroop,2021.2.3,Linux armv8l,59.95203837,,,,,,,,,,,,,,,,,,,,,,,,,,,,,,,,,28,2.098,1,0,22,22,2,1,4,×,7,4 × 7,incongruent,smallerFirst,2,1,28,,,,,,,,
,,,,,,,,,,,,,,,755,2022-02-02_11h48.40.185,multiplicationStroop,2021.2.3,Linux armv8l,59.95203837,,,,,,,,,,,,,,,,,,,,,,,,,,,,,,,,,14,1.694,1,0,23,23,18,1,7,×,2,7 × 2,incongruent,largerFirst,1,2,14,,,,,,,,
,,,,,,,,,,,,,,,755,2022-02-02_11h48.40.185,multiplicationStroop,2021.2.3,Linux armv8l,59.95203837,,,,,,,,,,,,,,,,,,,,,,,,,,,,,,,,,21,1.544,1,0,24,24,12,1,3,×,7,3 × 7,incongruent,smallerFirst,2,1,21,,,,,,,,
,,,,,,,,,,,,,,,755,2022-02-02_11h48.40.185,multiplicationStroop,2021.2.3,Linux armv8l,59.95203837,,,,,,,,,,,,,,,,,,,,,,,,,,,,,,,,,6,1.946,1,0,25,25,25,1,3,×,2,3 × 2,incongruent,largerFirst,1,2,6,,,,,,,,
,,,,,,,,,,,,,,,755,2022-02-02_11h48.40.185,multiplicationStroop,2021.2.3,Linux armv8l,59.95203837,,,,,,,,,,,,,,,,,,,,,,,,,,,,,,,,,18,1.76,1,0,26,26,22,1,6,×,3,6 × 3,incongruent,largerFirst,1,2,18,,,,,,,,
,,,,,,,,,,,,,,,755,2022-02-02_11h48.40.185,multiplicationStroop,2021.2.3,Linux armv8l,59.95203837,,,,,,,,,,,,,,,,,,,,,,,,,,,,,,,,,81,2.982,1,0,27,27,35,1,9,×,9,9 × 9,neutral,tie,2,1,81,,,,,,,,
,,,,,,,,,,,,,,,755,2022-02-02_11h48.40.185,multiplicationStroop,2021.2.3,Linux armv8l,59.95203837,,,,,,,,,,,,,,,,,,,,,,,,,,,,,,,,,35,1.68,1,0,28,28,26,1,7,×,5,7 × 5,incongruent,largerFirst,1,2,35,,,,,,,,
,,,,,,,,,,,,,,,755,2022-02-02_11h48.40.185,multiplicationStroop,2021.2.3,Linux armv8l,59.95203837,,,,,,,,,,,,,,,,,,,,,,,,,,,,,,,,,64,2.313,1,0,29,29,34,1,8,×,8,8 × 8,neutral,tie,2,1,64,,,,,,,,
,,,,,,,,,,,,,,,755,2022-02-02_11h48.40.185,multiplicationStroop,2021.2.3,Linux armv8l,59.95203837,,,,,,,,,,,,,,,,,,,,,,,,,,,,,,,,,40,2.191,1,0,30,30,27,1,8,×,5,8 × 5,incongruent,largerFirst,1,2,40,,,,,,,,
,,,,,,,,,,,,,,,755,2022-02-02_11h48.40.185,multiplicationStroop,2021.2.3,Linux armv8l,59.95203837,,,,,,,,,,,,,,,,,,,,,,,,,,,,,,,,,8,1.975,1,0,31,31,10,1,2,×,4,2 × 4,incongruent,smallerFirst,2,1,8,,,,,,,,
,,,,,,,,,,,,,,,755,2022-02-02_11h48.40.185,multiplicationStroop,2021.2.3,Linux armv8l,59.95203837,,,,,,,,,,,,,,,,,,,,,,,,,,,,,,,,,45,1.827,1,0,32,32,8,1,5,×,9,5 × 9,incongruent,smallerFirst,2,1,45,,,,,,,,
,,,,,,,,,,,,,,,755,2022-02-02_11h48.40.185,multiplicationStroop,2021.2.3,Linux armv8l,59.95203837,,,,,,,,,,,,,,,,,,,,,,,,,,,,,,,,,16,1.711,1,0,33,33,30,1,4,×,4,4 × 4,neutral,tie,2,1,16,,,,,,,,
,,,,,,,,,,,,,,,755,2022-02-02_11h48.40.185,multiplicationStroop,2021.2.3,Linux armv8l,59.95203837,,,,,,,,,,,,,,,,,,,,,,,,,,,,,,,,,12,1.361,1,0,34,34,19,1,4,×,3,4 × 3,incongruent,largerFirst,1,2,12,,,,,,,,
,,,,,,,,,,,,,,,755,2022-02-02_11h48.40.185,multiplicationStroop,2021.2.3,Linux armv8l,59.95203837,,,,,,,,,,,,,,,,,,,,,,,,,,,,,,,,,9,1.832,1,0,35,35,29,1,3,×,3,3 × 3,neutral,tie,2,1,9,,,,,,,,
,,,,,,,,,,,,,,,755,2022-02-02_11h48.40.185,multiplicationStroop,2021.2.3,Linux armv8l,59.95203837,,,,,,,,,,,,,,,,,,,,,,,,,,,,,,,,,,,,,,,,,,,,,,,,,,0,3,3,4,1,stimulusFile/mult_blk5_INcongruent.xlsx,,
,,,,,,,,,,,,,,,755,2022-02-02_11h48.40.185,multiplicationStroop,2021.2.3,Linux armv8l,59.95203837,,,,,,,,,,,,,,,,,,,,,,,,,,,,,,,space,0.998,28,2.223,1,0,0,0,17,1,7,×,4,7 × 4,neutral,largerFirst,1.5,1.5,28,,,,,,,,
,,,,,,,,,,,,,,,755,2022-02-02_11h48.40.185,multiplicationStroop,2021.2.3,Linux armv8l,59.95203837,,,,,,,,,,,,,,,,,,,,,,,,,,,,,,,,,21,1.846,1,0,1,1,8,1,3,×,7,3 × 7,neutral,smallerFirst,1.5,1.5,21,,,,,,,,
,,,,,,,,,,,,,,,755,2022-02-02_11h48.40.185,multiplicationStroop,2021.2.3,Linux armv8l,59.95203837,,,,,,,,,,,,,,,,,,,,,,,,,,,,,,,,,18,1.781,1,0,2,2,18,1,9,×,2,9 × 2,neutral,largerFirst,1.5,1.5,18,,,,,,,,
,,,,,,,,,,,,,,,755,2022-02-02_11h48.40.185,multiplicationStroop,2021.2.3,Linux armv8l,59.95203837,,,,,,,,,,,,,,,,,,,,,,,,,,,,,,,,,12,1.344,1,0,3,3,21,1,4,×,3,4 × 3,neutral,largerFirst,1.5,1.5,12,,,,,,,,
,,,,,,,,,,,,,,,755,2022-02-02_11h48.40.185,multiplicationStroop,2021.2.3,Linux armv8l,59.95203837,,,,,,,,,,,,,,,,,,,,,,,,,,,,,,,,,36,2.009,1,0,4,4,27,1,9,×,4,9 × 4,neutral,largerFirst,1.5,1.5,36,,,,,,,,
,,,,,,,,,,,,,,,755,2022-02-02_11h48.40.185,multiplicationStroop,2021.2.3,Linux armv8l,59.95203837,,,,,,,,,,,,,,,,,,,,,,,,,,,,,,,,,10,2.128,1,0,5,5,4,1,2,×,5,2 × 5,neutral,smallerFirst,1.5,1.5,10,,,,,,,,
,,,,,,,,,,,,,,,755,2022-02-02_11h48.40.185,multiplicationStroop,2021.2.3,Linux armv8l,59.95203837,,,,,,,,,,,,,,,,,,,,,,,,,,,,,,,,,32,2.632,1,0,6,6,23,1,8,×,4,8 × 4,neutral,largerFirst,1.5,1.5,32,,,,,,,,
,,,,,,,,,,,,,,,755,2022-02-02_11h48.40.185,multiplicationStroop,2021.2.3,Linux armv8l,59.95203837,,,,,,,,,,,,,,,,,,,,,,,,,,,,,,,,,72,2.461,1,0,7,7,11,1,8,×,9,8 × 9,neutral,smallerFirst,1.5,1.5,72,,,,,,,,
,,,,,,,,,,,,,,,755,2022-02-02_11h48.40.185,multiplicationStroop,2021.2.3,Linux armv8l,59.95203837,,,,,,,,,,,,,,,,,,,,,,,,,,,,,,,,,49,2.162,1,0,8,8,33,1,7,×,7,7 × 7,neutral,tie,1.5,1.5,49,,,,,,,,
,,,,,,,,,,,,,,,755,2022-02-02_11h48.40.185,multiplicationStroop,2021.2.3,Linux armv8l,59.95203837,,,,,,,,,,,,,,,,,,,,,,,,,,,,,,,,,42,2.513,1,0,9,9,6,1,6,×,7,6 × 7,neutral,smallerFirst,1.5,1.5,42,,,,,,,,
,,,,,,,,,,,,,,,755,2022-02-02_11h48.40.185,multiplicationStroop,2021.2.3,Linux armv8l,59.95203837,,,,,,,,,,,,,,,,,,,,,,,,,,,,,,,,,15,1.731,1,0,10,10,5,1,3,×,5,3 × 5,neutral,smallerFirst,1.5,1.5,15,,,,,,,,
,,,,,,,,,,,,,,,755,2022-02-02_11h48.40.185,multiplicationStroop,2021.2.3,Linux armv8l,59.95203837,,,,,,,,,,,,,,,,,,,,,,,,,,,,,,,,,20,2.214,1,0,11,11,20,1,5,×,4,5 × 4,neutral,largerFirst,1.5,1.5,20,,,,,,,,
,,,,,,,,,,,,,,,755,2022-02-02_11h48.40.185,multiplicationStroop,2021.2.3,Linux armv8l,59.95203837,,,,,,,,,,,,,,,,,,,,,,,,,,,,,,,,,81,1.996,1,0,12,12,35,1,9,×,9,9 × 9,neutral,tie,1.5,1.5,81,,,,,,,,
,,,,,,,,,,,,,,,755,2022-02-02_11h48.40.185,multiplicationStroop,2021.2.3,Linux armv8l,59.95203837,,,,,,,,,,,,,,,,,,,,,,,,,,,,,,,,,64,3.134,1,0,13,13,34,1,8,×,8,8 × 8,neutral,tie,1.5,1.5,64,,,,,,,,
,,,,,,,,,,,,,,,755,2022-02-02_11h48.40.185,multiplicationStroop,2021.2.3,Linux armv8l,59.95203837,,,,,,,,,,,,,,,,,,,,,,,,,,,,,,,,,8,1.943,1,0,14,14,3,1,2,×,4,2 × 4,neutral,smallerFirst,1.5,1.5,8,,,,,,,,
,,,,,,,,,,,,,,,755,2022-02-02_11h48.40.185,multiplicationStroop,2021.2.3,Linux armv8l,59.95203837,,,,,,,,,,,,,,,,,,,,,,,,,,,,,,,,,14,1.529,1,0,15,15,16,1,7,×,2,7 × 2,neutral,largerFirst,1.5,1.5,14,,,,,,,,
,,,,,,,,,,,,,,,755,2022-02-02_11h48.40.185,multiplicationStroop,2021.2.3,Linux armv8l,59.95203837,,,,,,,,,,,,,,,,,,,,,,,,,,,,,,,,,30,1.891,1,0,16,16,19,1,6,×,5,6 × 5,neutral,largerFirst,1.5,1.5,30,,,,,,,,
,,,,,,,,,,,,,,,755,2022-02-02_11h48.40.185,multiplicationStroop,2021.2.3,Linux armv8l,59.95203837,,,,,,,,,,,,,,,,,,,,,,,,,,,,,,,,,9,1.749,1,0,17,17,29,1,3,×,3,3 × 3,neutral,tie,1.5,1.5,9,,,,,,,,
,,,,,,,,,,,,,,,755,2022-02-02_11h48.40.185,multiplicationStroop,2021.2.3,Linux armv8l,59.95203837,,,,,,,,,,,,,,,,,,,,,,,,,,,,,,,,,25,1.628,1,0,18,18,31,1,5,×,5,5 × 5,neutral,tie,1.5,1.5,25,,,,,,,,
,,,,,,,,,,,,,,,755,2022-02-02_11h48.40.185,multiplicationStroop,2021.2.3,Linux armv8l,59.95203837,,,,,,,,,,,,,,,,,,,,,,,,,,,,,,,,,54,2.295,1,0,19,19,7,1,6,×,9,6 × 9,neutral,smallerFirst,1.5,1.5,54,,,,,,,,
,,,,,,,,,,,,,,,755,2022-02-02_11h48.40.185,multiplicationStroop,2021.2.3,Linux armv8l,59.95203837,,,,,,,,,,,,,,,,,,,,,,,,,,,,,,,,,6,2.035,1,0,20,20,26,1,3,×,2,3 × 2,neutral,largerFirst,1.5,1.5,6,,,,,,,,
,,,,,,,,,,,,,,,755,2022-02-02_11h48.40.185,multiplicationStroop,2021.2.3,Linux armv8l,59.95203837,,,,,,,,,,,,,,,,,,,,,,,,,,,,,,,,,63,2.41,1,0,21,21,12,1,7,×,9,7 × 9,neutral,smallerFirst,1.5,1.5,63,,,,,,,,
,,,,,,,,,,,,,,,755,2022-02-02_11h48.40.185,multiplicationStroop,2021.2.3,Linux armv8l,59.95203837,,,,,,,,,,,,,,,,,,,,,,,,,,,,,,,,,45,1.963,1,0,22,22,10,1,5,×,9,5 × 9,neutral,smallerFirst,1.5,1.5,45,,,,,,,,
,,,,,,,,,,,,,,,755,2022-02-02_11h48.40.185,multiplicationStroop,2021.2.3,Linux armv8l,59.95203837,,,,,,,,,,,,,,,,,,,,,,,,,,,,,,,,,12,1.381,1,0,23,23,25,1,6,×,2,6 × 2,neutral,largerFirst,1.5,1.5,12,,,,,,,,
,,,,,,,,,,,,,,,755,2022-02-02_11h48.40.185,multiplicationStroop,2021.2.3,Linux armv8l,59.95203837,,,,,,,,,,,,,,,,,,,,,,,,,,,,,,,,,16,1.765,1,0,24,24,30,1,4,×,4,4 × 4,neutral,tie,1.5,1.5,16,,,,,,,,
,,,,,,,,,,,,,,,755,2022-02-02_11h48.40.185,multiplicationStroop,2021.2.3,Linux armv8l,59.95203837,,,,,,,,,,,,,,,,,,,,,,,,,,,,,,,,,48,2.148,1,0,25,25,15,1,8,×,6,8 × 6,neutral,largerFirst,1.5,1.5,48,,,,,,,,
,,,,,,,,,,,,,,,755,2022-02-02_11h48.40.185,multiplicationStroop,2021.2.3,Linux armv8l,59.95203837,,,,,,,,,,,,,,,,,,,,,,,,,,,,,,,,,36,1.861,1,0,26,26,32,1,6,×,6,6 × 6,neutral,tie,1.5,1.5,36,,,,,,,,
,,,,,,,,,,,,,,,755,2022-02-02_11h48.40.185,multiplicationStroop,2021.2.3,Linux armv8l,59.95203837,,,,,,,,,,,,,,,,,,,,,,,,,,,,,,,,,4,1.579,1,0,27,27,28,1,2,×,2,2 × 2,neutral,tie,1.5,1.5,4,,,,,,,,
,,,,,,,,,,,,,,,755,2022-02-02_11h48.40.185,multiplicationStroop,2021.2.3,Linux armv8l,59.95203837,,,,,,,,,,,,,,,,,,,,,,,,,,,,,,,,,56,1.828,1,0,28,28,9,1,7,×,8,7 × 8,neutral,smallerFirst,1.5,1.5,56,,,,,,,,
,,,,,,,,,,,,,,,755,2022-02-02_11h48.40.185,multiplicationStroop,2021.2.3,Linux armv8l,59.95203837,,,,,,,,,,,,,,,,,,,,,,,,,,,,,,,,,18,2.366,1,0,29,29,0,1,3,×,6,3 × 6,neutral,smallerFirst,1.5,1.5,18,,,,,,,,
,,,,,,,,,,,,,,,755,2022-02-02_11h48.40.185,multiplicationStroop,2021.2.3,Linux armv8l,59.95203837,,,,,,,,,,,,,,,,,,,,,,,,,,,,,,,,,16,2.894,1,0,30,30,13,1,2,×,8,2 × 8,neutral,smallerFirst,1.5,1.5,16,,,,,,,,
,,,,,,,,,,,,,,,755,2022-02-02_11h48.40.185,multiplicationStroop,2021.2.3,Linux armv8l,59.95203837,,,,,,,,,,,,,,,,,,,,,,,,,,,,,,,,,24,1.631,1,0,31,31,2,1,4,×,6,4 × 6,neutral,smallerFirst,1.5,1.5,24,,,,,,,,
,,,,,,,,,,,,,,,755,2022-02-02_11h48.40.185,multiplicationStroop,2021.2.3,Linux armv8l,59.95203837,,,,,,,,,,,,,,,,,,,,,,,,,,,,,,,,,4,1.497,0,0,32,32,24,1,8,×,5,8 × 5,neutral,largerFirst,1.5,1.5,40,,,,,,,,
,,,,,,,,,,,,,,,755,2022-02-02_11h48.40.185,multiplicationStroop,2021.2.3,Linux armv8l,59.95203837,,,,,,,,,,,,,,,,,,,,,,,,,,,,,,,,,35,2.481,1,0,33,33,1,1,5,×,7,5 × 7,neutral,smallerFirst,1.5,1.5,35,,,,,,,,
,,,,,,,,,,,,,,,755,2022-02-02_11h48.40.185,multiplicationStroop,2021.2.3,Linux armv8l,59.95203837,,,,,,,,,,,,,,,,,,,,,,,,,,,,,,,,,27,1.925,1,0,34,34,14,1,9,×,3,9 × 3,neutral,largerFirst,1.5,1.5,27,,,,,,,,
,,,,,,,,,,,,,,,755,2022-02-02_11h48.40.185,multiplicationStroop,2021.2.3,Linux armv8l,59.95203837,,,,,,,,,,,,,,,,,,,,,,,,,,,,,,,,,24,1.533,1,0,35,35,22,1,8,×,3,8 × 3,neutral,largerFirst,1.5,1.5,24,,,,,,,,
,,,,,,,,,,,,,,,755,2022-02-02_11h48.40.185,multiplicationStroop,2021.2.3,Linux armv8l,59.95203837,,,,,,,,,,,,,,,,,,,,,,,,,,,,,,,,,,,,,,,,,,,,,,,,,,0,4,4,1,1,stimulusFile/mult_blk2.xlsx,,
,,,,,,,,,,,,,,,755,2022-02-02_11h48.40.185,multiplicationStroop,2021.2.3,Linux armv8l,59.95203837,,,,,,,,,,,,,,,,,,,,,,,,,,,,,,,space,1.422,48,2.958,1,0,0,0,4,1,6,×,8,6 × 8,congruent,smallerFirst,1,2,48,,,,,,,,
,,,,,,,,,,,,,,,755,2022-02-02_11h48.40.185,multiplicationStroop,2021.2.3,Linux armv8l,59.95203837,,,,,,,,,,,,,,,,,,,,,,,,,,,,,,,,,25,1.743,1,0,1,1,31,1,5,×,5,5 × 5,neutral,tie,1,2,25,,,,,,,,
,,,,,,,,,,,,,,,755,2022-02-02_11h48.40.185,multiplicationStroop,2021.2.3,Linux armv8l,59.95203837,,,,,,,,,,,,,,,,,,,,,,,,,,,,,,,,,32,1.58,1,0,2,2,6,1,4,×,8,4 × 8,congruent,smallerFirst,1,2,32,,,,,,,,
,,,,,,,,,,,,,,,755,2022-02-02_11h48.40.185,multiplicationStroop,2021.2.3,Linux armv8l,59.95203837,,,,,,,,,,,,,,,,,,,,,,,,,,,,,,,,,4,1.463,1,0,3,3,28,1,2,×,2,2 × 2,neutral,tie,1,2,4,,,,,,,,
,,,,,,,,,,,,,,,755,2022-02-02_11h48.40.185,multiplicationStroop,2021.2.3,Linux armv8l,59.95203837,,,,,,,,,,,,,,,,,,,,,,,,,,,,,,,,,35,1.764,1,0,4,4,15,1,7,×,5,7 × 5,congruent,largerFirst,2,1,35,,,,,,,,
,,,,,,,,,,,,,,,755,2022-02-02_11h48.40.185,multiplicationStroop,2021.2.3,Linux armv8l,59.95203837,,,,,,,,,,,,,,,,,,,,,,,,,,,,,,,,,40,2.031,1,0,5,5,20,1,8,×,5,8 × 5,congruent,largerFirst,2,1,40,,,,,,,,
,,,,,,,,,,,,,,,755,2022-02-02_11h48.40.185,multiplicationStroop,2021.2.3,Linux armv8l,59.95203837,,,,,,,,,,,,,,,,,,,,,,,,,,,,,,,,,63,2.546,1,0,6,6,7,1,7,×,9,7 × 9,congruent,smallerFirst,1,2,63,,,,,,,,
,,,,,,,,,,,,,,,755,2022-02-02_11h48.40.185,multiplicationStroop,2021.2.3,Linux armv8l,59.95203837,,,,,,,,,,,,,,,,,,,,,,,,,,,,,,,,,15,1.797,1,0,7,7,18,1,5,×,3,5 × 3,congruent,largerFirst,2,1,15,,,,,,,,
,,,,,,,,,,,,,,,755,2022-02-02_11h48.40.185,multiplicationStroop,2021.2.3,Linux armv8l,59.95203837,,,,,,,,,,,,,,,,,,,,,,,,,,,,,,,,,20,1.814,1,0,8,8,21,1,5,×,4,5 × 4,congruent,largerFirst,2,1,20,,,,,,,,
,,,,,,,,,,,,,,,755,2022-02-02_11h48.40.185,multiplicationStroop,2021.2.3,Linux armv8l,59.95203837,,,,,,,,,,,,,,,,,,,,,,,,,,,,,,,,,36,1.915,1,0,9,9,32,1,6,×,6,6 × 6,neutral,tie,1,2,36,,,,,,,,
,,,,,,,,,,,,,,,755,2022-02-02_11h48.40.185,multiplicationStroop,2021.2.3,Linux armv8l,59.95203837,,,,,,,,,,,,,,,,,,,,,,,,,,,,,,,,,24,1.53,1,0,10,10,24,1,8,×,3,8 × 3,congruent,largerFirst,2,1,24,,,,,,,,
,,,,,,,,,,,,,,,755,2022-02-02_11h48.40.185,multiplicationStroop,2021.2.3,Linux armv8l,59.95203837,,,,,,,,,,,,,,,,,,,,,,,,,,,,,,,,,81,2.679,1,0,11,11,35,1,9,×,9,9 × 9,neutral,tie,1,2,81,,,,,,,,
,,,,,,,,,,,,,,,755,2022-02-02_11h48.40.185,multiplicationStroop,2021.2.3,Linux armv8l,59.95203837,,,,,,,,,,,,,,,,,,,,,,,,,,,,,,,,,72,3.097,1,0,12,12,3,1,8,×,9,8 × 9,congruent,smallerFirst,1,2,72,,,,,,,,
,,,,,,,,,,,,,,,755,2022-02-02_11h48.40.185,multiplicationStroop,2021.2.3,Linux armv8l,59.95203837,,,,,,,,,,,,,,,,,,,,,,,,,,,,,,,,,21,4.386,1,0,13,13,2,1,3,×,7,3 × 7,congruent,smallerFirst,1,2,21,,,,,,,,
,,,,,,,,,,,,,,,755,2022-02-02_11h48.40.185,multiplicationStroop,2021.2.3,Linux armv8l,59.95203837,,,,,,,,,,,,,,,,,,,,,,,,,,,,,,,,,18,1.772,1,0,14,14,8,1,2,×,9,2 × 9,congruent,smallerFirst,1,2,18,,,,,,,,
,,,,,,,,,,,,,,,755,2022-02-02_11h48.40.185,multiplicationStroop,2021.2.3,Linux armv8l,59.95203837,,,,,,,,,,,,,,,,,,,,,,,,,,,,,,,,,14,1.611,1,0,15,15,0,1,2,×,7,2 × 7,congruent,smallerFirst,1,2,14,,,,,,,,
,,,,,,,,,,,,,,,755,2022-02-02_11h48.40.185,multiplicationStroop,2021.2.3,Linux armv8l,59.95203837,,,,,,,,,,,,,,,,,,,,,,,,,,,,,,,,,16,2.061,1,0,16,16,30,1,4,×,4,4 × 4,neutral,tie,1,2,16,,,,,,,,
,,,,,,,,,,,,,,,755,2022-02-02_11h48.40.185,multiplicationStroop,2021.2.3,Linux armv8l,59.95203837,,,,,,,,,,,,,,,,,,,,,,,,,,,,,,,,,12,1.663,1,0,17,17,5,1,2,×,6,2 × 6,congruent,smallerFirst,1,2,12,,,,,,,,
,,,,,,,,,,,,,,,755,2022-02-02_11h48.40.185,multiplicationStroop,2021.2.3,Linux armv8l,59.95203837,,,,,,,,,,,,,,,,,,,,,,,,,,,,,,,,,28,2.231,1,0,18,18,13,1,4,×,7,4 × 7,congruent,smallerFirst,1,2,28,,,,,,,,
,,,,,,,,,,,,,,,755,2022-02-02_11h48.40.185,multiplicationStroop,2021.2.3,Linux armv8l,59.95203837,,,,,,,,,,,,,,,,,,,,,,,,,,,,,,,,,8,2.463,1,0,19,19,23,1,4,×,2,4 × 2,congruent,largerFirst,2,1,8,,,,,,,,
,,,,,,,,,,,,,,,755,2022-02-02_11h48.40.185,multiplicationStroop,2021.2.3,Linux armv8l,59.95203837,,,,,,,,,,,,,,,,,,,,,,,,,,,,,,,,,6,1.979,1,0,20,20,27,1,3,×,2,3 × 2,congruent,largerFirst,2,1,6,,,,,,,,
,,,,,,,,,,,,,,,755,2022-02-02_11h48.40.185,multiplicationStroop,2021.2.3,Linux armv8l,59.95203837,,,,,,,,,,,,,,,,,,,,,,,,,,,,,,,,,27,2.479,1,0,21,21,12,1,3,×,9,3 × 9,congruent,smallerFirst,1,2,27,,,,,,,,
,,,,,,,,,,,,,,,755,2022-02-02_11h48.40.185,multiplicationStroop,2021.2.3,Linux armv8l,59.95203837,,,,,,,,,,,,,,,,,,,,,,,,,,,,,,,,,10,1.648,1,0,22,22,10,1,2,×,5,2 × 5,congruent,smallerFirst,1,2,10,,,,,,,,
,,,,,,,,,,,,,,,755,2022-02-02_11h48.40.185,multiplicationStroop,2021.2.3,Linux armv8l,59.95203837,,,,,,,,,,,,,,,,,,,,,,,,,,,,,,,,,45,2.193,1,0,23,23,9,1,5,×,9,5 × 9,congruent,smallerFirst,1,2,45,,,,,,,,
,,,,,,,,,,,,,,,755,2022-02-02_11h48.40.185,multiplicationStroop,2021.2.3,Linux armv8l,59.95203837,,,,,,,,,,,,,,,,,,,,,,,,,,,,,,,,,49,2.263,1,0,24,24,33,1,7,×,7,7 × 7,neutral,tie,1,2,49,,,,,,,,
,,,,,,,,,,,,,,,755,2022-02-02_11h48.40.185,multiplicationStroop,2021.2.3,Linux armv8l,59.95203837,,,,,,,,,,,,,,,,,,,,,,,,,,,,,,,,,9,1.901,1,0,25,25,29,1,3,×,3,3 × 3,neutral,tie,1,2,9,,,,,,,,
,,,,,,,,,,,,,,,755,2022-02-02_11h48.40.185,multiplicationStroop,2021.2.3,Linux armv8l,59.95203837,,,,,,,,,,,,,,,,,,,,,,,,,,,,,,,,,16,2.179,1,0,26,26,19,1,8,×,2,8 × 2,congruent,largerFirst,2,1,16,,,,,,,,
,,,,,,,,,,,,,,,755,2022-02-02_11h48.40.185,multiplicationStroop,2021.2.3,Linux armv8l,59.95203837,,,,,,,,,,,,,,,,,,,,,,,,,,,,,,,,,24,1.826,1,0,27,27,11,1,4,×,6,4 × 6,congruent,smallerFirst,1,2,24,,,,,,,,
,,,,,,,,,,,,,,,755,2022-02-02_11h48.40.185,multiplicationStroop,2021.2.3,Linux armv8l,59.95203837,,,,,,,,,,,,,,,,,,,,,,,,,,,,,,,,,18,2.159,1,0,28,28,25,1,6,×,3,6 × 3,congruent,largerFirst,2,1,18,,,,,,,,
,,,,,,,,,,,,,,,755,2022-02-02_11h48.40.185,multiplicationStroop,2021.2.3,Linux armv8l,59.95203837,,,,,,,,,,,,,,,,,,,,,,,,,,,,,,,,,64,2.413,1,0,29,29,34,1,8,×,8,8 × 8,neutral,tie,1,2,64,,,,,,,,
,,,,,,,,,,,,,,,755,2022-02-02_11h48.40.185,multiplicationStroop,2021.2.3,Linux armv8l,59.95203837,,,,,,,,,,,,,,,,,,,,,,,,,,,,,,,,,64,2.178,0,0,30,30,26,1,9,×,6,9 × 6,congruent,largerFirst,2,1,54,,,,,,,,
,,,,,,,,,,,,,,,755,2022-02-02_11h48.40.185,multiplicationStroop,2021.2.3,Linux armv8l,59.95203837,,,,,,,,,,,,,,,,,,,,,,,,,,,,,,,,,42,3.35,1,0,31,31,17,1,7,×,6,7 × 6,congruent,largerFirst,2,1,42,,,,,,,,
,,,,,,,,,,,,,,,755,2022-02-02_11h48.40.185,multiplicationStroop,2021.2.3,Linux armv8l,59.95203837,,,,,,,,,,,,,,,,,,,,,,,,,,,,,,,,,30,1.812,1,0,32,32,1,1,5,×,6,5 × 6,congruent,smallerFirst,1,2,30,,,,,,,,
,,,,,,,,,,,,,,,755,2022-02-02_11h48.40.185,multiplicationStroop,2021.2.3,Linux armv8l,59.95203837,,,,,,,,,,,,,,,,,,,,,,,,,,,,,,,,,36,2.364,1,0,33,33,14,1,9,×,4,9 × 4,congruent,largerFirst,2,1,36,,,,,,,,
,,,,,,,,,,,,,,,755,2022-02-02_11h48.40.185,multiplicationStroop,2021.2.3,Linux armv8l,59.95203837,,,,,,,,,,,,,,,,,,,,,,,,,,,,,,,,,12,1.546,1,0,34,34,16,1,4,×,3,4 × 3,congruent,largerFirst,2,1,12,,,,,,,,
,,,,,,,,,,,,,,,755,2022-02-02_11h48.40.185,multiplicationStroop,2021.2.3,Linux armv8l,59.95203837,,,,,,,,,,,,,,,,,,,,,,,,,,,,,,,,,56,1.595,1,0,35,35,22,1,8,×,7,8 × 7,congruent,largerFirst,2,1,56,,,,,,,,
,,,,,,,,,,,,,,,755,2022-02-02_11h48.40.185,multiplicationStroop,2021.2.3,Linux armv8l,59.95203837,,,,,,,,,,,,,,,,,,,,,,,,,,,,,,,,,,,,,,,,,,,,,,,,,,0,5,5,3,1,stimulusFile/mult_blk4_congruent.xlsx,,
,,,,,,,,,,,,,,,755,2022-02-02_11h48.40.185,multiplicationStroop,2021.2.3,Linux armv8l,59.95203837,,,,,,,,,,,,,,,,,,,,,,,,,,,,,,,,,,,,,,,,,,,,,,,,,,,,,,,,space,6.805