welcomeKey_resp.keys,welcomeKey_resp.rt,X Scale,Y Scale,rt_resp_4.keys,rt_resp_4.corr,rt_resp_4.rt,speedtest_2.thisRepN,speedtest_2.thisTrialN,speedtest_2.thisN,speedtest_2.thisIndex,speedtest_2.ran,numberSc,posX,positionLayout,participant,date,expName,psychopyVersion,OS,frameRate,ct_instrresp.keys,ct_instrresp.rt,key_resp_2.keys,key_resp_2.rt,ct_keyResp.keys,ct_keyResp.corr,ct_keyResp.rt,trials.thisRepN,trials.thisTrialN,trials.thisN,trials.thisIndex,trials.ran,leftNo,rightNo,displayProblem,numDistance,leftNo_size,rightNo_size,Dims,keyAnswer,TS_Loop.thisRepN,TS_Loop.thisTrialN,TS_Loop.thisN,TS_Loop.thisIndex,TS_Loop.ran,Condition,ActionInst,instrImage,mltptaskInst_resp.keys,mltptaskInst_resp.rt,continue_resp_2.keys,continue_resp_2.rt,multp_Answer,multi_RT,multiplyCorr,LoopingMultiply.thisRepN,LoopingMultiply.thisTrialN,LoopingMultiply.thisN,LoopingMultiply.thisIndex,LoopingMultiply.ran,factor1,multiplySign,factor2,multliplyProblem,physicalSize,orderOperand,sizeF1,sizeF2,mult_answer,trials_stroop.thisRepN,trials_stroop.thisTrialN,trials_stroop.thisN,trials_stroop.thisIndex,trials_stroop.ran,multiplicationFile,esckey_resp_2.keys,esckey_resp_2.rt
y,6.8057,60,40,right,1,1.893,0,0,0,8,1,1,200,right,756,2022-01-22_11h30.15.837,multiplicationStroop,2021.2.3,Win32,59.31549914,,,,,,,,,,,,,,,,,,,,,,,,,,,,,,,,,,,,,,,,,,,,,,,,,,,,,,,,,
,,,,left,1,0.7818,0,1,1,3,1,4,-200,left,756,2022-01-22_11h30.15.837,multiplicationStroop,2021.2.3,Win32,59.31549914,,,,,,,,,,,,,,,,,,,,,,,,,,,,,,,,,,,,,,,,,,,,,,,,,,,,,,,,,
,,,,left,1,0.5674,0,2,2,4,1,6,-200,left,756,2022-01-22_11h30.15.837,multiplicationStroop,2021.2.3,Win32,59.31549914,,,,,,,,,,,,,,,,,,,,,,,,,,,,,,,,,,,,,,,,,,,,,,,,,,,,,,,,,
,,,,left,1,0.4162,0,3,3,5,1,7,-200,left,756,2022-01-22_11h30.15.837,multiplicationStroop,2021.2.3,Win32,59.31549914,,,,,,,,,,,,,,,,,,,,,,,,,,,,,,,,,,,,,,,,,,,,,,,,,,,,,,,,,
,,,,right,1,0.4341,0,4,4,9,1,2,200,right,756,2022-01-22_11h30.15.837,multiplicationStroop,2021.2.3,Win32,59.31549914,,,,,,,,,,,,,,,,,,,,,,,,,,,,,,,,,,,,,,,,,,,,,,,,,,,,,,,,,
,,,,right,1,0.4466,0,5,5,11,1,4,200,right,756,2022-01-22_11h30.15.837,multiplicationStroop,2021.2.3,Win32,59.31549914,,,,,,,,,,,,,,,,,,,,,,,,,,,,,,,,,,,,,,,,,,,,,,,,,,,,,,,,,
,,,,left,1,0.3874,0,6,6,2,1,3,-200,left,756,2022-01-22_11h30.15.837,multiplicationStroop,2021.2.3,Win32,59.31549914,,,,,,,,,,,,,,,,,,,,,,,,,,,,,,,,,,,,,,,,,,,,,,,,,,,,,,,,,
,,,,left,1,0.4183,0,7,7,1,1,2,-200,left,756,2022-01-22_11h30.15.837,multiplicationStroop,2021.2.3,Win32,59.31549914,,,,,,,,,,,,,,,,,,,,,,,,,,,,,,,,,,,,,,,,,,,,,,,,,,,,,,,,,
,,,,left,1,0.365,0,8,8,6,1,8,-200,left,756,2022-01-22_11h30.15.837,multiplicationStroop,2021.2.3,Win32,59.31549914,,,,,,,,,,,,,,,,,,,,,,,,,,,,,,,,,,,,,,,,,,,,,,,,,,,,,,,,,
,,,,right,1,0.399,0,9,9,12,1,6,200,right,756,2022-01-22_11h30.15.837,multiplicationStroop,2021.2.3,Win32,59.31549914,,,,,,,,,,,,,,,,,,,,,,,,,,,,,,,,,,,,,,,,,,,,,,,,,,,,,,,,,
,,,,right,1,0.3668,0,10,10,10,1,3,200,right,756,2022-01-22_11h30.15.837,multiplicationStroop,2021.2.3,Win32,59.31549914,,,,,,,,,,,,,,,,,,,,,,,,,,,,,,,,,,,,,,,,,,,,,,,,,,,,,,,,,
,,,,left,1,0.4314,0,11,11,7,1,9,-200,left,756,2022-01-22_11h30.15.837,multiplicationStroop,2021.2.3,Win32,59.31549914,,,,,,,,,,,,,,,,,,,,,,,,,,,,,,,,,,,,,,,,,,,,,,,,,,,,,,,,,
,,,,right,1,0.667,0,12,12,15,1,9,200,right,756,2022-01-22_11h30.15.837,multiplicationStroop,2021.2.3,Win32,59.31549914,,,,,,,,,,,,,,,,,,,,,,,,,,,,,,,,,,,,,,,,,,,,,,,,,,,,,,,,,
,,,,right,1,0.3993,0,13,13,13,1,7,200,right,756,2022-01-22_11h30.15.837,multiplicationStroop,2021.2.3,Win32,59.31549914,,,,,,,,,,,,,,,,,,,,,,,,,,,,,,,,,,,,,,,,,,,,,,,,,,,,,,,,,
,,,,right,1,0.37,0,14,14,14,1,8,200,right,756,2022-01-22_11h30.15.837,multiplicationStroop,2021.2.3,Win32,59.31549914,,,,,,,,,,,,,,,,,,,,,,,,,,,,,,,,,,,,,,,,,,,,,,,,,,,,,,,,,
,,,,left,1,0.3713,0,15,15,0,1,1,-200,left,756,2022-01-22_11h30.15.837,multiplicationStroop,2021.2.3,Win32,59.31549914,,,,,,,,,,,,,,,,,,,,,,,,,,,,,,,,,,,,,,,,,,,,,,,,,,,,,,,,,
,,,,left,1,0.4318,1,0,16,6,1,8,-200,left,756,2022-01-22_11h30.15.837,multiplicationStroop,2021.2.3,Win32,59.31549914,,,,,,,,,,,,,,,,,,,,,,,,,,,,,,,,,,,,,,,,,,,,,,,,,,,,,,,,,
,,,,left,1,0.3828,1,1,17,2,1,3,-200,left,756,2022-01-22_11h30.15.837,multiplicationStroop,2021.2.3,Win32,59.31549914,,,,,,,,,,,,,,,,,,,,,,,,,,,,,,,,,,,,,,,,,,,,,,,,,,,,,,,,,
,,,,left,1,0.3986,1,2,18,1,1,2,-200,left,756,2022-01-22_11h30.15.837,multiplicationStroop,2021.2.3,Win32,59.31549914,,,,,,,,,,,,,,,,,,,,,,,,,,,,,,,,,,,,,,,,,,,,,,,,,,,,,,,,,
,,,,right,1,0.4129,1,3,19,12,1,6,200,right,756,2022-01-22_11h30.15.837,multiplicationStroop,2021.2.3,Win32,59.31549914,,,,,,,,,,,,,,,,,,,,,,,,,,,,,,,,,,,,,,,,,,,,,,,,,,,,,,,,,
,,,,right,1,0.368,1,4,20,15,1,9,200,right,756,2022-01-22_11h30.15.837,multiplicationStroop,2021.2.3,Win32,59.31549914,,,,,,,,,,,,,,,,,,,,,,,,,,,,,,,,,,,,,,,,,,,,,,,,,,,,,,,,,
,,,,right,1,0.3824,1,5,21,13,1,7,200,right,756,2022-01-22_11h30.15.837,multiplicationStroop,2021.2.3,Win32,59.31549914,,,,,,,,,,,,,,,,,,,,,,,,,,,,,,,,,,,,,,,,,,,,,,,,,,,,,,,,,
,,,,left,1,0.428,1,6,22,4,1,6,-200,left,756,2022-01-22_11h30.15.837,multiplicationStroop,2021.2.3,Win32,59.31549914,,,,,,,,,,,,,,,,,,,,,,,,,,,,,,,,,,,,,,,,,,,,,,,,,,,,,,,,,
,,,,left,1,0.5149,1,7,23,0,1,1,-200,left,756,2022-01-22_11h30.15.837,multiplicationStroop,2021.2.3,Win32,59.31549914,,,,,,,,,,,,,,,,,,,,,,,,,,,,,,,,,,,,,,,,,,,,,,,,,,,,,,,,,
,,,,right,1,0.4684,1,8,24,10,1,3,200,right,756,2022-01-22_11h30.15.837,multiplicationStroop,2021.2.3,Win32,59.31549914,,,,,,,,,,,,,,,,,,,,,,,,,,,,,,,,,,,,,,,,,,,,,,,,,,,,,,,,,
,,,,left,1,0.4292,1,9,25,3,1,4,-200,left,756,2022-01-22_11h30.15.837,multiplicationStroop,2021.2.3,Win32,59.31549914,,,,,,,,,,,,,,,,,,,,,,,,,,,,,,,,,,,,,,,,,,,,,,,,,,,,,,,,,
,,,,left,1,0.4478,1,10,26,5,1,7,-200,left,756,2022-01-22_11h30.15.837,multiplicationStroop,2021.2.3,Win32,59.31549914,,,,,,,,,,,,,,,,,,,,,,,,,,,,,,,,,,,,,,,,,,,,,,,,,,,,,,,,,
,,,,right,1,0.4824,1,11,27,11,1,4,200,right,756,2022-01-22_11h30.15.837,multiplicationStroop,2021.2.3,Win32,59.31549914,,,,,,,,,,,,,,,,,,,,,,,,,,,,,,,,,,,,,,,,,,,,,,,,,,,,,,,,,
,,,,right,1,0.4721,1,12,28,14,1,8,200,right,756,2022-01-22_11h30.15.837,multiplicationStroop,2021.2.3,Win32,59.31549914,,,,,,,,,,,,,,,,,,,,,,,,,,,,,,,,,,,,,,,,,,,,,,,,,,,,,,,,,
,,,,left,1,0.4346,1,13,29,7,1,9,-200,left,756,2022-01-22_11h30.15.837,multiplicationStroop,2021.2.3,Win32,59.31549914,,,,,,,,,,,,,,,,,,,,,,,,,,,,,,,,,,,,,,,,,,,,,,,,,,,,,,,,,
,,,,right,1,0.485,1,14,30,8,1,1,200,right,756,2022-01-22_11h30.15.837,multiplicationStroop,2021.2.3,Win32,59.31549914,,,,,,,,,,,,,,,,,,,,,,,,,,,,,,,,,,,,,,,,,,,,,,,,,,,,,,,,,
,,,,right,1,0.4063,1,15,31,9,1,2,200,right,756,2022-01-22_11h30.15.837,multiplicationStroop,2021.2.3,Win32,59.31549914,,,,,,,,,,,,,,,,,,,,,,,,,,,,,,,,,,,,,,,,,,,,,,,,,,,,,,,,,
,,,,left,1,0.4335,2,0,32,1,1,2,-200,left,756,2022-01-22_11h30.15.837,multiplicationStroop,2021.2.3,Win32,59.31549914,,,,,,,,,,,,,,,,,,,,,,,,,,,,,,,,,,,,,,,,,,,,,,,,,,,,,,,,,
,,,,left,1,0.4703,2,1,33,6,1,8,-200,left,756,2022-01-22_11h30.15.837,multiplicationStroop,2021.2.3,Win32,59.31549914,,,,,,,,,,,,,,,,,,,,,,,,,,,,,,,,,,,,,,,,,,,,,,,,,,,,,,,,,
,,,,right,1,0.3683,2,2,34,9,1,2,200,right,756,2022-01-22_11h30.15.837,multiplicationStroop,2021.2.3,Win32,59.31549914,,,,,,,,,,,,,,,,,,,,,,,,,,,,,,,,,,,,,,,,,,,,,,,,,,,,,,,,,
,,,,left,1,0.5489,2,3,35,4,1,6,-200,left,756,2022-01-22_11h30.15.837,multiplicationStroop,2021.2.3,Win32,59.31549914,,,,,,,,,,,,,,,,,,,,,,,,,,,,,,,,,,,,,,,,,,,,,,,,,,,,,,,,,
,,,,left,1,0.5011,2,4,36,3,1,4,-200,left,756,2022-01-22_11h30.15.837,multiplicationStroop,2021.2.3,Win32,59.31549914,,,,,,,,,,,,,,,,,,,,,,,,,,,,,,,,,,,,,,,,,,,,,,,,,,,,,,,,,
,,,,right,1,0.4568,2,5,37,13,1,7,200,right,756,2022-01-22_11h30.15.837,multiplicationStroop,2021.2.3,Win32,59.31549914,,,,,,,,,,,,,,,,,,,,,,,,,,,,,,,,,,,,,,,,,,,,,,,,,,,,,,,,,
,,,,left,1,0.5529,2,6,38,7,1,9,-200,left,756,2022-01-22_11h30.15.837,multiplicationStroop,2021.2.3,Win32,59.31549914,,,,,,,,,,,,,,,,,,,,,,,,,,,,,,,,,,,,,,,,,,,,,,,,,,,,,,,,,
,,,,left,1,0.4524,2,7,39,2,1,3,-200,left,756,2022-01-22_11h30.15.837,multiplicationStroop,2021.2.3,Win32,59.31549914,,,,,,,,,,,,,,,,,,,,,,,,,,,,,,,,,,,,,,,,,,,,,,,,,,,,,,,,,
,,,,right,1,0.4163,2,8,40,14,1,8,200,right,756,2022-01-22_11h30.15.837,multiplicationStroop,2021.2.3,Win32,59.31549914,,,,,,,,,,,,,,,,,,,,,,,,,,,,,,,,,,,,,,,,,,,,,,,,,,,,,,,,,
,,,,right,1,0.4334,2,9,41,8,1,1,200,right,756,2022-01-22_11h30.15.837,multiplicationStroop,2021.2.3,Win32,59.31549914,,,,,,,,,,,,,,,,,,,,,,,,,,,,,,,,,,,,,,,,,,,,,,,,,,,,,,,,,
,,,,right,1,0.3887,2,10,42,10,1,3,200,right,756,2022-01-22_11h30.15.837,multiplicationStroop,2021.2.3,Win32,59.31549914,,,,,,,,,,,,,,,,,,,,,,,,,,,,,,,,,,,,,,,,,,,,,,,,,,,,,,,,,
,,,,left,1,0.4517,2,11,43,0,1,1,-200,left,756,2022-01-22_11h30.15.837,multiplicationStroop,2021.2.3,Win32,59.31549914,,,,,,,,,,,,,,,,,,,,,,,,,,,,,,,,,,,,,,,,,,,,,,,,,,,,,,,,,
,,,,right,1,0.5162,2,12,44,12,1,6,200,right,756,2022-01-22_11h30.15.837,multiplicationStroop,2021.2.3,Win32,59.31549914,,,,,,,,,,,,,,,,,,,,,,,,,,,,,,,,,,,,,,,,,,,,,,,,,,,,,,,,,
,,,,right,1,0.4519,2,13,45,15,1,9,200,right,756,2022-01-22_11h30.15.837,multiplicationStroop,2021.2.3,Win32,59.31549914,,,,,,,,,,,,,,,,,,,,,,,,,,,,,,,,,,,,,,,,,,,,,,,,,,,,,,,,,
,,,,right,1,0.4336,2,14,46,11,1,4,200,right,756,2022-01-22_11h30.15.837,multiplicationStroop,2021.2.3,Win32,59.31549914,,,,,,,,,,,,,,,,,,,,,,,,,,,,,,,,,,,,,,,,,,,,,,,,,,,,,,,,,
,,,,left,1,0.4833,2,15,47,5,1,7,-200,left,756,2022-01-22_11h30.15.837,multiplicationStroop,2021.2.3,Win32,59.31549914,,,,,,,,,,,,,,,,,,,,,,,,,,,,,,,,,,,,,,,,,,,,,,,,,,,,,,,,,
,,,,right,1,0.4696,3,0,48,10,1,3,200,right,756,2022-01-22_11h30.15.837,multiplicationStroop,2021.2.3,Win32,59.31549914,,,,,,,,,,,,,,,,,,,,,,,,,,,,,,,,,,,,,,,,,,,,,,,,,,,,,,,,,
,,,,left,1,0.616,3,1,49,4,1,6,-200,left,756,2022-01-22_11h30.15.837,multiplicationStroop,2021.2.3,Win32,59.31549914,,,,,,,,,,,,,,,,,,,,,,,,,,,,,,,,,,,,,,,,,,,,,,,,,,,,,,,,,
,,,,right,1,0.3859,3,2,50,8,1,1,200,right,756,2022-01-22_11h30.15.837,multiplicationStroop,2021.2.3,Win32,59.31549914,,,,,,,,,,,,,,,,,,,,,,,,,,,,,,,,,,,,,,,,,,,,,,,,,,,,,,,,,
,,,,left,1,0.4154,3,3,51,7,1,9,-200,left,756,2022-01-22_11h30.15.837,multiplicationStroop,2021.2.3,Win32,59.31549914,,,,,,,,,,,,,,,,,,,,,,,,,,,,,,,,,,,,,,,,,,,,,,,,,,,,,,,,,
,,,,left,1,0.4668,3,4,52,6,1,8,-200,left,756,2022-01-22_11h30.15.837,multiplicationStroop,2021.2.3,Win32,59.31549914,,,,,,,,,,,,,,,,,,,,,,,,,,,,,,,,,,,,,,,,,,,,,,,,,,,,,,,,,
,,,,right,1,0.3522,3,5,53,14,1,8,200,right,756,2022-01-22_11h30.15.837,multiplicationStroop,2021.2.3,Win32,59.31549914,,,,,,,,,,,,,,,,,,,,,,,,,,,,,,,,,,,,,,,,,,,,,,,,,,,,,,,,,
,,,,right,1,0.4339,3,6,54,11,1,4,200,right,756,2022-01-22_11h30.15.837,multiplicationStroop,2021.2.3,Win32,59.31549914,,,,,,,,,,,,,,,,,,,,,,,,,,,,,,,,,,,,,,,,,,,,,,,,,,,,,,,,,
,,,,right,1,0.4014,3,7,55,13,1,7,200,right,756,2022-01-22_11h30.15.837,multiplicationStroop,2021.2.3,Win32,59.31549914,,,,,,,,,,,,,,,,,,,,,,,,,,,,,,,,,,,,,,,,,,,,,,,,,,,,,,,,,
,,,,left,1,0.5158,3,8,56,5,1,7,-200,left,756,2022-01-22_11h30.15.837,multiplicationStroop,2021.2.3,Win32,59.31549914,,,,,,,,,,,,,,,,,,,,,,,,,,,,,,,,,,,,,,,,,,,,,,,,,,,,,,,,,
,,,,right,1,0.4511,3,9,57,9,1,2,200,right,756,2022-01-22_11h30.15.837,multiplicationStroop,2021.2.3,Win32,59.31549914,,,,,,,,,,,,,,,,,,,,,,,,,,,,,,,,,,,,,,,,,,,,,,,,,,,,,,,,,
,,,,right,1,0.4158,3,10,58,15,1,9,200,right,756,2022-01-22_11h30.15.837,multiplicationStroop,2021.2.3,Win32,59.31549914,,,,,,,,,,,,,,,,,,,,,,,,,,,,,,,,,,,,,,,,,,,,,,,,,,,,,,,,,
,,,,right,1,0.3684,3,11,59,12,1,6,200,right,756,2022-01-22_11h30.15.837,multiplicationStroop,2021.2.3,Win32,59.31549914,,,,,,,,,,,,,,,,,,,,,,,,,,,,,,,,,,,,,,,,,,,,,,,,,,,,,,,,,
,,,,left,1,0.4004,3,12,60,1,1,2,-200,left,756,2022-01-22_11h30.15.837,multiplicationStroop,2021.2.3,Win32,59.31549914,,,,,,,,,,,,,,,,,,,,,,,,,,,,,,,,,,,,,,,,,,,,,,,,,,,,,,,,,
,,,,left,1,0.4411,3,13,61,2,1,3,-200,left,756,2022-01-22_11h30.15.837,multiplicationStroop,2021.2.3,Win32,59.31549914,,,,,,,,,,,,,,,,,,,,,,,,,,,,,,,,,,,,,,,,,,,,,,,,,,,,,,,,,
,,,,left,1,0.4216,3,14,62,0,1,1,-200,left,756,2022-01-22_11h30.15.837,multiplicationStroop,2021.2.3,Win32,59.31549914,,,,,,,,,,,,,,,,,,,,,,,,,,,,,,,,,,,,,,,,,,,,,,,,,,,,,,,,,
,,,,left,1,0.4037,3,15,63,3,1,4,-200,left,756,2022-01-22_11h30.15.837,multiplicationStroop,2021.2.3,Win32,59.31549914,,,,,,,,,,,,,,,,,,,,,,,,,,stimulusFile/physical.xlsx,,,,,,,,,,,,,,,,,,,,,,,,,,,,,,,
,,,,,,,,,,,,,,,756,2022-01-22_11h30.15.837,multiplicationStroop,2021.2.3,Win32,59.31549914,space,15.1428,space,4.6702,right,1,0.8862,0,0,0,61,1,4,4,4 | 4,0,1.4111,1.9756,neutral,right,,,,,,stimulusFile/physical.xlsx,,,,,,,,,,,,,,,,,,,,,,,,,,,,,,,
,,,,,,,,,,,,,,,756,2022-01-22_11h30.15.837,multiplicationStroop,2021.2.3,Win32,59.31549914,,,,,left,1,0.5535,0,1,1,4,1,2,1,2 | 1,1,1.9756,1.4111,congruent,left,,,,,,stimulusFile/physical.xlsx,,,,,,,,,,,,,,,,,,,,,,,,,,,,,,,
,,,,,,,,,,,,,,,756,2022-01-22_11h30.15.837,multiplicationStroop,2021.2.3,Win32,59.31549914,,,,,left,1,0.7294,0,2,2,54,1,7,7,7 | 7,0,1.9756,1.4111,neutral,left,,,,,,stimulusFile/physical.xlsx,,,,,,,,,,,,,,,,,,,,,,,,,,,,,,,
,,,,,,,,,,,,,,,756,2022-01-22_11h30.15.837,multiplicationStroop,2021.2.3,Win32,59.31549914,,,,,right,1,0.4956,0,3,3,47,1,9,4,9 | 4,5,1.4111,1.9756,incongruent,right,,,,,,stimulusFile/physical.xlsx,,,,,,,,,,,,,,,,,,,,,,,,,,,,,,,
,,,,,,,,,,,,,,,756,2022-01-22_11h30.15.837,multiplicationStroop,2021.2.3,Win32,59.31549914,,,,,left,1,0.5819,0,4,4,51,1,8,8,8 | 8,0,1.9756,1.4111,neutral,left,,,,,,stimulusFile/physical.xlsx,,,,,,,,,,,,,,,,,,,,,,,,,,,,,,,
,,,,,,,,,,,,,,,756,2022-01-22_11h30.15.837,multiplicationStroop,2021.2.3,Win32,59.31549914,,,,,left,1,0.5821,0,5,5,15,1,9,7,9 | 7,2,1.9756,1.4111,congruent,left,,,,,,stimulusFile/physical.xlsx,,,,,,,,,,,,,,,,,,,,,,,,,,,,,,,
,,,,,,,,,,,,,,,756,2022-01-22_11h30.15.837,multiplicationStroop,2021.2.3,Win32,59.31549914,,,,,right,1,0.4881,0,6,6,38,1,8,6,8 | 6,2,1.4111,1.9756,incongruent,right,,,,,,stimulusFile/physical.xlsx,,,,,,,,,,,,,,,,,,,,,,,,,,,,,,,
,,,,,,,,,,,,,,,756,2022-01-22_11h30.15.837,multiplicationStroop,2021.2.3,Win32,59.31549914,,,,,left,1,0.4672,0,7,7,40,1,1,6,1 | 6,5,1.9756,1.4111,incongruent,left,,,,,,stimulusFile/physical.xlsx,,,,,,,,,,,,,,,,,,,,,,,,,,,,,,,
,,,,,,,,,,,,,,,756,2022-01-22_11h30.15.837,multiplicationStroop,2021.2.3,Win32,59.31549914,,,,,left,1,0.7332,0,8,8,34,1,6,8,6 | 8,2,1.9756,1.4111,incongruent,left,,,,,,stimulusFile/physical.xlsx,,,,,,,,,,,,,,,,,,,,,,,,,,,,,,,
,,,,,,,,,,,,,,,756,2022-01-22_11h30.15.837,multiplicationStroop,2021.2.3,Win32,59.31549914,,,,,left,1,0.4517,0,9,9,35,1,7,9,7 | 9,2,1.9756,1.4111,incongruent,left,,,,,,stimulusFile/physical.xlsx,,,,,,,,,,,,,,,,,,,,,,,,,,,,,,,
,,,,,,,,,,,,,,,756,2022-01-22_11h30.15.837,multiplicationStroop,2021.2.3,Win32,59.31549914,,,,,left,1,0.6498,0,10,10,22,1,8,3,8 | 3,5,1.9756,1.4111,congruent,left,,,,,,stimulusFile/physical.xlsx,,,,,,,,,,,,,,,,,,,,,,,,,,,,,,,
,,,,,,,,,,,,,,,756,2022-01-22_11h30.15.837,multiplicationStroop,2021.2.3,Win32,59.31549914,,,,,right,1,0.5382,0,11,11,60,1,3,3,3 | 3,0,1.4111,1.9756,neutral,right,,,,,,stimulusFile/physical.xlsx,,,,,,,,,,,,,,,,,,,,,,,,,,,,,,,
,,,,,,,,,,,,,,,756,2022-01-22_11h30.15.837,multiplicationStroop,2021.2.3,Win32,59.31549914,,,,,right,1,0.4516,0,12,12,19,1,4,9,4 | 9,5,1.4111,1.9756,congruent,right,,,,,,stimulusFile/physical.xlsx,,,,,,,,,,,,,,,,,,,,,,,,,,,,,,,
,,,,,,,,,,,,,,,756,2022-01-22_11h30.15.837,multiplicationStroop,2021.2.3,Win32,59.31549914,,,,,left,1,0.4531,0,13,13,5,1,4,3,4 | 3,1,1.9756,1.4111,congruent,left,,,,,,stimulusFile/physical.xlsx,,,,,,,,,,,,,,,,,,,,,,,,,,,,,,,
,,,,,,,,,,,,,,,756,2022-01-22_11h30.15.837,multiplicationStroop,2021.2.3,Win32,59.31549914,,,,,left,1,0.5827,0,14,14,27,1,8,9,8 | 9,1,1.9756,1.4111,incongruent,left,,,,,,stimulusFile/physical.xlsx,,,,,,,,,,,,,,,,,,,,,,,,,,,,,,,
,,,,,,,,,,,,,,,756,2022-01-22_11h30.15.837,multiplicationStroop,2021.2.3,Win32,59.31549914,,,,,right,1,0.5,0,15,15,37,1,4,2,4 | 2,2,1.4111,1.9756,incongruent,right,,,,,,stimulusFile/physical.xlsx,,,,,,,,,,,,,,,,,,,,,,,,,,,,,,,
,,,,,,,,,,,,,,,756,2022-01-22_11h30.15.837,multiplicationStroop,2021.2.3,Win32,59.31549914,,,,,left,1,0.4724,0,16,16,21,1,7,2,7 | 2,5,1.9756,1.4111,congruent,left,,,,,,stimulusFile/physical.xlsx,,,,,,,,,,,,,,,,,,,,,,,,,,,,,,,
,,,,,,,,,,,,,,,756,2022-01-22_11h30.15.837,multiplicationStroop,2021.2.3,Win32,59.31549914,,,,,right,0,0.6657,0,17,17,69,1,7,7,7 | 7,0,1.4111,1.9756,neutral,left,,,,,,stimulusFile/physical.xlsx,,,,,,,,,,,,,,,,,,,,,,,,,,,,,,,
,,,,,,,,,,,,,,,756,2022-01-22_11h30.15.837,multiplicationStroop,2021.2.3,Win32,59.31549914,,,,,right,1,0.5519,0,18,18,63,1,9,9,9 | 9,0,1.4111,1.9756,neutral,right,,,,,,stimulusFile/physical.xlsx,,,,,,,,,,,,,,,,,,,,,,,,,,,,,,,
,,,,,,,,,,,,,,,756,2022-01-22_11h30.15.837,multiplicationStroop,2021.2.3,Win32,59.31549914,,,,,right,1,0.5496,0,19,19,31,1,9,8,9 | 8,1,1.4111,1.9756,incongruent,right,,,,,,stimulusFile/physical.xlsx,,,,,,,,,,,,,,,,,,,,,,,,,,,,,,,
,,,,,,,,,,,,,,,756,2022-01-22_11h30.15.837,multiplicationStroop,2021.2.3,Win32,59.31549914,,,,,left,1,0.5862,0,20,20,68,1,6,6,6 | 6,0,1.9756,1.4111,neutral,left,,,,,,stimulusFile/physical.xlsx,,,,,,,,,,,,,,,,,,,,,,,,,,,,,,,
,,,,,,,,,,,,,,,756,2022-01-22_11h30.15.837,multiplicationStroop,2021.2.3,Win32,59.31549914,,,,,left,1,1.1386,0,21,21,7,1,9,8,9 | 8,1,1.9756,1.4111,congruent,left,,,,,,stimulusFile/physical.xlsx,,,,,,,,,,,,,,,,,,,,,,,,,,,,,,,
,,,,,,,,,,,,,,,756,2022-01-22_11h30.15.837,multiplicationStroop,2021.2.3,Win32,59.31549914,,,,,left,1,0.5859,0,22,22,49,1,3,3,3 | 3,0,1.9756,1.4111,neutral,left,,,,,,stimulusFile/physical.xlsx,,,,,,,,,,,,,,,,,,,,,,,,,,,,,,,
,,,,,,,,,,,,,,,756,2022-01-22_11h30.15.837,multiplicationStroop,2021.2.3,Win32,59.31549914,,,,,right,1,0.6163,0,23,23,11,1,7,9,7 | 9,2,1.4111,1.9756,congruent,right,,,,,,stimulusFile/physical.xlsx,,,,,,,,,,,,,,,,,,,,,,,,,,,,,,,
,,,,,,,,,,,,,,,756,2022-01-22_11h30.15.837,multiplicationStroop,2021.2.3,Win32,59.31549914,,,,,right,1,0.4727,0,24,24,3,1,8,9,8 | 9,1,1.4111,1.9756,congruent,right,,,,,,stimulusFile/physical.xlsx,,,,,,,,,,,,,,,,,,,,,,,,,,,,,,,
,,,,,,,,,,,,,,,756,2022-01-22_11h30.15.837,multiplicationStroop,2021.2.3,Win32,59.31549914,,,,,right,1,0.5818,0,25,25,67,1,4,4,4 | 4,0,1.4111,1.9756,neutral,right,,,,,,stimulusFile/physical.xlsx,,,,,,,,,,,,,,,,,,,,,,,,,,,,,,,
,,,,,,,,,,,,,,,756,2022-01-22_11h30.15.837,multiplicationStroop,2021.2.3,Win32,59.31549914,,,,,right,1,0.467,0,26,26,62,1,8,8,8 | 8,0,1.4111,1.9756,neutral,right,,,,,,stimulusFile/physical.xlsx,,,,,,,,,,,,,,,,,,,,,,,,,,,,,,,
,,,,,,,,,,,,,,,756,2022-01-22_11h30.15.837,multiplicationStroop,2021.2.3,Win32,59.31549914,,,,,left,1,0.5333,0,27,27,43,1,4,9,4 | 9,5,1.9756,1.4111,incongruent,left,,,,,,stimulusFile/physical.xlsx,,,,,,,,,,,,,,,,,,,,,,,,,,,,,,,
,,,,,,,,,,,,,,,756,2022-01-22_11h30.15.837,multiplicationStroop,2021.2.3,Win32,59.31549914,,,,,left,1,0.517,0,28,28,12,1,3,1,3 | 1,2,1.9756,1.4111,congruent,left,,,,,,stimulusFile/physical.xlsx,,,,,,,,,,,,,,,,,,,,,,,,,,,,,,,
,,,,,,,,,,,,,,,756,2022-01-22_11h30.15.837,multiplicationStroop,2021.2.3,Win32,59.31549914,,,,,left,0,0.5165,0,29,29,66,1,3,3,3 | 3,0,1.9756,1.4111,neutral,right,,,,,,stimulusFile/physical.xlsx,,,,,,,,,,,,,,,,,,,,,,,,,,,,,,,
,,,,,,,,,,,,,,,756,2022-01-22_11h30.15.837,multiplicationStroop,2021.2.3,Win32,59.31549914,,,,,left,1,0.5224,0,30,30,23,1,9,4,9 | 4,5,1.9756,1.4111,congruent,left,,,,,,stimulusFile/physical.xlsx,,,,,,,,,,,,,,,,,,,,,,,,,,,,,,,
,,,,,,,,,,,,,,,756,2022-01-22_11h30.15.837,multiplicationStroop,2021.2.3,Win32,59.31549914,,,,,left,1,0.6666,0,31,31,6,1,7,6,7 | 6,1,1.9756,1.4111,congruent,left,,,,,,stimulusFile/physical.xlsx,,,,,,,,,,,,,,,,,,,,,,,,,,,,,,,
,,,,,,,,,,,,,,,756,2022-01-22_11h30.15.837,multiplicationStroop,2021.2.3,Win32,59.31549914,,,,,right,1,0.4998,0,32,32,8,1,1,3,1 | 3,2,1.4111,1.9756,congruent,right,,,,,,stimulusFile/physical.xlsx,,,,,,,,,,,,,,,,,,,,,,,,,,,,,,,
,,,,,,,,,,,,,,,756,2022-01-22_11h30.15.837,multiplicationStroop,2021.2.3,Win32,59.31549914,,,,,right,1,0.5185,0,33,33,18,1,3,8,3 | 8,5,1.4111,1.9756,congruent,right,,,,,,stimulusFile/physical.xlsx,,,,,,,,,,,,,,,,,,,,,,,,,,,,,,,
,,,,,,,,,,,,,,,756,2022-01-22_11h30.15.837,multiplicationStroop,2021.2.3,Win32,59.31549914,,,,,right,1,0.5165,0,34,34,56,1,1,1,1 | 1,0,1.4111,1.9756,neutral,right,,,,,,stimulusFile/physical.xlsx,,,,,,,,,,,,,,,,,,,,,,,,,,,,,,,
,,,,,,,,,,,,,,,756,2022-01-22_11h30.15.837,multiplicationStroop,2021.2.3,Win32,59.31549914,,,,,left,1,0.8993,0,35,35,26,1,6,7,6 | 7,1,1.9756,1.4111,incongruent,left,,,,,,stimulusFile/physical.xlsx,,,,,,,,,,,,,,,,,,,,,,,,,,,,,,,
,,,,,,,,,,,,,,,756,2022-01-22_11h30.15.837,multiplicationStroop,2021.2.3,Win32,59.31549914,,,,,right,1,0.5509,0,36,36,0,1,1,2,1 | 2,1,1.4111,1.9756,congruent,right,,,,,,stimulusFile/physical.xlsx,,,,,,,,,,,,,,,,,,,,,,,,,,,,,,,
,,,,,,,,,,,,,,,756,2022-01-22_11h30.15.837,multiplicationStroop,2021.2.3,Win32,59.31549914,,,,,left,1,0.5675,0,37,37,48,1,1,1,1 | 1,0,1.9756,1.4111,neutral,left,,,,,,stimulusFile/physical.xlsx,,,,,,,,,,,,,,,,,,,,,,,,,,,,,,,
,,,,,,,,,,,,,,,756,2022-01-22_11h30.15.837,multiplicationStroop,2021.2.3,Win32,59.31549914,,,,,left,1,0.6162,0,38,38,53,1,4,4,4 | 4,0,1.9756,1.4111,neutral,left,,,,,,stimulusFile/physical.xlsx,,,,,,,,,,,,,,,,,,,,,,,,,,,,,,,
,,,,,,,,,,,,,,,756,2022-01-22_11h30.15.837,multiplicationStroop,2021.2.3,Win32,59.31549914,,,,,right,1,0.5185,0,39,39,58,1,6,6,6 | 6,0,1.4111,1.9756,neutral,right,,,,,,stimulusFile/physical.xlsx,,,,,,,,,,,,,,,,,,,,,,,,,,,,,,,
,,,,,,,,,,,,,,,756,2022-01-22_11h30.15.837,multiplicationStroop,2021.2.3,Win32,59.31549914,,,,,right,1,0.6563,0,40,40,59,1,7,7,7 | 7,0,1.4111,1.9756,neutral,right,,,,,,stimulusFile/physical.xlsx,,,,,,,,,,,,,,,,,,,,,,,,,,,,,,,
,,,,,,,,,,,,,,,756,2022-01-22_11h30.15.837,multiplicationStroop,2021.2.3,Win32,59.31549914,,,,,right,1,0.7185,0,41,41,65,1,2,2,2 | 2,0,1.4111,1.9756,neutral,right,,,,,,stimulusFile/physical.xlsx,,,,,,,,,,,,,,,,,,,,,,,,,,,,,,,
,,,,,,,,,,,,,,,756,2022-01-22_11h30.15.837,multiplicationStroop,2021.2.3,Win32,59.31549914,,,,,right,1,0.7161,0,42,42,39,1,9,7,9 | 7,2,1.4111,1.9756,incongruent,right,,,,,,stimulusFile/physical.xlsx,,,,,,,,,,,,,,,,,,,,,,,,,,,,,,,
,,,,,,,,,,,,,,,756,2022-01-22_11h30.15.837,multiplicationStroop,2021.2.3,Win32,59.31549914,,,,,right,1,0.5999,0,43,43,44,1,6,1,6 | 1,5,1.4111,1.9756,incongruent,right,,,,,,stimulusFile/physical.xlsx,,,,,,,,,,,,,,,,,,,,,,,,,,,,,,,
,,,,,,,,,,,,,,,756,2022-01-22_11h30.15.837,multiplicationStroop,2021.2.3,Win32,59.31549914,,,,,right,1,0.6633,0,44,44,46,1,8,3,8 | 3,5,1.4111,1.9756,incongruent,right,,,,,,stimulusFile/physical.xlsx,,,,,,,,,,,,,,,,,,,,,,,,,,,,,,,
,,,,,,,,,,,,,,,756,2022-01-22_11h30.15.837,multiplicationStroop,2021.2.3,Win32,59.31549914,,,,,left,1,0.6328,0,45,45,52,1,2,2,2 | 2,0,1.9756,1.4111,neutral,left,,,,,,stimulusFile/physical.xlsx,,,,,,,,,,,,,,,,,,,,,,,,,,,,,,,
,,,,,,,,,,,,,,,756,2022-01-22_11h30.15.837,multiplicationStroop,2021.2.3,Win32,59.31549914,,,,,right,1,0.5673,0,46,46,17,1,2,7,2 | 7,5,1.4111,1.9756,congruent,right,,,,,,stimulusFile/physical.xlsx,,,,,,,,,,,,,,,,,,,,,,,,,,,,,,,
,,,,,,,,,,,,,,,756,2022-01-22_11h30.15.837,multiplicationStroop,2021.2.3,Win32,59.31549914,,,,,left,1,0.6183,0,47,47,70,1,8,8,8 | 8,0,1.9756,1.4111,neutral,left,,,,,,stimulusFile/physical.xlsx,,,,,,,,,,,,,,,,,,,,,,,,,,,,,,,
,,,,,,,,,,,,,,,756,2022-01-22_11h30.15.837,multiplicationStroop,2021.2.3,Win32,59.31549914,,,,,left,1,0.5684,0,48,48,14,1,8,6,8 | 6,2,1.9756,1.4111,congruent,left,,,,,,stimulusFile/physical.xlsx,,,,,,,,,,,,,,,,,,,,,,,,,,,,,,,
,,,,,,,,,,,,,,,756,2022-01-22_11h30.15.837,multiplicationStroop,2021.2.3,Win32,59.31549914,,,,,right,1,0.5369,0,49,49,9,1,2,4,2 | 4,2,1.4111,1.9756,congruent,right,,,,,,stimulusFile/physical.xlsx,,,,,,,,,,,,,,,,,,,,,,,,,,,,,,,
,,,,,,,,,,,,,,,756,2022-01-22_11h30.15.837,multiplicationStroop,2021.2.3,Win32,59.31549914,,,,,left,1,0.6184,0,50,50,32,1,1,3,1 | 3,2,1.9756,1.4111,incongruent,left,,,,,,stimulusFile/physical.xlsx,,,,,,,,,,,,,,,,,,,,,,,,,,,,,,,
,,,,,,,,,,,,,,,756,2022-01-22_11h30.15.837,multiplicationStroop,2021.2.3,Win32,59.31549914,,,,,right,1,0.5666,0,51,51,10,1,6,8,6 | 8,2,1.4111,1.9756,congruent,right,,,,,,stimulusFile/physical.xlsx,,,,,,,,,,,,,,,,,,,,,,,,,,,,,,,
,,,,,,,,,,,,,,,756,2022-01-22_11h30.15.837,multiplicationStroop,2021.2.3,Win32,59.31549914,,,,,left,1,0.5341,0,52,52,25,1,3,4,3 | 4,1,1.9756,1.4111,incongruent,left,,,,,,stimulusFile/physical.xlsx,,,,,,,,,,,,,,,,,,,,,,,,,,,,,,,
,,,,,,,,,,,,,,,756,2022-01-22_11h30.15.837,multiplicationStroop,2021.2.3,Win32,59.31549914,,,,,right,1,0.5154,0,53,53,30,1,7,6,7 | 6,1,1.4111,1.9756,incongruent,right,,,,,,stimulusFile/physical.xlsx,,,,,,,,,,,,,,,,,,,,,,,,,,,,,,,
,,,,,,,,,,,,,,,756,2022-01-22_11h30.15.837,multiplicationStroop,2021.2.3,Win32,59.31549914,,,,,left,1,0.5335,0,54,54,55,1,9,9,9 | 9,0,1.9756,1.4111,neutral,left,,,,,,stimulusFile/physical.xlsx,,,,,,,,,,,,,,,,,,,,,,,,,,,,,,,
,,,,,,,,,,,,,,,756,2022-01-22_11h30.15.837,multiplicationStroop,2021.2.3,Win32,59.31549914,,,,,right,1,0.5177,0,55,55,36,1,3,1,3 | 1,2,1.4111,1.9756,incongruent,right,,,,,,stimulusFile/physical.xlsx,,,,,,,,,,,,,,,,,,,,,,,,,,,,,,,
,,,,,,,,,,,,,,,756,2022-01-22_11h30.15.837,multiplicationStroop,2021.2.3,Win32,59.31549914,,,,,right,1,0.6166,0,56,56,2,1,6,7,6 | 7,1,1.4111,1.9756,congruent,right,,,,,,stimulusFile/physical.xlsx,,,,,,,,,,,,,,,,,,,,,,,,,,,,,,,
,,,,,,,,,,,,,,,756,2022-01-22_11h30.15.837,multiplicationStroop,2021.2.3,Win32,59.31549914,,,,,right,1,0.468,0,57,57,45,1,7,2,7 | 2,5,1.4111,1.9756,incongruent,right,,,,,,stimulusFile/physical.xlsx,,,,,,,,,,,,,,,,,,,,,,,,,,,,,,,
,,,,,,,,,,,,,,,756,2022-01-22_11h30.15.837,multiplicationStroop,2021.2.3,Win32,59.31549914,,,,,left,1,0.6525,0,58,58,13,1,4,2,4 | 2,2,1.9756,1.4111,congruent,left,,,,,,stimulusFile/physical.xlsx,,,,,,,,,,,,,,,,,,,,,,,,,,,,,,,
,,,,,,,,,,,,,,,756,2022-01-22_11h30.15.837,multiplicationStroop,2021.2.3,Win32,59.31549914,,,,,right,1,0.5662,0,59,59,1,1,3,4,3 | 4,1,1.4111,1.9756,congruent,right,,,,,,stimulusFile/physical.xlsx,,,,,,,,,,,,,,,,,,,,,,,,,,,,,,,
,,,,,,,,,,,,,,,756,2022-01-22_11h30.15.837,multiplicationStroop,2021.2.3,Win32,59.31549914,,,,,left,1,0.8189,0,60,60,33,1,2,4,2 | 4,2,1.9756,1.4111,incongruent,left,,,,,,stimulusFile/physical.xlsx,,,,,,,,,,,,,,,,,,,,,,,,,,,,,,,
,,,,,,,,,,,,,,,756,2022-01-22_11h30.15.837,multiplicationStroop,2021.2.3,Win32,59.31549914,,,,,left,0,0.8014,0,61,61,64,1,1,1,1 | 1,0,1.9756,1.4111,neutral,right,,,,,,stimulusFile/physical.xlsx,,,,,,,,,,,,,,,,,,,,,,,,,,,,,,,
,,,,,,,,,,,,,,,756,2022-01-22_11h30.15.837,multiplicationStroop,2021.2.3,Win32,59.31549914,,,,,right,1,0.5491,0,62,62,57,1,2,2,2 | 2,0,1.4111,1.9756,neutral,right,,,,,,stimulusFile/physical.xlsx,,,,,,,,,,,,,,,,,,,,,,,,,,,,,,,
,,,,,,,,,,,,,,,756,2022-01-22_11h30.15.837,multiplicationStroop,2021.2.3,Win32,59.31549914,,,,,left,1,0.6179,0,63,63,20,1,6,1,6 | 1,5,1.9756,1.4111,congruent,left,,,,,,stimulusFile/physical.xlsx,,,,,,,,,,,,,,,,,,,,,,,,,,,,,,,
,,,,,,,,,,,,,,,756,2022-01-22_11h30.15.837,multiplicationStroop,2021.2.3,Win32,59.31549914,,,,,left,1,0.6335,0,64,64,50,1,6,6,6 | 6,0,1.9756,1.4111,neutral,left,,,,,,stimulusFile/physical.xlsx,,,,,,,,,,,,,,,,,,,,,,,,,,,,,,,
,,,,,,,,,,,,,,,756,2022-01-22_11h30.15.837,multiplicationStroop,2021.2.3,Win32,59.31549914,,,,,right,0,0.5677,0,65,65,71,1,9,9,9 | 9,0,1.4111,1.9756,neutral,left,,,,,,stimulusFile/physical.xlsx,,,,,,,,,,,,,,,,,,,,,,,,,,,,,,,
,,,,,,,,,,,,,,,756,2022-01-22_11h30.15.837,multiplicationStroop,2021.2.3,Win32,59.31549914,,,,,left,1,0.6159,0,66,66,24,1,1,2,1 | 2,1,1.9756,1.4111,incongruent,left,,,,,,stimulusFile/physical.xlsx,,,,,,,,,,,,,,,,,,,,,,,,,,,,,,,
,,,,,,,,,,,,,,,756,2022-01-22_11h30.15.837,multiplicationStroop,2021.2.3,Win32,59.31549914,,,,,right,1,0.6668,0,67,67,16,1,1,6,1 | 6,5,1.4111,1.9756,congruent,right,,,,,,stimulusFile/physical.xlsx,,,,,,,,,,,,,,,,,,,,,,,,,,,,,,,
,,,,,,,,,,,,,,,756,2022-01-22_11h30.15.837,multiplicationStroop,2021.2.3,Win32,59.31549914,,,,,left,1,0.5851,0,68,68,42,1,3,8,3 | 8,5,1.9756,1.4111,incongruent,left,,,,,,stimulusFile/physical.xlsx,,,,,,,,,,,,,,,,,,,,,,,,,,,,,,,
,,,,,,,,,,,,,,,756,2022-01-22_11h30.15.837,multiplicationStroop,2021.2.3,Win32,59.31549914,,,,,left,1,0.9157,0,69,69,41,1,2,7,2 | 7,5,1.9756,1.4111,incongruent,left,,,,,,stimulusFile/physical.xlsx,,,,,,,,,,,,,,,,,,,,,,,,,,,,,,,
,,,,,,,,,,,,,,,756,2022-01-22_11h30.15.837,multiplicationStroop,2021.2.3,Win32,59.31549914,,,,,right,1,0.7532,0,70,70,28,1,2,1,2 | 1,1,1.4111,1.9756,incongruent,right,,,,,,stimulusFile/physical.xlsx,,,,,,,,,,,,,,,,,,,,,,,,,,,,,,,
,,,,,,,,,,,,,,,756,2022-01-22_11h30.15.837,multiplicationStroop,2021.2.3,Win32,59.31549914,,,,,right,1,0.6147,0,71,71,29,1,4,3,4 | 3,1,1.4111,1.9756,incongruent,right,,,,,,stimulusFile/physical.xlsx,,,,,,,,,,,,,,,,,,,,,,,,,,,,,,,
,,,,,,,,,,,,,,,756,2022-01-22_11h30.15.837,multiplicationStroop,2021.2.3,Win32,59.31549914,,,,,,,,,,,,,,,,,,,,,0,0,0,1,1,stimulusFile/physical.xlsx,PHYSICALLY larger (larger font size).,images/physicallyLarger.png,,,,,,,,,,,,,,,,,,,,,,,,,,,,,
,,,,,,,,,,,,,,,756,2022-01-22_11h30.15.837,multiplicationStroop,2021.2.3,Win32,59.31549914,space,8.3535,space,5.9955,right,1,1.1993,0,0,0,43,1,4,9,4 | 9,5,1.9756,1.4111,incongruent,right,,,,,,stimulusFile/magnitude.xlsx,,,,,,,,,,,,,,,,,,,,,,,,,,,,,,,
,,,,,,,,,,,,,,,756,2022-01-22_11h30.15.837,multiplicationStroop,2021.2.3,Win32,59.31549914,,,,,left,1,0.6818,0,1,1,22,1,8,3,8 | 3,5,1.9756,1.4111,congruent,left,,,,,,stimulusFile/magnitude.xlsx,,,,,,,,,,,,,,,,,,,,,,,,,,,,,,,
,,,,,,,,,,,,,,,756,2022-01-22_11h30.15.837,multiplicationStroop,2021.2.3,Win32,59.31549914,,,,,left,1,1.2306,0,2,2,13,1,4,2,4 | 2,2,1.9756,1.4111,congruent,left,,,,,,stimulusFile/magnitude.xlsx,,,,,,,,,,,,,,,,,,,,,,,,,,,,,,,
,,,,,,,,,,,,,,,756,2022-01-22_11h30.15.837,multiplicationStroop,2021.2.3,Win32,59.31549914,,,,,right,1,0.5642,0,3,3,17,1,2,7,2 | 7,5,1.4111,1.9756,congruent,right,,,,,,stimulusFile/magnitude.xlsx,,,,,,,,,,,,,,,,,,,,,,,,,,,,,,,
,,,,,,,,,,,,,,,756,2022-01-22_11h30.15.837,multiplicationStroop,2021.2.3,Win32,59.31549914,,,,,left,1,1.1814,0,4,4,31,1,9,8,9 | 8,1,1.4111,1.9756,incongruent,left,,,,,,stimulusFile/magnitude.xlsx,,,,,,,,,,,,,,,,,,,,,,,,,,,,,,,
,,,,,,,,,,,,,,,756,2022-01-22_11h30.15.837,multiplicationStroop,2021.2.3,Win32,59.31549914,,,,,right,1,0.9305,0,5,5,18,1,3,8,3 | 8,5,1.4111,1.9756,congruent,right,,,,,,stimulusFile/magnitude.xlsx,,,,,,,,,,,,,,,,,,,,,,,,,,,,,,,
,,,,,,,,,,,,,,,756,2022-01-22_11h30.15.837,multiplicationStroop,2021.2.3,Win32,59.31549914,,,,,right,1,1.1014,0,6,6,27,1,8,9,8 | 9,1,1.9756,1.4111,incongruent,right,,,,,,stimulusFile/magnitude.xlsx,,,,,,,,,,,,,,,,,,,,,,,,,,,,,,,
,,,,,,,,,,,,,,,756,2022-01-22_11h30.15.837,multiplicationStroop,2021.2.3,Win32,59.31549914,,,,,left,1,0.8967,0,7,7,53,1,4,3,4 | 3,1,1.6933,1.6933,neutral,left,,,,,,stimulusFile/magnitude.xlsx,,,,,,,,,,,,,,,,,,,,,,,,,,,,,,,
,,,,,,,,,,,,,,,756,2022-01-22_11h30.15.837,multiplicationStroop,2021.2.3,Win32,59.31549914,,,,,right,1,1.0828,0,8,8,59,1,7,9,7 | 9,2,1.6933,1.6933,neutral,right,,,,,,stimulusFile/magnitude.xlsx,,,,,,,,,,,,,,,,,,,,,,,,,,,,,,,
,,,,,,,,,,,,,,,756,2022-01-22_11h30.15.837,multiplicationStroop,2021.2.3,Win32,59.31549914,,,,,left,1,0.6517,0,9,9,70,1,8,3,8 | 3,5,1.6933,1.6933,neutral,left,,,,,,stimulusFile/magnitude.xlsx,,,,,,,,,,,,,,,,,,,,,,,,,,,,,,,
,,,,,,,,,,,,,,,756,2022-01-22_11h30.15.837,multiplicationStroop,2021.2.3,Win32,59.31549914,,,,,right,1,0.664,0,10,10,67,1,4,9,4 | 9,5,1.6933,1.6933,neutral,right,,,,,,stimulusFile/magnitude.xlsx,,,,,,,,,,,,,,,,,,,,,,,,,,,,,,,
,,,,,,,,,,,,,,,756,2022-01-22_11h30.15.837,multiplicationStroop,2021.2.3,Win32,59.31549914,,,,,left,1,0.6167,0,11,11,68,1,6,1,6 | 1,5,1.6933,1.6933,neutral,left,,,,,,stimulusFile/magnitude.xlsx,,,,,,,,,,,,,,,,,,,,,,,,,,,,,,,
,,,,,,,,,,,,,,,756,2022-01-22_11h30.15.837,multiplicationStroop,2021.2.3,Win32,59.31549914,,,,,right,0,0.6162,0,12,12,39,1,9,7,9 | 7,2,1.4111,1.9756,incongruent,left,,,,,,stimulusFile/magnitude.xlsx,,,,,,,,,,,,,,,,,,,,,,,,,,,,,,,
,,,,,,,,,,,,,,,756,2022-01-22_11h30.15.837,multiplicationStroop,2021.2.3,Win32,59.31549914,,,,,right,1,0.6345,0,13,13,16,1,1,6,1 | 6,5,1.4111,1.9756,congruent,right,,,,,,stimulusFile/magnitude.xlsx,,,,,,,,,,,,,,,,,,,,,,,,,,,,,,,
,,,,,,,,,,,,,,,756,2022-01-22_11h30.15.837,multiplicationStroop,2021.2.3,Win32,59.31549914,,,,,left,1,0.8008,0,14,14,37,1,4,2,4 | 2,2,1.4111,1.9756,incongruent,left,,,,,,stimulusFile/magnitude.xlsx,,,,,,,,,,,,,,,,,,,,,,,,,,,,,,,
,,,,,,,,,,,,,,,756,2022-01-22_11h30.15.837,multiplicationStroop,2021.2.3,Win32,59.31549914,,,,,right,1,0.6147,0,15,15,10,1,6,8,6 | 8,2,1.4111,1.9756,congruent,right,,,,,,stimulusFile/magnitude.xlsx,,,,,,,,,,,,,,,,,,,,,,,,,,,,,,,
,,,,,,,,,,,,,,,756,2022-01-22_11h30.15.837,multiplicationStroop,2021.2.3,Win32,59.31549914,,,,,left,1,0.6678,0,16,16,61,1,4,2,4 | 2,2,1.6933,1.6933,neutral,left,,,,,,stimulusFile/magnitude.xlsx,,,,,,,,,,,,,,,,,,,,,,,,,,,,,,,
,,,,,,,,,,,,,,,756,2022-01-22_11h30.15.837,multiplicationStroop,2021.2.3,Win32,59.31549914,,,,,right,1,1.001,0,17,17,48,1,1,2,1 | 2,1,1.6933,1.6933,neutral,right,,,,,,stimulusFile/magnitude.xlsx,,,,,,,,,,,,,,,,,,,,,,,,,,,,,,,
,,,,,,,,,,,,,,,756,2022-01-22_11h30.15.837,multiplicationStroop,2021.2.3,Win32,59.31549914,,,,,left,1,0.7854,0,18,18,7,1,9,8,9 | 8,1,1.9756,1.4111,congruent,left,,,,,,stimulusFile/magnitude.xlsx,,,,,,,,,,,,,,,,,,,,,,,,,,,,,,,
,,,,,,,,,,,,,,,756,2022-01-22_11h30.15.837,multiplicationStroop,2021.2.3,Win32,59.31549914,,,,,right,1,1.0342,0,19,19,3,1,8,9,8 | 9,1,1.4111,1.9756,congruent,right,,,,,,stimulusFile/magnitude.xlsx,,,,,,,,,,,,,,,,,,,,,,,,,,,,,,,
,,,,,,,,,,,,,,,756,2022-01-22_11h30.15.837,multiplicationStroop,2021.2.3,Win32,59.31549914,,,,,left,1,0.9667,0,20,20,30,1,7,6,7 | 6,1,1.4111,1.9756,incongruent,left,,,,,,stimulusFile/magnitude.xlsx,,,,,,,,,,,,,,,,,,,,,,,,,,,,,,,
,,,,,,,,,,,,,,,756,2022-01-22_11h30.15.837,multiplicationStroop,2021.2.3,Win32,59.31549914,,,,,left,1,0.9496,0,21,21,5,1,4,3,4 | 3,1,1.9756,1.4111,congruent,left,,,,,,stimulusFile/magnitude.xlsx,,,,,,,,,,,,,,,,,,,,,,,,,,,,,,,
,,,,,,,,,,,,,,,756,2022-01-22_11h30.15.837,multiplicationStroop,2021.2.3,Win32,59.31549914,,,,,right,1,0.667,0,22,22,64,1,1,6,1 | 6,5,1.6933,1.6933,neutral,right,,,,,,stimulusFile/magnitude.xlsx,,,,,,,,,,,,,,,,,,,,,,,,,,,,,,,
,,,,,,,,,,,,,,,756,2022-01-22_11h30.15.837,multiplicationStroop,2021.2.3,Win32,59.31549914,,,,,right,1,1.0005,0,23,23,8,1,1,3,1 | 3,2,1.4111,1.9756,congruent,right,,,,,,stimulusFile/magnitude.xlsx,,,,,,,,,,,,,,,,,,,,,,,,,,,,,,,
,,,,,,,,,,,,,,,756,2022-01-22_11h30.15.837,multiplicationStroop,2021.2.3,Win32,59.31549914,,,,,right,1,0.9855,0,24,24,19,1,4,9,4 | 9,5,1.4111,1.9756,congruent,right,,,,,,stimulusFile/magnitude.xlsx,,,,,,,,,,,,,,,,,,,,,,,,,,,,,,,
,,,,,,,,,,,,,,,756,2022-01-22_11h30.15.837,multiplicationStroop,2021.2.3,Win32,59.31549914,,,,,left,1,0.9338,0,25,25,52,1,2,1,2 | 1,1,1.6933,1.6933,neutral,left,,,,,,stimulusFile/magnitude.xlsx,,,,,,,,,,,,,,,,,,,,,,,,,,,,,,,
,,,,,,,,,,,,,,,756,2022-01-22_11h30.15.837,multiplicationStroop,2021.2.3,Win32,59.31549914,,,,,left,0,1.0013,0,26,26,26,1,6,7,6 | 7,1,1.9756,1.4111,incongruent,right,,,,,,stimulusFile/magnitude.xlsx,,,,,,,,,,,,,,,,,,,,,,,,,,,,,,,
,,,,,,,,,,,,,,,756,2022-01-22_11h30.15.837,multiplicationStroop,2021.2.3,Win32,59.31549914,,,,,left,1,1.516,0,27,27,21,1,7,2,7 | 2,5,1.9756,1.4111,congruent,left,,,,,,stimulusFile/magnitude.xlsx,,,,,,,,,,,,,,,,,,,,,,,,,,,,,,,
,,,,,,,,,,,,,,,756,2022-01-22_11h30.15.837,multiplicationStroop,2021.2.3,Win32,59.31549914,,,,,right,1,0.9341,0,28,28,2,1,6,7,6 | 7,1,1.4111,1.9756,congruent,right,,,,,,stimulusFile/magnitude.xlsx,,,,,,,,,,,,,,,,,,,,,,,,,,,,,,,
,,,,,,,,,,,,,,,756,2022-01-22_11h30.15.837,multiplicationStroop,2021.2.3,Win32,59.31549914,,,,,left,1,1.2523,0,29,29,36,1,3,1,3 | 1,2,1.4111,1.9756,incongruent,left,,,,,,stimulusFile/magnitude.xlsx,,,,,,,,,,,,,,,,,,,,,,,,,,,,,,,
,,,,,,,,,,,,,,,756,2022-01-22_11h30.15.837,multiplicationStroop,2021.2.3,Win32,59.31549914,,,,,right,1,1.1361,0,30,30,66,1,3,8,3 | 8,5,1.6933,1.6933,neutral,right,,,,,,stimulusFile/magnitude.xlsx,,,,,,,,,,,,,,,,,,,,,,,,,,,,,,,
,,,,,,,,,,,,,,,756,2022-01-22_11h30.15.837,multiplicationStroop,2021.2.3,Win32,59.31549914,,,,,left,1,0.9672,0,31,31,46,1,8,3,8 | 3,5,1.4111,1.9756,incongruent,left,,,,,,stimulusFile/magnitude.xlsx,,,,,,,,,,,,,,,,,,,,,,,,,,,,,,,
,,,,,,,,,,,,,,,756,2022-01-22_11h30.15.837,multiplicationStroop,2021.2.3,Win32,59.31549914,,,,,right,1,0.7341,0,32,32,11,1,7,9,7 | 9,2,1.4111,1.9756,congruent,right,,,,,,stimulusFile/magnitude.xlsx,,,,,,,,,,,,,,,,,,,,,,,,,,,,,,,
,,,,,,,,,,,,,,,756,2022-01-22_11h30.15.837,multiplicationStroop,2021.2.3,Win32,59.31549914,,,,,right,1,1.2339,0,33,33,42,1,3,8,3 | 8,5,1.9756,1.4111,incongruent,right,,,,,,stimulusFile/magnitude.xlsx,,,,,,,,,,,,,,,,,,,,,,,,,,,,,,,
,,,,,,,,,,,,,,,756,2022-01-22_11h30.15.837,multiplicationStroop,2021.2.3,Win32,59.31549914,,,,,left,1,1.4014,0,34,34,62,1,8,6,8 | 6,2,1.6933,1.6933,neutral,left,,,,,,stimulusFile/magnitude.xlsx,,,,,,,,,,,,,,,,,,,,,,,,,,,,,,,
,,,,,,,,,,,,,,,756,2022-01-22_11h30.15.837,multiplicationStroop,2021.2.3,Win32,59.31549914,,,,,left,1,1.1485,0,35,35,6,1,7,6,7 | 6,1,1.9756,1.4111,congruent,left,,,,,,stimulusFile/magnitude.xlsx,,,,,,,,,,,,,,,,,,,,,,,,,,,,,,,
,,,,,,,,,,,,,,,756,2022-01-22_11h30.15.837,multiplicationStroop,2021.2.3,Win32,59.31549914,,,,,right,1,0.8522,0,36,36,1,1,3,4,3 | 4,1,1.4111,1.9756,congruent,right,,,,,,stimulusFile/magnitude.xlsx,,,,,,,,,,,,,,,,,,,,,,,,,,,,,,,
,,,,,,,,,,,,,,,756,2022-01-22_11h30.15.837,multiplicationStroop,2021.2.3,Win32,59.31549914,,,,,left,1,0.9677,0,37,37,29,1,4,3,4 | 3,1,1.4111,1.9756,incongruent,left,,,,,,stimulusFile/magnitude.xlsx,,,,,,,,,,,,,,,,,,,,,,,,,,,,,,,
,,,,,,,,,,,,,,,756,2022-01-22_11h30.15.837,multiplicationStroop,2021.2.3,Win32,59.31549914,,,,,right,1,0.8494,0,38,38,40,1,1,6,1 | 6,5,1.9756,1.4111,incongruent,right,,,,,,stimulusFile/magnitude.xlsx,,,,,,,,,,,,,,,,,,,,,,,,,,,,,,,
,,,,,,,,,,,,,,,756,2022-01-22_11h30.15.837,multiplicationStroop,2021.2.3,Win32,59.31549914,,,,,right,1,0.819,0,39,39,9,1,2,4,2 | 4,2,1.4111,1.9756,congruent,right,,,,,,stimulusFile/magnitude.xlsx,,,,,,,,,,,,,,,,,,,,,,,,,,,,,,,
,,,,,,,,,,,,,,,756,2022-01-22_11h30.15.837,multiplicationStroop,2021.2.3,Win32,59.31549914,,,,,left,1,0.7159,0,40,40,28,1,2,1,2 | 1,1,1.4111,1.9756,incongruent,left,,,,,,stimulusFile/magnitude.xlsx,,,,,,,,,,,,,,,,,,,,,,,,,,,,,,,
,,,,,,,,,,,,,,,756,2022-01-22_11h30.15.837,multiplicationStroop,2021.2.3,Win32,59.31549914,,,,,right,1,0.6529,0,41,41,56,1,1,3,1 | 3,2,1.6933,1.6933,neutral,right,,,,,,stimulusFile/magnitude.xlsx,,,,,,,,,,,,,,,,,,,,,,,,,,,,,,,
,,,,,,,,,,,,,,,756,2022-01-22_11h30.15.837,multiplicationStroop,2021.2.3,Win32,59.31549914,,,,,left,1,0.6828,0,42,42,44,1,6,1,6 | 1,5,1.4111,1.9756,incongruent,left,,,,,,stimulusFile/magnitude.xlsx,,,,,,,,,,,,,,,,,,,,,,,,,,,,,,,
,,,,,,,,,,,,,,,756,2022-01-22_11h30.15.837,multiplicationStroop,2021.2.3,Win32,59.31549914,,,,,left,1,0.6001,0,43,43,20,1,6,1,6 | 1,5,1.9756,1.4111,congruent,left,,,,,,stimulusFile/magnitude.xlsx,,,,,,,,,,,,,,,,,,,,,,,,,,,,,,,
,,,,,,,,,,,,,,,756,2022-01-22_11h30.15.837,multiplicationStroop,2021.2.3,Win32,59.31549914,,,,,left,1,0.6851,0,44,44,15,1,9,7,9 | 7,2,1.9756,1.4111,congruent,left,,,,,,stimulusFile/magnitude.xlsx,,,,,,,,,,,,,,,,,,,,,,,,,,,,,,,
,,,,,,,,,,,,,,,756,2022-01-22_11h30.15.837,multiplicationStroop,2021.2.3,Win32,59.31549914,,,,,right,1,0.7501,0,45,45,33,1,2,4,2 | 4,2,1.9756,1.4111,incongruent,right,,,,,,stimulusFile/magnitude.xlsx,,,,,,,,,,,,,,,,,,,,,,,,,,,,,,,
,,,,,,,,,,,,,,,756,2022-01-22_11h30.15.837,multiplicationStroop,2021.2.3,Win32,59.31549914,,,,,right,1,1.185,0,46,46,24,1,1,2,1 | 2,1,1.9756,1.4111,incongruent,right,,,,,,stimulusFile/magnitude.xlsx,,,,,,,,,,,,,,,,,,,,,,,,,,,,,,,
,,,,,,,,,,,,,,,756,2022-01-22_11h30.15.837,multiplicationStroop,2021.2.3,Win32,59.31549914,,,,,left,1,0.8012,0,47,47,54,1,7,6,7 | 6,1,1.6933,1.6933,neutral,left,,,,,,stimulusFile/magnitude.xlsx,,,,,,,,,,,,,,,,,,,,,,,,,,,,,,,
,,,,,,,,,,,,,,,756,2022-01-22_11h30.15.837,multiplicationStroop,2021.2.3,Win32,59.31549914,,,,,right,1,0.8825,0,48,48,34,1,6,8,6 | 8,2,1.9756,1.4111,incongruent,right,,,,,,stimulusFile/magnitude.xlsx,,,,,,,,,,,,,,,,,,,,,,,,,,,,,,,
,,,,,,,,,,,,,,,756,2022-01-22_11h30.15.837,multiplicationStroop,2021.2.3,Win32,59.31549914,,,,,left,1,0.9339,0,49,49,69,1,7,2,7 | 2,5,1.6933,1.6933,neutral,left,,,,,,stimulusFile/magnitude.xlsx,,,,,,,,,,,,,,,,,,,,,,,,,,,,,,,
,,,,,,,,,,,,,,,756,2022-01-22_11h30.15.837,multiplicationStroop,2021.2.3,Win32,59.31549914,,,,,right,1,0.7007,0,50,50,32,1,1,3,1 | 3,2,1.9756,1.4111,incongruent,right,,,,,,stimulusFile/magnitude.xlsx,,,,,,,,,,,,,,,,,,,,,,,,,,,,,,,
,,,,,,,,,,,,,,,756,2022-01-22_11h30.15.837,multiplicationStroop,2021.2.3,Win32,59.31549914,,,,,left,1,0.7522,0,51,51,55,1,9,8,9 | 8,1,1.6933,1.6933,neutral,left,,,,,,stimulusFile/magnitude.xlsx,,,,,,,,,,,,,,,,,,,,,,,,,,,,,,,
,,,,,,,,,,,,,,,756,2022-01-22_11h30.15.837,multiplicationStroop,2021.2.3,Win32,59.31549914,,,,,right,1,0.7825,0,52,52,65,1,2,7,2 | 7,5,1.6933,1.6933,neutral,right,,,,,,stimulusFile/magnitude.xlsx,,,,,,,,,,,,,,,,,,,,,,,,,,,,,,,
,,,,,,,,,,,,,,,756,2022-01-22_11h30.15.837,multiplicationStroop,2021.2.3,Win32,59.31549914,,,,,left,1,0.9,0,53,53,14,1,8,6,8 | 6,2,1.9756,1.4111,congruent,left,,,,,,stimulusFile/magnitude.xlsx,,,,,,,,,,,,,,,,,,,,,,,,,,,,,,,
,,,,,,,,,,,,,,,756,2022-01-22_11h30.15.837,multiplicationStroop,2021.2.3,Win32,59.31549914,,,,,left,1,0.7339,0,54,54,12,1,3,1,3 | 1,2,1.9756,1.4111,congruent,left,,,,,,stimulusFile/magnitude.xlsx,,,,,,,,,,,,,,,,,,,,,,,,,,,,,,,
,,,,,,,,,,,,,,,756,2022-01-22_11h30.15.837,multiplicationStroop,2021.2.3,Win32,59.31549914,,,,,right,1,0.7006,0,55,55,49,1,3,4,3 | 4,1,1.6933,1.6933,neutral,right,,,,,,stimulusFile/magnitude.xlsx,,,,,,,,,,,,,,,,,,,,,,,,,,,,,,,
,,,,,,,,,,,,,,,756,2022-01-22_11h30.15.837,multiplicationStroop,2021.2.3,Win32,59.31549914,,,,,left,1,0.8673,0,56,56,63,1,9,7,9 | 7,2,1.6933,1.6933,neutral,left,,,,,,stimulusFile/magnitude.xlsx,,,,,,,,,,,,,,,,,,,,,,,,,,,,,,,
,,,,,,,,,,,,,,,756,2022-01-22_11h30.15.837,multiplicationStroop,2021.2.3,Win32,59.31549914,,,,,left,1,0.7338,0,57,57,47,1,9,4,9 | 4,5,1.4111,1.9756,incongruent,left,,,,,,stimulusFile/magnitude.xlsx,,,,,,,,,,,,,,,,,,,,,,,,,,,,,,,
,,,,,,,,,,,,,,,756,2022-01-22_11h30.15.837,multiplicationStroop,2021.2.3,Win32,59.31549914,,,,,left,1,0.6342,0,58,58,23,1,9,4,9 | 4,5,1.9756,1.4111,congruent,left,,,,,,stimulusFile/magnitude.xlsx,,,,,,,,,,,,,,,,,,,,,,,,,,,,,,,
,,,,,,,,,,,,,,,756,2022-01-22_11h30.15.837,multiplicationStroop,2021.2.3,Win32,59.31549914,,,,,right,1,0.7004,0,59,59,35,1,7,9,7 | 9,2,1.9756,1.4111,incongruent,right,,,,,,stimulusFile/magnitude.xlsx,,,,,,,,,,,,,,,,,,,,,,,,,,,,,,,
,,,,,,,,,,,,,,,756,2022-01-22_11h30.15.837,multiplicationStroop,2021.2.3,Win32,59.31549914,,,,,right,1,0.8186,0,60,60,57,1,2,4,2 | 4,2,1.6933,1.6933,neutral,right,,,,,,stimulusFile/magnitude.xlsx,,,,,,,,,,,,,,,,,,,,,,,,,,,,,,,
,,,,,,,,,,,,,,,756,2022-01-22_11h30.15.837,multiplicationStroop,2021.2.3,Win32,59.31549914,,,,,left,1,1.1524,0,61,61,4,1,2,1,2 | 1,1,1.9756,1.4111,congruent,left,,,,,,stimulusFile/magnitude.xlsx,,,,,,,,,,,,,,,,,,,,,,,,,,,,,,,
,,,,,,,,,,,,,,,756,2022-01-22_11h30.15.837,multiplicationStroop,2021.2.3,Win32,59.31549914,,,,,right,1,0.7819,0,62,62,0,1,1,2,1 | 2,1,1.4111,1.9756,congruent,right,,,,,,stimulusFile/magnitude.xlsx,,,,,,,,,,,,,,,,,,,,,,,,,,,,,,,
,,,,,,,,,,,,,,,756,2022-01-22_11h30.15.837,multiplicationStroop,2021.2.3,Win32,59.31549914,,,,,left,1,0.6429,0,63,63,60,1,3,1,3 | 1,2,1.6933,1.6933,neutral,left,,,,,,stimulusFile/magnitude.xlsx,,,,,,,,,,,,,,,,,,,,,,,,,,,,,,,
,,,,,,,,,,,,,,,756,2022-01-22_11h30.15.837,multiplicationStroop,2021.2.3,Win32,59.31549914,,,,,right,1,0.9862,0,64,64,25,1,3,4,3 | 4,1,1.9756,1.4111,incongruent,right,,,,,,stimulusFile/magnitude.xlsx,,,,,,,,,,,,,,,,,,,,,,,,,,,,,,,
,,,,,,,,,,,,,,,756,2022-01-22_11h30.15.837,multiplicationStroop,2021.2.3,Win32,59.31549914,,,,,right,1,1.001,0,65,65,58,1,6,8,6 | 8,2,1.6933,1.6933,neutral,right,,,,,,stimulusFile/magnitude.xlsx,,,,,,,,,,,,,,,,,,,,,,,,,,,,,,,
,,,,,,,,,,,,,,,756,2022-01-22_11h30.15.837,multiplicationStroop,2021.2.3,Win32,59.31549914,,,,,left,1,0.9338,0,66,66,38,1,8,6,8 | 6,2,1.4111,1.9756,incongruent,left,,,,,,stimulusFile/magnitude.xlsx,,,,,,,,,,,,,,,,,,,,,,,,,,,,,,,
,,,,,,,,,,,,,,,756,2022-01-22_11h30.15.837,multiplicationStroop,2021.2.3,Win32,59.31549914,,,,,right,1,0.7001,0,67,67,41,1,2,7,2 | 7,5,1.9756,1.4111,incongruent,right,,,,,,stimulusFile/magnitude.xlsx,,,,,,,,,,,,,,,,,,,,,,,,,,,,,,,
,,,,,,,,,,,,,,,756,2022-01-22_11h30.15.837,multiplicationStroop,2021.2.3,Win32,59.31549914,,,,,left,1,0.6666,0,68,68,45,1,7,2,7 | 2,5,1.4111,1.9756,incongruent,left,,,,,,stimulusFile/magnitude.xlsx,,,,,,,,,,,,,,,,,,,,,,,,,,,,,,,
,,,,,,,,,,,,,,,756,2022-01-22_11h30.15.837,multiplicationStroop,2021.2.3,Win32,59.31549914,,,,,left,1,0.8566,0,69,69,71,1,9,4,9 | 4,5,1.6933,1.6933,neutral,left,,,,,,stimulusFile/magnitude.xlsx,,,,,,,,,,,,,,,,,,,,,,,,,,,,,,,
,,,,,,,,,,,,,,,756,2022-01-22_11h30.15.837,multiplicationStroop,2021.2.3,Win32,59.31549914,,,,,right,1,0.6379,0,70,70,50,1,6,7,6 | 7,1,1.6933,1.6933,neutral,right,,,,,,stimulusFile/magnitude.xlsx,,,,,,,,,,,,,,,,,,,,,,,,,,,,,,,
,,,,,,,,,,,,,,,756,2022-01-22_11h30.15.837,multiplicationStroop,2021.2.3,Win32,59.31549914,,,,,right,1,0.9828,0,71,71,51,1,8,9,8 | 9,1,1.6933,1.6933,neutral,right,,,,,,stimulusFile/magnitude.xlsx,,,,,,,,,,,,,,,,,,,,,,,,,,,,,,,
,,,,,,,,,,,,,,,756,2022-01-22_11h30.15.837,multiplicationStroop,2021.2.3,Win32,59.31549914,,,,,,,,,,,,,,,,,,,,,0,1,1,0,1,stimulusFile/magnitude.xlsx,NUMERICALLY larger (larger coefficient).,images/numericallyLarger.png,,,,,,,,,,,,,,,,,,,,,,,,,,,,,
,,,,,,,,,,,,,,,756,2022-01-22_11h30.15.837,multiplicationStroop,2021.2.3,Win32,59.31549914,,,,,,,,,,,,,,,,,,,,,,,,,,,,,space,19.4452,space,1.9788,18,3.1071,1,0,0,0,18,1,9,×,2,9 × 2,neutral,largerFirst,1.5,1.5,18,,,,,,,,
,,,,,,,,,,,,,,,756,2022-01-22_11h30.15.837,multiplicationStroop,2021.2.3,Win32,59.31549914,,,,,,,,,,,,,,,,,,,,,,,,,,,,,,,,,9,1.7475,1,0,1,1,29,1,3,×,3,3 × 3,neutral,tie,1.5,1.5,9,,,,,,,,
,,,,,,,,,,,,,,,756,2022-01-22_11h30.15.837,multiplicationStroop,2021.2.3,Win32,59.31549914,,,,,,,,,,,,,,,,,,,,,,,,,,,,,,,,,27,2.4319,1,0,2,2,14,1,9,×,3,9 × 3,neutral,largerFirst,1.5,1.5,27,,,,,,,,
,,,,,,,,,,,,,,,756,2022-01-22_11h30.15.837,multiplicationStroop,2021.2.3,Win32,59.31549914,,,,,,,,,,,,,,,,,,,,,,,,,,,,,,,,,56,1.7316,1,0,3,3,9,1,7,×,8,7 × 8,neutral,smallerFirst,1.5,1.5,56,,,,,,,,
,,,,,,,,,,,,,,,756,2022-01-22_11h30.15.837,multiplicationStroop,2021.2.3,Win32,59.31549914,,,,,,,,,,,,,,,,,,,,,,,,,,,,,,,,,42,2.0315,1,0,4,4,6,1,6,×,7,6 × 7,neutral,smallerFirst,1.5,1.5,42,,,,,,,,
,,,,,,,,,,,,,,,756,2022-01-22_11h30.15.837,multiplicationStroop,2021.2.3,Win32,59.31549914,,,,,,,,,,,,,,,,,,,,,,,,,,,,,,,,,16,1.9484,1,0,5,5,30,1,4,×,4,4 × 4,neutral,tie,1.5,1.5,16,,,,,,,,
,,,,,,,,,,,,,,,756,2022-01-22_11h30.15.837,multiplicationStroop,2021.2.3,Win32,59.31549914,,,,,,,,,,,,,,,,,,,,,,,,,,,,,,,,,10,2.0977,1,0,6,6,4,1,2,×,5,2 × 5,neutral,smallerFirst,1.5,1.5,10,,,,,,,,
,,,,,,,,,,,,,,,756,2022-01-22_11h30.15.837,multiplicationStroop,2021.2.3,Win32,59.31549914,,,,,,,,,,,,,,,,,,,,,,,,,,,,,,,,,18,2.0321,1,0,7,7,0,1,3,×,6,3 × 6,neutral,smallerFirst,1.5,1.5,18,,,,,,,,
,,,,,,,,,,,,,,,756,2022-01-22_11h30.15.837,multiplicationStroop,2021.2.3,Win32,59.31549914,,,,,,,,,,,,,,,,,,,,,,,,,,,,,,,,,56,5.4804,0,0,8,8,12,1,7,×,9,7 × 9,neutral,smallerFirst,1.5,1.5,63,,,,,,,,
,,,,,,,,,,,,,,,756,2022-01-22_11h30.15.837,multiplicationStroop,2021.2.3,Win32,59.31549914,,,,,,,,,,,,,,,,,,,,,,,,,,,,,,,,,8,1.9961,1,0,9,9,3,1,2,×,4,2 × 4,neutral,smallerFirst,1.5,1.5,8,,,,,,,,
,,,,,,,,,,,,,,,756,2022-01-22_11h30.15.837,multiplicationStroop,2021.2.3,Win32,59.31549914,,,,,,,,,,,,,,,,,,,,,,,,,,,,,,,,,24,2.4315,1,0,10,10,2,1,4,×,6,4 × 6,neutral,smallerFirst,1.5,1.5,24,,,,,,,,
,,,,,,,,,,,,,,,756,2022-01-22_11h30.15.837,multiplicationStroop,2021.2.3,Win32,59.31549914,,,,,,,,,,,,,,,,,,,,,,,,,,,,,,,,,35,2.1136,1,0,11,11,1,1,5,×,7,5 × 7,neutral,smallerFirst,1.5,1.5,35,,,,,,,,
,,,,,,,,,,,,,,,756,2022-01-22_11h30.15.837,multiplicationStroop,2021.2.3,Win32,59.31549914,,,,,,,,,,,,,,,,,,,,,,,,,,,,,,,,,30,2.3996,1,0,12,12,19,1,6,×,5,6 × 5,neutral,largerFirst,1.5,1.5,30,,,,,,,,
,,,,,,,,,,,,,,,756,2022-01-22_11h30.15.837,multiplicationStroop,2021.2.3,Win32,59.31549914,,,,,,,,,,,,,,,,,,,,,,,,,,,,,,,,,25,2.0492,1,0,13,13,31,1,5,×,5,5 × 5,neutral,tie,1.5,1.5,25,,,,,,,,
,,,,,,,,,,,,,,,756,2022-01-22_11h30.15.837,multiplicationStroop,2021.2.3,Win32,59.31549914,,,,,,,,,,,,,,,,,,,,,,,,,,,,,,,,,12,3.3054,1,0,14,14,25,1,6,×,2,6 × 2,neutral,largerFirst,1.5,1.5,12,,,,,,,,
,,,,,,,,,,,,,,,756,2022-01-22_11h30.15.837,multiplicationStroop,2021.2.3,Win32,59.31549914,,,,,,,,,,,,,,,,,,,,,,,,,,,,,,,,,12,1.704,1,0,15,15,21,1,4,×,3,4 × 3,neutral,largerFirst,1.5,1.5,12,,,,,,,,
,,,,,,,,,,,,,,,756,2022-01-22_11h30.15.837,multiplicationStroop,2021.2.3,Win32,59.31549914,,,,,,,,,,,,,,,,,,,,,,,,,,,,,,,,,20,1.9457,1,0,16,16,20,1,5,×,4,5 × 4,neutral,largerFirst,1.5,1.5,20,,,,,,,,
,,,,,,,,,,,,,,,756,2022-01-22_11h30.15.837,multiplicationStroop,2021.2.3,Win32,59.31549914,,,,,,,,,,,,,,,,,,,,,,,,,,,,,,,,,14,1.7571,1,0,17,17,16,1,7,×,2,7 × 2,neutral,largerFirst,1.5,1.5,14,,,,,,,,
,,,,,,,,,,,,,,,756,2022-01-22_11h30.15.837,multiplicationStroop,2021.2.3,Win32,59.31549914,,,,,,,,,,,,,,,,,,,,,,,,,,,,,,,,,15,1.8803,1,0,18,18,5,1,3,×,5,3 × 5,neutral,smallerFirst,1.5,1.5,15,,,,,,,,
,,,,,,,,,,,,,,,756,2022-01-22_11h30.15.837,multiplicationStroop,2021.2.3,Win32,59.31549914,,,,,,,,,,,,,,,,,,,,,,,,,,,,,,,,,36,3.3565,1,0,19,19,32,1,6,×,6,6 × 6,neutral,tie,1.5,1.5,36,,,,,,,,
,,,,,,,,,,,,,,,756,2022-01-22_11h30.15.837,multiplicationStroop,2021.2.3,Win32,59.31549914,,,,,,,,,,,,,,,,,,,,,,,,,,,,,,,,,54,2.2289,1,0,20,20,7,1,6,×,9,6 × 9,neutral,smallerFirst,1.5,1.5,54,,,,,,,,
,,,,,,,,,,,,,,,756,2022-01-22_11h30.15.837,multiplicationStroop,2021.2.3,Win32,59.31549914,,,,,,,,,,,,,,,,,,,,,,,,,,,,,,,,,56,3.8119,0,0,21,21,11,1,8,×,9,8 × 9,neutral,smallerFirst,1.5,1.5,72,,,,,,,,
,,,,,,,,,,,,,,,756,2022-01-22_11h30.15.837,multiplicationStroop,2021.2.3,Win32,59.31549914,,,,,,,,,,,,,,,,,,,,,,,,,,,,,,,,,48,3.1764,1,0,22,22,15,1,8,×,6,8 × 6,neutral,largerFirst,1.5,1.5,48,,,,,,,,
,,,,,,,,,,,,,,,756,2022-01-22_11h30.15.837,multiplicationStroop,2021.2.3,Win32,59.31549914,,,,,,,,,,,,,,,,,,,,,,,,,,,,,,,,,81,2.7213,1,0,23,23,35,1,9,×,9,9 × 9,neutral,tie,1.5,1.5,81,,,,,,,,
,,,,,,,,,,,,,,,756,2022-01-22_11h30.15.837,multiplicationStroop,2021.2.3,Win32,59.31549914,,,,,,,,,,,,,,,,,,,,,,,,,,,,,,,,,32,2.8514,1,0,24,24,23,1,8,×,4,8 × 4,neutral,largerFirst,1.5,1.5,32,,,,,,,,
,,,,,,,,,,,,,,,756,2022-01-22_11h30.15.837,multiplicationStroop,2021.2.3,Win32,59.31549914,,,,,,,,,,,,,,,,,,,,,,,,,,,,,,,,,6,1.5417,1,0,25,25,26,1,3,×,2,3 × 2,neutral,largerFirst,1.5,1.5,6,,,,,,,,
,,,,,,,,,,,,,,,756,2022-01-22_11h30.15.837,multiplicationStroop,2021.2.3,Win32,59.31549914,,,,,,,,,,,,,,,,,,,,,,,,,,,,,,,,,16,2.8457,1,0,26,26,13,1,2,×,8,2 × 8,neutral,smallerFirst,1.5,1.5,16,,,,,,,,
,,,,,,,,,,,,,,,756,2022-01-22_11h30.15.837,multiplicationStroop,2021.2.3,Win32,59.31549914,,,,,,,,,,,,,,,,,,,,,,,,,,,,,,,,,45,2.0362,1,0,27,27,10,1,5,×,9,5 × 9,neutral,smallerFirst,1.5,1.5,45,,,,,,,,
,,,,,,,,,,,,,,,756,2022-01-22_11h30.15.837,multiplicationStroop,2021.2.3,Win32,59.31549914,,,,,,,,,,,,,,,,,,,,,,,,,,,,,,,,,28,2.0959,1,0,28,28,17,1,7,×,4,7 × 4,neutral,largerFirst,1.5,1.5,28,,,,,,,,
,,,,,,,,,,,,,,,756,2022-01-22_11h30.15.837,multiplicationStroop,2021.2.3,Win32,59.31549914,,,,,,,,,,,,,,,,,,,,,,,,,,,,,,,,,49,2.3793,1,0,29,29,33,1,7,×,7,7 × 7,neutral,tie,1.5,1.5,49,,,,,,,,
,,,,,,,,,,,,,,,756,2022-01-22_11h30.15.837,multiplicationStroop,2021.2.3,Win32,59.31549914,,,,,,,,,,,,,,,,,,,,,,,,,,,,,,,,,40,2.3452,1,0,30,30,24,1,8,×,5,8 × 5,neutral,largerFirst,1.5,1.5,40,,,,,,,,
,,,,,,,,,,,,,,,756,2022-01-22_11h30.15.837,multiplicationStroop,2021.2.3,Win32,59.31549914,,,,,,,,,,,,,,,,,,,,,,,,,,,,,,,,,64,2.3553,1,0,31,31,34,1,8,×,8,8 × 8,neutral,tie,1.5,1.5,64,,,,,,,,
,,,,,,,,,,,,,,,756,2022-01-22_11h30.15.837,multiplicationStroop,2021.2.3,Win32,59.31549914,,,,,,,,,,,,,,,,,,,,,,,,,,,,,,,,,4,1.716,1,0,32,32,28,1,2,×,2,2 × 2,neutral,tie,1.5,1.5,4,,,,,,,,
,,,,,,,,,,,,,,,756,2022-01-22_11h30.15.837,multiplicationStroop,2021.2.3,Win32,59.31549914,,,,,,,,,,,,,,,,,,,,,,,,,,,,,,,,,36,2.8472,1,0,33,33,27,1,9,×,4,9 × 4,neutral,largerFirst,1.5,1.5,36,,,,,,,,
,,,,,,,,,,,,,,,756,2022-01-22_11h30.15.837,multiplicationStroop,2021.2.3,Win32,59.31549914,,,,,,,,,,,,,,,,,,,,,,,,,,,,,,,,,21,3.321,1,0,34,34,8,1,3,×,7,3 × 7,neutral,smallerFirst,1.5,1.5,21,,,,,,,,
,,,,,,,,,,,,,,,756,2022-01-22_11h30.15.837,multiplicationStroop,2021.2.3,Win32,59.31549914,,,,,,,,,,,,,,,,,,,,,,,,,,,,,,,,,24,2.2175,1,0,35,35,22,1,8,×,3,8 × 3,neutral,largerFirst,1.5,1.5,24,,,,,,,,
,,,,,,,,,,,,,,,756,2022-01-22_11h30.15.837,multiplicationStroop,2021.2.3,Win32,59.31549914,,,,,,,,,,,,,,,,,,,,,,,,,,,,,,,,,,,,,,,,,,,,,,,,,,0,0,0,1,1,stimulusFile/mult_blk2.xlsx,,
,,,,,,,,,,,,,,,756,2022-01-22_11h30.15.837,multiplicationStroop,2021.2.3,Win32,59.31549914,,,,,,,,,,,,,,,,,,,,,,,,,,,,,,,space,1.6854,24,2.8146,1,0,0,0,9,1,3,×,8,3 × 8,incongruent,smallerFirst,2,1,24,,,,,,,,
,,,,,,,,,,,,,,,756,2022-01-22_11h30.15.837,multiplicationStroop,2021.2.3,Win32,59.31549914,,,,,,,,,,,,,,,,,,,,,,,,,,,,,,,,,72,14.6683,1,0,1,1,0,1,8,×,9,8 × 9,incongruent,smallerFirst,2,1,72,,,,,,,,
,,,,,,,,,,,,,,,756,2022-01-22_11h30.15.837,multiplicationStroop,2021.2.3,Win32,59.31549914,,,,,,,,,,,,,,,,,,,,,,,,,,,,,,,,,6,1.6867,1,0,2,2,11,1,2,×,3,2 × 3,incongruent,smallerFirst,2,1,6,,,,,,,,
,,,,,,,,,,,,,,,756,2022-01-22_11h30.15.837,multiplicationStroop,2021.2.3,Win32,59.31549914,,,,,,,,,,,,,,,,,,,,,,,,,,,,,,,,,56,2.0043,0,0,3,3,3,1,7,×,9,7 × 9,incongruent,smallerFirst,2,1,63,,,,,,,,
,,,,,,,,,,,,,,,756,2022-01-22_11h30.15.837,multiplicationStroop,2021.2.3,Win32,59.31549914,,,,,,,,,,,,,,,,,,,,,,,,,,,,,,,,,35,1.9458,1,0,4,4,12,1,5,×,7,5 × 7,incongruent,smallerFirst,2,1,35,,,,,,,,
,,,,,,,,,,,,,,,756,2022-01-22_11h30.15.837,multiplicationStroop,2021.2.3,Win32,59.31549914,,,,,,,,,,,,,,,,,,,,,,,,,,,,,,,,,20,2.3953,1,0,5,5,27,1,5,×,4,5 × 4,incongruent,largerFirst,1,2,20,,,,,,,,
,,,,,,,,,,,,,,,756,2022-01-22_11h30.15.837,multiplicationStroop,2021.2.3,Win32,59.31549914,,,,,,,,,,,,,,,,,,,,,,,,,,,,,,,,,16,2.0785,1,0,6,6,30,1,4,×,4,4 × 4,incongruent,tie,1,2,16,,,,,,,,
,,,,,,,,,,,,,,,756,2022-01-22_11h30.15.837,multiplicationStroop,2021.2.3,Win32,59.31549914,,,,,,,,,,,,,,,,,,,,,,,,,,,,,,,,,49,2.1559,1,0,7,7,33,1,7,×,7,7 × 7,incongruent,tie,1,2,49,,,,,,,,
,,,,,,,,,,,,,,,756,2022-01-22_11h30.15.837,multiplicationStroop,2021.2.3,Win32,59.31549914,,,,,,,,,,,,,,,,,,,,,,,,,,,,,,,,,21,1.829,1,0,8,8,26,1,7,×,3,7 × 3,incongruent,largerFirst,1,2,21,,,,,,,,
,,,,,,,,,,,,,,,756,2022-01-22_11h30.15.837,multiplicationStroop,2021.2.3,Win32,59.31549914,,,,,,,,,,,,,,,,,,,,,,,,,,,,,,,,,9,2.1232,1,0,9,9,29,1,3,×,3,3 × 3,incongruent,tie,1,2,9,,,,,,,,
,,,,,,,,,,,,,,,756,2022-01-22_11h30.15.837,multiplicationStroop,2021.2.3,Win32,59.31549914,,,,,,,,,,,,,,,,,,,,,,,,,,,,,,,,,25,1.799,1,0,10,10,31,1,5,×,5,5 × 5,incongruent,tie,1,2,25,,,,,,,,
,,,,,,,,,,,,,,,756,2022-01-22_11h30.15.837,multiplicationStroop,2021.2.3,Win32,59.31549914,,,,,,,,,,,,,,,,,,,,,,,,,,,,,,,,,42,2.9218,1,0,11,11,17,1,7,×,6,7 × 6,incongruent,largerFirst,1,2,42,,,,,,,,
,,,,,,,,,,,,,,,756,2022-01-22_11h30.15.837,multiplicationStroop,2021.2.3,Win32,59.31549914,,,,,,,,,,,,,,,,,,,,,,,,,,,,,,,,,14,1.929,1,0,12,12,4,1,2,×,7,2 × 7,incongruent,smallerFirst,2,1,14,,,,,,,,
,,,,,,,,,,,,,,,756,2022-01-22_11h30.15.837,multiplicationStroop,2021.2.3,Win32,59.31549914,,,,,,,,,,,,,,,,,,,,,,,,,,,,,,,,,36,2.2288,1,0,13,13,15,1,9,×,4,9 × 4,incongruent,largerFirst,1,2,36,,,,,,,,
,,,,,,,,,,,,,,,756,2022-01-22_11h30.15.837,multiplicationStroop,2021.2.3,Win32,59.31549914,,,,,,,,,,,,,,,,,,,,,,,,,,,,,,,,,4,1.7549,1,0,14,14,28,1,2,×,2,2 × 2,incongruent,tie,1,2,4,,,,,,,,
,,,,,,,,,,,,,,,756,2022-01-22_11h30.15.837,multiplicationStroop,2021.2.3,Win32,59.31549914,,,,,,,,,,,,,,,,,,,,,,,,,,,,,,,,,28,2.1234,1,0,15,15,16,1,7,×,4,7 × 4,incongruent,largerFirst,1,2,28,,,,,,,,
,,,,,,,,,,,,,,,756,2022-01-22_11h30.15.837,multiplicationStroop,2021.2.3,Win32,59.31549914,,,,,,,,,,,,,,,,,,,,,,,,,,,,,,,,,64,5.5945,1,0,16,16,34,1,8,×,8,8 × 8,incongruent,tie,1,2,64,,,,,,,,
,,,,,,,,,,,,,,,756,2022-01-22_11h30.15.837,multiplicationStroop,2021.2.3,Win32,59.31549914,,,,,,,,,,,,,,,,,,,,,,,,,,,,,,,,,30,1.9359,1,0,17,17,25,1,6,×,5,6 × 5,incongruent,largerFirst,1,2,30,,,,,,,,
,,,,,,,,,,,,,,,756,2022-01-22_11h30.15.837,multiplicationStroop,2021.2.3,Win32,59.31549914,,,,,,,,,,,,,,,,,,,,,,,,,,,,,,,,,16,2.406,1,0,18,18,23,1,8,×,2,8 × 2,incongruent,largerFirst,1,2,16,,,,,,,,
,,,,,,,,,,,,,,,756,2022-01-22_11h30.15.837,multiplicationStroop,2021.2.3,Win32,59.31549914,,,,,,,,,,,,,,,,,,,,,,,,,,,,,,,,,27,3.0213,1,0,19,19,18,1,9,×,3,9 × 3,incongruent,largerFirst,1,2,27,,,,,,,,
,,,,,,,,,,,,,,,756,2022-01-22_11h30.15.837,multiplicationStroop,2021.2.3,Win32,59.31549914,,,,,,,,,,,,,,,,,,,,,,,,,,,,,,,,,54,2.4725,1,0,20,20,6,1,6,×,9,6 × 9,incongruent,smallerFirst,2,1,54,,,,,,,,
,,,,,,,,,,,,,,,756,2022-01-22_11h30.15.837,multiplicationStroop,2021.2.3,Win32,59.31549914,,,,,,,,,,,,,,,,,,,,,,,,,,,,,,,,,8,2.0689,1,0,21,21,24,1,4,×,2,4 × 2,incongruent,largerFirst,1,2,8,,,,,,,,
,,,,,,,,,,,,,,,756,2022-01-22_11h30.15.837,multiplicationStroop,2021.2.3,Win32,59.31549914,,,,,,,,,,,,,,,,,,,,,,,,,,,,,,,,,32,1.884,1,0,22,22,7,1,4,×,8,4 × 8,incongruent,smallerFirst,2,1,32,,,,,,,,
,,,,,,,,,,,,,,,756,2022-01-22_11h30.15.837,multiplicationStroop,2021.2.3,Win32,59.31549914,,,,,,,,,,,,,,,,,,,,,,,,,,,,,,,,,10,1.9636,1,0,23,23,21,1,5,×,2,5 × 2,incongruent,largerFirst,1,2,10,,,,,,,,
,,,,,,,,,,,,,,,756,2022-01-22_11h30.15.837,multiplicationStroop,2021.2.3,Win32,59.31549914,,,,,,,,,,,,,,,,,,,,,,,,,,,,,,,,,18,2.2992,1,0,24,24,2,1,2,×,9,2 × 9,incongruent,smallerFirst,2,1,18,,,,,,,,
,,,,,,,,,,,,,,,756,2022-01-22_11h30.15.837,multiplicationStroop,2021.2.3,Win32,59.31549914,,,,,,,,,,,,,,,,,,,,,,,,,,,,,,,,,40,2.8326,1,0,25,25,13,1,5,×,8,5 × 8,incongruent,smallerFirst,2,1,40,,,,,,,,
,,,,,,,,,,,,,,,756,2022-01-22_11h30.15.837,multiplicationStroop,2021.2.3,Win32,59.31549914,,,,,,,,,,,,,,,,,,,,,,,,,,,,,,,,,15,1.8213,1,0,26,26,10,1,3,×,5,3 × 5,incongruent,smallerFirst,2,1,15,,,,,,,,
,,,,,,,,,,,,,,,756,2022-01-22_11h30.15.837,multiplicationStroop,2021.2.3,Win32,59.31549914,,,,,,,,,,,,,,,,,,,,,,,,,,,,,,,,,12,1.7294,1,0,27,27,19,1,6,×,2,6 × 2,incongruent,largerFirst,1,2,12,,,,,,,,
,,,,,,,,,,,,,,,756,2022-01-22_11h30.15.837,multiplicationStroop,2021.2.3,Win32,59.31549914,,,,,,,,,,,,,,,,,,,,,,,,,,,,,,,,,36,1.9217,1,0,28,28,32,1,6,×,6,6 × 6,incongruent,tie,1,2,36,,,,,,,,
,,,,,,,,,,,,,,,756,2022-01-22_11h30.15.837,multiplicationStroop,2021.2.3,Win32,59.31549914,,,,,,,,,,,,,,,,,,,,,,,,,,,,,,,,,81,5.4557,1,0,29,29,35,1,9,×,9,9 × 9,incongruent,tie,1,2,81,,,,,,,,
,,,,,,,,,,,,,,,756,2022-01-22_11h30.15.837,multiplicationStroop,2021.2.3,Win32,59.31549914,,,,,,,,,,,,,,,,,,,,,,,,,,,,,,,,,18,3.0859,1,0,30,30,8,1,3,×,6,3 × 6,incongruent,smallerFirst,2,1,18,,,,,,,,
,,,,,,,,,,,,,,,756,2022-01-22_11h30.15.837,multiplicationStroop,2021.2.3,Win32,59.31549914,,,,,,,,,,,,,,,,,,,,,,,,,,,,,,,,,45,2.1073,1,0,31,31,22,1,9,×,5,9 × 5,incongruent,largerFirst,1,2,45,,,,,,,,
,,,,,,,,,,,,,,,756,2022-01-22_11h30.15.837,multiplicationStroop,2021.2.3,Win32,59.31549914,,,,,,,,,,,,,,,,,,,,,,,,,,,,,,,,,48,2.2065,1,0,32,32,1,1,6,×,8,6 × 8,incongruent,smallerFirst,2,1,48,,,,,,,,
,,,,,,,,,,,,,,,756,2022-01-22_11h30.15.837,multiplicationStroop,2021.2.3,Win32,59.31549914,,,,,,,,,,,,,,,,,,,,,,,,,,,,,,,,,24,3.1585,1,0,33,33,20,1,6,×,4,6 × 4,incongruent,largerFirst,1,2,24,,,,,,,,
,,,,,,,,,,,,,,,756,2022-01-22_11h30.15.837,multiplicationStroop,2021.2.3,Win32,59.31549914,,,,,,,,,,,,,,,,,,,,,,,,,,,,,,,,,12,2.293,1,0,34,34,5,1,3,×,4,3 × 4,incongruent,smallerFirst,2,1,12,,,,,,,,
,,,,,,,,,,,,,,,756,2022-01-22_11h30.15.837,multiplicationStroop,2021.2.3,Win32,59.31549914,,,,,,,,,,,,,,,,,,,,,,,,,,,,,,,,,56,2.6141,1,0,35,35,14,1,8,×,7,8 × 7,incongruent,largerFirst,1,2,56,,,,,,,,
,,,,,,,,,,,,,,,756,2022-01-22_11h30.15.837,multiplicationStroop,2021.2.3,Win32,59.31549914,,,,,,,,,,,,,,,,,,,,,,,,,,,,,,,,,,,,,,,,,,,,,,,,,,0,1,1,5,1,stimulusFile/mult_blk6_INcongruent.xlsx,,
,,,,,,,,,,,,,,,756,2022-01-22_11h30.15.837,multiplicationStroop,2021.2.3,Win32,59.31549914,,,,,,,,,,,,,,,,,,,,,,,,,,,,,,,space,765.6979,24,3.7628,1,0,0,0,10,1,3,×,8,3 × 8,congruent,smallerFirst,1,2,24,,,,,,,,
,,,,,,,,,,,,,,,756,2022-01-22_11h30.15.837,multiplicationStroop,2021.2.3,Win32,59.31549914,,,,,,,,,,,,,,,,,,,,,,,,,,,,,,,,,36,2.0893,1,0,1,1,32,1,6,×,6,6 × 6,neutral,tie,2,1,36,,,,,,,,
,,,,,,,,,,,,,,,756,2022-01-22_11h30.15.837,multiplicationStroop,2021.2.3,Win32,59.31549914,,,,,,,,,,,,,,,,,,,,,,,,,,,,,,,,,21,1.7618,1,0,2,2,16,1,7,×,3,7 × 3,congruent,largerFirst,2,1,21,,,,,,,,
,,,,,,,,,,,,,,,756,2022-01-22_11h30.15.837,multiplicationStroop,2021.2.3,Win32,59.31549914,,,,,,,,,,,,,,,,,,,,,,,,,,,,,,,,,18,2.5483,1,0,3,3,11,1,3,×,6,3 × 6,congruent,smallerFirst,1,2,18,,,,,,,,
,,,,,,,,,,,,,,,756,2022-01-22_11h30.15.837,multiplicationStroop,2021.2.3,Win32,59.31549914,,,,,,,,,,,,,,,,,,,,,,,,,,,,,,,,,8,2.0317,1,0,4,4,9,1,2,×,4,2 × 4,congruent,smallerFirst,1,2,8,,,,,,,,
,,,,,,,,,,,,,,,756,2022-01-22_11h30.15.837,multiplicationStroop,2021.2.3,Win32,59.31549914,,,,,,,,,,,,,,,,,,,,,,,,,,,,,,,,,35,1.8483,1,0,5,5,1,1,5,×,7,5 × 7,congruent,smallerFirst,1,2,35,,,,,,,,
,,,,,,,,,,,,,,,756,2022-01-22_11h30.15.837,multiplicationStroop,2021.2.3,Win32,59.31549914,,,,,,,,,,,,,,,,,,,,,,,,,,,,,,,,,20,2.2483,1,0,6,6,7,1,4,×,5,4 × 5,congruent,smallerFirst,1,2,20,,,,,,,,
,,,,,,,,,,,,,,,756,2022-01-22_11h30.15.837,multiplicationStroop,2021.2.3,Win32,59.31549914,,,,,,,,,,,,,,,,,,,,,,,,,,,,,,,,,14,4.2811,1,0,7,7,14,1,7,×,2,7 × 2,congruent,largerFirst,2,1,14,,,,,,,,
,,,,,,,,,,,,,,,756,2022-01-22_11h30.15.837,multiplicationStroop,2021.2.3,Win32,59.31549914,,,,,,,,,,,,,,,,,,,,,,,,,,,,,,,,,16,2.5221,1,0,8,8,30,1,4,×,4,4 × 4,neutral,tie,2,1,16,,,,,,,,
,,,,,,,,,,,,,,,756,2022-01-22_11h30.15.837,multiplicationStroop,2021.2.3,Win32,59.31549914,,,,,,,,,,,,,,,,,,,,,,,,,,,,,,,,,81,2.5639,1,0,9,9,35,1,9,×,9,9 × 9,neutral,tie,2,1,81,,,,,,,,
,,,,,,,,,,,,,,,756,2022-01-22_11h30.15.837,multiplicationStroop,2021.2.3,Win32,59.31549914,,,,,,,,,,,,,,,,,,,,,,,,,,,,,,,,,27,2.5982,1,0,10,10,26,1,9,×,3,9 × 3,congruent,largerFirst,2,1,27,,,,,,,,
,,,,,,,,,,,,,,,756,2022-01-22_11h30.15.837,multiplicationStroop,2021.2.3,Win32,59.31549914,,,,,,,,,,,,,,,,,,,,,,,,,,,,,,,,,48,2.4474,1,0,11,11,18,1,8,×,6,8 × 6,congruent,largerFirst,2,1,48,,,,,,,,
,,,,,,,,,,,,,,,756,2022-01-22_11h30.15.837,multiplicationStroop,2021.2.3,Win32,59.31549914,,,,,,,,,,,,,,,,,,,,,,,,,,,,,,,,,28,2.5131,1,0,12,12,27,1,7,×,4,7 × 4,congruent,largerFirst,2,1,28,,,,,,,,
,,,,,,,,,,,,,,,756,2022-01-22_11h30.15.837,multiplicationStroop,2021.2.3,Win32,59.31549914,,,,,,,,,,,,,,,,,,,,,,,,,,,,,,,,,63,2.6645,1,0,13,13,21,1,9,×,7,9 × 7,congruent,largerFirst,2,1,63,,,,,,,,
,,,,,,,,,,,,,,,756,2022-01-22_11h30.15.837,multiplicationStroop,2021.2.3,Win32,59.31549914,,,,,,,,,,,,,,,,,,,,,,,,,,,,,,,,,54,2.4661,1,0,14,14,12,1,6,×,9,6 × 9,congruent,smallerFirst,1,2,54,,,,,,,,
,,,,,,,,,,,,,,,756,2022-01-22_11h30.15.837,multiplicationStroop,2021.2.3,Win32,59.31549914,,,,,,,,,,,,,,,,,,,,,,,,,,,,,,,,,12,2.5321,1,0,15,15,19,1,6,×,2,6 × 2,congruent,largerFirst,2,1,12,,,,,,,,
,,,,,,,,,,,,,,,756,2022-01-22_11h30.15.837,multiplicationStroop,2021.2.3,Win32,59.31549914,,,,,,,,,,,,,,,,,,,,,,,,,,,,,,,,,49,2.9403,1,0,16,16,33,1,7,×,7,7 × 7,neutral,tie,2,1,49,,,,,,,,
,,,,,,,,,,,,,,,756,2022-01-22_11h30.15.837,multiplicationStroop,2021.2.3,Win32,59.31549914,,,,,,,,,,,,,,,,,,,,,,,,,,,,,,,,,32,3.1163,1,0,17,17,20,1,8,×,4,8 × 4,congruent,largerFirst,2,1,32,,,,,,,,
,,,,,,,,,,,,,,,756,2022-01-22_11h30.15.837,multiplicationStroop,2021.2.3,Win32,59.31549914,,,,,,,,,,,,,,,,,,,,,,,,,,,,,,,,,25,1.8585,1,0,18,18,31,1,5,×,5,5 × 5,neutral,tie,2,1,25,,,,,,,,
,,,,,,,,,,,,,,,756,2022-01-22_11h30.15.837,multiplicationStroop,2021.2.3,Win32,59.31549914,,,,,,,,,,,,,,,,,,,,,,,,,,,,,,,,,18,3.7313,1,0,19,19,22,1,9,×,2,9 × 2,congruent,largerFirst,2,1,18,,,,,,,,
,,,,,,,,,,,,,,,756,2022-01-22_11h30.15.837,multiplicationStroop,2021.2.3,Win32,59.31549914,,,,,,,,,,,,,,,,,,,,,,,,,,,,,,,,,72,4.9483,1,0,20,20,17,1,9,×,8,9 × 8,congruent,largerFirst,2,1,72,,,,,,,,
,,,,,,,,,,,,,,,756,2022-01-22_11h30.15.837,multiplicationStroop,2021.2.3,Win32,59.31549914,,,,,,,,,,,,,,,,,,,,,,,,,,,,,,,,,16,2.891,1,0,21,21,5,1,2,×,8,2 × 8,congruent,smallerFirst,1,2,16,,,,,,,,
,,,,,,,,,,,,,,,756,2022-01-22_11h30.15.837,multiplicationStroop,2021.2.3,Win32,59.31549914,,,,,,,,,,,,,,,,,,,,,,,,,,,,,,,,,40,2.2828,1,0,22,22,6,1,5,×,8,5 × 8,congruent,smallerFirst,1,2,40,,,,,,,,
,,,,,,,,,,,,,,,756,2022-01-22_11h30.15.837,multiplicationStroop,2021.2.3,Win32,59.31549914,,,,,,,,,,,,,,,,,,,,,,,,,,,,,,,,,10,1.9317,1,0,23,23,24,1,5,×,2,5 × 2,congruent,largerFirst,2,1,10,,,,,,,,
,,,,,,,,,,,,,,,756,2022-01-22_11h30.15.837,multiplicationStroop,2021.2.3,Win32,59.31549914,,,,,,,,,,,,,,,,,,,,,,,,,,,,,,,,,12,1.6495,1,0,24,24,2,1,3,×,4,3 × 4,congruent,smallerFirst,1,2,12,,,,,,,,
,,,,,,,,,,,,,,,756,2022-01-22_11h30.15.837,multiplicationStroop,2021.2.3,Win32,59.31549914,,,,,,,,,,,,,,,,,,,,,,,,,,,,,,,,,15,1.6495,1,0,25,25,4,1,3,×,5,3 × 5,congruent,smallerFirst,1,2,15,,,,,,,,
,,,,,,,,,,,,,,,756,2022-01-22_11h30.15.837,multiplicationStroop,2021.2.3,Win32,59.31549914,,,,,,,,,,,,,,,,,,,,,,,,,,,,,,,,,4,1.3159,1,0,26,26,28,1,2,×,2,2 × 2,neutral,tie,2,1,4,,,,,,,,
,,,,,,,,,,,,,,,756,2022-01-22_11h30.15.837,multiplicationStroop,2021.2.3,Win32,59.31549914,,,,,,,,,,,,,,,,,,,,,,,,,,,,,,,,,64,3.5155,1,0,27,27,34,1,8,×,8,8 × 8,neutral,tie,2,1,64,,,,,,,,
,,,,,,,,,,,,,,,756,2022-01-22_11h30.15.837,multiplicationStroop,2021.2.3,Win32,59.31549914,,,,,,,,,,,,,,,,,,,,,,,,,,,,,,,,,56,2.0652,1,0,28,28,8,1,7,×,8,7 × 8,congruent,smallerFirst,1,2,56,,,,,,,,
,,,,,,,,,,,,,,,756,2022-01-22_11h30.15.837,multiplicationStroop,2021.2.3,Win32,59.31549914,,,,,,,,,,,,,,,,,,,,,,,,,,,,,,,,,42,1.9328,1,0,29,29,3,1,6,×,7,6 × 7,congruent,smallerFirst,1,2,42,,,,,,,,
,,,,,,,,,,,,,,,756,2022-01-22_11h30.15.837,multiplicationStroop,2021.2.3,Win32,59.31549914,,,,,,,,,,,,,,,,,,,,,,,,,,,,,,,,,45,1.9157,1,0,30,30,23,1,9,×,5,9 × 5,congruent,largerFirst,2,1,45,,,,,,,,
,,,,,,,,,,,,,,,756,2022-01-22_11h30.15.837,multiplicationStroop,2021.2.3,Win32,59.31549914,,,,,,,,,,,,,,,,,,,,,,,,,,,,,,,,,24,1.8831,1,0,31,31,25,1,6,×,4,6 × 4,congruent,largerFirst,2,1,24,,,,,,,,
,,,,,,,,,,,,,,,756,2022-01-22_11h30.15.837,multiplicationStroop,2021.2.3,Win32,59.31549914,,,,,,,,,,,,,,,,,,,,,,,,,,,,,,,,,6,1.9991,1,0,32,32,13,1,2,×,3,2 × 3,congruent,smallerFirst,1,2,6,,,,,,,,
,,,,,,,,,,,,,,,756,2022-01-22_11h30.15.837,multiplicationStroop,2021.2.3,Win32,59.31549914,,,,,,,,,,,,,,,,,,,,,,,,,,,,,,,,,30,2.1822,1,0,33,33,15,1,6,×,5,6 × 5,congruent,largerFirst,2,1,30,,,,,,,,
,,,,,,,,,,,,,,,756,2022-01-22_11h30.15.837,multiplicationStroop,2021.2.3,Win32,59.31549914,,,,,,,,,,,,,,,,,,,,,,,,,,,,,,,,,9,2.0826,1,0,34,34,29,1,3,×,3,3 × 3,neutral,tie,2,1,9,,,,,,,,
,,,,,,,,,,,,,,,756,2022-01-22_11h30.15.837,multiplicationStroop,2021.2.3,Win32,59.31549914,,,,,,,,,,,,,,,,,,,,,,,,,,,,,,,,,36,3.6989,1,0,35,35,0,1,4,×,9,4 × 9,congruent,smallerFirst,1,2,36,,,,,,,,
,,,,,,,,,,,,,,,756,2022-01-22_11h30.15.837,multiplicationStroop,2021.2.3,Win32,59.31549914,,,,,,,,,,,,,,,,,,,,,,,,,,,,,,,,,,,,,,,,,,,,,,,,,,0,2,2,2,1,stimulusFile/mult_blk3_congruent.xlsx,,
,,,,,,,,,,,,,,,756,2022-01-22_11h30.15.837,multiplicationStroop,2021.2.3,Win32,59.31549914,,,,,,,,,,,,,,,,,,,,,,,,,,,,,,,space,1.252,32,2.0126,1,0,0,0,6,1,4,×,8,4 × 8,congruent,smallerFirst,1,2,32,,,,,,,,
,,,,,,,,,,,,,,,756,2022-01-22_11h30.15.837,multiplicationStroop,2021.2.3,Win32,59.31549914,,,,,,,,,,,,,,,,,,,,,,,,,,,,,,,,,12,2.0158,1,0,1,1,5,1,2,×,6,2 × 6,congruent,smallerFirst,1,2,12,,,,,,,,
,,,,,,,,,,,,,,,756,2022-01-22_11h30.15.837,multiplicationStroop,2021.2.3,Win32,59.31549914,,,,,,,,,,,,,,,,,,,,,,,,,,,,,,,,,42,1.8045,1,0,2,2,17,1,7,×,6,7 × 6,congruent,largerFirst,2,1,42,,,,,,,,
,,,,,,,,,,,,,,,756,2022-01-22_11h30.15.837,multiplicationStroop,2021.2.3,Win32,59.31549914,,,,,,,,,,,,,,,,,,,,,,,,,,,,,,,,,10,2.0096,1,0,3,3,10,1,2,×,5,2 × 5,congruent,smallerFirst,1,2,10,,,,,,,,
,,,,,,,,,,,,,,,756,2022-01-22_11h30.15.837,multiplicationStroop,2021.2.3,Win32,59.31549914,,,,,,,,,,,,,,,,,,,,,,,,,,,,,,,,,40,1.8821,1,0,4,4,20,1,8,×,5,8 × 5,congruent,largerFirst,2,1,40,,,,,,,,
,,,,,,,,,,,,,,,756,2022-01-22_11h30.15.837,multiplicationStroop,2021.2.3,Win32,59.31549914,,,,,,,,,,,,,,,,,,,,,,,,,,,,,,,,,20,2.0812,1,0,5,5,21,1,5,×,4,5 × 4,congruent,largerFirst,2,1,20,,,,,,,,
,,,,,,,,,,,,,,,756,2022-01-22_11h30.15.837,multiplicationStroop,2021.2.3,Win32,59.31549914,,,,,,,,,,,,,,,,,,,,,,,,,,,,,,,,,24,3.9649,1,0,6,6,24,1,8,×,3,8 × 3,congruent,largerFirst,2,1,24,,,,,,,,
,,,,,,,,,,,,,,,756,2022-01-22_11h30.15.837,multiplicationStroop,2021.2.3,Win32,59.31549914,,,,,,,,,,,,,,,,,,,,,,,,,,,,,,,,,8,1.8893,1,0,7,7,23,1,4,×,2,4 × 2,congruent,largerFirst,2,1,8,,,,,,,,
,,,,,,,,,,,,,,,756,2022-01-22_11h30.15.837,multiplicationStroop,2021.2.3,Win32,59.31549914,,,,,,,,,,,,,,,,,,,,,,,,,,,,,,,,,12,1.5318,1,0,8,8,16,1,4,×,3,4 × 3,congruent,largerFirst,2,1,12,,,,,,,,
,,,,,,,,,,,,,,,756,2022-01-22_11h30.15.837,multiplicationStroop,2021.2.3,Win32,59.31549914,,,,,,,,,,,,,,,,,,,,,,,,,,,,,,,,,28,2.7985,1,0,9,9,13,1,4,×,7,4 × 7,congruent,smallerFirst,1,2,28,,,,,,,,
,,,,,,,,,,,,,,,756,2022-01-22_11h30.15.837,multiplicationStroop,2021.2.3,Win32,59.31549914,,,,,,,,,,,,,,,,,,,,,,,,,,,,,,,,,24,1.9724,1,0,10,10,11,1,4,×,6,4 × 6,congruent,smallerFirst,1,2,24,,,,,,,,
,,,,,,,,,,,,,,,756,2022-01-22_11h30.15.837,multiplicationStroop,2021.2.3,Win32,59.31549914,,,,,,,,,,,,,,,,,,,,,,,,,,,,,,,,,30,1.9488,1,0,11,11,1,1,5,×,6,5 × 6,congruent,smallerFirst,1,2,30,,,,,,,,
,,,,,,,,,,,,,,,756,2022-01-22_11h30.15.837,multiplicationStroop,2021.2.3,Win32,59.31549914,,,,,,,,,,,,,,,,,,,,,,,,,,,,,,,,,6,1.9651,1,0,12,12,27,1,3,×,2,3 × 2,congruent,largerFirst,2,1,6,,,,,,,,
,,,,,,,,,,,,,,,756,2022-01-22_11h30.15.837,multiplicationStroop,2021.2.3,Win32,59.31549914,,,,,,,,,,,,,,,,,,,,,,,,,,,,,,,,,72,7.815,1,0,13,13,3,1,8,×,9,8 × 9,congruent,smallerFirst,1,2,72,,,,,,,,
,,,,,,,,,,,,,,,756,2022-01-22_11h30.15.837,multiplicationStroop,2021.2.3,Win32,59.31549914,,,,,,,,,,,,,,,,,,,,,,,,,,,,,,,,,15,1.838,1,0,14,14,18,1,5,×,3,5 × 3,congruent,largerFirst,2,1,15,,,,,,,,
,,,,,,,,,,,,,,,756,2022-01-22_11h30.15.837,multiplicationStroop,2021.2.3,Win32,59.31549914,,,,,,,,,,,,,,,,,,,,,,,,,,,,,,,,,36,2.4154,1,0,15,15,14,1,9,×,4,9 × 4,congruent,largerFirst,2,1,36,,,,,,,,
,,,,,,,,,,,,,,,756,2022-01-22_11h30.15.837,multiplicationStroop,2021.2.3,Win32,59.31549914,,,,,,,,,,,,,,,,,,,,,,,,,,,,,,,,,45,1.8825,1,0,16,16,9,1,5,×,9,5 × 9,congruent,smallerFirst,1,2,45,,,,,,,,
,,,,,,,,,,,,,,,756,2022-01-22_11h30.15.837,multiplicationStroop,2021.2.3,Win32,59.31549914,,,,,,,,,,,,,,,,,,,,,,,,,,,,,,,,,14,1.9493,1,0,17,17,0,1,2,×,7,2 × 7,congruent,smallerFirst,1,2,14,,,,,,,,
,,,,,,,,,,,,,,,756,2022-01-22_11h30.15.837,multiplicationStroop,2021.2.3,Win32,59.31549914,,,,,,,,,,,,,,,,,,,,,,,,,,,,,,,,,54,2.382,1,0,18,18,26,1,9,×,6,9 × 6,congruent,largerFirst,2,1,54,,,,,,,,
,,,,,,,,,,,,,,,756,2022-01-22_11h30.15.837,multiplicationStroop,2021.2.3,Win32,59.31549914,,,,,,,,,,,,,,,,,,,,,,,,,,,,,,,,,63,4.6044,1,0,19,19,7,1,7,×,9,7 × 9,congruent,smallerFirst,1,2,63,,,,,,,,
,,,,,,,,,,,,,,,756,2022-01-22_11h30.15.837,multiplicationStroop,2021.2.3,Win32,59.31549914,,,,,,,,,,,,,,,,,,,,,,,,,,,,,,,,,64,2.525,1,0,20,20,34,1,8,×,8,8 × 8,neutral,tie,1,2,64,,,,,,,,
,,,,,,,,,,,,,,,756,2022-01-22_11h30.15.837,multiplicationStroop,2021.2.3,Win32,59.31549914,,,,,,,,,,,,,,,,,,,,,,,,,,,,,,,,,21,2.2256,1,0,21,21,2,1,3,×,7,3 × 7,congruent,smallerFirst,1,2,21,,,,,,,,
,,,,,,,,,,,,,,,756,2022-01-22_11h30.15.837,multiplicationStroop,2021.2.3,Win32,59.31549914,,,,,,,,,,,,,,,,,,,,,,,,,,,,,,,,,9,2.1317,1,0,22,22,29,1,3,×,3,3 × 3,neutral,tie,1,2,9,,,,,,,,
,,,,,,,,,,,,,,,756,2022-01-22_11h30.15.837,multiplicationStroop,2021.2.3,Win32,59.31549914,,,,,,,,,,,,,,,,,,,,,,,,,,,,,,,,,48,2.2558,1,0,23,23,4,1,6,×,8,6 × 8,congruent,smallerFirst,1,2,48,,,,,,,,
,,,,,,,,,,,,,,,756,2022-01-22_11h30.15.837,multiplicationStroop,2021.2.3,Win32,59.31549914,,,,,,,,,,,,,,,,,,,,,,,,,,,,,,,,,35,1.8821,1,0,24,24,15,1,7,×,5,7 × 5,congruent,largerFirst,2,1,35,,,,,,,,
,,,,,,,,,,,,,,,756,2022-01-22_11h30.15.837,multiplicationStroop,2021.2.3,Win32,59.31549914,,,,,,,,,,,,,,,,,,,,,,,,,,,,,,,,,18,2.2152,1,0,25,25,25,1,6,×,3,6 × 3,congruent,largerFirst,2,1,18,,,,,,,,
,,,,,,,,,,,,,,,756,2022-01-22_11h30.15.837,multiplicationStroop,2021.2.3,Win32,59.31549914,,,,,,,,,,,,,,,,,,,,,,,,,,,,,,,,,81,5.8977,1,0,26,26,35,1,9,×,9,9 × 9,neutral,tie,1,2,81,,,,,,,,
,,,,,,,,,,,,,,,756,2022-01-22_11h30.15.837,multiplicationStroop,2021.2.3,Win32,59.31549914,,,,,,,,,,,,,,,,,,,,,,,,,,,,,,,,,56,1.9054,1,0,27,27,22,1,8,×,7,8 × 7,congruent,largerFirst,2,1,56,,,,,,,,
,,,,,,,,,,,,,,,756,2022-01-22_11h30.15.837,multiplicationStroop,2021.2.3,Win32,59.31549914,,,,,,,,,,,,,,,,,,,,,,,,,,,,,,,,,25,1.8488,1,0,28,28,31,1,5,×,5,5 × 5,neutral,tie,1,2,25,,,,,,,,
,,,,,,,,,,,,,,,756,2022-01-22_11h30.15.837,multiplicationStroop,2021.2.3,Win32,59.31549914,,,,,,,,,,,,,,,,,,,,,,,,,,,,,,,,,4,1.2982,1,0,29,29,28,1,2,×,2,2 × 2,neutral,tie,1,2,4,,,,,,,,
,,,,,,,,,,,,,,,756,2022-01-22_11h30.15.837,multiplicationStroop,2021.2.3,Win32,59.31549914,,,,,,,,,,,,,,,,,,,,,,,,,,,,,,,,,16,1.9484,1,0,30,30,30,1,4,×,4,4 × 4,neutral,tie,1,2,16,,,,,,,,
,,,,,,,,,,,,,,,756,2022-01-22_11h30.15.837,multiplicationStroop,2021.2.3,Win32,59.31549914,,,,,,,,,,,,,,,,,,,,,,,,,,,,,,,,,16,2.1483,1,0,31,31,19,1,8,×,2,8 × 2,congruent,largerFirst,2,1,16,,,,,,,,
,,,,,,,,,,,,,,,756,2022-01-22_11h30.15.837,multiplicationStroop,2021.2.3,Win32,59.31549914,,,,,,,,,,,,,,,,,,,,,,,,,,,,,,,,,49,2.3988,1,0,32,32,33,1,7,×,7,7 × 7,neutral,tie,1,2,49,,,,,,,,
,,,,,,,,,,,,,,,756,2022-01-22_11h30.15.837,multiplicationStroop,2021.2.3,Win32,59.31549914,,,,,,,,,,,,,,,,,,,,,,,,,,,,,,,,,18,2.2481,1,0,33,33,8,1,2,×,9,2 × 9,congruent,smallerFirst,1,2,18,,,,,,,,
,,,,,,,,,,,,,,,756,2022-01-22_11h30.15.837,multiplicationStroop,2021.2.3,Win32,59.31549914,,,,,,,,,,,,,,,,,,,,,,,,,,,,,,,,,36,2.6392,1,0,34,34,32,1,6,×,6,6 × 6,neutral,tie,1,2,36,,,,,,,,
,,,,,,,,,,,,,,,756,2022-01-22_11h30.15.837,multiplicationStroop,2021.2.3,Win32,59.31549914,,,,,,,,,,,,,,,,,,,,,,,,,,,,,,,,,27,2.7818,1,0,35,35,12,1,3,×,9,3 × 9,congruent,smallerFirst,1,2,27,,,,,,,,
,,,,,,,,,,,,,,,756,2022-01-22_11h30.15.837,multiplicationStroop,2021.2.3,Win32,59.31549914,,,,,,,,,,,,,,,,,,,,,,,,,,,,,,,,,,,,,,,,,,,,,,,,,,0,3,3,3,1,stimulusFile/mult_blk4_congruent.xlsx,,
,,,,,,,,,,,,,,,756,2022-01-22_11h30.15.837,multiplicationStroop,2021.2.3,Win32,59.31549914,,,,,,,,,,,,,,,,,,,,,,,,,,,,,,,space,3.8357,4,1.724,1,0,0,0,28,1,2,×,2,2 × 2,neutral,tie,2,1,4,,,,,,,,
,,,,,,,,,,,,,,,756,2022-01-22_11h30.15.837,multiplicationStroop,2021.2.3,Win32,59.31549914,,,,,,,,,,,,,,,,,,,,,,,,,,,,,,,,,24,3.1476,1,0,1,1,23,1,8,×,3,8 × 3,incongruent,largerFirst,1,2,24,,,,,,,,
,,,,,,,,,,,,,,,756,2022-01-22_11h30.15.837,multiplicationStroop,2021.2.3,Win32,59.31549914,,,,,,,,,,,,,,,,,,,,,,,,,,,,,,,,,42,1.8896,1,0,2,2,3,1,6,×,7,6 × 7,incongruent,smallerFirst,2,1,42,,,,,,,,
,,,,,,,,,,,,,,,756,2022-01-22_11h30.15.837,multiplicationStroop,2021.2.3,Win32,59.31549914,,,,,,,,,,,,,,,,,,,,,,,,,,,,,,,,,9,1.938,1,0,3,3,29,1,3,×,3,3 × 3,neutral,tie,2,1,9,,,,,,,,
,,,,,,,,,,,,,,,756,2022-01-22_11h30.15.837,multiplicationStroop,2021.2.3,Win32,59.31549914,,,,,,,,,,,,,,,,,,,,,,,,,,,,,,,,,12,1.5098,1,0,4,4,5,1,2,×,6,2 × 6,incongruent,smallerFirst,2,1,12,,,,,,,,
,,,,,,,,,,,,,,,756,2022-01-22_11h30.15.837,multiplicationStroop,2021.2.3,Win32,59.31549914,,,,,,,,,,,,,,,,,,,,,,,,,,,,,,,,,8,1.7873,1,0,5,5,10,1,2,×,4,2 × 4,incongruent,smallerFirst,2,1,8,,,,,,,,
,,,,,,,,,,,,,,,756,2022-01-22_11h30.15.837,multiplicationStroop,2021.2.3,Win32,59.31549914,,,,,,,,,,,,,,,,,,,,,,,,,,,,,,,,,35,1.9761,1,0,6,6,26,1,7,×,5,7 × 5,incongruent,largerFirst,1,2,35,,,,,,,,
,,,,,,,,,,,,,,,756,2022-01-22_11h30.15.837,multiplicationStroop,2021.2.3,Win32,59.31549914,,,,,,,,,,,,,,,,,,,,,,,,,,,,,,,,,18,2.1481,1,0,7,7,16,1,9,×,2,9 × 2,incongruent,largerFirst,1,2,18,,,,,,,,
,,,,,,,,,,,,,,,756,2022-01-22_11h30.15.837,multiplicationStroop,2021.2.3,Win32,59.31549914,,,,,,,,,,,,,,,,,,,,,,,,,,,,,,,,,21,1.6477,1,0,8,8,12,1,3,×,7,3 × 7,incongruent,smallerFirst,2,1,21,,,,,,,,
,,,,,,,,,,,,,,,756,2022-01-22_11h30.15.837,multiplicationStroop,2021.2.3,Win32,59.31549914,,,,,,,,,,,,,,,,,,,,,,,,,,,,,,,,,48,2.3644,1,0,9,9,15,1,8,×,6,8 × 6,incongruent,largerFirst,1,2,48,,,,,,,,
,,,,,,,,,,,,,,,756,2022-01-22_11h30.15.837,multiplicationStroop,2021.2.3,Win32,59.31549914,,,,,,,,,,,,,,,,,,,,,,,,,,,,,,,,,36,2.7053,1,0,10,10,32,1,6,×,6,6 × 6,neutral,tie,2,1,36,,,,,,,,
,,,,,,,,,,,,,,,756,2022-01-22_11h30.15.837,multiplicationStroop,2021.2.3,Win32,59.31549914,,,,,,,,,,,,,,,,,,,,,,,,,,,,,,,,,56,2.2411,1,0,11,11,0,1,7,×,8,7 × 8,incongruent,smallerFirst,2,1,56,,,,,,,,
,,,,,,,,,,,,,,,756,2022-01-22_11h30.15.837,multiplicationStroop,2021.2.3,Win32,59.31549914,,,,,,,,,,,,,,,,,,,,,,,,,,,,,,,,,12,1.5595,1,0,12,12,19,1,4,×,3,4 × 3,incongruent,largerFirst,1,2,12,,,,,,,,
,,,,,,,,,,,,,,,756,2022-01-22_11h30.15.837,multiplicationStroop,2021.2.3,Win32,59.31549914,,,,,,,,,,,,,,,,,,,,,,,,,,,,,,,,,16,2.4147,1,0,13,13,9,1,2,×,8,2 × 8,incongruent,smallerFirst,2,1,16,,,,,,,,
,,,,,,,,,,,,,,,756,2022-01-22_11h30.15.837,multiplicationStroop,2021.2.3,Win32,59.31549914,,,,,,,,,,,,,,,,,,,,,,,,,,,,,,,,,20,1.972,1,0,14,14,13,1,4,×,5,4 × 5,incongruent,smallerFirst,2,1,20,,,,,,,,
,,,,,,,,,,,,,,,756,2022-01-22_11h30.15.837,multiplicationStroop,2021.2.3,Win32,59.31549914,,,,,,,,,,,,,,,,,,,,,,,,,,,,,,,,,18,4.1542,1,0,15,15,22,1,6,×,3,6 × 3,incongruent,largerFirst,1,2,18,,,,,,,,
,,,,,,,,,,,,,,,756,2022-01-22_11h30.15.837,multiplicationStroop,2021.2.3,Win32,59.31549914,,,,,,,,,,,,,,,,,,,,,,,,,,,,,,,,,32,2.207,1,0,16,16,21,1,8,×,4,8 × 4,incongruent,largerFirst,1,2,32,,,,,,,,
,,,,,,,,,,,,,,,756,2022-01-22_11h30.15.837,multiplicationStroop,2021.2.3,Win32,59.31549914,,,,,,,,,,,,,,,,,,,,,,,,,,,,,,,,,30,1.9595,1,0,17,17,11,1,5,×,6,5 × 6,incongruent,smallerFirst,2,1,30,,,,,,,,
,,,,,,,,,,,,,,,756,2022-01-22_11h30.15.837,multiplicationStroop,2021.2.3,Win32,59.31549914,,,,,,,,,,,,,,,,,,,,,,,,,,,,,,,,,45,2.5637,1,0,18,18,8,1,5,×,9,5 × 9,incongruent,smallerFirst,2,1,45,,,,,,,,
,,,,,,,,,,,,,,,756,2022-01-22_11h30.15.837,multiplicationStroop,2021.2.3,Win32,59.31549914,,,,,,,,,,,,,,,,,,,,,,,,,,,,,,,,,54,2.4873,1,0,19,19,20,1,9,×,6,9 × 6,incongruent,largerFirst,1,2,54,,,,,,,,
,,,,,,,,,,,,,,,756,2022-01-22_11h30.15.837,multiplicationStroop,2021.2.3,Win32,59.31549914,,,,,,,,,,,,,,,,,,,,,,,,,,,,,,,,,28,2.4504,1,0,20,20,2,1,4,×,7,4 × 7,incongruent,smallerFirst,2,1,28,,,,,,,,
,,,,,,,,,,,,,,,756,2022-01-22_11h30.15.837,multiplicationStroop,2021.2.3,Win32,59.31549914,,,,,,,,,,,,,,,,,,,,,,,,,,,,,,,,,6,2.1178,1,0,21,21,25,1,3,×,2,3 × 2,incongruent,largerFirst,1,2,6,,,,,,,,
,,,,,,,,,,,,,,,756,2022-01-22_11h30.15.837,multiplicationStroop,2021.2.3,Win32,59.31549914,,,,,,,,,,,,,,,,,,,,,,,,,,,,,,,,,81,4.5477,1,0,22,22,35,1,9,×,9,9 × 9,neutral,tie,2,1,81,,,,,,,,
,,,,,,,,,,,,,,,756,2022-01-22_11h30.15.837,multiplicationStroop,2021.2.3,Win32,59.31549914,,,,,,,,,,,,,,,,,,,,,,,,,,,,,,,,,49,2.4059,1,0,23,23,33,1,7,×,7,7 × 7,neutral,tie,2,1,49,,,,,,,,
,,,,,,,,,,,,,,,756,2022-01-22_11h30.15.837,multiplicationStroop,2021.2.3,Win32,59.31549914,,,,,,,,,,,,,,,,,,,,,,,,,,,,,,,,,10,1.8314,1,0,24,24,7,1,2,×,5,2 × 5,incongruent,smallerFirst,2,1,10,,,,,,,,
,,,,,,,,,,,,,,,756,2022-01-22_11h30.15.837,multiplicationStroop,2021.2.3,Win32,59.31549914,,,,,,,,,,,,,,,,,,,,,,,,,,,,,,,,,24,1.7824,1,0,25,25,6,1,4,×,6,4 × 6,incongruent,smallerFirst,2,1,24,,,,,,,,
,,,,,,,,,,,,,,,756,2022-01-22_11h30.15.837,multiplicationStroop,2021.2.3,Win32,59.31549914,,,,,,,,,,,,,,,,,,,,,,,,,,,,,,,,,14,2.0647,1,0,26,26,18,1,7,×,2,7 × 2,incongruent,largerFirst,1,2,14,,,,,,,,
,,,,,,,,,,,,,,,756,2022-01-22_11h30.15.837,multiplicationStroop,2021.2.3,Win32,59.31549914,,,,,,,,,,,,,,,,,,,,,,,,,,,,,,,,,40,1.9312,1,0,27,27,27,1,8,×,5,8 × 5,incongruent,largerFirst,1,2,40,,,,,,,,
,,,,,,,,,,,,,,,756,2022-01-22_11h30.15.837,multiplicationStroop,2021.2.3,Win32,59.31549914,,,,,,,,,,,,,,,,,,,,,,,,,,,,,,,,,15,1.7661,1,0,28,28,24,1,5,×,3,5 × 3,incongruent,largerFirst,1,2,15,,,,,,,,
,,,,,,,,,,,,,,,756,2022-01-22_11h30.15.837,multiplicationStroop,2021.2.3,Win32,59.31549914,,,,,,,,,,,,,,,,,,,,,,,,,,,,,,,,,36,4.2539,1,0,29,29,1,1,4,×,9,4 × 9,incongruent,smallerFirst,2,1,36,,,,,,,,
,,,,,,,,,,,,,,,756,2022-01-22_11h30.15.837,multiplicationStroop,2021.2.3,Win32,59.31549914,,,,,,,,,,,,,,,,,,,,,,,,,,,,,,,,,25,2.1683,1,0,30,30,31,1,5,×,5,5 × 5,neutral,tie,2,1,25,,,,,,,,
,,,,,,,,,,,,,,,756,2022-01-22_11h30.15.837,multiplicationStroop,2021.2.3,Win32,59.31549914,,,,,,,,,,,,,,,,,,,,,,,,,,,,,,,,,64,1.9479,1,0,31,31,34,1,8,×,8,8 × 8,neutral,tie,2,1,64,,,,,,,,
,,,,,,,,,,,,,,,756,2022-01-22_11h30.15.837,multiplicationStroop,2021.2.3,Win32,59.31549914,,,,,,,,,,,,,,,,,,,,,,,,,,,,,,,,,63,14.8451,1,0,32,32,17,1,9,×,7,9 × 7,incongruent,largerFirst,1,2,63,,,,,,,,
,,,,,,,,,,,,,,,756,2022-01-22_11h30.15.837,multiplicationStroop,2021.2.3,Win32,59.31549914,,,,,,,,,,,,,,,,,,,,,,,,,,,,,,,,,16,2.5203,1,0,33,33,30,1,4,×,4,4 × 4,neutral,tie,2,1,16,,,,,,,,
,,,,,,,,,,,,,,,756,2022-01-22_11h30.15.837,multiplicationStroop,2021.2.3,Win32,59.31549914,,,,,,,,,,,,,,,,,,,,,,,,,,,,,,,,,27,2.1658,1,0,34,34,4,1,3,×,9,3 × 9,incongruent,smallerFirst,2,1,27,,,,,,,,
,,,,,,,,,,,,,,,756,2022-01-22_11h30.15.837,multiplicationStroop,2021.2.3,Win32,59.31549914,,,,,,,,,,,,,,,,,,,,,,,,,,,,,,,,,72,5.3976,1,0,35,35,14,1,9,×,8,9 × 8,incongruent,largerFirst,1,2,72,,,,,,,,
,,,,,,,,,,,,,,,756,2022-01-22_11h30.15.837,multiplicationStroop,2021.2.3,Win32,59.31549914,,,,,,,,,,,,,,,,,,,,,,,,,,,,,,,,,,,,,,,,,,,,,,,,,,0,4,4,4,1,stimulusFile/mult_blk5_INcongruent.xlsx,,
,,,,,,,,,,,,,,,756,2022-01-22_11h30.15.837,multiplicationStroop,2021.2.3,Win32,59.31549914,,,,,,,,,,,,,,,,,,,,,,,,,,,,,,,space,1.7195,18,2.5754,1,0,0,0,14,1,6,×,3,6 × 3,neutral,largerFirst,1.5,1.5,18,,,,,,,,
,,,,,,,,,,,,,,,756,2022-01-22_11h30.15.837,multiplicationStroop,2021.2.3,Win32,59.31549914,,,,,,,,,,,,,,,,,,,,,,,,,,,,,,,,,15,1.9846,1,0,1,1,19,1,5,×,3,5 × 3,neutral,largerFirst,1.5,1.5,15,,,,,,,,
,,,,,,,,,,,,,,,756,2022-01-22_11h30.15.837,multiplicationStroop,2021.2.3,Win32,59.31549914,,,,,,,,,,,,,,,,,,,,,,,,,,,,,,,,,49,2.1884,1,0,2,2,33,1,7,×,7,7 × 7,neutral,tie,1.5,1.5,49,,,,,,,,
,,,,,,,,,,,,,,,756,2022-01-22_11h30.15.837,multiplicationStroop,2021.2.3,Win32,59.31549914,,,,,,,,,,,,,,,,,,,,,,,,,,,,,,,,,54,2.1431,1,0,3,3,21,1,9,×,6,9 × 6,neutral,largerFirst,1.5,1.5,54,,,,,,,,
,,,,,,,,,,,,,,,756,2022-01-22_11h30.15.837,multiplicationStroop,2021.2.3,Win32,59.31549914,,,,,,,,,,,,,,,,,,,,,,,,,,,,,,,,,81,1.8709,1,0,4,4,35,1,9,×,9,9 × 9,neutral,tie,1.5,1.5,81,,,,,,,,
,,,,,,,,,,,,,,,756,2022-01-22_11h30.15.837,multiplicationStroop,2021.2.3,Win32,59.31549914,,,,,,,,,,,,,,,,,,,,,,,,,,,,,,,,,9,1.5931,1,0,5,5,29,1,3,×,3,3 × 3,neutral,tie,1.5,1.5,9,,,,,,,,
,,,,,,,,,,,,,,,756,2022-01-22_11h30.15.837,multiplicationStroop,2021.2.3,Win32,59.31549914,,,,,,,,,,,,,,,,,,,,,,,,,,,,,,,,,35,3.1813,1,0,6,6,15,1,7,×,5,7 × 5,neutral,largerFirst,1.5,1.5,35,,,,,,,,
,,,,,,,,,,,,,,,756,2022-01-22_11h30.15.837,multiplicationStroop,2021.2.3,Win32,59.31549914,,,,,,,,,,,,,,,,,,,,,,,,,,,,,,,,,4,1.5485,1,0,7,7,28,1,2,×,2,2 × 2,neutral,tie,1.5,1.5,4,,,,,,,,
,,,,,,,,,,,,,,,756,2022-01-22_11h30.15.837,multiplicationStroop,2021.2.3,Win32,59.31549914,,,,,,,,,,,,,,,,,,,,,,,,,,,,,,,,,56,1.8815,0,0,8,8,26,1,9,×,7,9 × 7,neutral,largerFirst,1.5,1.5,63,,,,,,,,
,,,,,,,,,,,,,,,756,2022-01-22_11h30.15.837,multiplicationStroop,2021.2.3,Win32,59.31549914,,,,,,,,,,,,,,,,,,,,,,,,,,,,,,,,,21,1.8147,1,0,9,9,22,1,7,×,3,7 × 3,neutral,largerFirst,1.5,1.5,21,,,,,,,,
,,,,,,,,,,,,,,,756,2022-01-22_11h30.15.837,multiplicationStroop,2021.2.3,Win32,59.31549914,,,,,,,,,,,,,,,,,,,,,,,,,,,,,,,,,45,2.5824,1,0,10,10,24,1,9,×,5,9 × 5,neutral,largerFirst,1.5,1.5,45,,,,,,,,
,,,,,,,,,,,,,,,756,2022-01-22_11h30.15.837,multiplicationStroop,2021.2.3,Win32,59.31549914,,,,,,,,,,,,,,,,,,,,,,,,,,,,,,,,,10,2.1643,1,0,11,11,18,1,5,×,2,5 × 2,neutral,largerFirst,1.5,1.5,10,,,,,,,,
,,,,,,,,,,,,,,,756,2022-01-22_11h30.15.837,multiplicationStroop,2021.2.3,Win32,59.31549914,,,,,,,,,,,,,,,,,,,,,,,,,,,,,,,,,20,1.8319,1,0,12,12,6,1,4,×,5,4 × 5,neutral,smallerFirst,1.5,1.5,20,,,,,,,,
,,,,,,,,,,,,,,,756,2022-01-22_11h30.15.837,multiplicationStroop,2021.2.3,Win32,59.31549914,,,,,,,,,,,,,,,,,,,,,,,,,,,,,,,,,14,1.6981,1,0,13,13,2,1,2,×,7,2 × 7,neutral,smallerFirst,1.5,1.5,14,,,,,,,,
,,,,,,,,,,,,,,,756,2022-01-22_11h30.15.837,multiplicationStroop,2021.2.3,Win32,59.31549914,,,,,,,,,,,,,,,,,,,,,,,,,,,,,,,,,16,1.9986,1,0,14,14,27,1,8,×,2,8 × 2,neutral,largerFirst,1.5,1.5,16,,,,,,,,
,,,,,,,,,,,,,,,756,2022-01-22_11h30.15.837,multiplicationStroop,2021.2.3,Win32,59.31549914,,,,,,,,,,,,,,,,,,,,,,,,,,,,,,,,,24,1.7811,1,0,15,15,16,1,6,×,4,6 × 4,neutral,largerFirst,1.5,1.5,24,,,,,,,,
,,,,,,,,,,,,,,,756,2022-01-22_11h30.15.837,multiplicationStroop,2021.2.3,Win32,59.31549914,,,,,,,,,,,,,,,,,,,,,,,,,,,,,,,,,32,1.7544,1,0,16,16,9,1,4,×,8,4 × 8,neutral,smallerFirst,1.5,1.5,32,,,,,,,,
,,,,,,,,,,,,,,,756,2022-01-22_11h30.15.837,multiplicationStroop,2021.2.3,Win32,59.31549914,,,,,,,,,,,,,,,,,,,,,,,,,,,,,,,,,56,1.9161,1,0,17,17,23,1,8,×,7,8 × 7,neutral,largerFirst,1.5,1.5,56,,,,,,,,
,,,,,,,,,,,,,,,756,2022-01-22_11h30.15.837,multiplicationStroop,2021.2.3,Win32,59.31549914,,,,,,,,,,,,,,,,,,,,,,,,,,,,,,,,,24,2.0594,1,0,18,18,8,1,3,×,8,3 × 8,neutral,smallerFirst,1.5,1.5,24,,,,,,,,
,,,,,,,,,,,,,,,756,2022-01-22_11h30.15.837,multiplicationStroop,2021.2.3,Win32,59.31549914,,,,,,,,,,,,,,,,,,,,,,,,,,,,,,,,,12,1.4485,1,0,19,19,11,1,2,×,6,2 × 6,neutral,smallerFirst,1.5,1.5,12,,,,,,,,
,,,,,,,,,,,,,,,756,2022-01-22_11h30.15.837,multiplicationStroop,2021.2.3,Win32,59.31549914,,,,,,,,,,,,,,,,,,,,,,,,,,,,,,,,,28,2.2148,1,0,20,20,3,1,4,×,7,4 × 7,neutral,smallerFirst,1.5,1.5,28,,,,,,,,
,,,,,,,,,,,,,,,756,2022-01-22_11h30.15.837,multiplicationStroop,2021.2.3,Win32,59.31549914,,,,,,,,,,,,,,,,,,,,,,,,,,,,,,,,,36,1.962,1,0,21,21,32,1,6,×,6,6 × 6,neutral,tie,1.5,1.5,36,,,,,,,,
,,,,,,,,,,,,,,,756,2022-01-22_11h30.15.837,multiplicationStroop,2021.2.3,Win32,59.31549914,,,,,,,,,,,,,,,,,,,,,,,,,,,,,,,,,25,2.0932,1,0,22,22,31,1,5,×,5,5 × 5,neutral,tie,1.5,1.5,25,,,,,,,,
,,,,,,,,,,,,,,,756,2022-01-22_11h30.15.837,multiplicationStroop,2021.2.3,Win32,59.31549914,,,,,,,,,,,,,,,,,,,,,,,,,,,,,,,,,42,1.8049,1,0,23,23,20,1,7,×,6,7 × 6,neutral,largerFirst,1.5,1.5,42,,,,,,,,
,,,,,,,,,,,,,,,756,2022-01-22_11h30.15.837,multiplicationStroop,2021.2.3,Win32,59.31549914,,,,,,,,,,,,,,,,,,,,,,,,,,,,,,,,,72,5.3085,1,0,24,24,25,1,9,×,8,9 × 8,neutral,largerFirst,1.5,1.5,72,,,,,,,,
,,,,,,,,,,,,,,,756,2022-01-22_11h30.15.837,multiplicationStroop,2021.2.3,Win32,59.31549914,,,,,,,,,,,,,,,,,,,,,,,,,,,,,,,,,8,2.9551,1,0,25,25,17,1,4,×,2,4 × 2,neutral,largerFirst,1.5,1.5,8,,,,,,,,
,,,,,,,,,,,,,,,756,2022-01-22_11h30.15.837,multiplicationStroop,2021.2.3,Win32,59.31549914,,,,,,,,,,,,,,,,,,,,,,,,,,,,,,,,,18,2.137,1,0,26,26,4,1,2,×,9,2 × 9,neutral,smallerFirst,1.5,1.5,18,,,,,,,,
,,,,,,,,,,,,,,,756,2022-01-22_11h30.15.837,multiplicationStroop,2021.2.3,Win32,59.31549914,,,,,,,,,,,,,,,,,,,,,,,,,,,,,,,,,48,2.0322,1,0,27,27,1,1,6,×,8,6 × 8,neutral,smallerFirst,1.5,1.5,48,,,,,,,,
,,,,,,,,,,,,,,,756,2022-01-22_11h30.15.837,multiplicationStroop,2021.2.3,Win32,59.31549914,,,,,,,,,,,,,,,,,,,,,,,,,,,,,,,,,64,2.3979,1,0,28,28,34,1,8,×,8,8 × 8,neutral,tie,1.5,1.5,64,,,,,,,,
,,,,,,,,,,,,,,,756,2022-01-22_11h30.15.837,multiplicationStroop,2021.2.3,Win32,59.31549914,,,,,,,,,,,,,,,,,,,,,,,,,,,,,,,,,30,3.6477,1,0,29,29,5,1,5,×,6,5 × 6,neutral,smallerFirst,1.5,1.5,30,,,,,,,,
,,,,,,,,,,,,,,,756,2022-01-22_11h30.15.837,multiplicationStroop,2021.2.3,Win32,59.31549914,,,,,,,,,,,,,,,,,,,,,,,,,,,,,,,,,27,2.3943,1,0,30,30,0,1,3,×,9,3 × 9,neutral,smallerFirst,1.5,1.5,27,,,,,,,,
,,,,,,,,,,,,,,,756,2022-01-22_11h30.15.837,multiplicationStroop,2021.2.3,Win32,59.31549914,,,,,,,,,,,,,,,,,,,,,,,,,,,,,,,,,6,1.6094,1,0,31,31,12,1,2,×,3,2 × 3,neutral,smallerFirst,1.5,1.5,6,,,,,,,,
,,,,,,,,,,,,,,,756,2022-01-22_11h30.15.837,multiplicationStroop,2021.2.3,Win32,59.31549914,,,,,,,,,,,,,,,,,,,,,,,,,,,,,,,,,40,2.099,1,0,32,32,10,1,5,×,8,5 × 8,neutral,smallerFirst,1.5,1.5,40,,,,,,,,
,,,,,,,,,,,,,,,756,2022-01-22_11h30.15.837,multiplicationStroop,2021.2.3,Win32,59.31549914,,,,,,,,,,,,,,,,,,,,,,,,,,,,,,,,,36,2.7648,1,0,33,33,13,1,4,×,9,4 × 9,neutral,smallerFirst,1.5,1.5,36,,,,,,,,
,,,,,,,,,,,,,,,756,2022-01-22_11h30.15.837,multiplicationStroop,2021.2.3,Win32,59.31549914,,,,,,,,,,,,,,,,,,,,,,,,,,,,,,,,,16,1.8989,1,0,34,34,30,1,4,×,4,4 × 4,neutral,tie,1.5,1.5,16,,,,,,,,
,,,,,,,,,,,,,,,756,2022-01-22_11h30.15.837,multiplicationStroop,2021.2.3,Win32,59.31549914,,,,,,,,,,,,,,,,,,,,,,,,,,,,,,,,,12,1.6822,1,0,35,35,7,1,3,×,4,3 × 4,neutral,smallerFirst,1.5,1.5,12,,,,,,,,
,,,,,,,,,,,,,,,756,2022-01-22_11h30.15.837,multiplicationStroop,2021.2.3,Win32,59.31549914,,,,,,,,,,,,,,,,,,,,,,,,,,,,,,,,,,,,,,,,,,,,,,,,,,0,5,5,0,1,stimulusFile/mult_blk1.xlsx,,
,,,,,,,,,,,,,,,756,2022-01-22_11h30.15.837,multiplicationStroop,2021.2.3,Win32,59.31549914,,,,,,,,,,,,,,,,,,,,,,,,,,,,,,,,,,,,,,,,,,,,,,,,,,,,,,,,space,13.2562