welcomeKey_resp.keys,welcomeKey_resp.rt,X Scale,Y Scale,rt_resp_4.keys,rt_resp_4.corr,rt_resp_4.rt,speedtest_2.thisRepN,speedtest_2.thisTrialN,speedtest_2.thisN,speedtest_2.thisIndex,speedtest_2.ran,numberSc,posX,positionLayout,participant,date,expName,psychopyVersion,OS,frameRate,ct_instrresp.keys,ct_instrresp.rt,key_resp_2.keys,key_resp_2.rt,ct_keyResp.keys,ct_keyResp.corr,ct_keyResp.rt,trials.thisRepN,trials.thisTrialN,trials.thisN,trials.thisIndex,trials.ran,leftNo,rightNo,displayProblem,numDistance,leftNo_size,rightNo_size,Dims,keyAnswer,TS_Loop.thisRepN,TS_Loop.thisTrialN,TS_Loop.thisN,TS_Loop.thisIndex,TS_Loop.ran,Condition,ActionInst,instrImage,mltptaskInst_resp.keys,mltptaskInst_resp.rt,continue_resp_2.keys,continue_resp_2.rt,multp_Answer,multi_RT,multiplyCorr,LoopingMultiply.thisRepN,LoopingMultiply.thisTrialN,LoopingMultiply.thisN,LoopingMultiply.thisIndex,LoopingMultiply.ran,factor1,multiplySign,factor2,multliplyProblem,physicalSize,orderOperand,sizeF1,sizeF2,mult_answer,trials_stroop.thisRepN,trials_stroop.thisTrialN,trials_stroop.thisN,trials_stroop.thisIndex,trials_stroop.ran,multiplicationFile,esckey_resp_2.keys,esckey_resp_2.rt
y,41.2175,50.5,50.2,left,1,0.7713,0,0,0,2,1,3,-200,left,758,2022-01-20_15h15.20.607,multiplicationStroop,2021.2.3,Win32,59.95922773,,,,,,,,,,,,,,,,,,,,,,,,,,,,,,,,,,,,,,,,,,,,,,,,,,,,,,,,,
,,,,right,1,0.5542,0,1,1,8,1,1,200,right,758,2022-01-20_15h15.20.607,multiplicationStroop,2021.2.3,Win32,59.95922773,,,,,,,,,,,,,,,,,,,,,,,,,,,,,,,,,,,,,,,,,,,,,,,,,,,,,,,,,
,,,,left,1,0.4678,0,2,2,7,1,9,-200,left,758,2022-01-20_15h15.20.607,multiplicationStroop,2021.2.3,Win32,59.95922773,,,,,,,,,,,,,,,,,,,,,,,,,,,,,,,,,,,,,,,,,,,,,,,,,,,,,,,,,
,,,,right,1,0.3439,0,3,3,15,1,9,200,right,758,2022-01-20_15h15.20.607,multiplicationStroop,2021.2.3,Win32,59.95922773,,,,,,,,,,,,,,,,,,,,,,,,,,,,,,,,,,,,,,,,,,,,,,,,,,,,,,,,,
,,,,left,1,0.3072,0,4,4,4,1,6,-200,left,758,2022-01-20_15h15.20.607,multiplicationStroop,2021.2.3,Win32,59.95922773,,,,,,,,,,,,,,,,,,,,,,,,,,,,,,,,,,,,,,,,,,,,,,,,,,,,,,,,,
,,,,left,1,0.4793,0,5,5,1,1,2,-200,left,758,2022-01-20_15h15.20.607,multiplicationStroop,2021.2.3,Win32,59.95922773,,,,,,,,,,,,,,,,,,,,,,,,,,,,,,,,,,,,,,,,,,,,,,,,,,,,,,,,,
,,,,right,1,0.312,0,6,6,9,1,2,200,right,758,2022-01-20_15h15.20.607,multiplicationStroop,2021.2.3,Win32,59.95922773,,,,,,,,,,,,,,,,,,,,,,,,,,,,,,,,,,,,,,,,,,,,,,,,,,,,,,,,,
,,,,left,1,0.2719,0,7,7,5,1,7,-200,left,758,2022-01-20_15h15.20.607,multiplicationStroop,2021.2.3,Win32,59.95922773,,,,,,,,,,,,,,,,,,,,,,,,,,,,,,,,,,,,,,,,,,,,,,,,,,,,,,,,,
,,,,right,0,0.3743,0,8,8,3,1,4,-200,left,758,2022-01-20_15h15.20.607,multiplicationStroop,2021.2.3,Win32,59.95922773,,,,,,,,,,,,,,,,,,,,,,,,,,,,,,,,,,,,,,,,,,,,,,,,,,,,,,,,,
,,,,right,1,0.4396,0,9,9,12,1,6,200,right,758,2022-01-20_15h15.20.607,multiplicationStroop,2021.2.3,Win32,59.95922773,,,,,,,,,,,,,,,,,,,,,,,,,,,,,,,,,,,,,,,,,,,,,,,,,,,,,,,,,
,,,,right,1,0.452,0,10,10,13,1,7,200,right,758,2022-01-20_15h15.20.607,multiplicationStroop,2021.2.3,Win32,59.95922773,,,,,,,,,,,,,,,,,,,,,,,,,,,,,,,,,,,,,,,,,,,,,,,,,,,,,,,,,
,,,,left,1,0.3154,0,11,11,6,1,8,-200,left,758,2022-01-20_15h15.20.607,multiplicationStroop,2021.2.3,Win32,59.95922773,,,,,,,,,,,,,,,,,,,,,,,,,,,,,,,,,,,,,,,,,,,,,,,,,,,,,,,,,
,,,,right,1,0.3005,0,12,12,14,1,8,200,right,758,2022-01-20_15h15.20.607,multiplicationStroop,2021.2.3,Win32,59.95922773,,,,,,,,,,,,,,,,,,,,,,,,,,,,,,,,,,,,,,,,,,,,,,,,,,,,,,,,,
,,,,right,1,0.613,0,13,13,11,1,4,200,right,758,2022-01-20_15h15.20.607,multiplicationStroop,2021.2.3,Win32,59.95922773,,,,,,,,,,,,,,,,,,,,,,,,,,,,,,,,,,,,,,,,,,,,,,,,,,,,,,,,,
,,,,left,1,0.3571,0,14,14,0,1,1,-200,left,758,2022-01-20_15h15.20.607,multiplicationStroop,2021.2.3,Win32,59.95922773,,,,,,,,,,,,,,,,,,,,,,,,,,,,,,,,,,,,,,,,,,,,,,,,,,,,,,,,,
,,,,right,1,0.3353,0,15,15,10,1,3,200,right,758,2022-01-20_15h15.20.607,multiplicationStroop,2021.2.3,Win32,59.95922773,,,,,,,,,,,,,,,,,,,,,,,,,,,,,,,,,,,,,,,,,,,,,,,,,,,,,,,,,
,,,,left,1,0.2519,1,0,16,0,1,1,-200,left,758,2022-01-20_15h15.20.607,multiplicationStroop,2021.2.3,Win32,59.95922773,,,,,,,,,,,,,,,,,,,,,,,,,,,,,,,,,,,,,,,,,,,,,,,,,,,,,,,,,
,,,,left,1,0.4154,1,1,17,1,1,2,-200,left,758,2022-01-20_15h15.20.607,multiplicationStroop,2021.2.3,Win32,59.95922773,,,,,,,,,,,,,,,,,,,,,,,,,,,,,,,,,,,,,,,,,,,,,,,,,,,,,,,,,
,,,,left,1,0.354,1,2,18,3,1,4,-200,left,758,2022-01-20_15h15.20.607,multiplicationStroop,2021.2.3,Win32,59.95922773,,,,,,,,,,,,,,,,,,,,,,,,,,,,,,,,,,,,,,,,,,,,,,,,,,,,,,,,,
,,,,left,1,0.3414,1,3,19,6,1,8,-200,left,758,2022-01-20_15h15.20.607,multiplicationStroop,2021.2.3,Win32,59.95922773,,,,,,,,,,,,,,,,,,,,,,,,,,,,,,,,,,,,,,,,,,,,,,,,,,,,,,,,,
,,,,right,1,0.2904,1,4,20,9,1,2,200,right,758,2022-01-20_15h15.20.607,multiplicationStroop,2021.2.3,Win32,59.95922773,,,,,,,,,,,,,,,,,,,,,,,,,,,,,,,,,,,,,,,,,,,,,,,,,,,,,,,,,
,,,,left,1,0.2469,1,5,21,4,1,6,-200,left,758,2022-01-20_15h15.20.607,multiplicationStroop,2021.2.3,Win32,59.95922773,,,,,,,,,,,,,,,,,,,,,,,,,,,,,,,,,,,,,,,,,,,,,,,,,,,,,,,,,
,,,,right,1,0.2613,1,6,22,12,1,6,200,right,758,2022-01-20_15h15.20.607,multiplicationStroop,2021.2.3,Win32,59.95922773,,,,,,,,,,,,,,,,,,,,,,,,,,,,,,,,,,,,,,,,,,,,,,,,,,,,,,,,,
,,,,right,1,0.5809,1,7,23,10,1,3,200,right,758,2022-01-20_15h15.20.607,multiplicationStroop,2021.2.3,Win32,59.95922773,,,,,,,,,,,,,,,,,,,,,,,,,,,,,,,,,,,,,,,,,,,,,,,,,,,,,,,,,
,,,,left,1,0.2972,1,8,24,7,1,9,-200,left,758,2022-01-20_15h15.20.607,multiplicationStroop,2021.2.3,Win32,59.95922773,,,,,,,,,,,,,,,,,,,,,,,,,,,,,,,,,,,,,,,,,,,,,,,,,,,,,,,,,
,,,,right,1,0.3332,1,9,25,15,1,9,200,right,758,2022-01-20_15h15.20.607,multiplicationStroop,2021.2.3,Win32,59.95922773,,,,,,,,,,,,,,,,,,,,,,,,,,,,,,,,,,,,,,,,,,,,,,,,,,,,,,,,,
,,,,right,1,0.4745,1,10,26,14,1,8,200,right,758,2022-01-20_15h15.20.607,multiplicationStroop,2021.2.3,Win32,59.95922773,,,,,,,,,,,,,,,,,,,,,,,,,,,,,,,,,,,,,,,,,,,,,,,,,,,,,,,,,
,,,,right,1,0.4409,1,11,27,11,1,4,200,right,758,2022-01-20_15h15.20.607,multiplicationStroop,2021.2.3,Win32,59.95922773,,,,,,,,,,,,,,,,,,,,,,,,,,,,,,,,,,,,,,,,,,,,,,,,,,,,,,,,,
,,,,right,1,0.4425,1,12,28,13,1,7,200,right,758,2022-01-20_15h15.20.607,multiplicationStroop,2021.2.3,Win32,59.95922773,,,,,,,,,,,,,,,,,,,,,,,,,,,,,,,,,,,,,,,,,,,,,,,,,,,,,,,,,
,,,,right,1,0.3622,1,13,29,8,1,1,200,right,758,2022-01-20_15h15.20.607,multiplicationStroop,2021.2.3,Win32,59.95922773,,,,,,,,,,,,,,,,,,,,,,,,,,,,,,,,,,,,,,,,,,,,,,,,,,,,,,,,,
,,,,left,1,0.6812,1,14,30,2,1,3,-200,left,758,2022-01-20_15h15.20.607,multiplicationStroop,2021.2.3,Win32,59.95922773,,,,,,,,,,,,,,,,,,,,,,,,,,,,,,,,,,,,,,,,,,,,,,,,,,,,,,,,,
,,,,left,1,0.4614,1,15,31,5,1,7,-200,left,758,2022-01-20_15h15.20.607,multiplicationStroop,2021.2.3,Win32,59.95922773,,,,,,,,,,,,,,,,,,,,,,,,,,,,,,,,,,,,,,,,,,,,,,,,,,,,,,,,,
,,,,right,1,0.4289,2,0,32,12,1,6,200,right,758,2022-01-20_15h15.20.607,multiplicationStroop,2021.2.3,Win32,59.95922773,,,,,,,,,,,,,,,,,,,,,,,,,,,,,,,,,,,,,,,,,,,,,,,,,,,,,,,,,
,,,,left,1,0.5857,2,1,33,2,1,3,-200,left,758,2022-01-20_15h15.20.607,multiplicationStroop,2021.2.3,Win32,59.95922773,,,,,,,,,,,,,,,,,,,,,,,,,,,,,,,,,,,,,,,,,,,,,,,,,,,,,,,,,
,,,,right,1,0.4199,2,2,34,10,1,3,200,right,758,2022-01-20_15h15.20.607,multiplicationStroop,2021.2.3,Win32,59.95922773,,,,,,,,,,,,,,,,,,,,,,,,,,,,,,,,,,,,,,,,,,,,,,,,,,,,,,,,,
,,,,left,1,0.3362,2,3,35,3,1,4,-200,left,758,2022-01-20_15h15.20.607,multiplicationStroop,2021.2.3,Win32,59.95922773,,,,,,,,,,,,,,,,,,,,,,,,,,,,,,,,,,,,,,,,,,,,,,,,,,,,,,,,,
,,,,left,1,0.357,2,4,36,0,1,1,-200,left,758,2022-01-20_15h15.20.607,multiplicationStroop,2021.2.3,Win32,59.95922773,,,,,,,,,,,,,,,,,,,,,,,,,,,,,,,,,,,,,,,,,,,,,,,,,,,,,,,,,
,,,,left,1,0.3143,2,5,37,4,1,6,-200,left,758,2022-01-20_15h15.20.607,multiplicationStroop,2021.2.3,Win32,59.95922773,,,,,,,,,,,,,,,,,,,,,,,,,,,,,,,,,,,,,,,,,,,,,,,,,,,,,,,,,
,,,,right,1,0.4231,2,6,38,13,1,7,200,right,758,2022-01-20_15h15.20.607,multiplicationStroop,2021.2.3,Win32,59.95922773,,,,,,,,,,,,,,,,,,,,,,,,,,,,,,,,,,,,,,,,,,,,,,,,,,,,,,,,,
,,,,left,1,0.3487,2,7,39,5,1,7,-200,left,758,2022-01-20_15h15.20.607,multiplicationStroop,2021.2.3,Win32,59.95922773,,,,,,,,,,,,,,,,,,,,,,,,,,,,,,,,,,,,,,,,,,,,,,,,,,,,,,,,,
,,,,right,1,0.4415,2,8,40,14,1,8,200,right,758,2022-01-20_15h15.20.607,multiplicationStroop,2021.2.3,Win32,59.95922773,,,,,,,,,,,,,,,,,,,,,,,,,,,,,,,,,,,,,,,,,,,,,,,,,,,,,,,,,
,,,,right,1,0.3827,2,9,41,11,1,4,200,right,758,2022-01-20_15h15.20.607,multiplicationStroop,2021.2.3,Win32,59.95922773,,,,,,,,,,,,,,,,,,,,,,,,,,,,,,,,,,,,,,,,,,,,,,,,,,,,,,,,,
,,,,left,1,0.5109,2,10,42,6,1,8,-200,left,758,2022-01-20_15h15.20.607,multiplicationStroop,2021.2.3,Win32,59.95922773,,,,,,,,,,,,,,,,,,,,,,,,,,,,,,,,,,,,,,,,,,,,,,,,,,,,,,,,,
,,,,left,1,0.2983,2,11,43,7,1,9,-200,left,758,2022-01-20_15h15.20.607,multiplicationStroop,2021.2.3,Win32,59.95922773,,,,,,,,,,,,,,,,,,,,,,,,,,,,,,,,,,,,,,,,,,,,,,,,,,,,,,,,,
,,,,left,1,0.3189,2,12,44,1,1,2,-200,left,758,2022-01-20_15h15.20.607,multiplicationStroop,2021.2.3,Win32,59.95922773,,,,,,,,,,,,,,,,,,,,,,,,,,,,,,,,,,,,,,,,,,,,,,,,,,,,,,,,,
,,,,right,1,0.4064,2,13,45,9,1,2,200,right,758,2022-01-20_15h15.20.607,multiplicationStroop,2021.2.3,Win32,59.95922773,,,,,,,,,,,,,,,,,,,,,,,,,,,,,,,,,,,,,,,,,,,,,,,,,,,,,,,,,
,,,,right,1,0.2906,2,14,46,15,1,9,200,right,758,2022-01-20_15h15.20.607,multiplicationStroop,2021.2.3,Win32,59.95922773,,,,,,,,,,,,,,,,,,,,,,,,,,,,,,,,,,,,,,,,,,,,,,,,,,,,,,,,,
,,,,right,1,0.3365,2,15,47,8,1,1,200,right,758,2022-01-20_15h15.20.607,multiplicationStroop,2021.2.3,Win32,59.95922773,,,,,,,,,,,,,,,,,,,,,,,,,,,,,,,,,,,,,,,,,,,,,,,,,,,,,,,,,
,,,,left,1,0.3746,3,0,48,0,1,1,-200,left,758,2022-01-20_15h15.20.607,multiplicationStroop,2021.2.3,Win32,59.95922773,,,,,,,,,,,,,,,,,,,,,,,,,,,,,,,,,,,,,,,,,,,,,,,,,,,,,,,,,
,,,,right,1,0.3589,3,1,49,9,1,2,200,right,758,2022-01-20_15h15.20.607,multiplicationStroop,2021.2.3,Win32,59.95922773,,,,,,,,,,,,,,,,,,,,,,,,,,,,,,,,,,,,,,,,,,,,,,,,,,,,,,,,,
,,,,right,1,0.4514,3,2,50,14,1,8,200,right,758,2022-01-20_15h15.20.607,multiplicationStroop,2021.2.3,Win32,59.95922773,,,,,,,,,,,,,,,,,,,,,,,,,,,,,,,,,,,,,,,,,,,,,,,,,,,,,,,,,
,,,,right,1,0.3412,3,3,51,10,1,3,200,right,758,2022-01-20_15h15.20.607,multiplicationStroop,2021.2.3,Win32,59.95922773,,,,,,,,,,,,,,,,,,,,,,,,,,,,,,,,,,,,,,,,,,,,,,,,,,,,,,,,,
,,,,left,1,0.321,3,4,52,1,1,2,-200,left,758,2022-01-20_15h15.20.607,multiplicationStroop,2021.2.3,Win32,59.95922773,,,,,,,,,,,,,,,,,,,,,,,,,,,,,,,,,,,,,,,,,,,,,,,,,,,,,,,,,
,,,,left,1,0.3715,3,5,53,3,1,4,-200,left,758,2022-01-20_15h15.20.607,multiplicationStroop,2021.2.3,Win32,59.95922773,,,,,,,,,,,,,,,,,,,,,,,,,,,,,,,,,,,,,,,,,,,,,,,,,,,,,,,,,
,,,,left,1,0.3196,3,6,54,5,1,7,-200,left,758,2022-01-20_15h15.20.607,multiplicationStroop,2021.2.3,Win32,59.95922773,,,,,,,,,,,,,,,,,,,,,,,,,,,,,,,,,,,,,,,,,,,,,,,,,,,,,,,,,
,,,,right,1,0.2818,3,7,55,15,1,9,200,right,758,2022-01-20_15h15.20.607,multiplicationStroop,2021.2.3,Win32,59.95922773,,,,,,,,,,,,,,,,,,,,,,,,,,,,,,,,,,,,,,,,,,,,,,,,,,,,,,,,,
,,,,left,1,0.3049,3,8,56,7,1,9,-200,left,758,2022-01-20_15h15.20.607,multiplicationStroop,2021.2.3,Win32,59.95922773,,,,,,,,,,,,,,,,,,,,,,,,,,,,,,,,,,,,,,,,,,,,,,,,,,,,,,,,,
,,,,left,1,0.3864,3,9,57,4,1,6,-200,left,758,2022-01-20_15h15.20.607,multiplicationStroop,2021.2.3,Win32,59.95922773,,,,,,,,,,,,,,,,,,,,,,,,,,,,,,,,,,,,,,,,,,,,,,,,,,,,,,,,,
,,,,right,1,0.3421,3,10,58,11,1,4,200,right,758,2022-01-20_15h15.20.607,multiplicationStroop,2021.2.3,Win32,59.95922773,,,,,,,,,,,,,,,,,,,,,,,,,,,,,,,,,,,,,,,,,,,,,,,,,,,,,,,,,
,,,,right,1,0.4097,3,11,59,13,1,7,200,right,758,2022-01-20_15h15.20.607,multiplicationStroop,2021.2.3,Win32,59.95922773,,,,,,,,,,,,,,,,,,,,,,,,,,,,,,,,,,,,,,,,,,,,,,,,,,,,,,,,,
,,,,right,1,0.2888,3,12,60,8,1,1,200,right,758,2022-01-20_15h15.20.607,multiplicationStroop,2021.2.3,Win32,59.95922773,,,,,,,,,,,,,,,,,,,,,,,,,,,,,,,,,,,,,,,,,,,,,,,,,,,,,,,,,
,,,,left,1,0.4247,3,13,61,2,1,3,-200,left,758,2022-01-20_15h15.20.607,multiplicationStroop,2021.2.3,Win32,59.95922773,,,,,,,,,,,,,,,,,,,,,,,,,,,,,,,,,,,,,,,,,,,,,,,,,,,,,,,,,
,,,,left,1,0.3302,3,14,62,6,1,8,-200,left,758,2022-01-20_15h15.20.607,multiplicationStroop,2021.2.3,Win32,59.95922773,,,,,,,,,,,,,,,,,,,,,,,,,,,,,,,,,,,,,,,,,,,,,,,,,,,,,,,,,
,,,,right,1,0.4401,3,15,63,12,1,6,200,right,758,2022-01-20_15h15.20.607,multiplicationStroop,2021.2.3,Win32,59.95922773,,,,,,,,,,,,,,,,,,,,,,,,,,,,,,,,,,,,,,,,,,,,,,,,,,,,,,,,,
,,,,,,,,,,,,,,,758,2022-01-20_15h15.20.607,multiplicationStroop,2021.2.3,Win32,59.95922773,space,286.3756,space,32.2261,left,1,2.3332,0,0,0,51,1,8,8,8 | 8,0,1.9756,1.4111,neutral,left,,,,,,stimulusFile/physical.xlsx,,,,,,,,,,,,,,,,,,,,,,,,,,,,,,,
,,,,,,,,,,,,,,,758,2022-01-20_15h15.20.607,multiplicationStroop,2021.2.3,Win32,59.95922773,,,,,right,1,0.3895,0,1,1,16,1,1,6,1 | 6,5,1.4111,1.9756,congruent,right,,,,,,stimulusFile/physical.xlsx,,,,,,,,,,,,,,,,,,,,,,,,,,,,,,,
,,,,,,,,,,,,,,,758,2022-01-20_15h15.20.607,multiplicationStroop,2021.2.3,Win32,59.95922773,,,,,right,0,0.7079,0,2,2,69,1,7,7,7 | 7,0,1.4111,1.9756,neutral,left,,,,,,stimulusFile/physical.xlsx,,,,,,,,,,,,,,,,,,,,,,,,,,,,,,,
,,,,,,,,,,,,,,,758,2022-01-20_15h15.20.607,multiplicationStroop,2021.2.3,Win32,59.95922773,,,,,left,1,0.4999,0,3,3,40,1,1,6,1 | 6,5,1.9756,1.4111,incongruent,left,,,,,,stimulusFile/physical.xlsx,,,,,,,,,,,,,,,,,,,,,,,,,,,,,,,
,,,,,,,,,,,,,,,758,2022-01-20_15h15.20.607,multiplicationStroop,2021.2.3,Win32,59.95922773,,,,,left,0,0.4781,0,4,4,64,1,1,1,1 | 1,0,1.9756,1.4111,neutral,right,,,,,,stimulusFile/physical.xlsx,,,,,,,,,,,,,,,,,,,,,,,,,,,,,,,
,,,,,,,,,,,,,,,758,2022-01-20_15h15.20.607,multiplicationStroop,2021.2.3,Win32,59.95922773,,,,,right,1,0.5962,0,5,5,62,1,8,8,8 | 8,0,1.4111,1.9756,neutral,right,,,,,,stimulusFile/physical.xlsx,,,,,,,,,,,,,,,,,,,,,,,,,,,,,,,
,,,,,,,,,,,,,,,758,2022-01-20_15h15.20.607,multiplicationStroop,2021.2.3,Win32,59.95922773,,,,,left,1,0.5835,0,6,6,26,1,6,7,6 | 7,1,1.9756,1.4111,incongruent,left,,,,,,stimulusFile/physical.xlsx,,,,,,,,,,,,,,,,,,,,,,,,,,,,,,,
,,,,,,,,,,,,,,,758,2022-01-20_15h15.20.607,multiplicationStroop,2021.2.3,Win32,59.95922773,,,,,left,1,0.5256,0,7,7,22,1,8,3,8 | 3,5,1.9756,1.4111,congruent,left,,,,,,stimulusFile/physical.xlsx,,,,,,,,,,,,,,,,,,,,,,,,,,,,,,,
,,,,,,,,,,,,,,,758,2022-01-20_15h15.20.607,multiplicationStroop,2021.2.3,Win32,59.95922773,,,,,right,1,0.6057,0,8,8,8,1,1,3,1 | 3,2,1.4111,1.9756,congruent,right,,,,,,stimulusFile/physical.xlsx,,,,,,,,,,,,,,,,,,,,,,,,,,,,,,,
,,,,,,,,,,,,,,,758,2022-01-20_15h15.20.607,multiplicationStroop,2021.2.3,Win32,59.95922773,,,,,right,1,0.8389,0,9,9,44,1,6,1,6 | 1,5,1.4111,1.9756,incongruent,right,,,,,,stimulusFile/physical.xlsx,,,,,,,,,,,,,,,,,,,,,,,,,,,,,,,
,,,,,,,,,,,,,,,758,2022-01-20_15h15.20.607,multiplicationStroop,2021.2.3,Win32,59.95922773,,,,,right,1,0.606,0,10,10,39,1,9,7,9 | 7,2,1.4111,1.9756,incongruent,right,,,,,,stimulusFile/physical.xlsx,,,,,,,,,,,,,,,,,,,,,,,,,,,,,,,
,,,,,,,,,,,,,,,758,2022-01-20_15h15.20.607,multiplicationStroop,2021.2.3,Win32,59.95922773,,,,,left,1,0.5474,0,11,11,23,1,9,4,9 | 4,5,1.9756,1.4111,congruent,left,,,,,,stimulusFile/physical.xlsx,,,,,,,,,,,,,,,,,,,,,,,,,,,,,,,
,,,,,,,,,,,,,,,758,2022-01-20_15h15.20.607,multiplicationStroop,2021.2.3,Win32,59.95922773,,,,,left,1,0.5195,0,12,12,54,1,7,7,7 | 7,0,1.9756,1.4111,neutral,left,,,,,,stimulusFile/physical.xlsx,,,,,,,,,,,,,,,,,,,,,,,,,,,,,,,
,,,,,,,,,,,,,,,758,2022-01-20_15h15.20.607,multiplicationStroop,2021.2.3,Win32,59.95922773,,,,,right,1,0.7189,0,13,13,30,1,7,6,7 | 6,1,1.4111,1.9756,incongruent,right,,,,,,stimulusFile/physical.xlsx,,,,,,,,,,,,,,,,,,,,,,,,,,,,,,,
,,,,,,,,,,,,,,,758,2022-01-20_15h15.20.607,multiplicationStroop,2021.2.3,Win32,59.95922773,,,,,right,1,0.5849,0,14,14,45,1,7,2,7 | 2,5,1.4111,1.9756,incongruent,right,,,,,,stimulusFile/physical.xlsx,,,,,,,,,,,,,,,,,,,,,,,,,,,,,,,
,,,,,,,,,,,,,,,758,2022-01-20_15h15.20.607,multiplicationStroop,2021.2.3,Win32,59.95922773,,,,,left,1,0.4852,0,15,15,5,1,4,3,4 | 3,1,1.9756,1.4111,congruent,left,,,,,,stimulusFile/physical.xlsx,,,,,,,,,,,,,,,,,,,,,,,,,,,,,,,
,,,,,,,,,,,,,,,758,2022-01-20_15h15.20.607,multiplicationStroop,2021.2.3,Win32,59.95922773,,,,,right,1,0.5681,0,16,16,9,1,2,4,2 | 4,2,1.4111,1.9756,congruent,right,,,,,,stimulusFile/physical.xlsx,,,,,,,,,,,,,,,,,,,,,,,,,,,,,,,
,,,,,,,,,,,,,,,758,2022-01-20_15h15.20.607,multiplicationStroop,2021.2.3,Win32,59.95922773,,,,,right,1,0.6177,0,17,17,3,1,8,9,8 | 9,1,1.4111,1.9756,congruent,right,,,,,,stimulusFile/physical.xlsx,,,,,,,,,,,,,,,,,,,,,,,,,,,,,,,
,,,,,,,,,,,,,,,758,2022-01-20_15h15.20.607,multiplicationStroop,2021.2.3,Win32,59.95922773,,,,,left,1,0.5902,0,18,18,68,1,6,6,6 | 6,0,1.9756,1.4111,neutral,left,,,,,,stimulusFile/physical.xlsx,,,,,,,,,,,,,,,,,,,,,,,,,,,,,,,
,,,,,,,,,,,,,,,758,2022-01-20_15h15.20.607,multiplicationStroop,2021.2.3,Win32,59.95922773,,,,,right,1,0.5285,0,19,19,36,1,3,1,3 | 1,2,1.4111,1.9756,incongruent,right,,,,,,stimulusFile/physical.xlsx,,,,,,,,,,,,,,,,,,,,,,,,,,,,,,,
,,,,,,,,,,,,,,,758,2022-01-20_15h15.20.607,multiplicationStroop,2021.2.3,Win32,59.95922773,,,,,right,1,0.6938,0,20,20,47,1,9,4,9 | 4,5,1.4111,1.9756,incongruent,right,,,,,,stimulusFile/physical.xlsx,,,,,,,,,,,,,,,,,,,,,,,,,,,,,,,
,,,,,,,,,,,,,,,758,2022-01-20_15h15.20.607,multiplicationStroop,2021.2.3,Win32,59.95922773,,,,,right,1,0.6616,0,21,21,61,1,4,4,4 | 4,0,1.4111,1.9756,neutral,right,,,,,,stimulusFile/physical.xlsx,,,,,,,,,,,,,,,,,,,,,,,,,,,,,,,
,,,,,,,,,,,,,,,758,2022-01-20_15h15.20.607,multiplicationStroop,2021.2.3,Win32,59.95922773,,,,,left,1,0.5125,0,22,22,24,1,1,2,1 | 2,1,1.9756,1.4111,incongruent,left,,,,,,stimulusFile/physical.xlsx,,,,,,,,,,,,,,,,,,,,,,,,,,,,,,,
,,,,,,,,,,,,,,,758,2022-01-20_15h15.20.607,multiplicationStroop,2021.2.3,Win32,59.95922773,,,,,right,1,1.0465,0,23,23,59,1,7,7,7 | 7,0,1.4111,1.9756,neutral,right,,,,,,stimulusFile/physical.xlsx,,,,,,,,,,,,,,,,,,,,,,,,,,,,,,,
,,,,,,,,,,,,,,,758,2022-01-20_15h15.20.607,multiplicationStroop,2021.2.3,Win32,59.95922773,,,,,left,1,0.4616,0,24,24,14,1,8,6,8 | 6,2,1.9756,1.4111,congruent,left,,,,,,stimulusFile/physical.xlsx,,,,,,,,,,,,,,,,,,,,,,,,,,,,,,,
,,,,,,,,,,,,,,,758,2022-01-20_15h15.20.607,multiplicationStroop,2021.2.3,Win32,59.95922773,,,,,left,1,0.6069,0,25,25,55,1,9,9,9 | 9,0,1.9756,1.4111,neutral,left,,,,,,stimulusFile/physical.xlsx,,,,,,,,,,,,,,,,,,,,,,,,,,,,,,,
,,,,,,,,,,,,,,,758,2022-01-20_15h15.20.607,multiplicationStroop,2021.2.3,Win32,59.95922773,,,,,right,1,0.6679,0,26,26,46,1,8,3,8 | 3,5,1.4111,1.9756,incongruent,right,,,,,,stimulusFile/physical.xlsx,,,,,,,,,,,,,,,,,,,,,,,,,,,,,,,
,,,,,,,,,,,,,,,758,2022-01-20_15h15.20.607,multiplicationStroop,2021.2.3,Win32,59.95922773,,,,,left,0,0.4911,0,27,27,66,1,3,3,3 | 3,0,1.9756,1.4111,neutral,right,,,,,,stimulusFile/physical.xlsx,,,,,,,,,,,,,,,,,,,,,,,,,,,,,,,
,,,,,,,,,,,,,,,758,2022-01-20_15h15.20.607,multiplicationStroop,2021.2.3,Win32,59.95922773,,,,,right,1,0.5404,0,28,28,65,1,2,2,2 | 2,0,1.4111,1.9756,neutral,right,,,,,,stimulusFile/physical.xlsx,,,,,,,,,,,,,,,,,,,,,,,,,,,,,,,
,,,,,,,,,,,,,,,758,2022-01-20_15h15.20.607,multiplicationStroop,2021.2.3,Win32,59.95922773,,,,,right,1,0.6879,0,29,29,17,1,2,7,2 | 7,5,1.4111,1.9756,congruent,right,,,,,,stimulusFile/physical.xlsx,,,,,,,,,,,,,,,,,,,,,,,,,,,,,,,
,,,,,,,,,,,,,,,758,2022-01-20_15h15.20.607,multiplicationStroop,2021.2.3,Win32,59.95922773,,,,,right,1,0.5901,0,30,30,28,1,2,1,2 | 1,1,1.4111,1.9756,incongruent,right,,,,,,stimulusFile/physical.xlsx,,,,,,,,,,,,,,,,,,,,,,,,,,,,,,,
,,,,,,,,,,,,,,,758,2022-01-20_15h15.20.607,multiplicationStroop,2021.2.3,Win32,59.95922773,,,,,right,1,0.7549,0,31,31,38,1,8,6,8 | 6,2,1.4111,1.9756,incongruent,right,,,,,,stimulusFile/physical.xlsx,,,,,,,,,,,,,,,,,,,,,,,,,,,,,,,
,,,,,,,,,,,,,,,758,2022-01-20_15h15.20.607,multiplicationStroop,2021.2.3,Win32,59.95922773,,,,,right,1,0.4579,0,32,32,67,1,4,4,4 | 4,0,1.4111,1.9756,neutral,right,,,,,,stimulusFile/physical.xlsx,,,,,,,,,,,,,,,,,,,,,,,,,,,,,,,
,,,,,,,,,,,,,,,758,2022-01-20_15h15.20.607,multiplicationStroop,2021.2.3,Win32,59.95922773,,,,,right,1,0.7307,0,33,33,2,1,6,7,6 | 7,1,1.4111,1.9756,congruent,right,,,,,,stimulusFile/physical.xlsx,,,,,,,,,,,,,,,,,,,,,,,,,,,,,,,
,,,,,,,,,,,,,,,758,2022-01-20_15h15.20.607,multiplicationStroop,2021.2.3,Win32,59.95922773,,,,,right,1,0.6296,0,34,34,18,1,3,8,3 | 8,5,1.4111,1.9756,congruent,right,,,,,,stimulusFile/physical.xlsx,,,,,,,,,,,,,,,,,,,,,,,,,,,,,,,
,,,,,,,,,,,,,,,758,2022-01-20_15h15.20.607,multiplicationStroop,2021.2.3,Win32,59.95922773,,,,,left,1,0.6039,0,35,35,52,1,2,2,2 | 2,0,1.9756,1.4111,neutral,left,,,,,,stimulusFile/physical.xlsx,,,,,,,,,,,,,,,,,,,,,,,,,,,,,,,
,,,,,,,,,,,,,,,758,2022-01-20_15h15.20.607,multiplicationStroop,2021.2.3,Win32,59.95922773,,,,,right,1,0.5082,0,36,36,56,1,1,1,1 | 1,0,1.4111,1.9756,neutral,right,,,,,,stimulusFile/physical.xlsx,,,,,,,,,,,,,,,,,,,,,,,,,,,,,,,
,,,,,,,,,,,,,,,758,2022-01-20_15h15.20.607,multiplicationStroop,2021.2.3,Win32,59.95922773,,,,,left,1,0.4475,0,37,37,43,1,4,9,4 | 9,5,1.9756,1.4111,incongruent,left,,,,,,stimulusFile/physical.xlsx,,,,,,,,,,,,,,,,,,,,,,,,,,,,,,,
,,,,,,,,,,,,,,,758,2022-01-20_15h15.20.607,multiplicationStroop,2021.2.3,Win32,59.95922773,,,,,left,1,0.5203,0,38,38,12,1,3,1,3 | 1,2,1.9756,1.4111,congruent,left,,,,,,stimulusFile/physical.xlsx,,,,,,,,,,,,,,,,,,,,,,,,,,,,,,,
,,,,,,,,,,,,,,,758,2022-01-20_15h15.20.607,multiplicationStroop,2021.2.3,Win32,59.95922773,,,,,right,1,0.5464,0,39,39,57,1,2,2,2 | 2,0,1.4111,1.9756,neutral,right,,,,,,stimulusFile/physical.xlsx,,,,,,,,,,,,,,,,,,,,,,,,,,,,,,,
,,,,,,,,,,,,,,,758,2022-01-20_15h15.20.607,multiplicationStroop,2021.2.3,Win32,59.95922773,,,,,left,1,0.53,0,40,40,20,1,6,1,6 | 1,5,1.9756,1.4111,congruent,left,,,,,,stimulusFile/physical.xlsx,,,,,,,,,,,,,,,,,,,,,,,,,,,,,,,
,,,,,,,,,,,,,,,758,2022-01-20_15h15.20.607,multiplicationStroop,2021.2.3,Win32,59.95922773,,,,,left,1,0.5861,0,41,41,33,1,2,4,2 | 4,2,1.9756,1.4111,incongruent,left,,,,,,stimulusFile/physical.xlsx,,,,,,,,,,,,,,,,,,,,,,,,,,,,,,,
,,,,,,,,,,,,,,,758,2022-01-20_15h15.20.607,multiplicationStroop,2021.2.3,Win32,59.95922773,,,,,left,1,0.5341,0,42,42,6,1,7,6,7 | 6,1,1.9756,1.4111,congruent,left,,,,,,stimulusFile/physical.xlsx,,,,,,,,,,,,,,,,,,,,,,,,,,,,,,,
,,,,,,,,,,,,,,,758,2022-01-20_15h15.20.607,multiplicationStroop,2021.2.3,Win32,59.95922773,,,,,right,1,0.6417,0,43,43,10,1,6,8,6 | 8,2,1.4111,1.9756,congruent,right,,,,,,stimulusFile/physical.xlsx,,,,,,,,,,,,,,,,,,,,,,,,,,,,,,,
,,,,,,,,,,,,,,,758,2022-01-20_15h15.20.607,multiplicationStroop,2021.2.3,Win32,59.95922773,,,,,left,1,0.4009,0,44,44,32,1,1,3,1 | 3,2,1.9756,1.4111,incongruent,left,,,,,,stimulusFile/physical.xlsx,,,,,,,,,,,,,,,,,,,,,,,,,,,,,,,
,,,,,,,,,,,,,,,758,2022-01-20_15h15.20.607,multiplicationStroop,2021.2.3,Win32,59.95922773,,,,,left,1,0.5931,0,45,45,48,1,1,1,1 | 1,0,1.9756,1.4111,neutral,left,,,,,,stimulusFile/physical.xlsx,,,,,,,,,,,,,,,,,,,,,,,,,,,,,,,
,,,,,,,,,,,,,,,758,2022-01-20_15h15.20.607,multiplicationStroop,2021.2.3,Win32,59.95922773,,,,,right,1,0.4847,0,46,46,19,1,4,9,4 | 9,5,1.4111,1.9756,congruent,right,,,,,,stimulusFile/physical.xlsx,,,,,,,,,,,,,,,,,,,,,,,,,,,,,,,
,,,,,,,,,,,,,,,758,2022-01-20_15h15.20.607,multiplicationStroop,2021.2.3,Win32,59.95922773,,,,,right,1,0.6847,0,47,47,29,1,4,3,4 | 3,1,1.4111,1.9756,incongruent,right,,,,,,stimulusFile/physical.xlsx,,,,,,,,,,,,,,,,,,,,,,,,,,,,,,,
,,,,,,,,,,,,,,,758,2022-01-20_15h15.20.607,multiplicationStroop,2021.2.3,Win32,59.95922773,,,,,left,1,0.4771,0,48,48,25,1,3,4,3 | 4,1,1.9756,1.4111,incongruent,left,,,,,,stimulusFile/physical.xlsx,,,,,,,,,,,,,,,,,,,,,,,,,,,,,,,
,,,,,,,,,,,,,,,758,2022-01-20_15h15.20.607,multiplicationStroop,2021.2.3,Win32,59.95922773,,,,,left,1,0.5843,0,49,49,41,1,2,7,2 | 7,5,1.9756,1.4111,incongruent,left,,,,,,stimulusFile/physical.xlsx,,,,,,,,,,,,,,,,,,,,,,,,,,,,,,,
,,,,,,,,,,,,,,,758,2022-01-20_15h15.20.607,multiplicationStroop,2021.2.3,Win32,59.95922773,,,,,right,0,0.5392,0,50,50,71,1,9,9,9 | 9,0,1.4111,1.9756,neutral,left,,,,,,stimulusFile/physical.xlsx,,,,,,,,,,,,,,,,,,,,,,,,,,,,,,,
,,,,,,,,,,,,,,,758,2022-01-20_15h15.20.607,multiplicationStroop,2021.2.3,Win32,59.95922773,,,,,left,1,0.4006,0,51,51,42,1,3,8,3 | 8,5,1.9756,1.4111,incongruent,left,,,,,,stimulusFile/physical.xlsx,,,,,,,,,,,,,,,,,,,,,,,,,,,,,,,
,,,,,,,,,,,,,,,758,2022-01-20_15h15.20.607,multiplicationStroop,2021.2.3,Win32,59.95922773,,,,,left,1,0.5697,0,52,52,21,1,7,2,7 | 2,5,1.9756,1.4111,congruent,left,,,,,,stimulusFile/physical.xlsx,,,,,,,,,,,,,,,,,,,,,,,,,,,,,,,
,,,,,,,,,,,,,,,758,2022-01-20_15h15.20.607,multiplicationStroop,2021.2.3,Win32,59.95922773,,,,,left,1,0.417,0,53,53,13,1,4,2,4 | 2,2,1.9756,1.4111,congruent,left,,,,,,stimulusFile/physical.xlsx,,,,,,,,,,,,,,,,,,,,,,,,,,,,,,,
,,,,,,,,,,,,,,,758,2022-01-20_15h15.20.607,multiplicationStroop,2021.2.3,Win32,59.95922773,,,,,right,1,0.5181,0,54,54,11,1,7,9,7 | 9,2,1.4111,1.9756,congruent,right,,,,,,stimulusFile/physical.xlsx,,,,,,,,,,,,,,,,,,,,,,,,,,,,,,,
,,,,,,,,,,,,,,,758,2022-01-20_15h15.20.607,multiplicationStroop,2021.2.3,Win32,59.95922773,,,,,right,1,0.4908,0,55,55,31,1,9,8,9 | 8,1,1.4111,1.9756,incongruent,right,,,,,,stimulusFile/physical.xlsx,,,,,,,,,,,,,,,,,,,,,,,,,,,,,,,
,,,,,,,,,,,,,,,758,2022-01-20_15h15.20.607,multiplicationStroop,2021.2.3,Win32,59.95922773,,,,,left,1,0.5673,0,56,56,34,1,6,8,6 | 8,2,1.9756,1.4111,incongruent,left,,,,,,stimulusFile/physical.xlsx,,,,,,,,,,,,,,,,,,,,,,,,,,,,,,,
,,,,,,,,,,,,,,,758,2022-01-20_15h15.20.607,multiplicationStroop,2021.2.3,Win32,59.95922773,,,,,right,1,0.5172,0,57,57,60,1,3,3,3 | 3,0,1.4111,1.9756,neutral,right,,,,,,stimulusFile/physical.xlsx,,,,,,,,,,,,,,,,,,,,,,,,,,,,,,,
,,,,,,,,,,,,,,,758,2022-01-20_15h15.20.607,multiplicationStroop,2021.2.3,Win32,59.95922773,,,,,left,1,0.5693,0,58,58,49,1,3,3,3 | 3,0,1.9756,1.4111,neutral,left,,,,,,stimulusFile/physical.xlsx,,,,,,,,,,,,,,,,,,,,,,,,,,,,,,,
,,,,,,,,,,,,,,,758,2022-01-20_15h15.20.607,multiplicationStroop,2021.2.3,Win32,59.95922773,,,,,right,1,0.5281,0,59,59,1,1,3,4,3 | 4,1,1.4111,1.9756,congruent,right,,,,,,stimulusFile/physical.xlsx,,,,,,,,,,,,,,,,,,,,,,,,,,,,,,,
,,,,,,,,,,,,,,,758,2022-01-20_15h15.20.607,multiplicationStroop,2021.2.3,Win32,59.95922773,,,,,right,1,0.5108,0,60,60,0,1,1,2,1 | 2,1,1.4111,1.9756,congruent,right,,,,,,stimulusFile/physical.xlsx,,,,,,,,,,,,,,,,,,,,,,,,,,,,,,,
,,,,,,,,,,,,,,,758,2022-01-20_15h15.20.607,multiplicationStroop,2021.2.3,Win32,59.95922773,,,,,right,1,0.5962,0,61,61,37,1,4,2,4 | 2,2,1.4111,1.9756,incongruent,right,,,,,,stimulusFile/physical.xlsx,,,,,,,,,,,,,,,,,,,,,,,,,,,,,,,
,,,,,,,,,,,,,,,758,2022-01-20_15h15.20.607,multiplicationStroop,2021.2.3,Win32,59.95922773,,,,,left,1,0.5473,0,62,62,50,1,6,6,6 | 6,0,1.9756,1.4111,neutral,left,,,,,,stimulusFile/physical.xlsx,,,,,,,,,,,,,,,,,,,,,,,,,,,,,,,
,,,,,,,,,,,,,,,758,2022-01-20_15h15.20.607,multiplicationStroop,2021.2.3,Win32,59.95922773,,,,,left,1,0.5844,0,63,63,4,1,2,1,2 | 1,1,1.9756,1.4111,congruent,left,,,,,,stimulusFile/physical.xlsx,,,,,,,,,,,,,,,,,,,,,,,,,,,,,,,
,,,,,,,,,,,,,,,758,2022-01-20_15h15.20.607,multiplicationStroop,2021.2.3,Win32,59.95922773,,,,,left,1,1.4055,0,64,64,27,1,8,9,8 | 9,1,1.9756,1.4111,incongruent,left,,,,,,stimulusFile/physical.xlsx,,,,,,,,,,,,,,,,,,,,,,,,,,,,,,,
,,,,,,,,,,,,,,,758,2022-01-20_15h15.20.607,multiplicationStroop,2021.2.3,Win32,59.95922773,,,,,right,1,1.2105,0,65,65,58,1,6,6,6 | 6,0,1.4111,1.9756,neutral,right,,,,,,stimulusFile/physical.xlsx,,,,,,,,,,,,,,,,,,,,,,,,,,,,,,,
,,,,,,,,,,,,,,,758,2022-01-20_15h15.20.607,multiplicationStroop,2021.2.3,Win32,59.95922773,,,,,left,1,0.7269,0,66,66,7,1,9,8,9 | 8,1,1.9756,1.4111,congruent,left,,,,,,stimulusFile/physical.xlsx,,,,,,,,,,,,,,,,,,,,,,,,,,,,,,,
,,,,,,,,,,,,,,,758,2022-01-20_15h15.20.607,multiplicationStroop,2021.2.3,Win32,59.95922773,,,,,left,1,0.5879,0,67,67,35,1,7,9,7 | 9,2,1.9756,1.4111,incongruent,left,,,,,,stimulusFile/physical.xlsx,,,,,,,,,,,,,,,,,,,,,,,,,,,,,,,
,,,,,,,,,,,,,,,758,2022-01-20_15h15.20.607,multiplicationStroop,2021.2.3,Win32,59.95922773,,,,,left,1,0.5029,0,68,68,70,1,8,8,8 | 8,0,1.9756,1.4111,neutral,left,,,,,,stimulusFile/physical.xlsx,,,,,,,,,,,,,,,,,,,,,,,,,,,,,,,
,,,,,,,,,,,,,,,758,2022-01-20_15h15.20.607,multiplicationStroop,2021.2.3,Win32,59.95922773,,,,,left,1,0.5544,0,69,69,15,1,9,7,9 | 7,2,1.9756,1.4111,congruent,left,,,,,,stimulusFile/physical.xlsx,,,,,,,,,,,,,,,,,,,,,,,,,,,,,,,
,,,,,,,,,,,,,,,758,2022-01-20_15h15.20.607,multiplicationStroop,2021.2.3,Win32,59.95922773,,,,,left,1,0.6174,0,70,70,53,1,4,4,4 | 4,0,1.9756,1.4111,neutral,left,,,,,,stimulusFile/physical.xlsx,,,,,,,,,,,,,,,,,,,,,,,,,,,,,,,
,,,,,,,,,,,,,,,758,2022-01-20_15h15.20.607,multiplicationStroop,2021.2.3,Win32,59.95922773,,,,,right,1,0.6665,0,71,71,63,1,9,9,9 | 9,0,1.4111,1.9756,neutral,right,,,,,,stimulusFile/physical.xlsx,,,,,,,,,,,,,,,,,,,,,,,,,,,,,,,
,,,,,,,,,,,,,,,758,2022-01-20_15h15.20.607,multiplicationStroop,2021.2.3,Win32,59.95922773,,,,,,,,,,,,,,,,,,,,,0,0,0,1,1,stimulusFile/physical.xlsx,PHYSICALLY larger (larger font size).,images/physicallyLarger.png,,,,,,,,,,,,,,,,,,,,,,,,,,,,,
,,,,,,,,,,,,,,,758,2022-01-20_15h15.20.607,multiplicationStroop,2021.2.3,Win32,59.95922773,space,5.1598,space,4.9902,right,1,1.6174,0,0,0,1,1,3,4,3 | 4,1,1.4111,1.9756,congruent,right,,,,,,stimulusFile/magnitude.xlsx,,,,,,,,,,,,,,,,,,,,,,,,,,,,,,,
,,,,,,,,,,,,,,,758,2022-01-20_15h15.20.607,multiplicationStroop,2021.2.3,Win32,59.95922773,,,,,right,1,0.9511,0,1,1,57,1,2,4,2 | 4,2,1.6933,1.6933,neutral,right,,,,,,stimulusFile/magnitude.xlsx,,,,,,,,,,,,,,,,,,,,,,,,,,,,,,,
,,,,,,,,,,,,,,,758,2022-01-20_15h15.20.607,multiplicationStroop,2021.2.3,Win32,59.95922773,,,,,left,1,1.1332,0,2,2,63,1,9,7,9 | 7,2,1.6933,1.6933,neutral,left,,,,,,stimulusFile/magnitude.xlsx,,,,,,,,,,,,,,,,,,,,,,,,,,,,,,,
,,,,,,,,,,,,,,,758,2022-01-20_15h15.20.607,multiplicationStroop,2021.2.3,Win32,59.95922773,,,,,left,1,0.7499,0,3,3,21,1,7,2,7 | 2,5,1.9756,1.4111,congruent,left,,,,,,stimulusFile/magnitude.xlsx,,,,,,,,,,,,,,,,,,,,,,,,,,,,,,,
,,,,,,,,,,,,,,,758,2022-01-20_15h15.20.607,multiplicationStroop,2021.2.3,Win32,59.95922773,,,,,left,1,0.92,0,4,4,46,1,8,3,8 | 3,5,1.4111,1.9756,incongruent,left,,,,,,stimulusFile/magnitude.xlsx,,,,,,,,,,,,,,,,,,,,,,,,,,,,,,,
,,,,,,,,,,,,,,,758,2022-01-20_15h15.20.607,multiplicationStroop,2021.2.3,Win32,59.95922773,,,,,left,1,0.8628,0,5,5,39,1,9,7,9 | 7,2,1.4111,1.9756,incongruent,left,,,,,,stimulusFile/magnitude.xlsx,,,,,,,,,,,,,,,,,,,,,,,,,,,,,,,
,,,,,,,,,,,,,,,758,2022-01-20_15h15.20.607,multiplicationStroop,2021.2.3,Win32,59.95922773,,,,,left,1,1.3165,0,6,6,53,1,4,3,4 | 3,1,1.6933,1.6933,neutral,left,,,,,,stimulusFile/magnitude.xlsx,,,,,,,,,,,,,,,,,,,,,,,,,,,,,,,
,,,,,,,,,,,,,,,758,2022-01-20_15h15.20.607,multiplicationStroop,2021.2.3,Win32,59.95922773,,,,,right,1,0.875,0,7,7,18,1,3,8,3 | 8,5,1.4111,1.9756,congruent,right,,,,,,stimulusFile/magnitude.xlsx,,,,,,,,,,,,,,,,,,,,,,,,,,,,,,,
,,,,,,,,,,,,,,,758,2022-01-20_15h15.20.607,multiplicationStroop,2021.2.3,Win32,59.95922773,,,,,left,1,2.195,0,8,8,28,1,2,1,2 | 1,1,1.4111,1.9756,incongruent,left,,,,,,stimulusFile/magnitude.xlsx,,,,,,,,,,,,,,,,,,,,,,,,,,,,,,,
,,,,,,,,,,,,,,,758,2022-01-20_15h15.20.607,multiplicationStroop,2021.2.3,Win32,59.95922773,,,,,left,1,0.966,0,9,9,44,1,6,1,6 | 1,5,1.4111,1.9756,incongruent,left,,,,,,stimulusFile/magnitude.xlsx,,,,,,,,,,,,,,,,,,,,,,,,,,,,,,,
,,,,,,,,,,,,,,,758,2022-01-20_15h15.20.607,multiplicationStroop,2021.2.3,Win32,59.95922773,,,,,left,1,1.1037,0,10,10,22,1,8,3,8 | 3,5,1.9756,1.4111,congruent,left,,,,,,stimulusFile/magnitude.xlsx,,,,,,,,,,,,,,,,,,,,,,,,,,,,,,,
,,,,,,,,,,,,,,,758,2022-01-20_15h15.20.607,multiplicationStroop,2021.2.3,Win32,59.95922773,,,,,left,1,0.6422,0,11,11,70,1,8,3,8 | 3,5,1.6933,1.6933,neutral,left,,,,,,stimulusFile/magnitude.xlsx,,,,,,,,,,,,,,,,,,,,,,,,,,,,,,,
,,,,,,,,,,,,,,,758,2022-01-20_15h15.20.607,multiplicationStroop,2021.2.3,Win32,59.95922773,,,,,left,1,1.0192,0,12,12,15,1,9,7,9 | 7,2,1.9756,1.4111,congruent,left,,,,,,stimulusFile/magnitude.xlsx,,,,,,,,,,,,,,,,,,,,,,,,,,,,,,,
,,,,,,,,,,,,,,,758,2022-01-20_15h15.20.607,multiplicationStroop,2021.2.3,Win32,59.95922773,,,,,right,1,3.691,0,13,13,19,1,4,9,4 | 9,5,1.4111,1.9756,congruent,right,,,,,,stimulusFile/magnitude.xlsx,,,,,,,,,,,,,,,,,,,,,,,,,,,,,,,
,,,,,,,,,,,,,,,758,2022-01-20_15h15.20.607,multiplicationStroop,2021.2.3,Win32,59.95922773,,,,,left,1,0.8055,0,14,14,30,1,7,6,7 | 6,1,1.4111,1.9756,incongruent,left,,,,,,stimulusFile/magnitude.xlsx,,,,,,,,,,,,,,,,,,,,,,,,,,,,,,,
,,,,,,,,,,,,,,,758,2022-01-20_15h15.20.607,multiplicationStroop,2021.2.3,Win32,59.95922773,,,,,left,1,0.6072,0,15,15,6,1,7,6,7 | 6,1,1.9756,1.4111,congruent,left,,,,,,stimulusFile/magnitude.xlsx,,,,,,,,,,,,,,,,,,,,,,,,,,,,,,,
,,,,,,,,,,,,,,,758,2022-01-20_15h15.20.607,multiplicationStroop,2021.2.3,Win32,59.95922773,,,,,left,1,0.4821,0,16,16,54,1,7,6,7 | 6,1,1.6933,1.6933,neutral,left,,,,,,stimulusFile/magnitude.xlsx,,,,,,,,,,,,,,,,,,,,,,,,,,,,,,,
,,,,,,,,,,,,,,,758,2022-01-20_15h15.20.607,multiplicationStroop,2021.2.3,Win32,59.95922773,,,,,right,1,0.8798,0,17,17,51,1,8,9,8 | 9,1,1.6933,1.6933,neutral,right,,,,,,stimulusFile/magnitude.xlsx,,,,,,,,,,,,,,,,,,,,,,,,,,,,,,,
,,,,,,,,,,,,,,,758,2022-01-20_15h15.20.607,multiplicationStroop,2021.2.3,Win32,59.95922773,,,,,left,1,1.118,0,18,18,37,1,4,2,4 | 2,2,1.4111,1.9756,incongruent,left,,,,,,stimulusFile/magnitude.xlsx,,,,,,,,,,,,,,,,,,,,,,,,,,,,,,,
,,,,,,,,,,,,,,,758,2022-01-20_15h15.20.607,multiplicationStroop,2021.2.3,Win32,59.95922773,,,,,right,1,0.8008,0,19,19,56,1,1,3,1 | 3,2,1.6933,1.6933,neutral,right,,,,,,stimulusFile/magnitude.xlsx,,,,,,,,,,,,,,,,,,,,,,,,,,,,,,,
,,,,,,,,,,,,,,,758,2022-01-20_15h15.20.607,multiplicationStroop,2021.2.3,Win32,59.95922773,,,,,right,1,0.6193,0,20,20,16,1,1,6,1 | 6,5,1.4111,1.9756,congruent,right,,,,,,stimulusFile/magnitude.xlsx,,,,,,,,,,,,,,,,,,,,,,,,,,,,,,,
,,,,,,,,,,,,,,,758,2022-01-20_15h15.20.607,multiplicationStroop,2021.2.3,Win32,59.95922773,,,,,right,1,1.0884,0,21,21,2,1,6,7,6 | 7,1,1.4111,1.9756,congruent,right,,,,,,stimulusFile/magnitude.xlsx,,,,,,,,,,,,,,,,,,,,,,,,,,,,,,,
,,,,,,,,,,,,,,,758,2022-01-20_15h15.20.607,multiplicationStroop,2021.2.3,Win32,59.95922773,,,,,right,1,1.0252,0,22,22,41,1,2,7,2 | 7,5,1.9756,1.4111,incongruent,right,,,,,,stimulusFile/magnitude.xlsx,,,,,,,,,,,,,,,,,,,,,,,,,,,,,,,
,,,,,,,,,,,,,,,758,2022-01-20_15h15.20.607,multiplicationStroop,2021.2.3,Win32,59.95922773,,,,,left,1,0.9983,0,23,23,20,1,6,1,6 | 1,5,1.9756,1.4111,congruent,left,,,,,,stimulusFile/magnitude.xlsx,,,,,,,,,,,,,,,,,,,,,,,,,,,,,,,
,,,,,,,,,,,,,,,758,2022-01-20_15h15.20.607,multiplicationStroop,2021.2.3,Win32,59.95922773,,,,,left,1,1.1653,0,24,24,12,1,3,1,3 | 1,2,1.9756,1.4111,congruent,left,,,,,,stimulusFile/magnitude.xlsx,,,,,,,,,,,,,,,,,,,,,,,,,,,,,,,
,,,,,,,,,,,,,,,758,2022-01-20_15h15.20.607,multiplicationStroop,2021.2.3,Win32,59.95922773,,,,,left,1,0.8723,0,25,25,69,1,7,2,7 | 2,5,1.6933,1.6933,neutral,left,,,,,,stimulusFile/magnitude.xlsx,,,,,,,,,,,,,,,,,,,,,,,,,,,,,,,
,,,,,,,,,,,,,,,758,2022-01-20_15h15.20.607,multiplicationStroop,2021.2.3,Win32,59.95922773,,,,,right,1,0.8915,0,26,26,3,1,8,9,8 | 9,1,1.4111,1.9756,congruent,right,,,,,,stimulusFile/magnitude.xlsx,,,,,,,,,,,,,,,,,,,,,,,,,,,,,,,
,,,,,,,,,,,,,,,758,2022-01-20_15h15.20.607,multiplicationStroop,2021.2.3,Win32,59.95922773,,,,,right,1,1.1048,0,27,27,66,1,3,8,3 | 8,5,1.6933,1.6933,neutral,right,,,,,,stimulusFile/magnitude.xlsx,,,,,,,,,,,,,,,,,,,,,,,,,,,,,,,
,,,,,,,,,,,,,,,758,2022-01-20_15h15.20.607,multiplicationStroop,2021.2.3,Win32,59.95922773,,,,,left,1,0.5062,0,28,28,5,1,4,3,4 | 3,1,1.9756,1.4111,congruent,left,,,,,,stimulusFile/magnitude.xlsx,,,,,,,,,,,,,,,,,,,,,,,,,,,,,,,
,,,,,,,,,,,,,,,758,2022-01-20_15h15.20.607,multiplicationStroop,2021.2.3,Win32,59.95922773,,,,,right,1,0.7239,0,29,29,33,1,2,4,2 | 4,2,1.9756,1.4111,incongruent,right,,,,,,stimulusFile/magnitude.xlsx,,,,,,,,,,,,,,,,,,,,,,,,,,,,,,,
,,,,,,,,,,,,,,,758,2022-01-20_15h15.20.607,multiplicationStroop,2021.2.3,Win32,59.95922773,,,,,right,1,0.9779,0,30,30,0,1,1,2,1 | 2,1,1.4111,1.9756,congruent,right,,,,,,stimulusFile/magnitude.xlsx,,,,,,,,,,,,,,,,,,,,,,,,,,,,,,,
,,,,,,,,,,,,,,,758,2022-01-20_15h15.20.607,multiplicationStroop,2021.2.3,Win32,59.95922773,,,,,right,1,0.7353,0,31,31,50,1,6,7,6 | 7,1,1.6933,1.6933,neutral,right,,,,,,stimulusFile/magnitude.xlsx,,,,,,,,,,,,,,,,,,,,,,,,,,,,,,,
,,,,,,,,,,,,,,,758,2022-01-20_15h15.20.607,multiplicationStroop,2021.2.3,Win32,59.95922773,,,,,left,1,0.7918,0,32,32,29,1,4,3,4 | 3,1,1.4111,1.9756,incongruent,left,,,,,,stimulusFile/magnitude.xlsx,,,,,,,,,,,,,,,,,,,,,,,,,,,,,,,
,,,,,,,,,,,,,,,758,2022-01-20_15h15.20.607,multiplicationStroop,2021.2.3,Win32,59.95922773,,,,,right,1,0.6667,0,33,33,26,1,6,7,6 | 7,1,1.9756,1.4111,incongruent,right,,,,,,stimulusFile/magnitude.xlsx,,,,,,,,,,,,,,,,,,,,,,,,,,,,,,,
,,,,,,,,,,,,,,,758,2022-01-20_15h15.20.607,multiplicationStroop,2021.2.3,Win32,59.95922773,,,,,right,1,0.8623,0,34,34,43,1,4,9,4 | 9,5,1.9756,1.4111,incongruent,right,,,,,,stimulusFile/magnitude.xlsx,,,,,,,,,,,,,,,,,,,,,,,,,,,,,,,
,,,,,,,,,,,,,,,758,2022-01-20_15h15.20.607,multiplicationStroop,2021.2.3,Win32,59.95922773,,,,,left,1,0.7119,0,35,35,71,1,9,4,9 | 4,5,1.6933,1.6933,neutral,left,,,,,,stimulusFile/magnitude.xlsx,,,,,,,,,,,,,,,,,,,,,,,,,,,,,,,
,,,,,,,,,,,,,,,758,2022-01-20_15h15.20.607,multiplicationStroop,2021.2.3,Win32,59.95922773,,,,,right,1,0.6887,0,36,36,17,1,2,7,2 | 7,5,1.4111,1.9756,congruent,right,,,,,,stimulusFile/magnitude.xlsx,,,,,,,,,,,,,,,,,,,,,,,,,,,,,,,
,,,,,,,,,,,,,,,758,2022-01-20_15h15.20.607,multiplicationStroop,2021.2.3,Win32,59.95922773,,,,,left,1,0.6476,0,37,37,47,1,9,4,9 | 4,5,1.4111,1.9756,incongruent,left,,,,,,stimulusFile/magnitude.xlsx,,,,,,,,,,,,,,,,,,,,,,,,,,,,,,,
,,,,,,,,,,,,,,,758,2022-01-20_15h15.20.607,multiplicationStroop,2021.2.3,Win32,59.95922773,,,,,right,1,0.7316,0,38,38,65,1,2,7,2 | 7,5,1.6933,1.6933,neutral,right,,,,,,stimulusFile/magnitude.xlsx,,,,,,,,,,,,,,,,,,,,,,,,,,,,,,,
,,,,,,,,,,,,,,,758,2022-01-20_15h15.20.607,multiplicationStroop,2021.2.3,Win32,59.95922773,,,,,right,1,0.7655,0,39,39,10,1,6,8,6 | 8,2,1.4111,1.9756,congruent,right,,,,,,stimulusFile/magnitude.xlsx,,,,,,,,,,,,,,,,,,,,,,,,,,,,,,,
,,,,,,,,,,,,,,,758,2022-01-20_15h15.20.607,multiplicationStroop,2021.2.3,Win32,59.95922773,,,,,right,1,0.8887,0,40,40,24,1,1,2,1 | 2,1,1.9756,1.4111,incongruent,right,,,,,,stimulusFile/magnitude.xlsx,,,,,,,,,,,,,,,,,,,,,,,,,,,,,,,
,,,,,,,,,,,,,,,758,2022-01-20_15h15.20.607,multiplicationStroop,2021.2.3,Win32,59.95922773,,,,,left,1,0.7654,0,41,41,52,1,2,1,2 | 1,1,1.6933,1.6933,neutral,left,,,,,,stimulusFile/magnitude.xlsx,,,,,,,,,,,,,,,,,,,,,,,,,,,,,,,
,,,,,,,,,,,,,,,758,2022-01-20_15h15.20.607,multiplicationStroop,2021.2.3,Win32,59.95922773,,,,,left,1,0.8382,0,42,42,38,1,8,6,8 | 6,2,1.4111,1.9756,incongruent,left,,,,,,stimulusFile/magnitude.xlsx,,,,,,,,,,,,,,,,,,,,,,,,,,,,,,,
,,,,,,,,,,,,,,,758,2022-01-20_15h15.20.607,multiplicationStroop,2021.2.3,Win32,59.95922773,,,,,right,1,1.796,0,43,43,8,1,1,3,1 | 3,2,1.4111,1.9756,congruent,right,,,,,,stimulusFile/magnitude.xlsx,,,,,,,,,,,,,,,,,,,,,,,,,,,,,,,
,,,,,,,,,,,,,,,758,2022-01-20_15h15.20.607,multiplicationStroop,2021.2.3,Win32,59.95922773,,,,,right,1,0.7793,0,44,44,42,1,3,8,3 | 8,5,1.9756,1.4111,incongruent,right,,,,,,stimulusFile/magnitude.xlsx,,,,,,,,,,,,,,,,,,,,,,,,,,,,,,,
,,,,,,,,,,,,,,,758,2022-01-20_15h15.20.607,multiplicationStroop,2021.2.3,Win32,59.95922773,,,,,left,1,0.9788,0,45,45,55,1,9,8,9 | 8,1,1.6933,1.6933,neutral,left,,,,,,stimulusFile/magnitude.xlsx,,,,,,,,,,,,,,,,,,,,,,,,,,,,,,,
,,,,,,,,,,,,,,,758,2022-01-20_15h15.20.607,multiplicationStroop,2021.2.3,Win32,59.95922773,,,,,left,1,0.8488,0,46,46,14,1,8,6,8 | 6,2,1.9756,1.4111,congruent,left,,,,,,stimulusFile/magnitude.xlsx,,,,,,,,,,,,,,,,,,,,,,,,,,,,,,,
,,,,,,,,,,,,,,,758,2022-01-20_15h15.20.607,multiplicationStroop,2021.2.3,Win32,59.95922773,,,,,left,1,4.056,0,47,47,61,1,4,2,4 | 2,2,1.6933,1.6933,neutral,left,,,,,,stimulusFile/magnitude.xlsx,,,,,,,,,,,,,,,,,,,,,,,,,,,,,,,
,,,,,,,,,,,,,,,758,2022-01-20_15h15.20.607,multiplicationStroop,2021.2.3,Win32,59.95922773,,,,,left,1,0.759,0,48,48,13,1,4,2,4 | 2,2,1.9756,1.4111,congruent,left,,,,,,stimulusFile/magnitude.xlsx,,,,,,,,,,,,,,,,,,,,,,,,,,,,,,,
,,,,,,,,,,,,,,,758,2022-01-20_15h15.20.607,multiplicationStroop,2021.2.3,Win32,59.95922773,,,,,left,1,1.4679,0,49,49,4,1,2,1,2 | 1,1,1.9756,1.4111,congruent,left,,,,,,stimulusFile/magnitude.xlsx,,,,,,,,,,,,,,,,,,,,,,,,,,,,,,,
,,,,,,,,,,,,,,,758,2022-01-20_15h15.20.607,multiplicationStroop,2021.2.3,Win32,59.95922773,,,,,right,1,1.8875,0,50,50,9,1,2,4,2 | 4,2,1.4111,1.9756,congruent,right,,,,,,stimulusFile/magnitude.xlsx,,,,,,,,,,,,,,,,,,,,,,,,,,,,,,,
,,,,,,,,,,,,,,,758,2022-01-20_15h15.20.607,multiplicationStroop,2021.2.3,Win32,59.95922773,,,,,right,1,0.7854,0,51,51,58,1,6,8,6 | 8,2,1.6933,1.6933,neutral,right,,,,,,stimulusFile/magnitude.xlsx,,,,,,,,,,,,,,,,,,,,,,,,,,,,,,,
,,,,,,,,,,,,,,,758,2022-01-20_15h15.20.607,multiplicationStroop,2021.2.3,Win32,59.95922773,,,,,right,1,1.1638,0,52,52,48,1,1,2,1 | 2,1,1.6933,1.6933,neutral,right,,,,,,stimulusFile/magnitude.xlsx,,,,,,,,,,,,,,,,,,,,,,,,,,,,,,,
,,,,,,,,,,,,,,,758,2022-01-20_15h15.20.607,multiplicationStroop,2021.2.3,Win32,59.95922773,,,,,left,1,0.6453,0,53,53,7,1,9,8,9 | 8,1,1.9756,1.4111,congruent,left,,,,,,stimulusFile/magnitude.xlsx,,,,,,,,,,,,,,,,,,,,,,,,,,,,,,,
,,,,,,,,,,,,,,,758,2022-01-20_15h15.20.607,multiplicationStroop,2021.2.3,Win32,59.95922773,,,,,right,1,0.6421,0,54,54,11,1,7,9,7 | 9,2,1.4111,1.9756,congruent,right,,,,,,stimulusFile/magnitude.xlsx,,,,,,,,,,,,,,,,,,,,,,,,,,,,,,,
,,,,,,,,,,,,,,,758,2022-01-20_15h15.20.607,multiplicationStroop,2021.2.3,Win32,59.95922773,,,,,left,1,0.6951,0,55,55,62,1,8,6,8 | 6,2,1.6933,1.6933,neutral,left,,,,,,stimulusFile/magnitude.xlsx,,,,,,,,,,,,,,,,,,,,,,,,,,,,,,,
,,,,,,,,,,,,,,,758,2022-01-20_15h15.20.607,multiplicationStroop,2021.2.3,Win32,59.95922773,,,,,left,1,0.9778,0,56,56,31,1,9,8,9 | 8,1,1.4111,1.9756,incongruent,left,,,,,,stimulusFile/magnitude.xlsx,,,,,,,,,,,,,,,,,,,,,,,,,,,,,,,
,,,,,,,,,,,,,,,758,2022-01-20_15h15.20.607,multiplicationStroop,2021.2.3,Win32,59.95922773,,,,,right,1,0.6943,0,57,57,49,1,3,4,3 | 4,1,1.6933,1.6933,neutral,right,,,,,,stimulusFile/magnitude.xlsx,,,,,,,,,,,,,,,,,,,,,,,,,,,,,,,
,,,,,,,,,,,,,,,758,2022-01-20_15h15.20.607,multiplicationStroop,2021.2.3,Win32,59.95922773,,,,,right,1,0.8069,0,58,58,67,1,4,9,4 | 9,5,1.6933,1.6933,neutral,right,,,,,,stimulusFile/magnitude.xlsx,,,,,,,,,,,,,,,,,,,,,,,,,,,,,,,
,,,,,,,,,,,,,,,758,2022-01-20_15h15.20.607,multiplicationStroop,2021.2.3,Win32,59.95922773,,,,,left,1,0.7707,0,59,59,36,1,3,1,3 | 1,2,1.4111,1.9756,incongruent,left,,,,,,stimulusFile/magnitude.xlsx,,,,,,,,,,,,,,,,,,,,,,,,,,,,,,,
,,,,,,,,,,,,,,,758,2022-01-20_15h15.20.607,multiplicationStroop,2021.2.3,Win32,59.95922773,,,,,right,1,1.1809,0,60,60,64,1,1,6,1 | 6,5,1.6933,1.6933,neutral,right,,,,,,stimulusFile/magnitude.xlsx,,,,,,,,,,,,,,,,,,,,,,,,,,,,,,,
,,,,,,,,,,,,,,,758,2022-01-20_15h15.20.607,multiplicationStroop,2021.2.3,Win32,59.95922773,,,,,left,1,0.7868,0,61,61,45,1,7,2,7 | 2,5,1.4111,1.9756,incongruent,left,,,,,,stimulusFile/magnitude.xlsx,,,,,,,,,,,,,,,,,,,,,,,,,,,,,,,
,,,,,,,,,,,,,,,758,2022-01-20_15h15.20.607,multiplicationStroop,2021.2.3,Win32,59.95922773,,,,,left,1,1.2115,0,62,62,68,1,6,1,6 | 1,5,1.6933,1.6933,neutral,left,,,,,,stimulusFile/magnitude.xlsx,,,,,,,,,,,,,,,,,,,,,,,,,,,,,,,
,,,,,,,,,,,,,,,758,2022-01-20_15h15.20.607,multiplicationStroop,2021.2.3,Win32,59.95922773,,,,,right,1,0.6795,0,63,63,25,1,3,4,3 | 4,1,1.9756,1.4111,incongruent,right,,,,,,stimulusFile/magnitude.xlsx,,,,,,,,,,,,,,,,,,,,,,,,,,,,,,,
,,,,,,,,,,,,,,,758,2022-01-20_15h15.20.607,multiplicationStroop,2021.2.3,Win32,59.95922773,,,,,left,1,0.7975,0,64,64,23,1,9,4,9 | 4,5,1.9756,1.4111,congruent,left,,,,,,stimulusFile/magnitude.xlsx,,,,,,,,,,,,,,,,,,,,,,,,,,,,,,,
,,,,,,,,,,,,,,,758,2022-01-20_15h15.20.607,multiplicationStroop,2021.2.3,Win32,59.95922773,,,,,right,1,0.5631,0,65,65,40,1,1,6,1 | 6,5,1.9756,1.4111,incongruent,right,,,,,,stimulusFile/magnitude.xlsx,,,,,,,,,,,,,,,,,,,,,,,,,,,,,,,
,,,,,,,,,,,,,,,758,2022-01-20_15h15.20.607,multiplicationStroop,2021.2.3,Win32,59.95922773,,,,,left,1,0.556,0,66,66,60,1,3,1,3 | 1,2,1.6933,1.6933,neutral,left,,,,,,stimulusFile/magnitude.xlsx,,,,,,,,,,,,,,,,,,,,,,,,,,,,,,,
,,,,,,,,,,,,,,,758,2022-01-20_15h15.20.607,multiplicationStroop,2021.2.3,Win32,59.95922773,,,,,right,1,0.9205,0,67,67,35,1,7,9,7 | 9,2,1.9756,1.4111,incongruent,right,,,,,,stimulusFile/magnitude.xlsx,,,,,,,,,,,,,,,,,,,,,,,,,,,,,,,
,,,,,,,,,,,,,,,758,2022-01-20_15h15.20.607,multiplicationStroop,2021.2.3,Win32,59.95922773,,,,,right,1,0.7389,0,68,68,27,1,8,9,8 | 9,1,1.9756,1.4111,incongruent,right,,,,,,stimulusFile/magnitude.xlsx,,,,,,,,,,,,,,,,,,,,,,,,,,,,,,,
,,,,,,,,,,,,,,,758,2022-01-20_15h15.20.607,multiplicationStroop,2021.2.3,Win32,59.95922773,,,,,right,1,1.2223,0,69,69,32,1,1,3,1 | 3,2,1.9756,1.4111,incongruent,right,,,,,,stimulusFile/magnitude.xlsx,,,,,,,,,,,,,,,,,,,,,,,,,,,,,,,
,,,,,,,,,,,,,,,758,2022-01-20_15h15.20.607,multiplicationStroop,2021.2.3,Win32,59.95922773,,,,,right,1,6.6916,0,70,70,59,1,7,9,7 | 9,2,1.6933,1.6933,neutral,right,,,,,,stimulusFile/magnitude.xlsx,,,,,,,,,,,,,,,,,,,,,,,,,,,,,,,
,,,,,,,,,,,,,,,758,2022-01-20_15h15.20.607,multiplicationStroop,2021.2.3,Win32,59.95922773,,,,,right,1,0.8359,0,71,71,34,1,6,8,6 | 8,2,1.9756,1.4111,incongruent,right,,,,,,stimulusFile/magnitude.xlsx,,,,,,,,,,,,,,,,,,,,,,,,,,,,,,,
,,,,,,,,,,,,,,,758,2022-01-20_15h15.20.607,multiplicationStroop,2021.2.3,Win32,59.95922773,,,,,,,,,,,,,,,,,,,,,0,1,1,0,1,stimulusFile/magnitude.xlsx,NUMERICALLY larger (larger coefficient).,images/numericallyLarger.png,,,,,,,,,,,,,,,,,,,,,,,,,,,,,
,,,,,,,,,,,,,,,758,2022-01-20_15h15.20.607,multiplicationStroop,2021.2.3,Win32,59.95922773,,,,,,,,,,,,,,,,,,,,,,,,,,,,,space,7.8188,space,1.4277,30,4.3659,1,0,0,0,25,1,6,×,5,6 × 5,incongruent,largerFirst,1,2,30,,,,,,,,
,,,,,,,,,,,,,,,758,2022-01-20_15h15.20.607,multiplicationStroop,2021.2.3,Win32,59.95922773,,,,,,,,,,,,,,,,,,,,,,,,,,,,,,,,,36,2.5822,1,0,1,1,15,1,9,×,4,9 × 4,incongruent,largerFirst,1,2,36,,,,,,,,
,,,,,,,,,,,,,,,758,2022-01-20_15h15.20.607,multiplicationStroop,2021.2.3,Win32,59.95922773,,,,,,,,,,,,,,,,,,,,,,,,,,,,,,,,,24,1.8728,1,0,2,2,20,1,6,×,4,6 × 4,incongruent,largerFirst,1,2,24,,,,,,,,
,,,,,,,,,,,,,,,758,2022-01-20_15h15.20.607,multiplicationStroop,2021.2.3,Win32,59.95922773,,,,,,,,,,,,,,,,,,,,,,,,,,,,,,,,,6,1.8329,1,0,3,3,11,1,2,×,3,2 × 3,incongruent,smallerFirst,2,1,6,,,,,,,,
,,,,,,,,,,,,,,,758,2022-01-20_15h15.20.607,multiplicationStroop,2021.2.3,Win32,59.95922773,,,,,,,,,,,,,,,,,,,,,,,,,,,,,,,,,64,3.3493,1,0,4,4,34,1,8,×,8,8 × 8,incongruent,tie,1,2,64,,,,,,,,
,,,,,,,,,,,,,,,758,2022-01-20_15h15.20.607,multiplicationStroop,2021.2.3,Win32,59.95922773,,,,,,,,,,,,,,,,,,,,,,,,,,,,,,,,,24,3.0656,1,0,5,5,9,1,3,×,8,3 × 8,incongruent,smallerFirst,2,1,24,,,,,,,,
,,,,,,,,,,,,,,,758,2022-01-20_15h15.20.607,multiplicationStroop,2021.2.3,Win32,59.95922773,,,,,,,,,,,,,,,,,,,,,,,,,,,,,,,,,12,1.9394,1,0,6,6,5,1,3,×,4,3 × 4,incongruent,smallerFirst,2,1,12,,,,,,,,
,,,,,,,,,,,,,,,758,2022-01-20_15h15.20.607,multiplicationStroop,2021.2.3,Win32,59.95922773,,,,,,,,,,,,,,,,,,,,,,,,,,,,,,,,,48,3.349,1,0,7,7,1,1,6,×,8,6 × 8,incongruent,smallerFirst,2,1,48,,,,,,,,
,,,,,,,,,,,,,,,758,2022-01-20_15h15.20.607,multiplicationStroop,2021.2.3,Win32,59.95922773,,,,,,,,,,,,,,,,,,,,,,,,,,,,,,,,,45,1.8659,1,0,8,8,22,1,9,×,5,9 × 5,incongruent,largerFirst,1,2,45,,,,,,,,
,,,,,,,,,,,,,,,758,2022-01-20_15h15.20.607,multiplicationStroop,2021.2.3,Win32,59.95922773,,,,,,,,,,,,,,,,,,,,,,,,,,,,,,,,,27,2.2996,1,0,9,9,18,1,9,×,3,9 × 3,incongruent,largerFirst,1,2,27,,,,,,,,
,,,,,,,,,,,,,,,758,2022-01-20_15h15.20.607,multiplicationStroop,2021.2.3,Win32,59.95922773,,,,,,,,,,,,,,,,,,,,,,,,,,,,,,,,,36,2.2492,1,0,10,10,32,1,6,×,6,6 × 6,incongruent,tie,1,2,36,,,,,,,,
,,,,,,,,,,,,,,,758,2022-01-20_15h15.20.607,multiplicationStroop,2021.2.3,Win32,59.95922773,,,,,,,,,,,,,,,,,,,,,,,,,,,,,,,,,15,1.723,1,0,11,11,10,1,3,×,5,3 × 5,incongruent,smallerFirst,2,1,15,,,,,,,,
,,,,,,,,,,,,,,,758,2022-01-20_15h15.20.607,multiplicationStroop,2021.2.3,Win32,59.95922773,,,,,,,,,,,,,,,,,,,,,,,,,,,,,,,,,63,3.2159,1,0,12,12,3,1,7,×,9,7 × 9,incongruent,smallerFirst,2,1,63,,,,,,,,
,,,,,,,,,,,,,,,758,2022-01-20_15h15.20.607,multiplicationStroop,2021.2.3,Win32,59.95922773,,,,,,,,,,,,,,,,,,,,,,,,,,,,,,,,,21,1.806,1,0,13,13,26,1,7,×,3,7 × 3,incongruent,largerFirst,1,2,21,,,,,,,,
,,,,,,,,,,,,,,,758,2022-01-20_15h15.20.607,multiplicationStroop,2021.2.3,Win32,59.95922773,,,,,,,,,,,,,,,,,,,,,,,,,,,,,,,,,25,1.5829,1,0,14,14,31,1,5,×,5,5 × 5,incongruent,tie,1,2,25,,,,,,,,
,,,,,,,,,,,,,,,758,2022-01-20_15h15.20.607,multiplicationStroop,2021.2.3,Win32,59.95922773,,,,,,,,,,,,,,,,,,,,,,,,,,,,,,,,,32,2.1657,1,0,15,15,7,1,4,×,8,4 × 8,incongruent,smallerFirst,2,1,32,,,,,,,,
,,,,,,,,,,,,,,,758,2022-01-20_15h15.20.607,multiplicationStroop,2021.2.3,Win32,59.95922773,,,,,,,,,,,,,,,,,,,,,,,,,,,,,,,,,72,2.083,1,0,16,16,0,1,8,×,9,8 × 9,incongruent,smallerFirst,2,1,72,,,,,,,,
,,,,,,,,,,,,,,,758,2022-01-20_15h15.20.607,multiplicationStroop,2021.2.3,Win32,59.95922773,,,,,,,,,,,,,,,,,,,,,,,,,,,,,,,,,16,2.0991,1,0,17,17,30,1,4,×,4,4 × 4,incongruent,tie,1,2,16,,,,,,,,
,,,,,,,,,,,,,,,758,2022-01-20_15h15.20.607,multiplicationStroop,2021.2.3,Win32,59.95922773,,,,,,,,,,,,,,,,,,,,,,,,,,,,,,,,,42,1.8827,1,0,18,18,17,1,7,×,6,7 × 6,incongruent,largerFirst,1,2,42,,,,,,,,
,,,,,,,,,,,,,,,758,2022-01-20_15h15.20.607,multiplicationStroop,2021.2.3,Win32,59.95922773,,,,,,,,,,,,,,,,,,,,,,,,,,,,,,,,,20,1.9827,1,0,19,19,27,1,5,×,4,5 × 4,incongruent,largerFirst,1,2,20,,,,,,,,
,,,,,,,,,,,,,,,758,2022-01-20_15h15.20.607,multiplicationStroop,2021.2.3,Win32,59.95922773,,,,,,,,,,,,,,,,,,,,,,,,,,,,,,,,,81,215.172,1,0,20,20,35,1,9,×,9,9 × 9,incongruent,tie,1,2,81,,,,,,,,
,,,,,,,,,,,,,,,758,2022-01-20_15h15.20.607,multiplicationStroop,2021.2.3,Win32,59.95922773,,,,,,,,,,,,,,,,,,,,,,,,,,,,,,,,,14,4.7555,1,0,21,21,4,1,2,×,7,2 × 7,incongruent,smallerFirst,2,1,14,,,,,,,,
,,,,,,,,,,,,,,,758,2022-01-20_15h15.20.607,multiplicationStroop,2021.2.3,Win32,59.95922773,,,,,,,,,,,,,,,,,,,,,,,,,,,,,,,,,4,2.0562,1,0,22,22,28,1,2,×,2,2 × 2,incongruent,tie,1,2,4,,,,,,,,
,,,,,,,,,,,,,,,758,2022-01-20_15h15.20.607,multiplicationStroop,2021.2.3,Win32,59.95922773,,,,,,,,,,,,,,,,,,,,,,,,,,,,,,,,,28,3.0162,1,0,23,23,16,1,7,×,4,7 × 4,incongruent,largerFirst,1,2,28,,,,,,,,
,,,,,,,,,,,,,,,758,2022-01-20_15h15.20.607,multiplicationStroop,2021.2.3,Win32,59.95922773,,,,,,,,,,,,,,,,,,,,,,,,,,,,,,,,,8,6.9653,1,0,24,24,24,1,4,×,2,4 × 2,incongruent,largerFirst,1,2,8,,,,,,,,
,,,,,,,,,,,,,,,758,2022-01-20_15h15.20.607,multiplicationStroop,2021.2.3,Win32,59.95922773,,,,,,,,,,,,,,,,,,,,,,,,,,,,,,,,,18,179.6998,1,0,25,25,8,1,3,×,6,3 × 6,incongruent,smallerFirst,2,1,18,,,,,,,,
,,,,,,,,,,,,,,,758,2022-01-20_15h15.20.607,multiplicationStroop,2021.2.3,Win32,59.95922773,,,,,,,,,,,,,,,,,,,,,,,,,,,,,,,,,40,2.272,1,0,26,26,13,1,5,×,8,5 × 8,incongruent,smallerFirst,2,1,40,,,,,,,,
,,,,,,,,,,,,,,,758,2022-01-20_15h15.20.607,multiplicationStroop,2021.2.3,Win32,59.95922773,,,,,,,,,,,,,,,,,,,,,,,,,,,,,,,,,56,6.2656,1,0,27,27,14,1,8,×,7,8 × 7,incongruent,largerFirst,1,2,56,,,,,,,,
,,,,,,,,,,,,,,,758,2022-01-20_15h15.20.607,multiplicationStroop,2021.2.3,Win32,59.95922773,,,,,,,,,,,,,,,,,,,,,,,,,,,,,,,,,9,2.1061,1,0,28,28,29,1,3,×,3,3 × 3,incongruent,tie,1,2,9,,,,,,,,
,,,,,,,,,,,,,,,758,2022-01-20_15h15.20.607,multiplicationStroop,2021.2.3,Win32,59.95922773,,,,,,,,,,,,,,,,,,,,,,,,,,,,,,,,,18,2.3992,1,0,29,29,2,1,2,×,9,2 × 9,incongruent,smallerFirst,2,1,18,,,,,,,,
,,,,,,,,,,,,,,,758,2022-01-20_15h15.20.607,multiplicationStroop,2021.2.3,Win32,59.95922773,,,,,,,,,,,,,,,,,,,,,,,,,,,,,,,,,12,1.9828,1,0,30,30,19,1,6,×,2,6 × 2,incongruent,largerFirst,1,2,12,,,,,,,,
,,,,,,,,,,,,,,,758,2022-01-20_15h15.20.607,multiplicationStroop,2021.2.3,Win32,59.95922773,,,,,,,,,,,,,,,,,,,,,,,,,,,,,,,,,16,4.9654,1,0,31,31,23,1,8,×,2,8 × 2,incongruent,largerFirst,1,2,16,,,,,,,,
,,,,,,,,,,,,,,,758,2022-01-20_15h15.20.607,multiplicationStroop,2021.2.3,Win32,59.95922773,,,,,,,,,,,,,,,,,,,,,,,,,,,,,,,,,10,19.1043,1,0,32,32,21,1,5,×,2,5 × 2,incongruent,largerFirst,1,2,10,,,,,,,,
,,,,,,,,,,,,,,,758,2022-01-20_15h15.20.607,multiplicationStroop,2021.2.3,Win32,59.95922773,,,,,,,,,,,,,,,,,,,,,,,,,,,,,,,,,35,6.6054,1,0,33,33,12,1,5,×,7,5 × 7,incongruent,smallerFirst,2,1,35,,,,,,,,
,,,,,,,,,,,,,,,758,2022-01-20_15h15.20.607,multiplicationStroop,2021.2.3,Win32,59.95922773,,,,,,,,,,,,,,,,,,,,,,,,,,,,,,,,,49,2.2233,1,0,34,34,33,1,7,×,7,7 × 7,incongruent,tie,1,2,49,,,,,,,,
,,,,,,,,,,,,,,,758,2022-01-20_15h15.20.607,multiplicationStroop,2021.2.3,Win32,59.95922773,,,,,,,,,,,,,,,,,,,,,,,,,,,,,,,,,54,4.3156,1,0,35,35,6,1,6,×,9,6 × 9,incongruent,smallerFirst,2,1,54,,,,,,,,
,,,,,,,,,,,,,,,758,2022-01-20_15h15.20.607,multiplicationStroop,2021.2.3,Win32,59.95922773,,,,,,,,,,,,,,,,,,,,,,,,,,,,,,,,,,,,,,,,,,,,,,,,,,0,0,0,5,1,stimulusFile/mult_blk6_INcongruent.xlsx,,
,,,,,,,,,,,,,,,758,2022-01-20_15h15.20.607,multiplicationStroop,2021.2.3,Win32,59.95922773,,,,,,,,,,,,,,,,,,,,,,,,,,,,,,,space,1.2884,35,2.9927,1,0,0,0,15,1,7,×,5,7 × 5,neutral,largerFirst,1.5,1.5,35,,,,,,,,
,,,,,,,,,,,,,,,758,2022-01-20_15h15.20.607,multiplicationStroop,2021.2.3,Win32,59.95922773,,,,,,,,,,,,,,,,,,,,,,,,,,,,,,,,,27,1.9993,1,0,1,1,0,1,3,×,9,3 × 9,neutral,smallerFirst,1.5,1.5,27,,,,,,,,
,,,,,,,,,,,,,,,758,2022-01-20_15h15.20.607,multiplicationStroop,2021.2.3,Win32,59.95922773,,,,,,,,,,,,,,,,,,,,,,,,,,,,,,,,,49,2.0825,0,0,2,2,35,1,9,×,9,9 × 9,neutral,tie,1.5,1.5,81,,,,,,,,
,,,,,,,,,,,,,,,758,2022-01-20_15h15.20.607,multiplicationStroop,2021.2.3,Win32,59.95922773,,,,,,,,,,,,,,,,,,,,,,,,,,,,,,,,,16,2.1993,1,0,3,3,30,1,4,×,4,4 × 4,neutral,tie,1.5,1.5,16,,,,,,,,
,,,,,,,,,,,,,,,758,2022-01-20_15h15.20.607,multiplicationStroop,2021.2.3,Win32,59.95922773,,,,,,,,,,,,,,,,,,,,,,,,,,,,,,,,,6,1.6157,1,0,4,4,12,1,2,×,3,2 × 3,neutral,smallerFirst,1.5,1.5,6,,,,,,,,
,,,,,,,,,,,,,,,758,2022-01-20_15h15.20.607,multiplicationStroop,2021.2.3,Win32,59.95922773,,,,,,,,,,,,,,,,,,,,,,,,,,,,,,,,,8,2.6329,1,0,5,5,17,1,4,×,2,4 × 2,neutral,largerFirst,1.5,1.5,8,,,,,,,,
,,,,,,,,,,,,,,,758,2022-01-20_15h15.20.607,multiplicationStroop,2021.2.3,Win32,59.95922773,,,,,,,,,,,,,,,,,,,,,,,,,,,,,,,,,45,1.849,1,0,6,6,24,1,9,×,5,9 × 5,neutral,largerFirst,1.5,1.5,45,,,,,,,,
,,,,,,,,,,,,,,,758,2022-01-20_15h15.20.607,multiplicationStroop,2021.2.3,Win32,59.95922773,,,,,,,,,,,,,,,,,,,,,,,,,,,,,,,,,12,1.4997,1,0,7,7,7,1,3,×,4,3 × 4,neutral,smallerFirst,1.5,1.5,12,,,,,,,,
,,,,,,,,,,,,,,,758,2022-01-20_15h15.20.607,multiplicationStroop,2021.2.3,Win32,59.95922773,,,,,,,,,,,,,,,,,,,,,,,,,,,,,,,,,16,2.0161,1,0,8,8,27,1,8,×,2,8 × 2,neutral,largerFirst,1.5,1.5,16,,,,,,,,
,,,,,,,,,,,,,,,758,2022-01-20_15h15.20.607,multiplicationStroop,2021.2.3,Win32,59.95922773,,,,,,,,,,,,,,,,,,,,,,,,,,,,,,,,,10,48.7933,1,0,9,9,18,1,5,×,2,5 × 2,neutral,largerFirst,1.5,1.5,10,,,,,,,,
,,,,,,,,,,,,,,,758,2022-01-20_15h15.20.607,multiplicationStroop,2021.2.3,Win32,59.95922773,,,,,,,,,,,,,,,,,,,,,,,,,,,,,,,,,9,1.789,1,0,10,10,29,1,3,×,3,3 × 3,neutral,tie,1.5,1.5,9,,,,,,,,
,,,,,,,,,,,,,,,758,2022-01-20_15h15.20.607,multiplicationStroop,2021.2.3,Win32,59.95922773,,,,,,,,,,,,,,,,,,,,,,,,,,,,,,,,,24,3.299,1,0,11,11,8,1,3,×,8,3 × 8,neutral,smallerFirst,1.5,1.5,24,,,,,,,,
,,,,,,,,,,,,,,,758,2022-01-20_15h15.20.607,multiplicationStroop,2021.2.3,Win32,59.95922773,,,,,,,,,,,,,,,,,,,,,,,,,,,,,,,,,63,3.0063,1,0,12,12,26,1,9,×,7,9 × 7,neutral,largerFirst,1.5,1.5,63,,,,,,,,
,,,,,,,,,,,,,,,758,2022-01-20_15h15.20.607,multiplicationStroop,2021.2.3,Win32,59.95922773,,,,,,,,,,,,,,,,,,,,,,,,,,,,,,,,,21,3.5227,1,0,13,13,22,1,7,×,3,7 × 3,neutral,largerFirst,1.5,1.5,21,,,,,,,,
,,,,,,,,,,,,,,,758,2022-01-20_15h15.20.607,multiplicationStroop,2021.2.3,Win32,59.95922773,,,,,,,,,,,,,,,,,,,,,,,,,,,,,,,,,36,2.5659,1,0,14,14,32,1,6,×,6,6 × 6,neutral,tie,1.5,1.5,36,,,,,,,,
,,,,,,,,,,,,,,,758,2022-01-20_15h15.20.607,multiplicationStroop,2021.2.3,Win32,59.95922773,,,,,,,,,,,,,,,,,,,,,,,,,,,,,,,,,30,3.0227,1,0,15,15,5,1,5,×,6,5 × 6,neutral,smallerFirst,1.5,1.5,30,,,,,,,,
,,,,,,,,,,,,,,,758,2022-01-20_15h15.20.607,multiplicationStroop,2021.2.3,Win32,59.95922773,,,,,,,,,,,,,,,,,,,,,,,,,,,,,,,,,18,2.6662,1,0,16,16,4,1,2,×,9,2 × 9,neutral,smallerFirst,1.5,1.5,18,,,,,,,,
,,,,,,,,,,,,,,,758,2022-01-20_15h15.20.607,multiplicationStroop,2021.2.3,Win32,59.95922773,,,,,,,,,,,,,,,,,,,,,,,,,,,,,,,,,4,1.466,1,0,17,17,28,1,2,×,2,2 × 2,neutral,tie,1.5,1.5,4,,,,,,,,
,,,,,,,,,,,,,,,758,2022-01-20_15h15.20.607,multiplicationStroop,2021.2.3,Win32,59.95922773,,,,,,,,,,,,,,,,,,,,,,,,,,,,,,,,,42,3.0657,1,0,18,18,20,1,7,×,6,7 × 6,neutral,largerFirst,1.5,1.5,42,,,,,,,,
,,,,,,,,,,,,,,,758,2022-01-20_15h15.20.607,multiplicationStroop,2021.2.3,Win32,59.95922773,,,,,,,,,,,,,,,,,,,,,,,,,,,,,,,,,49,8.0225,1,0,19,19,33,1,7,×,7,7 × 7,neutral,tie,1.5,1.5,49,,,,,,,,
,,,,,,,,,,,,,,,758,2022-01-20_15h15.20.607,multiplicationStroop,2021.2.3,Win32,59.95922773,,,,,,,,,,,,,,,,,,,,,,,,,,,,,,,,,25,5.3552,1,0,20,20,31,1,5,×,5,5 × 5,neutral,tie,1.5,1.5,25,,,,,,,,
,,,,,,,,,,,,,,,758,2022-01-20_15h15.20.607,multiplicationStroop,2021.2.3,Win32,59.95922773,,,,,,,,,,,,,,,,,,,,,,,,,,,,,,,,,56,16.5717,1,0,21,21,23,1,8,×,7,8 × 7,neutral,largerFirst,1.5,1.5,56,,,,,,,,
,,,,,,,,,,,,,,,758,2022-01-20_15h15.20.607,multiplicationStroop,2021.2.3,Win32,59.95922773,,,,,,,,,,,,,,,,,,,,,,,,,,,,,,,,,64,2.9385,1,0,22,22,34,1,8,×,8,8 × 8,neutral,tie,1.5,1.5,64,,,,,,,,
,,,,,,,,,,,,,,,758,2022-01-20_15h15.20.607,multiplicationStroop,2021.2.3,Win32,59.95922773,,,,,,,,,,,,,,,,,,,,,,,,,,,,,,,,,54,3.5828,1,0,23,23,21,1,9,×,6,9 × 6,neutral,largerFirst,1.5,1.5,54,,,,,,,,
,,,,,,,,,,,,,,,758,2022-01-20_15h15.20.607,multiplicationStroop,2021.2.3,Win32,59.95922773,,,,,,,,,,,,,,,,,,,,,,,,,,,,,,,,,72,7.8724,1,0,24,24,25,1,9,×,8,9 × 8,neutral,largerFirst,1.5,1.5,72,,,,,,,,
,,,,,,,,,,,,,,,758,2022-01-20_15h15.20.607,multiplicationStroop,2021.2.3,Win32,59.95922773,,,,,,,,,,,,,,,,,,,,,,,,,,,,,,,,,14,2.7889,1,0,25,25,2,1,2,×,7,2 × 7,neutral,smallerFirst,1.5,1.5,14,,,,,,,,
,,,,,,,,,,,,,,,758,2022-01-20_15h15.20.607,multiplicationStroop,2021.2.3,Win32,59.95922773,,,,,,,,,,,,,,,,,,,,,,,,,,,,,,,,,40,3.1824,1,0,26,26,10,1,5,×,8,5 × 8,neutral,smallerFirst,1.5,1.5,40,,,,,,,,
,,,,,,,,,,,,,,,758,2022-01-20_15h15.20.607,multiplicationStroop,2021.2.3,Win32,59.95922773,,,,,,,,,,,,,,,,,,,,,,,,,,,,,,,,,36,3.8823,1,0,27,27,13,1,4,×,9,4 × 9,neutral,smallerFirst,1.5,1.5,36,,,,,,,,
,,,,,,,,,,,,,,,758,2022-01-20_15h15.20.607,multiplicationStroop,2021.2.3,Win32,59.95922773,,,,,,,,,,,,,,,,,,,,,,,,,,,,,,,,,18,2.8894,1,0,28,28,14,1,6,×,3,6 × 3,neutral,largerFirst,1.5,1.5,18,,,,,,,,
,,,,,,,,,,,,,,,758,2022-01-20_15h15.20.607,multiplicationStroop,2021.2.3,Win32,59.95922773,,,,,,,,,,,,,,,,,,,,,,,,,,,,,,,,,20,2.3563,1,0,29,29,6,1,4,×,5,4 × 5,neutral,smallerFirst,1.5,1.5,20,,,,,,,,
,,,,,,,,,,,,,,,758,2022-01-20_15h15.20.607,multiplicationStroop,2021.2.3,Win32,59.95922773,,,,,,,,,,,,,,,,,,,,,,,,,,,,,,,,,28,2.2661,1,0,30,30,3,1,4,×,7,4 × 7,neutral,smallerFirst,1.5,1.5,28,,,,,,,,
,,,,,,,,,,,,,,,758,2022-01-20_15h15.20.607,multiplicationStroop,2021.2.3,Win32,59.95922773,,,,,,,,,,,,,,,,,,,,,,,,,,,,,,,,,24,1.616,1,0,31,31,16,1,6,×,4,6 × 4,neutral,largerFirst,1.5,1.5,24,,,,,,,,
,,,,,,,,,,,,,,,758,2022-01-20_15h15.20.607,multiplicationStroop,2021.2.3,Win32,59.95922773,,,,,,,,,,,,,,,,,,,,,,,,,,,,,,,,,48,2.4987,1,0,32,32,1,1,6,×,8,6 × 8,neutral,smallerFirst,1.5,1.5,48,,,,,,,,
,,,,,,,,,,,,,,,758,2022-01-20_15h15.20.607,multiplicationStroop,2021.2.3,Win32,59.95922773,,,,,,,,,,,,,,,,,,,,,,,,,,,,,,,,,15,1.6164,1,0,33,33,19,1,5,×,3,5 × 3,neutral,largerFirst,1.5,1.5,15,,,,,,,,
,,,,,,,,,,,,,,,758,2022-01-20_15h15.20.607,multiplicationStroop,2021.2.3,Win32,59.95922773,,,,,,,,,,,,,,,,,,,,,,,,,,,,,,,,,12,2.2995,1,0,34,34,11,1,2,×,6,2 × 6,neutral,smallerFirst,1.5,1.5,12,,,,,,,,
,,,,,,,,,,,,,,,758,2022-01-20_15h15.20.607,multiplicationStroop,2021.2.3,Win32,59.95922773,,,,,,,,,,,,,,,,,,,,,,,,,,,,,,,,,32,3.2325,1,0,35,35,9,1,4,×,8,4 × 8,neutral,smallerFirst,1.5,1.5,32,,,,,,,,
,,,,,,,,,,,,,,,758,2022-01-20_15h15.20.607,multiplicationStroop,2021.2.3,Win32,59.95922773,,,,,,,,,,,,,,,,,,,,,,,,,,,,,,,,,,,,,,,,,,,,,,,,,,0,1,1,0,1,stimulusFile/mult_blk1.xlsx,,
,,,,,,,,,,,,,,,758,2022-01-20_15h15.20.607,multiplicationStroop,2021.2.3,Win32,59.95922773,,,,,,,,,,,,,,,,,,,,,,,,,,,,,,,space,1.2975,24,12.4974,1,0,0,0,2,1,4,×,6,4 × 6,neutral,smallerFirst,1.5,1.5,24,,,,,,,,
,,,,,,,,,,,,,,,758,2022-01-20_15h15.20.607,multiplicationStroop,2021.2.3,Win32,59.95922773,,,,,,,,,,,,,,,,,,,,,,,,,,,,,,,,,49,30.4181,1,0,1,1,33,1,7,×,7,7 × 7,neutral,tie,1.5,1.5,49,,,,,,,,
,,,,,,,,,,,,,,,758,2022-01-20_15h15.20.607,multiplicationStroop,2021.2.3,Win32,59.95922773,,,,,,,,,,,,,,,,,,,,,,,,,,,,,,,,,8,2.0387,1,0,2,2,3,1,2,×,4,2 × 4,neutral,smallerFirst,1.5,1.5,8,,,,,,,,
,,,,,,,,,,,,,,,758,2022-01-20_15h15.20.607,multiplicationStroop,2021.2.3,Win32,59.95922773,,,,,,,,,,,,,,,,,,,,,,,,,,,,,,,,,36,2.2829,1,0,3,3,32,1,6,×,6,6 × 6,neutral,tie,1.5,1.5,36,,,,,,,,
,,,,,,,,,,,,,,,758,2022-01-20_15h15.20.607,multiplicationStroop,2021.2.3,Win32,59.95922773,,,,,,,,,,,,,,,,,,,,,,,,,,,,,,,,,25,1.6826,1,0,4,4,31,1,5,×,5,5 × 5,neutral,tie,1.5,1.5,25,,,,,,,,
,,,,,,,,,,,,,,,758,2022-01-20_15h15.20.607,multiplicationStroop,2021.2.3,Win32,59.95922773,,,,,,,,,,,,,,,,,,,,,,,,,,,,,,,,,32,18.5469,1,0,5,5,23,1,8,×,4,8 × 4,neutral,largerFirst,1.5,1.5,32,,,,,,,,
,,,,,,,,,,,,,,,758,2022-01-20_15h15.20.607,multiplicationStroop,2021.2.3,Win32,59.95922773,,,,,,,,,,,,,,,,,,,,,,,,,,,,,,,,,56,3.6394,1,0,6,6,9,1,7,×,8,7 × 8,neutral,smallerFirst,1.5,1.5,56,,,,,,,,
,,,,,,,,,,,,,,,758,2022-01-20_15h15.20.607,multiplicationStroop,2021.2.3,Win32,59.95922773,,,,,,,,,,,,,,,,,,,,,,,,,,,,,,,,,63,3.2656,1,0,7,7,12,1,7,×,9,7 × 9,neutral,smallerFirst,1.5,1.5,63,,,,,,,,
,,,,,,,,,,,,,,,758,2022-01-20_15h15.20.607,multiplicationStroop,2021.2.3,Win32,59.95922773,,,,,,,,,,,,,,,,,,,,,,,,,,,,,,,,,21,12.6217,1,0,8,8,8,1,3,×,7,3 × 7,neutral,smallerFirst,1.5,1.5,21,,,,,,,,
,,,,,,,,,,,,,,,758,2022-01-20_15h15.20.607,multiplicationStroop,2021.2.3,Win32,59.95922773,,,,,,,,,,,,,,,,,,,,,,,,,,,,,,,,,42,3.6386,1,0,9,9,6,1,6,×,7,6 × 7,neutral,smallerFirst,1.5,1.5,42,,,,,,,,
,,,,,,,,,,,,,,,758,2022-01-20_15h15.20.607,multiplicationStroop,2021.2.3,Win32,59.95922773,,,,,,,,,,,,,,,,,,,,,,,,,,,,,,,,,10,2.2165,1,0,10,10,4,1,2,×,5,2 × 5,neutral,smallerFirst,1.5,1.5,10,,,,,,,,
,,,,,,,,,,,,,,,758,2022-01-20_15h15.20.607,multiplicationStroop,2021.2.3,Win32,59.95922773,,,,,,,,,,,,,,,,,,,,,,,,,,,,,,,,,20,3.1825,1,0,11,11,20,1,5,×,4,5 × 4,neutral,largerFirst,1.5,1.5,20,,,,,,,,
,,,,,,,,,,,,,,,758,2022-01-20_15h15.20.607,multiplicationStroop,2021.2.3,Win32,59.95922773,,,,,,,,,,,,,,,,,,,,,,,,,,,,,,,,,16,2.2395,1,0,12,12,13,1,2,×,8,2 × 8,neutral,smallerFirst,1.5,1.5,16,,,,,,,,
,,,,,,,,,,,,,,,758,2022-01-20_15h15.20.607,multiplicationStroop,2021.2.3,Win32,59.95922773,,,,,,,,,,,,,,,,,,,,,,,,,,,,,,,,,48,2.6161,1,0,13,13,15,1,8,×,6,8 × 6,neutral,largerFirst,1.5,1.5,48,,,,,,,,
,,,,,,,,,,,,,,,758,2022-01-20_15h15.20.607,multiplicationStroop,2021.2.3,Win32,59.95922773,,,,,,,,,,,,,,,,,,,,,,,,,,,,,,,,,64,2.4989,1,0,14,14,34,1,8,×,8,8 × 8,neutral,tie,1.5,1.5,64,,,,,,,,
,,,,,,,,,,,,,,,758,2022-01-20_15h15.20.607,multiplicationStroop,2021.2.3,Win32,59.95922773,,,,,,,,,,,,,,,,,,,,,,,,,,,,,,,,,15,11.2907,1,0,15,15,5,1,3,×,5,3 × 5,neutral,smallerFirst,1.5,1.5,15,,,,,,,,
,,,,,,,,,,,,,,,758,2022-01-20_15h15.20.607,multiplicationStroop,2021.2.3,Win32,59.95922773,,,,,,,,,,,,,,,,,,,,,,,,,,,,,,,,,36,27.5192,1,0,16,16,27,1,9,×,4,9 × 4,neutral,largerFirst,1.5,1.5,36,,,,,,,,
,,,,,,,,,,,,,,,758,2022-01-20_15h15.20.607,multiplicationStroop,2021.2.3,Win32,59.95922773,,,,,,,,,,,,,,,,,,,,,,,,,,,,,,,,,16,2.3891,1,0,17,17,30,1,4,×,4,4 × 4,neutral,tie,1.5,1.5,16,,,,,,,,
,,,,,,,,,,,,,,,758,2022-01-20_15h15.20.607,multiplicationStroop,2021.2.3,Win32,59.95922773,,,,,,,,,,,,,,,,,,,,,,,,,,,,,,,,,28,5.0991,1,0,18,18,17,1,7,×,4,7 × 4,neutral,largerFirst,1.5,1.5,28,,,,,,,,
,,,,,,,,,,,,,,,758,2022-01-20_15h15.20.607,multiplicationStroop,2021.2.3,Win32,59.95922773,,,,,,,,,,,,,,,,,,,,,,,,,,,,,,,,,18,8.9721,1,0,19,19,0,1,3,×,6,3 × 6,neutral,smallerFirst,1.5,1.5,18,,,,,,,,
,,,,,,,,,,,,,,,758,2022-01-20_15h15.20.607,multiplicationStroop,2021.2.3,Win32,59.95922773,,,,,,,,,,,,,,,,,,,,,,,,,,,,,,,,,27,6.0219,1,0,20,20,14,1,9,×,3,9 × 3,neutral,largerFirst,1.5,1.5,27,,,,,,,,
,,,,,,,,,,,,,,,758,2022-01-20_15h15.20.607,multiplicationStroop,2021.2.3,Win32,59.95922773,,,,,,,,,,,,,,,,,,,,,,,,,,,,,,,,,6,1.6896,1,0,21,21,26,1,3,×,2,3 × 2,neutral,largerFirst,1.5,1.5,6,,,,,,,,
,,,,,,,,,,,,,,,758,2022-01-20_15h15.20.607,multiplicationStroop,2021.2.3,Win32,59.95922773,,,,,,,,,,,,,,,,,,,,,,,,,,,,,,,,,24,3.3658,1,0,22,22,22,1,8,×,3,8 × 3,neutral,largerFirst,1.5,1.5,24,,,,,,,,
,,,,,,,,,,,,,,,758,2022-01-20_15h15.20.607,multiplicationStroop,2021.2.3,Win32,59.95922773,,,,,,,,,,,,,,,,,,,,,,,,,,,,,,,,,14,1.5397,1,0,23,23,16,1,7,×,2,7 × 2,neutral,largerFirst,1.5,1.5,14,,,,,,,,
,,,,,,,,,,,,,,,758,2022-01-20_15h15.20.607,multiplicationStroop,2021.2.3,Win32,59.95922773,,,,,,,,,,,,,,,,,,,,,,,,,,,,,,,,,4,4.5488,1,0,24,24,28,1,2,×,2,2 × 2,neutral,tie,1.5,1.5,4,,,,,,,,
,,,,,,,,,,,,,,,758,2022-01-20_15h15.20.607,multiplicationStroop,2021.2.3,Win32,59.95922773,,,,,,,,,,,,,,,,,,,,,,,,,,,,,,,,,72,6.739,1,0,25,25,11,1,8,×,9,8 × 9,neutral,smallerFirst,1.5,1.5,72,,,,,,,,
,,,,,,,,,,,,,,,758,2022-01-20_15h15.20.607,multiplicationStroop,2021.2.3,Win32,59.95922773,,,,,,,,,,,,,,,,,,,,,,,,,,,,,,,,,18,4.1394,1,0,26,26,18,1,9,×,2,9 × 2,neutral,largerFirst,1.5,1.5,18,,,,,,,,
,,,,,,,,,,,,,,,758,2022-01-20_15h15.20.607,multiplicationStroop,2021.2.3,Win32,59.95922773,,,,,,,,,,,,,,,,,,,,,,,,,,,,,,,,,12,1.6397,1,0,27,27,21,1,4,×,3,4 × 3,neutral,largerFirst,1.5,1.5,12,,,,,,,,
,,,,,,,,,,,,,,,758,2022-01-20_15h15.20.607,multiplicationStroop,2021.2.3,Win32,59.95922773,,,,,,,,,,,,,,,,,,,,,,,,,,,,,,,,,9,2.2493,1,0,28,28,29,1,3,×,3,3 × 3,neutral,tie,1.5,1.5,9,,,,,,,,
,,,,,,,,,,,,,,,758,2022-01-20_15h15.20.607,multiplicationStroop,2021.2.3,Win32,59.95922773,,,,,,,,,,,,,,,,,,,,,,,,,,,,,,,,,35,2.0996,1,0,29,29,1,1,5,×,7,5 × 7,neutral,smallerFirst,1.5,1.5,35,,,,,,,,
,,,,,,,,,,,,,,,758,2022-01-20_15h15.20.607,multiplicationStroop,2021.2.3,Win32,59.95922773,,,,,,,,,,,,,,,,,,,,,,,,,,,,,,,,,45,3.8891,1,0,30,30,10,1,5,×,9,5 × 9,neutral,smallerFirst,1.5,1.5,45,,,,,,,,
,,,,,,,,,,,,,,,758,2022-01-20_15h15.20.607,multiplicationStroop,2021.2.3,Win32,59.95922773,,,,,,,,,,,,,,,,,,,,,,,,,,,,,,,,,30,3.4994,1,0,31,31,19,1,6,×,5,6 × 5,neutral,largerFirst,1.5,1.5,30,,,,,,,,
,,,,,,,,,,,,,,,758,2022-01-20_15h15.20.607,multiplicationStroop,2021.2.3,Win32,59.95922773,,,,,,,,,,,,,,,,,,,,,,,,,,,,,,,,,12,1.3226,1,0,32,32,25,1,6,×,2,6 × 2,neutral,largerFirst,1.5,1.5,12,,,,,,,,
,,,,,,,,,,,,,,,758,2022-01-20_15h15.20.607,multiplicationStroop,2021.2.3,Win32,59.95922773,,,,,,,,,,,,,,,,,,,,,,,,,,,,,,,,,40,1.8495,1,0,33,33,24,1,8,×,5,8 × 5,neutral,largerFirst,1.5,1.5,40,,,,,,,,
,,,,,,,,,,,,,,,758,2022-01-20_15h15.20.607,multiplicationStroop,2021.2.3,Win32,59.95922773,,,,,,,,,,,,,,,,,,,,,,,,,,,,,,,,,81,3.499,1,0,34,34,35,1,9,×,9,9 × 9,neutral,tie,1.5,1.5,81,,,,,,,,
,,,,,,,,,,,,,,,758,2022-01-20_15h15.20.607,multiplicationStroop,2021.2.3,Win32,59.95922773,,,,,,,,,,,,,,,,,,,,,,,,,,,,,,,,,54,1.6898,1,0,35,35,7,1,6,×,9,6 × 9,neutral,smallerFirst,1.5,1.5,54,,,,,,,,
,,,,,,,,,,,,,,,758,2022-01-20_15h15.20.607,multiplicationStroop,2021.2.3,Win32,59.95922773,,,,,,,,,,,,,,,,,,,,,,,,,,,,,,,,,,,,,,,,,,,,,,,,,,0,2,2,1,1,stimulusFile/mult_blk2.xlsx,,
,,,,,,,,,,,,,,,758,2022-01-20_15h15.20.607,multiplicationStroop,2021.2.3,Win32,59.95922773,,,,,,,,,,,,,,,,,,,,,,,,,,,,,,,space,1.116,63,2.766,1,0,0,0,17,1,9,×,7,9 × 7,incongruent,largerFirst,1,2,63,,,,,,,,
,,,,,,,,,,,,,,,758,2022-01-20_15h15.20.607,multiplicationStroop,2021.2.3,Win32,59.95922773,,,,,,,,,,,,,,,,,,,,,,,,,,,,,,,,,45,1.7996,1,0,1,1,8,1,5,×,9,5 × 9,incongruent,smallerFirst,2,1,45,,,,,,,,
,,,,,,,,,,,,,,,758,2022-01-20_15h15.20.607,multiplicationStroop,2021.2.3,Win32,59.95922773,,,,,,,,,,,,,,,,,,,,,,,,,,,,,,,,,24,1.9661,1,0,2,2,23,1,8,×,3,8 × 3,incongruent,largerFirst,1,2,24,,,,,,,,
,,,,,,,,,,,,,,,758,2022-01-20_15h15.20.607,multiplicationStroop,2021.2.3,Win32,59.95922773,,,,,,,,,,,,,,,,,,,,,,,,,,,,,,,,,20,1.7159,1,0,3,3,13,1,4,×,5,4 × 5,incongruent,smallerFirst,2,1,20,,,,,,,,
,,,,,,,,,,,,,,,758,2022-01-20_15h15.20.607,multiplicationStroop,2021.2.3,Win32,59.95922773,,,,,,,,,,,,,,,,,,,,,,,,,,,,,,,,,42,1.8494,1,0,4,4,3,1,6,×,7,6 × 7,incongruent,smallerFirst,2,1,42,,,,,,,,
,,,,,,,,,,,,,,,758,2022-01-20_15h15.20.607,multiplicationStroop,2021.2.3,Win32,59.95922773,,,,,,,,,,,,,,,,,,,,,,,,,,,,,,,,,72,12.4811,1,0,5,5,14,1,9,×,8,9 × 8,incongruent,largerFirst,1,2,72,,,,,,,,
,,,,,,,,,,,,,,,758,2022-01-20_15h15.20.607,multiplicationStroop,2021.2.3,Win32,59.95922773,,,,,,,,,,,,,,,,,,,,,,,,,,,,,,,,,27,3.6058,1,0,6,6,4,1,3,×,9,3 × 9,incongruent,smallerFirst,2,1,27,,,,,,,,
,,,,,,,,,,,,,,,758,2022-01-20_15h15.20.607,multiplicationStroop,2021.2.3,Win32,59.95922773,,,,,,,,,,,,,,,,,,,,,,,,,,,,,,,,,28,5.8488,1,0,7,7,2,1,4,×,7,4 × 7,incongruent,smallerFirst,2,1,28,,,,,,,,
,,,,,,,,,,,,,,,758,2022-01-20_15h15.20.607,multiplicationStroop,2021.2.3,Win32,59.95922773,,,,,,,,,,,,,,,,,,,,,,,,,,,,,,,,,64,15.5715,1,0,8,8,34,1,8,×,8,8 × 8,neutral,tie,2,1,64,,,,,,,,
,,,,,,,,,,,,,,,758,2022-01-20_15h15.20.607,multiplicationStroop,2021.2.3,Win32,59.95922773,,,,,,,,,,,,,,,,,,,,,,,,,,,,,,,,,36,7.1051,1,0,9,9,1,1,4,×,9,4 × 9,incongruent,smallerFirst,2,1,36,,,,,,,,
,,,,,,,,,,,,,,,758,2022-01-20_15h15.20.607,multiplicationStroop,2021.2.3,Win32,59.95922773,,,,,,,,,,,,,,,,,,,,,,,,,,,,,,,,,12,2.5061,1,0,10,10,19,1,4,×,3,4 × 3,incongruent,largerFirst,1,2,12,,,,,,,,
,,,,,,,,,,,,,,,758,2022-01-20_15h15.20.607,multiplicationStroop,2021.2.3,Win32,59.95922773,,,,,,,,,,,,,,,,,,,,,,,,,,,,,,,,,12,2.0327,1,0,11,11,5,1,2,×,6,2 × 6,incongruent,smallerFirst,2,1,12,,,,,,,,
,,,,,,,,,,,,,,,758,2022-01-20_15h15.20.607,multiplicationStroop,2021.2.3,Win32,59.95922773,,,,,,,,,,,,,,,,,,,,,,,,,,,,,,,,,16,2.3327,1,0,12,12,9,1,2,×,8,2 × 8,incongruent,smallerFirst,2,1,16,,,,,,,,
,,,,,,,,,,,,,,,758,2022-01-20_15h15.20.607,multiplicationStroop,2021.2.3,Win32,59.95922773,,,,,,,,,,,,,,,,,,,,,,,,,,,,,,,,,14,1.5494,1,0,13,13,18,1,7,×,2,7 × 2,incongruent,largerFirst,1,2,14,,,,,,,,
,,,,,,,,,,,,,,,758,2022-01-20_15h15.20.607,multiplicationStroop,2021.2.3,Win32,59.95922773,,,,,,,,,,,,,,,,,,,,,,,,,,,,,,,,,54,2.1494,1,0,14,14,20,1,9,×,6,9 × 6,incongruent,largerFirst,1,2,54,,,,,,,,
,,,,,,,,,,,,,,,758,2022-01-20_15h15.20.607,multiplicationStroop,2021.2.3,Win32,59.95922773,,,,,,,,,,,,,,,,,,,,,,,,,,,,,,,,,15,1.7994,1,0,15,15,24,1,5,×,3,5 × 3,incongruent,largerFirst,1,2,15,,,,,,,,
,,,,,,,,,,,,,,,758,2022-01-20_15h15.20.607,multiplicationStroop,2021.2.3,Win32,59.95922773,,,,,,,,,,,,,,,,,,,,,,,,,,,,,,,,,56,7.9984,1,0,16,16,0,1,7,×,8,7 × 8,incongruent,smallerFirst,2,1,56,,,,,,,,
,,,,,,,,,,,,,,,758,2022-01-20_15h15.20.607,multiplicationStroop,2021.2.3,Win32,59.95922773,,,,,,,,,,,,,,,,,,,,,,,,,,,,,,,,,49,2.8724,1,0,17,17,33,1,7,×,7,7 × 7,neutral,tie,2,1,49,,,,,,,,
,,,,,,,,,,,,,,,758,2022-01-20_15h15.20.607,multiplicationStroop,2021.2.3,Win32,59.95922773,,,,,,,,,,,,,,,,,,,,,,,,,,,,,,,,,9,10.8651,1,0,18,18,29,1,3,×,3,3 × 3,neutral,tie,2,1,9,,,,,,,,
,,,,,,,,,,,,,,,758,2022-01-20_15h15.20.607,multiplicationStroop,2021.2.3,Win32,59.95922773,,,,,,,,,,,,,,,,,,,,,,,,,,,,,,,,,48,4.4386,1,0,19,19,15,1,8,×,6,8 × 6,incongruent,largerFirst,1,2,48,,,,,,,,
,,,,,,,,,,,,,,,758,2022-01-20_15h15.20.607,multiplicationStroop,2021.2.3,Win32,59.95922773,,,,,,,,,,,,,,,,,,,,,,,,,,,,,,,,,24,4.7896,1,0,20,20,6,1,4,×,6,4 × 6,incongruent,smallerFirst,2,1,24,,,,,,,,
,,,,,,,,,,,,,,,758,2022-01-20_15h15.20.607,multiplicationStroop,2021.2.3,Win32,59.95922773,,,,,,,,,,,,,,,,,,,,,,,,,,,,,,,,,16,2.8227,1,0,21,21,30,1,4,×,4,4 × 4,neutral,tie,2,1,16,,,,,,,,
,,,,,,,,,,,,,,,758,2022-01-20_15h15.20.607,multiplicationStroop,2021.2.3,Win32,59.95922773,,,,,,,,,,,,,,,,,,,,,,,,,,,,,,,,,32,10.0054,1,0,22,22,21,1,8,×,4,8 × 4,incongruent,largerFirst,1,2,32,,,,,,,,
,,,,,,,,,,,,,,,758,2022-01-20_15h15.20.607,multiplicationStroop,2021.2.3,Win32,59.95922773,,,,,,,,,,,,,,,,,,,,,,,,,,,,,,,,,10,1.687,1,0,23,23,7,1,2,×,5,2 × 5,incongruent,smallerFirst,2,1,10,,,,,,,,
,,,,,,,,,,,,,,,758,2022-01-20_15h15.20.607,multiplicationStroop,2021.2.3,Win32,59.95922773,,,,,,,,,,,,,,,,,,,,,,,,,,,,,,,,,30,2.5831,1,0,24,24,11,1,5,×,6,5 × 6,incongruent,smallerFirst,2,1,30,,,,,,,,
,,,,,,,,,,,,,,,758,2022-01-20_15h15.20.607,multiplicationStroop,2021.2.3,Win32,59.95922773,,,,,,,,,,,,,,,,,,,,,,,,,,,,,,,,,25,1.7561,1,0,25,25,31,1,5,×,5,5 × 5,neutral,tie,2,1,25,,,,,,,,
,,,,,,,,,,,,,,,758,2022-01-20_15h15.20.607,multiplicationStroop,2021.2.3,Win32,59.95922773,,,,,,,,,,,,,,,,,,,,,,,,,,,,,,,,,18,1.7994,1,0,26,26,16,1,9,×,2,9 × 2,incongruent,largerFirst,1,2,18,,,,,,,,
,,,,,,,,,,,,,,,758,2022-01-20_15h15.20.607,multiplicationStroop,2021.2.3,Win32,59.95922773,,,,,,,,,,,,,,,,,,,,,,,,,,,,,,,,,8,1.9665,1,0,27,27,10,1,2,×,4,2 × 4,incongruent,smallerFirst,2,1,8,,,,,,,,
,,,,,,,,,,,,,,,758,2022-01-20_15h15.20.607,multiplicationStroop,2021.2.3,Win32,59.95922773,,,,,,,,,,,,,,,,,,,,,,,,,,,,,,,,,4,1.416,1,0,28,28,28,1,2,×,2,2 × 2,neutral,tie,2,1,4,,,,,,,,
,,,,,,,,,,,,,,,758,2022-01-20_15h15.20.607,multiplicationStroop,2021.2.3,Win32,59.95922773,,,,,,,,,,,,,,,,,,,,,,,,,,,,,,,,,6,1.8991,1,0,29,29,25,1,3,×,2,3 × 2,incongruent,largerFirst,1,2,6,,,,,,,,
,,,,,,,,,,,,,,,758,2022-01-20_15h15.20.607,multiplicationStroop,2021.2.3,Win32,59.95922773,,,,,,,,,,,,,,,,,,,,,,,,,,,,,,,,,36,2.5995,1,0,30,30,32,1,6,×,6,6 × 6,neutral,tie,2,1,36,,,,,,,,
,,,,,,,,,,,,,,,758,2022-01-20_15h15.20.607,multiplicationStroop,2021.2.3,Win32,59.95922773,,,,,,,,,,,,,,,,,,,,,,,,,,,,,,,,,81,2.8826,1,0,31,31,35,1,9,×,9,9 × 9,neutral,tie,2,1,81,,,,,,,,
,,,,,,,,,,,,,,,758,2022-01-20_15h15.20.607,multiplicationStroop,2021.2.3,Win32,59.95922773,,,,,,,,,,,,,,,,,,,,,,,,,,,,,,,,,21,3.6395,1,0,32,32,12,1,3,×,7,3 × 7,incongruent,smallerFirst,2,1,21,,,,,,,,
,,,,,,,,,,,,,,,758,2022-01-20_15h15.20.607,multiplicationStroop,2021.2.3,Win32,59.95922773,,,,,,,,,,,,,,,,,,,,,,,,,,,,,,,,,35,3.1225,1,0,33,33,26,1,7,×,5,7 × 5,incongruent,largerFirst,1,2,35,,,,,,,,
,,,,,,,,,,,,,,,758,2022-01-20_15h15.20.607,multiplicationStroop,2021.2.3,Win32,59.95922773,,,,,,,,,,,,,,,,,,,,,,,,,,,,,,,,,40,2.1829,1,0,34,34,27,1,8,×,5,8 × 5,incongruent,largerFirst,1,2,40,,,,,,,,
,,,,,,,,,,,,,,,758,2022-01-20_15h15.20.607,multiplicationStroop,2021.2.3,Win32,59.95922773,,,,,,,,,,,,,,,,,,,,,,,,,,,,,,,,,18,1.9161,1,0,35,35,22,1,6,×,3,6 × 3,incongruent,largerFirst,1,2,18,,,,,,,,
,,,,,,,,,,,,,,,758,2022-01-20_15h15.20.607,multiplicationStroop,2021.2.3,Win32,59.95922773,,,,,,,,,,,,,,,,,,,,,,,,,,,,,,,,,,,,,,,,,,,,,,,,,,0,3,3,4,1,stimulusFile/mult_blk5_INcongruent.xlsx,,
,,,,,,,,,,,,,,,758,2022-01-20_15h15.20.607,multiplicationStroop,2021.2.3,Win32,59.95922773,,,,,,,,,,,,,,,,,,,,,,,,,,,,,,,space,0.9221,25,8.3499,1,0,0,0,31,1,5,×,5,5 × 5,neutral,tie,1,2,25,,,,,,,,
,,,,,,,,,,,,,,,758,2022-01-20_15h15.20.607,multiplicationStroop,2021.2.3,Win32,59.95922773,,,,,,,,,,,,,,,,,,,,,,,,,,,,,,,,,4,35.0687,1,0,1,1,28,1,2,×,2,2 × 2,neutral,tie,1,2,4,,,,,,,,
,,,,,,,,,,,,,,,758,2022-01-20_15h15.20.607,multiplicationStroop,2021.2.3,Win32,59.95922773,,,,,,,,,,,,,,,,,,,,,,,,,,,,,,,,,27,2.7223,1,0,2,2,12,1,3,×,9,3 × 9,congruent,smallerFirst,1,2,27,,,,,,,,
,,,,,,,,,,,,,,,758,2022-01-20_15h15.20.607,multiplicationStroop,2021.2.3,Win32,59.95922773,,,,,,,,,,,,,,,,,,,,,,,,,,,,,,,,,32,3.8324,1,0,3,3,6,1,4,×,8,4 × 8,congruent,smallerFirst,1,2,32,,,,,,,,
,,,,,,,,,,,,,,,758,2022-01-20_15h15.20.607,multiplicationStroop,2021.2.3,Win32,59.95922773,,,,,,,,,,,,,,,,,,,,,,,,,,,,,,,,,16,2.7225,1,0,4,4,19,1,8,×,2,8 × 2,congruent,largerFirst,2,1,16,,,,,,,,
,,,,,,,,,,,,,,,758,2022-01-20_15h15.20.607,multiplicationStroop,2021.2.3,Win32,59.95922773,,,,,,,,,,,,,,,,,,,,,,,,,,,,,,,,,6,1.6329,1,0,5,5,27,1,3,×,2,3 × 2,congruent,largerFirst,2,1,6,,,,,,,,
,,,,,,,,,,,,,,,758,2022-01-20_15h15.20.607,multiplicationStroop,2021.2.3,Win32,59.95922773,,,,,,,,,,,,,,,,,,,,,,,,,,,,,,,,,18,1.8662,1,0,6,6,8,1,2,×,9,2 × 9,congruent,smallerFirst,1,2,18,,,,,,,,
,,,,,,,,,,,,,,,758,2022-01-20_15h15.20.607,multiplicationStroop,2021.2.3,Win32,59.95922773,,,,,,,,,,,,,,,,,,,,,,,,,,,,,,,,,14,2.9492,1,0,7,7,0,1,2,×,7,2 × 7,congruent,smallerFirst,1,2,14,,,,,,,,
,,,,,,,,,,,,,,,758,2022-01-20_15h15.20.607,multiplicationStroop,2021.2.3,Win32,59.95922773,,,,,,,,,,,,,,,,,,,,,,,,,,,,,,,,,12,2.4493,1,0,8,8,16,1,4,×,3,4 × 3,congruent,largerFirst,2,1,12,,,,,,,,
,,,,,,,,,,,,,,,758,2022-01-20_15h15.20.607,multiplicationStroop,2021.2.3,Win32,59.95922773,,,,,,,,,,,,,,,,,,,,,,,,,,,,,,,,,24,1.9228,1,0,9,9,11,1,4,×,6,4 × 6,congruent,smallerFirst,1,2,24,,,,,,,,
,,,,,,,,,,,,,,,758,2022-01-20_15h15.20.607,multiplicationStroop,2021.2.3,Win32,59.95922773,,,,,,,,,,,,,,,,,,,,,,,,,,,,,,,,,81,2.8495,1,0,10,10,35,1,9,×,9,9 × 9,neutral,tie,1,2,81,,,,,,,,
,,,,,,,,,,,,,,,758,2022-01-20_15h15.20.607,multiplicationStroop,2021.2.3,Win32,59.95922773,,,,,,,,,,,,,,,,,,,,,,,,,,,,,,,,,42,3.0992,1,0,11,11,17,1,7,×,6,7 × 6,congruent,largerFirst,2,1,42,,,,,,,,
,,,,,,,,,,,,,,,758,2022-01-20_15h15.20.607,multiplicationStroop,2021.2.3,Win32,59.95922773,,,,,,,,,,,,,,,,,,,,,,,,,,,,,,,,,64,2.5561,1,0,12,12,34,1,8,×,8,8 × 8,neutral,tie,1,2,64,,,,,,,,
,,,,,,,,,,,,,,,758,2022-01-20_15h15.20.607,multiplicationStroop,2021.2.3,Win32,59.95922773,,,,,,,,,,,,,,,,,,,,,,,,,,,,,,,,,63,36.1448,1,0,13,13,7,1,7,×,9,7 × 9,congruent,smallerFirst,1,2,63,,,,,,,,
,,,,,,,,,,,,,,,758,2022-01-20_15h15.20.607,multiplicationStroop,2021.2.3,Win32,59.95922773,,,,,,,,,,,,,,,,,,,,,,,,,,,,,,,,,40,2.1386,1,0,14,14,20,1,8,×,5,8 × 5,congruent,largerFirst,2,1,40,,,,,,,,
,,,,,,,,,,,,,,,758,2022-01-20_15h15.20.607,multiplicationStroop,2021.2.3,Win32,59.95922773,,,,,,,,,,,,,,,,,,,,,,,,,,,,,,,,,48,2.4826,1,0,15,15,4,1,6,×,8,6 × 8,congruent,smallerFirst,1,2,48,,,,,,,,
,,,,,,,,,,,,,,,758,2022-01-20_15h15.20.607,multiplicationStroop,2021.2.3,Win32,59.95922773,,,,,,,,,,,,,,,,,,,,,,,,,,,,,,,,,49,5.6321,1,0,16,16,33,1,7,×,7,7 × 7,neutral,tie,1,2,49,,,,,,,,
,,,,,,,,,,,,,,,758,2022-01-20_15h15.20.607,multiplicationStroop,2021.2.3,Win32,59.95922773,,,,,,,,,,,,,,,,,,,,,,,,,,,,,,,,,15,1.8235,1,0,17,17,18,1,5,×,3,5 × 3,congruent,largerFirst,2,1,15,,,,,,,,
,,,,,,,,,,,,,,,758,2022-01-20_15h15.20.607,multiplicationStroop,2021.2.3,Win32,59.95922773,,,,,,,,,,,,,,,,,,,,,,,,,,,,,,,,,28,2.4825,1,0,18,18,13,1,4,×,7,4 × 7,congruent,smallerFirst,1,2,28,,,,,,,,
,,,,,,,,,,,,,,,758,2022-01-20_15h15.20.607,multiplicationStroop,2021.2.3,Win32,59.95922773,,,,,,,,,,,,,,,,,,,,,,,,,,,,,,,,,12,1.3495,1,0,19,19,5,1,2,×,6,2 × 6,congruent,smallerFirst,1,2,12,,,,,,,,
,,,,,,,,,,,,,,,758,2022-01-20_15h15.20.607,multiplicationStroop,2021.2.3,Win32,59.95922773,,,,,,,,,,,,,,,,,,,,,,,,,,,,,,,,,54,2.3659,1,0,20,20,26,1,9,×,6,9 × 6,congruent,largerFirst,2,1,54,,,,,,,,
,,,,,,,,,,,,,,,758,2022-01-20_15h15.20.607,multiplicationStroop,2021.2.3,Win32,59.95922773,,,,,,,,,,,,,,,,,,,,,,,,,,,,,,,,,36,2.0896,1,0,21,21,32,1,6,×,6,6 × 6,neutral,tie,1,2,36,,,,,,,,
,,,,,,,,,,,,,,,758,2022-01-20_15h15.20.607,multiplicationStroop,2021.2.3,Win32,59.95922773,,,,,,,,,,,,,,,,,,,,,,,,,,,,,,,,,45,2.4327,1,0,22,22,9,1,5,×,9,5 × 9,congruent,smallerFirst,1,2,45,,,,,,,,
,,,,,,,,,,,,,,,758,2022-01-20_15h15.20.607,multiplicationStroop,2021.2.3,Win32,59.95922773,,,,,,,,,,,,,,,,,,,,,,,,,,,,,,,,,18,1.866,1,0,23,23,25,1,6,×,3,6 × 3,congruent,largerFirst,2,1,18,,,,,,,,
,,,,,,,,,,,,,,,758,2022-01-20_15h15.20.607,multiplicationStroop,2021.2.3,Win32,59.95922773,,,,,,,,,,,,,,,,,,,,,,,,,,,,,,,,,24,2.3317,1,0,24,24,24,1,8,×,3,8 × 3,congruent,largerFirst,2,1,24,,,,,,,,
,,,,,,,,,,,,,,,758,2022-01-20_15h15.20.607,multiplicationStroop,2021.2.3,Win32,59.95922773,,,,,,,,,,,,,,,,,,,,,,,,,,,,,,,,,20,4.5657,1,0,25,25,21,1,5,×,4,5 × 4,congruent,largerFirst,2,1,20,,,,,,,,
,,,,,,,,,,,,,,,758,2022-01-20_15h15.20.607,multiplicationStroop,2021.2.3,Win32,59.95922773,,,,,,,,,,,,,,,,,,,,,,,,,,,,,,,,,35,1.9733,1,0,26,26,15,1,7,×,5,7 × 5,congruent,largerFirst,2,1,35,,,,,,,,
,,,,,,,,,,,,,,,758,2022-01-20_15h15.20.607,multiplicationStroop,2021.2.3,Win32,59.95922773,,,,,,,,,,,,,,,,,,,,,,,,,,,,,,,,,72,2.8991,1,0,27,27,3,1,8,×,9,8 × 9,congruent,smallerFirst,1,2,72,,,,,,,,
,,,,,,,,,,,,,,,758,2022-01-20_15h15.20.607,multiplicationStroop,2021.2.3,Win32,59.95922773,,,,,,,,,,,,,,,,,,,,,,,,,,,,,,,,,30,3.1893,1,0,28,28,1,1,5,×,6,5 × 6,congruent,smallerFirst,1,2,30,,,,,,,,
,,,,,,,,,,,,,,,758,2022-01-20_15h15.20.607,multiplicationStroop,2021.2.3,Win32,59.95922773,,,,,,,,,,,,,,,,,,,,,,,,,,,,,,,,,10,4.6986,1,0,29,29,10,1,2,×,5,2 × 5,congruent,smallerFirst,1,2,10,,,,,,,,
,,,,,,,,,,,,,,,758,2022-01-20_15h15.20.607,multiplicationStroop,2021.2.3,Win32,59.95922773,,,,,,,,,,,,,,,,,,,,,,,,,,,,,,,,,16,2.5231,1,0,30,30,30,1,4,×,4,4 × 4,neutral,tie,1,2,16,,,,,,,,
,,,,,,,,,,,,,,,758,2022-01-20_15h15.20.607,multiplicationStroop,2021.2.3,Win32,59.95922773,,,,,,,,,,,,,,,,,,,,,,,,,,,,,,,,,9,1.7823,1,0,31,31,29,1,3,×,3,3 × 3,neutral,tie,1,2,9,,,,,,,,
,,,,,,,,,,,,,,,758,2022-01-20_15h15.20.607,multiplicationStroop,2021.2.3,Win32,59.95922773,,,,,,,,,,,,,,,,,,,,,,,,,,,,,,,,,56,7.4322,1,0,32,32,22,1,8,×,7,8 × 7,congruent,largerFirst,2,1,56,,,,,,,,
,,,,,,,,,,,,,,,758,2022-01-20_15h15.20.607,multiplicationStroop,2021.2.3,Win32,59.95922773,,,,,,,,,,,,,,,,,,,,,,,,,,,,,,,,,8,2.2395,1,0,33,33,23,1,4,×,2,4 × 2,congruent,largerFirst,2,1,8,,,,,,,,
,,,,,,,,,,,,,,,758,2022-01-20_15h15.20.607,multiplicationStroop,2021.2.3,Win32,59.95922773,,,,,,,,,,,,,,,,,,,,,,,,,,,,,,,,,36,3.2161,1,0,34,34,14,1,9,×,4,9 × 4,congruent,largerFirst,2,1,36,,,,,,,,
,,,,,,,,,,,,,,,758,2022-01-20_15h15.20.607,multiplicationStroop,2021.2.3,Win32,59.95922773,,,,,,,,,,,,,,,,,,,,,,,,,,,,,,,,,21,1.6159,1,0,35,35,2,1,3,×,7,3 × 7,congruent,smallerFirst,1,2,21,,,,,,,,
,,,,,,,,,,,,,,,758,2022-01-20_15h15.20.607,multiplicationStroop,2021.2.3,Win32,59.95922773,,,,,,,,,,,,,,,,,,,,,,,,,,,,,,,,,,,,,,,,,,,,,,,,,,0,4,4,3,1,stimulusFile/mult_blk4_congruent.xlsx,,
,,,,,,,,,,,,,,,758,2022-01-20_15h15.20.607,multiplicationStroop,2021.2.3,Win32,59.95922773,,,,,,,,,,,,,,,,,,,,,,,,,,,,,,,space,1.071,56,2.0305,1,0,0,0,8,1,7,×,8,7 × 8,congruent,smallerFirst,1,2,56,,,,,,,,
,,,,,,,,,,,,,,,758,2022-01-20_15h15.20.607,multiplicationStroop,2021.2.3,Win32,59.95922773,,,,,,,,,,,,,,,,,,,,,,,,,,,,,,,,,12,1.6827,1,0,1,1,2,1,3,×,4,3 × 4,congruent,smallerFirst,1,2,12,,,,,,,,
,,,,,,,,,,,,,,,758,2022-01-20_15h15.20.607,multiplicationStroop,2021.2.3,Win32,59.95922773,,,,,,,,,,,,,,,,,,,,,,,,,,,,,,,,,21,1.5826,1,0,2,2,16,1,7,×,3,7 × 3,congruent,largerFirst,2,1,21,,,,,,,,
,,,,,,,,,,,,,,,758,2022-01-20_15h15.20.607,multiplicationStroop,2021.2.3,Win32,59.95922773,,,,,,,,,,,,,,,,,,,,,,,,,,,,,,,,,15,1.816,1,0,3,3,4,1,3,×,5,3 × 5,congruent,smallerFirst,1,2,15,,,,,,,,
,,,,,,,,,,,,,,,758,2022-01-20_15h15.20.607,multiplicationStroop,2021.2.3,Win32,59.95922773,,,,,,,,,,,,,,,,,,,,,,,,,,,,,,,,,16,1.8992,1,0,4,4,5,1,2,×,8,2 × 8,congruent,smallerFirst,1,2,16,,,,,,,,
,,,,,,,,,,,,,,,758,2022-01-20_15h15.20.607,multiplicationStroop,2021.2.3,Win32,59.95922773,,,,,,,,,,,,,,,,,,,,,,,,,,,,,,,,,4,1.3496,1,0,5,5,28,1,2,×,2,2 × 2,neutral,tie,2,1,4,,,,,,,,
,,,,,,,,,,,,,,,758,2022-01-20_15h15.20.607,multiplicationStroop,2021.2.3,Win32,59.95922773,,,,,,,,,,,,,,,,,,,,,,,,,,,,,,,,,36,2.566,1,0,6,6,0,1,4,×,9,4 × 9,congruent,smallerFirst,1,2,36,,,,,,,,
,,,,,,,,,,,,,,,758,2022-01-20_15h15.20.607,multiplicationStroop,2021.2.3,Win32,59.95922773,,,,,,,,,,,,,,,,,,,,,,,,,,,,,,,,,42,1.9493,1,0,7,7,3,1,6,×,7,6 × 7,congruent,smallerFirst,1,2,42,,,,,,,,
,,,,,,,,,,,,,,,758,2022-01-20_15h15.20.607,multiplicationStroop,2021.2.3,Win32,59.95922773,,,,,,,,,,,,,,,,,,,,,,,,,,,,,,,,,6,1.8827,1,0,8,8,13,1,2,×,3,2 × 3,congruent,smallerFirst,1,2,6,,,,,,,,
,,,,,,,,,,,,,,,758,2022-01-20_15h15.20.607,multiplicationStroop,2021.2.3,Win32,59.95922773,,,,,,,,,,,,,,,,,,,,,,,,,,,,,,,,,72,5.5156,1,0,9,9,17,1,9,×,8,9 × 8,congruent,largerFirst,2,1,72,,,,,,,,
,,,,,,,,,,,,,,,758,2022-01-20_15h15.20.607,multiplicationStroop,2021.2.3,Win32,59.95922773,,,,,,,,,,,,,,,,,,,,,,,,,,,,,,,,,20,1.6232,1,0,10,10,7,1,4,×,5,4 × 5,congruent,smallerFirst,1,2,20,,,,,,,,
,,,,,,,,,,,,,,,758,2022-01-20_15h15.20.607,multiplicationStroop,2021.2.3,Win32,59.95922773,,,,,,,,,,,,,,,,,,,,,,,,,,,,,,,,,35,3.5159,1,0,11,11,1,1,5,×,7,5 × 7,congruent,smallerFirst,1,2,35,,,,,,,,
,,,,,,,,,,,,,,,758,2022-01-20_15h15.20.607,multiplicationStroop,2021.2.3,Win32,59.95922773,,,,,,,,,,,,,,,,,,,,,,,,,,,,,,,,,36,3.7824,1,0,12,12,32,1,6,×,6,6 × 6,neutral,tie,2,1,36,,,,,,,,
,,,,,,,,,,,,,,,758,2022-01-20_15h15.20.607,multiplicationStroop,2021.2.3,Win32,59.95922773,,,,,,,,,,,,,,,,,,,,,,,,,,,,,,,,,12,1.5231,1,0,13,13,19,1,6,×,2,6 × 2,congruent,largerFirst,2,1,12,,,,,,,,
,,,,,,,,,,,,,,,758,2022-01-20_15h15.20.607,multiplicationStroop,2021.2.3,Win32,59.95922773,,,,,,,,,,,,,,,,,,,,,,,,,,,,,,,,,56,3.7652,0,0,14,14,21,1,9,×,7,9 × 7,congruent,largerFirst,2,1,63,,,,,,,,
,,,,,,,,,,,,,,,758,2022-01-20_15h15.20.607,multiplicationStroop,2021.2.3,Win32,59.95922773,,,,,,,,,,,,,,,,,,,,,,,,,,,,,,,,,32,3.5228,1,0,15,15,20,1,8,×,4,8 × 4,congruent,largerFirst,2,1,32,,,,,,,,
,,,,,,,,,,,,,,,758,2022-01-20_15h15.20.607,multiplicationStroop,2021.2.3,Win32,59.95922773,,,,,,,,,,,,,,,,,,,,,,,,,,,,,,,,,18,2.9729,1,0,16,16,11,1,3,×,6,3 × 6,congruent,smallerFirst,1,2,18,,,,,,,,
,,,,,,,,,,,,,,,758,2022-01-20_15h15.20.607,multiplicationStroop,2021.2.3,Win32,59.95922773,,,,,,,,,,,,,,,,,,,,,,,,,,,,,,,,,9,1.7327,1,0,17,17,29,1,3,×,3,3 × 3,neutral,tie,2,1,9,,,,,,,,
,,,,,,,,,,,,,,,758,2022-01-20_15h15.20.607,multiplicationStroop,2021.2.3,Win32,59.95922773,,,,,,,,,,,,,,,,,,,,,,,,,,,,,,,,,18,2.8658,1,0,18,18,22,1,9,×,2,9 × 2,congruent,largerFirst,2,1,18,,,,,,,,
,,,,,,,,,,,,,,,758,2022-01-20_15h15.20.607,multiplicationStroop,2021.2.3,Win32,59.95922773,,,,,,,,,,,,,,,,,,,,,,,,,,,,,,,,,10,194.2416,1,0,19,19,24,1,5,×,2,5 × 2,congruent,largerFirst,2,1,10,,,,,,,,
,,,,,,,,,,,,,,,758,2022-01-20_15h15.20.607,multiplicationStroop,2021.2.3,Win32,59.95922773,,,,,,,,,,,,,,,,,,,,,,,,,,,,,,,,,64,2.1388,1,0,20,20,34,1,8,×,8,8 × 8,neutral,tie,2,1,64,,,,,,,,
,,,,,,,,,,,,,,,758,2022-01-20_15h15.20.607,multiplicationStroop,2021.2.3,Win32,59.95922773,,,,,,,,,,,,,,,,,,,,,,,,,,,,,,,,,28,2.0659,1,0,21,21,27,1,7,×,4,7 × 4,congruent,largerFirst,2,1,28,,,,,,,,
,,,,,,,,,,,,,,,758,2022-01-20_15h15.20.607,multiplicationStroop,2021.2.3,Win32,59.95922773,,,,,,,,,,,,,,,,,,,,,,,,,,,,,,,,,25,5.9155,1,0,22,22,31,1,5,×,5,5 × 5,neutral,tie,2,1,25,,,,,,,,
,,,,,,,,,,,,,,,758,2022-01-20_15h15.20.607,multiplicationStroop,2021.2.3,Win32,59.95922773,,,,,,,,,,,,,,,,,,,,,,,,,,,,,,,,,30,1.7229,1,0,23,23,15,1,6,×,5,6 × 5,congruent,largerFirst,2,1,30,,,,,,,,
,,,,,,,,,,,,,,,758,2022-01-20_15h15.20.607,multiplicationStroop,2021.2.3,Win32,59.95922773,,,,,,,,,,,,,,,,,,,,,,,,,,,,,,,,,40,1.716,1,0,24,24,6,1,5,×,8,5 × 8,congruent,smallerFirst,1,2,40,,,,,,,,
,,,,,,,,,,,,,,,758,2022-01-20_15h15.20.607,multiplicationStroop,2021.2.3,Win32,59.95922773,,,,,,,,,,,,,,,,,,,,,,,,,,,,,,,,,8,1.7989,1,0,25,25,9,1,2,×,4,2 × 4,congruent,smallerFirst,1,2,8,,,,,,,,
,,,,,,,,,,,,,,,758,2022-01-20_15h15.20.607,multiplicationStroop,2021.2.3,Win32,59.95922773,,,,,,,,,,,,,,,,,,,,,,,,,,,,,,,,,49,2.1329,1,0,26,26,33,1,7,×,7,7 × 7,neutral,tie,2,1,49,,,,,,,,
,,,,,,,,,,,,,,,758,2022-01-20_15h15.20.607,multiplicationStroop,2021.2.3,Win32,59.95922773,,,,,,,,,,,,,,,,,,,,,,,,,,,,,,,,,45,1.6994,1,0,27,27,23,1,9,×,5,9 × 5,congruent,largerFirst,2,1,45,,,,,,,,
,,,,,,,,,,,,,,,758,2022-01-20_15h15.20.607,multiplicationStroop,2021.2.3,Win32,59.95922773,,,,,,,,,,,,,,,,,,,,,,,,,,,,,,,,,54,2.5994,1,0,28,28,12,1,6,×,9,6 × 9,congruent,smallerFirst,1,2,54,,,,,,,,
,,,,,,,,,,,,,,,758,2022-01-20_15h15.20.607,multiplicationStroop,2021.2.3,Win32,59.95922773,,,,,,,,,,,,,,,,,,,,,,,,,,,,,,,,,48,8.2817,1,0,29,29,18,1,8,×,6,8 × 6,congruent,largerFirst,2,1,48,,,,,,,,
,,,,,,,,,,,,,,,758,2022-01-20_15h15.20.607,multiplicationStroop,2021.2.3,Win32,59.95922773,,,,,,,,,,,,,,,,,,,,,,,,,,,,,,,,,24,1.8892,1,0,30,30,25,1,6,×,4,6 × 4,congruent,largerFirst,2,1,24,,,,,,,,
,,,,,,,,,,,,,,,758,2022-01-20_15h15.20.607,multiplicationStroop,2021.2.3,Win32,59.95922773,,,,,,,,,,,,,,,,,,,,,,,,,,,,,,,,,81,2.1159,1,0,31,31,35,1,9,×,9,9 × 9,neutral,tie,2,1,81,,,,,,,,
,,,,,,,,,,,,,,,758,2022-01-20_15h15.20.607,multiplicationStroop,2021.2.3,Win32,59.95922773,,,,,,,,,,,,,,,,,,,,,,,,,,,,,,,,,16,1.6827,1,0,32,32,30,1,4,×,4,4 × 4,neutral,tie,2,1,16,,,,,,,,
,,,,,,,,,,,,,,,758,2022-01-20_15h15.20.607,multiplicationStroop,2021.2.3,Win32,59.95922773,,,,,,,,,,,,,,,,,,,,,,,,,,,,,,,,,14,2.416,1,0,33,33,14,1,7,×,2,7 × 2,congruent,largerFirst,2,1,14,,,,,,,,
,,,,,,,,,,,,,,,758,2022-01-20_15h15.20.607,multiplicationStroop,2021.2.3,Win32,59.95922773,,,,,,,,,,,,,,,,,,,,,,,,,,,,,,,,,27,3.4727,1,0,34,34,26,1,9,×,3,9 × 3,congruent,largerFirst,2,1,27,,,,,,,,
,,,,,,,,,,,,,,,758,2022-01-20_15h15.20.607,multiplicationStroop,2021.2.3,Win32,59.95922773,,,,,,,,,,,,,,,,,,,,,,,,,,,,,,,,,24,1.6161,1,0,35,35,10,1,3,×,8,3 × 8,congruent,smallerFirst,1,2,24,,,,,,,,
,,,,,,,,,,,,,,,758,2022-01-20_15h15.20.607,multiplicationStroop,2021.2.3,Win32,59.95922773,,,,,,,,,,,,,,,,,,,,,,,,,,,,,,,,,,,,,,,,,,,,,,,,,,0,5,5,2,1,stimulusFile/mult_blk3_congruent.xlsx,,
,,,,,,,,,,,,,,,758,2022-01-20_15h15.20.607,multiplicationStroop,2021.2.3,Win32,59.95922773,,,,,,,,,,,,,,,,,,,,,,,,,,,,,,,,,,,,,,,,,,,,,,,,,,,,,,,,space,5.5084