welcomeKey_resp.keys,welcomeKey_resp.rt,X Scale,Y Scale,rt_resp_4.keys,rt_resp_4.corr,rt_resp_4.rt,speedtest_2.thisRepN,speedtest_2.thisTrialN,speedtest_2.thisN,speedtest_2.thisIndex,speedtest_2.ran,numberSc,posX,positionLayout,participant,date,expName,psychopyVersion,OS,frameRate,ct_instrresp.keys,ct_instrresp.rt,key_resp_2.keys,key_resp_2.rt,ct_keyResp.keys,ct_keyResp.corr,ct_keyResp.rt,trials.thisRepN,trials.thisTrialN,trials.thisN,trials.thisIndex,trials.ran,leftNo,rightNo,displayProblem,numDistance,leftNo_size,rightNo_size,Dims,keyAnswer,TS_Loop.thisRepN,TS_Loop.thisTrialN,TS_Loop.thisN,TS_Loop.thisIndex,TS_Loop.ran,Condition,ActionInst,instrImage,mltptaskInst_resp.keys,mltptaskInst_resp.rt,continue_resp_2.keys,continue_resp_2.rt,multp_Answer,multi_RT,multiplyCorr,LoopingMultiply.thisRepN,LoopingMultiply.thisTrialN,LoopingMultiply.thisN,LoopingMultiply.thisIndex,LoopingMultiply.ran,factor1,multiplySign,factor2,multliplyProblem,physicalSize,orderOperand,sizeF1,sizeF2,mult_answer,trials_stroop.thisRepN,trials_stroop.thisTrialN,trials_stroop.thisN,trials_stroop.thisIndex,trials_stroop.ran,multiplicationFile,esckey_resp_2.keys,esckey_resp_2.rt
y,10.8126,44.6,44.6,right,1,0.486,0,0,0,9,1,2,200,right,761,2022-01-21_13h03.43.732,multiplicationStroop,2021.2.3,Win32,59.95563283,,,,,,,,,,,,,,,,,,,,,,,,,,,,,,,,,,,,,,,,,,,,,,,,,,,,,,,,,
,,,,right,1,0.4822,0,1,1,14,1,8,200,right,761,2022-01-21_13h03.43.732,multiplicationStroop,2021.2.3,Win32,59.95563283,,,,,,,,,,,,,,,,,,,,,,,,,,,,,,,,,,,,,,,,,,,,,,,,,,,,,,,,,
,,,,left,1,0.3567,0,2,2,5,1,7,-200,left,761,2022-01-21_13h03.43.732,multiplicationStroop,2021.2.3,Win32,59.95563283,,,,,,,,,,,,,,,,,,,,,,,,,,,,,,,,,,,,,,,,,,,,,,,,,,,,,,,,,
,,,,left,1,0.349,0,3,3,7,1,9,-200,left,761,2022-01-21_13h03.43.732,multiplicationStroop,2021.2.3,Win32,59.95563283,,,,,,,,,,,,,,,,,,,,,,,,,,,,,,,,,,,,,,,,,,,,,,,,,,,,,,,,,
,,,,left,1,0.3316,0,4,4,4,1,6,-200,left,761,2022-01-21_13h03.43.732,multiplicationStroop,2021.2.3,Win32,59.95563283,,,,,,,,,,,,,,,,,,,,,,,,,,,,,,,,,,,,,,,,,,,,,,,,,,,,,,,,,
,,,,right,1,0.3007,0,5,5,8,1,1,200,right,761,2022-01-21_13h03.43.732,multiplicationStroop,2021.2.3,Win32,59.95563283,,,,,,,,,,,,,,,,,,,,,,,,,,,,,,,,,,,,,,,,,,,,,,,,,,,,,,,,,
,,,,right,1,0.3851,0,6,6,10,1,3,200,right,761,2022-01-21_13h03.43.732,multiplicationStroop,2021.2.3,Win32,59.95563283,,,,,,,,,,,,,,,,,,,,,,,,,,,,,,,,,,,,,,,,,,,,,,,,,,,,,,,,,
,,,,left,1,0.3941,0,7,7,1,1,2,-200,left,761,2022-01-21_13h03.43.732,multiplicationStroop,2021.2.3,Win32,59.95563283,,,,,,,,,,,,,,,,,,,,,,,,,,,,,,,,,,,,,,,,,,,,,,,,,,,,,,,,,
,,,,right,1,0.2597,0,8,8,12,1,6,200,right,761,2022-01-21_13h03.43.732,multiplicationStroop,2021.2.3,Win32,59.95563283,,,,,,,,,,,,,,,,,,,,,,,,,,,,,,,,,,,,,,,,,,,,,,,,,,,,,,,,,
,,,,right,1,0.3898,0,9,9,15,1,9,200,right,761,2022-01-21_13h03.43.732,multiplicationStroop,2021.2.3,Win32,59.95563283,,,,,,,,,,,,,,,,,,,,,,,,,,,,,,,,,,,,,,,,,,,,,,,,,,,,,,,,,
,,,,left,1,0.2627,0,10,10,0,1,1,-200,left,761,2022-01-21_13h03.43.732,multiplicationStroop,2021.2.3,Win32,59.95563283,,,,,,,,,,,,,,,,,,,,,,,,,,,,,,,,,,,,,,,,,,,,,,,,,,,,,,,,,
,,,,right,1,0.261,0,11,11,11,1,4,200,right,761,2022-01-21_13h03.43.732,multiplicationStroop,2021.2.3,Win32,59.95563283,,,,,,,,,,,,,,,,,,,,,,,,,,,,,,,,,,,,,,,,,,,,,,,,,,,,,,,,,
,,,,right,1,0.3789,0,12,12,13,1,7,200,right,761,2022-01-21_13h03.43.732,multiplicationStroop,2021.2.3,Win32,59.95563283,,,,,,,,,,,,,,,,,,,,,,,,,,,,,,,,,,,,,,,,,,,,,,,,,,,,,,,,,
,,,,left,1,0.2956,0,13,13,3,1,4,-200,left,761,2022-01-21_13h03.43.732,multiplicationStroop,2021.2.3,Win32,59.95563283,,,,,,,,,,,,,,,,,,,,,,,,,,,,,,,,,,,,,,,,,,,,,,,,,,,,,,,,,
,,,,left,1,0.3903,0,14,14,2,1,3,-200,left,761,2022-01-21_13h03.43.732,multiplicationStroop,2021.2.3,Win32,59.95563283,,,,,,,,,,,,,,,,,,,,,,,,,,,,,,,,,,,,,,,,,,,,,,,,,,,,,,,,,
,,,,left,1,0.3562,0,15,15,6,1,8,-200,left,761,2022-01-21_13h03.43.732,multiplicationStroop,2021.2.3,Win32,59.95563283,,,,,,,,,,,,,,,,,,,,,,,,,,,,,,,,,,,,,,,,,,,,,,,,,,,,,,,,,
,,,,right,1,0.4741,1,0,16,12,1,6,200,right,761,2022-01-21_13h03.43.732,multiplicationStroop,2021.2.3,Win32,59.95563283,,,,,,,,,,,,,,,,,,,,,,,,,,,,,,,,,,,,,,,,,,,,,,,,,,,,,,,,,
,,,,right,1,0.4504,1,1,17,10,1,3,200,right,761,2022-01-21_13h03.43.732,multiplicationStroop,2021.2.3,Win32,59.95563283,,,,,,,,,,,,,,,,,,,,,,,,,,,,,,,,,,,,,,,,,,,,,,,,,,,,,,,,,
,,,,left,1,0.3677,1,2,18,2,1,3,-200,left,761,2022-01-21_13h03.43.732,multiplicationStroop,2021.2.3,Win32,59.95563283,,,,,,,,,,,,,,,,,,,,,,,,,,,,,,,,,,,,,,,,,,,,,,,,,,,,,,,,,
,,,,right,1,0.258,1,3,19,8,1,1,200,right,761,2022-01-21_13h03.43.732,multiplicationStroop,2021.2.3,Win32,59.95563283,,,,,,,,,,,,,,,,,,,,,,,,,,,,,,,,,,,,,,,,,,,,,,,,,,,,,,,,,
,,,,right,1,0.342,1,4,20,14,1,8,200,right,761,2022-01-21_13h03.43.732,multiplicationStroop,2021.2.3,Win32,59.95563283,,,,,,,,,,,,,,,,,,,,,,,,,,,,,,,,,,,,,,,,,,,,,,,,,,,,,,,,,
,,,,left,1,0.2356,1,5,21,4,1,6,-200,left,761,2022-01-21_13h03.43.732,multiplicationStroop,2021.2.3,Win32,59.95563283,,,,,,,,,,,,,,,,,,,,,,,,,,,,,,,,,,,,,,,,,,,,,,,,,,,,,,,,,
,,,,left,1,0.3672,1,6,22,1,1,2,-200,left,761,2022-01-21_13h03.43.732,multiplicationStroop,2021.2.3,Win32,59.95563283,,,,,,,,,,,,,,,,,,,,,,,,,,,,,,,,,,,,,,,,,,,,,,,,,,,,,,,,,
,,,,left,1,0.5521,1,7,23,6,1,8,-200,left,761,2022-01-21_13h03.43.732,multiplicationStroop,2021.2.3,Win32,59.95563283,,,,,,,,,,,,,,,,,,,,,,,,,,,,,,,,,,,,,,,,,,,,,,,,,,,,,,,,,
,,,,left,1,0.4113,1,8,24,3,1,4,-200,left,761,2022-01-21_13h03.43.732,multiplicationStroop,2021.2.3,Win32,59.95563283,,,,,,,,,,,,,,,,,,,,,,,,,,,,,,,,,,,,,,,,,,,,,,,,,,,,,,,,,
,,,,right,1,0.4599,1,9,25,11,1,4,200,right,761,2022-01-21_13h03.43.732,multiplicationStroop,2021.2.3,Win32,59.95563283,,,,,,,,,,,,,,,,,,,,,,,,,,,,,,,,,,,,,,,,,,,,,,,,,,,,,,,,,
,,,,right,1,0.3347,1,10,26,9,1,2,200,right,761,2022-01-21_13h03.43.732,multiplicationStroop,2021.2.3,Win32,59.95563283,,,,,,,,,,,,,,,,,,,,,,,,,,,,,,,,,,,,,,,,,,,,,,,,,,,,,,,,,
,,,,right,0,0.2675,1,11,27,5,1,7,-200,left,761,2022-01-21_13h03.43.732,multiplicationStroop,2021.2.3,Win32,59.95563283,,,,,,,,,,,,,,,,,,,,,,,,,,,,,,,,,,,,,,,,,,,,,,,,,,,,,,,,,
,,,,left,1,0.1308,1,12,28,0,1,1,-200,left,761,2022-01-21_13h03.43.732,multiplicationStroop,2021.2.3,Win32,59.95563283,,,,,,,,,,,,,,,,,,,,,,,,,,,,,,,,,,,,,,,,,,,,,,,,,,,,,,,,,
,,,,left,1,0.4008,1,13,29,7,1,9,-200,left,761,2022-01-21_13h03.43.732,multiplicationStroop,2021.2.3,Win32,59.95563283,,,,,,,,,,,,,,,,,,,,,,,,,,,,,,,,,,,,,,,,,,,,,,,,,,,,,,,,,
,,,,right,1,0.357,1,14,30,15,1,9,200,right,761,2022-01-21_13h03.43.732,multiplicationStroop,2021.2.3,Win32,59.95563283,,,,,,,,,,,,,,,,,,,,,,,,,,,,,,,,,,,,,,,,,,,,,,,,,,,,,,,,,
,,,,right,1,0.306,1,15,31,13,1,7,200,right,761,2022-01-21_13h03.43.732,multiplicationStroop,2021.2.3,Win32,59.95563283,,,,,,,,,,,,,,,,,,,,,,,,,,,,,,,,,,,,,,,,,,,,,,,,,,,,,,,,,
,,,,left,1,0.3937,2,0,32,1,1,2,-200,left,761,2022-01-21_13h03.43.732,multiplicationStroop,2021.2.3,Win32,59.95563283,,,,,,,,,,,,,,,,,,,,,,,,,,,,,,,,,,,,,,,,,,,,,,,,,,,,,,,,,
,,,,left,1,0.2908,2,1,33,5,1,7,-200,left,761,2022-01-21_13h03.43.732,multiplicationStroop,2021.2.3,Win32,59.95563283,,,,,,,,,,,,,,,,,,,,,,,,,,,,,,,,,,,,,,,,,,,,,,,,,,,,,,,,,
,,,,right,1,0.3209,2,2,34,9,1,2,200,right,761,2022-01-21_13h03.43.732,multiplicationStroop,2021.2.3,Win32,59.95563283,,,,,,,,,,,,,,,,,,,,,,,,,,,,,,,,,,,,,,,,,,,,,,,,,,,,,,,,,
,,,,left,1,0.2906,2,3,35,0,1,1,-200,left,761,2022-01-21_13h03.43.732,multiplicationStroop,2021.2.3,Win32,59.95563283,,,,,,,,,,,,,,,,,,,,,,,,,,,,,,,,,,,,,,,,,,,,,,,,,,,,,,,,,
,,,,left,1,0.5897,2,4,36,6,1,8,-200,left,761,2022-01-21_13h03.43.732,multiplicationStroop,2021.2.3,Win32,59.95563283,,,,,,,,,,,,,,,,,,,,,,,,,,,,,,,,,,,,,,,,,,,,,,,,,,,,,,,,,
,,,,left,1,0.4337,2,5,37,2,1,3,-200,left,761,2022-01-21_13h03.43.732,multiplicationStroop,2021.2.3,Win32,59.95563283,,,,,,,,,,,,,,,,,,,,,,,,,,,,,,,,,,,,,,,,,,,,,,,,,,,,,,,,,
,,,,left,1,0.3006,2,6,38,4,1,6,-200,left,761,2022-01-21_13h03.43.732,multiplicationStroop,2021.2.3,Win32,59.95563283,,,,,,,,,,,,,,,,,,,,,,,,,,,,,,,,,,,,,,,,,,,,,,,,,,,,,,,,,
,,,,left,1,0.2693,2,7,39,3,1,4,-200,left,761,2022-01-21_13h03.43.732,multiplicationStroop,2021.2.3,Win32,59.95563283,,,,,,,,,,,,,,,,,,,,,,,,,,,,,,,,,,,,,,,,,,,,,,,,,,,,,,,,,
,,,,left,1,0.282,2,8,40,7,1,9,-200,left,761,2022-01-21_13h03.43.732,multiplicationStroop,2021.2.3,Win32,59.95563283,,,,,,,,,,,,,,,,,,,,,,,,,,,,,,,,,,,,,,,,,,,,,,,,,,,,,,,,,
,,,,right,1,0.4005,2,9,41,11,1,4,200,right,761,2022-01-21_13h03.43.732,multiplicationStroop,2021.2.3,Win32,59.95563283,,,,,,,,,,,,,,,,,,,,,,,,,,,,,,,,,,,,,,,,,,,,,,,,,,,,,,,,,
,,,,right,1,0.4394,2,10,42,14,1,8,200,right,761,2022-01-21_13h03.43.732,multiplicationStroop,2021.2.3,Win32,59.95563283,,,,,,,,,,,,,,,,,,,,,,,,,,,,,,,,,,,,,,,,,,,,,,,,,,,,,,,,,
,,,,right,1,0.2838,2,11,43,13,1,7,200,right,761,2022-01-21_13h03.43.732,multiplicationStroop,2021.2.3,Win32,59.95563283,,,,,,,,,,,,,,,,,,,,,,,,,,,,,,,,,,,,,,,,,,,,,,,,,,,,,,,,,
,,,,right,1,0.2942,2,12,44,15,1,9,200,right,761,2022-01-21_13h03.43.732,multiplicationStroop,2021.2.3,Win32,59.95563283,,,,,,,,,,,,,,,,,,,,,,,,,,,,,,,,,,,,,,,,,,,,,,,,,,,,,,,,,
,,,,right,1,0.2744,2,13,45,8,1,1,200,right,761,2022-01-21_13h03.43.732,multiplicationStroop,2021.2.3,Win32,59.95563283,,,,,,,,,,,,,,,,,,,,,,,,,,,,,,,,,,,,,,,,,,,,,,,,,,,,,,,,,
,,,,right,1,0.2757,2,14,46,10,1,3,200,right,761,2022-01-21_13h03.43.732,multiplicationStroop,2021.2.3,Win32,59.95563283,,,,,,,,,,,,,,,,,,,,,,,,,,,,,,,,,,,,,,,,,,,,,,,,,,,,,,,,,
,,,,right,1,0.2352,2,15,47,12,1,6,200,right,761,2022-01-21_13h03.43.732,multiplicationStroop,2021.2.3,Win32,59.95563283,,,,,,,,,,,,,,,,,,,,,,,,,,,,,,,,,,,,,,,,,,,,,,,,,,,,,,,,,
,,,,right,0,0.2341,3,0,48,0,1,1,-200,left,761,2022-01-21_13h03.43.732,multiplicationStroop,2021.2.3,Win32,59.95563283,,,,,,,,,,,,,,,,,,,,,,,,,,,,,,,,,,,,,,,,,,,,,,,,,,,,,,,,,
,,,,left,0,0.0673,3,1,49,9,1,2,200,right,761,2022-01-21_13h03.43.732,multiplicationStroop,2021.2.3,Win32,59.95563283,,,,,,,,,,,,,,,,,,,,,,,,,,,,,,,,,,,,,,,,,,,,,,,,,,,,,,,,,
,,,,right,1,0.4132,3,2,50,10,1,3,200,right,761,2022-01-21_13h03.43.732,multiplicationStroop,2021.2.3,Win32,59.95563283,,,,,,,,,,,,,,,,,,,,,,,,,,,,,,,,,,,,,,,,,,,,,,,,,,,,,,,,,
,,,,right,1,0.334,3,3,51,8,1,1,200,right,761,2022-01-21_13h03.43.732,multiplicationStroop,2021.2.3,Win32,59.95563283,,,,,,,,,,,,,,,,,,,,,,,,,,,,,,,,,,,,,,,,,,,,,,,,,,,,,,,,,
,,,,left,1,0.8506,3,4,52,3,1,4,-200,left,761,2022-01-21_13h03.43.732,multiplicationStroop,2021.2.3,Win32,59.95563283,,,,,,,,,,,,,,,,,,,,,,,,,,,,,,,,,,,,,,,,,,,,,,,,,,,,,,,,,
,,,,left,1,0.396,3,5,53,2,1,3,-200,left,761,2022-01-21_13h03.43.732,multiplicationStroop,2021.2.3,Win32,59.95563283,,,,,,,,,,,,,,,,,,,,,,,,,,,,,,,,,,,,,,,,,,,,,,,,,,,,,,,,,
,,,,left,1,0.2844,3,6,54,7,1,9,-200,left,761,2022-01-21_13h03.43.732,multiplicationStroop,2021.2.3,Win32,59.95563283,,,,,,,,,,,,,,,,,,,,,,,,,,,,,,,,,,,,,,,,,,,,,,,,,,,,,,,,,
,,,,right,1,0.4776,3,7,55,12,1,6,200,right,761,2022-01-21_13h03.43.732,multiplicationStroop,2021.2.3,Win32,59.95563283,,,,,,,,,,,,,,,,,,,,,,,,,,,,,,,,,,,,,,,,,,,,,,,,,,,,,,,,,
,,,,left,1,0.3695,3,8,56,6,1,8,-200,left,761,2022-01-21_13h03.43.732,multiplicationStroop,2021.2.3,Win32,59.95563283,,,,,,,,,,,,,,,,,,,,,,,,,,,,,,,,,,,,,,,,,,,,,,,,,,,,,,,,,
,,,,right,1,0.3175,3,9,57,11,1,4,200,right,761,2022-01-21_13h03.43.732,multiplicationStroop,2021.2.3,Win32,59.95563283,,,,,,,,,,,,,,,,,,,,,,,,,,,,,,,,,,,,,,,,,,,,,,,,,,,,,,,,,
,,,,right,1,0.4841,3,10,58,13,1,7,200,right,761,2022-01-21_13h03.43.732,multiplicationStroop,2021.2.3,Win32,59.95563283,,,,,,,,,,,,,,,,,,,,,,,,,,,,,,,,,,,,,,,,,,,,,,,,,,,,,,,,,
,,,,right,1,0.3262,3,11,59,14,1,8,200,right,761,2022-01-21_13h03.43.732,multiplicationStroop,2021.2.3,Win32,59.95563283,,,,,,,,,,,,,,,,,,,,,,,,,,,,,,,,,,,,,,,,,,,,,,,,,,,,,,,,,
,,,,left,1,0.3345,3,12,60,4,1,6,-200,left,761,2022-01-21_13h03.43.732,multiplicationStroop,2021.2.3,Win32,59.95563283,,,,,,,,,,,,,,,,,,,,,,,,,,,,,,,,,,,,,,,,,,,,,,,,,,,,,,,,,
,,,,right,1,0.274,3,13,61,15,1,9,200,right,761,2022-01-21_13h03.43.732,multiplicationStroop,2021.2.3,Win32,59.95563283,,,,,,,,,,,,,,,,,,,,,,,,,,,,,,,,,,,,,,,,,,,,,,,,,,,,,,,,,
,,,,left,1,0.2694,3,14,62,5,1,7,-200,left,761,2022-01-21_13h03.43.732,multiplicationStroop,2021.2.3,Win32,59.95563283,,,,,,,,,,,,,,,,,,,,,,,,,,,,,,,,,,,,,,,,,,,,,,,,,,,,,,,,,
,,,,left,1,0.4271,3,15,63,1,1,2,-200,left,761,2022-01-21_13h03.43.732,multiplicationStroop,2021.2.3,Win32,59.95563283,,,,,,,,,,,,,,,,,,,,,,,,,,,,,,,,,,,,,,,,,,,,,,,,,,,,,,,,,
,,,,,,,,,,,,,,,761,2022-01-21_13h03.43.732,multiplicationStroop,2021.2.3,Win32,59.95563283,space,25.284,space,9.6226,right,1,0.6487,0,0,0,3,1,8,9,8 | 9,1,1.4111,1.9756,congruent,right,,,,,,stimulusFile/physical.xlsx,,,,,,,,,,,,,,,,,,,,,,,,,,,,,,,
,,,,,,,,,,,,,,,761,2022-01-21_13h03.43.732,multiplicationStroop,2021.2.3,Win32,59.95563283,,,,,right,1,0.5378,0,1,1,37,1,4,2,4 | 2,2,1.4111,1.9756,incongruent,right,,,,,,stimulusFile/physical.xlsx,,,,,,,,,,,,,,,,,,,,,,,,,,,,,,,
,,,,,,,,,,,,,,,761,2022-01-21_13h03.43.732,multiplicationStroop,2021.2.3,Win32,59.95563283,,,,,left,1,0.5049,0,2,2,41,1,2,7,2 | 7,5,1.9756,1.4111,incongruent,left,,,,,,stimulusFile/physical.xlsx,,,,,,,,,,,,,,,,,,,,,,,,,,,,,,,
,,,,,,,,,,,,,,,761,2022-01-21_13h03.43.732,multiplicationStroop,2021.2.3,Win32,59.95563283,,,,,right,0,0.663,0,3,3,22,1,8,3,8 | 3,5,1.9756,1.4111,congruent,left,,,,,,stimulusFile/physical.xlsx,,,,,,,,,,,,,,,,,,,,,,,,,,,,,,,
,,,,,,,,,,,,,,,761,2022-01-21_13h03.43.732,multiplicationStroop,2021.2.3,Win32,59.95563283,,,,,right,1,0.5867,0,4,4,1,1,3,4,3 | 4,1,1.4111,1.9756,congruent,right,,,,,,stimulusFile/physical.xlsx,,,,,,,,,,,,,,,,,,,,,,,,,,,,,,,
,,,,,,,,,,,,,,,761,2022-01-21_13h03.43.732,multiplicationStroop,2021.2.3,Win32,59.95563283,,,,,right,1,0.6639,0,5,5,47,1,9,4,9 | 4,5,1.4111,1.9756,incongruent,right,,,,,,stimulusFile/physical.xlsx,,,,,,,,,,,,,,,,,,,,,,,,,,,,,,,
,,,,,,,,,,,,,,,761,2022-01-21_13h03.43.732,multiplicationStroop,2021.2.3,Win32,59.95563283,,,,,left,1,0.4386,0,6,6,33,1,2,4,2 | 4,2,1.9756,1.4111,incongruent,left,,,,,,stimulusFile/physical.xlsx,,,,,,,,,,,,,,,,,,,,,,,,,,,,,,,
,,,,,,,,,,,,,,,761,2022-01-21_13h03.43.732,multiplicationStroop,2021.2.3,Win32,59.95563283,,,,,right,1,0.6173,0,7,7,62,1,8,8,8 | 8,0,1.4111,1.9756,neutral,right,,,,,,stimulusFile/physical.xlsx,,,,,,,,,,,,,,,,,,,,,,,,,,,,,,,
,,,,,,,,,,,,,,,761,2022-01-21_13h03.43.732,multiplicationStroop,2021.2.3,Win32,59.95563283,,,,,left,1,0.444,0,8,8,12,1,3,1,3 | 1,2,1.9756,1.4111,congruent,left,,,,,,stimulusFile/physical.xlsx,,,,,,,,,,,,,,,,,,,,,,,,,,,,,,,
,,,,,,,,,,,,,,,761,2022-01-21_13h03.43.732,multiplicationStroop,2021.2.3,Win32,59.95563283,,,,,right,1,0.4471,0,9,9,59,1,7,7,7 | 7,0,1.4111,1.9756,neutral,right,,,,,,stimulusFile/physical.xlsx,,,,,,,,,,,,,,,,,,,,,,,,,,,,,,,
,,,,,,,,,,,,,,,761,2022-01-21_13h03.43.732,multiplicationStroop,2021.2.3,Win32,59.95563283,,,,,right,1,0.4619,0,10,10,28,1,2,1,2 | 1,1,1.4111,1.9756,incongruent,right,,,,,,stimulusFile/physical.xlsx,,,,,,,,,,,,,,,,,,,,,,,,,,,,,,,
,,,,,,,,,,,,,,,761,2022-01-21_13h03.43.732,multiplicationStroop,2021.2.3,Win32,59.95563283,,,,,right,1,0.4839,0,11,11,44,1,6,1,6 | 1,5,1.4111,1.9756,incongruent,right,,,,,,stimulusFile/physical.xlsx,,,,,,,,,,,,,,,,,,,,,,,,,,,,,,,
,,,,,,,,,,,,,,,761,2022-01-21_13h03.43.732,multiplicationStroop,2021.2.3,Win32,59.95563283,,,,,right,1,0.451,0,12,12,38,1,8,6,8 | 6,2,1.4111,1.9756,incongruent,right,,,,,,stimulusFile/physical.xlsx,,,,,,,,,,,,,,,,,,,,,,,,,,,,,,,
,,,,,,,,,,,,,,,761,2022-01-21_13h03.43.732,multiplicationStroop,2021.2.3,Win32,59.95563283,,,,,right,1,0.9695,0,13,13,36,1,3,1,3 | 1,2,1.4111,1.9756,incongruent,right,,,,,,stimulusFile/physical.xlsx,,,,,,,,,,,,,,,,,,,,,,,,,,,,,,,
,,,,,,,,,,,,,,,761,2022-01-21_13h03.43.732,multiplicationStroop,2021.2.3,Win32,59.95563283,,,,,left,1,0.5602,0,14,14,14,1,8,6,8 | 6,2,1.9756,1.4111,congruent,left,,,,,,stimulusFile/physical.xlsx,,,,,,,,,,,,,,,,,,,,,,,,,,,,,,,
,,,,,,,,,,,,,,,761,2022-01-21_13h03.43.732,multiplicationStroop,2021.2.3,Win32,59.95563283,,,,,left,1,0.5416,0,15,15,5,1,4,3,4 | 3,1,1.9756,1.4111,congruent,left,,,,,,stimulusFile/physical.xlsx,,,,,,,,,,,,,,,,,,,,,,,,,,,,,,,
,,,,,,,,,,,,,,,761,2022-01-21_13h03.43.732,multiplicationStroop,2021.2.3,Win32,59.95563283,,,,,left,1,0.4675,0,16,16,24,1,1,2,1 | 2,1,1.9756,1.4111,incongruent,left,,,,,,stimulusFile/physical.xlsx,,,,,,,,,,,,,,,,,,,,,,,,,,,,,,,
,,,,,,,,,,,,,,,761,2022-01-21_13h03.43.732,multiplicationStroop,2021.2.3,Win32,59.95563283,,,,,right,1,0.4858,0,17,17,63,1,9,9,9 | 9,0,1.4111,1.9756,neutral,right,,,,,,stimulusFile/physical.xlsx,,,,,,,,,,,,,,,,,,,,,,,,,,,,,,,
,,,,,,,,,,,,,,,761,2022-01-21_13h03.43.732,multiplicationStroop,2021.2.3,Win32,59.95563283,,,,,right,1,0.736,0,18,18,58,1,6,6,6 | 6,0,1.4111,1.9756,neutral,right,,,,,,stimulusFile/physical.xlsx,,,,,,,,,,,,,,,,,,,,,,,,,,,,,,,
,,,,,,,,,,,,,,,761,2022-01-21_13h03.43.732,multiplicationStroop,2021.2.3,Win32,59.95563283,,,,,left,0,0.5175,0,19,19,45,1,7,2,7 | 2,5,1.4111,1.9756,incongruent,right,,,,,,stimulusFile/physical.xlsx,,,,,,,,,,,,,,,,,,,,,,,,,,,,,,,
,,,,,,,,,,,,,,,761,2022-01-21_13h03.43.732,multiplicationStroop,2021.2.3,Win32,59.95563283,,,,,left,1,0.4845,0,20,20,4,1,2,1,2 | 1,1,1.9756,1.4111,congruent,left,,,,,,stimulusFile/physical.xlsx,,,,,,,,,,,,,,,,,,,,,,,,,,,,,,,
,,,,,,,,,,,,,,,761,2022-01-21_13h03.43.732,multiplicationStroop,2021.2.3,Win32,59.95563283,,,,,right,1,0.4676,0,21,21,61,1,4,4,4 | 4,0,1.4111,1.9756,neutral,right,,,,,,stimulusFile/physical.xlsx,,,,,,,,,,,,,,,,,,,,,,,,,,,,,,,
,,,,,,,,,,,,,,,761,2022-01-21_13h03.43.732,multiplicationStroop,2021.2.3,Win32,59.95563283,,,,,left,0,0.4386,0,22,22,66,1,3,3,3 | 3,0,1.9756,1.4111,neutral,right,,,,,,stimulusFile/physical.xlsx,,,,,,,,,,,,,,,,,,,,,,,,,,,,,,,
,,,,,,,,,,,,,,,761,2022-01-21_13h03.43.732,multiplicationStroop,2021.2.3,Win32,59.95563283,,,,,left,1,0.4843,0,23,23,7,1,9,8,9 | 8,1,1.9756,1.4111,congruent,left,,,,,,stimulusFile/physical.xlsx,,,,,,,,,,,,,,,,,,,,,,,,,,,,,,,
,,,,,,,,,,,,,,,761,2022-01-21_13h03.43.732,multiplicationStroop,2021.2.3,Win32,59.95563283,,,,,right,1,0.618,0,24,24,0,1,1,2,1 | 2,1,1.4111,1.9756,congruent,right,,,,,,stimulusFile/physical.xlsx,,,,,,,,,,,,,,,,,,,,,,,,,,,,,,,
,,,,,,,,,,,,,,,761,2022-01-21_13h03.43.732,multiplicationStroop,2021.2.3,Win32,59.95563283,,,,,left,1,0.4393,0,25,25,42,1,3,8,3 | 8,5,1.9756,1.4111,incongruent,left,,,,,,stimulusFile/physical.xlsx,,,,,,,,,,,,,,,,,,,,,,,,,,,,,,,
,,,,,,,,,,,,,,,761,2022-01-21_13h03.43.732,multiplicationStroop,2021.2.3,Win32,59.95563283,,,,,right,1,0.3982,0,26,26,16,1,1,6,1 | 6,5,1.4111,1.9756,congruent,right,,,,,,stimulusFile/physical.xlsx,,,,,,,,,,,,,,,,,,,,,,,,,,,,,,,
,,,,,,,,,,,,,,,761,2022-01-21_13h03.43.732,multiplicationStroop,2021.2.3,Win32,59.95563283,,,,,left,1,0.3777,0,27,27,25,1,3,4,3 | 4,1,1.9756,1.4111,incongruent,left,,,,,,stimulusFile/physical.xlsx,,,,,,,,,,,,,,,,,,,,,,,,,,,,,,,
,,,,,,,,,,,,,,,761,2022-01-21_13h03.43.732,multiplicationStroop,2021.2.3,Win32,59.95563283,,,,,left,1,0.4134,0,28,28,21,1,7,2,7 | 2,5,1.9756,1.4111,congruent,left,,,,,,stimulusFile/physical.xlsx,,,,,,,,,,,,,,,,,,,,,,,,,,,,,,,
,,,,,,,,,,,,,,,761,2022-01-21_13h03.43.732,multiplicationStroop,2021.2.3,Win32,59.95563283,,,,,right,1,0.3483,0,29,29,10,1,6,8,6 | 8,2,1.4111,1.9756,congruent,right,,,,,,stimulusFile/physical.xlsx,,,,,,,,,,,,,,,,,,,,,,,,,,,,,,,
,,,,,,,,,,,,,,,761,2022-01-21_13h03.43.732,multiplicationStroop,2021.2.3,Win32,59.95563283,,,,,right,1,0.6983,0,30,30,8,1,1,3,1 | 3,2,1.4111,1.9756,congruent,right,,,,,,stimulusFile/physical.xlsx,,,,,,,,,,,,,,,,,,,,,,,,,,,,,,,
,,,,,,,,,,,,,,,761,2022-01-21_13h03.43.732,multiplicationStroop,2021.2.3,Win32,59.95563283,,,,,left,1,0.3863,0,31,31,54,1,7,7,7 | 7,0,1.9756,1.4111,neutral,left,,,,,,stimulusFile/physical.xlsx,,,,,,,,,,,,,,,,,,,,,,,,,,,,,,,
,,,,,,,,,,,,,,,761,2022-01-21_13h03.43.732,multiplicationStroop,2021.2.3,Win32,59.95563283,,,,,right,0,0.3548,0,32,32,40,1,1,6,1 | 6,5,1.9756,1.4111,incongruent,left,,,,,,stimulusFile/physical.xlsx,,,,,,,,,,,,,,,,,,,,,,,,,,,,,,,
,,,,,,,,,,,,,,,761,2022-01-21_13h03.43.732,multiplicationStroop,2021.2.3,Win32,59.95563283,,,,,left,1,0.527,0,33,33,43,1,4,9,4 | 9,5,1.9756,1.4111,incongruent,left,,,,,,stimulusFile/physical.xlsx,,,,,,,,,,,,,,,,,,,,,,,,,,,,,,,
,,,,,,,,,,,,,,,761,2022-01-21_13h03.43.732,multiplicationStroop,2021.2.3,Win32,59.95563283,,,,,right,1,0.4969,0,34,34,67,1,4,4,4 | 4,0,1.4111,1.9756,neutral,right,,,,,,stimulusFile/physical.xlsx,,,,,,,,,,,,,,,,,,,,,,,,,,,,,,,
,,,,,,,,,,,,,,,761,2022-01-21_13h03.43.732,multiplicationStroop,2021.2.3,Win32,59.95563283,,,,,left,1,0.5187,0,35,35,34,1,6,8,6 | 8,2,1.9756,1.4111,incongruent,left,,,,,,stimulusFile/physical.xlsx,,,,,,,,,,,,,,,,,,,,,,,,,,,,,,,
,,,,,,,,,,,,,,,761,2022-01-21_13h03.43.732,multiplicationStroop,2021.2.3,Win32,59.95563283,,,,,right,1,0.56,0,36,36,9,1,2,4,2 | 4,2,1.4111,1.9756,congruent,right,,,,,,stimulusFile/physical.xlsx,,,,,,,,,,,,,,,,,,,,,,,,,,,,,,,
,,,,,,,,,,,,,,,761,2022-01-21_13h03.43.732,multiplicationStroop,2021.2.3,Win32,59.95563283,,,,,left,1,0.4767,0,37,37,48,1,1,1,1 | 1,0,1.9756,1.4111,neutral,left,,,,,,stimulusFile/physical.xlsx,,,,,,,,,,,,,,,,,,,,,,,,,,,,,,,
,,,,,,,,,,,,,,,761,2022-01-21_13h03.43.732,multiplicationStroop,2021.2.3,Win32,59.95563283,,,,,left,1,0.4354,0,38,38,13,1,4,2,4 | 2,2,1.9756,1.4111,congruent,left,,,,,,stimulusFile/physical.xlsx,,,,,,,,,,,,,,,,,,,,,,,,,,,,,,,
,,,,,,,,,,,,,,,761,2022-01-21_13h03.43.732,multiplicationStroop,2021.2.3,Win32,59.95563283,,,,,left,1,0.4906,0,39,39,53,1,4,4,4 | 4,0,1.9756,1.4111,neutral,left,,,,,,stimulusFile/physical.xlsx,,,,,,,,,,,,,,,,,,,,,,,,,,,,,,,
,,,,,,,,,,,,,,,761,2022-01-21_13h03.43.732,multiplicationStroop,2021.2.3,Win32,59.95563283,,,,,left,0,0.4021,0,40,40,65,1,2,2,2 | 2,0,1.4111,1.9756,neutral,right,,,,,,stimulusFile/physical.xlsx,,,,,,,,,,,,,,,,,,,,,,,,,,,,,,,
,,,,,,,,,,,,,,,761,2022-01-21_13h03.43.732,multiplicationStroop,2021.2.3,Win32,59.95563283,,,,,left,1,0.4733,0,41,41,27,1,8,9,8 | 9,1,1.9756,1.4111,incongruent,left,,,,,,stimulusFile/physical.xlsx,,,,,,,,,,,,,,,,,,,,,,,,,,,,,,,
,,,,,,,,,,,,,,,761,2022-01-21_13h03.43.732,multiplicationStroop,2021.2.3,Win32,59.95563283,,,,,left,1,0.5102,0,42,42,35,1,7,9,7 | 9,2,1.9756,1.4111,incongruent,left,,,,,,stimulusFile/physical.xlsx,,,,,,,,,,,,,,,,,,,,,,,,,,,,,,,
,,,,,,,,,,,,,,,761,2022-01-21_13h03.43.732,multiplicationStroop,2021.2.3,Win32,59.95563283,,,,,left,1,0.3791,0,43,43,15,1,9,7,9 | 7,2,1.9756,1.4111,congruent,left,,,,,,stimulusFile/physical.xlsx,,,,,,,,,,,,,,,,,,,,,,,,,,,,,,,
,,,,,,,,,,,,,,,761,2022-01-21_13h03.43.732,multiplicationStroop,2021.2.3,Win32,59.95563283,,,,,left,0,0.426,0,44,44,64,1,1,1,1 | 1,0,1.9756,1.4111,neutral,right,,,,,,stimulusFile/physical.xlsx,,,,,,,,,,,,,,,,,,,,,,,,,,,,,,,
,,,,,,,,,,,,,,,761,2022-01-21_13h03.43.732,multiplicationStroop,2021.2.3,Win32,59.95563283,,,,,left,1,0.3638,0,45,45,55,1,9,9,9 | 9,0,1.9756,1.4111,neutral,left,,,,,,stimulusFile/physical.xlsx,,,,,,,,,,,,,,,,,,,,,,,,,,,,,,,
,,,,,,,,,,,,,,,761,2022-01-21_13h03.43.732,multiplicationStroop,2021.2.3,Win32,59.95563283,,,,,right,0,0.5176,0,46,46,71,1,9,9,9 | 9,0,1.4111,1.9756,neutral,left,,,,,,stimulusFile/physical.xlsx,,,,,,,,,,,,,,,,,,,,,,,,,,,,,,,
,,,,,,,,,,,,,,,761,2022-01-21_13h03.43.732,multiplicationStroop,2021.2.3,Win32,59.95563283,,,,,left,1,0.435,0,47,47,6,1,7,6,7 | 6,1,1.9756,1.4111,congruent,left,,,,,,stimulusFile/physical.xlsx,,,,,,,,,,,,,,,,,,,,,,,,,,,,,,,
,,,,,,,,,,,,,,,761,2022-01-21_13h03.43.732,multiplicationStroop,2021.2.3,Win32,59.95563283,,,,,right,1,0.4459,0,48,48,57,1,2,2,2 | 2,0,1.4111,1.9756,neutral,right,,,,,,stimulusFile/physical.xlsx,,,,,,,,,,,,,,,,,,,,,,,,,,,,,,,
,,,,,,,,,,,,,,,761,2022-01-21_13h03.43.732,multiplicationStroop,2021.2.3,Win32,59.95563283,,,,,left,0,0.3842,0,49,49,19,1,4,9,4 | 9,5,1.4111,1.9756,congruent,right,,,,,,stimulusFile/physical.xlsx,,,,,,,,,,,,,,,,,,,,,,,,,,,,,,,
,,,,,,,,,,,,,,,761,2022-01-21_13h03.43.732,multiplicationStroop,2021.2.3,Win32,59.95563283,,,,,right,1,0.7568,0,50,50,31,1,9,8,9 | 8,1,1.4111,1.9756,incongruent,right,,,,,,stimulusFile/physical.xlsx,,,,,,,,,,,,,,,,,,,,,,,,,,,,,,,
,,,,,,,,,,,,,,,761,2022-01-21_13h03.43.732,multiplicationStroop,2021.2.3,Win32,59.95563283,,,,,left,1,0.4889,0,51,51,20,1,6,1,6 | 1,5,1.9756,1.4111,congruent,left,,,,,,stimulusFile/physical.xlsx,,,,,,,,,,,,,,,,,,,,,,,,,,,,,,,
,,,,,,,,,,,,,,,761,2022-01-21_13h03.43.732,multiplicationStroop,2021.2.3,Win32,59.95563283,,,,,left,1,0.5244,0,52,52,68,1,6,6,6 | 6,0,1.9756,1.4111,neutral,left,,,,,,stimulusFile/physical.xlsx,,,,,,,,,,,,,,,,,,,,,,,,,,,,,,,
,,,,,,,,,,,,,,,761,2022-01-21_13h03.43.732,multiplicationStroop,2021.2.3,Win32,59.95563283,,,,,right,1,1.2467,0,53,53,56,1,1,1,1 | 1,0,1.4111,1.9756,neutral,right,,,,,,stimulusFile/physical.xlsx,,,,,,,,,,,,,,,,,,,,,,,,,,,,,,,
,,,,,,,,,,,,,,,761,2022-01-21_13h03.43.732,multiplicationStroop,2021.2.3,Win32,59.95563283,,,,,right,1,0.4776,0,54,54,60,1,3,3,3 | 3,0,1.4111,1.9756,neutral,right,,,,,,stimulusFile/physical.xlsx,,,,,,,,,,,,,,,,,,,,,,,,,,,,,,,
,,,,,,,,,,,,,,,761,2022-01-21_13h03.43.732,multiplicationStroop,2021.2.3,Win32,59.95563283,,,,,left,1,0.5763,0,55,55,52,1,2,2,2 | 2,0,1.9756,1.4111,neutral,left,,,,,,stimulusFile/physical.xlsx,,,,,,,,,,,,,,,,,,,,,,,,,,,,,,,
,,,,,,,,,,,,,,,761,2022-01-21_13h03.43.732,multiplicationStroop,2021.2.3,Win32,59.95563283,,,,,right,1,0.5536,0,56,56,29,1,4,3,4 | 3,1,1.4111,1.9756,incongruent,right,,,,,,stimulusFile/physical.xlsx,,,,,,,,,,,,,,,,,,,,,,,,,,,,,,,
,,,,,,,,,,,,,,,761,2022-01-21_13h03.43.732,multiplicationStroop,2021.2.3,Win32,59.95563283,,,,,left,1,0.4505,0,57,57,32,1,1,3,1 | 3,2,1.9756,1.4111,incongruent,left,,,,,,stimulusFile/physical.xlsx,,,,,,,,,,,,,,,,,,,,,,,,,,,,,,,
,,,,,,,,,,,,,,,761,2022-01-21_13h03.43.732,multiplicationStroop,2021.2.3,Win32,59.95563283,,,,,left,1,0.4935,0,58,58,49,1,3,3,3 | 3,0,1.9756,1.4111,neutral,left,,,,,,stimulusFile/physical.xlsx,,,,,,,,,,,,,,,,,,,,,,,,,,,,,,,
,,,,,,,,,,,,,,,761,2022-01-21_13h03.43.732,multiplicationStroop,2021.2.3,Win32,59.95563283,,,,,right,1,0.6407,0,59,59,11,1,7,9,7 | 9,2,1.4111,1.9756,congruent,right,,,,,,stimulusFile/physical.xlsx,,,,,,,,,,,,,,,,,,,,,,,,,,,,,,,
,,,,,,,,,,,,,,,761,2022-01-21_13h03.43.732,multiplicationStroop,2021.2.3,Win32,59.95563283,,,,,left,0,0.5149,0,60,60,2,1,6,7,6 | 7,1,1.4111,1.9756,congruent,right,,,,,,stimulusFile/physical.xlsx,,,,,,,,,,,,,,,,,,,,,,,,,,,,,,,
,,,,,,,,,,,,,,,761,2022-01-21_13h03.43.732,multiplicationStroop,2021.2.3,Win32,59.95563283,,,,,left,1,0.5411,0,61,61,51,1,8,8,8 | 8,0,1.9756,1.4111,neutral,left,,,,,,stimulusFile/physical.xlsx,,,,,,,,,,,,,,,,,,,,,,,,,,,,,,,
,,,,,,,,,,,,,,,761,2022-01-21_13h03.43.732,multiplicationStroop,2021.2.3,Win32,59.95563283,,,,,right,1,0.4443,0,62,62,30,1,7,6,7 | 6,1,1.4111,1.9756,incongruent,right,,,,,,stimulusFile/physical.xlsx,,,,,,,,,,,,,,,,,,,,,,,,,,,,,,,
,,,,,,,,,,,,,,,761,2022-01-21_13h03.43.732,multiplicationStroop,2021.2.3,Win32,59.95563283,,,,,right,1,0.6841,0,63,63,46,1,8,3,8 | 3,5,1.4111,1.9756,incongruent,right,,,,,,stimulusFile/physical.xlsx,,,,,,,,,,,,,,,,,,,,,,,,,,,,,,,
,,,,,,,,,,,,,,,761,2022-01-21_13h03.43.732,multiplicationStroop,2021.2.3,Win32,59.95563283,,,,,right,1,0.7507,0,64,64,39,1,9,7,9 | 7,2,1.4111,1.9756,incongruent,right,,,,,,stimulusFile/physical.xlsx,,,,,,,,,,,,,,,,,,,,,,,,,,,,,,,
,,,,,,,,,,,,,,,761,2022-01-21_13h03.43.732,multiplicationStroop,2021.2.3,Win32,59.95563283,,,,,right,0,0.4807,0,65,65,69,1,7,7,7 | 7,0,1.4111,1.9756,neutral,left,,,,,,stimulusFile/physical.xlsx,,,,,,,,,,,,,,,,,,,,,,,,,,,,,,,
,,,,,,,,,,,,,,,761,2022-01-21_13h03.43.732,multiplicationStroop,2021.2.3,Win32,59.95563283,,,,,left,1,0.5607,0,66,66,26,1,6,7,6 | 7,1,1.9756,1.4111,incongruent,left,,,,,,stimulusFile/physical.xlsx,,,,,,,,,,,,,,,,,,,,,,,,,,,,,,,
,,,,,,,,,,,,,,,761,2022-01-21_13h03.43.732,multiplicationStroop,2021.2.3,Win32,59.95563283,,,,,left,1,0.4187,0,67,67,23,1,9,4,9 | 4,5,1.9756,1.4111,congruent,left,,,,,,stimulusFile/physical.xlsx,,,,,,,,,,,,,,,,,,,,,,,,,,,,,,,
,,,,,,,,,,,,,,,761,2022-01-21_13h03.43.732,multiplicationStroop,2021.2.3,Win32,59.95563283,,,,,right,1,0.5988,0,68,68,17,1,2,7,2 | 7,5,1.4111,1.9756,congruent,right,,,,,,stimulusFile/physical.xlsx,,,,,,,,,,,,,,,,,,,,,,,,,,,,,,,
,,,,,,,,,,,,,,,761,2022-01-21_13h03.43.732,multiplicationStroop,2021.2.3,Win32,59.95563283,,,,,right,1,0.4604,0,69,69,18,1,3,8,3 | 8,5,1.4111,1.9756,congruent,right,,,,,,stimulusFile/physical.xlsx,,,,,,,,,,,,,,,,,,,,,,,,,,,,,,,
,,,,,,,,,,,,,,,761,2022-01-21_13h03.43.732,multiplicationStroop,2021.2.3,Win32,59.95563283,,,,,left,1,0.4276,0,70,70,50,1,6,6,6 | 6,0,1.9756,1.4111,neutral,left,,,,,,stimulusFile/physical.xlsx,,,,,,,,,,,,,,,,,,,,,,,,,,,,,,,
,,,,,,,,,,,,,,,761,2022-01-21_13h03.43.732,multiplicationStroop,2021.2.3,Win32,59.95563283,,,,,left,1,0.4917,0,71,71,70,1,8,8,8 | 8,0,1.9756,1.4111,neutral,left,,,,,,stimulusFile/physical.xlsx,,,,,,,,,,,,,,,,,,,,,,,,,,,,,,,
,,,,,,,,,,,,,,,761,2022-01-21_13h03.43.732,multiplicationStroop,2021.2.3,Win32,59.95563283,,,,,,,,,,,,,,,,,,,,,0,0,0,1,1,stimulusFile/physical.xlsx,PHYSICALLY larger (larger font size).,images/physicallyLarger.png,,,,,,,,,,,,,,,,,,,,,,,,,,,,,
,,,,,,,,,,,,,,,761,2022-01-21_13h03.43.732,multiplicationStroop,2021.2.3,Win32,59.95563283,space,6.9003,space,1.7249,left,0,0.8642,0,0,0,65,1,2,7,2 | 7,5,1.6933,1.6933,neutral,right,,,,,,stimulusFile/magnitude.xlsx,,,,,,,,,,,,,,,,,,,,,,,,,,,,,,,
,,,,,,,,,,,,,,,761,2022-01-21_13h03.43.732,multiplicationStroop,2021.2.3,Win32,59.95563283,,,,,left,0,0.446,0,1,1,24,1,1,2,1 | 2,1,1.9756,1.4111,incongruent,right,,,,,,stimulusFile/magnitude.xlsx,,,,,,,,,,,,,,,,,,,,,,,,,,,,,,,
,,,,,,,,,,,,,,,761,2022-01-21_13h03.43.732,multiplicationStroop,2021.2.3,Win32,59.95563283,,,,,right,0,0.4461,0,2,2,31,1,9,8,9 | 8,1,1.4111,1.9756,incongruent,left,,,,,,stimulusFile/magnitude.xlsx,,,,,,,,,,,,,,,,,,,,,,,,,,,,,,,
,,,,,,,,,,,,,,,761,2022-01-21_13h03.43.732,multiplicationStroop,2021.2.3,Win32,59.95563283,,,,,left,1,0.3189,0,3,3,20,1,6,1,6 | 1,5,1.9756,1.4111,congruent,left,,,,,,stimulusFile/magnitude.xlsx,,,,,,,,,,,,,,,,,,,,,,,,,,,,,,,
,,,,,,,,,,,,,,,761,2022-01-21_13h03.43.732,multiplicationStroop,2021.2.3,Win32,59.95563283,,,,,right,1,0.4397,0,4,4,9,1,2,4,2 | 4,2,1.4111,1.9756,congruent,right,,,,,,stimulusFile/magnitude.xlsx,,,,,,,,,,,,,,,,,,,,,,,,,,,,,,,
,,,,,,,,,,,,,,,761,2022-01-21_13h03.43.732,multiplicationStroop,2021.2.3,Win32,59.95563283,,,,,left,0,0.3361,0,5,5,25,1,3,4,3 | 4,1,1.9756,1.4111,incongruent,right,,,,,,stimulusFile/magnitude.xlsx,,,,,,,,,,,,,,,,,,,,,,,,,,,,,,,
,,,,,,,,,,,,,,,761,2022-01-21_13h03.43.732,multiplicationStroop,2021.2.3,Win32,59.95563283,,,,,left,1,0.5509,0,6,6,7,1,9,8,9 | 8,1,1.9756,1.4111,congruent,left,,,,,,stimulusFile/magnitude.xlsx,,,,,,,,,,,,,,,,,,,,,,,,,,,,,,,
,,,,,,,,,,,,,,,761,2022-01-21_13h03.43.732,multiplicationStroop,2021.2.3,Win32,59.95563283,,,,,left,0,0.5094,0,7,7,56,1,1,3,1 | 3,2,1.6933,1.6933,neutral,right,,,,,,stimulusFile/magnitude.xlsx,,,,,,,,,,,,,,,,,,,,,,,,,,,,,,,
,,,,,,,,,,,,,,,761,2022-01-21_13h03.43.732,multiplicationStroop,2021.2.3,Win32,59.95563283,,,,,left,0,0.487,0,8,8,32,1,1,3,1 | 3,2,1.9756,1.4111,incongruent,right,,,,,,stimulusFile/magnitude.xlsx,,,,,,,,,,,,,,,,,,,,,,,,,,,,,,,
,,,,,,,,,,,,,,,761,2022-01-21_13h03.43.732,multiplicationStroop,2021.2.3,Win32,59.95563283,,,,,right,0,0.4127,0,9,9,47,1,9,4,9 | 4,5,1.4111,1.9756,incongruent,left,,,,,,stimulusFile/magnitude.xlsx,,,,,,,,,,,,,,,,,,,,,,,,,,,,,,,
,,,,,,,,,,,,,,,761,2022-01-21_13h03.43.732,multiplicationStroop,2021.2.3,Win32,59.95563283,,,,,left,0,0.2732,0,10,10,17,1,2,7,2 | 7,5,1.4111,1.9756,congruent,right,,,,,,stimulusFile/magnitude.xlsx,,,,,,,,,,,,,,,,,,,,,,,,,,,,,,,
,,,,,,,,,,,,,,,761,2022-01-21_13h03.43.732,multiplicationStroop,2021.2.3,Win32,59.95563283,,,,,left,1,0.3887,0,11,11,68,1,6,1,6 | 1,5,1.6933,1.6933,neutral,left,,,,,,stimulusFile/magnitude.xlsx,,,,,,,,,,,,,,,,,,,,,,,,,,,,,,,
,,,,,,,,,,,,,,,761,2022-01-21_13h03.43.732,multiplicationStroop,2021.2.3,Win32,59.95563283,,,,,right,0,0.3046,0,12,12,39,1,9,7,9 | 7,2,1.4111,1.9756,incongruent,left,,,,,,stimulusFile/magnitude.xlsx,,,,,,,,,,,,,,,,,,,,,,,,,,,,,,,
,,,,,,,,,,,,,,,761,2022-01-21_13h03.43.732,multiplicationStroop,2021.2.3,Win32,59.95563283,,,,,left,1,0.3364,0,13,13,23,1,9,4,9 | 4,5,1.9756,1.4111,congruent,left,,,,,,stimulusFile/magnitude.xlsx,,,,,,,,,,,,,,,,,,,,,,,,,,,,,,,
,,,,,,,,,,,,,,,761,2022-01-21_13h03.43.732,multiplicationStroop,2021.2.3,Win32,59.95563283,,,,,right,1,0.3248,0,14,14,43,1,4,9,4 | 9,5,1.9756,1.4111,incongruent,right,,,,,,stimulusFile/magnitude.xlsx,,,,,,,,,,,,,,,,,,,,,,,,,,,,,,,
,,,,,,,,,,,,,,,761,2022-01-21_13h03.43.732,multiplicationStroop,2021.2.3,Win32,59.95563283,,,,,left,0,0.5443,0,15,15,57,1,2,4,2 | 4,2,1.6933,1.6933,neutral,right,,,,,,stimulusFile/magnitude.xlsx,,,,,,,,,,,,,,,,,,,,,,,,,,,,,,,
,,,,,,,,,,,,,,,761,2022-01-21_13h03.43.732,multiplicationStroop,2021.2.3,Win32,59.95563283,,,,,right,0,0.6843,0,16,16,54,1,7,6,7 | 6,1,1.6933,1.6933,neutral,left,,,,,,stimulusFile/magnitude.xlsx,,,,,,,,,,,,,,,,,,,,,,,,,,,,,,,
,,,,,,,,,,,,,,,761,2022-01-21_13h03.43.732,multiplicationStroop,2021.2.3,Win32,59.95563283,,,,,right,1,3.1051,0,17,17,59,1,7,9,7 | 9,2,1.6933,1.6933,neutral,right,,,,,,stimulusFile/magnitude.xlsx,,,,,,,,,,,,,,,,,,,,,,,,,,,,,,,
,,,,,,,,,,,,,,,761,2022-01-21_13h03.43.732,multiplicationStroop,2021.2.3,Win32,59.95563283,,,,,right,0,0.5322,0,18,18,46,1,8,3,8 | 3,5,1.4111,1.9756,incongruent,left,,,,,,stimulusFile/magnitude.xlsx,,,,,,,,,,,,,,,,,,,,,,,,,,,,,,,
,,,,,,,,,,,,,,,761,2022-01-21_13h03.43.732,multiplicationStroop,2021.2.3,Win32,59.95563283,,,,,left,1,0.9512,0,19,19,21,1,7,2,7 | 2,5,1.9756,1.4111,congruent,left,,,,,,stimulusFile/magnitude.xlsx,,,,,,,,,,,,,,,,,,,,,,,,,,,,,,,
,,,,,,,,,,,,,,,761,2022-01-21_13h03.43.732,multiplicationStroop,2021.2.3,Win32,59.95563283,,,,,right,1,0.537,0,20,20,67,1,4,9,4 | 9,5,1.6933,1.6933,neutral,right,,,,,,stimulusFile/magnitude.xlsx,,,,,,,,,,,,,,,,,,,,,,,,,,,,,,,
,,,,,,,,,,,,,,,761,2022-01-21_13h03.43.732,multiplicationStroop,2021.2.3,Win32,59.95563283,,,,,right,0,0.6116,0,21,21,55,1,9,8,9 | 8,1,1.6933,1.6933,neutral,left,,,,,,stimulusFile/magnitude.xlsx,,,,,,,,,,,,,,,,,,,,,,,,,,,,,,,
,,,,,,,,,,,,,,,761,2022-01-21_13h03.43.732,multiplicationStroop,2021.2.3,Win32,59.95563283,,,,,right,1,0.9377,0,22,22,8,1,1,3,1 | 3,2,1.4111,1.9756,congruent,right,,,,,,stimulusFile/magnitude.xlsx,,,,,,,,,,,,,,,,,,,,,,,,,,,,,,,
,,,,,,,,,,,,,,,761,2022-01-21_13h03.43.732,multiplicationStroop,2021.2.3,Win32,59.95563283,,,,,right,1,0.4819,0,23,23,11,1,7,9,7 | 9,2,1.4111,1.9756,congruent,right,,,,,,stimulusFile/magnitude.xlsx,,,,,,,,,,,,,,,,,,,,,,,,,,,,,,,
,,,,,,,,,,,,,,,761,2022-01-21_13h03.43.732,multiplicationStroop,2021.2.3,Win32,59.95563283,,,,,right,0,1.2745,0,24,24,28,1,2,1,2 | 1,1,1.4111,1.9756,incongruent,left,,,,,,stimulusFile/magnitude.xlsx,,,,,,,,,,,,,,,,,,,,,,,,,,,,,,,
,,,,,,,,,,,,,,,761,2022-01-21_13h03.43.732,multiplicationStroop,2021.2.3,Win32,59.95563283,,,,,left,0,0.4664,0,25,25,41,1,2,7,2 | 7,5,1.9756,1.4111,incongruent,right,,,,,,stimulusFile/magnitude.xlsx,,,,,,,,,,,,,,,,,,,,,,,,,,,,,,,
,,,,,,,,,,,,,,,761,2022-01-21_13h03.43.732,multiplicationStroop,2021.2.3,Win32,59.95563283,,,,,right,1,0.4499,0,26,26,0,1,1,2,1 | 2,1,1.4111,1.9756,congruent,right,,,,,,stimulusFile/magnitude.xlsx,,,,,,,,,,,,,,,,,,,,,,,,,,,,,,,
,,,,,,,,,,,,,,,761,2022-01-21_13h03.43.732,multiplicationStroop,2021.2.3,Win32,59.95563283,,,,,right,1,3.0166,0,27,27,66,1,3,8,3 | 8,5,1.6933,1.6933,neutral,right,,,,,,stimulusFile/magnitude.xlsx,,,,,,,,,,,,,,,,,,,,,,,,,,,,,,,
,,,,,,,,,,,,,,,761,2022-01-21_13h03.43.732,multiplicationStroop,2021.2.3,Win32,59.95563283,,,,,left,0,0.5985,0,28,28,27,1,8,9,8 | 9,1,1.9756,1.4111,incongruent,right,,,,,,stimulusFile/magnitude.xlsx,,,,,,,,,,,,,,,,,,,,,,,,,,,,,,,
,,,,,,,,,,,,,,,761,2022-01-21_13h03.43.732,multiplicationStroop,2021.2.3,Win32,59.95563283,,,,,right,1,0.4972,0,29,29,18,1,3,8,3 | 8,5,1.4111,1.9756,congruent,right,,,,,,stimulusFile/magnitude.xlsx,,,,,,,,,,,,,,,,,,,,,,,,,,,,,,,
,,,,,,,,,,,,,,,761,2022-01-21_13h03.43.732,multiplicationStroop,2021.2.3,Win32,59.95563283,,,,,right,1,0.5311,0,30,30,16,1,1,6,1 | 6,5,1.4111,1.9756,congruent,right,,,,,,stimulusFile/magnitude.xlsx,,,,,,,,,,,,,,,,,,,,,,,,,,,,,,,
,,,,,,,,,,,,,,,761,2022-01-21_13h03.43.732,multiplicationStroop,2021.2.3,Win32,59.95563283,,,,,right,1,0.4909,0,31,31,1,1,3,4,3 | 4,1,1.4111,1.9756,congruent,right,,,,,,stimulusFile/magnitude.xlsx,,,,,,,,,,,,,,,,,,,,,,,,,,,,,,,
,,,,,,,,,,,,,,,761,2022-01-21_13h03.43.732,multiplicationStroop,2021.2.3,Win32,59.95563283,,,,,right,0,1.1655,0,32,32,63,1,9,7,9 | 7,2,1.6933,1.6933,neutral,left,,,,,,stimulusFile/magnitude.xlsx,,,,,,,,,,,,,,,,,,,,,,,,,,,,,,,
,,,,,,,,,,,,,,,761,2022-01-21_13h03.43.732,multiplicationStroop,2021.2.3,Win32,59.95563283,,,,,left,0,0.6702,0,33,33,42,1,3,8,3 | 8,5,1.9756,1.4111,incongruent,right,,,,,,stimulusFile/magnitude.xlsx,,,,,,,,,,,,,,,,,,,,,,,,,,,,,,,
,,,,,,,,,,,,,,,761,2022-01-21_13h03.43.732,multiplicationStroop,2021.2.3,Win32,59.95563283,,,,,right,1,0.384,0,34,34,3,1,8,9,8 | 9,1,1.4111,1.9756,congruent,right,,,,,,stimulusFile/magnitude.xlsx,,,,,,,,,,,,,,,,,,,,,,,,,,,,,,,
,,,,,,,,,,,,,,,761,2022-01-21_13h03.43.732,multiplicationStroop,2021.2.3,Win32,59.95563283,,,,,left,1,0.4484,0,35,35,53,1,4,3,4 | 3,1,1.6933,1.6933,neutral,left,,,,,,stimulusFile/magnitude.xlsx,,,,,,,,,,,,,,,,,,,,,,,,,,,,,,,
,,,,,,,,,,,,,,,761,2022-01-21_13h03.43.732,multiplicationStroop,2021.2.3,Win32,59.95563283,,,,,right,1,0.532,0,36,36,50,1,6,7,6 | 7,1,1.6933,1.6933,neutral,right,,,,,,stimulusFile/magnitude.xlsx,,,,,,,,,,,,,,,,,,,,,,,,,,,,,,,
,,,,,,,,,,,,,,,761,2022-01-21_13h03.43.732,multiplicationStroop,2021.2.3,Win32,59.95563283,,,,,left,1,3.507,0,37,37,61,1,4,2,4 | 2,2,1.6933,1.6933,neutral,left,,,,,,stimulusFile/magnitude.xlsx,,,,,,,,,,,,,,,,,,,,,,,,,,,,,,,
,,,,,,,,,,,,,,,761,2022-01-21_13h03.43.732,multiplicationStroop,2021.2.3,Win32,59.95563283,,,,,right,0,0.5434,0,38,38,44,1,6,1,6 | 1,5,1.4111,1.9756,incongruent,left,,,,,,stimulusFile/magnitude.xlsx,,,,,,,,,,,,,,,,,,,,,,,,,,,,,,,
,,,,,,,,,,,,,,,761,2022-01-21_13h03.43.732,multiplicationStroop,2021.2.3,Win32,59.95563283,,,,,right,0,0.4681,0,39,39,29,1,4,3,4 | 3,1,1.4111,1.9756,incongruent,left,,,,,,stimulusFile/magnitude.xlsx,,,,,,,,,,,,,,,,,,,,,,,,,,,,,,,
,,,,,,,,,,,,,,,761,2022-01-21_13h03.43.732,multiplicationStroop,2021.2.3,Win32,59.95563283,,,,,left,1,0.4899,0,40,40,13,1,4,2,4 | 2,2,1.9756,1.4111,congruent,left,,,,,,stimulusFile/magnitude.xlsx,,,,,,,,,,,,,,,,,,,,,,,,,,,,,,,
,,,,,,,,,,,,,,,761,2022-01-21_13h03.43.732,multiplicationStroop,2021.2.3,Win32,59.95563283,,,,,left,1,5.7675,0,41,41,60,1,3,1,3 | 1,2,1.6933,1.6933,neutral,left,,,,,,stimulusFile/magnitude.xlsx,,,,,,,,,,,,,,,,,,,,,,,,,,,,,,,
,,,,,,,,,,,,,,,761,2022-01-21_13h03.43.732,multiplicationStroop,2021.2.3,Win32,59.95563283,,,,,right,0,3.4859,0,42,42,70,1,8,3,8 | 3,5,1.6933,1.6933,neutral,left,,,,,,stimulusFile/magnitude.xlsx,,,,,,,,,,,,,,,,,,,,,,,,,,,,,,,
,,,,,,,,,,,,,,,761,2022-01-21_13h03.43.732,multiplicationStroop,2021.2.3,Win32,59.95563283,,,,,left,1,0.556,0,43,43,14,1,8,6,8 | 6,2,1.9756,1.4111,congruent,left,,,,,,stimulusFile/magnitude.xlsx,,,,,,,,,,,,,,,,,,,,,,,,,,,,,,,
,,,,,,,,,,,,,,,761,2022-01-21_13h03.43.732,multiplicationStroop,2021.2.3,Win32,59.95563283,,,,,left,1,3.6847,0,44,44,62,1,8,6,8 | 6,2,1.6933,1.6933,neutral,left,,,,,,stimulusFile/magnitude.xlsx,,,,,,,,,,,,,,,,,,,,,,,,,,,,,,,
,,,,,,,,,,,,,,,761,2022-01-21_13h03.43.732,multiplicationStroop,2021.2.3,Win32,59.95563283,,,,,right,0,0.587,0,45,45,30,1,7,6,7 | 6,1,1.4111,1.9756,incongruent,left,,,,,,stimulusFile/magnitude.xlsx,,,,,,,,,,,,,,,,,,,,,,,,,,,,,,,
,,,,,,,,,,,,,,,761,2022-01-21_13h03.43.732,multiplicationStroop,2021.2.3,Win32,59.95563283,,,,,left,0,0.5341,0,46,46,34,1,6,8,6 | 8,2,1.9756,1.4111,incongruent,right,,,,,,stimulusFile/magnitude.xlsx,,,,,,,,,,,,,,,,,,,,,,,,,,,,,,,
,,,,,,,,,,,,,,,761,2022-01-21_13h03.43.732,multiplicationStroop,2021.2.3,Win32,59.95563283,,,,,left,0,0.5015,0,47,47,33,1,2,4,2 | 4,2,1.9756,1.4111,incongruent,right,,,,,,stimulusFile/magnitude.xlsx,,,,,,,,,,,,,,,,,,,,,,,,,,,,,,,
,,,,,,,,,,,,,,,761,2022-01-21_13h03.43.732,multiplicationStroop,2021.2.3,Win32,59.95563283,,,,,right,0,0.4273,0,48,48,36,1,3,1,3 | 1,2,1.4111,1.9756,incongruent,left,,,,,,stimulusFile/magnitude.xlsx,,,,,,,,,,,,,,,,,,,,,,,,,,,,,,,
,,,,,,,,,,,,,,,761,2022-01-21_13h03.43.732,multiplicationStroop,2021.2.3,Win32,59.95563283,,,,,left,0,0.3413,0,49,49,48,1,1,2,1 | 2,1,1.6933,1.6933,neutral,right,,,,,,stimulusFile/magnitude.xlsx,,,,,,,,,,,,,,,,,,,,,,,,,,,,,,,
,,,,,,,,,,,,,,,761,2022-01-21_13h03.43.732,multiplicationStroop,2021.2.3,Win32,59.95563283,,,,,right,0,0.4633,0,50,50,38,1,8,6,8 | 6,2,1.4111,1.9756,incongruent,left,,,,,,stimulusFile/magnitude.xlsx,,,,,,,,,,,,,,,,,,,,,,,,,,,,,,,
,,,,,,,,,,,,,,,761,2022-01-21_13h03.43.732,multiplicationStroop,2021.2.3,Win32,59.95563283,,,,,left,0,0.3351,0,51,51,35,1,7,9,7 | 9,2,1.9756,1.4111,incongruent,right,,,,,,stimulusFile/magnitude.xlsx,,,,,,,,,,,,,,,,,,,,,,,,,,,,,,,
,,,,,,,,,,,,,,,761,2022-01-21_13h03.43.732,multiplicationStroop,2021.2.3,Win32,59.95563283,,,,,left,1,0.625,0,52,52,6,1,7,6,7 | 6,1,1.9756,1.4111,congruent,left,,,,,,stimulusFile/magnitude.xlsx,,,,,,,,,,,,,,,,,,,,,,,,,,,,,,,
,,,,,,,,,,,,,,,761,2022-01-21_13h03.43.732,multiplicationStroop,2021.2.3,Win32,59.95563283,,,,,left,1,1.9645,0,53,53,71,1,9,4,9 | 4,5,1.6933,1.6933,neutral,left,,,,,,stimulusFile/magnitude.xlsx,,,,,,,,,,,,,,,,,,,,,,,,,,,,,,,
,,,,,,,,,,,,,,,761,2022-01-21_13h03.43.732,multiplicationStroop,2021.2.3,Win32,59.95563283,,,,,left,0,0.5392,0,54,54,40,1,1,6,1 | 6,5,1.9756,1.4111,incongruent,right,,,,,,stimulusFile/magnitude.xlsx,,,,,,,,,,,,,,,,,,,,,,,,,,,,,,,
,,,,,,,,,,,,,,,761,2022-01-21_13h03.43.732,multiplicationStroop,2021.2.3,Win32,59.95563283,,,,,left,1,0.4677,0,55,55,4,1,2,1,2 | 1,1,1.9756,1.4111,congruent,left,,,,,,stimulusFile/magnitude.xlsx,,,,,,,,,,,,,,,,,,,,,,,,,,,,,,,
,,,,,,,,,,,,,,,761,2022-01-21_13h03.43.732,multiplicationStroop,2021.2.3,Win32,59.95563283,,,,,right,1,0.4739,0,56,56,19,1,4,9,4 | 9,5,1.4111,1.9756,congruent,right,,,,,,stimulusFile/magnitude.xlsx,,,,,,,,,,,,,,,,,,,,,,,,,,,,,,,
,,,,,,,,,,,,,,,761,2022-01-21_13h03.43.732,multiplicationStroop,2021.2.3,Win32,59.95563283,,,,,left,1,0.5674,0,57,57,69,1,7,2,7 | 2,5,1.6933,1.6933,neutral,left,,,,,,stimulusFile/magnitude.xlsx,,,,,,,,,,,,,,,,,,,,,,,,,,,,,,,
,,,,,,,,,,,,,,,761,2022-01-21_13h03.43.732,multiplicationStroop,2021.2.3,Win32,59.95563283,,,,,right,1,1.2174,0,58,58,58,1,6,8,6 | 8,2,1.6933,1.6933,neutral,right,,,,,,stimulusFile/magnitude.xlsx,,,,,,,,,,,,,,,,,,,,,,,,,,,,,,,
,,,,,,,,,,,,,,,761,2022-01-21_13h03.43.732,multiplicationStroop,2021.2.3,Win32,59.95563283,,,,,right,1,0.5009,0,59,59,2,1,6,7,6 | 7,1,1.4111,1.9756,congruent,right,,,,,,stimulusFile/magnitude.xlsx,,,,,,,,,,,,,,,,,,,,,,,,,,,,,,,
,,,,,,,,,,,,,,,761,2022-01-21_13h03.43.732,multiplicationStroop,2021.2.3,Win32,59.95563283,,,,,right,0,0.6462,0,60,60,45,1,7,2,7 | 2,5,1.4111,1.9756,incongruent,left,,,,,,stimulusFile/magnitude.xlsx,,,,,,,,,,,,,,,,,,,,,,,,,,,,,,,
,,,,,,,,,,,,,,,761,2022-01-21_13h03.43.732,multiplicationStroop,2021.2.3,Win32,59.95563283,,,,,left,1,0.4674,0,61,61,22,1,8,3,8 | 3,5,1.9756,1.4111,congruent,left,,,,,,stimulusFile/magnitude.xlsx,,,,,,,,,,,,,,,,,,,,,,,,,,,,,,,
,,,,,,,,,,,,,,,761,2022-01-21_13h03.43.732,multiplicationStroop,2021.2.3,Win32,59.95563283,,,,,right,0,0.4521,0,62,62,37,1,4,2,4 | 2,2,1.4111,1.9756,incongruent,left,,,,,,stimulusFile/magnitude.xlsx,,,,,,,,,,,,,,,,,,,,,,,,,,,,,,,
,,,,,,,,,,,,,,,761,2022-01-21_13h03.43.732,multiplicationStroop,2021.2.3,Win32,59.95563283,,,,,left,0,0.725,0,63,63,49,1,3,4,3 | 4,1,1.6933,1.6933,neutral,right,,,,,,stimulusFile/magnitude.xlsx,,,,,,,,,,,,,,,,,,,,,,,,,,,,,,,
,,,,,,,,,,,,,,,761,2022-01-21_13h03.43.732,multiplicationStroop,2021.2.3,Win32,59.95563283,,,,,right,1,0.48,0,64,64,10,1,6,8,6 | 8,2,1.4111,1.9756,congruent,right,,,,,,stimulusFile/magnitude.xlsx,,,,,,,,,,,,,,,,,,,,,,,,,,,,,,,
,,,,,,,,,,,,,,,761,2022-01-21_13h03.43.732,multiplicationStroop,2021.2.3,Win32,59.95563283,,,,,right,1,3.8348,0,65,65,64,1,1,6,1 | 6,5,1.6933,1.6933,neutral,right,,,,,,stimulusFile/magnitude.xlsx,,,,,,,,,,,,,,,,,,,,,,,,,,,,,,,
,,,,,,,,,,,,,,,761,2022-01-21_13h03.43.732,multiplicationStroop,2021.2.3,Win32,59.95563283,,,,,left,1,0.6141,0,66,66,5,1,4,3,4 | 3,1,1.9756,1.4111,congruent,left,,,,,,stimulusFile/magnitude.xlsx,,,,,,,,,,,,,,,,,,,,,,,,,,,,,,,
,,,,,,,,,,,,,,,761,2022-01-21_13h03.43.732,multiplicationStroop,2021.2.3,Win32,59.95563283,,,,,left,1,0.5229,0,67,67,12,1,3,1,3 | 1,2,1.9756,1.4111,congruent,left,,,,,,stimulusFile/magnitude.xlsx,,,,,,,,,,,,,,,,,,,,,,,,,,,,,,,
,,,,,,,,,,,,,,,761,2022-01-21_13h03.43.732,multiplicationStroop,2021.2.3,Win32,59.95563283,,,,,left,0,0.4429,0,68,68,26,1,6,7,6 | 7,1,1.9756,1.4111,incongruent,right,,,,,,stimulusFile/magnitude.xlsx,,,,,,,,,,,,,,,,,,,,,,,,,,,,,,,
,,,,,,,,,,,,,,,761,2022-01-21_13h03.43.732,multiplicationStroop,2021.2.3,Win32,59.95563283,,,,,left,1,0.7527,0,69,69,52,1,2,1,2 | 1,1,1.6933,1.6933,neutral,left,,,,,,stimulusFile/magnitude.xlsx,,,,,,,,,,,,,,,,,,,,,,,,,,,,,,,
,,,,,,,,,,,,,,,761,2022-01-21_13h03.43.732,multiplicationStroop,2021.2.3,Win32,59.95563283,,,,,left,0,4.0075,0,70,70,51,1,8,9,8 | 9,1,1.6933,1.6933,neutral,right,,,,,,stimulusFile/magnitude.xlsx,,,,,,,,,,,,,,,,,,,,,,,,,,,,,,,
,,,,,,,,,,,,,,,761,2022-01-21_13h03.43.732,multiplicationStroop,2021.2.3,Win32,59.95563283,,,,,left,1,0.5529,0,71,71,15,1,9,7,9 | 7,2,1.9756,1.4111,congruent,left,,,,,,stimulusFile/magnitude.xlsx,,,,,,,,,,,,,,,,,,,,,,,,,,,,,,,
,,,,,,,,,,,,,,,761,2022-01-21_13h03.43.732,multiplicationStroop,2021.2.3,Win32,59.95563283,,,,,,,,,,,,,,,,,,,,,0,1,1,0,1,stimulusFile/magnitude.xlsx,NUMERICALLY larger (larger coefficient).,images/numericallyLarger.png,,,,,,,,,,,,,,,,,,,,,,,,,,,,,
,,,,,,,,,,,,,,,761,2022-01-21_13h03.43.732,multiplicationStroop,2021.2.3,Win32,59.95563283,,,,,,,,,,,,,,,,,,,,,,,,,,,,,space,8.3958,space,2.6852,28,4.6948,1,0,0,0,27,1,7,×,4,7 × 4,congruent,largerFirst,2,1,28,,,,,,,,
,,,,,,,,,,,,,,,761,2022-01-21_13h03.43.732,multiplicationStroop,2021.2.3,Win32,59.95563283,,,,,,,,,,,,,,,,,,,,,,,,,,,,,,,,,48,5.6549,1,0,1,1,18,1,8,×,6,8 × 6,congruent,largerFirst,2,1,48,,,,,,,,
,,,,,,,,,,,,,,,761,2022-01-21_13h03.43.732,multiplicationStroop,2021.2.3,Win32,59.95563283,,,,,,,,,,,,,,,,,,,,,,,,,,,,,,,,,36,4.3554,1,0,2,2,0,1,4,×,9,4 × 9,congruent,smallerFirst,1,2,36,,,,,,,,
,,,,,,,,,,,,,,,761,2022-01-21_13h03.43.732,multiplicationStroop,2021.2.3,Win32,59.95563283,,,,,,,,,,,,,,,,,,,,,,,,,,,,,,,,,56,5.789,1,0,3,3,8,1,7,×,8,7 × 8,congruent,smallerFirst,1,2,56,,,,,,,,
,,,,,,,,,,,,,,,761,2022-01-21_13h03.43.732,multiplicationStroop,2021.2.3,Win32,59.95563283,,,,,,,,,,,,,,,,,,,,,,,,,,,,,,,,,81,5.0883,1,0,4,4,35,1,9,×,9,9 × 9,neutral,tie,2,1,81,,,,,,,,
,,,,,,,,,,,,,,,761,2022-01-21_13h03.43.732,multiplicationStroop,2021.2.3,Win32,59.95563283,,,,,,,,,,,,,,,,,,,,,,,,,,,,,,,,,72,5.9047,1,0,5,5,17,1,9,×,8,9 × 8,congruent,largerFirst,2,1,72,,,,,,,,
,,,,,,,,,,,,,,,761,2022-01-21_13h03.43.732,multiplicationStroop,2021.2.3,Win32,59.95563283,,,,,,,,,,,,,,,,,,,,,,,,,,,,,,,,,12,3.0052,1,0,6,6,2,1,3,×,4,3 × 4,congruent,smallerFirst,1,2,12,,,,,,,,
,,,,,,,,,,,,,,,761,2022-01-21_13h03.43.732,multiplicationStroop,2021.2.3,Win32,59.95563283,,,,,,,,,,,,,,,,,,,,,,,,,,,,,,,,,42,6.2824,0,0,7,7,33,1,7,×,7,7 × 7,neutral,tie,2,1,49,,,,,,,,
,,,,,,,,,,,,,,,761,2022-01-21_13h03.43.732,multiplicationStroop,2021.2.3,Win32,59.95563283,,,,,,,,,,,,,,,,,,,,,,,,,,,,,,,,,35,2.6554,1,0,8,8,1,1,5,×,7,5 × 7,congruent,smallerFirst,1,2,35,,,,,,,,
,,,,,,,,,,,,,,,761,2022-01-21_13h03.43.732,multiplicationStroop,2021.2.3,Win32,59.95563283,,,,,,,,,,,,,,,,,,,,,,,,,,,,,,,,,27,3.3386,1,0,9,9,26,1,9,×,3,9 × 3,congruent,largerFirst,2,1,27,,,,,,,,
,,,,,,,,,,,,,,,761,2022-01-21_13h03.43.732,multiplicationStroop,2021.2.3,Win32,59.95563283,,,,,,,,,,,,,,,,,,,,,,,,,,,,,,,,,32,5.2987,0,0,10,10,30,1,4,×,4,4 × 4,neutral,tie,2,1,16,,,,,,,,
,,,,,,,,,,,,,,,761,2022-01-21_13h03.43.732,multiplicationStroop,2021.2.3,Win32,59.95563283,,,,,,,,,,,,,,,,,,,,,,,,,,,,,,,,,18,2.0721,1,0,11,11,22,1,9,×,2,9 × 2,congruent,largerFirst,2,1,18,,,,,,,,
,,,,,,,,,,,,,,,761,2022-01-21_13h03.43.732,multiplicationStroop,2021.2.3,Win32,59.95563283,,,,,,,,,,,,,,,,,,,,,,,,,,,,,,,,,10,1.6661,1,0,12,12,24,1,5,×,2,5 × 2,congruent,largerFirst,2,1,10,,,,,,,,
,,,,,,,,,,,,,,,761,2022-01-21_13h03.43.732,multiplicationStroop,2021.2.3,Win32,59.95563283,,,,,,,,,,,,,,,,,,,,,,,,,,,,,,,,,63,7.7987,1,0,13,13,21,1,9,×,7,9 × 7,congruent,largerFirst,2,1,63,,,,,,,,
,,,,,,,,,,,,,,,761,2022-01-21_13h03.43.732,multiplicationStroop,2021.2.3,Win32,59.95563283,,,,,,,,,,,,,,,,,,,,,,,,,,,,,,,,,24,2.9238,1,0,14,14,25,1,6,×,4,6 × 4,congruent,largerFirst,2,1,24,,,,,,,,
,,,,,,,,,,,,,,,761,2022-01-21_13h03.43.732,multiplicationStroop,2021.2.3,Win32,59.95563283,,,,,,,,,,,,,,,,,,,,,,,,,,,,,,,,,56,5.4631,0,0,15,15,34,1,8,×,8,8 × 8,neutral,tie,2,1,64,,,,,,,,
,,,,,,,,,,,,,,,761,2022-01-21_13h03.43.732,multiplicationStroop,2021.2.3,Win32,59.95563283,,,,,,,,,,,,,,,,,,,,,,,,,,,,,,,,,21,2.2059,1,0,16,16,16,1,7,×,3,7 × 3,congruent,largerFirst,2,1,21,,,,,,,,
,,,,,,,,,,,,,,,761,2022-01-21_13h03.43.732,multiplicationStroop,2021.2.3,Win32,59.95563283,,,,,,,,,,,,,,,,,,,,,,,,,,,,,,,,,25,13.1483,0,0,17,17,10,1,3,×,8,3 × 8,congruent,smallerFirst,1,2,24,,,,,,,,
,,,,,,,,,,,,,,,761,2022-01-21_13h03.43.732,multiplicationStroop,2021.2.3,Win32,59.95563283,,,,,,,,,,,,,,,,,,,,,,,,,,,,,,,,,45,4.4543,1,0,18,18,23,1,9,×,5,9 × 5,congruent,largerFirst,2,1,45,,,,,,,,
,,,,,,,,,,,,,,,761,2022-01-21_13h03.43.732,multiplicationStroop,2021.2.3,Win32,59.95563283,,,,,,,,,,,,,,,,,,,,,,,,,,,,,,,,,4,1.8222,1,0,19,19,28,1,2,×,2,2 × 2,neutral,tie,2,1,4,,,,,,,,
,,,,,,,,,,,,,,,761,2022-01-21_13h03.43.732,multiplicationStroop,2021.2.3,Win32,59.95563283,,,,,,,,,,,,,,,,,,,,,,,,,,,,,,,,,15,1.8661,1,0,20,20,4,1,3,×,5,3 × 5,congruent,smallerFirst,1,2,15,,,,,,,,
,,,,,,,,,,,,,,,761,2022-01-21_13h03.43.732,multiplicationStroop,2021.2.3,Win32,59.95563283,,,,,,,,,,,,,,,,,,,,,,,,,,,,,,,,,54,3.9824,1,0,21,21,12,1,6,×,9,6 × 9,congruent,smallerFirst,1,2,54,,,,,,,,
,,,,,,,,,,,,,,,761,2022-01-21_13h03.43.732,multiplicationStroop,2021.2.3,Win32,59.95563283,,,,,,,,,,,,,,,,,,,,,,,,,,,,,,,,,9,1.8893,1,0,22,22,29,1,3,×,3,3 × 3,neutral,tie,2,1,9,,,,,,,,
,,,,,,,,,,,,,,,761,2022-01-21_13h03.43.732,multiplicationStroop,2021.2.3,Win32,59.95563283,,,,,,,,,,,,,,,,,,,,,,,,,,,,,,,,,32,6.2484,1,0,23,23,20,1,8,×,4,8 × 4,congruent,largerFirst,2,1,32,,,,,,,,
,,,,,,,,,,,,,,,761,2022-01-21_13h03.43.732,multiplicationStroop,2021.2.3,Win32,59.95563283,,,,,,,,,,,,,,,,,,,,,,,,,,,,,,,,,18,4.5869,1,0,24,24,11,1,3,×,6,3 × 6,congruent,smallerFirst,1,2,18,,,,,,,,
,,,,,,,,,,,,,,,761,2022-01-21_13h03.43.732,multiplicationStroop,2021.2.3,Win32,59.95563283,,,,,,,,,,,,,,,,,,,,,,,,,,,,,,,,,12,1.656,1,0,25,25,19,1,6,×,2,6 × 2,congruent,largerFirst,2,1,12,,,,,,,,
,,,,,,,,,,,,,,,761,2022-01-21_13h03.43.732,multiplicationStroop,2021.2.3,Win32,59.95563283,,,,,,,,,,,,,,,,,,,,,,,,,,,,,,,,,6,1.7659,1,0,26,26,13,1,2,×,3,2 × 3,congruent,smallerFirst,1,2,6,,,,,,,,
,,,,,,,,,,,,,,,761,2022-01-21_13h03.43.732,multiplicationStroop,2021.2.3,Win32,59.95563283,,,,,,,,,,,,,,,,,,,,,,,,,,,,,,,,,20,2.3826,1,0,27,27,7,1,4,×,5,4 × 5,congruent,smallerFirst,1,2,20,,,,,,,,
,,,,,,,,,,,,,,,761,2022-01-21_13h03.43.732,multiplicationStroop,2021.2.3,Win32,59.95563283,,,,,,,,,,,,,,,,,,,,,,,,,,,,,,,,,36,2.5823,1,0,28,28,32,1,6,×,6,6 × 6,neutral,tie,2,1,36,,,,,,,,
,,,,,,,,,,,,,,,761,2022-01-21_13h03.43.732,multiplicationStroop,2021.2.3,Win32,59.95563283,,,,,,,,,,,,,,,,,,,,,,,,,,,,,,,,,25,1.9685,1,0,29,29,31,1,5,×,5,5 × 5,neutral,tie,2,1,25,,,,,,,,
,,,,,,,,,,,,,,,761,2022-01-21_13h03.43.732,multiplicationStroop,2021.2.3,Win32,59.95563283,,,,,,,,,,,,,,,,,,,,,,,,,,,,,,,,,38,4.1467,0,0,30,30,3,1,6,×,7,6 × 7,congruent,smallerFirst,1,2,42,,,,,,,,
,,,,,,,,,,,,,,,761,2022-01-21_13h03.43.732,multiplicationStroop,2021.2.3,Win32,59.95563283,,,,,,,,,,,,,,,,,,,,,,,,,,,,,,,,,14,2.6552,1,0,31,31,14,1,7,×,2,7 × 2,congruent,largerFirst,2,1,14,,,,,,,,
,,,,,,,,,,,,,,,761,2022-01-21_13h03.43.732,multiplicationStroop,2021.2.3,Win32,59.95563283,,,,,,,,,,,,,,,,,,,,,,,,,,,,,,,,,30,2.0993,1,0,32,32,15,1,6,×,5,6 × 5,congruent,largerFirst,2,1,30,,,,,,,,
,,,,,,,,,,,,,,,761,2022-01-21_13h03.43.732,multiplicationStroop,2021.2.3,Win32,59.95563283,,,,,,,,,,,,,,,,,,,,,,,,,,,,,,,,,8,1.9554,1,0,33,33,9,1,2,×,4,2 × 4,congruent,smallerFirst,1,2,8,,,,,,,,
,,,,,,,,,,,,,,,761,2022-01-21_13h03.43.732,multiplicationStroop,2021.2.3,Win32,59.95563283,,,,,,,,,,,,,,,,,,,,,,,,,,,,,,,,,16,2.0327,1,0,34,34,5,1,2,×,8,2 × 8,congruent,smallerFirst,1,2,16,,,,,,,,
,,,,,,,,,,,,,,,761,2022-01-21_13h03.43.732,multiplicationStroop,2021.2.3,Win32,59.95563283,,,,,,,,,,,,,,,,,,,,,,,,,,,,,,,,,40,2.0324,1,0,35,35,6,1,5,×,8,5 × 8,congruent,smallerFirst,1,2,40,,,,,,,,
,,,,,,,,,,,,,,,761,2022-01-21_13h03.43.732,multiplicationStroop,2021.2.3,Win32,59.95563283,,,,,,,,,,,,,,,,,,,,,,,,,,,,,,,,,,,,,,,,,,,,,,,,,,0,0,0,2,1,stimulusFile/mult_blk3_congruent.xlsx,,
,,,,,,,,,,,,,,,761,2022-01-21_13h03.43.732,multiplicationStroop,2021.2.3,Win32,59.95563283,,,,,,,,,,,,,,,,,,,,,,,,,,,,,,,space,1.7929,28,6.4933,1,0,0,0,16,1,7,×,4,7 × 4,incongruent,largerFirst,1,2,28,,,,,,,,
,,,,,,,,,,,,,,,761,2022-01-21_13h03.43.732,multiplicationStroop,2021.2.3,Win32,59.95563283,,,,,,,,,,,,,,,,,,,,,,,,,,,,,,,,,27,3.188,1,0,1,1,18,1,9,×,3,9 × 3,incongruent,largerFirst,1,2,27,,,,,,,,
,,,,,,,,,,,,,,,761,2022-01-21_13h03.43.732,multiplicationStroop,2021.2.3,Win32,59.95563283,,,,,,,,,,,,,,,,,,,,,,,,,,,,,,,,,16,1.7995,1,0,2,2,30,1,4,×,4,4 × 4,incongruent,tie,1,2,16,,,,,,,,
,,,,,,,,,,,,,,,761,2022-01-21_13h03.43.732,multiplicationStroop,2021.2.3,Win32,59.95563283,,,,,,,,,,,,,,,,,,,,,,,,,,,,,,,,,6,1.6825,1,0,3,3,11,1,2,×,3,2 × 3,incongruent,smallerFirst,2,1,6,,,,,,,,
,,,,,,,,,,,,,,,761,2022-01-21_13h03.43.732,multiplicationStroop,2021.2.3,Win32,59.95563283,,,,,,,,,,,,,,,,,,,,,,,,,,,,,,,,,48,3.8824,1,0,4,4,1,1,6,×,8,6 × 8,incongruent,smallerFirst,2,1,48,,,,,,,,
,,,,,,,,,,,,,,,761,2022-01-21_13h03.43.732,multiplicationStroop,2021.2.3,Win32,59.95563283,,,,,,,,,,,,,,,,,,,,,,,,,,,,,,,,,25,1.9056,0,0,5,5,20,1,6,×,4,6 × 4,incongruent,largerFirst,1,2,24,,,,,,,,
,,,,,,,,,,,,,,,761,2022-01-21_13h03.43.732,multiplicationStroop,2021.2.3,Win32,59.95563283,,,,,,,,,,,,,,,,,,,,,,,,,,,,,,,,,14,1.8992,1,0,6,6,4,1,2,×,7,2 × 7,incongruent,smallerFirst,2,1,14,,,,,,,,
,,,,,,,,,,,,,,,761,2022-01-21_13h03.43.732,multiplicationStroop,2021.2.3,Win32,59.95563283,,,,,,,,,,,,,,,,,,,,,,,,,,,,,,,,,36,4.3155,1,0,7,7,15,1,9,×,4,9 × 4,incongruent,largerFirst,1,2,36,,,,,,,,
,,,,,,,,,,,,,,,761,2022-01-21_13h03.43.732,multiplicationStroop,2021.2.3,Win32,59.95563283,,,,,,,,,,,,,,,,,,,,,,,,,,,,,,,,,43,12.1876,0,0,8,8,17,1,7,×,6,7 × 6,incongruent,largerFirst,1,2,42,,,,,,,,
,,,,,,,,,,,,,,,761,2022-01-21_13h03.43.732,multiplicationStroop,2021.2.3,Win32,59.95563283,,,,,,,,,,,,,,,,,,,,,,,,,,,,,,,,,10,2.3882,1,0,9,9,21,1,5,×,2,5 × 2,incongruent,largerFirst,1,2,10,,,,,,,,
,,,,,,,,,,,,,,,761,2022-01-21_13h03.43.732,multiplicationStroop,2021.2.3,Win32,59.95563283,,,,,,,,,,,,,,,,,,,,,,,,,,,,,,,,,40,3.5827,1,0,10,10,13,1,5,×,8,5 × 8,incongruent,smallerFirst,2,1,40,,,,,,,,
,,,,,,,,,,,,,,,761,2022-01-21_13h03.43.732,multiplicationStroop,2021.2.3,Win32,59.95563283,,,,,,,,,,,,,,,,,,,,,,,,,,,,,,,,,56,6.7157,1,0,11,11,14,1,8,×,7,8 × 7,incongruent,largerFirst,1,2,56,,,,,,,,
,,,,,,,,,,,,,,,761,2022-01-21_13h03.43.732,multiplicationStroop,2021.2.3,Win32,59.95563283,,,,,,,,,,,,,,,,,,,,,,,,,,,,,,,,,12,1.9712,1,0,12,12,5,1,3,×,4,3 × 4,incongruent,smallerFirst,2,1,12,,,,,,,,
,,,,,,,,,,,,,,,761,2022-01-21_13h03.43.732,multiplicationStroop,2021.2.3,Win32,59.95563283,,,,,,,,,,,,,,,,,,,,,,,,,,,,,,,,,18,4.3158,1,0,13,13,8,1,3,×,6,3 × 6,incongruent,smallerFirst,2,1,18,,,,,,,,
,,,,,,,,,,,,,,,761,2022-01-21_13h03.43.732,multiplicationStroop,2021.2.3,Win32,59.95563283,,,,,,,,,,,,,,,,,,,,,,,,,,,,,,,,,30,2.0883,1,0,14,14,25,1,6,×,5,6 × 5,incongruent,largerFirst,1,2,30,,,,,,,,
,,,,,,,,,,,,,,,761,2022-01-21_13h03.43.732,multiplicationStroop,2021.2.3,Win32,59.95563283,,,,,,,,,,,,,,,,,,,,,,,,,,,,,,,,,9,1.6655,1,0,15,15,29,1,3,×,3,3 × 3,incongruent,tie,1,2,9,,,,,,,,
,,,,,,,,,,,,,,,761,2022-01-21_13h03.43.732,multiplicationStroop,2021.2.3,Win32,59.95563283,,,,,,,,,,,,,,,,,,,,,,,,,,,,,,,,,16,1.8331,1,0,16,16,23,1,8,×,2,8 × 2,incongruent,largerFirst,1,2,16,,,,,,,,
,,,,,,,,,,,,,,,761,2022-01-21_13h03.43.732,multiplicationStroop,2021.2.3,Win32,59.95563283,,,,,,,,,,,,,,,,,,,,,,,,,,,,,,,,,16,1.9182,0,0,17,17,7,1,4,×,8,4 × 8,incongruent,smallerFirst,2,1,32,,,,,,,,
,,,,,,,,,,,,,,,761,2022-01-21_13h03.43.732,multiplicationStroop,2021.2.3,Win32,59.95563283,,,,,,,,,,,,,,,,,,,,,,,,,,,,,,,,,32,4.2299,0,0,18,18,9,1,3,×,8,3 × 8,incongruent,smallerFirst,2,1,24,,,,,,,,
,,,,,,,,,,,,,,,761,2022-01-21_13h03.43.732,multiplicationStroop,2021.2.3,Win32,59.95563283,,,,,,,,,,,,,,,,,,,,,,,,,,,,,,,,,42,4.3228,0,0,19,19,33,1,7,×,7,7 × 7,incongruent,tie,1,2,49,,,,,,,,
,,,,,,,,,,,,,,,761,2022-01-21_13h03.43.732,multiplicationStroop,2021.2.3,Win32,59.95563283,,,,,,,,,,,,,,,,,,,,,,,,,,,,,,,,,8,2.7246,1,0,20,20,24,1,4,×,2,4 × 2,incongruent,largerFirst,1,2,8,,,,,,,,
,,,,,,,,,,,,,,,761,2022-01-21_13h03.43.732,multiplicationStroop,2021.2.3,Win32,59.95563283,,,,,,,,,,,,,,,,,,,,,,,,,,,,,,,,,64,23.6618,1,0,21,21,34,1,8,×,8,8 × 8,incongruent,tie,1,2,64,,,,,,,,
,,,,,,,,,,,,,,,761,2022-01-21_13h03.43.732,multiplicationStroop,2021.2.3,Win32,59.95563283,,,,,,,,,,,,,,,,,,,,,,,,,,,,,,,,,36,3.0216,1,0,22,22,32,1,6,×,6,6 × 6,incongruent,tie,1,2,36,,,,,,,,
,,,,,,,,,,,,,,,761,2022-01-21_13h03.43.732,multiplicationStroop,2021.2.3,Win32,59.95563283,,,,,,,,,,,,,,,,,,,,,,,,,,,,,,,,,21,4.1486,1,0,23,23,26,1,7,×,3,7 × 3,incongruent,largerFirst,1,2,21,,,,,,,,
,,,,,,,,,,,,,,,761,2022-01-21_13h03.43.732,multiplicationStroop,2021.2.3,Win32,59.95563283,,,,,,,,,,,,,,,,,,,,,,,,,,,,,,,,,18,2.7222,1,0,24,24,2,1,2,×,9,2 × 9,incongruent,smallerFirst,2,1,18,,,,,,,,
,,,,,,,,,,,,,,,761,2022-01-21_13h03.43.732,multiplicationStroop,2021.2.3,Win32,59.95563283,,,,,,,,,,,,,,,,,,,,,,,,,,,,,,,,,54,8.6321,1,0,25,25,6,1,6,×,9,6 × 9,incongruent,smallerFirst,2,1,54,,,,,,,,
,,,,,,,,,,,,,,,761,2022-01-21_13h03.43.732,multiplicationStroop,2021.2.3,Win32,59.95563283,,,,,,,,,,,,,,,,,,,,,,,,,,,,,,,,,15,2.1219,1,0,26,26,10,1,3,×,5,3 × 5,incongruent,smallerFirst,2,1,15,,,,,,,,
,,,,,,,,,,,,,,,761,2022-01-21_13h03.43.732,multiplicationStroop,2021.2.3,Win32,59.95563283,,,,,,,,,,,,,,,,,,,,,,,,,,,,,,,,,20,2.066,1,0,27,27,27,1,5,×,4,5 × 4,incongruent,largerFirst,1,2,20,,,,,,,,
,,,,,,,,,,,,,,,761,2022-01-21_13h03.43.732,multiplicationStroop,2021.2.3,Win32,59.95563283,,,,,,,,,,,,,,,,,,,,,,,,,,,,,,,,,81,2.8159,1,0,28,28,35,1,9,×,9,9 × 9,incongruent,tie,1,2,81,,,,,,,,
,,,,,,,,,,,,,,,761,2022-01-21_13h03.43.732,multiplicationStroop,2021.2.3,Win32,59.95563283,,,,,,,,,,,,,,,,,,,,,,,,,,,,,,,,,35,4.4017,1,0,29,29,12,1,5,×,7,5 × 7,incongruent,smallerFirst,2,1,35,,,,,,,,
,,,,,,,,,,,,,,,761,2022-01-21_13h03.43.732,multiplicationStroop,2021.2.3,Win32,59.95563283,,,,,,,,,,,,,,,,,,,,,,,,,,,,,,,,,63,5.0224,1,0,30,30,3,1,7,×,9,7 × 9,incongruent,smallerFirst,2,1,63,,,,,,,,
,,,,,,,,,,,,,,,761,2022-01-21_13h03.43.732,multiplicationStroop,2021.2.3,Win32,59.95563283,,,,,,,,,,,,,,,,,,,,,,,,,,,,,,,,,4,1.2864,1,0,31,31,28,1,2,×,2,2 × 2,incongruent,tie,1,2,4,,,,,,,,
,,,,,,,,,,,,,,,761,2022-01-21_13h03.43.732,multiplicationStroop,2021.2.3,Win32,59.95563283,,,,,,,,,,,,,,,,,,,,,,,,,,,,,,,,,45,2.5659,1,0,32,32,22,1,9,×,5,9 × 5,incongruent,largerFirst,1,2,45,,,,,,,,
,,,,,,,,,,,,,,,761,2022-01-21_13h03.43.732,multiplicationStroop,2021.2.3,Win32,59.95563283,,,,,,,,,,,,,,,,,,,,,,,,,,,,,,,,,25,2.1891,1,0,33,33,31,1,5,×,5,5 × 5,incongruent,tie,1,2,25,,,,,,,,
,,,,,,,,,,,,,,,761,2022-01-21_13h03.43.732,multiplicationStroop,2021.2.3,Win32,59.95563283,,,,,,,,,,,,,,,,,,,,,,,,,,,,,,,,,12,1.7991,1,0,34,34,19,1,6,×,2,6 × 2,incongruent,largerFirst,1,2,12,,,,,,,,
,,,,,,,,,,,,,,,761,2022-01-21_13h03.43.732,multiplicationStroop,2021.2.3,Win32,59.95563283,,,,,,,,,,,,,,,,,,,,,,,,,,,,,,,,,72,5.9992,1,0,35,35,0,1,8,×,9,8 × 9,incongruent,smallerFirst,2,1,72,,,,,,,,
,,,,,,,,,,,,,,,761,2022-01-21_13h03.43.732,multiplicationStroop,2021.2.3,Win32,59.95563283,,,,,,,,,,,,,,,,,,,,,,,,,,,,,,,,,,,,,,,,,,,,,,,,,,0,1,1,5,1,stimulusFile/mult_blk6_INcongruent.xlsx,,
,,,,,,,,,,,,,,,761,2022-01-21_13h03.43.732,multiplicationStroop,2021.2.3,Win32,59.95563283,,,,,,,,,,,,,,,,,,,,,,,,,,,,,,,space,11.0575,18,3.4096,1,0,0,0,16,1,9,×,2,9 × 2,incongruent,largerFirst,1,2,18,,,,,,,,
,,,,,,,,,,,,,,,761,2022-01-21_13h03.43.732,multiplicationStroop,2021.2.3,Win32,59.95563283,,,,,,,,,,,,,,,,,,,,,,,,,,,,,,,,,16,1.9332,1,0,1,1,30,1,4,×,4,4 × 4,neutral,tie,2,1,16,,,,,,,,
,,,,,,,,,,,,,,,761,2022-01-21_13h03.43.732,multiplicationStroop,2021.2.3,Win32,59.95563283,,,,,,,,,,,,,,,,,,,,,,,,,,,,,,,,,20,4.6484,1,0,2,2,13,1,4,×,5,4 × 5,incongruent,smallerFirst,2,1,20,,,,,,,,
,,,,,,,,,,,,,,,761,2022-01-21_13h03.43.732,multiplicationStroop,2021.2.3,Win32,59.95563283,,,,,,,,,,,,,,,,,,,,,,,,,,,,,,,,,4,1.4219,1,0,3,3,28,1,2,×,2,2 × 2,neutral,tie,2,1,4,,,,,,,,
,,,,,,,,,,,,,,,761,2022-01-21_13h03.43.732,multiplicationStroop,2021.2.3,Win32,59.95563283,,,,,,,,,,,,,,,,,,,,,,,,,,,,,,,,,45,2.3828,1,0,4,4,8,1,5,×,9,5 × 9,incongruent,smallerFirst,2,1,45,,,,,,,,
,,,,,,,,,,,,,,,761,2022-01-21_13h03.43.732,multiplicationStroop,2021.2.3,Win32,59.95563283,,,,,,,,,,,,,,,,,,,,,,,,,,,,,,,,,8,2.3493,1,0,5,5,10,1,2,×,4,2 × 4,incongruent,smallerFirst,2,1,8,,,,,,,,
,,,,,,,,,,,,,,,761,2022-01-21_13h03.43.732,multiplicationStroop,2021.2.3,Win32,59.95563283,,,,,,,,,,,,,,,,,,,,,,,,,,,,,,,,,25,1.7388,1,0,6,6,31,1,5,×,5,5 × 5,neutral,tie,2,1,25,,,,,,,,
,,,,,,,,,,,,,,,761,2022-01-21_13h03.43.732,multiplicationStroop,2021.2.3,Win32,59.95563283,,,,,,,,,,,,,,,,,,,,,,,,,,,,,,,,,12,2.7487,1,0,7,7,19,1,4,×,3,4 × 3,incongruent,largerFirst,1,2,12,,,,,,,,
,,,,,,,,,,,,,,,761,2022-01-21_13h03.43.732,multiplicationStroop,2021.2.3,Win32,59.95563283,,,,,,,,,,,,,,,,,,,,,,,,,,,,,,,,,16,3.5057,1,0,8,8,9,1,2,×,8,2 × 8,incongruent,smallerFirst,2,1,16,,,,,,,,
,,,,,,,,,,,,,,,761,2022-01-21_13h03.43.732,multiplicationStroop,2021.2.3,Win32,59.95563283,,,,,,,,,,,,,,,,,,,,,,,,,,,,,,,,,6,1.8384,1,0,9,9,25,1,3,×,2,3 × 2,incongruent,largerFirst,1,2,6,,,,,,,,
,,,,,,,,,,,,,,,761,2022-01-21_13h03.43.732,multiplicationStroop,2021.2.3,Win32,59.95563283,,,,,,,,,,,,,,,,,,,,,,,,,,,,,,,,,12,1.9158,1,0,10,10,5,1,2,×,6,2 × 6,incongruent,smallerFirst,2,1,12,,,,,,,,
,,,,,,,,,,,,,,,761,2022-01-21_13h03.43.732,multiplicationStroop,2021.2.3,Win32,59.95563283,,,,,,,,,,,,,,,,,,,,,,,,,,,,,,,,,14,1.7659,1,0,11,11,18,1,7,×,2,7 × 2,incongruent,largerFirst,1,2,14,,,,,,,,
,,,,,,,,,,,,,,,761,2022-01-21_13h03.43.732,multiplicationStroop,2021.2.3,Win32,59.95563283,,,,,,,,,,,,,,,,,,,,,,,,,,,,,,,,,35,1.6825,1,0,12,12,26,1,7,×,5,7 × 5,incongruent,largerFirst,1,2,35,,,,,,,,
,,,,,,,,,,,,,,,761,2022-01-21_13h03.43.732,multiplicationStroop,2021.2.3,Win32,59.95563283,,,,,,,,,,,,,,,,,,,,,,,,,,,,,,,,,48,3.6353,1,0,13,13,15,1,8,×,6,8 × 6,incongruent,largerFirst,1,2,48,,,,,,,,
,,,,,,,,,,,,,,,761,2022-01-21_13h03.43.732,multiplicationStroop,2021.2.3,Win32,59.95563283,,,,,,,,,,,,,,,,,,,,,,,,,,,,,,,,,10,1.67,1,0,14,14,7,1,2,×,5,2 × 5,incongruent,smallerFirst,2,1,10,,,,,,,,
,,,,,,,,,,,,,,,761,2022-01-21_13h03.43.732,multiplicationStroop,2021.2.3,Win32,59.95563283,,,,,,,,,,,,,,,,,,,,,,,,,,,,,,,,,59,15.0982,0,0,15,15,33,1,7,×,7,7 × 7,neutral,tie,2,1,49,,,,,,,,
,,,,,,,,,,,,,,,761,2022-01-21_13h03.43.732,multiplicationStroop,2021.2.3,Win32,59.95563283,,,,,,,,,,,,,,,,,,,,,,,,,,,,,,,,,32,10.9875,0,0,16,16,3,1,6,×,7,6 × 7,incongruent,smallerFirst,2,1,42,,,,,,,,
,,,,,,,,,,,,,,,761,2022-01-21_13h03.43.732,multiplicationStroop,2021.2.3,Win32,59.95563283,,,,,,,,,,,,,,,,,,,,,,,,,,,,,,,,,9,3.1882,1,0,17,17,29,1,3,×,3,3 × 3,neutral,tie,2,1,9,,,,,,,,
,,,,,,,,,,,,,,,761,2022-01-21_13h03.43.732,multiplicationStroop,2021.2.3,Win32,59.95563283,,,,,,,,,,,,,,,,,,,,,,,,,,,,,,,,,81,3.9156,1,0,18,18,35,1,9,×,9,9 × 9,neutral,tie,2,1,81,,,,,,,,
,,,,,,,,,,,,,,,761,2022-01-21_13h03.43.732,multiplicationStroop,2021.2.3,Win32,59.95563283,,,,,,,,,,,,,,,,,,,,,,,,,,,,,,,,,36,5.2886,1,0,19,19,1,1,4,×,9,4 × 9,incongruent,smallerFirst,2,1,36,,,,,,,,
,,,,,,,,,,,,,,,761,2022-01-21_13h03.43.732,multiplicationStroop,2021.2.3,Win32,59.95563283,,,,,,,,,,,,,,,,,,,,,,,,,,,,,,,,,24,3.5385,1,0,20,20,6,1,4,×,6,4 × 6,incongruent,smallerFirst,2,1,24,,,,,,,,
,,,,,,,,,,,,,,,761,2022-01-21_13h03.43.732,multiplicationStroop,2021.2.3,Win32,59.95563283,,,,,,,,,,,,,,,,,,,,,,,,,,,,,,,,,54,4.4825,1,0,21,21,20,1,9,×,6,9 × 6,incongruent,largerFirst,1,2,54,,,,,,,,
,,,,,,,,,,,,,,,761,2022-01-21_13h03.43.732,multiplicationStroop,2021.2.3,Win32,59.95563283,,,,,,,,,,,,,,,,,,,,,,,,,,,,,,,,,63,5.672,1,0,22,22,17,1,9,×,7,9 × 7,incongruent,largerFirst,1,2,63,,,,,,,,
,,,,,,,,,,,,,,,761,2022-01-21_13h03.43.732,multiplicationStroop,2021.2.3,Win32,59.95563283,,,,,,,,,,,,,,,,,,,,,,,,,,,,,,,,,21,2.4557,1,0,23,23,12,1,3,×,7,3 × 7,incongruent,smallerFirst,2,1,21,,,,,,,,
,,,,,,,,,,,,,,,761,2022-01-21_13h03.43.732,multiplicationStroop,2021.2.3,Win32,59.95563283,,,,,,,,,,,,,,,,,,,,,,,,,,,,,,,,,72,5.358,0,0,24,24,34,1,8,×,8,8 × 8,neutral,tie,2,1,64,,,,,,,,
,,,,,,,,,,,,,,,761,2022-01-21_13h03.43.732,multiplicationStroop,2021.2.3,Win32,59.95563283,,,,,,,,,,,,,,,,,,,,,,,,,,,,,,,,,36,10.8634,1,0,25,25,32,1,6,×,6,6 × 6,neutral,tie,2,1,36,,,,,,,,
,,,,,,,,,,,,,,,761,2022-01-21_13h03.43.732,multiplicationStroop,2021.2.3,Win32,59.95563283,,,,,,,,,,,,,,,,,,,,,,,,,,,,,,,,,24,10.0376,1,0,26,26,23,1,8,×,3,8 × 3,incongruent,largerFirst,1,2,24,,,,,,,,
,,,,,,,,,,,,,,,761,2022-01-21_13h03.43.732,multiplicationStroop,2021.2.3,Win32,59.95563283,,,,,,,,,,,,,,,,,,,,,,,,,,,,,,,,,28,5.855,1,0,27,27,2,1,4,×,7,4 × 7,incongruent,smallerFirst,2,1,28,,,,,,,,
,,,,,,,,,,,,,,,761,2022-01-21_13h03.43.732,multiplicationStroop,2021.2.3,Win32,59.95563283,,,,,,,,,,,,,,,,,,,,,,,,,,,,,,,,,30,2.0557,1,0,28,28,11,1,5,×,6,5 × 6,incongruent,smallerFirst,2,1,30,,,,,,,,
,,,,,,,,,,,,,,,761,2022-01-21_13h03.43.732,multiplicationStroop,2021.2.3,Win32,59.95563283,,,,,,,,,,,,,,,,,,,,,,,,,,,,,,,,,32,4.2161,1,0,29,29,21,1,8,×,4,8 × 4,incongruent,largerFirst,1,2,32,,,,,,,,
,,,,,,,,,,,,,,,761,2022-01-21_13h03.43.732,multiplicationStroop,2021.2.3,Win32,59.95563283,,,,,,,,,,,,,,,,,,,,,,,,,,,,,,,,,56,10.6383,1,0,30,30,0,1,7,×,8,7 × 8,incongruent,smallerFirst,2,1,56,,,,,,,,
,,,,,,,,,,,,,,,761,2022-01-21_13h03.43.732,multiplicationStroop,2021.2.3,Win32,59.95563283,,,,,,,,,,,,,,,,,,,,,,,,,,,,,,,,,40,2.7382,1,0,31,31,27,1,8,×,5,8 × 5,incongruent,largerFirst,1,2,40,,,,,,,,
,,,,,,,,,,,,,,,761,2022-01-21_13h03.43.732,multiplicationStroop,2021.2.3,Win32,59.95563283,,,,,,,,,,,,,,,,,,,,,,,,,,,,,,,,,27,4.1018,1,0,32,32,4,1,3,×,9,3 × 9,incongruent,smallerFirst,2,1,27,,,,,,,,
,,,,,,,,,,,,,,,761,2022-01-21_13h03.43.732,multiplicationStroop,2021.2.3,Win32,59.95563283,,,,,,,,,,,,,,,,,,,,,,,,,,,,,,,,,18,2.8556,1,0,33,33,22,1,6,×,3,6 × 3,incongruent,largerFirst,1,2,18,,,,,,,,
,,,,,,,,,,,,,,,761,2022-01-21_13h03.43.732,multiplicationStroop,2021.2.3,Win32,59.95563283,,,,,,,,,,,,,,,,,,,,,,,,,,,,,,,,,15,2.1636,1,0,34,34,24,1,5,×,3,5 × 3,incongruent,largerFirst,1,2,15,,,,,,,,
,,,,,,,,,,,,,,,761,2022-01-21_13h03.43.732,multiplicationStroop,2021.2.3,Win32,59.95563283,,,,,,,,,,,,,,,,,,,,,,,,,,,,,,,,,72,5.1319,1,0,35,35,14,1,9,×,8,9 × 8,incongruent,largerFirst,1,2,72,,,,,,,,
,,,,,,,,,,,,,,,761,2022-01-21_13h03.43.732,multiplicationStroop,2021.2.3,Win32,59.95563283,,,,,,,,,,,,,,,,,,,,,,,,,,,,,,,,,,,,,,,,,,,,,,,,,,0,2,2,4,1,stimulusFile/mult_blk5_INcongruent.xlsx,,
,,,,,,,,,,,,,,,761,2022-01-21_13h03.43.732,multiplicationStroop,2021.2.3,Win32,59.95563283,,,,,,,,,,,,,,,,,,,,,,,,,,,,,,,space,10.4515,10,2.818,1,0,0,0,10,1,2,×,5,2 × 5,congruent,smallerFirst,1,2,10,,,,,,,,
,,,,,,,,,,,,,,,761,2022-01-21_13h03.43.732,multiplicationStroop,2021.2.3,Win32,59.95563283,,,,,,,,,,,,,,,,,,,,,,,,,,,,,,,,,72,3.8996,0,0,1,1,34,1,8,×,8,8 × 8,neutral,tie,1,2,64,,,,,,,,
,,,,,,,,,,,,,,,761,2022-01-21_13h03.43.732,multiplicationStroop,2021.2.3,Win32,59.95563283,,,,,,,,,,,,,,,,,,,,,,,,,,,,,,,,,14,2.0552,1,0,2,2,0,1,2,×,7,2 × 7,congruent,smallerFirst,1,2,14,,,,,,,,
,,,,,,,,,,,,,,,761,2022-01-21_13h03.43.732,multiplicationStroop,2021.2.3,Win32,59.95563283,,,,,,,,,,,,,,,,,,,,,,,,,,,,,,,,,21,6.4181,1,0,3,3,2,1,3,×,7,3 × 7,congruent,smallerFirst,1,2,21,,,,,,,,
,,,,,,,,,,,,,,,761,2022-01-21_13h03.43.732,multiplicationStroop,2021.2.3,Win32,59.95563283,,,,,,,,,,,,,,,,,,,,,,,,,,,,,,,,,16,1.9192,1,0,4,4,19,1,8,×,2,8 × 2,congruent,largerFirst,2,1,16,,,,,,,,
,,,,,,,,,,,,,,,761,2022-01-21_13h03.43.732,multiplicationStroop,2021.2.3,Win32,59.95563283,,,,,,,,,,,,,,,,,,,,,,,,,,,,,,,,,32,3.8657,1,0,5,5,6,1,4,×,8,4 × 8,congruent,smallerFirst,1,2,32,,,,,,,,
,,,,,,,,,,,,,,,761,2022-01-21_13h03.43.732,multiplicationStroop,2021.2.3,Win32,59.95563283,,,,,,,,,,,,,,,,,,,,,,,,,,,,,,,,,9,1.7052,1,0,6,6,29,1,3,×,3,3 × 3,neutral,tie,1,2,9,,,,,,,,
,,,,,,,,,,,,,,,761,2022-01-21_13h03.43.732,multiplicationStroop,2021.2.3,Win32,59.95563283,,,,,,,,,,,,,,,,,,,,,,,,,,,,,,,,,20,1.8324,1,0,7,7,21,1,5,×,4,5 × 4,congruent,largerFirst,2,1,20,,,,,,,,
,,,,,,,,,,,,,,,761,2022-01-21_13h03.43.732,multiplicationStroop,2021.2.3,Win32,59.95563283,,,,,,,,,,,,,,,,,,,,,,,,,,,,,,,,,18,2.866,1,0,8,8,25,1,6,×,3,6 × 3,congruent,largerFirst,2,1,18,,,,,,,,
,,,,,,,,,,,,,,,761,2022-01-21_13h03.43.732,multiplicationStroop,2021.2.3,Win32,59.95563283,,,,,,,,,,,,,,,,,,,,,,,,,,,,,,,,,6,1.9658,1,0,9,9,27,1,3,×,2,3 × 2,congruent,largerFirst,2,1,6,,,,,,,,
,,,,,,,,,,,,,,,761,2022-01-21_13h03.43.732,multiplicationStroop,2021.2.3,Win32,59.95563283,,,,,,,,,,,,,,,,,,,,,,,,,,,,,,,,,30,1.9992,1,0,10,10,1,1,5,×,6,5 × 6,congruent,smallerFirst,1,2,30,,,,,,,,
,,,,,,,,,,,,,,,761,2022-01-21_13h03.43.732,multiplicationStroop,2021.2.3,Win32,59.95563283,,,,,,,,,,,,,,,,,,,,,,,,,,,,,,,,,12,2.3348,1,0,11,11,16,1,4,×,3,4 × 3,congruent,largerFirst,2,1,12,,,,,,,,
,,,,,,,,,,,,,,,761,2022-01-21_13h03.43.732,multiplicationStroop,2021.2.3,Win32,59.95563283,,,,,,,,,,,,,,,,,,,,,,,,,,,,,,,,,27,3.7299,1,0,12,12,12,1,3,×,9,3 × 9,congruent,smallerFirst,1,2,27,,,,,,,,
,,,,,,,,,,,,,,,761,2022-01-21_13h03.43.732,multiplicationStroop,2021.2.3,Win32,59.95563283,,,,,,,,,,,,,,,,,,,,,,,,,,,,,,,,,54,3.2723,1,0,13,13,26,1,9,×,6,9 × 6,congruent,largerFirst,2,1,54,,,,,,,,
,,,,,,,,,,,,,,,761,2022-01-21_13h03.43.732,multiplicationStroop,2021.2.3,Win32,59.95563283,,,,,,,,,,,,,,,,,,,,,,,,,,,,,,,,,4,2.4718,1,0,14,14,28,1,2,×,2,2 × 2,neutral,tie,1,2,4,,,,,,,,
,,,,,,,,,,,,,,,761,2022-01-21_13h03.43.732,multiplicationStroop,2021.2.3,Win32,59.95563283,,,,,,,,,,,,,,,,,,,,,,,,,,,,,,,,,15,1.7655,1,0,15,15,18,1,5,×,3,5 × 3,congruent,largerFirst,2,1,15,,,,,,,,
,,,,,,,,,,,,,,,761,2022-01-21_13h03.43.732,multiplicationStroop,2021.2.3,Win32,59.95563283,,,,,,,,,,,,,,,,,,,,,,,,,,,,,,,,,52,8.5324,0,0,16,16,33,1,7,×,7,7 × 7,neutral,tie,1,2,49,,,,,,,,
,,,,,,,,,,,,,,,761,2022-01-21_13h03.43.732,multiplicationStroop,2021.2.3,Win32,59.95563283,,,,,,,,,,,,,,,,,,,,,,,,,,,,,,,,,72,4.9717,1,0,17,17,3,1,8,×,9,8 × 9,congruent,smallerFirst,1,2,72,,,,,,,,
,,,,,,,,,,,,,,,761,2022-01-21_13h03.43.732,multiplicationStroop,2021.2.3,Win32,59.95563283,,,,,,,,,,,,,,,,,,,,,,,,,,,,,,,,,24,2.5209,1,0,18,18,11,1,4,×,6,4 × 6,congruent,smallerFirst,1,2,24,,,,,,,,
,,,,,,,,,,,,,,,761,2022-01-21_13h03.43.732,multiplicationStroop,2021.2.3,Win32,59.95563283,,,,,,,,,,,,,,,,,,,,,,,,,,,,,,,,,81,2.4493,1,0,19,19,35,1,9,×,9,9 × 9,neutral,tie,1,2,81,,,,,,,,
,,,,,,,,,,,,,,,761,2022-01-21_13h03.43.732,multiplicationStroop,2021.2.3,Win32,59.95563283,,,,,,,,,,,,,,,,,,,,,,,,,,,,,,,,,24,4.9823,1,0,20,20,24,1,8,×,3,8 × 3,congruent,largerFirst,2,1,24,,,,,,,,
,,,,,,,,,,,,,,,761,2022-01-21_13h03.43.732,multiplicationStroop,2021.2.3,Win32,59.95563283,,,,,,,,,,,,,,,,,,,,,,,,,,,,,,,,,40,2.0719,1,0,21,21,20,1,8,×,5,8 × 5,congruent,largerFirst,2,1,40,,,,,,,,
,,,,,,,,,,,,,,,761,2022-01-21_13h03.43.732,multiplicationStroop,2021.2.3,Win32,59.95563283,,,,,,,,,,,,,,,,,,,,,,,,,,,,,,,,,18,2.1158,1,0,22,22,8,1,2,×,9,2 × 9,congruent,smallerFirst,1,2,18,,,,,,,,
,,,,,,,,,,,,,,,761,2022-01-21_13h03.43.732,multiplicationStroop,2021.2.3,Win32,59.95563283,,,,,,,,,,,,,,,,,,,,,,,,,,,,,,,,,8,3.4824,1,0,23,23,23,1,4,×,2,4 × 2,congruent,largerFirst,2,1,8,,,,,,,,
,,,,,,,,,,,,,,,761,2022-01-21_13h03.43.732,multiplicationStroop,2021.2.3,Win32,59.95563283,,,,,,,,,,,,,,,,,,,,,,,,,,,,,,,,,35,1.922,1,0,24,24,15,1,7,×,5,7 × 5,congruent,largerFirst,2,1,35,,,,,,,,
,,,,,,,,,,,,,,,761,2022-01-21_13h03.43.732,multiplicationStroop,2021.2.3,Win32,59.95563283,,,,,,,,,,,,,,,,,,,,,,,,,,,,,,,,,42,2.6991,1,0,25,25,17,1,7,×,6,7 × 6,congruent,largerFirst,2,1,42,,,,,,,,
,,,,,,,,,,,,,,,761,2022-01-21_13h03.43.732,multiplicationStroop,2021.2.3,Win32,59.95563283,,,,,,,,,,,,,,,,,,,,,,,,,,,,,,,,,16,2.0721,1,0,26,26,30,1,4,×,4,4 × 4,neutral,tie,1,2,16,,,,,,,,
,,,,,,,,,,,,,,,761,2022-01-21_13h03.43.732,multiplicationStroop,2021.2.3,Win32,59.95563283,,,,,,,,,,,,,,,,,,,,,,,,,,,,,,,,,63,5.566,1,0,27,27,7,1,7,×,9,7 × 9,congruent,smallerFirst,1,2,63,,,,,,,,
,,,,,,,,,,,,,,,761,2022-01-21_13h03.43.732,multiplicationStroop,2021.2.3,Win32,59.95563283,,,,,,,,,,,,,,,,,,,,,,,,,,,,,,,,,12,1.5217,1,0,28,28,5,1,2,×,6,2 × 6,congruent,smallerFirst,1,2,12,,,,,,,,
,,,,,,,,,,,,,,,761,2022-01-21_13h03.43.732,multiplicationStroop,2021.2.3,Win32,59.95563283,,,,,,,,,,,,,,,,,,,,,,,,,,,,,,,,,25,1.866,1,0,29,29,31,1,5,×,5,5 × 5,neutral,tie,1,2,25,,,,,,,,
,,,,,,,,,,,,,,,761,2022-01-21_13h03.43.732,multiplicationStroop,2021.2.3,Win32,59.95563283,,,,,,,,,,,,,,,,,,,,,,,,,,,,,,,,,45,4.8154,1,0,30,30,9,1,5,×,9,5 × 9,congruent,smallerFirst,1,2,45,,,,,,,,
,,,,,,,,,,,,,,,761,2022-01-21_13h03.43.732,multiplicationStroop,2021.2.3,Win32,59.95563283,,,,,,,,,,,,,,,,,,,,,,,,,,,,,,,,,56,19.4043,1,0,31,31,22,1,8,×,7,8 × 7,congruent,largerFirst,2,1,56,,,,,,,,
,,,,,,,,,,,,,,,761,2022-01-21_13h03.43.732,multiplicationStroop,2021.2.3,Win32,59.95563283,,,,,,,,,,,,,,,,,,,,,,,,,,,,,,,,,36,2.4209,1,0,32,32,32,1,6,×,6,6 × 6,neutral,tie,1,2,36,,,,,,,,
,,,,,,,,,,,,,,,761,2022-01-21_13h03.43.732,multiplicationStroop,2021.2.3,Win32,59.95563283,,,,,,,,,,,,,,,,,,,,,,,,,,,,,,,,,28,2.733,1,0,33,33,13,1,4,×,7,4 × 7,congruent,smallerFirst,1,2,28,,,,,,,,
,,,,,,,,,,,,,,,761,2022-01-21_13h03.43.732,multiplicationStroop,2021.2.3,Win32,59.95563283,,,,,,,,,,,,,,,,,,,,,,,,,,,,,,,,,36,4.8987,1,0,34,34,14,1,9,×,4,9 × 4,congruent,largerFirst,2,1,36,,,,,,,,
,,,,,,,,,,,,,,,761,2022-01-21_13h03.43.732,multiplicationStroop,2021.2.3,Win32,59.95563283,,,,,,,,,,,,,,,,,,,,,,,,,,,,,,,,,48,2.8391,1,0,35,35,4,1,6,×,8,6 × 8,congruent,smallerFirst,1,2,48,,,,,,,,
,,,,,,,,,,,,,,,761,2022-01-21_13h03.43.732,multiplicationStroop,2021.2.3,Win32,59.95563283,,,,,,,,,,,,,,,,,,,,,,,,,,,,,,,,,,,,,,,,,,,,,,,,,,0,3,3,3,1,stimulusFile/mult_blk4_congruent.xlsx,,
,,,,,,,,,,,,,,,761,2022-01-21_13h03.43.732,multiplicationStroop,2021.2.3,Win32,59.95563283,,,,,,,,,,,,,,,,,,,,,,,,,,,,,,,space,11.5167,45,2.8626,1,0,0,0,24,1,9,×,5,9 × 5,neutral,largerFirst,1.5,1.5,45,,,,,,,,
,,,,,,,,,,,,,,,761,2022-01-21_13h03.43.732,multiplicationStroop,2021.2.3,Win32,59.95563283,,,,,,,,,,,,,,,,,,,,,,,,,,,,,,,,,18,2.3324,1,0,1,1,4,1,2,×,9,2 × 9,neutral,smallerFirst,1.5,1.5,18,,,,,,,,
,,,,,,,,,,,,,,,761,2022-01-21_13h03.43.732,multiplicationStroop,2021.2.3,Win32,59.95563283,,,,,,,,,,,,,,,,,,,,,,,,,,,,,,,,,14,1.9158,1,0,2,2,2,1,2,×,7,2 × 7,neutral,smallerFirst,1.5,1.5,14,,,,,,,,
,,,,,,,,,,,,,,,761,2022-01-21_13h03.43.732,multiplicationStroop,2021.2.3,Win32,59.95563283,,,,,,,,,,,,,,,,,,,,,,,,,,,,,,,,,18,2.6158,1,0,3,3,14,1,6,×,3,6 × 3,neutral,largerFirst,1.5,1.5,18,,,,,,,,
,,,,,,,,,,,,,,,761,2022-01-21_13h03.43.732,multiplicationStroop,2021.2.3,Win32,59.95563283,,,,,,,,,,,,,,,,,,,,,,,,,,,,,,,,,24,4.8658,1,0,4,4,8,1,3,×,8,3 × 8,neutral,smallerFirst,1.5,1.5,24,,,,,,,,
,,,,,,,,,,,,,,,761,2022-01-21_13h03.43.732,multiplicationStroop,2021.2.3,Win32,59.95563283,,,,,,,,,,,,,,,,,,,,,,,,,,,,,,,,,36,1.9555,1,0,5,5,32,1,6,×,6,6 × 6,neutral,tie,1.5,1.5,36,,,,,,,,
,,,,,,,,,,,,,,,761,2022-01-21_13h03.43.732,multiplicationStroop,2021.2.3,Win32,59.95563283,,,,,,,,,,,,,,,,,,,,,,,,,,,,,,,,,36,6.7989,1,0,6,6,13,1,4,×,9,4 × 9,neutral,smallerFirst,1.5,1.5,36,,,,,,,,
,,,,,,,,,,,,,,,761,2022-01-21_13h03.43.732,multiplicationStroop,2021.2.3,Win32,59.95563283,,,,,,,,,,,,,,,,,,,,,,,,,,,,,,,,,81,2.9218,0,0,7,7,25,1,9,×,8,9 × 8,neutral,largerFirst,1.5,1.5,72,,,,,,,,
,,,,,,,,,,,,,,,761,2022-01-21_13h03.43.732,multiplicationStroop,2021.2.3,Win32,59.95563283,,,,,,,,,,,,,,,,,,,,,,,,,,,,,,,,,28,2.1222,1,0,8,8,3,1,4,×,7,4 × 7,neutral,smallerFirst,1.5,1.5,28,,,,,,,,
,,,,,,,,,,,,,,,761,2022-01-21_13h03.43.732,multiplicationStroop,2021.2.3,Win32,59.95563283,,,,,,,,,,,,,,,,,,,,,,,,,,,,,,,,,16,2.5827,1,0,9,9,30,1,4,×,4,4 × 4,neutral,tie,1.5,1.5,16,,,,,,,,
,,,,,,,,,,,,,,,761,2022-01-21_13h03.43.732,multiplicationStroop,2021.2.3,Win32,59.95563283,,,,,,,,,,,,,,,,,,,,,,,,,,,,,,,,,54,4.3152,1,0,10,10,21,1,9,×,6,9 × 6,neutral,largerFirst,1.5,1.5,54,,,,,,,,
,,,,,,,,,,,,,,,761,2022-01-21_13h03.43.732,multiplicationStroop,2021.2.3,Win32,59.95563283,,,,,,,,,,,,,,,,,,,,,,,,,,,,,,,,,8,2.7748,1,0,11,11,17,1,4,×,2,4 × 2,neutral,largerFirst,1.5,1.5,8,,,,,,,,
,,,,,,,,,,,,,,,761,2022-01-21_13h03.43.732,multiplicationStroop,2021.2.3,Win32,59.95563283,,,,,,,,,,,,,,,,,,,,,,,,,,,,,,,,,40,2.4367,1,0,12,12,10,1,5,×,8,5 × 8,neutral,smallerFirst,1.5,1.5,40,,,,,,,,
,,,,,,,,,,,,,,,761,2022-01-21_13h03.43.732,multiplicationStroop,2021.2.3,Win32,59.95563283,,,,,,,,,,,,,,,,,,,,,,,,,,,,,,,,,6,1.8324,1,0,13,13,12,1,2,×,3,2 × 3,neutral,smallerFirst,1.5,1.5,6,,,,,,,,
,,,,,,,,,,,,,,,761,2022-01-21_13h03.43.732,multiplicationStroop,2021.2.3,Win32,59.95563283,,,,,,,,,,,,,,,,,,,,,,,,,,,,,,,,,4,1.266,1,0,14,14,28,1,2,×,2,2 × 2,neutral,tie,1.5,1.5,4,,,,,,,,
,,,,,,,,,,,,,,,761,2022-01-21_13h03.43.732,multiplicationStroop,2021.2.3,Win32,59.95563283,,,,,,,,,,,,,,,,,,,,,,,,,,,,,,,,,81,6.4824,1,0,15,15,35,1,9,×,9,9 × 9,neutral,tie,1.5,1.5,81,,,,,,,,
,,,,,,,,,,,,,,,761,2022-01-21_13h03.43.732,multiplicationStroop,2021.2.3,Win32,59.95563283,,,,,,,,,,,,,,,,,,,,,,,,,,,,,,,,,25,4.971,1,0,16,16,31,1,5,×,5,5 × 5,neutral,tie,1.5,1.5,25,,,,,,,,
,,,,,,,,,,,,,,,761,2022-01-21_13h03.43.732,multiplicationStroop,2021.2.3,Win32,59.95563283,,,,,,,,,,,,,,,,,,,,,,,,,,,,,,,,,15,1.9877,1,0,17,17,19,1,5,×,3,5 × 3,neutral,largerFirst,1.5,1.5,15,,,,,,,,
,,,,,,,,,,,,,,,761,2022-01-21_13h03.43.732,multiplicationStroop,2021.2.3,Win32,59.95563283,,,,,,,,,,,,,,,,,,,,,,,,,,,,,,,,,21,3.2156,1,0,18,18,22,1,7,×,3,7 × 3,neutral,largerFirst,1.5,1.5,21,,,,,,,,
,,,,,,,,,,,,,,,761,2022-01-21_13h03.43.732,multiplicationStroop,2021.2.3,Win32,59.95563283,,,,,,,,,,,,,,,,,,,,,,,,,,,,,,,,,10,1.5888,1,0,19,19,18,1,5,×,2,5 × 2,neutral,largerFirst,1.5,1.5,10,,,,,,,,
,,,,,,,,,,,,,,,761,2022-01-21_13h03.43.732,multiplicationStroop,2021.2.3,Win32,59.95563283,,,,,,,,,,,,,,,,,,,,,,,,,,,,,,,,,32,4.7991,1,0,20,20,9,1,4,×,8,4 × 8,neutral,smallerFirst,1.5,1.5,32,,,,,,,,
,,,,,,,,,,,,,,,761,2022-01-21_13h03.43.732,multiplicationStroop,2021.2.3,Win32,59.95563283,,,,,,,,,,,,,,,,,,,,,,,,,,,,,,,,,12,1.722,1,0,21,21,11,1,2,×,6,2 × 6,neutral,smallerFirst,1.5,1.5,12,,,,,,,,
,,,,,,,,,,,,,,,761,2022-01-21_13h03.43.732,multiplicationStroop,2021.2.3,Win32,59.95563283,,,,,,,,,,,,,,,,,,,,,,,,,,,,,,,,,9,1.7182,1,0,22,22,29,1,3,×,3,3 × 3,neutral,tie,1.5,1.5,9,,,,,,,,
,,,,,,,,,,,,,,,761,2022-01-21_13h03.43.732,multiplicationStroop,2021.2.3,Win32,59.95563283,,,,,,,,,,,,,,,,,,,,,,,,,,,,,,,,,56,3.3637,1,0,23,23,23,1,8,×,7,8 × 7,neutral,largerFirst,1.5,1.5,56,,,,,,,,
,,,,,,,,,,,,,,,761,2022-01-21_13h03.43.732,multiplicationStroop,2021.2.3,Win32,59.95563283,,,,,,,,,,,,,,,,,,,,,,,,,,,,,,,,,59,11.7816,0,0,24,24,33,1,7,×,7,7 × 7,neutral,tie,1.5,1.5,49,,,,,,,,
,,,,,,,,,,,,,,,761,2022-01-21_13h03.43.732,multiplicationStroop,2021.2.3,Win32,59.95563283,,,,,,,,,,,,,,,,,,,,,,,,,,,,,,,,,24,4.6716,1,0,25,25,16,1,6,×,4,6 × 4,neutral,largerFirst,1.5,1.5,24,,,,,,,,
,,,,,,,,,,,,,,,761,2022-01-21_13h03.43.732,multiplicationStroop,2021.2.3,Win32,59.95563283,,,,,,,,,,,,,,,,,,,,,,,,,,,,,,,,,42,9.2876,1,0,26,26,20,1,7,×,6,7 × 6,neutral,largerFirst,1.5,1.5,42,,,,,,,,
,,,,,,,,,,,,,,,761,2022-01-21_13h03.43.732,multiplicationStroop,2021.2.3,Win32,59.95563283,,,,,,,,,,,,,,,,,,,,,,,,,,,,,,,,,16,2.6884,1,0,27,27,27,1,8,×,2,8 × 2,neutral,largerFirst,1.5,1.5,16,,,,,,,,
,,,,,,,,,,,,,,,761,2022-01-21_13h03.43.732,multiplicationStroop,2021.2.3,Win32,59.95563283,,,,,,,,,,,,,,,,,,,,,,,,,,,,,,,,,20,2.9889,1,0,28,28,6,1,4,×,5,4 × 5,neutral,smallerFirst,1.5,1.5,20,,,,,,,,
,,,,,,,,,,,,,,,761,2022-01-21_13h03.43.732,multiplicationStroop,2021.2.3,Win32,59.95563283,,,,,,,,,,,,,,,,,,,,,,,,,,,,,,,,,63,5.0829,1,0,29,29,26,1,9,×,7,9 × 7,neutral,largerFirst,1.5,1.5,63,,,,,,,,
,,,,,,,,,,,,,,,761,2022-01-21_13h03.43.732,multiplicationStroop,2021.2.3,Win32,59.95563283,,,,,,,,,,,,,,,,,,,,,,,,,,,,,,,,,48,3.4222,1,0,30,30,1,1,6,×,8,6 × 8,neutral,smallerFirst,1.5,1.5,48,,,,,,,,
,,,,,,,,,,,,,,,761,2022-01-21_13h03.43.732,multiplicationStroop,2021.2.3,Win32,59.95563283,,,,,,,,,,,,,,,,,,,,,,,,,,,,,,,,,64,13.9881,1,0,31,31,34,1,8,×,8,8 × 8,neutral,tie,1.5,1.5,64,,,,,,,,
,,,,,,,,,,,,,,,761,2022-01-21_13h03.43.732,multiplicationStroop,2021.2.3,Win32,59.95563283,,,,,,,,,,,,,,,,,,,,,,,,,,,,,,,,,12,1.8049,1,0,32,32,7,1,3,×,4,3 × 4,neutral,smallerFirst,1.5,1.5,12,,,,,,,,
,,,,,,,,,,,,,,,761,2022-01-21_13h03.43.732,multiplicationStroop,2021.2.3,Win32,59.95563283,,,,,,,,,,,,,,,,,,,,,,,,,,,,,,,,,35,1.7825,1,0,33,33,15,1,7,×,5,7 × 5,neutral,largerFirst,1.5,1.5,35,,,,,,,,
,,,,,,,,,,,,,,,761,2022-01-21_13h03.43.732,multiplicationStroop,2021.2.3,Win32,59.95563283,,,,,,,,,,,,,,,,,,,,,,,,,,,,,,,,,27,3.9656,1,0,34,34,0,1,3,×,9,3 × 9,neutral,smallerFirst,1.5,1.5,27,,,,,,,,
,,,,,,,,,,,,,,,761,2022-01-21_13h03.43.732,multiplicationStroop,2021.2.3,Win32,59.95563283,,,,,,,,,,,,,,,,,,,,,,,,,,,,,,,,,30,2.6061,1,0,35,35,5,1,5,×,6,5 × 6,neutral,smallerFirst,1.5,1.5,30,,,,,,,,
,,,,,,,,,,,,,,,761,2022-01-21_13h03.43.732,multiplicationStroop,2021.2.3,Win32,59.95563283,,,,,,,,,,,,,,,,,,,,,,,,,,,,,,,,,,,,,,,,,,,,,,,,,,0,4,4,0,1,stimulusFile/mult_blk1.xlsx,,
,,,,,,,,,,,,,,,761,2022-01-21_13h03.43.732,multiplicationStroop,2021.2.3,Win32,59.95563283,,,,,,,,,,,,,,,,,,,,,,,,,,,,,,,space,0.9785,20,1.7787,1,0,0,0,20,1,5,×,4,5 × 4,neutral,largerFirst,1.5,1.5,20,,,,,,,,
,,,,,,,,,,,,,,,761,2022-01-21_13h03.43.732,multiplicationStroop,2021.2.3,Win32,59.95563283,,,,,,,,,,,,,,,,,,,,,,,,,,,,,,,,,35,1.65,1,0,1,1,1,1,5,×,7,5 × 7,neutral,smallerFirst,1.5,1.5,35,,,,,,,,
,,,,,,,,,,,,,,,761,2022-01-21_13h03.43.732,multiplicationStroop,2021.2.3,Win32,59.95563283,,,,,,,,,,,,,,,,,,,,,,,,,,,,,,,,,56,9.2816,1,0,2,2,9,1,7,×,8,7 × 8,neutral,smallerFirst,1.5,1.5,56,,,,,,,,
,,,,,,,,,,,,,,,761,2022-01-21_13h03.43.732,multiplicationStroop,2021.2.3,Win32,59.95563283,,,,,,,,,,,,,,,,,,,,,,,,,,,,,,,,,16,1.8531,1,0,3,3,13,1,2,×,8,2 × 8,neutral,smallerFirst,1.5,1.5,16,,,,,,,,
,,,,,,,,,,,,,,,761,2022-01-21_13h03.43.732,multiplicationStroop,2021.2.3,Win32,59.95563283,,,,,,,,,,,,,,,,,,,,,,,,,,,,,,,,,8,1.9848,1,0,4,4,3,1,2,×,4,2 × 4,neutral,smallerFirst,1.5,1.5,8,,,,,,,,
,,,,,,,,,,,,,,,761,2022-01-21_13h03.43.732,multiplicationStroop,2021.2.3,Win32,59.95563283,,,,,,,,,,,,,,,,,,,,,,,,,,,,,,,,,36,2.0638,1,0,5,5,32,1,6,×,6,6 × 6,neutral,tie,1.5,1.5,36,,,,,,,,
,,,,,,,,,,,,,,,761,2022-01-21_13h03.43.732,multiplicationStroop,2021.2.3,Win32,59.95563283,,,,,,,,,,,,,,,,,,,,,,,,,,,,,,,,,49,10.5654,1,0,6,6,33,1,7,×,7,7 × 7,neutral,tie,1.5,1.5,49,,,,,,,,
,,,,,,,,,,,,,,,761,2022-01-21_13h03.43.732,multiplicationStroop,2021.2.3,Win32,59.95563283,,,,,,,,,,,,,,,,,,,,,,,,,,,,,,,,,42,4.2882,1,0,7,7,6,1,6,×,7,6 × 7,neutral,smallerFirst,1.5,1.5,42,,,,,,,,
,,,,,,,,,,,,,,,761,2022-01-21_13h03.43.732,multiplicationStroop,2021.2.3,Win32,59.95563283,,,,,,,,,,,,,,,,,,,,,,,,,,,,,,,,,6,2.938,1,0,8,8,26,1,3,×,2,3 × 2,neutral,largerFirst,1.5,1.5,6,,,,,,,,
,,,,,,,,,,,,,,,761,2022-01-21_13h03.43.732,multiplicationStroop,2021.2.3,Win32,59.95563283,,,,,,,,,,,,,,,,,,,,,,,,,,,,,,,,,16,2.2829,1,0,9,9,30,1,4,×,4,4 × 4,neutral,tie,1.5,1.5,16,,,,,,,,
,,,,,,,,,,,,,,,761,2022-01-21_13h03.43.732,multiplicationStroop,2021.2.3,Win32,59.95563283,,,,,,,,,,,,,,,,,,,,,,,,,,,,,,,,,63,5.0993,1,0,10,10,12,1,7,×,9,7 × 9,neutral,smallerFirst,1.5,1.5,63,,,,,,,,
,,,,,,,,,,,,,,,761,2022-01-21_13h03.43.732,multiplicationStroop,2021.2.3,Win32,59.95563283,,,,,,,,,,,,,,,,,,,,,,,,,,,,,,,,,4,1.5888,1,0,11,11,28,1,2,×,2,2 × 2,neutral,tie,1.5,1.5,4,,,,,,,,
,,,,,,,,,,,,,,,761,2022-01-21_13h03.43.732,multiplicationStroop,2021.2.3,Win32,59.95563283,,,,,,,,,,,,,,,,,,,,,,,,,,,,,,,,,81,2.3324,1,0,12,12,35,1,9,×,9,9 × 9,neutral,tie,1.5,1.5,81,,,,,,,,
,,,,,,,,,,,,,,,761,2022-01-21_13h03.43.732,multiplicationStroop,2021.2.3,Win32,59.95563283,,,,,,,,,,,,,,,,,,,,,,,,,,,,,,,,,64,13.1653,1,0,13,13,34,1,8,×,8,8 × 8,neutral,tie,1.5,1.5,64,,,,,,,,
,,,,,,,,,,,,,,,761,2022-01-21_13h03.43.732,multiplicationStroop,2021.2.3,Win32,59.95563283,,,,,,,,,,,,,,,,,,,,,,,,,,,,,,,,,32,2.5218,1,0,14,14,23,1,8,×,4,8 × 4,neutral,largerFirst,1.5,1.5,32,,,,,,,,
,,,,,,,,,,,,,,,761,2022-01-21_13h03.43.732,multiplicationStroop,2021.2.3,Win32,59.95563283,,,,,,,,,,,,,,,,,,,,,,,,,,,,,,,,,12,2.6659,1,0,15,15,25,1,6,×,2,6 × 2,neutral,largerFirst,1.5,1.5,12,,,,,,,,
,,,,,,,,,,,,,,,761,2022-01-21_13h03.43.732,multiplicationStroop,2021.2.3,Win32,59.95563283,,,,,,,,,,,,,,,,,,,,,,,,,,,,,,,,,25,2.5495,1,0,16,16,31,1,5,×,5,5 × 5,neutral,tie,1.5,1.5,25,,,,,,,,
,,,,,,,,,,,,,,,761,2022-01-21_13h03.43.732,multiplicationStroop,2021.2.3,Win32,59.95563283,,,,,,,,,,,,,,,,,,,,,,,,,,,,,,,,,24,8.3152,1,0,17,17,22,1,8,×,3,8 × 3,neutral,largerFirst,1.5,1.5,24,,,,,,,,
,,,,,,,,,,,,,,,761,2022-01-21_13h03.43.732,multiplicationStroop,2021.2.3,Win32,59.95563283,,,,,,,,,,,,,,,,,,,,,,,,,,,,,,,,,14,3.0741,1,0,18,18,16,1,7,×,2,7 × 2,neutral,largerFirst,1.5,1.5,14,,,,,,,,
,,,,,,,,,,,,,,,761,2022-01-21_13h03.43.732,multiplicationStroop,2021.2.3,Win32,59.95563283,,,,,,,,,,,,,,,,,,,,,,,,,,,,,,,,,72,5.2339,1,0,19,19,11,1,8,×,9,8 × 9,neutral,smallerFirst,1.5,1.5,72,,,,,,,,
,,,,,,,,,,,,,,,761,2022-01-21_13h03.43.732,multiplicationStroop,2021.2.3,Win32,59.95563283,,,,,,,,,,,,,,,,,,,,,,,,,,,,,,,,,24,3.2847,1,0,20,20,2,1,4,×,6,4 × 6,neutral,smallerFirst,1.5,1.5,24,,,,,,,,
,,,,,,,,,,,,,,,761,2022-01-21_13h03.43.732,multiplicationStroop,2021.2.3,Win32,59.95563283,,,,,,,,,,,,,,,,,,,,,,,,,,,,,,,,,45,3.566,1,0,21,21,10,1,5,×,9,5 × 9,neutral,smallerFirst,1.5,1.5,45,,,,,,,,
,,,,,,,,,,,,,,,761,2022-01-21_13h03.43.732,multiplicationStroop,2021.2.3,Win32,59.95563283,,,,,,,,,,,,,,,,,,,,,,,,,,,,,,,,,36,5.4045,1,0,22,22,27,1,9,×,4,9 × 4,neutral,largerFirst,1.5,1.5,36,,,,,,,,
,,,,,,,,,,,,,,,761,2022-01-21_13h03.43.732,multiplicationStroop,2021.2.3,Win32,59.95563283,,,,,,,,,,,,,,,,,,,,,,,,,,,,,,,,,21,2.0556,1,0,23,23,8,1,3,×,7,3 × 7,neutral,smallerFirst,1.5,1.5,21,,,,,,,,
,,,,,,,,,,,,,,,761,2022-01-21_13h03.43.732,multiplicationStroop,2021.2.3,Win32,59.95563283,,,,,,,,,,,,,,,,,,,,,,,,,,,,,,,,,27,8.4155,1,0,24,24,14,1,9,×,3,9 × 3,neutral,largerFirst,1.5,1.5,27,,,,,,,,
,,,,,,,,,,,,,,,761,2022-01-21_13h03.43.732,multiplicationStroop,2021.2.3,Win32,59.95563283,,,,,,,,,,,,,,,,,,,,,,,,,,,,,,,,,28,2.3882,1,0,25,25,17,1,7,×,4,7 × 4,neutral,largerFirst,1.5,1.5,28,,,,,,,,
,,,,,,,,,,,,,,,761,2022-01-21_13h03.43.732,multiplicationStroop,2021.2.3,Win32,59.95563283,,,,,,,,,,,,,,,,,,,,,,,,,,,,,,,,,48,3.6515,1,0,26,26,15,1,8,×,6,8 × 6,neutral,largerFirst,1.5,1.5,48,,,,,,,,
,,,,,,,,,,,,,,,761,2022-01-21_13h03.43.732,multiplicationStroop,2021.2.3,Win32,59.95563283,,,,,,,,,,,,,,,,,,,,,,,,,,,,,,,,,12,2.0368,1,0,27,27,21,1,4,×,3,4 × 3,neutral,largerFirst,1.5,1.5,12,,,,,,,,
,,,,,,,,,,,,,,,761,2022-01-21_13h03.43.732,multiplicationStroop,2021.2.3,Win32,59.95563283,,,,,,,,,,,,,,,,,,,,,,,,,,,,,,,,,40,2.9492,1,0,28,28,24,1,8,×,5,8 × 5,neutral,largerFirst,1.5,1.5,40,,,,,,,,
,,,,,,,,,,,,,,,761,2022-01-21_13h03.43.732,multiplicationStroop,2021.2.3,Win32,59.95563283,,,,,,,,,,,,,,,,,,,,,,,,,,,,,,,,,54,5.1322,1,0,29,29,7,1,6,×,9,6 × 9,neutral,smallerFirst,1.5,1.5,54,,,,,,,,
,,,,,,,,,,,,,,,761,2022-01-21_13h03.43.732,multiplicationStroop,2021.2.3,Win32,59.95563283,,,,,,,,,,,,,,,,,,,,,,,,,,,,,,,,,18,1.9224,1,0,30,30,18,1,9,×,2,9 × 2,neutral,largerFirst,1.5,1.5,18,,,,,,,,
,,,,,,,,,,,,,,,761,2022-01-21_13h03.43.732,multiplicationStroop,2021.2.3,Win32,59.95563283,,,,,,,,,,,,,,,,,,,,,,,,,,,,,,,,,10,1.8993,1,0,31,31,4,1,2,×,5,2 × 5,neutral,smallerFirst,1.5,1.5,10,,,,,,,,
,,,,,,,,,,,,,,,761,2022-01-21_13h03.43.732,multiplicationStroop,2021.2.3,Win32,59.95563283,,,,,,,,,,,,,,,,,,,,,,,,,,,,,,,,,15,1.6323,1,0,32,32,5,1,3,×,5,3 × 5,neutral,smallerFirst,1.5,1.5,15,,,,,,,,
,,,,,,,,,,,,,,,761,2022-01-21_13h03.43.732,multiplicationStroop,2021.2.3,Win32,59.95563283,,,,,,,,,,,,,,,,,,,,,,,,,,,,,,,,,9,1.5685,1,0,33,33,29,1,3,×,3,3 × 3,neutral,tie,1.5,1.5,9,,,,,,,,
,,,,,,,,,,,,,,,761,2022-01-21_13h03.43.732,multiplicationStroop,2021.2.3,Win32,59.95563283,,,,,,,,,,,,,,,,,,,,,,,,,,,,,,,,,18,3.6827,1,0,34,34,0,1,3,×,6,3 × 6,neutral,smallerFirst,1.5,1.5,18,,,,,,,,
,,,,,,,,,,,,,,,761,2022-01-21_13h03.43.732,multiplicationStroop,2021.2.3,Win32,59.95563283,,,,,,,,,,,,,,,,,,,,,,,,,,,,,,,,,30,1.8662,1,0,35,35,19,1,6,×,5,6 × 5,neutral,largerFirst,1.5,1.5,30,,,,,,,,
,,,,,,,,,,,,,,,761,2022-01-21_13h03.43.732,multiplicationStroop,2021.2.3,Win32,59.95563283,,,,,,,,,,,,,,,,,,,,,,,,,,,,,,,,,,,,,,,,,,,,,,,,,,0,5,5,1,1,stimulusFile/mult_blk2.xlsx,,
,,,,,,,,,,,,,,,761,2022-01-21_13h03.43.732,multiplicationStroop,2021.2.3,Win32,59.95563283,,,,,,,,,,,,,,,,,,,,,,,,,,,,,,,,,,,,,,,,,,,,,,,,,,,,,,,,space,11.676