welcomeKey_resp.keys,welcomeKey_resp.rt,X Scale,Y Scale,rt_resp_4.keys,rt_resp_4.corr,rt_resp_4.rt,speedtest_2.thisRepN,speedtest_2.thisTrialN,speedtest_2.thisN,speedtest_2.thisIndex,speedtest_2.ran,numberSc,posX,positionLayout,participant,date,expName,psychopyVersion,OS,frameRate,ct_instrresp.keys,ct_instrresp.rt,key_resp_2.keys,key_resp_2.rt,ct_keyResp.keys,ct_keyResp.corr,ct_keyResp.rt,trials.thisRepN,trials.thisTrialN,trials.thisN,trials.thisIndex,trials.ran,leftNo,rightNo,displayProblem,numDistance,leftNo_size,rightNo_size,Dims,keyAnswer,TS_Loop.thisRepN,TS_Loop.thisTrialN,TS_Loop.thisN,TS_Loop.thisIndex,TS_Loop.ran,Condition,ActionInst,instrImage,mltptaskInst_resp.keys,mltptaskInst_resp.rt,continue_resp_2.keys,continue_resp_2.rt,multp_Answer,multi_RT,multiplyCorr,LoopingMultiply.thisRepN,LoopingMultiply.thisTrialN,LoopingMultiply.thisN,LoopingMultiply.thisIndex,LoopingMultiply.ran,factor1,multiplySign,factor2,multliplyProblem,physicalSize,orderOperand,sizeF1,sizeF2,mult_answer,trials_stroop.thisRepN,trials_stroop.thisTrialN,trials_stroop.thisN,trials_stroop.thisIndex,trials_stroop.ran,multiplicationFile,esckey_resp_2.keys,esckey_resp_2.rt
y,137.4755,45.2,45,left,1,0.8066,0,0,0,7,1,9,-200,left,762,2022-01-20_23h33.31.878,multiplicationStroop,2021.2.3,Win32,71.59221077,,,,,,,,,,,,,,,,,,,,,,,,,,,,,,,,,,,,,,,,,,,,,,,,,,,,,,,,,
,,,,left,1,0.4656,0,1,1,6,1,8,-200,left,762,2022-01-20_23h33.31.878,multiplicationStroop,2021.2.3,Win32,71.59221077,,,,,,,,,,,,,,,,,,,,,,,,,,,,,,,,,,,,,,,,,,,,,,,,,,,,,,,,,
,,,,left,1,0.2816,0,2,2,1,1,2,-200,left,762,2022-01-20_23h33.31.878,multiplicationStroop,2021.2.3,Win32,71.59221077,,,,,,,,,,,,,,,,,,,,,,,,,,,,,,,,,,,,,,,,,,,,,,,,,,,,,,,,,
,,,,right,1,0.3307,0,3,3,12,1,6,200,right,762,2022-01-20_23h33.31.878,multiplicationStroop,2021.2.3,Win32,71.59221077,,,,,,,,,,,,,,,,,,,,,,,,,,,,,,,,,,,,,,,,,,,,,,,,,,,,,,,,,
,,,,left,1,0.2949,0,4,4,4,1,6,-200,left,762,2022-01-20_23h33.31.878,multiplicationStroop,2021.2.3,Win32,71.59221077,,,,,,,,,,,,,,,,,,,,,,,,,,,,,,,,,,,,,,,,,,,,,,,,,,,,,,,,,
,,,,left,1,0.346,0,5,5,2,1,3,-200,left,762,2022-01-20_23h33.31.878,multiplicationStroop,2021.2.3,Win32,71.59221077,,,,,,,,,,,,,,,,,,,,,,,,,,,,,,,,,,,,,,,,,,,,,,,,,,,,,,,,,
,,,,right,1,0.3349,0,6,6,10,1,3,200,right,762,2022-01-20_23h33.31.878,multiplicationStroop,2021.2.3,Win32,71.59221077,,,,,,,,,,,,,,,,,,,,,,,,,,,,,,,,,,,,,,,,,,,,,,,,,,,,,,,,,
,,,,right,1,0.3194,0,7,7,9,1,2,200,right,762,2022-01-20_23h33.31.878,multiplicationStroop,2021.2.3,Win32,71.59221077,,,,,,,,,,,,,,,,,,,,,,,,,,,,,,,,,,,,,,,,,,,,,,,,,,,,,,,,,
,,,,right,1,0.2914,0,8,8,8,1,1,200,right,762,2022-01-20_23h33.31.878,multiplicationStroop,2021.2.3,Win32,71.59221077,,,,,,,,,,,,,,,,,,,,,,,,,,,,,,,,,,,,,,,,,,,,,,,,,,,,,,,,,
,,,,right,1,0.3069,0,9,9,11,1,4,200,right,762,2022-01-20_23h33.31.878,multiplicationStroop,2021.2.3,Win32,71.59221077,,,,,,,,,,,,,,,,,,,,,,,,,,,,,,,,,,,,,,,,,,,,,,,,,,,,,,,,,
,,,,left,1,0.3357,0,10,10,3,1,4,-200,left,762,2022-01-20_23h33.31.878,multiplicationStroop,2021.2.3,Win32,71.59221077,,,,,,,,,,,,,,,,,,,,,,,,,,,,,,,,,,,,,,,,,,,,,,,,,,,,,,,,,
,,,,left,1,0.3666,0,11,11,5,1,7,-200,left,762,2022-01-20_23h33.31.878,multiplicationStroop,2021.2.3,Win32,71.59221077,,,,,,,,,,,,,,,,,,,,,,,,,,,,,,,,,,,,,,,,,,,,,,,,,,,,,,,,,
,,,,right,1,0.33,0,12,12,13,1,7,200,right,762,2022-01-20_23h33.31.878,multiplicationStroop,2021.2.3,Win32,71.59221077,,,,,,,,,,,,,,,,,,,,,,,,,,,,,,,,,,,,,,,,,,,,,,,,,,,,,,,,,
,,,,right,1,0.3282,0,13,13,15,1,9,200,right,762,2022-01-20_23h33.31.878,multiplicationStroop,2021.2.3,Win32,71.59221077,,,,,,,,,,,,,,,,,,,,,,,,,,,,,,,,,,,,,,,,,,,,,,,,,,,,,,,,,
,,,,right,1,0.2635,0,14,14,14,1,8,200,right,762,2022-01-20_23h33.31.878,multiplicationStroop,2021.2.3,Win32,71.59221077,,,,,,,,,,,,,,,,,,,,,,,,,,,,,,,,,,,,,,,,,,,,,,,,,,,,,,,,,
,,,,left,1,0.3073,0,15,15,0,1,1,-200,left,762,2022-01-20_23h33.31.878,multiplicationStroop,2021.2.3,Win32,71.59221077,,,,,,,,,,,,,,,,,,,,,,,,,,,,,,,,,,,,,,,,,,,,,,,,,,,,,,,,,
,,,,right,1,0.298,1,0,16,15,1,9,200,right,762,2022-01-20_23h33.31.878,multiplicationStroop,2021.2.3,Win32,71.59221077,,,,,,,,,,,,,,,,,,,,,,,,,,,,,,,,,,,,,,,,,,,,,,,,,,,,,,,,,
,,,,left,1,0.2727,1,1,17,6,1,8,-200,left,762,2022-01-20_23h33.31.878,multiplicationStroop,2021.2.3,Win32,71.59221077,,,,,,,,,,,,,,,,,,,,,,,,,,,,,,,,,,,,,,,,,,,,,,,,,,,,,,,,,
,,,,left,1,0.3617,1,2,18,2,1,3,-200,left,762,2022-01-20_23h33.31.878,multiplicationStroop,2021.2.3,Win32,71.59221077,,,,,,,,,,,,,,,,,,,,,,,,,,,,,,,,,,,,,,,,,,,,,,,,,,,,,,,,,
,,,,right,1,0.2948,1,3,19,10,1,3,200,right,762,2022-01-20_23h33.31.878,multiplicationStroop,2021.2.3,Win32,71.59221077,,,,,,,,,,,,,,,,,,,,,,,,,,,,,,,,,,,,,,,,,,,,,,,,,,,,,,,,,
,,,,right,1,0.3328,1,4,20,13,1,7,200,right,762,2022-01-20_23h33.31.878,multiplicationStroop,2021.2.3,Win32,71.59221077,,,,,,,,,,,,,,,,,,,,,,,,,,,,,,,,,,,,,,,,,,,,,,,,,,,,,,,,,
,,,,right,1,0.2932,1,5,21,14,1,8,200,right,762,2022-01-20_23h33.31.878,multiplicationStroop,2021.2.3,Win32,71.59221077,,,,,,,,,,,,,,,,,,,,,,,,,,,,,,,,,,,,,,,,,,,,,,,,,,,,,,,,,
,,,,left,1,0.2955,1,6,22,0,1,1,-200,left,762,2022-01-20_23h33.31.878,multiplicationStroop,2021.2.3,Win32,71.59221077,,,,,,,,,,,,,,,,,,,,,,,,,,,,,,,,,,,,,,,,,,,,,,,,,,,,,,,,,
,,,,right,1,0.3142,1,7,23,12,1,6,200,right,762,2022-01-20_23h33.31.878,multiplicationStroop,2021.2.3,Win32,71.59221077,,,,,,,,,,,,,,,,,,,,,,,,,,,,,,,,,,,,,,,,,,,,,,,,,,,,,,,,,
,,,,left,1,0.2666,1,8,24,3,1,4,-200,left,762,2022-01-20_23h33.31.878,multiplicationStroop,2021.2.3,Win32,71.59221077,,,,,,,,,,,,,,,,,,,,,,,,,,,,,,,,,,,,,,,,,,,,,,,,,,,,,,,,,
,,,,left,1,0.3646,1,9,25,4,1,6,-200,left,762,2022-01-20_23h33.31.878,multiplicationStroop,2021.2.3,Win32,71.59221077,,,,,,,,,,,,,,,,,,,,,,,,,,,,,,,,,,,,,,,,,,,,,,,,,,,,,,,,,
,,,,left,1,0.3021,1,10,26,1,1,2,-200,left,762,2022-01-20_23h33.31.878,multiplicationStroop,2021.2.3,Win32,71.59221077,,,,,,,,,,,,,,,,,,,,,,,,,,,,,,,,,,,,,,,,,,,,,,,,,,,,,,,,,
,,,,right,1,0.3033,1,11,27,11,1,4,200,right,762,2022-01-20_23h33.31.878,multiplicationStroop,2021.2.3,Win32,71.59221077,,,,,,,,,,,,,,,,,,,,,,,,,,,,,,,,,,,,,,,,,,,,,,,,,,,,,,,,,
,,,,left,1,0.2838,1,12,28,7,1,9,-200,left,762,2022-01-20_23h33.31.878,multiplicationStroop,2021.2.3,Win32,71.59221077,,,,,,,,,,,,,,,,,,,,,,,,,,,,,,,,,,,,,,,,,,,,,,,,,,,,,,,,,
,,,,left,1,0.2624,1,13,29,5,1,7,-200,left,762,2022-01-20_23h33.31.878,multiplicationStroop,2021.2.3,Win32,71.59221077,,,,,,,,,,,,,,,,,,,,,,,,,,,,,,,,,,,,,,,,,,,,,,,,,,,,,,,,,
,,,,right,1,0.3518,1,14,30,8,1,1,200,right,762,2022-01-20_23h33.31.878,multiplicationStroop,2021.2.3,Win32,71.59221077,,,,,,,,,,,,,,,,,,,,,,,,,,,,,,,,,,,,,,,,,,,,,,,,,,,,,,,,,
,,,,right,1,0.3868,1,15,31,9,1,2,200,right,762,2022-01-20_23h33.31.878,multiplicationStroop,2021.2.3,Win32,71.59221077,,,,,,,,,,,,,,,,,,,,,,,,,,,,,,,,,,,,,,,,,,,,,,,,,,,,,,,,,
,,,,left,1,0.3092,2,0,32,2,1,3,-200,left,762,2022-01-20_23h33.31.878,multiplicationStroop,2021.2.3,Win32,71.59221077,,,,,,,,,,,,,,,,,,,,,,,,,,,,,,,,,,,,,,,,,,,,,,,,,,,,,,,,,
,,,,right,1,0.3134,2,1,33,11,1,4,200,right,762,2022-01-20_23h33.31.878,multiplicationStroop,2021.2.3,Win32,71.59221077,,,,,,,,,,,,,,,,,,,,,,,,,,,,,,,,,,,,,,,,,,,,,,,,,,,,,,,,,
,,,,left,1,0.2757,2,2,34,5,1,7,-200,left,762,2022-01-20_23h33.31.878,multiplicationStroop,2021.2.3,Win32,71.59221077,,,,,,,,,,,,,,,,,,,,,,,,,,,,,,,,,,,,,,,,,,,,,,,,,,,,,,,,,
,,,,left,1,0.3449,2,3,35,3,1,4,-200,left,762,2022-01-20_23h33.31.878,multiplicationStroop,2021.2.3,Win32,71.59221077,,,,,,,,,,,,,,,,,,,,,,,,,,,,,,,,,,,,,,,,,,,,,,,,,,,,,,,,,
,,,,right,1,0.31,2,4,36,14,1,8,200,right,762,2022-01-20_23h33.31.878,multiplicationStroop,2021.2.3,Win32,71.59221077,,,,,,,,,,,,,,,,,,,,,,,,,,,,,,,,,,,,,,,,,,,,,,,,,,,,,,,,,
,,,,left,1,0.2834,2,5,37,4,1,6,-200,left,762,2022-01-20_23h33.31.878,multiplicationStroop,2021.2.3,Win32,71.59221077,,,,,,,,,,,,,,,,,,,,,,,,,,,,,,,,,,,,,,,,,,,,,,,,,,,,,,,,,
,,,,right,1,0.353,2,6,38,8,1,1,200,right,762,2022-01-20_23h33.31.878,multiplicationStroop,2021.2.3,Win32,71.59221077,,,,,,,,,,,,,,,,,,,,,,,,,,,,,,,,,,,,,,,,,,,,,,,,,,,,,,,,,
,,,,left,1,0.2926,2,7,39,6,1,8,-200,left,762,2022-01-20_23h33.31.878,multiplicationStroop,2021.2.3,Win32,71.59221077,,,,,,,,,,,,,,,,,,,,,,,,,,,,,,,,,,,,,,,,,,,,,,,,,,,,,,,,,
,,,,right,1,0.2843,2,8,40,9,1,2,200,right,762,2022-01-20_23h33.31.878,multiplicationStroop,2021.2.3,Win32,71.59221077,,,,,,,,,,,,,,,,,,,,,,,,,,,,,,,,,,,,,,,,,,,,,,,,,,,,,,,,,
,,,,right,1,0.3924,2,9,41,12,1,6,200,right,762,2022-01-20_23h33.31.878,multiplicationStroop,2021.2.3,Win32,71.59221077,,,,,,,,,,,,,,,,,,,,,,,,,,,,,,,,,,,,,,,,,,,,,,,,,,,,,,,,,
,,,,left,1,0.2936,2,10,42,1,1,2,-200,left,762,2022-01-20_23h33.31.878,multiplicationStroop,2021.2.3,Win32,71.59221077,,,,,,,,,,,,,,,,,,,,,,,,,,,,,,,,,,,,,,,,,,,,,,,,,,,,,,,,,
,,,,left,1,0.3169,2,11,43,0,1,1,-200,left,762,2022-01-20_23h33.31.878,multiplicationStroop,2021.2.3,Win32,71.59221077,,,,,,,,,,,,,,,,,,,,,,,,,,,,,,,,,,,,,,,,,,,,,,,,,,,,,,,,,
,,,,right,1,0.2992,2,12,44,10,1,3,200,right,762,2022-01-20_23h33.31.878,multiplicationStroop,2021.2.3,Win32,71.59221077,,,,,,,,,,,,,,,,,,,,,,,,,,,,,,,,,,,,,,,,,,,,,,,,,,,,,,,,,
,,,,right,1,0.3466,2,13,45,13,1,7,200,right,762,2022-01-20_23h33.31.878,multiplicationStroop,2021.2.3,Win32,71.59221077,,,,,,,,,,,,,,,,,,,,,,,,,,,,,,,,,,,,,,,,,,,,,,,,,,,,,,,,,
,,,,right,1,0.3795,2,14,46,15,1,9,200,right,762,2022-01-20_23h33.31.878,multiplicationStroop,2021.2.3,Win32,71.59221077,,,,,,,,,,,,,,,,,,,,,,,,,,,,,,,,,,,,,,,,,,,,,,,,,,,,,,,,,
,,,,left,1,0.286,2,15,47,7,1,9,-200,left,762,2022-01-20_23h33.31.878,multiplicationStroop,2021.2.3,Win32,71.59221077,,,,,,,,,,,,,,,,,,,,,,,,,,,,,,,,,,,,,,,,,,,,,,,,,,,,,,,,,
,,,,right,1,0.2803,3,0,48,10,1,3,200,right,762,2022-01-20_23h33.31.878,multiplicationStroop,2021.2.3,Win32,71.59221077,,,,,,,,,,,,,,,,,,,,,,,,,,,,,,,,,,,,,,,,,,,,,,,,,,,,,,,,,
,,,,right,1,0.2804,3,1,49,15,1,9,200,right,762,2022-01-20_23h33.31.878,multiplicationStroop,2021.2.3,Win32,71.59221077,,,,,,,,,,,,,,,,,,,,,,,,,,,,,,,,,,,,,,,,,,,,,,,,,,,,,,,,,
,,,,left,1,0.2989,3,2,50,1,1,2,-200,left,762,2022-01-20_23h33.31.878,multiplicationStroop,2021.2.3,Win32,71.59221077,,,,,,,,,,,,,,,,,,,,,,,,,,,,,,,,,,,,,,,,,,,,,,,,,,,,,,,,,
,,,,right,1,0.3009,3,3,51,12,1,6,200,right,762,2022-01-20_23h33.31.878,multiplicationStroop,2021.2.3,Win32,71.59221077,,,,,,,,,,,,,,,,,,,,,,,,,,,,,,,,,,,,,,,,,,,,,,,,,,,,,,,,,
,,,,right,1,0.3304,3,4,52,9,1,2,200,right,762,2022-01-20_23h33.31.878,multiplicationStroop,2021.2.3,Win32,71.59221077,,,,,,,,,,,,,,,,,,,,,,,,,,,,,,,,,,,,,,,,,,,,,,,,,,,,,,,,,
,,,,left,1,0.2974,3,5,53,5,1,7,-200,left,762,2022-01-20_23h33.31.878,multiplicationStroop,2021.2.3,Win32,71.59221077,,,,,,,,,,,,,,,,,,,,,,,,,,,,,,,,,,,,,,,,,,,,,,,,,,,,,,,,,
,,,,left,1,0.3491,3,6,54,7,1,9,-200,left,762,2022-01-20_23h33.31.878,multiplicationStroop,2021.2.3,Win32,71.59221077,,,,,,,,,,,,,,,,,,,,,,,,,,,,,,,,,,,,,,,,,,,,,,,,,,,,,,,,,
,,,,right,1,0.3186,3,7,55,11,1,4,200,right,762,2022-01-20_23h33.31.878,multiplicationStroop,2021.2.3,Win32,71.59221077,,,,,,,,,,,,,,,,,,,,,,,,,,,,,,,,,,,,,,,,,,,,,,,,,,,,,,,,,
,,,,right,1,0.3815,3,8,56,14,1,8,200,right,762,2022-01-20_23h33.31.878,multiplicationStroop,2021.2.3,Win32,71.59221077,,,,,,,,,,,,,,,,,,,,,,,,,,,,,,,,,,,,,,,,,,,,,,,,,,,,,,,,,
,,,,left,1,0.3134,3,9,57,4,1,6,-200,left,762,2022-01-20_23h33.31.878,multiplicationStroop,2021.2.3,Win32,71.59221077,,,,,,,,,,,,,,,,,,,,,,,,,,,,,,,,,,,,,,,,,,,,,,,,,,,,,,,,,
,,,,right,1,0.2679,3,10,58,8,1,1,200,right,762,2022-01-20_23h33.31.878,multiplicationStroop,2021.2.3,Win32,71.59221077,,,,,,,,,,,,,,,,,,,,,,,,,,,,,,,,,,,,,,,,,,,,,,,,,,,,,,,,,
,,,,left,1,0.3183,3,11,59,2,1,3,-200,left,762,2022-01-20_23h33.31.878,multiplicationStroop,2021.2.3,Win32,71.59221077,,,,,,,,,,,,,,,,,,,,,,,,,,,,,,,,,,,,,,,,,,,,,,,,,,,,,,,,,
,,,,left,1,0.3448,3,12,60,6,1,8,-200,left,762,2022-01-20_23h33.31.878,multiplicationStroop,2021.2.3,Win32,71.59221077,,,,,,,,,,,,,,,,,,,,,,,,,,,,,,,,,,,,,,,,,,,,,,,,,,,,,,,,,
,,,,left,1,0.3245,3,13,61,0,1,1,-200,left,762,2022-01-20_23h33.31.878,multiplicationStroop,2021.2.3,Win32,71.59221077,,,,,,,,,,,,,,,,,,,,,,,,,,,,,,,,,,,,,,,,,,,,,,,,,,,,,,,,,
,,,,left,1,0.3115,3,14,62,3,1,4,-200,left,762,2022-01-20_23h33.31.878,multiplicationStroop,2021.2.3,Win32,71.59221077,,,,,,,,,,,,,,,,,,,,,,,,,,,,,,,,,,,,,,,,,,,,,,,,,,,,,,,,,
,,,,right,1,0.337,3,15,63,13,1,7,200,right,762,2022-01-20_23h33.31.878,multiplicationStroop,2021.2.3,Win32,71.59221077,,,,,,,,,,,,,,,,,,,,,,,,,,,,,,,,,,,,,,,,,,,,,,,,,,,,,,,,,
,,,,,,,,,,,,,,,762,2022-01-20_23h33.31.878,multiplicationStroop,2021.2.3,Win32,71.59221077,space,31.267,space,4.7943,left,1,0.612,0,0,0,21,1,7,2,7 | 2,5,1.9756,1.4111,congruent,left,,,,,,stimulusFile/magnitude.xlsx,,,,,,,,,,,,,,,,,,,,,,,,,,,,,,,
,,,,,,,,,,,,,,,762,2022-01-20_23h33.31.878,multiplicationStroop,2021.2.3,Win32,71.59221077,,,,,right,1,0.5666,0,1,1,58,1,6,8,6 | 8,2,1.6933,1.6933,neutral,right,,,,,,stimulusFile/magnitude.xlsx,,,,,,,,,,,,,,,,,,,,,,,,,,,,,,,
,,,,,,,,,,,,,,,762,2022-01-20_23h33.31.878,multiplicationStroop,2021.2.3,Win32,71.59221077,,,,,right,1,0.5488,0,2,2,2,1,6,7,6 | 7,1,1.4111,1.9756,congruent,right,,,,,,stimulusFile/magnitude.xlsx,,,,,,,,,,,,,,,,,,,,,,,,,,,,,,,
,,,,,,,,,,,,,,,762,2022-01-20_23h33.31.878,multiplicationStroop,2021.2.3,Win32,71.59221077,,,,,right,1,0.9725,0,3,3,34,1,6,8,6 | 8,2,1.9756,1.4111,incongruent,right,,,,,,stimulusFile/magnitude.xlsx,,,,,,,,,,,,,,,,,,,,,,,,,,,,,,,
,,,,,,,,,,,,,,,762,2022-01-20_23h33.31.878,multiplicationStroop,2021.2.3,Win32,71.59221077,,,,,left,1,0.691,0,4,4,31,1,9,8,9 | 8,1,1.4111,1.9756,incongruent,left,,,,,,stimulusFile/magnitude.xlsx,,,,,,,,,,,,,,,,,,,,,,,,,,,,,,,
,,,,,,,,,,,,,,,762,2022-01-20_23h33.31.878,multiplicationStroop,2021.2.3,Win32,71.59221077,,,,,right,1,0.5288,0,5,5,26,1,6,7,6 | 7,1,1.9756,1.4111,incongruent,right,,,,,,stimulusFile/magnitude.xlsx,,,,,,,,,,,,,,,,,,,,,,,,,,,,,,,
,,,,,,,,,,,,,,,762,2022-01-20_23h33.31.878,multiplicationStroop,2021.2.3,Win32,71.59221077,,,,,left,1,0.5747,0,6,6,4,1,2,1,2 | 1,1,1.9756,1.4111,congruent,left,,,,,,stimulusFile/magnitude.xlsx,,,,,,,,,,,,,,,,,,,,,,,,,,,,,,,
,,,,,,,,,,,,,,,762,2022-01-20_23h33.31.878,multiplicationStroop,2021.2.3,Win32,71.59221077,,,,,left,1,0.6829,0,7,7,28,1,2,1,2 | 1,1,1.4111,1.9756,incongruent,left,,,,,,stimulusFile/magnitude.xlsx,,,,,,,,,,,,,,,,,,,,,,,,,,,,,,,
,,,,,,,,,,,,,,,762,2022-01-20_23h33.31.878,multiplicationStroop,2021.2.3,Win32,71.59221077,,,,,left,1,0.4632,0,8,8,12,1,3,1,3 | 1,2,1.9756,1.4111,congruent,left,,,,,,stimulusFile/magnitude.xlsx,,,,,,,,,,,,,,,,,,,,,,,,,,,,,,,
,,,,,,,,,,,,,,,762,2022-01-20_23h33.31.878,multiplicationStroop,2021.2.3,Win32,71.59221077,,,,,right,1,0.6054,0,9,9,24,1,1,2,1 | 2,1,1.9756,1.4111,incongruent,right,,,,,,stimulusFile/magnitude.xlsx,,,,,,,,,,,,,,,,,,,,,,,,,,,,,,,
,,,,,,,,,,,,,,,762,2022-01-20_23h33.31.878,multiplicationStroop,2021.2.3,Win32,71.59221077,,,,,right,1,0.6554,0,10,10,65,1,2,7,2 | 7,5,1.6933,1.6933,neutral,right,,,,,,stimulusFile/magnitude.xlsx,,,,,,,,,,,,,,,,,,,,,,,,,,,,,,,
,,,,,,,,,,,,,,,762,2022-01-20_23h33.31.878,multiplicationStroop,2021.2.3,Win32,71.59221077,,,,,left,1,0.5068,0,11,11,5,1,4,3,4 | 3,1,1.9756,1.4111,congruent,left,,,,,,stimulusFile/magnitude.xlsx,,,,,,,,,,,,,,,,,,,,,,,,,,,,,,,
,,,,,,,,,,,,,,,762,2022-01-20_23h33.31.878,multiplicationStroop,2021.2.3,Win32,71.59221077,,,,,right,1,0.5222,0,12,12,41,1,2,7,2 | 7,5,1.9756,1.4111,incongruent,right,,,,,,stimulusFile/magnitude.xlsx,,,,,,,,,,,,,,,,,,,,,,,,,,,,,,,
,,,,,,,,,,,,,,,762,2022-01-20_23h33.31.878,multiplicationStroop,2021.2.3,Win32,71.59221077,,,,,right,1,0.5187,0,13,13,57,1,2,4,2 | 4,2,1.6933,1.6933,neutral,right,,,,,,stimulusFile/magnitude.xlsx,,,,,,,,,,,,,,,,,,,,,,,,,,,,,,,
,,,,,,,,,,,,,,,762,2022-01-20_23h33.31.878,multiplicationStroop,2021.2.3,Win32,71.59221077,,,,,left,1,0.6721,0,14,14,39,1,9,7,9 | 7,2,1.4111,1.9756,incongruent,left,,,,,,stimulusFile/magnitude.xlsx,,,,,,,,,,,,,,,,,,,,,,,,,,,,,,,
,,,,,,,,,,,,,,,762,2022-01-20_23h33.31.878,multiplicationStroop,2021.2.3,Win32,71.59221077,,,,,left,1,0.5257,0,15,15,61,1,4,2,4 | 2,2,1.6933,1.6933,neutral,left,,,,,,stimulusFile/magnitude.xlsx,,,,,,,,,,,,,,,,,,,,,,,,,,,,,,,
,,,,,,,,,,,,,,,762,2022-01-20_23h33.31.878,multiplicationStroop,2021.2.3,Win32,71.59221077,,,,,right,1,0.5944,0,16,16,0,1,1,2,1 | 2,1,1.4111,1.9756,congruent,right,,,,,,stimulusFile/magnitude.xlsx,,,,,,,,,,,,,,,,,,,,,,,,,,,,,,,
,,,,,,,,,,,,,,,762,2022-01-20_23h33.31.878,multiplicationStroop,2021.2.3,Win32,71.59221077,,,,,right,1,0.475,0,17,17,17,1,2,7,2 | 7,5,1.4111,1.9756,congruent,right,,,,,,stimulusFile/magnitude.xlsx,,,,,,,,,,,,,,,,,,,,,,,,,,,,,,,
,,,,,,,,,,,,,,,762,2022-01-20_23h33.31.878,multiplicationStroop,2021.2.3,Win32,71.59221077,,,,,right,1,0.5547,0,18,18,49,1,3,4,3 | 4,1,1.6933,1.6933,neutral,right,,,,,,stimulusFile/magnitude.xlsx,,,,,,,,,,,,,,,,,,,,,,,,,,,,,,,
,,,,,,,,,,,,,,,762,2022-01-20_23h33.31.878,multiplicationStroop,2021.2.3,Win32,71.59221077,,,,,left,1,0.4964,0,19,19,62,1,8,6,8 | 6,2,1.6933,1.6933,neutral,left,,,,,,stimulusFile/magnitude.xlsx,,,,,,,,,,,,,,,,,,,,,,,,,,,,,,,
,,,,,,,,,,,,,,,762,2022-01-20_23h33.31.878,multiplicationStroop,2021.2.3,Win32,71.59221077,,,,,left,1,0.5565,0,20,20,29,1,4,3,4 | 3,1,1.4111,1.9756,incongruent,left,,,,,,stimulusFile/magnitude.xlsx,,,,,,,,,,,,,,,,,,,,,,,,,,,,,,,
,,,,,,,,,,,,,,,762,2022-01-20_23h33.31.878,multiplicationStroop,2021.2.3,Win32,71.59221077,,,,,right,1,0.4957,0,21,21,9,1,2,4,2 | 4,2,1.4111,1.9756,congruent,right,,,,,,stimulusFile/magnitude.xlsx,,,,,,,,,,,,,,,,,,,,,,,,,,,,,,,
,,,,,,,,,,,,,,,762,2022-01-20_23h33.31.878,multiplicationStroop,2021.2.3,Win32,71.59221077,,,,,right,1,0.4977,0,22,22,11,1,7,9,7 | 9,2,1.4111,1.9756,congruent,right,,,,,,stimulusFile/magnitude.xlsx,,,,,,,,,,,,,,,,,,,,,,,,,,,,,,,
,,,,,,,,,,,,,,,762,2022-01-20_23h33.31.878,multiplicationStroop,2021.2.3,Win32,71.59221077,,,,,right,1,0.5132,0,23,23,67,1,4,9,4 | 9,5,1.6933,1.6933,neutral,right,,,,,,stimulusFile/magnitude.xlsx,,,,,,,,,,,,,,,,,,,,,,,,,,,,,,,
,,,,,,,,,,,,,,,762,2022-01-20_23h33.31.878,multiplicationStroop,2021.2.3,Win32,71.59221077,,,,,left,1,0.4928,0,24,24,14,1,8,6,8 | 6,2,1.9756,1.4111,congruent,left,,,,,,stimulusFile/magnitude.xlsx,,,,,,,,,,,,,,,,,,,,,,,,,,,,,,,
,,,,,,,,,,,,,,,762,2022-01-20_23h33.31.878,multiplicationStroop,2021.2.3,Win32,71.59221077,,,,,right,1,0.4516,0,25,25,18,1,3,8,3 | 8,5,1.4111,1.9756,congruent,right,,,,,,stimulusFile/magnitude.xlsx,,,,,,,,,,,,,,,,,,,,,,,,,,,,,,,
,,,,,,,,,,,,,,,762,2022-01-20_23h33.31.878,multiplicationStroop,2021.2.3,Win32,71.59221077,,,,,left,1,0.5219,0,26,26,52,1,2,1,2 | 1,1,1.6933,1.6933,neutral,left,,,,,,stimulusFile/magnitude.xlsx,,,,,,,,,,,,,,,,,,,,,,,,,,,,,,,
,,,,,,,,,,,,,,,762,2022-01-20_23h33.31.878,multiplicationStroop,2021.2.3,Win32,71.59221077,,,,,right,1,0.4901,0,27,27,1,1,3,4,3 | 4,1,1.4111,1.9756,congruent,right,,,,,,stimulusFile/magnitude.xlsx,,,,,,,,,,,,,,,,,,,,,,,,,,,,,,,
,,,,,,,,,,,,,,,762,2022-01-20_23h33.31.878,multiplicationStroop,2021.2.3,Win32,71.59221077,,,,,left,0,0.4055,0,28,28,27,1,8,9,8 | 9,1,1.9756,1.4111,incongruent,right,,,,,,stimulusFile/magnitude.xlsx,,,,,,,,,,,,,,,,,,,,,,,,,,,,,,,
,,,,,,,,,,,,,,,762,2022-01-20_23h33.31.878,multiplicationStroop,2021.2.3,Win32,71.59221077,,,,,left,1,0.6036,0,29,29,23,1,9,4,9 | 4,5,1.9756,1.4111,congruent,left,,,,,,stimulusFile/magnitude.xlsx,,,,,,,,,,,,,,,,,,,,,,,,,,,,,,,
,,,,,,,,,,,,,,,762,2022-01-20_23h33.31.878,multiplicationStroop,2021.2.3,Win32,71.59221077,,,,,left,1,0.4853,0,30,30,22,1,8,3,8 | 3,5,1.9756,1.4111,congruent,left,,,,,,stimulusFile/magnitude.xlsx,,,,,,,,,,,,,,,,,,,,,,,,,,,,,,,
,,,,,,,,,,,,,,,762,2022-01-20_23h33.31.878,multiplicationStroop,2021.2.3,Win32,71.59221077,,,,,right,1,0.5137,0,31,31,64,1,1,6,1 | 6,5,1.6933,1.6933,neutral,right,,,,,,stimulusFile/magnitude.xlsx,,,,,,,,,,,,,,,,,,,,,,,,,,,,,,,
,,,,,,,,,,,,,,,762,2022-01-20_23h33.31.878,multiplicationStroop,2021.2.3,Win32,71.59221077,,,,,right,1,0.5481,0,32,32,50,1,6,7,6 | 7,1,1.6933,1.6933,neutral,right,,,,,,stimulusFile/magnitude.xlsx,,,,,,,,,,,,,,,,,,,,,,,,,,,,,,,
,,,,,,,,,,,,,,,762,2022-01-20_23h33.31.878,multiplicationStroop,2021.2.3,Win32,71.59221077,,,,,right,1,0.5059,0,33,33,43,1,4,9,4 | 9,5,1.9756,1.4111,incongruent,right,,,,,,stimulusFile/magnitude.xlsx,,,,,,,,,,,,,,,,,,,,,,,,,,,,,,,
,,,,,,,,,,,,,,,762,2022-01-20_23h33.31.878,multiplicationStroop,2021.2.3,Win32,71.59221077,,,,,right,1,0.6714,0,34,34,8,1,1,3,1 | 3,2,1.4111,1.9756,congruent,right,,,,,,stimulusFile/magnitude.xlsx,,,,,,,,,,,,,,,,,,,,,,,,,,,,,,,
,,,,,,,,,,,,,,,762,2022-01-20_23h33.31.878,multiplicationStroop,2021.2.3,Win32,71.59221077,,,,,right,1,0.572,0,35,35,35,1,7,9,7 | 9,2,1.9756,1.4111,incongruent,right,,,,,,stimulusFile/magnitude.xlsx,,,,,,,,,,,,,,,,,,,,,,,,,,,,,,,
,,,,,,,,,,,,,,,762,2022-01-20_23h33.31.878,multiplicationStroop,2021.2.3,Win32,71.59221077,,,,,right,1,0.4713,0,36,36,56,1,1,3,1 | 3,2,1.6933,1.6933,neutral,right,,,,,,stimulusFile/magnitude.xlsx,,,,,,,,,,,,,,,,,,,,,,,,,,,,,,,
,,,,,,,,,,,,,,,762,2022-01-20_23h33.31.878,multiplicationStroop,2021.2.3,Win32,71.59221077,,,,,left,1,0.6033,0,37,37,36,1,3,1,3 | 1,2,1.4111,1.9756,incongruent,left,,,,,,stimulusFile/magnitude.xlsx,,,,,,,,,,,,,,,,,,,,,,,,,,,,,,,
,,,,,,,,,,,,,,,762,2022-01-20_23h33.31.878,multiplicationStroop,2021.2.3,Win32,71.59221077,,,,,right,1,0.6194,0,38,38,25,1,3,4,3 | 4,1,1.9756,1.4111,incongruent,right,,,,,,stimulusFile/magnitude.xlsx,,,,,,,,,,,,,,,,,,,,,,,,,,,,,,,
,,,,,,,,,,,,,,,762,2022-01-20_23h33.31.878,multiplicationStroop,2021.2.3,Win32,71.59221077,,,,,left,1,0.4543,0,39,39,70,1,8,3,8 | 3,5,1.6933,1.6933,neutral,left,,,,,,stimulusFile/magnitude.xlsx,,,,,,,,,,,,,,,,,,,,,,,,,,,,,,,
,,,,,,,,,,,,,,,762,2022-01-20_23h33.31.878,multiplicationStroop,2021.2.3,Win32,71.59221077,,,,,left,1,0.4911,0,40,40,68,1,6,1,6 | 1,5,1.6933,1.6933,neutral,left,,,,,,stimulusFile/magnitude.xlsx,,,,,,,,,,,,,,,,,,,,,,,,,,,,,,,
,,,,,,,,,,,,,,,762,2022-01-20_23h33.31.878,multiplicationStroop,2021.2.3,Win32,71.59221077,,,,,right,1,0.5077,0,41,41,40,1,1,6,1 | 6,5,1.9756,1.4111,incongruent,right,,,,,,stimulusFile/magnitude.xlsx,,,,,,,,,,,,,,,,,,,,,,,,,,,,,,,
,,,,,,,,,,,,,,,762,2022-01-20_23h33.31.878,multiplicationStroop,2021.2.3,Win32,71.59221077,,,,,left,1,0.7066,0,42,42,15,1,9,7,9 | 7,2,1.9756,1.4111,congruent,left,,,,,,stimulusFile/magnitude.xlsx,,,,,,,,,,,,,,,,,,,,,,,,,,,,,,,
,,,,,,,,,,,,,,,762,2022-01-20_23h33.31.878,multiplicationStroop,2021.2.3,Win32,71.59221077,,,,,left,1,0.4328,0,43,43,63,1,9,7,9 | 7,2,1.6933,1.6933,neutral,left,,,,,,stimulusFile/magnitude.xlsx,,,,,,,,,,,,,,,,,,,,,,,,,,,,,,,
,,,,,,,,,,,,,,,762,2022-01-20_23h33.31.878,multiplicationStroop,2021.2.3,Win32,71.59221077,,,,,right,1,0.5836,0,44,44,32,1,1,3,1 | 3,2,1.9756,1.4111,incongruent,right,,,,,,stimulusFile/magnitude.xlsx,,,,,,,,,,,,,,,,,,,,,,,,,,,,,,,
,,,,,,,,,,,,,,,762,2022-01-20_23h33.31.878,multiplicationStroop,2021.2.3,Win32,71.59221077,,,,,left,1,0.4426,0,45,45,20,1,6,1,6 | 1,5,1.9756,1.4111,congruent,left,,,,,,stimulusFile/magnitude.xlsx,,,,,,,,,,,,,,,,,,,,,,,,,,,,,,,
,,,,,,,,,,,,,,,762,2022-01-20_23h33.31.878,multiplicationStroop,2021.2.3,Win32,71.59221077,,,,,right,1,0.4784,0,46,46,16,1,1,6,1 | 6,5,1.4111,1.9756,congruent,right,,,,,,stimulusFile/magnitude.xlsx,,,,,,,,,,,,,,,,,,,,,,,,,,,,,,,
,,,,,,,,,,,,,,,762,2022-01-20_23h33.31.878,multiplicationStroop,2021.2.3,Win32,71.59221077,,,,,left,1,0.7677,0,47,47,30,1,7,6,7 | 6,1,1.4111,1.9756,incongruent,left,,,,,,stimulusFile/magnitude.xlsx,,,,,,,,,,,,,,,,,,,,,,,,,,,,,,,
,,,,,,,,,,,,,,,762,2022-01-20_23h33.31.878,multiplicationStroop,2021.2.3,Win32,71.59221077,,,,,left,1,0.4667,0,48,48,44,1,6,1,6 | 1,5,1.4111,1.9756,incongruent,left,,,,,,stimulusFile/magnitude.xlsx,,,,,,,,,,,,,,,,,,,,,,,,,,,,,,,
,,,,,,,,,,,,,,,762,2022-01-20_23h33.31.878,multiplicationStroop,2021.2.3,Win32,71.59221077,,,,,right,1,0.6474,0,49,49,3,1,8,9,8 | 9,1,1.4111,1.9756,congruent,right,,,,,,stimulusFile/magnitude.xlsx,,,,,,,,,,,,,,,,,,,,,,,,,,,,,,,
,,,,,,,,,,,,,,,762,2022-01-20_23h33.31.878,multiplicationStroop,2021.2.3,Win32,71.59221077,,,,,left,1,0.57,0,50,50,69,1,7,2,7 | 2,5,1.6933,1.6933,neutral,left,,,,,,stimulusFile/magnitude.xlsx,,,,,,,,,,,,,,,,,,,,,,,,,,,,,,,
,,,,,,,,,,,,,,,762,2022-01-20_23h33.31.878,multiplicationStroop,2021.2.3,Win32,71.59221077,,,,,right,1,0.718,0,51,51,10,1,6,8,6 | 8,2,1.4111,1.9756,congruent,right,,,,,,stimulusFile/magnitude.xlsx,,,,,,,,,,,,,,,,,,,,,,,,,,,,,,,
,,,,,,,,,,,,,,,762,2022-01-20_23h33.31.878,multiplicationStroop,2021.2.3,Win32,71.59221077,,,,,left,1,0.4765,0,52,52,47,1,9,4,9 | 4,5,1.4111,1.9756,incongruent,left,,,,,,stimulusFile/magnitude.xlsx,,,,,,,,,,,,,,,,,,,,,,,,,,,,,,,
,,,,,,,,,,,,,,,762,2022-01-20_23h33.31.878,multiplicationStroop,2021.2.3,Win32,71.59221077,,,,,left,1,0.4165,0,53,53,60,1,3,1,3 | 1,2,1.6933,1.6933,neutral,left,,,,,,stimulusFile/magnitude.xlsx,,,,,,,,,,,,,,,,,,,,,,,,,,,,,,,
,,,,,,,,,,,,,,,762,2022-01-20_23h33.31.878,multiplicationStroop,2021.2.3,Win32,71.59221077,,,,,left,1,0.7397,0,54,54,7,1,9,8,9 | 8,1,1.9756,1.4111,congruent,left,,,,,,stimulusFile/magnitude.xlsx,,,,,,,,,,,,,,,,,,,,,,,,,,,,,,,
,,,,,,,,,,,,,,,762,2022-01-20_23h33.31.878,multiplicationStroop,2021.2.3,Win32,71.59221077,,,,,left,1,0.5336,0,55,55,71,1,9,4,9 | 4,5,1.6933,1.6933,neutral,left,,,,,,stimulusFile/magnitude.xlsx,,,,,,,,,,,,,,,,,,,,,,,,,,,,,,,
,,,,,,,,,,,,,,,762,2022-01-20_23h33.31.878,multiplicationStroop,2021.2.3,Win32,71.59221077,,,,,left,1,0.5007,0,56,56,46,1,8,3,8 | 3,5,1.4111,1.9756,incongruent,left,,,,,,stimulusFile/magnitude.xlsx,,,,,,,,,,,,,,,,,,,,,,,,,,,,,,,
,,,,,,,,,,,,,,,762,2022-01-20_23h33.31.878,multiplicationStroop,2021.2.3,Win32,71.59221077,,,,,right,1,0.518,0,57,57,66,1,3,8,3 | 8,5,1.6933,1.6933,neutral,right,,,,,,stimulusFile/magnitude.xlsx,,,,,,,,,,,,,,,,,,,,,,,,,,,,,,,
,,,,,,,,,,,,,,,762,2022-01-20_23h33.31.878,multiplicationStroop,2021.2.3,Win32,71.59221077,,,,,right,1,0.6429,0,58,58,51,1,8,9,8 | 9,1,1.6933,1.6933,neutral,right,,,,,,stimulusFile/magnitude.xlsx,,,,,,,,,,,,,,,,,,,,,,,,,,,,,,,
,,,,,,,,,,,,,,,762,2022-01-20_23h33.31.878,multiplicationStroop,2021.2.3,Win32,71.59221077,,,,,right,1,0.7661,0,59,59,48,1,1,2,1 | 2,1,1.6933,1.6933,neutral,right,,,,,,stimulusFile/magnitude.xlsx,,,,,,,,,,,,,,,,,,,,,,,,,,,,,,,
,,,,,,,,,,,,,,,762,2022-01-20_23h33.31.878,multiplicationStroop,2021.2.3,Win32,71.59221077,,,,,right,1,0.5159,0,60,60,19,1,4,9,4 | 9,5,1.4111,1.9756,congruent,right,,,,,,stimulusFile/magnitude.xlsx,,,,,,,,,,,,,,,,,,,,,,,,,,,,,,,
,,,,,,,,,,,,,,,762,2022-01-20_23h33.31.878,multiplicationStroop,2021.2.3,Win32,71.59221077,,,,,left,1,0.6695,0,61,61,38,1,8,6,8 | 6,2,1.4111,1.9756,incongruent,left,,,,,,stimulusFile/magnitude.xlsx,,,,,,,,,,,,,,,,,,,,,,,,,,,,,,,
,,,,,,,,,,,,,,,762,2022-01-20_23h33.31.878,multiplicationStroop,2021.2.3,Win32,71.59221077,,,,,left,1,0.5347,0,62,62,54,1,7,6,7 | 6,1,1.6933,1.6933,neutral,left,,,,,,stimulusFile/magnitude.xlsx,,,,,,,,,,,,,,,,,,,,,,,,,,,,,,,
,,,,,,,,,,,,,,,762,2022-01-20_23h33.31.878,multiplicationStroop,2021.2.3,Win32,71.59221077,,,,,left,1,0.523,0,63,63,53,1,4,3,4 | 3,1,1.6933,1.6933,neutral,left,,,,,,stimulusFile/magnitude.xlsx,,,,,,,,,,,,,,,,,,,,,,,,,,,,,,,
,,,,,,,,,,,,,,,762,2022-01-20_23h33.31.878,multiplicationStroop,2021.2.3,Win32,71.59221077,,,,,left,1,0.482,0,64,64,45,1,7,2,7 | 2,5,1.4111,1.9756,incongruent,left,,,,,,stimulusFile/magnitude.xlsx,,,,,,,,,,,,,,,,,,,,,,,,,,,,,,,
,,,,,,,,,,,,,,,762,2022-01-20_23h33.31.878,multiplicationStroop,2021.2.3,Win32,71.59221077,,,,,left,1,0.5012,0,65,65,13,1,4,2,4 | 2,2,1.9756,1.4111,congruent,left,,,,,,stimulusFile/magnitude.xlsx,,,,,,,,,,,,,,,,,,,,,,,,,,,,,,,
,,,,,,,,,,,,,,,762,2022-01-20_23h33.31.878,multiplicationStroop,2021.2.3,Win32,71.59221077,,,,,left,1,0.5127,0,66,66,55,1,9,8,9 | 8,1,1.6933,1.6933,neutral,left,,,,,,stimulusFile/magnitude.xlsx,,,,,,,,,,,,,,,,,,,,,,,,,,,,,,,
,,,,,,,,,,,,,,,762,2022-01-20_23h33.31.878,multiplicationStroop,2021.2.3,Win32,71.59221077,,,,,left,1,0.5101,0,67,67,6,1,7,6,7 | 6,1,1.9756,1.4111,congruent,left,,,,,,stimulusFile/magnitude.xlsx,,,,,,,,,,,,,,,,,,,,,,,,,,,,,,,
,,,,,,,,,,,,,,,762,2022-01-20_23h33.31.878,multiplicationStroop,2021.2.3,Win32,71.59221077,,,,,left,1,0.522,0,68,68,37,1,4,2,4 | 2,2,1.4111,1.9756,incongruent,left,,,,,,stimulusFile/magnitude.xlsx,,,,,,,,,,,,,,,,,,,,,,,,,,,,,,,
,,,,,,,,,,,,,,,762,2022-01-20_23h33.31.878,multiplicationStroop,2021.2.3,Win32,71.59221077,,,,,right,1,0.7065,0,69,69,59,1,7,9,7 | 9,2,1.6933,1.6933,neutral,right,,,,,,stimulusFile/magnitude.xlsx,,,,,,,,,,,,,,,,,,,,,,,,,,,,,,,
,,,,,,,,,,,,,,,762,2022-01-20_23h33.31.878,multiplicationStroop,2021.2.3,Win32,71.59221077,,,,,right,1,0.4863,0,70,70,42,1,3,8,3 | 8,5,1.9756,1.4111,incongruent,right,,,,,,stimulusFile/magnitude.xlsx,,,,,,,,,,,,,,,,,,,,,,,,,,,,,,,
,,,,,,,,,,,,,,,762,2022-01-20_23h33.31.878,multiplicationStroop,2021.2.3,Win32,71.59221077,,,,,right,1,0.6985,0,71,71,33,1,2,4,2 | 4,2,1.9756,1.4111,incongruent,right,,,,,,stimulusFile/magnitude.xlsx,,,,,,,,,,,,,,,,,,,,,,,,,,,,,,,
,,,,,,,,,,,,,,,762,2022-01-20_23h33.31.878,multiplicationStroop,2021.2.3,Win32,71.59221077,,,,,,,,,,,,,,,,,,,,,0,0,0,0,1,stimulusFile/magnitude.xlsx,NUMERICALLY larger (larger coefficient).,images/numericallyLarger.png,,,,,,,,,,,,,,,,,,,,,,,,,,,,,
,,,,,,,,,,,,,,,762,2022-01-20_23h33.31.878,multiplicationStroop,2021.2.3,Win32,71.59221077,space,6.1573,space,3.9016,left,1,0.9651,0,0,0,25,1,3,4,3 | 4,1,1.9756,1.4111,incongruent,left,,,,,,stimulusFile/physical.xlsx,,,,,,,,,,,,,,,,,,,,,,,,,,,,,,,
,,,,,,,,,,,,,,,762,2022-01-20_23h33.31.878,multiplicationStroop,2021.2.3,Win32,71.59221077,,,,,left,1,0.4535,0,1,1,13,1,4,2,4 | 2,2,1.9756,1.4111,congruent,left,,,,,,stimulusFile/physical.xlsx,,,,,,,,,,,,,,,,,,,,,,,,,,,,,,,
,,,,,,,,,,,,,,,762,2022-01-20_23h33.31.878,multiplicationStroop,2021.2.3,Win32,71.59221077,,,,,left,1,0.4583,0,2,2,22,1,8,3,8 | 3,5,1.9756,1.4111,congruent,left,,,,,,stimulusFile/physical.xlsx,,,,,,,,,,,,,,,,,,,,,,,,,,,,,,,
,,,,,,,,,,,,,,,762,2022-01-20_23h33.31.878,multiplicationStroop,2021.2.3,Win32,71.59221077,,,,,left,1,0.718,0,3,3,51,1,8,8,8 | 8,0,1.9756,1.4111,neutral,left,,,,,,stimulusFile/physical.xlsx,,,,,,,,,,,,,,,,,,,,,,,,,,,,,,,
,,,,,,,,,,,,,,,762,2022-01-20_23h33.31.878,multiplicationStroop,2021.2.3,Win32,71.59221077,,,,,left,1,0.9012,0,4,4,15,1,9,7,9 | 7,2,1.9756,1.4111,congruent,left,,,,,,stimulusFile/physical.xlsx,,,,,,,,,,,,,,,,,,,,,,,,,,,,,,,
,,,,,,,,,,,,,,,762,2022-01-20_23h33.31.878,multiplicationStroop,2021.2.3,Win32,71.59221077,,,,,left,1,0.5127,0,5,5,55,1,9,9,9 | 9,0,1.9756,1.4111,neutral,left,,,,,,stimulusFile/physical.xlsx,,,,,,,,,,,,,,,,,,,,,,,,,,,,,,,
,,,,,,,,,,,,,,,762,2022-01-20_23h33.31.878,multiplicationStroop,2021.2.3,Win32,71.59221077,,,,,left,1,0.4794,0,6,6,54,1,7,7,7 | 7,0,1.9756,1.4111,neutral,left,,,,,,stimulusFile/physical.xlsx,,,,,,,,,,,,,,,,,,,,,,,,,,,,,,,
,,,,,,,,,,,,,,,762,2022-01-20_23h33.31.878,multiplicationStroop,2021.2.3,Win32,71.59221077,,,,,left,1,0.466,0,7,7,33,1,2,4,2 | 4,2,1.9756,1.4111,incongruent,left,,,,,,stimulusFile/physical.xlsx,,,,,,,,,,,,,,,,,,,,,,,,,,,,,,,
,,,,,,,,,,,,,,,762,2022-01-20_23h33.31.878,multiplicationStroop,2021.2.3,Win32,71.59221077,,,,,right,1,0.5037,0,8,8,60,1,3,3,3 | 3,0,1.4111,1.9756,neutral,right,,,,,,stimulusFile/physical.xlsx,,,,,,,,,,,,,,,,,,,,,,,,,,,,,,,
,,,,,,,,,,,,,,,762,2022-01-20_23h33.31.878,multiplicationStroop,2021.2.3,Win32,71.59221077,,,,,left,1,0.5693,0,9,9,34,1,6,8,6 | 8,2,1.9756,1.4111,incongruent,left,,,,,,stimulusFile/physical.xlsx,,,,,,,,,,,,,,,,,,,,,,,,,,,,,,,
,,,,,,,,,,,,,,,762,2022-01-20_23h33.31.878,multiplicationStroop,2021.2.3,Win32,71.59221077,,,,,left,1,0.3786,0,10,10,20,1,6,1,6 | 1,5,1.9756,1.4111,congruent,left,,,,,,stimulusFile/physical.xlsx,,,,,,,,,,,,,,,,,,,,,,,,,,,,,,,
,,,,,,,,,,,,,,,762,2022-01-20_23h33.31.878,multiplicationStroop,2021.2.3,Win32,71.59221077,,,,,left,0,0.4182,0,11,11,44,1,6,1,6 | 1,5,1.4111,1.9756,incongruent,right,,,,,,stimulusFile/physical.xlsx,,,,,,,,,,,,,,,,,,,,,,,,,,,,,,,
,,,,,,,,,,,,,,,762,2022-01-20_23h33.31.878,multiplicationStroop,2021.2.3,Win32,71.59221077,,,,,right,1,0.5479,0,12,12,59,1,7,7,7 | 7,0,1.4111,1.9756,neutral,right,,,,,,stimulusFile/physical.xlsx,,,,,,,,,,,,,,,,,,,,,,,,,,,,,,,
,,,,,,,,,,,,,,,762,2022-01-20_23h33.31.878,multiplicationStroop,2021.2.3,Win32,71.59221077,,,,,left,1,0.5395,0,13,13,68,1,6,6,6 | 6,0,1.9756,1.4111,neutral,left,,,,,,stimulusFile/physical.xlsx,,,,,,,,,,,,,,,,,,,,,,,,,,,,,,,
,,,,,,,,,,,,,,,762,2022-01-20_23h33.31.878,multiplicationStroop,2021.2.3,Win32,71.59221077,,,,,right,1,0.6805,0,14,14,47,1,9,4,9 | 4,5,1.4111,1.9756,incongruent,right,,,,,,stimulusFile/physical.xlsx,,,,,,,,,,,,,,,,,,,,,,,,,,,,,,,
,,,,,,,,,,,,,,,762,2022-01-20_23h33.31.878,multiplicationStroop,2021.2.3,Win32,71.59221077,,,,,left,1,0.4218,0,15,15,26,1,6,7,6 | 7,1,1.9756,1.4111,incongruent,left,,,,,,stimulusFile/physical.xlsx,,,,,,,,,,,,,,,,,,,,,,,,,,,,,,,
,,,,,,,,,,,,,,,762,2022-01-20_23h33.31.878,multiplicationStroop,2021.2.3,Win32,71.59221077,,,,,left,1,0.5961,0,16,16,32,1,1,3,1 | 3,2,1.9756,1.4111,incongruent,left,,,,,,stimulusFile/physical.xlsx,,,,,,,,,,,,,,,,,,,,,,,,,,,,,,,
,,,,,,,,,,,,,,,762,2022-01-20_23h33.31.878,multiplicationStroop,2021.2.3,Win32,71.59221077,,,,,right,1,0.5043,0,17,17,56,1,1,1,1 | 1,0,1.4111,1.9756,neutral,right,,,,,,stimulusFile/physical.xlsx,,,,,,,,,,,,,,,,,,,,,,,,,,,,,,,
,,,,,,,,,,,,,,,762,2022-01-20_23h33.31.878,multiplicationStroop,2021.2.3,Win32,71.59221077,,,,,right,1,0.5106,0,18,18,1,1,3,4,3 | 4,1,1.4111,1.9756,congruent,right,,,,,,stimulusFile/physical.xlsx,,,,,,,,,,,,,,,,,,,,,,,,,,,,,,,
,,,,,,,,,,,,,,,762,2022-01-20_23h33.31.878,multiplicationStroop,2021.2.3,Win32,71.59221077,,,,,right,1,0.5198,0,19,19,61,1,4,4,4 | 4,0,1.4111,1.9756,neutral,right,,,,,,stimulusFile/physical.xlsx,,,,,,,,,,,,,,,,,,,,,,,,,,,,,,,
,,,,,,,,,,,,,,,762,2022-01-20_23h33.31.878,multiplicationStroop,2021.2.3,Win32,71.59221077,,,,,left,1,0.4729,0,20,20,52,1,2,2,2 | 2,0,1.9756,1.4111,neutral,left,,,,,,stimulusFile/physical.xlsx,,,,,,,,,,,,,,,,,,,,,,,,,,,,,,,
,,,,,,,,,,,,,,,762,2022-01-20_23h33.31.878,multiplicationStroop,2021.2.3,Win32,71.59221077,,,,,right,1,0.4626,0,21,21,9,1,2,4,2 | 4,2,1.4111,1.9756,congruent,right,,,,,,stimulusFile/physical.xlsx,,,,,,,,,,,,,,,,,,,,,,,,,,,,,,,
,,,,,,,,,,,,,,,762,2022-01-20_23h33.31.878,multiplicationStroop,2021.2.3,Win32,71.59221077,,,,,right,1,0.3689,0,22,22,18,1,3,8,3 | 8,5,1.4111,1.9756,congruent,right,,,,,,stimulusFile/physical.xlsx,,,,,,,,,,,,,,,,,,,,,,,,,,,,,,,
,,,,,,,,,,,,,,,762,2022-01-20_23h33.31.878,multiplicationStroop,2021.2.3,Win32,71.59221077,,,,,right,1,0.413,0,23,23,16,1,1,6,1 | 6,5,1.4111,1.9756,congruent,right,,,,,,stimulusFile/physical.xlsx,,,,,,,,,,,,,,,,,,,,,,,,,,,,,,,
,,,,,,,,,,,,,,,762,2022-01-20_23h33.31.878,multiplicationStroop,2021.2.3,Win32,71.59221077,,,,,left,1,0.62,0,24,24,43,1,4,9,4 | 9,5,1.9756,1.4111,incongruent,left,,,,,,stimulusFile/physical.xlsx,,,,,,,,,,,,,,,,,,,,,,,,,,,,,,,
,,,,,,,,,,,,,,,762,2022-01-20_23h33.31.878,multiplicationStroop,2021.2.3,Win32,71.59221077,,,,,right,0,0.4403,0,25,25,42,1,3,8,3 | 8,5,1.9756,1.4111,incongruent,left,,,,,,stimulusFile/physical.xlsx,,,,,,,,,,,,,,,,,,,,,,,,,,,,,,,
,,,,,,,,,,,,,,,762,2022-01-20_23h33.31.878,multiplicationStroop,2021.2.3,Win32,71.59221077,,,,,left,1,0.5318,0,26,26,50,1,6,6,6 | 6,0,1.9756,1.4111,neutral,left,,,,,,stimulusFile/physical.xlsx,,,,,,,,,,,,,,,,,,,,,,,,,,,,,,,
,,,,,,,,,,,,,,,762,2022-01-20_23h33.31.878,multiplicationStroop,2021.2.3,Win32,71.59221077,,,,,right,1,0.5007,0,27,27,62,1,8,8,8 | 8,0,1.4111,1.9756,neutral,right,,,,,,stimulusFile/physical.xlsx,,,,,,,,,,,,,,,,,,,,,,,,,,,,,,,
,,,,,,,,,,,,,,,762,2022-01-20_23h33.31.878,multiplicationStroop,2021.2.3,Win32,71.59221077,,,,,left,1,0.4498,0,28,28,12,1,3,1,3 | 1,2,1.9756,1.4111,congruent,left,,,,,,stimulusFile/physical.xlsx,,,,,,,,,,,,,,,,,,,,,,,,,,,,,,,
,,,,,,,,,,,,,,,762,2022-01-20_23h33.31.878,multiplicationStroop,2021.2.3,Win32,71.59221077,,,,,left,1,0.5642,0,29,29,70,1,8,8,8 | 8,0,1.9756,1.4111,neutral,left,,,,,,stimulusFile/physical.xlsx,,,,,,,,,,,,,,,,,,,,,,,,,,,,,,,
,,,,,,,,,,,,,,,762,2022-01-20_23h33.31.878,multiplicationStroop,2021.2.3,Win32,71.59221077,,,,,right,1,0.4526,0,30,30,39,1,9,7,9 | 7,2,1.4111,1.9756,incongruent,right,,,,,,stimulusFile/physical.xlsx,,,,,,,,,,,,,,,,,,,,,,,,,,,,,,,
,,,,,,,,,,,,,,,762,2022-01-20_23h33.31.878,multiplicationStroop,2021.2.3,Win32,71.59221077,,,,,left,1,0.5762,0,31,31,40,1,1,6,1 | 6,5,1.9756,1.4111,incongruent,left,,,,,,stimulusFile/physical.xlsx,,,,,,,,,,,,,,,,,,,,,,,,,,,,,,,
,,,,,,,,,,,,,,,762,2022-01-20_23h33.31.878,multiplicationStroop,2021.2.3,Win32,71.59221077,,,,,left,0,0.4798,0,32,32,64,1,1,1,1 | 1,0,1.9756,1.4111,neutral,right,,,,,,stimulusFile/physical.xlsx,,,,,,,,,,,,,,,,,,,,,,,,,,,,,,,
,,,,,,,,,,,,,,,762,2022-01-20_23h33.31.878,multiplicationStroop,2021.2.3,Win32,71.59221077,,,,,right,1,0.4958,0,33,33,58,1,6,6,6 | 6,0,1.4111,1.9756,neutral,right,,,,,,stimulusFile/physical.xlsx,,,,,,,,,,,,,,,,,,,,,,,,,,,,,,,
,,,,,,,,,,,,,,,762,2022-01-20_23h33.31.878,multiplicationStroop,2021.2.3,Win32,71.59221077,,,,,right,0,0.5846,0,34,34,69,1,7,7,7 | 7,0,1.4111,1.9756,neutral,left,,,,,,stimulusFile/physical.xlsx,,,,,,,,,,,,,,,,,,,,,,,,,,,,,,,
,,,,,,,,,,,,,,,762,2022-01-20_23h33.31.878,multiplicationStroop,2021.2.3,Win32,71.59221077,,,,,left,1,0.5064,0,35,35,6,1,7,6,7 | 6,1,1.9756,1.4111,congruent,left,,,,,,stimulusFile/physical.xlsx,,,,,,,,,,,,,,,,,,,,,,,,,,,,,,,
,,,,,,,,,,,,,,,762,2022-01-20_23h33.31.878,multiplicationStroop,2021.2.3,Win32,71.59221077,,,,,right,1,0.4195,0,36,36,57,1,2,2,2 | 2,0,1.4111,1.9756,neutral,right,,,,,,stimulusFile/physical.xlsx,,,,,,,,,,,,,,,,,,,,,,,,,,,,,,,
,,,,,,,,,,,,,,,762,2022-01-20_23h33.31.878,multiplicationStroop,2021.2.3,Win32,71.59221077,,,,,left,1,0.5802,0,37,37,24,1,1,2,1 | 2,1,1.9756,1.4111,incongruent,left,,,,,,stimulusFile/physical.xlsx,,,,,,,,,,,,,,,,,,,,,,,,,,,,,,,
,,,,,,,,,,,,,,,762,2022-01-20_23h33.31.878,multiplicationStroop,2021.2.3,Win32,71.59221077,,,,,right,1,0.4914,0,38,38,19,1,4,9,4 | 9,5,1.4111,1.9756,congruent,right,,,,,,stimulusFile/physical.xlsx,,,,,,,,,,,,,,,,,,,,,,,,,,,,,,,
,,,,,,,,,,,,,,,762,2022-01-20_23h33.31.878,multiplicationStroop,2021.2.3,Win32,71.59221077,,,,,right,1,0.5361,0,39,39,0,1,1,2,1 | 2,1,1.4111,1.9756,congruent,right,,,,,,stimulusFile/physical.xlsx,,,,,,,,,,,,,,,,,,,,,,,,,,,,,,,
,,,,,,,,,,,,,,,762,2022-01-20_23h33.31.878,multiplicationStroop,2021.2.3,Win32,71.59221077,,,,,left,0,0.413,0,40,40,46,1,8,3,8 | 3,5,1.4111,1.9756,incongruent,right,,,,,,stimulusFile/physical.xlsx,,,,,,,,,,,,,,,,,,,,,,,,,,,,,,,
,,,,,,,,,,,,,,,762,2022-01-20_23h33.31.878,multiplicationStroop,2021.2.3,Win32,71.59221077,,,,,left,1,0.496,0,41,41,27,1,8,9,8 | 9,1,1.9756,1.4111,incongruent,left,,,,,,stimulusFile/physical.xlsx,,,,,,,,,,,,,,,,,,,,,,,,,,,,,,,
,,,,,,,,,,,,,,,762,2022-01-20_23h33.31.878,multiplicationStroop,2021.2.3,Win32,71.59221077,,,,,right,1,0.5844,0,42,42,45,1,7,2,7 | 2,5,1.4111,1.9756,incongruent,right,,,,,,stimulusFile/physical.xlsx,,,,,,,,,,,,,,,,,,,,,,,,,,,,,,,
,,,,,,,,,,,,,,,762,2022-01-20_23h33.31.878,multiplicationStroop,2021.2.3,Win32,71.59221077,,,,,left,1,0.4004,0,43,43,14,1,8,6,8 | 6,2,1.9756,1.4111,congruent,left,,,,,,stimulusFile/physical.xlsx,,,,,,,,,,,,,,,,,,,,,,,,,,,,,,,
,,,,,,,,,,,,,,,762,2022-01-20_23h33.31.878,multiplicationStroop,2021.2.3,Win32,71.59221077,,,,,right,1,0.4404,0,44,44,17,1,2,7,2 | 7,5,1.4111,1.9756,congruent,right,,,,,,stimulusFile/physical.xlsx,,,,,,,,,,,,,,,,,,,,,,,,,,,,,,,
,,,,,,,,,,,,,,,762,2022-01-20_23h33.31.878,multiplicationStroop,2021.2.3,Win32,71.59221077,,,,,left,1,0.7972,0,45,45,41,1,2,7,2 | 7,5,1.9756,1.4111,incongruent,left,,,,,,stimulusFile/physical.xlsx,,,,,,,,,,,,,,,,,,,,,,,,,,,,,,,
,,,,,,,,,,,,,,,762,2022-01-20_23h33.31.878,multiplicationStroop,2021.2.3,Win32,71.59221077,,,,,left,1,0.4304,0,46,46,23,1,9,4,9 | 4,5,1.9756,1.4111,congruent,left,,,,,,stimulusFile/physical.xlsx,,,,,,,,,,,,,,,,,,,,,,,,,,,,,,,
,,,,,,,,,,,,,,,762,2022-01-20_23h33.31.878,multiplicationStroop,2021.2.3,Win32,71.59221077,,,,,right,1,0.4439,0,47,47,3,1,8,9,8 | 9,1,1.4111,1.9756,congruent,right,,,,,,stimulusFile/physical.xlsx,,,,,,,,,,,,,,,,,,,,,,,,,,,,,,,
,,,,,,,,,,,,,,,762,2022-01-20_23h33.31.878,multiplicationStroop,2021.2.3,Win32,71.59221077,,,,,left,1,0.4798,0,48,48,35,1,7,9,7 | 9,2,1.9756,1.4111,incongruent,left,,,,,,stimulusFile/physical.xlsx,,,,,,,,,,,,,,,,,,,,,,,,,,,,,,,
,,,,,,,,,,,,,,,762,2022-01-20_23h33.31.878,multiplicationStroop,2021.2.3,Win32,71.59221077,,,,,left,0,0.5283,0,49,49,66,1,3,3,3 | 3,0,1.9756,1.4111,neutral,right,,,,,,stimulusFile/physical.xlsx,,,,,,,,,,,,,,,,,,,,,,,,,,,,,,,
,,,,,,,,,,,,,,,762,2022-01-20_23h33.31.878,multiplicationStroop,2021.2.3,Win32,71.59221077,,,,,right,1,0.4825,0,50,50,8,1,1,3,1 | 3,2,1.4111,1.9756,congruent,right,,,,,,stimulusFile/physical.xlsx,,,,,,,,,,,,,,,,,,,,,,,,,,,,,,,
,,,,,,,,,,,,,,,762,2022-01-20_23h33.31.878,multiplicationStroop,2021.2.3,Win32,71.59221077,,,,,left,1,0.3916,0,51,51,5,1,4,3,4 | 3,1,1.9756,1.4111,congruent,left,,,,,,stimulusFile/physical.xlsx,,,,,,,,,,,,,,,,,,,,,,,,,,,,,,,
,,,,,,,,,,,,,,,762,2022-01-20_23h33.31.878,multiplicationStroop,2021.2.3,Win32,71.59221077,,,,,right,1,0.6363,0,52,52,38,1,8,6,8 | 6,2,1.4111,1.9756,incongruent,right,,,,,,stimulusFile/physical.xlsx,,,,,,,,,,,,,,,,,,,,,,,,,,,,,,,
,,,,,,,,,,,,,,,762,2022-01-20_23h33.31.878,multiplicationStroop,2021.2.3,Win32,71.59221077,,,,,right,1,0.6973,0,53,53,31,1,9,8,9 | 8,1,1.4111,1.9756,incongruent,right,,,,,,stimulusFile/physical.xlsx,,,,,,,,,,,,,,,,,,,,,,,,,,,,,,,
,,,,,,,,,,,,,,,762,2022-01-20_23h33.31.878,multiplicationStroop,2021.2.3,Win32,71.59221077,,,,,right,0,0.6613,0,54,54,71,1,9,9,9 | 9,0,1.4111,1.9756,neutral,left,,,,,,stimulusFile/physical.xlsx,,,,,,,,,,,,,,,,,,,,,,,,,,,,,,,
,,,,,,,,,,,,,,,762,2022-01-20_23h33.31.878,multiplicationStroop,2021.2.3,Win32,71.59221077,,,,,left,1,0.5096,0,55,55,49,1,3,3,3 | 3,0,1.9756,1.4111,neutral,left,,,,,,stimulusFile/physical.xlsx,,,,,,,,,,,,,,,,,,,,,,,,,,,,,,,
,,,,,,,,,,,,,,,762,2022-01-20_23h33.31.878,multiplicationStroop,2021.2.3,Win32,71.59221077,,,,,right,1,0.652,0,56,56,30,1,7,6,7 | 6,1,1.4111,1.9756,incongruent,right,,,,,,stimulusFile/physical.xlsx,,,,,,,,,,,,,,,,,,,,,,,,,,,,,,,
,,,,,,,,,,,,,,,762,2022-01-20_23h33.31.878,multiplicationStroop,2021.2.3,Win32,71.59221077,,,,,right,1,0.7777,0,57,57,29,1,4,3,4 | 3,1,1.4111,1.9756,incongruent,right,,,,,,stimulusFile/physical.xlsx,,,,,,,,,,,,,,,,,,,,,,,,,,,,,,,
,,,,,,,,,,,,,,,762,2022-01-20_23h33.31.878,multiplicationStroop,2021.2.3,Win32,71.59221077,,,,,right,1,0.5194,0,58,58,65,1,2,2,2 | 2,0,1.4111,1.9756,neutral,right,,,,,,stimulusFile/physical.xlsx,,,,,,,,,,,,,,,,,,,,,,,,,,,,,,,
,,,,,,,,,,,,,,,762,2022-01-20_23h33.31.878,multiplicationStroop,2021.2.3,Win32,71.59221077,,,,,left,1,0.4969,0,59,59,48,1,1,1,1 | 1,0,1.9756,1.4111,neutral,left,,,,,,stimulusFile/physical.xlsx,,,,,,,,,,,,,,,,,,,,,,,,,,,,,,,
,,,,,,,,,,,,,,,762,2022-01-20_23h33.31.878,multiplicationStroop,2021.2.3,Win32,71.59221077,,,,,left,1,0.5593,0,60,60,7,1,9,8,9 | 8,1,1.9756,1.4111,congruent,left,,,,,,stimulusFile/physical.xlsx,,,,,,,,,,,,,,,,,,,,,,,,,,,,,,,
,,,,,,,,,,,,,,,762,2022-01-20_23h33.31.878,multiplicationStroop,2021.2.3,Win32,71.59221077,,,,,left,1,0.5327,0,61,61,53,1,4,4,4 | 4,0,1.9756,1.4111,neutral,left,,,,,,stimulusFile/physical.xlsx,,,,,,,,,,,,,,,,,,,,,,,,,,,,,,,
,,,,,,,,,,,,,,,762,2022-01-20_23h33.31.878,multiplicationStroop,2021.2.3,Win32,71.59221077,,,,,right,1,0.49,0,62,62,2,1,6,7,6 | 7,1,1.4111,1.9756,congruent,right,,,,,,stimulusFile/physical.xlsx,,,,,,,,,,,,,,,,,,,,,,,,,,,,,,,
,,,,,,,,,,,,,,,762,2022-01-20_23h33.31.878,multiplicationStroop,2021.2.3,Win32,71.59221077,,,,,left,0,0.4625,0,63,63,37,1,4,2,4 | 2,2,1.4111,1.9756,incongruent,right,,,,,,stimulusFile/physical.xlsx,,,,,,,,,,,,,,,,,,,,,,,,,,,,,,,
,,,,,,,,,,,,,,,762,2022-01-20_23h33.31.878,multiplicationStroop,2021.2.3,Win32,71.59221077,,,,,left,1,0.5012,0,64,64,4,1,2,1,2 | 1,1,1.9756,1.4111,congruent,left,,,,,,stimulusFile/physical.xlsx,,,,,,,,,,,,,,,,,,,,,,,,,,,,,,,
,,,,,,,,,,,,,,,762,2022-01-20_23h33.31.878,multiplicationStroop,2021.2.3,Win32,71.59221077,,,,,right,1,0.6581,0,65,65,63,1,9,9,9 | 9,0,1.4111,1.9756,neutral,right,,,,,,stimulusFile/physical.xlsx,,,,,,,,,,,,,,,,,,,,,,,,,,,,,,,
,,,,,,,,,,,,,,,762,2022-01-20_23h33.31.878,multiplicationStroop,2021.2.3,Win32,71.59221077,,,,,right,1,0.5568,0,66,66,11,1,7,9,7 | 9,2,1.4111,1.9756,congruent,right,,,,,,stimulusFile/physical.xlsx,,,,,,,,,,,,,,,,,,,,,,,,,,,,,,,
,,,,,,,,,,,,,,,762,2022-01-20_23h33.31.878,multiplicationStroop,2021.2.3,Win32,71.59221077,,,,,right,1,0.6757,0,67,67,28,1,2,1,2 | 1,1,1.4111,1.9756,incongruent,right,,,,,,stimulusFile/physical.xlsx,,,,,,,,,,,,,,,,,,,,,,,,,,,,,,,
,,,,,,,,,,,,,,,762,2022-01-20_23h33.31.878,multiplicationStroop,2021.2.3,Win32,71.59221077,,,,,right,1,0.6451,0,68,68,36,1,3,1,3 | 1,2,1.4111,1.9756,incongruent,right,,,,,,stimulusFile/physical.xlsx,,,,,,,,,,,,,,,,,,,,,,,,,,,,,,,
,,,,,,,,,,,,,,,762,2022-01-20_23h33.31.878,multiplicationStroop,2021.2.3,Win32,71.59221077,,,,,left,1,0.4635,0,69,69,21,1,7,2,7 | 2,5,1.9756,1.4111,congruent,left,,,,,,stimulusFile/physical.xlsx,,,,,,,,,,,,,,,,,,,,,,,,,,,,,,,
,,,,,,,,,,,,,,,762,2022-01-20_23h33.31.878,multiplicationStroop,2021.2.3,Win32,71.59221077,,,,,right,1,0.4812,0,70,70,10,1,6,8,6 | 8,2,1.4111,1.9756,congruent,right,,,,,,stimulusFile/physical.xlsx,,,,,,,,,,,,,,,,,,,,,,,,,,,,,,,
,,,,,,,,,,,,,,,762,2022-01-20_23h33.31.878,multiplicationStroop,2021.2.3,Win32,71.59221077,,,,,right,1,0.5792,0,71,71,67,1,4,4,4 | 4,0,1.4111,1.9756,neutral,right,,,,,,stimulusFile/physical.xlsx,,,,,,,,,,,,,,,,,,,,,,,,,,,,,,,
,,,,,,,,,,,,,,,762,2022-01-20_23h33.31.878,multiplicationStroop,2021.2.3,Win32,71.59221077,,,,,,,,,,,,,,,,,,,,,0,1,1,1,1,stimulusFile/physical.xlsx,PHYSICALLY larger (larger font size).,images/physicallyLarger.png,,,,,,,,,,,,,,,,,,,,,,,,,,,,,
,,,,,,,,,,,,,,,762,2022-01-20_23h33.31.878,multiplicationStroop,2021.2.3,Win32,71.59221077,,,,,,,,,,,,,,,,,,,,,,,,,,,,,space,13.5205,space,1.4465,31,2.7557,0,0,0,0,23,1,8,×,4,8 × 4,neutral,largerFirst,1.5,1.5,32,,,,,,,,
,,,,,,,,,,,,,,,762,2022-01-20_23h33.31.878,multiplicationStroop,2021.2.3,Win32,71.59221077,,,,,,,,,,,,,,,,,,,,,,,,,,,,,,,,,25,2.0833,1,0,1,1,31,1,5,×,5,5 × 5,neutral,tie,1.5,1.5,25,,,,,,,,
,,,,,,,,,,,,,,,762,2022-01-20_23h33.31.878,multiplicationStroop,2021.2.3,Win32,71.59221077,,,,,,,,,,,,,,,,,,,,,,,,,,,,,,,,,40,1.6496,1,0,2,2,24,1,8,×,5,8 × 5,neutral,largerFirst,1.5,1.5,40,,,,,,,,
,,,,,,,,,,,,,,,762,2022-01-20_23h33.31.878,multiplicationStroop,2021.2.3,Win32,71.59221077,,,,,,,,,,,,,,,,,,,,,,,,,,,,,,,,,15,1.5373,1,0,3,3,5,1,3,×,5,3 × 5,neutral,smallerFirst,1.5,1.5,15,,,,,,,,
,,,,,,,,,,,,,,,762,2022-01-20_23h33.31.878,multiplicationStroop,2021.2.3,Win32,71.59221077,,,,,,,,,,,,,,,,,,,,,,,,,,,,,,,,,16,1.7376,1,0,4,4,13,1,2,×,8,2 × 8,neutral,smallerFirst,1.5,1.5,16,,,,,,,,
,,,,,,,,,,,,,,,762,2022-01-20_23h33.31.878,multiplicationStroop,2021.2.3,Win32,71.59221077,,,,,,,,,,,,,,,,,,,,,,,,,,,,,,,,,20,1.6937,1,0,5,5,20,1,5,×,4,5 × 4,neutral,largerFirst,1.5,1.5,20,,,,,,,,
,,,,,,,,,,,,,,,762,2022-01-20_23h33.31.878,multiplicationStroop,2021.2.3,Win32,71.59221077,,,,,,,,,,,,,,,,,,,,,,,,,,,,,,,,,26,1.6159,0,0,6,6,32,1,6,×,6,6 × 6,neutral,tie,1.5,1.5,36,,,,,,,,
,,,,,,,,,,,,,,,762,2022-01-20_23h33.31.878,multiplicationStroop,2021.2.3,Win32,71.59221077,,,,,,,,,,,,,,,,,,,,,,,,,,,,,,,,,42,1.9297,1,0,7,7,6,1,6,×,7,6 × 7,neutral,smallerFirst,1.5,1.5,42,,,,,,,,
,,,,,,,,,,,,,,,762,2022-01-20_23h33.31.878,multiplicationStroop,2021.2.3,Win32,71.59221077,,,,,,,,,,,,,,,,,,,,,,,,,,,,,,,,,10,1.7808,1,0,8,8,4,1,2,×,5,2 × 5,neutral,smallerFirst,1.5,1.5,10,,,,,,,,
,,,,,,,,,,,,,,,762,2022-01-20_23h33.31.878,multiplicationStroop,2021.2.3,Win32,71.59221077,,,,,,,,,,,,,,,,,,,,,,,,,,,,,,,,,6,1.4313,1,0,9,9,26,1,3,×,2,3 × 2,neutral,largerFirst,1.5,1.5,6,,,,,,,,
,,,,,,,,,,,,,,,762,2022-01-20_23h33.31.878,multiplicationStroop,2021.2.3,Win32,71.59221077,,,,,,,,,,,,,,,,,,,,,,,,,,,,,,,,,12,1.3661,1,0,10,10,21,1,4,×,3,4 × 3,neutral,largerFirst,1.5,1.5,12,,,,,,,,
,,,,,,,,,,,,,,,762,2022-01-20_23h33.31.878,multiplicationStroop,2021.2.3,Win32,71.59221077,,,,,,,,,,,,,,,,,,,,,,,,,,,,,,,,,63,2.2822,1,0,11,11,12,1,7,×,9,7 × 9,neutral,smallerFirst,1.5,1.5,63,,,,,,,,
,,,,,,,,,,,,,,,762,2022-01-20_23h33.31.878,multiplicationStroop,2021.2.3,Win32,71.59221077,,,,,,,,,,,,,,,,,,,,,,,,,,,,,,,,,30,1.7129,1,0,12,12,19,1,6,×,5,6 × 5,neutral,largerFirst,1.5,1.5,30,,,,,,,,
,,,,,,,,,,,,,,,762,2022-01-20_23h33.31.878,multiplicationStroop,2021.2.3,Win32,71.59221077,,,,,,,,,,,,,,,,,,,,,,,,,,,,,,,,,24,2.8395,1,0,13,13,2,1,4,×,6,4 × 6,neutral,smallerFirst,1.5,1.5,24,,,,,,,,
,,,,,,,,,,,,,,,762,2022-01-20_23h33.31.878,multiplicationStroop,2021.2.3,Win32,71.59221077,,,,,,,,,,,,,,,,,,,,,,,,,,,,,,,,,14,1.6534,1,0,14,14,16,1,7,×,2,7 × 2,neutral,largerFirst,1.5,1.5,14,,,,,,,,
,,,,,,,,,,,,,,,762,2022-01-20_23h33.31.878,multiplicationStroop,2021.2.3,Win32,71.59221077,,,,,,,,,,,,,,,,,,,,,,,,,,,,,,,,,8,1.7654,1,0,15,15,3,1,2,×,4,2 × 4,neutral,smallerFirst,1.5,1.5,8,,,,,,,,
,,,,,,,,,,,,,,,762,2022-01-20_23h33.31.878,multiplicationStroop,2021.2.3,Win32,71.59221077,,,,,,,,,,,,,,,,,,,,,,,,,,,,,,,,,9,1.386,1,0,16,16,29,1,3,×,3,3 × 3,neutral,tie,1.5,1.5,9,,,,,,,,
,,,,,,,,,,,,,,,762,2022-01-20_23h33.31.878,multiplicationStroop,2021.2.3,Win32,71.59221077,,,,,,,,,,,,,,,,,,,,,,,,,,,,,,,,,49,2.0204,1,0,17,17,33,1,7,×,7,7 × 7,neutral,tie,1.5,1.5,49,,,,,,,,
,,,,,,,,,,,,,,,762,2022-01-20_23h33.31.878,multiplicationStroop,2021.2.3,Win32,71.59221077,,,,,,,,,,,,,,,,,,,,,,,,,,,,,,,,,18,1.984,1,0,18,18,18,1,9,×,2,9 × 2,neutral,largerFirst,1.5,1.5,18,,,,,,,,
,,,,,,,,,,,,,,,762,2022-01-20_23h33.31.878,multiplicationStroop,2021.2.3,Win32,71.59221077,,,,,,,,,,,,,,,,,,,,,,,,,,,,,,,,,45,1.5492,1,0,19,19,10,1,5,×,9,5 × 9,neutral,smallerFirst,1.5,1.5,45,,,,,,,,
,,,,,,,,,,,,,,,762,2022-01-20_23h33.31.878,multiplicationStroop,2021.2.3,Win32,71.59221077,,,,,,,,,,,,,,,,,,,,,,,,,,,,,,,,,21,1.5441,1,0,20,20,8,1,3,×,7,3 × 7,neutral,smallerFirst,1.5,1.5,21,,,,,,,,
,,,,,,,,,,,,,,,762,2022-01-20_23h33.31.878,multiplicationStroop,2021.2.3,Win32,71.59221077,,,,,,,,,,,,,,,,,,,,,,,,,,,,,,,,,12,1.5008,1,0,21,21,25,1,6,×,2,6 × 2,neutral,largerFirst,1.5,1.5,12,,,,,,,,
,,,,,,,,,,,,,,,762,2022-01-20_23h33.31.878,multiplicationStroop,2021.2.3,Win32,71.59221077,,,,,,,,,,,,,,,,,,,,,,,,,,,,,,,,,72,1.6933,1,0,22,22,11,1,8,×,9,8 × 9,neutral,smallerFirst,1.5,1.5,72,,,,,,,,
,,,,,,,,,,,,,,,762,2022-01-20_23h33.31.878,multiplicationStroop,2021.2.3,Win32,71.59221077,,,,,,,,,,,,,,,,,,,,,,,,,,,,,,,,,4,1.2346,1,0,23,23,28,1,2,×,2,2 × 2,neutral,tie,1.5,1.5,4,,,,,,,,
,,,,,,,,,,,,,,,762,2022-01-20_23h33.31.878,multiplicationStroop,2021.2.3,Win32,71.59221077,,,,,,,,,,,,,,,,,,,,,,,,,,,,,,,,,16,1.5529,1,0,24,24,30,1,4,×,4,4 × 4,neutral,tie,1.5,1.5,16,,,,,,,,
,,,,,,,,,,,,,,,762,2022-01-20_23h33.31.878,multiplicationStroop,2021.2.3,Win32,71.59221077,,,,,,,,,,,,,,,,,,,,,,,,,,,,,,,,,81,1.8236,1,0,25,25,35,1,9,×,9,9 × 9,neutral,tie,1.5,1.5,81,,,,,,,,
,,,,,,,,,,,,,,,762,2022-01-20_23h33.31.878,multiplicationStroop,2021.2.3,Win32,71.59221077,,,,,,,,,,,,,,,,,,,,,,,,,,,,,,,,,18,1.8561,1,0,26,26,0,1,3,×,6,3 × 6,neutral,smallerFirst,1.5,1.5,18,,,,,,,,
,,,,,,,,,,,,,,,762,2022-01-20_23h33.31.878,multiplicationStroop,2021.2.3,Win32,71.59221077,,,,,,,,,,,,,,,,,,,,,,,,,,,,,,,,,24,1.571,1,0,27,27,22,1,8,×,3,8 × 3,neutral,largerFirst,1.5,1.5,24,,,,,,,,
,,,,,,,,,,,,,,,762,2022-01-20_23h33.31.878,multiplicationStroop,2021.2.3,Win32,71.59221077,,,,,,,,,,,,,,,,,,,,,,,,,,,,,,,,,56,2.2151,1,0,28,28,9,1,7,×,8,7 × 8,neutral,smallerFirst,1.5,1.5,56,,,,,,,,
,,,,,,,,,,,,,,,762,2022-01-20_23h33.31.878,multiplicationStroop,2021.2.3,Win32,71.59221077,,,,,,,,,,,,,,,,,,,,,,,,,,,,,,,,,27,1.9155,1,0,29,29,14,1,9,×,3,9 × 3,neutral,largerFirst,1.5,1.5,27,,,,,,,,
,,,,,,,,,,,,,,,762,2022-01-20_23h33.31.878,multiplicationStroop,2021.2.3,Win32,71.59221077,,,,,,,,,,,,,,,,,,,,,,,,,,,,,,,,,54,2.4325,1,0,30,30,7,1,6,×,9,6 × 9,neutral,smallerFirst,1.5,1.5,54,,,,,,,,
,,,,,,,,,,,,,,,762,2022-01-20_23h33.31.878,multiplicationStroop,2021.2.3,Win32,71.59221077,,,,,,,,,,,,,,,,,,,,,,,,,,,,,,,,,64,1.6583,1,0,31,31,34,1,8,×,8,8 × 8,neutral,tie,1.5,1.5,64,,,,,,,,
,,,,,,,,,,,,,,,762,2022-01-20_23h33.31.878,multiplicationStroop,2021.2.3,Win32,71.59221077,,,,,,,,,,,,,,,,,,,,,,,,,,,,,,,,,32,1.4002,0,0,32,32,17,1,7,×,4,7 × 4,neutral,largerFirst,1.5,1.5,28,,,,,,,,
,,,,,,,,,,,,,,,762,2022-01-20_23h33.31.878,multiplicationStroop,2021.2.3,Win32,71.59221077,,,,,,,,,,,,,,,,,,,,,,,,,,,,,,,,,48,2.019,1,0,33,33,15,1,8,×,6,8 × 6,neutral,largerFirst,1.5,1.5,48,,,,,,,,
,,,,,,,,,,,,,,,762,2022-01-20_23h33.31.878,multiplicationStroop,2021.2.3,Win32,71.59221077,,,,,,,,,,,,,,,,,,,,,,,,,,,,,,,,,36,2.0691,1,0,34,34,27,1,9,×,4,9 × 4,neutral,largerFirst,1.5,1.5,36,,,,,,,,
,,,,,,,,,,,,,,,762,2022-01-20_23h33.31.878,multiplicationStroop,2021.2.3,Win32,71.59221077,,,,,,,,,,,,,,,,,,,,,,,,,,,,,,,,,35,1.7307,1,0,35,35,1,1,5,×,7,5 × 7,neutral,smallerFirst,1.5,1.5,35,,,,,,,,
,,,,,,,,,,,,,,,762,2022-01-20_23h33.31.878,multiplicationStroop,2021.2.3,Win32,71.59221077,,,,,,,,,,,,,,,,,,,,,,,,,,,,,,,,,,,,,,,,,,,,,,,,,,0,0,0,1,1,stimulusFile/mult_blk2.xlsx,,
,,,,,,,,,,,,,,,762,2022-01-20_23h33.31.878,multiplicationStroop,2021.2.3,Win32,71.59221077,,,,,,,,,,,,,,,,,,,,,,,,,,,,,,,space,1.3903,72,2.1713,1,0,0,0,17,1,9,×,8,9 × 8,congruent,largerFirst,2,1,72,,,,,,,,
,,,,,,,,,,,,,,,762,2022-01-20_23h33.31.878,multiplicationStroop,2021.2.3,Win32,71.59221077,,,,,,,,,,,,,,,,,,,,,,,,,,,,,,,,,12,1.3394,1,0,1,1,19,1,6,×,2,6 × 2,congruent,largerFirst,2,1,12,,,,,,,,
,,,,,,,,,,,,,,,762,2022-01-20_23h33.31.878,multiplicationStroop,2021.2.3,Win32,71.59221077,,,,,,,,,,,,,,,,,,,,,,,,,,,,,,,,,27,1.8212,1,0,2,2,26,1,9,×,3,9 × 3,congruent,largerFirst,2,1,27,,,,,,,,
,,,,,,,,,,,,,,,762,2022-01-20_23h33.31.878,multiplicationStroop,2021.2.3,Win32,71.59221077,,,,,,,,,,,,,,,,,,,,,,,,,,,,,,,,,16,1.6674,1,0,3,3,5,1,2,×,8,2 × 8,congruent,smallerFirst,1,2,16,,,,,,,,
,,,,,,,,,,,,,,,762,2022-01-20_23h33.31.878,multiplicationStroop,2021.2.3,Win32,71.59221077,,,,,,,,,,,,,,,,,,,,,,,,,,,,,,,,,32,1.5062,1,0,4,4,20,1,8,×,4,8 × 4,congruent,largerFirst,2,1,32,,,,,,,,
,,,,,,,,,,,,,,,762,2022-01-20_23h33.31.878,multiplicationStroop,2021.2.3,Win32,71.59221077,,,,,,,,,,,,,,,,,,,,,,,,,,,,,,,,,18,1.8267,1,0,5,5,22,1,9,×,2,9 × 2,congruent,largerFirst,2,1,18,,,,,,,,
,,,,,,,,,,,,,,,762,2022-01-20_23h33.31.878,multiplicationStroop,2021.2.3,Win32,71.59221077,,,,,,,,,,,,,,,,,,,,,,,,,,,,,,,,,24,1.5166,1,0,6,6,25,1,6,×,4,6 × 4,congruent,largerFirst,2,1,24,,,,,,,,
,,,,,,,,,,,,,,,762,2022-01-20_23h33.31.878,multiplicationStroop,2021.2.3,Win32,71.59221077,,,,,,,,,,,,,,,,,,,,,,,,,,,,,,,,,48,3.1492,1,0,7,7,18,1,8,×,6,8 × 6,congruent,largerFirst,2,1,48,,,,,,,,
,,,,,,,,,,,,,,,762,2022-01-20_23h33.31.878,multiplicationStroop,2021.2.3,Win32,71.59221077,,,,,,,,,,,,,,,,,,,,,,,,,,,,,,,,,49,2.6519,1,0,8,8,33,1,7,×,7,7 × 7,neutral,tie,2,1,49,,,,,,,,
,,,,,,,,,,,,,,,762,2022-01-20_23h33.31.878,multiplicationStroop,2021.2.3,Win32,71.59221077,,,,,,,,,,,,,,,,,,,,,,,,,,,,,,,,,36,2.159,1,0,9,9,0,1,4,×,9,4 × 9,congruent,smallerFirst,1,2,36,,,,,,,,
,,,,,,,,,,,,,,,762,2022-01-20_23h33.31.878,multiplicationStroop,2021.2.3,Win32,71.59221077,,,,,,,,,,,,,,,,,,,,,,,,,,,,,,,,,21,1.3734,1,0,10,10,16,1,7,×,3,7 × 3,congruent,largerFirst,2,1,21,,,,,,,,
,,,,,,,,,,,,,,,762,2022-01-20_23h33.31.878,multiplicationStroop,2021.2.3,Win32,71.59221077,,,,,,,,,,,,,,,,,,,,,,,,,,,,,,,,,8,1.7392,1,0,11,11,9,1,2,×,4,2 × 4,congruent,smallerFirst,1,2,8,,,,,,,,
,,,,,,,,,,,,,,,762,2022-01-20_23h33.31.878,multiplicationStroop,2021.2.3,Win32,71.59221077,,,,,,,,,,,,,,,,,,,,,,,,,,,,,,,,,20,2.1234,1,0,12,12,7,1,4,×,5,4 × 5,congruent,smallerFirst,1,2,20,,,,,,,,
,,,,,,,,,,,,,,,762,2022-01-20_23h33.31.878,multiplicationStroop,2021.2.3,Win32,71.59221077,,,,,,,,,,,,,,,,,,,,,,,,,,,,,,,,,4,1.4145,1,0,13,13,28,1,2,×,2,2 × 2,neutral,tie,2,1,4,,,,,,,,
,,,,,,,,,,,,,,,762,2022-01-20_23h33.31.878,multiplicationStroop,2021.2.3,Win32,71.59221077,,,,,,,,,,,,,,,,,,,,,,,,,,,,,,,,,18,2.9111,1,0,14,14,11,1,3,×,6,3 × 6,congruent,smallerFirst,1,2,18,,,,,,,,
,,,,,,,,,,,,,,,762,2022-01-20_23h33.31.878,multiplicationStroop,2021.2.3,Win32,71.59221077,,,,,,,,,,,,,,,,,,,,,,,,,,,,,,,,,25,1.4273,1,0,15,15,31,1,5,×,5,5 × 5,neutral,tie,2,1,25,,,,,,,,
,,,,,,,,,,,,,,,762,2022-01-20_23h33.31.878,multiplicationStroop,2021.2.3,Win32,71.59221077,,,,,,,,,,,,,,,,,,,,,,,,,,,,,,,,,12,1.3805,1,0,16,16,2,1,3,×,4,3 × 4,congruent,smallerFirst,1,2,12,,,,,,,,
,,,,,,,,,,,,,,,762,2022-01-20_23h33.31.878,multiplicationStroop,2021.2.3,Win32,71.59221077,,,,,,,,,,,,,,,,,,,,,,,,,,,,,,,,,24,1.4635,1,0,17,17,10,1,3,×,8,3 × 8,congruent,smallerFirst,1,2,24,,,,,,,,
,,,,,,,,,,,,,,,762,2022-01-20_23h33.31.878,multiplicationStroop,2021.2.3,Win32,71.59221077,,,,,,,,,,,,,,,,,,,,,,,,,,,,,,,,,35,1.8177,1,0,18,18,1,1,5,×,7,5 × 7,congruent,smallerFirst,1,2,35,,,,,,,,
,,,,,,,,,,,,,,,762,2022-01-20_23h33.31.878,multiplicationStroop,2021.2.3,Win32,71.59221077,,,,,,,,,,,,,,,,,,,,,,,,,,,,,,,,,30,1.5013,1,0,19,19,15,1,6,×,5,6 × 5,congruent,largerFirst,2,1,30,,,,,,,,
,,,,,,,,,,,,,,,762,2022-01-20_23h33.31.878,multiplicationStroop,2021.2.3,Win32,71.59221077,,,,,,,,,,,,,,,,,,,,,,,,,,,,,,,,,54,2.2808,1,0,20,20,12,1,6,×,9,6 × 9,congruent,smallerFirst,1,2,54,,,,,,,,
,,,,,,,,,,,,,,,762,2022-01-20_23h33.31.878,multiplicationStroop,2021.2.3,Win32,71.59221077,,,,,,,,,,,,,,,,,,,,,,,,,,,,,,,,,14,1.9993,1,0,21,21,14,1,7,×,2,7 × 2,congruent,largerFirst,2,1,14,,,,,,,,
,,,,,,,,,,,,,,,762,2022-01-20_23h33.31.878,multiplicationStroop,2021.2.3,Win32,71.59221077,,,,,,,,,,,,,,,,,,,,,,,,,,,,,,,,,64,2.0929,1,0,22,22,34,1,8,×,8,8 × 8,neutral,tie,2,1,64,,,,,,,,
,,,,,,,,,,,,,,,762,2022-01-20_23h33.31.878,multiplicationStroop,2021.2.3,Win32,71.59221077,,,,,,,,,,,,,,,,,,,,,,,,,,,,,,,,,9,1.577,1,0,23,23,29,1,3,×,3,3 × 3,neutral,tie,2,1,9,,,,,,,,
,,,,,,,,,,,,,,,762,2022-01-20_23h33.31.878,multiplicationStroop,2021.2.3,Win32,71.59221077,,,,,,,,,,,,,,,,,,,,,,,,,,,,,,,,,15,1.5462,1,0,24,24,4,1,3,×,5,3 × 5,congruent,smallerFirst,1,2,15,,,,,,,,
,,,,,,,,,,,,,,,762,2022-01-20_23h33.31.878,multiplicationStroop,2021.2.3,Win32,71.59221077,,,,,,,,,,,,,,,,,,,,,,,,,,,,,,,,,36,1.6296,1,0,25,25,32,1,6,×,6,6 × 6,neutral,tie,2,1,36,,,,,,,,
,,,,,,,,,,,,,,,762,2022-01-20_23h33.31.878,multiplicationStroop,2021.2.3,Win32,71.59221077,,,,,,,,,,,,,,,,,,,,,,,,,,,,,,,,,56,1.6032,1,0,26,26,8,1,7,×,8,7 × 8,congruent,smallerFirst,1,2,56,,,,,,,,
,,,,,,,,,,,,,,,762,2022-01-20_23h33.31.878,multiplicationStroop,2021.2.3,Win32,71.59221077,,,,,,,,,,,,,,,,,,,,,,,,,,,,,,,,,42,1.8564,1,0,27,27,3,1,6,×,7,6 × 7,congruent,smallerFirst,1,2,42,,,,,,,,
,,,,,,,,,,,,,,,762,2022-01-20_23h33.31.878,multiplicationStroop,2021.2.3,Win32,71.59221077,,,,,,,,,,,,,,,,,,,,,,,,,,,,,,,,,45,1.5442,1,0,28,28,23,1,9,×,5,9 × 5,congruent,largerFirst,2,1,45,,,,,,,,
,,,,,,,,,,,,,,,762,2022-01-20_23h33.31.878,multiplicationStroop,2021.2.3,Win32,71.59221077,,,,,,,,,,,,,,,,,,,,,,,,,,,,,,,,,14,1.8252,0,0,29,29,30,1,4,×,4,4 × 4,neutral,tie,2,1,16,,,,,,,,
,,,,,,,,,,,,,,,762,2022-01-20_23h33.31.878,multiplicationStroop,2021.2.3,Win32,71.59221077,,,,,,,,,,,,,,,,,,,,,,,,,,,,,,,,,28,2.0659,1,0,30,30,27,1,7,×,4,7 × 4,congruent,largerFirst,2,1,28,,,,,,,,
,,,,,,,,,,,,,,,762,2022-01-20_23h33.31.878,multiplicationStroop,2021.2.3,Win32,71.59221077,,,,,,,,,,,,,,,,,,,,,,,,,,,,,,,,,10,1.8167,1,0,31,31,24,1,5,×,2,5 × 2,congruent,largerFirst,2,1,10,,,,,,,,
,,,,,,,,,,,,,,,762,2022-01-20_23h33.31.878,multiplicationStroop,2021.2.3,Win32,71.59221077,,,,,,,,,,,,,,,,,,,,,,,,,,,,,,,,,6,1.9275,1,0,32,32,13,1,2,×,3,2 × 3,congruent,smallerFirst,1,2,6,,,,,,,,
,,,,,,,,,,,,,,,762,2022-01-20_23h33.31.878,multiplicationStroop,2021.2.3,Win32,71.59221077,,,,,,,,,,,,,,,,,,,,,,,,,,,,,,,,,81,1.4597,1,0,33,33,35,1,9,×,9,9 × 9,neutral,tie,2,1,81,,,,,,,,
,,,,,,,,,,,,,,,762,2022-01-20_23h33.31.878,multiplicationStroop,2021.2.3,Win32,71.59221077,,,,,,,,,,,,,,,,,,,,,,,,,,,,,,,,,40,2.0536,1,0,34,34,6,1,5,×,8,5 × 8,congruent,smallerFirst,1,2,40,,,,,,,,
,,,,,,,,,,,,,,,762,2022-01-20_23h33.31.878,multiplicationStroop,2021.2.3,Win32,71.59221077,,,,,,,,,,,,,,,,,,,,,,,,,,,,,,,,,63,2.0952,1,0,35,35,21,1,9,×,7,9 × 7,congruent,largerFirst,2,1,63,,,,,,,,
,,,,,,,,,,,,,,,762,2022-01-20_23h33.31.878,multiplicationStroop,2021.2.3,Win32,71.59221077,,,,,,,,,,,,,,,,,,,,,,,,,,,,,,,,,,,,,,,,,,,,,,,,,,0,1,1,2,1,stimulusFile/mult_blk3_congruent.xlsx,,
,,,,,,,,,,,,,,,762,2022-01-20_23h33.31.878,multiplicationStroop,2021.2.3,Win32,71.59221077,,,,,,,,,,,,,,,,,,,,,,,,,,,,,,,space,0.8725,64,1.9646,1,0,0,0,34,1,8,×,8,8 × 8,neutral,tie,2,1,64,,,,,,,,
,,,,,,,,,,,,,,,762,2022-01-20_23h33.31.878,multiplicationStroop,2021.2.3,Win32,71.59221077,,,,,,,,,,,,,,,,,,,,,,,,,,,,,,,,,16,1.8108,1,0,1,1,9,1,2,×,8,2 × 8,incongruent,smallerFirst,2,1,16,,,,,,,,
,,,,,,,,,,,,,,,762,2022-01-20_23h33.31.878,multiplicationStroop,2021.2.3,Win32,71.59221077,,,,,,,,,,,,,,,,,,,,,,,,,,,,,,,,,49,1.6282,1,0,2,2,33,1,7,×,7,7 × 7,neutral,tie,2,1,49,,,,,,,,
,,,,,,,,,,,,,,,762,2022-01-20_23h33.31.878,multiplicationStroop,2021.2.3,Win32,71.59221077,,,,,,,,,,,,,,,,,,,,,,,,,,,,,,,,,35,2.0225,1,0,3,3,26,1,7,×,5,7 × 5,incongruent,largerFirst,1,2,35,,,,,,,,
,,,,,,,,,,,,,,,762,2022-01-20_23h33.31.878,multiplicationStroop,2021.2.3,Win32,71.59221077,,,,,,,,,,,,,,,,,,,,,,,,,,,,,,,,,45,1.5933,1,0,4,4,8,1,5,×,9,5 × 9,incongruent,smallerFirst,2,1,45,,,,,,,,
,,,,,,,,,,,,,,,762,2022-01-20_23h33.31.878,multiplicationStroop,2021.2.3,Win32,71.59221077,,,,,,,,,,,,,,,,,,,,,,,,,,,,,,,,,12,1.6743,1,0,5,5,5,1,2,×,6,2 × 6,incongruent,smallerFirst,2,1,12,,,,,,,,
,,,,,,,,,,,,,,,762,2022-01-20_23h33.31.878,multiplicationStroop,2021.2.3,Win32,71.59221077,,,,,,,,,,,,,,,,,,,,,,,,,,,,,,,,,24,2.1221,1,0,6,6,6,1,4,×,6,4 × 6,incongruent,smallerFirst,2,1,24,,,,,,,,
,,,,,,,,,,,,,,,762,2022-01-20_23h33.31.878,multiplicationStroop,2021.2.3,Win32,71.59221077,,,,,,,,,,,,,,,,,,,,,,,,,,,,,,,,,12,2.608,1,0,7,7,19,1,4,×,3,4 × 3,incongruent,largerFirst,1,2,12,,,,,,,,
,,,,,,,,,,,,,,,762,2022-01-20_23h33.31.878,multiplicationStroop,2021.2.3,Win32,71.59221077,,,,,,,,,,,,,,,,,,,,,,,,,,,,,,,,,10,1.7357,1,0,8,8,7,1,2,×,5,2 × 5,incongruent,smallerFirst,2,1,10,,,,,,,,
,,,,,,,,,,,,,,,762,2022-01-20_23h33.31.878,multiplicationStroop,2021.2.3,Win32,71.59221077,,,,,,,,,,,,,,,,,,,,,,,,,,,,,,,,,72,2.2759,1,0,9,9,14,1,9,×,8,9 × 8,incongruent,largerFirst,1,2,72,,,,,,,,
,,,,,,,,,,,,,,,762,2022-01-20_23h33.31.878,multiplicationStroop,2021.2.3,Win32,71.59221077,,,,,,,,,,,,,,,,,,,,,,,,,,,,,,,,,36,1.8216,1,0,10,10,1,1,4,×,9,4 × 9,incongruent,smallerFirst,2,1,36,,,,,,,,
,,,,,,,,,,,,,,,762,2022-01-20_23h33.31.878,multiplicationStroop,2021.2.3,Win32,71.59221077,,,,,,,,,,,,,,,,,,,,,,,,,,,,,,,,,18,1.9749,1,0,11,11,16,1,9,×,2,9 × 2,incongruent,largerFirst,1,2,18,,,,,,,,
,,,,,,,,,,,,,,,762,2022-01-20_23h33.31.878,multiplicationStroop,2021.2.3,Win32,71.59221077,,,,,,,,,,,,,,,,,,,,,,,,,,,,,,,,,16,1.8476,1,0,12,12,30,1,4,×,4,4 × 4,neutral,tie,2,1,16,,,,,,,,
,,,,,,,,,,,,,,,762,2022-01-20_23h33.31.878,multiplicationStroop,2021.2.3,Win32,71.59221077,,,,,,,,,,,,,,,,,,,,,,,,,,,,,,,,,81,1.4119,1,0,13,13,35,1,9,×,9,9 × 9,neutral,tie,2,1,81,,,,,,,,
,,,,,,,,,,,,,,,762,2022-01-20_23h33.31.878,multiplicationStroop,2021.2.3,Win32,71.59221077,,,,,,,,,,,,,,,,,,,,,,,,,,,,,,,,,14,1.3624,1,0,14,14,18,1,7,×,2,7 × 2,incongruent,largerFirst,1,2,14,,,,,,,,
,,,,,,,,,,,,,,,762,2022-01-20_23h33.31.878,multiplicationStroop,2021.2.3,Win32,71.59221077,,,,,,,,,,,,,,,,,,,,,,,,,,,,,,,,,20,1.599,1,0,15,15,13,1,4,×,5,4 × 5,incongruent,smallerFirst,2,1,20,,,,,,,,
,,,,,,,,,,,,,,,762,2022-01-20_23h33.31.878,multiplicationStroop,2021.2.3,Win32,71.59221077,,,,,,,,,,,,,,,,,,,,,,,,,,,,,,,,,63,2.3041,1,0,16,16,17,1,9,×,7,9 × 7,incongruent,largerFirst,1,2,63,,,,,,,,
,,,,,,,,,,,,,,,762,2022-01-20_23h33.31.878,multiplicationStroop,2021.2.3,Win32,71.59221077,,,,,,,,,,,,,,,,,,,,,,,,,,,,,,,,,40,1.6259,1,0,17,17,27,1,8,×,5,8 × 5,incongruent,largerFirst,1,2,40,,,,,,,,
,,,,,,,,,,,,,,,762,2022-01-20_23h33.31.878,multiplicationStroop,2021.2.3,Win32,71.59221077,,,,,,,,,,,,,,,,,,,,,,,,,,,,,,,,,32,1.4431,1,0,18,18,21,1,8,×,4,8 × 4,incongruent,largerFirst,1,2,32,,,,,,,,
,,,,,,,,,,,,,,,762,2022-01-20_23h33.31.878,multiplicationStroop,2021.2.3,Win32,71.59221077,,,,,,,,,,,,,,,,,,,,,,,,,,,,,,,,,6,1.4907,1,0,19,19,25,1,3,×,2,3 × 2,incongruent,largerFirst,1,2,6,,,,,,,,
,,,,,,,,,,,,,,,762,2022-01-20_23h33.31.878,multiplicationStroop,2021.2.3,Win32,71.59221077,,,,,,,,,,,,,,,,,,,,,,,,,,,,,,,,,15,1.3576,1,0,20,20,24,1,5,×,3,5 × 3,incongruent,largerFirst,1,2,15,,,,,,,,
,,,,,,,,,,,,,,,762,2022-01-20_23h33.31.878,multiplicationStroop,2021.2.3,Win32,71.59221077,,,,,,,,,,,,,,,,,,,,,,,,,,,,,,,,,27,1.976,1,0,21,21,4,1,3,×,9,3 × 9,incongruent,smallerFirst,2,1,27,,,,,,,,
,,,,,,,,,,,,,,,762,2022-01-20_23h33.31.878,multiplicationStroop,2021.2.3,Win32,71.59221077,,,,,,,,,,,,,,,,,,,,,,,,,,,,,,,,,25,1.493,1,0,22,22,31,1,5,×,5,5 × 5,neutral,tie,2,1,25,,,,,,,,
,,,,,,,,,,,,,,,762,2022-01-20_23h33.31.878,multiplicationStroop,2021.2.3,Win32,71.59221077,,,,,,,,,,,,,,,,,,,,,,,,,,,,,,,,,54,2.1046,1,0,23,23,20,1,9,×,6,9 × 6,incongruent,largerFirst,1,2,54,,,,,,,,
,,,,,,,,,,,,,,,762,2022-01-20_23h33.31.878,multiplicationStroop,2021.2.3,Win32,71.59221077,,,,,,,,,,,,,,,,,,,,,,,,,,,,,,,,,24,2.0093,1,0,24,24,23,1,8,×,3,8 × 3,incongruent,largerFirst,1,2,24,,,,,,,,
,,,,,,,,,,,,,,,762,2022-01-20_23h33.31.878,multiplicationStroop,2021.2.3,Win32,71.59221077,,,,,,,,,,,,,,,,,,,,,,,,,,,,,,,,,36,1.7472,1,0,25,25,32,1,6,×,6,6 × 6,neutral,tie,2,1,36,,,,,,,,
,,,,,,,,,,,,,,,762,2022-01-20_23h33.31.878,multiplicationStroop,2021.2.3,Win32,71.59221077,,,,,,,,,,,,,,,,,,,,,,,,,,,,,,,,,30,1.6773,1,0,26,26,11,1,5,×,6,5 × 6,incongruent,smallerFirst,2,1,30,,,,,,,,
,,,,,,,,,,,,,,,762,2022-01-20_23h33.31.878,multiplicationStroop,2021.2.3,Win32,71.59221077,,,,,,,,,,,,,,,,,,,,,,,,,,,,,,,,,48,1.6975,1,0,27,27,15,1,8,×,6,8 × 6,incongruent,largerFirst,1,2,48,,,,,,,,
,,,,,,,,,,,,,,,762,2022-01-20_23h33.31.878,multiplicationStroop,2021.2.3,Win32,71.59221077,,,,,,,,,,,,,,,,,,,,,,,,,,,,,,,,,4,1.2568,1,0,28,28,28,1,2,×,2,2 × 2,neutral,tie,2,1,4,,,,,,,,
,,,,,,,,,,,,,,,762,2022-01-20_23h33.31.878,multiplicationStroop,2021.2.3,Win32,71.59221077,,,,,,,,,,,,,,,,,,,,,,,,,,,,,,,,,8,1.5668,1,0,29,29,10,1,2,×,4,2 × 4,incongruent,smallerFirst,2,1,8,,,,,,,,
,,,,,,,,,,,,,,,762,2022-01-20_23h33.31.878,multiplicationStroop,2021.2.3,Win32,71.59221077,,,,,,,,,,,,,,,,,,,,,,,,,,,,,,,,,42,1.7765,1,0,30,30,3,1,6,×,7,6 × 7,incongruent,smallerFirst,2,1,42,,,,,,,,
,,,,,,,,,,,,,,,762,2022-01-20_23h33.31.878,multiplicationStroop,2021.2.3,Win32,71.59221077,,,,,,,,,,,,,,,,,,,,,,,,,,,,,,,,,18,1.7664,1,0,31,31,22,1,6,×,3,6 × 3,incongruent,largerFirst,1,2,18,,,,,,,,
,,,,,,,,,,,,,,,762,2022-01-20_23h33.31.878,multiplicationStroop,2021.2.3,Win32,71.59221077,,,,,,,,,,,,,,,,,,,,,,,,,,,,,,,,,56,1.9094,1,0,32,32,0,1,7,×,8,7 × 8,incongruent,smallerFirst,2,1,56,,,,,,,,
,,,,,,,,,,,,,,,762,2022-01-20_23h33.31.878,multiplicationStroop,2021.2.3,Win32,71.59221077,,,,,,,,,,,,,,,,,,,,,,,,,,,,,,,,,9,1.4286,1,0,33,33,29,1,3,×,3,3 × 3,neutral,tie,2,1,9,,,,,,,,
,,,,,,,,,,,,,,,762,2022-01-20_23h33.31.878,multiplicationStroop,2021.2.3,Win32,71.59221077,,,,,,,,,,,,,,,,,,,,,,,,,,,,,,,,,28,2.0602,1,0,34,34,2,1,4,×,7,4 × 7,incongruent,smallerFirst,2,1,28,,,,,,,,
,,,,,,,,,,,,,,,762,2022-01-20_23h33.31.878,multiplicationStroop,2021.2.3,Win32,71.59221077,,,,,,,,,,,,,,,,,,,,,,,,,,,,,,,,,21,1.4776,1,0,35,35,12,1,3,×,7,3 × 7,incongruent,smallerFirst,2,1,21,,,,,,,,
,,,,,,,,,,,,,,,762,2022-01-20_23h33.31.878,multiplicationStroop,2021.2.3,Win32,71.59221077,,,,,,,,,,,,,,,,,,,,,,,,,,,,,,,,,,,,,,,,,,,,,,,,,,0,2,2,4,1,stimulusFile/mult_blk5_INcongruent.xlsx,,
,,,,,,,,,,,,,,,762,2022-01-20_23h33.31.878,multiplicationStroop,2021.2.3,Win32,71.59221077,,,,,,,,,,,,,,,,,,,,,,,,,,,,,,,space,1.0238,10,1.5969,1,0,0,0,10,1,2,×,5,2 × 5,congruent,smallerFirst,1,2,10,,,,,,,,
,,,,,,,,,,,,,,,762,2022-01-20_23h33.31.878,multiplicationStroop,2021.2.3,Win32,71.59221077,,,,,,,,,,,,,,,,,,,,,,,,,,,,,,,,,25,1.9083,1,0,1,1,31,1,5,×,5,5 × 5,neutral,tie,1,2,25,,,,,,,,
,,,,,,,,,,,,,,,762,2022-01-20_23h33.31.878,multiplicationStroop,2021.2.3,Win32,71.59221077,,,,,,,,,,,,,,,,,,,,,,,,,,,,,,,,,56,2.0758,1,0,2,2,22,1,8,×,7,8 × 7,congruent,largerFirst,2,1,56,,,,,,,,
,,,,,,,,,,,,,,,762,2022-01-20_23h33.31.878,multiplicationStroop,2021.2.3,Win32,71.59221077,,,,,,,,,,,,,,,,,,,,,,,,,,,,,,,,,12,1.5369,1,0,3,3,5,1,2,×,6,2 × 6,congruent,smallerFirst,1,2,12,,,,,,,,
,,,,,,,,,,,,,,,762,2022-01-20_23h33.31.878,multiplicationStroop,2021.2.3,Win32,71.59221077,,,,,,,,,,,,,,,,,,,,,,,,,,,,,,,,,40,1.5419,1,0,4,4,20,1,8,×,5,8 × 5,congruent,largerFirst,2,1,40,,,,,,,,
,,,,,,,,,,,,,,,762,2022-01-20_23h33.31.878,multiplicationStroop,2021.2.3,Win32,71.59221077,,,,,,,,,,,,,,,,,,,,,,,,,,,,,,,,,15,1.4569,1,0,5,5,18,1,5,×,3,5 × 3,congruent,largerFirst,2,1,15,,,,,,,,
,,,,,,,,,,,,,,,762,2022-01-20_23h33.31.878,multiplicationStroop,2021.2.3,Win32,71.59221077,,,,,,,,,,,,,,,,,,,,,,,,,,,,,,,,,18,2.0611,1,0,6,6,25,1,6,×,3,6 × 3,congruent,largerFirst,2,1,18,,,,,,,,
,,,,,,,,,,,,,,,762,2022-01-20_23h33.31.878,multiplicationStroop,2021.2.3,Win32,71.59221077,,,,,,,,,,,,,,,,,,,,,,,,,,,,,,,,,8,1.5781,1,0,7,7,23,1,4,×,2,4 × 2,congruent,largerFirst,2,1,8,,,,,,,,
,,,,,,,,,,,,,,,762,2022-01-20_23h33.31.878,multiplicationStroop,2021.2.3,Win32,71.59221077,,,,,,,,,,,,,,,,,,,,,,,,,,,,,,,,,18,2.0336,1,0,8,8,8,1,2,×,9,2 × 9,congruent,smallerFirst,1,2,18,,,,,,,,
,,,,,,,,,,,,,,,762,2022-01-20_23h33.31.878,multiplicationStroop,2021.2.3,Win32,71.59221077,,,,,,,,,,,,,,,,,,,,,,,,,,,,,,,,,28,2.5196,1,0,9,9,13,1,4,×,7,4 × 7,congruent,smallerFirst,1,2,28,,,,,,,,
,,,,,,,,,,,,,,,762,2022-01-20_23h33.31.878,multiplicationStroop,2021.2.3,Win32,71.59221077,,,,,,,,,,,,,,,,,,,,,,,,,,,,,,,,,16,1.6029,1,0,10,10,19,1,8,×,2,8 × 2,congruent,largerFirst,2,1,16,,,,,,,,
,,,,,,,,,,,,,,,762,2022-01-20_23h33.31.878,multiplicationStroop,2021.2.3,Win32,71.59221077,,,,,,,,,,,,,,,,,,,,,,,,,,,,,,,,,6,1.4767,1,0,11,11,27,1,3,×,2,3 × 2,congruent,largerFirst,2,1,6,,,,,,,,
,,,,,,,,,,,,,,,762,2022-01-20_23h33.31.878,multiplicationStroop,2021.2.3,Win32,71.59221077,,,,,,,,,,,,,,,,,,,,,,,,,,,,,,,,,16,1.5187,1,0,12,12,30,1,4,×,4,4 × 4,neutral,tie,1,2,16,,,,,,,,
,,,,,,,,,,,,,,,762,2022-01-20_23h33.31.878,multiplicationStroop,2021.2.3,Win32,71.59221077,,,,,,,,,,,,,,,,,,,,,,,,,,,,,,,,,21,1.5692,1,0,13,13,2,1,3,×,7,3 × 7,congruent,smallerFirst,1,2,21,,,,,,,,
,,,,,,,,,,,,,,,762,2022-01-20_23h33.31.878,multiplicationStroop,2021.2.3,Win32,71.59221077,,,,,,,,,,,,,,,,,,,,,,,,,,,,,,,,,36,2.5209,1,0,14,14,32,1,6,×,6,6 × 6,neutral,tie,1,2,36,,,,,,,,
,,,,,,,,,,,,,,,762,2022-01-20_23h33.31.878,multiplicationStroop,2021.2.3,Win32,71.59221077,,,,,,,,,,,,,,,,,,,,,,,,,,,,,,,,,81,1.5738,1,0,15,15,35,1,9,×,9,9 × 9,neutral,tie,1,2,81,,,,,,,,
,,,,,,,,,,,,,,,762,2022-01-20_23h33.31.878,multiplicationStroop,2021.2.3,Win32,71.59221077,,,,,,,,,,,,,,,,,,,,,,,,,,,,,,,,,14,1.4289,1,0,16,16,0,1,2,×,7,2 × 7,congruent,smallerFirst,1,2,14,,,,,,,,
,,,,,,,,,,,,,,,762,2022-01-20_23h33.31.878,multiplicationStroop,2021.2.3,Win32,71.59221077,,,,,,,,,,,,,,,,,,,,,,,,,,,,,,,,,49,2.1084,1,0,17,17,33,1,7,×,7,7 × 7,neutral,tie,1,2,49,,,,,,,,
,,,,,,,,,,,,,,,762,2022-01-20_23h33.31.878,multiplicationStroop,2021.2.3,Win32,71.59221077,,,,,,,,,,,,,,,,,,,,,,,,,,,,,,,,,72,2.0681,1,0,18,18,3,1,8,×,9,8 × 9,congruent,smallerFirst,1,2,72,,,,,,,,
,,,,,,,,,,,,,,,762,2022-01-20_23h33.31.878,multiplicationStroop,2021.2.3,Win32,71.59221077,,,,,,,,,,,,,,,,,,,,,,,,,,,,,,,,,24,1.656,1,0,19,19,24,1,8,×,3,8 × 3,congruent,largerFirst,2,1,24,,,,,,,,
,,,,,,,,,,,,,,,762,2022-01-20_23h33.31.878,multiplicationStroop,2021.2.3,Win32,71.59221077,,,,,,,,,,,,,,,,,,,,,,,,,,,,,,,,,12,1.7011,1,0,20,20,16,1,4,×,3,4 × 3,congruent,largerFirst,2,1,12,,,,,,,,
,,,,,,,,,,,,,,,762,2022-01-20_23h33.31.878,multiplicationStroop,2021.2.3,Win32,71.59221077,,,,,,,,,,,,,,,,,,,,,,,,,,,,,,,,,42,2.6143,1,0,21,21,17,1,7,×,6,7 × 6,congruent,largerFirst,2,1,42,,,,,,,,
,,,,,,,,,,,,,,,762,2022-01-20_23h33.31.878,multiplicationStroop,2021.2.3,Win32,71.59221077,,,,,,,,,,,,,,,,,,,,,,,,,,,,,,,,,35,2.1241,1,0,22,22,15,1,7,×,5,7 × 5,congruent,largerFirst,2,1,35,,,,,,,,
,,,,,,,,,,,,,,,762,2022-01-20_23h33.31.878,multiplicationStroop,2021.2.3,Win32,71.59221077,,,,,,,,,,,,,,,,,,,,,,,,,,,,,,,,,64,1.859,1,0,23,23,34,1,8,×,8,8 × 8,neutral,tie,1,2,64,,,,,,,,
,,,,,,,,,,,,,,,762,2022-01-20_23h33.31.878,multiplicationStroop,2021.2.3,Win32,71.59221077,,,,,,,,,,,,,,,,,,,,,,,,,,,,,,,,,27,1.8961,1,0,24,24,12,1,3,×,9,3 × 9,congruent,smallerFirst,1,2,27,,,,,,,,
,,,,,,,,,,,,,,,762,2022-01-20_23h33.31.878,multiplicationStroop,2021.2.3,Win32,71.59221077,,,,,,,,,,,,,,,,,,,,,,,,,,,,,,,,,54,1.7412,1,0,25,25,26,1,9,×,6,9 × 6,congruent,largerFirst,2,1,54,,,,,,,,
,,,,,,,,,,,,,,,762,2022-01-20_23h33.31.878,multiplicationStroop,2021.2.3,Win32,71.59221077,,,,,,,,,,,,,,,,,,,,,,,,,,,,,,,,,63,2.0028,1,0,26,26,7,1,7,×,9,7 × 9,congruent,smallerFirst,1,2,63,,,,,,,,
,,,,,,,,,,,,,,,762,2022-01-20_23h33.31.878,multiplicationStroop,2021.2.3,Win32,71.59221077,,,,,,,,,,,,,,,,,,,,,,,,,,,,,,,,,30,2.1436,1,0,27,27,1,1,5,×,6,5 × 6,congruent,smallerFirst,1,2,30,,,,,,,,
,,,,,,,,,,,,,,,762,2022-01-20_23h33.31.878,multiplicationStroop,2021.2.3,Win32,71.59221077,,,,,,,,,,,,,,,,,,,,,,,,,,,,,,,,,36,2.0149,1,0,28,28,14,1,9,×,4,9 × 4,congruent,largerFirst,2,1,36,,,,,,,,
,,,,,,,,,,,,,,,762,2022-01-20_23h33.31.878,multiplicationStroop,2021.2.3,Win32,71.59221077,,,,,,,,,,,,,,,,,,,,,,,,,,,,,,,,,20,1.6155,1,0,29,29,21,1,5,×,4,5 × 4,congruent,largerFirst,2,1,20,,,,,,,,
,,,,,,,,,,,,,,,762,2022-01-20_23h33.31.878,multiplicationStroop,2021.2.3,Win32,71.59221077,,,,,,,,,,,,,,,,,,,,,,,,,,,,,,,,,9,1.8391,1,0,30,30,29,1,3,×,3,3 × 3,neutral,tie,1,2,9,,,,,,,,
,,,,,,,,,,,,,,,762,2022-01-20_23h33.31.878,multiplicationStroop,2021.2.3,Win32,71.59221077,,,,,,,,,,,,,,,,,,,,,,,,,,,,,,,,,4,1.1497,1,0,31,31,28,1,2,×,2,2 × 2,neutral,tie,1,2,4,,,,,,,,
,,,,,,,,,,,,,,,762,2022-01-20_23h33.31.878,multiplicationStroop,2021.2.3,Win32,71.59221077,,,,,,,,,,,,,,,,,,,,,,,,,,,,,,,,,24,1.6664,1,0,32,32,11,1,4,×,6,4 × 6,congruent,smallerFirst,1,2,24,,,,,,,,
,,,,,,,,,,,,,,,762,2022-01-20_23h33.31.878,multiplicationStroop,2021.2.3,Win32,71.59221077,,,,,,,,,,,,,,,,,,,,,,,,,,,,,,,,,48,2.2662,1,0,33,33,4,1,6,×,8,6 × 8,congruent,smallerFirst,1,2,48,,,,,,,,
,,,,,,,,,,,,,,,762,2022-01-20_23h33.31.878,multiplicationStroop,2021.2.3,Win32,71.59221077,,,,,,,,,,,,,,,,,,,,,,,,,,,,,,,,,40,1.8602,0,0,34,34,9,1,5,×,9,5 × 9,congruent,smallerFirst,1,2,45,,,,,,,,
,,,,,,,,,,,,,,,762,2022-01-20_23h33.31.878,multiplicationStroop,2021.2.3,Win32,71.59221077,,,,,,,,,,,,,,,,,,,,,,,,,,,,,,,,,32,2.3583,1,0,35,35,6,1,4,×,8,4 × 8,congruent,smallerFirst,1,2,32,,,,,,,,
,,,,,,,,,,,,,,,762,2022-01-20_23h33.31.878,multiplicationStroop,2021.2.3,Win32,71.59221077,,,,,,,,,,,,,,,,,,,,,,,,,,,,,,,,,,,,,,,,,,,,,,,,,,0,3,3,3,1,stimulusFile/mult_blk4_congruent.xlsx,,
,,,,,,,,,,,,,,,762,2022-01-20_23h33.31.878,multiplicationStroop,2021.2.3,Win32,71.59221077,,,,,,,,,,,,,,,,,,,,,,,,,,,,,,,space,0.9669,30,1.5832,1,0,0,0,25,1,6,×,5,6 × 5,incongruent,largerFirst,1,2,30,,,,,,,,
,,,,,,,,,,,,,,,762,2022-01-20_23h33.31.878,multiplicationStroop,2021.2.3,Win32,71.59221077,,,,,,,,,,,,,,,,,,,,,,,,,,,,,,,,,6,1.3725,1,0,1,1,11,1,2,×,3,2 × 3,incongruent,smallerFirst,2,1,6,,,,,,,,
,,,,,,,,,,,,,,,762,2022-01-20_23h33.31.878,multiplicationStroop,2021.2.3,Win32,71.59221077,,,,,,,,,,,,,,,,,,,,,,,,,,,,,,,,,4,1.1693,1,0,2,2,28,1,2,×,2,2 × 2,incongruent,tie,1,2,4,,,,,,,,
,,,,,,,,,,,,,,,762,2022-01-20_23h33.31.878,multiplicationStroop,2021.2.3,Win32,71.59221077,,,,,,,,,,,,,,,,,,,,,,,,,,,,,,,,,72,1.7061,1,0,3,3,0,1,8,×,9,8 × 9,incongruent,smallerFirst,2,1,72,,,,,,,,
,,,,,,,,,,,,,,,762,2022-01-20_23h33.31.878,multiplicationStroop,2021.2.3,Win32,71.59221077,,,,,,,,,,,,,,,,,,,,,,,,,,,,,,,,,36,1.7288,1,0,4,4,15,1,9,×,4,9 × 4,incongruent,largerFirst,1,2,36,,,,,,,,
,,,,,,,,,,,,,,,762,2022-01-20_23h33.31.878,multiplicationStroop,2021.2.3,Win32,71.59221077,,,,,,,,,,,,,,,,,,,,,,,,,,,,,,,,,36,2.0718,1,0,5,5,32,1,6,×,6,6 × 6,incongruent,tie,1,2,36,,,,,,,,
,,,,,,,,,,,,,,,762,2022-01-20_23h33.31.878,multiplicationStroop,2021.2.3,Win32,71.59221077,,,,,,,,,,,,,,,,,,,,,,,,,,,,,,,,,28,1.7726,1,0,6,6,16,1,7,×,4,7 × 4,incongruent,largerFirst,1,2,28,,,,,,,,
,,,,,,,,,,,,,,,762,2022-01-20_23h33.31.878,multiplicationStroop,2021.2.3,Win32,71.59221077,,,,,,,,,,,,,,,,,,,,,,,,,,,,,,,,,49,1.6283,1,0,7,7,33,1,7,×,7,7 × 7,incongruent,tie,1,2,49,,,,,,,,
,,,,,,,,,,,,,,,762,2022-01-20_23h33.31.878,multiplicationStroop,2021.2.3,Win32,71.59221077,,,,,,,,,,,,,,,,,,,,,,,,,,,,,,,,,64,1.679,1,0,8,8,34,1,8,×,8,8 × 8,incongruent,tie,1,2,64,,,,,,,,
,,,,,,,,,,,,,,,762,2022-01-20_23h33.31.878,multiplicationStroop,2021.2.3,Win32,71.59221077,,,,,,,,,,,,,,,,,,,,,,,,,,,,,,,,,8,1.4788,1,0,9,9,24,1,4,×,2,4 × 2,incongruent,largerFirst,1,2,8,,,,,,,,
,,,,,,,,,,,,,,,762,2022-01-20_23h33.31.878,multiplicationStroop,2021.2.3,Win32,71.59221077,,,,,,,,,,,,,,,,,,,,,,,,,,,,,,,,,54,1.9814,1,0,10,10,6,1,6,×,9,6 × 9,incongruent,smallerFirst,2,1,54,,,,,,,,
,,,,,,,,,,,,,,,762,2022-01-20_23h33.31.878,multiplicationStroop,2021.2.3,Win32,71.59221077,,,,,,,,,,,,,,,,,,,,,,,,,,,,,,,,,21,1.4089,1,0,11,11,26,1,7,×,3,7 × 3,incongruent,largerFirst,1,2,21,,,,,,,,
,,,,,,,,,,,,,,,762,2022-01-20_23h33.31.878,multiplicationStroop,2021.2.3,Win32,71.59221077,,,,,,,,,,,,,,,,,,,,,,,,,,,,,,,,,72,1.9513,0,0,12,12,14,1,8,×,7,8 × 7,incongruent,largerFirst,1,2,56,,,,,,,,
,,,,,,,,,,,,,,,762,2022-01-20_23h33.31.878,multiplicationStroop,2021.2.3,Win32,71.59221077,,,,,,,,,,,,,,,,,,,,,,,,,,,,,,,,,45,1.8236,1,0,13,13,22,1,9,×,5,9 × 5,incongruent,largerFirst,1,2,45,,,,,,,,
,,,,,,,,,,,,,,,762,2022-01-20_23h33.31.878,multiplicationStroop,2021.2.3,Win32,71.59221077,,,,,,,,,,,,,,,,,,,,,,,,,,,,,,,,,24,1.5968,1,0,14,14,20,1,6,×,4,6 × 4,incongruent,largerFirst,1,2,24,,,,,,,,
,,,,,,,,,,,,,,,762,2022-01-20_23h33.31.878,multiplicationStroop,2021.2.3,Win32,71.59221077,,,,,,,,,,,,,,,,,,,,,,,,,,,,,,,,,18,2.01,1,0,15,15,2,1,2,×,9,2 × 9,incongruent,smallerFirst,2,1,18,,,,,,,,
,,,,,,,,,,,,,,,762,2022-01-20_23h33.31.878,multiplicationStroop,2021.2.3,Win32,71.59221077,,,,,,,,,,,,,,,,,,,,,,,,,,,,,,,,,15,2.2205,1,0,16,16,10,1,3,×,5,3 × 5,incongruent,smallerFirst,2,1,15,,,,,,,,
,,,,,,,,,,,,,,,762,2022-01-20_23h33.31.878,multiplicationStroop,2021.2.3,Win32,71.59221077,,,,,,,,,,,,,,,,,,,,,,,,,,,,,,,,,12,1.5611,1,0,17,17,19,1,6,×,2,6 × 2,incongruent,largerFirst,1,2,12,,,,,,,,
,,,,,,,,,,,,,,,762,2022-01-20_23h33.31.878,multiplicationStroop,2021.2.3,Win32,71.59221077,,,,,,,,,,,,,,,,,,,,,,,,,,,,,,,,,81,1.3593,1,0,18,18,35,1,9,×,9,9 × 9,incongruent,tie,1,2,81,,,,,,,,
,,,,,,,,,,,,,,,762,2022-01-20_23h33.31.878,multiplicationStroop,2021.2.3,Win32,71.59221077,,,,,,,,,,,,,,,,,,,,,,,,,,,,,,,,,48,2.7604,1,0,19,19,1,1,6,×,8,6 × 8,incongruent,smallerFirst,2,1,48,,,,,,,,
,,,,,,,,,,,,,,,762,2022-01-20_23h33.31.878,multiplicationStroop,2021.2.3,Win32,71.59221077,,,,,,,,,,,,,,,,,,,,,,,,,,,,,,,,,9,1.9314,1,0,20,20,29,1,3,×,3,3 × 3,incongruent,tie,1,2,9,,,,,,,,
,,,,,,,,,,,,,,,762,2022-01-20_23h33.31.878,multiplicationStroop,2021.2.3,Win32,71.59221077,,,,,,,,,,,,,,,,,,,,,,,,,,,,,,,,,25,1.5389,1,0,21,21,31,1,5,×,5,5 × 5,incongruent,tie,1,2,25,,,,,,,,
,,,,,,,,,,,,,,,762,2022-01-20_23h33.31.878,multiplicationStroop,2021.2.3,Win32,71.59221077,,,,,,,,,,,,,,,,,,,,,,,,,,,,,,,,,16,1.6942,1,0,22,22,30,1,4,×,4,4 × 4,incongruent,tie,1,2,16,,,,,,,,
,,,,,,,,,,,,,,,762,2022-01-20_23h33.31.878,multiplicationStroop,2021.2.3,Win32,71.59221077,,,,,,,,,,,,,,,,,,,,,,,,,,,,,,,,,32,1.9272,1,0,23,23,7,1,4,×,8,4 × 8,incongruent,smallerFirst,2,1,32,,,,,,,,
,,,,,,,,,,,,,,,762,2022-01-20_23h33.31.878,multiplicationStroop,2021.2.3,Win32,71.59221077,,,,,,,,,,,,,,,,,,,,,,,,,,,,,,,,,20,1.5572,1,0,24,24,27,1,5,×,4,5 × 4,incongruent,largerFirst,1,2,20,,,,,,,,
,,,,,,,,,,,,,,,762,2022-01-20_23h33.31.878,multiplicationStroop,2021.2.3,Win32,71.59221077,,,,,,,,,,,,,,,,,,,,,,,,,,,,,,,,,10,1.6201,1,0,25,25,21,1,5,×,2,5 × 2,incongruent,largerFirst,1,2,10,,,,,,,,
,,,,,,,,,,,,,,,762,2022-01-20_23h33.31.878,multiplicationStroop,2021.2.3,Win32,71.59221077,,,,,,,,,,,,,,,,,,,,,,,,,,,,,,,,,12,1.976,1,0,26,26,5,1,3,×,4,3 × 4,incongruent,smallerFirst,2,1,12,,,,,,,,
,,,,,,,,,,,,,,,762,2022-01-20_23h33.31.878,multiplicationStroop,2021.2.3,Win32,71.59221077,,,,,,,,,,,,,,,,,,,,,,,,,,,,,,,,,42,2.1037,1,0,27,27,17,1,7,×,6,7 × 6,incongruent,largerFirst,1,2,42,,,,,,,,
,,,,,,,,,,,,,,,762,2022-01-20_23h33.31.878,multiplicationStroop,2021.2.3,Win32,71.59221077,,,,,,,,,,,,,,,,,,,,,,,,,,,,,,,,,18,1.8818,1,0,28,28,8,1,3,×,6,3 × 6,incongruent,smallerFirst,2,1,18,,,,,,,,
,,,,,,,,,,,,,,,762,2022-01-20_23h33.31.878,multiplicationStroop,2021.2.3,Win32,71.59221077,,,,,,,,,,,,,,,,,,,,,,,,,,,,,,,,,27,1.762,1,0,29,29,18,1,9,×,3,9 × 3,incongruent,largerFirst,1,2,27,,,,,,,,
,,,,,,,,,,,,,,,762,2022-01-20_23h33.31.878,multiplicationStroop,2021.2.3,Win32,71.59221077,,,,,,,,,,,,,,,,,,,,,,,,,,,,,,,,,14,1.5425,1,0,30,30,4,1,2,×,7,2 × 7,incongruent,smallerFirst,2,1,14,,,,,,,,
,,,,,,,,,,,,,,,762,2022-01-20_23h33.31.878,multiplicationStroop,2021.2.3,Win32,71.59221077,,,,,,,,,,,,,,,,,,,,,,,,,,,,,,,,,24,1.8905,1,0,31,31,9,1,3,×,8,3 × 8,incongruent,smallerFirst,2,1,24,,,,,,,,
,,,,,,,,,,,,,,,762,2022-01-20_23h33.31.878,multiplicationStroop,2021.2.3,Win32,71.59221077,,,,,,,,,,,,,,,,,,,,,,,,,,,,,,,,,16,1.5354,1,0,32,32,23,1,8,×,2,8 × 2,incongruent,largerFirst,1,2,16,,,,,,,,
,,,,,,,,,,,,,,,762,2022-01-20_23h33.31.878,multiplicationStroop,2021.2.3,Win32,71.59221077,,,,,,,,,,,,,,,,,,,,,,,,,,,,,,,,,35,1.751,1,0,33,33,12,1,5,×,7,5 × 7,incongruent,smallerFirst,2,1,35,,,,,,,,
,,,,,,,,,,,,,,,762,2022-01-20_23h33.31.878,multiplicationStroop,2021.2.3,Win32,71.59221077,,,,,,,,,,,,,,,,,,,,,,,,,,,,,,,,,63,2.0144,1,0,34,34,3,1,7,×,9,7 × 9,incongruent,smallerFirst,2,1,63,,,,,,,,
,,,,,,,,,,,,,,,762,2022-01-20_23h33.31.878,multiplicationStroop,2021.2.3,Win32,71.59221077,,,,,,,,,,,,,,,,,,,,,,,,,,,,,,,,,40,2.701,1,0,35,35,13,1,5,×,8,5 × 8,incongruent,smallerFirst,2,1,40,,,,,,,,
,,,,,,,,,,,,,,,762,2022-01-20_23h33.31.878,multiplicationStroop,2021.2.3,Win32,71.59221077,,,,,,,,,,,,,,,,,,,,,,,,,,,,,,,,,,,,,,,,,,,,,,,,,,0,4,4,5,1,stimulusFile/mult_blk6_INcongruent.xlsx,,
,,,,,,,,,,,,,,,762,2022-01-20_23h33.31.878,multiplicationStroop,2021.2.3,Win32,71.59221077,,,,,,,,,,,,,,,,,,,,,,,,,,,,,,,space,0.972,42,2.0109,1,0,0,0,20,1,7,×,6,7 × 6,neutral,largerFirst,1.5,1.5,42,,,,,,,,
,,,,,,,,,,,,,,,762,2022-01-20_23h33.31.878,multiplicationStroop,2021.2.3,Win32,71.59221077,,,,,,,,,,,,,,,,,,,,,,,,,,,,,,,,,20,3.1172,1,0,1,1,6,1,4,×,5,4 × 5,neutral,smallerFirst,1.5,1.5,20,,,,,,,,
,,,,,,,,,,,,,,,762,2022-01-20_23h33.31.878,multiplicationStroop,2021.2.3,Win32,71.59221077,,,,,,,,,,,,,,,,,,,,,,,,,,,,,,,,,21,1.339,1,0,2,2,22,1,7,×,3,7 × 3,neutral,largerFirst,1.5,1.5,21,,,,,,,,
,,,,,,,,,,,,,,,762,2022-01-20_23h33.31.878,multiplicationStroop,2021.2.3,Win32,71.59221077,,,,,,,,,,,,,,,,,,,,,,,,,,,,,,,,,81,1.4023,1,0,3,3,35,1,9,×,9,9 × 9,neutral,tie,1.5,1.5,81,,,,,,,,
,,,,,,,,,,,,,,,762,2022-01-20_23h33.31.878,multiplicationStroop,2021.2.3,Win32,71.59221077,,,,,,,,,,,,,,,,,,,,,,,,,,,,,,,,,16,1.8113,1,0,4,4,27,1,8,×,2,8 × 2,neutral,largerFirst,1.5,1.5,16,,,,,,,,
,,,,,,,,,,,,,,,762,2022-01-20_23h33.31.878,multiplicationStroop,2021.2.3,Win32,71.59221077,,,,,,,,,,,,,,,,,,,,,,,,,,,,,,,,,8,1.6499,1,0,5,5,17,1,4,×,2,4 × 2,neutral,largerFirst,1.5,1.5,8,,,,,,,,
,,,,,,,,,,,,,,,762,2022-01-20_23h33.31.878,multiplicationStroop,2021.2.3,Win32,71.59221077,,,,,,,,,,,,,,,,,,,,,,,,,,,,,,,,,12,1.6596,1,0,6,6,11,1,2,×,6,2 × 6,neutral,smallerFirst,1.5,1.5,12,,,,,,,,
,,,,,,,,,,,,,,,762,2022-01-20_23h33.31.878,multiplicationStroop,2021.2.3,Win32,71.59221077,,,,,,,,,,,,,,,,,,,,,,,,,,,,,,,,,64,2.2265,1,0,7,7,34,1,8,×,8,8 × 8,neutral,tie,1.5,1.5,64,,,,,,,,
,,,,,,,,,,,,,,,762,2022-01-20_23h33.31.878,multiplicationStroop,2021.2.3,Win32,71.59221077,,,,,,,,,,,,,,,,,,,,,,,,,,,,,,,,,54,1.7265,1,0,8,8,21,1,9,×,6,9 × 6,neutral,largerFirst,1.5,1.5,54,,,,,,,,
,,,,,,,,,,,,,,,762,2022-01-20_23h33.31.878,multiplicationStroop,2021.2.3,Win32,71.59221077,,,,,,,,,,,,,,,,,,,,,,,,,,,,,,,,,24,1.5962,1,0,9,9,8,1,3,×,8,3 × 8,neutral,smallerFirst,1.5,1.5,24,,,,,,,,
,,,,,,,,,,,,,,,762,2022-01-20_23h33.31.878,multiplicationStroop,2021.2.3,Win32,71.59221077,,,,,,,,,,,,,,,,,,,,,,,,,,,,,,,,,28,2.0418,0,0,10,10,2,1,2,×,7,2 × 7,neutral,smallerFirst,1.5,1.5,14,,,,,,,,
,,,,,,,,,,,,,,,762,2022-01-20_23h33.31.878,multiplicationStroop,2021.2.3,Win32,71.59221077,,,,,,,,,,,,,,,,,,,,,,,,,,,,,,,,,16,1.5855,1,0,11,11,30,1,4,×,4,4 × 4,neutral,tie,1.5,1.5,16,,,,,,,,
,,,,,,,,,,,,,,,762,2022-01-20_23h33.31.878,multiplicationStroop,2021.2.3,Win32,71.59221077,,,,,,,,,,,,,,,,,,,,,,,,,,,,,,,,,63,2.3995,1,0,12,12,26,1,9,×,7,9 × 7,neutral,largerFirst,1.5,1.5,63,,,,,,,,
,,,,,,,,,,,,,,,762,2022-01-20_23h33.31.878,multiplicationStroop,2021.2.3,Win32,71.59221077,,,,,,,,,,,,,,,,,,,,,,,,,,,,,,,,,4,1.0631,1,0,13,13,28,1,2,×,2,2 × 2,neutral,tie,1.5,1.5,4,,,,,,,,
,,,,,,,,,,,,,,,762,2022-01-20_23h33.31.878,multiplicationStroop,2021.2.3,Win32,71.59221077,,,,,,,,,,,,,,,,,,,,,,,,,,,,,,,,,30,2.1926,1,0,14,14,5,1,5,×,6,5 × 6,neutral,smallerFirst,1.5,1.5,30,,,,,,,,
,,,,,,,,,,,,,,,762,2022-01-20_23h33.31.878,multiplicationStroop,2021.2.3,Win32,71.59221077,,,,,,,,,,,,,,,,,,,,,,,,,,,,,,,,,32,2.2428,1,0,15,15,9,1,4,×,8,4 × 8,neutral,smallerFirst,1.5,1.5,32,,,,,,,,
,,,,,,,,,,,,,,,762,2022-01-20_23h33.31.878,multiplicationStroop,2021.2.3,Win32,71.59221077,,,,,,,,,,,,,,,,,,,,,,,,,,,,,,,,,15,1.2864,1,0,16,16,19,1,5,×,3,5 × 3,neutral,largerFirst,1.5,1.5,15,,,,,,,,
,,,,,,,,,,,,,,,762,2022-01-20_23h33.31.878,multiplicationStroop,2021.2.3,Win32,71.59221077,,,,,,,,,,,,,,,,,,,,,,,,,,,,,,,,,72,1.7866,1,0,17,17,25,1,9,×,8,9 × 8,neutral,largerFirst,1.5,1.5,72,,,,,,,,
,,,,,,,,,,,,,,,762,2022-01-20_23h33.31.878,multiplicationStroop,2021.2.3,Win32,71.59221077,,,,,,,,,,,,,,,,,,,,,,,,,,,,,,,,,12,1.7514,1,0,18,18,7,1,3,×,4,3 × 4,neutral,smallerFirst,1.5,1.5,12,,,,,,,,
,,,,,,,,,,,,,,,762,2022-01-20_23h33.31.878,multiplicationStroop,2021.2.3,Win32,71.59221077,,,,,,,,,,,,,,,,,,,,,,,,,,,,,,,,,36,2.1113,1,0,19,19,32,1,6,×,6,6 × 6,neutral,tie,1.5,1.5,36,,,,,,,,
,,,,,,,,,,,,,,,762,2022-01-20_23h33.31.878,multiplicationStroop,2021.2.3,Win32,71.59221077,,,,,,,,,,,,,,,,,,,,,,,,,,,,,,,,,40,1.5141,1,0,20,20,10,1,5,×,8,5 × 8,neutral,smallerFirst,1.5,1.5,40,,,,,,,,
,,,,,,,,,,,,,,,762,2022-01-20_23h33.31.878,multiplicationStroop,2021.2.3,Win32,71.59221077,,,,,,,,,,,,,,,,,,,,,,,,,,,,,,,,,35,1.6841,1,0,21,21,15,1,7,×,5,7 × 5,neutral,largerFirst,1.5,1.5,35,,,,,,,,
,,,,,,,,,,,,,,,762,2022-01-20_23h33.31.878,multiplicationStroop,2021.2.3,Win32,71.59221077,,,,,,,,,,,,,,,,,,,,,,,,,,,,,,,,,25,1.5112,1,0,22,22,31,1,5,×,5,5 × 5,neutral,tie,1.5,1.5,25,,,,,,,,
,,,,,,,,,,,,,,,762,2022-01-20_23h33.31.878,multiplicationStroop,2021.2.3,Win32,71.59221077,,,,,,,,,,,,,,,,,,,,,,,,,,,,,,,,,18,2.0219,1,0,23,23,14,1,6,×,3,6 × 3,neutral,largerFirst,1.5,1.5,18,,,,,,,,
,,,,,,,,,,,,,,,762,2022-01-20_23h33.31.878,multiplicationStroop,2021.2.3,Win32,71.59221077,,,,,,,,,,,,,,,,,,,,,,,,,,,,,,,,,28,1.9392,1,0,24,24,3,1,4,×,7,4 × 7,neutral,smallerFirst,1.5,1.5,28,,,,,,,,
,,,,,,,,,,,,,,,762,2022-01-20_23h33.31.878,multiplicationStroop,2021.2.3,Win32,71.59221077,,,,,,,,,,,,,,,,,,,,,,,,,,,,,,,,,56,2.1952,1,0,25,25,23,1,8,×,7,8 × 7,neutral,largerFirst,1.5,1.5,56,,,,,,,,
,,,,,,,,,,,,,,,762,2022-01-20_23h33.31.878,multiplicationStroop,2021.2.3,Win32,71.59221077,,,,,,,,,,,,,,,,,,,,,,,,,,,,,,,,,36,1.8282,1,0,26,26,13,1,4,×,9,4 × 9,neutral,smallerFirst,1.5,1.5,36,,,,,,,,
,,,,,,,,,,,,,,,762,2022-01-20_23h33.31.878,multiplicationStroop,2021.2.3,Win32,71.59221077,,,,,,,,,,,,,,,,,,,,,,,,,,,,,,,,,18,2.0189,1,0,27,27,4,1,2,×,9,2 × 9,neutral,smallerFirst,1.5,1.5,18,,,,,,,,
,,,,,,,,,,,,,,,762,2022-01-20_23h33.31.878,multiplicationStroop,2021.2.3,Win32,71.59221077,,,,,,,,,,,,,,,,,,,,,,,,,,,,,,,,,48,1.833,1,0,28,28,1,1,6,×,8,6 × 8,neutral,smallerFirst,1.5,1.5,48,,,,,,,,
,,,,,,,,,,,,,,,762,2022-01-20_23h33.31.878,multiplicationStroop,2021.2.3,Win32,71.59221077,,,,,,,,,,,,,,,,,,,,,,,,,,,,,,,,,24,1.6697,1,0,29,29,16,1,6,×,4,6 × 4,neutral,largerFirst,1.5,1.5,24,,,,,,,,
,,,,,,,,,,,,,,,762,2022-01-20_23h33.31.878,multiplicationStroop,2021.2.3,Win32,71.59221077,,,,,,,,,,,,,,,,,,,,,,,,,,,,,,,,,45,1.5199,1,0,30,30,24,1,9,×,5,9 × 5,neutral,largerFirst,1.5,1.5,45,,,,,,,,
,,,,,,,,,,,,,,,762,2022-01-20_23h33.31.878,multiplicationStroop,2021.2.3,Win32,71.59221077,,,,,,,,,,,,,,,,,,,,,,,,,,,,,,,,,49,1.6972,1,0,31,31,33,1,7,×,7,7 × 7,neutral,tie,1.5,1.5,49,,,,,,,,
,,,,,,,,,,,,,,,762,2022-01-20_23h33.31.878,multiplicationStroop,2021.2.3,Win32,71.59221077,,,,,,,,,,,,,,,,,,,,,,,,,,,,,,,,,27,1.8513,1,0,32,32,0,1,3,×,9,3 × 9,neutral,smallerFirst,1.5,1.5,27,,,,,,,,
,,,,,,,,,,,,,,,762,2022-01-20_23h33.31.878,multiplicationStroop,2021.2.3,Win32,71.59221077,,,,,,,,,,,,,,,,,,,,,,,,,,,,,,,,,10,2.7202,1,0,33,33,18,1,5,×,2,5 × 2,neutral,largerFirst,1.5,1.5,10,,,,,,,,
,,,,,,,,,,,,,,,762,2022-01-20_23h33.31.878,multiplicationStroop,2021.2.3,Win32,71.59221077,,,,,,,,,,,,,,,,,,,,,,,,,,,,,,,,,6,1.3943,1,0,34,34,12,1,2,×,3,2 × 3,neutral,smallerFirst,1.5,1.5,6,,,,,,,,
,,,,,,,,,,,,,,,762,2022-01-20_23h33.31.878,multiplicationStroop,2021.2.3,Win32,71.59221077,,,,,,,,,,,,,,,,,,,,,,,,,,,,,,,,,9,1.3968,1,0,35,35,29,1,3,×,3,3 × 3,neutral,tie,1.5,1.5,9,,,,,,,,
,,,,,,,,,,,,,,,762,2022-01-20_23h33.31.878,multiplicationStroop,2021.2.3,Win32,71.59221077,,,,,,,,,,,,,,,,,,,,,,,,,,,,,,,,,,,,,,,,,,,,,,,,,,0,5,5,0,1,stimulusFile/mult_blk1.xlsx,,
,,,,,,,,,,,,,,,762,2022-01-20_23h33.31.878,multiplicationStroop,2021.2.3,Win32,71.59221077,,,,,,,,,,,,,,,,,,,,,,,,,,,,,,,,,,,,,,,,,,,,,,,,,,,,,,,,space,2.6437