welcomeKey_resp.keys,welcomeKey_resp.rt,X Scale,Y Scale,rt_resp_4.keys,rt_resp_4.corr,rt_resp_4.rt,speedtest_2.thisRepN,speedtest_2.thisTrialN,speedtest_2.thisN,speedtest_2.thisIndex,speedtest_2.ran,numberSc,posX,positionLayout,participant,date,expName,psychopyVersion,OS,frameRate,ct_instrresp.keys,ct_instrresp.rt,key_resp_2.keys,key_resp_2.rt,ct_keyResp.keys,ct_keyResp.corr,ct_keyResp.rt,trials.thisRepN,trials.thisTrialN,trials.thisN,trials.thisIndex,trials.ran,leftNo,rightNo,displayProblem,numDistance,leftNo_size,rightNo_size,Dims,keyAnswer,TS_Loop.thisRepN,TS_Loop.thisTrialN,TS_Loop.thisN,TS_Loop.thisIndex,TS_Loop.ran,Condition,ActionInst,instrImage,mltptaskInst_resp.keys,mltptaskInst_resp.rt,continue_resp_2.keys,continue_resp_2.rt,multp_Answer,multi_RT,multiplyCorr,LoopingMultiply.thisRepN,LoopingMultiply.thisTrialN,LoopingMultiply.thisN,LoopingMultiply.thisIndex,LoopingMultiply.ran,factor1,multiplySign,factor2,multliplyProblem,physicalSize,orderOperand,sizeF1,sizeF2,mult_answer,trials_stroop.thisRepN,trials_stroop.thisTrialN,trials_stroop.thisN,trials_stroop.thisIndex,trials_stroop.ran,multiplicationFile,esckey_resp_2.keys,esckey_resp_2.rt
y,4.052,42.7,43,left,1,0.671,0,0,0,7,1,9,-200,left,763,2022-01-19_14h57.55.574,multiplicationStroop,2021.2.3,Win32,59.95203837,,,,,,,,,,,,,,,,,,,,,,,,,,,,,,,,,,,,,,,,,,,,,,,,,,,,,,,,,
,,,,left,1,0.57,0,1,1,4,1,6,-200,left,763,2022-01-19_14h57.55.574,multiplicationStroop,2021.2.3,Win32,59.95203837,,,,,,,,,,,,,,,,,,,,,,,,,,,,,,,,,,,,,,,,,,,,,,,,,,,,,,,,,
,,,,left,1,0.529,0,2,2,5,1,7,-200,left,763,2022-01-19_14h57.55.574,multiplicationStroop,2021.2.3,Win32,59.95203837,,,,,,,,,,,,,,,,,,,,,,,,,,,,,,,,,,,,,,,,,,,,,,,,,,,,,,,,,
,,,,right,1,0.413,0,3,3,9,1,2,200,right,763,2022-01-19_14h57.55.574,multiplicationStroop,2021.2.3,Win32,59.95203837,,,,,,,,,,,,,,,,,,,,,,,,,,,,,,,,,,,,,,,,,,,,,,,,,,,,,,,,,
,,,,right,1,0.368,0,4,4,13,1,7,200,right,763,2022-01-19_14h57.55.574,multiplicationStroop,2021.2.3,Win32,59.95203837,,,,,,,,,,,,,,,,,,,,,,,,,,,,,,,,,,,,,,,,,,,,,,,,,,,,,,,,,
,,,,right,1,0.348,0,5,5,15,1,9,200,right,763,2022-01-19_14h57.55.574,multiplicationStroop,2021.2.3,Win32,59.95203837,,,,,,,,,,,,,,,,,,,,,,,,,,,,,,,,,,,,,,,,,,,,,,,,,,,,,,,,,
,,,,left,1,0.395,0,6,6,2,1,3,-200,left,763,2022-01-19_14h57.55.574,multiplicationStroop,2021.2.3,Win32,59.95203837,,,,,,,,,,,,,,,,,,,,,,,,,,,,,,,,,,,,,,,,,,,,,,,,,,,,,,,,,
,,,,right,1,0.352,0,7,7,10,1,3,200,right,763,2022-01-19_14h57.55.574,multiplicationStroop,2021.2.3,Win32,59.95203837,,,,,,,,,,,,,,,,,,,,,,,,,,,,,,,,,,,,,,,,,,,,,,,,,,,,,,,,,
,,,,right,1,0.315,0,8,8,8,1,1,200,right,763,2022-01-19_14h57.55.574,multiplicationStroop,2021.2.3,Win32,59.95203837,,,,,,,,,,,,,,,,,,,,,,,,,,,,,,,,,,,,,,,,,,,,,,,,,,,,,,,,,
,,,,right,1,0.332,0,9,9,12,1,6,200,right,763,2022-01-19_14h57.55.574,multiplicationStroop,2021.2.3,Win32,59.95203837,,,,,,,,,,,,,,,,,,,,,,,,,,,,,,,,,,,,,,,,,,,,,,,,,,,,,,,,,
,,,,left,1,0.313,0,10,10,0,1,1,-200,left,763,2022-01-19_14h57.55.574,multiplicationStroop,2021.2.3,Win32,59.95203837,,,,,,,,,,,,,,,,,,,,,,,,,,,,,,,,,,,,,,,,,,,,,,,,,,,,,,,,,
,,,,left,1,0.328,0,11,11,6,1,8,-200,left,763,2022-01-19_14h57.55.574,multiplicationStroop,2021.2.3,Win32,59.95203837,,,,,,,,,,,,,,,,,,,,,,,,,,,,,,,,,,,,,,,,,,,,,,,,,,,,,,,,,
,,,,left,1,0.314,0,12,12,1,1,2,-200,left,763,2022-01-19_14h57.55.574,multiplicationStroop,2021.2.3,Win32,59.95203837,,,,,,,,,,,,,,,,,,,,,,,,,,,,,,,,,,,,,,,,,,,,,,,,,,,,,,,,,
,,,,left,1,0.297,0,13,13,3,1,4,-200,left,763,2022-01-19_14h57.55.574,multiplicationStroop,2021.2.3,Win32,59.95203837,,,,,,,,,,,,,,,,,,,,,,,,,,,,,,,,,,,,,,,,,,,,,,,,,,,,,,,,,
,,,,right,1,0.283,0,14,14,11,1,4,200,right,763,2022-01-19_14h57.55.574,multiplicationStroop,2021.2.3,Win32,59.95203837,,,,,,,,,,,,,,,,,,,,,,,,,,,,,,,,,,,,,,,,,,,,,,,,,,,,,,,,,
,,,,right,1,0.298,0,15,15,14,1,8,200,right,763,2022-01-19_14h57.55.574,multiplicationStroop,2021.2.3,Win32,59.95203837,,,,,,,,,,,,,,,,,,,,,,,,,,,,,,,,,,,,,,,,,,,,,,,,,,,,,,,,,
,,,,right,1,0.33,1,0,16,10,1,3,200,right,763,2022-01-19_14h57.55.574,multiplicationStroop,2021.2.3,Win32,59.95203837,,,,,,,,,,,,,,,,,,,,,,,,,,,,,,,,,,,,,,,,,,,,,,,,,,,,,,,,,
,,,,left,1,0.369,1,1,17,2,1,3,-200,left,763,2022-01-19_14h57.55.574,multiplicationStroop,2021.2.3,Win32,59.95203837,,,,,,,,,,,,,,,,,,,,,,,,,,,,,,,,,,,,,,,,,,,,,,,,,,,,,,,,,
,,,,left,1,0.363,1,2,18,0,1,1,-200,left,763,2022-01-19_14h57.55.574,multiplicationStroop,2021.2.3,Win32,59.95203837,,,,,,,,,,,,,,,,,,,,,,,,,,,,,,,,,,,,,,,,,,,,,,,,,,,,,,,,,
,,,,right,1,0.282,1,3,19,11,1,4,200,right,763,2022-01-19_14h57.55.574,multiplicationStroop,2021.2.3,Win32,59.95203837,,,,,,,,,,,,,,,,,,,,,,,,,,,,,,,,,,,,,,,,,,,,,,,,,,,,,,,,,
,,,,left,1,0.319,1,4,20,3,1,4,-200,left,763,2022-01-19_14h57.55.574,multiplicationStroop,2021.2.3,Win32,59.95203837,,,,,,,,,,,,,,,,,,,,,,,,,,,,,,,,,,,,,,,,,,,,,,,,,,,,,,,,,
,,,,left,1,0.316,1,5,21,7,1,9,-200,left,763,2022-01-19_14h57.55.574,multiplicationStroop,2021.2.3,Win32,59.95203837,,,,,,,,,,,,,,,,,,,,,,,,,,,,,,,,,,,,,,,,,,,,,,,,,,,,,,,,,
,,,,right,1,0.366,1,6,22,8,1,1,200,right,763,2022-01-19_14h57.55.574,multiplicationStroop,2021.2.3,Win32,59.95203837,,,,,,,,,,,,,,,,,,,,,,,,,,,,,,,,,,,,,,,,,,,,,,,,,,,,,,,,,
,,,,left,1,0.281,1,7,23,5,1,7,-200,left,763,2022-01-19_14h57.55.574,multiplicationStroop,2021.2.3,Win32,59.95203837,,,,,,,,,,,,,,,,,,,,,,,,,,,,,,,,,,,,,,,,,,,,,,,,,,,,,,,,,
,,,,right,1,0.536,1,8,24,13,1,7,200,right,763,2022-01-19_14h57.55.574,multiplicationStroop,2021.2.3,Win32,59.95203837,,,,,,,,,,,,,,,,,,,,,,,,,,,,,,,,,,,,,,,,,,,,,,,,,,,,,,,,,
,,,,left,1,0.315,1,9,25,1,1,2,-200,left,763,2022-01-19_14h57.55.574,multiplicationStroop,2021.2.3,Win32,59.95203837,,,,,,,,,,,,,,,,,,,,,,,,,,,,,,,,,,,,,,,,,,,,,,,,,,,,,,,,,
,,,,right,1,0.314,1,10,26,14,1,8,200,right,763,2022-01-19_14h57.55.574,multiplicationStroop,2021.2.3,Win32,59.95203837,,,,,,,,,,,,,,,,,,,,,,,,,,,,,,,,,,,,,,,,,,,,,,,,,,,,,,,,,
,,,,right,1,0.297,1,11,27,9,1,2,200,right,763,2022-01-19_14h57.55.574,multiplicationStroop,2021.2.3,Win32,59.95203837,,,,,,,,,,,,,,,,,,,,,,,,,,,,,,,,,,,,,,,,,,,,,,,,,,,,,,,,,
,,,,left,1,0.331,1,12,28,6,1,8,-200,left,763,2022-01-19_14h57.55.574,multiplicationStroop,2021.2.3,Win32,59.95203837,,,,,,,,,,,,,,,,,,,,,,,,,,,,,,,,,,,,,,,,,,,,,,,,,,,,,,,,,
,,,,right,1,0.282,1,13,29,15,1,9,200,right,763,2022-01-19_14h57.55.574,multiplicationStroop,2021.2.3,Win32,59.95203837,,,,,,,,,,,,,,,,,,,,,,,,,,,,,,,,,,,,,,,,,,,,,,,,,,,,,,,,,
,,,,right,1,0.265,1,14,30,12,1,6,200,right,763,2022-01-19_14h57.55.574,multiplicationStroop,2021.2.3,Win32,59.95203837,,,,,,,,,,,,,,,,,,,,,,,,,,,,,,,,,,,,,,,,,,,,,,,,,,,,,,,,,
,,,,left,1,0.316,1,15,31,4,1,6,-200,left,763,2022-01-19_14h57.55.574,multiplicationStroop,2021.2.3,Win32,59.95203837,,,,,,,,,,,,,,,,,,,,,,,,,,,,,,,,,,,,,,,,,,,,,,,,,,,,,,,,,
,,,,left,1,0.348,2,0,32,0,1,1,-200,left,763,2022-01-19_14h57.55.574,multiplicationStroop,2021.2.3,Win32,59.95203837,,,,,,,,,,,,,,,,,,,,,,,,,,,,,,,,,,,,,,,,,,,,,,,,,,,,,,,,,
,,,,left,1,0.308,2,1,33,2,1,3,-200,left,763,2022-01-19_14h57.55.574,multiplicationStroop,2021.2.3,Win32,59.95203837,,,,,,,,,,,,,,,,,,,,,,,,,,,,,,,,,,,,,,,,,,,,,,,,,,,,,,,,,
,,,,right,1,0.315,2,2,34,11,1,4,200,right,763,2022-01-19_14h57.55.574,multiplicationStroop,2021.2.3,Win32,59.95203837,,,,,,,,,,,,,,,,,,,,,,,,,,,,,,,,,,,,,,,,,,,,,,,,,,,,,,,,,
,,,,left,1,0.265,2,3,35,1,1,2,-200,left,763,2022-01-19_14h57.55.574,multiplicationStroop,2021.2.3,Win32,59.95203837,,,,,,,,,,,,,,,,,,,,,,,,,,,,,,,,,,,,,,,,,,,,,,,,,,,,,,,,,
,,,,left,1,0.314,2,4,36,7,1,9,-200,left,763,2022-01-19_14h57.55.574,multiplicationStroop,2021.2.3,Win32,59.95203837,,,,,,,,,,,,,,,,,,,,,,,,,,,,,,,,,,,,,,,,,,,,,,,,,,,,,,,,,
,,,,right,1,0.366,2,5,37,13,1,7,200,right,763,2022-01-19_14h57.55.574,multiplicationStroop,2021.2.3,Win32,59.95203837,,,,,,,,,,,,,,,,,,,,,,,,,,,,,,,,,,,,,,,,,,,,,,,,,,,,,,,,,
,,,,right,1,0.513,2,6,38,9,1,2,200,right,763,2022-01-19_14h57.55.574,multiplicationStroop,2021.2.3,Win32,59.95203837,,,,,,,,,,,,,,,,,,,,,,,,,,,,,,,,,,,,,,,,,,,,,,,,,,,,,,,,,
,,,,left,1,0.296,2,7,39,3,1,4,-200,left,763,2022-01-19_14h57.55.574,multiplicationStroop,2021.2.3,Win32,59.95203837,,,,,,,,,,,,,,,,,,,,,,,,,,,,,,,,,,,,,,,,,,,,,,,,,,,,,,,,,
,,,,left,1,0.351,2,8,40,6,1,8,-200,left,763,2022-01-19_14h57.55.574,multiplicationStroop,2021.2.3,Win32,59.95203837,,,,,,,,,,,,,,,,,,,,,,,,,,,,,,,,,,,,,,,,,,,,,,,,,,,,,,,,,
,,,,left,1,0.314,2,9,41,4,1,6,-200,left,763,2022-01-19_14h57.55.574,multiplicationStroop,2021.2.3,Win32,59.95203837,,,,,,,,,,,,,,,,,,,,,,,,,,,,,,,,,,,,,,,,,,,,,,,,,,,,,,,,,
,,,,right,1,0.303,2,10,42,12,1,6,200,right,763,2022-01-19_14h57.55.574,multiplicationStroop,2021.2.3,Win32,59.95203837,,,,,,,,,,,,,,,,,,,,,,,,,,,,,,,,,,,,,,,,,,,,,,,,,,,,,,,,,
,,,,right,1,0.283,2,11,43,8,1,1,200,right,763,2022-01-19_14h57.55.574,multiplicationStroop,2021.2.3,Win32,59.95203837,,,,,,,,,,,,,,,,,,,,,,,,,,,,,,,,,,,,,,,,,,,,,,,,,,,,,,,,,
,,,,right,1,0.265,2,12,44,14,1,8,200,right,763,2022-01-19_14h57.55.574,multiplicationStroop,2021.2.3,Win32,59.95203837,,,,,,,,,,,,,,,,,,,,,,,,,,,,,,,,,,,,,,,,,,,,,,,,,,,,,,,,,
,,,,right,1,0.281,2,13,45,15,1,9,200,right,763,2022-01-19_14h57.55.574,multiplicationStroop,2021.2.3,Win32,59.95203837,,,,,,,,,,,,,,,,,,,,,,,,,,,,,,,,,,,,,,,,,,,,,,,,,,,,,,,,,
,,,,left,1,0.332,2,14,46,5,1,7,-200,left,763,2022-01-19_14h57.55.574,multiplicationStroop,2021.2.3,Win32,59.95203837,,,,,,,,,,,,,,,,,,,,,,,,,,,,,,,,,,,,,,,,,,,,,,,,,,,,,,,,,
,,,,right,1,0.297,2,15,47,10,1,3,200,right,763,2022-01-19_14h57.55.574,multiplicationStroop,2021.2.3,Win32,59.95203837,,,,,,,,,,,,,,,,,,,,,,,,,,,,,,,,,,,,,,,,,,,,,,,,,,,,,,,,,
,,,,right,1,0.282,3,0,48,15,1,9,200,right,763,2022-01-19_14h57.55.574,multiplicationStroop,2021.2.3,Win32,59.95203837,,,,,,,,,,,,,,,,,,,,,,,,,,,,,,,,,,,,,,,,,,,,,,,,,,,,,,,,,
,,,,right,1,0.282,3,1,49,11,1,4,200,right,763,2022-01-19_14h57.55.574,multiplicationStroop,2021.2.3,Win32,59.95203837,,,,,,,,,,,,,,,,,,,,,,,,,,,,,,,,,,,,,,,,,,,,,,,,,,,,,,,,,
,,,,left,1,0.352,3,2,50,4,1,6,-200,left,763,2022-01-19_14h57.55.574,multiplicationStroop,2021.2.3,Win32,59.95203837,,,,,,,,,,,,,,,,,,,,,,,,,,,,,,,,,,,,,,,,,,,,,,,,,,,,,,,,,
,,,,left,1,0.315,3,3,51,5,1,7,-200,left,763,2022-01-19_14h57.55.574,multiplicationStroop,2021.2.3,Win32,59.95203837,,,,,,,,,,,,,,,,,,,,,,,,,,,,,,,,,,,,,,,,,,,,,,,,,,,,,,,,,
,,,,right,1,0.416,3,4,52,14,1,8,200,right,763,2022-01-19_14h57.55.574,multiplicationStroop,2021.2.3,Win32,59.95203837,,,,,,,,,,,,,,,,,,,,,,,,,,,,,,,,,,,,,,,,,,,,,,,,,,,,,,,,,
,,,,left,1,0.299,3,5,53,1,1,2,-200,left,763,2022-01-19_14h57.55.574,multiplicationStroop,2021.2.3,Win32,59.95203837,,,,,,,,,,,,,,,,,,,,,,,,,,,,,,,,,,,,,,,,,,,,,,,,,,,,,,,,,
,,,,right,1,0.346,3,6,54,8,1,1,200,right,763,2022-01-19_14h57.55.574,multiplicationStroop,2021.2.3,Win32,59.95203837,,,,,,,,,,,,,,,,,,,,,,,,,,,,,,,,,,,,,,,,,,,,,,,,,,,,,,,,,
,,,,left,1,0.281,3,7,55,3,1,4,-200,left,763,2022-01-19_14h57.55.574,multiplicationStroop,2021.2.3,Win32,59.95203837,,,,,,,,,,,,,,,,,,,,,,,,,,,,,,,,,,,,,,,,,,,,,,,,,,,,,,,,,
,,,,right,1,0.295,3,8,56,13,1,7,200,right,763,2022-01-19_14h57.55.574,multiplicationStroop,2021.2.3,Win32,59.95203837,,,,,,,,,,,,,,,,,,,,,,,,,,,,,,,,,,,,,,,,,,,,,,,,,,,,,,,,,
,,,,left,1,0.266,3,9,57,2,1,3,-200,left,763,2022-01-19_14h57.55.574,multiplicationStroop,2021.2.3,Win32,59.95203837,,,,,,,,,,,,,,,,,,,,,,,,,,,,,,,,,,,,,,,,,,,,,,,,,,,,,,,,,
,,,,right,1,0.231,3,10,58,10,1,3,200,right,763,2022-01-19_14h57.55.574,multiplicationStroop,2021.2.3,Win32,59.95203837,,,,,,,,,,,,,,,,,,,,,,,,,,,,,,,,,,,,,,,,,,,,,,,,,,,,,,,,,
,,,,right,1,0.382,3,11,59,9,1,2,200,right,763,2022-01-19_14h57.55.574,multiplicationStroop,2021.2.3,Win32,59.95203837,,,,,,,,,,,,,,,,,,,,,,,,,,,,,,,,,,,,,,,,,,,,,,,,,,,,,,,,,
,,,,left,1,0.33,3,12,60,0,1,1,-200,left,763,2022-01-19_14h57.55.574,multiplicationStroop,2021.2.3,Win32,59.95203837,,,,,,,,,,,,,,,,,,,,,,,,,,,,,,,,,,,,,,,,,,,,,,,,,,,,,,,,,
,,,,left,1,0.314,3,13,61,7,1,9,-200,left,763,2022-01-19_14h57.55.574,multiplicationStroop,2021.2.3,Win32,59.95203837,,,,,,,,,,,,,,,,,,,,,,,,,,,,,,,,,,,,,,,,,,,,,,,,,,,,,,,,,
,,,,right,1,0.366,3,14,62,12,1,6,200,right,763,2022-01-19_14h57.55.574,multiplicationStroop,2021.2.3,Win32,59.95203837,,,,,,,,,,,,,,,,,,,,,,,,,,,,,,,,,,,,,,,,,,,,,,,,,,,,,,,,,
,,,,left,1,0.314,3,15,63,6,1,8,-200,left,763,2022-01-19_14h57.55.574,multiplicationStroop,2021.2.3,Win32,59.95203837,,,,,,,,,,,,,,,,,,,,,,,,,,,,,,,,,,,,,,,,,,,,,,,,,,,,,,,,,
,,,,,,,,,,,,,,,763,2022-01-19_14h57.55.574,multiplicationStroop,2021.2.3,Win32,59.95203837,space,8.836,space,3.427,right,1,0.758,0,0,0,17,1,2,7,2 | 7,5,1.4111,1.9756,congruent,right,,,,,,stimulusFile/physical.xlsx,,,,,,,,,,,,,,,,,,,,,,,,,,,,,,,
,,,,,,,,,,,,,,,763,2022-01-19_14h57.55.574,multiplicationStroop,2021.2.3,Win32,59.95203837,,,,,left,1,0.575,0,1,1,5,1,4,3,4 | 3,1,1.9756,1.4111,congruent,left,,,,,,stimulusFile/physical.xlsx,,,,,,,,,,,,,,,,,,,,,,,,,,,,,,,
,,,,,,,,,,,,,,,763,2022-01-19_14h57.55.574,multiplicationStroop,2021.2.3,Win32,59.95203837,,,,,left,1,0.548,0,2,2,13,1,4,2,4 | 2,2,1.9756,1.4111,congruent,left,,,,,,stimulusFile/physical.xlsx,,,,,,,,,,,,,,,,,,,,,,,,,,,,,,,
,,,,,,,,,,,,,,,763,2022-01-19_14h57.55.574,multiplicationStroop,2021.2.3,Win32,59.95203837,,,,,right,1,0.62,0,3,3,39,1,9,7,9 | 7,2,1.4111,1.9756,incongruent,right,,,,,,stimulusFile/physical.xlsx,,,,,,,,,,,,,,,,,,,,,,,,,,,,,,,
,,,,,,,,,,,,,,,763,2022-01-19_14h57.55.574,multiplicationStroop,2021.2.3,Win32,59.95203837,,,,,right,1,0.521,0,4,4,30,1,7,6,7 | 6,1,1.4111,1.9756,incongruent,right,,,,,,stimulusFile/physical.xlsx,,,,,,,,,,,,,,,,,,,,,,,,,,,,,,,
,,,,,,,,,,,,,,,763,2022-01-19_14h57.55.574,multiplicationStroop,2021.2.3,Win32,59.95203837,,,,,left,1,0.494,0,5,5,50,1,6,6,6 | 6,0,1.9756,1.4111,neutral,left,,,,,,stimulusFile/physical.xlsx,,,,,,,,,,,,,,,,,,,,,,,,,,,,,,,
,,,,,,,,,,,,,,,763,2022-01-19_14h57.55.574,multiplicationStroop,2021.2.3,Win32,59.95203837,,,,,right,1,0.459,0,6,6,10,1,6,8,6 | 8,2,1.4111,1.9756,congruent,right,,,,,,stimulusFile/physical.xlsx,,,,,,,,,,,,,,,,,,,,,,,,,,,,,,,
,,,,,,,,,,,,,,,763,2022-01-19_14h57.55.574,multiplicationStroop,2021.2.3,Win32,59.95203837,,,,,right,1,0.578,0,7,7,60,1,3,3,3 | 3,0,1.4111,1.9756,neutral,right,,,,,,stimulusFile/physical.xlsx,,,,,,,,,,,,,,,,,,,,,,,,,,,,,,,
,,,,,,,,,,,,,,,763,2022-01-19_14h57.55.574,multiplicationStroop,2021.2.3,Win32,59.95203837,,,,,left,1,0.489,0,8,8,54,1,7,7,7 | 7,0,1.9756,1.4111,neutral,left,,,,,,stimulusFile/physical.xlsx,,,,,,,,,,,,,,,,,,,,,,,,,,,,,,,
,,,,,,,,,,,,,,,763,2022-01-19_14h57.55.574,multiplicationStroop,2021.2.3,Win32,59.95203837,,,,,right,1,0.406,0,9,9,19,1,4,9,4 | 9,5,1.4111,1.9756,congruent,right,,,,,,stimulusFile/physical.xlsx,,,,,,,,,,,,,,,,,,,,,,,,,,,,,,,
,,,,,,,,,,,,,,,763,2022-01-19_14h57.55.574,multiplicationStroop,2021.2.3,Win32,59.95203837,,,,,left,1,0.489,0,10,10,27,1,8,9,8 | 9,1,1.9756,1.4111,incongruent,left,,,,,,stimulusFile/physical.xlsx,,,,,,,,,,,,,,,,,,,,,,,,,,,,,,,
,,,,,,,,,,,,,,,763,2022-01-19_14h57.55.574,multiplicationStroop,2021.2.3,Win32,59.95203837,,,,,left,1,0.511,0,11,11,24,1,1,2,1 | 2,1,1.9756,1.4111,incongruent,left,,,,,,stimulusFile/physical.xlsx,,,,,,,,,,,,,,,,,,,,,,,,,,,,,,,
,,,,,,,,,,,,,,,763,2022-01-19_14h57.55.574,multiplicationStroop,2021.2.3,Win32,59.95203837,,,,,left,1,0.53,0,12,12,40,1,1,6,1 | 6,5,1.9756,1.4111,incongruent,left,,,,,,stimulusFile/physical.xlsx,,,,,,,,,,,,,,,,,,,,,,,,,,,,,,,
,,,,,,,,,,,,,,,763,2022-01-19_14h57.55.574,multiplicationStroop,2021.2.3,Win32,59.95203837,,,,,left,1,0.448,0,13,13,68,1,6,6,6 | 6,0,1.9756,1.4111,neutral,left,,,,,,stimulusFile/physical.xlsx,,,,,,,,,,,,,,,,,,,,,,,,,,,,,,,
,,,,,,,,,,,,,,,763,2022-01-19_14h57.55.574,multiplicationStroop,2021.2.3,Win32,59.95203837,,,,,right,1,0.528,0,14,14,36,1,3,1,3 | 1,2,1.4111,1.9756,incongruent,right,,,,,,stimulusFile/physical.xlsx,,,,,,,,,,,,,,,,,,,,,,,,,,,,,,,
,,,,,,,,,,,,,,,763,2022-01-19_14h57.55.574,multiplicationStroop,2021.2.3,Win32,59.95203837,,,,,left,1,0.618,0,15,15,25,1,3,4,3 | 4,1,1.9756,1.4111,incongruent,left,,,,,,stimulusFile/physical.xlsx,,,,,,,,,,,,,,,,,,,,,,,,,,,,,,,
,,,,,,,,,,,,,,,763,2022-01-19_14h57.55.574,multiplicationStroop,2021.2.3,Win32,59.95203837,,,,,right,1,0.455,0,16,16,18,1,3,8,3 | 8,5,1.4111,1.9756,congruent,right,,,,,,stimulusFile/physical.xlsx,,,,,,,,,,,,,,,,,,,,,,,,,,,,,,,
,,,,,,,,,,,,,,,763,2022-01-19_14h57.55.574,multiplicationStroop,2021.2.3,Win32,59.95203837,,,,,right,1,0.624,0,17,17,37,1,4,2,4 | 2,2,1.4111,1.9756,incongruent,right,,,,,,stimulusFile/physical.xlsx,,,,,,,,,,,,,,,,,,,,,,,,,,,,,,,
,,,,,,,,,,,,,,,763,2022-01-19_14h57.55.574,multiplicationStroop,2021.2.3,Win32,59.95203837,,,,,left,1,0.427,0,18,18,49,1,3,3,3 | 3,0,1.9756,1.4111,neutral,left,,,,,,stimulusFile/physical.xlsx,,,,,,,,,,,,,,,,,,,,,,,,,,,,,,,
,,,,,,,,,,,,,,,763,2022-01-19_14h57.55.574,multiplicationStroop,2021.2.3,Win32,59.95203837,,,,,left,1,0.428,0,19,19,20,1,6,1,6 | 1,5,1.9756,1.4111,congruent,left,,,,,,stimulusFile/physical.xlsx,,,,,,,,,,,,,,,,,,,,,,,,,,,,,,,
,,,,,,,,,,,,,,,763,2022-01-19_14h57.55.574,multiplicationStroop,2021.2.3,Win32,59.95203837,,,,,left,1,0.525,0,20,20,14,1,8,6,8 | 6,2,1.9756,1.4111,congruent,left,,,,,,stimulusFile/physical.xlsx,,,,,,,,,,,,,,,,,,,,,,,,,,,,,,,
,,,,,,,,,,,,,,,763,2022-01-19_14h57.55.574,multiplicationStroop,2021.2.3,Win32,59.95203837,,,,,left,1,0.49,0,21,21,26,1,6,7,6 | 7,1,1.9756,1.4111,incongruent,left,,,,,,stimulusFile/physical.xlsx,,,,,,,,,,,,,,,,,,,,,,,,,,,,,,,
,,,,,,,,,,,,,,,763,2022-01-19_14h57.55.574,multiplicationStroop,2021.2.3,Win32,59.95203837,,,,,right,1,0.511,0,22,22,3,1,8,9,8 | 9,1,1.4111,1.9756,congruent,right,,,,,,stimulusFile/physical.xlsx,,,,,,,,,,,,,,,,,,,,,,,,,,,,,,,
,,,,,,,,,,,,,,,763,2022-01-19_14h57.55.574,multiplicationStroop,2021.2.3,Win32,59.95203837,,,,,right,0,0.914,0,23,23,71,1,9,9,9 | 9,0,1.4111,1.9756,neutral,left,,,,,,stimulusFile/physical.xlsx,,,,,,,,,,,,,,,,,,,,,,,,,,,,,,,
,,,,,,,,,,,,,,,763,2022-01-19_14h57.55.574,multiplicationStroop,2021.2.3,Win32,59.95203837,,,,,right,1,0.593,0,24,24,38,1,8,6,8 | 6,2,1.4111,1.9756,incongruent,right,,,,,,stimulusFile/physical.xlsx,,,,,,,,,,,,,,,,,,,,,,,,,,,,,,,
,,,,,,,,,,,,,,,763,2022-01-19_14h57.55.574,multiplicationStroop,2021.2.3,Win32,59.95203837,,,,,left,1,0.445,0,25,25,41,1,2,7,2 | 7,5,1.9756,1.4111,incongruent,left,,,,,,stimulusFile/physical.xlsx,,,,,,,,,,,,,,,,,,,,,,,,,,,,,,,
,,,,,,,,,,,,,,,763,2022-01-19_14h57.55.574,multiplicationStroop,2021.2.3,Win32,59.95203837,,,,,right,1,0.494,0,26,26,11,1,7,9,7 | 9,2,1.4111,1.9756,congruent,right,,,,,,stimulusFile/physical.xlsx,,,,,,,,,,,,,,,,,,,,,,,,,,,,,,,
,,,,,,,,,,,,,,,763,2022-01-19_14h57.55.574,multiplicationStroop,2021.2.3,Win32,59.95203837,,,,,left,1,0.462,0,27,27,4,1,2,1,2 | 1,1,1.9756,1.4111,congruent,left,,,,,,stimulusFile/physical.xlsx,,,,,,,,,,,,,,,,,,,,,,,,,,,,,,,
,,,,,,,,,,,,,,,763,2022-01-19_14h57.55.574,multiplicationStroop,2021.2.3,Win32,59.95203837,,,,,left,1,0.572,0,28,28,70,1,8,8,8 | 8,0,1.9756,1.4111,neutral,left,,,,,,stimulusFile/physical.xlsx,,,,,,,,,,,,,,,,,,,,,,,,,,,,,,,
,,,,,,,,,,,,,,,763,2022-01-19_14h57.55.574,multiplicationStroop,2021.2.3,Win32,59.95203837,,,,,right,1,0.56,0,29,29,44,1,6,1,6 | 1,5,1.4111,1.9756,incongruent,right,,,,,,stimulusFile/physical.xlsx,,,,,,,,,,,,,,,,,,,,,,,,,,,,,,,
,,,,,,,,,,,,,,,763,2022-01-19_14h57.55.574,multiplicationStroop,2021.2.3,Win32,59.95203837,,,,,right,1,0.591,0,30,30,16,1,1,6,1 | 6,5,1.4111,1.9756,congruent,right,,,,,,stimulusFile/physical.xlsx,,,,,,,,,,,,,,,,,,,,,,,,,,,,,,,
,,,,,,,,,,,,,,,763,2022-01-19_14h57.55.574,multiplicationStroop,2021.2.3,Win32,59.95203837,,,,,right,0,0.503,0,31,31,69,1,7,7,7 | 7,0,1.4111,1.9756,neutral,left,,,,,,stimulusFile/physical.xlsx,,,,,,,,,,,,,,,,,,,,,,,,,,,,,,,
,,,,,,,,,,,,,,,763,2022-01-19_14h57.55.574,multiplicationStroop,2021.2.3,Win32,59.95203837,,,,,left,0,0.441,0,32,32,66,1,3,3,3 | 3,0,1.9756,1.4111,neutral,right,,,,,,stimulusFile/physical.xlsx,,,,,,,,,,,,,,,,,,,,,,,,,,,,,,,
,,,,,,,,,,,,,,,763,2022-01-19_14h57.55.574,multiplicationStroop,2021.2.3,Win32,59.95203837,,,,,left,1,0.557,0,33,33,15,1,9,7,9 | 7,2,1.9756,1.4111,congruent,left,,,,,,stimulusFile/physical.xlsx,,,,,,,,,,,,,,,,,,,,,,,,,,,,,,,
,,,,,,,,,,,,,,,763,2022-01-19_14h57.55.574,multiplicationStroop,2021.2.3,Win32,59.95203837,,,,,right,1,0.506,0,34,34,63,1,9,9,9 | 9,0,1.4111,1.9756,neutral,right,,,,,,stimulusFile/physical.xlsx,,,,,,,,,,,,,,,,,,,,,,,,,,,,,,,
,,,,,,,,,,,,,,,763,2022-01-19_14h57.55.574,multiplicationStroop,2021.2.3,Win32,59.95203837,,,,,right,0,0.455,0,35,35,55,1,9,9,9 | 9,0,1.9756,1.4111,neutral,left,,,,,,stimulusFile/physical.xlsx,,,,,,,,,,,,,,,,,,,,,,,,,,,,,,,
,,,,,,,,,,,,,,,763,2022-01-19_14h57.55.574,multiplicationStroop,2021.2.3,Win32,59.95203837,,,,,right,1,0.721,0,36,36,9,1,2,4,2 | 4,2,1.4111,1.9756,congruent,right,,,,,,stimulusFile/physical.xlsx,,,,,,,,,,,,,,,,,,,,,,,,,,,,,,,
,,,,,,,,,,,,,,,763,2022-01-19_14h57.55.574,multiplicationStroop,2021.2.3,Win32,59.95203837,,,,,right,1,0.991,0,37,37,29,1,4,3,4 | 3,1,1.4111,1.9756,incongruent,right,,,,,,stimulusFile/physical.xlsx,,,,,,,,,,,,,,,,,,,,,,,,,,,,,,,
,,,,,,,,,,,,,,,763,2022-01-19_14h57.55.574,multiplicationStroop,2021.2.3,Win32,59.95203837,,,,,right,1,0.857,0,38,38,47,1,9,4,9 | 4,5,1.4111,1.9756,incongruent,right,,,,,,stimulusFile/physical.xlsx,,,,,,,,,,,,,,,,,,,,,,,,,,,,,,,
,,,,,,,,,,,,,,,763,2022-01-19_14h57.55.574,multiplicationStroop,2021.2.3,Win32,59.95203837,,,,,right,1,0.597,0,39,39,61,1,4,4,4 | 4,0,1.4111,1.9756,neutral,right,,,,,,stimulusFile/physical.xlsx,,,,,,,,,,,,,,,,,,,,,,,,,,,,,,,
,,,,,,,,,,,,,,,763,2022-01-19_14h57.55.574,multiplicationStroop,2021.2.3,Win32,59.95203837,,,,,right,1,0.61,0,40,40,62,1,8,8,8 | 8,0,1.4111,1.9756,neutral,right,,,,,,stimulusFile/physical.xlsx,,,,,,,,,,,,,,,,,,,,,,,,,,,,,,,
,,,,,,,,,,,,,,,763,2022-01-19_14h57.55.574,multiplicationStroop,2021.2.3,Win32,59.95203837,,,,,right,1,0.611,0,41,41,58,1,6,6,6 | 6,0,1.4111,1.9756,neutral,right,,,,,,stimulusFile/physical.xlsx,,,,,,,,,,,,,,,,,,,,,,,,,,,,,,,
,,,,,,,,,,,,,,,763,2022-01-19_14h57.55.574,multiplicationStroop,2021.2.3,Win32,59.95203837,,,,,right,1,0.78,0,42,42,59,1,7,7,7 | 7,0,1.4111,1.9756,neutral,right,,,,,,stimulusFile/physical.xlsx,,,,,,,,,,,,,,,,,,,,,,,,,,,,,,,
,,,,,,,,,,,,,,,763,2022-01-19_14h57.55.574,multiplicationStroop,2021.2.3,Win32,59.95203837,,,,,left,1,0.888,0,43,43,42,1,3,8,3 | 8,5,1.9756,1.4111,incongruent,left,,,,,,stimulusFile/physical.xlsx,,,,,,,,,,,,,,,,,,,,,,,,,,,,,,,
,,,,,,,,,,,,,,,763,2022-01-19_14h57.55.574,multiplicationStroop,2021.2.3,Win32,59.95203837,,,,,left,1,0.745,0,44,44,21,1,7,2,7 | 2,5,1.9756,1.4111,congruent,left,,,,,,stimulusFile/physical.xlsx,,,,,,,,,,,,,,,,,,,,,,,,,,,,,,,
,,,,,,,,,,,,,,,763,2022-01-19_14h57.55.574,multiplicationStroop,2021.2.3,Win32,59.95203837,,,,,right,1,0.641,0,45,45,31,1,9,8,9 | 8,1,1.4111,1.9756,incongruent,right,,,,,,stimulusFile/physical.xlsx,,,,,,,,,,,,,,,,,,,,,,,,,,,,,,,
,,,,,,,,,,,,,,,763,2022-01-19_14h57.55.574,multiplicationStroop,2021.2.3,Win32,59.95203837,,,,,left,1,0.478,0,46,46,52,1,2,2,2 | 2,0,1.9756,1.4111,neutral,left,,,,,,stimulusFile/physical.xlsx,,,,,,,,,,,,,,,,,,,,,,,,,,,,,,,
,,,,,,,,,,,,,,,763,2022-01-19_14h57.55.574,multiplicationStroop,2021.2.3,Win32,59.95203837,,,,,left,1,0.477,0,47,47,7,1,9,8,9 | 8,1,1.9756,1.4111,congruent,left,,,,,,stimulusFile/physical.xlsx,,,,,,,,,,,,,,,,,,,,,,,,,,,,,,,
,,,,,,,,,,,,,,,763,2022-01-19_14h57.55.574,multiplicationStroop,2021.2.3,Win32,59.95203837,,,,,left,1,0.479,0,48,48,12,1,3,1,3 | 1,2,1.9756,1.4111,congruent,left,,,,,,stimulusFile/physical.xlsx,,,,,,,,,,,,,,,,,,,,,,,,,,,,,,,
,,,,,,,,,,,,,,,763,2022-01-19_14h57.55.574,multiplicationStroop,2021.2.3,Win32,59.95203837,,,,,left,1,0.762,0,49,49,53,1,4,4,4 | 4,0,1.9756,1.4111,neutral,left,,,,,,stimulusFile/physical.xlsx,,,,,,,,,,,,,,,,,,,,,,,,,,,,,,,
,,,,,,,,,,,,,,,763,2022-01-19_14h57.55.574,multiplicationStroop,2021.2.3,Win32,59.95203837,,,,,left,0,0.508,0,50,50,64,1,1,1,1 | 1,0,1.9756,1.4111,neutral,right,,,,,,stimulusFile/physical.xlsx,,,,,,,,,,,,,,,,,,,,,,,,,,,,,,,
,,,,,,,,,,,,,,,763,2022-01-19_14h57.55.574,multiplicationStroop,2021.2.3,Win32,59.95203837,,,,,left,1,0.495,0,51,51,35,1,7,9,7 | 9,2,1.9756,1.4111,incongruent,left,,,,,,stimulusFile/physical.xlsx,,,,,,,,,,,,,,,,,,,,,,,,,,,,,,,
,,,,,,,,,,,,,,,763,2022-01-19_14h57.55.574,multiplicationStroop,2021.2.3,Win32,59.95203837,,,,,left,1,0.471,0,52,52,34,1,6,8,6 | 8,2,1.9756,1.4111,incongruent,left,,,,,,stimulusFile/physical.xlsx,,,,,,,,,,,,,,,,,,,,,,,,,,,,,,,
,,,,,,,,,,,,,,,763,2022-01-19_14h57.55.574,multiplicationStroop,2021.2.3,Win32,59.95203837,,,,,right,1,0.561,0,53,53,28,1,2,1,2 | 1,1,1.4111,1.9756,incongruent,right,,,,,,stimulusFile/physical.xlsx,,,,,,,,,,,,,,,,,,,,,,,,,,,,,,,
,,,,,,,,,,,,,,,763,2022-01-19_14h57.55.574,multiplicationStroop,2021.2.3,Win32,59.95203837,,,,,right,1,0.448,0,54,54,56,1,1,1,1 | 1,0,1.4111,1.9756,neutral,right,,,,,,stimulusFile/physical.xlsx,,,,,,,,,,,,,,,,,,,,,,,,,,,,,,,
,,,,,,,,,,,,,,,763,2022-01-19_14h57.55.574,multiplicationStroop,2021.2.3,Win32,59.95203837,,,,,left,1,0.462,0,55,55,51,1,8,8,8 | 8,0,1.9756,1.4111,neutral,left,,,,,,stimulusFile/physical.xlsx,,,,,,,,,,,,,,,,,,,,,,,,,,,,,,,
,,,,,,,,,,,,,,,763,2022-01-19_14h57.55.574,multiplicationStroop,2021.2.3,Win32,59.95203837,,,,,right,1,0.413,0,56,56,8,1,1,3,1 | 3,2,1.4111,1.9756,congruent,right,,,,,,stimulusFile/physical.xlsx,,,,,,,,,,,,,,,,,,,,,,,,,,,,,,,
,,,,,,,,,,,,,,,763,2022-01-19_14h57.55.574,multiplicationStroop,2021.2.3,Win32,59.95203837,,,,,right,1,0.408,0,57,57,65,1,2,2,2 | 2,0,1.4111,1.9756,neutral,right,,,,,,stimulusFile/physical.xlsx,,,,,,,,,,,,,,,,,,,,,,,,,,,,,,,
,,,,,,,,,,,,,,,763,2022-01-19_14h57.55.574,multiplicationStroop,2021.2.3,Win32,59.95203837,,,,,right,1,0.38,0,58,58,1,1,3,4,3 | 4,1,1.4111,1.9756,congruent,right,,,,,,stimulusFile/physical.xlsx,,,,,,,,,,,,,,,,,,,,,,,,,,,,,,,
,,,,,,,,,,,,,,,763,2022-01-19_14h57.55.574,multiplicationStroop,2021.2.3,Win32,59.95203837,,,,,right,1,0.693,0,59,59,2,1,6,7,6 | 7,1,1.4111,1.9756,congruent,right,,,,,,stimulusFile/physical.xlsx,,,,,,,,,,,,,,,,,,,,,,,,,,,,,,,
,,,,,,,,,,,,,,,763,2022-01-19_14h57.55.574,multiplicationStroop,2021.2.3,Win32,59.95203837,,,,,left,1,0.507,0,60,60,32,1,1,3,1 | 3,2,1.9756,1.4111,incongruent,left,,,,,,stimulusFile/physical.xlsx,,,,,,,,,,,,,,,,,,,,,,,,,,,,,,,
,,,,,,,,,,,,,,,763,2022-01-19_14h57.55.574,multiplicationStroop,2021.2.3,Win32,59.95203837,,,,,left,1,0.594,0,61,61,23,1,9,4,9 | 4,5,1.9756,1.4111,congruent,left,,,,,,stimulusFile/physical.xlsx,,,,,,,,,,,,,,,,,,,,,,,,,,,,,,,
,,,,,,,,,,,,,,,763,2022-01-19_14h57.55.574,multiplicationStroop,2021.2.3,Win32,59.95203837,,,,,left,1,0.577,0,62,62,48,1,1,1,1 | 1,0,1.9756,1.4111,neutral,left,,,,,,stimulusFile/physical.xlsx,,,,,,,,,,,,,,,,,,,,,,,,,,,,,,,
,,,,,,,,,,,,,,,763,2022-01-19_14h57.55.574,multiplicationStroop,2021.2.3,Win32,59.95203837,,,,,right,1,0.54,0,63,63,57,1,2,2,2 | 2,0,1.4111,1.9756,neutral,right,,,,,,stimulusFile/physical.xlsx,,,,,,,,,,,,,,,,,,,,,,,,,,,,,,,
,,,,,,,,,,,,,,,763,2022-01-19_14h57.55.574,multiplicationStroop,2021.2.3,Win32,59.95203837,,,,,left,1,0.628,0,64,64,22,1,8,3,8 | 3,5,1.9756,1.4111,congruent,left,,,,,,stimulusFile/physical.xlsx,,,,,,,,,,,,,,,,,,,,,,,,,,,,,,,
,,,,,,,,,,,,,,,763,2022-01-19_14h57.55.574,multiplicationStroop,2021.2.3,Win32,59.95203837,,,,,right,1,0.827,0,65,65,46,1,8,3,8 | 3,5,1.4111,1.9756,incongruent,right,,,,,,stimulusFile/physical.xlsx,,,,,,,,,,,,,,,,,,,,,,,,,,,,,,,
,,,,,,,,,,,,,,,763,2022-01-19_14h57.55.574,multiplicationStroop,2021.2.3,Win32,59.95203837,,,,,left,1,0.489,0,66,66,43,1,4,9,4 | 9,5,1.9756,1.4111,incongruent,left,,,,,,stimulusFile/physical.xlsx,,,,,,,,,,,,,,,,,,,,,,,,,,,,,,,
,,,,,,,,,,,,,,,763,2022-01-19_14h57.55.574,multiplicationStroop,2021.2.3,Win32,59.95203837,,,,,right,1,0.536,0,67,67,0,1,1,2,1 | 2,1,1.4111,1.9756,congruent,right,,,,,,stimulusFile/physical.xlsx,,,,,,,,,,,,,,,,,,,,,,,,,,,,,,,
,,,,,,,,,,,,,,,763,2022-01-19_14h57.55.574,multiplicationStroop,2021.2.3,Win32,59.95203837,,,,,right,1,0.564,0,68,68,45,1,7,2,7 | 2,5,1.4111,1.9756,incongruent,right,,,,,,stimulusFile/physical.xlsx,,,,,,,,,,,,,,,,,,,,,,,,,,,,,,,
,,,,,,,,,,,,,,,763,2022-01-19_14h57.55.574,multiplicationStroop,2021.2.3,Win32,59.95203837,,,,,left,1,0.489,0,69,69,6,1,7,6,7 | 6,1,1.9756,1.4111,congruent,left,,,,,,stimulusFile/physical.xlsx,,,,,,,,,,,,,,,,,,,,,,,,,,,,,,,
,,,,,,,,,,,,,,,763,2022-01-19_14h57.55.574,multiplicationStroop,2021.2.3,Win32,59.95203837,,,,,left,1,0.579,0,70,70,33,1,2,4,2 | 4,2,1.9756,1.4111,incongruent,left,,,,,,stimulusFile/physical.xlsx,,,,,,,,,,,,,,,,,,,,,,,,,,,,,,,
,,,,,,,,,,,,,,,763,2022-01-19_14h57.55.574,multiplicationStroop,2021.2.3,Win32,59.95203837,,,,,right,1,0.505,0,71,71,67,1,4,4,4 | 4,0,1.4111,1.9756,neutral,right,,,,,,stimulusFile/physical.xlsx,,,,,,,,,,,,,,,,,,,,,,,,,,,,,,,
,,,,,,,,,,,,,,,763,2022-01-19_14h57.55.574,multiplicationStroop,2021.2.3,Win32,59.95203837,,,,,,,,,,,,,,,,,,,,,0,0,0,1,1,stimulusFile/physical.xlsx,PHYSICALLY larger (larger font size).,images/physicallyLarger.png,,,,,,,,,,,,,,,,,,,,,,,,,,,,,
,,,,,,,,,,,,,,,763,2022-01-19_14h57.55.574,multiplicationStroop,2021.2.3,Win32,59.95203837,space,2.997,space,4.21,left,1,0.74,0,0,0,7,1,9,8,9 | 8,1,1.9756,1.4111,congruent,left,,,,,,stimulusFile/magnitude.xlsx,,,,,,,,,,,,,,,,,,,,,,,,,,,,,,,
,,,,,,,,,,,,,,,763,2022-01-19_14h57.55.574,multiplicationStroop,2021.2.3,Win32,59.95203837,,,,,left,1,0.638,0,1,1,39,1,9,7,9 | 7,2,1.4111,1.9756,incongruent,left,,,,,,stimulusFile/magnitude.xlsx,,,,,,,,,,,,,,,,,,,,,,,,,,,,,,,
,,,,,,,,,,,,,,,763,2022-01-19_14h57.55.574,multiplicationStroop,2021.2.3,Win32,59.95203837,,,,,left,1,0.612,0,2,2,15,1,9,7,9 | 7,2,1.9756,1.4111,congruent,left,,,,,,stimulusFile/magnitude.xlsx,,,,,,,,,,,,,,,,,,,,,,,,,,,,,,,
,,,,,,,,,,,,,,,763,2022-01-19_14h57.55.574,multiplicationStroop,2021.2.3,Win32,59.95203837,,,,,right,1,0.56,0,3,3,42,1,3,8,3 | 8,5,1.9756,1.4111,incongruent,right,,,,,,stimulusFile/magnitude.xlsx,,,,,,,,,,,,,,,,,,,,,,,,,,,,,,,
,,,,,,,,,,,,,,,763,2022-01-19_14h57.55.574,multiplicationStroop,2021.2.3,Win32,59.95203837,,,,,left,1,0.578,0,4,4,29,1,4,3,4 | 3,1,1.4111,1.9756,incongruent,left,,,,,,stimulusFile/magnitude.xlsx,,,,,,,,,,,,,,,,,,,,,,,,,,,,,,,
,,,,,,,,,,,,,,,763,2022-01-19_14h57.55.574,multiplicationStroop,2021.2.3,Win32,59.95203837,,,,,left,1,0.572,0,5,5,44,1,6,1,6 | 1,5,1.4111,1.9756,incongruent,left,,,,,,stimulusFile/magnitude.xlsx,,,,,,,,,,,,,,,,,,,,,,,,,,,,,,,
,,,,,,,,,,,,,,,763,2022-01-19_14h57.55.574,multiplicationStroop,2021.2.3,Win32,59.95203837,,,,,right,1,0.975,0,6,6,9,1,2,4,2 | 4,2,1.4111,1.9756,congruent,right,,,,,,stimulusFile/magnitude.xlsx,,,,,,,,,,,,,,,,,,,,,,,,,,,,,,,
,,,,,,,,,,,,,,,763,2022-01-19_14h57.55.574,multiplicationStroop,2021.2.3,Win32,59.95203837,,,,,left,1,0.979,0,7,7,55,1,9,8,9 | 8,1,1.6933,1.6933,neutral,left,,,,,,stimulusFile/magnitude.xlsx,,,,,,,,,,,,,,,,,,,,,,,,,,,,,,,
,,,,,,,,,,,,,,,763,2022-01-19_14h57.55.574,multiplicationStroop,2021.2.3,Win32,59.95203837,,,,,left,1,0.544,0,8,8,54,1,7,6,7 | 6,1,1.6933,1.6933,neutral,left,,,,,,stimulusFile/magnitude.xlsx,,,,,,,,,,,,,,,,,,,,,,,,,,,,,,,
,,,,,,,,,,,,,,,763,2022-01-19_14h57.55.574,multiplicationStroop,2021.2.3,Win32,59.95203837,,,,,right,1,0.478,0,9,9,8,1,1,3,1 | 3,2,1.4111,1.9756,congruent,right,,,,,,stimulusFile/magnitude.xlsx,,,,,,,,,,,,,,,,,,,,,,,,,,,,,,,
,,,,,,,,,,,,,,,763,2022-01-19_14h57.55.574,multiplicationStroop,2021.2.3,Win32,59.95203837,,,,,left,1,0.508,0,10,10,62,1,8,6,8 | 6,2,1.6933,1.6933,neutral,left,,,,,,stimulusFile/magnitude.xlsx,,,,,,,,,,,,,,,,,,,,,,,,,,,,,,,
,,,,,,,,,,,,,,,763,2022-01-19_14h57.55.574,multiplicationStroop,2021.2.3,Win32,59.95203837,,,,,left,1,0.573,0,11,11,47,1,9,4,9 | 4,5,1.4111,1.9756,incongruent,left,,,,,,stimulusFile/magnitude.xlsx,,,,,,,,,,,,,,,,,,,,,,,,,,,,,,,
,,,,,,,,,,,,,,,763,2022-01-19_14h57.55.574,multiplicationStroop,2021.2.3,Win32,59.95203837,,,,,right,1,0.594,0,12,12,35,1,7,9,7 | 9,2,1.9756,1.4111,incongruent,right,,,,,,stimulusFile/magnitude.xlsx,,,,,,,,,,,,,,,,,,,,,,,,,,,,,,,
,,,,,,,,,,,,,,,763,2022-01-19_14h57.55.574,multiplicationStroop,2021.2.3,Win32,59.95203837,,,,,right,1,0.548,0,13,13,43,1,4,9,4 | 9,5,1.9756,1.4111,incongruent,right,,,,,,stimulusFile/magnitude.xlsx,,,,,,,,,,,,,,,,,,,,,,,,,,,,,,,
,,,,,,,,,,,,,,,763,2022-01-19_14h57.55.574,multiplicationStroop,2021.2.3,Win32,59.95203837,,,,,left,1,0.522,0,14,14,70,1,8,3,8 | 3,5,1.6933,1.6933,neutral,left,,,,,,stimulusFile/magnitude.xlsx,,,,,,,,,,,,,,,,,,,,,,,,,,,,,,,
,,,,,,,,,,,,,,,763,2022-01-19_14h57.55.574,multiplicationStroop,2021.2.3,Win32,59.95203837,,,,,right,1,0.457,0,15,15,1,1,3,4,3 | 4,1,1.4111,1.9756,congruent,right,,,,,,stimulusFile/magnitude.xlsx,,,,,,,,,,,,,,,,,,,,,,,,,,,,,,,
,,,,,,,,,,,,,,,763,2022-01-19_14h57.55.574,multiplicationStroop,2021.2.3,Win32,59.95203837,,,,,left,1,0.522,0,16,16,63,1,9,7,9 | 7,2,1.6933,1.6933,neutral,left,,,,,,stimulusFile/magnitude.xlsx,,,,,,,,,,,,,,,,,,,,,,,,,,,,,,,
,,,,,,,,,,,,,,,763,2022-01-19_14h57.55.574,multiplicationStroop,2021.2.3,Win32,59.95203837,,,,,left,1,0.477,0,17,17,6,1,7,6,7 | 6,1,1.9756,1.4111,congruent,left,,,,,,stimulusFile/magnitude.xlsx,,,,,,,,,,,,,,,,,,,,,,,,,,,,,,,
,,,,,,,,,,,,,,,763,2022-01-19_14h57.55.574,multiplicationStroop,2021.2.3,Win32,59.95203837,,,,,left,1,0.497,0,18,18,20,1,6,1,6 | 1,5,1.9756,1.4111,congruent,left,,,,,,stimulusFile/magnitude.xlsx,,,,,,,,,,,,,,,,,,,,,,,,,,,,,,,
,,,,,,,,,,,,,,,763,2022-01-19_14h57.55.574,multiplicationStroop,2021.2.3,Win32,59.95203837,,,,,right,1,0.561,0,19,19,32,1,1,3,1 | 3,2,1.9756,1.4111,incongruent,right,,,,,,stimulusFile/magnitude.xlsx,,,,,,,,,,,,,,,,,,,,,,,,,,,,,,,
,,,,,,,,,,,,,,,763,2022-01-19_14h57.55.574,multiplicationStroop,2021.2.3,Win32,59.95203837,,,,,left,1,0.563,0,20,20,28,1,2,1,2 | 1,1,1.4111,1.9756,incongruent,left,,,,,,stimulusFile/magnitude.xlsx,,,,,,,,,,,,,,,,,,,,,,,,,,,,,,,
,,,,,,,,,,,,,,,763,2022-01-19_14h57.55.574,multiplicationStroop,2021.2.3,Win32,59.95203837,,,,,left,0,0.429,0,21,21,65,1,2,7,2 | 7,5,1.6933,1.6933,neutral,right,,,,,,stimulusFile/magnitude.xlsx,,,,,,,,,,,,,,,,,,,,,,,,,,,,,,,
,,,,,,,,,,,,,,,763,2022-01-19_14h57.55.574,multiplicationStroop,2021.2.3,Win32,59.95203837,,,,,right,1,0.863,0,22,22,50,1,6,7,6 | 7,1,1.6933,1.6933,neutral,right,,,,,,stimulusFile/magnitude.xlsx,,,,,,,,,,,,,,,,,,,,,,,,,,,,,,,
,,,,,,,,,,,,,,,763,2022-01-19_14h57.55.574,multiplicationStroop,2021.2.3,Win32,59.95203837,,,,,right,1,0.79,0,23,23,33,1,2,4,2 | 4,2,1.9756,1.4111,incongruent,right,,,,,,stimulusFile/magnitude.xlsx,,,,,,,,,,,,,,,,,,,,,,,,,,,,,,,
,,,,,,,,,,,,,,,763,2022-01-19_14h57.55.574,multiplicationStroop,2021.2.3,Win32,59.95203837,,,,,left,1,1.222,0,24,24,53,1,4,3,4 | 3,1,1.6933,1.6933,neutral,left,,,,,,stimulusFile/magnitude.xlsx,,,,,,,,,,,,,,,,,,,,,,,,,,,,,,,
,,,,,,,,,,,,,,,763,2022-01-19_14h57.55.574,multiplicationStroop,2021.2.3,Win32,59.95203837,,,,,left,1,0.557,0,25,25,68,1,6,1,6 | 1,5,1.6933,1.6933,neutral,left,,,,,,stimulusFile/magnitude.xlsx,,,,,,,,,,,,,,,,,,,,,,,,,,,,,,,
,,,,,,,,,,,,,,,763,2022-01-19_14h57.55.574,multiplicationStroop,2021.2.3,Win32,59.95203837,,,,,left,1,0.494,0,26,26,22,1,8,3,8 | 3,5,1.9756,1.4111,congruent,left,,,,,,stimulusFile/magnitude.xlsx,,,,,,,,,,,,,,,,,,,,,,,,,,,,,,,
,,,,,,,,,,,,,,,763,2022-01-19_14h57.55.574,multiplicationStroop,2021.2.3,Win32,59.95203837,,,,,right,1,0.541,0,27,27,58,1,6,8,6 | 8,2,1.6933,1.6933,neutral,right,,,,,,stimulusFile/magnitude.xlsx,,,,,,,,,,,,,,,,,,,,,,,,,,,,,,,
,,,,,,,,,,,,,,,763,2022-01-19_14h57.55.574,multiplicationStroop,2021.2.3,Win32,59.95203837,,,,,right,1,0.549,0,28,28,66,1,3,8,3 | 8,5,1.6933,1.6933,neutral,right,,,,,,stimulusFile/magnitude.xlsx,,,,,,,,,,,,,,,,,,,,,,,,,,,,,,,
,,,,,,,,,,,,,,,763,2022-01-19_14h57.55.574,multiplicationStroop,2021.2.3,Win32,59.95203837,,,,,left,1,0.457,0,29,29,13,1,4,2,4 | 2,2,1.9756,1.4111,congruent,left,,,,,,stimulusFile/magnitude.xlsx,,,,,,,,,,,,,,,,,,,,,,,,,,,,,,,
,,,,,,,,,,,,,,,763,2022-01-19_14h57.55.574,multiplicationStroop,2021.2.3,Win32,59.95203837,,,,,right,1,0.609,0,30,30,51,1,8,9,8 | 9,1,1.6933,1.6933,neutral,right,,,,,,stimulusFile/magnitude.xlsx,,,,,,,,,,,,,,,,,,,,,,,,,,,,,,,
,,,,,,,,,,,,,,,763,2022-01-19_14h57.55.574,multiplicationStroop,2021.2.3,Win32,59.95203837,,,,,left,1,0.656,0,31,31,23,1,9,4,9 | 4,5,1.9756,1.4111,congruent,left,,,,,,stimulusFile/magnitude.xlsx,,,,,,,,,,,,,,,,,,,,,,,,,,,,,,,
,,,,,,,,,,,,,,,763,2022-01-19_14h57.55.574,multiplicationStroop,2021.2.3,Win32,59.95203837,,,,,right,1,0.495,0,32,32,34,1,6,8,6 | 8,2,1.9756,1.4111,incongruent,right,,,,,,stimulusFile/magnitude.xlsx,,,,,,,,,,,,,,,,,,,,,,,,,,,,,,,
,,,,,,,,,,,,,,,763,2022-01-19_14h57.55.574,multiplicationStroop,2021.2.3,Win32,59.95203837,,,,,right,1,0.745,0,33,33,27,1,8,9,8 | 9,1,1.9756,1.4111,incongruent,right,,,,,,stimulusFile/magnitude.xlsx,,,,,,,,,,,,,,,,,,,,,,,,,,,,,,,
,,,,,,,,,,,,,,,763,2022-01-19_14h57.55.574,multiplicationStroop,2021.2.3,Win32,59.95203837,,,,,left,1,0.573,0,34,34,45,1,7,2,7 | 2,5,1.4111,1.9756,incongruent,left,,,,,,stimulusFile/magnitude.xlsx,,,,,,,,,,,,,,,,,,,,,,,,,,,,,,,
,,,,,,,,,,,,,,,763,2022-01-19_14h57.55.574,multiplicationStroop,2021.2.3,Win32,59.95203837,,,,,left,1,0.474,0,35,35,21,1,7,2,7 | 2,5,1.9756,1.4111,congruent,left,,,,,,stimulusFile/magnitude.xlsx,,,,,,,,,,,,,,,,,,,,,,,,,,,,,,,
,,,,,,,,,,,,,,,763,2022-01-19_14h57.55.574,multiplicationStroop,2021.2.3,Win32,59.95203837,,,,,right,1,0.506,0,36,36,10,1,6,8,6 | 8,2,1.4111,1.9756,congruent,right,,,,,,stimulusFile/magnitude.xlsx,,,,,,,,,,,,,,,,,,,,,,,,,,,,,,,
,,,,,,,,,,,,,,,763,2022-01-19_14h57.55.574,multiplicationStroop,2021.2.3,Win32,59.95203837,,,,,left,1,0.44,0,37,37,46,1,8,3,8 | 3,5,1.4111,1.9756,incongruent,left,,,,,,stimulusFile/magnitude.xlsx,,,,,,,,,,,,,,,,,,,,,,,,,,,,,,,
,,,,,,,,,,,,,,,763,2022-01-19_14h57.55.574,multiplicationStroop,2021.2.3,Win32,59.95203837,,,,,right,1,0.872,0,38,38,48,1,1,2,1 | 2,1,1.6933,1.6933,neutral,right,,,,,,stimulusFile/magnitude.xlsx,,,,,,,,,,,,,,,,,,,,,,,,,,,,,,,
,,,,,,,,,,,,,,,763,2022-01-19_14h57.55.574,multiplicationStroop,2021.2.3,Win32,59.95203837,,,,,left,1,0.811,0,39,39,37,1,4,2,4 | 2,2,1.4111,1.9756,incongruent,left,,,,,,stimulusFile/magnitude.xlsx,,,,,,,,,,,,,,,,,,,,,,,,,,,,,,,
,,,,,,,,,,,,,,,763,2022-01-19_14h57.55.574,multiplicationStroop,2021.2.3,Win32,59.95203837,,,,,left,1,0.875,0,40,40,38,1,8,6,8 | 6,2,1.4111,1.9756,incongruent,left,,,,,,stimulusFile/magnitude.xlsx,,,,,,,,,,,,,,,,,,,,,,,,,,,,,,,
,,,,,,,,,,,,,,,763,2022-01-19_14h57.55.574,multiplicationStroop,2021.2.3,Win32,59.95203837,,,,,right,1,0.624,0,41,41,0,1,1,2,1 | 2,1,1.4111,1.9756,congruent,right,,,,,,stimulusFile/magnitude.xlsx,,,,,,,,,,,,,,,,,,,,,,,,,,,,,,,
,,,,,,,,,,,,,,,763,2022-01-19_14h57.55.574,multiplicationStroop,2021.2.3,Win32,59.95203837,,,,,right,1,0.757,0,42,42,64,1,1,6,1 | 6,5,1.6933,1.6933,neutral,right,,,,,,stimulusFile/magnitude.xlsx,,,,,,,,,,,,,,,,,,,,,,,,,,,,,,,
,,,,,,,,,,,,,,,763,2022-01-19_14h57.55.574,multiplicationStroop,2021.2.3,Win32,59.95203837,,,,,right,1,0.562,0,43,43,17,1,2,7,2 | 7,5,1.4111,1.9756,congruent,right,,,,,,stimulusFile/magnitude.xlsx,,,,,,,,,,,,,,,,,,,,,,,,,,,,,,,
,,,,,,,,,,,,,,,763,2022-01-19_14h57.55.574,multiplicationStroop,2021.2.3,Win32,59.95203837,,,,,left,1,0.556,0,44,44,61,1,4,2,4 | 2,2,1.6933,1.6933,neutral,left,,,,,,stimulusFile/magnitude.xlsx,,,,,,,,,,,,,,,,,,,,,,,,,,,,,,,
,,,,,,,,,,,,,,,763,2022-01-19_14h57.55.574,multiplicationStroop,2021.2.3,Win32,59.95203837,,,,,left,1,0.861,0,45,45,14,1,8,6,8 | 6,2,1.9756,1.4111,congruent,left,,,,,,stimulusFile/magnitude.xlsx,,,,,,,,,,,,,,,,,,,,,,,,,,,,,,,
,,,,,,,,,,,,,,,763,2022-01-19_14h57.55.574,multiplicationStroop,2021.2.3,Win32,59.95203837,,,,,right,1,0.508,0,46,46,11,1,7,9,7 | 9,2,1.4111,1.9756,congruent,right,,,,,,stimulusFile/magnitude.xlsx,,,,,,,,,,,,,,,,,,,,,,,,,,,,,,,
,,,,,,,,,,,,,,,763,2022-01-19_14h57.55.574,multiplicationStroop,2021.2.3,Win32,59.95203837,,,,,left,1,0.491,0,47,47,5,1,4,3,4 | 3,1,1.9756,1.4111,congruent,left,,,,,,stimulusFile/magnitude.xlsx,,,,,,,,,,,,,,,,,,,,,,,,,,,,,,,
,,,,,,,,,,,,,,,763,2022-01-19_14h57.55.574,multiplicationStroop,2021.2.3,Win32,59.95203837,,,,,left,1,0.672,0,48,48,4,1,2,1,2 | 1,1,1.9756,1.4111,congruent,left,,,,,,stimulusFile/magnitude.xlsx,,,,,,,,,,,,,,,,,,,,,,,,,,,,,,,
,,,,,,,,,,,,,,,763,2022-01-19_14h57.55.574,multiplicationStroop,2021.2.3,Win32,59.95203837,,,,,right,1,0.861,0,49,49,57,1,2,4,2 | 4,2,1.6933,1.6933,neutral,right,,,,,,stimulusFile/magnitude.xlsx,,,,,,,,,,,,,,,,,,,,,,,,,,,,,,,
,,,,,,,,,,,,,,,763,2022-01-19_14h57.55.574,multiplicationStroop,2021.2.3,Win32,59.95203837,,,,,left,1,0.526,0,50,50,12,1,3,1,3 | 1,2,1.9756,1.4111,congruent,left,,,,,,stimulusFile/magnitude.xlsx,,,,,,,,,,,,,,,,,,,,,,,,,,,,,,,
,,,,,,,,,,,,,,,763,2022-01-19_14h57.55.574,multiplicationStroop,2021.2.3,Win32,59.95203837,,,,,right,1,0.444,0,51,51,40,1,1,6,1 | 6,5,1.9756,1.4111,incongruent,right,,,,,,stimulusFile/magnitude.xlsx,,,,,,,,,,,,,,,,,,,,,,,,,,,,,,,
,,,,,,,,,,,,,,,763,2022-01-19_14h57.55.574,multiplicationStroop,2021.2.3,Win32,59.95203837,,,,,right,1,0.461,0,52,52,16,1,1,6,1 | 6,5,1.4111,1.9756,congruent,right,,,,,,stimulusFile/magnitude.xlsx,,,,,,,,,,,,,,,,,,,,,,,,,,,,,,,
,,,,,,,,,,,,,,,763,2022-01-19_14h57.55.574,multiplicationStroop,2021.2.3,Win32,59.95203837,,,,,left,1,0.461,0,53,53,71,1,9,4,9 | 4,5,1.6933,1.6933,neutral,left,,,,,,stimulusFile/magnitude.xlsx,,,,,,,,,,,,,,,,,,,,,,,,,,,,,,,
,,,,,,,,,,,,,,,763,2022-01-19_14h57.55.574,multiplicationStroop,2021.2.3,Win32,59.95203837,,,,,right,1,0.528,0,54,54,59,1,7,9,7 | 9,2,1.6933,1.6933,neutral,right,,,,,,stimulusFile/magnitude.xlsx,,,,,,,,,,,,,,,,,,,,,,,,,,,,,,,
,,,,,,,,,,,,,,,763,2022-01-19_14h57.55.574,multiplicationStroop,2021.2.3,Win32,59.95203837,,,,,left,1,0.677,0,55,55,36,1,3,1,3 | 1,2,1.4111,1.9756,incongruent,left,,,,,,stimulusFile/magnitude.xlsx,,,,,,,,,,,,,,,,,,,,,,,,,,,,,,,
,,,,,,,,,,,,,,,763,2022-01-19_14h57.55.574,multiplicationStroop,2021.2.3,Win32,59.95203837,,,,,right,1,0.597,0,56,56,18,1,3,8,3 | 8,5,1.4111,1.9756,congruent,right,,,,,,stimulusFile/magnitude.xlsx,,,,,,,,,,,,,,,,,,,,,,,,,,,,,,,
,,,,,,,,,,,,,,,763,2022-01-19_14h57.55.574,multiplicationStroop,2021.2.3,Win32,59.95203837,,,,,right,1,0.561,0,57,57,19,1,4,9,4 | 9,5,1.4111,1.9756,congruent,right,,,,,,stimulusFile/magnitude.xlsx,,,,,,,,,,,,,,,,,,,,,,,,,,,,,,,
,,,,,,,,,,,,,,,763,2022-01-19_14h57.55.574,multiplicationStroop,2021.2.3,Win32,59.95203837,,,,,left,1,0.573,0,58,58,60,1,3,1,3 | 1,2,1.6933,1.6933,neutral,left,,,,,,stimulusFile/magnitude.xlsx,,,,,,,,,,,,,,,,,,,,,,,,,,,,,,,
,,,,,,,,,,,,,,,763,2022-01-19_14h57.55.574,multiplicationStroop,2021.2.3,Win32,59.95203837,,,,,left,1,0.795,0,59,59,30,1,7,6,7 | 6,1,1.4111,1.9756,incongruent,left,,,,,,stimulusFile/magnitude.xlsx,,,,,,,,,,,,,,,,,,,,,,,,,,,,,,,
,,,,,,,,,,,,,,,763,2022-01-19_14h57.55.574,multiplicationStroop,2021.2.3,Win32,59.95203837,,,,,left,1,0.627,0,60,60,52,1,2,1,2 | 1,1,1.6933,1.6933,neutral,left,,,,,,stimulusFile/magnitude.xlsx,,,,,,,,,,,,,,,,,,,,,,,,,,,,,,,
,,,,,,,,,,,,,,,763,2022-01-19_14h57.55.574,multiplicationStroop,2021.2.3,Win32,59.95203837,,,,,left,1,0.555,0,61,61,69,1,7,2,7 | 2,5,1.6933,1.6933,neutral,left,,,,,,stimulusFile/magnitude.xlsx,,,,,,,,,,,,,,,,,,,,,,,,,,,,,,,
,,,,,,,,,,,,,,,763,2022-01-19_14h57.55.574,multiplicationStroop,2021.2.3,Win32,59.95203837,,,,,right,1,0.505,0,62,62,41,1,2,7,2 | 7,5,1.9756,1.4111,incongruent,right,,,,,,stimulusFile/magnitude.xlsx,,,,,,,,,,,,,,,,,,,,,,,,,,,,,,,
,,,,,,,,,,,,,,,763,2022-01-19_14h57.55.574,multiplicationStroop,2021.2.3,Win32,59.95203837,,,,,right,1,0.74,0,63,63,3,1,8,9,8 | 9,1,1.4111,1.9756,congruent,right,,,,,,stimulusFile/magnitude.xlsx,,,,,,,,,,,,,,,,,,,,,,,,,,,,,,,
,,,,,,,,,,,,,,,763,2022-01-19_14h57.55.574,multiplicationStroop,2021.2.3,Win32,59.95203837,,,,,right,1,0.91,0,64,64,25,1,3,4,3 | 4,1,1.9756,1.4111,incongruent,right,,,,,,stimulusFile/magnitude.xlsx,,,,,,,,,,,,,,,,,,,,,,,,,,,,,,,
,,,,,,,,,,,,,,,763,2022-01-19_14h57.55.574,multiplicationStroop,2021.2.3,Win32,59.95203837,,,,,right,1,0.912,0,65,65,24,1,1,2,1 | 2,1,1.9756,1.4111,incongruent,right,,,,,,stimulusFile/magnitude.xlsx,,,,,,,,,,,,,,,,,,,,,,,,,,,,,,,
,,,,,,,,,,,,,,,763,2022-01-19_14h57.55.574,multiplicationStroop,2021.2.3,Win32,59.95203837,,,,,right,1,0.82,0,66,66,2,1,6,7,6 | 7,1,1.4111,1.9756,congruent,right,,,,,,stimulusFile/magnitude.xlsx,,,,,,,,,,,,,,,,,,,,,,,,,,,,,,,
,,,,,,,,,,,,,,,763,2022-01-19_14h57.55.574,multiplicationStroop,2021.2.3,Win32,59.95203837,,,,,right,1,0.627,0,67,67,67,1,4,9,4 | 9,5,1.6933,1.6933,neutral,right,,,,,,stimulusFile/magnitude.xlsx,,,,,,,,,,,,,,,,,,,,,,,,,,,,,,,
,,,,,,,,,,,,,,,763,2022-01-19_14h57.55.574,multiplicationStroop,2021.2.3,Win32,59.95203837,,,,,left,1,0.757,0,68,68,31,1,9,8,9 | 8,1,1.4111,1.9756,incongruent,left,,,,,,stimulusFile/magnitude.xlsx,,,,,,,,,,,,,,,,,,,,,,,,,,,,,,,
,,,,,,,,,,,,,,,763,2022-01-19_14h57.55.574,multiplicationStroop,2021.2.3,Win32,59.95203837,,,,,right,1,0.594,0,69,69,26,1,6,7,6 | 7,1,1.9756,1.4111,incongruent,right,,,,,,stimulusFile/magnitude.xlsx,,,,,,,,,,,,,,,,,,,,,,,,,,,,,,,
,,,,,,,,,,,,,,,763,2022-01-19_14h57.55.574,multiplicationStroop,2021.2.3,Win32,59.95203837,,,,,right,1,0.827,0,70,70,49,1,3,4,3 | 4,1,1.6933,1.6933,neutral,right,,,,,,stimulusFile/magnitude.xlsx,,,,,,,,,,,,,,,,,,,,,,,,,,,,,,,
,,,,,,,,,,,,,,,763,2022-01-19_14h57.55.574,multiplicationStroop,2021.2.3,Win32,59.95203837,,,,,right,1,0.479,0,71,71,56,1,1,3,1 | 3,2,1.6933,1.6933,neutral,right,,,,,,stimulusFile/magnitude.xlsx,,,,,,,,,,,,,,,,,,,,,,,,,,,,,,,
,,,,,,,,,,,,,,,763,2022-01-19_14h57.55.574,multiplicationStroop,2021.2.3,Win32,59.95203837,,,,,,,,,,,,,,,,,,,,,0,1,1,0,1,stimulusFile/magnitude.xlsx,NUMERICALLY larger (larger coefficient).,images/numericallyLarger.png,,,,,,,,,,,,,,,,,,,,,,,,,,,,,
,,,,,,,,,,,,,,,763,2022-01-19_14h57.55.574,multiplicationStroop,2021.2.3,Win32,59.95203837,,,,,,,,,,,,,,,,,,,,,,,,,,,,,space,8.15,space,1.958,72,2.613,1,0,0,0,25,1,9,×,8,9 × 8,neutral,largerFirst,1.5,1.5,72,,,,,,,,
,,,,,,,,,,,,,,,763,2022-01-19_14h57.55.574,multiplicationStroop,2021.2.3,Win32,59.95203837,,,,,,,,,,,,,,,,,,,,,,,,,,,,,,,,,20,1.982,1,0,1,1,6,1,4,×,5,4 × 5,neutral,smallerFirst,1.5,1.5,20,,,,,,,,
,,,,,,,,,,,,,,,763,2022-01-19_14h57.55.574,multiplicationStroop,2021.2.3,Win32,59.95203837,,,,,,,,,,,,,,,,,,,,,,,,,,,,,,,,,9,1.381,1,0,2,2,29,1,3,×,3,3 × 3,neutral,tie,1.5,1.5,9,,,,,,,,
,,,,,,,,,,,,,,,763,2022-01-19_14h57.55.574,multiplicationStroop,2021.2.3,Win32,59.95203837,,,,,,,,,,,,,,,,,,,,,,,,,,,,,,,,,14,1.58,1,0,3,3,2,1,2,×,7,2 × 7,neutral,smallerFirst,1.5,1.5,14,,,,,,,,
,,,,,,,,,,,,,,,763,2022-01-19_14h57.55.574,multiplicationStroop,2021.2.3,Win32,59.95203837,,,,,,,,,,,,,,,,,,,,,,,,,,,,,,,,,16,1.649,1,0,4,4,30,1,4,×,4,4 × 4,neutral,tie,1.5,1.5,16,,,,,,,,
,,,,,,,,,,,,,,,763,2022-01-19_14h57.55.574,multiplicationStroop,2021.2.3,Win32,59.95203837,,,,,,,,,,,,,,,,,,,,,,,,,,,,,,,,,6,1.665,1,0,5,5,12,1,2,×,3,2 × 3,neutral,smallerFirst,1.5,1.5,6,,,,,,,,
,,,,,,,,,,,,,,,763,2022-01-19_14h57.55.574,multiplicationStroop,2021.2.3,Win32,59.95203837,,,,,,,,,,,,,,,,,,,,,,,,,,,,,,,,,48,1.961,1,0,6,6,1,1,6,×,8,6 × 8,neutral,smallerFirst,1.5,1.5,48,,,,,,,,
,,,,,,,,,,,,,,,763,2022-01-19_14h57.55.574,multiplicationStroop,2021.2.3,Win32,59.95203837,,,,,,,,,,,,,,,,,,,,,,,,,,,,,,,,,25,1.83,1,0,7,7,31,1,5,×,5,5 × 5,neutral,tie,1.5,1.5,25,,,,,,,,
,,,,,,,,,,,,,,,763,2022-01-19_14h57.55.574,multiplicationStroop,2021.2.3,Win32,59.95203837,,,,,,,,,,,,,,,,,,,,,,,,,,,,,,,,,28,1.812,1,0,8,8,3,1,4,×,7,4 × 7,neutral,smallerFirst,1.5,1.5,28,,,,,,,,
,,,,,,,,,,,,,,,763,2022-01-19_14h57.55.574,multiplicationStroop,2021.2.3,Win32,59.95203837,,,,,,,,,,,,,,,,,,,,,,,,,,,,,,,,,32,1.547,1,0,9,9,9,1,4,×,8,4 × 8,neutral,smallerFirst,1.5,1.5,32,,,,,,,,
,,,,,,,,,,,,,,,763,2022-01-19_14h57.55.574,multiplicationStroop,2021.2.3,Win32,59.95203837,,,,,,,,,,,,,,,,,,,,,,,,,,,,,,,,,16,2.981,1,0,10,10,27,1,8,×,2,8 × 2,neutral,largerFirst,1.5,1.5,16,,,,,,,,
,,,,,,,,,,,,,,,763,2022-01-19_14h57.55.574,multiplicationStroop,2021.2.3,Win32,59.95203837,,,,,,,,,,,,,,,,,,,,,,,,,,,,,,,,,15,1.531,1,0,11,11,19,1,5,×,3,5 × 3,neutral,largerFirst,1.5,1.5,15,,,,,,,,
,,,,,,,,,,,,,,,763,2022-01-19_14h57.55.574,multiplicationStroop,2021.2.3,Win32,59.95203837,,,,,,,,,,,,,,,,,,,,,,,,,,,,,,,,,21,1.566,1,0,12,12,22,1,7,×,3,7 × 3,neutral,largerFirst,1.5,1.5,21,,,,,,,,
,,,,,,,,,,,,,,,763,2022-01-19_14h57.55.574,multiplicationStroop,2021.2.3,Win32,59.95203837,,,,,,,,,,,,,,,,,,,,,,,,,,,,,,,,,8,1.481,1,0,13,13,17,1,4,×,2,4 × 2,neutral,largerFirst,1.5,1.5,8,,,,,,,,
,,,,,,,,,,,,,,,763,2022-01-19_14h57.55.574,multiplicationStroop,2021.2.3,Win32,59.95203837,,,,,,,,,,,,,,,,,,,,,,,,,,,,,,,,,35,1.848,1,0,14,14,15,1,7,×,5,7 × 5,neutral,largerFirst,1.5,1.5,35,,,,,,,,
,,,,,,,,,,,,,,,763,2022-01-19_14h57.55.574,multiplicationStroop,2021.2.3,Win32,59.95203837,,,,,,,,,,,,,,,,,,,,,,,,,,,,,,,,,54,3.563,1,0,15,15,21,1,9,×,6,9 × 6,neutral,largerFirst,1.5,1.5,54,,,,,,,,
,,,,,,,,,,,,,,,763,2022-01-19_14h57.55.574,multiplicationStroop,2021.2.3,Win32,59.95203837,,,,,,,,,,,,,,,,,,,,,,,,,,,,,,,,,42,2.566,1,0,16,16,20,1,7,×,6,7 × 6,neutral,largerFirst,1.5,1.5,42,,,,,,,,
,,,,,,,,,,,,,,,763,2022-01-19_14h57.55.574,multiplicationStroop,2021.2.3,Win32,59.95203837,,,,,,,,,,,,,,,,,,,,,,,,,,,,,,,,,36,1.763,1,0,17,17,32,1,6,×,6,6 × 6,neutral,tie,1.5,1.5,36,,,,,,,,
,,,,,,,,,,,,,,,763,2022-01-19_14h57.55.574,multiplicationStroop,2021.2.3,Win32,59.95203837,,,,,,,,,,,,,,,,,,,,,,,,,,,,,,,,,12,1.566,1,0,18,18,11,1,2,×,6,2 × 6,neutral,smallerFirst,1.5,1.5,12,,,,,,,,
,,,,,,,,,,,,,,,763,2022-01-19_14h57.55.574,multiplicationStroop,2021.2.3,Win32,59.95203837,,,,,,,,,,,,,,,,,,,,,,,,,,,,,,,,,10,1.582,1,0,19,19,18,1,5,×,2,5 × 2,neutral,largerFirst,1.5,1.5,10,,,,,,,,
,,,,,,,,,,,,,,,763,2022-01-19_14h57.55.574,multiplicationStroop,2021.2.3,Win32,59.95203837,,,,,,,,,,,,,,,,,,,,,,,,,,,,,,,,,4,1.315,1,0,20,20,28,1,2,×,2,2 × 2,neutral,tie,1.5,1.5,4,,,,,,,,
,,,,,,,,,,,,,,,763,2022-01-19_14h57.55.574,multiplicationStroop,2021.2.3,Win32,59.95203837,,,,,,,,,,,,,,,,,,,,,,,,,,,,,,,,,18,1.615,1,0,21,21,4,1,2,×,9,2 × 9,neutral,smallerFirst,1.5,1.5,18,,,,,,,,
,,,,,,,,,,,,,,,763,2022-01-19_14h57.55.574,multiplicationStroop,2021.2.3,Win32,59.95203837,,,,,,,,,,,,,,,,,,,,,,,,,,,,,,,,,30,1.814,1,0,22,22,5,1,5,×,6,5 × 6,neutral,smallerFirst,1.5,1.5,30,,,,,,,,
,,,,,,,,,,,,,,,763,2022-01-19_14h57.55.574,multiplicationStroop,2021.2.3,Win32,59.95203837,,,,,,,,,,,,,,,,,,,,,,,,,,,,,,,,,27,1.799,1,0,23,23,0,1,3,×,9,3 × 9,neutral,smallerFirst,1.5,1.5,27,,,,,,,,
,,,,,,,,,,,,,,,763,2022-01-19_14h57.55.574,multiplicationStroop,2021.2.3,Win32,59.95203837,,,,,,,,,,,,,,,,,,,,,,,,,,,,,,,,,64,1.694,1,0,24,24,34,1,8,×,8,8 × 8,neutral,tie,1.5,1.5,64,,,,,,,,
,,,,,,,,,,,,,,,763,2022-01-19_14h57.55.574,multiplicationStroop,2021.2.3,Win32,59.95203837,,,,,,,,,,,,,,,,,,,,,,,,,,,,,,,,,45,1.481,1,0,25,25,24,1,9,×,5,9 × 5,neutral,largerFirst,1.5,1.5,45,,,,,,,,
,,,,,,,,,,,,,,,763,2022-01-19_14h57.55.574,multiplicationStroop,2021.2.3,Win32,59.95203837,,,,,,,,,,,,,,,,,,,,,,,,,,,,,,,,,18,2.015,1,0,26,26,14,1,6,×,3,6 × 3,neutral,largerFirst,1.5,1.5,18,,,,,,,,
,,,,,,,,,,,,,,,763,2022-01-19_14h57.55.574,multiplicationStroop,2021.2.3,Win32,59.95203837,,,,,,,,,,,,,,,,,,,,,,,,,,,,,,,,,12,1.295,1,0,27,27,7,1,3,×,4,3 × 4,neutral,smallerFirst,1.5,1.5,12,,,,,,,,
,,,,,,,,,,,,,,,763,2022-01-19_14h57.55.574,multiplicationStroop,2021.2.3,Win32,59.95203837,,,,,,,,,,,,,,,,,,,,,,,,,,,,,,,,,81,2.063,1,0,28,28,35,1,9,×,9,9 × 9,neutral,tie,1.5,1.5,81,,,,,,,,
,,,,,,,,,,,,,,,763,2022-01-19_14h57.55.574,multiplicationStroop,2021.2.3,Win32,59.95203837,,,,,,,,,,,,,,,,,,,,,,,,,,,,,,,,,63,2.913,1,0,29,29,26,1,9,×,7,9 × 7,neutral,largerFirst,1.5,1.5,63,,,,,,,,
,,,,,,,,,,,,,,,763,2022-01-19_14h57.55.574,multiplicationStroop,2021.2.3,Win32,59.95203837,,,,,,,,,,,,,,,,,,,,,,,,,,,,,,,,,24,1.931,1,0,30,30,8,1,3,×,8,3 × 8,neutral,smallerFirst,1.5,1.5,24,,,,,,,,
,,,,,,,,,,,,,,,763,2022-01-19_14h57.55.574,multiplicationStroop,2021.2.3,Win32,59.95203837,,,,,,,,,,,,,,,,,,,,,,,,,,,,,,,,,49,2.649,1,0,31,31,33,1,7,×,7,7 × 7,neutral,tie,1.5,1.5,49,,,,,,,,
,,,,,,,,,,,,,,,763,2022-01-19_14h57.55.574,multiplicationStroop,2021.2.3,Win32,59.95203837,,,,,,,,,,,,,,,,,,,,,,,,,,,,,,,,,36,3.01,1,0,32,32,13,1,4,×,9,4 × 9,neutral,smallerFirst,1.5,1.5,36,,,,,,,,
,,,,,,,,,,,,,,,763,2022-01-19_14h57.55.574,multiplicationStroop,2021.2.3,Win32,59.95203837,,,,,,,,,,,,,,,,,,,,,,,,,,,,,,,,,40,1.796,1,0,33,33,10,1,5,×,8,5 × 8,neutral,smallerFirst,1.5,1.5,40,,,,,,,,
,,,,,,,,,,,,,,,763,2022-01-19_14h57.55.574,multiplicationStroop,2021.2.3,Win32,59.95203837,,,,,,,,,,,,,,,,,,,,,,,,,,,,,,,,,56,1.797,1,0,34,34,23,1,8,×,7,8 × 7,neutral,largerFirst,1.5,1.5,56,,,,,,,,
,,,,,,,,,,,,,,,763,2022-01-19_14h57.55.574,multiplicationStroop,2021.2.3,Win32,59.95203837,,,,,,,,,,,,,,,,,,,,,,,,,,,,,,,,,24,1.814,1,0,35,35,16,1,6,×,4,6 × 4,neutral,largerFirst,1.5,1.5,24,,,,,,,,
,,,,,,,,,,,,,,,763,2022-01-19_14h57.55.574,multiplicationStroop,2021.2.3,Win32,59.95203837,,,,,,,,,,,,,,,,,,,,,,,,,,,,,,,,,,,,,,,,,,,,,,,,,,0,0,0,0,1,stimulusFile/mult_blk1.xlsx,,
,,,,,,,,,,,,,,,763,2022-01-19_14h57.55.574,multiplicationStroop,2021.2.3,Win32,59.95203837,,,,,,,,,,,,,,,,,,,,,,,,,,,,,,,space,97.172,27,2.657,1,0,0,0,4,1,3,×,9,3 × 9,incongruent,smallerFirst,2,1,27,,,,,,,,
,,,,,,,,,,,,,,,763,2022-01-19_14h57.55.574,multiplicationStroop,2021.2.3,Win32,59.95203837,,,,,,,,,,,,,,,,,,,,,,,,,,,,,,,,,45,1.647,1,0,1,1,8,1,5,×,9,5 × 9,incongruent,smallerFirst,2,1,45,,,,,,,,
,,,,,,,,,,,,,,,763,2022-01-19_14h57.55.574,multiplicationStroop,2021.2.3,Win32,59.95203837,,,,,,,,,,,,,,,,,,,,,,,,,,,,,,,,,8,1.562,1,0,2,2,10,1,2,×,4,2 × 4,incongruent,smallerFirst,2,1,8,,,,,,,,
,,,,,,,,,,,,,,,763,2022-01-19_14h57.55.574,multiplicationStroop,2021.2.3,Win32,59.95203837,,,,,,,,,,,,,,,,,,,,,,,,,,,,,,,,,18,1.565,1,0,3,3,16,1,9,×,2,9 × 2,incongruent,largerFirst,1,2,18,,,,,,,,
,,,,,,,,,,,,,,,763,2022-01-19_14h57.55.574,multiplicationStroop,2021.2.3,Win32,59.95203837,,,,,,,,,,,,,,,,,,,,,,,,,,,,,,,,,63,2.132,1,0,4,4,17,1,9,×,7,9 × 7,incongruent,largerFirst,1,2,63,,,,,,,,
,,,,,,,,,,,,,,,763,2022-01-19_14h57.55.574,multiplicationStroop,2021.2.3,Win32,59.95203837,,,,,,,,,,,,,,,,,,,,,,,,,,,,,,,,,48,2.031,1,0,5,5,15,1,8,×,6,8 × 6,incongruent,largerFirst,1,2,48,,,,,,,,
,,,,,,,,,,,,,,,763,2022-01-19_14h57.55.574,multiplicationStroop,2021.2.3,Win32,59.95203837,,,,,,,,,,,,,,,,,,,,,,,,,,,,,,,,,20,1.747,1,0,6,6,13,1,4,×,5,4 × 5,incongruent,smallerFirst,2,1,20,,,,,,,,
,,,,,,,,,,,,,,,763,2022-01-19_14h57.55.574,multiplicationStroop,2021.2.3,Win32,59.95203837,,,,,,,,,,,,,,,,,,,,,,,,,,,,,,,,,12,1.496,1,0,7,7,19,1,4,×,3,4 × 3,incongruent,largerFirst,1,2,12,,,,,,,,
,,,,,,,,,,,,,,,763,2022-01-19_14h57.55.574,multiplicationStroop,2021.2.3,Win32,59.95203837,,,,,,,,,,,,,,,,,,,,,,,,,,,,,,,,,24,1.582,1,0,8,8,6,1,4,×,6,4 × 6,incongruent,smallerFirst,2,1,24,,,,,,,,
,,,,,,,,,,,,,,,763,2022-01-19_14h57.55.574,multiplicationStroop,2021.2.3,Win32,59.95203837,,,,,,,,,,,,,,,,,,,,,,,,,,,,,,,,,56,2.415,1,0,9,9,0,1,7,×,8,7 × 8,incongruent,smallerFirst,2,1,56,,,,,,,,
,,,,,,,,,,,,,,,763,2022-01-19_14h57.55.574,multiplicationStroop,2021.2.3,Win32,59.95203837,,,,,,,,,,,,,,,,,,,,,,,,,,,,,,,,,49,2.198,1,0,10,10,33,1,7,×,7,7 × 7,neutral,tie,2,1,49,,,,,,,,
,,,,,,,,,,,,,,,763,2022-01-19_14h57.55.574,multiplicationStroop,2021.2.3,Win32,59.95203837,,,,,,,,,,,,,,,,,,,,,,,,,,,,,,,,,10,1.398,1,0,11,11,7,1,2,×,5,2 × 5,incongruent,smallerFirst,2,1,10,,,,,,,,
,,,,,,,,,,,,,,,763,2022-01-19_14h57.55.574,multiplicationStroop,2021.2.3,Win32,59.95203837,,,,,,,,,,,,,,,,,,,,,,,,,,,,,,,,,32,1.399,1,0,12,12,21,1,8,×,4,8 × 4,incongruent,largerFirst,1,2,32,,,,,,,,
,,,,,,,,,,,,,,,763,2022-01-19_14h57.55.574,multiplicationStroop,2021.2.3,Win32,59.95203837,,,,,,,,,,,,,,,,,,,,,,,,,,,,,,,,,54,1.982,1,0,13,13,20,1,9,×,6,9 × 6,incongruent,largerFirst,1,2,54,,,,,,,,
,,,,,,,,,,,,,,,763,2022-01-19_14h57.55.574,multiplicationStroop,2021.2.3,Win32,59.95203837,,,,,,,,,,,,,,,,,,,,,,,,,,,,,,,,,18,1.58,1,0,14,14,22,1,6,×,3,6 × 3,incongruent,largerFirst,1,2,18,,,,,,,,
,,,,,,,,,,,,,,,763,2022-01-19_14h57.55.574,multiplicationStroop,2021.2.3,Win32,59.95203837,,,,,,,,,,,,,,,,,,,,,,,,,,,,,,,,,64,1.797,1,0,15,15,34,1,8,×,8,8 × 8,neutral,tie,2,1,64,,,,,,,,
,,,,,,,,,,,,,,,763,2022-01-19_14h57.55.574,multiplicationStroop,2021.2.3,Win32,59.95203837,,,,,,,,,,,,,,,,,,,,,,,,,,,,,,,,,40,1.848,1,0,16,16,27,1,8,×,5,8 × 5,incongruent,largerFirst,1,2,40,,,,,,,,
,,,,,,,,,,,,,,,763,2022-01-19_14h57.55.574,multiplicationStroop,2021.2.3,Win32,59.95203837,,,,,,,,,,,,,,,,,,,,,,,,,,,,,,,,,16,1.746,1,0,17,17,30,1,4,×,4,4 × 4,neutral,tie,2,1,16,,,,,,,,
,,,,,,,,,,,,,,,763,2022-01-19_14h57.55.574,multiplicationStroop,2021.2.3,Win32,59.95203837,,,,,,,,,,,,,,,,,,,,,,,,,,,,,,,,,81,1.847,1,0,18,18,35,1,9,×,9,9 × 9,neutral,tie,2,1,81,,,,,,,,
,,,,,,,,,,,,,,,763,2022-01-19_14h57.55.574,multiplicationStroop,2021.2.3,Win32,59.95203837,,,,,,,,,,,,,,,,,,,,,,,,,,,,,,,,,9,3.414,1,0,19,19,29,1,3,×,3,3 × 3,neutral,tie,2,1,9,,,,,,,,
,,,,,,,,,,,,,,,763,2022-01-19_14h57.55.574,multiplicationStroop,2021.2.3,Win32,59.95203837,,,,,,,,,,,,,,,,,,,,,,,,,,,,,,,,,36,2.247,1,0,20,20,1,1,4,×,9,4 × 9,incongruent,smallerFirst,2,1,36,,,,,,,,
,,,,,,,,,,,,,,,763,2022-01-19_14h57.55.574,multiplicationStroop,2021.2.3,Win32,59.95203837,,,,,,,,,,,,,,,,,,,,,,,,,,,,,,,,,72,1.898,1,0,21,21,14,1,9,×,8,9 × 8,incongruent,largerFirst,1,2,72,,,,,,,,
,,,,,,,,,,,,,,,763,2022-01-19_14h57.55.574,multiplicationStroop,2021.2.3,Win32,59.95203837,,,,,,,,,,,,,,,,,,,,,,,,,,,,,,,,,12,1.616,1,0,22,22,5,1,2,×,6,2 × 6,incongruent,smallerFirst,2,1,12,,,,,,,,
,,,,,,,,,,,,,,,763,2022-01-19_14h57.55.574,multiplicationStroop,2021.2.3,Win32,59.95203837,,,,,,,,,,,,,,,,,,,,,,,,,,,,,,,,,15,1.744,1,0,23,23,24,1,5,×,3,5 × 3,incongruent,largerFirst,1,2,15,,,,,,,,
,,,,,,,,,,,,,,,763,2022-01-19_14h57.55.574,multiplicationStroop,2021.2.3,Win32,59.95203837,,,,,,,,,,,,,,,,,,,,,,,,,,,,,,,,,42,3.745,1,0,24,24,3,1,6,×,7,6 × 7,incongruent,smallerFirst,2,1,42,,,,,,,,
,,,,,,,,,,,,,,,763,2022-01-19_14h57.55.574,multiplicationStroop,2021.2.3,Win32,59.95203837,,,,,,,,,,,,,,,,,,,,,,,,,,,,,,,,,16,2.145,1,0,25,25,9,1,2,×,8,2 × 8,incongruent,smallerFirst,2,1,16,,,,,,,,
,,,,,,,,,,,,,,,763,2022-01-19_14h57.55.574,multiplicationStroop,2021.2.3,Win32,59.95203837,,,,,,,,,,,,,,,,,,,,,,,,,,,,,,,,,21,1.632,1,0,26,26,12,1,3,×,7,3 × 7,incongruent,smallerFirst,2,1,21,,,,,,,,
,,,,,,,,,,,,,,,763,2022-01-19_14h57.55.574,multiplicationStroop,2021.2.3,Win32,59.95203837,,,,,,,,,,,,,,,,,,,,,,,,,,,,,,,,,25,2.281,1,0,27,27,31,1,5,×,5,5 × 5,neutral,tie,2,1,25,,,,,,,,
,,,,,,,,,,,,,,,763,2022-01-19_14h57.55.574,multiplicationStroop,2021.2.3,Win32,59.95203837,,,,,,,,,,,,,,,,,,,,,,,,,,,,,,,,,35,1.915,1,0,28,28,26,1,7,×,5,7 × 5,incongruent,largerFirst,1,2,35,,,,,,,,
,,,,,,,,,,,,,,,763,2022-01-19_14h57.55.574,multiplicationStroop,2021.2.3,Win32,59.95203837,,,,,,,,,,,,,,,,,,,,,,,,,,,,,,,,,24,1.599,1,0,29,29,23,1,8,×,3,8 × 3,incongruent,largerFirst,1,2,24,,,,,,,,
,,,,,,,,,,,,,,,763,2022-01-19_14h57.55.574,multiplicationStroop,2021.2.3,Win32,59.95203837,,,,,,,,,,,,,,,,,,,,,,,,,,,,,,,,,14,2.148,1,0,30,30,18,1,7,×,2,7 × 2,incongruent,largerFirst,1,2,14,,,,,,,,
,,,,,,,,,,,,,,,763,2022-01-19_14h57.55.574,multiplicationStroop,2021.2.3,Win32,59.95203837,,,,,,,,,,,,,,,,,,,,,,,,,,,,,,,,,36,2.798,1,0,31,31,32,1,6,×,6,6 × 6,neutral,tie,2,1,36,,,,,,,,
,,,,,,,,,,,,,,,763,2022-01-19_14h57.55.574,multiplicationStroop,2021.2.3,Win32,59.95203837,,,,,,,,,,,,,,,,,,,,,,,,,,,,,,,,,4,1.715,1,0,32,32,28,1,2,×,2,2 × 2,neutral,tie,2,1,4,,,,,,,,
,,,,,,,,,,,,,,,763,2022-01-19_14h57.55.574,multiplicationStroop,2021.2.3,Win32,59.95203837,,,,,,,,,,,,,,,,,,,,,,,,,,,,,,,,,28,1.999,1,0,33,33,2,1,4,×,7,4 × 7,incongruent,smallerFirst,2,1,28,,,,,,,,
,,,,,,,,,,,,,,,763,2022-01-19_14h57.55.574,multiplicationStroop,2021.2.3,Win32,59.95203837,,,,,,,,,,,,,,,,,,,,,,,,,,,,,,,,,6,1.515,1,0,34,34,25,1,3,×,2,3 × 2,incongruent,largerFirst,1,2,6,,,,,,,,
,,,,,,,,,,,,,,,763,2022-01-19_14h57.55.574,multiplicationStroop,2021.2.3,Win32,59.95203837,,,,,,,,,,,,,,,,,,,,,,,,,,,,,,,,,30,2.015,1,0,35,35,11,1,5,×,6,5 × 6,incongruent,smallerFirst,2,1,30,,,,,,,,
,,,,,,,,,,,,,,,763,2022-01-19_14h57.55.574,multiplicationStroop,2021.2.3,Win32,59.95203837,,,,,,,,,,,,,,,,,,,,,,,,,,,,,,,,,,,,,,,,,,,,,,,,,,0,1,1,4,1,stimulusFile/mult_blk5_INcongruent.xlsx,,
,,,,,,,,,,,,,,,763,2022-01-19_14h57.55.574,multiplicationStroop,2021.2.3,Win32,59.95203837,,,,,,,,,,,,,,,,,,,,,,,,,,,,,,,space,39.185,27,1.925,1,0,0,0,18,1,9,×,3,9 × 3,incongruent,largerFirst,1,2,27,,,,,,,,
,,,,,,,,,,,,,,,763,2022-01-19_14h57.55.574,multiplicationStroop,2021.2.3,Win32,59.95203837,,,,,,,,,,,,,,,,,,,,,,,,,,,,,,,,,12,1.347,1,0,1,1,19,1,6,×,2,6 × 2,incongruent,largerFirst,1,2,12,,,,,,,,
,,,,,,,,,,,,,,,763,2022-01-19_14h57.55.574,multiplicationStroop,2021.2.3,Win32,59.95203837,,,,,,,,,,,,,,,,,,,,,,,,,,,,,,,,,4,1.38,1,0,2,2,28,1,2,×,2,2 × 2,incongruent,tie,1,2,4,,,,,,,,
,,,,,,,,,,,,,,,763,2022-01-19_14h57.55.574,multiplicationStroop,2021.2.3,Win32,59.95203837,,,,,,,,,,,,,,,,,,,,,,,,,,,,,,,,,36,1.747,1,0,3,3,15,1,9,×,4,9 × 4,incongruent,largerFirst,1,2,36,,,,,,,,
,,,,,,,,,,,,,,,763,2022-01-19_14h57.55.574,multiplicationStroop,2021.2.3,Win32,59.95203837,,,,,,,,,,,,,,,,,,,,,,,,,,,,,,,,,16,1.597,1,0,4,4,30,1,4,×,4,4 × 4,incongruent,tie,1,2,16,,,,,,,,
,,,,,,,,,,,,,,,763,2022-01-19_14h57.55.574,multiplicationStroop,2021.2.3,Win32,59.95203837,,,,,,,,,,,,,,,,,,,,,,,,,,,,,,,,,8,1.432,1,0,5,5,24,1,4,×,2,4 × 2,incongruent,largerFirst,1,2,8,,,,,,,,
,,,,,,,,,,,,,,,763,2022-01-19_14h57.55.574,multiplicationStroop,2021.2.3,Win32,59.95203837,,,,,,,,,,,,,,,,,,,,,,,,,,,,,,,,,18,1.798,1,0,6,6,8,1,3,×,6,3 × 6,incongruent,smallerFirst,2,1,18,,,,,,,,
,,,,,,,,,,,,,,,763,2022-01-19_14h57.55.574,multiplicationStroop,2021.2.3,Win32,59.95203837,,,,,,,,,,,,,,,,,,,,,,,,,,,,,,,,,35,1.649,1,0,7,7,12,1,5,×,7,5 × 7,incongruent,smallerFirst,2,1,35,,,,,,,,
,,,,,,,,,,,,,,,763,2022-01-19_14h57.55.574,multiplicationStroop,2021.2.3,Win32,59.95203837,,,,,,,,,,,,,,,,,,,,,,,,,,,,,,,,,48,1.814,1,0,8,8,1,1,6,×,8,6 × 8,incongruent,smallerFirst,2,1,48,,,,,,,,
,,,,,,,,,,,,,,,763,2022-01-19_14h57.55.574,multiplicationStroop,2021.2.3,Win32,59.95203837,,,,,,,,,,,,,,,,,,,,,,,,,,,,,,,,,28,1.747,1,0,9,9,16,1,7,×,4,7 × 4,incongruent,largerFirst,1,2,28,,,,,,,,
,,,,,,,,,,,,,,,763,2022-01-19_14h57.55.574,multiplicationStroop,2021.2.3,Win32,59.95203837,,,,,,,,,,,,,,,,,,,,,,,,,,,,,,,,,56,1.588,1,0,10,10,14,1,8,×,7,8 × 7,incongruent,largerFirst,1,2,56,,,,,,,,
,,,,,,,,,,,,,,,763,2022-01-19_14h57.55.574,multiplicationStroop,2021.2.3,Win32,59.95203837,,,,,,,,,,,,,,,,,,,,,,,,,,,,,,,,,25,1.709,1,0,11,11,31,1,5,×,5,5 × 5,incongruent,tie,1,2,25,,,,,,,,
,,,,,,,,,,,,,,,763,2022-01-19_14h57.55.574,multiplicationStroop,2021.2.3,Win32,59.95203837,,,,,,,,,,,,,,,,,,,,,,,,,,,,,,,,,63,2.282,1,0,12,12,3,1,7,×,9,7 × 9,incongruent,smallerFirst,2,1,63,,,,,,,,
,,,,,,,,,,,,,,,763,2022-01-19_14h57.55.574,multiplicationStroop,2021.2.3,Win32,59.95203837,,,,,,,,,,,,,,,,,,,,,,,,,,,,,,,,,6,1.465,1,0,13,13,11,1,2,×,3,2 × 3,incongruent,smallerFirst,2,1,6,,,,,,,,
,,,,,,,,,,,,,,,763,2022-01-19_14h57.55.574,multiplicationStroop,2021.2.3,Win32,59.95203837,,,,,,,,,,,,,,,,,,,,,,,,,,,,,,,,,24,1.915,1,0,14,14,9,1,3,×,8,3 × 8,incongruent,smallerFirst,2,1,24,,,,,,,,
,,,,,,,,,,,,,,,763,2022-01-19_14h57.55.574,multiplicationStroop,2021.2.3,Win32,59.95203837,,,,,,,,,,,,,,,,,,,,,,,,,,,,,,,,,16,2.232,1,0,15,15,23,1,8,×,2,8 × 2,incongruent,largerFirst,1,2,16,,,,,,,,
,,,,,,,,,,,,,,,763,2022-01-19_14h57.55.574,multiplicationStroop,2021.2.3,Win32,59.95203837,,,,,,,,,,,,,,,,,,,,,,,,,,,,,,,,,72,4.247,1,0,16,16,0,1,8,×,9,8 × 9,incongruent,smallerFirst,2,1,72,,,,,,,,
,,,,,,,,,,,,,,,763,2022-01-19_14h57.55.574,multiplicationStroop,2021.2.3,Win32,59.95203837,,,,,,,,,,,,,,,,,,,,,,,,,,,,,,,,,9,2.094,1,0,17,17,29,1,3,×,3,3 × 3,incongruent,tie,1,2,9,,,,,,,,
,,,,,,,,,,,,,,,763,2022-01-19_14h57.55.574,multiplicationStroop,2021.2.3,Win32,59.95203837,,,,,,,,,,,,,,,,,,,,,,,,,,,,,,,,,40,1.78,1,0,18,18,13,1,5,×,8,5 × 8,incongruent,smallerFirst,2,1,40,,,,,,,,
,,,,,,,,,,,,,,,763,2022-01-19_14h57.55.574,multiplicationStroop,2021.2.3,Win32,59.95203837,,,,,,,,,,,,,,,,,,,,,,,,,,,,,,,,,21,1.649,1,0,19,19,26,1,7,×,3,7 × 3,incongruent,largerFirst,1,2,21,,,,,,,,
,,,,,,,,,,,,,,,763,2022-01-19_14h57.55.574,multiplicationStroop,2021.2.3,Win32,59.95203837,,,,,,,,,,,,,,,,,,,,,,,,,,,,,,,,,10,2.812,1,0,20,20,21,1,5,×,2,5 × 2,incongruent,largerFirst,1,2,10,,,,,,,,
,,,,,,,,,,,,,,,763,2022-01-19_14h57.55.574,multiplicationStroop,2021.2.3,Win32,59.95203837,,,,,,,,,,,,,,,,,,,,,,,,,,,,,,,,,45,3.397,1,0,21,21,22,1,9,×,5,9 × 5,incongruent,largerFirst,1,2,45,,,,,,,,
,,,,,,,,,,,,,,,763,2022-01-19_14h57.55.574,multiplicationStroop,2021.2.3,Win32,59.95203837,,,,,,,,,,,,,,,,,,,,,,,,,,,,,,,,,64,2.431,1,0,22,22,34,1,8,×,8,8 × 8,incongruent,tie,1,2,64,,,,,,,,
,,,,,,,,,,,,,,,763,2022-01-19_14h57.55.574,multiplicationStroop,2021.2.3,Win32,59.95203837,,,,,,,,,,,,,,,,,,,,,,,,,,,,,,,,,49,2.265,1,0,23,23,33,1,7,×,7,7 × 7,incongruent,tie,1,2,49,,,,,,,,
,,,,,,,,,,,,,,,763,2022-01-19_14h57.55.574,multiplicationStroop,2021.2.3,Win32,59.95203837,,,,,,,,,,,,,,,,,,,,,,,,,,,,,,,,,42,2.965,1,0,24,24,17,1,7,×,6,7 × 6,incongruent,largerFirst,1,2,42,,,,,,,,
,,,,,,,,,,,,,,,763,2022-01-19_14h57.55.574,multiplicationStroop,2021.2.3,Win32,59.95203837,,,,,,,,,,,,,,,,,,,,,,,,,,,,,,,,,12,1.616,1,0,25,25,5,1,3,×,4,3 × 4,incongruent,smallerFirst,2,1,12,,,,,,,,
,,,,,,,,,,,,,,,763,2022-01-19_14h57.55.574,multiplicationStroop,2021.2.3,Win32,59.95203837,,,,,,,,,,,,,,,,,,,,,,,,,,,,,,,,,24,2.047,1,0,26,26,20,1,6,×,4,6 × 4,incongruent,largerFirst,1,2,24,,,,,,,,
,,,,,,,,,,,,,,,763,2022-01-19_14h57.55.574,multiplicationStroop,2021.2.3,Win32,59.95203837,,,,,,,,,,,,,,,,,,,,,,,,,,,,,,,,,18,2.463,1,0,27,27,2,1,2,×,9,2 × 9,incongruent,smallerFirst,2,1,18,,,,,,,,
,,,,,,,,,,,,,,,763,2022-01-19_14h57.55.574,multiplicationStroop,2021.2.3,Win32,59.95203837,,,,,,,,,,,,,,,,,,,,,,,,,,,,,,,,,15,2.031,1,0,28,28,10,1,3,×,5,3 × 5,incongruent,smallerFirst,2,1,15,,,,,,,,
,,,,,,,,,,,,,,,763,2022-01-19_14h57.55.574,multiplicationStroop,2021.2.3,Win32,59.95203837,,,,,,,,,,,,,,,,,,,,,,,,,,,,,,,,,30,2.614,1,0,29,29,25,1,6,×,5,6 × 5,incongruent,largerFirst,1,2,30,,,,,,,,
,,,,,,,,,,,,,,,763,2022-01-19_14h57.55.574,multiplicationStroop,2021.2.3,Win32,59.95203837,,,,,,,,,,,,,,,,,,,,,,,,,,,,,,,,,20,2.715,1,0,30,30,27,1,5,×,4,5 × 4,incongruent,largerFirst,1,2,20,,,,,,,,
,,,,,,,,,,,,,,,763,2022-01-19_14h57.55.574,multiplicationStroop,2021.2.3,Win32,59.95203837,,,,,,,,,,,,,,,,,,,,,,,,,,,,,,,,,81,2.18,1,0,31,31,35,1,9,×,9,9 × 9,incongruent,tie,1,2,81,,,,,,,,
,,,,,,,,,,,,,,,763,2022-01-19_14h57.55.574,multiplicationStroop,2021.2.3,Win32,59.95203837,,,,,,,,,,,,,,,,,,,,,,,,,,,,,,,,,14,2.046,1,0,32,32,4,1,2,×,7,2 × 7,incongruent,smallerFirst,2,1,14,,,,,,,,
,,,,,,,,,,,,,,,763,2022-01-19_14h57.55.574,multiplicationStroop,2021.2.3,Win32,59.95203837,,,,,,,,,,,,,,,,,,,,,,,,,,,,,,,,,32,2.246,1,0,33,33,7,1,4,×,8,4 × 8,incongruent,smallerFirst,2,1,32,,,,,,,,
,,,,,,,,,,,,,,,763,2022-01-19_14h57.55.574,multiplicationStroop,2021.2.3,Win32,59.95203837,,,,,,,,,,,,,,,,,,,,,,,,,,,,,,,,,36,4.797,1,0,34,34,32,1,6,×,6,6 × 6,incongruent,tie,1,2,36,,,,,,,,
,,,,,,,,,,,,,,,763,2022-01-19_14h57.55.574,multiplicationStroop,2021.2.3,Win32,59.95203837,,,,,,,,,,,,,,,,,,,,,,,,,,,,,,,,,54,2.812,1,0,35,35,6,1,6,×,9,6 × 9,incongruent,smallerFirst,2,1,54,,,,,,,,
,,,,,,,,,,,,,,,763,2022-01-19_14h57.55.574,multiplicationStroop,2021.2.3,Win32,59.95203837,,,,,,,,,,,,,,,,,,,,,,,,,,,,,,,,,,,,,,,,,,,,,,,,,,0,2,2,5,1,stimulusFile/mult_blk6_INcongruent.xlsx,,
,,,,,,,,,,,,,,,763,2022-01-19_14h57.55.574,multiplicationStroop,2021.2.3,Win32,59.95203837,,,,,,,,,,,,,,,,,,,,,,,,,,,,,,,space,13.009,20,2.574,1,0,0,0,21,1,5,×,4,5 × 4,congruent,largerFirst,2,1,20,,,,,,,,
,,,,,,,,,,,,,,,763,2022-01-19_14h57.55.574,multiplicationStroop,2021.2.3,Win32,59.95203837,,,,,,,,,,,,,,,,,,,,,,,,,,,,,,,,,14,2.048,1,0,1,1,0,1,2,×,7,2 × 7,congruent,smallerFirst,1,2,14,,,,,,,,
,,,,,,,,,,,,,,,763,2022-01-19_14h57.55.574,multiplicationStroop,2021.2.3,Win32,59.95203837,,,,,,,,,,,,,,,,,,,,,,,,,,,,,,,,,16,1.548,1,0,2,2,19,1,8,×,2,8 × 2,congruent,largerFirst,2,1,16,,,,,,,,
,,,,,,,,,,,,,,,763,2022-01-19_14h57.55.574,multiplicationStroop,2021.2.3,Win32,59.95203837,,,,,,,,,,,,,,,,,,,,,,,,,,,,,,,,,48,2.081,1,0,3,3,4,1,6,×,8,6 × 8,congruent,smallerFirst,1,2,48,,,,,,,,
,,,,,,,,,,,,,,,763,2022-01-19_14h57.55.574,multiplicationStroop,2021.2.3,Win32,59.95203837,,,,,,,,,,,,,,,,,,,,,,,,,,,,,,,,,56,1.596,1,0,4,4,22,1,8,×,7,8 × 7,congruent,largerFirst,2,1,56,,,,,,,,
,,,,,,,,,,,,,,,763,2022-01-19_14h57.55.574,multiplicationStroop,2021.2.3,Win32,59.95203837,,,,,,,,,,,,,,,,,,,,,,,,,,,,,,,,,18,1.497,1,0,5,5,8,1,2,×,9,2 × 9,congruent,smallerFirst,1,2,18,,,,,,,,
,,,,,,,,,,,,,,,763,2022-01-19_14h57.55.574,multiplicationStroop,2021.2.3,Win32,59.95203837,,,,,,,,,,,,,,,,,,,,,,,,,,,,,,,,,30,1.848,1,0,6,6,1,1,5,×,6,5 × 6,congruent,smallerFirst,1,2,30,,,,,,,,
,,,,,,,,,,,,,,,763,2022-01-19_14h57.55.574,multiplicationStroop,2021.2.3,Win32,59.95203837,,,,,,,,,,,,,,,,,,,,,,,,,,,,,,,,,24,2.182,1,0,7,7,24,1,8,×,3,8 × 3,congruent,largerFirst,2,1,24,,,,,,,,
,,,,,,,,,,,,,,,763,2022-01-19_14h57.55.574,multiplicationStroop,2021.2.3,Win32,59.95203837,,,,,,,,,,,,,,,,,,,,,,,,,,,,,,,,,40,2.23,1,0,8,8,20,1,8,×,5,8 × 5,congruent,largerFirst,2,1,40,,,,,,,,
,,,,,,,,,,,,,,,763,2022-01-19_14h57.55.574,multiplicationStroop,2021.2.3,Win32,59.95203837,,,,,,,,,,,,,,,,,,,,,,,,,,,,,,,,,49,3.18,1,0,9,9,33,1,7,×,7,7 × 7,neutral,tie,1,2,49,,,,,,,,
,,,,,,,,,,,,,,,763,2022-01-19_14h57.55.574,multiplicationStroop,2021.2.3,Win32,59.95203837,,,,,,,,,,,,,,,,,,,,,,,,,,,,,,,,,21,1.799,1,0,10,10,2,1,3,×,7,3 × 7,congruent,smallerFirst,1,2,21,,,,,,,,
,,,,,,,,,,,,,,,763,2022-01-19_14h57.55.574,multiplicationStroop,2021.2.3,Win32,59.95203837,,,,,,,,,,,,,,,,,,,,,,,,,,,,,,,,,63,4.898,1,0,11,11,7,1,7,×,9,7 × 9,congruent,smallerFirst,1,2,63,,,,,,,,
,,,,,,,,,,,,,,,763,2022-01-19_14h57.55.574,multiplicationStroop,2021.2.3,Win32,59.95203837,,,,,,,,,,,,,,,,,,,,,,,,,,,,,,,,,6,2.179,1,0,12,12,27,1,3,×,2,3 × 2,congruent,largerFirst,2,1,6,,,,,,,,
,,,,,,,,,,,,,,,763,2022-01-19_14h57.55.574,multiplicationStroop,2021.2.3,Win32,59.95203837,,,,,,,,,,,,,,,,,,,,,,,,,,,,,,,,,10,2.398,1,0,13,13,10,1,2,×,5,2 × 5,congruent,smallerFirst,1,2,10,,,,,,,,
,,,,,,,,,,,,,,,763,2022-01-19_14h57.55.574,multiplicationStroop,2021.2.3,Win32,59.95203837,,,,,,,,,,,,,,,,,,,,,,,,,,,,,,,,,54,5.015,1,0,14,14,26,1,9,×,6,9 × 6,congruent,largerFirst,2,1,54,,,,,,,,
,,,,,,,,,,,,,,,763,2022-01-19_14h57.55.574,multiplicationStroop,2021.2.3,Win32,59.95203837,,,,,,,,,,,,,,,,,,,,,,,,,,,,,,,,,4,1.282,1,0,15,15,28,1,2,×,2,2 × 2,neutral,tie,1,2,4,,,,,,,,
,,,,,,,,,,,,,,,763,2022-01-19_14h57.55.574,multiplicationStroop,2021.2.3,Win32,59.95203837,,,,,,,,,,,,,,,,,,,,,,,,,,,,,,,,,72,1.899,1,0,16,16,3,1,8,×,9,8 × 9,congruent,smallerFirst,1,2,72,,,,,,,,
,,,,,,,,,,,,,,,763,2022-01-19_14h57.55.574,multiplicationStroop,2021.2.3,Win32,59.95203837,,,,,,,,,,,,,,,,,,,,,,,,,,,,,,,,,45,2.462,1,0,17,17,9,1,5,×,9,5 × 9,congruent,smallerFirst,1,2,45,,,,,,,,
,,,,,,,,,,,,,,,763,2022-01-19_14h57.55.574,multiplicationStroop,2021.2.3,Win32,59.95203837,,,,,,,,,,,,,,,,,,,,,,,,,,,,,,,,,12,1.53,1,0,18,18,16,1,4,×,3,4 × 3,congruent,largerFirst,2,1,12,,,,,,,,
,,,,,,,,,,,,,,,763,2022-01-19_14h57.55.574,multiplicationStroop,2021.2.3,Win32,59.95203837,,,,,,,,,,,,,,,,,,,,,,,,,,,,,,,,,42,2.714,1,0,19,19,17,1,7,×,6,7 × 6,congruent,largerFirst,2,1,42,,,,,,,,
,,,,,,,,,,,,,,,763,2022-01-19_14h57.55.574,multiplicationStroop,2021.2.3,Win32,59.95203837,,,,,,,,,,,,,,,,,,,,,,,,,,,,,,,,,32,1.915,1,0,20,20,6,1,4,×,8,4 × 8,congruent,smallerFirst,1,2,32,,,,,,,,
,,,,,,,,,,,,,,,763,2022-01-19_14h57.55.574,multiplicationStroop,2021.2.3,Win32,59.95203837,,,,,,,,,,,,,,,,,,,,,,,,,,,,,,,,,28,2.049,1,0,21,21,13,1,4,×,7,4 × 7,congruent,smallerFirst,1,2,28,,,,,,,,
,,,,,,,,,,,,,,,763,2022-01-19_14h57.55.574,multiplicationStroop,2021.2.3,Win32,59.95203837,,,,,,,,,,,,,,,,,,,,,,,,,,,,,,,,,16,1.73,1,0,22,22,30,1,4,×,4,4 × 4,neutral,tie,1,2,16,,,,,,,,
,,,,,,,,,,,,,,,763,2022-01-19_14h57.55.574,multiplicationStroop,2021.2.3,Win32,59.95203837,,,,,,,,,,,,,,,,,,,,,,,,,,,,,,,,,27,7.03,1,0,23,23,12,1,3,×,9,3 × 9,congruent,smallerFirst,1,2,27,,,,,,,,
,,,,,,,,,,,,,,,763,2022-01-19_14h57.55.574,multiplicationStroop,2021.2.3,Win32,59.95203837,,,,,,,,,,,,,,,,,,,,,,,,,,,,,,,,,35,1.764,1,0,24,24,15,1,7,×,5,7 × 5,congruent,largerFirst,2,1,35,,,,,,,,
,,,,,,,,,,,,,,,763,2022-01-19_14h57.55.574,multiplicationStroop,2021.2.3,Win32,59.95203837,,,,,,,,,,,,,,,,,,,,,,,,,,,,,,,,,9,1.638,1,0,25,25,29,1,3,×,3,3 × 3,neutral,tie,1,2,9,,,,,,,,
,,,,,,,,,,,,,,,763,2022-01-19_14h57.55.574,multiplicationStroop,2021.2.3,Win32,59.95203837,,,,,,,,,,,,,,,,,,,,,,,,,,,,,,,,,18,2.209,1,0,26,26,25,1,6,×,3,6 × 3,congruent,largerFirst,2,1,18,,,,,,,,
,,,,,,,,,,,,,,,763,2022-01-19_14h57.55.574,multiplicationStroop,2021.2.3,Win32,59.95203837,,,,,,,,,,,,,,,,,,,,,,,,,,,,,,,,,25,1.68,1,0,27,27,31,1,5,×,5,5 × 5,neutral,tie,1,2,25,,,,,,,,
,,,,,,,,,,,,,,,763,2022-01-19_14h57.55.574,multiplicationStroop,2021.2.3,Win32,59.95203837,,,,,,,,,,,,,,,,,,,,,,,,,,,,,,,,,12,1.648,1,0,28,28,5,1,2,×,6,2 × 6,congruent,smallerFirst,1,2,12,,,,,,,,
,,,,,,,,,,,,,,,763,2022-01-19_14h57.55.574,multiplicationStroop,2021.2.3,Win32,59.95203837,,,,,,,,,,,,,,,,,,,,,,,,,,,,,,,,,15,1.515,1,0,29,29,18,1,5,×,3,5 × 3,congruent,largerFirst,2,1,15,,,,,,,,
,,,,,,,,,,,,,,,763,2022-01-19_14h57.55.574,multiplicationStroop,2021.2.3,Win32,59.95203837,,,,,,,,,,,,,,,,,,,,,,,,,,,,,,,,,64,1.882,1,0,30,30,34,1,8,×,8,8 × 8,neutral,tie,1,2,64,,,,,,,,
,,,,,,,,,,,,,,,763,2022-01-19_14h57.55.574,multiplicationStroop,2021.2.3,Win32,59.95203837,,,,,,,,,,,,,,,,,,,,,,,,,,,,,,,,,36,3.081,1,0,31,31,32,1,6,×,6,6 × 6,neutral,tie,1,2,36,,,,,,,,
,,,,,,,,,,,,,,,763,2022-01-19_14h57.55.574,multiplicationStroop,2021.2.3,Win32,59.95203837,,,,,,,,,,,,,,,,,,,,,,,,,,,,,,,,,81,1.611,1,0,32,32,35,1,9,×,9,9 × 9,neutral,tie,1,2,81,,,,,,,,
,,,,,,,,,,,,,,,763,2022-01-19_14h57.55.574,multiplicationStroop,2021.2.3,Win32,59.95203837,,,,,,,,,,,,,,,,,,,,,,,,,,,,,,,,,36,2.697,1,0,33,33,14,1,9,×,4,9 × 4,congruent,largerFirst,2,1,36,,,,,,,,
,,,,,,,,,,,,,,,763,2022-01-19_14h57.55.574,multiplicationStroop,2021.2.3,Win32,59.95203837,,,,,,,,,,,,,,,,,,,,,,,,,,,,,,,,,24,1.68,1,0,34,34,11,1,4,×,6,4 × 6,congruent,smallerFirst,1,2,24,,,,,,,,
,,,,,,,,,,,,,,,763,2022-01-19_14h57.55.574,multiplicationStroop,2021.2.3,Win32,59.95203837,,,,,,,,,,,,,,,,,,,,,,,,,,,,,,,,,8,1.497,1,0,35,35,23,1,4,×,2,4 × 2,congruent,largerFirst,2,1,8,,,,,,,,
,,,,,,,,,,,,,,,763,2022-01-19_14h57.55.574,multiplicationStroop,2021.2.3,Win32,59.95203837,,,,,,,,,,,,,,,,,,,,,,,,,,,,,,,,,,,,,,,,,,,,,,,,,,0,3,3,3,1,stimulusFile/mult_blk4_congruent.xlsx,,
,,,,,,,,,,,,,,,763,2022-01-19_14h57.55.574,multiplicationStroop,2021.2.3,Win32,59.95203837,,,,,,,,,,,,,,,,,,,,,,,,,,,,,,,space,12.792,54,3.556,1,0,0,0,7,1,6,×,9,6 × 9,neutral,smallerFirst,1.5,1.5,54,,,,,,,,
,,,,,,,,,,,,,,,763,2022-01-19_14h57.55.574,multiplicationStroop,2021.2.3,Win32,59.95203837,,,,,,,,,,,,,,,,,,,,,,,,,,,,,,,,,10,1.948,1,0,1,1,4,1,2,×,5,2 × 5,neutral,smallerFirst,1.5,1.5,10,,,,,,,,
,,,,,,,,,,,,,,,763,2022-01-19_14h57.55.574,multiplicationStroop,2021.2.3,Win32,59.95203837,,,,,,,,,,,,,,,,,,,,,,,,,,,,,,,,,16,1.464,1,0,2,2,13,1,2,×,8,2 × 8,neutral,smallerFirst,1.5,1.5,16,,,,,,,,
,,,,,,,,,,,,,,,763,2022-01-19_14h57.55.574,multiplicationStroop,2021.2.3,Win32,59.95203837,,,,,,,,,,,,,,,,,,,,,,,,,,,,,,,,,36,1.831,1,0,3,3,27,1,9,×,4,9 × 4,neutral,largerFirst,1.5,1.5,36,,,,,,,,
,,,,,,,,,,,,,,,763,2022-01-19_14h57.55.574,multiplicationStroop,2021.2.3,Win32,59.95203837,,,,,,,,,,,,,,,,,,,,,,,,,,,,,,,,,6,1.482,1,0,4,4,26,1,3,×,2,3 × 2,neutral,largerFirst,1.5,1.5,6,,,,,,,,
,,,,,,,,,,,,,,,763,2022-01-19_14h57.55.574,multiplicationStroop,2021.2.3,Win32,59.95203837,,,,,,,,,,,,,,,,,,,,,,,,,,,,,,,,,30,1.761,1,0,5,5,19,1,6,×,5,6 × 5,neutral,largerFirst,1.5,1.5,30,,,,,,,,
,,,,,,,,,,,,,,,763,2022-01-19_14h57.55.574,multiplicationStroop,2021.2.3,Win32,59.95203837,,,,,,,,,,,,,,,,,,,,,,,,,,,,,,,,,48,1.945,1,0,6,6,15,1,8,×,6,8 × 6,neutral,largerFirst,1.5,1.5,48,,,,,,,,
,,,,,,,,,,,,,,,763,2022-01-19_14h57.55.574,multiplicationStroop,2021.2.3,Win32,59.95203837,,,,,,,,,,,,,,,,,,,,,,,,,,,,,,,,,20,1.697,1,0,7,7,20,1,5,×,4,5 × 4,neutral,largerFirst,1.5,1.5,20,,,,,,,,
,,,,,,,,,,,,,,,763,2022-01-19_14h57.55.574,multiplicationStroop,2021.2.3,Win32,59.95203837,,,,,,,,,,,,,,,,,,,,,,,,,,,,,,,,,32,1.764,1,0,8,8,23,1,8,×,4,8 × 4,neutral,largerFirst,1.5,1.5,32,,,,,,,,
,,,,,,,,,,,,,,,763,2022-01-19_14h57.55.574,multiplicationStroop,2021.2.3,Win32,59.95203837,,,,,,,,,,,,,,,,,,,,,,,,,,,,,,,,,16,1.416,1,0,9,9,30,1,4,×,4,4 × 4,neutral,tie,1.5,1.5,16,,,,,,,,
,,,,,,,,,,,,,,,763,2022-01-19_14h57.55.574,multiplicationStroop,2021.2.3,Win32,59.95203837,,,,,,,,,,,,,,,,,,,,,,,,,,,,,,,,,63,2.963,1,0,10,10,12,1,7,×,9,7 × 9,neutral,smallerFirst,1.5,1.5,63,,,,,,,,
,,,,,,,,,,,,,,,763,2022-01-19_14h57.55.574,multiplicationStroop,2021.2.3,Win32,59.95203837,,,,,,,,,,,,,,,,,,,,,,,,,,,,,,,,,9,2.68,1,0,11,11,29,1,3,×,3,3 × 3,neutral,tie,1.5,1.5,9,,,,,,,,
,,,,,,,,,,,,,,,763,2022-01-19_14h57.55.574,multiplicationStroop,2021.2.3,Win32,59.95203837,,,,,,,,,,,,,,,,,,,,,,,,,,,,,,,,,40,2.564,1,0,12,12,24,1,8,×,5,8 × 5,neutral,largerFirst,1.5,1.5,40,,,,,,,,
,,,,,,,,,,,,,,,763,2022-01-19_14h57.55.574,multiplicationStroop,2021.2.3,Win32,59.95203837,,,,,,,,,,,,,,,,,,,,,,,,,,,,,,,,,27,2.246,1,0,13,13,14,1,9,×,3,9 × 3,neutral,largerFirst,1.5,1.5,27,,,,,,,,
,,,,,,,,,,,,,,,763,2022-01-19_14h57.55.574,multiplicationStroop,2021.2.3,Win32,59.95203837,,,,,,,,,,,,,,,,,,,,,,,,,,,,,,,,,56,1.815,1,0,14,14,9,1,7,×,8,7 × 8,neutral,smallerFirst,1.5,1.5,56,,,,,,,,
,,,,,,,,,,,,,,,763,2022-01-19_14h57.55.574,multiplicationStroop,2021.2.3,Win32,59.95203837,,,,,,,,,,,,,,,,,,,,,,,,,,,,,,,,,64,2.299,1,0,15,15,34,1,8,×,8,8 × 8,neutral,tie,1.5,1.5,64,,,,,,,,
,,,,,,,,,,,,,,,763,2022-01-19_14h57.55.574,multiplicationStroop,2021.2.3,Win32,59.95203837,,,,,,,,,,,,,,,,,,,,,,,,,,,,,,,,,42,2.531,1,0,16,16,6,1,6,×,7,6 × 7,neutral,smallerFirst,1.5,1.5,42,,,,,,,,
,,,,,,,,,,,,,,,763,2022-01-19_14h57.55.574,multiplicationStroop,2021.2.3,Win32,59.95203837,,,,,,,,,,,,,,,,,,,,,,,,,,,,,,,,,81,1.749,1,0,17,17,35,1,9,×,9,9 × 9,neutral,tie,1.5,1.5,81,,,,,,,,
,,,,,,,,,,,,,,,763,2022-01-19_14h57.55.574,multiplicationStroop,2021.2.3,Win32,59.95203837,,,,,,,,,,,,,,,,,,,,,,,,,,,,,,,,,21,1.6,1,0,18,18,8,1,3,×,7,3 × 7,neutral,smallerFirst,1.5,1.5,21,,,,,,,,
,,,,,,,,,,,,,,,763,2022-01-19_14h57.55.574,multiplicationStroop,2021.2.3,Win32,59.95203837,,,,,,,,,,,,,,,,,,,,,,,,,,,,,,,,,18,1.879,1,0,19,19,0,1,3,×,6,3 × 6,neutral,smallerFirst,1.5,1.5,18,,,,,,,,
,,,,,,,,,,,,,,,763,2022-01-19_14h57.55.574,multiplicationStroop,2021.2.3,Win32,59.95203837,,,,,,,,,,,,,,,,,,,,,,,,,,,,,,,,,28,2.148,1,0,20,20,17,1,7,×,4,7 × 4,neutral,largerFirst,1.5,1.5,28,,,,,,,,
,,,,,,,,,,,,,,,763,2022-01-19_14h57.55.574,multiplicationStroop,2021.2.3,Win32,59.95203837,,,,,,,,,,,,,,,,,,,,,,,,,,,,,,,,,36,2.313,1,0,21,21,32,1,6,×,6,6 × 6,neutral,tie,1.5,1.5,36,,,,,,,,
,,,,,,,,,,,,,,,763,2022-01-19_14h57.55.574,multiplicationStroop,2021.2.3,Win32,59.95203837,,,,,,,,,,,,,,,,,,,,,,,,,,,,,,,,,24,1.596,1,0,22,22,22,1,8,×,3,8 × 3,neutral,largerFirst,1.5,1.5,24,,,,,,,,
,,,,,,,,,,,,,,,763,2022-01-19_14h57.55.574,multiplicationStroop,2021.2.3,Win32,59.95203837,,,,,,,,,,,,,,,,,,,,,,,,,,,,,,,,,45,1.749,1,0,23,23,10,1,5,×,9,5 × 9,neutral,smallerFirst,1.5,1.5,45,,,,,,,,
,,,,,,,,,,,,,,,763,2022-01-19_14h57.55.574,multiplicationStroop,2021.2.3,Win32,59.95203837,,,,,,,,,,,,,,,,,,,,,,,,,,,,,,,,,12,1.497,1,0,24,24,25,1,6,×,2,6 × 2,neutral,largerFirst,1.5,1.5,12,,,,,,,,
,,,,,,,,,,,,,,,763,2022-01-19_14h57.55.574,multiplicationStroop,2021.2.3,Win32,59.95203837,,,,,,,,,,,,,,,,,,,,,,,,,,,,,,,,,4,1.563,1,0,25,25,28,1,2,×,2,2 × 2,neutral,tie,1.5,1.5,4,,,,,,,,
,,,,,,,,,,,,,,,763,2022-01-19_14h57.55.574,multiplicationStroop,2021.2.3,Win32,59.95203837,,,,,,,,,,,,,,,,,,,,,,,,,,,,,,,,,25,1.515,1,0,26,26,31,1,5,×,5,5 × 5,neutral,tie,1.5,1.5,25,,,,,,,,
,,,,,,,,,,,,,,,763,2022-01-19_14h57.55.574,multiplicationStroop,2021.2.3,Win32,59.95203837,,,,,,,,,,,,,,,,,,,,,,,,,,,,,,,,,35,1.681,1,0,27,27,1,1,5,×,7,5 × 7,neutral,smallerFirst,1.5,1.5,35,,,,,,,,
,,,,,,,,,,,,,,,763,2022-01-19_14h57.55.574,multiplicationStroop,2021.2.3,Win32,59.95203837,,,,,,,,,,,,,,,,,,,,,,,,,,,,,,,,,18,1.664,1,0,28,28,18,1,9,×,2,9 × 2,neutral,largerFirst,1.5,1.5,18,,,,,,,,
,,,,,,,,,,,,,,,763,2022-01-19_14h57.55.574,multiplicationStroop,2021.2.3,Win32,59.95203837,,,,,,,,,,,,,,,,,,,,,,,,,,,,,,,,,12,1.632,1,0,29,29,21,1,4,×,3,4 × 3,neutral,largerFirst,1.5,1.5,12,,,,,,,,
,,,,,,,,,,,,,,,763,2022-01-19_14h57.55.574,multiplicationStroop,2021.2.3,Win32,59.95203837,,,,,,,,,,,,,,,,,,,,,,,,,,,,,,,,,14,1.781,0,0,30,30,5,1,3,×,5,3 × 5,neutral,smallerFirst,1.5,1.5,15,,,,,,,,
,,,,,,,,,,,,,,,763,2022-01-19_14h57.55.574,multiplicationStroop,2021.2.3,Win32,59.95203837,,,,,,,,,,,,,,,,,,,,,,,,,,,,,,,,,24,2.68,1,0,31,31,2,1,4,×,6,4 × 6,neutral,smallerFirst,1.5,1.5,24,,,,,,,,
,,,,,,,,,,,,,,,763,2022-01-19_14h57.55.574,multiplicationStroop,2021.2.3,Win32,59.95203837,,,,,,,,,,,,,,,,,,,,,,,,,,,,,,,,,49,2.264,1,0,32,32,33,1,7,×,7,7 × 7,neutral,tie,1.5,1.5,49,,,,,,,,
,,,,,,,,,,,,,,,763,2022-01-19_14h57.55.574,multiplicationStroop,2021.2.3,Win32,59.95203837,,,,,,,,,,,,,,,,,,,,,,,,,,,,,,,,,72,2.049,1,0,33,33,11,1,8,×,9,8 × 9,neutral,smallerFirst,1.5,1.5,72,,,,,,,,
,,,,,,,,,,,,,,,763,2022-01-19_14h57.55.574,multiplicationStroop,2021.2.3,Win32,59.95203837,,,,,,,,,,,,,,,,,,,,,,,,,,,,,,,,,8,1.682,1,0,34,34,3,1,2,×,4,2 × 4,neutral,smallerFirst,1.5,1.5,8,,,,,,,,
,,,,,,,,,,,,,,,763,2022-01-19_14h57.55.574,multiplicationStroop,2021.2.3,Win32,59.95203837,,,,,,,,,,,,,,,,,,,,,,,,,,,,,,,,,14,1.599,1,0,35,35,16,1,7,×,2,7 × 2,neutral,largerFirst,1.5,1.5,14,,,,,,,,
,,,,,,,,,,,,,,,763,2022-01-19_14h57.55.574,multiplicationStroop,2021.2.3,Win32,59.95203837,,,,,,,,,,,,,,,,,,,,,,,,,,,,,,,,,,,,,,,,,,,,,,,,,,0,4,4,1,1,stimulusFile/mult_blk2.xlsx,,
,,,,,,,,,,,,,,,763,2022-01-19_14h57.55.574,multiplicationStroop,2021.2.3,Win32,59.95203837,,,,,,,,,,,,,,,,,,,,,,,,,,,,,,,space,46.567,4,1.689,1,0,0,0,28,1,2,×,2,2 × 2,neutral,tie,2,1,4,,,,,,,,
,,,,,,,,,,,,,,,763,2022-01-19_14h57.55.574,multiplicationStroop,2021.2.3,Win32,59.95203837,,,,,,,,,,,,,,,,,,,,,,,,,,,,,,,,,63,2.31,1,0,1,1,21,1,9,×,7,9 × 7,congruent,largerFirst,2,1,63,,,,,,,,
,,,,,,,,,,,,,,,763,2022-01-19_14h57.55.574,multiplicationStroop,2021.2.3,Win32,59.95203837,,,,,,,,,,,,,,,,,,,,,,,,,,,,,,,,,32,1.598,1,0,2,2,20,1,8,×,4,8 × 4,congruent,largerFirst,2,1,32,,,,,,,,
,,,,,,,,,,,,,,,763,2022-01-19_14h57.55.574,multiplicationStroop,2021.2.3,Win32,59.95203837,,,,,,,,,,,,,,,,,,,,,,,,,,,,,,,,,35,1.848,1,0,3,3,1,1,5,×,7,5 × 7,congruent,smallerFirst,1,2,35,,,,,,,,
,,,,,,,,,,,,,,,763,2022-01-19_14h57.55.574,multiplicationStroop,2021.2.3,Win32,59.95203837,,,,,,,,,,,,,,,,,,,,,,,,,,,,,,,,,15,1.647,1,0,4,4,4,1,3,×,5,3 × 5,congruent,smallerFirst,1,2,15,,,,,,,,
,,,,,,,,,,,,,,,763,2022-01-19_14h57.55.574,multiplicationStroop,2021.2.3,Win32,59.95203837,,,,,,,,,,,,,,,,,,,,,,,,,,,,,,,,,56,3.231,1,0,5,5,8,1,7,×,8,7 × 8,congruent,smallerFirst,1,2,56,,,,,,,,
,,,,,,,,,,,,,,,763,2022-01-19_14h57.55.574,multiplicationStroop,2021.2.3,Win32,59.95203837,,,,,,,,,,,,,,,,,,,,,,,,,,,,,,,,,40,1.88,1,0,6,6,6,1,5,×,8,5 × 8,congruent,smallerFirst,1,2,40,,,,,,,,
,,,,,,,,,,,,,,,763,2022-01-19_14h57.55.574,multiplicationStroop,2021.2.3,Win32,59.95203837,,,,,,,,,,,,,,,,,,,,,,,,,,,,,,,,,48,1.782,1,0,7,7,18,1,8,×,6,8 × 6,congruent,largerFirst,2,1,48,,,,,,,,
,,,,,,,,,,,,,,,763,2022-01-19_14h57.55.574,multiplicationStroop,2021.2.3,Win32,59.95203837,,,,,,,,,,,,,,,,,,,,,,,,,,,,,,,,,28,2.816,1,0,8,8,27,1,7,×,4,7 × 4,congruent,largerFirst,2,1,28,,,,,,,,
,,,,,,,,,,,,,,,763,2022-01-19_14h57.55.574,multiplicationStroop,2021.2.3,Win32,59.95203837,,,,,,,,,,,,,,,,,,,,,,,,,,,,,,,,,12,1.929,1,0,9,9,2,1,3,×,4,3 × 4,congruent,smallerFirst,1,2,12,,,,,,,,
,,,,,,,,,,,,,,,763,2022-01-19_14h57.55.574,multiplicationStroop,2021.2.3,Win32,59.95203837,,,,,,,,,,,,,,,,,,,,,,,,,,,,,,,,,81,1.615,1,0,10,10,35,1,9,×,9,9 × 9,neutral,tie,2,1,81,,,,,,,,
,,,,,,,,,,,,,,,763,2022-01-19_14h57.55.574,multiplicationStroop,2021.2.3,Win32,59.95203837,,,,,,,,,,,,,,,,,,,,,,,,,,,,,,,,,64,1.664,1,0,11,11,34,1,8,×,8,8 × 8,neutral,tie,2,1,64,,,,,,,,
,,,,,,,,,,,,,,,763,2022-01-19_14h57.55.574,multiplicationStroop,2021.2.3,Win32,59.95203837,,,,,,,,,,,,,,,,,,,,,,,,,,,,,,,,,18,2.149,1,0,12,12,22,1,9,×,2,9 × 2,congruent,largerFirst,2,1,18,,,,,,,,
,,,,,,,,,,,,,,,763,2022-01-19_14h57.55.574,multiplicationStroop,2021.2.3,Win32,59.95203837,,,,,,,,,,,,,,,,,,,,,,,,,,,,,,,,,36,1.896,1,0,13,13,32,1,6,×,6,6 × 6,neutral,tie,2,1,36,,,,,,,,
,,,,,,,,,,,,,,,763,2022-01-19_14h57.55.574,multiplicationStroop,2021.2.3,Win32,59.95203837,,,,,,,,,,,,,,,,,,,,,,,,,,,,,,,,,21,1.664,1,0,14,14,16,1,7,×,3,7 × 3,congruent,largerFirst,2,1,21,,,,,,,,
,,,,,,,,,,,,,,,763,2022-01-19_14h57.55.574,multiplicationStroop,2021.2.3,Win32,59.95203837,,,,,,,,,,,,,,,,,,,,,,,,,,,,,,,,,45,1.681,1,0,15,15,23,1,9,×,5,9 × 5,congruent,largerFirst,2,1,45,,,,,,,,
,,,,,,,,,,,,,,,763,2022-01-19_14h57.55.574,multiplicationStroop,2021.2.3,Win32,59.95203837,,,,,,,,,,,,,,,,,,,,,,,,,,,,,,,,,36,2.148,1,0,16,16,0,1,4,×,9,4 × 9,congruent,smallerFirst,1,2,36,,,,,,,,
,,,,,,,,,,,,,,,763,2022-01-19_14h57.55.574,multiplicationStroop,2021.2.3,Win32,59.95203837,,,,,,,,,,,,,,,,,,,,,,,,,,,,,,,,,16,2.948,1,0,17,17,30,1,4,×,4,4 × 4,neutral,tie,2,1,16,,,,,,,,
,,,,,,,,,,,,,,,763,2022-01-19_14h57.55.574,multiplicationStroop,2021.2.3,Win32,59.95203837,,,,,,,,,,,,,,,,,,,,,,,,,,,,,,,,,30,1.78,1,0,18,18,15,1,6,×,5,6 × 5,congruent,largerFirst,2,1,30,,,,,,,,
,,,,,,,,,,,,,,,763,2022-01-19_14h57.55.574,multiplicationStroop,2021.2.3,Win32,59.95203837,,,,,,,,,,,,,,,,,,,,,,,,,,,,,,,,,25,1.498,1,0,19,19,31,1,5,×,5,5 × 5,neutral,tie,2,1,25,,,,,,,,
,,,,,,,,,,,,,,,763,2022-01-19_14h57.55.574,multiplicationStroop,2021.2.3,Win32,59.95203837,,,,,,,,,,,,,,,,,,,,,,,,,,,,,,,,,9,1.415,1,0,20,20,29,1,3,×,3,3 × 3,neutral,tie,2,1,9,,,,,,,,
,,,,,,,,,,,,,,,763,2022-01-19_14h57.55.574,multiplicationStroop,2021.2.3,Win32,59.95203837,,,,,,,,,,,,,,,,,,,,,,,,,,,,,,,,,14,1.38,1,0,21,21,14,1,7,×,2,7 × 2,congruent,largerFirst,2,1,14,,,,,,,,
,,,,,,,,,,,,,,,763,2022-01-19_14h57.55.574,multiplicationStroop,2021.2.3,Win32,59.95203837,,,,,,,,,,,,,,,,,,,,,,,,,,,,,,,,,24,1.625,1,0,22,22,25,1,6,×,4,6 × 4,congruent,largerFirst,2,1,24,,,,,,,,
,,,,,,,,,,,,,,,763,2022-01-19_14h57.55.574,multiplicationStroop,2021.2.3,Win32,59.95203837,,,,,,,,,,,,,,,,,,,,,,,,,,,,,,,,,10,1.556,1,0,23,23,24,1,5,×,2,5 × 2,congruent,largerFirst,2,1,10,,,,,,,,
,,,,,,,,,,,,,,,763,2022-01-19_14h57.55.574,multiplicationStroop,2021.2.3,Win32,59.95203837,,,,,,,,,,,,,,,,,,,,,,,,,,,,,,,,,18,1.864,1,0,24,24,11,1,3,×,6,3 × 6,congruent,smallerFirst,1,2,18,,,,,,,,
,,,,,,,,,,,,,,,763,2022-01-19_14h57.55.574,multiplicationStroop,2021.2.3,Win32,59.95203837,,,,,,,,,,,,,,,,,,,,,,,,,,,,,,,,,72,2.216,1,0,25,25,17,1,9,×,8,9 × 8,congruent,largerFirst,2,1,72,,,,,,,,
,,,,,,,,,,,,,,,763,2022-01-19_14h57.55.574,multiplicationStroop,2021.2.3,Win32,59.95203837,,,,,,,,,,,,,,,,,,,,,,,,,,,,,,,,,42,3.199,1,0,26,26,3,1,6,×,7,6 × 7,congruent,smallerFirst,1,2,42,,,,,,,,
,,,,,,,,,,,,,,,763,2022-01-19_14h57.55.574,multiplicationStroop,2021.2.3,Win32,59.95203837,,,,,,,,,,,,,,,,,,,,,,,,,,,,,,,,,24,1.765,1,0,27,27,10,1,3,×,8,3 × 8,congruent,smallerFirst,1,2,24,,,,,,,,
,,,,,,,,,,,,,,,763,2022-01-19_14h57.55.574,multiplicationStroop,2021.2.3,Win32,59.95203837,,,,,,,,,,,,,,,,,,,,,,,,,,,,,,,,,27,1.816,1,0,28,28,26,1,9,×,3,9 × 3,congruent,largerFirst,2,1,27,,,,,,,,
,,,,,,,,,,,,,,,763,2022-01-19_14h57.55.574,multiplicationStroop,2021.2.3,Win32,59.95203837,,,,,,,,,,,,,,,,,,,,,,,,,,,,,,,,,8,1.565,1,0,29,29,9,1,2,×,4,2 × 4,congruent,smallerFirst,1,2,8,,,,,,,,
,,,,,,,,,,,,,,,763,2022-01-19_14h57.55.574,multiplicationStroop,2021.2.3,Win32,59.95203837,,,,,,,,,,,,,,,,,,,,,,,,,,,,,,,,,54,1.946,1,0,30,30,12,1,6,×,9,6 × 9,congruent,smallerFirst,1,2,54,,,,,,,,
,,,,,,,,,,,,,,,763,2022-01-19_14h57.55.574,multiplicationStroop,2021.2.3,Win32,59.95203837,,,,,,,,,,,,,,,,,,,,,,,,,,,,,,,,,6,1.563,1,0,31,31,13,1,2,×,3,2 × 3,congruent,smallerFirst,1,2,6,,,,,,,,
,,,,,,,,,,,,,,,763,2022-01-19_14h57.55.574,multiplicationStroop,2021.2.3,Win32,59.95203837,,,,,,,,,,,,,,,,,,,,,,,,,,,,,,,,,12,1.582,1,0,32,32,19,1,6,×,2,6 × 2,congruent,largerFirst,2,1,12,,,,,,,,
,,,,,,,,,,,,,,,763,2022-01-19_14h57.55.574,multiplicationStroop,2021.2.3,Win32,59.95203837,,,,,,,,,,,,,,,,,,,,,,,,,,,,,,,,,20,1.898,1,0,33,33,7,1,4,×,5,4 × 5,congruent,smallerFirst,1,2,20,,,,,,,,
,,,,,,,,,,,,,,,763,2022-01-19_14h57.55.574,multiplicationStroop,2021.2.3,Win32,59.95203837,,,,,,,,,,,,,,,,,,,,,,,,,,,,,,,,,49,2.531,1,0,34,34,33,1,7,×,7,7 × 7,neutral,tie,2,1,49,,,,,,,,
,,,,,,,,,,,,,,,763,2022-01-19_14h57.55.574,multiplicationStroop,2021.2.3,Win32,59.95203837,,,,,,,,,,,,,,,,,,,,,,,,,,,,,,,,,16,1.83,1,0,35,35,5,1,2,×,8,2 × 8,congruent,smallerFirst,1,2,16,,,,,,,,
,,,,,,,,,,,,,,,763,2022-01-19_14h57.55.574,multiplicationStroop,2021.2.3,Win32,59.95203837,,,,,,,,,,,,,,,,,,,,,,,,,,,,,,,,,,,,,,,,,,,,,,,,,,0,5,5,2,1,stimulusFile/mult_blk3_congruent.xlsx,,
,,,,,,,,,,,,,,,763,2022-01-19_14h57.55.574,multiplicationStroop,2021.2.3,Win32,59.95203837,,,,,,,,,,,,,,,,,,,,,,,,,,,,,,,,,,,,,,,,,,,,,,,,,,,,,,,,space,3.694