welcomeKey_resp.keys,welcomeKey_resp.rt,X Scale,Y Scale,rt_resp_4.keys,rt_resp_4.corr,rt_resp_4.rt,speedtest_2.thisRepN,speedtest_2.thisTrialN,speedtest_2.thisN,speedtest_2.thisIndex,speedtest_2.ran,numberSc,posX,positionLayout,participant,date,expName,psychopyVersion,OS,frameRate,ct_instrresp.keys,ct_instrresp.rt,key_resp_2.keys,key_resp_2.rt,ct_keyResp.keys,ct_keyResp.corr,ct_keyResp.rt,trials.thisRepN,trials.thisTrialN,trials.thisN,trials.thisIndex,trials.ran,leftNo,rightNo,displayProblem,numDistance,leftNo_size,rightNo_size,Dims,keyAnswer,TS_Loop.thisRepN,TS_Loop.thisTrialN,TS_Loop.thisN,TS_Loop.thisIndex,TS_Loop.ran,Condition,ActionInst,instrImage,mltptaskInst_resp.keys,mltptaskInst_resp.rt,continue_resp_2.keys,continue_resp_2.rt,multp_Answer,multi_RT,multiplyCorr,LoopingMultiply.thisRepN,LoopingMultiply.thisTrialN,LoopingMultiply.thisN,LoopingMultiply.thisIndex,LoopingMultiply.ran,factor1,multiplySign,factor2,multliplyProblem,physicalSize,orderOperand,sizeF1,sizeF2,mult_answer,trials_stroop.thisRepN,trials_stroop.thisTrialN,trials_stroop.thisN,trials_stroop.thisIndex,trials_stroop.ran,multiplicationFile,esckey_resp_2.keys,esckey_resp_2.rt
y,19.8534,41.7,42.1,right,1,1.0627,0,0,0,11,1,4,200,right,764,2022-01-19_20h30.09.434,multiplicationStroop,2021.2.3,Win32,60.10699044,,,,,,,,,,,,,,,,,,,,,,,,,,,,,,,,,,,,,,,,,,,,,,,,,,,,,,,,,
,,,,right,1,0.9768,0,1,1,12,1,6,200,right,764,2022-01-19_20h30.09.434,multiplicationStroop,2021.2.3,Win32,60.10699044,,,,,,,,,,,,,,,,,,,,,,,,,,,,,,,,,,,,,,,,,,,,,,,,,,,,,,,,,
,,,,left,1,0.7177,0,2,2,6,1,8,-200,left,764,2022-01-19_20h30.09.434,multiplicationStroop,2021.2.3,Win32,60.10699044,,,,,,,,,,,,,,,,,,,,,,,,,,,,,,,,,,,,,,,,,,,,,,,,,,,,,,,,,
,,,,left,1,0.5347,0,3,3,5,1,7,-200,left,764,2022-01-19_20h30.09.434,multiplicationStroop,2021.2.3,Win32,60.10699044,,,,,,,,,,,,,,,,,,,,,,,,,,,,,,,,,,,,,,,,,,,,,,,,,,,,,,,,,
,,,,right,1,0.7512,0,4,4,13,1,7,200,right,764,2022-01-19_20h30.09.434,multiplicationStroop,2021.2.3,Win32,60.10699044,,,,,,,,,,,,,,,,,,,,,,,,,,,,,,,,,,,,,,,,,,,,,,,,,,,,,,,,,
,,,,left,1,0.5177,0,5,5,2,1,3,-200,left,764,2022-01-19_20h30.09.434,multiplicationStroop,2021.2.3,Win32,60.10699044,,,,,,,,,,,,,,,,,,,,,,,,,,,,,,,,,,,,,,,,,,,,,,,,,,,,,,,,,
,,,,left,1,0.485,0,6,6,7,1,9,-200,left,764,2022-01-19_20h30.09.434,multiplicationStroop,2021.2.3,Win32,60.10699044,,,,,,,,,,,,,,,,,,,,,,,,,,,,,,,,,,,,,,,,,,,,,,,,,,,,,,,,,
,,,,right,1,0.5183,0,7,7,8,1,1,200,right,764,2022-01-19_20h30.09.434,multiplicationStroop,2021.2.3,Win32,60.10699044,,,,,,,,,,,,,,,,,,,,,,,,,,,,,,,,,,,,,,,,,,,,,,,,,,,,,,,,,
,,,,left,1,0.5017,0,8,8,1,1,2,-200,left,764,2022-01-19_20h30.09.434,multiplicationStroop,2021.2.3,Win32,60.10699044,,,,,,,,,,,,,,,,,,,,,,,,,,,,,,,,,,,,,,,,,,,,,,,,,,,,,,,,,
,,,,right,1,0.5532,0,9,9,10,1,3,200,right,764,2022-01-19_20h30.09.434,multiplicationStroop,2021.2.3,Win32,60.10699044,,,,,,,,,,,,,,,,,,,,,,,,,,,,,,,,,,,,,,,,,,,,,,,,,,,,,,,,,
,,,,right,1,0.5865,0,10,10,14,1,8,200,right,764,2022-01-19_20h30.09.434,multiplicationStroop,2021.2.3,Win32,60.10699044,,,,,,,,,,,,,,,,,,,,,,,,,,,,,,,,,,,,,,,,,,,,,,,,,,,,,,,,,
,,,,left,1,0.4517,0,11,11,0,1,1,-200,left,764,2022-01-19_20h30.09.434,multiplicationStroop,2021.2.3,Win32,60.10699044,,,,,,,,,,,,,,,,,,,,,,,,,,,,,,,,,,,,,,,,,,,,,,,,,,,,,,,,,
,,,,right,1,0.5038,0,12,12,9,1,2,200,right,764,2022-01-19_20h30.09.434,multiplicationStroop,2021.2.3,Win32,60.10699044,,,,,,,,,,,,,,,,,,,,,,,,,,,,,,,,,,,,,,,,,,,,,,,,,,,,,,,,,
,,,,left,1,0.4838,0,13,13,4,1,6,-200,left,764,2022-01-19_20h30.09.434,multiplicationStroop,2021.2.3,Win32,60.10699044,,,,,,,,,,,,,,,,,,,,,,,,,,,,,,,,,,,,,,,,,,,,,,,,,,,,,,,,,
,,,,right,1,0.5277,0,14,14,15,1,9,200,right,764,2022-01-19_20h30.09.434,multiplicationStroop,2021.2.3,Win32,60.10699044,,,,,,,,,,,,,,,,,,,,,,,,,,,,,,,,,,,,,,,,,,,,,,,,,,,,,,,,,
,,,,left,1,0.5854,0,15,15,3,1,4,-200,left,764,2022-01-19_20h30.09.434,multiplicationStroop,2021.2.3,Win32,60.10699044,,,,,,,,,,,,,,,,,,,,,,,,,,,,,,,,,,,,,,,,,,,,,,,,,,,,,,,,,
,,,,left,1,0.4877,1,0,16,4,1,6,-200,left,764,2022-01-19_20h30.09.434,multiplicationStroop,2021.2.3,Win32,60.10699044,,,,,,,,,,,,,,,,,,,,,,,,,,,,,,,,,,,,,,,,,,,,,,,,,,,,,,,,,
,,,,left,1,0.5394,1,1,17,7,1,9,-200,left,764,2022-01-19_20h30.09.434,multiplicationStroop,2021.2.3,Win32,60.10699044,,,,,,,,,,,,,,,,,,,,,,,,,,,,,,,,,,,,,,,,,,,,,,,,,,,,,,,,,
,,,,left,1,0.4188,1,2,18,2,1,3,-200,left,764,2022-01-19_20h30.09.434,multiplicationStroop,2021.2.3,Win32,60.10699044,,,,,,,,,,,,,,,,,,,,,,,,,,,,,,,,,,,,,,,,,,,,,,,,,,,,,,,,,
,,,,right,1,0.485,1,3,19,14,1,8,200,right,764,2022-01-19_20h30.09.434,multiplicationStroop,2021.2.3,Win32,60.10699044,,,,,,,,,,,,,,,,,,,,,,,,,,,,,,,,,,,,,,,,,,,,,,,,,,,,,,,,,
,,,,right,1,0.3681,1,4,20,15,1,9,200,right,764,2022-01-19_20h30.09.434,multiplicationStroop,2021.2.3,Win32,60.10699044,,,,,,,,,,,,,,,,,,,,,,,,,,,,,,,,,,,,,,,,,,,,,,,,,,,,,,,,,
,,,,left,1,0.4864,1,5,21,6,1,8,-200,left,764,2022-01-19_20h30.09.434,multiplicationStroop,2021.2.3,Win32,60.10699044,,,,,,,,,,,,,,,,,,,,,,,,,,,,,,,,,,,,,,,,,,,,,,,,,,,,,,,,,
,,,,left,1,0.5682,1,6,22,5,1,7,-200,left,764,2022-01-19_20h30.09.434,multiplicationStroop,2021.2.3,Win32,60.10699044,,,,,,,,,,,,,,,,,,,,,,,,,,,,,,,,,,,,,,,,,,,,,,,,,,,,,,,,,
,,,,right,1,0.5686,1,7,23,9,1,2,200,right,764,2022-01-19_20h30.09.434,multiplicationStroop,2021.2.3,Win32,60.10699044,,,,,,,,,,,,,,,,,,,,,,,,,,,,,,,,,,,,,,,,,,,,,,,,,,,,,,,,,
,,,,left,1,0.4407,1,8,24,0,1,1,-200,left,764,2022-01-19_20h30.09.434,multiplicationStroop,2021.2.3,Win32,60.10699044,,,,,,,,,,,,,,,,,,,,,,,,,,,,,,,,,,,,,,,,,,,,,,,,,,,,,,,,,
,,,,right,1,0.4925,1,9,25,13,1,7,200,right,764,2022-01-19_20h30.09.434,multiplicationStroop,2021.2.3,Win32,60.10699044,,,,,,,,,,,,,,,,,,,,,,,,,,,,,,,,,,,,,,,,,,,,,,,,,,,,,,,,,
,,,,right,1,0.5119,1,10,26,11,1,4,200,right,764,2022-01-19_20h30.09.434,multiplicationStroop,2021.2.3,Win32,60.10699044,,,,,,,,,,,,,,,,,,,,,,,,,,,,,,,,,,,,,,,,,,,,,,,,,,,,,,,,,
,,,,left,1,0.4356,1,11,27,1,1,2,-200,left,764,2022-01-19_20h30.09.434,multiplicationStroop,2021.2.3,Win32,60.10699044,,,,,,,,,,,,,,,,,,,,,,,,,,,,,,,,,,,,,,,,,,,,,,,,,,,,,,,,,
,,,,right,1,0.4196,1,12,28,8,1,1,200,right,764,2022-01-19_20h30.09.434,multiplicationStroop,2021.2.3,Win32,60.10699044,,,,,,,,,,,,,,,,,,,,,,,,,,,,,,,,,,,,,,,,,,,,,,,,,,,,,,,,,
,,,,right,1,0.5352,1,13,29,10,1,3,200,right,764,2022-01-19_20h30.09.434,multiplicationStroop,2021.2.3,Win32,60.10699044,,,,,,,,,,,,,,,,,,,,,,,,,,,,,,,,,,,,,,,,,,,,,,,,,,,,,,,,,
,,,,right,1,0.419,1,14,30,12,1,6,200,right,764,2022-01-19_20h30.09.434,multiplicationStroop,2021.2.3,Win32,60.10699044,,,,,,,,,,,,,,,,,,,,,,,,,,,,,,,,,,,,,,,,,,,,,,,,,,,,,,,,,
,,,,left,1,0.4542,1,15,31,3,1,4,-200,left,764,2022-01-19_20h30.09.434,multiplicationStroop,2021.2.3,Win32,60.10699044,,,,,,,,,,,,,,,,,,,,,,,,,,,,,,,,,,,,,,,,,,,,,,,,,,,,,,,,,
,,,,right,1,0.4374,2,0,32,15,1,9,200,right,764,2022-01-19_20h30.09.434,multiplicationStroop,2021.2.3,Win32,60.10699044,,,,,,,,,,,,,,,,,,,,,,,,,,,,,,,,,,,,,,,,,,,,,,,,,,,,,,,,,
,,,,left,1,0.4345,2,1,33,2,1,3,-200,left,764,2022-01-19_20h30.09.434,multiplicationStroop,2021.2.3,Win32,60.10699044,,,,,,,,,,,,,,,,,,,,,,,,,,,,,,,,,,,,,,,,,,,,,,,,,,,,,,,,,
,,,,right,1,0.4338,2,2,34,13,1,7,200,right,764,2022-01-19_20h30.09.434,multiplicationStroop,2021.2.3,Win32,60.10699044,,,,,,,,,,,,,,,,,,,,,,,,,,,,,,,,,,,,,,,,,,,,,,,,,,,,,,,,,
,,,,right,1,0.5172,2,3,35,9,1,2,200,right,764,2022-01-19_20h30.09.434,multiplicationStroop,2021.2.3,Win32,60.10699044,,,,,,,,,,,,,,,,,,,,,,,,,,,,,,,,,,,,,,,,,,,,,,,,,,,,,,,,,
,,,,left,1,0.4613,2,4,36,1,1,2,-200,left,764,2022-01-19_20h30.09.434,multiplicationStroop,2021.2.3,Win32,60.10699044,,,,,,,,,,,,,,,,,,,,,,,,,,,,,,,,,,,,,,,,,,,,,,,,,,,,,,,,,
,,,,left,1,0.4719,2,5,37,0,1,1,-200,left,764,2022-01-19_20h30.09.434,multiplicationStroop,2021.2.3,Win32,60.10699044,,,,,,,,,,,,,,,,,,,,,,,,,,,,,,,,,,,,,,,,,,,,,,,,,,,,,,,,,
,,,,right,1,0.4924,2,6,38,11,1,4,200,right,764,2022-01-19_20h30.09.434,multiplicationStroop,2021.2.3,Win32,60.10699044,,,,,,,,,,,,,,,,,,,,,,,,,,,,,,,,,,,,,,,,,,,,,,,,,,,,,,,,,
,,,,right,1,0.4358,2,7,39,8,1,1,200,right,764,2022-01-19_20h30.09.434,multiplicationStroop,2021.2.3,Win32,60.10699044,,,,,,,,,,,,,,,,,,,,,,,,,,,,,,,,,,,,,,,,,,,,,,,,,,,,,,,,,
,,,,left,1,0.4393,2,8,40,3,1,4,-200,left,764,2022-01-19_20h30.09.434,multiplicationStroop,2021.2.3,Win32,60.10699044,,,,,,,,,,,,,,,,,,,,,,,,,,,,,,,,,,,,,,,,,,,,,,,,,,,,,,,,,
,,,,right,1,0.4089,2,9,41,10,1,3,200,right,764,2022-01-19_20h30.09.434,multiplicationStroop,2021.2.3,Win32,60.10699044,,,,,,,,,,,,,,,,,,,,,,,,,,,,,,,,,,,,,,,,,,,,,,,,,,,,,,,,,
,,,,right,1,0.4228,2,10,42,14,1,8,200,right,764,2022-01-19_20h30.09.434,multiplicationStroop,2021.2.3,Win32,60.10699044,,,,,,,,,,,,,,,,,,,,,,,,,,,,,,,,,,,,,,,,,,,,,,,,,,,,,,,,,
,,,,left,1,0.4181,2,11,43,4,1,6,-200,left,764,2022-01-19_20h30.09.434,multiplicationStroop,2021.2.3,Win32,60.10699044,,,,,,,,,,,,,,,,,,,,,,,,,,,,,,,,,,,,,,,,,,,,,,,,,,,,,,,,,
,,,,left,1,0.4505,2,12,44,5,1,7,-200,left,764,2022-01-19_20h30.09.434,multiplicationStroop,2021.2.3,Win32,60.10699044,,,,,,,,,,,,,,,,,,,,,,,,,,,,,,,,,,,,,,,,,,,,,,,,,,,,,,,,,
,,,,left,1,0.3843,2,13,45,6,1,8,-200,left,764,2022-01-19_20h30.09.434,multiplicationStroop,2021.2.3,Win32,60.10699044,,,,,,,,,,,,,,,,,,,,,,,,,,,,,,,,,,,,,,,,,,,,,,,,,,,,,,,,,
,,,,left,1,0.4105,2,14,46,7,1,9,-200,left,764,2022-01-19_20h30.09.434,multiplicationStroop,2021.2.3,Win32,60.10699044,,,,,,,,,,,,,,,,,,,,,,,,,,,,,,,,,,,,,,,,,,,,,,,,,,,,,,,,,
,,,,right,1,0.5131,2,15,47,12,1,6,200,right,764,2022-01-19_20h30.09.434,multiplicationStroop,2021.2.3,Win32,60.10699044,,,,,,,,,,,,,,,,,,,,,,,,,,,,,,,,,,,,,,,,,,,,,,,,,,,,,,,,,
,,,,left,1,0.4237,3,0,48,1,1,2,-200,left,764,2022-01-19_20h30.09.434,multiplicationStroop,2021.2.3,Win32,60.10699044,,,,,,,,,,,,,,,,,,,,,,,,,,,,,,,,,,,,,,,,,,,,,,,,,,,,,,,,,
,,,,left,1,0.4192,3,1,49,7,1,9,-200,left,764,2022-01-19_20h30.09.434,multiplicationStroop,2021.2.3,Win32,60.10699044,,,,,,,,,,,,,,,,,,,,,,,,,,,,,,,,,,,,,,,,,,,,,,,,,,,,,,,,,
,,,,right,1,0.5315,3,2,50,10,1,3,200,right,764,2022-01-19_20h30.09.434,multiplicationStroop,2021.2.3,Win32,60.10699044,,,,,,,,,,,,,,,,,,,,,,,,,,,,,,,,,,,,,,,,,,,,,,,,,,,,,,,,,
,,,,left,1,0.4293,3,3,51,4,1,6,-200,left,764,2022-01-19_20h30.09.434,multiplicationStroop,2021.2.3,Win32,60.10699044,,,,,,,,,,,,,,,,,,,,,,,,,,,,,,,,,,,,,,,,,,,,,,,,,,,,,,,,,
,,,,right,1,0.4366,3,4,52,8,1,1,200,right,764,2022-01-19_20h30.09.434,multiplicationStroop,2021.2.3,Win32,60.10699044,,,,,,,,,,,,,,,,,,,,,,,,,,,,,,,,,,,,,,,,,,,,,,,,,,,,,,,,,
,,,,right,1,0.4304,3,5,53,13,1,7,200,right,764,2022-01-19_20h30.09.434,multiplicationStroop,2021.2.3,Win32,60.10699044,,,,,,,,,,,,,,,,,,,,,,,,,,,,,,,,,,,,,,,,,,,,,,,,,,,,,,,,,
,,,,left,1,0.4085,3,6,54,5,1,7,-200,left,764,2022-01-19_20h30.09.434,multiplicationStroop,2021.2.3,Win32,60.10699044,,,,,,,,,,,,,,,,,,,,,,,,,,,,,,,,,,,,,,,,,,,,,,,,,,,,,,,,,
,,,,right,1,0.4987,3,7,55,11,1,4,200,right,764,2022-01-19_20h30.09.434,multiplicationStroop,2021.2.3,Win32,60.10699044,,,,,,,,,,,,,,,,,,,,,,,,,,,,,,,,,,,,,,,,,,,,,,,,,,,,,,,,,
,,,,right,1,0.4036,3,8,56,12,1,6,200,right,764,2022-01-19_20h30.09.434,multiplicationStroop,2021.2.3,Win32,60.10699044,,,,,,,,,,,,,,,,,,,,,,,,,,,,,,,,,,,,,,,,,,,,,,,,,,,,,,,,,
,,,,left,1,0.38,3,9,57,2,1,3,-200,left,764,2022-01-19_20h30.09.434,multiplicationStroop,2021.2.3,Win32,60.10699044,,,,,,,,,,,,,,,,,,,,,,,,,,,,,,,,,,,,,,,,,,,,,,,,,,,,,,,,,
,,,,left,1,0.4369,3,10,58,6,1,8,-200,left,764,2022-01-19_20h30.09.434,multiplicationStroop,2021.2.3,Win32,60.10699044,,,,,,,,,,,,,,,,,,,,,,,,,,,,,,,,,,,,,,,,,,,,,,,,,,,,,,,,,
,,,,right,1,0.5017,3,11,59,14,1,8,200,right,764,2022-01-19_20h30.09.434,multiplicationStroop,2021.2.3,Win32,60.10699044,,,,,,,,,,,,,,,,,,,,,,,,,,,,,,,,,,,,,,,,,,,,,,,,,,,,,,,,,
,,,,left,1,0.5293,3,12,60,3,1,4,-200,left,764,2022-01-19_20h30.09.434,multiplicationStroop,2021.2.3,Win32,60.10699044,,,,,,,,,,,,,,,,,,,,,,,,,,,,,,,,,,,,,,,,,,,,,,,,,,,,,,,,,
,,,,right,1,0.3615,3,13,61,15,1,9,200,right,764,2022-01-19_20h30.09.434,multiplicationStroop,2021.2.3,Win32,60.10699044,,,,,,,,,,,,,,,,,,,,,,,,,,,,,,,,,,,,,,,,,,,,,,,,,,,,,,,,,
,,,,left,1,0.4017,3,14,62,0,1,1,-200,left,764,2022-01-19_20h30.09.434,multiplicationStroop,2021.2.3,Win32,60.10699044,,,,,,,,,,,,,,,,,,,,,,,,,,,,,,,,,,,,,,,,,,,,,,,,,,,,,,,,,
,,,,right,1,0.351,3,15,63,9,1,2,200,right,764,2022-01-19_20h30.09.434,multiplicationStroop,2021.2.3,Win32,60.10699044,,,,,,,,,,,,,,,,,,,,,,,,,,,,,,,,,,,,,,,,,,,,,,,,,,,,,,,,,
,,,,,,,,,,,,,,,764,2022-01-19_20h30.09.434,multiplicationStroop,2021.2.3,Win32,60.10699044,space,32.5395,space,34.9802,right,1,1.3166,0,0,0,3,1,8,9,8 | 9,1,1.4111,1.9756,congruent,right,,,,,,stimulusFile/physical.xlsx,,,,,,,,,,,,,,,,,,,,,,,,,,,,,,,
,,,,,,,,,,,,,,,764,2022-01-19_20h30.09.434,multiplicationStroop,2021.2.3,Win32,60.10699044,,,,,right,1,0.8374,0,1,1,9,1,2,4,2 | 4,2,1.4111,1.9756,congruent,right,,,,,,stimulusFile/physical.xlsx,,,,,,,,,,,,,,,,,,,,,,,,,,,,,,,
,,,,,,,,,,,,,,,764,2022-01-19_20h30.09.434,multiplicationStroop,2021.2.3,Win32,60.10699044,,,,,left,1,0.5889,0,2,2,42,1,3,8,3 | 8,5,1.9756,1.4111,incongruent,left,,,,,,stimulusFile/physical.xlsx,,,,,,,,,,,,,,,,,,,,,,,,,,,,,,,
,,,,,,,,,,,,,,,764,2022-01-19_20h30.09.434,multiplicationStroop,2021.2.3,Win32,60.10699044,,,,,left,1,0.642,0,3,3,51,1,8,8,8 | 8,0,1.9756,1.4111,neutral,left,,,,,,stimulusFile/physical.xlsx,,,,,,,,,,,,,,,,,,,,,,,,,,,,,,,
,,,,,,,,,,,,,,,764,2022-01-19_20h30.09.434,multiplicationStroop,2021.2.3,Win32,60.10699044,,,,,right,1,0.535,0,4,4,10,1,6,8,6 | 8,2,1.4111,1.9756,congruent,right,,,,,,stimulusFile/physical.xlsx,,,,,,,,,,,,,,,,,,,,,,,,,,,,,,,
,,,,,,,,,,,,,,,764,2022-01-19_20h30.09.434,multiplicationStroop,2021.2.3,Win32,60.10699044,,,,,left,1,0.6249,0,5,5,52,1,2,2,2 | 2,0,1.9756,1.4111,neutral,left,,,,,,stimulusFile/physical.xlsx,,,,,,,,,,,,,,,,,,,,,,,,,,,,,,,
,,,,,,,,,,,,,,,764,2022-01-19_20h30.09.434,multiplicationStroop,2021.2.3,Win32,60.10699044,,,,,right,1,0.8723,0,6,6,8,1,1,3,1 | 3,2,1.4111,1.9756,congruent,right,,,,,,stimulusFile/physical.xlsx,,,,,,,,,,,,,,,,,,,,,,,,,,,,,,,
,,,,,,,,,,,,,,,764,2022-01-19_20h30.09.434,multiplicationStroop,2021.2.3,Win32,60.10699044,,,,,left,1,0.5127,0,7,7,5,1,4,3,4 | 3,1,1.9756,1.4111,congruent,left,,,,,,stimulusFile/physical.xlsx,,,,,,,,,,,,,,,,,,,,,,,,,,,,,,,
,,,,,,,,,,,,,,,764,2022-01-19_20h30.09.434,multiplicationStroop,2021.2.3,Win32,60.10699044,,,,,left,1,0.6157,0,8,8,6,1,7,6,7 | 6,1,1.9756,1.4111,congruent,left,,,,,,stimulusFile/physical.xlsx,,,,,,,,,,,,,,,,,,,,,,,,,,,,,,,
,,,,,,,,,,,,,,,764,2022-01-19_20h30.09.434,multiplicationStroop,2021.2.3,Win32,60.10699044,,,,,left,1,0.5054,0,9,9,20,1,6,1,6 | 1,5,1.9756,1.4111,congruent,left,,,,,,stimulusFile/physical.xlsx,,,,,,,,,,,,,,,,,,,,,,,,,,,,,,,
,,,,,,,,,,,,,,,764,2022-01-19_20h30.09.434,multiplicationStroop,2021.2.3,Win32,60.10699044,,,,,right,1,0.5147,0,10,10,38,1,8,6,8 | 6,2,1.4111,1.9756,incongruent,right,,,,,,stimulusFile/physical.xlsx,,,,,,,,,,,,,,,,,,,,,,,,,,,,,,,
,,,,,,,,,,,,,,,764,2022-01-19_20h30.09.434,multiplicationStroop,2021.2.3,Win32,60.10699044,,,,,right,1,0.5781,0,11,11,0,1,1,2,1 | 2,1,1.4111,1.9756,congruent,right,,,,,,stimulusFile/physical.xlsx,,,,,,,,,,,,,,,,,,,,,,,,,,,,,,,
,,,,,,,,,,,,,,,764,2022-01-19_20h30.09.434,multiplicationStroop,2021.2.3,Win32,60.10699044,,,,,right,1,0.5395,0,12,12,31,1,9,8,9 | 8,1,1.4111,1.9756,incongruent,right,,,,,,stimulusFile/physical.xlsx,,,,,,,,,,,,,,,,,,,,,,,,,,,,,,,
,,,,,,,,,,,,,,,764,2022-01-19_20h30.09.434,multiplicationStroop,2021.2.3,Win32,60.10699044,,,,,left,1,0.5643,0,13,13,7,1,9,8,9 | 8,1,1.9756,1.4111,congruent,left,,,,,,stimulusFile/physical.xlsx,,,,,,,,,,,,,,,,,,,,,,,,,,,,,,,
,,,,,,,,,,,,,,,764,2022-01-19_20h30.09.434,multiplicationStroop,2021.2.3,Win32,60.10699044,,,,,right,1,0.5846,0,14,14,18,1,3,8,3 | 8,5,1.4111,1.9756,congruent,right,,,,,,stimulusFile/physical.xlsx,,,,,,,,,,,,,,,,,,,,,,,,,,,,,,,
,,,,,,,,,,,,,,,764,2022-01-19_20h30.09.434,multiplicationStroop,2021.2.3,Win32,60.10699044,,,,,left,1,0.6724,0,15,15,35,1,7,9,7 | 9,2,1.9756,1.4111,incongruent,left,,,,,,stimulusFile/physical.xlsx,,,,,,,,,,,,,,,,,,,,,,,,,,,,,,,
,,,,,,,,,,,,,,,764,2022-01-19_20h30.09.434,multiplicationStroop,2021.2.3,Win32,60.10699044,,,,,left,1,0.5235,0,16,16,15,1,9,7,9 | 7,2,1.9756,1.4111,congruent,left,,,,,,stimulusFile/physical.xlsx,,,,,,,,,,,,,,,,,,,,,,,,,,,,,,,
,,,,,,,,,,,,,,,764,2022-01-19_20h30.09.434,multiplicationStroop,2021.2.3,Win32,60.10699044,,,,,right,1,0.5897,0,17,17,59,1,7,7,7 | 7,0,1.4111,1.9756,neutral,right,,,,,,stimulusFile/physical.xlsx,,,,,,,,,,,,,,,,,,,,,,,,,,,,,,,
,,,,,,,,,,,,,,,764,2022-01-19_20h30.09.434,multiplicationStroop,2021.2.3,Win32,60.10699044,,,,,right,1,0.7115,0,18,18,56,1,1,1,1 | 1,0,1.4111,1.9756,neutral,right,,,,,,stimulusFile/physical.xlsx,,,,,,,,,,,,,,,,,,,,,,,,,,,,,,,
,,,,,,,,,,,,,,,764,2022-01-19_20h30.09.434,multiplicationStroop,2021.2.3,Win32,60.10699044,,,,,left,0,0.8631,0,19,19,58,1,6,6,6 | 6,0,1.4111,1.9756,neutral,right,,,,,,stimulusFile/physical.xlsx,,,,,,,,,,,,,,,,,,,,,,,,,,,,,,,
,,,,,,,,,,,,,,,764,2022-01-19_20h30.09.434,multiplicationStroop,2021.2.3,Win32,60.10699044,,,,,right,1,1.0633,0,20,20,1,1,3,4,3 | 4,1,1.4111,1.9756,congruent,right,,,,,,stimulusFile/physical.xlsx,,,,,,,,,,,,,,,,,,,,,,,,,,,,,,,
,,,,,,,,,,,,,,,764,2022-01-19_20h30.09.434,multiplicationStroop,2021.2.3,Win32,60.10699044,,,,,left,1,0.5102,0,21,21,34,1,6,8,6 | 8,2,1.9756,1.4111,incongruent,left,,,,,,stimulusFile/physical.xlsx,,,,,,,,,,,,,,,,,,,,,,,,,,,,,,,
,,,,,,,,,,,,,,,764,2022-01-19_20h30.09.434,multiplicationStroop,2021.2.3,Win32,60.10699044,,,,,left,1,0.5902,0,22,22,24,1,1,2,1 | 2,1,1.9756,1.4111,incongruent,left,,,,,,stimulusFile/physical.xlsx,,,,,,,,,,,,,,,,,,,,,,,,,,,,,,,
,,,,,,,,,,,,,,,764,2022-01-19_20h30.09.434,multiplicationStroop,2021.2.3,Win32,60.10699044,,,,,left,1,0.6255,0,23,23,26,1,6,7,6 | 7,1,1.9756,1.4111,incongruent,left,,,,,,stimulusFile/physical.xlsx,,,,,,,,,,,,,,,,,,,,,,,,,,,,,,,
,,,,,,,,,,,,,,,764,2022-01-19_20h30.09.434,multiplicationStroop,2021.2.3,Win32,60.10699044,,,,,right,1,0.5725,0,24,24,2,1,6,7,6 | 7,1,1.4111,1.9756,congruent,right,,,,,,stimulusFile/physical.xlsx,,,,,,,,,,,,,,,,,,,,,,,,,,,,,,,
,,,,,,,,,,,,,,,764,2022-01-19_20h30.09.434,multiplicationStroop,2021.2.3,Win32,60.10699044,,,,,right,1,0.5938,0,25,25,28,1,2,1,2 | 1,1,1.4111,1.9756,incongruent,right,,,,,,stimulusFile/physical.xlsx,,,,,,,,,,,,,,,,,,,,,,,,,,,,,,,
,,,,,,,,,,,,,,,764,2022-01-19_20h30.09.434,multiplicationStroop,2021.2.3,Win32,60.10699044,,,,,right,1,0.5341,0,26,26,61,1,4,4,4 | 4,0,1.4111,1.9756,neutral,right,,,,,,stimulusFile/physical.xlsx,,,,,,,,,,,,,,,,,,,,,,,,,,,,,,,
,,,,,,,,,,,,,,,764,2022-01-19_20h30.09.434,multiplicationStroop,2021.2.3,Win32,60.10699044,,,,,left,1,0.4751,0,27,27,14,1,8,6,8 | 6,2,1.9756,1.4111,congruent,left,,,,,,stimulusFile/physical.xlsx,,,,,,,,,,,,,,,,,,,,,,,,,,,,,,,
,,,,,,,,,,,,,,,764,2022-01-19_20h30.09.434,multiplicationStroop,2021.2.3,Win32,60.10699044,,,,,left,1,0.515,0,28,28,27,1,8,9,8 | 9,1,1.9756,1.4111,incongruent,left,,,,,,stimulusFile/physical.xlsx,,,,,,,,,,,,,,,,,,,,,,,,,,,,,,,
,,,,,,,,,,,,,,,764,2022-01-19_20h30.09.434,multiplicationStroop,2021.2.3,Win32,60.10699044,,,,,left,1,0.4886,0,29,29,21,1,7,2,7 | 2,5,1.9756,1.4111,congruent,left,,,,,,stimulusFile/physical.xlsx,,,,,,,,,,,,,,,,,,,,,,,,,,,,,,,
,,,,,,,,,,,,,,,764,2022-01-19_20h30.09.434,multiplicationStroop,2021.2.3,Win32,60.10699044,,,,,left,1,0.4994,0,30,30,41,1,2,7,2 | 7,5,1.9756,1.4111,incongruent,left,,,,,,stimulusFile/physical.xlsx,,,,,,,,,,,,,,,,,,,,,,,,,,,,,,,
,,,,,,,,,,,,,,,764,2022-01-19_20h30.09.434,multiplicationStroop,2021.2.3,Win32,60.10699044,,,,,right,1,0.5908,0,31,31,45,1,7,2,7 | 2,5,1.4111,1.9756,incongruent,right,,,,,,stimulusFile/physical.xlsx,,,,,,,,,,,,,,,,,,,,,,,,,,,,,,,
,,,,,,,,,,,,,,,764,2022-01-19_20h30.09.434,multiplicationStroop,2021.2.3,Win32,60.10699044,,,,,right,1,0.5609,0,32,32,11,1,7,9,7 | 9,2,1.4111,1.9756,congruent,right,,,,,,stimulusFile/physical.xlsx,,,,,,,,,,,,,,,,,,,,,,,,,,,,,,,
,,,,,,,,,,,,,,,764,2022-01-19_20h30.09.434,multiplicationStroop,2021.2.3,Win32,60.10699044,,,,,right,1,0.5447,0,33,33,30,1,7,6,7 | 6,1,1.4111,1.9756,incongruent,right,,,,,,stimulusFile/physical.xlsx,,,,,,,,,,,,,,,,,,,,,,,,,,,,,,,
,,,,,,,,,,,,,,,764,2022-01-19_20h30.09.434,multiplicationStroop,2021.2.3,Win32,60.10699044,,,,,right,1,0.765,0,34,34,47,1,9,4,9 | 4,5,1.4111,1.9756,incongruent,right,,,,,,stimulusFile/physical.xlsx,,,,,,,,,,,,,,,,,,,,,,,,,,,,,,,
,,,,,,,,,,,,,,,764,2022-01-19_20h30.09.434,multiplicationStroop,2021.2.3,Win32,60.10699044,,,,,left,1,0.529,0,35,35,49,1,3,3,3 | 3,0,1.9756,1.4111,neutral,left,,,,,,stimulusFile/physical.xlsx,,,,,,,,,,,,,,,,,,,,,,,,,,,,,,,
,,,,,,,,,,,,,,,764,2022-01-19_20h30.09.434,multiplicationStroop,2021.2.3,Win32,60.10699044,,,,,left,1,0.4382,0,36,36,22,1,8,3,8 | 3,5,1.9756,1.4111,congruent,left,,,,,,stimulusFile/physical.xlsx,,,,,,,,,,,,,,,,,,,,,,,,,,,,,,,
,,,,,,,,,,,,,,,764,2022-01-19_20h30.09.434,multiplicationStroop,2021.2.3,Win32,60.10699044,,,,,right,1,0.5556,0,37,37,44,1,6,1,6 | 1,5,1.4111,1.9756,incongruent,right,,,,,,stimulusFile/physical.xlsx,,,,,,,,,,,,,,,,,,,,,,,,,,,,,,,
,,,,,,,,,,,,,,,764,2022-01-19_20h30.09.434,multiplicationStroop,2021.2.3,Win32,60.10699044,,,,,left,1,0.5323,0,38,38,40,1,1,6,1 | 6,5,1.9756,1.4111,incongruent,left,,,,,,stimulusFile/physical.xlsx,,,,,,,,,,,,,,,,,,,,,,,,,,,,,,,
,,,,,,,,,,,,,,,764,2022-01-19_20h30.09.434,multiplicationStroop,2021.2.3,Win32,60.10699044,,,,,left,1,0.7615,0,39,39,12,1,3,1,3 | 1,2,1.9756,1.4111,congruent,left,,,,,,stimulusFile/physical.xlsx,,,,,,,,,,,,,,,,,,,,,,,,,,,,,,,
,,,,,,,,,,,,,,,764,2022-01-19_20h30.09.434,multiplicationStroop,2021.2.3,Win32,60.10699044,,,,,left,0,0.5646,0,40,40,64,1,1,1,1 | 1,0,1.9756,1.4111,neutral,right,,,,,,stimulusFile/physical.xlsx,,,,,,,,,,,,,,,,,,,,,,,,,,,,,,,
,,,,,,,,,,,,,,,764,2022-01-19_20h30.09.434,multiplicationStroop,2021.2.3,Win32,60.10699044,,,,,left,0,0.5002,0,41,41,66,1,3,3,3 | 3,0,1.9756,1.4111,neutral,right,,,,,,stimulusFile/physical.xlsx,,,,,,,,,,,,,,,,,,,,,,,,,,,,,,,
,,,,,,,,,,,,,,,764,2022-01-19_20h30.09.434,multiplicationStroop,2021.2.3,Win32,60.10699044,,,,,right,1,0.5042,0,42,42,65,1,2,2,2 | 2,0,1.4111,1.9756,neutral,right,,,,,,stimulusFile/physical.xlsx,,,,,,,,,,,,,,,,,,,,,,,,,,,,,,,
,,,,,,,,,,,,,,,764,2022-01-19_20h30.09.434,multiplicationStroop,2021.2.3,Win32,60.10699044,,,,,right,1,0.605,0,43,43,63,1,9,9,9 | 9,0,1.4111,1.9756,neutral,right,,,,,,stimulusFile/physical.xlsx,,,,,,,,,,,,,,,,,,,,,,,,,,,,,,,
,,,,,,,,,,,,,,,764,2022-01-19_20h30.09.434,multiplicationStroop,2021.2.3,Win32,60.10699044,,,,,right,1,0.6023,0,44,44,37,1,4,2,4 | 2,2,1.4111,1.9756,incongruent,right,,,,,,stimulusFile/physical.xlsx,,,,,,,,,,,,,,,,,,,,,,,,,,,,,,,
,,,,,,,,,,,,,,,764,2022-01-19_20h30.09.434,multiplicationStroop,2021.2.3,Win32,60.10699044,,,,,left,1,0.5149,0,45,45,48,1,1,1,1 | 1,0,1.9756,1.4111,neutral,left,,,,,,stimulusFile/physical.xlsx,,,,,,,,,,,,,,,,,,,,,,,,,,,,,,,
,,,,,,,,,,,,,,,764,2022-01-19_20h30.09.434,multiplicationStroop,2021.2.3,Win32,60.10699044,,,,,left,1,0.5453,0,46,46,54,1,7,7,7 | 7,0,1.9756,1.4111,neutral,left,,,,,,stimulusFile/physical.xlsx,,,,,,,,,,,,,,,,,,,,,,,,,,,,,,,
,,,,,,,,,,,,,,,764,2022-01-19_20h30.09.434,multiplicationStroop,2021.2.3,Win32,60.10699044,,,,,left,1,0.5388,0,47,47,32,1,1,3,1 | 3,2,1.9756,1.4111,incongruent,left,,,,,,stimulusFile/physical.xlsx,,,,,,,,,,,,,,,,,,,,,,,,,,,,,,,
,,,,,,,,,,,,,,,764,2022-01-19_20h30.09.434,multiplicationStroop,2021.2.3,Win32,60.10699044,,,,,right,1,0.5582,0,48,48,36,1,3,1,3 | 1,2,1.4111,1.9756,incongruent,right,,,,,,stimulusFile/physical.xlsx,,,,,,,,,,,,,,,,,,,,,,,,,,,,,,,
,,,,,,,,,,,,,,,764,2022-01-19_20h30.09.434,multiplicationStroop,2021.2.3,Win32,60.10699044,,,,,left,1,0.5424,0,49,49,55,1,9,9,9 | 9,0,1.9756,1.4111,neutral,left,,,,,,stimulusFile/physical.xlsx,,,,,,,,,,,,,,,,,,,,,,,,,,,,,,,
,,,,,,,,,,,,,,,764,2022-01-19_20h30.09.434,multiplicationStroop,2021.2.3,Win32,60.10699044,,,,,right,1,0.5597,0,50,50,39,1,9,7,9 | 7,2,1.4111,1.9756,incongruent,right,,,,,,stimulusFile/physical.xlsx,,,,,,,,,,,,,,,,,,,,,,,,,,,,,,,
,,,,,,,,,,,,,,,764,2022-01-19_20h30.09.434,multiplicationStroop,2021.2.3,Win32,60.10699044,,,,,right,0,0.5457,0,51,51,69,1,7,7,7 | 7,0,1.4111,1.9756,neutral,left,,,,,,stimulusFile/physical.xlsx,,,,,,,,,,,,,,,,,,,,,,,,,,,,,,,
,,,,,,,,,,,,,,,764,2022-01-19_20h30.09.434,multiplicationStroop,2021.2.3,Win32,60.10699044,,,,,right,1,0.6277,0,52,52,17,1,2,7,2 | 7,5,1.4111,1.9756,congruent,right,,,,,,stimulusFile/physical.xlsx,,,,,,,,,,,,,,,,,,,,,,,,,,,,,,,
,,,,,,,,,,,,,,,764,2022-01-19_20h30.09.434,multiplicationStroop,2021.2.3,Win32,60.10699044,,,,,right,1,0.6336,0,53,53,19,1,4,9,4 | 9,5,1.4111,1.9756,congruent,right,,,,,,stimulusFile/physical.xlsx,,,,,,,,,,,,,,,,,,,,,,,,,,,,,,,
,,,,,,,,,,,,,,,764,2022-01-19_20h30.09.434,multiplicationStroop,2021.2.3,Win32,60.10699044,,,,,right,1,0.6391,0,54,54,60,1,3,3,3 | 3,0,1.4111,1.9756,neutral,right,,,,,,stimulusFile/physical.xlsx,,,,,,,,,,,,,,,,,,,,,,,,,,,,,,,
,,,,,,,,,,,,,,,764,2022-01-19_20h30.09.434,multiplicationStroop,2021.2.3,Win32,60.10699044,,,,,left,1,0.4926,0,55,55,43,1,4,9,4 | 9,5,1.9756,1.4111,incongruent,left,,,,,,stimulusFile/physical.xlsx,,,,,,,,,,,,,,,,,,,,,,,,,,,,,,,
,,,,,,,,,,,,,,,764,2022-01-19_20h30.09.434,multiplicationStroop,2021.2.3,Win32,60.10699044,,,,,left,1,0.4858,0,56,56,13,1,4,2,4 | 2,2,1.9756,1.4111,congruent,left,,,,,,stimulusFile/physical.xlsx,,,,,,,,,,,,,,,,,,,,,,,,,,,,,,,
,,,,,,,,,,,,,,,764,2022-01-19_20h30.09.434,multiplicationStroop,2021.2.3,Win32,60.10699044,,,,,right,1,0.5057,0,57,57,16,1,1,6,1 | 6,5,1.4111,1.9756,congruent,right,,,,,,stimulusFile/physical.xlsx,,,,,,,,,,,,,,,,,,,,,,,,,,,,,,,
,,,,,,,,,,,,,,,764,2022-01-19_20h30.09.434,multiplicationStroop,2021.2.3,Win32,60.10699044,,,,,right,1,0.5347,0,58,58,62,1,8,8,8 | 8,0,1.4111,1.9756,neutral,right,,,,,,stimulusFile/physical.xlsx,,,,,,,,,,,,,,,,,,,,,,,,,,,,,,,
,,,,,,,,,,,,,,,764,2022-01-19_20h30.09.434,multiplicationStroop,2021.2.3,Win32,60.10699044,,,,,left,1,0.741,0,59,59,53,1,4,4,4 | 4,0,1.9756,1.4111,neutral,left,,,,,,stimulusFile/physical.xlsx,,,,,,,,,,,,,,,,,,,,,,,,,,,,,,,
,,,,,,,,,,,,,,,764,2022-01-19_20h30.09.434,multiplicationStroop,2021.2.3,Win32,60.10699044,,,,,left,1,0.5558,0,60,60,23,1,9,4,9 | 4,5,1.9756,1.4111,congruent,left,,,,,,stimulusFile/physical.xlsx,,,,,,,,,,,,,,,,,,,,,,,,,,,,,,,
,,,,,,,,,,,,,,,764,2022-01-19_20h30.09.434,multiplicationStroop,2021.2.3,Win32,60.10699044,,,,,left,1,0.7109,0,61,61,50,1,6,6,6 | 6,0,1.9756,1.4111,neutral,left,,,,,,stimulusFile/physical.xlsx,,,,,,,,,,,,,,,,,,,,,,,,,,,,,,,
,,,,,,,,,,,,,,,764,2022-01-19_20h30.09.434,multiplicationStroop,2021.2.3,Win32,60.10699044,,,,,left,1,0.7724,0,62,62,68,1,6,6,6 | 6,0,1.9756,1.4111,neutral,left,,,,,,stimulusFile/physical.xlsx,,,,,,,,,,,,,,,,,,,,,,,,,,,,,,,
,,,,,,,,,,,,,,,764,2022-01-19_20h30.09.434,multiplicationStroop,2021.2.3,Win32,60.10699044,,,,,right,1,0.6585,0,63,63,46,1,8,3,8 | 3,5,1.4111,1.9756,incongruent,right,,,,,,stimulusFile/physical.xlsx,,,,,,,,,,,,,,,,,,,,,,,,,,,,,,,
,,,,,,,,,,,,,,,764,2022-01-19_20h30.09.434,multiplicationStroop,2021.2.3,Win32,60.10699044,,,,,right,1,0.5289,0,64,64,29,1,4,3,4 | 3,1,1.4111,1.9756,incongruent,right,,,,,,stimulusFile/physical.xlsx,,,,,,,,,,,,,,,,,,,,,,,,,,,,,,,
,,,,,,,,,,,,,,,764,2022-01-19_20h30.09.434,multiplicationStroop,2021.2.3,Win32,60.10699044,,,,,right,1,0.5634,0,65,65,67,1,4,4,4 | 4,0,1.4111,1.9756,neutral,right,,,,,,stimulusFile/physical.xlsx,,,,,,,,,,,,,,,,,,,,,,,,,,,,,,,
,,,,,,,,,,,,,,,764,2022-01-19_20h30.09.434,multiplicationStroop,2021.2.3,Win32,60.10699044,,,,,left,1,0.5172,0,66,66,33,1,2,4,2 | 4,2,1.9756,1.4111,incongruent,left,,,,,,stimulusFile/physical.xlsx,,,,,,,,,,,,,,,,,,,,,,,,,,,,,,,
,,,,,,,,,,,,,,,764,2022-01-19_20h30.09.434,multiplicationStroop,2021.2.3,Win32,60.10699044,,,,,left,1,0.53,0,67,67,4,1,2,1,2 | 1,1,1.9756,1.4111,congruent,left,,,,,,stimulusFile/physical.xlsx,,,,,,,,,,,,,,,,,,,,,,,,,,,,,,,
,,,,,,,,,,,,,,,764,2022-01-19_20h30.09.434,multiplicationStroop,2021.2.3,Win32,60.10699044,,,,,right,1,0.6066,0,68,68,57,1,2,2,2 | 2,0,1.4111,1.9756,neutral,right,,,,,,stimulusFile/physical.xlsx,,,,,,,,,,,,,,,,,,,,,,,,,,,,,,,
,,,,,,,,,,,,,,,764,2022-01-19_20h30.09.434,multiplicationStroop,2021.2.3,Win32,60.10699044,,,,,right,0,0.5629,0,69,69,71,1,9,9,9 | 9,0,1.4111,1.9756,neutral,left,,,,,,stimulusFile/physical.xlsx,,,,,,,,,,,,,,,,,,,,,,,,,,,,,,,
,,,,,,,,,,,,,,,764,2022-01-19_20h30.09.434,multiplicationStroop,2021.2.3,Win32,60.10699044,,,,,left,1,0.5399,0,70,70,25,1,3,4,3 | 4,1,1.9756,1.4111,incongruent,left,,,,,,stimulusFile/physical.xlsx,,,,,,,,,,,,,,,,,,,,,,,,,,,,,,,
,,,,,,,,,,,,,,,764,2022-01-19_20h30.09.434,multiplicationStroop,2021.2.3,Win32,60.10699044,,,,,left,1,0.7895,0,71,71,70,1,8,8,8 | 8,0,1.9756,1.4111,neutral,left,,,,,,stimulusFile/physical.xlsx,,,,,,,,,,,,,,,,,,,,,,,,,,,,,,,
,,,,,,,,,,,,,,,764,2022-01-19_20h30.09.434,multiplicationStroop,2021.2.3,Win32,60.10699044,,,,,,,,,,,,,,,,,,,,,0,0,0,1,1,stimulusFile/physical.xlsx,PHYSICALLY larger (larger font size).,images/physicallyLarger.png,,,,,,,,,,,,,,,,,,,,,,,,,,,,,
,,,,,,,,,,,,,,,764,2022-01-19_20h30.09.434,multiplicationStroop,2021.2.3,Win32,60.10699044,space,7.8631,space,9.0444,right,1,0.8895,0,0,0,3,1,8,9,8 | 9,1,1.4111,1.9756,congruent,right,,,,,,stimulusFile/magnitude.xlsx,,,,,,,,,,,,,,,,,,,,,,,,,,,,,,,
,,,,,,,,,,,,,,,764,2022-01-19_20h30.09.434,multiplicationStroop,2021.2.3,Win32,60.10699044,,,,,right,1,2.6791,0,1,1,43,1,4,9,4 | 9,5,1.9756,1.4111,incongruent,right,,,,,,stimulusFile/magnitude.xlsx,,,,,,,,,,,,,,,,,,,,,,,,,,,,,,,
,,,,,,,,,,,,,,,764,2022-01-19_20h30.09.434,multiplicationStroop,2021.2.3,Win32,60.10699044,,,,,right,1,0.8308,0,2,2,66,1,3,8,3 | 8,5,1.6933,1.6933,neutral,right,,,,,,stimulusFile/magnitude.xlsx,,,,,,,,,,,,,,,,,,,,,,,,,,,,,,,
,,,,,,,,,,,,,,,764,2022-01-19_20h30.09.434,multiplicationStroop,2021.2.3,Win32,60.10699044,,,,,left,1,1.0157,0,3,3,63,1,9,7,9 | 7,2,1.6933,1.6933,neutral,left,,,,,,stimulusFile/magnitude.xlsx,,,,,,,,,,,,,,,,,,,,,,,,,,,,,,,
,,,,,,,,,,,,,,,764,2022-01-19_20h30.09.434,multiplicationStroop,2021.2.3,Win32,60.10699044,,,,,right,1,0.8656,0,4,4,57,1,2,4,2 | 4,2,1.6933,1.6933,neutral,right,,,,,,stimulusFile/magnitude.xlsx,,,,,,,,,,,,,,,,,,,,,,,,,,,,,,,
,,,,,,,,,,,,,,,764,2022-01-19_20h30.09.434,multiplicationStroop,2021.2.3,Win32,60.10699044,,,,,left,0,1.082,0,5,5,41,1,2,7,2 | 7,5,1.9756,1.4111,incongruent,right,,,,,,stimulusFile/magnitude.xlsx,,,,,,,,,,,,,,,,,,,,,,,,,,,,,,,
,,,,,,,,,,,,,,,764,2022-01-19_20h30.09.434,multiplicationStroop,2021.2.3,Win32,60.10699044,,,,,right,1,1.3237,0,6,6,24,1,1,2,1 | 2,1,1.9756,1.4111,incongruent,right,,,,,,stimulusFile/magnitude.xlsx,,,,,,,,,,,,,,,,,,,,,,,,,,,,,,,
,,,,,,,,,,,,,,,764,2022-01-19_20h30.09.434,multiplicationStroop,2021.2.3,Win32,60.10699044,,,,,left,1,1.1117,0,7,7,61,1,4,2,4 | 2,2,1.6933,1.6933,neutral,left,,,,,,stimulusFile/magnitude.xlsx,,,,,,,,,,,,,,,,,,,,,,,,,,,,,,,
,,,,,,,,,,,,,,,764,2022-01-19_20h30.09.434,multiplicationStroop,2021.2.3,Win32,60.10699044,,,,,right,1,0.8779,0,8,8,27,1,8,9,8 | 9,1,1.9756,1.4111,incongruent,right,,,,,,stimulusFile/magnitude.xlsx,,,,,,,,,,,,,,,,,,,,,,,,,,,,,,,
,,,,,,,,,,,,,,,764,2022-01-19_20h30.09.434,multiplicationStroop,2021.2.3,Win32,60.10699044,,,,,right,1,0.7745,0,9,9,65,1,2,7,2 | 7,5,1.6933,1.6933,neutral,right,,,,,,stimulusFile/magnitude.xlsx,,,,,,,,,,,,,,,,,,,,,,,,,,,,,,,
,,,,,,,,,,,,,,,764,2022-01-19_20h30.09.434,multiplicationStroop,2021.2.3,Win32,60.10699044,,,,,right,1,0.7926,0,10,10,35,1,7,9,7 | 9,2,1.9756,1.4111,incongruent,right,,,,,,stimulusFile/magnitude.xlsx,,,,,,,,,,,,,,,,,,,,,,,,,,,,,,,
,,,,,,,,,,,,,,,764,2022-01-19_20h30.09.434,multiplicationStroop,2021.2.3,Win32,60.10699044,,,,,right,1,1.0408,0,11,11,49,1,3,4,3 | 4,1,1.6933,1.6933,neutral,right,,,,,,stimulusFile/magnitude.xlsx,,,,,,,,,,,,,,,,,,,,,,,,,,,,,,,
,,,,,,,,,,,,,,,764,2022-01-19_20h30.09.434,multiplicationStroop,2021.2.3,Win32,60.10699044,,,,,right,1,0.5592,0,12,12,1,1,3,4,3 | 4,1,1.4111,1.9756,congruent,right,,,,,,stimulusFile/magnitude.xlsx,,,,,,,,,,,,,,,,,,,,,,,,,,,,,,,
,,,,,,,,,,,,,,,764,2022-01-19_20h30.09.434,multiplicationStroop,2021.2.3,Win32,60.10699044,,,,,right,1,0.6408,0,13,13,40,1,1,6,1 | 6,5,1.9756,1.4111,incongruent,right,,,,,,stimulusFile/magnitude.xlsx,,,,,,,,,,,,,,,,,,,,,,,,,,,,,,,
,,,,,,,,,,,,,,,764,2022-01-19_20h30.09.434,multiplicationStroop,2021.2.3,Win32,60.10699044,,,,,right,1,0.5724,0,14,14,11,1,7,9,7 | 9,2,1.4111,1.9756,congruent,right,,,,,,stimulusFile/magnitude.xlsx,,,,,,,,,,,,,,,,,,,,,,,,,,,,,,,
,,,,,,,,,,,,,,,764,2022-01-19_20h30.09.434,multiplicationStroop,2021.2.3,Win32,60.10699044,,,,,left,1,0.8114,0,15,15,20,1,6,1,6 | 1,5,1.9756,1.4111,congruent,left,,,,,,stimulusFile/magnitude.xlsx,,,,,,,,,,,,,,,,,,,,,,,,,,,,,,,
,,,,,,,,,,,,,,,764,2022-01-19_20h30.09.434,multiplicationStroop,2021.2.3,Win32,60.10699044,,,,,left,1,0.8744,0,16,16,52,1,2,1,2 | 1,1,1.6933,1.6933,neutral,left,,,,,,stimulusFile/magnitude.xlsx,,,,,,,,,,,,,,,,,,,,,,,,,,,,,,,
,,,,,,,,,,,,,,,764,2022-01-19_20h30.09.434,multiplicationStroop,2021.2.3,Win32,60.10699044,,,,,left,1,0.6133,0,17,17,22,1,8,3,8 | 3,5,1.9756,1.4111,congruent,left,,,,,,stimulusFile/magnitude.xlsx,,,,,,,,,,,,,,,,,,,,,,,,,,,,,,,
,,,,,,,,,,,,,,,764,2022-01-19_20h30.09.434,multiplicationStroop,2021.2.3,Win32,60.10699044,,,,,right,0,0.5841,0,18,18,38,1,8,6,8 | 6,2,1.4111,1.9756,incongruent,left,,,,,,stimulusFile/magnitude.xlsx,,,,,,,,,,,,,,,,,,,,,,,,,,,,,,,
,,,,,,,,,,,,,,,764,2022-01-19_20h30.09.434,multiplicationStroop,2021.2.3,Win32,60.10699044,,,,,left,1,2.5563,0,19,19,54,1,7,6,7 | 6,1,1.6933,1.6933,neutral,left,,,,,,stimulusFile/magnitude.xlsx,,,,,,,,,,,,,,,,,,,,,,,,,,,,,,,
,,,,,,,,,,,,,,,764,2022-01-19_20h30.09.434,multiplicationStroop,2021.2.3,Win32,60.10699044,,,,,left,1,0.8558,0,20,20,46,1,8,3,8 | 3,5,1.4111,1.9756,incongruent,left,,,,,,stimulusFile/magnitude.xlsx,,,,,,,,,,,,,,,,,,,,,,,,,,,,,,,
,,,,,,,,,,,,,,,764,2022-01-19_20h30.09.434,multiplicationStroop,2021.2.3,Win32,60.10699044,,,,,left,1,0.761,0,21,21,14,1,8,6,8 | 6,2,1.9756,1.4111,congruent,left,,,,,,stimulusFile/magnitude.xlsx,,,,,,,,,,,,,,,,,,,,,,,,,,,,,,,
,,,,,,,,,,,,,,,764,2022-01-19_20h30.09.434,multiplicationStroop,2021.2.3,Win32,60.10699044,,,,,left,1,0.9314,0,22,22,6,1,7,6,7 | 6,1,1.9756,1.4111,congruent,left,,,,,,stimulusFile/magnitude.xlsx,,,,,,,,,,,,,,,,,,,,,,,,,,,,,,,
,,,,,,,,,,,,,,,764,2022-01-19_20h30.09.434,multiplicationStroop,2021.2.3,Win32,60.10699044,,,,,right,1,1.268,0,23,23,64,1,1,6,1 | 6,5,1.6933,1.6933,neutral,right,,,,,,stimulusFile/magnitude.xlsx,,,,,,,,,,,,,,,,,,,,,,,,,,,,,,,
,,,,,,,,,,,,,,,764,2022-01-19_20h30.09.434,multiplicationStroop,2021.2.3,Win32,60.10699044,,,,,left,1,0.8047,0,24,24,55,1,9,8,9 | 8,1,1.6933,1.6933,neutral,left,,,,,,stimulusFile/magnitude.xlsx,,,,,,,,,,,,,,,,,,,,,,,,,,,,,,,
,,,,,,,,,,,,,,,764,2022-01-19_20h30.09.434,multiplicationStroop,2021.2.3,Win32,60.10699044,,,,,right,1,1.3086,0,25,25,26,1,6,7,6 | 7,1,1.9756,1.4111,incongruent,right,,,,,,stimulusFile/magnitude.xlsx,,,,,,,,,,,,,,,,,,,,,,,,,,,,,,,
,,,,,,,,,,,,,,,764,2022-01-19_20h30.09.434,multiplicationStroop,2021.2.3,Win32,60.10699044,,,,,right,1,0.6703,0,26,26,9,1,2,4,2 | 4,2,1.4111,1.9756,congruent,right,,,,,,stimulusFile/magnitude.xlsx,,,,,,,,,,,,,,,,,,,,,,,,,,,,,,,
,,,,,,,,,,,,,,,764,2022-01-19_20h30.09.434,multiplicationStroop,2021.2.3,Win32,60.10699044,,,,,right,1,0.6181,0,27,27,10,1,6,8,6 | 8,2,1.4111,1.9756,congruent,right,,,,,,stimulusFile/magnitude.xlsx,,,,,,,,,,,,,,,,,,,,,,,,,,,,,,,
,,,,,,,,,,,,,,,764,2022-01-19_20h30.09.434,multiplicationStroop,2021.2.3,Win32,60.10699044,,,,,right,1,0.621,0,28,28,8,1,1,3,1 | 3,2,1.4111,1.9756,congruent,right,,,,,,stimulusFile/magnitude.xlsx,,,,,,,,,,,,,,,,,,,,,,,,,,,,,,,
,,,,,,,,,,,,,,,764,2022-01-19_20h30.09.434,multiplicationStroop,2021.2.3,Win32,60.10699044,,,,,right,1,0.7197,0,29,29,18,1,3,8,3 | 8,5,1.4111,1.9756,congruent,right,,,,,,stimulusFile/magnitude.xlsx,,,,,,,,,,,,,,,,,,,,,,,,,,,,,,,
,,,,,,,,,,,,,,,764,2022-01-19_20h30.09.434,multiplicationStroop,2021.2.3,Win32,60.10699044,,,,,left,1,0.8413,0,30,30,53,1,4,3,4 | 3,1,1.6933,1.6933,neutral,left,,,,,,stimulusFile/magnitude.xlsx,,,,,,,,,,,,,,,,,,,,,,,,,,,,,,,
,,,,,,,,,,,,,,,764,2022-01-19_20h30.09.434,multiplicationStroop,2021.2.3,Win32,60.10699044,,,,,left,1,1.1539,0,31,31,28,1,2,1,2 | 1,1,1.4111,1.9756,incongruent,left,,,,,,stimulusFile/magnitude.xlsx,,,,,,,,,,,,,,,,,,,,,,,,,,,,,,,
,,,,,,,,,,,,,,,764,2022-01-19_20h30.09.434,multiplicationStroop,2021.2.3,Win32,60.10699044,,,,,right,1,0.7094,0,32,32,51,1,8,9,8 | 9,1,1.6933,1.6933,neutral,right,,,,,,stimulusFile/magnitude.xlsx,,,,,,,,,,,,,,,,,,,,,,,,,,,,,,,
,,,,,,,,,,,,,,,764,2022-01-19_20h30.09.434,multiplicationStroop,2021.2.3,Win32,60.10699044,,,,,left,1,0.8174,0,33,33,15,1,9,7,9 | 7,2,1.9756,1.4111,congruent,left,,,,,,stimulusFile/magnitude.xlsx,,,,,,,,,,,,,,,,,,,,,,,,,,,,,,,
,,,,,,,,,,,,,,,764,2022-01-19_20h30.09.434,multiplicationStroop,2021.2.3,Win32,60.10699044,,,,,left,1,0.6277,0,34,34,70,1,8,3,8 | 3,5,1.6933,1.6933,neutral,left,,,,,,stimulusFile/magnitude.xlsx,,,,,,,,,,,,,,,,,,,,,,,,,,,,,,,
,,,,,,,,,,,,,,,764,2022-01-19_20h30.09.434,multiplicationStroop,2021.2.3,Win32,60.10699044,,,,,left,1,0.841,0,35,35,60,1,3,1,3 | 1,2,1.6933,1.6933,neutral,left,,,,,,stimulusFile/magnitude.xlsx,,,,,,,,,,,,,,,,,,,,,,,,,,,,,,,
,,,,,,,,,,,,,,,764,2022-01-19_20h30.09.434,multiplicationStroop,2021.2.3,Win32,60.10699044,,,,,right,1,0.6718,0,36,36,0,1,1,2,1 | 2,1,1.4111,1.9756,congruent,right,,,,,,stimulusFile/magnitude.xlsx,,,,,,,,,,,,,,,,,,,,,,,,,,,,,,,
,,,,,,,,,,,,,,,764,2022-01-19_20h30.09.434,multiplicationStroop,2021.2.3,Win32,60.10699044,,,,,left,1,0.8083,0,37,37,5,1,4,3,4 | 3,1,1.9756,1.4111,congruent,left,,,,,,stimulusFile/magnitude.xlsx,,,,,,,,,,,,,,,,,,,,,,,,,,,,,,,
,,,,,,,,,,,,,,,764,2022-01-19_20h30.09.434,multiplicationStroop,2021.2.3,Win32,60.10699044,,,,,left,1,1.0229,0,38,38,23,1,9,4,9 | 4,5,1.9756,1.4111,congruent,left,,,,,,stimulusFile/magnitude.xlsx,,,,,,,,,,,,,,,,,,,,,,,,,,,,,,,
,,,,,,,,,,,,,,,764,2022-01-19_20h30.09.434,multiplicationStroop,2021.2.3,Win32,60.10699044,,,,,left,1,0.9851,0,39,39,30,1,7,6,7 | 6,1,1.4111,1.9756,incongruent,left,,,,,,stimulusFile/magnitude.xlsx,,,,,,,,,,,,,,,,,,,,,,,,,,,,,,,
,,,,,,,,,,,,,,,764,2022-01-19_20h30.09.434,multiplicationStroop,2021.2.3,Win32,60.10699044,,,,,left,1,0.8019,0,40,40,21,1,7,2,7 | 2,5,1.9756,1.4111,congruent,left,,,,,,stimulusFile/magnitude.xlsx,,,,,,,,,,,,,,,,,,,,,,,,,,,,,,,
,,,,,,,,,,,,,,,764,2022-01-19_20h30.09.434,multiplicationStroop,2021.2.3,Win32,60.10699044,,,,,left,1,0.8557,0,41,41,39,1,9,7,9 | 7,2,1.4111,1.9756,incongruent,left,,,,,,stimulusFile/magnitude.xlsx,,,,,,,,,,,,,,,,,,,,,,,,,,,,,,,
,,,,,,,,,,,,,,,764,2022-01-19_20h30.09.434,multiplicationStroop,2021.2.3,Win32,60.10699044,,,,,right,1,0.935,0,42,42,17,1,2,7,2 | 7,5,1.4111,1.9756,congruent,right,,,,,,stimulusFile/magnitude.xlsx,,,,,,,,,,,,,,,,,,,,,,,,,,,,,,,
,,,,,,,,,,,,,,,764,2022-01-19_20h30.09.434,multiplicationStroop,2021.2.3,Win32,60.10699044,,,,,left,1,1.0008,0,43,43,44,1,6,1,6 | 1,5,1.4111,1.9756,incongruent,left,,,,,,stimulusFile/magnitude.xlsx,,,,,,,,,,,,,,,,,,,,,,,,,,,,,,,
,,,,,,,,,,,,,,,764,2022-01-19_20h30.09.434,multiplicationStroop,2021.2.3,Win32,60.10699044,,,,,left,1,1.0239,0,44,44,4,1,2,1,2 | 1,1,1.9756,1.4111,congruent,left,,,,,,stimulusFile/magnitude.xlsx,,,,,,,,,,,,,,,,,,,,,,,,,,,,,,,
,,,,,,,,,,,,,,,764,2022-01-19_20h30.09.434,multiplicationStroop,2021.2.3,Win32,60.10699044,,,,,left,1,0.8756,0,45,45,31,1,9,8,9 | 8,1,1.4111,1.9756,incongruent,left,,,,,,stimulusFile/magnitude.xlsx,,,,,,,,,,,,,,,,,,,,,,,,,,,,,,,
,,,,,,,,,,,,,,,764,2022-01-19_20h30.09.434,multiplicationStroop,2021.2.3,Win32,60.10699044,,,,,left,1,0.9078,0,46,46,37,1,4,2,4 | 2,2,1.4111,1.9756,incongruent,left,,,,,,stimulusFile/magnitude.xlsx,,,,,,,,,,,,,,,,,,,,,,,,,,,,,,,
,,,,,,,,,,,,,,,764,2022-01-19_20h30.09.434,multiplicationStroop,2021.2.3,Win32,60.10699044,,,,,left,1,1.2262,0,47,47,69,1,7,2,7 | 2,5,1.6933,1.6933,neutral,left,,,,,,stimulusFile/magnitude.xlsx,,,,,,,,,,,,,,,,,,,,,,,,,,,,,,,
,,,,,,,,,,,,,,,764,2022-01-19_20h30.09.434,multiplicationStroop,2021.2.3,Win32,60.10699044,,,,,right,1,1.0636,0,48,48,2,1,6,7,6 | 7,1,1.4111,1.9756,congruent,right,,,,,,stimulusFile/magnitude.xlsx,,,,,,,,,,,,,,,,,,,,,,,,,,,,,,,
,,,,,,,,,,,,,,,764,2022-01-19_20h30.09.434,multiplicationStroop,2021.2.3,Win32,60.10699044,,,,,left,1,0.8412,0,49,49,36,1,3,1,3 | 1,2,1.4111,1.9756,incongruent,left,,,,,,stimulusFile/magnitude.xlsx,,,,,,,,,,,,,,,,,,,,,,,,,,,,,,,
,,,,,,,,,,,,,,,764,2022-01-19_20h30.09.434,multiplicationStroop,2021.2.3,Win32,60.10699044,,,,,right,1,1.4282,0,50,50,50,1,6,7,6 | 7,1,1.6933,1.6933,neutral,right,,,,,,stimulusFile/magnitude.xlsx,,,,,,,,,,,,,,,,,,,,,,,,,,,,,,,
,,,,,,,,,,,,,,,764,2022-01-19_20h30.09.434,multiplicationStroop,2021.2.3,Win32,60.10699044,,,,,right,1,0.8934,0,51,51,33,1,2,4,2 | 4,2,1.9756,1.4111,incongruent,right,,,,,,stimulusFile/magnitude.xlsx,,,,,,,,,,,,,,,,,,,,,,,,,,,,,,,
,,,,,,,,,,,,,,,764,2022-01-19_20h30.09.434,multiplicationStroop,2021.2.3,Win32,60.10699044,,,,,right,1,0.902,0,52,52,25,1,3,4,3 | 4,1,1.9756,1.4111,incongruent,right,,,,,,stimulusFile/magnitude.xlsx,,,,,,,,,,,,,,,,,,,,,,,,,,,,,,,
,,,,,,,,,,,,,,,764,2022-01-19_20h30.09.434,multiplicationStroop,2021.2.3,Win32,60.10699044,,,,,left,1,1.0681,0,53,53,62,1,8,6,8 | 6,2,1.6933,1.6933,neutral,left,,,,,,stimulusFile/magnitude.xlsx,,,,,,,,,,,,,,,,,,,,,,,,,,,,,,,
,,,,,,,,,,,,,,,764,2022-01-19_20h30.09.434,multiplicationStroop,2021.2.3,Win32,60.10699044,,,,,right,1,1.2673,0,54,54,58,1,6,8,6 | 8,2,1.6933,1.6933,neutral,right,,,,,,stimulusFile/magnitude.xlsx,,,,,,,,,,,,,,,,,,,,,,,,,,,,,,,
,,,,,,,,,,,,,,,764,2022-01-19_20h30.09.434,multiplicationStroop,2021.2.3,Win32,60.10699044,,,,,left,1,0.9941,0,55,55,29,1,4,3,4 | 3,1,1.4111,1.9756,incongruent,left,,,,,,stimulusFile/magnitude.xlsx,,,,,,,,,,,,,,,,,,,,,,,,,,,,,,,
,,,,,,,,,,,,,,,764,2022-01-19_20h30.09.434,multiplicationStroop,2021.2.3,Win32,60.10699044,,,,,left,1,1.1681,0,56,56,45,1,7,2,7 | 2,5,1.4111,1.9756,incongruent,left,,,,,,stimulusFile/magnitude.xlsx,,,,,,,,,,,,,,,,,,,,,,,,,,,,,,,
,,,,,,,,,,,,,,,764,2022-01-19_20h30.09.434,multiplicationStroop,2021.2.3,Win32,60.10699044,,,,,right,1,1.1672,0,57,57,34,1,6,8,6 | 8,2,1.9756,1.4111,incongruent,right,,,,,,stimulusFile/magnitude.xlsx,,,,,,,,,,,,,,,,,,,,,,,,,,,,,,,
,,,,,,,,,,,,,,,764,2022-01-19_20h30.09.434,multiplicationStroop,2021.2.3,Win32,60.10699044,,,,,right,1,0.9883,0,58,58,19,1,4,9,4 | 9,5,1.4111,1.9756,congruent,right,,,,,,stimulusFile/magnitude.xlsx,,,,,,,,,,,,,,,,,,,,,,,,,,,,,,,
,,,,,,,,,,,,,,,764,2022-01-19_20h30.09.434,multiplicationStroop,2021.2.3,Win32,60.10699044,,,,,left,1,1.4505,0,59,59,12,1,3,1,3 | 1,2,1.9756,1.4111,congruent,left,,,,,,stimulusFile/magnitude.xlsx,,,,,,,,,,,,,,,,,,,,,,,,,,,,,,,
,,,,,,,,,,,,,,,764,2022-01-19_20h30.09.434,multiplicationStroop,2021.2.3,Win32,60.10699044,,,,,right,1,0.7508,0,60,60,16,1,1,6,1 | 6,5,1.4111,1.9756,congruent,right,,,,,,stimulusFile/magnitude.xlsx,,,,,,,,,,,,,,,,,,,,,,,,,,,,,,,
,,,,,,,,,,,,,,,764,2022-01-19_20h30.09.434,multiplicationStroop,2021.2.3,Win32,60.10699044,,,,,right,1,0.7678,0,61,61,48,1,1,2,1 | 2,1,1.6933,1.6933,neutral,right,,,,,,stimulusFile/magnitude.xlsx,,,,,,,,,,,,,,,,,,,,,,,,,,,,,,,
,,,,,,,,,,,,,,,764,2022-01-19_20h30.09.434,multiplicationStroop,2021.2.3,Win32,60.10699044,,,,,right,1,1.112,0,62,62,59,1,7,9,7 | 9,2,1.6933,1.6933,neutral,right,,,,,,stimulusFile/magnitude.xlsx,,,,,,,,,,,,,,,,,,,,,,,,,,,,,,,
,,,,,,,,,,,,,,,764,2022-01-19_20h30.09.434,multiplicationStroop,2021.2.3,Win32,60.10699044,,,,,left,1,1.2421,0,63,63,47,1,9,4,9 | 4,5,1.4111,1.9756,incongruent,left,,,,,,stimulusFile/magnitude.xlsx,,,,,,,,,,,,,,,,,,,,,,,,,,,,,,,
,,,,,,,,,,,,,,,764,2022-01-19_20h30.09.434,multiplicationStroop,2021.2.3,Win32,60.10699044,,,,,left,1,0.8726,0,64,64,68,1,6,1,6 | 1,5,1.6933,1.6933,neutral,left,,,,,,stimulusFile/magnitude.xlsx,,,,,,,,,,,,,,,,,,,,,,,,,,,,,,,
,,,,,,,,,,,,,,,764,2022-01-19_20h30.09.434,multiplicationStroop,2021.2.3,Win32,60.10699044,,,,,left,1,1.2845,0,65,65,7,1,9,8,9 | 8,1,1.9756,1.4111,congruent,left,,,,,,stimulusFile/magnitude.xlsx,,,,,,,,,,,,,,,,,,,,,,,,,,,,,,,
,,,,,,,,,,,,,,,764,2022-01-19_20h30.09.434,multiplicationStroop,2021.2.3,Win32,60.10699044,,,,,right,1,0.9739,0,66,66,67,1,4,9,4 | 9,5,1.6933,1.6933,neutral,right,,,,,,stimulusFile/magnitude.xlsx,,,,,,,,,,,,,,,,,,,,,,,,,,,,,,,
,,,,,,,,,,,,,,,764,2022-01-19_20h30.09.434,multiplicationStroop,2021.2.3,Win32,60.10699044,,,,,right,1,0.8575,0,67,67,42,1,3,8,3 | 8,5,1.9756,1.4111,incongruent,right,,,,,,stimulusFile/magnitude.xlsx,,,,,,,,,,,,,,,,,,,,,,,,,,,,,,,
,,,,,,,,,,,,,,,764,2022-01-19_20h30.09.434,multiplicationStroop,2021.2.3,Win32,60.10699044,,,,,right,1,0.8696,0,68,68,32,1,1,3,1 | 3,2,1.9756,1.4111,incongruent,right,,,,,,stimulusFile/magnitude.xlsx,,,,,,,,,,,,,,,,,,,,,,,,,,,,,,,
,,,,,,,,,,,,,,,764,2022-01-19_20h30.09.434,multiplicationStroop,2021.2.3,Win32,60.10699044,,,,,right,1,1.6518,0,69,69,56,1,1,3,1 | 3,2,1.6933,1.6933,neutral,right,,,,,,stimulusFile/magnitude.xlsx,,,,,,,,,,,,,,,,,,,,,,,,,,,,,,,
,,,,,,,,,,,,,,,764,2022-01-19_20h30.09.434,multiplicationStroop,2021.2.3,Win32,60.10699044,,,,,left,1,0.8515,0,70,70,13,1,4,2,4 | 2,2,1.9756,1.4111,congruent,left,,,,,,stimulusFile/magnitude.xlsx,,,,,,,,,,,,,,,,,,,,,,,,,,,,,,,
,,,,,,,,,,,,,,,764,2022-01-19_20h30.09.434,multiplicationStroop,2021.2.3,Win32,60.10699044,,,,,left,1,1.1346,0,71,71,71,1,9,4,9 | 4,5,1.6933,1.6933,neutral,left,,,,,,stimulusFile/magnitude.xlsx,,,,,,,,,,,,,,,,,,,,,,,,,,,,,,,
,,,,,,,,,,,,,,,764,2022-01-19_20h30.09.434,multiplicationStroop,2021.2.3,Win32,60.10699044,,,,,,,,,,,,,,,,,,,,,0,1,1,0,1,stimulusFile/magnitude.xlsx,NUMERICALLY larger (larger coefficient).,images/numericallyLarger.png,,,,,,,,,,,,,,,,,,,,,,,,,,,,,
,,,,,,,,,,,,,,,764,2022-01-19_20h30.09.434,multiplicationStroop,2021.2.3,Win32,60.10699044,,,,,,,,,,,,,,,,,,,,,,,,,,,,,space,28.663,space,2.2913,63,7.7848,1,0,0,0,21,1,9,×,7,9 × 7,congruent,largerFirst,2,1,63,,,,,,,,
,,,,,,,,,,,,,,,764,2022-01-19_20h30.09.434,multiplicationStroop,2021.2.3,Win32,60.10699044,,,,,,,,,,,,,,,,,,,,,,,,,,,,,,,,,6,2.1498,1,0,1,1,13,1,2,×,3,2 × 3,congruent,smallerFirst,1,2,6,,,,,,,,
,,,,,,,,,,,,,,,764,2022-01-19_20h30.09.434,multiplicationStroop,2021.2.3,Win32,60.10699044,,,,,,,,,,,,,,,,,,,,,,,,,,,,,,,,,12,1.6489,1,0,2,2,19,1,6,×,2,6 × 2,congruent,largerFirst,2,1,12,,,,,,,,
,,,,,,,,,,,,,,,764,2022-01-19_20h30.09.434,multiplicationStroop,2021.2.3,Win32,60.10699044,,,,,,,,,,,,,,,,,,,,,,,,,,,,,,,,,16,2.3662,1,0,3,3,5,1,2,×,8,2 × 8,congruent,smallerFirst,1,2,16,,,,,,,,
,,,,,,,,,,,,,,,764,2022-01-19_20h30.09.434,multiplicationStroop,2021.2.3,Win32,60.10699044,,,,,,,,,,,,,,,,,,,,,,,,,,,,,,,,,36,3.4353,1,0,4,4,0,1,4,×,9,4 × 9,congruent,smallerFirst,1,2,36,,,,,,,,
,,,,,,,,,,,,,,,764,2022-01-19_20h30.09.434,multiplicationStroop,2021.2.3,Win32,60.10699044,,,,,,,,,,,,,,,,,,,,,,,,,,,,,,,,,21,1.9156,1,0,5,5,16,1,7,×,3,7 × 3,congruent,largerFirst,2,1,21,,,,,,,,
,,,,,,,,,,,,,,,764,2022-01-19_20h30.09.434,multiplicationStroop,2021.2.3,Win32,60.10699044,,,,,,,,,,,,,,,,,,,,,,,,,,,,,,,,,30,2.0819,1,0,6,6,15,1,6,×,5,6 × 5,congruent,largerFirst,2,1,30,,,,,,,,
,,,,,,,,,,,,,,,764,2022-01-19_20h30.09.434,multiplicationStroop,2021.2.3,Win32,60.10699044,,,,,,,,,,,,,,,,,,,,,,,,,,,,,,,,,35,2.2325,1,0,7,7,1,1,5,×,7,5 × 7,congruent,smallerFirst,1,2,35,,,,,,,,
,,,,,,,,,,,,,,,764,2022-01-19_20h30.09.434,multiplicationStroop,2021.2.3,Win32,60.10699044,,,,,,,,,,,,,,,,,,,,,,,,,,,,,,,,,81,2.6825,1,0,8,8,35,1,9,×,9,9 × 9,neutral,tie,2,1,81,,,,,,,,
,,,,,,,,,,,,,,,764,2022-01-19_20h30.09.434,multiplicationStroop,2021.2.3,Win32,60.10699044,,,,,,,,,,,,,,,,,,,,,,,,,,,,,,,,,40,2.4187,1,0,9,9,6,1,5,×,8,5 × 8,congruent,smallerFirst,1,2,40,,,,,,,,
,,,,,,,,,,,,,,,764,2022-01-19_20h30.09.434,multiplicationStroop,2021.2.3,Win32,60.10699044,,,,,,,,,,,,,,,,,,,,,,,,,,,,,,,,,9,2.183,1,0,10,10,29,1,3,×,3,3 × 3,neutral,tie,2,1,9,,,,,,,,
,,,,,,,,,,,,,,,764,2022-01-19_20h30.09.434,multiplicationStroop,2021.2.3,Win32,60.10699044,,,,,,,,,,,,,,,,,,,,,,,,,,,,,,,,,14,2.5158,1,0,11,11,14,1,7,×,2,7 × 2,congruent,largerFirst,2,1,14,,,,,,,,
,,,,,,,,,,,,,,,764,2022-01-19_20h30.09.434,multiplicationStroop,2021.2.3,Win32,60.10699044,,,,,,,,,,,,,,,,,,,,,,,,,,,,,,,,,18,2.4652,1,0,12,12,22,1,9,×,2,9 × 2,congruent,largerFirst,2,1,18,,,,,,,,
,,,,,,,,,,,,,,,764,2022-01-19_20h30.09.434,multiplicationStroop,2021.2.3,Win32,60.10699044,,,,,,,,,,,,,,,,,,,,,,,,,,,,,,,,,56,2.7185,1,0,13,13,8,1,7,×,8,7 × 8,congruent,smallerFirst,1,2,56,,,,,,,,
,,,,,,,,,,,,,,,764,2022-01-19_20h30.09.434,multiplicationStroop,2021.2.3,Win32,60.10699044,,,,,,,,,,,,,,,,,,,,,,,,,,,,,,,,,8,2.5497,1,0,14,14,9,1,2,×,4,2 × 4,congruent,smallerFirst,1,2,8,,,,,,,,
,,,,,,,,,,,,,,,764,2022-01-19_20h30.09.434,multiplicationStroop,2021.2.3,Win32,60.10699044,,,,,,,,,,,,,,,,,,,,,,,,,,,,,,,,,15,2.8318,1,0,15,15,4,1,3,×,5,3 × 5,congruent,smallerFirst,1,2,15,,,,,,,,
,,,,,,,,,,,,,,,764,2022-01-19_20h30.09.434,multiplicationStroop,2021.2.3,Win32,60.10699044,,,,,,,,,,,,,,,,,,,,,,,,,,,,,,,,,10,1.9516,1,0,16,16,24,1,5,×,2,5 × 2,congruent,largerFirst,2,1,10,,,,,,,,
,,,,,,,,,,,,,,,764,2022-01-19_20h30.09.434,multiplicationStroop,2021.2.3,Win32,60.10699044,,,,,,,,,,,,,,,,,,,,,,,,,,,,,,,,,32,2.6993,1,0,17,17,20,1,8,×,4,8 × 4,congruent,largerFirst,2,1,32,,,,,,,,
,,,,,,,,,,,,,,,764,2022-01-19_20h30.09.434,multiplicationStroop,2021.2.3,Win32,60.10699044,,,,,,,,,,,,,,,,,,,,,,,,,,,,,,,,,49,2.1656,1,0,18,18,33,1,7,×,7,7 × 7,neutral,tie,2,1,49,,,,,,,,
,,,,,,,,,,,,,,,764,2022-01-19_20h30.09.434,multiplicationStroop,2021.2.3,Win32,60.10699044,,,,,,,,,,,,,,,,,,,,,,,,,,,,,,,,,64,2.3492,1,0,19,19,34,1,8,×,8,8 × 8,neutral,tie,2,1,64,,,,,,,,
,,,,,,,,,,,,,,,764,2022-01-19_20h30.09.434,multiplicationStroop,2021.2.3,Win32,60.10699044,,,,,,,,,,,,,,,,,,,,,,,,,,,,,,,,,72,2.6659,1,0,20,20,17,1,9,×,8,9 × 8,congruent,largerFirst,2,1,72,,,,,,,,
,,,,,,,,,,,,,,,764,2022-01-19_20h30.09.434,multiplicationStroop,2021.2.3,Win32,60.10699044,,,,,,,,,,,,,,,,,,,,,,,,,,,,,,,,,28,2.5187,1,0,21,21,27,1,7,×,4,7 × 4,congruent,largerFirst,2,1,28,,,,,,,,
,,,,,,,,,,,,,,,764,2022-01-19_20h30.09.434,multiplicationStroop,2021.2.3,Win32,60.10699044,,,,,,,,,,,,,,,,,,,,,,,,,,,,,,,,,25,2.2158,1,0,22,22,31,1,5,×,5,5 × 5,neutral,tie,2,1,25,,,,,,,,
,,,,,,,,,,,,,,,764,2022-01-19_20h30.09.434,multiplicationStroop,2021.2.3,Win32,60.10699044,,,,,,,,,,,,,,,,,,,,,,,,,,,,,,,,,16,2.0661,1,0,23,23,30,1,4,×,4,4 × 4,neutral,tie,2,1,16,,,,,,,,
,,,,,,,,,,,,,,,764,2022-01-19_20h30.09.434,multiplicationStroop,2021.2.3,Win32,60.10699044,,,,,,,,,,,,,,,,,,,,,,,,,,,,,,,,,42,2.8155,1,0,24,24,3,1,6,×,7,6 × 7,congruent,smallerFirst,1,2,42,,,,,,,,
,,,,,,,,,,,,,,,764,2022-01-19_20h30.09.434,multiplicationStroop,2021.2.3,Win32,60.10699044,,,,,,,,,,,,,,,,,,,,,,,,,,,,,,,,,48,2.7663,1,0,25,25,18,1,8,×,6,8 × 6,congruent,largerFirst,2,1,48,,,,,,,,
,,,,,,,,,,,,,,,764,2022-01-19_20h30.09.434,multiplicationStroop,2021.2.3,Win32,60.10699044,,,,,,,,,,,,,,,,,,,,,,,,,,,,,,,,,4,1.6178,1,0,26,26,28,1,2,×,2,2 × 2,neutral,tie,2,1,4,,,,,,,,
,,,,,,,,,,,,,,,764,2022-01-19_20h30.09.434,multiplicationStroop,2021.2.3,Win32,60.10699044,,,,,,,,,,,,,,,,,,,,,,,,,,,,,,,,,12,1.8826,1,0,27,27,2,1,3,×,4,3 × 4,congruent,smallerFirst,1,2,12,,,,,,,,
,,,,,,,,,,,,,,,764,2022-01-19_20h30.09.434,multiplicationStroop,2021.2.3,Win32,60.10699044,,,,,,,,,,,,,,,,,,,,,,,,,,,,,,,,,36,2.1159,1,0,28,28,32,1,6,×,6,6 × 6,neutral,tie,2,1,36,,,,,,,,
,,,,,,,,,,,,,,,764,2022-01-19_20h30.09.434,multiplicationStroop,2021.2.3,Win32,60.10699044,,,,,,,,,,,,,,,,,,,,,,,,,,,,,,,,,45,1.9661,1,0,29,29,23,1,9,×,5,9 × 5,congruent,largerFirst,2,1,45,,,,,,,,
,,,,,,,,,,,,,,,764,2022-01-19_20h30.09.434,multiplicationStroop,2021.2.3,Win32,60.10699044,,,,,,,,,,,,,,,,,,,,,,,,,,,,,,,,,18,2.2323,1,0,30,30,11,1,3,×,6,3 × 6,congruent,smallerFirst,1,2,18,,,,,,,,
,,,,,,,,,,,,,,,764,2022-01-19_20h30.09.434,multiplicationStroop,2021.2.3,Win32,60.10699044,,,,,,,,,,,,,,,,,,,,,,,,,,,,,,,,,24,2.2161,1,0,31,31,25,1,6,×,4,6 × 4,congruent,largerFirst,2,1,24,,,,,,,,
,,,,,,,,,,,,,,,764,2022-01-19_20h30.09.434,multiplicationStroop,2021.2.3,Win32,60.10699044,,,,,,,,,,,,,,,,,,,,,,,,,,,,,,,,,54,4.4987,1,0,32,32,12,1,6,×,9,6 × 9,congruent,smallerFirst,1,2,54,,,,,,,,
,,,,,,,,,,,,,,,764,2022-01-19_20h30.09.434,multiplicationStroop,2021.2.3,Win32,60.10699044,,,,,,,,,,,,,,,,,,,,,,,,,,,,,,,,,20,2.4022,1,0,33,33,7,1,4,×,5,4 × 5,congruent,smallerFirst,1,2,20,,,,,,,,
,,,,,,,,,,,,,,,764,2022-01-19_20h30.09.434,multiplicationStroop,2021.2.3,Win32,60.10699044,,,,,,,,,,,,,,,,,,,,,,,,,,,,,,,,,27,2.4324,1,0,34,34,26,1,9,×,3,9 × 3,congruent,largerFirst,2,1,27,,,,,,,,
,,,,,,,,,,,,,,,764,2022-01-19_20h30.09.434,multiplicationStroop,2021.2.3,Win32,60.10699044,,,,,,,,,,,,,,,,,,,,,,,,,,,,,,,,,24,2.2156,1,0,35,35,10,1,3,×,8,3 × 8,congruent,smallerFirst,1,2,24,,,,,,,,
,,,,,,,,,,,,,,,764,2022-01-19_20h30.09.434,multiplicationStroop,2021.2.3,Win32,60.10699044,,,,,,,,,,,,,,,,,,,,,,,,,,,,,,,,,,,,,,,,,,,,,,,,,,0,0,0,2,1,stimulusFile/mult_blk3_congruent.xlsx,,
,,,,,,,,,,,,,,,764,2022-01-19_20h30.09.434,multiplicationStroop,2021.2.3,Win32,60.10699044,,,,,,,,,,,,,,,,,,,,,,,,,,,,,,,space,2.5388,10,2.4616,1,0,0,0,4,1,2,×,5,2 × 5,neutral,smallerFirst,1.5,1.5,10,,,,,,,,
,,,,,,,,,,,,,,,764,2022-01-19_20h30.09.434,multiplicationStroop,2021.2.3,Win32,60.10699044,,,,,,,,,,,,,,,,,,,,,,,,,,,,,,,,,8,2.1148,1,0,1,1,3,1,2,×,4,2 × 4,neutral,smallerFirst,1.5,1.5,8,,,,,,,,
,,,,,,,,,,,,,,,764,2022-01-19_20h30.09.434,multiplicationStroop,2021.2.3,Win32,60.10699044,,,,,,,,,,,,,,,,,,,,,,,,,,,,,,,,,81,2.3828,1,0,2,2,35,1,9,×,9,9 × 9,neutral,tie,1.5,1.5,81,,,,,,,,
,,,,,,,,,,,,,,,764,2022-01-19_20h30.09.434,multiplicationStroop,2021.2.3,Win32,60.10699044,,,,,,,,,,,,,,,,,,,,,,,,,,,,,,,,,45,2.1315,1,0,3,3,10,1,5,×,9,5 × 9,neutral,smallerFirst,1.5,1.5,45,,,,,,,,
,,,,,,,,,,,,,,,764,2022-01-19_20h30.09.434,multiplicationStroop,2021.2.3,Win32,60.10699044,,,,,,,,,,,,,,,,,,,,,,,,,,,,,,,,,12,1.8323,1,0,4,4,21,1,4,×,3,4 × 3,neutral,largerFirst,1.5,1.5,12,,,,,,,,
,,,,,,,,,,,,,,,764,2022-01-19_20h30.09.434,multiplicationStroop,2021.2.3,Win32,60.10699044,,,,,,,,,,,,,,,,,,,,,,,,,,,,,,,,,36,1.8488,1,0,5,5,32,1,6,×,6,6 × 6,neutral,tie,1.5,1.5,36,,,,,,,,
,,,,,,,,,,,,,,,764,2022-01-19_20h30.09.434,multiplicationStroop,2021.2.3,Win32,60.10699044,,,,,,,,,,,,,,,,,,,,,,,,,,,,,,,,,4,1.6651,1,0,6,6,28,1,2,×,2,2 × 2,neutral,tie,1.5,1.5,4,,,,,,,,
,,,,,,,,,,,,,,,764,2022-01-19_20h30.09.434,multiplicationStroop,2021.2.3,Win32,60.10699044,,,,,,,,,,,,,,,,,,,,,,,,,,,,,,,,,64,2.3988,1,0,7,7,34,1,8,×,8,8 × 8,neutral,tie,1.5,1.5,64,,,,,,,,
,,,,,,,,,,,,,,,764,2022-01-19_20h30.09.434,multiplicationStroop,2021.2.3,Win32,60.10699044,,,,,,,,,,,,,,,,,,,,,,,,,,,,,,,,,6,2.0323,1,0,8,8,26,1,3,×,2,3 × 2,neutral,largerFirst,1.5,1.5,6,,,,,,,,
,,,,,,,,,,,,,,,764,2022-01-19_20h30.09.434,multiplicationStroop,2021.2.3,Win32,60.10699044,,,,,,,,,,,,,,,,,,,,,,,,,,,,,,,,,32,3.749,1,0,9,9,23,1,8,×,4,8 × 4,neutral,largerFirst,1.5,1.5,32,,,,,,,,
,,,,,,,,,,,,,,,764,2022-01-19_20h30.09.434,multiplicationStroop,2021.2.3,Win32,60.10699044,,,,,,,,,,,,,,,,,,,,,,,,,,,,,,,,,9,1.9679,1,0,10,10,29,1,3,×,3,3 × 3,neutral,tie,1.5,1.5,9,,,,,,,,
,,,,,,,,,,,,,,,764,2022-01-19_20h30.09.434,multiplicationStroop,2021.2.3,Win32,60.10699044,,,,,,,,,,,,,,,,,,,,,,,,,,,,,,,,,15,2.5487,1,0,11,11,5,1,3,×,5,3 × 5,neutral,smallerFirst,1.5,1.5,15,,,,,,,,
,,,,,,,,,,,,,,,764,2022-01-19_20h30.09.434,multiplicationStroop,2021.2.3,Win32,60.10699044,,,,,,,,,,,,,,,,,,,,,,,,,,,,,,,,,24,2.2657,1,0,12,12,2,1,4,×,6,4 × 6,neutral,smallerFirst,1.5,1.5,24,,,,,,,,
,,,,,,,,,,,,,,,764,2022-01-19_20h30.09.434,multiplicationStroop,2021.2.3,Win32,60.10699044,,,,,,,,,,,,,,,,,,,,,,,,,,,,,,,,,12,1.8183,1,0,13,13,25,1,6,×,2,6 × 2,neutral,largerFirst,1.5,1.5,12,,,,,,,,
,,,,,,,,,,,,,,,764,2022-01-19_20h30.09.434,multiplicationStroop,2021.2.3,Win32,60.10699044,,,,,,,,,,,,,,,,,,,,,,,,,,,,,,,,,49,2.0479,1,0,14,14,33,1,7,×,7,7 × 7,neutral,tie,1.5,1.5,49,,,,,,,,
,,,,,,,,,,,,,,,764,2022-01-19_20h30.09.434,multiplicationStroop,2021.2.3,Win32,60.10699044,,,,,,,,,,,,,,,,,,,,,,,,,,,,,,,,,24,2.7823,1,0,15,15,22,1,8,×,3,8 × 3,neutral,largerFirst,1.5,1.5,24,,,,,,,,
,,,,,,,,,,,,,,,764,2022-01-19_20h30.09.434,multiplicationStroop,2021.2.3,Win32,60.10699044,,,,,,,,,,,,,,,,,,,,,,,,,,,,,,,,,27,2.1352,1,0,16,16,14,1,9,×,3,9 × 3,neutral,largerFirst,1.5,1.5,27,,,,,,,,
,,,,,,,,,,,,,,,764,2022-01-19_20h30.09.434,multiplicationStroop,2021.2.3,Win32,60.10699044,,,,,,,,,,,,,,,,,,,,,,,,,,,,,,,,,18,2.2491,1,0,17,17,0,1,3,×,6,3 × 6,neutral,smallerFirst,1.5,1.5,18,,,,,,,,
,,,,,,,,,,,,,,,764,2022-01-19_20h30.09.434,multiplicationStroop,2021.2.3,Win32,60.10699044,,,,,,,,,,,,,,,,,,,,,,,,,,,,,,,,,20,3.5322,1,0,18,18,20,1,5,×,4,5 × 4,neutral,largerFirst,1.5,1.5,20,,,,,,,,
,,,,,,,,,,,,,,,764,2022-01-19_20h30.09.434,multiplicationStroop,2021.2.3,Win32,60.10699044,,,,,,,,,,,,,,,,,,,,,,,,,,,,,,,,,30,3.1847,1,0,19,19,19,1,6,×,5,6 × 5,neutral,largerFirst,1.5,1.5,30,,,,,,,,
,,,,,,,,,,,,,,,764,2022-01-19_20h30.09.434,multiplicationStroop,2021.2.3,Win32,60.10699044,,,,,,,,,,,,,,,,,,,,,,,,,,,,,,,,,28,4.7313,1,0,20,20,17,1,7,×,4,7 × 4,neutral,largerFirst,1.5,1.5,28,,,,,,,,
,,,,,,,,,,,,,,,764,2022-01-19_20h30.09.434,multiplicationStroop,2021.2.3,Win32,60.10699044,,,,,,,,,,,,,,,,,,,,,,,,,,,,,,,,,16,2.1519,1,0,21,21,13,1,2,×,8,2 × 8,neutral,smallerFirst,1.5,1.5,16,,,,,,,,
,,,,,,,,,,,,,,,764,2022-01-19_20h30.09.434,multiplicationStroop,2021.2.3,Win32,60.10699044,,,,,,,,,,,,,,,,,,,,,,,,,,,,,,,,,35,4.282,1,0,22,22,1,1,5,×,7,5 × 7,neutral,smallerFirst,1.5,1.5,35,,,,,,,,
,,,,,,,,,,,,,,,764,2022-01-19_20h30.09.434,multiplicationStroop,2021.2.3,Win32,60.10699044,,,,,,,,,,,,,,,,,,,,,,,,,,,,,,,,,42,2.4017,1,0,23,23,6,1,6,×,7,6 × 7,neutral,smallerFirst,1.5,1.5,42,,,,,,,,
,,,,,,,,,,,,,,,764,2022-01-19_20h30.09.434,multiplicationStroop,2021.2.3,Win32,60.10699044,,,,,,,,,,,,,,,,,,,,,,,,,,,,,,,,,25,1.9319,1,0,24,24,31,1,5,×,5,5 × 5,neutral,tie,1.5,1.5,25,,,,,,,,
,,,,,,,,,,,,,,,764,2022-01-19_20h30.09.434,multiplicationStroop,2021.2.3,Win32,60.10699044,,,,,,,,,,,,,,,,,,,,,,,,,,,,,,,,,16,2.5477,1,0,25,25,30,1,4,×,4,4 × 4,neutral,tie,1.5,1.5,16,,,,,,,,
,,,,,,,,,,,,,,,764,2022-01-19_20h30.09.434,multiplicationStroop,2021.2.3,Win32,60.10699044,,,,,,,,,,,,,,,,,,,,,,,,,,,,,,,,,14,1.8316,1,0,26,26,16,1,7,×,2,7 × 2,neutral,largerFirst,1.5,1.5,14,,,,,,,,
,,,,,,,,,,,,,,,764,2022-01-19_20h30.09.434,multiplicationStroop,2021.2.3,Win32,60.10699044,,,,,,,,,,,,,,,,,,,,,,,,,,,,,,,,,21,2.3327,1,0,27,27,8,1,3,×,7,3 × 7,neutral,smallerFirst,1.5,1.5,21,,,,,,,,
,,,,,,,,,,,,,,,764,2022-01-19_20h30.09.434,multiplicationStroop,2021.2.3,Win32,60.10699044,,,,,,,,,,,,,,,,,,,,,,,,,,,,,,,,,36,2.202,1,0,28,28,27,1,9,×,4,9 × 4,neutral,largerFirst,1.5,1.5,36,,,,,,,,
,,,,,,,,,,,,,,,764,2022-01-19_20h30.09.434,multiplicationStroop,2021.2.3,Win32,60.10699044,,,,,,,,,,,,,,,,,,,,,,,,,,,,,,,,,48,2.8311,1,0,29,29,15,1,8,×,6,8 × 6,neutral,largerFirst,1.5,1.5,48,,,,,,,,
,,,,,,,,,,,,,,,764,2022-01-19_20h30.09.434,multiplicationStroop,2021.2.3,Win32,60.10699044,,,,,,,,,,,,,,,,,,,,,,,,,,,,,,,,,72,2.9658,1,0,30,30,11,1,8,×,9,8 × 9,neutral,smallerFirst,1.5,1.5,72,,,,,,,,
,,,,,,,,,,,,,,,764,2022-01-19_20h30.09.434,multiplicationStroop,2021.2.3,Win32,60.10699044,,,,,,,,,,,,,,,,,,,,,,,,,,,,,,,,,18,2.0855,1,0,31,31,18,1,9,×,2,9 × 2,neutral,largerFirst,1.5,1.5,18,,,,,,,,
,,,,,,,,,,,,,,,764,2022-01-19_20h30.09.434,multiplicationStroop,2021.2.3,Win32,60.10699044,,,,,,,,,,,,,,,,,,,,,,,,,,,,,,,,,54,2.7157,1,0,32,32,7,1,6,×,9,6 × 9,neutral,smallerFirst,1.5,1.5,54,,,,,,,,
,,,,,,,,,,,,,,,764,2022-01-19_20h30.09.434,multiplicationStroop,2021.2.3,Win32,60.10699044,,,,,,,,,,,,,,,,,,,,,,,,,,,,,,,,,40,2.2989,1,0,33,33,24,1,8,×,5,8 × 5,neutral,largerFirst,1.5,1.5,40,,,,,,,,
,,,,,,,,,,,,,,,764,2022-01-19_20h30.09.434,multiplicationStroop,2021.2.3,Win32,60.10699044,,,,,,,,,,,,,,,,,,,,,,,,,,,,,,,,,63,3.2993,1,0,34,34,12,1,7,×,9,7 × 9,neutral,smallerFirst,1.5,1.5,63,,,,,,,,
,,,,,,,,,,,,,,,764,2022-01-19_20h30.09.434,multiplicationStroop,2021.2.3,Win32,60.10699044,,,,,,,,,,,,,,,,,,,,,,,,,,,,,,,,,56,2.5349,1,0,35,35,9,1,7,×,8,7 × 8,neutral,smallerFirst,1.5,1.5,56,,,,,,,,
,,,,,,,,,,,,,,,764,2022-01-19_20h30.09.434,multiplicationStroop,2021.2.3,Win32,60.10699044,,,,,,,,,,,,,,,,,,,,,,,,,,,,,,,,,,,,,,,,,,,,,,,,,,0,1,1,1,1,stimulusFile/mult_blk2.xlsx,,
,,,,,,,,,,,,,,,764,2022-01-19_20h30.09.434,multiplicationStroop,2021.2.3,Win32,60.10699044,,,,,,,,,,,,,,,,,,,,,,,,,,,,,,,space,1.2395,18,2.6472,1,0,0,0,16,1,9,×,2,9 × 2,incongruent,largerFirst,1,2,18,,,,,,,,
,,,,,,,,,,,,,,,764,2022-01-19_20h30.09.434,multiplicationStroop,2021.2.3,Win32,60.10699044,,,,,,,,,,,,,,,,,,,,,,,,,,,,,,,,,24,3.3157,1,0,1,1,23,1,8,×,3,8 × 3,incongruent,largerFirst,1,2,24,,,,,,,,
,,,,,,,,,,,,,,,764,2022-01-19_20h30.09.434,multiplicationStroop,2021.2.3,Win32,60.10699044,,,,,,,,,,,,,,,,,,,,,,,,,,,,,,,,,32,4.0182,1,0,2,2,21,1,8,×,4,8 × 4,incongruent,largerFirst,1,2,32,,,,,,,,
,,,,,,,,,,,,,,,764,2022-01-19_20h30.09.434,multiplicationStroop,2021.2.3,Win32,60.10699044,,,,,,,,,,,,,,,,,,,,,,,,,,,,,,,,,21,2.6023,1,0,3,3,12,1,3,×,7,3 × 7,incongruent,smallerFirst,2,1,21,,,,,,,,
,,,,,,,,,,,,,,,764,2022-01-19_20h30.09.434,multiplicationStroop,2021.2.3,Win32,60.10699044,,,,,,,,,,,,,,,,,,,,,,,,,,,,,,,,,45,3.5325,1,0,4,4,8,1,5,×,9,5 × 9,incongruent,smallerFirst,2,1,45,,,,,,,,
,,,,,,,,,,,,,,,764,2022-01-19_20h30.09.434,multiplicationStroop,2021.2.3,Win32,60.10699044,,,,,,,,,,,,,,,,,,,,,,,,,,,,,,,,,15,1.8851,1,0,5,5,24,1,5,×,3,5 × 3,incongruent,largerFirst,1,2,15,,,,,,,,
,,,,,,,,,,,,,,,764,2022-01-19_20h30.09.434,multiplicationStroop,2021.2.3,Win32,60.10699044,,,,,,,,,,,,,,,,,,,,,,,,,,,,,,,,,63,2.8989,1,0,6,6,17,1,9,×,7,9 × 7,incongruent,largerFirst,1,2,63,,,,,,,,
,,,,,,,,,,,,,,,764,2022-01-19_20h30.09.434,multiplicationStroop,2021.2.3,Win32,60.10699044,,,,,,,,,,,,,,,,,,,,,,,,,,,,,,,,,4,1.4994,1,0,7,7,28,1,2,×,2,2 × 2,neutral,tie,2,1,4,,,,,,,,
,,,,,,,,,,,,,,,764,2022-01-19_20h30.09.434,multiplicationStroop,2021.2.3,Win32,60.10699044,,,,,,,,,,,,,,,,,,,,,,,,,,,,,,,,,40,2.3159,1,0,8,8,27,1,8,×,5,8 × 5,incongruent,largerFirst,1,2,40,,,,,,,,
,,,,,,,,,,,,,,,764,2022-01-19_20h30.09.434,multiplicationStroop,2021.2.3,Win32,60.10699044,,,,,,,,,,,,,,,,,,,,,,,,,,,,,,,,,48,2.1659,1,0,9,9,15,1,8,×,6,8 × 6,incongruent,largerFirst,1,2,48,,,,,,,,
,,,,,,,,,,,,,,,764,2022-01-19_20h30.09.434,multiplicationStroop,2021.2.3,Win32,60.10699044,,,,,,,,,,,,,,,,,,,,,,,,,,,,,,,,,64,2.116,1,0,10,10,34,1,8,×,8,8 × 8,neutral,tie,2,1,64,,,,,,,,
,,,,,,,,,,,,,,,764,2022-01-19_20h30.09.434,multiplicationStroop,2021.2.3,Win32,60.10699044,,,,,,,,,,,,,,,,,,,,,,,,,,,,,,,,,28,2.166,1,0,11,11,2,1,4,×,7,4 × 7,incongruent,smallerFirst,2,1,28,,,,,,,,
,,,,,,,,,,,,,,,764,2022-01-19_20h30.09.434,multiplicationStroop,2021.2.3,Win32,60.10699044,,,,,,,,,,,,,,,,,,,,,,,,,,,,,,,,,36,2.2991,1,0,12,12,32,1,6,×,6,6 × 6,neutral,tie,2,1,36,,,,,,,,
,,,,,,,,,,,,,,,764,2022-01-19_20h30.09.434,multiplicationStroop,2021.2.3,Win32,60.10699044,,,,,,,,,,,,,,,,,,,,,,,,,,,,,,,,,20,2.1494,1,0,13,13,13,1,4,×,5,4 × 5,incongruent,smallerFirst,2,1,20,,,,,,,,
,,,,,,,,,,,,,,,764,2022-01-19_20h30.09.434,multiplicationStroop,2021.2.3,Win32,60.10699044,,,,,,,,,,,,,,,,,,,,,,,,,,,,,,,,,42,3.1824,1,0,14,14,3,1,6,×,7,6 × 7,incongruent,smallerFirst,2,1,42,,,,,,,,
,,,,,,,,,,,,,,,764,2022-01-19_20h30.09.434,multiplicationStroop,2021.2.3,Win32,60.10699044,,,,,,,,,,,,,,,,,,,,,,,,,,,,,,,,,16,2.2685,1,0,15,15,30,1,4,×,4,4 × 4,neutral,tie,2,1,16,,,,,,,,
,,,,,,,,,,,,,,,764,2022-01-19_20h30.09.434,multiplicationStroop,2021.2.3,Win32,60.10699044,,,,,,,,,,,,,,,,,,,,,,,,,,,,,,,,,18,3.599,1,0,16,16,22,1,6,×,3,6 × 3,incongruent,largerFirst,1,2,18,,,,,,,,
,,,,,,,,,,,,,,,764,2022-01-19_20h30.09.434,multiplicationStroop,2021.2.3,Win32,60.10699044,,,,,,,,,,,,,,,,,,,,,,,,,,,,,,,,,81,2.2353,1,0,17,17,35,1,9,×,9,9 × 9,neutral,tie,2,1,81,,,,,,,,
,,,,,,,,,,,,,,,764,2022-01-19_20h30.09.434,multiplicationStroop,2021.2.3,Win32,60.10699044,,,,,,,,,,,,,,,,,,,,,,,,,,,,,,,,,12,1.9828,1,0,18,18,5,1,2,×,6,2 × 6,incongruent,smallerFirst,2,1,12,,,,,,,,
,,,,,,,,,,,,,,,764,2022-01-19_20h30.09.434,multiplicationStroop,2021.2.3,Win32,60.10699044,,,,,,,,,,,,,,,,,,,,,,,,,,,,,,,,,16,2.9654,1,0,19,19,9,1,2,×,8,2 × 8,incongruent,smallerFirst,2,1,16,,,,,,,,
,,,,,,,,,,,,,,,764,2022-01-19_20h30.09.434,multiplicationStroop,2021.2.3,Win32,60.10699044,,,,,,,,,,,,,,,,,,,,,,,,,,,,,,,,,10,1.8686,1,0,20,20,7,1,2,×,5,2 × 5,incongruent,smallerFirst,2,1,10,,,,,,,,
,,,,,,,,,,,,,,,764,2022-01-19_20h30.09.434,multiplicationStroop,2021.2.3,Win32,60.10699044,,,,,,,,,,,,,,,,,,,,,,,,,,,,,,,,,9,1.6994,1,0,21,21,29,1,3,×,3,3 × 3,neutral,tie,2,1,9,,,,,,,,
,,,,,,,,,,,,,,,764,2022-01-19_20h30.09.434,multiplicationStroop,2021.2.3,Win32,60.10699044,,,,,,,,,,,,,,,,,,,,,,,,,,,,,,,,,25,1.9824,1,0,22,22,31,1,5,×,5,5 × 5,neutral,tie,2,1,25,,,,,,,,
,,,,,,,,,,,,,,,764,2022-01-19_20h30.09.434,multiplicationStroop,2021.2.3,Win32,60.10699044,,,,,,,,,,,,,,,,,,,,,,,,,,,,,,,,,49,2.0655,1,0,23,23,33,1,7,×,7,7 × 7,neutral,tie,2,1,49,,,,,,,,
,,,,,,,,,,,,,,,764,2022-01-19_20h30.09.434,multiplicationStroop,2021.2.3,Win32,60.10699044,,,,,,,,,,,,,,,,,,,,,,,,,,,,,,,,,35,2.0491,1,0,24,24,26,1,7,×,5,7 × 5,incongruent,largerFirst,1,2,35,,,,,,,,
,,,,,,,,,,,,,,,764,2022-01-19_20h30.09.434,multiplicationStroop,2021.2.3,Win32,60.10699044,,,,,,,,,,,,,,,,,,,,,,,,,,,,,,,,,36,2.6992,1,0,25,25,1,1,4,×,9,4 × 9,incongruent,smallerFirst,2,1,36,,,,,,,,
,,,,,,,,,,,,,,,764,2022-01-19_20h30.09.434,multiplicationStroop,2021.2.3,Win32,60.10699044,,,,,,,,,,,,,,,,,,,,,,,,,,,,,,,,,56,2.2853,1,0,26,26,0,1,7,×,8,7 × 8,incongruent,smallerFirst,2,1,56,,,,,,,,
,,,,,,,,,,,,,,,764,2022-01-19_20h30.09.434,multiplicationStroop,2021.2.3,Win32,60.10699044,,,,,,,,,,,,,,,,,,,,,,,,,,,,,,,,,54,2.5823,1,0,27,27,20,1,9,×,6,9 × 6,incongruent,largerFirst,1,2,54,,,,,,,,
,,,,,,,,,,,,,,,764,2022-01-19_20h30.09.434,multiplicationStroop,2021.2.3,Win32,60.10699044,,,,,,,,,,,,,,,,,,,,,,,,,,,,,,,,,27,2.3323,1,0,28,28,4,1,3,×,9,3 × 9,incongruent,smallerFirst,2,1,27,,,,,,,,
,,,,,,,,,,,,,,,764,2022-01-19_20h30.09.434,multiplicationStroop,2021.2.3,Win32,60.10699044,,,,,,,,,,,,,,,,,,,,,,,,,,,,,,,,,12,1.8148,1,0,29,29,19,1,4,×,3,4 × 3,incongruent,largerFirst,1,2,12,,,,,,,,
,,,,,,,,,,,,,,,764,2022-01-19_20h30.09.434,multiplicationStroop,2021.2.3,Win32,60.10699044,,,,,,,,,,,,,,,,,,,,,,,,,,,,,,,,,6,2.2493,1,0,30,30,25,1,3,×,2,3 × 2,incongruent,largerFirst,1,2,6,,,,,,,,
,,,,,,,,,,,,,,,764,2022-01-19_20h30.09.434,multiplicationStroop,2021.2.3,Win32,60.10699044,,,,,,,,,,,,,,,,,,,,,,,,,,,,,,,,,8,2.3152,1,0,31,31,10,1,2,×,4,2 × 4,incongruent,smallerFirst,2,1,8,,,,,,,,
,,,,,,,,,,,,,,,764,2022-01-19_20h30.09.434,multiplicationStroop,2021.2.3,Win32,60.10699044,,,,,,,,,,,,,,,,,,,,,,,,,,,,,,,,,72,2.8352,1,0,32,32,14,1,9,×,8,9 × 8,incongruent,largerFirst,1,2,72,,,,,,,,
,,,,,,,,,,,,,,,764,2022-01-19_20h30.09.434,multiplicationStroop,2021.2.3,Win32,60.10699044,,,,,,,,,,,,,,,,,,,,,,,,,,,,,,,,,30,2.3828,1,0,33,33,11,1,5,×,6,5 × 6,incongruent,smallerFirst,2,1,30,,,,,,,,
,,,,,,,,,,,,,,,764,2022-01-19_20h30.09.434,multiplicationStroop,2021.2.3,Win32,60.10699044,,,,,,,,,,,,,,,,,,,,,,,,,,,,,,,,,24,2.0659,1,0,34,34,6,1,4,×,6,4 × 6,incongruent,smallerFirst,2,1,24,,,,,,,,
,,,,,,,,,,,,,,,764,2022-01-19_20h30.09.434,multiplicationStroop,2021.2.3,Win32,60.10699044,,,,,,,,,,,,,,,,,,,,,,,,,,,,,,,,,14,4.0485,1,0,35,35,18,1,7,×,2,7 × 2,incongruent,largerFirst,1,2,14,,,,,,,,
,,,,,,,,,,,,,,,764,2022-01-19_20h30.09.434,multiplicationStroop,2021.2.3,Win32,60.10699044,,,,,,,,,,,,,,,,,,,,,,,,,,,,,,,,,,,,,,,,,,,,,,,,,,0,2,2,4,1,stimulusFile/mult_blk5_INcongruent.xlsx,,
,,,,,,,,,,,,,,,764,2022-01-19_20h30.09.434,multiplicationStroop,2021.2.3,Win32,60.10699044,,,,,,,,,,,,,,,,,,,,,,,,,,,,,,,space,2.9843,28,2.4845,1,0,0,0,3,1,4,×,7,4 × 7,neutral,smallerFirst,1.5,1.5,28,,,,,,,,
,,,,,,,,,,,,,,,764,2022-01-19_20h30.09.434,multiplicationStroop,2021.2.3,Win32,60.10699044,,,,,,,,,,,,,,,,,,,,,,,,,,,,,,,,,27,4.5154,1,0,1,1,0,1,3,×,9,3 × 9,neutral,smallerFirst,1.5,1.5,27,,,,,,,,
,,,,,,,,,,,,,,,764,2022-01-19_20h30.09.434,multiplicationStroop,2021.2.3,Win32,60.10699044,,,,,,,,,,,,,,,,,,,,,,,,,,,,,,,,,36,2.569,1,0,2,2,13,1,4,×,9,4 × 9,neutral,smallerFirst,1.5,1.5,36,,,,,,,,
,,,,,,,,,,,,,,,764,2022-01-19_20h30.09.434,multiplicationStroop,2021.2.3,Win32,60.10699044,,,,,,,,,,,,,,,,,,,,,,,,,,,,,,,,,40,2.3675,1,0,3,3,10,1,5,×,8,5 × 8,neutral,smallerFirst,1.5,1.5,40,,,,,,,,
,,,,,,,,,,,,,,,764,2022-01-19_20h30.09.434,multiplicationStroop,2021.2.3,Win32,60.10699044,,,,,,,,,,,,,,,,,,,,,,,,,,,,,,,,,64,1.8824,1,0,4,4,34,1,8,×,8,8 × 8,neutral,tie,1.5,1.5,64,,,,,,,,
,,,,,,,,,,,,,,,764,2022-01-19_20h30.09.434,multiplicationStroop,2021.2.3,Win32,60.10699044,,,,,,,,,,,,,,,,,,,,,,,,,,,,,,,,,12,1.5997,1,0,5,5,7,1,3,×,4,3 × 4,neutral,smallerFirst,1.5,1.5,12,,,,,,,,
,,,,,,,,,,,,,,,764,2022-01-19_20h30.09.434,multiplicationStroop,2021.2.3,Win32,60.10699044,,,,,,,,,,,,,,,,,,,,,,,,,,,,,,,,,21,2.0986,1,0,6,6,22,1,7,×,3,7 × 3,neutral,largerFirst,1.5,1.5,21,,,,,,,,
,,,,,,,,,,,,,,,764,2022-01-19_20h30.09.434,multiplicationStroop,2021.2.3,Win32,60.10699044,,,,,,,,,,,,,,,,,,,,,,,,,,,,,,,,,14,1.916,1,0,7,7,2,1,2,×,7,2 × 7,neutral,smallerFirst,1.5,1.5,14,,,,,,,,
,,,,,,,,,,,,,,,764,2022-01-19_20h30.09.434,multiplicationStroop,2021.2.3,Win32,60.10699044,,,,,,,,,,,,,,,,,,,,,,,,,,,,,,,,,56,2.1658,1,0,8,8,23,1,8,×,7,8 × 7,neutral,largerFirst,1.5,1.5,56,,,,,,,,
,,,,,,,,,,,,,,,764,2022-01-19_20h30.09.434,multiplicationStroop,2021.2.3,Win32,60.10699044,,,,,,,,,,,,,,,,,,,,,,,,,,,,,,,,,48,2.0855,1,0,9,9,1,1,6,×,8,6 × 8,neutral,smallerFirst,1.5,1.5,48,,,,,,,,
,,,,,,,,,,,,,,,764,2022-01-19_20h30.09.434,multiplicationStroop,2021.2.3,Win32,60.10699044,,,,,,,,,,,,,,,,,,,,,,,,,,,,,,,,,72,2.049,1,0,10,10,25,1,9,×,8,9 × 8,neutral,largerFirst,1.5,1.5,72,,,,,,,,
,,,,,,,,,,,,,,,764,2022-01-19_20h30.09.434,multiplicationStroop,2021.2.3,Win32,60.10699044,,,,,,,,,,,,,,,,,,,,,,,,,,,,,,,,,24,1.9988,1,0,11,11,8,1,3,×,8,3 × 8,neutral,smallerFirst,1.5,1.5,24,,,,,,,,
,,,,,,,,,,,,,,,764,2022-01-19_20h30.09.434,multiplicationStroop,2021.2.3,Win32,60.10699044,,,,,,,,,,,,,,,,,,,,,,,,,,,,,,,,,81,1.799,1,0,12,12,35,1,9,×,9,9 × 9,neutral,tie,1.5,1.5,81,,,,,,,,
,,,,,,,,,,,,,,,764,2022-01-19_20h30.09.434,multiplicationStroop,2021.2.3,Win32,60.10699044,,,,,,,,,,,,,,,,,,,,,,,,,,,,,,,,,18,1.8994,1,0,13,13,4,1,2,×,9,2 × 9,neutral,smallerFirst,1.5,1.5,18,,,,,,,,
,,,,,,,,,,,,,,,764,2022-01-19_20h30.09.434,multiplicationStroop,2021.2.3,Win32,60.10699044,,,,,,,,,,,,,,,,,,,,,,,,,,,,,,,,,24,2.1661,1,0,14,14,16,1,6,×,4,6 × 4,neutral,largerFirst,1.5,1.5,24,,,,,,,,
,,,,,,,,,,,,,,,764,2022-01-19_20h30.09.434,multiplicationStroop,2021.2.3,Win32,60.10699044,,,,,,,,,,,,,,,,,,,,,,,,,,,,,,,,,16,2.2685,1,0,15,15,27,1,8,×,2,8 × 2,neutral,largerFirst,1.5,1.5,16,,,,,,,,
,,,,,,,,,,,,,,,764,2022-01-19_20h30.09.434,multiplicationStroop,2021.2.3,Win32,60.10699044,,,,,,,,,,,,,,,,,,,,,,,,,,,,,,,,,45,1.8491,1,0,16,16,24,1,9,×,5,9 × 5,neutral,largerFirst,1.5,1.5,45,,,,,,,,
,,,,,,,,,,,,,,,764,2022-01-19_20h30.09.434,multiplicationStroop,2021.2.3,Win32,60.10699044,,,,,,,,,,,,,,,,,,,,,,,,,,,,,,,,,10,2.5489,1,0,17,17,18,1,5,×,2,5 × 2,neutral,largerFirst,1.5,1.5,10,,,,,,,,
,,,,,,,,,,,,,,,764,2022-01-19_20h30.09.434,multiplicationStroop,2021.2.3,Win32,60.10699044,,,,,,,,,,,,,,,,,,,,,,,,,,,,,,,,,32,3.0157,1,0,18,18,9,1,4,×,8,4 × 8,neutral,smallerFirst,1.5,1.5,32,,,,,,,,
,,,,,,,,,,,,,,,764,2022-01-19_20h30.09.434,multiplicationStroop,2021.2.3,Win32,60.10699044,,,,,,,,,,,,,,,,,,,,,,,,,,,,,,,,,16,1.8659,1,0,19,19,30,1,4,×,4,4 × 4,neutral,tie,1.5,1.5,16,,,,,,,,
,,,,,,,,,,,,,,,764,2022-01-19_20h30.09.434,multiplicationStroop,2021.2.3,Win32,60.10699044,,,,,,,,,,,,,,,,,,,,,,,,,,,,,,,,,18,2.016,1,0,20,20,14,1,6,×,3,6 × 3,neutral,largerFirst,1.5,1.5,18,,,,,,,,
,,,,,,,,,,,,,,,764,2022-01-19_20h30.09.434,multiplicationStroop,2021.2.3,Win32,60.10699044,,,,,,,,,,,,,,,,,,,,,,,,,,,,,,,,,63,2.8823,1,0,21,21,26,1,9,×,7,9 × 7,neutral,largerFirst,1.5,1.5,63,,,,,,,,
,,,,,,,,,,,,,,,764,2022-01-19_20h30.09.434,multiplicationStroop,2021.2.3,Win32,60.10699044,,,,,,,,,,,,,,,,,,,,,,,,,,,,,,,,,49,2.0017,1,0,22,22,33,1,7,×,7,7 × 7,neutral,tie,1.5,1.5,49,,,,,,,,
,,,,,,,,,,,,,,,764,2022-01-19_20h30.09.434,multiplicationStroop,2021.2.3,Win32,60.10699044,,,,,,,,,,,,,,,,,,,,,,,,,,,,,,,,,9,2.1659,1,0,23,23,29,1,3,×,3,3 × 3,neutral,tie,1.5,1.5,9,,,,,,,,
,,,,,,,,,,,,,,,764,2022-01-19_20h30.09.434,multiplicationStroop,2021.2.3,Win32,60.10699044,,,,,,,,,,,,,,,,,,,,,,,,,,,,,,,,,8,2.1823,1,0,24,24,17,1,4,×,2,4 × 2,neutral,largerFirst,1.5,1.5,8,,,,,,,,
,,,,,,,,,,,,,,,764,2022-01-19_20h30.09.434,multiplicationStroop,2021.2.3,Win32,60.10699044,,,,,,,,,,,,,,,,,,,,,,,,,,,,,,,,,54,2.1327,1,0,25,25,21,1,9,×,6,9 × 6,neutral,largerFirst,1.5,1.5,54,,,,,,,,
,,,,,,,,,,,,,,,764,2022-01-19_20h30.09.434,multiplicationStroop,2021.2.3,Win32,60.10699044,,,,,,,,,,,,,,,,,,,,,,,,,,,,,,,,,36,2.2828,1,0,26,26,32,1,6,×,6,6 × 6,neutral,tie,1.5,1.5,36,,,,,,,,
,,,,,,,,,,,,,,,764,2022-01-19_20h30.09.434,multiplicationStroop,2021.2.3,Win32,60.10699044,,,,,,,,,,,,,,,,,,,,,,,,,,,,,,,,,42,2.8322,1,0,27,27,20,1,7,×,6,7 × 6,neutral,largerFirst,1.5,1.5,42,,,,,,,,
,,,,,,,,,,,,,,,764,2022-01-19_20h30.09.434,multiplicationStroop,2021.2.3,Win32,60.10699044,,,,,,,,,,,,,,,,,,,,,,,,,,,,,,,,,35,2.1019,1,0,28,28,15,1,7,×,5,7 × 5,neutral,largerFirst,1.5,1.5,35,,,,,,,,
,,,,,,,,,,,,,,,764,2022-01-19_20h30.09.434,multiplicationStroop,2021.2.3,Win32,60.10699044,,,,,,,,,,,,,,,,,,,,,,,,,,,,,,,,,15,2.2996,1,0,29,29,19,1,5,×,3,5 × 3,neutral,largerFirst,1.5,1.5,15,,,,,,,,
,,,,,,,,,,,,,,,764,2022-01-19_20h30.09.434,multiplicationStroop,2021.2.3,Win32,60.10699044,,,,,,,,,,,,,,,,,,,,,,,,,,,,,,,,,30,2.0158,1,0,30,30,5,1,5,×,6,5 × 6,neutral,smallerFirst,1.5,1.5,30,,,,,,,,
,,,,,,,,,,,,,,,764,2022-01-19_20h30.09.434,multiplicationStroop,2021.2.3,Win32,60.10699044,,,,,,,,,,,,,,,,,,,,,,,,,,,,,,,,,25,1.8325,1,0,31,31,31,1,5,×,5,5 × 5,neutral,tie,1.5,1.5,25,,,,,,,,
,,,,,,,,,,,,,,,764,2022-01-19_20h30.09.434,multiplicationStroop,2021.2.3,Win32,60.10699044,,,,,,,,,,,,,,,,,,,,,,,,,,,,,,,,,20,1.8653,1,0,32,32,6,1,4,×,5,4 × 5,neutral,smallerFirst,1.5,1.5,20,,,,,,,,
,,,,,,,,,,,,,,,764,2022-01-19_20h30.09.434,multiplicationStroop,2021.2.3,Win32,60.10699044,,,,,,,,,,,,,,,,,,,,,,,,,,,,,,,,,4,1.9159,1,0,33,33,28,1,2,×,2,2 × 2,neutral,tie,1.5,1.5,4,,,,,,,,
,,,,,,,,,,,,,,,764,2022-01-19_20h30.09.434,multiplicationStroop,2021.2.3,Win32,60.10699044,,,,,,,,,,,,,,,,,,,,,,,,,,,,,,,,,6,2.0664,1,0,34,34,12,1,2,×,3,2 × 3,neutral,smallerFirst,1.5,1.5,6,,,,,,,,
,,,,,,,,,,,,,,,764,2022-01-19_20h30.09.434,multiplicationStroop,2021.2.3,Win32,60.10699044,,,,,,,,,,,,,,,,,,,,,,,,,,,,,,,,,12,1.5986,1,0,35,35,11,1,2,×,6,2 × 6,neutral,smallerFirst,1.5,1.5,12,,,,,,,,
,,,,,,,,,,,,,,,764,2022-01-19_20h30.09.434,multiplicationStroop,2021.2.3,Win32,60.10699044,,,,,,,,,,,,,,,,,,,,,,,,,,,,,,,,,,,,,,,,,,,,,,,,,,0,3,3,0,1,stimulusFile/mult_blk1.xlsx,,
,,,,,,,,,,,,,,,764,2022-01-19_20h30.09.434,multiplicationStroop,2021.2.3,Win32,60.10699044,,,,,,,,,,,,,,,,,,,,,,,,,,,,,,,space,1.3311,16,2.3334,1,0,0,0,19,1,8,×,2,8 × 2,congruent,largerFirst,2,1,16,,,,,,,,
,,,,,,,,,,,,,,,764,2022-01-19_20h30.09.434,multiplicationStroop,2021.2.3,Win32,60.10699044,,,,,,,,,,,,,,,,,,,,,,,,,,,,,,,,,32,2.1828,1,0,1,1,6,1,4,×,8,4 × 8,congruent,smallerFirst,1,2,32,,,,,,,,
,,,,,,,,,,,,,,,764,2022-01-19_20h30.09.434,multiplicationStroop,2021.2.3,Win32,60.10699044,,,,,,,,,,,,,,,,,,,,,,,,,,,,,,,,,12,2.6825,1,0,2,2,16,1,4,×,3,4 × 3,congruent,largerFirst,2,1,12,,,,,,,,
,,,,,,,,,,,,,,,764,2022-01-19_20h30.09.434,multiplicationStroop,2021.2.3,Win32,60.10699044,,,,,,,,,,,,,,,,,,,,,,,,,,,,,,,,,30,1.9518,1,0,3,3,1,1,5,×,6,5 × 6,congruent,smallerFirst,1,2,30,,,,,,,,
,,,,,,,,,,,,,,,764,2022-01-19_20h30.09.434,multiplicationStroop,2021.2.3,Win32,60.10699044,,,,,,,,,,,,,,,,,,,,,,,,,,,,,,,,,81,3.6991,1,0,4,4,35,1,9,×,9,9 × 9,neutral,tie,1,2,81,,,,,,,,
,,,,,,,,,,,,,,,764,2022-01-19_20h30.09.434,multiplicationStroop,2021.2.3,Win32,60.10699044,,,,,,,,,,,,,,,,,,,,,,,,,,,,,,,,,56,3.5823,1,0,5,5,22,1,8,×,7,8 × 7,congruent,largerFirst,2,1,56,,,,,,,,
,,,,,,,,,,,,,,,764,2022-01-19_20h30.09.434,multiplicationStroop,2021.2.3,Win32,60.10699044,,,,,,,,,,,,,,,,,,,,,,,,,,,,,,,,,49,2.385,1,0,6,6,33,1,7,×,7,7 × 7,neutral,tie,1,2,49,,,,,,,,
,,,,,,,,,,,,,,,764,2022-01-19_20h30.09.434,multiplicationStroop,2021.2.3,Win32,60.10699044,,,,,,,,,,,,,,,,,,,,,,,,,,,,,,,,,64,2.2824,1,0,7,7,34,1,8,×,8,8 × 8,neutral,tie,1,2,64,,,,,,,,
,,,,,,,,,,,,,,,764,2022-01-19_20h30.09.434,multiplicationStroop,2021.2.3,Win32,60.10699044,,,,,,,,,,,,,,,,,,,,,,,,,,,,,,,,,54,2.4181,1,0,8,8,26,1,9,×,6,9 × 6,congruent,largerFirst,2,1,54,,,,,,,,
,,,,,,,,,,,,,,,764,2022-01-19_20h30.09.434,multiplicationStroop,2021.2.3,Win32,60.10699044,,,,,,,,,,,,,,,,,,,,,,,,,,,,,,,,,15,2.4661,1,0,9,9,18,1,5,×,3,5 × 3,congruent,largerFirst,2,1,15,,,,,,,,
,,,,,,,,,,,,,,,764,2022-01-19_20h30.09.434,multiplicationStroop,2021.2.3,Win32,60.10699044,,,,,,,,,,,,,,,,,,,,,,,,,,,,,,,,,45,2.3311,1,0,10,10,9,1,5,×,9,5 × 9,congruent,smallerFirst,1,2,45,,,,,,,,
,,,,,,,,,,,,,,,764,2022-01-19_20h30.09.434,multiplicationStroop,2021.2.3,Win32,60.10699044,,,,,,,,,,,,,,,,,,,,,,,,,,,,,,,,,4,1.5991,1,0,11,11,28,1,2,×,2,2 × 2,neutral,tie,1,2,4,,,,,,,,
,,,,,,,,,,,,,,,764,2022-01-19_20h30.09.434,multiplicationStroop,2021.2.3,Win32,60.10699044,,,,,,,,,,,,,,,,,,,,,,,,,,,,,,,,,28,2.3155,1,0,12,12,13,1,4,×,7,4 × 7,congruent,smallerFirst,1,2,28,,,,,,,,
,,,,,,,,,,,,,,,764,2022-01-19_20h30.09.434,multiplicationStroop,2021.2.3,Win32,60.10699044,,,,,,,,,,,,,,,,,,,,,,,,,,,,,,,,,63,4.0327,1,0,13,13,7,1,7,×,9,7 × 9,congruent,smallerFirst,1,2,63,,,,,,,,
,,,,,,,,,,,,,,,764,2022-01-19_20h30.09.434,multiplicationStroop,2021.2.3,Win32,60.10699044,,,,,,,,,,,,,,,,,,,,,,,,,,,,,,,,,8,1.8349,1,0,14,14,23,1,4,×,2,4 × 2,congruent,largerFirst,2,1,8,,,,,,,,
,,,,,,,,,,,,,,,764,2022-01-19_20h30.09.434,multiplicationStroop,2021.2.3,Win32,60.10699044,,,,,,,,,,,,,,,,,,,,,,,,,,,,,,,,,24,2.5821,1,0,15,15,24,1,8,×,3,8 × 3,congruent,largerFirst,2,1,24,,,,,,,,
,,,,,,,,,,,,,,,764,2022-01-19_20h30.09.434,multiplicationStroop,2021.2.3,Win32,60.10699044,,,,,,,,,,,,,,,,,,,,,,,,,,,,,,,,,9,1.6326,1,0,16,16,29,1,3,×,3,3 × 3,neutral,tie,1,2,9,,,,,,,,
,,,,,,,,,,,,,,,764,2022-01-19_20h30.09.434,multiplicationStroop,2021.2.3,Win32,60.10699044,,,,,,,,,,,,,,,,,,,,,,,,,,,,,,,,,48,2.1493,1,0,17,17,4,1,6,×,8,6 × 8,congruent,smallerFirst,1,2,48,,,,,,,,
,,,,,,,,,,,,,,,764,2022-01-19_20h30.09.434,multiplicationStroop,2021.2.3,Win32,60.10699044,,,,,,,,,,,,,,,,,,,,,,,,,,,,,,,,,16,2.7157,1,0,18,18,30,1,4,×,4,4 × 4,neutral,tie,1,2,16,,,,,,,,
,,,,,,,,,,,,,,,764,2022-01-19_20h30.09.434,multiplicationStroop,2021.2.3,Win32,60.10699044,,,,,,,,,,,,,,,,,,,,,,,,,,,,,,,,,18,2.5523,1,0,19,19,25,1,6,×,3,6 × 3,congruent,largerFirst,2,1,18,,,,,,,,
,,,,,,,,,,,,,,,764,2022-01-19_20h30.09.434,multiplicationStroop,2021.2.3,Win32,60.10699044,,,,,,,,,,,,,,,,,,,,,,,,,,,,,,,,,20,1.8824,1,0,20,20,21,1,5,×,4,5 × 4,congruent,largerFirst,2,1,20,,,,,,,,
,,,,,,,,,,,,,,,764,2022-01-19_20h30.09.434,multiplicationStroop,2021.2.3,Win32,60.10699044,,,,,,,,,,,,,,,,,,,,,,,,,,,,,,,,,10,2.1328,1,0,21,21,10,1,2,×,5,2 × 5,congruent,smallerFirst,1,2,10,,,,,,,,
,,,,,,,,,,,,,,,764,2022-01-19_20h30.09.434,multiplicationStroop,2021.2.3,Win32,60.10699044,,,,,,,,,,,,,,,,,,,,,,,,,,,,,,,,,42,2.0823,1,0,22,22,17,1,7,×,6,7 × 6,congruent,largerFirst,2,1,42,,,,,,,,
,,,,,,,,,,,,,,,764,2022-01-19_20h30.09.434,multiplicationStroop,2021.2.3,Win32,60.10699044,,,,,,,,,,,,,,,,,,,,,,,,,,,,,,,,,6,2.0155,1,0,23,23,27,1,3,×,2,3 × 2,congruent,largerFirst,2,1,6,,,,,,,,
,,,,,,,,,,,,,,,764,2022-01-19_20h30.09.434,multiplicationStroop,2021.2.3,Win32,60.10699044,,,,,,,,,,,,,,,,,,,,,,,,,,,,,,,,,18,1.8825,1,0,24,24,8,1,2,×,9,2 × 9,congruent,smallerFirst,1,2,18,,,,,,,,
,,,,,,,,,,,,,,,764,2022-01-19_20h30.09.434,multiplicationStroop,2021.2.3,Win32,60.10699044,,,,,,,,,,,,,,,,,,,,,,,,,,,,,,,,,24,2.4492,1,0,25,25,11,1,4,×,6,4 × 6,congruent,smallerFirst,1,2,24,,,,,,,,
,,,,,,,,,,,,,,,764,2022-01-19_20h30.09.434,multiplicationStroop,2021.2.3,Win32,60.10699044,,,,,,,,,,,,,,,,,,,,,,,,,,,,,,,,,36,2.2662,1,0,26,26,32,1,6,×,6,6 × 6,neutral,tie,1,2,36,,,,,,,,
,,,,,,,,,,,,,,,764,2022-01-19_20h30.09.434,multiplicationStroop,2021.2.3,Win32,60.10699044,,,,,,,,,,,,,,,,,,,,,,,,,,,,,,,,,72,2.2824,1,0,27,27,3,1,8,×,9,8 × 9,congruent,smallerFirst,1,2,72,,,,,,,,
,,,,,,,,,,,,,,,764,2022-01-19_20h30.09.434,multiplicationStroop,2021.2.3,Win32,60.10699044,,,,,,,,,,,,,,,,,,,,,,,,,,,,,,,,,36,3.6318,1,0,28,28,14,1,9,×,4,9 × 4,congruent,largerFirst,2,1,36,,,,,,,,
,,,,,,,,,,,,,,,764,2022-01-19_20h30.09.434,multiplicationStroop,2021.2.3,Win32,60.10699044,,,,,,,,,,,,,,,,,,,,,,,,,,,,,,,,,14,2.2848,1,0,29,29,0,1,2,×,7,2 × 7,congruent,smallerFirst,1,2,14,,,,,,,,
,,,,,,,,,,,,,,,764,2022-01-19_20h30.09.434,multiplicationStroop,2021.2.3,Win32,60.10699044,,,,,,,,,,,,,,,,,,,,,,,,,,,,,,,,,25,2.0662,1,0,30,30,31,1,5,×,5,5 × 5,neutral,tie,1,2,25,,,,,,,,
,,,,,,,,,,,,,,,764,2022-01-19_20h30.09.434,multiplicationStroop,2021.2.3,Win32,60.10699044,,,,,,,,,,,,,,,,,,,,,,,,,,,,,,,,,27,2.2151,1,0,31,31,12,1,3,×,9,3 × 9,congruent,smallerFirst,1,2,27,,,,,,,,
,,,,,,,,,,,,,,,764,2022-01-19_20h30.09.434,multiplicationStroop,2021.2.3,Win32,60.10699044,,,,,,,,,,,,,,,,,,,,,,,,,,,,,,,,,35,2.1684,1,0,32,32,15,1,7,×,5,7 × 5,congruent,largerFirst,2,1,35,,,,,,,,
,,,,,,,,,,,,,,,764,2022-01-19_20h30.09.434,multiplicationStroop,2021.2.3,Win32,60.10699044,,,,,,,,,,,,,,,,,,,,,,,,,,,,,,,,,21,1.9497,1,0,33,33,2,1,3,×,7,3 × 7,congruent,smallerFirst,1,2,21,,,,,,,,
,,,,,,,,,,,,,,,764,2022-01-19_20h30.09.434,multiplicationStroop,2021.2.3,Win32,60.10699044,,,,,,,,,,,,,,,,,,,,,,,,,,,,,,,,,40,2.4152,1,0,34,34,20,1,8,×,5,8 × 5,congruent,largerFirst,2,1,40,,,,,,,,
,,,,,,,,,,,,,,,764,2022-01-19_20h30.09.434,multiplicationStroop,2021.2.3,Win32,60.10699044,,,,,,,,,,,,,,,,,,,,,,,,,,,,,,,,,12,2.199,1,0,35,35,5,1,2,×,6,2 × 6,congruent,smallerFirst,1,2,12,,,,,,,,
,,,,,,,,,,,,,,,764,2022-01-19_20h30.09.434,multiplicationStroop,2021.2.3,Win32,60.10699044,,,,,,,,,,,,,,,,,,,,,,,,,,,,,,,,,,,,,,,,,,,,,,,,,,0,4,4,3,1,stimulusFile/mult_blk4_congruent.xlsx,,
,,,,,,,,,,,,,,,764,2022-01-19_20h30.09.434,multiplicationStroop,2021.2.3,Win32,60.10699044,,,,,,,,,,,,,,,,,,,,,,,,,,,,,,,space,1.6895,56,4.3705,1,0,0,0,14,1,8,×,7,8 × 7,incongruent,largerFirst,1,2,56,,,,,,,,
,,,,,,,,,,,,,,,764,2022-01-19_20h30.09.434,multiplicationStroop,2021.2.3,Win32,60.10699044,,,,,,,,,,,,,,,,,,,,,,,,,,,,,,,,,64,2.0352,1,0,1,1,34,1,8,×,8,8 × 8,incongruent,tie,1,2,64,,,,,,,,
,,,,,,,,,,,,,,,764,2022-01-19_20h30.09.434,multiplicationStroop,2021.2.3,Win32,60.10699044,,,,,,,,,,,,,,,,,,,,,,,,,,,,,,,,,18,1.9495,1,0,2,2,2,1,2,×,9,2 × 9,incongruent,smallerFirst,2,1,18,,,,,,,,
,,,,,,,,,,,,,,,764,2022-01-19_20h30.09.434,multiplicationStroop,2021.2.3,Win32,60.10699044,,,,,,,,,,,,,,,,,,,,,,,,,,,,,,,,,18,3.2989,1,0,3,3,8,1,3,×,6,3 × 6,incongruent,smallerFirst,2,1,18,,,,,,,,
,,,,,,,,,,,,,,,764,2022-01-19_20h30.09.434,multiplicationStroop,2021.2.3,Win32,60.10699044,,,,,,,,,,,,,,,,,,,,,,,,,,,,,,,,,63,3.1686,1,0,4,4,3,1,7,×,9,7 × 9,incongruent,smallerFirst,2,1,63,,,,,,,,
,,,,,,,,,,,,,,,764,2022-01-19_20h30.09.434,multiplicationStroop,2021.2.3,Win32,60.10699044,,,,,,,,,,,,,,,,,,,,,,,,,,,,,,,,,15,2.5821,1,0,5,5,10,1,3,×,5,3 × 5,incongruent,smallerFirst,2,1,15,,,,,,,,
,,,,,,,,,,,,,,,764,2022-01-19_20h30.09.434,multiplicationStroop,2021.2.3,Win32,60.10699044,,,,,,,,,,,,,,,,,,,,,,,,,,,,,,,,,36,2.266,1,0,6,6,15,1,9,×,4,9 × 4,incongruent,largerFirst,1,2,36,,,,,,,,
,,,,,,,,,,,,,,,764,2022-01-19_20h30.09.434,multiplicationStroop,2021.2.3,Win32,60.10699044,,,,,,,,,,,,,,,,,,,,,,,,,,,,,,,,,12,1.7686,1,0,7,7,19,1,6,×,2,6 × 2,incongruent,largerFirst,1,2,12,,,,,,,,
,,,,,,,,,,,,,,,764,2022-01-19_20h30.09.434,multiplicationStroop,2021.2.3,Win32,60.10699044,,,,,,,,,,,,,,,,,,,,,,,,,,,,,,,,,25,2.1992,1,0,8,8,31,1,5,×,5,5 × 5,incongruent,tie,1,2,25,,,,,,,,
,,,,,,,,,,,,,,,764,2022-01-19_20h30.09.434,multiplicationStroop,2021.2.3,Win32,60.10699044,,,,,,,,,,,,,,,,,,,,,,,,,,,,,,,,,49,1.9348,1,0,9,9,33,1,7,×,7,7 × 7,incongruent,tie,1,2,49,,,,,,,,
,,,,,,,,,,,,,,,764,2022-01-19_20h30.09.434,multiplicationStroop,2021.2.3,Win32,60.10699044,,,,,,,,,,,,,,,,,,,,,,,,,,,,,,,,,48,2.5327,1,0,10,10,1,1,6,×,8,6 × 8,incongruent,smallerFirst,2,1,48,,,,,,,,
,,,,,,,,,,,,,,,764,2022-01-19_20h30.09.434,multiplicationStroop,2021.2.3,Win32,60.10699044,,,,,,,,,,,,,,,,,,,,,,,,,,,,,,,,,24,1.9662,1,0,11,11,20,1,6,×,4,6 × 4,incongruent,largerFirst,1,2,24,,,,,,,,
,,,,,,,,,,,,,,,764,2022-01-19_20h30.09.434,multiplicationStroop,2021.2.3,Win32,60.10699044,,,,,,,,,,,,,,,,,,,,,,,,,,,,,,,,,21,1.5489,1,0,12,12,26,1,7,×,3,7 × 3,incongruent,largerFirst,1,2,21,,,,,,,,
,,,,,,,,,,,,,,,764,2022-01-19_20h30.09.434,multiplicationStroop,2021.2.3,Win32,60.10699044,,,,,,,,,,,,,,,,,,,,,,,,,,,,,,,,,32,2.4328,1,0,13,13,7,1,4,×,8,4 × 8,incongruent,smallerFirst,2,1,32,,,,,,,,
,,,,,,,,,,,,,,,764,2022-01-19_20h30.09.434,multiplicationStroop,2021.2.3,Win32,60.10699044,,,,,,,,,,,,,,,,,,,,,,,,,,,,,,,,,28,2.6489,1,0,14,14,16,1,7,×,4,7 × 4,incongruent,largerFirst,1,2,28,,,,,,,,
,,,,,,,,,,,,,,,764,2022-01-19_20h30.09.434,multiplicationStroop,2021.2.3,Win32,60.10699044,,,,,,,,,,,,,,,,,,,,,,,,,,,,,,,,,6,1.8494,1,0,15,15,11,1,2,×,3,2 × 3,incongruent,smallerFirst,2,1,6,,,,,,,,
,,,,,,,,,,,,,,,764,2022-01-19_20h30.09.434,multiplicationStroop,2021.2.3,Win32,60.10699044,,,,,,,,,,,,,,,,,,,,,,,,,,,,,,,,,8,1.9992,1,0,16,16,24,1,4,×,2,4 × 2,incongruent,largerFirst,1,2,8,,,,,,,,
,,,,,,,,,,,,,,,764,2022-01-19_20h30.09.434,multiplicationStroop,2021.2.3,Win32,60.10699044,,,,,,,,,,,,,,,,,,,,,,,,,,,,,,,,,16,1.9326,1,0,17,17,30,1,4,×,4,4 × 4,incongruent,tie,1,2,16,,,,,,,,
,,,,,,,,,,,,,,,764,2022-01-19_20h30.09.434,multiplicationStroop,2021.2.3,Win32,60.10699044,,,,,,,,,,,,,,,,,,,,,,,,,,,,,,,,,14,3.2486,1,0,18,18,4,1,2,×,7,2 × 7,incongruent,smallerFirst,2,1,14,,,,,,,,
,,,,,,,,,,,,,,,764,2022-01-19_20h30.09.434,multiplicationStroop,2021.2.3,Win32,60.10699044,,,,,,,,,,,,,,,,,,,,,,,,,,,,,,,,,72,4.2188,1,0,19,19,0,1,8,×,9,8 × 9,incongruent,smallerFirst,2,1,72,,,,,,,,
,,,,,,,,,,,,,,,764,2022-01-19_20h30.09.434,multiplicationStroop,2021.2.3,Win32,60.10699044,,,,,,,,,,,,,,,,,,,,,,,,,,,,,,,,,24,2.1852,1,0,20,20,9,1,3,×,8,3 × 8,incongruent,smallerFirst,2,1,24,,,,,,,,
,,,,,,,,,,,,,,,764,2022-01-19_20h30.09.434,multiplicationStroop,2021.2.3,Win32,60.10699044,,,,,,,,,,,,,,,,,,,,,,,,,,,,,,,,,12,2.1493,1,0,21,21,5,1,3,×,4,3 × 4,incongruent,smallerFirst,2,1,12,,,,,,,,
,,,,,,,,,,,,,,,764,2022-01-19_20h30.09.434,multiplicationStroop,2021.2.3,Win32,60.10699044,,,,,,,,,,,,,,,,,,,,,,,,,,,,,,,,,4,1.5658,1,0,22,22,28,1,2,×,2,2 × 2,incongruent,tie,1,2,4,,,,,,,,
,,,,,,,,,,,,,,,764,2022-01-19_20h30.09.434,multiplicationStroop,2021.2.3,Win32,60.10699044,,,,,,,,,,,,,,,,,,,,,,,,,,,,,,,,,16,2.4663,1,0,23,23,23,1,8,×,2,8 × 2,incongruent,largerFirst,1,2,16,,,,,,,,
,,,,,,,,,,,,,,,764,2022-01-19_20h30.09.434,multiplicationStroop,2021.2.3,Win32,60.10699044,,,,,,,,,,,,,,,,,,,,,,,,,,,,,,,,,81,4.5322,1,0,24,24,35,1,9,×,9,9 × 9,incongruent,tie,1,2,81,,,,,,,,
,,,,,,,,,,,,,,,764,2022-01-19_20h30.09.434,multiplicationStroop,2021.2.3,Win32,60.10699044,,,,,,,,,,,,,,,,,,,,,,,,,,,,,,,,,27,2.402,1,0,25,25,18,1,9,×,3,9 × 3,incongruent,largerFirst,1,2,27,,,,,,,,
,,,,,,,,,,,,,,,764,2022-01-19_20h30.09.434,multiplicationStroop,2021.2.3,Win32,60.10699044,,,,,,,,,,,,,,,,,,,,,,,,,,,,,,,,,9,2.0989,1,0,26,26,29,1,3,×,3,3 × 3,incongruent,tie,1,2,9,,,,,,,,
,,,,,,,,,,,,,,,764,2022-01-19_20h30.09.434,multiplicationStroop,2021.2.3,Win32,60.10699044,,,,,,,,,,,,,,,,,,,,,,,,,,,,,,,,,45,2.1994,1,0,27,27,22,1,9,×,5,9 × 5,incongruent,largerFirst,1,2,45,,,,,,,,
,,,,,,,,,,,,,,,764,2022-01-19_20h30.09.434,multiplicationStroop,2021.2.3,Win32,60.10699044,,,,,,,,,,,,,,,,,,,,,,,,,,,,,,,,,30,2.3686,1,0,28,28,25,1,6,×,5,6 × 5,incongruent,largerFirst,1,2,30,,,,,,,,
,,,,,,,,,,,,,,,764,2022-01-19_20h30.09.434,multiplicationStroop,2021.2.3,Win32,60.10699044,,,,,,,,,,,,,,,,,,,,,,,,,,,,,,,,,10,1.7824,1,0,29,29,21,1,5,×,2,5 × 2,incongruent,largerFirst,1,2,10,,,,,,,,
,,,,,,,,,,,,,,,764,2022-01-19_20h30.09.434,multiplicationStroop,2021.2.3,Win32,60.10699044,,,,,,,,,,,,,,,,,,,,,,,,,,,,,,,,,36,2.2157,1,0,30,30,32,1,6,×,6,6 × 6,incongruent,tie,1,2,36,,,,,,,,
,,,,,,,,,,,,,,,764,2022-01-19_20h30.09.434,multiplicationStroop,2021.2.3,Win32,60.10699044,,,,,,,,,,,,,,,,,,,,,,,,,,,,,,,,,54,2.6495,1,0,31,31,6,1,6,×,9,6 × 9,incongruent,smallerFirst,2,1,54,,,,,,,,
,,,,,,,,,,,,,,,764,2022-01-19_20h30.09.434,multiplicationStroop,2021.2.3,Win32,60.10699044,,,,,,,,,,,,,,,,,,,,,,,,,,,,,,,,,35,2.5823,1,0,32,32,12,1,5,×,7,5 × 7,incongruent,smallerFirst,2,1,35,,,,,,,,
,,,,,,,,,,,,,,,764,2022-01-19_20h30.09.434,multiplicationStroop,2021.2.3,Win32,60.10699044,,,,,,,,,,,,,,,,,,,,,,,,,,,,,,,,,20,2.1158,1,0,33,33,27,1,5,×,4,5 × 4,incongruent,largerFirst,1,2,20,,,,,,,,
,,,,,,,,,,,,,,,764,2022-01-19_20h30.09.434,multiplicationStroop,2021.2.3,Win32,60.10699044,,,,,,,,,,,,,,,,,,,,,,,,,,,,,,,,,42,1.966,1,0,34,34,17,1,7,×,6,7 × 6,incongruent,largerFirst,1,2,42,,,,,,,,
,,,,,,,,,,,,,,,764,2022-01-19_20h30.09.434,multiplicationStroop,2021.2.3,Win32,60.10699044,,,,,,,,,,,,,,,,,,,,,,,,,,,,,,,,,40,3.3824,1,0,35,35,13,1,5,×,8,5 × 8,incongruent,smallerFirst,2,1,40,,,,,,,,
,,,,,,,,,,,,,,,764,2022-01-19_20h30.09.434,multiplicationStroop,2021.2.3,Win32,60.10699044,,,,,,,,,,,,,,,,,,,,,,,,,,,,,,,,,,,,,,,,,,,,,,,,,,0,5,5,5,1,stimulusFile/mult_blk6_INcongruent.xlsx,,
,,,,,,,,,,,,,,,764,2022-01-19_20h30.09.434,multiplicationStroop,2021.2.3,Win32,60.10699044,,,,,,,,,,,,,,,,,,,,,,,,,,,,,,,,,,,,,,,,,,,,,,,,,,,,,,,,space,13.5324