welcomeKey_resp.keys,welcomeKey_resp.rt,X Scale,Y Scale,rt_resp_4.keys,rt_resp_4.corr,rt_resp_4.rt,speedtest_2.thisRepN,speedtest_2.thisTrialN,speedtest_2.thisN,speedtest_2.thisIndex,speedtest_2.ran,numberSc,posX,positionLayout,participant,date,expName,psychopyVersion,OS,frameRate,ct_instrresp.keys,ct_instrresp.rt,key_resp_2.keys,key_resp_2.rt,ct_keyResp.keys,ct_keyResp.corr,ct_keyResp.rt,trials.thisRepN,trials.thisTrialN,trials.thisN,trials.thisIndex,trials.ran,leftNo,rightNo,displayProblem,numDistance,leftNo_size,rightNo_size,Dims,keyAnswer,TS_Loop.thisRepN,TS_Loop.thisTrialN,TS_Loop.thisN,TS_Loop.thisIndex,TS_Loop.ran,Condition,ActionInst,instrImage,mltptaskInst_resp.keys,mltptaskInst_resp.rt,continue_resp_2.keys,continue_resp_2.rt,multp_Answer,multi_RT,multiplyCorr,LoopingMultiply.thisRepN,LoopingMultiply.thisTrialN,LoopingMultiply.thisN,LoopingMultiply.thisIndex,LoopingMultiply.ran,factor1,multiplySign,factor2,multliplyProblem,physicalSize,orderOperand,sizeF1,sizeF2,mult_answer,trials_stroop.thisRepN,trials_stroop.thisTrialN,trials_stroop.thisN,trials_stroop.thisIndex,trials_stroop.ran,multiplicationFile,esckey_resp_2.keys,esckey_resp_2.rt
y,6.9785,44.4,44.9,left,1,0.5427,0,0,0,3,1,4,-200,left,765,2022-01-21_15h07.40.837,multiplicationStroop,2021.2.3,Win32,60.20107158,,,,,,,,,,,,,,,,,,,,,,,,,,,,,,,,,,,,,,,,,,,,,,,,,,,,,,,,,
,,,,left,1,0.3179,0,1,1,2,1,3,-200,left,765,2022-01-21_15h07.40.837,multiplicationStroop,2021.2.3,Win32,60.20107158,,,,,,,,,,,,,,,,,,,,,,,,,,,,,,,,,,,,,,,,,,,,,,,,,,,,,,,,,
,,,,right,1,0.3327,0,2,2,11,1,4,200,right,765,2022-01-21_15h07.40.837,multiplicationStroop,2021.2.3,Win32,60.20107158,,,,,,,,,,,,,,,,,,,,,,,,,,,,,,,,,,,,,,,,,,,,,,,,,,,,,,,,,
,,,,right,1,0.816,0,3,3,9,1,2,200,right,765,2022-01-21_15h07.40.837,multiplicationStroop,2021.2.3,Win32,60.20107158,,,,,,,,,,,,,,,,,,,,,,,,,,,,,,,,,,,,,,,,,,,,,,,,,,,,,,,,,
,,,,right,1,0.3506,0,4,4,10,1,3,200,right,765,2022-01-21_15h07.40.837,multiplicationStroop,2021.2.3,Win32,60.20107158,,,,,,,,,,,,,,,,,,,,,,,,,,,,,,,,,,,,,,,,,,,,,,,,,,,,,,,,,
,,,,right,1,0.4832,0,5,5,12,1,6,200,right,765,2022-01-21_15h07.40.837,multiplicationStroop,2021.2.3,Win32,60.20107158,,,,,,,,,,,,,,,,,,,,,,,,,,,,,,,,,,,,,,,,,,,,,,,,,,,,,,,,,
,,,,left,1,0.3459,0,6,6,1,1,2,-200,left,765,2022-01-21_15h07.40.837,multiplicationStroop,2021.2.3,Win32,60.20107158,,,,,,,,,,,,,,,,,,,,,,,,,,,,,,,,,,,,,,,,,,,,,,,,,,,,,,,,,
,,,,left,1,0.3133,0,7,7,7,1,9,-200,left,765,2022-01-21_15h07.40.837,multiplicationStroop,2021.2.3,Win32,60.20107158,,,,,,,,,,,,,,,,,,,,,,,,,,,,,,,,,,,,,,,,,,,,,,,,,,,,,,,,,
,,,,left,1,0.3494,0,8,8,4,1,6,-200,left,765,2022-01-21_15h07.40.837,multiplicationStroop,2021.2.3,Win32,60.20107158,,,,,,,,,,,,,,,,,,,,,,,,,,,,,,,,,,,,,,,,,,,,,,,,,,,,,,,,,
,,,,right,1,0.4478,0,9,9,14,1,8,200,right,765,2022-01-21_15h07.40.837,multiplicationStroop,2021.2.3,Win32,60.20107158,,,,,,,,,,,,,,,,,,,,,,,,,,,,,,,,,,,,,,,,,,,,,,,,,,,,,,,,,
,,,,left,1,0.357,0,10,10,6,1,8,-200,left,765,2022-01-21_15h07.40.837,multiplicationStroop,2021.2.3,Win32,60.20107158,,,,,,,,,,,,,,,,,,,,,,,,,,,,,,,,,,,,,,,,,,,,,,,,,,,,,,,,,
,,,,left,1,0.3281,0,11,11,0,1,1,-200,left,765,2022-01-21_15h07.40.837,multiplicationStroop,2021.2.3,Win32,60.20107158,,,,,,,,,,,,,,,,,,,,,,,,,,,,,,,,,,,,,,,,,,,,,,,,,,,,,,,,,
,,,,right,1,0.3959,0,12,12,15,1,9,200,right,765,2022-01-21_15h07.40.837,multiplicationStroop,2021.2.3,Win32,60.20107158,,,,,,,,,,,,,,,,,,,,,,,,,,,,,,,,,,,,,,,,,,,,,,,,,,,,,,,,,
,,,,right,1,0.361,0,13,13,13,1,7,200,right,765,2022-01-21_15h07.40.837,multiplicationStroop,2021.2.3,Win32,60.20107158,,,,,,,,,,,,,,,,,,,,,,,,,,,,,,,,,,,,,,,,,,,,,,,,,,,,,,,,,
,,,,right,1,0.3363,0,14,14,8,1,1,200,right,765,2022-01-21_15h07.40.837,multiplicationStroop,2021.2.3,Win32,60.20107158,,,,,,,,,,,,,,,,,,,,,,,,,,,,,,,,,,,,,,,,,,,,,,,,,,,,,,,,,
,,,,left,1,0.3613,0,15,15,5,1,7,-200,left,765,2022-01-21_15h07.40.837,multiplicationStroop,2021.2.3,Win32,60.20107158,,,,,,,,,,,,,,,,,,,,,,,,,,,,,,,,,,,,,,,,,,,,,,,,,,,,,,,,,
,,,,left,1,0.3571,1,0,16,7,1,9,-200,left,765,2022-01-21_15h07.40.837,multiplicationStroop,2021.2.3,Win32,60.20107158,,,,,,,,,,,,,,,,,,,,,,,,,,,,,,,,,,,,,,,,,,,,,,,,,,,,,,,,,
,,,,right,1,0.2689,1,1,17,13,1,7,200,right,765,2022-01-21_15h07.40.837,multiplicationStroop,2021.2.3,Win32,60.20107158,,,,,,,,,,,,,,,,,,,,,,,,,,,,,,,,,,,,,,,,,,,,,,,,,,,,,,,,,
,,,,left,1,0.3408,1,2,18,6,1,8,-200,left,765,2022-01-21_15h07.40.837,multiplicationStroop,2021.2.3,Win32,60.20107158,,,,,,,,,,,,,,,,,,,,,,,,,,,,,,,,,,,,,,,,,,,,,,,,,,,,,,,,,
,,,,right,1,0.3068,1,3,19,14,1,8,200,right,765,2022-01-21_15h07.40.837,multiplicationStroop,2021.2.3,Win32,60.20107158,,,,,,,,,,,,,,,,,,,,,,,,,,,,,,,,,,,,,,,,,,,,,,,,,,,,,,,,,
,,,,left,1,0.2999,1,4,20,4,1,6,-200,left,765,2022-01-21_15h07.40.837,multiplicationStroop,2021.2.3,Win32,60.20107158,,,,,,,,,,,,,,,,,,,,,,,,,,,,,,,,,,,,,,,,,,,,,,,,,,,,,,,,,
,,,,left,1,0.3254,1,5,21,1,1,2,-200,left,765,2022-01-21_15h07.40.837,multiplicationStroop,2021.2.3,Win32,60.20107158,,,,,,,,,,,,,,,,,,,,,,,,,,,,,,,,,,,,,,,,,,,,,,,,,,,,,,,,,
,,,,right,1,0.2625,1,6,22,12,1,6,200,right,765,2022-01-21_15h07.40.837,multiplicationStroop,2021.2.3,Win32,60.20107158,,,,,,,,,,,,,,,,,,,,,,,,,,,,,,,,,,,,,,,,,,,,,,,,,,,,,,,,,
,,,,right,1,0.3458,1,7,23,15,1,9,200,right,765,2022-01-21_15h07.40.837,multiplicationStroop,2021.2.3,Win32,60.20107158,,,,,,,,,,,,,,,,,,,,,,,,,,,,,,,,,,,,,,,,,,,,,,,,,,,,,,,,,
,,,,right,1,0.2919,1,8,24,10,1,3,200,right,765,2022-01-21_15h07.40.837,multiplicationStroop,2021.2.3,Win32,60.20107158,,,,,,,,,,,,,,,,,,,,,,,,,,,,,,,,,,,,,,,,,,,,,,,,,,,,,,,,,
,,,,left,1,0.2987,1,9,25,5,1,7,-200,left,765,2022-01-21_15h07.40.837,multiplicationStroop,2021.2.3,Win32,60.20107158,,,,,,,,,,,,,,,,,,,,,,,,,,,,,,,,,,,,,,,,,,,,,,,,,,,,,,,,,
,,,,left,1,0.3136,1,10,26,2,1,3,-200,left,765,2022-01-21_15h07.40.837,multiplicationStroop,2021.2.3,Win32,60.20107158,,,,,,,,,,,,,,,,,,,,,,,,,,,,,,,,,,,,,,,,,,,,,,,,,,,,,,,,,
,,,,right,1,0.2882,1,11,27,11,1,4,200,right,765,2022-01-21_15h07.40.837,multiplicationStroop,2021.2.3,Win32,60.20107158,,,,,,,,,,,,,,,,,,,,,,,,,,,,,,,,,,,,,,,,,,,,,,,,,,,,,,,,,
,,,,right,1,0.3141,1,12,28,8,1,1,200,right,765,2022-01-21_15h07.40.837,multiplicationStroop,2021.2.3,Win32,60.20107158,,,,,,,,,,,,,,,,,,,,,,,,,,,,,,,,,,,,,,,,,,,,,,,,,,,,,,,,,
,,,,right,1,0.2794,1,13,29,9,1,2,200,right,765,2022-01-21_15h07.40.837,multiplicationStroop,2021.2.3,Win32,60.20107158,,,,,,,,,,,,,,,,,,,,,,,,,,,,,,,,,,,,,,,,,,,,,,,,,,,,,,,,,
,,,,left,1,0.2924,1,14,30,0,1,1,-200,left,765,2022-01-21_15h07.40.837,multiplicationStroop,2021.2.3,Win32,60.20107158,,,,,,,,,,,,,,,,,,,,,,,,,,,,,,,,,,,,,,,,,,,,,,,,,,,,,,,,,
,,,,left,1,0.3197,1,15,31,3,1,4,-200,left,765,2022-01-21_15h07.40.837,multiplicationStroop,2021.2.3,Win32,60.20107158,,,,,,,,,,,,,,,,,,,,,,,,,,,,,,,,,,,,,,,,,,,,,,,,,,,,,,,,,
,,,,right,1,0.2795,2,0,32,8,1,1,200,right,765,2022-01-21_15h07.40.837,multiplicationStroop,2021.2.3,Win32,60.20107158,,,,,,,,,,,,,,,,,,,,,,,,,,,,,,,,,,,,,,,,,,,,,,,,,,,,,,,,,
,,,,left,1,0.2815,2,1,33,1,1,2,-200,left,765,2022-01-21_15h07.40.837,multiplicationStroop,2021.2.3,Win32,60.20107158,,,,,,,,,,,,,,,,,,,,,,,,,,,,,,,,,,,,,,,,,,,,,,,,,,,,,,,,,
,,,,right,1,0.2455,2,2,34,11,1,4,200,right,765,2022-01-21_15h07.40.837,multiplicationStroop,2021.2.3,Win32,60.20107158,,,,,,,,,,,,,,,,,,,,,,,,,,,,,,,,,,,,,,,,,,,,,,,,,,,,,,,,,
,,,,left,1,0.2693,2,3,35,6,1,8,-200,left,765,2022-01-21_15h07.40.837,multiplicationStroop,2021.2.3,Win32,60.20107158,,,,,,,,,,,,,,,,,,,,,,,,,,,,,,,,,,,,,,,,,,,,,,,,,,,,,,,,,
,,,,right,1,0.1959,2,4,36,10,1,3,200,right,765,2022-01-21_15h07.40.837,multiplicationStroop,2021.2.3,Win32,60.20107158,,,,,,,,,,,,,,,,,,,,,,,,,,,,,,,,,,,,,,,,,,,,,,,,,,,,,,,,,
,,,,right,1,0.3535,2,5,37,15,1,9,200,right,765,2022-01-21_15h07.40.837,multiplicationStroop,2021.2.3,Win32,60.20107158,,,,,,,,,,,,,,,,,,,,,,,,,,,,,,,,,,,,,,,,,,,,,,,,,,,,,,,,,
,,,,left,1,0.3128,2,6,38,5,1,7,-200,left,765,2022-01-21_15h07.40.837,multiplicationStroop,2021.2.3,Win32,60.20107158,,,,,,,,,,,,,,,,,,,,,,,,,,,,,,,,,,,,,,,,,,,,,,,,,,,,,,,,,
,,,,left,1,0.3236,2,7,39,3,1,4,-200,left,765,2022-01-21_15h07.40.837,multiplicationStroop,2021.2.3,Win32,60.20107158,,,,,,,,,,,,,,,,,,,,,,,,,,,,,,,,,,,,,,,,,,,,,,,,,,,,,,,,,
,,,,right,1,0.2898,2,8,40,14,1,8,200,right,765,2022-01-21_15h07.40.837,multiplicationStroop,2021.2.3,Win32,60.20107158,,,,,,,,,,,,,,,,,,,,,,,,,,,,,,,,,,,,,,,,,,,,,,,,,,,,,,,,,
,,,,right,1,0.2793,2,9,41,12,1,6,200,right,765,2022-01-21_15h07.40.837,multiplicationStroop,2021.2.3,Win32,60.20107158,,,,,,,,,,,,,,,,,,,,,,,,,,,,,,,,,,,,,,,,,,,,,,,,,,,,,,,,,
,,,,left,1,0.2893,2,10,42,4,1,6,-200,left,765,2022-01-21_15h07.40.837,multiplicationStroop,2021.2.3,Win32,60.20107158,,,,,,,,,,,,,,,,,,,,,,,,,,,,,,,,,,,,,,,,,,,,,,,,,,,,,,,,,
,,,,right,1,0.2669,2,11,43,9,1,2,200,right,765,2022-01-21_15h07.40.837,multiplicationStroop,2021.2.3,Win32,60.20107158,,,,,,,,,,,,,,,,,,,,,,,,,,,,,,,,,,,,,,,,,,,,,,,,,,,,,,,,,
,,,,left,1,0.3127,2,12,44,7,1,9,-200,left,765,2022-01-21_15h07.40.837,multiplicationStroop,2021.2.3,Win32,60.20107158,,,,,,,,,,,,,,,,,,,,,,,,,,,,,,,,,,,,,,,,,,,,,,,,,,,,,,,,,
,,,,left,1,0.4181,2,13,45,0,1,1,-200,left,765,2022-01-21_15h07.40.837,multiplicationStroop,2021.2.3,Win32,60.20107158,,,,,,,,,,,,,,,,,,,,,,,,,,,,,,,,,,,,,,,,,,,,,,,,,,,,,,,,,
,,,,right,1,0.2716,2,14,46,13,1,7,200,right,765,2022-01-21_15h07.40.837,multiplicationStroop,2021.2.3,Win32,60.20107158,,,,,,,,,,,,,,,,,,,,,,,,,,,,,,,,,,,,,,,,,,,,,,,,,,,,,,,,,
,,,,left,1,0.3064,2,15,47,2,1,3,-200,left,765,2022-01-21_15h07.40.837,multiplicationStroop,2021.2.3,Win32,60.20107158,,,,,,,,,,,,,,,,,,,,,,,,,,,,,,,,,,,,,,,,,,,,,,,,,,,,,,,,,
,,,,right,1,0.2962,3,0,48,12,1,6,200,right,765,2022-01-21_15h07.40.837,multiplicationStroop,2021.2.3,Win32,60.20107158,,,,,,,,,,,,,,,,,,,,,,,,,,,,,,,,,,,,,,,,,,,,,,,,,,,,,,,,,
,,,,right,1,0.3257,3,1,49,8,1,1,200,right,765,2022-01-21_15h07.40.837,multiplicationStroop,2021.2.3,Win32,60.20107158,,,,,,,,,,,,,,,,,,,,,,,,,,,,,,,,,,,,,,,,,,,,,,,,,,,,,,,,,
,,,,right,1,0.3238,3,2,50,13,1,7,200,right,765,2022-01-21_15h07.40.837,multiplicationStroop,2021.2.3,Win32,60.20107158,,,,,,,,,,,,,,,,,,,,,,,,,,,,,,,,,,,,,,,,,,,,,,,,,,,,,,,,,
,,,,right,1,0.3053,3,3,51,9,1,2,200,right,765,2022-01-21_15h07.40.837,multiplicationStroop,2021.2.3,Win32,60.20107158,,,,,,,,,,,,,,,,,,,,,,,,,,,,,,,,,,,,,,,,,,,,,,,,,,,,,,,,,
,,,,left,1,0.3201,3,4,52,3,1,4,-200,left,765,2022-01-21_15h07.40.837,multiplicationStroop,2021.2.3,Win32,60.20107158,,,,,,,,,,,,,,,,,,,,,,,,,,,,,,,,,,,,,,,,,,,,,,,,,,,,,,,,,
,,,,right,1,0.2662,3,5,53,15,1,9,200,right,765,2022-01-21_15h07.40.837,multiplicationStroop,2021.2.3,Win32,60.20107158,,,,,,,,,,,,,,,,,,,,,,,,,,,,,,,,,,,,,,,,,,,,,,,,,,,,,,,,,
,,,,right,1,0.4994,3,6,54,10,1,3,200,right,765,2022-01-21_15h07.40.837,multiplicationStroop,2021.2.3,Win32,60.20107158,,,,,,,,,,,,,,,,,,,,,,,,,,,,,,,,,,,,,,,,,,,,,,,,,,,,,,,,,
,,,,right,1,0.2987,3,7,55,11,1,4,200,right,765,2022-01-21_15h07.40.837,multiplicationStroop,2021.2.3,Win32,60.20107158,,,,,,,,,,,,,,,,,,,,,,,,,,,,,,,,,,,,,,,,,,,,,,,,,,,,,,,,,
,,,,left,1,0.3124,3,8,56,1,1,2,-200,left,765,2022-01-21_15h07.40.837,multiplicationStroop,2021.2.3,Win32,60.20107158,,,,,,,,,,,,,,,,,,,,,,,,,,,,,,,,,,,,,,,,,,,,,,,,,,,,,,,,,
,,,,right,1,0.3066,3,9,57,14,1,8,200,right,765,2022-01-21_15h07.40.837,multiplicationStroop,2021.2.3,Win32,60.20107158,,,,,,,,,,,,,,,,,,,,,,,,,,,,,,,,,,,,,,,,,,,,,,,,,,,,,,,,,
,,,,left,1,0.3123,3,10,58,5,1,7,-200,left,765,2022-01-21_15h07.40.837,multiplicationStroop,2021.2.3,Win32,60.20107158,,,,,,,,,,,,,,,,,,,,,,,,,,,,,,,,,,,,,,,,,,,,,,,,,,,,,,,,,
,,,,left,1,0.4877,3,11,59,7,1,9,-200,left,765,2022-01-21_15h07.40.837,multiplicationStroop,2021.2.3,Win32,60.20107158,,,,,,,,,,,,,,,,,,,,,,,,,,,,,,,,,,,,,,,,,,,,,,,,,,,,,,,,,
,,,,left,1,0.3144,3,12,60,6,1,8,-200,left,765,2022-01-21_15h07.40.837,multiplicationStroop,2021.2.3,Win32,60.20107158,,,,,,,,,,,,,,,,,,,,,,,,,,,,,,,,,,,,,,,,,,,,,,,,,,,,,,,,,
,,,,left,1,0.3014,3,13,61,4,1,6,-200,left,765,2022-01-21_15h07.40.837,multiplicationStroop,2021.2.3,Win32,60.20107158,,,,,,,,,,,,,,,,,,,,,,,,,,,,,,,,,,,,,,,,,,,,,,,,,,,,,,,,,
,,,,left,1,0.3063,3,14,62,2,1,3,-200,left,765,2022-01-21_15h07.40.837,multiplicationStroop,2021.2.3,Win32,60.20107158,,,,,,,,,,,,,,,,,,,,,,,,,,,,,,,,,,,,,,,,,,,,,,,,,,,,,,,,,
,,,,left,1,0.2911,3,15,63,0,1,1,-200,left,765,2022-01-21_15h07.40.837,multiplicationStroop,2021.2.3,Win32,60.20107158,,,,,,,,,,,,,,,,,,,,,,,,,,,,,,,,,,,,,,,,,,,,,,,,,,,,,,,,,
,,,,,,,,,,,,,,,765,2022-01-21_15h07.40.837,multiplicationStroop,2021.2.3,Win32,60.20107158,space,19.8684,space,2.5541,right,1,0.661,0,0,0,38,1,8,6,8 | 6,2,1.4111,1.9756,incongruent,right,,,,,,stimulusFile/physical.xlsx,,,,,,,,,,,,,,,,,,,,,,,,,,,,,,,
,,,,,,,,,,,,,,,765,2022-01-21_15h07.40.837,multiplicationStroop,2021.2.3,Win32,60.20107158,,,,,left,1,0.4295,0,1,1,26,1,6,7,6 | 7,1,1.9756,1.4111,incongruent,left,,,,,,stimulusFile/physical.xlsx,,,,,,,,,,,,,,,,,,,,,,,,,,,,,,,
,,,,,,,,,,,,,,,765,2022-01-21_15h07.40.837,multiplicationStroop,2021.2.3,Win32,60.20107158,,,,,right,1,0.3785,0,2,2,11,1,7,9,7 | 9,2,1.4111,1.9756,congruent,right,,,,,,stimulusFile/physical.xlsx,,,,,,,,,,,,,,,,,,,,,,,,,,,,,,,
,,,,,,,,,,,,,,,765,2022-01-21_15h07.40.837,multiplicationStroop,2021.2.3,Win32,60.20107158,,,,,right,1,0.4063,0,3,3,9,1,2,4,2 | 4,2,1.4111,1.9756,congruent,right,,,,,,stimulusFile/physical.xlsx,,,,,,,,,,,,,,,,,,,,,,,,,,,,,,,
,,,,,,,,,,,,,,,765,2022-01-21_15h07.40.837,multiplicationStroop,2021.2.3,Win32,60.20107158,,,,,left,1,0.3739,0,4,4,54,1,7,7,7 | 7,0,1.9756,1.4111,neutral,left,,,,,,stimulusFile/physical.xlsx,,,,,,,,,,,,,,,,,,,,,,,,,,,,,,,
,,,,,,,,,,,,,,,765,2022-01-21_15h07.40.837,multiplicationStroop,2021.2.3,Win32,60.20107158,,,,,left,1,0.4067,0,5,5,21,1,7,2,7 | 2,5,1.9756,1.4111,congruent,left,,,,,,stimulusFile/physical.xlsx,,,,,,,,,,,,,,,,,,,,,,,,,,,,,,,
,,,,,,,,,,,,,,,765,2022-01-21_15h07.40.837,multiplicationStroop,2021.2.3,Win32,60.20107158,,,,,right,1,0.3602,0,6,6,17,1,2,7,2 | 7,5,1.4111,1.9756,congruent,right,,,,,,stimulusFile/physical.xlsx,,,,,,,,,,,,,,,,,,,,,,,,,,,,,,,
,,,,,,,,,,,,,,,765,2022-01-21_15h07.40.837,multiplicationStroop,2021.2.3,Win32,60.20107158,,,,,right,0,0.4781,0,7,7,43,1,4,9,4 | 9,5,1.9756,1.4111,incongruent,left,,,,,,stimulusFile/physical.xlsx,,,,,,,,,,,,,,,,,,,,,,,,,,,,,,,
,,,,,,,,,,,,,,,765,2022-01-21_15h07.40.837,multiplicationStroop,2021.2.3,Win32,60.20107158,,,,,left,1,0.4763,0,8,8,68,1,6,6,6 | 6,0,1.9756,1.4111,neutral,left,,,,,,stimulusFile/physical.xlsx,,,,,,,,,,,,,,,,,,,,,,,,,,,,,,,
,,,,,,,,,,,,,,,765,2022-01-21_15h07.40.837,multiplicationStroop,2021.2.3,Win32,60.20107158,,,,,left,1,0.4533,0,9,9,32,1,1,3,1 | 3,2,1.9756,1.4111,incongruent,left,,,,,,stimulusFile/physical.xlsx,,,,,,,,,,,,,,,,,,,,,,,,,,,,,,,
,,,,,,,,,,,,,,,765,2022-01-21_15h07.40.837,multiplicationStroop,2021.2.3,Win32,60.20107158,,,,,right,0,0.3639,0,10,10,71,1,9,9,9 | 9,0,1.4111,1.9756,neutral,left,,,,,,stimulusFile/physical.xlsx,,,,,,,,,,,,,,,,,,,,,,,,,,,,,,,
,,,,,,,,,,,,,,,765,2022-01-21_15h07.40.837,multiplicationStroop,2021.2.3,Win32,60.20107158,,,,,left,1,0.3259,0,11,11,25,1,3,4,3 | 4,1,1.9756,1.4111,incongruent,left,,,,,,stimulusFile/physical.xlsx,,,,,,,,,,,,,,,,,,,,,,,,,,,,,,,
,,,,,,,,,,,,,,,765,2022-01-21_15h07.40.837,multiplicationStroop,2021.2.3,Win32,60.20107158,,,,,left,0,0.5027,0,12,12,66,1,3,3,3 | 3,0,1.9756,1.4111,neutral,right,,,,,,stimulusFile/physical.xlsx,,,,,,,,,,,,,,,,,,,,,,,,,,,,,,,
,,,,,,,,,,,,,,,765,2022-01-21_15h07.40.837,multiplicationStroop,2021.2.3,Win32,60.20107158,,,,,right,1,0.3911,0,13,13,10,1,6,8,6 | 8,2,1.4111,1.9756,congruent,right,,,,,,stimulusFile/physical.xlsx,,,,,,,,,,,,,,,,,,,,,,,,,,,,,,,
,,,,,,,,,,,,,,,765,2022-01-21_15h07.40.837,multiplicationStroop,2021.2.3,Win32,60.20107158,,,,,right,1,0.4007,0,14,14,61,1,4,4,4 | 4,0,1.4111,1.9756,neutral,right,,,,,,stimulusFile/physical.xlsx,,,,,,,,,,,,,,,,,,,,,,,,,,,,,,,
,,,,,,,,,,,,,,,765,2022-01-21_15h07.40.837,multiplicationStroop,2021.2.3,Win32,60.20107158,,,,,left,1,0.3882,0,15,15,22,1,8,3,8 | 3,5,1.9756,1.4111,congruent,left,,,,,,stimulusFile/physical.xlsx,,,,,,,,,,,,,,,,,,,,,,,,,,,,,,,
,,,,,,,,,,,,,,,765,2022-01-21_15h07.40.837,multiplicationStroop,2021.2.3,Win32,60.20107158,,,,,left,1,0.4041,0,16,16,13,1,4,2,4 | 2,2,1.9756,1.4111,congruent,left,,,,,,stimulusFile/physical.xlsx,,,,,,,,,,,,,,,,,,,,,,,,,,,,,,,
,,,,,,,,,,,,,,,765,2022-01-21_15h07.40.837,multiplicationStroop,2021.2.3,Win32,60.20107158,,,,,right,1,0.3494,0,17,17,58,1,6,6,6 | 6,0,1.4111,1.9756,neutral,right,,,,,,stimulusFile/physical.xlsx,,,,,,,,,,,,,,,,,,,,,,,,,,,,,,,
,,,,,,,,,,,,,,,765,2022-01-21_15h07.40.837,multiplicationStroop,2021.2.3,Win32,60.20107158,,,,,left,1,0.337,0,18,18,27,1,8,9,8 | 9,1,1.9756,1.4111,incongruent,left,,,,,,stimulusFile/physical.xlsx,,,,,,,,,,,,,,,,,,,,,,,,,,,,,,,
,,,,,,,,,,,,,,,765,2022-01-21_15h07.40.837,multiplicationStroop,2021.2.3,Win32,60.20107158,,,,,right,1,0.4254,0,19,19,62,1,8,8,8 | 8,0,1.4111,1.9756,neutral,right,,,,,,stimulusFile/physical.xlsx,,,,,,,,,,,,,,,,,,,,,,,,,,,,,,,
,,,,,,,,,,,,,,,765,2022-01-21_15h07.40.837,multiplicationStroop,2021.2.3,Win32,60.20107158,,,,,left,1,0.3599,0,20,20,20,1,6,1,6 | 1,5,1.9756,1.4111,congruent,left,,,,,,stimulusFile/physical.xlsx,,,,,,,,,,,,,,,,,,,,,,,,,,,,,,,
,,,,,,,,,,,,,,,765,2022-01-21_15h07.40.837,multiplicationStroop,2021.2.3,Win32,60.20107158,,,,,left,1,0.5122,0,21,21,42,1,3,8,3 | 8,5,1.9756,1.4111,incongruent,left,,,,,,stimulusFile/physical.xlsx,,,,,,,,,,,,,,,,,,,,,,,,,,,,,,,
,,,,,,,,,,,,,,,765,2022-01-21_15h07.40.837,multiplicationStroop,2021.2.3,Win32,60.20107158,,,,,right,0,0.4658,0,22,22,41,1,2,7,2 | 7,5,1.9756,1.4111,incongruent,left,,,,,,stimulusFile/physical.xlsx,,,,,,,,,,,,,,,,,,,,,,,,,,,,,,,
,,,,,,,,,,,,,,,765,2022-01-21_15h07.40.837,multiplicationStroop,2021.2.3,Win32,60.20107158,,,,,right,1,0.7952,0,23,23,67,1,4,4,4 | 4,0,1.4111,1.9756,neutral,right,,,,,,stimulusFile/physical.xlsx,,,,,,,,,,,,,,,,,,,,,,,,,,,,,,,
,,,,,,,,,,,,,,,765,2022-01-21_15h07.40.837,multiplicationStroop,2021.2.3,Win32,60.20107158,,,,,right,1,0.4973,0,24,24,63,1,9,9,9 | 9,0,1.4111,1.9756,neutral,right,,,,,,stimulusFile/physical.xlsx,,,,,,,,,,,,,,,,,,,,,,,,,,,,,,,
,,,,,,,,,,,,,,,765,2022-01-21_15h07.40.837,multiplicationStroop,2021.2.3,Win32,60.20107158,,,,,left,1,0.496,0,25,25,34,1,6,8,6 | 8,2,1.9756,1.4111,incongruent,left,,,,,,stimulusFile/physical.xlsx,,,,,,,,,,,,,,,,,,,,,,,,,,,,,,,
,,,,,,,,,,,,,,,765,2022-01-21_15h07.40.837,multiplicationStroop,2021.2.3,Win32,60.20107158,,,,,left,1,0.4709,0,26,26,6,1,7,6,7 | 6,1,1.9756,1.4111,congruent,left,,,,,,stimulusFile/physical.xlsx,,,,,,,,,,,,,,,,,,,,,,,,,,,,,,,
,,,,,,,,,,,,,,,765,2022-01-21_15h07.40.837,multiplicationStroop,2021.2.3,Win32,60.20107158,,,,,right,1,0.5718,0,27,27,46,1,8,3,8 | 3,5,1.4111,1.9756,incongruent,right,,,,,,stimulusFile/physical.xlsx,,,,,,,,,,,,,,,,,,,,,,,,,,,,,,,
,,,,,,,,,,,,,,,765,2022-01-21_15h07.40.837,multiplicationStroop,2021.2.3,Win32,60.20107158,,,,,right,1,0.5215,0,28,28,28,1,2,1,2 | 1,1,1.4111,1.9756,incongruent,right,,,,,,stimulusFile/physical.xlsx,,,,,,,,,,,,,,,,,,,,,,,,,,,,,,,
,,,,,,,,,,,,,,,765,2022-01-21_15h07.40.837,multiplicationStroop,2021.2.3,Win32,60.20107158,,,,,left,1,0.5072,0,29,29,35,1,7,9,7 | 9,2,1.9756,1.4111,incongruent,left,,,,,,stimulusFile/physical.xlsx,,,,,,,,,,,,,,,,,,,,,,,,,,,,,,,
,,,,,,,,,,,,,,,765,2022-01-21_15h07.40.837,multiplicationStroop,2021.2.3,Win32,60.20107158,,,,,left,1,0.5161,0,30,30,55,1,9,9,9 | 9,0,1.9756,1.4111,neutral,left,,,,,,stimulusFile/physical.xlsx,,,,,,,,,,,,,,,,,,,,,,,,,,,,,,,
,,,,,,,,,,,,,,,765,2022-01-21_15h07.40.837,multiplicationStroop,2021.2.3,Win32,60.20107158,,,,,left,1,0.4918,0,31,31,33,1,2,4,2 | 4,2,1.9756,1.4111,incongruent,left,,,,,,stimulusFile/physical.xlsx,,,,,,,,,,,,,,,,,,,,,,,,,,,,,,,
,,,,,,,,,,,,,,,765,2022-01-21_15h07.40.837,multiplicationStroop,2021.2.3,Win32,60.20107158,,,,,right,1,0.4146,0,32,32,16,1,1,6,1 | 6,5,1.4111,1.9756,congruent,right,,,,,,stimulusFile/physical.xlsx,,,,,,,,,,,,,,,,,,,,,,,,,,,,,,,
,,,,,,,,,,,,,,,765,2022-01-21_15h07.40.837,multiplicationStroop,2021.2.3,Win32,60.20107158,,,,,left,1,0.4976,0,33,33,14,1,8,6,8 | 6,2,1.9756,1.4111,congruent,left,,,,,,stimulusFile/physical.xlsx,,,,,,,,,,,,,,,,,,,,,,,,,,,,,,,
,,,,,,,,,,,,,,,765,2022-01-21_15h07.40.837,multiplicationStroop,2021.2.3,Win32,60.20107158,,,,,left,1,0.5114,0,34,34,24,1,1,2,1 | 2,1,1.9756,1.4111,incongruent,left,,,,,,stimulusFile/physical.xlsx,,,,,,,,,,,,,,,,,,,,,,,,,,,,,,,
,,,,,,,,,,,,,,,765,2022-01-21_15h07.40.837,multiplicationStroop,2021.2.3,Win32,60.20107158,,,,,right,0,0.2865,0,35,35,69,1,7,7,7 | 7,0,1.4111,1.9756,neutral,left,,,,,,stimulusFile/physical.xlsx,,,,,,,,,,,,,,,,,,,,,,,,,,,,,,,
,,,,,,,,,,,,,,,765,2022-01-21_15h07.40.837,multiplicationStroop,2021.2.3,Win32,60.20107158,,,,,right,1,0.4607,0,36,36,0,1,1,2,1 | 2,1,1.4111,1.9756,congruent,right,,,,,,stimulusFile/physical.xlsx,,,,,,,,,,,,,,,,,,,,,,,,,,,,,,,
,,,,,,,,,,,,,,,765,2022-01-21_15h07.40.837,multiplicationStroop,2021.2.3,Win32,60.20107158,,,,,left,1,0.4968,0,37,37,49,1,3,3,3 | 3,0,1.9756,1.4111,neutral,left,,,,,,stimulusFile/physical.xlsx,,,,,,,,,,,,,,,,,,,,,,,,,,,,,,,
,,,,,,,,,,,,,,,765,2022-01-21_15h07.40.837,multiplicationStroop,2021.2.3,Win32,60.20107158,,,,,right,1,0.5328,0,38,38,44,1,6,1,6 | 1,5,1.4111,1.9756,incongruent,right,,,,,,stimulusFile/physical.xlsx,,,,,,,,,,,,,,,,,,,,,,,,,,,,,,,
,,,,,,,,,,,,,,,765,2022-01-21_15h07.40.837,multiplicationStroop,2021.2.3,Win32,60.20107158,,,,,left,1,0.3685,0,39,39,7,1,9,8,9 | 8,1,1.9756,1.4111,congruent,left,,,,,,stimulusFile/physical.xlsx,,,,,,,,,,,,,,,,,,,,,,,,,,,,,,,
,,,,,,,,,,,,,,,765,2022-01-21_15h07.40.837,multiplicationStroop,2021.2.3,Win32,60.20107158,,,,,left,1,0.5098,0,40,40,48,1,1,1,1 | 1,0,1.9756,1.4111,neutral,left,,,,,,stimulusFile/physical.xlsx,,,,,,,,,,,,,,,,,,,,,,,,,,,,,,,
,,,,,,,,,,,,,,,765,2022-01-21_15h07.40.837,multiplicationStroop,2021.2.3,Win32,60.20107158,,,,,left,1,0.4267,0,41,41,51,1,8,8,8 | 8,0,1.9756,1.4111,neutral,left,,,,,,stimulusFile/physical.xlsx,,,,,,,,,,,,,,,,,,,,,,,,,,,,,,,
,,,,,,,,,,,,,,,765,2022-01-21_15h07.40.837,multiplicationStroop,2021.2.3,Win32,60.20107158,,,,,left,1,0.4034,0,42,42,53,1,4,4,4 | 4,0,1.9756,1.4111,neutral,left,,,,,,stimulusFile/physical.xlsx,,,,,,,,,,,,,,,,,,,,,,,,,,,,,,,
,,,,,,,,,,,,,,,765,2022-01-21_15h07.40.837,multiplicationStroop,2021.2.3,Win32,60.20107158,,,,,right,1,0.4814,0,43,43,47,1,9,4,9 | 4,5,1.4111,1.9756,incongruent,right,,,,,,stimulusFile/physical.xlsx,,,,,,,,,,,,,,,,,,,,,,,,,,,,,,,
,,,,,,,,,,,,,,,765,2022-01-21_15h07.40.837,multiplicationStroop,2021.2.3,Win32,60.20107158,,,,,left,1,0.3825,0,44,44,12,1,3,1,3 | 1,2,1.9756,1.4111,congruent,left,,,,,,stimulusFile/physical.xlsx,,,,,,,,,,,,,,,,,,,,,,,,,,,,,,,
,,,,,,,,,,,,,,,765,2022-01-21_15h07.40.837,multiplicationStroop,2021.2.3,Win32,60.20107158,,,,,left,1,0.462,0,45,45,50,1,6,6,6 | 6,0,1.9756,1.4111,neutral,left,,,,,,stimulusFile/physical.xlsx,,,,,,,,,,,,,,,,,,,,,,,,,,,,,,,
,,,,,,,,,,,,,,,765,2022-01-21_15h07.40.837,multiplicationStroop,2021.2.3,Win32,60.20107158,,,,,right,1,0.3595,0,46,46,1,1,3,4,3 | 4,1,1.4111,1.9756,congruent,right,,,,,,stimulusFile/physical.xlsx,,,,,,,,,,,,,,,,,,,,,,,,,,,,,,,
,,,,,,,,,,,,,,,765,2022-01-21_15h07.40.837,multiplicationStroop,2021.2.3,Win32,60.20107158,,,,,right,1,0.4856,0,47,47,29,1,4,3,4 | 3,1,1.4111,1.9756,incongruent,right,,,,,,stimulusFile/physical.xlsx,,,,,,,,,,,,,,,,,,,,,,,,,,,,,,,
,,,,,,,,,,,,,,,765,2022-01-21_15h07.40.837,multiplicationStroop,2021.2.3,Win32,60.20107158,,,,,right,1,0.3543,0,48,48,8,1,1,3,1 | 3,2,1.4111,1.9756,congruent,right,,,,,,stimulusFile/physical.xlsx,,,,,,,,,,,,,,,,,,,,,,,,,,,,,,,
,,,,,,,,,,,,,,,765,2022-01-21_15h07.40.837,multiplicationStroop,2021.2.3,Win32,60.20107158,,,,,left,1,0.3594,0,49,49,5,1,4,3,4 | 3,1,1.9756,1.4111,congruent,left,,,,,,stimulusFile/physical.xlsx,,,,,,,,,,,,,,,,,,,,,,,,,,,,,,,
,,,,,,,,,,,,,,,765,2022-01-21_15h07.40.837,multiplicationStroop,2021.2.3,Win32,60.20107158,,,,,right,1,0.3987,0,50,50,64,1,1,1,1 | 1,0,1.9756,1.4111,neutral,right,,,,,,stimulusFile/physical.xlsx,,,,,,,,,,,,,,,,,,,,,,,,,,,,,,,
,,,,,,,,,,,,,,,765,2022-01-21_15h07.40.837,multiplicationStroop,2021.2.3,Win32,60.20107158,,,,,right,1,0.5157,0,51,51,37,1,4,2,4 | 2,2,1.4111,1.9756,incongruent,right,,,,,,stimulusFile/physical.xlsx,,,,,,,,,,,,,,,,,,,,,,,,,,,,,,,
,,,,,,,,,,,,,,,765,2022-01-21_15h07.40.837,multiplicationStroop,2021.2.3,Win32,60.20107158,,,,,left,0,0.4003,0,52,52,30,1,7,6,7 | 6,1,1.4111,1.9756,incongruent,right,,,,,,stimulusFile/physical.xlsx,,,,,,,,,,,,,,,,,,,,,,,,,,,,,,,
,,,,,,,,,,,,,,,765,2022-01-21_15h07.40.837,multiplicationStroop,2021.2.3,Win32,60.20107158,,,,,left,1,0.5136,0,53,53,52,1,2,2,2 | 2,0,1.9756,1.4111,neutral,left,,,,,,stimulusFile/physical.xlsx,,,,,,,,,,,,,,,,,,,,,,,,,,,,,,,
,,,,,,,,,,,,,,,765,2022-01-21_15h07.40.837,multiplicationStroop,2021.2.3,Win32,60.20107158,,,,,right,1,0.3572,0,54,54,36,1,3,1,3 | 1,2,1.4111,1.9756,incongruent,right,,,,,,stimulusFile/physical.xlsx,,,,,,,,,,,,,,,,,,,,,,,,,,,,,,,
,,,,,,,,,,,,,,,765,2022-01-21_15h07.40.837,multiplicationStroop,2021.2.3,Win32,60.20107158,,,,,right,1,0.4292,0,55,55,59,1,7,7,7 | 7,0,1.4111,1.9756,neutral,right,,,,,,stimulusFile/physical.xlsx,,,,,,,,,,,,,,,,,,,,,,,,,,,,,,,
,,,,,,,,,,,,,,,765,2022-01-21_15h07.40.837,multiplicationStroop,2021.2.3,Win32,60.20107158,,,,,right,1,0.4261,0,56,56,56,1,1,1,1 | 1,0,1.4111,1.9756,neutral,right,,,,,,stimulusFile/physical.xlsx,,,,,,,,,,,,,,,,,,,,,,,,,,,,,,,
,,,,,,,,,,,,,,,765,2022-01-21_15h07.40.837,multiplicationStroop,2021.2.3,Win32,60.20107158,,,,,left,1,0.4214,0,57,57,15,1,9,7,9 | 7,2,1.9756,1.4111,congruent,left,,,,,,stimulusFile/physical.xlsx,,,,,,,,,,,,,,,,,,,,,,,,,,,,,,,
,,,,,,,,,,,,,,,765,2022-01-21_15h07.40.837,multiplicationStroop,2021.2.3,Win32,60.20107158,,,,,left,1,0.5034,0,58,58,70,1,8,8,8 | 8,0,1.9756,1.4111,neutral,left,,,,,,stimulusFile/physical.xlsx,,,,,,,,,,,,,,,,,,,,,,,,,,,,,,,
,,,,,,,,,,,,,,,765,2022-01-21_15h07.40.837,multiplicationStroop,2021.2.3,Win32,60.20107158,,,,,right,1,0.3761,0,59,59,2,1,6,7,6 | 7,1,1.4111,1.9756,congruent,right,,,,,,stimulusFile/physical.xlsx,,,,,,,,,,,,,,,,,,,,,,,,,,,,,,,
,,,,,,,,,,,,,,,765,2022-01-21_15h07.40.837,multiplicationStroop,2021.2.3,Win32,60.20107158,,,,,right,1,0.4094,0,60,60,19,1,4,9,4 | 9,5,1.4111,1.9756,congruent,right,,,,,,stimulusFile/physical.xlsx,,,,,,,,,,,,,,,,,,,,,,,,,,,,,,,
,,,,,,,,,,,,,,,765,2022-01-21_15h07.40.837,multiplicationStroop,2021.2.3,Win32,60.20107158,,,,,right,1,0.4374,0,61,61,3,1,8,9,8 | 9,1,1.4111,1.9756,congruent,right,,,,,,stimulusFile/physical.xlsx,,,,,,,,,,,,,,,,,,,,,,,,,,,,,,,
,,,,,,,,,,,,,,,765,2022-01-21_15h07.40.837,multiplicationStroop,2021.2.3,Win32,60.20107158,,,,,left,1,0.3627,0,62,62,23,1,9,4,9 | 4,5,1.9756,1.4111,congruent,left,,,,,,stimulusFile/physical.xlsx,,,,,,,,,,,,,,,,,,,,,,,,,,,,,,,
,,,,,,,,,,,,,,,765,2022-01-21_15h07.40.837,multiplicationStroop,2021.2.3,Win32,60.20107158,,,,,left,0,0.5702,0,63,63,45,1,7,2,7 | 2,5,1.4111,1.9756,incongruent,right,,,,,,stimulusFile/physical.xlsx,,,,,,,,,,,,,,,,,,,,,,,,,,,,,,,
,,,,,,,,,,,,,,,765,2022-01-21_15h07.40.837,multiplicationStroop,2021.2.3,Win32,60.20107158,,,,,right,0,0.5157,0,64,64,4,1,2,1,2 | 1,1,1.9756,1.4111,congruent,left,,,,,,stimulusFile/physical.xlsx,,,,,,,,,,,,,,,,,,,,,,,,,,,,,,,
,,,,,,,,,,,,,,,765,2022-01-21_15h07.40.837,multiplicationStroop,2021.2.3,Win32,60.20107158,,,,,right,1,0.7074,0,65,65,57,1,2,2,2 | 2,0,1.4111,1.9756,neutral,right,,,,,,stimulusFile/physical.xlsx,,,,,,,,,,,,,,,,,,,,,,,,,,,,,,,
,,,,,,,,,,,,,,,765,2022-01-21_15h07.40.837,multiplicationStroop,2021.2.3,Win32,60.20107158,,,,,right,1,0.4539,0,66,66,60,1,3,3,3 | 3,0,1.4111,1.9756,neutral,right,,,,,,stimulusFile/physical.xlsx,,,,,,,,,,,,,,,,,,,,,,,,,,,,,,,
,,,,,,,,,,,,,,,765,2022-01-21_15h07.40.837,multiplicationStroop,2021.2.3,Win32,60.20107158,,,,,right,1,0.4666,0,67,67,18,1,3,8,3 | 8,5,1.4111,1.9756,congruent,right,,,,,,stimulusFile/physical.xlsx,,,,,,,,,,,,,,,,,,,,,,,,,,,,,,,
,,,,,,,,,,,,,,,765,2022-01-21_15h07.40.837,multiplicationStroop,2021.2.3,Win32,60.20107158,,,,,right,1,0.5598,0,68,68,65,1,2,2,2 | 2,0,1.4111,1.9756,neutral,right,,,,,,stimulusFile/physical.xlsx,,,,,,,,,,,,,,,,,,,,,,,,,,,,,,,
,,,,,,,,,,,,,,,765,2022-01-21_15h07.40.837,multiplicationStroop,2021.2.3,Win32,60.20107158,,,,,left,0,0.4267,0,69,69,39,1,9,7,9 | 7,2,1.4111,1.9756,incongruent,right,,,,,,stimulusFile/physical.xlsx,,,,,,,,,,,,,,,,,,,,,,,,,,,,,,,
,,,,,,,,,,,,,,,765,2022-01-21_15h07.40.837,multiplicationStroop,2021.2.3,Win32,60.20107158,,,,,left,1,0.5512,0,70,70,40,1,1,6,1 | 6,5,1.9756,1.4111,incongruent,left,,,,,,stimulusFile/physical.xlsx,,,,,,,,,,,,,,,,,,,,,,,,,,,,,,,
,,,,,,,,,,,,,,,765,2022-01-21_15h07.40.837,multiplicationStroop,2021.2.3,Win32,60.20107158,,,,,right,1,0.5178,0,71,71,31,1,9,8,9 | 8,1,1.4111,1.9756,incongruent,right,,,,,,stimulusFile/physical.xlsx,,,,,,,,,,,,,,,,,,,,,,,,,,,,,,,
,,,,,,,,,,,,,,,765,2022-01-21_15h07.40.837,multiplicationStroop,2021.2.3,Win32,60.20107158,,,,,,,,,,,,,,,,,,,,,0,0,0,1,1,stimulusFile/physical.xlsx,PHYSICALLY larger (larger font size).,images/physicallyLarger.png,,,,,,,,,,,,,,,,,,,,,,,,,,,,,
,,,,,,,,,,,,,,,765,2022-01-21_15h07.40.837,multiplicationStroop,2021.2.3,Win32,60.20107158,space,4.1272,space,1.543,left,1,0.5003,0,0,0,12,1,3,1,3 | 1,2,1.9756,1.4111,congruent,left,,,,,,stimulusFile/magnitude.xlsx,,,,,,,,,,,,,,,,,,,,,,,,,,,,,,,
,,,,,,,,,,,,,,,765,2022-01-21_15h07.40.837,multiplicationStroop,2021.2.3,Win32,60.20107158,,,,,right,1,0.749,0,1,1,24,1,1,2,1 | 2,1,1.9756,1.4111,incongruent,right,,,,,,stimulusFile/magnitude.xlsx,,,,,,,,,,,,,,,,,,,,,,,,,,,,,,,
,,,,,,,,,,,,,,,765,2022-01-21_15h07.40.837,multiplicationStroop,2021.2.3,Win32,60.20107158,,,,,left,1,0.5811,0,2,2,53,1,4,3,4 | 3,1,1.6933,1.6933,neutral,left,,,,,,stimulusFile/magnitude.xlsx,,,,,,,,,,,,,,,,,,,,,,,,,,,,,,,
,,,,,,,,,,,,,,,765,2022-01-21_15h07.40.837,multiplicationStroop,2021.2.3,Win32,60.20107158,,,,,right,1,0.4229,0,3,3,66,1,3,8,3 | 8,5,1.6933,1.6933,neutral,right,,,,,,stimulusFile/magnitude.xlsx,,,,,,,,,,,,,,,,,,,,,,,,,,,,,,,
,,,,,,,,,,,,,,,765,2022-01-21_15h07.40.837,multiplicationStroop,2021.2.3,Win32,60.20107158,,,,,left,0,0.5106,0,4,4,34,1,6,8,6 | 8,2,1.9756,1.4111,incongruent,right,,,,,,stimulusFile/magnitude.xlsx,,,,,,,,,,,,,,,,,,,,,,,,,,,,,,,
,,,,,,,,,,,,,,,765,2022-01-21_15h07.40.837,multiplicationStroop,2021.2.3,Win32,60.20107158,,,,,left,1,0.5022,0,5,5,47,1,9,4,9 | 4,5,1.4111,1.9756,incongruent,left,,,,,,stimulusFile/magnitude.xlsx,,,,,,,,,,,,,,,,,,,,,,,,,,,,,,,
,,,,,,,,,,,,,,,765,2022-01-21_15h07.40.837,multiplicationStroop,2021.2.3,Win32,60.20107158,,,,,right,1,0.4464,0,6,6,8,1,1,3,1 | 3,2,1.4111,1.9756,congruent,right,,,,,,stimulusFile/magnitude.xlsx,,,,,,,,,,,,,,,,,,,,,,,,,,,,,,,
,,,,,,,,,,,,,,,765,2022-01-21_15h07.40.837,multiplicationStroop,2021.2.3,Win32,60.20107158,,,,,left,1,0.4802,0,7,7,36,1,3,1,3 | 1,2,1.4111,1.9756,incongruent,left,,,,,,stimulusFile/magnitude.xlsx,,,,,,,,,,,,,,,,,,,,,,,,,,,,,,,
,,,,,,,,,,,,,,,765,2022-01-21_15h07.40.837,multiplicationStroop,2021.2.3,Win32,60.20107158,,,,,left,1,0.4674,0,8,8,39,1,9,7,9 | 7,2,1.4111,1.9756,incongruent,left,,,,,,stimulusFile/magnitude.xlsx,,,,,,,,,,,,,,,,,,,,,,,,,,,,,,,
,,,,,,,,,,,,,,,765,2022-01-21_15h07.40.837,multiplicationStroop,2021.2.3,Win32,60.20107158,,,,,left,1,0.4234,0,9,9,31,1,9,8,9 | 8,1,1.4111,1.9756,incongruent,left,,,,,,stimulusFile/magnitude.xlsx,,,,,,,,,,,,,,,,,,,,,,,,,,,,,,,
,,,,,,,,,,,,,,,765,2022-01-21_15h07.40.837,multiplicationStroop,2021.2.3,Win32,60.20107158,,,,,left,1,0.527,0,10,10,14,1,8,6,8 | 6,2,1.9756,1.4111,congruent,left,,,,,,stimulusFile/magnitude.xlsx,,,,,,,,,,,,,,,,,,,,,,,,,,,,,,,
,,,,,,,,,,,,,,,765,2022-01-21_15h07.40.837,multiplicationStroop,2021.2.3,Win32,60.20107158,,,,,right,1,0.386,0,11,11,56,1,1,3,1 | 3,2,1.6933,1.6933,neutral,right,,,,,,stimulusFile/magnitude.xlsx,,,,,,,,,,,,,,,,,,,,,,,,,,,,,,,
,,,,,,,,,,,,,,,765,2022-01-21_15h07.40.837,multiplicationStroop,2021.2.3,Win32,60.20107158,,,,,left,1,0.3993,0,12,12,6,1,7,6,7 | 6,1,1.9756,1.4111,congruent,left,,,,,,stimulusFile/magnitude.xlsx,,,,,,,,,,,,,,,,,,,,,,,,,,,,,,,
,,,,,,,,,,,,,,,765,2022-01-21_15h07.40.837,multiplicationStroop,2021.2.3,Win32,60.20107158,,,,,left,1,0.4577,0,13,13,71,1,9,4,9 | 4,5,1.6933,1.6933,neutral,left,,,,,,stimulusFile/magnitude.xlsx,,,,,,,,,,,,,,,,,,,,,,,,,,,,,,,
,,,,,,,,,,,,,,,765,2022-01-21_15h07.40.837,multiplicationStroop,2021.2.3,Win32,60.20107158,,,,,left,1,0.3918,0,14,14,55,1,9,8,9 | 8,1,1.6933,1.6933,neutral,left,,,,,,stimulusFile/magnitude.xlsx,,,,,,,,,,,,,,,,,,,,,,,,,,,,,,,
,,,,,,,,,,,,,,,765,2022-01-21_15h07.40.837,multiplicationStroop,2021.2.3,Win32,60.20107158,,,,,right,0,0.4991,0,15,15,28,1,2,1,2 | 1,1,1.4111,1.9756,incongruent,left,,,,,,stimulusFile/magnitude.xlsx,,,,,,,,,,,,,,,,,,,,,,,,,,,,,,,
,,,,,,,,,,,,,,,765,2022-01-21_15h07.40.837,multiplicationStroop,2021.2.3,Win32,60.20107158,,,,,left,1,0.4493,0,16,16,70,1,8,3,8 | 3,5,1.6933,1.6933,neutral,left,,,,,,stimulusFile/magnitude.xlsx,,,,,,,,,,,,,,,,,,,,,,,,,,,,,,,
,,,,,,,,,,,,,,,765,2022-01-21_15h07.40.837,multiplicationStroop,2021.2.3,Win32,60.20107158,,,,,left,1,0.8238,0,17,17,60,1,3,1,3 | 1,2,1.6933,1.6933,neutral,left,,,,,,stimulusFile/magnitude.xlsx,,,,,,,,,,,,,,,,,,,,,,,,,,,,,,,
,,,,,,,,,,,,,,,765,2022-01-21_15h07.40.837,multiplicationStroop,2021.2.3,Win32,60.20107158,,,,,left,1,0.3293,0,18,18,22,1,8,3,8 | 3,5,1.9756,1.4111,congruent,left,,,,,,stimulusFile/magnitude.xlsx,,,,,,,,,,,,,,,,,,,,,,,,,,,,,,,
,,,,,,,,,,,,,,,765,2022-01-21_15h07.40.837,multiplicationStroop,2021.2.3,Win32,60.20107158,,,,,left,0,0.3583,0,19,19,59,1,7,9,7 | 9,2,1.6933,1.6933,neutral,right,,,,,,stimulusFile/magnitude.xlsx,,,,,,,,,,,,,,,,,,,,,,,,,,,,,,,
,,,,,,,,,,,,,,,765,2022-01-21_15h07.40.837,multiplicationStroop,2021.2.3,Win32,60.20107158,,,,,left,1,0.6156,0,20,20,54,1,7,6,7 | 6,1,1.6933,1.6933,neutral,left,,,,,,stimulusFile/magnitude.xlsx,,,,,,,,,,,,,,,,,,,,,,,,,,,,,,,
,,,,,,,,,,,,,,,765,2022-01-21_15h07.40.837,multiplicationStroop,2021.2.3,Win32,60.20107158,,,,,left,1,0.4801,0,21,21,46,1,8,3,8 | 3,5,1.4111,1.9756,incongruent,left,,,,,,stimulusFile/magnitude.xlsx,,,,,,,,,,,,,,,,,,,,,,,,,,,,,,,
,,,,,,,,,,,,,,,765,2022-01-21_15h07.40.837,multiplicationStroop,2021.2.3,Win32,60.20107158,,,,,right,1,0.4991,0,22,22,35,1,7,9,7 | 9,2,1.9756,1.4111,incongruent,right,,,,,,stimulusFile/magnitude.xlsx,,,,,,,,,,,,,,,,,,,,,,,,,,,,,,,
,,,,,,,,,,,,,,,765,2022-01-21_15h07.40.837,multiplicationStroop,2021.2.3,Win32,60.20107158,,,,,right,1,0.5615,0,23,23,48,1,1,2,1 | 2,1,1.6933,1.6933,neutral,right,,,,,,stimulusFile/magnitude.xlsx,,,,,,,,,,,,,,,,,,,,,,,,,,,,,,,
,,,,,,,,,,,,,,,765,2022-01-21_15h07.40.837,multiplicationStroop,2021.2.3,Win32,60.20107158,,,,,left,1,0.3416,0,24,24,23,1,9,4,9 | 4,5,1.9756,1.4111,congruent,left,,,,,,stimulusFile/magnitude.xlsx,,,,,,,,,,,,,,,,,,,,,,,,,,,,,,,
,,,,,,,,,,,,,,,765,2022-01-21_15h07.40.837,multiplicationStroop,2021.2.3,Win32,60.20107158,,,,,left,1,0.5249,0,25,25,29,1,4,3,4 | 3,1,1.4111,1.9756,incongruent,left,,,,,,stimulusFile/magnitude.xlsx,,,,,,,,,,,,,,,,,,,,,,,,,,,,,,,
,,,,,,,,,,,,,,,765,2022-01-21_15h07.40.837,multiplicationStroop,2021.2.3,Win32,60.20107158,,,,,right,1,0.3692,0,26,26,16,1,1,6,1 | 6,5,1.4111,1.9756,congruent,right,,,,,,stimulusFile/magnitude.xlsx,,,,,,,,,,,,,,,,,,,,,,,,,,,,,,,
,,,,,,,,,,,,,,,765,2022-01-21_15h07.40.837,multiplicationStroop,2021.2.3,Win32,60.20107158,,,,,left,0,0.3463,0,27,27,51,1,8,9,8 | 9,1,1.6933,1.6933,neutral,right,,,,,,stimulusFile/magnitude.xlsx,,,,,,,,,,,,,,,,,,,,,,,,,,,,,,,
,,,,,,,,,,,,,,,765,2022-01-21_15h07.40.837,multiplicationStroop,2021.2.3,Win32,60.20107158,,,,,right,1,0.666,0,28,28,49,1,3,4,3 | 4,1,1.6933,1.6933,neutral,right,,,,,,stimulusFile/magnitude.xlsx,,,,,,,,,,,,,,,,,,,,,,,,,,,,,,,
,,,,,,,,,,,,,,,765,2022-01-21_15h07.40.837,multiplicationStroop,2021.2.3,Win32,60.20107158,,,,,left,1,0.4412,0,29,29,7,1,9,8,9 | 8,1,1.9756,1.4111,congruent,left,,,,,,stimulusFile/magnitude.xlsx,,,,,,,,,,,,,,,,,,,,,,,,,,,,,,,
,,,,,,,,,,,,,,,765,2022-01-21_15h07.40.837,multiplicationStroop,2021.2.3,Win32,60.20107158,,,,,left,1,0.4885,0,30,30,62,1,8,6,8 | 6,2,1.6933,1.6933,neutral,left,,,,,,stimulusFile/magnitude.xlsx,,,,,,,,,,,,,,,,,,,,,,,,,,,,,,,
,,,,,,,,,,,,,,,765,2022-01-21_15h07.40.837,multiplicationStroop,2021.2.3,Win32,60.20107158,,,,,left,1,0.4154,0,31,31,13,1,4,2,4 | 2,2,1.9756,1.4111,congruent,left,,,,,,stimulusFile/magnitude.xlsx,,,,,,,,,,,,,,,,,,,,,,,,,,,,,,,
,,,,,,,,,,,,,,,765,2022-01-21_15h07.40.837,multiplicationStroop,2021.2.3,Win32,60.20107158,,,,,left,1,0.4005,0,32,32,37,1,4,2,4 | 2,2,1.4111,1.9756,incongruent,left,,,,,,stimulusFile/magnitude.xlsx,,,,,,,,,,,,,,,,,,,,,,,,,,,,,,,
,,,,,,,,,,,,,,,765,2022-01-21_15h07.40.837,multiplicationStroop,2021.2.3,Win32,60.20107158,,,,,right,1,0.5212,0,33,33,18,1,3,8,3 | 8,5,1.4111,1.9756,congruent,right,,,,,,stimulusFile/magnitude.xlsx,,,,,,,,,,,,,,,,,,,,,,,,,,,,,,,
,,,,,,,,,,,,,,,765,2022-01-21_15h07.40.837,multiplicationStroop,2021.2.3,Win32,60.20107158,,,,,right,1,0.6459,0,34,34,57,1,2,4,2 | 4,2,1.6933,1.6933,neutral,right,,,,,,stimulusFile/magnitude.xlsx,,,,,,,,,,,,,,,,,,,,,,,,,,,,,,,
,,,,,,,,,,,,,,,765,2022-01-21_15h07.40.837,multiplicationStroop,2021.2.3,Win32,60.20107158,,,,,left,1,0.4253,0,35,35,63,1,9,7,9 | 7,2,1.6933,1.6933,neutral,left,,,,,,stimulusFile/magnitude.xlsx,,,,,,,,,,,,,,,,,,,,,,,,,,,,,,,
,,,,,,,,,,,,,,,765,2022-01-21_15h07.40.837,multiplicationStroop,2021.2.3,Win32,60.20107158,,,,,right,1,0.5525,0,36,36,33,1,2,4,2 | 4,2,1.9756,1.4111,incongruent,right,,,,,,stimulusFile/magnitude.xlsx,,,,,,,,,,,,,,,,,,,,,,,,,,,,,,,
,,,,,,,,,,,,,,,765,2022-01-21_15h07.40.837,multiplicationStroop,2021.2.3,Win32,60.20107158,,,,,left,1,0.4102,0,37,37,21,1,7,2,7 | 2,5,1.9756,1.4111,congruent,left,,,,,,stimulusFile/magnitude.xlsx,,,,,,,,,,,,,,,,,,,,,,,,,,,,,,,
,,,,,,,,,,,,,,,765,2022-01-21_15h07.40.837,multiplicationStroop,2021.2.3,Win32,60.20107158,,,,,right,1,0.3904,0,38,38,1,1,3,4,3 | 4,1,1.4111,1.9756,congruent,right,,,,,,stimulusFile/magnitude.xlsx,,,,,,,,,,,,,,,,,,,,,,,,,,,,,,,
,,,,,,,,,,,,,,,765,2022-01-21_15h07.40.837,multiplicationStroop,2021.2.3,Win32,60.20107158,,,,,right,1,0.5369,0,39,39,42,1,3,8,3 | 8,5,1.9756,1.4111,incongruent,right,,,,,,stimulusFile/magnitude.xlsx,,,,,,,,,,,,,,,,,,,,,,,,,,,,,,,
,,,,,,,,,,,,,,,765,2022-01-21_15h07.40.837,multiplicationStroop,2021.2.3,Win32,60.20107158,,,,,left,0,0.4589,0,40,40,32,1,1,3,1 | 3,2,1.9756,1.4111,incongruent,right,,,,,,stimulusFile/magnitude.xlsx,,,,,,,,,,,,,,,,,,,,,,,,,,,,,,,
,,,,,,,,,,,,,,,765,2022-01-21_15h07.40.837,multiplicationStroop,2021.2.3,Win32,60.20107158,,,,,left,1,0.5959,0,41,41,44,1,6,1,6 | 1,5,1.4111,1.9756,incongruent,left,,,,,,stimulusFile/magnitude.xlsx,,,,,,,,,,,,,,,,,,,,,,,,,,,,,,,
,,,,,,,,,,,,,,,765,2022-01-21_15h07.40.837,multiplicationStroop,2021.2.3,Win32,60.20107158,,,,,left,1,0.475,0,42,42,69,1,7,2,7 | 2,5,1.6933,1.6933,neutral,left,,,,,,stimulusFile/magnitude.xlsx,,,,,,,,,,,,,,,,,,,,,,,,,,,,,,,
,,,,,,,,,,,,,,,765,2022-01-21_15h07.40.837,multiplicationStroop,2021.2.3,Win32,60.20107158,,,,,right,1,0.3725,0,43,43,64,1,1,6,1 | 6,5,1.6933,1.6933,neutral,right,,,,,,stimulusFile/magnitude.xlsx,,,,,,,,,,,,,,,,,,,,,,,,,,,,,,,
,,,,,,,,,,,,,,,765,2022-01-21_15h07.40.837,multiplicationStroop,2021.2.3,Win32,60.20107158,,,,,right,1,0.5027,0,44,44,17,1,2,7,2 | 7,5,1.4111,1.9756,congruent,right,,,,,,stimulusFile/magnitude.xlsx,,,,,,,,,,,,,,,,,,,,,,,,,,,,,,,
,,,,,,,,,,,,,,,765,2022-01-21_15h07.40.837,multiplicationStroop,2021.2.3,Win32,60.20107158,,,,,right,0,0.3665,0,45,45,20,1,6,1,6 | 1,5,1.9756,1.4111,congruent,left,,,,,,stimulusFile/magnitude.xlsx,,,,,,,,,,,,,,,,,,,,,,,,,,,,,,,
,,,,,,,,,,,,,,,765,2022-01-21_15h07.40.837,multiplicationStroop,2021.2.3,Win32,60.20107158,,,,,left,1,0.592,0,46,46,4,1,2,1,2 | 1,1,1.9756,1.4111,congruent,left,,,,,,stimulusFile/magnitude.xlsx,,,,,,,,,,,,,,,,,,,,,,,,,,,,,,,
,,,,,,,,,,,,,,,765,2022-01-21_15h07.40.837,multiplicationStroop,2021.2.3,Win32,60.20107158,,,,,right,1,0.4105,0,47,47,10,1,6,8,6 | 8,2,1.4111,1.9756,congruent,right,,,,,,stimulusFile/magnitude.xlsx,,,,,,,,,,,,,,,,,,,,,,,,,,,,,,,
,,,,,,,,,,,,,,,765,2022-01-21_15h07.40.837,multiplicationStroop,2021.2.3,Win32,60.20107158,,,,,right,1,0.4761,0,48,48,0,1,1,2,1 | 2,1,1.4111,1.9756,congruent,right,,,,,,stimulusFile/magnitude.xlsx,,,,,,,,,,,,,,,,,,,,,,,,,,,,,,,
,,,,,,,,,,,,,,,765,2022-01-21_15h07.40.837,multiplicationStroop,2021.2.3,Win32,60.20107158,,,,,right,1,0.8541,0,49,49,58,1,6,8,6 | 8,2,1.6933,1.6933,neutral,right,,,,,,stimulusFile/magnitude.xlsx,,,,,,,,,,,,,,,,,,,,,,,,,,,,,,,
,,,,,,,,,,,,,,,765,2022-01-21_15h07.40.837,multiplicationStroop,2021.2.3,Win32,60.20107158,,,,,left,1,0.6999,0,50,50,61,1,4,2,4 | 2,2,1.6933,1.6933,neutral,left,,,,,,stimulusFile/magnitude.xlsx,,,,,,,,,,,,,,,,,,,,,,,,,,,,,,,
,,,,,,,,,,,,,,,765,2022-01-21_15h07.40.837,multiplicationStroop,2021.2.3,Win32,60.20107158,,,,,right,1,0.4191,0,51,51,41,1,2,7,2 | 7,5,1.9756,1.4111,incongruent,right,,,,,,stimulusFile/magnitude.xlsx,,,,,,,,,,,,,,,,,,,,,,,,,,,,,,,
,,,,,,,,,,,,,,,765,2022-01-21_15h07.40.837,multiplicationStroop,2021.2.3,Win32,60.20107158,,,,,right,1,0.6651,0,52,52,25,1,3,4,3 | 4,1,1.9756,1.4111,incongruent,right,,,,,,stimulusFile/magnitude.xlsx,,,,,,,,,,,,,,,,,,,,,,,,,,,,,,,
,,,,,,,,,,,,,,,765,2022-01-21_15h07.40.837,multiplicationStroop,2021.2.3,Win32,60.20107158,,,,,right,1,0.4432,0,53,53,11,1,7,9,7 | 9,2,1.4111,1.9756,congruent,right,,,,,,stimulusFile/magnitude.xlsx,,,,,,,,,,,,,,,,,,,,,,,,,,,,,,,
,,,,,,,,,,,,,,,765,2022-01-21_15h07.40.837,multiplicationStroop,2021.2.3,Win32,60.20107158,,,,,right,1,0.4118,0,54,54,19,1,4,9,4 | 9,5,1.4111,1.9756,congruent,right,,,,,,stimulusFile/magnitude.xlsx,,,,,,,,,,,,,,,,,,,,,,,,,,,,,,,
,,,,,,,,,,,,,,,765,2022-01-21_15h07.40.837,multiplicationStroop,2021.2.3,Win32,60.20107158,,,,,right,1,0.4664,0,55,55,65,1,2,7,2 | 7,5,1.6933,1.6933,neutral,right,,,,,,stimulusFile/magnitude.xlsx,,,,,,,,,,,,,,,,,,,,,,,,,,,,,,,
,,,,,,,,,,,,,,,765,2022-01-21_15h07.40.837,multiplicationStroop,2021.2.3,Win32,60.20107158,,,,,right,1,0.6788,0,56,56,2,1,6,7,6 | 7,1,1.4111,1.9756,congruent,right,,,,,,stimulusFile/magnitude.xlsx,,,,,,,,,,,,,,,,,,,,,,,,,,,,,,,
,,,,,,,,,,,,,,,765,2022-01-21_15h07.40.837,multiplicationStroop,2021.2.3,Win32,60.20107158,,,,,right,0,0.4608,0,57,57,30,1,7,6,7 | 6,1,1.4111,1.9756,incongruent,left,,,,,,stimulusFile/magnitude.xlsx,,,,,,,,,,,,,,,,,,,,,,,,,,,,,,,
,,,,,,,,,,,,,,,765,2022-01-21_15h07.40.837,multiplicationStroop,2021.2.3,Win32,60.20107158,,,,,left,1,0.5653,0,58,58,15,1,9,7,9 | 7,2,1.9756,1.4111,congruent,left,,,,,,stimulusFile/magnitude.xlsx,,,,,,,,,,,,,,,,,,,,,,,,,,,,,,,
,,,,,,,,,,,,,,,765,2022-01-21_15h07.40.837,multiplicationStroop,2021.2.3,Win32,60.20107158,,,,,right,1,0.7591,0,59,59,40,1,1,6,1 | 6,5,1.9756,1.4111,incongruent,right,,,,,,stimulusFile/magnitude.xlsx,,,,,,,,,,,,,,,,,,,,,,,,,,,,,,,
,,,,,,,,,,,,,,,765,2022-01-21_15h07.40.837,multiplicationStroop,2021.2.3,Win32,60.20107158,,,,,right,1,0.4682,0,60,60,43,1,4,9,4 | 9,5,1.9756,1.4111,incongruent,right,,,,,,stimulusFile/magnitude.xlsx,,,,,,,,,,,,,,,,,,,,,,,,,,,,,,,
,,,,,,,,,,,,,,,765,2022-01-21_15h07.40.837,multiplicationStroop,2021.2.3,Win32,60.20107158,,,,,right,1,0.4421,0,61,61,67,1,4,9,4 | 9,5,1.6933,1.6933,neutral,right,,,,,,stimulusFile/magnitude.xlsx,,,,,,,,,,,,,,,,,,,,,,,,,,,,,,,
,,,,,,,,,,,,,,,765,2022-01-21_15h07.40.837,multiplicationStroop,2021.2.3,Win32,60.20107158,,,,,right,1,0.4576,0,62,62,9,1,2,4,2 | 4,2,1.4111,1.9756,congruent,right,,,,,,stimulusFile/magnitude.xlsx,,,,,,,,,,,,,,,,,,,,,,,,,,,,,,,
,,,,,,,,,,,,,,,765,2022-01-21_15h07.40.837,multiplicationStroop,2021.2.3,Win32,60.20107158,,,,,left,0,0.5466,0,63,63,27,1,8,9,8 | 9,1,1.9756,1.4111,incongruent,right,,,,,,stimulusFile/magnitude.xlsx,,,,,,,,,,,,,,,,,,,,,,,,,,,,,,,
,,,,,,,,,,,,,,,765,2022-01-21_15h07.40.837,multiplicationStroop,2021.2.3,Win32,60.20107158,,,,,left,1,0.6413,0,64,64,52,1,2,1,2 | 1,1,1.6933,1.6933,neutral,left,,,,,,stimulusFile/magnitude.xlsx,,,,,,,,,,,,,,,,,,,,,,,,,,,,,,,
,,,,,,,,,,,,,,,765,2022-01-21_15h07.40.837,multiplicationStroop,2021.2.3,Win32,60.20107158,,,,,right,0,0.4419,0,65,65,45,1,7,2,7 | 2,5,1.4111,1.9756,incongruent,left,,,,,,stimulusFile/magnitude.xlsx,,,,,,,,,,,,,,,,,,,,,,,,,,,,,,,
,,,,,,,,,,,,,,,765,2022-01-21_15h07.40.837,multiplicationStroop,2021.2.3,Win32,60.20107158,,,,,right,1,0.672,0,66,66,50,1,6,7,6 | 7,1,1.6933,1.6933,neutral,right,,,,,,stimulusFile/magnitude.xlsx,,,,,,,,,,,,,,,,,,,,,,,,,,,,,,,
,,,,,,,,,,,,,,,765,2022-01-21_15h07.40.837,multiplicationStroop,2021.2.3,Win32,60.20107158,,,,,left,1,0.5077,0,67,67,68,1,6,1,6 | 1,5,1.6933,1.6933,neutral,left,,,,,,stimulusFile/magnitude.xlsx,,,,,,,,,,,,,,,,,,,,,,,,,,,,,,,
,,,,,,,,,,,,,,,765,2022-01-21_15h07.40.837,multiplicationStroop,2021.2.3,Win32,60.20107158,,,,,left,0,0.4301,0,68,68,26,1,6,7,6 | 7,1,1.9756,1.4111,incongruent,right,,,,,,stimulusFile/magnitude.xlsx,,,,,,,,,,,,,,,,,,,,,,,,,,,,,,,
,,,,,,,,,,,,,,,765,2022-01-21_15h07.40.837,multiplicationStroop,2021.2.3,Win32,60.20107158,,,,,left,1,0.5451,0,69,69,38,1,8,6,8 | 6,2,1.4111,1.9756,incongruent,left,,,,,,stimulusFile/magnitude.xlsx,,,,,,,,,,,,,,,,,,,,,,,,,,,,,,,
,,,,,,,,,,,,,,,765,2022-01-21_15h07.40.837,multiplicationStroop,2021.2.3,Win32,60.20107158,,,,,left,1,0.4496,0,70,70,5,1,4,3,4 | 3,1,1.9756,1.4111,congruent,left,,,,,,stimulusFile/magnitude.xlsx,,,,,,,,,,,,,,,,,,,,,,,,,,,,,,,
,,,,,,,,,,,,,,,765,2022-01-21_15h07.40.837,multiplicationStroop,2021.2.3,Win32,60.20107158,,,,,right,1,0.3879,0,71,71,3,1,8,9,8 | 9,1,1.4111,1.9756,congruent,right,,,,,,stimulusFile/magnitude.xlsx,,,,,,,,,,,,,,,,,,,,,,,,,,,,,,,
,,,,,,,,,,,,,,,765,2022-01-21_15h07.40.837,multiplicationStroop,2021.2.3,Win32,60.20107158,,,,,,,,,,,,,,,,,,,,,0,1,1,0,1,stimulusFile/magnitude.xlsx,NUMERICALLY larger (larger coefficient).,images/numericallyLarger.png,,,,,,,,,,,,,,,,,,,,,,,,,,,,,
,,,,,,,,,,,,,,,765,2022-01-21_15h07.40.837,multiplicationStroop,2021.2.3,Win32,60.20107158,,,,,,,,,,,,,,,,,,,,,,,,,,,,,space,6.8512,space,3.3944,15,1.7739,1,0,0,0,4,1,3,×,5,3 × 5,congruent,smallerFirst,1,2,15,,,,,,,,
,,,,,,,,,,,,,,,765,2022-01-21_15h07.40.837,multiplicationStroop,2021.2.3,Win32,60.20107158,,,,,,,,,,,,,,,,,,,,,,,,,,,,,,,,,4,1.2473,1,0,1,1,28,1,2,×,2,2 × 2,neutral,tie,2,1,4,,,,,,,,
,,,,,,,,,,,,,,,765,2022-01-21_15h07.40.837,multiplicationStroop,2021.2.3,Win32,60.20107158,,,,,,,,,,,,,,,,,,,,,,,,,,,,,,,,,12,1.1023,1,0,2,2,2,1,3,×,4,3 × 4,congruent,smallerFirst,1,2,12,,,,,,,,
,,,,,,,,,,,,,,,765,2022-01-21_15h07.40.837,multiplicationStroop,2021.2.3,Win32,60.20107158,,,,,,,,,,,,,,,,,,,,,,,,,,,,,,,,,20,1.5108,1,0,3,3,7,1,4,×,5,4 × 5,congruent,smallerFirst,1,2,20,,,,,,,,
,,,,,,,,,,,,,,,765,2022-01-21_15h07.40.837,multiplicationStroop,2021.2.3,Win32,60.20107158,,,,,,,,,,,,,,,,,,,,,,,,,,,,,,,,,18,1.3649,1,0,4,4,22,1,9,×,2,9 × 2,congruent,largerFirst,2,1,18,,,,,,,,
,,,,,,,,,,,,,,,765,2022-01-21_15h07.40.837,multiplicationStroop,2021.2.3,Win32,60.20107158,,,,,,,,,,,,,,,,,,,,,,,,,,,,,,,,,63,2.7638,1,0,5,5,21,1,9,×,7,9 × 7,congruent,largerFirst,2,1,63,,,,,,,,
,,,,,,,,,,,,,,,765,2022-01-21_15h07.40.837,multiplicationStroop,2021.2.3,Win32,60.20107158,,,,,,,,,,,,,,,,,,,,,,,,,,,,,,,,,28,1.5315,1,0,6,6,27,1,7,×,4,7 × 4,congruent,largerFirst,2,1,28,,,,,,,,
,,,,,,,,,,,,,,,765,2022-01-21_15h07.40.837,multiplicationStroop,2021.2.3,Win32,60.20107158,,,,,,,,,,,,,,,,,,,,,,,,,,,,,,,,,30,2.2979,1,0,7,7,15,1,6,×,5,6 × 5,congruent,largerFirst,2,1,30,,,,,,,,
,,,,,,,,,,,,,,,765,2022-01-21_15h07.40.837,multiplicationStroop,2021.2.3,Win32,60.20107158,,,,,,,,,,,,,,,,,,,,,,,,,,,,,,,,,36,4.2796,1,0,8,8,0,1,4,×,9,4 × 9,congruent,smallerFirst,1,2,36,,,,,,,,
,,,,,,,,,,,,,,,765,2022-01-21_15h07.40.837,multiplicationStroop,2021.2.3,Win32,60.20107158,,,,,,,,,,,,,,,,,,,,,,,,,,,,,,,,,25,1.39,1,0,9,9,31,1,5,×,5,5 × 5,neutral,tie,2,1,25,,,,,,,,
,,,,,,,,,,,,,,,765,2022-01-21_15h07.40.837,multiplicationStroop,2021.2.3,Win32,60.20107158,,,,,,,,,,,,,,,,,,,,,,,,,,,,,,,,,16,1.6986,1,0,10,10,5,1,2,×,8,2 × 8,congruent,smallerFirst,1,2,16,,,,,,,,
,,,,,,,,,,,,,,,765,2022-01-21_15h07.40.837,multiplicationStroop,2021.2.3,Win32,60.20107158,,,,,,,,,,,,,,,,,,,,,,,,,,,,,,,,,16,1.2822,1,0,11,11,30,1,4,×,4,4 × 4,neutral,tie,2,1,16,,,,,,,,
,,,,,,,,,,,,,,,765,2022-01-21_15h07.40.837,multiplicationStroop,2021.2.3,Win32,60.20107158,,,,,,,,,,,,,,,,,,,,,,,,,,,,,,,,,18,3.9126,1,0,12,12,11,1,3,×,6,3 × 6,congruent,smallerFirst,1,2,18,,,,,,,,
,,,,,,,,,,,,,,,765,2022-01-21_15h07.40.837,multiplicationStroop,2021.2.3,Win32,60.20107158,,,,,,,,,,,,,,,,,,,,,,,,,,,,,,,,,72,3.8728,1,0,13,13,17,1,9,×,8,9 × 8,congruent,largerFirst,2,1,72,,,,,,,,
,,,,,,,,,,,,,,,765,2022-01-21_15h07.40.837,multiplicationStroop,2021.2.3,Win32,60.20107158,,,,,,,,,,,,,,,,,,,,,,,,,,,,,,,,,32,1.448,1,0,14,14,20,1,8,×,4,8 × 4,congruent,largerFirst,2,1,32,,,,,,,,
,,,,,,,,,,,,,,,765,2022-01-21_15h07.40.837,multiplicationStroop,2021.2.3,Win32,60.20107158,,,,,,,,,,,,,,,,,,,,,,,,,,,,,,,,,24,2.6976,1,0,15,15,10,1,3,×,8,3 × 8,congruent,smallerFirst,1,2,24,,,,,,,,
,,,,,,,,,,,,,,,765,2022-01-21_15h07.40.837,multiplicationStroop,2021.2.3,Win32,60.20107158,,,,,,,,,,,,,,,,,,,,,,,,,,,,,,,,,24,4.3056,1,0,16,16,25,1,6,×,4,6 × 4,congruent,largerFirst,2,1,24,,,,,,,,
,,,,,,,,,,,,,,,765,2022-01-21_15h07.40.837,multiplicationStroop,2021.2.3,Win32,60.20107158,,,,,,,,,,,,,,,,,,,,,,,,,,,,,,,,,48,1.9409,1,0,17,17,18,1,8,×,6,8 × 6,congruent,largerFirst,2,1,48,,,,,,,,
,,,,,,,,,,,,,,,765,2022-01-21_15h07.40.837,multiplicationStroop,2021.2.3,Win32,60.20107158,,,,,,,,,,,,,,,,,,,,,,,,,,,,,,,,,9,1.3148,1,0,18,18,29,1,3,×,3,3 × 3,neutral,tie,2,1,9,,,,,,,,
,,,,,,,,,,,,,,,765,2022-01-21_15h07.40.837,multiplicationStroop,2021.2.3,Win32,60.20107158,,,,,,,,,,,,,,,,,,,,,,,,,,,,,,,,,8,1.3311,1,0,19,19,9,1,2,×,4,2 × 4,congruent,smallerFirst,1,2,8,,,,,,,,
,,,,,,,,,,,,,,,765,2022-01-21_15h07.40.837,multiplicationStroop,2021.2.3,Win32,60.20107158,,,,,,,,,,,,,,,,,,,,,,,,,,,,,,,,,14,1.3653,1,0,20,20,14,1,7,×,2,7 × 2,congruent,largerFirst,2,1,14,,,,,,,,
,,,,,,,,,,,,,,,765,2022-01-21_15h07.40.837,multiplicationStroop,2021.2.3,Win32,60.20107158,,,,,,,,,,,,,,,,,,,,,,,,,,,,,,,,,81,1.6818,1,0,21,21,35,1,9,×,9,9 × 9,neutral,tie,2,1,81,,,,,,,,
,,,,,,,,,,,,,,,765,2022-01-21_15h07.40.837,multiplicationStroop,2021.2.3,Win32,60.20107158,,,,,,,,,,,,,,,,,,,,,,,,,,,,,,,,,6,1.3479,1,0,22,22,13,1,2,×,3,2 × 3,congruent,smallerFirst,1,2,6,,,,,,,,
,,,,,,,,,,,,,,,765,2022-01-21_15h07.40.837,multiplicationStroop,2021.2.3,Win32,60.20107158,,,,,,,,,,,,,,,,,,,,,,,,,,,,,,,,,27,3.6968,1,0,23,23,26,1,9,×,3,9 × 3,congruent,largerFirst,2,1,27,,,,,,,,
,,,,,,,,,,,,,,,765,2022-01-21_15h07.40.837,multiplicationStroop,2021.2.3,Win32,60.20107158,,,,,,,,,,,,,,,,,,,,,,,,,,,,,,,,,35,1.4902,1,0,24,24,1,1,5,×,7,5 × 7,congruent,smallerFirst,1,2,35,,,,,,,,
,,,,,,,,,,,,,,,765,2022-01-21_15h07.40.837,multiplicationStroop,2021.2.3,Win32,60.20107158,,,,,,,,,,,,,,,,,,,,,,,,,,,,,,,,,40,1.5816,1,0,25,25,6,1,5,×,8,5 × 8,congruent,smallerFirst,1,2,40,,,,,,,,
,,,,,,,,,,,,,,,765,2022-01-21_15h07.40.837,multiplicationStroop,2021.2.3,Win32,60.20107158,,,,,,,,,,,,,,,,,,,,,,,,,,,,,,,,,45,1.2478,1,0,26,26,23,1,9,×,5,9 × 5,congruent,largerFirst,2,1,45,,,,,,,,
,,,,,,,,,,,,,,,765,2022-01-21_15h07.40.837,multiplicationStroop,2021.2.3,Win32,60.20107158,,,,,,,,,,,,,,,,,,,,,,,,,,,,,,,,,21,1.2983,1,0,27,27,16,1,7,×,3,7 × 3,congruent,largerFirst,2,1,21,,,,,,,,
,,,,,,,,,,,,,,,765,2022-01-21_15h07.40.837,multiplicationStroop,2021.2.3,Win32,60.20107158,,,,,,,,,,,,,,,,,,,,,,,,,,,,,,,,,5,2.4811,0,0,28,28,8,1,7,×,8,7 × 8,congruent,smallerFirst,1,2,56,,,,,,,,
,,,,,,,,,,,,,,,765,2022-01-21_15h07.40.837,multiplicationStroop,2021.2.3,Win32,60.20107158,,,,,,,,,,,,,,,,,,,,,,,,,,,,,,,,,10,1.3819,1,0,29,29,24,1,5,×,2,5 × 2,congruent,largerFirst,2,1,10,,,,,,,,
,,,,,,,,,,,,,,,765,2022-01-21_15h07.40.837,multiplicationStroop,2021.2.3,Win32,60.20107158,,,,,,,,,,,,,,,,,,,,,,,,,,,,,,,,,64,2.381,1,0,30,30,34,1,8,×,8,8 × 8,neutral,tie,2,1,64,,,,,,,,
,,,,,,,,,,,,,,,765,2022-01-21_15h07.40.837,multiplicationStroop,2021.2.3,Win32,60.20107158,,,,,,,,,,,,,,,,,,,,,,,,,,,,,,,,,54,1.8646,1,0,31,31,12,1,6,×,9,6 × 9,congruent,smallerFirst,1,2,54,,,,,,,,
,,,,,,,,,,,,,,,765,2022-01-21_15h07.40.837,multiplicationStroop,2021.2.3,Win32,60.20107158,,,,,,,,,,,,,,,,,,,,,,,,,,,,,,,,,36,1.6816,1,0,32,32,32,1,6,×,6,6 × 6,neutral,tie,2,1,36,,,,,,,,
,,,,,,,,,,,,,,,765,2022-01-21_15h07.40.837,multiplicationStroop,2021.2.3,Win32,60.20107158,,,,,,,,,,,,,,,,,,,,,,,,,,,,,,,,,12,1.096,1,0,33,33,19,1,6,×,2,6 × 2,congruent,largerFirst,2,1,12,,,,,,,,
,,,,,,,,,,,,,,,765,2022-01-21_15h07.40.837,multiplicationStroop,2021.2.3,Win32,60.20107158,,,,,,,,,,,,,,,,,,,,,,,,,,,,,,,,,49,1.5318,1,0,34,34,33,1,7,×,7,7 × 7,neutral,tie,2,1,49,,,,,,,,
,,,,,,,,,,,,,,,765,2022-01-21_15h07.40.837,multiplicationStroop,2021.2.3,Win32,60.20107158,,,,,,,,,,,,,,,,,,,,,,,,,,,,,,,,,42,2.2976,1,0,35,35,3,1,6,×,7,6 × 7,congruent,smallerFirst,1,2,42,,,,,,,,
,,,,,,,,,,,,,,,765,2022-01-21_15h07.40.837,multiplicationStroop,2021.2.3,Win32,60.20107158,,,,,,,,,,,,,,,,,,,,,,,,,,,,,,,,,,,,,,,,,,,,,,,,,,0,0,0,2,1,stimulusFile/mult_blk3_congruent.xlsx,,
,,,,,,,,,,,,,,,765,2022-01-21_15h07.40.837,multiplicationStroop,2021.2.3,Win32,60.20107158,,,,,,,,,,,,,,,,,,,,,,,,,,,,,,,space,5.5836,16,1.5631,1,0,0,0,30,1,4,×,4,4 × 4,neutral,tie,1.5,1.5,16,,,,,,,,
,,,,,,,,,,,,,,,765,2022-01-21_15h07.40.837,multiplicationStroop,2021.2.3,Win32,60.20107158,,,,,,,,,,,,,,,,,,,,,,,,,,,,,,,,,27,2.5143,0,0,1,1,8,1,3,×,8,3 × 8,neutral,smallerFirst,1.5,1.5,24,,,,,,,,
,,,,,,,,,,,,,,,765,2022-01-21_15h07.40.837,multiplicationStroop,2021.2.3,Win32,60.20107158,,,,,,,,,,,,,,,,,,,,,,,,,,,,,,,,,9,1.8487,1,0,2,2,29,1,3,×,3,3 × 3,neutral,tie,1.5,1.5,9,,,,,,,,
,,,,,,,,,,,,,,,765,2022-01-21_15h07.40.837,multiplicationStroop,2021.2.3,Win32,60.20107158,,,,,,,,,,,,,,,,,,,,,,,,,,,,,,,,,28,1.731,1,0,3,3,3,1,4,×,7,4 × 7,neutral,smallerFirst,1.5,1.5,28,,,,,,,,
,,,,,,,,,,,,,,,765,2022-01-21_15h07.40.837,multiplicationStroop,2021.2.3,Win32,60.20107158,,,,,,,,,,,,,,,,,,,,,,,,,,,,,,,,,20,1.4487,1,0,4,4,6,1,4,×,5,4 × 5,neutral,smallerFirst,1.5,1.5,20,,,,,,,,
,,,,,,,,,,,,,,,765,2022-01-21_15h07.40.837,multiplicationStroop,2021.2.3,Win32,60.20107158,,,,,,,,,,,,,,,,,,,,,,,,,,,,,,,,,10,1.3149,1,0,5,5,18,1,5,×,2,5 × 2,neutral,largerFirst,1.5,1.5,10,,,,,,,,
,,,,,,,,,,,,,,,765,2022-01-21_15h07.40.837,multiplicationStroop,2021.2.3,Win32,60.20107158,,,,,,,,,,,,,,,,,,,,,,,,,,,,,,,,,48,1.815,1,0,6,6,1,1,6,×,8,6 × 8,neutral,smallerFirst,1.5,1.5,48,,,,,,,,
,,,,,,,,,,,,,,,765,2022-01-21_15h07.40.837,multiplicationStroop,2021.2.3,Win32,60.20107158,,,,,,,,,,,,,,,,,,,,,,,,,,,,,,,,,4,1.1488,1,0,7,7,28,1,2,×,2,2 × 2,neutral,tie,1.5,1.5,4,,,,,,,,
,,,,,,,,,,,,,,,765,2022-01-21_15h07.40.837,multiplicationStroop,2021.2.3,Win32,60.20107158,,,,,,,,,,,,,,,,,,,,,,,,,,,,,,,,,6,1.3485,1,0,8,8,12,1,2,×,3,2 × 3,neutral,smallerFirst,1.5,1.5,6,,,,,,,,
,,,,,,,,,,,,,,,765,2022-01-21_15h07.40.837,multiplicationStroop,2021.2.3,Win32,60.20107158,,,,,,,,,,,,,,,,,,,,,,,,,,,,,,,,,12,1.1324,1,0,9,9,7,1,3,×,4,3 × 4,neutral,smallerFirst,1.5,1.5,12,,,,,,,,
,,,,,,,,,,,,,,,765,2022-01-21_15h07.40.837,multiplicationStroop,2021.2.3,Win32,60.20107158,,,,,,,,,,,,,,,,,,,,,,,,,,,,,,,,,54,1.6151,1,0,10,10,21,1,9,×,6,9 × 6,neutral,largerFirst,1.5,1.5,54,,,,,,,,
,,,,,,,,,,,,,,,765,2022-01-21_15h07.40.837,multiplicationStroop,2021.2.3,Win32,60.20107158,,,,,,,,,,,,,,,,,,,,,,,,,,,,,,,,,81,2.1149,1,0,11,11,35,1,9,×,9,9 × 9,neutral,tie,1.5,1.5,81,,,,,,,,
,,,,,,,,,,,,,,,765,2022-01-21_15h07.40.837,multiplicationStroop,2021.2.3,Win32,60.20107158,,,,,,,,,,,,,,,,,,,,,,,,,,,,,,,,,30,1.9978,1,0,12,12,5,1,5,×,6,5 × 6,neutral,smallerFirst,1.5,1.5,30,,,,,,,,
,,,,,,,,,,,,,,,765,2022-01-21_15h07.40.837,multiplicationStroop,2021.2.3,Win32,60.20107158,,,,,,,,,,,,,,,,,,,,,,,,,,,,,,,,,8,1.2984,1,0,13,13,17,1,4,×,2,4 × 2,neutral,largerFirst,1.5,1.5,8,,,,,,,,
,,,,,,,,,,,,,,,765,2022-01-21_15h07.40.837,multiplicationStroop,2021.2.3,Win32,60.20107158,,,,,,,,,,,,,,,,,,,,,,,,,,,,,,,,,64,1.9316,1,0,14,14,34,1,8,×,8,8 × 8,neutral,tie,1.5,1.5,64,,,,,,,,
,,,,,,,,,,,,,,,765,2022-01-21_15h07.40.837,multiplicationStroop,2021.2.3,Win32,60.20107158,,,,,,,,,,,,,,,,,,,,,,,,,,,,,,,,,56,1.7154,1,0,15,15,23,1,8,×,7,8 × 7,neutral,largerFirst,1.5,1.5,56,,,,,,,,
,,,,,,,,,,,,,,,765,2022-01-21_15h07.40.837,multiplicationStroop,2021.2.3,Win32,60.20107158,,,,,,,,,,,,,,,,,,,,,,,,,,,,,,,,,25,1.2313,1,0,16,16,31,1,5,×,5,5 × 5,neutral,tie,1.5,1.5,25,,,,,,,,
,,,,,,,,,,,,,,,765,2022-01-21_15h07.40.837,multiplicationStroop,2021.2.3,Win32,60.20107158,,,,,,,,,,,,,,,,,,,,,,,,,,,,,,,,,1,1.6819,0,0,17,17,27,1,8,×,2,8 × 2,neutral,largerFirst,1.5,1.5,16,,,,,,,,
,,,,,,,,,,,,,,,765,2022-01-21_15h07.40.837,multiplicationStroop,2021.2.3,Win32,60.20107158,,,,,,,,,,,,,,,,,,,,,,,,,,,,,,,,,36,3.3975,1,0,18,18,13,1,4,×,9,4 × 9,neutral,smallerFirst,1.5,1.5,36,,,,,,,,
,,,,,,,,,,,,,,,765,2022-01-21_15h07.40.837,multiplicationStroop,2021.2.3,Win32,60.20107158,,,,,,,,,,,,,,,,,,,,,,,,,,,,,,,,,18,1.3316,1,0,19,19,4,1,2,×,9,2 × 9,neutral,smallerFirst,1.5,1.5,18,,,,,,,,
,,,,,,,,,,,,,,,765,2022-01-21_15h07.40.837,multiplicationStroop,2021.2.3,Win32,60.20107158,,,,,,,,,,,,,,,,,,,,,,,,,,,,,,,,,14,1.2985,1,0,20,20,2,1,2,×,7,2 × 7,neutral,smallerFirst,1.5,1.5,14,,,,,,,,
,,,,,,,,,,,,,,,765,2022-01-21_15h07.40.837,multiplicationStroop,2021.2.3,Win32,60.20107158,,,,,,,,,,,,,,,,,,,,,,,,,,,,,,,,,49,1.5816,1,0,21,21,33,1,7,×,7,7 × 7,neutral,tie,1.5,1.5,49,,,,,,,,
,,,,,,,,,,,,,,,765,2022-01-21_15h07.40.837,multiplicationStroop,2021.2.3,Win32,60.20107158,,,,,,,,,,,,,,,,,,,,,,,,,,,,,,,,,32,2.3481,1,0,22,22,9,1,4,×,8,4 × 8,neutral,smallerFirst,1.5,1.5,32,,,,,,,,
,,,,,,,,,,,,,,,765,2022-01-21_15h07.40.837,multiplicationStroop,2021.2.3,Win32,60.20107158,,,,,,,,,,,,,,,,,,,,,,,,,,,,,,,,,35,1.2986,1,0,23,23,15,1,7,×,5,7 × 5,neutral,largerFirst,1.5,1.5,35,,,,,,,,
,,,,,,,,,,,,,,,765,2022-01-21_15h07.40.837,multiplicationStroop,2021.2.3,Win32,60.20107158,,,,,,,,,,,,,,,,,,,,,,,,,,,,,,,,,18,1.5149,1,0,24,24,14,1,6,×,3,6 × 3,neutral,largerFirst,1.5,1.5,18,,,,,,,,
,,,,,,,,,,,,,,,765,2022-01-21_15h07.40.837,multiplicationStroop,2021.2.3,Win32,60.20107158,,,,,,,,,,,,,,,,,,,,,,,,,,,,,,,,,45,2.6975,1,0,25,25,24,1,9,×,5,9 × 5,neutral,largerFirst,1.5,1.5,45,,,,,,,,
,,,,,,,,,,,,,,,765,2022-01-21_15h07.40.837,multiplicationStroop,2021.2.3,Win32,60.20107158,,,,,,,,,,,,,,,,,,,,,,,,,,,,,,,,,12,1.7984,1,0,26,26,11,1,2,×,6,2 × 6,neutral,smallerFirst,1.5,1.5,12,,,,,,,,
,,,,,,,,,,,,,,,765,2022-01-21_15h07.40.837,multiplicationStroop,2021.2.3,Win32,60.20107158,,,,,,,,,,,,,,,,,,,,,,,,,,,,,,,,,40,1.5148,1,0,27,27,10,1,5,×,8,5 × 8,neutral,smallerFirst,1.5,1.5,40,,,,,,,,
,,,,,,,,,,,,,,,765,2022-01-21_15h07.40.837,multiplicationStroop,2021.2.3,Win32,60.20107158,,,,,,,,,,,,,,,,,,,,,,,,,,,,,,,,,21,1.1819,1,0,28,28,22,1,7,×,3,7 × 3,neutral,largerFirst,1.5,1.5,21,,,,,,,,
,,,,,,,,,,,,,,,765,2022-01-21_15h07.40.837,multiplicationStroop,2021.2.3,Win32,60.20107158,,,,,,,,,,,,,,,,,,,,,,,,,,,,,,,,,27,1.6153,1,0,29,29,0,1,3,×,9,3 × 9,neutral,smallerFirst,1.5,1.5,27,,,,,,,,
,,,,,,,,,,,,,,,765,2022-01-21_15h07.40.837,multiplicationStroop,2021.2.3,Win32,60.20107158,,,,,,,,,,,,,,,,,,,,,,,,,,,,,,,,,72,2.3311,1,0,30,30,25,1,9,×,8,9 × 8,neutral,largerFirst,1.5,1.5,72,,,,,,,,
,,,,,,,,,,,,,,,765,2022-01-21_15h07.40.837,multiplicationStroop,2021.2.3,Win32,60.20107158,,,,,,,,,,,,,,,,,,,,,,,,,,,,,,,,,42,2.2816,1,0,31,31,20,1,7,×,6,7 × 6,neutral,largerFirst,1.5,1.5,42,,,,,,,,
,,,,,,,,,,,,,,,765,2022-01-21_15h07.40.837,multiplicationStroop,2021.2.3,Win32,60.20107158,,,,,,,,,,,,,,,,,,,,,,,,,,,,,,,,,15,1.7647,1,0,32,32,19,1,5,×,3,5 × 3,neutral,largerFirst,1.5,1.5,15,,,,,,,,
,,,,,,,,,,,,,,,765,2022-01-21_15h07.40.837,multiplicationStroop,2021.2.3,Win32,60.20107158,,,,,,,,,,,,,,,,,,,,,,,,,,,,,,,,,63,3.0643,1,0,33,33,26,1,9,×,7,9 × 7,neutral,largerFirst,1.5,1.5,63,,,,,,,,
,,,,,,,,,,,,,,,765,2022-01-21_15h07.40.837,multiplicationStroop,2021.2.3,Win32,60.20107158,,,,,,,,,,,,,,,,,,,,,,,,,,,,,,,,,36,1.3818,1,0,34,34,32,1,6,×,6,6 × 6,neutral,tie,1.5,1.5,36,,,,,,,,
,,,,,,,,,,,,,,,765,2022-01-21_15h07.40.837,multiplicationStroop,2021.2.3,Win32,60.20107158,,,,,,,,,,,,,,,,,,,,,,,,,,,,,,,,,24,1.8482,1,0,35,35,16,1,6,×,4,6 × 4,neutral,largerFirst,1.5,1.5,24,,,,,,,,
,,,,,,,,,,,,,,,765,2022-01-21_15h07.40.837,multiplicationStroop,2021.2.3,Win32,60.20107158,,,,,,,,,,,,,,,,,,,,,,,,,,,,,,,,,,,,,,,,,,,,,,,,,,0,1,1,0,1,stimulusFile/mult_blk1.xlsx,,
,,,,,,,,,,,,,,,765,2022-01-21_15h07.40.837,multiplicationStroop,2021.2.3,Win32,60.20107158,,,,,,,,,,,,,,,,,,,,,,,,,,,,,,,space,1.6255,45,1.4578,1,0,0,0,8,1,5,×,9,5 × 9,incongruent,smallerFirst,2,1,45,,,,,,,,
,,,,,,,,,,,,,,,765,2022-01-21_15h07.40.837,multiplicationStroop,2021.2.3,Win32,60.20107158,,,,,,,,,,,,,,,,,,,,,,,,,,,,,,,,,54,1.4858,1,0,1,1,20,1,9,×,6,9 × 6,incongruent,largerFirst,1,2,54,,,,,,,,
,,,,,,,,,,,,,,,765,2022-01-21_15h07.40.837,multiplicationStroop,2021.2.3,Win32,60.20107158,,,,,,,,,,,,,,,,,,,,,,,,,,,,,,,,,20,1.4438,1,0,2,2,13,1,4,×,5,4 × 5,incongruent,smallerFirst,2,1,20,,,,,,,,
,,,,,,,,,,,,,,,765,2022-01-21_15h07.40.837,multiplicationStroop,2021.2.3,Win32,60.20107158,,,,,,,,,,,,,,,,,,,,,,,,,,,,,,,,,9,1.2151,1,0,3,3,29,1,3,×,3,3 × 3,neutral,tie,2,1,9,,,,,,,,
,,,,,,,,,,,,,,,765,2022-01-21_15h07.40.837,multiplicationStroop,2021.2.3,Win32,60.20107158,,,,,,,,,,,,,,,,,,,,,,,,,,,,,,,,,56,2.1808,1,0,4,4,0,1,7,×,8,7 × 8,incongruent,smallerFirst,2,1,56,,,,,,,,
,,,,,,,,,,,,,,,765,2022-01-21_15h07.40.837,multiplicationStroop,2021.2.3,Win32,60.20107158,,,,,,,,,,,,,,,,,,,,,,,,,,,,,,,,,16,1.7978,1,0,5,5,9,1,2,×,8,2 × 8,incongruent,smallerFirst,2,1,16,,,,,,,,
,,,,,,,,,,,,,,,765,2022-01-21_15h07.40.837,multiplicationStroop,2021.2.3,Win32,60.20107158,,,,,,,,,,,,,,,,,,,,,,,,,,,,,,,,,36,4.0641,1,0,6,6,1,1,4,×,9,4 × 9,incongruent,smallerFirst,2,1,36,,,,,,,,
,,,,,,,,,,,,,,,765,2022-01-21_15h07.40.837,multiplicationStroop,2021.2.3,Win32,60.20107158,,,,,,,,,,,,,,,,,,,,,,,,,,,,,,,,,6,1.5083,1,0,7,7,25,1,3,×,2,3 × 2,incongruent,largerFirst,1,2,6,,,,,,,,
,,,,,,,,,,,,,,,765,2022-01-21_15h07.40.837,multiplicationStroop,2021.2.3,Win32,60.20107158,,,,,,,,,,,,,,,,,,,,,,,,,,,,,,,,,16,1.3819,1,0,8,8,30,1,4,×,4,4 × 4,neutral,tie,2,1,16,,,,,,,,
,,,,,,,,,,,,,,,765,2022-01-21_15h07.40.837,multiplicationStroop,2021.2.3,Win32,60.20107158,,,,,,,,,,,,,,,,,,,,,,,,,,,,,,,,,24,2.3478,1,0,9,9,6,1,4,×,6,4 × 6,incongruent,smallerFirst,2,1,24,,,,,,,,
,,,,,,,,,,,,,,,765,2022-01-21_15h07.40.837,multiplicationStroop,2021.2.3,Win32,60.20107158,,,,,,,,,,,,,,,,,,,,,,,,,,,,,,,,,63,2.5289,1,0,10,10,17,1,9,×,7,9 × 7,incongruent,largerFirst,1,2,63,,,,,,,,
,,,,,,,,,,,,,,,765,2022-01-21_15h07.40.837,multiplicationStroop,2021.2.3,Win32,60.20107158,,,,,,,,,,,,,,,,,,,,,,,,,,,,,,,,,4,1.0146,1,0,11,11,28,1,2,×,2,2 × 2,neutral,tie,2,1,4,,,,,,,,
,,,,,,,,,,,,,,,765,2022-01-21_15h07.40.837,multiplicationStroop,2021.2.3,Win32,60.20107158,,,,,,,,,,,,,,,,,,,,,,,,,,,,,,,,,28,1.6151,1,0,12,12,2,1,4,×,7,4 × 7,incongruent,smallerFirst,2,1,28,,,,,,,,
,,,,,,,,,,,,,,,765,2022-01-21_15h07.40.837,multiplicationStroop,2021.2.3,Win32,60.20107158,,,,,,,,,,,,,,,,,,,,,,,,,,,,,,,,,10,1.3652,1,0,13,13,7,1,2,×,5,2 × 5,incongruent,smallerFirst,2,1,10,,,,,,,,
,,,,,,,,,,,,,,,765,2022-01-21_15h07.40.837,multiplicationStroop,2021.2.3,Win32,60.20107158,,,,,,,,,,,,,,,,,,,,,,,,,,,,,,,,,48,1.548,1,0,14,14,15,1,8,×,6,8 × 6,incongruent,largerFirst,1,2,48,,,,,,,,
,,,,,,,,,,,,,,,765,2022-01-21_15h07.40.837,multiplicationStroop,2021.2.3,Win32,60.20107158,,,,,,,,,,,,,,,,,,,,,,,,,,,,,,,,,30,1.5313,1,0,15,15,11,1,5,×,6,5 × 6,incongruent,smallerFirst,2,1,30,,,,,,,,
,,,,,,,,,,,,,,,765,2022-01-21_15h07.40.837,multiplicationStroop,2021.2.3,Win32,60.20107158,,,,,,,,,,,,,,,,,,,,,,,,,,,,,,,,,42,1.8644,1,0,16,16,3,1,6,×,7,6 × 7,incongruent,smallerFirst,2,1,42,,,,,,,,
,,,,,,,,,,,,,,,765,2022-01-21_15h07.40.837,multiplicationStroop,2021.2.3,Win32,60.20107158,,,,,,,,,,,,,,,,,,,,,,,,,,,,,,,,,8,1.3821,1,0,17,17,10,1,2,×,4,2 × 4,incongruent,smallerFirst,2,1,8,,,,,,,,
,,,,,,,,,,,,,,,765,2022-01-21_15h07.40.837,multiplicationStroop,2021.2.3,Win32,60.20107158,,,,,,,,,,,,,,,,,,,,,,,,,,,,,,,,,18,1.8815,1,0,18,18,22,1,6,×,3,6 × 3,incongruent,largerFirst,1,2,18,,,,,,,,
,,,,,,,,,,,,,,,765,2022-01-21_15h07.40.837,multiplicationStroop,2021.2.3,Win32,60.20107158,,,,,,,,,,,,,,,,,,,,,,,,,,,,,,,,,40,1.7648,1,0,19,19,27,1,8,×,5,8 × 5,incongruent,largerFirst,1,2,40,,,,,,,,
,,,,,,,,,,,,,,,765,2022-01-21_15h07.40.837,multiplicationStroop,2021.2.3,Win32,60.20107158,,,,,,,,,,,,,,,,,,,,,,,,,,,,,,,,,18,2.0293,1,0,20,20,16,1,9,×,2,9 × 2,incongruent,largerFirst,1,2,18,,,,,,,,
,,,,,,,,,,,,,,,765,2022-01-21_15h07.40.837,multiplicationStroop,2021.2.3,Win32,60.20107158,,,,,,,,,,,,,,,,,,,,,,,,,,,,,,,,,49,1.5312,1,0,21,21,33,1,7,×,7,7 × 7,neutral,tie,2,1,49,,,,,,,,
,,,,,,,,,,,,,,,765,2022-01-21_15h07.40.837,multiplicationStroop,2021.2.3,Win32,60.20107158,,,,,,,,,,,,,,,,,,,,,,,,,,,,,,,,,25,1.3154,1,0,22,22,31,1,5,×,5,5 × 5,neutral,tie,2,1,25,,,,,,,,
,,,,,,,,,,,,,,,765,2022-01-21_15h07.40.837,multiplicationStroop,2021.2.3,Win32,60.20107158,,,,,,,,,,,,,,,,,,,,,,,,,,,,,,,,,21,1.3983,1,0,23,23,12,1,3,×,7,3 × 7,incongruent,smallerFirst,2,1,21,,,,,,,,
,,,,,,,,,,,,,,,765,2022-01-21_15h07.40.837,multiplicationStroop,2021.2.3,Win32,60.20107158,,,,,,,,,,,,,,,,,,,,,,,,,,,,,,,,,27,1.9982,1,0,24,24,4,1,3,×,9,3 × 9,incongruent,smallerFirst,2,1,27,,,,,,,,
,,,,,,,,,,,,,,,765,2022-01-21_15h07.40.837,multiplicationStroop,2021.2.3,Win32,60.20107158,,,,,,,,,,,,,,,,,,,,,,,,,,,,,,,,,72,2.148,1,0,25,25,14,1,9,×,8,9 × 8,incongruent,largerFirst,1,2,72,,,,,,,,
,,,,,,,,,,,,,,,765,2022-01-21_15h07.40.837,multiplicationStroop,2021.2.3,Win32,60.20107158,,,,,,,,,,,,,,,,,,,,,,,,,,,,,,,,,81,2.0312,1,0,26,26,35,1,9,×,9,9 × 9,neutral,tie,2,1,81,,,,,,,,
,,,,,,,,,,,,,,,765,2022-01-21_15h07.40.837,multiplicationStroop,2021.2.3,Win32,60.20107158,,,,,,,,,,,,,,,,,,,,,,,,,,,,,,,,,32,1.6485,1,0,27,27,21,1,8,×,4,8 × 4,incongruent,largerFirst,1,2,32,,,,,,,,
,,,,,,,,,,,,,,,765,2022-01-21_15h07.40.837,multiplicationStroop,2021.2.3,Win32,60.20107158,,,,,,,,,,,,,,,,,,,,,,,,,,,,,,,,,35,1.282,1,0,28,28,26,1,7,×,5,7 × 5,incongruent,largerFirst,1,2,35,,,,,,,,
,,,,,,,,,,,,,,,765,2022-01-21_15h07.40.837,multiplicationStroop,2021.2.3,Win32,60.20107158,,,,,,,,,,,,,,,,,,,,,,,,,,,,,,,,,36,1.5316,1,0,29,29,32,1,6,×,6,6 × 6,neutral,tie,2,1,36,,,,,,,,
,,,,,,,,,,,,,,,765,2022-01-21_15h07.40.837,multiplicationStroop,2021.2.3,Win32,60.20107158,,,,,,,,,,,,,,,,,,,,,,,,,,,,,,,,,14,1.3146,1,0,30,30,18,1,7,×,2,7 × 2,incongruent,largerFirst,1,2,14,,,,,,,,
,,,,,,,,,,,,,,,765,2022-01-21_15h07.40.837,multiplicationStroop,2021.2.3,Win32,60.20107158,,,,,,,,,,,,,,,,,,,,,,,,,,,,,,,,,15,1.315,1,0,31,31,24,1,5,×,3,5 × 3,incongruent,largerFirst,1,2,15,,,,,,,,
,,,,,,,,,,,,,,,765,2022-01-21_15h07.40.837,multiplicationStroop,2021.2.3,Win32,60.20107158,,,,,,,,,,,,,,,,,,,,,,,,,,,,,,,,,12,1.7812,1,0,32,32,5,1,2,×,6,2 × 6,incongruent,smallerFirst,2,1,12,,,,,,,,
,,,,,,,,,,,,,,,765,2022-01-21_15h07.40.837,multiplicationStroop,2021.2.3,Win32,60.20107158,,,,,,,,,,,,,,,,,,,,,,,,,,,,,,,,,12,1.3316,1,0,33,33,19,1,4,×,3,4 × 3,incongruent,largerFirst,1,2,12,,,,,,,,
,,,,,,,,,,,,,,,765,2022-01-21_15h07.40.837,multiplicationStroop,2021.2.3,Win32,60.20107158,,,,,,,,,,,,,,,,,,,,,,,,,,,,,,,,,24,1.6984,1,0,34,34,23,1,8,×,3,8 × 3,incongruent,largerFirst,1,2,24,,,,,,,,
,,,,,,,,,,,,,,,765,2022-01-21_15h07.40.837,multiplicationStroop,2021.2.3,Win32,60.20107158,,,,,,,,,,,,,,,,,,,,,,,,,,,,,,,,,64,2.1143,1,0,35,35,34,1,8,×,8,8 × 8,neutral,tie,2,1,64,,,,,,,,
,,,,,,,,,,,,,,,765,2022-01-21_15h07.40.837,multiplicationStroop,2021.2.3,Win32,60.20107158,,,,,,,,,,,,,,,,,,,,,,,,,,,,,,,,,,,,,,,,,,,,,,,,,,0,2,2,4,1,stimulusFile/mult_blk5_INcongruent.xlsx,,
,,,,,,,,,,,,,,,765,2022-01-21_15h07.40.837,multiplicationStroop,2021.2.3,Win32,60.20107158,,,,,,,,,,,,,,,,,,,,,,,,,,,,,,,space,1.0844,18,2.038,0,0,0,0,17,1,7,×,4,7 × 4,neutral,largerFirst,1.5,1.5,28,,,,,,,,
,,,,,,,,,,,,,,,765,2022-01-21_15h07.40.837,multiplicationStroop,2021.2.3,Win32,60.20107158,,,,,,,,,,,,,,,,,,,,,,,,,,,,,,,,,81,3.0142,1,0,1,1,35,1,9,×,9,9 × 9,neutral,tie,1.5,1.5,81,,,,,,,,
,,,,,,,,,,,,,,,765,2022-01-21_15h07.40.837,multiplicationStroop,2021.2.3,Win32,60.20107158,,,,,,,,,,,,,,,,,,,,,,,,,,,,,,,,,42,2.5895,1,0,2,2,6,1,6,×,7,6 × 7,neutral,smallerFirst,1.5,1.5,42,,,,,,,,
,,,,,,,,,,,,,,,765,2022-01-21_15h07.40.837,multiplicationStroop,2021.2.3,Win32,60.20107158,,,,,,,,,,,,,,,,,,,,,,,,,,,,,,,,,14,1.2988,1,0,3,3,16,1,7,×,2,7 × 2,neutral,largerFirst,1.5,1.5,14,,,,,,,,
,,,,,,,,,,,,,,,765,2022-01-21_15h07.40.837,multiplicationStroop,2021.2.3,Win32,60.20107158,,,,,,,,,,,,,,,,,,,,,,,,,,,,,,,,,35,1.2653,1,0,4,4,1,1,5,×,7,5 × 7,neutral,smallerFirst,1.5,1.5,35,,,,,,,,
,,,,,,,,,,,,,,,765,2022-01-21_15h07.40.837,multiplicationStroop,2021.2.3,Win32,60.20107158,,,,,,,,,,,,,,,,,,,,,,,,,,,,,,,,,45,1.4487,0,0,5,5,24,1,8,×,5,8 × 5,neutral,largerFirst,1.5,1.5,40,,,,,,,,
,,,,,,,,,,,,,,,765,2022-01-21_15h07.40.837,multiplicationStroop,2021.2.3,Win32,60.20107158,,,,,,,,,,,,,,,,,,,,,,,,,,,,,,,,,49,2.3144,1,0,6,6,33,1,7,×,7,7 × 7,neutral,tie,1.5,1.5,49,,,,,,,,
,,,,,,,,,,,,,,,765,2022-01-21_15h07.40.837,multiplicationStroop,2021.2.3,Win32,60.20107158,,,,,,,,,,,,,,,,,,,,,,,,,,,,,,,,,72,3.1144,1,0,7,7,11,1,8,×,9,8 × 9,neutral,smallerFirst,1.5,1.5,72,,,,,,,,
,,,,,,,,,,,,,,,765,2022-01-21_15h07.40.837,multiplicationStroop,2021.2.3,Win32,60.20107158,,,,,,,,,,,,,,,,,,,,,,,,,,,,,,,,,36,2.1575,1,0,8,8,27,1,9,×,4,9 × 4,neutral,largerFirst,1.5,1.5,36,,,,,,,,
,,,,,,,,,,,,,,,765,2022-01-21_15h07.40.837,multiplicationStroop,2021.2.3,Win32,60.20107158,,,,,,,,,,,,,,,,,,,,,,,,,,,,,,,,,54,1.5487,1,0,9,9,7,1,6,×,9,6 × 9,neutral,smallerFirst,1.5,1.5,54,,,,,,,,
,,,,,,,,,,,,,,,765,2022-01-21_15h07.40.837,multiplicationStroop,2021.2.3,Win32,60.20107158,,,,,,,,,,,,,,,,,,,,,,,,,,,,,,,,,20,1.4315,1,0,10,10,20,1,5,×,4,5 × 4,neutral,largerFirst,1.5,1.5,20,,,,,,,,
,,,,,,,,,,,,,,,765,2022-01-21_15h07.40.837,multiplicationStroop,2021.2.3,Win32,60.20107158,,,,,,,,,,,,,,,,,,,,,,,,,,,,,,,,,56,2.2478,1,0,11,11,9,1,7,×,8,7 × 8,neutral,smallerFirst,1.5,1.5,56,,,,,,,,
,,,,,,,,,,,,,,,765,2022-01-21_15h07.40.837,multiplicationStroop,2021.2.3,Win32,60.20107158,,,,,,,,,,,,,,,,,,,,,,,,,,,,,,,,,12,1.1485,1,0,12,12,25,1,6,×,2,6 × 2,neutral,largerFirst,1.5,1.5,12,,,,,,,,
,,,,,,,,,,,,,,,765,2022-01-21_15h07.40.837,multiplicationStroop,2021.2.3,Win32,60.20107158,,,,,,,,,,,,,,,,,,,,,,,,,,,,,,,,,1,1.3987,0,0,13,13,18,1,9,×,2,9 × 2,neutral,largerFirst,1.5,1.5,18,,,,,,,,
,,,,,,,,,,,,,,,765,2022-01-21_15h07.40.837,multiplicationStroop,2021.2.3,Win32,60.20107158,,,,,,,,,,,,,,,,,,,,,,,,,,,,,,,,,36,2.4474,1,0,14,14,32,1,6,×,6,6 × 6,neutral,tie,1.5,1.5,36,,,,,,,,
,,,,,,,,,,,,,,,765,2022-01-21_15h07.40.837,multiplicationStroop,2021.2.3,Win32,60.20107158,,,,,,,,,,,,,,,,,,,,,,,,,,,,,,,,,32,1.5485,1,0,15,15,23,1,8,×,4,8 × 4,neutral,largerFirst,1.5,1.5,32,,,,,,,,
,,,,,,,,,,,,,,,765,2022-01-21_15h07.40.837,multiplicationStroop,2021.2.3,Win32,60.20107158,,,,,,,,,,,,,,,,,,,,,,,,,,,,,,,,,16,1.6794,1,0,16,16,30,1,4,×,4,4 × 4,neutral,tie,1.5,1.5,16,,,,,,,,
,,,,,,,,,,,,,,,765,2022-01-21_15h07.40.837,multiplicationStroop,2021.2.3,Win32,60.20107158,,,,,,,,,,,,,,,,,,,,,,,,,,,,,,,,,15,1.2652,1,0,17,17,5,1,3,×,5,3 × 5,neutral,smallerFirst,1.5,1.5,15,,,,,,,,
,,,,,,,,,,,,,,,765,2022-01-21_15h07.40.837,multiplicationStroop,2021.2.3,Win32,60.20107158,,,,,,,,,,,,,,,,,,,,,,,,,,,,,,,,,24,1.7814,1,0,18,18,2,1,4,×,6,4 × 6,neutral,smallerFirst,1.5,1.5,24,,,,,,,,
,,,,,,,,,,,,,,,765,2022-01-21_15h07.40.837,multiplicationStroop,2021.2.3,Win32,60.20107158,,,,,,,,,,,,,,,,,,,,,,,,,,,,,,,,,18,3.2645,1,0,19,19,0,1,3,×,6,3 × 6,neutral,smallerFirst,1.5,1.5,18,,,,,,,,
,,,,,,,,,,,,,,,765,2022-01-21_15h07.40.837,multiplicationStroop,2021.2.3,Win32,60.20107158,,,,,,,,,,,,,,,,,,,,,,,,,,,,,,,,,63,2.8404,1,0,20,20,12,1,7,×,9,7 × 9,neutral,smallerFirst,1.5,1.5,63,,,,,,,,
,,,,,,,,,,,,,,,765,2022-01-21_15h07.40.837,multiplicationStroop,2021.2.3,Win32,60.20107158,,,,,,,,,,,,,,,,,,,,,,,,,,,,,,,,,25,1.3485,1,0,21,21,31,1,5,×,5,5 × 5,neutral,tie,1.5,1.5,25,,,,,,,,
,,,,,,,,,,,,,,,765,2022-01-21_15h07.40.837,multiplicationStroop,2021.2.3,Win32,60.20107158,,,,,,,,,,,,,,,,,,,,,,,,,,,,,,,,,24,1.865,1,0,22,22,22,1,8,×,3,8 × 3,neutral,largerFirst,1.5,1.5,24,,,,,,,,
,,,,,,,,,,,,,,,765,2022-01-21_15h07.40.837,multiplicationStroop,2021.2.3,Win32,60.20107158,,,,,,,,,,,,,,,,,,,,,,,,,,,,,,,,,4,1.1154,1,0,23,23,28,1,2,×,2,2 × 2,neutral,tie,1.5,1.5,4,,,,,,,,
,,,,,,,,,,,,,,,765,2022-01-21_15h07.40.837,multiplicationStroop,2021.2.3,Win32,60.20107158,,,,,,,,,,,,,,,,,,,,,,,,,,,,,,,,,8,1.3321,1,0,24,24,3,1,2,×,4,2 × 4,neutral,smallerFirst,1.5,1.5,8,,,,,,,,
,,,,,,,,,,,,,,,765,2022-01-21_15h07.40.837,multiplicationStroop,2021.2.3,Win32,60.20107158,,,,,,,,,,,,,,,,,,,,,,,,,,,,,,,,,45,1.3146,1,0,25,25,10,1,5,×,9,5 × 9,neutral,smallerFirst,1.5,1.5,45,,,,,,,,
,,,,,,,,,,,,,,,765,2022-01-21_15h07.40.837,multiplicationStroop,2021.2.3,Win32,60.20107158,,,,,,,,,,,,,,,,,,,,,,,,,,,,,,,,,21,1.3483,1,0,26,26,8,1,3,×,7,3 × 7,neutral,smallerFirst,1.5,1.5,21,,,,,,,,
,,,,,,,,,,,,,,,765,2022-01-21_15h07.40.837,multiplicationStroop,2021.2.3,Win32,60.20107158,,,,,,,,,,,,,,,,,,,,,,,,,,,,,,,,,30,1.8816,1,0,27,27,19,1,6,×,5,6 × 5,neutral,largerFirst,1.5,1.5,30,,,,,,,,
,,,,,,,,,,,,,,,765,2022-01-21_15h07.40.837,multiplicationStroop,2021.2.3,Win32,60.20107158,,,,,,,,,,,,,,,,,,,,,,,,,,,,,,,,,12,1.1985,1,0,28,28,21,1,4,×,3,4 × 3,neutral,largerFirst,1.5,1.5,12,,,,,,,,
,,,,,,,,,,,,,,,765,2022-01-21_15h07.40.837,multiplicationStroop,2021.2.3,Win32,60.20107158,,,,,,,,,,,,,,,,,,,,,,,,,,,,,,,,,16,1.7151,1,0,29,29,13,1,2,×,8,2 × 8,neutral,smallerFirst,1.5,1.5,16,,,,,,,,
,,,,,,,,,,,,,,,765,2022-01-21_15h07.40.837,multiplicationStroop,2021.2.3,Win32,60.20107158,,,,,,,,,,,,,,,,,,,,,,,,,,,,,,,,,48,1.8308,1,0,30,30,15,1,8,×,6,8 × 6,neutral,largerFirst,1.5,1.5,48,,,,,,,,
,,,,,,,,,,,,,,,765,2022-01-21_15h07.40.837,multiplicationStroop,2021.2.3,Win32,60.20107158,,,,,,,,,,,,,,,,,,,,,,,,,,,,,,,,,6,1.4653,1,0,31,31,26,1,3,×,2,3 × 2,neutral,largerFirst,1.5,1.5,6,,,,,,,,
,,,,,,,,,,,,,,,765,2022-01-21_15h07.40.837,multiplicationStroop,2021.2.3,Win32,60.20107158,,,,,,,,,,,,,,,,,,,,,,,,,,,,,,,,,9,1.8317,1,0,32,32,29,1,3,×,3,3 × 3,neutral,tie,1.5,1.5,9,,,,,,,,
,,,,,,,,,,,,,,,765,2022-01-21_15h07.40.837,multiplicationStroop,2021.2.3,Win32,60.20107158,,,,,,,,,,,,,,,,,,,,,,,,,,,,,,,,,10,1.4152,1,0,33,33,4,1,2,×,5,2 × 5,neutral,smallerFirst,1.5,1.5,10,,,,,,,,
,,,,,,,,,,,,,,,765,2022-01-21_15h07.40.837,multiplicationStroop,2021.2.3,Win32,60.20107158,,,,,,,,,,,,,,,,,,,,,,,,,,,,,,,,,27,3.2475,1,0,34,34,14,1,9,×,3,9 × 3,neutral,largerFirst,1.5,1.5,27,,,,,,,,
,,,,,,,,,,,,,,,765,2022-01-21_15h07.40.837,multiplicationStroop,2021.2.3,Win32,60.20107158,,,,,,,,,,,,,,,,,,,,,,,,,,,,,,,,,64,1.941,1,0,35,35,34,1,8,×,8,8 × 8,neutral,tie,1.5,1.5,64,,,,,,,,
,,,,,,,,,,,,,,,765,2022-01-21_15h07.40.837,multiplicationStroop,2021.2.3,Win32,60.20107158,,,,,,,,,,,,,,,,,,,,,,,,,,,,,,,,,,,,,,,,,,,,,,,,,,0,3,3,1,1,stimulusFile/mult_blk2.xlsx,,
,,,,,,,,,,,,,,,765,2022-01-21_15h07.40.837,multiplicationStroop,2021.2.3,Win32,60.20107158,,,,,,,,,,,,,,,,,,,,,,,,,,,,,,,space,0.7732,49,1.5266,1,0,0,0,33,1,7,×,7,7 × 7,neutral,tie,1,2,49,,,,,,,,
,,,,,,,,,,,,,,,765,2022-01-21_15h07.40.837,multiplicationStroop,2021.2.3,Win32,60.20107158,,,,,,,,,,,,,,,,,,,,,,,,,,,,,,,,,32,3.1639,0,0,1,1,14,1,9,×,4,9 × 4,congruent,largerFirst,2,1,36,,,,,,,,
,,,,,,,,,,,,,,,765,2022-01-21_15h07.40.837,multiplicationStroop,2021.2.3,Win32,60.20107158,,,,,,,,,,,,,,,,,,,,,,,,,,,,,,,,,12,1.2317,1,0,2,2,5,1,2,×,6,2 × 6,congruent,smallerFirst,1,2,12,,,,,,,,
,,,,,,,,,,,,,,,765,2022-01-21_15h07.40.837,multiplicationStroop,2021.2.3,Win32,60.20107158,,,,,,,,,,,,,,,,,,,,,,,,,,,,,,,,,20,1.3151,1,0,3,3,21,1,5,×,4,5 × 4,congruent,largerFirst,2,1,20,,,,,,,,
,,,,,,,,,,,,,,,765,2022-01-21_15h07.40.837,multiplicationStroop,2021.2.3,Win32,60.20107158,,,,,,,,,,,,,,,,,,,,,,,,,,,,,,,,,10,1.3985,1,0,4,4,10,1,2,×,5,2 × 5,congruent,smallerFirst,1,2,10,,,,,,,,
,,,,,,,,,,,,,,,765,2022-01-21_15h07.40.837,multiplicationStroop,2021.2.3,Win32,60.20107158,,,,,,,,,,,,,,,,,,,,,,,,,,,,,,,,,18,1.6315,1,0,5,5,25,1,6,×,3,6 × 3,congruent,largerFirst,2,1,18,,,,,,,,
,,,,,,,,,,,,,,,765,2022-01-21_15h07.40.837,multiplicationStroop,2021.2.3,Win32,60.20107158,,,,,,,,,,,,,,,,,,,,,,,,,,,,,,,,,35,1.3983,1,0,6,6,15,1,7,×,5,7 × 5,congruent,largerFirst,2,1,35,,,,,,,,
,,,,,,,,,,,,,,,765,2022-01-21_15h07.40.837,multiplicationStroop,2021.2.3,Win32,60.20107158,,,,,,,,,,,,,,,,,,,,,,,,,,,,,,,,,16,3.5645,1,0,7,7,30,1,4,×,4,4 × 4,neutral,tie,1,2,16,,,,,,,,
,,,,,,,,,,,,,,,765,2022-01-21_15h07.40.837,multiplicationStroop,2021.2.3,Win32,60.20107158,,,,,,,,,,,,,,,,,,,,,,,,,,,,,,,,,45,1.7073,1,0,8,8,9,1,5,×,9,5 × 9,congruent,smallerFirst,1,2,45,,,,,,,,
,,,,,,,,,,,,,,,765,2022-01-21_15h07.40.837,multiplicationStroop,2021.2.3,Win32,60.20107158,,,,,,,,,,,,,,,,,,,,,,,,,,,,,,,,,48,1.8315,1,0,9,9,4,1,6,×,8,6 × 8,congruent,smallerFirst,1,2,48,,,,,,,,
,,,,,,,,,,,,,,,765,2022-01-21_15h07.40.837,multiplicationStroop,2021.2.3,Win32,60.20107158,,,,,,,,,,,,,,,,,,,,,,,,,,,,,,,,,4,1.1819,1,0,10,10,28,1,2,×,2,2 × 2,neutral,tie,1,2,4,,,,,,,,
,,,,,,,,,,,,,,,765,2022-01-21_15h07.40.837,multiplicationStroop,2021.2.3,Win32,60.20107158,,,,,,,,,,,,,,,,,,,,,,,,,,,,,,,,,81,2.0148,1,0,11,11,35,1,9,×,9,9 × 9,neutral,tie,1,2,81,,,,,,,,
,,,,,,,,,,,,,,,765,2022-01-21_15h07.40.837,multiplicationStroop,2021.2.3,Win32,60.20107158,,,,,,,,,,,,,,,,,,,,,,,,,,,,,,,,,30,1.4149,1,0,12,12,1,1,5,×,6,5 × 6,congruent,smallerFirst,1,2,30,,,,,,,,
,,,,,,,,,,,,,,,765,2022-01-21_15h07.40.837,multiplicationStroop,2021.2.3,Win32,60.20107158,,,,,,,,,,,,,,,,,,,,,,,,,,,,,,,,,42,2.7807,1,0,13,13,17,1,7,×,6,7 × 6,congruent,largerFirst,2,1,42,,,,,,,,
,,,,,,,,,,,,,,,765,2022-01-21_15h07.40.837,multiplicationStroop,2021.2.3,Win32,60.20107158,,,,,,,,,,,,,,,,,,,,,,,,,,,,,,,,,8,1.3151,1,0,14,14,23,1,4,×,2,4 × 2,congruent,largerFirst,2,1,8,,,,,,,,
,,,,,,,,,,,,,,,765,2022-01-21_15h07.40.837,multiplicationStroop,2021.2.3,Win32,60.20107158,,,,,,,,,,,,,,,,,,,,,,,,,,,,,,,,,27,1.7984,1,0,15,15,12,1,3,×,9,3 × 9,congruent,smallerFirst,1,2,27,,,,,,,,
,,,,,,,,,,,,,,,765,2022-01-21_15h07.40.837,multiplicationStroop,2021.2.3,Win32,60.20107158,,,,,,,,,,,,,,,,,,,,,,,,,,,,,,,,,24,1.5483,1,0,16,16,24,1,8,×,3,8 × 3,congruent,largerFirst,2,1,24,,,,,,,,
,,,,,,,,,,,,,,,765,2022-01-21_15h07.40.837,multiplicationStroop,2021.2.3,Win32,60.20107158,,,,,,,,,,,,,,,,,,,,,,,,,,,,,,,,,21,1.3484,1,0,17,17,2,1,3,×,7,3 × 7,congruent,smallerFirst,1,2,21,,,,,,,,
,,,,,,,,,,,,,,,765,2022-01-21_15h07.40.837,multiplicationStroop,2021.2.3,Win32,60.20107158,,,,,,,,,,,,,,,,,,,,,,,,,,,,,,,,,14,1.315,1,0,18,18,0,1,2,×,7,2 × 7,congruent,smallerFirst,1,2,14,,,,,,,,
,,,,,,,,,,,,,,,765,2022-01-21_15h07.40.837,multiplicationStroop,2021.2.3,Win32,60.20107158,,,,,,,,,,,,,,,,,,,,,,,,,,,,,,,,,63,3.4136,1,0,19,19,7,1,7,×,9,7 × 9,congruent,smallerFirst,1,2,63,,,,,,,,
,,,,,,,,,,,,,,,765,2022-01-21_15h07.40.837,multiplicationStroop,2021.2.3,Win32,60.20107158,,,,,,,,,,,,,,,,,,,,,,,,,,,,,,,,,24,1.4308,1,0,20,20,11,1,4,×,6,4 × 6,congruent,smallerFirst,1,2,24,,,,,,,,
,,,,,,,,,,,,,,,765,2022-01-21_15h07.40.837,multiplicationStroop,2021.2.3,Win32,60.20107158,,,,,,,,,,,,,,,,,,,,,,,,,,,,,,,,,18,1.7314,1,0,21,21,8,1,2,×,9,2 × 9,congruent,smallerFirst,1,2,18,,,,,,,,
,,,,,,,,,,,,,,,765,2022-01-21_15h07.40.837,multiplicationStroop,2021.2.3,Win32,60.20107158,,,,,,,,,,,,,,,,,,,,,,,,,,,,,,,,,40,1.9146,1,0,22,22,20,1,8,×,5,8 × 5,congruent,largerFirst,2,1,40,,,,,,,,
,,,,,,,,,,,,,,,765,2022-01-21_15h07.40.837,multiplicationStroop,2021.2.3,Win32,60.20107158,,,,,,,,,,,,,,,,,,,,,,,,,,,,,,,,,56,2.3981,1,0,23,23,22,1,8,×,7,8 × 7,congruent,largerFirst,2,1,56,,,,,,,,
,,,,,,,,,,,,,,,765,2022-01-21_15h07.40.837,multiplicationStroop,2021.2.3,Win32,60.20107158,,,,,,,,,,,,,,,,,,,,,,,,,,,,,,,,,16,1.398,1,0,24,24,19,1,8,×,2,8 × 2,congruent,largerFirst,2,1,16,,,,,,,,
,,,,,,,,,,,,,,,765,2022-01-21_15h07.40.837,multiplicationStroop,2021.2.3,Win32,60.20107158,,,,,,,,,,,,,,,,,,,,,,,,,,,,,,,,,54,2.3145,1,0,25,25,26,1,9,×,6,9 × 6,congruent,largerFirst,2,1,54,,,,,,,,
,,,,,,,,,,,,,,,765,2022-01-21_15h07.40.837,multiplicationStroop,2021.2.3,Win32,60.20107158,,,,,,,,,,,,,,,,,,,,,,,,,,,,,,,,,12,1.1815,1,0,26,26,16,1,4,×,3,4 × 3,congruent,largerFirst,2,1,12,,,,,,,,
,,,,,,,,,,,,,,,765,2022-01-21_15h07.40.837,multiplicationStroop,2021.2.3,Win32,60.20107158,,,,,,,,,,,,,,,,,,,,,,,,,,,,,,,,,72,3.7644,1,0,27,27,3,1,8,×,9,8 × 9,congruent,smallerFirst,1,2,72,,,,,,,,
,,,,,,,,,,,,,,,765,2022-01-21_15h07.40.837,multiplicationStroop,2021.2.3,Win32,60.20107158,,,,,,,,,,,,,,,,,,,,,,,,,,,,,,,,,3,2.0136,0,0,28,28,6,1,4,×,8,4 × 8,congruent,smallerFirst,1,2,32,,,,,,,,
,,,,,,,,,,,,,,,765,2022-01-21_15h07.40.837,multiplicationStroop,2021.2.3,Win32,60.20107158,,,,,,,,,,,,,,,,,,,,,,,,,,,,,,,,,28,2.398,1,0,29,29,13,1,4,×,7,4 × 7,congruent,smallerFirst,1,2,28,,,,,,,,
,,,,,,,,,,,,,,,765,2022-01-21_15h07.40.837,multiplicationStroop,2021.2.3,Win32,60.20107158,,,,,,,,,,,,,,,,,,,,,,,,,,,,,,,,,25,1.3571,1,0,30,30,31,1,5,×,5,5 × 5,neutral,tie,1,2,25,,,,,,,,
,,,,,,,,,,,,,,,765,2022-01-21_15h07.40.837,multiplicationStroop,2021.2.3,Win32,60.20107158,,,,,,,,,,,,,,,,,,,,,,,,,,,,,,,,,6,1.5153,1,0,31,31,27,1,3,×,2,3 × 2,congruent,largerFirst,2,1,6,,,,,,,,
,,,,,,,,,,,,,,,765,2022-01-21_15h07.40.837,multiplicationStroop,2021.2.3,Win32,60.20107158,,,,,,,,,,,,,,,,,,,,,,,,,,,,,,,,,15,1.3317,1,0,32,32,18,1,5,×,3,5 × 3,congruent,largerFirst,2,1,15,,,,,,,,
,,,,,,,,,,,,,,,765,2022-01-21_15h07.40.837,multiplicationStroop,2021.2.3,Win32,60.20107158,,,,,,,,,,,,,,,,,,,,,,,,,,,,,,,,,36,1.6653,1,0,33,33,32,1,6,×,6,6 × 6,neutral,tie,1,2,36,,,,,,,,
,,,,,,,,,,,,,,,765,2022-01-21_15h07.40.837,multiplicationStroop,2021.2.3,Win32,60.20107158,,,,,,,,,,,,,,,,,,,,,,,,,,,,,,,,,9,1.4643,1,0,34,34,29,1,3,×,3,3 × 3,neutral,tie,1,2,9,,,,,,,,
,,,,,,,,,,,,,,,765,2022-01-21_15h07.40.837,multiplicationStroop,2021.2.3,Win32,60.20107158,,,,,,,,,,,,,,,,,,,,,,,,,,,,,,,,,64,2.1147,1,0,35,35,34,1,8,×,8,8 × 8,neutral,tie,1,2,64,,,,,,,,
,,,,,,,,,,,,,,,765,2022-01-21_15h07.40.837,multiplicationStroop,2021.2.3,Win32,60.20107158,,,,,,,,,,,,,,,,,,,,,,,,,,,,,,,,,,,,,,,,,,,,,,,,,,0,4,4,3,1,stimulusFile/mult_blk4_congruent.xlsx,,
,,,,,,,,,,,,,,,765,2022-01-21_15h07.40.837,multiplicationStroop,2021.2.3,Win32,60.20107158,,,,,,,,,,,,,,,,,,,,,,,,,,,,,,,space,1.7458,16,2.8637,1,0,0,0,23,1,8,×,2,8 × 2,incongruent,largerFirst,1,2,16,,,,,,,,
,,,,,,,,,,,,,,,765,2022-01-21_15h07.40.837,multiplicationStroop,2021.2.3,Win32,60.20107158,,,,,,,,,,,,,,,,,,,,,,,,,,,,,,,,,56,1.9235,1,0,1,1,14,1,8,×,7,8 × 7,incongruent,largerFirst,1,2,56,,,,,,,,
,,,,,,,,,,,,,,,765,2022-01-21_15h07.40.837,multiplicationStroop,2021.2.3,Win32,60.20107158,,,,,,,,,,,,,,,,,,,,,,,,,,,,,,,,,24,1.665,1,0,2,2,9,1,3,×,8,3 × 8,incongruent,smallerFirst,2,1,24,,,,,,,,
,,,,,,,,,,,,,,,765,2022-01-21_15h07.40.837,multiplicationStroop,2021.2.3,Win32,60.20107158,,,,,,,,,,,,,,,,,,,,,,,,,,,,,,,,,42,2.0477,1,0,3,3,17,1,7,×,6,7 × 6,incongruent,largerFirst,1,2,42,,,,,,,,
,,,,,,,,,,,,,,,765,2022-01-21_15h07.40.837,multiplicationStroop,2021.2.3,Win32,60.20107158,,,,,,,,,,,,,,,,,,,,,,,,,,,,,,,,,36,1.4399,1,0,4,4,32,1,6,×,6,6 × 6,incongruent,tie,1,2,36,,,,,,,,
,,,,,,,,,,,,,,,765,2022-01-21_15h07.40.837,multiplicationStroop,2021.2.3,Win32,60.20107158,,,,,,,,,,,,,,,,,,,,,,,,,,,,,,,,,40,1.4959,1,0,5,5,13,1,5,×,8,5 × 8,incongruent,smallerFirst,2,1,40,,,,,,,,
,,,,,,,,,,,,,,,765,2022-01-21_15h07.40.837,multiplicationStroop,2021.2.3,Win32,60.20107158,,,,,,,,,,,,,,,,,,,,,,,,,,,,,,,,,8,1.3322,1,0,6,6,24,1,4,×,2,4 × 2,incongruent,largerFirst,1,2,8,,,,,,,,
,,,,,,,,,,,,,,,765,2022-01-21_15h07.40.837,multiplicationStroop,2021.2.3,Win32,60.20107158,,,,,,,,,,,,,,,,,,,,,,,,,,,,,,,,,54,1.7317,1,0,7,7,6,1,6,×,9,6 × 9,incongruent,smallerFirst,2,1,54,,,,,,,,
,,,,,,,,,,,,,,,765,2022-01-21_15h07.40.837,multiplicationStroop,2021.2.3,Win32,60.20107158,,,,,,,,,,,,,,,,,,,,,,,,,,,,,,,,,24,5.4625,1,0,8,8,20,1,6,×,4,6 × 4,incongruent,largerFirst,1,2,24,,,,,,,,
,,,,,,,,,,,,,,,765,2022-01-21_15h07.40.837,multiplicationStroop,2021.2.3,Win32,60.20107158,,,,,,,,,,,,,,,,,,,,,,,,,,,,,,,,,81,1.5078,1,0,9,9,35,1,9,×,9,9 × 9,incongruent,tie,1,2,81,,,,,,,,
,,,,,,,,,,,,,,,765,2022-01-21_15h07.40.837,multiplicationStroop,2021.2.3,Win32,60.20107158,,,,,,,,,,,,,,,,,,,,,,,,,,,,,,,,,21,1.2986,1,0,10,10,26,1,7,×,3,7 × 3,incongruent,largerFirst,1,2,21,,,,,,,,
,,,,,,,,,,,,,,,765,2022-01-21_15h07.40.837,multiplicationStroop,2021.2.3,Win32,60.20107158,,,,,,,,,,,,,,,,,,,,,,,,,,,,,,,,,64,1.5317,1,0,11,11,34,1,8,×,8,8 × 8,incongruent,tie,1,2,64,,,,,,,,
,,,,,,,,,,,,,,,765,2022-01-21_15h07.40.837,multiplicationStroop,2021.2.3,Win32,60.20107158,,,,,,,,,,,,,,,,,,,,,,,,,,,,,,,,,18,2.3813,1,0,12,12,8,1,3,×,6,3 × 6,incongruent,smallerFirst,2,1,18,,,,,,,,
,,,,,,,,,,,,,,,765,2022-01-21_15h07.40.837,multiplicationStroop,2021.2.3,Win32,60.20107158,,,,,,,,,,,,,,,,,,,,,,,,,,,,,,,,,72,2.341,1,0,13,13,0,1,8,×,9,8 × 9,incongruent,smallerFirst,2,1,72,,,,,,,,
,,,,,,,,,,,,,,,765,2022-01-21_15h07.40.837,multiplicationStroop,2021.2.3,Win32,60.20107158,,,,,,,,,,,,,,,,,,,,,,,,,,,,,,,,,32,1.6987,1,0,14,14,7,1,4,×,8,4 × 8,incongruent,smallerFirst,2,1,32,,,,,,,,
,,,,,,,,,,,,,,,765,2022-01-21_15h07.40.837,multiplicationStroop,2021.2.3,Win32,60.20107158,,,,,,,,,,,,,,,,,,,,,,,,,,,,,,,,,10,1.3647,1,0,15,15,21,1,5,×,2,5 × 2,incongruent,largerFirst,1,2,10,,,,,,,,
,,,,,,,,,,,,,,,765,2022-01-21_15h07.40.837,multiplicationStroop,2021.2.3,Win32,60.20107158,,,,,,,,,,,,,,,,,,,,,,,,,,,,,,,,,6,1.2817,1,0,16,16,11,1,2,×,3,2 × 3,incongruent,smallerFirst,2,1,6,,,,,,,,
,,,,,,,,,,,,,,,765,2022-01-21_15h07.40.837,multiplicationStroop,2021.2.3,Win32,60.20107158,,,,,,,,,,,,,,,,,,,,,,,,,,,,,,,,,15,1.3816,1,0,17,17,10,1,3,×,5,3 × 5,incongruent,smallerFirst,2,1,15,,,,,,,,
,,,,,,,,,,,,,,,765,2022-01-21_15h07.40.837,multiplicationStroop,2021.2.3,Win32,60.20107158,,,,,,,,,,,,,,,,,,,,,,,,,,,,,,,,,27,3.6469,1,0,18,18,18,1,9,×,3,9 × 3,incongruent,largerFirst,1,2,27,,,,,,,,
,,,,,,,,,,,,,,,765,2022-01-21_15h07.40.837,multiplicationStroop,2021.2.3,Win32,60.20107158,,,,,,,,,,,,,,,,,,,,,,,,,,,,,,,,,30,1.4491,1,0,19,19,25,1,6,×,5,6 × 5,incongruent,largerFirst,1,2,30,,,,,,,,
,,,,,,,,,,,,,,,765,2022-01-21_15h07.40.837,multiplicationStroop,2021.2.3,Win32,60.20107158,,,,,,,,,,,,,,,,,,,,,,,,,,,,,,,,,16,1.7642,1,0,20,20,30,1,4,×,4,4 × 4,incongruent,tie,1,2,16,,,,,,,,
,,,,,,,,,,,,,,,765,2022-01-21_15h07.40.837,multiplicationStroop,2021.2.3,Win32,60.20107158,,,,,,,,,,,,,,,,,,,,,,,,,,,,,,,,,14,1.4147,1,0,21,21,4,1,2,×,7,2 × 7,incongruent,smallerFirst,2,1,14,,,,,,,,
,,,,,,,,,,,,,,,765,2022-01-21_15h07.40.837,multiplicationStroop,2021.2.3,Win32,60.20107158,,,,,,,,,,,,,,,,,,,,,,,,,,,,,,,,,28,1.515,1,0,22,22,16,1,7,×,4,7 × 4,incongruent,largerFirst,1,2,28,,,,,,,,
,,,,,,,,,,,,,,,765,2022-01-21_15h07.40.837,multiplicationStroop,2021.2.3,Win32,60.20107158,,,,,,,,,,,,,,,,,,,,,,,,,,,,,,,,,4,1.6646,1,0,23,23,28,1,2,×,2,2 × 2,incongruent,tie,1,2,4,,,,,,,,
,,,,,,,,,,,,,,,765,2022-01-21_15h07.40.837,multiplicationStroop,2021.2.3,Win32,60.20107158,,,,,,,,,,,,,,,,,,,,,,,,,,,,,,,,,18,1.3643,1,0,24,24,2,1,2,×,9,2 × 9,incongruent,smallerFirst,2,1,18,,,,,,,,
,,,,,,,,,,,,,,,765,2022-01-21_15h07.40.837,multiplicationStroop,2021.2.3,Win32,60.20107158,,,,,,,,,,,,,,,,,,,,,,,,,,,,,,,,,32,1.5983,0,0,25,25,15,1,9,×,4,9 × 4,incongruent,largerFirst,1,2,36,,,,,,,,
,,,,,,,,,,,,,,,765,2022-01-21_15h07.40.837,multiplicationStroop,2021.2.3,Win32,60.20107158,,,,,,,,,,,,,,,,,,,,,,,,,,,,,,,,,45,1.3317,1,0,26,26,22,1,9,×,5,9 × 5,incongruent,largerFirst,1,2,45,,,,,,,,
,,,,,,,,,,,,,,,765,2022-01-21_15h07.40.837,multiplicationStroop,2021.2.3,Win32,60.20107158,,,,,,,,,,,,,,,,,,,,,,,,,,,,,,,,,48,3.2648,1,0,27,27,1,1,6,×,8,6 × 8,incongruent,smallerFirst,2,1,48,,,,,,,,
,,,,,,,,,,,,,,,765,2022-01-21_15h07.40.837,multiplicationStroop,2021.2.3,Win32,60.20107158,,,,,,,,,,,,,,,,,,,,,,,,,,,,,,,,,12,1.4313,1,0,28,28,19,1,6,×,2,6 × 2,incongruent,largerFirst,1,2,12,,,,,,,,
,,,,,,,,,,,,,,,765,2022-01-21_15h07.40.837,multiplicationStroop,2021.2.3,Win32,60.20107158,,,,,,,,,,,,,,,,,,,,,,,,,,,,,,,,,54,4.9297,0,0,29,29,3,1,7,×,9,7 × 9,incongruent,smallerFirst,2,1,63,,,,,,,,
,,,,,,,,,,,,,,,765,2022-01-21_15h07.40.837,multiplicationStroop,2021.2.3,Win32,60.20107158,,,,,,,,,,,,,,,,,,,,,,,,,,,,,,,,,35,1.8247,1,0,30,30,12,1,5,×,7,5 × 7,incongruent,smallerFirst,2,1,35,,,,,,,,
,,,,,,,,,,,,,,,765,2022-01-21_15h07.40.837,multiplicationStroop,2021.2.3,Win32,60.20107158,,,,,,,,,,,,,,,,,,,,,,,,,,,,,,,,,25,1.8134,1,0,31,31,31,1,5,×,5,5 × 5,incongruent,tie,1,2,25,,,,,,,,
,,,,,,,,,,,,,,,765,2022-01-21_15h07.40.837,multiplicationStroop,2021.2.3,Win32,60.20107158,,,,,,,,,,,,,,,,,,,,,,,,,,,,,,,,,20,1.815,1,0,32,32,27,1,5,×,4,5 × 4,incongruent,largerFirst,1,2,20,,,,,,,,
,,,,,,,,,,,,,,,765,2022-01-21_15h07.40.837,multiplicationStroop,2021.2.3,Win32,60.20107158,,,,,,,,,,,,,,,,,,,,,,,,,,,,,,,,,12,1.4317,1,0,33,33,5,1,3,×,4,3 × 4,incongruent,smallerFirst,2,1,12,,,,,,,,
,,,,,,,,,,,,,,,765,2022-01-21_15h07.40.837,multiplicationStroop,2021.2.3,Win32,60.20107158,,,,,,,,,,,,,,,,,,,,,,,,,,,,,,,,,9,1.282,1,0,34,34,29,1,3,×,3,3 × 3,incongruent,tie,1,2,9,,,,,,,,
,,,,,,,,,,,,,,,765,2022-01-21_15h07.40.837,multiplicationStroop,2021.2.3,Win32,60.20107158,,,,,,,,,,,,,,,,,,,,,,,,,,,,,,,,,49,1.6153,1,0,35,35,33,1,7,×,7,7 × 7,incongruent,tie,1,2,49,,,,,,,,
,,,,,,,,,,,,,,,765,2022-01-21_15h07.40.837,multiplicationStroop,2021.2.3,Win32,60.20107158,,,,,,,,,,,,,,,,,,,,,,,,,,,,,,,,,,,,,,,,,,,,,,,,,,0,5,5,5,1,stimulusFile/mult_blk6_INcongruent.xlsx,,
,,,,,,,,,,,,,,,765,2022-01-21_15h07.40.837,multiplicationStroop,2021.2.3,Win32,60.20107158,,,,,,,,,,,,,,,,,,,,,,,,,,,,,,,,,,,,,,,,,,,,,,,,,,,,,,,,space,6.5552