welcomeKey_resp.keys,welcomeKey_resp.rt,X Scale,Y Scale,rt_resp_4.keys,rt_resp_4.corr,rt_resp_4.rt,speedtest_2.thisRepN,speedtest_2.thisTrialN,speedtest_2.thisN,speedtest_2.thisIndex,speedtest_2.ran,numberSc,posX,positionLayout,participant,date,expName,psychopyVersion,OS,frameRate,ct_instrresp.keys,ct_instrresp.rt,key_resp_2.keys,key_resp_2.rt,ct_keyResp.keys,ct_keyResp.corr,ct_keyResp.rt,trials.thisRepN,trials.thisTrialN,trials.thisN,trials.thisIndex,trials.ran,leftNo,rightNo,displayProblem,numDistance,leftNo_size,rightNo_size,Dims,keyAnswer,TS_Loop.thisRepN,TS_Loop.thisTrialN,TS_Loop.thisN,TS_Loop.thisIndex,TS_Loop.ran,Condition,ActionInst,instrImage,mltptaskInst_resp.keys,mltptaskInst_resp.rt,continue_resp_2.keys,continue_resp_2.rt,multp_Answer,multi_RT,multiplyCorr,LoopingMultiply.thisRepN,LoopingMultiply.thisTrialN,LoopingMultiply.thisN,LoopingMultiply.thisIndex,LoopingMultiply.ran,factor1,multiplySign,factor2,multliplyProblem,physicalSize,orderOperand,sizeF1,sizeF2,mult_answer,trials_stroop.thisRepN,trials_stroop.thisTrialN,trials_stroop.thisN,trials_stroop.thisIndex,trials_stroop.ran,multiplicationFile,esckey_resp_2.keys,esckey_resp_2.rt
y,5.2664,59,45.5,left,1,0.7426,0,0,0,7,1,9,-200,left,767,2022-01-19_23h16.35.249,multiplicationStroop,2021.2.3,Win32,60.22645146,,,,,,,,,,,,,,,,,,,,,,,,,,,,,,,,,,,,,,,,,,,,,,,,,,,,,,,,,
,,,,left,1,0.4009,0,1,1,0,1,1,-200,left,767,2022-01-19_23h16.35.249,multiplicationStroop,2021.2.3,Win32,60.22645146,,,,,,,,,,,,,,,,,,,,,,,,,,,,,,,,,,,,,,,,,,,,,,,,,,,,,,,,,
,,,,right,1,0.3173,0,2,2,8,1,1,200,right,767,2022-01-19_23h16.35.249,multiplicationStroop,2021.2.3,Win32,60.22645146,,,,,,,,,,,,,,,,,,,,,,,,,,,,,,,,,,,,,,,,,,,,,,,,,,,,,,,,,
,,,,left,1,0.2835,0,3,3,1,1,2,-200,left,767,2022-01-19_23h16.35.249,multiplicationStroop,2021.2.3,Win32,60.22645146,,,,,,,,,,,,,,,,,,,,,,,,,,,,,,,,,,,,,,,,,,,,,,,,,,,,,,,,,
,,,,right,1,0.2671,0,4,4,12,1,6,200,right,767,2022-01-19_23h16.35.249,multiplicationStroop,2021.2.3,Win32,60.22645146,,,,,,,,,,,,,,,,,,,,,,,,,,,,,,,,,,,,,,,,,,,,,,,,,,,,,,,,,
,,,,right,1,0.3402,0,5,5,10,1,3,200,right,767,2022-01-19_23h16.35.249,multiplicationStroop,2021.2.3,Win32,60.22645146,,,,,,,,,,,,,,,,,,,,,,,,,,,,,,,,,,,,,,,,,,,,,,,,,,,,,,,,,
,,,,right,1,0.3351,0,6,6,9,1,2,200,right,767,2022-01-19_23h16.35.249,multiplicationStroop,2021.2.3,Win32,60.22645146,,,,,,,,,,,,,,,,,,,,,,,,,,,,,,,,,,,,,,,,,,,,,,,,,,,,,,,,,
,,,,right,1,0.3398,0,7,7,14,1,8,200,right,767,2022-01-19_23h16.35.249,multiplicationStroop,2021.2.3,Win32,60.22645146,,,,,,,,,,,,,,,,,,,,,,,,,,,,,,,,,,,,,,,,,,,,,,,,,,,,,,,,,
,,,,left,1,0.2881,0,8,8,4,1,6,-200,left,767,2022-01-19_23h16.35.249,multiplicationStroop,2021.2.3,Win32,60.22645146,,,,,,,,,,,,,,,,,,,,,,,,,,,,,,,,,,,,,,,,,,,,,,,,,,,,,,,,,
,,,,left,1,0.3264,0,9,9,5,1,7,-200,left,767,2022-01-19_23h16.35.249,multiplicationStroop,2021.2.3,Win32,60.22645146,,,,,,,,,,,,,,,,,,,,,,,,,,,,,,,,,,,,,,,,,,,,,,,,,,,,,,,,,
,,,,right,1,0.291,0,10,10,11,1,4,200,right,767,2022-01-19_23h16.35.249,multiplicationStroop,2021.2.3,Win32,60.22645146,,,,,,,,,,,,,,,,,,,,,,,,,,,,,,,,,,,,,,,,,,,,,,,,,,,,,,,,,
,,,,left,1,0.2854,0,11,11,6,1,8,-200,left,767,2022-01-19_23h16.35.249,multiplicationStroop,2021.2.3,Win32,60.22645146,,,,,,,,,,,,,,,,,,,,,,,,,,,,,,,,,,,,,,,,,,,,,,,,,,,,,,,,,
,,,,right,1,0.2613,0,12,12,13,1,7,200,right,767,2022-01-19_23h16.35.249,multiplicationStroop,2021.2.3,Win32,60.22645146,,,,,,,,,,,,,,,,,,,,,,,,,,,,,,,,,,,,,,,,,,,,,,,,,,,,,,,,,
,,,,right,1,0.4074,0,13,13,15,1,9,200,right,767,2022-01-19_23h16.35.249,multiplicationStroop,2021.2.3,Win32,60.22645146,,,,,,,,,,,,,,,,,,,,,,,,,,,,,,,,,,,,,,,,,,,,,,,,,,,,,,,,,
,,,,left,1,0.2679,0,14,14,3,1,4,-200,left,767,2022-01-19_23h16.35.249,multiplicationStroop,2021.2.3,Win32,60.22645146,,,,,,,,,,,,,,,,,,,,,,,,,,,,,,,,,,,,,,,,,,,,,,,,,,,,,,,,,
,,,,left,1,0.3867,0,15,15,2,1,3,-200,left,767,2022-01-19_23h16.35.249,multiplicationStroop,2021.2.3,Win32,60.22645146,,,,,,,,,,,,,,,,,,,,,,,,,,,,,,,,,,,,,,,,,,,,,,,,,,,,,,,,,
,,,,left,1,0.3172,1,0,16,0,1,1,-200,left,767,2022-01-19_23h16.35.249,multiplicationStroop,2021.2.3,Win32,60.22645146,,,,,,,,,,,,,,,,,,,,,,,,,,,,,,,,,,,,,,,,,,,,,,,,,,,,,,,,,
,,,,right,1,0.312,1,1,17,8,1,1,200,right,767,2022-01-19_23h16.35.249,multiplicationStroop,2021.2.3,Win32,60.22645146,,,,,,,,,,,,,,,,,,,,,,,,,,,,,,,,,,,,,,,,,,,,,,,,,,,,,,,,,
,,,,right,1,0.3173,1,2,18,15,1,9,200,right,767,2022-01-19_23h16.35.249,multiplicationStroop,2021.2.3,Win32,60.22645146,,,,,,,,,,,,,,,,,,,,,,,,,,,,,,,,,,,,,,,,,,,,,,,,,,,,,,,,,
,,,,left,1,0.3078,1,3,19,2,1,3,-200,left,767,2022-01-19_23h16.35.249,multiplicationStroop,2021.2.3,Win32,60.22645146,,,,,,,,,,,,,,,,,,,,,,,,,,,,,,,,,,,,,,,,,,,,,,,,,,,,,,,,,
,,,,right,1,0.3273,1,4,20,13,1,7,200,right,767,2022-01-19_23h16.35.249,multiplicationStroop,2021.2.3,Win32,60.22645146,,,,,,,,,,,,,,,,,,,,,,,,,,,,,,,,,,,,,,,,,,,,,,,,,,,,,,,,,
,,,,left,1,0.2713,1,5,21,7,1,9,-200,left,767,2022-01-19_23h16.35.249,multiplicationStroop,2021.2.3,Win32,60.22645146,,,,,,,,,,,,,,,,,,,,,,,,,,,,,,,,,,,,,,,,,,,,,,,,,,,,,,,,,
,,,,right,1,0.2709,1,6,22,10,1,3,200,right,767,2022-01-19_23h16.35.249,multiplicationStroop,2021.2.3,Win32,60.22645146,,,,,,,,,,,,,,,,,,,,,,,,,,,,,,,,,,,,,,,,,,,,,,,,,,,,,,,,,
,,,,left,1,0.2734,1,7,23,5,1,7,-200,left,767,2022-01-19_23h16.35.249,multiplicationStroop,2021.2.3,Win32,60.22645146,,,,,,,,,,,,,,,,,,,,,,,,,,,,,,,,,,,,,,,,,,,,,,,,,,,,,,,,,
,,,,left,1,0.3839,1,8,24,4,1,6,-200,left,767,2022-01-19_23h16.35.249,multiplicationStroop,2021.2.3,Win32,60.22645146,,,,,,,,,,,,,,,,,,,,,,,,,,,,,,,,,,,,,,,,,,,,,,,,,,,,,,,,,
,,,,left,1,0.3678,1,9,25,3,1,4,-200,left,767,2022-01-19_23h16.35.249,multiplicationStroop,2021.2.3,Win32,60.22645146,,,,,,,,,,,,,,,,,,,,,,,,,,,,,,,,,,,,,,,,,,,,,,,,,,,,,,,,,
,,,,right,1,0.293,1,10,26,14,1,8,200,right,767,2022-01-19_23h16.35.249,multiplicationStroop,2021.2.3,Win32,60.22645146,,,,,,,,,,,,,,,,,,,,,,,,,,,,,,,,,,,,,,,,,,,,,,,,,,,,,,,,,
,,,,right,1,0.3673,1,11,27,12,1,6,200,right,767,2022-01-19_23h16.35.249,multiplicationStroop,2021.2.3,Win32,60.22645146,,,,,,,,,,,,,,,,,,,,,,,,,,,,,,,,,,,,,,,,,,,,,,,,,,,,,,,,,
,,,,left,1,0.3031,1,12,28,6,1,8,-200,left,767,2022-01-19_23h16.35.249,multiplicationStroop,2021.2.3,Win32,60.22645146,,,,,,,,,,,,,,,,,,,,,,,,,,,,,,,,,,,,,,,,,,,,,,,,,,,,,,,,,
,,,,left,1,0.3008,1,13,29,1,1,2,-200,left,767,2022-01-19_23h16.35.249,multiplicationStroop,2021.2.3,Win32,60.22645146,,,,,,,,,,,,,,,,,,,,,,,,,,,,,,,,,,,,,,,,,,,,,,,,,,,,,,,,,
,,,,right,1,0.5037,1,14,30,9,1,2,200,right,767,2022-01-19_23h16.35.249,multiplicationStroop,2021.2.3,Win32,60.22645146,,,,,,,,,,,,,,,,,,,,,,,,,,,,,,,,,,,,,,,,,,,,,,,,,,,,,,,,,
,,,,right,1,0.3067,1,15,31,11,1,4,200,right,767,2022-01-19_23h16.35.249,multiplicationStroop,2021.2.3,Win32,60.22645146,,,,,,,,,,,,,,,,,,,,,,,,,,,,,,,,,,,,,,,,,,,,,,,,,,,,,,,,,
,,,,right,1,0.3561,2,0,32,8,1,1,200,right,767,2022-01-19_23h16.35.249,multiplicationStroop,2021.2.3,Win32,60.22645146,,,,,,,,,,,,,,,,,,,,,,,,,,,,,,,,,,,,,,,,,,,,,,,,,,,,,,,,,
,,,,left,1,0.3911,2,1,33,6,1,8,-200,left,767,2022-01-19_23h16.35.249,multiplicationStroop,2021.2.3,Win32,60.22645146,,,,,,,,,,,,,,,,,,,,,,,,,,,,,,,,,,,,,,,,,,,,,,,,,,,,,,,,,
,,,,right,1,0.2723,2,2,34,13,1,7,200,right,767,2022-01-19_23h16.35.249,multiplicationStroop,2021.2.3,Win32,60.22645146,,,,,,,,,,,,,,,,,,,,,,,,,,,,,,,,,,,,,,,,,,,,,,,,,,,,,,,,,
,,,,left,0,0.2024,2,3,35,12,1,6,200,right,767,2022-01-19_23h16.35.249,multiplicationStroop,2021.2.3,Win32,60.22645146,,,,,,,,,,,,,,,,,,,,,,,,,,,,,,,,,,,,,,,,,,,,,,,,,,,,,,,,,
,,,,right,1,0.6246,2,4,36,10,1,3,200,right,767,2022-01-19_23h16.35.249,multiplicationStroop,2021.2.3,Win32,60.22645146,,,,,,,,,,,,,,,,,,,,,,,,,,,,,,,,,,,,,,,,,,,,,,,,,,,,,,,,,
,,,,right,1,0.3443,2,5,37,11,1,4,200,right,767,2022-01-19_23h16.35.249,multiplicationStroop,2021.2.3,Win32,60.22645146,,,,,,,,,,,,,,,,,,,,,,,,,,,,,,,,,,,,,,,,,,,,,,,,,,,,,,,,,
,,,,right,1,0.302,2,6,38,14,1,8,200,right,767,2022-01-19_23h16.35.249,multiplicationStroop,2021.2.3,Win32,60.22645146,,,,,,,,,,,,,,,,,,,,,,,,,,,,,,,,,,,,,,,,,,,,,,,,,,,,,,,,,
,,,,left,1,0.3563,2,7,39,4,1,6,-200,left,767,2022-01-19_23h16.35.249,multiplicationStroop,2021.2.3,Win32,60.22645146,,,,,,,,,,,,,,,,,,,,,,,,,,,,,,,,,,,,,,,,,,,,,,,,,,,,,,,,,
,,,,left,1,0.3732,2,8,40,2,1,3,-200,left,767,2022-01-19_23h16.35.249,multiplicationStroop,2021.2.3,Win32,60.22645146,,,,,,,,,,,,,,,,,,,,,,,,,,,,,,,,,,,,,,,,,,,,,,,,,,,,,,,,,
,,,,left,1,0.3525,2,9,41,3,1,4,-200,left,767,2022-01-19_23h16.35.249,multiplicationStroop,2021.2.3,Win32,60.22645146,,,,,,,,,,,,,,,,,,,,,,,,,,,,,,,,,,,,,,,,,,,,,,,,,,,,,,,,,
,,,,right,1,0.3281,2,10,42,15,1,9,200,right,767,2022-01-19_23h16.35.249,multiplicationStroop,2021.2.3,Win32,60.22645146,,,,,,,,,,,,,,,,,,,,,,,,,,,,,,,,,,,,,,,,,,,,,,,,,,,,,,,,,
,,,,left,1,0.2849,2,11,43,5,1,7,-200,left,767,2022-01-19_23h16.35.249,multiplicationStroop,2021.2.3,Win32,60.22645146,,,,,,,,,,,,,,,,,,,,,,,,,,,,,,,,,,,,,,,,,,,,,,,,,,,,,,,,,
,,,,right,1,0.3358,2,12,44,9,1,2,200,right,767,2022-01-19_23h16.35.249,multiplicationStroop,2021.2.3,Win32,60.22645146,,,,,,,,,,,,,,,,,,,,,,,,,,,,,,,,,,,,,,,,,,,,,,,,,,,,,,,,,
,,,,left,1,0.2738,2,13,45,7,1,9,-200,left,767,2022-01-19_23h16.35.249,multiplicationStroop,2021.2.3,Win32,60.22645146,,,,,,,,,,,,,,,,,,,,,,,,,,,,,,,,,,,,,,,,,,,,,,,,,,,,,,,,,
,,,,left,1,0.2603,2,14,46,1,1,2,-200,left,767,2022-01-19_23h16.35.249,multiplicationStroop,2021.2.3,Win32,60.22645146,,,,,,,,,,,,,,,,,,,,,,,,,,,,,,,,,,,,,,,,,,,,,,,,,,,,,,,,,
,,,,left,1,0.301,2,15,47,0,1,1,-200,left,767,2022-01-19_23h16.35.249,multiplicationStroop,2021.2.3,Win32,60.22645146,,,,,,,,,,,,,,,,,,,,,,,,,,,,,,,,,,,,,,,,,,,,,,,,,,,,,,,,,
,,,,left,1,0.2671,3,0,48,2,1,3,-200,left,767,2022-01-19_23h16.35.249,multiplicationStroop,2021.2.3,Win32,60.22645146,,,,,,,,,,,,,,,,,,,,,,,,,,,,,,,,,,,,,,,,,,,,,,,,,,,,,,,,,
,,,,left,0,0.3678,3,1,49,13,1,7,200,right,767,2022-01-19_23h16.35.249,multiplicationStroop,2021.2.3,Win32,60.22645146,,,,,,,,,,,,,,,,,,,,,,,,,,,,,,,,,,,,,,,,,,,,,,,,,,,,,,,,,
,,,,right,1,0.4181,3,2,50,15,1,9,200,right,767,2022-01-19_23h16.35.249,multiplicationStroop,2021.2.3,Win32,60.22645146,,,,,,,,,,,,,,,,,,,,,,,,,,,,,,,,,,,,,,,,,,,,,,,,,,,,,,,,,
,,,,right,1,0.2584,3,3,51,9,1,2,200,right,767,2022-01-19_23h16.35.249,multiplicationStroop,2021.2.3,Win32,60.22645146,,,,,,,,,,,,,,,,,,,,,,,,,,,,,,,,,,,,,,,,,,,,,,,,,,,,,,,,,
,,,,left,1,0.3839,3,4,52,7,1,9,-200,left,767,2022-01-19_23h16.35.249,multiplicationStroop,2021.2.3,Win32,60.22645146,,,,,,,,,,,,,,,,,,,,,,,,,,,,,,,,,,,,,,,,,,,,,,,,,,,,,,,,,
,,,,right,1,0.3174,3,5,53,8,1,1,200,right,767,2022-01-19_23h16.35.249,multiplicationStroop,2021.2.3,Win32,60.22645146,,,,,,,,,,,,,,,,,,,,,,,,,,,,,,,,,,,,,,,,,,,,,,,,,,,,,,,,,
,,,,right,1,0.3671,3,6,54,11,1,4,200,right,767,2022-01-19_23h16.35.249,multiplicationStroop,2021.2.3,Win32,60.22645146,,,,,,,,,,,,,,,,,,,,,,,,,,,,,,,,,,,,,,,,,,,,,,,,,,,,,,,,,
,,,,left,1,0.3354,3,7,55,6,1,8,-200,left,767,2022-01-19_23h16.35.249,multiplicationStroop,2021.2.3,Win32,60.22645146,,,,,,,,,,,,,,,,,,,,,,,,,,,,,,,,,,,,,,,,,,,,,,,,,,,,,,,,,
,,,,left,1,0.3508,3,8,56,0,1,1,-200,left,767,2022-01-19_23h16.35.249,multiplicationStroop,2021.2.3,Win32,60.22645146,,,,,,,,,,,,,,,,,,,,,,,,,,,,,,,,,,,,,,,,,,,,,,,,,,,,,,,,,
,,,,right,1,0.2686,3,9,57,12,1,6,200,right,767,2022-01-19_23h16.35.249,multiplicationStroop,2021.2.3,Win32,60.22645146,,,,,,,,,,,,,,,,,,,,,,,,,,,,,,,,,,,,,,,,,,,,,,,,,,,,,,,,,
,,,,right,0,0.2691,3,10,58,3,1,4,-200,left,767,2022-01-19_23h16.35.249,multiplicationStroop,2021.2.3,Win32,60.22645146,,,,,,,,,,,,,,,,,,,,,,,,,,,,,,,,,,,,,,,,,,,,,,,,,,,,,,,,,
,,,,right,1,0.3031,3,11,59,14,1,8,200,right,767,2022-01-19_23h16.35.249,multiplicationStroop,2021.2.3,Win32,60.22645146,,,,,,,,,,,,,,,,,,,,,,,,,,,,,,,,,,,,,,,,,,,,,,,,,,,,,,,,,
,,,,left,1,0.4677,3,12,60,1,1,2,-200,left,767,2022-01-19_23h16.35.249,multiplicationStroop,2021.2.3,Win32,60.22645146,,,,,,,,,,,,,,,,,,,,,,,,,,,,,,,,,,,,,,,,,,,,,,,,,,,,,,,,,
,,,,left,1,0.3777,3,13,61,5,1,7,-200,left,767,2022-01-19_23h16.35.249,multiplicationStroop,2021.2.3,Win32,60.22645146,,,,,,,,,,,,,,,,,,,,,,,,,,,,,,,,,,,,,,,,,,,,,,,,,,,,,,,,,
,,,,right,1,0.316,3,14,62,10,1,3,200,right,767,2022-01-19_23h16.35.249,multiplicationStroop,2021.2.3,Win32,60.22645146,,,,,,,,,,,,,,,,,,,,,,,,,,,,,,,,,,,,,,,,,,,,,,,,,,,,,,,,,
,,,,right,0,0.1335,3,15,63,4,1,6,-200,left,767,2022-01-19_23h16.35.249,multiplicationStroop,2021.2.3,Win32,60.22645146,,,,,,,,,,,,,,,,,,,,,,,,,,,,,,,,,,,,,,,,,,,,,,,,,,,,,,,,,
,,,,,,,,,,,,,,,767,2022-01-19_23h16.35.249,multiplicationStroop,2021.2.3,Win32,60.22645146,space,13.3953,space,9.4858,right,1,0.8518,0,0,0,17,1,2,7,2 | 7,5,1.4111,1.9756,congruent,right,,,,,,stimulusFile/magnitude.xlsx,,,,,,,,,,,,,,,,,,,,,,,,,,,,,,,
,,,,,,,,,,,,,,,767,2022-01-19_23h16.35.249,multiplicationStroop,2021.2.3,Win32,60.22645146,,,,,right,1,0.5505,0,1,1,8,1,1,3,1 | 3,2,1.4111,1.9756,congruent,right,,,,,,stimulusFile/magnitude.xlsx,,,,,,,,,,,,,,,,,,,,,,,,,,,,,,,
,,,,,,,,,,,,,,,767,2022-01-19_23h16.35.249,multiplicationStroop,2021.2.3,Win32,60.22645146,,,,,right,1,0.5027,0,2,2,2,1,6,7,6 | 7,1,1.4111,1.9756,congruent,right,,,,,,stimulusFile/magnitude.xlsx,,,,,,,,,,,,,,,,,,,,,,,,,,,,,,,
,,,,,,,,,,,,,,,767,2022-01-19_23h16.35.249,multiplicationStroop,2021.2.3,Win32,60.22645146,,,,,right,1,0.5925,0,3,3,1,1,3,4,3 | 4,1,1.4111,1.9756,congruent,right,,,,,,stimulusFile/magnitude.xlsx,,,,,,,,,,,,,,,,,,,,,,,,,,,,,,,
,,,,,,,,,,,,,,,767,2022-01-19_23h16.35.249,multiplicationStroop,2021.2.3,Win32,60.22645146,,,,,left,1,0.5676,0,4,4,53,1,4,3,4 | 3,1,1.6933,1.6933,neutral,left,,,,,,stimulusFile/magnitude.xlsx,,,,,,,,,,,,,,,,,,,,,,,,,,,,,,,
,,,,,,,,,,,,,,,767,2022-01-19_23h16.35.249,multiplicationStroop,2021.2.3,Win32,60.22645146,,,,,left,1,0.4383,0,5,5,60,1,3,1,3 | 1,2,1.6933,1.6933,neutral,left,,,,,,stimulusFile/magnitude.xlsx,,,,,,,,,,,,,,,,,,,,,,,,,,,,,,,
,,,,,,,,,,,,,,,767,2022-01-19_23h16.35.249,multiplicationStroop,2021.2.3,Win32,60.22645146,,,,,left,1,0.6172,0,6,6,47,1,9,4,9 | 4,5,1.4111,1.9756,incongruent,left,,,,,,stimulusFile/magnitude.xlsx,,,,,,,,,,,,,,,,,,,,,,,,,,,,,,,
,,,,,,,,,,,,,,,767,2022-01-19_23h16.35.249,multiplicationStroop,2021.2.3,Win32,60.22645146,,,,,left,1,0.5794,0,7,7,37,1,4,2,4 | 2,2,1.4111,1.9756,incongruent,left,,,,,,stimulusFile/magnitude.xlsx,,,,,,,,,,,,,,,,,,,,,,,,,,,,,,,
,,,,,,,,,,,,,,,767,2022-01-19_23h16.35.249,multiplicationStroop,2021.2.3,Win32,60.22645146,,,,,left,1,0.4187,0,8,8,68,1,6,1,6 | 1,5,1.6933,1.6933,neutral,left,,,,,,stimulusFile/magnitude.xlsx,,,,,,,,,,,,,,,,,,,,,,,,,,,,,,,
,,,,,,,,,,,,,,,767,2022-01-19_23h16.35.249,multiplicationStroop,2021.2.3,Win32,60.22645146,,,,,right,1,0.5101,0,9,9,48,1,1,2,1 | 2,1,1.6933,1.6933,neutral,right,,,,,,stimulusFile/magnitude.xlsx,,,,,,,,,,,,,,,,,,,,,,,,,,,,,,,
,,,,,,,,,,,,,,,767,2022-01-19_23h16.35.249,multiplicationStroop,2021.2.3,Win32,60.22645146,,,,,left,1,0.4021,0,10,10,46,1,8,3,8 | 3,5,1.4111,1.9756,incongruent,left,,,,,,stimulusFile/magnitude.xlsx,,,,,,,,,,,,,,,,,,,,,,,,,,,,,,,
,,,,,,,,,,,,,,,767,2022-01-19_23h16.35.249,multiplicationStroop,2021.2.3,Win32,60.22645146,,,,,right,1,0.5427,0,11,11,42,1,3,8,3 | 8,5,1.9756,1.4111,incongruent,right,,,,,,stimulusFile/magnitude.xlsx,,,,,,,,,,,,,,,,,,,,,,,,,,,,,,,
,,,,,,,,,,,,,,,767,2022-01-19_23h16.35.249,multiplicationStroop,2021.2.3,Win32,60.22645146,,,,,left,1,0.4027,0,12,12,69,1,7,2,7 | 2,5,1.6933,1.6933,neutral,left,,,,,,stimulusFile/magnitude.xlsx,,,,,,,,,,,,,,,,,,,,,,,,,,,,,,,
,,,,,,,,,,,,,,,767,2022-01-19_23h16.35.249,multiplicationStroop,2021.2.3,Win32,60.22645146,,,,,left,1,0.6847,0,13,13,28,1,2,1,2 | 1,1,1.4111,1.9756,incongruent,left,,,,,,stimulusFile/magnitude.xlsx,,,,,,,,,,,,,,,,,,,,,,,,,,,,,,,
,,,,,,,,,,,,,,,767,2022-01-19_23h16.35.249,multiplicationStroop,2021.2.3,Win32,60.22645146,,,,,right,1,0.6094,0,14,14,43,1,4,9,4 | 9,5,1.9756,1.4111,incongruent,right,,,,,,stimulusFile/magnitude.xlsx,,,,,,,,,,,,,,,,,,,,,,,,,,,,,,,
,,,,,,,,,,,,,,,767,2022-01-19_23h16.35.249,multiplicationStroop,2021.2.3,Win32,60.22645146,,,,,left,1,0.4043,0,15,15,21,1,7,2,7 | 2,5,1.9756,1.4111,congruent,left,,,,,,stimulusFile/magnitude.xlsx,,,,,,,,,,,,,,,,,,,,,,,,,,,,,,,
,,,,,,,,,,,,,,,767,2022-01-19_23h16.35.249,multiplicationStroop,2021.2.3,Win32,60.22645146,,,,,right,1,0.6001,0,16,16,50,1,6,7,6 | 7,1,1.6933,1.6933,neutral,right,,,,,,stimulusFile/magnitude.xlsx,,,,,,,,,,,,,,,,,,,,,,,,,,,,,,,
,,,,,,,,,,,,,,,767,2022-01-19_23h16.35.249,multiplicationStroop,2021.2.3,Win32,60.22645146,,,,,right,1,0.5544,0,17,17,65,1,2,7,2 | 7,5,1.6933,1.6933,neutral,right,,,,,,stimulusFile/magnitude.xlsx,,,,,,,,,,,,,,,,,,,,,,,,,,,,,,,
,,,,,,,,,,,,,,,767,2022-01-19_23h16.35.249,multiplicationStroop,2021.2.3,Win32,60.22645146,,,,,right,1,0.5011,0,18,18,66,1,3,8,3 | 8,5,1.6933,1.6933,neutral,right,,,,,,stimulusFile/magnitude.xlsx,,,,,,,,,,,,,,,,,,,,,,,,,,,,,,,
,,,,,,,,,,,,,,,767,2022-01-19_23h16.35.249,multiplicationStroop,2021.2.3,Win32,60.22645146,,,,,right,1,0.6507,0,19,19,33,1,2,4,2 | 4,2,1.9756,1.4111,incongruent,right,,,,,,stimulusFile/magnitude.xlsx,,,,,,,,,,,,,,,,,,,,,,,,,,,,,,,
,,,,,,,,,,,,,,,767,2022-01-19_23h16.35.249,multiplicationStroop,2021.2.3,Win32,60.22645146,,,,,left,1,0.4708,0,20,20,5,1,4,3,4 | 3,1,1.9756,1.4111,congruent,left,,,,,,stimulusFile/magnitude.xlsx,,,,,,,,,,,,,,,,,,,,,,,,,,,,,,,
,,,,,,,,,,,,,,,767,2022-01-19_23h16.35.249,multiplicationStroop,2021.2.3,Win32,60.22645146,,,,,left,1,0.7041,0,21,21,29,1,4,3,4 | 3,1,1.4111,1.9756,incongruent,left,,,,,,stimulusFile/magnitude.xlsx,,,,,,,,,,,,,,,,,,,,,,,,,,,,,,,
,,,,,,,,,,,,,,,767,2022-01-19_23h16.35.249,multiplicationStroop,2021.2.3,Win32,60.22645146,,,,,left,1,0.4714,0,22,22,44,1,6,1,6 | 1,5,1.4111,1.9756,incongruent,left,,,,,,stimulusFile/magnitude.xlsx,,,,,,,,,,,,,,,,,,,,,,,,,,,,,,,
,,,,,,,,,,,,,,,767,2022-01-19_23h16.35.249,multiplicationStroop,2021.2.3,Win32,60.22645146,,,,,right,1,0.5207,0,23,23,41,1,2,7,2 | 7,5,1.9756,1.4111,incongruent,right,,,,,,stimulusFile/magnitude.xlsx,,,,,,,,,,,,,,,,,,,,,,,,,,,,,,,
,,,,,,,,,,,,,,,767,2022-01-19_23h16.35.249,multiplicationStroop,2021.2.3,Win32,60.22645146,,,,,right,1,0.5573,0,24,24,56,1,1,3,1 | 3,2,1.6933,1.6933,neutral,right,,,,,,stimulusFile/magnitude.xlsx,,,,,,,,,,,,,,,,,,,,,,,,,,,,,,,
,,,,,,,,,,,,,,,767,2022-01-19_23h16.35.249,multiplicationStroop,2021.2.3,Win32,60.22645146,,,,,left,0,0.4546,0,25,25,35,1,7,9,7 | 9,2,1.9756,1.4111,incongruent,right,,,,,,stimulusFile/magnitude.xlsx,,,,,,,,,,,,,,,,,,,,,,,,,,,,,,,
,,,,,,,,,,,,,,,767,2022-01-19_23h16.35.249,multiplicationStroop,2021.2.3,Win32,60.22645146,,,,,left,1,0.6843,0,26,26,62,1,8,6,8 | 6,2,1.6933,1.6933,neutral,left,,,,,,stimulusFile/magnitude.xlsx,,,,,,,,,,,,,,,,,,,,,,,,,,,,,,,
,,,,,,,,,,,,,,,767,2022-01-19_23h16.35.249,multiplicationStroop,2021.2.3,Win32,60.22645146,,,,,left,1,0.5716,0,27,27,15,1,9,7,9 | 7,2,1.9756,1.4111,congruent,left,,,,,,stimulusFile/magnitude.xlsx,,,,,,,,,,,,,,,,,,,,,,,,,,,,,,,
,,,,,,,,,,,,,,,767,2022-01-19_23h16.35.249,multiplicationStroop,2021.2.3,Win32,60.22645146,,,,,left,1,0.7172,0,28,28,54,1,7,6,7 | 6,1,1.6933,1.6933,neutral,left,,,,,,stimulusFile/magnitude.xlsx,,,,,,,,,,,,,,,,,,,,,,,,,,,,,,,
,,,,,,,,,,,,,,,767,2022-01-19_23h16.35.249,multiplicationStroop,2021.2.3,Win32,60.22645146,,,,,right,1,0.4849,0,29,29,67,1,4,9,4 | 9,5,1.6933,1.6933,neutral,right,,,,,,stimulusFile/magnitude.xlsx,,,,,,,,,,,,,,,,,,,,,,,,,,,,,,,
,,,,,,,,,,,,,,,767,2022-01-19_23h16.35.249,multiplicationStroop,2021.2.3,Win32,60.22645146,,,,,right,1,0.5121,0,30,30,0,1,1,2,1 | 2,1,1.4111,1.9756,congruent,right,,,,,,stimulusFile/magnitude.xlsx,,,,,,,,,,,,,,,,,,,,,,,,,,,,,,,
,,,,,,,,,,,,,,,767,2022-01-19_23h16.35.249,multiplicationStroop,2021.2.3,Win32,60.22645146,,,,,left,1,0.4671,0,31,31,6,1,7,6,7 | 6,1,1.9756,1.4111,congruent,left,,,,,,stimulusFile/magnitude.xlsx,,,,,,,,,,,,,,,,,,,,,,,,,,,,,,,
,,,,,,,,,,,,,,,767,2022-01-19_23h16.35.249,multiplicationStroop,2021.2.3,Win32,60.22645146,,,,,right,1,0.4383,0,32,32,40,1,1,6,1 | 6,5,1.9756,1.4111,incongruent,right,,,,,,stimulusFile/magnitude.xlsx,,,,,,,,,,,,,,,,,,,,,,,,,,,,,,,
,,,,,,,,,,,,,,,767,2022-01-19_23h16.35.249,multiplicationStroop,2021.2.3,Win32,60.22645146,,,,,left,1,0.4336,0,33,33,13,1,4,2,4 | 2,2,1.9756,1.4111,congruent,left,,,,,,stimulusFile/magnitude.xlsx,,,,,,,,,,,,,,,,,,,,,,,,,,,,,,,
,,,,,,,,,,,,,,,767,2022-01-19_23h16.35.249,multiplicationStroop,2021.2.3,Win32,60.22645146,,,,,right,1,0.4848,0,34,34,49,1,3,4,3 | 4,1,1.6933,1.6933,neutral,right,,,,,,stimulusFile/magnitude.xlsx,,,,,,,,,,,,,,,,,,,,,,,,,,,,,,,
,,,,,,,,,,,,,,,767,2022-01-19_23h16.35.249,multiplicationStroop,2021.2.3,Win32,60.22645146,,,,,left,1,0.4958,0,35,35,12,1,3,1,3 | 1,2,1.9756,1.4111,congruent,left,,,,,,stimulusFile/magnitude.xlsx,,,,,,,,,,,,,,,,,,,,,,,,,,,,,,,
,,,,,,,,,,,,,,,767,2022-01-19_23h16.35.249,multiplicationStroop,2021.2.3,Win32,60.22645146,,,,,right,1,0.5011,0,36,36,59,1,7,9,7 | 9,2,1.6933,1.6933,neutral,right,,,,,,stimulusFile/magnitude.xlsx,,,,,,,,,,,,,,,,,,,,,,,,,,,,,,,
,,,,,,,,,,,,,,,767,2022-01-19_23h16.35.249,multiplicationStroop,2021.2.3,Win32,60.22645146,,,,,left,1,0.5899,0,37,37,7,1,9,8,9 | 8,1,1.9756,1.4111,congruent,left,,,,,,stimulusFile/magnitude.xlsx,,,,,,,,,,,,,,,,,,,,,,,,,,,,,,,
,,,,,,,,,,,,,,,767,2022-01-19_23h16.35.249,multiplicationStroop,2021.2.3,Win32,60.22645146,,,,,right,1,0.4625,0,38,38,9,1,2,4,2 | 4,2,1.4111,1.9756,congruent,right,,,,,,stimulusFile/magnitude.xlsx,,,,,,,,,,,,,,,,,,,,,,,,,,,,,,,
,,,,,,,,,,,,,,,767,2022-01-19_23h16.35.249,multiplicationStroop,2021.2.3,Win32,60.22645146,,,,,right,1,0.62,0,39,39,34,1,6,8,6 | 8,2,1.9756,1.4111,incongruent,right,,,,,,stimulusFile/magnitude.xlsx,,,,,,,,,,,,,,,,,,,,,,,,,,,,,,,
,,,,,,,,,,,,,,,767,2022-01-19_23h16.35.249,multiplicationStroop,2021.2.3,Win32,60.22645146,,,,,right,1,0.5696,0,40,40,11,1,7,9,7 | 9,2,1.4111,1.9756,congruent,right,,,,,,stimulusFile/magnitude.xlsx,,,,,,,,,,,,,,,,,,,,,,,,,,,,,,,
,,,,,,,,,,,,,,,767,2022-01-19_23h16.35.249,multiplicationStroop,2021.2.3,Win32,60.22645146,,,,,left,1,0.472,0,41,41,61,1,4,2,4 | 2,2,1.6933,1.6933,neutral,left,,,,,,stimulusFile/magnitude.xlsx,,,,,,,,,,,,,,,,,,,,,,,,,,,,,,,
,,,,,,,,,,,,,,,767,2022-01-19_23h16.35.249,multiplicationStroop,2021.2.3,Win32,60.22645146,,,,,right,0,0.5533,0,42,42,39,1,9,7,9 | 7,2,1.4111,1.9756,incongruent,left,,,,,,stimulusFile/magnitude.xlsx,,,,,,,,,,,,,,,,,,,,,,,,,,,,,,,
,,,,,,,,,,,,,,,767,2022-01-19_23h16.35.249,multiplicationStroop,2021.2.3,Win32,60.22645146,,,,,left,1,0.5725,0,43,43,52,1,2,1,2 | 1,1,1.6933,1.6933,neutral,left,,,,,,stimulusFile/magnitude.xlsx,,,,,,,,,,,,,,,,,,,,,,,,,,,,,,,
,,,,,,,,,,,,,,,767,2022-01-19_23h16.35.249,multiplicationStroop,2021.2.3,Win32,60.22645146,,,,,right,1,0.4712,0,44,44,3,1,8,9,8 | 9,1,1.4111,1.9756,congruent,right,,,,,,stimulusFile/magnitude.xlsx,,,,,,,,,,,,,,,,,,,,,,,,,,,,,,,
,,,,,,,,,,,,,,,767,2022-01-19_23h16.35.249,multiplicationStroop,2021.2.3,Win32,60.22645146,,,,,right,1,0.8503,0,45,45,26,1,6,7,6 | 7,1,1.9756,1.4111,incongruent,right,,,,,,stimulusFile/magnitude.xlsx,,,,,,,,,,,,,,,,,,,,,,,,,,,,,,,
,,,,,,,,,,,,,,,767,2022-01-19_23h16.35.249,multiplicationStroop,2021.2.3,Win32,60.22645146,,,,,left,1,0.4507,0,46,46,4,1,2,1,2 | 1,1,1.9756,1.4111,congruent,left,,,,,,stimulusFile/magnitude.xlsx,,,,,,,,,,,,,,,,,,,,,,,,,,,,,,,
,,,,,,,,,,,,,,,767,2022-01-19_23h16.35.249,multiplicationStroop,2021.2.3,Win32,60.22645146,,,,,right,1,0.5076,0,47,47,25,1,3,4,3 | 4,1,1.9756,1.4111,incongruent,right,,,,,,stimulusFile/magnitude.xlsx,,,,,,,,,,,,,,,,,,,,,,,,,,,,,,,
,,,,,,,,,,,,,,,767,2022-01-19_23h16.35.249,multiplicationStroop,2021.2.3,Win32,60.22645146,,,,,left,1,0.4776,0,48,48,71,1,9,4,9 | 4,5,1.6933,1.6933,neutral,left,,,,,,stimulusFile/magnitude.xlsx,,,,,,,,,,,,,,,,,,,,,,,,,,,,,,,
,,,,,,,,,,,,,,,767,2022-01-19_23h16.35.249,multiplicationStroop,2021.2.3,Win32,60.22645146,,,,,left,1,0.7447,0,49,49,30,1,7,6,7 | 6,1,1.4111,1.9756,incongruent,left,,,,,,stimulusFile/magnitude.xlsx,,,,,,,,,,,,,,,,,,,,,,,,,,,,,,,
,,,,,,,,,,,,,,,767,2022-01-19_23h16.35.249,multiplicationStroop,2021.2.3,Win32,60.22645146,,,,,left,1,0.4389,0,50,50,23,1,9,4,9 | 4,5,1.9756,1.4111,congruent,left,,,,,,stimulusFile/magnitude.xlsx,,,,,,,,,,,,,,,,,,,,,,,,,,,,,,,
,,,,,,,,,,,,,,,767,2022-01-19_23h16.35.249,multiplicationStroop,2021.2.3,Win32,60.22645146,,,,,right,1,0.5228,0,51,51,51,1,8,9,8 | 9,1,1.6933,1.6933,neutral,right,,,,,,stimulusFile/magnitude.xlsx,,,,,,,,,,,,,,,,,,,,,,,,,,,,,,,
,,,,,,,,,,,,,,,767,2022-01-19_23h16.35.249,multiplicationStroop,2021.2.3,Win32,60.22645146,,,,,left,1,0.4694,0,52,52,14,1,8,6,8 | 6,2,1.9756,1.4111,congruent,left,,,,,,stimulusFile/magnitude.xlsx,,,,,,,,,,,,,,,,,,,,,,,,,,,,,,,
,,,,,,,,,,,,,,,767,2022-01-19_23h16.35.249,multiplicationStroop,2021.2.3,Win32,60.22645146,,,,,right,0,0.4717,0,53,53,55,1,9,8,9 | 8,1,1.6933,1.6933,neutral,left,,,,,,stimulusFile/magnitude.xlsx,,,,,,,,,,,,,,,,,,,,,,,,,,,,,,,
,,,,,,,,,,,,,,,767,2022-01-19_23h16.35.249,multiplicationStroop,2021.2.3,Win32,60.22645146,,,,,left,1,0.4545,0,54,54,22,1,8,3,8 | 3,5,1.9756,1.4111,congruent,left,,,,,,stimulusFile/magnitude.xlsx,,,,,,,,,,,,,,,,,,,,,,,,,,,,,,,
,,,,,,,,,,,,,,,767,2022-01-19_23h16.35.249,multiplicationStroop,2021.2.3,Win32,60.22645146,,,,,left,1,0.4174,0,55,55,45,1,7,2,7 | 2,5,1.4111,1.9756,incongruent,left,,,,,,stimulusFile/magnitude.xlsx,,,,,,,,,,,,,,,,,,,,,,,,,,,,,,,
,,,,,,,,,,,,,,,767,2022-01-19_23h16.35.249,multiplicationStroop,2021.2.3,Win32,60.22645146,,,,,left,1,0.4507,0,56,56,20,1,6,1,6 | 1,5,1.9756,1.4111,congruent,left,,,,,,stimulusFile/magnitude.xlsx,,,,,,,,,,,,,,,,,,,,,,,,,,,,,,,
,,,,,,,,,,,,,,,767,2022-01-19_23h16.35.249,multiplicationStroop,2021.2.3,Win32,60.22645146,,,,,left,1,0.4173,0,57,57,70,1,8,3,8 | 3,5,1.6933,1.6933,neutral,left,,,,,,stimulusFile/magnitude.xlsx,,,,,,,,,,,,,,,,,,,,,,,,,,,,,,,
,,,,,,,,,,,,,,,767,2022-01-19_23h16.35.249,multiplicationStroop,2021.2.3,Win32,60.22645146,,,,,right,1,0.5401,0,58,58,27,1,8,9,8 | 9,1,1.9756,1.4111,incongruent,right,,,,,,stimulusFile/magnitude.xlsx,,,,,,,,,,,,,,,,,,,,,,,,,,,,,,,
,,,,,,,,,,,,,,,767,2022-01-19_23h16.35.249,multiplicationStroop,2021.2.3,Win32,60.22645146,,,,,right,1,0.4258,0,59,59,18,1,3,8,3 | 8,5,1.4111,1.9756,congruent,right,,,,,,stimulusFile/magnitude.xlsx,,,,,,,,,,,,,,,,,,,,,,,,,,,,,,,
,,,,,,,,,,,,,,,767,2022-01-19_23h16.35.249,multiplicationStroop,2021.2.3,Win32,60.22645146,,,,,right,1,0.5174,0,60,60,58,1,6,8,6 | 8,2,1.6933,1.6933,neutral,right,,,,,,stimulusFile/magnitude.xlsx,,,,,,,,,,,,,,,,,,,,,,,,,,,,,,,
,,,,,,,,,,,,,,,767,2022-01-19_23h16.35.249,multiplicationStroop,2021.2.3,Win32,60.22645146,,,,,left,1,0.4926,0,61,61,38,1,8,6,8 | 6,2,1.4111,1.9756,incongruent,left,,,,,,stimulusFile/magnitude.xlsx,,,,,,,,,,,,,,,,,,,,,,,,,,,,,,,
,,,,,,,,,,,,,,,767,2022-01-19_23h16.35.249,multiplicationStroop,2021.2.3,Win32,60.22645146,,,,,left,1,0.4758,0,62,62,31,1,9,8,9 | 8,1,1.4111,1.9756,incongruent,left,,,,,,stimulusFile/magnitude.xlsx,,,,,,,,,,,,,,,,,,,,,,,,,,,,,,,
,,,,,,,,,,,,,,,767,2022-01-19_23h16.35.249,multiplicationStroop,2021.2.3,Win32,60.22645146,,,,,right,1,0.7424,0,63,63,24,1,1,2,1 | 2,1,1.9756,1.4111,incongruent,right,,,,,,stimulusFile/magnitude.xlsx,,,,,,,,,,,,,,,,,,,,,,,,,,,,,,,
,,,,,,,,,,,,,,,767,2022-01-19_23h16.35.249,multiplicationStroop,2021.2.3,Win32,60.22645146,,,,,left,1,0.5237,0,64,64,36,1,3,1,3 | 1,2,1.4111,1.9756,incongruent,left,,,,,,stimulusFile/magnitude.xlsx,,,,,,,,,,,,,,,,,,,,,,,,,,,,,,,
,,,,,,,,,,,,,,,767,2022-01-19_23h16.35.249,multiplicationStroop,2021.2.3,Win32,60.22645146,,,,,right,1,0.5879,0,65,65,57,1,2,4,2 | 4,2,1.6933,1.6933,neutral,right,,,,,,stimulusFile/magnitude.xlsx,,,,,,,,,,,,,,,,,,,,,,,,,,,,,,,
,,,,,,,,,,,,,,,767,2022-01-19_23h16.35.249,multiplicationStroop,2021.2.3,Win32,60.22645146,,,,,right,1,0.4677,0,66,66,64,1,1,6,1 | 6,5,1.6933,1.6933,neutral,right,,,,,,stimulusFile/magnitude.xlsx,,,,,,,,,,,,,,,,,,,,,,,,,,,,,,,
,,,,,,,,,,,,,,,767,2022-01-19_23h16.35.249,multiplicationStroop,2021.2.3,Win32,60.22645146,,,,,right,1,0.5008,0,67,67,32,1,1,3,1 | 3,2,1.9756,1.4111,incongruent,right,,,,,,stimulusFile/magnitude.xlsx,,,,,,,,,,,,,,,,,,,,,,,,,,,,,,,
,,,,,,,,,,,,,,,767,2022-01-19_23h16.35.249,multiplicationStroop,2021.2.3,Win32,60.22645146,,,,,right,1,0.522,0,68,68,19,1,4,9,4 | 9,5,1.4111,1.9756,congruent,right,,,,,,stimulusFile/magnitude.xlsx,,,,,,,,,,,,,,,,,,,,,,,,,,,,,,,
,,,,,,,,,,,,,,,767,2022-01-19_23h16.35.249,multiplicationStroop,2021.2.3,Win32,60.22645146,,,,,right,1,0.4863,0,69,69,10,1,6,8,6 | 8,2,1.4111,1.9756,congruent,right,,,,,,stimulusFile/magnitude.xlsx,,,,,,,,,,,,,,,,,,,,,,,,,,,,,,,
,,,,,,,,,,,,,,,767,2022-01-19_23h16.35.249,multiplicationStroop,2021.2.3,Win32,60.22645146,,,,,right,1,0.4836,0,70,70,16,1,1,6,1 | 6,5,1.4111,1.9756,congruent,right,,,,,,stimulusFile/magnitude.xlsx,,,,,,,,,,,,,,,,,,,,,,,,,,,,,,,
,,,,,,,,,,,,,,,767,2022-01-19_23h16.35.249,multiplicationStroop,2021.2.3,Win32,60.22645146,,,,,left,1,0.6109,0,71,71,63,1,9,7,9 | 7,2,1.6933,1.6933,neutral,left,,,,,,stimulusFile/magnitude.xlsx,,,,,,,,,,,,,,,,,,,,,,,,,,,,,,,
,,,,,,,,,,,,,,,767,2022-01-19_23h16.35.249,multiplicationStroop,2021.2.3,Win32,60.22645146,,,,,,,,,,,,,,,,,,,,,0,0,0,0,1,stimulusFile/magnitude.xlsx,NUMERICALLY larger (larger coefficient).,images/numericallyLarger.png,,,,,,,,,,,,,,,,,,,,,,,,,,,,,
,,,,,,,,,,,,,,,767,2022-01-19_23h16.35.249,multiplicationStroop,2021.2.3,Win32,60.22645146,space,4.1331,space,3.9237,left,1,1.0285,0,0,0,43,1,4,9,4 | 9,5,1.9756,1.4111,incongruent,left,,,,,,stimulusFile/physical.xlsx,,,,,,,,,,,,,,,,,,,,,,,,,,,,,,,
,,,,,,,,,,,,,,,767,2022-01-19_23h16.35.249,multiplicationStroop,2021.2.3,Win32,60.22645146,,,,,right,1,0.4476,0,1,1,8,1,1,3,1 | 3,2,1.4111,1.9756,congruent,right,,,,,,stimulusFile/physical.xlsx,,,,,,,,,,,,,,,,,,,,,,,,,,,,,,,
,,,,,,,,,,,,,,,767,2022-01-19_23h16.35.249,multiplicationStroop,2021.2.3,Win32,60.22645146,,,,,left,1,0.7457,0,2,2,70,1,8,8,8 | 8,0,1.9756,1.4111,neutral,left,,,,,,stimulusFile/physical.xlsx,,,,,,,,,,,,,,,,,,,,,,,,,,,,,,,
,,,,,,,,,,,,,,,767,2022-01-19_23h16.35.249,multiplicationStroop,2021.2.3,Win32,60.22645146,,,,,right,1,0.5065,0,3,3,1,1,3,4,3 | 4,1,1.4111,1.9756,congruent,right,,,,,,stimulusFile/physical.xlsx,,,,,,,,,,,,,,,,,,,,,,,,,,,,,,,
,,,,,,,,,,,,,,,767,2022-01-19_23h16.35.249,multiplicationStroop,2021.2.3,Win32,60.22645146,,,,,right,1,0.5381,0,4,4,19,1,4,9,4 | 9,5,1.4111,1.9756,congruent,right,,,,,,stimulusFile/physical.xlsx,,,,,,,,,,,,,,,,,,,,,,,,,,,,,,,
,,,,,,,,,,,,,,,767,2022-01-19_23h16.35.249,multiplicationStroop,2021.2.3,Win32,60.22645146,,,,,left,1,0.5703,0,5,5,27,1,8,9,8 | 9,1,1.9756,1.4111,incongruent,left,,,,,,stimulusFile/physical.xlsx,,,,,,,,,,,,,,,,,,,,,,,,,,,,,,,
,,,,,,,,,,,,,,,767,2022-01-19_23h16.35.249,multiplicationStroop,2021.2.3,Win32,60.22645146,,,,,right,0,0.4354,0,6,6,69,1,7,7,7 | 7,0,1.4111,1.9756,neutral,left,,,,,,stimulusFile/physical.xlsx,,,,,,,,,,,,,,,,,,,,,,,,,,,,,,,
,,,,,,,,,,,,,,,767,2022-01-19_23h16.35.249,multiplicationStroop,2021.2.3,Win32,60.22645146,,,,,left,1,0.4006,0,7,7,23,1,9,4,9 | 4,5,1.9756,1.4111,congruent,left,,,,,,stimulusFile/physical.xlsx,,,,,,,,,,,,,,,,,,,,,,,,,,,,,,,
,,,,,,,,,,,,,,,767,2022-01-19_23h16.35.249,multiplicationStroop,2021.2.3,Win32,60.22645146,,,,,right,1,0.472,0,8,8,67,1,4,4,4 | 4,0,1.4111,1.9756,neutral,right,,,,,,stimulusFile/physical.xlsx,,,,,,,,,,,,,,,,,,,,,,,,,,,,,,,
,,,,,,,,,,,,,,,767,2022-01-19_23h16.35.249,multiplicationStroop,2021.2.3,Win32,60.22645146,,,,,left,1,0.5145,0,9,9,50,1,6,6,6 | 6,0,1.9756,1.4111,neutral,left,,,,,,stimulusFile/physical.xlsx,,,,,,,,,,,,,,,,,,,,,,,,,,,,,,,
,,,,,,,,,,,,,,,767,2022-01-19_23h16.35.249,multiplicationStroop,2021.2.3,Win32,60.22645146,,,,,right,1,0.5069,0,10,10,47,1,9,4,9 | 4,5,1.4111,1.9756,incongruent,right,,,,,,stimulusFile/physical.xlsx,,,,,,,,,,,,,,,,,,,,,,,,,,,,,,,
,,,,,,,,,,,,,,,767,2022-01-19_23h16.35.249,multiplicationStroop,2021.2.3,Win32,60.22645146,,,,,right,1,0.5344,0,11,11,10,1,6,8,6 | 8,2,1.4111,1.9756,congruent,right,,,,,,stimulusFile/physical.xlsx,,,,,,,,,,,,,,,,,,,,,,,,,,,,,,,
,,,,,,,,,,,,,,,767,2022-01-19_23h16.35.249,multiplicationStroop,2021.2.3,Win32,60.22645146,,,,,left,1,0.5106,0,12,12,53,1,4,4,4 | 4,0,1.9756,1.4111,neutral,left,,,,,,stimulusFile/physical.xlsx,,,,,,,,,,,,,,,,,,,,,,,,,,,,,,,
,,,,,,,,,,,,,,,767,2022-01-19_23h16.35.249,multiplicationStroop,2021.2.3,Win32,60.22645146,,,,,left,1,0.5712,0,13,13,26,1,6,7,6 | 7,1,1.9756,1.4111,incongruent,left,,,,,,stimulusFile/physical.xlsx,,,,,,,,,,,,,,,,,,,,,,,,,,,,,,,
,,,,,,,,,,,,,,,767,2022-01-19_23h16.35.249,multiplicationStroop,2021.2.3,Win32,60.22645146,,,,,left,1,0.4941,0,14,14,49,1,3,3,3 | 3,0,1.9756,1.4111,neutral,left,,,,,,stimulusFile/physical.xlsx,,,,,,,,,,,,,,,,,,,,,,,,,,,,,,,
,,,,,,,,,,,,,,,767,2022-01-19_23h16.35.249,multiplicationStroop,2021.2.3,Win32,60.22645146,,,,,right,1,0.4978,0,15,15,18,1,3,8,3 | 8,5,1.4111,1.9756,congruent,right,,,,,,stimulusFile/physical.xlsx,,,,,,,,,,,,,,,,,,,,,,,,,,,,,,,
,,,,,,,,,,,,,,,767,2022-01-19_23h16.35.249,multiplicationStroop,2021.2.3,Win32,60.22645146,,,,,left,0,0.4944,0,16,16,64,1,1,1,1 | 1,0,1.9756,1.4111,neutral,right,,,,,,stimulusFile/physical.xlsx,,,,,,,,,,,,,,,,,,,,,,,,,,,,,,,
,,,,,,,,,,,,,,,767,2022-01-19_23h16.35.249,multiplicationStroop,2021.2.3,Win32,60.22645146,,,,,left,1,0.4814,0,17,17,55,1,9,9,9 | 9,0,1.9756,1.4111,neutral,left,,,,,,stimulusFile/physical.xlsx,,,,,,,,,,,,,,,,,,,,,,,,,,,,,,,
,,,,,,,,,,,,,,,767,2022-01-19_23h16.35.249,multiplicationStroop,2021.2.3,Win32,60.22645146,,,,,right,1,0.4985,0,18,18,56,1,1,1,1 | 1,0,1.4111,1.9756,neutral,right,,,,,,stimulusFile/physical.xlsx,,,,,,,,,,,,,,,,,,,,,,,,,,,,,,,
,,,,,,,,,,,,,,,767,2022-01-19_23h16.35.249,multiplicationStroop,2021.2.3,Win32,60.22645146,,,,,left,1,0.4054,0,19,19,6,1,7,6,7 | 6,1,1.9756,1.4111,congruent,left,,,,,,stimulusFile/physical.xlsx,,,,,,,,,,,,,,,,,,,,,,,,,,,,,,,
,,,,,,,,,,,,,,,767,2022-01-19_23h16.35.249,multiplicationStroop,2021.2.3,Win32,60.22645146,,,,,right,1,0.4615,0,20,20,11,1,7,9,7 | 9,2,1.4111,1.9756,congruent,right,,,,,,stimulusFile/physical.xlsx,,,,,,,,,,,,,,,,,,,,,,,,,,,,,,,
,,,,,,,,,,,,,,,767,2022-01-19_23h16.35.249,multiplicationStroop,2021.2.3,Win32,60.22645146,,,,,right,1,0.4279,0,21,21,2,1,6,7,6 | 7,1,1.4111,1.9756,congruent,right,,,,,,stimulusFile/physical.xlsx,,,,,,,,,,,,,,,,,,,,,,,,,,,,,,,
,,,,,,,,,,,,,,,767,2022-01-19_23h16.35.249,multiplicationStroop,2021.2.3,Win32,60.22645146,,,,,right,0,0.4291,0,22,22,71,1,9,9,9 | 9,0,1.4111,1.9756,neutral,left,,,,,,stimulusFile/physical.xlsx,,,,,,,,,,,,,,,,,,,,,,,,,,,,,,,
,,,,,,,,,,,,,,,767,2022-01-19_23h16.35.249,multiplicationStroop,2021.2.3,Win32,60.22645146,,,,,left,1,0.4314,0,23,23,52,1,2,2,2 | 2,0,1.9756,1.4111,neutral,left,,,,,,stimulusFile/physical.xlsx,,,,,,,,,,,,,,,,,,,,,,,,,,,,,,,
,,,,,,,,,,,,,,,767,2022-01-19_23h16.35.249,multiplicationStroop,2021.2.3,Win32,60.22645146,,,,,right,0,0.4281,0,24,24,68,1,6,6,6 | 6,0,1.9756,1.4111,neutral,left,,,,,,stimulusFile/physical.xlsx,,,,,,,,,,,,,,,,,,,,,,,,,,,,,,,
,,,,,,,,,,,,,,,767,2022-01-19_23h16.35.249,multiplicationStroop,2021.2.3,Win32,60.22645146,,,,,right,1,0.5527,0,25,25,39,1,9,7,9 | 7,2,1.4111,1.9756,incongruent,right,,,,,,stimulusFile/physical.xlsx,,,,,,,,,,,,,,,,,,,,,,,,,,,,,,,
,,,,,,,,,,,,,,,767,2022-01-19_23h16.35.249,multiplicationStroop,2021.2.3,Win32,60.22645146,,,,,left,1,0.4455,0,26,26,24,1,1,2,1 | 2,1,1.9756,1.4111,incongruent,left,,,,,,stimulusFile/physical.xlsx,,,,,,,,,,,,,,,,,,,,,,,,,,,,,,,
,,,,,,,,,,,,,,,767,2022-01-19_23h16.35.249,multiplicationStroop,2021.2.3,Win32,60.22645146,,,,,left,1,0.4406,0,27,27,13,1,4,2,4 | 2,2,1.9756,1.4111,congruent,left,,,,,,stimulusFile/physical.xlsx,,,,,,,,,,,,,,,,,,,,,,,,,,,,,,,
,,,,,,,,,,,,,,,767,2022-01-19_23h16.35.249,multiplicationStroop,2021.2.3,Win32,60.22645146,,,,,right,1,0.4438,0,28,28,0,1,1,2,1 | 2,1,1.4111,1.9756,congruent,right,,,,,,stimulusFile/physical.xlsx,,,,,,,,,,,,,,,,,,,,,,,,,,,,,,,
,,,,,,,,,,,,,,,767,2022-01-19_23h16.35.249,multiplicationStroop,2021.2.3,Win32,60.22645146,,,,,right,1,0.6434,0,29,29,29,1,4,3,4 | 3,1,1.4111,1.9756,incongruent,right,,,,,,stimulusFile/physical.xlsx,,,,,,,,,,,,,,,,,,,,,,,,,,,,,,,
,,,,,,,,,,,,,,,767,2022-01-19_23h16.35.249,multiplicationStroop,2021.2.3,Win32,60.22645146,,,,,left,1,0.5847,0,30,30,35,1,7,9,7 | 9,2,1.9756,1.4111,incongruent,left,,,,,,stimulusFile/physical.xlsx,,,,,,,,,,,,,,,,,,,,,,,,,,,,,,,
,,,,,,,,,,,,,,,767,2022-01-19_23h16.35.249,multiplicationStroop,2021.2.3,Win32,60.22645146,,,,,right,1,0.5789,0,31,31,31,1,9,8,9 | 8,1,1.4111,1.9756,incongruent,right,,,,,,stimulusFile/physical.xlsx,,,,,,,,,,,,,,,,,,,,,,,,,,,,,,,
,,,,,,,,,,,,,,,767,2022-01-19_23h16.35.249,multiplicationStroop,2021.2.3,Win32,60.22645146,,,,,left,0,0.3829,0,32,32,28,1,2,1,2 | 1,1,1.4111,1.9756,incongruent,right,,,,,,stimulusFile/physical.xlsx,,,,,,,,,,,,,,,,,,,,,,,,,,,,,,,
,,,,,,,,,,,,,,,767,2022-01-19_23h16.35.249,multiplicationStroop,2021.2.3,Win32,60.22645146,,,,,right,1,0.6005,0,33,33,65,1,2,2,2 | 2,0,1.4111,1.9756,neutral,right,,,,,,stimulusFile/physical.xlsx,,,,,,,,,,,,,,,,,,,,,,,,,,,,,,,
,,,,,,,,,,,,,,,767,2022-01-19_23h16.35.249,multiplicationStroop,2021.2.3,Win32,60.22645146,,,,,right,1,0.5395,0,34,34,3,1,8,9,8 | 9,1,1.4111,1.9756,congruent,right,,,,,,stimulusFile/physical.xlsx,,,,,,,,,,,,,,,,,,,,,,,,,,,,,,,
,,,,,,,,,,,,,,,767,2022-01-19_23h16.35.249,multiplicationStroop,2021.2.3,Win32,60.22645146,,,,,left,1,0.4938,0,35,35,25,1,3,4,3 | 4,1,1.9756,1.4111,incongruent,left,,,,,,stimulusFile/physical.xlsx,,,,,,,,,,,,,,,,,,,,,,,,,,,,,,,
,,,,,,,,,,,,,,,767,2022-01-19_23h16.35.249,multiplicationStroop,2021.2.3,Win32,60.22645146,,,,,right,0,0.423,0,36,36,40,1,1,6,1 | 6,5,1.9756,1.4111,incongruent,left,,,,,,stimulusFile/physical.xlsx,,,,,,,,,,,,,,,,,,,,,,,,,,,,,,,
,,,,,,,,,,,,,,,767,2022-01-19_23h16.35.249,multiplicationStroop,2021.2.3,Win32,60.22645146,,,,,right,1,0.5648,0,37,37,45,1,7,2,7 | 2,5,1.4111,1.9756,incongruent,right,,,,,,stimulusFile/physical.xlsx,,,,,,,,,,,,,,,,,,,,,,,,,,,,,,,
,,,,,,,,,,,,,,,767,2022-01-19_23h16.35.249,multiplicationStroop,2021.2.3,Win32,60.22645146,,,,,left,1,0.5238,0,38,38,54,1,7,7,7 | 7,0,1.9756,1.4111,neutral,left,,,,,,stimulusFile/physical.xlsx,,,,,,,,,,,,,,,,,,,,,,,,,,,,,,,
,,,,,,,,,,,,,,,767,2022-01-19_23h16.35.249,multiplicationStroop,2021.2.3,Win32,60.22645146,,,,,left,1,0.5971,0,39,39,12,1,3,1,3 | 1,2,1.9756,1.4111,congruent,left,,,,,,stimulusFile/physical.xlsx,,,,,,,,,,,,,,,,,,,,,,,,,,,,,,,
,,,,,,,,,,,,,,,767,2022-01-19_23h16.35.249,multiplicationStroop,2021.2.3,Win32,60.22645146,,,,,right,1,0.4065,0,40,40,16,1,1,6,1 | 6,5,1.4111,1.9756,congruent,right,,,,,,stimulusFile/physical.xlsx,,,,,,,,,,,,,,,,,,,,,,,,,,,,,,,
,,,,,,,,,,,,,,,767,2022-01-19_23h16.35.249,multiplicationStroop,2021.2.3,Win32,60.22645146,,,,,left,1,0.4536,0,41,41,5,1,4,3,4 | 3,1,1.9756,1.4111,congruent,left,,,,,,stimulusFile/physical.xlsx,,,,,,,,,,,,,,,,,,,,,,,,,,,,,,,
,,,,,,,,,,,,,,,767,2022-01-19_23h16.35.249,multiplicationStroop,2021.2.3,Win32,60.22645146,,,,,left,1,0.6396,0,42,42,34,1,6,8,6 | 8,2,1.9756,1.4111,incongruent,left,,,,,,stimulusFile/physical.xlsx,,,,,,,,,,,,,,,,,,,,,,,,,,,,,,,
,,,,,,,,,,,,,,,767,2022-01-19_23h16.35.249,multiplicationStroop,2021.2.3,Win32,60.22645146,,,,,left,1,0.4356,0,43,43,22,1,8,3,8 | 3,5,1.9756,1.4111,congruent,left,,,,,,stimulusFile/physical.xlsx,,,,,,,,,,,,,,,,,,,,,,,,,,,,,,,
,,,,,,,,,,,,,,,767,2022-01-19_23h16.35.249,multiplicationStroop,2021.2.3,Win32,60.22645146,,,,,right,1,0.5598,0,44,44,63,1,9,9,9 | 9,0,1.4111,1.9756,neutral,right,,,,,,stimulusFile/physical.xlsx,,,,,,,,,,,,,,,,,,,,,,,,,,,,,,,
,,,,,,,,,,,,,,,767,2022-01-19_23h16.35.249,multiplicationStroop,2021.2.3,Win32,60.22645146,,,,,right,1,0.4799,0,45,45,17,1,2,7,2 | 7,5,1.4111,1.9756,congruent,right,,,,,,stimulusFile/physical.xlsx,,,,,,,,,,,,,,,,,,,,,,,,,,,,,,,
,,,,,,,,,,,,,,,767,2022-01-19_23h16.35.249,multiplicationStroop,2021.2.3,Win32,60.22645146,,,,,left,1,0.4619,0,46,46,48,1,1,1,1 | 1,0,1.9756,1.4111,neutral,left,,,,,,stimulusFile/physical.xlsx,,,,,,,,,,,,,,,,,,,,,,,,,,,,,,,
,,,,,,,,,,,,,,,767,2022-01-19_23h16.35.249,multiplicationStroop,2021.2.3,Win32,60.22645146,,,,,left,1,0.5644,0,47,47,4,1,2,1,2 | 1,1,1.9756,1.4111,congruent,left,,,,,,stimulusFile/physical.xlsx,,,,,,,,,,,,,,,,,,,,,,,,,,,,,,,
,,,,,,,,,,,,,,,767,2022-01-19_23h16.35.249,multiplicationStroop,2021.2.3,Win32,60.22645146,,,,,right,1,0.4007,0,48,48,38,1,8,6,8 | 6,2,1.4111,1.9756,incongruent,right,,,,,,stimulusFile/physical.xlsx,,,,,,,,,,,,,,,,,,,,,,,,,,,,,,,
,,,,,,,,,,,,,,,767,2022-01-19_23h16.35.249,multiplicationStroop,2021.2.3,Win32,60.22645146,,,,,left,1,0.4161,0,49,49,20,1,6,1,6 | 1,5,1.9756,1.4111,congruent,left,,,,,,stimulusFile/physical.xlsx,,,,,,,,,,,,,,,,,,,,,,,,,,,,,,,
,,,,,,,,,,,,,,,767,2022-01-19_23h16.35.249,multiplicationStroop,2021.2.3,Win32,60.22645146,,,,,left,1,0.4783,0,50,50,15,1,9,7,9 | 7,2,1.9756,1.4111,congruent,left,,,,,,stimulusFile/physical.xlsx,,,,,,,,,,,,,,,,,,,,,,,,,,,,,,,
,,,,,,,,,,,,,,,767,2022-01-19_23h16.35.249,multiplicationStroop,2021.2.3,Win32,60.22645146,,,,,left,1,0.4278,0,51,51,51,1,8,8,8 | 8,0,1.9756,1.4111,neutral,left,,,,,,stimulusFile/physical.xlsx,,,,,,,,,,,,,,,,,,,,,,,,,,,,,,,
,,,,,,,,,,,,,,,767,2022-01-19_23h16.35.249,multiplicationStroop,2021.2.3,Win32,60.22645146,,,,,right,1,0.4186,0,52,52,30,1,7,6,7 | 6,1,1.4111,1.9756,incongruent,right,,,,,,stimulusFile/physical.xlsx,,,,,,,,,,,,,,,,,,,,,,,,,,,,,,,
,,,,,,,,,,,,,,,767,2022-01-19_23h16.35.249,multiplicationStroop,2021.2.3,Win32,60.22645146,,,,,right,1,0.5871,0,53,53,59,1,7,7,7 | 7,0,1.4111,1.9756,neutral,right,,,,,,stimulusFile/physical.xlsx,,,,,,,,,,,,,,,,,,,,,,,,,,,,,,,
,,,,,,,,,,,,,,,767,2022-01-19_23h16.35.249,multiplicationStroop,2021.2.3,Win32,60.22645146,,,,,left,1,0.4956,0,54,54,42,1,3,8,3 | 8,5,1.9756,1.4111,incongruent,left,,,,,,stimulusFile/physical.xlsx,,,,,,,,,,,,,,,,,,,,,,,,,,,,,,,
,,,,,,,,,,,,,,,767,2022-01-19_23h16.35.249,multiplicationStroop,2021.2.3,Win32,60.22645146,,,,,right,1,0.4515,0,55,55,37,1,4,2,4 | 2,2,1.4111,1.9756,incongruent,right,,,,,,stimulusFile/physical.xlsx,,,,,,,,,,,,,,,,,,,,,,,,,,,,,,,
,,,,,,,,,,,,,,,767,2022-01-19_23h16.35.249,multiplicationStroop,2021.2.3,Win32,60.22645146,,,,,right,1,0.47,0,56,56,62,1,8,8,8 | 8,0,1.4111,1.9756,neutral,right,,,,,,stimulusFile/physical.xlsx,,,,,,,,,,,,,,,,,,,,,,,,,,,,,,,
,,,,,,,,,,,,,,,767,2022-01-19_23h16.35.249,multiplicationStroop,2021.2.3,Win32,60.22645146,,,,,right,1,0.4349,0,57,57,9,1,2,4,2 | 4,2,1.4111,1.9756,congruent,right,,,,,,stimulusFile/physical.xlsx,,,,,,,,,,,,,,,,,,,,,,,,,,,,,,,
,,,,,,,,,,,,,,,767,2022-01-19_23h16.35.249,multiplicationStroop,2021.2.3,Win32,60.22645146,,,,,right,0,0.4329,0,58,58,41,1,2,7,2 | 7,5,1.9756,1.4111,incongruent,left,,,,,,stimulusFile/physical.xlsx,,,,,,,,,,,,,,,,,,,,,,,,,,,,,,,
,,,,,,,,,,,,,,,767,2022-01-19_23h16.35.249,multiplicationStroop,2021.2.3,Win32,60.22645146,,,,,left,1,0.5623,0,59,59,7,1,9,8,9 | 8,1,1.9756,1.4111,congruent,left,,,,,,stimulusFile/physical.xlsx,,,,,,,,,,,,,,,,,,,,,,,,,,,,,,,
,,,,,,,,,,,,,,,767,2022-01-19_23h16.35.249,multiplicationStroop,2021.2.3,Win32,60.22645146,,,,,left,1,0.5839,0,60,60,14,1,8,6,8 | 6,2,1.9756,1.4111,congruent,left,,,,,,stimulusFile/physical.xlsx,,,,,,,,,,,,,,,,,,,,,,,,,,,,,,,
,,,,,,,,,,,,,,,767,2022-01-19_23h16.35.249,multiplicationStroop,2021.2.3,Win32,60.22645146,,,,,left,0,0.4111,0,61,61,36,1,3,1,3 | 1,2,1.4111,1.9756,incongruent,right,,,,,,stimulusFile/physical.xlsx,,,,,,,,,,,,,,,,,,,,,,,,,,,,,,,
,,,,,,,,,,,,,,,767,2022-01-19_23h16.35.249,multiplicationStroop,2021.2.3,Win32,60.22645146,,,,,left,0,1.1115,0,62,62,66,1,3,3,3 | 3,0,1.9756,1.4111,neutral,right,,,,,,stimulusFile/physical.xlsx,,,,,,,,,,,,,,,,,,,,,,,,,,,,,,,
,,,,,,,,,,,,,,,767,2022-01-19_23h16.35.249,multiplicationStroop,2021.2.3,Win32,60.22645146,,,,,left,1,0.4904,0,63,63,33,1,2,4,2 | 4,2,1.9756,1.4111,incongruent,left,,,,,,stimulusFile/physical.xlsx,,,,,,,,,,,,,,,,,,,,,,,,,,,,,,,
,,,,,,,,,,,,,,,767,2022-01-19_23h16.35.249,multiplicationStroop,2021.2.3,Win32,60.22645146,,,,,right,1,0.51,0,64,64,58,1,6,6,6 | 6,0,1.4111,1.9756,neutral,right,,,,,,stimulusFile/physical.xlsx,,,,,,,,,,,,,,,,,,,,,,,,,,,,,,,
,,,,,,,,,,,,,,,767,2022-01-19_23h16.35.249,multiplicationStroop,2021.2.3,Win32,60.22645146,,,,,right,1,0.5824,0,65,65,44,1,6,1,6 | 1,5,1.4111,1.9756,incongruent,right,,,,,,stimulusFile/physical.xlsx,,,,,,,,,,,,,,,,,,,,,,,,,,,,,,,
,,,,,,,,,,,,,,,767,2022-01-19_23h16.35.249,multiplicationStroop,2021.2.3,Win32,60.22645146,,,,,right,1,0.4878,0,66,66,61,1,4,4,4 | 4,0,1.4111,1.9756,neutral,right,,,,,,stimulusFile/physical.xlsx,,,,,,,,,,,,,,,,,,,,,,,,,,,,,,,
,,,,,,,,,,,,,,,767,2022-01-19_23h16.35.249,multiplicationStroop,2021.2.3,Win32,60.22645146,,,,,left,1,0.41,0,67,67,21,1,7,2,7 | 2,5,1.9756,1.4111,congruent,left,,,,,,stimulusFile/physical.xlsx,,,,,,,,,,,,,,,,,,,,,,,,,,,,,,,
,,,,,,,,,,,,,,,767,2022-01-19_23h16.35.249,multiplicationStroop,2021.2.3,Win32,60.22645146,,,,,right,1,0.4853,0,68,68,46,1,8,3,8 | 3,5,1.4111,1.9756,incongruent,right,,,,,,stimulusFile/physical.xlsx,,,,,,,,,,,,,,,,,,,,,,,,,,,,,,,
,,,,,,,,,,,,,,,767,2022-01-19_23h16.35.249,multiplicationStroop,2021.2.3,Win32,60.22645146,,,,,right,1,0.5599,0,69,69,57,1,2,2,2 | 2,0,1.4111,1.9756,neutral,right,,,,,,stimulusFile/physical.xlsx,,,,,,,,,,,,,,,,,,,,,,,,,,,,,,,
,,,,,,,,,,,,,,,767,2022-01-19_23h16.35.249,multiplicationStroop,2021.2.3,Win32,60.22645146,,,,,left,1,0.6164,0,70,70,32,1,1,3,1 | 3,2,1.9756,1.4111,incongruent,left,,,,,,stimulusFile/physical.xlsx,,,,,,,,,,,,,,,,,,,,,,,,,,,,,,,
,,,,,,,,,,,,,,,767,2022-01-19_23h16.35.249,multiplicationStroop,2021.2.3,Win32,60.22645146,,,,,right,1,0.4703,0,71,71,60,1,3,3,3 | 3,0,1.4111,1.9756,neutral,right,,,,,,stimulusFile/physical.xlsx,,,,,,,,,,,,,,,,,,,,,,,,,,,,,,,
,,,,,,,,,,,,,,,767,2022-01-19_23h16.35.249,multiplicationStroop,2021.2.3,Win32,60.22645146,,,,,,,,,,,,,,,,,,,,,0,1,1,1,1,stimulusFile/physical.xlsx,PHYSICALLY larger (larger font size).,images/physicallyLarger.png,,,,,,,,,,,,,,,,,,,,,,,,,,,,,
,,,,,,,,,,,,,,,767,2022-01-19_23h16.35.249,multiplicationStroop,2021.2.3,Win32,60.22645146,,,,,,,,,,,,,,,,,,,,,,,,,,,,,space,4.0575,space,1.6929,27,7.0132,0,0,0,0,0,1,4,×,9,4 × 9,congruent,smallerFirst,1,2,36,,,,,,,,
,,,,,,,,,,,,,,,767,2022-01-19_23h16.35.249,multiplicationStroop,2021.2.3,Win32,60.22645146,,,,,,,,,,,,,,,,,,,,,,,,,,,,,,,,,76,4.0256,0,0,1,1,35,1,9,×,9,9 × 9,neutral,tie,2,1,81,,,,,,,,
,,,,,,,,,,,,,,,767,2022-01-19_23h16.35.249,multiplicationStroop,2021.2.3,Win32,60.22645146,,,,,,,,,,,,,,,,,,,,,,,,,,,,,,,,,48,8.209,1,0,2,2,18,1,8,×,6,8 × 6,congruent,largerFirst,2,1,48,,,,,,,,
,,,,,,,,,,,,,,,767,2022-01-19_23h16.35.249,multiplicationStroop,2021.2.3,Win32,60.22645146,,,,,,,,,,,,,,,,,,,,,,,,,,,,,,,,,25,3.575,1,0,3,3,31,1,5,×,5,5 × 5,neutral,tie,2,1,25,,,,,,,,
,,,,,,,,,,,,,,,767,2022-01-19_23h16.35.249,multiplicationStroop,2021.2.3,Win32,60.22645146,,,,,,,,,,,,,,,,,,,,,,,,,,,,,,,,,12,1.683,1,0,4,4,19,1,6,×,2,6 × 2,congruent,largerFirst,2,1,12,,,,,,,,
,,,,,,,,,,,,,,,767,2022-01-19_23h16.35.249,multiplicationStroop,2021.2.3,Win32,60.22645146,,,,,,,,,,,,,,,,,,,,,,,,,,,,,,,,,36,2.4661,1,0,5,5,32,1,6,×,6,6 × 6,neutral,tie,2,1,36,,,,,,,,
,,,,,,,,,,,,,,,767,2022-01-19_23h16.35.249,multiplicationStroop,2021.2.3,Win32,60.22645146,,,,,,,,,,,,,,,,,,,,,,,,,,,,,,,,,4,1.4831,1,0,6,6,28,1,2,×,2,2 × 2,neutral,tie,2,1,4,,,,,,,,
,,,,,,,,,,,,,,,767,2022-01-19_23h16.35.249,multiplicationStroop,2021.2.3,Win32,60.22645146,,,,,,,,,,,,,,,,,,,,,,,,,,,,,,,,,32,2.7163,0,0,7,7,8,1,7,×,8,7 × 8,congruent,smallerFirst,1,2,56,,,,,,,,
,,,,,,,,,,,,,,,767,2022-01-19_23h16.35.249,multiplicationStroop,2021.2.3,Win32,60.22645146,,,,,,,,,,,,,,,,,,,,,,,,,,,,,,,,,24,1.9996,1,0,8,8,25,1,6,×,4,6 × 4,congruent,largerFirst,2,1,24,,,,,,,,
,,,,,,,,,,,,,,,767,2022-01-19_23h16.35.249,multiplicationStroop,2021.2.3,Win32,60.22645146,,,,,,,,,,,,,,,,,,,,,,,,,,,,,,,,,12,1.4995,1,0,9,9,2,1,3,×,4,3 × 4,congruent,smallerFirst,1,2,12,,,,,,,,
,,,,,,,,,,,,,,,767,2022-01-19_23h16.35.249,multiplicationStroop,2021.2.3,Win32,60.22645146,,,,,,,,,,,,,,,,,,,,,,,,,,,,,,,,,54,5.2496,1,0,10,10,12,1,6,×,9,6 × 9,congruent,smallerFirst,1,2,54,,,,,,,,
,,,,,,,,,,,,,,,767,2022-01-19_23h16.35.249,multiplicationStroop,2021.2.3,Win32,60.22645146,,,,,,,,,,,,,,,,,,,,,,,,,,,,,,,,,72,2.659,1,0,11,11,17,1,9,×,8,9 × 8,congruent,largerFirst,2,1,72,,,,,,,,
,,,,,,,,,,,,,,,767,2022-01-19_23h16.35.249,multiplicationStroop,2021.2.3,Win32,60.22645146,,,,,,,,,,,,,,,,,,,,,,,,,,,,,,,,,56,2.566,0,0,12,12,21,1,9,×,7,9 × 7,congruent,largerFirst,2,1,63,,,,,,,,
,,,,,,,,,,,,,,,767,2022-01-19_23h16.35.249,multiplicationStroop,2021.2.3,Win32,60.22645146,,,,,,,,,,,,,,,,,,,,,,,,,,,,,,,,,28,2.7166,1,0,13,13,27,1,7,×,4,7 × 4,congruent,largerFirst,2,1,28,,,,,,,,
,,,,,,,,,,,,,,,767,2022-01-19_23h16.35.249,multiplicationStroop,2021.2.3,Win32,60.22645146,,,,,,,,,,,,,,,,,,,,,,,,,,,,,,,,,30,2.8255,1,0,14,14,15,1,6,×,5,6 × 5,congruent,largerFirst,2,1,30,,,,,,,,
,,,,,,,,,,,,,,,767,2022-01-19_23h16.35.249,multiplicationStroop,2021.2.3,Win32,60.22645146,,,,,,,,,,,,,,,,,,,,,,,,,,,,,,,,,18,2.0165,1,0,15,15,22,1,9,×,2,9 × 2,congruent,largerFirst,2,1,18,,,,,,,,
,,,,,,,,,,,,,,,767,2022-01-19_23h16.35.249,multiplicationStroop,2021.2.3,Win32,60.22645146,,,,,,,,,,,,,,,,,,,,,,,,,,,,,,,,,64,2.2496,1,0,16,16,34,1,8,×,8,8 × 8,neutral,tie,2,1,64,,,,,,,,
,,,,,,,,,,,,,,,767,2022-01-19_23h16.35.249,multiplicationStroop,2021.2.3,Win32,60.22645146,,,,,,,,,,,,,,,,,,,,,,,,,,,,,,,,,6,1.7661,1,0,17,17,13,1,2,×,3,2 × 3,congruent,smallerFirst,1,2,6,,,,,,,,
,,,,,,,,,,,,,,,767,2022-01-19_23h16.35.249,multiplicationStroop,2021.2.3,Win32,60.22645146,,,,,,,,,,,,,,,,,,,,,,,,,,,,,,,,,40,2.5995,1,0,18,18,6,1,5,×,8,5 × 8,congruent,smallerFirst,1,2,40,,,,,,,,
,,,,,,,,,,,,,,,767,2022-01-19_23h16.35.249,multiplicationStroop,2021.2.3,Win32,60.22645146,,,,,,,,,,,,,,,,,,,,,,,,,,,,,,,,,45,5.0091,1,0,19,19,23,1,9,×,5,9 × 5,congruent,largerFirst,2,1,45,,,,,,,,
,,,,,,,,,,,,,,,767,2022-01-19_23h16.35.249,multiplicationStroop,2021.2.3,Win32,60.22645146,,,,,,,,,,,,,,,,,,,,,,,,,,,,,,,,,18,4.4757,1,0,20,20,11,1,3,×,6,3 × 6,congruent,smallerFirst,1,2,18,,,,,,,,
,,,,,,,,,,,,,,,767,2022-01-19_23h16.35.249,multiplicationStroop,2021.2.3,Win32,60.22645146,,,,,,,,,,,,,,,,,,,,,,,,,,,,,,,,,15,2.1423,1,0,21,21,4,1,3,×,5,3 × 5,congruent,smallerFirst,1,2,15,,,,,,,,
,,,,,,,,,,,,,,,767,2022-01-19_23h16.35.249,multiplicationStroop,2021.2.3,Win32,60.22645146,,,,,,,,,,,,,,,,,,,,,,,,,,,,,,,,,8,1.8497,1,0,22,22,9,1,2,×,4,2 × 4,congruent,smallerFirst,1,2,8,,,,,,,,
,,,,,,,,,,,,,,,767,2022-01-19_23h16.35.249,multiplicationStroop,2021.2.3,Win32,60.22645146,,,,,,,,,,,,,,,,,,,,,,,,,,,,,,,,,20,1.8496,1,0,23,23,7,1,4,×,5,4 × 5,congruent,smallerFirst,1,2,20,,,,,,,,
,,,,,,,,,,,,,,,767,2022-01-19_23h16.35.249,multiplicationStroop,2021.2.3,Win32,60.22645146,,,,,,,,,,,,,,,,,,,,,,,,,,,,,,,,,10,1.7995,1,0,24,24,24,1,5,×,2,5 × 2,congruent,largerFirst,2,1,10,,,,,,,,
,,,,,,,,,,,,,,,767,2022-01-19_23h16.35.249,multiplicationStroop,2021.2.3,Win32,60.22645146,,,,,,,,,,,,,,,,,,,,,,,,,,,,,,,,,42,2.2993,1,0,25,25,3,1,6,×,7,6 × 7,congruent,smallerFirst,1,2,42,,,,,,,,
,,,,,,,,,,,,,,,767,2022-01-19_23h16.35.249,multiplicationStroop,2021.2.3,Win32,60.22645146,,,,,,,,,,,,,,,,,,,,,,,,,,,,,,,,,14,1.5665,1,0,26,26,14,1,7,×,2,7 × 2,congruent,largerFirst,2,1,14,,,,,,,,
,,,,,,,,,,,,,,,767,2022-01-19_23h16.35.249,multiplicationStroop,2021.2.3,Win32,60.22645146,,,,,,,,,,,,,,,,,,,,,,,,,,,,,,,,,9,1.7663,1,0,27,27,29,1,3,×,3,3 × 3,neutral,tie,2,1,9,,,,,,,,
,,,,,,,,,,,,,,,767,2022-01-19_23h16.35.249,multiplicationStroop,2021.2.3,Win32,60.22645146,,,,,,,,,,,,,,,,,,,,,,,,,,,,,,,,,32,1.8496,1,0,28,28,20,1,8,×,4,8 × 4,congruent,largerFirst,2,1,32,,,,,,,,
,,,,,,,,,,,,,,,767,2022-01-19_23h16.35.249,multiplicationStroop,2021.2.3,Win32,60.22645146,,,,,,,,,,,,,,,,,,,,,,,,,,,,,,,,,24,1.8162,1,0,29,29,10,1,3,×,8,3 × 8,congruent,smallerFirst,1,2,24,,,,,,,,
,,,,,,,,,,,,,,,767,2022-01-19_23h16.35.249,multiplicationStroop,2021.2.3,Win32,60.22645146,,,,,,,,,,,,,,,,,,,,,,,,,,,,,,,,,49,2.6161,1,0,30,30,33,1,7,×,7,7 × 7,neutral,tie,2,1,49,,,,,,,,
,,,,,,,,,,,,,,,767,2022-01-19_23h16.35.249,multiplicationStroop,2021.2.3,Win32,60.22645146,,,,,,,,,,,,,,,,,,,,,,,,,,,,,,,,,35,2.2495,1,0,31,31,1,1,5,×,7,5 × 7,congruent,smallerFirst,1,2,35,,,,,,,,
,,,,,,,,,,,,,,,767,2022-01-19_23h16.35.249,multiplicationStroop,2021.2.3,Win32,60.22645146,,,,,,,,,,,,,,,,,,,,,,,,,,,,,,,,,16,2.2329,1,0,32,32,5,1,2,×,8,2 × 8,congruent,smallerFirst,1,2,16,,,,,,,,
,,,,,,,,,,,,,,,767,2022-01-19_23h16.35.249,multiplicationStroop,2021.2.3,Win32,60.22645146,,,,,,,,,,,,,,,,,,,,,,,,,,,,,,,,,21,2.2162,1,0,33,33,16,1,7,×,3,7 × 3,congruent,largerFirst,2,1,21,,,,,,,,
,,,,,,,,,,,,,,,767,2022-01-19_23h16.35.249,multiplicationStroop,2021.2.3,Win32,60.22645146,,,,,,,,,,,,,,,,,,,,,,,,,,,,,,,,,27,1.8999,1,0,34,34,26,1,9,×,3,9 × 3,congruent,largerFirst,2,1,27,,,,,,,,
,,,,,,,,,,,,,,,767,2022-01-19_23h16.35.249,multiplicationStroop,2021.2.3,Win32,60.22645146,,,,,,,,,,,,,,,,,,,,,,,,,,,,,,,,,16,2.0493,1,0,35,35,30,1,4,×,4,4 × 4,neutral,tie,2,1,16,,,,,,,,
,,,,,,,,,,,,,,,767,2022-01-19_23h16.35.249,multiplicationStroop,2021.2.3,Win32,60.22645146,,,,,,,,,,,,,,,,,,,,,,,,,,,,,,,,,,,,,,,,,,,,,,,,,,0,0,0,2,1,stimulusFile/mult_blk3_congruent.xlsx,,
,,,,,,,,,,,,,,,767,2022-01-19_23h16.35.249,multiplicationStroop,2021.2.3,Win32,60.22645146,,,,,,,,,,,,,,,,,,,,,,,,,,,,,,,space,1.1406,21,1.667,1,0,0,0,8,1,3,×,7,3 × 7,neutral,smallerFirst,1.5,1.5,21,,,,,,,,
,,,,,,,,,,,,,,,767,2022-01-19_23h16.35.249,multiplicationStroop,2021.2.3,Win32,60.22645146,,,,,,,,,,,,,,,,,,,,,,,,,,,,,,,,,16,1.733,1,0,1,1,13,1,2,×,8,2 × 8,neutral,smallerFirst,1.5,1.5,16,,,,,,,,
,,,,,,,,,,,,,,,767,2022-01-19_23h16.35.249,multiplicationStroop,2021.2.3,Win32,60.22645146,,,,,,,,,,,,,,,,,,,,,,,,,,,,,,,,,9,1.5659,1,0,2,2,29,1,3,×,3,3 × 3,neutral,tie,1.5,1.5,9,,,,,,,,
,,,,,,,,,,,,,,,767,2022-01-19_23h16.35.249,multiplicationStroop,2021.2.3,Win32,60.22645146,,,,,,,,,,,,,,,,,,,,,,,,,,,,,,,,,49,1.9,1,0,3,3,33,1,7,×,7,7 × 7,neutral,tie,1.5,1.5,49,,,,,,,,
,,,,,,,,,,,,,,,767,2022-01-19_23h16.35.249,multiplicationStroop,2021.2.3,Win32,60.22645146,,,,,,,,,,,,,,,,,,,,,,,,,,,,,,,,,30,2.083,1,0,4,4,19,1,6,×,5,6 × 5,neutral,largerFirst,1.5,1.5,30,,,,,,,,
,,,,,,,,,,,,,,,767,2022-01-19_23h16.35.249,multiplicationStroop,2021.2.3,Win32,60.22645146,,,,,,,,,,,,,,,,,,,,,,,,,,,,,,,,,24,2.4327,1,0,5,5,22,1,8,×,3,8 × 3,neutral,largerFirst,1.5,1.5,24,,,,,,,,
,,,,,,,,,,,,,,,767,2022-01-19_23h16.35.249,multiplicationStroop,2021.2.3,Win32,60.22645146,,,,,,,,,,,,,,,,,,,,,,,,,,,,,,,,,64,2.176,1,0,6,6,34,1,8,×,8,8 × 8,neutral,tie,1.5,1.5,64,,,,,,,,
,,,,,,,,,,,,,,,767,2022-01-19_23h16.35.249,multiplicationStroop,2021.2.3,Win32,60.22645146,,,,,,,,,,,,,,,,,,,,,,,,,,,,,,,,,16,2.4326,1,0,7,7,30,1,4,×,4,4 × 4,neutral,tie,1.5,1.5,16,,,,,,,,
,,,,,,,,,,,,,,,767,2022-01-19_23h16.35.249,multiplicationStroop,2021.2.3,Win32,60.22645146,,,,,,,,,,,,,,,,,,,,,,,,,,,,,,,,,15,1.6331,1,0,8,8,5,1,3,×,5,3 × 5,neutral,smallerFirst,1.5,1.5,15,,,,,,,,
,,,,,,,,,,,,,,,767,2022-01-19_23h16.35.249,multiplicationStroop,2021.2.3,Win32,60.22645146,,,,,,,,,,,,,,,,,,,,,,,,,,,,,,,,,45,2.5164,1,0,9,9,10,1,5,×,9,5 × 9,neutral,smallerFirst,1.5,1.5,45,,,,,,,,
,,,,,,,,,,,,,,,767,2022-01-19_23h16.35.249,multiplicationStroop,2021.2.3,Win32,60.22645146,,,,,,,,,,,,,,,,,,,,,,,,,,,,,,,,,40,1.816,1,0,10,10,24,1,8,×,5,8 × 5,neutral,largerFirst,1.5,1.5,40,,,,,,,,
,,,,,,,,,,,,,,,767,2022-01-19_23h16.35.249,multiplicationStroop,2021.2.3,Win32,60.22645146,,,,,,,,,,,,,,,,,,,,,,,,,,,,,,,,,14,3.3998,1,0,11,11,16,1,7,×,2,7 × 2,neutral,largerFirst,1.5,1.5,14,,,,,,,,
,,,,,,,,,,,,,,,767,2022-01-19_23h16.35.249,multiplicationStroop,2021.2.3,Win32,60.22645146,,,,,,,,,,,,,,,,,,,,,,,,,,,,,,,,,25,3.2925,1,0,12,12,31,1,5,×,5,5 × 5,neutral,tie,1.5,1.5,25,,,,,,,,
,,,,,,,,,,,,,,,767,2022-01-19_23h16.35.249,multiplicationStroop,2021.2.3,Win32,60.22645146,,,,,,,,,,,,,,,,,,,,,,,,,,,,,,,,,32,1.7663,1,0,13,13,23,1,8,×,4,8 × 4,neutral,largerFirst,1.5,1.5,32,,,,,,,,
,,,,,,,,,,,,,,,767,2022-01-19_23h16.35.249,multiplicationStroop,2021.2.3,Win32,60.22645146,,,,,,,,,,,,,,,,,,,,,,,,,,,,,,,,,35,1.7993,1,0,14,14,1,1,5,×,7,5 × 7,neutral,smallerFirst,1.5,1.5,35,,,,,,,,
,,,,,,,,,,,,,,,767,2022-01-19_23h16.35.249,multiplicationStroop,2021.2.3,Win32,60.22645146,,,,,,,,,,,,,,,,,,,,,,,,,,,,,,,,,42,2.6334,0,0,15,15,12,1,7,×,9,7 × 9,neutral,smallerFirst,1.5,1.5,63,,,,,,,,
,,,,,,,,,,,,,,,767,2022-01-19_23h16.35.249,multiplicationStroop,2021.2.3,Win32,60.22645146,,,,,,,,,,,,,,,,,,,,,,,,,,,,,,,,,36,6.8663,1,0,16,16,32,1,6,×,6,6 × 6,neutral,tie,1.5,1.5,36,,,,,,,,
,,,,,,,,,,,,,,,767,2022-01-19_23h16.35.249,multiplicationStroop,2021.2.3,Win32,60.22645146,,,,,,,,,,,,,,,,,,,,,,,,,,,,,,,,,8,1.7421,1,0,17,17,3,1,2,×,4,2 × 4,neutral,smallerFirst,1.5,1.5,8,,,,,,,,
,,,,,,,,,,,,,,,767,2022-01-19_23h16.35.249,multiplicationStroop,2021.2.3,Win32,60.22645146,,,,,,,,,,,,,,,,,,,,,,,,,,,,,,,,,32,1.9495,0,0,18,18,17,1,7,×,4,7 × 4,neutral,largerFirst,1.5,1.5,28,,,,,,,,
,,,,,,,,,,,,,,,767,2022-01-19_23h16.35.249,multiplicationStroop,2021.2.3,Win32,60.22645146,,,,,,,,,,,,,,,,,,,,,,,,,,,,,,,,,27,2.0162,1,0,19,19,14,1,9,×,3,9 × 3,neutral,largerFirst,1.5,1.5,27,,,,,,,,
,,,,,,,,,,,,,,,767,2022-01-19_23h16.35.249,multiplicationStroop,2021.2.3,Win32,60.22645146,,,,,,,,,,,,,,,,,,,,,,,,,,,,,,,,,12,1.5995,1,0,20,20,21,1,4,×,3,4 × 3,neutral,largerFirst,1.5,1.5,12,,,,,,,,
,,,,,,,,,,,,,,,767,2022-01-19_23h16.35.249,multiplicationStroop,2021.2.3,Win32,60.22645146,,,,,,,,,,,,,,,,,,,,,,,,,,,,,,,,,6,1.8995,1,0,21,21,26,1,3,×,2,3 × 2,neutral,largerFirst,1.5,1.5,6,,,,,,,,
,,,,,,,,,,,,,,,767,2022-01-19_23h16.35.249,multiplicationStroop,2021.2.3,Win32,60.22645146,,,,,,,,,,,,,,,,,,,,,,,,,,,,,,,,,12,1.6828,1,0,22,22,25,1,6,×,2,6 × 2,neutral,largerFirst,1.5,1.5,12,,,,,,,,
,,,,,,,,,,,,,,,767,2022-01-19_23h16.35.249,multiplicationStroop,2021.2.3,Win32,60.22645146,,,,,,,,,,,,,,,,,,,,,,,,,,,,,,,,,20,1.9662,1,0,23,23,20,1,5,×,4,5 × 4,neutral,largerFirst,1.5,1.5,20,,,,,,,,
,,,,,,,,,,,,,,,767,2022-01-19_23h16.35.249,multiplicationStroop,2021.2.3,Win32,60.22645146,,,,,,,,,,,,,,,,,,,,,,,,,,,,,,,,,10,1.7662,1,0,24,24,4,1,2,×,5,2 × 5,neutral,smallerFirst,1.5,1.5,10,,,,,,,,
,,,,,,,,,,,,,,,767,2022-01-19_23h16.35.249,multiplicationStroop,2021.2.3,Win32,60.22645146,,,,,,,,,,,,,,,,,,,,,,,,,,,,,,,,,42,2.0665,1,0,25,25,6,1,6,×,7,6 × 7,neutral,smallerFirst,1.5,1.5,42,,,,,,,,
,,,,,,,,,,,,,,,767,2022-01-19_23h16.35.249,multiplicationStroop,2021.2.3,Win32,60.22645146,,,,,,,,,,,,,,,,,,,,,,,,,,,,,,,,,18,1.9496,1,0,26,26,18,1,9,×,2,9 × 2,neutral,largerFirst,1.5,1.5,18,,,,,,,,
,,,,,,,,,,,,,,,767,2022-01-19_23h16.35.249,multiplicationStroop,2021.2.3,Win32,60.22645146,,,,,,,,,,,,,,,,,,,,,,,,,,,,,,,,,4,1.6995,1,0,27,27,28,1,2,×,2,2 × 2,neutral,tie,1.5,1.5,4,,,,,,,,
,,,,,,,,,,,,,,,767,2022-01-19_23h16.35.249,multiplicationStroop,2021.2.3,Win32,60.22645146,,,,,,,,,,,,,,,,,,,,,,,,,,,,,,,,,18,2.3831,1,0,28,28,0,1,3,×,6,3 × 6,neutral,smallerFirst,1.5,1.5,18,,,,,,,,
,,,,,,,,,,,,,,,767,2022-01-19_23h16.35.249,multiplicationStroop,2021.2.3,Win32,60.22645146,,,,,,,,,,,,,,,,,,,,,,,,,,,,,,,,,56,2.4493,0,0,29,29,7,1,6,×,9,6 × 9,neutral,smallerFirst,1.5,1.5,54,,,,,,,,
,,,,,,,,,,,,,,,767,2022-01-19_23h16.35.249,multiplicationStroop,2021.2.3,Win32,60.22645146,,,,,,,,,,,,,,,,,,,,,,,,,,,,,,,,,24,1.9831,1,0,30,30,2,1,4,×,6,4 × 6,neutral,smallerFirst,1.5,1.5,24,,,,,,,,
,,,,,,,,,,,,,,,767,2022-01-19_23h16.35.249,multiplicationStroop,2021.2.3,Win32,60.22645146,,,,,,,,,,,,,,,,,,,,,,,,,,,,,,,,,72,2.8495,1,0,31,31,11,1,8,×,9,8 × 9,neutral,smallerFirst,1.5,1.5,72,,,,,,,,
,,,,,,,,,,,,,,,767,2022-01-19_23h16.35.249,multiplicationStroop,2021.2.3,Win32,60.22645146,,,,,,,,,,,,,,,,,,,,,,,,,,,,,,,,,54,2.1163,0,0,32,32,15,1,8,×,6,8 × 6,neutral,largerFirst,1.5,1.5,48,,,,,,,,
,,,,,,,,,,,,,,,767,2022-01-19_23h16.35.249,multiplicationStroop,2021.2.3,Win32,60.22645146,,,,,,,,,,,,,,,,,,,,,,,,,,,,,,,,,32,2.159,0,0,33,33,9,1,7,×,8,7 × 8,neutral,smallerFirst,1.5,1.5,56,,,,,,,,
,,,,,,,,,,,,,,,767,2022-01-19_23h16.35.249,multiplicationStroop,2021.2.3,Win32,60.22645146,,,,,,,,,,,,,,,,,,,,,,,,,,,,,,,,,27,2.4164,0,0,34,34,27,1,9,×,4,9 × 4,neutral,largerFirst,1.5,1.5,36,,,,,,,,
,,,,,,,,,,,,,,,767,2022-01-19_23h16.35.249,multiplicationStroop,2021.2.3,Win32,60.22645146,,,,,,,,,,,,,,,,,,,,,,,,,,,,,,,,,81,2.8496,1,0,35,35,35,1,9,×,9,9 × 9,neutral,tie,1.5,1.5,81,,,,,,,,
,,,,,,,,,,,,,,,767,2022-01-19_23h16.35.249,multiplicationStroop,2021.2.3,Win32,60.22645146,,,,,,,,,,,,,,,,,,,,,,,,,,,,,,,,,,,,,,,,,,,,,,,,,,0,1,1,1,1,stimulusFile/mult_blk2.xlsx,,
,,,,,,,,,,,,,,,767,2022-01-19_23h16.35.249,multiplicationStroop,2021.2.3,Win32,60.22645146,,,,,,,,,,,,,,,,,,,,,,,,,,,,,,,space,1.088,16,1.6995,1,0,0,0,30,1,4,×,4,4 × 4,neutral,tie,1.5,1.5,16,,,,,,,,
,,,,,,,,,,,,,,,767,2022-01-19_23h16.35.249,multiplicationStroop,2021.2.3,Win32,60.22645146,,,,,,,,,,,,,,,,,,,,,,,,,,,,,,,,,12,1.7828,1,0,1,1,11,1,2,×,6,2 × 6,neutral,smallerFirst,1.5,1.5,12,,,,,,,,
,,,,,,,,,,,,,,,767,2022-01-19_23h16.35.249,multiplicationStroop,2021.2.3,Win32,60.22645146,,,,,,,,,,,,,,,,,,,,,,,,,,,,,,,,,24,1.9997,1,0,2,2,16,1,6,×,4,6 × 4,neutral,largerFirst,1.5,1.5,24,,,,,,,,
,,,,,,,,,,,,,,,767,2022-01-19_23h16.35.249,multiplicationStroop,2021.2.3,Win32,60.22645146,,,,,,,,,,,,,,,,,,,,,,,,,,,,,,,,,4,1.4495,1,0,3,3,28,1,2,×,2,2 × 2,neutral,tie,1.5,1.5,4,,,,,,,,
,,,,,,,,,,,,,,,767,2022-01-19_23h16.35.249,multiplicationStroop,2021.2.3,Win32,60.22645146,,,,,,,,,,,,,,,,,,,,,,,,,,,,,,,,,32,1.6829,0,0,4,4,3,1,4,×,7,4 × 7,neutral,smallerFirst,1.5,1.5,28,,,,,,,,
,,,,,,,,,,,,,,,767,2022-01-19_23h16.35.249,multiplicationStroop,2021.2.3,Win32,60.22645146,,,,,,,,,,,,,,,,,,,,,,,,,,,,,,,,,9,1.6493,1,0,5,5,29,1,3,×,3,3 × 3,neutral,tie,1.5,1.5,9,,,,,,,,
,,,,,,,,,,,,,,,767,2022-01-19_23h16.35.249,multiplicationStroop,2021.2.3,Win32,60.22645146,,,,,,,,,,,,,,,,,,,,,,,,,,,,,,,,,49,2.0499,1,0,6,6,33,1,7,×,7,7 × 7,neutral,tie,1.5,1.5,49,,,,,,,,
,,,,,,,,,,,,,,,767,2022-01-19_23h16.35.249,multiplicationStroop,2021.2.3,Win32,60.22645146,,,,,,,,,,,,,,,,,,,,,,,,,,,,,,,,,21,1.6329,1,0,7,7,22,1,7,×,3,7 × 3,neutral,largerFirst,1.5,1.5,21,,,,,,,,
,,,,,,,,,,,,,,,767,2022-01-19_23h16.35.249,multiplicationStroop,2021.2.3,Win32,60.22645146,,,,,,,,,,,,,,,,,,,,,,,,,,,,,,,,,18,2.0663,1,0,8,8,14,1,6,×,3,6 × 3,neutral,largerFirst,1.5,1.5,18,,,,,,,,
,,,,,,,,,,,,,,,767,2022-01-19_23h16.35.249,multiplicationStroop,2021.2.3,Win32,60.22645146,,,,,,,,,,,,,,,,,,,,,,,,,,,,,,,,,54,2.9996,0,0,9,9,32,1,6,×,6,6 × 6,neutral,tie,1.5,1.5,36,,,,,,,,
,,,,,,,,,,,,,,,767,2022-01-19_23h16.35.249,multiplicationStroop,2021.2.3,Win32,60.22645146,,,,,,,,,,,,,,,,,,,,,,,,,,,,,,,,,35,2.1664,1,0,10,10,15,1,7,×,5,7 × 5,neutral,largerFirst,1.5,1.5,35,,,,,,,,
,,,,,,,,,,,,,,,767,2022-01-19_23h16.35.249,multiplicationStroop,2021.2.3,Win32,60.22645146,,,,,,,,,,,,,,,,,,,,,,,,,,,,,,,,,42,2.6329,1,0,11,11,20,1,7,×,6,7 × 6,neutral,largerFirst,1.5,1.5,42,,,,,,,,
,,,,,,,,,,,,,,,767,2022-01-19_23h16.35.249,multiplicationStroop,2021.2.3,Win32,60.22645146,,,,,,,,,,,,,,,,,,,,,,,,,,,,,,,,,32,2.0254,1,0,12,12,9,1,4,×,8,4 × 8,neutral,smallerFirst,1.5,1.5,32,,,,,,,,
,,,,,,,,,,,,,,,767,2022-01-19_23h16.35.249,multiplicationStroop,2021.2.3,Win32,60.22645146,,,,,,,,,,,,,,,,,,,,,,,,,,,,,,,,,56,2.0498,1,0,13,13,23,1,8,×,7,8 × 7,neutral,largerFirst,1.5,1.5,56,,,,,,,,
,,,,,,,,,,,,,,,767,2022-01-19_23h16.35.249,multiplicationStroop,2021.2.3,Win32,60.22645146,,,,,,,,,,,,,,,,,,,,,,,,,,,,,,,,,54,3.2163,0,0,14,14,26,1,9,×,7,9 × 7,neutral,largerFirst,1.5,1.5,63,,,,,,,,
,,,,,,,,,,,,,,,767,2022-01-19_23h16.35.249,multiplicationStroop,2021.2.3,Win32,60.22645146,,,,,,,,,,,,,,,,,,,,,,,,,,,,,,,,,64,2.0658,1,0,15,15,34,1,8,×,8,8 × 8,neutral,tie,1.5,1.5,64,,,,,,,,
,,,,,,,,,,,,,,,767,2022-01-19_23h16.35.249,multiplicationStroop,2021.2.3,Win32,60.22645146,,,,,,,,,,,,,,,,,,,,,,,,,,,,,,,,,16,1.9997,1,0,16,16,27,1,8,×,2,8 × 2,neutral,largerFirst,1.5,1.5,16,,,,,,,,
,,,,,,,,,,,,,,,767,2022-01-19_23h16.35.249,multiplicationStroop,2021.2.3,Win32,60.22645146,,,,,,,,,,,,,,,,,,,,,,,,,,,,,,,,,81,2.6829,1,0,17,17,35,1,9,×,9,9 × 9,neutral,tie,1.5,1.5,81,,,,,,,,
,,,,,,,,,,,,,,,767,2022-01-19_23h16.35.249,multiplicationStroop,2021.2.3,Win32,60.22645146,,,,,,,,,,,,,,,,,,,,,,,,,,,,,,,,,14,1.3924,1,0,18,18,2,1,2,×,7,2 × 7,neutral,smallerFirst,1.5,1.5,14,,,,,,,,
,,,,,,,,,,,,,,,767,2022-01-19_23h16.35.249,multiplicationStroop,2021.2.3,Win32,60.22645146,,,,,,,,,,,,,,,,,,,,,,,,,,,,,,,,,6,1.6159,1,0,19,19,12,1,2,×,3,2 × 3,neutral,smallerFirst,1.5,1.5,6,,,,,,,,
,,,,,,,,,,,,,,,767,2022-01-19_23h16.35.249,multiplicationStroop,2021.2.3,Win32,60.22645146,,,,,,,,,,,,,,,,,,,,,,,,,,,,,,,,,20,1.8831,1,0,20,20,6,1,4,×,5,4 × 5,neutral,smallerFirst,1.5,1.5,20,,,,,,,,
,,,,,,,,,,,,,,,767,2022-01-19_23h16.35.249,multiplicationStroop,2021.2.3,Win32,60.22645146,,,,,,,,,,,,,,,,,,,,,,,,,,,,,,,,,18,1.5996,1,0,21,21,4,1,2,×,9,2 × 9,neutral,smallerFirst,1.5,1.5,18,,,,,,,,
,,,,,,,,,,,,,,,767,2022-01-19_23h16.35.249,multiplicationStroop,2021.2.3,Win32,60.22645146,,,,,,,,,,,,,,,,,,,,,,,,,,,,,,,,,56,2.0164,0,0,22,22,13,1,4,×,9,4 × 9,neutral,smallerFirst,1.5,1.5,36,,,,,,,,
,,,,,,,,,,,,,,,767,2022-01-19_23h16.35.249,multiplicationStroop,2021.2.3,Win32,60.22645146,,,,,,,,,,,,,,,,,,,,,,,,,,,,,,,,,10,1.6495,1,0,23,23,18,1,5,×,2,5 × 2,neutral,largerFirst,1.5,1.5,10,,,,,,,,
,,,,,,,,,,,,,,,767,2022-01-19_23h16.35.249,multiplicationStroop,2021.2.3,Win32,60.22645146,,,,,,,,,,,,,,,,,,,,,,,,,,,,,,,,,8,1.8662,1,0,24,24,17,1,4,×,2,4 × 2,neutral,largerFirst,1.5,1.5,8,,,,,,,,
,,,,,,,,,,,,,,,767,2022-01-19_23h16.35.249,multiplicationStroop,2021.2.3,Win32,60.22645146,,,,,,,,,,,,,,,,,,,,,,,,,,,,,,,,,12,1.4163,1,0,25,25,7,1,3,×,4,3 × 4,neutral,smallerFirst,1.5,1.5,12,,,,,,,,
,,,,,,,,,,,,,,,767,2022-01-19_23h16.35.249,multiplicationStroop,2021.2.3,Win32,60.22645146,,,,,,,,,,,,,,,,,,,,,,,,,,,,,,,,,27,2.2659,1,0,26,26,0,1,3,×,9,3 × 9,neutral,smallerFirst,1.5,1.5,27,,,,,,,,
,,,,,,,,,,,,,,,767,2022-01-19_23h16.35.249,multiplicationStroop,2021.2.3,Win32,60.22645146,,,,,,,,,,,,,,,,,,,,,,,,,,,,,,,,,40,1.9757,1,0,27,27,10,1,5,×,8,5 × 8,neutral,smallerFirst,1.5,1.5,40,,,,,,,,
,,,,,,,,,,,,,,,767,2022-01-19_23h16.35.249,multiplicationStroop,2021.2.3,Win32,60.22645146,,,,,,,,,,,,,,,,,,,,,,,,,,,,,,,,,72,2.3497,1,0,28,28,25,1,9,×,8,9 × 8,neutral,largerFirst,1.5,1.5,72,,,,,,,,
,,,,,,,,,,,,,,,767,2022-01-19_23h16.35.249,multiplicationStroop,2021.2.3,Win32,60.22645146,,,,,,,,,,,,,,,,,,,,,,,,,,,,,,,,,54,1.7331,0,0,29,29,1,1,6,×,8,6 × 8,neutral,smallerFirst,1.5,1.5,48,,,,,,,,
,,,,,,,,,,,,,,,767,2022-01-19_23h16.35.249,multiplicationStroop,2021.2.3,Win32,60.22645146,,,,,,,,,,,,,,,,,,,,,,,,,,,,,,,,,54,1.7995,1,0,30,30,21,1,9,×,6,9 × 6,neutral,largerFirst,1.5,1.5,54,,,,,,,,
,,,,,,,,,,,,,,,767,2022-01-19_23h16.35.249,multiplicationStroop,2021.2.3,Win32,60.22645146,,,,,,,,,,,,,,,,,,,,,,,,,,,,,,,,,45,2.0831,1,0,31,31,24,1,9,×,5,9 × 5,neutral,largerFirst,1.5,1.5,45,,,,,,,,
,,,,,,,,,,,,,,,767,2022-01-19_23h16.35.249,multiplicationStroop,2021.2.3,Win32,60.22645146,,,,,,,,,,,,,,,,,,,,,,,,,,,,,,,,,12,1.6085,0,0,32,32,19,1,5,×,3,5 × 3,neutral,largerFirst,1.5,1.5,15,,,,,,,,
,,,,,,,,,,,,,,,767,2022-01-19_23h16.35.249,multiplicationStroop,2021.2.3,Win32,60.22645146,,,,,,,,,,,,,,,,,,,,,,,,,,,,,,,,,25,2.8499,1,0,33,33,31,1,5,×,5,5 × 5,neutral,tie,1.5,1.5,25,,,,,,,,
,,,,,,,,,,,,,,,767,2022-01-19_23h16.35.249,multiplicationStroop,2021.2.3,Win32,60.22645146,,,,,,,,,,,,,,,,,,,,,,,,,,,,,,,,,24,1.6756,1,0,34,34,8,1,3,×,8,3 × 8,neutral,smallerFirst,1.5,1.5,24,,,,,,,,
,,,,,,,,,,,,,,,767,2022-01-19_23h16.35.249,multiplicationStroop,2021.2.3,Win32,60.22645146,,,,,,,,,,,,,,,,,,,,,,,,,,,,,,,,,30,1.9163,1,0,35,35,5,1,5,×,6,5 × 6,neutral,smallerFirst,1.5,1.5,30,,,,,,,,
,,,,,,,,,,,,,,,767,2022-01-19_23h16.35.249,multiplicationStroop,2021.2.3,Win32,60.22645146,,,,,,,,,,,,,,,,,,,,,,,,,,,,,,,,,,,,,,,,,,,,,,,,,,0,2,2,0,1,stimulusFile/mult_blk1.xlsx,,
,,,,,,,,,,,,,,,767,2022-01-19_23h16.35.249,multiplicationStroop,2021.2.3,Win32,60.22645146,,,,,,,,,,,,,,,,,,,,,,,,,,,,,,,space,0.9151,54,1.9821,0,0,0,0,6,1,4,×,6,4 × 6,incongruent,smallerFirst,2,1,24,,,,,,,,
,,,,,,,,,,,,,,,767,2022-01-19_23h16.35.249,multiplicationStroop,2021.2.3,Win32,60.22645146,,,,,,,,,,,,,,,,,,,,,,,,,,,,,,,,,31,1.5988,0,0,1,1,21,1,8,×,4,8 × 4,incongruent,largerFirst,1,2,32,,,,,,,,
,,,,,,,,,,,,,,,767,2022-01-19_23h16.35.249,multiplicationStroop,2021.2.3,Win32,60.22645146,,,,,,,,,,,,,,,,,,,,,,,,,,,,,,,,,10,2.2664,1,0,2,2,7,1,2,×,5,2 × 5,incongruent,smallerFirst,2,1,10,,,,,,,,
,,,,,,,,,,,,,,,767,2022-01-19_23h16.35.249,multiplicationStroop,2021.2.3,Win32,60.22645146,,,,,,,,,,,,,,,,,,,,,,,,,,,,,,,,,54,1.8996,1,0,3,3,20,1,9,×,6,9 × 6,incongruent,largerFirst,1,2,54,,,,,,,,
,,,,,,,,,,,,,,,767,2022-01-19_23h16.35.249,multiplicationStroop,2021.2.3,Win32,60.22645146,,,,,,,,,,,,,,,,,,,,,,,,,,,,,,,,,81,3.0329,1,0,4,4,35,1,9,×,9,9 × 9,neutral,tie,2,1,81,,,,,,,,
,,,,,,,,,,,,,,,767,2022-01-19_23h16.35.249,multiplicationStroop,2021.2.3,Win32,60.22645146,,,,,,,,,,,,,,,,,,,,,,,,,,,,,,,,,6,1.933,1,0,5,5,25,1,3,×,2,3 × 2,incongruent,largerFirst,1,2,6,,,,,,,,
,,,,,,,,,,,,,,,767,2022-01-19_23h16.35.249,multiplicationStroop,2021.2.3,Win32,60.22645146,,,,,,,,,,,,,,,,,,,,,,,,,,,,,,,,,18,2.3161,1,0,6,6,16,1,9,×,2,9 × 2,incongruent,largerFirst,1,2,18,,,,,,,,
,,,,,,,,,,,,,,,767,2022-01-19_23h16.35.249,multiplicationStroop,2021.2.3,Win32,60.22645146,,,,,,,,,,,,,,,,,,,,,,,,,,,,,,,,,16,1.9257,1,0,7,7,30,1,4,×,4,4 × 4,neutral,tie,2,1,16,,,,,,,,
,,,,,,,,,,,,,,,767,2022-01-19_23h16.35.249,multiplicationStroop,2021.2.3,Win32,60.22645146,,,,,,,,,,,,,,,,,,,,,,,,,,,,,,,,,15,1.6995,1,0,8,8,24,1,5,×,3,5 × 3,incongruent,largerFirst,1,2,15,,,,,,,,
,,,,,,,,,,,,,,,767,2022-01-19_23h16.35.249,multiplicationStroop,2021.2.3,Win32,60.22645146,,,,,,,,,,,,,,,,,,,,,,,,,,,,,,,,,64,2.083,1,0,9,9,34,1,8,×,8,8 × 8,neutral,tie,2,1,64,,,,,,,,
,,,,,,,,,,,,,,,767,2022-01-19_23h16.35.249,multiplicationStroop,2021.2.3,Win32,60.22645146,,,,,,,,,,,,,,,,,,,,,,,,,,,,,,,,,32,1.9831,0,0,10,10,2,1,4,×,7,4 × 7,incongruent,smallerFirst,2,1,28,,,,,,,,
,,,,,,,,,,,,,,,767,2022-01-19_23h16.35.249,multiplicationStroop,2021.2.3,Win32,60.22645146,,,,,,,,,,,,,,,,,,,,,,,,,,,,,,,,,54,2.0493,0,0,11,11,17,1,9,×,7,9 × 7,incongruent,largerFirst,1,2,63,,,,,,,,
,,,,,,,,,,,,,,,767,2022-01-19_23h16.35.249,multiplicationStroop,2021.2.3,Win32,60.22645146,,,,,,,,,,,,,,,,,,,,,,,,,,,,,,,,,18,2.2164,1,0,12,12,22,1,6,×,3,6 × 3,incongruent,largerFirst,1,2,18,,,,,,,,
,,,,,,,,,,,,,,,767,2022-01-19_23h16.35.249,multiplicationStroop,2021.2.3,Win32,60.22645146,,,,,,,,,,,,,,,,,,,,,,,,,,,,,,,,,12,1.7922,1,0,13,13,5,1,2,×,6,2 × 6,incongruent,smallerFirst,2,1,12,,,,,,,,
,,,,,,,,,,,,,,,767,2022-01-19_23h16.35.249,multiplicationStroop,2021.2.3,Win32,60.22645146,,,,,,,,,,,,,,,,,,,,,,,,,,,,,,,,,54,1.7828,0,0,14,14,32,1,6,×,6,6 × 6,neutral,tie,2,1,36,,,,,,,,
,,,,,,,,,,,,,,,767,2022-01-19_23h16.35.249,multiplicationStroop,2021.2.3,Win32,60.22645146,,,,,,,,,,,,,,,,,,,,,,,,,,,,,,,,,25,1.9496,1,0,15,15,31,1,5,×,5,5 × 5,neutral,tie,2,1,25,,,,,,,,
,,,,,,,,,,,,,,,767,2022-01-19_23h16.35.249,multiplicationStroop,2021.2.3,Win32,60.22645146,,,,,,,,,,,,,,,,,,,,,,,,,,,,,,,,,40,2.1498,1,0,16,16,27,1,8,×,5,8 × 5,incongruent,largerFirst,1,2,40,,,,,,,,
,,,,,,,,,,,,,,,767,2022-01-19_23h16.35.249,multiplicationStroop,2021.2.3,Win32,60.22645146,,,,,,,,,,,,,,,,,,,,,,,,,,,,,,,,,12,1.8493,1,0,17,17,19,1,4,×,3,4 × 3,incongruent,largerFirst,1,2,12,,,,,,,,
,,,,,,,,,,,,,,,767,2022-01-19_23h16.35.249,multiplicationStroop,2021.2.3,Win32,60.22645146,,,,,,,,,,,,,,,,,,,,,,,,,,,,,,,,,9,1.9831,1,0,18,18,29,1,3,×,3,3 × 3,neutral,tie,2,1,9,,,,,,,,
,,,,,,,,,,,,,,,767,2022-01-19_23h16.35.249,multiplicationStroop,2021.2.3,Win32,60.22645146,,,,,,,,,,,,,,,,,,,,,,,,,,,,,,,,,54,1.6828,0,0,19,19,15,1,8,×,6,8 × 6,incongruent,largerFirst,1,2,48,,,,,,,,
,,,,,,,,,,,,,,,767,2022-01-19_23h16.35.249,multiplicationStroop,2021.2.3,Win32,60.22645146,,,,,,,,,,,,,,,,,,,,,,,,,,,,,,,,,8,3.7327,1,0,20,20,10,1,2,×,4,2 × 4,incongruent,smallerFirst,2,1,8,,,,,,,,
,,,,,,,,,,,,,,,767,2022-01-19_23h16.35.249,multiplicationStroop,2021.2.3,Win32,60.22645146,,,,,,,,,,,,,,,,,,,,,,,,,,,,,,,,,45,1.5923,1,0,21,21,8,1,5,×,9,5 × 9,incongruent,smallerFirst,2,1,45,,,,,,,,
,,,,,,,,,,,,,,,767,2022-01-19_23h16.35.249,multiplicationStroop,2021.2.3,Win32,60.22645146,,,,,,,,,,,,,,,,,,,,,,,,,,,,,,,,,54,1.7662,0,0,22,22,0,1,7,×,8,7 × 8,incongruent,smallerFirst,2,1,56,,,,,,,,
,,,,,,,,,,,,,,,767,2022-01-19_23h16.35.249,multiplicationStroop,2021.2.3,Win32,60.22645146,,,,,,,,,,,,,,,,,,,,,,,,,,,,,,,,,21,3.1996,1,0,23,23,12,1,3,×,7,3 × 7,incongruent,smallerFirst,2,1,21,,,,,,,,
,,,,,,,,,,,,,,,767,2022-01-19_23h16.35.249,multiplicationStroop,2021.2.3,Win32,60.22645146,,,,,,,,,,,,,,,,,,,,,,,,,,,,,,,,,30,2.8665,1,0,24,24,11,1,5,×,6,5 × 6,incongruent,smallerFirst,2,1,30,,,,,,,,
,,,,,,,,,,,,,,,767,2022-01-19_23h16.35.249,multiplicationStroop,2021.2.3,Win32,60.22645146,,,,,,,,,,,,,,,,,,,,,,,,,,,,,,,,,16,8.5421,1,0,25,25,9,1,2,×,8,2 × 8,incongruent,smallerFirst,2,1,16,,,,,,,,
,,,,,,,,,,,,,,,767,2022-01-19_23h16.35.249,multiplicationStroop,2021.2.3,Win32,60.22645146,,,,,,,,,,,,,,,,,,,,,,,,,,,,,,,,,35,1.8585,1,0,26,26,26,1,7,×,5,7 × 5,incongruent,largerFirst,1,2,35,,,,,,,,
,,,,,,,,,,,,,,,767,2022-01-19_23h16.35.249,multiplicationStroop,2021.2.3,Win32,60.22645146,,,,,,,,,,,,,,,,,,,,,,,,,,,,,,,,,27,2.4166,1,0,27,27,4,1,3,×,9,3 × 9,incongruent,smallerFirst,2,1,27,,,,,,,,
,,,,,,,,,,,,,,,767,2022-01-19_23h16.35.249,multiplicationStroop,2021.2.3,Win32,60.22645146,,,,,,,,,,,,,,,,,,,,,,,,,,,,,,,,,72,2.759,1,0,28,28,14,1,9,×,8,9 × 8,incongruent,largerFirst,1,2,72,,,,,,,,
,,,,,,,,,,,,,,,767,2022-01-19_23h16.35.249,multiplicationStroop,2021.2.3,Win32,60.22645146,,,,,,,,,,,,,,,,,,,,,,,,,,,,,,,,,54,2.4997,0,0,29,29,3,1,6,×,7,6 × 7,incongruent,smallerFirst,2,1,42,,,,,,,,
,,,,,,,,,,,,,,,767,2022-01-19_23h16.35.249,multiplicationStroop,2021.2.3,Win32,60.22645146,,,,,,,,,,,,,,,,,,,,,,,,,,,,,,,,,4,1.8494,1,0,30,30,28,1,2,×,2,2 × 2,neutral,tie,2,1,4,,,,,,,,
,,,,,,,,,,,,,,,767,2022-01-19_23h16.35.249,multiplicationStroop,2021.2.3,Win32,60.22645146,,,,,,,,,,,,,,,,,,,,,,,,,,,,,,,,,24,2.3829,1,0,31,31,23,1,8,×,3,8 × 3,incongruent,largerFirst,1,2,24,,,,,,,,
,,,,,,,,,,,,,,,767,2022-01-19_23h16.35.249,multiplicationStroop,2021.2.3,Win32,60.22645146,,,,,,,,,,,,,,,,,,,,,,,,,,,,,,,,,20,1.9496,1,0,32,32,13,1,4,×,5,4 × 5,incongruent,smallerFirst,2,1,20,,,,,,,,
,,,,,,,,,,,,,,,767,2022-01-19_23h16.35.249,multiplicationStroop,2021.2.3,Win32,60.22645146,,,,,,,,,,,,,,,,,,,,,,,,,,,,,,,,,49,2.5499,1,0,33,33,33,1,7,×,7,7 × 7,neutral,tie,2,1,49,,,,,,,,
,,,,,,,,,,,,,,,767,2022-01-19_23h16.35.249,multiplicationStroop,2021.2.3,Win32,60.22645146,,,,,,,,,,,,,,,,,,,,,,,,,,,,,,,,,14,2.5421,1,0,34,34,18,1,7,×,2,7 × 2,incongruent,largerFirst,1,2,14,,,,,,,,
,,,,,,,,,,,,,,,767,2022-01-19_23h16.35.249,multiplicationStroop,2021.2.3,Win32,60.22645146,,,,,,,,,,,,,,,,,,,,,,,,,,,,,,,,,57,2.8496,0,0,35,35,1,1,4,×,9,4 × 9,incongruent,smallerFirst,2,1,36,,,,,,,,
,,,,,,,,,,,,,,,767,2022-01-19_23h16.35.249,multiplicationStroop,2021.2.3,Win32,60.22645146,,,,,,,,,,,,,,,,,,,,,,,,,,,,,,,,,,,,,,,,,,,,,,,,,,0,3,3,4,1,stimulusFile/mult_blk5_INcongruent.xlsx,,
,,,,,,,,,,,,,,,767,2022-01-19_23h16.35.249,multiplicationStroop,2021.2.3,Win32,60.22645146,,,,,,,,,,,,,,,,,,,,,,,,,,,,,,,space,1.5667,25,1.6733,1,0,0,0,31,1,5,×,5,5 × 5,incongruent,tie,1,2,25,,,,,,,,
,,,,,,,,,,,,,,,767,2022-01-19_23h16.35.249,multiplicationStroop,2021.2.3,Win32,60.22645146,,,,,,,,,,,,,,,,,,,,,,,,,,,,,,,,,49,2.3332,1,0,1,1,33,1,7,×,7,7 × 7,incongruent,tie,1,2,49,,,,,,,,
,,,,,,,,,,,,,,,767,2022-01-19_23h16.35.249,multiplicationStroop,2021.2.3,Win32,60.22645146,,,,,,,,,,,,,,,,,,,,,,,,,,,,,,,,,2,1.5494,0,0,2,2,26,1,7,×,3,7 × 3,incongruent,largerFirst,1,2,21,,,,,,,,
,,,,,,,,,,,,,,,767,2022-01-19_23h16.35.249,multiplicationStroop,2021.2.3,Win32,60.22645146,,,,,,,,,,,,,,,,,,,,,,,,,,,,,,,,,24,2.7663,1,0,3,3,9,1,3,×,8,3 × 8,incongruent,smallerFirst,2,1,24,,,,,,,,
,,,,,,,,,,,,,,,767,2022-01-19_23h16.35.249,multiplicationStroop,2021.2.3,Win32,60.22645146,,,,,,,,,,,,,,,,,,,,,,,,,,,,,,,,,81,2.7664,1,0,4,4,35,1,9,×,9,9 × 9,incongruent,tie,1,2,81,,,,,,,,
,,,,,,,,,,,,,,,767,2022-01-19_23h16.35.249,multiplicationStroop,2021.2.3,Win32,60.22645146,,,,,,,,,,,,,,,,,,,,,,,,,,,,,,,,,6,1.759,1,0,5,5,11,1,2,×,3,2 × 3,incongruent,smallerFirst,2,1,6,,,,,,,,
,,,,,,,,,,,,,,,767,2022-01-19_23h16.35.249,multiplicationStroop,2021.2.3,Win32,60.22645146,,,,,,,,,,,,,,,,,,,,,,,,,,,,,,,,,54,1.8992,1,0,6,6,6,1,6,×,9,6 × 9,incongruent,smallerFirst,2,1,54,,,,,,,,
,,,,,,,,,,,,,,,767,2022-01-19_23h16.35.249,multiplicationStroop,2021.2.3,Win32,60.22645146,,,,,,,,,,,,,,,,,,,,,,,,,,,,,,,,,12,1.4168,1,0,7,7,5,1,3,×,4,3 × 4,incongruent,smallerFirst,2,1,12,,,,,,,,
,,,,,,,,,,,,,,,767,2022-01-19_23h16.35.249,multiplicationStroop,2021.2.3,Win32,60.22645146,,,,,,,,,,,,,,,,,,,,,,,,,,,,,,,,,35,2.5828,1,0,8,8,12,1,5,×,7,5 × 7,incongruent,smallerFirst,2,1,35,,,,,,,,
,,,,,,,,,,,,,,,767,2022-01-19_23h16.35.249,multiplicationStroop,2021.2.3,Win32,60.22645146,,,,,,,,,,,,,,,,,,,,,,,,,,,,,,,,,12,1.3831,1,0,9,9,19,1,6,×,2,6 × 2,incongruent,largerFirst,1,2,12,,,,,,,,
,,,,,,,,,,,,,,,767,2022-01-19_23h16.35.249,multiplicationStroop,2021.2.3,Win32,60.22645146,,,,,,,,,,,,,,,,,,,,,,,,,,,,,,,,,20,2.0495,1,0,10,10,27,1,5,×,4,5 × 4,incongruent,largerFirst,1,2,20,,,,,,,,
,,,,,,,,,,,,,,,767,2022-01-19_23h16.35.249,multiplicationStroop,2021.2.3,Win32,60.22645146,,,,,,,,,,,,,,,,,,,,,,,,,,,,,,,,,8,1.9664,1,0,11,11,24,1,4,×,2,4 × 2,incongruent,largerFirst,1,2,8,,,,,,,,
,,,,,,,,,,,,,,,767,2022-01-19_23h16.35.249,multiplicationStroop,2021.2.3,Win32,60.22645146,,,,,,,,,,,,,,,,,,,,,,,,,,,,,,,,,15,1.5329,1,0,12,12,10,1,3,×,5,3 × 5,incongruent,smallerFirst,2,1,15,,,,,,,,
,,,,,,,,,,,,,,,767,2022-01-19_23h16.35.249,multiplicationStroop,2021.2.3,Win32,60.22645146,,,,,,,,,,,,,,,,,,,,,,,,,,,,,,,,,57,2.4995,0,0,13,13,15,1,9,×,4,9 × 4,incongruent,largerFirst,1,2,36,,,,,,,,
,,,,,,,,,,,,,,,767,2022-01-19_23h16.35.249,multiplicationStroop,2021.2.3,Win32,60.22645146,,,,,,,,,,,,,,,,,,,,,,,,,,,,,,,,,42,2.1162,1,0,14,14,17,1,7,×,6,7 × 6,incongruent,largerFirst,1,2,42,,,,,,,,
,,,,,,,,,,,,,,,767,2022-01-19_23h16.35.249,multiplicationStroop,2021.2.3,Win32,60.22645146,,,,,,,,,,,,,,,,,,,,,,,,,,,,,,,,,54,2.1829,0,0,15,15,3,1,7,×,9,7 × 9,incongruent,smallerFirst,2,1,63,,,,,,,,
,,,,,,,,,,,,,,,767,2022-01-19_23h16.35.249,multiplicationStroop,2021.2.3,Win32,60.22645146,,,,,,,,,,,,,,,,,,,,,,,,,,,,,,,,,45,1.7831,1,0,16,16,22,1,9,×,5,9 × 5,incongruent,largerFirst,1,2,45,,,,,,,,
,,,,,,,,,,,,,,,767,2022-01-19_23h16.35.249,multiplicationStroop,2021.2.3,Win32,60.22645146,,,,,,,,,,,,,,,,,,,,,,,,,,,,,,,,,64,2.1663,1,0,17,17,34,1,8,×,8,8 × 8,incongruent,tie,1,2,64,,,,,,,,
,,,,,,,,,,,,,,,767,2022-01-19_23h16.35.249,multiplicationStroop,2021.2.3,Win32,60.22645146,,,,,,,,,,,,,,,,,,,,,,,,,,,,,,,,,14,1.7663,1,0,18,18,4,1,2,×,7,2 × 7,incongruent,smallerFirst,2,1,14,,,,,,,,
,,,,,,,,,,,,,,,767,2022-01-19_23h16.35.249,multiplicationStroop,2021.2.3,Win32,60.22645146,,,,,,,,,,,,,,,,,,,,,,,,,,,,,,,,,16,1.7661,1,0,19,19,30,1,4,×,4,4 × 4,incongruent,tie,1,2,16,,,,,,,,
,,,,,,,,,,,,,,,767,2022-01-19_23h16.35.249,multiplicationStroop,2021.2.3,Win32,60.22645146,,,,,,,,,,,,,,,,,,,,,,,,,,,,,,,,,72,2.2163,1,0,20,20,0,1,8,×,9,8 × 9,incongruent,smallerFirst,2,1,72,,,,,,,,
,,,,,,,,,,,,,,,767,2022-01-19_23h16.35.249,multiplicationStroop,2021.2.3,Win32,60.22645146,,,,,,,,,,,,,,,,,,,,,,,,,,,,,,,,,554,1.6829,0,0,21,21,32,1,6,×,6,6 × 6,incongruent,tie,1,2,36,,,,,,,,
,,,,,,,,,,,,,,,767,2022-01-19_23h16.35.249,multiplicationStroop,2021.2.3,Win32,60.22645146,,,,,,,,,,,,,,,,,,,,,,,,,,,,,,,,,16,2.3326,1,0,22,22,23,1,8,×,2,8 × 2,incongruent,largerFirst,1,2,16,,,,,,,,
,,,,,,,,,,,,,,,767,2022-01-19_23h16.35.249,multiplicationStroop,2021.2.3,Win32,60.22645146,,,,,,,,,,,,,,,,,,,,,,,,,,,,,,,,,21,2.3831,0,0,23,23,18,1,9,×,3,9 × 3,incongruent,largerFirst,1,2,27,,,,,,,,
,,,,,,,,,,,,,,,767,2022-01-19_23h16.35.249,multiplicationStroop,2021.2.3,Win32,60.22645146,,,,,,,,,,,,,,,,,,,,,,,,,,,,,,,,,4,1.5997,1,0,24,24,28,1,2,×,2,2 × 2,incongruent,tie,1,2,4,,,,,,,,
,,,,,,,,,,,,,,,767,2022-01-19_23h16.35.249,multiplicationStroop,2021.2.3,Win32,60.22645146,,,,,,,,,,,,,,,,,,,,,,,,,,,,,,,,,56,1.866,1,0,25,25,14,1,8,×,7,8 × 7,incongruent,largerFirst,1,2,56,,,,,,,,
,,,,,,,,,,,,,,,767,2022-01-19_23h16.35.249,multiplicationStroop,2021.2.3,Win32,60.22645146,,,,,,,,,,,,,,,,,,,,,,,,,,,,,,,,,18,3.7998,1,0,26,26,8,1,3,×,6,3 × 6,incongruent,smallerFirst,2,1,18,,,,,,,,
,,,,,,,,,,,,,,,767,2022-01-19_23h16.35.249,multiplicationStroop,2021.2.3,Win32,60.22645146,,,,,,,,,,,,,,,,,,,,,,,,,,,,,,,,,10,1.7593,1,0,27,27,21,1,5,×,2,5 × 2,incongruent,largerFirst,1,2,10,,,,,,,,
,,,,,,,,,,,,,,,767,2022-01-19_23h16.35.249,multiplicationStroop,2021.2.3,Win32,60.22645146,,,,,,,,,,,,,,,,,,,,,,,,,,,,,,,,,32,4.0662,1,0,28,28,7,1,4,×,8,4 × 8,incongruent,smallerFirst,2,1,32,,,,,,,,
,,,,,,,,,,,,,,,767,2022-01-19_23h16.35.249,multiplicationStroop,2021.2.3,Win32,60.22645146,,,,,,,,,,,,,,,,,,,,,,,,,,,,,,,,,18,1.7423,1,0,29,29,2,1,2,×,9,2 × 9,incongruent,smallerFirst,2,1,18,,,,,,,,
,,,,,,,,,,,,,,,767,2022-01-19_23h16.35.249,multiplicationStroop,2021.2.3,Win32,60.22645146,,,,,,,,,,,,,,,,,,,,,,,,,,,,,,,,,40,1.7999,1,0,30,30,13,1,5,×,8,5 × 8,incongruent,smallerFirst,2,1,40,,,,,,,,
,,,,,,,,,,,,,,,767,2022-01-19_23h16.35.249,multiplicationStroop,2021.2.3,Win32,60.22645146,,,,,,,,,,,,,,,,,,,,,,,,,,,,,,,,,9,1.7496,1,0,31,31,29,1,3,×,3,3 × 3,incongruent,tie,1,2,9,,,,,,,,
,,,,,,,,,,,,,,,767,2022-01-19_23h16.35.249,multiplicationStroop,2021.2.3,Win32,60.22645146,,,,,,,,,,,,,,,,,,,,,,,,,,,,,,,,,45,2.0995,0,0,32,32,16,1,7,×,4,7 × 4,incongruent,largerFirst,1,2,28,,,,,,,,
,,,,,,,,,,,,,,,767,2022-01-19_23h16.35.249,multiplicationStroop,2021.2.3,Win32,60.22645146,,,,,,,,,,,,,,,,,,,,,,,,,,,,,,,,,24,2.9164,1,0,33,33,20,1,6,×,4,6 × 4,incongruent,largerFirst,1,2,24,,,,,,,,
,,,,,,,,,,,,,,,767,2022-01-19_23h16.35.249,multiplicationStroop,2021.2.3,Win32,60.22645146,,,,,,,,,,,,,,,,,,,,,,,,,,,,,,,,,52,2.566,0,0,34,34,1,1,6,×,8,6 × 8,incongruent,smallerFirst,2,1,48,,,,,,,,
,,,,,,,,,,,,,,,767,2022-01-19_23h16.35.249,multiplicationStroop,2021.2.3,Win32,60.22645146,,,,,,,,,,,,,,,,,,,,,,,,,,,,,,,,,30,2.8832,1,0,35,35,25,1,6,×,5,6 × 5,incongruent,largerFirst,1,2,30,,,,,,,,
,,,,,,,,,,,,,,,767,2022-01-19_23h16.35.249,multiplicationStroop,2021.2.3,Win32,60.22645146,,,,,,,,,,,,,,,,,,,,,,,,,,,,,,,,,,,,,,,,,,,,,,,,,,0,4,4,5,1,stimulusFile/mult_blk6_INcongruent.xlsx,,
,,,,,,,,,,,,,,,767,2022-01-19_23h16.35.249,multiplicationStroop,2021.2.3,Win32,60.22645146,,,,,,,,,,,,,,,,,,,,,,,,,,,,,,,space,0.8356,72,2.667,1,0,0,0,3,1,8,×,9,8 × 9,congruent,smallerFirst,1,2,72,,,,,,,,
,,,,,,,,,,,,,,,767,2022-01-19_23h16.35.249,multiplicationStroop,2021.2.3,Win32,60.22645146,,,,,,,,,,,,,,,,,,,,,,,,,,,,,,,,,24,3.559,1,0,1,1,11,1,4,×,6,4 × 6,congruent,smallerFirst,1,2,24,,,,,,,,
,,,,,,,,,,,,,,,767,2022-01-19_23h16.35.249,multiplicationStroop,2021.2.3,Win32,60.22645146,,,,,,,,,,,,,,,,,,,,,,,,,,,,,,,,,9,1.7827,1,0,2,2,29,1,3,×,3,3 × 3,neutral,tie,1,2,9,,,,,,,,
,,,,,,,,,,,,,,,767,2022-01-19_23h16.35.249,multiplicationStroop,2021.2.3,Win32,60.22645146,,,,,,,,,,,,,,,,,,,,,,,,,,,,,,,,,46,2.1158,0,0,3,3,33,1,7,×,7,7 × 7,neutral,tie,1,2,49,,,,,,,,
,,,,,,,,,,,,,,,767,2022-01-19_23h16.35.249,multiplicationStroop,2021.2.3,Win32,60.22645146,,,,,,,,,,,,,,,,,,,,,,,,,,,,,,,,,54,1.5994,0,0,4,4,7,1,7,×,9,7 × 9,congruent,smallerFirst,1,2,63,,,,,,,,
,,,,,,,,,,,,,,,767,2022-01-19_23h16.35.249,multiplicationStroop,2021.2.3,Win32,60.22645146,,,,,,,,,,,,,,,,,,,,,,,,,,,,,,,,,16,1.9494,1,0,5,5,30,1,4,×,4,4 × 4,neutral,tie,1,2,16,,,,,,,,
,,,,,,,,,,,,,,,767,2022-01-19_23h16.35.249,multiplicationStroop,2021.2.3,Win32,60.22645146,,,,,,,,,,,,,,,,,,,,,,,,,,,,,,,,,30,2.0652,1,0,6,6,1,1,5,×,6,5 × 6,congruent,smallerFirst,1,2,30,,,,,,,,
,,,,,,,,,,,,,,,767,2022-01-19_23h16.35.249,multiplicationStroop,2021.2.3,Win32,60.22645146,,,,,,,,,,,,,,,,,,,,,,,,,,,,,,,,,42,1.5664,0,0,7,7,4,1,6,×,8,6 × 8,congruent,smallerFirst,1,2,48,,,,,,,,
,,,,,,,,,,,,,,,767,2022-01-19_23h16.35.249,multiplicationStroop,2021.2.3,Win32,60.22645146,,,,,,,,,,,,,,,,,,,,,,,,,,,,,,,,,10,1.7499,1,0,8,8,10,1,2,×,5,2 × 5,congruent,smallerFirst,1,2,10,,,,,,,,
,,,,,,,,,,,,,,,767,2022-01-19_23h16.35.249,multiplicationStroop,2021.2.3,Win32,60.22645146,,,,,,,,,,,,,,,,,,,,,,,,,,,,,,,,,21,2.0329,1,0,9,9,2,1,3,×,7,3 × 7,congruent,smallerFirst,1,2,21,,,,,,,,
,,,,,,,,,,,,,,,767,2022-01-19_23h16.35.249,multiplicationStroop,2021.2.3,Win32,60.22645146,,,,,,,,,,,,,,,,,,,,,,,,,,,,,,,,,54,1.7164,0,0,10,10,32,1,6,×,6,6 × 6,neutral,tie,1,2,36,,,,,,,,
,,,,,,,,,,,,,,,767,2022-01-19_23h16.35.249,multiplicationStroop,2021.2.3,Win32,60.22645146,,,,,,,,,,,,,,,,,,,,,,,,,,,,,,,,,18,1.8829,1,0,11,11,8,1,2,×,9,2 × 9,congruent,smallerFirst,1,2,18,,,,,,,,
,,,,,,,,,,,,,,,767,2022-01-19_23h16.35.249,multiplicationStroop,2021.2.3,Win32,60.22645146,,,,,,,,,,,,,,,,,,,,,,,,,,,,,,,,,52,2.6162,0,0,12,12,13,1,4,×,7,4 × 7,congruent,smallerFirst,1,2,28,,,,,,,,
,,,,,,,,,,,,,,,767,2022-01-19_23h16.35.249,multiplicationStroop,2021.2.3,Win32,60.22645146,,,,,,,,,,,,,,,,,,,,,,,,,,,,,,,,,16,1.6161,1,0,13,13,19,1,8,×,2,8 × 2,congruent,largerFirst,2,1,16,,,,,,,,
,,,,,,,,,,,,,,,767,2022-01-19_23h16.35.249,multiplicationStroop,2021.2.3,Win32,60.22645146,,,,,,,,,,,,,,,,,,,,,,,,,,,,,,,,,15,1.5331,1,0,14,14,18,1,5,×,3,5 × 3,congruent,largerFirst,2,1,15,,,,,,,,
,,,,,,,,,,,,,,,767,2022-01-19_23h16.35.249,multiplicationStroop,2021.2.3,Win32,60.22645146,,,,,,,,,,,,,,,,,,,,,,,,,,,,,,,,,64,2.0328,1,0,15,15,34,1,8,×,8,8 × 8,neutral,tie,1,2,64,,,,,,,,
,,,,,,,,,,,,,,,767,2022-01-19_23h16.35.249,multiplicationStroop,2021.2.3,Win32,60.22645146,,,,,,,,,,,,,,,,,,,,,,,,,,,,,,,,,16,1.9996,0,0,16,16,25,1,6,×,3,6 × 3,congruent,largerFirst,2,1,18,,,,,,,,
,,,,,,,,,,,,,,,767,2022-01-19_23h16.35.249,multiplicationStroop,2021.2.3,Win32,60.22645146,,,,,,,,,,,,,,,,,,,,,,,,,,,,,,,,,32,2.1664,1,0,17,17,6,1,4,×,8,4 × 8,congruent,smallerFirst,1,2,32,,,,,,,,
,,,,,,,,,,,,,,,767,2022-01-19_23h16.35.249,multiplicationStroop,2021.2.3,Win32,60.22645146,,,,,,,,,,,,,,,,,,,,,,,,,,,,,,,,,12,1.4756,1,0,18,18,16,1,4,×,3,4 × 3,congruent,largerFirst,2,1,12,,,,,,,,
,,,,,,,,,,,,,,,767,2022-01-19_23h16.35.249,multiplicationStroop,2021.2.3,Win32,60.22645146,,,,,,,,,,,,,,,,,,,,,,,,,,,,,,,,,54,1.7828,0,0,19,19,14,1,9,×,4,9 × 4,congruent,largerFirst,2,1,36,,,,,,,,
,,,,,,,,,,,,,,,767,2022-01-19_23h16.35.249,multiplicationStroop,2021.2.3,Win32,60.22645146,,,,,,,,,,,,,,,,,,,,,,,,,,,,,,,,,40,1.816,1,0,20,20,20,1,8,×,5,8 × 5,congruent,largerFirst,2,1,40,,,,,,,,
,,,,,,,,,,,,,,,767,2022-01-19_23h16.35.249,multiplicationStroop,2021.2.3,Win32,60.22645146,,,,,,,,,,,,,,,,,,,,,,,,,,,,,,,,,14,2.1834,1,0,21,21,0,1,2,×,7,2 × 7,congruent,smallerFirst,1,2,14,,,,,,,,
,,,,,,,,,,,,,,,767,2022-01-19_23h16.35.249,multiplicationStroop,2021.2.3,Win32,60.22645146,,,,,,,,,,,,,,,,,,,,,,,,,,,,,,,,,24,1.6496,1,0,22,22,24,1,8,×,3,8 × 3,congruent,largerFirst,2,1,24,,,,,,,,
,,,,,,,,,,,,,,,767,2022-01-19_23h16.35.249,multiplicationStroop,2021.2.3,Win32,60.22645146,,,,,,,,,,,,,,,,,,,,,,,,,,,,,,,,,8,2.1329,1,0,23,23,23,1,4,×,2,4 × 2,congruent,largerFirst,2,1,8,,,,,,,,
,,,,,,,,,,,,,,,767,2022-01-19_23h16.35.249,multiplicationStroop,2021.2.3,Win32,60.22645146,,,,,,,,,,,,,,,,,,,,,,,,,,,,,,,,,4,1.3493,1,0,24,24,28,1,2,×,2,2 × 2,neutral,tie,1,2,4,,,,,,,,
,,,,,,,,,,,,,,,767,2022-01-19_23h16.35.249,multiplicationStroop,2021.2.3,Win32,60.22645146,,,,,,,,,,,,,,,,,,,,,,,,,,,,,,,,,27,2.1832,1,0,25,25,12,1,3,×,9,3 × 9,congruent,smallerFirst,1,2,27,,,,,,,,
,,,,,,,,,,,,,,,767,2022-01-19_23h16.35.249,multiplicationStroop,2021.2.3,Win32,60.22645146,,,,,,,,,,,,,,,,,,,,,,,,,,,,,,,,,54,1.7495,1,0,26,26,26,1,9,×,6,9 × 6,congruent,largerFirst,2,1,54,,,,,,,,
,,,,,,,,,,,,,,,767,2022-01-19_23h16.35.249,multiplicationStroop,2021.2.3,Win32,60.22645146,,,,,,,,,,,,,,,,,,,,,,,,,,,,,,,,,42,2.3996,0,0,27,27,22,1,8,×,7,8 × 7,congruent,largerFirst,2,1,56,,,,,,,,
,,,,,,,,,,,,,,,767,2022-01-19_23h16.35.249,multiplicationStroop,2021.2.3,Win32,60.22645146,,,,,,,,,,,,,,,,,,,,,,,,,,,,,,,,,25,1.7331,1,0,28,28,31,1,5,×,5,5 × 5,neutral,tie,1,2,25,,,,,,,,
,,,,,,,,,,,,,,,767,2022-01-19_23h16.35.249,multiplicationStroop,2021.2.3,Win32,60.22645146,,,,,,,,,,,,,,,,,,,,,,,,,,,,,,,,,54,1.733,0,0,29,29,17,1,7,×,6,7 × 6,congruent,largerFirst,2,1,42,,,,,,,,
,,,,,,,,,,,,,,,767,2022-01-19_23h16.35.249,multiplicationStroop,2021.2.3,Win32,60.22645146,,,,,,,,,,,,,,,,,,,,,,,,,,,,,,,,,81,2.2829,1,0,30,30,35,1,9,×,9,9 × 9,neutral,tie,1,2,81,,,,,,,,
,,,,,,,,,,,,,,,767,2022-01-19_23h16.35.249,multiplicationStroop,2021.2.3,Win32,60.22645146,,,,,,,,,,,,,,,,,,,,,,,,,,,,,,,,,35,2.1161,1,0,31,31,15,1,7,×,5,7 × 5,congruent,largerFirst,2,1,35,,,,,,,,
,,,,,,,,,,,,,,,767,2022-01-19_23h16.35.249,multiplicationStroop,2021.2.3,Win32,60.22645146,,,,,,,,,,,,,,,,,,,,,,,,,,,,,,,,,20,1.9664,1,0,32,32,21,1,5,×,4,5 × 4,congruent,largerFirst,2,1,20,,,,,,,,
,,,,,,,,,,,,,,,767,2022-01-19_23h16.35.249,multiplicationStroop,2021.2.3,Win32,60.22645146,,,,,,,,,,,,,,,,,,,,,,,,,,,,,,,,,12,1.9827,1,0,33,33,5,1,2,×,6,2 × 6,congruent,smallerFirst,1,2,12,,,,,,,,
,,,,,,,,,,,,,,,767,2022-01-19_23h16.35.249,multiplicationStroop,2021.2.3,Win32,60.22645146,,,,,,,,,,,,,,,,,,,,,,,,,,,,,,,,,6,2.2665,1,0,34,34,27,1,3,×,2,3 × 2,congruent,largerFirst,2,1,6,,,,,,,,
,,,,,,,,,,,,,,,767,2022-01-19_23h16.35.249,multiplicationStroop,2021.2.3,Win32,60.22645146,,,,,,,,,,,,,,,,,,,,,,,,,,,,,,,,,45,1.9328,1,0,35,35,9,1,5,×,9,5 × 9,congruent,smallerFirst,1,2,45,,,,,,,,
,,,,,,,,,,,,,,,767,2022-01-19_23h16.35.249,multiplicationStroop,2021.2.3,Win32,60.22645146,,,,,,,,,,,,,,,,,,,,,,,,,,,,,,,,,,,,,,,,,,,,,,,,,,0,5,5,3,1,stimulusFile/mult_blk4_congruent.xlsx,,
,,,,,,,,,,,,,,,767,2022-01-19_23h16.35.249,multiplicationStroop,2021.2.3,Win32,60.22645146,,,,,,,,,,,,,,,,,,,,,,,,,,,,,,,,,,,,,,,,,,,,,,,,,,,,,,,,space,1.5018