welcomeKey_resp.keys,welcomeKey_resp.rt,X Scale,Y Scale,rt_resp_4.keys,rt_resp_4.corr,rt_resp_4.rt,speedtest_2.thisRepN,speedtest_2.thisTrialN,speedtest_2.thisN,speedtest_2.thisIndex,speedtest_2.ran,numberSc,posX,positionLayout,participant,date,expName,psychopyVersion,OS,frameRate,ct_instrresp.keys,ct_instrresp.rt,key_resp_2.keys,key_resp_2.rt,ct_keyResp.keys,ct_keyResp.corr,ct_keyResp.rt,trials.thisRepN,trials.thisTrialN,trials.thisN,trials.thisIndex,trials.ran,leftNo,rightNo,displayProblem,numDistance,leftNo_size,rightNo_size,Dims,keyAnswer,TS_Loop.thisRepN,TS_Loop.thisTrialN,TS_Loop.thisN,TS_Loop.thisIndex,TS_Loop.ran,Condition,ActionInst,instrImage,mltptaskInst_resp.keys,mltptaskInst_resp.rt,continue_resp_2.keys,continue_resp_2.rt,multp_Answer,multi_RT,multiplyCorr,LoopingMultiply.thisRepN,LoopingMultiply.thisTrialN,LoopingMultiply.thisN,LoopingMultiply.thisIndex,LoopingMultiply.ran,factor1,multiplySign,factor2,multliplyProblem,physicalSize,orderOperand,sizeF1,sizeF2,mult_answer,trials_stroop.thisRepN,trials_stroop.thisTrialN,trials_stroop.thisN,trials_stroop.thisIndex,trials_stroop.ran,multiplicationFile,esckey_resp_2.keys,esckey_resp_2.rt
y,8.6616,40.2,40.5,left,1,0.6048,0,0,0,7,1,9,-200,left,769,2022-01-19_14h13.44.740,multiplicationStroop,2021.2.3,Win32,60.37189085,,,,,,,,,,,,,,,,,,,,,,,,,,,,,,,,,,,,,,,,,,,,,,,,,,,,,,,,,
,,,,left,1,0.4002,0,1,1,3,1,4,-200,left,769,2022-01-19_14h13.44.740,multiplicationStroop,2021.2.3,Win32,60.37189085,,,,,,,,,,,,,,,,,,,,,,,,,,,,,,,,,,,,,,,,,,,,,,,,,,,,,,,,,
,,,,left,1,0.3092,0,2,2,0,1,1,-200,left,769,2022-01-19_14h13.44.740,multiplicationStroop,2021.2.3,Win32,60.37189085,,,,,,,,,,,,,,,,,,,,,,,,,,,,,,,,,,,,,,,,,,,,,,,,,,,,,,,,,
,,,,right,1,0.3488,0,3,3,9,1,2,200,right,769,2022-01-19_14h13.44.740,multiplicationStroop,2021.2.3,Win32,60.37189085,,,,,,,,,,,,,,,,,,,,,,,,,,,,,,,,,,,,,,,,,,,,,,,,,,,,,,,,,
,,,,left,1,0.4603,0,4,4,1,1,2,-200,left,769,2022-01-19_14h13.44.740,multiplicationStroop,2021.2.3,Win32,60.37189085,,,,,,,,,,,,,,,,,,,,,,,,,,,,,,,,,,,,,,,,,,,,,,,,,,,,,,,,,
,,,,right,1,0.3005,0,5,5,13,1,7,200,right,769,2022-01-19_14h13.44.740,multiplicationStroop,2021.2.3,Win32,60.37189085,,,,,,,,,,,,,,,,,,,,,,,,,,,,,,,,,,,,,,,,,,,,,,,,,,,,,,,,,
,,,,left,1,0.3544,0,6,6,2,1,3,-200,left,769,2022-01-19_14h13.44.740,multiplicationStroop,2021.2.3,Win32,60.37189085,,,,,,,,,,,,,,,,,,,,,,,,,,,,,,,,,,,,,,,,,,,,,,,,,,,,,,,,,
,,,,right,1,0.3272,0,7,7,11,1,4,200,right,769,2022-01-19_14h13.44.740,multiplicationStroop,2021.2.3,Win32,60.37189085,,,,,,,,,,,,,,,,,,,,,,,,,,,,,,,,,,,,,,,,,,,,,,,,,,,,,,,,,
,,,,right,1,0.4082,0,8,8,15,1,9,200,right,769,2022-01-19_14h13.44.740,multiplicationStroop,2021.2.3,Win32,60.37189085,,,,,,,,,,,,,,,,,,,,,,,,,,,,,,,,,,,,,,,,,,,,,,,,,,,,,,,,,
,,,,right,1,0.3187,0,9,9,10,1,3,200,right,769,2022-01-19_14h13.44.740,multiplicationStroop,2021.2.3,Win32,60.37189085,,,,,,,,,,,,,,,,,,,,,,,,,,,,,,,,,,,,,,,,,,,,,,,,,,,,,,,,,
,,,,right,1,0.3045,0,10,10,14,1,8,200,right,769,2022-01-19_14h13.44.740,multiplicationStroop,2021.2.3,Win32,60.37189085,,,,,,,,,,,,,,,,,,,,,,,,,,,,,,,,,,,,,,,,,,,,,,,,,,,,,,,,,
,,,,right,1,0.315,0,11,11,8,1,1,200,right,769,2022-01-19_14h13.44.740,multiplicationStroop,2021.2.3,Win32,60.37189085,,,,,,,,,,,,,,,,,,,,,,,,,,,,,,,,,,,,,,,,,,,,,,,,,,,,,,,,,
,,,,right,1,0.3077,0,12,12,12,1,6,200,right,769,2022-01-19_14h13.44.740,multiplicationStroop,2021.2.3,Win32,60.37189085,,,,,,,,,,,,,,,,,,,,,,,,,,,,,,,,,,,,,,,,,,,,,,,,,,,,,,,,,
,,,,left,1,0.4335,0,13,13,5,1,7,-200,left,769,2022-01-19_14h13.44.740,multiplicationStroop,2021.2.3,Win32,60.37189085,,,,,,,,,,,,,,,,,,,,,,,,,,,,,,,,,,,,,,,,,,,,,,,,,,,,,,,,,
,,,,left,1,0.5856,0,14,14,4,1,6,-200,left,769,2022-01-19_14h13.44.740,multiplicationStroop,2021.2.3,Win32,60.37189085,,,,,,,,,,,,,,,,,,,,,,,,,,,,,,,,,,,,,,,,,,,,,,,,,,,,,,,,,
,,,,left,1,0.3587,0,15,15,6,1,8,-200,left,769,2022-01-19_14h13.44.740,multiplicationStroop,2021.2.3,Win32,60.37189085,,,,,,,,,,,,,,,,,,,,,,,,,,,,,,,,,,,,,,,,,,,,,,,,,,,,,,,,,
,,,,right,1,0.3758,1,0,16,10,1,3,200,right,769,2022-01-19_14h13.44.740,multiplicationStroop,2021.2.3,Win32,60.37189085,,,,,,,,,,,,,,,,,,,,,,,,,,,,,,,,,,,,,,,,,,,,,,,,,,,,,,,,,
,,,,left,1,0.3744,1,1,17,2,1,3,-200,left,769,2022-01-19_14h13.44.740,multiplicationStroop,2021.2.3,Win32,60.37189085,,,,,,,,,,,,,,,,,,,,,,,,,,,,,,,,,,,,,,,,,,,,,,,,,,,,,,,,,
,,,,right,1,0.3182,1,2,18,13,1,7,200,right,769,2022-01-19_14h13.44.740,multiplicationStroop,2021.2.3,Win32,60.37189085,,,,,,,,,,,,,,,,,,,,,,,,,,,,,,,,,,,,,,,,,,,,,,,,,,,,,,,,,
,,,,right,1,0.3578,1,3,19,8,1,1,200,right,769,2022-01-19_14h13.44.740,multiplicationStroop,2021.2.3,Win32,60.37189085,,,,,,,,,,,,,,,,,,,,,,,,,,,,,,,,,,,,,,,,,,,,,,,,,,,,,,,,,
,,,,left,1,0.4094,1,4,20,7,1,9,-200,left,769,2022-01-19_14h13.44.740,multiplicationStroop,2021.2.3,Win32,60.37189085,,,,,,,,,,,,,,,,,,,,,,,,,,,,,,,,,,,,,,,,,,,,,,,,,,,,,,,,,
,,,,right,1,0.2708,1,5,21,9,1,2,200,right,769,2022-01-19_14h13.44.740,multiplicationStroop,2021.2.3,Win32,60.37189085,,,,,,,,,,,,,,,,,,,,,,,,,,,,,,,,,,,,,,,,,,,,,,,,,,,,,,,,,
,,,,right,1,0.4619,1,6,22,11,1,4,200,right,769,2022-01-19_14h13.44.740,multiplicationStroop,2021.2.3,Win32,60.37189085,,,,,,,,,,,,,,,,,,,,,,,,,,,,,,,,,,,,,,,,,,,,,,,,,,,,,,,,,
,,,,left,1,0.4032,1,7,23,5,1,7,-200,left,769,2022-01-19_14h13.44.740,multiplicationStroop,2021.2.3,Win32,60.37189085,,,,,,,,,,,,,,,,,,,,,,,,,,,,,,,,,,,,,,,,,,,,,,,,,,,,,,,,,
,,,,left,1,0.4094,1,8,24,1,1,2,-200,left,769,2022-01-19_14h13.44.740,multiplicationStroop,2021.2.3,Win32,60.37189085,,,,,,,,,,,,,,,,,,,,,,,,,,,,,,,,,,,,,,,,,,,,,,,,,,,,,,,,,
,,,,left,1,0.3509,1,9,25,6,1,8,-200,left,769,2022-01-19_14h13.44.740,multiplicationStroop,2021.2.3,Win32,60.37189085,,,,,,,,,,,,,,,,,,,,,,,,,,,,,,,,,,,,,,,,,,,,,,,,,,,,,,,,,
,,,,right,1,0.3499,1,10,26,15,1,9,200,right,769,2022-01-19_14h13.44.740,multiplicationStroop,2021.2.3,Win32,60.37189085,,,,,,,,,,,,,,,,,,,,,,,,,,,,,,,,,,,,,,,,,,,,,,,,,,,,,,,,,
,,,,right,1,0.3011,1,11,27,14,1,8,200,right,769,2022-01-19_14h13.44.740,multiplicationStroop,2021.2.3,Win32,60.37189085,,,,,,,,,,,,,,,,,,,,,,,,,,,,,,,,,,,,,,,,,,,,,,,,,,,,,,,,,
,,,,left,1,0.4048,1,12,28,0,1,1,-200,left,769,2022-01-19_14h13.44.740,multiplicationStroop,2021.2.3,Win32,60.37189085,,,,,,,,,,,,,,,,,,,,,,,,,,,,,,,,,,,,,,,,,,,,,,,,,,,,,,,,,
,,,,left,1,0.3913,1,13,29,4,1,6,-200,left,769,2022-01-19_14h13.44.740,multiplicationStroop,2021.2.3,Win32,60.37189085,,,,,,,,,,,,,,,,,,,,,,,,,,,,,,,,,,,,,,,,,,,,,,,,,,,,,,,,,
,,,,right,1,0.3624,1,14,30,12,1,6,200,right,769,2022-01-19_14h13.44.740,multiplicationStroop,2021.2.3,Win32,60.37189085,,,,,,,,,,,,,,,,,,,,,,,,,,,,,,,,,,,,,,,,,,,,,,,,,,,,,,,,,
,,,,left,1,0.3972,1,15,31,3,1,4,-200,left,769,2022-01-19_14h13.44.740,multiplicationStroop,2021.2.3,Win32,60.37189085,,,,,,,,,,,,,,,,,,,,,,,,,,,,,,,,,,,,,,,,,,,,,,,,,,,,,,,,,
,,,,left,1,0.4876,2,0,32,4,1,6,-200,left,769,2022-01-19_14h13.44.740,multiplicationStroop,2021.2.3,Win32,60.37189085,,,,,,,,,,,,,,,,,,,,,,,,,,,,,,,,,,,,,,,,,,,,,,,,,,,,,,,,,
,,,,right,1,0.3379,2,1,33,10,1,3,200,right,769,2022-01-19_14h13.44.740,multiplicationStroop,2021.2.3,Win32,60.37189085,,,,,,,,,,,,,,,,,,,,,,,,,,,,,,,,,,,,,,,,,,,,,,,,,,,,,,,,,
,,,,left,1,0.3579,2,2,34,5,1,7,-200,left,769,2022-01-19_14h13.44.740,multiplicationStroop,2021.2.3,Win32,60.37189085,,,,,,,,,,,,,,,,,,,,,,,,,,,,,,,,,,,,,,,,,,,,,,,,,,,,,,,,,
,,,,right,1,0.2868,2,3,35,14,1,8,200,right,769,2022-01-19_14h13.44.740,multiplicationStroop,2021.2.3,Win32,60.37189085,,,,,,,,,,,,,,,,,,,,,,,,,,,,,,,,,,,,,,,,,,,,,,,,,,,,,,,,,
,,,,right,1,0.3279,2,4,36,8,1,1,200,right,769,2022-01-19_14h13.44.740,multiplicationStroop,2021.2.3,Win32,60.37189085,,,,,,,,,,,,,,,,,,,,,,,,,,,,,,,,,,,,,,,,,,,,,,,,,,,,,,,,,
,,,,right,1,0.2937,2,5,37,9,1,2,200,right,769,2022-01-19_14h13.44.740,multiplicationStroop,2021.2.3,Win32,60.37189085,,,,,,,,,,,,,,,,,,,,,,,,,,,,,,,,,,,,,,,,,,,,,,,,,,,,,,,,,
,,,,left,1,0.4094,2,6,38,7,1,9,-200,left,769,2022-01-19_14h13.44.740,multiplicationStroop,2021.2.3,Win32,60.37189085,,,,,,,,,,,,,,,,,,,,,,,,,,,,,,,,,,,,,,,,,,,,,,,,,,,,,,,,,
,,,,left,1,0.3736,2,7,39,1,1,2,-200,left,769,2022-01-19_14h13.44.740,multiplicationStroop,2021.2.3,Win32,60.37189085,,,,,,,,,,,,,,,,,,,,,,,,,,,,,,,,,,,,,,,,,,,,,,,,,,,,,,,,,
,,,,left,1,0.3061,2,8,40,6,1,8,-200,left,769,2022-01-19_14h13.44.740,multiplicationStroop,2021.2.3,Win32,60.37189085,,,,,,,,,,,,,,,,,,,,,,,,,,,,,,,,,,,,,,,,,,,,,,,,,,,,,,,,,
,,,,right,1,0.3495,2,9,41,11,1,4,200,right,769,2022-01-19_14h13.44.740,multiplicationStroop,2021.2.3,Win32,60.37189085,,,,,,,,,,,,,,,,,,,,,,,,,,,,,,,,,,,,,,,,,,,,,,,,,,,,,,,,,
,,,,right,1,0.3523,2,10,42,15,1,9,200,right,769,2022-01-19_14h13.44.740,multiplicationStroop,2021.2.3,Win32,60.37189085,,,,,,,,,,,,,,,,,,,,,,,,,,,,,,,,,,,,,,,,,,,,,,,,,,,,,,,,,
,,,,right,1,0.3448,2,11,43,13,1,7,200,right,769,2022-01-19_14h13.44.740,multiplicationStroop,2021.2.3,Win32,60.37189085,,,,,,,,,,,,,,,,,,,,,,,,,,,,,,,,,,,,,,,,,,,,,,,,,,,,,,,,,
,,,,left,1,0.3672,2,12,44,3,1,4,-200,left,769,2022-01-19_14h13.44.740,multiplicationStroop,2021.2.3,Win32,60.37189085,,,,,,,,,,,,,,,,,,,,,,,,,,,,,,,,,,,,,,,,,,,,,,,,,,,,,,,,,
,,,,left,1,0.3341,2,13,45,2,1,3,-200,left,769,2022-01-19_14h13.44.740,multiplicationStroop,2021.2.3,Win32,60.37189085,,,,,,,,,,,,,,,,,,,,,,,,,,,,,,,,,,,,,,,,,,,,,,,,,,,,,,,,,
,,,,right,1,0.3999,2,14,46,12,1,6,200,right,769,2022-01-19_14h13.44.740,multiplicationStroop,2021.2.3,Win32,60.37189085,,,,,,,,,,,,,,,,,,,,,,,,,,,,,,,,,,,,,,,,,,,,,,,,,,,,,,,,,
,,,,left,1,0.4505,2,15,47,0,1,1,-200,left,769,2022-01-19_14h13.44.740,multiplicationStroop,2021.2.3,Win32,60.37189085,,,,,,,,,,,,,,,,,,,,,,,,,,,,,,,,,,,,,,,,,,,,,,,,,,,,,,,,,
,,,,right,1,0.3507,3,0,48,8,1,1,200,right,769,2022-01-19_14h13.44.740,multiplicationStroop,2021.2.3,Win32,60.37189085,,,,,,,,,,,,,,,,,,,,,,,,,,,,,,,,,,,,,,,,,,,,,,,,,,,,,,,,,
,,,,right,1,0.3667,3,1,49,14,1,8,200,right,769,2022-01-19_14h13.44.740,multiplicationStroop,2021.2.3,Win32,60.37189085,,,,,,,,,,,,,,,,,,,,,,,,,,,,,,,,,,,,,,,,,,,,,,,,,,,,,,,,,
,,,,right,1,0.3928,3,2,50,10,1,3,200,right,769,2022-01-19_14h13.44.740,multiplicationStroop,2021.2.3,Win32,60.37189085,,,,,,,,,,,,,,,,,,,,,,,,,,,,,,,,,,,,,,,,,,,,,,,,,,,,,,,,,
,,,,left,1,0.3773,3,3,51,1,1,2,-200,left,769,2022-01-19_14h13.44.740,multiplicationStroop,2021.2.3,Win32,60.37189085,,,,,,,,,,,,,,,,,,,,,,,,,,,,,,,,,,,,,,,,,,,,,,,,,,,,,,,,,
,,,,left,1,0.3517,3,4,52,3,1,4,-200,left,769,2022-01-19_14h13.44.740,multiplicationStroop,2021.2.3,Win32,60.37189085,,,,,,,,,,,,,,,,,,,,,,,,,,,,,,,,,,,,,,,,,,,,,,,,,,,,,,,,,
,,,,right,1,0.4072,3,5,53,9,1,2,200,right,769,2022-01-19_14h13.44.740,multiplicationStroop,2021.2.3,Win32,60.37189085,,,,,,,,,,,,,,,,,,,,,,,,,,,,,,,,,,,,,,,,,,,,,,,,,,,,,,,,,
,,,,right,1,0.3178,3,6,54,11,1,4,200,right,769,2022-01-19_14h13.44.740,multiplicationStroop,2021.2.3,Win32,60.37189085,,,,,,,,,,,,,,,,,,,,,,,,,,,,,,,,,,,,,,,,,,,,,,,,,,,,,,,,,
,,,,right,1,0.337,3,7,55,15,1,9,200,right,769,2022-01-19_14h13.44.740,multiplicationStroop,2021.2.3,Win32,60.37189085,,,,,,,,,,,,,,,,,,,,,,,,,,,,,,,,,,,,,,,,,,,,,,,,,,,,,,,,,
,,,,right,1,0.3392,3,8,56,12,1,6,200,right,769,2022-01-19_14h13.44.740,multiplicationStroop,2021.2.3,Win32,60.37189085,,,,,,,,,,,,,,,,,,,,,,,,,,,,,,,,,,,,,,,,,,,,,,,,,,,,,,,,,
,,,,left,1,0.3679,3,9,57,5,1,7,-200,left,769,2022-01-19_14h13.44.740,multiplicationStroop,2021.2.3,Win32,60.37189085,,,,,,,,,,,,,,,,,,,,,,,,,,,,,,,,,,,,,,,,,,,,,,,,,,,,,,,,,
,,,,left,1,0.3504,3,10,58,7,1,9,-200,left,769,2022-01-19_14h13.44.740,multiplicationStroop,2021.2.3,Win32,60.37189085,,,,,,,,,,,,,,,,,,,,,,,,,,,,,,,,,,,,,,,,,,,,,,,,,,,,,,,,,
,,,,left,1,0.3526,3,11,59,4,1,6,-200,left,769,2022-01-19_14h13.44.740,multiplicationStroop,2021.2.3,Win32,60.37189085,,,,,,,,,,,,,,,,,,,,,,,,,,,,,,,,,,,,,,,,,,,,,,,,,,,,,,,,,
,,,,right,1,0.4105,3,12,60,13,1,7,200,right,769,2022-01-19_14h13.44.740,multiplicationStroop,2021.2.3,Win32,60.37189085,,,,,,,,,,,,,,,,,,,,,,,,,,,,,,,,,,,,,,,,,,,,,,,,,,,,,,,,,
,,,,left,1,0.5229,3,13,61,2,1,3,-200,left,769,2022-01-19_14h13.44.740,multiplicationStroop,2021.2.3,Win32,60.37189085,,,,,,,,,,,,,,,,,,,,,,,,,,,,,,,,,,,,,,,,,,,,,,,,,,,,,,,,,
,,,,left,1,0.421,3,14,62,6,1,8,-200,left,769,2022-01-19_14h13.44.740,multiplicationStroop,2021.2.3,Win32,60.37189085,,,,,,,,,,,,,,,,,,,,,,,,,,,,,,,,,,,,,,,,,,,,,,,,,,,,,,,,,
,,,,left,1,0.3607,3,15,63,0,1,1,-200,left,769,2022-01-19_14h13.44.740,multiplicationStroop,2021.2.3,Win32,60.37189085,,,,,,,,,,,,,,,,,,,,,,,,,,stimulusFile/magnitude.xlsx,,,,,,,,,,,,,,,,,,,,,,,,,,,,,,,
,,,,,,,,,,,,,,,769,2022-01-19_14h13.44.740,multiplicationStroop,2021.2.3,Win32,60.37189085,space,10.9779,space,5.887,left,1,0.8834,0,0,0,71,1,9,4,9 | 4,5,1.6933,1.6933,neutral,left,,,,,,stimulusFile/magnitude.xlsx,,,,,,,,,,,,,,,,,,,,,,,,,,,,,,,
,,,,,,,,,,,,,,,769,2022-01-19_14h13.44.740,multiplicationStroop,2021.2.3,Win32,60.37189085,,,,,left,1,0.652,0,1,1,21,1,7,2,7 | 2,5,1.9756,1.4111,congruent,left,,,,,,stimulusFile/magnitude.xlsx,,,,,,,,,,,,,,,,,,,,,,,,,,,,,,,
,,,,,,,,,,,,,,,769,2022-01-19_14h13.44.740,multiplicationStroop,2021.2.3,Win32,60.37189085,,,,,left,1,0.7055,0,2,2,14,1,8,6,8 | 6,2,1.9756,1.4111,congruent,left,,,,,,stimulusFile/magnitude.xlsx,,,,,,,,,,,,,,,,,,,,,,,,,,,,,,,
,,,,,,,,,,,,,,,769,2022-01-19_14h13.44.740,multiplicationStroop,2021.2.3,Win32,60.37189085,,,,,left,1,0.5506,0,3,3,23,1,9,4,9 | 4,5,1.9756,1.4111,congruent,left,,,,,,stimulusFile/magnitude.xlsx,,,,,,,,,,,,,,,,,,,,,,,,,,,,,,,
,,,,,,,,,,,,,,,769,2022-01-19_14h13.44.740,multiplicationStroop,2021.2.3,Win32,60.37189085,,,,,right,1,0.585,0,4,4,11,1,7,9,7 | 9,2,1.4111,1.9756,congruent,right,,,,,,stimulusFile/magnitude.xlsx,,,,,,,,,,,,,,,,,,,,,,,,,,,,,,,
,,,,,,,,,,,,,,,769,2022-01-19_14h13.44.740,multiplicationStroop,2021.2.3,Win32,60.37189085,,,,,left,1,0.583,0,5,5,5,1,4,3,4 | 3,1,1.9756,1.4111,congruent,left,,,,,,stimulusFile/magnitude.xlsx,,,,,,,,,,,,,,,,,,,,,,,,,,,,,,,
,,,,,,,,,,,,,,,769,2022-01-19_14h13.44.740,multiplicationStroop,2021.2.3,Win32,60.37189085,,,,,right,1,0.5481,0,6,6,64,1,1,6,1 | 6,5,1.6933,1.6933,neutral,right,,,,,,stimulusFile/magnitude.xlsx,,,,,,,,,,,,,,,,,,,,,,,,,,,,,,,
,,,,,,,,,,,,,,,769,2022-01-19_14h13.44.740,multiplicationStroop,2021.2.3,Win32,60.37189085,,,,,left,1,0.5115,0,7,7,20,1,6,1,6 | 1,5,1.9756,1.4111,congruent,left,,,,,,stimulusFile/magnitude.xlsx,,,,,,,,,,,,,,,,,,,,,,,,,,,,,,,
,,,,,,,,,,,,,,,769,2022-01-19_14h13.44.740,multiplicationStroop,2021.2.3,Win32,60.37189085,,,,,left,1,0.6883,0,8,8,37,1,4,2,4 | 2,2,1.4111,1.9756,incongruent,left,,,,,,stimulusFile/magnitude.xlsx,,,,,,,,,,,,,,,,,,,,,,,,,,,,,,,
,,,,,,,,,,,,,,,769,2022-01-19_14h13.44.740,multiplicationStroop,2021.2.3,Win32,60.37189085,,,,,left,1,0.635,0,9,9,55,1,9,8,9 | 8,1,1.6933,1.6933,neutral,left,,,,,,stimulusFile/magnitude.xlsx,,,,,,,,,,,,,,,,,,,,,,,,,,,,,,,
,,,,,,,,,,,,,,,769,2022-01-19_14h13.44.740,multiplicationStroop,2021.2.3,Win32,60.37189085,,,,,left,1,0.5395,0,10,10,68,1,6,1,6 | 1,5,1.6933,1.6933,neutral,left,,,,,,stimulusFile/magnitude.xlsx,,,,,,,,,,,,,,,,,,,,,,,,,,,,,,,
,,,,,,,,,,,,,,,769,2022-01-19_14h13.44.740,multiplicationStroop,2021.2.3,Win32,60.37189085,,,,,right,1,0.5837,0,11,11,42,1,3,8,3 | 8,5,1.9756,1.4111,incongruent,right,,,,,,stimulusFile/magnitude.xlsx,,,,,,,,,,,,,,,,,,,,,,,,,,,,,,,
,,,,,,,,,,,,,,,769,2022-01-19_14h13.44.740,multiplicationStroop,2021.2.3,Win32,60.37189085,,,,,right,1,0.5906,0,12,12,19,1,4,9,4 | 9,5,1.4111,1.9756,congruent,right,,,,,,stimulusFile/magnitude.xlsx,,,,,,,,,,,,,,,,,,,,,,,,,,,,,,,
,,,,,,,,,,,,,,,769,2022-01-19_14h13.44.740,multiplicationStroop,2021.2.3,Win32,60.37189085,,,,,right,1,0.5224,0,13,13,2,1,6,7,6 | 7,1,1.4111,1.9756,congruent,right,,,,,,stimulusFile/magnitude.xlsx,,,,,,,,,,,,,,,,,,,,,,,,,,,,,,,
,,,,,,,,,,,,,,,769,2022-01-19_14h13.44.740,multiplicationStroop,2021.2.3,Win32,60.37189085,,,,,right,1,0.6337,0,14,14,16,1,1,6,1 | 6,5,1.4111,1.9756,congruent,right,,,,,,stimulusFile/magnitude.xlsx,,,,,,,,,,,,,,,,,,,,,,,,,,,,,,,
,,,,,,,,,,,,,,,769,2022-01-19_14h13.44.740,multiplicationStroop,2021.2.3,Win32,60.37189085,,,,,left,1,1.3839,0,15,15,36,1,3,1,3 | 1,2,1.4111,1.9756,incongruent,left,,,,,,stimulusFile/magnitude.xlsx,,,,,,,,,,,,,,,,,,,,,,,,,,,,,,,
,,,,,,,,,,,,,,,769,2022-01-19_14h13.44.740,multiplicationStroop,2021.2.3,Win32,60.37189085,,,,,left,1,0.669,0,16,16,29,1,4,3,4 | 3,1,1.4111,1.9756,incongruent,left,,,,,,stimulusFile/magnitude.xlsx,,,,,,,,,,,,,,,,,,,,,,,,,,,,,,,
,,,,,,,,,,,,,,,769,2022-01-19_14h13.44.740,multiplicationStroop,2021.2.3,Win32,60.37189085,,,,,right,1,0.7546,0,17,17,43,1,4,9,4 | 9,5,1.9756,1.4111,incongruent,right,,,,,,stimulusFile/magnitude.xlsx,,,,,,,,,,,,,,,,,,,,,,,,,,,,,,,
,,,,,,,,,,,,,,,769,2022-01-19_14h13.44.740,multiplicationStroop,2021.2.3,Win32,60.37189085,,,,,left,1,0.9002,0,18,18,31,1,9,8,9 | 8,1,1.4111,1.9756,incongruent,left,,,,,,stimulusFile/magnitude.xlsx,,,,,,,,,,,,,,,,,,,,,,,,,,,,,,,
,,,,,,,,,,,,,,,769,2022-01-19_14h13.44.740,multiplicationStroop,2021.2.3,Win32,60.37189085,,,,,right,1,0.8339,0,19,19,9,1,2,4,2 | 4,2,1.4111,1.9756,congruent,right,,,,,,stimulusFile/magnitude.xlsx,,,,,,,,,,,,,,,,,,,,,,,,,,,,,,,
,,,,,,,,,,,,,,,769,2022-01-19_14h13.44.740,multiplicationStroop,2021.2.3,Win32,60.37189085,,,,,left,1,0.7178,0,20,20,7,1,9,8,9 | 8,1,1.9756,1.4111,congruent,left,,,,,,stimulusFile/magnitude.xlsx,,,,,,,,,,,,,,,,,,,,,,,,,,,,,,,
,,,,,,,,,,,,,,,769,2022-01-19_14h13.44.740,multiplicationStroop,2021.2.3,Win32,60.37189085,,,,,left,1,0.6929,0,21,21,47,1,9,4,9 | 4,5,1.4111,1.9756,incongruent,left,,,,,,stimulusFile/magnitude.xlsx,,,,,,,,,,,,,,,,,,,,,,,,,,,,,,,
,,,,,,,,,,,,,,,769,2022-01-19_14h13.44.740,multiplicationStroop,2021.2.3,Win32,60.37189085,,,,,right,1,0.801,0,22,22,50,1,6,7,6 | 7,1,1.6933,1.6933,neutral,right,,,,,,stimulusFile/magnitude.xlsx,,,,,,,,,,,,,,,,,,,,,,,,,,,,,,,
,,,,,,,,,,,,,,,769,2022-01-19_14h13.44.740,multiplicationStroop,2021.2.3,Win32,60.37189085,,,,,right,1,0.8998,0,23,23,32,1,1,3,1 | 3,2,1.9756,1.4111,incongruent,right,,,,,,stimulusFile/magnitude.xlsx,,,,,,,,,,,,,,,,,,,,,,,,,,,,,,,
,,,,,,,,,,,,,,,769,2022-01-19_14h13.44.740,multiplicationStroop,2021.2.3,Win32,60.37189085,,,,,right,1,0.8504,0,24,24,10,1,6,8,6 | 8,2,1.4111,1.9756,congruent,right,,,,,,stimulusFile/magnitude.xlsx,,,,,,,,,,,,,,,,,,,,,,,,,,,,,,,
,,,,,,,,,,,,,,,769,2022-01-19_14h13.44.740,multiplicationStroop,2021.2.3,Win32,60.37189085,,,,,left,1,0.7177,0,25,25,52,1,2,1,2 | 1,1,1.6933,1.6933,neutral,left,,,,,,stimulusFile/magnitude.xlsx,,,,,,,,,,,,,,,,,,,,,,,,,,,,,,,
,,,,,,,,,,,,,,,769,2022-01-19_14h13.44.740,multiplicationStroop,2021.2.3,Win32,60.37189085,,,,,right,1,0.835,0,26,26,35,1,7,9,7 | 9,2,1.9756,1.4111,incongruent,right,,,,,,stimulusFile/magnitude.xlsx,,,,,,,,,,,,,,,,,,,,,,,,,,,,,,,
,,,,,,,,,,,,,,,769,2022-01-19_14h13.44.740,multiplicationStroop,2021.2.3,Win32,60.37189085,,,,,right,1,0.5375,0,27,27,18,1,3,8,3 | 8,5,1.4111,1.9756,congruent,right,,,,,,stimulusFile/magnitude.xlsx,,,,,,,,,,,,,,,,,,,,,,,,,,,,,,,
,,,,,,,,,,,,,,,769,2022-01-19_14h13.44.740,multiplicationStroop,2021.2.3,Win32,60.37189085,,,,,left,1,0.6794,0,28,28,53,1,4,3,4 | 3,1,1.6933,1.6933,neutral,left,,,,,,stimulusFile/magnitude.xlsx,,,,,,,,,,,,,,,,,,,,,,,,,,,,,,,
,,,,,,,,,,,,,,,769,2022-01-19_14h13.44.740,multiplicationStroop,2021.2.3,Win32,60.37189085,,,,,left,1,0.6839,0,29,29,54,1,7,6,7 | 6,1,1.6933,1.6933,neutral,left,,,,,,stimulusFile/magnitude.xlsx,,,,,,,,,,,,,,,,,,,,,,,,,,,,,,,
,,,,,,,,,,,,,,,769,2022-01-19_14h13.44.740,multiplicationStroop,2021.2.3,Win32,60.37189085,,,,,right,1,0.6609,0,30,30,27,1,8,9,8 | 9,1,1.9756,1.4111,incongruent,right,,,,,,stimulusFile/magnitude.xlsx,,,,,,,,,,,,,,,,,,,,,,,,,,,,,,,
,,,,,,,,,,,,,,,769,2022-01-19_14h13.44.740,multiplicationStroop,2021.2.3,Win32,60.37189085,,,,,right,1,0.5505,0,31,31,3,1,8,9,8 | 9,1,1.4111,1.9756,congruent,right,,,,,,stimulusFile/magnitude.xlsx,,,,,,,,,,,,,,,,,,,,,,,,,,,,,,,
,,,,,,,,,,,,,,,769,2022-01-19_14h13.44.740,multiplicationStroop,2021.2.3,Win32,60.37189085,,,,,right,1,0.8365,0,32,32,26,1,6,7,6 | 7,1,1.9756,1.4111,incongruent,right,,,,,,stimulusFile/magnitude.xlsx,,,,,,,,,,,,,,,,,,,,,,,,,,,,,,,
,,,,,,,,,,,,,,,769,2022-01-19_14h13.44.740,multiplicationStroop,2021.2.3,Win32,60.37189085,,,,,right,1,0.5669,0,33,33,1,1,3,4,3 | 4,1,1.4111,1.9756,congruent,right,,,,,,stimulusFile/magnitude.xlsx,,,,,,,,,,,,,,,,,,,,,,,,,,,,,,,
,,,,,,,,,,,,,,,769,2022-01-19_14h13.44.740,multiplicationStroop,2021.2.3,Win32,60.37189085,,,,,left,1,0.7005,0,34,34,62,1,8,6,8 | 6,2,1.6933,1.6933,neutral,left,,,,,,stimulusFile/magnitude.xlsx,,,,,,,,,,,,,,,,,,,,,,,,,,,,,,,
,,,,,,,,,,,,,,,769,2022-01-19_14h13.44.740,multiplicationStroop,2021.2.3,Win32,60.37189085,,,,,left,1,0.4887,0,35,35,69,1,7,2,7 | 2,5,1.6933,1.6933,neutral,left,,,,,,stimulusFile/magnitude.xlsx,,,,,,,,,,,,,,,,,,,,,,,,,,,,,,,
,,,,,,,,,,,,,,,769,2022-01-19_14h13.44.740,multiplicationStroop,2021.2.3,Win32,60.37189085,,,,,left,1,0.804,0,36,36,61,1,4,2,4 | 2,2,1.6933,1.6933,neutral,left,,,,,,stimulusFile/magnitude.xlsx,,,,,,,,,,,,,,,,,,,,,,,,,,,,,,,
,,,,,,,,,,,,,,,769,2022-01-19_14h13.44.740,multiplicationStroop,2021.2.3,Win32,60.37189085,,,,,left,1,0.6293,0,37,37,60,1,3,1,3 | 1,2,1.6933,1.6933,neutral,left,,,,,,stimulusFile/magnitude.xlsx,,,,,,,,,,,,,,,,,,,,,,,,,,,,,,,
,,,,,,,,,,,,,,,769,2022-01-19_14h13.44.740,multiplicationStroop,2021.2.3,Win32,60.37189085,,,,,right,1,0.6167,0,38,38,67,1,4,9,4 | 9,5,1.6933,1.6933,neutral,right,,,,,,stimulusFile/magnitude.xlsx,,,,,,,,,,,,,,,,,,,,,,,,,,,,,,,
,,,,,,,,,,,,,,,769,2022-01-19_14h13.44.740,multiplicationStroop,2021.2.3,Win32,60.37189085,,,,,left,1,0.589,0,39,39,6,1,7,6,7 | 6,1,1.9756,1.4111,congruent,left,,,,,,stimulusFile/magnitude.xlsx,,,,,,,,,,,,,,,,,,,,,,,,,,,,,,,
,,,,,,,,,,,,,,,769,2022-01-19_14h13.44.740,multiplicationStroop,2021.2.3,Win32,60.37189085,,,,,right,1,0.65,0,40,40,0,1,1,2,1 | 2,1,1.4111,1.9756,congruent,right,,,,,,stimulusFile/magnitude.xlsx,,,,,,,,,,,,,,,,,,,,,,,,,,,,,,,
,,,,,,,,,,,,,,,769,2022-01-19_14h13.44.740,multiplicationStroop,2021.2.3,Win32,60.37189085,,,,,right,1,0.523,0,41,41,40,1,1,6,1 | 6,5,1.9756,1.4111,incongruent,right,,,,,,stimulusFile/magnitude.xlsx,,,,,,,,,,,,,,,,,,,,,,,,,,,,,,,
,,,,,,,,,,,,,,,769,2022-01-19_14h13.44.740,multiplicationStroop,2021.2.3,Win32,60.37189085,,,,,right,1,0.5675,0,42,42,24,1,1,2,1 | 2,1,1.9756,1.4111,incongruent,right,,,,,,stimulusFile/magnitude.xlsx,,,,,,,,,,,,,,,,,,,,,,,,,,,,,,,
,,,,,,,,,,,,,,,769,2022-01-19_14h13.44.740,multiplicationStroop,2021.2.3,Win32,60.37189085,,,,,left,1,0.5284,0,43,43,12,1,3,1,3 | 1,2,1.9756,1.4111,congruent,left,,,,,,stimulusFile/magnitude.xlsx,,,,,,,,,,,,,,,,,,,,,,,,,,,,,,,
,,,,,,,,,,,,,,,769,2022-01-19_14h13.44.740,multiplicationStroop,2021.2.3,Win32,60.37189085,,,,,left,1,0.5975,0,44,44,4,1,2,1,2 | 1,1,1.9756,1.4111,congruent,left,,,,,,stimulusFile/magnitude.xlsx,,,,,,,,,,,,,,,,,,,,,,,,,,,,,,,
,,,,,,,,,,,,,,,769,2022-01-19_14h13.44.740,multiplicationStroop,2021.2.3,Win32,60.37189085,,,,,right,1,0.6038,0,45,45,56,1,1,3,1 | 3,2,1.6933,1.6933,neutral,right,,,,,,stimulusFile/magnitude.xlsx,,,,,,,,,,,,,,,,,,,,,,,,,,,,,,,
,,,,,,,,,,,,,,,769,2022-01-19_14h13.44.740,multiplicationStroop,2021.2.3,Win32,60.37189085,,,,,right,1,0.5075,0,46,46,8,1,1,3,1 | 3,2,1.4111,1.9756,congruent,right,,,,,,stimulusFile/magnitude.xlsx,,,,,,,,,,,,,,,,,,,,,,,,,,,,,,,
,,,,,,,,,,,,,,,769,2022-01-19_14h13.44.740,multiplicationStroop,2021.2.3,Win32,60.37189085,,,,,left,1,0.5257,0,47,47,70,1,8,3,8 | 3,5,1.6933,1.6933,neutral,left,,,,,,stimulusFile/magnitude.xlsx,,,,,,,,,,,,,,,,,,,,,,,,,,,,,,,
,,,,,,,,,,,,,,,769,2022-01-19_14h13.44.740,multiplicationStroop,2021.2.3,Win32,60.37189085,,,,,right,1,0.5284,0,48,48,25,1,3,4,3 | 4,1,1.9756,1.4111,incongruent,right,,,,,,stimulusFile/magnitude.xlsx,,,,,,,,,,,,,,,,,,,,,,,,,,,,,,,
,,,,,,,,,,,,,,,769,2022-01-19_14h13.44.740,multiplicationStroop,2021.2.3,Win32,60.37189085,,,,,left,1,0.4936,0,49,49,63,1,9,7,9 | 7,2,1.6933,1.6933,neutral,left,,,,,,stimulusFile/magnitude.xlsx,,,,,,,,,,,,,,,,,,,,,,,,,,,,,,,
,,,,,,,,,,,,,,,769,2022-01-19_14h13.44.740,multiplicationStroop,2021.2.3,Win32,60.37189085,,,,,right,1,0.5174,0,50,50,41,1,2,7,2 | 7,5,1.9756,1.4111,incongruent,right,,,,,,stimulusFile/magnitude.xlsx,,,,,,,,,,,,,,,,,,,,,,,,,,,,,,,
,,,,,,,,,,,,,,,769,2022-01-19_14h13.44.740,multiplicationStroop,2021.2.3,Win32,60.37189085,,,,,left,1,0.617,0,51,51,38,1,8,6,8 | 6,2,1.4111,1.9756,incongruent,left,,,,,,stimulusFile/magnitude.xlsx,,,,,,,,,,,,,,,,,,,,,,,,,,,,,,,
,,,,,,,,,,,,,,,769,2022-01-19_14h13.44.740,multiplicationStroop,2021.2.3,Win32,60.37189085,,,,,right,1,0.4898,0,52,52,66,1,3,8,3 | 8,5,1.6933,1.6933,neutral,right,,,,,,stimulusFile/magnitude.xlsx,,,,,,,,,,,,,,,,,,,,,,,,,,,,,,,
,,,,,,,,,,,,,,,769,2022-01-19_14h13.44.740,multiplicationStroop,2021.2.3,Win32,60.37189085,,,,,right,1,0.5931,0,53,53,59,1,7,9,7 | 9,2,1.6933,1.6933,neutral,right,,,,,,stimulusFile/magnitude.xlsx,,,,,,,,,,,,,,,,,,,,,,,,,,,,,,,
,,,,,,,,,,,,,,,769,2022-01-19_14h13.44.740,multiplicationStroop,2021.2.3,Win32,60.37189085,,,,,left,1,0.5265,0,54,54,13,1,4,2,4 | 2,2,1.9756,1.4111,congruent,left,,,,,,stimulusFile/magnitude.xlsx,,,,,,,,,,,,,,,,,,,,,,,,,,,,,,,
,,,,,,,,,,,,,,,769,2022-01-19_14h13.44.740,multiplicationStroop,2021.2.3,Win32,60.37189085,,,,,left,1,0.6502,0,55,55,28,1,2,1,2 | 1,1,1.4111,1.9756,incongruent,left,,,,,,stimulusFile/magnitude.xlsx,,,,,,,,,,,,,,,,,,,,,,,,,,,,,,,
,,,,,,,,,,,,,,,769,2022-01-19_14h13.44.740,multiplicationStroop,2021.2.3,Win32,60.37189085,,,,,left,1,0.6376,0,56,56,30,1,7,6,7 | 6,1,1.4111,1.9756,incongruent,left,,,,,,stimulusFile/magnitude.xlsx,,,,,,,,,,,,,,,,,,,,,,,,,,,,,,,
,,,,,,,,,,,,,,,769,2022-01-19_14h13.44.740,multiplicationStroop,2021.2.3,Win32,60.37189085,,,,,right,1,0.5338,0,57,57,48,1,1,2,1 | 2,1,1.6933,1.6933,neutral,right,,,,,,stimulusFile/magnitude.xlsx,,,,,,,,,,,,,,,,,,,,,,,,,,,,,,,
,,,,,,,,,,,,,,,769,2022-01-19_14h13.44.740,multiplicationStroop,2021.2.3,Win32,60.37189085,,,,,right,1,0.6342,0,58,58,58,1,6,8,6 | 8,2,1.6933,1.6933,neutral,right,,,,,,stimulusFile/magnitude.xlsx,,,,,,,,,,,,,,,,,,,,,,,,,,,,,,,
,,,,,,,,,,,,,,,769,2022-01-19_14h13.44.740,multiplicationStroop,2021.2.3,Win32,60.37189085,,,,,right,1,0.6259,0,59,59,65,1,2,7,2 | 7,5,1.6933,1.6933,neutral,right,,,,,,stimulusFile/magnitude.xlsx,,,,,,,,,,,,,,,,,,,,,,,,,,,,,,,
,,,,,,,,,,,,,,,769,2022-01-19_14h13.44.740,multiplicationStroop,2021.2.3,Win32,60.37189085,,,,,right,1,0.7418,0,60,60,34,1,6,8,6 | 8,2,1.9756,1.4111,incongruent,right,,,,,,stimulusFile/magnitude.xlsx,,,,,,,,,,,,,,,,,,,,,,,,,,,,,,,
,,,,,,,,,,,,,,,769,2022-01-19_14h13.44.740,multiplicationStroop,2021.2.3,Win32,60.37189085,,,,,right,1,0.6088,0,61,61,57,1,2,4,2 | 4,2,1.6933,1.6933,neutral,right,,,,,,stimulusFile/magnitude.xlsx,,,,,,,,,,,,,,,,,,,,,,,,,,,,,,,
,,,,,,,,,,,,,,,769,2022-01-19_14h13.44.740,multiplicationStroop,2021.2.3,Win32,60.37189085,,,,,left,1,0.6169,0,62,62,46,1,8,3,8 | 3,5,1.4111,1.9756,incongruent,left,,,,,,stimulusFile/magnitude.xlsx,,,,,,,,,,,,,,,,,,,,,,,,,,,,,,,
,,,,,,,,,,,,,,,769,2022-01-19_14h13.44.740,multiplicationStroop,2021.2.3,Win32,60.37189085,,,,,left,1,0.5391,0,63,63,15,1,9,7,9 | 7,2,1.9756,1.4111,congruent,left,,,,,,stimulusFile/magnitude.xlsx,,,,,,,,,,,,,,,,,,,,,,,,,,,,,,,
,,,,,,,,,,,,,,,769,2022-01-19_14h13.44.740,multiplicationStroop,2021.2.3,Win32,60.37189085,,,,,right,1,0.5381,0,64,64,33,1,2,4,2 | 4,2,1.9756,1.4111,incongruent,right,,,,,,stimulusFile/magnitude.xlsx,,,,,,,,,,,,,,,,,,,,,,,,,,,,,,,
,,,,,,,,,,,,,,,769,2022-01-19_14h13.44.740,multiplicationStroop,2021.2.3,Win32,60.37189085,,,,,right,1,0.5524,0,65,65,51,1,8,9,8 | 9,1,1.6933,1.6933,neutral,right,,,,,,stimulusFile/magnitude.xlsx,,,,,,,,,,,,,,,,,,,,,,,,,,,,,,,
,,,,,,,,,,,,,,,769,2022-01-19_14h13.44.740,multiplicationStroop,2021.2.3,Win32,60.37189085,,,,,right,1,0.5575,0,66,66,17,1,2,7,2 | 7,5,1.4111,1.9756,congruent,right,,,,,,stimulusFile/magnitude.xlsx,,,,,,,,,,,,,,,,,,,,,,,,,,,,,,,
,,,,,,,,,,,,,,,769,2022-01-19_14h13.44.740,multiplicationStroop,2021.2.3,Win32,60.37189085,,,,,right,1,0.5741,0,67,67,49,1,3,4,3 | 4,1,1.6933,1.6933,neutral,right,,,,,,stimulusFile/magnitude.xlsx,,,,,,,,,,,,,,,,,,,,,,,,,,,,,,,
,,,,,,,,,,,,,,,769,2022-01-19_14h13.44.740,multiplicationStroop,2021.2.3,Win32,60.37189085,,,,,left,1,0.5101,0,68,68,45,1,7,2,7 | 2,5,1.4111,1.9756,incongruent,left,,,,,,stimulusFile/magnitude.xlsx,,,,,,,,,,,,,,,,,,,,,,,,,,,,,,,
,,,,,,,,,,,,,,,769,2022-01-19_14h13.44.740,multiplicationStroop,2021.2.3,Win32,60.37189085,,,,,left,1,0.5563,0,69,69,39,1,9,7,9 | 7,2,1.4111,1.9756,incongruent,left,,,,,,stimulusFile/magnitude.xlsx,,,,,,,,,,,,,,,,,,,,,,,,,,,,,,,
,,,,,,,,,,,,,,,769,2022-01-19_14h13.44.740,multiplicationStroop,2021.2.3,Win32,60.37189085,,,,,left,1,0.5283,0,70,70,44,1,6,1,6 | 1,5,1.4111,1.9756,incongruent,left,,,,,,stimulusFile/magnitude.xlsx,,,,,,,,,,,,,,,,,,,,,,,,,,,,,,,
,,,,,,,,,,,,,,,769,2022-01-19_14h13.44.740,multiplicationStroop,2021.2.3,Win32,60.37189085,,,,,left,1,0.4591,0,71,71,22,1,8,3,8 | 3,5,1.9756,1.4111,congruent,left,,,,,,stimulusFile/magnitude.xlsx,,,,,,,,,,,,,,,,,,,,,,,,,,,,,,,
,,,,,,,,,,,,,,,769,2022-01-19_14h13.44.740,multiplicationStroop,2021.2.3,Win32,60.37189085,,,,,,,,,,,,,,,,,,,,,0,0,0,0,1,stimulusFile/magnitude.xlsx,NUMERICALLY larger (larger coefficient).,images/numericallyLarger.png,,,,,,,,,,,,,,,,,,,,,,,,,,,,,
,,,,,,,,,,,,,,,769,2022-01-19_14h13.44.740,multiplicationStroop,2021.2.3,Win32,60.37189085,space,4.3075,space,0.9848,left,1,0.5449,0,0,0,48,1,1,1,1 | 1,0,1.9756,1.4111,neutral,left,,,,,,stimulusFile/physical.xlsx,,,,,,,,,,,,,,,,,,,,,,,,,,,,,,,
,,,,,,,,,,,,,,,769,2022-01-19_14h13.44.740,multiplicationStroop,2021.2.3,Win32,60.37189085,,,,,right,1,0.4531,0,1,1,28,1,2,1,2 | 1,1,1.4111,1.9756,incongruent,right,,,,,,stimulusFile/physical.xlsx,,,,,,,,,,,,,,,,,,,,,,,,,,,,,,,
,,,,,,,,,,,,,,,769,2022-01-19_14h13.44.740,multiplicationStroop,2021.2.3,Win32,60.37189085,,,,,right,1,0.5204,0,2,2,58,1,6,6,6 | 6,0,1.4111,1.9756,neutral,right,,,,,,stimulusFile/physical.xlsx,,,,,,,,,,,,,,,,,,,,,,,,,,,,,,,
,,,,,,,,,,,,,,,769,2022-01-19_14h13.44.740,multiplicationStroop,2021.2.3,Win32,60.37189085,,,,,left,1,0.4134,0,3,3,4,1,2,1,2 | 1,1,1.9756,1.4111,congruent,left,,,,,,stimulusFile/physical.xlsx,,,,,,,,,,,,,,,,,,,,,,,,,,,,,,,
,,,,,,,,,,,,,,,769,2022-01-19_14h13.44.740,multiplicationStroop,2021.2.3,Win32,60.37189085,,,,,right,1,0.3744,0,4,4,67,1,4,4,4 | 4,0,1.4111,1.9756,neutral,right,,,,,,stimulusFile/physical.xlsx,,,,,,,,,,,,,,,,,,,,,,,,,,,,,,,
,,,,,,,,,,,,,,,769,2022-01-19_14h13.44.740,multiplicationStroop,2021.2.3,Win32,60.37189085,,,,,left,0,0.3999,0,5,5,64,1,1,1,1 | 1,0,1.9756,1.4111,neutral,right,,,,,,stimulusFile/physical.xlsx,,,,,,,,,,,,,,,,,,,,,,,,,,,,,,,
,,,,,,,,,,,,,,,769,2022-01-19_14h13.44.740,multiplicationStroop,2021.2.3,Win32,60.37189085,,,,,left,1,0.5514,0,6,6,15,1,9,7,9 | 7,2,1.9756,1.4111,congruent,left,,,,,,stimulusFile/physical.xlsx,,,,,,,,,,,,,,,,,,,,,,,,,,,,,,,
,,,,,,,,,,,,,,,769,2022-01-19_14h13.44.740,multiplicationStroop,2021.2.3,Win32,60.37189085,,,,,right,1,0.4381,0,7,7,30,1,7,6,7 | 6,1,1.4111,1.9756,incongruent,right,,,,,,stimulusFile/physical.xlsx,,,,,,,,,,,,,,,,,,,,,,,,,,,,,,,
,,,,,,,,,,,,,,,769,2022-01-19_14h13.44.740,multiplicationStroop,2021.2.3,Win32,60.37189085,,,,,right,1,0.5653,0,8,8,56,1,1,1,1 | 1,0,1.4111,1.9756,neutral,right,,,,,,stimulusFile/physical.xlsx,,,,,,,,,,,,,,,,,,,,,,,,,,,,,,,
,,,,,,,,,,,,,,,769,2022-01-19_14h13.44.740,multiplicationStroop,2021.2.3,Win32,60.37189085,,,,,right,0,0.5633,0,9,9,71,1,9,9,9 | 9,0,1.4111,1.9756,neutral,left,,,,,,stimulusFile/physical.xlsx,,,,,,,,,,,,,,,,,,,,,,,,,,,,,,,
,,,,,,,,,,,,,,,769,2022-01-19_14h13.44.740,multiplicationStroop,2021.2.3,Win32,60.37189085,,,,,left,1,0.4672,0,10,10,5,1,4,3,4 | 3,1,1.9756,1.4111,congruent,left,,,,,,stimulusFile/physical.xlsx,,,,,,,,,,,,,,,,,,,,,,,,,,,,,,,
,,,,,,,,,,,,,,,769,2022-01-19_14h13.44.740,multiplicationStroop,2021.2.3,Win32,60.37189085,,,,,left,0,0.4527,0,11,11,37,1,4,2,4 | 2,2,1.4111,1.9756,incongruent,right,,,,,,stimulusFile/physical.xlsx,,,,,,,,,,,,,,,,,,,,,,,,,,,,,,,
,,,,,,,,,,,,,,,769,2022-01-19_14h13.44.740,multiplicationStroop,2021.2.3,Win32,60.37189085,,,,,left,1,0.4936,0,12,12,22,1,8,3,8 | 3,5,1.9756,1.4111,congruent,left,,,,,,stimulusFile/physical.xlsx,,,,,,,,,,,,,,,,,,,,,,,,,,,,,,,
,,,,,,,,,,,,,,,769,2022-01-19_14h13.44.740,multiplicationStroop,2021.2.3,Win32,60.37189085,,,,,right,0,0.5227,0,13,13,41,1,2,7,2 | 7,5,1.9756,1.4111,incongruent,left,,,,,,stimulusFile/physical.xlsx,,,,,,,,,,,,,,,,,,,,,,,,,,,,,,,
,,,,,,,,,,,,,,,769,2022-01-19_14h13.44.740,multiplicationStroop,2021.2.3,Win32,60.37189085,,,,,right,1,0.5507,0,14,14,59,1,7,7,7 | 7,0,1.4111,1.9756,neutral,right,,,,,,stimulusFile/physical.xlsx,,,,,,,,,,,,,,,,,,,,,,,,,,,,,,,
,,,,,,,,,,,,,,,769,2022-01-19_14h13.44.740,multiplicationStroop,2021.2.3,Win32,60.37189085,,,,,right,1,0.5508,0,15,15,62,1,8,8,8 | 8,0,1.4111,1.9756,neutral,right,,,,,,stimulusFile/physical.xlsx,,,,,,,,,,,,,,,,,,,,,,,,,,,,,,,
,,,,,,,,,,,,,,,769,2022-01-19_14h13.44.740,multiplicationStroop,2021.2.3,Win32,60.37189085,,,,,left,1,0.5509,0,16,16,33,1,2,4,2 | 4,2,1.9756,1.4111,incongruent,left,,,,,,stimulusFile/physical.xlsx,,,,,,,,,,,,,,,,,,,,,,,,,,,,,,,
,,,,,,,,,,,,,,,769,2022-01-19_14h13.44.740,multiplicationStroop,2021.2.3,Win32,60.37189085,,,,,right,1,0.484,0,17,17,8,1,1,3,1 | 3,2,1.4111,1.9756,congruent,right,,,,,,stimulusFile/physical.xlsx,,,,,,,,,,,,,,,,,,,,,,,,,,,,,,,
,,,,,,,,,,,,,,,769,2022-01-19_14h13.44.740,multiplicationStroop,2021.2.3,Win32,60.37189085,,,,,left,1,0.5095,0,18,18,6,1,7,6,7 | 6,1,1.9756,1.4111,congruent,left,,,,,,stimulusFile/physical.xlsx,,,,,,,,,,,,,,,,,,,,,,,,,,,,,,,
,,,,,,,,,,,,,,,769,2022-01-19_14h13.44.740,multiplicationStroop,2021.2.3,Win32,60.37189085,,,,,left,1,0.4734,0,19,19,25,1,3,4,3 | 4,1,1.9756,1.4111,incongruent,left,,,,,,stimulusFile/physical.xlsx,,,,,,,,,,,,,,,,,,,,,,,,,,,,,,,
,,,,,,,,,,,,,,,769,2022-01-19_14h13.44.740,multiplicationStroop,2021.2.3,Win32,60.37189085,,,,,left,1,0.3964,0,20,20,54,1,7,7,7 | 7,0,1.9756,1.4111,neutral,left,,,,,,stimulusFile/physical.xlsx,,,,,,,,,,,,,,,,,,,,,,,,,,,,,,,
,,,,,,,,,,,,,,,769,2022-01-19_14h13.44.740,multiplicationStroop,2021.2.3,Win32,60.37189085,,,,,right,1,0.5078,0,21,21,36,1,3,1,3 | 1,2,1.4111,1.9756,incongruent,right,,,,,,stimulusFile/physical.xlsx,,,,,,,,,,,,,,,,,,,,,,,,,,,,,,,
,,,,,,,,,,,,,,,769,2022-01-19_14h13.44.740,multiplicationStroop,2021.2.3,Win32,60.37189085,,,,,right,1,0.5372,0,22,22,16,1,1,6,1 | 6,5,1.4111,1.9756,congruent,right,,,,,,stimulusFile/physical.xlsx,,,,,,,,,,,,,,,,,,,,,,,,,,,,,,,
,,,,,,,,,,,,,,,769,2022-01-19_14h13.44.740,multiplicationStroop,2021.2.3,Win32,60.37189085,,,,,left,1,0.4244,0,23,23,49,1,3,3,3 | 3,0,1.9756,1.4111,neutral,left,,,,,,stimulusFile/physical.xlsx,,,,,,,,,,,,,,,,,,,,,,,,,,,,,,,
,,,,,,,,,,,,,,,769,2022-01-19_14h13.44.740,multiplicationStroop,2021.2.3,Win32,60.37189085,,,,,left,1,0.7693,0,24,24,35,1,7,9,7 | 9,2,1.9756,1.4111,incongruent,left,,,,,,stimulusFile/physical.xlsx,,,,,,,,,,,,,,,,,,,,,,,,,,,,,,,
,,,,,,,,,,,,,,,769,2022-01-19_14h13.44.740,multiplicationStroop,2021.2.3,Win32,60.37189085,,,,,right,1,0.5128,0,25,25,31,1,9,8,9 | 8,1,1.4111,1.9756,incongruent,right,,,,,,stimulusFile/physical.xlsx,,,,,,,,,,,,,,,,,,,,,,,,,,,,,,,
,,,,,,,,,,,,,,,769,2022-01-19_14h13.44.740,multiplicationStroop,2021.2.3,Win32,60.37189085,,,,,right,1,0.4938,0,26,26,65,1,2,2,2 | 2,0,1.4111,1.9756,neutral,right,,,,,,stimulusFile/physical.xlsx,,,,,,,,,,,,,,,,,,,,,,,,,,,,,,,
,,,,,,,,,,,,,,,769,2022-01-19_14h13.44.740,multiplicationStroop,2021.2.3,Win32,60.37189085,,,,,right,1,0.4838,0,27,27,61,1,4,4,4 | 4,0,1.4111,1.9756,neutral,right,,,,,,stimulusFile/physical.xlsx,,,,,,,,,,,,,,,,,,,,,,,,,,,,,,,
,,,,,,,,,,,,,,,769,2022-01-19_14h13.44.740,multiplicationStroop,2021.2.3,Win32,60.37189085,,,,,left,1,0.4505,0,28,28,26,1,6,7,6 | 7,1,1.9756,1.4111,incongruent,left,,,,,,stimulusFile/physical.xlsx,,,,,,,,,,,,,,,,,,,,,,,,,,,,,,,
,,,,,,,,,,,,,,,769,2022-01-19_14h13.44.740,multiplicationStroop,2021.2.3,Win32,60.37189085,,,,,left,1,0.4883,0,29,29,14,1,8,6,8 | 6,2,1.9756,1.4111,congruent,left,,,,,,stimulusFile/physical.xlsx,,,,,,,,,,,,,,,,,,,,,,,,,,,,,,,
,,,,,,,,,,,,,,,769,2022-01-19_14h13.44.740,multiplicationStroop,2021.2.3,Win32,60.37189085,,,,,right,1,0.4293,0,30,30,60,1,3,3,3 | 3,0,1.4111,1.9756,neutral,right,,,,,,stimulusFile/physical.xlsx,,,,,,,,,,,,,,,,,,,,,,,,,,,,,,,
,,,,,,,,,,,,,,,769,2022-01-19_14h13.44.740,multiplicationStroop,2021.2.3,Win32,60.37189085,,,,,right,1,0.4635,0,31,31,1,1,3,4,3 | 4,1,1.4111,1.9756,congruent,right,,,,,,stimulusFile/physical.xlsx,,,,,,,,,,,,,,,,,,,,,,,,,,,,,,,
,,,,,,,,,,,,,,,769,2022-01-19_14h13.44.740,multiplicationStroop,2021.2.3,Win32,60.37189085,,,,,right,1,0.4005,0,32,32,0,1,1,2,1 | 2,1,1.4111,1.9756,congruent,right,,,,,,stimulusFile/physical.xlsx,,,,,,,,,,,,,,,,,,,,,,,,,,,,,,,
,,,,,,,,,,,,,,,769,2022-01-19_14h13.44.740,multiplicationStroop,2021.2.3,Win32,60.37189085,,,,,left,1,0.4571,0,33,33,50,1,6,6,6 | 6,0,1.9756,1.4111,neutral,left,,,,,,stimulusFile/physical.xlsx,,,,,,,,,,,,,,,,,,,,,,,,,,,,,,,
,,,,,,,,,,,,,,,769,2022-01-19_14h13.44.740,multiplicationStroop,2021.2.3,Win32,60.37189085,,,,,right,1,0.4962,0,34,34,39,1,9,7,9 | 7,2,1.4111,1.9756,incongruent,right,,,,,,stimulusFile/physical.xlsx,,,,,,,,,,,,,,,,,,,,,,,,,,,,,,,
,,,,,,,,,,,,,,,769,2022-01-19_14h13.44.740,multiplicationStroop,2021.2.3,Win32,60.37189085,,,,,left,1,0.3767,0,35,35,7,1,9,8,9 | 8,1,1.9756,1.4111,congruent,left,,,,,,stimulusFile/physical.xlsx,,,,,,,,,,,,,,,,,,,,,,,,,,,,,,,
,,,,,,,,,,,,,,,769,2022-01-19_14h13.44.740,multiplicationStroop,2021.2.3,Win32,60.37189085,,,,,right,1,0.376,0,36,36,11,1,7,9,7 | 9,2,1.4111,1.9756,congruent,right,,,,,,stimulusFile/physical.xlsx,,,,,,,,,,,,,,,,,,,,,,,,,,,,,,,
,,,,,,,,,,,,,,,769,2022-01-19_14h13.44.740,multiplicationStroop,2021.2.3,Win32,60.37189085,,,,,right,1,0.4547,0,37,37,9,1,2,4,2 | 4,2,1.4111,1.9756,congruent,right,,,,,,stimulusFile/physical.xlsx,,,,,,,,,,,,,,,,,,,,,,,,,,,,,,,
,,,,,,,,,,,,,,,769,2022-01-19_14h13.44.740,multiplicationStroop,2021.2.3,Win32,60.37189085,,,,,left,1,0.4017,0,38,38,55,1,9,9,9 | 9,0,1.9756,1.4111,neutral,left,,,,,,stimulusFile/physical.xlsx,,,,,,,,,,,,,,,,,,,,,,,,,,,,,,,
,,,,,,,,,,,,,,,769,2022-01-19_14h13.44.740,multiplicationStroop,2021.2.3,Win32,60.37189085,,,,,left,1,0.5004,0,39,39,32,1,1,3,1 | 3,2,1.9756,1.4111,incongruent,left,,,,,,stimulusFile/physical.xlsx,,,,,,,,,,,,,,,,,,,,,,,,,,,,,,,
,,,,,,,,,,,,,,,769,2022-01-19_14h13.44.740,multiplicationStroop,2021.2.3,Win32,60.37189085,,,,,left,1,0.8014,0,40,40,40,1,1,6,1 | 6,5,1.9756,1.4111,incongruent,left,,,,,,stimulusFile/physical.xlsx,,,,,,,,,,,,,,,,,,,,,,,,,,,,,,,
,,,,,,,,,,,,,,,769,2022-01-19_14h13.44.740,multiplicationStroop,2021.2.3,Win32,60.37189085,,,,,left,1,0.5004,0,41,41,34,1,6,8,6 | 8,2,1.9756,1.4111,incongruent,left,,,,,,stimulusFile/physical.xlsx,,,,,,,,,,,,,,,,,,,,,,,,,,,,,,,
,,,,,,,,,,,,,,,769,2022-01-19_14h13.44.740,multiplicationStroop,2021.2.3,Win32,60.37189085,,,,,left,1,0.5546,0,42,42,53,1,4,4,4 | 4,0,1.9756,1.4111,neutral,left,,,,,,stimulusFile/physical.xlsx,,,,,,,,,,,,,,,,,,,,,,,,,,,,,,,
,,,,,,,,,,,,,,,769,2022-01-19_14h13.44.740,multiplicationStroop,2021.2.3,Win32,60.37189085,,,,,left,1,0.529,0,43,43,24,1,1,2,1 | 2,1,1.9756,1.4111,incongruent,left,,,,,,stimulusFile/physical.xlsx,,,,,,,,,,,,,,,,,,,,,,,,,,,,,,,
,,,,,,,,,,,,,,,769,2022-01-19_14h13.44.740,multiplicationStroop,2021.2.3,Win32,60.37189085,,,,,right,0,0.5579,0,44,44,43,1,4,9,4 | 9,5,1.9756,1.4111,incongruent,left,,,,,,stimulusFile/physical.xlsx,,,,,,,,,,,,,,,,,,,,,,,,,,,,,,,
,,,,,,,,,,,,,,,769,2022-01-19_14h13.44.740,multiplicationStroop,2021.2.3,Win32,60.37189085,,,,,left,1,0.6213,0,45,45,68,1,6,6,6 | 6,0,1.9756,1.4111,neutral,left,,,,,,stimulusFile/physical.xlsx,,,,,,,,,,,,,,,,,,,,,,,,,,,,,,,
,,,,,,,,,,,,,,,769,2022-01-19_14h13.44.740,multiplicationStroop,2021.2.3,Win32,60.37189085,,,,,right,1,0.4502,0,46,46,46,1,8,3,8 | 3,5,1.4111,1.9756,incongruent,right,,,,,,stimulusFile/physical.xlsx,,,,,,,,,,,,,,,,,,,,,,,,,,,,,,,
,,,,,,,,,,,,,,,769,2022-01-19_14h13.44.740,multiplicationStroop,2021.2.3,Win32,60.37189085,,,,,right,1,0.5095,0,47,47,19,1,4,9,4 | 9,5,1.4111,1.9756,congruent,right,,,,,,stimulusFile/physical.xlsx,,,,,,,,,,,,,,,,,,,,,,,,,,,,,,,
,,,,,,,,,,,,,,,769,2022-01-19_14h13.44.740,multiplicationStroop,2021.2.3,Win32,60.37189085,,,,,right,1,0.3882,0,48,48,10,1,6,8,6 | 8,2,1.4111,1.9756,congruent,right,,,,,,stimulusFile/physical.xlsx,,,,,,,,,,,,,,,,,,,,,,,,,,,,,,,
,,,,,,,,,,,,,,,769,2022-01-19_14h13.44.740,multiplicationStroop,2021.2.3,Win32,60.37189085,,,,,right,1,0.598,0,49,49,38,1,8,6,8 | 6,2,1.4111,1.9756,incongruent,right,,,,,,stimulusFile/physical.xlsx,,,,,,,,,,,,,,,,,,,,,,,,,,,,,,,
,,,,,,,,,,,,,,,769,2022-01-19_14h13.44.740,multiplicationStroop,2021.2.3,Win32,60.37189085,,,,,left,1,0.4737,0,50,50,23,1,9,4,9 | 4,5,1.9756,1.4111,congruent,left,,,,,,stimulusFile/physical.xlsx,,,,,,,,,,,,,,,,,,,,,,,,,,,,,,,
,,,,,,,,,,,,,,,769,2022-01-19_14h13.44.740,multiplicationStroop,2021.2.3,Win32,60.37189085,,,,,right,1,0.5043,0,51,51,3,1,8,9,8 | 9,1,1.4111,1.9756,congruent,right,,,,,,stimulusFile/physical.xlsx,,,,,,,,,,,,,,,,,,,,,,,,,,,,,,,
,,,,,,,,,,,,,,,769,2022-01-19_14h13.44.740,multiplicationStroop,2021.2.3,Win32,60.37189085,,,,,left,1,0.51,0,52,52,27,1,8,9,8 | 9,1,1.9756,1.4111,incongruent,left,,,,,,stimulusFile/physical.xlsx,,,,,,,,,,,,,,,,,,,,,,,,,,,,,,,
,,,,,,,,,,,,,,,769,2022-01-19_14h13.44.740,multiplicationStroop,2021.2.3,Win32,60.37189085,,,,,right,1,0.5216,0,53,53,29,1,4,3,4 | 3,1,1.4111,1.9756,incongruent,right,,,,,,stimulusFile/physical.xlsx,,,,,,,,,,,,,,,,,,,,,,,,,,,,,,,
,,,,,,,,,,,,,,,769,2022-01-19_14h13.44.740,multiplicationStroop,2021.2.3,Win32,60.37189085,,,,,left,1,0.501,0,54,54,51,1,8,8,8 | 8,0,1.9756,1.4111,neutral,left,,,,,,stimulusFile/physical.xlsx,,,,,,,,,,,,,,,,,,,,,,,,,,,,,,,
,,,,,,,,,,,,,,,769,2022-01-19_14h13.44.740,multiplicationStroop,2021.2.3,Win32,60.37189085,,,,,right,1,0.4261,0,55,55,63,1,9,9,9 | 9,0,1.4111,1.9756,neutral,right,,,,,,stimulusFile/physical.xlsx,,,,,,,,,,,,,,,,,,,,,,,,,,,,,,,
,,,,,,,,,,,,,,,769,2022-01-19_14h13.44.740,multiplicationStroop,2021.2.3,Win32,60.37189085,,,,,left,0,0.4129,0,56,56,44,1,6,1,6 | 1,5,1.4111,1.9756,incongruent,right,,,,,,stimulusFile/physical.xlsx,,,,,,,,,,,,,,,,,,,,,,,,,,,,,,,
,,,,,,,,,,,,,,,769,2022-01-19_14h13.44.740,multiplicationStroop,2021.2.3,Win32,60.37189085,,,,,right,1,0.5763,0,57,57,47,1,9,4,9 | 4,5,1.4111,1.9756,incongruent,right,,,,,,stimulusFile/physical.xlsx,,,,,,,,,,,,,,,,,,,,,,,,,,,,,,,
,,,,,,,,,,,,,,,769,2022-01-19_14h13.44.740,multiplicationStroop,2021.2.3,Win32,60.37189085,,,,,right,1,0.4956,0,58,58,2,1,6,7,6 | 7,1,1.4111,1.9756,congruent,right,,,,,,stimulusFile/physical.xlsx,,,,,,,,,,,,,,,,,,,,,,,,,,,,,,,
,,,,,,,,,,,,,,,769,2022-01-19_14h13.44.740,multiplicationStroop,2021.2.3,Win32,60.37189085,,,,,right,1,0.5342,0,59,59,17,1,2,7,2 | 7,5,1.4111,1.9756,congruent,right,,,,,,stimulusFile/physical.xlsx,,,,,,,,,,,,,,,,,,,,,,,,,,,,,,,
,,,,,,,,,,,,,,,769,2022-01-19_14h13.44.740,multiplicationStroop,2021.2.3,Win32,60.37189085,,,,,left,0,0.5534,0,60,60,45,1,7,2,7 | 2,5,1.4111,1.9756,incongruent,right,,,,,,stimulusFile/physical.xlsx,,,,,,,,,,,,,,,,,,,,,,,,,,,,,,,
,,,,,,,,,,,,,,,769,2022-01-19_14h13.44.740,multiplicationStroop,2021.2.3,Win32,60.37189085,,,,,right,0,0.5806,0,61,61,69,1,7,7,7 | 7,0,1.4111,1.9756,neutral,left,,,,,,stimulusFile/physical.xlsx,,,,,,,,,,,,,,,,,,,,,,,,,,,,,,,
,,,,,,,,,,,,,,,769,2022-01-19_14h13.44.740,multiplicationStroop,2021.2.3,Win32,60.37189085,,,,,left,1,0.5213,0,62,62,21,1,7,2,7 | 2,5,1.9756,1.4111,congruent,left,,,,,,stimulusFile/physical.xlsx,,,,,,,,,,,,,,,,,,,,,,,,,,,,,,,
,,,,,,,,,,,,,,,769,2022-01-19_14h13.44.740,multiplicationStroop,2021.2.3,Win32,60.37189085,,,,,left,0,0.5005,0,63,63,66,1,3,3,3 | 3,0,1.9756,1.4111,neutral,right,,,,,,stimulusFile/physical.xlsx,,,,,,,,,,,,,,,,,,,,,,,,,,,,,,,
,,,,,,,,,,,,,,,769,2022-01-19_14h13.44.740,multiplicationStroop,2021.2.3,Win32,60.37189085,,,,,left,1,0.5674,0,64,64,52,1,2,2,2 | 2,0,1.9756,1.4111,neutral,left,,,,,,stimulusFile/physical.xlsx,,,,,,,,,,,,,,,,,,,,,,,,,,,,,,,
,,,,,,,,,,,,,,,769,2022-01-19_14h13.44.740,multiplicationStroop,2021.2.3,Win32,60.37189085,,,,,left,1,0.5003,0,65,65,13,1,4,2,4 | 2,2,1.9756,1.4111,congruent,left,,,,,,stimulusFile/physical.xlsx,,,,,,,,,,,,,,,,,,,,,,,,,,,,,,,
,,,,,,,,,,,,,,,769,2022-01-19_14h13.44.740,multiplicationStroop,2021.2.3,Win32,60.37189085,,,,,left,1,0.4698,0,66,66,42,1,3,8,3 | 8,5,1.9756,1.4111,incongruent,left,,,,,,stimulusFile/physical.xlsx,,,,,,,,,,,,,,,,,,,,,,,,,,,,,,,
,,,,,,,,,,,,,,,769,2022-01-19_14h13.44.740,multiplicationStroop,2021.2.3,Win32,60.37189085,,,,,right,1,0.4425,0,67,67,57,1,2,2,2 | 2,0,1.4111,1.9756,neutral,right,,,,,,stimulusFile/physical.xlsx,,,,,,,,,,,,,,,,,,,,,,,,,,,,,,,
,,,,,,,,,,,,,,,769,2022-01-19_14h13.44.740,multiplicationStroop,2021.2.3,Win32,60.37189085,,,,,right,1,0.4786,0,68,68,18,1,3,8,3 | 8,5,1.4111,1.9756,congruent,right,,,,,,stimulusFile/physical.xlsx,,,,,,,,,,,,,,,,,,,,,,,,,,,,,,,
,,,,,,,,,,,,,,,769,2022-01-19_14h13.44.740,multiplicationStroop,2021.2.3,Win32,60.37189085,,,,,left,1,0.4549,0,69,69,70,1,8,8,8 | 8,0,1.9756,1.4111,neutral,left,,,,,,stimulusFile/physical.xlsx,,,,,,,,,,,,,,,,,,,,,,,,,,,,,,,
,,,,,,,,,,,,,,,769,2022-01-19_14h13.44.740,multiplicationStroop,2021.2.3,Win32,60.37189085,,,,,left,1,0.4974,0,70,70,20,1,6,1,6 | 1,5,1.9756,1.4111,congruent,left,,,,,,stimulusFile/physical.xlsx,,,,,,,,,,,,,,,,,,,,,,,,,,,,,,,
,,,,,,,,,,,,,,,769,2022-01-19_14h13.44.740,multiplicationStroop,2021.2.3,Win32,60.37189085,,,,,left,1,0.4126,0,71,71,12,1,3,1,3 | 1,2,1.9756,1.4111,congruent,left,,,,,,stimulusFile/physical.xlsx,,,,,,,,,,,,,,,,,,,,,,,,,,,,,,,
,,,,,,,,,,,,,,,769,2022-01-19_14h13.44.740,multiplicationStroop,2021.2.3,Win32,60.37189085,,,,,,,,,,,,,,,,,,,,,0,1,1,1,1,stimulusFile/physical.xlsx,PHYSICALLY larger (larger font size).,images/physicallyLarger.png,,,,,,,,,,,,,,,,,,,,,,,,,,,,,
,,,,,,,,,,,,,,,769,2022-01-19_14h13.44.740,multiplicationStroop,2021.2.3,Win32,60.37189085,,,,,,,,,,,,,,,,,,,,,,,,,,,,,space,11.9068,space,1.3637,18,2.396,1,0,0,0,22,1,9,×,2,9 × 2,congruent,largerFirst,2,1,18,,,,,,,,
,,,,,,,,,,,,,,,769,2022-01-19_14h13.44.740,multiplicationStroop,2021.2.3,Win32,60.37189085,,,,,,,,,,,,,,,,,,,,,,,,,,,,,,,,,42,1.5986,1,0,1,1,3,1,6,×,7,6 × 7,congruent,smallerFirst,1,2,42,,,,,,,,
,,,,,,,,,,,,,,,769,2022-01-19_14h13.44.740,multiplicationStroop,2021.2.3,Win32,60.37189085,,,,,,,,,,,,,,,,,,,,,,,,,,,,,,,,,35,1.4649,1,0,2,2,1,1,5,×,7,5 × 7,congruent,smallerFirst,1,2,35,,,,,,,,
,,,,,,,,,,,,,,,769,2022-01-19_14h13.44.740,multiplicationStroop,2021.2.3,Win32,60.37189085,,,,,,,,,,,,,,,,,,,,,,,,,,,,,,,,,54,1.5993,1,0,3,3,12,1,6,×,9,6 × 9,congruent,smallerFirst,1,2,54,,,,,,,,
,,,,,,,,,,,,,,,769,2022-01-19_14h13.44.740,multiplicationStroop,2021.2.3,Win32,60.37189085,,,,,,,,,,,,,,,,,,,,,,,,,,,,,,,,,30,1.9319,1,0,4,4,15,1,6,×,5,6 × 5,congruent,largerFirst,2,1,30,,,,,,,,
,,,,,,,,,,,,,,,769,2022-01-19_14h13.44.740,multiplicationStroop,2021.2.3,Win32,60.37189085,,,,,,,,,,,,,,,,,,,,,,,,,,,,,,,,,36,1.6827,1,0,5,5,32,1,6,×,6,6 × 6,neutral,tie,2,1,36,,,,,,,,
,,,,,,,,,,,,,,,769,2022-01-19_14h13.44.740,multiplicationStroop,2021.2.3,Win32,60.37189085,,,,,,,,,,,,,,,,,,,,,,,,,,,,,,,,,10,1.5992,1,0,6,6,24,1,5,×,2,5 × 2,congruent,largerFirst,2,1,10,,,,,,,,
,,,,,,,,,,,,,,,769,2022-01-19_14h13.44.740,multiplicationStroop,2021.2.3,Win32,60.37189085,,,,,,,,,,,,,,,,,,,,,,,,,,,,,,,,,4,1.3826,1,0,7,7,28,1,2,×,2,2 × 2,neutral,tie,2,1,4,,,,,,,,
,,,,,,,,,,,,,,,769,2022-01-19_14h13.44.740,multiplicationStroop,2021.2.3,Win32,60.37189085,,,,,,,,,,,,,,,,,,,,,,,,,,,,,,,,,16,2.7322,1,0,8,8,30,1,4,×,4,4 × 4,neutral,tie,2,1,16,,,,,,,,
,,,,,,,,,,,,,,,769,2022-01-19_14h13.44.740,multiplicationStroop,2021.2.3,Win32,60.37189085,,,,,,,,,,,,,,,,,,,,,,,,,,,,,,,,,63,1.9827,1,0,9,9,21,1,9,×,7,9 × 7,congruent,largerFirst,2,1,63,,,,,,,,
,,,,,,,,,,,,,,,769,2022-01-19_14h13.44.740,multiplicationStroop,2021.2.3,Win32,60.37189085,,,,,,,,,,,,,,,,,,,,,,,,,,,,,,,,,24,1.599,1,0,10,10,10,1,3,×,8,3 × 8,congruent,smallerFirst,1,2,24,,,,,,,,
,,,,,,,,,,,,,,,769,2022-01-19_14h13.44.740,multiplicationStroop,2021.2.3,Win32,60.37189085,,,,,,,,,,,,,,,,,,,,,,,,,,,,,,,,,12,1.4323,1,0,11,11,19,1,6,×,2,6 × 2,congruent,largerFirst,2,1,12,,,,,,,,
,,,,,,,,,,,,,,,769,2022-01-19_14h13.44.740,multiplicationStroop,2021.2.3,Win32,60.37189085,,,,,,,,,,,,,,,,,,,,,,,,,,,,,,,,,40,1.5487,1,0,12,12,6,1,5,×,8,5 × 8,congruent,smallerFirst,1,2,40,,,,,,,,
,,,,,,,,,,,,,,,769,2022-01-19_14h13.44.740,multiplicationStroop,2021.2.3,Win32,60.37189085,,,,,,,,,,,,,,,,,,,,,,,,,,,,,,,,,18,1.5992,1,0,13,13,11,1,3,×,6,3 × 6,congruent,smallerFirst,1,2,18,,,,,,,,
,,,,,,,,,,,,,,,769,2022-01-19_14h13.44.740,multiplicationStroop,2021.2.3,Win32,60.37189085,,,,,,,,,,,,,,,,,,,,,,,,,,,,,,,,,8,1.5825,1,0,14,14,9,1,2,×,4,2 × 4,congruent,smallerFirst,1,2,8,,,,,,,,
,,,,,,,,,,,,,,,769,2022-01-19_14h13.44.740,multiplicationStroop,2021.2.3,Win32,60.37189085,,,,,,,,,,,,,,,,,,,,,,,,,,,,,,,,,25,2.6326,1,0,15,15,31,1,5,×,5,5 × 5,neutral,tie,2,1,25,,,,,,,,
,,,,,,,,,,,,,,,769,2022-01-19_14h13.44.740,multiplicationStroop,2021.2.3,Win32,60.37189085,,,,,,,,,,,,,,,,,,,,,,,,,,,,,,,,,16,1.5558,1,0,16,16,5,1,2,×,8,2 × 8,congruent,smallerFirst,1,2,16,,,,,,,,
,,,,,,,,,,,,,,,769,2022-01-19_14h13.44.740,multiplicationStroop,2021.2.3,Win32,60.37189085,,,,,,,,,,,,,,,,,,,,,,,,,,,,,,,,,20,1.7316,1,0,17,17,7,1,4,×,5,4 × 5,congruent,smallerFirst,1,2,20,,,,,,,,
,,,,,,,,,,,,,,,769,2022-01-19_14h13.44.740,multiplicationStroop,2021.2.3,Win32,60.37189085,,,,,,,,,,,,,,,,,,,,,,,,,,,,,,,,,24,1.4994,1,0,18,18,25,1,6,×,4,6 × 4,congruent,largerFirst,2,1,24,,,,,,,,
,,,,,,,,,,,,,,,769,2022-01-19_14h13.44.740,multiplicationStroop,2021.2.3,Win32,60.37189085,,,,,,,,,,,,,,,,,,,,,,,,,,,,,,,,,14,1.3162,1,0,19,19,14,1,7,×,2,7 × 2,congruent,largerFirst,2,1,14,,,,,,,,
,,,,,,,,,,,,,,,769,2022-01-19_14h13.44.740,multiplicationStroop,2021.2.3,Win32,60.37189085,,,,,,,,,,,,,,,,,,,,,,,,,,,,,,,,,72,1.9487,1,0,20,20,17,1,9,×,8,9 × 8,congruent,largerFirst,2,1,72,,,,,,,,
,,,,,,,,,,,,,,,769,2022-01-19_14h13.44.740,multiplicationStroop,2021.2.3,Win32,60.37189085,,,,,,,,,,,,,,,,,,,,,,,,,,,,,,,,,32,1.4989,1,0,21,21,20,1,8,×,4,8 × 4,congruent,largerFirst,2,1,32,,,,,,,,
,,,,,,,,,,,,,,,769,2022-01-19_14h13.44.740,multiplicationStroop,2021.2.3,Win32,60.37189085,,,,,,,,,,,,,,,,,,,,,,,,,,,,,,,,,9,1.7821,1,0,22,22,29,1,3,×,3,3 × 3,neutral,tie,2,1,9,,,,,,,,
,,,,,,,,,,,,,,,769,2022-01-19_14h13.44.740,multiplicationStroop,2021.2.3,Win32,60.37189085,,,,,,,,,,,,,,,,,,,,,,,,,,,,,,,,,6,1.5032,1,0,23,23,13,1,2,×,3,2 × 3,congruent,smallerFirst,1,2,6,,,,,,,,
,,,,,,,,,,,,,,,769,2022-01-19_14h13.44.740,multiplicationStroop,2021.2.3,Win32,60.37189085,,,,,,,,,,,,,,,,,,,,,,,,,,,,,,,,,21,1.4163,1,0,24,24,16,1,7,×,3,7 × 3,congruent,largerFirst,2,1,21,,,,,,,,
,,,,,,,,,,,,,,,769,2022-01-19_14h13.44.740,multiplicationStroop,2021.2.3,Win32,60.37189085,,,,,,,,,,,,,,,,,,,,,,,,,,,,,,,,,64,1.863,1,0,25,25,34,1,8,×,8,8 × 8,neutral,tie,2,1,64,,,,,,,,
,,,,,,,,,,,,,,,769,2022-01-19_14h13.44.740,multiplicationStroop,2021.2.3,Win32,60.37189085,,,,,,,,,,,,,,,,,,,,,,,,,,,,,,,,,32,1.6294,0,0,26,26,27,1,7,×,4,7 × 4,congruent,largerFirst,2,1,28,,,,,,,,
,,,,,,,,,,,,,,,769,2022-01-19_14h13.44.740,multiplicationStroop,2021.2.3,Win32,60.37189085,,,,,,,,,,,,,,,,,,,,,,,,,,,,,,,,,56,1.7993,1,0,27,27,8,1,7,×,8,7 × 8,congruent,smallerFirst,1,2,56,,,,,,,,
,,,,,,,,,,,,,,,769,2022-01-19_14h13.44.740,multiplicationStroop,2021.2.3,Win32,60.37189085,,,,,,,,,,,,,,,,,,,,,,,,,,,,,,,,,15,1.7656,1,0,28,28,4,1,3,×,5,3 × 5,congruent,smallerFirst,1,2,15,,,,,,,,
,,,,,,,,,,,,,,,769,2022-01-19_14h13.44.740,multiplicationStroop,2021.2.3,Win32,60.37189085,,,,,,,,,,,,,,,,,,,,,,,,,,,,,,,,,36,2.2994,1,0,29,29,0,1,4,×,9,4 × 9,congruent,smallerFirst,1,2,36,,,,,,,,
,,,,,,,,,,,,,,,769,2022-01-19_14h13.44.740,multiplicationStroop,2021.2.3,Win32,60.37189085,,,,,,,,,,,,,,,,,,,,,,,,,,,,,,,,,27,1.6987,1,0,30,30,26,1,9,×,3,9 × 3,congruent,largerFirst,2,1,27,,,,,,,,
,,,,,,,,,,,,,,,769,2022-01-19_14h13.44.740,multiplicationStroop,2021.2.3,Win32,60.37189085,,,,,,,,,,,,,,,,,,,,,,,,,,,,,,,,,45,1.566,1,0,31,31,23,1,9,×,5,9 × 5,congruent,largerFirst,2,1,45,,,,,,,,
,,,,,,,,,,,,,,,769,2022-01-19_14h13.44.740,multiplicationStroop,2021.2.3,Win32,60.37189085,,,,,,,,,,,,,,,,,,,,,,,,,,,,,,,,,81,2.1656,1,0,32,32,35,1,9,×,9,9 × 9,neutral,tie,2,1,81,,,,,,,,
,,,,,,,,,,,,,,,769,2022-01-19_14h13.44.740,multiplicationStroop,2021.2.3,Win32,60.37189085,,,,,,,,,,,,,,,,,,,,,,,,,,,,,,,,,49,1.7494,1,0,33,33,33,1,7,×,7,7 × 7,neutral,tie,2,1,49,,,,,,,,
,,,,,,,,,,,,,,,769,2022-01-19_14h13.44.740,multiplicationStroop,2021.2.3,Win32,60.37189085,,,,,,,,,,,,,,,,,,,,,,,,,,,,,,,,,12,1.3156,1,0,34,34,2,1,3,×,4,3 × 4,congruent,smallerFirst,1,2,12,,,,,,,,
,,,,,,,,,,,,,,,769,2022-01-19_14h13.44.740,multiplicationStroop,2021.2.3,Win32,60.37189085,,,,,,,,,,,,,,,,,,,,,,,,,,,,,,,,,48,1.6824,1,0,35,35,18,1,8,×,6,8 × 6,congruent,largerFirst,2,1,48,,,,,,,,
,,,,,,,,,,,,,,,769,2022-01-19_14h13.44.740,multiplicationStroop,2021.2.3,Win32,60.37189085,,,,,,,,,,,,,,,,,,,,,,,,,,,,,,,,,,,,,,,,,,,,,,,,,,0,0,0,2,1,stimulusFile/mult_blk3_congruent.xlsx,,
,,,,,,,,,,,,,,,769,2022-01-19_14h13.44.740,multiplicationStroop,2021.2.3,Win32,60.37189085,,,,,,,,,,,,,,,,,,,,,,,,,,,,,,,space,4.7382,18,1.78,1,0,0,0,0,1,3,×,6,3 × 6,neutral,smallerFirst,1.5,1.5,18,,,,,,,,
,,,,,,,,,,,,,,,769,2022-01-19_14h13.44.740,multiplicationStroop,2021.2.3,Win32,60.37189085,,,,,,,,,,,,,,,,,,,,,,,,,,,,,,,,,32,1.549,1,0,1,1,23,1,8,×,4,8 × 4,neutral,largerFirst,1.5,1.5,32,,,,,,,,
,,,,,,,,,,,,,,,769,2022-01-19_14h13.44.740,multiplicationStroop,2021.2.3,Win32,60.37189085,,,,,,,,,,,,,,,,,,,,,,,,,,,,,,,,,28,3.8656,1,0,2,2,17,1,7,×,4,7 × 4,neutral,largerFirst,1.5,1.5,28,,,,,,,,
,,,,,,,,,,,,,,,769,2022-01-19_14h13.44.740,multiplicationStroop,2021.2.3,Win32,60.37189085,,,,,,,,,,,,,,,,,,,,,,,,,,,,,,,,,49,2.0987,1,0,3,3,33,1,7,×,7,7 × 7,neutral,tie,1.5,1.5,49,,,,,,,,
,,,,,,,,,,,,,,,769,2022-01-19_14h13.44.740,multiplicationStroop,2021.2.3,Win32,60.37189085,,,,,,,,,,,,,,,,,,,,,,,,,,,,,,,,,9,1.6329,1,0,4,4,29,1,3,×,3,3 × 3,neutral,tie,1.5,1.5,9,,,,,,,,
,,,,,,,,,,,,,,,769,2022-01-19_14h13.44.740,multiplicationStroop,2021.2.3,Win32,60.37189085,,,,,,,,,,,,,,,,,,,,,,,,,,,,,,,,,35,1.4857,1,0,5,5,1,1,5,×,7,5 × 7,neutral,smallerFirst,1.5,1.5,35,,,,,,,,
,,,,,,,,,,,,,,,769,2022-01-19_14h13.44.740,multiplicationStroop,2021.2.3,Win32,60.37189085,,,,,,,,,,,,,,,,,,,,,,,,,,,,,,,,,42,1.6956,1,0,6,6,6,1,6,×,7,6 × 7,neutral,smallerFirst,1.5,1.5,42,,,,,,,,
,,,,,,,,,,,,,,,769,2022-01-19_14h13.44.740,multiplicationStroop,2021.2.3,Win32,60.37189085,,,,,,,,,,,,,,,,,,,,,,,,,,,,,,,,,40,1.6994,1,0,7,7,24,1,8,×,5,8 × 5,neutral,largerFirst,1.5,1.5,40,,,,,,,,
,,,,,,,,,,,,,,,769,2022-01-19_14h13.44.740,multiplicationStroop,2021.2.3,Win32,60.37189085,,,,,,,,,,,,,,,,,,,,,,,,,,,,,,,,,63,1.966,1,0,8,8,12,1,7,×,9,7 × 9,neutral,smallerFirst,1.5,1.5,63,,,,,,,,
,,,,,,,,,,,,,,,769,2022-01-19_14h13.44.740,multiplicationStroop,2021.2.3,Win32,60.37189085,,,,,,,,,,,,,,,,,,,,,,,,,,,,,,,,,48,1.6156,1,0,9,9,15,1,8,×,6,8 × 6,neutral,largerFirst,1.5,1.5,48,,,,,,,,
,,,,,,,,,,,,,,,769,2022-01-19_14h13.44.740,multiplicationStroop,2021.2.3,Win32,60.37189085,,,,,,,,,,,,,,,,,,,,,,,,,,,,,,,,,45,1.3822,1,0,10,10,10,1,5,×,9,5 × 9,neutral,smallerFirst,1.5,1.5,45,,,,,,,,
,,,,,,,,,,,,,,,769,2022-01-19_14h13.44.740,multiplicationStroop,2021.2.3,Win32,60.37189085,,,,,,,,,,,,,,,,,,,,,,,,,,,,,,,,,10,1.5826,1,0,11,11,4,1,2,×,5,2 × 5,neutral,smallerFirst,1.5,1.5,10,,,,,,,,
,,,,,,,,,,,,,,,769,2022-01-19_14h13.44.740,multiplicationStroop,2021.2.3,Win32,60.37189085,,,,,,,,,,,,,,,,,,,,,,,,,,,,,,,,,54,1.766,1,0,12,12,7,1,6,×,9,6 × 9,neutral,smallerFirst,1.5,1.5,54,,,,,,,,
,,,,,,,,,,,,,,,769,2022-01-19_14h13.44.740,multiplicationStroop,2021.2.3,Win32,60.37189085,,,,,,,,,,,,,,,,,,,,,,,,,,,,,,,,,21,1.4191,1,0,13,13,8,1,3,×,7,3 × 7,neutral,smallerFirst,1.5,1.5,21,,,,,,,,
,,,,,,,,,,,,,,,769,2022-01-19_14h13.44.740,multiplicationStroop,2021.2.3,Win32,60.37189085,,,,,,,,,,,,,,,,,,,,,,,,,,,,,,,,,16,1.482,1,0,14,14,13,1,2,×,8,2 × 8,neutral,smallerFirst,1.5,1.5,16,,,,,,,,
,,,,,,,,,,,,,,,769,2022-01-19_14h13.44.740,multiplicationStroop,2021.2.3,Win32,60.37189085,,,,,,,,,,,,,,,,,,,,,,,,,,,,,,,,,12,1.2128,1,0,15,15,21,1,4,×,3,4 × 3,neutral,largerFirst,1.5,1.5,12,,,,,,,,
,,,,,,,,,,,,,,,769,2022-01-19_14h13.44.740,multiplicationStroop,2021.2.3,Win32,60.37189085,,,,,,,,,,,,,,,,,,,,,,,,,,,,,,,,,6,2.2653,1,0,16,16,26,1,3,×,2,3 × 2,neutral,largerFirst,1.5,1.5,6,,,,,,,,
,,,,,,,,,,,,,,,769,2022-01-19_14h13.44.740,multiplicationStroop,2021.2.3,Win32,60.37189085,,,,,,,,,,,,,,,,,,,,,,,,,,,,,,,,,14,1.2993,1,0,17,17,16,1,7,×,2,7 × 2,neutral,largerFirst,1.5,1.5,14,,,,,,,,
,,,,,,,,,,,,,,,769,2022-01-19_14h13.44.740,multiplicationStroop,2021.2.3,Win32,60.37189085,,,,,,,,,,,,,,,,,,,,,,,,,,,,,,,,,4,1.2326,1,0,18,18,28,1,2,×,2,2 × 2,neutral,tie,1.5,1.5,4,,,,,,,,
,,,,,,,,,,,,,,,769,2022-01-19_14h13.44.740,multiplicationStroop,2021.2.3,Win32,60.37189085,,,,,,,,,,,,,,,,,,,,,,,,,,,,,,,,,72,1.8319,1,0,19,19,11,1,8,×,9,8 × 9,neutral,smallerFirst,1.5,1.5,72,,,,,,,,
,,,,,,,,,,,,,,,769,2022-01-19_14h13.44.740,multiplicationStroop,2021.2.3,Win32,60.37189085,,,,,,,,,,,,,,,,,,,,,,,,,,,,,,,,,81,1.8329,1,0,20,20,35,1,9,×,9,9 × 9,neutral,tie,1.5,1.5,81,,,,,,,,
,,,,,,,,,,,,,,,769,2022-01-19_14h13.44.740,multiplicationStroop,2021.2.3,Win32,60.37189085,,,,,,,,,,,,,,,,,,,,,,,,,,,,,,,,,30,1.8157,1,0,21,21,19,1,6,×,5,6 × 5,neutral,largerFirst,1.5,1.5,30,,,,,,,,
,,,,,,,,,,,,,,,769,2022-01-19_14h13.44.740,multiplicationStroop,2021.2.3,Win32,60.37189085,,,,,,,,,,,,,,,,,,,,,,,,,,,,,,,,,16,1.6493,1,0,22,22,30,1,4,×,4,4 × 4,neutral,tie,1.5,1.5,16,,,,,,,,
,,,,,,,,,,,,,,,769,2022-01-19_14h13.44.740,multiplicationStroop,2021.2.3,Win32,60.37189085,,,,,,,,,,,,,,,,,,,,,,,,,,,,,,,,,18,1.4298,1,0,23,23,18,1,9,×,2,9 × 2,neutral,largerFirst,1.5,1.5,18,,,,,,,,
,,,,,,,,,,,,,,,769,2022-01-19_14h13.44.740,multiplicationStroop,2021.2.3,Win32,60.37189085,,,,,,,,,,,,,,,,,,,,,,,,,,,,,,,,,20,1.6489,1,0,24,24,20,1,5,×,4,5 × 4,neutral,largerFirst,1.5,1.5,20,,,,,,,,
,,,,,,,,,,,,,,,769,2022-01-19_14h13.44.740,multiplicationStroop,2021.2.3,Win32,60.37189085,,,,,,,,,,,,,,,,,,,,,,,,,,,,,,,,,24,2.2325,1,0,25,25,2,1,4,×,6,4 × 6,neutral,smallerFirst,1.5,1.5,24,,,,,,,,
,,,,,,,,,,,,,,,769,2022-01-19_14h13.44.740,multiplicationStroop,2021.2.3,Win32,60.37189085,,,,,,,,,,,,,,,,,,,,,,,,,,,,,,,,,24,1.7054,1,0,26,26,22,1,8,×,3,8 × 3,neutral,largerFirst,1.5,1.5,24,,,,,,,,
,,,,,,,,,,,,,,,769,2022-01-19_14h13.44.740,multiplicationStroop,2021.2.3,Win32,60.37189085,,,,,,,,,,,,,,,,,,,,,,,,,,,,,,,,,56,1.6035,1,0,27,27,9,1,7,×,8,7 × 8,neutral,smallerFirst,1.5,1.5,56,,,,,,,,
,,,,,,,,,,,,,,,769,2022-01-19_14h13.44.740,multiplicationStroop,2021.2.3,Win32,60.37189085,,,,,,,,,,,,,,,,,,,,,,,,,,,,,,,,,36,2.0285,1,0,28,28,27,1,9,×,4,9 × 4,neutral,largerFirst,1.5,1.5,36,,,,,,,,
,,,,,,,,,,,,,,,769,2022-01-19_14h13.44.740,multiplicationStroop,2021.2.3,Win32,60.37189085,,,,,,,,,,,,,,,,,,,,,,,,,,,,,,,,,36,1.6821,1,0,29,29,32,1,6,×,6,6 × 6,neutral,tie,1.5,1.5,36,,,,,,,,
,,,,,,,,,,,,,,,769,2022-01-19_14h13.44.740,multiplicationStroop,2021.2.3,Win32,60.37189085,,,,,,,,,,,,,,,,,,,,,,,,,,,,,,,,,12,1.2492,1,0,30,30,25,1,6,×,2,6 × 2,neutral,largerFirst,1.5,1.5,12,,,,,,,,
,,,,,,,,,,,,,,,769,2022-01-19_14h13.44.740,multiplicationStroop,2021.2.3,Win32,60.37189085,,,,,,,,,,,,,,,,,,,,,,,,,,,,,,,,,15,1.6489,1,0,31,31,5,1,3,×,5,3 × 5,neutral,smallerFirst,1.5,1.5,15,,,,,,,,
,,,,,,,,,,,,,,,769,2022-01-19_14h13.44.740,multiplicationStroop,2021.2.3,Win32,60.37189085,,,,,,,,,,,,,,,,,,,,,,,,,,,,,,,,,8,1.6823,1,0,32,32,3,1,2,×,4,2 × 4,neutral,smallerFirst,1.5,1.5,8,,,,,,,,
,,,,,,,,,,,,,,,769,2022-01-19_14h13.44.740,multiplicationStroop,2021.2.3,Win32,60.37189085,,,,,,,,,,,,,,,,,,,,,,,,,,,,,,,,,27,2.2854,1,0,33,33,14,1,9,×,3,9 × 3,neutral,largerFirst,1.5,1.5,27,,,,,,,,
,,,,,,,,,,,,,,,769,2022-01-19_14h13.44.740,multiplicationStroop,2021.2.3,Win32,60.37189085,,,,,,,,,,,,,,,,,,,,,,,,,,,,,,,,,64,1.5292,1,0,34,34,34,1,8,×,8,8 × 8,neutral,tie,1.5,1.5,64,,,,,,,,
,,,,,,,,,,,,,,,769,2022-01-19_14h13.44.740,multiplicationStroop,2021.2.3,Win32,60.37189085,,,,,,,,,,,,,,,,,,,,,,,,,,,,,,,,,25,1.4828,1,0,35,35,31,1,5,×,5,5 × 5,neutral,tie,1.5,1.5,25,,,,,,,,
,,,,,,,,,,,,,,,769,2022-01-19_14h13.44.740,multiplicationStroop,2021.2.3,Win32,60.37189085,,,,,,,,,,,,,,,,,,,,,,,,,,,,,,,,,,,,,,,,,,,,,,,,,,0,1,1,1,1,stimulusFile/mult_blk2.xlsx,,
,,,,,,,,,,,,,,,769,2022-01-19_14h13.44.740,multiplicationStroop,2021.2.3,Win32,60.37189085,,,,,,,,,,,,,,,,,,,,,,,,,,,,,,,space,6.6837,16,1.4527,1,0,0,0,30,1,4,×,4,4 × 4,neutral,tie,1.5,1.5,16,,,,,,,,
,,,,,,,,,,,,,,,769,2022-01-19_14h13.44.740,multiplicationStroop,2021.2.3,Win32,60.37189085,,,,,,,,,,,,,,,,,,,,,,,,,,,,,,,,,45,1.3655,1,0,1,1,24,1,9,×,5,9 × 5,neutral,largerFirst,1.5,1.5,45,,,,,,,,
,,,,,,,,,,,,,,,769,2022-01-19_14h13.44.740,multiplicationStroop,2021.2.3,Win32,60.37189085,,,,,,,,,,,,,,,,,,,,,,,,,,,,,,,,,35,1.5661,1,0,2,2,15,1,7,×,5,7 × 5,neutral,largerFirst,1.5,1.5,35,,,,,,,,
,,,,,,,,,,,,,,,769,2022-01-19_14h13.44.740,multiplicationStroop,2021.2.3,Win32,60.37189085,,,,,,,,,,,,,,,,,,,,,,,,,,,,,,,,,4,1.199,1,0,3,3,28,1,2,×,2,2 × 2,neutral,tie,1.5,1.5,4,,,,,,,,
,,,,,,,,,,,,,,,769,2022-01-19_14h13.44.740,multiplicationStroop,2021.2.3,Win32,60.37189085,,,,,,,,,,,,,,,,,,,,,,,,,,,,,,,,,6,1.8155,1,0,4,4,12,1,2,×,3,2 × 3,neutral,smallerFirst,1.5,1.5,6,,,,,,,,
,,,,,,,,,,,,,,,769,2022-01-19_14h13.44.740,multiplicationStroop,2021.2.3,Win32,60.37189085,,,,,,,,,,,,,,,,,,,,,,,,,,,,,,,,,8,1.4327,1,0,5,5,17,1,4,×,2,4 × 2,neutral,largerFirst,1.5,1.5,8,,,,,,,,
,,,,,,,,,,,,,,,769,2022-01-19_14h13.44.740,multiplicationStroop,2021.2.3,Win32,60.37189085,,,,,,,,,,,,,,,,,,,,,,,,,,,,,,,,,36,1.6494,1,0,6,6,13,1,4,×,9,4 × 9,neutral,smallerFirst,1.5,1.5,36,,,,,,,,
,,,,,,,,,,,,,,,769,2022-01-19_14h13.44.740,multiplicationStroop,2021.2.3,Win32,60.37189085,,,,,,,,,,,,,,,,,,,,,,,,,,,,,,,,,36,1.5321,1,0,7,7,32,1,6,×,6,6 × 6,neutral,tie,1.5,1.5,36,,,,,,,,
,,,,,,,,,,,,,,,769,2022-01-19_14h13.44.740,multiplicationStroop,2021.2.3,Win32,60.37189085,,,,,,,,,,,,,,,,,,,,,,,,,,,,,,,,,40,1.5826,1,0,8,8,10,1,5,×,8,5 × 8,neutral,smallerFirst,1.5,1.5,40,,,,,,,,
,,,,,,,,,,,,,,,769,2022-01-19_14h13.44.740,multiplicationStroop,2021.2.3,Win32,60.37189085,,,,,,,,,,,,,,,,,,,,,,,,,,,,,,,,,28,1.8155,1,0,9,9,3,1,4,×,7,4 × 7,neutral,smallerFirst,1.5,1.5,28,,,,,,,,
,,,,,,,,,,,,,,,769,2022-01-19_14h13.44.740,multiplicationStroop,2021.2.3,Win32,60.37189085,,,,,,,,,,,,,,,,,,,,,,,,,,,,,,,,,30,2.1158,1,0,10,10,5,1,5,×,6,5 × 6,neutral,smallerFirst,1.5,1.5,30,,,,,,,,
,,,,,,,,,,,,,,,769,2022-01-19_14h13.44.740,multiplicationStroop,2021.2.3,Win32,60.37189085,,,,,,,,,,,,,,,,,,,,,,,,,,,,,,,,,25,2.0494,1,0,11,11,31,1,5,×,5,5 × 5,neutral,tie,1.5,1.5,25,,,,,,,,
,,,,,,,,,,,,,,,769,2022-01-19_14h13.44.740,multiplicationStroop,2021.2.3,Win32,60.37189085,,,,,,,,,,,,,,,,,,,,,,,,,,,,,,,,,18,1.6825,1,0,12,12,4,1,2,×,9,2 × 9,neutral,smallerFirst,1.5,1.5,18,,,,,,,,
,,,,,,,,,,,,,,,769,2022-01-19_14h13.44.740,multiplicationStroop,2021.2.3,Win32,60.37189085,,,,,,,,,,,,,,,,,,,,,,,,,,,,,,,,,63,2.1155,1,0,13,13,26,1,9,×,7,9 × 7,neutral,largerFirst,1.5,1.5,63,,,,,,,,
,,,,,,,,,,,,,,,769,2022-01-19_14h13.44.740,multiplicationStroop,2021.2.3,Win32,60.37189085,,,,,,,,,,,,,,,,,,,,,,,,,,,,,,,,,9,1.416,1,0,14,14,29,1,3,×,3,3 × 3,neutral,tie,1.5,1.5,9,,,,,,,,
,,,,,,,,,,,,,,,769,2022-01-19_14h13.44.740,multiplicationStroop,2021.2.3,Win32,60.37189085,,,,,,,,,,,,,,,,,,,,,,,,,,,,,,,,,49,1.5855,1,0,15,15,33,1,7,×,7,7 × 7,neutral,tie,1.5,1.5,49,,,,,,,,
,,,,,,,,,,,,,,,769,2022-01-19_14h13.44.740,multiplicationStroop,2021.2.3,Win32,60.37189085,,,,,,,,,,,,,,,,,,,,,,,,,,,,,,,,,64,1.579,1,0,16,16,34,1,8,×,8,8 × 8,neutral,tie,1.5,1.5,64,,,,,,,,
,,,,,,,,,,,,,,,769,2022-01-19_14h13.44.740,multiplicationStroop,2021.2.3,Win32,60.37189085,,,,,,,,,,,,,,,,,,,,,,,,,,,,,,,,,16,1.3164,1,0,17,17,27,1,8,×,2,8 × 2,neutral,largerFirst,1.5,1.5,16,,,,,,,,
,,,,,,,,,,,,,,,769,2022-01-19_14h13.44.740,multiplicationStroop,2021.2.3,Win32,60.37189085,,,,,,,,,,,,,,,,,,,,,,,,,,,,,,,,,10,1.532,1,0,18,18,18,1,5,×,2,5 × 2,neutral,largerFirst,1.5,1.5,10,,,,,,,,
,,,,,,,,,,,,,,,769,2022-01-19_14h13.44.740,multiplicationStroop,2021.2.3,Win32,60.37189085,,,,,,,,,,,,,,,,,,,,,,,,,,,,,,,,,18,1.7163,1,0,19,19,14,1,6,×,3,6 × 3,neutral,largerFirst,1.5,1.5,18,,,,,,,,
,,,,,,,,,,,,,,,769,2022-01-19_14h13.44.740,multiplicationStroop,2021.2.3,Win32,60.37189085,,,,,,,,,,,,,,,,,,,,,,,,,,,,,,,,,48,1.6492,1,0,20,20,1,1,6,×,8,6 × 8,neutral,smallerFirst,1.5,1.5,48,,,,,,,,
,,,,,,,,,,,,,,,769,2022-01-19_14h13.44.740,multiplicationStroop,2021.2.3,Win32,60.37189085,,,,,,,,,,,,,,,,,,,,,,,,,,,,,,,,,24,1.4321,1,0,21,21,8,1,3,×,8,3 × 8,neutral,smallerFirst,1.5,1.5,24,,,,,,,,
,,,,,,,,,,,,,,,769,2022-01-19_14h13.44.740,multiplicationStroop,2021.2.3,Win32,60.37189085,,,,,,,,,,,,,,,,,,,,,,,,,,,,,,,,,12,1.2994,1,0,22,22,7,1,3,×,4,3 × 4,neutral,smallerFirst,1.5,1.5,12,,,,,,,,
,,,,,,,,,,,,,,,769,2022-01-19_14h13.44.740,multiplicationStroop,2021.2.3,Win32,60.37189085,,,,,,,,,,,,,,,,,,,,,,,,,,,,,,,,,54,1.5657,1,0,23,23,21,1,9,×,6,9 × 6,neutral,largerFirst,1.5,1.5,54,,,,,,,,
,,,,,,,,,,,,,,,769,2022-01-19_14h13.44.740,multiplicationStroop,2021.2.3,Win32,60.37189085,,,,,,,,,,,,,,,,,,,,,,,,,,,,,,,,,72,1.682,1,0,24,24,25,1,9,×,8,9 × 8,neutral,largerFirst,1.5,1.5,72,,,,,,,,
,,,,,,,,,,,,,,,769,2022-01-19_14h13.44.740,multiplicationStroop,2021.2.3,Win32,60.37189085,,,,,,,,,,,,,,,,,,,,,,,,,,,,,,,,,21,1.3827,1,0,25,25,22,1,7,×,3,7 × 3,neutral,largerFirst,1.5,1.5,21,,,,,,,,
,,,,,,,,,,,,,,,769,2022-01-19_14h13.44.740,multiplicationStroop,2021.2.3,Win32,60.37189085,,,,,,,,,,,,,,,,,,,,,,,,,,,,,,,,,20,2.8307,1,0,26,26,6,1,4,×,5,4 × 5,neutral,smallerFirst,1.5,1.5,20,,,,,,,,
,,,,,,,,,,,,,,,769,2022-01-19_14h13.44.740,multiplicationStroop,2021.2.3,Win32,60.37189085,,,,,,,,,,,,,,,,,,,,,,,,,,,,,,,,,14,1.3987,1,0,27,27,2,1,2,×,7,2 × 7,neutral,smallerFirst,1.5,1.5,14,,,,,,,,
,,,,,,,,,,,,,,,769,2022-01-19_14h13.44.740,multiplicationStroop,2021.2.3,Win32,60.37189085,,,,,,,,,,,,,,,,,,,,,,,,,,,,,,,,,24,1.2996,1,0,28,28,16,1,6,×,4,6 × 4,neutral,largerFirst,1.5,1.5,24,,,,,,,,
,,,,,,,,,,,,,,,769,2022-01-19_14h13.44.740,multiplicationStroop,2021.2.3,Win32,60.37189085,,,,,,,,,,,,,,,,,,,,,,,,,,,,,,,,,81,1.8987,1,0,29,29,35,1,9,×,9,9 × 9,neutral,tie,1.5,1.5,81,,,,,,,,
,,,,,,,,,,,,,,,769,2022-01-19_14h13.44.740,multiplicationStroop,2021.2.3,Win32,60.37189085,,,,,,,,,,,,,,,,,,,,,,,,,,,,,,,,,42,1.5327,1,0,30,30,20,1,7,×,6,7 × 6,neutral,largerFirst,1.5,1.5,42,,,,,,,,
,,,,,,,,,,,,,,,769,2022-01-19_14h13.44.740,multiplicationStroop,2021.2.3,Win32,60.37189085,,,,,,,,,,,,,,,,,,,,,,,,,,,,,,,,,15,1.3494,1,0,31,31,19,1,5,×,3,5 × 3,neutral,largerFirst,1.5,1.5,15,,,,,,,,
,,,,,,,,,,,,,,,769,2022-01-19_14h13.44.740,multiplicationStroop,2021.2.3,Win32,60.37189085,,,,,,,,,,,,,,,,,,,,,,,,,,,,,,,,,56,1.499,1,0,32,32,23,1,8,×,7,8 × 7,neutral,largerFirst,1.5,1.5,56,,,,,,,,
,,,,,,,,,,,,,,,769,2022-01-19_14h13.44.740,multiplicationStroop,2021.2.3,Win32,60.37189085,,,,,,,,,,,,,,,,,,,,,,,,,,,,,,,,,27,1.6827,1,0,33,33,0,1,3,×,9,3 × 9,neutral,smallerFirst,1.5,1.5,27,,,,,,,,
,,,,,,,,,,,,,,,769,2022-01-19_14h13.44.740,multiplicationStroop,2021.2.3,Win32,60.37189085,,,,,,,,,,,,,,,,,,,,,,,,,,,,,,,,,32,1.5818,1,0,34,34,9,1,4,×,8,4 × 8,neutral,smallerFirst,1.5,1.5,32,,,,,,,,
,,,,,,,,,,,,,,,769,2022-01-19_14h13.44.740,multiplicationStroop,2021.2.3,Win32,60.37189085,,,,,,,,,,,,,,,,,,,,,,,,,,,,,,,,,12,1.3524,1,0,35,35,11,1,2,×,6,2 × 6,neutral,smallerFirst,1.5,1.5,12,,,,,,,,
,,,,,,,,,,,,,,,769,2022-01-19_14h13.44.740,multiplicationStroop,2021.2.3,Win32,60.37189085,,,,,,,,,,,,,,,,,,,,,,,,,,,,,,,,,,,,,,,,,,,,,,,,,,0,2,2,0,1,stimulusFile/mult_blk1.xlsx,,
,,,,,,,,,,,,,,,769,2022-01-19_14h13.44.740,multiplicationStroop,2021.2.3,Win32,60.37189085,,,,,,,,,,,,,,,,,,,,,,,,,,,,,,,space,1.2173,28,1.6074,1,0,0,0,13,1,4,×,7,4 × 7,congruent,smallerFirst,1,2,28,,,,,,,,
,,,,,,,,,,,,,,,769,2022-01-19_14h13.44.740,multiplicationStroop,2021.2.3,Win32,60.37189085,,,,,,,,,,,,,,,,,,,,,,,,,,,,,,,,,64,1.6002,1,0,1,1,34,1,8,×,8,8 × 8,neutral,tie,1,2,64,,,,,,,,
,,,,,,,,,,,,,,,769,2022-01-19_14h13.44.740,multiplicationStroop,2021.2.3,Win32,60.37189085,,,,,,,,,,,,,,,,,,,,,,,,,,,,,,,,,14,1.534,1,0,2,2,0,1,2,×,7,2 × 7,congruent,smallerFirst,1,2,14,,,,,,,,
,,,,,,,,,,,,,,,769,2022-01-19_14h13.44.740,multiplicationStroop,2021.2.3,Win32,60.37189085,,,,,,,,,,,,,,,,,,,,,,,,,,,,,,,,,20,1.6625,1,0,3,3,21,1,5,×,4,5 × 4,congruent,largerFirst,2,1,20,,,,,,,,
,,,,,,,,,,,,,,,769,2022-01-19_14h13.44.740,multiplicationStroop,2021.2.3,Win32,60.37189085,,,,,,,,,,,,,,,,,,,,,,,,,,,,,,,,,48,1.6495,1,0,4,4,4,1,6,×,8,6 × 8,congruent,smallerFirst,1,2,48,,,,,,,,
,,,,,,,,,,,,,,,769,2022-01-19_14h13.44.740,multiplicationStroop,2021.2.3,Win32,60.37189085,,,,,,,,,,,,,,,,,,,,,,,,,,,,,,,,,81,2.3158,1,0,5,5,35,1,9,×,9,9 × 9,neutral,tie,1,2,81,,,,,,,,
,,,,,,,,,,,,,,,769,2022-01-19_14h13.44.740,multiplicationStroop,2021.2.3,Win32,60.37189085,,,,,,,,,,,,,,,,,,,,,,,,,,,,,,,,,32,1.9819,1,0,6,6,6,1,4,×,8,4 × 8,congruent,smallerFirst,1,2,32,,,,,,,,
,,,,,,,,,,,,,,,769,2022-01-19_14h13.44.740,multiplicationStroop,2021.2.3,Win32,60.37189085,,,,,,,,,,,,,,,,,,,,,,,,,,,,,,,,,4,1.699,1,0,7,7,28,1,2,×,2,2 × 2,neutral,tie,1,2,4,,,,,,,,
,,,,,,,,,,,,,,,769,2022-01-19_14h13.44.740,multiplicationStroop,2021.2.3,Win32,60.37189085,,,,,,,,,,,,,,,,,,,,,,,,,,,,,,,,,54,1.4496,1,0,8,8,26,1,9,×,6,9 × 6,congruent,largerFirst,2,1,54,,,,,,,,
,,,,,,,,,,,,,,,769,2022-01-19_14h13.44.740,multiplicationStroop,2021.2.3,Win32,60.37189085,,,,,,,,,,,,,,,,,,,,,,,,,,,,,,,,,40,1.6322,1,0,9,9,20,1,8,×,5,8 × 5,congruent,largerFirst,2,1,40,,,,,,,,
,,,,,,,,,,,,,,,769,2022-01-19_14h13.44.740,multiplicationStroop,2021.2.3,Win32,60.37189085,,,,,,,,,,,,,,,,,,,,,,,,,,,,,,,,,12,1.1826,1,0,10,10,16,1,4,×,3,4 × 3,congruent,largerFirst,2,1,12,,,,,,,,
,,,,,,,,,,,,,,,769,2022-01-19_14h13.44.740,multiplicationStroop,2021.2.3,Win32,60.37189085,,,,,,,,,,,,,,,,,,,,,,,,,,,,,,,,,30,1.7658,1,0,11,11,1,1,5,×,6,5 × 6,congruent,smallerFirst,1,2,30,,,,,,,,
,,,,,,,,,,,,,,,769,2022-01-19_14h13.44.740,multiplicationStroop,2021.2.3,Win32,60.37189085,,,,,,,,,,,,,,,,,,,,,,,,,,,,,,,,,12,1.249,1,0,12,12,5,1,2,×,6,2 × 6,congruent,smallerFirst,1,2,12,,,,,,,,
,,,,,,,,,,,,,,,769,2022-01-19_14h13.44.740,multiplicationStroop,2021.2.3,Win32,60.37189085,,,,,,,,,,,,,,,,,,,,,,,,,,,,,,,,,27,1.7489,1,0,13,13,12,1,3,×,9,3 × 9,congruent,smallerFirst,1,2,27,,,,,,,,
,,,,,,,,,,,,,,,769,2022-01-19_14h13.44.740,multiplicationStroop,2021.2.3,Win32,60.37189085,,,,,,,,,,,,,,,,,,,,,,,,,,,,,,,,,8,1.5991,1,0,14,14,23,1,4,×,2,4 × 2,congruent,largerFirst,2,1,8,,,,,,,,
,,,,,,,,,,,,,,,769,2022-01-19_14h13.44.740,multiplicationStroop,2021.2.3,Win32,60.37189085,,,,,,,,,,,,,,,,,,,,,,,,,,,,,,,,,24,1.3997,1,0,15,15,11,1,4,×,6,4 × 6,congruent,smallerFirst,1,2,24,,,,,,,,
,,,,,,,,,,,,,,,769,2022-01-19_14h13.44.740,multiplicationStroop,2021.2.3,Win32,60.37189085,,,,,,,,,,,,,,,,,,,,,,,,,,,,,,,,,16,1.6659,1,0,16,16,30,1,4,×,4,4 × 4,neutral,tie,1,2,16,,,,,,,,
,,,,,,,,,,,,,,,769,2022-01-19_14h13.44.740,multiplicationStroop,2021.2.3,Win32,60.37189085,,,,,,,,,,,,,,,,,,,,,,,,,,,,,,,,,9,1.8154,1,0,17,17,29,1,3,×,3,3 × 3,neutral,tie,1,2,9,,,,,,,,
,,,,,,,,,,,,,,,769,2022-01-19_14h13.44.740,multiplicationStroop,2021.2.3,Win32,60.37189085,,,,,,,,,,,,,,,,,,,,,,,,,,,,,,,,,21,1.5324,1,0,18,18,2,1,3,×,7,3 × 7,congruent,smallerFirst,1,2,21,,,,,,,,
,,,,,,,,,,,,,,,769,2022-01-19_14h13.44.740,multiplicationStroop,2021.2.3,Win32,60.37189085,,,,,,,,,,,,,,,,,,,,,,,,,,,,,,,,,42,1.8489,1,0,19,19,17,1,7,×,6,7 × 6,congruent,largerFirst,2,1,42,,,,,,,,
,,,,,,,,,,,,,,,769,2022-01-19_14h13.44.740,multiplicationStroop,2021.2.3,Win32,60.37189085,,,,,,,,,,,,,,,,,,,,,,,,,,,,,,,,,10,1.5327,1,0,20,20,10,1,2,×,5,2 × 5,congruent,smallerFirst,1,2,10,,,,,,,,
,,,,,,,,,,,,,,,769,2022-01-19_14h13.44.740,multiplicationStroop,2021.2.3,Win32,60.37189085,,,,,,,,,,,,,,,,,,,,,,,,,,,,,,,,,18,1.4322,1,0,21,21,8,1,2,×,9,2 × 9,congruent,smallerFirst,1,2,18,,,,,,,,
,,,,,,,,,,,,,,,769,2022-01-19_14h13.44.740,multiplicationStroop,2021.2.3,Win32,60.37189085,,,,,,,,,,,,,,,,,,,,,,,,,,,,,,,,,56,1.4822,1,0,22,22,22,1,8,×,7,8 × 7,congruent,largerFirst,2,1,56,,,,,,,,
,,,,,,,,,,,,,,,769,2022-01-19_14h13.44.740,multiplicationStroop,2021.2.3,Win32,60.37189085,,,,,,,,,,,,,,,,,,,,,,,,,,,,,,,,,35,2.1159,1,0,23,23,15,1,7,×,5,7 × 5,congruent,largerFirst,2,1,35,,,,,,,,
,,,,,,,,,,,,,,,769,2022-01-19_14h13.44.740,multiplicationStroop,2021.2.3,Win32,60.37189085,,,,,,,,,,,,,,,,,,,,,,,,,,,,,,,,,18,1.6661,1,0,24,24,25,1,6,×,3,6 × 3,congruent,largerFirst,2,1,18,,,,,,,,
,,,,,,,,,,,,,,,769,2022-01-19_14h13.44.740,multiplicationStroop,2021.2.3,Win32,60.37189085,,,,,,,,,,,,,,,,,,,,,,,,,,,,,,,,,15,1.2653,1,0,25,25,18,1,5,×,3,5 × 3,congruent,largerFirst,2,1,15,,,,,,,,
,,,,,,,,,,,,,,,769,2022-01-19_14h13.44.740,multiplicationStroop,2021.2.3,Win32,60.37189085,,,,,,,,,,,,,,,,,,,,,,,,,,,,,,,,,45,1.6327,1,0,26,26,9,1,5,×,9,5 × 9,congruent,smallerFirst,1,2,45,,,,,,,,
,,,,,,,,,,,,,,,769,2022-01-19_14h13.44.740,multiplicationStroop,2021.2.3,Win32,60.37189085,,,,,,,,,,,,,,,,,,,,,,,,,,,,,,,,,63,2.1494,1,0,27,27,7,1,7,×,9,7 × 9,congruent,smallerFirst,1,2,63,,,,,,,,
,,,,,,,,,,,,,,,769,2022-01-19_14h13.44.740,multiplicationStroop,2021.2.3,Win32,60.37189085,,,,,,,,,,,,,,,,,,,,,,,,,,,,,,,,,24,1.7488,1,0,28,28,24,1,8,×,3,8 × 3,congruent,largerFirst,2,1,24,,,,,,,,
,,,,,,,,,,,,,,,769,2022-01-19_14h13.44.740,multiplicationStroop,2021.2.3,Win32,60.37189085,,,,,,,,,,,,,,,,,,,,,,,,,,,,,,,,,72,1.8994,1,0,29,29,3,1,8,×,9,8 × 9,congruent,smallerFirst,1,2,72,,,,,,,,
,,,,,,,,,,,,,,,769,2022-01-19_14h13.44.740,multiplicationStroop,2021.2.3,Win32,60.37189085,,,,,,,,,,,,,,,,,,,,,,,,,,,,,,,,,36,1.8493,1,0,30,30,14,1,9,×,4,9 × 4,congruent,largerFirst,2,1,36,,,,,,,,
,,,,,,,,,,,,,,,769,2022-01-19_14h13.44.740,multiplicationStroop,2021.2.3,Win32,60.37189085,,,,,,,,,,,,,,,,,,,,,,,,,,,,,,,,,6,1.3984,1,0,31,31,27,1,3,×,2,3 × 2,congruent,largerFirst,2,1,6,,,,,,,,
,,,,,,,,,,,,,,,769,2022-01-19_14h13.44.740,multiplicationStroop,2021.2.3,Win32,60.37189085,,,,,,,,,,,,,,,,,,,,,,,,,,,,,,,,,49,1.5654,1,0,32,32,33,1,7,×,7,7 × 7,neutral,tie,1,2,49,,,,,,,,
,,,,,,,,,,,,,,,769,2022-01-19_14h13.44.740,multiplicationStroop,2021.2.3,Win32,60.37189085,,,,,,,,,,,,,,,,,,,,,,,,,,,,,,,,,16,1.516,1,0,33,33,19,1,8,×,2,8 × 2,congruent,largerFirst,2,1,16,,,,,,,,
,,,,,,,,,,,,,,,769,2022-01-19_14h13.44.740,multiplicationStroop,2021.2.3,Win32,60.37189085,,,,,,,,,,,,,,,,,,,,,,,,,,,,,,,,,25,1.5328,1,0,34,34,31,1,5,×,5,5 × 5,neutral,tie,1,2,25,,,,,,,,
,,,,,,,,,,,,,,,769,2022-01-19_14h13.44.740,multiplicationStroop,2021.2.3,Win32,60.37189085,,,,,,,,,,,,,,,,,,,,,,,,,,,,,,,,,36,1.4487,1,0,35,35,32,1,6,×,6,6 × 6,neutral,tie,1,2,36,,,,,,,,
,,,,,,,,,,,,,,,769,2022-01-19_14h13.44.740,multiplicationStroop,2021.2.3,Win32,60.37189085,,,,,,,,,,,,,,,,,,,,,,,,,,,,,,,,,,,,,,,,,,,,,,,,,,0,3,3,3,1,stimulusFile/mult_blk4_congruent.xlsx,,
,,,,,,,,,,,,,,,769,2022-01-19_14h13.44.740,multiplicationStroop,2021.2.3,Win32,60.37189085,,,,,,,,,,,,,,,,,,,,,,,,,,,,,,,space,1.0841,18,1.5927,1,0,0,0,8,1,3,×,6,3 × 6,incongruent,smallerFirst,2,1,18,,,,,,,,
,,,,,,,,,,,,,,,769,2022-01-19_14h13.44.740,multiplicationStroop,2021.2.3,Win32,60.37189085,,,,,,,,,,,,,,,,,,,,,,,,,,,,,,,,,10,1.8686,1,0,1,1,21,1,5,×,2,5 × 2,incongruent,largerFirst,1,2,10,,,,,,,,
,,,,,,,,,,,,,,,769,2022-01-19_14h13.44.740,multiplicationStroop,2021.2.3,Win32,60.37189085,,,,,,,,,,,,,,,,,,,,,,,,,,,,,,,,,64,1.5463,1,0,2,2,34,1,8,×,8,8 × 8,incongruent,tie,1,2,64,,,,,,,,
,,,,,,,,,,,,,,,769,2022-01-19_14h13.44.740,multiplicationStroop,2021.2.3,Win32,60.37189085,,,,,,,,,,,,,,,,,,,,,,,,,,,,,,,,,81,2.0853,1,0,3,3,35,1,9,×,9,9 × 9,incongruent,tie,1,2,81,,,,,,,,
,,,,,,,,,,,,,,,769,2022-01-19_14h13.44.740,multiplicationStroop,2021.2.3,Win32,60.37189085,,,,,,,,,,,,,,,,,,,,,,,,,,,,,,,,,15,1.4298,1,0,4,4,10,1,3,×,5,3 × 5,incongruent,smallerFirst,2,1,15,,,,,,,,
,,,,,,,,,,,,,,,769,2022-01-19_14h13.44.740,multiplicationStroop,2021.2.3,Win32,60.37189085,,,,,,,,,,,,,,,,,,,,,,,,,,,,,,,,,25,1.7026,1,0,5,5,31,1,5,×,5,5 × 5,incongruent,tie,1,2,25,,,,,,,,
,,,,,,,,,,,,,,,769,2022-01-19_14h13.44.740,multiplicationStroop,2021.2.3,Win32,60.37189085,,,,,,,,,,,,,,,,,,,,,,,,,,,,,,,,,40,1.5956,1,0,6,6,13,1,5,×,8,5 × 8,incongruent,smallerFirst,2,1,40,,,,,,,,
,,,,,,,,,,,,,,,769,2022-01-19_14h13.44.740,multiplicationStroop,2021.2.3,Win32,60.37189085,,,,,,,,,,,,,,,,,,,,,,,,,,,,,,,,,4,1.1859,1,0,7,7,28,1,2,×,2,2 × 2,incongruent,tie,1,2,4,,,,,,,,
,,,,,,,,,,,,,,,769,2022-01-19_14h13.44.740,multiplicationStroop,2021.2.3,Win32,60.37189085,,,,,,,,,,,,,,,,,,,,,,,,,,,,,,,,,35,2.5125,1,0,8,8,12,1,5,×,7,5 × 7,incongruent,smallerFirst,2,1,35,,,,,,,,
,,,,,,,,,,,,,,,769,2022-01-19_14h13.44.740,multiplicationStroop,2021.2.3,Win32,60.37189085,,,,,,,,,,,,,,,,,,,,,,,,,,,,,,,,,32,1.5555,1,0,9,9,7,1,4,×,8,4 × 8,incongruent,smallerFirst,2,1,32,,,,,,,,
,,,,,,,,,,,,,,,769,2022-01-19_14h13.44.740,multiplicationStroop,2021.2.3,Win32,60.37189085,,,,,,,,,,,,,,,,,,,,,,,,,,,,,,,,,16,2.2486,1,0,10,10,23,1,8,×,2,8 × 2,incongruent,largerFirst,1,2,16,,,,,,,,
,,,,,,,,,,,,,,,769,2022-01-19_14h13.44.740,multiplicationStroop,2021.2.3,Win32,60.37189085,,,,,,,,,,,,,,,,,,,,,,,,,,,,,,,,,45,1.3227,1,0,11,11,22,1,9,×,5,9 × 5,incongruent,largerFirst,1,2,45,,,,,,,,
,,,,,,,,,,,,,,,769,2022-01-19_14h13.44.740,multiplicationStroop,2021.2.3,Win32,60.37189085,,,,,,,,,,,,,,,,,,,,,,,,,,,,,,,,,54,1.6311,1,0,12,12,6,1,6,×,9,6 × 9,incongruent,smallerFirst,2,1,54,,,,,,,,
,,,,,,,,,,,,,,,769,2022-01-19_14h13.44.740,multiplicationStroop,2021.2.3,Win32,60.37189085,,,,,,,,,,,,,,,,,,,,,,,,,,,,,,,,,12,1.349,1,0,13,13,19,1,6,×,2,6 × 2,incongruent,largerFirst,1,2,12,,,,,,,,
,,,,,,,,,,,,,,,769,2022-01-19_14h13.44.740,multiplicationStroop,2021.2.3,Win32,60.37189085,,,,,,,,,,,,,,,,,,,,,,,,,,,,,,,,,28,2.1487,1,0,14,14,16,1,7,×,4,7 × 4,incongruent,largerFirst,1,2,28,,,,,,,,
,,,,,,,,,,,,,,,769,2022-01-19_14h13.44.740,multiplicationStroop,2021.2.3,Win32,60.37189085,,,,,,,,,,,,,,,,,,,,,,,,,,,,,,,,,16,2.3329,1,0,15,15,30,1,4,×,4,4 × 4,incongruent,tie,1,2,16,,,,,,,,
,,,,,,,,,,,,,,,769,2022-01-19_14h13.44.740,multiplicationStroop,2021.2.3,Win32,60.37189085,,,,,,,,,,,,,,,,,,,,,,,,,,,,,,,,,9,1.3815,1,0,16,16,29,1,3,×,3,3 × 3,incongruent,tie,1,2,9,,,,,,,,
,,,,,,,,,,,,,,,769,2022-01-19_14h13.44.740,multiplicationStroop,2021.2.3,Win32,60.37189085,,,,,,,,,,,,,,,,,,,,,,,,,,,,,,,,,8,1.4657,1,0,17,17,24,1,4,×,2,4 × 2,incongruent,largerFirst,1,2,8,,,,,,,,
,,,,,,,,,,,,,,,769,2022-01-19_14h13.44.740,multiplicationStroop,2021.2.3,Win32,60.37189085,,,,,,,,,,,,,,,,,,,,,,,,,,,,,,,,,20,1.6827,1,0,18,18,27,1,5,×,4,5 × 4,incongruent,largerFirst,1,2,20,,,,,,,,
,,,,,,,,,,,,,,,769,2022-01-19_14h13.44.740,multiplicationStroop,2021.2.3,Win32,60.37189085,,,,,,,,,,,,,,,,,,,,,,,,,,,,,,,,,18,1.6658,1,0,19,19,2,1,2,×,9,2 × 9,incongruent,smallerFirst,2,1,18,,,,,,,,
,,,,,,,,,,,,,,,769,2022-01-19_14h13.44.740,multiplicationStroop,2021.2.3,Win32,60.37189085,,,,,,,,,,,,,,,,,,,,,,,,,,,,,,,,,30,2.5823,1,0,20,20,25,1,6,×,5,6 × 5,incongruent,largerFirst,1,2,30,,,,,,,,
,,,,,,,,,,,,,,,769,2022-01-19_14h13.44.740,multiplicationStroop,2021.2.3,Win32,60.37189085,,,,,,,,,,,,,,,,,,,,,,,,,,,,,,,,,21,1.4155,1,0,21,21,26,1,7,×,3,7 × 3,incongruent,largerFirst,1,2,21,,,,,,,,
,,,,,,,,,,,,,,,769,2022-01-19_14h13.44.740,multiplicationStroop,2021.2.3,Win32,60.37189085,,,,,,,,,,,,,,,,,,,,,,,,,,,,,,,,,36,1.9163,1,0,22,22,15,1,9,×,4,9 × 4,incongruent,largerFirst,1,2,36,,,,,,,,
,,,,,,,,,,,,,,,769,2022-01-19_14h13.44.740,multiplicationStroop,2021.2.3,Win32,60.37189085,,,,,,,,,,,,,,,,,,,,,,,,,,,,,,,,,49,1.6822,1,0,23,23,33,1,7,×,7,7 × 7,incongruent,tie,1,2,49,,,,,,,,
,,,,,,,,,,,,,,,769,2022-01-19_14h13.44.740,multiplicationStroop,2021.2.3,Win32,60.37189085,,,,,,,,,,,,,,,,,,,,,,,,,,,,,,,,,56,1.9327,1,0,24,24,14,1,8,×,7,8 × 7,incongruent,largerFirst,1,2,56,,,,,,,,
,,,,,,,,,,,,,,,769,2022-01-19_14h13.44.740,multiplicationStroop,2021.2.3,Win32,60.37189085,,,,,,,,,,,,,,,,,,,,,,,,,,,,,,,,,36,1.9816,1,0,25,25,32,1,6,×,6,6 × 6,incongruent,tie,1,2,36,,,,,,,,
,,,,,,,,,,,,,,,769,2022-01-19_14h13.44.740,multiplicationStroop,2021.2.3,Win32,60.37189085,,,,,,,,,,,,,,,,,,,,,,,,,,,,,,,,,24,1.6828,1,0,26,26,20,1,6,×,4,6 × 4,incongruent,largerFirst,1,2,24,,,,,,,,
,,,,,,,,,,,,,,,769,2022-01-19_14h13.44.740,multiplicationStroop,2021.2.3,Win32,60.37189085,,,,,,,,,,,,,,,,,,,,,,,,,,,,,,,,,42,1.8156,1,0,27,27,17,1,7,×,6,7 × 6,incongruent,largerFirst,1,2,42,,,,,,,,
,,,,,,,,,,,,,,,769,2022-01-19_14h13.44.740,multiplicationStroop,2021.2.3,Win32,60.37189085,,,,,,,,,,,,,,,,,,,,,,,,,,,,,,,,,48,1.6492,1,0,28,28,1,1,6,×,8,6 × 8,incongruent,smallerFirst,2,1,48,,,,,,,,
,,,,,,,,,,,,,,,769,2022-01-19_14h13.44.740,multiplicationStroop,2021.2.3,Win32,60.37189085,,,,,,,,,,,,,,,,,,,,,,,,,,,,,,,,,14,1.432,1,0,29,29,4,1,2,×,7,2 × 7,incongruent,smallerFirst,2,1,14,,,,,,,,
,,,,,,,,,,,,,,,769,2022-01-19_14h13.44.740,multiplicationStroop,2021.2.3,Win32,60.37189085,,,,,,,,,,,,,,,,,,,,,,,,,,,,,,,,,27,1.6658,1,0,30,30,18,1,9,×,3,9 × 3,incongruent,largerFirst,1,2,27,,,,,,,,
,,,,,,,,,,,,,,,769,2022-01-19_14h13.44.740,multiplicationStroop,2021.2.3,Win32,60.37189085,,,,,,,,,,,,,,,,,,,,,,,,,,,,,,,,,24,1.6159,1,0,31,31,9,1,3,×,8,3 × 8,incongruent,smallerFirst,2,1,24,,,,,,,,
,,,,,,,,,,,,,,,769,2022-01-19_14h13.44.740,multiplicationStroop,2021.2.3,Win32,60.37189085,,,,,,,,,,,,,,,,,,,,,,,,,,,,,,,,,6,1.3829,1,0,32,32,11,1,2,×,3,2 × 3,incongruent,smallerFirst,2,1,6,,,,,,,,
,,,,,,,,,,,,,,,769,2022-01-19_14h13.44.740,multiplicationStroop,2021.2.3,Win32,60.37189085,,,,,,,,,,,,,,,,,,,,,,,,,,,,,,,,,63,1.9486,1,0,33,33,3,1,7,×,9,7 × 9,incongruent,smallerFirst,2,1,63,,,,,,,,
,,,,,,,,,,,,,,,769,2022-01-19_14h13.44.740,multiplicationStroop,2021.2.3,Win32,60.37189085,,,,,,,,,,,,,,,,,,,,,,,,,,,,,,,,,12,1.4657,1,0,34,34,5,1,3,×,4,3 × 4,incongruent,smallerFirst,2,1,12,,,,,,,,
,,,,,,,,,,,,,,,769,2022-01-19_14h13.44.740,multiplicationStroop,2021.2.3,Win32,60.37189085,,,,,,,,,,,,,,,,,,,,,,,,,,,,,,,,,72,1.683,1,0,35,35,0,1,8,×,9,8 × 9,incongruent,smallerFirst,2,1,72,,,,,,,,
,,,,,,,,,,,,,,,769,2022-01-19_14h13.44.740,multiplicationStroop,2021.2.3,Win32,60.37189085,,,,,,,,,,,,,,,,,,,,,,,,,,,,,,,,,,,,,,,,,,,,,,,,,,0,4,4,5,1,stimulusFile/mult_blk6_INcongruent.xlsx,,
,,,,,,,,,,,,,,,769,2022-01-19_14h13.44.740,multiplicationStroop,2021.2.3,Win32,60.37189085,,,,,,,,,,,,,,,,,,,,,,,,,,,,,,,space,0.8594,42,1.702,1,0,0,0,3,1,6,×,7,6 × 7,incongruent,smallerFirst,2,1,42,,,,,,,,
,,,,,,,,,,,,,,,769,2022-01-19_14h13.44.740,multiplicationStroop,2021.2.3,Win32,60.37189085,,,,,,,,,,,,,,,,,,,,,,,,,,,,,,,,,54,3.1158,1,0,1,1,20,1,9,×,6,9 × 6,incongruent,largerFirst,1,2,54,,,,,,,,
,,,,,,,,,,,,,,,769,2022-01-19_14h13.44.740,multiplicationStroop,2021.2.3,Win32,60.37189085,,,,,,,,,,,,,,,,,,,,,,,,,,,,,,,,,24,1.4054,1,0,2,2,23,1,8,×,3,8 × 3,incongruent,largerFirst,1,2,24,,,,,,,,
,,,,,,,,,,,,,,,769,2022-01-19_14h13.44.740,multiplicationStroop,2021.2.3,Win32,60.37189085,,,,,,,,,,,,,,,,,,,,,,,,,,,,,,,,,16,1.4158,1,0,3,3,9,1,2,×,8,2 × 8,incongruent,smallerFirst,2,1,16,,,,,,,,
,,,,,,,,,,,,,,,769,2022-01-19_14h13.44.740,multiplicationStroop,2021.2.3,Win32,60.37189085,,,,,,,,,,,,,,,,,,,,,,,,,,,,,,,,,18,1.599,1,0,4,4,16,1,9,×,2,9 × 2,incongruent,largerFirst,1,2,18,,,,,,,,
,,,,,,,,,,,,,,,769,2022-01-19_14h13.44.740,multiplicationStroop,2021.2.3,Win32,60.37189085,,,,,,,,,,,,,,,,,,,,,,,,,,,,,,,,,20,1.6991,1,0,5,5,13,1,4,×,5,4 × 5,incongruent,smallerFirst,2,1,20,,,,,,,,
,,,,,,,,,,,,,,,769,2022-01-19_14h13.44.740,multiplicationStroop,2021.2.3,Win32,60.37189085,,,,,,,,,,,,,,,,,,,,,,,,,,,,,,,,,35,1.635,1,0,6,6,26,1,7,×,5,7 × 5,incongruent,largerFirst,1,2,35,,,,,,,,
,,,,,,,,,,,,,,,769,2022-01-19_14h13.44.740,multiplicationStroop,2021.2.3,Win32,60.37189085,,,,,,,,,,,,,,,,,,,,,,,,,,,,,,,,,9,1.7629,1,0,7,7,29,1,3,×,3,3 × 3,neutral,tie,2,1,9,,,,,,,,
,,,,,,,,,,,,,,,769,2022-01-19_14h13.44.740,multiplicationStroop,2021.2.3,Win32,60.37189085,,,,,,,,,,,,,,,,,,,,,,,,,,,,,,,,,16,1.6662,1,0,8,8,30,1,4,×,4,4 × 4,neutral,tie,2,1,16,,,,,,,,
,,,,,,,,,,,,,,,769,2022-01-19_14h13.44.740,multiplicationStroop,2021.2.3,Win32,60.37189085,,,,,,,,,,,,,,,,,,,,,,,,,,,,,,,,,64,1.5484,1,0,9,9,34,1,8,×,8,8 × 8,neutral,tie,2,1,64,,,,,,,,
,,,,,,,,,,,,,,,769,2022-01-19_14h13.44.740,multiplicationStroop,2021.2.3,Win32,60.37189085,,,,,,,,,,,,,,,,,,,,,,,,,,,,,,,,,21,1.7657,1,0,10,10,12,1,3,×,7,3 × 7,incongruent,smallerFirst,2,1,21,,,,,,,,
,,,,,,,,,,,,,,,769,2022-01-19_14h13.44.740,multiplicationStroop,2021.2.3,Win32,60.37189085,,,,,,,,,,,,,,,,,,,,,,,,,,,,,,,,,45,1.4323,1,0,11,11,8,1,5,×,9,5 × 9,incongruent,smallerFirst,2,1,45,,,,,,,,
,,,,,,,,,,,,,,,769,2022-01-19_14h13.44.740,multiplicationStroop,2021.2.3,Win32,60.37189085,,,,,,,,,,,,,,,,,,,,,,,,,,,,,,,,,56,1.8159,1,0,12,12,0,1,7,×,8,7 × 8,incongruent,smallerFirst,2,1,56,,,,,,,,
,,,,,,,,,,,,,,,769,2022-01-19_14h13.44.740,multiplicationStroop,2021.2.3,Win32,60.37189085,,,,,,,,,,,,,,,,,,,,,,,,,,,,,,,,,72,1.7991,1,0,13,13,14,1,9,×,8,9 × 8,incongruent,largerFirst,1,2,72,,,,,,,,
,,,,,,,,,,,,,,,769,2022-01-19_14h13.44.740,multiplicationStroop,2021.2.3,Win32,60.37189085,,,,,,,,,,,,,,,,,,,,,,,,,,,,,,,,,27,1.6821,1,0,14,14,4,1,3,×,9,3 × 9,incongruent,smallerFirst,2,1,27,,,,,,,,
,,,,,,,,,,,,,,,769,2022-01-19_14h13.44.740,multiplicationStroop,2021.2.3,Win32,60.37189085,,,,,,,,,,,,,,,,,,,,,,,,,,,,,,,,,81,1.899,1,0,15,15,35,1,9,×,9,9 × 9,neutral,tie,2,1,81,,,,,,,,
,,,,,,,,,,,,,,,769,2022-01-19_14h13.44.740,multiplicationStroop,2021.2.3,Win32,60.37189085,,,,,,,,,,,,,,,,,,,,,,,,,,,,,,,,,36,1.783,1,0,16,16,1,1,4,×,9,4 × 9,incongruent,smallerFirst,2,1,36,,,,,,,,
,,,,,,,,,,,,,,,769,2022-01-19_14h13.44.740,multiplicationStroop,2021.2.3,Win32,60.37189085,,,,,,,,,,,,,,,,,,,,,,,,,,,,,,,,,36,1.649,1,0,17,17,32,1,6,×,6,6 × 6,neutral,tie,2,1,36,,,,,,,,
,,,,,,,,,,,,,,,769,2022-01-19_14h13.44.740,multiplicationStroop,2021.2.3,Win32,60.37189085,,,,,,,,,,,,,,,,,,,,,,,,,,,,,,,,,28,3.0821,1,0,18,18,2,1,4,×,7,4 × 7,incongruent,smallerFirst,2,1,28,,,,,,,,
,,,,,,,,,,,,,,,769,2022-01-19_14h13.44.740,multiplicationStroop,2021.2.3,Win32,60.37189085,,,,,,,,,,,,,,,,,,,,,,,,,,,,,,,,,8,1.8056,1,0,19,19,10,1,2,×,4,2 × 4,incongruent,smallerFirst,2,1,8,,,,,,,,
,,,,,,,,,,,,,,,769,2022-01-19_14h13.44.740,multiplicationStroop,2021.2.3,Win32,60.37189085,,,,,,,,,,,,,,,,,,,,,,,,,,,,,,,,,48,1.7154,1,0,20,20,15,1,8,×,6,8 × 6,incongruent,largerFirst,1,2,48,,,,,,,,
,,,,,,,,,,,,,,,769,2022-01-19_14h13.44.740,multiplicationStroop,2021.2.3,Win32,60.37189085,,,,,,,,,,,,,,,,,,,,,,,,,,,,,,,,,56,1.9492,0,0,21,21,17,1,9,×,7,9 × 7,incongruent,largerFirst,1,2,63,,,,,,,,
,,,,,,,,,,,,,,,769,2022-01-19_14h13.44.740,multiplicationStroop,2021.2.3,Win32,60.37189085,,,,,,,,,,,,,,,,,,,,,,,,,,,,,,,,,40,1.7318,1,0,22,22,27,1,8,×,5,8 × 5,incongruent,largerFirst,1,2,40,,,,,,,,
,,,,,,,,,,,,,,,769,2022-01-19_14h13.44.740,multiplicationStroop,2021.2.3,Win32,60.37189085,,,,,,,,,,,,,,,,,,,,,,,,,,,,,,,,,10,1.5826,1,0,23,23,7,1,2,×,5,2 × 5,incongruent,smallerFirst,2,1,10,,,,,,,,
,,,,,,,,,,,,,,,769,2022-01-19_14h13.44.740,multiplicationStroop,2021.2.3,Win32,60.37189085,,,,,,,,,,,,,,,,,,,,,,,,,,,,,,,,,18,3.3486,1,0,24,24,22,1,6,×,3,6 × 3,incongruent,largerFirst,1,2,18,,,,,,,,
,,,,,,,,,,,,,,,769,2022-01-19_14h13.44.740,multiplicationStroop,2021.2.3,Win32,60.37189085,,,,,,,,,,,,,,,,,,,,,,,,,,,,,,,,,30,1.6223,1,0,25,25,11,1,5,×,6,5 × 6,incongruent,smallerFirst,2,1,30,,,,,,,,
,,,,,,,,,,,,,,,769,2022-01-19_14h13.44.740,multiplicationStroop,2021.2.3,Win32,60.37189085,,,,,,,,,,,,,,,,,,,,,,,,,,,,,,,,,12,1.333,1,0,26,26,19,1,4,×,3,4 × 3,incongruent,largerFirst,1,2,12,,,,,,,,
,,,,,,,,,,,,,,,769,2022-01-19_14h13.44.740,multiplicationStroop,2021.2.3,Win32,60.37189085,,,,,,,,,,,,,,,,,,,,,,,,,,,,,,,,,25,2.0493,1,0,27,27,31,1,5,×,5,5 × 5,neutral,tie,2,1,25,,,,,,,,
,,,,,,,,,,,,,,,769,2022-01-19_14h13.44.740,multiplicationStroop,2021.2.3,Win32,60.37189085,,,,,,,,,,,,,,,,,,,,,,,,,,,,,,,,,24,1.9317,1,0,28,28,6,1,4,×,6,4 × 6,incongruent,smallerFirst,2,1,24,,,,,,,,
,,,,,,,,,,,,,,,769,2022-01-19_14h13.44.740,multiplicationStroop,2021.2.3,Win32,60.37189085,,,,,,,,,,,,,,,,,,,,,,,,,,,,,,,,,49,2.1325,1,0,29,29,33,1,7,×,7,7 × 7,neutral,tie,2,1,49,,,,,,,,
,,,,,,,,,,,,,,,769,2022-01-19_14h13.44.740,multiplicationStroop,2021.2.3,Win32,60.37189085,,,,,,,,,,,,,,,,,,,,,,,,,,,,,,,,,32,1.4695,1,0,30,30,21,1,8,×,4,8 × 4,incongruent,largerFirst,1,2,32,,,,,,,,
,,,,,,,,,,,,,,,769,2022-01-19_14h13.44.740,multiplicationStroop,2021.2.3,Win32,60.37189085,,,,,,,,,,,,,,,,,,,,,,,,,,,,,,,,,15,1.3785,1,0,31,31,24,1,5,×,3,5 × 3,incongruent,largerFirst,1,2,15,,,,,,,,
,,,,,,,,,,,,,,,769,2022-01-19_14h13.44.740,multiplicationStroop,2021.2.3,Win32,60.37189085,,,,,,,,,,,,,,,,,,,,,,,,,,,,,,,,,6,1.3492,1,0,32,32,25,1,3,×,2,3 × 2,incongruent,largerFirst,1,2,6,,,,,,,,
,,,,,,,,,,,,,,,769,2022-01-19_14h13.44.740,multiplicationStroop,2021.2.3,Win32,60.37189085,,,,,,,,,,,,,,,,,,,,,,,,,,,,,,,,,14,1.5329,1,0,33,33,18,1,7,×,2,7 × 2,incongruent,largerFirst,1,2,14,,,,,,,,
,,,,,,,,,,,,,,,769,2022-01-19_14h13.44.740,multiplicationStroop,2021.2.3,Win32,60.37189085,,,,,,,,,,,,,,,,,,,,,,,,,,,,,,,,,4,1.8487,1,0,34,34,28,1,2,×,2,2 × 2,neutral,tie,2,1,4,,,,,,,,
,,,,,,,,,,,,,,,769,2022-01-19_14h13.44.740,multiplicationStroop,2021.2.3,Win32,60.37189085,,,,,,,,,,,,,,,,,,,,,,,,,,,,,,,,,12,1.3991,1,0,35,35,5,1,2,×,6,2 × 6,incongruent,smallerFirst,2,1,12,,,,,,,,
,,,,,,,,,,,,,,,769,2022-01-19_14h13.44.740,multiplicationStroop,2021.2.3,Win32,60.37189085,,,,,,,,,,,,,,,,,,,,,,,,,,,,,,,,,,,,,,,,,,,,,,,,,,0,5,5,4,1,stimulusFile/mult_blk5_INcongruent.xlsx,,
,,,,,,,,,,,,,,,769,2022-01-19_14h13.44.740,multiplicationStroop,2021.2.3,Win32,60.37189085,,,,,,,,,,,,,,,,,,,,,,,,,,,,,,,,,,,,,,,,,,,,,,,,,,,,,,,,space,11.3306