welcomeKey_resp.keys,welcomeKey_resp.rt,X Scale,Y Scale,rt_resp_4.keys,rt_resp_4.corr,rt_resp_4.rt,speedtest_2.thisRepN,speedtest_2.thisTrialN,speedtest_2.thisN,speedtest_2.thisIndex,speedtest_2.ran,numberSc,posX,positionLayout,participant,date,expName,psychopyVersion,OS,frameRate,ct_instrresp.keys,ct_instrresp.rt,key_resp_2.keys,key_resp_2.rt,ct_keyResp.keys,ct_keyResp.corr,ct_keyResp.rt,trials.thisRepN,trials.thisTrialN,trials.thisN,trials.thisIndex,trials.ran,leftNo,rightNo,displayProblem,numDistance,leftNo_size,rightNo_size,Dims,keyAnswer,TS_Loop.thisRepN,TS_Loop.thisTrialN,TS_Loop.thisN,TS_Loop.thisIndex,TS_Loop.ran,Condition,ActionInst,instrImage,mltptaskInst_resp.keys,mltptaskInst_resp.rt,continue_resp_2.keys,continue_resp_2.rt,multp_Answer,multi_RT,multiplyCorr,LoopingMultiply.thisRepN,LoopingMultiply.thisTrialN,LoopingMultiply.thisN,LoopingMultiply.thisIndex,LoopingMultiply.ran,factor1,multiplySign,factor2,multliplyProblem,physicalSize,orderOperand,sizeF1,sizeF2,mult_answer,trials_stroop.thisRepN,trials_stroop.thisTrialN,trials_stroop.thisN,trials_stroop.thisIndex,trials_stroop.ran,multiplicationFile,esckey_resp_2.keys,esckey_resp_2.rt
y,14.9873,45.1,44.4,right,1,0.562,0,0,0,14,1,8,200,right,770,2022-01-23_24h10.15.135,multiplicationStroop,2021.2.3,Win32,61.64848036,,,,,,,,,,,,,,,,,,,,,,,,,,,,,,,,,,,,,,,,,,,,,,,,,,,,,,,,,
,,,,left,1,0.3755,0,1,1,3,1,4,-200,left,770,2022-01-23_24h10.15.135,multiplicationStroop,2021.2.3,Win32,61.64848036,,,,,,,,,,,,,,,,,,,,,,,,,,,,,,,,,,,,,,,,,,,,,,,,,,,,,,,,,
,,,,right,1,0.3195,0,2,2,9,1,2,200,right,770,2022-01-23_24h10.15.135,multiplicationStroop,2021.2.3,Win32,61.64848036,,,,,,,,,,,,,,,,,,,,,,,,,,,,,,,,,,,,,,,,,,,,,,,,,,,,,,,,,
,,,,left,0,0.358,0,3,3,13,1,7,200,right,770,2022-01-23_24h10.15.135,multiplicationStroop,2021.2.3,Win32,61.64848036,,,,,,,,,,,,,,,,,,,,,,,,,,,,,,,,,,,,,,,,,,,,,,,,,,,,,,,,,
,,,,right,1,0.5019,0,4,4,8,1,1,200,right,770,2022-01-23_24h10.15.135,multiplicationStroop,2021.2.3,Win32,61.64848036,,,,,,,,,,,,,,,,,,,,,,,,,,,,,,,,,,,,,,,,,,,,,,,,,,,,,,,,,
,,,,left,1,0.374,0,5,5,0,1,1,-200,left,770,2022-01-23_24h10.15.135,multiplicationStroop,2021.2.3,Win32,61.64848036,,,,,,,,,,,,,,,,,,,,,,,,,,,,,,,,,,,,,,,,,,,,,,,,,,,,,,,,,
,,,,right,1,0.3556,0,6,6,15,1,9,200,right,770,2022-01-23_24h10.15.135,multiplicationStroop,2021.2.3,Win32,61.64848036,,,,,,,,,,,,,,,,,,,,,,,,,,,,,,,,,,,,,,,,,,,,,,,,,,,,,,,,,
,,,,left,1,0.3253,0,7,7,4,1,6,-200,left,770,2022-01-23_24h10.15.135,multiplicationStroop,2021.2.3,Win32,61.64848036,,,,,,,,,,,,,,,,,,,,,,,,,,,,,,,,,,,,,,,,,,,,,,,,,,,,,,,,,
,,,,right,1,0.3735,0,8,8,11,1,4,200,right,770,2022-01-23_24h10.15.135,multiplicationStroop,2021.2.3,Win32,61.64848036,,,,,,,,,,,,,,,,,,,,,,,,,,,,,,,,,,,,,,,,,,,,,,,,,,,,,,,,,
,,,,left,1,0.319,0,9,9,7,1,9,-200,left,770,2022-01-23_24h10.15.135,multiplicationStroop,2021.2.3,Win32,61.64848036,,,,,,,,,,,,,,,,,,,,,,,,,,,,,,,,,,,,,,,,,,,,,,,,,,,,,,,,,
,,,,left,1,0.4596,0,10,10,6,1,8,-200,left,770,2022-01-23_24h10.15.135,multiplicationStroop,2021.2.3,Win32,61.64848036,,,,,,,,,,,,,,,,,,,,,,,,,,,,,,,,,,,,,,,,,,,,,,,,,,,,,,,,,
,,,,right,1,0.3179,0,11,11,10,1,3,200,right,770,2022-01-23_24h10.15.135,multiplicationStroop,2021.2.3,Win32,61.64848036,,,,,,,,,,,,,,,,,,,,,,,,,,,,,,,,,,,,,,,,,,,,,,,,,,,,,,,,,
,,,,left,1,0.3868,0,12,12,5,1,7,-200,left,770,2022-01-23_24h10.15.135,multiplicationStroop,2021.2.3,Win32,61.64848036,,,,,,,,,,,,,,,,,,,,,,,,,,,,,,,,,,,,,,,,,,,,,,,,,,,,,,,,,
,,,,left,1,0.4517,0,13,13,2,1,3,-200,left,770,2022-01-23_24h10.15.135,multiplicationStroop,2021.2.3,Win32,61.64848036,,,,,,,,,,,,,,,,,,,,,,,,,,,,,,,,,,,,,,,,,,,,,,,,,,,,,,,,,
,,,,right,1,0.3705,0,14,14,12,1,6,200,right,770,2022-01-23_24h10.15.135,multiplicationStroop,2021.2.3,Win32,61.64848036,,,,,,,,,,,,,,,,,,,,,,,,,,,,,,,,,,,,,,,,,,,,,,,,,,,,,,,,,
,,,,left,1,0.3179,0,15,15,1,1,2,-200,left,770,2022-01-23_24h10.15.135,multiplicationStroop,2021.2.3,Win32,61.64848036,,,,,,,,,,,,,,,,,,,,,,,,,,,,,,,,,,,,,,,,,,,,,,,,,,,,,,,,,
,,,,left,1,0.5505,1,0,16,4,1,6,-200,left,770,2022-01-23_24h10.15.135,multiplicationStroop,2021.2.3,Win32,61.64848036,,,,,,,,,,,,,,,,,,,,,,,,,,,,,,,,,,,,,,,,,,,,,,,,,,,,,,,,,
,,,,right,1,0.8933,1,1,17,13,1,7,200,right,770,2022-01-23_24h10.15.135,multiplicationStroop,2021.2.3,Win32,61.64848036,,,,,,,,,,,,,,,,,,,,,,,,,,,,,,,,,,,,,,,,,,,,,,,,,,,,,,,,,
,,,,right,1,0.4537,1,2,18,10,1,3,200,right,770,2022-01-23_24h10.15.135,multiplicationStroop,2021.2.3,Win32,61.64848036,,,,,,,,,,,,,,,,,,,,,,,,,,,,,,,,,,,,,,,,,,,,,,,,,,,,,,,,,
,,,,right,1,0.3415,1,3,19,12,1,6,200,right,770,2022-01-23_24h10.15.135,multiplicationStroop,2021.2.3,Win32,61.64848036,,,,,,,,,,,,,,,,,,,,,,,,,,,,,,,,,,,,,,,,,,,,,,,,,,,,,,,,,
,,,,right,1,0.3163,1,4,20,11,1,4,200,right,770,2022-01-23_24h10.15.135,multiplicationStroop,2021.2.3,Win32,61.64848036,,,,,,,,,,,,,,,,,,,,,,,,,,,,,,,,,,,,,,,,,,,,,,,,,,,,,,,,,
,,,,left,1,0.2678,1,5,21,2,1,3,-200,left,770,2022-01-23_24h10.15.135,multiplicationStroop,2021.2.3,Win32,61.64848036,,,,,,,,,,,,,,,,,,,,,,,,,,,,,,,,,,,,,,,,,,,,,,,,,,,,,,,,,
,,,,right,1,0.2696,1,6,22,15,1,9,200,right,770,2022-01-23_24h10.15.135,multiplicationStroop,2021.2.3,Win32,61.64848036,,,,,,,,,,,,,,,,,,,,,,,,,,,,,,,,,,,,,,,,,,,,,,,,,,,,,,,,,
,,,,right,1,0.4356,1,7,23,8,1,1,200,right,770,2022-01-23_24h10.15.135,multiplicationStroop,2021.2.3,Win32,61.64848036,,,,,,,,,,,,,,,,,,,,,,,,,,,,,,,,,,,,,,,,,,,,,,,,,,,,,,,,,
,,,,left,1,0.2679,1,8,24,7,1,9,-200,left,770,2022-01-23_24h10.15.135,multiplicationStroop,2021.2.3,Win32,61.64848036,,,,,,,,,,,,,,,,,,,,,,,,,,,,,,,,,,,,,,,,,,,,,,,,,,,,,,,,,
,,,,right,1,0.318,1,9,25,9,1,2,200,right,770,2022-01-23_24h10.15.135,multiplicationStroop,2021.2.3,Win32,61.64848036,,,,,,,,,,,,,,,,,,,,,,,,,,,,,,,,,,,,,,,,,,,,,,,,,,,,,,,,,
,,,,left,1,0.2691,1,10,26,0,1,1,-200,left,770,2022-01-23_24h10.15.135,multiplicationStroop,2021.2.3,Win32,61.64848036,,,,,,,,,,,,,,,,,,,,,,,,,,,,,,,,,,,,,,,,,,,,,,,,,,,,,,,,,
,,,,left,1,0.4844,1,11,27,3,1,4,-200,left,770,2022-01-23_24h10.15.135,multiplicationStroop,2021.2.3,Win32,61.64848036,,,,,,,,,,,,,,,,,,,,,,,,,,,,,,,,,,,,,,,,,,,,,,,,,,,,,,,,,
,,,,left,1,2.6181,1,12,28,1,1,2,-200,left,770,2022-01-23_24h10.15.135,multiplicationStroop,2021.2.3,Win32,61.64848036,,,,,,,,,,,,,,,,,,,,,,,,,,,,,,,,,,,,,,,,,,,,,,,,,,,,,,,,,
,,,,left,1,0.3589,1,13,29,5,1,7,-200,left,770,2022-01-23_24h10.15.135,multiplicationStroop,2021.2.3,Win32,61.64848036,,,,,,,,,,,,,,,,,,,,,,,,,,,,,,,,,,,,,,,,,,,,,,,,,,,,,,,,,
,,,,left,1,0.3341,1,14,30,6,1,8,-200,left,770,2022-01-23_24h10.15.135,multiplicationStroop,2021.2.3,Win32,61.64848036,,,,,,,,,,,,,,,,,,,,,,,,,,,,,,,,,,,,,,,,,,,,,,,,,,,,,,,,,
,,,,right,1,0.3876,1,15,31,14,1,8,200,right,770,2022-01-23_24h10.15.135,multiplicationStroop,2021.2.3,Win32,61.64848036,,,,,,,,,,,,,,,,,,,,,,,,,,,,,,,,,,,,,,,,,,,,,,,,,,,,,,,,,
,,,,right,1,0.4867,2,0,32,15,1,9,200,right,770,2022-01-23_24h10.15.135,multiplicationStroop,2021.2.3,Win32,61.64848036,,,,,,,,,,,,,,,,,,,,,,,,,,,,,,,,,,,,,,,,,,,,,,,,,,,,,,,,,
,,,,left,1,0.2526,2,1,33,0,1,1,-200,left,770,2022-01-23_24h10.15.135,multiplicationStroop,2021.2.3,Win32,61.64848036,,,,,,,,,,,,,,,,,,,,,,,,,,,,,,,,,,,,,,,,,,,,,,,,,,,,,,,,,
,,,,right,1,0.319,2,2,34,12,1,6,200,right,770,2022-01-23_24h10.15.135,multiplicationStroop,2021.2.3,Win32,61.64848036,,,,,,,,,,,,,,,,,,,,,,,,,,,,,,,,,,,,,,,,,,,,,,,,,,,,,,,,,
,,,,left,1,0.3182,2,3,35,3,1,4,-200,left,770,2022-01-23_24h10.15.135,multiplicationStroop,2021.2.3,Win32,61.64848036,,,,,,,,,,,,,,,,,,,,,,,,,,,,,,,,,,,,,,,,,,,,,,,,,,,,,,,,,
,,,,left,1,0.9505,2,4,36,6,1,8,-200,left,770,2022-01-23_24h10.15.135,multiplicationStroop,2021.2.3,Win32,61.64848036,,,,,,,,,,,,,,,,,,,,,,,,,,,,,,,,,,,,,,,,,,,,,,,,,,,,,,,,,
,,,,left,1,0.3226,2,5,37,1,1,2,-200,left,770,2022-01-23_24h10.15.135,multiplicationStroop,2021.2.3,Win32,61.64848036,,,,,,,,,,,,,,,,,,,,,,,,,,,,,,,,,,,,,,,,,,,,,,,,,,,,,,,,,
,,,,right,1,0.3467,2,6,38,10,1,3,200,right,770,2022-01-23_24h10.15.135,multiplicationStroop,2021.2.3,Win32,61.64848036,,,,,,,,,,,,,,,,,,,,,,,,,,,,,,,,,,,,,,,,,,,,,,,,,,,,,,,,,
,,,,right,1,0.5592,2,7,39,14,1,8,200,right,770,2022-01-23_24h10.15.135,multiplicationStroop,2021.2.3,Win32,61.64848036,,,,,,,,,,,,,,,,,,,,,,,,,,,,,,,,,,,,,,,,,,,,,,,,,,,,,,,,,
,,,,left,1,1.509,2,8,40,2,1,3,-200,left,770,2022-01-23_24h10.15.135,multiplicationStroop,2021.2.3,Win32,61.64848036,,,,,,,,,,,,,,,,,,,,,,,,,,,,,,,,,,,,,,,,,,,,,,,,,,,,,,,,,
,,,,left,1,0.3697,2,9,41,5,1,7,-200,left,770,2022-01-23_24h10.15.135,multiplicationStroop,2021.2.3,Win32,61.64848036,,,,,,,,,,,,,,,,,,,,,,,,,,,,,,,,,,,,,,,,,,,,,,,,,,,,,,,,,
,,,,right,1,0.3192,2,10,42,13,1,7,200,right,770,2022-01-23_24h10.15.135,multiplicationStroop,2021.2.3,Win32,61.64848036,,,,,,,,,,,,,,,,,,,,,,,,,,,,,,,,,,,,,,,,,,,,,,,,,,,,,,,,,
,,,,right,1,0.8884,2,11,43,9,1,2,200,right,770,2022-01-23_24h10.15.135,multiplicationStroop,2021.2.3,Win32,61.64848036,,,,,,,,,,,,,,,,,,,,,,,,,,,,,,,,,,,,,,,,,,,,,,,,,,,,,,,,,
,,,,right,1,0.3176,2,12,44,8,1,1,200,right,770,2022-01-23_24h10.15.135,multiplicationStroop,2021.2.3,Win32,61.64848036,,,,,,,,,,,,,,,,,,,,,,,,,,,,,,,,,,,,,,,,,,,,,,,,,,,,,,,,,
,,,,left,1,0.2745,2,13,45,4,1,6,-200,left,770,2022-01-23_24h10.15.135,multiplicationStroop,2021.2.3,Win32,61.64848036,,,,,,,,,,,,,,,,,,,,,,,,,,,,,,,,,,,,,,,,,,,,,,,,,,,,,,,,,
,,,,right,1,0.3124,2,14,46,11,1,4,200,right,770,2022-01-23_24h10.15.135,multiplicationStroop,2021.2.3,Win32,61.64848036,,,,,,,,,,,,,,,,,,,,,,,,,,,,,,,,,,,,,,,,,,,,,,,,,,,,,,,,,
,,,,left,1,0.2352,2,15,47,7,1,9,-200,left,770,2022-01-23_24h10.15.135,multiplicationStroop,2021.2.3,Win32,61.64848036,,,,,,,,,,,,,,,,,,,,,,,,,,,,,,,,,,,,,,,,,,,,,,,,,,,,,,,,,
,,,,left,1,0.3253,3,0,48,1,1,2,-200,left,770,2022-01-23_24h10.15.135,multiplicationStroop,2021.2.3,Win32,61.64848036,,,,,,,,,,,,,,,,,,,,,,,,,,,,,,,,,,,,,,,,,,,,,,,,,,,,,,,,,
,,,,right,1,0.2952,3,1,49,14,1,8,200,right,770,2022-01-23_24h10.15.135,multiplicationStroop,2021.2.3,Win32,61.64848036,,,,,,,,,,,,,,,,,,,,,,,,,,,,,,,,,,,,,,,,,,,,,,,,,,,,,,,,,
,,,,left,0,0.3522,3,2,50,15,1,9,200,right,770,2022-01-23_24h10.15.135,multiplicationStroop,2021.2.3,Win32,61.64848036,,,,,,,,,,,,,,,,,,,,,,,,,,,,,,,,,,,,,,,,,,,,,,,,,,,,,,,,,
,,,,left,1,0.3515,3,3,51,3,1,4,-200,left,770,2022-01-23_24h10.15.135,multiplicationStroop,2021.2.3,Win32,61.64848036,,,,,,,,,,,,,,,,,,,,,,,,,,,,,,,,,,,,,,,,,,,,,,,,,,,,,,,,,
,,,,left,1,0.4852,3,4,52,7,1,9,-200,left,770,2022-01-23_24h10.15.135,multiplicationStroop,2021.2.3,Win32,61.64848036,,,,,,,,,,,,,,,,,,,,,,,,,,,,,,,,,,,,,,,,,,,,,,,,,,,,,,,,,
,,,,left,1,0.3198,3,5,53,0,1,1,-200,left,770,2022-01-23_24h10.15.135,multiplicationStroop,2021.2.3,Win32,61.64848036,,,,,,,,,,,,,,,,,,,,,,,,,,,,,,,,,,,,,,,,,,,,,,,,,,,,,,,,,
,,,,left,1,0.2702,3,6,54,4,1,6,-200,left,770,2022-01-23_24h10.15.135,multiplicationStroop,2021.2.3,Win32,61.64848036,,,,,,,,,,,,,,,,,,,,,,,,,,,,,,,,,,,,,,,,,,,,,,,,,,,,,,,,,
,,,,right,1,0.275,3,7,55,13,1,7,200,right,770,2022-01-23_24h10.15.135,multiplicationStroop,2021.2.3,Win32,61.64848036,,,,,,,,,,,,,,,,,,,,,,,,,,,,,,,,,,,,,,,,,,,,,,,,,,,,,,,,,
,,,,right,1,0.4116,3,8,56,8,1,1,200,right,770,2022-01-23_24h10.15.135,multiplicationStroop,2021.2.3,Win32,61.64848036,,,,,,,,,,,,,,,,,,,,,,,,,,,,,,,,,,,,,,,,,,,,,,,,,,,,,,,,,
,,,,right,1,0.3674,3,9,57,9,1,2,200,right,770,2022-01-23_24h10.15.135,multiplicationStroop,2021.2.3,Win32,61.64848036,,,,,,,,,,,,,,,,,,,,,,,,,,,,,,,,,,,,,,,,,,,,,,,,,,,,,,,,,
,,,,right,1,0.3534,3,10,58,12,1,6,200,right,770,2022-01-23_24h10.15.135,multiplicationStroop,2021.2.3,Win32,61.64848036,,,,,,,,,,,,,,,,,,,,,,,,,,,,,,,,,,,,,,,,,,,,,,,,,,,,,,,,,
,,,,right,1,0.3675,3,11,59,11,1,4,200,right,770,2022-01-23_24h10.15.135,multiplicationStroop,2021.2.3,Win32,61.64848036,,,,,,,,,,,,,,,,,,,,,,,,,,,,,,,,,,,,,,,,,,,,,,,,,,,,,,,,,
,,,,right,1,0.3196,3,12,60,10,1,3,200,right,770,2022-01-23_24h10.15.135,multiplicationStroop,2021.2.3,Win32,61.64848036,,,,,,,,,,,,,,,,,,,,,,,,,,,,,,,,,,,,,,,,,,,,,,,,,,,,,,,,,
,,,,left,1,0.2917,3,13,61,5,1,7,-200,left,770,2022-01-23_24h10.15.135,multiplicationStroop,2021.2.3,Win32,61.64848036,,,,,,,,,,,,,,,,,,,,,,,,,,,,,,,,,,,,,,,,,,,,,,,,,,,,,,,,,
,,,,left,1,0.3284,3,14,62,6,1,8,-200,left,770,2022-01-23_24h10.15.135,multiplicationStroop,2021.2.3,Win32,61.64848036,,,,,,,,,,,,,,,,,,,,,,,,,,,,,,,,,,,,,,,,,,,,,,,,,,,,,,,,,
,,,,left,1,0.3363,3,15,63,2,1,3,-200,left,770,2022-01-23_24h10.15.135,multiplicationStroop,2021.2.3,Win32,61.64848036,,,,,,,,,,,,,,,,,,,,,,,,,,,,,,,,,,,,,,,,,,,,,,,,,,,,,,,,,
,,,,,,,,,,,,,,,770,2022-01-23_24h10.15.135,multiplicationStroop,2021.2.3,Win32,61.64848036,space,26.3084,space,13.2163,right,1,1.722,0,0,0,29,1,4,3,4 | 3,1,1.4111,1.9756,incongruent,right,,,,,,stimulusFile/physical.xlsx,,,,,,,,,,,,,,,,,,,,,,,,,,,,,,,
,,,,,,,,,,,,,,,770,2022-01-23_24h10.15.135,multiplicationStroop,2021.2.3,Win32,61.64848036,,,,,left,1,0.9329,0,1,1,27,1,8,9,8 | 9,1,1.9756,1.4111,incongruent,left,,,,,,stimulusFile/physical.xlsx,,,,,,,,,,,,,,,,,,,,,,,,,,,,,,,
,,,,,,,,,,,,,,,770,2022-01-23_24h10.15.135,multiplicationStroop,2021.2.3,Win32,61.64848036,,,,,left,1,0.6708,0,2,2,55,1,9,9,9 | 9,0,1.9756,1.4111,neutral,left,,,,,,stimulusFile/physical.xlsx,,,,,,,,,,,,,,,,,,,,,,,,,,,,,,,
,,,,,,,,,,,,,,,770,2022-01-23_24h10.15.135,multiplicationStroop,2021.2.3,Win32,61.64848036,,,,,right,1,0.5663,0,3,3,18,1,3,8,3 | 8,5,1.4111,1.9756,congruent,right,,,,,,stimulusFile/physical.xlsx,,,,,,,,,,,,,,,,,,,,,,,,,,,,,,,
,,,,,,,,,,,,,,,770,2022-01-23_24h10.15.135,multiplicationStroop,2021.2.3,Win32,61.64848036,,,,,right,1,0.5594,0,4,4,60,1,3,3,3 | 3,0,1.4111,1.9756,neutral,right,,,,,,stimulusFile/physical.xlsx,,,,,,,,,,,,,,,,,,,,,,,,,,,,,,,
,,,,,,,,,,,,,,,770,2022-01-23_24h10.15.135,multiplicationStroop,2021.2.3,Win32,61.64848036,,,,,right,1,0.4955,0,5,5,8,1,1,3,1 | 3,2,1.4111,1.9756,congruent,right,,,,,,stimulusFile/physical.xlsx,,,,,,,,,,,,,,,,,,,,,,,,,,,,,,,
,,,,,,,,,,,,,,,770,2022-01-23_24h10.15.135,multiplicationStroop,2021.2.3,Win32,61.64848036,,,,,left,1,0.5765,0,6,6,20,1,6,1,6 | 1,5,1.9756,1.4111,congruent,left,,,,,,stimulusFile/physical.xlsx,,,,,,,,,,,,,,,,,,,,,,,,,,,,,,,
,,,,,,,,,,,,,,,770,2022-01-23_24h10.15.135,multiplicationStroop,2021.2.3,Win32,61.64848036,,,,,right,1,0.52,0,7,7,58,1,6,6,6 | 6,0,1.4111,1.9756,neutral,right,,,,,,stimulusFile/physical.xlsx,,,,,,,,,,,,,,,,,,,,,,,,,,,,,,,
,,,,,,,,,,,,,,,770,2022-01-23_24h10.15.135,multiplicationStroop,2021.2.3,Win32,61.64848036,,,,,right,1,0.5254,0,8,8,67,1,4,4,4 | 4,0,1.4111,1.9756,neutral,right,,,,,,stimulusFile/physical.xlsx,,,,,,,,,,,,,,,,,,,,,,,,,,,,,,,
,,,,,,,,,,,,,,,770,2022-01-23_24h10.15.135,multiplicationStroop,2021.2.3,Win32,61.64848036,,,,,left,1,0.5203,0,9,9,50,1,6,6,6 | 6,0,1.9756,1.4111,neutral,left,,,,,,stimulusFile/physical.xlsx,,,,,,,,,,,,,,,,,,,,,,,,,,,,,,,
,,,,,,,,,,,,,,,770,2022-01-23_24h10.15.135,multiplicationStroop,2021.2.3,Win32,61.64848036,,,,,left,1,0.5764,0,10,10,6,1,7,6,7 | 6,1,1.9756,1.4111,congruent,left,,,,,,stimulusFile/physical.xlsx,,,,,,,,,,,,,,,,,,,,,,,,,,,,,,,
,,,,,,,,,,,,,,,770,2022-01-23_24h10.15.135,multiplicationStroop,2021.2.3,Win32,61.64848036,,,,,right,1,0.4905,0,11,11,10,1,6,8,6 | 8,2,1.4111,1.9756,congruent,right,,,,,,stimulusFile/physical.xlsx,,,,,,,,,,,,,,,,,,,,,,,,,,,,,,,
,,,,,,,,,,,,,,,770,2022-01-23_24h10.15.135,multiplicationStroop,2021.2.3,Win32,61.64848036,,,,,left,1,0.569,0,12,12,25,1,3,4,3 | 4,1,1.9756,1.4111,incongruent,left,,,,,,stimulusFile/physical.xlsx,,,,,,,,,,,,,,,,,,,,,,,,,,,,,,,
,,,,,,,,,,,,,,,770,2022-01-23_24h10.15.135,multiplicationStroop,2021.2.3,Win32,61.64848036,,,,,right,1,0.4301,0,13,13,38,1,8,6,8 | 6,2,1.4111,1.9756,incongruent,right,,,,,,stimulusFile/physical.xlsx,,,,,,,,,,,,,,,,,,,,,,,,,,,,,,,
,,,,,,,,,,,,,,,770,2022-01-23_24h10.15.135,multiplicationStroop,2021.2.3,Win32,61.64848036,,,,,left,1,0.6043,0,14,14,21,1,7,2,7 | 2,5,1.9756,1.4111,congruent,left,,,,,,stimulusFile/physical.xlsx,,,,,,,,,,,,,,,,,,,,,,,,,,,,,,,
,,,,,,,,,,,,,,,770,2022-01-23_24h10.15.135,multiplicationStroop,2021.2.3,Win32,61.64848036,,,,,right,1,0.6099,0,15,15,45,1,7,2,7 | 2,5,1.4111,1.9756,incongruent,right,,,,,,stimulusFile/physical.xlsx,,,,,,,,,,,,,,,,,,,,,,,,,,,,,,,
,,,,,,,,,,,,,,,770,2022-01-23_24h10.15.135,multiplicationStroop,2021.2.3,Win32,61.64848036,,,,,left,1,0.8611,0,16,16,35,1,7,9,7 | 9,2,1.9756,1.4111,incongruent,left,,,,,,stimulusFile/physical.xlsx,,,,,,,,,,,,,,,,,,,,,,,,,,,,,,,
,,,,,,,,,,,,,,,770,2022-01-23_24h10.15.135,multiplicationStroop,2021.2.3,Win32,61.64848036,,,,,right,1,0.4582,0,17,17,47,1,9,4,9 | 4,5,1.4111,1.9756,incongruent,right,,,,,,stimulusFile/physical.xlsx,,,,,,,,,,,,,,,,,,,,,,,,,,,,,,,
,,,,,,,,,,,,,,,770,2022-01-23_24h10.15.135,multiplicationStroop,2021.2.3,Win32,61.64848036,,,,,left,0,0.5604,0,18,18,66,1,3,3,3 | 3,0,1.9756,1.4111,neutral,right,,,,,,stimulusFile/physical.xlsx,,,,,,,,,,,,,,,,,,,,,,,,,,,,,,,
,,,,,,,,,,,,,,,770,2022-01-23_24h10.15.135,multiplicationStroop,2021.2.3,Win32,61.64848036,,,,,left,1,0.7618,0,19,19,51,1,8,8,8 | 8,0,1.9756,1.4111,neutral,left,,,,,,stimulusFile/physical.xlsx,,,,,,,,,,,,,,,,,,,,,,,,,,,,,,,
,,,,,,,,,,,,,,,770,2022-01-23_24h10.15.135,multiplicationStroop,2021.2.3,Win32,61.64848036,,,,,right,1,0.4903,0,20,20,31,1,9,8,9 | 8,1,1.4111,1.9756,incongruent,right,,,,,,stimulusFile/physical.xlsx,,,,,,,,,,,,,,,,,,,,,,,,,,,,,,,
,,,,,,,,,,,,,,,770,2022-01-23_24h10.15.135,multiplicationStroop,2021.2.3,Win32,61.64848036,,,,,right,1,0.4911,0,21,21,16,1,1,6,1 | 6,5,1.4111,1.9756,congruent,right,,,,,,stimulusFile/physical.xlsx,,,,,,,,,,,,,,,,,,,,,,,,,,,,,,,
,,,,,,,,,,,,,,,770,2022-01-23_24h10.15.135,multiplicationStroop,2021.2.3,Win32,61.64848036,,,,,right,1,0.4954,0,22,22,30,1,7,6,7 | 6,1,1.4111,1.9756,incongruent,right,,,,,,stimulusFile/physical.xlsx,,,,,,,,,,,,,,,,,,,,,,,,,,,,,,,
,,,,,,,,,,,,,,,770,2022-01-23_24h10.15.135,multiplicationStroop,2021.2.3,Win32,61.64848036,,,,,left,1,0.4908,0,23,23,26,1,6,7,6 | 7,1,1.9756,1.4111,incongruent,left,,,,,,stimulusFile/physical.xlsx,,,,,,,,,,,,,,,,,,,,,,,,,,,,,,,
,,,,,,,,,,,,,,,770,2022-01-23_24h10.15.135,multiplicationStroop,2021.2.3,Win32,61.64848036,,,,,right,1,0.5504,0,24,24,56,1,1,1,1 | 1,0,1.4111,1.9756,neutral,right,,,,,,stimulusFile/physical.xlsx,,,,,,,,,,,,,,,,,,,,,,,,,,,,,,,
,,,,,,,,,,,,,,,770,2022-01-23_24h10.15.135,multiplicationStroop,2021.2.3,Win32,61.64848036,,,,,right,1,0.8752,0,25,25,28,1,2,1,2 | 1,1,1.4111,1.9756,incongruent,right,,,,,,stimulusFile/physical.xlsx,,,,,,,,,,,,,,,,,,,,,,,,,,,,,,,
,,,,,,,,,,,,,,,770,2022-01-23_24h10.15.135,multiplicationStroop,2021.2.3,Win32,61.64848036,,,,,left,1,0.7628,0,26,26,23,1,9,4,9 | 4,5,1.9756,1.4111,congruent,left,,,,,,stimulusFile/physical.xlsx,,,,,,,,,,,,,,,,,,,,,,,,,,,,,,,
,,,,,,,,,,,,,,,770,2022-01-23_24h10.15.135,multiplicationStroop,2021.2.3,Win32,61.64848036,,,,,right,1,0.9564,0,27,27,44,1,6,1,6 | 1,5,1.4111,1.9756,incongruent,right,,,,,,stimulusFile/physical.xlsx,,,,,,,,,,,,,,,,,,,,,,,,,,,,,,,
,,,,,,,,,,,,,,,770,2022-01-23_24h10.15.135,multiplicationStroop,2021.2.3,Win32,61.64848036,,,,,right,1,0.5897,0,28,28,62,1,8,8,8 | 8,0,1.4111,1.9756,neutral,right,,,,,,stimulusFile/physical.xlsx,,,,,,,,,,,,,,,,,,,,,,,,,,,,,,,
,,,,,,,,,,,,,,,770,2022-01-23_24h10.15.135,multiplicationStroop,2021.2.3,Win32,61.64848036,,,,,left,1,1.2884,0,29,29,43,1,4,9,4 | 9,5,1.9756,1.4111,incongruent,left,,,,,,stimulusFile/physical.xlsx,,,,,,,,,,,,,,,,,,,,,,,,,,,,,,,
,,,,,,,,,,,,,,,770,2022-01-23_24h10.15.135,multiplicationStroop,2021.2.3,Win32,61.64848036,,,,,left,1,0.9532,0,30,30,14,1,8,6,8 | 6,2,1.9756,1.4111,congruent,left,,,,,,stimulusFile/physical.xlsx,,,,,,,,,,,,,,,,,,,,,,,,,,,,,,,
,,,,,,,,,,,,,,,770,2022-01-23_24h10.15.135,multiplicationStroop,2021.2.3,Win32,61.64848036,,,,,left,1,0.5409,0,31,31,52,1,2,2,2 | 2,0,1.9756,1.4111,neutral,left,,,,,,stimulusFile/physical.xlsx,,,,,,,,,,,,,,,,,,,,,,,,,,,,,,,
,,,,,,,,,,,,,,,770,2022-01-23_24h10.15.135,multiplicationStroop,2021.2.3,Win32,61.64848036,,,,,left,1,1.4321,0,32,32,68,1,6,6,6 | 6,0,1.9756,1.4111,neutral,left,,,,,,stimulusFile/physical.xlsx,,,,,,,,,,,,,,,,,,,,,,,,,,,,,,,
,,,,,,,,,,,,,,,770,2022-01-23_24h10.15.135,multiplicationStroop,2021.2.3,Win32,61.64848036,,,,,left,1,1.7225,0,33,33,33,1,2,4,2 | 4,2,1.9756,1.4111,incongruent,left,,,,,,stimulusFile/physical.xlsx,,,,,,,,,,,,,,,,,,,,,,,,,,,,,,,
,,,,,,,,,,,,,,,770,2022-01-23_24h10.15.135,multiplicationStroop,2021.2.3,Win32,61.64848036,,,,,right,1,0.4976,0,34,34,61,1,4,4,4 | 4,0,1.4111,1.9756,neutral,right,,,,,,stimulusFile/physical.xlsx,,,,,,,,,,,,,,,,,,,,,,,,,,,,,,,
,,,,,,,,,,,,,,,770,2022-01-23_24h10.15.135,multiplicationStroop,2021.2.3,Win32,61.64848036,,,,,left,1,0.5072,0,35,35,22,1,8,3,8 | 3,5,1.9756,1.4111,congruent,left,,,,,,stimulusFile/physical.xlsx,,,,,,,,,,,,,,,,,,,,,,,,,,,,,,,
,,,,,,,,,,,,,,,770,2022-01-23_24h10.15.135,multiplicationStroop,2021.2.3,Win32,61.64848036,,,,,right,1,0.5869,0,36,36,17,1,2,7,2 | 7,5,1.4111,1.9756,congruent,right,,,,,,stimulusFile/physical.xlsx,,,,,,,,,,,,,,,,,,,,,,,,,,,,,,,
,,,,,,,,,,,,,,,770,2022-01-23_24h10.15.135,multiplicationStroop,2021.2.3,Win32,61.64848036,,,,,left,1,1.0096,0,37,37,41,1,2,7,2 | 7,5,1.9756,1.4111,incongruent,left,,,,,,stimulusFile/physical.xlsx,,,,,,,,,,,,,,,,,,,,,,,,,,,,,,,
,,,,,,,,,,,,,,,770,2022-01-23_24h10.15.135,multiplicationStroop,2021.2.3,Win32,61.64848036,,,,,left,1,1.6131,0,38,38,34,1,6,8,6 | 8,2,1.9756,1.4111,incongruent,left,,,,,,stimulusFile/physical.xlsx,,,,,,,,,,,,,,,,,,,,,,,,,,,,,,,
,,,,,,,,,,,,,,,770,2022-01-23_24h10.15.135,multiplicationStroop,2021.2.3,Win32,61.64848036,,,,,right,1,0.4552,0,39,39,19,1,4,9,4 | 9,5,1.4111,1.9756,congruent,right,,,,,,stimulusFile/physical.xlsx,,,,,,,,,,,,,,,,,,,,,,,,,,,,,,,
,,,,,,,,,,,,,,,770,2022-01-23_24h10.15.135,multiplicationStroop,2021.2.3,Win32,61.64848036,,,,,right,1,0.5703,0,40,40,65,1,2,2,2 | 2,0,1.4111,1.9756,neutral,right,,,,,,stimulusFile/physical.xlsx,,,,,,,,,,,,,,,,,,,,,,,,,,,,,,,
,,,,,,,,,,,,,,,770,2022-01-23_24h10.15.135,multiplicationStroop,2021.2.3,Win32,61.64848036,,,,,right,1,0.5726,0,41,41,2,1,6,7,6 | 7,1,1.4111,1.9756,congruent,right,,,,,,stimulusFile/physical.xlsx,,,,,,,,,,,,,,,,,,,,,,,,,,,,,,,
,,,,,,,,,,,,,,,770,2022-01-23_24h10.15.135,multiplicationStroop,2021.2.3,Win32,61.64848036,,,,,left,1,0.5375,0,42,42,13,1,4,2,4 | 2,2,1.9756,1.4111,congruent,left,,,,,,stimulusFile/physical.xlsx,,,,,,,,,,,,,,,,,,,,,,,,,,,,,,,
,,,,,,,,,,,,,,,770,2022-01-23_24h10.15.135,multiplicationStroop,2021.2.3,Win32,61.64848036,,,,,left,1,0.4801,0,43,43,15,1,9,7,9 | 7,2,1.9756,1.4111,congruent,left,,,,,,stimulusFile/physical.xlsx,,,,,,,,,,,,,,,,,,,,,,,,,,,,,,,
,,,,,,,,,,,,,,,770,2022-01-23_24h10.15.135,multiplicationStroop,2021.2.3,Win32,61.64848036,,,,,left,1,0.5372,0,44,44,70,1,8,8,8 | 8,0,1.9756,1.4111,neutral,left,,,,,,stimulusFile/physical.xlsx,,,,,,,,,,,,,,,,,,,,,,,,,,,,,,,
,,,,,,,,,,,,,,,770,2022-01-23_24h10.15.135,multiplicationStroop,2021.2.3,Win32,61.64848036,,,,,left,1,0.7809,0,45,45,42,1,3,8,3 | 8,5,1.9756,1.4111,incongruent,left,,,,,,stimulusFile/physical.xlsx,,,,,,,,,,,,,,,,,,,,,,,,,,,,,,,
,,,,,,,,,,,,,,,770,2022-01-23_24h10.15.135,multiplicationStroop,2021.2.3,Win32,61.64848036,,,,,right,0,0.4982,0,46,46,69,1,7,7,7 | 7,0,1.4111,1.9756,neutral,left,,,,,,stimulusFile/physical.xlsx,,,,,,,,,,,,,,,,,,,,,,,,,,,,,,,
,,,,,,,,,,,,,,,770,2022-01-23_24h10.15.135,multiplicationStroop,2021.2.3,Win32,61.64848036,,,,,left,1,0.7219,0,47,47,54,1,7,7,7 | 7,0,1.9756,1.4111,neutral,left,,,,,,stimulusFile/physical.xlsx,,,,,,,,,,,,,,,,,,,,,,,,,,,,,,,
,,,,,,,,,,,,,,,770,2022-01-23_24h10.15.135,multiplicationStroop,2021.2.3,Win32,61.64848036,,,,,right,1,0.5406,0,48,48,11,1,7,9,7 | 9,2,1.4111,1.9756,congruent,right,,,,,,stimulusFile/physical.xlsx,,,,,,,,,,,,,,,,,,,,,,,,,,,,,,,
,,,,,,,,,,,,,,,770,2022-01-23_24h10.15.135,multiplicationStroop,2021.2.3,Win32,61.64848036,,,,,right,0,0.5284,0,49,49,71,1,9,9,9 | 9,0,1.4111,1.9756,neutral,left,,,,,,stimulusFile/physical.xlsx,,,,,,,,,,,,,,,,,,,,,,,,,,,,,,,
,,,,,,,,,,,,,,,770,2022-01-23_24h10.15.135,multiplicationStroop,2021.2.3,Win32,61.64848036,,,,,left,1,0.7679,0,50,50,24,1,1,2,1 | 2,1,1.9756,1.4111,incongruent,left,,,,,,stimulusFile/physical.xlsx,,,,,,,,,,,,,,,,,,,,,,,,,,,,,,,
,,,,,,,,,,,,,,,770,2022-01-23_24h10.15.135,multiplicationStroop,2021.2.3,Win32,61.64848036,,,,,left,1,0.6862,0,51,51,53,1,4,4,4 | 4,0,1.9756,1.4111,neutral,left,,,,,,stimulusFile/physical.xlsx,,,,,,,,,,,,,,,,,,,,,,,,,,,,,,,
,,,,,,,,,,,,,,,770,2022-01-23_24h10.15.135,multiplicationStroop,2021.2.3,Win32,61.64848036,,,,,left,1,0.5028,0,52,52,4,1,2,1,2 | 1,1,1.9756,1.4111,congruent,left,,,,,,stimulusFile/physical.xlsx,,,,,,,,,,,,,,,,,,,,,,,,,,,,,,,
,,,,,,,,,,,,,,,770,2022-01-23_24h10.15.135,multiplicationStroop,2021.2.3,Win32,61.64848036,,,,,right,1,0.5189,0,53,53,57,1,2,2,2 | 2,0,1.4111,1.9756,neutral,right,,,,,,stimulusFile/physical.xlsx,,,,,,,,,,,,,,,,,,,,,,,,,,,,,,,
,,,,,,,,,,,,,,,770,2022-01-23_24h10.15.135,multiplicationStroop,2021.2.3,Win32,61.64848036,,,,,left,1,0.4583,0,54,54,5,1,4,3,4 | 3,1,1.9756,1.4111,congruent,left,,,,,,stimulusFile/physical.xlsx,,,,,,,,,,,,,,,,,,,,,,,,,,,,,,,
,,,,,,,,,,,,,,,770,2022-01-23_24h10.15.135,multiplicationStroop,2021.2.3,Win32,61.64848036,,,,,right,1,0.4862,0,55,55,3,1,8,9,8 | 9,1,1.4111,1.9756,congruent,right,,,,,,stimulusFile/physical.xlsx,,,,,,,,,,,,,,,,,,,,,,,,,,,,,,,
,,,,,,,,,,,,,,,770,2022-01-23_24h10.15.135,multiplicationStroop,2021.2.3,Win32,61.64848036,,,,,right,1,0.531,0,56,56,46,1,8,3,8 | 3,5,1.4111,1.9756,incongruent,right,,,,,,stimulusFile/physical.xlsx,,,,,,,,,,,,,,,,,,,,,,,,,,,,,,,
,,,,,,,,,,,,,,,770,2022-01-23_24h10.15.135,multiplicationStroop,2021.2.3,Win32,61.64848036,,,,,left,1,0.4685,0,57,57,40,1,1,6,1 | 6,5,1.9756,1.4111,incongruent,left,,,,,,stimulusFile/physical.xlsx,,,,,,,,,,,,,,,,,,,,,,,,,,,,,,,
,,,,,,,,,,,,,,,770,2022-01-23_24h10.15.135,multiplicationStroop,2021.2.3,Win32,61.64848036,,,,,right,1,0.506,0,58,58,39,1,9,7,9 | 7,2,1.4111,1.9756,incongruent,right,,,,,,stimulusFile/physical.xlsx,,,,,,,,,,,,,,,,,,,,,,,,,,,,,,,
,,,,,,,,,,,,,,,770,2022-01-23_24h10.15.135,multiplicationStroop,2021.2.3,Win32,61.64848036,,,,,right,1,0.5665,0,59,59,9,1,2,4,2 | 4,2,1.4111,1.9756,congruent,right,,,,,,stimulusFile/physical.xlsx,,,,,,,,,,,,,,,,,,,,,,,,,,,,,,,
,,,,,,,,,,,,,,,770,2022-01-23_24h10.15.135,multiplicationStroop,2021.2.3,Win32,61.64848036,,,,,left,1,0.4225,0,60,60,7,1,9,8,9 | 8,1,1.9756,1.4111,congruent,left,,,,,,stimulusFile/physical.xlsx,,,,,,,,,,,,,,,,,,,,,,,,,,,,,,,
,,,,,,,,,,,,,,,770,2022-01-23_24h10.15.135,multiplicationStroop,2021.2.3,Win32,61.64848036,,,,,right,1,0.4685,0,61,61,1,1,3,4,3 | 4,1,1.4111,1.9756,congruent,right,,,,,,stimulusFile/physical.xlsx,,,,,,,,,,,,,,,,,,,,,,,,,,,,,,,
,,,,,,,,,,,,,,,770,2022-01-23_24h10.15.135,multiplicationStroop,2021.2.3,Win32,61.64848036,,,,,right,1,0.5013,0,62,62,63,1,9,9,9 | 9,0,1.4111,1.9756,neutral,right,,,,,,stimulusFile/physical.xlsx,,,,,,,,,,,,,,,,,,,,,,,,,,,,,,,
,,,,,,,,,,,,,,,770,2022-01-23_24h10.15.135,multiplicationStroop,2021.2.3,Win32,61.64848036,,,,,right,1,0.8572,0,63,63,36,1,3,1,3 | 1,2,1.4111,1.9756,incongruent,right,,,,,,stimulusFile/physical.xlsx,,,,,,,,,,,,,,,,,,,,,,,,,,,,,,,
,,,,,,,,,,,,,,,770,2022-01-23_24h10.15.135,multiplicationStroop,2021.2.3,Win32,61.64848036,,,,,left,1,0.5695,0,64,64,32,1,1,3,1 | 3,2,1.9756,1.4111,incongruent,left,,,,,,stimulusFile/physical.xlsx,,,,,,,,,,,,,,,,,,,,,,,,,,,,,,,
,,,,,,,,,,,,,,,770,2022-01-23_24h10.15.135,multiplicationStroop,2021.2.3,Win32,61.64848036,,,,,right,1,0.5855,0,65,65,0,1,1,2,1 | 2,1,1.4111,1.9756,congruent,right,,,,,,stimulusFile/physical.xlsx,,,,,,,,,,,,,,,,,,,,,,,,,,,,,,,
,,,,,,,,,,,,,,,770,2022-01-23_24h10.15.135,multiplicationStroop,2021.2.3,Win32,61.64848036,,,,,left,1,0.6528,0,66,66,48,1,1,1,1 | 1,0,1.9756,1.4111,neutral,left,,,,,,stimulusFile/physical.xlsx,,,,,,,,,,,,,,,,,,,,,,,,,,,,,,,
,,,,,,,,,,,,,,,770,2022-01-23_24h10.15.135,multiplicationStroop,2021.2.3,Win32,61.64848036,,,,,right,1,0.541,0,67,67,37,1,4,2,4 | 2,2,1.4111,1.9756,incongruent,right,,,,,,stimulusFile/physical.xlsx,,,,,,,,,,,,,,,,,,,,,,,,,,,,,,,
,,,,,,,,,,,,,,,770,2022-01-23_24h10.15.135,multiplicationStroop,2021.2.3,Win32,61.64848036,,,,,left,1,0.8028,0,68,68,12,1,3,1,3 | 1,2,1.9756,1.4111,congruent,left,,,,,,stimulusFile/physical.xlsx,,,,,,,,,,,,,,,,,,,,,,,,,,,,,,,
,,,,,,,,,,,,,,,770,2022-01-23_24h10.15.135,multiplicationStroop,2021.2.3,Win32,61.64848036,,,,,right,1,0.5071,0,69,69,59,1,7,7,7 | 7,0,1.4111,1.9756,neutral,right,,,,,,stimulusFile/physical.xlsx,,,,,,,,,,,,,,,,,,,,,,,,,,,,,,,
,,,,,,,,,,,,,,,770,2022-01-23_24h10.15.135,multiplicationStroop,2021.2.3,Win32,61.64848036,,,,,left,0,0.5934,0,70,70,64,1,1,1,1 | 1,0,1.9756,1.4111,neutral,right,,,,,,stimulusFile/physical.xlsx,,,,,,,,,,,,,,,,,,,,,,,,,,,,,,,
,,,,,,,,,,,,,,,770,2022-01-23_24h10.15.135,multiplicationStroop,2021.2.3,Win32,61.64848036,,,,,left,1,0.526,0,71,71,49,1,3,3,3 | 3,0,1.9756,1.4111,neutral,left,,,,,,stimulusFile/physical.xlsx,,,,,,,,,,,,,,,,,,,,,,,,,,,,,,,
,,,,,,,,,,,,,,,770,2022-01-23_24h10.15.135,multiplicationStroop,2021.2.3,Win32,61.64848036,,,,,,,,,,,,,,,,,,,,,0,0,0,1,1,stimulusFile/physical.xlsx,PHYSICALLY larger (larger font size).,images/physicallyLarger.png,,,,,,,,,,,,,,,,,,,,,,,,,,,,,
,,,,,,,,,,,,,,,770,2022-01-23_24h10.15.135,multiplicationStroop,2021.2.3,Win32,61.64848036,space,15.085,space,12.7657,right,0,1.8522,0,0,0,47,1,9,4,9 | 4,5,1.4111,1.9756,incongruent,left,,,,,,stimulusFile/magnitude.xlsx,,,,,,,,,,,,,,,,,,,,,,,,,,,,,,,
,,,,,,,,,,,,,,,770,2022-01-23_24h10.15.135,multiplicationStroop,2021.2.3,Win32,61.64848036,,,,,left,1,1.6133,0,1,1,14,1,8,6,8 | 6,2,1.9756,1.4111,congruent,left,,,,,,stimulusFile/magnitude.xlsx,,,,,,,,,,,,,,,,,,,,,,,,,,,,,,,
,,,,,,,,,,,,,,,770,2022-01-23_24h10.15.135,multiplicationStroop,2021.2.3,Win32,61.64848036,,,,,right,1,1.4175,0,2,2,34,1,6,8,6 | 8,2,1.9756,1.4111,incongruent,right,,,,,,stimulusFile/magnitude.xlsx,,,,,,,,,,,,,,,,,,,,,,,,,,,,,,,
,,,,,,,,,,,,,,,770,2022-01-23_24h10.15.135,multiplicationStroop,2021.2.3,Win32,61.64848036,,,,,left,1,0.6371,0,3,3,20,1,6,1,6 | 1,5,1.9756,1.4111,congruent,left,,,,,,stimulusFile/magnitude.xlsx,,,,,,,,,,,,,,,,,,,,,,,,,,,,,,,
,,,,,,,,,,,,,,,770,2022-01-23_24h10.15.135,multiplicationStroop,2021.2.3,Win32,61.64848036,,,,,right,0,0.6045,0,4,4,37,1,4,2,4 | 2,2,1.4111,1.9756,incongruent,left,,,,,,stimulusFile/magnitude.xlsx,,,,,,,,,,,,,,,,,,,,,,,,,,,,,,,
,,,,,,,,,,,,,,,770,2022-01-23_24h10.15.135,multiplicationStroop,2021.2.3,Win32,61.64848036,,,,,right,1,1.2006,0,5,5,0,1,1,2,1 | 2,1,1.4111,1.9756,congruent,right,,,,,,stimulusFile/magnitude.xlsx,,,,,,,,,,,,,,,,,,,,,,,,,,,,,,,
,,,,,,,,,,,,,,,770,2022-01-23_24h10.15.135,multiplicationStroop,2021.2.3,Win32,61.64848036,,,,,right,1,0.6,0,6,6,16,1,1,6,1 | 6,5,1.4111,1.9756,congruent,right,,,,,,stimulusFile/magnitude.xlsx,,,,,,,,,,,,,,,,,,,,,,,,,,,,,,,
,,,,,,,,,,,,,,,770,2022-01-23_24h10.15.135,multiplicationStroop,2021.2.3,Win32,61.64848036,,,,,left,1,1.2513,0,7,7,28,1,2,1,2 | 1,1,1.4111,1.9756,incongruent,left,,,,,,stimulusFile/magnitude.xlsx,,,,,,,,,,,,,,,,,,,,,,,,,,,,,,,
,,,,,,,,,,,,,,,770,2022-01-23_24h10.15.135,multiplicationStroop,2021.2.3,Win32,61.64848036,,,,,left,1,1.0358,0,8,8,70,1,8,3,8 | 3,5,1.6933,1.6933,neutral,left,,,,,,stimulusFile/magnitude.xlsx,,,,,,,,,,,,,,,,,,,,,,,,,,,,,,,
,,,,,,,,,,,,,,,770,2022-01-23_24h10.15.135,multiplicationStroop,2021.2.3,Win32,61.64848036,,,,,left,1,1.0163,0,9,9,60,1,3,1,3 | 1,2,1.6933,1.6933,neutral,left,,,,,,stimulusFile/magnitude.xlsx,,,,,,,,,,,,,,,,,,,,,,,,,,,,,,,
,,,,,,,,,,,,,,,770,2022-01-23_24h10.15.135,multiplicationStroop,2021.2.3,Win32,61.64848036,,,,,right,1,0.6974,0,10,10,11,1,7,9,7 | 9,2,1.4111,1.9756,congruent,right,,,,,,stimulusFile/magnitude.xlsx,,,,,,,,,,,,,,,,,,,,,,,,,,,,,,,
,,,,,,,,,,,,,,,770,2022-01-23_24h10.15.135,multiplicationStroop,2021.2.3,Win32,61.64848036,,,,,right,1,0.5257,0,11,11,2,1,6,7,6 | 7,1,1.4111,1.9756,congruent,right,,,,,,stimulusFile/magnitude.xlsx,,,,,,,,,,,,,,,,,,,,,,,,,,,,,,,
,,,,,,,,,,,,,,,770,2022-01-23_24h10.15.135,multiplicationStroop,2021.2.3,Win32,61.64848036,,,,,left,1,1.0011,0,12,12,31,1,9,8,9 | 8,1,1.4111,1.9756,incongruent,left,,,,,,stimulusFile/magnitude.xlsx,,,,,,,,,,,,,,,,,,,,,,,,,,,,,,,
,,,,,,,,,,,,,,,770,2022-01-23_24h10.15.135,multiplicationStroop,2021.2.3,Win32,61.64848036,,,,,left,1,0.644,0,13,13,12,1,3,1,3 | 1,2,1.9756,1.4111,congruent,left,,,,,,stimulusFile/magnitude.xlsx,,,,,,,,,,,,,,,,,,,,,,,,,,,,,,,
,,,,,,,,,,,,,,,770,2022-01-23_24h10.15.135,multiplicationStroop,2021.2.3,Win32,61.64848036,,,,,right,1,1.1196,0,14,14,33,1,2,4,2 | 4,2,1.9756,1.4111,incongruent,right,,,,,,stimulusFile/magnitude.xlsx,,,,,,,,,,,,,,,,,,,,,,,,,,,,,,,
,,,,,,,,,,,,,,,770,2022-01-23_24h10.15.135,multiplicationStroop,2021.2.3,Win32,61.64848036,,,,,left,1,0.6596,0,15,15,21,1,7,2,7 | 2,5,1.9756,1.4111,congruent,left,,,,,,stimulusFile/magnitude.xlsx,,,,,,,,,,,,,,,,,,,,,,,,,,,,,,,
,,,,,,,,,,,,,,,770,2022-01-23_24h10.15.135,multiplicationStroop,2021.2.3,Win32,61.64848036,,,,,right,1,1.1355,0,16,16,56,1,1,3,1 | 3,2,1.6933,1.6933,neutral,right,,,,,,stimulusFile/magnitude.xlsx,,,,,,,,,,,,,,,,,,,,,,,,,,,,,,,
,,,,,,,,,,,,,,,770,2022-01-23_24h10.15.135,multiplicationStroop,2021.2.3,Win32,61.64848036,,,,,right,1,0.9065,0,17,17,48,1,1,2,1 | 2,1,1.6933,1.6933,neutral,right,,,,,,stimulusFile/magnitude.xlsx,,,,,,,,,,,,,,,,,,,,,,,,,,,,,,,
,,,,,,,,,,,,,,,770,2022-01-23_24h10.15.135,multiplicationStroop,2021.2.3,Win32,61.64848036,,,,,left,1,0.7722,0,18,18,68,1,6,1,6 | 1,5,1.6933,1.6933,neutral,left,,,,,,stimulusFile/magnitude.xlsx,,,,,,,,,,,,,,,,,,,,,,,,,,,,,,,
,,,,,,,,,,,,,,,770,2022-01-23_24h10.15.135,multiplicationStroop,2021.2.3,Win32,61.64848036,,,,,right,1,0.5868,0,19,19,18,1,3,8,3 | 8,5,1.4111,1.9756,congruent,right,,,,,,stimulusFile/magnitude.xlsx,,,,,,,,,,,,,,,,,,,,,,,,,,,,,,,
,,,,,,,,,,,,,,,770,2022-01-23_24h10.15.135,multiplicationStroop,2021.2.3,Win32,61.64848036,,,,,left,1,0.5843,0,20,20,13,1,4,2,4 | 2,2,1.9756,1.4111,congruent,left,,,,,,stimulusFile/magnitude.xlsx,,,,,,,,,,,,,,,,,,,,,,,,,,,,,,,
,,,,,,,,,,,,,,,770,2022-01-23_24h10.15.135,multiplicationStroop,2021.2.3,Win32,61.64848036,,,,,left,1,1.0412,0,21,21,46,1,8,3,8 | 3,5,1.4111,1.9756,incongruent,left,,,,,,stimulusFile/magnitude.xlsx,,,,,,,,,,,,,,,,,,,,,,,,,,,,,,,
,,,,,,,,,,,,,,,770,2022-01-23_24h10.15.135,multiplicationStroop,2021.2.3,Win32,61.64848036,,,,,right,1,0.7172,0,22,22,67,1,4,9,4 | 9,5,1.6933,1.6933,neutral,right,,,,,,stimulusFile/magnitude.xlsx,,,,,,,,,,,,,,,,,,,,,,,,,,,,,,,
,,,,,,,,,,,,,,,770,2022-01-23_24h10.15.135,multiplicationStroop,2021.2.3,Win32,61.64848036,,,,,left,1,0.7176,0,23,23,5,1,4,3,4 | 3,1,1.9756,1.4111,congruent,left,,,,,,stimulusFile/magnitude.xlsx,,,,,,,,,,,,,,,,,,,,,,,,,,,,,,,
,,,,,,,,,,,,,,,770,2022-01-23_24h10.15.135,multiplicationStroop,2021.2.3,Win32,61.64848036,,,,,right,1,1.323,0,24,24,25,1,3,4,3 | 4,1,1.9756,1.4111,incongruent,right,,,,,,stimulusFile/magnitude.xlsx,,,,,,,,,,,,,,,,,,,,,,,,,,,,,,,
,,,,,,,,,,,,,,,770,2022-01-23_24h10.15.135,multiplicationStroop,2021.2.3,Win32,61.64848036,,,,,right,1,0.5348,0,25,25,3,1,8,9,8 | 9,1,1.4111,1.9756,congruent,right,,,,,,stimulusFile/magnitude.xlsx,,,,,,,,,,,,,,,,,,,,,,,,,,,,,,,
,,,,,,,,,,,,,,,770,2022-01-23_24h10.15.135,multiplicationStroop,2021.2.3,Win32,61.64848036,,,,,right,1,0.6199,0,26,26,65,1,2,7,2 | 7,5,1.6933,1.6933,neutral,right,,,,,,stimulusFile/magnitude.xlsx,,,,,,,,,,,,,,,,,,,,,,,,,,,,,,,
,,,,,,,,,,,,,,,770,2022-01-23_24h10.15.135,multiplicationStroop,2021.2.3,Win32,61.64848036,,,,,right,1,0.605,0,27,27,24,1,1,2,1 | 2,1,1.9756,1.4111,incongruent,right,,,,,,stimulusFile/magnitude.xlsx,,,,,,,,,,,,,,,,,,,,,,,,,,,,,,,
,,,,,,,,,,,,,,,770,2022-01-23_24h10.15.135,multiplicationStroop,2021.2.3,Win32,61.64848036,,,,,left,1,0.6529,0,28,28,53,1,4,3,4 | 3,1,1.6933,1.6933,neutral,left,,,,,,stimulusFile/magnitude.xlsx,,,,,,,,,,,,,,,,,,,,,,,,,,,,,,,
,,,,,,,,,,,,,,,770,2022-01-23_24h10.15.135,multiplicationStroop,2021.2.3,Win32,61.64848036,,,,,left,1,0.5669,0,29,29,69,1,7,2,7 | 2,5,1.6933,1.6933,neutral,left,,,,,,stimulusFile/magnitude.xlsx,,,,,,,,,,,,,,,,,,,,,,,,,,,,,,,
,,,,,,,,,,,,,,,770,2022-01-23_24h10.15.135,multiplicationStroop,2021.2.3,Win32,61.64848036,,,,,right,1,0.8197,0,30,30,41,1,2,7,2 | 7,5,1.9756,1.4111,incongruent,right,,,,,,stimulusFile/magnitude.xlsx,,,,,,,,,,,,,,,,,,,,,,,,,,,,,,,
,,,,,,,,,,,,,,,770,2022-01-23_24h10.15.135,multiplicationStroop,2021.2.3,Win32,61.64848036,,,,,left,1,0.5724,0,31,31,44,1,6,1,6 | 1,5,1.4111,1.9756,incongruent,left,,,,,,stimulusFile/magnitude.xlsx,,,,,,,,,,,,,,,,,,,,,,,,,,,,,,,
,,,,,,,,,,,,,,,770,2022-01-23_24h10.15.135,multiplicationStroop,2021.2.3,Win32,61.64848036,,,,,left,1,0.6032,0,32,32,45,1,7,2,7 | 2,5,1.4111,1.9756,incongruent,left,,,,,,stimulusFile/magnitude.xlsx,,,,,,,,,,,,,,,,,,,,,,,,,,,,,,,
,,,,,,,,,,,,,,,770,2022-01-23_24h10.15.135,multiplicationStroop,2021.2.3,Win32,61.64848036,,,,,left,1,1.1797,0,33,33,54,1,7,6,7 | 6,1,1.6933,1.6933,neutral,left,,,,,,stimulusFile/magnitude.xlsx,,,,,,,,,,,,,,,,,,,,,,,,,,,,,,,
,,,,,,,,,,,,,,,770,2022-01-23_24h10.15.135,multiplicationStroop,2021.2.3,Win32,61.64848036,,,,,left,1,0.5855,0,34,34,55,1,9,8,9 | 8,1,1.6933,1.6933,neutral,left,,,,,,stimulusFile/magnitude.xlsx,,,,,,,,,,,,,,,,,,,,,,,,,,,,,,,
,,,,,,,,,,,,,,,770,2022-01-23_24h10.15.135,multiplicationStroop,2021.2.3,Win32,61.64848036,,,,,right,1,0.742,0,35,35,58,1,6,8,6 | 8,2,1.6933,1.6933,neutral,right,,,,,,stimulusFile/magnitude.xlsx,,,,,,,,,,,,,,,,,,,,,,,,,,,,,,,
,,,,,,,,,,,,,,,770,2022-01-23_24h10.15.135,multiplicationStroop,2021.2.3,Win32,61.64848036,,,,,right,1,0.5684,0,36,36,64,1,1,6,1 | 6,5,1.6933,1.6933,neutral,right,,,,,,stimulusFile/magnitude.xlsx,,,,,,,,,,,,,,,,,,,,,,,,,,,,,,,
,,,,,,,,,,,,,,,770,2022-01-23_24h10.15.135,multiplicationStroop,2021.2.3,Win32,61.64848036,,,,,left,1,1.091,0,37,37,29,1,4,3,4 | 3,1,1.4111,1.9756,incongruent,left,,,,,,stimulusFile/magnitude.xlsx,,,,,,,,,,,,,,,,,,,,,,,,,,,,,,,
,,,,,,,,,,,,,,,770,2022-01-23_24h10.15.135,multiplicationStroop,2021.2.3,Win32,61.64848036,,,,,right,1,0.8734,0,38,38,40,1,1,6,1 | 6,5,1.9756,1.4111,incongruent,right,,,,,,stimulusFile/magnitude.xlsx,,,,,,,,,,,,,,,,,,,,,,,,,,,,,,,
,,,,,,,,,,,,,,,770,2022-01-23_24h10.15.135,multiplicationStroop,2021.2.3,Win32,61.64848036,,,,,right,1,1.8549,0,39,39,32,1,1,3,1 | 3,2,1.9756,1.4111,incongruent,right,,,,,,stimulusFile/magnitude.xlsx,,,,,,,,,,,,,,,,,,,,,,,,,,,,,,,
,,,,,,,,,,,,,,,770,2022-01-23_24h10.15.135,multiplicationStroop,2021.2.3,Win32,61.64848036,,,,,left,1,0.8574,0,40,40,62,1,8,6,8 | 6,2,1.6933,1.6933,neutral,left,,,,,,stimulusFile/magnitude.xlsx,,,,,,,,,,,,,,,,,,,,,,,,,,,,,,,
,,,,,,,,,,,,,,,770,2022-01-23_24h10.15.135,multiplicationStroop,2021.2.3,Win32,61.64848036,,,,,right,1,0.902,0,41,41,10,1,6,8,6 | 8,2,1.4111,1.9756,congruent,right,,,,,,stimulusFile/magnitude.xlsx,,,,,,,,,,,,,,,,,,,,,,,,,,,,,,,
,,,,,,,,,,,,,,,770,2022-01-23_24h10.15.135,multiplicationStroop,2021.2.3,Win32,61.64848036,,,,,left,1,0.8956,0,42,42,30,1,7,6,7 | 6,1,1.4111,1.9756,incongruent,left,,,,,,stimulusFile/magnitude.xlsx,,,,,,,,,,,,,,,,,,,,,,,,,,,,,,,
,,,,,,,,,,,,,,,770,2022-01-23_24h10.15.135,multiplicationStroop,2021.2.3,Win32,61.64848036,,,,,left,1,0.8204,0,43,43,71,1,9,4,9 | 4,5,1.6933,1.6933,neutral,left,,,,,,stimulusFile/magnitude.xlsx,,,,,,,,,,,,,,,,,,,,,,,,,,,,,,,
,,,,,,,,,,,,,,,770,2022-01-23_24h10.15.135,multiplicationStroop,2021.2.3,Win32,61.64848036,,,,,left,1,0.7675,0,44,44,36,1,3,1,3 | 1,2,1.4111,1.9756,incongruent,left,,,,,,stimulusFile/magnitude.xlsx,,,,,,,,,,,,,,,,,,,,,,,,,,,,,,,
,,,,,,,,,,,,,,,770,2022-01-23_24h10.15.135,multiplicationStroop,2021.2.3,Win32,61.64848036,,,,,right,1,0.6852,0,45,45,9,1,2,4,2 | 4,2,1.4111,1.9756,congruent,right,,,,,,stimulusFile/magnitude.xlsx,,,,,,,,,,,,,,,,,,,,,,,,,,,,,,,
,,,,,,,,,,,,,,,770,2022-01-23_24h10.15.135,multiplicationStroop,2021.2.3,Win32,61.64848036,,,,,right,1,0.6545,0,46,46,66,1,3,8,3 | 8,5,1.6933,1.6933,neutral,right,,,,,,stimulusFile/magnitude.xlsx,,,,,,,,,,,,,,,,,,,,,,,,,,,,,,,
,,,,,,,,,,,,,,,770,2022-01-23_24h10.15.135,multiplicationStroop,2021.2.3,Win32,61.64848036,,,,,left,1,0.5223,0,47,47,22,1,8,3,8 | 3,5,1.9756,1.4111,congruent,left,,,,,,stimulusFile/magnitude.xlsx,,,,,,,,,,,,,,,,,,,,,,,,,,,,,,,
,,,,,,,,,,,,,,,770,2022-01-23_24h10.15.135,multiplicationStroop,2021.2.3,Win32,61.64848036,,,,,left,0,0.4805,0,48,48,27,1,8,9,8 | 9,1,1.9756,1.4111,incongruent,right,,,,,,stimulusFile/magnitude.xlsx,,,,,,,,,,,,,,,,,,,,,,,,,,,,,,,
,,,,,,,,,,,,,,,770,2022-01-23_24h10.15.135,multiplicationStroop,2021.2.3,Win32,61.64848036,,,,,left,1,1.0177,0,49,49,52,1,2,1,2 | 1,1,1.6933,1.6933,neutral,left,,,,,,stimulusFile/magnitude.xlsx,,,,,,,,,,,,,,,,,,,,,,,,,,,,,,,
,,,,,,,,,,,,,,,770,2022-01-23_24h10.15.135,multiplicationStroop,2021.2.3,Win32,61.64848036,,,,,left,1,0.8633,0,50,50,63,1,9,7,9 | 7,2,1.6933,1.6933,neutral,left,,,,,,stimulusFile/magnitude.xlsx,,,,,,,,,,,,,,,,,,,,,,,,,,,,,,,
,,,,,,,,,,,,,,,770,2022-01-23_24h10.15.135,multiplicationStroop,2021.2.3,Win32,61.64848036,,,,,right,1,0.6256,0,51,51,17,1,2,7,2 | 7,5,1.4111,1.9756,congruent,right,,,,,,stimulusFile/magnitude.xlsx,,,,,,,,,,,,,,,,,,,,,,,,,,,,,,,
,,,,,,,,,,,,,,,770,2022-01-23_24h10.15.135,multiplicationStroop,2021.2.3,Win32,61.64848036,,,,,right,1,0.9677,0,52,52,26,1,6,7,6 | 7,1,1.9756,1.4111,incongruent,right,,,,,,stimulusFile/magnitude.xlsx,,,,,,,,,,,,,,,,,,,,,,,,,,,,,,,
,,,,,,,,,,,,,,,770,2022-01-23_24h10.15.135,multiplicationStroop,2021.2.3,Win32,61.64848036,,,,,left,1,0.6359,0,53,53,61,1,4,2,4 | 2,2,1.6933,1.6933,neutral,left,,,,,,stimulusFile/magnitude.xlsx,,,,,,,,,,,,,,,,,,,,,,,,,,,,,,,
,,,,,,,,,,,,,,,770,2022-01-23_24h10.15.135,multiplicationStroop,2021.2.3,Win32,61.64848036,,,,,left,1,0.6038,0,54,54,23,1,9,4,9 | 4,5,1.9756,1.4111,congruent,left,,,,,,stimulusFile/magnitude.xlsx,,,,,,,,,,,,,,,,,,,,,,,,,,,,,,,
,,,,,,,,,,,,,,,770,2022-01-23_24h10.15.135,multiplicationStroop,2021.2.3,Win32,61.64848036,,,,,right,1,0.8163,0,55,55,51,1,8,9,8 | 9,1,1.6933,1.6933,neutral,right,,,,,,stimulusFile/magnitude.xlsx,,,,,,,,,,,,,,,,,,,,,,,,,,,,,,,
,,,,,,,,,,,,,,,770,2022-01-23_24h10.15.135,multiplicationStroop,2021.2.3,Win32,61.64848036,,,,,right,1,0.7537,0,56,56,59,1,7,9,7 | 9,2,1.6933,1.6933,neutral,right,,,,,,stimulusFile/magnitude.xlsx,,,,,,,,,,,,,,,,,,,,,,,,,,,,,,,
,,,,,,,,,,,,,,,770,2022-01-23_24h10.15.135,multiplicationStroop,2021.2.3,Win32,61.64848036,,,,,right,1,1.1955,0,57,57,8,1,1,3,1 | 3,2,1.4111,1.9756,congruent,right,,,,,,stimulusFile/magnitude.xlsx,,,,,,,,,,,,,,,,,,,,,,,,,,,,,,,
,,,,,,,,,,,,,,,770,2022-01-23_24h10.15.135,multiplicationStroop,2021.2.3,Win32,61.64848036,,,,,left,1,0.9472,0,58,58,4,1,2,1,2 | 1,1,1.9756,1.4111,congruent,left,,,,,,stimulusFile/magnitude.xlsx,,,,,,,,,,,,,,,,,,,,,,,,,,,,,,,
,,,,,,,,,,,,,,,770,2022-01-23_24h10.15.135,multiplicationStroop,2021.2.3,Win32,61.64848036,,,,,left,1,1.0353,0,59,59,38,1,8,6,8 | 6,2,1.4111,1.9756,incongruent,left,,,,,,stimulusFile/magnitude.xlsx,,,,,,,,,,,,,,,,,,,,,,,,,,,,,,,
,,,,,,,,,,,,,,,770,2022-01-23_24h10.15.135,multiplicationStroop,2021.2.3,Win32,61.64848036,,,,,left,1,0.6683,0,60,60,7,1,9,8,9 | 8,1,1.9756,1.4111,congruent,left,,,,,,stimulusFile/magnitude.xlsx,,,,,,,,,,,,,,,,,,,,,,,,,,,,,,,
,,,,,,,,,,,,,,,770,2022-01-23_24h10.15.135,multiplicationStroop,2021.2.3,Win32,61.64848036,,,,,right,1,1.0224,0,61,61,43,1,4,9,4 | 9,5,1.9756,1.4111,incongruent,right,,,,,,stimulusFile/magnitude.xlsx,,,,,,,,,,,,,,,,,,,,,,,,,,,,,,,
,,,,,,,,,,,,,,,770,2022-01-23_24h10.15.135,multiplicationStroop,2021.2.3,Win32,61.64848036,,,,,right,1,0.7339,0,62,62,50,1,6,7,6 | 7,1,1.6933,1.6933,neutral,right,,,,,,stimulusFile/magnitude.xlsx,,,,,,,,,,,,,,,,,,,,,,,,,,,,,,,
,,,,,,,,,,,,,,,770,2022-01-23_24h10.15.135,multiplicationStroop,2021.2.3,Win32,61.64848036,,,,,right,1,0.6176,0,63,63,42,1,3,8,3 | 8,5,1.9756,1.4111,incongruent,right,,,,,,stimulusFile/magnitude.xlsx,,,,,,,,,,,,,,,,,,,,,,,,,,,,,,,
,,,,,,,,,,,,,,,770,2022-01-23_24h10.15.135,multiplicationStroop,2021.2.3,Win32,61.64848036,,,,,right,1,0.7841,0,64,64,57,1,2,4,2 | 4,2,1.6933,1.6933,neutral,right,,,,,,stimulusFile/magnitude.xlsx,,,,,,,,,,,,,,,,,,,,,,,,,,,,,,,
,,,,,,,,,,,,,,,770,2022-01-23_24h10.15.135,multiplicationStroop,2021.2.3,Win32,61.64848036,,,,,left,1,0.7534,0,65,65,6,1,7,6,7 | 6,1,1.9756,1.4111,congruent,left,,,,,,stimulusFile/magnitude.xlsx,,,,,,,,,,,,,,,,,,,,,,,,,,,,,,,
,,,,,,,,,,,,,,,770,2022-01-23_24h10.15.135,multiplicationStroop,2021.2.3,Win32,61.64848036,,,,,right,1,0.7344,0,66,66,1,1,3,4,3 | 4,1,1.4111,1.9756,congruent,right,,,,,,stimulusFile/magnitude.xlsx,,,,,,,,,,,,,,,,,,,,,,,,,,,,,,,
,,,,,,,,,,,,,,,770,2022-01-23_24h10.15.135,multiplicationStroop,2021.2.3,Win32,61.64848036,,,,,left,1,0.6271,0,67,67,15,1,9,7,9 | 7,2,1.9756,1.4111,congruent,left,,,,,,stimulusFile/magnitude.xlsx,,,,,,,,,,,,,,,,,,,,,,,,,,,,,,,
,,,,,,,,,,,,,,,770,2022-01-23_24h10.15.135,multiplicationStroop,2021.2.3,Win32,61.64848036,,,,,right,1,1.1523,0,68,68,49,1,3,4,3 | 4,1,1.6933,1.6933,neutral,right,,,,,,stimulusFile/magnitude.xlsx,,,,,,,,,,,,,,,,,,,,,,,,,,,,,,,
,,,,,,,,,,,,,,,770,2022-01-23_24h10.15.135,multiplicationStroop,2021.2.3,Win32,61.64848036,,,,,left,1,1.0007,0,69,69,39,1,9,7,9 | 7,2,1.4111,1.9756,incongruent,left,,,,,,stimulusFile/magnitude.xlsx,,,,,,,,,,,,,,,,,,,,,,,,,,,,,,,
,,,,,,,,,,,,,,,770,2022-01-23_24h10.15.135,multiplicationStroop,2021.2.3,Win32,61.64848036,,,,,right,1,0.5878,0,70,70,19,1,4,9,4 | 9,5,1.4111,1.9756,congruent,right,,,,,,stimulusFile/magnitude.xlsx,,,,,,,,,,,,,,,,,,,,,,,,,,,,,,,
,,,,,,,,,,,,,,,770,2022-01-23_24h10.15.135,multiplicationStroop,2021.2.3,Win32,61.64848036,,,,,right,1,0.9678,0,71,71,35,1,7,9,7 | 9,2,1.9756,1.4111,incongruent,right,,,,,,stimulusFile/magnitude.xlsx,,,,,,,,,,,,,,,,,,,,,,,,,,,,,,,
,,,,,,,,,,,,,,,770,2022-01-23_24h10.15.135,multiplicationStroop,2021.2.3,Win32,61.64848036,,,,,,,,,,,,,,,,,,,,,0,1,1,0,1,stimulusFile/magnitude.xlsx,NUMERICALLY larger (larger coefficient).,images/numericallyLarger.png,,,,,,,,,,,,,,,,,,,,,,,,,,,,,
,,,,,,,,,,,,,,,770,2022-01-23_24h10.15.135,multiplicationStroop,2021.2.3,Win32,61.64848036,,,,,,,,,,,,,,,,,,,,,,,,,,,,,space,13.5409,space,6.4051,64,6.7895,1,0,0,0,34,1,8,×,8,8 × 8,neutral,tie,1.5,1.5,64,,,,,,,,
,,,,,,,,,,,,,,,770,2022-01-23_24h10.15.135,multiplicationStroop,2021.2.3,Win32,61.64848036,,,,,,,,,,,,,,,,,,,,,,,,,,,,,,,,,36,2.3632,1,0,1,1,32,1,6,×,6,6 × 6,neutral,tie,1.5,1.5,36,,,,,,,,
,,,,,,,,,,,,,,,770,2022-01-23_24h10.15.135,multiplicationStroop,2021.2.3,Win32,61.64848036,,,,,,,,,,,,,,,,,,,,,,,,,,,,,,,,,28,1.8632,1,0,2,2,3,1,4,×,7,4 × 7,neutral,smallerFirst,1.5,1.5,28,,,,,,,,
,,,,,,,,,,,,,,,770,2022-01-23_24h10.15.135,multiplicationStroop,2021.2.3,Win32,61.64848036,,,,,,,,,,,,,,,,,,,,,,,,,,,,,,,,,42,1.7965,1,0,3,3,20,1,7,×,6,7 × 6,neutral,largerFirst,1.5,1.5,42,,,,,,,,
,,,,,,,,,,,,,,,770,2022-01-23_24h10.15.135,multiplicationStroop,2021.2.3,Win32,61.64848036,,,,,,,,,,,,,,,,,,,,,,,,,,,,,,,,,6,1.452,1,0,4,4,12,1,2,×,3,2 × 3,neutral,smallerFirst,1.5,1.5,6,,,,,,,,
,,,,,,,,,,,,,,,770,2022-01-23_24h10.15.135,multiplicationStroop,2021.2.3,Win32,61.64848036,,,,,,,,,,,,,,,,,,,,,,,,,,,,,,,,,16,3.2936,1,0,5,5,30,1,4,×,4,4 × 4,neutral,tie,1.5,1.5,16,,,,,,,,
,,,,,,,,,,,,,,,770,2022-01-23_24h10.15.135,multiplicationStroop,2021.2.3,Win32,61.64848036,,,,,,,,,,,,,,,,,,,,,,,,,,,,,,,,,54,2.2575,1,0,6,6,21,1,9,×,6,9 × 6,neutral,largerFirst,1.5,1.5,54,,,,,,,,
,,,,,,,,,,,,,,,770,2022-01-23_24h10.15.135,multiplicationStroop,2021.2.3,Win32,61.64848036,,,,,,,,,,,,,,,,,,,,,,,,,,,,,,,,,45,1.8767,1,0,7,7,24,1,9,×,5,9 × 5,neutral,largerFirst,1.5,1.5,45,,,,,,,,
,,,,,,,,,,,,,,,770,2022-01-23_24h10.15.135,multiplicationStroop,2021.2.3,Win32,61.64848036,,,,,,,,,,,,,,,,,,,,,,,,,,,,,,,,,24,2.8302,1,0,8,8,16,1,6,×,4,6 × 4,neutral,largerFirst,1.5,1.5,24,,,,,,,,
,,,,,,,,,,,,,,,770,2022-01-23_24h10.15.135,multiplicationStroop,2021.2.3,Win32,61.64848036,,,,,,,,,,,,,,,,,,,,,,,,,,,,,,,,,24,1.847,1,0,9,9,8,1,3,×,8,3 × 8,neutral,smallerFirst,1.5,1.5,24,,,,,,,,
,,,,,,,,,,,,,,,770,2022-01-23_24h10.15.135,multiplicationStroop,2021.2.3,Win32,61.64848036,,,,,,,,,,,,,,,,,,,,,,,,,,,,,,,,,16,1.8629,1,0,10,10,27,1,8,×,2,8 × 2,neutral,largerFirst,1.5,1.5,16,,,,,,,,
,,,,,,,,,,,,,,,770,2022-01-23_24h10.15.135,multiplicationStroop,2021.2.3,Win32,61.64848036,,,,,,,,,,,,,,,,,,,,,,,,,,,,,,,,,49,2.43,1,0,11,11,33,1,7,×,7,7 × 7,neutral,tie,1.5,1.5,49,,,,,,,,
,,,,,,,,,,,,,,,770,2022-01-23_24h10.15.135,multiplicationStroop,2021.2.3,Win32,61.64848036,,,,,,,,,,,,,,,,,,,,,,,,,,,,,,,,,35,1.9685,1,0,12,12,15,1,7,×,5,7 × 5,neutral,largerFirst,1.5,1.5,35,,,,,,,,
,,,,,,,,,,,,,,,770,2022-01-23_24h10.15.135,multiplicationStroop,2021.2.3,Win32,61.64848036,,,,,,,,,,,,,,,,,,,,,,,,,,,,,,,,,63,2.5098,1,0,13,13,26,1,9,×,7,9 × 7,neutral,largerFirst,1.5,1.5,63,,,,,,,,
,,,,,,,,,,,,,,,770,2022-01-23_24h10.15.135,multiplicationStroop,2021.2.3,Win32,61.64848036,,,,,,,,,,,,,,,,,,,,,,,,,,,,,,,,,25,1.8984,1,0,14,14,31,1,5,×,5,5 × 5,neutral,tie,1.5,1.5,25,,,,,,,,
,,,,,,,,,,,,,,,770,2022-01-23_24h10.15.135,multiplicationStroop,2021.2.3,Win32,61.64848036,,,,,,,,,,,,,,,,,,,,,,,,,,,,,,,,,32,2.0289,1,0,15,15,9,1,4,×,8,4 × 8,neutral,smallerFirst,1.5,1.5,32,,,,,,,,
,,,,,,,,,,,,,,,770,2022-01-23_24h10.15.135,multiplicationStroop,2021.2.3,Win32,61.64848036,,,,,,,,,,,,,,,,,,,,,,,,,,,,,,,,,40,2.014,1,0,16,16,10,1,5,×,8,5 × 8,neutral,smallerFirst,1.5,1.5,40,,,,,,,,
,,,,,,,,,,,,,,,770,2022-01-23_24h10.15.135,multiplicationStroop,2021.2.3,Win32,61.64848036,,,,,,,,,,,,,,,,,,,,,,,,,,,,,,,,,30,3.0803,1,0,17,17,5,1,5,×,6,5 × 6,neutral,smallerFirst,1.5,1.5,30,,,,,,,,
,,,,,,,,,,,,,,,770,2022-01-23_24h10.15.135,multiplicationStroop,2021.2.3,Win32,61.64848036,,,,,,,,,,,,,,,,,,,,,,,,,,,,,,,,,21,1.5604,1,0,18,18,22,1,7,×,3,7 × 3,neutral,largerFirst,1.5,1.5,21,,,,,,,,
,,,,,,,,,,,,,,,770,2022-01-23_24h10.15.135,multiplicationStroop,2021.2.3,Win32,61.64848036,,,,,,,,,,,,,,,,,,,,,,,,,,,,,,,,,72,2.243,1,0,19,19,25,1,9,×,8,9 × 8,neutral,largerFirst,1.5,1.5,72,,,,,,,,
,,,,,,,,,,,,,,,770,2022-01-23_24h10.15.135,multiplicationStroop,2021.2.3,Win32,61.64848036,,,,,,,,,,,,,,,,,,,,,,,,,,,,,,,,,8,1.7802,1,0,20,20,17,1,4,×,2,4 × 2,neutral,largerFirst,1.5,1.5,8,,,,,,,,
,,,,,,,,,,,,,,,770,2022-01-23_24h10.15.135,multiplicationStroop,2021.2.3,Win32,61.64848036,,,,,,,,,,,,,,,,,,,,,,,,,,,,,,,,,10,1.7799,1,0,21,21,18,1,5,×,2,5 × 2,neutral,largerFirst,1.5,1.5,10,,,,,,,,
,,,,,,,,,,,,,,,770,2022-01-23_24h10.15.135,multiplicationStroop,2021.2.3,Win32,61.64848036,,,,,,,,,,,,,,,,,,,,,,,,,,,,,,,,,36,3.2695,1,0,22,22,13,1,4,×,9,4 × 9,neutral,smallerFirst,1.5,1.5,36,,,,,,,,
,,,,,,,,,,,,,,,770,2022-01-23_24h10.15.135,multiplicationStroop,2021.2.3,Win32,61.64848036,,,,,,,,,,,,,,,,,,,,,,,,,,,,,,,,,9,2.1005,1,0,23,23,29,1,3,×,3,3 × 3,neutral,tie,1.5,1.5,9,,,,,,,,
,,,,,,,,,,,,,,,770,2022-01-23_24h10.15.135,multiplicationStroop,2021.2.3,Win32,61.64848036,,,,,,,,,,,,,,,,,,,,,,,,,,,,,,,,,20,2.1144,1,0,24,24,6,1,4,×,5,4 × 5,neutral,smallerFirst,1.5,1.5,20,,,,,,,,
,,,,,,,,,,,,,,,770,2022-01-23_24h10.15.135,multiplicationStroop,2021.2.3,Win32,61.64848036,,,,,,,,,,,,,,,,,,,,,,,,,,,,,,,,,18,1.8466,1,0,25,25,14,1,6,×,3,6 × 3,neutral,largerFirst,1.5,1.5,18,,,,,,,,
,,,,,,,,,,,,,,,770,2022-01-23_24h10.15.135,multiplicationStroop,2021.2.3,Win32,61.64848036,,,,,,,,,,,,,,,,,,,,,,,,,,,,,,,,,27,2.6971,1,0,26,26,0,1,3,×,9,3 × 9,neutral,smallerFirst,1.5,1.5,27,,,,,,,,
,,,,,,,,,,,,,,,770,2022-01-23_24h10.15.135,multiplicationStroop,2021.2.3,Win32,61.64848036,,,,,,,,,,,,,,,,,,,,,,,,,,,,,,,,,14,2.2297,1,0,27,27,2,1,2,×,7,2 × 7,neutral,smallerFirst,1.5,1.5,14,,,,,,,,
,,,,,,,,,,,,,,,770,2022-01-23_24h10.15.135,multiplicationStroop,2021.2.3,Win32,61.64848036,,,,,,,,,,,,,,,,,,,,,,,,,,,,,,,,,18,1.738,1,0,28,28,4,1,2,×,9,2 × 9,neutral,smallerFirst,1.5,1.5,18,,,,,,,,
,,,,,,,,,,,,,,,770,2022-01-23_24h10.15.135,multiplicationStroop,2021.2.3,Win32,61.64848036,,,,,,,,,,,,,,,,,,,,,,,,,,,,,,,,,12,1.3359,1,0,29,29,7,1,3,×,4,3 × 4,neutral,smallerFirst,1.5,1.5,12,,,,,,,,
,,,,,,,,,,,,,,,770,2022-01-23_24h10.15.135,multiplicationStroop,2021.2.3,Win32,61.64848036,,,,,,,,,,,,,,,,,,,,,,,,,,,,,,,,,48,3.2764,1,0,30,30,1,1,6,×,8,6 × 8,neutral,smallerFirst,1.5,1.5,48,,,,,,,,
,,,,,,,,,,,,,,,770,2022-01-23_24h10.15.135,multiplicationStroop,2021.2.3,Win32,61.64848036,,,,,,,,,,,,,,,,,,,,,,,,,,,,,,,,,81,1.9042,1,0,31,31,35,1,9,×,9,9 × 9,neutral,tie,1.5,1.5,81,,,,,,,,
,,,,,,,,,,,,,,,770,2022-01-23_24h10.15.135,multiplicationStroop,2021.2.3,Win32,61.64848036,,,,,,,,,,,,,,,,,,,,,,,,,,,,,,,,,56,2.035,1,0,32,32,23,1,8,×,7,8 × 7,neutral,largerFirst,1.5,1.5,56,,,,,,,,
,,,,,,,,,,,,,,,770,2022-01-23_24h10.15.135,multiplicationStroop,2021.2.3,Win32,61.64848036,,,,,,,,,,,,,,,,,,,,,,,,,,,,,,,,,12,1.744,1,0,33,33,11,1,2,×,6,2 × 6,neutral,smallerFirst,1.5,1.5,12,,,,,,,,
,,,,,,,,,,,,,,,770,2022-01-23_24h10.15.135,multiplicationStroop,2021.2.3,Win32,61.64848036,,,,,,,,,,,,,,,,,,,,,,,,,,,,,,,,,4,1.4975,1,0,34,34,28,1,2,×,2,2 × 2,neutral,tie,1.5,1.5,4,,,,,,,,
,,,,,,,,,,,,,,,770,2022-01-23_24h10.15.135,multiplicationStroop,2021.2.3,Win32,61.64848036,,,,,,,,,,,,,,,,,,,,,,,,,,,,,,,,,15,1.7197,1,0,35,35,19,1,5,×,3,5 × 3,neutral,largerFirst,1.5,1.5,15,,,,,,,,
,,,,,,,,,,,,,,,770,2022-01-23_24h10.15.135,multiplicationStroop,2021.2.3,Win32,61.64848036,,,,,,,,,,,,,,,,,,,,,,,,,,,,,,,,,,,,,,,,,,,,,,,,,,0,0,0,0,1,stimulusFile/mult_blk1.xlsx,,
,,,,,,,,,,,,,,,770,2022-01-23_24h10.15.135,multiplicationStroop,2021.2.3,Win32,61.64848036,,,,,,,,,,,,,,,,,,,,,,,,,,,,,,,space,2.2413,49,1.9579,1,0,0,0,33,1,7,×,7,7 × 7,neutral,tie,1.5,1.5,49,,,,,,,,
,,,,,,,,,,,,,,,770,2022-01-23_24h10.15.135,multiplicationStroop,2021.2.3,Win32,61.64848036,,,,,,,,,,,,,,,,,,,,,,,,,,,,,,,,,12,1.4684,1,0,1,1,21,1,4,×,3,4 × 3,neutral,largerFirst,1.5,1.5,12,,,,,,,,
,,,,,,,,,,,,,,,770,2022-01-23_24h10.15.135,multiplicationStroop,2021.2.3,Win32,61.64848036,,,,,,,,,,,,,,,,,,,,,,,,,,,,,,,,,72,2.0278,1,0,2,2,11,1,8,×,9,8 × 9,neutral,smallerFirst,1.5,1.5,72,,,,,,,,
,,,,,,,,,,,,,,,770,2022-01-23_24h10.15.135,multiplicationStroop,2021.2.3,Win32,61.64848036,,,,,,,,,,,,,,,,,,,,,,,,,,,,,,,,,14,1.6131,1,0,3,3,16,1,7,×,2,7 × 2,neutral,largerFirst,1.5,1.5,14,,,,,,,,
,,,,,,,,,,,,,,,770,2022-01-23_24h10.15.135,multiplicationStroop,2021.2.3,Win32,61.64848036,,,,,,,,,,,,,,,,,,,,,,,,,,,,,,,,,24,1.5971,1,0,4,4,2,1,4,×,6,4 × 6,neutral,smallerFirst,1.5,1.5,24,,,,,,,,
,,,,,,,,,,,,,,,770,2022-01-23_24h10.15.135,multiplicationStroop,2021.2.3,Win32,61.64848036,,,,,,,,,,,,,,,,,,,,,,,,,,,,,,,,,24,1.5302,1,0,5,5,22,1,8,×,3,8 × 3,neutral,largerFirst,1.5,1.5,24,,,,,,,,
,,,,,,,,,,,,,,,770,2022-01-23_24h10.15.135,multiplicationStroop,2021.2.3,Win32,61.64848036,,,,,,,,,,,,,,,,,,,,,,,,,,,,,,,,,81,1.8805,1,0,6,6,35,1,9,×,9,9 × 9,neutral,tie,1.5,1.5,81,,,,,,,,
,,,,,,,,,,,,,,,770,2022-01-23_24h10.15.135,multiplicationStroop,2021.2.3,Win32,61.64848036,,,,,,,,,,,,,,,,,,,,,,,,,,,,,,,,,54,1.7191,1,0,7,7,7,1,6,×,9,6 × 9,neutral,smallerFirst,1.5,1.5,54,,,,,,,,
,,,,,,,,,,,,,,,770,2022-01-23_24h10.15.135,multiplicationStroop,2021.2.3,Win32,61.64848036,,,,,,,,,,,,,,,,,,,,,,,,,,,,,,,,,35,1.6933,1,0,8,8,1,1,5,×,7,5 × 7,neutral,smallerFirst,1.5,1.5,35,,,,,,,,
,,,,,,,,,,,,,,,770,2022-01-23_24h10.15.135,multiplicationStroop,2021.2.3,Win32,61.64848036,,,,,,,,,,,,,,,,,,,,,,,,,,,,,,,,,12,1.4139,1,0,9,9,25,1,6,×,2,6 × 2,neutral,largerFirst,1.5,1.5,12,,,,,,,,
,,,,,,,,,,,,,,,770,2022-01-23_24h10.15.135,multiplicationStroop,2021.2.3,Win32,61.64848036,,,,,,,,,,,,,,,,,,,,,,,,,,,,,,,,,42,4.8622,1,0,10,10,6,1,6,×,7,6 × 7,neutral,smallerFirst,1.5,1.5,42,,,,,,,,
,,,,,,,,,,,,,,,770,2022-01-23_24h10.15.135,multiplicationStroop,2021.2.3,Win32,61.64848036,,,,,,,,,,,,,,,,,,,,,,,,,,,,,,,,,32,1.8072,1,0,11,11,23,1,8,×,4,8 × 4,neutral,largerFirst,1.5,1.5,32,,,,,,,,
,,,,,,,,,,,,,,,770,2022-01-23_24h10.15.135,multiplicationStroop,2021.2.3,Win32,61.64848036,,,,,,,,,,,,,,,,,,,,,,,,,,,,,,,,,16,2.3949,1,0,12,12,13,1,2,×,8,2 × 8,neutral,smallerFirst,1.5,1.5,16,,,,,,,,
,,,,,,,,,,,,,,,770,2022-01-23_24h10.15.135,multiplicationStroop,2021.2.3,Win32,61.64848036,,,,,,,,,,,,,,,,,,,,,,,,,,,,,,,,,56,2.5028,1,0,13,13,9,1,7,×,8,7 × 8,neutral,smallerFirst,1.5,1.5,56,,,,,,,,
,,,,,,,,,,,,,,,770,2022-01-23_24h10.15.135,multiplicationStroop,2021.2.3,Win32,61.64848036,,,,,,,,,,,,,,,,,,,,,,,,,,,,,,,,,21,1.7738,1,0,14,14,8,1,3,×,7,3 × 7,neutral,smallerFirst,1.5,1.5,21,,,,,,,,
,,,,,,,,,,,,,,,770,2022-01-23_24h10.15.135,multiplicationStroop,2021.2.3,Win32,61.64848036,,,,,,,,,,,,,,,,,,,,,,,,,,,,,,,,,20,2.1768,1,0,15,15,20,1,5,×,4,5 × 4,neutral,largerFirst,1.5,1.5,20,,,,,,,,
,,,,,,,,,,,,,,,770,2022-01-23_24h10.15.135,multiplicationStroop,2021.2.3,Win32,61.64848036,,,,,,,,,,,,,,,,,,,,,,,,,,,,,,,,,18,2.0221,1,0,16,16,18,1,9,×,2,9 × 2,neutral,largerFirst,1.5,1.5,18,,,,,,,,
,,,,,,,,,,,,,,,770,2022-01-23_24h10.15.135,multiplicationStroop,2021.2.3,Win32,61.64848036,,,,,,,,,,,,,,,,,,,,,,,,,,,,,,,,,27,2.7289,1,0,17,17,14,1,9,×,3,9 × 3,neutral,largerFirst,1.5,1.5,27,,,,,,,,
,,,,,,,,,,,,,,,770,2022-01-23_24h10.15.135,multiplicationStroop,2021.2.3,Win32,61.64848036,,,,,,,,,,,,,,,,,,,,,,,,,,,,,,,,,25,1.6531,1,0,18,18,31,1,5,×,5,5 × 5,neutral,tie,1.5,1.5,25,,,,,,,,
,,,,,,,,,,,,,,,770,2022-01-23_24h10.15.135,multiplicationStroop,2021.2.3,Win32,61.64848036,,,,,,,,,,,,,,,,,,,,,,,,,,,,,,,,,40,1.7434,1,0,19,19,24,1,8,×,5,8 × 5,neutral,largerFirst,1.5,1.5,40,,,,,,,,
,,,,,,,,,,,,,,,770,2022-01-23_24h10.15.135,multiplicationStroop,2021.2.3,Win32,61.64848036,,,,,,,,,,,,,,,,,,,,,,,,,,,,,,,,,45,1.5807,1,0,20,20,10,1,5,×,9,5 × 9,neutral,smallerFirst,1.5,1.5,45,,,,,,,,
,,,,,,,,,,,,,,,770,2022-01-23_24h10.15.135,multiplicationStroop,2021.2.3,Win32,61.64848036,,,,,,,,,,,,,,,,,,,,,,,,,,,,,,,,,15,1.6303,1,0,21,21,5,1,3,×,5,3 × 5,neutral,smallerFirst,1.5,1.5,15,,,,,,,,
,,,,,,,,,,,,,,,770,2022-01-23_24h10.15.135,multiplicationStroop,2021.2.3,Win32,61.64848036,,,,,,,,,,,,,,,,,,,,,,,,,,,,,,,,,6,1.7353,1,0,22,22,26,1,3,×,2,3 × 2,neutral,largerFirst,1.5,1.5,6,,,,,,,,
,,,,,,,,,,,,,,,770,2022-01-23_24h10.15.135,multiplicationStroop,2021.2.3,Win32,61.64848036,,,,,,,,,,,,,,,,,,,,,,,,,,,,,,,,,36,1.9266,1,0,23,23,32,1,6,×,6,6 × 6,neutral,tie,1.5,1.5,36,,,,,,,,
,,,,,,,,,,,,,,,770,2022-01-23_24h10.15.135,multiplicationStroop,2021.2.3,Win32,61.64848036,,,,,,,,,,,,,,,,,,,,,,,,,,,,,,,,,8,1.652,1,0,24,24,3,1,2,×,4,2 × 4,neutral,smallerFirst,1.5,1.5,8,,,,,,,,
,,,,,,,,,,,,,,,770,2022-01-23_24h10.15.135,multiplicationStroop,2021.2.3,Win32,61.64848036,,,,,,,,,,,,,,,,,,,,,,,,,,,,,,,,,28,2.6777,1,0,25,25,17,1,7,×,4,7 × 4,neutral,largerFirst,1.5,1.5,28,,,,,,,,
,,,,,,,,,,,,,,,770,2022-01-23_24h10.15.135,multiplicationStroop,2021.2.3,Win32,61.64848036,,,,,,,,,,,,,,,,,,,,,,,,,,,,,,,,,18,1.7292,1,0,26,26,0,1,3,×,6,3 × 6,neutral,smallerFirst,1.5,1.5,18,,,,,,,,
,,,,,,,,,,,,,,,770,2022-01-23_24h10.15.135,multiplicationStroop,2021.2.3,Win32,61.64848036,,,,,,,,,,,,,,,,,,,,,,,,,,,,,,,,,10,1.6138,1,0,27,27,4,1,2,×,5,2 × 5,neutral,smallerFirst,1.5,1.5,10,,,,,,,,
,,,,,,,,,,,,,,,770,2022-01-23_24h10.15.135,multiplicationStroop,2021.2.3,Win32,61.64848036,,,,,,,,,,,,,,,,,,,,,,,,,,,,,,,,,48,2.3799,1,0,28,28,15,1,8,×,6,8 × 6,neutral,largerFirst,1.5,1.5,48,,,,,,,,
,,,,,,,,,,,,,,,770,2022-01-23_24h10.15.135,multiplicationStroop,2021.2.3,Win32,61.64848036,,,,,,,,,,,,,,,,,,,,,,,,,,,,,,,,,9,1.6967,1,0,29,29,29,1,3,×,3,3 × 3,neutral,tie,1.5,1.5,9,,,,,,,,
,,,,,,,,,,,,,,,770,2022-01-23_24h10.15.135,multiplicationStroop,2021.2.3,Win32,61.64848036,,,,,,,,,,,,,,,,,,,,,,,,,,,,,,,,,36,3.1627,1,0,30,30,27,1,9,×,4,9 × 4,neutral,largerFirst,1.5,1.5,36,,,,,,,,
,,,,,,,,,,,,,,,770,2022-01-23_24h10.15.135,multiplicationStroop,2021.2.3,Win32,61.64848036,,,,,,,,,,,,,,,,,,,,,,,,,,,,,,,,,64,2.1191,1,0,31,31,34,1,8,×,8,8 × 8,neutral,tie,1.5,1.5,64,,,,,,,,
,,,,,,,,,,,,,,,770,2022-01-23_24h10.15.135,multiplicationStroop,2021.2.3,Win32,61.64848036,,,,,,,,,,,,,,,,,,,,,,,,,,,,,,,,,16,1.8566,1,0,32,32,30,1,4,×,4,4 × 4,neutral,tie,1.5,1.5,16,,,,,,,,
,,,,,,,,,,,,,,,770,2022-01-23_24h10.15.135,multiplicationStroop,2021.2.3,Win32,61.64848036,,,,,,,,,,,,,,,,,,,,,,,,,,,,,,,,,4,1.4995,1,0,33,33,28,1,2,×,2,2 × 2,neutral,tie,1.5,1.5,4,,,,,,,,
,,,,,,,,,,,,,,,770,2022-01-23_24h10.15.135,multiplicationStroop,2021.2.3,Win32,61.64848036,,,,,,,,,,,,,,,,,,,,,,,,,,,,,,,,,63,4.5485,1,0,34,34,12,1,7,×,9,7 × 9,neutral,smallerFirst,1.5,1.5,63,,,,,,,,
,,,,,,,,,,,,,,,770,2022-01-23_24h10.15.135,multiplicationStroop,2021.2.3,Win32,61.64848036,,,,,,,,,,,,,,,,,,,,,,,,,,,,,,,,,30,3.1342,1,0,35,35,19,1,6,×,5,6 × 5,neutral,largerFirst,1.5,1.5,30,,,,,,,,
,,,,,,,,,,,,,,,770,2022-01-23_24h10.15.135,multiplicationStroop,2021.2.3,Win32,61.64848036,,,,,,,,,,,,,,,,,,,,,,,,,,,,,,,,,,,,,,,,,,,,,,,,,,0,1,1,1,1,stimulusFile/mult_blk2.xlsx,,
,,,,,,,,,,,,,,,770,2022-01-23_24h10.15.135,multiplicationStroop,2021.2.3,Win32,61.64848036,,,,,,,,,,,,,,,,,,,,,,,,,,,,,,,space,6.8448,18,2.7726,1,0,0,0,22,1,9,×,2,9 × 2,congruent,largerFirst,2,1,18,,,,,,,,
,,,,,,,,,,,,,,,770,2022-01-23_24h10.15.135,multiplicationStroop,2021.2.3,Win32,61.64848036,,,,,,,,,,,,,,,,,,,,,,,,,,,,,,,,,27,2.1712,1,0,1,1,26,1,9,×,3,9 × 3,congruent,largerFirst,2,1,27,,,,,,,,
,,,,,,,,,,,,,,,770,2022-01-23_24h10.15.135,multiplicationStroop,2021.2.3,Win32,61.64848036,,,,,,,,,,,,,,,,,,,,,,,,,,,,,,,,,24,4.6353,1,0,2,2,25,1,6,×,4,6 × 4,congruent,largerFirst,2,1,24,,,,,,,,
,,,,,,,,,,,,,,,770,2022-01-23_24h10.15.135,multiplicationStroop,2021.2.3,Win32,61.64848036,,,,,,,,,,,,,,,,,,,,,,,,,,,,,,,,,49,1.9238,1,0,3,3,33,1,7,×,7,7 × 7,neutral,tie,2,1,49,,,,,,,,
,,,,,,,,,,,,,,,770,2022-01-23_24h10.15.135,multiplicationStroop,2021.2.3,Win32,61.64848036,,,,,,,,,,,,,,,,,,,,,,,,,,,,,,,,,35,1.7765,1,0,4,4,1,1,5,×,7,5 × 7,congruent,smallerFirst,1,2,35,,,,,,,,
,,,,,,,,,,,,,,,770,2022-01-23_24h10.15.135,multiplicationStroop,2021.2.3,Win32,61.64848036,,,,,,,,,,,,,,,,,,,,,,,,,,,,,,,,,36,2.9471,1,0,5,5,32,1,6,×,6,6 × 6,neutral,tie,2,1,36,,,,,,,,
,,,,,,,,,,,,,,,770,2022-01-23_24h10.15.135,multiplicationStroop,2021.2.3,Win32,61.64848036,,,,,,,,,,,,,,,,,,,,,,,,,,,,,,,,,63,2.5936,1,0,6,6,21,1,9,×,7,9 × 7,congruent,largerFirst,2,1,63,,,,,,,,
,,,,,,,,,,,,,,,770,2022-01-23_24h10.15.135,multiplicationStroop,2021.2.3,Win32,61.64848036,,,,,,,,,,,,,,,,,,,,,,,,,,,,,,,,,42,2.0767,1,0,7,7,3,1,6,×,7,6 × 7,congruent,smallerFirst,1,2,42,,,,,,,,
,,,,,,,,,,,,,,,770,2022-01-23_24h10.15.135,multiplicationStroop,2021.2.3,Win32,61.64848036,,,,,,,,,,,,,,,,,,,,,,,,,,,,,,,,,45,6.7179,1,0,8,8,23,1,9,×,5,9 × 5,congruent,largerFirst,2,1,45,,,,,,,,
,,,,,,,,,,,,,,,770,2022-01-23_24h10.15.135,multiplicationStroop,2021.2.3,Win32,61.64848036,,,,,,,,,,,,,,,,,,,,,,,,,,,,,,,,,10,1.6519,1,0,9,9,24,1,5,×,2,5 × 2,congruent,largerFirst,2,1,10,,,,,,,,
,,,,,,,,,,,,,,,770,2022-01-23_24h10.15.135,multiplicationStroop,2021.2.3,Win32,61.64848036,,,,,,,,,,,,,,,,,,,,,,,,,,,,,,,,,30,2.3298,1,0,10,10,15,1,6,×,5,6 × 5,congruent,largerFirst,2,1,30,,,,,,,,
,,,,,,,,,,,,,,,770,2022-01-23_24h10.15.135,multiplicationStroop,2021.2.3,Win32,61.64848036,,,,,,,,,,,,,,,,,,,,,,,,,,,,,,,,,20,1.7022,1,0,11,11,7,1,4,×,5,4 × 5,congruent,smallerFirst,1,2,20,,,,,,,,
,,,,,,,,,,,,,,,770,2022-01-23_24h10.15.135,multiplicationStroop,2021.2.3,Win32,61.64848036,,,,,,,,,,,,,,,,,,,,,,,,,,,,,,,,,16,1.6329,1,0,12,12,30,1,4,×,4,4 × 4,neutral,tie,2,1,16,,,,,,,,
,,,,,,,,,,,,,,,770,2022-01-23_24h10.15.135,multiplicationStroop,2021.2.3,Win32,61.64848036,,,,,,,,,,,,,,,,,,,,,,,,,,,,,,,,,56,1.6109,1,0,13,13,8,1,7,×,8,7 × 8,congruent,smallerFirst,1,2,56,,,,,,,,
,,,,,,,,,,,,,,,770,2022-01-23_24h10.15.135,multiplicationStroop,2021.2.3,Win32,61.64848036,,,,,,,,,,,,,,,,,,,,,,,,,,,,,,,,,12,1.4918,1,0,14,14,2,1,3,×,4,3 × 4,congruent,smallerFirst,1,2,12,,,,,,,,
,,,,,,,,,,,,,,,770,2022-01-23_24h10.15.135,multiplicationStroop,2021.2.3,Win32,61.64848036,,,,,,,,,,,,,,,,,,,,,,,,,,,,,,,,,64,4.4198,1,0,15,15,34,1,8,×,8,8 × 8,neutral,tie,2,1,64,,,,,,,,
,,,,,,,,,,,,,,,770,2022-01-23_24h10.15.135,multiplicationStroop,2021.2.3,Win32,61.64848036,,,,,,,,,,,,,,,,,,,,,,,,,,,,,,,,,25,1.5546,1,0,16,16,31,1,5,×,5,5 × 5,neutral,tie,2,1,25,,,,,,,,
,,,,,,,,,,,,,,,770,2022-01-23_24h10.15.135,multiplicationStroop,2021.2.3,Win32,61.64848036,,,,,,,,,,,,,,,,,,,,,,,,,,,,,,,,,18,1.7635,1,0,17,17,11,1,3,×,6,3 × 6,congruent,smallerFirst,1,2,18,,,,,,,,
,,,,,,,,,,,,,,,770,2022-01-23_24h10.15.135,multiplicationStroop,2021.2.3,Win32,61.64848036,,,,,,,,,,,,,,,,,,,,,,,,,,,,,,,,,48,2.8973,1,0,18,18,18,1,8,×,6,8 × 6,congruent,largerFirst,2,1,48,,,,,,,,
,,,,,,,,,,,,,,,770,2022-01-23_24h10.15.135,multiplicationStroop,2021.2.3,Win32,61.64848036,,,,,,,,,,,,,,,,,,,,,,,,,,,,,,,,,15,1.6424,1,0,19,19,4,1,3,×,5,3 × 5,congruent,smallerFirst,1,2,15,,,,,,,,
,,,,,,,,,,,,,,,770,2022-01-23_24h10.15.135,multiplicationStroop,2021.2.3,Win32,61.64848036,,,,,,,,,,,,,,,,,,,,,,,,,,,,,,,,,32,2.2157,1,0,20,20,20,1,8,×,4,8 × 4,congruent,largerFirst,2,1,32,,,,,,,,
,,,,,,,,,,,,,,,770,2022-01-23_24h10.15.135,multiplicationStroop,2021.2.3,Win32,61.64848036,,,,,,,,,,,,,,,,,,,,,,,,,,,,,,,,,4,1.2116,1,0,21,21,28,1,2,×,2,2 × 2,neutral,tie,2,1,4,,,,,,,,
,,,,,,,,,,,,,,,770,2022-01-23_24h10.15.135,multiplicationStroop,2021.2.3,Win32,61.64848036,,,,,,,,,,,,,,,,,,,,,,,,,,,,,,,,,9,1.4469,1,0,22,22,29,1,3,×,3,3 × 3,neutral,tie,2,1,9,,,,,,,,
,,,,,,,,,,,,,,,770,2022-01-23_24h10.15.135,multiplicationStroop,2021.2.3,Win32,61.64848036,,,,,,,,,,,,,,,,,,,,,,,,,,,,,,,,,40,1.9863,1,0,23,23,6,1,5,×,8,5 × 8,congruent,smallerFirst,1,2,40,,,,,,,,
,,,,,,,,,,,,,,,770,2022-01-23_24h10.15.135,multiplicationStroop,2021.2.3,Win32,61.64848036,,,,,,,,,,,,,,,,,,,,,,,,,,,,,,,,,36,2.3927,1,0,24,24,0,1,4,×,9,4 × 9,congruent,smallerFirst,1,2,36,,,,,,,,
,,,,,,,,,,,,,,,770,2022-01-23_24h10.15.135,multiplicationStroop,2021.2.3,Win32,61.64848036,,,,,,,,,,,,,,,,,,,,,,,,,,,,,,,,,72,2.0464,1,0,25,25,17,1,9,×,8,9 × 8,congruent,largerFirst,2,1,72,,,,,,,,
,,,,,,,,,,,,,,,770,2022-01-23_24h10.15.135,multiplicationStroop,2021.2.3,Win32,61.64848036,,,,,,,,,,,,,,,,,,,,,,,,,,,,,,,,,16,1.8301,1,0,26,26,5,1,2,×,8,2 × 8,congruent,smallerFirst,1,2,16,,,,,,,,
,,,,,,,,,,,,,,,770,2022-01-23_24h10.15.135,multiplicationStroop,2021.2.3,Win32,61.64848036,,,,,,,,,,,,,,,,,,,,,,,,,,,,,,,,,28,1.8528,1,0,27,27,27,1,7,×,4,7 × 4,congruent,largerFirst,2,1,28,,,,,,,,
,,,,,,,,,,,,,,,770,2022-01-23_24h10.15.135,multiplicationStroop,2021.2.3,Win32,61.64848036,,,,,,,,,,,,,,,,,,,,,,,,,,,,,,,,,14,1.51,1,0,28,28,14,1,7,×,2,7 × 2,congruent,largerFirst,2,1,14,,,,,,,,
,,,,,,,,,,,,,,,770,2022-01-23_24h10.15.135,multiplicationStroop,2021.2.3,Win32,61.64848036,,,,,,,,,,,,,,,,,,,,,,,,,,,,,,,,,24,3.0637,1,0,29,29,10,1,3,×,8,3 × 8,congruent,smallerFirst,1,2,24,,,,,,,,
,,,,,,,,,,,,,,,770,2022-01-23_24h10.15.135,multiplicationStroop,2021.2.3,Win32,61.64848036,,,,,,,,,,,,,,,,,,,,,,,,,,,,,,,,,12,1.3194,1,0,30,30,19,1,6,×,2,6 × 2,congruent,largerFirst,2,1,12,,,,,,,,
,,,,,,,,,,,,,,,770,2022-01-23_24h10.15.135,multiplicationStroop,2021.2.3,Win32,61.64848036,,,,,,,,,,,,,,,,,,,,,,,,,,,,,,,,,21,1.2665,1,0,31,31,16,1,7,×,3,7 × 3,congruent,largerFirst,2,1,21,,,,,,,,
,,,,,,,,,,,,,,,770,2022-01-23_24h10.15.135,multiplicationStroop,2021.2.3,Win32,61.64848036,,,,,,,,,,,,,,,,,,,,,,,,,,,,,,,,,6,1.4816,1,0,32,32,13,1,2,×,3,2 × 3,congruent,smallerFirst,1,2,6,,,,,,,,
,,,,,,,,,,,,,,,770,2022-01-23_24h10.15.135,multiplicationStroop,2021.2.3,Win32,61.64848036,,,,,,,,,,,,,,,,,,,,,,,,,,,,,,,,,54,2.0436,1,0,33,33,12,1,6,×,9,6 × 9,congruent,smallerFirst,1,2,54,,,,,,,,
,,,,,,,,,,,,,,,770,2022-01-23_24h10.15.135,multiplicationStroop,2021.2.3,Win32,61.64848036,,,,,,,,,,,,,,,,,,,,,,,,,,,,,,,,,81,2.83,1,0,34,34,35,1,9,×,9,9 × 9,neutral,tie,2,1,81,,,,,,,,
,,,,,,,,,,,,,,,770,2022-01-23_24h10.15.135,multiplicationStroop,2021.2.3,Win32,61.64848036,,,,,,,,,,,,,,,,,,,,,,,,,,,,,,,,,8,1.6059,1,0,35,35,9,1,2,×,4,2 × 4,congruent,smallerFirst,1,2,8,,,,,,,,
,,,,,,,,,,,,,,,770,2022-01-23_24h10.15.135,multiplicationStroop,2021.2.3,Win32,61.64848036,,,,,,,,,,,,,,,,,,,,,,,,,,,,,,,,,,,,,,,,,,,,,,,,,,0,2,2,2,1,stimulusFile/mult_blk3_congruent.xlsx,,
,,,,,,,,,,,,,,,770,2022-01-23_24h10.15.135,multiplicationStroop,2021.2.3,Win32,61.64848036,,,,,,,,,,,,,,,,,,,,,,,,,,,,,,,space,1.1399,27,2.1461,1,0,0,0,12,1,3,×,9,3 × 9,congruent,smallerFirst,1,2,27,,,,,,,,
,,,,,,,,,,,,,,,770,2022-01-23_24h10.15.135,multiplicationStroop,2021.2.3,Win32,61.64848036,,,,,,,,,,,,,,,,,,,,,,,,,,,,,,,,,21,1.6104,1,0,1,1,2,1,3,×,7,3 × 7,congruent,smallerFirst,1,2,21,,,,,,,,
,,,,,,,,,,,,,,,770,2022-01-23_24h10.15.135,multiplicationStroop,2021.2.3,Win32,61.64848036,,,,,,,,,,,,,,,,,,,,,,,,,,,,,,,,,15,1.58,1,0,2,2,18,1,5,×,3,5 × 3,congruent,largerFirst,2,1,15,,,,,,,,
,,,,,,,,,,,,,,,770,2022-01-23_24h10.15.135,multiplicationStroop,2021.2.3,Win32,61.64848036,,,,,,,,,,,,,,,,,,,,,,,,,,,,,,,,,63,2.7303,1,0,3,3,7,1,7,×,9,7 × 9,congruent,smallerFirst,1,2,63,,,,,,,,
,,,,,,,,,,,,,,,770,2022-01-23_24h10.15.135,multiplicationStroop,2021.2.3,Win32,61.64848036,,,,,,,,,,,,,,,,,,,,,,,,,,,,,,,,,32,1.5463,1,0,4,4,6,1,4,×,8,4 × 8,congruent,smallerFirst,1,2,32,,,,,,,,
,,,,,,,,,,,,,,,770,2022-01-23_24h10.15.135,multiplicationStroop,2021.2.3,Win32,61.64848036,,,,,,,,,,,,,,,,,,,,,,,,,,,,,,,,,45,1.72,1,0,5,5,9,1,5,×,9,5 × 9,congruent,smallerFirst,1,2,45,,,,,,,,
,,,,,,,,,,,,,,,770,2022-01-23_24h10.15.135,multiplicationStroop,2021.2.3,Win32,61.64848036,,,,,,,,,,,,,,,,,,,,,,,,,,,,,,,,,42,1.7332,1,0,6,6,17,1,7,×,6,7 × 6,congruent,largerFirst,2,1,42,,,,,,,,
,,,,,,,,,,,,,,,770,2022-01-23_24h10.15.135,multiplicationStroop,2021.2.3,Win32,61.64848036,,,,,,,,,,,,,,,,,,,,,,,,,,,,,,,,,35,1.6261,1,0,7,7,15,1,7,×,5,7 × 5,congruent,largerFirst,2,1,35,,,,,,,,
,,,,,,,,,,,,,,,770,2022-01-23_24h10.15.135,multiplicationStroop,2021.2.3,Win32,61.64848036,,,,,,,,,,,,,,,,,,,,,,,,,,,,,,,,,56,1.7688,1,0,8,8,22,1,8,×,7,8 × 7,congruent,largerFirst,2,1,56,,,,,,,,
,,,,,,,,,,,,,,,770,2022-01-23_24h10.15.135,multiplicationStroop,2021.2.3,Win32,61.64848036,,,,,,,,,,,,,,,,,,,,,,,,,,,,,,,,,54,2.7602,1,0,9,9,26,1,9,×,6,9 × 6,congruent,largerFirst,2,1,54,,,,,,,,
,,,,,,,,,,,,,,,770,2022-01-23_24h10.15.135,multiplicationStroop,2021.2.3,Win32,61.64848036,,,,,,,,,,,,,,,,,,,,,,,,,,,,,,,,,25,1.86,1,0,10,10,31,1,5,×,5,5 × 5,neutral,tie,1,2,25,,,,,,,,
,,,,,,,,,,,,,,,770,2022-01-23_24h10.15.135,multiplicationStroop,2021.2.3,Win32,61.64848036,,,,,,,,,,,,,,,,,,,,,,,,,,,,,,,,,20,1.7102,1,0,11,11,21,1,5,×,4,5 × 4,congruent,largerFirst,2,1,20,,,,,,,,
,,,,,,,,,,,,,,,770,2022-01-23_24h10.15.135,multiplicationStroop,2021.2.3,Win32,61.64848036,,,,,,,,,,,,,,,,,,,,,,,,,,,,,,,,,24,1.7633,1,0,12,12,11,1,4,×,6,4 × 6,congruent,smallerFirst,1,2,24,,,,,,,,
,,,,,,,,,,,,,,,770,2022-01-23_24h10.15.135,multiplicationStroop,2021.2.3,Win32,61.64848036,,,,,,,,,,,,,,,,,,,,,,,,,,,,,,,,,28,2.1354,1,0,13,13,13,1,4,×,7,4 × 7,congruent,smallerFirst,1,2,28,,,,,,,,
,,,,,,,,,,,,,,,770,2022-01-23_24h10.15.135,multiplicationStroop,2021.2.3,Win32,61.64848036,,,,,,,,,,,,,,,,,,,,,,,,,,,,,,,,,16,1.6523,1,0,14,14,19,1,8,×,2,8 × 2,congruent,largerFirst,2,1,16,,,,,,,,
,,,,,,,,,,,,,,,770,2022-01-23_24h10.15.135,multiplicationStroop,2021.2.3,Win32,61.64848036,,,,,,,,,,,,,,,,,,,,,,,,,,,,,,,,,14,3.4186,1,0,15,15,0,1,2,×,7,2 × 7,congruent,smallerFirst,1,2,14,,,,,,,,
,,,,,,,,,,,,,,,770,2022-01-23_24h10.15.135,multiplicationStroop,2021.2.3,Win32,61.64848036,,,,,,,,,,,,,,,,,,,,,,,,,,,,,,,,,10,1.5172,1,0,16,16,10,1,2,×,5,2 × 5,congruent,smallerFirst,1,2,10,,,,,,,,
,,,,,,,,,,,,,,,770,2022-01-23_24h10.15.135,multiplicationStroop,2021.2.3,Win32,61.64848036,,,,,,,,,,,,,,,,,,,,,,,,,,,,,,,,,8,1.7135,1,0,17,17,23,1,4,×,2,4 × 2,congruent,largerFirst,2,1,8,,,,,,,,
,,,,,,,,,,,,,,,770,2022-01-23_24h10.15.135,multiplicationStroop,2021.2.3,Win32,61.64848036,,,,,,,,,,,,,,,,,,,,,,,,,,,,,,,,,48,3.8854,1,0,18,18,4,1,6,×,8,6 × 8,congruent,smallerFirst,1,2,48,,,,,,,,
,,,,,,,,,,,,,,,770,2022-01-23_24h10.15.135,multiplicationStroop,2021.2.3,Win32,61.64848036,,,,,,,,,,,,,,,,,,,,,,,,,,,,,,,,,36,1.7352,1,0,19,19,32,1,6,×,6,6 × 6,neutral,tie,1,2,36,,,,,,,,
,,,,,,,,,,,,,,,770,2022-01-23_24h10.15.135,multiplicationStroop,2021.2.3,Win32,61.64848036,,,,,,,,,,,,,,,,,,,,,,,,,,,,,,,,,12,1.3189,1,0,20,20,5,1,2,×,6,2 × 6,congruent,smallerFirst,1,2,12,,,,,,,,
,,,,,,,,,,,,,,,770,2022-01-23_24h10.15.135,multiplicationStroop,2021.2.3,Win32,61.64848036,,,,,,,,,,,,,,,,,,,,,,,,,,,,,,,,,49,2.5773,1,0,21,21,33,1,7,×,7,7 × 7,neutral,tie,1,2,49,,,,,,,,
,,,,,,,,,,,,,,,770,2022-01-23_24h10.15.135,multiplicationStroop,2021.2.3,Win32,61.64848036,,,,,,,,,,,,,,,,,,,,,,,,,,,,,,,,,24,1.9018,1,0,22,22,24,1,8,×,3,8 × 3,congruent,largerFirst,2,1,24,,,,,,,,
,,,,,,,,,,,,,,,770,2022-01-23_24h10.15.135,multiplicationStroop,2021.2.3,Win32,61.64848036,,,,,,,,,,,,,,,,,,,,,,,,,,,,,,,,,16,1.8108,1,0,23,23,30,1,4,×,4,4 × 4,neutral,tie,1,2,16,,,,,,,,
,,,,,,,,,,,,,,,770,2022-01-23_24h10.15.135,multiplicationStroop,2021.2.3,Win32,61.64848036,,,,,,,,,,,,,,,,,,,,,,,,,,,,,,,,,9,1.719,1,0,24,24,29,1,3,×,3,3 × 3,neutral,tie,1,2,9,,,,,,,,
,,,,,,,,,,,,,,,770,2022-01-23_24h10.15.135,multiplicationStroop,2021.2.3,Win32,61.64848036,,,,,,,,,,,,,,,,,,,,,,,,,,,,,,,,,81,2.2433,1,0,25,25,35,1,9,×,9,9 × 9,neutral,tie,1,2,81,,,,,,,,
,,,,,,,,,,,,,,,770,2022-01-23_24h10.15.135,multiplicationStroop,2021.2.3,Win32,61.64848036,,,,,,,,,,,,,,,,,,,,,,,,,,,,,,,,,4,1.4138,1,0,26,26,28,1,2,×,2,2 × 2,neutral,tie,1,2,4,,,,,,,,
,,,,,,,,,,,,,,,770,2022-01-23_24h10.15.135,multiplicationStroop,2021.2.3,Win32,61.64848036,,,,,,,,,,,,,,,,,,,,,,,,,,,,,,,,,12,1.4027,1,0,27,27,16,1,4,×,3,4 × 3,congruent,largerFirst,2,1,12,,,,,,,,
,,,,,,,,,,,,,,,770,2022-01-23_24h10.15.135,multiplicationStroop,2021.2.3,Win32,61.64848036,,,,,,,,,,,,,,,,,,,,,,,,,,,,,,,,,18,2.1098,1,0,28,28,25,1,6,×,3,6 × 3,congruent,largerFirst,2,1,18,,,,,,,,
,,,,,,,,,,,,,,,770,2022-01-23_24h10.15.135,multiplicationStroop,2021.2.3,Win32,61.64848036,,,,,,,,,,,,,,,,,,,,,,,,,,,,,,,,,40,1.6972,1,0,29,29,20,1,8,×,5,8 × 5,congruent,largerFirst,2,1,40,,,,,,,,
,,,,,,,,,,,,,,,770,2022-01-23_24h10.15.135,multiplicationStroop,2021.2.3,Win32,61.64848036,,,,,,,,,,,,,,,,,,,,,,,,,,,,,,,,,64,3.8678,1,0,30,30,34,1,8,×,8,8 × 8,neutral,tie,1,2,64,,,,,,,,
,,,,,,,,,,,,,,,770,2022-01-23_24h10.15.135,multiplicationStroop,2021.2.3,Win32,61.64848036,,,,,,,,,,,,,,,,,,,,,,,,,,,,,,,,,72,3.327,1,0,31,31,3,1,8,×,9,8 × 9,congruent,smallerFirst,1,2,72,,,,,,,,
,,,,,,,,,,,,,,,770,2022-01-23_24h10.15.135,multiplicationStroop,2021.2.3,Win32,61.64848036,,,,,,,,,,,,,,,,,,,,,,,,,,,,,,,,,6,1.4431,1,0,32,32,27,1,3,×,2,3 × 2,congruent,largerFirst,2,1,6,,,,,,,,
,,,,,,,,,,,,,,,770,2022-01-23_24h10.15.135,multiplicationStroop,2021.2.3,Win32,61.64848036,,,,,,,,,,,,,,,,,,,,,,,,,,,,,,,,,30,2.3934,1,0,33,33,1,1,5,×,6,5 × 6,congruent,smallerFirst,1,2,30,,,,,,,,
,,,,,,,,,,,,,,,770,2022-01-23_24h10.15.135,multiplicationStroop,2021.2.3,Win32,61.64848036,,,,,,,,,,,,,,,,,,,,,,,,,,,,,,,,,36,2.7962,1,0,34,34,14,1,9,×,4,9 × 4,congruent,largerFirst,2,1,36,,,,,,,,
,,,,,,,,,,,,,,,770,2022-01-23_24h10.15.135,multiplicationStroop,2021.2.3,Win32,61.64848036,,,,,,,,,,,,,,,,,,,,,,,,,,,,,,,,,18,1.5125,1,0,35,35,8,1,2,×,9,2 × 9,congruent,smallerFirst,1,2,18,,,,,,,,
,,,,,,,,,,,,,,,770,2022-01-23_24h10.15.135,multiplicationStroop,2021.2.3,Win32,61.64848036,,,,,,,,,,,,,,,,,,,,,,,,,,,,,,,,,,,,,,,,,,,,,,,,,,0,3,3,3,1,stimulusFile/mult_blk4_congruent.xlsx,,
,,,,,,,,,,,,,,,770,2022-01-23_24h10.15.135,multiplicationStroop,2021.2.3,Win32,61.64848036,,,,,,,,,,,,,,,,,,,,,,,,,,,,,,,space,7.0247,48,2.3406,1,0,0,0,15,1,8,×,6,8 × 6,incongruent,largerFirst,1,2,48,,,,,,,,
,,,,,,,,,,,,,,,770,2022-01-23_24h10.15.135,multiplicationStroop,2021.2.3,Win32,61.64848036,,,,,,,,,,,,,,,,,,,,,,,,,,,,,,,,,15,2.1359,1,0,1,1,24,1,5,×,3,5 × 3,incongruent,largerFirst,1,2,15,,,,,,,,
,,,,,,,,,,,,,,,770,2022-01-23_24h10.15.135,multiplicationStroop,2021.2.3,Win32,61.64848036,,,,,,,,,,,,,,,,,,,,,,,,,,,,,,,,,24,2.8264,1,0,2,2,23,1,8,×,3,8 × 3,incongruent,largerFirst,1,2,24,,,,,,,,
,,,,,,,,,,,,,,,770,2022-01-23_24h10.15.135,multiplicationStroop,2021.2.3,Win32,61.64848036,,,,,,,,,,,,,,,,,,,,,,,,,,,,,,,,,40,1.5304,1,0,3,3,27,1,8,×,5,8 × 5,incongruent,largerFirst,1,2,40,,,,,,,,
,,,,,,,,,,,,,,,770,2022-01-23_24h10.15.135,multiplicationStroop,2021.2.3,Win32,61.64848036,,,,,,,,,,,,,,,,,,,,,,,,,,,,,,,,,8,1.6355,1,0,4,4,10,1,2,×,4,2 × 4,incongruent,smallerFirst,2,1,8,,,,,,,,
,,,,,,,,,,,,,,,770,2022-01-23_24h10.15.135,multiplicationStroop,2021.2.3,Win32,61.64848036,,,,,,,,,,,,,,,,,,,,,,,,,,,,,,,,,72,1.9815,1,0,5,5,14,1,9,×,8,9 × 8,incongruent,largerFirst,1,2,72,,,,,,,,
,,,,,,,,,,,,,,,770,2022-01-23_24h10.15.135,multiplicationStroop,2021.2.3,Win32,61.64848036,,,,,,,,,,,,,,,,,,,,,,,,,,,,,,,,,21,1.4937,1,0,6,6,12,1,3,×,7,3 × 7,incongruent,smallerFirst,2,1,21,,,,,,,,
,,,,,,,,,,,,,,,770,2022-01-23_24h10.15.135,multiplicationStroop,2021.2.3,Win32,61.64848036,,,,,,,,,,,,,,,,,,,,,,,,,,,,,,,,,12,2.1466,1,0,7,7,5,1,2,×,6,2 × 6,incongruent,smallerFirst,2,1,12,,,,,,,,
,,,,,,,,,,,,,,,770,2022-01-23_24h10.15.135,multiplicationStroop,2021.2.3,Win32,61.64848036,,,,,,,,,,,,,,,,,,,,,,,,,,,,,,,,,14,1.405,1,0,8,8,18,1,7,×,2,7 × 2,incongruent,largerFirst,1,2,14,,,,,,,,
,,,,,,,,,,,,,,,770,2022-01-23_24h10.15.135,multiplicationStroop,2021.2.3,Win32,61.64848036,,,,,,,,,,,,,,,,,,,,,,,,,,,,,,,,,81,2.8677,1,0,9,9,35,1,9,×,9,9 × 9,neutral,tie,2,1,81,,,,,,,,
,,,,,,,,,,,,,,,770,2022-01-23_24h10.15.135,multiplicationStroop,2021.2.3,Win32,61.64848036,,,,,,,,,,,,,,,,,,,,,,,,,,,,,,,,,16,1.8747,1,0,10,10,30,1,4,×,4,4 × 4,neutral,tie,2,1,16,,,,,,,,
,,,,,,,,,,,,,,,770,2022-01-23_24h10.15.135,multiplicationStroop,2021.2.3,Win32,61.64848036,,,,,,,,,,,,,,,,,,,,,,,,,,,,,,,,,20,1.5981,1,0,11,11,13,1,4,×,5,4 × 5,incongruent,smallerFirst,2,1,20,,,,,,,,
,,,,,,,,,,,,,,,770,2022-01-23_24h10.15.135,multiplicationStroop,2021.2.3,Win32,61.64848036,,,,,,,,,,,,,,,,,,,,,,,,,,,,,,,,,9,1.4328,1,0,12,12,29,1,3,×,3,3 × 3,neutral,tie,2,1,9,,,,,,,,
,,,,,,,,,,,,,,,770,2022-01-23_24h10.15.135,multiplicationStroop,2021.2.3,Win32,61.64848036,,,,,,,,,,,,,,,,,,,,,,,,,,,,,,,,,27,2.4265,1,0,13,13,4,1,3,×,9,3 × 9,incongruent,smallerFirst,2,1,27,,,,,,,,
,,,,,,,,,,,,,,,770,2022-01-23_24h10.15.135,multiplicationStroop,2021.2.3,Win32,61.64848036,,,,,,,,,,,,,,,,,,,,,,,,,,,,,,,,,56,2.3802,1,0,14,14,0,1,7,×,8,7 × 8,incongruent,smallerFirst,2,1,56,,,,,,,,
,,,,,,,,,,,,,,,770,2022-01-23_24h10.15.135,multiplicationStroop,2021.2.3,Win32,61.64848036,,,,,,,,,,,,,,,,,,,,,,,,,,,,,,,,,28,2.4213,1,0,15,15,2,1,4,×,7,4 × 7,incongruent,smallerFirst,2,1,28,,,,,,,,
,,,,,,,,,,,,,,,770,2022-01-23_24h10.15.135,multiplicationStroop,2021.2.3,Win32,61.64848036,,,,,,,,,,,,,,,,,,,,,,,,,,,,,,,,,25,2.5302,1,0,16,16,31,1,5,×,5,5 × 5,neutral,tie,2,1,25,,,,,,,,
,,,,,,,,,,,,,,,770,2022-01-23_24h10.15.135,multiplicationStroop,2021.2.3,Win32,61.64848036,,,,,,,,,,,,,,,,,,,,,,,,,,,,,,,,,36,2.5797,1,0,17,17,32,1,6,×,6,6 × 6,neutral,tie,2,1,36,,,,,,,,
,,,,,,,,,,,,,,,770,2022-01-23_24h10.15.135,multiplicationStroop,2021.2.3,Win32,61.64848036,,,,,,,,,,,,,,,,,,,,,,,,,,,,,,,,,30,1.7794,1,0,18,18,11,1,5,×,6,5 × 6,incongruent,smallerFirst,2,1,30,,,,,,,,
,,,,,,,,,,,,,,,770,2022-01-23_24h10.15.135,multiplicationStroop,2021.2.3,Win32,61.64848036,,,,,,,,,,,,,,,,,,,,,,,,,,,,,,,,,10,1.5024,1,0,19,19,7,1,2,×,5,2 × 5,incongruent,smallerFirst,2,1,10,,,,,,,,
,,,,,,,,,,,,,,,770,2022-01-23_24h10.15.135,multiplicationStroop,2021.2.3,Win32,61.64848036,,,,,,,,,,,,,,,,,,,,,,,,,,,,,,,,,12,1.2662,1,0,20,20,19,1,4,×,3,4 × 3,incongruent,largerFirst,1,2,12,,,,,,,,
,,,,,,,,,,,,,,,770,2022-01-23_24h10.15.135,multiplicationStroop,2021.2.3,Win32,61.64848036,,,,,,,,,,,,,,,,,,,,,,,,,,,,,,,,,18,2.8933,1,0,21,21,22,1,6,×,3,6 × 3,incongruent,largerFirst,1,2,18,,,,,,,,
,,,,,,,,,,,,,,,770,2022-01-23_24h10.15.135,multiplicationStroop,2021.2.3,Win32,61.64848036,,,,,,,,,,,,,,,,,,,,,,,,,,,,,,,,,42,2.1632,1,0,22,22,3,1,6,×,7,6 × 7,incongruent,smallerFirst,2,1,42,,,,,,,,
,,,,,,,,,,,,,,,770,2022-01-23_24h10.15.135,multiplicationStroop,2021.2.3,Win32,61.64848036,,,,,,,,,,,,,,,,,,,,,,,,,,,,,,,,,54,2.6467,1,0,23,23,20,1,9,×,6,9 × 6,incongruent,largerFirst,1,2,54,,,,,,,,
,,,,,,,,,,,,,,,770,2022-01-23_24h10.15.135,multiplicationStroop,2021.2.3,Win32,61.64848036,,,,,,,,,,,,,,,,,,,,,,,,,,,,,,,,,24,2.6682,1,0,24,24,6,1,4,×,6,4 × 6,incongruent,smallerFirst,2,1,24,,,,,,,,
,,,,,,,,,,,,,,,770,2022-01-23_24h10.15.135,multiplicationStroop,2021.2.3,Win32,61.64848036,,,,,,,,,,,,,,,,,,,,,,,,,,,,,,,,,6,1.5025,1,0,25,25,25,1,3,×,2,3 × 2,incongruent,largerFirst,1,2,6,,,,,,,,
,,,,,,,,,,,,,,,770,2022-01-23_24h10.15.135,multiplicationStroop,2021.2.3,Win32,61.64848036,,,,,,,,,,,,,,,,,,,,,,,,,,,,,,,,,4,2.1178,1,0,26,26,28,1,2,×,2,2 × 2,neutral,tie,2,1,4,,,,,,,,
,,,,,,,,,,,,,,,770,2022-01-23_24h10.15.135,multiplicationStroop,2021.2.3,Win32,61.64848036,,,,,,,,,,,,,,,,,,,,,,,,,,,,,,,,,36,2.5408,1,0,27,27,1,1,4,×,9,4 × 9,incongruent,smallerFirst,2,1,36,,,,,,,,
,,,,,,,,,,,,,,,770,2022-01-23_24h10.15.135,multiplicationStroop,2021.2.3,Win32,61.64848036,,,,,,,,,,,,,,,,,,,,,,,,,,,,,,,,,18,1.6769,1,0,28,28,16,1,9,×,2,9 × 2,incongruent,largerFirst,1,2,18,,,,,,,,
,,,,,,,,,,,,,,,770,2022-01-23_24h10.15.135,multiplicationStroop,2021.2.3,Win32,61.64848036,,,,,,,,,,,,,,,,,,,,,,,,,,,,,,,,,16,1.9021,1,0,29,29,9,1,2,×,8,2 × 8,incongruent,smallerFirst,2,1,16,,,,,,,,
,,,,,,,,,,,,,,,770,2022-01-23_24h10.15.135,multiplicationStroop,2021.2.3,Win32,61.64848036,,,,,,,,,,,,,,,,,,,,,,,,,,,,,,,,,63,2.3325,1,0,30,30,17,1,9,×,7,9 × 7,incongruent,largerFirst,1,2,63,,,,,,,,
,,,,,,,,,,,,,,,770,2022-01-23_24h10.15.135,multiplicationStroop,2021.2.3,Win32,61.64848036,,,,,,,,,,,,,,,,,,,,,,,,,,,,,,,,,49,2.9439,1,0,31,31,33,1,7,×,7,7 × 7,neutral,tie,2,1,49,,,,,,,,
,,,,,,,,,,,,,,,770,2022-01-23_24h10.15.135,multiplicationStroop,2021.2.3,Win32,61.64848036,,,,,,,,,,,,,,,,,,,,,,,,,,,,,,,,,45,1.6348,1,0,32,32,8,1,5,×,9,5 × 9,incongruent,smallerFirst,2,1,45,,,,,,,,
,,,,,,,,,,,,,,,770,2022-01-23_24h10.15.135,multiplicationStroop,2021.2.3,Win32,61.64848036,,,,,,,,,,,,,,,,,,,,,,,,,,,,,,,,,32,3.1157,1,0,33,33,21,1,8,×,4,8 × 4,incongruent,largerFirst,1,2,32,,,,,,,,
,,,,,,,,,,,,,,,770,2022-01-23_24h10.15.135,multiplicationStroop,2021.2.3,Win32,61.64848036,,,,,,,,,,,,,,,,,,,,,,,,,,,,,,,,,35,1.5575,1,0,34,34,26,1,7,×,5,7 × 5,incongruent,largerFirst,1,2,35,,,,,,,,
,,,,,,,,,,,,,,,770,2022-01-23_24h10.15.135,multiplicationStroop,2021.2.3,Win32,61.64848036,,,,,,,,,,,,,,,,,,,,,,,,,,,,,,,,,64,2.01,1,0,35,35,34,1,8,×,8,8 × 8,neutral,tie,2,1,64,,,,,,,,
,,,,,,,,,,,,,,,770,2022-01-23_24h10.15.135,multiplicationStroop,2021.2.3,Win32,61.64848036,,,,,,,,,,,,,,,,,,,,,,,,,,,,,,,,,,,,,,,,,,,,,,,,,,0,4,4,4,1,stimulusFile/mult_blk5_INcongruent.xlsx,,
,,,,,,,,,,,,,,,770,2022-01-23_24h10.15.135,multiplicationStroop,2021.2.3,Win32,61.64848036,,,,,,,,,,,,,,,,,,,,,,,,,,,,,,,space,1.1354,30,2.4933,1,0,0,0,25,1,6,×,5,6 × 5,incongruent,largerFirst,1,2,30,,,,,,,,
,,,,,,,,,,,,,,,770,2022-01-23_24h10.15.135,multiplicationStroop,2021.2.3,Win32,61.64848036,,,,,,,,,,,,,,,,,,,,,,,,,,,,,,,,,18,1.8131,1,0,1,1,8,1,3,×,6,3 × 6,incongruent,smallerFirst,2,1,18,,,,,,,,
,,,,,,,,,,,,,,,770,2022-01-23_24h10.15.135,multiplicationStroop,2021.2.3,Win32,61.64848036,,,,,,,,,,,,,,,,,,,,,,,,,,,,,,,,,28,1.6855,1,0,2,2,16,1,7,×,4,7 × 4,incongruent,largerFirst,1,2,28,,,,,,,,
,,,,,,,,,,,,,,,770,2022-01-23_24h10.15.135,multiplicationStroop,2021.2.3,Win32,61.64848036,,,,,,,,,,,,,,,,,,,,,,,,,,,,,,,,,42,1.6108,1,0,3,3,17,1,7,×,6,7 × 6,incongruent,largerFirst,1,2,42,,,,,,,,
,,,,,,,,,,,,,,,770,2022-01-23_24h10.15.135,multiplicationStroop,2021.2.3,Win32,61.64848036,,,,,,,,,,,,,,,,,,,,,,,,,,,,,,,,,72,4.0515,1,0,4,4,0,1,8,×,9,8 × 9,incongruent,smallerFirst,2,1,72,,,,,,,,
,,,,,,,,,,,,,,,770,2022-01-23_24h10.15.135,multiplicationStroop,2021.2.3,Win32,61.64848036,,,,,,,,,,,,,,,,,,,,,,,,,,,,,,,,,56,2.0335,1,0,5,5,14,1,8,×,7,8 × 7,incongruent,largerFirst,1,2,56,,,,,,,,
,,,,,,,,,,,,,,,770,2022-01-23_24h10.15.135,multiplicationStroop,2021.2.3,Win32,61.64848036,,,,,,,,,,,,,,,,,,,,,,,,,,,,,,,,,14,1.4642,1,0,6,6,4,1,2,×,7,2 × 7,incongruent,smallerFirst,2,1,14,,,,,,,,
,,,,,,,,,,,,,,,770,2022-01-23_24h10.15.135,multiplicationStroop,2021.2.3,Win32,61.64848036,,,,,,,,,,,,,,,,,,,,,,,,,,,,,,,,,24,2.6346,1,0,7,7,9,1,3,×,8,3 × 8,incongruent,smallerFirst,2,1,24,,,,,,,,
,,,,,,,,,,,,,,,770,2022-01-23_24h10.15.135,multiplicationStroop,2021.2.3,Win32,61.64848036,,,,,,,,,,,,,,,,,,,,,,,,,,,,,,,,,49,1.8516,1,0,8,8,33,1,7,×,7,7 × 7,incongruent,tie,1,2,49,,,,,,,,
,,,,,,,,,,,,,,,770,2022-01-23_24h10.15.135,multiplicationStroop,2021.2.3,Win32,61.64848036,,,,,,,,,,,,,,,,,,,,,,,,,,,,,,,,,40,1.9527,1,0,9,9,13,1,5,×,8,5 × 8,incongruent,smallerFirst,2,1,40,,,,,,,,
,,,,,,,,,,,,,,,770,2022-01-23_24h10.15.135,multiplicationStroop,2021.2.3,Win32,61.64848036,,,,,,,,,,,,,,,,,,,,,,,,,,,,,,,,,4,1.2607,1,0,10,10,28,1,2,×,2,2 × 2,incongruent,tie,1,2,4,,,,,,,,
,,,,,,,,,,,,,,,770,2022-01-23_24h10.15.135,multiplicationStroop,2021.2.3,Win32,61.64848036,,,,,,,,,,,,,,,,,,,,,,,,,,,,,,,,,36,1.6294,1,0,11,11,32,1,6,×,6,6 × 6,incongruent,tie,1,2,36,,,,,,,,
,,,,,,,,,,,,,,,770,2022-01-23_24h10.15.135,multiplicationStroop,2021.2.3,Win32,61.64848036,,,,,,,,,,,,,,,,,,,,,,,,,,,,,,,,,48,3.2514,1,0,12,12,1,1,6,×,8,6 × 8,incongruent,smallerFirst,2,1,48,,,,,,,,
,,,,,,,,,,,,,,,770,2022-01-23_24h10.15.135,multiplicationStroop,2021.2.3,Win32,61.64848036,,,,,,,,,,,,,,,,,,,,,,,,,,,,,,,,,63,3.3849,1,0,13,13,3,1,7,×,9,7 × 9,incongruent,smallerFirst,2,1,63,,,,,,,,
,,,,,,,,,,,,,,,770,2022-01-23_24h10.15.135,multiplicationStroop,2021.2.3,Win32,61.64848036,,,,,,,,,,,,,,,,,,,,,,,,,,,,,,,,,8,1.7477,1,0,14,14,24,1,4,×,2,4 × 2,incongruent,largerFirst,1,2,8,,,,,,,,
,,,,,,,,,,,,,,,770,2022-01-23_24h10.15.135,multiplicationStroop,2021.2.3,Win32,61.64848036,,,,,,,,,,,,,,,,,,,,,,,,,,,,,,,,,21,1.796,1,0,15,15,26,1,7,×,3,7 × 3,incongruent,largerFirst,1,2,21,,,,,,,,
,,,,,,,,,,,,,,,770,2022-01-23_24h10.15.135,multiplicationStroop,2021.2.3,Win32,61.64848036,,,,,,,,,,,,,,,,,,,,,,,,,,,,,,,,,24,1.7973,1,0,16,16,20,1,6,×,4,6 × 4,incongruent,largerFirst,1,2,24,,,,,,,,
,,,,,,,,,,,,,,,770,2022-01-23_24h10.15.135,multiplicationStroop,2021.2.3,Win32,61.64848036,,,,,,,,,,,,,,,,,,,,,,,,,,,,,,,,,12,2.113,1,0,17,17,5,1,3,×,4,3 × 4,incongruent,smallerFirst,2,1,12,,,,,,,,
,,,,,,,,,,,,,,,770,2022-01-23_24h10.15.135,multiplicationStroop,2021.2.3,Win32,61.64848036,,,,,,,,,,,,,,,,,,,,,,,,,,,,,,,,,35,1.9015,1,0,18,18,12,1,5,×,7,5 × 7,incongruent,smallerFirst,2,1,35,,,,,,,,
,,,,,,,,,,,,,,,770,2022-01-23_24h10.15.135,multiplicationStroop,2021.2.3,Win32,61.64848036,,,,,,,,,,,,,,,,,,,,,,,,,,,,,,,,,25,1.494,1,0,19,19,31,1,5,×,5,5 × 5,incongruent,tie,1,2,25,,,,,,,,
,,,,,,,,,,,,,,,770,2022-01-23_24h10.15.135,multiplicationStroop,2021.2.3,Win32,61.64848036,,,,,,,,,,,,,,,,,,,,,,,,,,,,,,,,,10,2.0689,1,0,20,20,21,1,5,×,2,5 × 2,incongruent,largerFirst,1,2,10,,,,,,,,
,,,,,,,,,,,,,,,770,2022-01-23_24h10.15.135,multiplicationStroop,2021.2.3,Win32,61.64848036,,,,,,,,,,,,,,,,,,,,,,,,,,,,,,,,,6,1.6449,1,0,21,21,11,1,2,×,3,2 × 3,incongruent,smallerFirst,2,1,6,,,,,,,,
,,,,,,,,,,,,,,,770,2022-01-23_24h10.15.135,multiplicationStroop,2021.2.3,Win32,61.64848036,,,,,,,,,,,,,,,,,,,,,,,,,,,,,,,,,64,2.3295,1,0,22,22,34,1,8,×,8,8 × 8,incongruent,tie,1,2,64,,,,,,,,
,,,,,,,,,,,,,,,770,2022-01-23_24h10.15.135,multiplicationStroop,2021.2.3,Win32,61.64848036,,,,,,,,,,,,,,,,,,,,,,,,,,,,,,,,,36,2.781,1,0,23,23,15,1,9,×,4,9 × 4,incongruent,largerFirst,1,2,36,,,,,,,,
,,,,,,,,,,,,,,,770,2022-01-23_24h10.15.135,multiplicationStroop,2021.2.3,Win32,61.64848036,,,,,,,,,,,,,,,,,,,,,,,,,,,,,,,,,9,1.3963,1,0,24,24,29,1,3,×,3,3 × 3,incongruent,tie,1,2,9,,,,,,,,
,,,,,,,,,,,,,,,770,2022-01-23_24h10.15.135,multiplicationStroop,2021.2.3,Win32,61.64848036,,,,,,,,,,,,,,,,,,,,,,,,,,,,,,,,,16,1.9803,1,0,25,25,30,1,4,×,4,4 × 4,incongruent,tie,1,2,16,,,,,,,,
,,,,,,,,,,,,,,,770,2022-01-23_24h10.15.135,multiplicationStroop,2021.2.3,Win32,61.64848036,,,,,,,,,,,,,,,,,,,,,,,,,,,,,,,,,12,1.3193,1,0,26,26,19,1,6,×,2,6 × 2,incongruent,largerFirst,1,2,12,,,,,,,,
,,,,,,,,,,,,,,,770,2022-01-23_24h10.15.135,multiplicationStroop,2021.2.3,Win32,61.64848036,,,,,,,,,,,,,,,,,,,,,,,,,,,,,,,,,81,1.8602,1,0,27,27,35,1,9,×,9,9 × 9,incongruent,tie,1,2,81,,,,,,,,
,,,,,,,,,,,,,,,770,2022-01-23_24h10.15.135,multiplicationStroop,2021.2.3,Win32,61.64848036,,,,,,,,,,,,,,,,,,,,,,,,,,,,,,,,,18,1.7528,1,0,28,28,2,1,2,×,9,2 × 9,incongruent,smallerFirst,2,1,18,,,,,,,,
,,,,,,,,,,,,,,,770,2022-01-23_24h10.15.135,multiplicationStroop,2021.2.3,Win32,61.64848036,,,,,,,,,,,,,,,,,,,,,,,,,,,,,,,,,54,2.3274,1,0,29,29,6,1,6,×,9,6 × 9,incongruent,smallerFirst,2,1,54,,,,,,,,
,,,,,,,,,,,,,,,770,2022-01-23_24h10.15.135,multiplicationStroop,2021.2.3,Win32,61.64848036,,,,,,,,,,,,,,,,,,,,,,,,,,,,,,,,,27,2.2048,1,0,30,30,18,1,9,×,3,9 × 3,incongruent,largerFirst,1,2,27,,,,,,,,
,,,,,,,,,,,,,,,770,2022-01-23_24h10.15.135,multiplicationStroop,2021.2.3,Win32,61.64848036,,,,,,,,,,,,,,,,,,,,,,,,,,,,,,,,,16,1.6465,1,0,31,31,23,1,8,×,2,8 × 2,incongruent,largerFirst,1,2,16,,,,,,,,
,,,,,,,,,,,,,,,770,2022-01-23_24h10.15.135,multiplicationStroop,2021.2.3,Win32,61.64848036,,,,,,,,,,,,,,,,,,,,,,,,,,,,,,,,,45,3.0305,1,0,32,32,22,1,9,×,5,9 × 5,incongruent,largerFirst,1,2,45,,,,,,,,
,,,,,,,,,,,,,,,770,2022-01-23_24h10.15.135,multiplicationStroop,2021.2.3,Win32,61.64848036,,,,,,,,,,,,,,,,,,,,,,,,,,,,,,,,,20,1.6589,1,0,33,33,27,1,5,×,4,5 × 4,incongruent,largerFirst,1,2,20,,,,,,,,
,,,,,,,,,,,,,,,770,2022-01-23_24h10.15.135,multiplicationStroop,2021.2.3,Win32,61.64848036,,,,,,,,,,,,,,,,,,,,,,,,,,,,,,,,,16,1.7278,0,0,34,34,7,1,4,×,8,4 × 8,incongruent,smallerFirst,2,1,32,,,,,,,,
,,,,,,,,,,,,,,,770,2022-01-23_24h10.15.135,multiplicationStroop,2021.2.3,Win32,61.64848036,,,,,,,,,,,,,,,,,,,,,,,,,,,,,,,,,15,1.4143,1,0,35,35,10,1,3,×,5,3 × 5,incongruent,smallerFirst,2,1,15,,,,,,,,
,,,,,,,,,,,,,,,770,2022-01-23_24h10.15.135,multiplicationStroop,2021.2.3,Win32,61.64848036,,,,,,,,,,,,,,,,,,,,,,,,,,,,,,,,,,,,,,,,,,,,,,,,,,0,5,5,5,1,stimulusFile/mult_blk6_INcongruent.xlsx,,
,,,,,,,,,,,,,,,770,2022-01-23_24h10.15.135,multiplicationStroop,2021.2.3,Win32,61.64848036,,,,,,,,,,,,,,,,,,,,,,,,,,,,,,,,,,,,,,,,,,,,,,,,,,,,,,,,space,13.8516