welcomeKey_resp.keys,welcomeKey_resp.rt,X Scale,Y Scale,rt_resp_4.keys,rt_resp_4.corr,rt_resp_4.rt,speedtest_2.thisRepN,speedtest_2.thisTrialN,speedtest_2.thisN,speedtest_2.thisIndex,speedtest_2.ran,numberSc,posX,positionLayout,participant,date,expName,psychopyVersion,OS,frameRate,ct_instrresp.keys,ct_instrresp.rt,key_resp_2.keys,key_resp_2.rt,ct_keyResp.keys,ct_keyResp.corr,ct_keyResp.rt,trials.thisRepN,trials.thisTrialN,trials.thisN,trials.thisIndex,trials.ran,leftNo,rightNo,displayProblem,numDistance,leftNo_size,rightNo_size,Dims,keyAnswer,TS_Loop.thisRepN,TS_Loop.thisTrialN,TS_Loop.thisN,TS_Loop.thisIndex,TS_Loop.ran,Condition,ActionInst,instrImage,mltptaskInst_resp.keys,mltptaskInst_resp.rt,continue_resp_2.keys,continue_resp_2.rt,multp_Answer,multi_RT,multiplyCorr,LoopingMultiply.thisRepN,LoopingMultiply.thisTrialN,LoopingMultiply.thisN,LoopingMultiply.thisIndex,LoopingMultiply.ran,factor1,multiplySign,factor2,multliplyProblem,physicalSize,orderOperand,sizeF1,sizeF2,mult_answer,trials_stroop.thisRepN,trials_stroop.thisTrialN,trials_stroop.thisN,trials_stroop.thisIndex,trials_stroop.ran,multiplicationFile,esckey_resp_2.keys,esckey_resp_2.rt
y,6.056,44.8,44.3,right,1,0.7917,0,0,0,10,1,3,200,right,771,2022-01-27_22h13.37.118,multiplicationStroop,2021.2.3,Win32,60.66488716,,,,,,,,,,,,,,,,,,,,,,,,,,,,,,,,,,,,,,,,,,,,,,,,,,,,,,,,,
,,,,left,1,0.51,0,1,1,4,1,6,-200,left,771,2022-01-27_22h13.37.118,multiplicationStroop,2021.2.3,Win32,60.66488716,,,,,,,,,,,,,,,,,,,,,,,,,,,,,,,,,,,,,,,,,,,,,,,,,,,,,,,,,
,,,,left,1,0.4484,0,2,2,6,1,8,-200,left,771,2022-01-27_22h13.37.118,multiplicationStroop,2021.2.3,Win32,60.66488716,,,,,,,,,,,,,,,,,,,,,,,,,,,,,,,,,,,,,,,,,,,,,,,,,,,,,,,,,
,,,,right,1,0.3919,0,3,3,11,1,4,200,right,771,2022-01-27_22h13.37.118,multiplicationStroop,2021.2.3,Win32,60.66488716,,,,,,,,,,,,,,,,,,,,,,,,,,,,,,,,,,,,,,,,,,,,,,,,,,,,,,,,,
,,,,right,1,0.4306,0,4,4,14,1,8,200,right,771,2022-01-27_22h13.37.118,multiplicationStroop,2021.2.3,Win32,60.66488716,,,,,,,,,,,,,,,,,,,,,,,,,,,,,,,,,,,,,,,,,,,,,,,,,,,,,,,,,
,,,,left,1,0.3826,0,5,5,3,1,4,-200,left,771,2022-01-27_22h13.37.118,multiplicationStroop,2021.2.3,Win32,60.66488716,,,,,,,,,,,,,,,,,,,,,,,,,,,,,,,,,,,,,,,,,,,,,,,,,,,,,,,,,
,,,,right,1,0.4644,0,6,6,15,1,9,200,right,771,2022-01-27_22h13.37.118,multiplicationStroop,2021.2.3,Win32,60.66488716,,,,,,,,,,,,,,,,,,,,,,,,,,,,,,,,,,,,,,,,,,,,,,,,,,,,,,,,,
,,,,right,1,0.4256,0,7,7,13,1,7,200,right,771,2022-01-27_22h13.37.118,multiplicationStroop,2021.2.3,Win32,60.66488716,,,,,,,,,,,,,,,,,,,,,,,,,,,,,,,,,,,,,,,,,,,,,,,,,,,,,,,,,
,,,,right,1,0.2974,0,8,8,12,1,6,200,right,771,2022-01-27_22h13.37.118,multiplicationStroop,2021.2.3,Win32,60.66488716,,,,,,,,,,,,,,,,,,,,,,,,,,,,,,,,,,,,,,,,,,,,,,,,,,,,,,,,,
,,,,left,1,0.3582,0,9,9,0,1,1,-200,left,771,2022-01-27_22h13.37.118,multiplicationStroop,2021.2.3,Win32,60.66488716,,,,,,,,,,,,,,,,,,,,,,,,,,,,,,,,,,,,,,,,,,,,,,,,,,,,,,,,,
,,,,left,1,0.3792,0,10,10,5,1,7,-200,left,771,2022-01-27_22h13.37.118,multiplicationStroop,2021.2.3,Win32,60.66488716,,,,,,,,,,,,,,,,,,,,,,,,,,,,,,,,,,,,,,,,,,,,,,,,,,,,,,,,,
,,,,left,1,0.3362,0,11,11,1,1,2,-200,left,771,2022-01-27_22h13.37.118,multiplicationStroop,2021.2.3,Win32,60.66488716,,,,,,,,,,,,,,,,,,,,,,,,,,,,,,,,,,,,,,,,,,,,,,,,,,,,,,,,,
,,,,left,1,0.3497,0,12,12,2,1,3,-200,left,771,2022-01-27_22h13.37.118,multiplicationStroop,2021.2.3,Win32,60.66488716,,,,,,,,,,,,,,,,,,,,,,,,,,,,,,,,,,,,,,,,,,,,,,,,,,,,,,,,,
,,,,left,1,0.3265,0,13,13,7,1,9,-200,left,771,2022-01-27_22h13.37.118,multiplicationStroop,2021.2.3,Win32,60.66488716,,,,,,,,,,,,,,,,,,,,,,,,,,,,,,,,,,,,,,,,,,,,,,,,,,,,,,,,,
,,,,right,1,0.3781,0,14,14,8,1,1,200,right,771,2022-01-27_22h13.37.118,multiplicationStroop,2021.2.3,Win32,60.66488716,,,,,,,,,,,,,,,,,,,,,,,,,,,,,,,,,,,,,,,,,,,,,,,,,,,,,,,,,
,,,,right,1,0.356,0,15,15,9,1,2,200,right,771,2022-01-27_22h13.37.118,multiplicationStroop,2021.2.3,Win32,60.66488716,,,,,,,,,,,,,,,,,,,,,,,,,,,,,,,,,,,,,,,,,,,,,,,,,,,,,,,,,
,,,,right,1,0.2931,1,0,16,10,1,3,200,right,771,2022-01-27_22h13.37.118,multiplicationStroop,2021.2.3,Win32,60.66488716,,,,,,,,,,,,,,,,,,,,,,,,,,,,,,,,,,,,,,,,,,,,,,,,,,,,,,,,,
,,,,left,1,0.3811,1,1,17,5,1,7,-200,left,771,2022-01-27_22h13.37.118,multiplicationStroop,2021.2.3,Win32,60.66488716,,,,,,,,,,,,,,,,,,,,,,,,,,,,,,,,,,,,,,,,,,,,,,,,,,,,,,,,,
,,,,left,1,0.3797,1,2,18,1,1,2,-200,left,771,2022-01-27_22h13.37.118,multiplicationStroop,2021.2.3,Win32,60.66488716,,,,,,,,,,,,,,,,,,,,,,,,,,,,,,,,,,,,,,,,,,,,,,,,,,,,,,,,,
,,,,right,1,0.3859,1,3,19,12,1,6,200,right,771,2022-01-27_22h13.37.118,multiplicationStroop,2021.2.3,Win32,60.66488716,,,,,,,,,,,,,,,,,,,,,,,,,,,,,,,,,,,,,,,,,,,,,,,,,,,,,,,,,
,,,,left,1,0.4431,1,4,20,7,1,9,-200,left,771,2022-01-27_22h13.37.118,multiplicationStroop,2021.2.3,Win32,60.66488716,,,,,,,,,,,,,,,,,,,,,,,,,,,,,,,,,,,,,,,,,,,,,,,,,,,,,,,,,
,,,,right,1,0.3692,1,5,21,15,1,9,200,right,771,2022-01-27_22h13.37.118,multiplicationStroop,2021.2.3,Win32,60.66488716,,,,,,,,,,,,,,,,,,,,,,,,,,,,,,,,,,,,,,,,,,,,,,,,,,,,,,,,,
,,,,left,1,0.4657,1,6,22,2,1,3,-200,left,771,2022-01-27_22h13.37.118,multiplicationStroop,2021.2.3,Win32,60.66488716,,,,,,,,,,,,,,,,,,,,,,,,,,,,,,,,,,,,,,,,,,,,,,,,,,,,,,,,,
,,,,right,1,0.2801,1,7,23,8,1,1,200,right,771,2022-01-27_22h13.37.118,multiplicationStroop,2021.2.3,Win32,60.66488716,,,,,,,,,,,,,,,,,,,,,,,,,,,,,,,,,,,,,,,,,,,,,,,,,,,,,,,,,
,,,,right,1,0.3802,1,8,24,9,1,2,200,right,771,2022-01-27_22h13.37.118,multiplicationStroop,2021.2.3,Win32,60.66488716,,,,,,,,,,,,,,,,,,,,,,,,,,,,,,,,,,,,,,,,,,,,,,,,,,,,,,,,,
,,,,right,1,0.346,1,9,25,14,1,8,200,right,771,2022-01-27_22h13.37.118,multiplicationStroop,2021.2.3,Win32,60.66488716,,,,,,,,,,,,,,,,,,,,,,,,,,,,,,,,,,,,,,,,,,,,,,,,,,,,,,,,,
,,,,left,1,0.398,1,10,26,6,1,8,-200,left,771,2022-01-27_22h13.37.118,multiplicationStroop,2021.2.3,Win32,60.66488716,,,,,,,,,,,,,,,,,,,,,,,,,,,,,,,,,,,,,,,,,,,,,,,,,,,,,,,,,
,,,,right,1,0.3489,1,11,27,13,1,7,200,right,771,2022-01-27_22h13.37.118,multiplicationStroop,2021.2.3,Win32,60.66488716,,,,,,,,,,,,,,,,,,,,,,,,,,,,,,,,,,,,,,,,,,,,,,,,,,,,,,,,,
,,,,right,1,0.4297,1,12,28,11,1,4,200,right,771,2022-01-27_22h13.37.118,multiplicationStroop,2021.2.3,Win32,60.66488716,,,,,,,,,,,,,,,,,,,,,,,,,,,,,,,,,,,,,,,,,,,,,,,,,,,,,,,,,
,,,,left,1,0.3815,1,13,29,3,1,4,-200,left,771,2022-01-27_22h13.37.118,multiplicationStroop,2021.2.3,Win32,60.66488716,,,,,,,,,,,,,,,,,,,,,,,,,,,,,,,,,,,,,,,,,,,,,,,,,,,,,,,,,
,,,,left,1,0.4218,1,14,30,4,1,6,-200,left,771,2022-01-27_22h13.37.118,multiplicationStroop,2021.2.3,Win32,60.66488716,,,,,,,,,,,,,,,,,,,,,,,,,,,,,,,,,,,,,,,,,,,,,,,,,,,,,,,,,
,,,,left,1,0.4669,1,15,31,0,1,1,-200,left,771,2022-01-27_22h13.37.118,multiplicationStroop,2021.2.3,Win32,60.66488716,,,,,,,,,,,,,,,,,,,,,,,,,,,,,,,,,,,,,,,,,,,,,,,,,,,,,,,,,
,,,,right,1,0.348,2,0,32,12,1,6,200,right,771,2022-01-27_22h13.37.118,multiplicationStroop,2021.2.3,Win32,60.66488716,,,,,,,,,,,,,,,,,,,,,,,,,,,,,,,,,,,,,,,,,,,,,,,,,,,,,,,,,
,,,,left,1,0.3804,2,1,33,7,1,9,-200,left,771,2022-01-27_22h13.37.118,multiplicationStroop,2021.2.3,Win32,60.66488716,,,,,,,,,,,,,,,,,,,,,,,,,,,,,,,,,,,,,,,,,,,,,,,,,,,,,,,,,
,,,,left,1,0.5362,2,2,34,3,1,4,-200,left,771,2022-01-27_22h13.37.118,multiplicationStroop,2021.2.3,Win32,60.66488716,,,,,,,,,,,,,,,,,,,,,,,,,,,,,,,,,,,,,,,,,,,,,,,,,,,,,,,,,
,,,,left,1,0.3146,2,3,35,2,1,3,-200,left,771,2022-01-27_22h13.37.118,multiplicationStroop,2021.2.3,Win32,60.66488716,,,,,,,,,,,,,,,,,,,,,,,,,,,,,,,,,,,,,,,,,,,,,,,,,,,,,,,,,
,,,,right,1,0.4077,2,4,36,14,1,8,200,right,771,2022-01-27_22h13.37.118,multiplicationStroop,2021.2.3,Win32,60.66488716,,,,,,,,,,,,,,,,,,,,,,,,,,,,,,,,,,,,,,,,,,,,,,,,,,,,,,,,,
,,,,right,1,0.3284,2,5,37,11,1,4,200,right,771,2022-01-27_22h13.37.118,multiplicationStroop,2021.2.3,Win32,60.66488716,,,,,,,,,,,,,,,,,,,,,,,,,,,,,,,,,,,,,,,,,,,,,,,,,,,,,,,,,
,,,,left,1,0.3835,2,6,38,0,1,1,-200,left,771,2022-01-27_22h13.37.118,multiplicationStroop,2021.2.3,Win32,60.66488716,,,,,,,,,,,,,,,,,,,,,,,,,,,,,,,,,,,,,,,,,,,,,,,,,,,,,,,,,
,,,,right,1,0.3131,2,7,39,10,1,3,200,right,771,2022-01-27_22h13.37.118,multiplicationStroop,2021.2.3,Win32,60.66488716,,,,,,,,,,,,,,,,,,,,,,,,,,,,,,,,,,,,,,,,,,,,,,,,,,,,,,,,,
,,,,right,1,0.3629,2,8,40,8,1,1,200,right,771,2022-01-27_22h13.37.118,multiplicationStroop,2021.2.3,Win32,60.66488716,,,,,,,,,,,,,,,,,,,,,,,,,,,,,,,,,,,,,,,,,,,,,,,,,,,,,,,,,
,,,,left,1,0.3487,2,9,41,6,1,8,-200,left,771,2022-01-27_22h13.37.118,multiplicationStroop,2021.2.3,Win32,60.66488716,,,,,,,,,,,,,,,,,,,,,,,,,,,,,,,,,,,,,,,,,,,,,,,,,,,,,,,,,
,,,,right,1,0.345,2,10,42,13,1,7,200,right,771,2022-01-27_22h13.37.118,multiplicationStroop,2021.2.3,Win32,60.66488716,,,,,,,,,,,,,,,,,,,,,,,,,,,,,,,,,,,,,,,,,,,,,,,,,,,,,,,,,
,,,,right,1,0.3506,2,11,43,9,1,2,200,right,771,2022-01-27_22h13.37.118,multiplicationStroop,2021.2.3,Win32,60.66488716,,,,,,,,,,,,,,,,,,,,,,,,,,,,,,,,,,,,,,,,,,,,,,,,,,,,,,,,,
,,,,left,1,0.3523,2,12,44,4,1,6,-200,left,771,2022-01-27_22h13.37.118,multiplicationStroop,2021.2.3,Win32,60.66488716,,,,,,,,,,,,,,,,,,,,,,,,,,,,,,,,,,,,,,,,,,,,,,,,,,,,,,,,,
,,,,right,1,0.3608,2,13,45,15,1,9,200,right,771,2022-01-27_22h13.37.118,multiplicationStroop,2021.2.3,Win32,60.66488716,,,,,,,,,,,,,,,,,,,,,,,,,,,,,,,,,,,,,,,,,,,,,,,,,,,,,,,,,
,,,,left,1,0.4524,2,14,46,5,1,7,-200,left,771,2022-01-27_22h13.37.118,multiplicationStroop,2021.2.3,Win32,60.66488716,,,,,,,,,,,,,,,,,,,,,,,,,,,,,,,,,,,,,,,,,,,,,,,,,,,,,,,,,
,,,,left,1,0.436,2,15,47,1,1,2,-200,left,771,2022-01-27_22h13.37.118,multiplicationStroop,2021.2.3,Win32,60.66488716,,,,,,,,,,,,,,,,,,,,,,,,,,,,,,,,,,,,,,,,,,,,,,,,,,,,,,,,,
,,,,left,1,0.2989,3,0,48,6,1,8,-200,left,771,2022-01-27_22h13.37.118,multiplicationStroop,2021.2.3,Win32,60.66488716,,,,,,,,,,,,,,,,,,,,,,,,,,,,,,,,,,,,,,,,,,,,,,,,,,,,,,,,,
,,,,right,1,0.3455,3,1,49,11,1,4,200,right,771,2022-01-27_22h13.37.118,multiplicationStroop,2021.2.3,Win32,60.66488716,,,,,,,,,,,,,,,,,,,,,,,,,,,,,,,,,,,,,,,,,,,,,,,,,,,,,,,,,
,,,,left,1,0.4646,3,2,50,1,1,2,-200,left,771,2022-01-27_22h13.37.118,multiplicationStroop,2021.2.3,Win32,60.66488716,,,,,,,,,,,,,,,,,,,,,,,,,,,,,,,,,,,,,,,,,,,,,,,,,,,,,,,,,
,,,,right,1,0.3477,3,3,51,13,1,7,200,right,771,2022-01-27_22h13.37.118,multiplicationStroop,2021.2.3,Win32,60.66488716,,,,,,,,,,,,,,,,,,,,,,,,,,,,,,,,,,,,,,,,,,,,,,,,,,,,,,,,,
,,,,right,1,0.3554,3,4,52,10,1,3,200,right,771,2022-01-27_22h13.37.118,multiplicationStroop,2021.2.3,Win32,60.66488716,,,,,,,,,,,,,,,,,,,,,,,,,,,,,,,,,,,,,,,,,,,,,,,,,,,,,,,,,
,,,,right,1,0.3484,3,5,53,9,1,2,200,right,771,2022-01-27_22h13.37.118,multiplicationStroop,2021.2.3,Win32,60.66488716,,,,,,,,,,,,,,,,,,,,,,,,,,,,,,,,,,,,,,,,,,,,,,,,,,,,,,,,,
,,,,left,1,0.3487,3,6,54,3,1,4,-200,left,771,2022-01-27_22h13.37.118,multiplicationStroop,2021.2.3,Win32,60.66488716,,,,,,,,,,,,,,,,,,,,,,,,,,,,,,,,,,,,,,,,,,,,,,,,,,,,,,,,,
,,,,left,1,0.3498,3,7,55,4,1,6,-200,left,771,2022-01-27_22h13.37.118,multiplicationStroop,2021.2.3,Win32,60.66488716,,,,,,,,,,,,,,,,,,,,,,,,,,,,,,,,,,,,,,,,,,,,,,,,,,,,,,,,,
,,,,right,1,0.4664,3,8,56,12,1,6,200,right,771,2022-01-27_22h13.37.118,multiplicationStroop,2021.2.3,Win32,60.66488716,,,,,,,,,,,,,,,,,,,,,,,,,,,,,,,,,,,,,,,,,,,,,,,,,,,,,,,,,
,,,,left,1,0.3469,3,9,57,7,1,9,-200,left,771,2022-01-27_22h13.37.118,multiplicationStroop,2021.2.3,Win32,60.66488716,,,,,,,,,,,,,,,,,,,,,,,,,,,,,,,,,,,,,,,,,,,,,,,,,,,,,,,,,
,,,,right,1,0.3125,3,10,58,14,1,8,200,right,771,2022-01-27_22h13.37.118,multiplicationStroop,2021.2.3,Win32,60.66488716,,,,,,,,,,,,,,,,,,,,,,,,,,,,,,,,,,,,,,,,,,,,,,,,,,,,,,,,,
,,,,right,1,0.3784,3,11,59,8,1,1,200,right,771,2022-01-27_22h13.37.118,multiplicationStroop,2021.2.3,Win32,60.66488716,,,,,,,,,,,,,,,,,,,,,,,,,,,,,,,,,,,,,,,,,,,,,,,,,,,,,,,,,
,,,,left,1,0.4064,3,12,60,0,1,1,-200,left,771,2022-01-27_22h13.37.118,multiplicationStroop,2021.2.3,Win32,60.66488716,,,,,,,,,,,,,,,,,,,,,,,,,,,,,,,,,,,,,,,,,,,,,,,,,,,,,,,,,
,,,,left,1,0.4688,3,13,61,5,1,7,-200,left,771,2022-01-27_22h13.37.118,multiplicationStroop,2021.2.3,Win32,60.66488716,,,,,,,,,,,,,,,,,,,,,,,,,,,,,,,,,,,,,,,,,,,,,,,,,,,,,,,,,
,,,,right,1,0.6655,3,14,62,15,1,9,200,right,771,2022-01-27_22h13.37.118,multiplicationStroop,2021.2.3,Win32,60.66488716,,,,,,,,,,,,,,,,,,,,,,,,,,,,,,,,,,,,,,,,,,,,,,,,,,,,,,,,,
,,,,left,1,0.3485,3,15,63,2,1,3,-200,left,771,2022-01-27_22h13.37.118,multiplicationStroop,2021.2.3,Win32,60.66488716,,,,,,,,,,,,,,,,,,,,,,,,,,stimulusFile/physical.xlsx,,,,,,,,,,,,,,,,,,,,,,,,,,,,,,,
,,,,,,,,,,,,,,,771,2022-01-27_22h13.37.118,multiplicationStroop,2021.2.3,Win32,60.66488716,space,15.0546,space,4.4537,left,1,1.3109,0,0,0,27,1,8,9,8 | 9,1,1.9756,1.4111,incongruent,left,,,,,,stimulusFile/physical.xlsx,,,,,,,,,,,,,,,,,,,,,,,,,,,,,,,
,,,,,,,,,,,,,,,771,2022-01-27_22h13.37.118,multiplicationStroop,2021.2.3,Win32,60.66488716,,,,,left,1,0.7717,0,1,1,40,1,1,6,1 | 6,5,1.9756,1.4111,incongruent,left,,,,,,stimulusFile/physical.xlsx,,,,,,,,,,,,,,,,,,,,,,,,,,,,,,,
,,,,,,,,,,,,,,,771,2022-01-27_22h13.37.118,multiplicationStroop,2021.2.3,Win32,60.66488716,,,,,right,1,0.5995,0,2,2,0,1,1,2,1 | 2,1,1.4111,1.9756,congruent,right,,,,,,stimulusFile/physical.xlsx,,,,,,,,,,,,,,,,,,,,,,,,,,,,,,,
,,,,,,,,,,,,,,,771,2022-01-27_22h13.37.118,multiplicationStroop,2021.2.3,Win32,60.66488716,,,,,right,1,0.7016,0,3,3,28,1,2,1,2 | 1,1,1.4111,1.9756,incongruent,right,,,,,,stimulusFile/physical.xlsx,,,,,,,,,,,,,,,,,,,,,,,,,,,,,,,
,,,,,,,,,,,,,,,771,2022-01-27_22h13.37.118,multiplicationStroop,2021.2.3,Win32,60.66488716,,,,,left,1,0.5596,0,4,4,35,1,7,9,7 | 9,2,1.9756,1.4111,incongruent,left,,,,,,stimulusFile/physical.xlsx,,,,,,,,,,,,,,,,,,,,,,,,,,,,,,,
,,,,,,,,,,,,,,,771,2022-01-27_22h13.37.118,multiplicationStroop,2021.2.3,Win32,60.66488716,,,,,left,1,0.5574,0,5,5,12,1,3,1,3 | 1,2,1.9756,1.4111,congruent,left,,,,,,stimulusFile/physical.xlsx,,,,,,,,,,,,,,,,,,,,,,,,,,,,,,,
,,,,,,,,,,,,,,,771,2022-01-27_22h13.37.118,multiplicationStroop,2021.2.3,Win32,60.66488716,,,,,right,1,0.4979,0,6,6,30,1,7,6,7 | 6,1,1.4111,1.9756,incongruent,right,,,,,,stimulusFile/physical.xlsx,,,,,,,,,,,,,,,,,,,,,,,,,,,,,,,
,,,,,,,,,,,,,,,771,2022-01-27_22h13.37.118,multiplicationStroop,2021.2.3,Win32,60.66488716,,,,,left,1,0.4759,0,7,7,34,1,6,8,6 | 8,2,1.9756,1.4111,incongruent,left,,,,,,stimulusFile/physical.xlsx,,,,,,,,,,,,,,,,,,,,,,,,,,,,,,,
,,,,,,,,,,,,,,,771,2022-01-27_22h13.37.118,multiplicationStroop,2021.2.3,Win32,60.66488716,,,,,right,1,0.5363,0,8,8,46,1,8,3,8 | 3,5,1.4111,1.9756,incongruent,right,,,,,,stimulusFile/physical.xlsx,,,,,,,,,,,,,,,,,,,,,,,,,,,,,,,
,,,,,,,,,,,,,,,771,2022-01-27_22h13.37.118,multiplicationStroop,2021.2.3,Win32,60.66488716,,,,,right,1,0.5202,0,9,9,61,1,4,4,4 | 4,0,1.4111,1.9756,neutral,right,,,,,,stimulusFile/physical.xlsx,,,,,,,,,,,,,,,,,,,,,,,,,,,,,,,
,,,,,,,,,,,,,,,771,2022-01-27_22h13.37.118,multiplicationStroop,2021.2.3,Win32,60.66488716,,,,,left,1,0.4875,0,10,10,20,1,6,1,6 | 1,5,1.9756,1.4111,congruent,left,,,,,,stimulusFile/physical.xlsx,,,,,,,,,,,,,,,,,,,,,,,,,,,,,,,
,,,,,,,,,,,,,,,771,2022-01-27_22h13.37.118,multiplicationStroop,2021.2.3,Win32,60.66488716,,,,,left,1,0.6112,0,11,11,43,1,4,9,4 | 9,5,1.9756,1.4111,incongruent,left,,,,,,stimulusFile/physical.xlsx,,,,,,,,,,,,,,,,,,,,,,,,,,,,,,,
,,,,,,,,,,,,,,,771,2022-01-27_22h13.37.118,multiplicationStroop,2021.2.3,Win32,60.66488716,,,,,left,0,0.5159,0,12,12,66,1,3,3,3 | 3,0,1.9756,1.4111,neutral,right,,,,,,stimulusFile/physical.xlsx,,,,,,,,,,,,,,,,,,,,,,,,,,,,,,,
,,,,,,,,,,,,,,,771,2022-01-27_22h13.37.118,multiplicationStroop,2021.2.3,Win32,60.66488716,,,,,right,1,0.5605,0,13,13,44,1,6,1,6 | 1,5,1.4111,1.9756,incongruent,right,,,,,,stimulusFile/physical.xlsx,,,,,,,,,,,,,,,,,,,,,,,,,,,,,,,
,,,,,,,,,,,,,,,771,2022-01-27_22h13.37.118,multiplicationStroop,2021.2.3,Win32,60.66488716,,,,,right,1,0.5927,0,14,14,37,1,4,2,4 | 2,2,1.4111,1.9756,incongruent,right,,,,,,stimulusFile/physical.xlsx,,,,,,,,,,,,,,,,,,,,,,,,,,,,,,,
,,,,,,,,,,,,,,,771,2022-01-27_22h13.37.118,multiplicationStroop,2021.2.3,Win32,60.66488716,,,,,left,1,0.5355,0,15,15,49,1,3,3,3 | 3,0,1.9756,1.4111,neutral,left,,,,,,stimulusFile/physical.xlsx,,,,,,,,,,,,,,,,,,,,,,,,,,,,,,,
,,,,,,,,,,,,,,,771,2022-01-27_22h13.37.118,multiplicationStroop,2021.2.3,Win32,60.66488716,,,,,right,1,0.5682,0,16,16,36,1,3,1,3 | 1,2,1.4111,1.9756,incongruent,right,,,,,,stimulusFile/physical.xlsx,,,,,,,,,,,,,,,,,,,,,,,,,,,,,,,
,,,,,,,,,,,,,,,771,2022-01-27_22h13.37.118,multiplicationStroop,2021.2.3,Win32,60.66488716,,,,,left,1,0.5098,0,17,17,68,1,6,6,6 | 6,0,1.9756,1.4111,neutral,left,,,,,,stimulusFile/physical.xlsx,,,,,,,,,,,,,,,,,,,,,,,,,,,,,,,
,,,,,,,,,,,,,,,771,2022-01-27_22h13.37.118,multiplicationStroop,2021.2.3,Win32,60.66488716,,,,,right,1,0.5558,0,18,18,31,1,9,8,9 | 8,1,1.4111,1.9756,incongruent,right,,,,,,stimulusFile/physical.xlsx,,,,,,,,,,,,,,,,,,,,,,,,,,,,,,,
,,,,,,,,,,,,,,,771,2022-01-27_22h13.37.118,multiplicationStroop,2021.2.3,Win32,60.66488716,,,,,left,1,0.658,0,19,19,14,1,8,6,8 | 6,2,1.9756,1.4111,congruent,left,,,,,,stimulusFile/physical.xlsx,,,,,,,,,,,,,,,,,,,,,,,,,,,,,,,
,,,,,,,,,,,,,,,771,2022-01-27_22h13.37.118,multiplicationStroop,2021.2.3,Win32,60.66488716,,,,,right,1,0.5556,0,20,20,38,1,8,6,8 | 6,2,1.4111,1.9756,incongruent,right,,,,,,stimulusFile/physical.xlsx,,,,,,,,,,,,,,,,,,,,,,,,,,,,,,,
,,,,,,,,,,,,,,,771,2022-01-27_22h13.37.118,multiplicationStroop,2021.2.3,Win32,60.66488716,,,,,right,1,0.5208,0,21,21,62,1,8,8,8 | 8,0,1.4111,1.9756,neutral,right,,,,,,stimulusFile/physical.xlsx,,,,,,,,,,,,,,,,,,,,,,,,,,,,,,,
,,,,,,,,,,,,,,,771,2022-01-27_22h13.37.118,multiplicationStroop,2021.2.3,Win32,60.66488716,,,,,left,1,0.4995,0,22,22,25,1,3,4,3 | 4,1,1.9756,1.4111,incongruent,left,,,,,,stimulusFile/physical.xlsx,,,,,,,,,,,,,,,,,,,,,,,,,,,,,,,
,,,,,,,,,,,,,,,771,2022-01-27_22h13.37.118,multiplicationStroop,2021.2.3,Win32,60.66488716,,,,,left,1,0.4686,0,23,23,5,1,4,3,4 | 3,1,1.9756,1.4111,congruent,left,,,,,,stimulusFile/physical.xlsx,,,,,,,,,,,,,,,,,,,,,,,,,,,,,,,
,,,,,,,,,,,,,,,771,2022-01-27_22h13.37.118,multiplicationStroop,2021.2.3,Win32,60.66488716,,,,,left,1,0.4244,0,24,24,33,1,2,4,2 | 4,2,1.9756,1.4111,incongruent,left,,,,,,stimulusFile/physical.xlsx,,,,,,,,,,,,,,,,,,,,,,,,,,,,,,,
,,,,,,,,,,,,,,,771,2022-01-27_22h13.37.118,multiplicationStroop,2021.2.3,Win32,60.66488716,,,,,right,1,0.5133,0,25,25,10,1,6,8,6 | 8,2,1.4111,1.9756,congruent,right,,,,,,stimulusFile/physical.xlsx,,,,,,,,,,,,,,,,,,,,,,,,,,,,,,,
,,,,,,,,,,,,,,,771,2022-01-27_22h13.37.118,multiplicationStroop,2021.2.3,Win32,60.66488716,,,,,left,1,0.6573,0,26,26,26,1,6,7,6 | 7,1,1.9756,1.4111,incongruent,left,,,,,,stimulusFile/physical.xlsx,,,,,,,,,,,,,,,,,,,,,,,,,,,,,,,
,,,,,,,,,,,,,,,771,2022-01-27_22h13.37.118,multiplicationStroop,2021.2.3,Win32,60.66488716,,,,,left,1,0.4728,0,27,27,22,1,8,3,8 | 3,5,1.9756,1.4111,congruent,left,,,,,,stimulusFile/physical.xlsx,,,,,,,,,,,,,,,,,,,,,,,,,,,,,,,
,,,,,,,,,,,,,,,771,2022-01-27_22h13.37.118,multiplicationStroop,2021.2.3,Win32,60.66488716,,,,,left,1,0.4815,0,28,28,52,1,2,2,2 | 2,0,1.9756,1.4111,neutral,left,,,,,,stimulusFile/physical.xlsx,,,,,,,,,,,,,,,,,,,,,,,,,,,,,,,
,,,,,,,,,,,,,,,771,2022-01-27_22h13.37.118,multiplicationStroop,2021.2.3,Win32,60.66488716,,,,,right,1,0.5314,0,29,29,11,1,7,9,7 | 9,2,1.4111,1.9756,congruent,right,,,,,,stimulusFile/physical.xlsx,,,,,,,,,,,,,,,,,,,,,,,,,,,,,,,
,,,,,,,,,,,,,,,771,2022-01-27_22h13.37.118,multiplicationStroop,2021.2.3,Win32,60.66488716,,,,,left,1,0.5985,0,30,30,53,1,4,4,4 | 4,0,1.9756,1.4111,neutral,left,,,,,,stimulusFile/physical.xlsx,,,,,,,,,,,,,,,,,,,,,,,,,,,,,,,
,,,,,,,,,,,,,,,771,2022-01-27_22h13.37.118,multiplicationStroop,2021.2.3,Win32,60.66488716,,,,,left,1,0.5049,0,31,31,70,1,8,8,8 | 8,0,1.9756,1.4111,neutral,left,,,,,,stimulusFile/physical.xlsx,,,,,,,,,,,,,,,,,,,,,,,,,,,,,,,
,,,,,,,,,,,,,,,771,2022-01-27_22h13.37.118,multiplicationStroop,2021.2.3,Win32,60.66488716,,,,,left,1,0.4939,0,32,32,6,1,7,6,7 | 6,1,1.9756,1.4111,congruent,left,,,,,,stimulusFile/physical.xlsx,,,,,,,,,,,,,,,,,,,,,,,,,,,,,,,
,,,,,,,,,,,,,,,771,2022-01-27_22h13.37.118,multiplicationStroop,2021.2.3,Win32,60.66488716,,,,,right,1,0.4869,0,33,33,58,1,6,6,6 | 6,0,1.4111,1.9756,neutral,right,,,,,,stimulusFile/physical.xlsx,,,,,,,,,,,,,,,,,,,,,,,,,,,,,,,
,,,,,,,,,,,,,,,771,2022-01-27_22h13.37.118,multiplicationStroop,2021.2.3,Win32,60.66488716,,,,,left,1,0.4441,0,34,34,41,1,2,7,2 | 7,5,1.9756,1.4111,incongruent,left,,,,,,stimulusFile/physical.xlsx,,,,,,,,,,,,,,,,,,,,,,,,,,,,,,,
,,,,,,,,,,,,,,,771,2022-01-27_22h13.37.118,multiplicationStroop,2021.2.3,Win32,60.66488716,,,,,left,1,0.4685,0,35,35,15,1,9,7,9 | 7,2,1.9756,1.4111,congruent,left,,,,,,stimulusFile/physical.xlsx,,,,,,,,,,,,,,,,,,,,,,,,,,,,,,,
,,,,,,,,,,,,,,,771,2022-01-27_22h13.37.118,multiplicationStroop,2021.2.3,Win32,60.66488716,,,,,left,1,0.5393,0,36,36,7,1,9,8,9 | 8,1,1.9756,1.4111,congruent,left,,,,,,stimulusFile/physical.xlsx,,,,,,,,,,,,,,,,,,,,,,,,,,,,,,,
,,,,,,,,,,,,,,,771,2022-01-27_22h13.37.118,multiplicationStroop,2021.2.3,Win32,60.66488716,,,,,right,1,0.5738,0,37,37,63,1,9,9,9 | 9,0,1.4111,1.9756,neutral,right,,,,,,stimulusFile/physical.xlsx,,,,,,,,,,,,,,,,,,,,,,,,,,,,,,,
,,,,,,,,,,,,,,,771,2022-01-27_22h13.37.118,multiplicationStroop,2021.2.3,Win32,60.66488716,,,,,right,1,0.5587,0,38,38,17,1,2,7,2 | 7,5,1.4111,1.9756,congruent,right,,,,,,stimulusFile/physical.xlsx,,,,,,,,,,,,,,,,,,,,,,,,,,,,,,,
,,,,,,,,,,,,,,,771,2022-01-27_22h13.37.118,multiplicationStroop,2021.2.3,Win32,60.66488716,,,,,right,1,0.6458,0,39,39,45,1,7,2,7 | 2,5,1.4111,1.9756,incongruent,right,,,,,,stimulusFile/physical.xlsx,,,,,,,,,,,,,,,,,,,,,,,,,,,,,,,
,,,,,,,,,,,,,,,771,2022-01-27_22h13.37.118,multiplicationStroop,2021.2.3,Win32,60.66488716,,,,,right,1,0.5012,0,40,40,57,1,2,2,2 | 2,0,1.4111,1.9756,neutral,right,,,,,,stimulusFile/physical.xlsx,,,,,,,,,,,,,,,,,,,,,,,,,,,,,,,
,,,,,,,,,,,,,,,771,2022-01-27_22h13.37.118,multiplicationStroop,2021.2.3,Win32,60.66488716,,,,,right,1,0.6044,0,41,41,39,1,9,7,9 | 7,2,1.4111,1.9756,incongruent,right,,,,,,stimulusFile/physical.xlsx,,,,,,,,,,,,,,,,,,,,,,,,,,,,,,,
,,,,,,,,,,,,,,,771,2022-01-27_22h13.37.118,multiplicationStroop,2021.2.3,Win32,60.66488716,,,,,left,1,0.5,0,42,42,13,1,4,2,4 | 2,2,1.9756,1.4111,congruent,left,,,,,,stimulusFile/physical.xlsx,,,,,,,,,,,,,,,,,,,,,,,,,,,,,,,
,,,,,,,,,,,,,,,771,2022-01-27_22h13.37.118,multiplicationStroop,2021.2.3,Win32,60.66488716,,,,,left,1,0.5185,0,43,43,32,1,1,3,1 | 3,2,1.9756,1.4111,incongruent,left,,,,,,stimulusFile/physical.xlsx,,,,,,,,,,,,,,,,,,,,,,,,,,,,,,,
,,,,,,,,,,,,,,,771,2022-01-27_22h13.37.118,multiplicationStroop,2021.2.3,Win32,60.66488716,,,,,left,1,0.4625,0,44,44,21,1,7,2,7 | 2,5,1.9756,1.4111,congruent,left,,,,,,stimulusFile/physical.xlsx,,,,,,,,,,,,,,,,,,,,,,,,,,,,,,,
,,,,,,,,,,,,,,,771,2022-01-27_22h13.37.118,multiplicationStroop,2021.2.3,Win32,60.66488716,,,,,right,1,0.5703,0,45,45,67,1,4,4,4 | 4,0,1.4111,1.9756,neutral,right,,,,,,stimulusFile/physical.xlsx,,,,,,,,,,,,,,,,,,,,,,,,,,,,,,,
,,,,,,,,,,,,,,,771,2022-01-27_22h13.37.118,multiplicationStroop,2021.2.3,Win32,60.66488716,,,,,right,1,0.5133,0,46,46,59,1,7,7,7 | 7,0,1.4111,1.9756,neutral,right,,,,,,stimulusFile/physical.xlsx,,,,,,,,,,,,,,,,,,,,,,,,,,,,,,,
,,,,,,,,,,,,,,,771,2022-01-27_22h13.37.118,multiplicationStroop,2021.2.3,Win32,60.66488716,,,,,left,1,0.5725,0,47,47,42,1,3,8,3 | 8,5,1.9756,1.4111,incongruent,left,,,,,,stimulusFile/physical.xlsx,,,,,,,,,,,,,,,,,,,,,,,,,,,,,,,
,,,,,,,,,,,,,,,771,2022-01-27_22h13.37.118,multiplicationStroop,2021.2.3,Win32,60.66488716,,,,,right,1,0.4758,0,48,48,9,1,2,4,2 | 4,2,1.4111,1.9756,congruent,right,,,,,,stimulusFile/physical.xlsx,,,,,,,,,,,,,,,,,,,,,,,,,,,,,,,
,,,,,,,,,,,,,,,771,2022-01-27_22h13.37.118,multiplicationStroop,2021.2.3,Win32,60.66488716,,,,,left,1,0.519,0,49,49,24,1,1,2,1 | 2,1,1.9756,1.4111,incongruent,left,,,,,,stimulusFile/physical.xlsx,,,,,,,,,,,,,,,,,,,,,,,,,,,,,,,
,,,,,,,,,,,,,,,771,2022-01-27_22h13.37.118,multiplicationStroop,2021.2.3,Win32,60.66488716,,,,,right,1,0.5083,0,50,50,1,1,3,4,3 | 4,1,1.4111,1.9756,congruent,right,,,,,,stimulusFile/physical.xlsx,,,,,,,,,,,,,,,,,,,,,,,,,,,,,,,
,,,,,,,,,,,,,,,771,2022-01-27_22h13.37.118,multiplicationStroop,2021.2.3,Win32,60.66488716,,,,,left,1,0.4909,0,51,51,51,1,8,8,8 | 8,0,1.9756,1.4111,neutral,left,,,,,,stimulusFile/physical.xlsx,,,,,,,,,,,,,,,,,,,,,,,,,,,,,,,
,,,,,,,,,,,,,,,771,2022-01-27_22h13.37.118,multiplicationStroop,2021.2.3,Win32,60.66488716,,,,,left,1,0.6381,0,52,52,4,1,2,1,2 | 1,1,1.9756,1.4111,congruent,left,,,,,,stimulusFile/physical.xlsx,,,,,,,,,,,,,,,,,,,,,,,,,,,,,,,
,,,,,,,,,,,,,,,771,2022-01-27_22h13.37.118,multiplicationStroop,2021.2.3,Win32,60.66488716,,,,,left,1,0.5197,0,53,53,23,1,9,4,9 | 4,5,1.9756,1.4111,congruent,left,,,,,,stimulusFile/physical.xlsx,,,,,,,,,,,,,,,,,,,,,,,,,,,,,,,
,,,,,,,,,,,,,,,771,2022-01-27_22h13.37.118,multiplicationStroop,2021.2.3,Win32,60.66488716,,,,,right,1,0.5677,0,54,54,8,1,1,3,1 | 3,2,1.4111,1.9756,congruent,right,,,,,,stimulusFile/physical.xlsx,,,,,,,,,,,,,,,,,,,,,,,,,,,,,,,
,,,,,,,,,,,,,,,771,2022-01-27_22h13.37.118,multiplicationStroop,2021.2.3,Win32,60.66488716,,,,,left,1,0.5686,0,55,55,55,1,9,9,9 | 9,0,1.9756,1.4111,neutral,left,,,,,,stimulusFile/physical.xlsx,,,,,,,,,,,,,,,,,,,,,,,,,,,,,,,
,,,,,,,,,,,,,,,771,2022-01-27_22h13.37.118,multiplicationStroop,2021.2.3,Win32,60.66488716,,,,,left,1,0.7086,0,56,56,50,1,6,6,6 | 6,0,1.9756,1.4111,neutral,left,,,,,,stimulusFile/physical.xlsx,,,,,,,,,,,,,,,,,,,,,,,,,,,,,,,
,,,,,,,,,,,,,,,771,2022-01-27_22h13.37.118,multiplicationStroop,2021.2.3,Win32,60.66488716,,,,,left,1,0.5826,0,57,57,48,1,1,1,1 | 1,0,1.9756,1.4111,neutral,left,,,,,,stimulusFile/physical.xlsx,,,,,,,,,,,,,,,,,,,,,,,,,,,,,,,
,,,,,,,,,,,,,,,771,2022-01-27_22h13.37.118,multiplicationStroop,2021.2.3,Win32,60.66488716,,,,,right,1,0.4908,0,58,58,2,1,6,7,6 | 7,1,1.4111,1.9756,congruent,right,,,,,,stimulusFile/physical.xlsx,,,,,,,,,,,,,,,,,,,,,,,,,,,,,,,
,,,,,,,,,,,,,,,771,2022-01-27_22h13.37.118,multiplicationStroop,2021.2.3,Win32,60.66488716,,,,,right,1,0.4716,0,59,59,47,1,9,4,9 | 4,5,1.4111,1.9756,incongruent,right,,,,,,stimulusFile/physical.xlsx,,,,,,,,,,,,,,,,,,,,,,,,,,,,,,,
,,,,,,,,,,,,,,,771,2022-01-27_22h13.37.118,multiplicationStroop,2021.2.3,Win32,60.66488716,,,,,right,1,0.469,0,60,60,60,1,3,3,3 | 3,0,1.4111,1.9756,neutral,right,,,,,,stimulusFile/physical.xlsx,,,,,,,,,,,,,,,,,,,,,,,,,,,,,,,
,,,,,,,,,,,,,,,771,2022-01-27_22h13.37.118,multiplicationStroop,2021.2.3,Win32,60.66488716,,,,,left,0,0.4936,0,61,61,56,1,1,1,1 | 1,0,1.4111,1.9756,neutral,right,,,,,,stimulusFile/physical.xlsx,,,,,,,,,,,,,,,,,,,,,,,,,,,,,,,
,,,,,,,,,,,,,,,771,2022-01-27_22h13.37.118,multiplicationStroop,2021.2.3,Win32,60.66488716,,,,,left,1,0.7135,0,62,62,54,1,7,7,7 | 7,0,1.9756,1.4111,neutral,left,,,,,,stimulusFile/physical.xlsx,,,,,,,,,,,,,,,,,,,,,,,,,,,,,,,
,,,,,,,,,,,,,,,771,2022-01-27_22h13.37.118,multiplicationStroop,2021.2.3,Win32,60.66488716,,,,,left,0,0.6574,0,63,63,64,1,1,1,1 | 1,0,1.9756,1.4111,neutral,right,,,,,,stimulusFile/physical.xlsx,,,,,,,,,,,,,,,,,,,,,,,,,,,,,,,
,,,,,,,,,,,,,,,771,2022-01-27_22h13.37.118,multiplicationStroop,2021.2.3,Win32,60.66488716,,,,,right,1,0.6204,0,64,64,3,1,8,9,8 | 9,1,1.4111,1.9756,congruent,right,,,,,,stimulusFile/physical.xlsx,,,,,,,,,,,,,,,,,,,,,,,,,,,,,,,
,,,,,,,,,,,,,,,771,2022-01-27_22h13.37.118,multiplicationStroop,2021.2.3,Win32,60.66488716,,,,,right,1,0.5127,0,65,65,19,1,4,9,4 | 9,5,1.4111,1.9756,congruent,right,,,,,,stimulusFile/physical.xlsx,,,,,,,,,,,,,,,,,,,,,,,,,,,,,,,
,,,,,,,,,,,,,,,771,2022-01-27_22h13.37.118,multiplicationStroop,2021.2.3,Win32,60.66488716,,,,,right,1,0.4628,0,66,66,18,1,3,8,3 | 8,5,1.4111,1.9756,congruent,right,,,,,,stimulusFile/physical.xlsx,,,,,,,,,,,,,,,,,,,,,,,,,,,,,,,
,,,,,,,,,,,,,,,771,2022-01-27_22h13.37.118,multiplicationStroop,2021.2.3,Win32,60.66488716,,,,,right,1,0.3439,0,67,67,29,1,4,3,4 | 3,1,1.4111,1.9756,incongruent,right,,,,,,stimulusFile/physical.xlsx,,,,,,,,,,,,,,,,,,,,,,,,,,,,,,,
,,,,,,,,,,,,,,,771,2022-01-27_22h13.37.118,multiplicationStroop,2021.2.3,Win32,60.66488716,,,,,right,0,0.4211,0,68,68,71,1,9,9,9 | 9,0,1.4111,1.9756,neutral,left,,,,,,stimulusFile/physical.xlsx,,,,,,,,,,,,,,,,,,,,,,,,,,,,,,,
,,,,,,,,,,,,,,,771,2022-01-27_22h13.37.118,multiplicationStroop,2021.2.3,Win32,60.66488716,,,,,right,1,0.3842,0,69,69,16,1,1,6,1 | 6,5,1.4111,1.9756,congruent,right,,,,,,stimulusFile/physical.xlsx,,,,,,,,,,,,,,,,,,,,,,,,,,,,,,,
,,,,,,,,,,,,,,,771,2022-01-27_22h13.37.118,multiplicationStroop,2021.2.3,Win32,60.66488716,,,,,right,0,0.3255,0,70,70,69,1,7,7,7 | 7,0,1.4111,1.9756,neutral,left,,,,,,stimulusFile/physical.xlsx,,,,,,,,,,,,,,,,,,,,,,,,,,,,,,,
,,,,,,,,,,,,,,,771,2022-01-27_22h13.37.118,multiplicationStroop,2021.2.3,Win32,60.66488716,,,,,right,1,0.343,0,71,71,65,1,2,2,2 | 2,0,1.4111,1.9756,neutral,right,,,,,,stimulusFile/physical.xlsx,,,,,,,,,,,,,,,,,,,,,,,,,,,,,,,
,,,,,,,,,,,,,,,771,2022-01-27_22h13.37.118,multiplicationStroop,2021.2.3,Win32,60.66488716,,,,,,,,,,,,,,,,,,,,,0,0,0,1,1,stimulusFile/physical.xlsx,PHYSICALLY larger (larger font size).,images/physicallyLarger.png,,,,,,,,,,,,,,,,,,,,,,,,,,,,,
,,,,,,,,,,,,,,,771,2022-01-27_22h13.37.118,multiplicationStroop,2021.2.3,Win32,60.66488716,space,16.4962,space,3.481,left,1,0.9826,0,0,0,37,1,4,2,4 | 2,2,1.4111,1.9756,incongruent,left,,,,,,stimulusFile/magnitude.xlsx,,,,,,,,,,,,,,,,,,,,,,,,,,,,,,,
,,,,,,,,,,,,,,,771,2022-01-27_22h13.37.118,multiplicationStroop,2021.2.3,Win32,60.66488716,,,,,right,1,0.9986,0,1,1,8,1,1,3,1 | 3,2,1.4111,1.9756,congruent,right,,,,,,stimulusFile/magnitude.xlsx,,,,,,,,,,,,,,,,,,,,,,,,,,,,,,,
,,,,,,,,,,,,,,,771,2022-01-27_22h13.37.118,multiplicationStroop,2021.2.3,Win32,60.66488716,,,,,left,1,0.8815,0,2,2,38,1,8,6,8 | 6,2,1.4111,1.9756,incongruent,left,,,,,,stimulusFile/magnitude.xlsx,,,,,,,,,,,,,,,,,,,,,,,,,,,,,,,
,,,,,,,,,,,,,,,771,2022-01-27_22h13.37.118,multiplicationStroop,2021.2.3,Win32,60.66488716,,,,,left,1,0.6613,0,3,3,61,1,4,2,4 | 2,2,1.6933,1.6933,neutral,left,,,,,,stimulusFile/magnitude.xlsx,,,,,,,,,,,,,,,,,,,,,,,,,,,,,,,
,,,,,,,,,,,,,,,771,2022-01-27_22h13.37.118,multiplicationStroop,2021.2.3,Win32,60.66488716,,,,,left,1,0.5708,0,4,4,4,1,2,1,2 | 1,1,1.9756,1.4111,congruent,left,,,,,,stimulusFile/magnitude.xlsx,,,,,,,,,,,,,,,,,,,,,,,,,,,,,,,
,,,,,,,,,,,,,,,771,2022-01-27_22h13.37.118,multiplicationStroop,2021.2.3,Win32,60.66488716,,,,,right,1,0.5803,0,5,5,48,1,1,2,1 | 2,1,1.6933,1.6933,neutral,right,,,,,,stimulusFile/magnitude.xlsx,,,,,,,,,,,,,,,,,,,,,,,,,,,,,,,
,,,,,,,,,,,,,,,771,2022-01-27_22h13.37.118,multiplicationStroop,2021.2.3,Win32,60.66488716,,,,,right,1,0.6615,0,6,6,10,1,6,8,6 | 8,2,1.4111,1.9756,congruent,right,,,,,,stimulusFile/magnitude.xlsx,,,,,,,,,,,,,,,,,,,,,,,,,,,,,,,
,,,,,,,,,,,,,,,771,2022-01-27_22h13.37.118,multiplicationStroop,2021.2.3,Win32,60.66488716,,,,,left,1,0.6471,0,7,7,29,1,4,3,4 | 3,1,1.4111,1.9756,incongruent,left,,,,,,stimulusFile/magnitude.xlsx,,,,,,,,,,,,,,,,,,,,,,,,,,,,,,,
,,,,,,,,,,,,,,,771,2022-01-27_22h13.37.118,multiplicationStroop,2021.2.3,Win32,60.66488716,,,,,left,1,0.4792,0,8,8,5,1,4,3,4 | 3,1,1.9756,1.4111,congruent,left,,,,,,stimulusFile/magnitude.xlsx,,,,,,,,,,,,,,,,,,,,,,,,,,,,,,,
,,,,,,,,,,,,,,,771,2022-01-27_22h13.37.118,multiplicationStroop,2021.2.3,Win32,60.66488716,,,,,left,1,0.6883,0,9,9,62,1,8,6,8 | 6,2,1.6933,1.6933,neutral,left,,,,,,stimulusFile/magnitude.xlsx,,,,,,,,,,,,,,,,,,,,,,,,,,,,,,,
,,,,,,,,,,,,,,,771,2022-01-27_22h13.37.118,multiplicationStroop,2021.2.3,Win32,60.66488716,,,,,left,1,0.7542,0,10,10,55,1,9,8,9 | 8,1,1.6933,1.6933,neutral,left,,,,,,stimulusFile/magnitude.xlsx,,,,,,,,,,,,,,,,,,,,,,,,,,,,,,,
,,,,,,,,,,,,,,,771,2022-01-27_22h13.37.118,multiplicationStroop,2021.2.3,Win32,60.66488716,,,,,right,1,0.6257,0,11,11,51,1,8,9,8 | 9,1,1.6933,1.6933,neutral,right,,,,,,stimulusFile/magnitude.xlsx,,,,,,,,,,,,,,,,,,,,,,,,,,,,,,,
,,,,,,,,,,,,,,,771,2022-01-27_22h13.37.118,multiplicationStroop,2021.2.3,Win32,60.66488716,,,,,left,1,0.5138,0,12,12,28,1,2,1,2 | 1,1,1.4111,1.9756,incongruent,left,,,,,,stimulusFile/magnitude.xlsx,,,,,,,,,,,,,,,,,,,,,,,,,,,,,,,
,,,,,,,,,,,,,,,771,2022-01-27_22h13.37.118,multiplicationStroop,2021.2.3,Win32,60.66488716,,,,,right,1,0.6393,0,13,13,2,1,6,7,6 | 7,1,1.4111,1.9756,congruent,right,,,,,,stimulusFile/magnitude.xlsx,,,,,,,,,,,,,,,,,,,,,,,,,,,,,,,
,,,,,,,,,,,,,,,771,2022-01-27_22h13.37.118,multiplicationStroop,2021.2.3,Win32,60.66488716,,,,,left,0,0.4851,0,14,14,33,1,2,4,2 | 4,2,1.9756,1.4111,incongruent,right,,,,,,stimulusFile/magnitude.xlsx,,,,,,,,,,,,,,,,,,,,,,,,,,,,,,,
,,,,,,,,,,,,,,,771,2022-01-27_22h13.37.118,multiplicationStroop,2021.2.3,Win32,60.66488716,,,,,left,1,0.6179,0,15,15,21,1,7,2,7 | 2,5,1.9756,1.4111,congruent,left,,,,,,stimulusFile/magnitude.xlsx,,,,,,,,,,,,,,,,,,,,,,,,,,,,,,,
,,,,,,,,,,,,,,,771,2022-01-27_22h13.37.118,multiplicationStroop,2021.2.3,Win32,60.66488716,,,,,right,1,0.6577,0,16,16,67,1,4,9,4 | 9,5,1.6933,1.6933,neutral,right,,,,,,stimulusFile/magnitude.xlsx,,,,,,,,,,,,,,,,,,,,,,,,,,,,,,,
,,,,,,,,,,,,,,,771,2022-01-27_22h13.37.118,multiplicationStroop,2021.2.3,Win32,60.66488716,,,,,left,1,0.658,0,17,17,60,1,3,1,3 | 1,2,1.6933,1.6933,neutral,left,,,,,,stimulusFile/magnitude.xlsx,,,,,,,,,,,,,,,,,,,,,,,,,,,,,,,
,,,,,,,,,,,,,,,771,2022-01-27_22h13.37.118,multiplicationStroop,2021.2.3,Win32,60.66488716,,,,,right,1,0.6702,0,18,18,64,1,1,6,1 | 6,5,1.6933,1.6933,neutral,right,,,,,,stimulusFile/magnitude.xlsx,,,,,,,,,,,,,,,,,,,,,,,,,,,,,,,
,,,,,,,,,,,,,,,771,2022-01-27_22h13.37.118,multiplicationStroop,2021.2.3,Win32,60.66488716,,,,,left,1,0.5507,0,19,19,15,1,9,7,9 | 7,2,1.9756,1.4111,congruent,left,,,,,,stimulusFile/magnitude.xlsx,,,,,,,,,,,,,,,,,,,,,,,,,,,,,,,
,,,,,,,,,,,,,,,771,2022-01-27_22h13.37.118,multiplicationStroop,2021.2.3,Win32,60.66488716,,,,,right,1,0.6549,0,20,20,49,1,3,4,3 | 4,1,1.6933,1.6933,neutral,right,,,,,,stimulusFile/magnitude.xlsx,,,,,,,,,,,,,,,,,,,,,,,,,,,,,,,
,,,,,,,,,,,,,,,771,2022-01-27_22h13.37.118,multiplicationStroop,2021.2.3,Win32,60.66488716,,,,,right,1,0.6923,0,21,21,42,1,3,8,3 | 8,5,1.9756,1.4111,incongruent,right,,,,,,stimulusFile/magnitude.xlsx,,,,,,,,,,,,,,,,,,,,,,,,,,,,,,,
,,,,,,,,,,,,,,,771,2022-01-27_22h13.37.118,multiplicationStroop,2021.2.3,Win32,60.66488716,,,,,right,1,0.64,0,22,22,40,1,1,6,1 | 6,5,1.9756,1.4111,incongruent,right,,,,,,stimulusFile/magnitude.xlsx,,,,,,,,,,,,,,,,,,,,,,,,,,,,,,,
,,,,,,,,,,,,,,,771,2022-01-27_22h13.37.118,multiplicationStroop,2021.2.3,Win32,60.66488716,,,,,left,1,0.5081,0,23,23,22,1,8,3,8 | 3,5,1.9756,1.4111,congruent,left,,,,,,stimulusFile/magnitude.xlsx,,,,,,,,,,,,,,,,,,,,,,,,,,,,,,,
,,,,,,,,,,,,,,,771,2022-01-27_22h13.37.118,multiplicationStroop,2021.2.3,Win32,60.66488716,,,,,right,1,0.7001,0,24,24,50,1,6,7,6 | 7,1,1.6933,1.6933,neutral,right,,,,,,stimulusFile/magnitude.xlsx,,,,,,,,,,,,,,,,,,,,,,,,,,,,,,,
,,,,,,,,,,,,,,,771,2022-01-27_22h13.37.118,multiplicationStroop,2021.2.3,Win32,60.66488716,,,,,left,1,0.525,0,25,25,20,1,6,1,6 | 1,5,1.9756,1.4111,congruent,left,,,,,,stimulusFile/magnitude.xlsx,,,,,,,,,,,,,,,,,,,,,,,,,,,,,,,
,,,,,,,,,,,,,,,771,2022-01-27_22h13.37.118,multiplicationStroop,2021.2.3,Win32,60.66488716,,,,,left,1,0.8665,0,26,26,6,1,7,6,7 | 6,1,1.9756,1.4111,congruent,left,,,,,,stimulusFile/magnitude.xlsx,,,,,,,,,,,,,,,,,,,,,,,,,,,,,,,
,,,,,,,,,,,,,,,771,2022-01-27_22h13.37.118,multiplicationStroop,2021.2.3,Win32,60.66488716,,,,,right,1,0.687,0,27,27,11,1,7,9,7 | 9,2,1.4111,1.9756,congruent,right,,,,,,stimulusFile/magnitude.xlsx,,,,,,,,,,,,,,,,,,,,,,,,,,,,,,,
,,,,,,,,,,,,,,,771,2022-01-27_22h13.37.118,multiplicationStroop,2021.2.3,Win32,60.66488716,,,,,right,1,0.7079,0,28,28,3,1,8,9,8 | 9,1,1.4111,1.9756,congruent,right,,,,,,stimulusFile/magnitude.xlsx,,,,,,,,,,,,,,,,,,,,,,,,,,,,,,,
,,,,,,,,,,,,,,,771,2022-01-27_22h13.37.118,multiplicationStroop,2021.2.3,Win32,60.66488716,,,,,right,1,0.7865,0,29,29,18,1,3,8,3 | 8,5,1.4111,1.9756,congruent,right,,,,,,stimulusFile/magnitude.xlsx,,,,,,,,,,,,,,,,,,,,,,,,,,,,,,,
,,,,,,,,,,,,,,,771,2022-01-27_22h13.37.118,multiplicationStroop,2021.2.3,Win32,60.66488716,,,,,left,1,0.6682,0,30,30,70,1,8,3,8 | 3,5,1.6933,1.6933,neutral,left,,,,,,stimulusFile/magnitude.xlsx,,,,,,,,,,,,,,,,,,,,,,,,,,,,,,,
,,,,,,,,,,,,,,,771,2022-01-27_22h13.37.118,multiplicationStroop,2021.2.3,Win32,60.66488716,,,,,left,1,0.8255,0,31,31,53,1,4,3,4 | 3,1,1.6933,1.6933,neutral,left,,,,,,stimulusFile/magnitude.xlsx,,,,,,,,,,,,,,,,,,,,,,,,,,,,,,,
,,,,,,,,,,,,,,,771,2022-01-27_22h13.37.118,multiplicationStroop,2021.2.3,Win32,60.66488716,,,,,left,1,0.8923,0,32,32,31,1,9,8,9 | 8,1,1.4111,1.9756,incongruent,left,,,,,,stimulusFile/magnitude.xlsx,,,,,,,,,,,,,,,,,,,,,,,,,,,,,,,
,,,,,,,,,,,,,,,771,2022-01-27_22h13.37.118,multiplicationStroop,2021.2.3,Win32,60.66488716,,,,,left,1,0.9138,0,33,33,7,1,9,8,9 | 8,1,1.9756,1.4111,congruent,left,,,,,,stimulusFile/magnitude.xlsx,,,,,,,,,,,,,,,,,,,,,,,,,,,,,,,
,,,,,,,,,,,,,,,771,2022-01-27_22h13.37.118,multiplicationStroop,2021.2.3,Win32,60.66488716,,,,,right,1,0.7342,0,34,34,0,1,1,2,1 | 2,1,1.4111,1.9756,congruent,right,,,,,,stimulusFile/magnitude.xlsx,,,,,,,,,,,,,,,,,,,,,,,,,,,,,,,
,,,,,,,,,,,,,,,771,2022-01-27_22h13.37.118,multiplicationStroop,2021.2.3,Win32,60.66488716,,,,,right,1,0.7044,0,35,35,17,1,2,7,2 | 7,5,1.4111,1.9756,congruent,right,,,,,,stimulusFile/magnitude.xlsx,,,,,,,,,,,,,,,,,,,,,,,,,,,,,,,
,,,,,,,,,,,,,,,771,2022-01-27_22h13.37.118,multiplicationStroop,2021.2.3,Win32,60.66488716,,,,,left,1,0.532,0,36,36,13,1,4,2,4 | 2,2,1.9756,1.4111,congruent,left,,,,,,stimulusFile/magnitude.xlsx,,,,,,,,,,,,,,,,,,,,,,,,,,,,,,,
,,,,,,,,,,,,,,,771,2022-01-27_22h13.37.118,multiplicationStroop,2021.2.3,Win32,60.66488716,,,,,right,1,0.6853,0,37,37,41,1,2,7,2 | 7,5,1.9756,1.4111,incongruent,right,,,,,,stimulusFile/magnitude.xlsx,,,,,,,,,,,,,,,,,,,,,,,,,,,,,,,
,,,,,,,,,,,,,,,771,2022-01-27_22h13.37.118,multiplicationStroop,2021.2.3,Win32,60.66488716,,,,,left,1,0.668,0,38,38,36,1,3,1,3 | 1,2,1.4111,1.9756,incongruent,left,,,,,,stimulusFile/magnitude.xlsx,,,,,,,,,,,,,,,,,,,,,,,,,,,,,,,
,,,,,,,,,,,,,,,771,2022-01-27_22h13.37.118,multiplicationStroop,2021.2.3,Win32,60.66488716,,,,,left,1,0.6801,0,39,39,14,1,8,6,8 | 6,2,1.9756,1.4111,congruent,left,,,,,,stimulusFile/magnitude.xlsx,,,,,,,,,,,,,,,,,,,,,,,,,,,,,,,
,,,,,,,,,,,,,,,771,2022-01-27_22h13.37.118,multiplicationStroop,2021.2.3,Win32,60.66488716,,,,,left,1,0.726,0,40,40,45,1,7,2,7 | 2,5,1.4111,1.9756,incongruent,left,,,,,,stimulusFile/magnitude.xlsx,,,,,,,,,,,,,,,,,,,,,,,,,,,,,,,
,,,,,,,,,,,,,,,771,2022-01-27_22h13.37.118,multiplicationStroop,2021.2.3,Win32,60.66488716,,,,,left,1,0.5673,0,41,41,71,1,9,4,9 | 4,5,1.6933,1.6933,neutral,left,,,,,,stimulusFile/magnitude.xlsx,,,,,,,,,,,,,,,,,,,,,,,,,,,,,,,
,,,,,,,,,,,,,,,771,2022-01-27_22h13.37.118,multiplicationStroop,2021.2.3,Win32,60.66488716,,,,,right,1,0.7395,0,42,42,9,1,2,4,2 | 4,2,1.4111,1.9756,congruent,right,,,,,,stimulusFile/magnitude.xlsx,,,,,,,,,,,,,,,,,,,,,,,,,,,,,,,
,,,,,,,,,,,,,,,771,2022-01-27_22h13.37.118,multiplicationStroop,2021.2.3,Win32,60.66488716,,,,,left,1,0.5046,0,43,43,12,1,3,1,3 | 1,2,1.9756,1.4111,congruent,left,,,,,,stimulusFile/magnitude.xlsx,,,,,,,,,,,,,,,,,,,,,,,,,,,,,,,
,,,,,,,,,,,,,,,771,2022-01-27_22h13.37.118,multiplicationStroop,2021.2.3,Win32,60.66488716,,,,,right,1,0.8389,0,44,44,26,1,6,7,6 | 7,1,1.9756,1.4111,incongruent,right,,,,,,stimulusFile/magnitude.xlsx,,,,,,,,,,,,,,,,,,,,,,,,,,,,,,,
,,,,,,,,,,,,,,,771,2022-01-27_22h13.37.118,multiplicationStroop,2021.2.3,Win32,60.66488716,,,,,right,1,0.6566,0,45,45,1,1,3,4,3 | 4,1,1.4111,1.9756,congruent,right,,,,,,stimulusFile/magnitude.xlsx,,,,,,,,,,,,,,,,,,,,,,,,,,,,,,,
,,,,,,,,,,,,,,,771,2022-01-27_22h13.37.118,multiplicationStroop,2021.2.3,Win32,60.66488716,,,,,right,1,0.7946,0,46,46,27,1,8,9,8 | 9,1,1.9756,1.4111,incongruent,right,,,,,,stimulusFile/magnitude.xlsx,,,,,,,,,,,,,,,,,,,,,,,,,,,,,,,
,,,,,,,,,,,,,,,771,2022-01-27_22h13.37.118,multiplicationStroop,2021.2.3,Win32,60.66488716,,,,,right,1,0.8575,0,47,47,65,1,2,7,2 | 7,5,1.6933,1.6933,neutral,right,,,,,,stimulusFile/magnitude.xlsx,,,,,,,,,,,,,,,,,,,,,,,,,,,,,,,
,,,,,,,,,,,,,,,771,2022-01-27_22h13.37.118,multiplicationStroop,2021.2.3,Win32,60.66488716,,,,,left,1,0.6016,0,48,48,69,1,7,2,7 | 2,5,1.6933,1.6933,neutral,left,,,,,,stimulusFile/magnitude.xlsx,,,,,,,,,,,,,,,,,,,,,,,,,,,,,,,
,,,,,,,,,,,,,,,771,2022-01-27_22h13.37.118,multiplicationStroop,2021.2.3,Win32,60.66488716,,,,,left,1,0.7622,0,49,49,30,1,7,6,7 | 6,1,1.4111,1.9756,incongruent,left,,,,,,stimulusFile/magnitude.xlsx,,,,,,,,,,,,,,,,,,,,,,,,,,,,,,,
,,,,,,,,,,,,,,,771,2022-01-27_22h13.37.118,multiplicationStroop,2021.2.3,Win32,60.66488716,,,,,right,1,0.5543,0,50,50,66,1,3,8,3 | 8,5,1.6933,1.6933,neutral,right,,,,,,stimulusFile/magnitude.xlsx,,,,,,,,,,,,,,,,,,,,,,,,,,,,,,,
,,,,,,,,,,,,,,,771,2022-01-27_22h13.37.118,multiplicationStroop,2021.2.3,Win32,60.66488716,,,,,right,1,0.7338,0,51,51,24,1,1,2,1 | 2,1,1.9756,1.4111,incongruent,right,,,,,,stimulusFile/magnitude.xlsx,,,,,,,,,,,,,,,,,,,,,,,,,,,,,,,
,,,,,,,,,,,,,,,771,2022-01-27_22h13.37.118,multiplicationStroop,2021.2.3,Win32,60.66488716,,,,,left,1,0.5257,0,52,52,68,1,6,1,6 | 1,5,1.6933,1.6933,neutral,left,,,,,,stimulusFile/magnitude.xlsx,,,,,,,,,,,,,,,,,,,,,,,,,,,,,,,
,,,,,,,,,,,,,,,771,2022-01-27_22h13.37.118,multiplicationStroop,2021.2.3,Win32,60.66488716,,,,,right,1,0.6349,0,53,53,59,1,7,9,7 | 9,2,1.6933,1.6933,neutral,right,,,,,,stimulusFile/magnitude.xlsx,,,,,,,,,,,,,,,,,,,,,,,,,,,,,,,
,,,,,,,,,,,,,,,771,2022-01-27_22h13.37.118,multiplicationStroop,2021.2.3,Win32,60.66488716,,,,,left,1,0.6842,0,54,54,23,1,9,4,9 | 4,5,1.9756,1.4111,congruent,left,,,,,,stimulusFile/magnitude.xlsx,,,,,,,,,,,,,,,,,,,,,,,,,,,,,,,
,,,,,,,,,,,,,,,771,2022-01-27_22h13.37.118,multiplicationStroop,2021.2.3,Win32,60.66488716,,,,,left,1,0.7379,0,55,55,47,1,9,4,9 | 4,5,1.4111,1.9756,incongruent,left,,,,,,stimulusFile/magnitude.xlsx,,,,,,,,,,,,,,,,,,,,,,,,,,,,,,,
,,,,,,,,,,,,,,,771,2022-01-27_22h13.37.118,multiplicationStroop,2021.2.3,Win32,60.66488716,,,,,left,1,0.5718,0,56,56,39,1,9,7,9 | 7,2,1.4111,1.9756,incongruent,left,,,,,,stimulusFile/magnitude.xlsx,,,,,,,,,,,,,,,,,,,,,,,,,,,,,,,
,,,,,,,,,,,,,,,771,2022-01-27_22h13.37.118,multiplicationStroop,2021.2.3,Win32,60.66488716,,,,,right,1,0.7271,0,57,57,57,1,2,4,2 | 4,2,1.6933,1.6933,neutral,right,,,,,,stimulusFile/magnitude.xlsx,,,,,,,,,,,,,,,,,,,,,,,,,,,,,,,
,,,,,,,,,,,,,,,771,2022-01-27_22h13.37.118,multiplicationStroop,2021.2.3,Win32,60.66488716,,,,,left,1,0.5564,0,58,58,46,1,8,3,8 | 3,5,1.4111,1.9756,incongruent,left,,,,,,stimulusFile/magnitude.xlsx,,,,,,,,,,,,,,,,,,,,,,,,,,,,,,,
,,,,,,,,,,,,,,,771,2022-01-27_22h13.37.118,multiplicationStroop,2021.2.3,Win32,60.66488716,,,,,right,1,0.6844,0,59,59,25,1,3,4,3 | 4,1,1.9756,1.4111,incongruent,right,,,,,,stimulusFile/magnitude.xlsx,,,,,,,,,,,,,,,,,,,,,,,,,,,,,,,
,,,,,,,,,,,,,,,771,2022-01-27_22h13.37.118,multiplicationStroop,2021.2.3,Win32,60.66488716,,,,,right,1,0.6182,0,60,60,32,1,1,3,1 | 3,2,1.9756,1.4111,incongruent,right,,,,,,stimulusFile/magnitude.xlsx,,,,,,,,,,,,,,,,,,,,,,,,,,,,,,,
,,,,,,,,,,,,,,,771,2022-01-27_22h13.37.118,multiplicationStroop,2021.2.3,Win32,60.66488716,,,,,right,1,0.6034,0,61,61,43,1,4,9,4 | 9,5,1.9756,1.4111,incongruent,right,,,,,,stimulusFile/magnitude.xlsx,,,,,,,,,,,,,,,,,,,,,,,,,,,,,,,
,,,,,,,,,,,,,,,771,2022-01-27_22h13.37.118,multiplicationStroop,2021.2.3,Win32,60.66488716,,,,,right,1,0.5043,0,62,62,19,1,4,9,4 | 9,5,1.4111,1.9756,congruent,right,,,,,,stimulusFile/magnitude.xlsx,,,,,,,,,,,,,,,,,,,,,,,,,,,,,,,
,,,,,,,,,,,,,,,771,2022-01-27_22h13.37.118,multiplicationStroop,2021.2.3,Win32,60.66488716,,,,,left,1,0.5662,0,63,63,52,1,2,1,2 | 1,1,1.6933,1.6933,neutral,left,,,,,,stimulusFile/magnitude.xlsx,,,,,,,,,,,,,,,,,,,,,,,,,,,,,,,
,,,,,,,,,,,,,,,771,2022-01-27_22h13.37.118,multiplicationStroop,2021.2.3,Win32,60.66488716,,,,,left,1,1.1687,0,64,64,54,1,7,6,7 | 6,1,1.6933,1.6933,neutral,left,,,,,,stimulusFile/magnitude.xlsx,,,,,,,,,,,,,,,,,,,,,,,,,,,,,,,
,,,,,,,,,,,,,,,771,2022-01-27_22h13.37.118,multiplicationStroop,2021.2.3,Win32,60.66488716,,,,,left,1,0.5862,0,65,65,63,1,9,7,9 | 7,2,1.6933,1.6933,neutral,left,,,,,,stimulusFile/magnitude.xlsx,,,,,,,,,,,,,,,,,,,,,,,,,,,,,,,
,,,,,,,,,,,,,,,771,2022-01-27_22h13.37.118,multiplicationStroop,2021.2.3,Win32,60.66488716,,,,,right,1,0.5278,0,66,66,58,1,6,8,6 | 8,2,1.6933,1.6933,neutral,right,,,,,,stimulusFile/magnitude.xlsx,,,,,,,,,,,,,,,,,,,,,,,,,,,,,,,
,,,,,,,,,,,,,,,771,2022-01-27_22h13.37.118,multiplicationStroop,2021.2.3,Win32,60.66488716,,,,,right,1,0.6596,0,67,67,56,1,1,3,1 | 3,2,1.6933,1.6933,neutral,right,,,,,,stimulusFile/magnitude.xlsx,,,,,,,,,,,,,,,,,,,,,,,,,,,,,,,
,,,,,,,,,,,,,,,771,2022-01-27_22h13.37.118,multiplicationStroop,2021.2.3,Win32,60.66488716,,,,,right,1,0.6131,0,68,68,35,1,7,9,7 | 9,2,1.9756,1.4111,incongruent,right,,,,,,stimulusFile/magnitude.xlsx,,,,,,,,,,,,,,,,,,,,,,,,,,,,,,,
,,,,,,,,,,,,,,,771,2022-01-27_22h13.37.118,multiplicationStroop,2021.2.3,Win32,60.66488716,,,,,right,1,0.6409,0,69,69,34,1,6,8,6 | 8,2,1.9756,1.4111,incongruent,right,,,,,,stimulusFile/magnitude.xlsx,,,,,,,,,,,,,,,,,,,,,,,,,,,,,,,
,,,,,,,,,,,,,,,771,2022-01-27_22h13.37.118,multiplicationStroop,2021.2.3,Win32,60.66488716,,,,,right,1,0.6584,0,70,70,16,1,1,6,1 | 6,5,1.4111,1.9756,congruent,right,,,,,,stimulusFile/magnitude.xlsx,,,,,,,,,,,,,,,,,,,,,,,,,,,,,,,
,,,,,,,,,,,,,,,771,2022-01-27_22h13.37.118,multiplicationStroop,2021.2.3,Win32,60.66488716,,,,,left,1,0.552,0,71,71,44,1,6,1,6 | 1,5,1.4111,1.9756,incongruent,left,,,,,,stimulusFile/magnitude.xlsx,,,,,,,,,,,,,,,,,,,,,,,,,,,,,,,
,,,,,,,,,,,,,,,771,2022-01-27_22h13.37.118,multiplicationStroop,2021.2.3,Win32,60.66488716,,,,,,,,,,,,,,,,,,,,,0,1,1,0,1,stimulusFile/magnitude.xlsx,NUMERICALLY larger (larger coefficient).,images/numericallyLarger.png,,,,,,,,,,,,,,,,,,,,,,,,,,,,,
,,,,,,,,,,,,,,,771,2022-01-27_22h13.37.118,multiplicationStroop,2021.2.3,Win32,60.66488716,,,,,,,,,,,,,,,,,,,,,,,,,,,,,space,7.6438,space,2.6729,27,5.1067,1,0,0,0,4,1,3,×,9,3 × 9,incongruent,smallerFirst,2,1,27,,,,,,,,
,,,,,,,,,,,,,,,771,2022-01-27_22h13.37.118,multiplicationStroop,2021.2.3,Win32,60.66488716,,,,,,,,,,,,,,,,,,,,,,,,,,,,,,,,,56,18.1135,1,0,1,1,0,1,7,×,8,7 × 8,incongruent,smallerFirst,2,1,56,,,,,,,,
,,,,,,,,,,,,,,,771,2022-01-27_22h13.37.118,multiplicationStroop,2021.2.3,Win32,60.66488716,,,,,,,,,,,,,,,,,,,,,,,,,,,,,,,,,15,2.5457,1,0,2,2,24,1,5,×,3,5 × 3,incongruent,largerFirst,1,2,15,,,,,,,,
,,,,,,,,,,,,,,,771,2022-01-27_22h13.37.118,multiplicationStroop,2021.2.3,Win32,60.66488716,,,,,,,,,,,,,,,,,,,,,,,,,,,,,,,,,18,2.469,1,0,3,3,16,1,9,×,2,9 × 2,incongruent,largerFirst,1,2,18,,,,,,,,
,,,,,,,,,,,,,,,771,2022-01-27_22h13.37.118,multiplicationStroop,2021.2.3,Win32,60.66488716,,,,,,,,,,,,,,,,,,,,,,,,,,,,,,,,,45,3.5271,1,0,4,4,8,1,5,×,9,5 × 9,incongruent,smallerFirst,2,1,45,,,,,,,,
,,,,,,,,,,,,,,,771,2022-01-27_22h13.37.118,multiplicationStroop,2021.2.3,Win32,60.66488716,,,,,,,,,,,,,,,,,,,,,,,,,,,,,,,,,10,1.8019,1,0,5,5,7,1,2,×,5,2 × 5,incongruent,smallerFirst,2,1,10,,,,,,,,
,,,,,,,,,,,,,,,771,2022-01-27_22h13.37.118,multiplicationStroop,2021.2.3,Win32,60.66488716,,,,,,,,,,,,,,,,,,,,,,,,,,,,,,,,,21,3.8291,1,0,6,6,12,1,3,×,7,3 × 7,incongruent,smallerFirst,2,1,21,,,,,,,,
,,,,,,,,,,,,,,,771,2022-01-27_22h13.37.118,multiplicationStroop,2021.2.3,Win32,60.66488716,,,,,,,,,,,,,,,,,,,,,,,,,,,,,,,,,14,2.0018,1,0,7,7,18,1,7,×,2,7 × 2,incongruent,largerFirst,1,2,14,,,,,,,,
,,,,,,,,,,,,,,,771,2022-01-27_22h13.37.118,multiplicationStroop,2021.2.3,Win32,60.66488716,,,,,,,,,,,,,,,,,,,,,,,,,,,,,,,,,36,2.1967,1,0,8,8,32,1,6,×,6,6 × 6,neutral,tie,2,1,36,,,,,,,,
,,,,,,,,,,,,,,,771,2022-01-27_22h13.37.118,multiplicationStroop,2021.2.3,Win32,60.66488716,,,,,,,,,,,,,,,,,,,,,,,,,,,,,,,,,9,1.8369,1,0,9,9,29,1,3,×,3,3 × 3,neutral,tie,2,1,9,,,,,,,,
,,,,,,,,,,,,,,,771,2022-01-27_22h13.37.118,multiplicationStroop,2021.2.3,Win32,60.66488716,,,,,,,,,,,,,,,,,,,,,,,,,,,,,,,,,63,12.6235,1,0,10,10,17,1,9,×,7,9 × 7,incongruent,largerFirst,1,2,63,,,,,,,,
,,,,,,,,,,,,,,,771,2022-01-27_22h13.37.118,multiplicationStroop,2021.2.3,Win32,60.66488716,,,,,,,,,,,,,,,,,,,,,,,,,,,,,,,,,18,3.4493,1,0,11,11,22,1,6,×,3,6 × 3,incongruent,largerFirst,1,2,18,,,,,,,,
,,,,,,,,,,,,,,,771,2022-01-27_22h13.37.118,multiplicationStroop,2021.2.3,Win32,60.66488716,,,,,,,,,,,,,,,,,,,,,,,,,,,,,,,,,16,6.1463,1,0,12,12,9,1,2,×,8,2 × 8,incongruent,smallerFirst,2,1,16,,,,,,,,
,,,,,,,,,,,,,,,771,2022-01-27_22h13.37.118,multiplicationStroop,2021.2.3,Win32,60.66488716,,,,,,,,,,,,,,,,,,,,,,,,,,,,,,,,,24,3.3182,1,0,13,13,6,1,4,×,6,4 × 6,incongruent,smallerFirst,2,1,24,,,,,,,,
,,,,,,,,,,,,,,,771,2022-01-27_22h13.37.118,multiplicationStroop,2021.2.3,Win32,60.66488716,,,,,,,,,,,,,,,,,,,,,,,,,,,,,,,,,8,1.8354,1,0,14,14,10,1,2,×,4,2 × 4,incongruent,smallerFirst,2,1,8,,,,,,,,
,,,,,,,,,,,,,,,771,2022-01-27_22h13.37.118,multiplicationStroop,2021.2.3,Win32,60.66488716,,,,,,,,,,,,,,,,,,,,,,,,,,,,,,,,,36,6.1632,1,0,15,15,1,1,4,×,9,4 × 9,incongruent,smallerFirst,2,1,36,,,,,,,,
,,,,,,,,,,,,,,,771,2022-01-27_22h13.37.118,multiplicationStroop,2021.2.3,Win32,60.66488716,,,,,,,,,,,,,,,,,,,,,,,,,,,,,,,,,35,2.7687,1,0,16,16,26,1,7,×,5,7 × 5,incongruent,largerFirst,1,2,35,,,,,,,,
,,,,,,,,,,,,,,,771,2022-01-27_22h13.37.118,multiplicationStroop,2021.2.3,Win32,60.66488716,,,,,,,,,,,,,,,,,,,,,,,,,,,,,,,,,20,2.2143,1,0,17,17,13,1,4,×,5,4 × 5,incongruent,smallerFirst,2,1,20,,,,,,,,
,,,,,,,,,,,,,,,771,2022-01-27_22h13.37.118,multiplicationStroop,2021.2.3,Win32,60.66488716,,,,,,,,,,,,,,,,,,,,,,,,,,,,,,,,,54,5.7461,1,0,18,18,20,1,9,×,6,9 × 6,incongruent,largerFirst,1,2,54,,,,,,,,
,,,,,,,,,,,,,,,771,2022-01-27_22h13.37.118,multiplicationStroop,2021.2.3,Win32,60.66488716,,,,,,,,,,,,,,,,,,,,,,,,,,,,,,,,,49,2.6692,1,0,19,19,33,1,7,×,7,7 × 7,neutral,tie,2,1,49,,,,,,,,
,,,,,,,,,,,,,,,771,2022-01-27_22h13.37.118,multiplicationStroop,2021.2.3,Win32,60.66488716,,,,,,,,,,,,,,,,,,,,,,,,,,,,,,,,,40,2.6021,1,0,20,20,27,1,8,×,5,8 × 5,incongruent,largerFirst,1,2,40,,,,,,,,
,,,,,,,,,,,,,,,771,2022-01-27_22h13.37.118,multiplicationStroop,2021.2.3,Win32,60.66488716,,,,,,,,,,,,,,,,,,,,,,,,,,,,,,,,,42,2.4639,1,0,21,21,3,1,6,×,7,6 × 7,incongruent,smallerFirst,2,1,42,,,,,,,,
,,,,,,,,,,,,,,,771,2022-01-27_22h13.37.118,multiplicationStroop,2021.2.3,Win32,60.66488716,,,,,,,,,,,,,,,,,,,,,,,,,,,,,,,,,6,1.7803,1,0,22,22,25,1,3,×,2,3 × 2,incongruent,largerFirst,1,2,6,,,,,,,,
,,,,,,,,,,,,,,,771,2022-01-27_22h13.37.118,multiplicationStroop,2021.2.3,Win32,60.66488716,,,,,,,,,,,,,,,,,,,,,,,,,,,,,,,,,28,2.2686,1,0,23,23,2,1,4,×,7,4 × 7,incongruent,smallerFirst,2,1,28,,,,,,,,
,,,,,,,,,,,,,,,771,2022-01-27_22h13.37.118,multiplicationStroop,2021.2.3,Win32,60.66488716,,,,,,,,,,,,,,,,,,,,,,,,,,,,,,,,,72,5.5935,1,0,24,24,14,1,9,×,8,9 × 8,incongruent,largerFirst,1,2,72,,,,,,,,
,,,,,,,,,,,,,,,771,2022-01-27_22h13.37.118,multiplicationStroop,2021.2.3,Win32,60.66488716,,,,,,,,,,,,,,,,,,,,,,,,,,,,,,,,,30,2.8518,1,0,25,25,11,1,5,×,6,5 × 6,incongruent,smallerFirst,2,1,30,,,,,,,,
,,,,,,,,,,,,,,,771,2022-01-27_22h13.37.118,multiplicationStroop,2021.2.3,Win32,60.66488716,,,,,,,,,,,,,,,,,,,,,,,,,,,,,,,,,4,1.5688,1,0,26,26,28,1,2,×,2,2 × 2,neutral,tie,2,1,4,,,,,,,,
,,,,,,,,,,,,,,,771,2022-01-27_22h13.37.118,multiplicationStroop,2021.2.3,Win32,60.66488716,,,,,,,,,,,,,,,,,,,,,,,,,,,,,,,,,32,7.9813,1,0,27,27,21,1,8,×,4,8 × 4,incongruent,largerFirst,1,2,32,,,,,,,,
,,,,,,,,,,,,,,,771,2022-01-27_22h13.37.118,multiplicationStroop,2021.2.3,Win32,60.66488716,,,,,,,,,,,,,,,,,,,,,,,,,,,,,,,,,25,3.1333,1,0,28,28,31,1,5,×,5,5 × 5,neutral,tie,2,1,25,,,,,,,,
,,,,,,,,,,,,,,,771,2022-01-27_22h13.37.118,multiplicationStroop,2021.2.3,Win32,60.66488716,,,,,,,,,,,,,,,,,,,,,,,,,,,,,,,,,12,1.611,1,0,29,29,19,1,4,×,3,4 × 3,incongruent,largerFirst,1,2,12,,,,,,,,
,,,,,,,,,,,,,,,771,2022-01-27_22h13.37.118,multiplicationStroop,2021.2.3,Win32,60.66488716,,,,,,,,,,,,,,,,,,,,,,,,,,,,,,,,,48,6.8833,1,0,30,30,15,1,8,×,6,8 × 6,incongruent,largerFirst,1,2,48,,,,,,,,
,,,,,,,,,,,,,,,771,2022-01-27_22h13.37.118,multiplicationStroop,2021.2.3,Win32,60.66488716,,,,,,,,,,,,,,,,,,,,,,,,,,,,,,,,,8,2.5311,0,0,31,31,35,1,9,×,9,9 × 9,neutral,tie,2,1,81,,,,,,,,
,,,,,,,,,,,,,,,771,2022-01-27_22h13.37.118,multiplicationStroop,2021.2.3,Win32,60.66488716,,,,,,,,,,,,,,,,,,,,,,,,,,,,,,,,,12,3.0221,1,0,32,32,5,1,2,×,6,2 × 6,incongruent,smallerFirst,2,1,12,,,,,,,,
,,,,,,,,,,,,,,,771,2022-01-27_22h13.37.118,multiplicationStroop,2021.2.3,Win32,60.66488716,,,,,,,,,,,,,,,,,,,,,,,,,,,,,,,,,24,3.499,1,0,33,33,23,1,8,×,3,8 × 3,incongruent,largerFirst,1,2,24,,,,,,,,
,,,,,,,,,,,,,,,771,2022-01-27_22h13.37.118,multiplicationStroop,2021.2.3,Win32,60.66488716,,,,,,,,,,,,,,,,,,,,,,,,,,,,,,,,,16,1.814,1,0,34,34,30,1,4,×,4,4 × 4,neutral,tie,2,1,16,,,,,,,,
,,,,,,,,,,,,,,,771,2022-01-27_22h13.37.118,multiplicationStroop,2021.2.3,Win32,60.66488716,,,,,,,,,,,,,,,,,,,,,,,,,,,,,,,,,64,11.2784,1,0,35,35,34,1,8,×,8,8 × 8,neutral,tie,2,1,64,,,,,,,,
,,,,,,,,,,,,,,,771,2022-01-27_22h13.37.118,multiplicationStroop,2021.2.3,Win32,60.66488716,,,,,,,,,,,,,,,,,,,,,,,,,,,,,,,,,,,,,,,,,,,,,,,,,,0,0,0,4,1,stimulusFile/mult_blk5_INcongruent.xlsx,,
,,,,,,,,,,,,,,,771,2022-01-27_22h13.37.118,multiplicationStroop,2021.2.3,Win32,60.66488716,,,,,,,,,,,,,,,,,,,,,,,,,,,,,,,space,2.2498,63,10.1413,1,0,0,0,21,1,9,×,7,9 × 7,congruent,largerFirst,2,1,63,,,,,,,,
,,,,,,,,,,,,,,,771,2022-01-27_22h13.37.118,multiplicationStroop,2021.2.3,Win32,60.66488716,,,,,,,,,,,,,,,,,,,,,,,,,,,,,,,,,54,7.1993,1,0,1,1,12,1,6,×,9,6 × 9,congruent,smallerFirst,1,2,54,,,,,,,,
,,,,,,,,,,,,,,,771,2022-01-27_22h13.37.118,multiplicationStroop,2021.2.3,Win32,60.66488716,,,,,,,,,,,,,,,,,,,,,,,,,,,,,,,,,48,4.5351,1,0,2,2,18,1,8,×,6,8 × 6,congruent,largerFirst,2,1,48,,,,,,,,
,,,,,,,,,,,,,,,771,2022-01-27_22h13.37.118,multiplicationStroop,2021.2.3,Win32,60.66488716,,,,,,,,,,,,,,,,,,,,,,,,,,,,,,,,,12,1.6861,1,0,3,3,2,1,3,×,4,3 × 4,congruent,smallerFirst,1,2,12,,,,,,,,
,,,,,,,,,,,,,,,771,2022-01-27_22h13.37.118,multiplicationStroop,2021.2.3,Win32,60.66488716,,,,,,,,,,,,,,,,,,,,,,,,,,,,,,,,,72,8.9963,1,0,4,4,17,1,9,×,8,9 × 8,congruent,largerFirst,2,1,72,,,,,,,,
,,,,,,,,,,,,,,,771,2022-01-27_22h13.37.118,multiplicationStroop,2021.2.3,Win32,60.66488716,,,,,,,,,,,,,,,,,,,,,,,,,,,,,,,,,20,2.201,1,0,5,5,7,1,4,×,5,4 × 5,congruent,smallerFirst,1,2,20,,,,,,,,
,,,,,,,,,,,,,,,771,2022-01-27_22h13.37.118,multiplicationStroop,2021.2.3,Win32,60.66488716,,,,,,,,,,,,,,,,,,,,,,,,,,,,,,,,,36,1.8989,1,0,6,6,32,1,6,×,6,6 × 6,neutral,tie,2,1,36,,,,,,,,
,,,,,,,,,,,,,,,771,2022-01-27_22h13.37.118,multiplicationStroop,2021.2.3,Win32,60.66488716,,,,,,,,,,,,,,,,,,,,,,,,,,,,,,,,,12,1.9988,1,0,7,7,19,1,6,×,2,6 × 2,congruent,largerFirst,2,1,12,,,,,,,,
,,,,,,,,,,,,,,,771,2022-01-27_22h13.37.118,multiplicationStroop,2021.2.3,Win32,60.66488716,,,,,,,,,,,,,,,,,,,,,,,,,,,,,,,,,35,2.215,1,0,8,8,1,1,5,×,7,5 × 7,congruent,smallerFirst,1,2,35,,,,,,,,
,,,,,,,,,,,,,,,771,2022-01-27_22h13.37.118,multiplicationStroop,2021.2.3,Win32,60.66488716,,,,,,,,,,,,,,,,,,,,,,,,,,,,,,,,,30,2.2319,1,0,9,9,15,1,6,×,5,6 × 5,congruent,largerFirst,2,1,30,,,,,,,,
,,,,,,,,,,,,,,,771,2022-01-27_22h13.37.118,multiplicationStroop,2021.2.3,Win32,60.66488716,,,,,,,,,,,,,,,,,,,,,,,,,,,,,,,,,9,1.6156,1,0,10,10,29,1,3,×,3,3 × 3,neutral,tie,2,1,9,,,,,,,,
,,,,,,,,,,,,,,,771,2022-01-27_22h13.37.118,multiplicationStroop,2021.2.3,Win32,60.66488716,,,,,,,,,,,,,,,,,,,,,,,,,,,,,,,,,42,2.2653,1,0,11,11,3,1,6,×,7,6 × 7,congruent,smallerFirst,1,2,42,,,,,,,,
,,,,,,,,,,,,,,,771,2022-01-27_22h13.37.118,multiplicationStroop,2021.2.3,Win32,60.66488716,,,,,,,,,,,,,,,,,,,,,,,,,,,,,,,,,8,2.0321,1,0,12,12,9,1,2,×,4,2 × 4,congruent,smallerFirst,1,2,8,,,,,,,,
,,,,,,,,,,,,,,,771,2022-01-27_22h13.37.118,multiplicationStroop,2021.2.3,Win32,60.66488716,,,,,,,,,,,,,,,,,,,,,,,,,,,,,,,,,81,7.9132,1,0,13,13,35,1,9,×,9,9 × 9,neutral,tie,2,1,81,,,,,,,,
,,,,,,,,,,,,,,,771,2022-01-27_22h13.37.118,multiplicationStroop,2021.2.3,Win32,60.66488716,,,,,,,,,,,,,,,,,,,,,,,,,,,,,,,,,24,3.217,1,0,14,14,10,1,3,×,8,3 × 8,congruent,smallerFirst,1,2,24,,,,,,,,
,,,,,,,,,,,,,,,771,2022-01-27_22h13.37.118,multiplicationStroop,2021.2.3,Win32,60.66488716,,,,,,,,,,,,,,,,,,,,,,,,,,,,,,,,,32,2.0154,1,0,15,15,20,1,8,×,4,8 × 4,congruent,largerFirst,2,1,32,,,,,,,,
,,,,,,,,,,,,,,,771,2022-01-27_22h13.37.118,multiplicationStroop,2021.2.3,Win32,60.66488716,,,,,,,,,,,,,,,,,,,,,,,,,,,,,,,,,18,3.2986,1,0,16,16,22,1,9,×,2,9 × 2,congruent,largerFirst,2,1,18,,,,,,,,
,,,,,,,,,,,,,,,771,2022-01-27_22h13.37.118,multiplicationStroop,2021.2.3,Win32,60.66488716,,,,,,,,,,,,,,,,,,,,,,,,,,,,,,,,,15,2.6525,1,0,17,17,4,1,3,×,5,3 × 5,congruent,smallerFirst,1,2,15,,,,,,,,
,,,,,,,,,,,,,,,771,2022-01-27_22h13.37.118,multiplicationStroop,2021.2.3,Win32,60.66488716,,,,,,,,,,,,,,,,,,,,,,,,,,,,,,,,,56,12.6451,1,0,18,18,8,1,7,×,8,7 × 8,congruent,smallerFirst,1,2,56,,,,,,,,
,,,,,,,,,,,,,,,771,2022-01-27_22h13.37.118,multiplicationStroop,2021.2.3,Win32,60.66488716,,,,,,,,,,,,,,,,,,,,,,,,,,,,,,,,,18,3.5323,1,0,19,19,11,1,3,×,6,3 × 6,congruent,smallerFirst,1,2,18,,,,,,,,
,,,,,,,,,,,,,,,771,2022-01-27_22h13.37.118,multiplicationStroop,2021.2.3,Win32,60.66488716,,,,,,,,,,,,,,,,,,,,,,,,,,,,,,,,,36,5.1811,1,0,20,20,0,1,4,×,9,4 × 9,congruent,smallerFirst,1,2,36,,,,,,,,
,,,,,,,,,,,,,,,771,2022-01-27_22h13.37.118,multiplicationStroop,2021.2.3,Win32,60.66488716,,,,,,,,,,,,,,,,,,,,,,,,,,,,,,,,,14,2.619,1,0,21,21,14,1,7,×,2,7 × 2,congruent,largerFirst,2,1,14,,,,,,,,
,,,,,,,,,,,,,,,771,2022-01-27_22h13.37.118,multiplicationStroop,2021.2.3,Win32,60.66488716,,,,,,,,,,,,,,,,,,,,,,,,,,,,,,,,,6,1.9489,1,0,22,22,13,1,2,×,3,2 × 3,congruent,smallerFirst,1,2,6,,,,,,,,
,,,,,,,,,,,,,,,771,2022-01-27_22h13.37.118,multiplicationStroop,2021.2.3,Win32,60.66488716,,,,,,,,,,,,,,,,,,,,,,,,,,,,,,,,,64,2.5148,1,0,23,23,34,1,8,×,8,8 × 8,neutral,tie,2,1,64,,,,,,,,
,,,,,,,,,,,,,,,771,2022-01-27_22h13.37.118,multiplicationStroop,2021.2.3,Win32,60.66488716,,,,,,,,,,,,,,,,,,,,,,,,,,,,,,,,,16,1.8488,1,0,24,24,30,1,4,×,4,4 × 4,neutral,tie,2,1,16,,,,,,,,
,,,,,,,,,,,,,,,771,2022-01-27_22h13.37.118,multiplicationStroop,2021.2.3,Win32,60.66488716,,,,,,,,,,,,,,,,,,,,,,,,,,,,,,,,,27,8.314,1,0,25,25,26,1,9,×,3,9 × 3,congruent,largerFirst,2,1,27,,,,,,,,
,,,,,,,,,,,,,,,771,2022-01-27_22h13.37.118,multiplicationStroop,2021.2.3,Win32,60.66488716,,,,,,,,,,,,,,,,,,,,,,,,,,,,,,,,,25,2.1179,1,0,26,26,31,1,5,×,5,5 × 5,neutral,tie,2,1,25,,,,,,,,
,,,,,,,,,,,,,,,771,2022-01-27_22h13.37.118,multiplicationStroop,2021.2.3,Win32,60.66488716,,,,,,,,,,,,,,,,,,,,,,,,,,,,,,,,,28,2.3823,1,0,27,27,27,1,7,×,4,7 × 4,congruent,largerFirst,2,1,28,,,,,,,,
,,,,,,,,,,,,,,,771,2022-01-27_22h13.37.118,multiplicationStroop,2021.2.3,Win32,60.66488716,,,,,,,,,,,,,,,,,,,,,,,,,,,,,,,,,10,2.1986,1,0,28,28,24,1,5,×,2,5 × 2,congruent,largerFirst,2,1,10,,,,,,,,
,,,,,,,,,,,,,,,771,2022-01-27_22h13.37.118,multiplicationStroop,2021.2.3,Win32,60.66488716,,,,,,,,,,,,,,,,,,,,,,,,,,,,,,,,,16,3.5816,1,0,29,29,5,1,2,×,8,2 × 8,congruent,smallerFirst,1,2,16,,,,,,,,
,,,,,,,,,,,,,,,771,2022-01-27_22h13.37.118,multiplicationStroop,2021.2.3,Win32,60.66488716,,,,,,,,,,,,,,,,,,,,,,,,,,,,,,,,,24,2.406,1,0,30,30,25,1,6,×,4,6 × 4,congruent,largerFirst,2,1,24,,,,,,,,
,,,,,,,,,,,,,,,771,2022-01-27_22h13.37.118,multiplicationStroop,2021.2.3,Win32,60.66488716,,,,,,,,,,,,,,,,,,,,,,,,,,,,,,,,,49,3.1826,1,0,31,31,33,1,7,×,7,7 × 7,neutral,tie,2,1,49,,,,,,,,
,,,,,,,,,,,,,,,771,2022-01-27_22h13.37.118,multiplicationStroop,2021.2.3,Win32,60.66488716,,,,,,,,,,,,,,,,,,,,,,,,,,,,,,,,,21,3.3316,1,0,32,32,16,1,7,×,3,7 × 3,congruent,largerFirst,2,1,21,,,,,,,,
,,,,,,,,,,,,,,,771,2022-01-27_22h13.37.118,multiplicationStroop,2021.2.3,Win32,60.66488716,,,,,,,,,,,,,,,,,,,,,,,,,,,,,,,,,40,2.5803,1,0,33,33,6,1,5,×,8,5 × 8,congruent,smallerFirst,1,2,40,,,,,,,,
,,,,,,,,,,,,,,,771,2022-01-27_22h13.37.118,multiplicationStroop,2021.2.3,Win32,60.66488716,,,,,,,,,,,,,,,,,,,,,,,,,,,,,,,,,45,2.0312,1,0,34,34,23,1,9,×,5,9 × 5,congruent,largerFirst,2,1,45,,,,,,,,
,,,,,,,,,,,,,,,771,2022-01-27_22h13.37.118,multiplicationStroop,2021.2.3,Win32,60.66488716,,,,,,,,,,,,,,,,,,,,,,,,,,,,,,,,,4,1.7195,1,0,35,35,28,1,2,×,2,2 × 2,neutral,tie,2,1,4,,,,,,,,
,,,,,,,,,,,,,,,771,2022-01-27_22h13.37.118,multiplicationStroop,2021.2.3,Win32,60.66488716,,,,,,,,,,,,,,,,,,,,,,,,,,,,,,,,,,,,,,,,,,,,,,,,,,0,1,1,2,1,stimulusFile/mult_blk3_congruent.xlsx,,
,,,,,,,,,,,,,,,771,2022-01-27_22h13.37.118,multiplicationStroop,2021.2.3,Win32,60.66488716,,,,,,,,,,,,,,,,,,,,,,,,,,,,,,,space,1.3892,48,3.7201,0,0,0,0,23,1,8,×,7,8 × 7,neutral,largerFirst,1.5,1.5,56,,,,,,,,
,,,,,,,,,,,,,,,771,2022-01-27_22h13.37.118,multiplicationStroop,2021.2.3,Win32,60.66488716,,,,,,,,,,,,,,,,,,,,,,,,,,,,,,,,,21,4.5679,1,0,1,1,22,1,7,×,3,7 × 3,neutral,largerFirst,1.5,1.5,21,,,,,,,,
,,,,,,,,,,,,,,,771,2022-01-27_22h13.37.118,multiplicationStroop,2021.2.3,Win32,60.66488716,,,,,,,,,,,,,,,,,,,,,,,,,,,,,,,,,72,6.8185,1,0,2,2,25,1,9,×,8,9 × 8,neutral,largerFirst,1.5,1.5,72,,,,,,,,
,,,,,,,,,,,,,,,771,2022-01-27_22h13.37.118,multiplicationStroop,2021.2.3,Win32,60.66488716,,,,,,,,,,,,,,,,,,,,,,,,,,,,,,,,,6,1.9174,1,0,3,3,12,1,2,×,3,2 × 3,neutral,smallerFirst,1.5,1.5,6,,,,,,,,
,,,,,,,,,,,,,,,771,2022-01-27_22h13.37.118,multiplicationStroop,2021.2.3,Win32,60.66488716,,,,,,,,,,,,,,,,,,,,,,,,,,,,,,,,,20,1.982,1,0,4,4,6,1,4,×,5,4 × 5,neutral,smallerFirst,1.5,1.5,20,,,,,,,,
,,,,,,,,,,,,,,,771,2022-01-27_22h13.37.118,multiplicationStroop,2021.2.3,Win32,60.66488716,,,,,,,,,,,,,,,,,,,,,,,,,,,,,,,,,24,2.2989,1,0,5,5,16,1,6,×,4,6 × 4,neutral,largerFirst,1.5,1.5,24,,,,,,,,
,,,,,,,,,,,,,,,771,2022-01-27_22h13.37.118,multiplicationStroop,2021.2.3,Win32,60.66488716,,,,,,,,,,,,,,,,,,,,,,,,,,,,,,,,,63,6.6678,1,0,6,6,26,1,9,×,7,9 × 7,neutral,largerFirst,1.5,1.5,63,,,,,,,,
,,,,,,,,,,,,,,,771,2022-01-27_22h13.37.118,multiplicationStroop,2021.2.3,Win32,60.66488716,,,,,,,,,,,,,,,,,,,,,,,,,,,,,,,,,16,3.9026,1,0,7,7,27,1,8,×,2,8 × 2,neutral,largerFirst,1.5,1.5,16,,,,,,,,
,,,,,,,,,,,,,,,771,2022-01-27_22h13.37.118,multiplicationStroop,2021.2.3,Win32,60.66488716,,,,,,,,,,,,,,,,,,,,,,,,,,,,,,,,,9,1.5697,1,0,8,8,29,1,3,×,3,3 × 3,neutral,tie,1.5,1.5,9,,,,,,,,
,,,,,,,,,,,,,,,771,2022-01-27_22h13.37.118,multiplicationStroop,2021.2.3,Win32,60.66488716,,,,,,,,,,,,,,,,,,,,,,,,,,,,,,,,,35,2.7649,1,0,9,9,15,1,7,×,5,7 × 5,neutral,largerFirst,1.5,1.5,35,,,,,,,,
,,,,,,,,,,,,,,,771,2022-01-27_22h13.37.118,multiplicationStroop,2021.2.3,Win32,60.66488716,,,,,,,,,,,,,,,,,,,,,,,,,,,,,,,,,49,2.1325,1,0,10,10,33,1,7,×,7,7 × 7,neutral,tie,1.5,1.5,49,,,,,,,,
,,,,,,,,,,,,,,,771,2022-01-27_22h13.37.118,multiplicationStroop,2021.2.3,Win32,60.66488716,,,,,,,,,,,,,,,,,,,,,,,,,,,,,,,,,16,1.9318,1,0,11,11,30,1,4,×,4,4 × 4,neutral,tie,1.5,1.5,16,,,,,,,,
,,,,,,,,,,,,,,,771,2022-01-27_22h13.37.118,multiplicationStroop,2021.2.3,Win32,60.66488716,,,,,,,,,,,,,,,,,,,,,,,,,,,,,,,,,8,1.6156,1,0,12,12,17,1,4,×,2,4 × 2,neutral,largerFirst,1.5,1.5,8,,,,,,,,
,,,,,,,,,,,,,,,771,2022-01-27_22h13.37.118,multiplicationStroop,2021.2.3,Win32,60.66488716,,,,,,,,,,,,,,,,,,,,,,,,,,,,,,,,,42,2.0659,1,0,13,13,20,1,7,×,6,7 × 6,neutral,largerFirst,1.5,1.5,42,,,,,,,,
,,,,,,,,,,,,,,,771,2022-01-27_22h13.37.118,multiplicationStroop,2021.2.3,Win32,60.66488716,,,,,,,,,,,,,,,,,,,,,,,,,,,,,,,,,18,2.0151,1,0,14,14,4,1,2,×,9,2 × 9,neutral,smallerFirst,1.5,1.5,18,,,,,,,,
,,,,,,,,,,,,,,,771,2022-01-27_22h13.37.118,multiplicationStroop,2021.2.3,Win32,60.66488716,,,,,,,,,,,,,,,,,,,,,,,,,,,,,,,,,12,1.5657,1,0,15,15,11,1,2,×,6,2 × 6,neutral,smallerFirst,1.5,1.5,12,,,,,,,,
,,,,,,,,,,,,,,,771,2022-01-27_22h13.37.118,multiplicationStroop,2021.2.3,Win32,60.66488716,,,,,,,,,,,,,,,,,,,,,,,,,,,,,,,,,54,6.7471,1,0,16,16,21,1,9,×,6,9 × 6,neutral,largerFirst,1.5,1.5,54,,,,,,,,
,,,,,,,,,,,,,,,771,2022-01-27_22h13.37.118,multiplicationStroop,2021.2.3,Win32,60.66488716,,,,,,,,,,,,,,,,,,,,,,,,,,,,,,,,,25,2.1194,1,0,17,17,31,1,5,×,5,5 × 5,neutral,tie,1.5,1.5,25,,,,,,,,
,,,,,,,,,,,,,,,771,2022-01-27_22h13.37.118,multiplicationStroop,2021.2.3,Win32,60.66488716,,,,,,,,,,,,,,,,,,,,,,,,,,,,,,,,,10,2.0988,1,0,18,18,18,1,5,×,2,5 × 2,neutral,largerFirst,1.5,1.5,10,,,,,,,,
,,,,,,,,,,,,,,,771,2022-01-27_22h13.37.118,multiplicationStroop,2021.2.3,Win32,60.66488716,,,,,,,,,,,,,,,,,,,,,,,,,,,,,,,,,24,3.3485,1,0,19,19,8,1,3,×,8,3 × 8,neutral,smallerFirst,1.5,1.5,24,,,,,,,,
,,,,,,,,,,,,,,,771,2022-01-27_22h13.37.118,multiplicationStroop,2021.2.3,Win32,60.66488716,,,,,,,,,,,,,,,,,,,,,,,,,,,,,,,,,4,1.569,1,0,20,20,28,1,2,×,2,2 × 2,neutral,tie,1.5,1.5,4,,,,,,,,
,,,,,,,,,,,,,,,771,2022-01-27_22h13.37.118,multiplicationStroop,2021.2.3,Win32,60.66488716,,,,,,,,,,,,,,,,,,,,,,,,,,,,,,,,,14,1.7484,1,0,21,21,2,1,2,×,7,2 × 7,neutral,smallerFirst,1.5,1.5,14,,,,,,,,
,,,,,,,,,,,,,,,771,2022-01-27_22h13.37.118,multiplicationStroop,2021.2.3,Win32,60.66488716,,,,,,,,,,,,,,,,,,,,,,,,,,,,,,,,,81,2.4321,1,0,22,22,35,1,9,×,9,9 × 9,neutral,tie,1.5,1.5,81,,,,,,,,
,,,,,,,,,,,,,,,771,2022-01-27_22h13.37.118,multiplicationStroop,2021.2.3,Win32,60.66488716,,,,,,,,,,,,,,,,,,,,,,,,,,,,,,,,,27,2.8817,1,0,23,23,0,1,3,×,9,3 × 9,neutral,smallerFirst,1.5,1.5,27,,,,,,,,
,,,,,,,,,,,,,,,771,2022-01-27_22h13.37.118,multiplicationStroop,2021.2.3,Win32,60.66488716,,,,,,,,,,,,,,,,,,,,,,,,,,,,,,,,,45,2.2482,1,0,24,24,24,1,9,×,5,9 × 5,neutral,largerFirst,1.5,1.5,45,,,,,,,,
,,,,,,,,,,,,,,,771,2022-01-27_22h13.37.118,multiplicationStroop,2021.2.3,Win32,60.66488716,,,,,,,,,,,,,,,,,,,,,,,,,,,,,,,,,36,4.5981,1,0,25,25,13,1,4,×,9,4 × 9,neutral,smallerFirst,1.5,1.5,36,,,,,,,,
,,,,,,,,,,,,,,,771,2022-01-27_22h13.37.118,multiplicationStroop,2021.2.3,Win32,60.66488716,,,,,,,,,,,,,,,,,,,,,,,,,,,,,,,,,12,1.5362,1,0,26,26,7,1,3,×,4,3 × 4,neutral,smallerFirst,1.5,1.5,12,,,,,,,,
,,,,,,,,,,,,,,,771,2022-01-27_22h13.37.118,multiplicationStroop,2021.2.3,Win32,60.66488716,,,,,,,,,,,,,,,,,,,,,,,,,,,,,,,,,32,2.1485,1,0,27,27,9,1,4,×,8,4 × 8,neutral,smallerFirst,1.5,1.5,32,,,,,,,,
,,,,,,,,,,,,,,,771,2022-01-27_22h13.37.118,multiplicationStroop,2021.2.3,Win32,60.66488716,,,,,,,,,,,,,,,,,,,,,,,,,,,,,,,,,30,1.9991,1,0,28,28,5,1,5,×,6,5 × 6,neutral,smallerFirst,1.5,1.5,30,,,,,,,,
,,,,,,,,,,,,,,,771,2022-01-27_22h13.37.118,multiplicationStroop,2021.2.3,Win32,60.66488716,,,,,,,,,,,,,,,,,,,,,,,,,,,,,,,,,18,2.1483,1,0,29,29,14,1,6,×,3,6 × 3,neutral,largerFirst,1.5,1.5,18,,,,,,,,
,,,,,,,,,,,,,,,771,2022-01-27_22h13.37.118,multiplicationStroop,2021.2.3,Win32,60.66488716,,,,,,,,,,,,,,,,,,,,,,,,,,,,,,,,,48,4.969,1,0,30,30,1,1,6,×,8,6 × 8,neutral,smallerFirst,1.5,1.5,48,,,,,,,,
,,,,,,,,,,,,,,,771,2022-01-27_22h13.37.118,multiplicationStroop,2021.2.3,Win32,60.66488716,,,,,,,,,,,,,,,,,,,,,,,,,,,,,,,,,64,2.9358,1,0,31,31,34,1,8,×,8,8 × 8,neutral,tie,1.5,1.5,64,,,,,,,,
,,,,,,,,,,,,,,,771,2022-01-27_22h13.37.118,multiplicationStroop,2021.2.3,Win32,60.66488716,,,,,,,,,,,,,,,,,,,,,,,,,,,,,,,,,40,3.1323,1,0,32,32,10,1,5,×,8,5 × 8,neutral,smallerFirst,1.5,1.5,40,,,,,,,,
,,,,,,,,,,,,,,,771,2022-01-27_22h13.37.118,multiplicationStroop,2021.2.3,Win32,60.66488716,,,,,,,,,,,,,,,,,,,,,,,,,,,,,,,,,36,1.899,1,0,33,33,32,1,6,×,6,6 × 6,neutral,tie,1.5,1.5,36,,,,,,,,
,,,,,,,,,,,,,,,771,2022-01-27_22h13.37.118,multiplicationStroop,2021.2.3,Win32,60.66488716,,,,,,,,,,,,,,,,,,,,,,,,,,,,,,,,,15,1.6653,1,0,34,34,19,1,5,×,3,5 × 3,neutral,largerFirst,1.5,1.5,15,,,,,,,,
,,,,,,,,,,,,,,,771,2022-01-27_22h13.37.118,multiplicationStroop,2021.2.3,Win32,60.66488716,,,,,,,,,,,,,,,,,,,,,,,,,,,,,,,,,28,2.0822,1,0,35,35,3,1,4,×,7,4 × 7,neutral,smallerFirst,1.5,1.5,28,,,,,,,,
,,,,,,,,,,,,,,,771,2022-01-27_22h13.37.118,multiplicationStroop,2021.2.3,Win32,60.66488716,,,,,,,,,,,,,,,,,,,,,,,,,,,,,,,,,,,,,,,,,,,,,,,,,,0,2,2,0,1,stimulusFile/mult_blk1.xlsx,,
,,,,,,,,,,,,,,,771,2022-01-27_22h13.37.118,multiplicationStroop,2021.2.3,Win32,60.66488716,,,,,,,,,,,,,,,,,,,,,,,,,,,,,,,space,1.2997,4,1.7141,1,0,0,0,28,1,2,×,2,2 × 2,incongruent,tie,1,2,4,,,,,,,,
,,,,,,,,,,,,,,,771,2022-01-27_22h13.37.118,multiplicationStroop,2021.2.3,Win32,60.66488716,,,,,,,,,,,,,,,,,,,,,,,,,,,,,,,,,54,4.6979,1,0,1,1,6,1,6,×,9,6 × 9,incongruent,smallerFirst,2,1,54,,,,,,,,
,,,,,,,,,,,,,,,771,2022-01-27_22h13.37.118,multiplicationStroop,2021.2.3,Win32,60.66488716,,,,,,,,,,,,,,,,,,,,,,,,,,,,,,,,,18,2.886,1,0,2,2,8,1,3,×,6,3 × 6,incongruent,smallerFirst,2,1,18,,,,,,,,
,,,,,,,,,,,,,,,771,2022-01-27_22h13.37.118,multiplicationStroop,2021.2.3,Win32,60.66488716,,,,,,,,,,,,,,,,,,,,,,,,,,,,,,,,,32,2.2835,1,0,3,3,7,1,4,×,8,4 × 8,incongruent,smallerFirst,2,1,32,,,,,,,,
,,,,,,,,,,,,,,,771,2022-01-27_22h13.37.118,multiplicationStroop,2021.2.3,Win32,60.66488716,,,,,,,,,,,,,,,,,,,,,,,,,,,,,,,,,12,1.48,1,0,4,4,5,1,3,×,4,3 × 4,incongruent,smallerFirst,2,1,12,,,,,,,,
,,,,,,,,,,,,,,,771,2022-01-27_22h13.37.118,multiplicationStroop,2021.2.3,Win32,60.66488716,,,,,,,,,,,,,,,,,,,,,,,,,,,,,,,,,9,1.8018,1,0,5,5,29,1,3,×,3,3 × 3,incongruent,tie,1,2,9,,,,,,,,
,,,,,,,,,,,,,,,771,2022-01-27_22h13.37.118,multiplicationStroop,2021.2.3,Win32,60.66488716,,,,,,,,,,,,,,,,,,,,,,,,,,,,,,,,,8,1.8783,1,0,6,6,24,1,4,×,2,4 × 2,incongruent,largerFirst,1,2,8,,,,,,,,
,,,,,,,,,,,,,,,771,2022-01-27_22h13.37.118,multiplicationStroop,2021.2.3,Win32,60.66488716,,,,,,,,,,,,,,,,,,,,,,,,,,,,,,,,,54,14.1099,0,0,7,7,14,1,8,×,7,8 × 7,incongruent,largerFirst,1,2,56,,,,,,,,
,,,,,,,,,,,,,,,771,2022-01-27_22h13.37.118,multiplicationStroop,2021.2.3,Win32,60.66488716,,,,,,,,,,,,,,,,,,,,,,,,,,,,,,,,,16,2.705,1,0,8,8,23,1,8,×,2,8 × 2,incongruent,largerFirst,1,2,16,,,,,,,,
,,,,,,,,,,,,,,,771,2022-01-27_22h13.37.118,multiplicationStroop,2021.2.3,Win32,60.66488716,,,,,,,,,,,,,,,,,,,,,,,,,,,,,,,,,45,1.9438,1,0,9,9,22,1,9,×,5,9 × 5,incongruent,largerFirst,1,2,45,,,,,,,,
,,,,,,,,,,,,,,,771,2022-01-27_22h13.37.118,multiplicationStroop,2021.2.3,Win32,60.66488716,,,,,,,,,,,,,,,,,,,,,,,,,,,,,,,,,30,2.3141,1,0,10,10,25,1,6,×,5,6 × 5,incongruent,largerFirst,1,2,30,,,,,,,,
,,,,,,,,,,,,,,,771,2022-01-27_22h13.37.118,multiplicationStroop,2021.2.3,Win32,60.66488716,,,,,,,,,,,,,,,,,,,,,,,,,,,,,,,,,25,1.8858,1,0,11,11,31,1,5,×,5,5 × 5,incongruent,tie,1,2,25,,,,,,,,
,,,,,,,,,,,,,,,771,2022-01-27_22h13.37.118,multiplicationStroop,2021.2.3,Win32,60.66488716,,,,,,,,,,,,,,,,,,,,,,,,,,,,,,,,,27,2.7765,1,0,12,12,18,1,9,×,3,9 × 3,incongruent,largerFirst,1,2,27,,,,,,,,
,,,,,,,,,,,,,,,771,2022-01-27_22h13.37.118,multiplicationStroop,2021.2.3,Win32,60.66488716,,,,,,,,,,,,,,,,,,,,,,,,,,,,,,,,,42,2.4478,1,0,13,13,17,1,7,×,6,7 × 6,incongruent,largerFirst,1,2,42,,,,,,,,
,,,,,,,,,,,,,,,771,2022-01-27_22h13.37.118,multiplicationStroop,2021.2.3,Win32,60.66488716,,,,,,,,,,,,,,,,,,,,,,,,,,,,,,,,,81,2.5889,1,0,14,14,35,1,9,×,9,9 × 9,incongruent,tie,1,2,81,,,,,,,,
,,,,,,,,,,,,,,,771,2022-01-27_22h13.37.118,multiplicationStroop,2021.2.3,Win32,60.66488716,,,,,,,,,,,,,,,,,,,,,,,,,,,,,,,,,64,2.8779,1,0,15,15,34,1,8,×,8,8 × 8,incongruent,tie,1,2,64,,,,,,,,
,,,,,,,,,,,,,,,771,2022-01-27_22h13.37.118,multiplicationStroop,2021.2.3,Win32,60.66488716,,,,,,,,,,,,,,,,,,,,,,,,,,,,,,,,,28,2.047,1,0,16,16,16,1,7,×,4,7 × 4,incongruent,largerFirst,1,2,28,,,,,,,,
,,,,,,,,,,,,,,,771,2022-01-27_22h13.37.118,multiplicationStroop,2021.2.3,Win32,60.66488716,,,,,,,,,,,,,,,,,,,,,,,,,,,,,,,,,49,2.3641,1,0,17,17,33,1,7,×,7,7 × 7,incongruent,tie,1,2,49,,,,,,,,
,,,,,,,,,,,,,,,771,2022-01-27_22h13.37.118,multiplicationStroop,2021.2.3,Win32,60.66488716,,,,,,,,,,,,,,,,,,,,,,,,,,,,,,,,,24,2.8647,1,0,18,18,9,1,3,×,8,3 × 8,incongruent,smallerFirst,2,1,24,,,,,,,,
,,,,,,,,,,,,,,,771,2022-01-27_22h13.37.118,multiplicationStroop,2021.2.3,Win32,60.66488716,,,,,,,,,,,,,,,,,,,,,,,,,,,,,,,,,35,2.0687,1,0,19,19,12,1,5,×,7,5 × 7,incongruent,smallerFirst,2,1,35,,,,,,,,
,,,,,,,,,,,,,,,771,2022-01-27_22h13.37.118,multiplicationStroop,2021.2.3,Win32,60.66488716,,,,,,,,,,,,,,,,,,,,,,,,,,,,,,,,,36,1.9809,1,0,20,20,32,1,6,×,6,6 × 6,incongruent,tie,1,2,36,,,,,,,,
,,,,,,,,,,,,,,,771,2022-01-27_22h13.37.118,multiplicationStroop,2021.2.3,Win32,60.66488716,,,,,,,,,,,,,,,,,,,,,,,,,,,,,,,,,48,3.0142,1,0,21,21,1,1,6,×,8,6 × 8,incongruent,smallerFirst,2,1,48,,,,,,,,
,,,,,,,,,,,,,,,771,2022-01-27_22h13.37.118,multiplicationStroop,2021.2.3,Win32,60.66488716,,,,,,,,,,,,,,,,,,,,,,,,,,,,,,,,,14,1.7977,1,0,22,22,4,1,2,×,7,2 × 7,incongruent,smallerFirst,2,1,14,,,,,,,,
,,,,,,,,,,,,,,,771,2022-01-27_22h13.37.118,multiplicationStroop,2021.2.3,Win32,60.66488716,,,,,,,,,,,,,,,,,,,,,,,,,,,,,,,,,24,2.0023,1,0,23,23,20,1,6,×,4,6 × 4,incongruent,largerFirst,1,2,24,,,,,,,,
,,,,,,,,,,,,,,,771,2022-01-27_22h13.37.118,multiplicationStroop,2021.2.3,Win32,60.66488716,,,,,,,,,,,,,,,,,,,,,,,,,,,,,,,,,40,2.4945,1,0,24,24,13,1,5,×,8,5 × 8,incongruent,smallerFirst,2,1,40,,,,,,,,
,,,,,,,,,,,,,,,771,2022-01-27_22h13.37.118,multiplicationStroop,2021.2.3,Win32,60.66488716,,,,,,,,,,,,,,,,,,,,,,,,,,,,,,,,,20,2.0019,1,0,25,25,27,1,5,×,4,5 × 4,incongruent,largerFirst,1,2,20,,,,,,,,
,,,,,,,,,,,,,,,771,2022-01-27_22h13.37.118,multiplicationStroop,2021.2.3,Win32,60.66488716,,,,,,,,,,,,,,,,,,,,,,,,,,,,,,,,,15,2.0847,1,0,26,26,10,1,3,×,5,3 × 5,incongruent,smallerFirst,2,1,15,,,,,,,,
,,,,,,,,,,,,,,,771,2022-01-27_22h13.37.118,multiplicationStroop,2021.2.3,Win32,60.66488716,,,,,,,,,,,,,,,,,,,,,,,,,,,,,,,,,72,6.394,1,0,27,27,0,1,8,×,9,8 × 9,incongruent,smallerFirst,2,1,72,,,,,,,,
,,,,,,,,,,,,,,,771,2022-01-27_22h13.37.118,multiplicationStroop,2021.2.3,Win32,60.66488716,,,,,,,,,,,,,,,,,,,,,,,,,,,,,,,,,63,6.2338,1,0,28,28,3,1,7,×,9,7 × 9,incongruent,smallerFirst,2,1,63,,,,,,,,
,,,,,,,,,,,,,,,771,2022-01-27_22h13.37.118,multiplicationStroop,2021.2.3,Win32,60.66488716,,,,,,,,,,,,,,,,,,,,,,,,,,,,,,,,,36,7.9714,1,0,29,29,15,1,9,×,4,9 × 4,incongruent,largerFirst,1,2,36,,,,,,,,
,,,,,,,,,,,,,,,771,2022-01-27_22h13.37.118,multiplicationStroop,2021.2.3,Win32,60.66488716,,,,,,,,,,,,,,,,,,,,,,,,,,,,,,,,,10,2.197,1,0,30,30,21,1,5,×,2,5 × 2,incongruent,largerFirst,1,2,10,,,,,,,,
,,,,,,,,,,,,,,,771,2022-01-27_22h13.37.118,multiplicationStroop,2021.2.3,Win32,60.66488716,,,,,,,,,,,,,,,,,,,,,,,,,,,,,,,,,18,2.248,1,0,31,31,2,1,2,×,9,2 × 9,incongruent,smallerFirst,2,1,18,,,,,,,,
,,,,,,,,,,,,,,,771,2022-01-27_22h13.37.118,multiplicationStroop,2021.2.3,Win32,60.66488716,,,,,,,,,,,,,,,,,,,,,,,,,,,,,,,,,21,3.3634,1,0,32,32,26,1,7,×,3,7 × 3,incongruent,largerFirst,1,2,21,,,,,,,,
,,,,,,,,,,,,,,,771,2022-01-27_22h13.37.118,multiplicationStroop,2021.2.3,Win32,60.66488716,,,,,,,,,,,,,,,,,,,,,,,,,,,,,,,,,6,2.1476,1,0,33,33,11,1,2,×,3,2 × 3,incongruent,smallerFirst,2,1,6,,,,,,,,
,,,,,,,,,,,,,,,771,2022-01-27_22h13.37.118,multiplicationStroop,2021.2.3,Win32,60.66488716,,,,,,,,,,,,,,,,,,,,,,,,,,,,,,,,,16,1.7978,1,0,34,34,30,1,4,×,4,4 × 4,incongruent,tie,1,2,16,,,,,,,,
,,,,,,,,,,,,,,,771,2022-01-27_22h13.37.118,multiplicationStroop,2021.2.3,Win32,60.66488716,,,,,,,,,,,,,,,,,,,,,,,,,,,,,,,,,12,1.9032,1,0,35,35,19,1,6,×,2,6 × 2,incongruent,largerFirst,1,2,12,,,,,,,,
,,,,,,,,,,,,,,,771,2022-01-27_22h13.37.118,multiplicationStroop,2021.2.3,Win32,60.66488716,,,,,,,,,,,,,,,,,,,,,,,,,,,,,,,,,,,,,,,,,,,,,,,,,,0,3,3,5,1,stimulusFile/mult_blk6_INcongruent.xlsx,,
,,,,,,,,,,,,,,,771,2022-01-27_22h13.37.118,multiplicationStroop,2021.2.3,Win32,60.66488716,,,,,,,,,,,,,,,,,,,,,,,,,,,,,,,space,1.7548,6,1.6884,1,0,0,0,27,1,3,×,2,3 × 2,congruent,largerFirst,2,1,6,,,,,,,,
,,,,,,,,,,,,,,,771,2022-01-27_22h13.37.118,multiplicationStroop,2021.2.3,Win32,60.66488716,,,,,,,,,,,,,,,,,,,,,,,,,,,,,,,,,14,1.7013,1,0,1,1,0,1,2,×,7,2 × 7,congruent,smallerFirst,1,2,14,,,,,,,,
,,,,,,,,,,,,,,,771,2022-01-27_22h13.37.118,multiplicationStroop,2021.2.3,Win32,60.66488716,,,,,,,,,,,,,,,,,,,,,,,,,,,,,,,,,24,2.4112,1,0,2,2,11,1,4,×,6,4 × 6,congruent,smallerFirst,1,2,24,,,,,,,,
,,,,,,,,,,,,,,,771,2022-01-27_22h13.37.118,multiplicationStroop,2021.2.3,Win32,60.66488716,,,,,,,,,,,,,,,,,,,,,,,,,,,,,,,,,49,2.2141,1,0,3,3,33,1,7,×,7,7 × 7,neutral,tie,1,2,49,,,,,,,,
,,,,,,,,,,,,,,,771,2022-01-27_22h13.37.118,multiplicationStroop,2021.2.3,Win32,60.66488716,,,,,,,,,,,,,,,,,,,,,,,,,,,,,,,,,21,2.3146,1,0,4,4,2,1,3,×,7,3 × 7,congruent,smallerFirst,1,2,21,,,,,,,,
,,,,,,,,,,,,,,,771,2022-01-27_22h13.37.118,multiplicationStroop,2021.2.3,Win32,60.66488716,,,,,,,,,,,,,,,,,,,,,,,,,,,,,,,,,36,2.2805,1,0,5,5,32,1,6,×,6,6 × 6,neutral,tie,1,2,36,,,,,,,,
,,,,,,,,,,,,,,,771,2022-01-27_22h13.37.118,multiplicationStroop,2021.2.3,Win32,60.66488716,,,,,,,,,,,,,,,,,,,,,,,,,,,,,,,,,42,2.1849,1,0,6,6,17,1,7,×,6,7 × 6,congruent,largerFirst,2,1,42,,,,,,,,
,,,,,,,,,,,,,,,771,2022-01-27_22h13.37.118,multiplicationStroop,2021.2.3,Win32,60.66488716,,,,,,,,,,,,,,,,,,,,,,,,,,,,,,,,,64,10.2785,1,0,7,7,34,1,8,×,8,8 × 8,neutral,tie,1,2,64,,,,,,,,
,,,,,,,,,,,,,,,771,2022-01-27_22h13.37.118,multiplicationStroop,2021.2.3,Win32,60.66488716,,,,,,,,,,,,,,,,,,,,,,,,,,,,,,,,,32,2.4064,0,0,8,8,14,1,9,×,4,9 × 4,congruent,largerFirst,2,1,36,,,,,,,,
,,,,,,,,,,,,,,,771,2022-01-27_22h13.37.118,multiplicationStroop,2021.2.3,Win32,60.66488716,,,,,,,,,,,,,,,,,,,,,,,,,,,,,,,,,28,6.5116,1,0,9,9,13,1,4,×,7,4 × 7,congruent,smallerFirst,1,2,28,,,,,,,,
,,,,,,,,,,,,,,,771,2022-01-27_22h13.37.118,multiplicationStroop,2021.2.3,Win32,60.66488716,,,,,,,,,,,,,,,,,,,,,,,,,,,,,,,,,45,2.621,1,0,10,10,9,1,5,×,9,5 × 9,congruent,smallerFirst,1,2,45,,,,,,,,
,,,,,,,,,,,,,,,771,2022-01-27_22h13.37.118,multiplicationStroop,2021.2.3,Win32,60.66488716,,,,,,,,,,,,,,,,,,,,,,,,,,,,,,,,,15,1.7786,1,0,11,11,18,1,5,×,3,5 × 3,congruent,largerFirst,2,1,15,,,,,,,,
,,,,,,,,,,,,,,,771,2022-01-27_22h13.37.118,multiplicationStroop,2021.2.3,Win32,60.66488716,,,,,,,,,,,,,,,,,,,,,,,,,,,,,,,,,25,1.7809,1,0,12,12,31,1,5,×,5,5 × 5,neutral,tie,1,2,25,,,,,,,,
,,,,,,,,,,,,,,,771,2022-01-27_22h13.37.118,multiplicationStroop,2021.2.3,Win32,60.66488716,,,,,,,,,,,,,,,,,,,,,,,,,,,,,,,,,24,2.4642,1,0,13,13,24,1,8,×,3,8 × 3,congruent,largerFirst,2,1,24,,,,,,,,
,,,,,,,,,,,,,,,771,2022-01-27_22h13.37.118,multiplicationStroop,2021.2.3,Win32,60.66488716,,,,,,,,,,,,,,,,,,,,,,,,,,,,,,,,,30,2.0178,1,0,14,14,1,1,5,×,6,5 × 6,congruent,smallerFirst,1,2,30,,,,,,,,
,,,,,,,,,,,,,,,771,2022-01-27_22h13.37.118,multiplicationStroop,2021.2.3,Win32,60.66488716,,,,,,,,,,,,,,,,,,,,,,,,,,,,,,,,,4,1.4618,1,0,15,15,28,1,2,×,2,2 × 2,neutral,tie,1,2,4,,,,,,,,
,,,,,,,,,,,,,,,771,2022-01-27_22h13.37.118,multiplicationStroop,2021.2.3,Win32,60.66488716,,,,,,,,,,,,,,,,,,,,,,,,,,,,,,,,,32,3.7641,1,0,16,16,6,1,4,×,8,4 × 8,congruent,smallerFirst,1,2,32,,,,,,,,
,,,,,,,,,,,,,,,771,2022-01-27_22h13.37.118,multiplicationStroop,2021.2.3,Win32,60.66488716,,,,,,,,,,,,,,,,,,,,,,,,,,,,,,,,,18,1.8978,1,0,17,17,25,1,6,×,3,6 × 3,congruent,largerFirst,2,1,18,,,,,,,,
,,,,,,,,,,,,,,,771,2022-01-27_22h13.37.118,multiplicationStroop,2021.2.3,Win32,60.66488716,,,,,,,,,,,,,,,,,,,,,,,,,,,,,,,,,12,2.1648,1,0,18,18,5,1,2,×,6,2 × 6,congruent,smallerFirst,1,2,12,,,,,,,,
,,,,,,,,,,,,,,,771,2022-01-27_22h13.37.118,multiplicationStroop,2021.2.3,Win32,60.66488716,,,,,,,,,,,,,,,,,,,,,,,,,,,,,,,,,10,1.9127,1,0,19,19,10,1,2,×,5,2 × 5,congruent,smallerFirst,1,2,10,,,,,,,,
,,,,,,,,,,,,,,,771,2022-01-27_22h13.37.118,multiplicationStroop,2021.2.3,Win32,60.66488716,,,,,,,,,,,,,,,,,,,,,,,,,,,,,,,,,72,13.1609,1,0,20,20,3,1,8,×,9,8 × 9,congruent,smallerFirst,1,2,72,,,,,,,,
,,,,,,,,,,,,,,,771,2022-01-27_22h13.37.118,multiplicationStroop,2021.2.3,Win32,60.66488716,,,,,,,,,,,,,,,,,,,,,,,,,,,,,,,,,8,2.9334,1,0,21,21,23,1,4,×,2,4 × 2,congruent,largerFirst,2,1,8,,,,,,,,
,,,,,,,,,,,,,,,771,2022-01-27_22h13.37.118,multiplicationStroop,2021.2.3,Win32,60.66488716,,,,,,,,,,,,,,,,,,,,,,,,,,,,,,,,,16,1.9529,1,0,22,22,30,1,4,×,4,4 × 4,neutral,tie,1,2,16,,,,,,,,
,,,,,,,,,,,,,,,771,2022-01-27_22h13.37.118,multiplicationStroop,2021.2.3,Win32,60.66488716,,,,,,,,,,,,,,,,,,,,,,,,,,,,,,,,,12,1.6097,1,0,23,23,16,1,4,×,3,4 × 3,congruent,largerFirst,2,1,12,,,,,,,,
,,,,,,,,,,,,,,,771,2022-01-27_22h13.37.118,multiplicationStroop,2021.2.3,Win32,60.66488716,,,,,,,,,,,,,,,,,,,,,,,,,,,,,,,,,9,1.5479,1,0,24,24,29,1,3,×,3,3 × 3,neutral,tie,1,2,9,,,,,,,,
,,,,,,,,,,,,,,,771,2022-01-27_22h13.37.118,multiplicationStroop,2021.2.3,Win32,60.66488716,,,,,,,,,,,,,,,,,,,,,,,,,,,,,,,,,35,2.0847,1,0,25,25,15,1,7,×,5,7 × 5,congruent,largerFirst,2,1,35,,,,,,,,
,,,,,,,,,,,,,,,771,2022-01-27_22h13.37.118,multiplicationStroop,2021.2.3,Win32,60.66488716,,,,,,,,,,,,,,,,,,,,,,,,,,,,,,,,,63,4.5977,1,0,26,26,7,1,7,×,9,7 × 9,congruent,smallerFirst,1,2,63,,,,,,,,
,,,,,,,,,,,,,,,771,2022-01-27_22h13.37.118,multiplicationStroop,2021.2.3,Win32,60.66488716,,,,,,,,,,,,,,,,,,,,,,,,,,,,,,,,,81,2.4806,1,0,27,27,35,1,9,×,9,9 × 9,neutral,tie,1,2,81,,,,,,,,
,,,,,,,,,,,,,,,771,2022-01-27_22h13.37.118,multiplicationStroop,2021.2.3,Win32,60.66488716,,,,,,,,,,,,,,,,,,,,,,,,,,,,,,,,,48,4.1968,1,0,28,28,4,1,6,×,8,6 × 8,congruent,smallerFirst,1,2,48,,,,,,,,
,,,,,,,,,,,,,,,771,2022-01-27_22h13.37.118,multiplicationStroop,2021.2.3,Win32,60.66488716,,,,,,,,,,,,,,,,,,,,,,,,,,,,,,,,,54,5.2384,1,0,29,29,26,1,9,×,6,9 × 6,congruent,largerFirst,2,1,54,,,,,,,,
,,,,,,,,,,,,,,,771,2022-01-27_22h13.37.118,multiplicationStroop,2021.2.3,Win32,60.66488716,,,,,,,,,,,,,,,,,,,,,,,,,,,,,,,,,20,2.4174,1,0,30,30,21,1,5,×,4,5 × 4,congruent,largerFirst,2,1,20,,,,,,,,
,,,,,,,,,,,,,,,771,2022-01-27_22h13.37.118,multiplicationStroop,2021.2.3,Win32,60.66488716,,,,,,,,,,,,,,,,,,,,,,,,,,,,,,,,,16,3.4276,1,0,31,31,19,1,8,×,2,8 × 2,congruent,largerFirst,2,1,16,,,,,,,,
,,,,,,,,,,,,,,,771,2022-01-27_22h13.37.118,multiplicationStroop,2021.2.3,Win32,60.66488716,,,,,,,,,,,,,,,,,,,,,,,,,,,,,,,,,40,2.2556,1,0,32,32,20,1,8,×,5,8 × 5,congruent,largerFirst,2,1,40,,,,,,,,
,,,,,,,,,,,,,,,771,2022-01-27_22h13.37.118,multiplicationStroop,2021.2.3,Win32,60.66488716,,,,,,,,,,,,,,,,,,,,,,,,,,,,,,,,,18,2.1284,1,0,33,33,8,1,2,×,9,2 × 9,congruent,smallerFirst,1,2,18,,,,,,,,
,,,,,,,,,,,,,,,771,2022-01-27_22h13.37.118,multiplicationStroop,2021.2.3,Win32,60.66488716,,,,,,,,,,,,,,,,,,,,,,,,,,,,,,,,,56,5.0136,1,0,34,34,22,1,8,×,7,8 × 7,congruent,largerFirst,2,1,56,,,,,,,,
,,,,,,,,,,,,,,,771,2022-01-27_22h13.37.118,multiplicationStroop,2021.2.3,Win32,60.66488716,,,,,,,,,,,,,,,,,,,,,,,,,,,,,,,,,27,3.7061,1,0,35,35,12,1,3,×,9,3 × 9,congruent,smallerFirst,1,2,27,,,,,,,,
,,,,,,,,,,,,,,,771,2022-01-27_22h13.37.118,multiplicationStroop,2021.2.3,Win32,60.66488716,,,,,,,,,,,,,,,,,,,,,,,,,,,,,,,,,,,,,,,,,,,,,,,,,,0,4,4,3,1,stimulusFile/mult_blk4_congruent.xlsx,,
,,,,,,,,,,,,,,,771,2022-01-27_22h13.37.118,multiplicationStroop,2021.2.3,Win32,60.66488716,,,,,,,,,,,,,,,,,,,,,,,,,,,,,,,space,1.3362,18,3.8337,1,0,0,0,0,1,3,×,6,3 × 6,neutral,smallerFirst,1.5,1.5,18,,,,,,,,
,,,,,,,,,,,,,,,771,2022-01-27_22h13.37.118,multiplicationStroop,2021.2.3,Win32,60.66488716,,,,,,,,,,,,,,,,,,,,,,,,,,,,,,,,,40,1.9191,1,0,1,1,24,1,8,×,5,8 × 5,neutral,largerFirst,1.5,1.5,40,,,,,,,,
,,,,,,,,,,,,,,,771,2022-01-27_22h13.37.118,multiplicationStroop,2021.2.3,Win32,60.66488716,,,,,,,,,,,,,,,,,,,,,,,,,,,,,,,,,9,1.5992,1,0,2,2,29,1,3,×,3,3 × 3,neutral,tie,1.5,1.5,9,,,,,,,,
,,,,,,,,,,,,,,,771,2022-01-27_22h13.37.118,multiplicationStroop,2021.2.3,Win32,60.66488716,,,,,,,,,,,,,,,,,,,,,,,,,,,,,,,,,4,1.4492,1,0,3,3,28,1,2,×,2,2 × 2,neutral,tie,1.5,1.5,4,,,,,,,,
,,,,,,,,,,,,,,,771,2022-01-27_22h13.37.118,multiplicationStroop,2021.2.3,Win32,60.66488716,,,,,,,,,,,,,,,,,,,,,,,,,,,,,,,,,6,1.5485,1,0,4,4,26,1,3,×,2,3 × 2,neutral,largerFirst,1.5,1.5,6,,,,,,,,
,,,,,,,,,,,,,,,771,2022-01-27_22h13.37.118,multiplicationStroop,2021.2.3,Win32,60.66488716,,,,,,,,,,,,,,,,,,,,,,,,,,,,,,,,,81,2.9152,1,0,5,5,35,1,9,×,9,9 × 9,neutral,tie,1.5,1.5,81,,,,,,,,
,,,,,,,,,,,,,,,771,2022-01-27_22h13.37.118,multiplicationStroop,2021.2.3,Win32,60.66488716,,,,,,,,,,,,,,,,,,,,,,,,,,,,,,,,,35,2.2858,1,0,6,6,1,1,5,×,7,5 × 7,neutral,smallerFirst,1.5,1.5,35,,,,,,,,
,,,,,,,,,,,,,,,771,2022-01-27_22h13.37.118,multiplicationStroop,2021.2.3,Win32,60.66488716,,,,,,,,,,,,,,,,,,,,,,,,,,,,,,,,,30,2.4984,1,0,7,7,19,1,6,×,5,6 × 5,neutral,largerFirst,1.5,1.5,30,,,,,,,,
,,,,,,,,,,,,,,,771,2022-01-27_22h13.37.118,multiplicationStroop,2021.2.3,Win32,60.66488716,,,,,,,,,,,,,,,,,,,,,,,,,,,,,,,,,16,2.0153,1,0,8,8,30,1,4,×,4,4 × 4,neutral,tie,1.5,1.5,16,,,,,,,,
,,,,,,,,,,,,,,,771,2022-01-27_22h13.37.118,multiplicationStroop,2021.2.3,Win32,60.66488716,,,,,,,,,,,,,,,,,,,,,,,,,,,,,,,,,27,5.9478,1,0,9,9,14,1,9,×,3,9 × 3,neutral,largerFirst,1.5,1.5,27,,,,,,,,
,,,,,,,,,,,,,,,771,2022-01-27_22h13.37.118,multiplicationStroop,2021.2.3,Win32,60.66488716,,,,,,,,,,,,,,,,,,,,,,,,,,,,,,,,,12,1.6862,1,0,10,10,21,1,4,×,3,4 × 3,neutral,largerFirst,1.5,1.5,12,,,,,,,,
,,,,,,,,,,,,,,,771,2022-01-27_22h13.37.118,multiplicationStroop,2021.2.3,Win32,60.66488716,,,,,,,,,,,,,,,,,,,,,,,,,,,,,,,,,16,3.1319,1,0,11,11,13,1,2,×,8,2 × 8,neutral,smallerFirst,1.5,1.5,16,,,,,,,,
,,,,,,,,,,,,,,,771,2022-01-27_22h13.37.118,multiplicationStroop,2021.2.3,Win32,60.66488716,,,,,,,,,,,,,,,,,,,,,,,,,,,,,,,,,24,2.9818,1,0,12,12,22,1,8,×,3,8 × 3,neutral,largerFirst,1.5,1.5,24,,,,,,,,
,,,,,,,,,,,,,,,771,2022-01-27_22h13.37.118,multiplicationStroop,2021.2.3,Win32,60.66488716,,,,,,,,,,,,,,,,,,,,,,,,,,,,,,,,,14,2.0362,1,0,13,13,16,1,7,×,2,7 × 2,neutral,largerFirst,1.5,1.5,14,,,,,,,,
,,,,,,,,,,,,,,,771,2022-01-27_22h13.37.118,multiplicationStroop,2021.2.3,Win32,60.66488716,,,,,,,,,,,,,,,,,,,,,,,,,,,,,,,,,54,7.4807,1,0,14,14,7,1,6,×,9,6 × 9,neutral,smallerFirst,1.5,1.5,54,,,,,,,,
,,,,,,,,,,,,,,,771,2022-01-27_22h13.37.118,multiplicationStroop,2021.2.3,Win32,60.66488716,,,,,,,,,,,,,,,,,,,,,,,,,,,,,,,,,12,2.6844,1,0,15,15,25,1,6,×,2,6 × 2,neutral,largerFirst,1.5,1.5,12,,,,,,,,
,,,,,,,,,,,,,,,771,2022-01-27_22h13.37.118,multiplicationStroop,2021.2.3,Win32,60.66488716,,,,,,,,,,,,,,,,,,,,,,,,,,,,,,,,,32,2.7485,1,0,16,16,23,1,8,×,4,8 × 4,neutral,largerFirst,1.5,1.5,32,,,,,,,,
,,,,,,,,,,,,,,,771,2022-01-27_22h13.37.118,multiplicationStroop,2021.2.3,Win32,60.66488716,,,,,,,,,,,,,,,,,,,,,,,,,,,,,,,,,45,3.4813,1,0,17,17,10,1,5,×,9,5 × 9,neutral,smallerFirst,1.5,1.5,45,,,,,,,,
,,,,,,,,,,,,,,,771,2022-01-27_22h13.37.118,multiplicationStroop,2021.2.3,Win32,60.66488716,,,,,,,,,,,,,,,,,,,,,,,,,,,,,,,,,42,2.0358,1,0,18,18,6,1,6,×,7,6 × 7,neutral,smallerFirst,1.5,1.5,42,,,,,,,,
,,,,,,,,,,,,,,,771,2022-01-27_22h13.37.118,multiplicationStroop,2021.2.3,Win32,60.66488716,,,,,,,,,,,,,,,,,,,,,,,,,,,,,,,,,28,1.981,1,0,19,19,17,1,7,×,4,7 × 4,neutral,largerFirst,1.5,1.5,28,,,,,,,,
,,,,,,,,,,,,,,,771,2022-01-27_22h13.37.118,multiplicationStroop,2021.2.3,Win32,60.66488716,,,,,,,,,,,,,,,,,,,,,,,,,,,,,,,,,10,1.83,1,0,20,20,4,1,2,×,5,2 × 5,neutral,smallerFirst,1.5,1.5,10,,,,,,,,
,,,,,,,,,,,,,,,771,2022-01-27_22h13.37.118,multiplicationStroop,2021.2.3,Win32,60.66488716,,,,,,,,,,,,,,,,,,,,,,,,,,,,,,,,,21,3.6843,1,0,21,21,8,1,3,×,7,3 × 7,neutral,smallerFirst,1.5,1.5,21,,,,,,,,
,,,,,,,,,,,,,,,771,2022-01-27_22h13.37.118,multiplicationStroop,2021.2.3,Win32,60.66488716,,,,,,,,,,,,,,,,,,,,,,,,,,,,,,,,,24,3.1137,1,0,22,22,2,1,4,×,6,4 × 6,neutral,smallerFirst,1.5,1.5,24,,,,,,,,
,,,,,,,,,,,,,,,771,2022-01-27_22h13.37.118,multiplicationStroop,2021.2.3,Win32,60.66488716,,,,,,,,,,,,,,,,,,,,,,,,,,,,,,,,,15,1.7148,1,0,23,23,5,1,3,×,5,3 × 5,neutral,smallerFirst,1.5,1.5,15,,,,,,,,
,,,,,,,,,,,,,,,771,2022-01-27_22h13.37.118,multiplicationStroop,2021.2.3,Win32,60.66488716,,,,,,,,,,,,,,,,,,,,,,,,,,,,,,,,,56,3.8136,1,0,24,24,9,1,7,×,8,7 × 8,neutral,smallerFirst,1.5,1.5,56,,,,,,,,
,,,,,,,,,,,,,,,771,2022-01-27_22h13.37.118,multiplicationStroop,2021.2.3,Win32,60.66488716,,,,,,,,,,,,,,,,,,,,,,,,,,,,,,,,,64,2.7509,1,0,25,25,34,1,8,×,8,8 × 8,neutral,tie,1.5,1.5,64,,,,,,,,
,,,,,,,,,,,,,,,771,2022-01-27_22h13.37.118,multiplicationStroop,2021.2.3,Win32,60.66488716,,,,,,,,,,,,,,,,,,,,,,,,,,,,,,,,,72,3.2304,1,0,26,26,11,1,8,×,9,8 × 9,neutral,smallerFirst,1.5,1.5,72,,,,,,,,
,,,,,,,,,,,,,,,771,2022-01-27_22h13.37.118,multiplicationStroop,2021.2.3,Win32,60.66488716,,,,,,,,,,,,,,,,,,,,,,,,,,,,,,,,,49,2.0356,1,0,27,27,33,1,7,×,7,7 × 7,neutral,tie,1.5,1.5,49,,,,,,,,
,,,,,,,,,,,,,,,771,2022-01-27_22h13.37.118,multiplicationStroop,2021.2.3,Win32,60.66488716,,,,,,,,,,,,,,,,,,,,,,,,,,,,,,,,,63,4.251,1,0,28,28,12,1,7,×,9,7 × 9,neutral,smallerFirst,1.5,1.5,63,,,,,,,,
,,,,,,,,,,,,,,,771,2022-01-27_22h13.37.118,multiplicationStroop,2021.2.3,Win32,60.66488716,,,,,,,,,,,,,,,,,,,,,,,,,,,,,,,,,48,2.5188,1,0,29,29,15,1,8,×,6,8 × 6,neutral,largerFirst,1.5,1.5,48,,,,,,,,
,,,,,,,,,,,,,,,771,2022-01-27_22h13.37.118,multiplicationStroop,2021.2.3,Win32,60.66488716,,,,,,,,,,,,,,,,,,,,,,,,,,,,,,,,,25,1.8774,1,0,30,30,31,1,5,×,5,5 × 5,neutral,tie,1.5,1.5,25,,,,,,,,
,,,,,,,,,,,,,,,771,2022-01-27_22h13.37.118,multiplicationStroop,2021.2.3,Win32,60.66488716,,,,,,,,,,,,,,,,,,,,,,,,,,,,,,,,,20,2.1181,1,0,31,31,20,1,5,×,4,5 × 4,neutral,largerFirst,1.5,1.5,20,,,,,,,,
,,,,,,,,,,,,,,,771,2022-01-27_22h13.37.118,multiplicationStroop,2021.2.3,Win32,60.66488716,,,,,,,,,,,,,,,,,,,,,,,,,,,,,,,,,36,2.832,1,0,32,32,32,1,6,×,6,6 × 6,neutral,tie,1.5,1.5,36,,,,,,,,
,,,,,,,,,,,,,,,771,2022-01-27_22h13.37.118,multiplicationStroop,2021.2.3,Win32,60.66488716,,,,,,,,,,,,,,,,,,,,,,,,,,,,,,,,,18,3.182,1,0,33,33,18,1,9,×,2,9 × 2,neutral,largerFirst,1.5,1.5,18,,,,,,,,
,,,,,,,,,,,,,,,771,2022-01-27_22h13.37.118,multiplicationStroop,2021.2.3,Win32,60.66488716,,,,,,,,,,,,,,,,,,,,,,,,,,,,,,,,,8,1.6521,1,0,34,34,3,1,2,×,4,2 × 4,neutral,smallerFirst,1.5,1.5,8,,,,,,,,
,,,,,,,,,,,,,,,771,2022-01-27_22h13.37.118,multiplicationStroop,2021.2.3,Win32,60.66488716,,,,,,,,,,,,,,,,,,,,,,,,,,,,,,,,,36,5.1268,1,0,35,35,27,1,9,×,4,9 × 4,neutral,largerFirst,1.5,1.5,36,,,,,,,,
,,,,,,,,,,,,,,,771,2022-01-27_22h13.37.118,multiplicationStroop,2021.2.3,Win32,60.66488716,,,,,,,,,,,,,,,,,,,,,,,,,,,,,,,,,,,,,,,,,,,,,,,,,,0,5,5,1,1,stimulusFile/mult_blk2.xlsx,,
,,,,,,,,,,,,,,,771,2022-01-27_22h13.37.118,multiplicationStroop,2021.2.3,Win32,60.66488716,,,,,,,,,,,,,,,,,,,,,,,,,,,,,,,,,,,,,,,,,,,,,,,,,,,,,,,,space,4.4938