welcomeKey_resp.keys,welcomeKey_resp.rt,X Scale,Y Scale,rt_resp_4.keys,rt_resp_4.corr,rt_resp_4.rt,speedtest_2.thisRepN,speedtest_2.thisTrialN,speedtest_2.thisN,speedtest_2.thisIndex,speedtest_2.ran,numberSc,posX,positionLayout,participant,date,expName,psychopyVersion,OS,frameRate,ct_instrresp.keys,ct_instrresp.rt,key_resp_2.keys,key_resp_2.rt,ct_keyResp.keys,ct_keyResp.corr,ct_keyResp.rt,trials.thisRepN,trials.thisTrialN,trials.thisN,trials.thisIndex,trials.ran,leftNo,rightNo,displayProblem,numDistance,leftNo_size,rightNo_size,Dims,keyAnswer,TS_Loop.thisRepN,TS_Loop.thisTrialN,TS_Loop.thisN,TS_Loop.thisIndex,TS_Loop.ran,Condition,ActionInst,instrImage,mltptaskInst_resp.keys,mltptaskInst_resp.rt,continue_resp_2.keys,continue_resp_2.rt,multp_Answer,multi_RT,multiplyCorr,LoopingMultiply.thisRepN,LoopingMultiply.thisTrialN,LoopingMultiply.thisN,LoopingMultiply.thisIndex,LoopingMultiply.ran,factor1,multiplySign,factor2,multliplyProblem,physicalSize,orderOperand,sizeF1,sizeF2,mult_answer,trials_stroop.thisRepN,trials_stroop.thisTrialN,trials_stroop.thisN,trials_stroop.thisIndex,trials_stroop.ran,multiplicationFile,esckey_resp_2.keys,esckey_resp_2.rt
y,9.66,50.4,50.3,left,1,0.509,0,0,0,3,1,4,-200,left,772,2022-01-19_09h22.06.739,multiplicationStroop,2021.2.3,MacIntel,52.63157895,,,,,,,,,,,,,,,,,,,,,,,,,,,,,,,,,,,,,,,,,,,,,,,,,,,,,,,,,
,,,,right,1,0.358,0,1,1,12,1,6,200,right,772,2022-01-19_09h22.06.739,multiplicationStroop,2021.2.3,MacIntel,52.63157895,,,,,,,,,,,,,,,,,,,,,,,,,,,,,,,,,,,,,,,,,,,,,,,,,,,,,,,,,
,,,,left,1,0.362,0,2,2,4,1,6,-200,left,772,2022-01-19_09h22.06.739,multiplicationStroop,2021.2.3,MacIntel,52.63157895,,,,,,,,,,,,,,,,,,,,,,,,,,,,,,,,,,,,,,,,,,,,,,,,,,,,,,,,,
,,,,left,1,0.378,0,3,3,5,1,7,-200,left,772,2022-01-19_09h22.06.739,multiplicationStroop,2021.2.3,MacIntel,52.63157895,,,,,,,,,,,,,,,,,,,,,,,,,,,,,,,,,,,,,,,,,,,,,,,,,,,,,,,,,
,,,,left,1,0.33,0,4,4,1,1,2,-200,left,772,2022-01-19_09h22.06.739,multiplicationStroop,2021.2.3,MacIntel,52.63157895,,,,,,,,,,,,,,,,,,,,,,,,,,,,,,,,,,,,,,,,,,,,,,,,,,,,,,,,,
,,,,right,1,0.361,0,5,5,10,1,3,200,right,772,2022-01-19_09h22.06.739,multiplicationStroop,2021.2.3,MacIntel,52.63157895,,,,,,,,,,,,,,,,,,,,,,,,,,,,,,,,,,,,,,,,,,,,,,,,,,,,,,,,,
,,,,left,1,0.37,0,6,6,2,1,3,-200,left,772,2022-01-19_09h22.06.739,multiplicationStroop,2021.2.3,MacIntel,52.63157895,,,,,,,,,,,,,,,,,,,,,,,,,,,,,,,,,,,,,,,,,,,,,,,,,,,,,,,,,
,,,,right,1,0.395,0,7,7,15,1,9,200,right,772,2022-01-19_09h22.06.739,multiplicationStroop,2021.2.3,MacIntel,52.63157895,,,,,,,,,,,,,,,,,,,,,,,,,,,,,,,,,,,,,,,,,,,,,,,,,,,,,,,,,
,,,,right,1,0.341,0,8,8,13,1,7,200,right,772,2022-01-19_09h22.06.739,multiplicationStroop,2021.2.3,MacIntel,52.63157895,,,,,,,,,,,,,,,,,,,,,,,,,,,,,,,,,,,,,,,,,,,,,,,,,,,,,,,,,
,,,,right,1,0.307,0,9,9,11,1,4,200,right,772,2022-01-19_09h22.06.739,multiplicationStroop,2021.2.3,MacIntel,52.63157895,,,,,,,,,,,,,,,,,,,,,,,,,,,,,,,,,,,,,,,,,,,,,,,,,,,,,,,,,
,,,,left,1,0.354,0,10,10,6,1,8,-200,left,772,2022-01-19_09h22.06.739,multiplicationStroop,2021.2.3,MacIntel,52.63157895,,,,,,,,,,,,,,,,,,,,,,,,,,,,,,,,,,,,,,,,,,,,,,,,,,,,,,,,,
,,,,right,1,0.317,0,11,11,8,1,1,200,right,772,2022-01-19_09h22.06.739,multiplicationStroop,2021.2.3,MacIntel,52.63157895,,,,,,,,,,,,,,,,,,,,,,,,,,,,,,,,,,,,,,,,,,,,,,,,,,,,,,,,,
,,,,right,1,0.337,0,12,12,9,1,2,200,right,772,2022-01-19_09h22.06.739,multiplicationStroop,2021.2.3,MacIntel,52.63157895,,,,,,,,,,,,,,,,,,,,,,,,,,,,,,,,,,,,,,,,,,,,,,,,,,,,,,,,,
,,,,left,1,0.351,0,13,13,0,1,1,-200,left,772,2022-01-19_09h22.06.739,multiplicationStroop,2021.2.3,MacIntel,52.63157895,,,,,,,,,,,,,,,,,,,,,,,,,,,,,,,,,,,,,,,,,,,,,,,,,,,,,,,,,
,,,,left,1,0.353,0,14,14,7,1,9,-200,left,772,2022-01-19_09h22.06.739,multiplicationStroop,2021.2.3,MacIntel,52.63157895,,,,,,,,,,,,,,,,,,,,,,,,,,,,,,,,,,,,,,,,,,,,,,,,,,,,,,,,,
,,,,right,1,0.323,0,15,15,14,1,8,200,right,772,2022-01-19_09h22.06.739,multiplicationStroop,2021.2.3,MacIntel,52.63157895,,,,,,,,,,,,,,,,,,,,,,,,,,,,,,,,,,,,,,,,,,,,,,,,,,,,,,,,,
,,,,right,1,0.315,1,0,16,15,1,9,200,right,772,2022-01-19_09h22.06.739,multiplicationStroop,2021.2.3,MacIntel,52.63157895,,,,,,,,,,,,,,,,,,,,,,,,,,,,,,,,,,,,,,,,,,,,,,,,,,,,,,,,,
,,,,right,1,0.337,1,1,17,12,1,6,200,right,772,2022-01-19_09h22.06.739,multiplicationStroop,2021.2.3,MacIntel,52.63157895,,,,,,,,,,,,,,,,,,,,,,,,,,,,,,,,,,,,,,,,,,,,,,,,,,,,,,,,,
,,,,left,1,0.347,1,2,18,7,1,9,-200,left,772,2022-01-19_09h22.06.739,multiplicationStroop,2021.2.3,MacIntel,52.63157895,,,,,,,,,,,,,,,,,,,,,,,,,,,,,,,,,,,,,,,,,,,,,,,,,,,,,,,,,
,,,,left,1,0.346,1,3,19,3,1,4,-200,left,772,2022-01-19_09h22.06.739,multiplicationStroop,2021.2.3,MacIntel,52.63157895,,,,,,,,,,,,,,,,,,,,,,,,,,,,,,,,,,,,,,,,,,,,,,,,,,,,,,,,,
,,,,right,1,0.353,1,4,20,10,1,3,200,right,772,2022-01-19_09h22.06.739,multiplicationStroop,2021.2.3,MacIntel,52.63157895,,,,,,,,,,,,,,,,,,,,,,,,,,,,,,,,,,,,,,,,,,,,,,,,,,,,,,,,,
,,,,right,1,0.349,1,5,21,11,1,4,200,right,772,2022-01-19_09h22.06.739,multiplicationStroop,2021.2.3,MacIntel,52.63157895,,,,,,,,,,,,,,,,,,,,,,,,,,,,,,,,,,,,,,,,,,,,,,,,,,,,,,,,,
,,,,right,1,0.299,1,6,22,14,1,8,200,right,772,2022-01-19_09h22.06.739,multiplicationStroop,2021.2.3,MacIntel,52.63157895,,,,,,,,,,,,,,,,,,,,,,,,,,,,,,,,,,,,,,,,,,,,,,,,,,,,,,,,,
,,,,right,1,0.311,1,7,23,13,1,7,200,right,772,2022-01-19_09h22.06.739,multiplicationStroop,2021.2.3,MacIntel,52.63157895,,,,,,,,,,,,,,,,,,,,,,,,,,,,,,,,,,,,,,,,,,,,,,,,,,,,,,,,,
,,,,left,1,0.361,1,8,24,0,1,1,-200,left,772,2022-01-19_09h22.06.739,multiplicationStroop,2021.2.3,MacIntel,52.63157895,,,,,,,,,,,,,,,,,,,,,,,,,,,,,,,,,,,,,,,,,,,,,,,,,,,,,,,,,
,,,,left,1,0.314,1,9,25,6,1,8,-200,left,772,2022-01-19_09h22.06.739,multiplicationStroop,2021.2.3,MacIntel,52.63157895,,,,,,,,,,,,,,,,,,,,,,,,,,,,,,,,,,,,,,,,,,,,,,,,,,,,,,,,,
,,,,left,1,0.366,1,10,26,2,1,3,-200,left,772,2022-01-19_09h22.06.739,multiplicationStroop,2021.2.3,MacIntel,52.63157895,,,,,,,,,,,,,,,,,,,,,,,,,,,,,,,,,,,,,,,,,,,,,,,,,,,,,,,,,
,,,,left,1,0.336,1,11,27,4,1,6,-200,left,772,2022-01-19_09h22.06.739,multiplicationStroop,2021.2.3,MacIntel,52.63157895,,,,,,,,,,,,,,,,,,,,,,,,,,,,,,,,,,,,,,,,,,,,,,,,,,,,,,,,,
,,,,left,1,0.333,1,12,28,5,1,7,-200,left,772,2022-01-19_09h22.06.739,multiplicationStroop,2021.2.3,MacIntel,52.63157895,,,,,,,,,,,,,,,,,,,,,,,,,,,,,,,,,,,,,,,,,,,,,,,,,,,,,,,,,
,,,,right,1,0.305,1,13,29,8,1,1,200,right,772,2022-01-19_09h22.06.739,multiplicationStroop,2021.2.3,MacIntel,52.63157895,,,,,,,,,,,,,,,,,,,,,,,,,,,,,,,,,,,,,,,,,,,,,,,,,,,,,,,,,
,,,,right,1,0.295,1,14,30,9,1,2,200,right,772,2022-01-19_09h22.06.739,multiplicationStroop,2021.2.3,MacIntel,52.63157895,,,,,,,,,,,,,,,,,,,,,,,,,,,,,,,,,,,,,,,,,,,,,,,,,,,,,,,,,
,,,,left,1,0.426,1,15,31,1,1,2,-200,left,772,2022-01-19_09h22.06.739,multiplicationStroop,2021.2.3,MacIntel,52.63157895,,,,,,,,,,,,,,,,,,,,,,,,,,,,,,,,,,,,,,,,,,,,,,,,,,,,,,,,,
,,,,left,1,0.368,2,0,32,3,1,4,-200,left,772,2022-01-19_09h22.06.739,multiplicationStroop,2021.2.3,MacIntel,52.63157895,,,,,,,,,,,,,,,,,,,,,,,,,,,,,,,,,,,,,,,,,,,,,,,,,,,,,,,,,
,,,,right,1,0.31,2,1,33,12,1,6,200,right,772,2022-01-19_09h22.06.739,multiplicationStroop,2021.2.3,MacIntel,52.63157895,,,,,,,,,,,,,,,,,,,,,,,,,,,,,,,,,,,,,,,,,,,,,,,,,,,,,,,,,
,,,,right,1,0.298,2,2,34,8,1,1,200,right,772,2022-01-19_09h22.06.739,multiplicationStroop,2021.2.3,MacIntel,52.63157895,,,,,,,,,,,,,,,,,,,,,,,,,,,,,,,,,,,,,,,,,,,,,,,,,,,,,,,,,
,,,,right,1,0.298,2,3,35,13,1,7,200,right,772,2022-01-19_09h22.06.739,multiplicationStroop,2021.2.3,MacIntel,52.63157895,,,,,,,,,,,,,,,,,,,,,,,,,,,,,,,,,,,,,,,,,,,,,,,,,,,,,,,,,
,,,,right,1,0.269,2,4,36,9,1,2,200,right,772,2022-01-19_09h22.06.739,multiplicationStroop,2021.2.3,MacIntel,52.63157895,,,,,,,,,,,,,,,,,,,,,,,,,,,,,,,,,,,,,,,,,,,,,,,,,,,,,,,,,
,,,,left,1,0.367,2,5,37,4,1,6,-200,left,772,2022-01-19_09h22.06.739,multiplicationStroop,2021.2.3,MacIntel,52.63157895,,,,,,,,,,,,,,,,,,,,,,,,,,,,,,,,,,,,,,,,,,,,,,,,,,,,,,,,,
,,,,right,1,0.334,2,6,38,14,1,8,200,right,772,2022-01-19_09h22.06.739,multiplicationStroop,2021.2.3,MacIntel,52.63157895,,,,,,,,,,,,,,,,,,,,,,,,,,,,,,,,,,,,,,,,,,,,,,,,,,,,,,,,,
,,,,right,1,0.33,2,7,39,15,1,9,200,right,772,2022-01-19_09h22.06.739,multiplicationStroop,2021.2.3,MacIntel,52.63157895,,,,,,,,,,,,,,,,,,,,,,,,,,,,,,,,,,,,,,,,,,,,,,,,,,,,,,,,,
,,,,left,1,0.343,2,8,40,1,1,2,-200,left,772,2022-01-19_09h22.06.739,multiplicationStroop,2021.2.3,MacIntel,52.63157895,,,,,,,,,,,,,,,,,,,,,,,,,,,,,,,,,,,,,,,,,,,,,,,,,,,,,,,,,
,,,,right,1,0.296,2,9,41,11,1,4,200,right,772,2022-01-19_09h22.06.739,multiplicationStroop,2021.2.3,MacIntel,52.63157895,,,,,,,,,,,,,,,,,,,,,,,,,,,,,,,,,,,,,,,,,,,,,,,,,,,,,,,,,
,,,,left,1,0.322,2,10,42,0,1,1,-200,left,772,2022-01-19_09h22.06.739,multiplicationStroop,2021.2.3,MacIntel,52.63157895,,,,,,,,,,,,,,,,,,,,,,,,,,,,,,,,,,,,,,,,,,,,,,,,,,,,,,,,,
,,,,left,1,0.346,2,11,43,5,1,7,-200,left,772,2022-01-19_09h22.06.739,multiplicationStroop,2021.2.3,MacIntel,52.63157895,,,,,,,,,,,,,,,,,,,,,,,,,,,,,,,,,,,,,,,,,,,,,,,,,,,,,,,,,
,,,,right,1,0.382,2,12,44,10,1,3,200,right,772,2022-01-19_09h22.06.739,multiplicationStroop,2021.2.3,MacIntel,52.63157895,,,,,,,,,,,,,,,,,,,,,,,,,,,,,,,,,,,,,,,,,,,,,,,,,,,,,,,,,
,,,,left,1,0.352,2,13,45,7,1,9,-200,left,772,2022-01-19_09h22.06.739,multiplicationStroop,2021.2.3,MacIntel,52.63157895,,,,,,,,,,,,,,,,,,,,,,,,,,,,,,,,,,,,,,,,,,,,,,,,,,,,,,,,,
,,,,left,1,0.367,2,14,46,6,1,8,-200,left,772,2022-01-19_09h22.06.739,multiplicationStroop,2021.2.3,MacIntel,52.63157895,,,,,,,,,,,,,,,,,,,,,,,,,,,,,,,,,,,,,,,,,,,,,,,,,,,,,,,,,
,,,,left,1,0.333,2,15,47,2,1,3,-200,left,772,2022-01-19_09h22.06.739,multiplicationStroop,2021.2.3,MacIntel,52.63157895,,,,,,,,,,,,,,,,,,,,,,,,,,,,,,,,,,,,,,,,,,,,,,,,,,,,,,,,,
,,,,right,1,0.352,3,0,48,12,1,6,200,right,772,2022-01-19_09h22.06.739,multiplicationStroop,2021.2.3,MacIntel,52.63157895,,,,,,,,,,,,,,,,,,,,,,,,,,,,,,,,,,,,,,,,,,,,,,,,,,,,,,,,,
,,,,left,1,0.336,3,1,49,0,1,1,-200,left,772,2022-01-19_09h22.06.739,multiplicationStroop,2021.2.3,MacIntel,52.63157895,,,,,,,,,,,,,,,,,,,,,,,,,,,,,,,,,,,,,,,,,,,,,,,,,,,,,,,,,
,,,,right,1,0.402,3,2,50,15,1,9,200,right,772,2022-01-19_09h22.06.739,multiplicationStroop,2021.2.3,MacIntel,52.63157895,,,,,,,,,,,,,,,,,,,,,,,,,,,,,,,,,,,,,,,,,,,,,,,,,,,,,,,,,
,,,,left,1,0.351,3,3,51,4,1,6,-200,left,772,2022-01-19_09h22.06.739,multiplicationStroop,2021.2.3,MacIntel,52.63157895,,,,,,,,,,,,,,,,,,,,,,,,,,,,,,,,,,,,,,,,,,,,,,,,,,,,,,,,,
,,,,right,1,0.332,3,4,52,13,1,7,200,right,772,2022-01-19_09h22.06.739,multiplicationStroop,2021.2.3,MacIntel,52.63157895,,,,,,,,,,,,,,,,,,,,,,,,,,,,,,,,,,,,,,,,,,,,,,,,,,,,,,,,,
,,,,left,1,0.345,3,5,53,5,1,7,-200,left,772,2022-01-19_09h22.06.739,multiplicationStroop,2021.2.3,MacIntel,52.63157895,,,,,,,,,,,,,,,,,,,,,,,,,,,,,,,,,,,,,,,,,,,,,,,,,,,,,,,,,
,,,,left,1,0.368,3,6,54,3,1,4,-200,left,772,2022-01-19_09h22.06.739,multiplicationStroop,2021.2.3,MacIntel,52.63157895,,,,,,,,,,,,,,,,,,,,,,,,,,,,,,,,,,,,,,,,,,,,,,,,,,,,,,,,,
,,,,left,1,0.289,3,7,55,7,1,9,-200,left,772,2022-01-19_09h22.06.739,multiplicationStroop,2021.2.3,MacIntel,52.63157895,,,,,,,,,,,,,,,,,,,,,,,,,,,,,,,,,,,,,,,,,,,,,,,,,,,,,,,,,
,,,,left,0,0.251,3,8,56,11,1,4,200,right,772,2022-01-19_09h22.06.739,multiplicationStroop,2021.2.3,MacIntel,52.63157895,,,,,,,,,,,,,,,,,,,,,,,,,,,,,,,,,,,,,,,,,,,,,,,,,,,,,,,,,
,,,,left,1,0.623,3,9,57,6,1,8,-200,left,772,2022-01-19_09h22.06.739,multiplicationStroop,2021.2.3,MacIntel,52.63157895,,,,,,,,,,,,,,,,,,,,,,,,,,,,,,,,,,,,,,,,,,,,,,,,,,,,,,,,,
,,,,right,1,0.365,3,10,58,9,1,2,200,right,772,2022-01-19_09h22.06.739,multiplicationStroop,2021.2.3,MacIntel,52.63157895,,,,,,,,,,,,,,,,,,,,,,,,,,,,,,,,,,,,,,,,,,,,,,,,,,,,,,,,,
,,,,left,1,0.369,3,11,59,2,1,3,-200,left,772,2022-01-19_09h22.06.739,multiplicationStroop,2021.2.3,MacIntel,52.63157895,,,,,,,,,,,,,,,,,,,,,,,,,,,,,,,,,,,,,,,,,,,,,,,,,,,,,,,,,
,,,,left,1,0.365,3,12,60,1,1,2,-200,left,772,2022-01-19_09h22.06.739,multiplicationStroop,2021.2.3,MacIntel,52.63157895,,,,,,,,,,,,,,,,,,,,,,,,,,,,,,,,,,,,,,,,,,,,,,,,,,,,,,,,,
,,,,right,1,0.415,3,13,61,8,1,1,200,right,772,2022-01-19_09h22.06.739,multiplicationStroop,2021.2.3,MacIntel,52.63157895,,,,,,,,,,,,,,,,,,,,,,,,,,,,,,,,,,,,,,,,,,,,,,,,,,,,,,,,,
,,,,right,1,0.335,3,14,62,10,1,3,200,right,772,2022-01-19_09h22.06.739,multiplicationStroop,2021.2.3,MacIntel,52.63157895,,,,,,,,,,,,,,,,,,,,,,,,,,,,,,,,,,,,,,,,,,,,,,,,,,,,,,,,,
,,,,right,1,0.296,3,15,63,14,1,8,200,right,772,2022-01-19_09h22.06.739,multiplicationStroop,2021.2.3,MacIntel,52.63157895,,,,,,,,,,,,,,,,,,,,,,,,,,,,,,,,,,,,,,,,,,,,,,,,,,,,,,,,,
,,,,,,,,,,,,,,,772,2022-01-19_09h22.06.739,multiplicationStroop,2021.2.3,MacIntel,52.63157895,space,27.392,space,4.849,right,1,0.837,0,0,0,1,1,3,4,3 | 4,1,1.4111,1.9756,congruent,right,,,,,,stimulusFile/physical.xlsx,,,,,,,,,,,,,,,,,,,,,,,,,,,,,,,
,,,,,,,,,,,,,,,772,2022-01-19_09h22.06.739,multiplicationStroop,2021.2.3,MacIntel,52.63157895,,,,,left,1,0.522,0,1,1,40,1,1,6,1 | 6,5,1.9756,1.4111,incongruent,left,,,,,,stimulusFile/physical.xlsx,,,,,,,,,,,,,,,,,,,,,,,,,,,,,,,
,,,,,,,,,,,,,,,772,2022-01-19_09h22.06.739,multiplicationStroop,2021.2.3,MacIntel,52.63157895,,,,,right,1,0.443,0,2,2,17,1,2,7,2 | 7,5,1.4111,1.9756,congruent,right,,,,,,stimulusFile/physical.xlsx,,,,,,,,,,,,,,,,,,,,,,,,,,,,,,,
,,,,,,,,,,,,,,,772,2022-01-19_09h22.06.739,multiplicationStroop,2021.2.3,MacIntel,52.63157895,,,,,left,1,0.461,0,3,3,32,1,1,3,1 | 3,2,1.9756,1.4111,incongruent,left,,,,,,stimulusFile/physical.xlsx,,,,,,,,,,,,,,,,,,,,,,,,,,,,,,,
,,,,,,,,,,,,,,,772,2022-01-19_09h22.06.739,multiplicationStroop,2021.2.3,MacIntel,52.63157895,,,,,left,1,0.577,0,4,4,41,1,2,7,2 | 7,5,1.9756,1.4111,incongruent,left,,,,,,stimulusFile/physical.xlsx,,,,,,,,,,,,,,,,,,,,,,,,,,,,,,,
,,,,,,,,,,,,,,,772,2022-01-19_09h22.06.739,multiplicationStroop,2021.2.3,MacIntel,52.63157895,,,,,left,1,0.491,0,5,5,49,1,3,3,3 | 3,0,1.9756,1.4111,neutral,left,,,,,,stimulusFile/physical.xlsx,,,,,,,,,,,,,,,,,,,,,,,,,,,,,,,
,,,,,,,,,,,,,,,772,2022-01-19_09h22.06.739,multiplicationStroop,2021.2.3,MacIntel,52.63157895,,,,,left,1,0.507,0,6,6,23,1,9,4,9 | 4,5,1.9756,1.4111,congruent,left,,,,,,stimulusFile/physical.xlsx,,,,,,,,,,,,,,,,,,,,,,,,,,,,,,,
,,,,,,,,,,,,,,,772,2022-01-19_09h22.06.739,multiplicationStroop,2021.2.3,MacIntel,52.63157895,,,,,left,1,0.468,0,7,7,25,1,3,4,3 | 4,1,1.9756,1.4111,incongruent,left,,,,,,stimulusFile/physical.xlsx,,,,,,,,,,,,,,,,,,,,,,,,,,,,,,,
,,,,,,,,,,,,,,,772,2022-01-19_09h22.06.739,multiplicationStroop,2021.2.3,MacIntel,52.63157895,,,,,right,1,0.51,0,8,8,63,1,9,9,9 | 9,0,1.4111,1.9756,neutral,right,,,,,,stimulusFile/physical.xlsx,,,,,,,,,,,,,,,,,,,,,,,,,,,,,,,
,,,,,,,,,,,,,,,772,2022-01-19_09h22.06.739,multiplicationStroop,2021.2.3,MacIntel,52.63157895,,,,,right,1,0.508,0,9,9,18,1,3,8,3 | 8,5,1.4111,1.9756,congruent,right,,,,,,stimulusFile/physical.xlsx,,,,,,,,,,,,,,,,,,,,,,,,,,,,,,,
,,,,,,,,,,,,,,,772,2022-01-19_09h22.06.739,multiplicationStroop,2021.2.3,MacIntel,52.63157895,,,,,left,1,0.458,0,10,10,15,1,9,7,9 | 7,2,1.9756,1.4111,congruent,left,,,,,,stimulusFile/physical.xlsx,,,,,,,,,,,,,,,,,,,,,,,,,,,,,,,
,,,,,,,,,,,,,,,772,2022-01-19_09h22.06.739,multiplicationStroop,2021.2.3,MacIntel,52.63157895,,,,,right,1,0.407,0,11,11,59,1,7,7,7 | 7,0,1.4111,1.9756,neutral,right,,,,,,stimulusFile/physical.xlsx,,,,,,,,,,,,,,,,,,,,,,,,,,,,,,,
,,,,,,,,,,,,,,,772,2022-01-19_09h22.06.739,multiplicationStroop,2021.2.3,MacIntel,52.63157895,,,,,right,1,0.466,0,12,12,29,1,4,3,4 | 3,1,1.4111,1.9756,incongruent,right,,,,,,stimulusFile/physical.xlsx,,,,,,,,,,,,,,,,,,,,,,,,,,,,,,,
,,,,,,,,,,,,,,,772,2022-01-19_09h22.06.739,multiplicationStroop,2021.2.3,MacIntel,52.63157895,,,,,right,1,0.359,0,13,13,57,1,2,2,2 | 2,0,1.4111,1.9756,neutral,right,,,,,,stimulusFile/physical.xlsx,,,,,,,,,,,,,,,,,,,,,,,,,,,,,,,
,,,,,,,,,,,,,,,772,2022-01-19_09h22.06.739,multiplicationStroop,2021.2.3,MacIntel,52.63157895,,,,,right,1,0.525,0,14,14,3,1,8,9,8 | 9,1,1.4111,1.9756,congruent,right,,,,,,stimulusFile/physical.xlsx,,,,,,,,,,,,,,,,,,,,,,,,,,,,,,,
,,,,,,,,,,,,,,,772,2022-01-19_09h22.06.739,multiplicationStroop,2021.2.3,MacIntel,52.63157895,,,,,right,1,0.494,0,15,15,9,1,2,4,2 | 4,2,1.4111,1.9756,congruent,right,,,,,,stimulusFile/physical.xlsx,,,,,,,,,,,,,,,,,,,,,,,,,,,,,,,
,,,,,,,,,,,,,,,772,2022-01-19_09h22.06.739,multiplicationStroop,2021.2.3,MacIntel,52.63157895,,,,,right,1,0.348,0,16,16,0,1,1,2,1 | 2,1,1.4111,1.9756,congruent,right,,,,,,stimulusFile/physical.xlsx,,,,,,,,,,,,,,,,,,,,,,,,,,,,,,,
,,,,,,,,,,,,,,,772,2022-01-19_09h22.06.739,multiplicationStroop,2021.2.3,MacIntel,52.63157895,,,,,left,1,0.423,0,17,17,20,1,6,1,6 | 1,5,1.9756,1.4111,congruent,left,,,,,,stimulusFile/physical.xlsx,,,,,,,,,,,,,,,,,,,,,,,,,,,,,,,
,,,,,,,,,,,,,,,772,2022-01-19_09h22.06.739,multiplicationStroop,2021.2.3,MacIntel,52.63157895,,,,,left,1,0.466,0,18,18,35,1,7,9,7 | 9,2,1.9756,1.4111,incongruent,left,,,,,,stimulusFile/physical.xlsx,,,,,,,,,,,,,,,,,,,,,,,,,,,,,,,
,,,,,,,,,,,,,,,772,2022-01-19_09h22.06.739,multiplicationStroop,2021.2.3,MacIntel,52.63157895,,,,,left,0,0.473,0,19,19,64,1,1,1,1 | 1,0,1.9756,1.4111,neutral,right,,,,,,stimulusFile/physical.xlsx,,,,,,,,,,,,,,,,,,,,,,,,,,,,,,,
,,,,,,,,,,,,,,,772,2022-01-19_09h22.06.739,multiplicationStroop,2021.2.3,MacIntel,52.63157895,,,,,right,1,0.508,0,20,20,56,1,1,1,1 | 1,0,1.4111,1.9756,neutral,right,,,,,,stimulusFile/physical.xlsx,,,,,,,,,,,,,,,,,,,,,,,,,,,,,,,
,,,,,,,,,,,,,,,772,2022-01-19_09h22.06.739,multiplicationStroop,2021.2.3,MacIntel,52.63157895,,,,,right,1,0.532,0,21,21,8,1,1,3,1 | 3,2,1.4111,1.9756,congruent,right,,,,,,stimulusFile/physical.xlsx,,,,,,,,,,,,,,,,,,,,,,,,,,,,,,,
,,,,,,,,,,,,,,,772,2022-01-19_09h22.06.739,multiplicationStroop,2021.2.3,MacIntel,52.63157895,,,,,left,1,0.414,0,22,22,7,1,9,8,9 | 8,1,1.9756,1.4111,congruent,left,,,,,,stimulusFile/physical.xlsx,,,,,,,,,,,,,,,,,,,,,,,,,,,,,,,
,,,,,,,,,,,,,,,772,2022-01-19_09h22.06.739,multiplicationStroop,2021.2.3,MacIntel,52.63157895,,,,,left,1,0.489,0,23,23,50,1,6,6,6 | 6,0,1.9756,1.4111,neutral,left,,,,,,stimulusFile/physical.xlsx,,,,,,,,,,,,,,,,,,,,,,,,,,,,,,,
,,,,,,,,,,,,,,,772,2022-01-19_09h22.06.739,multiplicationStroop,2021.2.3,MacIntel,52.63157895,,,,,right,1,0.396,0,24,24,60,1,3,3,3 | 3,0,1.4111,1.9756,neutral,right,,,,,,stimulusFile/physical.xlsx,,,,,,,,,,,,,,,,,,,,,,,,,,,,,,,
,,,,,,,,,,,,,,,772,2022-01-19_09h22.06.739,multiplicationStroop,2021.2.3,MacIntel,52.63157895,,,,,right,1,0.511,0,25,25,47,1,9,4,9 | 4,5,1.4111,1.9756,incongruent,right,,,,,,stimulusFile/physical.xlsx,,,,,,,,,,,,,,,,,,,,,,,,,,,,,,,
,,,,,,,,,,,,,,,772,2022-01-19_09h22.06.739,multiplicationStroop,2021.2.3,MacIntel,52.63157895,,,,,left,1,0.411,0,26,26,43,1,4,9,4 | 9,5,1.9756,1.4111,incongruent,left,,,,,,stimulusFile/physical.xlsx,,,,,,,,,,,,,,,,,,,,,,,,,,,,,,,
,,,,,,,,,,,,,,,772,2022-01-19_09h22.06.739,multiplicationStroop,2021.2.3,MacIntel,52.63157895,,,,,left,0,0.408,0,27,27,61,1,4,4,4 | 4,0,1.4111,1.9756,neutral,right,,,,,,stimulusFile/physical.xlsx,,,,,,,,,,,,,,,,,,,,,,,,,,,,,,,
,,,,,,,,,,,,,,,772,2022-01-19_09h22.06.739,multiplicationStroop,2021.2.3,MacIntel,52.63157895,,,,,left,1,0.482,0,28,28,51,1,8,8,8 | 8,0,1.9756,1.4111,neutral,left,,,,,,stimulusFile/physical.xlsx,,,,,,,,,,,,,,,,,,,,,,,,,,,,,,,
,,,,,,,,,,,,,,,772,2022-01-19_09h22.06.739,multiplicationStroop,2021.2.3,MacIntel,52.63157895,,,,,right,1,0.496,0,29,29,28,1,2,1,2 | 1,1,1.4111,1.9756,incongruent,right,,,,,,stimulusFile/physical.xlsx,,,,,,,,,,,,,,,,,,,,,,,,,,,,,,,
,,,,,,,,,,,,,,,772,2022-01-19_09h22.06.739,multiplicationStroop,2021.2.3,MacIntel,52.63157895,,,,,right,1,0.46,0,30,30,10,1,6,8,6 | 8,2,1.4111,1.9756,congruent,right,,,,,,stimulusFile/physical.xlsx,,,,,,,,,,,,,,,,,,,,,,,,,,,,,,,
,,,,,,,,,,,,,,,772,2022-01-19_09h22.06.739,multiplicationStroop,2021.2.3,MacIntel,52.63157895,,,,,right,1,0.414,0,31,31,46,1,8,3,8 | 3,5,1.4111,1.9756,incongruent,right,,,,,,stimulusFile/physical.xlsx,,,,,,,,,,,,,,,,,,,,,,,,,,,,,,,
,,,,,,,,,,,,,,,772,2022-01-19_09h22.06.739,multiplicationStroop,2021.2.3,MacIntel,52.63157895,,,,,right,1,0.366,0,32,32,39,1,9,7,9 | 7,2,1.4111,1.9756,incongruent,right,,,,,,stimulusFile/physical.xlsx,,,,,,,,,,,,,,,,,,,,,,,,,,,,,,,
,,,,,,,,,,,,,,,772,2022-01-19_09h22.06.739,multiplicationStroop,2021.2.3,MacIntel,52.63157895,,,,,right,0,0.411,0,33,33,71,1,9,9,9 | 9,0,1.4111,1.9756,neutral,left,,,,,,stimulusFile/physical.xlsx,,,,,,,,,,,,,,,,,,,,,,,,,,,,,,,
,,,,,,,,,,,,,,,772,2022-01-19_09h22.06.739,multiplicationStroop,2021.2.3,MacIntel,52.63157895,,,,,left,1,0.475,0,34,34,5,1,4,3,4 | 3,1,1.9756,1.4111,congruent,left,,,,,,stimulusFile/physical.xlsx,,,,,,,,,,,,,,,,,,,,,,,,,,,,,,,
,,,,,,,,,,,,,,,772,2022-01-19_09h22.06.739,multiplicationStroop,2021.2.3,MacIntel,52.63157895,,,,,left,1,0.526,0,35,35,48,1,1,1,1 | 1,0,1.9756,1.4111,neutral,left,,,,,,stimulusFile/physical.xlsx,,,,,,,,,,,,,,,,,,,,,,,,,,,,,,,
,,,,,,,,,,,,,,,772,2022-01-19_09h22.06.739,multiplicationStroop,2021.2.3,MacIntel,52.63157895,,,,,right,1,0.471,0,36,36,31,1,9,8,9 | 8,1,1.4111,1.9756,incongruent,right,,,,,,stimulusFile/physical.xlsx,,,,,,,,,,,,,,,,,,,,,,,,,,,,,,,
,,,,,,,,,,,,,,,772,2022-01-19_09h22.06.739,multiplicationStroop,2021.2.3,MacIntel,52.63157895,,,,,left,1,0.473,0,37,37,6,1,7,6,7 | 6,1,1.9756,1.4111,congruent,left,,,,,,stimulusFile/physical.xlsx,,,,,,,,,,,,,,,,,,,,,,,,,,,,,,,
,,,,,,,,,,,,,,,772,2022-01-19_09h22.06.739,multiplicationStroop,2021.2.3,MacIntel,52.63157895,,,,,left,1,0.451,0,38,38,21,1,7,2,7 | 2,5,1.9756,1.4111,congruent,left,,,,,,stimulusFile/physical.xlsx,,,,,,,,,,,,,,,,,,,,,,,,,,,,,,,
,,,,,,,,,,,,,,,772,2022-01-19_09h22.06.739,multiplicationStroop,2021.2.3,MacIntel,52.63157895,,,,,left,1,0.577,0,39,39,42,1,3,8,3 | 8,5,1.9756,1.4111,incongruent,left,,,,,,stimulusFile/physical.xlsx,,,,,,,,,,,,,,,,,,,,,,,,,,,,,,,
,,,,,,,,,,,,,,,772,2022-01-19_09h22.06.739,multiplicationStroop,2021.2.3,MacIntel,52.63157895,,,,,right,1,0.407,0,40,40,58,1,6,6,6 | 6,0,1.4111,1.9756,neutral,right,,,,,,stimulusFile/physical.xlsx,,,,,,,,,,,,,,,,,,,,,,,,,,,,,,,
,,,,,,,,,,,,,,,772,2022-01-19_09h22.06.739,multiplicationStroop,2021.2.3,MacIntel,52.63157895,,,,,right,0,0.494,0,41,41,68,1,6,6,6 | 6,0,1.9756,1.4111,neutral,left,,,,,,stimulusFile/physical.xlsx,,,,,,,,,,,,,,,,,,,,,,,,,,,,,,,
,,,,,,,,,,,,,,,772,2022-01-19_09h22.06.739,multiplicationStroop,2021.2.3,MacIntel,52.63157895,,,,,left,1,0.527,0,42,42,33,1,2,4,2 | 4,2,1.9756,1.4111,incongruent,left,,,,,,stimulusFile/physical.xlsx,,,,,,,,,,,,,,,,,,,,,,,,,,,,,,,
,,,,,,,,,,,,,,,772,2022-01-19_09h22.06.739,multiplicationStroop,2021.2.3,MacIntel,52.63157895,,,,,left,1,0.625,0,43,43,24,1,1,2,1 | 2,1,1.9756,1.4111,incongruent,left,,,,,,stimulusFile/physical.xlsx,,,,,,,,,,,,,,,,,,,,,,,,,,,,,,,
,,,,,,,,,,,,,,,772,2022-01-19_09h22.06.739,multiplicationStroop,2021.2.3,MacIntel,52.63157895,,,,,right,1,0.445,0,44,44,37,1,4,2,4 | 2,2,1.4111,1.9756,incongruent,right,,,,,,stimulusFile/physical.xlsx,,,,,,,,,,,,,,,,,,,,,,,,,,,,,,,
,,,,,,,,,,,,,,,772,2022-01-19_09h22.06.739,multiplicationStroop,2021.2.3,MacIntel,52.63157895,,,,,left,1,0.563,0,45,45,26,1,6,7,6 | 7,1,1.9756,1.4111,incongruent,left,,,,,,stimulusFile/physical.xlsx,,,,,,,,,,,,,,,,,,,,,,,,,,,,,,,
,,,,,,,,,,,,,,,772,2022-01-19_09h22.06.739,multiplicationStroop,2021.2.3,MacIntel,52.63157895,,,,,left,1,0.413,0,46,46,54,1,7,7,7 | 7,0,1.9756,1.4111,neutral,left,,,,,,stimulusFile/physical.xlsx,,,,,,,,,,,,,,,,,,,,,,,,,,,,,,,
,,,,,,,,,,,,,,,772,2022-01-19_09h22.06.739,multiplicationStroop,2021.2.3,MacIntel,52.63157895,,,,,right,1,0.474,0,47,47,45,1,7,2,7 | 2,5,1.4111,1.9756,incongruent,right,,,,,,stimulusFile/physical.xlsx,,,,,,,,,,,,,,,,,,,,,,,,,,,,,,,
,,,,,,,,,,,,,,,772,2022-01-19_09h22.06.739,multiplicationStroop,2021.2.3,MacIntel,52.63157895,,,,,right,1,0.44,0,48,48,62,1,8,8,8 | 8,0,1.4111,1.9756,neutral,right,,,,,,stimulusFile/physical.xlsx,,,,,,,,,,,,,,,,,,,,,,,,,,,,,,,
,,,,,,,,,,,,,,,772,2022-01-19_09h22.06.739,multiplicationStroop,2021.2.3,MacIntel,52.63157895,,,,,left,1,0.46,0,49,49,14,1,8,6,8 | 6,2,1.9756,1.4111,congruent,left,,,,,,stimulusFile/physical.xlsx,,,,,,,,,,,,,,,,,,,,,,,,,,,,,,,
,,,,,,,,,,,,,,,772,2022-01-19_09h22.06.739,multiplicationStroop,2021.2.3,MacIntel,52.63157895,,,,,right,1,0.595,0,50,50,44,1,6,1,6 | 1,5,1.4111,1.9756,incongruent,right,,,,,,stimulusFile/physical.xlsx,,,,,,,,,,,,,,,,,,,,,,,,,,,,,,,
,,,,,,,,,,,,,,,772,2022-01-19_09h22.06.739,multiplicationStroop,2021.2.3,MacIntel,52.63157895,,,,,left,1,0.424,0,51,51,53,1,4,4,4 | 4,0,1.9756,1.4111,neutral,left,,,,,,stimulusFile/physical.xlsx,,,,,,,,,,,,,,,,,,,,,,,,,,,,,,,
,,,,,,,,,,,,,,,772,2022-01-19_09h22.06.739,multiplicationStroop,2021.2.3,MacIntel,52.63157895,,,,,right,1,0.642,0,52,52,36,1,3,1,3 | 1,2,1.4111,1.9756,incongruent,right,,,,,,stimulusFile/physical.xlsx,,,,,,,,,,,,,,,,,,,,,,,,,,,,,,,
,,,,,,,,,,,,,,,772,2022-01-19_09h22.06.739,multiplicationStroop,2021.2.3,MacIntel,52.63157895,,,,,left,1,0.472,0,53,53,27,1,8,9,8 | 9,1,1.9756,1.4111,incongruent,left,,,,,,stimulusFile/physical.xlsx,,,,,,,,,,,,,,,,,,,,,,,,,,,,,,,
,,,,,,,,,,,,,,,772,2022-01-19_09h22.06.739,multiplicationStroop,2021.2.3,MacIntel,52.63157895,,,,,right,1,0.451,0,54,54,19,1,4,9,4 | 9,5,1.4111,1.9756,congruent,right,,,,,,stimulusFile/physical.xlsx,,,,,,,,,,,,,,,,,,,,,,,,,,,,,,,
,,,,,,,,,,,,,,,772,2022-01-19_09h22.06.739,multiplicationStroop,2021.2.3,MacIntel,52.63157895,,,,,left,0,0.447,0,55,55,66,1,3,3,3 | 3,0,1.9756,1.4111,neutral,right,,,,,,stimulusFile/physical.xlsx,,,,,,,,,,,,,,,,,,,,,,,,,,,,,,,
,,,,,,,,,,,,,,,772,2022-01-19_09h22.06.739,multiplicationStroop,2021.2.3,MacIntel,52.63157895,,,,,left,1,0.378,0,56,56,4,1,2,1,2 | 1,1,1.9756,1.4111,congruent,left,,,,,,stimulusFile/physical.xlsx,,,,,,,,,,,,,,,,,,,,,,,,,,,,,,,
,,,,,,,,,,,,,,,772,2022-01-19_09h22.06.739,multiplicationStroop,2021.2.3,MacIntel,52.63157895,,,,,left,1,0.478,0,57,57,34,1,6,8,6 | 8,2,1.9756,1.4111,incongruent,left,,,,,,stimulusFile/physical.xlsx,,,,,,,,,,,,,,,,,,,,,,,,,,,,,,,
,,,,,,,,,,,,,,,772,2022-01-19_09h22.06.739,multiplicationStroop,2021.2.3,MacIntel,52.63157895,,,,,right,1,0.409,0,58,58,38,1,8,6,8 | 6,2,1.4111,1.9756,incongruent,right,,,,,,stimulusFile/physical.xlsx,,,,,,,,,,,,,,,,,,,,,,,,,,,,,,,
,,,,,,,,,,,,,,,772,2022-01-19_09h22.06.739,multiplicationStroop,2021.2.3,MacIntel,52.63157895,,,,,left,1,0.411,0,59,59,70,1,8,8,8 | 8,0,1.9756,1.4111,neutral,left,,,,,,stimulusFile/physical.xlsx,,,,,,,,,,,,,,,,,,,,,,,,,,,,,,,
,,,,,,,,,,,,,,,772,2022-01-19_09h22.06.739,multiplicationStroop,2021.2.3,MacIntel,52.63157895,,,,,left,1,0.405,0,60,60,13,1,4,2,4 | 2,2,1.9756,1.4111,congruent,left,,,,,,stimulusFile/physical.xlsx,,,,,,,,,,,,,,,,,,,,,,,,,,,,,,,
,,,,,,,,,,,,,,,772,2022-01-19_09h22.06.739,multiplicationStroop,2021.2.3,MacIntel,52.63157895,,,,,right,1,0.412,0,61,61,65,1,2,2,2 | 2,0,1.4111,1.9756,neutral,right,,,,,,stimulusFile/physical.xlsx,,,,,,,,,,,,,,,,,,,,,,,,,,,,,,,
,,,,,,,,,,,,,,,772,2022-01-19_09h22.06.739,multiplicationStroop,2021.2.3,MacIntel,52.63157895,,,,,right,1,0.486,0,62,62,2,1,6,7,6 | 7,1,1.4111,1.9756,congruent,right,,,,,,stimulusFile/physical.xlsx,,,,,,,,,,,,,,,,,,,,,,,,,,,,,,,
,,,,,,,,,,,,,,,772,2022-01-19_09h22.06.739,multiplicationStroop,2021.2.3,MacIntel,52.63157895,,,,,left,1,0.393,0,63,63,55,1,9,9,9 | 9,0,1.9756,1.4111,neutral,left,,,,,,stimulusFile/physical.xlsx,,,,,,,,,,,,,,,,,,,,,,,,,,,,,,,
,,,,,,,,,,,,,,,772,2022-01-19_09h22.06.739,multiplicationStroop,2021.2.3,MacIntel,52.63157895,,,,,right,1,0.394,0,64,64,67,1,4,4,4 | 4,0,1.4111,1.9756,neutral,right,,,,,,stimulusFile/physical.xlsx,,,,,,,,,,,,,,,,,,,,,,,,,,,,,,,
,,,,,,,,,,,,,,,772,2022-01-19_09h22.06.739,multiplicationStroop,2021.2.3,MacIntel,52.63157895,,,,,left,1,0.38,0,65,65,52,1,2,2,2 | 2,0,1.9756,1.4111,neutral,left,,,,,,stimulusFile/physical.xlsx,,,,,,,,,,,,,,,,,,,,,,,,,,,,,,,
,,,,,,,,,,,,,,,772,2022-01-19_09h22.06.739,multiplicationStroop,2021.2.3,MacIntel,52.63157895,,,,,left,1,0.575,0,66,66,22,1,8,3,8 | 3,5,1.9756,1.4111,congruent,left,,,,,,stimulusFile/physical.xlsx,,,,,,,,,,,,,,,,,,,,,,,,,,,,,,,
,,,,,,,,,,,,,,,772,2022-01-19_09h22.06.739,multiplicationStroop,2021.2.3,MacIntel,52.63157895,,,,,right,0,0.418,0,67,67,69,1,7,7,7 | 7,0,1.4111,1.9756,neutral,left,,,,,,stimulusFile/physical.xlsx,,,,,,,,,,,,,,,,,,,,,,,,,,,,,,,
,,,,,,,,,,,,,,,772,2022-01-19_09h22.06.739,multiplicationStroop,2021.2.3,MacIntel,52.63157895,,,,,left,1,0.392,0,68,68,12,1,3,1,3 | 1,2,1.9756,1.4111,congruent,left,,,,,,stimulusFile/physical.xlsx,,,,,,,,,,,,,,,,,,,,,,,,,,,,,,,
,,,,,,,,,,,,,,,772,2022-01-19_09h22.06.739,multiplicationStroop,2021.2.3,MacIntel,52.63157895,,,,,right,1,0.356,0,69,69,30,1,7,6,7 | 6,1,1.4111,1.9756,incongruent,right,,,,,,stimulusFile/physical.xlsx,,,,,,,,,,,,,,,,,,,,,,,,,,,,,,,
,,,,,,,,,,,,,,,772,2022-01-19_09h22.06.739,multiplicationStroop,2021.2.3,MacIntel,52.63157895,,,,,right,1,0.384,0,70,70,16,1,1,6,1 | 6,5,1.4111,1.9756,congruent,right,,,,,,stimulusFile/physical.xlsx,,,,,,,,,,,,,,,,,,,,,,,,,,,,,,,
,,,,,,,,,,,,,,,772,2022-01-19_09h22.06.739,multiplicationStroop,2021.2.3,MacIntel,52.63157895,,,,,right,1,0.386,0,71,71,11,1,7,9,7 | 9,2,1.4111,1.9756,congruent,right,,,,,,stimulusFile/physical.xlsx,,,,,,,,,,,,,,,,,,,,,,,,,,,,,,,
,,,,,,,,,,,,,,,772,2022-01-19_09h22.06.739,multiplicationStroop,2021.2.3,MacIntel,52.63157895,,,,,,,,,,,,,,,,,,,,,0,0,0,1,1,stimulusFile/physical.xlsx,PHYSICALLY larger (larger font size).,images/physicallyLarger.png,,,,,,,,,,,,,,,,,,,,,,,,,,,,,
,,,,,,,,,,,,,,,772,2022-01-19_09h22.06.739,multiplicationStroop,2021.2.3,MacIntel,52.63157895,space,26.099,space,4.066,left,1,1.075,0,0,0,46,1,8,3,8 | 3,5,1.4111,1.9756,incongruent,left,,,,,,stimulusFile/magnitude.xlsx,,,,,,,,,,,,,,,,,,,,,,,,,,,,,,,
,,,,,,,,,,,,,,,772,2022-01-19_09h22.06.739,multiplicationStroop,2021.2.3,MacIntel,52.63157895,,,,,left,1,0.707,0,1,1,13,1,4,2,4 | 2,2,1.9756,1.4111,congruent,left,,,,,,stimulusFile/magnitude.xlsx,,,,,,,,,,,,,,,,,,,,,,,,,,,,,,,
,,,,,,,,,,,,,,,772,2022-01-19_09h22.06.739,multiplicationStroop,2021.2.3,MacIntel,52.63157895,,,,,left,0,0.425,0,2,2,26,1,6,7,6 | 7,1,1.9756,1.4111,incongruent,right,,,,,,stimulusFile/magnitude.xlsx,,,,,,,,,,,,,,,,,,,,,,,,,,,,,,,
,,,,,,,,,,,,,,,772,2022-01-19_09h22.06.739,multiplicationStroop,2021.2.3,MacIntel,52.63157895,,,,,right,1,0.971,0,3,3,67,1,4,9,4 | 9,5,1.6933,1.6933,neutral,right,,,,,,stimulusFile/magnitude.xlsx,,,,,,,,,,,,,,,,,,,,,,,,,,,,,,,
,,,,,,,,,,,,,,,772,2022-01-19_09h22.06.739,multiplicationStroop,2021.2.3,MacIntel,52.63157895,,,,,left,1,0.86,0,4,4,37,1,4,2,4 | 2,2,1.4111,1.9756,incongruent,left,,,,,,stimulusFile/magnitude.xlsx,,,,,,,,,,,,,,,,,,,,,,,,,,,,,,,
,,,,,,,,,,,,,,,772,2022-01-19_09h22.06.739,multiplicationStroop,2021.2.3,MacIntel,52.63157895,,,,,left,1,0.991,0,5,5,5,1,4,3,4 | 3,1,1.9756,1.4111,congruent,left,,,,,,stimulusFile/magnitude.xlsx,,,,,,,,,,,,,,,,,,,,,,,,,,,,,,,
,,,,,,,,,,,,,,,772,2022-01-19_09h22.06.739,multiplicationStroop,2021.2.3,MacIntel,52.63157895,,,,,left,1,0.709,0,6,6,62,1,8,6,8 | 6,2,1.6933,1.6933,neutral,left,,,,,,stimulusFile/magnitude.xlsx,,,,,,,,,,,,,,,,,,,,,,,,,,,,,,,
,,,,,,,,,,,,,,,772,2022-01-19_09h22.06.739,multiplicationStroop,2021.2.3,MacIntel,52.63157895,,,,,right,1,0.493,0,7,7,49,1,3,4,3 | 4,1,1.6933,1.6933,neutral,right,,,,,,stimulusFile/magnitude.xlsx,,,,,,,,,,,,,,,,,,,,,,,,,,,,,,,
,,,,,,,,,,,,,,,772,2022-01-19_09h22.06.739,multiplicationStroop,2021.2.3,MacIntel,52.63157895,,,,,left,1,0.611,0,8,8,70,1,8,3,8 | 3,5,1.6933,1.6933,neutral,left,,,,,,stimulusFile/magnitude.xlsx,,,,,,,,,,,,,,,,,,,,,,,,,,,,,,,
,,,,,,,,,,,,,,,772,2022-01-19_09h22.06.739,multiplicationStroop,2021.2.3,MacIntel,52.63157895,,,,,left,1,0.675,0,9,9,28,1,2,1,2 | 1,1,1.4111,1.9756,incongruent,left,,,,,,stimulusFile/magnitude.xlsx,,,,,,,,,,,,,,,,,,,,,,,,,,,,,,,
,,,,,,,,,,,,,,,772,2022-01-19_09h22.06.739,multiplicationStroop,2021.2.3,MacIntel,52.63157895,,,,,right,1,0.478,0,10,10,11,1,7,9,7 | 9,2,1.4111,1.9756,congruent,right,,,,,,stimulusFile/magnitude.xlsx,,,,,,,,,,,,,,,,,,,,,,,,,,,,,,,
,,,,,,,,,,,,,,,772,2022-01-19_09h22.06.739,multiplicationStroop,2021.2.3,MacIntel,52.63157895,,,,,left,1,0.708,0,11,11,61,1,4,2,4 | 2,2,1.6933,1.6933,neutral,left,,,,,,stimulusFile/magnitude.xlsx,,,,,,,,,,,,,,,,,,,,,,,,,,,,,,,
,,,,,,,,,,,,,,,772,2022-01-19_09h22.06.739,multiplicationStroop,2021.2.3,MacIntel,52.63157895,,,,,right,1,0.56,0,12,12,8,1,1,3,1 | 3,2,1.4111,1.9756,congruent,right,,,,,,stimulusFile/magnitude.xlsx,,,,,,,,,,,,,,,,,,,,,,,,,,,,,,,
,,,,,,,,,,,,,,,772,2022-01-19_09h22.06.739,multiplicationStroop,2021.2.3,MacIntel,52.63157895,,,,,right,1,0.723,0,13,13,42,1,3,8,3 | 8,5,1.9756,1.4111,incongruent,right,,,,,,stimulusFile/magnitude.xlsx,,,,,,,,,,,,,,,,,,,,,,,,,,,,,,,
,,,,,,,,,,,,,,,772,2022-01-19_09h22.06.739,multiplicationStroop,2021.2.3,MacIntel,52.63157895,,,,,right,1,0.525,0,14,14,43,1,4,9,4 | 9,5,1.9756,1.4111,incongruent,right,,,,,,stimulusFile/magnitude.xlsx,,,,,,,,,,,,,,,,,,,,,,,,,,,,,,,
,,,,,,,,,,,,,,,772,2022-01-19_09h22.06.739,multiplicationStroop,2021.2.3,MacIntel,52.63157895,,,,,right,1,0.457,0,15,15,3,1,8,9,8 | 9,1,1.4111,1.9756,congruent,right,,,,,,stimulusFile/magnitude.xlsx,,,,,,,,,,,,,,,,,,,,,,,,,,,,,,,
,,,,,,,,,,,,,,,772,2022-01-19_09h22.06.739,multiplicationStroop,2021.2.3,MacIntel,52.63157895,,,,,left,1,0.705,0,16,16,14,1,8,6,8 | 6,2,1.9756,1.4111,congruent,left,,,,,,stimulusFile/magnitude.xlsx,,,,,,,,,,,,,,,,,,,,,,,,,,,,,,,
,,,,,,,,,,,,,,,772,2022-01-19_09h22.06.739,multiplicationStroop,2021.2.3,MacIntel,52.63157895,,,,,right,1,0.474,0,17,17,17,1,2,7,2 | 7,5,1.4111,1.9756,congruent,right,,,,,,stimulusFile/magnitude.xlsx,,,,,,,,,,,,,,,,,,,,,,,,,,,,,,,
,,,,,,,,,,,,,,,772,2022-01-19_09h22.06.739,multiplicationStroop,2021.2.3,MacIntel,52.63157895,,,,,right,1,0.808,0,18,18,34,1,6,8,6 | 8,2,1.9756,1.4111,incongruent,right,,,,,,stimulusFile/magnitude.xlsx,,,,,,,,,,,,,,,,,,,,,,,,,,,,,,,
,,,,,,,,,,,,,,,772,2022-01-19_09h22.06.739,multiplicationStroop,2021.2.3,MacIntel,52.63157895,,,,,left,1,0.491,0,19,19,71,1,9,4,9 | 4,5,1.6933,1.6933,neutral,left,,,,,,stimulusFile/magnitude.xlsx,,,,,,,,,,,,,,,,,,,,,,,,,,,,,,,
,,,,,,,,,,,,,,,772,2022-01-19_09h22.06.739,multiplicationStroop,2021.2.3,MacIntel,52.63157895,,,,,left,1,0.59,0,20,20,47,1,9,4,9 | 4,5,1.4111,1.9756,incongruent,left,,,,,,stimulusFile/magnitude.xlsx,,,,,,,,,,,,,,,,,,,,,,,,,,,,,,,
,,,,,,,,,,,,,,,772,2022-01-19_09h22.06.739,multiplicationStroop,2021.2.3,MacIntel,52.63157895,,,,,left,1,0.724,0,21,21,63,1,9,7,9 | 7,2,1.6933,1.6933,neutral,left,,,,,,stimulusFile/magnitude.xlsx,,,,,,,,,,,,,,,,,,,,,,,,,,,,,,,
,,,,,,,,,,,,,,,772,2022-01-19_09h22.06.739,multiplicationStroop,2021.2.3,MacIntel,52.63157895,,,,,right,1,0.492,0,22,22,64,1,1,6,1 | 6,5,1.6933,1.6933,neutral,right,,,,,,stimulusFile/magnitude.xlsx,,,,,,,,,,,,,,,,,,,,,,,,,,,,,,,
,,,,,,,,,,,,,,,772,2022-01-19_09h22.06.739,multiplicationStroop,2021.2.3,MacIntel,52.63157895,,,,,left,1,0.558,0,23,23,15,1,9,7,9 | 7,2,1.9756,1.4111,congruent,left,,,,,,stimulusFile/magnitude.xlsx,,,,,,,,,,,,,,,,,,,,,,,,,,,,,,,
,,,,,,,,,,,,,,,772,2022-01-19_09h22.06.739,multiplicationStroop,2021.2.3,MacIntel,52.63157895,,,,,right,1,0.591,0,24,24,58,1,6,8,6 | 8,2,1.6933,1.6933,neutral,right,,,,,,stimulusFile/magnitude.xlsx,,,,,,,,,,,,,,,,,,,,,,,,,,,,,,,
,,,,,,,,,,,,,,,772,2022-01-19_09h22.06.739,multiplicationStroop,2021.2.3,MacIntel,52.63157895,,,,,right,0,0.474,0,25,25,38,1,8,6,8 | 6,2,1.4111,1.9756,incongruent,left,,,,,,stimulusFile/magnitude.xlsx,,,,,,,,,,,,,,,,,,,,,,,,,,,,,,,
,,,,,,,,,,,,,,,772,2022-01-19_09h22.06.739,multiplicationStroop,2021.2.3,MacIntel,52.63157895,,,,,right,1,0.792,0,26,26,25,1,3,4,3 | 4,1,1.9756,1.4111,incongruent,right,,,,,,stimulusFile/magnitude.xlsx,,,,,,,,,,,,,,,,,,,,,,,,,,,,,,,
,,,,,,,,,,,,,,,772,2022-01-19_09h22.06.739,multiplicationStroop,2021.2.3,MacIntel,52.63157895,,,,,right,1,0.661,0,27,27,50,1,6,7,6 | 7,1,1.6933,1.6933,neutral,right,,,,,,stimulusFile/magnitude.xlsx,,,,,,,,,,,,,,,,,,,,,,,,,,,,,,,
,,,,,,,,,,,,,,,772,2022-01-19_09h22.06.739,multiplicationStroop,2021.2.3,MacIntel,52.63157895,,,,,left,1,0.742,0,28,28,44,1,6,1,6 | 1,5,1.4111,1.9756,incongruent,left,,,,,,stimulusFile/magnitude.xlsx,,,,,,,,,,,,,,,,,,,,,,,,,,,,,,,
,,,,,,,,,,,,,,,772,2022-01-19_09h22.06.739,multiplicationStroop,2021.2.3,MacIntel,52.63157895,,,,,right,1,0.708,0,29,29,41,1,2,7,2 | 7,5,1.9756,1.4111,incongruent,right,,,,,,stimulusFile/magnitude.xlsx,,,,,,,,,,,,,,,,,,,,,,,,,,,,,,,
,,,,,,,,,,,,,,,772,2022-01-19_09h22.06.739,multiplicationStroop,2021.2.3,MacIntel,52.63157895,,,,,right,1,0.775,0,30,30,51,1,8,9,8 | 9,1,1.6933,1.6933,neutral,right,,,,,,stimulusFile/magnitude.xlsx,,,,,,,,,,,,,,,,,,,,,,,,,,,,,,,
,,,,,,,,,,,,,,,772,2022-01-19_09h22.06.739,multiplicationStroop,2021.2.3,MacIntel,52.63157895,,,,,right,0,0.474,0,31,31,39,1,9,7,9 | 7,2,1.4111,1.9756,incongruent,left,,,,,,stimulusFile/magnitude.xlsx,,,,,,,,,,,,,,,,,,,,,,,,,,,,,,,
,,,,,,,,,,,,,,,772,2022-01-19_09h22.06.739,multiplicationStroop,2021.2.3,MacIntel,52.63157895,,,,,left,1,0.56,0,32,32,23,1,9,4,9 | 4,5,1.9756,1.4111,congruent,left,,,,,,stimulusFile/magnitude.xlsx,,,,,,,,,,,,,,,,,,,,,,,,,,,,,,,
,,,,,,,,,,,,,,,772,2022-01-19_09h22.06.739,multiplicationStroop,2021.2.3,MacIntel,52.63157895,,,,,left,1,0.541,0,33,33,22,1,8,3,8 | 3,5,1.9756,1.4111,congruent,left,,,,,,stimulusFile/magnitude.xlsx,,,,,,,,,,,,,,,,,,,,,,,,,,,,,,,
,,,,,,,,,,,,,,,772,2022-01-19_09h22.06.739,multiplicationStroop,2021.2.3,MacIntel,52.63157895,,,,,right,1,0.459,0,34,34,18,1,3,8,3 | 8,5,1.4111,1.9756,congruent,right,,,,,,stimulusFile/magnitude.xlsx,,,,,,,,,,,,,,,,,,,,,,,,,,,,,,,
,,,,,,,,,,,,,,,772,2022-01-19_09h22.06.739,multiplicationStroop,2021.2.3,MacIntel,52.63157895,,,,,left,1,0.426,0,35,35,12,1,3,1,3 | 1,2,1.9756,1.4111,congruent,left,,,,,,stimulusFile/magnitude.xlsx,,,,,,,,,,,,,,,,,,,,,,,,,,,,,,,
,,,,,,,,,,,,,,,772,2022-01-19_09h22.06.739,multiplicationStroop,2021.2.3,MacIntel,52.63157895,,,,,right,1,0.524,0,36,36,59,1,7,9,7 | 9,2,1.6933,1.6933,neutral,right,,,,,,stimulusFile/magnitude.xlsx,,,,,,,,,,,,,,,,,,,,,,,,,,,,,,,
,,,,,,,,,,,,,,,772,2022-01-19_09h22.06.739,multiplicationStroop,2021.2.3,MacIntel,52.63157895,,,,,left,1,0.723,0,37,37,29,1,4,3,4 | 3,1,1.4111,1.9756,incongruent,left,,,,,,stimulusFile/magnitude.xlsx,,,,,,,,,,,,,,,,,,,,,,,,,,,,,,,
,,,,,,,,,,,,,,,772,2022-01-19_09h22.06.739,multiplicationStroop,2021.2.3,MacIntel,52.63157895,,,,,right,1,0.572,0,38,38,32,1,1,3,1 | 3,2,1.9756,1.4111,incongruent,right,,,,,,stimulusFile/magnitude.xlsx,,,,,,,,,,,,,,,,,,,,,,,,,,,,,,,
,,,,,,,,,,,,,,,772,2022-01-19_09h22.06.739,multiplicationStroop,2021.2.3,MacIntel,52.63157895,,,,,right,1,0.641,0,39,39,16,1,1,6,1 | 6,5,1.4111,1.9756,congruent,right,,,,,,stimulusFile/magnitude.xlsx,,,,,,,,,,,,,,,,,,,,,,,,,,,,,,,
,,,,,,,,,,,,,,,772,2022-01-19_09h22.06.739,multiplicationStroop,2021.2.3,MacIntel,52.63157895,,,,,right,1,0.758,0,40,40,35,1,7,9,7 | 9,2,1.9756,1.4111,incongruent,right,,,,,,stimulusFile/magnitude.xlsx,,,,,,,,,,,,,,,,,,,,,,,,,,,,,,,
,,,,,,,,,,,,,,,772,2022-01-19_09h22.06.739,multiplicationStroop,2021.2.3,MacIntel,52.63157895,,,,,left,1,0.524,0,41,41,4,1,2,1,2 | 1,1,1.9756,1.4111,congruent,left,,,,,,stimulusFile/magnitude.xlsx,,,,,,,,,,,,,,,,,,,,,,,,,,,,,,,
,,,,,,,,,,,,,,,772,2022-01-19_09h22.06.739,multiplicationStroop,2021.2.3,MacIntel,52.63157895,,,,,left,1,0.658,0,42,42,54,1,7,6,7 | 6,1,1.6933,1.6933,neutral,left,,,,,,stimulusFile/magnitude.xlsx,,,,,,,,,,,,,,,,,,,,,,,,,,,,,,,
,,,,,,,,,,,,,,,772,2022-01-19_09h22.06.739,multiplicationStroop,2021.2.3,MacIntel,52.63157895,,,,,left,1,0.508,0,43,43,52,1,2,1,2 | 1,1,1.6933,1.6933,neutral,left,,,,,,stimulusFile/magnitude.xlsx,,,,,,,,,,,,,,,,,,,,,,,,,,,,,,,
,,,,,,,,,,,,,,,772,2022-01-19_09h22.06.739,multiplicationStroop,2021.2.3,MacIntel,52.63157895,,,,,right,1,0.474,0,44,44,19,1,4,9,4 | 9,5,1.4111,1.9756,congruent,right,,,,,,stimulusFile/magnitude.xlsx,,,,,,,,,,,,,,,,,,,,,,,,,,,,,,,
,,,,,,,,,,,,,,,772,2022-01-19_09h22.06.739,multiplicationStroop,2021.2.3,MacIntel,52.63157895,,,,,left,1,0.558,0,45,45,69,1,7,2,7 | 2,5,1.6933,1.6933,neutral,left,,,,,,stimulusFile/magnitude.xlsx,,,,,,,,,,,,,,,,,,,,,,,,,,,,,,,
,,,,,,,,,,,,,,,772,2022-01-19_09h22.06.739,multiplicationStroop,2021.2.3,MacIntel,52.63157895,,,,,left,1,0.441,0,46,46,6,1,7,6,7 | 6,1,1.9756,1.4111,congruent,left,,,,,,stimulusFile/magnitude.xlsx,,,,,,,,,,,,,,,,,,,,,,,,,,,,,,,
,,,,,,,,,,,,,,,772,2022-01-19_09h22.06.739,multiplicationStroop,2021.2.3,MacIntel,52.63157895,,,,,left,0,0.541,0,47,47,27,1,8,9,8 | 9,1,1.9756,1.4111,incongruent,right,,,,,,stimulusFile/magnitude.xlsx,,,,,,,,,,,,,,,,,,,,,,,,,,,,,,,
,,,,,,,,,,,,,,,772,2022-01-19_09h22.06.739,multiplicationStroop,2021.2.3,MacIntel,52.63157895,,,,,left,1,0.809,0,48,48,30,1,7,6,7 | 6,1,1.4111,1.9756,incongruent,left,,,,,,stimulusFile/magnitude.xlsx,,,,,,,,,,,,,,,,,,,,,,,,,,,,,,,
,,,,,,,,,,,,,,,772,2022-01-19_09h22.06.739,multiplicationStroop,2021.2.3,MacIntel,52.63157895,,,,,left,1,0.524,0,49,49,60,1,3,1,3 | 1,2,1.6933,1.6933,neutral,left,,,,,,stimulusFile/magnitude.xlsx,,,,,,,,,,,,,,,,,,,,,,,,,,,,,,,
,,,,,,,,,,,,,,,772,2022-01-19_09h22.06.739,multiplicationStroop,2021.2.3,MacIntel,52.63157895,,,,,left,1,0.444,0,50,50,36,1,3,1,3 | 1,2,1.4111,1.9756,incongruent,left,,,,,,stimulusFile/magnitude.xlsx,,,,,,,,,,,,,,,,,,,,,,,,,,,,,,,
,,,,,,,,,,,,,,,772,2022-01-19_09h22.06.739,multiplicationStroop,2021.2.3,MacIntel,52.63157895,,,,,right,1,0.541,0,51,51,0,1,1,2,1 | 2,1,1.4111,1.9756,congruent,right,,,,,,stimulusFile/magnitude.xlsx,,,,,,,,,,,,,,,,,,,,,,,,,,,,,,,
,,,,,,,,,,,,,,,772,2022-01-19_09h22.06.739,multiplicationStroop,2021.2.3,MacIntel,52.63157895,,,,,right,1,0.627,0,52,52,66,1,3,8,3 | 8,5,1.6933,1.6933,neutral,right,,,,,,stimulusFile/magnitude.xlsx,,,,,,,,,,,,,,,,,,,,,,,,,,,,,,,
,,,,,,,,,,,,,,,772,2022-01-19_09h22.06.739,multiplicationStroop,2021.2.3,MacIntel,52.63157895,,,,,right,1,0.758,0,53,53,57,1,2,4,2 | 4,2,1.6933,1.6933,neutral,right,,,,,,stimulusFile/magnitude.xlsx,,,,,,,,,,,,,,,,,,,,,,,,,,,,,,,
,,,,,,,,,,,,,,,772,2022-01-19_09h22.06.739,multiplicationStroop,2021.2.3,MacIntel,52.63157895,,,,,left,1,0.525,0,54,54,68,1,6,1,6 | 1,5,1.6933,1.6933,neutral,left,,,,,,stimulusFile/magnitude.xlsx,,,,,,,,,,,,,,,,,,,,,,,,,,,,,,,
,,,,,,,,,,,,,,,772,2022-01-19_09h22.06.739,multiplicationStroop,2021.2.3,MacIntel,52.63157895,,,,,right,1,0.474,0,55,55,40,1,1,6,1 | 6,5,1.9756,1.4111,incongruent,right,,,,,,stimulusFile/magnitude.xlsx,,,,,,,,,,,,,,,,,,,,,,,,,,,,,,,
,,,,,,,,,,,,,,,772,2022-01-19_09h22.06.739,multiplicationStroop,2021.2.3,MacIntel,52.63157895,,,,,left,1,0.791,0,56,56,7,1,9,8,9 | 8,1,1.9756,1.4111,congruent,left,,,,,,stimulusFile/magnitude.xlsx,,,,,,,,,,,,,,,,,,,,,,,,,,,,,,,
,,,,,,,,,,,,,,,772,2022-01-19_09h22.06.739,multiplicationStroop,2021.2.3,MacIntel,52.63157895,,,,,left,1,0.474,0,57,57,21,1,7,2,7 | 2,5,1.9756,1.4111,congruent,left,,,,,,stimulusFile/magnitude.xlsx,,,,,,,,,,,,,,,,,,,,,,,,,,,,,,,
,,,,,,,,,,,,,,,772,2022-01-19_09h22.06.739,multiplicationStroop,2021.2.3,MacIntel,52.63157895,,,,,left,1,0.559,0,58,58,31,1,9,8,9 | 8,1,1.4111,1.9756,incongruent,left,,,,,,stimulusFile/magnitude.xlsx,,,,,,,,,,,,,,,,,,,,,,,,,,,,,,,
,,,,,,,,,,,,,,,772,2022-01-19_09h22.06.739,multiplicationStroop,2021.2.3,MacIntel,52.63157895,,,,,right,1,0.509,0,59,59,1,1,3,4,3 | 4,1,1.4111,1.9756,congruent,right,,,,,,stimulusFile/magnitude.xlsx,,,,,,,,,,,,,,,,,,,,,,,,,,,,,,,
,,,,,,,,,,,,,,,772,2022-01-19_09h22.06.739,multiplicationStroop,2021.2.3,MacIntel,52.63157895,,,,,right,1,0.524,0,60,60,10,1,6,8,6 | 8,2,1.4111,1.9756,congruent,right,,,,,,stimulusFile/magnitude.xlsx,,,,,,,,,,,,,,,,,,,,,,,,,,,,,,,
,,,,,,,,,,,,,,,772,2022-01-19_09h22.06.739,multiplicationStroop,2021.2.3,MacIntel,52.63157895,,,,,right,1,0.429,0,61,61,2,1,6,7,6 | 7,1,1.4111,1.9756,congruent,right,,,,,,stimulusFile/magnitude.xlsx,,,,,,,,,,,,,,,,,,,,,,,,,,,,,,,
,,,,,,,,,,,,,,,772,2022-01-19_09h22.06.739,multiplicationStroop,2021.2.3,MacIntel,52.63157895,,,,,left,1,0.492,0,62,62,53,1,4,3,4 | 3,1,1.6933,1.6933,neutral,left,,,,,,stimulusFile/magnitude.xlsx,,,,,,,,,,,,,,,,,,,,,,,,,,,,,,,
,,,,,,,,,,,,,,,772,2022-01-19_09h22.06.739,multiplicationStroop,2021.2.3,MacIntel,52.63157895,,,,,right,1,0.542,0,63,63,24,1,1,2,1 | 2,1,1.9756,1.4111,incongruent,right,,,,,,stimulusFile/magnitude.xlsx,,,,,,,,,,,,,,,,,,,,,,,,,,,,,,,
,,,,,,,,,,,,,,,772,2022-01-19_09h22.06.739,multiplicationStroop,2021.2.3,MacIntel,52.63157895,,,,,right,1,0.576,0,64,64,9,1,2,4,2 | 4,2,1.4111,1.9756,congruent,right,,,,,,stimulusFile/magnitude.xlsx,,,,,,,,,,,,,,,,,,,,,,,,,,,,,,,
,,,,,,,,,,,,,,,772,2022-01-19_09h22.06.739,multiplicationStroop,2021.2.3,MacIntel,52.63157895,,,,,right,1,0.528,0,65,65,33,1,2,4,2 | 4,2,1.9756,1.4111,incongruent,right,,,,,,stimulusFile/magnitude.xlsx,,,,,,,,,,,,,,,,,,,,,,,,,,,,,,,
,,,,,,,,,,,,,,,772,2022-01-19_09h22.06.739,multiplicationStroop,2021.2.3,MacIntel,52.63157895,,,,,right,1,0.473,0,66,66,56,1,1,3,1 | 3,2,1.6933,1.6933,neutral,right,,,,,,stimulusFile/magnitude.xlsx,,,,,,,,,,,,,,,,,,,,,,,,,,,,,,,
,,,,,,,,,,,,,,,772,2022-01-19_09h22.06.739,multiplicationStroop,2021.2.3,MacIntel,52.63157895,,,,,left,1,0.442,0,67,67,20,1,6,1,6 | 1,5,1.9756,1.4111,congruent,left,,,,,,stimulusFile/magnitude.xlsx,,,,,,,,,,,,,,,,,,,,,,,,,,,,,,,
,,,,,,,,,,,,,,,772,2022-01-19_09h22.06.739,multiplicationStroop,2021.2.3,MacIntel,52.63157895,,,,,left,1,0.64,0,68,68,45,1,7,2,7 | 2,5,1.4111,1.9756,incongruent,left,,,,,,stimulusFile/magnitude.xlsx,,,,,,,,,,,,,,,,,,,,,,,,,,,,,,,
,,,,,,,,,,,,,,,772,2022-01-19_09h22.06.739,multiplicationStroop,2021.2.3,MacIntel,52.63157895,,,,,right,1,0.567,0,69,69,48,1,1,2,1 | 2,1,1.6933,1.6933,neutral,right,,,,,,stimulusFile/magnitude.xlsx,,,,,,,,,,,,,,,,,,,,,,,,,,,,,,,
,,,,,,,,,,,,,,,772,2022-01-19_09h22.06.739,multiplicationStroop,2021.2.3,MacIntel,52.63157895,,,,,left,1,0.608,0,70,70,55,1,9,8,9 | 8,1,1.6933,1.6933,neutral,left,,,,,,stimulusFile/magnitude.xlsx,,,,,,,,,,,,,,,,,,,,,,,,,,,,,,,
,,,,,,,,,,,,,,,772,2022-01-19_09h22.06.739,multiplicationStroop,2021.2.3,MacIntel,52.63157895,,,,,right,1,0.541,0,71,71,65,1,2,7,2 | 7,5,1.6933,1.6933,neutral,right,,,,,,stimulusFile/magnitude.xlsx,,,,,,,,,,,,,,,,,,,,,,,,,,,,,,,
,,,,,,,,,,,,,,,772,2022-01-19_09h22.06.739,multiplicationStroop,2021.2.3,MacIntel,52.63157895,,,,,,,,,,,,,,,,,,,,,0,1,1,0,1,stimulusFile/magnitude.xlsx,NUMERICALLY larger (larger coefficient).,images/numericallyLarger.png,,,,,,,,,,,,,,,,,,,,,,,,,,,,,
,,,,,,,,,,,,,,,772,2022-01-19_09h22.06.739,multiplicationStroop,2021.2.3,MacIntel,52.63157895,,,,,,,,,,,,,,,,,,,,,,,,,,,,,space,41.137,space,2.49,27,1.68,1,0,0,0,12,1,3,×,9,3 × 9,congruent,smallerFirst,1,2,27,,,,,,,,
,,,,,,,,,,,,,,,772,2022-01-19_09h22.06.739,multiplicationStroop,2021.2.3,MacIntel,52.63157895,,,,,,,,,,,,,,,,,,,,,,,,,,,,,,,,,30,1.415,1,0,1,1,1,1,5,×,6,5 × 6,congruent,smallerFirst,1,2,30,,,,,,,,
,,,,,,,,,,,,,,,772,2022-01-19_09h22.06.739,multiplicationStroop,2021.2.3,MacIntel,52.63157895,,,,,,,,,,,,,,,,,,,,,,,,,,,,,,,,,28,1.216,1,0,2,2,13,1,4,×,7,4 × 7,congruent,smallerFirst,1,2,28,,,,,,,,
,,,,,,,,,,,,,,,772,2022-01-19_09h22.06.739,multiplicationStroop,2021.2.3,MacIntel,52.63157895,,,,,,,,,,,,,,,,,,,,,,,,,,,,,,,,,56,1.372,1,0,3,3,22,1,8,×,7,8 × 7,congruent,largerFirst,2,1,56,,,,,,,,
,,,,,,,,,,,,,,,772,2022-01-19_09h22.06.739,multiplicationStroop,2021.2.3,MacIntel,52.63157895,,,,,,,,,,,,,,,,,,,,,,,,,,,,,,,,,40,1.292,1,0,4,4,20,1,8,×,5,8 × 5,congruent,largerFirst,2,1,40,,,,,,,,
,,,,,,,,,,,,,,,772,2022-01-19_09h22.06.739,multiplicationStroop,2021.2.3,MacIntel,52.63157895,,,,,,,,,,,,,,,,,,,,,,,,,,,,,,,,,18,1.348,1,0,5,5,25,1,6,×,3,6 × 3,congruent,largerFirst,2,1,18,,,,,,,,
,,,,,,,,,,,,,,,772,2022-01-19_09h22.06.739,multiplicationStroop,2021.2.3,MacIntel,52.63157895,,,,,,,,,,,,,,,,,,,,,,,,,,,,,,,,,64,1.75,1,0,6,6,34,1,8,×,8,8 × 8,neutral,tie,1,2,64,,,,,,,,
,,,,,,,,,,,,,,,772,2022-01-19_09h22.06.739,multiplicationStroop,2021.2.3,MacIntel,52.63157895,,,,,,,,,,,,,,,,,,,,,,,,,,,,,,,,,49,1.782,1,0,7,7,33,1,7,×,7,7 × 7,neutral,tie,1,2,49,,,,,,,,
,,,,,,,,,,,,,,,772,2022-01-19_09h22.06.739,multiplicationStroop,2021.2.3,MacIntel,52.63157895,,,,,,,,,,,,,,,,,,,,,,,,,,,,,,,,,35,1.266,1,0,8,8,15,1,7,×,5,7 × 5,congruent,largerFirst,2,1,35,,,,,,,,
,,,,,,,,,,,,,,,772,2022-01-19_09h22.06.739,multiplicationStroop,2021.2.3,MacIntel,52.63157895,,,,,,,,,,,,,,,,,,,,,,,,,,,,,,,,,18,1.245,1,0,9,9,8,1,2,×,9,2 × 9,congruent,smallerFirst,1,2,18,,,,,,,,
,,,,,,,,,,,,,,,772,2022-01-19_09h22.06.739,multiplicationStroop,2021.2.3,MacIntel,52.63157895,,,,,,,,,,,,,,,,,,,,,,,,,,,,,,,,,20,1.618,1,0,10,10,21,1,5,×,4,5 × 4,congruent,largerFirst,2,1,20,,,,,,,,
,,,,,,,,,,,,,,,772,2022-01-19_09h22.06.739,multiplicationStroop,2021.2.3,MacIntel,52.63157895,,,,,,,,,,,,,,,,,,,,,,,,,,,,,,,,,81,1.65,1,0,11,11,35,1,9,×,9,9 × 9,neutral,tie,1,2,81,,,,,,,,
,,,,,,,,,,,,,,,772,2022-01-19_09h22.06.739,multiplicationStroop,2021.2.3,MacIntel,52.63157895,,,,,,,,,,,,,,,,,,,,,,,,,,,,,,,,,16,1.281,1,0,12,12,19,1,8,×,2,8 × 2,congruent,largerFirst,2,1,16,,,,,,,,
,,,,,,,,,,,,,,,772,2022-01-19_09h22.06.739,multiplicationStroop,2021.2.3,MacIntel,52.63157895,,,,,,,,,,,,,,,,,,,,,,,,,,,,,,,,,9,1.249,1,0,13,13,29,1,3,×,3,3 × 3,neutral,tie,1,2,9,,,,,,,,
,,,,,,,,,,,,,,,772,2022-01-19_09h22.06.739,multiplicationStroop,2021.2.3,MacIntel,52.63157895,,,,,,,,,,,,,,,,,,,,,,,,,,,,,,,,,32,1.265,1,0,14,14,6,1,4,×,8,4 × 8,congruent,smallerFirst,1,2,32,,,,,,,,
,,,,,,,,,,,,,,,772,2022-01-19_09h22.06.739,multiplicationStroop,2021.2.3,MacIntel,52.63157895,,,,,,,,,,,,,,,,,,,,,,,,,,,,,,,,,42,1.964,1,0,15,15,17,1,7,×,6,7 × 6,congruent,largerFirst,2,1,42,,,,,,,,
,,,,,,,,,,,,,,,772,2022-01-19_09h22.06.739,multiplicationStroop,2021.2.3,MacIntel,52.63157895,,,,,,,,,,,,,,,,,,,,,,,,,,,,,,,,,14,1.7,1,0,16,16,0,1,2,×,7,2 × 7,congruent,smallerFirst,1,2,14,,,,,,,,
,,,,,,,,,,,,,,,772,2022-01-19_09h22.06.739,multiplicationStroop,2021.2.3,MacIntel,52.63157895,,,,,,,,,,,,,,,,,,,,,,,,,,,,,,,,,12,1.082,1,0,17,17,16,1,4,×,3,4 × 3,congruent,largerFirst,2,1,12,,,,,,,,
,,,,,,,,,,,,,,,772,2022-01-19_09h22.06.739,multiplicationStroop,2021.2.3,MacIntel,52.63157895,,,,,,,,,,,,,,,,,,,,,,,,,,,,,,,,,10,1.765,1,0,18,18,10,1,2,×,5,2 × 5,congruent,smallerFirst,1,2,10,,,,,,,,
,,,,,,,,,,,,,,,772,2022-01-19_09h22.06.739,multiplicationStroop,2021.2.3,MacIntel,52.63157895,,,,,,,,,,,,,,,,,,,,,,,,,,,,,,,,,48,1.796,1,0,19,19,4,1,6,×,8,6 × 8,congruent,smallerFirst,1,2,48,,,,,,,,
,,,,,,,,,,,,,,,772,2022-01-19_09h22.06.739,multiplicationStroop,2021.2.3,MacIntel,52.63157895,,,,,,,,,,,,,,,,,,,,,,,,,,,,,,,,,4,1.166,1,0,20,20,28,1,2,×,2,2 × 2,neutral,tie,1,2,4,,,,,,,,
,,,,,,,,,,,,,,,772,2022-01-19_09h22.06.739,multiplicationStroop,2021.2.3,MacIntel,52.63157895,,,,,,,,,,,,,,,,,,,,,,,,,,,,,,,,,45,1.4,1,0,21,21,9,1,5,×,9,5 × 9,congruent,smallerFirst,1,2,45,,,,,,,,
,,,,,,,,,,,,,,,772,2022-01-19_09h22.06.739,multiplicationStroop,2021.2.3,MacIntel,52.63157895,,,,,,,,,,,,,,,,,,,,,,,,,,,,,,,,,54,1.417,1,0,22,22,26,1,9,×,6,9 × 6,congruent,largerFirst,2,1,54,,,,,,,,
,,,,,,,,,,,,,,,772,2022-01-19_09h22.06.739,multiplicationStroop,2021.2.3,MacIntel,52.63157895,,,,,,,,,,,,,,,,,,,,,,,,,,,,,,,,,24,1.267,1,0,23,23,11,1,4,×,6,4 × 6,congruent,smallerFirst,1,2,24,,,,,,,,
,,,,,,,,,,,,,,,772,2022-01-19_09h22.06.739,multiplicationStroop,2021.2.3,MacIntel,52.63157895,,,,,,,,,,,,,,,,,,,,,,,,,,,,,,,,,26,1.331,0,0,24,24,31,1,5,×,5,5 × 5,neutral,tie,1,2,25,,,,,,,,
,,,,,,,,,,,,,,,772,2022-01-19_09h22.06.739,multiplicationStroop,2021.2.3,MacIntel,52.63157895,,,,,,,,,,,,,,,,,,,,,,,,,,,,,,,,,16,1.732,1,0,25,25,30,1,4,×,4,4 × 4,neutral,tie,1,2,16,,,,,,,,
,,,,,,,,,,,,,,,772,2022-01-19_09h22.06.739,multiplicationStroop,2021.2.3,MacIntel,52.63157895,,,,,,,,,,,,,,,,,,,,,,,,,,,,,,,,,12,1.298,1,0,26,26,5,1,2,×,6,2 × 6,congruent,smallerFirst,1,2,12,,,,,,,,
,,,,,,,,,,,,,,,772,2022-01-19_09h22.06.739,multiplicationStroop,2021.2.3,MacIntel,52.63157895,,,,,,,,,,,,,,,,,,,,,,,,,,,,,,,,,21,1.35,1,0,27,27,2,1,3,×,7,3 × 7,congruent,smallerFirst,1,2,21,,,,,,,,
,,,,,,,,,,,,,,,772,2022-01-19_09h22.06.739,multiplicationStroop,2021.2.3,MacIntel,52.63157895,,,,,,,,,,,,,,,,,,,,,,,,,,,,,,,,,8,1.466,1,0,28,28,23,1,4,×,2,4 × 2,congruent,largerFirst,2,1,8,,,,,,,,
,,,,,,,,,,,,,,,772,2022-01-19_09h22.06.739,multiplicationStroop,2021.2.3,MacIntel,52.63157895,,,,,,,,,,,,,,,,,,,,,,,,,,,,,,,,,36,2.431,1,0,29,29,32,1,6,×,6,6 × 6,neutral,tie,1,2,36,,,,,,,,
,,,,,,,,,,,,,,,772,2022-01-19_09h22.06.739,multiplicationStroop,2021.2.3,MacIntel,52.63157895,,,,,,,,,,,,,,,,,,,,,,,,,,,,,,,,,36,1.501,1,0,30,30,14,1,9,×,4,9 × 4,congruent,largerFirst,2,1,36,,,,,,,,
,,,,,,,,,,,,,,,772,2022-01-19_09h22.06.739,multiplicationStroop,2021.2.3,MacIntel,52.63157895,,,,,,,,,,,,,,,,,,,,,,,,,,,,,,,,,72,1.848,1,0,31,31,3,1,8,×,9,8 × 9,congruent,smallerFirst,1,2,72,,,,,,,,
,,,,,,,,,,,,,,,772,2022-01-19_09h22.06.739,multiplicationStroop,2021.2.3,MacIntel,52.63157895,,,,,,,,,,,,,,,,,,,,,,,,,,,,,,,,,15,1.183,1,0,32,32,18,1,5,×,3,5 × 3,congruent,largerFirst,2,1,15,,,,,,,,
,,,,,,,,,,,,,,,772,2022-01-19_09h22.06.739,multiplicationStroop,2021.2.3,MacIntel,52.63157895,,,,,,,,,,,,,,,,,,,,,,,,,,,,,,,,,24,1.732,1,0,33,33,24,1,8,×,3,8 × 3,congruent,largerFirst,2,1,24,,,,,,,,
,,,,,,,,,,,,,,,772,2022-01-19_09h22.06.739,multiplicationStroop,2021.2.3,MacIntel,52.63157895,,,,,,,,,,,,,,,,,,,,,,,,,,,,,,,,,6,1.349,1,0,34,34,27,1,3,×,2,3 × 2,congruent,largerFirst,2,1,6,,,,,,,,
,,,,,,,,,,,,,,,772,2022-01-19_09h22.06.739,multiplicationStroop,2021.2.3,MacIntel,52.63157895,,,,,,,,,,,,,,,,,,,,,,,,,,,,,,,,,63,2.632,1,0,35,35,7,1,7,×,9,7 × 9,congruent,smallerFirst,1,2,63,,,,,,,,
,,,,,,,,,,,,,,,772,2022-01-19_09h22.06.739,multiplicationStroop,2021.2.3,MacIntel,52.63157895,,,,,,,,,,,,,,,,,,,,,,,,,,,,,,,,,,,,,,,,,,,,,,,,,,0,0,0,3,1,stimulusFile/mult_blk4_congruent.xlsx,,
,,,,,,,,,,,,,,,772,2022-01-19_09h22.06.739,multiplicationStroop,2021.2.3,MacIntel,52.63157895,,,,,,,,,,,,,,,,,,,,,,,,,,,,,,,space,1.329,9,1.17,1,0,0,0,29,1,3,×,3,3 × 3,neutral,tie,2,1,9,,,,,,,,
,,,,,,,,,,,,,,,772,2022-01-19_09h22.06.739,multiplicationStroop,2021.2.3,MacIntel,52.63157895,,,,,,,,,,,,,,,,,,,,,,,,,,,,,,,,,36,1.383,1,0,1,1,32,1,6,×,6,6 × 6,neutral,tie,2,1,36,,,,,,,,
,,,,,,,,,,,,,,,772,2022-01-19_09h22.06.739,multiplicationStroop,2021.2.3,MacIntel,52.63157895,,,,,,,,,,,,,,,,,,,,,,,,,,,,,,,,,32,1.131,1,0,2,2,20,1,8,×,4,8 × 4,congruent,largerFirst,2,1,32,,,,,,,,
,,,,,,,,,,,,,,,772,2022-01-19_09h22.06.739,multiplicationStroop,2021.2.3,MacIntel,52.63157895,,,,,,,,,,,,,,,,,,,,,,,,,,,,,,,,,18,1.281,1,0,3,3,11,1,3,×,6,3 × 6,congruent,smallerFirst,1,2,18,,,,,,,,
,,,,,,,,,,,,,,,772,2022-01-19_09h22.06.739,multiplicationStroop,2021.2.3,MacIntel,52.63157895,,,,,,,,,,,,,,,,,,,,,,,,,,,,,,,,,27,1.383,0,0,4,4,21,1,9,×,7,9 × 7,congruent,largerFirst,2,1,63,,,,,,,,
,,,,,,,,,,,,,,,772,2022-01-19_09h22.06.739,multiplicationStroop,2021.2.3,MacIntel,52.63157895,,,,,,,,,,,,,,,,,,,,,,,,,,,,,,,,,8,1.466,1,0,5,5,9,1,2,×,4,2 × 4,congruent,smallerFirst,1,2,8,,,,,,,,
,,,,,,,,,,,,,,,772,2022-01-19_09h22.06.739,multiplicationStroop,2021.2.3,MacIntel,52.63157895,,,,,,,,,,,,,,,,,,,,,,,,,,,,,,,,,64,1.882,1,0,6,6,34,1,8,×,8,8 × 8,neutral,tie,2,1,64,,,,,,,,
,,,,,,,,,,,,,,,772,2022-01-19_09h22.06.739,multiplicationStroop,2021.2.3,MacIntel,52.63157895,,,,,,,,,,,,,,,,,,,,,,,,,,,,,,,,,81,1.304,1,0,7,7,35,1,9,×,9,9 × 9,neutral,tie,2,1,81,,,,,,,,
,,,,,,,,,,,,,,,772,2022-01-19_09h22.06.739,multiplicationStroop,2021.2.3,MacIntel,52.63157895,,,,,,,,,,,,,,,,,,,,,,,,,,,,,,,,,35,1.26,1,0,8,8,1,1,5,×,7,5 × 7,congruent,smallerFirst,1,2,35,,,,,,,,
,,,,,,,,,,,,,,,772,2022-01-19_09h22.06.739,multiplicationStroop,2021.2.3,MacIntel,52.63157895,,,,,,,,,,,,,,,,,,,,,,,,,,,,,,,,,12,1.467,1,0,9,9,19,1,6,×,2,6 × 2,congruent,largerFirst,2,1,12,,,,,,,,
,,,,,,,,,,,,,,,772,2022-01-19_09h22.06.739,multiplicationStroop,2021.2.3,MacIntel,52.63157895,,,,,,,,,,,,,,,,,,,,,,,,,,,,,,,,,25,1.365,1,0,10,10,31,1,5,×,5,5 × 5,neutral,tie,2,1,25,,,,,,,,
,,,,,,,,,,,,,,,772,2022-01-19_09h22.06.739,multiplicationStroop,2021.2.3,MacIntel,52.63157895,,,,,,,,,,,,,,,,,,,,,,,,,,,,,,,,,72,1.316,1,0,11,11,17,1,9,×,8,9 × 8,congruent,largerFirst,2,1,72,,,,,,,,
,,,,,,,,,,,,,,,772,2022-01-19_09h22.06.739,multiplicationStroop,2021.2.3,MacIntel,52.63157895,,,,,,,,,,,,,,,,,,,,,,,,,,,,,,,,,12,1.065,1,0,12,12,2,1,3,×,4,3 × 4,congruent,smallerFirst,1,2,12,,,,,,,,
,,,,,,,,,,,,,,,772,2022-01-19_09h22.06.739,multiplicationStroop,2021.2.3,MacIntel,52.63157895,,,,,,,,,,,,,,,,,,,,,,,,,,,,,,,,,56,1.766,1,0,13,13,8,1,7,×,8,7 × 8,congruent,smallerFirst,1,2,56,,,,,,,,
,,,,,,,,,,,,,,,772,2022-01-19_09h22.06.739,multiplicationStroop,2021.2.3,MacIntel,52.63157895,,,,,,,,,,,,,,,,,,,,,,,,,,,,,,,,,16,1.582,1,0,14,14,30,1,4,×,4,4 × 4,neutral,tie,2,1,16,,,,,,,,
,,,,,,,,,,,,,,,772,2022-01-19_09h22.06.739,multiplicationStroop,2021.2.3,MacIntel,52.63157895,,,,,,,,,,,,,,,,,,,,,,,,,,,,,,,,,20,1.367,1,0,15,15,7,1,4,×,5,4 × 5,congruent,smallerFirst,1,2,20,,,,,,,,
,,,,,,,,,,,,,,,772,2022-01-19_09h22.06.739,multiplicationStroop,2021.2.3,MacIntel,52.63157895,,,,,,,,,,,,,,,,,,,,,,,,,,,,,,,,,18,1.248,1,0,16,16,22,1,9,×,2,9 × 2,congruent,largerFirst,2,1,18,,,,,,,,
,,,,,,,,,,,,,,,772,2022-01-19_09h22.06.739,multiplicationStroop,2021.2.3,MacIntel,52.63157895,,,,,,,,,,,,,,,,,,,,,,,,,,,,,,,,,14,1.1,1,0,17,17,14,1,7,×,2,7 × 2,congruent,largerFirst,2,1,14,,,,,,,,
,,,,,,,,,,,,,,,772,2022-01-19_09h22.06.739,multiplicationStroop,2021.2.3,MacIntel,52.63157895,,,,,,,,,,,,,,,,,,,,,,,,,,,,,,,,,30,1.466,1,0,18,18,15,1,6,×,5,6 × 5,congruent,largerFirst,2,1,30,,,,,,,,
,,,,,,,,,,,,,,,772,2022-01-19_09h22.06.739,multiplicationStroop,2021.2.3,MacIntel,52.63157895,,,,,,,,,,,,,,,,,,,,,,,,,,,,,,,,,21,1.082,1,0,19,19,16,1,7,×,3,7 × 3,congruent,largerFirst,2,1,21,,,,,,,,
,,,,,,,,,,,,,,,772,2022-01-19_09h22.06.739,multiplicationStroop,2021.2.3,MacIntel,52.63157895,,,,,,,,,,,,,,,,,,,,,,,,,,,,,,,,,45,1.199,1,0,20,20,23,1,9,×,5,9 × 5,congruent,largerFirst,2,1,45,,,,,,,,
,,,,,,,,,,,,,,,772,2022-01-19_09h22.06.739,multiplicationStroop,2021.2.3,MacIntel,52.63157895,,,,,,,,,,,,,,,,,,,,,,,,,,,,,,,,,49,2.216,1,0,21,21,33,1,7,×,7,7 × 7,neutral,tie,2,1,49,,,,,,,,
,,,,,,,,,,,,,,,772,2022-01-19_09h22.06.739,multiplicationStroop,2021.2.3,MacIntel,52.63157895,,,,,,,,,,,,,,,,,,,,,,,,,,,,,,,,,10,1.182,1,0,22,22,24,1,5,×,2,5 × 2,congruent,largerFirst,2,1,10,,,,,,,,
,,,,,,,,,,,,,,,772,2022-01-19_09h22.06.739,multiplicationStroop,2021.2.3,MacIntel,52.63157895,,,,,,,,,,,,,,,,,,,,,,,,,,,,,,,,,4,1.265,1,0,23,23,28,1,2,×,2,2 × 2,neutral,tie,2,1,4,,,,,,,,
,,,,,,,,,,,,,,,772,2022-01-19_09h22.06.739,multiplicationStroop,2021.2.3,MacIntel,52.63157895,,,,,,,,,,,,,,,,,,,,,,,,,,,,,,,,,28,1.25,1,0,24,24,27,1,7,×,4,7 × 4,congruent,largerFirst,2,1,28,,,,,,,,
,,,,,,,,,,,,,,,772,2022-01-19_09h22.06.739,multiplicationStroop,2021.2.3,MacIntel,52.63157895,,,,,,,,,,,,,,,,,,,,,,,,,,,,,,,,,42,1.222,1,0,25,25,3,1,6,×,7,6 × 7,congruent,smallerFirst,1,2,42,,,,,,,,
,,,,,,,,,,,,,,,772,2022-01-19_09h22.06.739,multiplicationStroop,2021.2.3,MacIntel,52.63157895,,,,,,,,,,,,,,,,,,,,,,,,,,,,,,,,,48,1.426,1,0,26,26,18,1,8,×,6,8 × 6,congruent,largerFirst,2,1,48,,,,,,,,
,,,,,,,,,,,,,,,772,2022-01-19_09h22.06.739,multiplicationStroop,2021.2.3,MacIntel,52.63157895,,,,,,,,,,,,,,,,,,,,,,,,,,,,,,,,,15,1.232,1,0,27,27,4,1,3,×,5,3 × 5,congruent,smallerFirst,1,2,15,,,,,,,,
,,,,,,,,,,,,,,,772,2022-01-19_09h22.06.739,multiplicationStroop,2021.2.3,MacIntel,52.63157895,,,,,,,,,,,,,,,,,,,,,,,,,,,,,,,,,16,1.442,1,0,28,28,5,1,2,×,8,2 × 8,congruent,smallerFirst,1,2,16,,,,,,,,
,,,,,,,,,,,,,,,772,2022-01-19_09h22.06.739,multiplicationStroop,2021.2.3,MacIntel,52.63157895,,,,,,,,,,,,,,,,,,,,,,,,,,,,,,,,,24,1.275,1,0,29,29,25,1,6,×,4,6 × 4,congruent,largerFirst,2,1,24,,,,,,,,
,,,,,,,,,,,,,,,772,2022-01-19_09h22.06.739,multiplicationStroop,2021.2.3,MacIntel,52.63157895,,,,,,,,,,,,,,,,,,,,,,,,,,,,,,,,,40,1.415,1,0,30,30,6,1,5,×,8,5 × 8,congruent,smallerFirst,1,2,40,,,,,,,,
,,,,,,,,,,,,,,,772,2022-01-19_09h22.06.739,multiplicationStroop,2021.2.3,MacIntel,52.63157895,,,,,,,,,,,,,,,,,,,,,,,,,,,,,,,,,6,1.183,1,0,31,31,13,1,2,×,3,2 × 3,congruent,smallerFirst,1,2,6,,,,,,,,
,,,,,,,,,,,,,,,772,2022-01-19_09h22.06.739,multiplicationStroop,2021.2.3,MacIntel,52.63157895,,,,,,,,,,,,,,,,,,,,,,,,,,,,,,,,,27,1.249,1,0,32,32,26,1,9,×,3,9 × 3,congruent,largerFirst,2,1,27,,,,,,,,
,,,,,,,,,,,,,,,772,2022-01-19_09h22.06.739,multiplicationStroop,2021.2.3,MacIntel,52.63157895,,,,,,,,,,,,,,,,,,,,,,,,,,,,,,,,,36,1.932,1,0,33,33,0,1,4,×,9,4 × 9,congruent,smallerFirst,1,2,36,,,,,,,,
,,,,,,,,,,,,,,,772,2022-01-19_09h22.06.739,multiplicationStroop,2021.2.3,MacIntel,52.63157895,,,,,,,,,,,,,,,,,,,,,,,,,,,,,,,,,24,1.216,1,0,34,34,10,1,3,×,8,3 × 8,congruent,smallerFirst,1,2,24,,,,,,,,
,,,,,,,,,,,,,,,772,2022-01-19_09h22.06.739,multiplicationStroop,2021.2.3,MacIntel,52.63157895,,,,,,,,,,,,,,,,,,,,,,,,,,,,,,,,,54,2.099,1,0,35,35,12,1,6,×,9,6 × 9,congruent,smallerFirst,1,2,54,,,,,,,,
,,,,,,,,,,,,,,,772,2022-01-19_09h22.06.739,multiplicationStroop,2021.2.3,MacIntel,52.63157895,,,,,,,,,,,,,,,,,,,,,,,,,,,,,,,,,,,,,,,,,,,,,,,,,,0,1,1,2,1,stimulusFile/mult_blk3_congruent.xlsx,,
,,,,,,,,,,,,,,,772,2022-01-19_09h22.06.739,multiplicationStroop,2021.2.3,MacIntel,52.63157895,,,,,,,,,,,,,,,,,,,,,,,,,,,,,,,space,10.085,72,1.569,1,0,0,0,11,1,8,×,9,8 × 9,neutral,smallerFirst,1.5,1.5,72,,,,,,,,
,,,,,,,,,,,,,,,772,2022-01-19_09h22.06.739,multiplicationStroop,2021.2.3,MacIntel,52.63157895,,,,,,,,,,,,,,,,,,,,,,,,,,,,,,,,,54,1.55,1,0,1,1,7,1,6,×,9,6 × 9,neutral,smallerFirst,1.5,1.5,54,,,,,,,,
,,,,,,,,,,,,,,,772,2022-01-19_09h22.06.739,multiplicationStroop,2021.2.3,MacIntel,52.63157895,,,,,,,,,,,,,,,,,,,,,,,,,,,,,,,,,564,1.872,0,0,2,2,34,1,8,×,8,8 × 8,neutral,tie,1.5,1.5,64,,,,,,,,
,,,,,,,,,,,,,,,772,2022-01-19_09h22.06.739,multiplicationStroop,2021.2.3,MacIntel,52.63157895,,,,,,,,,,,,,,,,,,,,,,,,,,,,,,,,,49,1.76,1,0,3,3,33,1,7,×,7,7 × 7,neutral,tie,1.5,1.5,49,,,,,,,,
,,,,,,,,,,,,,,,772,2022-01-19_09h22.06.739,multiplicationStroop,2021.2.3,MacIntel,52.63157895,,,,,,,,,,,,,,,,,,,,,,,,,,,,,,,,,9,1.116,1,0,4,4,29,1,3,×,3,3 × 3,neutral,tie,1.5,1.5,9,,,,,,,,
,,,,,,,,,,,,,,,772,2022-01-19_09h22.06.739,multiplicationStroop,2021.2.3,MacIntel,52.63157895,,,,,,,,,,,,,,,,,,,,,,,,,,,,,,,,,18,1.364,1,0,5,5,18,1,9,×,2,9 × 2,neutral,largerFirst,1.5,1.5,18,,,,,,,,
,,,,,,,,,,,,,,,772,2022-01-19_09h22.06.739,multiplicationStroop,2021.2.3,MacIntel,52.63157895,,,,,,,,,,,,,,,,,,,,,,,,,,,,,,,,,81,1.25,1,0,6,6,35,1,9,×,9,9 × 9,neutral,tie,1.5,1.5,81,,,,,,,,
,,,,,,,,,,,,,,,772,2022-01-19_09h22.06.739,multiplicationStroop,2021.2.3,MacIntel,52.63157895,,,,,,,,,,,,,,,,,,,,,,,,,,,,,,,,,27,1.298,0,0,7,7,8,1,3,×,7,3 × 7,neutral,smallerFirst,1.5,1.5,21,,,,,,,,
,,,,,,,,,,,,,,,772,2022-01-19_09h22.06.739,multiplicationStroop,2021.2.3,MacIntel,52.63157895,,,,,,,,,,,,,,,,,,,,,,,,,,,,,,,,,14,1.35,1,0,8,8,16,1,7,×,2,7 × 2,neutral,largerFirst,1.5,1.5,14,,,,,,,,
,,,,,,,,,,,,,,,772,2022-01-19_09h22.06.739,multiplicationStroop,2021.2.3,MacIntel,52.63157895,,,,,,,,,,,,,,,,,,,,,,,,,,,,,,,,,36,1.399,1,0,9,9,32,1,6,×,6,6 × 6,neutral,tie,1.5,1.5,36,,,,,,,,
,,,,,,,,,,,,,,,772,2022-01-19_09h22.06.739,multiplicationStroop,2021.2.3,MacIntel,52.63157895,,,,,,,,,,,,,,,,,,,,,,,,,,,,,,,,,27,1.299,1,0,10,10,14,1,9,×,3,9 × 3,neutral,largerFirst,1.5,1.5,27,,,,,,,,
,,,,,,,,,,,,,,,772,2022-01-19_09h22.06.739,multiplicationStroop,2021.2.3,MacIntel,52.63157895,,,,,,,,,,,,,,,,,,,,,,,,,,,,,,,,,36,1.566,1,0,11,11,27,1,9,×,4,9 × 4,neutral,largerFirst,1.5,1.5,36,,,,,,,,
,,,,,,,,,,,,,,,772,2022-01-19_09h22.06.739,multiplicationStroop,2021.2.3,MacIntel,52.63157895,,,,,,,,,,,,,,,,,,,,,,,,,,,,,,,,,25,1.25,1,0,12,12,31,1,5,×,5,5 × 5,neutral,tie,1.5,1.5,25,,,,,,,,
,,,,,,,,,,,,,,,772,2022-01-19_09h22.06.739,multiplicationStroop,2021.2.3,MacIntel,52.63157895,,,,,,,,,,,,,,,,,,,,,,,,,,,,,,,,,40,1.382,1,0,13,13,24,1,8,×,5,8 × 5,neutral,largerFirst,1.5,1.5,40,,,,,,,,
,,,,,,,,,,,,,,,772,2022-01-19_09h22.06.739,multiplicationStroop,2021.2.3,MacIntel,52.63157895,,,,,,,,,,,,,,,,,,,,,,,,,,,,,,,,,48,1.716,1,0,14,14,15,1,8,×,6,8 × 6,neutral,largerFirst,1.5,1.5,48,,,,,,,,
,,,,,,,,,,,,,,,772,2022-01-19_09h22.06.739,multiplicationStroop,2021.2.3,MacIntel,52.63157895,,,,,,,,,,,,,,,,,,,,,,,,,,,,,,,,,24,1.166,1,0,15,15,22,1,8,×,3,8 × 3,neutral,largerFirst,1.5,1.5,24,,,,,,,,
,,,,,,,,,,,,,,,772,2022-01-19_09h22.06.739,multiplicationStroop,2021.2.3,MacIntel,52.63157895,,,,,,,,,,,,,,,,,,,,,,,,,,,,,,,,,1,1.683,0,0,16,16,0,1,3,×,6,3 × 6,neutral,smallerFirst,1.5,1.5,18,,,,,,,,
,,,,,,,,,,,,,,,772,2022-01-19_09h22.06.739,multiplicationStroop,2021.2.3,MacIntel,52.63157895,,,,,,,,,,,,,,,,,,,,,,,,,,,,,,,,,20,1.265,1,0,17,17,20,1,5,×,4,5 × 4,neutral,largerFirst,1.5,1.5,20,,,,,,,,
,,,,,,,,,,,,,,,772,2022-01-19_09h22.06.739,multiplicationStroop,2021.2.3,MacIntel,52.63157895,,,,,,,,,,,,,,,,,,,,,,,,,,,,,,,,,4,1.099,1,0,18,18,28,1,2,×,2,2 × 2,neutral,tie,1.5,1.5,4,,,,,,,,
,,,,,,,,,,,,,,,772,2022-01-19_09h22.06.739,multiplicationStroop,2021.2.3,MacIntel,52.63157895,,,,,,,,,,,,,,,,,,,,,,,,,,,,,,,,,30,1.199,1,0,19,19,19,1,6,×,5,6 × 5,neutral,largerFirst,1.5,1.5,30,,,,,,,,
,,,,,,,,,,,,,,,772,2022-01-19_09h22.06.739,multiplicationStroop,2021.2.3,MacIntel,52.63157895,,,,,,,,,,,,,,,,,,,,,,,,,,,,,,,,,6,1.247,1,0,20,20,26,1,3,×,2,3 × 2,neutral,largerFirst,1.5,1.5,6,,,,,,,,
,,,,,,,,,,,,,,,772,2022-01-19_09h22.06.739,multiplicationStroop,2021.2.3,MacIntel,52.63157895,,,,,,,,,,,,,,,,,,,,,,,,,,,,,,,,,88,1.916,0,0,21,21,3,1,2,×,4,2 × 4,neutral,smallerFirst,1.5,1.5,8,,,,,,,,
,,,,,,,,,,,,,,,772,2022-01-19_09h22.06.739,multiplicationStroop,2021.2.3,MacIntel,52.63157895,,,,,,,,,,,,,,,,,,,,,,,,,,,,,,,,,16,1.565,1,0,22,22,13,1,2,×,8,2 × 8,neutral,smallerFirst,1.5,1.5,16,,,,,,,,
,,,,,,,,,,,,,,,772,2022-01-19_09h22.06.739,multiplicationStroop,2021.2.3,MacIntel,52.63157895,,,,,,,,,,,,,,,,,,,,,,,,,,,,,,,,,16,1.349,1,0,23,23,30,1,4,×,4,4 × 4,neutral,tie,1.5,1.5,16,,,,,,,,
,,,,,,,,,,,,,,,772,2022-01-19_09h22.06.739,multiplicationStroop,2021.2.3,MacIntel,52.63157895,,,,,,,,,,,,,,,,,,,,,,,,,,,,,,,,,42,1.349,1,0,24,24,6,1,6,×,7,6 × 7,neutral,smallerFirst,1.5,1.5,42,,,,,,,,
,,,,,,,,,,,,,,,772,2022-01-19_09h22.06.739,multiplicationStroop,2021.2.3,MacIntel,52.63157895,,,,,,,,,,,,,,,,,,,,,,,,,,,,,,,,,32,1.254,1,0,25,25,23,1,8,×,4,8 × 4,neutral,largerFirst,1.5,1.5,32,,,,,,,,
,,,,,,,,,,,,,,,772,2022-01-19_09h22.06.739,multiplicationStroop,2021.2.3,MacIntel,52.63157895,,,,,,,,,,,,,,,,,,,,,,,,,,,,,,,,,35,1.294,1,0,26,26,1,1,5,×,7,5 × 7,neutral,smallerFirst,1.5,1.5,35,,,,,,,,
,,,,,,,,,,,,,,,772,2022-01-19_09h22.06.739,multiplicationStroop,2021.2.3,MacIntel,52.63157895,,,,,,,,,,,,,,,,,,,,,,,,,,,,,,,,,12,1.217,1,0,27,27,25,1,6,×,2,6 × 2,neutral,largerFirst,1.5,1.5,12,,,,,,,,
,,,,,,,,,,,,,,,772,2022-01-19_09h22.06.739,multiplicationStroop,2021.2.3,MacIntel,52.63157895,,,,,,,,,,,,,,,,,,,,,,,,,,,,,,,,,10,1.149,1,0,28,28,4,1,2,×,5,2 × 5,neutral,smallerFirst,1.5,1.5,10,,,,,,,,
,,,,,,,,,,,,,,,772,2022-01-19_09h22.06.739,multiplicationStroop,2021.2.3,MacIntel,52.63157895,,,,,,,,,,,,,,,,,,,,,,,,,,,,,,,,,63,2.114,1,0,29,29,12,1,7,×,9,7 × 9,neutral,smallerFirst,1.5,1.5,63,,,,,,,,
,,,,,,,,,,,,,,,772,2022-01-19_09h22.06.739,multiplicationStroop,2021.2.3,MacIntel,52.63157895,,,,,,,,,,,,,,,,,,,,,,,,,,,,,,,,,24,1.265,1,0,30,30,2,1,4,×,6,4 × 6,neutral,smallerFirst,1.5,1.5,24,,,,,,,,
,,,,,,,,,,,,,,,772,2022-01-19_09h22.06.739,multiplicationStroop,2021.2.3,MacIntel,52.63157895,,,,,,,,,,,,,,,,,,,,,,,,,,,,,,,,,45,1.286,1,0,31,31,10,1,5,×,9,5 × 9,neutral,smallerFirst,1.5,1.5,45,,,,,,,,
,,,,,,,,,,,,,,,772,2022-01-19_09h22.06.739,multiplicationStroop,2021.2.3,MacIntel,52.63157895,,,,,,,,,,,,,,,,,,,,,,,,,,,,,,,,,12,1.096,1,0,32,32,21,1,4,×,3,4 × 3,neutral,largerFirst,1.5,1.5,12,,,,,,,,
,,,,,,,,,,,,,,,772,2022-01-19_09h22.06.739,multiplicationStroop,2021.2.3,MacIntel,52.63157895,,,,,,,,,,,,,,,,,,,,,,,,,,,,,,,,,28,2.216,1,0,33,33,17,1,7,×,4,7 × 4,neutral,largerFirst,1.5,1.5,28,,,,,,,,
,,,,,,,,,,,,,,,772,2022-01-19_09h22.06.739,multiplicationStroop,2021.2.3,MacIntel,52.63157895,,,,,,,,,,,,,,,,,,,,,,,,,,,,,,,,,56,1.432,1,0,34,34,9,1,7,×,8,7 × 8,neutral,smallerFirst,1.5,1.5,56,,,,,,,,
,,,,,,,,,,,,,,,772,2022-01-19_09h22.06.739,multiplicationStroop,2021.2.3,MacIntel,52.63157895,,,,,,,,,,,,,,,,,,,,,,,,,,,,,,,,,15,1.15,1,0,35,35,5,1,3,×,5,3 × 5,neutral,smallerFirst,1.5,1.5,15,,,,,,,,
,,,,,,,,,,,,,,,772,2022-01-19_09h22.06.739,multiplicationStroop,2021.2.3,MacIntel,52.63157895,,,,,,,,,,,,,,,,,,,,,,,,,,,,,,,,,,,,,,,,,,,,,,,,,,0,2,2,1,1,stimulusFile/mult_blk2.xlsx,,
,,,,,,,,,,,,,,,772,2022-01-19_09h22.06.739,multiplicationStroop,2021.2.3,MacIntel,52.63157895,,,,,,,,,,,,,,,,,,,,,,,,,,,,,,,space,26.046,12,1.399,1,0,0,0,5,1,2,×,6,2 × 6,incongruent,smallerFirst,2,1,12,,,,,,,,
,,,,,,,,,,,,,,,772,2022-01-19_09h22.06.739,multiplicationStroop,2021.2.3,MacIntel,52.63157895,,,,,,,,,,,,,,,,,,,,,,,,,,,,,,,,,24,2.434,1,0,1,1,23,1,8,×,3,8 × 3,incongruent,largerFirst,1,2,24,,,,,,,,
,,,,,,,,,,,,,,,772,2022-01-19_09h22.06.739,multiplicationStroop,2021.2.3,MacIntel,52.63157895,,,,,,,,,,,,,,,,,,,,,,,,,,,,,,,,,48,1.464,1,0,2,2,15,1,8,×,6,8 × 6,incongruent,largerFirst,1,2,48,,,,,,,,
,,,,,,,,,,,,,,,772,2022-01-19_09h22.06.739,multiplicationStroop,2021.2.3,MacIntel,52.63157895,,,,,,,,,,,,,,,,,,,,,,,,,,,,,,,,,30,1.346,1,0,3,3,11,1,5,×,6,5 × 6,incongruent,smallerFirst,2,1,30,,,,,,,,
,,,,,,,,,,,,,,,772,2022-01-19_09h22.06.739,multiplicationStroop,2021.2.3,MacIntel,52.63157895,,,,,,,,,,,,,,,,,,,,,,,,,,,,,,,,,15,1.222,0,0,4,4,18,1,7,×,2,7 × 2,incongruent,largerFirst,1,2,14,,,,,,,,
,,,,,,,,,,,,,,,772,2022-01-19_09h22.06.739,multiplicationStroop,2021.2.3,MacIntel,52.63157895,,,,,,,,,,,,,,,,,,,,,,,,,,,,,,,,,8,1.544,1,0,5,5,10,1,2,×,4,2 × 4,incongruent,smallerFirst,2,1,8,,,,,,,,
,,,,,,,,,,,,,,,772,2022-01-19_09h22.06.739,multiplicationStroop,2021.2.3,MacIntel,52.63157895,,,,,,,,,,,,,,,,,,,,,,,,,,,,,,,,,18,1.347,1,0,6,6,16,1,9,×,2,9 × 2,incongruent,largerFirst,1,2,18,,,,,,,,
,,,,,,,,,,,,,,,772,2022-01-19_09h22.06.739,multiplicationStroop,2021.2.3,MacIntel,52.63157895,,,,,,,,,,,,,,,,,,,,,,,,,,,,,,,,,45,1.25,1,0,7,7,8,1,5,×,9,5 × 9,incongruent,smallerFirst,2,1,45,,,,,,,,
,,,,,,,,,,,,,,,772,2022-01-19_09h22.06.739,multiplicationStroop,2021.2.3,MacIntel,52.63157895,,,,,,,,,,,,,,,,,,,,,,,,,,,,,,,,,81,1.215,1,0,8,8,35,1,9,×,9,9 × 9,neutral,tie,2,1,81,,,,,,,,
,,,,,,,,,,,,,,,772,2022-01-19_09h22.06.739,multiplicationStroop,2021.2.3,MacIntel,52.63157895,,,,,,,,,,,,,,,,,,,,,,,,,,,,,,,,,32,1.315,1,0,9,9,21,1,8,×,4,8 × 4,incongruent,largerFirst,1,2,32,,,,,,,,
,,,,,,,,,,,,,,,772,2022-01-19_09h22.06.739,multiplicationStroop,2021.2.3,MacIntel,52.63157895,,,,,,,,,,,,,,,,,,,,,,,,,,,,,,,,,15,1.132,1,0,10,10,24,1,5,×,3,5 × 3,incongruent,largerFirst,1,2,15,,,,,,,,
,,,,,,,,,,,,,,,772,2022-01-19_09h22.06.739,multiplicationStroop,2021.2.3,MacIntel,52.63157895,,,,,,,,,,,,,,,,,,,,,,,,,,,,,,,,,4,1.049,1,0,11,11,28,1,2,×,2,2 × 2,neutral,tie,2,1,4,,,,,,,,
,,,,,,,,,,,,,,,772,2022-01-19_09h22.06.739,multiplicationStroop,2021.2.3,MacIntel,52.63157895,,,,,,,,,,,,,,,,,,,,,,,,,,,,,,,,,27,1.765,1,0,12,12,4,1,3,×,9,3 × 9,incongruent,smallerFirst,2,1,27,,,,,,,,
,,,,,,,,,,,,,,,772,2022-01-19_09h22.06.739,multiplicationStroop,2021.2.3,MacIntel,52.63157895,,,,,,,,,,,,,,,,,,,,,,,,,,,,,,,,,9,1.35,1,0,13,13,29,1,3,×,3,3 × 3,neutral,tie,2,1,9,,,,,,,,
,,,,,,,,,,,,,,,772,2022-01-19_09h22.06.739,multiplicationStroop,2021.2.3,MacIntel,52.63157895,,,,,,,,,,,,,,,,,,,,,,,,,,,,,,,,,18,1.854,1,0,14,14,22,1,6,×,3,6 × 3,incongruent,largerFirst,1,2,18,,,,,,,,
,,,,,,,,,,,,,,,772,2022-01-19_09h22.06.739,multiplicationStroop,2021.2.3,MacIntel,52.63157895,,,,,,,,,,,,,,,,,,,,,,,,,,,,,,,,,72,1.36,1,0,15,15,14,1,9,×,8,9 × 8,incongruent,largerFirst,1,2,72,,,,,,,,
,,,,,,,,,,,,,,,772,2022-01-19_09h22.06.739,multiplicationStroop,2021.2.3,MacIntel,52.63157895,,,,,,,,,,,,,,,,,,,,,,,,,,,,,,,,,54,1.883,1,0,16,16,20,1,9,×,6,9 × 6,incongruent,largerFirst,1,2,54,,,,,,,,
,,,,,,,,,,,,,,,772,2022-01-19_09h22.06.739,multiplicationStroop,2021.2.3,MacIntel,52.63157895,,,,,,,,,,,,,,,,,,,,,,,,,,,,,,,,,40,1.284,1,0,17,17,27,1,8,×,5,8 × 5,incongruent,largerFirst,1,2,40,,,,,,,,
,,,,,,,,,,,,,,,772,2022-01-19_09h22.06.739,multiplicationStroop,2021.2.3,MacIntel,52.63157895,,,,,,,,,,,,,,,,,,,,,,,,,,,,,,,,,25,1.466,1,0,18,18,31,1,5,×,5,5 × 5,neutral,tie,2,1,25,,,,,,,,
,,,,,,,,,,,,,,,772,2022-01-19_09h22.06.739,multiplicationStroop,2021.2.3,MacIntel,52.63157895,,,,,,,,,,,,,,,,,,,,,,,,,,,,,,,,,12,1.115,1,0,19,19,19,1,4,×,3,4 × 3,incongruent,largerFirst,1,2,12,,,,,,,,
,,,,,,,,,,,,,,,772,2022-01-19_09h22.06.739,multiplicationStroop,2021.2.3,MacIntel,52.63157895,,,,,,,,,,,,,,,,,,,,,,,,,,,,,,,,,36,1.382,1,0,20,20,32,1,6,×,6,6 × 6,neutral,tie,2,1,36,,,,,,,,
,,,,,,,,,,,,,,,772,2022-01-19_09h22.06.739,multiplicationStroop,2021.2.3,MacIntel,52.63157895,,,,,,,,,,,,,,,,,,,,,,,,,,,,,,,,,21,1.379,1,0,21,21,12,1,3,×,7,3 × 7,incongruent,smallerFirst,2,1,21,,,,,,,,
,,,,,,,,,,,,,,,772,2022-01-19_09h22.06.739,multiplicationStroop,2021.2.3,MacIntel,52.63157895,,,,,,,,,,,,,,,,,,,,,,,,,,,,,,,,,63,2.101,1,0,22,22,17,1,9,×,7,9 × 7,incongruent,largerFirst,1,2,63,,,,,,,,
,,,,,,,,,,,,,,,772,2022-01-19_09h22.06.739,multiplicationStroop,2021.2.3,MacIntel,52.63157895,,,,,,,,,,,,,,,,,,,,,,,,,,,,,,,,,20,1.464,1,0,23,23,13,1,4,×,5,4 × 5,incongruent,smallerFirst,2,1,20,,,,,,,,
,,,,,,,,,,,,,,,772,2022-01-19_09h22.06.739,multiplicationStroop,2021.2.3,MacIntel,52.63157895,,,,,,,,,,,,,,,,,,,,,,,,,,,,,,,,,42,1.383,1,0,24,24,3,1,6,×,7,6 × 7,incongruent,smallerFirst,2,1,42,,,,,,,,
,,,,,,,,,,,,,,,772,2022-01-19_09h22.06.739,multiplicationStroop,2021.2.3,MacIntel,52.63157895,,,,,,,,,,,,,,,,,,,,,,,,,,,,,,,,,24,1.232,1,0,25,25,6,1,4,×,6,4 × 6,incongruent,smallerFirst,2,1,24,,,,,,,,
,,,,,,,,,,,,,,,772,2022-01-19_09h22.06.739,multiplicationStroop,2021.2.3,MacIntel,52.63157895,,,,,,,,,,,,,,,,,,,,,,,,,,,,,,,,,36,1.332,1,0,26,26,1,1,4,×,9,4 × 9,incongruent,smallerFirst,2,1,36,,,,,,,,
,,,,,,,,,,,,,,,772,2022-01-19_09h22.06.739,multiplicationStroop,2021.2.3,MacIntel,52.63157895,,,,,,,,,,,,,,,,,,,,,,,,,,,,,,,,,49,1.949,1,0,27,27,33,1,7,×,7,7 × 7,neutral,tie,2,1,49,,,,,,,,
,,,,,,,,,,,,,,,772,2022-01-19_09h22.06.739,multiplicationStroop,2021.2.3,MacIntel,52.63157895,,,,,,,,,,,,,,,,,,,,,,,,,,,,,,,,,16,1.316,1,0,28,28,30,1,4,×,4,4 × 4,neutral,tie,2,1,16,,,,,,,,
,,,,,,,,,,,,,,,772,2022-01-19_09h22.06.739,multiplicationStroop,2021.2.3,MacIntel,52.63157895,,,,,,,,,,,,,,,,,,,,,,,,,,,,,,,,,6,1.282,1,0,29,29,25,1,3,×,2,3 × 2,incongruent,largerFirst,1,2,6,,,,,,,,
,,,,,,,,,,,,,,,772,2022-01-19_09h22.06.739,multiplicationStroop,2021.2.3,MacIntel,52.63157895,,,,,,,,,,,,,,,,,,,,,,,,,,,,,,,,,28,1.251,1,0,30,30,2,1,4,×,7,4 × 7,incongruent,smallerFirst,2,1,28,,,,,,,,
,,,,,,,,,,,,,,,772,2022-01-19_09h22.06.739,multiplicationStroop,2021.2.3,MacIntel,52.63157895,,,,,,,,,,,,,,,,,,,,,,,,,,,,,,,,,35,1.281,1,0,31,31,26,1,7,×,5,7 × 5,incongruent,largerFirst,1,2,35,,,,,,,,
,,,,,,,,,,,,,,,772,2022-01-19_09h22.06.739,multiplicationStroop,2021.2.3,MacIntel,52.63157895,,,,,,,,,,,,,,,,,,,,,,,,,,,,,,,,,16,1.367,1,0,32,32,9,1,2,×,8,2 × 8,incongruent,smallerFirst,2,1,16,,,,,,,,
,,,,,,,,,,,,,,,772,2022-01-19_09h22.06.739,multiplicationStroop,2021.2.3,MacIntel,52.63157895,,,,,,,,,,,,,,,,,,,,,,,,,,,,,,,,,64,1.748,1,0,33,33,34,1,8,×,8,8 × 8,neutral,tie,2,1,64,,,,,,,,
,,,,,,,,,,,,,,,772,2022-01-19_09h22.06.739,multiplicationStroop,2021.2.3,MacIntel,52.63157895,,,,,,,,,,,,,,,,,,,,,,,,,,,,,,,,,10,1.182,1,0,34,34,7,1,2,×,5,2 × 5,incongruent,smallerFirst,2,1,10,,,,,,,,
,,,,,,,,,,,,,,,772,2022-01-19_09h22.06.739,multiplicationStroop,2021.2.3,MacIntel,52.63157895,,,,,,,,,,,,,,,,,,,,,,,,,,,,,,,,,56,1.35,1,0,35,35,0,1,7,×,8,7 × 8,incongruent,smallerFirst,2,1,56,,,,,,,,
,,,,,,,,,,,,,,,772,2022-01-19_09h22.06.739,multiplicationStroop,2021.2.3,MacIntel,52.63157895,,,,,,,,,,,,,,,,,,,,,,,,,,,,,,,,,,,,,,,,,,,,,,,,,,0,3,3,4,1,stimulusFile/mult_blk5_INcongruent.xlsx,,
,,,,,,,,,,,,,,,772,2022-01-19_09h22.06.739,multiplicationStroop,2021.2.3,MacIntel,52.63157895,,,,,,,,,,,,,,,,,,,,,,,,,,,,,,,space,9.224,72,1.368,1,0,0,0,0,1,8,×,9,8 × 9,incongruent,smallerFirst,2,1,72,,,,,,,,
,,,,,,,,,,,,,,,772,2022-01-19_09h22.06.739,multiplicationStroop,2021.2.3,MacIntel,52.63157895,,,,,,,,,,,,,,,,,,,,,,,,,,,,,,,,,12,1.066,1,0,1,1,19,1,6,×,2,6 × 2,incongruent,largerFirst,1,2,12,,,,,,,,
,,,,,,,,,,,,,,,772,2022-01-19_09h22.06.739,multiplicationStroop,2021.2.3,MacIntel,52.63157895,,,,,,,,,,,,,,,,,,,,,,,,,,,,,,,,,45,1.266,1,0,2,2,22,1,9,×,5,9 × 5,incongruent,largerFirst,1,2,45,,,,,,,,
,,,,,,,,,,,,,,,772,2022-01-19_09h22.06.739,multiplicationStroop,2021.2.3,MacIntel,52.63157895,,,,,,,,,,,,,,,,,,,,,,,,,,,,,,,,,42,1.299,1,0,3,3,17,1,7,×,6,7 × 6,incongruent,largerFirst,1,2,42,,,,,,,,
,,,,,,,,,,,,,,,772,2022-01-19_09h22.06.739,multiplicationStroop,2021.2.3,MacIntel,52.63157895,,,,,,,,,,,,,,,,,,,,,,,,,,,,,,,,,27,1.549,1,0,4,4,18,1,9,×,3,9 × 3,incongruent,largerFirst,1,2,27,,,,,,,,
,,,,,,,,,,,,,,,772,2022-01-19_09h22.06.739,multiplicationStroop,2021.2.3,MacIntel,52.63157895,,,,,,,,,,,,,,,,,,,,,,,,,,,,,,,,,35,1.3,1,0,5,5,12,1,5,×,7,5 × 7,incongruent,smallerFirst,2,1,35,,,,,,,,
,,,,,,,,,,,,,,,772,2022-01-19_09h22.06.739,multiplicationStroop,2021.2.3,MacIntel,52.63157895,,,,,,,,,,,,,,,,,,,,,,,,,,,,,,,,,36,1.351,1,0,6,6,32,1,6,×,6,6 × 6,incongruent,tie,1,2,36,,,,,,,,
,,,,,,,,,,,,,,,772,2022-01-19_09h22.06.739,multiplicationStroop,2021.2.3,MacIntel,52.63157895,,,,,,,,,,,,,,,,,,,,,,,,,,,,,,,,,64,1.646,1,0,7,7,34,1,8,×,8,8 × 8,incongruent,tie,1,2,64,,,,,,,,
,,,,,,,,,,,,,,,772,2022-01-19_09h22.06.739,multiplicationStroop,2021.2.3,MacIntel,52.63157895,,,,,,,,,,,,,,,,,,,,,,,,,,,,,,,,,56,1.314,1,0,8,8,14,1,8,×,7,8 × 7,incongruent,largerFirst,1,2,56,,,,,,,,
,,,,,,,,,,,,,,,772,2022-01-19_09h22.06.739,multiplicationStroop,2021.2.3,MacIntel,52.63157895,,,,,,,,,,,,,,,,,,,,,,,,,,,,,,,,,18,1.233,1,0,9,9,8,1,3,×,6,3 × 6,incongruent,smallerFirst,2,1,18,,,,,,,,
,,,,,,,,,,,,,,,772,2022-01-19_09h22.06.739,multiplicationStroop,2021.2.3,MacIntel,52.63157895,,,,,,,,,,,,,,,,,,,,,,,,,,,,,,,,,12,1.216,1,0,10,10,5,1,3,×,4,3 × 4,incongruent,smallerFirst,2,1,12,,,,,,,,
,,,,,,,,,,,,,,,772,2022-01-19_09h22.06.739,multiplicationStroop,2021.2.3,MacIntel,52.63157895,,,,,,,,,,,,,,,,,,,,,,,,,,,,,,,,,36,1.499,1,0,11,11,15,1,9,×,4,9 × 4,incongruent,largerFirst,1,2,36,,,,,,,,
,,,,,,,,,,,,,,,772,2022-01-19_09h22.06.739,multiplicationStroop,2021.2.3,MacIntel,52.63157895,,,,,,,,,,,,,,,,,,,,,,,,,,,,,,,,,16,1.382,1,0,12,12,23,1,8,×,2,8 × 2,incongruent,largerFirst,1,2,16,,,,,,,,
,,,,,,,,,,,,,,,772,2022-01-19_09h22.06.739,multiplicationStroop,2021.2.3,MacIntel,52.63157895,,,,,,,,,,,,,,,,,,,,,,,,,,,,,,,,,10,1.233,1,0,13,13,21,1,5,×,2,5 × 2,incongruent,largerFirst,1,2,10,,,,,,,,
,,,,,,,,,,,,,,,772,2022-01-19_09h22.06.739,multiplicationStroop,2021.2.3,MacIntel,52.63157895,,,,,,,,,,,,,,,,,,,,,,,,,,,,,,,,,16,1.265,1,0,14,14,30,1,4,×,4,4 × 4,incongruent,tie,1,2,16,,,,,,,,
,,,,,,,,,,,,,,,772,2022-01-19_09h22.06.739,multiplicationStroop,2021.2.3,MacIntel,52.63157895,,,,,,,,,,,,,,,,,,,,,,,,,,,,,,,,,6,1.171,1,0,15,15,11,1,2,×,3,2 × 3,incongruent,smallerFirst,2,1,6,,,,,,,,
,,,,,,,,,,,,,,,772,2022-01-19_09h22.06.739,multiplicationStroop,2021.2.3,MacIntel,52.63157895,,,,,,,,,,,,,,,,,,,,,,,,,,,,,,,,,25,1.975,1,0,16,16,31,1,5,×,5,5 × 5,incongruent,tie,1,2,25,,,,,,,,
,,,,,,,,,,,,,,,772,2022-01-19_09h22.06.739,multiplicationStroop,2021.2.3,MacIntel,52.63157895,,,,,,,,,,,,,,,,,,,,,,,,,,,,,,,,,49,1.366,1,0,17,17,33,1,7,×,7,7 × 7,incongruent,tie,1,2,49,,,,,,,,
,,,,,,,,,,,,,,,772,2022-01-19_09h22.06.739,multiplicationStroop,2021.2.3,MacIntel,52.63157895,,,,,,,,,,,,,,,,,,,,,,,,,,,,,,,,,48,1.48,1,0,18,18,1,1,6,×,8,6 × 8,incongruent,smallerFirst,2,1,48,,,,,,,,
,,,,,,,,,,,,,,,772,2022-01-19_09h22.06.739,multiplicationStroop,2021.2.3,MacIntel,52.63157895,,,,,,,,,,,,,,,,,,,,,,,,,,,,,,,,,4,1.383,1,0,19,19,28,1,2,×,2,2 × 2,incongruent,tie,1,2,4,,,,,,,,
,,,,,,,,,,,,,,,772,2022-01-19_09h22.06.739,multiplicationStroop,2021.2.3,MacIntel,52.63157895,,,,,,,,,,,,,,,,,,,,,,,,,,,,,,,,,24,1.349,1,0,20,20,20,1,6,×,4,6 × 4,incongruent,largerFirst,1,2,24,,,,,,,,
,,,,,,,,,,,,,,,772,2022-01-19_09h22.06.739,multiplicationStroop,2021.2.3,MacIntel,52.63157895,,,,,,,,,,,,,,,,,,,,,,,,,,,,,,,,,20,1.315,1,0,21,21,27,1,5,×,4,5 × 4,incongruent,largerFirst,1,2,20,,,,,,,,
,,,,,,,,,,,,,,,772,2022-01-19_09h22.06.739,multiplicationStroop,2021.2.3,MacIntel,52.63157895,,,,,,,,,,,,,,,,,,,,,,,,,,,,,,,,,9,1.416,1,0,22,22,29,1,3,×,3,3 × 3,incongruent,tie,1,2,9,,,,,,,,
,,,,,,,,,,,,,,,772,2022-01-19_09h22.06.739,multiplicationStroop,2021.2.3,MacIntel,52.63157895,,,,,,,,,,,,,,,,,,,,,,,,,,,,,,,,,40,1.282,1,0,23,23,13,1,5,×,8,5 × 8,incongruent,smallerFirst,2,1,40,,,,,,,,
,,,,,,,,,,,,,,,772,2022-01-19_09h22.06.739,multiplicationStroop,2021.2.3,MacIntel,52.63157895,,,,,,,,,,,,,,,,,,,,,,,,,,,,,,,,,24,1.382,1,0,24,24,9,1,3,×,8,3 × 8,incongruent,smallerFirst,2,1,24,,,,,,,,
,,,,,,,,,,,,,,,772,2022-01-19_09h22.06.739,multiplicationStroop,2021.2.3,MacIntel,52.63157895,,,,,,,,,,,,,,,,,,,,,,,,,,,,,,,,,3,1.649,0,0,25,25,7,1,4,×,8,4 × 8,incongruent,smallerFirst,2,1,32,,,,,,,,
,,,,,,,,,,,,,,,772,2022-01-19_09h22.06.739,multiplicationStroop,2021.2.3,MacIntel,52.63157895,,,,,,,,,,,,,,,,,,,,,,,,,,,,,,,,,30,1.3,1,0,26,26,25,1,6,×,5,6 × 5,incongruent,largerFirst,1,2,30,,,,,,,,
,,,,,,,,,,,,,,,772,2022-01-19_09h22.06.739,multiplicationStroop,2021.2.3,MacIntel,52.63157895,,,,,,,,,,,,,,,,,,,,,,,,,,,,,,,,,18,1.482,1,0,27,27,2,1,2,×,9,2 × 9,incongruent,smallerFirst,2,1,18,,,,,,,,
,,,,,,,,,,,,,,,772,2022-01-19_09h22.06.739,multiplicationStroop,2021.2.3,MacIntel,52.63157895,,,,,,,,,,,,,,,,,,,,,,,,,,,,,,,,,81,1.198,1,0,28,28,35,1,9,×,9,9 × 9,incongruent,tie,1,2,81,,,,,,,,
,,,,,,,,,,,,,,,772,2022-01-19_09h22.06.739,multiplicationStroop,2021.2.3,MacIntel,52.63157895,,,,,,,,,,,,,,,,,,,,,,,,,,,,,,,,,54,1.465,1,0,29,29,6,1,6,×,9,6 × 9,incongruent,smallerFirst,2,1,54,,,,,,,,
,,,,,,,,,,,,,,,772,2022-01-19_09h22.06.739,multiplicationStroop,2021.2.3,MacIntel,52.63157895,,,,,,,,,,,,,,,,,,,,,,,,,,,,,,,,,8,1.183,1,0,30,30,24,1,4,×,2,4 × 2,incongruent,largerFirst,1,2,8,,,,,,,,
,,,,,,,,,,,,,,,772,2022-01-19_09h22.06.739,multiplicationStroop,2021.2.3,MacIntel,52.63157895,,,,,,,,,,,,,,,,,,,,,,,,,,,,,,,,,63,2.833,1,0,31,31,3,1,7,×,9,7 × 9,incongruent,smallerFirst,2,1,63,,,,,,,,
,,,,,,,,,,,,,,,772,2022-01-19_09h22.06.739,multiplicationStroop,2021.2.3,MacIntel,52.63157895,,,,,,,,,,,,,,,,,,,,,,,,,,,,,,,,,21,1.116,1,0,32,32,26,1,7,×,3,7 × 3,incongruent,largerFirst,1,2,21,,,,,,,,
,,,,,,,,,,,,,,,772,2022-01-19_09h22.06.739,multiplicationStroop,2021.2.3,MacIntel,52.63157895,,,,,,,,,,,,,,,,,,,,,,,,,,,,,,,,,14,1.565,1,0,33,33,4,1,2,×,7,2 × 7,incongruent,smallerFirst,2,1,14,,,,,,,,
,,,,,,,,,,,,,,,772,2022-01-19_09h22.06.739,multiplicationStroop,2021.2.3,MacIntel,52.63157895,,,,,,,,,,,,,,,,,,,,,,,,,,,,,,,,,28,1.233,1,0,34,34,16,1,7,×,4,7 × 4,incongruent,largerFirst,1,2,28,,,,,,,,
,,,,,,,,,,,,,,,772,2022-01-19_09h22.06.739,multiplicationStroop,2021.2.3,MacIntel,52.63157895,,,,,,,,,,,,,,,,,,,,,,,,,,,,,,,,,15,1.198,1,0,35,35,10,1,3,×,5,3 × 5,incongruent,smallerFirst,2,1,15,,,,,,,,
,,,,,,,,,,,,,,,772,2022-01-19_09h22.06.739,multiplicationStroop,2021.2.3,MacIntel,52.63157895,,,,,,,,,,,,,,,,,,,,,,,,,,,,,,,,,,,,,,,,,,,,,,,,,,0,4,4,5,1,stimulusFile/mult_blk6_INcongruent.xlsx,,
,,,,,,,,,,,,,,,772,2022-01-19_09h22.06.739,multiplicationStroop,2021.2.3,MacIntel,52.63157895,,,,,,,,,,,,,,,,,,,,,,,,,,,,,,,space,13.023,18,1.268,1,0,0,0,14,1,6,×,3,6 × 3,neutral,largerFirst,1.5,1.5,18,,,,,,,,
,,,,,,,,,,,,,,,772,2022-01-19_09h22.06.739,multiplicationStroop,2021.2.3,MacIntel,52.63157895,,,,,,,,,,,,,,,,,,,,,,,,,,,,,,,,,4,1.006,1,0,1,1,28,1,2,×,2,2 × 2,neutral,tie,1.5,1.5,4,,,,,,,,
,,,,,,,,,,,,,,,772,2022-01-19_09h22.06.739,multiplicationStroop,2021.2.3,MacIntel,52.63157895,,,,,,,,,,,,,,,,,,,,,,,,,,,,,,,,,30,1.825,1,0,2,2,5,1,5,×,6,5 × 6,neutral,smallerFirst,1.5,1.5,30,,,,,,,,
,,,,,,,,,,,,,,,772,2022-01-19_09h22.06.739,multiplicationStroop,2021.2.3,MacIntel,52.63157895,,,,,,,,,,,,,,,,,,,,,,,,,,,,,,,,,145,1.291,0,0,3,3,2,1,2,×,7,2 × 7,neutral,smallerFirst,1.5,1.5,14,,,,,,,,
,,,,,,,,,,,,,,,772,2022-01-19_09h22.06.739,multiplicationStroop,2021.2.3,MacIntel,52.63157895,,,,,,,,,,,,,,,,,,,,,,,,,,,,,,,,,12,1.313,1,0,4,4,7,1,3,×,4,3 × 4,neutral,smallerFirst,1.5,1.5,12,,,,,,,,
,,,,,,,,,,,,,,,772,2022-01-19_09h22.06.739,multiplicationStroop,2021.2.3,MacIntel,52.63157895,,,,,,,,,,,,,,,,,,,,,,,,,,,,,,,,,9,1.749,1,0,5,5,29,1,3,×,3,3 × 3,neutral,tie,1.5,1.5,9,,,,,,,,
,,,,,,,,,,,,,,,772,2022-01-19_09h22.06.739,multiplicationStroop,2021.2.3,MacIntel,52.63157895,,,,,,,,,,,,,,,,,,,,,,,,,,,,,,,,,6,1.559,1,0,6,6,12,1,2,×,3,2 × 3,neutral,smallerFirst,1.5,1.5,6,,,,,,,,
,,,,,,,,,,,,,,,772,2022-01-19_09h22.06.739,multiplicationStroop,2021.2.3,MacIntel,52.63157895,,,,,,,,,,,,,,,,,,,,,,,,,,,,,,,,,42,3.272,1,0,7,7,20,1,7,×,6,7 × 6,neutral,largerFirst,1.5,1.5,42,,,,,,,,
,,,,,,,,,,,,,,,772,2022-01-19_09h22.06.739,multiplicationStroop,2021.2.3,MacIntel,52.63157895,,,,,,,,,,,,,,,,,,,,,,,,,,,,,,,,,25,1.134,1,0,8,8,31,1,5,×,5,5 × 5,neutral,tie,1.5,1.5,25,,,,,,,,
,,,,,,,,,,,,,,,772,2022-01-19_09h22.06.739,multiplicationStroop,2021.2.3,MacIntel,52.63157895,,,,,,,,,,,,,,,,,,,,,,,,,,,,,,,,,24,1.208,1,0,9,9,16,1,6,×,4,6 × 4,neutral,largerFirst,1.5,1.5,24,,,,,,,,
,,,,,,,,,,,,,,,772,2022-01-19_09h22.06.739,multiplicationStroop,2021.2.3,MacIntel,52.63157895,,,,,,,,,,,,,,,,,,,,,,,,,,,,,,,,,49,1.681,1,0,10,10,33,1,7,×,7,7 × 7,neutral,tie,1.5,1.5,49,,,,,,,,
,,,,,,,,,,,,,,,772,2022-01-19_09h22.06.739,multiplicationStroop,2021.2.3,MacIntel,52.63157895,,,,,,,,,,,,,,,,,,,,,,,,,,,,,,,,,27,1.298,1,0,11,11,0,1,3,×,9,3 × 9,neutral,smallerFirst,1.5,1.5,27,,,,,,,,
,,,,,,,,,,,,,,,772,2022-01-19_09h22.06.739,multiplicationStroop,2021.2.3,MacIntel,52.63157895,,,,,,,,,,,,,,,,,,,,,,,,,,,,,,,,,28,1.504,1,0,12,12,3,1,4,×,7,4 × 7,neutral,smallerFirst,1.5,1.5,28,,,,,,,,
,,,,,,,,,,,,,,,772,2022-01-19_09h22.06.739,multiplicationStroop,2021.2.3,MacIntel,52.63157895,,,,,,,,,,,,,,,,,,,,,,,,,,,,,,,,,48,1.284,1,0,13,13,1,1,6,×,8,6 × 8,neutral,smallerFirst,1.5,1.5,48,,,,,,,,
,,,,,,,,,,,,,,,772,2022-01-19_09h22.06.739,multiplicationStroop,2021.2.3,MacIntel,52.63157895,,,,,,,,,,,,,,,,,,,,,,,,,,,,,,,,,36,1.458,1,0,14,14,13,1,4,×,9,4 × 9,neutral,smallerFirst,1.5,1.5,36,,,,,,,,
,,,,,,,,,,,,,,,772,2022-01-19_09h22.06.739,multiplicationStroop,2021.2.3,MacIntel,52.63157895,,,,,,,,,,,,,,,,,,,,,,,,,,,,,,,,,36,1.332,1,0,15,15,32,1,6,×,6,6 × 6,neutral,tie,1.5,1.5,36,,,,,,,,
,,,,,,,,,,,,,,,772,2022-01-19_09h22.06.739,multiplicationStroop,2021.2.3,MacIntel,52.63157895,,,,,,,,,,,,,,,,,,,,,,,,,,,,,,,,,12,1.282,1,0,16,16,11,1,2,×,6,2 × 6,neutral,smallerFirst,1.5,1.5,12,,,,,,,,
,,,,,,,,,,,,,,,772,2022-01-19_09h22.06.739,multiplicationStroop,2021.2.3,MacIntel,52.63157895,,,,,,,,,,,,,,,,,,,,,,,,,,,,,,,,,45,1.227,1,0,17,17,24,1,9,×,5,9 × 5,neutral,largerFirst,1.5,1.5,45,,,,,,,,
,,,,,,,,,,,,,,,772,2022-01-19_09h22.06.739,multiplicationStroop,2021.2.3,MacIntel,52.63157895,,,,,,,,,,,,,,,,,,,,,,,,,,,,,,,,,18,1.254,1,0,18,18,4,1,2,×,9,2 × 9,neutral,smallerFirst,1.5,1.5,18,,,,,,,,
,,,,,,,,,,,,,,,772,2022-01-19_09h22.06.739,multiplicationStroop,2021.2.3,MacIntel,52.63157895,,,,,,,,,,,,,,,,,,,,,,,,,,,,,,,,,35,1.356,1,0,19,19,15,1,7,×,5,7 × 5,neutral,largerFirst,1.5,1.5,35,,,,,,,,
,,,,,,,,,,,,,,,772,2022-01-19_09h22.06.739,multiplicationStroop,2021.2.3,MacIntel,52.63157895,,,,,,,,,,,,,,,,,,,,,,,,,,,,,,,,,15,1.18,1,0,20,20,19,1,5,×,3,5 × 3,neutral,largerFirst,1.5,1.5,15,,,,,,,,
,,,,,,,,,,,,,,,772,2022-01-19_09h22.06.739,multiplicationStroop,2021.2.3,MacIntel,52.63157895,,,,,,,,,,,,,,,,,,,,,,,,,,,,,,,,,63,1.5,1,0,21,21,26,1,9,×,7,9 × 7,neutral,largerFirst,1.5,1.5,63,,,,,,,,
,,,,,,,,,,,,,,,772,2022-01-19_09h22.06.739,multiplicationStroop,2021.2.3,MacIntel,52.63157895,,,,,,,,,,,,,,,,,,,,,,,,,,,,,,,,,16,1.282,1,0,22,22,27,1,8,×,2,8 × 2,neutral,largerFirst,1.5,1.5,16,,,,,,,,
,,,,,,,,,,,,,,,772,2022-01-19_09h22.06.739,multiplicationStroop,2021.2.3,MacIntel,52.63157895,,,,,,,,,,,,,,,,,,,,,,,,,,,,,,,,,10,1.179,1,0,23,23,18,1,5,×,2,5 × 2,neutral,largerFirst,1.5,1.5,10,,,,,,,,
,,,,,,,,,,,,,,,772,2022-01-19_09h22.06.739,multiplicationStroop,2021.2.3,MacIntel,52.63157895,,,,,,,,,,,,,,,,,,,,,,,,,,,,,,,,,21,1.16,1,0,24,24,22,1,7,×,3,7 × 3,neutral,largerFirst,1.5,1.5,21,,,,,,,,
,,,,,,,,,,,,,,,772,2022-01-19_09h22.06.739,multiplicationStroop,2021.2.3,MacIntel,52.63157895,,,,,,,,,,,,,,,,,,,,,,,,,,,,,,,,,32,2.332,1,0,25,25,9,1,4,×,8,4 × 8,neutral,smallerFirst,1.5,1.5,32,,,,,,,,
,,,,,,,,,,,,,,,772,2022-01-19_09h22.06.739,multiplicationStroop,2021.2.3,MacIntel,52.63157895,,,,,,,,,,,,,,,,,,,,,,,,,,,,,,,,,81,2.232,1,0,26,26,35,1,9,×,9,9 × 9,neutral,tie,1.5,1.5,81,,,,,,,,
,,,,,,,,,,,,,,,772,2022-01-19_09h22.06.739,multiplicationStroop,2021.2.3,MacIntel,52.63157895,,,,,,,,,,,,,,,,,,,,,,,,,,,,,,,,,72,2.94,1,0,27,27,25,1,9,×,8,9 × 8,neutral,largerFirst,1.5,1.5,72,,,,,,,,
,,,,,,,,,,,,,,,772,2022-01-19_09h22.06.739,multiplicationStroop,2021.2.3,MacIntel,52.63157895,,,,,,,,,,,,,,,,,,,,,,,,,,,,,,,,,40,1.861,1,0,28,28,10,1,5,×,8,5 × 8,neutral,smallerFirst,1.5,1.5,40,,,,,,,,
,,,,,,,,,,,,,,,772,2022-01-19_09h22.06.739,multiplicationStroop,2021.2.3,MacIntel,52.63157895,,,,,,,,,,,,,,,,,,,,,,,,,,,,,,,,,56,1.518,1,0,29,29,23,1,8,×,7,8 × 7,neutral,largerFirst,1.5,1.5,56,,,,,,,,
,,,,,,,,,,,,,,,772,2022-01-19_09h22.06.739,multiplicationStroop,2021.2.3,MacIntel,52.63157895,,,,,,,,,,,,,,,,,,,,,,,,,,,,,,,,,54,2.103,1,0,30,30,21,1,9,×,6,9 × 6,neutral,largerFirst,1.5,1.5,54,,,,,,,,
,,,,,,,,,,,,,,,772,2022-01-19_09h22.06.739,multiplicationStroop,2021.2.3,MacIntel,52.63157895,,,,,,,,,,,,,,,,,,,,,,,,,,,,,,,,,64,1.704,1,0,31,31,34,1,8,×,8,8 × 8,neutral,tie,1.5,1.5,64,,,,,,,,
,,,,,,,,,,,,,,,772,2022-01-19_09h22.06.739,multiplicationStroop,2021.2.3,MacIntel,52.63157895,,,,,,,,,,,,,,,,,,,,,,,,,,,,,,,,,8,1.872,1,0,32,32,17,1,4,×,2,4 × 2,neutral,largerFirst,1.5,1.5,8,,,,,,,,
,,,,,,,,,,,,,,,772,2022-01-19_09h22.06.739,multiplicationStroop,2021.2.3,MacIntel,52.63157895,,,,,,,,,,,,,,,,,,,,,,,,,,,,,,,,,20,1.2,1,0,33,33,6,1,4,×,5,4 × 5,neutral,smallerFirst,1.5,1.5,20,,,,,,,,
,,,,,,,,,,,,,,,772,2022-01-19_09h22.06.739,multiplicationStroop,2021.2.3,MacIntel,52.63157895,,,,,,,,,,,,,,,,,,,,,,,,,,,,,,,,,16,1.165,1,0,34,34,30,1,4,×,4,4 × 4,neutral,tie,1.5,1.5,16,,,,,,,,
,,,,,,,,,,,,,,,772,2022-01-19_09h22.06.739,multiplicationStroop,2021.2.3,MacIntel,52.63157895,,,,,,,,,,,,,,,,,,,,,,,,,,,,,,,,,24,1.263,1,0,35,35,8,1,3,×,8,3 × 8,neutral,smallerFirst,1.5,1.5,24,,,,,,,,
,,,,,,,,,,,,,,,772,2022-01-19_09h22.06.739,multiplicationStroop,2021.2.3,MacIntel,52.63157895,,,,,,,,,,,,,,,,,,,,,,,,,,,,,,,,,,,,,,,,,,,,,,,,,,0,5,5,0,1,stimulusFile/mult_blk1.xlsx,,
,,,,,,,,,,,,,,,772,2022-01-19_09h22.06.739,multiplicationStroop,2021.2.3,MacIntel,52.63157895,,,,,,,,,,,,,,,,,,,,,,,,,,,,,,,,,,,,,,,,,,,,,,,,,,,,,,,,space,29.258