welcomeKey_resp.keys,welcomeKey_resp.rt,X Scale,Y Scale,rt_resp_4.keys,rt_resp_4.corr,rt_resp_4.rt,speedtest_2.thisRepN,speedtest_2.thisTrialN,speedtest_2.thisN,speedtest_2.thisIndex,speedtest_2.ran,numberSc,posX,positionLayout,participant,date,expName,psychopyVersion,OS,frameRate,ct_instrresp.keys,ct_instrresp.rt,key_resp_2.keys,key_resp_2.rt,ct_keyResp.keys,ct_keyResp.corr,ct_keyResp.rt,trials.thisRepN,trials.thisTrialN,trials.thisN,trials.thisIndex,trials.ran,leftNo,rightNo,displayProblem,numDistance,leftNo_size,rightNo_size,Dims,keyAnswer,TS_Loop.thisRepN,TS_Loop.thisTrialN,TS_Loop.thisN,TS_Loop.thisIndex,TS_Loop.ran,Condition,ActionInst,instrImage,mltptaskInst_resp.keys,mltptaskInst_resp.rt,continue_resp_2.keys,continue_resp_2.rt,multp_Answer,multi_RT,multiplyCorr,LoopingMultiply.thisRepN,LoopingMultiply.thisTrialN,LoopingMultiply.thisN,LoopingMultiply.thisIndex,LoopingMultiply.ran,factor1,multiplySign,factor2,multliplyProblem,physicalSize,orderOperand,sizeF1,sizeF2,mult_answer,trials_stroop.thisRepN,trials_stroop.thisTrialN,trials_stroop.thisN,trials_stroop.thisIndex,trials_stroop.ran,multiplicationFile,esckey_resp_2.keys,esckey_resp_2.rt
y,1.8352,54.5,48.5,right,1,0.6765,0,0,0,9,1,2,200,right,773,2022-01-19_18h03.29.405,multiplicationStroop,2021.2.3,Win32,59.55926147,,,,,,,,,,,,,,,,,,,,,,,,,,,,,,,,,,,,,,,,,,,,,,,,,,,,,,,,,
,,,,left,1,0.4057,0,1,1,5,1,7,-200,left,773,2022-01-19_18h03.29.405,multiplicationStroop,2021.2.3,Win32,59.55926147,,,,,,,,,,,,,,,,,,,,,,,,,,,,,,,,,,,,,,,,,,,,,,,,,,,,,,,,,
,,,,left,1,0.7552,0,2,2,3,1,4,-200,left,773,2022-01-19_18h03.29.405,multiplicationStroop,2021.2.3,Win32,59.55926147,,,,,,,,,,,,,,,,,,,,,,,,,,,,,,,,,,,,,,,,,,,,,,,,,,,,,,,,,
,,,,left,1,0.3613,0,3,3,7,1,9,-200,left,773,2022-01-19_18h03.29.405,multiplicationStroop,2021.2.3,Win32,59.55926147,,,,,,,,,,,,,,,,,,,,,,,,,,,,,,,,,,,,,,,,,,,,,,,,,,,,,,,,,
,,,,right,1,0.4168,0,4,4,10,1,3,200,right,773,2022-01-19_18h03.29.405,multiplicationStroop,2021.2.3,Win32,59.55926147,,,,,,,,,,,,,,,,,,,,,,,,,,,,,,,,,,,,,,,,,,,,,,,,,,,,,,,,,
,,,,right,1,0.3835,0,5,5,14,1,8,200,right,773,2022-01-19_18h03.29.405,multiplicationStroop,2021.2.3,Win32,59.55926147,,,,,,,,,,,,,,,,,,,,,,,,,,,,,,,,,,,,,,,,,,,,,,,,,,,,,,,,,
,,,,right,1,0.274,0,6,6,8,1,1,200,right,773,2022-01-19_18h03.29.405,multiplicationStroop,2021.2.3,Win32,59.55926147,,,,,,,,,,,,,,,,,,,,,,,,,,,,,,,,,,,,,,,,,,,,,,,,,,,,,,,,,
,,,,left,1,0.3625,0,7,7,6,1,8,-200,left,773,2022-01-19_18h03.29.405,multiplicationStroop,2021.2.3,Win32,59.55926147,,,,,,,,,,,,,,,,,,,,,,,,,,,,,,,,,,,,,,,,,,,,,,,,,,,,,,,,,
,,,,left,1,0.3333,0,8,8,4,1,6,-200,left,773,2022-01-19_18h03.29.405,multiplicationStroop,2021.2.3,Win32,59.55926147,,,,,,,,,,,,,,,,,,,,,,,,,,,,,,,,,,,,,,,,,,,,,,,,,,,,,,,,,
,,,,left,1,0.3492,0,9,9,0,1,1,-200,left,773,2022-01-19_18h03.29.405,multiplicationStroop,2021.2.3,Win32,59.55926147,,,,,,,,,,,,,,,,,,,,,,,,,,,,,,,,,,,,,,,,,,,,,,,,,,,,,,,,,
,,,,left,1,0.3172,0,10,10,1,1,2,-200,left,773,2022-01-19_18h03.29.405,multiplicationStroop,2021.2.3,Win32,59.55926147,,,,,,,,,,,,,,,,,,,,,,,,,,,,,,,,,,,,,,,,,,,,,,,,,,,,,,,,,
,,,,right,1,0.3249,0,11,11,11,1,4,200,right,773,2022-01-19_18h03.29.405,multiplicationStroop,2021.2.3,Win32,59.55926147,,,,,,,,,,,,,,,,,,,,,,,,,,,,,,,,,,,,,,,,,,,,,,,,,,,,,,,,,
,,,,left,1,0.347,0,12,12,2,1,3,-200,left,773,2022-01-19_18h03.29.405,multiplicationStroop,2021.2.3,Win32,59.55926147,,,,,,,,,,,,,,,,,,,,,,,,,,,,,,,,,,,,,,,,,,,,,,,,,,,,,,,,,
,,,,right,1,0.3007,0,13,13,12,1,6,200,right,773,2022-01-19_18h03.29.405,multiplicationStroop,2021.2.3,Win32,59.55926147,,,,,,,,,,,,,,,,,,,,,,,,,,,,,,,,,,,,,,,,,,,,,,,,,,,,,,,,,
,,,,right,1,0.3759,0,14,14,15,1,9,200,right,773,2022-01-19_18h03.29.405,multiplicationStroop,2021.2.3,Win32,59.55926147,,,,,,,,,,,,,,,,,,,,,,,,,,,,,,,,,,,,,,,,,,,,,,,,,,,,,,,,,
,,,,right,1,0.3013,0,15,15,13,1,7,200,right,773,2022-01-19_18h03.29.405,multiplicationStroop,2021.2.3,Win32,59.55926147,,,,,,,,,,,,,,,,,,,,,,,,,,,,,,,,,,,,,,,,,,,,,,,,,,,,,,,,,
,,,,right,1,0.3248,1,0,16,13,1,7,200,right,773,2022-01-19_18h03.29.405,multiplicationStroop,2021.2.3,Win32,59.55926147,,,,,,,,,,,,,,,,,,,,,,,,,,,,,,,,,,,,,,,,,,,,,,,,,,,,,,,,,
,,,,left,1,0.4085,1,1,17,5,1,7,-200,left,773,2022-01-19_18h03.29.405,multiplicationStroop,2021.2.3,Win32,59.55926147,,,,,,,,,,,,,,,,,,,,,,,,,,,,,,,,,,,,,,,,,,,,,,,,,,,,,,,,,
,,,,left,1,0.3849,1,2,18,7,1,9,-200,left,773,2022-01-19_18h03.29.405,multiplicationStroop,2021.2.3,Win32,59.55926147,,,,,,,,,,,,,,,,,,,,,,,,,,,,,,,,,,,,,,,,,,,,,,,,,,,,,,,,,
,,,,left,1,0.3141,1,3,19,3,1,4,-200,left,773,2022-01-19_18h03.29.405,multiplicationStroop,2021.2.3,Win32,59.55926147,,,,,,,,,,,,,,,,,,,,,,,,,,,,,,,,,,,,,,,,,,,,,,,,,,,,,,,,,
,,,,right,1,0.4231,1,4,20,11,1,4,200,right,773,2022-01-19_18h03.29.405,multiplicationStroop,2021.2.3,Win32,59.55926147,,,,,,,,,,,,,,,,,,,,,,,,,,,,,,,,,,,,,,,,,,,,,,,,,,,,,,,,,
,,,,left,1,0.3561,1,5,21,4,1,6,-200,left,773,2022-01-19_18h03.29.405,multiplicationStroop,2021.2.3,Win32,59.55926147,,,,,,,,,,,,,,,,,,,,,,,,,,,,,,,,,,,,,,,,,,,,,,,,,,,,,,,,,
,,,,right,1,0.2988,1,6,22,9,1,2,200,right,773,2022-01-19_18h03.29.405,multiplicationStroop,2021.2.3,Win32,59.55926147,,,,,,,,,,,,,,,,,,,,,,,,,,,,,,,,,,,,,,,,,,,,,,,,,,,,,,,,,
,,,,right,1,0.3179,1,7,23,8,1,1,200,right,773,2022-01-19_18h03.29.405,multiplicationStroop,2021.2.3,Win32,59.55926147,,,,,,,,,,,,,,,,,,,,,,,,,,,,,,,,,,,,,,,,,,,,,,,,,,,,,,,,,
,,,,right,1,0.331,1,8,24,10,1,3,200,right,773,2022-01-19_18h03.29.405,multiplicationStroop,2021.2.3,Win32,59.55926147,,,,,,,,,,,,,,,,,,,,,,,,,,,,,,,,,,,,,,,,,,,,,,,,,,,,,,,,,
,,,,left,1,0.3586,1,9,25,1,1,2,-200,left,773,2022-01-19_18h03.29.405,multiplicationStroop,2021.2.3,Win32,59.55926147,,,,,,,,,,,,,,,,,,,,,,,,,,,,,,,,,,,,,,,,,,,,,,,,,,,,,,,,,
,,,,left,1,0.3537,1,10,26,2,1,3,-200,left,773,2022-01-19_18h03.29.405,multiplicationStroop,2021.2.3,Win32,59.55926147,,,,,,,,,,,,,,,,,,,,,,,,,,,,,,,,,,,,,,,,,,,,,,,,,,,,,,,,,
,,,,right,1,0.408,1,11,27,14,1,8,200,right,773,2022-01-19_18h03.29.405,multiplicationStroop,2021.2.3,Win32,59.55926147,,,,,,,,,,,,,,,,,,,,,,,,,,,,,,,,,,,,,,,,,,,,,,,,,,,,,,,,,
,,,,right,1,0.3512,1,12,28,15,1,9,200,right,773,2022-01-19_18h03.29.405,multiplicationStroop,2021.2.3,Win32,59.55926147,,,,,,,,,,,,,,,,,,,,,,,,,,,,,,,,,,,,,,,,,,,,,,,,,,,,,,,,,
,,,,right,0,0.3351,1,13,29,6,1,8,-200,left,773,2022-01-19_18h03.29.405,multiplicationStroop,2021.2.3,Win32,59.55926147,,,,,,,,,,,,,,,,,,,,,,,,,,,,,,,,,,,,,,,,,,,,,,,,,,,,,,,,,
,,,,left,1,0.5055,1,14,30,0,1,1,-200,left,773,2022-01-19_18h03.29.405,multiplicationStroop,2021.2.3,Win32,59.55926147,,,,,,,,,,,,,,,,,,,,,,,,,,,,,,,,,,,,,,,,,,,,,,,,,,,,,,,,,
,,,,right,1,0.3825,1,15,31,12,1,6,200,right,773,2022-01-19_18h03.29.405,multiplicationStroop,2021.2.3,Win32,59.55926147,,,,,,,,,,,,,,,,,,,,,,,,,,,,,,,,,,,,,,,,,,,,,,,,,,,,,,,,,
,,,,left,1,0.344,2,0,32,3,1,4,-200,left,773,2022-01-19_18h03.29.405,multiplicationStroop,2021.2.3,Win32,59.55926147,,,,,,,,,,,,,,,,,,,,,,,,,,,,,,,,,,,,,,,,,,,,,,,,,,,,,,,,,
,,,,right,1,0.4587,2,1,33,14,1,8,200,right,773,2022-01-19_18h03.29.405,multiplicationStroop,2021.2.3,Win32,59.55926147,,,,,,,,,,,,,,,,,,,,,,,,,,,,,,,,,,,,,,,,,,,,,,,,,,,,,,,,,
,,,,right,1,0.3148,2,2,34,11,1,4,200,right,773,2022-01-19_18h03.29.405,multiplicationStroop,2021.2.3,Win32,59.55926147,,,,,,,,,,,,,,,,,,,,,,,,,,,,,,,,,,,,,,,,,,,,,,,,,,,,,,,,,
,,,,right,1,0.3041,2,3,35,15,1,9,200,right,773,2022-01-19_18h03.29.405,multiplicationStroop,2021.2.3,Win32,59.55926147,,,,,,,,,,,,,,,,,,,,,,,,,,,,,,,,,,,,,,,,,,,,,,,,,,,,,,,,,
,,,,right,1,0.3337,2,4,36,10,1,3,200,right,773,2022-01-19_18h03.29.405,multiplicationStroop,2021.2.3,Win32,59.55926147,,,,,,,,,,,,,,,,,,,,,,,,,,,,,,,,,,,,,,,,,,,,,,,,,,,,,,,,,
,,,,left,1,0.3686,2,5,37,1,1,2,-200,left,773,2022-01-19_18h03.29.405,multiplicationStroop,2021.2.3,Win32,59.55926147,,,,,,,,,,,,,,,,,,,,,,,,,,,,,,,,,,,,,,,,,,,,,,,,,,,,,,,,,
,,,,right,1,0.3365,2,6,38,9,1,2,200,right,773,2022-01-19_18h03.29.405,multiplicationStroop,2021.2.3,Win32,59.55926147,,,,,,,,,,,,,,,,,,,,,,,,,,,,,,,,,,,,,,,,,,,,,,,,,,,,,,,,,
,,,,left,1,0.4058,2,7,39,0,1,1,-200,left,773,2022-01-19_18h03.29.405,multiplicationStroop,2021.2.3,Win32,59.55926147,,,,,,,,,,,,,,,,,,,,,,,,,,,,,,,,,,,,,,,,,,,,,,,,,,,,,,,,,
,,,,right,1,0.3397,2,8,40,8,1,1,200,right,773,2022-01-19_18h03.29.405,multiplicationStroop,2021.2.3,Win32,59.55926147,,,,,,,,,,,,,,,,,,,,,,,,,,,,,,,,,,,,,,,,,,,,,,,,,,,,,,,,,
,,,,left,1,0.4208,2,9,41,7,1,9,-200,left,773,2022-01-19_18h03.29.405,multiplicationStroop,2021.2.3,Win32,59.55926147,,,,,,,,,,,,,,,,,,,,,,,,,,,,,,,,,,,,,,,,,,,,,,,,,,,,,,,,,
,,,,left,1,0.3669,2,10,42,5,1,7,-200,left,773,2022-01-19_18h03.29.405,multiplicationStroop,2021.2.3,Win32,59.55926147,,,,,,,,,,,,,,,,,,,,,,,,,,,,,,,,,,,,,,,,,,,,,,,,,,,,,,,,,
,,,,left,1,0.3685,2,11,43,6,1,8,-200,left,773,2022-01-19_18h03.29.405,multiplicationStroop,2021.2.3,Win32,59.55926147,,,,,,,,,,,,,,,,,,,,,,,,,,,,,,,,,,,,,,,,,,,,,,,,,,,,,,,,,
,,,,left,1,0.3548,2,12,44,4,1,6,-200,left,773,2022-01-19_18h03.29.405,multiplicationStroop,2021.2.3,Win32,59.55926147,,,,,,,,,,,,,,,,,,,,,,,,,,,,,,,,,,,,,,,,,,,,,,,,,,,,,,,,,
,,,,right,1,0.4023,2,13,45,12,1,6,200,right,773,2022-01-19_18h03.29.405,multiplicationStroop,2021.2.3,Win32,59.55926147,,,,,,,,,,,,,,,,,,,,,,,,,,,,,,,,,,,,,,,,,,,,,,,,,,,,,,,,,
,,,,right,1,0.3486,2,14,46,13,1,7,200,right,773,2022-01-19_18h03.29.405,multiplicationStroop,2021.2.3,Win32,59.55926147,,,,,,,,,,,,,,,,,,,,,,,,,,,,,,,,,,,,,,,,,,,,,,,,,,,,,,,,,
,,,,right,0,0.3517,2,15,47,2,1,3,-200,left,773,2022-01-19_18h03.29.405,multiplicationStroop,2021.2.3,Win32,59.55926147,,,,,,,,,,,,,,,,,,,,,,,,,,,,,,,,,,,,,,,,,,,,,,,,,,,,,,,,,
,,,,right,1,0.5055,3,0,48,8,1,1,200,right,773,2022-01-19_18h03.29.405,multiplicationStroop,2021.2.3,Win32,59.55926147,,,,,,,,,,,,,,,,,,,,,,,,,,,,,,,,,,,,,,,,,,,,,,,,,,,,,,,,,
,,,,left,1,0.3864,3,1,49,0,1,1,-200,left,773,2022-01-19_18h03.29.405,multiplicationStroop,2021.2.3,Win32,59.55926147,,,,,,,,,,,,,,,,,,,,,,,,,,,,,,,,,,,,,,,,,,,,,,,,,,,,,,,,,
,,,,right,1,0.3836,3,2,50,10,1,3,200,right,773,2022-01-19_18h03.29.405,multiplicationStroop,2021.2.3,Win32,59.55926147,,,,,,,,,,,,,,,,,,,,,,,,,,,,,,,,,,,,,,,,,,,,,,,,,,,,,,,,,
,,,,right,1,0.3947,3,3,51,13,1,7,200,right,773,2022-01-19_18h03.29.405,multiplicationStroop,2021.2.3,Win32,59.55926147,,,,,,,,,,,,,,,,,,,,,,,,,,,,,,,,,,,,,,,,,,,,,,,,,,,,,,,,,
,,,,left,1,0.4555,3,4,52,5,1,7,-200,left,773,2022-01-19_18h03.29.405,multiplicationStroop,2021.2.3,Win32,59.55926147,,,,,,,,,,,,,,,,,,,,,,,,,,,,,,,,,,,,,,,,,,,,,,,,,,,,,,,,,
,,,,right,1,0.3379,3,5,53,9,1,2,200,right,773,2022-01-19_18h03.29.405,multiplicationStroop,2021.2.3,Win32,59.55926147,,,,,,,,,,,,,,,,,,,,,,,,,,,,,,,,,,,,,,,,,,,,,,,,,,,,,,,,,
,,,,right,1,0.3336,3,6,54,14,1,8,200,right,773,2022-01-19_18h03.29.405,multiplicationStroop,2021.2.3,Win32,59.55926147,,,,,,,,,,,,,,,,,,,,,,,,,,,,,,,,,,,,,,,,,,,,,,,,,,,,,,,,,
,,,,right,1,0.35,3,7,55,11,1,4,200,right,773,2022-01-19_18h03.29.405,multiplicationStroop,2021.2.3,Win32,59.55926147,,,,,,,,,,,,,,,,,,,,,,,,,,,,,,,,,,,,,,,,,,,,,,,,,,,,,,,,,
,,,,left,1,0.3485,3,8,56,1,1,2,-200,left,773,2022-01-19_18h03.29.405,multiplicationStroop,2021.2.3,Win32,59.55926147,,,,,,,,,,,,,,,,,,,,,,,,,,,,,,,,,,,,,,,,,,,,,,,,,,,,,,,,,
,,,,left,1,0.3411,3,9,57,7,1,9,-200,left,773,2022-01-19_18h03.29.405,multiplicationStroop,2021.2.3,Win32,59.55926147,,,,,,,,,,,,,,,,,,,,,,,,,,,,,,,,,,,,,,,,,,,,,,,,,,,,,,,,,
,,,,left,1,0.31,3,10,58,4,1,6,-200,left,773,2022-01-19_18h03.29.405,multiplicationStroop,2021.2.3,Win32,59.55926147,,,,,,,,,,,,,,,,,,,,,,,,,,,,,,,,,,,,,,,,,,,,,,,,,,,,,,,,,
,,,,right,1,0.3746,3,11,59,15,1,9,200,right,773,2022-01-19_18h03.29.405,multiplicationStroop,2021.2.3,Win32,59.55926147,,,,,,,,,,,,,,,,,,,,,,,,,,,,,,,,,,,,,,,,,,,,,,,,,,,,,,,,,
,,,,right,1,0.362,3,12,60,12,1,6,200,right,773,2022-01-19_18h03.29.405,multiplicationStroop,2021.2.3,Win32,59.55926147,,,,,,,,,,,,,,,,,,,,,,,,,,,,,,,,,,,,,,,,,,,,,,,,,,,,,,,,,
,,,,left,1,0.4095,3,13,61,3,1,4,-200,left,773,2022-01-19_18h03.29.405,multiplicationStroop,2021.2.3,Win32,59.55926147,,,,,,,,,,,,,,,,,,,,,,,,,,,,,,,,,,,,,,,,,,,,,,,,,,,,,,,,,
,,,,left,1,0.3645,3,14,62,2,1,3,-200,left,773,2022-01-19_18h03.29.405,multiplicationStroop,2021.2.3,Win32,59.55926147,,,,,,,,,,,,,,,,,,,,,,,,,,,,,,,,,,,,,,,,,,,,,,,,,,,,,,,,,
,,,,left,1,0.332,3,15,63,6,1,8,-200,left,773,2022-01-19_18h03.29.405,multiplicationStroop,2021.2.3,Win32,59.55926147,,,,,,,,,,,,,,,,,,,,,,,,,,,,,,,,,,,,,,,,,,,,,,,,,,,,,,,,,
,,,,,,,,,,,,,,,773,2022-01-19_18h03.29.405,multiplicationStroop,2021.2.3,Win32,59.55926147,space,1.7013,space,3.2576,left,1,0.8726,0,0,0,43,1,4,9,4 | 9,5,1.9756,1.4111,incongruent,left,,,,,,stimulusFile/physical.xlsx,,,,,,,,,,,,,,,,,,,,,,,,,,,,,,,
,,,,,,,,,,,,,,,773,2022-01-19_18h03.29.405,multiplicationStroop,2021.2.3,Win32,59.55926147,,,,,right,0,0.4781,0,1,1,69,1,7,7,7 | 7,0,1.4111,1.9756,neutral,left,,,,,,stimulusFile/physical.xlsx,,,,,,,,,,,,,,,,,,,,,,,,,,,,,,,
,,,,,,,,,,,,,,,773,2022-01-19_18h03.29.405,multiplicationStroop,2021.2.3,Win32,59.55926147,,,,,left,1,0.4204,0,2,2,23,1,9,4,9 | 4,5,1.9756,1.4111,congruent,left,,,,,,stimulusFile/physical.xlsx,,,,,,,,,,,,,,,,,,,,,,,,,,,,,,,
,,,,,,,,,,,,,,,773,2022-01-19_18h03.29.405,multiplicationStroop,2021.2.3,Win32,59.55926147,,,,,left,1,0.5324,0,3,3,33,1,2,4,2 | 4,2,1.9756,1.4111,incongruent,left,,,,,,stimulusFile/physical.xlsx,,,,,,,,,,,,,,,,,,,,,,,,,,,,,,,
,,,,,,,,,,,,,,,773,2022-01-19_18h03.29.405,multiplicationStroop,2021.2.3,Win32,59.55926147,,,,,right,1,0.4863,0,4,4,10,1,6,8,6 | 8,2,1.4111,1.9756,congruent,right,,,,,,stimulusFile/physical.xlsx,,,,,,,,,,,,,,,,,,,,,,,,,,,,,,,
,,,,,,,,,,,,,,,773,2022-01-19_18h03.29.405,multiplicationStroop,2021.2.3,Win32,59.55926147,,,,,right,1,0.6633,0,5,5,63,1,9,9,9 | 9,0,1.4111,1.9756,neutral,right,,,,,,stimulusFile/physical.xlsx,,,,,,,,,,,,,,,,,,,,,,,,,,,,,,,
,,,,,,,,,,,,,,,773,2022-01-19_18h03.29.405,multiplicationStroop,2021.2.3,Win32,59.55926147,,,,,left,1,0.534,0,6,6,52,1,2,2,2 | 2,0,1.9756,1.4111,neutral,left,,,,,,stimulusFile/physical.xlsx,,,,,,,,,,,,,,,,,,,,,,,,,,,,,,,
,,,,,,,,,,,,,,,773,2022-01-19_18h03.29.405,multiplicationStroop,2021.2.3,Win32,59.55926147,,,,,left,1,0.5495,0,7,7,42,1,3,8,3 | 8,5,1.9756,1.4111,incongruent,left,,,,,,stimulusFile/physical.xlsx,,,,,,,,,,,,,,,,,,,,,,,,,,,,,,,
,,,,,,,,,,,,,,,773,2022-01-19_18h03.29.405,multiplicationStroop,2021.2.3,Win32,59.55926147,,,,,right,1,0.4534,0,8,8,19,1,4,9,4 | 9,5,1.4111,1.9756,congruent,right,,,,,,stimulusFile/physical.xlsx,,,,,,,,,,,,,,,,,,,,,,,,,,,,,,,
,,,,,,,,,,,,,,,773,2022-01-19_18h03.29.405,multiplicationStroop,2021.2.3,Win32,59.55926147,,,,,left,1,0.458,0,9,9,54,1,7,7,7 | 7,0,1.9756,1.4111,neutral,left,,,,,,stimulusFile/physical.xlsx,,,,,,,,,,,,,,,,,,,,,,,,,,,,,,,
,,,,,,,,,,,,,,,773,2022-01-19_18h03.29.405,multiplicationStroop,2021.2.3,Win32,59.55926147,,,,,left,1,0.5514,0,10,10,22,1,8,3,8 | 3,5,1.9756,1.4111,congruent,left,,,,,,stimulusFile/physical.xlsx,,,,,,,,,,,,,,,,,,,,,,,,,,,,,,,
,,,,,,,,,,,,,,,773,2022-01-19_18h03.29.405,multiplicationStroop,2021.2.3,Win32,59.55926147,,,,,right,1,0.5346,0,11,11,1,1,3,4,3 | 4,1,1.4111,1.9756,congruent,right,,,,,,stimulusFile/physical.xlsx,,,,,,,,,,,,,,,,,,,,,,,,,,,,,,,
,,,,,,,,,,,,,,,773,2022-01-19_18h03.29.405,multiplicationStroop,2021.2.3,Win32,59.55926147,,,,,left,1,0.5803,0,12,12,12,1,3,1,3 | 1,2,1.9756,1.4111,congruent,left,,,,,,stimulusFile/physical.xlsx,,,,,,,,,,,,,,,,,,,,,,,,,,,,,,,
,,,,,,,,,,,,,,,773,2022-01-19_18h03.29.405,multiplicationStroop,2021.2.3,Win32,59.55926147,,,,,left,1,0.5312,0,13,13,15,1,9,7,9 | 7,2,1.9756,1.4111,congruent,left,,,,,,stimulusFile/physical.xlsx,,,,,,,,,,,,,,,,,,,,,,,,,,,,,,,
,,,,,,,,,,,,,,,773,2022-01-19_18h03.29.405,multiplicationStroop,2021.2.3,Win32,59.55926147,,,,,right,1,0.4909,0,14,14,9,1,2,4,2 | 4,2,1.4111,1.9756,congruent,right,,,,,,stimulusFile/physical.xlsx,,,,,,,,,,,,,,,,,,,,,,,,,,,,,,,
,,,,,,,,,,,,,,,773,2022-01-19_18h03.29.405,multiplicationStroop,2021.2.3,Win32,59.55926147,,,,,right,1,0.6875,0,15,15,65,1,2,2,2 | 2,0,1.4111,1.9756,neutral,right,,,,,,stimulusFile/physical.xlsx,,,,,,,,,,,,,,,,,,,,,,,,,,,,,,,
,,,,,,,,,,,,,,,773,2022-01-19_18h03.29.405,multiplicationStroop,2021.2.3,Win32,59.55926147,,,,,left,1,0.4914,0,16,16,25,1,3,4,3 | 4,1,1.9756,1.4111,incongruent,left,,,,,,stimulusFile/physical.xlsx,,,,,,,,,,,,,,,,,,,,,,,,,,,,,,,
,,,,,,,,,,,,,,,773,2022-01-19_18h03.29.405,multiplicationStroop,2021.2.3,Win32,59.55926147,,,,,left,1,0.6017,0,17,17,55,1,9,9,9 | 9,0,1.9756,1.4111,neutral,left,,,,,,stimulusFile/physical.xlsx,,,,,,,,,,,,,,,,,,,,,,,,,,,,,,,
,,,,,,,,,,,,,,,773,2022-01-19_18h03.29.405,multiplicationStroop,2021.2.3,Win32,59.55926147,,,,,right,1,0.4152,0,18,18,17,1,2,7,2 | 7,5,1.4111,1.9756,congruent,right,,,,,,stimulusFile/physical.xlsx,,,,,,,,,,,,,,,,,,,,,,,,,,,,,,,
,,,,,,,,,,,,,,,773,2022-01-19_18h03.29.405,multiplicationStroop,2021.2.3,Win32,59.55926147,,,,,right,1,0.6134,0,19,19,46,1,8,3,8 | 3,5,1.4111,1.9756,incongruent,right,,,,,,stimulusFile/physical.xlsx,,,,,,,,,,,,,,,,,,,,,,,,,,,,,,,
,,,,,,,,,,,,,,,773,2022-01-19_18h03.29.405,multiplicationStroop,2021.2.3,Win32,59.55926147,,,,,left,1,0.5136,0,20,20,48,1,1,1,1 | 1,0,1.9756,1.4111,neutral,left,,,,,,stimulusFile/physical.xlsx,,,,,,,,,,,,,,,,,,,,,,,,,,,,,,,
,,,,,,,,,,,,,,,773,2022-01-19_18h03.29.405,multiplicationStroop,2021.2.3,Win32,59.55926147,,,,,right,1,0.4514,0,21,21,38,1,8,6,8 | 6,2,1.4111,1.9756,incongruent,right,,,,,,stimulusFile/physical.xlsx,,,,,,,,,,,,,,,,,,,,,,,,,,,,,,,
,,,,,,,,,,,,,,,773,2022-01-19_18h03.29.405,multiplicationStroop,2021.2.3,Win32,59.55926147,,,,,right,1,0.5369,0,22,22,0,1,1,2,1 | 2,1,1.4111,1.9756,congruent,right,,,,,,stimulusFile/physical.xlsx,,,,,,,,,,,,,,,,,,,,,,,,,,,,,,,
,,,,,,,,,,,,,,,773,2022-01-19_18h03.29.405,multiplicationStroop,2021.2.3,Win32,59.55926147,,,,,left,1,0.6367,0,23,23,40,1,1,6,1 | 6,5,1.9756,1.4111,incongruent,left,,,,,,stimulusFile/physical.xlsx,,,,,,,,,,,,,,,,,,,,,,,,,,,,,,,
,,,,,,,,,,,,,,,773,2022-01-19_18h03.29.405,multiplicationStroop,2021.2.3,Win32,59.55926147,,,,,right,1,0.4287,0,24,24,58,1,6,6,6 | 6,0,1.4111,1.9756,neutral,right,,,,,,stimulusFile/physical.xlsx,,,,,,,,,,,,,,,,,,,,,,,,,,,,,,,
,,,,,,,,,,,,,,,773,2022-01-19_18h03.29.405,multiplicationStroop,2021.2.3,Win32,59.55926147,,,,,left,1,0.4427,0,25,25,68,1,6,6,6 | 6,0,1.9756,1.4111,neutral,left,,,,,,stimulusFile/physical.xlsx,,,,,,,,,,,,,,,,,,,,,,,,,,,,,,,
,,,,,,,,,,,,,,,773,2022-01-19_18h03.29.405,multiplicationStroop,2021.2.3,Win32,59.55926147,,,,,left,1,0.7077,0,26,26,4,1,2,1,2 | 1,1,1.9756,1.4111,congruent,left,,,,,,stimulusFile/physical.xlsx,,,,,,,,,,,,,,,,,,,,,,,,,,,,,,,
,,,,,,,,,,,,,,,773,2022-01-19_18h03.29.405,multiplicationStroop,2021.2.3,Win32,59.55926147,,,,,right,0,0.6925,0,27,27,24,1,1,2,1 | 2,1,1.9756,1.4111,incongruent,left,,,,,,stimulusFile/physical.xlsx,,,,,,,,,,,,,,,,,,,,,,,,,,,,,,,
,,,,,,,,,,,,,,,773,2022-01-19_18h03.29.405,multiplicationStroop,2021.2.3,Win32,59.55926147,,,,,right,0,0.5856,0,28,28,71,1,9,9,9 | 9,0,1.4111,1.9756,neutral,left,,,,,,stimulusFile/physical.xlsx,,,,,,,,,,,,,,,,,,,,,,,,,,,,,,,
,,,,,,,,,,,,,,,773,2022-01-19_18h03.29.405,multiplicationStroop,2021.2.3,Win32,59.55926147,,,,,right,1,0.5957,0,29,29,8,1,1,3,1 | 3,2,1.4111,1.9756,congruent,right,,,,,,stimulusFile/physical.xlsx,,,,,,,,,,,,,,,,,,,,,,,,,,,,,,,
,,,,,,,,,,,,,,,773,2022-01-19_18h03.29.405,multiplicationStroop,2021.2.3,Win32,59.55926147,,,,,right,1,0.5054,0,30,30,61,1,4,4,4 | 4,0,1.4111,1.9756,neutral,right,,,,,,stimulusFile/physical.xlsx,,,,,,,,,,,,,,,,,,,,,,,,,,,,,,,
,,,,,,,,,,,,,,,773,2022-01-19_18h03.29.405,multiplicationStroop,2021.2.3,Win32,59.55926147,,,,,left,1,0.509,0,31,31,20,1,6,1,6 | 1,5,1.9756,1.4111,congruent,left,,,,,,stimulusFile/physical.xlsx,,,,,,,,,,,,,,,,,,,,,,,,,,,,,,,
,,,,,,,,,,,,,,,773,2022-01-19_18h03.29.405,multiplicationStroop,2021.2.3,Win32,59.55926147,,,,,right,1,0.5588,0,32,32,28,1,2,1,2 | 1,1,1.4111,1.9756,incongruent,right,,,,,,stimulusFile/physical.xlsx,,,,,,,,,,,,,,,,,,,,,,,,,,,,,,,
,,,,,,,,,,,,,,,773,2022-01-19_18h03.29.405,multiplicationStroop,2021.2.3,Win32,59.55926147,,,,,right,1,0.4715,0,33,33,39,1,9,7,9 | 7,2,1.4111,1.9756,incongruent,right,,,,,,stimulusFile/physical.xlsx,,,,,,,,,,,,,,,,,,,,,,,,,,,,,,,
,,,,,,,,,,,,,,,773,2022-01-19_18h03.29.405,multiplicationStroop,2021.2.3,Win32,59.55926147,,,,,left,0,0.6491,0,34,34,56,1,1,1,1 | 1,0,1.4111,1.9756,neutral,right,,,,,,stimulusFile/physical.xlsx,,,,,,,,,,,,,,,,,,,,,,,,,,,,,,,
,,,,,,,,,,,,,,,773,2022-01-19_18h03.29.405,multiplicationStroop,2021.2.3,Win32,59.55926147,,,,,left,0,0.6484,0,35,35,30,1,7,6,7 | 6,1,1.4111,1.9756,incongruent,right,,,,,,stimulusFile/physical.xlsx,,,,,,,,,,,,,,,,,,,,,,,,,,,,,,,
,,,,,,,,,,,,,,,773,2022-01-19_18h03.29.405,multiplicationStroop,2021.2.3,Win32,59.55926147,,,,,right,1,0.4915,0,36,36,2,1,6,7,6 | 7,1,1.4111,1.9756,congruent,right,,,,,,stimulusFile/physical.xlsx,,,,,,,,,,,,,,,,,,,,,,,,,,,,,,,
,,,,,,,,,,,,,,,773,2022-01-19_18h03.29.405,multiplicationStroop,2021.2.3,Win32,59.55926147,,,,,right,1,0.6641,0,37,37,16,1,1,6,1 | 6,5,1.4111,1.9756,congruent,right,,,,,,stimulusFile/physical.xlsx,,,,,,,,,,,,,,,,,,,,,,,,,,,,,,,
,,,,,,,,,,,,,,,773,2022-01-19_18h03.29.405,multiplicationStroop,2021.2.3,Win32,59.55926147,,,,,left,1,0.4725,0,38,38,5,1,4,3,4 | 3,1,1.9756,1.4111,congruent,left,,,,,,stimulusFile/physical.xlsx,,,,,,,,,,,,,,,,,,,,,,,,,,,,,,,
,,,,,,,,,,,,,,,773,2022-01-19_18h03.29.405,multiplicationStroop,2021.2.3,Win32,59.55926147,,,,,right,1,0.6994,0,39,39,36,1,3,1,3 | 1,2,1.4111,1.9756,incongruent,right,,,,,,stimulusFile/physical.xlsx,,,,,,,,,,,,,,,,,,,,,,,,,,,,,,,
,,,,,,,,,,,,,,,773,2022-01-19_18h03.29.405,multiplicationStroop,2021.2.3,Win32,59.55926147,,,,,right,1,0.6241,0,40,40,47,1,9,4,9 | 4,5,1.4111,1.9756,incongruent,right,,,,,,stimulusFile/physical.xlsx,,,,,,,,,,,,,,,,,,,,,,,,,,,,,,,
,,,,,,,,,,,,,,,773,2022-01-19_18h03.29.405,multiplicationStroop,2021.2.3,Win32,59.55926147,,,,,left,1,0.4811,0,41,41,50,1,6,6,6 | 6,0,1.9756,1.4111,neutral,left,,,,,,stimulusFile/physical.xlsx,,,,,,,,,,,,,,,,,,,,,,,,,,,,,,,
,,,,,,,,,,,,,,,773,2022-01-19_18h03.29.405,multiplicationStroop,2021.2.3,Win32,59.55926147,,,,,right,1,0.4559,0,42,42,57,1,2,2,2 | 2,0,1.4111,1.9756,neutral,right,,,,,,stimulusFile/physical.xlsx,,,,,,,,,,,,,,,,,,,,,,,,,,,,,,,
,,,,,,,,,,,,,,,773,2022-01-19_18h03.29.405,multiplicationStroop,2021.2.3,Win32,59.55926147,,,,,left,1,0.4796,0,43,43,21,1,7,2,7 | 2,5,1.9756,1.4111,congruent,left,,,,,,stimulusFile/physical.xlsx,,,,,,,,,,,,,,,,,,,,,,,,,,,,,,,
,,,,,,,,,,,,,,,773,2022-01-19_18h03.29.405,multiplicationStroop,2021.2.3,Win32,59.55926147,,,,,left,1,0.5301,0,44,44,7,1,9,8,9 | 8,1,1.9756,1.4111,congruent,left,,,,,,stimulusFile/physical.xlsx,,,,,,,,,,,,,,,,,,,,,,,,,,,,,,,
,,,,,,,,,,,,,,,773,2022-01-19_18h03.29.405,multiplicationStroop,2021.2.3,Win32,59.55926147,,,,,right,1,0.5113,0,45,45,11,1,7,9,7 | 9,2,1.4111,1.9756,congruent,right,,,,,,stimulusFile/physical.xlsx,,,,,,,,,,,,,,,,,,,,,,,,,,,,,,,
,,,,,,,,,,,,,,,773,2022-01-19_18h03.29.405,multiplicationStroop,2021.2.3,Win32,59.55926147,,,,,left,1,0.4631,0,46,46,26,1,6,7,6 | 7,1,1.9756,1.4111,incongruent,left,,,,,,stimulusFile/physical.xlsx,,,,,,,,,,,,,,,,,,,,,,,,,,,,,,,
,,,,,,,,,,,,,,,773,2022-01-19_18h03.29.405,multiplicationStroop,2021.2.3,Win32,59.55926147,,,,,right,1,0.478,0,47,47,3,1,8,9,8 | 9,1,1.4111,1.9756,congruent,right,,,,,,stimulusFile/physical.xlsx,,,,,,,,,,,,,,,,,,,,,,,,,,,,,,,
,,,,,,,,,,,,,,,773,2022-01-19_18h03.29.405,multiplicationStroop,2021.2.3,Win32,59.55926147,,,,,left,1,0.4513,0,48,48,70,1,8,8,8 | 8,0,1.9756,1.4111,neutral,left,,,,,,stimulusFile/physical.xlsx,,,,,,,,,,,,,,,,,,,,,,,,,,,,,,,
,,,,,,,,,,,,,,,773,2022-01-19_18h03.29.405,multiplicationStroop,2021.2.3,Win32,59.55926147,,,,,right,1,0.5071,0,49,49,60,1,3,3,3 | 3,0,1.4111,1.9756,neutral,right,,,,,,stimulusFile/physical.xlsx,,,,,,,,,,,,,,,,,,,,,,,,,,,,,,,
,,,,,,,,,,,,,,,773,2022-01-19_18h03.29.405,multiplicationStroop,2021.2.3,Win32,59.55926147,,,,,left,1,0.4208,0,50,50,41,1,2,7,2 | 7,5,1.9756,1.4111,incongruent,left,,,,,,stimulusFile/physical.xlsx,,,,,,,,,,,,,,,,,,,,,,,,,,,,,,,
,,,,,,,,,,,,,,,773,2022-01-19_18h03.29.405,multiplicationStroop,2021.2.3,Win32,59.55926147,,,,,right,1,0.4769,0,51,51,62,1,8,8,8 | 8,0,1.4111,1.9756,neutral,right,,,,,,stimulusFile/physical.xlsx,,,,,,,,,,,,,,,,,,,,,,,,,,,,,,,
,,,,,,,,,,,,,,,773,2022-01-19_18h03.29.405,multiplicationStroop,2021.2.3,Win32,59.55926147,,,,,left,0,0.4567,0,52,52,66,1,3,3,3 | 3,0,1.9756,1.4111,neutral,right,,,,,,stimulusFile/physical.xlsx,,,,,,,,,,,,,,,,,,,,,,,,,,,,,,,
,,,,,,,,,,,,,,,773,2022-01-19_18h03.29.405,multiplicationStroop,2021.2.3,Win32,59.55926147,,,,,right,1,0.4008,0,53,53,29,1,4,3,4 | 3,1,1.4111,1.9756,incongruent,right,,,,,,stimulusFile/physical.xlsx,,,,,,,,,,,,,,,,,,,,,,,,,,,,,,,
,,,,,,,,,,,,,,,773,2022-01-19_18h03.29.405,multiplicationStroop,2021.2.3,Win32,59.55926147,,,,,left,1,0.5302,0,54,54,32,1,1,3,1 | 3,2,1.9756,1.4111,incongruent,left,,,,,,stimulusFile/physical.xlsx,,,,,,,,,,,,,,,,,,,,,,,,,,,,,,,
,,,,,,,,,,,,,,,773,2022-01-19_18h03.29.405,multiplicationStroop,2021.2.3,Win32,59.55926147,,,,,left,1,0.5654,0,55,55,6,1,7,6,7 | 6,1,1.9756,1.4111,congruent,left,,,,,,stimulusFile/physical.xlsx,,,,,,,,,,,,,,,,,,,,,,,,,,,,,,,
,,,,,,,,,,,,,,,773,2022-01-19_18h03.29.405,multiplicationStroop,2021.2.3,Win32,59.55926147,,,,,left,0,0.6974,0,56,56,64,1,1,1,1 | 1,0,1.9756,1.4111,neutral,right,,,,,,stimulusFile/physical.xlsx,,,,,,,,,,,,,,,,,,,,,,,,,,,,,,,
,,,,,,,,,,,,,,,773,2022-01-19_18h03.29.405,multiplicationStroop,2021.2.3,Win32,59.55926147,,,,,right,1,0.4866,0,57,57,44,1,6,1,6 | 1,5,1.4111,1.9756,incongruent,right,,,,,,stimulusFile/physical.xlsx,,,,,,,,,,,,,,,,,,,,,,,,,,,,,,,
,,,,,,,,,,,,,,,773,2022-01-19_18h03.29.405,multiplicationStroop,2021.2.3,Win32,59.55926147,,,,,left,1,0.497,0,58,58,49,1,3,3,3 | 3,0,1.9756,1.4111,neutral,left,,,,,,stimulusFile/physical.xlsx,,,,,,,,,,,,,,,,,,,,,,,,,,,,,,,
,,,,,,,,,,,,,,,773,2022-01-19_18h03.29.405,multiplicationStroop,2021.2.3,Win32,59.55926147,,,,,left,1,0.5135,0,59,59,27,1,8,9,8 | 9,1,1.9756,1.4111,incongruent,left,,,,,,stimulusFile/physical.xlsx,,,,,,,,,,,,,,,,,,,,,,,,,,,,,,,
,,,,,,,,,,,,,,,773,2022-01-19_18h03.29.405,multiplicationStroop,2021.2.3,Win32,59.55926147,,,,,right,1,0.4667,0,60,60,18,1,3,8,3 | 8,5,1.4111,1.9756,congruent,right,,,,,,stimulusFile/physical.xlsx,,,,,,,,,,,,,,,,,,,,,,,,,,,,,,,
,,,,,,,,,,,,,,,773,2022-01-19_18h03.29.405,multiplicationStroop,2021.2.3,Win32,59.55926147,,,,,right,1,0.4799,0,61,61,59,1,7,7,7 | 7,0,1.4111,1.9756,neutral,right,,,,,,stimulusFile/physical.xlsx,,,,,,,,,,,,,,,,,,,,,,,,,,,,,,,
,,,,,,,,,,,,,,,773,2022-01-19_18h03.29.405,multiplicationStroop,2021.2.3,Win32,59.55926147,,,,,left,1,0.4458,0,62,62,13,1,4,2,4 | 2,2,1.9756,1.4111,congruent,left,,,,,,stimulusFile/physical.xlsx,,,,,,,,,,,,,,,,,,,,,,,,,,,,,,,
,,,,,,,,,,,,,,,773,2022-01-19_18h03.29.405,multiplicationStroop,2021.2.3,Win32,59.55926147,,,,,left,1,0.4345,0,63,63,51,1,8,8,8 | 8,0,1.9756,1.4111,neutral,left,,,,,,stimulusFile/physical.xlsx,,,,,,,,,,,,,,,,,,,,,,,,,,,,,,,
,,,,,,,,,,,,,,,773,2022-01-19_18h03.29.405,multiplicationStroop,2021.2.3,Win32,59.55926147,,,,,left,1,0.5406,0,64,64,34,1,6,8,6 | 8,2,1.9756,1.4111,incongruent,left,,,,,,stimulusFile/physical.xlsx,,,,,,,,,,,,,,,,,,,,,,,,,,,,,,,
,,,,,,,,,,,,,,,773,2022-01-19_18h03.29.405,multiplicationStroop,2021.2.3,Win32,59.55926147,,,,,left,1,0.4674,0,65,65,35,1,7,9,7 | 9,2,1.9756,1.4111,incongruent,left,,,,,,stimulusFile/physical.xlsx,,,,,,,,,,,,,,,,,,,,,,,,,,,,,,,
,,,,,,,,,,,,,,,773,2022-01-19_18h03.29.405,multiplicationStroop,2021.2.3,Win32,59.55926147,,,,,right,1,0.5006,0,66,66,45,1,7,2,7 | 2,5,1.4111,1.9756,incongruent,right,,,,,,stimulusFile/physical.xlsx,,,,,,,,,,,,,,,,,,,,,,,,,,,,,,,
,,,,,,,,,,,,,,,773,2022-01-19_18h03.29.405,multiplicationStroop,2021.2.3,Win32,59.55926147,,,,,right,1,0.4989,0,67,67,67,1,4,4,4 | 4,0,1.4111,1.9756,neutral,right,,,,,,stimulusFile/physical.xlsx,,,,,,,,,,,,,,,,,,,,,,,,,,,,,,,
,,,,,,,,,,,,,,,773,2022-01-19_18h03.29.405,multiplicationStroop,2021.2.3,Win32,59.55926147,,,,,right,1,0.453,0,68,68,31,1,9,8,9 | 8,1,1.4111,1.9756,incongruent,right,,,,,,stimulusFile/physical.xlsx,,,,,,,,,,,,,,,,,,,,,,,,,,,,,,,
,,,,,,,,,,,,,,,773,2022-01-19_18h03.29.405,multiplicationStroop,2021.2.3,Win32,59.55926147,,,,,left,1,0.5323,0,69,69,14,1,8,6,8 | 6,2,1.9756,1.4111,congruent,left,,,,,,stimulusFile/physical.xlsx,,,,,,,,,,,,,,,,,,,,,,,,,,,,,,,
,,,,,,,,,,,,,,,773,2022-01-19_18h03.29.405,multiplicationStroop,2021.2.3,Win32,59.55926147,,,,,left,1,0.4872,0,70,70,53,1,4,4,4 | 4,0,1.9756,1.4111,neutral,left,,,,,,stimulusFile/physical.xlsx,,,,,,,,,,,,,,,,,,,,,,,,,,,,,,,
,,,,,,,,,,,,,,,773,2022-01-19_18h03.29.405,multiplicationStroop,2021.2.3,Win32,59.55926147,,,,,right,1,0.5081,0,71,71,37,1,4,2,4 | 2,2,1.4111,1.9756,incongruent,right,,,,,,stimulusFile/physical.xlsx,,,,,,,,,,,,,,,,,,,,,,,,,,,,,,,
,,,,,,,,,,,,,,,773,2022-01-19_18h03.29.405,multiplicationStroop,2021.2.3,Win32,59.55926147,,,,,,,,,,,,,,,,,,,,,0,0,0,1,1,stimulusFile/physical.xlsx,PHYSICALLY larger (larger font size).,images/physicallyLarger.png,,,,,,,,,,,,,,,,,,,,,,,,,,,,,
,,,,,,,,,,,,,,,773,2022-01-19_18h03.29.405,multiplicationStroop,2021.2.3,Win32,59.55926147,space,4.9286,space,7.566,right,1,1.1173,0,0,0,16,1,1,6,1 | 6,5,1.4111,1.9756,congruent,right,,,,,,stimulusFile/magnitude.xlsx,,,,,,,,,,,,,,,,,,,,,,,,,,,,,,,
,,,,,,,,,,,,,,,773,2022-01-19_18h03.29.405,multiplicationStroop,2021.2.3,Win32,59.55926147,,,,,right,1,0.5826,0,1,1,10,1,6,8,6 | 8,2,1.4111,1.9756,congruent,right,,,,,,stimulusFile/magnitude.xlsx,,,,,,,,,,,,,,,,,,,,,,,,,,,,,,,
,,,,,,,,,,,,,,,773,2022-01-19_18h03.29.405,multiplicationStroop,2021.2.3,Win32,59.55926147,,,,,left,1,0.4769,0,2,2,13,1,4,2,4 | 2,2,1.9756,1.4111,congruent,left,,,,,,stimulusFile/magnitude.xlsx,,,,,,,,,,,,,,,,,,,,,,,,,,,,,,,
,,,,,,,,,,,,,,,773,2022-01-19_18h03.29.405,multiplicationStroop,2021.2.3,Win32,59.55926147,,,,,left,1,0.9793,0,3,3,63,1,9,7,9 | 7,2,1.6933,1.6933,neutral,left,,,,,,stimulusFile/magnitude.xlsx,,,,,,,,,,,,,,,,,,,,,,,,,,,,,,,
,,,,,,,,,,,,,,,773,2022-01-19_18h03.29.405,multiplicationStroop,2021.2.3,Win32,59.55926147,,,,,left,1,0.8184,0,4,4,39,1,9,7,9 | 7,2,1.4111,1.9756,incongruent,left,,,,,,stimulusFile/magnitude.xlsx,,,,,,,,,,,,,,,,,,,,,,,,,,,,,,,
,,,,,,,,,,,,,,,773,2022-01-19_18h03.29.405,multiplicationStroop,2021.2.3,Win32,59.55926147,,,,,right,1,0.5791,0,5,5,67,1,4,9,4 | 9,5,1.6933,1.6933,neutral,right,,,,,,stimulusFile/magnitude.xlsx,,,,,,,,,,,,,,,,,,,,,,,,,,,,,,,
,,,,,,,,,,,,,,,773,2022-01-19_18h03.29.405,multiplicationStroop,2021.2.3,Win32,59.55926147,,,,,right,1,0.5516,0,6,6,42,1,3,8,3 | 8,5,1.9756,1.4111,incongruent,right,,,,,,stimulusFile/magnitude.xlsx,,,,,,,,,,,,,,,,,,,,,,,,,,,,,,,
,,,,,,,,,,,,,,,773,2022-01-19_18h03.29.405,multiplicationStroop,2021.2.3,Win32,59.55926147,,,,,left,1,0.4511,0,7,7,15,1,9,7,9 | 7,2,1.9756,1.4111,congruent,left,,,,,,stimulusFile/magnitude.xlsx,,,,,,,,,,,,,,,,,,,,,,,,,,,,,,,
,,,,,,,,,,,,,,,773,2022-01-19_18h03.29.405,multiplicationStroop,2021.2.3,Win32,59.55926147,,,,,left,1,0.5277,0,8,8,71,1,9,4,9 | 4,5,1.6933,1.6933,neutral,left,,,,,,stimulusFile/magnitude.xlsx,,,,,,,,,,,,,,,,,,,,,,,,,,,,,,,
,,,,,,,,,,,,,,,773,2022-01-19_18h03.29.405,multiplicationStroop,2021.2.3,Win32,59.55926147,,,,,left,1,0.4842,0,9,9,12,1,3,1,3 | 1,2,1.9756,1.4111,congruent,left,,,,,,stimulusFile/magnitude.xlsx,,,,,,,,,,,,,,,,,,,,,,,,,,,,,,,
,,,,,,,,,,,,,,,773,2022-01-19_18h03.29.405,multiplicationStroop,2021.2.3,Win32,59.55926147,,,,,left,1,0.7779,0,10,10,61,1,4,2,4 | 2,2,1.6933,1.6933,neutral,left,,,,,,stimulusFile/magnitude.xlsx,,,,,,,,,,,,,,,,,,,,,,,,,,,,,,,
,,,,,,,,,,,,,,,773,2022-01-19_18h03.29.405,multiplicationStroop,2021.2.3,Win32,59.55926147,,,,,left,1,0.4517,0,11,11,20,1,6,1,6 | 1,5,1.9756,1.4111,congruent,left,,,,,,stimulusFile/magnitude.xlsx,,,,,,,,,,,,,,,,,,,,,,,,,,,,,,,
,,,,,,,,,,,,,,,773,2022-01-19_18h03.29.405,multiplicationStroop,2021.2.3,Win32,59.55926147,,,,,right,1,0.5587,0,12,12,34,1,6,8,6 | 8,2,1.9756,1.4111,incongruent,right,,,,,,stimulusFile/magnitude.xlsx,,,,,,,,,,,,,,,,,,,,,,,,,,,,,,,
,,,,,,,,,,,,,,,773,2022-01-19_18h03.29.405,multiplicationStroop,2021.2.3,Win32,59.55926147,,,,,right,0,0.6261,0,13,13,31,1,9,8,9 | 8,1,1.4111,1.9756,incongruent,left,,,,,,stimulusFile/magnitude.xlsx,,,,,,,,,,,,,,,,,,,,,,,,,,,,,,,
,,,,,,,,,,,,,,,773,2022-01-19_18h03.29.405,multiplicationStroop,2021.2.3,Win32,59.55926147,,,,,left,1,0.5672,0,14,14,69,1,7,2,7 | 2,5,1.6933,1.6933,neutral,left,,,,,,stimulusFile/magnitude.xlsx,,,,,,,,,,,,,,,,,,,,,,,,,,,,,,,
,,,,,,,,,,,,,,,773,2022-01-19_18h03.29.405,multiplicationStroop,2021.2.3,Win32,59.55926147,,,,,right,1,0.5813,0,15,15,48,1,1,2,1 | 2,1,1.6933,1.6933,neutral,right,,,,,,stimulusFile/magnitude.xlsx,,,,,,,,,,,,,,,,,,,,,,,,,,,,,,,
,,,,,,,,,,,,,,,773,2022-01-19_18h03.29.405,multiplicationStroop,2021.2.3,Win32,59.55926147,,,,,right,1,0.5508,0,16,16,17,1,2,7,2 | 7,5,1.4111,1.9756,congruent,right,,,,,,stimulusFile/magnitude.xlsx,,,,,,,,,,,,,,,,,,,,,,,,,,,,,,,
,,,,,,,,,,,,,,,773,2022-01-19_18h03.29.405,multiplicationStroop,2021.2.3,Win32,59.55926147,,,,,left,1,0.5107,0,17,17,7,1,9,8,9 | 8,1,1.9756,1.4111,congruent,left,,,,,,stimulusFile/magnitude.xlsx,,,,,,,,,,,,,,,,,,,,,,,,,,,,,,,
,,,,,,,,,,,,,,,773,2022-01-19_18h03.29.405,multiplicationStroop,2021.2.3,Win32,59.55926147,,,,,right,1,0.4165,0,18,18,32,1,1,3,1 | 3,2,1.9756,1.4111,incongruent,right,,,,,,stimulusFile/magnitude.xlsx,,,,,,,,,,,,,,,,,,,,,,,,,,,,,,,
,,,,,,,,,,,,,,,773,2022-01-19_18h03.29.405,multiplicationStroop,2021.2.3,Win32,59.55926147,,,,,left,1,0.4828,0,19,19,46,1,8,3,8 | 3,5,1.4111,1.9756,incongruent,left,,,,,,stimulusFile/magnitude.xlsx,,,,,,,,,,,,,,,,,,,,,,,,,,,,,,,
,,,,,,,,,,,,,,,773,2022-01-19_18h03.29.405,multiplicationStroop,2021.2.3,Win32,59.55926147,,,,,right,1,0.4455,0,20,20,40,1,1,6,1 | 6,5,1.9756,1.4111,incongruent,right,,,,,,stimulusFile/magnitude.xlsx,,,,,,,,,,,,,,,,,,,,,,,,,,,,,,,
,,,,,,,,,,,,,,,773,2022-01-19_18h03.29.405,multiplicationStroop,2021.2.3,Win32,59.55926147,,,,,right,1,0.5671,0,21,21,1,1,3,4,3 | 4,1,1.4111,1.9756,congruent,right,,,,,,stimulusFile/magnitude.xlsx,,,,,,,,,,,,,,,,,,,,,,,,,,,,,,,
,,,,,,,,,,,,,,,773,2022-01-19_18h03.29.405,multiplicationStroop,2021.2.3,Win32,59.55926147,,,,,left,0,0.4242,0,22,22,33,1,2,4,2 | 4,2,1.9756,1.4111,incongruent,right,,,,,,stimulusFile/magnitude.xlsx,,,,,,,,,,,,,,,,,,,,,,,,,,,,,,,
,,,,,,,,,,,,,,,773,2022-01-19_18h03.29.405,multiplicationStroop,2021.2.3,Win32,59.55926147,,,,,left,0,0.5172,0,23,23,26,1,6,7,6 | 7,1,1.9756,1.4111,incongruent,right,,,,,,stimulusFile/magnitude.xlsx,,,,,,,,,,,,,,,,,,,,,,,,,,,,,,,
,,,,,,,,,,,,,,,773,2022-01-19_18h03.29.405,multiplicationStroop,2021.2.3,Win32,59.55926147,,,,,right,1,0.4639,0,24,24,65,1,2,7,2 | 7,5,1.6933,1.6933,neutral,right,,,,,,stimulusFile/magnitude.xlsx,,,,,,,,,,,,,,,,,,,,,,,,,,,,,,,
,,,,,,,,,,,,,,,773,2022-01-19_18h03.29.405,multiplicationStroop,2021.2.3,Win32,59.55926147,,,,,left,1,0.481,0,25,25,70,1,8,3,8 | 3,5,1.6933,1.6933,neutral,left,,,,,,stimulusFile/magnitude.xlsx,,,,,,,,,,,,,,,,,,,,,,,,,,,,,,,
,,,,,,,,,,,,,,,773,2022-01-19_18h03.29.405,multiplicationStroop,2021.2.3,Win32,59.55926147,,,,,left,1,0.5121,0,26,26,53,1,4,3,4 | 3,1,1.6933,1.6933,neutral,left,,,,,,stimulusFile/magnitude.xlsx,,,,,,,,,,,,,,,,,,,,,,,,,,,,,,,
,,,,,,,,,,,,,,,773,2022-01-19_18h03.29.405,multiplicationStroop,2021.2.3,Win32,59.55926147,,,,,right,1,0.8309,0,27,27,25,1,3,4,3 | 4,1,1.9756,1.4111,incongruent,right,,,,,,stimulusFile/magnitude.xlsx,,,,,,,,,,,,,,,,,,,,,,,,,,,,,,,
,,,,,,,,,,,,,,,773,2022-01-19_18h03.29.405,multiplicationStroop,2021.2.3,Win32,59.55926147,,,,,right,1,0.5635,0,28,28,35,1,7,9,7 | 9,2,1.9756,1.4111,incongruent,right,,,,,,stimulusFile/magnitude.xlsx,,,,,,,,,,,,,,,,,,,,,,,,,,,,,,,
,,,,,,,,,,,,,,,773,2022-01-19_18h03.29.405,multiplicationStroop,2021.2.3,Win32,59.55926147,,,,,right,0,0.5206,0,29,29,38,1,8,6,8 | 6,2,1.4111,1.9756,incongruent,left,,,,,,stimulusFile/magnitude.xlsx,,,,,,,,,,,,,,,,,,,,,,,,,,,,,,,
,,,,,,,,,,,,,,,773,2022-01-19_18h03.29.405,multiplicationStroop,2021.2.3,Win32,59.55926147,,,,,right,1,0.4981,0,30,30,0,1,1,2,1 | 2,1,1.4111,1.9756,congruent,right,,,,,,stimulusFile/magnitude.xlsx,,,,,,,,,,,,,,,,,,,,,,,,,,,,,,,
,,,,,,,,,,,,,,,773,2022-01-19_18h03.29.405,multiplicationStroop,2021.2.3,Win32,59.55926147,,,,,left,1,0.4282,0,31,31,68,1,6,1,6 | 1,5,1.6933,1.6933,neutral,left,,,,,,stimulusFile/magnitude.xlsx,,,,,,,,,,,,,,,,,,,,,,,,,,,,,,,
,,,,,,,,,,,,,,,773,2022-01-19_18h03.29.405,multiplicationStroop,2021.2.3,Win32,59.55926147,,,,,left,1,0.4379,0,32,32,52,1,2,1,2 | 1,1,1.6933,1.6933,neutral,left,,,,,,stimulusFile/magnitude.xlsx,,,,,,,,,,,,,,,,,,,,,,,,,,,,,,,
,,,,,,,,,,,,,,,773,2022-01-19_18h03.29.405,multiplicationStroop,2021.2.3,Win32,59.55926147,,,,,right,1,0.4074,0,33,33,24,1,1,2,1 | 2,1,1.9756,1.4111,incongruent,right,,,,,,stimulusFile/magnitude.xlsx,,,,,,,,,,,,,,,,,,,,,,,,,,,,,,,
,,,,,,,,,,,,,,,773,2022-01-19_18h03.29.405,multiplicationStroop,2021.2.3,Win32,59.55926147,,,,,left,1,0.4136,0,34,34,36,1,3,1,3 | 1,2,1.4111,1.9756,incongruent,left,,,,,,stimulusFile/magnitude.xlsx,,,,,,,,,,,,,,,,,,,,,,,,,,,,,,,
,,,,,,,,,,,,,,,773,2022-01-19_18h03.29.405,multiplicationStroop,2021.2.3,Win32,59.55926147,,,,,right,1,0.4825,0,35,35,57,1,2,4,2 | 4,2,1.6933,1.6933,neutral,right,,,,,,stimulusFile/magnitude.xlsx,,,,,,,,,,,,,,,,,,,,,,,,,,,,,,,
,,,,,,,,,,,,,,,773,2022-01-19_18h03.29.405,multiplicationStroop,2021.2.3,Win32,59.55926147,,,,,left,1,0.4963,0,36,36,23,1,9,4,9 | 4,5,1.9756,1.4111,congruent,left,,,,,,stimulusFile/magnitude.xlsx,,,,,,,,,,,,,,,,,,,,,,,,,,,,,,,
,,,,,,,,,,,,,,,773,2022-01-19_18h03.29.405,multiplicationStroop,2021.2.3,Win32,59.55926147,,,,,right,0,0.4294,0,37,37,55,1,9,8,9 | 8,1,1.6933,1.6933,neutral,left,,,,,,stimulusFile/magnitude.xlsx,,,,,,,,,,,,,,,,,,,,,,,,,,,,,,,
,,,,,,,,,,,,,,,773,2022-01-19_18h03.29.405,multiplicationStroop,2021.2.3,Win32,59.55926147,,,,,right,1,0.615,0,38,38,58,1,6,8,6 | 8,2,1.6933,1.6933,neutral,right,,,,,,stimulusFile/magnitude.xlsx,,,,,,,,,,,,,,,,,,,,,,,,,,,,,,,
,,,,,,,,,,,,,,,773,2022-01-19_18h03.29.405,multiplicationStroop,2021.2.3,Win32,59.55926147,,,,,left,0,0.4175,0,39,39,27,1,8,9,8 | 9,1,1.9756,1.4111,incongruent,right,,,,,,stimulusFile/magnitude.xlsx,,,,,,,,,,,,,,,,,,,,,,,,,,,,,,,
,,,,,,,,,,,,,,,773,2022-01-19_18h03.29.405,multiplicationStroop,2021.2.3,Win32,59.55926147,,,,,right,1,0.4521,0,40,40,18,1,3,8,3 | 8,5,1.4111,1.9756,congruent,right,,,,,,stimulusFile/magnitude.xlsx,,,,,,,,,,,,,,,,,,,,,,,,,,,,,,,
,,,,,,,,,,,,,,,773,2022-01-19_18h03.29.405,multiplicationStroop,2021.2.3,Win32,59.55926147,,,,,right,1,0.5412,0,41,41,59,1,7,9,7 | 9,2,1.6933,1.6933,neutral,right,,,,,,stimulusFile/magnitude.xlsx,,,,,,,,,,,,,,,,,,,,,,,,,,,,,,,
,,,,,,,,,,,,,,,773,2022-01-19_18h03.29.405,multiplicationStroop,2021.2.3,Win32,59.55926147,,,,,left,1,0.5035,0,42,42,21,1,7,2,7 | 2,5,1.9756,1.4111,congruent,left,,,,,,stimulusFile/magnitude.xlsx,,,,,,,,,,,,,,,,,,,,,,,,,,,,,,,
,,,,,,,,,,,,,,,773,2022-01-19_18h03.29.405,multiplicationStroop,2021.2.3,Win32,59.55926147,,,,,right,1,0.4042,0,43,43,9,1,2,4,2 | 4,2,1.4111,1.9756,congruent,right,,,,,,stimulusFile/magnitude.xlsx,,,,,,,,,,,,,,,,,,,,,,,,,,,,,,,
,,,,,,,,,,,,,,,773,2022-01-19_18h03.29.405,multiplicationStroop,2021.2.3,Win32,59.55926147,,,,,right,1,0.4818,0,44,44,2,1,6,7,6 | 7,1,1.4111,1.9756,congruent,right,,,,,,stimulusFile/magnitude.xlsx,,,,,,,,,,,,,,,,,,,,,,,,,,,,,,,
,,,,,,,,,,,,,,,773,2022-01-19_18h03.29.405,multiplicationStroop,2021.2.3,Win32,59.55926147,,,,,right,1,0.5487,0,45,45,50,1,6,7,6 | 7,1,1.6933,1.6933,neutral,right,,,,,,stimulusFile/magnitude.xlsx,,,,,,,,,,,,,,,,,,,,,,,,,,,,,,,
,,,,,,,,,,,,,,,773,2022-01-19_18h03.29.405,multiplicationStroop,2021.2.3,Win32,59.55926147,,,,,right,1,0.4761,0,46,46,49,1,3,4,3 | 4,1,1.6933,1.6933,neutral,right,,,,,,stimulusFile/magnitude.xlsx,,,,,,,,,,,,,,,,,,,,,,,,,,,,,,,
,,,,,,,,,,,,,,,773,2022-01-19_18h03.29.405,multiplicationStroop,2021.2.3,Win32,59.55926147,,,,,left,1,0.5861,0,47,47,14,1,8,6,8 | 6,2,1.9756,1.4111,congruent,left,,,,,,stimulusFile/magnitude.xlsx,,,,,,,,,,,,,,,,,,,,,,,,,,,,,,,
,,,,,,,,,,,,,,,773,2022-01-19_18h03.29.405,multiplicationStroop,2021.2.3,Win32,59.55926147,,,,,left,1,0.5465,0,48,48,60,1,3,1,3 | 1,2,1.6933,1.6933,neutral,left,,,,,,stimulusFile/magnitude.xlsx,,,,,,,,,,,,,,,,,,,,,,,,,,,,,,,
,,,,,,,,,,,,,,,773,2022-01-19_18h03.29.405,multiplicationStroop,2021.2.3,Win32,59.55926147,,,,,left,1,0.6856,0,49,49,47,1,9,4,9 | 4,5,1.4111,1.9756,incongruent,left,,,,,,stimulusFile/magnitude.xlsx,,,,,,,,,,,,,,,,,,,,,,,,,,,,,,,
,,,,,,,,,,,,,,,773,2022-01-19_18h03.29.405,multiplicationStroop,2021.2.3,Win32,59.55926147,,,,,right,1,0.4727,0,50,50,8,1,1,3,1 | 3,2,1.4111,1.9756,congruent,right,,,,,,stimulusFile/magnitude.xlsx,,,,,,,,,,,,,,,,,,,,,,,,,,,,,,,
,,,,,,,,,,,,,,,773,2022-01-19_18h03.29.405,multiplicationStroop,2021.2.3,Win32,59.55926147,,,,,left,1,0.5292,0,51,51,62,1,8,6,8 | 6,2,1.6933,1.6933,neutral,left,,,,,,stimulusFile/magnitude.xlsx,,,,,,,,,,,,,,,,,,,,,,,,,,,,,,,
,,,,,,,,,,,,,,,773,2022-01-19_18h03.29.405,multiplicationStroop,2021.2.3,Win32,59.55926147,,,,,left,1,0.6306,0,52,52,37,1,4,2,4 | 2,2,1.4111,1.9756,incongruent,left,,,,,,stimulusFile/magnitude.xlsx,,,,,,,,,,,,,,,,,,,,,,,,,,,,,,,
,,,,,,,,,,,,,,,773,2022-01-19_18h03.29.405,multiplicationStroop,2021.2.3,Win32,59.55926147,,,,,left,1,0.5459,0,53,53,28,1,2,1,2 | 1,1,1.4111,1.9756,incongruent,left,,,,,,stimulusFile/magnitude.xlsx,,,,,,,,,,,,,,,,,,,,,,,,,,,,,,,
,,,,,,,,,,,,,,,773,2022-01-19_18h03.29.405,multiplicationStroop,2021.2.3,Win32,59.55926147,,,,,right,1,0.6394,0,54,54,41,1,2,7,2 | 7,5,1.9756,1.4111,incongruent,right,,,,,,stimulusFile/magnitude.xlsx,,,,,,,,,,,,,,,,,,,,,,,,,,,,,,,
,,,,,,,,,,,,,,,773,2022-01-19_18h03.29.405,multiplicationStroop,2021.2.3,Win32,59.55926147,,,,,left,1,0.47,0,55,55,5,1,4,3,4 | 3,1,1.9756,1.4111,congruent,left,,,,,,stimulusFile/magnitude.xlsx,,,,,,,,,,,,,,,,,,,,,,,,,,,,,,,
,,,,,,,,,,,,,,,773,2022-01-19_18h03.29.405,multiplicationStroop,2021.2.3,Win32,59.55926147,,,,,right,1,0.4543,0,56,56,66,1,3,8,3 | 8,5,1.6933,1.6933,neutral,right,,,,,,stimulusFile/magnitude.xlsx,,,,,,,,,,,,,,,,,,,,,,,,,,,,,,,
,,,,,,,,,,,,,,,773,2022-01-19_18h03.29.405,multiplicationStroop,2021.2.3,Win32,59.55926147,,,,,right,1,0.447,0,57,57,56,1,1,3,1 | 3,2,1.6933,1.6933,neutral,right,,,,,,stimulusFile/magnitude.xlsx,,,,,,,,,,,,,,,,,,,,,,,,,,,,,,,
,,,,,,,,,,,,,,,773,2022-01-19_18h03.29.405,multiplicationStroop,2021.2.3,Win32,59.55926147,,,,,left,1,0.4936,0,58,58,45,1,7,2,7 | 2,5,1.4111,1.9756,incongruent,left,,,,,,stimulusFile/magnitude.xlsx,,,,,,,,,,,,,,,,,,,,,,,,,,,,,,,
,,,,,,,,,,,,,,,773,2022-01-19_18h03.29.405,multiplicationStroop,2021.2.3,Win32,59.55926147,,,,,left,1,0.4653,0,59,59,30,1,7,6,7 | 6,1,1.4111,1.9756,incongruent,left,,,,,,stimulusFile/magnitude.xlsx,,,,,,,,,,,,,,,,,,,,,,,,,,,,,,,
,,,,,,,,,,,,,,,773,2022-01-19_18h03.29.405,multiplicationStroop,2021.2.3,Win32,59.55926147,,,,,right,1,0.6217,0,60,60,3,1,8,9,8 | 9,1,1.4111,1.9756,congruent,right,,,,,,stimulusFile/magnitude.xlsx,,,,,,,,,,,,,,,,,,,,,,,,,,,,,,,
,,,,,,,,,,,,,,,773,2022-01-19_18h03.29.405,multiplicationStroop,2021.2.3,Win32,59.55926147,,,,,left,1,0.5704,0,61,61,29,1,4,3,4 | 3,1,1.4111,1.9756,incongruent,left,,,,,,stimulusFile/magnitude.xlsx,,,,,,,,,,,,,,,,,,,,,,,,,,,,,,,
,,,,,,,,,,,,,,,773,2022-01-19_18h03.29.405,multiplicationStroop,2021.2.3,Win32,59.55926147,,,,,right,1,0.6152,0,62,62,51,1,8,9,8 | 9,1,1.6933,1.6933,neutral,right,,,,,,stimulusFile/magnitude.xlsx,,,,,,,,,,,,,,,,,,,,,,,,,,,,,,,
,,,,,,,,,,,,,,,773,2022-01-19_18h03.29.405,multiplicationStroop,2021.2.3,Win32,59.55926147,,,,,left,1,0.4505,0,63,63,6,1,7,6,7 | 6,1,1.9756,1.4111,congruent,left,,,,,,stimulusFile/magnitude.xlsx,,,,,,,,,,,,,,,,,,,,,,,,,,,,,,,
,,,,,,,,,,,,,,,773,2022-01-19_18h03.29.405,multiplicationStroop,2021.2.3,Win32,59.55926147,,,,,left,1,0.5596,0,64,64,54,1,7,6,7 | 6,1,1.6933,1.6933,neutral,left,,,,,,stimulusFile/magnitude.xlsx,,,,,,,,,,,,,,,,,,,,,,,,,,,,,,,
,,,,,,,,,,,,,,,773,2022-01-19_18h03.29.405,multiplicationStroop,2021.2.3,Win32,59.55926147,,,,,right,1,0.5309,0,65,65,64,1,1,6,1 | 6,5,1.6933,1.6933,neutral,right,,,,,,stimulusFile/magnitude.xlsx,,,,,,,,,,,,,,,,,,,,,,,,,,,,,,,
,,,,,,,,,,,,,,,773,2022-01-19_18h03.29.405,multiplicationStroop,2021.2.3,Win32,59.55926147,,,,,right,1,0.4478,0,66,66,11,1,7,9,7 | 9,2,1.4111,1.9756,congruent,right,,,,,,stimulusFile/magnitude.xlsx,,,,,,,,,,,,,,,,,,,,,,,,,,,,,,,
,,,,,,,,,,,,,,,773,2022-01-19_18h03.29.405,multiplicationStroop,2021.2.3,Win32,59.55926147,,,,,left,1,0.5028,0,67,67,44,1,6,1,6 | 1,5,1.4111,1.9756,incongruent,left,,,,,,stimulusFile/magnitude.xlsx,,,,,,,,,,,,,,,,,,,,,,,,,,,,,,,
,,,,,,,,,,,,,,,773,2022-01-19_18h03.29.405,multiplicationStroop,2021.2.3,Win32,59.55926147,,,,,right,1,0.7557,0,68,68,43,1,4,9,4 | 9,5,1.9756,1.4111,incongruent,right,,,,,,stimulusFile/magnitude.xlsx,,,,,,,,,,,,,,,,,,,,,,,,,,,,,,,
,,,,,,,,,,,,,,,773,2022-01-19_18h03.29.405,multiplicationStroop,2021.2.3,Win32,59.55926147,,,,,left,1,0.5301,0,69,69,22,1,8,3,8 | 3,5,1.9756,1.4111,congruent,left,,,,,,stimulusFile/magnitude.xlsx,,,,,,,,,,,,,,,,,,,,,,,,,,,,,,,
,,,,,,,,,,,,,,,773,2022-01-19_18h03.29.405,multiplicationStroop,2021.2.3,Win32,59.55926147,,,,,right,1,0.4813,0,70,70,19,1,4,9,4 | 9,5,1.4111,1.9756,congruent,right,,,,,,stimulusFile/magnitude.xlsx,,,,,,,,,,,,,,,,,,,,,,,,,,,,,,,
,,,,,,,,,,,,,,,773,2022-01-19_18h03.29.405,multiplicationStroop,2021.2.3,Win32,59.55926147,,,,,left,1,0.4435,0,71,71,4,1,2,1,2 | 1,1,1.9756,1.4111,congruent,left,,,,,,stimulusFile/magnitude.xlsx,,,,,,,,,,,,,,,,,,,,,,,,,,,,,,,
,,,,,,,,,,,,,,,773,2022-01-19_18h03.29.405,multiplicationStroop,2021.2.3,Win32,59.55926147,,,,,,,,,,,,,,,,,,,,,0,1,1,0,1,stimulusFile/magnitude.xlsx,NUMERICALLY larger (larger coefficient).,images/numericallyLarger.png,,,,,,,,,,,,,,,,,,,,,,,,,,,,,
,,,,,,,,,,,,,,,773,2022-01-19_18h03.29.405,multiplicationStroop,2021.2.3,Win32,59.55926147,,,,,,,,,,,,,,,,,,,,,,,,,,,,,space,97.6024,space,3.192,45,3.1702,1,0,0,0,23,1,9,×,5,9 × 5,congruent,largerFirst,2,1,45,,,,,,,,
,,,,,,,,,,,,,,,773,2022-01-19_18h03.29.405,multiplicationStroop,2021.2.3,Win32,59.55926147,,,,,,,,,,,,,,,,,,,,,,,,,,,,,,,,,24,3.1858,1,0,1,1,25,1,6,×,4,6 × 4,congruent,largerFirst,2,1,24,,,,,,,,
,,,,,,,,,,,,,,,773,2022-01-19_18h03.29.405,multiplicationStroop,2021.2.3,Win32,59.55926147,,,,,,,,,,,,,,,,,,,,,,,,,,,,,,,,,30,1.7998,1,0,2,2,15,1,6,×,5,6 × 5,congruent,largerFirst,2,1,30,,,,,,,,
,,,,,,,,,,,,,,,773,2022-01-19_18h03.29.405,multiplicationStroop,2021.2.3,Win32,59.55926147,,,,,,,,,,,,,,,,,,,,,,,,,,,,,,,,,24,1.5498,1,0,3,3,10,1,3,×,8,3 × 8,congruent,smallerFirst,1,2,24,,,,,,,,
,,,,,,,,,,,,,,,773,2022-01-19_18h03.29.405,multiplicationStroop,2021.2.3,Win32,59.55926147,,,,,,,,,,,,,,,,,,,,,,,,,,,,,,,,,20,1.6836,1,0,4,4,7,1,4,×,5,4 × 5,congruent,smallerFirst,1,2,20,,,,,,,,
,,,,,,,,,,,,,,,773,2022-01-19_18h03.29.405,multiplicationStroop,2021.2.3,Win32,59.55926147,,,,,,,,,,,,,,,,,,,,,,,,,,,,,,,,,6,1.6668,1,0,5,5,13,1,2,×,3,2 × 3,congruent,smallerFirst,1,2,6,,,,,,,,
,,,,,,,,,,,,,,,773,2022-01-19_18h03.29.405,multiplicationStroop,2021.2.3,Win32,59.55926147,,,,,,,,,,,,,,,,,,,,,,,,,,,,,,,,,36,2.167,1,0,6,6,32,1,6,×,6,6 × 6,neutral,tie,2,1,36,,,,,,,,
,,,,,,,,,,,,,,,773,2022-01-19_18h03.29.405,multiplicationStroop,2021.2.3,Win32,59.55926147,,,,,,,,,,,,,,,,,,,,,,,,,,,,,,,,,54,1.5172,1,0,7,7,12,1,6,×,9,6 × 9,congruent,smallerFirst,1,2,54,,,,,,,,
,,,,,,,,,,,,,,,773,2022-01-19_18h03.29.405,multiplicationStroop,2021.2.3,Win32,59.55926147,,,,,,,,,,,,,,,,,,,,,,,,,,,,,,,,,16,1.6165,1,0,8,8,30,1,4,×,4,4 × 4,neutral,tie,2,1,16,,,,,,,,
,,,,,,,,,,,,,,,773,2022-01-19_18h03.29.405,multiplicationStroop,2021.2.3,Win32,59.55926147,,,,,,,,,,,,,,,,,,,,,,,,,,,,,,,,,36,1.9171,1,0,9,9,0,1,4,×,9,4 × 9,congruent,smallerFirst,1,2,36,,,,,,,,
,,,,,,,,,,,,,,,773,2022-01-19_18h03.29.405,multiplicationStroop,2021.2.3,Win32,59.55926147,,,,,,,,,,,,,,,,,,,,,,,,,,,,,,,,,18,1.6164,1,0,10,10,22,1,9,×,2,9 × 2,congruent,largerFirst,2,1,18,,,,,,,,
,,,,,,,,,,,,,,,773,2022-01-19_18h03.29.405,multiplicationStroop,2021.2.3,Win32,59.55926147,,,,,,,,,,,,,,,,,,,,,,,,,,,,,,,,,42,1.817,1,0,11,11,3,1,6,×,7,6 × 7,congruent,smallerFirst,1,2,42,,,,,,,,
,,,,,,,,,,,,,,,773,2022-01-19_18h03.29.405,multiplicationStroop,2021.2.3,Win32,59.55926147,,,,,,,,,,,,,,,,,,,,,,,,,,,,,,,,,27,1.6669,1,0,12,12,26,1,9,×,3,9 × 3,congruent,largerFirst,2,1,27,,,,,,,,
,,,,,,,,,,,,,,,773,2022-01-19_18h03.29.405,multiplicationStroop,2021.2.3,Win32,59.55926147,,,,,,,,,,,,,,,,,,,,,,,,,,,,,,,,,15,1.3837,1,0,13,13,4,1,3,×,5,3 × 5,congruent,smallerFirst,1,2,15,,,,,,,,
,,,,,,,,,,,,,,,773,2022-01-19_18h03.29.405,multiplicationStroop,2021.2.3,Win32,59.55926147,,,,,,,,,,,,,,,,,,,,,,,,,,,,,,,,,28,1.6669,1,0,14,14,27,1,7,×,4,7 × 4,congruent,largerFirst,2,1,28,,,,,,,,
,,,,,,,,,,,,,,,773,2022-01-19_18h03.29.405,multiplicationStroop,2021.2.3,Win32,59.55926147,,,,,,,,,,,,,,,,,,,,,,,,,,,,,,,,,9,1.4167,1,0,15,15,29,1,3,×,3,3 × 3,neutral,tie,2,1,9,,,,,,,,
,,,,,,,,,,,,,,,773,2022-01-19_18h03.29.405,multiplicationStroop,2021.2.3,Win32,59.55926147,,,,,,,,,,,,,,,,,,,,,,,,,,,,,,,,,14,1.4836,1,0,16,16,14,1,7,×,2,7 × 2,congruent,largerFirst,2,1,14,,,,,,,,
,,,,,,,,,,,,,,,773,2022-01-19_18h03.29.405,multiplicationStroop,2021.2.3,Win32,59.55926147,,,,,,,,,,,,,,,,,,,,,,,,,,,,,,,,,49,2.0834,1,0,17,17,33,1,7,×,7,7 × 7,neutral,tie,2,1,49,,,,,,,,
,,,,,,,,,,,,,,,773,2022-01-19_18h03.29.405,multiplicationStroop,2021.2.3,Win32,59.55926147,,,,,,,,,,,,,,,,,,,,,,,,,,,,,,,,,64,1.5835,1,0,18,18,34,1,8,×,8,8 × 8,neutral,tie,2,1,64,,,,,,,,
,,,,,,,,,,,,,,,773,2022-01-19_18h03.29.405,multiplicationStroop,2021.2.3,Win32,59.55926147,,,,,,,,,,,,,,,,,,,,,,,,,,,,,,,,,81,1.7337,1,0,19,19,35,1,9,×,9,9 × 9,neutral,tie,2,1,81,,,,,,,,
,,,,,,,,,,,,,,,773,2022-01-19_18h03.29.405,multiplicationStroop,2021.2.3,Win32,59.55926147,,,,,,,,,,,,,,,,,,,,,,,,,,,,,,,,,8,2.7,1,0,20,20,9,1,2,×,4,2 × 4,congruent,smallerFirst,1,2,8,,,,,,,,
,,,,,,,,,,,,,,,773,2022-01-19_18h03.29.405,multiplicationStroop,2021.2.3,Win32,59.55926147,,,,,,,,,,,,,,,,,,,,,,,,,,,,,,,,,72,1.7554,1,0,21,21,17,1,9,×,8,9 × 8,congruent,largerFirst,2,1,72,,,,,,,,
,,,,,,,,,,,,,,,773,2022-01-19_18h03.29.405,multiplicationStroop,2021.2.3,Win32,59.55926147,,,,,,,,,,,,,,,,,,,,,,,,,,,,,,,,,32,2.0837,1,0,22,22,20,1,8,×,4,8 × 4,congruent,largerFirst,2,1,32,,,,,,,,
,,,,,,,,,,,,,,,773,2022-01-19_18h03.29.405,multiplicationStroop,2021.2.3,Win32,59.55926147,,,,,,,,,,,,,,,,,,,,,,,,,,,,,,,,,40,1.8,1,0,23,23,6,1,5,×,8,5 × 8,congruent,smallerFirst,1,2,40,,,,,,,,
,,,,,,,,,,,,,,,773,2022-01-19_18h03.29.405,multiplicationStroop,2021.2.3,Win32,59.55926147,,,,,,,,,,,,,,,,,,,,,,,,,,,,,,,,,12,1.8336,1,0,24,24,19,1,6,×,2,6 × 2,congruent,largerFirst,2,1,12,,,,,,,,
,,,,,,,,,,,,,,,773,2022-01-19_18h03.29.405,multiplicationStroop,2021.2.3,Win32,59.55926147,,,,,,,,,,,,,,,,,,,,,,,,,,,,,,,,,48,2.9007,1,0,25,25,18,1,8,×,6,8 × 6,congruent,largerFirst,2,1,48,,,,,,,,
,,,,,,,,,,,,,,,773,2022-01-19_18h03.29.405,multiplicationStroop,2021.2.3,Win32,59.55926147,,,,,,,,,,,,,,,,,,,,,,,,,,,,,,,,,21,1.6501,1,0,26,26,16,1,7,×,3,7 × 3,congruent,largerFirst,2,1,21,,,,,,,,
,,,,,,,,,,,,,,,773,2022-01-19_18h03.29.405,multiplicationStroop,2021.2.3,Win32,59.55926147,,,,,,,,,,,,,,,,,,,,,,,,,,,,,,,,,4,1.7837,1,0,27,27,28,1,2,×,2,2 × 2,neutral,tie,2,1,4,,,,,,,,
,,,,,,,,,,,,,,,773,2022-01-19_18h03.29.405,multiplicationStroop,2021.2.3,Win32,59.55926147,,,,,,,,,,,,,,,,,,,,,,,,,,,,,,,,,56,2.8172,1,0,28,28,8,1,7,×,8,7 × 8,congruent,smallerFirst,1,2,56,,,,,,,,
,,,,,,,,,,,,,,,773,2022-01-19_18h03.29.405,multiplicationStroop,2021.2.3,Win32,59.55926147,,,,,,,,,,,,,,,,,,,,,,,,,,,,,,,,,72,2.0169,0,0,29,29,21,1,9,×,7,9 × 7,congruent,largerFirst,2,1,63,,,,,,,,
,,,,,,,,,,,,,,,773,2022-01-19_18h03.29.405,multiplicationStroop,2021.2.3,Win32,59.55926147,,,,,,,,,,,,,,,,,,,,,,,,,,,,,,,,,18,1.7003,1,0,30,30,11,1,3,×,6,3 × 6,congruent,smallerFirst,1,2,18,,,,,,,,
,,,,,,,,,,,,,,,773,2022-01-19_18h03.29.405,multiplicationStroop,2021.2.3,Win32,59.55926147,,,,,,,,,,,,,,,,,,,,,,,,,,,,,,,,,16,2.0834,1,0,31,31,5,1,2,×,8,2 × 8,congruent,smallerFirst,1,2,16,,,,,,,,
,,,,,,,,,,,,,,,773,2022-01-19_18h03.29.405,multiplicationStroop,2021.2.3,Win32,59.55926147,,,,,,,,,,,,,,,,,,,,,,,,,,,,,,,,,25,1.6335,1,0,32,32,31,1,5,×,5,5 × 5,neutral,tie,2,1,25,,,,,,,,
,,,,,,,,,,,,,,,773,2022-01-19_18h03.29.405,multiplicationStroop,2021.2.3,Win32,59.55926147,,,,,,,,,,,,,,,,,,,,,,,,,,,,,,,,,10,1.5667,1,0,33,33,24,1,5,×,2,5 × 2,congruent,largerFirst,2,1,10,,,,,,,,
,,,,,,,,,,,,,,,773,2022-01-19_18h03.29.405,multiplicationStroop,2021.2.3,Win32,59.55926147,,,,,,,,,,,,,,,,,,,,,,,,,,,,,,,,,35,1.9001,1,0,34,34,1,1,5,×,7,5 × 7,congruent,smallerFirst,1,2,35,,,,,,,,
,,,,,,,,,,,,,,,773,2022-01-19_18h03.29.405,multiplicationStroop,2021.2.3,Win32,59.55926147,,,,,,,,,,,,,,,,,,,,,,,,,,,,,,,,,12,2.2001,1,0,35,35,2,1,3,×,4,3 × 4,congruent,smallerFirst,1,2,12,,,,,,,,
,,,,,,,,,,,,,,,773,2022-01-19_18h03.29.405,multiplicationStroop,2021.2.3,Win32,59.55926147,,,,,,,,,,,,,,,,,,,,,,,,,,,,,,,,,,,,,,,,,,,,,,,,,,0,0,0,2,1,stimulusFile/mult_blk3_congruent.xlsx,,
,,,,,,,,,,,,,,,773,2022-01-19_18h03.29.405,multiplicationStroop,2021.2.3,Win32,59.55926147,,,,,,,,,,,,,,,,,,,,,,,,,,,,,,,space,1.5314,10,1.5045,1,0,0,0,7,1,2,×,5,2 × 5,incongruent,smallerFirst,2,1,10,,,,,,,,
,,,,,,,,,,,,,,,773,2022-01-19_18h03.29.405,multiplicationStroop,2021.2.3,Win32,59.55926147,,,,,,,,,,,,,,,,,,,,,,,,,,,,,,,,,4,1.3001,1,0,1,1,28,1,2,×,2,2 × 2,neutral,tie,2,1,4,,,,,,,,
,,,,,,,,,,,,,,,773,2022-01-19_18h03.29.405,multiplicationStroop,2021.2.3,Win32,59.55926147,,,,,,,,,,,,,,,,,,,,,,,,,,,,,,,,,36,1.7832,1,0,2,2,32,1,6,×,6,6 × 6,neutral,tie,2,1,36,,,,,,,,
,,,,,,,,,,,,,,,773,2022-01-19_18h03.29.405,multiplicationStroop,2021.2.3,Win32,59.55926147,,,,,,,,,,,,,,,,,,,,,,,,,,,,,,,,,16,1.6,1,0,3,3,9,1,2,×,8,2 × 8,incongruent,smallerFirst,2,1,16,,,,,,,,
,,,,,,,,,,,,,,,773,2022-01-19_18h03.29.405,multiplicationStroop,2021.2.3,Win32,59.55926147,,,,,,,,,,,,,,,,,,,,,,,,,,,,,,,,,14,1.4333,1,0,4,4,18,1,7,×,2,7 × 2,incongruent,largerFirst,1,2,14,,,,,,,,
,,,,,,,,,,,,,,,773,2022-01-19_18h03.29.405,multiplicationStroop,2021.2.3,Win32,59.55926147,,,,,,,,,,,,,,,,,,,,,,,,,,,,,,,,,6,1.617,1,0,5,5,25,1,3,×,2,3 × 2,incongruent,largerFirst,1,2,6,,,,,,,,
,,,,,,,,,,,,,,,773,2022-01-19_18h03.29.405,multiplicationStroop,2021.2.3,Win32,59.55926147,,,,,,,,,,,,,,,,,,,,,,,,,,,,,,,,,16,1.4499,1,0,6,6,30,1,4,×,4,4 × 4,neutral,tie,2,1,16,,,,,,,,
,,,,,,,,,,,,,,,773,2022-01-19_18h03.29.405,multiplicationStroop,2021.2.3,Win32,59.55926147,,,,,,,,,,,,,,,,,,,,,,,,,,,,,,,,,48,1.8668,1,0,7,7,15,1,8,×,6,8 × 6,incongruent,largerFirst,1,2,48,,,,,,,,
,,,,,,,,,,,,,,,773,2022-01-19_18h03.29.405,multiplicationStroop,2021.2.3,Win32,59.55926147,,,,,,,,,,,,,,,,,,,,,,,,,,,,,,,,,49,1.9835,1,0,8,8,33,1,7,×,7,7 × 7,neutral,tie,2,1,49,,,,,,,,
,,,,,,,,,,,,,,,773,2022-01-19_18h03.29.405,multiplicationStroop,2021.2.3,Win32,59.55926147,,,,,,,,,,,,,,,,,,,,,,,,,,,,,,,,,30,1.6331,1,0,9,9,11,1,5,×,6,5 × 6,incongruent,smallerFirst,2,1,30,,,,,,,,
,,,,,,,,,,,,,,,773,2022-01-19_18h03.29.405,multiplicationStroop,2021.2.3,Win32,59.55926147,,,,,,,,,,,,,,,,,,,,,,,,,,,,,,,,,18,1.6832,1,0,10,10,22,1,6,×,3,6 × 3,incongruent,largerFirst,1,2,18,,,,,,,,
,,,,,,,,,,,,,,,773,2022-01-19_18h03.29.405,multiplicationStroop,2021.2.3,Win32,59.55926147,,,,,,,,,,,,,,,,,,,,,,,,,,,,,,,,,15,1.4001,1,0,11,11,24,1,5,×,3,5 × 3,incongruent,largerFirst,1,2,15,,,,,,,,
,,,,,,,,,,,,,,,773,2022-01-19_18h03.29.405,multiplicationStroop,2021.2.3,Win32,59.55926147,,,,,,,,,,,,,,,,,,,,,,,,,,,,,,,,,28,1.6169,1,0,12,12,2,1,4,×,7,4 × 7,incongruent,smallerFirst,2,1,28,,,,,,,,
,,,,,,,,,,,,,,,773,2022-01-19_18h03.29.405,multiplicationStroop,2021.2.3,Win32,59.55926147,,,,,,,,,,,,,,,,,,,,,,,,,,,,,,,,,25,1.6,1,0,13,13,31,1,5,×,5,5 × 5,neutral,tie,2,1,25,,,,,,,,
,,,,,,,,,,,,,,,773,2022-01-19_18h03.29.405,multiplicationStroop,2021.2.3,Win32,59.55926147,,,,,,,,,,,,,,,,,,,,,,,,,,,,,,,,,64,1.7505,1,0,14,14,34,1,8,×,8,8 × 8,neutral,tie,2,1,64,,,,,,,,
,,,,,,,,,,,,,,,773,2022-01-19_18h03.29.405,multiplicationStroop,2021.2.3,Win32,59.55926147,,,,,,,,,,,,,,,,,,,,,,,,,,,,,,,,,21,1.75,1,0,15,15,12,1,3,×,7,3 × 7,incongruent,smallerFirst,2,1,21,,,,,,,,
,,,,,,,,,,,,,,,773,2022-01-19_18h03.29.405,multiplicationStroop,2021.2.3,Win32,59.55926147,,,,,,,,,,,,,,,,,,,,,,,,,,,,,,,,,8,1.5332,1,0,16,16,10,1,2,×,4,2 × 4,incongruent,smallerFirst,2,1,8,,,,,,,,
,,,,,,,,,,,,,,,773,2022-01-19_18h03.29.405,multiplicationStroop,2021.2.3,Win32,59.55926147,,,,,,,,,,,,,,,,,,,,,,,,,,,,,,,,,56,1.8502,1,0,17,17,0,1,7,×,8,7 × 8,incongruent,smallerFirst,2,1,56,,,,,,,,
,,,,,,,,,,,,,,,773,2022-01-19_18h03.29.405,multiplicationStroop,2021.2.3,Win32,59.55926147,,,,,,,,,,,,,,,,,,,,,,,,,,,,,,,,,36,2.8671,1,0,18,18,1,1,4,×,9,4 × 9,incongruent,smallerFirst,2,1,36,,,,,,,,
,,,,,,,,,,,,,,,773,2022-01-19_18h03.29.405,multiplicationStroop,2021.2.3,Win32,59.55926147,,,,,,,,,,,,,,,,,,,,,,,,,,,,,,,,,45,1.6848,1,0,19,19,8,1,5,×,9,5 × 9,incongruent,smallerFirst,2,1,45,,,,,,,,
,,,,,,,,,,,,,,,773,2022-01-19_18h03.29.405,multiplicationStroop,2021.2.3,Win32,59.55926147,,,,,,,,,,,,,,,,,,,,,,,,,,,,,,,,,40,1.75,1,0,20,20,27,1,8,×,5,8 × 5,incongruent,largerFirst,1,2,40,,,,,,,,
,,,,,,,,,,,,,,,773,2022-01-19_18h03.29.405,multiplicationStroop,2021.2.3,Win32,59.55926147,,,,,,,,,,,,,,,,,,,,,,,,,,,,,,,,,20,1.7338,1,0,21,21,13,1,4,×,5,4 × 5,incongruent,smallerFirst,2,1,20,,,,,,,,
,,,,,,,,,,,,,,,773,2022-01-19_18h03.29.405,multiplicationStroop,2021.2.3,Win32,59.55926147,,,,,,,,,,,,,,,,,,,,,,,,,,,,,,,,,35,1.8332,1,0,22,22,26,1,7,×,5,7 × 5,incongruent,largerFirst,1,2,35,,,,,,,,
,,,,,,,,,,,,,,,773,2022-01-19_18h03.29.405,multiplicationStroop,2021.2.3,Win32,59.55926147,,,,,,,,,,,,,,,,,,,,,,,,,,,,,,,,,12,1.3664,1,0,23,23,19,1,4,×,3,4 × 3,incongruent,largerFirst,1,2,12,,,,,,,,
,,,,,,,,,,,,,,,773,2022-01-19_18h03.29.405,multiplicationStroop,2021.2.3,Win32,59.55926147,,,,,,,,,,,,,,,,,,,,,,,,,,,,,,,,,63,1.6669,1,0,24,24,17,1,9,×,7,9 × 7,incongruent,largerFirst,1,2,63,,,,,,,,
,,,,,,,,,,,,,,,773,2022-01-19_18h03.29.405,multiplicationStroop,2021.2.3,Win32,59.55926147,,,,,,,,,,,,,,,,,,,,,,,,,,,,,,,,,24,1.4833,1,0,25,25,6,1,4,×,6,4 × 6,incongruent,smallerFirst,2,1,24,,,,,,,,
,,,,,,,,,,,,,,,773,2022-01-19_18h03.29.405,multiplicationStroop,2021.2.3,Win32,59.55926147,,,,,,,,,,,,,,,,,,,,,,,,,,,,,,,,,42,1.6833,1,0,26,26,3,1,6,×,7,6 × 7,incongruent,smallerFirst,2,1,42,,,,,,,,
,,,,,,,,,,,,,,,773,2022-01-19_18h03.29.405,multiplicationStroop,2021.2.3,Win32,59.55926147,,,,,,,,,,,,,,,,,,,,,,,,,,,,,,,,,24,1.8667,1,0,27,27,23,1,8,×,3,8 × 3,incongruent,largerFirst,1,2,24,,,,,,,,
,,,,,,,,,,,,,,,773,2022-01-19_18h03.29.405,multiplicationStroop,2021.2.3,Win32,59.55926147,,,,,,,,,,,,,,,,,,,,,,,,,,,,,,,,,32,1.7334,1,0,28,28,21,1,8,×,4,8 × 4,incongruent,largerFirst,1,2,32,,,,,,,,
,,,,,,,,,,,,,,,773,2022-01-19_18h03.29.405,multiplicationStroop,2021.2.3,Win32,59.55926147,,,,,,,,,,,,,,,,,,,,,,,,,,,,,,,,,9,2.0335,1,0,29,29,29,1,3,×,3,3 × 3,neutral,tie,2,1,9,,,,,,,,
,,,,,,,,,,,,,,,773,2022-01-19_18h03.29.405,multiplicationStroop,2021.2.3,Win32,59.55926147,,,,,,,,,,,,,,,,,,,,,,,,,,,,,,,,,54,1.4836,1,0,30,30,20,1,9,×,6,9 × 6,incongruent,largerFirst,1,2,54,,,,,,,,
,,,,,,,,,,,,,,,773,2022-01-19_18h03.29.405,multiplicationStroop,2021.2.3,Win32,59.55926147,,,,,,,,,,,,,,,,,,,,,,,,,,,,,,,,,18,1.5999,1,0,31,31,16,1,9,×,2,9 × 2,incongruent,largerFirst,1,2,18,,,,,,,,
,,,,,,,,,,,,,,,773,2022-01-19_18h03.29.405,multiplicationStroop,2021.2.3,Win32,59.55926147,,,,,,,,,,,,,,,,,,,,,,,,,,,,,,,,,81,1.4836,1,0,32,32,35,1,9,×,9,9 × 9,neutral,tie,2,1,81,,,,,,,,
,,,,,,,,,,,,,,,773,2022-01-19_18h03.29.405,multiplicationStroop,2021.2.3,Win32,59.55926147,,,,,,,,,,,,,,,,,,,,,,,,,,,,,,,,,12,1.7667,1,0,33,33,5,1,2,×,6,2 × 6,incongruent,smallerFirst,2,1,12,,,,,,,,
,,,,,,,,,,,,,,,773,2022-01-19_18h03.29.405,multiplicationStroop,2021.2.3,Win32,59.55926147,,,,,,,,,,,,,,,,,,,,,,,,,,,,,,,,,72,1.5999,1,0,34,34,14,1,9,×,8,9 × 8,incongruent,largerFirst,1,2,72,,,,,,,,
,,,,,,,,,,,,,,,773,2022-01-19_18h03.29.405,multiplicationStroop,2021.2.3,Win32,59.55926147,,,,,,,,,,,,,,,,,,,,,,,,,,,,,,,,,27,2.0001,1,0,35,35,4,1,3,×,9,3 × 9,incongruent,smallerFirst,2,1,27,,,,,,,,
,,,,,,,,,,,,,,,773,2022-01-19_18h03.29.405,multiplicationStroop,2021.2.3,Win32,59.55926147,,,,,,,,,,,,,,,,,,,,,,,,,,,,,,,,,,,,,,,,,,,,,,,,,,0,1,1,4,1,stimulusFile/mult_blk5_INcongruent.xlsx,,
,,,,,,,,,,,,,,,773,2022-01-19_18h03.29.405,multiplicationStroop,2021.2.3,Win32,59.55926147,,,,,,,,,,,,,,,,,,,,,,,,,,,,,,,space,1.3176,20,3.6016,1,0,0,0,21,1,5,×,4,5 × 4,congruent,largerFirst,2,1,20,,,,,,,,
,,,,,,,,,,,,,,,773,2022-01-19_18h03.29.405,multiplicationStroop,2021.2.3,Win32,59.55926147,,,,,,,,,,,,,,,,,,,,,,,,,,,,,,,,,81,1.9503,1,0,1,1,35,1,9,×,9,9 × 9,neutral,tie,1,2,81,,,,,,,,
,,,,,,,,,,,,,,,773,2022-01-19_18h03.29.405,multiplicationStroop,2021.2.3,Win32,59.55926147,,,,,,,,,,,,,,,,,,,,,,,,,,,,,,,,,4,1.3665,1,0,2,2,28,1,2,×,2,2 × 2,neutral,tie,1,2,4,,,,,,,,
,,,,,,,,,,,,,,,773,2022-01-19_18h03.29.405,multiplicationStroop,2021.2.3,Win32,59.55926147,,,,,,,,,,,,,,,,,,,,,,,,,,,,,,,,,24,1.9664,1,0,3,3,24,1,8,×,3,8 × 3,congruent,largerFirst,2,1,24,,,,,,,,
,,,,,,,,,,,,,,,773,2022-01-19_18h03.29.405,multiplicationStroop,2021.2.3,Win32,59.55926147,,,,,,,,,,,,,,,,,,,,,,,,,,,,,,,,,24,1.5004,1,0,4,4,11,1,4,×,6,4 × 6,congruent,smallerFirst,1,2,24,,,,,,,,
,,,,,,,,,,,,,,,773,2022-01-19_18h03.29.405,multiplicationStroop,2021.2.3,Win32,59.55926147,,,,,,,,,,,,,,,,,,,,,,,,,,,,,,,,,15,1.4998,1,0,5,5,18,1,5,×,3,5 × 3,congruent,largerFirst,2,1,15,,,,,,,,
,,,,,,,,,,,,,,,773,2022-01-19_18h03.29.405,multiplicationStroop,2021.2.3,Win32,59.55926147,,,,,,,,,,,,,,,,,,,,,,,,,,,,,,,,,56,1.6668,1,0,6,6,22,1,8,×,7,8 × 7,congruent,largerFirst,2,1,56,,,,,,,,
,,,,,,,,,,,,,,,773,2022-01-19_18h03.29.405,multiplicationStroop,2021.2.3,Win32,59.55926147,,,,,,,,,,,,,,,,,,,,,,,,,,,,,,,,,10,1.4666,1,0,7,7,10,1,2,×,5,2 × 5,congruent,smallerFirst,1,2,10,,,,,,,,
,,,,,,,,,,,,,,,773,2022-01-19_18h03.29.405,multiplicationStroop,2021.2.3,Win32,59.55926147,,,,,,,,,,,,,,,,,,,,,,,,,,,,,,,,,64,1.9002,1,0,8,8,34,1,8,×,8,8 × 8,neutral,tie,1,2,64,,,,,,,,
,,,,,,,,,,,,,,,773,2022-01-19_18h03.29.405,multiplicationStroop,2021.2.3,Win32,59.55926147,,,,,,,,,,,,,,,,,,,,,,,,,,,,,,,,,27,2.0834,1,0,9,9,12,1,3,×,9,3 × 9,congruent,smallerFirst,1,2,27,,,,,,,,
,,,,,,,,,,,,,,,773,2022-01-19_18h03.29.405,multiplicationStroop,2021.2.3,Win32,59.55926147,,,,,,,,,,,,,,,,,,,,,,,,,,,,,,,,,28,1.6338,1,0,10,10,13,1,4,×,7,4 × 7,congruent,smallerFirst,1,2,28,,,,,,,,
,,,,,,,,,,,,,,,773,2022-01-19_18h03.29.405,multiplicationStroop,2021.2.3,Win32,59.55926147,,,,,,,,,,,,,,,,,,,,,,,,,,,,,,,,,36,1.7165,1,0,11,11,14,1,9,×,4,9 × 4,congruent,largerFirst,2,1,36,,,,,,,,
,,,,,,,,,,,,,,,773,2022-01-19_18h03.29.405,multiplicationStroop,2021.2.3,Win32,59.55926147,,,,,,,,,,,,,,,,,,,,,,,,,,,,,,,,,12,1.7169,1,0,12,12,16,1,4,×,3,4 × 3,congruent,largerFirst,2,1,12,,,,,,,,
,,,,,,,,,,,,,,,773,2022-01-19_18h03.29.405,multiplicationStroop,2021.2.3,Win32,59.55926147,,,,,,,,,,,,,,,,,,,,,,,,,,,,,,,,,48,2.4338,1,0,13,13,4,1,6,×,8,6 × 8,congruent,smallerFirst,1,2,48,,,,,,,,
,,,,,,,,,,,,,,,773,2022-01-19_18h03.29.405,multiplicationStroop,2021.2.3,Win32,59.55926147,,,,,,,,,,,,,,,,,,,,,,,,,,,,,,,,,35,1.533,1,0,14,14,15,1,7,×,5,7 × 5,congruent,largerFirst,2,1,35,,,,,,,,
,,,,,,,,,,,,,,,773,2022-01-19_18h03.29.405,multiplicationStroop,2021.2.3,Win32,59.55926147,,,,,,,,,,,,,,,,,,,,,,,,,,,,,,,,,30,1.5835,1,0,15,15,1,1,5,×,6,5 × 6,congruent,smallerFirst,1,2,30,,,,,,,,
,,,,,,,,,,,,,,,773,2022-01-19_18h03.29.405,multiplicationStroop,2021.2.3,Win32,59.55926147,,,,,,,,,,,,,,,,,,,,,,,,,,,,,,,,,40,1.5501,1,0,16,16,20,1,8,×,5,8 × 5,congruent,largerFirst,2,1,40,,,,,,,,
,,,,,,,,,,,,,,,773,2022-01-19_18h03.29.405,multiplicationStroop,2021.2.3,Win32,59.55926147,,,,,,,,,,,,,,,,,,,,,,,,,,,,,,,,,39,1.5001,0,0,17,17,30,1,4,×,4,4 × 4,neutral,tie,1,2,16,,,,,,,,
,,,,,,,,,,,,,,,773,2022-01-19_18h03.29.405,multiplicationStroop,2021.2.3,Win32,59.55926147,,,,,,,,,,,,,,,,,,,,,,,,,,,,,,,,,38,1.1496,0,0,18,18,7,1,7,×,9,7 × 9,congruent,smallerFirst,1,2,63,,,,,,,,
,,,,,,,,,,,,,,,773,2022-01-19_18h03.29.405,multiplicationStroop,2021.2.3,Win32,59.55926147,,,,,,,,,,,,,,,,,,,,,,,,,,,,,,,,,95,1.1333,0,0,19,19,33,1,7,×,7,7 × 7,neutral,tie,1,2,49,,,,,,,,
,,,,,,,,,,,,,,,773,2022-01-19_18h03.29.405,multiplicationStroop,2021.2.3,Win32,59.55926147,,,,,,,,,,,,,,,,,,,,,,,,,,,,,,,,,29,0.9666,0,0,20,20,26,1,9,×,6,9 × 6,congruent,largerFirst,2,1,54,,,,,,,,
,,,,,,,,,,,,,,,773,2022-01-19_18h03.29.405,multiplicationStroop,2021.2.3,Win32,59.55926147,,,,,,,,,,,,,,,,,,,,,,,,,,,,,,,,,29,1.0666,0,0,21,21,8,1,2,×,9,2 × 9,congruent,smallerFirst,1,2,18,,,,,,,,
,,,,,,,,,,,,,,,773,2022-01-19_18h03.29.405,multiplicationStroop,2021.2.3,Win32,59.55926147,,,,,,,,,,,,,,,,,,,,,,,,,,,,,,,,,94,1.0832,0,0,22,22,0,1,2,×,7,2 × 7,congruent,smallerFirst,1,2,14,,,,,,,,
,,,,,,,,,,,,,,,773,2022-01-19_18h03.29.405,multiplicationStroop,2021.2.3,Win32,59.55926147,,,,,,,,,,,,,,,,,,,,,,,,,,,,,,,,,2,1.3663,0,0,23,23,9,1,5,×,9,5 × 9,congruent,smallerFirst,1,2,45,,,,,,,,
,,,,,,,,,,,,,,,773,2022-01-19_18h03.29.405,multiplicationStroop,2021.2.3,Win32,59.55926147,,,,,,,,,,,,,,,,,,,,,,,,,,,,,,,,,49,1.2003,0,0,24,24,29,1,3,×,3,3 × 3,neutral,tie,1,2,9,,,,,,,,
,,,,,,,,,,,,,,,773,2022-01-19_18h03.29.405,multiplicationStroop,2021.2.3,Win32,59.55926147,,,,,,,,,,,,,,,,,,,,,,,,,,,,,,,,,25,2.0667,1,0,25,25,31,1,5,×,5,5 × 5,neutral,tie,1,2,25,,,,,,,,
,,,,,,,,,,,,,,,773,2022-01-19_18h03.29.405,multiplicationStroop,2021.2.3,Win32,59.55926147,,,,,,,,,,,,,,,,,,,,,,,,,,,,,,,,,43,2.1003,0,0,26,26,6,1,4,×,8,4 × 8,congruent,smallerFirst,1,2,32,,,,,,,,
,,,,,,,,,,,,,,,773,2022-01-19_18h03.29.405,multiplicationStroop,2021.2.3,Win32,59.55926147,,,,,,,,,,,,,,,,,,,,,,,,,,,,,,,,,16,1.5501,1,0,27,27,19,1,8,×,2,8 × 2,congruent,largerFirst,2,1,16,,,,,,,,
,,,,,,,,,,,,,,,773,2022-01-19_18h03.29.405,multiplicationStroop,2021.2.3,Win32,59.55926147,,,,,,,,,,,,,,,,,,,,,,,,,,,,,,,,,73,1.9003,0,0,28,28,3,1,8,×,9,8 × 9,congruent,smallerFirst,1,2,72,,,,,,,,
,,,,,,,,,,,,,,,773,2022-01-19_18h03.29.405,multiplicationStroop,2021.2.3,Win32,59.55926147,,,,,,,,,,,,,,,,,,,,,,,,,,,,,,,,,18,1.8,1,0,29,29,25,1,6,×,3,6 × 3,congruent,largerFirst,2,1,18,,,,,,,,
,,,,,,,,,,,,,,,773,2022-01-19_18h03.29.405,multiplicationStroop,2021.2.3,Win32,59.55926147,,,,,,,,,,,,,,,,,,,,,,,,,,,,,,,,,12,1.4666,1,0,30,30,5,1,2,×,6,2 × 6,congruent,smallerFirst,1,2,12,,,,,,,,
,,,,,,,,,,,,,,,773,2022-01-19_18h03.29.405,multiplicationStroop,2021.2.3,Win32,59.55926147,,,,,,,,,,,,,,,,,,,,,,,,,,,,,,,,,39,1.1164,0,0,31,31,2,1,3,×,7,3 × 7,congruent,smallerFirst,1,2,21,,,,,,,,
,,,,,,,,,,,,,,,773,2022-01-19_18h03.29.405,multiplicationStroop,2021.2.3,Win32,59.55926147,,,,,,,,,,,,,,,,,,,,,,,,,,,,,,,,,39,0.9334,0,0,32,32,32,1,6,×,6,6 × 6,neutral,tie,1,2,36,,,,,,,,
,,,,,,,,,,,,,,,773,2022-01-19_18h03.29.405,multiplicationStroop,2021.2.3,Win32,59.55926147,,,,,,,,,,,,,,,,,,,,,,,,,,,,,,,,,20,0.9661,0,0,33,33,27,1,3,×,2,3 × 2,congruent,largerFirst,2,1,6,,,,,,,,
,,,,,,,,,,,,,,,773,2022-01-19_18h03.29.405,multiplicationStroop,2021.2.3,Win32,59.55926147,,,,,,,,,,,,,,,,,,,,,,,,,,,,,,,,,2,1.0998,0,0,34,34,17,1,7,×,6,7 × 6,congruent,largerFirst,2,1,42,,,,,,,,
,,,,,,,,,,,,,,,773,2022-01-19_18h03.29.405,multiplicationStroop,2021.2.3,Win32,59.55926147,,,,,,,,,,,,,,,,,,,,,,,,,,,,,,,,,91,1.5004,0,0,35,35,23,1,4,×,2,4 × 2,congruent,largerFirst,2,1,8,,,,,,,,
,,,,,,,,,,,,,,,773,2022-01-19_18h03.29.405,multiplicationStroop,2021.2.3,Win32,59.55926147,,,,,,,,,,,,,,,,,,,,,,,,,,,,,,,,,,,,,,,,,,,,,,,,,,0,2,2,3,1,stimulusFile/mult_blk4_congruent.xlsx,,
,,,,,,,,,,,,,,,773,2022-01-19_18h03.29.405,multiplicationStroop,2021.2.3,Win32,59.55926147,,,,,,,,,,,,,,,,,,,,,,,,,,,,,,,space,212.4631,81,1.6612,1,0,0,0,35,1,9,×,9,9 × 9,neutral,tie,1.5,1.5,81,,,,,,,,
,,,,,,,,,,,,,,,773,2022-01-19_18h03.29.405,multiplicationStroop,2021.2.3,Win32,59.55926147,,,,,,,,,,,,,,,,,,,,,,,,,,,,,,,,,8,1.5659,1,0,1,1,3,1,2,×,4,2 × 4,neutral,smallerFirst,1.5,1.5,8,,,,,,,,
,,,,,,,,,,,,,,,773,2022-01-19_18h03.29.405,multiplicationStroop,2021.2.3,Win32,59.55926147,,,,,,,,,,,,,,,,,,,,,,,,,,,,,,,,,12,1.4666,1,0,2,2,25,1,6,×,2,6 × 2,neutral,largerFirst,1.5,1.5,12,,,,,,,,
,,,,,,,,,,,,,,,773,2022-01-19_18h03.29.405,multiplicationStroop,2021.2.3,Win32,59.55926147,,,,,,,,,,,,,,,,,,,,,,,,,,,,,,,,,4,1.4997,1,0,3,3,28,1,2,×,2,2 × 2,neutral,tie,1.5,1.5,4,,,,,,,,
,,,,,,,,,,,,,,,773,2022-01-19_18h03.29.405,multiplicationStroop,2021.2.3,Win32,59.55926147,,,,,,,,,,,,,,,,,,,,,,,,,,,,,,,,,30,2.5169,1,0,4,4,19,1,6,×,5,6 × 5,neutral,largerFirst,1.5,1.5,30,,,,,,,,
,,,,,,,,,,,,,,,773,2022-01-19_18h03.29.405,multiplicationStroop,2021.2.3,Win32,59.55926147,,,,,,,,,,,,,,,,,,,,,,,,,,,,,,,,,27,1.6498,1,0,5,5,14,1,9,×,3,9 × 3,neutral,largerFirst,1.5,1.5,27,,,,,,,,
,,,,,,,,,,,,,,,773,2022-01-19_18h03.29.405,multiplicationStroop,2021.2.3,Win32,59.55926147,,,,,,,,,,,,,,,,,,,,,,,,,,,,,,,,,35,1.5668,1,0,6,6,1,1,5,×,7,5 × 7,neutral,smallerFirst,1.5,1.5,35,,,,,,,,
,,,,,,,,,,,,,,,773,2022-01-19_18h03.29.405,multiplicationStroop,2021.2.3,Win32,59.55926147,,,,,,,,,,,,,,,,,,,,,,,,,,,,,,,,,14,1.4501,1,0,7,7,16,1,7,×,2,7 × 2,neutral,largerFirst,1.5,1.5,14,,,,,,,,
,,,,,,,,,,,,,,,773,2022-01-19_18h03.29.405,multiplicationStroop,2021.2.3,Win32,59.55926147,,,,,,,,,,,,,,,,,,,,,,,,,,,,,,,,,56,1.6497,1,0,8,8,9,1,7,×,8,7 × 8,neutral,smallerFirst,1.5,1.5,56,,,,,,,,
,,,,,,,,,,,,,,,773,2022-01-19_18h03.29.405,multiplicationStroop,2021.2.3,Win32,59.55926147,,,,,,,,,,,,,,,,,,,,,,,,,,,,,,,,,15,1.6165,1,0,9,9,5,1,3,×,5,3 × 5,neutral,smallerFirst,1.5,1.5,15,,,,,,,,
,,,,,,,,,,,,,,,773,2022-01-19_18h03.29.405,multiplicationStroop,2021.2.3,Win32,59.55926147,,,,,,,,,,,,,,,,,,,,,,,,,,,,,,,,,36,2.1167,1,0,10,10,27,1,9,×,4,9 × 4,neutral,largerFirst,1.5,1.5,36,,,,,,,,
,,,,,,,,,,,,,,,773,2022-01-19_18h03.29.405,multiplicationStroop,2021.2.3,Win32,59.55926147,,,,,,,,,,,,,,,,,,,,,,,,,,,,,,,,,49,1.6837,1,0,11,11,33,1,7,×,7,7 × 7,neutral,tie,1.5,1.5,49,,,,,,,,
,,,,,,,,,,,,,,,773,2022-01-19_18h03.29.405,multiplicationStroop,2021.2.3,Win32,59.55926147,,,,,,,,,,,,,,,,,,,,,,,,,,,,,,,,,48,1.933,0,0,12,12,10,1,5,×,9,5 × 9,neutral,smallerFirst,1.5,1.5,45,,,,,,,,
,,,,,,,,,,,,,,,773,2022-01-19_18h03.29.405,multiplicationStroop,2021.2.3,Win32,59.55926147,,,,,,,,,,,,,,,,,,,,,,,,,,,,,,,,,24,2.0501,1,0,13,13,2,1,4,×,6,4 × 6,neutral,smallerFirst,1.5,1.5,24,,,,,,,,
,,,,,,,,,,,,,,,773,2022-01-19_18h03.29.405,multiplicationStroop,2021.2.3,Win32,59.55926147,,,,,,,,,,,,,,,,,,,,,,,,,,,,,,,,,72,4.6011,1,0,14,14,11,1,8,×,9,8 × 9,neutral,smallerFirst,1.5,1.5,72,,,,,,,,
,,,,,,,,,,,,,,,773,2022-01-19_18h03.29.405,multiplicationStroop,2021.2.3,Win32,59.55926147,,,,,,,,,,,,,,,,,,,,,,,,,,,,,,,,,12,2.5014,1,0,15,15,21,1,4,×,3,4 × 3,neutral,largerFirst,1.5,1.5,12,,,,,,,,
,,,,,,,,,,,,,,,773,2022-01-19_18h03.29.405,multiplicationStroop,2021.2.3,Win32,59.55926147,,,,,,,,,,,,,,,,,,,,,,,,,,,,,,,,,36,1.5335,1,0,16,16,32,1,6,×,6,6 × 6,neutral,tie,1.5,1.5,36,,,,,,,,
,,,,,,,,,,,,,,,773,2022-01-19_18h03.29.405,multiplicationStroop,2021.2.3,Win32,59.55926147,,,,,,,,,,,,,,,,,,,,,,,,,,,,,,,,,54,1.5662,0,0,17,17,15,1,8,×,6,8 × 6,neutral,largerFirst,1.5,1.5,48,,,,,,,,
,,,,,,,,,,,,,,,773,2022-01-19_18h03.29.405,multiplicationStroop,2021.2.3,Win32,59.55926147,,,,,,,,,,,,,,,,,,,,,,,,,,,,,,,,,28,1.8003,1,0,18,18,17,1,7,×,4,7 × 4,neutral,largerFirst,1.5,1.5,28,,,,,,,,
,,,,,,,,,,,,,,,773,2022-01-19_18h03.29.405,multiplicationStroop,2021.2.3,Win32,59.55926147,,,,,,,,,,,,,,,,,,,,,,,,,,,,,,,,,16,2.1163,1,0,19,19,30,1,4,×,4,4 × 4,neutral,tie,1.5,1.5,16,,,,,,,,
,,,,,,,,,,,,,,,773,2022-01-19_18h03.29.405,multiplicationStroop,2021.2.3,Win32,59.55926147,,,,,,,,,,,,,,,,,,,,,,,,,,,,,,,,,54,2.183,1,0,20,20,7,1,6,×,9,6 × 9,neutral,smallerFirst,1.5,1.5,54,,,,,,,,
,,,,,,,,,,,,,,,773,2022-01-19_18h03.29.405,multiplicationStroop,2021.2.3,Win32,59.55926147,,,,,,,,,,,,,,,,,,,,,,,,,,,,,,,,,9,1.5163,1,0,21,21,29,1,3,×,3,3 × 3,neutral,tie,1.5,1.5,9,,,,,,,,
,,,,,,,,,,,,,,,773,2022-01-19_18h03.29.405,multiplicationStroop,2021.2.3,Win32,59.55926147,,,,,,,,,,,,,,,,,,,,,,,,,,,,,,,,,24,1.5832,1,0,22,22,22,1,8,×,3,8 × 3,neutral,largerFirst,1.5,1.5,24,,,,,,,,
,,,,,,,,,,,,,,,773,2022-01-19_18h03.29.405,multiplicationStroop,2021.2.3,Win32,59.55926147,,,,,,,,,,,,,,,,,,,,,,,,,,,,,,,,,63,1.7836,1,0,23,23,12,1,7,×,9,7 × 9,neutral,smallerFirst,1.5,1.5,63,,,,,,,,
,,,,,,,,,,,,,,,773,2022-01-19_18h03.29.405,multiplicationStroop,2021.2.3,Win32,59.55926147,,,,,,,,,,,,,,,,,,,,,,,,,,,,,,,,,64,2.4164,1,0,24,24,34,1,8,×,8,8 × 8,neutral,tie,1.5,1.5,64,,,,,,,,
,,,,,,,,,,,,,,,773,2022-01-19_18h03.29.405,multiplicationStroop,2021.2.3,Win32,59.55926147,,,,,,,,,,,,,,,,,,,,,,,,,,,,,,,,,32,2.2504,1,0,25,25,23,1,8,×,4,8 × 4,neutral,largerFirst,1.5,1.5,32,,,,,,,,
,,,,,,,,,,,,,,,773,2022-01-19_18h03.29.405,multiplicationStroop,2021.2.3,Win32,59.55926147,,,,,,,,,,,,,,,,,,,,,,,,,,,,,,,,,25,1.4331,1,0,26,26,31,1,5,×,5,5 × 5,neutral,tie,1.5,1.5,25,,,,,,,,
,,,,,,,,,,,,,,,773,2022-01-19_18h03.29.405,multiplicationStroop,2021.2.3,Win32,59.55926147,,,,,,,,,,,,,,,,,,,,,,,,,,,,,,,,,21,1.5499,1,0,27,27,8,1,3,×,7,3 × 7,neutral,smallerFirst,1.5,1.5,21,,,,,,,,
,,,,,,,,,,,,,,,773,2022-01-19_18h03.29.405,multiplicationStroop,2021.2.3,Win32,59.55926147,,,,,,,,,,,,,,,,,,,,,,,,,,,,,,,,,10,1.5667,1,0,28,28,4,1,2,×,5,2 × 5,neutral,smallerFirst,1.5,1.5,10,,,,,,,,
,,,,,,,,,,,,,,,773,2022-01-19_18h03.29.405,multiplicationStroop,2021.2.3,Win32,59.55926147,,,,,,,,,,,,,,,,,,,,,,,,,,,,,,,,,6,1.7999,1,0,29,29,26,1,3,×,2,3 × 2,neutral,largerFirst,1.5,1.5,6,,,,,,,,
,,,,,,,,,,,,,,,773,2022-01-19_18h03.29.405,multiplicationStroop,2021.2.3,Win32,59.55926147,,,,,,,,,,,,,,,,,,,,,,,,,,,,,,,,,18,1.7665,1,0,30,30,0,1,3,×,6,3 × 6,neutral,smallerFirst,1.5,1.5,18,,,,,,,,
,,,,,,,,,,,,,,,773,2022-01-19_18h03.29.405,multiplicationStroop,2021.2.3,Win32,59.55926147,,,,,,,,,,,,,,,,,,,,,,,,,,,,,,,,,27,1.9169,0,0,31,31,13,1,2,×,8,2 × 8,neutral,smallerFirst,1.5,1.5,16,,,,,,,,
,,,,,,,,,,,,,,,773,2022-01-19_18h03.29.405,multiplicationStroop,2021.2.3,Win32,59.55926147,,,,,,,,,,,,,,,,,,,,,,,,,,,,,,,,,18,1.5828,1,0,32,32,18,1,9,×,2,9 × 2,neutral,largerFirst,1.5,1.5,18,,,,,,,,
,,,,,,,,,,,,,,,773,2022-01-19_18h03.29.405,multiplicationStroop,2021.2.3,Win32,59.55926147,,,,,,,,,,,,,,,,,,,,,,,,,,,,,,,,,32,1.9504,0,0,33,33,24,1,8,×,5,8 × 5,neutral,largerFirst,1.5,1.5,40,,,,,,,,
,,,,,,,,,,,,,,,773,2022-01-19_18h03.29.405,multiplicationStroop,2021.2.3,Win32,59.55926147,,,,,,,,,,,,,,,,,,,,,,,,,,,,,,,,,20,1.6665,1,0,34,34,20,1,5,×,4,5 × 4,neutral,largerFirst,1.5,1.5,20,,,,,,,,
,,,,,,,,,,,,,,,773,2022-01-19_18h03.29.405,multiplicationStroop,2021.2.3,Win32,59.55926147,,,,,,,,,,,,,,,,,,,,,,,,,,,,,,,,,42,2.0165,1,0,35,35,6,1,6,×,7,6 × 7,neutral,smallerFirst,1.5,1.5,42,,,,,,,,
,,,,,,,,,,,,,,,773,2022-01-19_18h03.29.405,multiplicationStroop,2021.2.3,Win32,59.55926147,,,,,,,,,,,,,,,,,,,,,,,,,,,,,,,,,,,,,,,,,,,,,,,,,,0,3,3,1,1,stimulusFile/mult_blk2.xlsx,,
,,,,,,,,,,,,,,,773,2022-01-19_18h03.29.405,multiplicationStroop,2021.2.3,Win32,59.55926147,,,,,,,,,,,,,,,,,,,,,,,,,,,,,,,space,115.0314,56,1.8945,1,0,0,0,14,1,8,×,7,8 × 7,incongruent,largerFirst,1,2,56,,,,,,,,
,,,,,,,,,,,,,,,773,2022-01-19_18h03.29.405,multiplicationStroop,2021.2.3,Win32,59.55926147,,,,,,,,,,,,,,,,,,,,,,,,,,,,,,,,,10,1.4479,1,0,1,1,21,1,5,×,2,5 × 2,incongruent,largerFirst,1,2,10,,,,,,,,
,,,,,,,,,,,,,,,773,2022-01-19_18h03.29.405,multiplicationStroop,2021.2.3,Win32,59.55926147,,,,,,,,,,,,,,,,,,,,,,,,,,,,,,,,,12,1.7833,1,0,2,2,5,1,3,×,4,3 × 4,incongruent,smallerFirst,2,1,12,,,,,,,,
,,,,,,,,,,,,,,,773,2022-01-19_18h03.29.405,multiplicationStroop,2021.2.3,Win32,59.55926147,,,,,,,,,,,,,,,,,,,,,,,,,,,,,,,,,9,1.4498,1,0,3,3,29,1,3,×,3,3 × 3,incongruent,tie,1,2,9,,,,,,,,
,,,,,,,,,,,,,,,773,2022-01-19_18h03.29.405,multiplicationStroop,2021.2.3,Win32,59.55926147,,,,,,,,,,,,,,,,,,,,,,,,,,,,,,,,,20,1.5836,1,0,4,4,27,1,5,×,4,5 × 4,incongruent,largerFirst,1,2,20,,,,,,,,
,,,,,,,,,,,,,,,773,2022-01-19_18h03.29.405,multiplicationStroop,2021.2.3,Win32,59.55926147,,,,,,,,,,,,,,,,,,,,,,,,,,,,,,,,,54,1.7166,1,0,5,5,6,1,6,×,9,6 × 9,incongruent,smallerFirst,2,1,54,,,,,,,,
,,,,,,,,,,,,,,,773,2022-01-19_18h03.29.405,multiplicationStroop,2021.2.3,Win32,59.55926147,,,,,,,,,,,,,,,,,,,,,,,,,,,,,,,,,24,1.3834,1,0,6,6,20,1,6,×,4,6 × 4,incongruent,largerFirst,1,2,24,,,,,,,,
,,,,,,,,,,,,,,,773,2022-01-19_18h03.29.405,multiplicationStroop,2021.2.3,Win32,59.55926147,,,,,,,,,,,,,,,,,,,,,,,,,,,,,,,,,14,2.1668,1,0,7,7,4,1,2,×,7,2 × 7,incongruent,smallerFirst,2,1,14,,,,,,,,
,,,,,,,,,,,,,,,773,2022-01-19_18h03.29.405,multiplicationStroop,2021.2.3,Win32,59.55926147,,,,,,,,,,,,,,,,,,,,,,,,,,,,,,,,,18,1.6168,1,0,8,8,2,1,2,×,9,2 × 9,incongruent,smallerFirst,2,1,18,,,,,,,,
,,,,,,,,,,,,,,,773,2022-01-19_18h03.29.405,multiplicationStroop,2021.2.3,Win32,59.55926147,,,,,,,,,,,,,,,,,,,,,,,,,,,,,,,,,27,1.6999,1,0,9,9,18,1,9,×,3,9 × 3,incongruent,largerFirst,1,2,27,,,,,,,,
,,,,,,,,,,,,,,,773,2022-01-19_18h03.29.405,multiplicationStroop,2021.2.3,Win32,59.55926147,,,,,,,,,,,,,,,,,,,,,,,,,,,,,,,,,35,2.0839,1,0,10,10,12,1,5,×,7,5 × 7,incongruent,smallerFirst,2,1,35,,,,,,,,
,,,,,,,,,,,,,,,773,2022-01-19_18h03.29.405,multiplicationStroop,2021.2.3,Win32,59.55926147,,,,,,,,,,,,,,,,,,,,,,,,,,,,,,,,,32,1.8832,1,0,11,11,7,1,4,×,8,4 × 8,incongruent,smallerFirst,2,1,32,,,,,,,,
,,,,,,,,,,,,,,,773,2022-01-19_18h03.29.405,multiplicationStroop,2021.2.3,Win32,59.55926147,,,,,,,,,,,,,,,,,,,,,,,,,,,,,,,,,30,1.573,1,0,12,12,25,1,6,×,5,6 × 5,incongruent,largerFirst,1,2,30,,,,,,,,
,,,,,,,,,,,,,,,773,2022-01-19_18h03.29.405,multiplicationStroop,2021.2.3,Win32,59.55926147,,,,,,,,,,,,,,,,,,,,,,,,,,,,,,,,,81,1.3937,1,0,13,13,35,1,9,×,9,9 × 9,incongruent,tie,1,2,81,,,,,,,,
,,,,,,,,,,,,,,,773,2022-01-19_18h03.29.405,multiplicationStroop,2021.2.3,Win32,59.55926147,,,,,,,,,,,,,,,,,,,,,,,,,,,,,,,,,64,1.6168,1,0,14,14,34,1,8,×,8,8 × 8,incongruent,tie,1,2,64,,,,,,,,
,,,,,,,,,,,,,,,773,2022-01-19_18h03.29.405,multiplicationStroop,2021.2.3,Win32,59.55926147,,,,,,,,,,,,,,,,,,,,,,,,,,,,,,,,,18,1.6836,1,0,15,15,8,1,3,×,6,3 × 6,incongruent,smallerFirst,2,1,18,,,,,,,,
,,,,,,,,,,,,,,,773,2022-01-19_18h03.29.405,multiplicationStroop,2021.2.3,Win32,59.55926147,,,,,,,,,,,,,,,,,,,,,,,,,,,,,,,,,4,1.5665,1,0,16,16,28,1,2,×,2,2 × 2,incongruent,tie,1,2,4,,,,,,,,
,,,,,,,,,,,,,,,773,2022-01-19_18h03.29.405,multiplicationStroop,2021.2.3,Win32,59.55926147,,,,,,,,,,,,,,,,,,,,,,,,,,,,,,,,,36,3.2677,1,0,17,17,15,1,9,×,4,9 × 4,incongruent,largerFirst,1,2,36,,,,,,,,
,,,,,,,,,,,,,,,773,2022-01-19_18h03.29.405,multiplicationStroop,2021.2.3,Win32,59.55926147,,,,,,,,,,,,,,,,,,,,,,,,,,,,,,,,,72,1.5665,1,0,18,18,0,1,8,×,9,8 × 9,incongruent,smallerFirst,2,1,72,,,,,,,,
,,,,,,,,,,,,,,,773,2022-01-19_18h03.29.405,multiplicationStroop,2021.2.3,Win32,59.55926147,,,,,,,,,,,,,,,,,,,,,,,,,,,,,,,,,49,2.0335,1,0,19,19,33,1,7,×,7,7 × 7,incongruent,tie,1,2,49,,,,,,,,
,,,,,,,,,,,,,,,773,2022-01-19_18h03.29.405,multiplicationStroop,2021.2.3,Win32,59.55926147,,,,,,,,,,,,,,,,,,,,,,,,,,,,,,,,,12,1.3003,1,0,20,20,19,1,6,×,2,6 × 2,incongruent,largerFirst,1,2,12,,,,,,,,
,,,,,,,,,,,,,,,773,2022-01-19_18h03.29.405,multiplicationStroop,2021.2.3,Win32,59.55926147,,,,,,,,,,,,,,,,,,,,,,,,,,,,,,,,,16,1.6497,1,0,21,21,30,1,4,×,4,4 × 4,incongruent,tie,1,2,16,,,,,,,,
,,,,,,,,,,,,,,,773,2022-01-19_18h03.29.405,multiplicationStroop,2021.2.3,Win32,59.55926147,,,,,,,,,,,,,,,,,,,,,,,,,,,,,,,,,6,1.7001,1,0,22,22,11,1,2,×,3,2 × 3,incongruent,smallerFirst,2,1,6,,,,,,,,
,,,,,,,,,,,,,,,773,2022-01-19_18h03.29.405,multiplicationStroop,2021.2.3,Win32,59.55926147,,,,,,,,,,,,,,,,,,,,,,,,,,,,,,,,,42,4.3181,1,0,23,23,17,1,7,×,6,7 × 6,incongruent,largerFirst,1,2,42,,,,,,,,
,,,,,,,,,,,,,,,773,2022-01-19_18h03.29.405,multiplicationStroop,2021.2.3,Win32,59.55926147,,,,,,,,,,,,,,,,,,,,,,,,,,,,,,,,,24,2.5683,1,0,24,24,9,1,3,×,8,3 × 8,incongruent,smallerFirst,2,1,24,,,,,,,,
,,,,,,,,,,,,,,,773,2022-01-19_18h03.29.405,multiplicationStroop,2021.2.3,Win32,59.55926147,,,,,,,,,,,,,,,,,,,,,,,,,,,,,,,,,36,2.1669,1,0,25,25,32,1,6,×,6,6 × 6,incongruent,tie,1,2,36,,,,,,,,
,,,,,,,,,,,,,,,773,2022-01-19_18h03.29.405,multiplicationStroop,2021.2.3,Win32,59.55926147,,,,,,,,,,,,,,,,,,,,,,,,,,,,,,,,,21,1.4666,1,0,26,26,26,1,7,×,3,7 × 3,incongruent,largerFirst,1,2,21,,,,,,,,
,,,,,,,,,,,,,,,773,2022-01-19_18h03.29.405,multiplicationStroop,2021.2.3,Win32,59.55926147,,,,,,,,,,,,,,,,,,,,,,,,,,,,,,,,,48,1.9501,1,0,27,27,1,1,6,×,8,6 × 8,incongruent,smallerFirst,2,1,48,,,,,,,,
,,,,,,,,,,,,,,,773,2022-01-19_18h03.29.405,multiplicationStroop,2021.2.3,Win32,59.55926147,,,,,,,,,,,,,,,,,,,,,,,,,,,,,,,,,8,1.8005,1,0,28,28,24,1,4,×,2,4 × 2,incongruent,largerFirst,1,2,8,,,,,,,,
,,,,,,,,,,,,,,,773,2022-01-19_18h03.29.405,multiplicationStroop,2021.2.3,Win32,59.55926147,,,,,,,,,,,,,,,,,,,,,,,,,,,,,,,,,45,70.2594,1,0,29,29,22,1,9,×,5,9 × 5,incongruent,largerFirst,1,2,45,,,,,,,,
,,,,,,,,,,,,,,,773,2022-01-19_18h03.29.405,multiplicationStroop,2021.2.3,Win32,59.55926147,,,,,,,,,,,,,,,,,,,,,,,,,,,,,,,,,63,2.1005,1,0,30,30,3,1,7,×,9,7 × 9,incongruent,smallerFirst,2,1,63,,,,,,,,
,,,,,,,,,,,,,,,773,2022-01-19_18h03.29.405,multiplicationStroop,2021.2.3,Win32,59.55926147,,,,,,,,,,,,,,,,,,,,,,,,,,,,,,,,,16,1.5999,1,0,31,31,23,1,8,×,2,8 × 2,incongruent,largerFirst,1,2,16,,,,,,,,
,,,,,,,,,,,,,,,773,2022-01-19_18h03.29.405,multiplicationStroop,2021.2.3,Win32,59.55926147,,,,,,,,,,,,,,,,,,,,,,,,,,,,,,,,,25,1.5335,1,0,32,32,31,1,5,×,5,5 × 5,incongruent,tie,1,2,25,,,,,,,,
,,,,,,,,,,,,,,,773,2022-01-19_18h03.29.405,multiplicationStroop,2021.2.3,Win32,59.55926147,,,,,,,,,,,,,,,,,,,,,,,,,,,,,,,,,15,1.8501,1,0,33,33,10,1,3,×,5,3 × 5,incongruent,smallerFirst,2,1,15,,,,,,,,
,,,,,,,,,,,,,,,773,2022-01-19_18h03.29.405,multiplicationStroop,2021.2.3,Win32,59.55926147,,,,,,,,,,,,,,,,,,,,,,,,,,,,,,,,,28,1.6338,1,0,34,34,16,1,7,×,4,7 × 4,incongruent,largerFirst,1,2,28,,,,,,,,
,,,,,,,,,,,,,,,773,2022-01-19_18h03.29.405,multiplicationStroop,2021.2.3,Win32,59.55926147,,,,,,,,,,,,,,,,,,,,,,,,,,,,,,,,,40,1.5664,1,0,35,35,13,1,5,×,8,5 × 8,incongruent,smallerFirst,2,1,40,,,,,,,,
,,,,,,,,,,,,,,,773,2022-01-19_18h03.29.405,multiplicationStroop,2021.2.3,Win32,59.55926147,,,,,,,,,,,,,,,,,,,,,,,,,,,,,,,,,,,,,,,,,,,,,,,,,,0,4,4,5,1,stimulusFile/mult_blk6_INcongruent.xlsx,,
,,,,,,,,,,,,,,,773,2022-01-19_18h03.29.405,multiplicationStroop,2021.2.3,Win32,59.55926147,,,,,,,,,,,,,,,,,,,,,,,,,,,,,,,space,1.1122,48,1.8215,1,0,0,0,1,1,6,×,8,6 × 8,neutral,smallerFirst,1.5,1.5,48,,,,,,,,
,,,,,,,,,,,,,,,773,2022-01-19_18h03.29.405,multiplicationStroop,2021.2.3,Win32,59.55926147,,,,,,,,,,,,,,,,,,,,,,,,,,,,,,,,,93,1.1166,0,0,1,1,35,1,9,×,9,9 × 9,neutral,tie,1.5,1.5,81,,,,,,,,
,,,,,,,,,,,,,,,773,2022-01-19_18h03.29.405,multiplicationStroop,2021.2.3,Win32,59.55926147,,,,,,,,,,,,,,,,,,,,,,,,,,,,,,,,,29,1.1665,0,0,2,2,22,1,7,×,3,7 × 3,neutral,largerFirst,1.5,1.5,21,,,,,,,,
,,,,,,,,,,,,,,,773,2022-01-19_18h03.29.405,multiplicationStroop,2021.2.3,Win32,59.55926147,,,,,,,,,,,,,,,,,,,,,,,,,,,,,,,,,294,0.9986,0,0,3,3,30,1,4,×,4,4 × 4,neutral,tie,1.5,1.5,16,,,,,,,,
,,,,,,,,,,,,,,,773,2022-01-19_18h03.29.405,multiplicationStroop,2021.2.3,Win32,59.55926147,,,,,,,,,,,,,,,,,,,,,,,,,,,,,,,,,33,1.8503,0,0,4,4,24,1,9,×,5,9 × 5,neutral,largerFirst,1.5,1.5,45,,,,,,,,
,,,,,,,,,,,,,,,773,2022-01-19_18h03.29.405,multiplicationStroop,2021.2.3,Win32,59.55926147,,,,,,,,,,,,,,,,,,,,,,,,,,,,,,,,,20,1.3833,0,0,5,5,28,1,2,×,2,2 × 2,neutral,tie,1.5,1.5,4,,,,,,,,
,,,,,,,,,,,,,,,773,2022-01-19_18h03.29.405,multiplicationStroop,2021.2.3,Win32,59.55926147,,,,,,,,,,,,,,,,,,,,,,,,,,,,,,,,,30,1.3499,0,0,6,6,8,1,3,×,8,3 × 8,neutral,smallerFirst,1.5,1.5,24,,,,,,,,
,,,,,,,,,,,,,,,773,2022-01-19_18h03.29.405,multiplicationStroop,2021.2.3,Win32,59.55926147,,,,,,,,,,,,,,,,,,,,,,,,,,,,,,,,,98,1.7502,0,0,7,7,19,1,5,×,3,5 × 3,neutral,largerFirst,1.5,1.5,15,,,,,,,,
,,,,,,,,,,,,,,,773,2022-01-19_18h03.29.405,multiplicationStroop,2021.2.3,Win32,59.55926147,,,,,,,,,,,,,,,,,,,,,,,,,,,,,,,,,8,3.4343,0,0,8,8,32,1,6,×,6,6 × 6,neutral,tie,1.5,1.5,36,,,,,,,,
,,,,,,,,,,,,,,,773,2022-01-19_18h03.29.405,multiplicationStroop,2021.2.3,Win32,59.55926147,,,,,,,,,,,,,,,,,,,,,,,,,,,,,,,,,40,4.3185,1,0,9,9,10,1,5,×,8,5 × 8,neutral,smallerFirst,1.5,1.5,40,,,,,,,,
,,,,,,,,,,,,,,,773,2022-01-19_18h03.29.405,multiplicationStroop,2021.2.3,Win32,59.55926147,,,,,,,,,,,,,,,,,,,,,,,,,,,,,,,,,30,1.5847,1,0,10,10,5,1,5,×,6,5 × 6,neutral,smallerFirst,1.5,1.5,30,,,,,,,,
,,,,,,,,,,,,,,,773,2022-01-19_18h03.29.405,multiplicationStroop,2021.2.3,Win32,59.55926147,,,,,,,,,,,,,,,,,,,,,,,,,,,,,,,,,63,1.7502,1,0,11,11,26,1,9,×,7,9 × 7,neutral,largerFirst,1.5,1.5,63,,,,,,,,
,,,,,,,,,,,,,,,773,2022-01-19_18h03.29.405,multiplicationStroop,2021.2.3,Win32,59.55926147,,,,,,,,,,,,,,,,,,,,,,,,,,,,,,,,,35,1.8169,1,0,12,12,15,1,7,×,5,7 × 5,neutral,largerFirst,1.5,1.5,35,,,,,,,,
,,,,,,,,,,,,,,,773,2022-01-19_18h03.29.405,multiplicationStroop,2021.2.3,Win32,59.55926147,,,,,,,,,,,,,,,,,,,,,,,,,,,,,,,,,49,81.3541,1,0,13,13,33,1,7,×,7,7 × 7,neutral,tie,1.5,1.5,49,,,,,,,,
,,,,,,,,,,,,,,,773,2022-01-19_18h03.29.405,multiplicationStroop,2021.2.3,Win32,59.55926147,,,,,,,,,,,,,,,,,,,,,,,,,,,,,,,,,36,2.411,1,0,14,14,13,1,4,×,9,4 × 9,neutral,smallerFirst,1.5,1.5,36,,,,,,,,
,,,,,,,,,,,,,,,773,2022-01-19_18h03.29.405,multiplicationStroop,2021.2.3,Win32,59.55926147,,,,,,,,,,,,,,,,,,,,,,,,,,,,,,,,,18,1.433,1,0,15,15,4,1,2,×,9,2 × 9,neutral,smallerFirst,1.5,1.5,18,,,,,,,,
,,,,,,,,,,,,,,,773,2022-01-19_18h03.29.405,multiplicationStroop,2021.2.3,Win32,59.55926147,,,,,,,,,,,,,,,,,,,,,,,,,,,,,,,,,25,1.7833,1,0,16,16,31,1,5,×,5,5 × 5,neutral,tie,1.5,1.5,25,,,,,,,,
,,,,,,,,,,,,,,,773,2022-01-19_18h03.29.405,multiplicationStroop,2021.2.3,Win32,59.55926147,,,,,,,,,,,,,,,,,,,,,,,,,,,,,,,,,9,1.4669,1,0,17,17,29,1,3,×,3,3 × 3,neutral,tie,1.5,1.5,9,,,,,,,,
,,,,,,,,,,,,,,,773,2022-01-19_18h03.29.405,multiplicationStroop,2021.2.3,Win32,59.55926147,,,,,,,,,,,,,,,,,,,,,,,,,,,,,,,,,18,1.6997,0,0,18,18,0,1,3,×,9,3 × 9,neutral,smallerFirst,1.5,1.5,27,,,,,,,,
,,,,,,,,,,,,,,,773,2022-01-19_18h03.29.405,multiplicationStroop,2021.2.3,Win32,59.55926147,,,,,,,,,,,,,,,,,,,,,,,,,,,,,,,,,12,1.3668,1,0,19,19,11,1,2,×,6,2 × 6,neutral,smallerFirst,1.5,1.5,12,,,,,,,,
,,,,,,,,,,,,,,,773,2022-01-19_18h03.29.405,multiplicationStroop,2021.2.3,Win32,59.55926147,,,,,,,,,,,,,,,,,,,,,,,,,,,,,,,,,14,5.2683,1,0,20,20,2,1,2,×,7,2 × 7,neutral,smallerFirst,1.5,1.5,14,,,,,,,,
,,,,,,,,,,,,,,,773,2022-01-19_18h03.29.405,multiplicationStroop,2021.2.3,Win32,59.55926147,,,,,,,,,,,,,,,,,,,,,,,,,,,,,,,,,12,1.668,1,0,21,21,7,1,3,×,4,3 × 4,neutral,smallerFirst,1.5,1.5,12,,,,,,,,
,,,,,,,,,,,,,,,773,2022-01-19_18h03.29.405,multiplicationStroop,2021.2.3,Win32,59.55926147,,,,,,,,,,,,,,,,,,,,,,,,,,,,,,,,,24,1.5,1,0,22,22,16,1,6,×,4,6 × 4,neutral,largerFirst,1.5,1.5,24,,,,,,,,
,,,,,,,,,,,,,,,773,2022-01-19_18h03.29.405,multiplicationStroop,2021.2.3,Win32,59.55926147,,,,,,,,,,,,,,,,,,,,,,,,,,,,,,,,,72,1.5502,1,0,23,23,25,1,9,×,8,9 × 8,neutral,largerFirst,1.5,1.5,72,,,,,,,,
,,,,,,,,,,,,,,,773,2022-01-19_18h03.29.405,multiplicationStroop,2021.2.3,Win32,59.55926147,,,,,,,,,,,,,,,,,,,,,,,,,,,,,,,,,56,1.6501,1,0,24,24,23,1,8,×,7,8 × 7,neutral,largerFirst,1.5,1.5,56,,,,,,,,
,,,,,,,,,,,,,,,773,2022-01-19_18h03.29.405,multiplicationStroop,2021.2.3,Win32,59.55926147,,,,,,,,,,,,,,,,,,,,,,,,,,,,,,,,,10,1.4331,1,0,25,25,18,1,5,×,2,5 × 2,neutral,largerFirst,1.5,1.5,10,,,,,,,,
,,,,,,,,,,,,,,,773,2022-01-19_18h03.29.405,multiplicationStroop,2021.2.3,Win32,59.55926147,,,,,,,,,,,,,,,,,,,,,,,,,,,,,,,,,20,1.4999,1,0,26,26,6,1,4,×,5,4 × 5,neutral,smallerFirst,1.5,1.5,20,,,,,,,,
,,,,,,,,,,,,,,,773,2022-01-19_18h03.29.405,multiplicationStroop,2021.2.3,Win32,59.55926147,,,,,,,,,,,,,,,,,,,,,,,,,,,,,,,,,64,1.6669,1,0,27,27,34,1,8,×,8,8 × 8,neutral,tie,1.5,1.5,64,,,,,,,,
,,,,,,,,,,,,,,,773,2022-01-19_18h03.29.405,multiplicationStroop,2021.2.3,Win32,59.55926147,,,,,,,,,,,,,,,,,,,,,,,,,,,,,,,,,18,1.5501,1,0,28,28,14,1,6,×,3,6 × 3,neutral,largerFirst,1.5,1.5,18,,,,,,,,
,,,,,,,,,,,,,,,773,2022-01-19_18h03.29.405,multiplicationStroop,2021.2.3,Win32,59.55926147,,,,,,,,,,,,,,,,,,,,,,,,,,,,,,,,,32,1.6668,1,0,29,29,9,1,4,×,8,4 × 8,neutral,smallerFirst,1.5,1.5,32,,,,,,,,
,,,,,,,,,,,,,,,773,2022-01-19_18h03.29.405,multiplicationStroop,2021.2.3,Win32,59.55926147,,,,,,,,,,,,,,,,,,,,,,,,,,,,,,,,,8,1.5831,1,0,30,30,17,1,4,×,2,4 × 2,neutral,largerFirst,1.5,1.5,8,,,,,,,,
,,,,,,,,,,,,,,,773,2022-01-19_18h03.29.405,multiplicationStroop,2021.2.3,Win32,59.55926147,,,,,,,,,,,,,,,,,,,,,,,,,,,,,,,,,16,1.9335,1,0,31,31,27,1,8,×,2,8 × 2,neutral,largerFirst,1.5,1.5,16,,,,,,,,
,,,,,,,,,,,,,,,773,2022-01-19_18h03.29.405,multiplicationStroop,2021.2.3,Win32,59.55926147,,,,,,,,,,,,,,,,,,,,,,,,,,,,,,,,,54,1.7001,1,0,32,32,21,1,9,×,6,9 × 6,neutral,largerFirst,1.5,1.5,54,,,,,,,,
,,,,,,,,,,,,,,,773,2022-01-19_18h03.29.405,multiplicationStroop,2021.2.3,Win32,59.55926147,,,,,,,,,,,,,,,,,,,,,,,,,,,,,,,,,42,1.8668,1,0,33,33,20,1,7,×,6,7 × 6,neutral,largerFirst,1.5,1.5,42,,,,,,,,
,,,,,,,,,,,,,,,773,2022-01-19_18h03.29.405,multiplicationStroop,2021.2.3,Win32,59.55926147,,,,,,,,,,,,,,,,,,,,,,,,,,,,,,,,,6,22.0078,1,0,34,34,12,1,2,×,3,2 × 3,neutral,smallerFirst,1.5,1.5,6,,,,,,,,
,,,,,,,,,,,,,,,773,2022-01-19_18h03.29.405,multiplicationStroop,2021.2.3,Win32,59.55926147,,,,,,,,,,,,,,,,,,,,,,,,,,,,,,,,,28,1.6003,1,0,35,35,3,1,4,×,7,4 × 7,neutral,smallerFirst,1.5,1.5,28,,,,,,,,
,,,,,,,,,,,,,,,773,2022-01-19_18h03.29.405,multiplicationStroop,2021.2.3,Win32,59.55926147,,,,,,,,,,,,,,,,,,,,,,,,,,,,,,,,,,,,,,,,,,,,,,,,,,0,5,5,0,1,stimulusFile/mult_blk1.xlsx,,
,,,,,,,,,,,,,,,773,2022-01-19_18h03.29.405,multiplicationStroop,2021.2.3,Win32,59.55926147,,,,,,,,,,,,,,,,,,,,,,,,,,,,,,,,,,,,,,,,,,,,,,,,,,,,,,,,space,4.3948