welcomeKey_resp.keys,welcomeKey_resp.rt,X Scale,Y Scale,rt_resp_4.keys,rt_resp_4.corr,rt_resp_4.rt,speedtest_2.thisRepN,speedtest_2.thisTrialN,speedtest_2.thisN,speedtest_2.thisIndex,speedtest_2.ran,numberSc,posX,positionLayout,participant,date,expName,psychopyVersion,OS,frameRate,ct_instrresp.keys,ct_instrresp.rt,key_resp_2.keys,key_resp_2.rt,ct_keyResp.keys,ct_keyResp.corr,ct_keyResp.rt,trials.thisRepN,trials.thisTrialN,trials.thisN,trials.thisIndex,trials.ran,leftNo,rightNo,displayProblem,numDistance,leftNo_size,rightNo_size,Dims,keyAnswer,TS_Loop.thisRepN,TS_Loop.thisTrialN,TS_Loop.thisN,TS_Loop.thisIndex,TS_Loop.ran,Condition,ActionInst,instrImage,mltptaskInst_resp.keys,mltptaskInst_resp.rt,continue_resp_2.keys,continue_resp_2.rt,multp_Answer,multi_RT,multiplyCorr,LoopingMultiply.thisRepN,LoopingMultiply.thisTrialN,LoopingMultiply.thisN,LoopingMultiply.thisIndex,LoopingMultiply.ran,factor1,multiplySign,factor2,multliplyProblem,physicalSize,orderOperand,sizeF1,sizeF2,mult_answer,trials_stroop.thisRepN,trials_stroop.thisTrialN,trials_stroop.thisN,trials_stroop.thisIndex,trials_stroop.ran,multiplicationFile,esckey_resp_2.keys,esckey_resp_2.rt
y,9.9154,50.8,51,right,1,0.8062,0,0,0,14,1,8,200,right,774,2022-01-19_14h03.59.127,multiplicationStroop,2021.2.3,Win32,59.74786401,,,,,,,,,,,,,,,,,,,,,,,,,,,,,,,,,,,,,,,,,,,,,,,,,,,,,,,,,
,,,,right,1,0.4026,0,1,1,9,1,2,200,right,774,2022-01-19_14h03.59.127,multiplicationStroop,2021.2.3,Win32,59.74786401,,,,,,,,,,,,,,,,,,,,,,,,,,,,,,,,,,,,,,,,,,,,,,,,,,,,,,,,,
,,,,left,1,0.4345,0,2,2,2,1,3,-200,left,774,2022-01-19_14h03.59.127,multiplicationStroop,2021.2.3,Win32,59.74786401,,,,,,,,,,,,,,,,,,,,,,,,,,,,,,,,,,,,,,,,,,,,,,,,,,,,,,,,,
,,,,left,1,0.4476,0,3,3,3,1,4,-200,left,774,2022-01-19_14h03.59.127,multiplicationStroop,2021.2.3,Win32,59.74786401,,,,,,,,,,,,,,,,,,,,,,,,,,,,,,,,,,,,,,,,,,,,,,,,,,,,,,,,,
,,,,right,1,0.5081,0,4,4,13,1,7,200,right,774,2022-01-19_14h03.59.127,multiplicationStroop,2021.2.3,Win32,59.74786401,,,,,,,,,,,,,,,,,,,,,,,,,,,,,,,,,,,,,,,,,,,,,,,,,,,,,,,,,
,,,,right,1,0.3948,0,5,5,15,1,9,200,right,774,2022-01-19_14h03.59.127,multiplicationStroop,2021.2.3,Win32,59.74786401,,,,,,,,,,,,,,,,,,,,,,,,,,,,,,,,,,,,,,,,,,,,,,,,,,,,,,,,,
,,,,right,1,0.4487,0,6,6,11,1,4,200,right,774,2022-01-19_14h03.59.127,multiplicationStroop,2021.2.3,Win32,59.74786401,,,,,,,,,,,,,,,,,,,,,,,,,,,,,,,,,,,,,,,,,,,,,,,,,,,,,,,,,
,,,,left,1,0.6934,0,7,7,6,1,8,-200,left,774,2022-01-19_14h03.59.127,multiplicationStroop,2021.2.3,Win32,59.74786401,,,,,,,,,,,,,,,,,,,,,,,,,,,,,,,,,,,,,,,,,,,,,,,,,,,,,,,,,
,,,,left,1,0.4265,0,8,8,4,1,6,-200,left,774,2022-01-19_14h03.59.127,multiplicationStroop,2021.2.3,Win32,59.74786401,,,,,,,,,,,,,,,,,,,,,,,,,,,,,,,,,,,,,,,,,,,,,,,,,,,,,,,,,
,,,,left,1,0.3633,0,9,9,7,1,9,-200,left,774,2022-01-19_14h03.59.127,multiplicationStroop,2021.2.3,Win32,59.74786401,,,,,,,,,,,,,,,,,,,,,,,,,,,,,,,,,,,,,,,,,,,,,,,,,,,,,,,,,
,,,,right,1,0.3258,0,10,10,8,1,1,200,right,774,2022-01-19_14h03.59.127,multiplicationStroop,2021.2.3,Win32,59.74786401,,,,,,,,,,,,,,,,,,,,,,,,,,,,,,,,,,,,,,,,,,,,,,,,,,,,,,,,,
,,,,left,1,0.3798,0,11,11,1,1,2,-200,left,774,2022-01-19_14h03.59.127,multiplicationStroop,2021.2.3,Win32,59.74786401,,,,,,,,,,,,,,,,,,,,,,,,,,,,,,,,,,,,,,,,,,,,,,,,,,,,,,,,,
,,,,left,1,0.4122,0,12,12,5,1,7,-200,left,774,2022-01-19_14h03.59.127,multiplicationStroop,2021.2.3,Win32,59.74786401,,,,,,,,,,,,,,,,,,,,,,,,,,,,,,,,,,,,,,,,,,,,,,,,,,,,,,,,,
,,,,right,1,0.3796,0,13,13,10,1,3,200,right,774,2022-01-19_14h03.59.127,multiplicationStroop,2021.2.3,Win32,59.74786401,,,,,,,,,,,,,,,,,,,,,,,,,,,,,,,,,,,,,,,,,,,,,,,,,,,,,,,,,
,,,,left,1,0.3463,0,14,14,0,1,1,-200,left,774,2022-01-19_14h03.59.127,multiplicationStroop,2021.2.3,Win32,59.74786401,,,,,,,,,,,,,,,,,,,,,,,,,,,,,,,,,,,,,,,,,,,,,,,,,,,,,,,,,
,,,,right,1,0.3452,0,15,15,12,1,6,200,right,774,2022-01-19_14h03.59.127,multiplicationStroop,2021.2.3,Win32,59.74786401,,,,,,,,,,,,,,,,,,,,,,,,,,,,,,,,,,,,,,,,,,,,,,,,,,,,,,,,,
,,,,left,1,0.3231,1,0,16,4,1,6,-200,left,774,2022-01-19_14h03.59.127,multiplicationStroop,2021.2.3,Win32,59.74786401,,,,,,,,,,,,,,,,,,,,,,,,,,,,,,,,,,,,,,,,,,,,,,,,,,,,,,,,,
,,,,right,1,0.2982,1,1,17,13,1,7,200,right,774,2022-01-19_14h03.59.127,multiplicationStroop,2021.2.3,Win32,59.74786401,,,,,,,,,,,,,,,,,,,,,,,,,,,,,,,,,,,,,,,,,,,,,,,,,,,,,,,,,
,,,,left,1,0.3508,1,2,18,3,1,4,-200,left,774,2022-01-19_14h03.59.127,multiplicationStroop,2021.2.3,Win32,59.74786401,,,,,,,,,,,,,,,,,,,,,,,,,,,,,,,,,,,,,,,,,,,,,,,,,,,,,,,,,
,,,,right,1,0.3164,1,3,19,10,1,3,200,right,774,2022-01-19_14h03.59.127,multiplicationStroop,2021.2.3,Win32,59.74786401,,,,,,,,,,,,,,,,,,,,,,,,,,,,,,,,,,,,,,,,,,,,,,,,,,,,,,,,,
,,,,left,0,0.4013,1,4,20,11,1,4,200,right,774,2022-01-19_14h03.59.127,multiplicationStroop,2021.2.3,Win32,59.74786401,,,,,,,,,,,,,,,,,,,,,,,,,,,,,,,,,,,,,,,,,,,,,,,,,,,,,,,,,
,,,,left,1,0.4311,1,5,21,0,1,1,-200,left,774,2022-01-19_14h03.59.127,multiplicationStroop,2021.2.3,Win32,59.74786401,,,,,,,,,,,,,,,,,,,,,,,,,,,,,,,,,,,,,,,,,,,,,,,,,,,,,,,,,
,,,,right,1,0.4101,1,6,22,12,1,6,200,right,774,2022-01-19_14h03.59.127,multiplicationStroop,2021.2.3,Win32,59.74786401,,,,,,,,,,,,,,,,,,,,,,,,,,,,,,,,,,,,,,,,,,,,,,,,,,,,,,,,,
,,,,right,1,0.4107,1,7,23,9,1,2,200,right,774,2022-01-19_14h03.59.127,multiplicationStroop,2021.2.3,Win32,59.74786401,,,,,,,,,,,,,,,,,,,,,,,,,,,,,,,,,,,,,,,,,,,,,,,,,,,,,,,,,
,,,,left,1,0.4024,1,8,24,7,1,9,-200,left,774,2022-01-19_14h03.59.127,multiplicationStroop,2021.2.3,Win32,59.74786401,,,,,,,,,,,,,,,,,,,,,,,,,,,,,,,,,,,,,,,,,,,,,,,,,,,,,,,,,
,,,,right,1,0.3437,1,9,25,8,1,1,200,right,774,2022-01-19_14h03.59.127,multiplicationStroop,2021.2.3,Win32,59.74786401,,,,,,,,,,,,,,,,,,,,,,,,,,,,,,,,,,,,,,,,,,,,,,,,,,,,,,,,,
,,,,left,1,0.3816,1,10,26,2,1,3,-200,left,774,2022-01-19_14h03.59.127,multiplicationStroop,2021.2.3,Win32,59.74786401,,,,,,,,,,,,,,,,,,,,,,,,,,,,,,,,,,,,,,,,,,,,,,,,,,,,,,,,,
,,,,right,1,0.3267,1,11,27,15,1,9,200,right,774,2022-01-19_14h03.59.127,multiplicationStroop,2021.2.3,Win32,59.74786401,,,,,,,,,,,,,,,,,,,,,,,,,,,,,,,,,,,,,,,,,,,,,,,,,,,,,,,,,
,,,,right,1,0.3846,1,12,28,14,1,8,200,right,774,2022-01-19_14h03.59.127,multiplicationStroop,2021.2.3,Win32,59.74786401,,,,,,,,,,,,,,,,,,,,,,,,,,,,,,,,,,,,,,,,,,,,,,,,,,,,,,,,,
,,,,left,1,0.2983,1,13,29,5,1,7,-200,left,774,2022-01-19_14h03.59.127,multiplicationStroop,2021.2.3,Win32,59.74786401,,,,,,,,,,,,,,,,,,,,,,,,,,,,,,,,,,,,,,,,,,,,,,,,,,,,,,,,,
,,,,left,1,0.4037,1,14,30,6,1,8,-200,left,774,2022-01-19_14h03.59.127,multiplicationStroop,2021.2.3,Win32,59.74786401,,,,,,,,,,,,,,,,,,,,,,,,,,,,,,,,,,,,,,,,,,,,,,,,,,,,,,,,,
,,,,left,1,0.3492,1,15,31,1,1,2,-200,left,774,2022-01-19_14h03.59.127,multiplicationStroop,2021.2.3,Win32,59.74786401,,,,,,,,,,,,,,,,,,,,,,,,,,,,,,,,,,,,,,,,,,,,,,,,,,,,,,,,,
,,,,left,1,0.3173,2,0,32,5,1,7,-200,left,774,2022-01-19_14h03.59.127,multiplicationStroop,2021.2.3,Win32,59.74786401,,,,,,,,,,,,,,,,,,,,,,,,,,,,,,,,,,,,,,,,,,,,,,,,,,,,,,,,,
,,,,left,1,0.2963,2,1,33,6,1,8,-200,left,774,2022-01-19_14h03.59.127,multiplicationStroop,2021.2.3,Win32,59.74786401,,,,,,,,,,,,,,,,,,,,,,,,,,,,,,,,,,,,,,,,,,,,,,,,,,,,,,,,,
,,,,right,1,0.3048,2,2,34,8,1,1,200,right,774,2022-01-19_14h03.59.127,multiplicationStroop,2021.2.3,Win32,59.74786401,,,,,,,,,,,,,,,,,,,,,,,,,,,,,,,,,,,,,,,,,,,,,,,,,,,,,,,,,
,,,,right,1,0.4337,2,3,35,14,1,8,200,right,774,2022-01-19_14h03.59.127,multiplicationStroop,2021.2.3,Win32,59.74786401,,,,,,,,,,,,,,,,,,,,,,,,,,,,,,,,,,,,,,,,,,,,,,,,,,,,,,,,,
,,,,right,1,0.3435,2,4,36,15,1,9,200,right,774,2022-01-19_14h03.59.127,multiplicationStroop,2021.2.3,Win32,59.74786401,,,,,,,,,,,,,,,,,,,,,,,,,,,,,,,,,,,,,,,,,,,,,,,,,,,,,,,,,
,,,,right,1,0.2939,2,5,37,11,1,4,200,right,774,2022-01-19_14h03.59.127,multiplicationStroop,2021.2.3,Win32,59.74786401,,,,,,,,,,,,,,,,,,,,,,,,,,,,,,,,,,,,,,,,,,,,,,,,,,,,,,,,,
,,,,left,1,0.3331,2,6,38,1,1,2,-200,left,774,2022-01-19_14h03.59.127,multiplicationStroop,2021.2.3,Win32,59.74786401,,,,,,,,,,,,,,,,,,,,,,,,,,,,,,,,,,,,,,,,,,,,,,,,,,,,,,,,,
,,,,left,1,0.4024,2,7,39,0,1,1,-200,left,774,2022-01-19_14h03.59.127,multiplicationStroop,2021.2.3,Win32,59.74786401,,,,,,,,,,,,,,,,,,,,,,,,,,,,,,,,,,,,,,,,,,,,,,,,,,,,,,,,,
,,,,left,1,0.3321,2,8,40,4,1,6,-200,left,774,2022-01-19_14h03.59.127,multiplicationStroop,2021.2.3,Win32,59.74786401,,,,,,,,,,,,,,,,,,,,,,,,,,,,,,,,,,,,,,,,,,,,,,,,,,,,,,,,,
,,,,right,1,0.3351,2,9,41,12,1,6,200,right,774,2022-01-19_14h03.59.127,multiplicationStroop,2021.2.3,Win32,59.74786401,,,,,,,,,,,,,,,,,,,,,,,,,,,,,,,,,,,,,,,,,,,,,,,,,,,,,,,,,
,,,,right,1,0.3313,2,10,42,10,1,3,200,right,774,2022-01-19_14h03.59.127,multiplicationStroop,2021.2.3,Win32,59.74786401,,,,,,,,,,,,,,,,,,,,,,,,,,,,,,,,,,,,,,,,,,,,,,,,,,,,,,,,,
,,,,right,1,0.3,2,11,43,9,1,2,200,right,774,2022-01-19_14h03.59.127,multiplicationStroop,2021.2.3,Win32,59.74786401,,,,,,,,,,,,,,,,,,,,,,,,,,,,,,,,,,,,,,,,,,,,,,,,,,,,,,,,,
,,,,left,1,0.3471,2,12,44,3,1,4,-200,left,774,2022-01-19_14h03.59.127,multiplicationStroop,2021.2.3,Win32,59.74786401,,,,,,,,,,,,,,,,,,,,,,,,,,,,,,,,,,,,,,,,,,,,,,,,,,,,,,,,,
,,,,right,1,0.3826,2,13,45,13,1,7,200,right,774,2022-01-19_14h03.59.127,multiplicationStroop,2021.2.3,Win32,59.74786401,,,,,,,,,,,,,,,,,,,,,,,,,,,,,,,,,,,,,,,,,,,,,,,,,,,,,,,,,
,,,,left,1,0.305,2,14,46,2,1,3,-200,left,774,2022-01-19_14h03.59.127,multiplicationStroop,2021.2.3,Win32,59.74786401,,,,,,,,,,,,,,,,,,,,,,,,,,,,,,,,,,,,,,,,,,,,,,,,,,,,,,,,,
,,,,left,1,0.3608,2,15,47,7,1,9,-200,left,774,2022-01-19_14h03.59.127,multiplicationStroop,2021.2.3,Win32,59.74786401,,,,,,,,,,,,,,,,,,,,,,,,,,,,,,,,,,,,,,,,,,,,,,,,,,,,,,,,,
,,,,left,1,0.2933,3,0,48,3,1,4,-200,left,774,2022-01-19_14h03.59.127,multiplicationStroop,2021.2.3,Win32,59.74786401,,,,,,,,,,,,,,,,,,,,,,,,,,,,,,,,,,,,,,,,,,,,,,,,,,,,,,,,,
,,,,right,1,0.2798,3,1,49,9,1,2,200,right,774,2022-01-19_14h03.59.127,multiplicationStroop,2021.2.3,Win32,59.74786401,,,,,,,,,,,,,,,,,,,,,,,,,,,,,,,,,,,,,,,,,,,,,,,,,,,,,,,,,
,,,,left,1,0.3193,3,2,50,4,1,6,-200,left,774,2022-01-19_14h03.59.127,multiplicationStroop,2021.2.3,Win32,59.74786401,,,,,,,,,,,,,,,,,,,,,,,,,,,,,,,,,,,,,,,,,,,,,,,,,,,,,,,,,
,,,,left,1,0.3162,3,3,51,5,1,7,-200,left,774,2022-01-19_14h03.59.127,multiplicationStroop,2021.2.3,Win32,59.74786401,,,,,,,,,,,,,,,,,,,,,,,,,,,,,,,,,,,,,,,,,,,,,,,,,,,,,,,,,
,,,,left,1,0.2769,3,4,52,7,1,9,-200,left,774,2022-01-19_14h03.59.127,multiplicationStroop,2021.2.3,Win32,59.74786401,,,,,,,,,,,,,,,,,,,,,,,,,,,,,,,,,,,,,,,,,,,,,,,,,,,,,,,,,
,,,,right,1,0.3348,3,5,53,10,1,3,200,right,774,2022-01-19_14h03.59.127,multiplicationStroop,2021.2.3,Win32,59.74786401,,,,,,,,,,,,,,,,,,,,,,,,,,,,,,,,,,,,,,,,,,,,,,,,,,,,,,,,,
,,,,right,1,0.3028,3,6,54,14,1,8,200,right,774,2022-01-19_14h03.59.127,multiplicationStroop,2021.2.3,Win32,59.74786401,,,,,,,,,,,,,,,,,,,,,,,,,,,,,,,,,,,,,,,,,,,,,,,,,,,,,,,,,
,,,,right,1,0.2868,3,7,55,13,1,7,200,right,774,2022-01-19_14h03.59.127,multiplicationStroop,2021.2.3,Win32,59.74786401,,,,,,,,,,,,,,,,,,,,,,,,,,,,,,,,,,,,,,,,,,,,,,,,,,,,,,,,,
,,,,right,1,0.2633,3,8,56,12,1,6,200,right,774,2022-01-19_14h03.59.127,multiplicationStroop,2021.2.3,Win32,59.74786401,,,,,,,,,,,,,,,,,,,,,,,,,,,,,,,,,,,,,,,,,,,,,,,,,,,,,,,,,
,,,,left,1,0.3198,3,9,57,1,1,2,-200,left,774,2022-01-19_14h03.59.127,multiplicationStroop,2021.2.3,Win32,59.74786401,,,,,,,,,,,,,,,,,,,,,,,,,,,,,,,,,,,,,,,,,,,,,,,,,,,,,,,,,
,,,,left,1,0.3376,3,10,58,2,1,3,-200,left,774,2022-01-19_14h03.59.127,multiplicationStroop,2021.2.3,Win32,59.74786401,,,,,,,,,,,,,,,,,,,,,,,,,,,,,,,,,,,,,,,,,,,,,,,,,,,,,,,,,
,,,,left,1,0.2938,3,11,59,6,1,8,-200,left,774,2022-01-19_14h03.59.127,multiplicationStroop,2021.2.3,Win32,59.74786401,,,,,,,,,,,,,,,,,,,,,,,,,,,,,,,,,,,,,,,,,,,,,,,,,,,,,,,,,
,,,,right,1,0.3152,3,12,60,11,1,4,200,right,774,2022-01-19_14h03.59.127,multiplicationStroop,2021.2.3,Win32,59.74786401,,,,,,,,,,,,,,,,,,,,,,,,,,,,,,,,,,,,,,,,,,,,,,,,,,,,,,,,,
,,,,right,1,0.3378,3,13,61,8,1,1,200,right,774,2022-01-19_14h03.59.127,multiplicationStroop,2021.2.3,Win32,59.74786401,,,,,,,,,,,,,,,,,,,,,,,,,,,,,,,,,,,,,,,,,,,,,,,,,,,,,,,,,
,,,,right,1,0.3108,3,14,62,15,1,9,200,right,774,2022-01-19_14h03.59.127,multiplicationStroop,2021.2.3,Win32,59.74786401,,,,,,,,,,,,,,,,,,,,,,,,,,,,,,,,,,,,,,,,,,,,,,,,,,,,,,,,,
,,,,left,1,0.3033,3,15,63,0,1,1,-200,left,774,2022-01-19_14h03.59.127,multiplicationStroop,2021.2.3,Win32,59.74786401,,,,,,,,,,,,,,,,,,,,,,,,,,stimulusFile/physical.xlsx,,,,,,,,,,,,,,,,,,,,,,,,,,,,,,,
,,,,,,,,,,,,,,,774,2022-01-19_14h03.59.127,multiplicationStroop,2021.2.3,Win32,59.74786401,space,18.7447,space,7.5826,left,1,0.6954,0,0,0,12,1,3,1,3 | 1,2,1.9756,1.4111,congruent,left,,,,,,stimulusFile/physical.xlsx,,,,,,,,,,,,,,,,,,,,,,,,,,,,,,,
,,,,,,,,,,,,,,,774,2022-01-19_14h03.59.127,multiplicationStroop,2021.2.3,Win32,59.74786401,,,,,right,1,0.4949,0,1,1,3,1,8,9,8 | 9,1,1.4111,1.9756,congruent,right,,,,,,stimulusFile/physical.xlsx,,,,,,,,,,,,,,,,,,,,,,,,,,,,,,,
,,,,,,,,,,,,,,,774,2022-01-19_14h03.59.127,multiplicationStroop,2021.2.3,Win32,59.74786401,,,,,left,1,0.6178,0,2,2,14,1,8,6,8 | 6,2,1.9756,1.4111,congruent,left,,,,,,stimulusFile/physical.xlsx,,,,,,,,,,,,,,,,,,,,,,,,,,,,,,,
,,,,,,,,,,,,,,,774,2022-01-19_14h03.59.127,multiplicationStroop,2021.2.3,Win32,59.74786401,,,,,right,1,0.5811,0,3,3,28,1,2,1,2 | 1,1,1.4111,1.9756,incongruent,right,,,,,,stimulusFile/physical.xlsx,,,,,,,,,,,,,,,,,,,,,,,,,,,,,,,
,,,,,,,,,,,,,,,774,2022-01-19_14h03.59.127,multiplicationStroop,2021.2.3,Win32,59.74786401,,,,,left,1,0.4891,0,4,4,42,1,3,8,3 | 8,5,1.9756,1.4111,incongruent,left,,,,,,stimulusFile/physical.xlsx,,,,,,,,,,,,,,,,,,,,,,,,,,,,,,,
,,,,,,,,,,,,,,,774,2022-01-19_14h03.59.127,multiplicationStroop,2021.2.3,Win32,59.74786401,,,,,left,0,0.4908,0,5,5,66,1,3,3,3 | 3,0,1.9756,1.4111,neutral,right,,,,,,stimulusFile/physical.xlsx,,,,,,,,,,,,,,,,,,,,,,,,,,,,,,,
,,,,,,,,,,,,,,,774,2022-01-19_14h03.59.127,multiplicationStroop,2021.2.3,Win32,59.74786401,,,,,right,1,0.4371,0,6,6,58,1,6,6,6 | 6,0,1.4111,1.9756,neutral,right,,,,,,stimulusFile/physical.xlsx,,,,,,,,,,,,,,,,,,,,,,,,,,,,,,,
,,,,,,,,,,,,,,,774,2022-01-19_14h03.59.127,multiplicationStroop,2021.2.3,Win32,59.74786401,,,,,left,1,0.41,0,7,7,23,1,9,4,9 | 4,5,1.9756,1.4111,congruent,left,,,,,,stimulusFile/physical.xlsx,,,,,,,,,,,,,,,,,,,,,,,,,,,,,,,
,,,,,,,,,,,,,,,774,2022-01-19_14h03.59.127,multiplicationStroop,2021.2.3,Win32,59.74786401,,,,,right,1,0.5058,0,8,8,36,1,3,1,3 | 1,2,1.4111,1.9756,incongruent,right,,,,,,stimulusFile/physical.xlsx,,,,,,,,,,,,,,,,,,,,,,,,,,,,,,,
,,,,,,,,,,,,,,,774,2022-01-19_14h03.59.127,multiplicationStroop,2021.2.3,Win32,59.74786401,,,,,left,1,0.5166,0,9,9,40,1,1,6,1 | 6,5,1.9756,1.4111,incongruent,left,,,,,,stimulusFile/physical.xlsx,,,,,,,,,,,,,,,,,,,,,,,,,,,,,,,
,,,,,,,,,,,,,,,774,2022-01-19_14h03.59.127,multiplicationStroop,2021.2.3,Win32,59.74786401,,,,,right,1,0.4634,0,10,10,29,1,4,3,4 | 3,1,1.4111,1.9756,incongruent,right,,,,,,stimulusFile/physical.xlsx,,,,,,,,,,,,,,,,,,,,,,,,,,,,,,,
,,,,,,,,,,,,,,,774,2022-01-19_14h03.59.127,multiplicationStroop,2021.2.3,Win32,59.74786401,,,,,left,1,0.4616,0,11,11,50,1,6,6,6 | 6,0,1.9756,1.4111,neutral,left,,,,,,stimulusFile/physical.xlsx,,,,,,,,,,,,,,,,,,,,,,,,,,,,,,,
,,,,,,,,,,,,,,,774,2022-01-19_14h03.59.127,multiplicationStroop,2021.2.3,Win32,59.74786401,,,,,left,1,0.492,0,12,12,33,1,2,4,2 | 4,2,1.9756,1.4111,incongruent,left,,,,,,stimulusFile/physical.xlsx,,,,,,,,,,,,,,,,,,,,,,,,,,,,,,,
,,,,,,,,,,,,,,,774,2022-01-19_14h03.59.127,multiplicationStroop,2021.2.3,Win32,59.74786401,,,,,right,1,0.432,0,13,13,46,1,8,3,8 | 3,5,1.4111,1.9756,incongruent,right,,,,,,stimulusFile/physical.xlsx,,,,,,,,,,,,,,,,,,,,,,,,,,,,,,,
,,,,,,,,,,,,,,,774,2022-01-19_14h03.59.127,multiplicationStroop,2021.2.3,Win32,59.74786401,,,,,left,1,0.4496,0,14,14,32,1,1,3,1 | 3,2,1.9756,1.4111,incongruent,left,,,,,,stimulusFile/physical.xlsx,,,,,,,,,,,,,,,,,,,,,,,,,,,,,,,
,,,,,,,,,,,,,,,774,2022-01-19_14h03.59.127,multiplicationStroop,2021.2.3,Win32,59.74786401,,,,,right,1,0.3469,0,15,15,62,1,8,8,8 | 8,0,1.4111,1.9756,neutral,right,,,,,,stimulusFile/physical.xlsx,,,,,,,,,,,,,,,,,,,,,,,,,,,,,,,
,,,,,,,,,,,,,,,774,2022-01-19_14h03.59.127,multiplicationStroop,2021.2.3,Win32,59.74786401,,,,,right,0,0.3904,0,16,16,70,1,8,8,8 | 8,0,1.9756,1.4111,neutral,left,,,,,,stimulusFile/physical.xlsx,,,,,,,,,,,,,,,,,,,,,,,,,,,,,,,
,,,,,,,,,,,,,,,774,2022-01-19_14h03.59.127,multiplicationStroop,2021.2.3,Win32,59.74786401,,,,,left,1,0.5056,0,17,17,15,1,9,7,9 | 7,2,1.9756,1.4111,congruent,left,,,,,,stimulusFile/physical.xlsx,,,,,,,,,,,,,,,,,,,,,,,,,,,,,,,
,,,,,,,,,,,,,,,774,2022-01-19_14h03.59.127,multiplicationStroop,2021.2.3,Win32,59.74786401,,,,,right,1,0.3857,0,18,18,39,1,9,7,9 | 7,2,1.4111,1.9756,incongruent,right,,,,,,stimulusFile/physical.xlsx,,,,,,,,,,,,,,,,,,,,,,,,,,,,,,,
,,,,,,,,,,,,,,,774,2022-01-19_14h03.59.127,multiplicationStroop,2021.2.3,Win32,59.74786401,,,,,right,1,0.4932,0,19,19,38,1,8,6,8 | 6,2,1.4111,1.9756,incongruent,right,,,,,,stimulusFile/physical.xlsx,,,,,,,,,,,,,,,,,,,,,,,,,,,,,,,
,,,,,,,,,,,,,,,774,2022-01-19_14h03.59.127,multiplicationStroop,2021.2.3,Win32,59.74786401,,,,,right,1,0.4374,0,20,20,30,1,7,6,7 | 6,1,1.4111,1.9756,incongruent,right,,,,,,stimulusFile/physical.xlsx,,,,,,,,,,,,,,,,,,,,,,,,,,,,,,,
,,,,,,,,,,,,,,,774,2022-01-19_14h03.59.127,multiplicationStroop,2021.2.3,Win32,59.74786401,,,,,left,1,0.4945,0,21,21,27,1,8,9,8 | 9,1,1.9756,1.4111,incongruent,left,,,,,,stimulusFile/physical.xlsx,,,,,,,,,,,,,,,,,,,,,,,,,,,,,,,
,,,,,,,,,,,,,,,774,2022-01-19_14h03.59.127,multiplicationStroop,2021.2.3,Win32,59.74786401,,,,,right,0,0.4517,0,22,22,71,1,9,9,9 | 9,0,1.4111,1.9756,neutral,left,,,,,,stimulusFile/physical.xlsx,,,,,,,,,,,,,,,,,,,,,,,,,,,,,,,
,,,,,,,,,,,,,,,774,2022-01-19_14h03.59.127,multiplicationStroop,2021.2.3,Win32,59.74786401,,,,,right,1,0.5292,0,23,23,0,1,1,2,1 | 2,1,1.4111,1.9756,congruent,right,,,,,,stimulusFile/physical.xlsx,,,,,,,,,,,,,,,,,,,,,,,,,,,,,,,
,,,,,,,,,,,,,,,774,2022-01-19_14h03.59.127,multiplicationStroop,2021.2.3,Win32,59.74786401,,,,,right,1,0.483,0,24,24,17,1,2,7,2 | 7,5,1.4111,1.9756,congruent,right,,,,,,stimulusFile/physical.xlsx,,,,,,,,,,,,,,,,,,,,,,,,,,,,,,,
,,,,,,,,,,,,,,,774,2022-01-19_14h03.59.127,multiplicationStroop,2021.2.3,Win32,59.74786401,,,,,right,1,0.4643,0,25,25,10,1,6,8,6 | 8,2,1.4111,1.9756,congruent,right,,,,,,stimulusFile/physical.xlsx,,,,,,,,,,,,,,,,,,,,,,,,,,,,,,,
,,,,,,,,,,,,,,,774,2022-01-19_14h03.59.127,multiplicationStroop,2021.2.3,Win32,59.74786401,,,,,right,1,0.4161,0,26,26,60,1,3,3,3 | 3,0,1.4111,1.9756,neutral,right,,,,,,stimulusFile/physical.xlsx,,,,,,,,,,,,,,,,,,,,,,,,,,,,,,,
,,,,,,,,,,,,,,,774,2022-01-19_14h03.59.127,multiplicationStroop,2021.2.3,Win32,59.74786401,,,,,left,1,0.4442,0,27,27,4,1,2,1,2 | 1,1,1.9756,1.4111,congruent,left,,,,,,stimulusFile/physical.xlsx,,,,,,,,,,,,,,,,,,,,,,,,,,,,,,,
,,,,,,,,,,,,,,,774,2022-01-19_14h03.59.127,multiplicationStroop,2021.2.3,Win32,59.74786401,,,,,right,1,0.5051,0,28,28,47,1,9,4,9 | 4,5,1.4111,1.9756,incongruent,right,,,,,,stimulusFile/physical.xlsx,,,,,,,,,,,,,,,,,,,,,,,,,,,,,,,
,,,,,,,,,,,,,,,774,2022-01-19_14h03.59.127,multiplicationStroop,2021.2.3,Win32,59.74786401,,,,,left,1,0.4427,0,29,29,26,1,6,7,6 | 7,1,1.9756,1.4111,incongruent,left,,,,,,stimulusFile/physical.xlsx,,,,,,,,,,,,,,,,,,,,,,,,,,,,,,,
,,,,,,,,,,,,,,,774,2022-01-19_14h03.59.127,multiplicationStroop,2021.2.3,Win32,59.74786401,,,,,left,1,0.4328,0,30,30,5,1,4,3,4 | 3,1,1.9756,1.4111,congruent,left,,,,,,stimulusFile/physical.xlsx,,,,,,,,,,,,,,,,,,,,,,,,,,,,,,,
,,,,,,,,,,,,,,,774,2022-01-19_14h03.59.127,multiplicationStroop,2021.2.3,Win32,59.74786401,,,,,left,0,0.4166,0,31,31,67,1,4,4,4 | 4,0,1.4111,1.9756,neutral,right,,,,,,stimulusFile/physical.xlsx,,,,,,,,,,,,,,,,,,,,,,,,,,,,,,,
,,,,,,,,,,,,,,,774,2022-01-19_14h03.59.127,multiplicationStroop,2021.2.3,Win32,59.74786401,,,,,right,1,0.4961,0,32,32,57,1,2,2,2 | 2,0,1.4111,1.9756,neutral,right,,,,,,stimulusFile/physical.xlsx,,,,,,,,,,,,,,,,,,,,,,,,,,,,,,,
,,,,,,,,,,,,,,,774,2022-01-19_14h03.59.127,multiplicationStroop,2021.2.3,Win32,59.74786401,,,,,left,1,0.4657,0,33,33,24,1,1,2,1 | 2,1,1.9756,1.4111,incongruent,left,,,,,,stimulusFile/physical.xlsx,,,,,,,,,,,,,,,,,,,,,,,,,,,,,,,
,,,,,,,,,,,,,,,774,2022-01-19_14h03.59.127,multiplicationStroop,2021.2.3,Win32,59.74786401,,,,,right,0,0.3963,0,34,34,69,1,7,7,7 | 7,0,1.4111,1.9756,neutral,left,,,,,,stimulusFile/physical.xlsx,,,,,,,,,,,,,,,,,,,,,,,,,,,,,,,
,,,,,,,,,,,,,,,774,2022-01-19_14h03.59.127,multiplicationStroop,2021.2.3,Win32,59.74786401,,,,,right,1,0.4178,0,35,35,2,1,6,7,6 | 7,1,1.4111,1.9756,congruent,right,,,,,,stimulusFile/physical.xlsx,,,,,,,,,,,,,,,,,,,,,,,,,,,,,,,
,,,,,,,,,,,,,,,774,2022-01-19_14h03.59.127,multiplicationStroop,2021.2.3,Win32,59.74786401,,,,,left,1,0.4823,0,36,36,54,1,7,7,7 | 7,0,1.9756,1.4111,neutral,left,,,,,,stimulusFile/physical.xlsx,,,,,,,,,,,,,,,,,,,,,,,,,,,,,,,
,,,,,,,,,,,,,,,774,2022-01-19_14h03.59.127,multiplicationStroop,2021.2.3,Win32,59.74786401,,,,,left,1,0.45,0,37,37,25,1,3,4,3 | 4,1,1.9756,1.4111,incongruent,left,,,,,,stimulusFile/physical.xlsx,,,,,,,,,,,,,,,,,,,,,,,,,,,,,,,
,,,,,,,,,,,,,,,774,2022-01-19_14h03.59.127,multiplicationStroop,2021.2.3,Win32,59.74786401,,,,,right,1,0.4614,0,38,38,56,1,1,1,1 | 1,0,1.4111,1.9756,neutral,right,,,,,,stimulusFile/physical.xlsx,,,,,,,,,,,,,,,,,,,,,,,,,,,,,,,
,,,,,,,,,,,,,,,774,2022-01-19_14h03.59.127,multiplicationStroop,2021.2.3,Win32,59.74786401,,,,,left,1,0.4604,0,39,39,13,1,4,2,4 | 2,2,1.9756,1.4111,congruent,left,,,,,,stimulusFile/physical.xlsx,,,,,,,,,,,,,,,,,,,,,,,,,,,,,,,
,,,,,,,,,,,,,,,774,2022-01-19_14h03.59.127,multiplicationStroop,2021.2.3,Win32,59.74786401,,,,,left,1,0.4233,0,40,40,51,1,8,8,8 | 8,0,1.9756,1.4111,neutral,left,,,,,,stimulusFile/physical.xlsx,,,,,,,,,,,,,,,,,,,,,,,,,,,,,,,
,,,,,,,,,,,,,,,774,2022-01-19_14h03.59.127,multiplicationStroop,2021.2.3,Win32,59.74786401,,,,,left,1,0.494,0,41,41,41,1,2,7,2 | 7,5,1.9756,1.4111,incongruent,left,,,,,,stimulusFile/physical.xlsx,,,,,,,,,,,,,,,,,,,,,,,,,,,,,,,
,,,,,,,,,,,,,,,774,2022-01-19_14h03.59.127,multiplicationStroop,2021.2.3,Win32,59.74786401,,,,,right,1,0.5,0,42,42,65,1,2,2,2 | 2,0,1.4111,1.9756,neutral,right,,,,,,stimulusFile/physical.xlsx,,,,,,,,,,,,,,,,,,,,,,,,,,,,,,,
,,,,,,,,,,,,,,,774,2022-01-19_14h03.59.127,multiplicationStroop,2021.2.3,Win32,59.74786401,,,,,left,0,0.4677,0,43,43,64,1,1,1,1 | 1,0,1.9756,1.4111,neutral,right,,,,,,stimulusFile/physical.xlsx,,,,,,,,,,,,,,,,,,,,,,,,,,,,,,,
,,,,,,,,,,,,,,,774,2022-01-19_14h03.59.127,multiplicationStroop,2021.2.3,Win32,59.74786401,,,,,right,1,0.4689,0,44,44,8,1,1,3,1 | 3,2,1.4111,1.9756,congruent,right,,,,,,stimulusFile/physical.xlsx,,,,,,,,,,,,,,,,,,,,,,,,,,,,,,,
,,,,,,,,,,,,,,,774,2022-01-19_14h03.59.127,multiplicationStroop,2021.2.3,Win32,59.74786401,,,,,left,1,0.3564,0,45,45,21,1,7,2,7 | 2,5,1.9756,1.4111,congruent,left,,,,,,stimulusFile/physical.xlsx,,,,,,,,,,,,,,,,,,,,,,,,,,,,,,,
,,,,,,,,,,,,,,,774,2022-01-19_14h03.59.127,multiplicationStroop,2021.2.3,Win32,59.74786401,,,,,left,1,0.4943,0,46,46,68,1,6,6,6 | 6,0,1.9756,1.4111,neutral,left,,,,,,stimulusFile/physical.xlsx,,,,,,,,,,,,,,,,,,,,,,,,,,,,,,,
,,,,,,,,,,,,,,,774,2022-01-19_14h03.59.127,multiplicationStroop,2021.2.3,Win32,59.74786401,,,,,right,1,0.3903,0,47,47,18,1,3,8,3 | 8,5,1.4111,1.9756,congruent,right,,,,,,stimulusFile/physical.xlsx,,,,,,,,,,,,,,,,,,,,,,,,,,,,,,,
,,,,,,,,,,,,,,,774,2022-01-19_14h03.59.127,multiplicationStroop,2021.2.3,Win32,59.74786401,,,,,right,1,0.4353,0,48,48,59,1,7,7,7 | 7,0,1.4111,1.9756,neutral,right,,,,,,stimulusFile/physical.xlsx,,,,,,,,,,,,,,,,,,,,,,,,,,,,,,,
,,,,,,,,,,,,,,,774,2022-01-19_14h03.59.127,multiplicationStroop,2021.2.3,Win32,59.74786401,,,,,right,1,0.407,0,49,49,1,1,3,4,3 | 4,1,1.4111,1.9756,congruent,right,,,,,,stimulusFile/physical.xlsx,,,,,,,,,,,,,,,,,,,,,,,,,,,,,,,
,,,,,,,,,,,,,,,774,2022-01-19_14h03.59.127,multiplicationStroop,2021.2.3,Win32,59.74786401,,,,,right,0,0.307,0,50,50,53,1,4,4,4 | 4,0,1.9756,1.4111,neutral,left,,,,,,stimulusFile/physical.xlsx,,,,,,,,,,,,,,,,,,,,,,,,,,,,,,,
,,,,,,,,,,,,,,,774,2022-01-19_14h03.59.127,multiplicationStroop,2021.2.3,Win32,59.74786401,,,,,left,1,0.4989,0,51,51,22,1,8,3,8 | 3,5,1.9756,1.4111,congruent,left,,,,,,stimulusFile/physical.xlsx,,,,,,,,,,,,,,,,,,,,,,,,,,,,,,,
,,,,,,,,,,,,,,,774,2022-01-19_14h03.59.127,multiplicationStroop,2021.2.3,Win32,59.74786401,,,,,left,1,0.4805,0,52,52,52,1,2,2,2 | 2,0,1.9756,1.4111,neutral,left,,,,,,stimulusFile/physical.xlsx,,,,,,,,,,,,,,,,,,,,,,,,,,,,,,,
,,,,,,,,,,,,,,,774,2022-01-19_14h03.59.127,multiplicationStroop,2021.2.3,Win32,59.74786401,,,,,right,1,0.4481,0,53,53,45,1,7,2,7 | 2,5,1.4111,1.9756,incongruent,right,,,,,,stimulusFile/physical.xlsx,,,,,,,,,,,,,,,,,,,,,,,,,,,,,,,
,,,,,,,,,,,,,,,774,2022-01-19_14h03.59.127,multiplicationStroop,2021.2.3,Win32,59.74786401,,,,,right,1,0.4223,0,54,54,19,1,4,9,4 | 9,5,1.4111,1.9756,congruent,right,,,,,,stimulusFile/physical.xlsx,,,,,,,,,,,,,,,,,,,,,,,,,,,,,,,
,,,,,,,,,,,,,,,774,2022-01-19_14h03.59.127,multiplicationStroop,2021.2.3,Win32,59.74786401,,,,,right,1,0.3388,0,55,55,31,1,9,8,9 | 8,1,1.4111,1.9756,incongruent,right,,,,,,stimulusFile/physical.xlsx,,,,,,,,,,,,,,,,,,,,,,,,,,,,,,,
,,,,,,,,,,,,,,,774,2022-01-19_14h03.59.127,multiplicationStroop,2021.2.3,Win32,59.74786401,,,,,left,1,0.3988,0,56,56,20,1,6,1,6 | 1,5,1.9756,1.4111,congruent,left,,,,,,stimulusFile/physical.xlsx,,,,,,,,,,,,,,,,,,,,,,,,,,,,,,,
,,,,,,,,,,,,,,,774,2022-01-19_14h03.59.127,multiplicationStroop,2021.2.3,Win32,59.74786401,,,,,left,1,0.4681,0,57,57,34,1,6,8,6 | 8,2,1.9756,1.4111,incongruent,left,,,,,,stimulusFile/physical.xlsx,,,,,,,,,,,,,,,,,,,,,,,,,,,,,,,
,,,,,,,,,,,,,,,774,2022-01-19_14h03.59.127,multiplicationStroop,2021.2.3,Win32,59.74786401,,,,,right,1,0.4224,0,58,58,61,1,4,4,4 | 4,0,1.4111,1.9756,neutral,right,,,,,,stimulusFile/physical.xlsx,,,,,,,,,,,,,,,,,,,,,,,,,,,,,,,
,,,,,,,,,,,,,,,774,2022-01-19_14h03.59.127,multiplicationStroop,2021.2.3,Win32,59.74786401,,,,,right,1,0.4443,0,59,59,11,1,7,9,7 | 9,2,1.4111,1.9756,congruent,right,,,,,,stimulusFile/physical.xlsx,,,,,,,,,,,,,,,,,,,,,,,,,,,,,,,
,,,,,,,,,,,,,,,774,2022-01-19_14h03.59.127,multiplicationStroop,2021.2.3,Win32,59.74786401,,,,,right,1,0.3724,0,60,60,16,1,1,6,1 | 6,5,1.4111,1.9756,congruent,right,,,,,,stimulusFile/physical.xlsx,,,,,,,,,,,,,,,,,,,,,,,,,,,,,,,
,,,,,,,,,,,,,,,774,2022-01-19_14h03.59.127,multiplicationStroop,2021.2.3,Win32,59.74786401,,,,,left,1,0.3776,0,61,61,48,1,1,1,1 | 1,0,1.9756,1.4111,neutral,left,,,,,,stimulusFile/physical.xlsx,,,,,,,,,,,,,,,,,,,,,,,,,,,,,,,
,,,,,,,,,,,,,,,774,2022-01-19_14h03.59.127,multiplicationStroop,2021.2.3,Win32,59.74786401,,,,,left,1,0.3991,0,62,62,55,1,9,9,9 | 9,0,1.9756,1.4111,neutral,left,,,,,,stimulusFile/physical.xlsx,,,,,,,,,,,,,,,,,,,,,,,,,,,,,,,
,,,,,,,,,,,,,,,774,2022-01-19_14h03.59.127,multiplicationStroop,2021.2.3,Win32,59.74786401,,,,,left,1,0.4734,0,63,63,6,1,7,6,7 | 6,1,1.9756,1.4111,congruent,left,,,,,,stimulusFile/physical.xlsx,,,,,,,,,,,,,,,,,,,,,,,,,,,,,,,
,,,,,,,,,,,,,,,774,2022-01-19_14h03.59.127,multiplicationStroop,2021.2.3,Win32,59.74786401,,,,,left,1,0.3445,0,64,64,7,1,9,8,9 | 8,1,1.9756,1.4111,congruent,left,,,,,,stimulusFile/physical.xlsx,,,,,,,,,,,,,,,,,,,,,,,,,,,,,,,
,,,,,,,,,,,,,,,774,2022-01-19_14h03.59.127,multiplicationStroop,2021.2.3,Win32,59.74786401,,,,,left,1,0.4017,0,65,65,35,1,7,9,7 | 9,2,1.9756,1.4111,incongruent,left,,,,,,stimulusFile/physical.xlsx,,,,,,,,,,,,,,,,,,,,,,,,,,,,,,,
,,,,,,,,,,,,,,,774,2022-01-19_14h03.59.127,multiplicationStroop,2021.2.3,Win32,59.74786401,,,,,left,1,0.3407,0,66,66,49,1,3,3,3 | 3,0,1.9756,1.4111,neutral,left,,,,,,stimulusFile/physical.xlsx,,,,,,,,,,,,,,,,,,,,,,,,,,,,,,,
,,,,,,,,,,,,,,,774,2022-01-19_14h03.59.127,multiplicationStroop,2021.2.3,Win32,59.74786401,,,,,right,1,0.4478,0,67,67,63,1,9,9,9 | 9,0,1.4111,1.9756,neutral,right,,,,,,stimulusFile/physical.xlsx,,,,,,,,,,,,,,,,,,,,,,,,,,,,,,,
,,,,,,,,,,,,,,,774,2022-01-19_14h03.59.127,multiplicationStroop,2021.2.3,Win32,59.74786401,,,,,right,1,0.407,0,68,68,9,1,2,4,2 | 4,2,1.4111,1.9756,congruent,right,,,,,,stimulusFile/physical.xlsx,,,,,,,,,,,,,,,,,,,,,,,,,,,,,,,
,,,,,,,,,,,,,,,774,2022-01-19_14h03.59.127,multiplicationStroop,2021.2.3,Win32,59.74786401,,,,,right,1,0.318,0,69,69,44,1,6,1,6 | 1,5,1.4111,1.9756,incongruent,right,,,,,,stimulusFile/physical.xlsx,,,,,,,,,,,,,,,,,,,,,,,,,,,,,,,
,,,,,,,,,,,,,,,774,2022-01-19_14h03.59.127,multiplicationStroop,2021.2.3,Win32,59.74786401,,,,,right,1,0.4394,0,70,70,37,1,4,2,4 | 2,2,1.4111,1.9756,incongruent,right,,,,,,stimulusFile/physical.xlsx,,,,,,,,,,,,,,,,,,,,,,,,,,,,,,,
,,,,,,,,,,,,,,,774,2022-01-19_14h03.59.127,multiplicationStroop,2021.2.3,Win32,59.74786401,,,,,right,0,0.3088,0,71,71,43,1,4,9,4 | 9,5,1.9756,1.4111,incongruent,left,,,,,,stimulusFile/physical.xlsx,,,,,,,,,,,,,,,,,,,,,,,,,,,,,,,
,,,,,,,,,,,,,,,774,2022-01-19_14h03.59.127,multiplicationStroop,2021.2.3,Win32,59.74786401,,,,,,,,,,,,,,,,,,,,,0,0,0,1,1,stimulusFile/physical.xlsx,PHYSICALLY larger (larger font size).,images/physicallyLarger.png,,,,,,,,,,,,,,,,,,,,,,,,,,,,,
,,,,,,,,,,,,,,,774,2022-01-19_14h03.59.127,multiplicationStroop,2021.2.3,Win32,59.74786401,space,9.6167,space,6.7072,left,1,0.788,0,0,0,28,1,2,1,2 | 1,1,1.4111,1.9756,incongruent,left,,,,,,stimulusFile/magnitude.xlsx,,,,,,,,,,,,,,,,,,,,,,,,,,,,,,,
,,,,,,,,,,,,,,,774,2022-01-19_14h03.59.127,multiplicationStroop,2021.2.3,Win32,59.74786401,,,,,right,1,0.6261,0,1,1,67,1,4,9,4 | 9,5,1.6933,1.6933,neutral,right,,,,,,stimulusFile/magnitude.xlsx,,,,,,,,,,,,,,,,,,,,,,,,,,,,,,,
,,,,,,,,,,,,,,,774,2022-01-19_14h03.59.127,multiplicationStroop,2021.2.3,Win32,59.74786401,,,,,right,1,0.5937,0,2,2,34,1,6,8,6 | 8,2,1.9756,1.4111,incongruent,right,,,,,,stimulusFile/magnitude.xlsx,,,,,,,,,,,,,,,,,,,,,,,,,,,,,,,
,,,,,,,,,,,,,,,774,2022-01-19_14h03.59.127,multiplicationStroop,2021.2.3,Win32,59.74786401,,,,,right,0,0.5536,0,3,3,36,1,3,1,3 | 1,2,1.4111,1.9756,incongruent,left,,,,,,stimulusFile/magnitude.xlsx,,,,,,,,,,,,,,,,,,,,,,,,,,,,,,,
,,,,,,,,,,,,,,,774,2022-01-19_14h03.59.127,multiplicationStroop,2021.2.3,Win32,59.74786401,,,,,left,1,0.9083,0,4,4,29,1,4,3,4 | 3,1,1.4111,1.9756,incongruent,left,,,,,,stimulusFile/magnitude.xlsx,,,,,,,,,,,,,,,,,,,,,,,,,,,,,,,
,,,,,,,,,,,,,,,774,2022-01-19_14h03.59.127,multiplicationStroop,2021.2.3,Win32,59.74786401,,,,,left,1,0.6889,0,5,5,63,1,9,7,9 | 7,2,1.6933,1.6933,neutral,left,,,,,,stimulusFile/magnitude.xlsx,,,,,,,,,,,,,,,,,,,,,,,,,,,,,,,
,,,,,,,,,,,,,,,774,2022-01-19_14h03.59.127,multiplicationStroop,2021.2.3,Win32,59.74786401,,,,,left,1,0.6082,0,6,6,61,1,4,2,4 | 2,2,1.6933,1.6933,neutral,left,,,,,,stimulusFile/magnitude.xlsx,,,,,,,,,,,,,,,,,,,,,,,,,,,,,,,
,,,,,,,,,,,,,,,774,2022-01-19_14h03.59.127,multiplicationStroop,2021.2.3,Win32,59.74786401,,,,,right,1,0.5676,0,7,7,19,1,4,9,4 | 9,5,1.4111,1.9756,congruent,right,,,,,,stimulusFile/magnitude.xlsx,,,,,,,,,,,,,,,,,,,,,,,,,,,,,,,
,,,,,,,,,,,,,,,774,2022-01-19_14h03.59.127,multiplicationStroop,2021.2.3,Win32,59.74786401,,,,,left,1,0.4528,0,8,8,23,1,9,4,9 | 4,5,1.9756,1.4111,congruent,left,,,,,,stimulusFile/magnitude.xlsx,,,,,,,,,,,,,,,,,,,,,,,,,,,,,,,
,,,,,,,,,,,,,,,774,2022-01-19_14h03.59.127,multiplicationStroop,2021.2.3,Win32,59.74786401,,,,,left,1,0.4233,0,9,9,21,1,7,2,7 | 2,5,1.9756,1.4111,congruent,left,,,,,,stimulusFile/magnitude.xlsx,,,,,,,,,,,,,,,,,,,,,,,,,,,,,,,
,,,,,,,,,,,,,,,774,2022-01-19_14h03.59.127,multiplicationStroop,2021.2.3,Win32,59.74786401,,,,,right,0,0.4342,0,10,10,54,1,7,6,7 | 6,1,1.6933,1.6933,neutral,left,,,,,,stimulusFile/magnitude.xlsx,,,,,,,,,,,,,,,,,,,,,,,,,,,,,,,
,,,,,,,,,,,,,,,774,2022-01-19_14h03.59.127,multiplicationStroop,2021.2.3,Win32,59.74786401,,,,,right,1,0.5335,0,11,11,2,1,6,7,6 | 7,1,1.4111,1.9756,congruent,right,,,,,,stimulusFile/magnitude.xlsx,,,,,,,,,,,,,,,,,,,,,,,,,,,,,,,
,,,,,,,,,,,,,,,774,2022-01-19_14h03.59.127,multiplicationStroop,2021.2.3,Win32,59.74786401,,,,,right,1,0.7414,0,12,12,3,1,8,9,8 | 9,1,1.4111,1.9756,congruent,right,,,,,,stimulusFile/magnitude.xlsx,,,,,,,,,,,,,,,,,,,,,,,,,,,,,,,
,,,,,,,,,,,,,,,774,2022-01-19_14h03.59.127,multiplicationStroop,2021.2.3,Win32,59.74786401,,,,,right,1,0.8003,0,13,13,58,1,6,8,6 | 8,2,1.6933,1.6933,neutral,right,,,,,,stimulusFile/magnitude.xlsx,,,,,,,,,,,,,,,,,,,,,,,,,,,,,,,
,,,,,,,,,,,,,,,774,2022-01-19_14h03.59.127,multiplicationStroop,2021.2.3,Win32,59.74786401,,,,,left,1,0.5848,0,14,14,31,1,9,8,9 | 8,1,1.4111,1.9756,incongruent,left,,,,,,stimulusFile/magnitude.xlsx,,,,,,,,,,,,,,,,,,,,,,,,,,,,,,,
,,,,,,,,,,,,,,,774,2022-01-19_14h03.59.127,multiplicationStroop,2021.2.3,Win32,59.74786401,,,,,left,1,0.4344,0,15,15,71,1,9,4,9 | 4,5,1.6933,1.6933,neutral,left,,,,,,stimulusFile/magnitude.xlsx,,,,,,,,,,,,,,,,,,,,,,,,,,,,,,,
,,,,,,,,,,,,,,,774,2022-01-19_14h03.59.127,multiplicationStroop,2021.2.3,Win32,59.74786401,,,,,right,1,0.5342,0,16,16,64,1,1,6,1 | 6,5,1.6933,1.6933,neutral,right,,,,,,stimulusFile/magnitude.xlsx,,,,,,,,,,,,,,,,,,,,,,,,,,,,,,,
,,,,,,,,,,,,,,,774,2022-01-19_14h03.59.127,multiplicationStroop,2021.2.3,Win32,59.74786401,,,,,left,1,0.4124,0,17,17,52,1,2,1,2 | 1,1,1.6933,1.6933,neutral,left,,,,,,stimulusFile/magnitude.xlsx,,,,,,,,,,,,,,,,,,,,,,,,,,,,,,,
,,,,,,,,,,,,,,,774,2022-01-19_14h03.59.127,multiplicationStroop,2021.2.3,Win32,59.74786401,,,,,right,1,0.4573,0,18,18,56,1,1,3,1 | 3,2,1.6933,1.6933,neutral,right,,,,,,stimulusFile/magnitude.xlsx,,,,,,,,,,,,,,,,,,,,,,,,,,,,,,,
,,,,,,,,,,,,,,,774,2022-01-19_14h03.59.127,multiplicationStroop,2021.2.3,Win32,59.74786401,,,,,right,1,0.5594,0,19,19,66,1,3,8,3 | 8,5,1.6933,1.6933,neutral,right,,,,,,stimulusFile/magnitude.xlsx,,,,,,,,,,,,,,,,,,,,,,,,,,,,,,,
,,,,,,,,,,,,,,,774,2022-01-19_14h03.59.127,multiplicationStroop,2021.2.3,Win32,59.74786401,,,,,left,1,0.4029,0,20,20,12,1,3,1,3 | 1,2,1.9756,1.4111,congruent,left,,,,,,stimulusFile/magnitude.xlsx,,,,,,,,,,,,,,,,,,,,,,,,,,,,,,,
,,,,,,,,,,,,,,,774,2022-01-19_14h03.59.127,multiplicationStroop,2021.2.3,Win32,59.74786401,,,,,left,0,0.5016,0,21,21,26,1,6,7,6 | 7,1,1.9756,1.4111,incongruent,right,,,,,,stimulusFile/magnitude.xlsx,,,,,,,,,,,,,,,,,,,,,,,,,,,,,,,
,,,,,,,,,,,,,,,774,2022-01-19_14h03.59.127,multiplicationStroop,2021.2.3,Win32,59.74786401,,,,,left,0,0.6608,0,22,22,27,1,8,9,8 | 9,1,1.9756,1.4111,incongruent,right,,,,,,stimulusFile/magnitude.xlsx,,,,,,,,,,,,,,,,,,,,,,,,,,,,,,,
,,,,,,,,,,,,,,,774,2022-01-19_14h03.59.127,multiplicationStroop,2021.2.3,Win32,59.74786401,,,,,left,1,1.1401,0,23,23,44,1,6,1,6 | 1,5,1.4111,1.9756,incongruent,left,,,,,,stimulusFile/magnitude.xlsx,,,,,,,,,,,,,,,,,,,,,,,,,,,,,,,
,,,,,,,,,,,,,,,774,2022-01-19_14h03.59.127,multiplicationStroop,2021.2.3,Win32,59.74786401,,,,,right,1,0.4694,0,24,24,10,1,6,8,6 | 8,2,1.4111,1.9756,congruent,right,,,,,,stimulusFile/magnitude.xlsx,,,,,,,,,,,,,,,,,,,,,,,,,,,,,,,
,,,,,,,,,,,,,,,774,2022-01-19_14h03.59.127,multiplicationStroop,2021.2.3,Win32,59.74786401,,,,,right,1,0.4848,0,25,25,40,1,1,6,1 | 6,5,1.9756,1.4111,incongruent,right,,,,,,stimulusFile/magnitude.xlsx,,,,,,,,,,,,,,,,,,,,,,,,,,,,,,,
,,,,,,,,,,,,,,,774,2022-01-19_14h03.59.127,multiplicationStroop,2021.2.3,Win32,59.74786401,,,,,right,1,0.5511,0,26,26,51,1,8,9,8 | 9,1,1.6933,1.6933,neutral,right,,,,,,stimulusFile/magnitude.xlsx,,,,,,,,,,,,,,,,,,,,,,,,,,,,,,,
,,,,,,,,,,,,,,,774,2022-01-19_14h03.59.127,multiplicationStroop,2021.2.3,Win32,59.74786401,,,,,left,0,0.55,0,27,27,35,1,7,9,7 | 9,2,1.9756,1.4111,incongruent,right,,,,,,stimulusFile/magnitude.xlsx,,,,,,,,,,,,,,,,,,,,,,,,,,,,,,,
,,,,,,,,,,,,,,,774,2022-01-19_14h03.59.127,multiplicationStroop,2021.2.3,Win32,59.74786401,,,,,right,1,0.7056,0,28,28,43,1,4,9,4 | 9,5,1.9756,1.4111,incongruent,right,,,,,,stimulusFile/magnitude.xlsx,,,,,,,,,,,,,,,,,,,,,,,,,,,,,,,
,,,,,,,,,,,,,,,774,2022-01-19_14h03.59.127,multiplicationStroop,2021.2.3,Win32,59.74786401,,,,,right,1,0.5278,0,29,29,1,1,3,4,3 | 4,1,1.4111,1.9756,congruent,right,,,,,,stimulusFile/magnitude.xlsx,,,,,,,,,,,,,,,,,,,,,,,,,,,,,,,
,,,,,,,,,,,,,,,774,2022-01-19_14h03.59.127,multiplicationStroop,2021.2.3,Win32,59.74786401,,,,,right,1,0.509,0,30,30,0,1,1,2,1 | 2,1,1.4111,1.9756,congruent,right,,,,,,stimulusFile/magnitude.xlsx,,,,,,,,,,,,,,,,,,,,,,,,,,,,,,,
,,,,,,,,,,,,,,,774,2022-01-19_14h03.59.127,multiplicationStroop,2021.2.3,Win32,59.74786401,,,,,left,1,0.5189,0,31,31,6,1,7,6,7 | 6,1,1.9756,1.4111,congruent,left,,,,,,stimulusFile/magnitude.xlsx,,,,,,,,,,,,,,,,,,,,,,,,,,,,,,,
,,,,,,,,,,,,,,,774,2022-01-19_14h03.59.127,multiplicationStroop,2021.2.3,Win32,59.74786401,,,,,left,1,0.6417,0,32,32,55,1,9,8,9 | 8,1,1.6933,1.6933,neutral,left,,,,,,stimulusFile/magnitude.xlsx,,,,,,,,,,,,,,,,,,,,,,,,,,,,,,,
,,,,,,,,,,,,,,,774,2022-01-19_14h03.59.127,multiplicationStroop,2021.2.3,Win32,59.74786401,,,,,right,1,0.7755,0,33,33,57,1,2,4,2 | 4,2,1.6933,1.6933,neutral,right,,,,,,stimulusFile/magnitude.xlsx,,,,,,,,,,,,,,,,,,,,,,,,,,,,,,,
,,,,,,,,,,,,,,,774,2022-01-19_14h03.59.127,multiplicationStroop,2021.2.3,Win32,59.74786401,,,,,right,1,0.8498,0,34,34,32,1,1,3,1 | 3,2,1.9756,1.4111,incongruent,right,,,,,,stimulusFile/magnitude.xlsx,,,,,,,,,,,,,,,,,,,,,,,,,,,,,,,
,,,,,,,,,,,,,,,774,2022-01-19_14h03.59.127,multiplicationStroop,2021.2.3,Win32,59.74786401,,,,,right,1,0.7174,0,35,35,33,1,2,4,2 | 4,2,1.9756,1.4111,incongruent,right,,,,,,stimulusFile/magnitude.xlsx,,,,,,,,,,,,,,,,,,,,,,,,,,,,,,,
,,,,,,,,,,,,,,,774,2022-01-19_14h03.59.127,multiplicationStroop,2021.2.3,Win32,59.74786401,,,,,left,1,0.6844,0,36,36,62,1,8,6,8 | 6,2,1.6933,1.6933,neutral,left,,,,,,stimulusFile/magnitude.xlsx,,,,,,,,,,,,,,,,,,,,,,,,,,,,,,,
,,,,,,,,,,,,,,,774,2022-01-19_14h03.59.127,multiplicationStroop,2021.2.3,Win32,59.74786401,,,,,left,1,0.6219,0,37,37,46,1,8,3,8 | 3,5,1.4111,1.9756,incongruent,left,,,,,,stimulusFile/magnitude.xlsx,,,,,,,,,,,,,,,,,,,,,,,,,,,,,,,
,,,,,,,,,,,,,,,774,2022-01-19_14h03.59.127,multiplicationStroop,2021.2.3,Win32,59.74786401,,,,,left,1,0.5166,0,38,38,47,1,9,4,9 | 4,5,1.4111,1.9756,incongruent,left,,,,,,stimulusFile/magnitude.xlsx,,,,,,,,,,,,,,,,,,,,,,,,,,,,,,,
,,,,,,,,,,,,,,,774,2022-01-19_14h03.59.127,multiplicationStroop,2021.2.3,Win32,59.74786401,,,,,right,1,0.4591,0,39,39,65,1,2,7,2 | 7,5,1.6933,1.6933,neutral,right,,,,,,stimulusFile/magnitude.xlsx,,,,,,,,,,,,,,,,,,,,,,,,,,,,,,,
,,,,,,,,,,,,,,,774,2022-01-19_14h03.59.127,multiplicationStroop,2021.2.3,Win32,59.74786401,,,,,left,1,0.5511,0,40,40,39,1,9,7,9 | 7,2,1.4111,1.9756,incongruent,left,,,,,,stimulusFile/magnitude.xlsx,,,,,,,,,,,,,,,,,,,,,,,,,,,,,,,
,,,,,,,,,,,,,,,774,2022-01-19_14h03.59.127,multiplicationStroop,2021.2.3,Win32,59.74786401,,,,,left,1,0.5543,0,41,41,68,1,6,1,6 | 1,5,1.6933,1.6933,neutral,left,,,,,,stimulusFile/magnitude.xlsx,,,,,,,,,,,,,,,,,,,,,,,,,,,,,,,
,,,,,,,,,,,,,,,774,2022-01-19_14h03.59.127,multiplicationStroop,2021.2.3,Win32,59.74786401,,,,,left,1,0.4534,0,42,42,69,1,7,2,7 | 2,5,1.6933,1.6933,neutral,left,,,,,,stimulusFile/magnitude.xlsx,,,,,,,,,,,,,,,,,,,,,,,,,,,,,,,
,,,,,,,,,,,,,,,774,2022-01-19_14h03.59.127,multiplicationStroop,2021.2.3,Win32,59.74786401,,,,,right,1,0.5111,0,43,43,41,1,2,7,2 | 7,5,1.9756,1.4111,incongruent,right,,,,,,stimulusFile/magnitude.xlsx,,,,,,,,,,,,,,,,,,,,,,,,,,,,,,,
,,,,,,,,,,,,,,,774,2022-01-19_14h03.59.127,multiplicationStroop,2021.2.3,Win32,59.74786401,,,,,left,1,0.4715,0,44,44,5,1,4,3,4 | 3,1,1.9756,1.4111,congruent,left,,,,,,stimulusFile/magnitude.xlsx,,,,,,,,,,,,,,,,,,,,,,,,,,,,,,,
,,,,,,,,,,,,,,,774,2022-01-19_14h03.59.127,multiplicationStroop,2021.2.3,Win32,59.74786401,,,,,right,1,0.4698,0,45,45,9,1,2,4,2 | 4,2,1.4111,1.9756,congruent,right,,,,,,stimulusFile/magnitude.xlsx,,,,,,,,,,,,,,,,,,,,,,,,,,,,,,,
,,,,,,,,,,,,,,,774,2022-01-19_14h03.59.127,multiplicationStroop,2021.2.3,Win32,59.74786401,,,,,left,1,0.4171,0,46,46,7,1,9,8,9 | 8,1,1.9756,1.4111,congruent,left,,,,,,stimulusFile/magnitude.xlsx,,,,,,,,,,,,,,,,,,,,,,,,,,,,,,,
,,,,,,,,,,,,,,,774,2022-01-19_14h03.59.127,multiplicationStroop,2021.2.3,Win32,59.74786401,,,,,right,1,0.5004,0,47,47,49,1,3,4,3 | 4,1,1.6933,1.6933,neutral,right,,,,,,stimulusFile/magnitude.xlsx,,,,,,,,,,,,,,,,,,,,,,,,,,,,,,,
,,,,,,,,,,,,,,,774,2022-01-19_14h03.59.127,multiplicationStroop,2021.2.3,Win32,59.74786401,,,,,right,1,0.6174,0,48,48,48,1,1,2,1 | 2,1,1.6933,1.6933,neutral,right,,,,,,stimulusFile/magnitude.xlsx,,,,,,,,,,,,,,,,,,,,,,,,,,,,,,,
,,,,,,,,,,,,,,,774,2022-01-19_14h03.59.127,multiplicationStroop,2021.2.3,Win32,59.74786401,,,,,right,1,0.5443,0,49,49,17,1,2,7,2 | 7,5,1.4111,1.9756,congruent,right,,,,,,stimulusFile/magnitude.xlsx,,,,,,,,,,,,,,,,,,,,,,,,,,,,,,,
,,,,,,,,,,,,,,,774,2022-01-19_14h03.59.127,multiplicationStroop,2021.2.3,Win32,59.74786401,,,,,left,1,0.4182,0,50,50,14,1,8,6,8 | 6,2,1.9756,1.4111,congruent,left,,,,,,stimulusFile/magnitude.xlsx,,,,,,,,,,,,,,,,,,,,,,,,,,,,,,,
,,,,,,,,,,,,,,,774,2022-01-19_14h03.59.127,multiplicationStroop,2021.2.3,Win32,59.74786401,,,,,left,1,0.4852,0,51,51,60,1,3,1,3 | 1,2,1.6933,1.6933,neutral,left,,,,,,stimulusFile/magnitude.xlsx,,,,,,,,,,,,,,,,,,,,,,,,,,,,,,,
,,,,,,,,,,,,,,,774,2022-01-19_14h03.59.127,multiplicationStroop,2021.2.3,Win32,59.74786401,,,,,right,1,0.4744,0,52,52,42,1,3,8,3 | 8,5,1.9756,1.4111,incongruent,right,,,,,,stimulusFile/magnitude.xlsx,,,,,,,,,,,,,,,,,,,,,,,,,,,,,,,
,,,,,,,,,,,,,,,774,2022-01-19_14h03.59.127,multiplicationStroop,2021.2.3,Win32,59.74786401,,,,,right,1,0.4859,0,53,53,11,1,7,9,7 | 9,2,1.4111,1.9756,congruent,right,,,,,,stimulusFile/magnitude.xlsx,,,,,,,,,,,,,,,,,,,,,,,,,,,,,,,
,,,,,,,,,,,,,,,774,2022-01-19_14h03.59.127,multiplicationStroop,2021.2.3,Win32,59.74786401,,,,,left,1,0.4877,0,54,54,70,1,8,3,8 | 3,5,1.6933,1.6933,neutral,left,,,,,,stimulusFile/magnitude.xlsx,,,,,,,,,,,,,,,,,,,,,,,,,,,,,,,
,,,,,,,,,,,,,,,774,2022-01-19_14h03.59.127,multiplicationStroop,2021.2.3,Win32,59.74786401,,,,,left,1,0.8174,0,55,55,37,1,4,2,4 | 2,2,1.4111,1.9756,incongruent,left,,,,,,stimulusFile/magnitude.xlsx,,,,,,,,,,,,,,,,,,,,,,,,,,,,,,,
,,,,,,,,,,,,,,,774,2022-01-19_14h03.59.127,multiplicationStroop,2021.2.3,Win32,59.74786401,,,,,right,1,0.7174,0,56,56,8,1,1,3,1 | 3,2,1.4111,1.9756,congruent,right,,,,,,stimulusFile/magnitude.xlsx,,,,,,,,,,,,,,,,,,,,,,,,,,,,,,,
,,,,,,,,,,,,,,,774,2022-01-19_14h03.59.127,multiplicationStroop,2021.2.3,Win32,59.74786401,,,,,right,1,0.5518,0,57,57,16,1,1,6,1 | 6,5,1.4111,1.9756,congruent,right,,,,,,stimulusFile/magnitude.xlsx,,,,,,,,,,,,,,,,,,,,,,,,,,,,,,,
,,,,,,,,,,,,,,,774,2022-01-19_14h03.59.127,multiplicationStroop,2021.2.3,Win32,59.74786401,,,,,left,1,0.6947,0,58,58,30,1,7,6,7 | 6,1,1.4111,1.9756,incongruent,left,,,,,,stimulusFile/magnitude.xlsx,,,,,,,,,,,,,,,,,,,,,,,,,,,,,,,
,,,,,,,,,,,,,,,774,2022-01-19_14h03.59.127,multiplicationStroop,2021.2.3,Win32,59.74786401,,,,,left,1,0.5876,0,59,59,45,1,7,2,7 | 2,5,1.4111,1.9756,incongruent,left,,,,,,stimulusFile/magnitude.xlsx,,,,,,,,,,,,,,,,,,,,,,,,,,,,,,,
,,,,,,,,,,,,,,,774,2022-01-19_14h03.59.127,multiplicationStroop,2021.2.3,Win32,59.74786401,,,,,right,1,0.5673,0,60,60,50,1,6,7,6 | 7,1,1.6933,1.6933,neutral,right,,,,,,stimulusFile/magnitude.xlsx,,,,,,,,,,,,,,,,,,,,,,,,,,,,,,,
,,,,,,,,,,,,,,,774,2022-01-19_14h03.59.127,multiplicationStroop,2021.2.3,Win32,59.74786401,,,,,left,1,0.4669,0,61,61,4,1,2,1,2 | 1,1,1.9756,1.4111,congruent,left,,,,,,stimulusFile/magnitude.xlsx,,,,,,,,,,,,,,,,,,,,,,,,,,,,,,,
,,,,,,,,,,,,,,,774,2022-01-19_14h03.59.127,multiplicationStroop,2021.2.3,Win32,59.74786401,,,,,left,1,0.5689,0,62,62,38,1,8,6,8 | 6,2,1.4111,1.9756,incongruent,left,,,,,,stimulusFile/magnitude.xlsx,,,,,,,,,,,,,,,,,,,,,,,,,,,,,,,
,,,,,,,,,,,,,,,774,2022-01-19_14h03.59.127,multiplicationStroop,2021.2.3,Win32,59.74786401,,,,,right,1,0.5079,0,63,63,18,1,3,8,3 | 8,5,1.4111,1.9756,congruent,right,,,,,,stimulusFile/magnitude.xlsx,,,,,,,,,,,,,,,,,,,,,,,,,,,,,,,
,,,,,,,,,,,,,,,774,2022-01-19_14h03.59.127,multiplicationStroop,2021.2.3,Win32,59.74786401,,,,,left,1,0.4257,0,64,64,15,1,9,7,9 | 7,2,1.9756,1.4111,congruent,left,,,,,,stimulusFile/magnitude.xlsx,,,,,,,,,,,,,,,,,,,,,,,,,,,,,,,
,,,,,,,,,,,,,,,774,2022-01-19_14h03.59.127,multiplicationStroop,2021.2.3,Win32,59.74786401,,,,,left,1,0.5172,0,65,65,53,1,4,3,4 | 3,1,1.6933,1.6933,neutral,left,,,,,,stimulusFile/magnitude.xlsx,,,,,,,,,,,,,,,,,,,,,,,,,,,,,,,
,,,,,,,,,,,,,,,774,2022-01-19_14h03.59.127,multiplicationStroop,2021.2.3,Win32,59.74786401,,,,,right,1,0.6104,0,66,66,25,1,3,4,3 | 4,1,1.9756,1.4111,incongruent,right,,,,,,stimulusFile/magnitude.xlsx,,,,,,,,,,,,,,,,,,,,,,,,,,,,,,,
,,,,,,,,,,,,,,,774,2022-01-19_14h03.59.127,multiplicationStroop,2021.2.3,Win32,59.74786401,,,,,left,1,0.5722,0,67,67,22,1,8,3,8 | 3,5,1.9756,1.4111,congruent,left,,,,,,stimulusFile/magnitude.xlsx,,,,,,,,,,,,,,,,,,,,,,,,,,,,,,,
,,,,,,,,,,,,,,,774,2022-01-19_14h03.59.127,multiplicationStroop,2021.2.3,Win32,59.74786401,,,,,left,1,0.4929,0,68,68,20,1,6,1,6 | 1,5,1.9756,1.4111,congruent,left,,,,,,stimulusFile/magnitude.xlsx,,,,,,,,,,,,,,,,,,,,,,,,,,,,,,,
,,,,,,,,,,,,,,,774,2022-01-19_14h03.59.127,multiplicationStroop,2021.2.3,Win32,59.74786401,,,,,right,1,0.5109,0,69,69,24,1,1,2,1 | 2,1,1.9756,1.4111,incongruent,right,,,,,,stimulusFile/magnitude.xlsx,,,,,,,,,,,,,,,,,,,,,,,,,,,,,,,
,,,,,,,,,,,,,,,774,2022-01-19_14h03.59.127,multiplicationStroop,2021.2.3,Win32,59.74786401,,,,,right,1,0.4751,0,70,70,59,1,7,9,7 | 9,2,1.6933,1.6933,neutral,right,,,,,,stimulusFile/magnitude.xlsx,,,,,,,,,,,,,,,,,,,,,,,,,,,,,,,
,,,,,,,,,,,,,,,774,2022-01-19_14h03.59.127,multiplicationStroop,2021.2.3,Win32,59.74786401,,,,,left,1,0.4917,0,71,71,13,1,4,2,4 | 2,2,1.9756,1.4111,congruent,left,,,,,,stimulusFile/magnitude.xlsx,,,,,,,,,,,,,,,,,,,,,,,,,,,,,,,
,,,,,,,,,,,,,,,774,2022-01-19_14h03.59.127,multiplicationStroop,2021.2.3,Win32,59.74786401,,,,,,,,,,,,,,,,,,,,,0,1,1,0,1,stimulusFile/magnitude.xlsx,NUMERICALLY larger (larger coefficient).,images/numericallyLarger.png,,,,,,,,,,,,,,,,,,,,,,,,,,,,,
,,,,,,,,,,,,,,,774,2022-01-19_14h03.59.127,multiplicationStroop,2021.2.3,Win32,59.74786401,,,,,,,,,,,,,,,,,,,,,,,,,,,,,space,7.3937,space,1.7763,54,3.1882,1,0,0,0,26,1,9,×,6,9 × 6,congruent,largerFirst,2,1,54,,,,,,,,
,,,,,,,,,,,,,,,774,2022-01-19_14h03.59.127,multiplicationStroop,2021.2.3,Win32,59.74786401,,,,,,,,,,,,,,,,,,,,,,,,,,,,,,,,,36,2.8155,1,0,1,1,14,1,9,×,4,9 × 4,congruent,largerFirst,2,1,36,,,,,,,,
,,,,,,,,,,,,,,,774,2022-01-19_14h03.59.127,multiplicationStroop,2021.2.3,Win32,59.74786401,,,,,,,,,,,,,,,,,,,,,,,,,,,,,,,,,24,1.5647,1,0,2,2,11,1,4,×,6,4 × 6,congruent,smallerFirst,1,2,24,,,,,,,,
,,,,,,,,,,,,,,,774,2022-01-19_14h03.59.127,multiplicationStroop,2021.2.3,Win32,59.74786401,,,,,,,,,,,,,,,,,,,,,,,,,,,,,,,,,18,1.498,1,0,3,3,25,1,6,×,3,6 × 3,congruent,largerFirst,2,1,18,,,,,,,,
,,,,,,,,,,,,,,,774,2022-01-19_14h03.59.127,multiplicationStroop,2021.2.3,Win32,59.74786401,,,,,,,,,,,,,,,,,,,,,,,,,,,,,,,,,45,1.6651,1,0,4,4,9,1,5,×,9,5 × 9,congruent,smallerFirst,1,2,45,,,,,,,,
,,,,,,,,,,,,,,,774,2022-01-19_14h03.59.127,multiplicationStroop,2021.2.3,Win32,59.74786401,,,,,,,,,,,,,,,,,,,,,,,,,,,,,,,,,16,1.6645,1,0,5,5,19,1,8,×,2,8 × 2,congruent,largerFirst,2,1,16,,,,,,,,
,,,,,,,,,,,,,,,774,2022-01-19_14h03.59.127,multiplicationStroop,2021.2.3,Win32,59.74786401,,,,,,,,,,,,,,,,,,,,,,,,,,,,,,,,,10,1.4148,1,0,6,6,10,1,2,×,5,2 × 5,congruent,smallerFirst,1,2,10,,,,,,,,
,,,,,,,,,,,,,,,774,2022-01-19_14h03.59.127,multiplicationStroop,2021.2.3,Win32,59.74786401,,,,,,,,,,,,,,,,,,,,,,,,,,,,,,,,,24,1.615,1,0,7,7,24,1,8,×,3,8 × 3,congruent,largerFirst,2,1,24,,,,,,,,
,,,,,,,,,,,,,,,774,2022-01-19_14h03.59.127,multiplicationStroop,2021.2.3,Win32,59.74786401,,,,,,,,,,,,,,,,,,,,,,,,,,,,,,,,,9,1.2986,1,0,8,8,29,1,3,×,3,3 × 3,neutral,tie,1,2,9,,,,,,,,
,,,,,,,,,,,,,,,774,2022-01-19_14h03.59.127,multiplicationStroop,2021.2.3,Win32,59.74786401,,,,,,,,,,,,,,,,,,,,,,,,,,,,,,,,,25,1.4317,1,0,9,9,31,1,5,×,5,5 × 5,neutral,tie,1,2,25,,,,,,,,
,,,,,,,,,,,,,,,774,2022-01-19_14h03.59.127,multiplicationStroop,2021.2.3,Win32,59.74786401,,,,,,,,,,,,,,,,,,,,,,,,,,,,,,,,,6,1.3483,1,0,10,10,27,1,3,×,2,3 × 2,congruent,largerFirst,2,1,6,,,,,,,,
,,,,,,,,,,,,,,,774,2022-01-19_14h03.59.127,multiplicationStroop,2021.2.3,Win32,59.74786401,,,,,,,,,,,,,,,,,,,,,,,,,,,,,,,,,8,1.3151,1,0,11,11,23,1,4,×,2,4 × 2,congruent,largerFirst,2,1,8,,,,,,,,
,,,,,,,,,,,,,,,774,2022-01-19_14h03.59.127,multiplicationStroop,2021.2.3,Win32,59.74786401,,,,,,,,,,,,,,,,,,,,,,,,,,,,,,,,,36,1.9476,1,0,12,12,32,1,6,×,6,6 × 6,neutral,tie,1,2,36,,,,,,,,
,,,,,,,,,,,,,,,774,2022-01-19_14h03.59.127,multiplicationStroop,2021.2.3,Win32,59.74786401,,,,,,,,,,,,,,,,,,,,,,,,,,,,,,,,,42,2.9639,1,0,13,13,17,1,7,×,6,7 × 6,congruent,largerFirst,2,1,42,,,,,,,,
,,,,,,,,,,,,,,,774,2022-01-19_14h03.59.127,multiplicationStroop,2021.2.3,Win32,59.74786401,,,,,,,,,,,,,,,,,,,,,,,,,,,,,,,,,35,1.7836,1,0,14,14,15,1,7,×,5,7 × 5,congruent,largerFirst,2,1,35,,,,,,,,
,,,,,,,,,,,,,,,774,2022-01-19_14h03.59.127,multiplicationStroop,2021.2.3,Win32,59.74786401,,,,,,,,,,,,,,,,,,,,,,,,,,,,,,,,,4,1.5317,1,0,15,15,28,1,2,×,2,2 × 2,neutral,tie,1,2,4,,,,,,,,
,,,,,,,,,,,,,,,774,2022-01-19_14h03.59.127,multiplicationStroop,2021.2.3,Win32,59.74786401,,,,,,,,,,,,,,,,,,,,,,,,,,,,,,,,,56,1.5648,1,0,16,16,22,1,8,×,7,8 × 7,congruent,largerFirst,2,1,56,,,,,,,,
,,,,,,,,,,,,,,,774,2022-01-19_14h03.59.127,multiplicationStroop,2021.2.3,Win32,59.74786401,,,,,,,,,,,,,,,,,,,,,,,,,,,,,,,,,49,2.1643,1,0,17,17,33,1,7,×,7,7 × 7,neutral,tie,1,2,49,,,,,,,,
,,,,,,,,,,,,,,,774,2022-01-19_14h03.59.127,multiplicationStroop,2021.2.3,Win32,59.74786401,,,,,,,,,,,,,,,,,,,,,,,,,,,,,,,,,14,1.365,1,0,18,18,0,1,2,×,7,2 × 7,congruent,smallerFirst,1,2,14,,,,,,,,
,,,,,,,,,,,,,,,774,2022-01-19_14h03.59.127,multiplicationStroop,2021.2.3,Win32,59.74786401,,,,,,,,,,,,,,,,,,,,,,,,,,,,,,,,,64,1.8317,1,0,19,19,34,1,8,×,8,8 × 8,neutral,tie,1,2,64,,,,,,,,
,,,,,,,,,,,,,,,774,2022-01-19_14h03.59.127,multiplicationStroop,2021.2.3,Win32,59.74786401,,,,,,,,,,,,,,,,,,,,,,,,,,,,,,,,,30,1.5632,1,0,20,20,1,1,5,×,6,5 × 6,congruent,smallerFirst,1,2,30,,,,,,,,
,,,,,,,,,,,,,,,774,2022-01-19_14h03.59.127,multiplicationStroop,2021.2.3,Win32,59.74786401,,,,,,,,,,,,,,,,,,,,,,,,,,,,,,,,,32,2.2798,1,0,21,21,6,1,4,×,8,4 × 8,congruent,smallerFirst,1,2,32,,,,,,,,
,,,,,,,,,,,,,,,774,2022-01-19_14h03.59.127,multiplicationStroop,2021.2.3,Win32,59.74786401,,,,,,,,,,,,,,,,,,,,,,,,,,,,,,,,,20,1.6144,1,0,22,22,21,1,5,×,4,5 × 4,congruent,largerFirst,2,1,20,,,,,,,,
,,,,,,,,,,,,,,,774,2022-01-19_14h03.59.127,multiplicationStroop,2021.2.3,Win32,59.74786401,,,,,,,,,,,,,,,,,,,,,,,,,,,,,,,,,18,2.2793,1,0,23,23,8,1,2,×,9,2 × 9,congruent,smallerFirst,1,2,18,,,,,,,,
,,,,,,,,,,,,,,,774,2022-01-19_14h03.59.127,multiplicationStroop,2021.2.3,Win32,59.74786401,,,,,,,,,,,,,,,,,,,,,,,,,,,,,,,,,16,1.5643,1,0,24,24,30,1,4,×,4,4 × 4,neutral,tie,1,2,16,,,,,,,,
,,,,,,,,,,,,,,,774,2022-01-19_14h03.59.127,multiplicationStroop,2021.2.3,Win32,59.74786401,,,,,,,,,,,,,,,,,,,,,,,,,,,,,,,,,12,1.9467,1,0,25,25,5,1,2,×,6,2 × 6,congruent,smallerFirst,1,2,12,,,,,,,,
,,,,,,,,,,,,,,,774,2022-01-19_14h03.59.127,multiplicationStroop,2021.2.3,Win32,59.74786401,,,,,,,,,,,,,,,,,,,,,,,,,,,,,,,,,21,1.4133,1,0,26,26,2,1,3,×,7,3 × 7,congruent,smallerFirst,1,2,21,,,,,,,,
,,,,,,,,,,,,,,,774,2022-01-19_14h03.59.127,multiplicationStroop,2021.2.3,Win32,59.74786401,,,,,,,,,,,,,,,,,,,,,,,,,,,,,,,,,40,2.4633,1,0,27,27,20,1,8,×,5,8 × 5,congruent,largerFirst,2,1,40,,,,,,,,
,,,,,,,,,,,,,,,774,2022-01-19_14h03.59.127,multiplicationStroop,2021.2.3,Win32,59.74786401,,,,,,,,,,,,,,,,,,,,,,,,,,,,,,,,,12,1.25,1,0,28,28,16,1,4,×,3,4 × 3,congruent,largerFirst,2,1,12,,,,,,,,
,,,,,,,,,,,,,,,774,2022-01-19_14h03.59.127,multiplicationStroop,2021.2.3,Win32,59.74786401,,,,,,,,,,,,,,,,,,,,,,,,,,,,,,,,,27,1.8971,1,0,29,29,12,1,3,×,9,3 × 9,congruent,smallerFirst,1,2,27,,,,,,,,
,,,,,,,,,,,,,,,774,2022-01-19_14h03.59.127,multiplicationStroop,2021.2.3,Win32,59.74786401,,,,,,,,,,,,,,,,,,,,,,,,,,,,,,,,,28,3.0462,1,0,30,30,13,1,4,×,7,4 × 7,congruent,smallerFirst,1,2,28,,,,,,,,
,,,,,,,,,,,,,,,774,2022-01-19_14h03.59.127,multiplicationStroop,2021.2.3,Win32,59.74786401,,,,,,,,,,,,,,,,,,,,,,,,,,,,,,,,,48,2.4489,1,0,31,31,4,1,6,×,8,6 × 8,congruent,smallerFirst,1,2,48,,,,,,,,
,,,,,,,,,,,,,,,774,2022-01-19_14h03.59.127,multiplicationStroop,2021.2.3,Win32,59.74786401,,,,,,,,,,,,,,,,,,,,,,,,,,,,,,,,,15,1.3976,1,0,32,32,18,1,5,×,3,5 × 3,congruent,largerFirst,2,1,15,,,,,,,,
,,,,,,,,,,,,,,,774,2022-01-19_14h03.59.127,multiplicationStroop,2021.2.3,Win32,59.74786401,,,,,,,,,,,,,,,,,,,,,,,,,,,,,,,,,81,2.7124,1,0,33,33,35,1,9,×,9,9 × 9,neutral,tie,1,2,81,,,,,,,,
,,,,,,,,,,,,,,,774,2022-01-19_14h03.59.127,multiplicationStroop,2021.2.3,Win32,59.74786401,,,,,,,,,,,,,,,,,,,,,,,,,,,,,,,,,72,3.662,1,0,34,34,3,1,8,×,9,8 × 9,congruent,smallerFirst,1,2,72,,,,,,,,
,,,,,,,,,,,,,,,774,2022-01-19_14h03.59.127,multiplicationStroop,2021.2.3,Win32,59.74786401,,,,,,,,,,,,,,,,,,,,,,,,,,,,,,,,,53,2.5991,0,0,35,35,7,1,7,×,9,7 × 9,congruent,smallerFirst,1,2,63,,,,,,,,
,,,,,,,,,,,,,,,774,2022-01-19_14h03.59.127,multiplicationStroop,2021.2.3,Win32,59.74786401,,,,,,,,,,,,,,,,,,,,,,,,,,,,,,,,,,,,,,,,,,,,,,,,,,0,0,0,3,1,stimulusFile/mult_blk4_congruent.xlsx,,
,,,,,,,,,,,,,,,774,2022-01-19_14h03.59.127,multiplicationStroop,2021.2.3,Win32,59.74786401,,,,,,,,,,,,,,,,,,,,,,,,,,,,,,,space,1.7434,18,1.9581,1,0,0,0,2,1,2,×,9,2 × 9,incongruent,smallerFirst,2,1,18,,,,,,,,
,,,,,,,,,,,,,,,774,2022-01-19_14h03.59.127,multiplicationStroop,2021.2.3,Win32,59.74786401,,,,,,,,,,,,,,,,,,,,,,,,,,,,,,,,,56,2.7129,1,0,1,1,14,1,8,×,7,8 × 7,incongruent,largerFirst,1,2,56,,,,,,,,
,,,,,,,,,,,,,,,774,2022-01-19_14h03.59.127,multiplicationStroop,2021.2.3,Win32,59.74786401,,,,,,,,,,,,,,,,,,,,,,,,,,,,,,,,,12,1.2778,1,0,2,2,19,1,6,×,2,6 × 2,incongruent,largerFirst,1,2,12,,,,,,,,
,,,,,,,,,,,,,,,774,2022-01-19_14h03.59.127,multiplicationStroop,2021.2.3,Win32,59.74786401,,,,,,,,,,,,,,,,,,,,,,,,,,,,,,,,,35,1.6307,1,0,3,3,12,1,5,×,7,5 × 7,incongruent,smallerFirst,2,1,35,,,,,,,,
,,,,,,,,,,,,,,,774,2022-01-19_14h03.59.127,multiplicationStroop,2021.2.3,Win32,59.74786401,,,,,,,,,,,,,,,,,,,,,,,,,,,,,,,,,81,2.2802,1,0,4,4,35,1,9,×,9,9 × 9,incongruent,tie,1,2,81,,,,,,,,
,,,,,,,,,,,,,,,774,2022-01-19_14h03.59.127,multiplicationStroop,2021.2.3,Win32,59.74786401,,,,,,,,,,,,,,,,,,,,,,,,,,,,,,,,,8,1.3975,1,0,5,5,24,1,4,×,2,4 × 2,incongruent,largerFirst,1,2,8,,,,,,,,
,,,,,,,,,,,,,,,774,2022-01-19_14h03.59.127,multiplicationStroop,2021.2.3,Win32,59.74786401,,,,,,,,,,,,,,,,,,,,,,,,,,,,,,,,,21,1.3138,1,0,6,6,26,1,7,×,3,7 × 3,incongruent,largerFirst,1,2,21,,,,,,,,
,,,,,,,,,,,,,,,774,2022-01-19_14h03.59.127,multiplicationStroop,2021.2.3,Win32,59.74786401,,,,,,,,,,,,,,,,,,,,,,,,,,,,,,,,,30,1.4811,1,0,7,7,25,1,6,×,5,6 × 5,incongruent,largerFirst,1,2,30,,,,,,,,
,,,,,,,,,,,,,,,774,2022-01-19_14h03.59.127,multiplicationStroop,2021.2.3,Win32,59.74786401,,,,,,,,,,,,,,,,,,,,,,,,,,,,,,,,,16,1.4803,1,0,8,8,23,1,8,×,2,8 × 2,incongruent,largerFirst,1,2,16,,,,,,,,
,,,,,,,,,,,,,,,774,2022-01-19_14h03.59.127,multiplicationStroop,2021.2.3,Win32,59.74786401,,,,,,,,,,,,,,,,,,,,,,,,,,,,,,,,,48,1.7967,1,0,9,9,1,1,6,×,8,6 × 8,incongruent,smallerFirst,2,1,48,,,,,,,,
,,,,,,,,,,,,,,,774,2022-01-19_14h03.59.127,multiplicationStroop,2021.2.3,Win32,59.74786401,,,,,,,,,,,,,,,,,,,,,,,,,,,,,,,,,14,1.3146,1,0,10,10,4,1,2,×,7,2 × 7,incongruent,smallerFirst,2,1,14,,,,,,,,
,,,,,,,,,,,,,,,774,2022-01-19_14h03.59.127,multiplicationStroop,2021.2.3,Win32,59.74786401,,,,,,,,,,,,,,,,,,,,,,,,,,,,,,,,,12,1.2301,1,0,11,11,5,1,3,×,4,3 × 4,incongruent,smallerFirst,2,1,12,,,,,,,,
,,,,,,,,,,,,,,,774,2022-01-19_14h03.59.127,multiplicationStroop,2021.2.3,Win32,59.74786401,,,,,,,,,,,,,,,,,,,,,,,,,,,,,,,,,36,2.7633,1,0,12,12,15,1,9,×,4,9 × 4,incongruent,largerFirst,1,2,36,,,,,,,,
,,,,,,,,,,,,,,,774,2022-01-19_14h03.59.127,multiplicationStroop,2021.2.3,Win32,59.74786401,,,,,,,,,,,,,,,,,,,,,,,,,,,,,,,,,27,2.5286,1,0,13,13,18,1,9,×,3,9 × 3,incongruent,largerFirst,1,2,27,,,,,,,,
,,,,,,,,,,,,,,,774,2022-01-19_14h03.59.127,multiplicationStroop,2021.2.3,Win32,59.74786401,,,,,,,,,,,,,,,,,,,,,,,,,,,,,,,,,42,5.1963,1,0,14,14,17,1,7,×,6,7 × 6,incongruent,largerFirst,1,2,42,,,,,,,,
,,,,,,,,,,,,,,,774,2022-01-19_14h03.59.127,multiplicationStroop,2021.2.3,Win32,59.74786401,,,,,,,,,,,,,,,,,,,,,,,,,,,,,,,,,25,1.8165,1,0,15,15,31,1,5,×,5,5 × 5,incongruent,tie,1,2,25,,,,,,,,
,,,,,,,,,,,,,,,774,2022-01-19_14h03.59.127,multiplicationStroop,2021.2.3,Win32,59.74786401,,,,,,,,,,,,,,,,,,,,,,,,,,,,,,,,,32,1.9141,1,0,16,16,7,1,4,×,8,4 × 8,incongruent,smallerFirst,2,1,32,,,,,,,,
,,,,,,,,,,,,,,,774,2022-01-19_14h03.59.127,multiplicationStroop,2021.2.3,Win32,59.74786401,,,,,,,,,,,,,,,,,,,,,,,,,,,,,,,,,6,1.3635,1,0,17,17,11,1,2,×,3,2 × 3,incongruent,smallerFirst,2,1,6,,,,,,,,
,,,,,,,,,,,,,,,774,2022-01-19_14h03.59.127,multiplicationStroop,2021.2.3,Win32,59.74786401,,,,,,,,,,,,,,,,,,,,,,,,,,,,,,,,,24,1.7634,1,0,18,18,9,1,3,×,8,3 × 8,incongruent,smallerFirst,2,1,24,,,,,,,,
,,,,,,,,,,,,,,,774,2022-01-19_14h03.59.127,multiplicationStroop,2021.2.3,Win32,59.74786401,,,,,,,,,,,,,,,,,,,,,,,,,,,,,,,,,54,1.9302,1,0,19,19,6,1,6,×,9,6 × 9,incongruent,smallerFirst,2,1,54,,,,,,,,
,,,,,,,,,,,,,,,774,2022-01-19_14h03.59.127,multiplicationStroop,2021.2.3,Win32,59.74786401,,,,,,,,,,,,,,,,,,,,,,,,,,,,,,,,,4,1.2976,1,0,20,20,28,1,2,×,2,2 × 2,incongruent,tie,1,2,4,,,,,,,,
,,,,,,,,,,,,,,,774,2022-01-19_14h03.59.127,multiplicationStroop,2021.2.3,Win32,59.74786401,,,,,,,,,,,,,,,,,,,,,,,,,,,,,,,,,49,1.6973,1,0,21,21,33,1,7,×,7,7 × 7,incongruent,tie,1,2,49,,,,,,,,
,,,,,,,,,,,,,,,774,2022-01-19_14h03.59.127,multiplicationStroop,2021.2.3,Win32,59.74786401,,,,,,,,,,,,,,,,,,,,,,,,,,,,,,,,,24,2.3129,1,0,22,22,20,1,6,×,4,6 × 4,incongruent,largerFirst,1,2,24,,,,,,,,
,,,,,,,,,,,,,,,774,2022-01-19_14h03.59.127,multiplicationStroop,2021.2.3,Win32,59.74786401,,,,,,,,,,,,,,,,,,,,,,,,,,,,,,,,,36,1.5807,1,0,23,23,32,1,6,×,6,6 × 6,incongruent,tie,1,2,36,,,,,,,,
,,,,,,,,,,,,,,,774,2022-01-19_14h03.59.127,multiplicationStroop,2021.2.3,Win32,59.74786401,,,,,,,,,,,,,,,,,,,,,,,,,,,,,,,,,64,1.8134,1,0,24,24,34,1,8,×,8,8 × 8,incongruent,tie,1,2,64,,,,,,,,
,,,,,,,,,,,,,,,774,2022-01-19_14h03.59.127,multiplicationStroop,2021.2.3,Win32,59.74786401,,,,,,,,,,,,,,,,,,,,,,,,,,,,,,,,,45,1.9306,1,0,25,25,22,1,9,×,5,9 × 5,incongruent,largerFirst,1,2,45,,,,,,,,
,,,,,,,,,,,,,,,774,2022-01-19_14h03.59.127,multiplicationStroop,2021.2.3,Win32,59.74786401,,,,,,,,,,,,,,,,,,,,,,,,,,,,,,,,,16,1.5807,1,0,26,26,30,1,4,×,4,4 × 4,incongruent,tie,1,2,16,,,,,,,,
,,,,,,,,,,,,,,,774,2022-01-19_14h03.59.127,multiplicationStroop,2021.2.3,Win32,59.74786401,,,,,,,,,,,,,,,,,,,,,,,,,,,,,,,,,18,1.5804,1,0,27,27,8,1,3,×,6,3 × 6,incongruent,smallerFirst,2,1,18,,,,,,,,
,,,,,,,,,,,,,,,774,2022-01-19_14h03.59.127,multiplicationStroop,2021.2.3,Win32,59.74786401,,,,,,,,,,,,,,,,,,,,,,,,,,,,,,,,,28,3.5124,1,0,28,28,16,1,7,×,4,7 × 4,incongruent,largerFirst,1,2,28,,,,,,,,
,,,,,,,,,,,,,,,774,2022-01-19_14h03.59.127,multiplicationStroop,2021.2.3,Win32,59.74786401,,,,,,,,,,,,,,,,,,,,,,,,,,,,,,,,,10,1.3334,1,0,29,29,21,1,5,×,2,5 × 2,incongruent,largerFirst,1,2,10,,,,,,,,
,,,,,,,,,,,,,,,774,2022-01-19_14h03.59.127,multiplicationStroop,2021.2.3,Win32,59.74786401,,,,,,,,,,,,,,,,,,,,,,,,,,,,,,,,,15,1.7298,1,0,30,30,10,1,3,×,5,3 × 5,incongruent,smallerFirst,2,1,15,,,,,,,,
,,,,,,,,,,,,,,,774,2022-01-19_14h03.59.127,multiplicationStroop,2021.2.3,Win32,59.74786401,,,,,,,,,,,,,,,,,,,,,,,,,,,,,,,,,20,1.6971,1,0,31,31,27,1,5,×,4,5 × 4,incongruent,largerFirst,1,2,20,,,,,,,,
,,,,,,,,,,,,,,,774,2022-01-19_14h03.59.127,multiplicationStroop,2021.2.3,Win32,59.74786401,,,,,,,,,,,,,,,,,,,,,,,,,,,,,,,,,9,1.4144,1,0,32,32,29,1,3,×,3,3 × 3,incongruent,tie,1,2,9,,,,,,,,
,,,,,,,,,,,,,,,774,2022-01-19_14h03.59.127,multiplicationStroop,2021.2.3,Win32,59.74786401,,,,,,,,,,,,,,,,,,,,,,,,,,,,,,,,,63,2.5796,1,0,33,33,3,1,7,×,9,7 × 9,incongruent,smallerFirst,2,1,63,,,,,,,,
,,,,,,,,,,,,,,,774,2022-01-19_14h03.59.127,multiplicationStroop,2021.2.3,Win32,59.74786401,,,,,,,,,,,,,,,,,,,,,,,,,,,,,,,,,40,1.6003,1,0,34,34,13,1,5,×,8,5 × 8,incongruent,smallerFirst,2,1,40,,,,,,,,
,,,,,,,,,,,,,,,774,2022-01-19_14h03.59.127,multiplicationStroop,2021.2.3,Win32,59.74786401,,,,,,,,,,,,,,,,,,,,,,,,,,,,,,,,,72,3.3955,1,0,35,35,0,1,8,×,9,8 × 9,incongruent,smallerFirst,2,1,72,,,,,,,,
,,,,,,,,,,,,,,,774,2022-01-19_14h03.59.127,multiplicationStroop,2021.2.3,Win32,59.74786401,,,,,,,,,,,,,,,,,,,,,,,,,,,,,,,,,,,,,,,,,,,,,,,,,,0,1,1,5,1,stimulusFile/mult_blk6_INcongruent.xlsx,,
,,,,,,,,,,,,,,,774,2022-01-19_14h03.59.127,multiplicationStroop,2021.2.3,Win32,59.74786401,,,,,,,,,,,,,,,,,,,,,,,,,,,,,,,space,1.4096,24,1.56,1,0,0,0,22,1,8,×,3,8 × 3,neutral,largerFirst,1.5,1.5,24,,,,,,,,
,,,,,,,,,,,,,,,774,2022-01-19_14h03.59.127,multiplicationStroop,2021.2.3,Win32,59.74786401,,,,,,,,,,,,,,,,,,,,,,,,,,,,,,,,,24,1.9458,1,0,1,1,2,1,4,×,6,4 × 6,neutral,smallerFirst,1.5,1.5,24,,,,,,,,
,,,,,,,,,,,,,,,774,2022-01-19_14h03.59.127,multiplicationStroop,2021.2.3,Win32,59.74786401,,,,,,,,,,,,,,,,,,,,,,,,,,,,,,,,,16,1.4971,1,0,2,2,30,1,4,×,4,4 × 4,neutral,tie,1.5,1.5,16,,,,,,,,
,,,,,,,,,,,,,,,774,2022-01-19_14h03.59.127,multiplicationStroop,2021.2.3,Win32,59.74786401,,,,,,,,,,,,,,,,,,,,,,,,,,,,,,,,,42,2.0632,1,0,3,3,6,1,6,×,7,6 × 7,neutral,smallerFirst,1.5,1.5,42,,,,,,,,
,,,,,,,,,,,,,,,774,2022-01-19_14h03.59.127,multiplicationStroop,2021.2.3,Win32,59.74786401,,,,,,,,,,,,,,,,,,,,,,,,,,,,,,,,,81,1.4975,1,0,4,4,35,1,9,×,9,9 × 9,neutral,tie,1.5,1.5,81,,,,,,,,
,,,,,,,,,,,,,,,774,2022-01-19_14h03.59.127,multiplicationStroop,2021.2.3,Win32,59.74786401,,,,,,,,,,,,,,,,,,,,,,,,,,,,,,,,,36,2.0459,1,0,5,5,27,1,9,×,4,9 × 4,neutral,largerFirst,1.5,1.5,36,,,,,,,,
,,,,,,,,,,,,,,,774,2022-01-19_14h03.59.127,multiplicationStroop,2021.2.3,Win32,59.74786401,,,,,,,,,,,,,,,,,,,,,,,,,,,,,,,,,27,2.1135,1,0,6,6,14,1,9,×,3,9 × 3,neutral,largerFirst,1.5,1.5,27,,,,,,,,
,,,,,,,,,,,,,,,774,2022-01-19_14h03.59.127,multiplicationStroop,2021.2.3,Win32,59.74786401,,,,,,,,,,,,,,,,,,,,,,,,,,,,,,,,,6,1.4141,1,0,7,7,26,1,3,×,2,3 × 2,neutral,largerFirst,1.5,1.5,6,,,,,,,,
,,,,,,,,,,,,,,,774,2022-01-19_14h03.59.127,multiplicationStroop,2021.2.3,Win32,59.74786401,,,,,,,,,,,,,,,,,,,,,,,,,,,,,,,,,64,2.4796,1,0,8,8,34,1,8,×,8,8 × 8,neutral,tie,1.5,1.5,64,,,,,,,,
,,,,,,,,,,,,,,,774,2022-01-19_14h03.59.127,multiplicationStroop,2021.2.3,Win32,59.74786401,,,,,,,,,,,,,,,,,,,,,,,,,,,,,,,,,21,1.4471,1,0,9,9,8,1,3,×,7,3 × 7,neutral,smallerFirst,1.5,1.5,21,,,,,,,,
,,,,,,,,,,,,,,,774,2022-01-19_14h03.59.127,multiplicationStroop,2021.2.3,Win32,59.74786401,,,,,,,,,,,,,,,,,,,,,,,,,,,,,,,,,45,1.7973,1,0,10,10,10,1,5,×,9,5 × 9,neutral,smallerFirst,1.5,1.5,45,,,,,,,,
,,,,,,,,,,,,,,,774,2022-01-19_14h03.59.127,multiplicationStroop,2021.2.3,Win32,59.74786401,,,,,,,,,,,,,,,,,,,,,,,,,,,,,,,,,36,1.6802,1,0,11,11,32,1,6,×,6,6 × 6,neutral,tie,1.5,1.5,36,,,,,,,,
,,,,,,,,,,,,,,,774,2022-01-19_14h03.59.127,multiplicationStroop,2021.2.3,Win32,59.74786401,,,,,,,,,,,,,,,,,,,,,,,,,,,,,,,,,10,1.2971,1,0,12,12,4,1,2,×,5,2 × 5,neutral,smallerFirst,1.5,1.5,10,,,,,,,,
,,,,,,,,,,,,,,,774,2022-01-19_14h03.59.127,multiplicationStroop,2021.2.3,Win32,59.74786401,,,,,,,,,,,,,,,,,,,,,,,,,,,,,,,,,54,2.0458,1,0,13,13,7,1,6,×,9,6 × 9,neutral,smallerFirst,1.5,1.5,54,,,,,,,,
,,,,,,,,,,,,,,,774,2022-01-19_14h03.59.127,multiplicationStroop,2021.2.3,Win32,59.74786401,,,,,,,,,,,,,,,,,,,,,,,,,,,,,,,,,28,2.1801,1,0,14,14,17,1,7,×,4,7 × 4,neutral,largerFirst,1.5,1.5,28,,,,,,,,
,,,,,,,,,,,,,,,774,2022-01-19_14h03.59.127,multiplicationStroop,2021.2.3,Win32,59.74786401,,,,,,,,,,,,,,,,,,,,,,,,,,,,,,,,,48,1.7305,1,0,15,15,15,1,8,×,6,8 × 6,neutral,largerFirst,1.5,1.5,48,,,,,,,,
,,,,,,,,,,,,,,,774,2022-01-19_14h03.59.127,multiplicationStroop,2021.2.3,Win32,59.74786401,,,,,,,,,,,,,,,,,,,,,,,,,,,,,,,,,12,1.3474,1,0,16,16,21,1,4,×,3,4 × 3,neutral,largerFirst,1.5,1.5,12,,,,,,,,
,,,,,,,,,,,,,,,774,2022-01-19_14h03.59.127,multiplicationStroop,2021.2.3,Win32,59.74786401,,,,,,,,,,,,,,,,,,,,,,,,,,,,,,,,,32,2.4302,1,0,17,17,23,1,8,×,4,8 × 4,neutral,largerFirst,1.5,1.5,32,,,,,,,,
,,,,,,,,,,,,,,,774,2022-01-19_14h03.59.127,multiplicationStroop,2021.2.3,Win32,59.74786401,,,,,,,,,,,,,,,,,,,,,,,,,,,,,,,,,20,1.3977,1,0,18,18,20,1,5,×,4,5 × 4,neutral,largerFirst,1.5,1.5,20,,,,,,,,
,,,,,,,,,,,,,,,774,2022-01-19_14h03.59.127,multiplicationStroop,2021.2.3,Win32,59.74786401,,,,,,,,,,,,,,,,,,,,,,,,,,,,,,,,,72,4.5109,1,0,19,19,11,1,8,×,9,8 × 9,neutral,smallerFirst,1.5,1.5,72,,,,,,,,
,,,,,,,,,,,,,,,774,2022-01-19_14h03.59.127,multiplicationStroop,2021.2.3,Win32,59.74786401,,,,,,,,,,,,,,,,,,,,,,,,,,,,,,,,,18,1.583,1,0,20,20,0,1,3,×,6,3 × 6,neutral,smallerFirst,1.5,1.5,18,,,,,,,,
,,,,,,,,,,,,,,,774,2022-01-19_14h03.59.127,multiplicationStroop,2021.2.3,Win32,59.74786401,,,,,,,,,,,,,,,,,,,,,,,,,,,,,,,,,18,2.0137,1,0,21,21,18,1,9,×,2,9 × 2,neutral,largerFirst,1.5,1.5,18,,,,,,,,
,,,,,,,,,,,,,,,774,2022-01-19_14h03.59.127,multiplicationStroop,2021.2.3,Win32,59.74786401,,,,,,,,,,,,,,,,,,,,,,,,,,,,,,,,,4,1.4974,1,0,22,22,28,1,2,×,2,2 × 2,neutral,tie,1.5,1.5,4,,,,,,,,
,,,,,,,,,,,,,,,774,2022-01-19_14h03.59.127,multiplicationStroop,2021.2.3,Win32,59.74786401,,,,,,,,,,,,,,,,,,,,,,,,,,,,,,,,,40,3.6293,1,0,23,23,24,1,8,×,5,8 × 5,neutral,largerFirst,1.5,1.5,40,,,,,,,,
,,,,,,,,,,,,,,,774,2022-01-19_14h03.59.127,multiplicationStroop,2021.2.3,Win32,59.74786401,,,,,,,,,,,,,,,,,,,,,,,,,,,,,,,,,16,1.6142,1,0,24,24,13,1,2,×,8,2 × 8,neutral,smallerFirst,1.5,1.5,16,,,,,,,,
,,,,,,,,,,,,,,,774,2022-01-19_14h03.59.127,multiplicationStroop,2021.2.3,Win32,59.74786401,,,,,,,,,,,,,,,,,,,,,,,,,,,,,,,,,56,2.2954,1,0,25,25,9,1,7,×,8,7 × 8,neutral,smallerFirst,1.5,1.5,56,,,,,,,,
,,,,,,,,,,,,,,,774,2022-01-19_14h03.59.127,multiplicationStroop,2021.2.3,Win32,59.74786401,,,,,,,,,,,,,,,,,,,,,,,,,,,,,,,,,35,1.8966,1,0,26,26,1,1,5,×,7,5 × 7,neutral,smallerFirst,1.5,1.5,35,,,,,,,,
,,,,,,,,,,,,,,,774,2022-01-19_14h03.59.127,multiplicationStroop,2021.2.3,Win32,59.74786401,,,,,,,,,,,,,,,,,,,,,,,,,,,,,,,,,25,2.6124,1,0,27,27,31,1,5,×,5,5 × 5,neutral,tie,1.5,1.5,25,,,,,,,,
,,,,,,,,,,,,,,,774,2022-01-19_14h03.59.127,multiplicationStroop,2021.2.3,Win32,59.74786401,,,,,,,,,,,,,,,,,,,,,,,,,,,,,,,,,49,2.0664,1,0,28,28,33,1,7,×,7,7 × 7,neutral,tie,1.5,1.5,49,,,,,,,,
,,,,,,,,,,,,,,,774,2022-01-19_14h03.59.127,multiplicationStroop,2021.2.3,Win32,59.74786401,,,,,,,,,,,,,,,,,,,,,,,,,,,,,,,,,12,1.2476,1,0,29,29,25,1,6,×,2,6 × 2,neutral,largerFirst,1.5,1.5,12,,,,,,,,
,,,,,,,,,,,,,,,774,2022-01-19_14h03.59.127,multiplicationStroop,2021.2.3,Win32,59.74786401,,,,,,,,,,,,,,,,,,,,,,,,,,,,,,,,,12,1.5141,0,0,30,30,16,1,7,×,2,7 × 2,neutral,largerFirst,1.5,1.5,14,,,,,,,,
,,,,,,,,,,,,,,,774,2022-01-19_14h03.59.127,multiplicationStroop,2021.2.3,Win32,59.74786401,,,,,,,,,,,,,,,,,,,,,,,,,,,,,,,,,30,3.0619,1,0,31,31,19,1,6,×,5,6 × 5,neutral,largerFirst,1.5,1.5,30,,,,,,,,
,,,,,,,,,,,,,,,774,2022-01-19_14h03.59.127,multiplicationStroop,2021.2.3,Win32,59.74786401,,,,,,,,,,,,,,,,,,,,,,,,,,,,,,,,,63,3.9138,1,0,32,32,12,1,7,×,9,7 × 9,neutral,smallerFirst,1.5,1.5,63,,,,,,,,
,,,,,,,,,,,,,,,774,2022-01-19_14h03.59.127,multiplicationStroop,2021.2.3,Win32,59.74786401,,,,,,,,,,,,,,,,,,,,,,,,,,,,,,,,,15,1.833,1,0,33,33,5,1,3,×,5,3 × 5,neutral,smallerFirst,1.5,1.5,15,,,,,,,,
,,,,,,,,,,,,,,,774,2022-01-19_14h03.59.127,multiplicationStroop,2021.2.3,Win32,59.74786401,,,,,,,,,,,,,,,,,,,,,,,,,,,,,,,,,9,1.2479,1,0,34,34,29,1,3,×,3,3 × 3,neutral,tie,1.5,1.5,9,,,,,,,,
,,,,,,,,,,,,,,,774,2022-01-19_14h03.59.127,multiplicationStroop,2021.2.3,Win32,59.74786401,,,,,,,,,,,,,,,,,,,,,,,,,,,,,,,,,8,1.6135,1,0,35,35,3,1,2,×,4,2 × 4,neutral,smallerFirst,1.5,1.5,8,,,,,,,,
,,,,,,,,,,,,,,,774,2022-01-19_14h03.59.127,multiplicationStroop,2021.2.3,Win32,59.74786401,,,,,,,,,,,,,,,,,,,,,,,,,,,,,,,,,,,,,,,,,,,,,,,,,,0,2,2,1,1,stimulusFile/mult_blk2.xlsx,,
,,,,,,,,,,,,,,,774,2022-01-19_14h03.59.127,multiplicationStroop,2021.2.3,Win32,59.74786401,,,,,,,,,,,,,,,,,,,,,,,,,,,,,,,space,1.0842,36,2.1939,1,0,0,0,13,1,4,×,9,4 × 9,neutral,smallerFirst,1.5,1.5,36,,,,,,,,
,,,,,,,,,,,,,,,774,2022-01-19_14h03.59.127,multiplicationStroop,2021.2.3,Win32,59.74786401,,,,,,,,,,,,,,,,,,,,,,,,,,,,,,,,,18,1.8665,1,0,1,1,4,1,2,×,9,2 × 9,neutral,smallerFirst,1.5,1.5,18,,,,,,,,
,,,,,,,,,,,,,,,774,2022-01-19_14h03.59.127,multiplicationStroop,2021.2.3,Win32,59.74786401,,,,,,,,,,,,,,,,,,,,,,,,,,,,,,,,,49,2.279,1,0,2,2,33,1,7,×,7,7 × 7,neutral,tie,1.5,1.5,49,,,,,,,,
,,,,,,,,,,,,,,,774,2022-01-19_14h03.59.127,multiplicationStroop,2021.2.3,Win32,59.74786401,,,,,,,,,,,,,,,,,,,,,,,,,,,,,,,,,48,3.2461,1,0,3,3,1,1,6,×,8,6 × 8,neutral,smallerFirst,1.5,1.5,48,,,,,,,,
,,,,,,,,,,,,,,,774,2022-01-19_14h03.59.127,multiplicationStroop,2021.2.3,Win32,59.74786401,,,,,,,,,,,,,,,,,,,,,,,,,,,,,,,,,15,1.3641,1,0,4,4,19,1,5,×,3,5 × 3,neutral,largerFirst,1.5,1.5,15,,,,,,,,
,,,,,,,,,,,,,,,774,2022-01-19_14h03.59.127,multiplicationStroop,2021.2.3,Win32,59.74786401,,,,,,,,,,,,,,,,,,,,,,,,,,,,,,,,,24,1.7627,1,0,5,5,8,1,3,×,8,3 × 8,neutral,smallerFirst,1.5,1.5,24,,,,,,,,
,,,,,,,,,,,,,,,774,2022-01-19_14h03.59.127,multiplicationStroop,2021.2.3,Win32,59.74786401,,,,,,,,,,,,,,,,,,,,,,,,,,,,,,,,,14,2.0137,1,0,6,6,2,1,2,×,7,2 × 7,neutral,smallerFirst,1.5,1.5,14,,,,,,,,
,,,,,,,,,,,,,,,774,2022-01-19_14h03.59.127,multiplicationStroop,2021.2.3,Win32,59.74786401,,,,,,,,,,,,,,,,,,,,,,,,,,,,,,,,,20,1.8642,1,0,7,7,6,1,4,×,5,4 × 5,neutral,smallerFirst,1.5,1.5,20,,,,,,,,
,,,,,,,,,,,,,,,774,2022-01-19_14h03.59.127,multiplicationStroop,2021.2.3,Win32,59.74786401,,,,,,,,,,,,,,,,,,,,,,,,,,,,,,,,,36,1.6455,1,0,8,8,32,1,6,×,6,6 × 6,neutral,tie,1.5,1.5,36,,,,,,,,
,,,,,,,,,,,,,,,774,2022-01-19_14h03.59.127,multiplicationStroop,2021.2.3,Win32,59.74786401,,,,,,,,,,,,,,,,,,,,,,,,,,,,,,,,,4,1.1987,1,0,9,9,28,1,2,×,2,2 × 2,neutral,tie,1.5,1.5,4,,,,,,,,
,,,,,,,,,,,,,,,774,2022-01-19_14h03.59.127,multiplicationStroop,2021.2.3,Win32,59.74786401,,,,,,,,,,,,,,,,,,,,,,,,,,,,,,,,,40,2.513,0,0,10,10,9,1,4,×,8,4 × 8,neutral,smallerFirst,1.5,1.5,32,,,,,,,,
,,,,,,,,,,,,,,,774,2022-01-19_14h03.59.127,multiplicationStroop,2021.2.3,Win32,59.74786401,,,,,,,,,,,,,,,,,,,,,,,,,,,,,,,,,25,1.7967,1,0,11,11,31,1,5,×,5,5 × 5,neutral,tie,1.5,1.5,25,,,,,,,,
,,,,,,,,,,,,,,,774,2022-01-19_14h03.59.127,multiplicationStroop,2021.2.3,Win32,59.74786401,,,,,,,,,,,,,,,,,,,,,,,,,,,,,,,,,45,2.0139,1,0,12,12,24,1,9,×,5,9 × 5,neutral,largerFirst,1.5,1.5,45,,,,,,,,
,,,,,,,,,,,,,,,774,2022-01-19_14h03.59.127,multiplicationStroop,2021.2.3,Win32,59.74786401,,,,,,,,,,,,,,,,,,,,,,,,,,,,,,,,,54,1.9635,1,0,13,13,21,1,9,×,6,9 × 6,neutral,largerFirst,1.5,1.5,54,,,,,,,,
,,,,,,,,,,,,,,,774,2022-01-19_14h03.59.127,multiplicationStroop,2021.2.3,Win32,59.74786401,,,,,,,,,,,,,,,,,,,,,,,,,,,,,,,,,10,1.4142,1,0,14,14,18,1,5,×,2,5 × 2,neutral,largerFirst,1.5,1.5,10,,,,,,,,
,,,,,,,,,,,,,,,774,2022-01-19_14h03.59.127,multiplicationStroop,2021.2.3,Win32,59.74786401,,,,,,,,,,,,,,,,,,,,,,,,,,,,,,,,,16,2.5801,1,0,15,15,27,1,8,×,2,8 × 2,neutral,largerFirst,1.5,1.5,16,,,,,,,,
,,,,,,,,,,,,,,,774,2022-01-19_14h03.59.127,multiplicationStroop,2021.2.3,Win32,59.74786401,,,,,,,,,,,,,,,,,,,,,,,,,,,,,,,,,56,1.9297,1,0,16,16,23,1,8,×,7,8 × 7,neutral,largerFirst,1.5,1.5,56,,,,,,,,
,,,,,,,,,,,,,,,774,2022-01-19_14h03.59.127,multiplicationStroop,2021.2.3,Win32,59.74786401,,,,,,,,,,,,,,,,,,,,,,,,,,,,,,,,,16,1.6805,1,0,17,17,30,1,4,×,4,4 × 4,neutral,tie,1.5,1.5,16,,,,,,,,
,,,,,,,,,,,,,,,774,2022-01-19_14h03.59.127,multiplicationStroop,2021.2.3,Win32,59.74786401,,,,,,,,,,,,,,,,,,,,,,,,,,,,,,,,,28,2.2624,1,0,18,18,3,1,4,×,7,4 × 7,neutral,smallerFirst,1.5,1.5,28,,,,,,,,
,,,,,,,,,,,,,,,774,2022-01-19_14h03.59.127,multiplicationStroop,2021.2.3,Win32,59.74786401,,,,,,,,,,,,,,,,,,,,,,,,,,,,,,,,,30,1.6804,1,0,19,19,5,1,5,×,6,5 × 6,neutral,smallerFirst,1.5,1.5,30,,,,,,,,
,,,,,,,,,,,,,,,774,2022-01-19_14h03.59.127,multiplicationStroop,2021.2.3,Win32,59.74786401,,,,,,,,,,,,,,,,,,,,,,,,,,,,,,,,,63,3.1296,1,0,20,20,26,1,9,×,7,9 × 7,neutral,largerFirst,1.5,1.5,63,,,,,,,,
,,,,,,,,,,,,,,,774,2022-01-19_14h03.59.127,multiplicationStroop,2021.2.3,Win32,59.74786401,,,,,,,,,,,,,,,,,,,,,,,,,,,,,,,,,24,1.4162,1,0,21,21,16,1,6,×,4,6 × 4,neutral,largerFirst,1.5,1.5,24,,,,,,,,
,,,,,,,,,,,,,,,774,2022-01-19_14h03.59.127,multiplicationStroop,2021.2.3,Win32,59.74786401,,,,,,,,,,,,,,,,,,,,,,,,,,,,,,,,,12,1.2468,1,0,22,22,7,1,3,×,4,3 × 4,neutral,smallerFirst,1.5,1.5,12,,,,,,,,
,,,,,,,,,,,,,,,774,2022-01-19_14h03.59.127,multiplicationStroop,2021.2.3,Win32,59.74786401,,,,,,,,,,,,,,,,,,,,,,,,,,,,,,,,,12,1.564,1,0,23,23,11,1,2,×,6,2 × 6,neutral,smallerFirst,1.5,1.5,12,,,,,,,,
,,,,,,,,,,,,,,,774,2022-01-19_14h03.59.127,multiplicationStroop,2021.2.3,Win32,59.74786401,,,,,,,,,,,,,,,,,,,,,,,,,,,,,,,,,8,2.3634,1,0,24,24,17,1,4,×,2,4 × 2,neutral,largerFirst,1.5,1.5,8,,,,,,,,
,,,,,,,,,,,,,,,774,2022-01-19_14h03.59.127,multiplicationStroop,2021.2.3,Win32,59.74786401,,,,,,,,,,,,,,,,,,,,,,,,,,,,,,,,,72,3.7618,1,0,25,25,25,1,9,×,8,9 × 8,neutral,largerFirst,1.5,1.5,72,,,,,,,,
,,,,,,,,,,,,,,,774,2022-01-19_14h03.59.127,multiplicationStroop,2021.2.3,Win32,59.74786401,,,,,,,,,,,,,,,,,,,,,,,,,,,,,,,,,40,1.4987,1,0,26,26,10,1,5,×,8,5 × 8,neutral,smallerFirst,1.5,1.5,40,,,,,,,,
,,,,,,,,,,,,,,,774,2022-01-19_14h03.59.127,multiplicationStroop,2021.2.3,Win32,59.74786401,,,,,,,,,,,,,,,,,,,,,,,,,,,,,,,,,42,2.9788,1,0,27,27,20,1,7,×,6,7 × 6,neutral,largerFirst,1.5,1.5,42,,,,,,,,
,,,,,,,,,,,,,,,774,2022-01-19_14h03.59.127,multiplicationStroop,2021.2.3,Win32,59.74786401,,,,,,,,,,,,,,,,,,,,,,,,,,,,,,,,,9,1.6298,1,0,28,28,29,1,3,×,3,3 × 3,neutral,tie,1.5,1.5,9,,,,,,,,
,,,,,,,,,,,,,,,774,2022-01-19_14h03.59.127,multiplicationStroop,2021.2.3,Win32,59.74786401,,,,,,,,,,,,,,,,,,,,,,,,,,,,,,,,,81,1.7475,1,0,29,29,35,1,9,×,9,9 × 9,neutral,tie,1.5,1.5,81,,,,,,,,
,,,,,,,,,,,,,,,774,2022-01-19_14h03.59.127,multiplicationStroop,2021.2.3,Win32,59.74786401,,,,,,,,,,,,,,,,,,,,,,,,,,,,,,,,,35,1.6139,1,0,30,30,15,1,7,×,5,7 × 5,neutral,largerFirst,1.5,1.5,35,,,,,,,,
,,,,,,,,,,,,,,,774,2022-01-19_14h03.59.127,multiplicationStroop,2021.2.3,Win32,59.74786401,,,,,,,,,,,,,,,,,,,,,,,,,,,,,,,,,21,1.43,1,0,31,31,22,1,7,×,3,7 × 3,neutral,largerFirst,1.5,1.5,21,,,,,,,,
,,,,,,,,,,,,,,,774,2022-01-19_14h03.59.127,multiplicationStroop,2021.2.3,Win32,59.74786401,,,,,,,,,,,,,,,,,,,,,,,,,,,,,,,,,6,1.181,1,0,32,32,12,1,2,×,3,2 × 3,neutral,smallerFirst,1.5,1.5,6,,,,,,,,
,,,,,,,,,,,,,,,774,2022-01-19_14h03.59.127,multiplicationStroop,2021.2.3,Win32,59.74786401,,,,,,,,,,,,,,,,,,,,,,,,,,,,,,,,,64,1.9139,1,0,33,33,34,1,8,×,8,8 × 8,neutral,tie,1.5,1.5,64,,,,,,,,
,,,,,,,,,,,,,,,774,2022-01-19_14h03.59.127,multiplicationStroop,2021.2.3,Win32,59.74786401,,,,,,,,,,,,,,,,,,,,,,,,,,,,,,,,,18,1.6638,1,0,34,34,14,1,6,×,3,6 × 3,neutral,largerFirst,1.5,1.5,18,,,,,,,,
,,,,,,,,,,,,,,,774,2022-01-19_14h03.59.127,multiplicationStroop,2021.2.3,Win32,59.74786401,,,,,,,,,,,,,,,,,,,,,,,,,,,,,,,,,27,2.0309,1,0,35,35,0,1,3,×,9,3 × 9,neutral,smallerFirst,1.5,1.5,27,,,,,,,,
,,,,,,,,,,,,,,,774,2022-01-19_14h03.59.127,multiplicationStroop,2021.2.3,Win32,59.74786401,,,,,,,,,,,,,,,,,,,,,,,,,,,,,,,,,,,,,,,,,,,,,,,,,,0,3,3,0,1,stimulusFile/mult_blk1.xlsx,,
,,,,,,,,,,,,,,,774,2022-01-19_14h03.59.127,multiplicationStroop,2021.2.3,Win32,59.74786401,,,,,,,,,,,,,,,,,,,,,,,,,,,,,,,space,1.1741,30,1.4704,1,0,0,0,15,1,6,×,5,6 × 5,congruent,largerFirst,2,1,30,,,,,,,,
,,,,,,,,,,,,,,,774,2022-01-19_14h03.59.127,multiplicationStroop,2021.2.3,Win32,59.74786401,,,,,,,,,,,,,,,,,,,,,,,,,,,,,,,,,49,1.6979,1,0,1,1,33,1,7,×,7,7 × 7,neutral,tie,2,1,49,,,,,,,,
,,,,,,,,,,,,,,,774,2022-01-19_14h03.59.127,multiplicationStroop,2021.2.3,Win32,59.74786401,,,,,,,,,,,,,,,,,,,,,,,,,,,,,,,,,36,3.4801,1,0,2,2,0,1,4,×,9,4 × 9,congruent,smallerFirst,1,2,36,,,,,,,,
,,,,,,,,,,,,,,,774,2022-01-19_14h03.59.127,multiplicationStroop,2021.2.3,Win32,59.74786401,,,,,,,,,,,,,,,,,,,,,,,,,,,,,,,,,42,2.2832,1,0,3,3,3,1,6,×,7,6 × 7,congruent,smallerFirst,1,2,42,,,,,,,,
,,,,,,,,,,,,,,,774,2022-01-19_14h03.59.127,multiplicationStroop,2021.2.3,Win32,59.74786401,,,,,,,,,,,,,,,,,,,,,,,,,,,,,,,,,8,1.4485,1,0,4,4,9,1,2,×,4,2 × 4,congruent,smallerFirst,1,2,8,,,,,,,,
,,,,,,,,,,,,,,,774,2022-01-19_14h03.59.127,multiplicationStroop,2021.2.3,Win32,59.74786401,,,,,,,,,,,,,,,,,,,,,,,,,,,,,,,,,24,1.5815,1,0,5,5,25,1,6,×,4,6 × 4,congruent,largerFirst,2,1,24,,,,,,,,
,,,,,,,,,,,,,,,774,2022-01-19_14h03.59.127,multiplicationStroop,2021.2.3,Win32,59.74786401,,,,,,,,,,,,,,,,,,,,,,,,,,,,,,,,,32,1.4981,1,0,6,6,20,1,8,×,4,8 × 4,congruent,largerFirst,2,1,32,,,,,,,,
,,,,,,,,,,,,,,,774,2022-01-19_14h03.59.127,multiplicationStroop,2021.2.3,Win32,59.74786401,,,,,,,,,,,,,,,,,,,,,,,,,,,,,,,,,56,1.7481,1,0,7,7,8,1,7,×,8,7 × 8,congruent,smallerFirst,1,2,56,,,,,,,,
,,,,,,,,,,,,,,,774,2022-01-19_14h03.59.127,multiplicationStroop,2021.2.3,Win32,59.74786401,,,,,,,,,,,,,,,,,,,,,,,,,,,,,,,,,24,1.6648,1,0,8,8,10,1,3,×,8,3 × 8,congruent,smallerFirst,1,2,24,,,,,,,,
,,,,,,,,,,,,,,,774,2022-01-19_14h03.59.127,multiplicationStroop,2021.2.3,Win32,59.74786401,,,,,,,,,,,,,,,,,,,,,,,,,,,,,,,,,14,2.8972,1,0,9,9,14,1,7,×,2,7 × 2,congruent,largerFirst,2,1,14,,,,,,,,
,,,,,,,,,,,,,,,774,2022-01-19_14h03.59.127,multiplicationStroop,2021.2.3,Win32,59.74786401,,,,,,,,,,,,,,,,,,,,,,,,,,,,,,,,,36,3.5133,1,0,10,10,32,1,6,×,6,6 × 6,neutral,tie,2,1,36,,,,,,,,
,,,,,,,,,,,,,,,774,2022-01-19_14h03.59.127,multiplicationStroop,2021.2.3,Win32,59.74786401,,,,,,,,,,,,,,,,,,,,,,,,,,,,,,,,,48,2.4497,1,0,11,11,18,1,8,×,6,8 × 6,congruent,largerFirst,2,1,48,,,,,,,,
,,,,,,,,,,,,,,,774,2022-01-19_14h03.59.127,multiplicationStroop,2021.2.3,Win32,59.74786401,,,,,,,,,,,,,,,,,,,,,,,,,,,,,,,,,54,1.8978,1,0,12,12,12,1,6,×,9,6 × 9,congruent,smallerFirst,1,2,54,,,,,,,,
,,,,,,,,,,,,,,,774,2022-01-19_14h03.59.127,multiplicationStroop,2021.2.3,Win32,59.74786401,,,,,,,,,,,,,,,,,,,,,,,,,,,,,,,,,16,1.6482,1,0,13,13,5,1,2,×,8,2 × 8,congruent,smallerFirst,1,2,16,,,,,,,,
,,,,,,,,,,,,,,,774,2022-01-19_14h03.59.127,multiplicationStroop,2021.2.3,Win32,59.74786401,,,,,,,,,,,,,,,,,,,,,,,,,,,,,,,,,18,1.7148,1,0,14,14,22,1,9,×,2,9 × 2,congruent,largerFirst,2,1,18,,,,,,,,
,,,,,,,,,,,,,,,774,2022-01-19_14h03.59.127,multiplicationStroop,2021.2.3,Win32,59.74786401,,,,,,,,,,,,,,,,,,,,,,,,,,,,,,,,,6,1.3649,1,0,15,15,13,1,2,×,3,2 × 3,congruent,smallerFirst,1,2,6,,,,,,,,
,,,,,,,,,,,,,,,774,2022-01-19_14h03.59.127,multiplicationStroop,2021.2.3,Win32,59.74786401,,,,,,,,,,,,,,,,,,,,,,,,,,,,,,,,,12,1.2653,1,0,16,16,2,1,3,×,4,3 × 4,congruent,smallerFirst,1,2,12,,,,,,,,
,,,,,,,,,,,,,,,774,2022-01-19_14h03.59.127,multiplicationStroop,2021.2.3,Win32,59.74786401,,,,,,,,,,,,,,,,,,,,,,,,,,,,,,,,,10,1.3815,1,0,17,17,24,1,5,×,2,5 × 2,congruent,largerFirst,2,1,10,,,,,,,,
,,,,,,,,,,,,,,,774,2022-01-19_14h03.59.127,multiplicationStroop,2021.2.3,Win32,59.74786401,,,,,,,,,,,,,,,,,,,,,,,,,,,,,,,,,16,1.7479,1,0,18,18,30,1,4,×,4,4 × 4,neutral,tie,2,1,16,,,,,,,,
,,,,,,,,,,,,,,,774,2022-01-19_14h03.59.127,multiplicationStroop,2021.2.3,Win32,59.74786401,,,,,,,,,,,,,,,,,,,,,,,,,,,,,,,,,63,3.1804,1,0,19,19,21,1,9,×,7,9 × 7,congruent,largerFirst,2,1,63,,,,,,,,
,,,,,,,,,,,,,,,774,2022-01-19_14h03.59.127,multiplicationStroop,2021.2.3,Win32,59.74786401,,,,,,,,,,,,,,,,,,,,,,,,,,,,,,,,,25,1.6315,1,0,20,20,31,1,5,×,5,5 × 5,neutral,tie,2,1,25,,,,,,,,
,,,,,,,,,,,,,,,774,2022-01-19_14h03.59.127,multiplicationStroop,2021.2.3,Win32,59.74786401,,,,,,,,,,,,,,,,,,,,,,,,,,,,,,,,,64,2.4641,1,0,21,21,34,1,8,×,8,8 × 8,neutral,tie,2,1,64,,,,,,,,
,,,,,,,,,,,,,,,774,2022-01-19_14h03.59.127,multiplicationStroop,2021.2.3,Win32,59.74786401,,,,,,,,,,,,,,,,,,,,,,,,,,,,,,,,,20,1.8979,1,0,22,22,7,1,4,×,5,4 × 5,congruent,smallerFirst,1,2,20,,,,,,,,
,,,,,,,,,,,,,,,774,2022-01-19_14h03.59.127,multiplicationStroop,2021.2.3,Win32,59.74786401,,,,,,,,,,,,,,,,,,,,,,,,,,,,,,,,,81,1.5647,1,0,23,23,35,1,9,×,9,9 × 9,neutral,tie,2,1,81,,,,,,,,
,,,,,,,,,,,,,,,774,2022-01-19_14h03.59.127,multiplicationStroop,2021.2.3,Win32,59.74786401,,,,,,,,,,,,,,,,,,,,,,,,,,,,,,,,,45,1.7312,1,0,24,24,23,1,9,×,5,9 × 5,congruent,largerFirst,2,1,45,,,,,,,,
,,,,,,,,,,,,,,,774,2022-01-19_14h03.59.127,multiplicationStroop,2021.2.3,Win32,59.74786401,,,,,,,,,,,,,,,,,,,,,,,,,,,,,,,,,18,1.6983,1,0,25,25,11,1,3,×,6,3 × 6,congruent,smallerFirst,1,2,18,,,,,,,,
,,,,,,,,,,,,,,,774,2022-01-19_14h03.59.127,multiplicationStroop,2021.2.3,Win32,59.74786401,,,,,,,,,,,,,,,,,,,,,,,,,,,,,,,,,72,3.3135,1,0,26,26,17,1,9,×,8,9 × 8,congruent,largerFirst,2,1,72,,,,,,,,
,,,,,,,,,,,,,,,774,2022-01-19_14h03.59.127,multiplicationStroop,2021.2.3,Win32,59.74786401,,,,,,,,,,,,,,,,,,,,,,,,,,,,,,,,,40,1.5147,1,0,27,27,6,1,5,×,8,5 × 8,congruent,smallerFirst,1,2,40,,,,,,,,
,,,,,,,,,,,,,,,774,2022-01-19_14h03.59.127,multiplicationStroop,2021.2.3,Win32,59.74786401,,,,,,,,,,,,,,,,,,,,,,,,,,,,,,,,,27,2.7474,1,0,28,28,26,1,9,×,3,9 × 3,congruent,largerFirst,2,1,27,,,,,,,,
,,,,,,,,,,,,,,,774,2022-01-19_14h03.59.127,multiplicationStroop,2021.2.3,Win32,59.74786401,,,,,,,,,,,,,,,,,,,,,,,,,,,,,,,,,21,1.6167,1,0,29,29,16,1,7,×,3,7 × 3,congruent,largerFirst,2,1,21,,,,,,,,
,,,,,,,,,,,,,,,774,2022-01-19_14h03.59.127,multiplicationStroop,2021.2.3,Win32,59.74786401,,,,,,,,,,,,,,,,,,,,,,,,,,,,,,,,,15,1.7813,1,0,30,30,4,1,3,×,5,3 × 5,congruent,smallerFirst,1,2,15,,,,,,,,
,,,,,,,,,,,,,,,774,2022-01-19_14h03.59.127,multiplicationStroop,2021.2.3,Win32,59.74786401,,,,,,,,,,,,,,,,,,,,,,,,,,,,,,,,,35,2.031,1,0,31,31,1,1,5,×,7,5 × 7,congruent,smallerFirst,1,2,35,,,,,,,,
,,,,,,,,,,,,,,,774,2022-01-19_14h03.59.127,multiplicationStroop,2021.2.3,Win32,59.74786401,,,,,,,,,,,,,,,,,,,,,,,,,,,,,,,,,9,1.4149,1,0,32,32,29,1,3,×,3,3 × 3,neutral,tie,2,1,9,,,,,,,,
,,,,,,,,,,,,,,,774,2022-01-19_14h03.59.127,multiplicationStroop,2021.2.3,Win32,59.74786401,,,,,,,,,,,,,,,,,,,,,,,,,,,,,,,,,28,2.4142,1,0,33,33,27,1,7,×,4,7 × 4,congruent,largerFirst,2,1,28,,,,,,,,
,,,,,,,,,,,,,,,774,2022-01-19_14h03.59.127,multiplicationStroop,2021.2.3,Win32,59.74786401,,,,,,,,,,,,,,,,,,,,,,,,,,,,,,,,,4,1.1485,1,0,34,34,28,1,2,×,2,2 × 2,neutral,tie,2,1,4,,,,,,,,
,,,,,,,,,,,,,,,774,2022-01-19_14h03.59.127,multiplicationStroop,2021.2.3,Win32,59.74786401,,,,,,,,,,,,,,,,,,,,,,,,,,,,,,,,,12,1.2985,1,0,35,35,19,1,6,×,2,6 × 2,congruent,largerFirst,2,1,12,,,,,,,,
,,,,,,,,,,,,,,,774,2022-01-19_14h03.59.127,multiplicationStroop,2021.2.3,Win32,59.74786401,,,,,,,,,,,,,,,,,,,,,,,,,,,,,,,,,,,,,,,,,,,,,,,,,,0,4,4,2,1,stimulusFile/mult_blk3_congruent.xlsx,,
,,,,,,,,,,,,,,,774,2022-01-19_14h03.59.127,multiplicationStroop,2021.2.3,Win32,59.74786401,,,,,,,,,,,,,,,,,,,,,,,,,,,,,,,space,1.2335,24,2.0868,1,0,0,0,23,1,8,×,3,8 × 3,incongruent,largerFirst,1,2,24,,,,,,,,
,,,,,,,,,,,,,,,774,2022-01-19_14h03.59.127,multiplicationStroop,2021.2.3,Win32,59.74786401,,,,,,,,,,,,,,,,,,,,,,,,,,,,,,,,,10,1.2985,1,0,1,1,7,1,2,×,5,2 × 5,incongruent,smallerFirst,2,1,10,,,,,,,,
,,,,,,,,,,,,,,,774,2022-01-19_14h03.59.127,multiplicationStroop,2021.2.3,Win32,59.74786401,,,,,,,,,,,,,,,,,,,,,,,,,,,,,,,,,9,1.2651,1,0,2,2,29,1,3,×,3,3 × 3,neutral,tie,2,1,9,,,,,,,,
,,,,,,,,,,,,,,,774,2022-01-19_14h03.59.127,multiplicationStroop,2021.2.3,Win32,59.74786401,,,,,,,,,,,,,,,,,,,,,,,,,,,,,,,,,40,1.4818,1,0,3,3,27,1,8,×,5,8 × 5,incongruent,largerFirst,1,2,40,,,,,,,,
,,,,,,,,,,,,,,,774,2022-01-19_14h03.59.127,multiplicationStroop,2021.2.3,Win32,59.74786401,,,,,,,,,,,,,,,,,,,,,,,,,,,,,,,,,42,1.798,1,0,4,4,3,1,6,×,7,6 × 7,incongruent,smallerFirst,2,1,42,,,,,,,,
,,,,,,,,,,,,,,,774,2022-01-19_14h03.59.127,multiplicationStroop,2021.2.3,Win32,59.74786401,,,,,,,,,,,,,,,,,,,,,,,,,,,,,,,,,72,2.1809,1,0,5,5,14,1,9,×,8,9 × 8,incongruent,largerFirst,1,2,72,,,,,,,,
,,,,,,,,,,,,,,,774,2022-01-19_14h03.59.127,multiplicationStroop,2021.2.3,Win32,59.74786401,,,,,,,,,,,,,,,,,,,,,,,,,,,,,,,,,64,1.7648,1,0,6,6,34,1,8,×,8,8 × 8,neutral,tie,2,1,64,,,,,,,,
,,,,,,,,,,,,,,,774,2022-01-19_14h03.59.127,multiplicationStroop,2021.2.3,Win32,59.74786401,,,,,,,,,,,,,,,,,,,,,,,,,,,,,,,,,20,1.5648,1,0,7,7,13,1,4,×,5,4 × 5,incongruent,smallerFirst,2,1,20,,,,,,,,
,,,,,,,,,,,,,,,774,2022-01-19_14h03.59.127,multiplicationStroop,2021.2.3,Win32,59.74786401,,,,,,,,,,,,,,,,,,,,,,,,,,,,,,,,,16,1.6817,1,0,8,8,9,1,2,×,8,2 × 8,incongruent,smallerFirst,2,1,16,,,,,,,,
,,,,,,,,,,,,,,,774,2022-01-19_14h03.59.127,multiplicationStroop,2021.2.3,Win32,59.74786401,,,,,,,,,,,,,,,,,,,,,,,,,,,,,,,,,35,1.7814,1,0,9,9,26,1,7,×,5,7 × 5,incongruent,largerFirst,1,2,35,,,,,,,,
,,,,,,,,,,,,,,,774,2022-01-19_14h03.59.127,multiplicationStroop,2021.2.3,Win32,59.74786401,,,,,,,,,,,,,,,,,,,,,,,,,,,,,,,,,36,2.7805,1,0,10,10,1,1,4,×,9,4 × 9,incongruent,smallerFirst,2,1,36,,,,,,,,
,,,,,,,,,,,,,,,774,2022-01-19_14h03.59.127,multiplicationStroop,2021.2.3,Win32,59.74786401,,,,,,,,,,,,,,,,,,,,,,,,,,,,,,,,,8,1.6832,1,0,11,11,10,1,2,×,4,2 × 4,incongruent,smallerFirst,2,1,8,,,,,,,,
,,,,,,,,,,,,,,,774,2022-01-19_14h03.59.127,multiplicationStroop,2021.2.3,Win32,59.74786401,,,,,,,,,,,,,,,,,,,,,,,,,,,,,,,,,63,3.0636,1,0,12,12,17,1,9,×,7,9 × 7,incongruent,largerFirst,1,2,63,,,,,,,,
,,,,,,,,,,,,,,,774,2022-01-19_14h03.59.127,multiplicationStroop,2021.2.3,Win32,59.74786401,,,,,,,,,,,,,,,,,,,,,,,,,,,,,,,,,21,1.3485,1,0,13,13,12,1,3,×,7,3 × 7,incongruent,smallerFirst,2,1,21,,,,,,,,
,,,,,,,,,,,,,,,774,2022-01-19_14h03.59.127,multiplicationStroop,2021.2.3,Win32,59.74786401,,,,,,,,,,,,,,,,,,,,,,,,,,,,,,,,,12,1.6147,1,0,14,14,5,1,2,×,6,2 × 6,incongruent,smallerFirst,2,1,12,,,,,,,,
,,,,,,,,,,,,,,,774,2022-01-19_14h03.59.127,multiplicationStroop,2021.2.3,Win32,59.74786401,,,,,,,,,,,,,,,,,,,,,,,,,,,,,,,,,49,1.7316,1,0,15,15,33,1,7,×,7,7 × 7,neutral,tie,2,1,49,,,,,,,,
,,,,,,,,,,,,,,,774,2022-01-19_14h03.59.127,multiplicationStroop,2021.2.3,Win32,59.74786401,,,,,,,,,,,,,,,,,,,,,,,,,,,,,,,,,16,1.4149,1,0,16,16,30,1,4,×,4,4 × 4,neutral,tie,2,1,16,,,,,,,,
,,,,,,,,,,,,,,,774,2022-01-19_14h03.59.127,multiplicationStroop,2021.2.3,Win32,59.74786401,,,,,,,,,,,,,,,,,,,,,,,,,,,,,,,,,48,3.2134,1,0,17,17,15,1,8,×,6,8 × 6,incongruent,largerFirst,1,2,48,,,,,,,,
,,,,,,,,,,,,,,,774,2022-01-19_14h03.59.127,multiplicationStroop,2021.2.3,Win32,59.74786401,,,,,,,,,,,,,,,,,,,,,,,,,,,,,,,,,6,1.29,1,0,18,18,25,1,3,×,2,3 × 2,incongruent,largerFirst,1,2,6,,,,,,,,
,,,,,,,,,,,,,,,774,2022-01-19_14h03.59.127,multiplicationStroop,2021.2.3,Win32,59.74786401,,,,,,,,,,,,,,,,,,,,,,,,,,,,,,,,,28,1.8083,1,0,19,19,2,1,4,×,7,4 × 7,incongruent,smallerFirst,2,1,28,,,,,,,,
,,,,,,,,,,,,,,,774,2022-01-19_14h03.59.127,multiplicationStroop,2021.2.3,Win32,59.74786401,,,,,,,,,,,,,,,,,,,,,,,,,,,,,,,,,30,1.4482,1,0,20,20,11,1,5,×,6,5 × 6,incongruent,smallerFirst,2,1,30,,,,,,,,
,,,,,,,,,,,,,,,774,2022-01-19_14h03.59.127,multiplicationStroop,2021.2.3,Win32,59.74786401,,,,,,,,,,,,,,,,,,,,,,,,,,,,,,,,,56,1.665,1,0,21,21,0,1,7,×,8,7 × 8,incongruent,smallerFirst,2,1,56,,,,,,,,
,,,,,,,,,,,,,,,774,2022-01-19_14h03.59.127,multiplicationStroop,2021.2.3,Win32,59.74786401,,,,,,,,,,,,,,,,,,,,,,,,,,,,,,,,,54,2.2308,1,0,22,22,20,1,9,×,6,9 × 6,incongruent,largerFirst,1,2,54,,,,,,,,
,,,,,,,,,,,,,,,774,2022-01-19_14h03.59.127,multiplicationStroop,2021.2.3,Win32,59.74786401,,,,,,,,,,,,,,,,,,,,,,,,,,,,,,,,,24,2.0812,1,0,23,23,6,1,4,×,6,4 × 6,incongruent,smallerFirst,2,1,24,,,,,,,,
,,,,,,,,,,,,,,,774,2022-01-19_14h03.59.127,multiplicationStroop,2021.2.3,Win32,59.74786401,,,,,,,,,,,,,,,,,,,,,,,,,,,,,,,,,81,1.6483,1,0,24,24,35,1,9,×,9,9 × 9,neutral,tie,2,1,81,,,,,,,,
,,,,,,,,,,,,,,,774,2022-01-19_14h03.59.127,multiplicationStroop,2021.2.3,Win32,59.74786401,,,,,,,,,,,,,,,,,,,,,,,,,,,,,,,,,18,1.8147,1,0,25,25,16,1,9,×,2,9 × 2,incongruent,largerFirst,1,2,18,,,,,,,,
,,,,,,,,,,,,,,,774,2022-01-19_14h03.59.127,multiplicationStroop,2021.2.3,Win32,59.74786401,,,,,,,,,,,,,,,,,,,,,,,,,,,,,,,,,12,1.3318,1,0,26,26,19,1,4,×,3,4 × 3,incongruent,largerFirst,1,2,12,,,,,,,,
,,,,,,,,,,,,,,,774,2022-01-19_14h03.59.127,multiplicationStroop,2021.2.3,Win32,59.74786401,,,,,,,,,,,,,,,,,,,,,,,,,,,,,,,,,4,1.3486,1,0,27,27,28,1,2,×,2,2 × 2,neutral,tie,2,1,4,,,,,,,,
,,,,,,,,,,,,,,,774,2022-01-19_14h03.59.127,multiplicationStroop,2021.2.3,Win32,59.74786401,,,,,,,,,,,,,,,,,,,,,,,,,,,,,,,,,32,1.6313,1,0,28,28,21,1,8,×,4,8 × 4,incongruent,largerFirst,1,2,32,,,,,,,,
,,,,,,,,,,,,,,,774,2022-01-19_14h03.59.127,multiplicationStroop,2021.2.3,Win32,59.74786401,,,,,,,,,,,,,,,,,,,,,,,,,,,,,,,,,36,1.6983,1,0,29,29,32,1,6,×,6,6 × 6,neutral,tie,2,1,36,,,,,,,,
,,,,,,,,,,,,,,,774,2022-01-19_14h03.59.127,multiplicationStroop,2021.2.3,Win32,59.74786401,,,,,,,,,,,,,,,,,,,,,,,,,,,,,,,,,27,2.4475,1,0,30,30,4,1,3,×,9,3 × 9,incongruent,smallerFirst,2,1,27,,,,,,,,
,,,,,,,,,,,,,,,774,2022-01-19_14h03.59.127,multiplicationStroop,2021.2.3,Win32,59.74786401,,,,,,,,,,,,,,,,,,,,,,,,,,,,,,,,,25,1.5482,1,0,31,31,31,1,5,×,5,5 × 5,neutral,tie,2,1,25,,,,,,,,
,,,,,,,,,,,,,,,774,2022-01-19_14h03.59.127,multiplicationStroop,2021.2.3,Win32,59.74786401,,,,,,,,,,,,,,,,,,,,,,,,,,,,,,,,,18,1.4317,1,0,32,32,22,1,6,×,3,6 × 3,incongruent,largerFirst,1,2,18,,,,,,,,
,,,,,,,,,,,,,,,774,2022-01-19_14h03.59.127,multiplicationStroop,2021.2.3,Win32,59.74786401,,,,,,,,,,,,,,,,,,,,,,,,,,,,,,,,,45,1.7814,1,0,33,33,8,1,5,×,9,5 × 9,incongruent,smallerFirst,2,1,45,,,,,,,,
,,,,,,,,,,,,,,,774,2022-01-19_14h03.59.127,multiplicationStroop,2021.2.3,Win32,59.74786401,,,,,,,,,,,,,,,,,,,,,,,,,,,,,,,,,14,1.7645,1,0,34,34,18,1,7,×,2,7 × 2,incongruent,largerFirst,1,2,14,,,,,,,,
,,,,,,,,,,,,,,,774,2022-01-19_14h03.59.127,multiplicationStroop,2021.2.3,Win32,59.74786401,,,,,,,,,,,,,,,,,,,,,,,,,,,,,,,,,15,1.4648,1,0,35,35,24,1,5,×,3,5 × 3,incongruent,largerFirst,1,2,15,,,,,,,,
,,,,,,,,,,,,,,,774,2022-01-19_14h03.59.127,multiplicationStroop,2021.2.3,Win32,59.74786401,,,,,,,,,,,,,,,,,,,,,,,,,,,,,,,,,,,,,,,,,,,,,,,,,,0,5,5,4,1,stimulusFile/mult_blk5_INcongruent.xlsx,,
,,,,,,,,,,,,,,,774,2022-01-19_14h03.59.127,multiplicationStroop,2021.2.3,Win32,59.74786401,,,,,,,,,,,,,,,,,,,,,,,,,,,,,,,,,,,,,,,,,,,,,,,,,,,,,,,,space,7.6428