welcomeKey_resp.keys,welcomeKey_resp.rt,X Scale,Y Scale,rt_resp_4.keys,rt_resp_4.corr,rt_resp_4.rt,speedtest_2.thisRepN,speedtest_2.thisTrialN,speedtest_2.thisN,speedtest_2.thisIndex,speedtest_2.ran,numberSc,posX,positionLayout,participant,date,expName,psychopyVersion,OS,frameRate,ct_instrresp.keys,ct_instrresp.rt,key_resp_2.keys,key_resp_2.rt,ct_keyResp.keys,ct_keyResp.corr,ct_keyResp.rt,trials.thisRepN,trials.thisTrialN,trials.thisN,trials.thisIndex,trials.ran,leftNo,rightNo,displayProblem,numDistance,leftNo_size,rightNo_size,Dims,keyAnswer,TS_Loop.thisRepN,TS_Loop.thisTrialN,TS_Loop.thisN,TS_Loop.thisIndex,TS_Loop.ran,Condition,ActionInst,instrImage,mltptaskInst_resp.keys,mltptaskInst_resp.rt,continue_resp_2.keys,continue_resp_2.rt,multp_Answer,multi_RT,multiplyCorr,LoopingMultiply.thisRepN,LoopingMultiply.thisTrialN,LoopingMultiply.thisN,LoopingMultiply.thisIndex,LoopingMultiply.ran,factor1,multiplySign,factor2,multliplyProblem,physicalSize,orderOperand,sizeF1,sizeF2,mult_answer,trials_stroop.thisRepN,trials_stroop.thisTrialN,trials_stroop.thisN,trials_stroop.thisIndex,trials_stroop.ran,multiplicationFile,esckey_resp_2.keys,esckey_resp_2.rt
y,5.7583,41.5,41.8,right,1,0.8109,0,0,0,12,1,6,200,right,775,2022-01-19_14h29.02.995,multiplicationStroop,2021.2.3,Win32,59.62318149,,,,,,,,,,,,,,,,,,,,,,,,,,,,,,,,,,,,,,,,,,,,,,,,,,,,,,,,,
,,,,right,1,0.3924,0,1,1,15,1,9,200,right,775,2022-01-19_14h29.02.995,multiplicationStroop,2021.2.3,Win32,59.62318149,,,,,,,,,,,,,,,,,,,,,,,,,,,,,,,,,,,,,,,,,,,,,,,,,,,,,,,,,
,,,,left,1,0.4444,0,2,2,2,1,3,-200,left,775,2022-01-19_14h29.02.995,multiplicationStroop,2021.2.3,Win32,59.62318149,,,,,,,,,,,,,,,,,,,,,,,,,,,,,,,,,,,,,,,,,,,,,,,,,,,,,,,,,
,,,,left,1,0.3847,0,3,3,5,1,7,-200,left,775,2022-01-19_14h29.02.995,multiplicationStroop,2021.2.3,Win32,59.62318149,,,,,,,,,,,,,,,,,,,,,,,,,,,,,,,,,,,,,,,,,,,,,,,,,,,,,,,,,
,,,,left,1,0.3234,0,4,4,1,1,2,-200,left,775,2022-01-19_14h29.02.995,multiplicationStroop,2021.2.3,Win32,59.62318149,,,,,,,,,,,,,,,,,,,,,,,,,,,,,,,,,,,,,,,,,,,,,,,,,,,,,,,,,
,,,,left,1,0.2846,0,5,5,4,1,6,-200,left,775,2022-01-19_14h29.02.995,multiplicationStroop,2021.2.3,Win32,59.62318149,,,,,,,,,,,,,,,,,,,,,,,,,,,,,,,,,,,,,,,,,,,,,,,,,,,,,,,,,
,,,,right,1,0.3617,0,6,6,11,1,4,200,right,775,2022-01-19_14h29.02.995,multiplicationStroop,2021.2.3,Win32,59.62318149,,,,,,,,,,,,,,,,,,,,,,,,,,,,,,,,,,,,,,,,,,,,,,,,,,,,,,,,,
,,,,left,1,0.3944,0,7,7,6,1,8,-200,left,775,2022-01-19_14h29.02.995,multiplicationStroop,2021.2.3,Win32,59.62318149,,,,,,,,,,,,,,,,,,,,,,,,,,,,,,,,,,,,,,,,,,,,,,,,,,,,,,,,,
,,,,right,1,0.3647,0,8,8,10,1,3,200,right,775,2022-01-19_14h29.02.995,multiplicationStroop,2021.2.3,Win32,59.62318149,,,,,,,,,,,,,,,,,,,,,,,,,,,,,,,,,,,,,,,,,,,,,,,,,,,,,,,,,
,,,,right,1,0.3658,0,9,9,14,1,8,200,right,775,2022-01-19_14h29.02.995,multiplicationStroop,2021.2.3,Win32,59.62318149,,,,,,,,,,,,,,,,,,,,,,,,,,,,,,,,,,,,,,,,,,,,,,,,,,,,,,,,,
,,,,left,1,0.373,0,10,10,3,1,4,-200,left,775,2022-01-19_14h29.02.995,multiplicationStroop,2021.2.3,Win32,59.62318149,,,,,,,,,,,,,,,,,,,,,,,,,,,,,,,,,,,,,,,,,,,,,,,,,,,,,,,,,
,,,,left,1,0.4126,0,11,11,0,1,1,-200,left,775,2022-01-19_14h29.02.995,multiplicationStroop,2021.2.3,Win32,59.62318149,,,,,,,,,,,,,,,,,,,,,,,,,,,,,,,,,,,,,,,,,,,,,,,,,,,,,,,,,
,,,,right,1,0.4825,0,12,12,13,1,7,200,right,775,2022-01-19_14h29.02.995,multiplicationStroop,2021.2.3,Win32,59.62318149,,,,,,,,,,,,,,,,,,,,,,,,,,,,,,,,,,,,,,,,,,,,,,,,,,,,,,,,,
,,,,right,1,0.3592,0,13,13,9,1,2,200,right,775,2022-01-19_14h29.02.995,multiplicationStroop,2021.2.3,Win32,59.62318149,,,,,,,,,,,,,,,,,,,,,,,,,,,,,,,,,,,,,,,,,,,,,,,,,,,,,,,,,
,,,,right,1,0.4475,0,14,14,8,1,1,200,right,775,2022-01-19_14h29.02.995,multiplicationStroop,2021.2.3,Win32,59.62318149,,,,,,,,,,,,,,,,,,,,,,,,,,,,,,,,,,,,,,,,,,,,,,,,,,,,,,,,,
,,,,left,1,0.3949,0,15,15,7,1,9,-200,left,775,2022-01-19_14h29.02.995,multiplicationStroop,2021.2.3,Win32,59.62318149,,,,,,,,,,,,,,,,,,,,,,,,,,,,,,,,,,,,,,,,,,,,,,,,,,,,,,,,,
,,,,left,1,0.4441,1,0,16,1,1,2,-200,left,775,2022-01-19_14h29.02.995,multiplicationStroop,2021.2.3,Win32,59.62318149,,,,,,,,,,,,,,,,,,,,,,,,,,,,,,,,,,,,,,,,,,,,,,,,,,,,,,,,,
,,,,left,1,0.4488,1,1,17,7,1,9,-200,left,775,2022-01-19_14h29.02.995,multiplicationStroop,2021.2.3,Win32,59.62318149,,,,,,,,,,,,,,,,,,,,,,,,,,,,,,,,,,,,,,,,,,,,,,,,,,,,,,,,,
,,,,right,1,0.4111,1,2,18,10,1,3,200,right,775,2022-01-19_14h29.02.995,multiplicationStroop,2021.2.3,Win32,59.62318149,,,,,,,,,,,,,,,,,,,,,,,,,,,,,,,,,,,,,,,,,,,,,,,,,,,,,,,,,
,,,,right,1,0.3342,1,3,19,8,1,1,200,right,775,2022-01-19_14h29.02.995,multiplicationStroop,2021.2.3,Win32,59.62318149,,,,,,,,,,,,,,,,,,,,,,,,,,,,,,,,,,,,,,,,,,,,,,,,,,,,,,,,,
,,,,left,1,0.4751,1,4,20,2,1,3,-200,left,775,2022-01-19_14h29.02.995,multiplicationStroop,2021.2.3,Win32,59.62318149,,,,,,,,,,,,,,,,,,,,,,,,,,,,,,,,,,,,,,,,,,,,,,,,,,,,,,,,,
,,,,left,1,0.4109,1,5,21,5,1,7,-200,left,775,2022-01-19_14h29.02.995,multiplicationStroop,2021.2.3,Win32,59.62318149,,,,,,,,,,,,,,,,,,,,,,,,,,,,,,,,,,,,,,,,,,,,,,,,,,,,,,,,,
,,,,right,1,0.3853,1,6,22,9,1,2,200,right,775,2022-01-19_14h29.02.995,multiplicationStroop,2021.2.3,Win32,59.62318149,,,,,,,,,,,,,,,,,,,,,,,,,,,,,,,,,,,,,,,,,,,,,,,,,,,,,,,,,
,,,,right,1,0.3664,1,7,23,14,1,8,200,right,775,2022-01-19_14h29.02.995,multiplicationStroop,2021.2.3,Win32,59.62318149,,,,,,,,,,,,,,,,,,,,,,,,,,,,,,,,,,,,,,,,,,,,,,,,,,,,,,,,,
,,,,right,1,0.4638,1,8,24,12,1,6,200,right,775,2022-01-19_14h29.02.995,multiplicationStroop,2021.2.3,Win32,59.62318149,,,,,,,,,,,,,,,,,,,,,,,,,,,,,,,,,,,,,,,,,,,,,,,,,,,,,,,,,
,,,,right,1,0.3277,1,9,25,15,1,9,200,right,775,2022-01-19_14h29.02.995,multiplicationStroop,2021.2.3,Win32,59.62318149,,,,,,,,,,,,,,,,,,,,,,,,,,,,,,,,,,,,,,,,,,,,,,,,,,,,,,,,,
,,,,right,0,0.3784,1,10,26,6,1,8,-200,left,775,2022-01-19_14h29.02.995,multiplicationStroop,2021.2.3,Win32,59.62318149,,,,,,,,,,,,,,,,,,,,,,,,,,,,,,,,,,,,,,,,,,,,,,,,,,,,,,,,,
,,,,right,1,0.4779,1,11,27,13,1,7,200,right,775,2022-01-19_14h29.02.995,multiplicationStroop,2021.2.3,Win32,59.62318149,,,,,,,,,,,,,,,,,,,,,,,,,,,,,,,,,,,,,,,,,,,,,,,,,,,,,,,,,
,,,,right,1,0.3851,1,12,28,11,1,4,200,right,775,2022-01-19_14h29.02.995,multiplicationStroop,2021.2.3,Win32,59.62318149,,,,,,,,,,,,,,,,,,,,,,,,,,,,,,,,,,,,,,,,,,,,,,,,,,,,,,,,,
,,,,left,1,0.4765,1,13,29,0,1,1,-200,left,775,2022-01-19_14h29.02.995,multiplicationStroop,2021.2.3,Win32,59.62318149,,,,,,,,,,,,,,,,,,,,,,,,,,,,,,,,,,,,,,,,,,,,,,,,,,,,,,,,,
,,,,left,1,0.4135,1,14,30,4,1,6,-200,left,775,2022-01-19_14h29.02.995,multiplicationStroop,2021.2.3,Win32,59.62318149,,,,,,,,,,,,,,,,,,,,,,,,,,,,,,,,,,,,,,,,,,,,,,,,,,,,,,,,,
,,,,left,1,0.3547,1,15,31,3,1,4,-200,left,775,2022-01-19_14h29.02.995,multiplicationStroop,2021.2.3,Win32,59.62318149,,,,,,,,,,,,,,,,,,,,,,,,,,,,,,,,,,,,,,,,,,,,,,,,,,,,,,,,,
,,,,left,1,0.3782,2,0,32,2,1,3,-200,left,775,2022-01-19_14h29.02.995,multiplicationStroop,2021.2.3,Win32,59.62318149,,,,,,,,,,,,,,,,,,,,,,,,,,,,,,,,,,,,,,,,,,,,,,,,,,,,,,,,,
,,,,right,1,0.4148,2,1,33,12,1,6,200,right,775,2022-01-19_14h29.02.995,multiplicationStroop,2021.2.3,Win32,59.62318149,,,,,,,,,,,,,,,,,,,,,,,,,,,,,,,,,,,,,,,,,,,,,,,,,,,,,,,,,
,,,,right,1,0.3435,2,2,34,11,1,4,200,right,775,2022-01-19_14h29.02.995,multiplicationStroop,2021.2.3,Win32,59.62318149,,,,,,,,,,,,,,,,,,,,,,,,,,,,,,,,,,,,,,,,,,,,,,,,,,,,,,,,,
,,,,right,1,0.2502,2,3,35,15,1,9,200,right,775,2022-01-19_14h29.02.995,multiplicationStroop,2021.2.3,Win32,59.62318149,,,,,,,,,,,,,,,,,,,,,,,,,,,,,,,,,,,,,,,,,,,,,,,,,,,,,,,,,
,,,,right,0,0.2202,2,4,36,5,1,7,-200,left,775,2022-01-19_14h29.02.995,multiplicationStroop,2021.2.3,Win32,59.62318149,,,,,,,,,,,,,,,,,,,,,,,,,,,,,,,,,,,,,,,,,,,,,,,,,,,,,,,,,
,,,,left,1,0.5866,2,5,37,1,1,2,-200,left,775,2022-01-19_14h29.02.995,multiplicationStroop,2021.2.3,Win32,59.62318149,,,,,,,,,,,,,,,,,,,,,,,,,,,,,,,,,,,,,,,,,,,,,,,,,,,,,,,,,
,,,,right,1,0.3861,2,6,38,10,1,3,200,right,775,2022-01-19_14h29.02.995,multiplicationStroop,2021.2.3,Win32,59.62318149,,,,,,,,,,,,,,,,,,,,,,,,,,,,,,,,,,,,,,,,,,,,,,,,,,,,,,,,,
,,,,right,1,0.3998,2,7,39,13,1,7,200,right,775,2022-01-19_14h29.02.995,multiplicationStroop,2021.2.3,Win32,59.62318149,,,,,,,,,,,,,,,,,,,,,,,,,,,,,,,,,,,,,,,,,,,,,,,,,,,,,,,,,
,,,,right,1,0.2826,2,8,40,9,1,2,200,right,775,2022-01-19_14h29.02.995,multiplicationStroop,2021.2.3,Win32,59.62318149,,,,,,,,,,,,,,,,,,,,,,,,,,,,,,,,,,,,,,,,,,,,,,,,,,,,,,,,,
,,,,right,1,0.3214,2,9,41,8,1,1,200,right,775,2022-01-19_14h29.02.995,multiplicationStroop,2021.2.3,Win32,59.62318149,,,,,,,,,,,,,,,,,,,,,,,,,,,,,,,,,,,,,,,,,,,,,,,,,,,,,,,,,
,,,,left,1,0.4155,2,10,42,7,1,9,-200,left,775,2022-01-19_14h29.02.995,multiplicationStroop,2021.2.3,Win32,59.62318149,,,,,,,,,,,,,,,,,,,,,,,,,,,,,,,,,,,,,,,,,,,,,,,,,,,,,,,,,
,,,,left,1,0.3163,2,11,43,0,1,1,-200,left,775,2022-01-19_14h29.02.995,multiplicationStroop,2021.2.3,Win32,59.62318149,,,,,,,,,,,,,,,,,,,,,,,,,,,,,,,,,,,,,,,,,,,,,,,,,,,,,,,,,
,,,,left,1,0.3357,2,12,44,6,1,8,-200,left,775,2022-01-19_14h29.02.995,multiplicationStroop,2021.2.3,Win32,59.62318149,,,,,,,,,,,,,,,,,,,,,,,,,,,,,,,,,,,,,,,,,,,,,,,,,,,,,,,,,
,,,,left,1,0.3107,2,13,45,3,1,4,-200,left,775,2022-01-19_14h29.02.995,multiplicationStroop,2021.2.3,Win32,59.62318149,,,,,,,,,,,,,,,,,,,,,,,,,,,,,,,,,,,,,,,,,,,,,,,,,,,,,,,,,
,,,,left,1,0.2453,2,14,46,4,1,6,-200,left,775,2022-01-19_14h29.02.995,multiplicationStroop,2021.2.3,Win32,59.62318149,,,,,,,,,,,,,,,,,,,,,,,,,,,,,,,,,,,,,,,,,,,,,,,,,,,,,,,,,
,,,,left,0,0.3477,2,15,47,14,1,8,200,right,775,2022-01-19_14h29.02.995,multiplicationStroop,2021.2.3,Win32,59.62318149,,,,,,,,,,,,,,,,,,,,,,,,,,,,,,,,,,,,,,,,,,,,,,,,,,,,,,,,,
,,,,right,0,0.0521,3,0,48,5,1,7,-200,left,775,2022-01-19_14h29.02.995,multiplicationStroop,2021.2.3,Win32,59.62318149,,,,,,,,,,,,,,,,,,,,,,,,,,,,,,,,,,,,,,,,,,,,,,,,,,,,,,,,,
,,,,right,1,0.4351,3,1,49,15,1,9,200,right,775,2022-01-19_14h29.02.995,multiplicationStroop,2021.2.3,Win32,59.62318149,,,,,,,,,,,,,,,,,,,,,,,,,,,,,,,,,,,,,,,,,,,,,,,,,,,,,,,,,
,,,,left,1,0.3572,3,2,50,7,1,9,-200,left,775,2022-01-19_14h29.02.995,multiplicationStroop,2021.2.3,Win32,59.62318149,,,,,,,,,,,,,,,,,,,,,,,,,,,,,,,,,,,,,,,,,,,,,,,,,,,,,,,,,
,,,,left,1,0.4371,3,3,51,0,1,1,-200,left,775,2022-01-19_14h29.02.995,multiplicationStroop,2021.2.3,Win32,59.62318149,,,,,,,,,,,,,,,,,,,,,,,,,,,,,,,,,,,,,,,,,,,,,,,,,,,,,,,,,
,,,,left,1,0.3844,3,4,52,2,1,3,-200,left,775,2022-01-19_14h29.02.995,multiplicationStroop,2021.2.3,Win32,59.62318149,,,,,,,,,,,,,,,,,,,,,,,,,,,,,,,,,,,,,,,,,,,,,,,,,,,,,,,,,
,,,,left,1,0.3411,3,5,53,6,1,8,-200,left,775,2022-01-19_14h29.02.995,multiplicationStroop,2021.2.3,Win32,59.62318149,,,,,,,,,,,,,,,,,,,,,,,,,,,,,,,,,,,,,,,,,,,,,,,,,,,,,,,,,
,,,,right,1,0.4371,3,6,54,11,1,4,200,right,775,2022-01-19_14h29.02.995,multiplicationStroop,2021.2.3,Win32,59.62318149,,,,,,,,,,,,,,,,,,,,,,,,,,,,,,,,,,,,,,,,,,,,,,,,,,,,,,,,,
,,,,left,1,0.5841,3,7,55,3,1,4,-200,left,775,2022-01-19_14h29.02.995,multiplicationStroop,2021.2.3,Win32,59.62318149,,,,,,,,,,,,,,,,,,,,,,,,,,,,,,,,,,,,,,,,,,,,,,,,,,,,,,,,,
,,,,right,1,0.3534,3,8,56,9,1,2,200,right,775,2022-01-19_14h29.02.995,multiplicationStroop,2021.2.3,Win32,59.62318149,,,,,,,,,,,,,,,,,,,,,,,,,,,,,,,,,,,,,,,,,,,,,,,,,,,,,,,,,
,,,,left,1,0.3084,3,9,57,4,1,6,-200,left,775,2022-01-19_14h29.02.995,multiplicationStroop,2021.2.3,Win32,59.62318149,,,,,,,,,,,,,,,,,,,,,,,,,,,,,,,,,,,,,,,,,,,,,,,,,,,,,,,,,
,,,,right,1,0.301,3,10,58,8,1,1,200,right,775,2022-01-19_14h29.02.995,multiplicationStroop,2021.2.3,Win32,59.62318149,,,,,,,,,,,,,,,,,,,,,,,,,,,,,,,,,,,,,,,,,,,,,,,,,,,,,,,,,
,,,,left,1,0.303,3,11,59,1,1,2,-200,left,775,2022-01-19_14h29.02.995,multiplicationStroop,2021.2.3,Win32,59.62318149,,,,,,,,,,,,,,,,,,,,,,,,,,,,,,,,,,,,,,,,,,,,,,,,,,,,,,,,,
,,,,right,1,0.3212,3,12,60,14,1,8,200,right,775,2022-01-19_14h29.02.995,multiplicationStroop,2021.2.3,Win32,59.62318149,,,,,,,,,,,,,,,,,,,,,,,,,,,,,,,,,,,,,,,,,,,,,,,,,,,,,,,,,
,,,,right,1,0.4589,3,13,61,10,1,3,200,right,775,2022-01-19_14h29.02.995,multiplicationStroop,2021.2.3,Win32,59.62318149,,,,,,,,,,,,,,,,,,,,,,,,,,,,,,,,,,,,,,,,,,,,,,,,,,,,,,,,,
,,,,right,1,0.3513,3,14,62,13,1,7,200,right,775,2022-01-19_14h29.02.995,multiplicationStroop,2021.2.3,Win32,59.62318149,,,,,,,,,,,,,,,,,,,,,,,,,,,,,,,,,,,,,,,,,,,,,,,,,,,,,,,,,
,,,,right,1,0.3437,3,15,63,12,1,6,200,right,775,2022-01-19_14h29.02.995,multiplicationStroop,2021.2.3,Win32,59.62318149,,,,,,,,,,,,,,,,,,,,,,,,,,,,,,,,,,,,,,,,,,,,,,,,,,,,,,,,,
,,,,,,,,,,,,,,,775,2022-01-19_14h29.02.995,multiplicationStroop,2021.2.3,Win32,59.62318149,space,400.3906,space,8.2307,left,1,1.2169,0,0,0,22,1,8,3,8 | 3,5,1.9756,1.4111,congruent,left,,,,,,stimulusFile/physical.xlsx,,,,,,,,,,,,,,,,,,,,,,,,,,,,,,,
,,,,,,,,,,,,,,,775,2022-01-19_14h29.02.995,multiplicationStroop,2021.2.3,Win32,59.62318149,,,,,left,1,0.6189,0,1,1,34,1,6,8,6 | 8,2,1.9756,1.4111,incongruent,left,,,,,,stimulusFile/physical.xlsx,,,,,,,,,,,,,,,,,,,,,,,,,,,,,,,
,,,,,,,,,,,,,,,775,2022-01-19_14h29.02.995,multiplicationStroop,2021.2.3,Win32,59.62318149,,,,,right,1,0.4743,0,2,2,59,1,7,7,7 | 7,0,1.4111,1.9756,neutral,right,,,,,,stimulusFile/physical.xlsx,,,,,,,,,,,,,,,,,,,,,,,,,,,,,,,
,,,,,,,,,,,,,,,775,2022-01-19_14h29.02.995,multiplicationStroop,2021.2.3,Win32,59.62318149,,,,,right,1,0.5006,0,3,3,31,1,9,8,9 | 8,1,1.4111,1.9756,incongruent,right,,,,,,stimulusFile/physical.xlsx,,,,,,,,,,,,,,,,,,,,,,,,,,,,,,,
,,,,,,,,,,,,,,,775,2022-01-19_14h29.02.995,multiplicationStroop,2021.2.3,Win32,59.62318149,,,,,left,1,0.4351,0,4,4,24,1,1,2,1 | 2,1,1.9756,1.4111,incongruent,left,,,,,,stimulusFile/physical.xlsx,,,,,,,,,,,,,,,,,,,,,,,,,,,,,,,
,,,,,,,,,,,,,,,775,2022-01-19_14h29.02.995,multiplicationStroop,2021.2.3,Win32,59.62318149,,,,,left,1,0.7011,0,5,5,25,1,3,4,3 | 4,1,1.9756,1.4111,incongruent,left,,,,,,stimulusFile/physical.xlsx,,,,,,,,,,,,,,,,,,,,,,,,,,,,,,,
,,,,,,,,,,,,,,,775,2022-01-19_14h29.02.995,multiplicationStroop,2021.2.3,Win32,59.62318149,,,,,left,1,0.5925,0,6,6,42,1,3,8,3 | 8,5,1.9756,1.4111,incongruent,left,,,,,,stimulusFile/physical.xlsx,,,,,,,,,,,,,,,,,,,,,,,,,,,,,,,
,,,,,,,,,,,,,,,775,2022-01-19_14h29.02.995,multiplicationStroop,2021.2.3,Win32,59.62318149,,,,,right,1,0.538,0,7,7,46,1,8,3,8 | 3,5,1.4111,1.9756,incongruent,right,,,,,,stimulusFile/physical.xlsx,,,,,,,,,,,,,,,,,,,,,,,,,,,,,,,
,,,,,,,,,,,,,,,775,2022-01-19_14h29.02.995,multiplicationStroop,2021.2.3,Win32,59.62318149,,,,,right,1,0.4716,0,8,8,9,1,2,4,2 | 4,2,1.4111,1.9756,congruent,right,,,,,,stimulusFile/physical.xlsx,,,,,,,,,,,,,,,,,,,,,,,,,,,,,,,
,,,,,,,,,,,,,,,775,2022-01-19_14h29.02.995,multiplicationStroop,2021.2.3,Win32,59.62318149,,,,,left,1,0.5224,0,9,9,70,1,8,8,8 | 8,0,1.9756,1.4111,neutral,left,,,,,,stimulusFile/physical.xlsx,,,,,,,,,,,,,,,,,,,,,,,,,,,,,,,
,,,,,,,,,,,,,,,775,2022-01-19_14h29.02.995,multiplicationStroop,2021.2.3,Win32,59.62318149,,,,,right,1,0.5352,0,10,10,28,1,2,1,2 | 1,1,1.4111,1.9756,incongruent,right,,,,,,stimulusFile/physical.xlsx,,,,,,,,,,,,,,,,,,,,,,,,,,,,,,,
,,,,,,,,,,,,,,,775,2022-01-19_14h29.02.995,multiplicationStroop,2021.2.3,Win32,59.62318149,,,,,left,1,0.5052,0,11,11,4,1,2,1,2 | 1,1,1.9756,1.4111,congruent,left,,,,,,stimulusFile/physical.xlsx,,,,,,,,,,,,,,,,,,,,,,,,,,,,,,,
,,,,,,,,,,,,,,,775,2022-01-19_14h29.02.995,multiplicationStroop,2021.2.3,Win32,59.62318149,,,,,left,1,0.8231,0,12,12,26,1,6,7,6 | 7,1,1.9756,1.4111,incongruent,left,,,,,,stimulusFile/physical.xlsx,,,,,,,,,,,,,,,,,,,,,,,,,,,,,,,
,,,,,,,,,,,,,,,775,2022-01-19_14h29.02.995,multiplicationStroop,2021.2.3,Win32,59.62318149,,,,,left,1,0.5861,0,13,13,68,1,6,6,6 | 6,0,1.9756,1.4111,neutral,left,,,,,,stimulusFile/physical.xlsx,,,,,,,,,,,,,,,,,,,,,,,,,,,,,,,
,,,,,,,,,,,,,,,775,2022-01-19_14h29.02.995,multiplicationStroop,2021.2.3,Win32,59.62318149,,,,,right,1,0.5683,0,14,14,58,1,6,6,6 | 6,0,1.4111,1.9756,neutral,right,,,,,,stimulusFile/physical.xlsx,,,,,,,,,,,,,,,,,,,,,,,,,,,,,,,
,,,,,,,,,,,,,,,775,2022-01-19_14h29.02.995,multiplicationStroop,2021.2.3,Win32,59.62318149,,,,,right,1,0.585,0,15,15,57,1,2,2,2 | 2,0,1.4111,1.9756,neutral,right,,,,,,stimulusFile/physical.xlsx,,,,,,,,,,,,,,,,,,,,,,,,,,,,,,,
,,,,,,,,,,,,,,,775,2022-01-19_14h29.02.995,multiplicationStroop,2021.2.3,Win32,59.62318149,,,,,left,1,0.4899,0,16,16,23,1,9,4,9 | 4,5,1.9756,1.4111,congruent,left,,,,,,stimulusFile/physical.xlsx,,,,,,,,,,,,,,,,,,,,,,,,,,,,,,,
,,,,,,,,,,,,,,,775,2022-01-19_14h29.02.995,multiplicationStroop,2021.2.3,Win32,59.62318149,,,,,left,0,0.5511,0,17,17,64,1,1,1,1 | 1,0,1.9756,1.4111,neutral,right,,,,,,stimulusFile/physical.xlsx,,,,,,,,,,,,,,,,,,,,,,,,,,,,,,,
,,,,,,,,,,,,,,,775,2022-01-19_14h29.02.995,multiplicationStroop,2021.2.3,Win32,59.62318149,,,,,left,1,0.4899,0,18,18,7,1,9,8,9 | 8,1,1.9756,1.4111,congruent,left,,,,,,stimulusFile/physical.xlsx,,,,,,,,,,,,,,,,,,,,,,,,,,,,,,,
,,,,,,,,,,,,,,,775,2022-01-19_14h29.02.995,multiplicationStroop,2021.2.3,Win32,59.62318149,,,,,right,1,0.4863,0,19,19,36,1,3,1,3 | 1,2,1.4111,1.9756,incongruent,right,,,,,,stimulusFile/physical.xlsx,,,,,,,,,,,,,,,,,,,,,,,,,,,,,,,
,,,,,,,,,,,,,,,775,2022-01-19_14h29.02.995,multiplicationStroop,2021.2.3,Win32,59.62318149,,,,,right,1,0.5956,0,20,20,11,1,7,9,7 | 9,2,1.4111,1.9756,congruent,right,,,,,,stimulusFile/physical.xlsx,,,,,,,,,,,,,,,,,,,,,,,,,,,,,,,
,,,,,,,,,,,,,,,775,2022-01-19_14h29.02.995,multiplicationStroop,2021.2.3,Win32,59.62318149,,,,,right,1,0.7676,0,21,21,38,1,8,6,8 | 6,2,1.4111,1.9756,incongruent,right,,,,,,stimulusFile/physical.xlsx,,,,,,,,,,,,,,,,,,,,,,,,,,,,,,,
,,,,,,,,,,,,,,,775,2022-01-19_14h29.02.995,multiplicationStroop,2021.2.3,Win32,59.62318149,,,,,right,1,0.5899,0,22,22,63,1,9,9,9 | 9,0,1.4111,1.9756,neutral,right,,,,,,stimulusFile/physical.xlsx,,,,,,,,,,,,,,,,,,,,,,,,,,,,,,,
,,,,,,,,,,,,,,,775,2022-01-19_14h29.02.995,multiplicationStroop,2021.2.3,Win32,59.62318149,,,,,left,1,0.6011,0,23,23,43,1,4,9,4 | 9,5,1.9756,1.4111,incongruent,left,,,,,,stimulusFile/physical.xlsx,,,,,,,,,,,,,,,,,,,,,,,,,,,,,,,
,,,,,,,,,,,,,,,775,2022-01-19_14h29.02.995,multiplicationStroop,2021.2.3,Win32,59.62318149,,,,,left,1,0.6837,0,24,24,32,1,1,3,1 | 3,2,1.9756,1.4111,incongruent,left,,,,,,stimulusFile/physical.xlsx,,,,,,,,,,,,,,,,,,,,,,,,,,,,,,,
,,,,,,,,,,,,,,,775,2022-01-19_14h29.02.995,multiplicationStroop,2021.2.3,Win32,59.62318149,,,,,right,1,0.5511,0,25,25,1,1,3,4,3 | 4,1,1.4111,1.9756,congruent,right,,,,,,stimulusFile/physical.xlsx,,,,,,,,,,,,,,,,,,,,,,,,,,,,,,,
,,,,,,,,,,,,,,,775,2022-01-19_14h29.02.995,multiplicationStroop,2021.2.3,Win32,59.62318149,,,,,left,1,0.5414,0,26,26,52,1,2,2,2 | 2,0,1.9756,1.4111,neutral,left,,,,,,stimulusFile/physical.xlsx,,,,,,,,,,,,,,,,,,,,,,,,,,,,,,,
,,,,,,,,,,,,,,,775,2022-01-19_14h29.02.995,multiplicationStroop,2021.2.3,Win32,59.62318149,,,,,right,1,0.5352,0,27,27,47,1,9,4,9 | 4,5,1.4111,1.9756,incongruent,right,,,,,,stimulusFile/physical.xlsx,,,,,,,,,,,,,,,,,,,,,,,,,,,,,,,
,,,,,,,,,,,,,,,775,2022-01-19_14h29.02.995,multiplicationStroop,2021.2.3,Win32,59.62318149,,,,,right,1,0.508,0,28,28,62,1,8,8,8 | 8,0,1.4111,1.9756,neutral,right,,,,,,stimulusFile/physical.xlsx,,,,,,,,,,,,,,,,,,,,,,,,,,,,,,,
,,,,,,,,,,,,,,,775,2022-01-19_14h29.02.995,multiplicationStroop,2021.2.3,Win32,59.62318149,,,,,right,1,0.6248,0,29,29,8,1,1,3,1 | 3,2,1.4111,1.9756,congruent,right,,,,,,stimulusFile/physical.xlsx,,,,,,,,,,,,,,,,,,,,,,,,,,,,,,,
,,,,,,,,,,,,,,,775,2022-01-19_14h29.02.995,multiplicationStroop,2021.2.3,Win32,59.62318149,,,,,right,1,0.5182,0,30,30,17,1,2,7,2 | 7,5,1.4111,1.9756,congruent,right,,,,,,stimulusFile/physical.xlsx,,,,,,,,,,,,,,,,,,,,,,,,,,,,,,,
,,,,,,,,,,,,,,,775,2022-01-19_14h29.02.995,multiplicationStroop,2021.2.3,Win32,59.62318149,,,,,right,1,0.5762,0,31,31,56,1,1,1,1 | 1,0,1.4111,1.9756,neutral,right,,,,,,stimulusFile/physical.xlsx,,,,,,,,,,,,,,,,,,,,,,,,,,,,,,,
,,,,,,,,,,,,,,,775,2022-01-19_14h29.02.995,multiplicationStroop,2021.2.3,Win32,59.62318149,,,,,left,1,0.5264,0,32,32,15,1,9,7,9 | 7,2,1.9756,1.4111,congruent,left,,,,,,stimulusFile/physical.xlsx,,,,,,,,,,,,,,,,,,,,,,,,,,,,,,,
,,,,,,,,,,,,,,,775,2022-01-19_14h29.02.995,multiplicationStroop,2021.2.3,Win32,59.62318149,,,,,right,1,0.4396,0,33,33,10,1,6,8,6 | 8,2,1.4111,1.9756,congruent,right,,,,,,stimulusFile/physical.xlsx,,,,,,,,,,,,,,,,,,,,,,,,,,,,,,,
,,,,,,,,,,,,,,,775,2022-01-19_14h29.02.995,multiplicationStroop,2021.2.3,Win32,59.62318149,,,,,right,1,0.5223,0,34,34,61,1,4,4,4 | 4,0,1.4111,1.9756,neutral,right,,,,,,stimulusFile/physical.xlsx,,,,,,,,,,,,,,,,,,,,,,,,,,,,,,,
,,,,,,,,,,,,,,,775,2022-01-19_14h29.02.995,multiplicationStroop,2021.2.3,Win32,59.62318149,,,,,right,1,0.5517,0,35,35,16,1,1,6,1 | 6,5,1.4111,1.9756,congruent,right,,,,,,stimulusFile/physical.xlsx,,,,,,,,,,,,,,,,,,,,,,,,,,,,,,,
,,,,,,,,,,,,,,,775,2022-01-19_14h29.02.995,multiplicationStroop,2021.2.3,Win32,59.62318149,,,,,left,1,0.4259,0,36,36,14,1,8,6,8 | 6,2,1.9756,1.4111,congruent,left,,,,,,stimulusFile/physical.xlsx,,,,,,,,,,,,,,,,,,,,,,,,,,,,,,,
,,,,,,,,,,,,,,,775,2022-01-19_14h29.02.995,multiplicationStroop,2021.2.3,Win32,59.62318149,,,,,left,1,0.577,0,37,37,48,1,1,1,1 | 1,0,1.9756,1.4111,neutral,left,,,,,,stimulusFile/physical.xlsx,,,,,,,,,,,,,,,,,,,,,,,,,,,,,,,
,,,,,,,,,,,,,,,775,2022-01-19_14h29.02.995,multiplicationStroop,2021.2.3,Win32,59.62318149,,,,,left,1,0.4867,0,38,38,50,1,6,6,6 | 6,0,1.9756,1.4111,neutral,left,,,,,,stimulusFile/physical.xlsx,,,,,,,,,,,,,,,,,,,,,,,,,,,,,,,
,,,,,,,,,,,,,,,775,2022-01-19_14h29.02.995,multiplicationStroop,2021.2.3,Win32,59.62318149,,,,,right,1,0.4353,0,39,39,67,1,4,4,4 | 4,0,1.4111,1.9756,neutral,right,,,,,,stimulusFile/physical.xlsx,,,,,,,,,,,,,,,,,,,,,,,,,,,,,,,
,,,,,,,,,,,,,,,775,2022-01-19_14h29.02.995,multiplicationStroop,2021.2.3,Win32,59.62318149,,,,,left,0,0.4948,0,40,40,66,1,3,3,3 | 3,0,1.9756,1.4111,neutral,right,,,,,,stimulusFile/physical.xlsx,,,,,,,,,,,,,,,,,,,,,,,,,,,,,,,
,,,,,,,,,,,,,,,775,2022-01-19_14h29.02.995,multiplicationStroop,2021.2.3,Win32,59.62318149,,,,,right,1,0.4895,0,41,41,30,1,7,6,7 | 6,1,1.4111,1.9756,incongruent,right,,,,,,stimulusFile/physical.xlsx,,,,,,,,,,,,,,,,,,,,,,,,,,,,,,,
,,,,,,,,,,,,,,,775,2022-01-19_14h29.02.995,multiplicationStroop,2021.2.3,Win32,59.62318149,,,,,right,0,0.5229,0,42,42,69,1,7,7,7 | 7,0,1.4111,1.9756,neutral,left,,,,,,stimulusFile/physical.xlsx,,,,,,,,,,,,,,,,,,,,,,,,,,,,,,,
,,,,,,,,,,,,,,,775,2022-01-19_14h29.02.995,multiplicationStroop,2021.2.3,Win32,59.62318149,,,,,right,1,0.523,0,43,43,45,1,7,2,7 | 2,5,1.4111,1.9756,incongruent,right,,,,,,stimulusFile/physical.xlsx,,,,,,,,,,,,,,,,,,,,,,,,,,,,,,,
,,,,,,,,,,,,,,,775,2022-01-19_14h29.02.995,multiplicationStroop,2021.2.3,Win32,59.62318149,,,,,right,1,0.6512,0,44,44,44,1,6,1,6 | 1,5,1.4111,1.9756,incongruent,right,,,,,,stimulusFile/physical.xlsx,,,,,,,,,,,,,,,,,,,,,,,,,,,,,,,
,,,,,,,,,,,,,,,775,2022-01-19_14h29.02.995,multiplicationStroop,2021.2.3,Win32,59.62318149,,,,,right,1,0.5271,0,45,45,37,1,4,2,4 | 2,2,1.4111,1.9756,incongruent,right,,,,,,stimulusFile/physical.xlsx,,,,,,,,,,,,,,,,,,,,,,,,,,,,,,,
,,,,,,,,,,,,,,,775,2022-01-19_14h29.02.995,multiplicationStroop,2021.2.3,Win32,59.62318149,,,,,right,1,0.6175,0,46,46,0,1,1,2,1 | 2,1,1.4111,1.9756,congruent,right,,,,,,stimulusFile/physical.xlsx,,,,,,,,,,,,,,,,,,,,,,,,,,,,,,,
,,,,,,,,,,,,,,,775,2022-01-19_14h29.02.995,multiplicationStroop,2021.2.3,Win32,59.62318149,,,,,left,1,0.553,0,47,47,41,1,2,7,2 | 7,5,1.9756,1.4111,incongruent,left,,,,,,stimulusFile/physical.xlsx,,,,,,,,,,,,,,,,,,,,,,,,,,,,,,,
,,,,,,,,,,,,,,,775,2022-01-19_14h29.02.995,multiplicationStroop,2021.2.3,Win32,59.62318149,,,,,right,0,0.5199,0,48,48,71,1,9,9,9 | 9,0,1.4111,1.9756,neutral,left,,,,,,stimulusFile/physical.xlsx,,,,,,,,,,,,,,,,,,,,,,,,,,,,,,,
,,,,,,,,,,,,,,,775,2022-01-19_14h29.02.995,multiplicationStroop,2021.2.3,Win32,59.62318149,,,,,left,1,0.5697,0,49,49,49,1,3,3,3 | 3,0,1.9756,1.4111,neutral,left,,,,,,stimulusFile/physical.xlsx,,,,,,,,,,,,,,,,,,,,,,,,,,,,,,,
,,,,,,,,,,,,,,,775,2022-01-19_14h29.02.995,multiplicationStroop,2021.2.3,Win32,59.62318149,,,,,right,1,0.451,0,50,50,2,1,6,7,6 | 7,1,1.4111,1.9756,congruent,right,,,,,,stimulusFile/physical.xlsx,,,,,,,,,,,,,,,,,,,,,,,,,,,,,,,
,,,,,,,,,,,,,,,775,2022-01-19_14h29.02.995,multiplicationStroop,2021.2.3,Win32,59.62318149,,,,,left,1,0.5245,0,51,51,35,1,7,9,7 | 9,2,1.9756,1.4111,incongruent,left,,,,,,stimulusFile/physical.xlsx,,,,,,,,,,,,,,,,,,,,,,,,,,,,,,,
,,,,,,,,,,,,,,,775,2022-01-19_14h29.02.995,multiplicationStroop,2021.2.3,Win32,59.62318149,,,,,right,1,0.4677,0,52,52,60,1,3,3,3 | 3,0,1.4111,1.9756,neutral,right,,,,,,stimulusFile/physical.xlsx,,,,,,,,,,,,,,,,,,,,,,,,,,,,,,,
,,,,,,,,,,,,,,,775,2022-01-19_14h29.02.995,multiplicationStroop,2021.2.3,Win32,59.62318149,,,,,left,1,0.451,0,53,53,6,1,7,6,7 | 6,1,1.9756,1.4111,congruent,left,,,,,,stimulusFile/physical.xlsx,,,,,,,,,,,,,,,,,,,,,,,,,,,,,,,
,,,,,,,,,,,,,,,775,2022-01-19_14h29.02.995,multiplicationStroop,2021.2.3,Win32,59.62318149,,,,,left,1,0.4537,0,54,54,33,1,2,4,2 | 4,2,1.9756,1.4111,incongruent,left,,,,,,stimulusFile/physical.xlsx,,,,,,,,,,,,,,,,,,,,,,,,,,,,,,,
,,,,,,,,,,,,,,,775,2022-01-19_14h29.02.995,multiplicationStroop,2021.2.3,Win32,59.62318149,,,,,right,1,0.5206,0,55,55,3,1,8,9,8 | 9,1,1.4111,1.9756,congruent,right,,,,,,stimulusFile/physical.xlsx,,,,,,,,,,,,,,,,,,,,,,,,,,,,,,,
,,,,,,,,,,,,,,,775,2022-01-19_14h29.02.995,multiplicationStroop,2021.2.3,Win32,59.62318149,,,,,right,1,0.4845,0,56,56,19,1,4,9,4 | 9,5,1.4111,1.9756,congruent,right,,,,,,stimulusFile/physical.xlsx,,,,,,,,,,,,,,,,,,,,,,,,,,,,,,,
,,,,,,,,,,,,,,,775,2022-01-19_14h29.02.995,multiplicationStroop,2021.2.3,Win32,59.62318149,,,,,left,1,0.4349,0,57,57,40,1,1,6,1 | 6,5,1.9756,1.4111,incongruent,left,,,,,,stimulusFile/physical.xlsx,,,,,,,,,,,,,,,,,,,,,,,,,,,,,,,
,,,,,,,,,,,,,,,775,2022-01-19_14h29.02.995,multiplicationStroop,2021.2.3,Win32,59.62318149,,,,,left,1,0.4754,0,58,58,12,1,3,1,3 | 1,2,1.9756,1.4111,congruent,left,,,,,,stimulusFile/physical.xlsx,,,,,,,,,,,,,,,,,,,,,,,,,,,,,,,
,,,,,,,,,,,,,,,775,2022-01-19_14h29.02.995,multiplicationStroop,2021.2.3,Win32,59.62318149,,,,,left,1,0.538,0,59,59,51,1,8,8,8 | 8,0,1.9756,1.4111,neutral,left,,,,,,stimulusFile/physical.xlsx,,,,,,,,,,,,,,,,,,,,,,,,,,,,,,,
,,,,,,,,,,,,,,,775,2022-01-19_14h29.02.995,multiplicationStroop,2021.2.3,Win32,59.62318149,,,,,right,1,0.4711,0,60,60,18,1,3,8,3 | 8,5,1.4111,1.9756,congruent,right,,,,,,stimulusFile/physical.xlsx,,,,,,,,,,,,,,,,,,,,,,,,,,,,,,,
,,,,,,,,,,,,,,,775,2022-01-19_14h29.02.995,multiplicationStroop,2021.2.3,Win32,59.62318149,,,,,left,1,0.5091,0,61,61,55,1,9,9,9 | 9,0,1.9756,1.4111,neutral,left,,,,,,stimulusFile/physical.xlsx,,,,,,,,,,,,,,,,,,,,,,,,,,,,,,,
,,,,,,,,,,,,,,,775,2022-01-19_14h29.02.995,multiplicationStroop,2021.2.3,Win32,59.62318149,,,,,left,1,0.4762,0,62,62,13,1,4,2,4 | 2,2,1.9756,1.4111,congruent,left,,,,,,stimulusFile/physical.xlsx,,,,,,,,,,,,,,,,,,,,,,,,,,,,,,,
,,,,,,,,,,,,,,,775,2022-01-19_14h29.02.995,multiplicationStroop,2021.2.3,Win32,59.62318149,,,,,right,1,0.5388,0,63,63,65,1,2,2,2 | 2,0,1.4111,1.9756,neutral,right,,,,,,stimulusFile/physical.xlsx,,,,,,,,,,,,,,,,,,,,,,,,,,,,,,,
,,,,,,,,,,,,,,,775,2022-01-19_14h29.02.995,multiplicationStroop,2021.2.3,Win32,59.62318149,,,,,right,1,0.5511,0,64,64,29,1,4,3,4 | 3,1,1.4111,1.9756,incongruent,right,,,,,,stimulusFile/physical.xlsx,,,,,,,,,,,,,,,,,,,,,,,,,,,,,,,
,,,,,,,,,,,,,,,775,2022-01-19_14h29.02.995,multiplicationStroop,2021.2.3,Win32,59.62318149,,,,,left,1,0.4679,0,65,65,54,1,7,7,7 | 7,0,1.9756,1.4111,neutral,left,,,,,,stimulusFile/physical.xlsx,,,,,,,,,,,,,,,,,,,,,,,,,,,,,,,
,,,,,,,,,,,,,,,775,2022-01-19_14h29.02.995,multiplicationStroop,2021.2.3,Win32,59.62318149,,,,,left,1,0.4517,0,66,66,5,1,4,3,4 | 3,1,1.9756,1.4111,congruent,left,,,,,,stimulusFile/physical.xlsx,,,,,,,,,,,,,,,,,,,,,,,,,,,,,,,
,,,,,,,,,,,,,,,775,2022-01-19_14h29.02.995,multiplicationStroop,2021.2.3,Win32,59.62318149,,,,,left,1,0.4437,0,67,67,21,1,7,2,7 | 2,5,1.9756,1.4111,congruent,left,,,,,,stimulusFile/physical.xlsx,,,,,,,,,,,,,,,,,,,,,,,,,,,,,,,
,,,,,,,,,,,,,,,775,2022-01-19_14h29.02.995,multiplicationStroop,2021.2.3,Win32,59.62318149,,,,,left,1,0.4888,0,68,68,20,1,6,1,6 | 1,5,1.9756,1.4111,congruent,left,,,,,,stimulusFile/physical.xlsx,,,,,,,,,,,,,,,,,,,,,,,,,,,,,,,
,,,,,,,,,,,,,,,775,2022-01-19_14h29.02.995,multiplicationStroop,2021.2.3,Win32,59.62318149,,,,,right,1,0.4603,0,69,69,39,1,9,7,9 | 7,2,1.4111,1.9756,incongruent,right,,,,,,stimulusFile/physical.xlsx,,,,,,,,,,,,,,,,,,,,,,,,,,,,,,,
,,,,,,,,,,,,,,,775,2022-01-19_14h29.02.995,multiplicationStroop,2021.2.3,Win32,59.62318149,,,,,left,1,0.502,0,70,70,27,1,8,9,8 | 9,1,1.9756,1.4111,incongruent,left,,,,,,stimulusFile/physical.xlsx,,,,,,,,,,,,,,,,,,,,,,,,,,,,,,,
,,,,,,,,,,,,,,,775,2022-01-19_14h29.02.995,multiplicationStroop,2021.2.3,Win32,59.62318149,,,,,left,1,0.4843,0,71,71,53,1,4,4,4 | 4,0,1.9756,1.4111,neutral,left,,,,,,stimulusFile/physical.xlsx,,,,,,,,,,,,,,,,,,,,,,,,,,,,,,,
,,,,,,,,,,,,,,,775,2022-01-19_14h29.02.995,multiplicationStroop,2021.2.3,Win32,59.62318149,,,,,,,,,,,,,,,,,,,,,0,0,0,1,1,stimulusFile/physical.xlsx,PHYSICALLY larger (larger font size).,images/physicallyLarger.png,,,,,,,,,,,,,,,,,,,,,,,,,,,,,
,,,,,,,,,,,,,,,775,2022-01-19_14h29.02.995,multiplicationStroop,2021.2.3,Win32,59.62318149,space,6.3892,space,9.4113,right,1,0.473,0,0,0,40,1,1,6,1 | 6,5,1.9756,1.4111,incongruent,right,,,,,,stimulusFile/magnitude.xlsx,,,,,,,,,,,,,,,,,,,,,,,,,,,,,,,
,,,,,,,,,,,,,,,775,2022-01-19_14h29.02.995,multiplicationStroop,2021.2.3,Win32,59.62318149,,,,,right,1,0.4502,0,1,1,9,1,2,4,2 | 4,2,1.4111,1.9756,congruent,right,,,,,,stimulusFile/magnitude.xlsx,,,,,,,,,,,,,,,,,,,,,,,,,,,,,,,
,,,,,,,,,,,,,,,775,2022-01-19_14h29.02.995,multiplicationStroop,2021.2.3,Win32,59.62318149,,,,,right,1,0.4443,0,2,2,10,1,6,8,6 | 8,2,1.4111,1.9756,congruent,right,,,,,,stimulusFile/magnitude.xlsx,,,,,,,,,,,,,,,,,,,,,,,,,,,,,,,
,,,,,,,,,,,,,,,775,2022-01-19_14h29.02.995,multiplicationStroop,2021.2.3,Win32,59.62318149,,,,,right,1,0.4622,0,3,3,57,1,2,4,2 | 4,2,1.6933,1.6933,neutral,right,,,,,,stimulusFile/magnitude.xlsx,,,,,,,,,,,,,,,,,,,,,,,,,,,,,,,
,,,,,,,,,,,,,,,775,2022-01-19_14h29.02.995,multiplicationStroop,2021.2.3,Win32,59.62318149,,,,,left,1,0.4852,0,4,4,15,1,9,7,9 | 7,2,1.9756,1.4111,congruent,left,,,,,,stimulusFile/magnitude.xlsx,,,,,,,,,,,,,,,,,,,,,,,,,,,,,,,
,,,,,,,,,,,,,,,775,2022-01-19_14h29.02.995,multiplicationStroop,2021.2.3,Win32,59.62318149,,,,,right,1,0.5805,0,5,5,59,1,7,9,7 | 9,2,1.6933,1.6933,neutral,right,,,,,,stimulusFile/magnitude.xlsx,,,,,,,,,,,,,,,,,,,,,,,,,,,,,,,
,,,,,,,,,,,,,,,775,2022-01-19_14h29.02.995,multiplicationStroop,2021.2.3,Win32,59.62318149,,,,,right,0,0.5604,0,6,6,37,1,4,2,4 | 2,2,1.4111,1.9756,incongruent,left,,,,,,stimulusFile/magnitude.xlsx,,,,,,,,,,,,,,,,,,,,,,,,,,,,,,,
,,,,,,,,,,,,,,,775,2022-01-19_14h29.02.995,multiplicationStroop,2021.2.3,Win32,59.62318149,,,,,right,1,1.0267,0,7,7,27,1,8,9,8 | 9,1,1.9756,1.4111,incongruent,right,,,,,,stimulusFile/magnitude.xlsx,,,,,,,,,,,,,,,,,,,,,,,,,,,,,,,
,,,,,,,,,,,,,,,775,2022-01-19_14h29.02.995,multiplicationStroop,2021.2.3,Win32,59.62318149,,,,,left,1,0.9233,0,8,8,38,1,8,6,8 | 6,2,1.4111,1.9756,incongruent,left,,,,,,stimulusFile/magnitude.xlsx,,,,,,,,,,,,,,,,,,,,,,,,,,,,,,,
,,,,,,,,,,,,,,,775,2022-01-19_14h29.02.995,multiplicationStroop,2021.2.3,Win32,59.62318149,,,,,left,1,1.1419,0,9,9,62,1,8,6,8 | 6,2,1.6933,1.6933,neutral,left,,,,,,stimulusFile/magnitude.xlsx,,,,,,,,,,,,,,,,,,,,,,,,,,,,,,,
,,,,,,,,,,,,,,,775,2022-01-19_14h29.02.995,multiplicationStroop,2021.2.3,Win32,59.62318149,,,,,left,1,0.9364,0,10,10,31,1,9,8,9 | 8,1,1.4111,1.9756,incongruent,left,,,,,,stimulusFile/magnitude.xlsx,,,,,,,,,,,,,,,,,,,,,,,,,,,,,,,
,,,,,,,,,,,,,,,775,2022-01-19_14h29.02.995,multiplicationStroop,2021.2.3,Win32,59.62318149,,,,,left,1,0.4593,0,11,11,12,1,3,1,3 | 1,2,1.9756,1.4111,congruent,left,,,,,,stimulusFile/magnitude.xlsx,,,,,,,,,,,,,,,,,,,,,,,,,,,,,,,
,,,,,,,,,,,,,,,775,2022-01-19_14h29.02.995,multiplicationStroop,2021.2.3,Win32,59.62318149,,,,,right,1,0.8298,0,12,12,51,1,8,9,8 | 9,1,1.6933,1.6933,neutral,right,,,,,,stimulusFile/magnitude.xlsx,,,,,,,,,,,,,,,,,,,,,,,,,,,,,,,
,,,,,,,,,,,,,,,775,2022-01-19_14h29.02.995,multiplicationStroop,2021.2.3,Win32,59.62318149,,,,,left,1,0.5282,0,13,13,68,1,6,1,6 | 1,5,1.6933,1.6933,neutral,left,,,,,,stimulusFile/magnitude.xlsx,,,,,,,,,,,,,,,,,,,,,,,,,,,,,,,
,,,,,,,,,,,,,,,775,2022-01-19_14h29.02.995,multiplicationStroop,2021.2.3,Win32,59.62318149,,,,,right,1,0.5659,0,14,14,58,1,6,8,6 | 8,2,1.6933,1.6933,neutral,right,,,,,,stimulusFile/magnitude.xlsx,,,,,,,,,,,,,,,,,,,,,,,,,,,,,,,
,,,,,,,,,,,,,,,775,2022-01-19_14h29.02.995,multiplicationStroop,2021.2.3,Win32,59.62318149,,,,,right,1,0.5618,0,15,15,66,1,3,8,3 | 8,5,1.6933,1.6933,neutral,right,,,,,,stimulusFile/magnitude.xlsx,,,,,,,,,,,,,,,,,,,,,,,,,,,,,,,
,,,,,,,,,,,,,,,775,2022-01-19_14h29.02.995,multiplicationStroop,2021.2.3,Win32,59.62318149,,,,,right,1,0.6152,0,16,16,64,1,1,6,1 | 6,5,1.6933,1.6933,neutral,right,,,,,,stimulusFile/magnitude.xlsx,,,,,,,,,,,,,,,,,,,,,,,,,,,,,,,
,,,,,,,,,,,,,,,775,2022-01-19_14h29.02.995,multiplicationStroop,2021.2.3,Win32,59.62318149,,,,,right,1,0.8914,0,17,17,67,1,4,9,4 | 9,5,1.6933,1.6933,neutral,right,,,,,,stimulusFile/magnitude.xlsx,,,,,,,,,,,,,,,,,,,,,,,,,,,,,,,
,,,,,,,,,,,,,,,775,2022-01-19_14h29.02.995,multiplicationStroop,2021.2.3,Win32,59.62318149,,,,,right,1,0.615,0,18,18,43,1,4,9,4 | 9,5,1.9756,1.4111,incongruent,right,,,,,,stimulusFile/magnitude.xlsx,,,,,,,,,,,,,,,,,,,,,,,,,,,,,,,
,,,,,,,,,,,,,,,775,2022-01-19_14h29.02.995,multiplicationStroop,2021.2.3,Win32,59.62318149,,,,,right,1,0.6123,0,19,19,1,1,3,4,3 | 4,1,1.4111,1.9756,congruent,right,,,,,,stimulusFile/magnitude.xlsx,,,,,,,,,,,,,,,,,,,,,,,,,,,,,,,
,,,,,,,,,,,,,,,775,2022-01-19_14h29.02.995,multiplicationStroop,2021.2.3,Win32,59.62318149,,,,,left,1,0.611,0,20,20,39,1,9,7,9 | 7,2,1.4111,1.9756,incongruent,left,,,,,,stimulusFile/magnitude.xlsx,,,,,,,,,,,,,,,,,,,,,,,,,,,,,,,
,,,,,,,,,,,,,,,775,2022-01-19_14h29.02.995,multiplicationStroop,2021.2.3,Win32,59.62318149,,,,,right,1,0.7605,0,21,21,34,1,6,8,6 | 8,2,1.9756,1.4111,incongruent,right,,,,,,stimulusFile/magnitude.xlsx,,,,,,,,,,,,,,,,,,,,,,,,,,,,,,,
,,,,,,,,,,,,,,,775,2022-01-19_14h29.02.995,multiplicationStroop,2021.2.3,Win32,59.62318149,,,,,left,1,0.9822,0,22,22,46,1,8,3,8 | 3,5,1.4111,1.9756,incongruent,left,,,,,,stimulusFile/magnitude.xlsx,,,,,,,,,,,,,,,,,,,,,,,,,,,,,,,
,,,,,,,,,,,,,,,775,2022-01-19_14h29.02.995,multiplicationStroop,2021.2.3,Win32,59.62318149,,,,,right,1,0.5688,0,23,23,17,1,2,7,2 | 7,5,1.4111,1.9756,congruent,right,,,,,,stimulusFile/magnitude.xlsx,,,,,,,,,,,,,,,,,,,,,,,,,,,,,,,
,,,,,,,,,,,,,,,775,2022-01-19_14h29.02.995,multiplicationStroop,2021.2.3,Win32,59.62318149,,,,,left,1,0.6986,0,24,24,30,1,7,6,7 | 6,1,1.4111,1.9756,incongruent,left,,,,,,stimulusFile/magnitude.xlsx,,,,,,,,,,,,,,,,,,,,,,,,,,,,,,,
,,,,,,,,,,,,,,,775,2022-01-19_14h29.02.995,multiplicationStroop,2021.2.3,Win32,59.62318149,,,,,left,1,0.5514,0,25,25,60,1,3,1,3 | 1,2,1.6933,1.6933,neutral,left,,,,,,stimulusFile/magnitude.xlsx,,,,,,,,,,,,,,,,,,,,,,,,,,,,,,,
,,,,,,,,,,,,,,,775,2022-01-19_14h29.02.995,multiplicationStroop,2021.2.3,Win32,59.62318149,,,,,right,1,0.6032,0,26,26,33,1,2,4,2 | 4,2,1.9756,1.4111,incongruent,right,,,,,,stimulusFile/magnitude.xlsx,,,,,,,,,,,,,,,,,,,,,,,,,,,,,,,
,,,,,,,,,,,,,,,775,2022-01-19_14h29.02.995,multiplicationStroop,2021.2.3,Win32,59.62318149,,,,,right,1,0.5624,0,27,27,49,1,3,4,3 | 4,1,1.6933,1.6933,neutral,right,,,,,,stimulusFile/magnitude.xlsx,,,,,,,,,,,,,,,,,,,,,,,,,,,,,,,
,,,,,,,,,,,,,,,775,2022-01-19_14h29.02.995,multiplicationStroop,2021.2.3,Win32,59.62318149,,,,,left,1,0.5734,0,28,28,13,1,4,2,4 | 2,2,1.9756,1.4111,congruent,left,,,,,,stimulusFile/magnitude.xlsx,,,,,,,,,,,,,,,,,,,,,,,,,,,,,,,
,,,,,,,,,,,,,,,775,2022-01-19_14h29.02.995,multiplicationStroop,2021.2.3,Win32,59.62318149,,,,,right,1,0.4978,0,29,29,65,1,2,7,2 | 7,5,1.6933,1.6933,neutral,right,,,,,,stimulusFile/magnitude.xlsx,,,,,,,,,,,,,,,,,,,,,,,,,,,,,,,
,,,,,,,,,,,,,,,775,2022-01-19_14h29.02.995,multiplicationStroop,2021.2.3,Win32,59.62318149,,,,,right,1,0.6285,0,30,30,3,1,8,9,8 | 9,1,1.4111,1.9756,congruent,right,,,,,,stimulusFile/magnitude.xlsx,,,,,,,,,,,,,,,,,,,,,,,,,,,,,,,
,,,,,,,,,,,,,,,775,2022-01-19_14h29.02.995,multiplicationStroop,2021.2.3,Win32,59.62318149,,,,,left,1,0.8946,0,31,31,45,1,7,2,7 | 2,5,1.4111,1.9756,incongruent,left,,,,,,stimulusFile/magnitude.xlsx,,,,,,,,,,,,,,,,,,,,,,,,,,,,,,,
,,,,,,,,,,,,,,,775,2022-01-19_14h29.02.995,multiplicationStroop,2021.2.3,Win32,59.62318149,,,,,right,1,0.6687,0,32,32,56,1,1,3,1 | 3,2,1.6933,1.6933,neutral,right,,,,,,stimulusFile/magnitude.xlsx,,,,,,,,,,,,,,,,,,,,,,,,,,,,,,,
,,,,,,,,,,,,,,,775,2022-01-19_14h29.02.995,multiplicationStroop,2021.2.3,Win32,59.62318149,,,,,right,1,1.0492,0,33,33,32,1,1,3,1 | 3,2,1.9756,1.4111,incongruent,right,,,,,,stimulusFile/magnitude.xlsx,,,,,,,,,,,,,,,,,,,,,,,,,,,,,,,
,,,,,,,,,,,,,,,775,2022-01-19_14h29.02.995,multiplicationStroop,2021.2.3,Win32,59.62318149,,,,,right,1,0.66,0,34,34,24,1,1,2,1 | 2,1,1.9756,1.4111,incongruent,right,,,,,,stimulusFile/magnitude.xlsx,,,,,,,,,,,,,,,,,,,,,,,,,,,,,,,
,,,,,,,,,,,,,,,775,2022-01-19_14h29.02.995,multiplicationStroop,2021.2.3,Win32,59.62318149,,,,,right,1,0.7731,0,35,35,26,1,6,7,6 | 7,1,1.9756,1.4111,incongruent,right,,,,,,stimulusFile/magnitude.xlsx,,,,,,,,,,,,,,,,,,,,,,,,,,,,,,,
,,,,,,,,,,,,,,,775,2022-01-19_14h29.02.995,multiplicationStroop,2021.2.3,Win32,59.62318149,,,,,left,1,0.5364,0,36,36,22,1,8,3,8 | 3,5,1.9756,1.4111,congruent,left,,,,,,stimulusFile/magnitude.xlsx,,,,,,,,,,,,,,,,,,,,,,,,,,,,,,,
,,,,,,,,,,,,,,,775,2022-01-19_14h29.02.995,multiplicationStroop,2021.2.3,Win32,59.62318149,,,,,left,1,0.6748,0,37,37,28,1,2,1,2 | 1,1,1.4111,1.9756,incongruent,left,,,,,,stimulusFile/magnitude.xlsx,,,,,,,,,,,,,,,,,,,,,,,,,,,,,,,
,,,,,,,,,,,,,,,775,2022-01-19_14h29.02.995,multiplicationStroop,2021.2.3,Win32,59.62318149,,,,,right,1,0.6152,0,38,38,35,1,7,9,7 | 9,2,1.9756,1.4111,incongruent,right,,,,,,stimulusFile/magnitude.xlsx,,,,,,,,,,,,,,,,,,,,,,,,,,,,,,,
,,,,,,,,,,,,,,,775,2022-01-19_14h29.02.995,multiplicationStroop,2021.2.3,Win32,59.62318149,,,,,left,1,0.5401,0,39,39,44,1,6,1,6 | 1,5,1.4111,1.9756,incongruent,left,,,,,,stimulusFile/magnitude.xlsx,,,,,,,,,,,,,,,,,,,,,,,,,,,,,,,
,,,,,,,,,,,,,,,775,2022-01-19_14h29.02.995,multiplicationStroop,2021.2.3,Win32,59.62318149,,,,,right,1,0.5463,0,40,40,0,1,1,2,1 | 2,1,1.4111,1.9756,congruent,right,,,,,,stimulusFile/magnitude.xlsx,,,,,,,,,,,,,,,,,,,,,,,,,,,,,,,
,,,,,,,,,,,,,,,775,2022-01-19_14h29.02.995,multiplicationStroop,2021.2.3,Win32,59.62318149,,,,,left,1,0.6299,0,41,41,47,1,9,4,9 | 4,5,1.4111,1.9756,incongruent,left,,,,,,stimulusFile/magnitude.xlsx,,,,,,,,,,,,,,,,,,,,,,,,,,,,,,,
,,,,,,,,,,,,,,,775,2022-01-19_14h29.02.995,multiplicationStroop,2021.2.3,Win32,59.62318149,,,,,left,1,0.6292,0,42,42,55,1,9,8,9 | 8,1,1.6933,1.6933,neutral,left,,,,,,stimulusFile/magnitude.xlsx,,,,,,,,,,,,,,,,,,,,,,,,,,,,,,,
,,,,,,,,,,,,,,,775,2022-01-19_14h29.02.995,multiplicationStroop,2021.2.3,Win32,59.62318149,,,,,right,1,0.5796,0,43,43,50,1,6,7,6 | 7,1,1.6933,1.6933,neutral,right,,,,,,stimulusFile/magnitude.xlsx,,,,,,,,,,,,,,,,,,,,,,,,,,,,,,,
,,,,,,,,,,,,,,,775,2022-01-19_14h29.02.995,multiplicationStroop,2021.2.3,Win32,59.62318149,,,,,right,1,0.572,0,44,44,11,1,7,9,7 | 9,2,1.4111,1.9756,congruent,right,,,,,,stimulusFile/magnitude.xlsx,,,,,,,,,,,,,,,,,,,,,,,,,,,,,,,
,,,,,,,,,,,,,,,775,2022-01-19_14h29.02.995,multiplicationStroop,2021.2.3,Win32,59.62318149,,,,,left,1,0.4903,0,45,45,20,1,6,1,6 | 1,5,1.9756,1.4111,congruent,left,,,,,,stimulusFile/magnitude.xlsx,,,,,,,,,,,,,,,,,,,,,,,,,,,,,,,
,,,,,,,,,,,,,,,775,2022-01-19_14h29.02.995,multiplicationStroop,2021.2.3,Win32,59.62318149,,,,,left,1,0.5476,0,46,46,63,1,9,7,9 | 7,2,1.6933,1.6933,neutral,left,,,,,,stimulusFile/magnitude.xlsx,,,,,,,,,,,,,,,,,,,,,,,,,,,,,,,
,,,,,,,,,,,,,,,775,2022-01-19_14h29.02.995,multiplicationStroop,2021.2.3,Win32,59.62318149,,,,,left,1,0.5725,0,47,47,71,1,9,4,9 | 4,5,1.6933,1.6933,neutral,left,,,,,,stimulusFile/magnitude.xlsx,,,,,,,,,,,,,,,,,,,,,,,,,,,,,,,
,,,,,,,,,,,,,,,775,2022-01-19_14h29.02.995,multiplicationStroop,2021.2.3,Win32,59.62318149,,,,,right,1,0.5457,0,48,48,48,1,1,2,1 | 2,1,1.6933,1.6933,neutral,right,,,,,,stimulusFile/magnitude.xlsx,,,,,,,,,,,,,,,,,,,,,,,,,,,,,,,
,,,,,,,,,,,,,,,775,2022-01-19_14h29.02.995,multiplicationStroop,2021.2.3,Win32,59.62318149,,,,,left,1,0.5936,0,49,49,36,1,3,1,3 | 1,2,1.4111,1.9756,incongruent,left,,,,,,stimulusFile/magnitude.xlsx,,,,,,,,,,,,,,,,,,,,,,,,,,,,,,,
,,,,,,,,,,,,,,,775,2022-01-19_14h29.02.995,multiplicationStroop,2021.2.3,Win32,59.62318149,,,,,left,1,0.4525,0,50,50,4,1,2,1,2 | 1,1,1.9756,1.4111,congruent,left,,,,,,stimulusFile/magnitude.xlsx,,,,,,,,,,,,,,,,,,,,,,,,,,,,,,,
,,,,,,,,,,,,,,,775,2022-01-19_14h29.02.995,multiplicationStroop,2021.2.3,Win32,59.62318149,,,,,left,1,0.4662,0,51,51,23,1,9,4,9 | 4,5,1.9756,1.4111,congruent,left,,,,,,stimulusFile/magnitude.xlsx,,,,,,,,,,,,,,,,,,,,,,,,,,,,,,,
,,,,,,,,,,,,,,,775,2022-01-19_14h29.02.995,multiplicationStroop,2021.2.3,Win32,59.62318149,,,,,left,1,0.4689,0,52,52,61,1,4,2,4 | 2,2,1.6933,1.6933,neutral,left,,,,,,stimulusFile/magnitude.xlsx,,,,,,,,,,,,,,,,,,,,,,,,,,,,,,,
,,,,,,,,,,,,,,,775,2022-01-19_14h29.02.995,multiplicationStroop,2021.2.3,Win32,59.62318149,,,,,left,1,0.4829,0,53,53,54,1,7,6,7 | 6,1,1.6933,1.6933,neutral,left,,,,,,stimulusFile/magnitude.xlsx,,,,,,,,,,,,,,,,,,,,,,,,,,,,,,,
,,,,,,,,,,,,,,,775,2022-01-19_14h29.02.995,multiplicationStroop,2021.2.3,Win32,59.62318149,,,,,left,1,0.5127,0,54,54,70,1,8,3,8 | 3,5,1.6933,1.6933,neutral,left,,,,,,stimulusFile/magnitude.xlsx,,,,,,,,,,,,,,,,,,,,,,,,,,,,,,,
,,,,,,,,,,,,,,,775,2022-01-19_14h29.02.995,multiplicationStroop,2021.2.3,Win32,59.62318149,,,,,right,1,0.5734,0,55,55,42,1,3,8,3 | 8,5,1.9756,1.4111,incongruent,right,,,,,,stimulusFile/magnitude.xlsx,,,,,,,,,,,,,,,,,,,,,,,,,,,,,,,
,,,,,,,,,,,,,,,775,2022-01-19_14h29.02.995,multiplicationStroop,2021.2.3,Win32,59.62318149,,,,,left,0,0.7485,0,56,56,2,1,6,7,6 | 7,1,1.4111,1.9756,congruent,right,,,,,,stimulusFile/magnitude.xlsx,,,,,,,,,,,,,,,,,,,,,,,,,,,,,,,
,,,,,,,,,,,,,,,775,2022-01-19_14h29.02.995,multiplicationStroop,2021.2.3,Win32,59.62318149,,,,,right,1,0.7441,0,57,57,25,1,3,4,3 | 4,1,1.9756,1.4111,incongruent,right,,,,,,stimulusFile/magnitude.xlsx,,,,,,,,,,,,,,,,,,,,,,,,,,,,,,,
,,,,,,,,,,,,,,,775,2022-01-19_14h29.02.995,multiplicationStroop,2021.2.3,Win32,59.62318149,,,,,left,1,0.5802,0,58,58,7,1,9,8,9 | 8,1,1.9756,1.4111,congruent,left,,,,,,stimulusFile/magnitude.xlsx,,,,,,,,,,,,,,,,,,,,,,,,,,,,,,,
,,,,,,,,,,,,,,,775,2022-01-19_14h29.02.995,multiplicationStroop,2021.2.3,Win32,59.62318149,,,,,right,1,0.641,0,59,59,18,1,3,8,3 | 8,5,1.4111,1.9756,congruent,right,,,,,,stimulusFile/magnitude.xlsx,,,,,,,,,,,,,,,,,,,,,,,,,,,,,,,
,,,,,,,,,,,,,,,775,2022-01-19_14h29.02.995,multiplicationStroop,2021.2.3,Win32,59.62318149,,,,,right,1,0.5904,0,60,60,16,1,1,6,1 | 6,5,1.4111,1.9756,congruent,right,,,,,,stimulusFile/magnitude.xlsx,,,,,,,,,,,,,,,,,,,,,,,,,,,,,,,
,,,,,,,,,,,,,,,775,2022-01-19_14h29.02.995,multiplicationStroop,2021.2.3,Win32,59.62318149,,,,,right,1,0.478,0,61,61,8,1,1,3,1 | 3,2,1.4111,1.9756,congruent,right,,,,,,stimulusFile/magnitude.xlsx,,,,,,,,,,,,,,,,,,,,,,,,,,,,,,,
,,,,,,,,,,,,,,,775,2022-01-19_14h29.02.995,multiplicationStroop,2021.2.3,Win32,59.62318149,,,,,right,0,0.5905,0,62,62,29,1,4,3,4 | 3,1,1.4111,1.9756,incongruent,left,,,,,,stimulusFile/magnitude.xlsx,,,,,,,,,,,,,,,,,,,,,,,,,,,,,,,
,,,,,,,,,,,,,,,775,2022-01-19_14h29.02.995,multiplicationStroop,2021.2.3,Win32,59.62318149,,,,,left,1,0.6576,0,63,63,69,1,7,2,7 | 2,5,1.6933,1.6933,neutral,left,,,,,,stimulusFile/magnitude.xlsx,,,,,,,,,,,,,,,,,,,,,,,,,,,,,,,
,,,,,,,,,,,,,,,775,2022-01-19_14h29.02.995,multiplicationStroop,2021.2.3,Win32,59.62318149,,,,,left,1,0.6141,0,64,64,52,1,2,1,2 | 1,1,1.6933,1.6933,neutral,left,,,,,,stimulusFile/magnitude.xlsx,,,,,,,,,,,,,,,,,,,,,,,,,,,,,,,
,,,,,,,,,,,,,,,775,2022-01-19_14h29.02.995,multiplicationStroop,2021.2.3,Win32,59.62318149,,,,,left,1,0.6183,0,65,65,53,1,4,3,4 | 3,1,1.6933,1.6933,neutral,left,,,,,,stimulusFile/magnitude.xlsx,,,,,,,,,,,,,,,,,,,,,,,,,,,,,,,
,,,,,,,,,,,,,,,775,2022-01-19_14h29.02.995,multiplicationStroop,2021.2.3,Win32,59.62318149,,,,,right,1,0.5507,0,66,66,19,1,4,9,4 | 9,5,1.4111,1.9756,congruent,right,,,,,,stimulusFile/magnitude.xlsx,,,,,,,,,,,,,,,,,,,,,,,,,,,,,,,
,,,,,,,,,,,,,,,775,2022-01-19_14h29.02.995,multiplicationStroop,2021.2.3,Win32,59.62318149,,,,,left,1,0.5054,0,67,67,21,1,7,2,7 | 2,5,1.9756,1.4111,congruent,left,,,,,,stimulusFile/magnitude.xlsx,,,,,,,,,,,,,,,,,,,,,,,,,,,,,,,
,,,,,,,,,,,,,,,775,2022-01-19_14h29.02.995,multiplicationStroop,2021.2.3,Win32,59.62318149,,,,,left,1,0.8285,0,68,68,14,1,8,6,8 | 6,2,1.9756,1.4111,congruent,left,,,,,,stimulusFile/magnitude.xlsx,,,,,,,,,,,,,,,,,,,,,,,,,,,,,,,
,,,,,,,,,,,,,,,775,2022-01-19_14h29.02.995,multiplicationStroop,2021.2.3,Win32,59.62318149,,,,,left,1,0.4972,0,69,69,5,1,4,3,4 | 3,1,1.9756,1.4111,congruent,left,,,,,,stimulusFile/magnitude.xlsx,,,,,,,,,,,,,,,,,,,,,,,,,,,,,,,
,,,,,,,,,,,,,,,775,2022-01-19_14h29.02.995,multiplicationStroop,2021.2.3,Win32,59.62318149,,,,,right,1,0.6063,0,70,70,41,1,2,7,2 | 7,5,1.9756,1.4111,incongruent,right,,,,,,stimulusFile/magnitude.xlsx,,,,,,,,,,,,,,,,,,,,,,,,,,,,,,,
,,,,,,,,,,,,,,,775,2022-01-19_14h29.02.995,multiplicationStroop,2021.2.3,Win32,59.62318149,,,,,left,1,0.5107,0,71,71,6,1,7,6,7 | 6,1,1.9756,1.4111,congruent,left,,,,,,stimulusFile/magnitude.xlsx,,,,,,,,,,,,,,,,,,,,,,,,,,,,,,,
,,,,,,,,,,,,,,,775,2022-01-19_14h29.02.995,multiplicationStroop,2021.2.3,Win32,59.62318149,,,,,,,,,,,,,,,,,,,,,0,1,1,0,1,stimulusFile/magnitude.xlsx,NUMERICALLY larger (larger coefficient).,images/numericallyLarger.png,,,,,,,,,,,,,,,,,,,,,,,,,,,,,
,,,,,,,,,,,,,,,775,2022-01-19_14h29.02.995,multiplicationStroop,2021.2.3,Win32,59.62318149,,,,,,,,,,,,,,,,,,,,,,,,,,,,,space,4.2712,space,2.5799,16,5.1947,1,0,0,0,30,1,4,×,4,4 × 4,neutral,tie,2,1,16,,,,,,,,
,,,,,,,,,,,,,,,775,2022-01-19_14h29.02.995,multiplicationStroop,2021.2.3,Win32,59.62318149,,,,,,,,,,,,,,,,,,,,,,,,,,,,,,,,,28,2.4508,1,0,1,1,27,1,7,×,4,7 × 4,congruent,largerFirst,2,1,28,,,,,,,,
,,,,,,,,,,,,,,,775,2022-01-19_14h29.02.995,multiplicationStroop,2021.2.3,Win32,59.62318149,,,,,,,,,,,,,,,,,,,,,,,,,,,,,,,,,14,1.6323,1,0,2,2,14,1,7,×,2,7 × 2,congruent,largerFirst,2,1,14,,,,,,,,
,,,,,,,,,,,,,,,775,2022-01-19_14h29.02.995,multiplicationStroop,2021.2.3,Win32,59.62318149,,,,,,,,,,,,,,,,,,,,,,,,,,,,,,,,,18,4.3821,1,0,3,3,11,1,3,×,6,3 × 6,congruent,smallerFirst,1,2,18,,,,,,,,
,,,,,,,,,,,,,,,775,2022-01-19_14h29.02.995,multiplicationStroop,2021.2.3,Win32,59.62318149,,,,,,,,,,,,,,,,,,,,,,,,,,,,,,,,,72,3.4176,1,0,4,4,17,1,9,×,8,9 × 8,congruent,largerFirst,2,1,72,,,,,,,,
,,,,,,,,,,,,,,,775,2022-01-19_14h29.02.995,multiplicationStroop,2021.2.3,Win32,59.62318149,,,,,,,,,,,,,,,,,,,,,,,,,,,,,,,,,25,1.8191,1,0,5,5,31,1,5,×,5,5 × 5,neutral,tie,2,1,25,,,,,,,,
,,,,,,,,,,,,,,,775,2022-01-19_14h29.02.995,multiplicationStroop,2021.2.3,Win32,59.62318149,,,,,,,,,,,,,,,,,,,,,,,,,,,,,,,,,16,1.8823,1,0,6,6,5,1,2,×,8,2 × 8,congruent,smallerFirst,1,2,16,,,,,,,,
,,,,,,,,,,,,,,,775,2022-01-19_14h29.02.995,multiplicationStroop,2021.2.3,Win32,59.62318149,,,,,,,,,,,,,,,,,,,,,,,,,,,,,,,,,21,1.4823,1,0,7,7,16,1,7,×,3,7 × 3,congruent,largerFirst,2,1,21,,,,,,,,
,,,,,,,,,,,,,,,775,2022-01-19_14h29.02.995,multiplicationStroop,2021.2.3,Win32,59.62318149,,,,,,,,,,,,,,,,,,,,,,,,,,,,,,,,,18,2.0992,1,0,8,8,22,1,9,×,2,9 × 2,congruent,largerFirst,2,1,18,,,,,,,,
,,,,,,,,,,,,,,,775,2022-01-19_14h29.02.995,multiplicationStroop,2021.2.3,Win32,59.62318149,,,,,,,,,,,,,,,,,,,,,,,,,,,,,,,,,49,2.5158,1,0,9,9,33,1,7,×,7,7 × 7,neutral,tie,2,1,49,,,,,,,,
,,,,,,,,,,,,,,,775,2022-01-19_14h29.02.995,multiplicationStroop,2021.2.3,Win32,59.62318149,,,,,,,,,,,,,,,,,,,,,,,,,,,,,,,,,32,1.7177,1,0,10,10,20,1,8,×,4,8 × 4,congruent,largerFirst,2,1,32,,,,,,,,
,,,,,,,,,,,,,,,775,2022-01-19_14h29.02.995,multiplicationStroop,2021.2.3,Win32,59.62318149,,,,,,,,,,,,,,,,,,,,,,,,,,,,,,,,,20,1.749,1,0,11,11,7,1,4,×,5,4 × 5,congruent,smallerFirst,1,2,20,,,,,,,,
,,,,,,,,,,,,,,,775,2022-01-19_14h29.02.995,multiplicationStroop,2021.2.3,Win32,59.62318149,,,,,,,,,,,,,,,,,,,,,,,,,,,,,,,,,24,2.2823,1,0,12,12,25,1,6,×,4,6 × 4,congruent,largerFirst,2,1,24,,,,,,,,
,,,,,,,,,,,,,,,775,2022-01-19_14h29.02.995,multiplicationStroop,2021.2.3,Win32,59.62318149,,,,,,,,,,,,,,,,,,,,,,,,,,,,,,,,,40,2.2324,1,0,13,13,6,1,5,×,8,5 × 8,congruent,smallerFirst,1,2,40,,,,,,,,
,,,,,,,,,,,,,,,775,2022-01-19_14h29.02.995,multiplicationStroop,2021.2.3,Win32,59.62318149,,,,,,,,,,,,,,,,,,,,,,,,,,,,,,,,,64,2.054,1,0,14,14,34,1,8,×,8,8 × 8,neutral,tie,2,1,64,,,,,,,,
,,,,,,,,,,,,,,,775,2022-01-19_14h29.02.995,multiplicationStroop,2021.2.3,Win32,59.62318149,,,,,,,,,,,,,,,,,,,,,,,,,,,,,,,,,15,1.8157,1,0,15,15,4,1,3,×,5,3 × 5,congruent,smallerFirst,1,2,15,,,,,,,,
,,,,,,,,,,,,,,,775,2022-01-19_14h29.02.995,multiplicationStroop,2021.2.3,Win32,59.62318149,,,,,,,,,,,,,,,,,,,,,,,,,,,,,,,,,30,1.9156,1,0,16,16,15,1,6,×,5,6 × 5,congruent,largerFirst,2,1,30,,,,,,,,
,,,,,,,,,,,,,,,775,2022-01-19_14h29.02.995,multiplicationStroop,2021.2.3,Win32,59.62318149,,,,,,,,,,,,,,,,,,,,,,,,,,,,,,,,,6,1.816,1,0,17,17,13,1,2,×,3,2 × 3,congruent,smallerFirst,1,2,6,,,,,,,,
,,,,,,,,,,,,,,,775,2022-01-19_14h29.02.995,multiplicationStroop,2021.2.3,Win32,59.62318149,,,,,,,,,,,,,,,,,,,,,,,,,,,,,,,,,9,1.4323,1,0,18,18,29,1,3,×,3,3 × 3,neutral,tie,2,1,9,,,,,,,,
,,,,,,,,,,,,,,,775,2022-01-19_14h29.02.995,multiplicationStroop,2021.2.3,Win32,59.62318149,,,,,,,,,,,,,,,,,,,,,,,,,,,,,,,,,12,1.2994,1,0,19,19,19,1,6,×,2,6 × 2,congruent,largerFirst,2,1,12,,,,,,,,
,,,,,,,,,,,,,,,775,2022-01-19_14h29.02.995,multiplicationStroop,2021.2.3,Win32,59.62318149,,,,,,,,,,,,,,,,,,,,,,,,,,,,,,,,,4,1.5992,1,0,20,20,28,1,2,×,2,2 × 2,neutral,tie,2,1,4,,,,,,,,
,,,,,,,,,,,,,,,775,2022-01-19_14h29.02.995,multiplicationStroop,2021.2.3,Win32,59.62318149,,,,,,,,,,,,,,,,,,,,,,,,,,,,,,,,,56,3.3321,1,0,21,21,8,1,7,×,8,7 × 8,congruent,smallerFirst,1,2,56,,,,,,,,
,,,,,,,,,,,,,,,775,2022-01-19_14h29.02.995,multiplicationStroop,2021.2.3,Win32,59.62318149,,,,,,,,,,,,,,,,,,,,,,,,,,,,,,,,,35,1.9822,1,0,22,22,1,1,5,×,7,5 × 7,congruent,smallerFirst,1,2,35,,,,,,,,
,,,,,,,,,,,,,,,775,2022-01-19_14h29.02.995,multiplicationStroop,2021.2.3,Win32,59.62318149,,,,,,,,,,,,,,,,,,,,,,,,,,,,,,,,,10,1.9324,1,0,23,23,24,1,5,×,2,5 × 2,congruent,largerFirst,2,1,10,,,,,,,,
,,,,,,,,,,,,,,,775,2022-01-19_14h29.02.995,multiplicationStroop,2021.2.3,Win32,59.62318149,,,,,,,,,,,,,,,,,,,,,,,,,,,,,,,,,27,3.4989,1,0,24,24,26,1,9,×,3,9 × 3,congruent,largerFirst,2,1,27,,,,,,,,
,,,,,,,,,,,,,,,775,2022-01-19_14h29.02.995,multiplicationStroop,2021.2.3,Win32,59.62318149,,,,,,,,,,,,,,,,,,,,,,,,,,,,,,,,,63,3.2547,1,0,25,25,21,1,9,×,7,9 × 7,congruent,largerFirst,2,1,63,,,,,,,,
,,,,,,,,,,,,,,,775,2022-01-19_14h29.02.995,multiplicationStroop,2021.2.3,Win32,59.62318149,,,,,,,,,,,,,,,,,,,,,,,,,,,,,,,,,81,1.8509,1,0,26,26,35,1,9,×,9,9 × 9,neutral,tie,2,1,81,,,,,,,,
,,,,,,,,,,,,,,,775,2022-01-19_14h29.02.995,multiplicationStroop,2021.2.3,Win32,59.62318149,,,,,,,,,,,,,,,,,,,,,,,,,,,,,,,,,24,1.7823,1,0,27,27,10,1,3,×,8,3 × 8,congruent,smallerFirst,1,2,24,,,,,,,,
,,,,,,,,,,,,,,,775,2022-01-19_14h29.02.995,multiplicationStroop,2021.2.3,Win32,59.62318149,,,,,,,,,,,,,,,,,,,,,,,,,,,,,,,,,8,1.7159,1,0,28,28,9,1,2,×,4,2 × 4,congruent,smallerFirst,1,2,8,,,,,,,,
,,,,,,,,,,,,,,,775,2022-01-19_14h29.02.995,multiplicationStroop,2021.2.3,Win32,59.62318149,,,,,,,,,,,,,,,,,,,,,,,,,,,,,,,,,36,1.7658,1,0,29,29,32,1,6,×,6,6 × 6,neutral,tie,2,1,36,,,,,,,,
,,,,,,,,,,,,,,,775,2022-01-19_14h29.02.995,multiplicationStroop,2021.2.3,Win32,59.62318149,,,,,,,,,,,,,,,,,,,,,,,,,,,,,,,,,12,1.4657,1,0,30,30,2,1,3,×,4,3 × 4,congruent,smallerFirst,1,2,12,,,,,,,,
,,,,,,,,,,,,,,,775,2022-01-19_14h29.02.995,multiplicationStroop,2021.2.3,Win32,59.62318149,,,,,,,,,,,,,,,,,,,,,,,,,,,,,,,,,48,2.4155,1,0,31,31,18,1,8,×,6,8 × 6,congruent,largerFirst,2,1,48,,,,,,,,
,,,,,,,,,,,,,,,775,2022-01-19_14h29.02.995,multiplicationStroop,2021.2.3,Win32,59.62318149,,,,,,,,,,,,,,,,,,,,,,,,,,,,,,,,,42,5.5317,1,0,32,32,3,1,6,×,7,6 × 7,congruent,smallerFirst,1,2,42,,,,,,,,
,,,,,,,,,,,,,,,775,2022-01-19_14h29.02.995,multiplicationStroop,2021.2.3,Win32,59.62318149,,,,,,,,,,,,,,,,,,,,,,,,,,,,,,,,,45,2.031,1,0,33,33,23,1,9,×,5,9 × 5,congruent,largerFirst,2,1,45,,,,,,,,
,,,,,,,,,,,,,,,775,2022-01-19_14h29.02.995,multiplicationStroop,2021.2.3,Win32,59.62318149,,,,,,,,,,,,,,,,,,,,,,,,,,,,,,,,,36,4.2987,1,0,34,34,0,1,4,×,9,4 × 9,congruent,smallerFirst,1,2,36,,,,,,,,
,,,,,,,,,,,,,,,775,2022-01-19_14h29.02.995,multiplicationStroop,2021.2.3,Win32,59.62318149,,,,,,,,,,,,,,,,,,,,,,,,,,,,,,,,,54,2.3019,1,0,35,35,12,1,6,×,9,6 × 9,congruent,smallerFirst,1,2,54,,,,,,,,
,,,,,,,,,,,,,,,775,2022-01-19_14h29.02.995,multiplicationStroop,2021.2.3,Win32,59.62318149,,,,,,,,,,,,,,,,,,,,,,,,,,,,,,,,,,,,,,,,,,,,,,,,,,0,0,0,2,1,stimulusFile/mult_blk3_congruent.xlsx,,
,,,,,,,,,,,,,,,775,2022-01-19_14h29.02.995,multiplicationStroop,2021.2.3,Win32,59.62318149,,,,,,,,,,,,,,,,,,,,,,,,,,,,,,,space,1.7133,30,1.77,1,0,0,0,5,1,5,×,6,5 × 6,neutral,smallerFirst,1.5,1.5,30,,,,,,,,
,,,,,,,,,,,,,,,775,2022-01-19_14h29.02.995,multiplicationStroop,2021.2.3,Win32,59.62318149,,,,,,,,,,,,,,,,,,,,,,,,,,,,,,,,,15,1.9984,1,0,1,1,19,1,5,×,3,5 × 3,neutral,largerFirst,1.5,1.5,15,,,,,,,,
,,,,,,,,,,,,,,,775,2022-01-19_14h29.02.995,multiplicationStroop,2021.2.3,Win32,59.62318149,,,,,,,,,,,,,,,,,,,,,,,,,,,,,,,,,10,1.7487,1,0,2,2,18,1,5,×,2,5 × 2,neutral,largerFirst,1.5,1.5,10,,,,,,,,
,,,,,,,,,,,,,,,775,2022-01-19_14h29.02.995,multiplicationStroop,2021.2.3,Win32,59.62318149,,,,,,,,,,,,,,,,,,,,,,,,,,,,,,,,,45,1.7299,1,0,3,3,24,1,9,×,5,9 × 5,neutral,largerFirst,1.5,1.5,45,,,,,,,,
,,,,,,,,,,,,,,,775,2022-01-19_14h29.02.995,multiplicationStroop,2021.2.3,Win32,59.62318149,,,,,,,,,,,,,,,,,,,,,,,,,,,,,,,,,25,1.832,1,0,4,4,31,1,5,×,5,5 × 5,neutral,tie,1.5,1.5,25,,,,,,,,
,,,,,,,,,,,,,,,775,2022-01-19_14h29.02.995,multiplicationStroop,2021.2.3,Win32,59.62318149,,,,,,,,,,,,,,,,,,,,,,,,,,,,,,,,,36,1.7992,1,0,5,5,32,1,6,×,6,6 × 6,neutral,tie,1.5,1.5,36,,,,,,,,
,,,,,,,,,,,,,,,775,2022-01-19_14h29.02.995,multiplicationStroop,2021.2.3,Win32,59.62318149,,,,,,,,,,,,,,,,,,,,,,,,,,,,,,,,,81,4.9653,1,0,6,6,35,1,9,×,9,9 × 9,neutral,tie,1.5,1.5,81,,,,,,,,
,,,,,,,,,,,,,,,775,2022-01-19_14h29.02.995,multiplicationStroop,2021.2.3,Win32,59.62318149,,,,,,,,,,,,,,,,,,,,,,,,,,,,,,,,,48,2.2844,1,0,7,7,1,1,6,×,8,6 × 8,neutral,smallerFirst,1.5,1.5,48,,,,,,,,
,,,,,,,,,,,,,,,775,2022-01-19_14h29.02.995,multiplicationStroop,2021.2.3,Win32,59.62318149,,,,,,,,,,,,,,,,,,,,,,,,,,,,,,,,,35,1.7324,1,0,8,8,15,1,7,×,5,7 × 5,neutral,largerFirst,1.5,1.5,35,,,,,,,,
,,,,,,,,,,,,,,,775,2022-01-19_14h29.02.995,multiplicationStroop,2021.2.3,Win32,59.62318149,,,,,,,,,,,,,,,,,,,,,,,,,,,,,,,,,49,2.7654,1,0,9,9,33,1,7,×,7,7 × 7,neutral,tie,1.5,1.5,49,,,,,,,,
,,,,,,,,,,,,,,,775,2022-01-19_14h29.02.995,multiplicationStroop,2021.2.3,Win32,59.62318149,,,,,,,,,,,,,,,,,,,,,,,,,,,,,,,,,56,2.7325,1,0,10,10,23,1,8,×,7,8 × 7,neutral,largerFirst,1.5,1.5,56,,,,,,,,
,,,,,,,,,,,,,,,775,2022-01-19_14h29.02.995,multiplicationStroop,2021.2.3,Win32,59.62318149,,,,,,,,,,,,,,,,,,,,,,,,,,,,,,,,,9,1.5719,1,0,11,11,29,1,3,×,3,3 × 3,neutral,tie,1.5,1.5,9,,,,,,,,
,,,,,,,,,,,,,,,775,2022-01-19_14h29.02.995,multiplicationStroop,2021.2.3,Win32,59.62318149,,,,,,,,,,,,,,,,,,,,,,,,,,,,,,,,,64,2.5491,1,0,12,12,34,1,8,×,8,8 × 8,neutral,tie,1.5,1.5,64,,,,,,,,
,,,,,,,,,,,,,,,775,2022-01-19_14h29.02.995,multiplicationStroop,2021.2.3,Win32,59.62318149,,,,,,,,,,,,,,,,,,,,,,,,,,,,,,,,,14,1.5513,1,0,13,13,2,1,2,×,7,2 × 7,neutral,smallerFirst,1.5,1.5,14,,,,,,,,
,,,,,,,,,,,,,,,775,2022-01-19_14h29.02.995,multiplicationStroop,2021.2.3,Win32,59.62318149,,,,,,,,,,,,,,,,,,,,,,,,,,,,,,,,,20,1.6992,1,0,14,14,6,1,4,×,5,4 × 5,neutral,smallerFirst,1.5,1.5,20,,,,,,,,
,,,,,,,,,,,,,,,775,2022-01-19_14h29.02.995,multiplicationStroop,2021.2.3,Win32,59.62318149,,,,,,,,,,,,,,,,,,,,,,,,,,,,,,,,,12,1.3657,1,0,15,15,7,1,3,×,4,3 × 4,neutral,smallerFirst,1.5,1.5,12,,,,,,,,
,,,,,,,,,,,,,,,775,2022-01-19_14h29.02.995,multiplicationStroop,2021.2.3,Win32,59.62318149,,,,,,,,,,,,,,,,,,,,,,,,,,,,,,,,,72,3.6154,1,0,16,16,25,1,9,×,8,9 × 8,neutral,largerFirst,1.5,1.5,72,,,,,,,,
,,,,,,,,,,,,,,,775,2022-01-19_14h29.02.995,multiplicationStroop,2021.2.3,Win32,59.62318149,,,,,,,,,,,,,,,,,,,,,,,,,,,,,,,,,18,3.7175,1,0,17,17,4,1,2,×,9,2 × 9,neutral,smallerFirst,1.5,1.5,18,,,,,,,,
,,,,,,,,,,,,,,,775,2022-01-19_14h29.02.995,multiplicationStroop,2021.2.3,Win32,59.62318149,,,,,,,,,,,,,,,,,,,,,,,,,,,,,,,,,28,2.601,1,0,18,18,3,1,4,×,7,4 × 7,neutral,smallerFirst,1.5,1.5,28,,,,,,,,
,,,,,,,,,,,,,,,775,2022-01-19_14h29.02.995,multiplicationStroop,2021.2.3,Win32,59.62318149,,,,,,,,,,,,,,,,,,,,,,,,,,,,,,,,,16,3.2656,1,0,19,19,27,1,8,×,2,8 × 2,neutral,largerFirst,1.5,1.5,16,,,,,,,,
,,,,,,,,,,,,,,,775,2022-01-19_14h29.02.995,multiplicationStroop,2021.2.3,Win32,59.62318149,,,,,,,,,,,,,,,,,,,,,,,,,,,,,,,,,8,1.5212,1,0,20,20,17,1,4,×,2,4 × 2,neutral,largerFirst,1.5,1.5,8,,,,,,,,
,,,,,,,,,,,,,,,775,2022-01-19_14h29.02.995,multiplicationStroop,2021.2.3,Win32,59.62318149,,,,,,,,,,,,,,,,,,,,,,,,,,,,,,,,,40,1.8492,1,0,21,21,10,1,5,×,8,5 × 8,neutral,smallerFirst,1.5,1.5,40,,,,,,,,
,,,,,,,,,,,,,,,775,2022-01-19_14h29.02.995,multiplicationStroop,2021.2.3,Win32,59.62318149,,,,,,,,,,,,,,,,,,,,,,,,,,,,,,,,,36,4.4651,1,0,22,22,13,1,4,×,9,4 × 9,neutral,smallerFirst,1.5,1.5,36,,,,,,,,
,,,,,,,,,,,,,,,775,2022-01-19_14h29.02.995,multiplicationStroop,2021.2.3,Win32,59.62318149,,,,,,,,,,,,,,,,,,,,,,,,,,,,,,,,,6,1.6503,1,0,23,23,12,1,2,×,3,2 × 3,neutral,smallerFirst,1.5,1.5,6,,,,,,,,
,,,,,,,,,,,,,,,775,2022-01-19_14h29.02.995,multiplicationStroop,2021.2.3,Win32,59.62318149,,,,,,,,,,,,,,,,,,,,,,,,,,,,,,,,,18,1.9323,1,0,24,24,14,1,6,×,3,6 × 3,neutral,largerFirst,1.5,1.5,18,,,,,,,,
,,,,,,,,,,,,,,,775,2022-01-19_14h29.02.995,multiplicationStroop,2021.2.3,Win32,59.62318149,,,,,,,,,,,,,,,,,,,,,,,,,,,,,,,,,27,2.6157,1,0,25,25,0,1,3,×,9,3 × 9,neutral,smallerFirst,1.5,1.5,27,,,,,,,,
,,,,,,,,,,,,,,,775,2022-01-19_14h29.02.995,multiplicationStroop,2021.2.3,Win32,59.62318149,,,,,,,,,,,,,,,,,,,,,,,,,,,,,,,,,21,2.6008,1,0,26,26,22,1,7,×,3,7 × 3,neutral,largerFirst,1.5,1.5,21,,,,,,,,
,,,,,,,,,,,,,,,775,2022-01-19_14h29.02.995,multiplicationStroop,2021.2.3,Win32,59.62318149,,,,,,,,,,,,,,,,,,,,,,,,,,,,,,,,,63,2.8657,1,0,27,27,26,1,9,×,7,9 × 7,neutral,largerFirst,1.5,1.5,63,,,,,,,,
,,,,,,,,,,,,,,,775,2022-01-19_14h29.02.995,multiplicationStroop,2021.2.3,Win32,59.62318149,,,,,,,,,,,,,,,,,,,,,,,,,,,,,,,,,32,1.8321,1,0,28,28,9,1,4,×,8,4 × 8,neutral,smallerFirst,1.5,1.5,32,,,,,,,,
,,,,,,,,,,,,,,,775,2022-01-19_14h29.02.995,multiplicationStroop,2021.2.3,Win32,59.62318149,,,,,,,,,,,,,,,,,,,,,,,,,,,,,,,,,24,1.699,1,0,29,29,16,1,6,×,4,6 × 4,neutral,largerFirst,1.5,1.5,24,,,,,,,,
,,,,,,,,,,,,,,,775,2022-01-19_14h29.02.995,multiplicationStroop,2021.2.3,Win32,59.62318149,,,,,,,,,,,,,,,,,,,,,,,,,,,,,,,,,16,2.1157,1,0,30,30,30,1,4,×,4,4 × 4,neutral,tie,1.5,1.5,16,,,,,,,,
,,,,,,,,,,,,,,,775,2022-01-19_14h29.02.995,multiplicationStroop,2021.2.3,Win32,59.62318149,,,,,,,,,,,,,,,,,,,,,,,,,,,,,,,,,42,3.6657,1,0,31,31,20,1,7,×,6,7 × 6,neutral,largerFirst,1.5,1.5,42,,,,,,,,
,,,,,,,,,,,,,,,775,2022-01-19_14h29.02.995,multiplicationStroop,2021.2.3,Win32,59.62318149,,,,,,,,,,,,,,,,,,,,,,,,,,,,,,,,,24,1.7681,1,0,32,32,8,1,3,×,8,3 × 8,neutral,smallerFirst,1.5,1.5,24,,,,,,,,
,,,,,,,,,,,,,,,775,2022-01-19_14h29.02.995,multiplicationStroop,2021.2.3,Win32,59.62318149,,,,,,,,,,,,,,,,,,,,,,,,,,,,,,,,,12,1.4158,1,0,33,33,11,1,2,×,6,2 × 6,neutral,smallerFirst,1.5,1.5,12,,,,,,,,
,,,,,,,,,,,,,,,775,2022-01-19_14h29.02.995,multiplicationStroop,2021.2.3,Win32,59.62318149,,,,,,,,,,,,,,,,,,,,,,,,,,,,,,,,,4,1.4992,1,0,34,34,28,1,2,×,2,2 × 2,neutral,tie,1.5,1.5,4,,,,,,,,
,,,,,,,,,,,,,,,775,2022-01-19_14h29.02.995,multiplicationStroop,2021.2.3,Win32,59.62318149,,,,,,,,,,,,,,,,,,,,,,,,,,,,,,,,,54,2.1988,1,0,35,35,21,1,9,×,6,9 × 6,neutral,largerFirst,1.5,1.5,54,,,,,,,,
,,,,,,,,,,,,,,,775,2022-01-19_14h29.02.995,multiplicationStroop,2021.2.3,Win32,59.62318149,,,,,,,,,,,,,,,,,,,,,,,,,,,,,,,,,,,,,,,,,,,,,,,,,,0,1,1,0,1,stimulusFile/mult_blk1.xlsx,,
,,,,,,,,,,,,,,,775,2022-01-19_14h29.02.995,multiplicationStroop,2021.2.3,Win32,59.62318149,,,,,,,,,,,,,,,,,,,,,,,,,,,,,,,space,1.1647,63,5.2795,1,0,0,0,7,1,7,×,9,7 × 9,congruent,smallerFirst,1,2,63,,,,,,,,
,,,,,,,,,,,,,,,775,2022-01-19_14h29.02.995,multiplicationStroop,2021.2.3,Win32,59.62318149,,,,,,,,,,,,,,,,,,,,,,,,,,,,,,,,,64,2.0494,1,0,1,1,34,1,8,×,8,8 × 8,neutral,tie,1,2,64,,,,,,,,
,,,,,,,,,,,,,,,775,2022-01-19_14h29.02.995,multiplicationStroop,2021.2.3,Win32,59.62318149,,,,,,,,,,,,,,,,,,,,,,,,,,,,,,,,,5,2.6157,0,0,2,2,22,1,8,×,7,8 × 7,congruent,largerFirst,2,1,56,,,,,,,,
,,,,,,,,,,,,,,,775,2022-01-19_14h29.02.995,multiplicationStroop,2021.2.3,Win32,59.62318149,,,,,,,,,,,,,,,,,,,,,,,,,,,,,,,,,10,1.716,1,0,3,3,10,1,2,×,5,2 × 5,congruent,smallerFirst,1,2,10,,,,,,,,
,,,,,,,,,,,,,,,775,2022-01-19_14h29.02.995,multiplicationStroop,2021.2.3,Win32,59.62318149,,,,,,,,,,,,,,,,,,,,,,,,,,,,,,,,,72,5.9647,1,0,4,4,3,1,8,×,9,8 × 9,congruent,smallerFirst,1,2,72,,,,,,,,
,,,,,,,,,,,,,,,775,2022-01-19_14h29.02.995,multiplicationStroop,2021.2.3,Win32,59.62318149,,,,,,,,,,,,,,,,,,,,,,,,,,,,,,,,,12,1.4017,1,0,5,5,16,1,4,×,3,4 × 3,congruent,largerFirst,2,1,12,,,,,,,,
,,,,,,,,,,,,,,,775,2022-01-19_14h29.02.995,multiplicationStroop,2021.2.3,Win32,59.62318149,,,,,,,,,,,,,,,,,,,,,,,,,,,,,,,,,24,1.6991,1,0,6,6,24,1,8,×,3,8 × 3,congruent,largerFirst,2,1,24,,,,,,,,
,,,,,,,,,,,,,,,775,2022-01-19_14h29.02.995,multiplicationStroop,2021.2.3,Win32,59.62318149,,,,,,,,,,,,,,,,,,,,,,,,,,,,,,,,,16,1.5824,1,0,7,7,30,1,4,×,4,4 × 4,neutral,tie,1,2,16,,,,,,,,
,,,,,,,,,,,,,,,775,2022-01-19_14h29.02.995,multiplicationStroop,2021.2.3,Win32,59.62318149,,,,,,,,,,,,,,,,,,,,,,,,,,,,,,,,,45,1.849,1,0,8,8,9,1,5,×,9,5 × 9,congruent,smallerFirst,1,2,45,,,,,,,,
,,,,,,,,,,,,,,,775,2022-01-19_14h29.02.995,multiplicationStroop,2021.2.3,Win32,59.62318149,,,,,,,,,,,,,,,,,,,,,,,,,,,,,,,,,20,2.381,1,0,9,9,21,1,5,×,4,5 × 4,congruent,largerFirst,2,1,20,,,,,,,,
,,,,,,,,,,,,,,,775,2022-01-19_14h29.02.995,multiplicationStroop,2021.2.3,Win32,59.62318149,,,,,,,,,,,,,,,,,,,,,,,,,,,,,,,,,8,1.7992,1,0,10,10,23,1,4,×,2,4 × 2,congruent,largerFirst,2,1,8,,,,,,,,
,,,,,,,,,,,,,,,775,2022-01-19_14h29.02.995,multiplicationStroop,2021.2.3,Win32,59.62318149,,,,,,,,,,,,,,,,,,,,,,,,,,,,,,,,,54,1.9492,1,0,11,11,26,1,9,×,6,9 × 6,congruent,largerFirst,2,1,54,,,,,,,,
,,,,,,,,,,,,,,,775,2022-01-19_14h29.02.995,multiplicationStroop,2021.2.3,Win32,59.62318149,,,,,,,,,,,,,,,,,,,,,,,,,,,,,,,,,9,1.5648,1,0,12,12,29,1,3,×,3,3 × 3,neutral,tie,1,2,9,,,,,,,,
,,,,,,,,,,,,,,,775,2022-01-19_14h29.02.995,multiplicationStroop,2021.2.3,Win32,59.62318149,,,,,,,,,,,,,,,,,,,,,,,,,,,,,,,,,42,2.8489,1,0,13,13,17,1,7,×,6,7 × 6,congruent,largerFirst,2,1,42,,,,,,,,
,,,,,,,,,,,,,,,775,2022-01-19_14h29.02.995,multiplicationStroop,2021.2.3,Win32,59.62318149,,,,,,,,,,,,,,,,,,,,,,,,,,,,,,,,,6,1.6649,1,0,14,14,27,1,3,×,2,3 × 2,congruent,largerFirst,2,1,6,,,,,,,,
,,,,,,,,,,,,,,,775,2022-01-19_14h29.02.995,multiplicationStroop,2021.2.3,Win32,59.62318149,,,,,,,,,,,,,,,,,,,,,,,,,,,,,,,,,81,2.1808,1,0,15,15,35,1,9,×,9,9 × 9,neutral,tie,1,2,81,,,,,,,,
,,,,,,,,,,,,,,,775,2022-01-19_14h29.02.995,multiplicationStroop,2021.2.3,Win32,59.62318149,,,,,,,,,,,,,,,,,,,,,,,,,,,,,,,,,16,1.7798,1,0,16,16,19,1,8,×,2,8 × 2,congruent,largerFirst,2,1,16,,,,,,,,
,,,,,,,,,,,,,,,775,2022-01-19_14h29.02.995,multiplicationStroop,2021.2.3,Win32,59.62318149,,,,,,,,,,,,,,,,,,,,,,,,,,,,,,,,,32,2.898,0,0,17,17,14,1,9,×,4,9 × 4,congruent,largerFirst,2,1,36,,,,,,,,
,,,,,,,,,,,,,,,775,2022-01-19_14h29.02.995,multiplicationStroop,2021.2.3,Win32,59.62318149,,,,,,,,,,,,,,,,,,,,,,,,,,,,,,,,,27,2.3183,1,0,18,18,12,1,3,×,9,3 × 9,congruent,smallerFirst,1,2,27,,,,,,,,
,,,,,,,,,,,,,,,775,2022-01-19_14h29.02.995,multiplicationStroop,2021.2.3,Win32,59.62318149,,,,,,,,,,,,,,,,,,,,,,,,,,,,,,,,,36,1.9638,1,0,19,19,32,1,6,×,6,6 × 6,neutral,tie,1,2,36,,,,,,,,
,,,,,,,,,,,,,,,775,2022-01-19_14h29.02.995,multiplicationStroop,2021.2.3,Win32,59.62318149,,,,,,,,,,,,,,,,,,,,,,,,,,,,,,,,,28,2.0824,1,0,20,20,13,1,4,×,7,4 × 7,congruent,smallerFirst,1,2,28,,,,,,,,
,,,,,,,,,,,,,,,775,2022-01-19_14h29.02.995,multiplicationStroop,2021.2.3,Win32,59.62318149,,,,,,,,,,,,,,,,,,,,,,,,,,,,,,,,,24,1.9156,1,0,21,21,11,1,4,×,6,4 × 6,congruent,smallerFirst,1,2,24,,,,,,,,
,,,,,,,,,,,,,,,775,2022-01-19_14h29.02.995,multiplicationStroop,2021.2.3,Win32,59.62318149,,,,,,,,,,,,,,,,,,,,,,,,,,,,,,,,,30,2.3487,1,0,22,22,1,1,5,×,6,5 × 6,congruent,smallerFirst,1,2,30,,,,,,,,
,,,,,,,,,,,,,,,775,2022-01-19_14h29.02.995,multiplicationStroop,2021.2.3,Win32,59.62318149,,,,,,,,,,,,,,,,,,,,,,,,,,,,,,,,,48,2.8316,1,0,23,23,4,1,6,×,8,6 × 8,congruent,smallerFirst,1,2,48,,,,,,,,
,,,,,,,,,,,,,,,775,2022-01-19_14h29.02.995,multiplicationStroop,2021.2.3,Win32,59.62318149,,,,,,,,,,,,,,,,,,,,,,,,,,,,,,,,,12,1.3653,1,0,24,24,5,1,2,×,6,2 × 6,congruent,smallerFirst,1,2,12,,,,,,,,
,,,,,,,,,,,,,,,775,2022-01-19_14h29.02.995,multiplicationStroop,2021.2.3,Win32,59.62318149,,,,,,,,,,,,,,,,,,,,,,,,,,,,,,,,,15,1.5487,1,0,25,25,18,1,5,×,3,5 × 3,congruent,largerFirst,2,1,15,,,,,,,,
,,,,,,,,,,,,,,,775,2022-01-19_14h29.02.995,multiplicationStroop,2021.2.3,Win32,59.62318149,,,,,,,,,,,,,,,,,,,,,,,,,,,,,,,,,25,1.999,1,0,26,26,31,1,5,×,5,5 × 5,neutral,tie,1,2,25,,,,,,,,
,,,,,,,,,,,,,,,775,2022-01-19_14h29.02.995,multiplicationStroop,2021.2.3,Win32,59.62318149,,,,,,,,,,,,,,,,,,,,,,,,,,,,,,,,,40,1.9472,1,0,27,27,20,1,8,×,5,8 × 5,congruent,largerFirst,2,1,40,,,,,,,,
,,,,,,,,,,,,,,,775,2022-01-19_14h29.02.995,multiplicationStroop,2021.2.3,Win32,59.62318149,,,,,,,,,,,,,,,,,,,,,,,,,,,,,,,,,18,1.9495,1,0,28,28,8,1,2,×,9,2 × 9,congruent,smallerFirst,1,2,18,,,,,,,,
,,,,,,,,,,,,,,,775,2022-01-19_14h29.02.995,multiplicationStroop,2021.2.3,Win32,59.62318149,,,,,,,,,,,,,,,,,,,,,,,,,,,,,,,,,14,1.6472,1,0,29,29,0,1,2,×,7,2 × 7,congruent,smallerFirst,1,2,14,,,,,,,,
,,,,,,,,,,,,,,,775,2022-01-19_14h29.02.995,multiplicationStroop,2021.2.3,Win32,59.62318149,,,,,,,,,,,,,,,,,,,,,,,,,,,,,,,,,32,2.4488,1,0,30,30,6,1,4,×,8,4 × 8,congruent,smallerFirst,1,2,32,,,,,,,,
,,,,,,,,,,,,,,,775,2022-01-19_14h29.02.995,multiplicationStroop,2021.2.3,Win32,59.62318149,,,,,,,,,,,,,,,,,,,,,,,,,,,,,,,,,18,1.7147,1,0,31,31,25,1,6,×,3,6 × 3,congruent,largerFirst,2,1,18,,,,,,,,
,,,,,,,,,,,,,,,775,2022-01-19_14h29.02.995,multiplicationStroop,2021.2.3,Win32,59.62318149,,,,,,,,,,,,,,,,,,,,,,,,,,,,,,,,,21,1.4803,1,0,32,32,2,1,3,×,7,3 × 7,congruent,smallerFirst,1,2,21,,,,,,,,
,,,,,,,,,,,,,,,775,2022-01-19_14h29.02.995,multiplicationStroop,2021.2.3,Win32,59.62318149,,,,,,,,,,,,,,,,,,,,,,,,,,,,,,,,,4,1.4494,1,0,33,33,28,1,2,×,2,2 × 2,neutral,tie,1,2,4,,,,,,,,
,,,,,,,,,,,,,,,775,2022-01-19_14h29.02.995,multiplicationStroop,2021.2.3,Win32,59.62318149,,,,,,,,,,,,,,,,,,,,,,,,,,,,,,,,,35,2.1131,1,0,34,34,15,1,7,×,5,7 × 5,congruent,largerFirst,2,1,35,,,,,,,,
,,,,,,,,,,,,,,,775,2022-01-19_14h29.02.995,multiplicationStroop,2021.2.3,Win32,59.62318149,,,,,,,,,,,,,,,,,,,,,,,,,,,,,,,,,49,2.0476,1,0,35,35,33,1,7,×,7,7 × 7,neutral,tie,1,2,49,,,,,,,,
,,,,,,,,,,,,,,,775,2022-01-19_14h29.02.995,multiplicationStroop,2021.2.3,Win32,59.62318149,,,,,,,,,,,,,,,,,,,,,,,,,,,,,,,,,,,,,,,,,,,,,,,,,,0,2,2,3,1,stimulusFile/mult_blk4_congruent.xlsx,,
,,,,,,,,,,,,,,,775,2022-01-19_14h29.02.995,multiplicationStroop,2021.2.3,Win32,59.62318149,,,,,,,,,,,,,,,,,,,,,,,,,,,,,,,space,1.1682,12,1.5558,1,0,0,0,21,1,4,×,3,4 × 3,neutral,largerFirst,1.5,1.5,12,,,,,,,,
,,,,,,,,,,,,,,,775,2022-01-19_14h29.02.995,multiplicationStroop,2021.2.3,Win32,59.62318149,,,,,,,,,,,,,,,,,,,,,,,,,,,,,,,,,49,3.3816,1,0,1,1,33,1,7,×,7,7 × 7,neutral,tie,1.5,1.5,49,,,,,,,,
,,,,,,,,,,,,,,,775,2022-01-19_14h29.02.995,multiplicationStroop,2021.2.3,Win32,59.62318149,,,,,,,,,,,,,,,,,,,,,,,,,,,,,,,,,9,1.5822,1,0,2,2,29,1,3,×,3,3 × 3,neutral,tie,1.5,1.5,9,,,,,,,,
,,,,,,,,,,,,,,,775,2022-01-19_14h29.02.995,multiplicationStroop,2021.2.3,Win32,59.62318149,,,,,,,,,,,,,,,,,,,,,,,,,,,,,,,,,12,1.2317,1,0,3,3,25,1,6,×,2,6 × 2,neutral,largerFirst,1.5,1.5,12,,,,,,,,
,,,,,,,,,,,,,,,775,2022-01-19_14h29.02.995,multiplicationStroop,2021.2.3,Win32,59.62318149,,,,,,,,,,,,,,,,,,,,,,,,,,,,,,,,,25,1.7158,1,0,4,4,31,1,5,×,5,5 × 5,neutral,tie,1.5,1.5,25,,,,,,,,
,,,,,,,,,,,,,,,775,2022-01-19_14h29.02.995,multiplicationStroop,2021.2.3,Win32,59.62318149,,,,,,,,,,,,,,,,,,,,,,,,,,,,,,,,,32,1.5661,1,0,5,5,23,1,8,×,4,8 × 4,neutral,largerFirst,1.5,1.5,32,,,,,,,,
,,,,,,,,,,,,,,,775,2022-01-19_14h29.02.995,multiplicationStroop,2021.2.3,Win32,59.62318149,,,,,,,,,,,,,,,,,,,,,,,,,,,,,,,,,24,1.8481,1,0,6,6,22,1,8,×,3,8 × 3,neutral,largerFirst,1.5,1.5,24,,,,,,,,
,,,,,,,,,,,,,,,775,2022-01-19_14h29.02.995,multiplicationStroop,2021.2.3,Win32,59.62318149,,,,,,,,,,,,,,,,,,,,,,,,,,,,,,,,,56,3.1155,1,0,7,7,9,1,7,×,8,7 × 8,neutral,smallerFirst,1.5,1.5,56,,,,,,,,
,,,,,,,,,,,,,,,775,2022-01-19_14h29.02.995,multiplicationStroop,2021.2.3,Win32,59.62318149,,,,,,,,,,,,,,,,,,,,,,,,,,,,,,,,,10,1.7524,1,0,8,8,4,1,2,×,5,2 × 5,neutral,smallerFirst,1.5,1.5,10,,,,,,,,
,,,,,,,,,,,,,,,775,2022-01-19_14h29.02.995,multiplicationStroop,2021.2.3,Win32,59.62318149,,,,,,,,,,,,,,,,,,,,,,,,,,,,,,,,,16,1.6984,1,0,9,9,30,1,4,×,4,4 × 4,neutral,tie,1.5,1.5,16,,,,,,,,
,,,,,,,,,,,,,,,775,2022-01-19_14h29.02.995,multiplicationStroop,2021.2.3,Win32,59.62318149,,,,,,,,,,,,,,,,,,,,,,,,,,,,,,,,,42,2.831,1,0,10,10,6,1,6,×,7,6 × 7,neutral,smallerFirst,1.5,1.5,42,,,,,,,,
,,,,,,,,,,,,,,,775,2022-01-19_14h29.02.995,multiplicationStroop,2021.2.3,Win32,59.62318149,,,,,,,,,,,,,,,,,,,,,,,,,,,,,,,,,54,5.1644,1,0,11,11,7,1,6,×,9,6 × 9,neutral,smallerFirst,1.5,1.5,54,,,,,,,,
,,,,,,,,,,,,,,,775,2022-01-19_14h29.02.995,multiplicationStroop,2021.2.3,Win32,59.62318149,,,,,,,,,,,,,,,,,,,,,,,,,,,,,,,,,16,1.8383,1,0,12,12,13,1,2,×,8,2 × 8,neutral,smallerFirst,1.5,1.5,16,,,,,,,,
,,,,,,,,,,,,,,,775,2022-01-19_14h29.02.995,multiplicationStroop,2021.2.3,Win32,59.62318149,,,,,,,,,,,,,,,,,,,,,,,,,,,,,,,,,4,1.2972,1,0,13,13,28,1,2,×,2,2 × 2,neutral,tie,1.5,1.5,4,,,,,,,,
,,,,,,,,,,,,,,,775,2022-01-19_14h29.02.995,multiplicationStroop,2021.2.3,Win32,59.62318149,,,,,,,,,,,,,,,,,,,,,,,,,,,,,,,,,15,1.632,1,0,14,14,5,1,3,×,5,3 × 5,neutral,smallerFirst,1.5,1.5,15,,,,,,,,
,,,,,,,,,,,,,,,775,2022-01-19_14h29.02.995,multiplicationStroop,2021.2.3,Win32,59.62318149,,,,,,,,,,,,,,,,,,,,,,,,,,,,,,,,,35,3.5982,1,0,15,15,1,1,5,×,7,5 × 7,neutral,smallerFirst,1.5,1.5,35,,,,,,,,
,,,,,,,,,,,,,,,775,2022-01-19_14h29.02.995,multiplicationStroop,2021.2.3,Win32,59.62318149,,,,,,,,,,,,,,,,,,,,,,,,,,,,,,,,,36,5.5996,1,0,16,16,27,1,9,×,4,9 × 4,neutral,largerFirst,1.5,1.5,36,,,,,,,,
,,,,,,,,,,,,,,,775,2022-01-19_14h29.02.995,multiplicationStroop,2021.2.3,Win32,59.62318149,,,,,,,,,,,,,,,,,,,,,,,,,,,,,,,,,20,1.8339,1,0,17,17,20,1,5,×,4,5 × 4,neutral,largerFirst,1.5,1.5,20,,,,,,,,
,,,,,,,,,,,,,,,775,2022-01-19_14h29.02.995,multiplicationStroop,2021.2.3,Win32,59.62318149,,,,,,,,,,,,,,,,,,,,,,,,,,,,,,,,,28,2.1479,1,0,18,18,17,1,7,×,4,7 × 4,neutral,largerFirst,1.5,1.5,28,,,,,,,,
,,,,,,,,,,,,,,,775,2022-01-19_14h29.02.995,multiplicationStroop,2021.2.3,Win32,59.62318149,,,,,,,,,,,,,,,,,,,,,,,,,,,,,,,,,18,1.851,1,0,19,19,0,1,3,×,6,3 × 6,neutral,smallerFirst,1.5,1.5,18,,,,,,,,
,,,,,,,,,,,,,,,775,2022-01-19_14h29.02.995,multiplicationStroop,2021.2.3,Win32,59.62318149,,,,,,,,,,,,,,,,,,,,,,,,,,,,,,,,,21,1.8317,1,0,20,20,8,1,3,×,7,3 × 7,neutral,smallerFirst,1.5,1.5,21,,,,,,,,
,,,,,,,,,,,,,,,775,2022-01-19_14h29.02.995,multiplicationStroop,2021.2.3,Win32,59.62318149,,,,,,,,,,,,,,,,,,,,,,,,,,,,,,,,,18,1.782,1,0,21,21,18,1,9,×,2,9 × 2,neutral,largerFirst,1.5,1.5,18,,,,,,,,
,,,,,,,,,,,,,,,775,2022-01-19_14h29.02.995,multiplicationStroop,2021.2.3,Win32,59.62318149,,,,,,,,,,,,,,,,,,,,,,,,,,,,,,,,,8,1.6988,1,0,22,22,3,1,2,×,4,2 × 4,neutral,smallerFirst,1.5,1.5,8,,,,,,,,
,,,,,,,,,,,,,,,775,2022-01-19_14h29.02.995,multiplicationStroop,2021.2.3,Win32,59.62318149,,,,,,,,,,,,,,,,,,,,,,,,,,,,,,,,,72,5.1473,1,0,23,23,11,1,8,×,9,8 × 9,neutral,smallerFirst,1.5,1.5,72,,,,,,,,
,,,,,,,,,,,,,,,775,2022-01-19_14h29.02.995,multiplicationStroop,2021.2.3,Win32,59.62318149,,,,,,,,,,,,,,,,,,,,,,,,,,,,,,,,,64,2.3891,1,0,24,24,34,1,8,×,8,8 × 8,neutral,tie,1.5,1.5,64,,,,,,,,
,,,,,,,,,,,,,,,775,2022-01-19_14h29.02.995,multiplicationStroop,2021.2.3,Win32,59.62318149,,,,,,,,,,,,,,,,,,,,,,,,,,,,,,,,,40,1.8823,1,0,25,25,24,1,8,×,5,8 × 5,neutral,largerFirst,1.5,1.5,40,,,,,,,,
,,,,,,,,,,,,,,,775,2022-01-19_14h29.02.995,multiplicationStroop,2021.2.3,Win32,59.62318149,,,,,,,,,,,,,,,,,,,,,,,,,,,,,,,,,27,1.9469,1,0,26,26,14,1,9,×,3,9 × 3,neutral,largerFirst,1.5,1.5,27,,,,,,,,
,,,,,,,,,,,,,,,775,2022-01-19_14h29.02.995,multiplicationStroop,2021.2.3,Win32,59.62318149,,,,,,,,,,,,,,,,,,,,,,,,,,,,,,,,,30,1.6637,1,0,27,27,19,1,6,×,5,6 × 5,neutral,largerFirst,1.5,1.5,30,,,,,,,,
,,,,,,,,,,,,,,,775,2022-01-19_14h29.02.995,multiplicationStroop,2021.2.3,Win32,59.62318149,,,,,,,,,,,,,,,,,,,,,,,,,,,,,,,,,6,1.5649,1,0,28,28,26,1,3,×,2,3 × 2,neutral,largerFirst,1.5,1.5,6,,,,,,,,
,,,,,,,,,,,,,,,775,2022-01-19_14h29.02.995,multiplicationStroop,2021.2.3,Win32,59.62318149,,,,,,,,,,,,,,,,,,,,,,,,,,,,,,,,,81,1.9157,1,0,29,29,35,1,9,×,9,9 × 9,neutral,tie,1.5,1.5,81,,,,,,,,
,,,,,,,,,,,,,,,775,2022-01-19_14h29.02.995,multiplicationStroop,2021.2.3,Win32,59.62318149,,,,,,,,,,,,,,,,,,,,,,,,,,,,,,,,,63,3.247,1,0,30,30,12,1,7,×,9,7 × 9,neutral,smallerFirst,1.5,1.5,63,,,,,,,,
,,,,,,,,,,,,,,,775,2022-01-19_14h29.02.995,multiplicationStroop,2021.2.3,Win32,59.62318149,,,,,,,,,,,,,,,,,,,,,,,,,,,,,,,,,45,1.8343,1,0,31,31,10,1,5,×,9,5 × 9,neutral,smallerFirst,1.5,1.5,45,,,,,,,,
,,,,,,,,,,,,,,,775,2022-01-19_14h29.02.995,multiplicationStroop,2021.2.3,Win32,59.62318149,,,,,,,,,,,,,,,,,,,,,,,,,,,,,,,,,36,1.849,1,0,32,32,32,1,6,×,6,6 × 6,neutral,tie,1.5,1.5,36,,,,,,,,
,,,,,,,,,,,,,,,775,2022-01-19_14h29.02.995,multiplicationStroop,2021.2.3,Win32,59.62318149,,,,,,,,,,,,,,,,,,,,,,,,,,,,,,,,,48,2.3987,1,0,33,33,15,1,8,×,6,8 × 6,neutral,largerFirst,1.5,1.5,48,,,,,,,,
,,,,,,,,,,,,,,,775,2022-01-19_14h29.02.995,multiplicationStroop,2021.2.3,Win32,59.62318149,,,,,,,,,,,,,,,,,,,,,,,,,,,,,,,,,24,1.7207,1,0,34,34,2,1,4,×,6,4 × 6,neutral,smallerFirst,1.5,1.5,24,,,,,,,,
,,,,,,,,,,,,,,,775,2022-01-19_14h29.02.995,multiplicationStroop,2021.2.3,Win32,59.62318149,,,,,,,,,,,,,,,,,,,,,,,,,,,,,,,,,14,1.4932,1,0,35,35,16,1,7,×,2,7 × 2,neutral,largerFirst,1.5,1.5,14,,,,,,,,
,,,,,,,,,,,,,,,775,2022-01-19_14h29.02.995,multiplicationStroop,2021.2.3,Win32,59.62318149,,,,,,,,,,,,,,,,,,,,,,,,,,,,,,,,,,,,,,,,,,,,,,,,,,0,3,3,1,1,stimulusFile/mult_blk2.xlsx,,
,,,,,,,,,,,,,,,775,2022-01-19_14h29.02.995,multiplicationStroop,2021.2.3,Win32,59.62318149,,,,,,,,,,,,,,,,,,,,,,,,,,,,,,,space,1.191,18,2.3781,1,0,0,0,16,1,9,×,2,9 × 2,incongruent,largerFirst,1,2,18,,,,,,,,
,,,,,,,,,,,,,,,775,2022-01-19_14h29.02.995,multiplicationStroop,2021.2.3,Win32,59.62318149,,,,,,,,,,,,,,,,,,,,,,,,,,,,,,,,,35,1.6486,1,0,1,1,26,1,7,×,5,7 × 5,incongruent,largerFirst,1,2,35,,,,,,,,
,,,,,,,,,,,,,,,775,2022-01-19_14h29.02.995,multiplicationStroop,2021.2.3,Win32,59.62318149,,,,,,,,,,,,,,,,,,,,,,,,,,,,,,,,,27,1.9484,1,0,2,2,4,1,3,×,9,3 × 9,incongruent,smallerFirst,2,1,27,,,,,,,,
,,,,,,,,,,,,,,,775,2022-01-19_14h29.02.995,multiplicationStroop,2021.2.3,Win32,59.62318149,,,,,,,,,,,,,,,,,,,,,,,,,,,,,,,,,32,1.6053,1,0,3,3,21,1,8,×,4,8 × 4,incongruent,largerFirst,1,2,32,,,,,,,,
,,,,,,,,,,,,,,,775,2022-01-19_14h29.02.995,multiplicationStroop,2021.2.3,Win32,59.62318149,,,,,,,,,,,,,,,,,,,,,,,,,,,,,,,,,21,1.6435,1,0,4,4,12,1,3,×,7,3 × 7,incongruent,smallerFirst,2,1,21,,,,,,,,
,,,,,,,,,,,,,,,775,2022-01-19_14h29.02.995,multiplicationStroop,2021.2.3,Win32,59.62318149,,,,,,,,,,,,,,,,,,,,,,,,,,,,,,,,,9,1.4976,1,0,5,5,29,1,3,×,3,3 × 3,neutral,tie,2,1,9,,,,,,,,
,,,,,,,,,,,,,,,775,2022-01-19_14h29.02.995,multiplicationStroop,2021.2.3,Win32,59.62318149,,,,,,,,,,,,,,,,,,,,,,,,,,,,,,,,,48,2.3828,1,0,6,6,15,1,8,×,6,8 × 6,incongruent,largerFirst,1,2,48,,,,,,,,
,,,,,,,,,,,,,,,775,2022-01-19_14h29.02.995,multiplicationStroop,2021.2.3,Win32,59.62318149,,,,,,,,,,,,,,,,,,,,,,,,,,,,,,,,,36,3.698,1,0,7,7,1,1,4,×,9,4 × 9,incongruent,smallerFirst,2,1,36,,,,,,,,
,,,,,,,,,,,,,,,775,2022-01-19_14h29.02.995,multiplicationStroop,2021.2.3,Win32,59.62318149,,,,,,,,,,,,,,,,,,,,,,,,,,,,,,,,,8,1.7173,1,0,8,8,10,1,2,×,4,2 × 4,incongruent,smallerFirst,2,1,8,,,,,,,,
,,,,,,,,,,,,,,,775,2022-01-19_14h29.02.995,multiplicationStroop,2021.2.3,Win32,59.62318149,,,,,,,,,,,,,,,,,,,,,,,,,,,,,,,,,24,1.9151,1,0,9,9,23,1,8,×,3,8 × 3,incongruent,largerFirst,1,2,24,,,,,,,,
,,,,,,,,,,,,,,,775,2022-01-19_14h29.02.995,multiplicationStroop,2021.2.3,Win32,59.62318149,,,,,,,,,,,,,,,,,,,,,,,,,,,,,,,,,20,1.6644,1,0,10,10,13,1,4,×,5,4 × 5,incongruent,smallerFirst,2,1,20,,,,,,,,
,,,,,,,,,,,,,,,775,2022-01-19_14h29.02.995,multiplicationStroop,2021.2.3,Win32,59.62318149,,,,,,,,,,,,,,,,,,,,,,,,,,,,,,,,,28,2.7151,1,0,11,11,2,1,4,×,7,4 × 7,incongruent,smallerFirst,2,1,28,,,,,,,,
,,,,,,,,,,,,,,,775,2022-01-19_14h29.02.995,multiplicationStroop,2021.2.3,Win32,59.62318149,,,,,,,,,,,,,,,,,,,,,,,,,,,,,,,,,12,1.9174,1,0,12,12,19,1,4,×,3,4 × 3,incongruent,largerFirst,1,2,12,,,,,,,,
,,,,,,,,,,,,,,,775,2022-01-19_14h29.02.995,multiplicationStroop,2021.2.3,Win32,59.62318149,,,,,,,,,,,,,,,,,,,,,,,,,,,,,,,,,16,1.7643,1,0,13,13,9,1,2,×,8,2 × 8,incongruent,smallerFirst,2,1,16,,,,,,,,
,,,,,,,,,,,,,,,775,2022-01-19_14h29.02.995,multiplicationStroop,2021.2.3,Win32,59.62318149,,,,,,,,,,,,,,,,,,,,,,,,,,,,,,,,,49,2.4987,1,0,14,14,33,1,7,×,7,7 × 7,neutral,tie,2,1,49,,,,,,,,
,,,,,,,,,,,,,,,775,2022-01-19_14h29.02.995,multiplicationStroop,2021.2.3,Win32,59.62318149,,,,,,,,,,,,,,,,,,,,,,,,,,,,,,,,,18,1.9157,1,0,15,15,22,1,6,×,3,6 × 3,incongruent,largerFirst,1,2,18,,,,,,,,
,,,,,,,,,,,,,,,775,2022-01-19_14h29.02.995,multiplicationStroop,2021.2.3,Win32,59.62318149,,,,,,,,,,,,,,,,,,,,,,,,,,,,,,,,,63,2.9653,1,0,16,16,17,1,9,×,7,9 × 7,incongruent,largerFirst,1,2,63,,,,,,,,
,,,,,,,,,,,,,,,775,2022-01-19_14h29.02.995,multiplicationStroop,2021.2.3,Win32,59.62318149,,,,,,,,,,,,,,,,,,,,,,,,,,,,,,,,,56,4.4969,1,0,17,17,0,1,7,×,8,7 × 8,incongruent,smallerFirst,2,1,56,,,,,,,,
,,,,,,,,,,,,,,,775,2022-01-19_14h29.02.995,multiplicationStroop,2021.2.3,Win32,59.62318149,,,,,,,,,,,,,,,,,,,,,,,,,,,,,,,,,6,1.4497,1,0,18,18,25,1,3,×,2,3 × 2,incongruent,largerFirst,1,2,6,,,,,,,,
,,,,,,,,,,,,,,,775,2022-01-19_14h29.02.995,multiplicationStroop,2021.2.3,Win32,59.62318149,,,,,,,,,,,,,,,,,,,,,,,,,,,,,,,,,36,2.3315,1,0,19,19,32,1,6,×,6,6 × 6,neutral,tie,2,1,36,,,,,,,,
,,,,,,,,,,,,,,,775,2022-01-19_14h29.02.995,multiplicationStroop,2021.2.3,Win32,59.62318149,,,,,,,,,,,,,,,,,,,,,,,,,,,,,,,,,16,1.8156,1,0,20,20,30,1,4,×,4,4 × 4,neutral,tie,2,1,16,,,,,,,,
,,,,,,,,,,,,,,,775,2022-01-19_14h29.02.995,multiplicationStroop,2021.2.3,Win32,59.62318149,,,,,,,,,,,,,,,,,,,,,,,,,,,,,,,,,14,1.8809,1,0,21,21,18,1,7,×,2,7 × 2,incongruent,largerFirst,1,2,14,,,,,,,,
,,,,,,,,,,,,,,,775,2022-01-19_14h29.02.995,multiplicationStroop,2021.2.3,Win32,59.62318149,,,,,,,,,,,,,,,,,,,,,,,,,,,,,,,,,72,3.3784,1,0,22,22,14,1,9,×,8,9 × 8,incongruent,largerFirst,1,2,72,,,,,,,,
,,,,,,,,,,,,,,,775,2022-01-19_14h29.02.995,multiplicationStroop,2021.2.3,Win32,59.62318149,,,,,,,,,,,,,,,,,,,,,,,,,,,,,,,,,24,2.7514,1,0,23,23,6,1,4,×,6,4 × 6,incongruent,smallerFirst,2,1,24,,,,,,,,
,,,,,,,,,,,,,,,775,2022-01-19_14h29.02.995,multiplicationStroop,2021.2.3,Win32,59.62318149,,,,,,,,,,,,,,,,,,,,,,,,,,,,,,,,,42,5.1291,1,0,24,24,3,1,6,×,7,6 × 7,incongruent,smallerFirst,2,1,42,,,,,,,,
,,,,,,,,,,,,,,,775,2022-01-19_14h29.02.995,multiplicationStroop,2021.2.3,Win32,59.62318149,,,,,,,,,,,,,,,,,,,,,,,,,,,,,,,,,64,3.0712,1,0,25,25,34,1,8,×,8,8 × 8,neutral,tie,2,1,64,,,,,,,,
,,,,,,,,,,,,,,,775,2022-01-19_14h29.02.995,multiplicationStroop,2021.2.3,Win32,59.62318149,,,,,,,,,,,,,,,,,,,,,,,,,,,,,,,,,45,1.8659,1,0,26,26,8,1,5,×,9,5 × 9,incongruent,smallerFirst,2,1,45,,,,,,,,
,,,,,,,,,,,,,,,775,2022-01-19_14h29.02.995,multiplicationStroop,2021.2.3,Win32,59.62318149,,,,,,,,,,,,,,,,,,,,,,,,,,,,,,,,,40,1.8138,1,0,27,27,27,1,8,×,5,8 × 5,incongruent,largerFirst,1,2,40,,,,,,,,
,,,,,,,,,,,,,,,775,2022-01-19_14h29.02.995,multiplicationStroop,2021.2.3,Win32,59.62318149,,,,,,,,,,,,,,,,,,,,,,,,,,,,,,,,,4,1.3316,1,0,28,28,28,1,2,×,2,2 × 2,neutral,tie,2,1,4,,,,,,,,
,,,,,,,,,,,,,,,775,2022-01-19_14h29.02.995,multiplicationStroop,2021.2.3,Win32,59.62318149,,,,,,,,,,,,,,,,,,,,,,,,,,,,,,,,,10,1.6817,1,0,29,29,7,1,2,×,5,2 × 5,incongruent,smallerFirst,2,1,10,,,,,,,,
,,,,,,,,,,,,,,,775,2022-01-19_14h29.02.995,multiplicationStroop,2021.2.3,Win32,59.62318149,,,,,,,,,,,,,,,,,,,,,,,,,,,,,,,,,25,1.6991,1,0,30,30,31,1,5,×,5,5 × 5,neutral,tie,2,1,25,,,,,,,,
,,,,,,,,,,,,,,,775,2022-01-19_14h29.02.995,multiplicationStroop,2021.2.3,Win32,59.62318149,,,,,,,,,,,,,,,,,,,,,,,,,,,,,,,,,81,1.915,1,0,31,31,35,1,9,×,9,9 × 9,neutral,tie,2,1,81,,,,,,,,
,,,,,,,,,,,,,,,775,2022-01-19_14h29.02.995,multiplicationStroop,2021.2.3,Win32,59.62318149,,,,,,,,,,,,,,,,,,,,,,,,,,,,,,,,,12,1.3989,1,0,32,32,5,1,2,×,6,2 × 6,incongruent,smallerFirst,2,1,12,,,,,,,,
,,,,,,,,,,,,,,,775,2022-01-19_14h29.02.995,multiplicationStroop,2021.2.3,Win32,59.62318149,,,,,,,,,,,,,,,,,,,,,,,,,,,,,,,,,15,1.5486,1,0,33,33,24,1,5,×,3,5 × 3,incongruent,largerFirst,1,2,15,,,,,,,,
,,,,,,,,,,,,,,,775,2022-01-19_14h29.02.995,multiplicationStroop,2021.2.3,Win32,59.62318149,,,,,,,,,,,,,,,,,,,,,,,,,,,,,,,,,30,1.7487,1,0,34,34,11,1,5,×,6,5 × 6,incongruent,smallerFirst,2,1,30,,,,,,,,
,,,,,,,,,,,,,,,775,2022-01-19_14h29.02.995,multiplicationStroop,2021.2.3,Win32,59.62318149,,,,,,,,,,,,,,,,,,,,,,,,,,,,,,,,,54,2.0486,1,0,35,35,20,1,9,×,6,9 × 6,incongruent,largerFirst,1,2,54,,,,,,,,
,,,,,,,,,,,,,,,775,2022-01-19_14h29.02.995,multiplicationStroop,2021.2.3,Win32,59.62318149,,,,,,,,,,,,,,,,,,,,,,,,,,,,,,,,,,,,,,,,,,,,,,,,,,0,4,4,4,1,stimulusFile/mult_blk5_INcongruent.xlsx,,
,,,,,,,,,,,,,,,775,2022-01-19_14h29.02.995,multiplicationStroop,2021.2.3,Win32,59.62318149,,,,,,,,,,,,,,,,,,,,,,,,,,,,,,,space,1.3911,28,3.3341,1,0,0,0,16,1,7,×,4,7 × 4,incongruent,largerFirst,1,2,28,,,,,,,,
,,,,,,,,,,,,,,,775,2022-01-19_14h29.02.995,multiplicationStroop,2021.2.3,Win32,59.62318149,,,,,,,,,,,,,,,,,,,,,,,,,,,,,,,,,48,4.3869,1,0,1,1,1,1,6,×,8,6 × 8,incongruent,smallerFirst,2,1,48,,,,,,,,
,,,,,,,,,,,,,,,775,2022-01-19_14h29.02.995,multiplicationStroop,2021.2.3,Win32,59.62318149,,,,,,,,,,,,,,,,,,,,,,,,,,,,,,,,,9,1.3532,1,0,2,2,29,1,3,×,3,3 × 3,incongruent,tie,1,2,9,,,,,,,,
,,,,,,,,,,,,,,,775,2022-01-19_14h29.02.995,multiplicationStroop,2021.2.3,Win32,59.62318149,,,,,,,,,,,,,,,,,,,,,,,,,,,,,,,,,30,1.8159,1,0,3,3,25,1,6,×,5,6 × 5,incongruent,largerFirst,1,2,30,,,,,,,,
,,,,,,,,,,,,,,,775,2022-01-19_14h29.02.995,multiplicationStroop,2021.2.3,Win32,59.62318149,,,,,,,,,,,,,,,,,,,,,,,,,,,,,,,,,12,1.3658,1,0,4,4,19,1,6,×,2,6 × 2,incongruent,largerFirst,1,2,12,,,,,,,,
,,,,,,,,,,,,,,,775,2022-01-19_14h29.02.995,multiplicationStroop,2021.2.3,Win32,59.62318149,,,,,,,,,,,,,,,,,,,,,,,,,,,,,,,,,14,1.6825,1,0,5,5,4,1,2,×,7,2 × 7,incongruent,smallerFirst,2,1,14,,,,,,,,
,,,,,,,,,,,,,,,775,2022-01-19_14h29.02.995,multiplicationStroop,2021.2.3,Win32,59.62318149,,,,,,,,,,,,,,,,,,,,,,,,,,,,,,,,,49,1.8326,1,0,6,6,33,1,7,×,7,7 × 7,incongruent,tie,1,2,49,,,,,,,,
,,,,,,,,,,,,,,,775,2022-01-19_14h29.02.995,multiplicationStroop,2021.2.3,Win32,59.62318149,,,,,,,,,,,,,,,,,,,,,,,,,,,,,,,,,8,1.4989,1,0,7,7,24,1,4,×,2,4 × 2,incongruent,largerFirst,1,2,8,,,,,,,,
,,,,,,,,,,,,,,,775,2022-01-19_14h29.02.995,multiplicationStroop,2021.2.3,Win32,59.62318149,,,,,,,,,,,,,,,,,,,,,,,,,,,,,,,,,24,1.8156,1,0,8,8,9,1,3,×,8,3 × 8,incongruent,smallerFirst,2,1,24,,,,,,,,
,,,,,,,,,,,,,,,775,2022-01-19_14h29.02.995,multiplicationStroop,2021.2.3,Win32,59.62318149,,,,,,,,,,,,,,,,,,,,,,,,,,,,,,,,,64,4.4657,1,0,9,9,34,1,8,×,8,8 × 8,incongruent,tie,1,2,64,,,,,,,,
,,,,,,,,,,,,,,,775,2022-01-19_14h29.02.995,multiplicationStroop,2021.2.3,Win32,59.62318149,,,,,,,,,,,,,,,,,,,,,,,,,,,,,,,,,18,2.3515,1,0,10,10,8,1,3,×,6,3 × 6,incongruent,smallerFirst,2,1,18,,,,,,,,
,,,,,,,,,,,,,,,775,2022-01-19_14h29.02.995,multiplicationStroop,2021.2.3,Win32,59.62318149,,,,,,,,,,,,,,,,,,,,,,,,,,,,,,,,,6,1.5657,1,0,11,11,11,1,2,×,3,2 × 3,incongruent,smallerFirst,2,1,6,,,,,,,,
,,,,,,,,,,,,,,,775,2022-01-19_14h29.02.995,multiplicationStroop,2021.2.3,Win32,59.62318149,,,,,,,,,,,,,,,,,,,,,,,,,,,,,,,,,36,3.3818,1,0,12,12,15,1,9,×,4,9 × 4,incongruent,largerFirst,1,2,36,,,,,,,,
,,,,,,,,,,,,,,,775,2022-01-19_14h29.02.995,multiplicationStroop,2021.2.3,Win32,59.62318149,,,,,,,,,,,,,,,,,,,,,,,,,,,,,,,,,81,1.8178,1,0,13,13,35,1,9,×,9,9 × 9,incongruent,tie,1,2,81,,,,,,,,
,,,,,,,,,,,,,,,775,2022-01-19_14h29.02.995,multiplicationStroop,2021.2.3,Win32,59.62318149,,,,,,,,,,,,,,,,,,,,,,,,,,,,,,,,,36,1.8328,1,0,14,14,32,1,6,×,6,6 × 6,incongruent,tie,1,2,36,,,,,,,,
,,,,,,,,,,,,,,,775,2022-01-19_14h29.02.995,multiplicationStroop,2021.2.3,Win32,59.62318149,,,,,,,,,,,,,,,,,,,,,,,,,,,,,,,,,42,2.2152,1,0,15,15,17,1,7,×,6,7 × 6,incongruent,largerFirst,1,2,42,,,,,,,,
,,,,,,,,,,,,,,,775,2022-01-19_14h29.02.995,multiplicationStroop,2021.2.3,Win32,59.62318149,,,,,,,,,,,,,,,,,,,,,,,,,,,,,,,,,56,2.6328,1,0,16,16,14,1,8,×,7,8 × 7,incongruent,largerFirst,1,2,56,,,,,,,,
,,,,,,,,,,,,,,,775,2022-01-19_14h29.02.995,multiplicationStroop,2021.2.3,Win32,59.62318149,,,,,,,,,,,,,,,,,,,,,,,,,,,,,,,,,12,1.3993,1,0,17,17,5,1,3,×,4,3 × 4,incongruent,smallerFirst,2,1,12,,,,,,,,
,,,,,,,,,,,,,,,775,2022-01-19_14h29.02.995,multiplicationStroop,2021.2.3,Win32,59.62318149,,,,,,,,,,,,,,,,,,,,,,,,,,,,,,,,,4,1.3154,1,0,18,18,28,1,2,×,2,2 × 2,incongruent,tie,1,2,4,,,,,,,,
,,,,,,,,,,,,,,,775,2022-01-19_14h29.02.995,multiplicationStroop,2021.2.3,Win32,59.62318149,,,,,,,,,,,,,,,,,,,,,,,,,,,,,,,,,10,1.5992,1,0,19,19,21,1,5,×,2,5 × 2,incongruent,largerFirst,1,2,10,,,,,,,,
,,,,,,,,,,,,,,,775,2022-01-19_14h29.02.995,multiplicationStroop,2021.2.3,Win32,59.62318149,,,,,,,,,,,,,,,,,,,,,,,,,,,,,,,,,24,2.4654,1,0,20,20,20,1,6,×,4,6 × 4,incongruent,largerFirst,1,2,24,,,,,,,,
,,,,,,,,,,,,,,,775,2022-01-19_14h29.02.995,multiplicationStroop,2021.2.3,Win32,59.62318149,,,,,,,,,,,,,,,,,,,,,,,,,,,,,,,,,72,4.3344,1,0,21,21,0,1,8,×,9,8 × 9,incongruent,smallerFirst,2,1,72,,,,,,,,
,,,,,,,,,,,,,,,775,2022-01-19_14h29.02.995,multiplicationStroop,2021.2.3,Win32,59.62318149,,,,,,,,,,,,,,,,,,,,,,,,,,,,,,,,,32,3.8844,1,0,22,22,7,1,4,×,8,4 × 8,incongruent,smallerFirst,2,1,32,,,,,,,,
,,,,,,,,,,,,,,,775,2022-01-19_14h29.02.995,multiplicationStroop,2021.2.3,Win32,59.62318149,,,,,,,,,,,,,,,,,,,,,,,,,,,,,,,,,40,1.8684,1,0,23,23,13,1,5,×,8,5 × 8,incongruent,smallerFirst,2,1,40,,,,,,,,
,,,,,,,,,,,,,,,775,2022-01-19_14h29.02.995,multiplicationStroop,2021.2.3,Win32,59.62318149,,,,,,,,,,,,,,,,,,,,,,,,,,,,,,,,,21,1.4494,1,0,24,24,26,1,7,×,3,7 × 3,incongruent,largerFirst,1,2,21,,,,,,,,
,,,,,,,,,,,,,,,775,2022-01-19_14h29.02.995,multiplicationStroop,2021.2.3,Win32,59.62318149,,,,,,,,,,,,,,,,,,,,,,,,,,,,,,,,,16,1.6324,1,0,25,25,30,1,4,×,4,4 × 4,incongruent,tie,1,2,16,,,,,,,,
,,,,,,,,,,,,,,,775,2022-01-19_14h29.02.995,multiplicationStroop,2021.2.3,Win32,59.62318149,,,,,,,,,,,,,,,,,,,,,,,,,,,,,,,,,35,1.8826,1,0,26,26,12,1,5,×,7,5 × 7,incongruent,smallerFirst,2,1,35,,,,,,,,
,,,,,,,,,,,,,,,775,2022-01-19_14h29.02.995,multiplicationStroop,2021.2.3,Win32,59.62318149,,,,,,,,,,,,,,,,,,,,,,,,,,,,,,,,,25,1.7323,1,0,27,27,31,1,5,×,5,5 × 5,incongruent,tie,1,2,25,,,,,,,,
,,,,,,,,,,,,,,,775,2022-01-19_14h29.02.995,multiplicationStroop,2021.2.3,Win32,59.62318149,,,,,,,,,,,,,,,,,,,,,,,,,,,,,,,,,18,1.7159,1,0,28,28,2,1,2,×,9,2 × 9,incongruent,smallerFirst,2,1,18,,,,,,,,
,,,,,,,,,,,,,,,775,2022-01-19_14h29.02.995,multiplicationStroop,2021.2.3,Win32,59.62318149,,,,,,,,,,,,,,,,,,,,,,,,,,,,,,,,,15,1.5656,1,0,29,29,10,1,3,×,5,3 × 5,incongruent,smallerFirst,2,1,15,,,,,,,,
,,,,,,,,,,,,,,,775,2022-01-19_14h29.02.995,multiplicationStroop,2021.2.3,Win32,59.62318149,,,,,,,,,,,,,,,,,,,,,,,,,,,,,,,,,54,2.2487,1,0,30,30,6,1,6,×,9,6 × 9,incongruent,smallerFirst,2,1,54,,,,,,,,
,,,,,,,,,,,,,,,775,2022-01-19_14h29.02.995,multiplicationStroop,2021.2.3,Win32,59.62318149,,,,,,,,,,,,,,,,,,,,,,,,,,,,,,,,,27,4.8323,1,0,31,31,18,1,9,×,3,9 × 3,incongruent,largerFirst,1,2,27,,,,,,,,
,,,,,,,,,,,,,,,775,2022-01-19_14h29.02.995,multiplicationStroop,2021.2.3,Win32,59.62318149,,,,,,,,,,,,,,,,,,,,,,,,,,,,,,,,,16,1.5506,1,0,32,32,23,1,8,×,2,8 × 2,incongruent,largerFirst,1,2,16,,,,,,,,
,,,,,,,,,,,,,,,775,2022-01-19_14h29.02.995,multiplicationStroop,2021.2.3,Win32,59.62318149,,,,,,,,,,,,,,,,,,,,,,,,,,,,,,,,,63,4.5983,1,0,33,33,3,1,7,×,9,7 × 9,incongruent,smallerFirst,2,1,63,,,,,,,,
,,,,,,,,,,,,,,,775,2022-01-19_14h29.02.995,multiplicationStroop,2021.2.3,Win32,59.62318149,,,,,,,,,,,,,,,,,,,,,,,,,,,,,,,,,45,1.718,1,0,34,34,22,1,9,×,5,9 × 5,incongruent,largerFirst,1,2,45,,,,,,,,
,,,,,,,,,,,,,,,775,2022-01-19_14h29.02.995,multiplicationStroop,2021.2.3,Win32,59.62318149,,,,,,,,,,,,,,,,,,,,,,,,,,,,,,,,,20,1.6819,1,0,35,35,27,1,5,×,4,5 × 4,incongruent,largerFirst,1,2,20,,,,,,,,
,,,,,,,,,,,,,,,775,2022-01-19_14h29.02.995,multiplicationStroop,2021.2.3,Win32,59.62318149,,,,,,,,,,,,,,,,,,,,,,,,,,,,,,,,,,,,,,,,,,,,,,,,,,0,5,5,5,1,stimulusFile/mult_blk6_INcongruent.xlsx,,
,,,,,,,,,,,,,,,775,2022-01-19_14h29.02.995,multiplicationStroop,2021.2.3,Win32,59.62318149,,,,,,,,,,,,,,,,,,,,,,,,,,,,,,,,,,,,,,,,,,,,,,,,,,,,,,,,space,8.9264