welcomeKey_resp.keys,welcomeKey_resp.rt,X Scale,Y Scale,rt_resp_4.keys,rt_resp_4.corr,rt_resp_4.rt,speedtest_2.thisRepN,speedtest_2.thisTrialN,speedtest_2.thisN,speedtest_2.thisIndex,speedtest_2.ran,numberSc,posX,positionLayout,participant,date,expName,psychopyVersion,OS,frameRate,ct_instrresp.keys,ct_instrresp.rt,key_resp_2.keys,key_resp_2.rt,ct_keyResp.keys,ct_keyResp.corr,ct_keyResp.rt,trials.thisRepN,trials.thisTrialN,trials.thisN,trials.thisIndex,trials.ran,leftNo,rightNo,displayProblem,numDistance,leftNo_size,rightNo_size,Dims,keyAnswer,TS_Loop.thisRepN,TS_Loop.thisTrialN,TS_Loop.thisN,TS_Loop.thisIndex,TS_Loop.ran,Condition,ActionInst,instrImage,mltptaskInst_resp.keys,mltptaskInst_resp.rt,continue_resp_2.keys,continue_resp_2.rt,multp_Answer,multi_RT,multiplyCorr,LoopingMultiply.thisRepN,LoopingMultiply.thisTrialN,LoopingMultiply.thisN,LoopingMultiply.thisIndex,LoopingMultiply.ran,factor1,multiplySign,factor2,multliplyProblem,physicalSize,orderOperand,sizeF1,sizeF2,mult_answer,trials_stroop.thisRepN,trials_stroop.thisTrialN,trials_stroop.thisN,trials_stroop.thisIndex,trials_stroop.ran,multiplicationFile,esckey_resp_2.keys,esckey_resp_2.rt
y,7.1531,51.2,51.1,left,1,0.6589,0,0,0,0,1,1,-200,left,776,2022-01-31_18h28.25.169,multiplicationStroop,2021.2.3,MacIntel,60.0024001,,,,,,,,,,,,,,,,,,,,,,,,,,,,,,,,,,,,,,,,,,,,,,,,,,,,,,,,,
,,,,left,1,0.5179,0,1,1,1,1,2,-200,left,776,2022-01-31_18h28.25.169,multiplicationStroop,2021.2.3,MacIntel,60.0024001,,,,,,,,,,,,,,,,,,,,,,,,,,,,,,,,,,,,,,,,,,,,,,,,,,,,,,,,,
,,,,right,1,0.4867,0,2,2,14,1,8,200,right,776,2022-01-31_18h28.25.169,multiplicationStroop,2021.2.3,MacIntel,60.0024001,,,,,,,,,,,,,,,,,,,,,,,,,,,,,,,,,,,,,,,,,,,,,,,,,,,,,,,,,
,,,,left,1,0.4649,0,3,3,3,1,4,-200,left,776,2022-01-31_18h28.25.169,multiplicationStroop,2021.2.3,MacIntel,60.0024001,,,,,,,,,,,,,,,,,,,,,,,,,,,,,,,,,,,,,,,,,,,,,,,,,,,,,,,,,
,,,,right,1,0.3117,0,4,4,10,1,3,200,right,776,2022-01-31_18h28.25.169,multiplicationStroop,2021.2.3,MacIntel,60.0024001,,,,,,,,,,,,,,,,,,,,,,,,,,,,,,,,,,,,,,,,,,,,,,,,,,,,,,,,,
,,,,left,1,0.3476,0,5,5,4,1,6,-200,left,776,2022-01-31_18h28.25.169,multiplicationStroop,2021.2.3,MacIntel,60.0024001,,,,,,,,,,,,,,,,,,,,,,,,,,,,,,,,,,,,,,,,,,,,,,,,,,,,,,,,,
,,,,right,1,0.33,0,6,6,8,1,1,200,right,776,2022-01-31_18h28.25.169,multiplicationStroop,2021.2.3,MacIntel,60.0024001,,,,,,,,,,,,,,,,,,,,,,,,,,,,,,,,,,,,,,,,,,,,,,,,,,,,,,,,,
,,,,right,1,0.3521,0,7,7,11,1,4,200,right,776,2022-01-31_18h28.25.169,multiplicationStroop,2021.2.3,MacIntel,60.0024001,,,,,,,,,,,,,,,,,,,,,,,,,,,,,,,,,,,,,,,,,,,,,,,,,,,,,,,,,
,,,,right,1,0.3378,0,8,8,15,1,9,200,right,776,2022-01-31_18h28.25.169,multiplicationStroop,2021.2.3,MacIntel,60.0024001,,,,,,,,,,,,,,,,,,,,,,,,,,,,,,,,,,,,,,,,,,,,,,,,,,,,,,,,,
,,,,left,1,0.3746,0,9,9,7,1,9,-200,left,776,2022-01-31_18h28.25.169,multiplicationStroop,2021.2.3,MacIntel,60.0024001,,,,,,,,,,,,,,,,,,,,,,,,,,,,,,,,,,,,,,,,,,,,,,,,,,,,,,,,,
,,,,left,1,0.3978,0,10,10,2,1,3,-200,left,776,2022-01-31_18h28.25.169,multiplicationStroop,2021.2.3,MacIntel,60.0024001,,,,,,,,,,,,,,,,,,,,,,,,,,,,,,,,,,,,,,,,,,,,,,,,,,,,,,,,,
,,,,left,1,0.3588,0,11,11,6,1,8,-200,left,776,2022-01-31_18h28.25.169,multiplicationStroop,2021.2.3,MacIntel,60.0024001,,,,,,,,,,,,,,,,,,,,,,,,,,,,,,,,,,,,,,,,,,,,,,,,,,,,,,,,,
,,,,right,1,0.3101,0,12,12,13,1,7,200,right,776,2022-01-31_18h28.25.169,multiplicationStroop,2021.2.3,MacIntel,60.0024001,,,,,,,,,,,,,,,,,,,,,,,,,,,,,,,,,,,,,,,,,,,,,,,,,,,,,,,,,
,,,,left,1,0.3099,0,13,13,5,1,7,-200,left,776,2022-01-31_18h28.25.169,multiplicationStroop,2021.2.3,MacIntel,60.0024001,,,,,,,,,,,,,,,,,,,,,,,,,,,,,,,,,,,,,,,,,,,,,,,,,,,,,,,,,
,,,,right,1,0.2403,0,14,14,12,1,6,200,right,776,2022-01-31_18h28.25.169,multiplicationStroop,2021.2.3,MacIntel,60.0024001,,,,,,,,,,,,,,,,,,,,,,,,,,,,,,,,,,,,,,,,,,,,,,,,,,,,,,,,,
,,,,right,1,0.3575,0,15,15,9,1,2,200,right,776,2022-01-31_18h28.25.169,multiplicationStroop,2021.2.3,MacIntel,60.0024001,,,,,,,,,,,,,,,,,,,,,,,,,,,,,,,,,,,,,,,,,,,,,,,,,,,,,,,,,
,,,,right,1,0.3256,1,0,16,9,1,2,200,right,776,2022-01-31_18h28.25.169,multiplicationStroop,2021.2.3,MacIntel,60.0024001,,,,,,,,,,,,,,,,,,,,,,,,,,,,,,,,,,,,,,,,,,,,,,,,,,,,,,,,,
,,,,left,1,0.3679,1,1,17,2,1,3,-200,left,776,2022-01-31_18h28.25.169,multiplicationStroop,2021.2.3,MacIntel,60.0024001,,,,,,,,,,,,,,,,,,,,,,,,,,,,,,,,,,,,,,,,,,,,,,,,,,,,,,,,,
,,,,left,1,0.4821,1,2,18,3,1,4,-200,left,776,2022-01-31_18h28.25.169,multiplicationStroop,2021.2.3,MacIntel,60.0024001,,,,,,,,,,,,,,,,,,,,,,,,,,,,,,,,,,,,,,,,,,,,,,,,,,,,,,,,,
,,,,left,1,0.4371,1,3,19,6,1,8,-200,left,776,2022-01-31_18h28.25.169,multiplicationStroop,2021.2.3,MacIntel,60.0024001,,,,,,,,,,,,,,,,,,,,,,,,,,,,,,,,,,,,,,,,,,,,,,,,,,,,,,,,,
,,,,right,1,0.4872,1,4,20,12,1,6,200,right,776,2022-01-31_18h28.25.169,multiplicationStroop,2021.2.3,MacIntel,60.0024001,,,,,,,,,,,,,,,,,,,,,,,,,,,,,,,,,,,,,,,,,,,,,,,,,,,,,,,,,
,,,,left,1,0.3338,1,5,21,5,1,7,-200,left,776,2022-01-31_18h28.25.169,multiplicationStroop,2021.2.3,MacIntel,60.0024001,,,,,,,,,,,,,,,,,,,,,,,,,,,,,,,,,,,,,,,,,,,,,,,,,,,,,,,,,
,,,,left,1,0.3808,1,6,22,7,1,9,-200,left,776,2022-01-31_18h28.25.169,multiplicationStroop,2021.2.3,MacIntel,60.0024001,,,,,,,,,,,,,,,,,,,,,,,,,,,,,,,,,,,,,,,,,,,,,,,,,,,,,,,,,
,,,,right,1,0.3907,1,7,23,14,1,8,200,right,776,2022-01-31_18h28.25.169,multiplicationStroop,2021.2.3,MacIntel,60.0024001,,,,,,,,,,,,,,,,,,,,,,,,,,,,,,,,,,,,,,,,,,,,,,,,,,,,,,,,,
,,,,right,1,0.4139,1,8,24,10,1,3,200,right,776,2022-01-31_18h28.25.169,multiplicationStroop,2021.2.3,MacIntel,60.0024001,,,,,,,,,,,,,,,,,,,,,,,,,,,,,,,,,,,,,,,,,,,,,,,,,,,,,,,,,
,,,,right,1,0.2973,1,9,25,13,1,7,200,right,776,2022-01-31_18h28.25.169,multiplicationStroop,2021.2.3,MacIntel,60.0024001,,,,,,,,,,,,,,,,,,,,,,,,,,,,,,,,,,,,,,,,,,,,,,,,,,,,,,,,,
,,,,right,1,0.3239,1,10,26,15,1,9,200,right,776,2022-01-31_18h28.25.169,multiplicationStroop,2021.2.3,MacIntel,60.0024001,,,,,,,,,,,,,,,,,,,,,,,,,,,,,,,,,,,,,,,,,,,,,,,,,,,,,,,,,
,,,,left,1,0.3862,1,11,27,0,1,1,-200,left,776,2022-01-31_18h28.25.169,multiplicationStroop,2021.2.3,MacIntel,60.0024001,,,,,,,,,,,,,,,,,,,,,,,,,,,,,,,,,,,,,,,,,,,,,,,,,,,,,,,,,
,,,,right,1,0.327,1,12,28,11,1,4,200,right,776,2022-01-31_18h28.25.169,multiplicationStroop,2021.2.3,MacIntel,60.0024001,,,,,,,,,,,,,,,,,,,,,,,,,,,,,,,,,,,,,,,,,,,,,,,,,,,,,,,,,
,,,,right,1,0.369,1,13,29,8,1,1,200,right,776,2022-01-31_18h28.25.169,multiplicationStroop,2021.2.3,MacIntel,60.0024001,,,,,,,,,,,,,,,,,,,,,,,,,,,,,,,,,,,,,,,,,,,,,,,,,,,,,,,,,
,,,,left,1,0.3968,1,14,30,4,1,6,-200,left,776,2022-01-31_18h28.25.169,multiplicationStroop,2021.2.3,MacIntel,60.0024001,,,,,,,,,,,,,,,,,,,,,,,,,,,,,,,,,,,,,,,,,,,,,,,,,,,,,,,,,
,,,,left,1,0.3599,1,15,31,1,1,2,-200,left,776,2022-01-31_18h28.25.169,multiplicationStroop,2021.2.3,MacIntel,60.0024001,,,,,,,,,,,,,,,,,,,,,,,,,,,,,,,,,,,,,,,,,,,,,,,,,,,,,,,,,
,,,,right,1,0.3571,2,0,32,15,1,9,200,right,776,2022-01-31_18h28.25.169,multiplicationStroop,2021.2.3,MacIntel,60.0024001,,,,,,,,,,,,,,,,,,,,,,,,,,,,,,,,,,,,,,,,,,,,,,,,,,,,,,,,,
,,,,right,1,0.329,2,1,33,11,1,4,200,right,776,2022-01-31_18h28.25.169,multiplicationStroop,2021.2.3,MacIntel,60.0024001,,,,,,,,,,,,,,,,,,,,,,,,,,,,,,,,,,,,,,,,,,,,,,,,,,,,,,,,,
,,,,left,1,0.3894,2,2,34,3,1,4,-200,left,776,2022-01-31_18h28.25.169,multiplicationStroop,2021.2.3,MacIntel,60.0024001,,,,,,,,,,,,,,,,,,,,,,,,,,,,,,,,,,,,,,,,,,,,,,,,,,,,,,,,,
,,,,left,0,0.3037,2,3,35,10,1,3,200,right,776,2022-01-31_18h28.25.169,multiplicationStroop,2021.2.3,MacIntel,60.0024001,,,,,,,,,,,,,,,,,,,,,,,,,,,,,,,,,,,,,,,,,,,,,,,,,,,,,,,,,
,,,,left,1,0.8709,2,4,36,2,1,3,-200,left,776,2022-01-31_18h28.25.169,multiplicationStroop,2021.2.3,MacIntel,60.0024001,,,,,,,,,,,,,,,,,,,,,,,,,,,,,,,,,,,,,,,,,,,,,,,,,,,,,,,,,
,,,,left,1,0.412,2,5,37,7,1,9,-200,left,776,2022-01-31_18h28.25.169,multiplicationStroop,2021.2.3,MacIntel,60.0024001,,,,,,,,,,,,,,,,,,,,,,,,,,,,,,,,,,,,,,,,,,,,,,,,,,,,,,,,,
,,,,right,1,0.4563,2,6,38,12,1,6,200,right,776,2022-01-31_18h28.25.169,multiplicationStroop,2021.2.3,MacIntel,60.0024001,,,,,,,,,,,,,,,,,,,,,,,,,,,,,,,,,,,,,,,,,,,,,,,,,,,,,,,,,
,,,,right,1,0.3973,2,7,39,14,1,8,200,right,776,2022-01-31_18h28.25.169,multiplicationStroop,2021.2.3,MacIntel,60.0024001,,,,,,,,,,,,,,,,,,,,,,,,,,,,,,,,,,,,,,,,,,,,,,,,,,,,,,,,,
,,,,right,1,0.365,2,8,40,13,1,7,200,right,776,2022-01-31_18h28.25.169,multiplicationStroop,2021.2.3,MacIntel,60.0024001,,,,,,,,,,,,,,,,,,,,,,,,,,,,,,,,,,,,,,,,,,,,,,,,,,,,,,,,,
,,,,left,1,0.378,2,9,41,0,1,1,-200,left,776,2022-01-31_18h28.25.169,multiplicationStroop,2021.2.3,MacIntel,60.0024001,,,,,,,,,,,,,,,,,,,,,,,,,,,,,,,,,,,,,,,,,,,,,,,,,,,,,,,,,
,,,,left,1,0.3532,2,10,42,5,1,7,-200,left,776,2022-01-31_18h28.25.169,multiplicationStroop,2021.2.3,MacIntel,60.0024001,,,,,,,,,,,,,,,,,,,,,,,,,,,,,,,,,,,,,,,,,,,,,,,,,,,,,,,,,
,,,,right,1,0.7472,2,11,43,9,1,2,200,right,776,2022-01-31_18h28.25.169,multiplicationStroop,2021.2.3,MacIntel,60.0024001,,,,,,,,,,,,,,,,,,,,,,,,,,,,,,,,,,,,,,,,,,,,,,,,,,,,,,,,,
,,,,left,1,0.4735,2,12,44,1,1,2,-200,left,776,2022-01-31_18h28.25.169,multiplicationStroop,2021.2.3,MacIntel,60.0024001,,,,,,,,,,,,,,,,,,,,,,,,,,,,,,,,,,,,,,,,,,,,,,,,,,,,,,,,,
,,,,right,1,0.3967,2,13,45,8,1,1,200,right,776,2022-01-31_18h28.25.169,multiplicationStroop,2021.2.3,MacIntel,60.0024001,,,,,,,,,,,,,,,,,,,,,,,,,,,,,,,,,,,,,,,,,,,,,,,,,,,,,,,,,
,,,,left,1,0.4155,2,14,46,4,1,6,-200,left,776,2022-01-31_18h28.25.169,multiplicationStroop,2021.2.3,MacIntel,60.0024001,,,,,,,,,,,,,,,,,,,,,,,,,,,,,,,,,,,,,,,,,,,,,,,,,,,,,,,,,
,,,,left,1,0.44,2,15,47,6,1,8,-200,left,776,2022-01-31_18h28.25.169,multiplicationStroop,2021.2.3,MacIntel,60.0024001,,,,,,,,,,,,,,,,,,,,,,,,,,,,,,,,,,,,,,,,,,,,,,,,,,,,,,,,,
,,,,right,1,0.3483,3,0,48,14,1,8,200,right,776,2022-01-31_18h28.25.169,multiplicationStroop,2021.2.3,MacIntel,60.0024001,,,,,,,,,,,,,,,,,,,,,,,,,,,,,,,,,,,,,,,,,,,,,,,,,,,,,,,,,
,,,,right,1,0.4881,3,1,49,9,1,2,200,right,776,2022-01-31_18h28.25.169,multiplicationStroop,2021.2.3,MacIntel,60.0024001,,,,,,,,,,,,,,,,,,,,,,,,,,,,,,,,,,,,,,,,,,,,,,,,,,,,,,,,,
,,,,right,1,0.3331,3,2,50,15,1,9,200,right,776,2022-01-31_18h28.25.169,multiplicationStroop,2021.2.3,MacIntel,60.0024001,,,,,,,,,,,,,,,,,,,,,,,,,,,,,,,,,,,,,,,,,,,,,,,,,,,,,,,,,
,,,,left,1,0.32,3,3,51,4,1,6,-200,left,776,2022-01-31_18h28.25.169,multiplicationStroop,2021.2.3,MacIntel,60.0024001,,,,,,,,,,,,,,,,,,,,,,,,,,,,,,,,,,,,,,,,,,,,,,,,,,,,,,,,,
,,,,left,1,0.3116,3,4,52,5,1,7,-200,left,776,2022-01-31_18h28.25.169,multiplicationStroop,2021.2.3,MacIntel,60.0024001,,,,,,,,,,,,,,,,,,,,,,,,,,,,,,,,,,,,,,,,,,,,,,,,,,,,,,,,,
,,,,right,1,0.3372,3,5,53,10,1,3,200,right,776,2022-01-31_18h28.25.169,multiplicationStroop,2021.2.3,MacIntel,60.0024001,,,,,,,,,,,,,,,,,,,,,,,,,,,,,,,,,,,,,,,,,,,,,,,,,,,,,,,,,
,,,,left,1,0.3092,3,6,54,2,1,3,-200,left,776,2022-01-31_18h28.25.169,multiplicationStroop,2021.2.3,MacIntel,60.0024001,,,,,,,,,,,,,,,,,,,,,,,,,,,,,,,,,,,,,,,,,,,,,,,,,,,,,,,,,
,,,,left,1,0.3892,3,7,55,0,1,1,-200,left,776,2022-01-31_18h28.25.169,multiplicationStroop,2021.2.3,MacIntel,60.0024001,,,,,,,,,,,,,,,,,,,,,,,,,,,,,,,,,,,,,,,,,,,,,,,,,,,,,,,,,
,,,,right,1,0.4992,3,8,56,13,1,7,200,right,776,2022-01-31_18h28.25.169,multiplicationStroop,2021.2.3,MacIntel,60.0024001,,,,,,,,,,,,,,,,,,,,,,,,,,,,,,,,,,,,,,,,,,,,,,,,,,,,,,,,,
,,,,left,1,0.3094,3,9,57,6,1,8,-200,left,776,2022-01-31_18h28.25.169,multiplicationStroop,2021.2.3,MacIntel,60.0024001,,,,,,,,,,,,,,,,,,,,,,,,,,,,,,,,,,,,,,,,,,,,,,,,,,,,,,,,,
,,,,left,1,0.4462,3,10,58,1,1,2,-200,left,776,2022-01-31_18h28.25.169,multiplicationStroop,2021.2.3,MacIntel,60.0024001,,,,,,,,,,,,,,,,,,,,,,,,,,,,,,,,,,,,,,,,,,,,,,,,,,,,,,,,,
,,,,left,0,0.2994,3,11,59,11,1,4,200,right,776,2022-01-31_18h28.25.169,multiplicationStroop,2021.2.3,MacIntel,60.0024001,,,,,,,,,,,,,,,,,,,,,,,,,,,,,,,,,,,,,,,,,,,,,,,,,,,,,,,,,
,,,,left,1,0.5654,3,12,60,7,1,9,-200,left,776,2022-01-31_18h28.25.169,multiplicationStroop,2021.2.3,MacIntel,60.0024001,,,,,,,,,,,,,,,,,,,,,,,,,,,,,,,,,,,,,,,,,,,,,,,,,,,,,,,,,
,,,,right,1,0.2862,3,13,61,12,1,6,200,right,776,2022-01-31_18h28.25.169,multiplicationStroop,2021.2.3,MacIntel,60.0024001,,,,,,,,,,,,,,,,,,,,,,,,,,,,,,,,,,,,,,,,,,,,,,,,,,,,,,,,,
,,,,left,1,0.2969,3,14,62,3,1,4,-200,left,776,2022-01-31_18h28.25.169,multiplicationStroop,2021.2.3,MacIntel,60.0024001,,,,,,,,,,,,,,,,,,,,,,,,,,,,,,,,,,,,,,,,,,,,,,,,,,,,,,,,,
,,,,right,1,0.1348,3,15,63,8,1,1,200,right,776,2022-01-31_18h28.25.169,multiplicationStroop,2021.2.3,MacIntel,60.0024001,,,,,,,,,,,,,,,,,,,,,,,,,,stimulusFile/physical.xlsx,,,,,,,,,,,,,,,,,,,,,,,,,,,,,,,
,,,,,,,,,,,,,,,776,2022-01-31_18h28.25.169,multiplicationStroop,2021.2.3,MacIntel,60.0024001,space,15.7012,space,13.7745,left,1,1.6199,0,0,0,6,1,7,6,7 | 6,1,1.9756,1.4111,congruent,left,,,,,,stimulusFile/physical.xlsx,,,,,,,,,,,,,,,,,,,,,,,,,,,,,,,
,,,,,,,,,,,,,,,776,2022-01-31_18h28.25.169,multiplicationStroop,2021.2.3,MacIntel,60.0024001,,,,,left,1,0.5669,0,1,1,23,1,9,4,9 | 4,5,1.9756,1.4111,congruent,left,,,,,,stimulusFile/physical.xlsx,,,,,,,,,,,,,,,,,,,,,,,,,,,,,,,
,,,,,,,,,,,,,,,776,2022-01-31_18h28.25.169,multiplicationStroop,2021.2.3,MacIntel,60.0024001,,,,,left,1,0.4827,0,2,2,52,1,2,2,2 | 2,0,1.9756,1.4111,neutral,left,,,,,,stimulusFile/physical.xlsx,,,,,,,,,,,,,,,,,,,,,,,,,,,,,,,
,,,,,,,,,,,,,,,776,2022-01-31_18h28.25.169,multiplicationStroop,2021.2.3,MacIntel,60.0024001,,,,,right,1,0.4636,0,3,3,65,1,2,2,2 | 2,0,1.4111,1.9756,neutral,right,,,,,,stimulusFile/physical.xlsx,,,,,,,,,,,,,,,,,,,,,,,,,,,,,,,
,,,,,,,,,,,,,,,776,2022-01-31_18h28.25.169,multiplicationStroop,2021.2.3,MacIntel,60.0024001,,,,,right,1,0.5201,0,4,4,44,1,6,1,6 | 1,5,1.4111,1.9756,incongruent,right,,,,,,stimulusFile/physical.xlsx,,,,,,,,,,,,,,,,,,,,,,,,,,,,,,,
,,,,,,,,,,,,,,,776,2022-01-31_18h28.25.169,multiplicationStroop,2021.2.3,MacIntel,60.0024001,,,,,right,1,0.4857,0,5,5,59,1,7,7,7 | 7,0,1.4111,1.9756,neutral,right,,,,,,stimulusFile/physical.xlsx,,,,,,,,,,,,,,,,,,,,,,,,,,,,,,,
,,,,,,,,,,,,,,,776,2022-01-31_18h28.25.169,multiplicationStroop,2021.2.3,MacIntel,60.0024001,,,,,right,1,0.5347,0,6,6,47,1,9,4,9 | 4,5,1.4111,1.9756,incongruent,right,,,,,,stimulusFile/physical.xlsx,,,,,,,,,,,,,,,,,,,,,,,,,,,,,,,
,,,,,,,,,,,,,,,776,2022-01-31_18h28.25.169,multiplicationStroop,2021.2.3,MacIntel,60.0024001,,,,,right,1,0.4255,0,7,7,30,1,7,6,7 | 6,1,1.4111,1.9756,incongruent,right,,,,,,stimulusFile/physical.xlsx,,,,,,,,,,,,,,,,,,,,,,,,,,,,,,,
,,,,,,,,,,,,,,,776,2022-01-31_18h28.25.169,multiplicationStroop,2021.2.3,MacIntel,60.0024001,,,,,right,1,0.5324,0,8,8,3,1,8,9,8 | 9,1,1.4111,1.9756,congruent,right,,,,,,stimulusFile/physical.xlsx,,,,,,,,,,,,,,,,,,,,,,,,,,,,,,,
,,,,,,,,,,,,,,,776,2022-01-31_18h28.25.169,multiplicationStroop,2021.2.3,MacIntel,60.0024001,,,,,right,1,0.5298,0,9,9,10,1,6,8,6 | 8,2,1.4111,1.9756,congruent,right,,,,,,stimulusFile/physical.xlsx,,,,,,,,,,,,,,,,,,,,,,,,,,,,,,,
,,,,,,,,,,,,,,,776,2022-01-31_18h28.25.169,multiplicationStroop,2021.2.3,MacIntel,60.0024001,,,,,left,1,0.4962,0,10,10,13,1,4,2,4 | 2,2,1.9756,1.4111,congruent,left,,,,,,stimulusFile/physical.xlsx,,,,,,,,,,,,,,,,,,,,,,,,,,,,,,,
,,,,,,,,,,,,,,,776,2022-01-31_18h28.25.169,multiplicationStroop,2021.2.3,MacIntel,60.0024001,,,,,right,1,0.5,0,11,11,8,1,1,3,1 | 3,2,1.4111,1.9756,congruent,right,,,,,,stimulusFile/physical.xlsx,,,,,,,,,,,,,,,,,,,,,,,,,,,,,,,
,,,,,,,,,,,,,,,776,2022-01-31_18h28.25.169,multiplicationStroop,2021.2.3,MacIntel,60.0024001,,,,,left,1,0.414,0,12,12,42,1,3,8,3 | 8,5,1.9756,1.4111,incongruent,left,,,,,,stimulusFile/physical.xlsx,,,,,,,,,,,,,,,,,,,,,,,,,,,,,,,
,,,,,,,,,,,,,,,776,2022-01-31_18h28.25.169,multiplicationStroop,2021.2.3,MacIntel,60.0024001,,,,,right,1,0.519,0,13,13,58,1,6,6,6 | 6,0,1.4111,1.9756,neutral,right,,,,,,stimulusFile/physical.xlsx,,,,,,,,,,,,,,,,,,,,,,,,,,,,,,,
,,,,,,,,,,,,,,,776,2022-01-31_18h28.25.169,multiplicationStroop,2021.2.3,MacIntel,60.0024001,,,,,right,1,0.6444,0,14,14,62,1,8,8,8 | 8,0,1.4111,1.9756,neutral,right,,,,,,stimulusFile/physical.xlsx,,,,,,,,,,,,,,,,,,,,,,,,,,,,,,,
,,,,,,,,,,,,,,,776,2022-01-31_18h28.25.169,multiplicationStroop,2021.2.3,MacIntel,60.0024001,,,,,left,1,0.7277,0,15,15,48,1,1,1,1 | 1,0,1.9756,1.4111,neutral,left,,,,,,stimulusFile/physical.xlsx,,,,,,,,,,,,,,,,,,,,,,,,,,,,,,,
,,,,,,,,,,,,,,,776,2022-01-31_18h28.25.169,multiplicationStroop,2021.2.3,MacIntel,60.0024001,,,,,left,1,0.6128,0,16,16,51,1,8,8,8 | 8,0,1.9756,1.4111,neutral,left,,,,,,stimulusFile/physical.xlsx,,,,,,,,,,,,,,,,,,,,,,,,,,,,,,,
,,,,,,,,,,,,,,,776,2022-01-31_18h28.25.169,multiplicationStroop,2021.2.3,MacIntel,60.0024001,,,,,right,1,0.5138,0,17,17,9,1,2,4,2 | 4,2,1.4111,1.9756,congruent,right,,,,,,stimulusFile/physical.xlsx,,,,,,,,,,,,,,,,,,,,,,,,,,,,,,,
,,,,,,,,,,,,,,,776,2022-01-31_18h28.25.169,multiplicationStroop,2021.2.3,MacIntel,60.0024001,,,,,right,1,0.6332,0,18,18,56,1,1,1,1 | 1,0,1.4111,1.9756,neutral,right,,,,,,stimulusFile/physical.xlsx,,,,,,,,,,,,,,,,,,,,,,,,,,,,,,,
,,,,,,,,,,,,,,,776,2022-01-31_18h28.25.169,multiplicationStroop,2021.2.3,MacIntel,60.0024001,,,,,left,1,0.4811,0,19,19,54,1,7,7,7 | 7,0,1.9756,1.4111,neutral,left,,,,,,stimulusFile/physical.xlsx,,,,,,,,,,,,,,,,,,,,,,,,,,,,,,,
,,,,,,,,,,,,,,,776,2022-01-31_18h28.25.169,multiplicationStroop,2021.2.3,MacIntel,60.0024001,,,,,left,1,0.5856,0,20,20,34,1,6,8,6 | 8,2,1.9756,1.4111,incongruent,left,,,,,,stimulusFile/physical.xlsx,,,,,,,,,,,,,,,,,,,,,,,,,,,,,,,
,,,,,,,,,,,,,,,776,2022-01-31_18h28.25.169,multiplicationStroop,2021.2.3,MacIntel,60.0024001,,,,,left,1,0.5365,0,21,21,25,1,3,4,3 | 4,1,1.9756,1.4111,incongruent,left,,,,,,stimulusFile/physical.xlsx,,,,,,,,,,,,,,,,,,,,,,,,,,,,,,,
,,,,,,,,,,,,,,,776,2022-01-31_18h28.25.169,multiplicationStroop,2021.2.3,MacIntel,60.0024001,,,,,right,0,0.5106,0,22,22,71,1,9,9,9 | 9,0,1.4111,1.9756,neutral,left,,,,,,stimulusFile/physical.xlsx,,,,,,,,,,,,,,,,,,,,,,,,,,,,,,,
,,,,,,,,,,,,,,,776,2022-01-31_18h28.25.169,multiplicationStroop,2021.2.3,MacIntel,60.0024001,,,,,left,1,0.7636,0,23,23,40,1,1,6,1 | 6,5,1.9756,1.4111,incongruent,left,,,,,,stimulusFile/physical.xlsx,,,,,,,,,,,,,,,,,,,,,,,,,,,,,,,
,,,,,,,,,,,,,,,776,2022-01-31_18h28.25.169,multiplicationStroop,2021.2.3,MacIntel,60.0024001,,,,,left,1,0.7303,0,24,24,27,1,8,9,8 | 9,1,1.9756,1.4111,incongruent,left,,,,,,stimulusFile/physical.xlsx,,,,,,,,,,,,,,,,,,,,,,,,,,,,,,,
,,,,,,,,,,,,,,,776,2022-01-31_18h28.25.169,multiplicationStroop,2021.2.3,MacIntel,60.0024001,,,,,right,1,0.4918,0,25,25,17,1,2,7,2 | 7,5,1.4111,1.9756,congruent,right,,,,,,stimulusFile/physical.xlsx,,,,,,,,,,,,,,,,,,,,,,,,,,,,,,,
,,,,,,,,,,,,,,,776,2022-01-31_18h28.25.169,multiplicationStroop,2021.2.3,MacIntel,60.0024001,,,,,left,1,0.4295,0,26,26,50,1,6,6,6 | 6,0,1.9756,1.4111,neutral,left,,,,,,stimulusFile/physical.xlsx,,,,,,,,,,,,,,,,,,,,,,,,,,,,,,,
,,,,,,,,,,,,,,,776,2022-01-31_18h28.25.169,multiplicationStroop,2021.2.3,MacIntel,60.0024001,,,,,left,1,0.5241,0,27,27,70,1,8,8,8 | 8,0,1.9756,1.4111,neutral,left,,,,,,stimulusFile/physical.xlsx,,,,,,,,,,,,,,,,,,,,,,,,,,,,,,,
,,,,,,,,,,,,,,,776,2022-01-31_18h28.25.169,multiplicationStroop,2021.2.3,MacIntel,60.0024001,,,,,left,1,0.7278,0,28,28,33,1,2,4,2 | 4,2,1.9756,1.4111,incongruent,left,,,,,,stimulusFile/physical.xlsx,,,,,,,,,,,,,,,,,,,,,,,,,,,,,,,
,,,,,,,,,,,,,,,776,2022-01-31_18h28.25.169,multiplicationStroop,2021.2.3,MacIntel,60.0024001,,,,,left,1,0.4702,0,29,29,53,1,4,4,4 | 4,0,1.9756,1.4111,neutral,left,,,,,,stimulusFile/physical.xlsx,,,,,,,,,,,,,,,,,,,,,,,,,,,,,,,
,,,,,,,,,,,,,,,776,2022-01-31_18h28.25.169,multiplicationStroop,2021.2.3,MacIntel,60.0024001,,,,,left,1,0.4829,0,30,30,20,1,6,1,6 | 1,5,1.9756,1.4111,congruent,left,,,,,,stimulusFile/physical.xlsx,,,,,,,,,,,,,,,,,,,,,,,,,,,,,,,
,,,,,,,,,,,,,,,776,2022-01-31_18h28.25.169,multiplicationStroop,2021.2.3,MacIntel,60.0024001,,,,,left,1,0.4142,0,31,31,7,1,9,8,9 | 8,1,1.9756,1.4111,congruent,left,,,,,,stimulusFile/physical.xlsx,,,,,,,,,,,,,,,,,,,,,,,,,,,,,,,
,,,,,,,,,,,,,,,776,2022-01-31_18h28.25.169,multiplicationStroop,2021.2.3,MacIntel,60.0024001,,,,,right,1,0.4969,0,32,32,29,1,4,3,4 | 3,1,1.4111,1.9756,incongruent,right,,,,,,stimulusFile/physical.xlsx,,,,,,,,,,,,,,,,,,,,,,,,,,,,,,,
,,,,,,,,,,,,,,,776,2022-01-31_18h28.25.169,multiplicationStroop,2021.2.3,MacIntel,60.0024001,,,,,right,1,0.483,0,33,33,11,1,7,9,7 | 9,2,1.4111,1.9756,congruent,right,,,,,,stimulusFile/physical.xlsx,,,,,,,,,,,,,,,,,,,,,,,,,,,,,,,
,,,,,,,,,,,,,,,776,2022-01-31_18h28.25.169,multiplicationStroop,2021.2.3,MacIntel,60.0024001,,,,,left,1,0.4339,0,34,34,12,1,3,1,3 | 1,2,1.9756,1.4111,congruent,left,,,,,,stimulusFile/physical.xlsx,,,,,,,,,,,,,,,,,,,,,,,,,,,,,,,
,,,,,,,,,,,,,,,776,2022-01-31_18h28.25.169,multiplicationStroop,2021.2.3,MacIntel,60.0024001,,,,,left,1,0.4586,0,35,35,32,1,1,3,1 | 3,2,1.9756,1.4111,incongruent,left,,,,,,stimulusFile/physical.xlsx,,,,,,,,,,,,,,,,,,,,,,,,,,,,,,,
,,,,,,,,,,,,,,,776,2022-01-31_18h28.25.169,multiplicationStroop,2021.2.3,MacIntel,60.0024001,,,,,right,1,0.5754,0,36,36,63,1,9,9,9 | 9,0,1.4111,1.9756,neutral,right,,,,,,stimulusFile/physical.xlsx,,,,,,,,,,,,,,,,,,,,,,,,,,,,,,,
,,,,,,,,,,,,,,,776,2022-01-31_18h28.25.169,multiplicationStroop,2021.2.3,MacIntel,60.0024001,,,,,left,1,0.4521,0,37,37,5,1,4,3,4 | 3,1,1.9756,1.4111,congruent,left,,,,,,stimulusFile/physical.xlsx,,,,,,,,,,,,,,,,,,,,,,,,,,,,,,,
,,,,,,,,,,,,,,,776,2022-01-31_18h28.25.169,multiplicationStroop,2021.2.3,MacIntel,60.0024001,,,,,left,1,0.5065,0,38,38,21,1,7,2,7 | 2,5,1.9756,1.4111,congruent,left,,,,,,stimulusFile/physical.xlsx,,,,,,,,,,,,,,,,,,,,,,,,,,,,,,,
,,,,,,,,,,,,,,,776,2022-01-31_18h28.25.169,multiplicationStroop,2021.2.3,MacIntel,60.0024001,,,,,right,1,0.4168,0,39,39,0,1,1,2,1 | 2,1,1.4111,1.9756,congruent,right,,,,,,stimulusFile/physical.xlsx,,,,,,,,,,,,,,,,,,,,,,,,,,,,,,,
,,,,,,,,,,,,,,,776,2022-01-31_18h28.25.169,multiplicationStroop,2021.2.3,MacIntel,60.0024001,,,,,left,1,0.343,0,40,40,35,1,7,9,7 | 9,2,1.9756,1.4111,incongruent,left,,,,,,stimulusFile/physical.xlsx,,,,,,,,,,,,,,,,,,,,,,,,,,,,,,,
,,,,,,,,,,,,,,,776,2022-01-31_18h28.25.169,multiplicationStroop,2021.2.3,MacIntel,60.0024001,,,,,left,1,0.6007,0,41,41,4,1,2,1,2 | 1,1,1.9756,1.4111,congruent,left,,,,,,stimulusFile/physical.xlsx,,,,,,,,,,,,,,,,,,,,,,,,,,,,,,,
,,,,,,,,,,,,,,,776,2022-01-31_18h28.25.169,multiplicationStroop,2021.2.3,MacIntel,60.0024001,,,,,left,1,0.462,0,42,42,22,1,8,3,8 | 3,5,1.9756,1.4111,congruent,left,,,,,,stimulusFile/physical.xlsx,,,,,,,,,,,,,,,,,,,,,,,,,,,,,,,
,,,,,,,,,,,,,,,776,2022-01-31_18h28.25.169,multiplicationStroop,2021.2.3,MacIntel,60.0024001,,,,,right,1,0.6631,0,43,43,31,1,9,8,9 | 8,1,1.4111,1.9756,incongruent,right,,,,,,stimulusFile/physical.xlsx,,,,,,,,,,,,,,,,,,,,,,,,,,,,,,,
,,,,,,,,,,,,,,,776,2022-01-31_18h28.25.169,multiplicationStroop,2021.2.3,MacIntel,60.0024001,,,,,left,1,0.5311,0,44,44,43,1,4,9,4 | 9,5,1.9756,1.4111,incongruent,left,,,,,,stimulusFile/physical.xlsx,,,,,,,,,,,,,,,,,,,,,,,,,,,,,,,
,,,,,,,,,,,,,,,776,2022-01-31_18h28.25.169,multiplicationStroop,2021.2.3,MacIntel,60.0024001,,,,,left,1,0.5501,0,45,45,41,1,2,7,2 | 7,5,1.9756,1.4111,incongruent,left,,,,,,stimulusFile/physical.xlsx,,,,,,,,,,,,,,,,,,,,,,,,,,,,,,,
,,,,,,,,,,,,,,,776,2022-01-31_18h28.25.169,multiplicationStroop,2021.2.3,MacIntel,60.0024001,,,,,left,1,0.4447,0,46,46,26,1,6,7,6 | 7,1,1.9756,1.4111,incongruent,left,,,,,,stimulusFile/physical.xlsx,,,,,,,,,,,,,,,,,,,,,,,,,,,,,,,
,,,,,,,,,,,,,,,776,2022-01-31_18h28.25.169,multiplicationStroop,2021.2.3,MacIntel,60.0024001,,,,,right,1,0.4842,0,47,47,19,1,4,9,4 | 9,5,1.4111,1.9756,congruent,right,,,,,,stimulusFile/physical.xlsx,,,,,,,,,,,,,,,,,,,,,,,,,,,,,,,
,,,,,,,,,,,,,,,776,2022-01-31_18h28.25.169,multiplicationStroop,2021.2.3,MacIntel,60.0024001,,,,,right,1,0.5178,0,48,48,61,1,4,4,4 | 4,0,1.4111,1.9756,neutral,right,,,,,,stimulusFile/physical.xlsx,,,,,,,,,,,,,,,,,,,,,,,,,,,,,,,
,,,,,,,,,,,,,,,776,2022-01-31_18h28.25.169,multiplicationStroop,2021.2.3,MacIntel,60.0024001,,,,,right,0,0.5619,0,49,49,69,1,7,7,7 | 7,0,1.4111,1.9756,neutral,left,,,,,,stimulusFile/physical.xlsx,,,,,,,,,,,,,,,,,,,,,,,,,,,,,,,
,,,,,,,,,,,,,,,776,2022-01-31_18h28.25.169,multiplicationStroop,2021.2.3,MacIntel,60.0024001,,,,,right,1,0.6917,0,50,50,28,1,2,1,2 | 1,1,1.4111,1.9756,incongruent,right,,,,,,stimulusFile/physical.xlsx,,,,,,,,,,,,,,,,,,,,,,,,,,,,,,,
,,,,,,,,,,,,,,,776,2022-01-31_18h28.25.169,multiplicationStroop,2021.2.3,MacIntel,60.0024001,,,,,right,1,0.4451,0,51,51,38,1,8,6,8 | 6,2,1.4111,1.9756,incongruent,right,,,,,,stimulusFile/physical.xlsx,,,,,,,,,,,,,,,,,,,,,,,,,,,,,,,
,,,,,,,,,,,,,,,776,2022-01-31_18h28.25.169,multiplicationStroop,2021.2.3,MacIntel,60.0024001,,,,,right,1,0.5645,0,52,52,2,1,6,7,6 | 7,1,1.4111,1.9756,congruent,right,,,,,,stimulusFile/physical.xlsx,,,,,,,,,,,,,,,,,,,,,,,,,,,,,,,
,,,,,,,,,,,,,,,776,2022-01-31_18h28.25.169,multiplicationStroop,2021.2.3,MacIntel,60.0024001,,,,,right,1,0.6324,0,53,53,16,1,1,6,1 | 6,5,1.4111,1.9756,congruent,right,,,,,,stimulusFile/physical.xlsx,,,,,,,,,,,,,,,,,,,,,,,,,,,,,,,
,,,,,,,,,,,,,,,776,2022-01-31_18h28.25.169,multiplicationStroop,2021.2.3,MacIntel,60.0024001,,,,,left,1,0.5348,0,54,54,15,1,9,7,9 | 7,2,1.9756,1.4111,congruent,left,,,,,,stimulusFile/physical.xlsx,,,,,,,,,,,,,,,,,,,,,,,,,,,,,,,
,,,,,,,,,,,,,,,776,2022-01-31_18h28.25.169,multiplicationStroop,2021.2.3,MacIntel,60.0024001,,,,,right,1,0.5542,0,55,55,1,1,3,4,3 | 4,1,1.4111,1.9756,congruent,right,,,,,,stimulusFile/physical.xlsx,,,,,,,,,,,,,,,,,,,,,,,,,,,,,,,
,,,,,,,,,,,,,,,776,2022-01-31_18h28.25.169,multiplicationStroop,2021.2.3,MacIntel,60.0024001,,,,,right,1,0.5366,0,56,56,39,1,9,7,9 | 7,2,1.4111,1.9756,incongruent,right,,,,,,stimulusFile/physical.xlsx,,,,,,,,,,,,,,,,,,,,,,,,,,,,,,,
,,,,,,,,,,,,,,,776,2022-01-31_18h28.25.169,multiplicationStroop,2021.2.3,MacIntel,60.0024001,,,,,right,1,0.6123,0,57,57,36,1,3,1,3 | 1,2,1.4111,1.9756,incongruent,right,,,,,,stimulusFile/physical.xlsx,,,,,,,,,,,,,,,,,,,,,,,,,,,,,,,
,,,,,,,,,,,,,,,776,2022-01-31_18h28.25.169,multiplicationStroop,2021.2.3,MacIntel,60.0024001,,,,,right,1,0.4893,0,58,58,67,1,4,4,4 | 4,0,1.4111,1.9756,neutral,right,,,,,,stimulusFile/physical.xlsx,,,,,,,,,,,,,,,,,,,,,,,,,,,,,,,
,,,,,,,,,,,,,,,776,2022-01-31_18h28.25.169,multiplicationStroop,2021.2.3,MacIntel,60.0024001,,,,,right,1,0.4657,0,59,59,45,1,7,2,7 | 2,5,1.4111,1.9756,incongruent,right,,,,,,stimulusFile/physical.xlsx,,,,,,,,,,,,,,,,,,,,,,,,,,,,,,,
,,,,,,,,,,,,,,,776,2022-01-31_18h28.25.169,multiplicationStroop,2021.2.3,MacIntel,60.0024001,,,,,right,1,0.5163,0,60,60,18,1,3,8,3 | 8,5,1.4111,1.9756,congruent,right,,,,,,stimulusFile/physical.xlsx,,,,,,,,,,,,,,,,,,,,,,,,,,,,,,,
,,,,,,,,,,,,,,,776,2022-01-31_18h28.25.169,multiplicationStroop,2021.2.3,MacIntel,60.0024001,,,,,right,1,0.3635,0,61,61,60,1,3,3,3 | 3,0,1.4111,1.9756,neutral,right,,,,,,stimulusFile/physical.xlsx,,,,,,,,,,,,,,,,,,,,,,,,,,,,,,,
,,,,,,,,,,,,,,,776,2022-01-31_18h28.25.169,multiplicationStroop,2021.2.3,MacIntel,60.0024001,,,,,left,1,0.7727,0,62,62,68,1,6,6,6 | 6,0,1.9756,1.4111,neutral,left,,,,,,stimulusFile/physical.xlsx,,,,,,,,,,,,,,,,,,,,,,,,,,,,,,,
,,,,,,,,,,,,,,,776,2022-01-31_18h28.25.169,multiplicationStroop,2021.2.3,MacIntel,60.0024001,,,,,left,1,0.6527,0,63,63,14,1,8,6,8 | 6,2,1.9756,1.4111,congruent,left,,,,,,stimulusFile/physical.xlsx,,,,,,,,,,,,,,,,,,,,,,,,,,,,,,,
,,,,,,,,,,,,,,,776,2022-01-31_18h28.25.169,multiplicationStroop,2021.2.3,MacIntel,60.0024001,,,,,right,1,0.4077,0,64,64,57,1,2,2,2 | 2,0,1.4111,1.9756,neutral,right,,,,,,stimulusFile/physical.xlsx,,,,,,,,,,,,,,,,,,,,,,,,,,,,,,,
,,,,,,,,,,,,,,,776,2022-01-31_18h28.25.169,multiplicationStroop,2021.2.3,MacIntel,60.0024001,,,,,left,0,0.4978,0,65,65,64,1,1,1,1 | 1,0,1.9756,1.4111,neutral,right,,,,,,stimulusFile/physical.xlsx,,,,,,,,,,,,,,,,,,,,,,,,,,,,,,,
,,,,,,,,,,,,,,,776,2022-01-31_18h28.25.169,multiplicationStroop,2021.2.3,MacIntel,60.0024001,,,,,right,1,0.4699,0,66,66,46,1,8,3,8 | 3,5,1.4111,1.9756,incongruent,right,,,,,,stimulusFile/physical.xlsx,,,,,,,,,,,,,,,,,,,,,,,,,,,,,,,
,,,,,,,,,,,,,,,776,2022-01-31_18h28.25.169,multiplicationStroop,2021.2.3,MacIntel,60.0024001,,,,,left,1,0.3947,0,67,67,55,1,9,9,9 | 9,0,1.9756,1.4111,neutral,left,,,,,,stimulusFile/physical.xlsx,,,,,,,,,,,,,,,,,,,,,,,,,,,,,,,
,,,,,,,,,,,,,,,776,2022-01-31_18h28.25.169,multiplicationStroop,2021.2.3,MacIntel,60.0024001,,,,,right,1,0.4008,0,68,68,37,1,4,2,4 | 2,2,1.4111,1.9756,incongruent,right,,,,,,stimulusFile/physical.xlsx,,,,,,,,,,,,,,,,,,,,,,,,,,,,,,,
,,,,,,,,,,,,,,,776,2022-01-31_18h28.25.169,multiplicationStroop,2021.2.3,MacIntel,60.0024001,,,,,left,1,0.3121,0,69,69,49,1,3,3,3 | 3,0,1.9756,1.4111,neutral,left,,,,,,stimulusFile/physical.xlsx,,,,,,,,,,,,,,,,,,,,,,,,,,,,,,,
,,,,,,,,,,,,,,,776,2022-01-31_18h28.25.169,multiplicationStroop,2021.2.3,MacIntel,60.0024001,,,,,left,0,0.5554,0,70,70,66,1,3,3,3 | 3,0,1.9756,1.4111,neutral,right,,,,,,stimulusFile/physical.xlsx,,,,,,,,,,,,,,,,,,,,,,,,,,,,,,,
,,,,,,,,,,,,,,,776,2022-01-31_18h28.25.169,multiplicationStroop,2021.2.3,MacIntel,60.0024001,,,,,left,1,0.4272,0,71,71,24,1,1,2,1 | 2,1,1.9756,1.4111,incongruent,left,,,,,,stimulusFile/physical.xlsx,,,,,,,,,,,,,,,,,,,,,,,,,,,,,,,
,,,,,,,,,,,,,,,776,2022-01-31_18h28.25.169,multiplicationStroop,2021.2.3,MacIntel,60.0024001,,,,,,,,,,,,,,,,,,,,,0,0,0,1,1,stimulusFile/physical.xlsx,PHYSICALLY larger (larger font size).,images/physicallyLarger.png,,,,,,,,,,,,,,,,,,,,,,,,,,,,,
,,,,,,,,,,,,,,,776,2022-01-31_18h28.25.169,multiplicationStroop,2021.2.3,MacIntel,60.0024001,space,45.5325,space,5.6425,left,1,1.3531,0,0,0,23,1,9,4,9 | 4,5,1.9756,1.4111,congruent,left,,,,,,stimulusFile/magnitude.xlsx,,,,,,,,,,,,,,,,,,,,,,,,,,,,,,,
,,,,,,,,,,,,,,,776,2022-01-31_18h28.25.169,multiplicationStroop,2021.2.3,MacIntel,60.0024001,,,,,left,1,0.5634,0,1,1,68,1,6,1,6 | 1,5,1.6933,1.6933,neutral,left,,,,,,stimulusFile/magnitude.xlsx,,,,,,,,,,,,,,,,,,,,,,,,,,,,,,,
,,,,,,,,,,,,,,,776,2022-01-31_18h28.25.169,multiplicationStroop,2021.2.3,MacIntel,60.0024001,,,,,left,1,0.8971,0,2,2,53,1,4,3,4 | 3,1,1.6933,1.6933,neutral,left,,,,,,stimulusFile/magnitude.xlsx,,,,,,,,,,,,,,,,,,,,,,,,,,,,,,,
,,,,,,,,,,,,,,,776,2022-01-31_18h28.25.169,multiplicationStroop,2021.2.3,MacIntel,60.0024001,,,,,left,1,0.8398,0,3,3,39,1,9,7,9 | 7,2,1.4111,1.9756,incongruent,left,,,,,,stimulusFile/magnitude.xlsx,,,,,,,,,,,,,,,,,,,,,,,,,,,,,,,
,,,,,,,,,,,,,,,776,2022-01-31_18h28.25.169,multiplicationStroop,2021.2.3,MacIntel,60.0024001,,,,,right,1,0.8352,0,4,4,48,1,1,2,1 | 2,1,1.6933,1.6933,neutral,right,,,,,,stimulusFile/magnitude.xlsx,,,,,,,,,,,,,,,,,,,,,,,,,,,,,,,
,,,,,,,,,,,,,,,776,2022-01-31_18h28.25.169,multiplicationStroop,2021.2.3,MacIntel,60.0024001,,,,,right,1,0.6609,0,5,5,66,1,3,8,3 | 8,5,1.6933,1.6933,neutral,right,,,,,,stimulusFile/magnitude.xlsx,,,,,,,,,,,,,,,,,,,,,,,,,,,,,,,
,,,,,,,,,,,,,,,776,2022-01-31_18h28.25.169,multiplicationStroop,2021.2.3,MacIntel,60.0024001,,,,,left,1,0.4803,0,6,6,20,1,6,1,6 | 1,5,1.9756,1.4111,congruent,left,,,,,,stimulusFile/magnitude.xlsx,,,,,,,,,,,,,,,,,,,,,,,,,,,,,,,
,,,,,,,,,,,,,,,776,2022-01-31_18h28.25.169,multiplicationStroop,2021.2.3,MacIntel,60.0024001,,,,,right,0,0.491,0,7,7,31,1,9,8,9 | 8,1,1.4111,1.9756,incongruent,left,,,,,,stimulusFile/magnitude.xlsx,,,,,,,,,,,,,,,,,,,,,,,,,,,,,,,
,,,,,,,,,,,,,,,776,2022-01-31_18h28.25.169,multiplicationStroop,2021.2.3,MacIntel,60.0024001,,,,,right,1,1.0756,0,8,8,33,1,2,4,2 | 4,2,1.9756,1.4111,incongruent,right,,,,,,stimulusFile/magnitude.xlsx,,,,,,,,,,,,,,,,,,,,,,,,,,,,,,,
,,,,,,,,,,,,,,,776,2022-01-31_18h28.25.169,multiplicationStroop,2021.2.3,MacIntel,60.0024001,,,,,right,1,0.5696,0,9,9,51,1,8,9,8 | 9,1,1.6933,1.6933,neutral,right,,,,,,stimulusFile/magnitude.xlsx,,,,,,,,,,,,,,,,,,,,,,,,,,,,,,,
,,,,,,,,,,,,,,,776,2022-01-31_18h28.25.169,multiplicationStroop,2021.2.3,MacIntel,60.0024001,,,,,left,1,0.563,0,10,10,38,1,8,6,8 | 6,2,1.4111,1.9756,incongruent,left,,,,,,stimulusFile/magnitude.xlsx,,,,,,,,,,,,,,,,,,,,,,,,,,,,,,,
,,,,,,,,,,,,,,,776,2022-01-31_18h28.25.169,multiplicationStroop,2021.2.3,MacIntel,60.0024001,,,,,right,1,0.682,0,11,11,9,1,2,4,2 | 4,2,1.4111,1.9756,congruent,right,,,,,,stimulusFile/magnitude.xlsx,,,,,,,,,,,,,,,,,,,,,,,,,,,,,,,
,,,,,,,,,,,,,,,776,2022-01-31_18h28.25.169,multiplicationStroop,2021.2.3,MacIntel,60.0024001,,,,,right,1,0.5392,0,12,12,16,1,1,6,1 | 6,5,1.4111,1.9756,congruent,right,,,,,,stimulusFile/magnitude.xlsx,,,,,,,,,,,,,,,,,,,,,,,,,,,,,,,
,,,,,,,,,,,,,,,776,2022-01-31_18h28.25.169,multiplicationStroop,2021.2.3,MacIntel,60.0024001,,,,,left,1,0.9552,0,13,13,5,1,4,3,4 | 3,1,1.9756,1.4111,congruent,left,,,,,,stimulusFile/magnitude.xlsx,,,,,,,,,,,,,,,,,,,,,,,,,,,,,,,
,,,,,,,,,,,,,,,776,2022-01-31_18h28.25.169,multiplicationStroop,2021.2.3,MacIntel,60.0024001,,,,,right,1,0.5903,0,14,14,57,1,2,4,2 | 4,2,1.6933,1.6933,neutral,right,,,,,,stimulusFile/magnitude.xlsx,,,,,,,,,,,,,,,,,,,,,,,,,,,,,,,
,,,,,,,,,,,,,,,776,2022-01-31_18h28.25.169,multiplicationStroop,2021.2.3,MacIntel,60.0024001,,,,,right,1,0.9586,0,15,15,35,1,7,9,7 | 9,2,1.9756,1.4111,incongruent,right,,,,,,stimulusFile/magnitude.xlsx,,,,,,,,,,,,,,,,,,,,,,,,,,,,,,,
,,,,,,,,,,,,,,,776,2022-01-31_18h28.25.169,multiplicationStroop,2021.2.3,MacIntel,60.0024001,,,,,left,0,0.7138,0,16,16,1,1,3,4,3 | 4,1,1.4111,1.9756,congruent,right,,,,,,stimulusFile/magnitude.xlsx,,,,,,,,,,,,,,,,,,,,,,,,,,,,,,,
,,,,,,,,,,,,,,,776,2022-01-31_18h28.25.169,multiplicationStroop,2021.2.3,MacIntel,60.0024001,,,,,left,1,1.395,0,17,17,52,1,2,1,2 | 1,1,1.6933,1.6933,neutral,left,,,,,,stimulusFile/magnitude.xlsx,,,,,,,,,,,,,,,,,,,,,,,,,,,,,,,
,,,,,,,,,,,,,,,776,2022-01-31_18h28.25.169,multiplicationStroop,2021.2.3,MacIntel,60.0024001,,,,,left,1,0.5465,0,18,18,21,1,7,2,7 | 2,5,1.9756,1.4111,congruent,left,,,,,,stimulusFile/magnitude.xlsx,,,,,,,,,,,,,,,,,,,,,,,,,,,,,,,
,,,,,,,,,,,,,,,776,2022-01-31_18h28.25.169,multiplicationStroop,2021.2.3,MacIntel,60.0024001,,,,,left,1,0.7023,0,19,19,61,1,4,2,4 | 2,2,1.6933,1.6933,neutral,left,,,,,,stimulusFile/magnitude.xlsx,,,,,,,,,,,,,,,,,,,,,,,,,,,,,,,
,,,,,,,,,,,,,,,776,2022-01-31_18h28.25.169,multiplicationStroop,2021.2.3,MacIntel,60.0024001,,,,,left,0,0.4278,0,20,20,34,1,6,8,6 | 8,2,1.9756,1.4111,incongruent,right,,,,,,stimulusFile/magnitude.xlsx,,,,,,,,,,,,,,,,,,,,,,,,,,,,,,,
,,,,,,,,,,,,,,,776,2022-01-31_18h28.25.169,multiplicationStroop,2021.2.3,MacIntel,60.0024001,,,,,left,1,0.6635,0,21,21,55,1,9,8,9 | 8,1,1.6933,1.6933,neutral,left,,,,,,stimulusFile/magnitude.xlsx,,,,,,,,,,,,,,,,,,,,,,,,,,,,,,,
,,,,,,,,,,,,,,,776,2022-01-31_18h28.25.169,multiplicationStroop,2021.2.3,MacIntel,60.0024001,,,,,left,1,0.7793,0,22,22,37,1,4,2,4 | 2,2,1.4111,1.9756,incongruent,left,,,,,,stimulusFile/magnitude.xlsx,,,,,,,,,,,,,,,,,,,,,,,,,,,,,,,
,,,,,,,,,,,,,,,776,2022-01-31_18h28.25.169,multiplicationStroop,2021.2.3,MacIntel,60.0024001,,,,,right,1,0.5962,0,23,23,27,1,8,9,8 | 9,1,1.9756,1.4111,incongruent,right,,,,,,stimulusFile/magnitude.xlsx,,,,,,,,,,,,,,,,,,,,,,,,,,,,,,,
,,,,,,,,,,,,,,,776,2022-01-31_18h28.25.169,multiplicationStroop,2021.2.3,MacIntel,60.0024001,,,,,right,1,1.1625,0,24,24,0,1,1,2,1 | 2,1,1.4111,1.9756,congruent,right,,,,,,stimulusFile/magnitude.xlsx,,,,,,,,,,,,,,,,,,,,,,,,,,,,,,,
,,,,,,,,,,,,,,,776,2022-01-31_18h28.25.169,multiplicationStroop,2021.2.3,MacIntel,60.0024001,,,,,right,1,0.5516,0,25,25,18,1,3,8,3 | 8,5,1.4111,1.9756,congruent,right,,,,,,stimulusFile/magnitude.xlsx,,,,,,,,,,,,,,,,,,,,,,,,,,,,,,,
,,,,,,,,,,,,,,,776,2022-01-31_18h28.25.169,multiplicationStroop,2021.2.3,MacIntel,60.0024001,,,,,right,1,0.7286,0,26,26,65,1,2,7,2 | 7,5,1.6933,1.6933,neutral,right,,,,,,stimulusFile/magnitude.xlsx,,,,,,,,,,,,,,,,,,,,,,,,,,,,,,,
,,,,,,,,,,,,,,,776,2022-01-31_18h28.25.169,multiplicationStroop,2021.2.3,MacIntel,60.0024001,,,,,right,1,0.5875,0,27,27,59,1,7,9,7 | 9,2,1.6933,1.6933,neutral,right,,,,,,stimulusFile/magnitude.xlsx,,,,,,,,,,,,,,,,,,,,,,,,,,,,,,,
,,,,,,,,,,,,,,,776,2022-01-31_18h28.25.169,multiplicationStroop,2021.2.3,MacIntel,60.0024001,,,,,left,1,0.5776,0,28,28,71,1,9,4,9 | 4,5,1.6933,1.6933,neutral,left,,,,,,stimulusFile/magnitude.xlsx,,,,,,,,,,,,,,,,,,,,,,,,,,,,,,,
,,,,,,,,,,,,,,,776,2022-01-31_18h28.25.169,multiplicationStroop,2021.2.3,MacIntel,60.0024001,,,,,right,1,0.8962,0,29,29,41,1,2,7,2 | 7,5,1.9756,1.4111,incongruent,right,,,,,,stimulusFile/magnitude.xlsx,,,,,,,,,,,,,,,,,,,,,,,,,,,,,,,
,,,,,,,,,,,,,,,776,2022-01-31_18h28.25.169,multiplicationStroop,2021.2.3,MacIntel,60.0024001,,,,,right,1,0.63,0,30,30,25,1,3,4,3 | 4,1,1.9756,1.4111,incongruent,right,,,,,,stimulusFile/magnitude.xlsx,,,,,,,,,,,,,,,,,,,,,,,,,,,,,,,
,,,,,,,,,,,,,,,776,2022-01-31_18h28.25.169,multiplicationStroop,2021.2.3,MacIntel,60.0024001,,,,,left,1,0.5784,0,31,31,29,1,4,3,4 | 3,1,1.4111,1.9756,incongruent,left,,,,,,stimulusFile/magnitude.xlsx,,,,,,,,,,,,,,,,,,,,,,,,,,,,,,,
,,,,,,,,,,,,,,,776,2022-01-31_18h28.25.169,multiplicationStroop,2021.2.3,MacIntel,60.0024001,,,,,right,1,0.5548,0,32,32,2,1,6,7,6 | 7,1,1.4111,1.9756,congruent,right,,,,,,stimulusFile/magnitude.xlsx,,,,,,,,,,,,,,,,,,,,,,,,,,,,,,,
,,,,,,,,,,,,,,,776,2022-01-31_18h28.25.169,multiplicationStroop,2021.2.3,MacIntel,60.0024001,,,,,right,1,0.5348,0,33,33,19,1,4,9,4 | 9,5,1.4111,1.9756,congruent,right,,,,,,stimulusFile/magnitude.xlsx,,,,,,,,,,,,,,,,,,,,,,,,,,,,,,,
,,,,,,,,,,,,,,,776,2022-01-31_18h28.25.169,multiplicationStroop,2021.2.3,MacIntel,60.0024001,,,,,left,1,0.5622,0,34,34,7,1,9,8,9 | 8,1,1.9756,1.4111,congruent,left,,,,,,stimulusFile/magnitude.xlsx,,,,,,,,,,,,,,,,,,,,,,,,,,,,,,,
,,,,,,,,,,,,,,,776,2022-01-31_18h28.25.169,multiplicationStroop,2021.2.3,MacIntel,60.0024001,,,,,left,1,0.5374,0,35,35,54,1,7,6,7 | 6,1,1.6933,1.6933,neutral,left,,,,,,stimulusFile/magnitude.xlsx,,,,,,,,,,,,,,,,,,,,,,,,,,,,,,,
,,,,,,,,,,,,,,,776,2022-01-31_18h28.25.169,multiplicationStroop,2021.2.3,MacIntel,60.0024001,,,,,left,1,0.6469,0,36,36,60,1,3,1,3 | 1,2,1.6933,1.6933,neutral,left,,,,,,stimulusFile/magnitude.xlsx,,,,,,,,,,,,,,,,,,,,,,,,,,,,,,,
,,,,,,,,,,,,,,,776,2022-01-31_18h28.25.169,multiplicationStroop,2021.2.3,MacIntel,60.0024001,,,,,left,1,0.4698,0,37,37,70,1,8,3,8 | 3,5,1.6933,1.6933,neutral,left,,,,,,stimulusFile/magnitude.xlsx,,,,,,,,,,,,,,,,,,,,,,,,,,,,,,,
,,,,,,,,,,,,,,,776,2022-01-31_18h28.25.169,multiplicationStroop,2021.2.3,MacIntel,60.0024001,,,,,left,1,0.6776,0,38,38,63,1,9,7,9 | 7,2,1.6933,1.6933,neutral,left,,,,,,stimulusFile/magnitude.xlsx,,,,,,,,,,,,,,,,,,,,,,,,,,,,,,,
,,,,,,,,,,,,,,,776,2022-01-31_18h28.25.169,multiplicationStroop,2021.2.3,MacIntel,60.0024001,,,,,left,1,0.6497,0,39,39,4,1,2,1,2 | 1,1,1.9756,1.4111,congruent,left,,,,,,stimulusFile/magnitude.xlsx,,,,,,,,,,,,,,,,,,,,,,,,,,,,,,,
,,,,,,,,,,,,,,,776,2022-01-31_18h28.25.169,multiplicationStroop,2021.2.3,MacIntel,60.0024001,,,,,right,1,0.7007,0,40,40,43,1,4,9,4 | 9,5,1.9756,1.4111,incongruent,right,,,,,,stimulusFile/magnitude.xlsx,,,,,,,,,,,,,,,,,,,,,,,,,,,,,,,
,,,,,,,,,,,,,,,776,2022-01-31_18h28.25.169,multiplicationStroop,2021.2.3,MacIntel,60.0024001,,,,,left,1,0.5995,0,41,41,36,1,3,1,3 | 1,2,1.4111,1.9756,incongruent,left,,,,,,stimulusFile/magnitude.xlsx,,,,,,,,,,,,,,,,,,,,,,,,,,,,,,,
,,,,,,,,,,,,,,,776,2022-01-31_18h28.25.169,multiplicationStroop,2021.2.3,MacIntel,60.0024001,,,,,right,1,0.5411,0,42,42,67,1,4,9,4 | 9,5,1.6933,1.6933,neutral,right,,,,,,stimulusFile/magnitude.xlsx,,,,,,,,,,,,,,,,,,,,,,,,,,,,,,,
,,,,,,,,,,,,,,,776,2022-01-31_18h28.25.169,multiplicationStroop,2021.2.3,MacIntel,60.0024001,,,,,right,1,0.5416,0,43,43,64,1,1,6,1 | 6,5,1.6933,1.6933,neutral,right,,,,,,stimulusFile/magnitude.xlsx,,,,,,,,,,,,,,,,,,,,,,,,,,,,,,,
,,,,,,,,,,,,,,,776,2022-01-31_18h28.25.169,multiplicationStroop,2021.2.3,MacIntel,60.0024001,,,,,left,1,0.6836,0,44,44,44,1,6,1,6 | 1,5,1.4111,1.9756,incongruent,left,,,,,,stimulusFile/magnitude.xlsx,,,,,,,,,,,,,,,,,,,,,,,,,,,,,,,
,,,,,,,,,,,,,,,776,2022-01-31_18h28.25.169,multiplicationStroop,2021.2.3,MacIntel,60.0024001,,,,,left,1,0.5448,0,45,45,69,1,7,2,7 | 2,5,1.6933,1.6933,neutral,left,,,,,,stimulusFile/magnitude.xlsx,,,,,,,,,,,,,,,,,,,,,,,,,,,,,,,
,,,,,,,,,,,,,,,776,2022-01-31_18h28.25.169,multiplicationStroop,2021.2.3,MacIntel,60.0024001,,,,,left,1,0.5703,0,46,46,14,1,8,6,8 | 6,2,1.9756,1.4111,congruent,left,,,,,,stimulusFile/magnitude.xlsx,,,,,,,,,,,,,,,,,,,,,,,,,,,,,,,
,,,,,,,,,,,,,,,776,2022-01-31_18h28.25.169,multiplicationStroop,2021.2.3,MacIntel,60.0024001,,,,,right,1,0.6482,0,47,47,56,1,1,3,1 | 3,2,1.6933,1.6933,neutral,right,,,,,,stimulusFile/magnitude.xlsx,,,,,,,,,,,,,,,,,,,,,,,,,,,,,,,
,,,,,,,,,,,,,,,776,2022-01-31_18h28.25.169,multiplicationStroop,2021.2.3,MacIntel,60.0024001,,,,,right,1,0.6873,0,48,48,42,1,3,8,3 | 8,5,1.9756,1.4111,incongruent,right,,,,,,stimulusFile/magnitude.xlsx,,,,,,,,,,,,,,,,,,,,,,,,,,,,,,,
,,,,,,,,,,,,,,,776,2022-01-31_18h28.25.169,multiplicationStroop,2021.2.3,MacIntel,60.0024001,,,,,right,1,0.8105,0,49,49,32,1,1,3,1 | 3,2,1.9756,1.4111,incongruent,right,,,,,,stimulusFile/magnitude.xlsx,,,,,,,,,,,,,,,,,,,,,,,,,,,,,,,
,,,,,,,,,,,,,,,776,2022-01-31_18h28.25.169,multiplicationStroop,2021.2.3,MacIntel,60.0024001,,,,,left,1,0.5649,0,50,50,28,1,2,1,2 | 1,1,1.4111,1.9756,incongruent,left,,,,,,stimulusFile/magnitude.xlsx,,,,,,,,,,,,,,,,,,,,,,,,,,,,,,,
,,,,,,,,,,,,,,,776,2022-01-31_18h28.25.169,multiplicationStroop,2021.2.3,MacIntel,60.0024001,,,,,left,1,0.6469,0,51,51,15,1,9,7,9 | 7,2,1.9756,1.4111,congruent,left,,,,,,stimulusFile/magnitude.xlsx,,,,,,,,,,,,,,,,,,,,,,,,,,,,,,,
,,,,,,,,,,,,,,,776,2022-01-31_18h28.25.169,multiplicationStroop,2021.2.3,MacIntel,60.0024001,,,,,right,1,0.5287,0,52,52,40,1,1,6,1 | 6,5,1.9756,1.4111,incongruent,right,,,,,,stimulusFile/magnitude.xlsx,,,,,,,,,,,,,,,,,,,,,,,,,,,,,,,
,,,,,,,,,,,,,,,776,2022-01-31_18h28.25.169,multiplicationStroop,2021.2.3,MacIntel,60.0024001,,,,,right,1,0.494,0,53,53,8,1,1,3,1 | 3,2,1.4111,1.9756,congruent,right,,,,,,stimulusFile/magnitude.xlsx,,,,,,,,,,,,,,,,,,,,,,,,,,,,,,,
,,,,,,,,,,,,,,,776,2022-01-31_18h28.25.169,multiplicationStroop,2021.2.3,MacIntel,60.0024001,,,,,left,1,0.5352,0,54,54,22,1,8,3,8 | 3,5,1.9756,1.4111,congruent,left,,,,,,stimulusFile/magnitude.xlsx,,,,,,,,,,,,,,,,,,,,,,,,,,,,,,,
,,,,,,,,,,,,,,,776,2022-01-31_18h28.25.169,multiplicationStroop,2021.2.3,MacIntel,60.0024001,,,,,right,1,0.6473,0,55,55,50,1,6,7,6 | 7,1,1.6933,1.6933,neutral,right,,,,,,stimulusFile/magnitude.xlsx,,,,,,,,,,,,,,,,,,,,,,,,,,,,,,,
,,,,,,,,,,,,,,,776,2022-01-31_18h28.25.169,multiplicationStroop,2021.2.3,MacIntel,60.0024001,,,,,right,1,0.4782,0,56,56,17,1,2,7,2 | 7,5,1.4111,1.9756,congruent,right,,,,,,stimulusFile/magnitude.xlsx,,,,,,,,,,,,,,,,,,,,,,,,,,,,,,,
,,,,,,,,,,,,,,,776,2022-01-31_18h28.25.169,multiplicationStroop,2021.2.3,MacIntel,60.0024001,,,,,right,1,0.8069,0,57,57,26,1,6,7,6 | 7,1,1.9756,1.4111,incongruent,right,,,,,,stimulusFile/magnitude.xlsx,,,,,,,,,,,,,,,,,,,,,,,,,,,,,,,
,,,,,,,,,,,,,,,776,2022-01-31_18h28.25.169,multiplicationStroop,2021.2.3,MacIntel,60.0024001,,,,,left,1,0.6161,0,58,58,12,1,3,1,3 | 1,2,1.9756,1.4111,congruent,left,,,,,,stimulusFile/magnitude.xlsx,,,,,,,,,,,,,,,,,,,,,,,,,,,,,,,
,,,,,,,,,,,,,,,776,2022-01-31_18h28.25.169,multiplicationStroop,2021.2.3,MacIntel,60.0024001,,,,,right,1,0.6782,0,59,59,24,1,1,2,1 | 2,1,1.9756,1.4111,incongruent,right,,,,,,stimulusFile/magnitude.xlsx,,,,,,,,,,,,,,,,,,,,,,,,,,,,,,,
,,,,,,,,,,,,,,,776,2022-01-31_18h28.25.169,multiplicationStroop,2021.2.3,MacIntel,60.0024001,,,,,left,1,0.8306,0,60,60,6,1,7,6,7 | 6,1,1.9756,1.4111,congruent,left,,,,,,stimulusFile/magnitude.xlsx,,,,,,,,,,,,,,,,,,,,,,,,,,,,,,,
,,,,,,,,,,,,,,,776,2022-01-31_18h28.25.169,multiplicationStroop,2021.2.3,MacIntel,60.0024001,,,,,right,1,0.5328,0,61,61,3,1,8,9,8 | 9,1,1.4111,1.9756,congruent,right,,,,,,stimulusFile/magnitude.xlsx,,,,,,,,,,,,,,,,,,,,,,,,,,,,,,,
,,,,,,,,,,,,,,,776,2022-01-31_18h28.25.169,multiplicationStroop,2021.2.3,MacIntel,60.0024001,,,,,left,1,0.6621,0,62,62,62,1,8,6,8 | 6,2,1.6933,1.6933,neutral,left,,,,,,stimulusFile/magnitude.xlsx,,,,,,,,,,,,,,,,,,,,,,,,,,,,,,,
,,,,,,,,,,,,,,,776,2022-01-31_18h28.25.169,multiplicationStroop,2021.2.3,MacIntel,60.0024001,,,,,right,1,0.7787,0,63,63,49,1,3,4,3 | 4,1,1.6933,1.6933,neutral,right,,,,,,stimulusFile/magnitude.xlsx,,,,,,,,,,,,,,,,,,,,,,,,,,,,,,,
,,,,,,,,,,,,,,,776,2022-01-31_18h28.25.169,multiplicationStroop,2021.2.3,MacIntel,60.0024001,,,,,left,1,0.6,0,64,64,46,1,8,3,8 | 3,5,1.4111,1.9756,incongruent,left,,,,,,stimulusFile/magnitude.xlsx,,,,,,,,,,,,,,,,,,,,,,,,,,,,,,,
,,,,,,,,,,,,,,,776,2022-01-31_18h28.25.169,multiplicationStroop,2021.2.3,MacIntel,60.0024001,,,,,right,1,0.5432,0,65,65,58,1,6,8,6 | 8,2,1.6933,1.6933,neutral,right,,,,,,stimulusFile/magnitude.xlsx,,,,,,,,,,,,,,,,,,,,,,,,,,,,,,,
,,,,,,,,,,,,,,,776,2022-01-31_18h28.25.169,multiplicationStroop,2021.2.3,MacIntel,60.0024001,,,,,left,1,0.6133,0,66,66,30,1,7,6,7 | 6,1,1.4111,1.9756,incongruent,left,,,,,,stimulusFile/magnitude.xlsx,,,,,,,,,,,,,,,,,,,,,,,,,,,,,,,
,,,,,,,,,,,,,,,776,2022-01-31_18h28.25.169,multiplicationStroop,2021.2.3,MacIntel,60.0024001,,,,,right,1,0.494,0,67,67,10,1,6,8,6 | 8,2,1.4111,1.9756,congruent,right,,,,,,stimulusFile/magnitude.xlsx,,,,,,,,,,,,,,,,,,,,,,,,,,,,,,,
,,,,,,,,,,,,,,,776,2022-01-31_18h28.25.169,multiplicationStroop,2021.2.3,MacIntel,60.0024001,,,,,right,1,0.7323,0,68,68,11,1,7,9,7 | 9,2,1.4111,1.9756,congruent,right,,,,,,stimulusFile/magnitude.xlsx,,,,,,,,,,,,,,,,,,,,,,,,,,,,,,,
,,,,,,,,,,,,,,,776,2022-01-31_18h28.25.169,multiplicationStroop,2021.2.3,MacIntel,60.0024001,,,,,left,1,0.612,0,69,69,47,1,9,4,9 | 4,5,1.4111,1.9756,incongruent,left,,,,,,stimulusFile/magnitude.xlsx,,,,,,,,,,,,,,,,,,,,,,,,,,,,,,,
,,,,,,,,,,,,,,,776,2022-01-31_18h28.25.169,multiplicationStroop,2021.2.3,MacIntel,60.0024001,,,,,left,1,0.5339,0,70,70,13,1,4,2,4 | 2,2,1.9756,1.4111,congruent,left,,,,,,stimulusFile/magnitude.xlsx,,,,,,,,,,,,,,,,,,,,,,,,,,,,,,,
,,,,,,,,,,,,,,,776,2022-01-31_18h28.25.169,multiplicationStroop,2021.2.3,MacIntel,60.0024001,,,,,left,1,0.6151,0,71,71,45,1,7,2,7 | 2,5,1.4111,1.9756,incongruent,left,,,,,,stimulusFile/magnitude.xlsx,,,,,,,,,,,,,,,,,,,,,,,,,,,,,,,
,,,,,,,,,,,,,,,776,2022-01-31_18h28.25.169,multiplicationStroop,2021.2.3,MacIntel,60.0024001,,,,,,,,,,,,,,,,,,,,,0,1,1,0,1,stimulusFile/magnitude.xlsx,NUMERICALLY larger (larger coefficient).,images/numericallyLarger.png,,,,,,,,,,,,,,,,,,,,,,,,,,,,,
,,,,,,,,,,,,,,,776,2022-01-31_18h28.25.169,multiplicationStroop,2021.2.3,MacIntel,60.0024001,,,,,,,,,,,,,,,,,,,,,,,,,,,,,space,3.5999,space,1.3806,35,4.1535,1,0,0,0,15,1,7,×,5,7 × 5,congruent,largerFirst,2,1,35,,,,,,,,
,,,,,,,,,,,,,,,776,2022-01-31_18h28.25.169,multiplicationStroop,2021.2.3,MacIntel,60.0024001,,,,,,,,,,,,,,,,,,,,,,,,,,,,,,,,,6,2,1,0,1,1,27,1,3,×,2,3 × 2,congruent,largerFirst,2,1,6,,,,,,,,
,,,,,,,,,,,,,,,776,2022-01-31_18h28.25.169,multiplicationStroop,2021.2.3,MacIntel,60.0024001,,,,,,,,,,,,,,,,,,,,,,,,,,,,,,,,,40,2.4501,1,0,2,2,20,1,8,×,5,8 × 5,congruent,largerFirst,2,1,40,,,,,,,,
,,,,,,,,,,,,,,,776,2022-01-31_18h28.25.169,multiplicationStroop,2021.2.3,MacIntel,60.0024001,,,,,,,,,,,,,,,,,,,,,,,,,,,,,,,,,27,2.3175,1,0,3,3,12,1,3,×,9,3 × 9,congruent,smallerFirst,1,2,27,,,,,,,,
,,,,,,,,,,,,,,,776,2022-01-31_18h28.25.169,multiplicationStroop,2021.2.3,MacIntel,60.0024001,,,,,,,,,,,,,,,,,,,,,,,,,,,,,,,,,16,1.7812,1,0,4,4,19,1,8,×,2,8 × 2,congruent,largerFirst,2,1,16,,,,,,,,
,,,,,,,,,,,,,,,776,2022-01-31_18h28.25.169,multiplicationStroop,2021.2.3,MacIntel,60.0024001,,,,,,,,,,,,,,,,,,,,,,,,,,,,,,,,,30,1.883,1,0,5,5,1,1,5,×,6,5 × 6,congruent,smallerFirst,1,2,30,,,,,,,,
,,,,,,,,,,,,,,,776,2022-01-31_18h28.25.169,multiplicationStroop,2021.2.3,MacIntel,60.0024001,,,,,,,,,,,,,,,,,,,,,,,,,,,,,,,,,14,1.6494,1,0,6,6,0,1,2,×,7,2 × 7,congruent,smallerFirst,1,2,14,,,,,,,,
,,,,,,,,,,,,,,,776,2022-01-31_18h28.25.169,multiplicationStroop,2021.2.3,MacIntel,60.0024001,,,,,,,,,,,,,,,,,,,,,,,,,,,,,,,,,32,6.0331,1,0,7,7,6,1,4,×,8,4 × 8,congruent,smallerFirst,1,2,32,,,,,,,,
,,,,,,,,,,,,,,,776,2022-01-31_18h28.25.169,multiplicationStroop,2021.2.3,MacIntel,60.0024001,,,,,,,,,,,,,,,,,,,,,,,,,,,,,,,,,36,5.3714,1,0,8,8,14,1,9,×,4,9 × 4,congruent,largerFirst,2,1,36,,,,,,,,
,,,,,,,,,,,,,,,776,2022-01-31_18h28.25.169,multiplicationStroop,2021.2.3,MacIntel,60.0024001,,,,,,,,,,,,,,,,,,,,,,,,,,,,,,,,,54,2.0848,1,0,9,9,26,1,9,×,6,9 × 6,congruent,largerFirst,2,1,54,,,,,,,,
,,,,,,,,,,,,,,,776,2022-01-31_18h28.25.169,multiplicationStroop,2021.2.3,MacIntel,60.0024001,,,,,,,,,,,,,,,,,,,,,,,,,,,,,,,,,48,4.4525,1,0,10,10,4,1,6,×,8,6 × 8,congruent,smallerFirst,1,2,48,,,,,,,,
,,,,,,,,,,,,,,,776,2022-01-31_18h28.25.169,multiplicationStroop,2021.2.3,MacIntel,60.0024001,,,,,,,,,,,,,,,,,,,,,,,,,,,,,,,,,12,1.9183,1,0,11,11,16,1,4,×,3,4 × 3,congruent,largerFirst,2,1,12,,,,,,,,
,,,,,,,,,,,,,,,776,2022-01-31_18h28.25.169,multiplicationStroop,2021.2.3,MacIntel,60.0024001,,,,,,,,,,,,,,,,,,,,,,,,,,,,,,,,,8,1.9168,1,0,12,12,23,1,4,×,2,4 × 2,congruent,largerFirst,2,1,8,,,,,,,,
,,,,,,,,,,,,,,,776,2022-01-31_18h28.25.169,multiplicationStroop,2021.2.3,MacIntel,60.0024001,,,,,,,,,,,,,,,,,,,,,,,,,,,,,,,,,12,1.3655,1,0,13,13,5,1,2,×,6,2 × 6,congruent,smallerFirst,1,2,12,,,,,,,,
,,,,,,,,,,,,,,,776,2022-01-31_18h28.25.169,multiplicationStroop,2021.2.3,MacIntel,60.0024001,,,,,,,,,,,,,,,,,,,,,,,,,,,,,,,,,72,3.767,1,0,14,14,3,1,8,×,9,8 × 9,congruent,smallerFirst,1,2,72,,,,,,,,
,,,,,,,,,,,,,,,776,2022-01-31_18h28.25.169,multiplicationStroop,2021.2.3,MacIntel,60.0024001,,,,,,,,,,,,,,,,,,,,,,,,,,,,,,,,,49,2.3195,1,0,15,15,33,1,7,×,7,7 × 7,neutral,tie,1,2,49,,,,,,,,
,,,,,,,,,,,,,,,776,2022-01-31_18h28.25.169,multiplicationStroop,2021.2.3,MacIntel,60.0024001,,,,,,,,,,,,,,,,,,,,,,,,,,,,,,,,,21,2.1832,1,0,16,16,2,1,3,×,7,3 × 7,congruent,smallerFirst,1,2,21,,,,,,,,
,,,,,,,,,,,,,,,776,2022-01-31_18h28.25.169,multiplicationStroop,2021.2.3,MacIntel,60.0024001,,,,,,,,,,,,,,,,,,,,,,,,,,,,,,,,,4,1.4704,1,0,17,17,28,1,2,×,2,2 × 2,neutral,tie,1,2,4,,,,,,,,
,,,,,,,,,,,,,,,776,2022-01-31_18h28.25.169,multiplicationStroop,2021.2.3,MacIntel,60.0024001,,,,,,,,,,,,,,,,,,,,,,,,,,,,,,,,,24,3.9994,1,0,18,18,11,1,4,×,6,4 × 6,congruent,smallerFirst,1,2,24,,,,,,,,
,,,,,,,,,,,,,,,776,2022-01-31_18h28.25.169,multiplicationStroop,2021.2.3,MacIntel,60.0024001,,,,,,,,,,,,,,,,,,,,,,,,,,,,,,,,,28,2.3038,1,0,19,19,13,1,4,×,7,4 × 7,congruent,smallerFirst,1,2,28,,,,,,,,
,,,,,,,,,,,,,,,776,2022-01-31_18h28.25.169,multiplicationStroop,2021.2.3,MacIntel,60.0024001,,,,,,,,,,,,,,,,,,,,,,,,,,,,,,,,,63,3.8144,1,0,20,20,7,1,7,×,9,7 × 9,congruent,smallerFirst,1,2,63,,,,,,,,
,,,,,,,,,,,,,,,776,2022-01-31_18h28.25.169,multiplicationStroop,2021.2.3,MacIntel,60.0024001,,,,,,,,,,,,,,,,,,,,,,,,,,,,,,,,,18,2.4839,1,0,21,21,25,1,6,×,3,6 × 3,congruent,largerFirst,2,1,18,,,,,,,,
,,,,,,,,,,,,,,,776,2022-01-31_18h28.25.169,multiplicationStroop,2021.2.3,MacIntel,60.0024001,,,,,,,,,,,,,,,,,,,,,,,,,,,,,,,,,10,1.5994,1,0,22,22,10,1,2,×,5,2 × 5,congruent,smallerFirst,1,2,10,,,,,,,,
,,,,,,,,,,,,,,,776,2022-01-31_18h28.25.169,multiplicationStroop,2021.2.3,MacIntel,60.0024001,,,,,,,,,,,,,,,,,,,,,,,,,,,,,,,,,18,2.1002,1,0,23,23,8,1,2,×,9,2 × 9,congruent,smallerFirst,1,2,18,,,,,,,,
,,,,,,,,,,,,,,,776,2022-01-31_18h28.25.169,multiplicationStroop,2021.2.3,MacIntel,60.0024001,,,,,,,,,,,,,,,,,,,,,,,,,,,,,,,,,36,1.8987,1,0,24,24,32,1,6,×,6,6 × 6,neutral,tie,1,2,36,,,,,,,,
,,,,,,,,,,,,,,,776,2022-01-31_18h28.25.169,multiplicationStroop,2021.2.3,MacIntel,60.0024001,,,,,,,,,,,,,,,,,,,,,,,,,,,,,,,,,81,4.6829,1,0,25,25,35,1,9,×,9,9 × 9,neutral,tie,1,2,81,,,,,,,,
,,,,,,,,,,,,,,,776,2022-01-31_18h28.25.169,multiplicationStroop,2021.2.3,MacIntel,60.0024001,,,,,,,,,,,,,,,,,,,,,,,,,,,,,,,,,15,1.9356,1,0,26,26,18,1,5,×,3,5 × 3,congruent,largerFirst,2,1,15,,,,,,,,
,,,,,,,,,,,,,,,776,2022-01-31_18h28.25.169,multiplicationStroop,2021.2.3,MacIntel,60.0024001,,,,,,,,,,,,,,,,,,,,,,,,,,,,,,,,,16,4.0172,1,0,27,27,30,1,4,×,4,4 × 4,neutral,tie,1,2,16,,,,,,,,
,,,,,,,,,,,,,,,776,2022-01-31_18h28.25.169,multiplicationStroop,2021.2.3,MacIntel,60.0024001,,,,,,,,,,,,,,,,,,,,,,,,,,,,,,,,,45,1.9524,1,0,28,28,9,1,5,×,9,5 × 9,congruent,smallerFirst,1,2,45,,,,,,,,
,,,,,,,,,,,,,,,776,2022-01-31_18h28.25.169,multiplicationStroop,2021.2.3,MacIntel,60.0024001,,,,,,,,,,,,,,,,,,,,,,,,,,,,,,,,,42,2.4826,1,0,29,29,17,1,7,×,6,7 × 6,congruent,largerFirst,2,1,42,,,,,,,,
,,,,,,,,,,,,,,,776,2022-01-31_18h28.25.169,multiplicationStroop,2021.2.3,MacIntel,60.0024001,,,,,,,,,,,,,,,,,,,,,,,,,,,,,,,,,20,1.8332,1,0,30,30,21,1,5,×,4,5 × 4,congruent,largerFirst,2,1,20,,,,,,,,
,,,,,,,,,,,,,,,776,2022-01-31_18h28.25.169,multiplicationStroop,2021.2.3,MacIntel,60.0024001,,,,,,,,,,,,,,,,,,,,,,,,,,,,,,,,,9,1.4991,1,0,31,31,29,1,3,×,3,3 × 3,neutral,tie,1,2,9,,,,,,,,
,,,,,,,,,,,,,,,776,2022-01-31_18h28.25.169,multiplicationStroop,2021.2.3,MacIntel,60.0024001,,,,,,,,,,,,,,,,,,,,,,,,,,,,,,,,,56,3.3503,1,0,32,32,22,1,8,×,7,8 × 7,congruent,largerFirst,2,1,56,,,,,,,,
,,,,,,,,,,,,,,,776,2022-01-31_18h28.25.169,multiplicationStroop,2021.2.3,MacIntel,60.0024001,,,,,,,,,,,,,,,,,,,,,,,,,,,,,,,,,24,8.6841,1,0,33,33,24,1,8,×,3,8 × 3,congruent,largerFirst,2,1,24,,,,,,,,
,,,,,,,,,,,,,,,776,2022-01-31_18h28.25.169,multiplicationStroop,2021.2.3,MacIntel,60.0024001,,,,,,,,,,,,,,,,,,,,,,,,,,,,,,,,,25,1.7675,1,0,34,34,31,1,5,×,5,5 × 5,neutral,tie,1,2,25,,,,,,,,
,,,,,,,,,,,,,,,776,2022-01-31_18h28.25.169,multiplicationStroop,2021.2.3,MacIntel,60.0024001,,,,,,,,,,,,,,,,,,,,,,,,,,,,,,,,,64,2.6149,1,0,35,35,34,1,8,×,8,8 × 8,neutral,tie,1,2,64,,,,,,,,
,,,,,,,,,,,,,,,776,2022-01-31_18h28.25.169,multiplicationStroop,2021.2.3,MacIntel,60.0024001,,,,,,,,,,,,,,,,,,,,,,,,,,,,,,,,,,,,,,,,,,,,,,,,,,0,0,0,3,1,stimulusFile/mult_blk4_congruent.xlsx,,
,,,,,,,,,,,,,,,776,2022-01-31_18h28.25.169,multiplicationStroop,2021.2.3,MacIntel,60.0024001,,,,,,,,,,,,,,,,,,,,,,,,,,,,,,,space,1.3338,8,2.0733,0,0,0,0,35,1,9,×,9,9 × 9,neutral,tie,1.5,1.5,81,,,,,,,,
,,,,,,,,,,,,,,,776,2022-01-31_18h28.25.169,multiplicationStroop,2021.2.3,MacIntel,60.0024001,,,,,,,,,,,,,,,,,,,,,,,,,,,,,,,,,25,3.4322,1,0,1,1,31,1,5,×,5,5 × 5,neutral,tie,1.5,1.5,25,,,,,,,,
,,,,,,,,,,,,,,,776,2022-01-31_18h28.25.169,multiplicationStroop,2021.2.3,MacIntel,60.0024001,,,,,,,,,,,,,,,,,,,,,,,,,,,,,,,,,20,2.9664,1,0,2,2,6,1,4,×,5,4 × 5,neutral,smallerFirst,1.5,1.5,20,,,,,,,,
,,,,,,,,,,,,,,,776,2022-01-31_18h28.25.169,multiplicationStroop,2021.2.3,MacIntel,60.0024001,,,,,,,,,,,,,,,,,,,,,,,,,,,,,,,,,9,1.3869,1,0,3,3,29,1,3,×,3,3 × 3,neutral,tie,1.5,1.5,9,,,,,,,,
,,,,,,,,,,,,,,,776,2022-01-31_18h28.25.169,multiplicationStroop,2021.2.3,MacIntel,60.0024001,,,,,,,,,,,,,,,,,,,,,,,,,,,,,,,,,4,1.4996,1,0,4,4,28,1,2,×,2,2 × 2,neutral,tie,1.5,1.5,4,,,,,,,,
,,,,,,,,,,,,,,,776,2022-01-31_18h28.25.169,multiplicationStroop,2021.2.3,MacIntel,60.0024001,,,,,,,,,,,,,,,,,,,,,,,,,,,,,,,,,12,1.5661,1,0,5,5,11,1,2,×,6,2 × 6,neutral,smallerFirst,1.5,1.5,12,,,,,,,,
,,,,,,,,,,,,,,,776,2022-01-31_18h28.25.169,multiplicationStroop,2021.2.3,MacIntel,60.0024001,,,,,,,,,,,,,,,,,,,,,,,,,,,,,,,,,24,4.6663,0,0,6,6,9,1,4,×,8,4 × 8,neutral,smallerFirst,1.5,1.5,32,,,,,,,,
,,,,,,,,,,,,,,,776,2022-01-31_18h28.25.169,multiplicationStroop,2021.2.3,MacIntel,60.0024001,,,,,,,,,,,,,,,,,,,,,,,,,,,,,,,,,14,4.4538,1,0,7,7,2,1,2,×,7,2 × 7,neutral,smallerFirst,1.5,1.5,14,,,,,,,,
,,,,,,,,,,,,,,,776,2022-01-31_18h28.25.169,multiplicationStroop,2021.2.3,MacIntel,60.0024001,,,,,,,,,,,,,,,,,,,,,,,,,,,,,,,,,56,1.8627,1,0,8,8,23,1,8,×,7,8 × 7,neutral,largerFirst,1.5,1.5,56,,,,,,,,
,,,,,,,,,,,,,,,776,2022-01-31_18h28.25.169,multiplicationStroop,2021.2.3,MacIntel,60.0024001,,,,,,,,,,,,,,,,,,,,,,,,,,,,,,,,,24,3.136,1,0,9,9,8,1,3,×,8,3 × 8,neutral,smallerFirst,1.5,1.5,24,,,,,,,,
,,,,,,,,,,,,,,,776,2022-01-31_18h28.25.169,multiplicationStroop,2021.2.3,MacIntel,60.0024001,,,,,,,,,,,,,,,,,,,,,,,,,,,,,,,,,63,3.9589,1,0,10,10,26,1,9,×,7,9 × 7,neutral,largerFirst,1.5,1.5,63,,,,,,,,
,,,,,,,,,,,,,,,776,2022-01-31_18h28.25.169,multiplicationStroop,2021.2.3,MacIntel,60.0024001,,,,,,,,,,,,,,,,,,,,,,,,,,,,,,,,,6,1.4865,1,0,11,11,12,1,2,×,3,2 × 3,neutral,smallerFirst,1.5,1.5,6,,,,,,,,
,,,,,,,,,,,,,,,776,2022-01-31_18h28.25.169,multiplicationStroop,2021.2.3,MacIntel,60.0024001,,,,,,,,,,,,,,,,,,,,,,,,,,,,,,,,,28,4.2019,1,0,12,12,3,1,4,×,7,4 × 7,neutral,smallerFirst,1.5,1.5,28,,,,,,,,
,,,,,,,,,,,,,,,776,2022-01-31_18h28.25.169,multiplicationStroop,2021.2.3,MacIntel,60.0024001,,,,,,,,,,,,,,,,,,,,,,,,,,,,,,,,,16,2.9812,1,0,13,13,30,1,4,×,4,4 × 4,neutral,tie,1.5,1.5,16,,,,,,,,
,,,,,,,,,,,,,,,776,2022-01-31_18h28.25.169,multiplicationStroop,2021.2.3,MacIntel,60.0024001,,,,,,,,,,,,,,,,,,,,,,,,,,,,,,,,,10,1.6005,1,0,14,14,18,1,5,×,2,5 × 2,neutral,largerFirst,1.5,1.5,10,,,,,,,,
,,,,,,,,,,,,,,,776,2022-01-31_18h28.25.169,multiplicationStroop,2021.2.3,MacIntel,60.0024001,,,,,,,,,,,,,,,,,,,,,,,,,,,,,,,,,36,1.8502,1,0,15,15,13,1,4,×,9,4 × 9,neutral,smallerFirst,1.5,1.5,36,,,,,,,,
,,,,,,,,,,,,,,,776,2022-01-31_18h28.25.169,multiplicationStroop,2021.2.3,MacIntel,60.0024001,,,,,,,,,,,,,,,,,,,,,,,,,,,,,,,,,7,3.9536,0,0,16,16,0,1,3,×,9,3 × 9,neutral,smallerFirst,1.5,1.5,27,,,,,,,,
,,,,,,,,,,,,,,,776,2022-01-31_18h28.25.169,multiplicationStroop,2021.2.3,MacIntel,60.0024001,,,,,,,,,,,,,,,,,,,,,,,,,,,,,,,,,56,4.7044,0,0,17,17,21,1,9,×,6,9 × 6,neutral,largerFirst,1.5,1.5,54,,,,,,,,
,,,,,,,,,,,,,,,776,2022-01-31_18h28.25.169,multiplicationStroop,2021.2.3,MacIntel,60.0024001,,,,,,,,,,,,,,,,,,,,,,,,,,,,,,,,,12,1.3524,1,0,18,18,7,1,3,×,4,3 × 4,neutral,smallerFirst,1.5,1.5,12,,,,,,,,
,,,,,,,,,,,,,,,776,2022-01-31_18h28.25.169,multiplicationStroop,2021.2.3,MacIntel,60.0024001,,,,,,,,,,,,,,,,,,,,,,,,,,,,,,,,,40,1.8489,1,0,19,19,10,1,5,×,8,5 × 8,neutral,smallerFirst,1.5,1.5,40,,,,,,,,
,,,,,,,,,,,,,,,776,2022-01-31_18h28.25.169,multiplicationStroop,2021.2.3,MacIntel,60.0024001,,,,,,,,,,,,,,,,,,,,,,,,,,,,,,,,,18,1.9666,1,0,20,20,4,1,2,×,9,2 × 9,neutral,smallerFirst,1.5,1.5,18,,,,,,,,
,,,,,,,,,,,,,,,776,2022-01-31_18h28.25.169,multiplicationStroop,2021.2.3,MacIntel,60.0024001,,,,,,,,,,,,,,,,,,,,,,,,,,,,,,,,,30,2.783,1,0,21,21,5,1,5,×,6,5 × 6,neutral,smallerFirst,1.5,1.5,30,,,,,,,,
,,,,,,,,,,,,,,,776,2022-01-31_18h28.25.169,multiplicationStroop,2021.2.3,MacIntel,60.0024001,,,,,,,,,,,,,,,,,,,,,,,,,,,,,,,,,72,3.4999,1,0,22,22,25,1,9,×,8,9 × 8,neutral,largerFirst,1.5,1.5,72,,,,,,,,
,,,,,,,,,,,,,,,776,2022-01-31_18h28.25.169,multiplicationStroop,2021.2.3,MacIntel,60.0024001,,,,,,,,,,,,,,,,,,,,,,,,,,,,,,,,,15,1.5697,1,0,23,23,19,1,5,×,3,5 × 3,neutral,largerFirst,1.5,1.5,15,,,,,,,,
,,,,,,,,,,,,,,,776,2022-01-31_18h28.25.169,multiplicationStroop,2021.2.3,MacIntel,60.0024001,,,,,,,,,,,,,,,,,,,,,,,,,,,,,,,,,5,2.1669,0,0,24,24,24,1,9,×,5,9 × 5,neutral,largerFirst,1.5,1.5,45,,,,,,,,
,,,,,,,,,,,,,,,776,2022-01-31_18h28.25.169,multiplicationStroop,2021.2.3,MacIntel,60.0024001,,,,,,,,,,,,,,,,,,,,,,,,,,,,,,,,,21,2.0154,1,0,25,25,22,1,7,×,3,7 × 3,neutral,largerFirst,1.5,1.5,21,,,,,,,,
,,,,,,,,,,,,,,,776,2022-01-31_18h28.25.169,multiplicationStroop,2021.2.3,MacIntel,60.0024001,,,,,,,,,,,,,,,,,,,,,,,,,,,,,,,,,35,2.2172,1,0,26,26,15,1,7,×,5,7 × 5,neutral,largerFirst,1.5,1.5,35,,,,,,,,
,,,,,,,,,,,,,,,776,2022-01-31_18h28.25.169,multiplicationStroop,2021.2.3,MacIntel,60.0024001,,,,,,,,,,,,,,,,,,,,,,,,,,,,,,,,,8,1.6489,1,0,27,27,17,1,4,×,2,4 × 2,neutral,largerFirst,1.5,1.5,8,,,,,,,,
,,,,,,,,,,,,,,,776,2022-01-31_18h28.25.169,multiplicationStroop,2021.2.3,MacIntel,60.0024001,,,,,,,,,,,,,,,,,,,,,,,,,,,,,,,,,42,2.6332,1,0,28,28,20,1,7,×,6,7 × 6,neutral,largerFirst,1.5,1.5,42,,,,,,,,
,,,,,,,,,,,,,,,776,2022-01-31_18h28.25.169,multiplicationStroop,2021.2.3,MacIntel,60.0024001,,,,,,,,,,,,,,,,,,,,,,,,,,,,,,,,,49,1.7657,1,0,29,29,33,1,7,×,7,7 × 7,neutral,tie,1.5,1.5,49,,,,,,,,
,,,,,,,,,,,,,,,776,2022-01-31_18h28.25.169,multiplicationStroop,2021.2.3,MacIntel,60.0024001,,,,,,,,,,,,,,,,,,,,,,,,,,,,,,,,,48,2.05,1,0,30,30,1,1,6,×,8,6 × 8,neutral,smallerFirst,1.5,1.5,48,,,,,,,,
,,,,,,,,,,,,,,,776,2022-01-31_18h28.25.169,multiplicationStroop,2021.2.3,MacIntel,60.0024001,,,,,,,,,,,,,,,,,,,,,,,,,,,,,,,,,24,2.8158,1,0,31,31,16,1,6,×,4,6 × 4,neutral,largerFirst,1.5,1.5,24,,,,,,,,
,,,,,,,,,,,,,,,776,2022-01-31_18h28.25.169,multiplicationStroop,2021.2.3,MacIntel,60.0024001,,,,,,,,,,,,,,,,,,,,,,,,,,,,,,,,,64,3.3658,1,0,32,32,34,1,8,×,8,8 × 8,neutral,tie,1.5,1.5,64,,,,,,,,
,,,,,,,,,,,,,,,776,2022-01-31_18h28.25.169,multiplicationStroop,2021.2.3,MacIntel,60.0024001,,,,,,,,,,,,,,,,,,,,,,,,,,,,,,,,,16,1.6203,1,0,33,33,27,1,8,×,2,8 × 2,neutral,largerFirst,1.5,1.5,16,,,,,,,,
,,,,,,,,,,,,,,,776,2022-01-31_18h28.25.169,multiplicationStroop,2021.2.3,MacIntel,60.0024001,,,,,,,,,,,,,,,,,,,,,,,,,,,,,,,,,18,5.6304,1,0,34,34,14,1,6,×,3,6 × 3,neutral,largerFirst,1.5,1.5,18,,,,,,,,
,,,,,,,,,,,,,,,776,2022-01-31_18h28.25.169,multiplicationStroop,2021.2.3,MacIntel,60.0024001,,,,,,,,,,,,,,,,,,,,,,,,,,,,,,,,,36,3.6524,1,0,35,35,32,1,6,×,6,6 × 6,neutral,tie,1.5,1.5,36,,,,,,,,
,,,,,,,,,,,,,,,776,2022-01-31_18h28.25.169,multiplicationStroop,2021.2.3,MacIntel,60.0024001,,,,,,,,,,,,,,,,,,,,,,,,,,,,,,,,,,,,,,,,,,,,,,,,,,0,1,1,0,1,stimulusFile/mult_blk1.xlsx,,
,,,,,,,,,,,,,,,776,2022-01-31_18h28.25.169,multiplicationStroop,2021.2.3,MacIntel,60.0024001,,,,,,,,,,,,,,,,,,,,,,,,,,,,,,,space,1.4055,18,4.9391,1,0,0,0,8,1,3,×,6,3 × 6,incongruent,smallerFirst,2,1,18,,,,,,,,
,,,,,,,,,,,,,,,776,2022-01-31_18h28.25.169,multiplicationStroop,2021.2.3,MacIntel,60.0024001,,,,,,,,,,,,,,,,,,,,,,,,,,,,,,,,,48,1.9674,1,0,1,1,1,1,6,×,8,6 × 8,incongruent,smallerFirst,2,1,48,,,,,,,,
,,,,,,,,,,,,,,,776,2022-01-31_18h28.25.169,multiplicationStroop,2021.2.3,MacIntel,60.0024001,,,,,,,,,,,,,,,,,,,,,,,,,,,,,,,,,25,1.5502,1,0,2,2,31,1,5,×,5,5 × 5,incongruent,tie,1,2,25,,,,,,,,
,,,,,,,,,,,,,,,776,2022-01-31_18h28.25.169,multiplicationStroop,2021.2.3,MacIntel,60.0024001,,,,,,,,,,,,,,,,,,,,,,,,,,,,,,,,,24,2.8993,1,0,3,3,9,1,3,×,8,3 × 8,incongruent,smallerFirst,2,1,24,,,,,,,,
,,,,,,,,,,,,,,,776,2022-01-31_18h28.25.169,multiplicationStroop,2021.2.3,MacIntel,60.0024001,,,,,,,,,,,,,,,,,,,,,,,,,,,,,,,,,42,1.9824,1,0,4,4,17,1,7,×,6,7 × 6,incongruent,largerFirst,1,2,42,,,,,,,,
,,,,,,,,,,,,,,,776,2022-01-31_18h28.25.169,multiplicationStroop,2021.2.3,MacIntel,60.0024001,,,,,,,,,,,,,,,,,,,,,,,,,,,,,,,,,45,1.533,1,0,5,5,22,1,9,×,5,9 × 5,incongruent,largerFirst,1,2,45,,,,,,,,
,,,,,,,,,,,,,,,776,2022-01-31_18h28.25.169,multiplicationStroop,2021.2.3,MacIntel,60.0024001,,,,,,,,,,,,,,,,,,,,,,,,,,,,,,,,,18,1.9493,1,0,6,6,2,1,2,×,9,2 × 9,incongruent,smallerFirst,2,1,18,,,,,,,,
,,,,,,,,,,,,,,,776,2022-01-31_18h28.25.169,multiplicationStroop,2021.2.3,MacIntel,60.0024001,,,,,,,,,,,,,,,,,,,,,,,,,,,,,,,,,35,1.8665,1,0,7,7,12,1,5,×,7,5 × 7,incongruent,smallerFirst,2,1,35,,,,,,,,
,,,,,,,,,,,,,,,776,2022-01-31_18h28.25.169,multiplicationStroop,2021.2.3,MacIntel,60.0024001,,,,,,,,,,,,,,,,,,,,,,,,,,,,,,,,,14,2.3162,1,0,8,8,4,1,2,×,7,2 × 7,incongruent,smallerFirst,2,1,14,,,,,,,,
,,,,,,,,,,,,,,,776,2022-01-31_18h28.25.169,multiplicationStroop,2021.2.3,MacIntel,60.0024001,,,,,,,,,,,,,,,,,,,,,,,,,,,,,,,,,63,2.5173,1,0,9,9,3,1,7,×,9,7 × 9,incongruent,smallerFirst,2,1,63,,,,,,,,
,,,,,,,,,,,,,,,776,2022-01-31_18h28.25.169,multiplicationStroop,2021.2.3,MacIntel,60.0024001,,,,,,,,,,,,,,,,,,,,,,,,,,,,,,,,,12,1.4646,1,0,10,10,5,1,3,×,4,3 × 4,incongruent,smallerFirst,2,1,12,,,,,,,,
,,,,,,,,,,,,,,,776,2022-01-31_18h28.25.169,multiplicationStroop,2021.2.3,MacIntel,60.0024001,,,,,,,,,,,,,,,,,,,,,,,,,,,,,,,,,12,1.9994,1,0,11,11,19,1,6,×,2,6 × 2,incongruent,largerFirst,1,2,12,,,,,,,,
,,,,,,,,,,,,,,,776,2022-01-31_18h28.25.169,multiplicationStroop,2021.2.3,MacIntel,60.0024001,,,,,,,,,,,,,,,,,,,,,,,,,,,,,,,,,27,3.3997,1,0,12,12,18,1,9,×,3,9 × 3,incongruent,largerFirst,1,2,27,,,,,,,,
,,,,,,,,,,,,,,,776,2022-01-31_18h28.25.169,multiplicationStroop,2021.2.3,MacIntel,60.0024001,,,,,,,,,,,,,,,,,,,,,,,,,,,,,,,,,28,2.753,1,0,13,13,16,1,7,×,4,7 × 4,incongruent,largerFirst,1,2,28,,,,,,,,
,,,,,,,,,,,,,,,776,2022-01-31_18h28.25.169,multiplicationStroop,2021.2.3,MacIntel,60.0024001,,,,,,,,,,,,,,,,,,,,,,,,,,,,,,,,,30,1.9833,1,0,14,14,25,1,6,×,5,6 × 5,incongruent,largerFirst,1,2,30,,,,,,,,
,,,,,,,,,,,,,,,776,2022-01-31_18h28.25.169,multiplicationStroop,2021.2.3,MacIntel,60.0024001,,,,,,,,,,,,,,,,,,,,,,,,,,,,,,,,,64,2.1997,1,0,15,15,34,1,8,×,8,8 × 8,incongruent,tie,1,2,64,,,,,,,,
,,,,,,,,,,,,,,,776,2022-01-31_18h28.25.169,multiplicationStroop,2021.2.3,MacIntel,60.0024001,,,,,,,,,,,,,,,,,,,,,,,,,,,,,,,,,15,1.5663,1,0,16,16,10,1,3,×,5,3 × 5,incongruent,smallerFirst,2,1,15,,,,,,,,
,,,,,,,,,,,,,,,776,2022-01-31_18h28.25.169,multiplicationStroop,2021.2.3,MacIntel,60.0024001,,,,,,,,,,,,,,,,,,,,,,,,,,,,,,,,,32,4.1651,1,0,17,17,7,1,4,×,8,4 × 8,incongruent,smallerFirst,2,1,32,,,,,,,,
,,,,,,,,,,,,,,,776,2022-01-31_18h28.25.169,multiplicationStroop,2021.2.3,MacIntel,60.0024001,,,,,,,,,,,,,,,,,,,,,,,,,,,,,,,,,36,1.8028,1,0,18,18,32,1,6,×,6,6 × 6,incongruent,tie,1,2,36,,,,,,,,
,,,,,,,,,,,,,,,776,2022-01-31_18h28.25.169,multiplicationStroop,2021.2.3,MacIntel,60.0024001,,,,,,,,,,,,,,,,,,,,,,,,,,,,,,,,,20,3.0505,1,0,19,19,27,1,5,×,4,5 × 4,incongruent,largerFirst,1,2,20,,,,,,,,
,,,,,,,,,,,,,,,776,2022-01-31_18h28.25.169,multiplicationStroop,2021.2.3,MacIntel,60.0024001,,,,,,,,,,,,,,,,,,,,,,,,,,,,,,,,,16,2.4831,1,0,20,20,23,1,8,×,2,8 × 2,incongruent,largerFirst,1,2,16,,,,,,,,
,,,,,,,,,,,,,,,776,2022-01-31_18h28.25.169,multiplicationStroop,2021.2.3,MacIntel,60.0024001,,,,,,,,,,,,,,,,,,,,,,,,,,,,,,,,,56,2.2533,1,0,21,21,14,1,8,×,7,8 × 7,incongruent,largerFirst,1,2,56,,,,,,,,
,,,,,,,,,,,,,,,776,2022-01-31_18h28.25.169,multiplicationStroop,2021.2.3,MacIntel,60.0024001,,,,,,,,,,,,,,,,,,,,,,,,,,,,,,,,,40,2.2824,1,0,22,22,13,1,5,×,8,5 × 8,incongruent,smallerFirst,2,1,40,,,,,,,,
,,,,,,,,,,,,,,,776,2022-01-31_18h28.25.169,multiplicationStroop,2021.2.3,MacIntel,60.0024001,,,,,,,,,,,,,,,,,,,,,,,,,,,,,,,,,81,2.2839,1,0,23,23,35,1,9,×,9,9 × 9,incongruent,tie,1,2,81,,,,,,,,
,,,,,,,,,,,,,,,776,2022-01-31_18h28.25.169,multiplicationStroop,2021.2.3,MacIntel,60.0024001,,,,,,,,,,,,,,,,,,,,,,,,,,,,,,,,,16,1.6652,1,0,24,24,30,1,4,×,4,4 × 4,incongruent,tie,1,2,16,,,,,,,,
,,,,,,,,,,,,,,,776,2022-01-31_18h28.25.169,multiplicationStroop,2021.2.3,MacIntel,60.0024001,,,,,,,,,,,,,,,,,,,,,,,,,,,,,,,,,21,1.4494,1,0,25,25,26,1,7,×,3,7 × 3,incongruent,largerFirst,1,2,21,,,,,,,,
,,,,,,,,,,,,,,,776,2022-01-31_18h28.25.169,multiplicationStroop,2021.2.3,MacIntel,60.0024001,,,,,,,,,,,,,,,,,,,,,,,,,,,,,,,,,24,2.6493,1,0,26,26,20,1,6,×,4,6 × 4,incongruent,largerFirst,1,2,24,,,,,,,,
,,,,,,,,,,,,,,,776,2022-01-31_18h28.25.169,multiplicationStroop,2021.2.3,MacIntel,60.0024001,,,,,,,,,,,,,,,,,,,,,,,,,,,,,,,,,6,3.0343,1,0,27,27,11,1,2,×,3,2 × 3,incongruent,smallerFirst,2,1,6,,,,,,,,
,,,,,,,,,,,,,,,776,2022-01-31_18h28.25.169,multiplicationStroop,2021.2.3,MacIntel,60.0024001,,,,,,,,,,,,,,,,,,,,,,,,,,,,,,,,,49,2.2141,1,0,28,28,33,1,7,×,7,7 × 7,incongruent,tie,1,2,49,,,,,,,,
,,,,,,,,,,,,,,,776,2022-01-31_18h28.25.169,multiplicationStroop,2021.2.3,MacIntel,60.0024001,,,,,,,,,,,,,,,,,,,,,,,,,,,,,,,,,10,1.8838,1,0,29,29,21,1,5,×,2,5 × 2,incongruent,largerFirst,1,2,10,,,,,,,,
,,,,,,,,,,,,,,,776,2022-01-31_18h28.25.169,multiplicationStroop,2021.2.3,MacIntel,60.0024001,,,,,,,,,,,,,,,,,,,,,,,,,,,,,,,,,4,1.2485,1,0,30,30,28,1,2,×,2,2 × 2,incongruent,tie,1,2,4,,,,,,,,
,,,,,,,,,,,,,,,776,2022-01-31_18h28.25.169,multiplicationStroop,2021.2.3,MacIntel,60.0024001,,,,,,,,,,,,,,,,,,,,,,,,,,,,,,,,,9,1.7988,1,0,31,31,29,1,3,×,3,3 × 3,incongruent,tie,1,2,9,,,,,,,,
,,,,,,,,,,,,,,,776,2022-01-31_18h28.25.169,multiplicationStroop,2021.2.3,MacIntel,60.0024001,,,,,,,,,,,,,,,,,,,,,,,,,,,,,,,,,72,2.1672,1,0,32,32,0,1,8,×,9,8 × 9,incongruent,smallerFirst,2,1,72,,,,,,,,
,,,,,,,,,,,,,,,776,2022-01-31_18h28.25.169,multiplicationStroop,2021.2.3,MacIntel,60.0024001,,,,,,,,,,,,,,,,,,,,,,,,,,,,,,,,,36,2.3673,1,0,33,33,15,1,9,×,4,9 × 4,incongruent,largerFirst,1,2,36,,,,,,,,
,,,,,,,,,,,,,,,776,2022-01-31_18h28.25.169,multiplicationStroop,2021.2.3,MacIntel,60.0024001,,,,,,,,,,,,,,,,,,,,,,,,,,,,,,,,,56,4.1152,0,0,34,34,6,1,6,×,9,6 × 9,incongruent,smallerFirst,2,1,54,,,,,,,,
,,,,,,,,,,,,,,,776,2022-01-31_18h28.25.169,multiplicationStroop,2021.2.3,MacIntel,60.0024001,,,,,,,,,,,,,,,,,,,,,,,,,,,,,,,,,8,1.4167,1,0,35,35,24,1,4,×,2,4 × 2,incongruent,largerFirst,1,2,8,,,,,,,,
,,,,,,,,,,,,,,,776,2022-01-31_18h28.25.169,multiplicationStroop,2021.2.3,MacIntel,60.0024001,,,,,,,,,,,,,,,,,,,,,,,,,,,,,,,,,,,,,,,,,,,,,,,,,,0,2,2,5,1,stimulusFile/mult_blk6_INcongruent.xlsx,,
,,,,,,,,,,,,,,,776,2022-01-31_18h28.25.169,multiplicationStroop,2021.2.3,MacIntel,60.0024001,,,,,,,,,,,,,,,,,,,,,,,,,,,,,,,space,25.3822,27,5.1087,1,0,0,0,4,1,3,×,9,3 × 9,incongruent,smallerFirst,2,1,27,,,,,,,,
,,,,,,,,,,,,,,,776,2022-01-31_18h28.25.169,multiplicationStroop,2021.2.3,MacIntel,60.0024001,,,,,,,,,,,,,,,,,,,,,,,,,,,,,,,,,12,2.4523,1,0,1,1,19,1,4,×,3,4 × 3,incongruent,largerFirst,1,2,12,,,,,,,,
,,,,,,,,,,,,,,,776,2022-01-31_18h28.25.169,multiplicationStroop,2021.2.3,MacIntel,60.0024001,,,,,,,,,,,,,,,,,,,,,,,,,,,,,,,,,18,1.6823,1,0,2,2,16,1,9,×,2,9 × 2,incongruent,largerFirst,1,2,18,,,,,,,,
,,,,,,,,,,,,,,,776,2022-01-31_18h28.25.169,multiplicationStroop,2021.2.3,MacIntel,60.0024001,,,,,,,,,,,,,,,,,,,,,,,,,,,,,,,,,54,3.5265,1,0,3,3,20,1,9,×,6,9 × 6,incongruent,largerFirst,1,2,54,,,,,,,,
,,,,,,,,,,,,,,,776,2022-01-31_18h28.25.169,multiplicationStroop,2021.2.3,MacIntel,60.0024001,,,,,,,,,,,,,,,,,,,,,,,,,,,,,,,,,18,3.7887,1,0,4,4,22,1,6,×,3,6 × 3,incongruent,largerFirst,1,2,18,,,,,,,,
,,,,,,,,,,,,,,,776,2022-01-31_18h28.25.169,multiplicationStroop,2021.2.3,MacIntel,60.0024001,,,,,,,,,,,,,,,,,,,,,,,,,,,,,,,,,16,1.9547,1,0,5,5,9,1,2,×,8,2 × 8,incongruent,smallerFirst,2,1,16,,,,,,,,
,,,,,,,,,,,,,,,776,2022-01-31_18h28.25.169,multiplicationStroop,2021.2.3,MacIntel,60.0024001,,,,,,,,,,,,,,,,,,,,,,,,,,,,,,,,,81,2.3156,1,0,6,6,35,1,9,×,9,9 × 9,neutral,tie,2,1,81,,,,,,,,
,,,,,,,,,,,,,,,776,2022-01-31_18h28.25.169,multiplicationStroop,2021.2.3,MacIntel,60.0024001,,,,,,,,,,,,,,,,,,,,,,,,,,,,,,,,,63,5.116,1,0,7,7,17,1,9,×,7,9 × 7,incongruent,largerFirst,1,2,63,,,,,,,,
,,,,,,,,,,,,,,,776,2022-01-31_18h28.25.169,multiplicationStroop,2021.2.3,MacIntel,60.0024001,,,,,,,,,,,,,,,,,,,,,,,,,,,,,,,,,30,1.9173,1,0,8,8,11,1,5,×,6,5 × 6,incongruent,smallerFirst,2,1,30,,,,,,,,
,,,,,,,,,,,,,,,776,2022-01-31_18h28.25.169,multiplicationStroop,2021.2.3,MacIntel,60.0024001,,,,,,,,,,,,,,,,,,,,,,,,,,,,,,,,,4,1.6816,1,0,9,9,28,1,2,×,2,2 × 2,neutral,tie,2,1,4,,,,,,,,
,,,,,,,,,,,,,,,776,2022-01-31_18h28.25.169,multiplicationStroop,2021.2.3,MacIntel,60.0024001,,,,,,,,,,,,,,,,,,,,,,,,,,,,,,,,,12,2.0841,1,0,10,10,5,1,2,×,6,2 × 6,incongruent,smallerFirst,2,1,12,,,,,,,,
,,,,,,,,,,,,,,,776,2022-01-31_18h28.25.169,multiplicationStroop,2021.2.3,MacIntel,60.0024001,,,,,,,,,,,,,,,,,,,,,,,,,,,,,,,,,35,1.7159,1,0,11,11,26,1,7,×,5,7 × 5,incongruent,largerFirst,1,2,35,,,,,,,,
,,,,,,,,,,,,,,,776,2022-01-31_18h28.25.169,multiplicationStroop,2021.2.3,MacIntel,60.0024001,,,,,,,,,,,,,,,,,,,,,,,,,,,,,,,,,48,2.3199,1,0,12,12,15,1,8,×,6,8 × 6,incongruent,largerFirst,1,2,48,,,,,,,,
,,,,,,,,,,,,,,,776,2022-01-31_18h28.25.169,multiplicationStroop,2021.2.3,MacIntel,60.0024001,,,,,,,,,,,,,,,,,,,,,,,,,,,,,,,,,25,1.746,1,0,13,13,31,1,5,×,5,5 × 5,neutral,tie,2,1,25,,,,,,,,
,,,,,,,,,,,,,,,776,2022-01-31_18h28.25.169,multiplicationStroop,2021.2.3,MacIntel,60.0024001,,,,,,,,,,,,,,,,,,,,,,,,,,,,,,,,,45,1.9492,1,0,14,14,8,1,5,×,9,5 × 9,incongruent,smallerFirst,2,1,45,,,,,,,,
,,,,,,,,,,,,,,,776,2022-01-31_18h28.25.169,multiplicationStroop,2021.2.3,MacIntel,60.0024001,,,,,,,,,,,,,,,,,,,,,,,,,,,,,,,,,9,1.5662,1,0,15,15,29,1,3,×,3,3 × 3,neutral,tie,2,1,9,,,,,,,,
,,,,,,,,,,,,,,,776,2022-01-31_18h28.25.169,multiplicationStroop,2021.2.3,MacIntel,60.0024001,,,,,,,,,,,,,,,,,,,,,,,,,,,,,,,,,10,1.9817,1,0,16,16,7,1,2,×,5,2 × 5,incongruent,smallerFirst,2,1,10,,,,,,,,
,,,,,,,,,,,,,,,776,2022-01-31_18h28.25.169,multiplicationStroop,2021.2.3,MacIntel,60.0024001,,,,,,,,,,,,,,,,,,,,,,,,,,,,,,,,,24,4.6513,1,0,17,17,23,1,8,×,3,8 × 3,incongruent,largerFirst,1,2,24,,,,,,,,
,,,,,,,,,,,,,,,776,2022-01-31_18h28.25.169,multiplicationStroop,2021.2.3,MacIntel,60.0024001,,,,,,,,,,,,,,,,,,,,,,,,,,,,,,,,,64,2.8678,1,0,18,18,34,1,8,×,8,8 × 8,neutral,tie,2,1,64,,,,,,,,
,,,,,,,,,,,,,,,776,2022-01-31_18h28.25.169,multiplicationStroop,2021.2.3,MacIntel,60.0024001,,,,,,,,,,,,,,,,,,,,,,,,,,,,,,,,,72,3.3359,1,0,19,19,14,1,9,×,8,9 × 8,incongruent,largerFirst,1,2,72,,,,,,,,
,,,,,,,,,,,,,,,776,2022-01-31_18h28.25.169,multiplicationStroop,2021.2.3,MacIntel,60.0024001,,,,,,,,,,,,,,,,,,,,,,,,,,,,,,,,,36,1.933,1,0,20,20,1,1,4,×,9,4 × 9,incongruent,smallerFirst,2,1,36,,,,,,,,
,,,,,,,,,,,,,,,776,2022-01-31_18h28.25.169,multiplicationStroop,2021.2.3,MacIntel,60.0024001,,,,,,,,,,,,,,,,,,,,,,,,,,,,,,,,,16,2.4161,1,0,21,21,30,1,4,×,4,4 × 4,neutral,tie,2,1,16,,,,,,,,
,,,,,,,,,,,,,,,776,2022-01-31_18h28.25.169,multiplicationStroop,2021.2.3,MacIntel,60.0024001,,,,,,,,,,,,,,,,,,,,,,,,,,,,,,,,,42,4.4696,1,0,22,22,3,1,6,×,7,6 × 7,incongruent,smallerFirst,2,1,42,,,,,,,,
,,,,,,,,,,,,,,,776,2022-01-31_18h28.25.169,multiplicationStroop,2021.2.3,MacIntel,60.0024001,,,,,,,,,,,,,,,,,,,,,,,,,,,,,,,,,6,1.9049,1,0,23,23,25,1,3,×,2,3 × 2,incongruent,largerFirst,1,2,6,,,,,,,,
,,,,,,,,,,,,,,,776,2022-01-31_18h28.25.169,multiplicationStroop,2021.2.3,MacIntel,60.0024001,,,,,,,,,,,,,,,,,,,,,,,,,,,,,,,,,49,1.8481,1,0,24,24,33,1,7,×,7,7 × 7,neutral,tie,2,1,49,,,,,,,,
,,,,,,,,,,,,,,,776,2022-01-31_18h28.25.169,multiplicationStroop,2021.2.3,MacIntel,60.0024001,,,,,,,,,,,,,,,,,,,,,,,,,,,,,,,,,20,2.6665,1,0,25,25,13,1,4,×,5,4 × 5,incongruent,smallerFirst,2,1,20,,,,,,,,
,,,,,,,,,,,,,,,776,2022-01-31_18h28.25.169,multiplicationStroop,2021.2.3,MacIntel,60.0024001,,,,,,,,,,,,,,,,,,,,,,,,,,,,,,,,,36,2.1163,1,0,26,26,32,1,6,×,6,6 × 6,neutral,tie,2,1,36,,,,,,,,
,,,,,,,,,,,,,,,776,2022-01-31_18h28.25.169,multiplicationStroop,2021.2.3,MacIntel,60.0024001,,,,,,,,,,,,,,,,,,,,,,,,,,,,,,,,,15,2.7321,1,0,27,27,24,1,5,×,3,5 × 3,incongruent,largerFirst,1,2,15,,,,,,,,
,,,,,,,,,,,,,,,776,2022-01-31_18h28.25.169,multiplicationStroop,2021.2.3,MacIntel,60.0024001,,,,,,,,,,,,,,,,,,,,,,,,,,,,,,,,,28,2.9662,1,0,28,28,2,1,4,×,7,4 × 7,incongruent,smallerFirst,2,1,28,,,,,,,,
,,,,,,,,,,,,,,,776,2022-01-31_18h28.25.169,multiplicationStroop,2021.2.3,MacIntel,60.0024001,,,,,,,,,,,,,,,,,,,,,,,,,,,,,,,,,24,1.7032,1,0,29,29,6,1,4,×,6,4 × 6,incongruent,smallerFirst,2,1,24,,,,,,,,
,,,,,,,,,,,,,,,776,2022-01-31_18h28.25.169,multiplicationStroop,2021.2.3,MacIntel,60.0024001,,,,,,,,,,,,,,,,,,,,,,,,,,,,,,,,,14,1.8167,1,0,30,30,18,1,7,×,2,7 × 2,incongruent,largerFirst,1,2,14,,,,,,,,
,,,,,,,,,,,,,,,776,2022-01-31_18h28.25.169,multiplicationStroop,2021.2.3,MacIntel,60.0024001,,,,,,,,,,,,,,,,,,,,,,,,,,,,,,,,,8,2.2144,1,0,31,31,10,1,2,×,4,2 × 4,incongruent,smallerFirst,2,1,8,,,,,,,,
,,,,,,,,,,,,,,,776,2022-01-31_18h28.25.169,multiplicationStroop,2021.2.3,MacIntel,60.0024001,,,,,,,,,,,,,,,,,,,,,,,,,,,,,,,,,40,1.8631,1,0,32,32,27,1,8,×,5,8 × 5,incongruent,largerFirst,1,2,40,,,,,,,,
,,,,,,,,,,,,,,,776,2022-01-31_18h28.25.169,multiplicationStroop,2021.2.3,MacIntel,60.0024001,,,,,,,,,,,,,,,,,,,,,,,,,,,,,,,,,32,5.6534,1,0,33,33,21,1,8,×,4,8 × 4,incongruent,largerFirst,1,2,32,,,,,,,,
,,,,,,,,,,,,,,,776,2022-01-31_18h28.25.169,multiplicationStroop,2021.2.3,MacIntel,60.0024001,,,,,,,,,,,,,,,,,,,,,,,,,,,,,,,,,56,1.7038,1,0,34,34,0,1,7,×,8,7 × 8,incongruent,smallerFirst,2,1,56,,,,,,,,
,,,,,,,,,,,,,,,776,2022-01-31_18h28.25.169,multiplicationStroop,2021.2.3,MacIntel,60.0024001,,,,,,,,,,,,,,,,,,,,,,,,,,,,,,,,,21,2.0152,1,0,35,35,12,1,3,×,7,3 × 7,incongruent,smallerFirst,2,1,21,,,,,,,,
,,,,,,,,,,,,,,,776,2022-01-31_18h28.25.169,multiplicationStroop,2021.2.3,MacIntel,60.0024001,,,,,,,,,,,,,,,,,,,,,,,,,,,,,,,,,,,,,,,,,,,,,,,,,,0,3,3,4,1,stimulusFile/mult_blk5_INcongruent.xlsx,,
,,,,,,,,,,,,,,,776,2022-01-31_18h28.25.169,multiplicationStroop,2021.2.3,MacIntel,60.0024001,,,,,,,,,,,,,,,,,,,,,,,,,,,,,,,space,1.6303,6,2.2896,1,0,0,0,13,1,2,×,3,2 × 3,congruent,smallerFirst,1,2,6,,,,,,,,
,,,,,,,,,,,,,,,776,2022-01-31_18h28.25.169,multiplicationStroop,2021.2.3,MacIntel,60.0024001,,,,,,,,,,,,,,,,,,,,,,,,,,,,,,,,,64,2.2653,1,0,1,1,34,1,8,×,8,8 × 8,neutral,tie,2,1,64,,,,,,,,
,,,,,,,,,,,,,,,776,2022-01-31_18h28.25.169,multiplicationStroop,2021.2.3,MacIntel,60.0024001,,,,,,,,,,,,,,,,,,,,,,,,,,,,,,,,,48,2.3693,1,0,2,2,18,1,8,×,6,8 × 6,congruent,largerFirst,2,1,48,,,,,,,,
,,,,,,,,,,,,,,,776,2022-01-31_18h28.25.169,multiplicationStroop,2021.2.3,MacIntel,60.0024001,,,,,,,,,,,,,,,,,,,,,,,,,,,,,,,,,36,2.2835,1,0,3,3,32,1,6,×,6,6 × 6,neutral,tie,2,1,36,,,,,,,,
,,,,,,,,,,,,,,,776,2022-01-31_18h28.25.169,multiplicationStroop,2021.2.3,MacIntel,60.0024001,,,,,,,,,,,,,,,,,,,,,,,,,,,,,,,,,20,1.9986,1,0,4,4,7,1,4,×,5,4 × 5,congruent,smallerFirst,1,2,20,,,,,,,,
,,,,,,,,,,,,,,,776,2022-01-31_18h28.25.169,multiplicationStroop,2021.2.3,MacIntel,60.0024001,,,,,,,,,,,,,,,,,,,,,,,,,,,,,,,,,18,2.116,1,0,5,5,22,1,9,×,2,9 × 2,congruent,largerFirst,2,1,18,,,,,,,,
,,,,,,,,,,,,,,,776,2022-01-31_18h28.25.169,multiplicationStroop,2021.2.3,MacIntel,60.0024001,,,,,,,,,,,,,,,,,,,,,,,,,,,,,,,,,25,2.5004,1,0,6,6,31,1,5,×,5,5 × 5,neutral,tie,2,1,25,,,,,,,,
,,,,,,,,,,,,,,,776,2022-01-31_18h28.25.169,multiplicationStroop,2021.2.3,MacIntel,60.0024001,,,,,,,,,,,,,,,,,,,,,,,,,,,,,,,,,27,5.0494,1,0,7,7,26,1,9,×,3,9 × 3,congruent,largerFirst,2,1,27,,,,,,,,
,,,,,,,,,,,,,,,776,2022-01-31_18h28.25.169,multiplicationStroop,2021.2.3,MacIntel,60.0024001,,,,,,,,,,,,,,,,,,,,,,,,,,,,,,,,,12,3.52,1,0,8,8,19,1,6,×,2,6 × 2,congruent,largerFirst,2,1,12,,,,,,,,
,,,,,,,,,,,,,,,776,2022-01-31_18h28.25.169,multiplicationStroop,2021.2.3,MacIntel,60.0024001,,,,,,,,,,,,,,,,,,,,,,,,,,,,,,,,,28,3.4003,1,0,9,9,27,1,7,×,4,7 × 4,congruent,largerFirst,2,1,28,,,,,,,,
,,,,,,,,,,,,,,,776,2022-01-31_18h28.25.169,multiplicationStroop,2021.2.3,MacIntel,60.0024001,,,,,,,,,,,,,,,,,,,,,,,,,,,,,,,,,63,1.9848,1,0,10,10,21,1,9,×,7,9 × 7,congruent,largerFirst,2,1,63,,,,,,,,
,,,,,,,,,,,,,,,776,2022-01-31_18h28.25.169,multiplicationStroop,2021.2.3,MacIntel,60.0024001,,,,,,,,,,,,,,,,,,,,,,,,,,,,,,,,,12,1.4157,1,0,11,11,2,1,3,×,4,3 × 4,congruent,smallerFirst,1,2,12,,,,,,,,
,,,,,,,,,,,,,,,776,2022-01-31_18h28.25.169,multiplicationStroop,2021.2.3,MacIntel,60.0024001,,,,,,,,,,,,,,,,,,,,,,,,,,,,,,,,,10,1.6162,1,0,12,12,24,1,5,×,2,5 × 2,congruent,largerFirst,2,1,10,,,,,,,,
,,,,,,,,,,,,,,,776,2022-01-31_18h28.25.169,multiplicationStroop,2021.2.3,MacIntel,60.0024001,,,,,,,,,,,,,,,,,,,,,,,,,,,,,,,,,15,2.8996,1,0,13,13,4,1,3,×,5,3 × 5,congruent,smallerFirst,1,2,15,,,,,,,,
,,,,,,,,,,,,,,,776,2022-01-31_18h28.25.169,multiplicationStroop,2021.2.3,MacIntel,60.0024001,,,,,,,,,,,,,,,,,,,,,,,,,,,,,,,,,32,4.3495,1,0,14,14,20,1,8,×,4,8 × 4,congruent,largerFirst,2,1,32,,,,,,,,
,,,,,,,,,,,,,,,776,2022-01-31_18h28.25.169,multiplicationStroop,2021.2.3,MacIntel,60.0024001,,,,,,,,,,,,,,,,,,,,,,,,,,,,,,,,,81,2.034,1,0,15,15,35,1,9,×,9,9 × 9,neutral,tie,2,1,81,,,,,,,,
,,,,,,,,,,,,,,,776,2022-01-31_18h28.25.169,multiplicationStroop,2021.2.3,MacIntel,60.0024001,,,,,,,,,,,,,,,,,,,,,,,,,,,,,,,,,42,2.7669,1,0,16,16,3,1,6,×,7,6 × 7,congruent,smallerFirst,1,2,42,,,,,,,,
,,,,,,,,,,,,,,,776,2022-01-31_18h28.25.169,multiplicationStroop,2021.2.3,MacIntel,60.0024001,,,,,,,,,,,,,,,,,,,,,,,,,,,,,,,,,16,1.8358,1,0,17,17,5,1,2,×,8,2 × 8,congruent,smallerFirst,1,2,16,,,,,,,,
,,,,,,,,,,,,,,,776,2022-01-31_18h28.25.169,multiplicationStroop,2021.2.3,MacIntel,60.0024001,,,,,,,,,,,,,,,,,,,,,,,,,,,,,,,,,49,2.3999,1,0,18,18,33,1,7,×,7,7 × 7,neutral,tie,2,1,49,,,,,,,,
,,,,,,,,,,,,,,,776,2022-01-31_18h28.25.169,multiplicationStroop,2021.2.3,MacIntel,60.0024001,,,,,,,,,,,,,,,,,,,,,,,,,,,,,,,,,56,2.5315,1,0,19,19,8,1,7,×,8,7 × 8,congruent,smallerFirst,1,2,56,,,,,,,,
,,,,,,,,,,,,,,,776,2022-01-31_18h28.25.169,multiplicationStroop,2021.2.3,MacIntel,60.0024001,,,,,,,,,,,,,,,,,,,,,,,,,,,,,,,,,45,1.8663,1,0,20,20,23,1,9,×,5,9 × 5,congruent,largerFirst,2,1,45,,,,,,,,
,,,,,,,,,,,,,,,776,2022-01-31_18h28.25.169,multiplicationStroop,2021.2.3,MacIntel,60.0024001,,,,,,,,,,,,,,,,,,,,,,,,,,,,,,,,,4,1.5334,1,0,21,21,28,1,2,×,2,2 × 2,neutral,tie,2,1,4,,,,,,,,
,,,,,,,,,,,,,,,776,2022-01-31_18h28.25.169,multiplicationStroop,2021.2.3,MacIntel,60.0024001,,,,,,,,,,,,,,,,,,,,,,,,,,,,,,,,,9,1.8163,1,0,22,22,29,1,3,×,3,3 × 3,neutral,tie,2,1,9,,,,,,,,
,,,,,,,,,,,,,,,776,2022-01-31_18h28.25.169,multiplicationStroop,2021.2.3,MacIntel,60.0024001,,,,,,,,,,,,,,,,,,,,,,,,,,,,,,,,,21,1.4495,1,0,23,23,16,1,7,×,3,7 × 3,congruent,largerFirst,2,1,21,,,,,,,,
,,,,,,,,,,,,,,,776,2022-01-31_18h28.25.169,multiplicationStroop,2021.2.3,MacIntel,60.0024001,,,,,,,,,,,,,,,,,,,,,,,,,,,,,,,,,35,1.5665,1,0,24,24,1,1,5,×,7,5 × 7,congruent,smallerFirst,1,2,35,,,,,,,,
,,,,,,,,,,,,,,,776,2022-01-31_18h28.25.169,multiplicationStroop,2021.2.3,MacIntel,60.0024001,,,,,,,,,,,,,,,,,,,,,,,,,,,,,,,,,8,1.4482,1,0,25,25,9,1,2,×,4,2 × 4,congruent,smallerFirst,1,2,8,,,,,,,,
,,,,,,,,,,,,,,,776,2022-01-31_18h28.25.169,multiplicationStroop,2021.2.3,MacIntel,60.0024001,,,,,,,,,,,,,,,,,,,,,,,,,,,,,,,,,72,1.9164,1,0,26,26,17,1,9,×,8,9 × 8,congruent,largerFirst,2,1,72,,,,,,,,
,,,,,,,,,,,,,,,776,2022-01-31_18h28.25.169,multiplicationStroop,2021.2.3,MacIntel,60.0024001,,,,,,,,,,,,,,,,,,,,,,,,,,,,,,,,,30,1.8164,1,0,27,27,15,1,6,×,5,6 × 5,congruent,largerFirst,2,1,30,,,,,,,,
,,,,,,,,,,,,,,,776,2022-01-31_18h28.25.169,multiplicationStroop,2021.2.3,MacIntel,60.0024001,,,,,,,,,,,,,,,,,,,,,,,,,,,,,,,,,24,3.4471,1,0,28,28,10,1,3,×,8,3 × 8,congruent,smallerFirst,1,2,24,,,,,,,,
,,,,,,,,,,,,,,,776,2022-01-31_18h28.25.169,multiplicationStroop,2021.2.3,MacIntel,60.0024001,,,,,,,,,,,,,,,,,,,,,,,,,,,,,,,,,16,6.5832,0,0,29,29,11,1,3,×,6,3 × 6,congruent,smallerFirst,1,2,18,,,,,,,,
,,,,,,,,,,,,,,,776,2022-01-31_18h28.25.169,multiplicationStroop,2021.2.3,MacIntel,60.0024001,,,,,,,,,,,,,,,,,,,,,,,,,,,,,,,,,16,1.9851,1,0,30,30,30,1,4,×,4,4 × 4,neutral,tie,2,1,16,,,,,,,,
,,,,,,,,,,,,,,,776,2022-01-31_18h28.25.169,multiplicationStroop,2021.2.3,MacIntel,60.0024001,,,,,,,,,,,,,,,,,,,,,,,,,,,,,,,,,40,2.4996,1,0,31,31,6,1,5,×,8,5 × 8,congruent,smallerFirst,1,2,40,,,,,,,,
,,,,,,,,,,,,,,,776,2022-01-31_18h28.25.169,multiplicationStroop,2021.2.3,MacIntel,60.0024001,,,,,,,,,,,,,,,,,,,,,,,,,,,,,,,,,36,2.35,1,0,32,32,0,1,4,×,9,4 × 9,congruent,smallerFirst,1,2,36,,,,,,,,
,,,,,,,,,,,,,,,776,2022-01-31_18h28.25.169,multiplicationStroop,2021.2.3,MacIntel,60.0024001,,,,,,,,,,,,,,,,,,,,,,,,,,,,,,,,,25,1.8829,0,0,33,33,25,1,6,×,4,6 × 4,congruent,largerFirst,2,1,24,,,,,,,,
,,,,,,,,,,,,,,,776,2022-01-31_18h28.25.169,multiplicationStroop,2021.2.3,MacIntel,60.0024001,,,,,,,,,,,,,,,,,,,,,,,,,,,,,,,,,54,4.9816,1,0,34,34,12,1,6,×,9,6 × 9,congruent,smallerFirst,1,2,54,,,,,,,,
,,,,,,,,,,,,,,,776,2022-01-31_18h28.25.169,multiplicationStroop,2021.2.3,MacIntel,60.0024001,,,,,,,,,,,,,,,,,,,,,,,,,,,,,,,,,14,1.6194,1,0,35,35,14,1,7,×,2,7 × 2,congruent,largerFirst,2,1,14,,,,,,,,
,,,,,,,,,,,,,,,776,2022-01-31_18h28.25.169,multiplicationStroop,2021.2.3,MacIntel,60.0024001,,,,,,,,,,,,,,,,,,,,,,,,,,,,,,,,,,,,,,,,,,,,,,,,,,0,4,4,2,1,stimulusFile/mult_blk3_congruent.xlsx,,
,,,,,,,,,,,,,,,776,2022-01-31_18h28.25.169,multiplicationStroop,2021.2.3,MacIntel,60.0024001,,,,,,,,,,,,,,,,,,,,,,,,,,,,,,,space,1.1672,63,2.37,1,0,0,0,12,1,7,×,9,7 × 9,neutral,smallerFirst,1.5,1.5,63,,,,,,,,
,,,,,,,,,,,,,,,776,2022-01-31_18h28.25.169,multiplicationStroop,2021.2.3,MacIntel,60.0024001,,,,,,,,,,,,,,,,,,,,,,,,,,,,,,,,,45,2.0496,1,0,1,1,10,1,5,×,9,5 × 9,neutral,smallerFirst,1.5,1.5,45,,,,,,,,
,,,,,,,,,,,,,,,776,2022-01-31_18h28.25.169,multiplicationStroop,2021.2.3,MacIntel,60.0024001,,,,,,,,,,,,,,,,,,,,,,,,,,,,,,,,,14,1.7826,1,0,2,2,16,1,7,×,2,7 × 2,neutral,largerFirst,1.5,1.5,14,,,,,,,,
,,,,,,,,,,,,,,,776,2022-01-31_18h28.25.169,multiplicationStroop,2021.2.3,MacIntel,60.0024001,,,,,,,,,,,,,,,,,,,,,,,,,,,,,,,,,27,7.2157,1,0,3,3,14,1,9,×,3,9 × 3,neutral,largerFirst,1.5,1.5,27,,,,,,,,
,,,,,,,,,,,,,,,776,2022-01-31_18h28.25.169,multiplicationStroop,2021.2.3,MacIntel,60.0024001,,,,,,,,,,,,,,,,,,,,,,,,,,,,,,,,,64,1.7144,1,0,4,4,34,1,8,×,8,8 × 8,neutral,tie,1.5,1.5,64,,,,,,,,
,,,,,,,,,,,,,,,776,2022-01-31_18h28.25.169,multiplicationStroop,2021.2.3,MacIntel,60.0024001,,,,,,,,,,,,,,,,,,,,,,,,,,,,,,,,,36,1.8848,1,0,5,5,32,1,6,×,6,6 × 6,neutral,tie,1.5,1.5,36,,,,,,,,
,,,,,,,,,,,,,,,776,2022-01-31_18h28.25.169,multiplicationStroop,2021.2.3,MacIntel,60.0024001,,,,,,,,,,,,,,,,,,,,,,,,,,,,,,,,,30,2.4801,1,0,6,6,19,1,6,×,5,6 × 5,neutral,largerFirst,1.5,1.5,30,,,,,,,,
,,,,,,,,,,,,,,,776,2022-01-31_18h28.25.169,multiplicationStroop,2021.2.3,MacIntel,60.0024001,,,,,,,,,,,,,,,,,,,,,,,,,,,,,,,,,42,2.0001,1,0,7,7,6,1,6,×,7,6 × 7,neutral,smallerFirst,1.5,1.5,42,,,,,,,,
,,,,,,,,,,,,,,,776,2022-01-31_18h28.25.169,multiplicationStroop,2021.2.3,MacIntel,60.0024001,,,,,,,,,,,,,,,,,,,,,,,,,,,,,,,,,72,1.9654,1,0,8,8,11,1,8,×,9,8 × 9,neutral,smallerFirst,1.5,1.5,72,,,,,,,,
,,,,,,,,,,,,,,,776,2022-01-31_18h28.25.169,multiplicationStroop,2021.2.3,MacIntel,60.0024001,,,,,,,,,,,,,,,,,,,,,,,,,,,,,,,,,36,2.766,1,0,9,9,27,1,9,×,4,9 × 4,neutral,largerFirst,1.5,1.5,36,,,,,,,,
,,,,,,,,,,,,,,,776,2022-01-31_18h28.25.169,multiplicationStroop,2021.2.3,MacIntel,60.0024001,,,,,,,,,,,,,,,,,,,,,,,,,,,,,,,,,18,1.8998,1,0,10,10,18,1,9,×,2,9 × 2,neutral,largerFirst,1.5,1.5,18,,,,,,,,
,,,,,,,,,,,,,,,776,2022-01-31_18h28.25.169,multiplicationStroop,2021.2.3,MacIntel,60.0024001,,,,,,,,,,,,,,,,,,,,,,,,,,,,,,,,,6,1.399,1,0,11,11,26,1,3,×,2,3 × 2,neutral,largerFirst,1.5,1.5,6,,,,,,,,
,,,,,,,,,,,,,,,776,2022-01-31_18h28.25.169,multiplicationStroop,2021.2.3,MacIntel,60.0024001,,,,,,,,,,,,,,,,,,,,,,,,,,,,,,,,,24,2.2499,1,0,12,12,22,1,8,×,3,8 × 3,neutral,largerFirst,1.5,1.5,24,,,,,,,,
,,,,,,,,,,,,,,,776,2022-01-31_18h28.25.169,multiplicationStroop,2021.2.3,MacIntel,60.0024001,,,,,,,,,,,,,,,,,,,,,,,,,,,,,,,,,40,1.849,1,0,13,13,24,1,8,×,5,8 × 5,neutral,largerFirst,1.5,1.5,40,,,,,,,,
,,,,,,,,,,,,,,,776,2022-01-31_18h28.25.169,multiplicationStroop,2021.2.3,MacIntel,60.0024001,,,,,,,,,,,,,,,,,,,,,,,,,,,,,,,,,12,2.3497,1,0,14,14,21,1,4,×,3,4 × 3,neutral,largerFirst,1.5,1.5,12,,,,,,,,
,,,,,,,,,,,,,,,776,2022-01-31_18h28.25.169,multiplicationStroop,2021.2.3,MacIntel,60.0024001,,,,,,,,,,,,,,,,,,,,,,,,,,,,,,,,,25,1.701,1,0,15,15,31,1,5,×,5,5 × 5,neutral,tie,1.5,1.5,25,,,,,,,,
,,,,,,,,,,,,,,,776,2022-01-31_18h28.25.169,multiplicationStroop,2021.2.3,MacIntel,60.0024001,,,,,,,,,,,,,,,,,,,,,,,,,,,,,,,,,32,3.082,1,0,16,16,23,1,8,×,4,8 × 4,neutral,largerFirst,1.5,1.5,32,,,,,,,,
,,,,,,,,,,,,,,,776,2022-01-31_18h28.25.169,multiplicationStroop,2021.2.3,MacIntel,60.0024001,,,,,,,,,,,,,,,,,,,,,,,,,,,,,,,,,21,2.3994,1,0,17,17,8,1,3,×,7,3 × 7,neutral,smallerFirst,1.5,1.5,21,,,,,,,,
,,,,,,,,,,,,,,,776,2022-01-31_18h28.25.169,multiplicationStroop,2021.2.3,MacIntel,60.0024001,,,,,,,,,,,,,,,,,,,,,,,,,,,,,,,,,24,1.9029,1,0,18,18,2,1,4,×,6,4 × 6,neutral,smallerFirst,1.5,1.5,24,,,,,,,,
,,,,,,,,,,,,,,,776,2022-01-31_18h28.25.169,multiplicationStroop,2021.2.3,MacIntel,60.0024001,,,,,,,,,,,,,,,,,,,,,,,,,,,,,,,,,16,1.8318,1,0,19,19,30,1,4,×,4,4 × 4,neutral,tie,1.5,1.5,16,,,,,,,,
,,,,,,,,,,,,,,,776,2022-01-31_18h28.25.169,multiplicationStroop,2021.2.3,MacIntel,60.0024001,,,,,,,,,,,,,,,,,,,,,,,,,,,,,,,,,49,1.934,1,0,20,20,33,1,7,×,7,7 × 7,neutral,tie,1.5,1.5,49,,,,,,,,
,,,,,,,,,,,,,,,776,2022-01-31_18h28.25.169,multiplicationStroop,2021.2.3,MacIntel,60.0024001,,,,,,,,,,,,,,,,,,,,,,,,,,,,,,,,,28,5.2168,1,0,21,21,17,1,7,×,4,7 × 4,neutral,largerFirst,1.5,1.5,28,,,,,,,,
,,,,,,,,,,,,,,,776,2022-01-31_18h28.25.169,multiplicationStroop,2021.2.3,MacIntel,60.0024001,,,,,,,,,,,,,,,,,,,,,,,,,,,,,,,,,8,3.2035,1,0,22,22,3,1,2,×,4,2 × 4,neutral,smallerFirst,1.5,1.5,8,,,,,,,,
,,,,,,,,,,,,,,,776,2022-01-31_18h28.25.169,multiplicationStroop,2021.2.3,MacIntel,60.0024001,,,,,,,,,,,,,,,,,,,,,,,,,,,,,,,,,12,3.5618,1,0,23,23,25,1,6,×,2,6 × 2,neutral,largerFirst,1.5,1.5,12,,,,,,,,
,,,,,,,,,,,,,,,776,2022-01-31_18h28.25.169,multiplicationStroop,2021.2.3,MacIntel,60.0024001,,,,,,,,,,,,,,,,,,,,,,,,,,,,,,,,,4,1.3739,1,0,24,24,28,1,2,×,2,2 × 2,neutral,tie,1.5,1.5,4,,,,,,,,
,,,,,,,,,,,,,,,776,2022-01-31_18h28.25.169,multiplicationStroop,2021.2.3,MacIntel,60.0024001,,,,,,,,,,,,,,,,,,,,,,,,,,,,,,,,,10,4.6325,1,0,25,25,4,1,2,×,5,2 × 5,neutral,smallerFirst,1.5,1.5,10,,,,,,,,
,,,,,,,,,,,,,,,776,2022-01-31_18h28.25.169,multiplicationStroop,2021.2.3,MacIntel,60.0024001,,,,,,,,,,,,,,,,,,,,,,,,,,,,,,,,,54,3.2045,1,0,26,26,7,1,6,×,9,6 × 9,neutral,smallerFirst,1.5,1.5,54,,,,,,,,
,,,,,,,,,,,,,,,776,2022-01-31_18h28.25.169,multiplicationStroop,2021.2.3,MacIntel,60.0024001,,,,,,,,,,,,,,,,,,,,,,,,,,,,,,,,,15,2.7036,1,0,27,27,5,1,3,×,5,3 × 5,neutral,smallerFirst,1.5,1.5,15,,,,,,,,
,,,,,,,,,,,,,,,776,2022-01-31_18h28.25.169,multiplicationStroop,2021.2.3,MacIntel,60.0024001,,,,,,,,,,,,,,,,,,,,,,,,,,,,,,,,,18,3.3321,1,0,28,28,0,1,3,×,6,3 × 6,neutral,smallerFirst,1.5,1.5,18,,,,,,,,
,,,,,,,,,,,,,,,776,2022-01-31_18h28.25.169,multiplicationStroop,2021.2.3,MacIntel,60.0024001,,,,,,,,,,,,,,,,,,,,,,,,,,,,,,,,,9,1.5371,1,0,29,29,29,1,3,×,3,3 × 3,neutral,tie,1.5,1.5,9,,,,,,,,
,,,,,,,,,,,,,,,776,2022-01-31_18h28.25.169,multiplicationStroop,2021.2.3,MacIntel,60.0024001,,,,,,,,,,,,,,,,,,,,,,,,,,,,,,,,,16,1.7996,1,0,30,30,13,1,2,×,8,2 × 8,neutral,smallerFirst,1.5,1.5,16,,,,,,,,
,,,,,,,,,,,,,,,776,2022-01-31_18h28.25.169,multiplicationStroop,2021.2.3,MacIntel,60.0024001,,,,,,,,,,,,,,,,,,,,,,,,,,,,,,,,,20,1.8245,1,0,31,31,20,1,5,×,4,5 × 4,neutral,largerFirst,1.5,1.5,20,,,,,,,,
,,,,,,,,,,,,,,,776,2022-01-31_18h28.25.169,multiplicationStroop,2021.2.3,MacIntel,60.0024001,,,,,,,,,,,,,,,,,,,,,,,,,,,,,,,,,35,1.5398,1,0,32,32,1,1,5,×,7,5 × 7,neutral,smallerFirst,1.5,1.5,35,,,,,,,,
,,,,,,,,,,,,,,,776,2022-01-31_18h28.25.169,multiplicationStroop,2021.2.3,MacIntel,60.0024001,,,,,,,,,,,,,,,,,,,,,,,,,,,,,,,,,81,1.8348,1,0,33,33,35,1,9,×,9,9 × 9,neutral,tie,1.5,1.5,81,,,,,,,,
,,,,,,,,,,,,,,,776,2022-01-31_18h28.25.169,multiplicationStroop,2021.2.3,MacIntel,60.0024001,,,,,,,,,,,,,,,,,,,,,,,,,,,,,,,,,48,2.548,1,0,34,34,15,1,8,×,6,8 × 6,neutral,largerFirst,1.5,1.5,48,,,,,,,,
,,,,,,,,,,,,,,,776,2022-01-31_18h28.25.169,multiplicationStroop,2021.2.3,MacIntel,60.0024001,,,,,,,,,,,,,,,,,,,,,,,,,,,,,,,,,56,1.4872,1,0,35,35,9,1,7,×,8,7 × 8,neutral,smallerFirst,1.5,1.5,56,,,,,,,,
,,,,,,,,,,,,,,,776,2022-01-31_18h28.25.169,multiplicationStroop,2021.2.3,MacIntel,60.0024001,,,,,,,,,,,,,,,,,,,,,,,,,,,,,,,,,,,,,,,,,,,,,,,,,,0,5,5,1,1,stimulusFile/mult_blk2.xlsx,,
,,,,,,,,,,,,,,,776,2022-01-31_18h28.25.169,multiplicationStroop,2021.2.3,MacIntel,60.0024001,,,,,,,,,,,,,,,,,,,,,,,,,,,,,,,,,,,,,,,,,,,,,,,,,,,,,,,,space,1.4304