welcomeKey_resp.keys,welcomeKey_resp.rt,X Scale,Y Scale,rt_resp_4.keys,rt_resp_4.corr,rt_resp_4.rt,speedtest_2.thisRepN,speedtest_2.thisTrialN,speedtest_2.thisN,speedtest_2.thisIndex,speedtest_2.ran,numberSc,posX,positionLayout,participant,date,expName,psychopyVersion,OS,frameRate,ct_instrresp.keys,ct_instrresp.rt,key_resp_2.keys,key_resp_2.rt,ct_keyResp.keys,ct_keyResp.corr,ct_keyResp.rt,trials.thisRepN,trials.thisTrialN,trials.thisN,trials.thisIndex,trials.ran,leftNo,rightNo,displayProblem,numDistance,leftNo_size,rightNo_size,Dims,keyAnswer,TS_Loop.thisRepN,TS_Loop.thisTrialN,TS_Loop.thisN,TS_Loop.thisIndex,TS_Loop.ran,Condition,ActionInst,instrImage,mltptaskInst_resp.keys,mltptaskInst_resp.rt,continue_resp_2.keys,continue_resp_2.rt,multp_Answer,multi_RT,multiplyCorr,LoopingMultiply.thisRepN,LoopingMultiply.thisTrialN,LoopingMultiply.thisN,LoopingMultiply.thisIndex,LoopingMultiply.ran,factor1,multiplySign,factor2,multliplyProblem,physicalSize,orderOperand,sizeF1,sizeF2,mult_answer,trials_stroop.thisRepN,trials_stroop.thisTrialN,trials_stroop.thisN,trials_stroop.thisIndex,trials_stroop.ran,multiplicationFile,esckey_resp_2.keys,esckey_resp_2.rt
y,11.989,60,40,left,1,8.8936,0,0,0,0,1,1,-200,left,777,2022-01-20_01h58.35.702,multiplicationStroop,2021.2.3,Win32,59.31198102,,,,,,,,,,,,,,,,,,,,,,,,,,,,,,,,,,,,,,,,,,,,,,,,,,,,,,,,,
,,,,left,1,0.0114,0,1,1,4,1,6,-200,left,777,2022-01-20_01h58.35.702,multiplicationStroop,2021.2.3,Win32,59.31198102,,,,,,,,,,,,,,,,,,,,,,,,,,,,,,,,,,,,,,,,,,,,,,,,,,,,,,,,,
,,,,right,1,1.4493,0,2,2,15,1,9,200,right,777,2022-01-20_01h58.35.702,multiplicationStroop,2021.2.3,Win32,59.31198102,,,,,,,,,,,,,,,,,,,,,,,,,,,,,,,,,,,,,,,,,,,,,,,,,,,,,,,,,
,,,,right,0,0.7949,0,3,3,6,1,8,-200,left,777,2022-01-20_01h58.35.702,multiplicationStroop,2021.2.3,Win32,59.31198102,,,,,,,,,,,,,,,,,,,,,,,,,,,,,,,,,,,,,,,,,,,,,,,,,,,,,,,,,
,,,,left,0,0.4486,0,4,4,9,1,2,200,right,777,2022-01-20_01h58.35.702,multiplicationStroop,2021.2.3,Win32,59.31198102,,,,,,,,,,,,,,,,,,,,,,,,,,,,,,,,,,,,,,,,,,,,,,,,,,,,,,,,,
,,,,left,1,0.4183,0,5,5,2,1,3,-200,left,777,2022-01-20_01h58.35.702,multiplicationStroop,2021.2.3,Win32,59.31198102,,,,,,,,,,,,,,,,,,,,,,,,,,,,,,,,,,,,,,,,,,,,,,,,,,,,,,,,,
,,,,right,1,0.0169,0,6,6,14,1,8,200,right,777,2022-01-20_01h58.35.702,multiplicationStroop,2021.2.3,Win32,59.31198102,,,,,,,,,,,,,,,,,,,,,,,,,,,,,,,,,,,,,,,,,,,,,,,,,,,,,,,,,
,,,,right,1,0.5492,0,7,7,13,1,7,200,right,777,2022-01-20_01h58.35.702,multiplicationStroop,2021.2.3,Win32,59.31198102,,,,,,,,,,,,,,,,,,,,,,,,,,,,,,,,,,,,,,,,,,,,,,,,,,,,,,,,,
,,,,left,0,1.0665,0,8,8,11,1,4,200,right,777,2022-01-20_01h58.35.702,multiplicationStroop,2021.2.3,Win32,59.31198102,,,,,,,,,,,,,,,,,,,,,,,,,,,,,,,,,,,,,,,,,,,,,,,,,,,,,,,,,
,,,,left,0,0.3172,0,9,9,10,1,3,200,right,777,2022-01-20_01h58.35.702,multiplicationStroop,2021.2.3,Win32,59.31198102,,,,,,,,,,,,,,,,,,,,,,,,,,,,,,,,,,,,,,,,,,,,,,,,,,,,,,,,,
,,,,right,1,0.0866,0,10,10,8,1,1,200,right,777,2022-01-20_01h58.35.702,multiplicationStroop,2021.2.3,Win32,59.31198102,,,,,,,,,,,,,,,,,,,,,,,,,,,,,,,,,,,,,,,,,,,,,,,,,,,,,,,,,
,,,,right,0,0.2168,0,11,11,5,1,7,-200,left,777,2022-01-20_01h58.35.702,multiplicationStroop,2021.2.3,Win32,59.31198102,,,,,,,,,,,,,,,,,,,,,,,,,,,,,,,,,,,,,,,,,,,,,,,,,,,,,,,,,
,,,,left,1,0.1011,0,12,12,1,1,2,-200,left,777,2022-01-20_01h58.35.702,multiplicationStroop,2021.2.3,Win32,59.31198102,,,,,,,,,,,,,,,,,,,,,,,,,,,,,,,,,,,,,,,,,,,,,,,,,,,,,,,,,
,,,,right,1,0.0539,0,13,13,12,1,6,200,right,777,2022-01-20_01h58.35.702,multiplicationStroop,2021.2.3,Win32,59.31198102,,,,,,,,,,,,,,,,,,,,,,,,,,,,,,,,,,,,,,,,,,,,,,,,,,,,,,,,,
,,,,left,1,0.7302,0,14,14,3,1,4,-200,left,777,2022-01-20_01h58.35.702,multiplicationStroop,2021.2.3,Win32,59.31198102,,,,,,,,,,,,,,,,,,,,,,,,,,,,,,,,,,,,,,,,,,,,,,,,,,,,,,,,,
,,,,left,1,0.401,0,15,15,7,1,9,-200,left,777,2022-01-20_01h58.35.702,multiplicationStroop,2021.2.3,Win32,59.31198102,,,,,,,,,,,,,,,,,,,,,,,,,,,,,,,,,,,,,,,,,,,,,,,,,,,,,,,,,
,,,,left,1,0.3011,1,0,16,4,1,6,-200,left,777,2022-01-20_01h58.35.702,multiplicationStroop,2021.2.3,Win32,59.31198102,,,,,,,,,,,,,,,,,,,,,,,,,,,,,,,,,,,,,,,,,,,,,,,,,,,,,,,,,
,,,,right,1,0.3508,1,1,17,9,1,2,200,right,777,2022-01-20_01h58.35.702,multiplicationStroop,2021.2.3,Win32,59.31198102,,,,,,,,,,,,,,,,,,,,,,,,,,,,,,,,,,,,,,,,,,,,,,,,,,,,,,,,,
,,,,left,1,0.3889,1,2,18,5,1,7,-200,left,777,2022-01-20_01h58.35.702,multiplicationStroop,2021.2.3,Win32,59.31198102,,,,,,,,,,,,,,,,,,,,,,,,,,,,,,,,,,,,,,,,,,,,,,,,,,,,,,,,,
,,,,right,1,0.2847,1,3,19,13,1,7,200,right,777,2022-01-20_01h58.35.702,multiplicationStroop,2021.2.3,Win32,59.31198102,,,,,,,,,,,,,,,,,,,,,,,,,,,,,,,,,,,,,,,,,,,,,,,,,,,,,,,,,
,,,,left,1,0.2631,1,4,20,6,1,8,-200,left,777,2022-01-20_01h58.35.702,multiplicationStroop,2021.2.3,Win32,59.31198102,,,,,,,,,,,,,,,,,,,,,,,,,,,,,,,,,,,,,,,,,,,,,,,,,,,,,,,,,
,,,,right,1,0.2269,1,5,21,14,1,8,200,right,777,2022-01-20_01h58.35.702,multiplicationStroop,2021.2.3,Win32,59.31198102,,,,,,,,,,,,,,,,,,,,,,,,,,,,,,,,,,,,,,,,,,,,,,,,,,,,,,,,,
,,,,right,1,0.3478,1,6,22,8,1,1,200,right,777,2022-01-20_01h58.35.702,multiplicationStroop,2021.2.3,Win32,59.31198102,,,,,,,,,,,,,,,,,,,,,,,,,,,,,,,,,,,,,,,,,,,,,,,,,,,,,,,,,
,,,,right,1,0.3066,1,7,23,11,1,4,200,right,777,2022-01-20_01h58.35.702,multiplicationStroop,2021.2.3,Win32,59.31198102,,,,,,,,,,,,,,,,,,,,,,,,,,,,,,,,,,,,,,,,,,,,,,,,,,,,,,,,,
,,,,right,1,0.3169,1,8,24,10,1,3,200,right,777,2022-01-20_01h58.35.702,multiplicationStroop,2021.2.3,Win32,59.31198102,,,,,,,,,,,,,,,,,,,,,,,,,,,,,,,,,,,,,,,,,,,,,,,,,,,,,,,,,
,,,,left,1,0.4037,1,9,25,7,1,9,-200,left,777,2022-01-20_01h58.35.702,multiplicationStroop,2021.2.3,Win32,59.31198102,,,,,,,,,,,,,,,,,,,,,,,,,,,,,,,,,,,,,,,,,,,,,,,,,,,,,,,,,
,,,,right,1,0.2707,1,10,26,15,1,9,200,right,777,2022-01-20_01h58.35.702,multiplicationStroop,2021.2.3,Win32,59.31198102,,,,,,,,,,,,,,,,,,,,,,,,,,,,,,,,,,,,,,,,,,,,,,,,,,,,,,,,,
,,,,left,1,0.43,1,11,27,1,1,2,-200,left,777,2022-01-20_01h58.35.702,multiplicationStroop,2021.2.3,Win32,59.31198102,,,,,,,,,,,,,,,,,,,,,,,,,,,,,,,,,,,,,,,,,,,,,,,,,,,,,,,,,
,,,,left,1,0.4964,1,12,28,0,1,1,-200,left,777,2022-01-20_01h58.35.702,multiplicationStroop,2021.2.3,Win32,59.31198102,,,,,,,,,,,,,,,,,,,,,,,,,,,,,,,,,,,,,,,,,,,,,,,,,,,,,,,,,
,,,,left,1,0.3045,1,13,29,2,1,3,-200,left,777,2022-01-20_01h58.35.702,multiplicationStroop,2021.2.3,Win32,59.31198102,,,,,,,,,,,,,,,,,,,,,,,,,,,,,,,,,,,,,,,,,,,,,,,,,,,,,,,,,
,,,,left,1,0.2813,1,14,30,3,1,4,-200,left,777,2022-01-20_01h58.35.702,multiplicationStroop,2021.2.3,Win32,59.31198102,,,,,,,,,,,,,,,,,,,,,,,,,,,,,,,,,,,,,,,,,,,,,,,,,,,,,,,,,
,,,,right,1,0.3089,1,15,31,12,1,6,200,right,777,2022-01-20_01h58.35.702,multiplicationStroop,2021.2.3,Win32,59.31198102,,,,,,,,,,,,,,,,,,,,,,,,,,,,,,,,,,,,,,,,,,,,,,,,,,,,,,,,,
,,,,left,1,0.3484,2,0,32,7,1,9,-200,left,777,2022-01-20_01h58.35.702,multiplicationStroop,2021.2.3,Win32,59.31198102,,,,,,,,,,,,,,,,,,,,,,,,,,,,,,,,,,,,,,,,,,,,,,,,,,,,,,,,,
,,,,left,1,0.5177,2,1,33,6,1,8,-200,left,777,2022-01-20_01h58.35.702,multiplicationStroop,2021.2.3,Win32,59.31198102,,,,,,,,,,,,,,,,,,,,,,,,,,,,,,,,,,,,,,,,,,,,,,,,,,,,,,,,,
,,,,left,1,0.2853,2,2,34,3,1,4,-200,left,777,2022-01-20_01h58.35.702,multiplicationStroop,2021.2.3,Win32,59.31198102,,,,,,,,,,,,,,,,,,,,,,,,,,,,,,,,,,,,,,,,,,,,,,,,,,,,,,,,,
,,,,right,1,0.2626,2,3,35,8,1,1,200,right,777,2022-01-20_01h58.35.702,multiplicationStroop,2021.2.3,Win32,59.31198102,,,,,,,,,,,,,,,,,,,,,,,,,,,,,,,,,,,,,,,,,,,,,,,,,,,,,,,,,
,,,,right,1,0.3915,2,4,36,15,1,9,200,right,777,2022-01-20_01h58.35.702,multiplicationStroop,2021.2.3,Win32,59.31198102,,,,,,,,,,,,,,,,,,,,,,,,,,,,,,,,,,,,,,,,,,,,,,,,,,,,,,,,,
,,,,right,1,0.301,2,5,37,11,1,4,200,right,777,2022-01-20_01h58.35.702,multiplicationStroop,2021.2.3,Win32,59.31198102,,,,,,,,,,,,,,,,,,,,,,,,,,,,,,,,,,,,,,,,,,,,,,,,,,,,,,,,,
,,,,right,1,0.2966,2,6,38,12,1,6,200,right,777,2022-01-20_01h58.35.702,multiplicationStroop,2021.2.3,Win32,59.31198102,,,,,,,,,,,,,,,,,,,,,,,,,,,,,,,,,,,,,,,,,,,,,,,,,,,,,,,,,
,,,,right,1,0.2709,2,7,39,13,1,7,200,right,777,2022-01-20_01h58.35.702,multiplicationStroop,2021.2.3,Win32,59.31198102,,,,,,,,,,,,,,,,,,,,,,,,,,,,,,,,,,,,,,,,,,,,,,,,,,,,,,,,,
,,,,left,1,0.3467,2,8,40,4,1,6,-200,left,777,2022-01-20_01h58.35.702,multiplicationStroop,2021.2.3,Win32,59.31198102,,,,,,,,,,,,,,,,,,,,,,,,,,,,,,,,,,,,,,,,,,,,,,,,,,,,,,,,,
,,,,right,1,0.3204,2,9,41,10,1,3,200,right,777,2022-01-20_01h58.35.702,multiplicationStroop,2021.2.3,Win32,59.31198102,,,,,,,,,,,,,,,,,,,,,,,,,,,,,,,,,,,,,,,,,,,,,,,,,,,,,,,,,
,,,,left,1,0.2666,2,10,42,1,1,2,-200,left,777,2022-01-20_01h58.35.702,multiplicationStroop,2021.2.3,Win32,59.31198102,,,,,,,,,,,,,,,,,,,,,,,,,,,,,,,,,,,,,,,,,,,,,,,,,,,,,,,,,
,,,,left,1,1.0676,2,11,43,5,1,7,-200,left,777,2022-01-20_01h58.35.702,multiplicationStroop,2021.2.3,Win32,59.31198102,,,,,,,,,,,,,,,,,,,,,,,,,,,,,,,,,,,,,,,,,,,,,,,,,,,,,,,,,
,,,,left,1,0.3339,2,12,44,2,1,3,-200,left,777,2022-01-20_01h58.35.702,multiplicationStroop,2021.2.3,Win32,59.31198102,,,,,,,,,,,,,,,,,,,,,,,,,,,,,,,,,,,,,,,,,,,,,,,,,,,,,,,,,
,,,,left,1,0.3732,2,13,45,0,1,1,-200,left,777,2022-01-20_01h58.35.702,multiplicationStroop,2021.2.3,Win32,59.31198102,,,,,,,,,,,,,,,,,,,,,,,,,,,,,,,,,,,,,,,,,,,,,,,,,,,,,,,,,
,,,,right,1,0.2842,2,14,46,14,1,8,200,right,777,2022-01-20_01h58.35.702,multiplicationStroop,2021.2.3,Win32,59.31198102,,,,,,,,,,,,,,,,,,,,,,,,,,,,,,,,,,,,,,,,,,,,,,,,,,,,,,,,,
,,,,right,1,0.3342,2,15,47,9,1,2,200,right,777,2022-01-20_01h58.35.702,multiplicationStroop,2021.2.3,Win32,59.31198102,,,,,,,,,,,,,,,,,,,,,,,,,,,,,,,,,,,,,,,,,,,,,,,,,,,,,,,,,
,,,,left,1,0.3565,3,0,48,4,1,6,-200,left,777,2022-01-20_01h58.35.702,multiplicationStroop,2021.2.3,Win32,59.31198102,,,,,,,,,,,,,,,,,,,,,,,,,,,,,,,,,,,,,,,,,,,,,,,,,,,,,,,,,
,,,,left,1,0.4199,3,1,49,3,1,4,-200,left,777,2022-01-20_01h58.35.702,multiplicationStroop,2021.2.3,Win32,59.31198102,,,,,,,,,,,,,,,,,,,,,,,,,,,,,,,,,,,,,,,,,,,,,,,,,,,,,,,,,
,,,,left,1,0.3362,3,2,50,7,1,9,-200,left,777,2022-01-20_01h58.35.702,multiplicationStroop,2021.2.3,Win32,59.31198102,,,,,,,,,,,,,,,,,,,,,,,,,,,,,,,,,,,,,,,,,,,,,,,,,,,,,,,,,
,,,,right,1,0.2718,3,3,51,8,1,1,200,right,777,2022-01-20_01h58.35.702,multiplicationStroop,2021.2.3,Win32,59.31198102,,,,,,,,,,,,,,,,,,,,,,,,,,,,,,,,,,,,,,,,,,,,,,,,,,,,,,,,,
,,,,right,1,0.2907,3,4,52,9,1,2,200,right,777,2022-01-20_01h58.35.702,multiplicationStroop,2021.2.3,Win32,59.31198102,,,,,,,,,,,,,,,,,,,,,,,,,,,,,,,,,,,,,,,,,,,,,,,,,,,,,,,,,
,,,,left,1,0.3173,3,5,53,0,1,1,-200,left,777,2022-01-20_01h58.35.702,multiplicationStroop,2021.2.3,Win32,59.31198102,,,,,,,,,,,,,,,,,,,,,,,,,,,,,,,,,,,,,,,,,,,,,,,,,,,,,,,,,
,,,,left,0,0.263,3,6,54,13,1,7,200,right,777,2022-01-20_01h58.35.702,multiplicationStroop,2021.2.3,Win32,59.31198102,,,,,,,,,,,,,,,,,,,,,,,,,,,,,,,,,,,,,,,,,,,,,,,,,,,,,,,,,
,,,,right,1,0.0858,3,7,55,10,1,3,200,right,777,2022-01-20_01h58.35.702,multiplicationStroop,2021.2.3,Win32,59.31198102,,,,,,,,,,,,,,,,,,,,,,,,,,,,,,,,,,,,,,,,,,,,,,,,,,,,,,,,,
,,,,right,1,0.4722,3,8,56,12,1,6,200,right,777,2022-01-20_01h58.35.702,multiplicationStroop,2021.2.3,Win32,59.31198102,,,,,,,,,,,,,,,,,,,,,,,,,,,,,,,,,,,,,,,,,,,,,,,,,,,,,,,,,
,,,,left,1,0.4026,3,9,57,2,1,3,-200,left,777,2022-01-20_01h58.35.702,multiplicationStroop,2021.2.3,Win32,59.31198102,,,,,,,,,,,,,,,,,,,,,,,,,,,,,,,,,,,,,,,,,,,,,,,,,,,,,,,,,
,,,,left,1,0.33,3,10,58,1,1,2,-200,left,777,2022-01-20_01h58.35.702,multiplicationStroop,2021.2.3,Win32,59.31198102,,,,,,,,,,,,,,,,,,,,,,,,,,,,,,,,,,,,,,,,,,,,,,,,,,,,,,,,,
,,,,right,1,0.4394,3,11,59,15,1,9,200,right,777,2022-01-20_01h58.35.702,multiplicationStroop,2021.2.3,Win32,59.31198102,,,,,,,,,,,,,,,,,,,,,,,,,,,,,,,,,,,,,,,,,,,,,,,,,,,,,,,,,
,,,,right,1,0.347,3,12,60,11,1,4,200,right,777,2022-01-20_01h58.35.702,multiplicationStroop,2021.2.3,Win32,59.31198102,,,,,,,,,,,,,,,,,,,,,,,,,,,,,,,,,,,,,,,,,,,,,,,,,,,,,,,,,
,,,,right,1,0.3308,3,13,61,14,1,8,200,right,777,2022-01-20_01h58.35.702,multiplicationStroop,2021.2.3,Win32,59.31198102,,,,,,,,,,,,,,,,,,,,,,,,,,,,,,,,,,,,,,,,,,,,,,,,,,,,,,,,,
,,,,left,1,0.3532,3,14,62,5,1,7,-200,left,777,2022-01-20_01h58.35.702,multiplicationStroop,2021.2.3,Win32,59.31198102,,,,,,,,,,,,,,,,,,,,,,,,,,,,,,,,,,,,,,,,,,,,,,,,,,,,,,,,,
,,,,left,1,0.1845,3,15,63,6,1,8,-200,left,777,2022-01-20_01h58.35.702,multiplicationStroop,2021.2.3,Win32,59.31198102,,,,,,,,,,,,,,,,,,,,,,,,,,,,,,,,,,,,,,,,,,,,,,,,,,,,,,,,,
,,,,,,,,,,,,,,,777,2022-01-20_01h58.35.702,multiplicationStroop,2021.2.3,Win32,59.31198102,space,120.9845,space,7.599,left,1,0.7668,0,0,0,25,1,3,4,3 | 4,1,1.9756,1.4111,incongruent,left,,,,,,stimulusFile/physical.xlsx,,,,,,,,,,,,,,,,,,,,,,,,,,,,,,,
,,,,,,,,,,,,,,,777,2022-01-20_01h58.35.702,multiplicationStroop,2021.2.3,Win32,59.31198102,,,,,right,1,0.5513,0,1,1,9,1,2,4,2 | 4,2,1.4111,1.9756,congruent,right,,,,,,stimulusFile/physical.xlsx,,,,,,,,,,,,,,,,,,,,,,,,,,,,,,,
,,,,,,,,,,,,,,,777,2022-01-20_01h58.35.702,multiplicationStroop,2021.2.3,Win32,59.31198102,,,,,right,1,0.6035,0,2,2,39,1,9,7,9 | 7,2,1.4111,1.9756,incongruent,right,,,,,,stimulusFile/physical.xlsx,,,,,,,,,,,,,,,,,,,,,,,,,,,,,,,
,,,,,,,,,,,,,,,777,2022-01-20_01h58.35.702,multiplicationStroop,2021.2.3,Win32,59.31198102,,,,,right,1,0.4792,0,3,3,63,1,9,9,9 | 9,0,1.4111,1.9756,neutral,right,,,,,,stimulusFile/physical.xlsx,,,,,,,,,,,,,,,,,,,,,,,,,,,,,,,
,,,,,,,,,,,,,,,777,2022-01-20_01h58.35.702,multiplicationStroop,2021.2.3,Win32,59.31198102,,,,,right,1,0.6344,0,4,4,2,1,6,7,6 | 7,1,1.4111,1.9756,congruent,right,,,,,,stimulusFile/physical.xlsx,,,,,,,,,,,,,,,,,,,,,,,,,,,,,,,
,,,,,,,,,,,,,,,777,2022-01-20_01h58.35.702,multiplicationStroop,2021.2.3,Win32,59.31198102,,,,,left,1,0.5184,0,5,5,27,1,8,9,8 | 9,1,1.9756,1.4111,incongruent,left,,,,,,stimulusFile/physical.xlsx,,,,,,,,,,,,,,,,,,,,,,,,,,,,,,,
,,,,,,,,,,,,,,,777,2022-01-20_01h58.35.702,multiplicationStroop,2021.2.3,Win32,59.31198102,,,,,left,1,0.5516,0,6,6,4,1,2,1,2 | 1,1,1.9756,1.4111,congruent,left,,,,,,stimulusFile/physical.xlsx,,,,,,,,,,,,,,,,,,,,,,,,,,,,,,,
,,,,,,,,,,,,,,,777,2022-01-20_01h58.35.702,multiplicationStroop,2021.2.3,Win32,59.31198102,,,,,left,1,0.5016,0,7,7,15,1,9,7,9 | 7,2,1.9756,1.4111,congruent,left,,,,,,stimulusFile/physical.xlsx,,,,,,,,,,,,,,,,,,,,,,,,,,,,,,,
,,,,,,,,,,,,,,,777,2022-01-20_01h58.35.702,multiplicationStroop,2021.2.3,Win32,59.31198102,,,,,right,1,0.4851,0,8,8,46,1,8,3,8 | 3,5,1.4111,1.9756,incongruent,right,,,,,,stimulusFile/physical.xlsx,,,,,,,,,,,,,,,,,,,,,,,,,,,,,,,
,,,,,,,,,,,,,,,777,2022-01-20_01h58.35.702,multiplicationStroop,2021.2.3,Win32,59.31198102,,,,,right,1,0.4843,0,9,9,18,1,3,8,3 | 8,5,1.4111,1.9756,congruent,right,,,,,,stimulusFile/physical.xlsx,,,,,,,,,,,,,,,,,,,,,,,,,,,,,,,
,,,,,,,,,,,,,,,777,2022-01-20_01h58.35.702,multiplicationStroop,2021.2.3,Win32,59.31198102,,,,,right,1,0.4677,0,10,10,29,1,4,3,4 | 3,1,1.4111,1.9756,incongruent,right,,,,,,stimulusFile/physical.xlsx,,,,,,,,,,,,,,,,,,,,,,,,,,,,,,,
,,,,,,,,,,,,,,,777,2022-01-20_01h58.35.702,multiplicationStroop,2021.2.3,Win32,59.31198102,,,,,left,1,0.4617,0,11,11,14,1,8,6,8 | 6,2,1.9756,1.4111,congruent,left,,,,,,stimulusFile/physical.xlsx,,,,,,,,,,,,,,,,,,,,,,,,,,,,,,,
,,,,,,,,,,,,,,,777,2022-01-20_01h58.35.702,multiplicationStroop,2021.2.3,Win32,59.31198102,,,,,left,1,0.4722,0,12,12,48,1,1,1,1 | 1,0,1.9756,1.4111,neutral,left,,,,,,stimulusFile/physical.xlsx,,,,,,,,,,,,,,,,,,,,,,,,,,,,,,,
,,,,,,,,,,,,,,,777,2022-01-20_01h58.35.702,multiplicationStroop,2021.2.3,Win32,59.31198102,,,,,left,1,0.5849,0,13,13,5,1,4,3,4 | 3,1,1.9756,1.4111,congruent,left,,,,,,stimulusFile/physical.xlsx,,,,,,,,,,,,,,,,,,,,,,,,,,,,,,,
,,,,,,,,,,,,,,,777,2022-01-20_01h58.35.702,multiplicationStroop,2021.2.3,Win32,59.31198102,,,,,left,1,0.4859,0,14,14,26,1,6,7,6 | 7,1,1.9756,1.4111,incongruent,left,,,,,,stimulusFile/physical.xlsx,,,,,,,,,,,,,,,,,,,,,,,,,,,,,,,
,,,,,,,,,,,,,,,777,2022-01-20_01h58.35.702,multiplicationStroop,2021.2.3,Win32,59.31198102,,,,,right,1,0.4519,0,15,15,65,1,2,2,2 | 2,0,1.4111,1.9756,neutral,right,,,,,,stimulusFile/physical.xlsx,,,,,,,,,,,,,,,,,,,,,,,,,,,,,,,
,,,,,,,,,,,,,,,777,2022-01-20_01h58.35.702,multiplicationStroop,2021.2.3,Win32,59.31198102,,,,,left,1,0.5014,0,16,16,6,1,7,6,7 | 6,1,1.9756,1.4111,congruent,left,,,,,,stimulusFile/physical.xlsx,,,,,,,,,,,,,,,,,,,,,,,,,,,,,,,
,,,,,,,,,,,,,,,777,2022-01-20_01h58.35.702,multiplicationStroop,2021.2.3,Win32,59.31198102,,,,,left,1,0.5343,0,17,17,52,1,2,2,2 | 2,0,1.9756,1.4111,neutral,left,,,,,,stimulusFile/physical.xlsx,,,,,,,,,,,,,,,,,,,,,,,,,,,,,,,
,,,,,,,,,,,,,,,777,2022-01-20_01h58.35.702,multiplicationStroop,2021.2.3,Win32,59.31198102,,,,,left,1,0.6727,0,18,18,49,1,3,3,3 | 3,0,1.9756,1.4111,neutral,left,,,,,,stimulusFile/physical.xlsx,,,,,,,,,,,,,,,,,,,,,,,,,,,,,,,
,,,,,,,,,,,,,,,777,2022-01-20_01h58.35.702,multiplicationStroop,2021.2.3,Win32,59.31198102,,,,,left,1,0.5182,0,19,19,21,1,7,2,7 | 2,5,1.9756,1.4111,congruent,left,,,,,,stimulusFile/physical.xlsx,,,,,,,,,,,,,,,,,,,,,,,,,,,,,,,
,,,,,,,,,,,,,,,777,2022-01-20_01h58.35.702,multiplicationStroop,2021.2.3,Win32,59.31198102,,,,,right,1,0.4521,0,20,20,8,1,1,3,1 | 3,2,1.4111,1.9756,congruent,right,,,,,,stimulusFile/physical.xlsx,,,,,,,,,,,,,,,,,,,,,,,,,,,,,,,
,,,,,,,,,,,,,,,777,2022-01-20_01h58.35.702,multiplicationStroop,2021.2.3,Win32,59.31198102,,,,,left,1,0.46,0,21,21,35,1,7,9,7 | 9,2,1.9756,1.4111,incongruent,left,,,,,,stimulusFile/physical.xlsx,,,,,,,,,,,,,,,,,,,,,,,,,,,,,,,
,,,,,,,,,,,,,,,777,2022-01-20_01h58.35.702,multiplicationStroop,2021.2.3,Win32,59.31198102,,,,,left,0,1.454,0,22,22,64,1,1,1,1 | 1,0,1.9756,1.4111,neutral,right,,,,,,stimulusFile/physical.xlsx,,,,,,,,,,,,,,,,,,,,,,,,,,,,,,,
,,,,,,,,,,,,,,,777,2022-01-20_01h58.35.702,multiplicationStroop,2021.2.3,Win32,59.31198102,,,,,left,1,0.9287,0,23,23,34,1,6,8,6 | 8,2,1.9756,1.4111,incongruent,left,,,,,,stimulusFile/physical.xlsx,,,,,,,,,,,,,,,,,,,,,,,,,,,,,,,
,,,,,,,,,,,,,,,777,2022-01-20_01h58.35.702,multiplicationStroop,2021.2.3,Win32,59.31198102,,,,,right,1,0.5279,0,24,24,19,1,4,9,4 | 9,5,1.4111,1.9756,congruent,right,,,,,,stimulusFile/physical.xlsx,,,,,,,,,,,,,,,,,,,,,,,,,,,,,,,
,,,,,,,,,,,,,,,777,2022-01-20_01h58.35.702,multiplicationStroop,2021.2.3,Win32,59.31198102,,,,,left,1,0.5027,0,25,25,53,1,4,4,4 | 4,0,1.9756,1.4111,neutral,left,,,,,,stimulusFile/physical.xlsx,,,,,,,,,,,,,,,,,,,,,,,,,,,,,,,
,,,,,,,,,,,,,,,777,2022-01-20_01h58.35.702,multiplicationStroop,2021.2.3,Win32,59.31198102,,,,,left,1,0.5279,0,26,26,23,1,9,4,9 | 4,5,1.9756,1.4111,congruent,left,,,,,,stimulusFile/physical.xlsx,,,,,,,,,,,,,,,,,,,,,,,,,,,,,,,
,,,,,,,,,,,,,,,777,2022-01-20_01h58.35.702,multiplicationStroop,2021.2.3,Win32,59.31198102,,,,,right,1,0.5186,0,27,27,30,1,7,6,7 | 6,1,1.4111,1.9756,incongruent,right,,,,,,stimulusFile/physical.xlsx,,,,,,,,,,,,,,,,,,,,,,,,,,,,,,,
,,,,,,,,,,,,,,,777,2022-01-20_01h58.35.702,multiplicationStroop,2021.2.3,Win32,59.31198102,,,,,right,1,0.5019,0,28,28,31,1,9,8,9 | 8,1,1.4111,1.9756,incongruent,right,,,,,,stimulusFile/physical.xlsx,,,,,,,,,,,,,,,,,,,,,,,,,,,,,,,
,,,,,,,,,,,,,,,777,2022-01-20_01h58.35.702,multiplicationStroop,2021.2.3,Win32,59.31198102,,,,,left,1,0.4635,0,29,29,12,1,3,1,3 | 1,2,1.9756,1.4111,congruent,left,,,,,,stimulusFile/physical.xlsx,,,,,,,,,,,,,,,,,,,,,,,,,,,,,,,
,,,,,,,,,,,,,,,777,2022-01-20_01h58.35.702,multiplicationStroop,2021.2.3,Win32,59.31198102,,,,,right,1,0.4893,0,30,30,10,1,6,8,6 | 8,2,1.4111,1.9756,congruent,right,,,,,,stimulusFile/physical.xlsx,,,,,,,,,,,,,,,,,,,,,,,,,,,,,,,
,,,,,,,,,,,,,,,777,2022-01-20_01h58.35.702,multiplicationStroop,2021.2.3,Win32,59.31198102,,,,,right,1,0.4903,0,31,31,62,1,8,8,8 | 8,0,1.4111,1.9756,neutral,right,,,,,,stimulusFile/physical.xlsx,,,,,,,,,,,,,,,,,,,,,,,,,,,,,,,
,,,,,,,,,,,,,,,777,2022-01-20_01h58.35.702,multiplicationStroop,2021.2.3,Win32,59.31198102,,,,,right,1,0.4681,0,32,32,3,1,8,9,8 | 9,1,1.4111,1.9756,congruent,right,,,,,,stimulusFile/physical.xlsx,,,,,,,,,,,,,,,,,,,,,,,,,,,,,,,
,,,,,,,,,,,,,,,777,2022-01-20_01h58.35.702,multiplicationStroop,2021.2.3,Win32,59.31198102,,,,,right,1,1.1246,0,33,33,56,1,1,1,1 | 1,0,1.4111,1.9756,neutral,right,,,,,,stimulusFile/physical.xlsx,,,,,,,,,,,,,,,,,,,,,,,,,,,,,,,
,,,,,,,,,,,,,,,777,2022-01-20_01h58.35.702,multiplicationStroop,2021.2.3,Win32,59.31198102,,,,,right,1,0.4761,0,34,34,11,1,7,9,7 | 9,2,1.4111,1.9756,congruent,right,,,,,,stimulusFile/physical.xlsx,,,,,,,,,,,,,,,,,,,,,,,,,,,,,,,
,,,,,,,,,,,,,,,777,2022-01-20_01h58.35.702,multiplicationStroop,2021.2.3,Win32,59.31198102,,,,,left,1,0.4775,0,35,35,13,1,4,2,4 | 2,2,1.9756,1.4111,congruent,left,,,,,,stimulusFile/physical.xlsx,,,,,,,,,,,,,,,,,,,,,,,,,,,,,,,
,,,,,,,,,,,,,,,777,2022-01-20_01h58.35.702,multiplicationStroop,2021.2.3,Win32,59.31198102,,,,,right,0,0.4514,0,36,36,40,1,1,6,1 | 6,5,1.9756,1.4111,incongruent,left,,,,,,stimulusFile/physical.xlsx,,,,,,,,,,,,,,,,,,,,,,,,,,,,,,,
,,,,,,,,,,,,,,,777,2022-01-20_01h58.35.702,multiplicationStroop,2021.2.3,Win32,59.31198102,,,,,left,1,0.619,0,37,37,32,1,1,3,1 | 3,2,1.9756,1.4111,incongruent,left,,,,,,stimulusFile/physical.xlsx,,,,,,,,,,,,,,,,,,,,,,,,,,,,,,,
,,,,,,,,,,,,,,,777,2022-01-20_01h58.35.702,multiplicationStroop,2021.2.3,Win32,59.31198102,,,,,right,0,0.4373,0,38,38,71,1,9,9,9 | 9,0,1.4111,1.9756,neutral,left,,,,,,stimulusFile/physical.xlsx,,,,,,,,,,,,,,,,,,,,,,,,,,,,,,,
,,,,,,,,,,,,,,,777,2022-01-20_01h58.35.702,multiplicationStroop,2021.2.3,Win32,59.31198102,,,,,right,1,0.5283,0,39,39,16,1,1,6,1 | 6,5,1.4111,1.9756,congruent,right,,,,,,stimulusFile/physical.xlsx,,,,,,,,,,,,,,,,,,,,,,,,,,,,,,,
,,,,,,,,,,,,,,,777,2022-01-20_01h58.35.702,multiplicationStroop,2021.2.3,Win32,59.31198102,,,,,right,1,0.4954,0,40,40,37,1,4,2,4 | 2,2,1.4111,1.9756,incongruent,right,,,,,,stimulusFile/physical.xlsx,,,,,,,,,,,,,,,,,,,,,,,,,,,,,,,
,,,,,,,,,,,,,,,777,2022-01-20_01h58.35.702,multiplicationStroop,2021.2.3,Win32,59.31198102,,,,,right,1,0.4405,0,41,41,47,1,9,4,9 | 4,5,1.4111,1.9756,incongruent,right,,,,,,stimulusFile/physical.xlsx,,,,,,,,,,,,,,,,,,,,,,,,,,,,,,,
,,,,,,,,,,,,,,,777,2022-01-20_01h58.35.702,multiplicationStroop,2021.2.3,Win32,59.31198102,,,,,right,1,0.6114,0,42,42,59,1,7,7,7 | 7,0,1.4111,1.9756,neutral,right,,,,,,stimulusFile/physical.xlsx,,,,,,,,,,,,,,,,,,,,,,,,,,,,,,,
,,,,,,,,,,,,,,,777,2022-01-20_01h58.35.702,multiplicationStroop,2021.2.3,Win32,59.31198102,,,,,right,1,0.4877,0,43,43,58,1,6,6,6 | 6,0,1.4111,1.9756,neutral,right,,,,,,stimulusFile/physical.xlsx,,,,,,,,,,,,,,,,,,,,,,,,,,,,,,,
,,,,,,,,,,,,,,,777,2022-01-20_01h58.35.702,multiplicationStroop,2021.2.3,Win32,59.31198102,,,,,right,1,0.5204,0,44,44,1,1,3,4,3 | 4,1,1.4111,1.9756,congruent,right,,,,,,stimulusFile/physical.xlsx,,,,,,,,,,,,,,,,,,,,,,,,,,,,,,,
,,,,,,,,,,,,,,,777,2022-01-20_01h58.35.702,multiplicationStroop,2021.2.3,Win32,59.31198102,,,,,left,1,0.6408,0,45,45,43,1,4,9,4 | 9,5,1.9756,1.4111,incongruent,left,,,,,,stimulusFile/physical.xlsx,,,,,,,,,,,,,,,,,,,,,,,,,,,,,,,
,,,,,,,,,,,,,,,777,2022-01-20_01h58.35.702,multiplicationStroop,2021.2.3,Win32,59.31198102,,,,,right,1,0.5706,0,46,46,67,1,4,4,4 | 4,0,1.4111,1.9756,neutral,right,,,,,,stimulusFile/physical.xlsx,,,,,,,,,,,,,,,,,,,,,,,,,,,,,,,
,,,,,,,,,,,,,,,777,2022-01-20_01h58.35.702,multiplicationStroop,2021.2.3,Win32,59.31198102,,,,,left,1,0.4404,0,47,47,20,1,6,1,6 | 1,5,1.9756,1.4111,congruent,left,,,,,,stimulusFile/physical.xlsx,,,,,,,,,,,,,,,,,,,,,,,,,,,,,,,
,,,,,,,,,,,,,,,777,2022-01-20_01h58.35.702,multiplicationStroop,2021.2.3,Win32,59.31198102,,,,,left,0,0.5015,0,48,48,66,1,3,3,3 | 3,0,1.9756,1.4111,neutral,right,,,,,,stimulusFile/physical.xlsx,,,,,,,,,,,,,,,,,,,,,,,,,,,,,,,
,,,,,,,,,,,,,,,777,2022-01-20_01h58.35.702,multiplicationStroop,2021.2.3,Win32,59.31198102,,,,,right,1,0.4761,0,49,49,38,1,8,6,8 | 6,2,1.4111,1.9756,incongruent,right,,,,,,stimulusFile/physical.xlsx,,,,,,,,,,,,,,,,,,,,,,,,,,,,,,,
,,,,,,,,,,,,,,,777,2022-01-20_01h58.35.702,multiplicationStroop,2021.2.3,Win32,59.31198102,,,,,left,1,0.7096,0,50,50,55,1,9,9,9 | 9,0,1.9756,1.4111,neutral,left,,,,,,stimulusFile/physical.xlsx,,,,,,,,,,,,,,,,,,,,,,,,,,,,,,,
,,,,,,,,,,,,,,,777,2022-01-20_01h58.35.702,multiplicationStroop,2021.2.3,Win32,59.31198102,,,,,right,1,0.4617,0,51,51,17,1,2,7,2 | 7,5,1.4111,1.9756,congruent,right,,,,,,stimulusFile/physical.xlsx,,,,,,,,,,,,,,,,,,,,,,,,,,,,,,,
,,,,,,,,,,,,,,,777,2022-01-20_01h58.35.702,multiplicationStroop,2021.2.3,Win32,59.31198102,,,,,left,1,0.4515,0,52,52,7,1,9,8,9 | 8,1,1.9756,1.4111,congruent,left,,,,,,stimulusFile/physical.xlsx,,,,,,,,,,,,,,,,,,,,,,,,,,,,,,,
,,,,,,,,,,,,,,,777,2022-01-20_01h58.35.702,multiplicationStroop,2021.2.3,Win32,59.31198102,,,,,right,1,0.474,0,53,53,61,1,4,4,4 | 4,0,1.4111,1.9756,neutral,right,,,,,,stimulusFile/physical.xlsx,,,,,,,,,,,,,,,,,,,,,,,,,,,,,,,
,,,,,,,,,,,,,,,777,2022-01-20_01h58.35.702,multiplicationStroop,2021.2.3,Win32,59.31198102,,,,,right,1,0.6513,0,54,54,44,1,6,1,6 | 1,5,1.4111,1.9756,incongruent,right,,,,,,stimulusFile/physical.xlsx,,,,,,,,,,,,,,,,,,,,,,,,,,,,,,,
,,,,,,,,,,,,,,,777,2022-01-20_01h58.35.702,multiplicationStroop,2021.2.3,Win32,59.31198102,,,,,left,1,0.4539,0,55,55,22,1,8,3,8 | 3,5,1.9756,1.4111,congruent,left,,,,,,stimulusFile/physical.xlsx,,,,,,,,,,,,,,,,,,,,,,,,,,,,,,,
,,,,,,,,,,,,,,,777,2022-01-20_01h58.35.702,multiplicationStroop,2021.2.3,Win32,59.31198102,,,,,right,1,0.485,0,56,56,45,1,7,2,7 | 2,5,1.4111,1.9756,incongruent,right,,,,,,stimulusFile/physical.xlsx,,,,,,,,,,,,,,,,,,,,,,,,,,,,,,,
,,,,,,,,,,,,,,,777,2022-01-20_01h58.35.702,multiplicationStroop,2021.2.3,Win32,59.31198102,,,,,left,1,0.489,0,57,57,54,1,7,7,7 | 7,0,1.9756,1.4111,neutral,left,,,,,,stimulusFile/physical.xlsx,,,,,,,,,,,,,,,,,,,,,,,,,,,,,,,
,,,,,,,,,,,,,,,777,2022-01-20_01h58.35.702,multiplicationStroop,2021.2.3,Win32,59.31198102,,,,,left,1,0.5698,0,58,58,41,1,2,7,2 | 7,5,1.9756,1.4111,incongruent,left,,,,,,stimulusFile/physical.xlsx,,,,,,,,,,,,,,,,,,,,,,,,,,,,,,,
,,,,,,,,,,,,,,,777,2022-01-20_01h58.35.702,multiplicationStroop,2021.2.3,Win32,59.31198102,,,,,right,0,0.4556,0,59,59,69,1,7,7,7 | 7,0,1.4111,1.9756,neutral,left,,,,,,stimulusFile/physical.xlsx,,,,,,,,,,,,,,,,,,,,,,,,,,,,,,,
,,,,,,,,,,,,,,,777,2022-01-20_01h58.35.702,multiplicationStroop,2021.2.3,Win32,59.31198102,,,,,right,1,0.4418,0,60,60,0,1,1,2,1 | 2,1,1.4111,1.9756,congruent,right,,,,,,stimulusFile/physical.xlsx,,,,,,,,,,,,,,,,,,,,,,,,,,,,,,,
,,,,,,,,,,,,,,,777,2022-01-20_01h58.35.702,multiplicationStroop,2021.2.3,Win32,59.31198102,,,,,right,1,0.5014,0,61,61,36,1,3,1,3 | 1,2,1.4111,1.9756,incongruent,right,,,,,,stimulusFile/physical.xlsx,,,,,,,,,,,,,,,,,,,,,,,,,,,,,,,
,,,,,,,,,,,,,,,777,2022-01-20_01h58.35.702,multiplicationStroop,2021.2.3,Win32,59.31198102,,,,,left,1,0.5857,0,62,62,24,1,1,2,1 | 2,1,1.9756,1.4111,incongruent,left,,,,,,stimulusFile/physical.xlsx,,,,,,,,,,,,,,,,,,,,,,,,,,,,,,,
,,,,,,,,,,,,,,,777,2022-01-20_01h58.35.702,multiplicationStroop,2021.2.3,Win32,59.31198102,,,,,left,1,0.5544,0,63,63,50,1,6,6,6 | 6,0,1.9756,1.4111,neutral,left,,,,,,stimulusFile/physical.xlsx,,,,,,,,,,,,,,,,,,,,,,,,,,,,,,,
,,,,,,,,,,,,,,,777,2022-01-20_01h58.35.702,multiplicationStroop,2021.2.3,Win32,59.31198102,,,,,left,1,0.7038,0,64,64,42,1,3,8,3 | 8,5,1.9756,1.4111,incongruent,left,,,,,,stimulusFile/physical.xlsx,,,,,,,,,,,,,,,,,,,,,,,,,,,,,,,
,,,,,,,,,,,,,,,777,2022-01-20_01h58.35.702,multiplicationStroop,2021.2.3,Win32,59.31198102,,,,,left,1,0.4875,0,65,65,68,1,6,6,6 | 6,0,1.9756,1.4111,neutral,left,,,,,,stimulusFile/physical.xlsx,,,,,,,,,,,,,,,,,,,,,,,,,,,,,,,
,,,,,,,,,,,,,,,777,2022-01-20_01h58.35.702,multiplicationStroop,2021.2.3,Win32,59.31198102,,,,,right,1,0.5018,0,66,66,57,1,2,2,2 | 2,0,1.4111,1.9756,neutral,right,,,,,,stimulusFile/physical.xlsx,,,,,,,,,,,,,,,,,,,,,,,,,,,,,,,
,,,,,,,,,,,,,,,777,2022-01-20_01h58.35.702,multiplicationStroop,2021.2.3,Win32,59.31198102,,,,,left,1,0.4682,0,67,67,33,1,2,4,2 | 4,2,1.9756,1.4111,incongruent,left,,,,,,stimulusFile/physical.xlsx,,,,,,,,,,,,,,,,,,,,,,,,,,,,,,,
,,,,,,,,,,,,,,,777,2022-01-20_01h58.35.702,multiplicationStroop,2021.2.3,Win32,59.31198102,,,,,right,1,0.4352,0,68,68,28,1,2,1,2 | 1,1,1.4111,1.9756,incongruent,right,,,,,,stimulusFile/physical.xlsx,,,,,,,,,,,,,,,,,,,,,,,,,,,,,,,
,,,,,,,,,,,,,,,777,2022-01-20_01h58.35.702,multiplicationStroop,2021.2.3,Win32,59.31198102,,,,,right,1,0.4787,0,69,69,60,1,3,3,3 | 3,0,1.4111,1.9756,neutral,right,,,,,,stimulusFile/physical.xlsx,,,,,,,,,,,,,,,,,,,,,,,,,,,,,,,
,,,,,,,,,,,,,,,777,2022-01-20_01h58.35.702,multiplicationStroop,2021.2.3,Win32,59.31198102,,,,,left,1,0.4716,0,70,70,70,1,8,8,8 | 8,0,1.9756,1.4111,neutral,left,,,,,,stimulusFile/physical.xlsx,,,,,,,,,,,,,,,,,,,,,,,,,,,,,,,
,,,,,,,,,,,,,,,777,2022-01-20_01h58.35.702,multiplicationStroop,2021.2.3,Win32,59.31198102,,,,,left,1,0.4512,0,71,71,51,1,8,8,8 | 8,0,1.9756,1.4111,neutral,left,,,,,,stimulusFile/physical.xlsx,,,,,,,,,,,,,,,,,,,,,,,,,,,,,,,
,,,,,,,,,,,,,,,777,2022-01-20_01h58.35.702,multiplicationStroop,2021.2.3,Win32,59.31198102,,,,,,,,,,,,,,,,,,,,,0,0,0,1,1,stimulusFile/physical.xlsx,PHYSICALLY larger (larger font size).,images/physicallyLarger.png,,,,,,,,,,,,,,,,,,,,,,,,,,,,,
,,,,,,,,,,,,,,,777,2022-01-20_01h58.35.702,multiplicationStroop,2021.2.3,Win32,59.31198102,space,4.3583,space,15.59,right,1,0.6831,0,0,0,18,1,3,8,3 | 8,5,1.4111,1.9756,congruent,right,,,,,,stimulusFile/magnitude.xlsx,,,,,,,,,,,,,,,,,,,,,,,,,,,,,,,
,,,,,,,,,,,,,,,777,2022-01-20_01h58.35.702,multiplicationStroop,2021.2.3,Win32,59.31198102,,,,,right,1,0.9276,0,1,1,27,1,8,9,8 | 9,1,1.9756,1.4111,incongruent,right,,,,,,stimulusFile/magnitude.xlsx,,,,,,,,,,,,,,,,,,,,,,,,,,,,,,,
,,,,,,,,,,,,,,,777,2022-01-20_01h58.35.702,multiplicationStroop,2021.2.3,Win32,59.31198102,,,,,left,1,0.7881,0,2,2,61,1,4,2,4 | 2,2,1.6933,1.6933,neutral,left,,,,,,stimulusFile/magnitude.xlsx,,,,,,,,,,,,,,,,,,,,,,,,,,,,,,,
,,,,,,,,,,,,,,,777,2022-01-20_01h58.35.702,multiplicationStroop,2021.2.3,Win32,59.31198102,,,,,right,1,0.6167,0,3,3,66,1,3,8,3 | 8,5,1.6933,1.6933,neutral,right,,,,,,stimulusFile/magnitude.xlsx,,,,,,,,,,,,,,,,,,,,,,,,,,,,,,,
,,,,,,,,,,,,,,,777,2022-01-20_01h58.35.702,multiplicationStroop,2021.2.3,Win32,59.31198102,,,,,left,1,0.5441,0,4,4,45,1,7,2,7 | 2,5,1.4111,1.9756,incongruent,left,,,,,,stimulusFile/magnitude.xlsx,,,,,,,,,,,,,,,,,,,,,,,,,,,,,,,
,,,,,,,,,,,,,,,777,2022-01-20_01h58.35.702,multiplicationStroop,2021.2.3,Win32,59.31198102,,,,,right,1,0.6141,0,5,5,56,1,1,3,1 | 3,2,1.6933,1.6933,neutral,right,,,,,,stimulusFile/magnitude.xlsx,,,,,,,,,,,,,,,,,,,,,,,,,,,,,,,
,,,,,,,,,,,,,,,777,2022-01-20_01h58.35.702,multiplicationStroop,2021.2.3,Win32,59.31198102,,,,,right,1,0.7231,0,6,6,64,1,1,6,1 | 6,5,1.6933,1.6933,neutral,right,,,,,,stimulusFile/magnitude.xlsx,,,,,,,,,,,,,,,,,,,,,,,,,,,,,,,
,,,,,,,,,,,,,,,777,2022-01-20_01h58.35.702,multiplicationStroop,2021.2.3,Win32,59.31198102,,,,,left,1,0.4892,0,7,7,53,1,4,3,4 | 3,1,1.6933,1.6933,neutral,left,,,,,,stimulusFile/magnitude.xlsx,,,,,,,,,,,,,,,,,,,,,,,,,,,,,,,
,,,,,,,,,,,,,,,777,2022-01-20_01h58.35.702,multiplicationStroop,2021.2.3,Win32,59.31198102,,,,,right,1,0.6384,0,8,8,57,1,2,4,2 | 4,2,1.6933,1.6933,neutral,right,,,,,,stimulusFile/magnitude.xlsx,,,,,,,,,,,,,,,,,,,,,,,,,,,,,,,
,,,,,,,,,,,,,,,777,2022-01-20_01h58.35.702,multiplicationStroop,2021.2.3,Win32,59.31198102,,,,,left,1,0.5981,0,9,9,38,1,8,6,8 | 6,2,1.4111,1.9756,incongruent,left,,,,,,stimulusFile/magnitude.xlsx,,,,,,,,,,,,,,,,,,,,,,,,,,,,,,,
,,,,,,,,,,,,,,,777,2022-01-20_01h58.35.702,multiplicationStroop,2021.2.3,Win32,59.31198102,,,,,left,1,0.4592,0,10,10,70,1,8,3,8 | 3,5,1.6933,1.6933,neutral,left,,,,,,stimulusFile/magnitude.xlsx,,,,,,,,,,,,,,,,,,,,,,,,,,,,,,,
,,,,,,,,,,,,,,,777,2022-01-20_01h58.35.702,multiplicationStroop,2021.2.3,Win32,59.31198102,,,,,left,1,0.5155,0,11,11,23,1,9,4,9 | 4,5,1.9756,1.4111,congruent,left,,,,,,stimulusFile/magnitude.xlsx,,,,,,,,,,,,,,,,,,,,,,,,,,,,,,,
,,,,,,,,,,,,,,,777,2022-01-20_01h58.35.702,multiplicationStroop,2021.2.3,Win32,59.31198102,,,,,right,1,0.4582,0,12,12,10,1,6,8,6 | 8,2,1.4111,1.9756,congruent,right,,,,,,stimulusFile/magnitude.xlsx,,,,,,,,,,,,,,,,,,,,,,,,,,,,,,,
,,,,,,,,,,,,,,,777,2022-01-20_01h58.35.702,multiplicationStroop,2021.2.3,Win32,59.31198102,,,,,left,1,0.5567,0,13,13,44,1,6,1,6 | 1,5,1.4111,1.9756,incongruent,left,,,,,,stimulusFile/magnitude.xlsx,,,,,,,,,,,,,,,,,,,,,,,,,,,,,,,
,,,,,,,,,,,,,,,777,2022-01-20_01h58.35.702,multiplicationStroop,2021.2.3,Win32,59.31198102,,,,,left,1,0.5357,0,14,14,71,1,9,4,9 | 4,5,1.6933,1.6933,neutral,left,,,,,,stimulusFile/magnitude.xlsx,,,,,,,,,,,,,,,,,,,,,,,,,,,,,,,
,,,,,,,,,,,,,,,777,2022-01-20_01h58.35.702,multiplicationStroop,2021.2.3,Win32,59.31198102,,,,,left,1,0.65,0,15,15,28,1,2,1,2 | 1,1,1.4111,1.9756,incongruent,left,,,,,,stimulusFile/magnitude.xlsx,,,,,,,,,,,,,,,,,,,,,,,,,,,,,,,
,,,,,,,,,,,,,,,777,2022-01-20_01h58.35.702,multiplicationStroop,2021.2.3,Win32,59.31198102,,,,,right,1,0.5724,0,16,16,9,1,2,4,2 | 4,2,1.4111,1.9756,congruent,right,,,,,,stimulusFile/magnitude.xlsx,,,,,,,,,,,,,,,,,,,,,,,,,,,,,,,
,,,,,,,,,,,,,,,777,2022-01-20_01h58.35.702,multiplicationStroop,2021.2.3,Win32,59.31198102,,,,,right,1,0.7363,0,17,17,48,1,1,2,1 | 2,1,1.6933,1.6933,neutral,right,,,,,,stimulusFile/magnitude.xlsx,,,,,,,,,,,,,,,,,,,,,,,,,,,,,,,
,,,,,,,,,,,,,,,777,2022-01-20_01h58.35.702,multiplicationStroop,2021.2.3,Win32,59.31198102,,,,,left,1,0.7704,0,18,18,30,1,7,6,7 | 6,1,1.4111,1.9756,incongruent,left,,,,,,stimulusFile/magnitude.xlsx,,,,,,,,,,,,,,,,,,,,,,,,,,,,,,,
,,,,,,,,,,,,,,,777,2022-01-20_01h58.35.702,multiplicationStroop,2021.2.3,Win32,59.31198102,,,,,right,1,0.5643,0,19,19,40,1,1,6,1 | 6,5,1.9756,1.4111,incongruent,right,,,,,,stimulusFile/magnitude.xlsx,,,,,,,,,,,,,,,,,,,,,,,,,,,,,,,
,,,,,,,,,,,,,,,777,2022-01-20_01h58.35.702,multiplicationStroop,2021.2.3,Win32,59.31198102,,,,,left,1,0.4881,0,20,20,60,1,3,1,3 | 1,2,1.6933,1.6933,neutral,left,,,,,,stimulusFile/magnitude.xlsx,,,,,,,,,,,,,,,,,,,,,,,,,,,,,,,
,,,,,,,,,,,,,,,777,2022-01-20_01h58.35.702,multiplicationStroop,2021.2.3,Win32,59.31198102,,,,,left,1,0.5191,0,21,21,52,1,2,1,2 | 1,1,1.6933,1.6933,neutral,left,,,,,,stimulusFile/magnitude.xlsx,,,,,,,,,,,,,,,,,,,,,,,,,,,,,,,
,,,,,,,,,,,,,,,777,2022-01-20_01h58.35.702,multiplicationStroop,2021.2.3,Win32,59.31198102,,,,,right,1,0.4739,0,22,22,59,1,7,9,7 | 9,2,1.6933,1.6933,neutral,right,,,,,,stimulusFile/magnitude.xlsx,,,,,,,,,,,,,,,,,,,,,,,,,,,,,,,
,,,,,,,,,,,,,,,777,2022-01-20_01h58.35.702,multiplicationStroop,2021.2.3,Win32,59.31198102,,,,,right,1,0.7976,0,23,23,49,1,3,4,3 | 4,1,1.6933,1.6933,neutral,right,,,,,,stimulusFile/magnitude.xlsx,,,,,,,,,,,,,,,,,,,,,,,,,,,,,,,
,,,,,,,,,,,,,,,777,2022-01-20_01h58.35.702,multiplicationStroop,2021.2.3,Win32,59.31198102,,,,,left,1,0.4503,0,24,24,68,1,6,1,6 | 1,5,1.6933,1.6933,neutral,left,,,,,,stimulusFile/magnitude.xlsx,,,,,,,,,,,,,,,,,,,,,,,,,,,,,,,
,,,,,,,,,,,,,,,777,2022-01-20_01h58.35.702,multiplicationStroop,2021.2.3,Win32,59.31198102,,,,,right,1,0.4838,0,25,25,2,1,6,7,6 | 7,1,1.4111,1.9756,congruent,right,,,,,,stimulusFile/magnitude.xlsx,,,,,,,,,,,,,,,,,,,,,,,,,,,,,,,
,,,,,,,,,,,,,,,777,2022-01-20_01h58.35.702,multiplicationStroop,2021.2.3,Win32,59.31198102,,,,,left,1,0.6159,0,26,26,55,1,9,8,9 | 8,1,1.6933,1.6933,neutral,left,,,,,,stimulusFile/magnitude.xlsx,,,,,,,,,,,,,,,,,,,,,,,,,,,,,,,
,,,,,,,,,,,,,,,777,2022-01-20_01h58.35.702,multiplicationStroop,2021.2.3,Win32,59.31198102,,,,,left,1,0.7067,0,27,27,4,1,2,1,2 | 1,1,1.9756,1.4111,congruent,left,,,,,,stimulusFile/magnitude.xlsx,,,,,,,,,,,,,,,,,,,,,,,,,,,,,,,
,,,,,,,,,,,,,,,777,2022-01-20_01h58.35.702,multiplicationStroop,2021.2.3,Win32,59.31198102,,,,,right,1,0.4749,0,28,28,17,1,2,7,2 | 7,5,1.4111,1.9756,congruent,right,,,,,,stimulusFile/magnitude.xlsx,,,,,,,,,,,,,,,,,,,,,,,,,,,,,,,
,,,,,,,,,,,,,,,777,2022-01-20_01h58.35.702,multiplicationStroop,2021.2.3,Win32,59.31198102,,,,,right,1,0.7896,0,29,29,35,1,7,9,7 | 9,2,1.9756,1.4111,incongruent,right,,,,,,stimulusFile/magnitude.xlsx,,,,,,,,,,,,,,,,,,,,,,,,,,,,,,,
,,,,,,,,,,,,,,,777,2022-01-20_01h58.35.702,multiplicationStroop,2021.2.3,Win32,59.31198102,,,,,left,1,0.5811,0,30,30,31,1,9,8,9 | 8,1,1.4111,1.9756,incongruent,left,,,,,,stimulusFile/magnitude.xlsx,,,,,,,,,,,,,,,,,,,,,,,,,,,,,,,
,,,,,,,,,,,,,,,777,2022-01-20_01h58.35.702,multiplicationStroop,2021.2.3,Win32,59.31198102,,,,,right,1,0.5119,0,31,31,8,1,1,3,1 | 3,2,1.4111,1.9756,congruent,right,,,,,,stimulusFile/magnitude.xlsx,,,,,,,,,,,,,,,,,,,,,,,,,,,,,,,
,,,,,,,,,,,,,,,777,2022-01-20_01h58.35.702,multiplicationStroop,2021.2.3,Win32,59.31198102,,,,,left,0,0.4569,0,32,32,26,1,6,7,6 | 7,1,1.9756,1.4111,incongruent,right,,,,,,stimulusFile/magnitude.xlsx,,,,,,,,,,,,,,,,,,,,,,,,,,,,,,,
,,,,,,,,,,,,,,,777,2022-01-20_01h58.35.702,multiplicationStroop,2021.2.3,Win32,59.31198102,,,,,right,0,0.4439,0,33,33,39,1,9,7,9 | 7,2,1.4111,1.9756,incongruent,left,,,,,,stimulusFile/magnitude.xlsx,,,,,,,,,,,,,,,,,,,,,,,,,,,,,,,
,,,,,,,,,,,,,,,777,2022-01-20_01h58.35.702,multiplicationStroop,2021.2.3,Win32,59.31198102,,,,,right,1,0.6596,0,34,34,11,1,7,9,7 | 9,2,1.4111,1.9756,congruent,right,,,,,,stimulusFile/magnitude.xlsx,,,,,,,,,,,,,,,,,,,,,,,,,,,,,,,
,,,,,,,,,,,,,,,777,2022-01-20_01h58.35.702,multiplicationStroop,2021.2.3,Win32,59.31198102,,,,,left,0,0.9055,0,35,35,42,1,3,8,3 | 8,5,1.9756,1.4111,incongruent,right,,,,,,stimulusFile/magnitude.xlsx,,,,,,,,,,,,,,,,,,,,,,,,,,,,,,,
,,,,,,,,,,,,,,,777,2022-01-20_01h58.35.702,multiplicationStroop,2021.2.3,Win32,59.31198102,,,,,left,1,1.0202,0,36,36,47,1,9,4,9 | 4,5,1.4111,1.9756,incongruent,left,,,,,,stimulusFile/magnitude.xlsx,,,,,,,,,,,,,,,,,,,,,,,,,,,,,,,
,,,,,,,,,,,,,,,777,2022-01-20_01h58.35.702,multiplicationStroop,2021.2.3,Win32,59.31198102,,,,,left,1,0.638,0,37,37,20,1,6,1,6 | 1,5,1.9756,1.4111,congruent,left,,,,,,stimulusFile/magnitude.xlsx,,,,,,,,,,,,,,,,,,,,,,,,,,,,,,,
,,,,,,,,,,,,,,,777,2022-01-20_01h58.35.702,multiplicationStroop,2021.2.3,Win32,59.31198102,,,,,left,1,0.884,0,38,38,6,1,7,6,7 | 6,1,1.9756,1.4111,congruent,left,,,,,,stimulusFile/magnitude.xlsx,,,,,,,,,,,,,,,,,,,,,,,,,,,,,,,
,,,,,,,,,,,,,,,777,2022-01-20_01h58.35.702,multiplicationStroop,2021.2.3,Win32,59.31198102,,,,,left,1,0.9705,0,39,39,36,1,3,1,3 | 1,2,1.4111,1.9756,incongruent,left,,,,,,stimulusFile/magnitude.xlsx,,,,,,,,,,,,,,,,,,,,,,,,,,,,,,,
,,,,,,,,,,,,,,,777,2022-01-20_01h58.35.702,multiplicationStroop,2021.2.3,Win32,59.31198102,,,,,right,1,0.6012,0,40,40,16,1,1,6,1 | 6,5,1.4111,1.9756,congruent,right,,,,,,stimulusFile/magnitude.xlsx,,,,,,,,,,,,,,,,,,,,,,,,,,,,,,,
,,,,,,,,,,,,,,,777,2022-01-20_01h58.35.702,multiplicationStroop,2021.2.3,Win32,59.31198102,,,,,right,1,0.8553,0,41,41,25,1,3,4,3 | 4,1,1.9756,1.4111,incongruent,right,,,,,,stimulusFile/magnitude.xlsx,,,,,,,,,,,,,,,,,,,,,,,,,,,,,,,
,,,,,,,,,,,,,,,777,2022-01-20_01h58.35.702,multiplicationStroop,2021.2.3,Win32,59.31198102,,,,,left,1,0.7204,0,42,42,54,1,7,6,7 | 6,1,1.6933,1.6933,neutral,left,,,,,,stimulusFile/magnitude.xlsx,,,,,,,,,,,,,,,,,,,,,,,,,,,,,,,
,,,,,,,,,,,,,,,777,2022-01-20_01h58.35.702,multiplicationStroop,2021.2.3,Win32,59.31198102,,,,,left,1,0.6707,0,43,43,7,1,9,8,9 | 8,1,1.9756,1.4111,congruent,left,,,,,,stimulusFile/magnitude.xlsx,,,,,,,,,,,,,,,,,,,,,,,,,,,,,,,
,,,,,,,,,,,,,,,777,2022-01-20_01h58.35.702,multiplicationStroop,2021.2.3,Win32,59.31198102,,,,,left,1,0.6749,0,44,44,37,1,4,2,4 | 2,2,1.4111,1.9756,incongruent,left,,,,,,stimulusFile/magnitude.xlsx,,,,,,,,,,,,,,,,,,,,,,,,,,,,,,,
,,,,,,,,,,,,,,,777,2022-01-20_01h58.35.702,multiplicationStroop,2021.2.3,Win32,59.31198102,,,,,left,1,0.685,0,45,45,63,1,9,7,9 | 7,2,1.6933,1.6933,neutral,left,,,,,,stimulusFile/magnitude.xlsx,,,,,,,,,,,,,,,,,,,,,,,,,,,,,,,
,,,,,,,,,,,,,,,777,2022-01-20_01h58.35.702,multiplicationStroop,2021.2.3,Win32,59.31198102,,,,,left,1,0.9111,0,46,46,5,1,4,3,4 | 3,1,1.9756,1.4111,congruent,left,,,,,,stimulusFile/magnitude.xlsx,,,,,,,,,,,,,,,,,,,,,,,,,,,,,,,
,,,,,,,,,,,,,,,777,2022-01-20_01h58.35.702,multiplicationStroop,2021.2.3,Win32,59.31198102,,,,,right,1,0.7758,0,47,47,34,1,6,8,6 | 8,2,1.9756,1.4111,incongruent,right,,,,,,stimulusFile/magnitude.xlsx,,,,,,,,,,,,,,,,,,,,,,,,,,,,,,,
,,,,,,,,,,,,,,,777,2022-01-20_01h58.35.702,multiplicationStroop,2021.2.3,Win32,59.31198102,,,,,right,1,0.8694,0,48,48,65,1,2,7,2 | 7,5,1.6933,1.6933,neutral,right,,,,,,stimulusFile/magnitude.xlsx,,,,,,,,,,,,,,,,,,,,,,,,,,,,,,,
,,,,,,,,,,,,,,,777,2022-01-20_01h58.35.702,multiplicationStroop,2021.2.3,Win32,59.31198102,,,,,left,1,0.6824,0,49,49,14,1,8,6,8 | 6,2,1.9756,1.4111,congruent,left,,,,,,stimulusFile/magnitude.xlsx,,,,,,,,,,,,,,,,,,,,,,,,,,,,,,,
,,,,,,,,,,,,,,,777,2022-01-20_01h58.35.702,multiplicationStroop,2021.2.3,Win32,59.31198102,,,,,right,1,0.5378,0,50,50,0,1,1,2,1 | 2,1,1.4111,1.9756,congruent,right,,,,,,stimulusFile/magnitude.xlsx,,,,,,,,,,,,,,,,,,,,,,,,,,,,,,,
,,,,,,,,,,,,,,,777,2022-01-20_01h58.35.702,multiplicationStroop,2021.2.3,Win32,59.31198102,,,,,right,1,0.8256,0,51,51,33,1,2,4,2 | 4,2,1.9756,1.4111,incongruent,right,,,,,,stimulusFile/magnitude.xlsx,,,,,,,,,,,,,,,,,,,,,,,,,,,,,,,
,,,,,,,,,,,,,,,777,2022-01-20_01h58.35.702,multiplicationStroop,2021.2.3,Win32,59.31198102,,,,,right,1,0.6565,0,52,52,19,1,4,9,4 | 9,5,1.4111,1.9756,congruent,right,,,,,,stimulusFile/magnitude.xlsx,,,,,,,,,,,,,,,,,,,,,,,,,,,,,,,
,,,,,,,,,,,,,,,777,2022-01-20_01h58.35.702,multiplicationStroop,2021.2.3,Win32,59.31198102,,,,,right,1,0.5645,0,53,53,24,1,1,2,1 | 2,1,1.9756,1.4111,incongruent,right,,,,,,stimulusFile/magnitude.xlsx,,,,,,,,,,,,,,,,,,,,,,,,,,,,,,,
,,,,,,,,,,,,,,,777,2022-01-20_01h58.35.702,multiplicationStroop,2021.2.3,Win32,59.31198102,,,,,left,1,1.0526,0,54,54,29,1,4,3,4 | 3,1,1.4111,1.9756,incongruent,left,,,,,,stimulusFile/magnitude.xlsx,,,,,,,,,,,,,,,,,,,,,,,,,,,,,,,
,,,,,,,,,,,,,,,777,2022-01-20_01h58.35.702,multiplicationStroop,2021.2.3,Win32,59.31198102,,,,,right,1,0.5306,0,55,55,32,1,1,3,1 | 3,2,1.9756,1.4111,incongruent,right,,,,,,stimulusFile/magnitude.xlsx,,,,,,,,,,,,,,,,,,,,,,,,,,,,,,,
,,,,,,,,,,,,,,,777,2022-01-20_01h58.35.702,multiplicationStroop,2021.2.3,Win32,59.31198102,,,,,right,1,0.7992,0,56,56,50,1,6,7,6 | 7,1,1.6933,1.6933,neutral,right,,,,,,stimulusFile/magnitude.xlsx,,,,,,,,,,,,,,,,,,,,,,,,,,,,,,,
,,,,,,,,,,,,,,,777,2022-01-20_01h58.35.702,multiplicationStroop,2021.2.3,Win32,59.31198102,,,,,right,1,1.1148,0,57,57,3,1,8,9,8 | 9,1,1.4111,1.9756,congruent,right,,,,,,stimulusFile/magnitude.xlsx,,,,,,,,,,,,,,,,,,,,,,,,,,,,,,,
,,,,,,,,,,,,,,,777,2022-01-20_01h58.35.702,multiplicationStroop,2021.2.3,Win32,59.31198102,,,,,left,1,0.7094,0,58,58,22,1,8,3,8 | 3,5,1.9756,1.4111,congruent,left,,,,,,stimulusFile/magnitude.xlsx,,,,,,,,,,,,,,,,,,,,,,,,,,,,,,,
,,,,,,,,,,,,,,,777,2022-01-20_01h58.35.702,multiplicationStroop,2021.2.3,Win32,59.31198102,,,,,left,1,0.9097,0,59,59,46,1,8,3,8 | 3,5,1.4111,1.9756,incongruent,left,,,,,,stimulusFile/magnitude.xlsx,,,,,,,,,,,,,,,,,,,,,,,,,,,,,,,
,,,,,,,,,,,,,,,777,2022-01-20_01h58.35.702,multiplicationStroop,2021.2.3,Win32,59.31198102,,,,,right,1,0.6387,0,60,60,1,1,3,4,3 | 4,1,1.4111,1.9756,congruent,right,,,,,,stimulusFile/magnitude.xlsx,,,,,,,,,,,,,,,,,,,,,,,,,,,,,,,
,,,,,,,,,,,,,,,777,2022-01-20_01h58.35.702,multiplicationStroop,2021.2.3,Win32,59.31198102,,,,,left,1,0.5013,0,61,61,12,1,3,1,3 | 1,2,1.9756,1.4111,congruent,left,,,,,,stimulusFile/magnitude.xlsx,,,,,,,,,,,,,,,,,,,,,,,,,,,,,,,
,,,,,,,,,,,,,,,777,2022-01-20_01h58.35.702,multiplicationStroop,2021.2.3,Win32,59.31198102,,,,,right,1,0.6085,0,62,62,67,1,4,9,4 | 9,5,1.6933,1.6933,neutral,right,,,,,,stimulusFile/magnitude.xlsx,,,,,,,,,,,,,,,,,,,,,,,,,,,,,,,
,,,,,,,,,,,,,,,777,2022-01-20_01h58.35.702,multiplicationStroop,2021.2.3,Win32,59.31198102,,,,,left,1,0.6227,0,63,63,62,1,8,6,8 | 6,2,1.6933,1.6933,neutral,left,,,,,,stimulusFile/magnitude.xlsx,,,,,,,,,,,,,,,,,,,,,,,,,,,,,,,
,,,,,,,,,,,,,,,777,2022-01-20_01h58.35.702,multiplicationStroop,2021.2.3,Win32,59.31198102,,,,,right,1,0.7978,0,64,64,58,1,6,8,6 | 8,2,1.6933,1.6933,neutral,right,,,,,,stimulusFile/magnitude.xlsx,,,,,,,,,,,,,,,,,,,,,,,,,,,,,,,
,,,,,,,,,,,,,,,777,2022-01-20_01h58.35.702,multiplicationStroop,2021.2.3,Win32,59.31198102,,,,,right,1,0.6776,0,65,65,51,1,8,9,8 | 9,1,1.6933,1.6933,neutral,right,,,,,,stimulusFile/magnitude.xlsx,,,,,,,,,,,,,,,,,,,,,,,,,,,,,,,
,,,,,,,,,,,,,,,777,2022-01-20_01h58.35.702,multiplicationStroop,2021.2.3,Win32,59.31198102,,,,,left,1,0.4745,0,66,66,13,1,4,2,4 | 2,2,1.9756,1.4111,congruent,left,,,,,,stimulusFile/magnitude.xlsx,,,,,,,,,,,,,,,,,,,,,,,,,,,,,,,
,,,,,,,,,,,,,,,777,2022-01-20_01h58.35.702,multiplicationStroop,2021.2.3,Win32,59.31198102,,,,,left,1,0.5501,0,67,67,21,1,7,2,7 | 2,5,1.9756,1.4111,congruent,left,,,,,,stimulusFile/magnitude.xlsx,,,,,,,,,,,,,,,,,,,,,,,,,,,,,,,
,,,,,,,,,,,,,,,777,2022-01-20_01h58.35.702,multiplicationStroop,2021.2.3,Win32,59.31198102,,,,,left,1,0.5537,0,68,68,15,1,9,7,9 | 7,2,1.9756,1.4111,congruent,left,,,,,,stimulusFile/magnitude.xlsx,,,,,,,,,,,,,,,,,,,,,,,,,,,,,,,
,,,,,,,,,,,,,,,777,2022-01-20_01h58.35.702,multiplicationStroop,2021.2.3,Win32,59.31198102,,,,,left,1,0.5864,0,69,69,69,1,7,2,7 | 2,5,1.6933,1.6933,neutral,left,,,,,,stimulusFile/magnitude.xlsx,,,,,,,,,,,,,,,,,,,,,,,,,,,,,,,
,,,,,,,,,,,,,,,777,2022-01-20_01h58.35.702,multiplicationStroop,2021.2.3,Win32,59.31198102,,,,,right,1,0.6093,0,70,70,43,1,4,9,4 | 9,5,1.9756,1.4111,incongruent,right,,,,,,stimulusFile/magnitude.xlsx,,,,,,,,,,,,,,,,,,,,,,,,,,,,,,,
,,,,,,,,,,,,,,,777,2022-01-20_01h58.35.702,multiplicationStroop,2021.2.3,Win32,59.31198102,,,,,right,1,0.6259,0,71,71,41,1,2,7,2 | 7,5,1.9756,1.4111,incongruent,right,,,,,,stimulusFile/magnitude.xlsx,,,,,,,,,,,,,,,,,,,,,,,,,,,,,,,
,,,,,,,,,,,,,,,777,2022-01-20_01h58.35.702,multiplicationStroop,2021.2.3,Win32,59.31198102,,,,,,,,,,,,,,,,,,,,,0,1,1,0,1,stimulusFile/magnitude.xlsx,NUMERICALLY larger (larger coefficient).,images/numericallyLarger.png,,,,,,,,,,,,,,,,,,,,,,,,,,,,,
,,,,,,,,,,,,,,,777,2022-01-20_01h58.35.702,multiplicationStroop,2021.2.3,Win32,59.31198102,,,,,,,,,,,,,,,,,,,,,,,,,,,,,space,9.2525,space,3.2351,9,7.0121,1,0,0,0,29,1,3,×,3,3 × 3,neutral,tie,2,1,9,,,,,,,,
,,,,,,,,,,,,,,,777,2022-01-20_01h58.35.702,multiplicationStroop,2021.2.3,Win32,59.31198102,,,,,,,,,,,,,,,,,,,,,,,,,,,,,,,,,40,2.7265,1,0,1,1,6,1,5,×,8,5 × 8,congruent,smallerFirst,1,2,40,,,,,,,,
,,,,,,,,,,,,,,,777,2022-01-20_01h58.35.702,multiplicationStroop,2021.2.3,Win32,59.31198102,,,,,,,,,,,,,,,,,,,,,,,,,,,,,,,,,36,3.9011,1,0,2,2,0,1,4,×,9,4 × 9,congruent,smallerFirst,1,2,36,,,,,,,,
,,,,,,,,,,,,,,,777,2022-01-20_01h58.35.702,multiplicationStroop,2021.2.3,Win32,59.31198102,,,,,,,,,,,,,,,,,,,,,,,,,,,,,,,,,14,1.9438,1,0,3,3,14,1,7,×,2,7 × 2,congruent,largerFirst,2,1,14,,,,,,,,
,,,,,,,,,,,,,,,777,2022-01-20_01h58.35.702,multiplicationStroop,2021.2.3,Win32,59.31198102,,,,,,,,,,,,,,,,,,,,,,,,,,,,,,,,,64,3.2014,1,0,4,4,34,1,8,×,8,8 × 8,neutral,tie,2,1,64,,,,,,,,
,,,,,,,,,,,,,,,777,2022-01-20_01h58.35.702,multiplicationStroop,2021.2.3,Win32,59.31198102,,,,,,,,,,,,,,,,,,,,,,,,,,,,,,,,,15,1.9249,1,0,5,5,4,1,3,×,5,3 × 5,congruent,smallerFirst,1,2,15,,,,,,,,
,,,,,,,,,,,,,,,777,2022-01-20_01h58.35.702,multiplicationStroop,2021.2.3,Win32,59.31198102,,,,,,,,,,,,,,,,,,,,,,,,,,,,,,,,,20,2.3848,1,0,6,6,7,1,4,×,5,4 × 5,congruent,smallerFirst,1,2,20,,,,,,,,
,,,,,,,,,,,,,,,777,2022-01-20_01h58.35.702,multiplicationStroop,2021.2.3,Win32,59.31198102,,,,,,,,,,,,,,,,,,,,,,,,,,,,,,,,,63,5.2511,1,0,7,7,21,1,9,×,7,9 × 7,congruent,largerFirst,2,1,63,,,,,,,,
,,,,,,,,,,,,,,,777,2022-01-20_01h58.35.702,multiplicationStroop,2021.2.3,Win32,59.31198102,,,,,,,,,,,,,,,,,,,,,,,,,,,,,,,,,24,1.9423,1,0,8,8,25,1,6,×,4,6 × 4,congruent,largerFirst,2,1,24,,,,,,,,
,,,,,,,,,,,,,,,777,2022-01-20_01h58.35.702,multiplicationStroop,2021.2.3,Win32,59.31198102,,,,,,,,,,,,,,,,,,,,,,,,,,,,,,,,,30,2.3669,1,0,9,9,15,1,6,×,5,6 × 5,congruent,largerFirst,2,1,30,,,,,,,,
,,,,,,,,,,,,,,,777,2022-01-20_01h58.35.702,multiplicationStroop,2021.2.3,Win32,59.31198102,,,,,,,,,,,,,,,,,,,,,,,,,,,,,,,,,49,2.5007,1,0,10,10,33,1,7,×,7,7 × 7,neutral,tie,2,1,49,,,,,,,,
,,,,,,,,,,,,,,,777,2022-01-20_01h58.35.702,multiplicationStroop,2021.2.3,Win32,59.31198102,,,,,,,,,,,,,,,,,,,,,,,,,,,,,,,,,6,2.207,1,0,11,11,13,1,2,×,3,2 × 3,congruent,smallerFirst,1,2,6,,,,,,,,
,,,,,,,,,,,,,,,777,2022-01-20_01h58.35.702,multiplicationStroop,2021.2.3,Win32,59.31198102,,,,,,,,,,,,,,,,,,,,,,,,,,,,,,,,,72,2.7165,0,0,12,12,12,1,6,×,9,6 × 9,congruent,smallerFirst,1,2,54,,,,,,,,
,,,,,,,,,,,,,,,777,2022-01-20_01h58.35.702,multiplicationStroop,2021.2.3,Win32,59.31198102,,,,,,,,,,,,,,,,,,,,,,,,,,,,,,,,,35,3.7847,1,0,13,13,1,1,5,×,7,5 × 7,congruent,smallerFirst,1,2,35,,,,,,,,
,,,,,,,,,,,,,,,777,2022-01-20_01h58.35.702,multiplicationStroop,2021.2.3,Win32,59.31198102,,,,,,,,,,,,,,,,,,,,,,,,,,,,,,,,,12,2.4072,0,0,14,14,11,1,3,×,6,3 × 6,congruent,smallerFirst,1,2,18,,,,,,,,
,,,,,,,,,,,,,,,777,2022-01-20_01h58.35.702,multiplicationStroop,2021.2.3,Win32,59.31198102,,,,,,,,,,,,,,,,,,,,,,,,,,,,,,,,,36,2.1173,1,0,15,15,32,1,6,×,6,6 × 6,neutral,tie,2,1,36,,,,,,,,
,,,,,,,,,,,,,,,777,2022-01-20_01h58.35.702,multiplicationStroop,2021.2.3,Win32,59.31198102,,,,,,,,,,,,,,,,,,,,,,,,,,,,,,,,,16,2.3997,1,0,16,16,5,1,2,×,8,2 × 8,congruent,smallerFirst,1,2,16,,,,,,,,
,,,,,,,,,,,,,,,777,2022-01-20_01h58.35.702,multiplicationStroop,2021.2.3,Win32,59.31198102,,,,,,,,,,,,,,,,,,,,,,,,,,,,,,,,,10,1.9092,1,0,17,17,24,1,5,×,2,5 × 2,congruent,largerFirst,2,1,10,,,,,,,,
,,,,,,,,,,,,,,,777,2022-01-20_01h58.35.702,multiplicationStroop,2021.2.3,Win32,59.31198102,,,,,,,,,,,,,,,,,,,,,,,,,,,,,,,,,25,2.1839,1,0,18,18,31,1,5,×,5,5 × 5,neutral,tie,2,1,25,,,,,,,,
,,,,,,,,,,,,,,,777,2022-01-20_01h58.35.702,multiplicationStroop,2021.2.3,Win32,59.31198102,,,,,,,,,,,,,,,,,,,,,,,,,,,,,,,,,12,2.4993,1,0,19,19,19,1,6,×,2,6 × 2,congruent,largerFirst,2,1,12,,,,,,,,
,,,,,,,,,,,,,,,777,2022-01-20_01h58.35.702,multiplicationStroop,2021.2.3,Win32,59.31198102,,,,,,,,,,,,,,,,,,,,,,,,,,,,,,,,,42,4.569,0,0,20,20,8,1,7,×,8,7 × 8,congruent,smallerFirst,1,2,56,,,,,,,,
,,,,,,,,,,,,,,,777,2022-01-20_01h58.35.702,multiplicationStroop,2021.2.3,Win32,59.31198102,,,,,,,,,,,,,,,,,,,,,,,,,,,,,,,,,24,2.2584,1,0,21,21,10,1,3,×,8,3 × 8,congruent,smallerFirst,1,2,24,,,,,,,,
,,,,,,,,,,,,,,,777,2022-01-20_01h58.35.702,multiplicationStroop,2021.2.3,Win32,59.31198102,,,,,,,,,,,,,,,,,,,,,,,,,,,,,,,,,16,1.8166,1,0,22,22,30,1,4,×,4,4 × 4,neutral,tie,2,1,16,,,,,,,,
,,,,,,,,,,,,,,,777,2022-01-20_01h58.35.702,multiplicationStroop,2021.2.3,Win32,59.31198102,,,,,,,,,,,,,,,,,,,,,,,,,,,,,,,,,4,1.483,1,0,23,23,28,1,2,×,2,2 × 2,neutral,tie,2,1,4,,,,,,,,
,,,,,,,,,,,,,,,777,2022-01-20_01h58.35.702,multiplicationStroop,2021.2.3,Win32,59.31198102,,,,,,,,,,,,,,,,,,,,,,,,,,,,,,,,,72,3.1839,1,0,24,24,17,1,9,×,8,9 × 8,congruent,largerFirst,2,1,72,,,,,,,,
,,,,,,,,,,,,,,,777,2022-01-20_01h58.35.702,multiplicationStroop,2021.2.3,Win32,59.31198102,,,,,,,,,,,,,,,,,,,,,,,,,,,,,,,,,81,2.4738,1,0,25,25,35,1,9,×,9,9 × 9,neutral,tie,2,1,81,,,,,,,,
,,,,,,,,,,,,,,,777,2022-01-20_01h58.35.702,multiplicationStroop,2021.2.3,Win32,59.31198102,,,,,,,,,,,,,,,,,,,,,,,,,,,,,,,,,65,6.3187,0,0,26,26,23,1,9,×,5,9 × 5,congruent,largerFirst,2,1,45,,,,,,,,
,,,,,,,,,,,,,,,777,2022-01-20_01h58.35.702,multiplicationStroop,2021.2.3,Win32,59.31198102,,,,,,,,,,,,,,,,,,,,,,,,,,,,,,,,,32,11.4289,1,0,27,27,20,1,8,×,4,8 × 4,congruent,largerFirst,2,1,32,,,,,,,,
,,,,,,,,,,,,,,,777,2022-01-20_01h58.35.702,multiplicationStroop,2021.2.3,Win32,59.31198102,,,,,,,,,,,,,,,,,,,,,,,,,,,,,,,,,21,1.9738,1,0,28,28,16,1,7,×,3,7 × 3,congruent,largerFirst,2,1,21,,,,,,,,
,,,,,,,,,,,,,,,777,2022-01-20_01h58.35.702,multiplicationStroop,2021.2.3,Win32,59.31198102,,,,,,,,,,,,,,,,,,,,,,,,,,,,,,,,,27,3.3506,1,0,29,29,26,1,9,×,3,9 × 3,congruent,largerFirst,2,1,27,,,,,,,,
,,,,,,,,,,,,,,,777,2022-01-20_01h58.35.702,multiplicationStroop,2021.2.3,Win32,59.31198102,,,,,,,,,,,,,,,,,,,,,,,,,,,,,,,,,12,2.2574,1,0,30,30,2,1,3,×,4,3 × 4,congruent,smallerFirst,1,2,12,,,,,,,,
,,,,,,,,,,,,,,,777,2022-01-20_01h58.35.702,multiplicationStroop,2021.2.3,Win32,59.31198102,,,,,,,,,,,,,,,,,,,,,,,,,,,,,,,,,8,2.417,1,0,31,31,9,1,2,×,4,2 × 4,congruent,smallerFirst,1,2,8,,,,,,,,
,,,,,,,,,,,,,,,777,2022-01-20_01h58.35.702,multiplicationStroop,2021.2.3,Win32,59.31198102,,,,,,,,,,,,,,,,,,,,,,,,,,,,,,,,,18,2.7239,1,0,32,32,22,1,9,×,2,9 × 2,congruent,largerFirst,2,1,18,,,,,,,,
,,,,,,,,,,,,,,,777,2022-01-20_01h58.35.702,multiplicationStroop,2021.2.3,Win32,59.31198102,,,,,,,,,,,,,,,,,,,,,,,,,,,,,,,,,54,2.7006,0,0,33,33,18,1,8,×,6,8 × 6,congruent,largerFirst,2,1,48,,,,,,,,
,,,,,,,,,,,,,,,777,2022-01-20_01h58.35.702,multiplicationStroop,2021.2.3,Win32,59.31198102,,,,,,,,,,,,,,,,,,,,,,,,,,,,,,,,,28,2.7003,1,0,34,34,27,1,7,×,4,7 × 4,congruent,largerFirst,2,1,28,,,,,,,,
,,,,,,,,,,,,,,,777,2022-01-20_01h58.35.702,multiplicationStroop,2021.2.3,Win32,59.31198102,,,,,,,,,,,,,,,,,,,,,,,,,,,,,,,,,42,2.4741,1,0,35,35,3,1,6,×,7,6 × 7,congruent,smallerFirst,1,2,42,,,,,,,,
,,,,,,,,,,,,,,,777,2022-01-20_01h58.35.702,multiplicationStroop,2021.2.3,Win32,59.31198102,,,,,,,,,,,,,,,,,,,,,,,,,,,,,,,,,,,,,,,,,,,,,,,,,,0,0,0,2,1,stimulusFile/mult_blk3_congruent.xlsx,,
,,,,,,,,,,,,,,,777,2022-01-20_01h58.35.702,multiplicationStroop,2021.2.3,Win32,59.31198102,,,,,,,,,,,,,,,,,,,,,,,,,,,,,,,space,1.5849,27,2.6131,1,0,0,0,12,1,3,×,9,3 × 9,congruent,smallerFirst,1,2,27,,,,,,,,
,,,,,,,,,,,,,,,777,2022-01-20_01h58.35.702,multiplicationStroop,2021.2.3,Win32,59.31198102,,,,,,,,,,,,,,,,,,,,,,,,,,,,,,,,,12,2.1667,1,0,1,1,5,1,2,×,6,2 × 6,congruent,smallerFirst,1,2,12,,,,,,,,
,,,,,,,,,,,,,,,777,2022-01-20_01h58.35.702,multiplicationStroop,2021.2.3,Win32,59.31198102,,,,,,,,,,,,,,,,,,,,,,,,,,,,,,,,,64,2.2001,1,0,2,2,34,1,8,×,8,8 × 8,neutral,tie,1,2,64,,,,,,,,
,,,,,,,,,,,,,,,777,2022-01-20_01h58.35.702,multiplicationStroop,2021.2.3,Win32,59.31198102,,,,,,,,,,,,,,,,,,,,,,,,,,,,,,,,,16,2.2835,1,0,3,3,19,1,8,×,2,8 × 2,congruent,largerFirst,2,1,16,,,,,,,,
,,,,,,,,,,,,,,,777,2022-01-20_01h58.35.702,multiplicationStroop,2021.2.3,Win32,59.31198102,,,,,,,,,,,,,,,,,,,,,,,,,,,,,,,,,18,2.0669,1,0,4,4,8,1,2,×,9,2 × 9,congruent,smallerFirst,1,2,18,,,,,,,,
,,,,,,,,,,,,,,,777,2022-01-20_01h58.35.702,multiplicationStroop,2021.2.3,Win32,59.31198102,,,,,,,,,,,,,,,,,,,,,,,,,,,,,,,,,32,4.5013,1,0,5,5,6,1,4,×,8,4 × 8,congruent,smallerFirst,1,2,32,,,,,,,,
,,,,,,,,,,,,,,,777,2022-01-20_01h58.35.702,multiplicationStroop,2021.2.3,Win32,59.31198102,,,,,,,,,,,,,,,,,,,,,,,,,,,,,,,,,72,2.7405,1,0,6,6,3,1,8,×,9,8 × 9,congruent,smallerFirst,1,2,72,,,,,,,,
,,,,,,,,,,,,,,,777,2022-01-20_01h58.35.702,multiplicationStroop,2021.2.3,Win32,59.31198102,,,,,,,,,,,,,,,,,,,,,,,,,,,,,,,,,56,2.25,1,0,7,7,22,1,8,×,7,8 × 7,congruent,largerFirst,2,1,56,,,,,,,,
,,,,,,,,,,,,,,,777,2022-01-20_01h58.35.702,multiplicationStroop,2021.2.3,Win32,59.31198102,,,,,,,,,,,,,,,,,,,,,,,,,,,,,,,,,10,2.4341,1,0,8,8,10,1,2,×,5,2 × 5,congruent,smallerFirst,1,2,10,,,,,,,,
,,,,,,,,,,,,,,,777,2022-01-20_01h58.35.702,multiplicationStroop,2021.2.3,Win32,59.31198102,,,,,,,,,,,,,,,,,,,,,,,,,,,,,,,,,12,1.6996,1,0,9,9,16,1,4,×,3,4 × 3,congruent,largerFirst,2,1,12,,,,,,,,
,,,,,,,,,,,,,,,777,2022-01-20_01h58.35.702,multiplicationStroop,2021.2.3,Win32,59.31198102,,,,,,,,,,,,,,,,,,,,,,,,,,,,,,,,,24,2.1503,0,0,10,10,25,1,6,×,3,6 × 3,congruent,largerFirst,2,1,18,,,,,,,,
,,,,,,,,,,,,,,,777,2022-01-20_01h58.35.702,multiplicationStroop,2021.2.3,Win32,59.31198102,,,,,,,,,,,,,,,,,,,,,,,,,,,,,,,,,81,3.701,1,0,11,11,35,1,9,×,9,9 × 9,neutral,tie,1,2,81,,,,,,,,
,,,,,,,,,,,,,,,777,2022-01-20_01h58.35.702,multiplicationStroop,2021.2.3,Win32,59.31198102,,,,,,,,,,,,,,,,,,,,,,,,,,,,,,,,,28,5.6086,1,0,12,12,13,1,4,×,7,4 × 7,congruent,smallerFirst,1,2,28,,,,,,,,
,,,,,,,,,,,,,,,777,2022-01-20_01h58.35.702,multiplicationStroop,2021.2.3,Win32,59.31198102,,,,,,,,,,,,,,,,,,,,,,,,,,,,,,,,,16,1.8587,1,0,13,13,30,1,4,×,4,4 × 4,neutral,tie,1,2,16,,,,,,,,
,,,,,,,,,,,,,,,777,2022-01-20_01h58.35.702,multiplicationStroop,2021.2.3,Win32,59.31198102,,,,,,,,,,,,,,,,,,,,,,,,,,,,,,,,,6,1.9167,1,0,14,14,27,1,3,×,2,3 × 2,congruent,largerFirst,2,1,6,,,,,,,,
,,,,,,,,,,,,,,,777,2022-01-20_01h58.35.702,multiplicationStroop,2021.2.3,Win32,59.31198102,,,,,,,,,,,,,,,,,,,,,,,,,,,,,,,,,4,1.7166,1,0,15,15,28,1,2,×,2,2 × 2,neutral,tie,1,2,4,,,,,,,,
,,,,,,,,,,,,,,,777,2022-01-20_01h58.35.702,multiplicationStroop,2021.2.3,Win32,59.31198102,,,,,,,,,,,,,,,,,,,,,,,,,,,,,,,,,25,1.967,1,0,16,16,31,1,5,×,5,5 × 5,neutral,tie,1,2,25,,,,,,,,
,,,,,,,,,,,,,,,777,2022-01-20_01h58.35.702,multiplicationStroop,2021.2.3,Win32,59.31198102,,,,,,,,,,,,,,,,,,,,,,,,,,,,,,,,,15,1.733,1,0,17,17,18,1,5,×,3,5 × 3,congruent,largerFirst,2,1,15,,,,,,,,
,,,,,,,,,,,,,,,777,2022-01-20_01h58.35.702,multiplicationStroop,2021.2.3,Win32,59.31198102,,,,,,,,,,,,,,,,,,,,,,,,,,,,,,,,,40,2.2501,1,0,18,18,20,1,8,×,5,8 × 5,congruent,largerFirst,2,1,40,,,,,,,,
,,,,,,,,,,,,,,,777,2022-01-20_01h58.35.702,multiplicationStroop,2021.2.3,Win32,59.31198102,,,,,,,,,,,,,,,,,,,,,,,,,,,,,,,,,36,2.3738,1,0,19,19,32,1,6,×,6,6 × 6,neutral,tie,1,2,36,,,,,,,,
,,,,,,,,,,,,,,,777,2022-01-20_01h58.35.702,multiplicationStroop,2021.2.3,Win32,59.31198102,,,,,,,,,,,,,,,,,,,,,,,,,,,,,,,,,24,3.4006,1,0,20,20,11,1,4,×,6,4 × 6,congruent,smallerFirst,1,2,24,,,,,,,,
,,,,,,,,,,,,,,,777,2022-01-20_01h58.35.702,multiplicationStroop,2021.2.3,Win32,59.31198102,,,,,,,,,,,,,,,,,,,,,,,,,,,,,,,,,63,3.9015,1,0,21,21,7,1,7,×,9,7 × 9,congruent,smallerFirst,1,2,63,,,,,,,,
,,,,,,,,,,,,,,,777,2022-01-20_01h58.35.702,multiplicationStroop,2021.2.3,Win32,59.31198102,,,,,,,,,,,,,,,,,,,,,,,,,,,,,,,,,45,2.7407,1,0,22,22,9,1,5,×,9,5 × 9,congruent,smallerFirst,1,2,45,,,,,,,,
,,,,,,,,,,,,,,,777,2022-01-20_01h58.35.702,multiplicationStroop,2021.2.3,Win32,59.31198102,,,,,,,,,,,,,,,,,,,,,,,,,,,,,,,,,48,3.2909,1,0,23,23,4,1,6,×,8,6 × 8,congruent,smallerFirst,1,2,48,,,,,,,,
,,,,,,,,,,,,,,,777,2022-01-20_01h58.35.702,multiplicationStroop,2021.2.3,Win32,59.31198102,,,,,,,,,,,,,,,,,,,,,,,,,,,,,,,,,49,2.5835,1,0,24,24,33,1,7,×,7,7 × 7,neutral,tie,1,2,49,,,,,,,,
,,,,,,,,,,,,,,,777,2022-01-20_01h58.35.702,multiplicationStroop,2021.2.3,Win32,59.31198102,,,,,,,,,,,,,,,,,,,,,,,,,,,,,,,,,8,2.0903,1,0,25,25,23,1,4,×,2,4 × 2,congruent,largerFirst,2,1,8,,,,,,,,
,,,,,,,,,,,,,,,777,2022-01-20_01h58.35.702,multiplicationStroop,2021.2.3,Win32,59.31198102,,,,,,,,,,,,,,,,,,,,,,,,,,,,,,,,,9,1.8662,1,0,26,26,29,1,3,×,3,3 × 3,neutral,tie,1,2,9,,,,,,,,
,,,,,,,,,,,,,,,777,2022-01-20_01h58.35.702,multiplicationStroop,2021.2.3,Win32,59.31198102,,,,,,,,,,,,,,,,,,,,,,,,,,,,,,,,,20,2.4003,1,0,27,27,21,1,5,×,4,5 × 4,congruent,largerFirst,2,1,20,,,,,,,,
,,,,,,,,,,,,,,,777,2022-01-20_01h58.35.702,multiplicationStroop,2021.2.3,Win32,59.31198102,,,,,,,,,,,,,,,,,,,,,,,,,,,,,,,,,24,2.0003,1,0,28,28,24,1,8,×,3,8 × 3,congruent,largerFirst,2,1,24,,,,,,,,
,,,,,,,,,,,,,,,777,2022-01-20_01h58.35.702,multiplicationStroop,2021.2.3,Win32,59.31198102,,,,,,,,,,,,,,,,,,,,,,,,,,,,,,,,,42,3.0504,1,0,29,29,17,1,7,×,6,7 × 6,congruent,largerFirst,2,1,42,,,,,,,,
,,,,,,,,,,,,,,,777,2022-01-20_01h58.35.702,multiplicationStroop,2021.2.3,Win32,59.31198102,,,,,,,,,,,,,,,,,,,,,,,,,,,,,,,,,30,2.9844,1,0,30,30,1,1,5,×,6,5 × 6,congruent,smallerFirst,1,2,30,,,,,,,,
,,,,,,,,,,,,,,,777,2022-01-20_01h58.35.702,multiplicationStroop,2021.2.3,Win32,59.31198102,,,,,,,,,,,,,,,,,,,,,,,,,,,,,,,,,36,6.3759,1,0,31,31,14,1,9,×,4,9 × 4,congruent,largerFirst,2,1,36,,,,,,,,
,,,,,,,,,,,,,,,777,2022-01-20_01h58.35.702,multiplicationStroop,2021.2.3,Win32,59.31198102,,,,,,,,,,,,,,,,,,,,,,,,,,,,,,,,,14,3.9743,1,0,32,32,0,1,2,×,7,2 × 7,congruent,smallerFirst,1,2,14,,,,,,,,
,,,,,,,,,,,,,,,777,2022-01-20_01h58.35.702,multiplicationStroop,2021.2.3,Win32,59.31198102,,,,,,,,,,,,,,,,,,,,,,,,,,,,,,,,,21,2.2098,1,0,33,33,2,1,3,×,7,3 × 7,congruent,smallerFirst,1,2,21,,,,,,,,
,,,,,,,,,,,,,,,777,2022-01-20_01h58.35.702,multiplicationStroop,2021.2.3,Win32,59.31198102,,,,,,,,,,,,,,,,,,,,,,,,,,,,,,,,,54,6.1191,1,0,34,34,26,1,9,×,6,9 × 6,congruent,largerFirst,2,1,54,,,,,,,,
,,,,,,,,,,,,,,,777,2022-01-20_01h58.35.702,multiplicationStroop,2021.2.3,Win32,59.31198102,,,,,,,,,,,,,,,,,,,,,,,,,,,,,,,,,35,2.4067,1,0,35,35,15,1,7,×,5,7 × 5,congruent,largerFirst,2,1,35,,,,,,,,
,,,,,,,,,,,,,,,777,2022-01-20_01h58.35.702,multiplicationStroop,2021.2.3,Win32,59.31198102,,,,,,,,,,,,,,,,,,,,,,,,,,,,,,,,,,,,,,,,,,,,,,,,,,0,1,1,3,1,stimulusFile/mult_blk4_congruent.xlsx,,
,,,,,,,,,,,,,,,777,2022-01-20_01h58.35.702,multiplicationStroop,2021.2.3,Win32,59.31198102,,,,,,,,,,,,,,,,,,,,,,,,,,,,,,,space,1.1229,54,2.8806,1,0,0,0,20,1,9,×,6,9 × 6,incongruent,largerFirst,1,2,54,,,,,,,,
,,,,,,,,,,,,,,,777,2022-01-20_01h58.35.702,multiplicationStroop,2021.2.3,Win32,59.31198102,,,,,,,,,,,,,,,,,,,,,,,,,,,,,,,,,20,2.7832,1,0,1,1,13,1,4,×,5,4 × 5,incongruent,smallerFirst,2,1,20,,,,,,,,
,,,,,,,,,,,,,,,777,2022-01-20_01h58.35.702,multiplicationStroop,2021.2.3,Win32,59.31198102,,,,,,,,,,,,,,,,,,,,,,,,,,,,,,,,,35,2.1237,1,0,2,2,26,1,7,×,5,7 × 5,incongruent,largerFirst,1,2,35,,,,,,,,
,,,,,,,,,,,,,,,777,2022-01-20_01h58.35.702,multiplicationStroop,2021.2.3,Win32,59.31198102,,,,,,,,,,,,,,,,,,,,,,,,,,,,,,,,,4,1.5668,1,0,3,3,28,1,2,×,2,2 × 2,neutral,tie,2,1,4,,,,,,,,
,,,,,,,,,,,,,,,777,2022-01-20_01h58.35.702,multiplicationStroop,2021.2.3,Win32,59.31198102,,,,,,,,,,,,,,,,,,,,,,,,,,,,,,,,,21,2.2333,1,0,4,4,12,1,3,×,7,3 × 7,incongruent,smallerFirst,2,1,21,,,,,,,,
,,,,,,,,,,,,,,,777,2022-01-20_01h58.35.702,multiplicationStroop,2021.2.3,Win32,59.31198102,,,,,,,,,,,,,,,,,,,,,,,,,,,,,,,,,63,2.9676,1,0,5,5,17,1,9,×,7,9 × 7,incongruent,largerFirst,1,2,63,,,,,,,,
,,,,,,,,,,,,,,,777,2022-01-20_01h58.35.702,multiplicationStroop,2021.2.3,Win32,59.31198102,,,,,,,,,,,,,,,,,,,,,,,,,,,,,,,,,12,4.368,1,0,6,6,19,1,4,×,3,4 × 3,incongruent,largerFirst,1,2,12,,,,,,,,
,,,,,,,,,,,,,,,777,2022-01-20_01h58.35.702,multiplicationStroop,2021.2.3,Win32,59.31198102,,,,,,,,,,,,,,,,,,,,,,,,,,,,,,,,,18,4.6912,1,0,7,7,22,1,6,×,3,6 × 3,incongruent,largerFirst,1,2,18,,,,,,,,
,,,,,,,,,,,,,,,777,2022-01-20_01h58.35.702,multiplicationStroop,2021.2.3,Win32,59.31198102,,,,,,,,,,,,,,,,,,,,,,,,,,,,,,,,,36,7.9454,1,0,8,8,1,1,4,×,9,4 × 9,incongruent,smallerFirst,2,1,36,,,,,,,,
,,,,,,,,,,,,,,,777,2022-01-20_01h58.35.702,multiplicationStroop,2021.2.3,Win32,59.31198102,,,,,,,,,,,,,,,,,,,,,,,,,,,,,,,,,36,2.3403,1,0,9,9,32,1,6,×,6,6 × 6,neutral,tie,2,1,36,,,,,,,,
,,,,,,,,,,,,,,,777,2022-01-20_01h58.35.702,multiplicationStroop,2021.2.3,Win32,59.31198102,,,,,,,,,,,,,,,,,,,,,,,,,,,,,,,,,48,3.1841,1,0,10,10,15,1,8,×,6,8 × 6,incongruent,largerFirst,1,2,48,,,,,,,,
,,,,,,,,,,,,,,,777,2022-01-20_01h58.35.702,multiplicationStroop,2021.2.3,Win32,59.31198102,,,,,,,,,,,,,,,,,,,,,,,,,,,,,,,,,28,2.5835,1,0,11,11,2,1,4,×,7,4 × 7,incongruent,smallerFirst,2,1,28,,,,,,,,
,,,,,,,,,,,,,,,777,2022-01-20_01h58.35.702,multiplicationStroop,2021.2.3,Win32,59.31198102,,,,,,,,,,,,,,,,,,,,,,,,,,,,,,,,,16,1.8405,1,0,12,12,30,1,4,×,4,4 × 4,neutral,tie,2,1,16,,,,,,,,
,,,,,,,,,,,,,,,777,2022-01-20_01h58.35.702,multiplicationStroop,2021.2.3,Win32,59.31198102,,,,,,,,,,,,,,,,,,,,,,,,,,,,,,,,,81,2.7673,1,0,13,13,35,1,9,×,9,9 × 9,neutral,tie,2,1,81,,,,,,,,
,,,,,,,,,,,,,,,777,2022-01-20_01h58.35.702,multiplicationStroop,2021.2.3,Win32,59.31198102,,,,,,,,,,,,,,,,,,,,,,,,,,,,,,,,,72,3.2414,1,0,14,14,14,1,9,×,8,9 × 8,incongruent,largerFirst,1,2,72,,,,,,,,
,,,,,,,,,,,,,,,777,2022-01-20_01h58.35.702,multiplicationStroop,2021.2.3,Win32,59.31198102,,,,,,,,,,,,,,,,,,,,,,,,,,,,,,,,,8,2.0503,1,0,15,15,10,1,2,×,4,2 × 4,incongruent,smallerFirst,2,1,8,,,,,,,,
,,,,,,,,,,,,,,,777,2022-01-20_01h58.35.702,multiplicationStroop,2021.2.3,Win32,59.31198102,,,,,,,,,,,,,,,,,,,,,,,,,,,,,,,,,25,2.8073,1,0,16,16,31,1,5,×,5,5 × 5,neutral,tie,2,1,25,,,,,,,,
,,,,,,,,,,,,,,,777,2022-01-20_01h58.35.702,multiplicationStroop,2021.2.3,Win32,59.31198102,,,,,,,,,,,,,,,,,,,,,,,,,,,,,,,,,45,2.8508,1,0,17,17,8,1,5,×,9,5 × 9,incongruent,smallerFirst,2,1,45,,,,,,,,
,,,,,,,,,,,,,,,777,2022-01-20_01h58.35.702,multiplicationStroop,2021.2.3,Win32,59.31198102,,,,,,,,,,,,,,,,,,,,,,,,,,,,,,,,,10,2.3,1,0,18,18,7,1,2,×,5,2 × 5,incongruent,smallerFirst,2,1,10,,,,,,,,
,,,,,,,,,,,,,,,777,2022-01-20_01h58.35.702,multiplicationStroop,2021.2.3,Win32,59.31198102,,,,,,,,,,,,,,,,,,,,,,,,,,,,,,,,,64,2.6171,1,0,19,19,34,1,8,×,8,8 × 8,neutral,tie,2,1,64,,,,,,,,
,,,,,,,,,,,,,,,777,2022-01-20_01h58.35.702,multiplicationStroop,2021.2.3,Win32,59.31198102,,,,,,,,,,,,,,,,,,,,,,,,,,,,,,,,,12,2.5238,1,0,20,20,5,1,2,×,6,2 × 6,incongruent,smallerFirst,2,1,12,,,,,,,,
,,,,,,,,,,,,,,,777,2022-01-20_01h58.35.702,multiplicationStroop,2021.2.3,Win32,59.31198102,,,,,,,,,,,,,,,,,,,,,,,,,,,,,,,,,48,3.5179,0,0,21,21,3,1,6,×,7,6 × 7,incongruent,smallerFirst,2,1,42,,,,,,,,
,,,,,,,,,,,,,,,777,2022-01-20_01h58.35.702,multiplicationStroop,2021.2.3,Win32,59.31198102,,,,,,,,,,,,,,,,,,,,,,,,,,,,,,,,,56,2.3571,0,0,22,22,21,1,8,×,4,8 × 4,incongruent,largerFirst,1,2,32,,,,,,,,
,,,,,,,,,,,,,,,777,2022-01-20_01h58.35.702,multiplicationStroop,2021.2.3,Win32,59.31198102,,,,,,,,,,,,,,,,,,,,,,,,,,,,,,,,,30,4.3178,1,0,23,23,11,1,5,×,6,5 × 6,incongruent,smallerFirst,2,1,30,,,,,,,,
,,,,,,,,,,,,,,,777,2022-01-20_01h58.35.702,multiplicationStroop,2021.2.3,Win32,59.31198102,,,,,,,,,,,,,,,,,,,,,,,,,,,,,,,,,16,2.3238,1,0,24,24,9,1,2,×,8,2 × 8,incongruent,smallerFirst,2,1,16,,,,,,,,
,,,,,,,,,,,,,,,777,2022-01-20_01h58.35.702,multiplicationStroop,2021.2.3,Win32,59.31198102,,,,,,,,,,,,,,,,,,,,,,,,,,,,,,,,,6,2.1831,1,0,25,25,25,1,3,×,2,3 × 2,incongruent,largerFirst,1,2,6,,,,,,,,
,,,,,,,,,,,,,,,777,2022-01-20_01h58.35.702,multiplicationStroop,2021.2.3,Win32,59.31198102,,,,,,,,,,,,,,,,,,,,,,,,,,,,,,,,,15,1.9667,1,0,26,26,24,1,5,×,3,5 × 3,incongruent,largerFirst,1,2,15,,,,,,,,
,,,,,,,,,,,,,,,777,2022-01-20_01h58.35.702,multiplicationStroop,2021.2.3,Win32,59.31198102,,,,,,,,,,,,,,,,,,,,,,,,,,,,,,,,,27,4.9186,1,0,27,27,4,1,3,×,9,3 × 9,incongruent,smallerFirst,2,1,27,,,,,,,,
,,,,,,,,,,,,,,,777,2022-01-20_01h58.35.702,multiplicationStroop,2021.2.3,Win32,59.31198102,,,,,,,,,,,,,,,,,,,,,,,,,,,,,,,,,49,2.9404,1,0,28,28,33,1,7,×,7,7 × 7,neutral,tie,2,1,49,,,,,,,,
,,,,,,,,,,,,,,,777,2022-01-20_01h58.35.702,multiplicationStroop,2021.2.3,Win32,59.31198102,,,,,,,,,,,,,,,,,,,,,,,,,,,,,,,,,40,2.7344,1,0,29,29,27,1,8,×,5,8 × 5,incongruent,largerFirst,1,2,40,,,,,,,,
,,,,,,,,,,,,,,,777,2022-01-20_01h58.35.702,multiplicationStroop,2021.2.3,Win32,59.31198102,,,,,,,,,,,,,,,,,,,,,,,,,,,,,,,,,18,3.5908,1,0,30,30,16,1,9,×,2,9 × 2,incongruent,largerFirst,1,2,18,,,,,,,,
,,,,,,,,,,,,,,,777,2022-01-20_01h58.35.702,multiplicationStroop,2021.2.3,Win32,59.31198102,,,,,,,,,,,,,,,,,,,,,,,,,,,,,,,,,9,2.0001,1,0,31,31,29,1,3,×,3,3 × 3,neutral,tie,2,1,9,,,,,,,,
,,,,,,,,,,,,,,,777,2022-01-20_01h58.35.702,multiplicationStroop,2021.2.3,Win32,59.31198102,,,,,,,,,,,,,,,,,,,,,,,,,,,,,,,,,24,2.2673,1,0,32,32,6,1,4,×,6,4 × 6,incongruent,smallerFirst,2,1,24,,,,,,,,
,,,,,,,,,,,,,,,777,2022-01-20_01h58.35.702,multiplicationStroop,2021.2.3,Win32,59.31198102,,,,,,,,,,,,,,,,,,,,,,,,,,,,,,,,,14,1.9231,1,0,33,33,18,1,7,×,2,7 × 2,incongruent,largerFirst,1,2,14,,,,,,,,
,,,,,,,,,,,,,,,777,2022-01-20_01h58.35.702,multiplicationStroop,2021.2.3,Win32,59.31198102,,,,,,,,,,,,,,,,,,,,,,,,,,,,,,,,,24,2.4836,1,0,34,34,23,1,8,×,3,8 × 3,incongruent,largerFirst,1,2,24,,,,,,,,
,,,,,,,,,,,,,,,777,2022-01-20_01h58.35.702,multiplicationStroop,2021.2.3,Win32,59.31198102,,,,,,,,,,,,,,,,,,,,,,,,,,,,,,,,,56,2.9507,1,0,35,35,0,1,7,×,8,7 × 8,incongruent,smallerFirst,2,1,56,,,,,,,,
,,,,,,,,,,,,,,,777,2022-01-20_01h58.35.702,multiplicationStroop,2021.2.3,Win32,59.31198102,,,,,,,,,,,,,,,,,,,,,,,,,,,,,,,,,,,,,,,,,,,,,,,,,,0,2,2,4,1,stimulusFile/mult_blk5_INcongruent.xlsx,,
,,,,,,,,,,,,,,,777,2022-01-20_01h58.35.702,multiplicationStroop,2021.2.3,Win32,59.31198102,,,,,,,,,,,,,,,,,,,,,,,,,,,,,,,space,1.0746,12,3.0585,1,0,0,0,11,1,2,×,6,2 × 6,neutral,smallerFirst,1.5,1.5,12,,,,,,,,
,,,,,,,,,,,,,,,777,2022-01-20_01h58.35.702,multiplicationStroop,2021.2.3,Win32,59.31198102,,,,,,,,,,,,,,,,,,,,,,,,,,,,,,,,,16,2.6672,0,0,1,1,34,1,8,×,8,8 × 8,neutral,tie,1.5,1.5,64,,,,,,,,
,,,,,,,,,,,,,,,777,2022-01-20_01h58.35.702,multiplicationStroop,2021.2.3,Win32,59.31198102,,,,,,,,,,,,,,,,,,,,,,,,,,,,,,,,,21,5.3419,1,0,2,2,22,1,7,×,3,7 × 3,neutral,largerFirst,1.5,1.5,21,,,,,,,,
,,,,,,,,,,,,,,,777,2022-01-20_01h58.35.702,multiplicationStroop,2021.2.3,Win32,59.31198102,,,,,,,,,,,,,,,,,,,,,,,,,,,,,,,,,18,2.674,1,0,3,3,4,1,2,×,9,2 × 9,neutral,smallerFirst,1.5,1.5,18,,,,,,,,
,,,,,,,,,,,,,,,777,2022-01-20_01h58.35.702,multiplicationStroop,2021.2.3,Win32,59.31198102,,,,,,,,,,,,,,,,,,,,,,,,,,,,,,,,,36,4.8917,1,0,4,4,13,1,4,×,9,4 × 9,neutral,smallerFirst,1.5,1.5,36,,,,,,,,
,,,,,,,,,,,,,,,777,2022-01-20_01h58.35.702,multiplicationStroop,2021.2.3,Win32,59.31198102,,,,,,,,,,,,,,,,,,,,,,,,,,,,,,,,,9,1.7736,1,0,5,5,29,1,3,×,3,3 × 3,neutral,tie,1.5,1.5,9,,,,,,,,
,,,,,,,,,,,,,,,777,2022-01-20_01h58.35.702,multiplicationStroop,2021.2.3,Win32,59.31198102,,,,,,,,,,,,,,,,,,,,,,,,,,,,,,,,,35,3.3175,1,0,6,6,15,1,7,×,5,7 × 5,neutral,largerFirst,1.5,1.5,35,,,,,,,,
,,,,,,,,,,,,,,,777,2022-01-20_01h58.35.702,multiplicationStroop,2021.2.3,Win32,59.31198102,,,,,,,,,,,,,,,,,,,,,,,,,,,,,,,,,32,6.2256,1,0,7,7,9,1,4,×,8,4 × 8,neutral,smallerFirst,1.5,1.5,32,,,,,,,,
,,,,,,,,,,,,,,,777,2022-01-20_01h58.35.702,multiplicationStroop,2021.2.3,Win32,59.31198102,,,,,,,,,,,,,,,,,,,,,,,,,,,,,,,,,8,2.1403,1,0,8,8,17,1,4,×,2,4 × 2,neutral,largerFirst,1.5,1.5,8,,,,,,,,
,,,,,,,,,,,,,,,777,2022-01-20_01h58.35.702,multiplicationStroop,2021.2.3,Win32,59.31198102,,,,,,,,,,,,,,,,,,,,,,,,,,,,,,,,,42,8.6034,1,0,9,9,20,1,7,×,6,7 × 6,neutral,largerFirst,1.5,1.5,42,,,,,,,,
,,,,,,,,,,,,,,,777,2022-01-20_01h58.35.702,multiplicationStroop,2021.2.3,Win32,59.31198102,,,,,,,,,,,,,,,,,,,,,,,,,,,,,,,,,28,13.702,1,0,10,10,3,1,4,×,7,4 × 7,neutral,smallerFirst,1.5,1.5,28,,,,,,,,
,,,,,,,,,,,,,,,777,2022-01-20_01h58.35.702,multiplicationStroop,2021.2.3,Win32,59.31198102,,,,,,,,,,,,,,,,,,,,,,,,,,,,,,,,,30,3.1346,1,0,11,11,5,1,5,×,6,5 × 6,neutral,smallerFirst,1.5,1.5,30,,,,,,,,
,,,,,,,,,,,,,,,777,2022-01-20_01h58.35.702,multiplicationStroop,2021.2.3,Win32,59.31198102,,,,,,,,,,,,,,,,,,,,,,,,,,,,,,,,,54,2.9442,1,0,12,12,21,1,9,×,6,9 × 6,neutral,largerFirst,1.5,1.5,54,,,,,,,,
,,,,,,,,,,,,,,,777,2022-01-20_01h58.35.702,multiplicationStroop,2021.2.3,Win32,59.31198102,,,,,,,,,,,,,,,,,,,,,,,,,,,,,,,,,24,2.2669,1,0,13,13,16,1,6,×,4,6 × 4,neutral,largerFirst,1.5,1.5,24,,,,,,,,
,,,,,,,,,,,,,,,777,2022-01-20_01h58.35.702,multiplicationStroop,2021.2.3,Win32,59.31198102,,,,,,,,,,,,,,,,,,,,,,,,,,,,,,,,,35,2.3679,0,0,14,14,24,1,9,×,5,9 × 5,neutral,largerFirst,1.5,1.5,45,,,,,,,,
,,,,,,,,,,,,,,,777,2022-01-20_01h58.35.702,multiplicationStroop,2021.2.3,Win32,59.31198102,,,,,,,,,,,,,,,,,,,,,,,,,,,,,,,,,6,2.5928,1,0,15,15,12,1,2,×,3,2 × 3,neutral,smallerFirst,1.5,1.5,6,,,,,,,,
,,,,,,,,,,,,,,,777,2022-01-20_01h58.35.702,multiplicationStroop,2021.2.3,Win32,59.31198102,,,,,,,,,,,,,,,,,,,,,,,,,,,,,,,,,20,2.7847,1,0,16,16,6,1,4,×,5,4 × 5,neutral,smallerFirst,1.5,1.5,20,,,,,,,,
,,,,,,,,,,,,,,,777,2022-01-20_01h58.35.702,multiplicationStroop,2021.2.3,Win32,59.31198102,,,,,,,,,,,,,,,,,,,,,,,,,,,,,,,,,56,3.6345,1,0,17,17,23,1,8,×,7,8 × 7,neutral,largerFirst,1.5,1.5,56,,,,,,,,
,,,,,,,,,,,,,,,777,2022-01-20_01h58.35.702,multiplicationStroop,2021.2.3,Win32,59.31198102,,,,,,,,,,,,,,,,,,,,,,,,,,,,,,,,,24,2.875,1,0,18,18,8,1,3,×,8,3 × 8,neutral,smallerFirst,1.5,1.5,24,,,,,,,,
,,,,,,,,,,,,,,,777,2022-01-20_01h58.35.702,multiplicationStroop,2021.2.3,Win32,59.31198102,,,,,,,,,,,,,,,,,,,,,,,,,,,,,,,,,15,2.1598,1,0,19,19,19,1,5,×,3,5 × 3,neutral,largerFirst,1.5,1.5,15,,,,,,,,
,,,,,,,,,,,,,,,777,2022-01-20_01h58.35.702,multiplicationStroop,2021.2.3,Win32,59.31198102,,,,,,,,,,,,,,,,,,,,,,,,,,,,,,,,,27,3.3514,1,0,20,20,0,1,3,×,9,3 × 9,neutral,smallerFirst,1.5,1.5,27,,,,,,,,
,,,,,,,,,,,,,,,777,2022-01-20_01h58.35.702,multiplicationStroop,2021.2.3,Win32,59.31198102,,,,,,,,,,,,,,,,,,,,,,,,,,,,,,,,,40,2.7508,1,0,21,21,10,1,5,×,8,5 × 8,neutral,smallerFirst,1.5,1.5,40,,,,,,,,
,,,,,,,,,,,,,,,777,2022-01-20_01h58.35.702,multiplicationStroop,2021.2.3,Win32,59.31198102,,,,,,,,,,,,,,,,,,,,,,,,,,,,,,,,,48,3.2437,1,0,22,22,1,1,6,×,8,6 × 8,neutral,smallerFirst,1.5,1.5,48,,,,,,,,
,,,,,,,,,,,,,,,777,2022-01-20_01h58.35.702,multiplicationStroop,2021.2.3,Win32,59.31198102,,,,,,,,,,,,,,,,,,,,,,,,,,,,,,,,,63,2.7844,1,0,23,23,26,1,9,×,7,9 × 7,neutral,largerFirst,1.5,1.5,63,,,,,,,,
,,,,,,,,,,,,,,,777,2022-01-20_01h58.35.702,multiplicationStroop,2021.2.3,Win32,59.31198102,,,,,,,,,,,,,,,,,,,,,,,,,,,,,,,,,49,2.2785,1,0,24,24,33,1,7,×,7,7 × 7,neutral,tie,1.5,1.5,49,,,,,,,,
,,,,,,,,,,,,,,,777,2022-01-20_01h58.35.702,multiplicationStroop,2021.2.3,Win32,59.31198102,,,,,,,,,,,,,,,,,,,,,,,,,,,,,,,,,81,2.1172,1,0,25,25,35,1,9,×,9,9 × 9,neutral,tie,1.5,1.5,81,,,,,,,,
,,,,,,,,,,,,,,,777,2022-01-20_01h58.35.702,multiplicationStroop,2021.2.3,Win32,59.31198102,,,,,,,,,,,,,,,,,,,,,,,,,,,,,,,,,10,2.6678,1,0,26,26,18,1,5,×,2,5 × 2,neutral,largerFirst,1.5,1.5,10,,,,,,,,
,,,,,,,,,,,,,,,777,2022-01-20_01h58.35.702,multiplicationStroop,2021.2.3,Win32,59.31198102,,,,,,,,,,,,,,,,,,,,,,,,,,,,,,,,,12,2.2844,1,0,27,27,7,1,3,×,4,3 × 4,neutral,smallerFirst,1.5,1.5,12,,,,,,,,
,,,,,,,,,,,,,,,777,2022-01-20_01h58.35.702,multiplicationStroop,2021.2.3,Win32,59.31198102,,,,,,,,,,,,,,,,,,,,,,,,,,,,,,,,,16,3.1844,1,0,28,28,27,1,8,×,2,8 × 2,neutral,largerFirst,1.5,1.5,16,,,,,,,,
,,,,,,,,,,,,,,,777,2022-01-20_01h58.35.702,multiplicationStroop,2021.2.3,Win32,59.31198102,,,,,,,,,,,,,,,,,,,,,,,,,,,,,,,,,4,2.3102,1,0,29,29,28,1,2,×,2,2 × 2,neutral,tie,1.5,1.5,4,,,,,,,,
,,,,,,,,,,,,,,,777,2022-01-20_01h58.35.702,multiplicationStroop,2021.2.3,Win32,59.31198102,,,,,,,,,,,,,,,,,,,,,,,,,,,,,,,,,14,2.417,1,0,30,30,2,1,2,×,7,2 × 7,neutral,smallerFirst,1.5,1.5,14,,,,,,,,
,,,,,,,,,,,,,,,777,2022-01-20_01h58.35.702,multiplicationStroop,2021.2.3,Win32,59.31198102,,,,,,,,,,,,,,,,,,,,,,,,,,,,,,,,,25,2.1341,1,0,31,31,31,1,5,×,5,5 × 5,neutral,tie,1.5,1.5,25,,,,,,,,
,,,,,,,,,,,,,,,777,2022-01-20_01h58.35.702,multiplicationStroop,2021.2.3,Win32,59.31198102,,,,,,,,,,,,,,,,,,,,,,,,,,,,,,,,,18,3.2846,1,0,32,32,14,1,6,×,3,6 × 3,neutral,largerFirst,1.5,1.5,18,,,,,,,,
,,,,,,,,,,,,,,,777,2022-01-20_01h58.35.702,multiplicationStroop,2021.2.3,Win32,59.31198102,,,,,,,,,,,,,,,,,,,,,,,,,,,,,,,,,16,2.0079,1,0,33,33,30,1,4,×,4,4 × 4,neutral,tie,1.5,1.5,16,,,,,,,,
,,,,,,,,,,,,,,,777,2022-01-20_01h58.35.702,multiplicationStroop,2021.2.3,Win32,59.31198102,,,,,,,,,,,,,,,,,,,,,,,,,,,,,,,,,72,4.2681,1,0,34,34,25,1,9,×,8,9 × 8,neutral,largerFirst,1.5,1.5,72,,,,,,,,
,,,,,,,,,,,,,,,777,2022-01-20_01h58.35.702,multiplicationStroop,2021.2.3,Win32,59.31198102,,,,,,,,,,,,,,,,,,,,,,,,,,,,,,,,,36,2.1933,1,0,35,35,32,1,6,×,6,6 × 6,neutral,tie,1.5,1.5,36,,,,,,,,
,,,,,,,,,,,,,,,777,2022-01-20_01h58.35.702,multiplicationStroop,2021.2.3,Win32,59.31198102,,,,,,,,,,,,,,,,,,,,,,,,,,,,,,,,,,,,,,,,,,,,,,,,,,0,3,3,0,1,stimulusFile/mult_blk1.xlsx,,
,,,,,,,,,,,,,,,777,2022-01-20_01h58.35.702,multiplicationStroop,2021.2.3,Win32,59.31198102,,,,,,,,,,,,,,,,,,,,,,,,,,,,,,,space,15.6101,14,2.6396,1,0,0,0,4,1,2,×,7,2 × 7,incongruent,smallerFirst,2,1,14,,,,,,,,
,,,,,,,,,,,,,,,777,2022-01-20_01h58.35.702,multiplicationStroop,2021.2.3,Win32,59.31198102,,,,,,,,,,,,,,,,,,,,,,,,,,,,,,,,,56,2.1501,1,0,1,1,14,1,8,×,7,8 × 7,incongruent,largerFirst,1,2,56,,,,,,,,
,,,,,,,,,,,,,,,777,2022-01-20_01h58.35.702,multiplicationStroop,2021.2.3,Win32,59.31198102,,,,,,,,,,,,,,,,,,,,,,,,,,,,,,,,,48,2.4003,1,0,2,2,1,1,6,×,8,6 × 8,incongruent,smallerFirst,2,1,48,,,,,,,,
,,,,,,,,,,,,,,,777,2022-01-20_01h58.35.702,multiplicationStroop,2021.2.3,Win32,59.31198102,,,,,,,,,,,,,,,,,,,,,,,,,,,,,,,,,32,2.3668,1,0,3,3,7,1,4,×,8,4 × 8,incongruent,smallerFirst,2,1,32,,,,,,,,
,,,,,,,,,,,,,,,777,2022-01-20_01h58.35.702,multiplicationStroop,2021.2.3,Win32,59.31198102,,,,,,,,,,,,,,,,,,,,,,,,,,,,,,,,,12,2.5839,1,0,4,4,5,1,3,×,4,3 × 4,incongruent,smallerFirst,2,1,12,,,,,,,,
,,,,,,,,,,,,,,,777,2022-01-20_01h58.35.702,multiplicationStroop,2021.2.3,Win32,59.31198102,,,,,,,,,,,,,,,,,,,,,,,,,,,,,,,,,20,4.3077,1,0,5,5,27,1,5,×,4,5 × 4,incongruent,largerFirst,1,2,20,,,,,,,,
,,,,,,,,,,,,,,,777,2022-01-20_01h58.35.702,multiplicationStroop,2021.2.3,Win32,59.31198102,,,,,,,,,,,,,,,,,,,,,,,,,,,,,,,,,24,2.026,1,0,6,6,9,1,3,×,8,3 × 8,incongruent,smallerFirst,2,1,24,,,,,,,,
,,,,,,,,,,,,,,,777,2022-01-20_01h58.35.702,multiplicationStroop,2021.2.3,Win32,59.31198102,,,,,,,,,,,,,,,,,,,,,,,,,,,,,,,,,27,2.3004,1,0,7,7,18,1,9,×,3,9 × 3,incongruent,largerFirst,1,2,27,,,,,,,,
,,,,,,,,,,,,,,,777,2022-01-20_01h58.35.702,multiplicationStroop,2021.2.3,Win32,59.31198102,,,,,,,,,,,,,,,,,,,,,,,,,,,,,,,,,42,6.9856,1,0,8,8,17,1,7,×,6,7 × 6,incongruent,largerFirst,1,2,42,,,,,,,,
,,,,,,,,,,,,,,,777,2022-01-20_01h58.35.702,multiplicationStroop,2021.2.3,Win32,59.31198102,,,,,,,,,,,,,,,,,,,,,,,,,,,,,,,,,4,1.7733,1,0,9,9,28,1,2,×,2,2 × 2,incongruent,tie,1,2,4,,,,,,,,
,,,,,,,,,,,,,,,777,2022-01-20_01h58.35.702,multiplicationStroop,2021.2.3,Win32,59.31198102,,,,,,,,,,,,,,,,,,,,,,,,,,,,,,,,,40,2.9513,1,0,10,10,13,1,5,×,8,5 × 8,incongruent,smallerFirst,2,1,40,,,,,,,,
,,,,,,,,,,,,,,,777,2022-01-20_01h58.35.702,multiplicationStroop,2021.2.3,Win32,59.31198102,,,,,,,,,,,,,,,,,,,,,,,,,,,,,,,,,72,3.0239,0,0,11,11,6,1,6,×,9,6 × 9,incongruent,smallerFirst,2,1,54,,,,,,,,
,,,,,,,,,,,,,,,777,2022-01-20_01h58.35.702,multiplicationStroop,2021.2.3,Win32,59.31198102,,,,,,,,,,,,,,,,,,,,,,,,,,,,,,,,,18,2.6337,1,0,12,12,8,1,3,×,6,3 × 6,incongruent,smallerFirst,2,1,18,,,,,,,,
,,,,,,,,,,,,,,,777,2022-01-20_01h58.35.702,multiplicationStroop,2021.2.3,Win32,59.31198102,,,,,,,,,,,,,,,,,,,,,,,,,,,,,,,,,16,1.9567,1,0,13,13,30,1,4,×,4,4 × 4,incongruent,tie,1,2,16,,,,,,,,
,,,,,,,,,,,,,,,777,2022-01-20_01h58.35.702,multiplicationStroop,2021.2.3,Win32,59.31198102,,,,,,,,,,,,,,,,,,,,,,,,,,,,,,,,,25,4.7181,1,0,14,14,31,1,5,×,5,5 × 5,incongruent,tie,1,2,25,,,,,,,,
,,,,,,,,,,,,,,,777,2022-01-20_01h58.35.702,multiplicationStroop,2021.2.3,Win32,59.31198102,,,,,,,,,,,,,,,,,,,,,,,,,,,,,,,,,35,2.6235,1,0,15,15,12,1,5,×,7,5 × 7,incongruent,smallerFirst,2,1,35,,,,,,,,
,,,,,,,,,,,,,,,777,2022-01-20_01h58.35.702,multiplicationStroop,2021.2.3,Win32,59.31198102,,,,,,,,,,,,,,,,,,,,,,,,,,,,,,,,,28,2.5505,1,0,16,16,16,1,7,×,4,7 × 4,incongruent,largerFirst,1,2,28,,,,,,,,
,,,,,,,,,,,,,,,777,2022-01-20_01h58.35.702,multiplicationStroop,2021.2.3,Win32,59.31198102,,,,,,,,,,,,,,,,,,,,,,,,,,,,,,,,,18,2.4736,1,0,17,17,2,1,2,×,9,2 × 9,incongruent,smallerFirst,2,1,18,,,,,,,,
,,,,,,,,,,,,,,,777,2022-01-20_01h58.35.702,multiplicationStroop,2021.2.3,Win32,59.31198102,,,,,,,,,,,,,,,,,,,,,,,,,,,,,,,,,10,1.9666,1,0,18,18,21,1,5,×,2,5 × 2,incongruent,largerFirst,1,2,10,,,,,,,,
,,,,,,,,,,,,,,,777,2022-01-20_01h58.35.702,multiplicationStroop,2021.2.3,Win32,59.31198102,,,,,,,,,,,,,,,,,,,,,,,,,,,,,,,,,15,1.7999,1,0,19,19,10,1,3,×,5,3 × 5,incongruent,smallerFirst,2,1,15,,,,,,,,
,,,,,,,,,,,,,,,777,2022-01-20_01h58.35.702,multiplicationStroop,2021.2.3,Win32,59.31198102,,,,,,,,,,,,,,,,,,,,,,,,,,,,,,,,,72,2.934,1,0,20,20,0,1,8,×,9,8 × 9,incongruent,smallerFirst,2,1,72,,,,,,,,
,,,,,,,,,,,,,,,777,2022-01-20_01h58.35.702,multiplicationStroop,2021.2.3,Win32,59.31198102,,,,,,,,,,,,,,,,,,,,,,,,,,,,,,,,,49,2.7002,1,0,21,21,33,1,7,×,7,7 × 7,incongruent,tie,1,2,49,,,,,,,,
,,,,,,,,,,,,,,,777,2022-01-20_01h58.35.702,multiplicationStroop,2021.2.3,Win32,59.31198102,,,,,,,,,,,,,,,,,,,,,,,,,,,,,,,,,36,2.284,1,0,22,22,32,1,6,×,6,6 × 6,incongruent,tie,1,2,36,,,,,,,,
,,,,,,,,,,,,,,,777,2022-01-20_01h58.35.702,multiplicationStroop,2021.2.3,Win32,59.31198102,,,,,,,,,,,,,,,,,,,,,,,,,,,,,,,,,30,2.7414,1,0,23,23,25,1,6,×,5,6 × 5,incongruent,largerFirst,1,2,30,,,,,,,,
,,,,,,,,,,,,,,,777,2022-01-20_01h58.35.702,multiplicationStroop,2021.2.3,Win32,59.31198102,,,,,,,,,,,,,,,,,,,,,,,,,,,,,,,,,6,2.0502,1,0,24,24,11,1,2,×,3,2 × 3,incongruent,smallerFirst,2,1,6,,,,,,,,
,,,,,,,,,,,,,,,777,2022-01-20_01h58.35.702,multiplicationStroop,2021.2.3,Win32,59.31198102,,,,,,,,,,,,,,,,,,,,,,,,,,,,,,,,,24,2.2337,1,0,25,25,20,1,6,×,4,6 × 4,incongruent,largerFirst,1,2,24,,,,,,,,
,,,,,,,,,,,,,,,777,2022-01-20_01h58.35.702,multiplicationStroop,2021.2.3,Win32,59.31198102,,,,,,,,,,,,,,,,,,,,,,,,,,,,,,,,,64,2.7335,1,0,26,26,34,1,8,×,8,8 × 8,incongruent,tie,1,2,64,,,,,,,,
,,,,,,,,,,,,,,,777,2022-01-20_01h58.35.702,multiplicationStroop,2021.2.3,Win32,59.31198102,,,,,,,,,,,,,,,,,,,,,,,,,,,,,,,,,8,1.9505,1,0,27,27,24,1,4,×,2,4 × 2,incongruent,largerFirst,1,2,8,,,,,,,,
,,,,,,,,,,,,,,,777,2022-01-20_01h58.35.702,multiplicationStroop,2021.2.3,Win32,59.31198102,,,,,,,,,,,,,,,,,,,,,,,,,,,,,,,,,9,2.3002,1,0,28,28,29,1,3,×,3,3 × 3,incongruent,tie,1,2,9,,,,,,,,
,,,,,,,,,,,,,,,777,2022-01-20_01h58.35.702,multiplicationStroop,2021.2.3,Win32,59.31198102,,,,,,,,,,,,,,,,,,,,,,,,,,,,,,,,,81,4.643,1,0,29,29,35,1,9,×,9,9 × 9,incongruent,tie,1,2,81,,,,,,,,
,,,,,,,,,,,,,,,777,2022-01-20_01h58.35.702,multiplicationStroop,2021.2.3,Win32,59.31198102,,,,,,,,,,,,,,,,,,,,,,,,,,,,,,,,,12,2.5428,1,0,30,30,19,1,6,×,2,6 × 2,incongruent,largerFirst,1,2,12,,,,,,,,
,,,,,,,,,,,,,,,777,2022-01-20_01h58.35.702,multiplicationStroop,2021.2.3,Win32,59.31198102,,,,,,,,,,,,,,,,,,,,,,,,,,,,,,,,,63,3.2675,1,0,31,31,3,1,7,×,9,7 × 9,incongruent,smallerFirst,2,1,63,,,,,,,,
,,,,,,,,,,,,,,,777,2022-01-20_01h58.35.702,multiplicationStroop,2021.2.3,Win32,59.31198102,,,,,,,,,,,,,,,,,,,,,,,,,,,,,,,,,21,3.7931,1,0,32,32,26,1,7,×,3,7 × 3,incongruent,largerFirst,1,2,21,,,,,,,,
,,,,,,,,,,,,,,,777,2022-01-20_01h58.35.702,multiplicationStroop,2021.2.3,Win32,59.31198102,,,,,,,,,,,,,,,,,,,,,,,,,,,,,,,,,16,2.5907,1,0,33,33,23,1,8,×,2,8 × 2,incongruent,largerFirst,1,2,16,,,,,,,,
,,,,,,,,,,,,,,,777,2022-01-20_01h58.35.702,multiplicationStroop,2021.2.3,Win32,59.31198102,,,,,,,,,,,,,,,,,,,,,,,,,,,,,,,,,36,7.4194,1,0,34,34,15,1,9,×,4,9 × 4,incongruent,largerFirst,1,2,36,,,,,,,,
,,,,,,,,,,,,,,,777,2022-01-20_01h58.35.702,multiplicationStroop,2021.2.3,Win32,59.31198102,,,,,,,,,,,,,,,,,,,,,,,,,,,,,,,,,45,2.2735,1,0,35,35,22,1,9,×,5,9 × 5,incongruent,largerFirst,1,2,45,,,,,,,,
,,,,,,,,,,,,,,,777,2022-01-20_01h58.35.702,multiplicationStroop,2021.2.3,Win32,59.31198102,,,,,,,,,,,,,,,,,,,,,,,,,,,,,,,,,,,,,,,,,,,,,,,,,,0,4,4,5,1,stimulusFile/mult_blk6_INcongruent.xlsx,,
,,,,,,,,,,,,,,,777,2022-01-20_01h58.35.702,multiplicationStroop,2021.2.3,Win32,59.31198102,,,,,,,,,,,,,,,,,,,,,,,,,,,,,,,space,1.5029,35,2.5096,1,0,0,0,1,1,5,×,7,5 × 7,neutral,smallerFirst,1.5,1.5,35,,,,,,,,
,,,,,,,,,,,,,,,777,2022-01-20_01h58.35.702,multiplicationStroop,2021.2.3,Win32,59.31198102,,,,,,,,,,,,,,,,,,,,,,,,,,,,,,,,,16,3.2407,1,0,1,1,30,1,4,×,4,4 × 4,neutral,tie,1.5,1.5,16,,,,,,,,
,,,,,,,,,,,,,,,777,2022-01-20_01h58.35.702,multiplicationStroop,2021.2.3,Win32,59.31198102,,,,,,,,,,,,,,,,,,,,,,,,,,,,,,,,,24,4.6682,0,0,2,2,32,1,6,×,6,6 × 6,neutral,tie,1.5,1.5,36,,,,,,,,
,,,,,,,,,,,,,,,777,2022-01-20_01h58.35.702,multiplicationStroop,2021.2.3,Win32,59.31198102,,,,,,,,,,,,,,,,,,,,,,,,,,,,,,,,,63,3.074,1,0,3,3,12,1,7,×,9,7 × 9,neutral,smallerFirst,1.5,1.5,63,,,,,,,,
,,,,,,,,,,,,,,,777,2022-01-20_01h58.35.702,multiplicationStroop,2021.2.3,Win32,59.31198102,,,,,,,,,,,,,,,,,,,,,,,,,,,,,,,,,28,6.4693,1,0,4,4,17,1,7,×,4,7 × 4,neutral,largerFirst,1.5,1.5,28,,,,,,,,
,,,,,,,,,,,,,,,777,2022-01-20_01h58.35.702,multiplicationStroop,2021.2.3,Win32,59.31198102,,,,,,,,,,,,,,,,,,,,,,,,,,,,,,,,,27,4.6933,1,0,5,5,14,1,9,×,3,9 × 3,neutral,largerFirst,1.5,1.5,27,,,,,,,,
,,,,,,,,,,,,,,,777,2022-01-20_01h58.35.702,multiplicationStroop,2021.2.3,Win32,59.31198102,,,,,,,,,,,,,,,,,,,,,,,,,,,,,,,,,35,2.2901,0,0,6,6,19,1,6,×,5,6 × 5,neutral,largerFirst,1.5,1.5,30,,,,,,,,
,,,,,,,,,,,,,,,777,2022-01-20_01h58.35.702,multiplicationStroop,2021.2.3,Win32,59.31198102,,,,,,,,,,,,,,,,,,,,,,,,,,,,,,,,,42,2.6005,1,0,7,7,6,1,6,×,7,6 × 7,neutral,smallerFirst,1.5,1.5,42,,,,,,,,
,,,,,,,,,,,,,,,777,2022-01-20_01h58.35.702,multiplicationStroop,2021.2.3,Win32,59.31198102,,,,,,,,,,,,,,,,,,,,,,,,,,,,,,,,,25,1.8999,1,0,8,8,31,1,5,×,5,5 × 5,neutral,tie,1.5,1.5,25,,,,,,,,
,,,,,,,,,,,,,,,777,2022-01-20_01h58.35.702,multiplicationStroop,2021.2.3,Win32,59.31198102,,,,,,,,,,,,,,,,,,,,,,,,,,,,,,,,,36,4.1679,1,0,9,9,27,1,9,×,4,9 × 4,neutral,largerFirst,1.5,1.5,36,,,,,,,,
,,,,,,,,,,,,,,,777,2022-01-20_01h58.35.702,multiplicationStroop,2021.2.3,Win32,59.31198102,,,,,,,,,,,,,,,,,,,,,,,,,,,,,,,,,15,2.0566,1,0,10,10,5,1,3,×,5,3 × 5,neutral,smallerFirst,1.5,1.5,15,,,,,,,,
,,,,,,,,,,,,,,,777,2022-01-20_01h58.35.702,multiplicationStroop,2021.2.3,Win32,59.31198102,,,,,,,,,,,,,,,,,,,,,,,,,,,,,,,,,40,2.4671,1,0,11,11,24,1,8,×,5,8 × 5,neutral,largerFirst,1.5,1.5,40,,,,,,,,
,,,,,,,,,,,,,,,777,2022-01-20_01h58.35.702,multiplicationStroop,2021.2.3,Win32,59.31198102,,,,,,,,,,,,,,,,,,,,,,,,,,,,,,,,,32,4.2175,1,0,12,12,23,1,8,×,4,8 × 4,neutral,largerFirst,1.5,1.5,32,,,,,,,,
,,,,,,,,,,,,,,,777,2022-01-20_01h58.35.702,multiplicationStroop,2021.2.3,Win32,59.31198102,,,,,,,,,,,,,,,,,,,,,,,,,,,,,,,,,54,6.4292,1,0,13,13,7,1,6,×,9,6 × 9,neutral,smallerFirst,1.5,1.5,54,,,,,,,,
,,,,,,,,,,,,,,,777,2022-01-20_01h58.35.702,multiplicationStroop,2021.2.3,Win32,59.31198102,,,,,,,,,,,,,,,,,,,,,,,,,,,,,,,,,48,2.7924,0,0,14,14,9,1,7,×,8,7 × 8,neutral,smallerFirst,1.5,1.5,56,,,,,,,,
,,,,,,,,,,,,,,,777,2022-01-20_01h58.35.702,multiplicationStroop,2021.2.3,Win32,59.31198102,,,,,,,,,,,,,,,,,,,,,,,,,,,,,,,,,14,3.6843,1,0,15,15,16,1,7,×,2,7 × 2,neutral,largerFirst,1.5,1.5,14,,,,,,,,
,,,,,,,,,,,,,,,777,2022-01-20_01h58.35.702,multiplicationStroop,2021.2.3,Win32,59.31198102,,,,,,,,,,,,,,,,,,,,,,,,,,,,,,,,,20,3.4741,1,0,16,16,20,1,5,×,4,5 × 4,neutral,largerFirst,1.5,1.5,20,,,,,,,,
,,,,,,,,,,,,,,,777,2022-01-20_01h58.35.702,multiplicationStroop,2021.2.3,Win32,59.31198102,,,,,,,,,,,,,,,,,,,,,,,,,,,,,,,,,12,2.0905,1,0,17,17,25,1,6,×,2,6 × 2,neutral,largerFirst,1.5,1.5,12,,,,,,,,
,,,,,,,,,,,,,,,777,2022-01-20_01h58.35.702,multiplicationStroop,2021.2.3,Win32,59.31198102,,,,,,,,,,,,,,,,,,,,,,,,,,,,,,,,,4,1.5832,1,0,18,18,28,1,2,×,2,2 × 2,neutral,tie,1.5,1.5,4,,,,,,,,
,,,,,,,,,,,,,,,777,2022-01-20_01h58.35.702,multiplicationStroop,2021.2.3,Win32,59.31198102,,,,,,,,,,,,,,,,,,,,,,,,,,,,,,,,,16,2.1335,1,0,19,19,13,1,2,×,8,2 × 8,neutral,smallerFirst,1.5,1.5,16,,,,,,,,
,,,,,,,,,,,,,,,777,2022-01-20_01h58.35.702,multiplicationStroop,2021.2.3,Win32,59.31198102,,,,,,,,,,,,,,,,,,,,,,,,,,,,,,,,,12,2.0167,1,0,20,20,21,1,4,×,3,4 × 3,neutral,largerFirst,1.5,1.5,12,,,,,,,,
,,,,,,,,,,,,,,,777,2022-01-20_01h58.35.702,multiplicationStroop,2021.2.3,Win32,59.31198102,,,,,,,,,,,,,,,,,,,,,,,,,,,,,,,,,24,1.9832,1,0,21,21,22,1,8,×,3,8 × 3,neutral,largerFirst,1.5,1.5,24,,,,,,,,
,,,,,,,,,,,,,,,777,2022-01-20_01h58.35.702,multiplicationStroop,2021.2.3,Win32,59.31198102,,,,,,,,,,,,,,,,,,,,,,,,,,,,,,,,,81,9.5373,1,0,22,22,35,1,9,×,9,9 × 9,neutral,tie,1.5,1.5,81,,,,,,,,
,,,,,,,,,,,,,,,777,2022-01-20_01h58.35.702,multiplicationStroop,2021.2.3,Win32,59.31198102,,,,,,,,,,,,,,,,,,,,,,,,,,,,,,,,,24,2.8424,1,0,23,23,2,1,4,×,6,4 × 6,neutral,smallerFirst,1.5,1.5,24,,,,,,,,
,,,,,,,,,,,,,,,777,2022-01-20_01h58.35.702,multiplicationStroop,2021.2.3,Win32,59.31198102,,,,,,,,,,,,,,,,,,,,,,,,,,,,,,,,,64,2.4839,1,0,24,24,34,1,8,×,8,8 × 8,neutral,tie,1.5,1.5,64,,,,,,,,
,,,,,,,,,,,,,,,777,2022-01-20_01h58.35.702,multiplicationStroop,2021.2.3,Win32,59.31198102,,,,,,,,,,,,,,,,,,,,,,,,,,,,,,,,,45,5.3015,1,0,25,25,10,1,5,×,9,5 × 9,neutral,smallerFirst,1.5,1.5,45,,,,,,,,
,,,,,,,,,,,,,,,777,2022-01-20_01h58.35.702,multiplicationStroop,2021.2.3,Win32,59.31198102,,,,,,,,,,,,,,,,,,,,,,,,,,,,,,,,,18,3.8409,1,0,26,26,0,1,3,×,6,3 × 6,neutral,smallerFirst,1.5,1.5,18,,,,,,,,
,,,,,,,,,,,,,,,777,2022-01-20_01h58.35.702,multiplicationStroop,2021.2.3,Win32,59.31198102,,,,,,,,,,,,,,,,,,,,,,,,,,,,,,,,,54,2.259,0,0,27,27,15,1,8,×,6,8 × 6,neutral,largerFirst,1.5,1.5,48,,,,,,,,
,,,,,,,,,,,,,,,777,2022-01-20_01h58.35.702,multiplicationStroop,2021.2.3,Win32,59.31198102,,,,,,,,,,,,,,,,,,,,,,,,,,,,,,,,,72,3.2841,1,0,28,28,11,1,8,×,9,8 × 9,neutral,smallerFirst,1.5,1.5,72,,,,,,,,
,,,,,,,,,,,,,,,777,2022-01-20_01h58.35.702,multiplicationStroop,2021.2.3,Win32,59.31198102,,,,,,,,,,,,,,,,,,,,,,,,,,,,,,,,,6,2.2232,1,0,29,29,26,1,3,×,2,3 × 2,neutral,largerFirst,1.5,1.5,6,,,,,,,,
,,,,,,,,,,,,,,,777,2022-01-20_01h58.35.702,multiplicationStroop,2021.2.3,Win32,59.31198102,,,,,,,,,,,,,,,,,,,,,,,,,,,,,,,,,10,2.2001,1,0,30,30,4,1,2,×,5,2 × 5,neutral,smallerFirst,1.5,1.5,10,,,,,,,,
,,,,,,,,,,,,,,,777,2022-01-20_01h58.35.702,multiplicationStroop,2021.2.3,Win32,59.31198102,,,,,,,,,,,,,,,,,,,,,,,,,,,,,,,,,21,1.9337,1,0,31,31,8,1,3,×,7,3 × 7,neutral,smallerFirst,1.5,1.5,21,,,,,,,,
,,,,,,,,,,,,,,,777,2022-01-20_01h58.35.702,multiplicationStroop,2021.2.3,Win32,59.31198102,,,,,,,,,,,,,,,,,,,,,,,,,,,,,,,,,8,2.417,1,0,32,32,3,1,2,×,4,2 × 4,neutral,smallerFirst,1.5,1.5,8,,,,,,,,
,,,,,,,,,,,,,,,777,2022-01-20_01h58.35.702,multiplicationStroop,2021.2.3,Win32,59.31198102,,,,,,,,,,,,,,,,,,,,,,,,,,,,,,,,,18,2.467,1,0,33,33,18,1,9,×,2,9 × 2,neutral,largerFirst,1.5,1.5,18,,,,,,,,
,,,,,,,,,,,,,,,777,2022-01-20_01h58.35.702,multiplicationStroop,2021.2.3,Win32,59.31198102,,,,,,,,,,,,,,,,,,,,,,,,,,,,,,,,,9,1.8668,1,0,34,34,29,1,3,×,3,3 × 3,neutral,tie,1.5,1.5,9,,,,,,,,
,,,,,,,,,,,,,,,777,2022-01-20_01h58.35.702,multiplicationStroop,2021.2.3,Win32,59.31198102,,,,,,,,,,,,,,,,,,,,,,,,,,,,,,,,,49,3.3504,1,0,35,35,33,1,7,×,7,7 × 7,neutral,tie,1.5,1.5,49,,,,,,,,
,,,,,,,,,,,,,,,777,2022-01-20_01h58.35.702,multiplicationStroop,2021.2.3,Win32,59.31198102,,,,,,,,,,,,,,,,,,,,,,,,,,,,,,,,,,,,,,,,,,,,,,,,,,0,5,5,1,1,stimulusFile/mult_blk2.xlsx,,
,,,,,,,,,,,,,,,777,2022-01-20_01h58.35.702,multiplicationStroop,2021.2.3,Win32,59.31198102,,,,,,,,,,,,,,,,,,,,,,,,,,,,,,,,,,,,,,,,,,,,,,,,,,,,,,,,space,15.9976