welcomeKey_resp.keys,welcomeKey_resp.rt,X Scale,Y Scale,rt_resp_4.keys,rt_resp_4.corr,rt_resp_4.rt,speedtest_2.thisRepN,speedtest_2.thisTrialN,speedtest_2.thisN,speedtest_2.thisIndex,speedtest_2.ran,numberSc,posX,positionLayout,participant,date,expName,psychopyVersion,OS,frameRate,ct_instrresp.keys,ct_instrresp.rt,key_resp_2.keys,key_resp_2.rt,ct_keyResp.keys,ct_keyResp.corr,ct_keyResp.rt,trials.thisRepN,trials.thisTrialN,trials.thisN,trials.thisIndex,trials.ran,leftNo,rightNo,displayProblem,numDistance,leftNo_size,rightNo_size,Dims,keyAnswer,TS_Loop.thisRepN,TS_Loop.thisTrialN,TS_Loop.thisN,TS_Loop.thisIndex,TS_Loop.ran,Condition,ActionInst,instrImage,mltptaskInst_resp.keys,mltptaskInst_resp.rt,continue_resp_2.keys,continue_resp_2.rt,multp_Answer,multi_RT,multiplyCorr,LoopingMultiply.thisRepN,LoopingMultiply.thisTrialN,LoopingMultiply.thisN,LoopingMultiply.thisIndex,LoopingMultiply.ran,factor1,multiplySign,factor2,multliplyProblem,physicalSize,orderOperand,sizeF1,sizeF2,mult_answer,trials_stroop.thisRepN,trials_stroop.thisTrialN,trials_stroop.thisN,trials_stroop.thisIndex,trials_stroop.ran,multiplicationFile,esckey_resp_2.keys,esckey_resp_2.rt
y,12.9487,56.2,55.6,left,1,5.158,0,0,0,2,1,3,-200,left,779,2022-01-18_16h15.58.469,multiplicationStroop,2021.2.3,Win32,59.87306909,,,,,,,,,,,,,,,,,,,,,,,,,,,,,,,,,,,,,,,,,,,,,,,,,,,,,,,,,
,,,,left,1,0.6941,0,1,1,0,1,1,-200,left,779,2022-01-18_16h15.58.469,multiplicationStroop,2021.2.3,Win32,59.87306909,,,,,,,,,,,,,,,,,,,,,,,,,,,,,,,,,,,,,,,,,,,,,,,,,,,,,,,,,
,,,,right,1,0.4505,0,2,2,8,1,1,200,right,779,2022-01-18_16h15.58.469,multiplicationStroop,2021.2.3,Win32,59.87306909,,,,,,,,,,,,,,,,,,,,,,,,,,,,,,,,,,,,,,,,,,,,,,,,,,,,,,,,,
,,,,left,1,0.3077,0,3,3,1,1,2,-200,left,779,2022-01-18_16h15.58.469,multiplicationStroop,2021.2.3,Win32,59.87306909,,,,,,,,,,,,,,,,,,,,,,,,,,,,,,,,,,,,,,,,,,,,,,,,,,,,,,,,,
,,,,left,1,0.3498,0,4,4,6,1,8,-200,left,779,2022-01-18_16h15.58.469,multiplicationStroop,2021.2.3,Win32,59.87306909,,,,,,,,,,,,,,,,,,,,,,,,,,,,,,,,,,,,,,,,,,,,,,,,,,,,,,,,,
,,,,right,1,0.2907,0,5,5,14,1,8,200,right,779,2022-01-18_16h15.58.469,multiplicationStroop,2021.2.3,Win32,59.87306909,,,,,,,,,,,,,,,,,,,,,,,,,,,,,,,,,,,,,,,,,,,,,,,,,,,,,,,,,
,,,,left,1,0.3446,0,6,6,4,1,6,-200,left,779,2022-01-18_16h15.58.469,multiplicationStroop,2021.2.3,Win32,59.87306909,,,,,,,,,,,,,,,,,,,,,,,,,,,,,,,,,,,,,,,,,,,,,,,,,,,,,,,,,
,,,,left,1,0.3262,0,7,7,5,1,7,-200,left,779,2022-01-18_16h15.58.469,multiplicationStroop,2021.2.3,Win32,59.87306909,,,,,,,,,,,,,,,,,,,,,,,,,,,,,,,,,,,,,,,,,,,,,,,,,,,,,,,,,
,,,,right,1,0.2911,0,8,8,12,1,6,200,right,779,2022-01-18_16h15.58.469,multiplicationStroop,2021.2.3,Win32,59.87306909,,,,,,,,,,,,,,,,,,,,,,,,,,,,,,,,,,,,,,,,,,,,,,,,,,,,,,,,,
,,,,right,1,0.3421,0,9,9,13,1,7,200,right,779,2022-01-18_16h15.58.469,multiplicationStroop,2021.2.3,Win32,59.87306909,,,,,,,,,,,,,,,,,,,,,,,,,,,,,,,,,,,,,,,,,,,,,,,,,,,,,,,,,
,,,,left,1,0.2909,0,10,10,7,1,9,-200,left,779,2022-01-18_16h15.58.469,multiplicationStroop,2021.2.3,Win32,59.87306909,,,,,,,,,,,,,,,,,,,,,,,,,,,,,,,,,,,,,,,,,,,,,,,,,,,,,,,,,
,,,,right,1,0.317,0,11,11,9,1,2,200,right,779,2022-01-18_16h15.58.469,multiplicationStroop,2021.2.3,Win32,59.87306909,,,,,,,,,,,,,,,,,,,,,,,,,,,,,,,,,,,,,,,,,,,,,,,,,,,,,,,,,
,,,,right,1,0.4078,0,12,12,10,1,3,200,right,779,2022-01-18_16h15.58.469,multiplicationStroop,2021.2.3,Win32,59.87306909,,,,,,,,,,,,,,,,,,,,,,,,,,,,,,,,,,,,,,,,,,,,,,,,,,,,,,,,,
,,,,right,1,0.3359,0,13,13,15,1,9,200,right,779,2022-01-18_16h15.58.469,multiplicationStroop,2021.2.3,Win32,59.87306909,,,,,,,,,,,,,,,,,,,,,,,,,,,,,,,,,,,,,,,,,,,,,,,,,,,,,,,,,
,,,,left,1,0.3129,0,14,14,3,1,4,-200,left,779,2022-01-18_16h15.58.469,multiplicationStroop,2021.2.3,Win32,59.87306909,,,,,,,,,,,,,,,,,,,,,,,,,,,,,,,,,,,,,,,,,,,,,,,,,,,,,,,,,
,,,,right,1,0.3073,0,15,15,11,1,4,200,right,779,2022-01-18_16h15.58.469,multiplicationStroop,2021.2.3,Win32,59.87306909,,,,,,,,,,,,,,,,,,,,,,,,,,,,,,,,,,,,,,,,,,,,,,,,,,,,,,,,,
,,,,right,1,0.307,1,0,16,10,1,3,200,right,779,2022-01-18_16h15.58.469,multiplicationStroop,2021.2.3,Win32,59.87306909,,,,,,,,,,,,,,,,,,,,,,,,,,,,,,,,,,,,,,,,,,,,,,,,,,,,,,,,,
,,,,right,1,0.259,1,1,17,15,1,9,200,right,779,2022-01-18_16h15.58.469,multiplicationStroop,2021.2.3,Win32,59.87306909,,,,,,,,,,,,,,,,,,,,,,,,,,,,,,,,,,,,,,,,,,,,,,,,,,,,,,,,,
,,,,left,1,0.3342,1,2,18,4,1,6,-200,left,779,2022-01-18_16h15.58.469,multiplicationStroop,2021.2.3,Win32,59.87306909,,,,,,,,,,,,,,,,,,,,,,,,,,,,,,,,,,,,,,,,,,,,,,,,,,,,,,,,,
,,,,right,1,0.2838,1,3,19,14,1,8,200,right,779,2022-01-18_16h15.58.469,multiplicationStroop,2021.2.3,Win32,59.87306909,,,,,,,,,,,,,,,,,,,,,,,,,,,,,,,,,,,,,,,,,,,,,,,,,,,,,,,,,
,,,,right,1,0.3042,1,4,20,9,1,2,200,right,779,2022-01-18_16h15.58.469,multiplicationStroop,2021.2.3,Win32,59.87306909,,,,,,,,,,,,,,,,,,,,,,,,,,,,,,,,,,,,,,,,,,,,,,,,,,,,,,,,,
,,,,left,1,0.351,1,5,21,2,1,3,-200,left,779,2022-01-18_16h15.58.469,multiplicationStroop,2021.2.3,Win32,59.87306909,,,,,,,,,,,,,,,,,,,,,,,,,,,,,,,,,,,,,,,,,,,,,,,,,,,,,,,,,
,,,,right,1,0.2858,1,6,22,13,1,7,200,right,779,2022-01-18_16h15.58.469,multiplicationStroop,2021.2.3,Win32,59.87306909,,,,,,,,,,,,,,,,,,,,,,,,,,,,,,,,,,,,,,,,,,,,,,,,,,,,,,,,,
,,,,left,1,0.3007,1,7,23,1,1,2,-200,left,779,2022-01-18_16h15.58.469,multiplicationStroop,2021.2.3,Win32,59.87306909,,,,,,,,,,,,,,,,,,,,,,,,,,,,,,,,,,,,,,,,,,,,,,,,,,,,,,,,,
,,,,left,1,0.351,1,8,24,3,1,4,-200,left,779,2022-01-18_16h15.58.469,multiplicationStroop,2021.2.3,Win32,59.87306909,,,,,,,,,,,,,,,,,,,,,,,,,,,,,,,,,,,,,,,,,,,,,,,,,,,,,,,,,
,,,,left,1,0.3158,1,9,25,5,1,7,-200,left,779,2022-01-18_16h15.58.469,multiplicationStroop,2021.2.3,Win32,59.87306909,,,,,,,,,,,,,,,,,,,,,,,,,,,,,,,,,,,,,,,,,,,,,,,,,,,,,,,,,
,,,,left,1,0.3097,1,10,26,0,1,1,-200,left,779,2022-01-18_16h15.58.469,multiplicationStroop,2021.2.3,Win32,59.87306909,,,,,,,,,,,,,,,,,,,,,,,,,,,,,,,,,,,,,,,,,,,,,,,,,,,,,,,,,
,,,,right,1,0.3293,1,11,27,8,1,1,200,right,779,2022-01-18_16h15.58.469,multiplicationStroop,2021.2.3,Win32,59.87306909,,,,,,,,,,,,,,,,,,,,,,,,,,,,,,,,,,,,,,,,,,,,,,,,,,,,,,,,,
,,,,right,1,0.3267,1,12,28,11,1,4,200,right,779,2022-01-18_16h15.58.469,multiplicationStroop,2021.2.3,Win32,59.87306909,,,,,,,,,,,,,,,,,,,,,,,,,,,,,,,,,,,,,,,,,,,,,,,,,,,,,,,,,
,,,,left,1,0.335,1,13,29,6,1,8,-200,left,779,2022-01-18_16h15.58.469,multiplicationStroop,2021.2.3,Win32,59.87306909,,,,,,,,,,,,,,,,,,,,,,,,,,,,,,,,,,,,,,,,,,,,,,,,,,,,,,,,,
,,,,left,1,0.3172,1,14,30,7,1,9,-200,left,779,2022-01-18_16h15.58.469,multiplicationStroop,2021.2.3,Win32,59.87306909,,,,,,,,,,,,,,,,,,,,,,,,,,,,,,,,,,,,,,,,,,,,,,,,,,,,,,,,,
,,,,right,1,0.3131,1,15,31,12,1,6,200,right,779,2022-01-18_16h15.58.469,multiplicationStroop,2021.2.3,Win32,59.87306909,,,,,,,,,,,,,,,,,,,,,,,,,,,,,,,,,,,,,,,,,,,,,,,,,,,,,,,,,
,,,,right,1,0.3029,2,0,32,10,1,3,200,right,779,2022-01-18_16h15.58.469,multiplicationStroop,2021.2.3,Win32,59.87306909,,,,,,,,,,,,,,,,,,,,,,,,,,,,,,,,,,,,,,,,,,,,,,,,,,,,,,,,,
,,,,right,1,0.3001,2,1,33,11,1,4,200,right,779,2022-01-18_16h15.58.469,multiplicationStroop,2021.2.3,Win32,59.87306909,,,,,,,,,,,,,,,,,,,,,,,,,,,,,,,,,,,,,,,,,,,,,,,,,,,,,,,,,
,,,,right,1,0.291,2,2,34,13,1,7,200,right,779,2022-01-18_16h15.58.469,multiplicationStroop,2021.2.3,Win32,59.87306909,,,,,,,,,,,,,,,,,,,,,,,,,,,,,,,,,,,,,,,,,,,,,,,,,,,,,,,,,
,,,,left,1,0.701,2,3,35,0,1,1,-200,left,779,2022-01-18_16h15.58.469,multiplicationStroop,2021.2.3,Win32,59.87306909,,,,,,,,,,,,,,,,,,,,,,,,,,,,,,,,,,,,,,,,,,,,,,,,,,,,,,,,,
,,,,right,1,0.3576,2,4,36,12,1,6,200,right,779,2022-01-18_16h15.58.469,multiplicationStroop,2021.2.3,Win32,59.87306909,,,,,,,,,,,,,,,,,,,,,,,,,,,,,,,,,,,,,,,,,,,,,,,,,,,,,,,,,
,,,,right,1,0.3232,2,5,37,14,1,8,200,right,779,2022-01-18_16h15.58.469,multiplicationStroop,2021.2.3,Win32,59.87306909,,,,,,,,,,,,,,,,,,,,,,,,,,,,,,,,,,,,,,,,,,,,,,,,,,,,,,,,,
,,,,left,1,0.3017,2,6,38,3,1,4,-200,left,779,2022-01-18_16h15.58.469,multiplicationStroop,2021.2.3,Win32,59.87306909,,,,,,,,,,,,,,,,,,,,,,,,,,,,,,,,,,,,,,,,,,,,,,,,,,,,,,,,,
,,,,right,1,0.2736,2,7,39,15,1,9,200,right,779,2022-01-18_16h15.58.469,multiplicationStroop,2021.2.3,Win32,59.87306909,,,,,,,,,,,,,,,,,,,,,,,,,,,,,,,,,,,,,,,,,,,,,,,,,,,,,,,,,
,,,,left,1,0.3512,2,8,40,5,1,7,-200,left,779,2022-01-18_16h15.58.469,multiplicationStroop,2021.2.3,Win32,59.87306909,,,,,,,,,,,,,,,,,,,,,,,,,,,,,,,,,,,,,,,,,,,,,,,,,,,,,,,,,
,,,,right,1,0.2697,2,9,41,9,1,2,200,right,779,2022-01-18_16h15.58.469,multiplicationStroop,2021.2.3,Win32,59.87306909,,,,,,,,,,,,,,,,,,,,,,,,,,,,,,,,,,,,,,,,,,,,,,,,,,,,,,,,,
,,,,left,1,0.2493,2,10,42,6,1,8,-200,left,779,2022-01-18_16h15.58.469,multiplicationStroop,2021.2.3,Win32,59.87306909,,,,,,,,,,,,,,,,,,,,,,,,,,,,,,,,,,,,,,,,,,,,,,,,,,,,,,,,,
,,,,left,1,0.297,2,11,43,2,1,3,-200,left,779,2022-01-18_16h15.58.469,multiplicationStroop,2021.2.3,Win32,59.87306909,,,,,,,,,,,,,,,,,,,,,,,,,,,,,,,,,,,,,,,,,,,,,,,,,,,,,,,,,
,,,,right,1,0.2785,2,12,44,8,1,1,200,right,779,2022-01-18_16h15.58.469,multiplicationStroop,2021.2.3,Win32,59.87306909,,,,,,,,,,,,,,,,,,,,,,,,,,,,,,,,,,,,,,,,,,,,,,,,,,,,,,,,,
,,,,left,1,0.2749,2,13,45,4,1,6,-200,left,779,2022-01-18_16h15.58.469,multiplicationStroop,2021.2.3,Win32,59.87306909,,,,,,,,,,,,,,,,,,,,,,,,,,,,,,,,,,,,,,,,,,,,,,,,,,,,,,,,,
,,,,left,1,0.3159,2,14,46,1,1,2,-200,left,779,2022-01-18_16h15.58.469,multiplicationStroop,2021.2.3,Win32,59.87306909,,,,,,,,,,,,,,,,,,,,,,,,,,,,,,,,,,,,,,,,,,,,,,,,,,,,,,,,,
,,,,left,1,0.3323,2,15,47,7,1,9,-200,left,779,2022-01-18_16h15.58.469,multiplicationStroop,2021.2.3,Win32,59.87306909,,,,,,,,,,,,,,,,,,,,,,,,,,,,,,,,,,,,,,,,,,,,,,,,,,,,,,,,,
,,,,left,1,0.3189,3,0,48,5,1,7,-200,left,779,2022-01-18_16h15.58.469,multiplicationStroop,2021.2.3,Win32,59.87306909,,,,,,,,,,,,,,,,,,,,,,,,,,,,,,,,,,,,,,,,,,,,,,,,,,,,,,,,,
,,,,right,1,0.2775,3,1,49,14,1,8,200,right,779,2022-01-18_16h15.58.469,multiplicationStroop,2021.2.3,Win32,59.87306909,,,,,,,,,,,,,,,,,,,,,,,,,,,,,,,,,,,,,,,,,,,,,,,,,,,,,,,,,
,,,,left,1,0.2638,3,2,50,2,1,3,-200,left,779,2022-01-18_16h15.58.469,multiplicationStroop,2021.2.3,Win32,59.87306909,,,,,,,,,,,,,,,,,,,,,,,,,,,,,,,,,,,,,,,,,,,,,,,,,,,,,,,,,
,,,,left,1,0.2796,3,3,51,4,1,6,-200,left,779,2022-01-18_16h15.58.469,multiplicationStroop,2021.2.3,Win32,59.87306909,,,,,,,,,,,,,,,,,,,,,,,,,,,,,,,,,,,,,,,,,,,,,,,,,,,,,,,,,
,,,,right,1,0.3411,3,4,52,9,1,2,200,right,779,2022-01-18_16h15.58.469,multiplicationStroop,2021.2.3,Win32,59.87306909,,,,,,,,,,,,,,,,,,,,,,,,,,,,,,,,,,,,,,,,,,,,,,,,,,,,,,,,,
,,,,left,1,0.2847,3,5,53,3,1,4,-200,left,779,2022-01-18_16h15.58.469,multiplicationStroop,2021.2.3,Win32,59.87306909,,,,,,,,,,,,,,,,,,,,,,,,,,,,,,,,,,,,,,,,,,,,,,,,,,,,,,,,,
,,,,left,1,0.3126,3,6,54,7,1,9,-200,left,779,2022-01-18_16h15.58.469,multiplicationStroop,2021.2.3,Win32,59.87306909,,,,,,,,,,,,,,,,,,,,,,,,,,,,,,,,,,,,,,,,,,,,,,,,,,,,,,,,,
,,,,left,1,0.3349,3,7,55,0,1,1,-200,left,779,2022-01-18_16h15.58.469,multiplicationStroop,2021.2.3,Win32,59.87306909,,,,,,,,,,,,,,,,,,,,,,,,,,,,,,,,,,,,,,,,,,,,,,,,,,,,,,,,,
,,,,right,1,0.3414,3,8,56,12,1,6,200,right,779,2022-01-18_16h15.58.469,multiplicationStroop,2021.2.3,Win32,59.87306909,,,,,,,,,,,,,,,,,,,,,,,,,,,,,,,,,,,,,,,,,,,,,,,,,,,,,,,,,
,,,,right,1,0.3427,3,9,57,11,1,4,200,right,779,2022-01-18_16h15.58.469,multiplicationStroop,2021.2.3,Win32,59.87306909,,,,,,,,,,,,,,,,,,,,,,,,,,,,,,,,,,,,,,,,,,,,,,,,,,,,,,,,,
,,,,right,1,0.3201,3,10,58,10,1,3,200,right,779,2022-01-18_16h15.58.469,multiplicationStroop,2021.2.3,Win32,59.87306909,,,,,,,,,,,,,,,,,,,,,,,,,,,,,,,,,,,,,,,,,,,,,,,,,,,,,,,,,
,,,,right,1,0.294,3,11,59,15,1,9,200,right,779,2022-01-18_16h15.58.469,multiplicationStroop,2021.2.3,Win32,59.87306909,,,,,,,,,,,,,,,,,,,,,,,,,,,,,,,,,,,,,,,,,,,,,,,,,,,,,,,,,
,,,,right,1,0.2706,3,12,60,8,1,1,200,right,779,2022-01-18_16h15.58.469,multiplicationStroop,2021.2.3,Win32,59.87306909,,,,,,,,,,,,,,,,,,,,,,,,,,,,,,,,,,,,,,,,,,,,,,,,,,,,,,,,,
,,,,left,1,0.3132,3,13,61,1,1,2,-200,left,779,2022-01-18_16h15.58.469,multiplicationStroop,2021.2.3,Win32,59.87306909,,,,,,,,,,,,,,,,,,,,,,,,,,,,,,,,,,,,,,,,,,,,,,,,,,,,,,,,,
,,,,right,1,0.2683,3,14,62,13,1,7,200,right,779,2022-01-18_16h15.58.469,multiplicationStroop,2021.2.3,Win32,59.87306909,,,,,,,,,,,,,,,,,,,,,,,,,,,,,,,,,,,,,,,,,,,,,,,,,,,,,,,,,
,,,,left,1,0.2637,3,15,63,6,1,8,-200,left,779,2022-01-18_16h15.58.469,multiplicationStroop,2021.2.3,Win32,59.87306909,,,,,,,,,,,,,,,,,,,,,,,,,,stimulusFile/magnitude.xlsx,,,,,,,,,,,,,,,,,,,,,,,,,,,,,,,
,,,,,,,,,,,,,,,779,2022-01-18_16h15.58.469,multiplicationStroop,2021.2.3,Win32,59.87306909,space,72.2467,space,14.9358,left,1,0.7994,0,0,0,70,1,8,3,8 | 3,5,1.6933,1.6933,neutral,left,,,,,,stimulusFile/magnitude.xlsx,,,,,,,,,,,,,,,,,,,,,,,,,,,,,,,
,,,,,,,,,,,,,,,779,2022-01-18_16h15.58.469,multiplicationStroop,2021.2.3,Win32,59.87306909,,,,,left,1,0.7347,0,1,1,63,1,9,7,9 | 7,2,1.6933,1.6933,neutral,left,,,,,,stimulusFile/magnitude.xlsx,,,,,,,,,,,,,,,,,,,,,,,,,,,,,,,
,,,,,,,,,,,,,,,779,2022-01-18_16h15.58.469,multiplicationStroop,2021.2.3,Win32,59.87306909,,,,,right,1,0.9157,0,2,2,32,1,1,3,1 | 3,2,1.9756,1.4111,incongruent,right,,,,,,stimulusFile/magnitude.xlsx,,,,,,,,,,,,,,,,,,,,,,,,,,,,,,,
,,,,,,,,,,,,,,,779,2022-01-18_16h15.58.469,multiplicationStroop,2021.2.3,Win32,59.87306909,,,,,left,1,1.5123,0,3,3,5,1,4,3,4 | 3,1,1.9756,1.4111,congruent,left,,,,,,stimulusFile/magnitude.xlsx,,,,,,,,,,,,,,,,,,,,,,,,,,,,,,,
,,,,,,,,,,,,,,,779,2022-01-18_16h15.58.469,multiplicationStroop,2021.2.3,Win32,59.87306909,,,,,left,1,0.7072,0,4,4,46,1,8,3,8 | 3,5,1.4111,1.9756,incongruent,left,,,,,,stimulusFile/magnitude.xlsx,,,,,,,,,,,,,,,,,,,,,,,,,,,,,,,
,,,,,,,,,,,,,,,779,2022-01-18_16h15.58.469,multiplicationStroop,2021.2.3,Win32,59.87306909,,,,,left,1,0.5753,0,5,5,44,1,6,1,6 | 1,5,1.4111,1.9756,incongruent,left,,,,,,stimulusFile/magnitude.xlsx,,,,,,,,,,,,,,,,,,,,,,,,,,,,,,,
,,,,,,,,,,,,,,,779,2022-01-18_16h15.58.469,multiplicationStroop,2021.2.3,Win32,59.87306909,,,,,left,1,0.56,0,6,6,61,1,4,2,4 | 2,2,1.6933,1.6933,neutral,left,,,,,,stimulusFile/magnitude.xlsx,,,,,,,,,,,,,,,,,,,,,,,,,,,,,,,
,,,,,,,,,,,,,,,779,2022-01-18_16h15.58.469,multiplicationStroop,2021.2.3,Win32,59.87306909,,,,,right,1,0.5762,0,7,7,24,1,1,2,1 | 2,1,1.9756,1.4111,incongruent,right,,,,,,stimulusFile/magnitude.xlsx,,,,,,,,,,,,,,,,,,,,,,,,,,,,,,,
,,,,,,,,,,,,,,,779,2022-01-18_16h15.58.469,multiplicationStroop,2021.2.3,Win32,59.87306909,,,,,right,1,0.6582,0,8,8,41,1,2,7,2 | 7,5,1.9756,1.4111,incongruent,right,,,,,,stimulusFile/magnitude.xlsx,,,,,,,,,,,,,,,,,,,,,,,,,,,,,,,
,,,,,,,,,,,,,,,779,2022-01-18_16h15.58.469,multiplicationStroop,2021.2.3,Win32,59.87306909,,,,,right,1,0.5689,0,9,9,56,1,1,3,1 | 3,2,1.6933,1.6933,neutral,right,,,,,,stimulusFile/magnitude.xlsx,,,,,,,,,,,,,,,,,,,,,,,,,,,,,,,
,,,,,,,,,,,,,,,779,2022-01-18_16h15.58.469,multiplicationStroop,2021.2.3,Win32,59.87306909,,,,,right,1,0.6918,0,10,10,18,1,3,8,3 | 8,5,1.4111,1.9756,congruent,right,,,,,,stimulusFile/magnitude.xlsx,,,,,,,,,,,,,,,,,,,,,,,,,,,,,,,
,,,,,,,,,,,,,,,779,2022-01-18_16h15.58.469,multiplicationStroop,2021.2.3,Win32,59.87306909,,,,,left,1,0.5529,0,11,11,29,1,4,3,4 | 3,1,1.4111,1.9756,incongruent,left,,,,,,stimulusFile/magnitude.xlsx,,,,,,,,,,,,,,,,,,,,,,,,,,,,,,,
,,,,,,,,,,,,,,,779,2022-01-18_16h15.58.469,multiplicationStroop,2021.2.3,Win32,59.87306909,,,,,left,1,0.8648,0,12,12,55,1,9,8,9 | 8,1,1.6933,1.6933,neutral,left,,,,,,stimulusFile/magnitude.xlsx,,,,,,,,,,,,,,,,,,,,,,,,,,,,,,,
,,,,,,,,,,,,,,,779,2022-01-18_16h15.58.469,multiplicationStroop,2021.2.3,Win32,59.87306909,,,,,left,1,0.9228,0,13,13,38,1,8,6,8 | 6,2,1.4111,1.9756,incongruent,left,,,,,,stimulusFile/magnitude.xlsx,,,,,,,,,,,,,,,,,,,,,,,,,,,,,,,
,,,,,,,,,,,,,,,779,2022-01-18_16h15.58.469,multiplicationStroop,2021.2.3,Win32,59.87306909,,,,,left,1,1.0918,0,14,14,54,1,7,6,7 | 6,1,1.6933,1.6933,neutral,left,,,,,,stimulusFile/magnitude.xlsx,,,,,,,,,,,,,,,,,,,,,,,,,,,,,,,
,,,,,,,,,,,,,,,779,2022-01-18_16h15.58.469,multiplicationStroop,2021.2.3,Win32,59.87306909,,,,,left,1,0.6179,0,15,15,45,1,7,2,7 | 2,5,1.4111,1.9756,incongruent,left,,,,,,stimulusFile/magnitude.xlsx,,,,,,,,,,,,,,,,,,,,,,,,,,,,,,,
,,,,,,,,,,,,,,,779,2022-01-18_16h15.58.469,multiplicationStroop,2021.2.3,Win32,59.87306909,,,,,left,1,0.598,0,16,16,28,1,2,1,2 | 1,1,1.4111,1.9756,incongruent,left,,,,,,stimulusFile/magnitude.xlsx,,,,,,,,,,,,,,,,,,,,,,,,,,,,,,,
,,,,,,,,,,,,,,,779,2022-01-18_16h15.58.469,multiplicationStroop,2021.2.3,Win32,59.87306909,,,,,left,1,0.5234,0,17,17,6,1,7,6,7 | 6,1,1.9756,1.4111,congruent,left,,,,,,stimulusFile/magnitude.xlsx,,,,,,,,,,,,,,,,,,,,,,,,,,,,,,,
,,,,,,,,,,,,,,,779,2022-01-18_16h15.58.469,multiplicationStroop,2021.2.3,Win32,59.87306909,,,,,right,1,0.5765,0,18,18,1,1,3,4,3 | 4,1,1.4111,1.9756,congruent,right,,,,,,stimulusFile/magnitude.xlsx,,,,,,,,,,,,,,,,,,,,,,,,,,,,,,,
,,,,,,,,,,,,,,,779,2022-01-18_16h15.58.469,multiplicationStroop,2021.2.3,Win32,59.87306909,,,,,right,1,0.6653,0,19,19,66,1,3,8,3 | 8,5,1.6933,1.6933,neutral,right,,,,,,stimulusFile/magnitude.xlsx,,,,,,,,,,,,,,,,,,,,,,,,,,,,,,,
,,,,,,,,,,,,,,,779,2022-01-18_16h15.58.469,multiplicationStroop,2021.2.3,Win32,59.87306909,,,,,right,1,0.7089,0,20,20,49,1,3,4,3 | 4,1,1.6933,1.6933,neutral,right,,,,,,stimulusFile/magnitude.xlsx,,,,,,,,,,,,,,,,,,,,,,,,,,,,,,,
,,,,,,,,,,,,,,,779,2022-01-18_16h15.58.469,multiplicationStroop,2021.2.3,Win32,59.87306909,,,,,left,0,0.5578,0,21,21,43,1,4,9,4 | 9,5,1.9756,1.4111,incongruent,right,,,,,,stimulusFile/magnitude.xlsx,,,,,,,,,,,,,,,,,,,,,,,,,,,,,,,
,,,,,,,,,,,,,,,779,2022-01-18_16h15.58.469,multiplicationStroop,2021.2.3,Win32,59.87306909,,,,,left,1,1.2808,0,22,22,47,1,9,4,9 | 4,5,1.4111,1.9756,incongruent,left,,,,,,stimulusFile/magnitude.xlsx,,,,,,,,,,,,,,,,,,,,,,,,,,,,,,,
,,,,,,,,,,,,,,,779,2022-01-18_16h15.58.469,multiplicationStroop,2021.2.3,Win32,59.87306909,,,,,left,1,0.5842,0,23,23,71,1,9,4,9 | 4,5,1.6933,1.6933,neutral,left,,,,,,stimulusFile/magnitude.xlsx,,,,,,,,,,,,,,,,,,,,,,,,,,,,,,,
,,,,,,,,,,,,,,,779,2022-01-18_16h15.58.469,multiplicationStroop,2021.2.3,Win32,59.87306909,,,,,right,1,0.5352,0,24,24,59,1,7,9,7 | 9,2,1.6933,1.6933,neutral,right,,,,,,stimulusFile/magnitude.xlsx,,,,,,,,,,,,,,,,,,,,,,,,,,,,,,,
,,,,,,,,,,,,,,,779,2022-01-18_16h15.58.469,multiplicationStroop,2021.2.3,Win32,59.87306909,,,,,right,1,0.7821,0,25,25,2,1,6,7,6 | 7,1,1.4111,1.9756,congruent,right,,,,,,stimulusFile/magnitude.xlsx,,,,,,,,,,,,,,,,,,,,,,,,,,,,,,,
,,,,,,,,,,,,,,,779,2022-01-18_16h15.58.469,multiplicationStroop,2021.2.3,Win32,59.87306909,,,,,left,1,0.4649,0,26,26,68,1,6,1,6 | 1,5,1.6933,1.6933,neutral,left,,,,,,stimulusFile/magnitude.xlsx,,,,,,,,,,,,,,,,,,,,,,,,,,,,,,,
,,,,,,,,,,,,,,,779,2022-01-18_16h15.58.469,multiplicationStroop,2021.2.3,Win32,59.87306909,,,,,right,1,0.4851,0,27,27,19,1,4,9,4 | 9,5,1.4111,1.9756,congruent,right,,,,,,stimulusFile/magnitude.xlsx,,,,,,,,,,,,,,,,,,,,,,,,,,,,,,,
,,,,,,,,,,,,,,,779,2022-01-18_16h15.58.469,multiplicationStroop,2021.2.3,Win32,59.87306909,,,,,left,1,0.4754,0,28,28,53,1,4,3,4 | 3,1,1.6933,1.6933,neutral,left,,,,,,stimulusFile/magnitude.xlsx,,,,,,,,,,,,,,,,,,,,,,,,,,,,,,,
,,,,,,,,,,,,,,,779,2022-01-18_16h15.58.469,multiplicationStroop,2021.2.3,Win32,59.87306909,,,,,right,1,0.5776,0,29,29,25,1,3,4,3 | 4,1,1.9756,1.4111,incongruent,right,,,,,,stimulusFile/magnitude.xlsx,,,,,,,,,,,,,,,,,,,,,,,,,,,,,,,
,,,,,,,,,,,,,,,779,2022-01-18_16h15.58.469,multiplicationStroop,2021.2.3,Win32,59.87306909,,,,,right,1,0.7992,0,30,30,27,1,8,9,8 | 9,1,1.9756,1.4111,incongruent,right,,,,,,stimulusFile/magnitude.xlsx,,,,,,,,,,,,,,,,,,,,,,,,,,,,,,,
,,,,,,,,,,,,,,,779,2022-01-18_16h15.58.469,multiplicationStroop,2021.2.3,Win32,59.87306909,,,,,right,1,0.6059,0,31,31,58,1,6,8,6 | 8,2,1.6933,1.6933,neutral,right,,,,,,stimulusFile/magnitude.xlsx,,,,,,,,,,,,,,,,,,,,,,,,,,,,,,,
,,,,,,,,,,,,,,,779,2022-01-18_16h15.58.469,multiplicationStroop,2021.2.3,Win32,59.87306909,,,,,right,1,0.627,0,32,32,9,1,2,4,2 | 4,2,1.4111,1.9756,congruent,right,,,,,,stimulusFile/magnitude.xlsx,,,,,,,,,,,,,,,,,,,,,,,,,,,,,,,
,,,,,,,,,,,,,,,779,2022-01-18_16h15.58.469,multiplicationStroop,2021.2.3,Win32,59.87306909,,,,,right,1,0.5703,0,33,33,48,1,1,2,1 | 2,1,1.6933,1.6933,neutral,right,,,,,,stimulusFile/magnitude.xlsx,,,,,,,,,,,,,,,,,,,,,,,,,,,,,,,
,,,,,,,,,,,,,,,779,2022-01-18_16h15.58.469,multiplicationStroop,2021.2.3,Win32,59.87306909,,,,,right,1,0.4984,0,34,34,3,1,8,9,8 | 9,1,1.4111,1.9756,congruent,right,,,,,,stimulusFile/magnitude.xlsx,,,,,,,,,,,,,,,,,,,,,,,,,,,,,,,
,,,,,,,,,,,,,,,779,2022-01-18_16h15.58.469,multiplicationStroop,2021.2.3,Win32,59.87306909,,,,,left,1,0.4868,0,35,35,37,1,4,2,4 | 2,2,1.4111,1.9756,incongruent,left,,,,,,stimulusFile/magnitude.xlsx,,,,,,,,,,,,,,,,,,,,,,,,,,,,,,,
,,,,,,,,,,,,,,,779,2022-01-18_16h15.58.469,multiplicationStroop,2021.2.3,Win32,59.87306909,,,,,right,1,0.6663,0,36,36,33,1,2,4,2 | 4,2,1.9756,1.4111,incongruent,right,,,,,,stimulusFile/magnitude.xlsx,,,,,,,,,,,,,,,,,,,,,,,,,,,,,,,
,,,,,,,,,,,,,,,779,2022-01-18_16h15.58.469,multiplicationStroop,2021.2.3,Win32,59.87306909,,,,,left,1,0.5278,0,37,37,14,1,8,6,8 | 6,2,1.9756,1.4111,congruent,left,,,,,,stimulusFile/magnitude.xlsx,,,,,,,,,,,,,,,,,,,,,,,,,,,,,,,
,,,,,,,,,,,,,,,779,2022-01-18_16h15.58.469,multiplicationStroop,2021.2.3,Win32,59.87306909,,,,,right,1,0.4281,0,38,38,0,1,1,2,1 | 2,1,1.4111,1.9756,congruent,right,,,,,,stimulusFile/magnitude.xlsx,,,,,,,,,,,,,,,,,,,,,,,,,,,,,,,
,,,,,,,,,,,,,,,779,2022-01-18_16h15.58.469,multiplicationStroop,2021.2.3,Win32,59.87306909,,,,,right,1,0.5251,0,39,39,40,1,1,6,1 | 6,5,1.9756,1.4111,incongruent,right,,,,,,stimulusFile/magnitude.xlsx,,,,,,,,,,,,,,,,,,,,,,,,,,,,,,,
,,,,,,,,,,,,,,,779,2022-01-18_16h15.58.469,multiplicationStroop,2021.2.3,Win32,59.87306909,,,,,left,1,0.457,0,40,40,22,1,8,3,8 | 3,5,1.9756,1.4111,congruent,left,,,,,,stimulusFile/magnitude.xlsx,,,,,,,,,,,,,,,,,,,,,,,,,,,,,,,
,,,,,,,,,,,,,,,779,2022-01-18_16h15.58.469,multiplicationStroop,2021.2.3,Win32,59.87306909,,,,,left,1,0.5993,0,41,41,52,1,2,1,2 | 1,1,1.6933,1.6933,neutral,left,,,,,,stimulusFile/magnitude.xlsx,,,,,,,,,,,,,,,,,,,,,,,,,,,,,,,
,,,,,,,,,,,,,,,779,2022-01-18_16h15.58.469,multiplicationStroop,2021.2.3,Win32,59.87306909,,,,,right,1,0.4212,0,42,42,57,1,2,4,2 | 4,2,1.6933,1.6933,neutral,right,,,,,,stimulusFile/magnitude.xlsx,,,,,,,,,,,,,,,,,,,,,,,,,,,,,,,
,,,,,,,,,,,,,,,779,2022-01-18_16h15.58.469,multiplicationStroop,2021.2.3,Win32,59.87306909,,,,,left,1,0.682,0,43,43,30,1,7,6,7 | 6,1,1.4111,1.9756,incongruent,left,,,,,,stimulusFile/magnitude.xlsx,,,,,,,,,,,,,,,,,,,,,,,,,,,,,,,
,,,,,,,,,,,,,,,779,2022-01-18_16h15.58.469,multiplicationStroop,2021.2.3,Win32,59.87306909,,,,,left,1,0.4722,0,44,44,15,1,9,7,9 | 7,2,1.9756,1.4111,congruent,left,,,,,,stimulusFile/magnitude.xlsx,,,,,,,,,,,,,,,,,,,,,,,,,,,,,,,
,,,,,,,,,,,,,,,779,2022-01-18_16h15.58.469,multiplicationStroop,2021.2.3,Win32,59.87306909,,,,,left,1,0.7897,0,45,45,69,1,7,2,7 | 2,5,1.6933,1.6933,neutral,left,,,,,,stimulusFile/magnitude.xlsx,,,,,,,,,,,,,,,,,,,,,,,,,,,,,,,
,,,,,,,,,,,,,,,779,2022-01-18_16h15.58.469,multiplicationStroop,2021.2.3,Win32,59.87306909,,,,,right,1,0.5565,0,46,46,50,1,6,7,6 | 7,1,1.6933,1.6933,neutral,right,,,,,,stimulusFile/magnitude.xlsx,,,,,,,,,,,,,,,,,,,,,,,,,,,,,,,
,,,,,,,,,,,,,,,779,2022-01-18_16h15.58.469,multiplicationStroop,2021.2.3,Win32,59.87306909,,,,,right,0,0.4868,0,47,47,31,1,9,8,9 | 8,1,1.4111,1.9756,incongruent,left,,,,,,stimulusFile/magnitude.xlsx,,,,,,,,,,,,,,,,,,,,,,,,,,,,,,,
,,,,,,,,,,,,,,,779,2022-01-18_16h15.58.469,multiplicationStroop,2021.2.3,Win32,59.87306909,,,,,right,1,1.0894,0,48,48,8,1,1,3,1 | 3,2,1.4111,1.9756,congruent,right,,,,,,stimulusFile/magnitude.xlsx,,,,,,,,,,,,,,,,,,,,,,,,,,,,,,,
,,,,,,,,,,,,,,,779,2022-01-18_16h15.58.469,multiplicationStroop,2021.2.3,Win32,59.87306909,,,,,left,1,0.6179,0,49,49,36,1,3,1,3 | 1,2,1.4111,1.9756,incongruent,left,,,,,,stimulusFile/magnitude.xlsx,,,,,,,,,,,,,,,,,,,,,,,,,,,,,,,
,,,,,,,,,,,,,,,779,2022-01-18_16h15.58.469,multiplicationStroop,2021.2.3,Win32,59.87306909,,,,,left,1,0.5787,0,50,50,39,1,9,7,9 | 7,2,1.4111,1.9756,incongruent,left,,,,,,stimulusFile/magnitude.xlsx,,,,,,,,,,,,,,,,,,,,,,,,,,,,,,,
,,,,,,,,,,,,,,,779,2022-01-18_16h15.58.469,multiplicationStroop,2021.2.3,Win32,59.87306909,,,,,left,1,0.4324,0,51,51,21,1,7,2,7 | 2,5,1.9756,1.4111,congruent,left,,,,,,stimulusFile/magnitude.xlsx,,,,,,,,,,,,,,,,,,,,,,,,,,,,,,,
,,,,,,,,,,,,,,,779,2022-01-18_16h15.58.469,multiplicationStroop,2021.2.3,Win32,59.87306909,,,,,left,1,0.4612,0,52,52,4,1,2,1,2 | 1,1,1.9756,1.4111,congruent,left,,,,,,stimulusFile/magnitude.xlsx,,,,,,,,,,,,,,,,,,,,,,,,,,,,,,,
,,,,,,,,,,,,,,,779,2022-01-18_16h15.58.469,multiplicationStroop,2021.2.3,Win32,59.87306909,,,,,left,1,0.4486,0,53,53,13,1,4,2,4 | 2,2,1.9756,1.4111,congruent,left,,,,,,stimulusFile/magnitude.xlsx,,,,,,,,,,,,,,,,,,,,,,,,,,,,,,,
,,,,,,,,,,,,,,,779,2022-01-18_16h15.58.469,multiplicationStroop,2021.2.3,Win32,59.87306909,,,,,right,1,0.384,0,54,54,10,1,6,8,6 | 8,2,1.4111,1.9756,congruent,right,,,,,,stimulusFile/magnitude.xlsx,,,,,,,,,,,,,,,,,,,,,,,,,,,,,,,
,,,,,,,,,,,,,,,779,2022-01-18_16h15.58.469,multiplicationStroop,2021.2.3,Win32,59.87306909,,,,,right,1,0.6512,0,55,55,11,1,7,9,7 | 9,2,1.4111,1.9756,congruent,right,,,,,,stimulusFile/magnitude.xlsx,,,,,,,,,,,,,,,,,,,,,,,,,,,,,,,
,,,,,,,,,,,,,,,779,2022-01-18_16h15.58.469,multiplicationStroop,2021.2.3,Win32,59.87306909,,,,,left,1,0.466,0,56,56,60,1,3,1,3 | 1,2,1.6933,1.6933,neutral,left,,,,,,stimulusFile/magnitude.xlsx,,,,,,,,,,,,,,,,,,,,,,,,,,,,,,,
,,,,,,,,,,,,,,,779,2022-01-18_16h15.58.469,multiplicationStroop,2021.2.3,Win32,59.87306909,,,,,right,1,0.4479,0,57,57,17,1,2,7,2 | 7,5,1.4111,1.9756,congruent,right,,,,,,stimulusFile/magnitude.xlsx,,,,,,,,,,,,,,,,,,,,,,,,,,,,,,,
,,,,,,,,,,,,,,,779,2022-01-18_16h15.58.469,multiplicationStroop,2021.2.3,Win32,59.87306909,,,,,right,1,0.4447,0,58,58,16,1,1,6,1 | 6,5,1.4111,1.9756,congruent,right,,,,,,stimulusFile/magnitude.xlsx,,,,,,,,,,,,,,,,,,,,,,,,,,,,,,,
,,,,,,,,,,,,,,,779,2022-01-18_16h15.58.469,multiplicationStroop,2021.2.3,Win32,59.87306909,,,,,right,1,0.5816,0,59,59,42,1,3,8,3 | 8,5,1.9756,1.4111,incongruent,right,,,,,,stimulusFile/magnitude.xlsx,,,,,,,,,,,,,,,,,,,,,,,,,,,,,,,
,,,,,,,,,,,,,,,779,2022-01-18_16h15.58.469,multiplicationStroop,2021.2.3,Win32,59.87306909,,,,,left,1,0.4558,0,60,60,12,1,3,1,3 | 1,2,1.9756,1.4111,congruent,left,,,,,,stimulusFile/magnitude.xlsx,,,,,,,,,,,,,,,,,,,,,,,,,,,,,,,
,,,,,,,,,,,,,,,779,2022-01-18_16h15.58.469,multiplicationStroop,2021.2.3,Win32,59.87306909,,,,,right,1,0.5791,0,61,61,34,1,6,8,6 | 8,2,1.9756,1.4111,incongruent,right,,,,,,stimulusFile/magnitude.xlsx,,,,,,,,,,,,,,,,,,,,,,,,,,,,,,,
,,,,,,,,,,,,,,,779,2022-01-18_16h15.58.469,multiplicationStroop,2021.2.3,Win32,59.87306909,,,,,right,1,0.5243,0,62,62,51,1,8,9,8 | 9,1,1.6933,1.6933,neutral,right,,,,,,stimulusFile/magnitude.xlsx,,,,,,,,,,,,,,,,,,,,,,,,,,,,,,,
,,,,,,,,,,,,,,,779,2022-01-18_16h15.58.469,multiplicationStroop,2021.2.3,Win32,59.87306909,,,,,right,1,0.4554,0,63,63,64,1,1,6,1 | 6,5,1.6933,1.6933,neutral,right,,,,,,stimulusFile/magnitude.xlsx,,,,,,,,,,,,,,,,,,,,,,,,,,,,,,,
,,,,,,,,,,,,,,,779,2022-01-18_16h15.58.469,multiplicationStroop,2021.2.3,Win32,59.87306909,,,,,left,1,0.437,0,64,64,20,1,6,1,6 | 1,5,1.9756,1.4111,congruent,left,,,,,,stimulusFile/magnitude.xlsx,,,,,,,,,,,,,,,,,,,,,,,,,,,,,,,
,,,,,,,,,,,,,,,779,2022-01-18_16h15.58.469,multiplicationStroop,2021.2.3,Win32,59.87306909,,,,,right,1,0.4312,0,65,65,67,1,4,9,4 | 9,5,1.6933,1.6933,neutral,right,,,,,,stimulusFile/magnitude.xlsx,,,,,,,,,,,,,,,,,,,,,,,,,,,,,,,
,,,,,,,,,,,,,,,779,2022-01-18_16h15.58.469,multiplicationStroop,2021.2.3,Win32,59.87306909,,,,,left,1,0.5185,0,66,66,7,1,9,8,9 | 8,1,1.9756,1.4111,congruent,left,,,,,,stimulusFile/magnitude.xlsx,,,,,,,,,,,,,,,,,,,,,,,,,,,,,,,
,,,,,,,,,,,,,,,779,2022-01-18_16h15.58.469,multiplicationStroop,2021.2.3,Win32,59.87306909,,,,,right,0,0.7083,0,67,67,62,1,8,6,8 | 6,2,1.6933,1.6933,neutral,left,,,,,,stimulusFile/magnitude.xlsx,,,,,,,,,,,,,,,,,,,,,,,,,,,,,,,
,,,,,,,,,,,,,,,779,2022-01-18_16h15.58.469,multiplicationStroop,2021.2.3,Win32,59.87306909,,,,,left,1,0.8806,0,68,68,23,1,9,4,9 | 4,5,1.9756,1.4111,congruent,left,,,,,,stimulusFile/magnitude.xlsx,,,,,,,,,,,,,,,,,,,,,,,,,,,,,,,
,,,,,,,,,,,,,,,779,2022-01-18_16h15.58.469,multiplicationStroop,2021.2.3,Win32,59.87306909,,,,,right,1,0.5321,0,69,69,35,1,7,9,7 | 9,2,1.9756,1.4111,incongruent,right,,,,,,stimulusFile/magnitude.xlsx,,,,,,,,,,,,,,,,,,,,,,,,,,,,,,,
,,,,,,,,,,,,,,,779,2022-01-18_16h15.58.469,multiplicationStroop,2021.2.3,Win32,59.87306909,,,,,right,1,0.5889,0,70,70,26,1,6,7,6 | 7,1,1.9756,1.4111,incongruent,right,,,,,,stimulusFile/magnitude.xlsx,,,,,,,,,,,,,,,,,,,,,,,,,,,,,,,
,,,,,,,,,,,,,,,779,2022-01-18_16h15.58.469,multiplicationStroop,2021.2.3,Win32,59.87306909,,,,,right,1,0.5147,0,71,71,65,1,2,7,2 | 7,5,1.6933,1.6933,neutral,right,,,,,,stimulusFile/magnitude.xlsx,,,,,,,,,,,,,,,,,,,,,,,,,,,,,,,
,,,,,,,,,,,,,,,779,2022-01-18_16h15.58.469,multiplicationStroop,2021.2.3,Win32,59.87306909,,,,,,,,,,,,,,,,,,,,,0,0,0,0,1,stimulusFile/magnitude.xlsx,NUMERICALLY larger (larger coefficient).,images/numericallyLarger.png,,,,,,,,,,,,,,,,,,,,,,,,,,,,,
,,,,,,,,,,,,,,,779,2022-01-18_16h15.58.469,multiplicationStroop,2021.2.3,Win32,59.87306909,space,3.2941,space,1.0685,left,1,0.5365,0,0,0,20,1,6,1,6 | 1,5,1.9756,1.4111,congruent,left,,,,,,stimulusFile/physical.xlsx,,,,,,,,,,,,,,,,,,,,,,,,,,,,,,,
,,,,,,,,,,,,,,,779,2022-01-18_16h15.58.469,multiplicationStroop,2021.2.3,Win32,59.87306909,,,,,left,1,0.5482,0,1,1,4,1,2,1,2 | 1,1,1.9756,1.4111,congruent,left,,,,,,stimulusFile/physical.xlsx,,,,,,,,,,,,,,,,,,,,,,,,,,,,,,,
,,,,,,,,,,,,,,,779,2022-01-18_16h15.58.469,multiplicationStroop,2021.2.3,Win32,59.87306909,,,,,right,1,0.7227,0,2,2,45,1,7,2,7 | 2,5,1.4111,1.9756,incongruent,right,,,,,,stimulusFile/physical.xlsx,,,,,,,,,,,,,,,,,,,,,,,,,,,,,,,
,,,,,,,,,,,,,,,779,2022-01-18_16h15.58.469,multiplicationStroop,2021.2.3,Win32,59.87306909,,,,,left,1,0.4647,0,3,3,23,1,9,4,9 | 4,5,1.9756,1.4111,congruent,left,,,,,,stimulusFile/physical.xlsx,,,,,,,,,,,,,,,,,,,,,,,,,,,,,,,
,,,,,,,,,,,,,,,779,2022-01-18_16h15.58.469,multiplicationStroop,2021.2.3,Win32,59.87306909,,,,,right,1,0.4283,0,4,4,59,1,7,7,7 | 7,0,1.4111,1.9756,neutral,right,,,,,,stimulusFile/physical.xlsx,,,,,,,,,,,,,,,,,,,,,,,,,,,,,,,
,,,,,,,,,,,,,,,779,2022-01-18_16h15.58.469,multiplicationStroop,2021.2.3,Win32,59.87306909,,,,,left,1,0.5247,0,5,5,70,1,8,8,8 | 8,0,1.9756,1.4111,neutral,left,,,,,,stimulusFile/physical.xlsx,,,,,,,,,,,,,,,,,,,,,,,,,,,,,,,
,,,,,,,,,,,,,,,779,2022-01-18_16h15.58.469,multiplicationStroop,2021.2.3,Win32,59.87306909,,,,,left,1,0.4929,0,6,6,68,1,6,6,6 | 6,0,1.9756,1.4111,neutral,left,,,,,,stimulusFile/physical.xlsx,,,,,,,,,,,,,,,,,,,,,,,,,,,,,,,
,,,,,,,,,,,,,,,779,2022-01-18_16h15.58.469,multiplicationStroop,2021.2.3,Win32,59.87306909,,,,,right,1,0.4928,0,7,7,37,1,4,2,4 | 2,2,1.4111,1.9756,incongruent,right,,,,,,stimulusFile/physical.xlsx,,,,,,,,,,,,,,,,,,,,,,,,,,,,,,,
,,,,,,,,,,,,,,,779,2022-01-18_16h15.58.469,multiplicationStroop,2021.2.3,Win32,59.87306909,,,,,right,0,0.5089,0,8,8,71,1,9,9,9 | 9,0,1.4111,1.9756,neutral,left,,,,,,stimulusFile/physical.xlsx,,,,,,,,,,,,,,,,,,,,,,,,,,,,,,,
,,,,,,,,,,,,,,,779,2022-01-18_16h15.58.469,multiplicationStroop,2021.2.3,Win32,59.87306909,,,,,right,1,0.493,0,9,9,62,1,8,8,8 | 8,0,1.4111,1.9756,neutral,right,,,,,,stimulusFile/physical.xlsx,,,,,,,,,,,,,,,,,,,,,,,,,,,,,,,
,,,,,,,,,,,,,,,779,2022-01-18_16h15.58.469,multiplicationStroop,2021.2.3,Win32,59.87306909,,,,,right,1,0.4809,0,10,10,1,1,3,4,3 | 4,1,1.4111,1.9756,congruent,right,,,,,,stimulusFile/physical.xlsx,,,,,,,,,,,,,,,,,,,,,,,,,,,,,,,
,,,,,,,,,,,,,,,779,2022-01-18_16h15.58.469,multiplicationStroop,2021.2.3,Win32,59.87306909,,,,,left,1,0.4034,0,11,11,34,1,6,8,6 | 8,2,1.9756,1.4111,incongruent,left,,,,,,stimulusFile/physical.xlsx,,,,,,,,,,,,,,,,,,,,,,,,,,,,,,,
,,,,,,,,,,,,,,,779,2022-01-18_16h15.58.469,multiplicationStroop,2021.2.3,Win32,59.87306909,,,,,right,1,0.3295,0,12,12,29,1,4,3,4 | 3,1,1.4111,1.9756,incongruent,right,,,,,,stimulusFile/physical.xlsx,,,,,,,,,,,,,,,,,,,,,,,,,,,,,,,
,,,,,,,,,,,,,,,779,2022-01-18_16h15.58.469,multiplicationStroop,2021.2.3,Win32,59.87306909,,,,,right,1,0.4942,0,13,13,38,1,8,6,8 | 6,2,1.4111,1.9756,incongruent,right,,,,,,stimulusFile/physical.xlsx,,,,,,,,,,,,,,,,,,,,,,,,,,,,,,,
,,,,,,,,,,,,,,,779,2022-01-18_16h15.58.469,multiplicationStroop,2021.2.3,Win32,59.87306909,,,,,right,1,0.4084,0,14,14,63,1,9,9,9 | 9,0,1.4111,1.9756,neutral,right,,,,,,stimulusFile/physical.xlsx,,,,,,,,,,,,,,,,,,,,,,,,,,,,,,,
,,,,,,,,,,,,,,,779,2022-01-18_16h15.58.469,multiplicationStroop,2021.2.3,Win32,59.87306909,,,,,right,1,0.3699,0,15,15,3,1,8,9,8 | 9,1,1.4111,1.9756,congruent,right,,,,,,stimulusFile/physical.xlsx,,,,,,,,,,,,,,,,,,,,,,,,,,,,,,,
,,,,,,,,,,,,,,,779,2022-01-18_16h15.58.469,multiplicationStroop,2021.2.3,Win32,59.87306909,,,,,left,1,0.4979,0,16,16,53,1,4,4,4 | 4,0,1.9756,1.4111,neutral,left,,,,,,stimulusFile/physical.xlsx,,,,,,,,,,,,,,,,,,,,,,,,,,,,,,,
,,,,,,,,,,,,,,,779,2022-01-18_16h15.58.469,multiplicationStroop,2021.2.3,Win32,59.87306909,,,,,right,1,0.4437,0,17,17,0,1,1,2,1 | 2,1,1.4111,1.9756,congruent,right,,,,,,stimulusFile/physical.xlsx,,,,,,,,,,,,,,,,,,,,,,,,,,,,,,,
,,,,,,,,,,,,,,,779,2022-01-18_16h15.58.469,multiplicationStroop,2021.2.3,Win32,59.87306909,,,,,left,1,0.3565,0,18,18,55,1,9,9,9 | 9,0,1.9756,1.4111,neutral,left,,,,,,stimulusFile/physical.xlsx,,,,,,,,,,,,,,,,,,,,,,,,,,,,,,,
,,,,,,,,,,,,,,,779,2022-01-18_16h15.58.469,multiplicationStroop,2021.2.3,Win32,59.87306909,,,,,right,1,0.3731,0,19,19,65,1,2,2,2 | 2,0,1.4111,1.9756,neutral,right,,,,,,stimulusFile/physical.xlsx,,,,,,,,,,,,,,,,,,,,,,,,,,,,,,,
,,,,,,,,,,,,,,,779,2022-01-18_16h15.58.469,multiplicationStroop,2021.2.3,Win32,59.87306909,,,,,left,0,0.4955,0,20,20,64,1,1,1,1 | 1,0,1.9756,1.4111,neutral,right,,,,,,stimulusFile/physical.xlsx,,,,,,,,,,,,,,,,,,,,,,,,,,,,,,,
,,,,,,,,,,,,,,,779,2022-01-18_16h15.58.469,multiplicationStroop,2021.2.3,Win32,59.87306909,,,,,right,1,0.4379,0,21,21,28,1,2,1,2 | 1,1,1.4111,1.9756,incongruent,right,,,,,,stimulusFile/physical.xlsx,,,,,,,,,,,,,,,,,,,,,,,,,,,,,,,
,,,,,,,,,,,,,,,779,2022-01-18_16h15.58.469,multiplicationStroop,2021.2.3,Win32,59.87306909,,,,,left,0,0.489,0,22,22,44,1,6,1,6 | 1,5,1.4111,1.9756,incongruent,right,,,,,,stimulusFile/physical.xlsx,,,,,,,,,,,,,,,,,,,,,,,,,,,,,,,
,,,,,,,,,,,,,,,779,2022-01-18_16h15.58.469,multiplicationStroop,2021.2.3,Win32,59.87306909,,,,,right,1,0.6145,0,23,23,61,1,4,4,4 | 4,0,1.4111,1.9756,neutral,right,,,,,,stimulusFile/physical.xlsx,,,,,,,,,,,,,,,,,,,,,,,,,,,,,,,
,,,,,,,,,,,,,,,779,2022-01-18_16h15.58.469,multiplicationStroop,2021.2.3,Win32,59.87306909,,,,,left,1,0.3988,0,24,24,7,1,9,8,9 | 8,1,1.9756,1.4111,congruent,left,,,,,,stimulusFile/physical.xlsx,,,,,,,,,,,,,,,,,,,,,,,,,,,,,,,
,,,,,,,,,,,,,,,779,2022-01-18_16h15.58.469,multiplicationStroop,2021.2.3,Win32,59.87306909,,,,,right,1,0.3734,0,25,25,11,1,7,9,7 | 9,2,1.4111,1.9756,congruent,right,,,,,,stimulusFile/physical.xlsx,,,,,,,,,,,,,,,,,,,,,,,,,,,,,,,
,,,,,,,,,,,,,,,779,2022-01-18_16h15.58.469,multiplicationStroop,2021.2.3,Win32,59.87306909,,,,,left,1,0.3774,0,26,26,26,1,6,7,6 | 7,1,1.9756,1.4111,incongruent,left,,,,,,stimulusFile/physical.xlsx,,,,,,,,,,,,,,,,,,,,,,,,,,,,,,,
,,,,,,,,,,,,,,,779,2022-01-18_16h15.58.469,multiplicationStroop,2021.2.3,Win32,59.87306909,,,,,right,1,0.3442,0,27,27,19,1,4,9,4 | 9,5,1.4111,1.9756,congruent,right,,,,,,stimulusFile/physical.xlsx,,,,,,,,,,,,,,,,,,,,,,,,,,,,,,,
,,,,,,,,,,,,,,,779,2022-01-18_16h15.58.469,multiplicationStroop,2021.2.3,Win32,59.87306909,,,,,right,1,0.4718,0,28,28,60,1,3,3,3 | 3,0,1.4111,1.9756,neutral,right,,,,,,stimulusFile/physical.xlsx,,,,,,,,,,,,,,,,,,,,,,,,,,,,,,,
,,,,,,,,,,,,,,,779,2022-01-18_16h15.58.469,multiplicationStroop,2021.2.3,Win32,59.87306909,,,,,left,1,0.393,0,29,29,13,1,4,2,4 | 2,2,1.9756,1.4111,congruent,left,,,,,,stimulusFile/physical.xlsx,,,,,,,,,,,,,,,,,,,,,,,,,,,,,,,
,,,,,,,,,,,,,,,779,2022-01-18_16h15.58.469,multiplicationStroop,2021.2.3,Win32,59.87306909,,,,,left,1,0.4685,0,30,30,25,1,3,4,3 | 4,1,1.9756,1.4111,incongruent,left,,,,,,stimulusFile/physical.xlsx,,,,,,,,,,,,,,,,,,,,,,,,,,,,,,,
,,,,,,,,,,,,,,,779,2022-01-18_16h15.58.469,multiplicationStroop,2021.2.3,Win32,59.87306909,,,,,right,1,0.3848,0,31,31,10,1,6,8,6 | 8,2,1.4111,1.9756,congruent,right,,,,,,stimulusFile/physical.xlsx,,,,,,,,,,,,,,,,,,,,,,,,,,,,,,,
,,,,,,,,,,,,,,,779,2022-01-18_16h15.58.469,multiplicationStroop,2021.2.3,Win32,59.87306909,,,,,right,1,0.4437,0,32,32,8,1,1,3,1 | 3,2,1.4111,1.9756,congruent,right,,,,,,stimulusFile/physical.xlsx,,,,,,,,,,,,,,,,,,,,,,,,,,,,,,,
,,,,,,,,,,,,,,,779,2022-01-18_16h15.58.469,multiplicationStroop,2021.2.3,Win32,59.87306909,,,,,left,1,0.3908,0,33,33,22,1,8,3,8 | 3,5,1.9756,1.4111,congruent,left,,,,,,stimulusFile/physical.xlsx,,,,,,,,,,,,,,,,,,,,,,,,,,,,,,,
,,,,,,,,,,,,,,,779,2022-01-18_16h15.58.469,multiplicationStroop,2021.2.3,Win32,59.87306909,,,,,right,0,0.3435,0,34,34,69,1,7,7,7 | 7,0,1.4111,1.9756,neutral,left,,,,,,stimulusFile/physical.xlsx,,,,,,,,,,,,,,,,,,,,,,,,,,,,,,,
,,,,,,,,,,,,,,,779,2022-01-18_16h15.58.469,multiplicationStroop,2021.2.3,Win32,59.87306909,,,,,left,1,0.5186,0,35,35,48,1,1,1,1 | 1,0,1.9756,1.4111,neutral,left,,,,,,stimulusFile/physical.xlsx,,,,,,,,,,,,,,,,,,,,,,,,,,,,,,,
,,,,,,,,,,,,,,,779,2022-01-18_16h15.58.469,multiplicationStroop,2021.2.3,Win32,59.87306909,,,,,right,1,0.3706,0,36,36,67,1,4,4,4 | 4,0,1.4111,1.9756,neutral,right,,,,,,stimulusFile/physical.xlsx,,,,,,,,,,,,,,,,,,,,,,,,,,,,,,,
,,,,,,,,,,,,,,,779,2022-01-18_16h15.58.469,multiplicationStroop,2021.2.3,Win32,59.87306909,,,,,left,1,0.3866,0,37,37,24,1,1,2,1 | 2,1,1.9756,1.4111,incongruent,left,,,,,,stimulusFile/physical.xlsx,,,,,,,,,,,,,,,,,,,,,,,,,,,,,,,
,,,,,,,,,,,,,,,779,2022-01-18_16h15.58.469,multiplicationStroop,2021.2.3,Win32,59.87306909,,,,,left,1,0.5994,0,38,38,52,1,2,2,2 | 2,0,1.9756,1.4111,neutral,left,,,,,,stimulusFile/physical.xlsx,,,,,,,,,,,,,,,,,,,,,,,,,,,,,,,
,,,,,,,,,,,,,,,779,2022-01-18_16h15.58.469,multiplicationStroop,2021.2.3,Win32,59.87306909,,,,,left,1,0.3595,0,39,39,50,1,6,6,6 | 6,0,1.9756,1.4111,neutral,left,,,,,,stimulusFile/physical.xlsx,,,,,,,,,,,,,,,,,,,,,,,,,,,,,,,
,,,,,,,,,,,,,,,779,2022-01-18_16h15.58.469,multiplicationStroop,2021.2.3,Win32,59.87306909,,,,,right,1,0.4073,0,40,40,58,1,6,6,6 | 6,0,1.4111,1.9756,neutral,right,,,,,,stimulusFile/physical.xlsx,,,,,,,,,,,,,,,,,,,,,,,,,,,,,,,
,,,,,,,,,,,,,,,779,2022-01-18_16h15.58.469,multiplicationStroop,2021.2.3,Win32,59.87306909,,,,,left,1,0.3668,0,41,41,49,1,3,3,3 | 3,0,1.9756,1.4111,neutral,left,,,,,,stimulusFile/physical.xlsx,,,,,,,,,,,,,,,,,,,,,,,,,,,,,,,
,,,,,,,,,,,,,,,779,2022-01-18_16h15.58.469,multiplicationStroop,2021.2.3,Win32,59.87306909,,,,,left,0,0.3153,0,42,42,18,1,3,8,3 | 8,5,1.4111,1.9756,congruent,right,,,,,,stimulusFile/physical.xlsx,,,,,,,,,,,,,,,,,,,,,,,,,,,,,,,
,,,,,,,,,,,,,,,779,2022-01-18_16h15.58.469,multiplicationStroop,2021.2.3,Win32,59.87306909,,,,,left,1,0.4159,0,43,43,54,1,7,7,7 | 7,0,1.9756,1.4111,neutral,left,,,,,,stimulusFile/physical.xlsx,,,,,,,,,,,,,,,,,,,,,,,,,,,,,,,
,,,,,,,,,,,,,,,779,2022-01-18_16h15.58.469,multiplicationStroop,2021.2.3,Win32,59.87306909,,,,,left,1,0.4905,0,44,44,43,1,4,9,4 | 9,5,1.9756,1.4111,incongruent,left,,,,,,stimulusFile/physical.xlsx,,,,,,,,,,,,,,,,,,,,,,,,,,,,,,,
,,,,,,,,,,,,,,,779,2022-01-18_16h15.58.469,multiplicationStroop,2021.2.3,Win32,59.87306909,,,,,left,1,0.4568,0,45,45,12,1,3,1,3 | 1,2,1.9756,1.4111,congruent,left,,,,,,stimulusFile/physical.xlsx,,,,,,,,,,,,,,,,,,,,,,,,,,,,,,,
,,,,,,,,,,,,,,,779,2022-01-18_16h15.58.469,multiplicationStroop,2021.2.3,Win32,59.87306909,,,,,right,1,0.4538,0,46,46,30,1,7,6,7 | 6,1,1.4111,1.9756,incongruent,right,,,,,,stimulusFile/physical.xlsx,,,,,,,,,,,,,,,,,,,,,,,,,,,,,,,
,,,,,,,,,,,,,,,779,2022-01-18_16h15.58.469,multiplicationStroop,2021.2.3,Win32,59.87306909,,,,,right,1,0.5575,0,47,47,9,1,2,4,2 | 4,2,1.4111,1.9756,congruent,right,,,,,,stimulusFile/physical.xlsx,,,,,,,,,,,,,,,,,,,,,,,,,,,,,,,
,,,,,,,,,,,,,,,779,2022-01-18_16h15.58.469,multiplicationStroop,2021.2.3,Win32,59.87306909,,,,,left,1,0.4064,0,48,48,33,1,2,4,2 | 4,2,1.9756,1.4111,incongruent,left,,,,,,stimulusFile/physical.xlsx,,,,,,,,,,,,,,,,,,,,,,,,,,,,,,,
,,,,,,,,,,,,,,,779,2022-01-18_16h15.58.469,multiplicationStroop,2021.2.3,Win32,59.87306909,,,,,right,1,0.6207,0,49,49,16,1,1,6,1 | 6,5,1.4111,1.9756,congruent,right,,,,,,stimulusFile/physical.xlsx,,,,,,,,,,,,,,,,,,,,,,,,,,,,,,,
,,,,,,,,,,,,,,,779,2022-01-18_16h15.58.469,multiplicationStroop,2021.2.3,Win32,59.87306909,,,,,left,1,0.4149,0,50,50,32,1,1,3,1 | 3,2,1.9756,1.4111,incongruent,left,,,,,,stimulusFile/physical.xlsx,,,,,,,,,,,,,,,,,,,,,,,,,,,,,,,
,,,,,,,,,,,,,,,779,2022-01-18_16h15.58.469,multiplicationStroop,2021.2.3,Win32,59.87306909,,,,,left,1,0.4719,0,51,51,27,1,8,9,8 | 9,1,1.9756,1.4111,incongruent,left,,,,,,stimulusFile/physical.xlsx,,,,,,,,,,,,,,,,,,,,,,,,,,,,,,,
,,,,,,,,,,,,,,,779,2022-01-18_16h15.58.469,multiplicationStroop,2021.2.3,Win32,59.87306909,,,,,right,1,0.4059,0,52,52,2,1,6,7,6 | 7,1,1.4111,1.9756,congruent,right,,,,,,stimulusFile/physical.xlsx,,,,,,,,,,,,,,,,,,,,,,,,,,,,,,,
,,,,,,,,,,,,,,,779,2022-01-18_16h15.58.469,multiplicationStroop,2021.2.3,Win32,59.87306909,,,,,left,1,0.3852,0,53,53,14,1,8,6,8 | 6,2,1.9756,1.4111,congruent,left,,,,,,stimulusFile/physical.xlsx,,,,,,,,,,,,,,,,,,,,,,,,,,,,,,,
,,,,,,,,,,,,,,,779,2022-01-18_16h15.58.469,multiplicationStroop,2021.2.3,Win32,59.87306909,,,,,right,1,0.7557,0,54,54,31,1,9,8,9 | 8,1,1.4111,1.9756,incongruent,right,,,,,,stimulusFile/physical.xlsx,,,,,,,,,,,,,,,,,,,,,,,,,,,,,,,
,,,,,,,,,,,,,,,779,2022-01-18_16h15.58.469,multiplicationStroop,2021.2.3,Win32,59.87306909,,,,,left,1,0.4226,0,55,55,21,1,7,2,7 | 2,5,1.9756,1.4111,congruent,left,,,,,,stimulusFile/physical.xlsx,,,,,,,,,,,,,,,,,,,,,,,,,,,,,,,
,,,,,,,,,,,,,,,779,2022-01-18_16h15.58.469,multiplicationStroop,2021.2.3,Win32,59.87306909,,,,,left,1,0.4053,0,56,56,6,1,7,6,7 | 6,1,1.9756,1.4111,congruent,left,,,,,,stimulusFile/physical.xlsx,,,,,,,,,,,,,,,,,,,,,,,,,,,,,,,
,,,,,,,,,,,,,,,779,2022-01-18_16h15.58.469,multiplicationStroop,2021.2.3,Win32,59.87306909,,,,,right,1,0.5338,0,57,57,36,1,3,1,3 | 1,2,1.4111,1.9756,incongruent,right,,,,,,stimulusFile/physical.xlsx,,,,,,,,,,,,,,,,,,,,,,,,,,,,,,,
,,,,,,,,,,,,,,,779,2022-01-18_16h15.58.469,multiplicationStroop,2021.2.3,Win32,59.87306909,,,,,right,1,0.4764,0,58,58,46,1,8,3,8 | 3,5,1.4111,1.9756,incongruent,right,,,,,,stimulusFile/physical.xlsx,,,,,,,,,,,,,,,,,,,,,,,,,,,,,,,
,,,,,,,,,,,,,,,779,2022-01-18_16h15.58.469,multiplicationStroop,2021.2.3,Win32,59.87306909,,,,,right,1,0.5373,0,59,59,47,1,9,4,9 | 4,5,1.4111,1.9756,incongruent,right,,,,,,stimulusFile/physical.xlsx,,,,,,,,,,,,,,,,,,,,,,,,,,,,,,,
,,,,,,,,,,,,,,,779,2022-01-18_16h15.58.469,multiplicationStroop,2021.2.3,Win32,59.87306909,,,,,right,0,0.369,0,60,60,15,1,9,7,9 | 7,2,1.9756,1.4111,congruent,left,,,,,,stimulusFile/physical.xlsx,,,,,,,,,,,,,,,,,,,,,,,,,,,,,,,
,,,,,,,,,,,,,,,779,2022-01-18_16h15.58.469,multiplicationStroop,2021.2.3,Win32,59.87306909,,,,,right,1,0.4528,0,61,61,17,1,2,7,2 | 7,5,1.4111,1.9756,congruent,right,,,,,,stimulusFile/physical.xlsx,,,,,,,,,,,,,,,,,,,,,,,,,,,,,,,
,,,,,,,,,,,,,,,779,2022-01-18_16h15.58.469,multiplicationStroop,2021.2.3,Win32,59.87306909,,,,,right,1,0.3999,0,62,62,39,1,9,7,9 | 7,2,1.4111,1.9756,incongruent,right,,,,,,stimulusFile/physical.xlsx,,,,,,,,,,,,,,,,,,,,,,,,,,,,,,,
,,,,,,,,,,,,,,,779,2022-01-18_16h15.58.469,multiplicationStroop,2021.2.3,Win32,59.87306909,,,,,left,0,0.4323,0,63,63,66,1,3,3,3 | 3,0,1.9756,1.4111,neutral,right,,,,,,stimulusFile/physical.xlsx,,,,,,,,,,,,,,,,,,,,,,,,,,,,,,,
,,,,,,,,,,,,,,,779,2022-01-18_16h15.58.469,multiplicationStroop,2021.2.3,Win32,59.87306909,,,,,right,1,0.3832,0,64,64,57,1,2,2,2 | 2,0,1.4111,1.9756,neutral,right,,,,,,stimulusFile/physical.xlsx,,,,,,,,,,,,,,,,,,,,,,,,,,,,,,,
,,,,,,,,,,,,,,,779,2022-01-18_16h15.58.469,multiplicationStroop,2021.2.3,Win32,59.87306909,,,,,right,1,0.4525,0,65,65,56,1,1,1,1 | 1,0,1.4111,1.9756,neutral,right,,,,,,stimulusFile/physical.xlsx,,,,,,,,,,,,,,,,,,,,,,,,,,,,,,,
,,,,,,,,,,,,,,,779,2022-01-18_16h15.58.469,multiplicationStroop,2021.2.3,Win32,59.87306909,,,,,left,1,1.0851,0,66,66,41,1,2,7,2 | 7,5,1.9756,1.4111,incongruent,left,,,,,,stimulusFile/physical.xlsx,,,,,,,,,,,,,,,,,,,,,,,,,,,,,,,
,,,,,,,,,,,,,,,779,2022-01-18_16h15.58.469,multiplicationStroop,2021.2.3,Win32,59.87306909,,,,,left,1,0.5327,0,67,67,51,1,8,8,8 | 8,0,1.9756,1.4111,neutral,left,,,,,,stimulusFile/physical.xlsx,,,,,,,,,,,,,,,,,,,,,,,,,,,,,,,
,,,,,,,,,,,,,,,779,2022-01-18_16h15.58.469,multiplicationStroop,2021.2.3,Win32,59.87306909,,,,,left,1,0.3902,0,68,68,5,1,4,3,4 | 3,1,1.9756,1.4111,congruent,left,,,,,,stimulusFile/physical.xlsx,,,,,,,,,,,,,,,,,,,,,,,,,,,,,,,
,,,,,,,,,,,,,,,779,2022-01-18_16h15.58.469,multiplicationStroop,2021.2.3,Win32,59.87306909,,,,,left,1,0.4892,0,69,69,42,1,3,8,3 | 8,5,1.9756,1.4111,incongruent,left,,,,,,stimulusFile/physical.xlsx,,,,,,,,,,,,,,,,,,,,,,,,,,,,,,,
,,,,,,,,,,,,,,,779,2022-01-18_16h15.58.469,multiplicationStroop,2021.2.3,Win32,59.87306909,,,,,left,1,0.3565,0,70,70,35,1,7,9,7 | 9,2,1.9756,1.4111,incongruent,left,,,,,,stimulusFile/physical.xlsx,,,,,,,,,,,,,,,,,,,,,,,,,,,,,,,
,,,,,,,,,,,,,,,779,2022-01-18_16h15.58.469,multiplicationStroop,2021.2.3,Win32,59.87306909,,,,,left,1,0.838,0,71,71,40,1,1,6,1 | 6,5,1.9756,1.4111,incongruent,left,,,,,,stimulusFile/physical.xlsx,,,,,,,,,,,,,,,,,,,,,,,,,,,,,,,
,,,,,,,,,,,,,,,779,2022-01-18_16h15.58.469,multiplicationStroop,2021.2.3,Win32,59.87306909,,,,,,,,,,,,,,,,,,,,,0,1,1,1,1,stimulusFile/physical.xlsx,PHYSICALLY larger (larger font size).,images/physicallyLarger.png,,,,,,,,,,,,,,,,,,,,,,,,,,,,,
,,,,,,,,,,,,,,,779,2022-01-18_16h15.58.469,multiplicationStroop,2021.2.3,Win32,59.87306909,,,,,,,,,,,,,,,,,,,,,,,,,,,,,space,13.7135,space,1.9639,12,5.4396,1,0,0,0,5,1,3,×,4,3 × 4,incongruent,smallerFirst,2,1,12,,,,,,,,
,,,,,,,,,,,,,,,779,2022-01-18_16h15.58.469,multiplicationStroop,2021.2.3,Win32,59.87306909,,,,,,,,,,,,,,,,,,,,,,,,,,,,,,,,,10,2.1088,1,0,1,1,21,1,5,×,2,5 × 2,incongruent,largerFirst,1,2,10,,,,,,,,
,,,,,,,,,,,,,,,779,2022-01-18_16h15.58.469,multiplicationStroop,2021.2.3,Win32,59.87306909,,,,,,,,,,,,,,,,,,,,,,,,,,,,,,,,,36,4.5812,0,0,2,2,7,1,4,×,8,4 × 8,incongruent,smallerFirst,2,1,32,,,,,,,,
,,,,,,,,,,,,,,,779,2022-01-18_16h15.58.469,multiplicationStroop,2021.2.3,Win32,59.87306909,,,,,,,,,,,,,,,,,,,,,,,,,,,,,,,,,63,4.2924,1,0,3,3,3,1,7,×,9,7 × 9,incongruent,smallerFirst,2,1,63,,,,,,,,
,,,,,,,,,,,,,,,779,2022-01-18_16h15.58.469,multiplicationStroop,2021.2.3,Win32,59.87306909,,,,,,,,,,,,,,,,,,,,,,,,,,,,,,,,,64,2.2082,1,0,4,4,34,1,8,×,8,8 × 8,incongruent,tie,1,2,64,,,,,,,,
,,,,,,,,,,,,,,,779,2022-01-18_16h15.58.469,multiplicationStroop,2021.2.3,Win32,59.87306909,,,,,,,,,,,,,,,,,,,,,,,,,,,,,,,,,72,2.5489,0,0,5,5,6,1,6,×,9,6 × 9,incongruent,smallerFirst,2,1,54,,,,,,,,
,,,,,,,,,,,,,,,779,2022-01-18_16h15.58.469,multiplicationStroop,2021.2.3,Win32,59.87306909,,,,,,,,,,,,,,,,,,,,,,,,,,,,,,,,,15,1.7834,1,0,6,6,10,1,3,×,5,3 × 5,incongruent,smallerFirst,2,1,15,,,,,,,,
,,,,,,,,,,,,,,,779,2022-01-18_16h15.58.469,multiplicationStroop,2021.2.3,Win32,59.87306909,,,,,,,,,,,,,,,,,,,,,,,,,,,,,,,,,28,4.4812,1,0,7,7,16,1,7,×,4,7 × 4,incongruent,largerFirst,1,2,28,,,,,,,,
,,,,,,,,,,,,,,,779,2022-01-18_16h15.58.469,multiplicationStroop,2021.2.3,Win32,59.87306909,,,,,,,,,,,,,,,,,,,,,,,,,,,,,,,,,72,5.008,1,0,8,8,0,1,8,×,9,8 × 9,incongruent,smallerFirst,2,1,72,,,,,,,,
,,,,,,,,,,,,,,,779,2022-01-18_16h15.58.469,multiplicationStroop,2021.2.3,Win32,59.87306909,,,,,,,,,,,,,,,,,,,,,,,,,,,,,,,,,21,2.0083,0,0,9,9,11,1,2,×,3,2 × 3,incongruent,smallerFirst,2,1,6,,,,,,,,
,,,,,,,,,,,,,,,779,2022-01-18_16h15.58.469,multiplicationStroop,2021.2.3,Win32,59.87306909,,,,,,,,,,,,,,,,,,,,,,,,,,,,,,,,,12,2.5492,1,0,10,10,19,1,6,×,2,6 × 2,incongruent,largerFirst,1,2,12,,,,,,,,
,,,,,,,,,,,,,,,779,2022-01-18_16h15.58.469,multiplicationStroop,2021.2.3,Win32,59.87306909,,,,,,,,,,,,,,,,,,,,,,,,,,,,,,,,,27,1.9818,1,0,11,11,18,1,9,×,3,9 × 3,incongruent,largerFirst,1,2,27,,,,,,,,
,,,,,,,,,,,,,,,779,2022-01-18_16h15.58.469,multiplicationStroop,2021.2.3,Win32,59.87306909,,,,,,,,,,,,,,,,,,,,,,,,,,,,,,,,,16,2.5319,1,0,12,12,30,1,4,×,4,4 × 4,incongruent,tie,1,2,16,,,,,,,,
,,,,,,,,,,,,,,,779,2022-01-18_16h15.58.469,multiplicationStroop,2021.2.3,Win32,59.87306909,,,,,,,,,,,,,,,,,,,,,,,,,,,,,,,,,56,3.0316,1,0,13,13,14,1,8,×,7,8 × 7,incongruent,largerFirst,1,2,56,,,,,,,,
,,,,,,,,,,,,,,,779,2022-01-18_16h15.58.469,multiplicationStroop,2021.2.3,Win32,59.87306909,,,,,,,,,,,,,,,,,,,,,,,,,,,,,,,,,14,2.0927,1,0,14,14,4,1,2,×,7,2 × 7,incongruent,smallerFirst,2,1,14,,,,,,,,
,,,,,,,,,,,,,,,779,2022-01-18_16h15.58.469,multiplicationStroop,2021.2.3,Win32,59.87306909,,,,,,,,,,,,,,,,,,,,,,,,,,,,,,,,,24,2.1988,1,0,15,15,9,1,3,×,8,3 × 8,incongruent,smallerFirst,2,1,24,,,,,,,,
,,,,,,,,,,,,,,,779,2022-01-18_16h15.58.469,multiplicationStroop,2021.2.3,Win32,59.87306909,,,,,,,,,,,,,,,,,,,,,,,,,,,,,,,,,49,2.3985,1,0,16,16,33,1,7,×,7,7 × 7,incongruent,tie,1,2,49,,,,,,,,
,,,,,,,,,,,,,,,779,2022-01-18_16h15.58.469,multiplicationStroop,2021.2.3,Win32,59.87306909,,,,,,,,,,,,,,,,,,,,,,,,,,,,,,,,,9,1.5494,1,0,17,17,29,1,3,×,3,3 × 3,incongruent,tie,1,2,9,,,,,,,,
,,,,,,,,,,,,,,,779,2022-01-18_16h15.58.469,multiplicationStroop,2021.2.3,Win32,59.87306909,,,,,,,,,,,,,,,,,,,,,,,,,,,,,,,,,25,2.0982,1,0,18,18,31,1,5,×,5,5 × 5,incongruent,tie,1,2,25,,,,,,,,
,,,,,,,,,,,,,,,779,2022-01-18_16h15.58.469,multiplicationStroop,2021.2.3,Win32,59.87306909,,,,,,,,,,,,,,,,,,,,,,,,,,,,,,,,,48,2.5323,1,0,19,19,1,1,6,×,8,6 × 8,incongruent,smallerFirst,2,1,48,,,,,,,,
,,,,,,,,,,,,,,,779,2022-01-18_16h15.58.469,multiplicationStroop,2021.2.3,Win32,59.87306909,,,,,,,,,,,,,,,,,,,,,,,,,,,,,,,,,35,1.7989,1,0,20,20,12,1,5,×,7,5 × 7,incongruent,smallerFirst,2,1,35,,,,,,,,
,,,,,,,,,,,,,,,779,2022-01-18_16h15.58.469,multiplicationStroop,2021.2.3,Win32,59.87306909,,,,,,,,,,,,,,,,,,,,,,,,,,,,,,,,,18,2.1316,1,0,21,21,8,1,3,×,6,3 × 6,incongruent,smallerFirst,2,1,18,,,,,,,,
,,,,,,,,,,,,,,,779,2022-01-18_16h15.58.469,multiplicationStroop,2021.2.3,Win32,59.87306909,,,,,,,,,,,,,,,,,,,,,,,,,,,,,,,,,16,2.3481,1,0,22,22,23,1,8,×,2,8 × 2,incongruent,largerFirst,1,2,16,,,,,,,,
,,,,,,,,,,,,,,,779,2022-01-18_16h15.58.469,multiplicationStroop,2021.2.3,Win32,59.87306909,,,,,,,,,,,,,,,,,,,,,,,,,,,,,,,,,36,5.2817,1,0,23,23,15,1,9,×,4,9 × 4,incongruent,largerFirst,1,2,36,,,,,,,,
,,,,,,,,,,,,,,,779,2022-01-18_16h15.58.469,multiplicationStroop,2021.2.3,Win32,59.87306909,,,,,,,,,,,,,,,,,,,,,,,,,,,,,,,,,24,1.8577,1,0,24,24,20,1,6,×,4,6 × 4,incongruent,largerFirst,1,2,24,,,,,,,,
,,,,,,,,,,,,,,,779,2022-01-18_16h15.58.469,multiplicationStroop,2021.2.3,Win32,59.87306909,,,,,,,,,,,,,,,,,,,,,,,,,,,,,,,,,18,2.0652,1,0,25,25,2,1,2,×,9,2 × 9,incongruent,smallerFirst,2,1,18,,,,,,,,
,,,,,,,,,,,,,,,779,2022-01-18_16h15.58.469,multiplicationStroop,2021.2.3,Win32,59.87306909,,,,,,,,,,,,,,,,,,,,,,,,,,,,,,,,,21,2.4992,1,0,26,26,26,1,7,×,3,7 × 3,incongruent,largerFirst,1,2,21,,,,,,,,
,,,,,,,,,,,,,,,779,2022-01-18_16h15.58.469,multiplicationStroop,2021.2.3,Win32,59.87306909,,,,,,,,,,,,,,,,,,,,,,,,,,,,,,,,,81,2.9983,1,0,27,27,35,1,9,×,9,9 × 9,incongruent,tie,1,2,81,,,,,,,,
,,,,,,,,,,,,,,,779,2022-01-18_16h15.58.469,multiplicationStroop,2021.2.3,Win32,59.87306909,,,,,,,,,,,,,,,,,,,,,,,,,,,,,,,,,8,2.9079,1,0,28,28,24,1,4,×,2,4 × 2,incongruent,largerFirst,1,2,8,,,,,,,,
,,,,,,,,,,,,,,,779,2022-01-18_16h15.58.469,multiplicationStroop,2021.2.3,Win32,59.87306909,,,,,,,,,,,,,,,,,,,,,,,,,,,,,,,,,20,2.2488,1,0,29,29,27,1,5,×,4,5 × 4,incongruent,largerFirst,1,2,20,,,,,,,,
,,,,,,,,,,,,,,,779,2022-01-18_16h15.58.469,multiplicationStroop,2021.2.3,Win32,59.87306909,,,,,,,,,,,,,,,,,,,,,,,,,,,,,,,,,45,1.8162,1,0,30,30,22,1,9,×,5,9 × 5,incongruent,largerFirst,1,2,45,,,,,,,,
,,,,,,,,,,,,,,,779,2022-01-18_16h15.58.469,multiplicationStroop,2021.2.3,Win32,59.87306909,,,,,,,,,,,,,,,,,,,,,,,,,,,,,,,,,30,2.0647,1,0,31,31,25,1,6,×,5,6 × 5,incongruent,largerFirst,1,2,30,,,,,,,,
,,,,,,,,,,,,,,,779,2022-01-18_16h15.58.469,multiplicationStroop,2021.2.3,Win32,59.87306909,,,,,,,,,,,,,,,,,,,,,,,,,,,,,,,,,36,1.8492,1,0,32,32,32,1,6,×,6,6 × 6,incongruent,tie,1,2,36,,,,,,,,
,,,,,,,,,,,,,,,779,2022-01-18_16h15.58.469,multiplicationStroop,2021.2.3,Win32,59.87306909,,,,,,,,,,,,,,,,,,,,,,,,,,,,,,,,,42,3.5484,1,0,33,33,17,1,7,×,6,7 × 6,incongruent,largerFirst,1,2,42,,,,,,,,
,,,,,,,,,,,,,,,779,2022-01-18_16h15.58.469,multiplicationStroop,2021.2.3,Win32,59.87306909,,,,,,,,,,,,,,,,,,,,,,,,,,,,,,,,,4,1.3424,1,0,34,34,28,1,2,×,2,2 × 2,incongruent,tie,1,2,4,,,,,,,,
,,,,,,,,,,,,,,,779,2022-01-18_16h15.58.469,multiplicationStroop,2021.2.3,Win32,59.87306909,,,,,,,,,,,,,,,,,,,,,,,,,,,,,,,,,40,2.3815,1,0,35,35,13,1,5,×,8,5 × 8,incongruent,smallerFirst,2,1,40,,,,,,,,
,,,,,,,,,,,,,,,779,2022-01-18_16h15.58.469,multiplicationStroop,2021.2.3,Win32,59.87306909,,,,,,,,,,,,,,,,,,,,,,,,,,,,,,,,,,,,,,,,,,,,,,,,,,0,0,0,5,1,stimulusFile/mult_blk6_INcongruent.xlsx,,
,,,,,,,,,,,,,,,779,2022-01-18_16h15.58.469,multiplicationStroop,2021.2.3,Win32,59.87306909,,,,,,,,,,,,,,,,,,,,,,,,,,,,,,,space,2.2945,27,2.3579,1,0,0,0,12,1,3,×,9,3 × 9,congruent,smallerFirst,1,2,27,,,,,,,,
,,,,,,,,,,,,,,,779,2022-01-18_16h15.58.469,multiplicationStroop,2021.2.3,Win32,59.87306909,,,,,,,,,,,,,,,,,,,,,,,,,,,,,,,,,12,1.8817,1,0,1,1,16,1,4,×,3,4 × 3,congruent,largerFirst,2,1,12,,,,,,,,
,,,,,,,,,,,,,,,779,2022-01-18_16h15.58.469,multiplicationStroop,2021.2.3,Win32,59.87306909,,,,,,,,,,,,,,,,,,,,,,,,,,,,,,,,,9,1.4657,1,0,2,2,29,1,3,×,3,3 × 3,neutral,tie,1,2,9,,,,,,,,
,,,,,,,,,,,,,,,779,2022-01-18_16h15.58.469,multiplicationStroop,2021.2.3,Win32,59.87306909,,,,,,,,,,,,,,,,,,,,,,,,,,,,,,,,,56,2.7649,1,0,3,3,22,1,8,×,7,8 × 7,congruent,largerFirst,2,1,56,,,,,,,,
,,,,,,,,,,,,,,,779,2022-01-18_16h15.58.469,multiplicationStroop,2021.2.3,Win32,59.87306909,,,,,,,,,,,,,,,,,,,,,,,,,,,,,,,,,45,2.3161,1,0,4,4,9,1,5,×,9,5 × 9,congruent,smallerFirst,1,2,45,,,,,,,,
,,,,,,,,,,,,,,,779,2022-01-18_16h15.58.469,multiplicationStroop,2021.2.3,Win32,59.87306909,,,,,,,,,,,,,,,,,,,,,,,,,,,,,,,,,18,2.1652,1,0,5,5,25,1,6,×,3,6 × 3,congruent,largerFirst,2,1,18,,,,,,,,
,,,,,,,,,,,,,,,779,2022-01-18_16h15.58.469,multiplicationStroop,2021.2.3,Win32,59.87306909,,,,,,,,,,,,,,,,,,,,,,,,,,,,,,,,,36,4.9644,1,0,6,6,14,1,9,×,4,9 × 4,congruent,largerFirst,2,1,36,,,,,,,,
,,,,,,,,,,,,,,,779,2022-01-18_16h15.58.469,multiplicationStroop,2021.2.3,Win32,59.87306909,,,,,,,,,,,,,,,,,,,,,,,,,,,,,,,,,18,2.5427,1,0,7,7,8,1,2,×,9,2 × 9,congruent,smallerFirst,1,2,18,,,,,,,,
,,,,,,,,,,,,,,,779,2022-01-18_16h15.58.469,multiplicationStroop,2021.2.3,Win32,59.87306909,,,,,,,,,,,,,,,,,,,,,,,,,,,,,,,,,14,1.4985,1,0,8,8,0,1,2,×,7,2 × 7,congruent,smallerFirst,1,2,14,,,,,,,,
,,,,,,,,,,,,,,,779,2022-01-18_16h15.58.469,multiplicationStroop,2021.2.3,Win32,59.87306909,,,,,,,,,,,,,,,,,,,,,,,,,,,,,,,,,48,2.2317,1,0,9,9,4,1,6,×,8,6 × 8,congruent,smallerFirst,1,2,48,,,,,,,,
,,,,,,,,,,,,,,,779,2022-01-18_16h15.58.469,multiplicationStroop,2021.2.3,Win32,59.87306909,,,,,,,,,,,,,,,,,,,,,,,,,,,,,,,,,81,2.0154,1,0,10,10,35,1,9,×,9,9 × 9,neutral,tie,1,2,81,,,,,,,,
,,,,,,,,,,,,,,,779,2022-01-18_16h15.58.469,multiplicationStroop,2021.2.3,Win32,59.87306909,,,,,,,,,,,,,,,,,,,,,,,,,,,,,,,,,12,2.1986,1,0,11,11,5,1,2,×,6,2 × 6,congruent,smallerFirst,1,2,12,,,,,,,,
,,,,,,,,,,,,,,,779,2022-01-18_16h15.58.469,multiplicationStroop,2021.2.3,Win32,59.87306909,,,,,,,,,,,,,,,,,,,,,,,,,,,,,,,,,6,1.6318,1,0,12,12,27,1,3,×,2,3 × 2,congruent,largerFirst,2,1,6,,,,,,,,
,,,,,,,,,,,,,,,779,2022-01-18_16h15.58.469,multiplicationStroop,2021.2.3,Win32,59.87306909,,,,,,,,,,,,,,,,,,,,,,,,,,,,,,,,,24,2.0329,1,0,13,13,11,1,4,×,6,4 × 6,congruent,smallerFirst,1,2,24,,,,,,,,
,,,,,,,,,,,,,,,779,2022-01-18_16h15.58.469,multiplicationStroop,2021.2.3,Win32,59.87306909,,,,,,,,,,,,,,,,,,,,,,,,,,,,,,,,,4,1.1983,1,0,14,14,28,1,2,×,2,2 × 2,neutral,tie,1,2,4,,,,,,,,
,,,,,,,,,,,,,,,779,2022-01-18_16h15.58.469,multiplicationStroop,2021.2.3,Win32,59.87306909,,,,,,,,,,,,,,,,,,,,,,,,,,,,,,,,,25,1.5822,1,0,15,15,31,1,5,×,5,5 × 5,neutral,tie,1,2,25,,,,,,,,
,,,,,,,,,,,,,,,779,2022-01-18_16h15.58.469,multiplicationStroop,2021.2.3,Win32,59.87306909,,,,,,,,,,,,,,,,,,,,,,,,,,,,,,,,,63,2.7988,1,0,16,16,7,1,7,×,9,7 × 9,congruent,smallerFirst,1,2,63,,,,,,,,
,,,,,,,,,,,,,,,779,2022-01-18_16h15.58.469,multiplicationStroop,2021.2.3,Win32,59.87306909,,,,,,,,,,,,,,,,,,,,,,,,,,,,,,,,,42,2.4754,1,0,17,17,17,1,7,×,6,7 × 6,congruent,largerFirst,2,1,42,,,,,,,,
,,,,,,,,,,,,,,,779,2022-01-18_16h15.58.469,multiplicationStroop,2021.2.3,Win32,59.87306909,,,,,,,,,,,,,,,,,,,,,,,,,,,,,,,,,36,1.9816,1,0,18,18,32,1,6,×,6,6 × 6,neutral,tie,1,2,36,,,,,,,,
,,,,,,,,,,,,,,,779,2022-01-18_16h15.58.469,multiplicationStroop,2021.2.3,Win32,59.87306909,,,,,,,,,,,,,,,,,,,,,,,,,,,,,,,,,16,1.8992,1,0,19,19,30,1,4,×,4,4 × 4,neutral,tie,1,2,16,,,,,,,,
,,,,,,,,,,,,,,,779,2022-01-18_16h15.58.469,multiplicationStroop,2021.2.3,Win32,59.87306909,,,,,,,,,,,,,,,,,,,,,,,,,,,,,,,,,20,1.9321,1,0,20,20,21,1,5,×,4,5 × 4,congruent,largerFirst,2,1,20,,,,,,,,
,,,,,,,,,,,,,,,779,2022-01-18_16h15.58.469,multiplicationStroop,2021.2.3,Win32,59.87306909,,,,,,,,,,,,,,,,,,,,,,,,,,,,,,,,,30,2.4652,1,0,21,21,1,1,5,×,6,5 × 6,congruent,smallerFirst,1,2,30,,,,,,,,
,,,,,,,,,,,,,,,779,2022-01-18_16h15.58.469,multiplicationStroop,2021.2.3,Win32,59.87306909,,,,,,,,,,,,,,,,,,,,,,,,,,,,,,,,,64,2.9822,1,0,22,22,34,1,8,×,8,8 × 8,neutral,tie,1,2,64,,,,,,,,
,,,,,,,,,,,,,,,779,2022-01-18_16h15.58.469,multiplicationStroop,2021.2.3,Win32,59.87306909,,,,,,,,,,,,,,,,,,,,,,,,,,,,,,,,,49,2.3251,1,0,23,23,33,1,7,×,7,7 × 7,neutral,tie,1,2,49,,,,,,,,
,,,,,,,,,,,,,,,779,2022-01-18_16h15.58.469,multiplicationStroop,2021.2.3,Win32,59.87306909,,,,,,,,,,,,,,,,,,,,,,,,,,,,,,,,,32,9.4467,1,0,24,24,6,1,4,×,8,4 × 8,congruent,smallerFirst,1,2,32,,,,,,,,
,,,,,,,,,,,,,,,779,2022-01-18_16h15.58.469,multiplicationStroop,2021.2.3,Win32,59.87306909,,,,,,,,,,,,,,,,,,,,,,,,,,,,,,,,,24,2.8083,1,0,25,25,24,1,8,×,3,8 × 3,congruent,largerFirst,2,1,24,,,,,,,,
,,,,,,,,,,,,,,,779,2022-01-18_16h15.58.469,multiplicationStroop,2021.2.3,Win32,59.87306909,,,,,,,,,,,,,,,,,,,,,,,,,,,,,,,,,45,2.7652,0,0,26,26,15,1,7,×,5,7 × 5,congruent,largerFirst,2,1,35,,,,,,,,
,,,,,,,,,,,,,,,779,2022-01-18_16h15.58.469,multiplicationStroop,2021.2.3,Win32,59.87306909,,,,,,,,,,,,,,,,,,,,,,,,,,,,,,,,,8,1.5485,1,0,27,27,23,1,4,×,2,4 × 2,congruent,largerFirst,2,1,8,,,,,,,,
,,,,,,,,,,,,,,,779,2022-01-18_16h15.58.469,multiplicationStroop,2021.2.3,Win32,59.87306909,,,,,,,,,,,,,,,,,,,,,,,,,,,,,,,,,54,2.2493,1,0,28,28,26,1,9,×,6,9 × 6,congruent,largerFirst,2,1,54,,,,,,,,
,,,,,,,,,,,,,,,779,2022-01-18_16h15.58.469,multiplicationStroop,2021.2.3,Win32,59.87306909,,,,,,,,,,,,,,,,,,,,,,,,,,,,,,,,,18,2.1817,0,0,29,29,13,1,4,×,7,4 × 7,congruent,smallerFirst,1,2,28,,,,,,,,
,,,,,,,,,,,,,,,779,2022-01-18_16h15.58.469,multiplicationStroop,2021.2.3,Win32,59.87306909,,,,,,,,,,,,,,,,,,,,,,,,,,,,,,,,,40,3.7818,1,0,30,30,20,1,8,×,5,8 × 5,congruent,largerFirst,2,1,40,,,,,,,,
,,,,,,,,,,,,,,,779,2022-01-18_16h15.58.469,multiplicationStroop,2021.2.3,Win32,59.87306909,,,,,,,,,,,,,,,,,,,,,,,,,,,,,,,,,10,1.7752,1,0,31,31,10,1,2,×,5,2 × 5,congruent,smallerFirst,1,2,10,,,,,,,,
,,,,,,,,,,,,,,,779,2022-01-18_16h15.58.469,multiplicationStroop,2021.2.3,Win32,59.87306909,,,,,,,,,,,,,,,,,,,,,,,,,,,,,,,,,72,3.199,1,0,32,32,3,1,8,×,9,8 × 9,congruent,smallerFirst,1,2,72,,,,,,,,
,,,,,,,,,,,,,,,779,2022-01-18_16h15.58.469,multiplicationStroop,2021.2.3,Win32,59.87306909,,,,,,,,,,,,,,,,,,,,,,,,,,,,,,,,,15,1.7587,1,0,33,33,18,1,5,×,3,5 × 3,congruent,largerFirst,2,1,15,,,,,,,,
,,,,,,,,,,,,,,,779,2022-01-18_16h15.58.469,multiplicationStroop,2021.2.3,Win32,59.87306909,,,,,,,,,,,,,,,,,,,,,,,,,,,,,,,,,16,1.6656,1,0,34,34,19,1,8,×,2,8 × 2,congruent,largerFirst,2,1,16,,,,,,,,
,,,,,,,,,,,,,,,779,2022-01-18_16h15.58.469,multiplicationStroop,2021.2.3,Win32,59.87306909,,,,,,,,,,,,,,,,,,,,,,,,,,,,,,,,,21,1.5815,1,0,35,35,2,1,3,×,7,3 × 7,congruent,smallerFirst,1,2,21,,,,,,,,
,,,,,,,,,,,,,,,779,2022-01-18_16h15.58.469,multiplicationStroop,2021.2.3,Win32,59.87306909,,,,,,,,,,,,,,,,,,,,,,,,,,,,,,,,,,,,,,,,,,,,,,,,,,0,1,1,3,1,stimulusFile/mult_blk4_congruent.xlsx,,
,,,,,,,,,,,,,,,779,2022-01-18_16h15.58.469,multiplicationStroop,2021.2.3,Win32,59.87306909,,,,,,,,,,,,,,,,,,,,,,,,,,,,,,,space,1.3745,40,1.7397,1,0,0,0,10,1,5,×,8,5 × 8,neutral,smallerFirst,1.5,1.5,40,,,,,,,,
,,,,,,,,,,,,,,,779,2022-01-18_16h15.58.469,multiplicationStroop,2021.2.3,Win32,59.87306909,,,,,,,,,,,,,,,,,,,,,,,,,,,,,,,,,64,1.9656,1,0,1,1,34,1,8,×,8,8 × 8,neutral,tie,1.5,1.5,64,,,,,,,,
,,,,,,,,,,,,,,,779,2022-01-18_16h15.58.469,multiplicationStroop,2021.2.3,Win32,59.87306909,,,,,,,,,,,,,,,,,,,,,,,,,,,,,,,,,21,1.5982,1,0,2,2,22,1,7,×,3,7 × 3,neutral,largerFirst,1.5,1.5,21,,,,,,,,
,,,,,,,,,,,,,,,779,2022-01-18_16h15.58.469,multiplicationStroop,2021.2.3,Win32,59.87306909,,,,,,,,,,,,,,,,,,,,,,,,,,,,,,,,,4,1.2994,1,0,3,3,28,1,2,×,2,2 × 2,neutral,tie,1.5,1.5,4,,,,,,,,
,,,,,,,,,,,,,,,779,2022-01-18_16h15.58.469,multiplicationStroop,2021.2.3,Win32,59.87306909,,,,,,,,,,,,,,,,,,,,,,,,,,,,,,,,,49,2.0815,1,0,4,4,33,1,7,×,7,7 × 7,neutral,tie,1.5,1.5,49,,,,,,,,
,,,,,,,,,,,,,,,779,2022-01-18_16h15.58.469,multiplicationStroop,2021.2.3,Win32,59.87306909,,,,,,,,,,,,,,,,,,,,,,,,,,,,,,,,,35,2.9492,1,0,5,5,15,1,7,×,5,7 × 5,neutral,largerFirst,1.5,1.5,35,,,,,,,,
,,,,,,,,,,,,,,,779,2022-01-18_16h15.58.469,multiplicationStroop,2021.2.3,Win32,59.87306909,,,,,,,,,,,,,,,,,,,,,,,,,,,,,,,,,28,4.8245,1,0,6,6,3,1,4,×,7,4 × 7,neutral,smallerFirst,1.5,1.5,28,,,,,,,,
,,,,,,,,,,,,,,,779,2022-01-18_16h15.58.469,multiplicationStroop,2021.2.3,Win32,59.87306909,,,,,,,,,,,,,,,,,,,,,,,,,,,,,,,,,42,3.7412,1,0,7,7,20,1,7,×,6,7 × 6,neutral,largerFirst,1.5,1.5,42,,,,,,,,
,,,,,,,,,,,,,,,779,2022-01-18_16h15.58.469,multiplicationStroop,2021.2.3,Win32,59.87306909,,,,,,,,,,,,,,,,,,,,,,,,,,,,,,,,,10,1.7762,1,0,8,8,18,1,5,×,2,5 × 2,neutral,largerFirst,1.5,1.5,10,,,,,,,,
,,,,,,,,,,,,,,,779,2022-01-18_16h15.58.469,multiplicationStroop,2021.2.3,Win32,59.87306909,,,,,,,,,,,,,,,,,,,,,,,,,,,,,,,,,9,1.4487,1,0,9,9,29,1,3,×,3,3 × 3,neutral,tie,1.5,1.5,9,,,,,,,,
,,,,,,,,,,,,,,,779,2022-01-18_16h15.58.469,multiplicationStroop,2021.2.3,Win32,59.87306909,,,,,,,,,,,,,,,,,,,,,,,,,,,,,,,,,15,1.7826,1,0,10,10,19,1,5,×,3,5 × 3,neutral,largerFirst,1.5,1.5,15,,,,,,,,
,,,,,,,,,,,,,,,779,2022-01-18_16h15.58.469,multiplicationStroop,2021.2.3,Win32,59.87306909,,,,,,,,,,,,,,,,,,,,,,,,,,,,,,,,,8,1.4484,1,0,11,11,17,1,4,×,2,4 × 2,neutral,largerFirst,1.5,1.5,8,,,,,,,,
,,,,,,,,,,,,,,,779,2022-01-18_16h15.58.469,multiplicationStroop,2021.2.3,Win32,59.87306909,,,,,,,,,,,,,,,,,,,,,,,,,,,,,,,,,72,4.948,1,0,12,12,25,1,9,×,8,9 × 8,neutral,largerFirst,1.5,1.5,72,,,,,,,,
,,,,,,,,,,,,,,,779,2022-01-18_16h15.58.469,multiplicationStroop,2021.2.3,Win32,59.87306909,,,,,,,,,,,,,,,,,,,,,,,,,,,,,,,,,18,3.0418,1,0,13,13,14,1,6,×,3,6 × 3,neutral,largerFirst,1.5,1.5,18,,,,,,,,
,,,,,,,,,,,,,,,779,2022-01-18_16h15.58.469,multiplicationStroop,2021.2.3,Win32,59.87306909,,,,,,,,,,,,,,,,,,,,,,,,,,,,,,,,,24,1.7492,1,0,14,14,8,1,3,×,8,3 × 8,neutral,smallerFirst,1.5,1.5,24,,,,,,,,
,,,,,,,,,,,,,,,779,2022-01-18_16h15.58.469,multiplicationStroop,2021.2.3,Win32,59.87306909,,,,,,,,,,,,,,,,,,,,,,,,,,,,,,,,,16,2.2982,1,0,15,15,27,1,8,×,2,8 × 2,neutral,largerFirst,1.5,1.5,16,,,,,,,,
,,,,,,,,,,,,,,,779,2022-01-18_16h15.58.469,multiplicationStroop,2021.2.3,Win32,59.87306909,,,,,,,,,,,,,,,,,,,,,,,,,,,,,,,,,27,2.0154,1,0,16,16,0,1,3,×,9,3 × 9,neutral,smallerFirst,1.5,1.5,27,,,,,,,,
,,,,,,,,,,,,,,,779,2022-01-18_16h15.58.469,multiplicationStroop,2021.2.3,Win32,59.87306909,,,,,,,,,,,,,,,,,,,,,,,,,,,,,,,,,6,1.7325,1,0,17,17,12,1,2,×,3,2 × 3,neutral,smallerFirst,1.5,1.5,6,,,,,,,,
,,,,,,,,,,,,,,,779,2022-01-18_16h15.58.469,multiplicationStroop,2021.2.3,Win32,59.87306909,,,,,,,,,,,,,,,,,,,,,,,,,,,,,,,,,32,3.2987,1,0,18,18,9,1,4,×,8,4 × 8,neutral,smallerFirst,1.5,1.5,32,,,,,,,,
,,,,,,,,,,,,,,,779,2022-01-18_16h15.58.469,multiplicationStroop,2021.2.3,Win32,59.87306909,,,,,,,,,,,,,,,,,,,,,,,,,,,,,,,,,63,4.525,1,0,19,19,26,1,9,×,7,9 × 7,neutral,largerFirst,1.5,1.5,63,,,,,,,,
,,,,,,,,,,,,,,,779,2022-01-18_16h15.58.469,multiplicationStroop,2021.2.3,Win32,59.87306909,,,,,,,,,,,,,,,,,,,,,,,,,,,,,,,,,45,2.5581,1,0,20,20,24,1,9,×,5,9 × 5,neutral,largerFirst,1.5,1.5,45,,,,,,,,
,,,,,,,,,,,,,,,779,2022-01-18_16h15.58.469,multiplicationStroop,2021.2.3,Win32,59.87306909,,,,,,,,,,,,,,,,,,,,,,,,,,,,,,,,,18,2.2162,1,0,21,21,4,1,2,×,9,2 × 9,neutral,smallerFirst,1.5,1.5,18,,,,,,,,
,,,,,,,,,,,,,,,779,2022-01-18_16h15.58.469,multiplicationStroop,2021.2.3,Win32,59.87306909,,,,,,,,,,,,,,,,,,,,,,,,,,,,,,,,,56,2.9648,1,0,22,22,23,1,8,×,7,8 × 7,neutral,largerFirst,1.5,1.5,56,,,,,,,,
,,,,,,,,,,,,,,,779,2022-01-18_16h15.58.469,multiplicationStroop,2021.2.3,Win32,59.87306909,,,,,,,,,,,,,,,,,,,,,,,,,,,,,,,,,36,2.3573,1,0,23,23,32,1,6,×,6,6 × 6,neutral,tie,1.5,1.5,36,,,,,,,,
,,,,,,,,,,,,,,,779,2022-01-18_16h15.58.469,multiplicationStroop,2021.2.3,Win32,59.87306909,,,,,,,,,,,,,,,,,,,,,,,,,,,,,,,,,36,9.0799,1,0,24,24,13,1,4,×,9,4 × 9,neutral,smallerFirst,1.5,1.5,36,,,,,,,,
,,,,,,,,,,,,,,,779,2022-01-18_16h15.58.469,multiplicationStroop,2021.2.3,Win32,59.87306909,,,,,,,,,,,,,,,,,,,,,,,,,,,,,,,,,20,2.242,1,0,25,25,6,1,4,×,5,4 × 5,neutral,smallerFirst,1.5,1.5,20,,,,,,,,
,,,,,,,,,,,,,,,779,2022-01-18_16h15.58.469,multiplicationStroop,2021.2.3,Win32,59.87306909,,,,,,,,,,,,,,,,,,,,,,,,,,,,,,,,,48,2.199,1,0,26,26,1,1,6,×,8,6 × 8,neutral,smallerFirst,1.5,1.5,48,,,,,,,,
,,,,,,,,,,,,,,,779,2022-01-18_16h15.58.469,multiplicationStroop,2021.2.3,Win32,59.87306909,,,,,,,,,,,,,,,,,,,,,,,,,,,,,,,,,24,1.8479,1,0,27,27,16,1,6,×,4,6 × 4,neutral,largerFirst,1.5,1.5,24,,,,,,,,
,,,,,,,,,,,,,,,779,2022-01-18_16h15.58.469,multiplicationStroop,2021.2.3,Win32,59.87306909,,,,,,,,,,,,,,,,,,,,,,,,,,,,,,,,,30,2.033,1,0,28,28,5,1,5,×,6,5 × 6,neutral,smallerFirst,1.5,1.5,30,,,,,,,,
,,,,,,,,,,,,,,,779,2022-01-18_16h15.58.469,multiplicationStroop,2021.2.3,Win32,59.87306909,,,,,,,,,,,,,,,,,,,,,,,,,,,,,,,,,12,2.2816,1,0,29,29,11,1,2,×,6,2 × 6,neutral,smallerFirst,1.5,1.5,12,,,,,,,,
,,,,,,,,,,,,,,,779,2022-01-18_16h15.58.469,multiplicationStroop,2021.2.3,Win32,59.87306909,,,,,,,,,,,,,,,,,,,,,,,,,,,,,,,,,54,1.7823,1,0,30,30,21,1,9,×,6,9 × 6,neutral,largerFirst,1.5,1.5,54,,,,,,,,
,,,,,,,,,,,,,,,779,2022-01-18_16h15.58.469,multiplicationStroop,2021.2.3,Win32,59.87306909,,,,,,,,,,,,,,,,,,,,,,,,,,,,,,,,,14,2.2316,1,0,31,31,2,1,2,×,7,2 × 7,neutral,smallerFirst,1.5,1.5,14,,,,,,,,
,,,,,,,,,,,,,,,779,2022-01-18_16h15.58.469,multiplicationStroop,2021.2.3,Win32,59.87306909,,,,,,,,,,,,,,,,,,,,,,,,,,,,,,,,,16,1.9993,1,0,32,32,30,1,4,×,4,4 × 4,neutral,tie,1.5,1.5,16,,,,,,,,
,,,,,,,,,,,,,,,779,2022-01-18_16h15.58.469,multiplicationStroop,2021.2.3,Win32,59.87306909,,,,,,,,,,,,,,,,,,,,,,,,,,,,,,,,,81,2.3153,1,0,33,33,35,1,9,×,9,9 × 9,neutral,tie,1.5,1.5,81,,,,,,,,
,,,,,,,,,,,,,,,779,2022-01-18_16h15.58.469,multiplicationStroop,2021.2.3,Win32,59.87306909,,,,,,,,,,,,,,,,,,,,,,,,,,,,,,,,,12,1.9988,1,0,34,34,7,1,3,×,4,3 × 4,neutral,smallerFirst,1.5,1.5,12,,,,,,,,
,,,,,,,,,,,,,,,779,2022-01-18_16h15.58.469,multiplicationStroop,2021.2.3,Win32,59.87306909,,,,,,,,,,,,,,,,,,,,,,,,,,,,,,,,,25,2.0153,1,0,35,35,31,1,5,×,5,5 × 5,neutral,tie,1.5,1.5,25,,,,,,,,
,,,,,,,,,,,,,,,779,2022-01-18_16h15.58.469,multiplicationStroop,2021.2.3,Win32,59.87306909,,,,,,,,,,,,,,,,,,,,,,,,,,,,,,,,,,,,,,,,,,,,,,,,,,0,2,2,0,1,stimulusFile/mult_blk1.xlsx,,
,,,,,,,,,,,,,,,779,2022-01-18_16h15.58.469,multiplicationStroop,2021.2.3,Win32,59.87306909,,,,,,,,,,,,,,,,,,,,,,,,,,,,,,,space,0.9966,48,2.3244,1,0,0,0,18,1,8,×,6,8 × 6,congruent,largerFirst,2,1,48,,,,,,,,
,,,,,,,,,,,,,,,779,2022-01-18_16h15.58.469,multiplicationStroop,2021.2.3,Win32,59.87306909,,,,,,,,,,,,,,,,,,,,,,,,,,,,,,,,,15,1.7249,1,0,1,1,4,1,3,×,5,3 × 5,congruent,smallerFirst,1,2,15,,,,,,,,
,,,,,,,,,,,,,,,779,2022-01-18_16h15.58.469,multiplicationStroop,2021.2.3,Win32,59.87306909,,,,,,,,,,,,,,,,,,,,,,,,,,,,,,,,,28,3.432,1,0,2,2,27,1,7,×,4,7 × 4,congruent,largerFirst,2,1,28,,,,,,,,
,,,,,,,,,,,,,,,779,2022-01-18_16h15.58.469,multiplicationStroop,2021.2.3,Win32,59.87306909,,,,,,,,,,,,,,,,,,,,,,,,,,,,,,,,,54,3.9983,1,0,3,3,12,1,6,×,9,6 × 9,congruent,smallerFirst,1,2,54,,,,,,,,
,,,,,,,,,,,,,,,779,2022-01-18_16h15.58.469,multiplicationStroop,2021.2.3,Win32,59.87306909,,,,,,,,,,,,,,,,,,,,,,,,,,,,,,,,,14,1.942,1,0,4,4,14,1,7,×,2,7 × 2,congruent,largerFirst,2,1,14,,,,,,,,
,,,,,,,,,,,,,,,779,2022-01-18_16h15.58.469,multiplicationStroop,2021.2.3,Win32,59.87306909,,,,,,,,,,,,,,,,,,,,,,,,,,,,,,,,,63,2.1155,1,0,5,5,21,1,9,×,7,9 × 7,congruent,largerFirst,2,1,63,,,,,,,,
,,,,,,,,,,,,,,,779,2022-01-18_16h15.58.469,multiplicationStroop,2021.2.3,Win32,59.87306909,,,,,,,,,,,,,,,,,,,,,,,,,,,,,,,,,12,1.6826,1,0,6,6,19,1,6,×,2,6 × 2,congruent,largerFirst,2,1,12,,,,,,,,
,,,,,,,,,,,,,,,779,2022-01-18_16h15.58.469,multiplicationStroop,2021.2.3,Win32,59.87306909,,,,,,,,,,,,,,,,,,,,,,,,,,,,,,,,,18,3.065,1,0,7,7,11,1,3,×,6,3 × 6,congruent,smallerFirst,1,2,18,,,,,,,,
,,,,,,,,,,,,,,,779,2022-01-18_16h15.58.469,multiplicationStroop,2021.2.3,Win32,59.87306909,,,,,,,,,,,,,,,,,,,,,,,,,,,,,,,,,36,2.209,0,0,8,8,20,1,8,×,4,8 × 4,congruent,largerFirst,2,1,32,,,,,,,,
,,,,,,,,,,,,,,,779,2022-01-18_16h15.58.469,multiplicationStroop,2021.2.3,Win32,59.87306909,,,,,,,,,,,,,,,,,,,,,,,,,,,,,,,,,21,1.8486,1,0,9,9,16,1,7,×,3,7 × 3,congruent,largerFirst,2,1,21,,,,,,,,
,,,,,,,,,,,,,,,779,2022-01-18_16h15.58.469,multiplicationStroop,2021.2.3,Win32,59.87306909,,,,,,,,,,,,,,,,,,,,,,,,,,,,,,,,,8,1.6323,1,0,10,10,9,1,2,×,4,2 × 4,congruent,smallerFirst,1,2,8,,,,,,,,
,,,,,,,,,,,,,,,779,2022-01-18_16h15.58.469,multiplicationStroop,2021.2.3,Win32,59.87306909,,,,,,,,,,,,,,,,,,,,,,,,,,,,,,,,,42,2.5651,1,0,11,11,3,1,6,×,7,6 × 7,congruent,smallerFirst,1,2,42,,,,,,,,
,,,,,,,,,,,,,,,779,2022-01-18_16h15.58.469,multiplicationStroop,2021.2.3,Win32,59.87306909,,,,,,,,,,,,,,,,,,,,,,,,,,,,,,,,,16,1.6921,1,0,12,12,30,1,4,×,4,4 × 4,neutral,tie,2,1,16,,,,,,,,
,,,,,,,,,,,,,,,779,2022-01-18_16h15.58.469,multiplicationStroop,2021.2.3,Win32,59.87306909,,,,,,,,,,,,,,,,,,,,,,,,,,,,,,,,,24,1.5158,1,0,13,13,25,1,6,×,4,6 × 4,congruent,largerFirst,2,1,24,,,,,,,,
,,,,,,,,,,,,,,,779,2022-01-18_16h15.58.469,multiplicationStroop,2021.2.3,Win32,59.87306909,,,,,,,,,,,,,,,,,,,,,,,,,,,,,,,,,81,2.0149,1,0,14,14,35,1,9,×,9,9 × 9,neutral,tie,2,1,81,,,,,,,,
,,,,,,,,,,,,,,,779,2022-01-18_16h15.58.469,multiplicationStroop,2021.2.3,Win32,59.87306909,,,,,,,,,,,,,,,,,,,,,,,,,,,,,,,,,45,2.0658,1,0,15,15,23,1,9,×,5,9 × 5,congruent,largerFirst,2,1,45,,,,,,,,
,,,,,,,,,,,,,,,779,2022-01-18_16h15.58.469,multiplicationStroop,2021.2.3,Win32,59.87306909,,,,,,,,,,,,,,,,,,,,,,,,,,,,,,,,,9,1.4828,1,0,16,16,29,1,3,×,3,3 × 3,neutral,tie,2,1,9,,,,,,,,
,,,,,,,,,,,,,,,779,2022-01-18_16h15.58.469,multiplicationStroop,2021.2.3,Win32,59.87306909,,,,,,,,,,,,,,,,,,,,,,,,,,,,,,,,,12,2.4814,1,0,17,17,2,1,3,×,4,3 × 4,congruent,smallerFirst,1,2,12,,,,,,,,
,,,,,,,,,,,,,,,779,2022-01-18_16h15.58.469,multiplicationStroop,2021.2.3,Win32,59.87306909,,,,,,,,,,,,,,,,,,,,,,,,,,,,,,,,,25,1.8994,1,0,18,18,31,1,5,×,5,5 × 5,neutral,tie,2,1,25,,,,,,,,
,,,,,,,,,,,,,,,779,2022-01-18_16h15.58.469,multiplicationStroop,2021.2.3,Win32,59.87306909,,,,,,,,,,,,,,,,,,,,,,,,,,,,,,,,,27,2.5156,1,0,19,19,26,1,9,×,3,9 × 3,congruent,largerFirst,2,1,27,,,,,,,,
,,,,,,,,,,,,,,,779,2022-01-18_16h15.58.469,multiplicationStroop,2021.2.3,Win32,59.87306909,,,,,,,,,,,,,,,,,,,,,,,,,,,,,,,,,10,3.4582,1,0,20,20,24,1,5,×,2,5 × 2,congruent,largerFirst,2,1,10,,,,,,,,
,,,,,,,,,,,,,,,779,2022-01-18_16h15.58.469,multiplicationStroop,2021.2.3,Win32,59.87306909,,,,,,,,,,,,,,,,,,,,,,,,,,,,,,,,,36,6.8981,1,0,21,21,0,1,4,×,9,4 × 9,congruent,smallerFirst,1,2,36,,,,,,,,
,,,,,,,,,,,,,,,779,2022-01-18_16h15.58.469,multiplicationStroop,2021.2.3,Win32,59.87306909,,,,,,,,,,,,,,,,,,,,,,,,,,,,,,,,,36,1.8753,1,0,22,22,32,1,6,×,6,6 × 6,neutral,tie,2,1,36,,,,,,,,
,,,,,,,,,,,,,,,779,2022-01-18_16h15.58.469,multiplicationStroop,2021.2.3,Win32,59.87306909,,,,,,,,,,,,,,,,,,,,,,,,,,,,,,,,,18,3.2491,1,0,23,23,22,1,9,×,2,9 × 2,congruent,largerFirst,2,1,18,,,,,,,,
,,,,,,,,,,,,,,,779,2022-01-18_16h15.58.469,multiplicationStroop,2021.2.3,Win32,59.87306909,,,,,,,,,,,,,,,,,,,,,,,,,,,,,,,,,64,3.0472,1,0,24,24,34,1,8,×,8,8 × 8,neutral,tie,2,1,64,,,,,,,,
,,,,,,,,,,,,,,,779,2022-01-18_16h15.58.469,multiplicationStroop,2021.2.3,Win32,59.87306909,,,,,,,,,,,,,,,,,,,,,,,,,,,,,,,,,72,2.2594,1,0,25,25,17,1,9,×,8,9 × 8,congruent,largerFirst,2,1,72,,,,,,,,
,,,,,,,,,,,,,,,779,2022-01-18_16h15.58.469,multiplicationStroop,2021.2.3,Win32,59.87306909,,,,,,,,,,,,,,,,,,,,,,,,,,,,,,,,,40,1.782,1,0,26,26,6,1,5,×,8,5 × 8,congruent,smallerFirst,1,2,40,,,,,,,,
,,,,,,,,,,,,,,,779,2022-01-18_16h15.58.469,multiplicationStroop,2021.2.3,Win32,59.87306909,,,,,,,,,,,,,,,,,,,,,,,,,,,,,,,,,16,1.7161,1,0,27,27,5,1,2,×,8,2 × 8,congruent,smallerFirst,1,2,16,,,,,,,,
,,,,,,,,,,,,,,,779,2022-01-18_16h15.58.469,multiplicationStroop,2021.2.3,Win32,59.87306909,,,,,,,,,,,,,,,,,,,,,,,,,,,,,,,,,35,2.0491,0,0,28,28,15,1,6,×,5,6 × 5,congruent,largerFirst,2,1,30,,,,,,,,
,,,,,,,,,,,,,,,779,2022-01-18_16h15.58.469,multiplicationStroop,2021.2.3,Win32,59.87306909,,,,,,,,,,,,,,,,,,,,,,,,,,,,,,,,,49,1.8821,1,0,29,29,33,1,7,×,7,7 × 7,neutral,tie,2,1,49,,,,,,,,
,,,,,,,,,,,,,,,779,2022-01-18_16h15.58.469,multiplicationStroop,2021.2.3,Win32,59.87306909,,,,,,,,,,,,,,,,,,,,,,,,,,,,,,,,,4,1.3655,1,0,30,30,28,1,2,×,2,2 × 2,neutral,tie,2,1,4,,,,,,,,
,,,,,,,,,,,,,,,779,2022-01-18_16h15.58.469,multiplicationStroop,2021.2.3,Win32,59.87306909,,,,,,,,,,,,,,,,,,,,,,,,,,,,,,,,,56,2.6487,1,0,31,31,8,1,7,×,8,7 × 8,congruent,smallerFirst,1,2,56,,,,,,,,
,,,,,,,,,,,,,,,779,2022-01-18_16h15.58.469,multiplicationStroop,2021.2.3,Win32,59.87306909,,,,,,,,,,,,,,,,,,,,,,,,,,,,,,,,,6,1.8756,1,0,32,32,13,1,2,×,3,2 × 3,congruent,smallerFirst,1,2,6,,,,,,,,
,,,,,,,,,,,,,,,779,2022-01-18_16h15.58.469,multiplicationStroop,2021.2.3,Win32,59.87306909,,,,,,,,,,,,,,,,,,,,,,,,,,,,,,,,,20,2.1987,1,0,33,33,7,1,4,×,5,4 × 5,congruent,smallerFirst,1,2,20,,,,,,,,
,,,,,,,,,,,,,,,779,2022-01-18_16h15.58.469,multiplicationStroop,2021.2.3,Win32,59.87306909,,,,,,,,,,,,,,,,,,,,,,,,,,,,,,,,,35,2.7482,1,0,34,34,1,1,5,×,7,5 × 7,congruent,smallerFirst,1,2,35,,,,,,,,
,,,,,,,,,,,,,,,779,2022-01-18_16h15.58.469,multiplicationStroop,2021.2.3,Win32,59.87306909,,,,,,,,,,,,,,,,,,,,,,,,,,,,,,,,,24,1.8158,1,0,35,35,10,1,3,×,8,3 × 8,congruent,smallerFirst,1,2,24,,,,,,,,
,,,,,,,,,,,,,,,779,2022-01-18_16h15.58.469,multiplicationStroop,2021.2.3,Win32,59.87306909,,,,,,,,,,,,,,,,,,,,,,,,,,,,,,,,,,,,,,,,,,,,,,,,,,0,3,3,2,1,stimulusFile/mult_blk3_congruent.xlsx,,
,,,,,,,,,,,,,,,779,2022-01-18_16h15.58.469,multiplicationStroop,2021.2.3,Win32,59.87306909,,,,,,,,,,,,,,,,,,,,,,,,,,,,,,,space,0.8919,14,1.5751,1,0,0,0,16,1,7,×,2,7 × 2,neutral,largerFirst,1.5,1.5,14,,,,,,,,
,,,,,,,,,,,,,,,779,2022-01-18_16h15.58.469,multiplicationStroop,2021.2.3,Win32,59.87306909,,,,,,,,,,,,,,,,,,,,,,,,,,,,,,,,,20,3.3813,1,0,1,1,20,1,5,×,4,5 × 4,neutral,largerFirst,1.5,1.5,20,,,,,,,,
,,,,,,,,,,,,,,,779,2022-01-18_16h15.58.469,multiplicationStroop,2021.2.3,Win32,59.87306909,,,,,,,,,,,,,,,,,,,,,,,,,,,,,,,,,63,2.3754,1,0,2,2,12,1,7,×,9,7 × 9,neutral,smallerFirst,1.5,1.5,63,,,,,,,,
,,,,,,,,,,,,,,,779,2022-01-18_16h15.58.469,multiplicationStroop,2021.2.3,Win32,59.87306909,,,,,,,,,,,,,,,,,,,,,,,,,,,,,,,,,42,4.3976,1,0,3,3,6,1,6,×,7,6 × 7,neutral,smallerFirst,1.5,1.5,42,,,,,,,,
,,,,,,,,,,,,,,,779,2022-01-18_16h15.58.469,multiplicationStroop,2021.2.3,Win32,59.87306909,,,,,,,,,,,,,,,,,,,,,,,,,,,,,,,,,40,2.4927,1,0,4,4,24,1,8,×,5,8 × 5,neutral,largerFirst,1.5,1.5,40,,,,,,,,
,,,,,,,,,,,,,,,779,2022-01-18_16h15.58.469,multiplicationStroop,2021.2.3,Win32,59.87306909,,,,,,,,,,,,,,,,,,,,,,,,,,,,,,,,,10,1.8921,1,0,5,5,4,1,2,×,5,2 × 5,neutral,smallerFirst,1.5,1.5,10,,,,,,,,
,,,,,,,,,,,,,,,779,2022-01-18_16h15.58.469,multiplicationStroop,2021.2.3,Win32,59.87306909,,,,,,,,,,,,,,,,,,,,,,,,,,,,,,,,,56,3.2813,1,0,6,6,9,1,7,×,8,7 × 8,neutral,smallerFirst,1.5,1.5,56,,,,,,,,
,,,,,,,,,,,,,,,779,2022-01-18_16h15.58.469,multiplicationStroop,2021.2.3,Win32,59.87306909,,,,,,,,,,,,,,,,,,,,,,,,,,,,,,,,,15,2.0323,1,0,7,7,5,1,3,×,5,3 × 5,neutral,smallerFirst,1.5,1.5,15,,,,,,,,
,,,,,,,,,,,,,,,779,2022-01-18_16h15.58.469,multiplicationStroop,2021.2.3,Win32,59.87306909,,,,,,,,,,,,,,,,,,,,,,,,,,,,,,,,,16,1.6654,1,0,8,8,30,1,4,×,4,4 × 4,neutral,tie,1.5,1.5,16,,,,,,,,
,,,,,,,,,,,,,,,779,2022-01-18_16h15.58.469,multiplicationStroop,2021.2.3,Win32,59.87306909,,,,,,,,,,,,,,,,,,,,,,,,,,,,,,,,,18,2.0823,1,0,9,9,0,1,3,×,6,3 × 6,neutral,smallerFirst,1.5,1.5,18,,,,,,,,
,,,,,,,,,,,,,,,779,2022-01-18_16h15.58.469,multiplicationStroop,2021.2.3,Win32,59.87306909,,,,,,,,,,,,,,,,,,,,,,,,,,,,,,,,,6,1.4986,1,0,10,10,26,1,3,×,2,3 × 2,neutral,largerFirst,1.5,1.5,6,,,,,,,,
,,,,,,,,,,,,,,,779,2022-01-18_16h15.58.469,multiplicationStroop,2021.2.3,Win32,59.87306909,,,,,,,,,,,,,,,,,,,,,,,,,,,,,,,,,18,2.1319,1,0,11,11,18,1,9,×,2,9 × 2,neutral,largerFirst,1.5,1.5,18,,,,,,,,
,,,,,,,,,,,,,,,779,2022-01-18_16h15.58.469,multiplicationStroop,2021.2.3,Win32,59.87306909,,,,,,,,,,,,,,,,,,,,,,,,,,,,,,,,,81,2.6987,1,0,12,12,35,1,9,×,9,9 × 9,neutral,tie,1.5,1.5,81,,,,,,,,
,,,,,,,,,,,,,,,779,2022-01-18_16h15.58.469,multiplicationStroop,2021.2.3,Win32,59.87306909,,,,,,,,,,,,,,,,,,,,,,,,,,,,,,,,,4,1.1484,1,0,13,13,28,1,2,×,2,2 × 2,neutral,tie,1.5,1.5,4,,,,,,,,
,,,,,,,,,,,,,,,779,2022-01-18_16h15.58.469,multiplicationStroop,2021.2.3,Win32,59.87306909,,,,,,,,,,,,,,,,,,,,,,,,,,,,,,,,,24,1.6318,1,0,14,14,22,1,8,×,3,8 × 3,neutral,largerFirst,1.5,1.5,24,,,,,,,,
,,,,,,,,,,,,,,,779,2022-01-18_16h15.58.469,multiplicationStroop,2021.2.3,Win32,59.87306909,,,,,,,,,,,,,,,,,,,,,,,,,,,,,,,,,25,2.2503,1,0,15,15,31,1,5,×,5,5 × 5,neutral,tie,1.5,1.5,25,,,,,,,,
,,,,,,,,,,,,,,,779,2022-01-18_16h15.58.469,multiplicationStroop,2021.2.3,Win32,59.87306909,,,,,,,,,,,,,,,,,,,,,,,,,,,,,,,,,54,2.1992,1,0,16,16,7,1,6,×,9,6 × 9,neutral,smallerFirst,1.5,1.5,54,,,,,,,,
,,,,,,,,,,,,,,,779,2022-01-18_16h15.58.469,multiplicationStroop,2021.2.3,Win32,59.87306909,,,,,,,,,,,,,,,,,,,,,,,,,,,,,,,,,28,1.9148,1,0,17,17,17,1,7,×,4,7 × 4,neutral,largerFirst,1.5,1.5,28,,,,,,,,
,,,,,,,,,,,,,,,779,2022-01-18_16h15.58.469,multiplicationStroop,2021.2.3,Win32,59.87306909,,,,,,,,,,,,,,,,,,,,,,,,,,,,,,,,,4,1.8651,0,0,18,18,33,1,7,×,7,7 × 7,neutral,tie,1.5,1.5,49,,,,,,,,
,,,,,,,,,,,,,,,779,2022-01-18_16h15.58.469,multiplicationStroop,2021.2.3,Win32,59.87306909,,,,,,,,,,,,,,,,,,,,,,,,,,,,,,,,,36,3.8988,0,0,19,19,23,1,8,×,4,8 × 4,neutral,largerFirst,1.5,1.5,32,,,,,,,,
,,,,,,,,,,,,,,,779,2022-01-18_16h15.58.469,multiplicationStroop,2021.2.3,Win32,59.87306909,,,,,,,,,,,,,,,,,,,,,,,,,,,,,,,,,12,1.6753,1,0,20,20,21,1,4,×,3,4 × 3,neutral,largerFirst,1.5,1.5,12,,,,,,,,
,,,,,,,,,,,,,,,779,2022-01-18_16h15.58.469,multiplicationStroop,2021.2.3,Win32,59.87306909,,,,,,,,,,,,,,,,,,,,,,,,,,,,,,,,,36,1.9157,1,0,21,21,27,1,9,×,4,9 × 4,neutral,largerFirst,1.5,1.5,36,,,,,,,,
,,,,,,,,,,,,,,,779,2022-01-18_16h15.58.469,multiplicationStroop,2021.2.3,Win32,59.87306909,,,,,,,,,,,,,,,,,,,,,,,,,,,,,,,,,36,2.4491,1,0,22,22,32,1,6,×,6,6 × 6,neutral,tie,1.5,1.5,36,,,,,,,,
,,,,,,,,,,,,,,,779,2022-01-18_16h15.58.469,multiplicationStroop,2021.2.3,Win32,59.87306909,,,,,,,,,,,,,,,,,,,,,,,,,,,,,,,,,72,2.3321,1,0,23,23,11,1,8,×,9,8 × 9,neutral,smallerFirst,1.5,1.5,72,,,,,,,,
,,,,,,,,,,,,,,,779,2022-01-18_16h15.58.469,multiplicationStroop,2021.2.3,Win32,59.87306909,,,,,,,,,,,,,,,,,,,,,,,,,,,,,,,,,64,1.6656,1,0,24,24,34,1,8,×,8,8 × 8,neutral,tie,1.5,1.5,64,,,,,,,,
,,,,,,,,,,,,,,,779,2022-01-18_16h15.58.469,multiplicationStroop,2021.2.3,Win32,59.87306909,,,,,,,,,,,,,,,,,,,,,,,,,,,,,,,,,9,1.5323,1,0,25,25,29,1,3,×,3,3 × 3,neutral,tie,1.5,1.5,9,,,,,,,,
,,,,,,,,,,,,,,,779,2022-01-18_16h15.58.469,multiplicationStroop,2021.2.3,Win32,59.87306909,,,,,,,,,,,,,,,,,,,,,,,,,,,,,,,,,35,1.7317,1,0,26,26,1,1,5,×,7,5 × 7,neutral,smallerFirst,1.5,1.5,35,,,,,,,,
,,,,,,,,,,,,,,,779,2022-01-18_16h15.58.469,multiplicationStroop,2021.2.3,Win32,59.87306909,,,,,,,,,,,,,,,,,,,,,,,,,,,,,,,,,24,1.6989,1,0,27,27,2,1,4,×,6,4 × 6,neutral,smallerFirst,1.5,1.5,24,,,,,,,,
,,,,,,,,,,,,,,,779,2022-01-18_16h15.58.469,multiplicationStroop,2021.2.3,Win32,59.87306909,,,,,,,,,,,,,,,,,,,,,,,,,,,,,,,,,48,3.0151,1,0,28,28,15,1,8,×,6,8 × 6,neutral,largerFirst,1.5,1.5,48,,,,,,,,
,,,,,,,,,,,,,,,779,2022-01-18_16h15.58.469,multiplicationStroop,2021.2.3,Win32,59.87306909,,,,,,,,,,,,,,,,,,,,,,,,,,,,,,,,,12,1.6254,1,0,29,29,25,1,6,×,2,6 × 2,neutral,largerFirst,1.5,1.5,12,,,,,,,,
,,,,,,,,,,,,,,,779,2022-01-18_16h15.58.469,multiplicationStroop,2021.2.3,Win32,59.87306909,,,,,,,,,,,,,,,,,,,,,,,,,,,,,,,,,45,2.8653,1,0,30,30,10,1,5,×,9,5 × 9,neutral,smallerFirst,1.5,1.5,45,,,,,,,,
,,,,,,,,,,,,,,,779,2022-01-18_16h15.58.469,multiplicationStroop,2021.2.3,Win32,59.87306909,,,,,,,,,,,,,,,,,,,,,,,,,,,,,,,,,8,2.0821,1,0,31,31,3,1,2,×,4,2 × 4,neutral,smallerFirst,1.5,1.5,8,,,,,,,,
,,,,,,,,,,,,,,,779,2022-01-18_16h15.58.469,multiplicationStroop,2021.2.3,Win32,59.87306909,,,,,,,,,,,,,,,,,,,,,,,,,,,,,,,,,21,2.1159,1,0,32,32,8,1,3,×,7,3 × 7,neutral,smallerFirst,1.5,1.5,21,,,,,,,,
,,,,,,,,,,,,,,,779,2022-01-18_16h15.58.469,multiplicationStroop,2021.2.3,Win32,59.87306909,,,,,,,,,,,,,,,,,,,,,,,,,,,,,,,,,16,2.7317,1,0,33,33,13,1,2,×,8,2 × 8,neutral,smallerFirst,1.5,1.5,16,,,,,,,,
,,,,,,,,,,,,,,,779,2022-01-18_16h15.58.469,multiplicationStroop,2021.2.3,Win32,59.87306909,,,,,,,,,,,,,,,,,,,,,,,,,,,,,,,,,27,2.6656,1,0,34,34,14,1,9,×,3,9 × 3,neutral,largerFirst,1.5,1.5,27,,,,,,,,
,,,,,,,,,,,,,,,779,2022-01-18_16h15.58.469,multiplicationStroop,2021.2.3,Win32,59.87306909,,,,,,,,,,,,,,,,,,,,,,,,,,,,,,,,,30,3.7083,1,0,35,35,19,1,6,×,5,6 × 5,neutral,largerFirst,1.5,1.5,30,,,,,,,,
,,,,,,,,,,,,,,,779,2022-01-18_16h15.58.469,multiplicationStroop,2021.2.3,Win32,59.87306909,,,,,,,,,,,,,,,,,,,,,,,,,,,,,,,,,,,,,,,,,,,,,,,,,,0,4,4,1,1,stimulusFile/mult_blk2.xlsx,,
,,,,,,,,,,,,,,,779,2022-01-18_16h15.58.469,multiplicationStroop,2021.2.3,Win32,59.87306909,,,,,,,,,,,,,,,,,,,,,,,,,,,,,,,space,1.0951,4,1.2925,1,0,0,0,28,1,2,×,2,2 × 2,neutral,tie,2,1,4,,,,,,,,
,,,,,,,,,,,,,,,779,2022-01-18_16h15.58.469,multiplicationStroop,2021.2.3,Win32,59.87306909,,,,,,,,,,,,,,,,,,,,,,,,,,,,,,,,,36,2.6819,1,0,1,1,1,1,4,×,9,4 × 9,incongruent,smallerFirst,2,1,36,,,,,,,,
,,,,,,,,,,,,,,,779,2022-01-18_16h15.58.469,multiplicationStroop,2021.2.3,Win32,59.87306909,,,,,,,,,,,,,,,,,,,,,,,,,,,,,,,,,40,2.1485,1,0,2,2,27,1,8,×,5,8 × 5,incongruent,largerFirst,1,2,40,,,,,,,,
,,,,,,,,,,,,,,,779,2022-01-18_16h15.58.469,multiplicationStroop,2021.2.3,Win32,59.87306909,,,,,,,,,,,,,,,,,,,,,,,,,,,,,,,,,15,2.0322,1,0,3,3,24,1,5,×,3,5 × 3,incongruent,largerFirst,1,2,15,,,,,,,,
,,,,,,,,,,,,,,,779,2022-01-18_16h15.58.469,multiplicationStroop,2021.2.3,Win32,59.87306909,,,,,,,,,,,,,,,,,,,,,,,,,,,,,,,,,64,1.8327,1,0,4,4,34,1,8,×,8,8 × 8,neutral,tie,2,1,64,,,,,,,,
,,,,,,,,,,,,,,,779,2022-01-18_16h15.58.469,multiplicationStroop,2021.2.3,Win32,59.87306909,,,,,,,,,,,,,,,,,,,,,,,,,,,,,,,,,8,1.6166,1,0,5,5,10,1,2,×,4,2 × 4,incongruent,smallerFirst,2,1,8,,,,,,,,
,,,,,,,,,,,,,,,779,2022-01-18_16h15.58.469,multiplicationStroop,2021.2.3,Win32,59.87306909,,,,,,,,,,,,,,,,,,,,,,,,,,,,,,,,,27,2.2319,1,0,6,6,4,1,3,×,9,3 × 9,incongruent,smallerFirst,2,1,27,,,,,,,,
,,,,,,,,,,,,,,,779,2022-01-18_16h15.58.469,multiplicationStroop,2021.2.3,Win32,59.87306909,,,,,,,,,,,,,,,,,,,,,,,,,,,,,,,,,14,1.9482,1,0,7,7,18,1,7,×,2,7 × 2,incongruent,largerFirst,1,2,14,,,,,,,,
,,,,,,,,,,,,,,,779,2022-01-18_16h15.58.469,multiplicationStroop,2021.2.3,Win32,59.87306909,,,,,,,,,,,,,,,,,,,,,,,,,,,,,,,,,21,1.6328,1,0,8,8,12,1,3,×,7,3 × 7,incongruent,smallerFirst,2,1,21,,,,,,,,
,,,,,,,,,,,,,,,779,2022-01-18_16h15.58.469,multiplicationStroop,2021.2.3,Win32,59.87306909,,,,,,,,,,,,,,,,,,,,,,,,,,,,,,,,,49,1.8827,1,0,9,9,33,1,7,×,7,7 × 7,neutral,tie,2,1,49,,,,,,,,
,,,,,,,,,,,,,,,779,2022-01-18_16h15.58.469,multiplicationStroop,2021.2.3,Win32,59.87306909,,,,,,,,,,,,,,,,,,,,,,,,,,,,,,,,,18,2.3812,1,0,10,10,16,1,9,×,2,9 × 2,incongruent,largerFirst,1,2,18,,,,,,,,
,,,,,,,,,,,,,,,779,2022-01-18_16h15.58.469,multiplicationStroop,2021.2.3,Win32,59.87306909,,,,,,,,,,,,,,,,,,,,,,,,,,,,,,,,,36,2.3994,0,0,11,11,21,1,8,×,4,8 × 4,incongruent,largerFirst,1,2,32,,,,,,,,
,,,,,,,,,,,,,,,779,2022-01-18_16h15.58.469,multiplicationStroop,2021.2.3,Win32,59.87306909,,,,,,,,,,,,,,,,,,,,,,,,,,,,,,,,,42,3.7319,1,0,12,12,3,1,6,×,7,6 × 7,incongruent,smallerFirst,2,1,42,,,,,,,,
,,,,,,,,,,,,,,,779,2022-01-18_16h15.58.469,multiplicationStroop,2021.2.3,Win32,59.87306909,,,,,,,,,,,,,,,,,,,,,,,,,,,,,,,,,25,2.059,1,0,13,13,31,1,5,×,5,5 × 5,neutral,tie,2,1,25,,,,,,,,
,,,,,,,,,,,,,,,779,2022-01-18_16h15.58.469,multiplicationStroop,2021.2.3,Win32,59.87306909,,,,,,,,,,,,,,,,,,,,,,,,,,,,,,,,,81,1.8833,1,0,14,14,35,1,9,×,9,9 × 9,neutral,tie,2,1,81,,,,,,,,
,,,,,,,,,,,,,,,779,2022-01-18_16h15.58.469,multiplicationStroop,2021.2.3,Win32,59.87306909,,,,,,,,,,,,,,,,,,,,,,,,,,,,,,,,,48,3.2143,1,0,15,15,15,1,8,×,6,8 × 6,incongruent,largerFirst,1,2,48,,,,,,,,
,,,,,,,,,,,,,,,779,2022-01-18_16h15.58.469,multiplicationStroop,2021.2.3,Win32,59.87306909,,,,,,,,,,,,,,,,,,,,,,,,,,,,,,,,,30,2.2255,1,0,16,16,11,1,5,×,6,5 × 6,incongruent,smallerFirst,2,1,30,,,,,,,,
,,,,,,,,,,,,,,,779,2022-01-18_16h15.58.469,multiplicationStroop,2021.2.3,Win32,59.87306909,,,,,,,,,,,,,,,,,,,,,,,,,,,,,,,,,12,1.9489,1,0,17,17,5,1,2,×,6,2 × 6,incongruent,smallerFirst,2,1,12,,,,,,,,
,,,,,,,,,,,,,,,779,2022-01-18_16h15.58.469,multiplicationStroop,2021.2.3,Win32,59.87306909,,,,,,,,,,,,,,,,,,,,,,,,,,,,,,,,,63,3.1649,1,0,18,18,17,1,9,×,7,9 × 7,incongruent,largerFirst,1,2,63,,,,,,,,
,,,,,,,,,,,,,,,779,2022-01-18_16h15.58.469,multiplicationStroop,2021.2.3,Win32,59.87306909,,,,,,,,,,,,,,,,,,,,,,,,,,,,,,,,,18,2.3656,1,0,19,19,22,1,6,×,3,6 × 3,incongruent,largerFirst,1,2,18,,,,,,,,
,,,,,,,,,,,,,,,779,2022-01-18_16h15.58.469,multiplicationStroop,2021.2.3,Win32,59.87306909,,,,,,,,,,,,,,,,,,,,,,,,,,,,,,,,,6,1.5248,1,0,20,20,25,1,3,×,2,3 × 2,incongruent,largerFirst,1,2,6,,,,,,,,
,,,,,,,,,,,,,,,779,2022-01-18_16h15.58.469,multiplicationStroop,2021.2.3,Win32,59.87306909,,,,,,,,,,,,,,,,,,,,,,,,,,,,,,,,,20,1.7823,1,0,21,21,13,1,4,×,5,4 × 5,incongruent,smallerFirst,2,1,20,,,,,,,,
,,,,,,,,,,,,,,,779,2022-01-18_16h15.58.469,multiplicationStroop,2021.2.3,Win32,59.87306909,,,,,,,,,,,,,,,,,,,,,,,,,,,,,,,,,12,1.4824,1,0,22,22,19,1,4,×,3,4 × 3,incongruent,largerFirst,1,2,12,,,,,,,,
,,,,,,,,,,,,,,,779,2022-01-18_16h15.58.469,multiplicationStroop,2021.2.3,Win32,59.87306909,,,,,,,,,,,,,,,,,,,,,,,,,,,,,,,,,72,3.3651,1,0,23,23,14,1,9,×,8,9 × 8,incongruent,largerFirst,1,2,72,,,,,,,,
,,,,,,,,,,,,,,,779,2022-01-18_16h15.58.469,multiplicationStroop,2021.2.3,Win32,59.87306909,,,,,,,,,,,,,,,,,,,,,,,,,,,,,,,,,10,2.0258,1,0,24,24,7,1,2,×,5,2 × 5,incongruent,smallerFirst,2,1,10,,,,,,,,
,,,,,,,,,,,,,,,779,2022-01-18_16h15.58.469,multiplicationStroop,2021.2.3,Win32,59.87306909,,,,,,,,,,,,,,,,,,,,,,,,,,,,,,,,,24,1.8161,1,0,25,25,6,1,4,×,6,4 × 6,incongruent,smallerFirst,2,1,24,,,,,,,,
,,,,,,,,,,,,,,,779,2022-01-18_16h15.58.469,multiplicationStroop,2021.2.3,Win32,59.87306909,,,,,,,,,,,,,,,,,,,,,,,,,,,,,,,,,16,1.8482,1,0,26,26,9,1,2,×,8,2 × 8,incongruent,smallerFirst,2,1,16,,,,,,,,
,,,,,,,,,,,,,,,779,2022-01-18_16h15.58.469,multiplicationStroop,2021.2.3,Win32,59.87306909,,,,,,,,,,,,,,,,,,,,,,,,,,,,,,,,,28,2.5152,1,0,27,27,2,1,4,×,7,4 × 7,incongruent,smallerFirst,2,1,28,,,,,,,,
,,,,,,,,,,,,,,,779,2022-01-18_16h15.58.469,multiplicationStroop,2021.2.3,Win32,59.87306909,,,,,,,,,,,,,,,,,,,,,,,,,,,,,,,,,54,1.8592,1,0,28,28,20,1,9,×,6,9 × 6,incongruent,largerFirst,1,2,54,,,,,,,,
,,,,,,,,,,,,,,,779,2022-01-18_16h15.58.469,multiplicationStroop,2021.2.3,Win32,59.87306909,,,,,,,,,,,,,,,,,,,,,,,,,,,,,,,,,24,1.983,1,0,29,29,23,1,8,×,3,8 × 3,incongruent,largerFirst,1,2,24,,,,,,,,
,,,,,,,,,,,,,,,779,2022-01-18_16h15.58.469,multiplicationStroop,2021.2.3,Win32,59.87306909,,,,,,,,,,,,,,,,,,,,,,,,,,,,,,,,,56,3.7476,1,0,30,30,0,1,7,×,8,7 × 8,incongruent,smallerFirst,2,1,56,,,,,,,,
,,,,,,,,,,,,,,,779,2022-01-18_16h15.58.469,multiplicationStroop,2021.2.3,Win32,59.87306909,,,,,,,,,,,,,,,,,,,,,,,,,,,,,,,,,9,1.5761,1,0,31,31,29,1,3,×,3,3 × 3,neutral,tie,2,1,9,,,,,,,,
,,,,,,,,,,,,,,,779,2022-01-18_16h15.58.469,multiplicationStroop,2021.2.3,Win32,59.87306909,,,,,,,,,,,,,,,,,,,,,,,,,,,,,,,,,16,2.4483,1,0,32,32,30,1,4,×,4,4 × 4,neutral,tie,2,1,16,,,,,,,,
,,,,,,,,,,,,,,,779,2022-01-18_16h15.58.469,multiplicationStroop,2021.2.3,Win32,59.87306909,,,,,,,,,,,,,,,,,,,,,,,,,,,,,,,,,36,1.9091,1,0,33,33,32,1,6,×,6,6 × 6,neutral,tie,2,1,36,,,,,,,,
,,,,,,,,,,,,,,,779,2022-01-18_16h15.58.469,multiplicationStroop,2021.2.3,Win32,59.87306909,,,,,,,,,,,,,,,,,,,,,,,,,,,,,,,,,45,1.9325,1,0,34,34,8,1,5,×,9,5 × 9,incongruent,smallerFirst,2,1,45,,,,,,,,
,,,,,,,,,,,,,,,779,2022-01-18_16h15.58.469,multiplicationStroop,2021.2.3,Win32,59.87306909,,,,,,,,,,,,,,,,,,,,,,,,,,,,,,,,,35,2.1483,1,0,35,35,26,1,7,×,5,7 × 5,incongruent,largerFirst,1,2,35,,,,,,,,
,,,,,,,,,,,,,,,779,2022-01-18_16h15.58.469,multiplicationStroop,2021.2.3,Win32,59.87306909,,,,,,,,,,,,,,,,,,,,,,,,,,,,,,,,,,,,,,,,,,,,,,,,,,0,5,5,4,1,stimulusFile/mult_blk5_INcongruent.xlsx,,
,,,,,,,,,,,,,,,779,2022-01-18_16h15.58.469,multiplicationStroop,2021.2.3,Win32,59.87306909,,,,,,,,,,,,,,,,,,,,,,,,,,,,,,,,,,,,,,,,,,,,,,,,,,,,,,,,space,16.5475