welcomeKey_resp.keys,welcomeKey_resp.rt,X Scale,Y Scale,rt_resp_4.keys,rt_resp_4.corr,rt_resp_4.rt,speedtest_2.thisRepN,speedtest_2.thisTrialN,speedtest_2.thisN,speedtest_2.thisIndex,speedtest_2.ran,numberSc,posX,positionLayout,participant,date,expName,psychopyVersion,OS,frameRate,ct_instrresp.keys,ct_instrresp.rt,key_resp_2.keys,key_resp_2.rt,ct_keyResp.keys,ct_keyResp.corr,ct_keyResp.rt,trials.thisRepN,trials.thisTrialN,trials.thisN,trials.thisIndex,trials.ran,leftNo,rightNo,displayProblem,numDistance,leftNo_size,rightNo_size,Dims,keyAnswer,TS_Loop.thisRepN,TS_Loop.thisTrialN,TS_Loop.thisN,TS_Loop.thisIndex,TS_Loop.ran,Condition,ActionInst,instrImage,mltptaskInst_resp.keys,mltptaskInst_resp.rt,continue_resp_2.keys,continue_resp_2.rt,multp_Answer,multi_RT,multiplyCorr,LoopingMultiply.thisRepN,LoopingMultiply.thisTrialN,LoopingMultiply.thisN,LoopingMultiply.thisIndex,LoopingMultiply.ran,factor1,multiplySign,factor2,multliplyProblem,physicalSize,orderOperand,sizeF1,sizeF2,mult_answer,trials_stroop.thisRepN,trials_stroop.thisTrialN,trials_stroop.thisN,trials_stroop.thisIndex,trials_stroop.ran,multiplicationFile,esckey_resp_2.keys,esckey_resp_2.rt
y,11.2121,45,45,left,1,0.3798,0,0,0,0,1,1,-200,left,782,2022-01-20_22h49.39.451,multiplicationStroop,2021.2.3,Win32,60.0060006,,,,,,,,,,,,,,,,,,,,,,,,,,,,,,,,,,,,,,,,,,,,,,,,,,,,,,,,,
,,,,left,1,0.4237,0,1,1,1,1,2,-200,left,782,2022-01-20_22h49.39.451,multiplicationStroop,2021.2.3,Win32,60.0060006,,,,,,,,,,,,,,,,,,,,,,,,,,,,,,,,,,,,,,,,,,,,,,,,,,,,,,,,,
,,,,right,1,0.3876,0,2,2,11,1,4,200,right,782,2022-01-20_22h49.39.451,multiplicationStroop,2021.2.3,Win32,60.0060006,,,,,,,,,,,,,,,,,,,,,,,,,,,,,,,,,,,,,,,,,,,,,,,,,,,,,,,,,
,,,,right,1,0.2922,0,3,3,15,1,9,200,right,782,2022-01-20_22h49.39.451,multiplicationStroop,2021.2.3,Win32,60.0060006,,,,,,,,,,,,,,,,,,,,,,,,,,,,,,,,,,,,,,,,,,,,,,,,,,,,,,,,,
,,,,right,1,0.3141,0,4,4,12,1,6,200,right,782,2022-01-20_22h49.39.451,multiplicationStroop,2021.2.3,Win32,60.0060006,,,,,,,,,,,,,,,,,,,,,,,,,,,,,,,,,,,,,,,,,,,,,,,,,,,,,,,,,
,,,,right,1,0.2981,0,5,5,8,1,1,200,right,782,2022-01-20_22h49.39.451,multiplicationStroop,2021.2.3,Win32,60.0060006,,,,,,,,,,,,,,,,,,,,,,,,,,,,,,,,,,,,,,,,,,,,,,,,,,,,,,,,,
,,,,left,1,0.3245,0,6,6,7,1,9,-200,left,782,2022-01-20_22h49.39.451,multiplicationStroop,2021.2.3,Win32,60.0060006,,,,,,,,,,,,,,,,,,,,,,,,,,,,,,,,,,,,,,,,,,,,,,,,,,,,,,,,,
,,,,left,1,0.3075,0,7,7,6,1,8,-200,left,782,2022-01-20_22h49.39.451,multiplicationStroop,2021.2.3,Win32,60.0060006,,,,,,,,,,,,,,,,,,,,,,,,,,,,,,,,,,,,,,,,,,,,,,,,,,,,,,,,,
,,,,right,1,0.3235,0,8,8,14,1,8,200,right,782,2022-01-20_22h49.39.451,multiplicationStroop,2021.2.3,Win32,60.0060006,,,,,,,,,,,,,,,,,,,,,,,,,,,,,,,,,,,,,,,,,,,,,,,,,,,,,,,,,
,,,,left,1,0.339,0,9,9,5,1,7,-200,left,782,2022-01-20_22h49.39.451,multiplicationStroop,2021.2.3,Win32,60.0060006,,,,,,,,,,,,,,,,,,,,,,,,,,,,,,,,,,,,,,,,,,,,,,,,,,,,,,,,,
,,,,right,1,0.2996,0,10,10,13,1,7,200,right,782,2022-01-20_22h49.39.451,multiplicationStroop,2021.2.3,Win32,60.0060006,,,,,,,,,,,,,,,,,,,,,,,,,,,,,,,,,,,,,,,,,,,,,,,,,,,,,,,,,
,,,,left,1,0.2914,0,11,11,4,1,6,-200,left,782,2022-01-20_22h49.39.451,multiplicationStroop,2021.2.3,Win32,60.0060006,,,,,,,,,,,,,,,,,,,,,,,,,,,,,,,,,,,,,,,,,,,,,,,,,,,,,,,,,
,,,,right,1,0.2795,0,12,12,9,1,2,200,right,782,2022-01-20_22h49.39.451,multiplicationStroop,2021.2.3,Win32,60.0060006,,,,,,,,,,,,,,,,,,,,,,,,,,,,,,,,,,,,,,,,,,,,,,,,,,,,,,,,,
,,,,left,1,0.3231,0,13,13,3,1,4,-200,left,782,2022-01-20_22h49.39.451,multiplicationStroop,2021.2.3,Win32,60.0060006,,,,,,,,,,,,,,,,,,,,,,,,,,,,,,,,,,,,,,,,,,,,,,,,,,,,,,,,,
,,,,right,1,0.2786,0,14,14,10,1,3,200,right,782,2022-01-20_22h49.39.451,multiplicationStroop,2021.2.3,Win32,60.0060006,,,,,,,,,,,,,,,,,,,,,,,,,,,,,,,,,,,,,,,,,,,,,,,,,,,,,,,,,
,,,,left,1,0.3079,0,15,15,2,1,3,-200,left,782,2022-01-20_22h49.39.451,multiplicationStroop,2021.2.3,Win32,60.0060006,,,,,,,,,,,,,,,,,,,,,,,,,,,,,,,,,,,,,,,,,,,,,,,,,,,,,,,,,
,,,,left,1,0.3638,1,0,16,1,1,2,-200,left,782,2022-01-20_22h49.39.451,multiplicationStroop,2021.2.3,Win32,60.0060006,,,,,,,,,,,,,,,,,,,,,,,,,,,,,,,,,,,,,,,,,,,,,,,,,,,,,,,,,
,,,,left,1,0.3242,1,1,17,4,1,6,-200,left,782,2022-01-20_22h49.39.451,multiplicationStroop,2021.2.3,Win32,60.0060006,,,,,,,,,,,,,,,,,,,,,,,,,,,,,,,,,,,,,,,,,,,,,,,,,,,,,,,,,
,,,,left,1,0.3017,1,2,18,2,1,3,-200,left,782,2022-01-20_22h49.39.451,multiplicationStroop,2021.2.3,Win32,60.0060006,,,,,,,,,,,,,,,,,,,,,,,,,,,,,,,,,,,,,,,,,,,,,,,,,,,,,,,,,
,,,,right,1,0.3215,1,3,19,8,1,1,200,right,782,2022-01-20_22h49.39.451,multiplicationStroop,2021.2.3,Win32,60.0060006,,,,,,,,,,,,,,,,,,,,,,,,,,,,,,,,,,,,,,,,,,,,,,,,,,,,,,,,,
,,,,right,1,0.2976,1,4,20,13,1,7,200,right,782,2022-01-20_22h49.39.451,multiplicationStroop,2021.2.3,Win32,60.0060006,,,,,,,,,,,,,,,,,,,,,,,,,,,,,,,,,,,,,,,,,,,,,,,,,,,,,,,,,
,,,,right,1,0.2652,1,5,21,11,1,4,200,right,782,2022-01-20_22h49.39.451,multiplicationStroop,2021.2.3,Win32,60.0060006,,,,,,,,,,,,,,,,,,,,,,,,,,,,,,,,,,,,,,,,,,,,,,,,,,,,,,,,,
,,,,left,1,0.2991,1,6,22,0,1,1,-200,left,782,2022-01-20_22h49.39.451,multiplicationStroop,2021.2.3,Win32,60.0060006,,,,,,,,,,,,,,,,,,,,,,,,,,,,,,,,,,,,,,,,,,,,,,,,,,,,,,,,,
,,,,left,1,0.3468,1,7,23,7,1,9,-200,left,782,2022-01-20_22h49.39.451,multiplicationStroop,2021.2.3,Win32,60.0060006,,,,,,,,,,,,,,,,,,,,,,,,,,,,,,,,,,,,,,,,,,,,,,,,,,,,,,,,,
,,,,right,1,0.3005,1,8,24,15,1,9,200,right,782,2022-01-20_22h49.39.451,multiplicationStroop,2021.2.3,Win32,60.0060006,,,,,,,,,,,,,,,,,,,,,,,,,,,,,,,,,,,,,,,,,,,,,,,,,,,,,,,,,
,,,,right,1,0.2677,1,9,25,9,1,2,200,right,782,2022-01-20_22h49.39.451,multiplicationStroop,2021.2.3,Win32,60.0060006,,,,,,,,,,,,,,,,,,,,,,,,,,,,,,,,,,,,,,,,,,,,,,,,,,,,,,,,,
,,,,right,1,0.3005,1,10,26,12,1,6,200,right,782,2022-01-20_22h49.39.451,multiplicationStroop,2021.2.3,Win32,60.0060006,,,,,,,,,,,,,,,,,,,,,,,,,,,,,,,,,,,,,,,,,,,,,,,,,,,,,,,,,
,,,,left,1,0.3012,1,11,27,5,1,7,-200,left,782,2022-01-20_22h49.39.451,multiplicationStroop,2021.2.3,Win32,60.0060006,,,,,,,,,,,,,,,,,,,,,,,,,,,,,,,,,,,,,,,,,,,,,,,,,,,,,,,,,
,,,,left,1,0.3313,1,12,28,6,1,8,-200,left,782,2022-01-20_22h49.39.451,multiplicationStroop,2021.2.3,Win32,60.0060006,,,,,,,,,,,,,,,,,,,,,,,,,,,,,,,,,,,,,,,,,,,,,,,,,,,,,,,,,
,,,,right,1,0.3055,1,13,29,14,1,8,200,right,782,2022-01-20_22h49.39.451,multiplicationStroop,2021.2.3,Win32,60.0060006,,,,,,,,,,,,,,,,,,,,,,,,,,,,,,,,,,,,,,,,,,,,,,,,,,,,,,,,,
,,,,right,1,0.2802,1,14,30,10,1,3,200,right,782,2022-01-20_22h49.39.451,multiplicationStroop,2021.2.3,Win32,60.0060006,,,,,,,,,,,,,,,,,,,,,,,,,,,,,,,,,,,,,,,,,,,,,,,,,,,,,,,,,
,,,,left,1,0.3164,1,15,31,3,1,4,-200,left,782,2022-01-20_22h49.39.451,multiplicationStroop,2021.2.3,Win32,60.0060006,,,,,,,,,,,,,,,,,,,,,,,,,,,,,,,,,,,,,,,,,,,,,,,,,,,,,,,,,
,,,,left,1,0.3497,2,0,32,4,1,6,-200,left,782,2022-01-20_22h49.39.451,multiplicationStroop,2021.2.3,Win32,60.0060006,,,,,,,,,,,,,,,,,,,,,,,,,,,,,,,,,,,,,,,,,,,,,,,,,,,,,,,,,
,,,,left,1,0.3107,2,1,33,0,1,1,-200,left,782,2022-01-20_22h49.39.451,multiplicationStroop,2021.2.3,Win32,60.0060006,,,,,,,,,,,,,,,,,,,,,,,,,,,,,,,,,,,,,,,,,,,,,,,,,,,,,,,,,
,,,,left,1,0.3161,2,2,34,7,1,9,-200,left,782,2022-01-20_22h49.39.451,multiplicationStroop,2021.2.3,Win32,60.0060006,,,,,,,,,,,,,,,,,,,,,,,,,,,,,,,,,,,,,,,,,,,,,,,,,,,,,,,,,
,,,,right,1,0.3158,2,3,35,13,1,7,200,right,782,2022-01-20_22h49.39.451,multiplicationStroop,2021.2.3,Win32,60.0060006,,,,,,,,,,,,,,,,,,,,,,,,,,,,,,,,,,,,,,,,,,,,,,,,,,,,,,,,,
,,,,left,1,0.3104,2,4,36,5,1,7,-200,left,782,2022-01-20_22h49.39.451,multiplicationStroop,2021.2.3,Win32,60.0060006,,,,,,,,,,,,,,,,,,,,,,,,,,,,,,,,,,,,,,,,,,,,,,,,,,,,,,,,,
,,,,right,1,0.3707,2,5,37,15,1,9,200,right,782,2022-01-20_22h49.39.451,multiplicationStroop,2021.2.3,Win32,60.0060006,,,,,,,,,,,,,,,,,,,,,,,,,,,,,,,,,,,,,,,,,,,,,,,,,,,,,,,,,
,,,,right,1,0.3831,2,6,38,11,1,4,200,right,782,2022-01-20_22h49.39.451,multiplicationStroop,2021.2.3,Win32,60.0060006,,,,,,,,,,,,,,,,,,,,,,,,,,,,,,,,,,,,,,,,,,,,,,,,,,,,,,,,,
,,,,right,1,0.2978,2,7,39,12,1,6,200,right,782,2022-01-20_22h49.39.451,multiplicationStroop,2021.2.3,Win32,60.0060006,,,,,,,,,,,,,,,,,,,,,,,,,,,,,,,,,,,,,,,,,,,,,,,,,,,,,,,,,
,,,,right,1,0.3131,2,8,40,10,1,3,200,right,782,2022-01-20_22h49.39.451,multiplicationStroop,2021.2.3,Win32,60.0060006,,,,,,,,,,,,,,,,,,,,,,,,,,,,,,,,,,,,,,,,,,,,,,,,,,,,,,,,,
,,,,right,1,0.2836,2,9,41,9,1,2,200,right,782,2022-01-20_22h49.39.451,multiplicationStroop,2021.2.3,Win32,60.0060006,,,,,,,,,,,,,,,,,,,,,,,,,,,,,,,,,,,,,,,,,,,,,,,,,,,,,,,,,
,,,,left,1,0.3437,2,10,42,1,1,2,-200,left,782,2022-01-20_22h49.39.451,multiplicationStroop,2021.2.3,Win32,60.0060006,,,,,,,,,,,,,,,,,,,,,,,,,,,,,,,,,,,,,,,,,,,,,,,,,,,,,,,,,
,,,,left,1,0.3297,2,11,43,3,1,4,-200,left,782,2022-01-20_22h49.39.451,multiplicationStroop,2021.2.3,Win32,60.0060006,,,,,,,,,,,,,,,,,,,,,,,,,,,,,,,,,,,,,,,,,,,,,,,,,,,,,,,,,
,,,,left,1,0.3133,2,12,44,6,1,8,-200,left,782,2022-01-20_22h49.39.451,multiplicationStroop,2021.2.3,Win32,60.0060006,,,,,,,,,,,,,,,,,,,,,,,,,,,,,,,,,,,,,,,,,,,,,,,,,,,,,,,,,
,,,,left,1,0.2981,2,13,45,2,1,3,-200,left,782,2022-01-20_22h49.39.451,multiplicationStroop,2021.2.3,Win32,60.0060006,,,,,,,,,,,,,,,,,,,,,,,,,,,,,,,,,,,,,,,,,,,,,,,,,,,,,,,,,
,,,,right,1,0.3141,2,14,46,8,1,1,200,right,782,2022-01-20_22h49.39.451,multiplicationStroop,2021.2.3,Win32,60.0060006,,,,,,,,,,,,,,,,,,,,,,,,,,,,,,,,,,,,,,,,,,,,,,,,,,,,,,,,,
,,,,right,1,0.2709,2,15,47,14,1,8,200,right,782,2022-01-20_22h49.39.451,multiplicationStroop,2021.2.3,Win32,60.0060006,,,,,,,,,,,,,,,,,,,,,,,,,,,,,,,,,,,,,,,,,,,,,,,,,,,,,,,,,
,,,,right,1,0.3188,3,0,48,10,1,3,200,right,782,2022-01-20_22h49.39.451,multiplicationStroop,2021.2.3,Win32,60.0060006,,,,,,,,,,,,,,,,,,,,,,,,,,,,,,,,,,,,,,,,,,,,,,,,,,,,,,,,,
,,,,left,1,0.3497,3,1,49,6,1,8,-200,left,782,2022-01-20_22h49.39.451,multiplicationStroop,2021.2.3,Win32,60.0060006,,,,,,,,,,,,,,,,,,,,,,,,,,,,,,,,,,,,,,,,,,,,,,,,,,,,,,,,,
,,,,right,1,0.2904,3,2,50,9,1,2,200,right,782,2022-01-20_22h49.39.451,multiplicationStroop,2021.2.3,Win32,60.0060006,,,,,,,,,,,,,,,,,,,,,,,,,,,,,,,,,,,,,,,,,,,,,,,,,,,,,,,,,
,,,,left,1,0.3019,3,3,51,1,1,2,-200,left,782,2022-01-20_22h49.39.451,multiplicationStroop,2021.2.3,Win32,60.0060006,,,,,,,,,,,,,,,,,,,,,,,,,,,,,,,,,,,,,,,,,,,,,,,,,,,,,,,,,
,,,,right,1,0.3056,3,4,52,12,1,6,200,right,782,2022-01-20_22h49.39.451,multiplicationStroop,2021.2.3,Win32,60.0060006,,,,,,,,,,,,,,,,,,,,,,,,,,,,,,,,,,,,,,,,,,,,,,,,,,,,,,,,,
,,,,left,1,0.3022,3,5,53,3,1,4,-200,left,782,2022-01-20_22h49.39.451,multiplicationStroop,2021.2.3,Win32,60.0060006,,,,,,,,,,,,,,,,,,,,,,,,,,,,,,,,,,,,,,,,,,,,,,,,,,,,,,,,,
,,,,left,1,0.3881,3,6,54,7,1,9,-200,left,782,2022-01-20_22h49.39.451,multiplicationStroop,2021.2.3,Win32,60.0060006,,,,,,,,,,,,,,,,,,,,,,,,,,,,,,,,,,,,,,,,,,,,,,,,,,,,,,,,,
,,,,right,1,0.3321,3,7,55,13,1,7,200,right,782,2022-01-20_22h49.39.451,multiplicationStroop,2021.2.3,Win32,60.0060006,,,,,,,,,,,,,,,,,,,,,,,,,,,,,,,,,,,,,,,,,,,,,,,,,,,,,,,,,
,,,,left,1,0.2863,3,8,56,5,1,7,-200,left,782,2022-01-20_22h49.39.451,multiplicationStroop,2021.2.3,Win32,60.0060006,,,,,,,,,,,,,,,,,,,,,,,,,,,,,,,,,,,,,,,,,,,,,,,,,,,,,,,,,
,,,,right,1,0.3132,3,9,57,15,1,9,200,right,782,2022-01-20_22h49.39.451,multiplicationStroop,2021.2.3,Win32,60.0060006,,,,,,,,,,,,,,,,,,,,,,,,,,,,,,,,,,,,,,,,,,,,,,,,,,,,,,,,,
,,,,left,1,0.2881,3,10,58,0,1,1,-200,left,782,2022-01-20_22h49.39.451,multiplicationStroop,2021.2.3,Win32,60.0060006,,,,,,,,,,,,,,,,,,,,,,,,,,,,,,,,,,,,,,,,,,,,,,,,,,,,,,,,,
,,,,left,1,0.3581,3,11,59,4,1,6,-200,left,782,2022-01-20_22h49.39.451,multiplicationStroop,2021.2.3,Win32,60.0060006,,,,,,,,,,,,,,,,,,,,,,,,,,,,,,,,,,,,,,,,,,,,,,,,,,,,,,,,,
,,,,right,1,0.3171,3,12,60,8,1,1,200,right,782,2022-01-20_22h49.39.451,multiplicationStroop,2021.2.3,Win32,60.0060006,,,,,,,,,,,,,,,,,,,,,,,,,,,,,,,,,,,,,,,,,,,,,,,,,,,,,,,,,
,,,,left,1,0.2855,3,13,61,2,1,3,-200,left,782,2022-01-20_22h49.39.451,multiplicationStroop,2021.2.3,Win32,60.0060006,,,,,,,,,,,,,,,,,,,,,,,,,,,,,,,,,,,,,,,,,,,,,,,,,,,,,,,,,
,,,,right,1,0.2707,3,14,62,11,1,4,200,right,782,2022-01-20_22h49.39.451,multiplicationStroop,2021.2.3,Win32,60.0060006,,,,,,,,,,,,,,,,,,,,,,,,,,,,,,,,,,,,,,,,,,,,,,,,,,,,,,,,,
,,,,right,1,0.3736,3,15,63,14,1,8,200,right,782,2022-01-20_22h49.39.451,multiplicationStroop,2021.2.3,Win32,60.0060006,,,,,,,,,,,,,,,,,,,,,,,,,,stimulusFile/physical.xlsx,,,,,,,,,,,,,,,,,,,,,,,,,,,,,,,
,,,,,,,,,,,,,,,782,2022-01-20_22h49.39.451,multiplicationStroop,2021.2.3,Win32,60.0060006,space,15.4382,space,7.2883,right,0,0.9649,0,0,0,71,1,9,9,9 | 9,0,1.4111,1.9756,neutral,left,,,,,,stimulusFile/physical.xlsx,,,,,,,,,,,,,,,,,,,,,,,,,,,,,,,
,,,,,,,,,,,,,,,782,2022-01-20_22h49.39.451,multiplicationStroop,2021.2.3,Win32,60.0060006,,,,,right,1,0.8273,0,1,1,36,1,3,1,3 | 1,2,1.4111,1.9756,incongruent,right,,,,,,stimulusFile/physical.xlsx,,,,,,,,,,,,,,,,,,,,,,,,,,,,,,,
,,,,,,,,,,,,,,,782,2022-01-20_22h49.39.451,multiplicationStroop,2021.2.3,Win32,60.0060006,,,,,left,0,0.5328,0,2,2,64,1,1,1,1 | 1,0,1.9756,1.4111,neutral,right,,,,,,stimulusFile/physical.xlsx,,,,,,,,,,,,,,,,,,,,,,,,,,,,,,,
,,,,,,,,,,,,,,,782,2022-01-20_22h49.39.451,multiplicationStroop,2021.2.3,Win32,60.0060006,,,,,right,1,0.496,0,3,3,1,1,3,4,3 | 4,1,1.4111,1.9756,congruent,right,,,,,,stimulusFile/physical.xlsx,,,,,,,,,,,,,,,,,,,,,,,,,,,,,,,
,,,,,,,,,,,,,,,782,2022-01-20_22h49.39.451,multiplicationStroop,2021.2.3,Win32,60.0060006,,,,,right,1,0.5515,0,4,4,60,1,3,3,3 | 3,0,1.4111,1.9756,neutral,right,,,,,,stimulusFile/physical.xlsx,,,,,,,,,,,,,,,,,,,,,,,,,,,,,,,
,,,,,,,,,,,,,,,782,2022-01-20_22h49.39.451,multiplicationStroop,2021.2.3,Win32,60.0060006,,,,,right,1,0.4437,0,5,5,8,1,1,3,1 | 3,2,1.4111,1.9756,congruent,right,,,,,,stimulusFile/physical.xlsx,,,,,,,,,,,,,,,,,,,,,,,,,,,,,,,
,,,,,,,,,,,,,,,782,2022-01-20_22h49.39.451,multiplicationStroop,2021.2.3,Win32,60.0060006,,,,,right,1,0.4484,0,6,6,16,1,1,6,1 | 6,5,1.4111,1.9756,congruent,right,,,,,,stimulusFile/physical.xlsx,,,,,,,,,,,,,,,,,,,,,,,,,,,,,,,
,,,,,,,,,,,,,,,782,2022-01-20_22h49.39.451,multiplicationStroop,2021.2.3,Win32,60.0060006,,,,,left,1,0.4835,0,7,7,26,1,6,7,6 | 7,1,1.9756,1.4111,incongruent,left,,,,,,stimulusFile/physical.xlsx,,,,,,,,,,,,,,,,,,,,,,,,,,,,,,,
,,,,,,,,,,,,,,,782,2022-01-20_22h49.39.451,multiplicationStroop,2021.2.3,Win32,60.0060006,,,,,right,1,0.4224,0,8,8,67,1,4,4,4 | 4,0,1.4111,1.9756,neutral,right,,,,,,stimulusFile/physical.xlsx,,,,,,,,,,,,,,,,,,,,,,,,,,,,,,,
,,,,,,,,,,,,,,,782,2022-01-20_22h49.39.451,multiplicationStroop,2021.2.3,Win32,60.0060006,,,,,right,1,0.5317,0,9,9,65,1,2,2,2 | 2,0,1.4111,1.9756,neutral,right,,,,,,stimulusFile/physical.xlsx,,,,,,,,,,,,,,,,,,,,,,,,,,,,,,,
,,,,,,,,,,,,,,,782,2022-01-20_22h49.39.451,multiplicationStroop,2021.2.3,Win32,60.0060006,,,,,left,1,0.4713,0,10,10,4,1,2,1,2 | 1,1,1.9756,1.4111,congruent,left,,,,,,stimulusFile/physical.xlsx,,,,,,,,,,,,,,,,,,,,,,,,,,,,,,,
,,,,,,,,,,,,,,,782,2022-01-20_22h49.39.451,multiplicationStroop,2021.2.3,Win32,60.0060006,,,,,left,1,0.4108,0,11,11,25,1,3,4,3 | 4,1,1.9756,1.4111,incongruent,left,,,,,,stimulusFile/physical.xlsx,,,,,,,,,,,,,,,,,,,,,,,,,,,,,,,
,,,,,,,,,,,,,,,782,2022-01-20_22h49.39.451,multiplicationStroop,2021.2.3,Win32,60.0060006,,,,,left,1,0.4046,0,12,12,20,1,6,1,6 | 1,5,1.9756,1.4111,congruent,left,,,,,,stimulusFile/physical.xlsx,,,,,,,,,,,,,,,,,,,,,,,,,,,,,,,
,,,,,,,,,,,,,,,782,2022-01-20_22h49.39.451,multiplicationStroop,2021.2.3,Win32,60.0060006,,,,,left,1,0.4091,0,13,13,12,1,3,1,3 | 1,2,1.9756,1.4111,congruent,left,,,,,,stimulusFile/physical.xlsx,,,,,,,,,,,,,,,,,,,,,,,,,,,,,,,
,,,,,,,,,,,,,,,782,2022-01-20_22h49.39.451,multiplicationStroop,2021.2.3,Win32,60.0060006,,,,,left,1,0.7258,0,14,14,6,1,7,6,7 | 6,1,1.9756,1.4111,congruent,left,,,,,,stimulusFile/physical.xlsx,,,,,,,,,,,,,,,,,,,,,,,,,,,,,,,
,,,,,,,,,,,,,,,782,2022-01-20_22h49.39.451,multiplicationStroop,2021.2.3,Win32,60.0060006,,,,,right,1,0.4689,0,15,15,46,1,8,3,8 | 3,5,1.4111,1.9756,incongruent,right,,,,,,stimulusFile/physical.xlsx,,,,,,,,,,,,,,,,,,,,,,,,,,,,,,,
,,,,,,,,,,,,,,,782,2022-01-20_22h49.39.451,multiplicationStroop,2021.2.3,Win32,60.0060006,,,,,right,1,0.5791,0,16,16,31,1,9,8,9 | 8,1,1.4111,1.9756,incongruent,right,,,,,,stimulusFile/physical.xlsx,,,,,,,,,,,,,,,,,,,,,,,,,,,,,,,
,,,,,,,,,,,,,,,782,2022-01-20_22h49.39.451,multiplicationStroop,2021.2.3,Win32,60.0060006,,,,,left,0,0.5009,0,17,17,66,1,3,3,3 | 3,0,1.9756,1.4111,neutral,right,,,,,,stimulusFile/physical.xlsx,,,,,,,,,,,,,,,,,,,,,,,,,,,,,,,
,,,,,,,,,,,,,,,782,2022-01-20_22h49.39.451,multiplicationStroop,2021.2.3,Win32,60.0060006,,,,,right,1,0.4037,0,18,18,59,1,7,7,7 | 7,0,1.4111,1.9756,neutral,right,,,,,,stimulusFile/physical.xlsx,,,,,,,,,,,,,,,,,,,,,,,,,,,,,,,
,,,,,,,,,,,,,,,782,2022-01-20_22h49.39.451,multiplicationStroop,2021.2.3,Win32,60.0060006,,,,,left,1,0.5219,0,19,19,34,1,6,8,6 | 8,2,1.9756,1.4111,incongruent,left,,,,,,stimulusFile/physical.xlsx,,,,,,,,,,,,,,,,,,,,,,,,,,,,,,,
,,,,,,,,,,,,,,,782,2022-01-20_22h49.39.451,multiplicationStroop,2021.2.3,Win32,60.0060006,,,,,right,1,0.4796,0,20,20,47,1,9,4,9 | 4,5,1.4111,1.9756,incongruent,right,,,,,,stimulusFile/physical.xlsx,,,,,,,,,,,,,,,,,,,,,,,,,,,,,,,
,,,,,,,,,,,,,,,782,2022-01-20_22h49.39.451,multiplicationStroop,2021.2.3,Win32,60.0060006,,,,,right,1,0.4531,0,21,21,45,1,7,2,7 | 2,5,1.4111,1.9756,incongruent,right,,,,,,stimulusFile/physical.xlsx,,,,,,,,,,,,,,,,,,,,,,,,,,,,,,,
,,,,,,,,,,,,,,,782,2022-01-20_22h49.39.451,multiplicationStroop,2021.2.3,Win32,60.0060006,,,,,left,1,0.4483,0,22,22,35,1,7,9,7 | 9,2,1.9756,1.4111,incongruent,left,,,,,,stimulusFile/physical.xlsx,,,,,,,,,,,,,,,,,,,,,,,,,,,,,,,
,,,,,,,,,,,,,,,782,2022-01-20_22h49.39.451,multiplicationStroop,2021.2.3,Win32,60.0060006,,,,,right,1,0.4494,0,23,23,10,1,6,8,6 | 8,2,1.4111,1.9756,congruent,right,,,,,,stimulusFile/physical.xlsx,,,,,,,,,,,,,,,,,,,,,,,,,,,,,,,
,,,,,,,,,,,,,,,782,2022-01-20_22h49.39.451,multiplicationStroop,2021.2.3,Win32,60.0060006,,,,,left,1,0.4508,0,24,24,33,1,2,4,2 | 4,2,1.9756,1.4111,incongruent,left,,,,,,stimulusFile/physical.xlsx,,,,,,,,,,,,,,,,,,,,,,,,,,,,,,,
,,,,,,,,,,,,,,,782,2022-01-20_22h49.39.451,multiplicationStroop,2021.2.3,Win32,60.0060006,,,,,left,1,0.4407,0,25,25,43,1,4,9,4 | 9,5,1.9756,1.4111,incongruent,left,,,,,,stimulusFile/physical.xlsx,,,,,,,,,,,,,,,,,,,,,,,,,,,,,,,
,,,,,,,,,,,,,,,782,2022-01-20_22h49.39.451,multiplicationStroop,2021.2.3,Win32,60.0060006,,,,,right,1,0.4384,0,26,26,63,1,9,9,9 | 9,0,1.4111,1.9756,neutral,right,,,,,,stimulusFile/physical.xlsx,,,,,,,,,,,,,,,,,,,,,,,,,,,,,,,
,,,,,,,,,,,,,,,782,2022-01-20_22h49.39.451,multiplicationStroop,2021.2.3,Win32,60.0060006,,,,,right,1,0.4655,0,27,27,11,1,7,9,7 | 9,2,1.4111,1.9756,congruent,right,,,,,,stimulusFile/physical.xlsx,,,,,,,,,,,,,,,,,,,,,,,,,,,,,,,
,,,,,,,,,,,,,,,782,2022-01-20_22h49.39.451,multiplicationStroop,2021.2.3,Win32,60.0060006,,,,,left,1,0.464,0,28,28,32,1,1,3,1 | 3,2,1.9756,1.4111,incongruent,left,,,,,,stimulusFile/physical.xlsx,,,,,,,,,,,,,,,,,,,,,,,,,,,,,,,
,,,,,,,,,,,,,,,782,2022-01-20_22h49.39.451,multiplicationStroop,2021.2.3,Win32,60.0060006,,,,,right,1,0.4312,0,29,29,58,1,6,6,6 | 6,0,1.4111,1.9756,neutral,right,,,,,,stimulusFile/physical.xlsx,,,,,,,,,,,,,,,,,,,,,,,,,,,,,,,
,,,,,,,,,,,,,,,782,2022-01-20_22h49.39.451,multiplicationStroop,2021.2.3,Win32,60.0060006,,,,,left,1,0.5543,0,30,30,41,1,2,7,2 | 7,5,1.9756,1.4111,incongruent,left,,,,,,stimulusFile/physical.xlsx,,,,,,,,,,,,,,,,,,,,,,,,,,,,,,,
,,,,,,,,,,,,,,,782,2022-01-20_22h49.39.451,multiplicationStroop,2021.2.3,Win32,60.0060006,,,,,left,1,0.5149,0,31,31,42,1,3,8,3 | 8,5,1.9756,1.4111,incongruent,left,,,,,,stimulusFile/physical.xlsx,,,,,,,,,,,,,,,,,,,,,,,,,,,,,,,
,,,,,,,,,,,,,,,782,2022-01-20_22h49.39.451,multiplicationStroop,2021.2.3,Win32,60.0060006,,,,,right,0,0.4509,0,32,32,69,1,7,7,7 | 7,0,1.4111,1.9756,neutral,left,,,,,,stimulusFile/physical.xlsx,,,,,,,,,,,,,,,,,,,,,,,,,,,,,,,
,,,,,,,,,,,,,,,782,2022-01-20_22h49.39.451,multiplicationStroop,2021.2.3,Win32,60.0060006,,,,,left,1,0.5635,0,33,33,52,1,2,2,2 | 2,0,1.9756,1.4111,neutral,left,,,,,,stimulusFile/physical.xlsx,,,,,,,,,,,,,,,,,,,,,,,,,,,,,,,
,,,,,,,,,,,,,,,782,2022-01-20_22h49.39.451,multiplicationStroop,2021.2.3,Win32,60.0060006,,,,,right,1,0.463,0,34,34,19,1,4,9,4 | 9,5,1.4111,1.9756,congruent,right,,,,,,stimulusFile/physical.xlsx,,,,,,,,,,,,,,,,,,,,,,,,,,,,,,,
,,,,,,,,,,,,,,,782,2022-01-20_22h49.39.451,multiplicationStroop,2021.2.3,Win32,60.0060006,,,,,left,1,0.3828,0,35,35,15,1,9,7,9 | 7,2,1.9756,1.4111,congruent,left,,,,,,stimulusFile/physical.xlsx,,,,,,,,,,,,,,,,,,,,,,,,,,,,,,,
,,,,,,,,,,,,,,,782,2022-01-20_22h49.39.451,multiplicationStroop,2021.2.3,Win32,60.0060006,,,,,left,1,0.5298,0,36,36,24,1,1,2,1 | 2,1,1.9756,1.4111,incongruent,left,,,,,,stimulusFile/physical.xlsx,,,,,,,,,,,,,,,,,,,,,,,,,,,,,,,
,,,,,,,,,,,,,,,782,2022-01-20_22h49.39.451,multiplicationStroop,2021.2.3,Win32,60.0060006,,,,,right,1,0.4637,0,37,37,17,1,2,7,2 | 7,5,1.4111,1.9756,congruent,right,,,,,,stimulusFile/physical.xlsx,,,,,,,,,,,,,,,,,,,,,,,,,,,,,,,
,,,,,,,,,,,,,,,782,2022-01-20_22h49.39.451,multiplicationStroop,2021.2.3,Win32,60.0060006,,,,,left,1,0.4303,0,38,38,70,1,8,8,8 | 8,0,1.9756,1.4111,neutral,left,,,,,,stimulusFile/physical.xlsx,,,,,,,,,,,,,,,,,,,,,,,,,,,,,,,
,,,,,,,,,,,,,,,782,2022-01-20_22h49.39.451,multiplicationStroop,2021.2.3,Win32,60.0060006,,,,,right,1,0.4499,0,39,39,57,1,2,2,2 | 2,0,1.4111,1.9756,neutral,right,,,,,,stimulusFile/physical.xlsx,,,,,,,,,,,,,,,,,,,,,,,,,,,,,,,
,,,,,,,,,,,,,,,782,2022-01-20_22h49.39.451,multiplicationStroop,2021.2.3,Win32,60.0060006,,,,,right,1,0.5295,0,40,40,61,1,4,4,4 | 4,0,1.4111,1.9756,neutral,right,,,,,,stimulusFile/physical.xlsx,,,,,,,,,,,,,,,,,,,,,,,,,,,,,,,
,,,,,,,,,,,,,,,782,2022-01-20_22h49.39.451,multiplicationStroop,2021.2.3,Win32,60.0060006,,,,,left,1,0.4465,0,41,41,13,1,4,2,4 | 2,2,1.9756,1.4111,congruent,left,,,,,,stimulusFile/physical.xlsx,,,,,,,,,,,,,,,,,,,,,,,,,,,,,,,
,,,,,,,,,,,,,,,782,2022-01-20_22h49.39.451,multiplicationStroop,2021.2.3,Win32,60.0060006,,,,,left,1,0.422,0,42,42,51,1,8,8,8 | 8,0,1.9756,1.4111,neutral,left,,,,,,stimulusFile/physical.xlsx,,,,,,,,,,,,,,,,,,,,,,,,,,,,,,,
,,,,,,,,,,,,,,,782,2022-01-20_22h49.39.451,multiplicationStroop,2021.2.3,Win32,60.0060006,,,,,right,1,0.4207,0,43,43,38,1,8,6,8 | 6,2,1.4111,1.9756,incongruent,right,,,,,,stimulusFile/physical.xlsx,,,,,,,,,,,,,,,,,,,,,,,,,,,,,,,
,,,,,,,,,,,,,,,782,2022-01-20_22h49.39.451,multiplicationStroop,2021.2.3,Win32,60.0060006,,,,,right,1,0.4712,0,44,44,30,1,7,6,7 | 6,1,1.4111,1.9756,incongruent,right,,,,,,stimulusFile/physical.xlsx,,,,,,,,,,,,,,,,,,,,,,,,,,,,,,,
,,,,,,,,,,,,,,,782,2022-01-20_22h49.39.451,multiplicationStroop,2021.2.3,Win32,60.0060006,,,,,right,1,0.472,0,45,45,3,1,8,9,8 | 9,1,1.4111,1.9756,congruent,right,,,,,,stimulusFile/physical.xlsx,,,,,,,,,,,,,,,,,,,,,,,,,,,,,,,
,,,,,,,,,,,,,,,782,2022-01-20_22h49.39.451,multiplicationStroop,2021.2.3,Win32,60.0060006,,,,,right,1,0.5462,0,46,46,18,1,3,8,3 | 8,5,1.4111,1.9756,congruent,right,,,,,,stimulusFile/physical.xlsx,,,,,,,,,,,,,,,,,,,,,,,,,,,,,,,
,,,,,,,,,,,,,,,782,2022-01-20_22h49.39.451,multiplicationStroop,2021.2.3,Win32,60.0060006,,,,,right,1,0.5048,0,47,47,28,1,2,1,2 | 1,1,1.4111,1.9756,incongruent,right,,,,,,stimulusFile/physical.xlsx,,,,,,,,,,,,,,,,,,,,,,,,,,,,,,,
,,,,,,,,,,,,,,,782,2022-01-20_22h49.39.451,multiplicationStroop,2021.2.3,Win32,60.0060006,,,,,left,1,0.5363,0,48,48,48,1,1,1,1 | 1,0,1.9756,1.4111,neutral,left,,,,,,stimulusFile/physical.xlsx,,,,,,,,,,,,,,,,,,,,,,,,,,,,,,,
,,,,,,,,,,,,,,,782,2022-01-20_22h49.39.451,multiplicationStroop,2021.2.3,Win32,60.0060006,,,,,right,1,0.4292,0,49,49,37,1,4,2,4 | 2,2,1.4111,1.9756,incongruent,right,,,,,,stimulusFile/physical.xlsx,,,,,,,,,,,,,,,,,,,,,,,,,,,,,,,
,,,,,,,,,,,,,,,782,2022-01-20_22h49.39.451,multiplicationStroop,2021.2.3,Win32,60.0060006,,,,,left,1,0.4283,0,50,50,27,1,8,9,8 | 9,1,1.9756,1.4111,incongruent,left,,,,,,stimulusFile/physical.xlsx,,,,,,,,,,,,,,,,,,,,,,,,,,,,,,,
,,,,,,,,,,,,,,,782,2022-01-20_22h49.39.451,multiplicationStroop,2021.2.3,Win32,60.0060006,,,,,left,1,0.4192,0,51,51,23,1,9,4,9 | 4,5,1.9756,1.4111,congruent,left,,,,,,stimulusFile/physical.xlsx,,,,,,,,,,,,,,,,,,,,,,,,,,,,,,,
,,,,,,,,,,,,,,,782,2022-01-20_22h49.39.451,multiplicationStroop,2021.2.3,Win32,60.0060006,,,,,left,1,0.3993,0,52,52,14,1,8,6,8 | 6,2,1.9756,1.4111,congruent,left,,,,,,stimulusFile/physical.xlsx,,,,,,,,,,,,,,,,,,,,,,,,,,,,,,,
,,,,,,,,,,,,,,,782,2022-01-20_22h49.39.451,multiplicationStroop,2021.2.3,Win32,60.0060006,,,,,left,1,0.4039,0,53,53,5,1,4,3,4 | 3,1,1.9756,1.4111,congruent,left,,,,,,stimulusFile/physical.xlsx,,,,,,,,,,,,,,,,,,,,,,,,,,,,,,,
,,,,,,,,,,,,,,,782,2022-01-20_22h49.39.451,multiplicationStroop,2021.2.3,Win32,60.0060006,,,,,right,1,0.4966,0,54,54,29,1,4,3,4 | 3,1,1.4111,1.9756,incongruent,right,,,,,,stimulusFile/physical.xlsx,,,,,,,,,,,,,,,,,,,,,,,,,,,,,,,
,,,,,,,,,,,,,,,782,2022-01-20_22h49.39.451,multiplicationStroop,2021.2.3,Win32,60.0060006,,,,,left,1,0.4464,0,55,55,7,1,9,8,9 | 8,1,1.9756,1.4111,congruent,left,,,,,,stimulusFile/physical.xlsx,,,,,,,,,,,,,,,,,,,,,,,,,,,,,,,
,,,,,,,,,,,,,,,782,2022-01-20_22h49.39.451,multiplicationStroop,2021.2.3,Win32,60.0060006,,,,,left,1,0.4435,0,56,56,55,1,9,9,9 | 9,0,1.9756,1.4111,neutral,left,,,,,,stimulusFile/physical.xlsx,,,,,,,,,,,,,,,,,,,,,,,,,,,,,,,
,,,,,,,,,,,,,,,782,2022-01-20_22h49.39.451,multiplicationStroop,2021.2.3,Win32,60.0060006,,,,,right,1,0.4794,0,57,57,0,1,1,2,1 | 2,1,1.4111,1.9756,congruent,right,,,,,,stimulusFile/physical.xlsx,,,,,,,,,,,,,,,,,,,,,,,,,,,,,,,
,,,,,,,,,,,,,,,782,2022-01-20_22h49.39.451,multiplicationStroop,2021.2.3,Win32,60.0060006,,,,,left,1,0.4332,0,58,58,22,1,8,3,8 | 3,5,1.9756,1.4111,congruent,left,,,,,,stimulusFile/physical.xlsx,,,,,,,,,,,,,,,,,,,,,,,,,,,,,,,
,,,,,,,,,,,,,,,782,2022-01-20_22h49.39.451,multiplicationStroop,2021.2.3,Win32,60.0060006,,,,,right,1,0.4189,0,59,59,2,1,6,7,6 | 7,1,1.4111,1.9756,congruent,right,,,,,,stimulusFile/physical.xlsx,,,,,,,,,,,,,,,,,,,,,,,,,,,,,,,
,,,,,,,,,,,,,,,782,2022-01-20_22h49.39.451,multiplicationStroop,2021.2.3,Win32,60.0060006,,,,,right,1,0.4653,0,60,60,62,1,8,8,8 | 8,0,1.4111,1.9756,neutral,right,,,,,,stimulusFile/physical.xlsx,,,,,,,,,,,,,,,,,,,,,,,,,,,,,,,
,,,,,,,,,,,,,,,782,2022-01-20_22h49.39.451,multiplicationStroop,2021.2.3,Win32,60.0060006,,,,,right,1,0.4458,0,61,61,9,1,2,4,2 | 4,2,1.4111,1.9756,congruent,right,,,,,,stimulusFile/physical.xlsx,,,,,,,,,,,,,,,,,,,,,,,,,,,,,,,
,,,,,,,,,,,,,,,782,2022-01-20_22h49.39.451,multiplicationStroop,2021.2.3,Win32,60.0060006,,,,,left,1,0.4728,0,62,62,50,1,6,6,6 | 6,0,1.9756,1.4111,neutral,left,,,,,,stimulusFile/physical.xlsx,,,,,,,,,,,,,,,,,,,,,,,,,,,,,,,
,,,,,,,,,,,,,,,782,2022-01-20_22h49.39.451,multiplicationStroop,2021.2.3,Win32,60.0060006,,,,,left,1,0.5237,0,63,63,49,1,3,3,3 | 3,0,1.9756,1.4111,neutral,left,,,,,,stimulusFile/physical.xlsx,,,,,,,,,,,,,,,,,,,,,,,,,,,,,,,
,,,,,,,,,,,,,,,782,2022-01-20_22h49.39.451,multiplicationStroop,2021.2.3,Win32,60.0060006,,,,,right,1,0.4546,0,64,64,44,1,6,1,6 | 1,5,1.4111,1.9756,incongruent,right,,,,,,stimulusFile/physical.xlsx,,,,,,,,,,,,,,,,,,,,,,,,,,,,,,,
,,,,,,,,,,,,,,,782,2022-01-20_22h49.39.451,multiplicationStroop,2021.2.3,Win32,60.0060006,,,,,right,1,0.5038,0,65,65,56,1,1,1,1 | 1,0,1.4111,1.9756,neutral,right,,,,,,stimulusFile/physical.xlsx,,,,,,,,,,,,,,,,,,,,,,,,,,,,,,,
,,,,,,,,,,,,,,,782,2022-01-20_22h49.39.451,multiplicationStroop,2021.2.3,Win32,60.0060006,,,,,left,1,0.4382,0,66,66,68,1,6,6,6 | 6,0,1.9756,1.4111,neutral,left,,,,,,stimulusFile/physical.xlsx,,,,,,,,,,,,,,,,,,,,,,,,,,,,,,,
,,,,,,,,,,,,,,,782,2022-01-20_22h49.39.451,multiplicationStroop,2021.2.3,Win32,60.0060006,,,,,left,1,0.446,0,67,67,53,1,4,4,4 | 4,0,1.9756,1.4111,neutral,left,,,,,,stimulusFile/physical.xlsx,,,,,,,,,,,,,,,,,,,,,,,,,,,,,,,
,,,,,,,,,,,,,,,782,2022-01-20_22h49.39.451,multiplicationStroop,2021.2.3,Win32,60.0060006,,,,,left,1,0.4956,0,68,68,21,1,7,2,7 | 2,5,1.9756,1.4111,congruent,left,,,,,,stimulusFile/physical.xlsx,,,,,,,,,,,,,,,,,,,,,,,,,,,,,,,
,,,,,,,,,,,,,,,782,2022-01-20_22h49.39.451,multiplicationStroop,2021.2.3,Win32,60.0060006,,,,,right,1,0.434,0,69,69,39,1,9,7,9 | 7,2,1.4111,1.9756,incongruent,right,,,,,,stimulusFile/physical.xlsx,,,,,,,,,,,,,,,,,,,,,,,,,,,,,,,
,,,,,,,,,,,,,,,782,2022-01-20_22h49.39.451,multiplicationStroop,2021.2.3,Win32,60.0060006,,,,,left,1,0.4685,0,70,70,54,1,7,7,7 | 7,0,1.9756,1.4111,neutral,left,,,,,,stimulusFile/physical.xlsx,,,,,,,,,,,,,,,,,,,,,,,,,,,,,,,
,,,,,,,,,,,,,,,782,2022-01-20_22h49.39.451,multiplicationStroop,2021.2.3,Win32,60.0060006,,,,,left,1,0.568,0,71,71,40,1,1,6,1 | 6,5,1.9756,1.4111,incongruent,left,,,,,,stimulusFile/physical.xlsx,,,,,,,,,,,,,,,,,,,,,,,,,,,,,,,
,,,,,,,,,,,,,,,782,2022-01-20_22h49.39.451,multiplicationStroop,2021.2.3,Win32,60.0060006,,,,,,,,,,,,,,,,,,,,,0,0,0,1,1,stimulusFile/physical.xlsx,PHYSICALLY larger (larger font size).,images/physicallyLarger.png,,,,,,,,,,,,,,,,,,,,,,,,,,,,,
,,,,,,,,,,,,,,,782,2022-01-20_22h49.39.451,multiplicationStroop,2021.2.3,Win32,60.0060006,space,6.5242,space,5.0863,left,1,0.5563,0,0,0,15,1,9,7,9 | 7,2,1.9756,1.4111,congruent,left,,,,,,stimulusFile/magnitude.xlsx,,,,,,,,,,,,,,,,,,,,,,,,,,,,,,,
,,,,,,,,,,,,,,,782,2022-01-20_22h49.39.451,multiplicationStroop,2021.2.3,Win32,60.0060006,,,,,right,1,0.6824,0,1,1,19,1,4,9,4 | 9,5,1.4111,1.9756,congruent,right,,,,,,stimulusFile/magnitude.xlsx,,,,,,,,,,,,,,,,,,,,,,,,,,,,,,,
,,,,,,,,,,,,,,,782,2022-01-20_22h49.39.451,multiplicationStroop,2021.2.3,Win32,60.0060006,,,,,left,1,0.6513,0,2,2,45,1,7,2,7 | 2,5,1.4111,1.9756,incongruent,left,,,,,,stimulusFile/magnitude.xlsx,,,,,,,,,,,,,,,,,,,,,,,,,,,,,,,
,,,,,,,,,,,,,,,782,2022-01-20_22h49.39.451,multiplicationStroop,2021.2.3,Win32,60.0060006,,,,,left,1,0.6527,0,3,3,13,1,4,2,4 | 2,2,1.9756,1.4111,congruent,left,,,,,,stimulusFile/magnitude.xlsx,,,,,,,,,,,,,,,,,,,,,,,,,,,,,,,
,,,,,,,,,,,,,,,782,2022-01-20_22h49.39.451,multiplicationStroop,2021.2.3,Win32,60.0060006,,,,,right,1,0.6445,0,4,4,26,1,6,7,6 | 7,1,1.9756,1.4111,incongruent,right,,,,,,stimulusFile/magnitude.xlsx,,,,,,,,,,,,,,,,,,,,,,,,,,,,,,,
,,,,,,,,,,,,,,,782,2022-01-20_22h49.39.451,multiplicationStroop,2021.2.3,Win32,60.0060006,,,,,left,1,0.5835,0,5,5,21,1,7,2,7 | 2,5,1.9756,1.4111,congruent,left,,,,,,stimulusFile/magnitude.xlsx,,,,,,,,,,,,,,,,,,,,,,,,,,,,,,,
,,,,,,,,,,,,,,,782,2022-01-20_22h49.39.451,multiplicationStroop,2021.2.3,Win32,60.0060006,,,,,right,1,0.4774,0,6,6,64,1,1,6,1 | 6,5,1.6933,1.6933,neutral,right,,,,,,stimulusFile/magnitude.xlsx,,,,,,,,,,,,,,,,,,,,,,,,,,,,,,,
,,,,,,,,,,,,,,,782,2022-01-20_22h49.39.451,multiplicationStroop,2021.2.3,Win32,60.0060006,,,,,left,1,0.4796,0,7,7,20,1,6,1,6 | 1,5,1.9756,1.4111,congruent,left,,,,,,stimulusFile/magnitude.xlsx,,,,,,,,,,,,,,,,,,,,,,,,,,,,,,,
,,,,,,,,,,,,,,,782,2022-01-20_22h49.39.451,multiplicationStroop,2021.2.3,Win32,60.0060006,,,,,right,1,0.5757,0,8,8,3,1,8,9,8 | 9,1,1.4111,1.9756,congruent,right,,,,,,stimulusFile/magnitude.xlsx,,,,,,,,,,,,,,,,,,,,,,,,,,,,,,,
,,,,,,,,,,,,,,,782,2022-01-20_22h49.39.451,multiplicationStroop,2021.2.3,Win32,60.0060006,,,,,right,1,0.624,0,9,9,42,1,3,8,3 | 8,5,1.9756,1.4111,incongruent,right,,,,,,stimulusFile/magnitude.xlsx,,,,,,,,,,,,,,,,,,,,,,,,,,,,,,,
,,,,,,,,,,,,,,,782,2022-01-20_22h49.39.451,multiplicationStroop,2021.2.3,Win32,60.0060006,,,,,right,1,0.6347,0,10,10,1,1,3,4,3 | 4,1,1.4111,1.9756,congruent,right,,,,,,stimulusFile/magnitude.xlsx,,,,,,,,,,,,,,,,,,,,,,,,,,,,,,,
,,,,,,,,,,,,,,,782,2022-01-20_22h49.39.451,multiplicationStroop,2021.2.3,Win32,60.0060006,,,,,right,1,0.6167,0,11,11,10,1,6,8,6 | 8,2,1.4111,1.9756,congruent,right,,,,,,stimulusFile/magnitude.xlsx,,,,,,,,,,,,,,,,,,,,,,,,,,,,,,,
,,,,,,,,,,,,,,,782,2022-01-20_22h49.39.451,multiplicationStroop,2021.2.3,Win32,60.0060006,,,,,left,1,0.6986,0,12,12,28,1,2,1,2 | 1,1,1.4111,1.9756,incongruent,left,,,,,,stimulusFile/magnitude.xlsx,,,,,,,,,,,,,,,,,,,,,,,,,,,,,,,
,,,,,,,,,,,,,,,782,2022-01-20_22h49.39.451,multiplicationStroop,2021.2.3,Win32,60.0060006,,,,,right,1,0.6751,0,13,13,11,1,7,9,7 | 9,2,1.4111,1.9756,congruent,right,,,,,,stimulusFile/magnitude.xlsx,,,,,,,,,,,,,,,,,,,,,,,,,,,,,,,
,,,,,,,,,,,,,,,782,2022-01-20_22h49.39.451,multiplicationStroop,2021.2.3,Win32,60.0060006,,,,,left,1,0.6856,0,14,14,14,1,8,6,8 | 6,2,1.9756,1.4111,congruent,left,,,,,,stimulusFile/magnitude.xlsx,,,,,,,,,,,,,,,,,,,,,,,,,,,,,,,
,,,,,,,,,,,,,,,782,2022-01-20_22h49.39.451,multiplicationStroop,2021.2.3,Win32,60.0060006,,,,,left,1,0.6569,0,15,15,7,1,9,8,9 | 8,1,1.9756,1.4111,congruent,left,,,,,,stimulusFile/magnitude.xlsx,,,,,,,,,,,,,,,,,,,,,,,,,,,,,,,
,,,,,,,,,,,,,,,782,2022-01-20_22h49.39.451,multiplicationStroop,2021.2.3,Win32,60.0060006,,,,,left,1,0.6359,0,16,16,44,1,6,1,6 | 1,5,1.4111,1.9756,incongruent,left,,,,,,stimulusFile/magnitude.xlsx,,,,,,,,,,,,,,,,,,,,,,,,,,,,,,,
,,,,,,,,,,,,,,,782,2022-01-20_22h49.39.451,multiplicationStroop,2021.2.3,Win32,60.0060006,,,,,right,1,0.4405,0,17,17,17,1,2,7,2 | 7,5,1.4111,1.9756,congruent,right,,,,,,stimulusFile/magnitude.xlsx,,,,,,,,,,,,,,,,,,,,,,,,,,,,,,,
,,,,,,,,,,,,,,,782,2022-01-20_22h49.39.451,multiplicationStroop,2021.2.3,Win32,60.0060006,,,,,right,1,0.6454,0,18,18,56,1,1,3,1 | 3,2,1.6933,1.6933,neutral,right,,,,,,stimulusFile/magnitude.xlsx,,,,,,,,,,,,,,,,,,,,,,,,,,,,,,,
,,,,,,,,,,,,,,,782,2022-01-20_22h49.39.451,multiplicationStroop,2021.2.3,Win32,60.0060006,,,,,left,1,0.5032,0,19,19,71,1,9,4,9 | 4,5,1.6933,1.6933,neutral,left,,,,,,stimulusFile/magnitude.xlsx,,,,,,,,,,,,,,,,,,,,,,,,,,,,,,,
,,,,,,,,,,,,,,,782,2022-01-20_22h49.39.451,multiplicationStroop,2021.2.3,Win32,60.0060006,,,,,right,1,0.5,0,20,20,33,1,2,4,2 | 4,2,1.9756,1.4111,incongruent,right,,,,,,stimulusFile/magnitude.xlsx,,,,,,,,,,,,,,,,,,,,,,,,,,,,,,,
,,,,,,,,,,,,,,,782,2022-01-20_22h49.39.451,multiplicationStroop,2021.2.3,Win32,60.0060006,,,,,left,0,0.7174,0,21,21,0,1,1,2,1 | 2,1,1.4111,1.9756,congruent,right,,,,,,stimulusFile/magnitude.xlsx,,,,,,,,,,,,,,,,,,,,,,,,,,,,,,,
,,,,,,,,,,,,,,,782,2022-01-20_22h49.39.451,multiplicationStroop,2021.2.3,Win32,60.0060006,,,,,left,1,0.7169,0,22,22,4,1,2,1,2 | 1,1,1.9756,1.4111,congruent,left,,,,,,stimulusFile/magnitude.xlsx,,,,,,,,,,,,,,,,,,,,,,,,,,,,,,,
,,,,,,,,,,,,,,,782,2022-01-20_22h49.39.451,multiplicationStroop,2021.2.3,Win32,60.0060006,,,,,right,1,0.6825,0,23,23,27,1,8,9,8 | 9,1,1.9756,1.4111,incongruent,right,,,,,,stimulusFile/magnitude.xlsx,,,,,,,,,,,,,,,,,,,,,,,,,,,,,,,
,,,,,,,,,,,,,,,782,2022-01-20_22h49.39.451,multiplicationStroop,2021.2.3,Win32,60.0060006,,,,,right,1,0.6773,0,24,24,34,1,6,8,6 | 8,2,1.9756,1.4111,incongruent,right,,,,,,stimulusFile/magnitude.xlsx,,,,,,,,,,,,,,,,,,,,,,,,,,,,,,,
,,,,,,,,,,,,,,,782,2022-01-20_22h49.39.451,multiplicationStroop,2021.2.3,Win32,60.0060006,,,,,left,1,0.5413,0,25,25,22,1,8,3,8 | 3,5,1.9756,1.4111,congruent,left,,,,,,stimulusFile/magnitude.xlsx,,,,,,,,,,,,,,,,,,,,,,,,,,,,,,,
,,,,,,,,,,,,,,,782,2022-01-20_22h49.39.451,multiplicationStroop,2021.2.3,Win32,60.0060006,,,,,left,1,0.6181,0,26,26,63,1,9,7,9 | 7,2,1.6933,1.6933,neutral,left,,,,,,stimulusFile/magnitude.xlsx,,,,,,,,,,,,,,,,,,,,,,,,,,,,,,,
,,,,,,,,,,,,,,,782,2022-01-20_22h49.39.451,multiplicationStroop,2021.2.3,Win32,60.0060006,,,,,right,1,0.7364,0,27,27,48,1,1,2,1 | 2,1,1.6933,1.6933,neutral,right,,,,,,stimulusFile/magnitude.xlsx,,,,,,,,,,,,,,,,,,,,,,,,,,,,,,,
,,,,,,,,,,,,,,,782,2022-01-20_22h49.39.451,multiplicationStroop,2021.2.3,Win32,60.0060006,,,,,right,1,1.0202,0,28,28,66,1,3,8,3 | 8,5,1.6933,1.6933,neutral,right,,,,,,stimulusFile/magnitude.xlsx,,,,,,,,,,,,,,,,,,,,,,,,,,,,,,,
,,,,,,,,,,,,,,,782,2022-01-20_22h49.39.451,multiplicationStroop,2021.2.3,Win32,60.0060006,,,,,left,1,0.4779,0,29,29,6,1,7,6,7 | 6,1,1.9756,1.4111,congruent,left,,,,,,stimulusFile/magnitude.xlsx,,,,,,,,,,,,,,,,,,,,,,,,,,,,,,,
,,,,,,,,,,,,,,,782,2022-01-20_22h49.39.451,multiplicationStroop,2021.2.3,Win32,60.0060006,,,,,left,1,0.5748,0,30,30,47,1,9,4,9 | 4,5,1.4111,1.9756,incongruent,left,,,,,,stimulusFile/magnitude.xlsx,,,,,,,,,,,,,,,,,,,,,,,,,,,,,,,
,,,,,,,,,,,,,,,782,2022-01-20_22h49.39.451,multiplicationStroop,2021.2.3,Win32,60.0060006,,,,,right,1,0.4686,0,31,31,18,1,3,8,3 | 8,5,1.4111,1.9756,congruent,right,,,,,,stimulusFile/magnitude.xlsx,,,,,,,,,,,,,,,,,,,,,,,,,,,,,,,
,,,,,,,,,,,,,,,782,2022-01-20_22h49.39.451,multiplicationStroop,2021.2.3,Win32,60.0060006,,,,,left,1,0.5836,0,32,32,46,1,8,3,8 | 3,5,1.4111,1.9756,incongruent,left,,,,,,stimulusFile/magnitude.xlsx,,,,,,,,,,,,,,,,,,,,,,,,,,,,,,,
,,,,,,,,,,,,,,,782,2022-01-20_22h49.39.451,multiplicationStroop,2021.2.3,Win32,60.0060006,,,,,left,1,0.566,0,33,33,68,1,6,1,6 | 1,5,1.6933,1.6933,neutral,left,,,,,,stimulusFile/magnitude.xlsx,,,,,,,,,,,,,,,,,,,,,,,,,,,,,,,
,,,,,,,,,,,,,,,782,2022-01-20_22h49.39.451,multiplicationStroop,2021.2.3,Win32,60.0060006,,,,,right,1,0.5706,0,34,34,25,1,3,4,3 | 4,1,1.9756,1.4111,incongruent,right,,,,,,stimulusFile/magnitude.xlsx,,,,,,,,,,,,,,,,,,,,,,,,,,,,,,,
,,,,,,,,,,,,,,,782,2022-01-20_22h49.39.451,multiplicationStroop,2021.2.3,Win32,60.0060006,,,,,right,1,0.5759,0,35,35,32,1,1,3,1 | 3,2,1.9756,1.4111,incongruent,right,,,,,,stimulusFile/magnitude.xlsx,,,,,,,,,,,,,,,,,,,,,,,,,,,,,,,
,,,,,,,,,,,,,,,782,2022-01-20_22h49.39.451,multiplicationStroop,2021.2.3,Win32,60.0060006,,,,,right,1,0.5687,0,36,36,58,1,6,8,6 | 8,2,1.6933,1.6933,neutral,right,,,,,,stimulusFile/magnitude.xlsx,,,,,,,,,,,,,,,,,,,,,,,,,,,,,,,
,,,,,,,,,,,,,,,782,2022-01-20_22h49.39.451,multiplicationStroop,2021.2.3,Win32,60.0060006,,,,,left,1,0.4829,0,37,37,23,1,9,4,9 | 4,5,1.9756,1.4111,congruent,left,,,,,,stimulusFile/magnitude.xlsx,,,,,,,,,,,,,,,,,,,,,,,,,,,,,,,
,,,,,,,,,,,,,,,782,2022-01-20_22h49.39.451,multiplicationStroop,2021.2.3,Win32,60.0060006,,,,,right,0,0.6661,0,38,38,38,1,8,6,8 | 6,2,1.4111,1.9756,incongruent,left,,,,,,stimulusFile/magnitude.xlsx,,,,,,,,,,,,,,,,,,,,,,,,,,,,,,,
,,,,,,,,,,,,,,,782,2022-01-20_22h49.39.451,multiplicationStroop,2021.2.3,Win32,60.0060006,,,,,left,1,1.258,0,39,39,52,1,2,1,2 | 1,1,1.6933,1.6933,neutral,left,,,,,,stimulusFile/magnitude.xlsx,,,,,,,,,,,,,,,,,,,,,,,,,,,,,,,
,,,,,,,,,,,,,,,782,2022-01-20_22h49.39.451,multiplicationStroop,2021.2.3,Win32,60.0060006,,,,,left,1,0.4667,0,40,40,12,1,3,1,3 | 1,2,1.9756,1.4111,congruent,left,,,,,,stimulusFile/magnitude.xlsx,,,,,,,,,,,,,,,,,,,,,,,,,,,,,,,
,,,,,,,,,,,,,,,782,2022-01-20_22h49.39.451,multiplicationStroop,2021.2.3,Win32,60.0060006,,,,,right,1,0.5162,0,41,41,65,1,2,7,2 | 7,5,1.6933,1.6933,neutral,right,,,,,,stimulusFile/magnitude.xlsx,,,,,,,,,,,,,,,,,,,,,,,,,,,,,,,
,,,,,,,,,,,,,,,782,2022-01-20_22h49.39.451,multiplicationStroop,2021.2.3,Win32,60.0060006,,,,,right,1,0.6835,0,42,42,50,1,6,7,6 | 7,1,1.6933,1.6933,neutral,right,,,,,,stimulusFile/magnitude.xlsx,,,,,,,,,,,,,,,,,,,,,,,,,,,,,,,
,,,,,,,,,,,,,,,782,2022-01-20_22h49.39.451,multiplicationStroop,2021.2.3,Win32,60.0060006,,,,,left,1,0.8991,0,43,43,53,1,4,3,4 | 3,1,1.6933,1.6933,neutral,left,,,,,,stimulusFile/magnitude.xlsx,,,,,,,,,,,,,,,,,,,,,,,,,,,,,,,
,,,,,,,,,,,,,,,782,2022-01-20_22h49.39.451,multiplicationStroop,2021.2.3,Win32,60.0060006,,,,,right,1,0.9797,0,44,44,49,1,3,4,3 | 4,1,1.6933,1.6933,neutral,right,,,,,,stimulusFile/magnitude.xlsx,,,,,,,,,,,,,,,,,,,,,,,,,,,,,,,
,,,,,,,,,,,,,,,782,2022-01-20_22h49.39.451,multiplicationStroop,2021.2.3,Win32,60.0060006,,,,,right,1,0.5504,0,45,45,59,1,7,9,7 | 9,2,1.6933,1.6933,neutral,right,,,,,,stimulusFile/magnitude.xlsx,,,,,,,,,,,,,,,,,,,,,,,,,,,,,,,
,,,,,,,,,,,,,,,782,2022-01-20_22h49.39.451,multiplicationStroop,2021.2.3,Win32,60.0060006,,,,,right,1,0.6211,0,46,46,24,1,1,2,1 | 2,1,1.9756,1.4111,incongruent,right,,,,,,stimulusFile/magnitude.xlsx,,,,,,,,,,,,,,,,,,,,,,,,,,,,,,,
,,,,,,,,,,,,,,,782,2022-01-20_22h49.39.451,multiplicationStroop,2021.2.3,Win32,60.0060006,,,,,right,0,0.5037,0,47,47,30,1,7,6,7 | 6,1,1.4111,1.9756,incongruent,left,,,,,,stimulusFile/magnitude.xlsx,,,,,,,,,,,,,,,,,,,,,,,,,,,,,,,
,,,,,,,,,,,,,,,782,2022-01-20_22h49.39.451,multiplicationStroop,2021.2.3,Win32,60.0060006,,,,,left,1,0.7684,0,48,48,55,1,9,8,9 | 8,1,1.6933,1.6933,neutral,left,,,,,,stimulusFile/magnitude.xlsx,,,,,,,,,,,,,,,,,,,,,,,,,,,,,,,
,,,,,,,,,,,,,,,782,2022-01-20_22h49.39.451,multiplicationStroop,2021.2.3,Win32,60.0060006,,,,,right,1,0.5186,0,49,49,9,1,2,4,2 | 4,2,1.4111,1.9756,congruent,right,,,,,,stimulusFile/magnitude.xlsx,,,,,,,,,,,,,,,,,,,,,,,,,,,,,,,
,,,,,,,,,,,,,,,782,2022-01-20_22h49.39.451,multiplicationStroop,2021.2.3,Win32,60.0060006,,,,,left,1,0.8668,0,50,50,5,1,4,3,4 | 3,1,1.9756,1.4111,congruent,left,,,,,,stimulusFile/magnitude.xlsx,,,,,,,,,,,,,,,,,,,,,,,,,,,,,,,
,,,,,,,,,,,,,,,782,2022-01-20_22h49.39.451,multiplicationStroop,2021.2.3,Win32,60.0060006,,,,,left,1,0.6119,0,51,51,69,1,7,2,7 | 2,5,1.6933,1.6933,neutral,left,,,,,,stimulusFile/magnitude.xlsx,,,,,,,,,,,,,,,,,,,,,,,,,,,,,,,
,,,,,,,,,,,,,,,782,2022-01-20_22h49.39.451,multiplicationStroop,2021.2.3,Win32,60.0060006,,,,,right,1,0.5247,0,52,52,40,1,1,6,1 | 6,5,1.9756,1.4111,incongruent,right,,,,,,stimulusFile/magnitude.xlsx,,,,,,,,,,,,,,,,,,,,,,,,,,,,,,,
,,,,,,,,,,,,,,,782,2022-01-20_22h49.39.451,multiplicationStroop,2021.2.3,Win32,60.0060006,,,,,left,1,0.7675,0,53,53,36,1,3,1,3 | 1,2,1.4111,1.9756,incongruent,left,,,,,,stimulusFile/magnitude.xlsx,,,,,,,,,,,,,,,,,,,,,,,,,,,,,,,
,,,,,,,,,,,,,,,782,2022-01-20_22h49.39.451,multiplicationStroop,2021.2.3,Win32,60.0060006,,,,,right,0,0.5511,0,54,54,29,1,4,3,4 | 3,1,1.4111,1.9756,incongruent,left,,,,,,stimulusFile/magnitude.xlsx,,,,,,,,,,,,,,,,,,,,,,,,,,,,,,,
,,,,,,,,,,,,,,,782,2022-01-20_22h49.39.451,multiplicationStroop,2021.2.3,Win32,60.0060006,,,,,left,1,0.6721,0,55,55,61,1,4,2,4 | 2,2,1.6933,1.6933,neutral,left,,,,,,stimulusFile/magnitude.xlsx,,,,,,,,,,,,,,,,,,,,,,,,,,,,,,,
,,,,,,,,,,,,,,,782,2022-01-20_22h49.39.451,multiplicationStroop,2021.2.3,Win32,60.0060006,,,,,left,1,0.5279,0,56,56,60,1,3,1,3 | 1,2,1.6933,1.6933,neutral,left,,,,,,stimulusFile/magnitude.xlsx,,,,,,,,,,,,,,,,,,,,,,,,,,,,,,,
,,,,,,,,,,,,,,,782,2022-01-20_22h49.39.451,multiplicationStroop,2021.2.3,Win32,60.0060006,,,,,right,1,0.6013,0,57,57,43,1,4,9,4 | 9,5,1.9756,1.4111,incongruent,right,,,,,,stimulusFile/magnitude.xlsx,,,,,,,,,,,,,,,,,,,,,,,,,,,,,,,
,,,,,,,,,,,,,,,782,2022-01-20_22h49.39.451,multiplicationStroop,2021.2.3,Win32,60.0060006,,,,,right,1,0.6,0,58,58,51,1,8,9,8 | 9,1,1.6933,1.6933,neutral,right,,,,,,stimulusFile/magnitude.xlsx,,,,,,,,,,,,,,,,,,,,,,,,,,,,,,,
,,,,,,,,,,,,,,,782,2022-01-20_22h49.39.451,multiplicationStroop,2021.2.3,Win32,60.0060006,,,,,left,1,0.7113,0,59,59,54,1,7,6,7 | 6,1,1.6933,1.6933,neutral,left,,,,,,stimulusFile/magnitude.xlsx,,,,,,,,,,,,,,,,,,,,,,,,,,,,,,,
,,,,,,,,,,,,,,,782,2022-01-20_22h49.39.451,multiplicationStroop,2021.2.3,Win32,60.0060006,,,,,left,1,0.6825,0,60,60,31,1,9,8,9 | 8,1,1.4111,1.9756,incongruent,left,,,,,,stimulusFile/magnitude.xlsx,,,,,,,,,,,,,,,,,,,,,,,,,,,,,,,
,,,,,,,,,,,,,,,782,2022-01-20_22h49.39.451,multiplicationStroop,2021.2.3,Win32,60.0060006,,,,,right,1,0.8749,0,61,61,8,1,1,3,1 | 3,2,1.4111,1.9756,congruent,right,,,,,,stimulusFile/magnitude.xlsx,,,,,,,,,,,,,,,,,,,,,,,,,,,,,,,
,,,,,,,,,,,,,,,782,2022-01-20_22h49.39.451,multiplicationStroop,2021.2.3,Win32,60.0060006,,,,,right,1,0.5764,0,62,62,41,1,2,7,2 | 7,5,1.9756,1.4111,incongruent,right,,,,,,stimulusFile/magnitude.xlsx,,,,,,,,,,,,,,,,,,,,,,,,,,,,,,,
,,,,,,,,,,,,,,,782,2022-01-20_22h49.39.451,multiplicationStroop,2021.2.3,Win32,60.0060006,,,,,left,1,0.8324,0,63,63,62,1,8,6,8 | 6,2,1.6933,1.6933,neutral,left,,,,,,stimulusFile/magnitude.xlsx,,,,,,,,,,,,,,,,,,,,,,,,,,,,,,,
,,,,,,,,,,,,,,,782,2022-01-20_22h49.39.451,multiplicationStroop,2021.2.3,Win32,60.0060006,,,,,right,1,0.5324,0,64,64,35,1,7,9,7 | 9,2,1.9756,1.4111,incongruent,right,,,,,,stimulusFile/magnitude.xlsx,,,,,,,,,,,,,,,,,,,,,,,,,,,,,,,
,,,,,,,,,,,,,,,782,2022-01-20_22h49.39.451,multiplicationStroop,2021.2.3,Win32,60.0060006,,,,,left,1,0.5862,0,65,65,37,1,4,2,4 | 2,2,1.4111,1.9756,incongruent,left,,,,,,stimulusFile/magnitude.xlsx,,,,,,,,,,,,,,,,,,,,,,,,,,,,,,,
,,,,,,,,,,,,,,,782,2022-01-20_22h49.39.451,multiplicationStroop,2021.2.3,Win32,60.0060006,,,,,right,1,0.573,0,66,66,2,1,6,7,6 | 7,1,1.4111,1.9756,congruent,right,,,,,,stimulusFile/magnitude.xlsx,,,,,,,,,,,,,,,,,,,,,,,,,,,,,,,
,,,,,,,,,,,,,,,782,2022-01-20_22h49.39.451,multiplicationStroop,2021.2.3,Win32,60.0060006,,,,,right,1,0.5361,0,67,67,57,1,2,4,2 | 4,2,1.6933,1.6933,neutral,right,,,,,,stimulusFile/magnitude.xlsx,,,,,,,,,,,,,,,,,,,,,,,,,,,,,,,
,,,,,,,,,,,,,,,782,2022-01-20_22h49.39.451,multiplicationStroop,2021.2.3,Win32,60.0060006,,,,,left,1,0.6124,0,68,68,70,1,8,3,8 | 3,5,1.6933,1.6933,neutral,left,,,,,,stimulusFile/magnitude.xlsx,,,,,,,,,,,,,,,,,,,,,,,,,,,,,,,
,,,,,,,,,,,,,,,782,2022-01-20_22h49.39.451,multiplicationStroop,2021.2.3,Win32,60.0060006,,,,,left,1,0.7177,0,69,69,39,1,9,7,9 | 7,2,1.4111,1.9756,incongruent,left,,,,,,stimulusFile/magnitude.xlsx,,,,,,,,,,,,,,,,,,,,,,,,,,,,,,,
,,,,,,,,,,,,,,,782,2022-01-20_22h49.39.451,multiplicationStroop,2021.2.3,Win32,60.0060006,,,,,right,1,0.5327,0,70,70,67,1,4,9,4 | 9,5,1.6933,1.6933,neutral,right,,,,,,stimulusFile/magnitude.xlsx,,,,,,,,,,,,,,,,,,,,,,,,,,,,,,,
,,,,,,,,,,,,,,,782,2022-01-20_22h49.39.451,multiplicationStroop,2021.2.3,Win32,60.0060006,,,,,right,1,0.4939,0,71,71,16,1,1,6,1 | 6,5,1.4111,1.9756,congruent,right,,,,,,stimulusFile/magnitude.xlsx,,,,,,,,,,,,,,,,,,,,,,,,,,,,,,,
,,,,,,,,,,,,,,,782,2022-01-20_22h49.39.451,multiplicationStroop,2021.2.3,Win32,60.0060006,,,,,,,,,,,,,,,,,,,,,0,1,1,0,1,stimulusFile/magnitude.xlsx,NUMERICALLY larger (larger coefficient).,images/numericallyLarger.png,,,,,,,,,,,,,,,,,,,,,,,,,,,,,
,,,,,,,,,,,,,,,782,2022-01-20_22h49.39.451,multiplicationStroop,2021.2.3,Win32,60.0060006,,,,,,,,,,,,,,,,,,,,,,,,,,,,,space,11.9937,space,2.7508,35,2.9284,1,0,0,0,26,1,7,×,5,7 × 5,incongruent,largerFirst,1,2,35,,,,,,,,
,,,,,,,,,,,,,,,782,2022-01-20_22h49.39.451,multiplicationStroop,2021.2.3,Win32,60.0060006,,,,,,,,,,,,,,,,,,,,,,,,,,,,,,,,,9,1.3816,1,0,1,1,29,1,3,×,3,3 × 3,neutral,tie,2,1,9,,,,,,,,
,,,,,,,,,,,,,,,782,2022-01-20_22h49.39.451,multiplicationStroop,2021.2.3,Win32,60.0060006,,,,,,,,,,,,,,,,,,,,,,,,,,,,,,,,,25,1.4484,1,0,2,2,31,1,5,×,5,5 × 5,neutral,tie,2,1,25,,,,,,,,
,,,,,,,,,,,,,,,782,2022-01-20_22h49.39.451,multiplicationStroop,2021.2.3,Win32,60.0060006,,,,,,,,,,,,,,,,,,,,,,,,,,,,,,,,,36,1.749,1,0,3,3,1,1,4,×,9,4 × 9,incongruent,smallerFirst,2,1,36,,,,,,,,
,,,,,,,,,,,,,,,782,2022-01-20_22h49.39.451,multiplicationStroop,2021.2.3,Win32,60.0060006,,,,,,,,,,,,,,,,,,,,,,,,,,,,,,,,,54,1.3821,1,0,4,4,20,1,9,×,6,9 × 6,incongruent,largerFirst,1,2,54,,,,,,,,
,,,,,,,,,,,,,,,782,2022-01-20_22h49.39.451,multiplicationStroop,2021.2.3,Win32,60.0060006,,,,,,,,,,,,,,,,,,,,,,,,,,,,,,,,,15,1.3152,1,0,5,5,24,1,5,×,3,5 × 3,incongruent,largerFirst,1,2,15,,,,,,,,
,,,,,,,,,,,,,,,782,2022-01-20_22h49.39.451,multiplicationStroop,2021.2.3,Win32,60.0060006,,,,,,,,,,,,,,,,,,,,,,,,,,,,,,,,,48,2.3982,1,0,6,6,15,1,8,×,6,8 × 6,incongruent,largerFirst,1,2,48,,,,,,,,
,,,,,,,,,,,,,,,782,2022-01-20_22h49.39.451,multiplicationStroop,2021.2.3,Win32,60.0060006,,,,,,,,,,,,,,,,,,,,,,,,,,,,,,,,,12,1.1486,1,0,7,7,5,1,2,×,6,2 × 6,incongruent,smallerFirst,2,1,12,,,,,,,,
,,,,,,,,,,,,,,,782,2022-01-20_22h49.39.451,multiplicationStroop,2021.2.3,Win32,60.0060006,,,,,,,,,,,,,,,,,,,,,,,,,,,,,,,,,12,1.132,1,0,8,8,19,1,4,×,3,4 × 3,incongruent,largerFirst,1,2,12,,,,,,,,
,,,,,,,,,,,,,,,782,2022-01-20_22h49.39.451,multiplicationStroop,2021.2.3,Win32,60.0060006,,,,,,,,,,,,,,,,,,,,,,,,,,,,,,,,,72,2.1649,1,0,9,9,14,1,9,×,8,9 × 8,incongruent,largerFirst,1,2,72,,,,,,,,
,,,,,,,,,,,,,,,782,2022-01-20_22h49.39.451,multiplicationStroop,2021.2.3,Win32,60.0060006,,,,,,,,,,,,,,,,,,,,,,,,,,,,,,,,,8,1.3818,1,0,10,10,10,1,2,×,4,2 × 4,incongruent,smallerFirst,2,1,8,,,,,,,,
,,,,,,,,,,,,,,,782,2022-01-20_22h49.39.451,multiplicationStroop,2021.2.3,Win32,60.0060006,,,,,,,,,,,,,,,,,,,,,,,,,,,,,,,,,18,1.3481,1,0,11,11,22,1,6,×,3,6 × 3,incongruent,largerFirst,1,2,18,,,,,,,,
,,,,,,,,,,,,,,,782,2022-01-20_22h49.39.451,multiplicationStroop,2021.2.3,Win32,60.0060006,,,,,,,,,,,,,,,,,,,,,,,,,,,,,,,,,20,1.332,1,0,12,12,13,1,4,×,5,4 × 5,incongruent,smallerFirst,2,1,20,,,,,,,,
,,,,,,,,,,,,,,,782,2022-01-20_22h49.39.451,multiplicationStroop,2021.2.3,Win32,60.0060006,,,,,,,,,,,,,,,,,,,,,,,,,,,,,,,,,27,1.6161,1,0,13,13,4,1,3,×,9,3 × 9,incongruent,smallerFirst,2,1,27,,,,,,,,
,,,,,,,,,,,,,,,782,2022-01-20_22h49.39.451,multiplicationStroop,2021.2.3,Win32,60.0060006,,,,,,,,,,,,,,,,,,,,,,,,,,,,,,,,,24,1.2982,1,0,14,14,6,1,4,×,6,4 × 6,incongruent,smallerFirst,2,1,24,,,,,,,,
,,,,,,,,,,,,,,,782,2022-01-20_22h49.39.451,multiplicationStroop,2021.2.3,Win32,60.0060006,,,,,,,,,,,,,,,,,,,,,,,,,,,,,,,,,81,1.4316,1,0,15,15,35,1,9,×,9,9 × 9,neutral,tie,2,1,81,,,,,,,,
,,,,,,,,,,,,,,,782,2022-01-20_22h49.39.451,multiplicationStroop,2021.2.3,Win32,60.0060006,,,,,,,,,,,,,,,,,,,,,,,,,,,,,,,,,30,2.0488,1,0,16,16,11,1,5,×,6,5 × 6,incongruent,smallerFirst,2,1,30,,,,,,,,
,,,,,,,,,,,,,,,782,2022-01-20_22h49.39.451,multiplicationStroop,2021.2.3,Win32,60.0060006,,,,,,,,,,,,,,,,,,,,,,,,,,,,,,,,,56,1.6813,1,0,17,17,0,1,7,×,8,7 × 8,incongruent,smallerFirst,2,1,56,,,,,,,,
,,,,,,,,,,,,,,,782,2022-01-20_22h49.39.451,multiplicationStroop,2021.2.3,Win32,60.0060006,,,,,,,,,,,,,,,,,,,,,,,,,,,,,,,,,6,1.6318,1,0,18,18,25,1,3,×,2,3 × 2,incongruent,largerFirst,1,2,6,,,,,,,,
,,,,,,,,,,,,,,,782,2022-01-20_22h49.39.451,multiplicationStroop,2021.2.3,Win32,60.0060006,,,,,,,,,,,,,,,,,,,,,,,,,,,,,,,,,42,2.9317,1,0,19,19,3,1,6,×,7,6 × 7,incongruent,smallerFirst,2,1,42,,,,,,,,
,,,,,,,,,,,,,,,782,2022-01-20_22h49.39.451,multiplicationStroop,2021.2.3,Win32,60.0060006,,,,,,,,,,,,,,,,,,,,,,,,,,,,,,,,,32,1.6886,1,0,20,20,21,1,8,×,4,8 × 4,incongruent,largerFirst,1,2,32,,,,,,,,
,,,,,,,,,,,,,,,782,2022-01-20_22h49.39.451,multiplicationStroop,2021.2.3,Win32,60.0060006,,,,,,,,,,,,,,,,,,,,,,,,,,,,,,,,,18,1.4651,1,0,21,21,16,1,9,×,2,9 × 2,incongruent,largerFirst,1,2,18,,,,,,,,
,,,,,,,,,,,,,,,782,2022-01-20_22h49.39.451,multiplicationStroop,2021.2.3,Win32,60.0060006,,,,,,,,,,,,,,,,,,,,,,,,,,,,,,,,,63,1.8984,1,0,22,22,17,1,9,×,7,9 × 7,incongruent,largerFirst,1,2,63,,,,,,,,
,,,,,,,,,,,,,,,782,2022-01-20_22h49.39.451,multiplicationStroop,2021.2.3,Win32,60.0060006,,,,,,,,,,,,,,,,,,,,,,,,,,,,,,,,,45,1.5314,1,0,23,23,8,1,5,×,9,5 × 9,incongruent,smallerFirst,2,1,45,,,,,,,,
,,,,,,,,,,,,,,,782,2022-01-20_22h49.39.451,multiplicationStroop,2021.2.3,Win32,60.0060006,,,,,,,,,,,,,,,,,,,,,,,,,,,,,,,,,14,1.3488,1,0,24,24,18,1,7,×,2,7 × 2,incongruent,largerFirst,1,2,14,,,,,,,,
,,,,,,,,,,,,,,,782,2022-01-20_22h49.39.451,multiplicationStroop,2021.2.3,Win32,60.0060006,,,,,,,,,,,,,,,,,,,,,,,,,,,,,,,,,16,1.7825,1,0,25,25,30,1,4,×,4,4 × 4,neutral,tie,2,1,16,,,,,,,,
,,,,,,,,,,,,,,,782,2022-01-20_22h49.39.451,multiplicationStroop,2021.2.3,Win32,60.0060006,,,,,,,,,,,,,,,,,,,,,,,,,,,,,,,,,49,1.7152,1,0,26,26,33,1,7,×,7,7 × 7,neutral,tie,2,1,49,,,,,,,,
,,,,,,,,,,,,,,,782,2022-01-20_22h49.39.451,multiplicationStroop,2021.2.3,Win32,60.0060006,,,,,,,,,,,,,,,,,,,,,,,,,,,,,,,,,24,1.3316,1,0,27,27,23,1,8,×,3,8 × 3,incongruent,largerFirst,1,2,24,,,,,,,,
,,,,,,,,,,,,,,,782,2022-01-20_22h49.39.451,multiplicationStroop,2021.2.3,Win32,60.0060006,,,,,,,,,,,,,,,,,,,,,,,,,,,,,,,,,40,1.4992,1,0,28,28,27,1,8,×,5,8 × 5,incongruent,largerFirst,1,2,40,,,,,,,,
,,,,,,,,,,,,,,,782,2022-01-20_22h49.39.451,multiplicationStroop,2021.2.3,Win32,60.0060006,,,,,,,,,,,,,,,,,,,,,,,,,,,,,,,,,4,1.1649,1,0,29,29,28,1,2,×,2,2 × 2,neutral,tie,2,1,4,,,,,,,,
,,,,,,,,,,,,,,,782,2022-01-20_22h49.39.451,multiplicationStroop,2021.2.3,Win32,60.0060006,,,,,,,,,,,,,,,,,,,,,,,,,,,,,,,,,10,1.5318,1,0,30,30,7,1,2,×,5,2 × 5,incongruent,smallerFirst,2,1,10,,,,,,,,
,,,,,,,,,,,,,,,782,2022-01-20_22h49.39.451,multiplicationStroop,2021.2.3,Win32,60.0060006,,,,,,,,,,,,,,,,,,,,,,,,,,,,,,,,,28,1.6991,1,0,31,31,2,1,4,×,7,4 × 7,incongruent,smallerFirst,2,1,28,,,,,,,,
,,,,,,,,,,,,,,,782,2022-01-20_22h49.39.451,multiplicationStroop,2021.2.3,Win32,60.0060006,,,,,,,,,,,,,,,,,,,,,,,,,,,,,,,,,64,1.8646,1,0,32,32,34,1,8,×,8,8 × 8,neutral,tie,2,1,64,,,,,,,,
,,,,,,,,,,,,,,,782,2022-01-20_22h49.39.451,multiplicationStroop,2021.2.3,Win32,60.0060006,,,,,,,,,,,,,,,,,,,,,,,,,,,,,,,,,36,1.5321,1,0,33,33,32,1,6,×,6,6 × 6,neutral,tie,2,1,36,,,,,,,,
,,,,,,,,,,,,,,,782,2022-01-20_22h49.39.451,multiplicationStroop,2021.2.3,Win32,60.0060006,,,,,,,,,,,,,,,,,,,,,,,,,,,,,,,,,21,1.2148,1,0,34,34,12,1,3,×,7,3 × 7,incongruent,smallerFirst,2,1,21,,,,,,,,
,,,,,,,,,,,,,,,782,2022-01-20_22h49.39.451,multiplicationStroop,2021.2.3,Win32,60.0060006,,,,,,,,,,,,,,,,,,,,,,,,,,,,,,,,,16,1.2159,1,0,35,35,9,1,2,×,8,2 × 8,incongruent,smallerFirst,2,1,16,,,,,,,,
,,,,,,,,,,,,,,,782,2022-01-20_22h49.39.451,multiplicationStroop,2021.2.3,Win32,60.0060006,,,,,,,,,,,,,,,,,,,,,,,,,,,,,,,,,,,,,,,,,,,,,,,,,,0,0,0,4,1,stimulusFile/mult_blk5_INcongruent.xlsx,,
,,,,,,,,,,,,,,,782,2022-01-20_22h49.39.451,multiplicationStroop,2021.2.3,Win32,60.0060006,,,,,,,,,,,,,,,,,,,,,,,,,,,,,,,space,3.5351,9,1.2948,1,0,0,0,29,1,3,×,3,3 × 3,incongruent,tie,1,2,9,,,,,,,,
,,,,,,,,,,,,,,,782,2022-01-20_22h49.39.451,multiplicationStroop,2021.2.3,Win32,60.0060006,,,,,,,,,,,,,,,,,,,,,,,,,,,,,,,,,35,1.3812,1,0,1,1,12,1,5,×,7,5 × 7,incongruent,smallerFirst,2,1,35,,,,,,,,
,,,,,,,,,,,,,,,782,2022-01-20_22h49.39.451,multiplicationStroop,2021.2.3,Win32,60.0060006,,,,,,,,,,,,,,,,,,,,,,,,,,,,,,,,,64,1.4987,1,0,2,2,34,1,8,×,8,8 × 8,incongruent,tie,1,2,64,,,,,,,,
,,,,,,,,,,,,,,,782,2022-01-20_22h49.39.451,multiplicationStroop,2021.2.3,Win32,60.0060006,,,,,,,,,,,,,,,,,,,,,,,,,,,,,,,,,32,1.3164,1,0,3,3,7,1,4,×,8,4 × 8,incongruent,smallerFirst,2,1,32,,,,,,,,
,,,,,,,,,,,,,,,782,2022-01-20_22h49.39.451,multiplicationStroop,2021.2.3,Win32,60.0060006,,,,,,,,,,,,,,,,,,,,,,,,,,,,,,,,,12,1.0985,1,0,4,4,19,1,6,×,2,6 × 2,incongruent,largerFirst,1,2,12,,,,,,,,
,,,,,,,,,,,,,,,782,2022-01-20_22h49.39.451,multiplicationStroop,2021.2.3,Win32,60.0060006,,,,,,,,,,,,,,,,,,,,,,,,,,,,,,,,,72,1.5321,1,0,5,5,0,1,8,×,9,8 × 9,incongruent,smallerFirst,2,1,72,,,,,,,,
,,,,,,,,,,,,,,,782,2022-01-20_22h49.39.451,multiplicationStroop,2021.2.3,Win32,60.0060006,,,,,,,,,,,,,,,,,,,,,,,,,,,,,,,,,24,1.3483,1,0,6,6,9,1,3,×,8,3 × 8,incongruent,smallerFirst,2,1,24,,,,,,,,
,,,,,,,,,,,,,,,782,2022-01-20_22h49.39.451,multiplicationStroop,2021.2.3,Win32,60.0060006,,,,,,,,,,,,,,,,,,,,,,,,,,,,,,,,,12,1.2153,1,0,7,7,5,1,3,×,4,3 × 4,incongruent,smallerFirst,2,1,12,,,,,,,,
,,,,,,,,,,,,,,,782,2022-01-20_22h49.39.451,multiplicationStroop,2021.2.3,Win32,60.0060006,,,,,,,,,,,,,,,,,,,,,,,,,,,,,,,,,8,1.3324,1,0,8,8,24,1,4,×,2,4 × 2,incongruent,largerFirst,1,2,8,,,,,,,,
,,,,,,,,,,,,,,,782,2022-01-20_22h49.39.451,multiplicationStroop,2021.2.3,Win32,60.0060006,,,,,,,,,,,,,,,,,,,,,,,,,,,,,,,,,63,1.5817,1,0,9,9,3,1,7,×,9,7 × 9,incongruent,smallerFirst,2,1,63,,,,,,,,
,,,,,,,,,,,,,,,782,2022-01-20_22h49.39.451,multiplicationStroop,2021.2.3,Win32,60.0060006,,,,,,,,,,,,,,,,,,,,,,,,,,,,,,,,,16,1.2981,1,0,10,10,23,1,8,×,2,8 × 2,incongruent,largerFirst,1,2,16,,,,,,,,
,,,,,,,,,,,,,,,782,2022-01-20_22h49.39.451,multiplicationStroop,2021.2.3,Win32,60.0060006,,,,,,,,,,,,,,,,,,,,,,,,,,,,,,,,,49,1.599,1,0,11,11,33,1,7,×,7,7 × 7,incongruent,tie,1,2,49,,,,,,,,
,,,,,,,,,,,,,,,782,2022-01-20_22h49.39.451,multiplicationStroop,2021.2.3,Win32,60.0060006,,,,,,,,,,,,,,,,,,,,,,,,,,,,,,,,,15,1.3323,1,0,12,12,10,1,3,×,5,3 × 5,incongruent,smallerFirst,2,1,15,,,,,,,,
,,,,,,,,,,,,,,,782,2022-01-20_22h49.39.451,multiplicationStroop,2021.2.3,Win32,60.0060006,,,,,,,,,,,,,,,,,,,,,,,,,,,,,,,,,27,1.365,1,0,13,13,18,1,9,×,3,9 × 3,incongruent,largerFirst,1,2,27,,,,,,,,
,,,,,,,,,,,,,,,782,2022-01-20_22h49.39.451,multiplicationStroop,2021.2.3,Win32,60.0060006,,,,,,,,,,,,,,,,,,,,,,,,,,,,,,,,,6,1.382,1,0,14,14,11,1,2,×,3,2 × 3,incongruent,smallerFirst,2,1,6,,,,,,,,
,,,,,,,,,,,,,,,782,2022-01-20_22h49.39.451,multiplicationStroop,2021.2.3,Win32,60.0060006,,,,,,,,,,,,,,,,,,,,,,,,,,,,,,,,,36,1.682,1,0,15,15,15,1,9,×,4,9 × 4,incongruent,largerFirst,1,2,36,,,,,,,,
,,,,,,,,,,,,,,,782,2022-01-20_22h49.39.451,multiplicationStroop,2021.2.3,Win32,60.0060006,,,,,,,,,,,,,,,,,,,,,,,,,,,,,,,,,10,1.2821,1,0,16,16,21,1,5,×,2,5 × 2,incongruent,largerFirst,1,2,10,,,,,,,,
,,,,,,,,,,,,,,,782,2022-01-20_22h49.39.451,multiplicationStroop,2021.2.3,Win32,60.0060006,,,,,,,,,,,,,,,,,,,,,,,,,,,,,,,,,21,1.1649,1,0,17,17,26,1,7,×,3,7 × 3,incongruent,largerFirst,1,2,21,,,,,,,,
,,,,,,,,,,,,,,,782,2022-01-20_22h49.39.451,multiplicationStroop,2021.2.3,Win32,60.0060006,,,,,,,,,,,,,,,,,,,,,,,,,,,,,,,,,42,1.6656,1,0,18,18,17,1,7,×,6,7 × 6,incongruent,largerFirst,1,2,42,,,,,,,,
,,,,,,,,,,,,,,,782,2022-01-20_22h49.39.451,multiplicationStroop,2021.2.3,Win32,60.0060006,,,,,,,,,,,,,,,,,,,,,,,,,,,,,,,,,56,1.382,1,0,19,19,14,1,8,×,7,8 × 7,incongruent,largerFirst,1,2,56,,,,,,,,
,,,,,,,,,,,,,,,782,2022-01-20_22h49.39.451,multiplicationStroop,2021.2.3,Win32,60.0060006,,,,,,,,,,,,,,,,,,,,,,,,,,,,,,,,,45,1.3813,1,0,20,20,22,1,9,×,5,9 × 5,incongruent,largerFirst,1,2,45,,,,,,,,
,,,,,,,,,,,,,,,782,2022-01-20_22h49.39.451,multiplicationStroop,2021.2.3,Win32,60.0060006,,,,,,,,,,,,,,,,,,,,,,,,,,,,,,,,,30,1.3329,1,0,21,21,25,1,6,×,5,6 × 5,incongruent,largerFirst,1,2,30,,,,,,,,
,,,,,,,,,,,,,,,782,2022-01-20_22h49.39.451,multiplicationStroop,2021.2.3,Win32,60.0060006,,,,,,,,,,,,,,,,,,,,,,,,,,,,,,,,,28,1.4815,1,0,22,22,16,1,7,×,4,7 × 4,incongruent,largerFirst,1,2,28,,,,,,,,
,,,,,,,,,,,,,,,782,2022-01-20_22h49.39.451,multiplicationStroop,2021.2.3,Win32,60.0060006,,,,,,,,,,,,,,,,,,,,,,,,,,,,,,,,,20,1.7991,1,0,23,23,27,1,5,×,4,5 × 4,incongruent,largerFirst,1,2,20,,,,,,,,
,,,,,,,,,,,,,,,782,2022-01-20_22h49.39.451,multiplicationStroop,2021.2.3,Win32,60.0060006,,,,,,,,,,,,,,,,,,,,,,,,,,,,,,,,,24,1.2154,1,0,24,24,20,1,6,×,4,6 × 4,incongruent,largerFirst,1,2,24,,,,,,,,
,,,,,,,,,,,,,,,782,2022-01-20_22h49.39.451,multiplicationStroop,2021.2.3,Win32,60.0060006,,,,,,,,,,,,,,,,,,,,,,,,,,,,,,,,,4,1.2152,1,0,25,25,28,1,2,×,2,2 × 2,incongruent,tie,1,2,4,,,,,,,,
,,,,,,,,,,,,,,,782,2022-01-20_22h49.39.451,multiplicationStroop,2021.2.3,Win32,60.0060006,,,,,,,,,,,,,,,,,,,,,,,,,,,,,,,,,36,1.4648,1,0,26,26,32,1,6,×,6,6 × 6,incongruent,tie,1,2,36,,,,,,,,
,,,,,,,,,,,,,,,782,2022-01-20_22h49.39.451,multiplicationStroop,2021.2.3,Win32,60.0060006,,,,,,,,,,,,,,,,,,,,,,,,,,,,,,,,,81,1.4325,1,0,27,27,35,1,9,×,9,9 × 9,incongruent,tie,1,2,81,,,,,,,,
,,,,,,,,,,,,,,,782,2022-01-20_22h49.39.451,multiplicationStroop,2021.2.3,Win32,60.0060006,,,,,,,,,,,,,,,,,,,,,,,,,,,,,,,,,14,1.3483,1,0,28,28,4,1,2,×,7,2 × 7,incongruent,smallerFirst,2,1,14,,,,,,,,
,,,,,,,,,,,,,,,782,2022-01-20_22h49.39.451,multiplicationStroop,2021.2.3,Win32,60.0060006,,,,,,,,,,,,,,,,,,,,,,,,,,,,,,,,,16,1.3989,1,0,29,29,30,1,4,×,4,4 × 4,incongruent,tie,1,2,16,,,,,,,,
,,,,,,,,,,,,,,,782,2022-01-20_22h49.39.451,multiplicationStroop,2021.2.3,Win32,60.0060006,,,,,,,,,,,,,,,,,,,,,,,,,,,,,,,,,18,1.5148,1,0,30,30,8,1,3,×,6,3 × 6,incongruent,smallerFirst,2,1,18,,,,,,,,
,,,,,,,,,,,,,,,782,2022-01-20_22h49.39.451,multiplicationStroop,2021.2.3,Win32,60.0060006,,,,,,,,,,,,,,,,,,,,,,,,,,,,,,,,,25,1.5657,1,0,31,31,31,1,5,×,5,5 × 5,incongruent,tie,1,2,25,,,,,,,,
,,,,,,,,,,,,,,,782,2022-01-20_22h49.39.451,multiplicationStroop,2021.2.3,Win32,60.0060006,,,,,,,,,,,,,,,,,,,,,,,,,,,,,,,,,18,1.4986,1,0,32,32,2,1,2,×,9,2 × 9,incongruent,smallerFirst,2,1,18,,,,,,,,
,,,,,,,,,,,,,,,782,2022-01-20_22h49.39.451,multiplicationStroop,2021.2.3,Win32,60.0060006,,,,,,,,,,,,,,,,,,,,,,,,,,,,,,,,,40,1.482,1,0,33,33,13,1,5,×,8,5 × 8,incongruent,smallerFirst,2,1,40,,,,,,,,
,,,,,,,,,,,,,,,782,2022-01-20_22h49.39.451,multiplicationStroop,2021.2.3,Win32,60.0060006,,,,,,,,,,,,,,,,,,,,,,,,,,,,,,,,,48,1.532,1,0,34,34,1,1,6,×,8,6 × 8,incongruent,smallerFirst,2,1,48,,,,,,,,
,,,,,,,,,,,,,,,782,2022-01-20_22h49.39.451,multiplicationStroop,2021.2.3,Win32,60.0060006,,,,,,,,,,,,,,,,,,,,,,,,,,,,,,,,,54,1.9817,1,0,35,35,6,1,6,×,9,6 × 9,incongruent,smallerFirst,2,1,54,,,,,,,,
,,,,,,,,,,,,,,,782,2022-01-20_22h49.39.451,multiplicationStroop,2021.2.3,Win32,60.0060006,,,,,,,,,,,,,,,,,,,,,,,,,,,,,,,,,,,,,,,,,,,,,,,,,,0,1,1,5,1,stimulusFile/mult_blk6_INcongruent.xlsx,,
,,,,,,,,,,,,,,,782,2022-01-20_22h49.39.451,multiplicationStroop,2021.2.3,Win32,60.0060006,,,,,,,,,,,,,,,,,,,,,,,,,,,,,,,space,14.4068,48,1.8637,1,0,0,0,15,1,8,×,6,8 × 6,neutral,largerFirst,1.5,1.5,48,,,,,,,,
,,,,,,,,,,,,,,,782,2022-01-20_22h49.39.451,multiplicationStroop,2021.2.3,Win32,60.0060006,,,,,,,,,,,,,,,,,,,,,,,,,,,,,,,,,28,1.4652,1,0,1,1,17,1,7,×,4,7 × 4,neutral,largerFirst,1.5,1.5,28,,,,,,,,
,,,,,,,,,,,,,,,782,2022-01-20_22h49.39.451,multiplicationStroop,2021.2.3,Win32,60.0060006,,,,,,,,,,,,,,,,,,,,,,,,,,,,,,,,,72,1.5982,1,0,2,2,11,1,8,×,9,8 × 9,neutral,smallerFirst,1.5,1.5,72,,,,,,,,
,,,,,,,,,,,,,,,782,2022-01-20_22h49.39.451,multiplicationStroop,2021.2.3,Win32,60.0060006,,,,,,,,,,,,,,,,,,,,,,,,,,,,,,,,,18,1.3816,1,0,3,3,18,1,9,×,2,9 × 2,neutral,largerFirst,1.5,1.5,18,,,,,,,,
,,,,,,,,,,,,,,,782,2022-01-20_22h49.39.451,multiplicationStroop,2021.2.3,Win32,60.0060006,,,,,,,,,,,,,,,,,,,,,,,,,,,,,,,,,16,1.3823,1,0,4,4,30,1,4,×,4,4 × 4,neutral,tie,1.5,1.5,16,,,,,,,,
,,,,,,,,,,,,,,,782,2022-01-20_22h49.39.451,multiplicationStroop,2021.2.3,Win32,60.0060006,,,,,,,,,,,,,,,,,,,,,,,,,,,,,,,,,12,1.0991,1,0,5,5,25,1,6,×,2,6 × 2,neutral,largerFirst,1.5,1.5,12,,,,,,,,
,,,,,,,,,,,,,,,782,2022-01-20_22h49.39.451,multiplicationStroop,2021.2.3,Win32,60.0060006,,,,,,,,,,,,,,,,,,,,,,,,,,,,,,,,,4,1.1656,1,0,6,6,28,1,2,×,2,2 × 2,neutral,tie,1.5,1.5,4,,,,,,,,
,,,,,,,,,,,,,,,782,2022-01-20_22h49.39.451,multiplicationStroop,2021.2.3,Win32,60.0060006,,,,,,,,,,,,,,,,,,,,,,,,,,,,,,,,,32,1.3491,1,0,7,7,23,1,8,×,4,8 × 4,neutral,largerFirst,1.5,1.5,32,,,,,,,,
,,,,,,,,,,,,,,,782,2022-01-20_22h49.39.451,multiplicationStroop,2021.2.3,Win32,60.0060006,,,,,,,,,,,,,,,,,,,,,,,,,,,,,,,,,42,1.3982,1,0,8,8,6,1,6,×,7,6 × 7,neutral,smallerFirst,1.5,1.5,42,,,,,,,,
,,,,,,,,,,,,,,,782,2022-01-20_22h49.39.451,multiplicationStroop,2021.2.3,Win32,60.0060006,,,,,,,,,,,,,,,,,,,,,,,,,,,,,,,,,56,1.3819,1,0,9,9,9,1,7,×,8,7 × 8,neutral,smallerFirst,1.5,1.5,56,,,,,,,,
,,,,,,,,,,,,,,,782,2022-01-20_22h49.39.451,multiplicationStroop,2021.2.3,Win32,60.0060006,,,,,,,,,,,,,,,,,,,,,,,,,,,,,,,,,15,1.3159,1,0,10,10,5,1,3,×,5,3 × 5,neutral,smallerFirst,1.5,1.5,15,,,,,,,,
,,,,,,,,,,,,,,,782,2022-01-20_22h49.39.451,multiplicationStroop,2021.2.3,Win32,60.0060006,,,,,,,,,,,,,,,,,,,,,,,,,,,,,,,,,45,1.5154,1,0,11,11,10,1,5,×,9,5 × 9,neutral,smallerFirst,1.5,1.5,45,,,,,,,,
,,,,,,,,,,,,,,,782,2022-01-20_22h49.39.451,multiplicationStroop,2021.2.3,Win32,60.0060006,,,,,,,,,,,,,,,,,,,,,,,,,,,,,,,,,8,1.3983,1,0,12,12,3,1,2,×,4,2 × 4,neutral,smallerFirst,1.5,1.5,8,,,,,,,,
,,,,,,,,,,,,,,,782,2022-01-20_22h49.39.451,multiplicationStroop,2021.2.3,Win32,60.0060006,,,,,,,,,,,,,,,,,,,,,,,,,,,,,,,,,24,1.2486,1,0,13,13,2,1,4,×,6,4 × 6,neutral,smallerFirst,1.5,1.5,24,,,,,,,,
,,,,,,,,,,,,,,,782,2022-01-20_22h49.39.451,multiplicationStroop,2021.2.3,Win32,60.0060006,,,,,,,,,,,,,,,,,,,,,,,,,,,,,,,,,6,1.1994,1,0,14,14,26,1,3,×,2,3 × 2,neutral,largerFirst,1.5,1.5,6,,,,,,,,
,,,,,,,,,,,,,,,782,2022-01-20_22h49.39.451,multiplicationStroop,2021.2.3,Win32,60.0060006,,,,,,,,,,,,,,,,,,,,,,,,,,,,,,,,,54,1.6319,1,0,15,15,7,1,6,×,9,6 × 9,neutral,smallerFirst,1.5,1.5,54,,,,,,,,
,,,,,,,,,,,,,,,782,2022-01-20_22h49.39.451,multiplicationStroop,2021.2.3,Win32,60.0060006,,,,,,,,,,,,,,,,,,,,,,,,,,,,,,,,,64,1.3986,1,0,16,16,34,1,8,×,8,8 × 8,neutral,tie,1.5,1.5,64,,,,,,,,
,,,,,,,,,,,,,,,782,2022-01-20_22h49.39.451,multiplicationStroop,2021.2.3,Win32,60.0060006,,,,,,,,,,,,,,,,,,,,,,,,,,,,,,,,,14,1.2648,1,0,17,17,16,1,7,×,2,7 × 2,neutral,largerFirst,1.5,1.5,14,,,,,,,,
,,,,,,,,,,,,,,,782,2022-01-20_22h49.39.451,multiplicationStroop,2021.2.3,Win32,60.0060006,,,,,,,,,,,,,,,,,,,,,,,,,,,,,,,,,39,1.4495,0,0,18,18,19,1,6,×,5,6 × 5,neutral,largerFirst,1.5,1.5,30,,,,,,,,
,,,,,,,,,,,,,,,782,2022-01-20_22h49.39.451,multiplicationStroop,2021.2.3,Win32,60.0060006,,,,,,,,,,,,,,,,,,,,,,,,,,,,,,,,,16,2.0137,1,0,19,19,13,1,2,×,8,2 × 8,neutral,smallerFirst,1.5,1.5,16,,,,,,,,
,,,,,,,,,,,,,,,782,2022-01-20_22h49.39.451,multiplicationStroop,2021.2.3,Win32,60.0060006,,,,,,,,,,,,,,,,,,,,,,,,,,,,,,,,,63,1.7819,1,0,20,20,12,1,7,×,9,7 × 9,neutral,smallerFirst,1.5,1.5,63,,,,,,,,
,,,,,,,,,,,,,,,782,2022-01-20_22h49.39.451,multiplicationStroop,2021.2.3,Win32,60.0060006,,,,,,,,,,,,,,,,,,,,,,,,,,,,,,,,,10,1.4151,1,0,21,21,4,1,2,×,5,2 × 5,neutral,smallerFirst,1.5,1.5,10,,,,,,,,
,,,,,,,,,,,,,,,782,2022-01-20_22h49.39.451,multiplicationStroop,2021.2.3,Win32,60.0060006,,,,,,,,,,,,,,,,,,,,,,,,,,,,,,,,,9,1.2821,1,0,22,22,29,1,3,×,3,3 × 3,neutral,tie,1.5,1.5,9,,,,,,,,
,,,,,,,,,,,,,,,782,2022-01-20_22h49.39.451,multiplicationStroop,2021.2.3,Win32,60.0060006,,,,,,,,,,,,,,,,,,,,,,,,,,,,,,,,,24,1.2149,1,0,23,23,22,1,8,×,3,8 × 3,neutral,largerFirst,1.5,1.5,24,,,,,,,,
,,,,,,,,,,,,,,,782,2022-01-20_22h49.39.451,multiplicationStroop,2021.2.3,Win32,60.0060006,,,,,,,,,,,,,,,,,,,,,,,,,,,,,,,,,12,1.0155,1,0,24,24,21,1,4,×,3,4 × 3,neutral,largerFirst,1.5,1.5,12,,,,,,,,
,,,,,,,,,,,,,,,782,2022-01-20_22h49.39.451,multiplicationStroop,2021.2.3,Win32,60.0060006,,,,,,,,,,,,,,,,,,,,,,,,,,,,,,,,,81,1.6656,1,0,25,25,35,1,9,×,9,9 × 9,neutral,tie,1.5,1.5,81,,,,,,,,
,,,,,,,,,,,,,,,782,2022-01-20_22h49.39.451,multiplicationStroop,2021.2.3,Win32,60.0060006,,,,,,,,,,,,,,,,,,,,,,,,,,,,,,,,,27,1.6316,1,0,26,26,14,1,9,×,3,9 × 3,neutral,largerFirst,1.5,1.5,27,,,,,,,,
,,,,,,,,,,,,,,,782,2022-01-20_22h49.39.451,multiplicationStroop,2021.2.3,Win32,60.0060006,,,,,,,,,,,,,,,,,,,,,,,,,,,,,,,,,35,1.2321,1,0,27,27,1,1,5,×,7,5 × 7,neutral,smallerFirst,1.5,1.5,35,,,,,,,,
,,,,,,,,,,,,,,,782,2022-01-20_22h49.39.451,multiplicationStroop,2021.2.3,Win32,60.0060006,,,,,,,,,,,,,,,,,,,,,,,,,,,,,,,,,36,1.3488,1,0,28,28,32,1,6,×,6,6 × 6,neutral,tie,1.5,1.5,36,,,,,,,,
,,,,,,,,,,,,,,,782,2022-01-20_22h49.39.451,multiplicationStroop,2021.2.3,Win32,60.0060006,,,,,,,,,,,,,,,,,,,,,,,,,,,,,,,,,20,1.3994,1,0,29,29,20,1,5,×,4,5 × 4,neutral,largerFirst,1.5,1.5,20,,,,,,,,
,,,,,,,,,,,,,,,782,2022-01-20_22h49.39.451,multiplicationStroop,2021.2.3,Win32,60.0060006,,,,,,,,,,,,,,,,,,,,,,,,,,,,,,,,,49,1.6982,1,0,30,30,33,1,7,×,7,7 × 7,neutral,tie,1.5,1.5,49,,,,,,,,
,,,,,,,,,,,,,,,782,2022-01-20_22h49.39.451,multiplicationStroop,2021.2.3,Win32,60.0060006,,,,,,,,,,,,,,,,,,,,,,,,,,,,,,,,,40,1.5655,1,0,31,31,24,1,8,×,5,8 × 5,neutral,largerFirst,1.5,1.5,40,,,,,,,,
,,,,,,,,,,,,,,,782,2022-01-20_22h49.39.451,multiplicationStroop,2021.2.3,Win32,60.0060006,,,,,,,,,,,,,,,,,,,,,,,,,,,,,,,,,25,1.1823,1,0,32,32,31,1,5,×,5,5 × 5,neutral,tie,1.5,1.5,25,,,,,,,,
,,,,,,,,,,,,,,,782,2022-01-20_22h49.39.451,multiplicationStroop,2021.2.3,Win32,60.0060006,,,,,,,,,,,,,,,,,,,,,,,,,,,,,,,,,18,1.3315,1,0,33,33,0,1,3,×,6,3 × 6,neutral,smallerFirst,1.5,1.5,18,,,,,,,,
,,,,,,,,,,,,,,,782,2022-01-20_22h49.39.451,multiplicationStroop,2021.2.3,Win32,60.0060006,,,,,,,,,,,,,,,,,,,,,,,,,,,,,,,,,36,1.5317,1,0,34,34,27,1,9,×,4,9 × 4,neutral,largerFirst,1.5,1.5,36,,,,,,,,
,,,,,,,,,,,,,,,782,2022-01-20_22h49.39.451,multiplicationStroop,2021.2.3,Win32,60.0060006,,,,,,,,,,,,,,,,,,,,,,,,,,,,,,,,,21,1.1329,1,0,35,35,8,1,3,×,7,3 × 7,neutral,smallerFirst,1.5,1.5,21,,,,,,,,
,,,,,,,,,,,,,,,782,2022-01-20_22h49.39.451,multiplicationStroop,2021.2.3,Win32,60.0060006,,,,,,,,,,,,,,,,,,,,,,,,,,,,,,,,,,,,,,,,,,,,,,,,,,0,2,2,1,1,stimulusFile/mult_blk2.xlsx,,
,,,,,,,,,,,,,,,782,2022-01-20_22h49.39.451,multiplicationStroop,2021.2.3,Win32,60.0060006,,,,,,,,,,,,,,,,,,,,,,,,,,,,,,,space,1.024,54,2.1307,1,0,0,0,21,1,9,×,6,9 × 6,neutral,largerFirst,1.5,1.5,54,,,,,,,,
,,,,,,,,,,,,,,,782,2022-01-20_22h49.39.451,multiplicationStroop,2021.2.3,Win32,60.0060006,,,,,,,,,,,,,,,,,,,,,,,,,,,,,,,,,25,1.1663,1,0,1,1,31,1,5,×,5,5 × 5,neutral,tie,1.5,1.5,25,,,,,,,,
,,,,,,,,,,,,,,,782,2022-01-20_22h49.39.451,multiplicationStroop,2021.2.3,Win32,60.0060006,,,,,,,,,,,,,,,,,,,,,,,,,,,,,,,,,32,1.2647,1,0,2,2,9,1,4,×,8,4 × 8,neutral,smallerFirst,1.5,1.5,32,,,,,,,,
,,,,,,,,,,,,,,,782,2022-01-20_22h49.39.451,multiplicationStroop,2021.2.3,Win32,60.0060006,,,,,,,,,,,,,,,,,,,,,,,,,,,,,,,,,40,1.4823,1,0,3,3,10,1,5,×,8,5 × 8,neutral,smallerFirst,1.5,1.5,40,,,,,,,,
,,,,,,,,,,,,,,,782,2022-01-20_22h49.39.451,multiplicationStroop,2021.2.3,Win32,60.0060006,,,,,,,,,,,,,,,,,,,,,,,,,,,,,,,,,36,1.3488,1,0,4,4,13,1,4,×,9,4 × 9,neutral,smallerFirst,1.5,1.5,36,,,,,,,,
,,,,,,,,,,,,,,,782,2022-01-20_22h49.39.451,multiplicationStroop,2021.2.3,Win32,60.0060006,,,,,,,,,,,,,,,,,,,,,,,,,,,,,,,,,10,1.449,1,0,5,5,18,1,5,×,2,5 × 2,neutral,largerFirst,1.5,1.5,10,,,,,,,,
,,,,,,,,,,,,,,,782,2022-01-20_22h49.39.451,multiplicationStroop,2021.2.3,Win32,60.0060006,,,,,,,,,,,,,,,,,,,,,,,,,,,,,,,,,28,1.6486,1,0,6,6,3,1,4,×,7,4 × 7,neutral,smallerFirst,1.5,1.5,28,,,,,,,,
,,,,,,,,,,,,,,,782,2022-01-20_22h49.39.451,multiplicationStroop,2021.2.3,Win32,60.0060006,,,,,,,,,,,,,,,,,,,,,,,,,,,,,,,,,14,1.1816,1,0,7,7,2,1,2,×,7,2 × 7,neutral,smallerFirst,1.5,1.5,14,,,,,,,,
,,,,,,,,,,,,,,,782,2022-01-20_22h49.39.451,multiplicationStroop,2021.2.3,Win32,60.0060006,,,,,,,,,,,,,,,,,,,,,,,,,,,,,,,,,30,1.4326,1,0,8,8,5,1,5,×,6,5 × 6,neutral,smallerFirst,1.5,1.5,30,,,,,,,,
,,,,,,,,,,,,,,,782,2022-01-20_22h49.39.451,multiplicationStroop,2021.2.3,Win32,60.0060006,,,,,,,,,,,,,,,,,,,,,,,,,,,,,,,,,24,1.1654,1,0,9,9,16,1,6,×,4,6 × 4,neutral,largerFirst,1.5,1.5,24,,,,,,,,
,,,,,,,,,,,,,,,782,2022-01-20_22h49.39.451,multiplicationStroop,2021.2.3,Win32,60.0060006,,,,,,,,,,,,,,,,,,,,,,,,,,,,,,,,,8,1.3152,1,0,10,10,17,1,4,×,2,4 × 2,neutral,largerFirst,1.5,1.5,8,,,,,,,,
,,,,,,,,,,,,,,,782,2022-01-20_22h49.39.451,multiplicationStroop,2021.2.3,Win32,60.0060006,,,,,,,,,,,,,,,,,,,,,,,,,,,,,,,,,36,1.5155,1,0,11,11,32,1,6,×,6,6 × 6,neutral,tie,1.5,1.5,36,,,,,,,,
,,,,,,,,,,,,,,,782,2022-01-20_22h49.39.451,multiplicationStroop,2021.2.3,Win32,60.0060006,,,,,,,,,,,,,,,,,,,,,,,,,,,,,,,,,16,1.4147,1,0,12,12,27,1,8,×,2,8 × 2,neutral,largerFirst,1.5,1.5,16,,,,,,,,
,,,,,,,,,,,,,,,782,2022-01-20_22h49.39.451,multiplicationStroop,2021.2.3,Win32,60.0060006,,,,,,,,,,,,,,,,,,,,,,,,,,,,,,,,,21,1.2153,1,0,13,13,22,1,7,×,3,7 × 3,neutral,largerFirst,1.5,1.5,21,,,,,,,,
,,,,,,,,,,,,,,,782,2022-01-20_22h49.39.451,multiplicationStroop,2021.2.3,Win32,60.0060006,,,,,,,,,,,,,,,,,,,,,,,,,,,,,,,,,4,1.1325,1,0,14,14,28,1,2,×,2,2 × 2,neutral,tie,1.5,1.5,4,,,,,,,,
,,,,,,,,,,,,,,,782,2022-01-20_22h49.39.451,multiplicationStroop,2021.2.3,Win32,60.0060006,,,,,,,,,,,,,,,,,,,,,,,,,,,,,,,,,20,1.4985,1,0,15,15,6,1,4,×,5,4 × 5,neutral,smallerFirst,1.5,1.5,20,,,,,,,,
,,,,,,,,,,,,,,,782,2022-01-20_22h49.39.451,multiplicationStroop,2021.2.3,Win32,60.0060006,,,,,,,,,,,,,,,,,,,,,,,,,,,,,,,,,48,1.4649,1,0,16,16,1,1,6,×,8,6 × 8,neutral,smallerFirst,1.5,1.5,48,,,,,,,,
,,,,,,,,,,,,,,,782,2022-01-20_22h49.39.451,multiplicationStroop,2021.2.3,Win32,60.0060006,,,,,,,,,,,,,,,,,,,,,,,,,,,,,,,,,24,1.0657,1,0,17,17,8,1,3,×,8,3 × 8,neutral,smallerFirst,1.5,1.5,24,,,,,,,,
,,,,,,,,,,,,,,,782,2022-01-20_22h49.39.451,multiplicationStroop,2021.2.3,Win32,60.0060006,,,,,,,,,,,,,,,,,,,,,,,,,,,,,,,,,18,1.9316,1,0,18,18,4,1,2,×,9,2 × 9,neutral,smallerFirst,1.5,1.5,18,,,,,,,,
,,,,,,,,,,,,,,,782,2022-01-20_22h49.39.451,multiplicationStroop,2021.2.3,Win32,60.0060006,,,,,,,,,,,,,,,,,,,,,,,,,,,,,,,,,15,1.2158,1,0,19,19,19,1,5,×,3,5 × 3,neutral,largerFirst,1.5,1.5,15,,,,,,,,
,,,,,,,,,,,,,,,782,2022-01-20_22h49.39.451,multiplicationStroop,2021.2.3,Win32,60.0060006,,,,,,,,,,,,,,,,,,,,,,,,,,,,,,,,,45,1.2648,1,0,20,20,24,1,9,×,5,9 × 5,neutral,largerFirst,1.5,1.5,45,,,,,,,,
,,,,,,,,,,,,,,,782,2022-01-20_22h49.39.451,multiplicationStroop,2021.2.3,Win32,60.0060006,,,,,,,,,,,,,,,,,,,,,,,,,,,,,,,,,12,1.1329,1,0,21,21,7,1,3,×,4,3 × 4,neutral,smallerFirst,1.5,1.5,12,,,,,,,,
,,,,,,,,,,,,,,,782,2022-01-20_22h49.39.451,multiplicationStroop,2021.2.3,Win32,60.0060006,,,,,,,,,,,,,,,,,,,,,,,,,,,,,,,,,27,1.3819,1,0,22,22,0,1,3,×,9,3 × 9,neutral,smallerFirst,1.5,1.5,27,,,,,,,,
,,,,,,,,,,,,,,,782,2022-01-20_22h49.39.451,multiplicationStroop,2021.2.3,Win32,60.0060006,,,,,,,,,,,,,,,,,,,,,,,,,,,,,,,,,64,2.6481,1,0,23,23,34,1,8,×,8,8 × 8,neutral,tie,1.5,1.5,64,,,,,,,,
,,,,,,,,,,,,,,,782,2022-01-20_22h49.39.451,multiplicationStroop,2021.2.3,Win32,60.0060006,,,,,,,,,,,,,,,,,,,,,,,,,,,,,,,,,63,1.7651,1,0,24,24,26,1,9,×,7,9 × 7,neutral,largerFirst,1.5,1.5,63,,,,,,,,
,,,,,,,,,,,,,,,782,2022-01-20_22h49.39.451,multiplicationStroop,2021.2.3,Win32,60.0060006,,,,,,,,,,,,,,,,,,,,,,,,,,,,,,,,,35,1.3481,1,0,25,25,15,1,7,×,5,7 × 5,neutral,largerFirst,1.5,1.5,35,,,,,,,,
,,,,,,,,,,,,,,,782,2022-01-20_22h49.39.451,multiplicationStroop,2021.2.3,Win32,60.0060006,,,,,,,,,,,,,,,,,,,,,,,,,,,,,,,,,18,1.3995,1,0,26,26,14,1,6,×,3,6 × 3,neutral,largerFirst,1.5,1.5,18,,,,,,,,
,,,,,,,,,,,,,,,782,2022-01-20_22h49.39.451,multiplicationStroop,2021.2.3,Win32,60.0060006,,,,,,,,,,,,,,,,,,,,,,,,,,,,,,,,,12,1.2154,1,0,27,27,11,1,2,×,6,2 × 6,neutral,smallerFirst,1.5,1.5,12,,,,,,,,
,,,,,,,,,,,,,,,782,2022-01-20_22h49.39.451,multiplicationStroop,2021.2.3,Win32,60.0060006,,,,,,,,,,,,,,,,,,,,,,,,,,,,,,,,,16,1.4318,1,0,28,28,30,1,4,×,4,4 × 4,neutral,tie,1.5,1.5,16,,,,,,,,
,,,,,,,,,,,,,,,782,2022-01-20_22h49.39.451,multiplicationStroop,2021.2.3,Win32,60.0060006,,,,,,,,,,,,,,,,,,,,,,,,,,,,,,,,,6,1.3985,1,0,29,29,12,1,2,×,3,2 × 3,neutral,smallerFirst,1.5,1.5,6,,,,,,,,
,,,,,,,,,,,,,,,782,2022-01-20_22h49.39.451,multiplicationStroop,2021.2.3,Win32,60.0060006,,,,,,,,,,,,,,,,,,,,,,,,,,,,,,,,,42,1.4315,1,0,30,30,20,1,7,×,6,7 × 6,neutral,largerFirst,1.5,1.5,42,,,,,,,,
,,,,,,,,,,,,,,,782,2022-01-20_22h49.39.451,multiplicationStroop,2021.2.3,Win32,60.0060006,,,,,,,,,,,,,,,,,,,,,,,,,,,,,,,,,72,2.0992,1,0,31,31,25,1,9,×,8,9 × 8,neutral,largerFirst,1.5,1.5,72,,,,,,,,
,,,,,,,,,,,,,,,782,2022-01-20_22h49.39.451,multiplicationStroop,2021.2.3,Win32,60.0060006,,,,,,,,,,,,,,,,,,,,,,,,,,,,,,,,,49,1.5312,1,0,32,32,33,1,7,×,7,7 × 7,neutral,tie,1.5,1.5,49,,,,,,,,
,,,,,,,,,,,,,,,782,2022-01-20_22h49.39.451,multiplicationStroop,2021.2.3,Win32,60.0060006,,,,,,,,,,,,,,,,,,,,,,,,,,,,,,,,,56,1.6652,1,0,33,33,23,1,8,×,7,8 × 7,neutral,largerFirst,1.5,1.5,56,,,,,,,,
,,,,,,,,,,,,,,,782,2022-01-20_22h49.39.451,multiplicationStroop,2021.2.3,Win32,60.0060006,,,,,,,,,,,,,,,,,,,,,,,,,,,,,,,,,81,2.4322,1,0,34,34,35,1,9,×,9,9 × 9,neutral,tie,1.5,1.5,81,,,,,,,,
,,,,,,,,,,,,,,,782,2022-01-20_22h49.39.451,multiplicationStroop,2021.2.3,Win32,60.0060006,,,,,,,,,,,,,,,,,,,,,,,,,,,,,,,,,9,1.2822,1,0,35,35,29,1,3,×,3,3 × 3,neutral,tie,1.5,1.5,9,,,,,,,,
,,,,,,,,,,,,,,,782,2022-01-20_22h49.39.451,multiplicationStroop,2021.2.3,Win32,60.0060006,,,,,,,,,,,,,,,,,,,,,,,,,,,,,,,,,,,,,,,,,,,,,,,,,,0,3,3,0,1,stimulusFile/mult_blk1.xlsx,,
,,,,,,,,,,,,,,,782,2022-01-20_22h49.39.451,multiplicationStroop,2021.2.3,Win32,60.0060006,,,,,,,,,,,,,,,,,,,,,,,,,,,,,,,space,0.8785,4,1.1829,1,0,0,0,28,1,2,×,2,2 × 2,neutral,tie,2,1,4,,,,,,,,
,,,,,,,,,,,,,,,782,2022-01-20_22h49.39.451,multiplicationStroop,2021.2.3,Win32,60.0060006,,,,,,,,,,,,,,,,,,,,,,,,,,,,,,,,,36,1.4656,1,0,1,1,32,1,6,×,6,6 × 6,neutral,tie,2,1,36,,,,,,,,
,,,,,,,,,,,,,,,782,2022-01-20_22h49.39.451,multiplicationStroop,2021.2.3,Win32,60.0060006,,,,,,,,,,,,,,,,,,,,,,,,,,,,,,,,,16,1.7315,1,0,2,2,30,1,4,×,4,4 × 4,neutral,tie,2,1,16,,,,,,,,
,,,,,,,,,,,,,,,782,2022-01-20_22h49.39.451,multiplicationStroop,2021.2.3,Win32,60.0060006,,,,,,,,,,,,,,,,,,,,,,,,,,,,,,,,,63,1.5823,1,0,3,3,21,1,9,×,7,9 × 7,congruent,largerFirst,2,1,63,,,,,,,,
,,,,,,,,,,,,,,,782,2022-01-20_22h49.39.451,multiplicationStroop,2021.2.3,Win32,60.0060006,,,,,,,,,,,,,,,,,,,,,,,,,,,,,,,,,12,1.0316,1,0,4,4,2,1,3,×,4,3 × 4,congruent,smallerFirst,1,2,12,,,,,,,,
,,,,,,,,,,,,,,,782,2022-01-20_22h49.39.451,multiplicationStroop,2021.2.3,Win32,60.0060006,,,,,,,,,,,,,,,,,,,,,,,,,,,,,,,,,12,1.5161,1,0,5,5,19,1,6,×,2,6 × 2,congruent,largerFirst,2,1,12,,,,,,,,
,,,,,,,,,,,,,,,782,2022-01-20_22h49.39.451,multiplicationStroop,2021.2.3,Win32,60.0060006,,,,,,,,,,,,,,,,,,,,,,,,,,,,,,,,,30,1.6817,1,0,6,6,15,1,6,×,5,6 × 5,congruent,largerFirst,2,1,30,,,,,,,,
,,,,,,,,,,,,,,,782,2022-01-20_22h49.39.451,multiplicationStroop,2021.2.3,Win32,60.0060006,,,,,,,,,,,,,,,,,,,,,,,,,,,,,,,,,35,1.1815,1,0,7,7,1,1,5,×,7,5 × 7,congruent,smallerFirst,1,2,35,,,,,,,,
,,,,,,,,,,,,,,,782,2022-01-20_22h49.39.451,multiplicationStroop,2021.2.3,Win32,60.0060006,,,,,,,,,,,,,,,,,,,,,,,,,,,,,,,,,16,1.4329,1,0,8,8,5,1,2,×,8,2 × 8,congruent,smallerFirst,1,2,16,,,,,,,,
,,,,,,,,,,,,,,,782,2022-01-20_22h49.39.451,multiplicationStroop,2021.2.3,Win32,60.0060006,,,,,,,,,,,,,,,,,,,,,,,,,,,,,,,,,21,2.1141,1,0,9,9,16,1,7,×,3,7 × 3,congruent,largerFirst,2,1,21,,,,,,,,
,,,,,,,,,,,,,,,782,2022-01-20_22h49.39.451,multiplicationStroop,2021.2.3,Win32,60.0060006,,,,,,,,,,,,,,,,,,,,,,,,,,,,,,,,,9,1.2725,1,0,10,10,29,1,3,×,3,3 × 3,neutral,tie,2,1,9,,,,,,,,
,,,,,,,,,,,,,,,782,2022-01-20_22h49.39.451,multiplicationStroop,2021.2.3,Win32,60.0060006,,,,,,,,,,,,,,,,,,,,,,,,,,,,,,,,,24,1.2988,1,0,11,11,25,1,6,×,4,6 × 4,congruent,largerFirst,2,1,24,,,,,,,,
,,,,,,,,,,,,,,,782,2022-01-20_22h49.39.451,multiplicationStroop,2021.2.3,Win32,60.0060006,,,,,,,,,,,,,,,,,,,,,,,,,,,,,,,,,32,1.2317,1,0,12,12,20,1,8,×,4,8 × 4,congruent,largerFirst,2,1,32,,,,,,,,
,,,,,,,,,,,,,,,782,2022-01-20_22h49.39.451,multiplicationStroop,2021.2.3,Win32,60.0060006,,,,,,,,,,,,,,,,,,,,,,,,,,,,,,,,,56,1.3323,1,0,13,13,8,1,7,×,8,7 × 8,congruent,smallerFirst,1,2,56,,,,,,,,
,,,,,,,,,,,,,,,782,2022-01-20_22h49.39.451,multiplicationStroop,2021.2.3,Win32,60.0060006,,,,,,,,,,,,,,,,,,,,,,,,,,,,,,,,,40,1.5815,1,0,14,14,6,1,5,×,8,5 × 8,congruent,smallerFirst,1,2,40,,,,,,,,
,,,,,,,,,,,,,,,782,2022-01-20_22h49.39.451,multiplicationStroop,2021.2.3,Win32,60.0060006,,,,,,,,,,,,,,,,,,,,,,,,,,,,,,,,,18,1.3983,1,0,15,15,22,1,9,×,2,9 × 2,congruent,largerFirst,2,1,18,,,,,,,,
,,,,,,,,,,,,,,,782,2022-01-20_22h49.39.451,multiplicationStroop,2021.2.3,Win32,60.0060006,,,,,,,,,,,,,,,,,,,,,,,,,,,,,,,,,49,1.666,1,0,16,16,33,1,7,×,7,7 × 7,neutral,tie,2,1,49,,,,,,,,
,,,,,,,,,,,,,,,782,2022-01-20_22h49.39.451,multiplicationStroop,2021.2.3,Win32,60.0060006,,,,,,,,,,,,,,,,,,,,,,,,,,,,,,,,,25,1.6314,1,0,17,17,31,1,5,×,5,5 × 5,neutral,tie,2,1,25,,,,,,,,
,,,,,,,,,,,,,,,782,2022-01-20_22h49.39.451,multiplicationStroop,2021.2.3,Win32,60.0060006,,,,,,,,,,,,,,,,,,,,,,,,,,,,,,,,,72,1.7493,1,0,18,18,17,1,9,×,8,9 × 8,congruent,largerFirst,2,1,72,,,,,,,,
,,,,,,,,,,,,,,,782,2022-01-20_22h49.39.451,multiplicationStroop,2021.2.3,Win32,60.0060006,,,,,,,,,,,,,,,,,,,,,,,,,,,,,,,,,14,1.1816,1,0,19,19,14,1,7,×,2,7 × 2,congruent,largerFirst,2,1,14,,,,,,,,
,,,,,,,,,,,,,,,782,2022-01-20_22h49.39.451,multiplicationStroop,2021.2.3,Win32,60.0060006,,,,,,,,,,,,,,,,,,,,,,,,,,,,,,,,,42,1.3487,1,0,20,20,3,1,6,×,7,6 × 7,congruent,smallerFirst,1,2,42,,,,,,,,
,,,,,,,,,,,,,,,782,2022-01-20_22h49.39.451,multiplicationStroop,2021.2.3,Win32,60.0060006,,,,,,,,,,,,,,,,,,,,,,,,,,,,,,,,,28,1.4827,1,0,21,21,27,1,7,×,4,7 × 4,congruent,largerFirst,2,1,28,,,,,,,,
,,,,,,,,,,,,,,,782,2022-01-20_22h49.39.451,multiplicationStroop,2021.2.3,Win32,60.0060006,,,,,,,,,,,,,,,,,,,,,,,,,,,,,,,,,36,1.4986,1,0,22,22,0,1,4,×,9,4 × 9,congruent,smallerFirst,1,2,36,,,,,,,,
,,,,,,,,,,,,,,,782,2022-01-20_22h49.39.451,multiplicationStroop,2021.2.3,Win32,60.0060006,,,,,,,,,,,,,,,,,,,,,,,,,,,,,,,,,15,1.2814,1,0,23,23,4,1,3,×,5,3 × 5,congruent,smallerFirst,1,2,15,,,,,,,,
,,,,,,,,,,,,,,,782,2022-01-20_22h49.39.451,multiplicationStroop,2021.2.3,Win32,60.0060006,,,,,,,,,,,,,,,,,,,,,,,,,,,,,,,,,8,1.3656,1,0,24,24,9,1,2,×,4,2 × 4,congruent,smallerFirst,1,2,8,,,,,,,,
,,,,,,,,,,,,,,,782,2022-01-20_22h49.39.451,multiplicationStroop,2021.2.3,Win32,60.0060006,,,,,,,,,,,,,,,,,,,,,,,,,,,,,,,,,10,1.4826,1,0,25,25,24,1,5,×,2,5 × 2,congruent,largerFirst,2,1,10,,,,,,,,
,,,,,,,,,,,,,,,782,2022-01-20_22h49.39.451,multiplicationStroop,2021.2.3,Win32,60.0060006,,,,,,,,,,,,,,,,,,,,,,,,,,,,,,,,,81,1.632,1,0,26,26,35,1,9,×,9,9 × 9,neutral,tie,2,1,81,,,,,,,,
,,,,,,,,,,,,,,,782,2022-01-20_22h49.39.451,multiplicationStroop,2021.2.3,Win32,60.0060006,,,,,,,,,,,,,,,,,,,,,,,,,,,,,,,,,45,1.432,1,0,27,27,23,1,9,×,5,9 × 5,congruent,largerFirst,2,1,45,,,,,,,,
,,,,,,,,,,,,,,,782,2022-01-20_22h49.39.451,multiplicationStroop,2021.2.3,Win32,60.0060006,,,,,,,,,,,,,,,,,,,,,,,,,,,,,,,,,18,1.7482,1,0,28,28,11,1,3,×,6,3 × 6,congruent,smallerFirst,1,2,18,,,,,,,,
,,,,,,,,,,,,,,,782,2022-01-20_22h49.39.451,multiplicationStroop,2021.2.3,Win32,60.0060006,,,,,,,,,,,,,,,,,,,,,,,,,,,,,,,,,27,1.499,1,0,29,29,26,1,9,×,3,9 × 3,congruent,largerFirst,2,1,27,,,,,,,,
,,,,,,,,,,,,,,,782,2022-01-20_22h49.39.451,multiplicationStroop,2021.2.3,Win32,60.0060006,,,,,,,,,,,,,,,,,,,,,,,,,,,,,,,,,54,1.7314,1,0,30,30,12,1,6,×,9,6 × 9,congruent,smallerFirst,1,2,54,,,,,,,,
,,,,,,,,,,,,,,,782,2022-01-20_22h49.39.451,multiplicationStroop,2021.2.3,Win32,60.0060006,,,,,,,,,,,,,,,,,,,,,,,,,,,,,,,,,6,1.2492,1,0,31,31,13,1,2,×,3,2 × 3,congruent,smallerFirst,1,2,6,,,,,,,,
,,,,,,,,,,,,,,,782,2022-01-20_22h49.39.451,multiplicationStroop,2021.2.3,Win32,60.0060006,,,,,,,,,,,,,,,,,,,,,,,,,,,,,,,,,24,1.1988,1,0,32,32,10,1,3,×,8,3 × 8,congruent,smallerFirst,1,2,24,,,,,,,,
,,,,,,,,,,,,,,,782,2022-01-20_22h49.39.451,multiplicationStroop,2021.2.3,Win32,60.0060006,,,,,,,,,,,,,,,,,,,,,,,,,,,,,,,,,20,1.5319,1,0,33,33,7,1,4,×,5,4 × 5,congruent,smallerFirst,1,2,20,,,,,,,,
,,,,,,,,,,,,,,,782,2022-01-20_22h49.39.451,multiplicationStroop,2021.2.3,Win32,60.0060006,,,,,,,,,,,,,,,,,,,,,,,,,,,,,,,,,48,1.6319,1,0,34,34,18,1,8,×,6,8 × 6,congruent,largerFirst,2,1,48,,,,,,,,
,,,,,,,,,,,,,,,782,2022-01-20_22h49.39.451,multiplicationStroop,2021.2.3,Win32,60.0060006,,,,,,,,,,,,,,,,,,,,,,,,,,,,,,,,,64,2.1481,1,0,35,35,34,1,8,×,8,8 × 8,neutral,tie,2,1,64,,,,,,,,
,,,,,,,,,,,,,,,782,2022-01-20_22h49.39.451,multiplicationStroop,2021.2.3,Win32,60.0060006,,,,,,,,,,,,,,,,,,,,,,,,,,,,,,,,,,,,,,,,,,,,,,,,,,0,4,4,2,1,stimulusFile/mult_blk3_congruent.xlsx,,
,,,,,,,,,,,,,,,782,2022-01-20_22h49.39.451,multiplicationStroop,2021.2.3,Win32,60.0060006,,,,,,,,,,,,,,,,,,,,,,,,,,,,,,,space,0.8934,6,1.2169,1,0,0,0,27,1,3,×,2,3 × 2,congruent,largerFirst,2,1,6,,,,,,,,
,,,,,,,,,,,,,,,782,2022-01-20_22h49.39.451,multiplicationStroop,2021.2.3,Win32,60.0060006,,,,,,,,,,,,,,,,,,,,,,,,,,,,,,,,,40,1.4983,1,0,1,1,20,1,8,×,5,8 × 5,congruent,largerFirst,2,1,40,,,,,,,,
,,,,,,,,,,,,,,,782,2022-01-20_22h49.39.451,multiplicationStroop,2021.2.3,Win32,60.0060006,,,,,,,,,,,,,,,,,,,,,,,,,,,,,,,,,15,1.365,1,0,2,2,18,1,5,×,3,5 × 3,congruent,largerFirst,2,1,15,,,,,,,,
,,,,,,,,,,,,,,,782,2022-01-20_22h49.39.451,multiplicationStroop,2021.2.3,Win32,60.0060006,,,,,,,,,,,,,,,,,,,,,,,,,,,,,,,,,20,1.5984,1,0,3,3,21,1,5,×,4,5 × 4,congruent,largerFirst,2,1,20,,,,,,,,
,,,,,,,,,,,,,,,782,2022-01-20_22h49.39.451,multiplicationStroop,2021.2.3,Win32,60.0060006,,,,,,,,,,,,,,,,,,,,,,,,,,,,,,,,,36,1.8658,1,0,4,4,32,1,6,×,6,6 × 6,neutral,tie,1,2,36,,,,,,,,
,,,,,,,,,,,,,,,782,2022-01-20_22h49.39.451,multiplicationStroop,2021.2.3,Win32,60.0060006,,,,,,,,,,,,,,,,,,,,,,,,,,,,,,,,,24,1.3982,1,0,5,5,24,1,8,×,3,8 × 3,congruent,largerFirst,2,1,24,,,,,,,,
,,,,,,,,,,,,,,,782,2022-01-20_22h49.39.451,multiplicationStroop,2021.2.3,Win32,60.0060006,,,,,,,,,,,,,,,,,,,,,,,,,,,,,,,,,32,1.6822,1,0,6,6,6,1,4,×,8,4 × 8,congruent,smallerFirst,1,2,32,,,,,,,,
,,,,,,,,,,,,,,,782,2022-01-20_22h49.39.451,multiplicationStroop,2021.2.3,Win32,60.0060006,,,,,,,,,,,,,,,,,,,,,,,,,,,,,,,,,36,1.4646,1,0,7,7,14,1,9,×,4,9 × 4,congruent,largerFirst,2,1,36,,,,,,,,
,,,,,,,,,,,,,,,782,2022-01-20_22h49.39.451,multiplicationStroop,2021.2.3,Win32,60.0060006,,,,,,,,,,,,,,,,,,,,,,,,,,,,,,,,,30,2.4655,1,0,8,8,1,1,5,×,6,5 × 6,congruent,smallerFirst,1,2,30,,,,,,,,
,,,,,,,,,,,,,,,782,2022-01-20_22h49.39.451,multiplicationStroop,2021.2.3,Win32,60.0060006,,,,,,,,,,,,,,,,,,,,,,,,,,,,,,,,,54,1.7883,1,0,9,9,26,1,9,×,6,9 × 6,congruent,largerFirst,2,1,54,,,,,,,,
,,,,,,,,,,,,,,,782,2022-01-20_22h49.39.451,multiplicationStroop,2021.2.3,Win32,60.0060006,,,,,,,,,,,,,,,,,,,,,,,,,,,,,,,,,64,1.4655,1,0,10,10,34,1,8,×,8,8 × 8,neutral,tie,1,2,64,,,,,,,,
,,,,,,,,,,,,,,,782,2022-01-20_22h49.39.451,multiplicationStroop,2021.2.3,Win32,60.0060006,,,,,,,,,,,,,,,,,,,,,,,,,,,,,,,,,12,1.0984,1,0,11,11,5,1,2,×,6,2 × 6,congruent,smallerFirst,1,2,12,,,,,,,,
,,,,,,,,,,,,,,,782,2022-01-20_22h49.39.451,multiplicationStroop,2021.2.3,Win32,60.0060006,,,,,,,,,,,,,,,,,,,,,,,,,,,,,,,,,24,1.1327,1,0,12,12,11,1,4,×,6,4 × 6,congruent,smallerFirst,1,2,24,,,,,,,,
,,,,,,,,,,,,,,,782,2022-01-20_22h49.39.451,multiplicationStroop,2021.2.3,Win32,60.0060006,,,,,,,,,,,,,,,,,,,,,,,,,,,,,,,,,25,1.2655,1,0,13,13,31,1,5,×,5,5 × 5,neutral,tie,1,2,25,,,,,,,,
,,,,,,,,,,,,,,,782,2022-01-20_22h49.39.451,multiplicationStroop,2021.2.3,Win32,60.0060006,,,,,,,,,,,,,,,,,,,,,,,,,,,,,,,,,28,1.4315,1,0,14,14,13,1,4,×,7,4 × 7,congruent,smallerFirst,1,2,28,,,,,,,,
,,,,,,,,,,,,,,,782,2022-01-20_22h49.39.451,multiplicationStroop,2021.2.3,Win32,60.0060006,,,,,,,,,,,,,,,,,,,,,,,,,,,,,,,,,16,1.6491,1,0,15,15,30,1,4,×,4,4 × 4,neutral,tie,1,2,16,,,,,,,,
,,,,,,,,,,,,,,,782,2022-01-20_22h49.39.451,multiplicationStroop,2021.2.3,Win32,60.0060006,,,,,,,,,,,,,,,,,,,,,,,,,,,,,,,,,42,1.3822,1,0,16,16,17,1,7,×,6,7 × 6,congruent,largerFirst,2,1,42,,,,,,,,
,,,,,,,,,,,,,,,782,2022-01-20_22h49.39.451,multiplicationStroop,2021.2.3,Win32,60.0060006,,,,,,,,,,,,,,,,,,,,,,,,,,,,,,,,,4,1.1986,1,0,17,17,28,1,2,×,2,2 × 2,neutral,tie,1,2,4,,,,,,,,
,,,,,,,,,,,,,,,782,2022-01-20_22h49.39.451,multiplicationStroop,2021.2.3,Win32,60.0060006,,,,,,,,,,,,,,,,,,,,,,,,,,,,,,,,,27,1.332,1,0,18,18,12,1,3,×,9,3 × 9,congruent,smallerFirst,1,2,27,,,,,,,,
,,,,,,,,,,,,,,,782,2022-01-20_22h49.39.451,multiplicationStroop,2021.2.3,Win32,60.0060006,,,,,,,,,,,,,,,,,,,,,,,,,,,,,,,,,9,1.2821,1,0,19,19,29,1,3,×,3,3 × 3,neutral,tie,1,2,9,,,,,,,,
,,,,,,,,,,,,,,,782,2022-01-20_22h49.39.451,multiplicationStroop,2021.2.3,Win32,60.0060006,,,,,,,,,,,,,,,,,,,,,,,,,,,,,,,,,63,1.6314,1,0,20,20,7,1,7,×,9,7 × 9,congruent,smallerFirst,1,2,63,,,,,,,,
,,,,,,,,,,,,,,,782,2022-01-20_22h49.39.451,multiplicationStroop,2021.2.3,Win32,60.0060006,,,,,,,,,,,,,,,,,,,,,,,,,,,,,,,,,18,1.3992,1,0,21,21,25,1,6,×,3,6 × 3,congruent,largerFirst,2,1,18,,,,,,,,
,,,,,,,,,,,,,,,782,2022-01-20_22h49.39.451,multiplicationStroop,2021.2.3,Win32,60.0060006,,,,,,,,,,,,,,,,,,,,,,,,,,,,,,,,,35,1.2484,1,0,22,22,15,1,7,×,5,7 × 5,congruent,largerFirst,2,1,35,,,,,,,,
,,,,,,,,,,,,,,,782,2022-01-20_22h49.39.451,multiplicationStroop,2021.2.3,Win32,60.0060006,,,,,,,,,,,,,,,,,,,,,,,,,,,,,,,,,18,1.5485,1,0,23,23,8,1,2,×,9,2 × 9,congruent,smallerFirst,1,2,18,,,,,,,,
,,,,,,,,,,,,,,,782,2022-01-20_22h49.39.451,multiplicationStroop,2021.2.3,Win32,60.0060006,,,,,,,,,,,,,,,,,,,,,,,,,,,,,,,,,21,1.266,1,0,24,24,2,1,3,×,7,3 × 7,congruent,smallerFirst,1,2,21,,,,,,,,
,,,,,,,,,,,,,,,782,2022-01-20_22h49.39.451,multiplicationStroop,2021.2.3,Win32,60.0060006,,,,,,,,,,,,,,,,,,,,,,,,,,,,,,,,,72,1.7314,1,0,25,25,3,1,8,×,9,8 × 9,congruent,smallerFirst,1,2,72,,,,,,,,
,,,,,,,,,,,,,,,782,2022-01-20_22h49.39.451,multiplicationStroop,2021.2.3,Win32,60.0060006,,,,,,,,,,,,,,,,,,,,,,,,,,,,,,,,,45,1.5323,1,0,26,26,9,1,5,×,9,5 × 9,congruent,smallerFirst,1,2,45,,,,,,,,
,,,,,,,,,,,,,,,782,2022-01-20_22h49.39.451,multiplicationStroop,2021.2.3,Win32,60.0060006,,,,,,,,,,,,,,,,,,,,,,,,,,,,,,,,,1,1.1821,0,0,27,27,0,1,2,×,7,2 × 7,congruent,smallerFirst,1,2,14,,,,,,,,
,,,,,,,,,,,,,,,782,2022-01-20_22h49.39.451,multiplicationStroop,2021.2.3,Win32,60.0060006,,,,,,,,,,,,,,,,,,,,,,,,,,,,,,,,,48,1.7819,1,0,28,28,4,1,6,×,8,6 × 8,congruent,smallerFirst,1,2,48,,,,,,,,
,,,,,,,,,,,,,,,782,2022-01-20_22h49.39.451,multiplicationStroop,2021.2.3,Win32,60.0060006,,,,,,,,,,,,,,,,,,,,,,,,,,,,,,,,,81,1.7812,1,0,29,29,35,1,9,×,9,9 × 9,neutral,tie,1,2,81,,,,,,,,
,,,,,,,,,,,,,,,782,2022-01-20_22h49.39.451,multiplicationStroop,2021.2.3,Win32,60.0060006,,,,,,,,,,,,,,,,,,,,,,,,,,,,,,,,,16,1.5493,1,0,30,30,19,1,8,×,2,8 × 2,congruent,largerFirst,2,1,16,,,,,,,,
,,,,,,,,,,,,,,,782,2022-01-20_22h49.39.451,multiplicationStroop,2021.2.3,Win32,60.0060006,,,,,,,,,,,,,,,,,,,,,,,,,,,,,,,,,10,1.6981,1,0,31,31,10,1,2,×,5,2 × 5,congruent,smallerFirst,1,2,10,,,,,,,,
,,,,,,,,,,,,,,,782,2022-01-20_22h49.39.451,multiplicationStroop,2021.2.3,Win32,60.0060006,,,,,,,,,,,,,,,,,,,,,,,,,,,,,,,,,49,1.7154,1,0,32,32,33,1,7,×,7,7 × 7,neutral,tie,1,2,49,,,,,,,,
,,,,,,,,,,,,,,,782,2022-01-20_22h49.39.451,multiplicationStroop,2021.2.3,Win32,60.0060006,,,,,,,,,,,,,,,,,,,,,,,,,,,,,,,,,12,1.1151,1,0,33,33,16,1,4,×,3,4 × 3,congruent,largerFirst,2,1,12,,,,,,,,
,,,,,,,,,,,,,,,782,2022-01-20_22h49.39.451,multiplicationStroop,2021.2.3,Win32,60.0060006,,,,,,,,,,,,,,,,,,,,,,,,,,,,,,,,,56,1.7318,1,0,34,34,22,1,8,×,7,8 × 7,congruent,largerFirst,2,1,56,,,,,,,,
,,,,,,,,,,,,,,,782,2022-01-20_22h49.39.451,multiplicationStroop,2021.2.3,Win32,60.0060006,,,,,,,,,,,,,,,,,,,,,,,,,,,,,,,,,8,1.2987,1,0,35,35,23,1,4,×,2,4 × 2,congruent,largerFirst,2,1,8,,,,,,,,
,,,,,,,,,,,,,,,782,2022-01-20_22h49.39.451,multiplicationStroop,2021.2.3,Win32,60.0060006,,,,,,,,,,,,,,,,,,,,,,,,,,,,,,,,,,,,,,,,,,,,,,,,,,0,5,5,3,1,stimulusFile/mult_blk4_congruent.xlsx,,
,,,,,,,,,,,,,,,782,2022-01-20_22h49.39.451,multiplicationStroop,2021.2.3,Win32,60.0060006,,,,,,,,,,,,,,,,,,,,,,,,,,,,,,,,,,,,,,,,,,,,,,,,,,,,,,,,space,1.6116