welcomeKey_resp.keys,welcomeKey_resp.rt,X Scale,Y Scale,rt_resp_4.keys,rt_resp_4.corr,rt_resp_4.rt,speedtest_2.thisRepN,speedtest_2.thisTrialN,speedtest_2.thisN,speedtest_2.thisIndex,speedtest_2.ran,numberSc,posX,positionLayout,participant,date,expName,psychopyVersion,OS,frameRate,ct_instrresp.keys,ct_instrresp.rt,key_resp_2.keys,key_resp_2.rt,ct_keyResp.keys,ct_keyResp.corr,ct_keyResp.rt,trials.thisRepN,trials.thisTrialN,trials.thisN,trials.thisIndex,trials.ran,leftNo,rightNo,displayProblem,numDistance,leftNo_size,rightNo_size,Dims,keyAnswer,TS_Loop.thisRepN,TS_Loop.thisTrialN,TS_Loop.thisN,TS_Loop.thisIndex,TS_Loop.ran,Condition,ActionInst,instrImage,mltptaskInst_resp.keys,mltptaskInst_resp.rt,continue_resp_2.keys,continue_resp_2.rt,multp_Answer,multi_RT,multiplyCorr,LoopingMultiply.thisRepN,LoopingMultiply.thisTrialN,LoopingMultiply.thisN,LoopingMultiply.thisIndex,LoopingMultiply.ran,factor1,multiplySign,factor2,multliplyProblem,physicalSize,orderOperand,sizeF1,sizeF2,mult_answer,trials_stroop.thisRepN,trials_stroop.thisTrialN,trials_stroop.thisN,trials_stroop.thisIndex,trials_stroop.ran,multiplicationFile,esckey_resp_2.keys,esckey_resp_2.rt
y,14.4418,42,37.6,right,1,0.6947,0,0,0,9,1,2,200,right,7852,2022-02-26_19h10.35.789,multiplicationStroop,2021.2.3,Win32,59.80145916,,,,,,,,,,,,,,,,,,,,,,,,,,,,,,,,,,,,,,,,,,,,,,,,,,,,,,,,,
,,,,left,1,0.8172,0,1,1,2,1,3,-200,left,7852,2022-02-26_19h10.35.789,multiplicationStroop,2021.2.3,Win32,59.80145916,,,,,,,,,,,,,,,,,,,,,,,,,,,,,,,,,,,,,,,,,,,,,,,,,,,,,,,,,
,,,,right,1,0.467,0,2,2,15,1,9,200,right,7852,2022-02-26_19h10.35.789,multiplicationStroop,2021.2.3,Win32,59.80145916,,,,,,,,,,,,,,,,,,,,,,,,,,,,,,,,,,,,,,,,,,,,,,,,,,,,,,,,,
,,,,left,1,0.6429,0,3,3,7,1,9,-200,left,7852,2022-02-26_19h10.35.789,multiplicationStroop,2021.2.3,Win32,59.80145916,,,,,,,,,,,,,,,,,,,,,,,,,,,,,,,,,,,,,,,,,,,,,,,,,,,,,,,,,
,,,,left,1,0.5183,0,4,4,0,1,1,-200,left,7852,2022-02-26_19h10.35.789,multiplicationStroop,2021.2.3,Win32,59.80145916,,,,,,,,,,,,,,,,,,,,,,,,,,,,,,,,,,,,,,,,,,,,,,,,,,,,,,,,,
,,,,left,1,0.4677,0,5,5,6,1,8,-200,left,7852,2022-02-26_19h10.35.789,multiplicationStroop,2021.2.3,Win32,59.80145916,,,,,,,,,,,,,,,,,,,,,,,,,,,,,,,,,,,,,,,,,,,,,,,,,,,,,,,,,
,,,,right,1,0.4002,0,6,6,10,1,3,200,right,7852,2022-02-26_19h10.35.789,multiplicationStroop,2021.2.3,Win32,59.80145916,,,,,,,,,,,,,,,,,,,,,,,,,,,,,,,,,,,,,,,,,,,,,,,,,,,,,,,,,
,,,,right,1,0.4623,0,7,7,8,1,1,200,right,7852,2022-02-26_19h10.35.789,multiplicationStroop,2021.2.3,Win32,59.80145916,,,,,,,,,,,,,,,,,,,,,,,,,,,,,,,,,,,,,,,,,,,,,,,,,,,,,,,,,
,,,,left,1,0.4831,0,8,8,3,1,4,-200,left,7852,2022-02-26_19h10.35.789,multiplicationStroop,2021.2.3,Win32,59.80145916,,,,,,,,,,,,,,,,,,,,,,,,,,,,,,,,,,,,,,,,,,,,,,,,,,,,,,,,,
,,,,right,1,0.4569,0,9,9,13,1,7,200,right,7852,2022-02-26_19h10.35.789,multiplicationStroop,2021.2.3,Win32,59.80145916,,,,,,,,,,,,,,,,,,,,,,,,,,,,,,,,,,,,,,,,,,,,,,,,,,,,,,,,,
,,,,right,1,0.3944,0,10,10,11,1,4,200,right,7852,2022-02-26_19h10.35.789,multiplicationStroop,2021.2.3,Win32,59.80145916,,,,,,,,,,,,,,,,,,,,,,,,,,,,,,,,,,,,,,,,,,,,,,,,,,,,,,,,,
,,,,right,1,0.4021,0,11,11,14,1,8,200,right,7852,2022-02-26_19h10.35.789,multiplicationStroop,2021.2.3,Win32,59.80145916,,,,,,,,,,,,,,,,,,,,,,,,,,,,,,,,,,,,,,,,,,,,,,,,,,,,,,,,,
,,,,left,1,0.436,0,12,12,4,1,6,-200,left,7852,2022-02-26_19h10.35.789,multiplicationStroop,2021.2.3,Win32,59.80145916,,,,,,,,,,,,,,,,,,,,,,,,,,,,,,,,,,,,,,,,,,,,,,,,,,,,,,,,,
,,,,right,1,0.4181,0,13,13,12,1,6,200,right,7852,2022-02-26_19h10.35.789,multiplicationStroop,2021.2.3,Win32,59.80145916,,,,,,,,,,,,,,,,,,,,,,,,,,,,,,,,,,,,,,,,,,,,,,,,,,,,,,,,,
,,,,left,1,0.4733,0,14,14,1,1,2,-200,left,7852,2022-02-26_19h10.35.789,multiplicationStroop,2021.2.3,Win32,59.80145916,,,,,,,,,,,,,,,,,,,,,,,,,,,,,,,,,,,,,,,,,,,,,,,,,,,,,,,,,
,,,,left,1,0.4505,0,15,15,5,1,7,-200,left,7852,2022-02-26_19h10.35.789,multiplicationStroop,2021.2.3,Win32,59.80145916,,,,,,,,,,,,,,,,,,,,,,,,,,,,,,,,,,,,,,,,,,,,,,,,,,,,,,,,,
,,,,right,1,0.4014,1,0,16,10,1,3,200,right,7852,2022-02-26_19h10.35.789,multiplicationStroop,2021.2.3,Win32,59.80145916,,,,,,,,,,,,,,,,,,,,,,,,,,,,,,,,,,,,,,,,,,,,,,,,,,,,,,,,,
,,,,left,1,0.4594,1,1,17,1,1,2,-200,left,7852,2022-02-26_19h10.35.789,multiplicationStroop,2021.2.3,Win32,59.80145916,,,,,,,,,,,,,,,,,,,,,,,,,,,,,,,,,,,,,,,,,,,,,,,,,,,,,,,,,
,,,,right,1,0.4179,1,2,18,13,1,7,200,right,7852,2022-02-26_19h10.35.789,multiplicationStroop,2021.2.3,Win32,59.80145916,,,,,,,,,,,,,,,,,,,,,,,,,,,,,,,,,,,,,,,,,,,,,,,,,,,,,,,,,
,,,,right,1,0.3849,1,3,19,14,1,8,200,right,7852,2022-02-26_19h10.35.789,multiplicationStroop,2021.2.3,Win32,59.80145916,,,,,,,,,,,,,,,,,,,,,,,,,,,,,,,,,,,,,,,,,,,,,,,,,,,,,,,,,
,,,,right,1,0.3571,1,4,20,9,1,2,200,right,7852,2022-02-26_19h10.35.789,multiplicationStroop,2021.2.3,Win32,59.80145916,,,,,,,,,,,,,,,,,,,,,,,,,,,,,,,,,,,,,,,,,,,,,,,,,,,,,,,,,
,,,,right,1,0.3999,1,5,21,12,1,6,200,right,7852,2022-02-26_19h10.35.789,multiplicationStroop,2021.2.3,Win32,59.80145916,,,,,,,,,,,,,,,,,,,,,,,,,,,,,,,,,,,,,,,,,,,,,,,,,,,,,,,,,
,,,,right,1,0.3827,1,6,22,15,1,9,200,right,7852,2022-02-26_19h10.35.789,multiplicationStroop,2021.2.3,Win32,59.80145916,,,,,,,,,,,,,,,,,,,,,,,,,,,,,,,,,,,,,,,,,,,,,,,,,,,,,,,,,
,,,,left,1,0.4447,1,7,23,7,1,9,-200,left,7852,2022-02-26_19h10.35.789,multiplicationStroop,2021.2.3,Win32,59.80145916,,,,,,,,,,,,,,,,,,,,,,,,,,,,,,,,,,,,,,,,,,,,,,,,,,,,,,,,,
,,,,left,1,0.4662,1,8,24,0,1,1,-200,left,7852,2022-02-26_19h10.35.789,multiplicationStroop,2021.2.3,Win32,59.80145916,,,,,,,,,,,,,,,,,,,,,,,,,,,,,,,,,,,,,,,,,,,,,,,,,,,,,,,,,
,,,,right,1,0.4848,1,9,25,8,1,1,200,right,7852,2022-02-26_19h10.35.789,multiplicationStroop,2021.2.3,Win32,59.80145916,,,,,,,,,,,,,,,,,,,,,,,,,,,,,,,,,,,,,,,,,,,,,,,,,,,,,,,,,
,,,,right,1,0.4447,1,10,26,11,1,4,200,right,7852,2022-02-26_19h10.35.789,multiplicationStroop,2021.2.3,Win32,59.80145916,,,,,,,,,,,,,,,,,,,,,,,,,,,,,,,,,,,,,,,,,,,,,,,,,,,,,,,,,
,,,,left,1,0.4172,1,11,27,5,1,7,-200,left,7852,2022-02-26_19h10.35.789,multiplicationStroop,2021.2.3,Win32,59.80145916,,,,,,,,,,,,,,,,,,,,,,,,,,,,,,,,,,,,,,,,,,,,,,,,,,,,,,,,,
,,,,left,1,0.4339,1,12,28,2,1,3,-200,left,7852,2022-02-26_19h10.35.789,multiplicationStroop,2021.2.3,Win32,59.80145916,,,,,,,,,,,,,,,,,,,,,,,,,,,,,,,,,,,,,,,,,,,,,,,,,,,,,,,,,
,,,,left,1,0.3832,1,13,29,4,1,6,-200,left,7852,2022-02-26_19h10.35.789,multiplicationStroop,2021.2.3,Win32,59.80145916,,,,,,,,,,,,,,,,,,,,,,,,,,,,,,,,,,,,,,,,,,,,,,,,,,,,,,,,,
,,,,left,1,0.4017,1,14,30,6,1,8,-200,left,7852,2022-02-26_19h10.35.789,multiplicationStroop,2021.2.3,Win32,59.80145916,,,,,,,,,,,,,,,,,,,,,,,,,,,,,,,,,,,,,,,,,,,,,,,,,,,,,,,,,
,,,,left,1,0.3831,1,15,31,3,1,4,-200,left,7852,2022-02-26_19h10.35.789,multiplicationStroop,2021.2.3,Win32,59.80145916,,,,,,,,,,,,,,,,,,,,,,,,,,,,,,,,,,,,,,,,,,,,,,,,,,,,,,,,,
,,,,left,1,0.4205,2,0,32,3,1,4,-200,left,7852,2022-02-26_19h10.35.789,multiplicationStroop,2021.2.3,Win32,59.80145916,,,,,,,,,,,,,,,,,,,,,,,,,,,,,,,,,,,,,,,,,,,,,,,,,,,,,,,,,
,,,,left,1,0.4176,2,1,33,5,1,7,-200,left,7852,2022-02-26_19h10.35.789,multiplicationStroop,2021.2.3,Win32,59.80145916,,,,,,,,,,,,,,,,,,,,,,,,,,,,,,,,,,,,,,,,,,,,,,,,,,,,,,,,,
,,,,left,1,0.3509,2,2,34,7,1,9,-200,left,7852,2022-02-26_19h10.35.789,multiplicationStroop,2021.2.3,Win32,59.80145916,,,,,,,,,,,,,,,,,,,,,,,,,,,,,,,,,,,,,,,,,,,,,,,,,,,,,,,,,
,,,,right,1,0.4184,2,3,35,10,1,3,200,right,7852,2022-02-26_19h10.35.789,multiplicationStroop,2021.2.3,Win32,59.80145916,,,,,,,,,,,,,,,,,,,,,,,,,,,,,,,,,,,,,,,,,,,,,,,,,,,,,,,,,
,,,,left,1,0.3665,2,4,36,4,1,6,-200,left,7852,2022-02-26_19h10.35.789,multiplicationStroop,2021.2.3,Win32,59.80145916,,,,,,,,,,,,,,,,,,,,,,,,,,,,,,,,,,,,,,,,,,,,,,,,,,,,,,,,,
,,,,right,1,0.3218,2,5,37,12,1,6,200,right,7852,2022-02-26_19h10.35.789,multiplicationStroop,2021.2.3,Win32,59.80145916,,,,,,,,,,,,,,,,,,,,,,,,,,,,,,,,,,,,,,,,,,,,,,,,,,,,,,,,,
,,,,right,1,0.4001,2,6,38,11,1,4,200,right,7852,2022-02-26_19h10.35.789,multiplicationStroop,2021.2.3,Win32,59.80145916,,,,,,,,,,,,,,,,,,,,,,,,,,,,,,,,,,,,,,,,,,,,,,,,,,,,,,,,,
,,,,left,1,0.3934,2,7,39,6,1,8,-200,left,7852,2022-02-26_19h10.35.789,multiplicationStroop,2021.2.3,Win32,59.80145916,,,,,,,,,,,,,,,,,,,,,,,,,,,,,,,,,,,,,,,,,,,,,,,,,,,,,,,,,
,,,,right,1,0.3755,2,8,40,8,1,1,200,right,7852,2022-02-26_19h10.35.789,multiplicationStroop,2021.2.3,Win32,59.80145916,,,,,,,,,,,,,,,,,,,,,,,,,,,,,,,,,,,,,,,,,,,,,,,,,,,,,,,,,
,,,,left,1,0.3507,2,9,41,1,1,2,-200,left,7852,2022-02-26_19h10.35.789,multiplicationStroop,2021.2.3,Win32,59.80145916,,,,,,,,,,,,,,,,,,,,,,,,,,,,,,,,,,,,,,,,,,,,,,,,,,,,,,,,,
,,,,right,1,0.3621,2,10,42,13,1,7,200,right,7852,2022-02-26_19h10.35.789,multiplicationStroop,2021.2.3,Win32,59.80145916,,,,,,,,,,,,,,,,,,,,,,,,,,,,,,,,,,,,,,,,,,,,,,,,,,,,,,,,,
,,,,right,1,0.401,2,11,43,14,1,8,200,right,7852,2022-02-26_19h10.35.789,multiplicationStroop,2021.2.3,Win32,59.80145916,,,,,,,,,,,,,,,,,,,,,,,,,,,,,,,,,,,,,,,,,,,,,,,,,,,,,,,,,
,,,,right,1,0.367,2,12,44,9,1,2,200,right,7852,2022-02-26_19h10.35.789,multiplicationStroop,2021.2.3,Win32,59.80145916,,,,,,,,,,,,,,,,,,,,,,,,,,,,,,,,,,,,,,,,,,,,,,,,,,,,,,,,,
,,,,right,1,0.4053,2,13,45,15,1,9,200,right,7852,2022-02-26_19h10.35.789,multiplicationStroop,2021.2.3,Win32,59.80145916,,,,,,,,,,,,,,,,,,,,,,,,,,,,,,,,,,,,,,,,,,,,,,,,,,,,,,,,,
,,,,left,1,0.4006,2,14,46,0,1,1,-200,left,7852,2022-02-26_19h10.35.789,multiplicationStroop,2021.2.3,Win32,59.80145916,,,,,,,,,,,,,,,,,,,,,,,,,,,,,,,,,,,,,,,,,,,,,,,,,,,,,,,,,
,,,,left,1,0.4367,2,15,47,2,1,3,-200,left,7852,2022-02-26_19h10.35.789,multiplicationStroop,2021.2.3,Win32,59.80145916,,,,,,,,,,,,,,,,,,,,,,,,,,,,,,,,,,,,,,,,,,,,,,,,,,,,,,,,,
,,,,left,1,0.316,3,0,48,5,1,7,-200,left,7852,2022-02-26_19h10.35.789,multiplicationStroop,2021.2.3,Win32,59.80145916,,,,,,,,,,,,,,,,,,,,,,,,,,,,,,,,,,,,,,,,,,,,,,,,,,,,,,,,,
,,,,right,1,0.3834,3,1,49,15,1,9,200,right,7852,2022-02-26_19h10.35.789,multiplicationStroop,2021.2.3,Win32,59.80145916,,,,,,,,,,,,,,,,,,,,,,,,,,,,,,,,,,,,,,,,,,,,,,,,,,,,,,,,,
,,,,left,1,0.6052,3,2,50,3,1,4,-200,left,7852,2022-02-26_19h10.35.789,multiplicationStroop,2021.2.3,Win32,59.80145916,,,,,,,,,,,,,,,,,,,,,,,,,,,,,,,,,,,,,,,,,,,,,,,,,,,,,,,,,
,,,,left,1,0.4169,3,3,51,4,1,6,-200,left,7852,2022-02-26_19h10.35.789,multiplicationStroop,2021.2.3,Win32,59.80145916,,,,,,,,,,,,,,,,,,,,,,,,,,,,,,,,,,,,,,,,,,,,,,,,,,,,,,,,,
,,,,right,1,0.4097,3,4,52,8,1,1,200,right,7852,2022-02-26_19h10.35.789,multiplicationStroop,2021.2.3,Win32,59.80145916,,,,,,,,,,,,,,,,,,,,,,,,,,,,,,,,,,,,,,,,,,,,,,,,,,,,,,,,,
,,,,right,1,0.4171,3,5,53,14,1,8,200,right,7852,2022-02-26_19h10.35.789,multiplicationStroop,2021.2.3,Win32,59.80145916,,,,,,,,,,,,,,,,,,,,,,,,,,,,,,,,,,,,,,,,,,,,,,,,,,,,,,,,,
,,,,left,1,0.4177,3,6,54,6,1,8,-200,left,7852,2022-02-26_19h10.35.789,multiplicationStroop,2021.2.3,Win32,59.80145916,,,,,,,,,,,,,,,,,,,,,,,,,,,,,,,,,,,,,,,,,,,,,,,,,,,,,,,,,
,,,,left,1,0.3832,3,7,55,7,1,9,-200,left,7852,2022-02-26_19h10.35.789,multiplicationStroop,2021.2.3,Win32,59.80145916,,,,,,,,,,,,,,,,,,,,,,,,,,,,,,,,,,,,,,,,,,,,,,,,,,,,,,,,,
,,,,right,1,0.3619,3,8,56,10,1,3,200,right,7852,2022-02-26_19h10.35.789,multiplicationStroop,2021.2.3,Win32,59.80145916,,,,,,,,,,,,,,,,,,,,,,,,,,,,,,,,,,,,,,,,,,,,,,,,,,,,,,,,,
,,,,right,1,0.3846,3,9,57,11,1,4,200,right,7852,2022-02-26_19h10.35.789,multiplicationStroop,2021.2.3,Win32,59.80145916,,,,,,,,,,,,,,,,,,,,,,,,,,,,,,,,,,,,,,,,,,,,,,,,,,,,,,,,,
,,,,left,1,0.3761,3,10,58,2,1,3,-200,left,7852,2022-02-26_19h10.35.789,multiplicationStroop,2021.2.3,Win32,59.80145916,,,,,,,,,,,,,,,,,,,,,,,,,,,,,,,,,,,,,,,,,,,,,,,,,,,,,,,,,
,,,,right,1,0.4161,3,11,59,9,1,2,200,right,7852,2022-02-26_19h10.35.789,multiplicationStroop,2021.2.3,Win32,59.80145916,,,,,,,,,,,,,,,,,,,,,,,,,,,,,,,,,,,,,,,,,,,,,,,,,,,,,,,,,
,,,,right,1,0.4012,3,12,60,13,1,7,200,right,7852,2022-02-26_19h10.35.789,multiplicationStroop,2021.2.3,Win32,59.80145916,,,,,,,,,,,,,,,,,,,,,,,,,,,,,,,,,,,,,,,,,,,,,,,,,,,,,,,,,
,,,,right,1,0.3717,3,13,61,12,1,6,200,right,7852,2022-02-26_19h10.35.789,multiplicationStroop,2021.2.3,Win32,59.80145916,,,,,,,,,,,,,,,,,,,,,,,,,,,,,,,,,,,,,,,,,,,,,,,,,,,,,,,,,
,,,,left,1,0.4018,3,14,62,0,1,1,-200,left,7852,2022-02-26_19h10.35.789,multiplicationStroop,2021.2.3,Win32,59.80145916,,,,,,,,,,,,,,,,,,,,,,,,,,,,,,,,,,,,,,,,,,,,,,,,,,,,,,,,,
,,,,left,1,0.3997,3,15,63,1,1,2,-200,left,7852,2022-02-26_19h10.35.789,multiplicationStroop,2021.2.3,Win32,59.80145916,,,,,,,,,,,,,,,,,,,,,,,,,,,,,,,,,,,,,,,,,,,,,,,,,,,,,,,,,
,,,,,,,,,,,,,,,7852,2022-02-26_19h10.35.789,multiplicationStroop,2021.2.3,Win32,59.80145916,space,11.4269,space,5.5993,right,1,0.7034,0,0,0,16,1,1,6,1 | 6,5,1.4111,1.9756,congruent,right,,,,,,stimulusFile/magnitude.xlsx,,,,,,,,,,,,,,,,,,,,,,,,,,,,,,,
,,,,,,,,,,,,,,,7852,2022-02-26_19h10.35.789,multiplicationStroop,2021.2.3,Win32,59.80145916,,,,,left,0,0.8231,0,1,1,41,1,2,7,2 | 7,5,1.9756,1.4111,incongruent,right,,,,,,stimulusFile/magnitude.xlsx,,,,,,,,,,,,,,,,,,,,,,,,,,,,,,,
,,,,,,,,,,,,,,,7852,2022-02-26_19h10.35.789,multiplicationStroop,2021.2.3,Win32,59.80145916,,,,,right,1,1.2533,0,2,2,50,1,6,7,6 | 7,1,1.6933,1.6933,neutral,right,,,,,,stimulusFile/magnitude.xlsx,,,,,,,,,,,,,,,,,,,,,,,,,,,,,,,
,,,,,,,,,,,,,,,7852,2022-02-26_19h10.35.789,multiplicationStroop,2021.2.3,Win32,59.80145916,,,,,right,1,0.605,0,3,3,11,1,7,9,7 | 9,2,1.4111,1.9756,congruent,right,,,,,,stimulusFile/magnitude.xlsx,,,,,,,,,,,,,,,,,,,,,,,,,,,,,,,
,,,,,,,,,,,,,,,7852,2022-02-26_19h10.35.789,multiplicationStroop,2021.2.3,Win32,59.80145916,,,,,left,1,0.8078,0,4,4,38,1,8,6,8 | 6,2,1.4111,1.9756,incongruent,left,,,,,,stimulusFile/magnitude.xlsx,,,,,,,,,,,,,,,,,,,,,,,,,,,,,,,
,,,,,,,,,,,,,,,7852,2022-02-26_19h10.35.789,multiplicationStroop,2021.2.3,Win32,59.80145916,,,,,right,1,0.7022,0,5,5,0,1,1,2,1 | 2,1,1.4111,1.9756,congruent,right,,,,,,stimulusFile/magnitude.xlsx,,,,,,,,,,,,,,,,,,,,,,,,,,,,,,,
,,,,,,,,,,,,,,,7852,2022-02-26_19h10.35.789,multiplicationStroop,2021.2.3,Win32,59.80145916,,,,,right,1,0.7786,0,6,6,43,1,4,9,4 | 9,5,1.9756,1.4111,incongruent,right,,,,,,stimulusFile/magnitude.xlsx,,,,,,,,,,,,,,,,,,,,,,,,,,,,,,,
,,,,,,,,,,,,,,,7852,2022-02-26_19h10.35.789,multiplicationStroop,2021.2.3,Win32,59.80145916,,,,,right,1,0.6638,0,7,7,10,1,6,8,6 | 8,2,1.4111,1.9756,congruent,right,,,,,,stimulusFile/magnitude.xlsx,,,,,,,,,,,,,,,,,,,,,,,,,,,,,,,
,,,,,,,,,,,,,,,7852,2022-02-26_19h10.35.789,multiplicationStroop,2021.2.3,Win32,59.80145916,,,,,left,1,0.6741,0,8,8,37,1,4,2,4 | 2,2,1.4111,1.9756,incongruent,left,,,,,,stimulusFile/magnitude.xlsx,,,,,,,,,,,,,,,,,,,,,,,,,,,,,,,
,,,,,,,,,,,,,,,7852,2022-02-26_19h10.35.789,multiplicationStroop,2021.2.3,Win32,59.80145916,,,,,left,1,0.6342,0,9,9,4,1,2,1,2 | 1,1,1.9756,1.4111,congruent,left,,,,,,stimulusFile/magnitude.xlsx,,,,,,,,,,,,,,,,,,,,,,,,,,,,,,,
,,,,,,,,,,,,,,,7852,2022-02-26_19h10.35.789,multiplicationStroop,2021.2.3,Win32,59.80145916,,,,,left,1,0.5628,0,10,10,13,1,4,2,4 | 2,2,1.9756,1.4111,congruent,left,,,,,,stimulusFile/magnitude.xlsx,,,,,,,,,,,,,,,,,,,,,,,,,,,,,,,
,,,,,,,,,,,,,,,7852,2022-02-26_19h10.35.789,multiplicationStroop,2021.2.3,Win32,59.80145916,,,,,left,1,0.6689,0,11,11,52,1,2,1,2 | 1,1,1.6933,1.6933,neutral,left,,,,,,stimulusFile/magnitude.xlsx,,,,,,,,,,,,,,,,,,,,,,,,,,,,,,,
,,,,,,,,,,,,,,,7852,2022-02-26_19h10.35.789,multiplicationStroop,2021.2.3,Win32,59.80145916,,,,,right,1,0.6127,0,12,12,56,1,1,3,1 | 3,2,1.6933,1.6933,neutral,right,,,,,,stimulusFile/magnitude.xlsx,,,,,,,,,,,,,,,,,,,,,,,,,,,,,,,
,,,,,,,,,,,,,,,7852,2022-02-26_19h10.35.789,multiplicationStroop,2021.2.3,Win32,59.80145916,,,,,left,1,0.7518,0,13,13,30,1,7,6,7 | 6,1,1.4111,1.9756,incongruent,left,,,,,,stimulusFile/magnitude.xlsx,,,,,,,,,,,,,,,,,,,,,,,,,,,,,,,
,,,,,,,,,,,,,,,7852,2022-02-26_19h10.35.789,multiplicationStroop,2021.2.3,Win32,59.80145916,,,,,left,1,0.9591,0,14,14,36,1,3,1,3 | 1,2,1.4111,1.9756,incongruent,left,,,,,,stimulusFile/magnitude.xlsx,,,,,,,,,,,,,,,,,,,,,,,,,,,,,,,
,,,,,,,,,,,,,,,7852,2022-02-26_19h10.35.789,multiplicationStroop,2021.2.3,Win32,59.80145916,,,,,left,1,0.8084,0,15,15,28,1,2,1,2 | 1,1,1.4111,1.9756,incongruent,left,,,,,,stimulusFile/magnitude.xlsx,,,,,,,,,,,,,,,,,,,,,,,,,,,,,,,
,,,,,,,,,,,,,,,7852,2022-02-26_19h10.35.789,multiplicationStroop,2021.2.3,Win32,59.80145916,,,,,left,1,0.7426,0,16,16,20,1,6,1,6 | 1,5,1.9756,1.4111,congruent,left,,,,,,stimulusFile/magnitude.xlsx,,,,,,,,,,,,,,,,,,,,,,,,,,,,,,,
,,,,,,,,,,,,,,,7852,2022-02-26_19h10.35.789,multiplicationStroop,2021.2.3,Win32,59.80145916,,,,,left,0,1.0938,0,17,17,24,1,1,2,1 | 2,1,1.9756,1.4111,incongruent,right,,,,,,stimulusFile/magnitude.xlsx,,,,,,,,,,,,,,,,,,,,,,,,,,,,,,,
,,,,,,,,,,,,,,,7852,2022-02-26_19h10.35.789,multiplicationStroop,2021.2.3,Win32,59.80145916,,,,,right,1,0.6072,0,18,18,19,1,4,9,4 | 9,5,1.4111,1.9756,congruent,right,,,,,,stimulusFile/magnitude.xlsx,,,,,,,,,,,,,,,,,,,,,,,,,,,,,,,
,,,,,,,,,,,,,,,7852,2022-02-26_19h10.35.789,multiplicationStroop,2021.2.3,Win32,59.80145916,,,,,right,1,0.7287,0,19,19,48,1,1,2,1 | 2,1,1.6933,1.6933,neutral,right,,,,,,stimulusFile/magnitude.xlsx,,,,,,,,,,,,,,,,,,,,,,,,,,,,,,,
,,,,,,,,,,,,,,,7852,2022-02-26_19h10.35.789,multiplicationStroop,2021.2.3,Win32,59.80145916,,,,,right,1,0.7722,0,20,20,32,1,1,3,1 | 3,2,1.9756,1.4111,incongruent,right,,,,,,stimulusFile/magnitude.xlsx,,,,,,,,,,,,,,,,,,,,,,,,,,,,,,,
,,,,,,,,,,,,,,,7852,2022-02-26_19h10.35.789,multiplicationStroop,2021.2.3,Win32,59.80145916,,,,,right,1,0.728,0,21,21,58,1,6,8,6 | 8,2,1.6933,1.6933,neutral,right,,,,,,stimulusFile/magnitude.xlsx,,,,,,,,,,,,,,,,,,,,,,,,,,,,,,,
,,,,,,,,,,,,,,,7852,2022-02-26_19h10.35.789,multiplicationStroop,2021.2.3,Win32,59.80145916,,,,,left,1,0.7033,0,22,22,22,1,8,3,8 | 3,5,1.9756,1.4111,congruent,left,,,,,,stimulusFile/magnitude.xlsx,,,,,,,,,,,,,,,,,,,,,,,,,,,,,,,
,,,,,,,,,,,,,,,7852,2022-02-26_19h10.35.789,multiplicationStroop,2021.2.3,Win32,59.80145916,,,,,left,1,0.6316,0,23,23,68,1,6,1,6 | 1,5,1.6933,1.6933,neutral,left,,,,,,stimulusFile/magnitude.xlsx,,,,,,,,,,,,,,,,,,,,,,,,,,,,,,,
,,,,,,,,,,,,,,,7852,2022-02-26_19h10.35.789,multiplicationStroop,2021.2.3,Win32,59.80145916,,,,,right,1,0.6699,0,24,24,59,1,7,9,7 | 9,2,1.6933,1.6933,neutral,right,,,,,,stimulusFile/magnitude.xlsx,,,,,,,,,,,,,,,,,,,,,,,,,,,,,,,
,,,,,,,,,,,,,,,7852,2022-02-26_19h10.35.789,multiplicationStroop,2021.2.3,Win32,59.80145916,,,,,left,1,0.6558,0,25,25,21,1,7,2,7 | 2,5,1.9756,1.4111,congruent,left,,,,,,stimulusFile/magnitude.xlsx,,,,,,,,,,,,,,,,,,,,,,,,,,,,,,,
,,,,,,,,,,,,,,,7852,2022-02-26_19h10.35.789,multiplicationStroop,2021.2.3,Win32,59.80145916,,,,,left,1,0.6471,0,26,26,70,1,8,3,8 | 3,5,1.6933,1.6933,neutral,left,,,,,,stimulusFile/magnitude.xlsx,,,,,,,,,,,,,,,,,,,,,,,,,,,,,,,
,,,,,,,,,,,,,,,7852,2022-02-26_19h10.35.789,multiplicationStroop,2021.2.3,Win32,59.80145916,,,,,left,1,0.6505,0,27,27,14,1,8,6,8 | 6,2,1.9756,1.4111,congruent,left,,,,,,stimulusFile/magnitude.xlsx,,,,,,,,,,,,,,,,,,,,,,,,,,,,,,,
,,,,,,,,,,,,,,,7852,2022-02-26_19h10.35.789,multiplicationStroop,2021.2.3,Win32,59.80145916,,,,,right,1,0.6502,0,28,28,17,1,2,7,2 | 7,5,1.4111,1.9756,congruent,right,,,,,,stimulusFile/magnitude.xlsx,,,,,,,,,,,,,,,,,,,,,,,,,,,,,,,
,,,,,,,,,,,,,,,7852,2022-02-26_19h10.35.789,multiplicationStroop,2021.2.3,Win32,59.80145916,,,,,right,1,0.9306,0,29,29,49,1,3,4,3 | 4,1,1.6933,1.6933,neutral,right,,,,,,stimulusFile/magnitude.xlsx,,,,,,,,,,,,,,,,,,,,,,,,,,,,,,,
,,,,,,,,,,,,,,,7852,2022-02-26_19h10.35.789,multiplicationStroop,2021.2.3,Win32,59.80145916,,,,,left,1,0.661,0,30,30,39,1,9,7,9 | 7,2,1.4111,1.9756,incongruent,left,,,,,,stimulusFile/magnitude.xlsx,,,,,,,,,,,,,,,,,,,,,,,,,,,,,,,
,,,,,,,,,,,,,,,7852,2022-02-26_19h10.35.789,multiplicationStroop,2021.2.3,Win32,59.80145916,,,,,left,1,0.7811,0,31,31,53,1,4,3,4 | 3,1,1.6933,1.6933,neutral,left,,,,,,stimulusFile/magnitude.xlsx,,,,,,,,,,,,,,,,,,,,,,,,,,,,,,,
,,,,,,,,,,,,,,,7852,2022-02-26_19h10.35.789,multiplicationStroop,2021.2.3,Win32,59.80145916,,,,,right,1,0.832,0,32,32,57,1,2,4,2 | 4,2,1.6933,1.6933,neutral,right,,,,,,stimulusFile/magnitude.xlsx,,,,,,,,,,,,,,,,,,,,,,,,,,,,,,,
,,,,,,,,,,,,,,,7852,2022-02-26_19h10.35.789,multiplicationStroop,2021.2.3,Win32,59.80145916,,,,,left,1,0.6761,0,33,33,6,1,7,6,7 | 6,1,1.9756,1.4111,congruent,left,,,,,,stimulusFile/magnitude.xlsx,,,,,,,,,,,,,,,,,,,,,,,,,,,,,,,
,,,,,,,,,,,,,,,7852,2022-02-26_19h10.35.789,multiplicationStroop,2021.2.3,Win32,59.80145916,,,,,left,1,0.7441,0,34,34,44,1,6,1,6 | 1,5,1.4111,1.9756,incongruent,left,,,,,,stimulusFile/magnitude.xlsx,,,,,,,,,,,,,,,,,,,,,,,,,,,,,,,
,,,,,,,,,,,,,,,7852,2022-02-26_19h10.35.789,multiplicationStroop,2021.2.3,Win32,59.80145916,,,,,left,1,0.8705,0,35,35,55,1,9,8,9 | 8,1,1.6933,1.6933,neutral,left,,,,,,stimulusFile/magnitude.xlsx,,,,,,,,,,,,,,,,,,,,,,,,,,,,,,,
,,,,,,,,,,,,,,,7852,2022-02-26_19h10.35.789,multiplicationStroop,2021.2.3,Win32,59.80145916,,,,,left,1,0.6157,0,36,36,60,1,3,1,3 | 1,2,1.6933,1.6933,neutral,left,,,,,,stimulusFile/magnitude.xlsx,,,,,,,,,,,,,,,,,,,,,,,,,,,,,,,
,,,,,,,,,,,,,,,7852,2022-02-26_19h10.35.789,multiplicationStroop,2021.2.3,Win32,59.80145916,,,,,left,1,0.9644,0,37,37,69,1,7,2,7 | 2,5,1.6933,1.6933,neutral,left,,,,,,stimulusFile/magnitude.xlsx,,,,,,,,,,,,,,,,,,,,,,,,,,,,,,,
,,,,,,,,,,,,,,,7852,2022-02-26_19h10.35.789,multiplicationStroop,2021.2.3,Win32,59.80145916,,,,,right,1,0.6485,0,38,38,26,1,6,7,6 | 7,1,1.9756,1.4111,incongruent,right,,,,,,stimulusFile/magnitude.xlsx,,,,,,,,,,,,,,,,,,,,,,,,,,,,,,,
,,,,,,,,,,,,,,,7852,2022-02-26_19h10.35.789,multiplicationStroop,2021.2.3,Win32,59.80145916,,,,,right,1,0.9654,0,39,39,67,1,4,9,4 | 9,5,1.6933,1.6933,neutral,right,,,,,,stimulusFile/magnitude.xlsx,,,,,,,,,,,,,,,,,,,,,,,,,,,,,,,
,,,,,,,,,,,,,,,7852,2022-02-26_19h10.35.789,multiplicationStroop,2021.2.3,Win32,59.80145916,,,,,left,0,0.5653,0,40,40,25,1,3,4,3 | 4,1,1.9756,1.4111,incongruent,right,,,,,,stimulusFile/magnitude.xlsx,,,,,,,,,,,,,,,,,,,,,,,,,,,,,,,
,,,,,,,,,,,,,,,7852,2022-02-26_19h10.35.789,multiplicationStroop,2021.2.3,Win32,59.80145916,,,,,right,1,1.0219,0,41,41,40,1,1,6,1 | 6,5,1.9756,1.4111,incongruent,right,,,,,,stimulusFile/magnitude.xlsx,,,,,,,,,,,,,,,,,,,,,,,,,,,,,,,
,,,,,,,,,,,,,,,7852,2022-02-26_19h10.35.789,multiplicationStroop,2021.2.3,Win32,59.80145916,,,,,left,0,0.5661,0,42,42,33,1,2,4,2 | 4,2,1.9756,1.4111,incongruent,right,,,,,,stimulusFile/magnitude.xlsx,,,,,,,,,,,,,,,,,,,,,,,,,,,,,,,
,,,,,,,,,,,,,,,7852,2022-02-26_19h10.35.789,multiplicationStroop,2021.2.3,Win32,59.80145916,,,,,right,1,1.1281,0,43,43,1,1,3,4,3 | 4,1,1.4111,1.9756,congruent,right,,,,,,stimulusFile/magnitude.xlsx,,,,,,,,,,,,,,,,,,,,,,,,,,,,,,,
,,,,,,,,,,,,,,,7852,2022-02-26_19h10.35.789,multiplicationStroop,2021.2.3,Win32,59.80145916,,,,,right,1,0.8976,0,44,44,2,1,6,7,6 | 7,1,1.4111,1.9756,congruent,right,,,,,,stimulusFile/magnitude.xlsx,,,,,,,,,,,,,,,,,,,,,,,,,,,,,,,
,,,,,,,,,,,,,,,7852,2022-02-26_19h10.35.789,multiplicationStroop,2021.2.3,Win32,59.80145916,,,,,left,1,0.6036,0,45,45,46,1,8,3,8 | 3,5,1.4111,1.9756,incongruent,left,,,,,,stimulusFile/magnitude.xlsx,,,,,,,,,,,,,,,,,,,,,,,,,,,,,,,
,,,,,,,,,,,,,,,7852,2022-02-26_19h10.35.789,multiplicationStroop,2021.2.3,Win32,59.80145916,,,,,left,1,0.571,0,46,46,63,1,9,7,9 | 7,2,1.6933,1.6933,neutral,left,,,,,,stimulusFile/magnitude.xlsx,,,,,,,,,,,,,,,,,,,,,,,,,,,,,,,
,,,,,,,,,,,,,,,7852,2022-02-26_19h10.35.789,multiplicationStroop,2021.2.3,Win32,59.80145916,,,,,right,1,0.5177,0,47,47,18,1,3,8,3 | 8,5,1.4111,1.9756,congruent,right,,,,,,stimulusFile/magnitude.xlsx,,,,,,,,,,,,,,,,,,,,,,,,,,,,,,,
,,,,,,,,,,,,,,,7852,2022-02-26_19h10.35.789,multiplicationStroop,2021.2.3,Win32,59.80145916,,,,,right,1,0.6502,0,48,48,34,1,6,8,6 | 8,2,1.9756,1.4111,incongruent,right,,,,,,stimulusFile/magnitude.xlsx,,,,,,,,,,,,,,,,,,,,,,,,,,,,,,,
,,,,,,,,,,,,,,,7852,2022-02-26_19h10.35.789,multiplicationStroop,2021.2.3,Win32,59.80145916,,,,,left,1,0.8974,0,49,49,7,1,9,8,9 | 8,1,1.9756,1.4111,congruent,left,,,,,,stimulusFile/magnitude.xlsx,,,,,,,,,,,,,,,,,,,,,,,,,,,,,,,
,,,,,,,,,,,,,,,7852,2022-02-26_19h10.35.789,multiplicationStroop,2021.2.3,Win32,59.80145916,,,,,left,1,0.6935,0,50,50,29,1,4,3,4 | 3,1,1.4111,1.9756,incongruent,left,,,,,,stimulusFile/magnitude.xlsx,,,,,,,,,,,,,,,,,,,,,,,,,,,,,,,
,,,,,,,,,,,,,,,7852,2022-02-26_19h10.35.789,multiplicationStroop,2021.2.3,Win32,59.80145916,,,,,left,1,0.5716,0,51,51,62,1,8,6,8 | 6,2,1.6933,1.6933,neutral,left,,,,,,stimulusFile/magnitude.xlsx,,,,,,,,,,,,,,,,,,,,,,,,,,,,,,,
,,,,,,,,,,,,,,,7852,2022-02-26_19h10.35.789,multiplicationStroop,2021.2.3,Win32,59.80145916,,,,,right,1,0.6397,0,52,52,64,1,1,6,1 | 6,5,1.6933,1.6933,neutral,right,,,,,,stimulusFile/magnitude.xlsx,,,,,,,,,,,,,,,,,,,,,,,,,,,,,,,
,,,,,,,,,,,,,,,7852,2022-02-26_19h10.35.789,multiplicationStroop,2021.2.3,Win32,59.80145916,,,,,right,1,0.8283,0,53,53,27,1,8,9,8 | 9,1,1.9756,1.4111,incongruent,right,,,,,,stimulusFile/magnitude.xlsx,,,,,,,,,,,,,,,,,,,,,,,,,,,,,,,
,,,,,,,,,,,,,,,7852,2022-02-26_19h10.35.789,multiplicationStroop,2021.2.3,Win32,59.80145916,,,,,right,1,0.5744,0,54,54,66,1,3,8,3 | 8,5,1.6933,1.6933,neutral,right,,,,,,stimulusFile/magnitude.xlsx,,,,,,,,,,,,,,,,,,,,,,,,,,,,,,,
,,,,,,,,,,,,,,,7852,2022-02-26_19h10.35.789,multiplicationStroop,2021.2.3,Win32,59.80145916,,,,,left,1,0.531,0,55,55,45,1,7,2,7 | 2,5,1.4111,1.9756,incongruent,left,,,,,,stimulusFile/magnitude.xlsx,,,,,,,,,,,,,,,,,,,,,,,,,,,,,,,
,,,,,,,,,,,,,,,7852,2022-02-26_19h10.35.789,multiplicationStroop,2021.2.3,Win32,59.80145916,,,,,left,1,0.5003,0,56,56,15,1,9,7,9 | 7,2,1.9756,1.4111,congruent,left,,,,,,stimulusFile/magnitude.xlsx,,,,,,,,,,,,,,,,,,,,,,,,,,,,,,,
,,,,,,,,,,,,,,,7852,2022-02-26_19h10.35.789,multiplicationStroop,2021.2.3,Win32,59.80145916,,,,,right,1,0.6307,0,57,57,51,1,8,9,8 | 9,1,1.6933,1.6933,neutral,right,,,,,,stimulusFile/magnitude.xlsx,,,,,,,,,,,,,,,,,,,,,,,,,,,,,,,
,,,,,,,,,,,,,,,7852,2022-02-26_19h10.35.789,multiplicationStroop,2021.2.3,Win32,59.80145916,,,,,right,1,0.5847,0,58,58,42,1,3,8,3 | 8,5,1.9756,1.4111,incongruent,right,,,,,,stimulusFile/magnitude.xlsx,,,,,,,,,,,,,,,,,,,,,,,,,,,,,,,
,,,,,,,,,,,,,,,7852,2022-02-26_19h10.35.789,multiplicationStroop,2021.2.3,Win32,59.80145916,,,,,left,1,0.5036,0,59,59,71,1,9,4,9 | 4,5,1.6933,1.6933,neutral,left,,,,,,stimulusFile/magnitude.xlsx,,,,,,,,,,,,,,,,,,,,,,,,,,,,,,,
,,,,,,,,,,,,,,,7852,2022-02-26_19h10.35.789,multiplicationStroop,2021.2.3,Win32,59.80145916,,,,,left,1,0.5078,0,60,60,5,1,4,3,4 | 3,1,1.9756,1.4111,congruent,left,,,,,,stimulusFile/magnitude.xlsx,,,,,,,,,,,,,,,,,,,,,,,,,,,,,,,
,,,,,,,,,,,,,,,7852,2022-02-26_19h10.35.789,multiplicationStroop,2021.2.3,Win32,59.80145916,,,,,right,1,0.4481,0,61,61,8,1,1,3,1 | 3,2,1.4111,1.9756,congruent,right,,,,,,stimulusFile/magnitude.xlsx,,,,,,,,,,,,,,,,,,,,,,,,,,,,,,,
,,,,,,,,,,,,,,,7852,2022-02-26_19h10.35.789,multiplicationStroop,2021.2.3,Win32,59.80145916,,,,,left,1,0.919,0,62,62,31,1,9,8,9 | 8,1,1.4111,1.9756,incongruent,left,,,,,,stimulusFile/magnitude.xlsx,,,,,,,,,,,,,,,,,,,,,,,,,,,,,,,
,,,,,,,,,,,,,,,7852,2022-02-26_19h10.35.789,multiplicationStroop,2021.2.3,Win32,59.80145916,,,,,right,1,0.6015,0,63,63,9,1,2,4,2 | 4,2,1.4111,1.9756,congruent,right,,,,,,stimulusFile/magnitude.xlsx,,,,,,,,,,,,,,,,,,,,,,,,,,,,,,,
,,,,,,,,,,,,,,,7852,2022-02-26_19h10.35.789,multiplicationStroop,2021.2.3,Win32,59.80145916,,,,,left,1,0.8499,0,64,64,47,1,9,4,9 | 4,5,1.4111,1.9756,incongruent,left,,,,,,stimulusFile/magnitude.xlsx,,,,,,,,,,,,,,,,,,,,,,,,,,,,,,,
,,,,,,,,,,,,,,,7852,2022-02-26_19h10.35.789,multiplicationStroop,2021.2.3,Win32,59.80145916,,,,,left,1,0.8454,0,65,65,54,1,7,6,7 | 6,1,1.6933,1.6933,neutral,left,,,,,,stimulusFile/magnitude.xlsx,,,,,,,,,,,,,,,,,,,,,,,,,,,,,,,
,,,,,,,,,,,,,,,7852,2022-02-26_19h10.35.789,multiplicationStroop,2021.2.3,Win32,59.80145916,,,,,left,1,0.5652,0,66,66,12,1,3,1,3 | 1,2,1.9756,1.4111,congruent,left,,,,,,stimulusFile/magnitude.xlsx,,,,,,,,,,,,,,,,,,,,,,,,,,,,,,,
,,,,,,,,,,,,,,,7852,2022-02-26_19h10.35.789,multiplicationStroop,2021.2.3,Win32,59.80145916,,,,,right,1,0.6105,0,67,67,35,1,7,9,7 | 9,2,1.9756,1.4111,incongruent,right,,,,,,stimulusFile/magnitude.xlsx,,,,,,,,,,,,,,,,,,,,,,,,,,,,,,,
,,,,,,,,,,,,,,,7852,2022-02-26_19h10.35.789,multiplicationStroop,2021.2.3,Win32,59.80145916,,,,,left,1,0.6391,0,68,68,23,1,9,4,9 | 4,5,1.9756,1.4111,congruent,left,,,,,,stimulusFile/magnitude.xlsx,,,,,,,,,,,,,,,,,,,,,,,,,,,,,,,
,,,,,,,,,,,,,,,7852,2022-02-26_19h10.35.789,multiplicationStroop,2021.2.3,Win32,59.80145916,,,,,right,1,0.5996,0,69,69,65,1,2,7,2 | 7,5,1.6933,1.6933,neutral,right,,,,,,stimulusFile/magnitude.xlsx,,,,,,,,,,,,,,,,,,,,,,,,,,,,,,,
,,,,,,,,,,,,,,,7852,2022-02-26_19h10.35.789,multiplicationStroop,2021.2.3,Win32,59.80145916,,,,,right,1,0.612,0,70,70,3,1,8,9,8 | 9,1,1.4111,1.9756,congruent,right,,,,,,stimulusFile/magnitude.xlsx,,,,,,,,,,,,,,,,,,,,,,,,,,,,,,,
,,,,,,,,,,,,,,,7852,2022-02-26_19h10.35.789,multiplicationStroop,2021.2.3,Win32,59.80145916,,,,,left,1,0.542,0,71,71,61,1,4,2,4 | 2,2,1.6933,1.6933,neutral,left,,,,,,stimulusFile/magnitude.xlsx,,,,,,,,,,,,,,,,,,,,,,,,,,,,,,,
,,,,,,,,,,,,,,,7852,2022-02-26_19h10.35.789,multiplicationStroop,2021.2.3,Win32,59.80145916,,,,,,,,,,,,,,,,,,,,,0,0,0,0,1,stimulusFile/magnitude.xlsx,NUMERICALLY larger (larger coefficient).,images/numericallyLarger.png,,,,,,,,,,,,,,,,,,,,,,,,,,,,,
,,,,,,,,,,,,,,,7852,2022-02-26_19h10.35.789,multiplicationStroop,2021.2.3,Win32,59.80145916,space,5.6448,space,28.508,right,1,0.7639,0,0,0,46,1,8,3,8 | 3,5,1.4111,1.9756,incongruent,right,,,,,,stimulusFile/physical.xlsx,,,,,,,,,,,,,,,,,,,,,,,,,,,,,,,
,,,,,,,,,,,,,,,7852,2022-02-26_19h10.35.789,multiplicationStroop,2021.2.3,Win32,59.80145916,,,,,left,1,0.6307,0,1,1,21,1,7,2,7 | 2,5,1.9756,1.4111,congruent,left,,,,,,stimulusFile/physical.xlsx,,,,,,,,,,,,,,,,,,,,,,,,,,,,,,,
,,,,,,,,,,,,,,,7852,2022-02-26_19h10.35.789,multiplicationStroop,2021.2.3,Win32,59.80145916,,,,,left,1,0.8556,0,2,2,53,1,4,4,4 | 4,0,1.9756,1.4111,neutral,left,,,,,,stimulusFile/physical.xlsx,,,,,,,,,,,,,,,,,,,,,,,,,,,,,,,
,,,,,,,,,,,,,,,7852,2022-02-26_19h10.35.789,multiplicationStroop,2021.2.3,Win32,59.80145916,,,,,right,0,0.832,0,3,3,42,1,3,8,3 | 8,5,1.9756,1.4111,incongruent,left,,,,,,stimulusFile/physical.xlsx,,,,,,,,,,,,,,,,,,,,,,,,,,,,,,,
,,,,,,,,,,,,,,,7852,2022-02-26_19h10.35.789,multiplicationStroop,2021.2.3,Win32,59.80145916,,,,,right,1,1.8871,0,4,4,9,1,2,4,2 | 4,2,1.4111,1.9756,congruent,right,,,,,,stimulusFile/physical.xlsx,,,,,,,,,,,,,,,,,,,,,,,,,,,,,,,
,,,,,,,,,,,,,,,7852,2022-02-26_19h10.35.789,multiplicationStroop,2021.2.3,Win32,59.80145916,,,,,right,1,0.6347,0,5,5,2,1,6,7,6 | 7,1,1.4111,1.9756,congruent,right,,,,,,stimulusFile/physical.xlsx,,,,,,,,,,,,,,,,,,,,,,,,,,,,,,,
,,,,,,,,,,,,,,,7852,2022-02-26_19h10.35.789,multiplicationStroop,2021.2.3,Win32,59.80145916,,,,,left,1,0.5539,0,6,6,24,1,1,2,1 | 2,1,1.9756,1.4111,incongruent,left,,,,,,stimulusFile/physical.xlsx,,,,,,,,,,,,,,,,,,,,,,,,,,,,,,,
,,,,,,,,,,,,,,,7852,2022-02-26_19h10.35.789,multiplicationStroop,2021.2.3,Win32,59.80145916,,,,,left,1,0.6575,0,7,7,40,1,1,6,1 | 6,5,1.9756,1.4111,incongruent,left,,,,,,stimulusFile/physical.xlsx,,,,,,,,,,,,,,,,,,,,,,,,,,,,,,,
,,,,,,,,,,,,,,,7852,2022-02-26_19h10.35.789,multiplicationStroop,2021.2.3,Win32,59.80145916,,,,,left,1,0.5966,0,8,8,34,1,6,8,6 | 8,2,1.9756,1.4111,incongruent,left,,,,,,stimulusFile/physical.xlsx,,,,,,,,,,,,,,,,,,,,,,,,,,,,,,,
,,,,,,,,,,,,,,,7852,2022-02-26_19h10.35.789,multiplicationStroop,2021.2.3,Win32,59.80145916,,,,,left,1,0.6691,0,9,9,54,1,7,7,7 | 7,0,1.9756,1.4111,neutral,left,,,,,,stimulusFile/physical.xlsx,,,,,,,,,,,,,,,,,,,,,,,,,,,,,,,
,,,,,,,,,,,,,,,7852,2022-02-26_19h10.35.789,multiplicationStroop,2021.2.3,Win32,59.80145916,,,,,right,1,0.6138,0,10,10,62,1,8,8,8 | 8,0,1.4111,1.9756,neutral,right,,,,,,stimulusFile/physical.xlsx,,,,,,,,,,,,,,,,,,,,,,,,,,,,,,,
,,,,,,,,,,,,,,,7852,2022-02-26_19h10.35.789,multiplicationStroop,2021.2.3,Win32,59.80145916,,,,,left,0,0.5471,0,11,11,64,1,1,1,1 | 1,0,1.9756,1.4111,neutral,right,,,,,,stimulusFile/physical.xlsx,,,,,,,,,,,,,,,,,,,,,,,,,,,,,,,
,,,,,,,,,,,,,,,7852,2022-02-26_19h10.35.789,multiplicationStroop,2021.2.3,Win32,59.80145916,,,,,right,1,0.5798,0,12,12,59,1,7,7,7 | 7,0,1.4111,1.9756,neutral,right,,,,,,stimulusFile/physical.xlsx,,,,,,,,,,,,,,,,,,,,,,,,,,,,,,,
,,,,,,,,,,,,,,,7852,2022-02-26_19h10.35.789,multiplicationStroop,2021.2.3,Win32,59.80145916,,,,,left,1,1.2008,0,13,13,6,1,7,6,7 | 6,1,1.9756,1.4111,congruent,left,,,,,,stimulusFile/physical.xlsx,,,,,,,,,,,,,,,,,,,,,,,,,,,,,,,
,,,,,,,,,,,,,,,7852,2022-02-26_19h10.35.789,multiplicationStroop,2021.2.3,Win32,59.80145916,,,,,left,1,0.6312,0,14,14,5,1,4,3,4 | 3,1,1.9756,1.4111,congruent,left,,,,,,stimulusFile/physical.xlsx,,,,,,,,,,,,,,,,,,,,,,,,,,,,,,,
,,,,,,,,,,,,,,,7852,2022-02-26_19h10.35.789,multiplicationStroop,2021.2.3,Win32,59.80145916,,,,,right,0,0.6021,0,15,15,43,1,4,9,4 | 9,5,1.9756,1.4111,incongruent,left,,,,,,stimulusFile/physical.xlsx,,,,,,,,,,,,,,,,,,,,,,,,,,,,,,,
,,,,,,,,,,,,,,,7852,2022-02-26_19h10.35.789,multiplicationStroop,2021.2.3,Win32,59.80145916,,,,,right,1,0.7215,0,16,16,0,1,1,2,1 | 2,1,1.4111,1.9756,congruent,right,,,,,,stimulusFile/physical.xlsx,,,,,,,,,,,,,,,,,,,,,,,,,,,,,,,
,,,,,,,,,,,,,,,7852,2022-02-26_19h10.35.789,multiplicationStroop,2021.2.3,Win32,59.80145916,,,,,right,1,1.352,0,17,17,38,1,8,6,8 | 6,2,1.4111,1.9756,incongruent,right,,,,,,stimulusFile/physical.xlsx,,,,,,,,,,,,,,,,,,,,,,,,,,,,,,,
,,,,,,,,,,,,,,,7852,2022-02-26_19h10.35.789,multiplicationStroop,2021.2.3,Win32,59.80145916,,,,,right,1,0.5876,0,18,18,57,1,2,2,2 | 2,0,1.4111,1.9756,neutral,right,,,,,,stimulusFile/physical.xlsx,,,,,,,,,,,,,,,,,,,,,,,,,,,,,,,
,,,,,,,,,,,,,,,7852,2022-02-26_19h10.35.789,multiplicationStroop,2021.2.3,Win32,59.80145916,,,,,left,1,0.5945,0,19,19,68,1,6,6,6 | 6,0,1.9756,1.4111,neutral,left,,,,,,stimulusFile/physical.xlsx,,,,,,,,,,,,,,,,,,,,,,,,,,,,,,,
,,,,,,,,,,,,,,,7852,2022-02-26_19h10.35.789,multiplicationStroop,2021.2.3,Win32,59.80145916,,,,,left,1,0.877,0,20,20,70,1,8,8,8 | 8,0,1.9756,1.4111,neutral,left,,,,,,stimulusFile/physical.xlsx,,,,,,,,,,,,,,,,,,,,,,,,,,,,,,,
,,,,,,,,,,,,,,,7852,2022-02-26_19h10.35.789,multiplicationStroop,2021.2.3,Win32,59.80145916,,,,,left,1,0.5674,0,21,21,22,1,8,3,8 | 3,5,1.9756,1.4111,congruent,left,,,,,,stimulusFile/physical.xlsx,,,,,,,,,,,,,,,,,,,,,,,,,,,,,,,
,,,,,,,,,,,,,,,7852,2022-02-26_19h10.35.789,multiplicationStroop,2021.2.3,Win32,59.80145916,,,,,right,1,0.564,0,22,22,11,1,7,9,7 | 9,2,1.4111,1.9756,congruent,right,,,,,,stimulusFile/physical.xlsx,,,,,,,,,,,,,,,,,,,,,,,,,,,,,,,
,,,,,,,,,,,,,,,7852,2022-02-26_19h10.35.789,multiplicationStroop,2021.2.3,Win32,59.80145916,,,,,left,1,0.5487,0,23,23,14,1,8,6,8 | 6,2,1.9756,1.4111,congruent,left,,,,,,stimulusFile/physical.xlsx,,,,,,,,,,,,,,,,,,,,,,,,,,,,,,,
,,,,,,,,,,,,,,,7852,2022-02-26_19h10.35.789,multiplicationStroop,2021.2.3,Win32,59.80145916,,,,,left,1,0.6106,0,24,24,49,1,3,3,3 | 3,0,1.9756,1.4111,neutral,left,,,,,,stimulusFile/physical.xlsx,,,,,,,,,,,,,,,,,,,,,,,,,,,,,,,
,,,,,,,,,,,,,,,7852,2022-02-26_19h10.35.789,multiplicationStroop,2021.2.3,Win32,59.80145916,,,,,right,1,0.5912,0,25,25,65,1,2,2,2 | 2,0,1.4111,1.9756,neutral,right,,,,,,stimulusFile/physical.xlsx,,,,,,,,,,,,,,,,,,,,,,,,,,,,,,,
,,,,,,,,,,,,,,,7852,2022-02-26_19h10.35.789,multiplicationStroop,2021.2.3,Win32,59.80145916,,,,,right,1,0.8648,0,26,26,28,1,2,1,2 | 1,1,1.4111,1.9756,incongruent,right,,,,,,stimulusFile/physical.xlsx,,,,,,,,,,,,,,,,,,,,,,,,,,,,,,,
,,,,,,,,,,,,,,,7852,2022-02-26_19h10.35.789,multiplicationStroop,2021.2.3,Win32,59.80145916,,,,,right,1,0.6144,0,27,27,45,1,7,2,7 | 2,5,1.4111,1.9756,incongruent,right,,,,,,stimulusFile/physical.xlsx,,,,,,,,,,,,,,,,,,,,,,,,,,,,,,,
,,,,,,,,,,,,,,,7852,2022-02-26_19h10.35.789,multiplicationStroop,2021.2.3,Win32,59.80145916,,,,,left,1,0.6605,0,28,28,27,1,8,9,8 | 9,1,1.9756,1.4111,incongruent,left,,,,,,stimulusFile/physical.xlsx,,,,,,,,,,,,,,,,,,,,,,,,,,,,,,,
,,,,,,,,,,,,,,,7852,2022-02-26_19h10.35.789,multiplicationStroop,2021.2.3,Win32,59.80145916,,,,,right,1,0.5654,0,29,29,56,1,1,1,1 | 1,0,1.4111,1.9756,neutral,right,,,,,,stimulusFile/physical.xlsx,,,,,,,,,,,,,,,,,,,,,,,,,,,,,,,
,,,,,,,,,,,,,,,7852,2022-02-26_19h10.35.789,multiplicationStroop,2021.2.3,Win32,59.80145916,,,,,right,1,0.6121,0,30,30,58,1,6,6,6 | 6,0,1.4111,1.9756,neutral,right,,,,,,stimulusFile/physical.xlsx,,,,,,,,,,,,,,,,,,,,,,,,,,,,,,,
,,,,,,,,,,,,,,,7852,2022-02-26_19h10.35.789,multiplicationStroop,2021.2.3,Win32,59.80145916,,,,,left,1,0.5633,0,31,31,4,1,2,1,2 | 1,1,1.9756,1.4111,congruent,left,,,,,,stimulusFile/physical.xlsx,,,,,,,,,,,,,,,,,,,,,,,,,,,,,,,
,,,,,,,,,,,,,,,7852,2022-02-26_19h10.35.789,multiplicationStroop,2021.2.3,Win32,59.80145916,,,,,right,0,0.838,0,32,32,26,1,6,7,6 | 7,1,1.9756,1.4111,incongruent,left,,,,,,stimulusFile/physical.xlsx,,,,,,,,,,,,,,,,,,,,,,,,,,,,,,,
,,,,,,,,,,,,,,,7852,2022-02-26_19h10.35.789,multiplicationStroop,2021.2.3,Win32,59.80145916,,,,,left,1,1.3487,0,33,33,41,1,2,7,2 | 7,5,1.9756,1.4111,incongruent,left,,,,,,stimulusFile/physical.xlsx,,,,,,,,,,,,,,,,,,,,,,,,,,,,,,,
,,,,,,,,,,,,,,,7852,2022-02-26_19h10.35.789,multiplicationStroop,2021.2.3,Win32,59.80145916,,,,,right,1,0.5977,0,34,34,39,1,9,7,9 | 7,2,1.4111,1.9756,incongruent,right,,,,,,stimulusFile/physical.xlsx,,,,,,,,,,,,,,,,,,,,,,,,,,,,,,,
,,,,,,,,,,,,,,,7852,2022-02-26_19h10.35.789,multiplicationStroop,2021.2.3,Win32,59.80145916,,,,,right,1,0.5794,0,35,35,61,1,4,4,4 | 4,0,1.4111,1.9756,neutral,right,,,,,,stimulusFile/physical.xlsx,,,,,,,,,,,,,,,,,,,,,,,,,,,,,,,
,,,,,,,,,,,,,,,7852,2022-02-26_19h10.35.789,multiplicationStroop,2021.2.3,Win32,59.80145916,,,,,left,1,0.5313,0,36,36,51,1,8,8,8 | 8,0,1.9756,1.4111,neutral,left,,,,,,stimulusFile/physical.xlsx,,,,,,,,,,,,,,,,,,,,,,,,,,,,,,,
,,,,,,,,,,,,,,,7852,2022-02-26_19h10.35.789,multiplicationStroop,2021.2.3,Win32,59.80145916,,,,,left,1,0.9687,0,37,37,48,1,1,1,1 | 1,0,1.9756,1.4111,neutral,left,,,,,,stimulusFile/physical.xlsx,,,,,,,,,,,,,,,,,,,,,,,,,,,,,,,
,,,,,,,,,,,,,,,7852,2022-02-26_19h10.35.789,multiplicationStroop,2021.2.3,Win32,59.80145916,,,,,right,0,0.5674,0,38,38,69,1,7,7,7 | 7,0,1.4111,1.9756,neutral,left,,,,,,stimulusFile/physical.xlsx,,,,,,,,,,,,,,,,,,,,,,,,,,,,,,,
,,,,,,,,,,,,,,,7852,2022-02-26_19h10.35.789,multiplicationStroop,2021.2.3,Win32,59.80145916,,,,,left,1,0.5819,0,39,39,55,1,9,9,9 | 9,0,1.9756,1.4111,neutral,left,,,,,,stimulusFile/physical.xlsx,,,,,,,,,,,,,,,,,,,,,,,,,,,,,,,
,,,,,,,,,,,,,,,7852,2022-02-26_19h10.35.789,multiplicationStroop,2021.2.3,Win32,59.80145916,,,,,right,1,0.5696,0,40,40,47,1,9,4,9 | 4,5,1.4111,1.9756,incongruent,right,,,,,,stimulusFile/physical.xlsx,,,,,,,,,,,,,,,,,,,,,,,,,,,,,,,
,,,,,,,,,,,,,,,7852,2022-02-26_19h10.35.789,multiplicationStroop,2021.2.3,Win32,59.80145916,,,,,right,1,0.5238,0,41,41,3,1,8,9,8 | 9,1,1.4111,1.9756,congruent,right,,,,,,stimulusFile/physical.xlsx,,,,,,,,,,,,,,,,,,,,,,,,,,,,,,,
,,,,,,,,,,,,,,,7852,2022-02-26_19h10.35.789,multiplicationStroop,2021.2.3,Win32,59.80145916,,,,,right,1,0.6642,0,42,42,29,1,4,3,4 | 3,1,1.4111,1.9756,incongruent,right,,,,,,stimulusFile/physical.xlsx,,,,,,,,,,,,,,,,,,,,,,,,,,,,,,,
,,,,,,,,,,,,,,,7852,2022-02-26_19h10.35.789,multiplicationStroop,2021.2.3,Win32,59.80145916,,,,,left,1,0.7966,0,43,43,35,1,7,9,7 | 9,2,1.9756,1.4111,incongruent,left,,,,,,stimulusFile/physical.xlsx,,,,,,,,,,,,,,,,,,,,,,,,,,,,,,,
,,,,,,,,,,,,,,,7852,2022-02-26_19h10.35.789,multiplicationStroop,2021.2.3,Win32,59.80145916,,,,,left,1,0.6312,0,44,44,13,1,4,2,4 | 2,2,1.9756,1.4111,congruent,left,,,,,,stimulusFile/physical.xlsx,,,,,,,,,,,,,,,,,,,,,,,,,,,,,,,
,,,,,,,,,,,,,,,7852,2022-02-26_19h10.35.789,multiplicationStroop,2021.2.3,Win32,59.80145916,,,,,left,1,0.9508,0,45,45,32,1,1,3,1 | 3,2,1.9756,1.4111,incongruent,left,,,,,,stimulusFile/physical.xlsx,,,,,,,,,,,,,,,,,,,,,,,,,,,,,,,
,,,,,,,,,,,,,,,7852,2022-02-26_19h10.35.789,multiplicationStroop,2021.2.3,Win32,59.80145916,,,,,right,1,0.565,0,46,46,19,1,4,9,4 | 9,5,1.4111,1.9756,congruent,right,,,,,,stimulusFile/physical.xlsx,,,,,,,,,,,,,,,,,,,,,,,,,,,,,,,
,,,,,,,,,,,,,,,7852,2022-02-26_19h10.35.789,multiplicationStroop,2021.2.3,Win32,59.80145916,,,,,left,1,0.5971,0,47,47,33,1,2,4,2 | 4,2,1.9756,1.4111,incongruent,left,,,,,,stimulusFile/physical.xlsx,,,,,,,,,,,,,,,,,,,,,,,,,,,,,,,
,,,,,,,,,,,,,,,7852,2022-02-26_19h10.35.789,multiplicationStroop,2021.2.3,Win32,59.80145916,,,,,right,1,0.5502,0,48,48,37,1,4,2,4 | 2,2,1.4111,1.9756,incongruent,right,,,,,,stimulusFile/physical.xlsx,,,,,,,,,,,,,,,,,,,,,,,,,,,,,,,
,,,,,,,,,,,,,,,7852,2022-02-26_19h10.35.789,multiplicationStroop,2021.2.3,Win32,59.80145916,,,,,right,1,0.599,0,49,49,16,1,1,6,1 | 6,5,1.4111,1.9756,congruent,right,,,,,,stimulusFile/physical.xlsx,,,,,,,,,,,,,,,,,,,,,,,,,,,,,,,
,,,,,,,,,,,,,,,7852,2022-02-26_19h10.35.789,multiplicationStroop,2021.2.3,Win32,59.80145916,,,,,left,1,0.5802,0,50,50,12,1,3,1,3 | 1,2,1.9756,1.4111,congruent,left,,,,,,stimulusFile/physical.xlsx,,,,,,,,,,,,,,,,,,,,,,,,,,,,,,,
,,,,,,,,,,,,,,,7852,2022-02-26_19h10.35.789,multiplicationStroop,2021.2.3,Win32,59.80145916,,,,,left,1,0.5815,0,51,51,25,1,3,4,3 | 4,1,1.9756,1.4111,incongruent,left,,,,,,stimulusFile/physical.xlsx,,,,,,,,,,,,,,,,,,,,,,,,,,,,,,,
,,,,,,,,,,,,,,,7852,2022-02-26_19h10.35.789,multiplicationStroop,2021.2.3,Win32,59.80145916,,,,,right,1,0.5307,0,52,52,67,1,4,4,4 | 4,0,1.4111,1.9756,neutral,right,,,,,,stimulusFile/physical.xlsx,,,,,,,,,,,,,,,,,,,,,,,,,,,,,,,
,,,,,,,,,,,,,,,7852,2022-02-26_19h10.35.789,multiplicationStroop,2021.2.3,Win32,59.80145916,,,,,right,1,0.5802,0,53,53,8,1,1,3,1 | 3,2,1.4111,1.9756,congruent,right,,,,,,stimulusFile/physical.xlsx,,,,,,,,,,,,,,,,,,,,,,,,,,,,,,,
,,,,,,,,,,,,,,,7852,2022-02-26_19h10.35.789,multiplicationStroop,2021.2.3,Win32,59.80145916,,,,,left,1,0.4985,0,54,54,52,1,2,2,2 | 2,0,1.9756,1.4111,neutral,left,,,,,,stimulusFile/physical.xlsx,,,,,,,,,,,,,,,,,,,,,,,,,,,,,,,
,,,,,,,,,,,,,,,7852,2022-02-26_19h10.35.789,multiplicationStroop,2021.2.3,Win32,59.80145916,,,,,left,1,0.5164,0,55,55,20,1,6,1,6 | 1,5,1.9756,1.4111,congruent,left,,,,,,stimulusFile/physical.xlsx,,,,,,,,,,,,,,,,,,,,,,,,,,,,,,,
,,,,,,,,,,,,,,,7852,2022-02-26_19h10.35.789,multiplicationStroop,2021.2.3,Win32,59.80145916,,,,,right,1,0.4884,0,56,56,1,1,3,4,3 | 4,1,1.4111,1.9756,congruent,right,,,,,,stimulusFile/physical.xlsx,,,,,,,,,,,,,,,,,,,,,,,,,,,,,,,
,,,,,,,,,,,,,,,7852,2022-02-26_19h10.35.789,multiplicationStroop,2021.2.3,Win32,59.80145916,,,,,right,1,0.5396,0,57,57,63,1,9,9,9 | 9,0,1.4111,1.9756,neutral,right,,,,,,stimulusFile/physical.xlsx,,,,,,,,,,,,,,,,,,,,,,,,,,,,,,,
,,,,,,,,,,,,,,,7852,2022-02-26_19h10.35.789,multiplicationStroop,2021.2.3,Win32,59.80145916,,,,,left,1,0.4806,0,58,58,15,1,9,7,9 | 7,2,1.9756,1.4111,congruent,left,,,,,,stimulusFile/physical.xlsx,,,,,,,,,,,,,,,,,,,,,,,,,,,,,,,
,,,,,,,,,,,,,,,7852,2022-02-26_19h10.35.789,multiplicationStroop,2021.2.3,Win32,59.80145916,,,,,right,1,0.4617,0,59,59,31,1,9,8,9 | 8,1,1.4111,1.9756,incongruent,right,,,,,,stimulusFile/physical.xlsx,,,,,,,,,,,,,,,,,,,,,,,,,,,,,,,
,,,,,,,,,,,,,,,7852,2022-02-26_19h10.35.789,multiplicationStroop,2021.2.3,Win32,59.80145916,,,,,left,0,0.5403,0,60,60,36,1,3,1,3 | 1,2,1.4111,1.9756,incongruent,right,,,,,,stimulusFile/physical.xlsx,,,,,,,,,,,,,,,,,,,,,,,,,,,,,,,
,,,,,,,,,,,,,,,7852,2022-02-26_19h10.35.789,multiplicationStroop,2021.2.3,Win32,59.80145916,,,,,right,1,0.6329,0,61,61,60,1,3,3,3 | 3,0,1.4111,1.9756,neutral,right,,,,,,stimulusFile/physical.xlsx,,,,,,,,,,,,,,,,,,,,,,,,,,,,,,,
,,,,,,,,,,,,,,,7852,2022-02-26_19h10.35.789,multiplicationStroop,2021.2.3,Win32,59.80145916,,,,,right,1,1.0664,0,62,62,17,1,2,7,2 | 7,5,1.4111,1.9756,congruent,right,,,,,,stimulusFile/physical.xlsx,,,,,,,,,,,,,,,,,,,,,,,,,,,,,,,
,,,,,,,,,,,,,,,7852,2022-02-26_19h10.35.789,multiplicationStroop,2021.2.3,Win32,59.80145916,,,,,right,1,0.8539,0,63,63,44,1,6,1,6 | 1,5,1.4111,1.9756,incongruent,right,,,,,,stimulusFile/physical.xlsx,,,,,,,,,,,,,,,,,,,,,,,,,,,,,,,
,,,,,,,,,,,,,,,7852,2022-02-26_19h10.35.789,multiplicationStroop,2021.2.3,Win32,59.80145916,,,,,left,1,0.5397,0,64,64,23,1,9,4,9 | 4,5,1.9756,1.4111,congruent,left,,,,,,stimulusFile/physical.xlsx,,,,,,,,,,,,,,,,,,,,,,,,,,,,,,,
,,,,,,,,,,,,,,,7852,2022-02-26_19h10.35.789,multiplicationStroop,2021.2.3,Win32,59.80145916,,,,,right,1,0.531,0,65,65,10,1,6,8,6 | 8,2,1.4111,1.9756,congruent,right,,,,,,stimulusFile/physical.xlsx,,,,,,,,,,,,,,,,,,,,,,,,,,,,,,,
,,,,,,,,,,,,,,,7852,2022-02-26_19h10.35.789,multiplicationStroop,2021.2.3,Win32,59.80145916,,,,,left,0,0.5384,0,66,66,66,1,3,3,3 | 3,0,1.9756,1.4111,neutral,right,,,,,,stimulusFile/physical.xlsx,,,,,,,,,,,,,,,,,,,,,,,,,,,,,,,
,,,,,,,,,,,,,,,7852,2022-02-26_19h10.35.789,multiplicationStroop,2021.2.3,Win32,59.80145916,,,,,right,0,0.5012,0,67,67,71,1,9,9,9 | 9,0,1.4111,1.9756,neutral,left,,,,,,stimulusFile/physical.xlsx,,,,,,,,,,,,,,,,,,,,,,,,,,,,,,,
,,,,,,,,,,,,,,,7852,2022-02-26_19h10.35.789,multiplicationStroop,2021.2.3,Win32,59.80145916,,,,,right,1,0.5635,0,68,68,30,1,7,6,7 | 6,1,1.4111,1.9756,incongruent,right,,,,,,stimulusFile/physical.xlsx,,,,,,,,,,,,,,,,,,,,,,,,,,,,,,,
,,,,,,,,,,,,,,,7852,2022-02-26_19h10.35.789,multiplicationStroop,2021.2.3,Win32,59.80145916,,,,,left,1,0.4974,0,69,69,7,1,9,8,9 | 8,1,1.9756,1.4111,congruent,left,,,,,,stimulusFile/physical.xlsx,,,,,,,,,,,,,,,,,,,,,,,,,,,,,,,
,,,,,,,,,,,,,,,7852,2022-02-26_19h10.35.789,multiplicationStroop,2021.2.3,Win32,59.80145916,,,,,left,1,0.5876,0,70,70,50,1,6,6,6 | 6,0,1.9756,1.4111,neutral,left,,,,,,stimulusFile/physical.xlsx,,,,,,,,,,,,,,,,,,,,,,,,,,,,,,,
,,,,,,,,,,,,,,,7852,2022-02-26_19h10.35.789,multiplicationStroop,2021.2.3,Win32,59.80145916,,,,,right,1,0.5075,0,71,71,18,1,3,8,3 | 8,5,1.4111,1.9756,congruent,right,,,,,,stimulusFile/physical.xlsx,,,,,,,,,,,,,,,,,,,,,,,,,,,,,,,
,,,,,,,,,,,,,,,7852,2022-02-26_19h10.35.789,multiplicationStroop,2021.2.3,Win32,59.80145916,,,,,,,,,,,,,,,,,,,,,0,1,1,1,1,stimulusFile/physical.xlsx,PHYSICALLY larger (larger font size).,images/physicallyLarger.png,,,,,,,,,,,,,,,,,,,,,,,,,,,,,
,,,,,,,,,,,,,,,7852,2022-02-26_19h10.35.789,multiplicationStroop,2021.2.3,Win32,59.80145916,,,,,,,,,,,,,,,,,,,,,,,,,,,,,space,13.8084,space,2.0415,45,3.9079,1,0,0,0,23,1,9,×,5,9 × 5,congruent,largerFirst,2,1,45,,,,,,,,
,,,,,,,,,,,,,,,7852,2022-02-26_19h10.35.789,multiplicationStroop,2021.2.3,Win32,59.80145916,,,,,,,,,,,,,,,,,,,,,,,,,,,,,,,,,16,2.3496,1,0,1,1,5,1,2,×,8,2 × 8,congruent,smallerFirst,1,2,16,,,,,,,,
,,,,,,,,,,,,,,,7852,2022-02-26_19h10.35.789,multiplicationStroop,2021.2.3,Win32,59.80145916,,,,,,,,,,,,,,,,,,,,,,,,,,,,,,,,,48,2.1596,1,0,2,2,18,1,8,×,6,8 × 6,congruent,largerFirst,2,1,48,,,,,,,,
,,,,,,,,,,,,,,,7852,2022-02-26_19h10.35.789,multiplicationStroop,2021.2.3,Win32,59.80145916,,,,,,,,,,,,,,,,,,,,,,,,,,,,,,,,,49,2.8997,1,0,3,3,33,1,7,×,7,7 × 7,neutral,tie,2,1,49,,,,,,,,
,,,,,,,,,,,,,,,7852,2022-02-26_19h10.35.789,multiplicationStroop,2021.2.3,Win32,59.80145916,,,,,,,,,,,,,,,,,,,,,,,,,,,,,,,,,18,2.0324,1,0,4,4,22,1,9,×,2,9 × 2,congruent,largerFirst,2,1,18,,,,,,,,
,,,,,,,,,,,,,,,7852,2022-02-26_19h10.35.789,multiplicationStroop,2021.2.3,Win32,59.80145916,,,,,,,,,,,,,,,,,,,,,,,,,,,,,,,,,24,1.7172,1,0,5,5,25,1,6,×,4,6 × 4,congruent,largerFirst,2,1,24,,,,,,,,
,,,,,,,,,,,,,,,7852,2022-02-26_19h10.35.789,multiplicationStroop,2021.2.3,Win32,59.80145916,,,,,,,,,,,,,,,,,,,,,,,,,,,,,,,,,42,1.9122,1,0,6,6,3,1,6,×,7,6 × 7,congruent,smallerFirst,1,2,42,,,,,,,,
,,,,,,,,,,,,,,,7852,2022-02-26_19h10.35.789,multiplicationStroop,2021.2.3,Win32,59.80145916,,,,,,,,,,,,,,,,,,,,,,,,,,,,,,,,,24,1.9182,1,0,7,7,10,1,3,×,8,3 × 8,congruent,smallerFirst,1,2,24,,,,,,,,
,,,,,,,,,,,,,,,7852,2022-02-26_19h10.35.789,multiplicationStroop,2021.2.3,Win32,59.80145916,,,,,,,,,,,,,,,,,,,,,,,,,,,,,,,,,54,2.0496,1,0,8,8,12,1,6,×,9,6 × 9,congruent,smallerFirst,1,2,54,,,,,,,,
,,,,,,,,,,,,,,,7852,2022-02-26_19h10.35.789,multiplicationStroop,2021.2.3,Win32,59.80145916,,,,,,,,,,,,,,,,,,,,,,,,,,,,,,,,,72,2.0951,1,0,9,9,17,1,9,×,8,9 × 8,congruent,largerFirst,2,1,72,,,,,,,,
,,,,,,,,,,,,,,,7852,2022-02-26_19h10.35.789,multiplicationStroop,2021.2.3,Win32,59.80145916,,,,,,,,,,,,,,,,,,,,,,,,,,,,,,,,,40,1.9329,1,0,10,10,6,1,5,×,8,5 × 8,congruent,smallerFirst,1,2,40,,,,,,,,
,,,,,,,,,,,,,,,7852,2022-02-26_19h10.35.789,multiplicationStroop,2021.2.3,Win32,59.80145916,,,,,,,,,,,,,,,,,,,,,,,,,,,,,,,,,4,1.5698,1,0,11,11,28,1,2,×,2,2 × 2,neutral,tie,2,1,4,,,,,,,,
,,,,,,,,,,,,,,,7852,2022-02-26_19h10.35.789,multiplicationStroop,2021.2.3,Win32,59.80145916,,,,,,,,,,,,,,,,,,,,,,,,,,,,,,,,,8,1.8784,1,0,12,12,9,1,2,×,4,2 × 4,congruent,smallerFirst,1,2,8,,,,,,,,
,,,,,,,,,,,,,,,7852,2022-02-26_19h10.35.789,multiplicationStroop,2021.2.3,Win32,59.80145916,,,,,,,,,,,,,,,,,,,,,,,,,,,,,,,,,12,1.5205,1,0,13,13,2,1,3,×,4,3 × 4,congruent,smallerFirst,1,2,12,,,,,,,,
,,,,,,,,,,,,,,,7852,2022-02-26_19h10.35.789,multiplicationStroop,2021.2.3,Win32,59.80145916,,,,,,,,,,,,,,,,,,,,,,,,,,,,,,,,,35,1.6668,1,0,14,14,1,1,5,×,7,5 × 7,congruent,smallerFirst,1,2,35,,,,,,,,
,,,,,,,,,,,,,,,7852,2022-02-26_19h10.35.789,multiplicationStroop,2021.2.3,Win32,59.80145916,,,,,,,,,,,,,,,,,,,,,,,,,,,,,,,,,27,2.0492,1,0,15,15,26,1,9,×,3,9 × 3,congruent,largerFirst,2,1,27,,,,,,,,
,,,,,,,,,,,,,,,7852,2022-02-26_19h10.35.789,multiplicationStroop,2021.2.3,Win32,59.80145916,,,,,,,,,,,,,,,,,,,,,,,,,,,,,,,,,56,1.8661,1,0,16,16,8,1,7,×,8,7 × 8,congruent,smallerFirst,1,2,56,,,,,,,,
,,,,,,,,,,,,,,,7852,2022-02-26_19h10.35.789,multiplicationStroop,2021.2.3,Win32,59.80145916,,,,,,,,,,,,,,,,,,,,,,,,,,,,,,,,,15,1.9117,1,0,17,17,4,1,3,×,5,3 × 5,congruent,smallerFirst,1,2,15,,,,,,,,
,,,,,,,,,,,,,,,7852,2022-02-26_19h10.35.789,multiplicationStroop,2021.2.3,Win32,59.80145916,,,,,,,,,,,,,,,,,,,,,,,,,,,,,,,,,21,1.6538,1,0,18,18,16,1,7,×,3,7 × 3,congruent,largerFirst,2,1,21,,,,,,,,
,,,,,,,,,,,,,,,7852,2022-02-26_19h10.35.789,multiplicationStroop,2021.2.3,Win32,59.80145916,,,,,,,,,,,,,,,,,,,,,,,,,,,,,,,,,32,3.2452,1,0,19,19,20,1,8,×,4,8 × 4,congruent,largerFirst,2,1,32,,,,,,,,
,,,,,,,,,,,,,,,7852,2022-02-26_19h10.35.789,multiplicationStroop,2021.2.3,Win32,59.80145916,,,,,,,,,,,,,,,,,,,,,,,,,,,,,,,,,18,3.1248,1,0,20,20,11,1,3,×,6,3 × 6,congruent,smallerFirst,1,2,18,,,,,,,,
,,,,,,,,,,,,,,,7852,2022-02-26_19h10.35.789,multiplicationStroop,2021.2.3,Win32,59.80145916,,,,,,,,,,,,,,,,,,,,,,,,,,,,,,,,,30,1.7202,1,0,21,21,15,1,6,×,5,6 × 5,congruent,largerFirst,2,1,30,,,,,,,,
,,,,,,,,,,,,,,,7852,2022-02-26_19h10.35.789,multiplicationStroop,2021.2.3,Win32,59.80145916,,,,,,,,,,,,,,,,,,,,,,,,,,,,,,,,,16,3.4997,1,0,22,22,30,1,4,×,4,4 × 4,neutral,tie,2,1,16,,,,,,,,
,,,,,,,,,,,,,,,7852,2022-02-26_19h10.35.789,multiplicationStroop,2021.2.3,Win32,59.80145916,,,,,,,,,,,,,,,,,,,,,,,,,,,,,,,,,12,1.4751,1,0,23,23,19,1,6,×,2,6 × 2,congruent,largerFirst,2,1,12,,,,,,,,
,,,,,,,,,,,,,,,7852,2022-02-26_19h10.35.789,multiplicationStroop,2021.2.3,Win32,59.80145916,,,,,,,,,,,,,,,,,,,,,,,,,,,,,,,,,20,1.9953,1,0,24,24,7,1,4,×,5,4 × 5,congruent,smallerFirst,1,2,20,,,,,,,,
,,,,,,,,,,,,,,,7852,2022-02-26_19h10.35.789,multiplicationStroop,2021.2.3,Win32,59.80145916,,,,,,,,,,,,,,,,,,,,,,,,,,,,,,,,,6,1.5826,1,0,25,25,13,1,2,×,3,2 × 3,congruent,smallerFirst,1,2,6,,,,,,,,
,,,,,,,,,,,,,,,7852,2022-02-26_19h10.35.789,multiplicationStroop,2021.2.3,Win32,59.80145916,,,,,,,,,,,,,,,,,,,,,,,,,,,,,,,,,81,3.3155,1,0,26,26,35,1,9,×,9,9 × 9,neutral,tie,2,1,81,,,,,,,,
,,,,,,,,,,,,,,,7852,2022-02-26_19h10.35.789,multiplicationStroop,2021.2.3,Win32,59.80145916,,,,,,,,,,,,,,,,,,,,,,,,,,,,,,,,,36,2.442,1,0,27,27,0,1,4,×,9,4 × 9,congruent,smallerFirst,1,2,36,,,,,,,,
,,,,,,,,,,,,,,,7852,2022-02-26_19h10.35.789,multiplicationStroop,2021.2.3,Win32,59.80145916,,,,,,,,,,,,,,,,,,,,,,,,,,,,,,,,,14,2.0653,1,0,28,28,14,1,7,×,2,7 × 2,congruent,largerFirst,2,1,14,,,,,,,,
,,,,,,,,,,,,,,,7852,2022-02-26_19h10.35.789,multiplicationStroop,2021.2.3,Win32,59.80145916,,,,,,,,,,,,,,,,,,,,,,,,,,,,,,,,,64,2.2214,1,0,29,29,34,1,8,×,8,8 × 8,neutral,tie,2,1,64,,,,,,,,
,,,,,,,,,,,,,,,7852,2022-02-26_19h10.35.789,multiplicationStroop,2021.2.3,Win32,59.80145916,,,,,,,,,,,,,,,,,,,,,,,,,,,,,,,,,36,2.7323,1,0,30,30,32,1,6,×,6,6 × 6,neutral,tie,2,1,36,,,,,,,,
,,,,,,,,,,,,,,,7852,2022-02-26_19h10.35.789,multiplicationStroop,2021.2.3,Win32,59.80145916,,,,,,,,,,,,,,,,,,,,,,,,,,,,,,,,,25,2.6436,1,0,31,31,31,1,5,×,5,5 × 5,neutral,tie,2,1,25,,,,,,,,
,,,,,,,,,,,,,,,7852,2022-02-26_19h10.35.789,multiplicationStroop,2021.2.3,Win32,59.80145916,,,,,,,,,,,,,,,,,,,,,,,,,,,,,,,,,9,1.9322,1,0,32,32,29,1,3,×,3,3 × 3,neutral,tie,2,1,9,,,,,,,,
,,,,,,,,,,,,,,,7852,2022-02-26_19h10.35.789,multiplicationStroop,2021.2.3,Win32,59.80145916,,,,,,,,,,,,,,,,,,,,,,,,,,,,,,,,,63,2.2281,1,0,33,33,21,1,9,×,7,9 × 7,congruent,largerFirst,2,1,63,,,,,,,,
,,,,,,,,,,,,,,,7852,2022-02-26_19h10.35.789,multiplicationStroop,2021.2.3,Win32,59.80145916,,,,,,,,,,,,,,,,,,,,,,,,,,,,,,,,,10,2.1042,1,0,34,34,24,1,5,×,2,5 × 2,congruent,largerFirst,2,1,10,,,,,,,,
,,,,,,,,,,,,,,,7852,2022-02-26_19h10.35.789,multiplicationStroop,2021.2.3,Win32,59.80145916,,,,,,,,,,,,,,,,,,,,,,,,,,,,,,,,,28,2.0823,1,0,35,35,27,1,7,×,4,7 × 4,congruent,largerFirst,2,1,28,,,,,,,,
,,,,,,,,,,,,,,,7852,2022-02-26_19h10.35.789,multiplicationStroop,2021.2.3,Win32,59.80145916,,,,,,,,,,,,,,,,,,,,,,,,,,,,,,,,,,,,,,,,,,,,,,,,,,0,0,0,2,1,stimulusFile/mult_blk3_congruent.xlsx,,
,,,,,,,,,,,,,,,7852,2022-02-26_19h10.35.789,multiplicationStroop,2021.2.3,Win32,59.80145916,,,,,,,,,,,,,,,,,,,,,,,,,,,,,,,space,5.2188,14,1.93,1,0,0,0,2,1,2,×,7,2 × 7,neutral,smallerFirst,1.5,1.5,14,,,,,,,,
,,,,,,,,,,,,,,,7852,2022-02-26_19h10.35.789,multiplicationStroop,2021.2.3,Win32,59.80145916,,,,,,,,,,,,,,,,,,,,,,,,,,,,,,,,,18,1.7939,1,0,1,1,4,1,2,×,9,2 × 9,neutral,smallerFirst,1.5,1.5,18,,,,,,,,
,,,,,,,,,,,,,,,7852,2022-02-26_19h10.35.789,multiplicationStroop,2021.2.3,Win32,59.80145916,,,,,,,,,,,,,,,,,,,,,,,,,,,,,,,,,30,1.5713,1,0,2,2,5,1,5,×,6,5 × 6,neutral,smallerFirst,1.5,1.5,30,,,,,,,,
,,,,,,,,,,,,,,,7852,2022-02-26_19h10.35.789,multiplicationStroop,2021.2.3,Win32,59.80145916,,,,,,,,,,,,,,,,,,,,,,,,,,,,,,,,,81,1.8446,1,0,3,3,35,1,9,×,9,9 × 9,neutral,tie,1.5,1.5,81,,,,,,,,
,,,,,,,,,,,,,,,7852,2022-02-26_19h10.35.789,multiplicationStroop,2021.2.3,Win32,59.80145916,,,,,,,,,,,,,,,,,,,,,,,,,,,,,,,,,48,2.1542,1,0,4,4,1,1,6,×,8,6 × 8,neutral,smallerFirst,1.5,1.5,48,,,,,,,,
,,,,,,,,,,,,,,,7852,2022-02-26_19h10.35.789,multiplicationStroop,2021.2.3,Win32,59.80145916,,,,,,,,,,,,,,,,,,,,,,,,,,,,,,,,,24,1.5828,1,0,5,5,16,1,6,×,4,6 × 4,neutral,largerFirst,1.5,1.5,24,,,,,,,,
,,,,,,,,,,,,,,,7852,2022-02-26_19h10.35.789,multiplicationStroop,2021.2.3,Win32,59.80145916,,,,,,,,,,,,,,,,,,,,,,,,,,,,,,,,,10,1.4667,1,0,6,6,18,1,5,×,2,5 × 2,neutral,largerFirst,1.5,1.5,10,,,,,,,,
,,,,,,,,,,,,,,,7852,2022-02-26_19h10.35.789,multiplicationStroop,2021.2.3,Win32,59.80145916,,,,,,,,,,,,,,,,,,,,,,,,,,,,,,,,,56,1.9993,1,0,7,7,23,1,8,×,7,8 × 7,neutral,largerFirst,1.5,1.5,56,,,,,,,,
,,,,,,,,,,,,,,,7852,2022-02-26_19h10.35.789,multiplicationStroop,2021.2.3,Win32,59.80145916,,,,,,,,,,,,,,,,,,,,,,,,,,,,,,,,,12,1.4825,1,0,8,8,7,1,3,×,4,3 × 4,neutral,smallerFirst,1.5,1.5,12,,,,,,,,
,,,,,,,,,,,,,,,7852,2022-02-26_19h10.35.789,multiplicationStroop,2021.2.3,Win32,59.80145916,,,,,,,,,,,,,,,,,,,,,,,,,,,,,,,,,18,1.6446,1,0,9,9,14,1,6,×,3,6 × 3,neutral,largerFirst,1.5,1.5,18,,,,,,,,
,,,,,,,,,,,,,,,7852,2022-02-26_19h10.35.789,multiplicationStroop,2021.2.3,Win32,59.80145916,,,,,,,,,,,,,,,,,,,,,,,,,,,,,,,,,27,2.0534,1,0,10,10,0,1,3,×,9,3 × 9,neutral,smallerFirst,1.5,1.5,27,,,,,,,,
,,,,,,,,,,,,,,,7852,2022-02-26_19h10.35.789,multiplicationStroop,2021.2.3,Win32,59.80145916,,,,,,,,,,,,,,,,,,,,,,,,,,,,,,,,,9,1.6788,1,0,11,11,29,1,3,×,3,3 × 3,neutral,tie,1.5,1.5,9,,,,,,,,
,,,,,,,,,,,,,,,7852,2022-02-26_19h10.35.789,multiplicationStroop,2021.2.3,Win32,59.80145916,,,,,,,,,,,,,,,,,,,,,,,,,,,,,,,,,36,2.6041,1,0,12,12,32,1,6,×,6,6 × 6,neutral,tie,1.5,1.5,36,,,,,,,,
,,,,,,,,,,,,,,,7852,2022-02-26_19h10.35.789,multiplicationStroop,2021.2.3,Win32,59.80145916,,,,,,,,,,,,,,,,,,,,,,,,,,,,,,,,,49,2.1993,1,0,13,13,33,1,7,×,7,7 × 7,neutral,tie,1.5,1.5,49,,,,,,,,
,,,,,,,,,,,,,,,7852,2022-02-26_19h10.35.789,multiplicationStroop,2021.2.3,Win32,59.80145916,,,,,,,,,,,,,,,,,,,,,,,,,,,,,,,,,20,1.526,1,0,14,14,6,1,4,×,5,4 × 5,neutral,smallerFirst,1.5,1.5,20,,,,,,,,
,,,,,,,,,,,,,,,7852,2022-02-26_19h10.35.789,multiplicationStroop,2021.2.3,Win32,59.80145916,,,,,,,,,,,,,,,,,,,,,,,,,,,,,,,,,28,1.9931,1,0,15,15,3,1,4,×,7,4 × 7,neutral,smallerFirst,1.5,1.5,28,,,,,,,,
,,,,,,,,,,,,,,,7852,2022-02-26_19h10.35.789,multiplicationStroop,2021.2.3,Win32,59.80145916,,,,,,,,,,,,,,,,,,,,,,,,,,,,,,,,,4,1.4695,1,0,16,16,28,1,2,×,2,2 × 2,neutral,tie,1.5,1.5,4,,,,,,,,
,,,,,,,,,,,,,,,7852,2022-02-26_19h10.35.789,multiplicationStroop,2021.2.3,Win32,59.80145916,,,,,,,,,,,,,,,,,,,,,,,,,,,,,,,,,40,1.8629,1,0,17,17,10,1,5,×,8,5 × 8,neutral,smallerFirst,1.5,1.5,40,,,,,,,,
,,,,,,,,,,,,,,,7852,2022-02-26_19h10.35.789,multiplicationStroop,2021.2.3,Win32,59.80145916,,,,,,,,,,,,,,,,,,,,,,,,,,,,,,,,,12,1.3823,1,0,18,18,11,1,2,×,6,2 × 6,neutral,smallerFirst,1.5,1.5,12,,,,,,,,
,,,,,,,,,,,,,,,7852,2022-02-26_19h10.35.789,multiplicationStroop,2021.2.3,Win32,59.80145916,,,,,,,,,,,,,,,,,,,,,,,,,,,,,,,,,72,2.0378,1,0,19,19,25,1,9,×,8,9 × 8,neutral,largerFirst,1.5,1.5,72,,,,,,,,
,,,,,,,,,,,,,,,7852,2022-02-26_19h10.35.789,multiplicationStroop,2021.2.3,Win32,59.80145916,,,,,,,,,,,,,,,,,,,,,,,,,,,,,,,,,21,1.8658,1,0,20,20,22,1,7,×,3,7 × 3,neutral,largerFirst,1.5,1.5,21,,,,,,,,
,,,,,,,,,,,,,,,7852,2022-02-26_19h10.35.789,multiplicationStroop,2021.2.3,Win32,59.80145916,,,,,,,,,,,,,,,,,,,,,,,,,,,,,,,,,35,2.1451,1,0,21,21,15,1,7,×,5,7 × 5,neutral,largerFirst,1.5,1.5,35,,,,,,,,
,,,,,,,,,,,,,,,7852,2022-02-26_19h10.35.789,multiplicationStroop,2021.2.3,Win32,59.80145916,,,,,,,,,,,,,,,,,,,,,,,,,,,,,,,,,36,2.4373,1,0,22,22,13,1,4,×,9,4 × 9,neutral,smallerFirst,1.5,1.5,36,,,,,,,,
,,,,,,,,,,,,,,,7852,2022-02-26_19h10.35.789,multiplicationStroop,2021.2.3,Win32,59.80145916,,,,,,,,,,,,,,,,,,,,,,,,,,,,,,,,,54,3.85,1,0,23,23,21,1,9,×,6,9 × 6,neutral,largerFirst,1.5,1.5,54,,,,,,,,
,,,,,,,,,,,,,,,7852,2022-02-26_19h10.35.789,multiplicationStroop,2021.2.3,Win32,59.80145916,,,,,,,,,,,,,,,,,,,,,,,,,,,,,,,,,64,2.0208,1,0,24,24,34,1,8,×,8,8 × 8,neutral,tie,1.5,1.5,64,,,,,,,,
,,,,,,,,,,,,,,,7852,2022-02-26_19h10.35.789,multiplicationStroop,2021.2.3,Win32,59.80145916,,,,,,,,,,,,,,,,,,,,,,,,,,,,,,,,,16,1.932,1,0,25,25,27,1,8,×,2,8 × 2,neutral,largerFirst,1.5,1.5,16,,,,,,,,
,,,,,,,,,,,,,,,7852,2022-02-26_19h10.35.789,multiplicationStroop,2021.2.3,Win32,59.80145916,,,,,,,,,,,,,,,,,,,,,,,,,,,,,,,,,45,1.7994,1,0,26,26,24,1,9,×,5,9 × 5,neutral,largerFirst,1.5,1.5,45,,,,,,,,
,,,,,,,,,,,,,,,7852,2022-02-26_19h10.35.789,multiplicationStroop,2021.2.3,Win32,59.80145916,,,,,,,,,,,,,,,,,,,,,,,,,,,,,,,,,25,1.8325,1,0,27,27,31,1,5,×,5,5 × 5,neutral,tie,1.5,1.5,25,,,,,,,,
,,,,,,,,,,,,,,,7852,2022-02-26_19h10.35.789,multiplicationStroop,2021.2.3,Win32,59.80145916,,,,,,,,,,,,,,,,,,,,,,,,,,,,,,,,,16,1.7663,1,0,28,28,30,1,4,×,4,4 × 4,neutral,tie,1.5,1.5,16,,,,,,,,
,,,,,,,,,,,,,,,7852,2022-02-26_19h10.35.789,multiplicationStroop,2021.2.3,Win32,59.80145916,,,,,,,,,,,,,,,,,,,,,,,,,,,,,,,,,6,1.6486,1,0,29,29,12,1,2,×,3,2 × 3,neutral,smallerFirst,1.5,1.5,6,,,,,,,,
,,,,,,,,,,,,,,,7852,2022-02-26_19h10.35.789,multiplicationStroop,2021.2.3,Win32,59.80145916,,,,,,,,,,,,,,,,,,,,,,,,,,,,,,,,,32,3.1376,1,0,30,30,9,1,4,×,8,4 × 8,neutral,smallerFirst,1.5,1.5,32,,,,,,,,
,,,,,,,,,,,,,,,7852,2022-02-26_19h10.35.789,multiplicationStroop,2021.2.3,Win32,59.80145916,,,,,,,,,,,,,,,,,,,,,,,,,,,,,,,,,42,2.1914,1,0,31,31,20,1,7,×,6,7 × 6,neutral,largerFirst,1.5,1.5,42,,,,,,,,
,,,,,,,,,,,,,,,7852,2022-02-26_19h10.35.789,multiplicationStroop,2021.2.3,Win32,59.80145916,,,,,,,,,,,,,,,,,,,,,,,,,,,,,,,,,63,1.928,1,0,32,32,26,1,9,×,7,9 × 7,neutral,largerFirst,1.5,1.5,63,,,,,,,,
,,,,,,,,,,,,,,,7852,2022-02-26_19h10.35.789,multiplicationStroop,2021.2.3,Win32,59.80145916,,,,,,,,,,,,,,,,,,,,,,,,,,,,,,,,,24,1.683,1,0,33,33,8,1,3,×,8,3 × 8,neutral,smallerFirst,1.5,1.5,24,,,,,,,,
,,,,,,,,,,,,,,,7852,2022-02-26_19h10.35.789,multiplicationStroop,2021.2.3,Win32,59.80145916,,,,,,,,,,,,,,,,,,,,,,,,,,,,,,,,,15,1.6827,1,0,34,34,19,1,5,×,3,5 × 3,neutral,largerFirst,1.5,1.5,15,,,,,,,,
,,,,,,,,,,,,,,,7852,2022-02-26_19h10.35.789,multiplicationStroop,2021.2.3,Win32,59.80145916,,,,,,,,,,,,,,,,,,,,,,,,,,,,,,,,,8,1.6831,1,0,35,35,17,1,4,×,2,4 × 2,neutral,largerFirst,1.5,1.5,8,,,,,,,,
,,,,,,,,,,,,,,,7852,2022-02-26_19h10.35.789,multiplicationStroop,2021.2.3,Win32,59.80145916,,,,,,,,,,,,,,,,,,,,,,,,,,,,,,,,,,,,,,,,,,,,,,,,,,0,1,1,0,1,stimulusFile/mult_blk1.xlsx,,
,,,,,,,,,,,,,,,7852,2022-02-26_19h10.35.789,multiplicationStroop,2021.2.3,Win32,59.80145916,,,,,,,,,,,,,,,,,,,,,,,,,,,,,,,space,3.1675,15,1.6965,1,0,0,0,10,1,3,×,5,3 × 5,incongruent,smallerFirst,2,1,15,,,,,,,,
,,,,,,,,,,,,,,,7852,2022-02-26_19h10.35.789,multiplicationStroop,2021.2.3,Win32,59.80145916,,,,,,,,,,,,,,,,,,,,,,,,,,,,,,,,,28,2.3665,1,0,1,1,16,1,7,×,4,7 × 4,incongruent,largerFirst,1,2,28,,,,,,,,
,,,,,,,,,,,,,,,7852,2022-02-26_19h10.35.789,multiplicationStroop,2021.2.3,Win32,59.80145916,,,,,,,,,,,,,,,,,,,,,,,,,,,,,,,,,25,1.8328,1,0,2,2,31,1,5,×,5,5 × 5,incongruent,tie,1,2,25,,,,,,,,
,,,,,,,,,,,,,,,7852,2022-02-26_19h10.35.789,multiplicationStroop,2021.2.3,Win32,59.80145916,,,,,,,,,,,,,,,,,,,,,,,,,,,,,,,,,8,1.7161,1,0,3,3,24,1,4,×,2,4 × 2,incongruent,largerFirst,1,2,8,,,,,,,,
,,,,,,,,,,,,,,,7852,2022-02-26_19h10.35.789,multiplicationStroop,2021.2.3,Win32,59.80145916,,,,,,,,,,,,,,,,,,,,,,,,,,,,,,,,,18,1.833,1,0,4,4,8,1,3,×,6,3 × 6,incongruent,smallerFirst,2,1,18,,,,,,,,
,,,,,,,,,,,,,,,7852,2022-02-26_19h10.35.789,multiplicationStroop,2021.2.3,Win32,59.80145916,,,,,,,,,,,,,,,,,,,,,,,,,,,,,,,,,49,2.6496,1,0,5,5,33,1,7,×,7,7 × 7,incongruent,tie,1,2,49,,,,,,,,
,,,,,,,,,,,,,,,7852,2022-02-26_19h10.35.789,multiplicationStroop,2021.2.3,Win32,59.80145916,,,,,,,,,,,,,,,,,,,,,,,,,,,,,,,,,16,2.0162,1,0,6,6,23,1,8,×,2,8 × 2,incongruent,largerFirst,1,2,16,,,,,,,,
,,,,,,,,,,,,,,,7852,2022-02-26_19h10.35.789,multiplicationStroop,2021.2.3,Win32,59.80145916,,,,,,,,,,,,,,,,,,,,,,,,,,,,,,,,,9,1.8158,1,0,7,7,29,1,3,×,3,3 × 3,incongruent,tie,1,2,9,,,,,,,,
,,,,,,,,,,,,,,,7852,2022-02-26_19h10.35.789,multiplicationStroop,2021.2.3,Win32,59.80145916,,,,,,,,,,,,,,,,,,,,,,,,,,,,,,,,,42,2.8997,1,0,8,8,17,1,7,×,6,7 × 6,incongruent,largerFirst,1,2,42,,,,,,,,
,,,,,,,,,,,,,,,7852,2022-02-26_19h10.35.789,multiplicationStroop,2021.2.3,Win32,59.80145916,,,,,,,,,,,,,,,,,,,,,,,,,,,,,,,,,56,3.8992,1,0,9,9,14,1,8,×,7,8 × 7,incongruent,largerFirst,1,2,56,,,,,,,,
,,,,,,,,,,,,,,,7852,2022-02-26_19h10.35.789,multiplicationStroop,2021.2.3,Win32,59.80145916,,,,,,,,,,,,,,,,,,,,,,,,,,,,,,,,,14,1.8408,1,0,10,10,4,1,2,×,7,2 × 7,incongruent,smallerFirst,2,1,14,,,,,,,,
,,,,,,,,,,,,,,,7852,2022-02-26_19h10.35.789,multiplicationStroop,2021.2.3,Win32,59.80145916,,,,,,,,,,,,,,,,,,,,,,,,,,,,,,,,,12,1.9165,1,0,11,11,5,1,3,×,4,3 × 4,incongruent,smallerFirst,2,1,12,,,,,,,,
,,,,,,,,,,,,,,,7852,2022-02-26_19h10.35.789,multiplicationStroop,2021.2.3,Win32,59.80145916,,,,,,,,,,,,,,,,,,,,,,,,,,,,,,,,,36,2.1167,1,0,12,12,32,1,6,×,6,6 × 6,incongruent,tie,1,2,36,,,,,,,,
,,,,,,,,,,,,,,,7852,2022-02-26_19h10.35.789,multiplicationStroop,2021.2.3,Win32,59.80145916,,,,,,,,,,,,,,,,,,,,,,,,,,,,,,,,,18,1.8321,1,0,13,13,2,1,2,×,9,2 × 9,incongruent,smallerFirst,2,1,18,,,,,,,,
,,,,,,,,,,,,,,,7852,2022-02-26_19h10.35.789,multiplicationStroop,2021.2.3,Win32,59.80145916,,,,,,,,,,,,,,,,,,,,,,,,,,,,,,,,,4,1.5329,1,0,14,14,28,1,2,×,2,2 × 2,incongruent,tie,1,2,4,,,,,,,,
,,,,,,,,,,,,,,,7852,2022-02-26_19h10.35.789,multiplicationStroop,2021.2.3,Win32,59.80145916,,,,,,,,,,,,,,,,,,,,,,,,,,,,,,,,,20,1.7994,1,0,15,15,27,1,5,×,4,5 × 4,incongruent,largerFirst,1,2,20,,,,,,,,
,,,,,,,,,,,,,,,7852,2022-02-26_19h10.35.789,multiplicationStroop,2021.2.3,Win32,59.80145916,,,,,,,,,,,,,,,,,,,,,,,,,,,,,,,,,30,1.7497,1,0,16,16,25,1,6,×,5,6 × 5,incongruent,largerFirst,1,2,30,,,,,,,,
,,,,,,,,,,,,,,,7852,2022-02-26_19h10.35.789,multiplicationStroop,2021.2.3,Win32,59.80145916,,,,,,,,,,,,,,,,,,,,,,,,,,,,,,,,,40,1.9661,1,0,17,17,13,1,5,×,8,5 × 8,incongruent,smallerFirst,2,1,40,,,,,,,,
,,,,,,,,,,,,,,,7852,2022-02-26_19h10.35.789,multiplicationStroop,2021.2.3,Win32,59.80145916,,,,,,,,,,,,,,,,,,,,,,,,,,,,,,,,,45,1.7998,1,0,18,18,22,1,9,×,5,9 × 5,incongruent,largerFirst,1,2,45,,,,,,,,
,,,,,,,,,,,,,,,7852,2022-02-26_19h10.35.789,multiplicationStroop,2021.2.3,Win32,59.80145916,,,,,,,,,,,,,,,,,,,,,,,,,,,,,,,,,36,1.8829,1,0,19,19,15,1,9,×,4,9 × 4,incongruent,largerFirst,1,2,36,,,,,,,,
,,,,,,,,,,,,,,,7852,2022-02-26_19h10.35.789,multiplicationStroop,2021.2.3,Win32,59.80145916,,,,,,,,,,,,,,,,,,,,,,,,,,,,,,,,,12,1.6162,1,0,20,20,19,1,6,×,2,6 × 2,incongruent,largerFirst,1,2,12,,,,,,,,
,,,,,,,,,,,,,,,7852,2022-02-26_19h10.35.789,multiplicationStroop,2021.2.3,Win32,59.80145916,,,,,,,,,,,,,,,,,,,,,,,,,,,,,,,,,6,1.7664,1,0,21,21,11,1,2,×,3,2 × 3,incongruent,smallerFirst,2,1,6,,,,,,,,
,,,,,,,,,,,,,,,7852,2022-02-26_19h10.35.789,multiplicationStroop,2021.2.3,Win32,59.80145916,,,,,,,,,,,,,,,,,,,,,,,,,,,,,,,,,54,1.9994,1,0,22,22,6,1,6,×,9,6 × 9,incongruent,smallerFirst,2,1,54,,,,,,,,
,,,,,,,,,,,,,,,7852,2022-02-26_19h10.35.789,multiplicationStroop,2021.2.3,Win32,59.80145916,,,,,,,,,,,,,,,,,,,,,,,,,,,,,,,,,35,1.7996,1,0,23,23,12,1,5,×,7,5 × 7,incongruent,smallerFirst,2,1,35,,,,,,,,
,,,,,,,,,,,,,,,7852,2022-02-26_19h10.35.789,multiplicationStroop,2021.2.3,Win32,59.80145916,,,,,,,,,,,,,,,,,,,,,,,,,,,,,,,,,24,1.9662,1,0,24,24,9,1,3,×,8,3 × 8,incongruent,smallerFirst,2,1,24,,,,,,,,
,,,,,,,,,,,,,,,7852,2022-02-26_19h10.35.789,multiplicationStroop,2021.2.3,Win32,59.80145916,,,,,,,,,,,,,,,,,,,,,,,,,,,,,,,,,72,2.2492,1,0,25,25,0,1,8,×,9,8 × 9,incongruent,smallerFirst,2,1,72,,,,,,,,
,,,,,,,,,,,,,,,7852,2022-02-26_19h10.35.789,multiplicationStroop,2021.2.3,Win32,59.80145916,,,,,,,,,,,,,,,,,,,,,,,,,,,,,,,,,32,1.4828,1,0,26,26,7,1,4,×,8,4 × 8,incongruent,smallerFirst,2,1,32,,,,,,,,
,,,,,,,,,,,,,,,7852,2022-02-26_19h10.35.789,multiplicationStroop,2021.2.3,Win32,59.80145916,,,,,,,,,,,,,,,,,,,,,,,,,,,,,,,,,24,1.5497,1,0,27,27,20,1,6,×,4,6 × 4,incongruent,largerFirst,1,2,24,,,,,,,,
,,,,,,,,,,,,,,,7852,2022-02-26_19h10.35.789,multiplicationStroop,2021.2.3,Win32,59.80145916,,,,,,,,,,,,,,,,,,,,,,,,,,,,,,,,,27,1.9507,1,0,28,28,18,1,9,×,3,9 × 3,incongruent,largerFirst,1,2,27,,,,,,,,
,,,,,,,,,,,,,,,7852,2022-02-26_19h10.35.789,multiplicationStroop,2021.2.3,Win32,59.80145916,,,,,,,,,,,,,,,,,,,,,,,,,,,,,,,,,64,2.0333,1,0,29,29,34,1,8,×,8,8 × 8,incongruent,tie,1,2,64,,,,,,,,
,,,,,,,,,,,,,,,7852,2022-02-26_19h10.35.789,multiplicationStroop,2021.2.3,Win32,59.80145916,,,,,,,,,,,,,,,,,,,,,,,,,,,,,,,,,63,2.5635,1,0,30,30,3,1,7,×,9,7 × 9,incongruent,smallerFirst,2,1,63,,,,,,,,
,,,,,,,,,,,,,,,7852,2022-02-26_19h10.35.789,multiplicationStroop,2021.2.3,Win32,59.80145916,,,,,,,,,,,,,,,,,,,,,,,,,,,,,,,,,16,1.8661,1,0,31,31,30,1,4,×,4,4 × 4,incongruent,tie,1,2,16,,,,,,,,
,,,,,,,,,,,,,,,7852,2022-02-26_19h10.35.789,multiplicationStroop,2021.2.3,Win32,59.80145916,,,,,,,,,,,,,,,,,,,,,,,,,,,,,,,,,81,2.6498,1,0,32,32,35,1,9,×,9,9 × 9,incongruent,tie,1,2,81,,,,,,,,
,,,,,,,,,,,,,,,7852,2022-02-26_19h10.35.789,multiplicationStroop,2021.2.3,Win32,59.80145916,,,,,,,,,,,,,,,,,,,,,,,,,,,,,,,,,10,1.5829,1,0,33,33,21,1,5,×,2,5 × 2,incongruent,largerFirst,1,2,10,,,,,,,,
,,,,,,,,,,,,,,,7852,2022-02-26_19h10.35.789,multiplicationStroop,2021.2.3,Win32,59.80145916,,,,,,,,,,,,,,,,,,,,,,,,,,,,,,,,,21,1.6328,1,0,34,34,26,1,7,×,3,7 × 3,incongruent,largerFirst,1,2,21,,,,,,,,
,,,,,,,,,,,,,,,7852,2022-02-26_19h10.35.789,multiplicationStroop,2021.2.3,Win32,59.80145916,,,,,,,,,,,,,,,,,,,,,,,,,,,,,,,,,48,2.2325,1,0,35,35,1,1,6,×,8,6 × 8,incongruent,smallerFirst,2,1,48,,,,,,,,
,,,,,,,,,,,,,,,7852,2022-02-26_19h10.35.789,multiplicationStroop,2021.2.3,Win32,59.80145916,,,,,,,,,,,,,,,,,,,,,,,,,,,,,,,,,,,,,,,,,,,,,,,,,,0,2,2,5,1,stimulusFile/mult_blk6_INcongruent.xlsx,,
,,,,,,,,,,,,,,,7852,2022-02-26_19h10.35.789,multiplicationStroop,2021.2.3,Win32,59.80145916,,,,,,,,,,,,,,,,,,,,,,,,,,,,,,,space,10.7125,63,3.0009,1,0,0,0,12,1,7,×,9,7 × 9,neutral,smallerFirst,1.5,1.5,63,,,,,,,,
,,,,,,,,,,,,,,,7852,2022-02-26_19h10.35.789,multiplicationStroop,2021.2.3,Win32,59.80145916,,,,,,,,,,,,,,,,,,,,,,,,,,,,,,,,,16,2.2161,1,0,1,1,13,1,2,×,8,2 × 8,neutral,smallerFirst,1.5,1.5,16,,,,,,,,
,,,,,,,,,,,,,,,7852,2022-02-26_19h10.35.789,multiplicationStroop,2021.2.3,Win32,59.80145916,,,,,,,,,,,,,,,,,,,,,,,,,,,,,,,,,14,1.6498,1,0,2,2,16,1,7,×,2,7 × 2,neutral,largerFirst,1.5,1.5,14,,,,,,,,
,,,,,,,,,,,,,,,7852,2022-02-26_19h10.35.789,multiplicationStroop,2021.2.3,Win32,59.80145916,,,,,,,,,,,,,,,,,,,,,,,,,,,,,,,,,9,2.5662,1,0,3,3,29,1,3,×,3,3 × 3,neutral,tie,1.5,1.5,9,,,,,,,,
,,,,,,,,,,,,,,,7852,2022-02-26_19h10.35.789,multiplicationStroop,2021.2.3,Win32,59.80145916,,,,,,,,,,,,,,,,,,,,,,,,,,,,,,,,,24,1.7662,1,0,4,4,2,1,4,×,6,4 × 6,neutral,smallerFirst,1.5,1.5,24,,,,,,,,
,,,,,,,,,,,,,,,7852,2022-02-26_19h10.35.789,multiplicationStroop,2021.2.3,Win32,59.80145916,,,,,,,,,,,,,,,,,,,,,,,,,,,,,,,,,20,1.5663,1,0,5,5,20,1,5,×,4,5 × 4,neutral,largerFirst,1.5,1.5,20,,,,,,,,
,,,,,,,,,,,,,,,7852,2022-02-26_19h10.35.789,multiplicationStroop,2021.2.3,Win32,59.80145916,,,,,,,,,,,,,,,,,,,,,,,,,,,,,,,,,6,1.633,1,0,6,6,26,1,3,×,2,3 × 2,neutral,largerFirst,1.5,1.5,6,,,,,,,,
,,,,,,,,,,,,,,,7852,2022-02-26_19h10.35.789,multiplicationStroop,2021.2.3,Win32,59.80145916,,,,,,,,,,,,,,,,,,,,,,,,,,,,,,,,,30,1.6995,1,0,7,7,19,1,6,×,5,6 × 5,neutral,largerFirst,1.5,1.5,30,,,,,,,,
,,,,,,,,,,,,,,,7852,2022-02-26_19h10.35.789,multiplicationStroop,2021.2.3,Win32,59.80145916,,,,,,,,,,,,,,,,,,,,,,,,,,,,,,,,,16,1.8498,1,0,8,8,30,1,4,×,4,4 × 4,neutral,tie,1.5,1.5,16,,,,,,,,
,,,,,,,,,,,,,,,7852,2022-02-26_19h10.35.789,multiplicationStroop,2021.2.3,Win32,59.80145916,,,,,,,,,,,,,,,,,,,,,,,,,,,,,,,,,32,1.6826,1,0,9,9,23,1,8,×,4,8 × 4,neutral,largerFirst,1.5,1.5,32,,,,,,,,
,,,,,,,,,,,,,,,7852,2022-02-26_19h10.35.789,multiplicationStroop,2021.2.3,Win32,59.80145916,,,,,,,,,,,,,,,,,,,,,,,,,,,,,,,,,36,1.9831,1,0,10,10,27,1,9,×,4,9 × 4,neutral,largerFirst,1.5,1.5,36,,,,,,,,
,,,,,,,,,,,,,,,7852,2022-02-26_19h10.35.789,multiplicationStroop,2021.2.3,Win32,59.80145916,,,,,,,,,,,,,,,,,,,,,,,,,,,,,,,,,18,1.7997,1,0,11,11,18,1,9,×,2,9 × 2,neutral,largerFirst,1.5,1.5,18,,,,,,,,
,,,,,,,,,,,,,,,7852,2022-02-26_19h10.35.789,multiplicationStroop,2021.2.3,Win32,59.80145916,,,,,,,,,,,,,,,,,,,,,,,,,,,,,,,,,12,1.4826,0,0,12,12,32,1,6,×,6,6 × 6,neutral,tie,1.5,1.5,36,,,,,,,,
,,,,,,,,,,,,,,,7852,2022-02-26_19h10.35.789,multiplicationStroop,2021.2.3,Win32,59.80145916,,,,,,,,,,,,,,,,,,,,,,,,,,,,,,,,,21,1.4163,1,0,13,13,8,1,3,×,7,3 × 7,neutral,smallerFirst,1.5,1.5,21,,,,,,,,
,,,,,,,,,,,,,,,7852,2022-02-26_19h10.35.789,multiplicationStroop,2021.2.3,Win32,59.80145916,,,,,,,,,,,,,,,,,,,,,,,,,,,,,,,,,45,2.0163,1,0,14,14,10,1,5,×,9,5 × 9,neutral,smallerFirst,1.5,1.5,45,,,,,,,,
,,,,,,,,,,,,,,,7852,2022-02-26_19h10.35.789,multiplicationStroop,2021.2.3,Win32,59.80145916,,,,,,,,,,,,,,,,,,,,,,,,,,,,,,,,,8,1.783,1,0,15,15,3,1,2,×,4,2 × 4,neutral,smallerFirst,1.5,1.5,8,,,,,,,,
,,,,,,,,,,,,,,,7852,2022-02-26_19h10.35.789,multiplicationStroop,2021.2.3,Win32,59.80145916,,,,,,,,,,,,,,,,,,,,,,,,,,,,,,,,,18,2.1995,1,0,16,16,0,1,3,×,6,3 × 6,neutral,smallerFirst,1.5,1.5,18,,,,,,,,
,,,,,,,,,,,,,,,7852,2022-02-26_19h10.35.789,multiplicationStroop,2021.2.3,Win32,59.80145916,,,,,,,,,,,,,,,,,,,,,,,,,,,,,,,,,42,1.8824,1,0,17,17,6,1,6,×,7,6 × 7,neutral,smallerFirst,1.5,1.5,42,,,,,,,,
,,,,,,,,,,,,,,,7852,2022-02-26_19h10.35.789,multiplicationStroop,2021.2.3,Win32,59.80145916,,,,,,,,,,,,,,,,,,,,,,,,,,,,,,,,,49,1.9998,1,0,18,18,33,1,7,×,7,7 × 7,neutral,tie,1.5,1.5,49,,,,,,,,
,,,,,,,,,,,,,,,7852,2022-02-26_19h10.35.789,multiplicationStroop,2021.2.3,Win32,59.80145916,,,,,,,,,,,,,,,,,,,,,,,,,,,,,,,,,48,2.3333,1,0,19,19,15,1,8,×,6,8 × 6,neutral,largerFirst,1.5,1.5,48,,,,,,,,
,,,,,,,,,,,,,,,7852,2022-02-26_19h10.35.789,multiplicationStroop,2021.2.3,Win32,59.80145916,,,,,,,,,,,,,,,,,,,,,,,,,,,,,,,,,56,1.8492,1,0,20,20,9,1,7,×,8,7 × 8,neutral,smallerFirst,1.5,1.5,56,,,,,,,,
,,,,,,,,,,,,,,,7852,2022-02-26_19h10.35.789,multiplicationStroop,2021.2.3,Win32,59.80145916,,,,,,,,,,,,,,,,,,,,,,,,,,,,,,,,,24,2.2,1,0,21,21,22,1,8,×,3,8 × 3,neutral,largerFirst,1.5,1.5,24,,,,,,,,
,,,,,,,,,,,,,,,7852,2022-02-26_19h10.35.789,multiplicationStroop,2021.2.3,Win32,59.80145916,,,,,,,,,,,,,,,,,,,,,,,,,,,,,,,,,64,2.0824,1,0,22,22,34,1,8,×,8,8 × 8,neutral,tie,1.5,1.5,64,,,,,,,,
,,,,,,,,,,,,,,,7852,2022-02-26_19h10.35.789,multiplicationStroop,2021.2.3,Win32,59.80145916,,,,,,,,,,,,,,,,,,,,,,,,,,,,,,,,,40,2.1993,1,0,23,23,24,1,8,×,5,8 × 5,neutral,largerFirst,1.5,1.5,40,,,,,,,,
,,,,,,,,,,,,,,,7852,2022-02-26_19h10.35.789,multiplicationStroop,2021.2.3,Win32,59.80145916,,,,,,,,,,,,,,,,,,,,,,,,,,,,,,,,,35,3.0332,1,0,24,24,1,1,5,×,7,5 × 7,neutral,smallerFirst,1.5,1.5,35,,,,,,,,
,,,,,,,,,,,,,,,7852,2022-02-26_19h10.35.789,multiplicationStroop,2021.2.3,Win32,59.80145916,,,,,,,,,,,,,,,,,,,,,,,,,,,,,,,,,28,1.6661,1,0,25,25,17,1,7,×,4,7 × 4,neutral,largerFirst,1.5,1.5,28,,,,,,,,
,,,,,,,,,,,,,,,7852,2022-02-26_19h10.35.789,multiplicationStroop,2021.2.3,Win32,59.80145916,,,,,,,,,,,,,,,,,,,,,,,,,,,,,,,,,25,1.6832,1,0,26,26,31,1,5,×,5,5 × 5,neutral,tie,1.5,1.5,25,,,,,,,,
,,,,,,,,,,,,,,,7852,2022-02-26_19h10.35.789,multiplicationStroop,2021.2.3,Win32,59.80145916,,,,,,,,,,,,,,,,,,,,,,,,,,,,,,,,,12,1.4659,1,0,27,27,25,1,6,×,2,6 × 2,neutral,largerFirst,1.5,1.5,12,,,,,,,,
,,,,,,,,,,,,,,,7852,2022-02-26_19h10.35.789,multiplicationStroop,2021.2.3,Win32,59.80145916,,,,,,,,,,,,,,,,,,,,,,,,,,,,,,,,,15,1.6669,1,0,28,28,5,1,3,×,5,3 × 5,neutral,smallerFirst,1.5,1.5,15,,,,,,,,
,,,,,,,,,,,,,,,7852,2022-02-26_19h10.35.789,multiplicationStroop,2021.2.3,Win32,59.80145916,,,,,,,,,,,,,,,,,,,,,,,,,,,,,,,,,72,2.0326,1,0,29,29,11,1,8,×,9,8 × 9,neutral,smallerFirst,1.5,1.5,72,,,,,,,,
,,,,,,,,,,,,,,,7852,2022-02-26_19h10.35.789,multiplicationStroop,2021.2.3,Win32,59.80145916,,,,,,,,,,,,,,,,,,,,,,,,,,,,,,,,,81,1.9827,1,0,30,30,35,1,9,×,9,9 × 9,neutral,tie,1.5,1.5,81,,,,,,,,
,,,,,,,,,,,,,,,7852,2022-02-26_19h10.35.789,multiplicationStroop,2021.2.3,Win32,59.80145916,,,,,,,,,,,,,,,,,,,,,,,,,,,,,,,,,27,1.8495,1,0,31,31,14,1,9,×,3,9 × 3,neutral,largerFirst,1.5,1.5,27,,,,,,,,
,,,,,,,,,,,,,,,7852,2022-02-26_19h10.35.789,multiplicationStroop,2021.2.3,Win32,59.80145916,,,,,,,,,,,,,,,,,,,,,,,,,,,,,,,,,10,1.4662,1,0,32,32,4,1,2,×,5,2 × 5,neutral,smallerFirst,1.5,1.5,10,,,,,,,,
,,,,,,,,,,,,,,,7852,2022-02-26_19h10.35.789,multiplicationStroop,2021.2.3,Win32,59.80145916,,,,,,,,,,,,,,,,,,,,,,,,,,,,,,,,,54,2.2333,1,0,33,33,7,1,6,×,9,6 × 9,neutral,smallerFirst,1.5,1.5,54,,,,,,,,
,,,,,,,,,,,,,,,7852,2022-02-26_19h10.35.789,multiplicationStroop,2021.2.3,Win32,59.80145916,,,,,,,,,,,,,,,,,,,,,,,,,,,,,,,,,12,1.3662,1,0,34,34,21,1,4,×,3,4 × 3,neutral,largerFirst,1.5,1.5,12,,,,,,,,
,,,,,,,,,,,,,,,7852,2022-02-26_19h10.35.789,multiplicationStroop,2021.2.3,Win32,59.80145916,,,,,,,,,,,,,,,,,,,,,,,,,,,,,,,,,4,1.5331,1,0,35,35,28,1,2,×,2,2 × 2,neutral,tie,1.5,1.5,4,,,,,,,,
,,,,,,,,,,,,,,,7852,2022-02-26_19h10.35.789,multiplicationStroop,2021.2.3,Win32,59.80145916,,,,,,,,,,,,,,,,,,,,,,,,,,,,,,,,,,,,,,,,,,,,,,,,,,0,3,3,1,1,stimulusFile/mult_blk2.xlsx,,
,,,,,,,,,,,,,,,7852,2022-02-26_19h10.35.789,multiplicationStroop,2021.2.3,Win32,59.80145916,,,,,,,,,,,,,,,,,,,,,,,,,,,,,,,space,15.1857,18,1.7858,1,0,0,0,22,1,6,×,3,6 × 3,incongruent,largerFirst,1,2,18,,,,,,,,
,,,,,,,,,,,,,,,7852,2022-02-26_19h10.35.789,multiplicationStroop,2021.2.3,Win32,59.80145916,,,,,,,,,,,,,,,,,,,,,,,,,,,,,,,,,18,1.5996,1,0,1,1,16,1,9,×,2,9 × 2,incongruent,largerFirst,1,2,18,,,,,,,,
,,,,,,,,,,,,,,,7852,2022-02-26_19h10.35.789,multiplicationStroop,2021.2.3,Win32,59.80145916,,,,,,,,,,,,,,,,,,,,,,,,,,,,,,,,,30,3.3159,1,0,2,2,11,1,5,×,6,5 × 6,incongruent,smallerFirst,2,1,30,,,,,,,,
,,,,,,,,,,,,,,,7852,2022-02-26_19h10.35.789,multiplicationStroop,2021.2.3,Win32,59.80145916,,,,,,,,,,,,,,,,,,,,,,,,,,,,,,,,,54,1.9078,1,0,3,3,20,1,9,×,6,9 × 6,incongruent,largerFirst,1,2,54,,,,,,,,
,,,,,,,,,,,,,,,7852,2022-02-26_19h10.35.789,multiplicationStroop,2021.2.3,Win32,59.80145916,,,,,,,,,,,,,,,,,,,,,,,,,,,,,,,,,6,1.6332,1,0,4,4,25,1,3,×,2,3 × 2,incongruent,largerFirst,1,2,6,,,,,,,,
,,,,,,,,,,,,,,,7852,2022-02-26_19h10.35.789,multiplicationStroop,2021.2.3,Win32,59.80145916,,,,,,,,,,,,,,,,,,,,,,,,,,,,,,,,,24,1.6996,1,0,5,5,6,1,4,×,6,4 × 6,incongruent,smallerFirst,2,1,24,,,,,,,,
,,,,,,,,,,,,,,,7852,2022-02-26_19h10.35.789,multiplicationStroop,2021.2.3,Win32,59.80145916,,,,,,,,,,,,,,,,,,,,,,,,,,,,,,,,,14,1.5999,1,0,6,6,18,1,7,×,2,7 × 2,incongruent,largerFirst,1,2,14,,,,,,,,
,,,,,,,,,,,,,,,7852,2022-02-26_19h10.35.789,multiplicationStroop,2021.2.3,Win32,59.80145916,,,,,,,,,,,,,,,,,,,,,,,,,,,,,,,,,35,1.7326,1,0,7,7,26,1,7,×,5,7 × 5,incongruent,largerFirst,1,2,35,,,,,,,,
,,,,,,,,,,,,,,,7852,2022-02-26_19h10.35.789,multiplicationStroop,2021.2.3,Win32,59.80145916,,,,,,,,,,,,,,,,,,,,,,,,,,,,,,,,,12,1.5498,1,0,8,8,5,1,2,×,6,2 × 6,incongruent,smallerFirst,2,1,12,,,,,,,,
,,,,,,,,,,,,,,,7852,2022-02-26_19h10.35.789,multiplicationStroop,2021.2.3,Win32,59.80145916,,,,,,,,,,,,,,,,,,,,,,,,,,,,,,,,,20,1.5662,1,0,9,9,13,1,4,×,5,4 × 5,incongruent,smallerFirst,2,1,20,,,,,,,,
,,,,,,,,,,,,,,,7852,2022-02-26_19h10.35.789,multiplicationStroop,2021.2.3,Win32,59.80145916,,,,,,,,,,,,,,,,,,,,,,,,,,,,,,,,,12,1.5991,1,0,10,10,19,1,4,×,3,4 × 3,incongruent,largerFirst,1,2,12,,,,,,,,
,,,,,,,,,,,,,,,7852,2022-02-26_19h10.35.789,multiplicationStroop,2021.2.3,Win32,59.80145916,,,,,,,,,,,,,,,,,,,,,,,,,,,,,,,,,64,1.7169,1,0,11,11,34,1,8,×,8,8 × 8,neutral,tie,2,1,64,,,,,,,,
,,,,,,,,,,,,,,,7852,2022-02-26_19h10.35.789,multiplicationStroop,2021.2.3,Win32,59.80145916,,,,,,,,,,,,,,,,,,,,,,,,,,,,,,,,,8,1.533,1,0,12,12,10,1,2,×,4,2 × 4,incongruent,smallerFirst,2,1,8,,,,,,,,
,,,,,,,,,,,,,,,7852,2022-02-26_19h10.35.789,multiplicationStroop,2021.2.3,Win32,59.80145916,,,,,,,,,,,,,,,,,,,,,,,,,,,,,,,,,36,1.7994,1,0,13,13,1,1,4,×,9,4 × 9,incongruent,smallerFirst,2,1,36,,,,,,,,
,,,,,,,,,,,,,,,7852,2022-02-26_19h10.35.789,multiplicationStroop,2021.2.3,Win32,59.80145916,,,,,,,,,,,,,,,,,,,,,,,,,,,,,,,,,63,1.8497,1,0,14,14,17,1,9,×,7,9 × 7,incongruent,largerFirst,1,2,63,,,,,,,,
,,,,,,,,,,,,,,,7852,2022-02-26_19h10.35.789,multiplicationStroop,2021.2.3,Win32,59.80145916,,,,,,,,,,,,,,,,,,,,,,,,,,,,,,,,,48,1.7831,1,0,15,15,15,1,8,×,6,8 × 6,incongruent,largerFirst,1,2,48,,,,,,,,
,,,,,,,,,,,,,,,7852,2022-02-26_19h10.35.789,multiplicationStroop,2021.2.3,Win32,59.80145916,,,,,,,,,,,,,,,,,,,,,,,,,,,,,,,,,72,1.716,1,0,16,16,14,1,9,×,8,9 × 8,incongruent,largerFirst,1,2,72,,,,,,,,
,,,,,,,,,,,,,,,7852,2022-02-26_19h10.35.789,multiplicationStroop,2021.2.3,Win32,59.80145916,,,,,,,,,,,,,,,,,,,,,,,,,,,,,,,,,40,1.8496,1,0,17,17,27,1,8,×,5,8 × 5,incongruent,largerFirst,1,2,40,,,,,,,,
,,,,,,,,,,,,,,,7852,2022-02-26_19h10.35.789,multiplicationStroop,2021.2.3,Win32,59.80145916,,,,,,,,,,,,,,,,,,,,,,,,,,,,,,,,,4,1.4493,1,0,18,18,28,1,2,×,2,2 × 2,neutral,tie,2,1,4,,,,,,,,
,,,,,,,,,,,,,,,7852,2022-02-26_19h10.35.789,multiplicationStroop,2021.2.3,Win32,59.80145916,,,,,,,,,,,,,,,,,,,,,,,,,,,,,,,,,42,1.7831,1,0,19,19,3,1,6,×,7,6 × 7,incongruent,smallerFirst,2,1,42,,,,,,,,
,,,,,,,,,,,,,,,7852,2022-02-26_19h10.35.789,multiplicationStroop,2021.2.3,Win32,59.80145916,,,,,,,,,,,,,,,,,,,,,,,,,,,,,,,,,32,1.7493,1,0,20,20,21,1,8,×,4,8 × 4,incongruent,largerFirst,1,2,32,,,,,,,,
,,,,,,,,,,,,,,,7852,2022-02-26_19h10.35.789,multiplicationStroop,2021.2.3,Win32,59.80145916,,,,,,,,,,,,,,,,,,,,,,,,,,,,,,,,,25,1.8834,1,0,21,21,31,1,5,×,5,5 × 5,neutral,tie,2,1,25,,,,,,,,
,,,,,,,,,,,,,,,7852,2022-02-26_19h10.35.789,multiplicationStroop,2021.2.3,Win32,59.80145916,,,,,,,,,,,,,,,,,,,,,,,,,,,,,,,,,21,1.6328,1,0,22,22,12,1,3,×,7,3 × 7,incongruent,smallerFirst,2,1,21,,,,,,,,
,,,,,,,,,,,,,,,7852,2022-02-26_19h10.35.789,multiplicationStroop,2021.2.3,Win32,59.80145916,,,,,,,,,,,,,,,,,,,,,,,,,,,,,,,,,56,1.9997,1,0,23,23,0,1,7,×,8,7 × 8,incongruent,smallerFirst,2,1,56,,,,,,,,
,,,,,,,,,,,,,,,7852,2022-02-26_19h10.35.789,multiplicationStroop,2021.2.3,Win32,59.80145916,,,,,,,,,,,,,,,,,,,,,,,,,,,,,,,,,81,1.7497,1,0,24,24,35,1,9,×,9,9 × 9,neutral,tie,2,1,81,,,,,,,,
,,,,,,,,,,,,,,,7852,2022-02-26_19h10.35.789,multiplicationStroop,2021.2.3,Win32,59.80145916,,,,,,,,,,,,,,,,,,,,,,,,,,,,,,,,,27,2.0161,1,0,25,25,4,1,3,×,9,3 × 9,incongruent,smallerFirst,2,1,27,,,,,,,,
,,,,,,,,,,,,,,,7852,2022-02-26_19h10.35.789,multiplicationStroop,2021.2.3,Win32,59.80145916,,,,,,,,,,,,,,,,,,,,,,,,,,,,,,,,,16,2.1989,1,0,26,26,30,1,4,×,4,4 × 4,neutral,tie,2,1,16,,,,,,,,
,,,,,,,,,,,,,,,7852,2022-02-26_19h10.35.789,multiplicationStroop,2021.2.3,Win32,59.80145916,,,,,,,,,,,,,,,,,,,,,,,,,,,,,,,,,28,2.0166,1,0,27,27,2,1,4,×,7,4 × 7,incongruent,smallerFirst,2,1,28,,,,,,,,
,,,,,,,,,,,,,,,7852,2022-02-26_19h10.35.789,multiplicationStroop,2021.2.3,Win32,59.80145916,,,,,,,,,,,,,,,,,,,,,,,,,,,,,,,,,16,1.8993,1,0,28,28,9,1,2,×,8,2 × 8,incongruent,smallerFirst,2,1,16,,,,,,,,
,,,,,,,,,,,,,,,7852,2022-02-26_19h10.35.789,multiplicationStroop,2021.2.3,Win32,59.80145916,,,,,,,,,,,,,,,,,,,,,,,,,,,,,,,,,9,1.5167,1,0,29,29,29,1,3,×,3,3 × 3,neutral,tie,2,1,9,,,,,,,,
,,,,,,,,,,,,,,,7852,2022-02-26_19h10.35.789,multiplicationStroop,2021.2.3,Win32,59.80145916,,,,,,,,,,,,,,,,,,,,,,,,,,,,,,,,,36,2.1159,1,0,30,30,32,1,6,×,6,6 × 6,neutral,tie,2,1,36,,,,,,,,
,,,,,,,,,,,,,,,7852,2022-02-26_19h10.35.789,multiplicationStroop,2021.2.3,Win32,59.80145916,,,,,,,,,,,,,,,,,,,,,,,,,,,,,,,,,45,1.9166,1,0,31,31,8,1,5,×,9,5 × 9,incongruent,smallerFirst,2,1,45,,,,,,,,
,,,,,,,,,,,,,,,7852,2022-02-26_19h10.35.789,multiplicationStroop,2021.2.3,Win32,59.80145916,,,,,,,,,,,,,,,,,,,,,,,,,,,,,,,,,10,1.7663,1,0,32,32,7,1,2,×,5,2 × 5,incongruent,smallerFirst,2,1,10,,,,,,,,
,,,,,,,,,,,,,,,7852,2022-02-26_19h10.35.789,multiplicationStroop,2021.2.3,Win32,59.80145916,,,,,,,,,,,,,,,,,,,,,,,,,,,,,,,,,24,1.6827,1,0,33,33,23,1,8,×,3,8 × 3,incongruent,largerFirst,1,2,24,,,,,,,,
,,,,,,,,,,,,,,,7852,2022-02-26_19h10.35.789,multiplicationStroop,2021.2.3,Win32,59.80145916,,,,,,,,,,,,,,,,,,,,,,,,,,,,,,,,,15,2.083,1,0,34,34,24,1,5,×,3,5 × 3,incongruent,largerFirst,1,2,15,,,,,,,,
,,,,,,,,,,,,,,,7852,2022-02-26_19h10.35.789,multiplicationStroop,2021.2.3,Win32,59.80145916,,,,,,,,,,,,,,,,,,,,,,,,,,,,,,,,,49,3.1869,1,0,35,35,33,1,7,×,7,7 × 7,neutral,tie,2,1,49,,,,,,,,
,,,,,,,,,,,,,,,7852,2022-02-26_19h10.35.789,multiplicationStroop,2021.2.3,Win32,59.80145916,,,,,,,,,,,,,,,,,,,,,,,,,,,,,,,,,,,,,,,,,,,,,,,,,,0,4,4,4,1,stimulusFile/mult_blk5_INcongruent.xlsx,,
,,,,,,,,,,,,,,,7852,2022-02-26_19h10.35.789,multiplicationStroop,2021.2.3,Win32,59.80145916,,,,,,,,,,,,,,,,,,,,,,,,,,,,,,,space,2.4499,24,1.8477,1,0,0,0,11,1,4,×,6,4 × 6,congruent,smallerFirst,1,2,24,,,,,,,,
,,,,,,,,,,,,,,,7852,2022-02-26_19h10.35.789,multiplicationStroop,2021.2.3,Win32,59.80145916,,,,,,,,,,,,,,,,,,,,,,,,,,,,,,,,,28,1.7524,1,0,1,1,13,1,4,×,7,4 × 7,congruent,smallerFirst,1,2,28,,,,,,,,
,,,,,,,,,,,,,,,7852,2022-02-26_19h10.35.789,multiplicationStroop,2021.2.3,Win32,59.80145916,,,,,,,,,,,,,,,,,,,,,,,,,,,,,,,,,10,1.5629,1,0,2,2,10,1,2,×,5,2 × 5,congruent,smallerFirst,1,2,10,,,,,,,,
,,,,,,,,,,,,,,,7852,2022-02-26_19h10.35.789,multiplicationStroop,2021.2.3,Win32,59.80145916,,,,,,,,,,,,,,,,,,,,,,,,,,,,,,,,,32,1.6326,1,0,3,3,6,1,4,×,8,4 × 8,congruent,smallerFirst,1,2,32,,,,,,,,
,,,,,,,,,,,,,,,7852,2022-02-26_19h10.35.789,multiplicationStroop,2021.2.3,Win32,59.80145916,,,,,,,,,,,,,,,,,,,,,,,,,,,,,,,,,6,1.8864,1,0,4,4,27,1,3,×,2,3 × 2,congruent,largerFirst,2,1,6,,,,,,,,
,,,,,,,,,,,,,,,7852,2022-02-26_19h10.35.789,multiplicationStroop,2021.2.3,Win32,59.80145916,,,,,,,,,,,,,,,,,,,,,,,,,,,,,,,,,12,1.3793,1,0,5,5,5,1,2,×,6,2 × 6,congruent,smallerFirst,1,2,12,,,,,,,,
,,,,,,,,,,,,,,,7852,2022-02-26_19h10.35.789,multiplicationStroop,2021.2.3,Win32,59.80145916,,,,,,,,,,,,,,,,,,,,,,,,,,,,,,,,,42,1.7704,1,0,6,6,17,1,7,×,6,7 × 6,congruent,largerFirst,2,1,42,,,,,,,,
,,,,,,,,,,,,,,,7852,2022-02-26_19h10.35.789,multiplicationStroop,2021.2.3,Win32,59.80145916,,,,,,,,,,,,,,,,,,,,,,,,,,,,,,,,,27,2.4455,1,0,7,7,12,1,3,×,9,3 × 9,congruent,smallerFirst,1,2,27,,,,,,,,
,,,,,,,,,,,,,,,7852,2022-02-26_19h10.35.789,multiplicationStroop,2021.2.3,Win32,59.80145916,,,,,,,,,,,,,,,,,,,,,,,,,,,,,,,,,81,1.8309,1,0,8,8,35,1,9,×,9,9 × 9,neutral,tie,1,2,81,,,,,,,,
,,,,,,,,,,,,,,,7852,2022-02-26_19h10.35.789,multiplicationStroop,2021.2.3,Win32,59.80145916,,,,,,,,,,,,,,,,,,,,,,,,,,,,,,,,,36,2.0708,0,0,9,9,7,1,7,×,9,7 × 9,congruent,smallerFirst,1,2,63,,,,,,,,
,,,,,,,,,,,,,,,7852,2022-02-26_19h10.35.789,multiplicationStroop,2021.2.3,Win32,59.80145916,,,,,,,,,,,,,,,,,,,,,,,,,,,,,,,,,56,1.8492,1,0,10,10,22,1,8,×,7,8 × 7,congruent,largerFirst,2,1,56,,,,,,,,
,,,,,,,,,,,,,,,7852,2022-02-26_19h10.35.789,multiplicationStroop,2021.2.3,Win32,59.80145916,,,,,,,,,,,,,,,,,,,,,,,,,,,,,,,,,36,1.9449,1,0,11,11,14,1,9,×,4,9 × 4,congruent,largerFirst,2,1,36,,,,,,,,
,,,,,,,,,,,,,,,7852,2022-02-26_19h10.35.789,multiplicationStroop,2021.2.3,Win32,59.80145916,,,,,,,,,,,,,,,,,,,,,,,,,,,,,,,,,15,1.6708,1,0,12,12,18,1,5,×,3,5 × 3,congruent,largerFirst,2,1,15,,,,,,,,
,,,,,,,,,,,,,,,7852,2022-02-26_19h10.35.789,multiplicationStroop,2021.2.3,Win32,59.80145916,,,,,,,,,,,,,,,,,,,,,,,,,,,,,,,,,72,1.6667,1,0,13,13,3,1,8,×,9,8 × 9,congruent,smallerFirst,1,2,72,,,,,,,,
,,,,,,,,,,,,,,,7852,2022-02-26_19h10.35.789,multiplicationStroop,2021.2.3,Win32,59.80145916,,,,,,,,,,,,,,,,,,,,,,,,,,,,,,,,,14,2.0999,1,0,14,14,0,1,2,×,7,2 × 7,congruent,smallerFirst,1,2,14,,,,,,,,
,,,,,,,,,,,,,,,7852,2022-02-26_19h10.35.789,multiplicationStroop,2021.2.3,Win32,59.80145916,,,,,,,,,,,,,,,,,,,,,,,,,,,,,,,,,64,1.978,1,0,15,15,34,1,8,×,8,8 × 8,neutral,tie,1,2,64,,,,,,,,
,,,,,,,,,,,,,,,7852,2022-02-26_19h10.35.789,multiplicationStroop,2021.2.3,Win32,59.80145916,,,,,,,,,,,,,,,,,,,,,,,,,,,,,,,,,30,1.7159,1,0,16,16,1,1,5,×,6,5 × 6,congruent,smallerFirst,1,2,30,,,,,,,,
,,,,,,,,,,,,,,,7852,2022-02-26_19h10.35.789,multiplicationStroop,2021.2.3,Win32,59.80145916,,,,,,,,,,,,,,,,,,,,,,,,,,,,,,,,,16,1.7208,1,0,17,17,30,1,4,×,4,4 × 4,neutral,tie,1,2,16,,,,,,,,
,,,,,,,,,,,,,,,7852,2022-02-26_19h10.35.789,multiplicationStroop,2021.2.3,Win32,59.80145916,,,,,,,,,,,,,,,,,,,,,,,,,,,,,,,,,35,1.7449,1,0,18,18,15,1,7,×,5,7 × 5,congruent,largerFirst,2,1,35,,,,,,,,
,,,,,,,,,,,,,,,7852,2022-02-26_19h10.35.789,multiplicationStroop,2021.2.3,Win32,59.80145916,,,,,,,,,,,,,,,,,,,,,,,,,,,,,,,,,54,1.887,1,0,19,19,26,1,9,×,6,9 × 6,congruent,largerFirst,2,1,54,,,,,,,,
,,,,,,,,,,,,,,,7852,2022-02-26_19h10.35.789,multiplicationStroop,2021.2.3,Win32,59.80145916,,,,,,,,,,,,,,,,,,,,,,,,,,,,,,,,,12,1.5498,1,0,20,20,16,1,4,×,3,4 × 3,congruent,largerFirst,2,1,12,,,,,,,,
,,,,,,,,,,,,,,,7852,2022-02-26_19h10.35.789,multiplicationStroop,2021.2.3,Win32,59.80145916,,,,,,,,,,,,,,,,,,,,,,,,,,,,,,,,,45,1.8338,1,0,21,21,9,1,5,×,9,5 × 9,congruent,smallerFirst,1,2,45,,,,,,,,
,,,,,,,,,,,,,,,7852,2022-02-26_19h10.35.789,multiplicationStroop,2021.2.3,Win32,59.80145916,,,,,,,,,,,,,,,,,,,,,,,,,,,,,,,,,21,1.5943,1,0,22,22,2,1,3,×,7,3 × 7,congruent,smallerFirst,1,2,21,,,,,,,,
,,,,,,,,,,,,,,,7852,2022-02-26_19h10.35.789,multiplicationStroop,2021.2.3,Win32,59.80145916,,,,,,,,,,,,,,,,,,,,,,,,,,,,,,,,,25,1.7716,1,0,23,23,31,1,5,×,5,5 × 5,neutral,tie,1,2,25,,,,,,,,
,,,,,,,,,,,,,,,7852,2022-02-26_19h10.35.789,multiplicationStroop,2021.2.3,Win32,59.80145916,,,,,,,,,,,,,,,,,,,,,,,,,,,,,,,,,16,1.811,1,0,24,24,19,1,8,×,2,8 × 2,congruent,largerFirst,2,1,16,,,,,,,,
,,,,,,,,,,,,,,,7852,2022-02-26_19h10.35.789,multiplicationStroop,2021.2.3,Win32,59.80145916,,,,,,,,,,,,,,,,,,,,,,,,,,,,,,,,,48,2.0327,1,0,25,25,4,1,6,×,8,6 × 8,congruent,smallerFirst,1,2,48,,,,,,,,
,,,,,,,,,,,,,,,7852,2022-02-26_19h10.35.789,multiplicationStroop,2021.2.3,Win32,59.80145916,,,,,,,,,,,,,,,,,,,,,,,,,,,,,,,,,9,1.8826,1,0,26,26,29,1,3,×,3,3 × 3,neutral,tie,1,2,9,,,,,,,,
,,,,,,,,,,,,,,,7852,2022-02-26_19h10.35.789,multiplicationStroop,2021.2.3,Win32,59.80145916,,,,,,,,,,,,,,,,,,,,,,,,,,,,,,,,,18,1.7999,1,0,27,27,8,1,2,×,9,2 × 9,congruent,smallerFirst,1,2,18,,,,,,,,
,,,,,,,,,,,,,,,7852,2022-02-26_19h10.35.789,multiplicationStroop,2021.2.3,Win32,59.80145916,,,,,,,,,,,,,,,,,,,,,,,,,,,,,,,,,4,1.5995,1,0,28,28,28,1,2,×,2,2 × 2,neutral,tie,1,2,4,,,,,,,,
,,,,,,,,,,,,,,,7852,2022-02-26_19h10.35.789,multiplicationStroop,2021.2.3,Win32,59.80145916,,,,,,,,,,,,,,,,,,,,,,,,,,,,,,,,,36,2.1159,1,0,29,29,32,1,6,×,6,6 × 6,neutral,tie,1,2,36,,,,,,,,
,,,,,,,,,,,,,,,7852,2022-02-26_19h10.35.789,multiplicationStroop,2021.2.3,Win32,59.80145916,,,,,,,,,,,,,,,,,,,,,,,,,,,,,,,,,18,1.7,1,0,30,30,25,1,6,×,3,6 × 3,congruent,largerFirst,2,1,18,,,,,,,,
,,,,,,,,,,,,,,,7852,2022-02-26_19h10.35.789,multiplicationStroop,2021.2.3,Win32,59.80145916,,,,,,,,,,,,,,,,,,,,,,,,,,,,,,,,,24,1.7491,1,0,31,31,24,1,8,×,3,8 × 3,congruent,largerFirst,2,1,24,,,,,,,,
,,,,,,,,,,,,,,,7852,2022-02-26_19h10.35.789,multiplicationStroop,2021.2.3,Win32,59.80145916,,,,,,,,,,,,,,,,,,,,,,,,,,,,,,,,,8,1.5832,1,0,32,32,23,1,4,×,2,4 × 2,congruent,largerFirst,2,1,8,,,,,,,,
,,,,,,,,,,,,,,,7852,2022-02-26_19h10.35.789,multiplicationStroop,2021.2.3,Win32,59.80145916,,,,,,,,,,,,,,,,,,,,,,,,,,,,,,,,,40,1.7828,1,0,33,33,20,1,8,×,5,8 × 5,congruent,largerFirst,2,1,40,,,,,,,,
,,,,,,,,,,,,,,,7852,2022-02-26_19h10.35.789,multiplicationStroop,2021.2.3,Win32,59.80145916,,,,,,,,,,,,,,,,,,,,,,,,,,,,,,,,,20,1.8165,1,0,34,34,21,1,5,×,4,5 × 4,congruent,largerFirst,2,1,20,,,,,,,,
,,,,,,,,,,,,,,,7852,2022-02-26_19h10.35.789,multiplicationStroop,2021.2.3,Win32,59.80145916,,,,,,,,,,,,,,,,,,,,,,,,,,,,,,,,,49,2.7663,1,0,35,35,33,1,7,×,7,7 × 7,neutral,tie,1,2,49,,,,,,,,
,,,,,,,,,,,,,,,7852,2022-02-26_19h10.35.789,multiplicationStroop,2021.2.3,Win32,59.80145916,,,,,,,,,,,,,,,,,,,,,,,,,,,,,,,,,,,,,,,,,,,,,,,,,,0,5,5,3,1,stimulusFile/mult_blk4_congruent.xlsx,,
,,,,,,,,,,,,,,,7852,2022-02-26_19h10.35.789,multiplicationStroop,2021.2.3,Win32,59.80145916,,,,,,,,,,,,,,,,,,,,,,,,,,,,,,,,,,,,,,,,,,,,,,,,,,,,,,,,space,14.475