welcomeKey_resp.keys,welcomeKey_resp.rt,X Scale,Y Scale,rt_resp_4.keys,rt_resp_4.corr,rt_resp_4.rt,speedtest_2.thisRepN,speedtest_2.thisTrialN,speedtest_2.thisN,speedtest_2.thisIndex,speedtest_2.ran,numberSc,posX,positionLayout,participant,date,expName,psychopyVersion,OS,frameRate,ct_instrresp.keys,ct_instrresp.rt,key_resp_2.keys,key_resp_2.rt,ct_keyResp.keys,ct_keyResp.corr,ct_keyResp.rt,trials.thisRepN,trials.thisTrialN,trials.thisN,trials.thisIndex,trials.ran,leftNo,rightNo,displayProblem,numDistance,leftNo_size,rightNo_size,Dims,keyAnswer,TS_Loop.thisRepN,TS_Loop.thisTrialN,TS_Loop.thisN,TS_Loop.thisIndex,TS_Loop.ran,Condition,ActionInst,instrImage,mltptaskInst_resp.keys,mltptaskInst_resp.rt,continue_resp_2.keys,continue_resp_2.rt,multp_Answer,multi_RT,multiplyCorr,LoopingMultiply.thisRepN,LoopingMultiply.thisTrialN,LoopingMultiply.thisN,LoopingMultiply.thisIndex,LoopingMultiply.ran,factor1,multiplySign,factor2,multliplyProblem,physicalSize,orderOperand,sizeF1,sizeF2,mult_answer,trials_stroop.thisRepN,trials_stroop.thisTrialN,trials_stroop.thisN,trials_stroop.thisIndex,trials_stroop.ran,multiplicationFile,esckey_resp_2.keys,esckey_resp_2.rt
y,11.622,60,51.6,left,1,0.624,0,0,0,4,1,6,-200,left,786,2022-01-18_00h47.30.469,multiplicationStroop,2021.2.3,MacIntel,90.90909091,,,,,,,,,,,,,,,,,,,,,,,,,,,,,,,,,,,,,,,,,,,,,,,,,,,,,,,,,
,,,,left,1,0.473,0,1,1,7,1,9,-200,left,786,2022-01-18_00h47.30.469,multiplicationStroop,2021.2.3,MacIntel,90.90909091,,,,,,,,,,,,,,,,,,,,,,,,,,,,,,,,,,,,,,,,,,,,,,,,,,,,,,,,,
,,,,right,1,0.374,0,2,2,9,1,2,200,right,786,2022-01-18_00h47.30.469,multiplicationStroop,2021.2.3,MacIntel,90.90909091,,,,,,,,,,,,,,,,,,,,,,,,,,,,,,,,,,,,,,,,,,,,,,,,,,,,,,,,,
,,,,left,0,0.661,0,3,3,8,1,1,200,right,786,2022-01-18_00h47.30.469,multiplicationStroop,2021.2.3,MacIntel,90.90909091,,,,,,,,,,,,,,,,,,,,,,,,,,,,,,,,,,,,,,,,,,,,,,,,,,,,,,,,,
,,,,right,1,0.53,0,4,4,14,1,8,200,right,786,2022-01-18_00h47.30.469,multiplicationStroop,2021.2.3,MacIntel,90.90909091,,,,,,,,,,,,,,,,,,,,,,,,,,,,,,,,,,,,,,,,,,,,,,,,,,,,,,,,,
,,,,right,1,0.384,0,5,5,10,1,3,200,right,786,2022-01-18_00h47.30.469,multiplicationStroop,2021.2.3,MacIntel,90.90909091,,,,,,,,,,,,,,,,,,,,,,,,,,,,,,,,,,,,,,,,,,,,,,,,,,,,,,,,,
,,,,right,1,0.329,0,6,6,15,1,9,200,right,786,2022-01-18_00h47.30.469,multiplicationStroop,2021.2.3,MacIntel,90.90909091,,,,,,,,,,,,,,,,,,,,,,,,,,,,,,,,,,,,,,,,,,,,,,,,,,,,,,,,,
,,,,right,1,0.349,0,7,7,11,1,4,200,right,786,2022-01-18_00h47.30.469,multiplicationStroop,2021.2.3,MacIntel,90.90909091,,,,,,,,,,,,,,,,,,,,,,,,,,,,,,,,,,,,,,,,,,,,,,,,,,,,,,,,,
,,,,right,1,0.308,0,8,8,12,1,6,200,right,786,2022-01-18_00h47.30.469,multiplicationStroop,2021.2.3,MacIntel,90.90909091,,,,,,,,,,,,,,,,,,,,,,,,,,,,,,,,,,,,,,,,,,,,,,,,,,,,,,,,,
,,,,left,1,0.415,0,9,9,5,1,7,-200,left,786,2022-01-18_00h47.30.469,multiplicationStroop,2021.2.3,MacIntel,90.90909091,,,,,,,,,,,,,,,,,,,,,,,,,,,,,,,,,,,,,,,,,,,,,,,,,,,,,,,,,
,,,,left,1,0.391,0,10,10,6,1,8,-200,left,786,2022-01-18_00h47.30.469,multiplicationStroop,2021.2.3,MacIntel,90.90909091,,,,,,,,,,,,,,,,,,,,,,,,,,,,,,,,,,,,,,,,,,,,,,,,,,,,,,,,,
,,,,left,1,0.359,0,11,11,1,1,2,-200,left,786,2022-01-18_00h47.30.469,multiplicationStroop,2021.2.3,MacIntel,90.90909091,,,,,,,,,,,,,,,,,,,,,,,,,,,,,,,,,,,,,,,,,,,,,,,,,,,,,,,,,
,,,,left,1,0.29,0,12,12,2,1,3,-200,left,786,2022-01-18_00h47.30.469,multiplicationStroop,2021.2.3,MacIntel,90.90909091,,,,,,,,,,,,,,,,,,,,,,,,,,,,,,,,,,,,,,,,,,,,,,,,,,,,,,,,,
,,,,left,1,0.355,0,13,13,3,1,4,-200,left,786,2022-01-18_00h47.30.469,multiplicationStroop,2021.2.3,MacIntel,90.90909091,,,,,,,,,,,,,,,,,,,,,,,,,,,,,,,,,,,,,,,,,,,,,,,,,,,,,,,,,
,,,,right,1,0.375,0,14,14,13,1,7,200,right,786,2022-01-18_00h47.30.469,multiplicationStroop,2021.2.3,MacIntel,90.90909091,,,,,,,,,,,,,,,,,,,,,,,,,,,,,,,,,,,,,,,,,,,,,,,,,,,,,,,,,
,,,,left,1,0.333,0,15,15,0,1,1,-200,left,786,2022-01-18_00h47.30.469,multiplicationStroop,2021.2.3,MacIntel,90.90909091,,,,,,,,,,,,,,,,,,,,,,,,,,,,,,,,,,,,,,,,,,,,,,,,,,,,,,,,,
,,,,right,1,0.246,1,0,16,15,1,9,200,right,786,2022-01-18_00h47.30.469,multiplicationStroop,2021.2.3,MacIntel,90.90909091,,,,,,,,,,,,,,,,,,,,,,,,,,,,,,,,,,,,,,,,,,,,,,,,,,,,,,,,,
,,,,left,1,0.209,1,1,17,3,1,4,-200,left,786,2022-01-18_00h47.30.469,multiplicationStroop,2021.2.3,MacIntel,90.90909091,,,,,,,,,,,,,,,,,,,,,,,,,,,,,,,,,,,,,,,,,,,,,,,,,,,,,,,,,
,,,,left,1,0.361,1,2,18,5,1,7,-200,left,786,2022-01-18_00h47.30.469,multiplicationStroop,2021.2.3,MacIntel,90.90909091,,,,,,,,,,,,,,,,,,,,,,,,,,,,,,,,,,,,,,,,,,,,,,,,,,,,,,,,,
,,,,right,1,0.346,1,3,19,9,1,2,200,right,786,2022-01-18_00h47.30.469,multiplicationStroop,2021.2.3,MacIntel,90.90909091,,,,,,,,,,,,,,,,,,,,,,,,,,,,,,,,,,,,,,,,,,,,,,,,,,,,,,,,,
,,,,right,1,0.415,1,4,20,14,1,8,200,right,786,2022-01-18_00h47.30.469,multiplicationStroop,2021.2.3,MacIntel,90.90909091,,,,,,,,,,,,,,,,,,,,,,,,,,,,,,,,,,,,,,,,,,,,,,,,,,,,,,,,,
,,,,right,1,0.443,1,5,21,11,1,4,200,right,786,2022-01-18_00h47.30.469,multiplicationStroop,2021.2.3,MacIntel,90.90909091,,,,,,,,,,,,,,,,,,,,,,,,,,,,,,,,,,,,,,,,,,,,,,,,,,,,,,,,,
,,,,left,1,0.359,1,6,22,0,1,1,-200,left,786,2022-01-18_00h47.30.469,multiplicationStroop,2021.2.3,MacIntel,90.90909091,,,,,,,,,,,,,,,,,,,,,,,,,,,,,,,,,,,,,,,,,,,,,,,,,,,,,,,,,
,,,,left,1,0.357,1,7,23,7,1,9,-200,left,786,2022-01-18_00h47.30.469,multiplicationStroop,2021.2.3,MacIntel,90.90909091,,,,,,,,,,,,,,,,,,,,,,,,,,,,,,,,,,,,,,,,,,,,,,,,,,,,,,,,,
,,,,left,1,0.342,1,8,24,4,1,6,-200,left,786,2022-01-18_00h47.30.469,multiplicationStroop,2021.2.3,MacIntel,90.90909091,,,,,,,,,,,,,,,,,,,,,,,,,,,,,,,,,,,,,,,,,,,,,,,,,,,,,,,,,
,,,,left,1,0.294,1,9,25,1,1,2,-200,left,786,2022-01-18_00h47.30.469,multiplicationStroop,2021.2.3,MacIntel,90.90909091,,,,,,,,,,,,,,,,,,,,,,,,,,,,,,,,,,,,,,,,,,,,,,,,,,,,,,,,,
,,,,right,1,0.316,1,10,26,10,1,3,200,right,786,2022-01-18_00h47.30.469,multiplicationStroop,2021.2.3,MacIntel,90.90909091,,,,,,,,,,,,,,,,,,,,,,,,,,,,,,,,,,,,,,,,,,,,,,,,,,,,,,,,,
,,,,left,1,0.299,1,11,27,2,1,3,-200,left,786,2022-01-18_00h47.30.469,multiplicationStroop,2021.2.3,MacIntel,90.90909091,,,,,,,,,,,,,,,,,,,,,,,,,,,,,,,,,,,,,,,,,,,,,,,,,,,,,,,,,
,,,,right,1,0.29,1,12,28,12,1,6,200,right,786,2022-01-18_00h47.30.469,multiplicationStroop,2021.2.3,MacIntel,90.90909091,,,,,,,,,,,,,,,,,,,,,,,,,,,,,,,,,,,,,,,,,,,,,,,,,,,,,,,,,
,,,,left,1,0.315,1,13,29,6,1,8,-200,left,786,2022-01-18_00h47.30.469,multiplicationStroop,2021.2.3,MacIntel,90.90909091,,,,,,,,,,,,,,,,,,,,,,,,,,,,,,,,,,,,,,,,,,,,,,,,,,,,,,,,,
,,,,right,1,0.271,1,14,30,13,1,7,200,right,786,2022-01-18_00h47.30.469,multiplicationStroop,2021.2.3,MacIntel,90.90909091,,,,,,,,,,,,,,,,,,,,,,,,,,,,,,,,,,,,,,,,,,,,,,,,,,,,,,,,,
,,,,right,1,0.48,1,15,31,8,1,1,200,right,786,2022-01-18_00h47.30.469,multiplicationStroop,2021.2.3,MacIntel,90.90909091,,,,,,,,,,,,,,,,,,,,,,,,,,,,,,,,,,,,,,,,,,,,,,,,,,,,,,,,,
,,,,left,1,0.364,2,0,32,4,1,6,-200,left,786,2022-01-18_00h47.30.469,multiplicationStroop,2021.2.3,MacIntel,90.90909091,,,,,,,,,,,,,,,,,,,,,,,,,,,,,,,,,,,,,,,,,,,,,,,,,,,,,,,,,
,,,,right,1,0.305,2,1,33,11,1,4,200,right,786,2022-01-18_00h47.30.469,multiplicationStroop,2021.2.3,MacIntel,90.90909091,,,,,,,,,,,,,,,,,,,,,,,,,,,,,,,,,,,,,,,,,,,,,,,,,,,,,,,,,
,,,,left,1,0.302,2,2,34,2,1,3,-200,left,786,2022-01-18_00h47.30.469,multiplicationStroop,2021.2.3,MacIntel,90.90909091,,,,,,,,,,,,,,,,,,,,,,,,,,,,,,,,,,,,,,,,,,,,,,,,,,,,,,,,,
,,,,right,1,0.294,2,3,35,14,1,8,200,right,786,2022-01-18_00h47.30.469,multiplicationStroop,2021.2.3,MacIntel,90.90909091,,,,,,,,,,,,,,,,,,,,,,,,,,,,,,,,,,,,,,,,,,,,,,,,,,,,,,,,,
,,,,left,1,0.341,2,4,36,1,1,2,-200,left,786,2022-01-18_00h47.30.469,multiplicationStroop,2021.2.3,MacIntel,90.90909091,,,,,,,,,,,,,,,,,,,,,,,,,,,,,,,,,,,,,,,,,,,,,,,,,,,,,,,,,
,,,,right,1,0.312,2,5,37,10,1,3,200,right,786,2022-01-18_00h47.30.469,multiplicationStroop,2021.2.3,MacIntel,90.90909091,,,,,,,,,,,,,,,,,,,,,,,,,,,,,,,,,,,,,,,,,,,,,,,,,,,,,,,,,
,,,,right,1,0.45,2,6,38,8,1,1,200,right,786,2022-01-18_00h47.30.469,multiplicationStroop,2021.2.3,MacIntel,90.90909091,,,,,,,,,,,,,,,,,,,,,,,,,,,,,,,,,,,,,,,,,,,,,,,,,,,,,,,,,
,,,,left,0,0.324,2,7,39,12,1,6,200,right,786,2022-01-18_00h47.30.469,multiplicationStroop,2021.2.3,MacIntel,90.90909091,,,,,,,,,,,,,,,,,,,,,,,,,,,,,,,,,,,,,,,,,,,,,,,,,,,,,,,,,
,,,,right,1,0.528,2,8,40,15,1,9,200,right,786,2022-01-18_00h47.30.469,multiplicationStroop,2021.2.3,MacIntel,90.90909091,,,,,,,,,,,,,,,,,,,,,,,,,,,,,,,,,,,,,,,,,,,,,,,,,,,,,,,,,
,,,,left,1,0.52,2,9,41,0,1,1,-200,left,786,2022-01-18_00h47.30.469,multiplicationStroop,2021.2.3,MacIntel,90.90909091,,,,,,,,,,,,,,,,,,,,,,,,,,,,,,,,,,,,,,,,,,,,,,,,,,,,,,,,,
,,,,left,1,0.374,2,10,42,7,1,9,-200,left,786,2022-01-18_00h47.30.469,multiplicationStroop,2021.2.3,MacIntel,90.90909091,,,,,,,,,,,,,,,,,,,,,,,,,,,,,,,,,,,,,,,,,,,,,,,,,,,,,,,,,
,,,,right,1,0.408,2,11,43,9,1,2,200,right,786,2022-01-18_00h47.30.469,multiplicationStroop,2021.2.3,MacIntel,90.90909091,,,,,,,,,,,,,,,,,,,,,,,,,,,,,,,,,,,,,,,,,,,,,,,,,,,,,,,,,
,,,,left,1,0.34,2,12,44,6,1,8,-200,left,786,2022-01-18_00h47.30.469,multiplicationStroop,2021.2.3,MacIntel,90.90909091,,,,,,,,,,,,,,,,,,,,,,,,,,,,,,,,,,,,,,,,,,,,,,,,,,,,,,,,,
,,,,left,1,0.383,2,13,45,3,1,4,-200,left,786,2022-01-18_00h47.30.469,multiplicationStroop,2021.2.3,MacIntel,90.90909091,,,,,,,,,,,,,,,,,,,,,,,,,,,,,,,,,,,,,,,,,,,,,,,,,,,,,,,,,
,,,,right,1,0.326,2,14,46,13,1,7,200,right,786,2022-01-18_00h47.30.469,multiplicationStroop,2021.2.3,MacIntel,90.90909091,,,,,,,,,,,,,,,,,,,,,,,,,,,,,,,,,,,,,,,,,,,,,,,,,,,,,,,,,
,,,,left,1,0.327,2,15,47,5,1,7,-200,left,786,2022-01-18_00h47.30.469,multiplicationStroop,2021.2.3,MacIntel,90.90909091,,,,,,,,,,,,,,,,,,,,,,,,,,,,,,,,,,,,,,,,,,,,,,,,,,,,,,,,,
,,,,left,1,0.44,3,0,48,6,1,8,-200,left,786,2022-01-18_00h47.30.469,multiplicationStroop,2021.2.3,MacIntel,90.90909091,,,,,,,,,,,,,,,,,,,,,,,,,,,,,,,,,,,,,,,,,,,,,,,,,,,,,,,,,
,,,,left,1,0.358,3,1,49,3,1,4,-200,left,786,2022-01-18_00h47.30.469,multiplicationStroop,2021.2.3,MacIntel,90.90909091,,,,,,,,,,,,,,,,,,,,,,,,,,,,,,,,,,,,,,,,,,,,,,,,,,,,,,,,,
,,,,left,1,0.291,3,2,50,7,1,9,-200,left,786,2022-01-18_00h47.30.469,multiplicationStroop,2021.2.3,MacIntel,90.90909091,,,,,,,,,,,,,,,,,,,,,,,,,,,,,,,,,,,,,,,,,,,,,,,,,,,,,,,,,
,,,,right,1,0.466,3,3,51,9,1,2,200,right,786,2022-01-18_00h47.30.469,multiplicationStroop,2021.2.3,MacIntel,90.90909091,,,,,,,,,,,,,,,,,,,,,,,,,,,,,,,,,,,,,,,,,,,,,,,,,,,,,,,,,
,,,,right,1,0.361,3,4,52,10,1,3,200,right,786,2022-01-18_00h47.30.469,multiplicationStroop,2021.2.3,MacIntel,90.90909091,,,,,,,,,,,,,,,,,,,,,,,,,,,,,,,,,,,,,,,,,,,,,,,,,,,,,,,,,
,,,,right,1,0.282,3,5,53,14,1,8,200,right,786,2022-01-18_00h47.30.469,multiplicationStroop,2021.2.3,MacIntel,90.90909091,,,,,,,,,,,,,,,,,,,,,,,,,,,,,,,,,,,,,,,,,,,,,,,,,,,,,,,,,
,,,,left,1,0.388,3,6,54,5,1,7,-200,left,786,2022-01-18_00h47.30.469,multiplicationStroop,2021.2.3,MacIntel,90.90909091,,,,,,,,,,,,,,,,,,,,,,,,,,,,,,,,,,,,,,,,,,,,,,,,,,,,,,,,,
,,,,left,1,0.347,3,7,55,0,1,1,-200,left,786,2022-01-18_00h47.30.469,multiplicationStroop,2021.2.3,MacIntel,90.90909091,,,,,,,,,,,,,,,,,,,,,,,,,,,,,,,,,,,,,,,,,,,,,,,,,,,,,,,,,
,,,,left,1,0.368,3,8,56,1,1,2,-200,left,786,2022-01-18_00h47.30.469,multiplicationStroop,2021.2.3,MacIntel,90.90909091,,,,,,,,,,,,,,,,,,,,,,,,,,,,,,,,,,,,,,,,,,,,,,,,,,,,,,,,,
,,,,right,1,0.414,3,9,57,15,1,9,200,right,786,2022-01-18_00h47.30.469,multiplicationStroop,2021.2.3,MacIntel,90.90909091,,,,,,,,,,,,,,,,,,,,,,,,,,,,,,,,,,,,,,,,,,,,,,,,,,,,,,,,,
,,,,right,1,0.313,3,10,58,12,1,6,200,right,786,2022-01-18_00h47.30.469,multiplicationStroop,2021.2.3,MacIntel,90.90909091,,,,,,,,,,,,,,,,,,,,,,,,,,,,,,,,,,,,,,,,,,,,,,,,,,,,,,,,,
,,,,right,1,0.348,3,11,59,11,1,4,200,right,786,2022-01-18_00h47.30.469,multiplicationStroop,2021.2.3,MacIntel,90.90909091,,,,,,,,,,,,,,,,,,,,,,,,,,,,,,,,,,,,,,,,,,,,,,,,,,,,,,,,,
,,,,left,1,0.446,3,12,60,2,1,3,-200,left,786,2022-01-18_00h47.30.469,multiplicationStroop,2021.2.3,MacIntel,90.90909091,,,,,,,,,,,,,,,,,,,,,,,,,,,,,,,,,,,,,,,,,,,,,,,,,,,,,,,,,
,,,,right,1,0.447,3,13,61,8,1,1,200,right,786,2022-01-18_00h47.30.469,multiplicationStroop,2021.2.3,MacIntel,90.90909091,,,,,,,,,,,,,,,,,,,,,,,,,,,,,,,,,,,,,,,,,,,,,,,,,,,,,,,,,
,,,,right,1,0.481,3,14,62,13,1,7,200,right,786,2022-01-18_00h47.30.469,multiplicationStroop,2021.2.3,MacIntel,90.90909091,,,,,,,,,,,,,,,,,,,,,,,,,,,,,,,,,,,,,,,,,,,,,,,,,,,,,,,,,
,,,,left,1,0.381,3,15,63,4,1,6,-200,left,786,2022-01-18_00h47.30.469,multiplicationStroop,2021.2.3,MacIntel,90.90909091,,,,,,,,,,,,,,,,,,,,,,,,,,stimulusFile/magnitude.xlsx,,,,,,,,,,,,,,,,,,,,,,,,,,,,,,,
,,,,,,,,,,,,,,,786,2022-01-18_00h47.30.469,multiplicationStroop,2021.2.3,MacIntel,90.90909091,space,7.914,space,10.281,left,1,1.804,0,0,0,5,1,4,3,4 | 3,1,1.9756,1.4111,congruent,left,,,,,,stimulusFile/magnitude.xlsx,,,,,,,,,,,,,,,,,,,,,,,,,,,,,,,
,,,,,,,,,,,,,,,786,2022-01-18_00h47.30.469,multiplicationStroop,2021.2.3,MacIntel,90.90909091,,,,,left,1,1.31,0,1,1,28,1,2,1,2 | 1,1,1.4111,1.9756,incongruent,left,,,,,,stimulusFile/magnitude.xlsx,,,,,,,,,,,,,,,,,,,,,,,,,,,,,,,
,,,,,,,,,,,,,,,786,2022-01-18_00h47.30.469,multiplicationStroop,2021.2.3,MacIntel,90.90909091,,,,,left,1,0.562,0,2,2,70,1,8,3,8 | 3,5,1.6933,1.6933,neutral,left,,,,,,stimulusFile/magnitude.xlsx,,,,,,,,,,,,,,,,,,,,,,,,,,,,,,,
,,,,,,,,,,,,,,,786,2022-01-18_00h47.30.469,multiplicationStroop,2021.2.3,MacIntel,90.90909091,,,,,right,1,0.539,0,3,3,0,1,1,2,1 | 2,1,1.4111,1.9756,congruent,right,,,,,,stimulusFile/magnitude.xlsx,,,,,,,,,,,,,,,,,,,,,,,,,,,,,,,
,,,,,,,,,,,,,,,786,2022-01-18_00h47.30.469,multiplicationStroop,2021.2.3,MacIntel,90.90909091,,,,,right,1,0.723,0,4,4,2,1,6,7,6 | 7,1,1.4111,1.9756,congruent,right,,,,,,stimulusFile/magnitude.xlsx,,,,,,,,,,,,,,,,,,,,,,,,,,,,,,,
,,,,,,,,,,,,,,,786,2022-01-18_00h47.30.469,multiplicationStroop,2021.2.3,MacIntel,90.90909091,,,,,right,1,0.479,0,5,5,9,1,2,4,2 | 4,2,1.4111,1.9756,congruent,right,,,,,,stimulusFile/magnitude.xlsx,,,,,,,,,,,,,,,,,,,,,,,,,,,,,,,
,,,,,,,,,,,,,,,786,2022-01-18_00h47.30.469,multiplicationStroop,2021.2.3,MacIntel,90.90909091,,,,,right,1,0.747,0,6,6,48,1,1,2,1 | 2,1,1.6933,1.6933,neutral,right,,,,,,stimulusFile/magnitude.xlsx,,,,,,,,,,,,,,,,,,,,,,,,,,,,,,,
,,,,,,,,,,,,,,,786,2022-01-18_00h47.30.469,multiplicationStroop,2021.2.3,MacIntel,90.90909091,,,,,right,1,0.573,0,7,7,1,1,3,4,3 | 4,1,1.4111,1.9756,congruent,right,,,,,,stimulusFile/magnitude.xlsx,,,,,,,,,,,,,,,,,,,,,,,,,,,,,,,
,,,,,,,,,,,,,,,786,2022-01-18_00h47.30.469,multiplicationStroop,2021.2.3,MacIntel,90.90909091,,,,,left,1,0.816,0,8,8,29,1,4,3,4 | 3,1,1.4111,1.9756,incongruent,left,,,,,,stimulusFile/magnitude.xlsx,,,,,,,,,,,,,,,,,,,,,,,,,,,,,,,
,,,,,,,,,,,,,,,786,2022-01-18_00h47.30.469,multiplicationStroop,2021.2.3,MacIntel,90.90909091,,,,,right,1,0.524,0,9,9,40,1,1,6,1 | 6,5,1.9756,1.4111,incongruent,right,,,,,,stimulusFile/magnitude.xlsx,,,,,,,,,,,,,,,,,,,,,,,,,,,,,,,
,,,,,,,,,,,,,,,786,2022-01-18_00h47.30.469,multiplicationStroop,2021.2.3,MacIntel,90.90909091,,,,,right,1,0.49,0,10,10,16,1,1,6,1 | 6,5,1.4111,1.9756,congruent,right,,,,,,stimulusFile/magnitude.xlsx,,,,,,,,,,,,,,,,,,,,,,,,,,,,,,,
,,,,,,,,,,,,,,,786,2022-01-18_00h47.30.469,multiplicationStroop,2021.2.3,MacIntel,90.90909091,,,,,left,1,0.561,0,11,11,60,1,3,1,3 | 1,2,1.6933,1.6933,neutral,left,,,,,,stimulusFile/magnitude.xlsx,,,,,,,,,,,,,,,,,,,,,,,,,,,,,,,
,,,,,,,,,,,,,,,786,2022-01-18_00h47.30.469,multiplicationStroop,2021.2.3,MacIntel,90.90909091,,,,,right,1,0.661,0,12,12,33,1,2,4,2 | 4,2,1.9756,1.4111,incongruent,right,,,,,,stimulusFile/magnitude.xlsx,,,,,,,,,,,,,,,,,,,,,,,,,,,,,,,
,,,,,,,,,,,,,,,786,2022-01-18_00h47.30.469,multiplicationStroop,2021.2.3,MacIntel,90.90909091,,,,,left,1,0.489,0,13,13,44,1,6,1,6 | 1,5,1.4111,1.9756,incongruent,left,,,,,,stimulusFile/magnitude.xlsx,,,,,,,,,,,,,,,,,,,,,,,,,,,,,,,
,,,,,,,,,,,,,,,786,2022-01-18_00h47.30.469,multiplicationStroop,2021.2.3,MacIntel,90.90909091,,,,,right,1,0.972,0,14,14,27,1,8,9,8 | 9,1,1.9756,1.4111,incongruent,right,,,,,,stimulusFile/magnitude.xlsx,,,,,,,,,,,,,,,,,,,,,,,,,,,,,,,
,,,,,,,,,,,,,,,786,2022-01-18_00h47.30.469,multiplicationStroop,2021.2.3,MacIntel,90.90909091,,,,,right,1,0.506,0,15,15,65,1,2,7,2 | 7,5,1.6933,1.6933,neutral,right,,,,,,stimulusFile/magnitude.xlsx,,,,,,,,,,,,,,,,,,,,,,,,,,,,,,,
,,,,,,,,,,,,,,,786,2022-01-18_00h47.30.469,multiplicationStroop,2021.2.3,MacIntel,90.90909091,,,,,right,1,0.647,0,16,16,51,1,8,9,8 | 9,1,1.6933,1.6933,neutral,right,,,,,,stimulusFile/magnitude.xlsx,,,,,,,,,,,,,,,,,,,,,,,,,,,,,,,
,,,,,,,,,,,,,,,786,2022-01-18_00h47.30.469,multiplicationStroop,2021.2.3,MacIntel,90.90909091,,,,,right,1,0.463,0,17,17,64,1,1,6,1 | 6,5,1.6933,1.6933,neutral,right,,,,,,stimulusFile/magnitude.xlsx,,,,,,,,,,,,,,,,,,,,,,,,,,,,,,,
,,,,,,,,,,,,,,,786,2022-01-18_00h47.30.469,multiplicationStroop,2021.2.3,MacIntel,90.90909091,,,,,right,1,0.657,0,18,18,35,1,7,9,7 | 9,2,1.9756,1.4111,incongruent,right,,,,,,stimulusFile/magnitude.xlsx,,,,,,,,,,,,,,,,,,,,,,,,,,,,,,,
,,,,,,,,,,,,,,,786,2022-01-18_00h47.30.469,multiplicationStroop,2021.2.3,MacIntel,90.90909091,,,,,left,1,0.739,0,19,19,13,1,4,2,4 | 2,2,1.9756,1.4111,congruent,left,,,,,,stimulusFile/magnitude.xlsx,,,,,,,,,,,,,,,,,,,,,,,,,,,,,,,
,,,,,,,,,,,,,,,786,2022-01-18_00h47.30.469,multiplicationStroop,2021.2.3,MacIntel,90.90909091,,,,,left,1,0.879,0,20,20,45,1,7,2,7 | 2,5,1.4111,1.9756,incongruent,left,,,,,,stimulusFile/magnitude.xlsx,,,,,,,,,,,,,,,,,,,,,,,,,,,,,,,
,,,,,,,,,,,,,,,786,2022-01-18_00h47.30.469,multiplicationStroop,2021.2.3,MacIntel,90.90909091,,,,,left,1,0.496,0,21,21,15,1,9,7,9 | 7,2,1.9756,1.4111,congruent,left,,,,,,stimulusFile/magnitude.xlsx,,,,,,,,,,,,,,,,,,,,,,,,,,,,,,,
,,,,,,,,,,,,,,,786,2022-01-18_00h47.30.469,multiplicationStroop,2021.2.3,MacIntel,90.90909091,,,,,left,1,0.866,0,22,22,61,1,4,2,4 | 2,2,1.6933,1.6933,neutral,left,,,,,,stimulusFile/magnitude.xlsx,,,,,,,,,,,,,,,,,,,,,,,,,,,,,,,
,,,,,,,,,,,,,,,786,2022-01-18_00h47.30.469,multiplicationStroop,2021.2.3,MacIntel,90.90909091,,,,,left,1,0.647,0,23,23,46,1,8,3,8 | 3,5,1.4111,1.9756,incongruent,left,,,,,,stimulusFile/magnitude.xlsx,,,,,,,,,,,,,,,,,,,,,,,,,,,,,,,
,,,,,,,,,,,,,,,786,2022-01-18_00h47.30.469,multiplicationStroop,2021.2.3,MacIntel,90.90909091,,,,,left,1,0.545,0,24,24,68,1,6,1,6 | 1,5,1.6933,1.6933,neutral,left,,,,,,stimulusFile/magnitude.xlsx,,,,,,,,,,,,,,,,,,,,,,,,,,,,,,,
,,,,,,,,,,,,,,,786,2022-01-18_00h47.30.469,multiplicationStroop,2021.2.3,MacIntel,90.90909091,,,,,left,1,0.527,0,25,25,63,1,9,7,9 | 7,2,1.6933,1.6933,neutral,left,,,,,,stimulusFile/magnitude.xlsx,,,,,,,,,,,,,,,,,,,,,,,,,,,,,,,
,,,,,,,,,,,,,,,786,2022-01-18_00h47.30.469,multiplicationStroop,2021.2.3,MacIntel,90.90909091,,,,,left,1,0.474,0,26,26,20,1,6,1,6 | 1,5,1.9756,1.4111,congruent,left,,,,,,stimulusFile/magnitude.xlsx,,,,,,,,,,,,,,,,,,,,,,,,,,,,,,,
,,,,,,,,,,,,,,,786,2022-01-18_00h47.30.469,multiplicationStroop,2021.2.3,MacIntel,90.90909091,,,,,left,1,0.816,0,27,27,31,1,9,8,9 | 8,1,1.4111,1.9756,incongruent,left,,,,,,stimulusFile/magnitude.xlsx,,,,,,,,,,,,,,,,,,,,,,,,,,,,,,,
,,,,,,,,,,,,,,,786,2022-01-18_00h47.30.469,multiplicationStroop,2021.2.3,MacIntel,90.90909091,,,,,left,1,0.528,0,28,28,53,1,4,3,4 | 3,1,1.6933,1.6933,neutral,left,,,,,,stimulusFile/magnitude.xlsx,,,,,,,,,,,,,,,,,,,,,,,,,,,,,,,
,,,,,,,,,,,,,,,786,2022-01-18_00h47.30.469,multiplicationStroop,2021.2.3,MacIntel,90.90909091,,,,,right,1,0.613,0,29,29,49,1,3,4,3 | 4,1,1.6933,1.6933,neutral,right,,,,,,stimulusFile/magnitude.xlsx,,,,,,,,,,,,,,,,,,,,,,,,,,,,,,,
,,,,,,,,,,,,,,,786,2022-01-18_00h47.30.469,multiplicationStroop,2021.2.3,MacIntel,90.90909091,,,,,left,1,0.674,0,30,30,12,1,3,1,3 | 1,2,1.9756,1.4111,congruent,left,,,,,,stimulusFile/magnitude.xlsx,,,,,,,,,,,,,,,,,,,,,,,,,,,,,,,
,,,,,,,,,,,,,,,786,2022-01-18_00h47.30.469,multiplicationStroop,2021.2.3,MacIntel,90.90909091,,,,,right,0,0.556,0,31,31,30,1,7,6,7 | 6,1,1.4111,1.9756,incongruent,left,,,,,,stimulusFile/magnitude.xlsx,,,,,,,,,,,,,,,,,,,,,,,,,,,,,,,
,,,,,,,,,,,,,,,786,2022-01-18_00h47.30.469,multiplicationStroop,2021.2.3,MacIntel,90.90909091,,,,,right,1,1.375,0,32,32,43,1,4,9,4 | 9,5,1.9756,1.4111,incongruent,right,,,,,,stimulusFile/magnitude.xlsx,,,,,,,,,,,,,,,,,,,,,,,,,,,,,,,
,,,,,,,,,,,,,,,786,2022-01-18_00h47.30.469,multiplicationStroop,2021.2.3,MacIntel,90.90909091,,,,,left,1,1.105,0,33,33,39,1,9,7,9 | 7,2,1.4111,1.9756,incongruent,left,,,,,,stimulusFile/magnitude.xlsx,,,,,,,,,,,,,,,,,,,,,,,,,,,,,,,
,,,,,,,,,,,,,,,786,2022-01-18_00h47.30.469,multiplicationStroop,2021.2.3,MacIntel,90.90909091,,,,,right,1,0.804,0,34,34,26,1,6,7,6 | 7,1,1.9756,1.4111,incongruent,right,,,,,,stimulusFile/magnitude.xlsx,,,,,,,,,,,,,,,,,,,,,,,,,,,,,,,
,,,,,,,,,,,,,,,786,2022-01-18_00h47.30.469,multiplicationStroop,2021.2.3,MacIntel,90.90909091,,,,,right,1,0.665,0,35,35,41,1,2,7,2 | 7,5,1.9756,1.4111,incongruent,right,,,,,,stimulusFile/magnitude.xlsx,,,,,,,,,,,,,,,,,,,,,,,,,,,,,,,
,,,,,,,,,,,,,,,786,2022-01-18_00h47.30.469,multiplicationStroop,2021.2.3,MacIntel,90.90909091,,,,,left,1,0.588,0,36,36,71,1,9,4,9 | 4,5,1.6933,1.6933,neutral,left,,,,,,stimulusFile/magnitude.xlsx,,,,,,,,,,,,,,,,,,,,,,,,,,,,,,,
,,,,,,,,,,,,,,,786,2022-01-18_00h47.30.469,multiplicationStroop,2021.2.3,MacIntel,90.90909091,,,,,right,1,0.906,0,37,37,10,1,6,8,6 | 8,2,1.4111,1.9756,congruent,right,,,,,,stimulusFile/magnitude.xlsx,,,,,,,,,,,,,,,,,,,,,,,,,,,,,,,
,,,,,,,,,,,,,,,786,2022-01-18_00h47.30.469,multiplicationStroop,2021.2.3,MacIntel,90.90909091,,,,,right,1,0.857,0,38,38,24,1,1,2,1 | 2,1,1.9756,1.4111,incongruent,right,,,,,,stimulusFile/magnitude.xlsx,,,,,,,,,,,,,,,,,,,,,,,,,,,,,,,
,,,,,,,,,,,,,,,786,2022-01-18_00h47.30.469,multiplicationStroop,2021.2.3,MacIntel,90.90909091,,,,,right,1,0.996,0,39,39,3,1,8,9,8 | 9,1,1.4111,1.9756,congruent,right,,,,,,stimulusFile/magnitude.xlsx,,,,,,,,,,,,,,,,,,,,,,,,,,,,,,,
,,,,,,,,,,,,,,,786,2022-01-18_00h47.30.469,multiplicationStroop,2021.2.3,MacIntel,90.90909091,,,,,left,1,0.648,0,40,40,21,1,7,2,7 | 2,5,1.9756,1.4111,congruent,left,,,,,,stimulusFile/magnitude.xlsx,,,,,,,,,,,,,,,,,,,,,,,,,,,,,,,
,,,,,,,,,,,,,,,786,2022-01-18_00h47.30.469,multiplicationStroop,2021.2.3,MacIntel,90.90909091,,,,,right,1,0.673,0,41,41,50,1,6,7,6 | 7,1,1.6933,1.6933,neutral,right,,,,,,stimulusFile/magnitude.xlsx,,,,,,,,,,,,,,,,,,,,,,,,,,,,,,,
,,,,,,,,,,,,,,,786,2022-01-18_00h47.30.469,multiplicationStroop,2021.2.3,MacIntel,90.90909091,,,,,right,1,0.827,0,42,42,19,1,4,9,4 | 9,5,1.4111,1.9756,congruent,right,,,,,,stimulusFile/magnitude.xlsx,,,,,,,,,,,,,,,,,,,,,,,,,,,,,,,
,,,,,,,,,,,,,,,786,2022-01-18_00h47.30.469,multiplicationStroop,2021.2.3,MacIntel,90.90909091,,,,,right,1,0.913,0,43,43,58,1,6,8,6 | 8,2,1.6933,1.6933,neutral,right,,,,,,stimulusFile/magnitude.xlsx,,,,,,,,,,,,,,,,,,,,,,,,,,,,,,,
,,,,,,,,,,,,,,,786,2022-01-18_00h47.30.469,multiplicationStroop,2021.2.3,MacIntel,90.90909091,,,,,right,1,1.109,0,44,44,42,1,3,8,3 | 8,5,1.9756,1.4111,incongruent,right,,,,,,stimulusFile/magnitude.xlsx,,,,,,,,,,,,,,,,,,,,,,,,,,,,,,,
,,,,,,,,,,,,,,,786,2022-01-18_00h47.30.469,multiplicationStroop,2021.2.3,MacIntel,90.90909091,,,,,left,1,0.746,0,45,45,55,1,9,8,9 | 8,1,1.6933,1.6933,neutral,left,,,,,,stimulusFile/magnitude.xlsx,,,,,,,,,,,,,,,,,,,,,,,,,,,,,,,
,,,,,,,,,,,,,,,786,2022-01-18_00h47.30.469,multiplicationStroop,2021.2.3,MacIntel,90.90909091,,,,,left,1,0.779,0,46,46,6,1,7,6,7 | 6,1,1.9756,1.4111,congruent,left,,,,,,stimulusFile/magnitude.xlsx,,,,,,,,,,,,,,,,,,,,,,,,,,,,,,,
,,,,,,,,,,,,,,,786,2022-01-18_00h47.30.469,multiplicationStroop,2021.2.3,MacIntel,90.90909091,,,,,left,1,0.579,0,47,47,23,1,9,4,9 | 4,5,1.9756,1.4111,congruent,left,,,,,,stimulusFile/magnitude.xlsx,,,,,,,,,,,,,,,,,,,,,,,,,,,,,,,
,,,,,,,,,,,,,,,786,2022-01-18_00h47.30.469,multiplicationStroop,2021.2.3,MacIntel,90.90909091,,,,,right,1,0.631,0,48,48,57,1,2,4,2 | 4,2,1.6933,1.6933,neutral,right,,,,,,stimulusFile/magnitude.xlsx,,,,,,,,,,,,,,,,,,,,,,,,,,,,,,,
,,,,,,,,,,,,,,,786,2022-01-18_00h47.30.469,multiplicationStroop,2021.2.3,MacIntel,90.90909091,,,,,right,1,0.625,0,49,49,11,1,7,9,7 | 9,2,1.4111,1.9756,congruent,right,,,,,,stimulusFile/magnitude.xlsx,,,,,,,,,,,,,,,,,,,,,,,,,,,,,,,
,,,,,,,,,,,,,,,786,2022-01-18_00h47.30.469,multiplicationStroop,2021.2.3,MacIntel,90.90909091,,,,,left,1,0.599,0,50,50,22,1,8,3,8 | 3,5,1.9756,1.4111,congruent,left,,,,,,stimulusFile/magnitude.xlsx,,,,,,,,,,,,,,,,,,,,,,,,,,,,,,,
,,,,,,,,,,,,,,,786,2022-01-18_00h47.30.469,multiplicationStroop,2021.2.3,MacIntel,90.90909091,,,,,left,1,0.574,0,51,51,69,1,7,2,7 | 2,5,1.6933,1.6933,neutral,left,,,,,,stimulusFile/magnitude.xlsx,,,,,,,,,,,,,,,,,,,,,,,,,,,,,,,
,,,,,,,,,,,,,,,786,2022-01-18_00h47.30.469,multiplicationStroop,2021.2.3,MacIntel,90.90909091,,,,,left,1,0.713,0,52,52,38,1,8,6,8 | 6,2,1.4111,1.9756,incongruent,left,,,,,,stimulusFile/magnitude.xlsx,,,,,,,,,,,,,,,,,,,,,,,,,,,,,,,
,,,,,,,,,,,,,,,786,2022-01-18_00h47.30.469,multiplicationStroop,2021.2.3,MacIntel,90.90909091,,,,,left,1,0.523,0,53,53,14,1,8,6,8 | 6,2,1.9756,1.4111,congruent,left,,,,,,stimulusFile/magnitude.xlsx,,,,,,,,,,,,,,,,,,,,,,,,,,,,,,,
,,,,,,,,,,,,,,,786,2022-01-18_00h47.30.469,multiplicationStroop,2021.2.3,MacIntel,90.90909091,,,,,left,1,0.829,0,54,54,7,1,9,8,9 | 8,1,1.9756,1.4111,congruent,left,,,,,,stimulusFile/magnitude.xlsx,,,,,,,,,,,,,,,,,,,,,,,,,,,,,,,
,,,,,,,,,,,,,,,786,2022-01-18_00h47.30.469,multiplicationStroop,2021.2.3,MacIntel,90.90909091,,,,,left,1,0.76,0,55,55,47,1,9,4,9 | 4,5,1.4111,1.9756,incongruent,left,,,,,,stimulusFile/magnitude.xlsx,,,,,,,,,,,,,,,,,,,,,,,,,,,,,,,
,,,,,,,,,,,,,,,786,2022-01-18_00h47.30.469,multiplicationStroop,2021.2.3,MacIntel,90.90909091,,,,,right,1,0.703,0,56,56,34,1,6,8,6 | 8,2,1.9756,1.4111,incongruent,right,,,,,,stimulusFile/magnitude.xlsx,,,,,,,,,,,,,,,,,,,,,,,,,,,,,,,
,,,,,,,,,,,,,,,786,2022-01-18_00h47.30.469,multiplicationStroop,2021.2.3,MacIntel,90.90909091,,,,,right,1,0.679,0,57,57,32,1,1,3,1 | 3,2,1.9756,1.4111,incongruent,right,,,,,,stimulusFile/magnitude.xlsx,,,,,,,,,,,,,,,,,,,,,,,,,,,,,,,
,,,,,,,,,,,,,,,786,2022-01-18_00h47.30.469,multiplicationStroop,2021.2.3,MacIntel,90.90909091,,,,,right,1,0.616,0,58,58,17,1,2,7,2 | 7,5,1.4111,1.9756,congruent,right,,,,,,stimulusFile/magnitude.xlsx,,,,,,,,,,,,,,,,,,,,,,,,,,,,,,,
,,,,,,,,,,,,,,,786,2022-01-18_00h47.30.469,multiplicationStroop,2021.2.3,MacIntel,90.90909091,,,,,left,1,0.68,0,59,59,37,1,4,2,4 | 2,2,1.4111,1.9756,incongruent,left,,,,,,stimulusFile/magnitude.xlsx,,,,,,,,,,,,,,,,,,,,,,,,,,,,,,,
,,,,,,,,,,,,,,,786,2022-01-18_00h47.30.469,multiplicationStroop,2021.2.3,MacIntel,90.90909091,,,,,right,1,0.513,0,60,60,8,1,1,3,1 | 3,2,1.4111,1.9756,congruent,right,,,,,,stimulusFile/magnitude.xlsx,,,,,,,,,,,,,,,,,,,,,,,,,,,,,,,
,,,,,,,,,,,,,,,786,2022-01-18_00h47.30.469,multiplicationStroop,2021.2.3,MacIntel,90.90909091,,,,,left,1,0.479,0,61,61,4,1,2,1,2 | 1,1,1.9756,1.4111,congruent,left,,,,,,stimulusFile/magnitude.xlsx,,,,,,,,,,,,,,,,,,,,,,,,,,,,,,,
,,,,,,,,,,,,,,,786,2022-01-18_00h47.30.469,multiplicationStroop,2021.2.3,MacIntel,90.90909091,,,,,left,1,0.628,0,62,62,54,1,7,6,7 | 6,1,1.6933,1.6933,neutral,left,,,,,,stimulusFile/magnitude.xlsx,,,,,,,,,,,,,,,,,,,,,,,,,,,,,,,
,,,,,,,,,,,,,,,786,2022-01-18_00h47.30.469,multiplicationStroop,2021.2.3,MacIntel,90.90909091,,,,,right,1,0.571,0,63,63,18,1,3,8,3 | 8,5,1.4111,1.9756,congruent,right,,,,,,stimulusFile/magnitude.xlsx,,,,,,,,,,,,,,,,,,,,,,,,,,,,,,,
,,,,,,,,,,,,,,,786,2022-01-18_00h47.30.469,multiplicationStroop,2021.2.3,MacIntel,90.90909091,,,,,left,1,0.615,0,64,64,36,1,3,1,3 | 1,2,1.4111,1.9756,incongruent,left,,,,,,stimulusFile/magnitude.xlsx,,,,,,,,,,,,,,,,,,,,,,,,,,,,,,,
,,,,,,,,,,,,,,,786,2022-01-18_00h47.30.469,multiplicationStroop,2021.2.3,MacIntel,90.90909091,,,,,right,1,0.69,0,65,65,66,1,3,8,3 | 8,5,1.6933,1.6933,neutral,right,,,,,,stimulusFile/magnitude.xlsx,,,,,,,,,,,,,,,,,,,,,,,,,,,,,,,
,,,,,,,,,,,,,,,786,2022-01-18_00h47.30.469,multiplicationStroop,2021.2.3,MacIntel,90.90909091,,,,,left,1,0.629,0,66,66,52,1,2,1,2 | 1,1,1.6933,1.6933,neutral,left,,,,,,stimulusFile/magnitude.xlsx,,,,,,,,,,,,,,,,,,,,,,,,,,,,,,,
,,,,,,,,,,,,,,,786,2022-01-18_00h47.30.469,multiplicationStroop,2021.2.3,MacIntel,90.90909091,,,,,right,1,0.674,0,67,67,25,1,3,4,3 | 4,1,1.9756,1.4111,incongruent,right,,,,,,stimulusFile/magnitude.xlsx,,,,,,,,,,,,,,,,,,,,,,,,,,,,,,,
,,,,,,,,,,,,,,,786,2022-01-18_00h47.30.469,multiplicationStroop,2021.2.3,MacIntel,90.90909091,,,,,right,1,0.562,0,68,68,59,1,7,9,7 | 9,2,1.6933,1.6933,neutral,right,,,,,,stimulusFile/magnitude.xlsx,,,,,,,,,,,,,,,,,,,,,,,,,,,,,,,
,,,,,,,,,,,,,,,786,2022-01-18_00h47.30.469,multiplicationStroop,2021.2.3,MacIntel,90.90909091,,,,,right,1,0.466,0,69,69,67,1,4,9,4 | 9,5,1.6933,1.6933,neutral,right,,,,,,stimulusFile/magnitude.xlsx,,,,,,,,,,,,,,,,,,,,,,,,,,,,,,,
,,,,,,,,,,,,,,,786,2022-01-18_00h47.30.469,multiplicationStroop,2021.2.3,MacIntel,90.90909091,,,,,left,1,0.551,0,70,70,62,1,8,6,8 | 6,2,1.6933,1.6933,neutral,left,,,,,,stimulusFile/magnitude.xlsx,,,,,,,,,,,,,,,,,,,,,,,,,,,,,,,
,,,,,,,,,,,,,,,786,2022-01-18_00h47.30.469,multiplicationStroop,2021.2.3,MacIntel,90.90909091,,,,,right,1,0.574,0,71,71,56,1,1,3,1 | 3,2,1.6933,1.6933,neutral,right,,,,,,stimulusFile/magnitude.xlsx,,,,,,,,,,,,,,,,,,,,,,,,,,,,,,,
,,,,,,,,,,,,,,,786,2022-01-18_00h47.30.469,multiplicationStroop,2021.2.3,MacIntel,90.90909091,,,,,,,,,,,,,,,,,,,,,0,0,0,0,1,stimulusFile/magnitude.xlsx,NUMERICALLY larger (larger coefficient).,images/numericallyLarger.png,,,,,,,,,,,,,,,,,,,,,,,,,,,,,
,,,,,,,,,,,,,,,786,2022-01-18_00h47.30.469,multiplicationStroop,2021.2.3,MacIntel,90.90909091,space,3.636,space,1.511,left,1,0.506,0,0,0,13,1,4,2,4 | 2,2,1.9756,1.4111,congruent,left,,,,,,stimulusFile/physical.xlsx,,,,,,,,,,,,,,,,,,,,,,,,,,,,,,,
,,,,,,,,,,,,,,,786,2022-01-18_00h47.30.469,multiplicationStroop,2021.2.3,MacIntel,90.90909091,,,,,left,1,0.465,0,1,1,15,1,9,7,9 | 7,2,1.9756,1.4111,congruent,left,,,,,,stimulusFile/physical.xlsx,,,,,,,,,,,,,,,,,,,,,,,,,,,,,,,
,,,,,,,,,,,,,,,786,2022-01-18_00h47.30.469,multiplicationStroop,2021.2.3,MacIntel,90.90909091,,,,,left,1,0.447,0,2,2,26,1,6,7,6 | 7,1,1.9756,1.4111,incongruent,left,,,,,,stimulusFile/physical.xlsx,,,,,,,,,,,,,,,,,,,,,,,,,,,,,,,
,,,,,,,,,,,,,,,786,2022-01-18_00h47.30.469,multiplicationStroop,2021.2.3,MacIntel,90.90909091,,,,,left,0,0.533,0,3,3,63,1,9,9,9 | 9,0,1.4111,1.9756,neutral,right,,,,,,stimulusFile/physical.xlsx,,,,,,,,,,,,,,,,,,,,,,,,,,,,,,,
,,,,,,,,,,,,,,,786,2022-01-18_00h47.30.469,multiplicationStroop,2021.2.3,MacIntel,90.90909091,,,,,right,1,0.762,0,4,4,37,1,4,2,4 | 2,2,1.4111,1.9756,incongruent,right,,,,,,stimulusFile/physical.xlsx,,,,,,,,,,,,,,,,,,,,,,,,,,,,,,,
,,,,,,,,,,,,,,,786,2022-01-18_00h47.30.469,multiplicationStroop,2021.2.3,MacIntel,90.90909091,,,,,left,1,0.556,0,5,5,50,1,6,6,6 | 6,0,1.9756,1.4111,neutral,left,,,,,,stimulusFile/physical.xlsx,,,,,,,,,,,,,,,,,,,,,,,,,,,,,,,
,,,,,,,,,,,,,,,786,2022-01-18_00h47.30.469,multiplicationStroop,2021.2.3,MacIntel,90.90909091,,,,,right,1,0.823,0,6,6,47,1,9,4,9 | 4,5,1.4111,1.9756,incongruent,right,,,,,,stimulusFile/physical.xlsx,,,,,,,,,,,,,,,,,,,,,,,,,,,,,,,
,,,,,,,,,,,,,,,786,2022-01-18_00h47.30.469,multiplicationStroop,2021.2.3,MacIntel,90.90909091,,,,,left,1,0.513,0,7,7,48,1,1,1,1 | 1,0,1.9756,1.4111,neutral,left,,,,,,stimulusFile/physical.xlsx,,,,,,,,,,,,,,,,,,,,,,,,,,,,,,,
,,,,,,,,,,,,,,,786,2022-01-18_00h47.30.469,multiplicationStroop,2021.2.3,MacIntel,90.90909091,,,,,left,1,0.522,0,8,8,7,1,9,8,9 | 8,1,1.9756,1.4111,congruent,left,,,,,,stimulusFile/physical.xlsx,,,,,,,,,,,,,,,,,,,,,,,,,,,,,,,
,,,,,,,,,,,,,,,786,2022-01-18_00h47.30.469,multiplicationStroop,2021.2.3,MacIntel,90.90909091,,,,,right,1,0.443,0,9,9,59,1,7,7,7 | 7,0,1.4111,1.9756,neutral,right,,,,,,stimulusFile/physical.xlsx,,,,,,,,,,,,,,,,,,,,,,,,,,,,,,,
,,,,,,,,,,,,,,,786,2022-01-18_00h47.30.469,multiplicationStroop,2021.2.3,MacIntel,90.90909091,,,,,right,1,0.475,0,10,10,56,1,1,1,1 | 1,0,1.4111,1.9756,neutral,right,,,,,,stimulusFile/physical.xlsx,,,,,,,,,,,,,,,,,,,,,,,,,,,,,,,
,,,,,,,,,,,,,,,786,2022-01-18_00h47.30.469,multiplicationStroop,2021.2.3,MacIntel,90.90909091,,,,,right,1,0.496,0,11,11,61,1,4,4,4 | 4,0,1.4111,1.9756,neutral,right,,,,,,stimulusFile/physical.xlsx,,,,,,,,,,,,,,,,,,,,,,,,,,,,,,,
,,,,,,,,,,,,,,,786,2022-01-18_00h47.30.469,multiplicationStroop,2021.2.3,MacIntel,90.90909091,,,,,right,1,0.512,0,12,12,65,1,2,2,2 | 2,0,1.4111,1.9756,neutral,right,,,,,,stimulusFile/physical.xlsx,,,,,,,,,,,,,,,,,,,,,,,,,,,,,,,
,,,,,,,,,,,,,,,786,2022-01-18_00h47.30.469,multiplicationStroop,2021.2.3,MacIntel,90.90909091,,,,,right,0,0.677,0,13,13,69,1,7,7,7 | 7,0,1.4111,1.9756,neutral,left,,,,,,stimulusFile/physical.xlsx,,,,,,,,,,,,,,,,,,,,,,,,,,,,,,,
,,,,,,,,,,,,,,,786,2022-01-18_00h47.30.469,multiplicationStroop,2021.2.3,MacIntel,90.90909091,,,,,right,1,0.522,0,14,14,38,1,8,6,8 | 6,2,1.4111,1.9756,incongruent,right,,,,,,stimulusFile/physical.xlsx,,,,,,,,,,,,,,,,,,,,,,,,,,,,,,,
,,,,,,,,,,,,,,,786,2022-01-18_00h47.30.469,multiplicationStroop,2021.2.3,MacIntel,90.90909091,,,,,left,1,0.467,0,15,15,22,1,8,3,8 | 3,5,1.9756,1.4111,congruent,left,,,,,,stimulusFile/physical.xlsx,,,,,,,,,,,,,,,,,,,,,,,,,,,,,,,
,,,,,,,,,,,,,,,786,2022-01-18_00h47.30.469,multiplicationStroop,2021.2.3,MacIntel,90.90909091,,,,,right,1,0.463,0,16,16,10,1,6,8,6 | 8,2,1.4111,1.9756,congruent,right,,,,,,stimulusFile/physical.xlsx,,,,,,,,,,,,,,,,,,,,,,,,,,,,,,,
,,,,,,,,,,,,,,,786,2022-01-18_00h47.30.469,multiplicationStroop,2021.2.3,MacIntel,90.90909091,,,,,right,1,0.464,0,17,17,3,1,8,9,8 | 9,1,1.4111,1.9756,congruent,right,,,,,,stimulusFile/physical.xlsx,,,,,,,,,,,,,,,,,,,,,,,,,,,,,,,
,,,,,,,,,,,,,,,786,2022-01-18_00h47.30.469,multiplicationStroop,2021.2.3,MacIntel,90.90909091,,,,,right,1,0.713,0,18,18,44,1,6,1,6 | 1,5,1.4111,1.9756,incongruent,right,,,,,,stimulusFile/physical.xlsx,,,,,,,,,,,,,,,,,,,,,,,,,,,,,,,
,,,,,,,,,,,,,,,786,2022-01-18_00h47.30.469,multiplicationStroop,2021.2.3,MacIntel,90.90909091,,,,,right,1,0.474,0,19,19,9,1,2,4,2 | 4,2,1.4111,1.9756,congruent,right,,,,,,stimulusFile/physical.xlsx,,,,,,,,,,,,,,,,,,,,,,,,,,,,,,,
,,,,,,,,,,,,,,,786,2022-01-18_00h47.30.469,multiplicationStroop,2021.2.3,MacIntel,90.90909091,,,,,left,1,0.431,0,20,20,14,1,8,6,8 | 6,2,1.9756,1.4111,congruent,left,,,,,,stimulusFile/physical.xlsx,,,,,,,,,,,,,,,,,,,,,,,,,,,,,,,
,,,,,,,,,,,,,,,786,2022-01-18_00h47.30.469,multiplicationStroop,2021.2.3,MacIntel,90.90909091,,,,,right,1,0.474,0,21,21,31,1,9,8,9 | 8,1,1.4111,1.9756,incongruent,right,,,,,,stimulusFile/physical.xlsx,,,,,,,,,,,,,,,,,,,,,,,,,,,,,,,
,,,,,,,,,,,,,,,786,2022-01-18_00h47.30.469,multiplicationStroop,2021.2.3,MacIntel,90.90909091,,,,,right,1,0.461,0,22,22,1,1,3,4,3 | 4,1,1.4111,1.9756,congruent,right,,,,,,stimulusFile/physical.xlsx,,,,,,,,,,,,,,,,,,,,,,,,,,,,,,,
,,,,,,,,,,,,,,,786,2022-01-18_00h47.30.469,multiplicationStroop,2021.2.3,MacIntel,90.90909091,,,,,left,1,0.442,0,23,23,21,1,7,2,7 | 2,5,1.9756,1.4111,congruent,left,,,,,,stimulusFile/physical.xlsx,,,,,,,,,,,,,,,,,,,,,,,,,,,,,,,
,,,,,,,,,,,,,,,786,2022-01-18_00h47.30.469,multiplicationStroop,2021.2.3,MacIntel,90.90909091,,,,,right,1,0.461,0,24,24,17,1,2,7,2 | 7,5,1.4111,1.9756,congruent,right,,,,,,stimulusFile/physical.xlsx,,,,,,,,,,,,,,,,,,,,,,,,,,,,,,,
,,,,,,,,,,,,,,,786,2022-01-18_00h47.30.469,multiplicationStroop,2021.2.3,MacIntel,90.90909091,,,,,left,1,0.43,0,25,25,27,1,8,9,8 | 9,1,1.9756,1.4111,incongruent,left,,,,,,stimulusFile/physical.xlsx,,,,,,,,,,,,,,,,,,,,,,,,,,,,,,,
,,,,,,,,,,,,,,,786,2022-01-18_00h47.30.469,multiplicationStroop,2021.2.3,MacIntel,90.90909091,,,,,left,1,0.613,0,26,26,41,1,2,7,2 | 7,5,1.9756,1.4111,incongruent,left,,,,,,stimulusFile/physical.xlsx,,,,,,,,,,,,,,,,,,,,,,,,,,,,,,,
,,,,,,,,,,,,,,,786,2022-01-18_00h47.30.469,multiplicationStroop,2021.2.3,MacIntel,90.90909091,,,,,right,1,0.539,0,27,27,39,1,9,7,9 | 7,2,1.4111,1.9756,incongruent,right,,,,,,stimulusFile/physical.xlsx,,,,,,,,,,,,,,,,,,,,,,,,,,,,,,,
,,,,,,,,,,,,,,,786,2022-01-18_00h47.30.469,multiplicationStroop,2021.2.3,MacIntel,90.90909091,,,,,right,1,0.444,0,28,28,45,1,7,2,7 | 2,5,1.4111,1.9756,incongruent,right,,,,,,stimulusFile/physical.xlsx,,,,,,,,,,,,,,,,,,,,,,,,,,,,,,,
,,,,,,,,,,,,,,,786,2022-01-18_00h47.30.469,multiplicationStroop,2021.2.3,MacIntel,90.90909091,,,,,left,1,0.496,0,29,29,5,1,4,3,4 | 3,1,1.9756,1.4111,congruent,left,,,,,,stimulusFile/physical.xlsx,,,,,,,,,,,,,,,,,,,,,,,,,,,,,,,
,,,,,,,,,,,,,,,786,2022-01-18_00h47.30.469,multiplicationStroop,2021.2.3,MacIntel,90.90909091,,,,,right,1,0.398,0,30,30,19,1,4,9,4 | 9,5,1.4111,1.9756,congruent,right,,,,,,stimulusFile/physical.xlsx,,,,,,,,,,,,,,,,,,,,,,,,,,,,,,,
,,,,,,,,,,,,,,,786,2022-01-18_00h47.30.469,multiplicationStroop,2021.2.3,MacIntel,90.90909091,,,,,left,1,0.511,0,31,31,12,1,3,1,3 | 1,2,1.9756,1.4111,congruent,left,,,,,,stimulusFile/physical.xlsx,,,,,,,,,,,,,,,,,,,,,,,,,,,,,,,
,,,,,,,,,,,,,,,786,2022-01-18_00h47.30.469,multiplicationStroop,2021.2.3,MacIntel,90.90909091,,,,,left,1,0.458,0,32,32,23,1,9,4,9 | 4,5,1.9756,1.4111,congruent,left,,,,,,stimulusFile/physical.xlsx,,,,,,,,,,,,,,,,,,,,,,,,,,,,,,,
,,,,,,,,,,,,,,,786,2022-01-18_00h47.30.469,multiplicationStroop,2021.2.3,MacIntel,90.90909091,,,,,right,1,0.423,0,33,33,62,1,8,8,8 | 8,0,1.4111,1.9756,neutral,right,,,,,,stimulusFile/physical.xlsx,,,,,,,,,,,,,,,,,,,,,,,,,,,,,,,
,,,,,,,,,,,,,,,786,2022-01-18_00h47.30.469,multiplicationStroop,2021.2.3,MacIntel,90.90909091,,,,,left,1,0.559,0,34,34,32,1,1,3,1 | 3,2,1.9756,1.4111,incongruent,left,,,,,,stimulusFile/physical.xlsx,,,,,,,,,,,,,,,,,,,,,,,,,,,,,,,
,,,,,,,,,,,,,,,786,2022-01-18_00h47.30.469,multiplicationStroop,2021.2.3,MacIntel,90.90909091,,,,,left,1,0.723,0,35,35,51,1,8,8,8 | 8,0,1.9756,1.4111,neutral,left,,,,,,stimulusFile/physical.xlsx,,,,,,,,,,,,,,,,,,,,,,,,,,,,,,,
,,,,,,,,,,,,,,,786,2022-01-18_00h47.30.469,multiplicationStroop,2021.2.3,MacIntel,90.90909091,,,,,right,0,0.426,0,36,36,71,1,9,9,9 | 9,0,1.4111,1.9756,neutral,left,,,,,,stimulusFile/physical.xlsx,,,,,,,,,,,,,,,,,,,,,,,,,,,,,,,
,,,,,,,,,,,,,,,786,2022-01-18_00h47.30.469,multiplicationStroop,2021.2.3,MacIntel,90.90909091,,,,,left,1,0.445,0,37,37,6,1,7,6,7 | 6,1,1.9756,1.4111,congruent,left,,,,,,stimulusFile/physical.xlsx,,,,,,,,,,,,,,,,,,,,,,,,,,,,,,,
,,,,,,,,,,,,,,,786,2022-01-18_00h47.30.469,multiplicationStroop,2021.2.3,MacIntel,90.90909091,,,,,right,1,0.432,0,38,38,67,1,4,4,4 | 4,0,1.4111,1.9756,neutral,right,,,,,,stimulusFile/physical.xlsx,,,,,,,,,,,,,,,,,,,,,,,,,,,,,,,
,,,,,,,,,,,,,,,786,2022-01-18_00h47.30.469,multiplicationStroop,2021.2.3,MacIntel,90.90909091,,,,,left,1,0.364,0,39,39,4,1,2,1,2 | 1,1,1.9756,1.4111,congruent,left,,,,,,stimulusFile/physical.xlsx,,,,,,,,,,,,,,,,,,,,,,,,,,,,,,,
,,,,,,,,,,,,,,,786,2022-01-18_00h47.30.469,multiplicationStroop,2021.2.3,MacIntel,90.90909091,,,,,right,1,0.347,0,40,40,8,1,1,3,1 | 3,2,1.4111,1.9756,congruent,right,,,,,,stimulusFile/physical.xlsx,,,,,,,,,,,,,,,,,,,,,,,,,,,,,,,
,,,,,,,,,,,,,,,786,2022-01-18_00h47.30.469,multiplicationStroop,2021.2.3,MacIntel,90.90909091,,,,,right,1,0.624,0,41,41,46,1,8,3,8 | 3,5,1.4111,1.9756,incongruent,right,,,,,,stimulusFile/physical.xlsx,,,,,,,,,,,,,,,,,,,,,,,,,,,,,,,
,,,,,,,,,,,,,,,786,2022-01-18_00h47.30.469,multiplicationStroop,2021.2.3,MacIntel,90.90909091,,,,,right,1,0.431,0,42,42,0,1,1,2,1 | 2,1,1.4111,1.9756,congruent,right,,,,,,stimulusFile/physical.xlsx,,,,,,,,,,,,,,,,,,,,,,,,,,,,,,,
,,,,,,,,,,,,,,,786,2022-01-18_00h47.30.469,multiplicationStroop,2021.2.3,MacIntel,90.90909091,,,,,left,1,0.461,0,43,43,49,1,3,3,3 | 3,0,1.9756,1.4111,neutral,left,,,,,,stimulusFile/physical.xlsx,,,,,,,,,,,,,,,,,,,,,,,,,,,,,,,
,,,,,,,,,,,,,,,786,2022-01-18_00h47.30.469,multiplicationStroop,2021.2.3,MacIntel,90.90909091,,,,,right,1,0.374,0,44,44,16,1,1,6,1 | 6,5,1.4111,1.9756,congruent,right,,,,,,stimulusFile/physical.xlsx,,,,,,,,,,,,,,,,,,,,,,,,,,,,,,,
,,,,,,,,,,,,,,,786,2022-01-18_00h47.30.469,multiplicationStroop,2021.2.3,MacIntel,90.90909091,,,,,left,1,0.404,0,45,45,70,1,8,8,8 | 8,0,1.9756,1.4111,neutral,left,,,,,,stimulusFile/physical.xlsx,,,,,,,,,,,,,,,,,,,,,,,,,,,,,,,
,,,,,,,,,,,,,,,786,2022-01-18_00h47.30.469,multiplicationStroop,2021.2.3,MacIntel,90.90909091,,,,,left,1,0.718,0,46,46,42,1,3,8,3 | 8,5,1.9756,1.4111,incongruent,left,,,,,,stimulusFile/physical.xlsx,,,,,,,,,,,,,,,,,,,,,,,,,,,,,,,
,,,,,,,,,,,,,,,786,2022-01-18_00h47.30.469,multiplicationStroop,2021.2.3,MacIntel,90.90909091,,,,,right,1,0.472,0,47,47,30,1,7,6,7 | 6,1,1.4111,1.9756,incongruent,right,,,,,,stimulusFile/physical.xlsx,,,,,,,,,,,,,,,,,,,,,,,,,,,,,,,
,,,,,,,,,,,,,,,786,2022-01-18_00h47.30.469,multiplicationStroop,2021.2.3,MacIntel,90.90909091,,,,,left,1,0.423,0,48,48,52,1,2,2,2 | 2,0,1.9756,1.4111,neutral,left,,,,,,stimulusFile/physical.xlsx,,,,,,,,,,,,,,,,,,,,,,,,,,,,,,,
,,,,,,,,,,,,,,,786,2022-01-18_00h47.30.469,multiplicationStroop,2021.2.3,MacIntel,90.90909091,,,,,right,1,0.401,0,49,49,11,1,7,9,7 | 9,2,1.4111,1.9756,congruent,right,,,,,,stimulusFile/physical.xlsx,,,,,,,,,,,,,,,,,,,,,,,,,,,,,,,
,,,,,,,,,,,,,,,786,2022-01-18_00h47.30.469,multiplicationStroop,2021.2.3,MacIntel,90.90909091,,,,,left,0,0.34,0,50,50,66,1,3,3,3 | 3,0,1.9756,1.4111,neutral,right,,,,,,stimulusFile/physical.xlsx,,,,,,,,,,,,,,,,,,,,,,,,,,,,,,,
,,,,,,,,,,,,,,,786,2022-01-18_00h47.30.469,multiplicationStroop,2021.2.3,MacIntel,90.90909091,,,,,right,1,0.478,0,51,51,57,1,2,2,2 | 2,0,1.4111,1.9756,neutral,right,,,,,,stimulusFile/physical.xlsx,,,,,,,,,,,,,,,,,,,,,,,,,,,,,,,
,,,,,,,,,,,,,,,786,2022-01-18_00h47.30.469,multiplicationStroop,2021.2.3,MacIntel,90.90909091,,,,,right,1,0.546,0,52,52,28,1,2,1,2 | 1,1,1.4111,1.9756,incongruent,right,,,,,,stimulusFile/physical.xlsx,,,,,,,,,,,,,,,,,,,,,,,,,,,,,,,
,,,,,,,,,,,,,,,786,2022-01-18_00h47.30.469,multiplicationStroop,2021.2.3,MacIntel,90.90909091,,,,,right,1,0.449,0,53,53,29,1,4,3,4 | 3,1,1.4111,1.9756,incongruent,right,,,,,,stimulusFile/physical.xlsx,,,,,,,,,,,,,,,,,,,,,,,,,,,,,,,
,,,,,,,,,,,,,,,786,2022-01-18_00h47.30.469,multiplicationStroop,2021.2.3,MacIntel,90.90909091,,,,,left,1,0.462,0,54,54,53,1,4,4,4 | 4,0,1.9756,1.4111,neutral,left,,,,,,stimulusFile/physical.xlsx,,,,,,,,,,,,,,,,,,,,,,,,,,,,,,,
,,,,,,,,,,,,,,,786,2022-01-18_00h47.30.469,multiplicationStroop,2021.2.3,MacIntel,90.90909091,,,,,left,1,0.548,0,55,55,68,1,6,6,6 | 6,0,1.9756,1.4111,neutral,left,,,,,,stimulusFile/physical.xlsx,,,,,,,,,,,,,,,,,,,,,,,,,,,,,,,
,,,,,,,,,,,,,,,786,2022-01-18_00h47.30.469,multiplicationStroop,2021.2.3,MacIntel,90.90909091,,,,,right,1,0.395,0,56,56,60,1,3,3,3 | 3,0,1.4111,1.9756,neutral,right,,,,,,stimulusFile/physical.xlsx,,,,,,,,,,,,,,,,,,,,,,,,,,,,,,,
,,,,,,,,,,,,,,,786,2022-01-18_00h47.30.469,multiplicationStroop,2021.2.3,MacIntel,90.90909091,,,,,left,1,0.357,0,57,57,55,1,9,9,9 | 9,0,1.9756,1.4111,neutral,left,,,,,,stimulusFile/physical.xlsx,,,,,,,,,,,,,,,,,,,,,,,,,,,,,,,
,,,,,,,,,,,,,,,786,2022-01-18_00h47.30.469,multiplicationStroop,2021.2.3,MacIntel,90.90909091,,,,,right,1,0.439,0,58,58,2,1,6,7,6 | 7,1,1.4111,1.9756,congruent,right,,,,,,stimulusFile/physical.xlsx,,,,,,,,,,,,,,,,,,,,,,,,,,,,,,,
,,,,,,,,,,,,,,,786,2022-01-18_00h47.30.469,multiplicationStroop,2021.2.3,MacIntel,90.90909091,,,,,left,1,0.397,0,59,59,54,1,7,7,7 | 7,0,1.9756,1.4111,neutral,left,,,,,,stimulusFile/physical.xlsx,,,,,,,,,,,,,,,,,,,,,,,,,,,,,,,
,,,,,,,,,,,,,,,786,2022-01-18_00h47.30.469,multiplicationStroop,2021.2.3,MacIntel,90.90909091,,,,,left,0,0.472,0,60,60,64,1,1,1,1 | 1,0,1.9756,1.4111,neutral,right,,,,,,stimulusFile/physical.xlsx,,,,,,,,,,,,,,,,,,,,,,,,,,,,,,,
,,,,,,,,,,,,,,,786,2022-01-18_00h47.30.469,multiplicationStroop,2021.2.3,MacIntel,90.90909091,,,,,right,1,0.446,0,61,61,18,1,3,8,3 | 8,5,1.4111,1.9756,congruent,right,,,,,,stimulusFile/physical.xlsx,,,,,,,,,,,,,,,,,,,,,,,,,,,,,,,
,,,,,,,,,,,,,,,786,2022-01-18_00h47.30.469,multiplicationStroop,2021.2.3,MacIntel,90.90909091,,,,,left,1,0.377,0,62,62,25,1,3,4,3 | 4,1,1.9756,1.4111,incongruent,left,,,,,,stimulusFile/physical.xlsx,,,,,,,,,,,,,,,,,,,,,,,,,,,,,,,
,,,,,,,,,,,,,,,786,2022-01-18_00h47.30.469,multiplicationStroop,2021.2.3,MacIntel,90.90909091,,,,,right,1,0.378,0,63,63,58,1,6,6,6 | 6,0,1.4111,1.9756,neutral,right,,,,,,stimulusFile/physical.xlsx,,,,,,,,,,,,,,,,,,,,,,,,,,,,,,,
,,,,,,,,,,,,,,,786,2022-01-18_00h47.30.469,multiplicationStroop,2021.2.3,MacIntel,90.90909091,,,,,left,1,0.446,0,64,64,24,1,1,2,1 | 2,1,1.9756,1.4111,incongruent,left,,,,,,stimulusFile/physical.xlsx,,,,,,,,,,,,,,,,,,,,,,,,,,,,,,,
,,,,,,,,,,,,,,,786,2022-01-18_00h47.30.469,multiplicationStroop,2021.2.3,MacIntel,90.90909091,,,,,left,1,0.621,0,65,65,35,1,7,9,7 | 9,2,1.9756,1.4111,incongruent,left,,,,,,stimulusFile/physical.xlsx,,,,,,,,,,,,,,,,,,,,,,,,,,,,,,,
,,,,,,,,,,,,,,,786,2022-01-18_00h47.30.469,multiplicationStroop,2021.2.3,MacIntel,90.90909091,,,,,right,0,0.59,0,66,66,40,1,1,6,1 | 6,5,1.9756,1.4111,incongruent,left,,,,,,stimulusFile/physical.xlsx,,,,,,,,,,,,,,,,,,,,,,,,,,,,,,,
,,,,,,,,,,,,,,,786,2022-01-18_00h47.30.469,multiplicationStroop,2021.2.3,MacIntel,90.90909091,,,,,left,1,0.648,0,67,67,43,1,4,9,4 | 9,5,1.9756,1.4111,incongruent,left,,,,,,stimulusFile/physical.xlsx,,,,,,,,,,,,,,,,,,,,,,,,,,,,,,,
,,,,,,,,,,,,,,,786,2022-01-18_00h47.30.469,multiplicationStroop,2021.2.3,MacIntel,90.90909091,,,,,left,1,0.474,0,68,68,20,1,6,1,6 | 1,5,1.9756,1.4111,congruent,left,,,,,,stimulusFile/physical.xlsx,,,,,,,,,,,,,,,,,,,,,,,,,,,,,,,
,,,,,,,,,,,,,,,786,2022-01-18_00h47.30.469,multiplicationStroop,2021.2.3,MacIntel,90.90909091,,,,,left,1,0.428,0,69,69,33,1,2,4,2 | 4,2,1.9756,1.4111,incongruent,left,,,,,,stimulusFile/physical.xlsx,,,,,,,,,,,,,,,,,,,,,,,,,,,,,,,
,,,,,,,,,,,,,,,786,2022-01-18_00h47.30.469,multiplicationStroop,2021.2.3,MacIntel,90.90909091,,,,,left,1,0.473,0,70,70,34,1,6,8,6 | 8,2,1.9756,1.4111,incongruent,left,,,,,,stimulusFile/physical.xlsx,,,,,,,,,,,,,,,,,,,,,,,,,,,,,,,
,,,,,,,,,,,,,,,786,2022-01-18_00h47.30.469,multiplicationStroop,2021.2.3,MacIntel,90.90909091,,,,,right,1,0.722,0,71,71,36,1,3,1,3 | 1,2,1.4111,1.9756,incongruent,right,,,,,,stimulusFile/physical.xlsx,,,,,,,,,,,,,,,,,,,,,,,,,,,,,,,
,,,,,,,,,,,,,,,786,2022-01-18_00h47.30.469,multiplicationStroop,2021.2.3,MacIntel,90.90909091,,,,,,,,,,,,,,,,,,,,,0,1,1,1,1,stimulusFile/physical.xlsx,PHYSICALLY larger (larger font size).,images/physicallyLarger.png,,,,,,,,,,,,,,,,,,,,,,,,,,,,,
,,,,,,,,,,,,,,,786,2022-01-18_00h47.30.469,multiplicationStroop,2021.2.3,MacIntel,90.90909091,,,,,,,,,,,,,,,,,,,,,,,,,,,,,space,3.691,space,3.513,15,2.424,1,0,0,0,24,1,5,×,3,5 × 3,incongruent,largerFirst,1,2,15,,,,,,,,
,,,,,,,,,,,,,,,786,2022-01-18_00h47.30.469,multiplicationStroop,2021.2.3,MacIntel,90.90909091,,,,,,,,,,,,,,,,,,,,,,,,,,,,,,,,,36,3.631,1,0,1,1,1,1,4,×,9,4 × 9,incongruent,smallerFirst,2,1,36,,,,,,,,
,,,,,,,,,,,,,,,786,2022-01-18_00h47.30.469,multiplicationStroop,2021.2.3,MacIntel,90.90909091,,,,,,,,,,,,,,,,,,,,,,,,,,,,,,,,,4,2.133,1,0,2,2,28,1,2,×,2,2 × 2,neutral,tie,2,1,4,,,,,,,,
,,,,,,,,,,,,,,,786,2022-01-18_00h47.30.469,multiplicationStroop,2021.2.3,MacIntel,90.90909091,,,,,,,,,,,,,,,,,,,,,,,,,,,,,,,,,24,1.916,1,0,3,3,6,1,4,×,6,4 × 6,incongruent,smallerFirst,2,1,24,,,,,,,,
,,,,,,,,,,,,,,,786,2022-01-18_00h47.30.469,multiplicationStroop,2021.2.3,MacIntel,90.90909091,,,,,,,,,,,,,,,,,,,,,,,,,,,,,,,,,12,1.549,1,0,4,4,19,1,4,×,3,4 × 3,incongruent,largerFirst,1,2,12,,,,,,,,
,,,,,,,,,,,,,,,786,2022-01-18_00h47.30.469,multiplicationStroop,2021.2.3,MacIntel,90.90909091,,,,,,,,,,,,,,,,,,,,,,,,,,,,,,,,,27,2.131,1,0,5,5,4,1,3,×,9,3 × 9,incongruent,smallerFirst,2,1,27,,,,,,,,
,,,,,,,,,,,,,,,786,2022-01-18_00h47.30.469,multiplicationStroop,2021.2.3,MacIntel,90.90909091,,,,,,,,,,,,,,,,,,,,,,,,,,,,,,,,,72,1.899,1,0,6,6,14,1,9,×,8,9 × 8,incongruent,largerFirst,1,2,72,,,,,,,,
,,,,,,,,,,,,,,,786,2022-01-18_00h47.30.469,multiplicationStroop,2021.2.3,MacIntel,90.90909091,,,,,,,,,,,,,,,,,,,,,,,,,,,,,,,,,54,2.165,1,0,7,7,20,1,9,×,6,9 × 6,incongruent,largerFirst,1,2,54,,,,,,,,
,,,,,,,,,,,,,,,786,2022-01-18_00h47.30.469,multiplicationStroop,2021.2.3,MacIntel,90.90909091,,,,,,,,,,,,,,,,,,,,,,,,,,,,,,,,,12,1.632,1,0,8,8,5,1,2,×,6,2 × 6,incongruent,smallerFirst,2,1,12,,,,,,,,
,,,,,,,,,,,,,,,786,2022-01-18_00h47.30.469,multiplicationStroop,2021.2.3,MacIntel,90.90909091,,,,,,,,,,,,,,,,,,,,,,,,,,,,,,,,,8,1.866,1,0,9,9,10,1,2,×,4,2 × 4,incongruent,smallerFirst,2,1,8,,,,,,,,
,,,,,,,,,,,,,,,786,2022-01-18_00h47.30.469,multiplicationStroop,2021.2.3,MacIntel,90.90909091,,,,,,,,,,,,,,,,,,,,,,,,,,,,,,,,,18,2.233,1,0,10,10,22,1,6,×,3,6 × 3,incongruent,largerFirst,1,2,18,,,,,,,,
,,,,,,,,,,,,,,,786,2022-01-18_00h47.30.469,multiplicationStroop,2021.2.3,MacIntel,90.90909091,,,,,,,,,,,,,,,,,,,,,,,,,,,,,,,,,9,1.983,1,0,11,11,29,1,3,×,3,3 × 3,neutral,tie,2,1,9,,,,,,,,
,,,,,,,,,,,,,,,786,2022-01-18_00h47.30.469,multiplicationStroop,2021.2.3,MacIntel,90.90909091,,,,,,,,,,,,,,,,,,,,,,,,,,,,,,,,,36,3.266,1,0,12,12,32,1,6,×,6,6 × 6,neutral,tie,2,1,36,,,,,,,,
,,,,,,,,,,,,,,,786,2022-01-18_00h47.30.469,multiplicationStroop,2021.2.3,MacIntel,90.90909091,,,,,,,,,,,,,,,,,,,,,,,,,,,,,,,,,56,2.182,1,0,13,13,0,1,7,×,8,7 × 8,incongruent,smallerFirst,2,1,56,,,,,,,,
,,,,,,,,,,,,,,,786,2022-01-18_00h47.30.469,multiplicationStroop,2021.2.3,MacIntel,90.90909091,,,,,,,,,,,,,,,,,,,,,,,,,,,,,,,,,64,1.983,1,0,14,14,34,1,8,×,8,8 × 8,neutral,tie,2,1,64,,,,,,,,
,,,,,,,,,,,,,,,786,2022-01-18_00h47.30.469,multiplicationStroop,2021.2.3,MacIntel,90.90909091,,,,,,,,,,,,,,,,,,,,,,,,,,,,,,,,,12,1.615,0,0,15,15,18,1,7,×,2,7 × 2,incongruent,largerFirst,1,2,14,,,,,,,,
,,,,,,,,,,,,,,,786,2022-01-18_00h47.30.469,multiplicationStroop,2021.2.3,MacIntel,90.90909091,,,,,,,,,,,,,,,,,,,,,,,,,,,,,,,,,42,3.3,1,0,16,16,3,1,6,×,7,6 × 7,incongruent,smallerFirst,2,1,42,,,,,,,,
,,,,,,,,,,,,,,,786,2022-01-18_00h47.30.469,multiplicationStroop,2021.2.3,MacIntel,90.90909091,,,,,,,,,,,,,,,,,,,,,,,,,,,,,,,,,48,2.798,1,0,17,17,15,1,8,×,6,8 × 6,incongruent,largerFirst,1,2,48,,,,,,,,
,,,,,,,,,,,,,,,786,2022-01-18_00h47.30.469,multiplicationStroop,2021.2.3,MacIntel,90.90909091,,,,,,,,,,,,,,,,,,,,,,,,,,,,,,,,,21,1.9,1,0,18,18,12,1,3,×,7,3 × 7,incongruent,smallerFirst,2,1,21,,,,,,,,
,,,,,,,,,,,,,,,786,2022-01-18_00h47.30.469,multiplicationStroop,2021.2.3,MacIntel,90.90909091,,,,,,,,,,,,,,,,,,,,,,,,,,,,,,,,,32,1.782,1,0,19,19,21,1,8,×,4,8 × 4,incongruent,largerFirst,1,2,32,,,,,,,,
,,,,,,,,,,,,,,,786,2022-01-18_00h47.30.469,multiplicationStroop,2021.2.3,MacIntel,90.90909091,,,,,,,,,,,,,,,,,,,,,,,,,,,,,,,,,20,2.632,1,0,20,20,13,1,4,×,5,4 × 5,incongruent,smallerFirst,2,1,20,,,,,,,,
,,,,,,,,,,,,,,,786,2022-01-18_00h47.30.469,multiplicationStroop,2021.2.3,MacIntel,90.90909091,,,,,,,,,,,,,,,,,,,,,,,,,,,,,,,,,18,1.866,1,0,21,21,16,1,9,×,2,9 × 2,incongruent,largerFirst,1,2,18,,,,,,,,
,,,,,,,,,,,,,,,786,2022-01-18_00h47.30.469,multiplicationStroop,2021.2.3,MacIntel,90.90909091,,,,,,,,,,,,,,,,,,,,,,,,,,,,,,,,,40,1.848,1,0,22,22,27,1,8,×,5,8 × 5,incongruent,largerFirst,1,2,40,,,,,,,,
,,,,,,,,,,,,,,,786,2022-01-18_00h47.30.469,multiplicationStroop,2021.2.3,MacIntel,90.90909091,,,,,,,,,,,,,,,,,,,,,,,,,,,,,,,,,30,1.766,1,0,23,23,11,1,5,×,6,5 × 6,incongruent,smallerFirst,2,1,30,,,,,,,,
,,,,,,,,,,,,,,,786,2022-01-18_00h47.30.469,multiplicationStroop,2021.2.3,MacIntel,90.90909091,,,,,,,,,,,,,,,,,,,,,,,,,,,,,,,,,81,2.048,1,0,24,24,35,1,9,×,9,9 × 9,neutral,tie,2,1,81,,,,,,,,
,,,,,,,,,,,,,,,786,2022-01-18_00h47.30.469,multiplicationStroop,2021.2.3,MacIntel,90.90909091,,,,,,,,,,,,,,,,,,,,,,,,,,,,,,,,,16,2.033,1,0,25,25,30,1,4,×,4,4 × 4,neutral,tie,2,1,16,,,,,,,,
,,,,,,,,,,,,,,,786,2022-01-18_00h47.30.469,multiplicationStroop,2021.2.3,MacIntel,90.90909091,,,,,,,,,,,,,,,,,,,,,,,,,,,,,,,,,10,1.832,1,0,26,26,7,1,2,×,5,2 × 5,incongruent,smallerFirst,2,1,10,,,,,,,,
,,,,,,,,,,,,,,,786,2022-01-18_00h47.30.469,multiplicationStroop,2021.2.3,MacIntel,90.90909091,,,,,,,,,,,,,,,,,,,,,,,,,,,,,,,,,16,1.681,1,0,27,27,9,1,2,×,8,2 × 8,incongruent,smallerFirst,2,1,16,,,,,,,,
,,,,,,,,,,,,,,,786,2022-01-18_00h47.30.469,multiplicationStroop,2021.2.3,MacIntel,90.90909091,,,,,,,,,,,,,,,,,,,,,,,,,,,,,,,,,49,2.2,1,0,28,28,33,1,7,×,7,7 × 7,neutral,tie,2,1,49,,,,,,,,
,,,,,,,,,,,,,,,786,2022-01-18_00h47.30.469,multiplicationStroop,2021.2.3,MacIntel,90.90909091,,,,,,,,,,,,,,,,,,,,,,,,,,,,,,,,,25,2.464,1,0,29,29,31,1,5,×,5,5 × 5,neutral,tie,2,1,25,,,,,,,,
,,,,,,,,,,,,,,,786,2022-01-18_00h47.30.469,multiplicationStroop,2021.2.3,MacIntel,90.90909091,,,,,,,,,,,,,,,,,,,,,,,,,,,,,,,,,63,9.914,1,0,30,30,17,1,9,×,7,9 × 7,incongruent,largerFirst,1,2,63,,,,,,,,
,,,,,,,,,,,,,,,786,2022-01-18_00h47.30.469,multiplicationStroop,2021.2.3,MacIntel,90.90909091,,,,,,,,,,,,,,,,,,,,,,,,,,,,,,,,,28,2.199,1,0,31,31,2,1,4,×,7,4 × 7,incongruent,smallerFirst,2,1,28,,,,,,,,
,,,,,,,,,,,,,,,786,2022-01-18_00h47.30.469,multiplicationStroop,2021.2.3,MacIntel,90.90909091,,,,,,,,,,,,,,,,,,,,,,,,,,,,,,,,,24,1.999,1,0,32,32,23,1,8,×,3,8 × 3,incongruent,largerFirst,1,2,24,,,,,,,,
,,,,,,,,,,,,,,,786,2022-01-18_00h47.30.469,multiplicationStroop,2021.2.3,MacIntel,90.90909091,,,,,,,,,,,,,,,,,,,,,,,,,,,,,,,,,6,1.882,1,0,33,33,25,1,3,×,2,3 × 2,incongruent,largerFirst,1,2,6,,,,,,,,
,,,,,,,,,,,,,,,786,2022-01-18_00h47.30.469,multiplicationStroop,2021.2.3,MacIntel,90.90909091,,,,,,,,,,,,,,,,,,,,,,,,,,,,,,,,,45,1.817,1,0,34,34,8,1,5,×,9,5 × 9,incongruent,smallerFirst,2,1,45,,,,,,,,
,,,,,,,,,,,,,,,786,2022-01-18_00h47.30.469,multiplicationStroop,2021.2.3,MacIntel,90.90909091,,,,,,,,,,,,,,,,,,,,,,,,,,,,,,,,,35,7.85,1,0,35,35,26,1,7,×,5,7 × 5,incongruent,largerFirst,1,2,35,,,,,,,,
,,,,,,,,,,,,,,,786,2022-01-18_00h47.30.469,multiplicationStroop,2021.2.3,MacIntel,90.90909091,,,,,,,,,,,,,,,,,,,,,,,,,,,,,,,,,,,,,,,,,,,,,,,,,,0,0,0,4,1,stimulusFile/mult_blk5_INcongruent.xlsx,,
,,,,,,,,,,,,,,,786,2022-01-18_00h47.30.469,multiplicationStroop,2021.2.3,MacIntel,90.90909091,,,,,,,,,,,,,,,,,,,,,,,,,,,,,,,space,1.68,10,1.902,1,0,0,0,10,1,2,×,5,2 × 5,congruent,smallerFirst,1,2,10,,,,,,,,
,,,,,,,,,,,,,,,786,2022-01-18_00h47.30.469,multiplicationStroop,2021.2.3,MacIntel,90.90909091,,,,,,,,,,,,,,,,,,,,,,,,,,,,,,,,,14,1.799,1,0,1,1,0,1,2,×,7,2 × 7,congruent,smallerFirst,1,2,14,,,,,,,,
,,,,,,,,,,,,,,,786,2022-01-18_00h47.30.469,multiplicationStroop,2021.2.3,MacIntel,90.90909091,,,,,,,,,,,,,,,,,,,,,,,,,,,,,,,,,24,2.015,1,0,2,2,11,1,4,×,6,4 × 6,congruent,smallerFirst,1,2,24,,,,,,,,
,,,,,,,,,,,,,,,786,2022-01-18_00h47.30.469,multiplicationStroop,2021.2.3,MacIntel,90.90909091,,,,,,,,,,,,,,,,,,,,,,,,,,,,,,,,,54,1.966,1,0,3,3,26,1,9,×,6,9 × 6,congruent,largerFirst,2,1,54,,,,,,,,
,,,,,,,,,,,,,,,786,2022-01-18_00h47.30.469,multiplicationStroop,2021.2.3,MacIntel,90.90909091,,,,,,,,,,,,,,,,,,,,,,,,,,,,,,,,,36,2.899,1,0,4,4,14,1,9,×,4,9 × 4,congruent,largerFirst,2,1,36,,,,,,,,
,,,,,,,,,,,,,,,786,2022-01-18_00h47.30.469,multiplicationStroop,2021.2.3,MacIntel,90.90909091,,,,,,,,,,,,,,,,,,,,,,,,,,,,,,,,,16,1.849,1,0,5,5,19,1,8,×,2,8 × 2,congruent,largerFirst,2,1,16,,,,,,,,
,,,,,,,,,,,,,,,786,2022-01-18_00h47.30.469,multiplicationStroop,2021.2.3,MacIntel,90.90909091,,,,,,,,,,,,,,,,,,,,,,,,,,,,,,,,,8,1.782,1,0,6,6,23,1,4,×,2,4 × 2,congruent,largerFirst,2,1,8,,,,,,,,
,,,,,,,,,,,,,,,786,2022-01-18_00h47.30.469,multiplicationStroop,2021.2.3,MacIntel,90.90909091,,,,,,,,,,,,,,,,,,,,,,,,,,,,,,,,,30,1.799,1,0,7,7,1,1,5,×,6,5 × 6,congruent,smallerFirst,1,2,30,,,,,,,,
,,,,,,,,,,,,,,,786,2022-01-18_00h47.30.469,multiplicationStroop,2021.2.3,MacIntel,90.90909091,,,,,,,,,,,,,,,,,,,,,,,,,,,,,,,,,24,2.032,0,0,8,8,21,1,5,×,4,5 × 4,congruent,largerFirst,2,1,20,,,,,,,,
,,,,,,,,,,,,,,,786,2022-01-18_00h47.30.469,multiplicationStroop,2021.2.3,MacIntel,90.90909091,,,,,,,,,,,,,,,,,,,,,,,,,,,,,,,,,32,3.466,1,0,9,9,6,1,4,×,8,4 × 8,congruent,smallerFirst,1,2,32,,,,,,,,
,,,,,,,,,,,,,,,786,2022-01-18_00h47.30.469,multiplicationStroop,2021.2.3,MacIntel,90.90909091,,,,,,,,,,,,,,,,,,,,,,,,,,,,,,,,,63,4.532,1,0,10,10,7,1,7,×,9,7 × 9,congruent,smallerFirst,1,2,63,,,,,,,,
,,,,,,,,,,,,,,,786,2022-01-18_00h47.30.469,multiplicationStroop,2021.2.3,MacIntel,90.90909091,,,,,,,,,,,,,,,,,,,,,,,,,,,,,,,,,4,1.683,1,0,11,11,28,1,2,×,2,2 × 2,neutral,tie,1,2,4,,,,,,,,
,,,,,,,,,,,,,,,786,2022-01-18_00h47.30.469,multiplicationStroop,2021.2.3,MacIntel,90.90909091,,,,,,,,,,,,,,,,,,,,,,,,,,,,,,,,,18,2.165,1,0,12,12,8,1,2,×,9,2 × 9,congruent,smallerFirst,1,2,18,,,,,,,,
,,,,,,,,,,,,,,,786,2022-01-18_00h47.30.469,multiplicationStroop,2021.2.3,MacIntel,90.90909091,,,,,,,,,,,,,,,,,,,,,,,,,,,,,,,,,21,5.449,0,0,13,13,12,1,3,×,9,3 × 9,congruent,smallerFirst,1,2,27,,,,,,,,
,,,,,,,,,,,,,,,786,2022-01-18_00h47.30.469,multiplicationStroop,2021.2.3,MacIntel,90.90909091,,,,,,,,,,,,,,,,,,,,,,,,,,,,,,,,,12,1.848,1,0,14,14,16,1,4,×,3,4 × 3,congruent,largerFirst,2,1,12,,,,,,,,
,,,,,,,,,,,,,,,786,2022-01-18_00h47.30.469,multiplicationStroop,2021.2.3,MacIntel,90.90909091,,,,,,,,,,,,,,,,,,,,,,,,,,,,,,,,,56,1.784,1,0,15,15,22,1,8,×,7,8 × 7,congruent,largerFirst,2,1,56,,,,,,,,
,,,,,,,,,,,,,,,786,2022-01-18_00h47.30.469,multiplicationStroop,2021.2.3,MacIntel,90.90909091,,,,,,,,,,,,,,,,,,,,,,,,,,,,,,,,,16,2.066,1,0,16,16,30,1,4,×,4,4 × 4,neutral,tie,1,2,16,,,,,,,,
,,,,,,,,,,,,,,,786,2022-01-18_00h47.30.469,multiplicationStroop,2021.2.3,MacIntel,90.90909091,,,,,,,,,,,,,,,,,,,,,,,,,,,,,,,,,25,1.665,1,0,17,17,31,1,5,×,5,5 × 5,neutral,tie,1,2,25,,,,,,,,
,,,,,,,,,,,,,,,786,2022-01-18_00h47.30.469,multiplicationStroop,2021.2.3,MacIntel,90.90909091,,,,,,,,,,,,,,,,,,,,,,,,,,,,,,,,,36,1.949,1,0,18,18,32,1,6,×,6,6 × 6,neutral,tie,1,2,36,,,,,,,,
,,,,,,,,,,,,,,,786,2022-01-18_00h47.30.469,multiplicationStroop,2021.2.3,MacIntel,90.90909091,,,,,,,,,,,,,,,,,,,,,,,,,,,,,,,,,49,2.049,1,0,19,19,33,1,7,×,7,7 × 7,neutral,tie,1,2,49,,,,,,,,
,,,,,,,,,,,,,,,786,2022-01-18_00h47.30.469,multiplicationStroop,2021.2.3,MacIntel,90.90909091,,,,,,,,,,,,,,,,,,,,,,,,,,,,,,,,,64,2.066,1,0,20,20,34,1,8,×,8,8 × 8,neutral,tie,1,2,64,,,,,,,,
,,,,,,,,,,,,,,,786,2022-01-18_00h47.30.469,multiplicationStroop,2021.2.3,MacIntel,90.90909091,,,,,,,,,,,,,,,,,,,,,,,,,,,,,,,,,9,1.766,1,0,21,21,29,1,3,×,3,3 × 3,neutral,tie,1,2,9,,,,,,,,
,,,,,,,,,,,,,,,786,2022-01-18_00h47.30.469,multiplicationStroop,2021.2.3,MacIntel,90.90909091,,,,,,,,,,,,,,,,,,,,,,,,,,,,,,,,,12,2.932,1,0,22,22,5,1,2,×,6,2 × 6,congruent,smallerFirst,1,2,12,,,,,,,,
,,,,,,,,,,,,,,,786,2022-01-18_00h47.30.469,multiplicationStroop,2021.2.3,MacIntel,90.90909091,,,,,,,,,,,,,,,,,,,,,,,,,,,,,,,,,81,2.116,1,0,23,23,35,1,9,×,9,9 × 9,neutral,tie,1,2,81,,,,,,,,
,,,,,,,,,,,,,,,786,2022-01-18_00h47.30.469,multiplicationStroop,2021.2.3,MacIntel,90.90909091,,,,,,,,,,,,,,,,,,,,,,,,,,,,,,,,,28,1.899,1,0,24,24,13,1,4,×,7,4 × 7,congruent,smallerFirst,1,2,28,,,,,,,,
,,,,,,,,,,,,,,,786,2022-01-18_00h47.30.469,multiplicationStroop,2021.2.3,MacIntel,90.90909091,,,,,,,,,,,,,,,,,,,,,,,,,,,,,,,,,15,3.032,1,0,25,25,18,1,5,×,3,5 × 3,congruent,largerFirst,2,1,15,,,,,,,,
,,,,,,,,,,,,,,,786,2022-01-18_00h47.30.469,multiplicationStroop,2021.2.3,MacIntel,90.90909091,,,,,,,,,,,,,,,,,,,,,,,,,,,,,,,,,72,2.733,1,0,26,26,3,1,8,×,9,8 × 9,congruent,smallerFirst,1,2,72,,,,,,,,
,,,,,,,,,,,,,,,786,2022-01-18_00h47.30.469,multiplicationStroop,2021.2.3,MacIntel,90.90909091,,,,,,,,,,,,,,,,,,,,,,,,,,,,,,,,,48,2.832,1,0,27,27,4,1,6,×,8,6 × 8,congruent,smallerFirst,1,2,48,,,,,,,,
,,,,,,,,,,,,,,,786,2022-01-18_00h47.30.469,multiplicationStroop,2021.2.3,MacIntel,90.90909091,,,,,,,,,,,,,,,,,,,,,,,,,,,,,,,,,24,6.1,1,0,28,28,24,1,8,×,3,8 × 3,congruent,largerFirst,2,1,24,,,,,,,,
,,,,,,,,,,,,,,,786,2022-01-18_00h47.30.469,multiplicationStroop,2021.2.3,MacIntel,90.90909091,,,,,,,,,,,,,,,,,,,,,,,,,,,,,,,,,18,2.582,1,0,29,29,25,1,6,×,3,6 × 3,congruent,largerFirst,2,1,18,,,,,,,,
,,,,,,,,,,,,,,,786,2022-01-18_00h47.30.469,multiplicationStroop,2021.2.3,MacIntel,90.90909091,,,,,,,,,,,,,,,,,,,,,,,,,,,,,,,,,40,1.899,1,0,30,30,20,1,8,×,5,8 × 5,congruent,largerFirst,2,1,40,,,,,,,,
,,,,,,,,,,,,,,,786,2022-01-18_00h47.30.469,multiplicationStroop,2021.2.3,MacIntel,90.90909091,,,,,,,,,,,,,,,,,,,,,,,,,,,,,,,,,42,3.783,1,0,31,31,17,1,7,×,6,7 × 6,congruent,largerFirst,2,1,42,,,,,,,,
,,,,,,,,,,,,,,,786,2022-01-18_00h47.30.469,multiplicationStroop,2021.2.3,MacIntel,90.90909091,,,,,,,,,,,,,,,,,,,,,,,,,,,,,,,,,45,1.766,1,0,32,32,9,1,5,×,9,5 × 9,congruent,smallerFirst,1,2,45,,,,,,,,
,,,,,,,,,,,,,,,786,2022-01-18_00h47.30.469,multiplicationStroop,2021.2.3,MacIntel,90.90909091,,,,,,,,,,,,,,,,,,,,,,,,,,,,,,,,,21,2.182,1,0,33,33,2,1,3,×,7,3 × 7,congruent,smallerFirst,1,2,21,,,,,,,,
,,,,,,,,,,,,,,,786,2022-01-18_00h47.30.469,multiplicationStroop,2021.2.3,MacIntel,90.90909091,,,,,,,,,,,,,,,,,,,,,,,,,,,,,,,,,35,2.065,1,0,34,34,15,1,7,×,5,7 × 5,congruent,largerFirst,2,1,35,,,,,,,,
,,,,,,,,,,,,,,,786,2022-01-18_00h47.30.469,multiplicationStroop,2021.2.3,MacIntel,90.90909091,,,,,,,,,,,,,,,,,,,,,,,,,,,,,,,,,6,1.732,1,0,35,35,27,1,3,×,2,3 × 2,congruent,largerFirst,2,1,6,,,,,,,,
,,,,,,,,,,,,,,,786,2022-01-18_00h47.30.469,multiplicationStroop,2021.2.3,MacIntel,90.90909091,,,,,,,,,,,,,,,,,,,,,,,,,,,,,,,,,,,,,,,,,,,,,,,,,,0,1,1,3,1,stimulusFile/mult_blk4_congruent.xlsx,,
,,,,,,,,,,,,,,,786,2022-01-18_00h47.30.469,multiplicationStroop,2021.2.3,MacIntel,90.90909091,,,,,,,,,,,,,,,,,,,,,,,,,,,,,,,space,1.213,16,2.638,1,0,0,0,5,1,2,×,8,2 × 8,congruent,smallerFirst,1,2,16,,,,,,,,
,,,,,,,,,,,,,,,786,2022-01-18_00h47.30.469,multiplicationStroop,2021.2.3,MacIntel,90.90909091,,,,,,,,,,,,,,,,,,,,,,,,,,,,,,,,,32,1.965,1,0,1,1,20,1,8,×,4,8 × 4,congruent,largerFirst,2,1,32,,,,,,,,
,,,,,,,,,,,,,,,786,2022-01-18_00h47.30.469,multiplicationStroop,2021.2.3,MacIntel,90.90909091,,,,,,,,,,,,,,,,,,,,,,,,,,,,,,,,,4,1.348,1,0,2,2,28,1,2,×,2,2 × 2,neutral,tie,2,1,4,,,,,,,,
,,,,,,,,,,,,,,,786,2022-01-18_00h47.30.469,multiplicationStroop,2021.2.3,MacIntel,90.90909091,,,,,,,,,,,,,,,,,,,,,,,,,,,,,,,,,81,2.266,1,0,3,3,35,1,9,×,9,9 × 9,neutral,tie,2,1,81,,,,,,,,
,,,,,,,,,,,,,,,786,2022-01-18_00h47.30.469,multiplicationStroop,2021.2.3,MacIntel,90.90909091,,,,,,,,,,,,,,,,,,,,,,,,,,,,,,,,,25,1.949,1,0,4,4,31,1,5,×,5,5 × 5,neutral,tie,2,1,25,,,,,,,,
,,,,,,,,,,,,,,,786,2022-01-18_00h47.30.469,multiplicationStroop,2021.2.3,MacIntel,90.90909091,,,,,,,,,,,,,,,,,,,,,,,,,,,,,,,,,15,1.932,1,0,5,5,4,1,3,×,5,3 × 5,congruent,smallerFirst,1,2,15,,,,,,,,
,,,,,,,,,,,,,,,786,2022-01-18_00h47.30.469,multiplicationStroop,2021.2.3,MacIntel,90.90909091,,,,,,,,,,,,,,,,,,,,,,,,,,,,,,,,,9,1.532,1,0,6,6,29,1,3,×,3,3 × 3,neutral,tie,2,1,9,,,,,,,,
,,,,,,,,,,,,,,,786,2022-01-18_00h47.30.469,multiplicationStroop,2021.2.3,MacIntel,90.90909091,,,,,,,,,,,,,,,,,,,,,,,,,,,,,,,,,12,1.982,1,0,7,7,19,1,6,×,2,6 × 2,congruent,largerFirst,2,1,12,,,,,,,,
,,,,,,,,,,,,,,,786,2022-01-18_00h47.30.469,multiplicationStroop,2021.2.3,MacIntel,90.90909091,,,,,,,,,,,,,,,,,,,,,,,,,,,,,,,,,30,2.633,1,0,8,8,15,1,6,×,5,6 × 5,congruent,largerFirst,2,1,30,,,,,,,,
,,,,,,,,,,,,,,,786,2022-01-18_00h47.30.469,multiplicationStroop,2021.2.3,MacIntel,90.90909091,,,,,,,,,,,,,,,,,,,,,,,,,,,,,,,,,72,3.233,0,0,9,9,12,1,6,×,9,6 × 9,congruent,smallerFirst,1,2,54,,,,,,,,
,,,,,,,,,,,,,,,786,2022-01-18_00h47.30.469,multiplicationStroop,2021.2.3,MacIntel,90.90909091,,,,,,,,,,,,,,,,,,,,,,,,,,,,,,,,,35,7.883,1,0,10,10,1,1,5,×,7,5 × 7,congruent,smallerFirst,1,2,35,,,,,,,,
,,,,,,,,,,,,,,,786,2022-01-18_00h47.30.469,multiplicationStroop,2021.2.3,MacIntel,90.90909091,,,,,,,,,,,,,,,,,,,,,,,,,,,,,,,,,42,2.399,1,0,11,11,3,1,6,×,7,6 × 7,congruent,smallerFirst,1,2,42,,,,,,,,
,,,,,,,,,,,,,,,786,2022-01-18_00h47.30.469,multiplicationStroop,2021.2.3,MacIntel,90.90909091,,,,,,,,,,,,,,,,,,,,,,,,,,,,,,,,,56,2.265,1,0,12,12,8,1,7,×,8,7 × 8,congruent,smallerFirst,1,2,56,,,,,,,,
,,,,,,,,,,,,,,,786,2022-01-18_00h47.30.469,multiplicationStroop,2021.2.3,MacIntel,90.90909091,,,,,,,,,,,,,,,,,,,,,,,,,,,,,,,,,3,4.965,0,0,13,13,0,1,4,×,9,4 × 9,congruent,smallerFirst,1,2,36,,,,,,,,
,,,,,,,,,,,,,,,786,2022-01-18_00h47.30.469,multiplicationStroop,2021.2.3,MacIntel,90.90909091,,,,,,,,,,,,,,,,,,,,,,,,,,,,,,,,,18,6.267,1,0,14,14,11,1,3,×,6,3 × 6,congruent,smallerFirst,1,2,18,,,,,,,,
,,,,,,,,,,,,,,,786,2022-01-18_00h47.30.469,multiplicationStroop,2021.2.3,MacIntel,90.90909091,,,,,,,,,,,,,,,,,,,,,,,,,,,,,,,,,49,1.999,1,0,15,15,33,1,7,×,7,7 × 7,neutral,tie,2,1,49,,,,,,,,
,,,,,,,,,,,,,,,786,2022-01-18_00h47.30.469,multiplicationStroop,2021.2.3,MacIntel,90.90909091,,,,,,,,,,,,,,,,,,,,,,,,,,,,,,,,,6,1.949,1,0,16,16,13,1,2,×,3,2 × 3,congruent,smallerFirst,1,2,6,,,,,,,,
,,,,,,,,,,,,,,,786,2022-01-18_00h47.30.469,multiplicationStroop,2021.2.3,MacIntel,90.90909091,,,,,,,,,,,,,,,,,,,,,,,,,,,,,,,,,64,2.132,1,0,17,17,34,1,8,×,8,8 × 8,neutral,tie,2,1,64,,,,,,,,
,,,,,,,,,,,,,,,786,2022-01-18_00h47.30.469,multiplicationStroop,2021.2.3,MacIntel,90.90909091,,,,,,,,,,,,,,,,,,,,,,,,,,,,,,,,,16,1.947,1,0,18,18,30,1,4,×,4,4 × 4,neutral,tie,2,1,16,,,,,,,,
,,,,,,,,,,,,,,,786,2022-01-18_00h47.30.469,multiplicationStroop,2021.2.3,MacIntel,90.90909091,,,,,,,,,,,,,,,,,,,,,,,,,,,,,,,,,24,2.348,1,0,19,19,25,1,6,×,4,6 × 4,congruent,largerFirst,2,1,24,,,,,,,,
,,,,,,,,,,,,,,,786,2022-01-18_00h47.30.469,multiplicationStroop,2021.2.3,MacIntel,90.90909091,,,,,,,,,,,,,,,,,,,,,,,,,,,,,,,,,63,3.983,1,0,20,20,21,1,9,×,7,9 × 7,congruent,largerFirst,2,1,63,,,,,,,,
,,,,,,,,,,,,,,,786,2022-01-18_00h47.30.469,multiplicationStroop,2021.2.3,MacIntel,90.90909091,,,,,,,,,,,,,,,,,,,,,,,,,,,,,,,,,28,2.183,1,0,21,21,27,1,7,×,4,7 × 4,congruent,largerFirst,2,1,28,,,,,,,,
,,,,,,,,,,,,,,,786,2022-01-18_00h47.30.469,multiplicationStroop,2021.2.3,MacIntel,90.90909091,,,,,,,,,,,,,,,,,,,,,,,,,,,,,,,,,10,1.949,1,0,22,22,24,1,5,×,2,5 × 2,congruent,largerFirst,2,1,10,,,,,,,,
,,,,,,,,,,,,,,,786,2022-01-18_00h47.30.469,multiplicationStroop,2021.2.3,MacIntel,90.90909091,,,,,,,,,,,,,,,,,,,,,,,,,,,,,,,,,48,2.365,1,0,23,23,18,1,8,×,6,8 × 6,congruent,largerFirst,2,1,48,,,,,,,,
,,,,,,,,,,,,,,,786,2022-01-18_00h47.30.469,multiplicationStroop,2021.2.3,MacIntel,90.90909091,,,,,,,,,,,,,,,,,,,,,,,,,,,,,,,,,21,1.948,1,0,24,24,16,1,7,×,3,7 × 3,congruent,largerFirst,2,1,21,,,,,,,,
,,,,,,,,,,,,,,,786,2022-01-18_00h47.30.469,multiplicationStroop,2021.2.3,MacIntel,90.90909091,,,,,,,,,,,,,,,,,,,,,,,,,,,,,,,,,12,1.65,1,0,25,25,2,1,3,×,4,3 × 4,congruent,smallerFirst,1,2,12,,,,,,,,
,,,,,,,,,,,,,,,786,2022-01-18_00h47.30.469,multiplicationStroop,2021.2.3,MacIntel,90.90909091,,,,,,,,,,,,,,,,,,,,,,,,,,,,,,,,,7,2.05,0,0,26,26,17,1,9,×,8,9 × 8,congruent,largerFirst,2,1,72,,,,,,,,
,,,,,,,,,,,,,,,786,2022-01-18_00h47.30.469,multiplicationStroop,2021.2.3,MacIntel,90.90909091,,,,,,,,,,,,,,,,,,,,,,,,,,,,,,,,,18,4.016,1,0,27,27,22,1,9,×,2,9 × 2,congruent,largerFirst,2,1,18,,,,,,,,
,,,,,,,,,,,,,,,786,2022-01-18_00h47.30.469,multiplicationStroop,2021.2.3,MacIntel,90.90909091,,,,,,,,,,,,,,,,,,,,,,,,,,,,,,,,,20,2.048,1,0,28,28,7,1,4,×,5,4 × 5,congruent,smallerFirst,1,2,20,,,,,,,,
,,,,,,,,,,,,,,,786,2022-01-18_00h47.30.469,multiplicationStroop,2021.2.3,MacIntel,90.90909091,,,,,,,,,,,,,,,,,,,,,,,,,,,,,,,,,45,1.767,1,0,29,29,23,1,9,×,5,9 × 5,congruent,largerFirst,2,1,45,,,,,,,,
,,,,,,,,,,,,,,,786,2022-01-18_00h47.30.469,multiplicationStroop,2021.2.3,MacIntel,90.90909091,,,,,,,,,,,,,,,,,,,,,,,,,,,,,,,,,40,4.199,1,0,30,30,6,1,5,×,8,5 × 8,congruent,smallerFirst,1,2,40,,,,,,,,
,,,,,,,,,,,,,,,786,2022-01-18_00h47.30.469,multiplicationStroop,2021.2.3,MacIntel,90.90909091,,,,,,,,,,,,,,,,,,,,,,,,,,,,,,,,,24,14.999,1,0,31,31,10,1,3,×,8,3 × 8,congruent,smallerFirst,1,2,24,,,,,,,,
,,,,,,,,,,,,,,,786,2022-01-18_00h47.30.469,multiplicationStroop,2021.2.3,MacIntel,90.90909091,,,,,,,,,,,,,,,,,,,,,,,,,,,,,,,,,12,1.666,0,0,32,32,32,1,6,×,6,6 × 6,neutral,tie,2,1,36,,,,,,,,
,,,,,,,,,,,,,,,786,2022-01-18_00h47.30.469,multiplicationStroop,2021.2.3,MacIntel,90.90909091,,,,,,,,,,,,,,,,,,,,,,,,,,,,,,,,,8,1.999,1,0,33,33,9,1,2,×,4,2 × 4,congruent,smallerFirst,1,2,8,,,,,,,,
,,,,,,,,,,,,,,,786,2022-01-18_00h47.30.469,multiplicationStroop,2021.2.3,MacIntel,90.90909091,,,,,,,,,,,,,,,,,,,,,,,,,,,,,,,,,27,2.234,1,0,34,34,26,1,9,×,3,9 × 3,congruent,largerFirst,2,1,27,,,,,,,,
,,,,,,,,,,,,,,,786,2022-01-18_00h47.30.469,multiplicationStroop,2021.2.3,MacIntel,90.90909091,,,,,,,,,,,,,,,,,,,,,,,,,,,,,,,,,14,1.882,1,0,35,35,14,1,7,×,2,7 × 2,congruent,largerFirst,2,1,14,,,,,,,,
,,,,,,,,,,,,,,,786,2022-01-18_00h47.30.469,multiplicationStroop,2021.2.3,MacIntel,90.90909091,,,,,,,,,,,,,,,,,,,,,,,,,,,,,,,,,,,,,,,,,,,,,,,,,,0,2,2,2,1,stimulusFile/mult_blk3_congruent.xlsx,,
,,,,,,,,,,,,,,,786,2022-01-18_00h47.30.469,multiplicationStroop,2021.2.3,MacIntel,90.90909091,,,,,,,,,,,,,,,,,,,,,,,,,,,,,,,space,1.029,18,2.417,1,0,0,0,18,1,9,×,2,9 × 2,neutral,largerFirst,1.5,1.5,18,,,,,,,,
,,,,,,,,,,,,,,,786,2022-01-18_00h47.30.469,multiplicationStroop,2021.2.3,MacIntel,90.90909091,,,,,,,,,,,,,,,,,,,,,,,,,,,,,,,,,16,1.9,1,0,1,1,13,1,2,×,8,2 × 8,neutral,smallerFirst,1.5,1.5,16,,,,,,,,
,,,,,,,,,,,,,,,786,2022-01-18_00h47.30.469,multiplicationStroop,2021.2.3,MacIntel,90.90909091,,,,,,,,,,,,,,,,,,,,,,,,,,,,,,,,,72,2.166,1,0,2,2,11,1,8,×,9,8 × 9,neutral,smallerFirst,1.5,1.5,72,,,,,,,,
,,,,,,,,,,,,,,,786,2022-01-18_00h47.30.469,multiplicationStroop,2021.2.3,MacIntel,90.90909091,,,,,,,,,,,,,,,,,,,,,,,,,,,,,,,,,64,2.182,1,0,3,3,34,1,8,×,8,8 × 8,neutral,tie,1.5,1.5,64,,,,,,,,
,,,,,,,,,,,,,,,786,2022-01-18_00h47.30.469,multiplicationStroop,2021.2.3,MacIntel,90.90909091,,,,,,,,,,,,,,,,,,,,,,,,,,,,,,,,,15,2.966,1,0,4,4,5,1,3,×,5,3 × 5,neutral,smallerFirst,1.5,1.5,15,,,,,,,,
,,,,,,,,,,,,,,,786,2022-01-18_00h47.30.469,multiplicationStroop,2021.2.3,MacIntel,90.90909091,,,,,,,,,,,,,,,,,,,,,,,,,,,,,,,,,30,2.115,1,0,5,5,19,1,6,×,5,6 × 5,neutral,largerFirst,1.5,1.5,30,,,,,,,,
,,,,,,,,,,,,,,,786,2022-01-18_00h47.30.469,multiplicationStroop,2021.2.3,MacIntel,90.90909091,,,,,,,,,,,,,,,,,,,,,,,,,,,,,,,,,49,2.034,1,0,6,6,33,1,7,×,7,7 × 7,neutral,tie,1.5,1.5,49,,,,,,,,
,,,,,,,,,,,,,,,786,2022-01-18_00h47.30.469,multiplicationStroop,2021.2.3,MacIntel,90.90909091,,,,,,,,,,,,,,,,,,,,,,,,,,,,,,,,,81,2.249,1,0,7,7,35,1,9,×,9,9 × 9,neutral,tie,1.5,1.5,81,,,,,,,,
,,,,,,,,,,,,,,,786,2022-01-18_00h47.30.469,multiplicationStroop,2021.2.3,MacIntel,90.90909091,,,,,,,,,,,,,,,,,,,,,,,,,,,,,,,,,45,2.099,1,0,8,8,10,1,5,×,9,5 × 9,neutral,smallerFirst,1.5,1.5,45,,,,,,,,
,,,,,,,,,,,,,,,786,2022-01-18_00h47.30.469,multiplicationStroop,2021.2.3,MacIntel,90.90909091,,,,,,,,,,,,,,,,,,,,,,,,,,,,,,,,,56,2.349,0,0,9,9,6,1,6,×,7,6 × 7,neutral,smallerFirst,1.5,1.5,42,,,,,,,,
,,,,,,,,,,,,,,,786,2022-01-18_00h47.30.469,multiplicationStroop,2021.2.3,MacIntel,90.90909091,,,,,,,,,,,,,,,,,,,,,,,,,,,,,,,,,63,3.734,1,0,10,10,12,1,7,×,9,7 × 9,neutral,smallerFirst,1.5,1.5,63,,,,,,,,
,,,,,,,,,,,,,,,786,2022-01-18_00h47.30.469,multiplicationStroop,2021.2.3,MacIntel,90.90909091,,,,,,,,,,,,,,,,,,,,,,,,,,,,,,,,,4,1.482,1,0,11,11,28,1,2,×,2,2 × 2,neutral,tie,1.5,1.5,4,,,,,,,,
,,,,,,,,,,,,,,,786,2022-01-18_00h47.30.469,multiplicationStroop,2021.2.3,MacIntel,90.90909091,,,,,,,,,,,,,,,,,,,,,,,,,,,,,,,,,20,2.065,1,0,12,12,20,1,5,×,4,5 × 4,neutral,largerFirst,1.5,1.5,20,,,,,,,,
,,,,,,,,,,,,,,,786,2022-01-18_00h47.30.469,multiplicationStroop,2021.2.3,MacIntel,90.90909091,,,,,,,,,,,,,,,,,,,,,,,,,,,,,,,,,48,2.433,1,0,13,13,15,1,8,×,6,8 × 6,neutral,largerFirst,1.5,1.5,48,,,,,,,,
,,,,,,,,,,,,,,,786,2022-01-18_00h47.30.469,multiplicationStroop,2021.2.3,MacIntel,90.90909091,,,,,,,,,,,,,,,,,,,,,,,,,,,,,,,,,18,2.249,0,0,14,14,25,1,6,×,2,6 × 2,neutral,largerFirst,1.5,1.5,12,,,,,,,,
,,,,,,,,,,,,,,,786,2022-01-18_00h47.30.469,multiplicationStroop,2021.2.3,MacIntel,90.90909091,,,,,,,,,,,,,,,,,,,,,,,,,,,,,,,,,6,1.916,1,0,15,15,26,1,3,×,2,3 × 2,neutral,largerFirst,1.5,1.5,6,,,,,,,,
,,,,,,,,,,,,,,,786,2022-01-18_00h47.30.469,multiplicationStroop,2021.2.3,MacIntel,90.90909091,,,,,,,,,,,,,,,,,,,,,,,,,,,,,,,,,28,2.432,1,0,16,16,17,1,7,×,4,7 × 4,neutral,largerFirst,1.5,1.5,28,,,,,,,,
,,,,,,,,,,,,,,,786,2022-01-18_00h47.30.469,multiplicationStroop,2021.2.3,MacIntel,90.90909091,,,,,,,,,,,,,,,,,,,,,,,,,,,,,,,,,21,1.899,1,0,17,17,8,1,3,×,7,3 × 7,neutral,smallerFirst,1.5,1.5,21,,,,,,,,
,,,,,,,,,,,,,,,786,2022-01-18_00h47.30.469,multiplicationStroop,2021.2.3,MacIntel,90.90909091,,,,,,,,,,,,,,,,,,,,,,,,,,,,,,,,,40,2.132,1,0,18,18,24,1,8,×,5,8 × 5,neutral,largerFirst,1.5,1.5,40,,,,,,,,
,,,,,,,,,,,,,,,786,2022-01-18_00h47.30.469,multiplicationStroop,2021.2.3,MacIntel,90.90909091,,,,,,,,,,,,,,,,,,,,,,,,,,,,,,,,,9,1.65,1,0,19,19,29,1,3,×,3,3 × 3,neutral,tie,1.5,1.5,9,,,,,,,,
,,,,,,,,,,,,,,,786,2022-01-18_00h47.30.469,multiplicationStroop,2021.2.3,MacIntel,90.90909091,,,,,,,,,,,,,,,,,,,,,,,,,,,,,,,,,36,2.732,1,0,20,20,32,1,6,×,6,6 × 6,neutral,tie,1.5,1.5,36,,,,,,,,
,,,,,,,,,,,,,,,786,2022-01-18_00h47.30.469,multiplicationStroop,2021.2.3,MacIntel,90.90909091,,,,,,,,,,,,,,,,,,,,,,,,,,,,,,,,,18,2.183,1,0,21,21,0,1,3,×,6,3 × 6,neutral,smallerFirst,1.5,1.5,18,,,,,,,,
,,,,,,,,,,,,,,,786,2022-01-18_00h47.30.469,multiplicationStroop,2021.2.3,MacIntel,90.90909091,,,,,,,,,,,,,,,,,,,,,,,,,,,,,,,,,36,2.549,1,0,22,22,27,1,9,×,4,9 × 4,neutral,largerFirst,1.5,1.5,36,,,,,,,,
,,,,,,,,,,,,,,,786,2022-01-18_00h47.30.469,multiplicationStroop,2021.2.3,MacIntel,90.90909091,,,,,,,,,,,,,,,,,,,,,,,,,,,,,,,,,10,1.849,1,0,23,23,4,1,2,×,5,2 × 5,neutral,smallerFirst,1.5,1.5,10,,,,,,,,
,,,,,,,,,,,,,,,786,2022-01-18_00h47.30.469,multiplicationStroop,2021.2.3,MacIntel,90.90909091,,,,,,,,,,,,,,,,,,,,,,,,,,,,,,,,,35,2.016,1,0,24,24,1,1,5,×,7,5 × 7,neutral,smallerFirst,1.5,1.5,35,,,,,,,,
,,,,,,,,,,,,,,,786,2022-01-18_00h47.30.469,multiplicationStroop,2021.2.3,MacIntel,90.90909091,,,,,,,,,,,,,,,,,,,,,,,,,,,,,,,,,54,2.149,1,0,25,25,7,1,6,×,9,6 × 9,neutral,smallerFirst,1.5,1.5,54,,,,,,,,
,,,,,,,,,,,,,,,786,2022-01-18_00h47.30.469,multiplicationStroop,2021.2.3,MacIntel,90.90909091,,,,,,,,,,,,,,,,,,,,,,,,,,,,,,,,,8,1.865,1,0,26,26,3,1,2,×,4,2 × 4,neutral,smallerFirst,1.5,1.5,8,,,,,,,,
,,,,,,,,,,,,,,,786,2022-01-18_00h47.30.469,multiplicationStroop,2021.2.3,MacIntel,90.90909091,,,,,,,,,,,,,,,,,,,,,,,,,,,,,,,,,18,2.132,0,0,27,27,14,1,9,×,3,9 × 3,neutral,largerFirst,1.5,1.5,27,,,,,,,,
,,,,,,,,,,,,,,,786,2022-01-18_00h47.30.469,multiplicationStroop,2021.2.3,MacIntel,90.90909091,,,,,,,,,,,,,,,,,,,,,,,,,,,,,,,,,56,2.3,1,0,28,28,9,1,7,×,8,7 × 8,neutral,smallerFirst,1.5,1.5,56,,,,,,,,
,,,,,,,,,,,,,,,786,2022-01-18_00h47.30.469,multiplicationStroop,2021.2.3,MacIntel,90.90909091,,,,,,,,,,,,,,,,,,,,,,,,,,,,,,,,,32,3.865,1,0,29,29,23,1,8,×,4,8 × 4,neutral,largerFirst,1.5,1.5,32,,,,,,,,
,,,,,,,,,,,,,,,786,2022-01-18_00h47.30.469,multiplicationStroop,2021.2.3,MacIntel,90.90909091,,,,,,,,,,,,,,,,,,,,,,,,,,,,,,,,,16,3.4,1,0,30,30,30,1,4,×,4,4 × 4,neutral,tie,1.5,1.5,16,,,,,,,,
,,,,,,,,,,,,,,,786,2022-01-18_00h47.30.469,multiplicationStroop,2021.2.3,MacIntel,90.90909091,,,,,,,,,,,,,,,,,,,,,,,,,,,,,,,,,24,4.366,1,0,31,31,2,1,4,×,6,4 × 6,neutral,smallerFirst,1.5,1.5,24,,,,,,,,
,,,,,,,,,,,,,,,786,2022-01-18_00h47.30.469,multiplicationStroop,2021.2.3,MacIntel,90.90909091,,,,,,,,,,,,,,,,,,,,,,,,,,,,,,,,,18,1.999,0,0,32,32,16,1,7,×,2,7 × 2,neutral,largerFirst,1.5,1.5,14,,,,,,,,
,,,,,,,,,,,,,,,786,2022-01-18_00h47.30.469,multiplicationStroop,2021.2.3,MacIntel,90.90909091,,,,,,,,,,,,,,,,,,,,,,,,,,,,,,,,,25,2.382,1,0,33,33,31,1,5,×,5,5 × 5,neutral,tie,1.5,1.5,25,,,,,,,,
,,,,,,,,,,,,,,,786,2022-01-18_00h47.30.469,multiplicationStroop,2021.2.3,MacIntel,90.90909091,,,,,,,,,,,,,,,,,,,,,,,,,,,,,,,,,12,1.549,1,0,34,34,21,1,4,×,3,4 × 3,neutral,largerFirst,1.5,1.5,12,,,,,,,,
,,,,,,,,,,,,,,,786,2022-01-18_00h47.30.469,multiplicationStroop,2021.2.3,MacIntel,90.90909091,,,,,,,,,,,,,,,,,,,,,,,,,,,,,,,,,24,1.765,1,0,35,35,22,1,8,×,3,8 × 3,neutral,largerFirst,1.5,1.5,24,,,,,,,,
,,,,,,,,,,,,,,,786,2022-01-18_00h47.30.469,multiplicationStroop,2021.2.3,MacIntel,90.90909091,,,,,,,,,,,,,,,,,,,,,,,,,,,,,,,,,,,,,,,,,,,,,,,,,,0,3,3,1,1,stimulusFile/mult_blk2.xlsx,,
,,,,,,,,,,,,,,,786,2022-01-18_00h47.30.469,multiplicationStroop,2021.2.3,MacIntel,90.90909091,,,,,,,,,,,,,,,,,,,,,,,,,,,,,,,space,1.129,18,2.218,0,0,0,0,18,1,9,×,3,9 × 3,incongruent,largerFirst,1,2,27,,,,,,,,
,,,,,,,,,,,,,,,786,2022-01-18_00h47.30.469,multiplicationStroop,2021.2.3,MacIntel,90.90909091,,,,,,,,,,,,,,,,,,,,,,,,,,,,,,,,,10,2.482,1,0,1,1,21,1,5,×,2,5 × 2,incongruent,largerFirst,1,2,10,,,,,,,,
,,,,,,,,,,,,,,,786,2022-01-18_00h47.30.469,multiplicationStroop,2021.2.3,MacIntel,90.90909091,,,,,,,,,,,,,,,,,,,,,,,,,,,,,,,,,56,2.915,1,0,2,2,14,1,8,×,7,8 × 7,incongruent,largerFirst,1,2,56,,,,,,,,
,,,,,,,,,,,,,,,786,2022-01-18_00h47.30.469,multiplicationStroop,2021.2.3,MacIntel,90.90909091,,,,,,,,,,,,,,,,,,,,,,,,,,,,,,,,,8,1.75,1,0,3,3,24,1,4,×,2,4 × 2,incongruent,largerFirst,1,2,8,,,,,,,,
,,,,,,,,,,,,,,,786,2022-01-18_00h47.30.469,multiplicationStroop,2021.2.3,MacIntel,90.90909091,,,,,,,,,,,,,,,,,,,,,,,,,,,,,,,,,28,1.916,1,0,4,4,16,1,7,×,4,7 × 4,incongruent,largerFirst,1,2,28,,,,,,,,
,,,,,,,,,,,,,,,786,2022-01-18_00h47.30.469,multiplicationStroop,2021.2.3,MacIntel,90.90909091,,,,,,,,,,,,,,,,,,,,,,,,,,,,,,,,,4,1.565,1,0,5,5,28,1,2,×,2,2 × 2,incongruent,tie,1,2,4,,,,,,,,
,,,,,,,,,,,,,,,786,2022-01-18_00h47.30.469,multiplicationStroop,2021.2.3,MacIntel,90.90909091,,,,,,,,,,,,,,,,,,,,,,,,,,,,,,,,,45,1.683,1,0,6,6,22,1,9,×,5,9 × 5,incongruent,largerFirst,1,2,45,,,,,,,,
,,,,,,,,,,,,,,,786,2022-01-18_00h47.30.469,multiplicationStroop,2021.2.3,MacIntel,90.90909091,,,,,,,,,,,,,,,,,,,,,,,,,,,,,,,,,40,1.965,1,0,7,7,13,1,5,×,8,5 × 8,incongruent,smallerFirst,2,1,40,,,,,,,,
,,,,,,,,,,,,,,,786,2022-01-18_00h47.30.469,multiplicationStroop,2021.2.3,MacIntel,90.90909091,,,,,,,,,,,,,,,,,,,,,,,,,,,,,,,,,81,2.181,1,0,8,8,35,1,9,×,9,9 × 9,incongruent,tie,1,2,81,,,,,,,,
,,,,,,,,,,,,,,,786,2022-01-18_00h47.30.469,multiplicationStroop,2021.2.3,MacIntel,90.90909091,,,,,,,,,,,,,,,,,,,,,,,,,,,,,,,,,12,1.701,1,0,9,9,5,1,3,×,4,3 × 4,incongruent,smallerFirst,2,1,12,,,,,,,,
,,,,,,,,,,,,,,,786,2022-01-18_00h47.30.469,multiplicationStroop,2021.2.3,MacIntel,90.90909091,,,,,,,,,,,,,,,,,,,,,,,,,,,,,,,,,64,2.265,1,0,10,10,34,1,8,×,8,8 × 8,incongruent,tie,1,2,64,,,,,,,,
,,,,,,,,,,,,,,,786,2022-01-18_00h47.30.469,multiplicationStroop,2021.2.3,MacIntel,90.90909091,,,,,,,,,,,,,,,,,,,,,,,,,,,,,,,,,21,4.165,0,0,11,11,9,1,3,×,8,3 × 8,incongruent,smallerFirst,2,1,24,,,,,,,,
,,,,,,,,,,,,,,,786,2022-01-18_00h47.30.469,multiplicationStroop,2021.2.3,MacIntel,90.90909091,,,,,,,,,,,,,,,,,,,,,,,,,,,,,,,,,15,2.534,1,0,12,12,10,1,3,×,5,3 × 5,incongruent,smallerFirst,2,1,15,,,,,,,,
,,,,,,,,,,,,,,,786,2022-01-18_00h47.30.469,multiplicationStroop,2021.2.3,MacIntel,90.90909091,,,,,,,,,,,,,,,,,,,,,,,,,,,,,,,,,24,1.565,1,0,13,13,20,1,6,×,4,6 × 4,incongruent,largerFirst,1,2,24,,,,,,,,
,,,,,,,,,,,,,,,786,2022-01-18_00h47.30.469,multiplicationStroop,2021.2.3,MacIntel,90.90909091,,,,,,,,,,,,,,,,,,,,,,,,,,,,,,,,,9,1.816,1,0,14,14,29,1,3,×,3,3 × 3,incongruent,tie,1,2,9,,,,,,,,
,,,,,,,,,,,,,,,786,2022-01-18_00h47.30.469,multiplicationStroop,2021.2.3,MacIntel,90.90909091,,,,,,,,,,,,,,,,,,,,,,,,,,,,,,,,,12,2.099,1,0,15,15,19,1,6,×,2,6 × 2,incongruent,largerFirst,1,2,12,,,,,,,,
,,,,,,,,,,,,,,,786,2022-01-18_00h47.30.469,multiplicationStroop,2021.2.3,MacIntel,90.90909091,,,,,,,,,,,,,,,,,,,,,,,,,,,,,,,,,35,2.098,1,0,16,16,12,1,5,×,7,5 × 7,incongruent,smallerFirst,2,1,35,,,,,,,,
,,,,,,,,,,,,,,,786,2022-01-18_00h47.30.469,multiplicationStroop,2021.2.3,MacIntel,90.90909091,,,,,,,,,,,,,,,,,,,,,,,,,,,,,,,,,42,2.534,1,0,17,17,17,1,7,×,6,7 × 6,incongruent,largerFirst,1,2,42,,,,,,,,
,,,,,,,,,,,,,,,786,2022-01-18_00h47.30.469,multiplicationStroop,2021.2.3,MacIntel,90.90909091,,,,,,,,,,,,,,,,,,,,,,,,,,,,,,,,,48,2.165,1,0,18,18,1,1,6,×,8,6 × 8,incongruent,smallerFirst,2,1,48,,,,,,,,
,,,,,,,,,,,,,,,786,2022-01-18_00h47.30.469,multiplicationStroop,2021.2.3,MacIntel,90.90909091,,,,,,,,,,,,,,,,,,,,,,,,,,,,,,,,,16,1.783,1,0,19,19,30,1,4,×,4,4 × 4,incongruent,tie,1,2,16,,,,,,,,
,,,,,,,,,,,,,,,786,2022-01-18_00h47.30.469,multiplicationStroop,2021.2.3,MacIntel,90.90909091,,,,,,,,,,,,,,,,,,,,,,,,,,,,,,,,,36,1.816,1,0,20,20,32,1,6,×,6,6 × 6,incongruent,tie,1,2,36,,,,,,,,
,,,,,,,,,,,,,,,786,2022-01-18_00h47.30.469,multiplicationStroop,2021.2.3,MacIntel,90.90909091,,,,,,,,,,,,,,,,,,,,,,,,,,,,,,,,,25,1.815,1,0,21,21,31,1,5,×,5,5 × 5,incongruent,tie,1,2,25,,,,,,,,
,,,,,,,,,,,,,,,786,2022-01-18_00h47.30.469,multiplicationStroop,2021.2.3,MacIntel,90.90909091,,,,,,,,,,,,,,,,,,,,,,,,,,,,,,,,,72,2.099,1,0,22,22,0,1,8,×,9,8 × 9,incongruent,smallerFirst,2,1,72,,,,,,,,
,,,,,,,,,,,,,,,786,2022-01-18_00h47.30.469,multiplicationStroop,2021.2.3,MacIntel,90.90909091,,,,,,,,,,,,,,,,,,,,,,,,,,,,,,,,,21,1.65,1,0,23,23,26,1,7,×,3,7 × 3,incongruent,largerFirst,1,2,21,,,,,,,,
,,,,,,,,,,,,,,,786,2022-01-18_00h47.30.469,multiplicationStroop,2021.2.3,MacIntel,90.90909091,,,,,,,,,,,,,,,,,,,,,,,,,,,,,,,,,32,2.899,1,0,24,24,7,1,4,×,8,4 × 8,incongruent,smallerFirst,2,1,32,,,,,,,,
,,,,,,,,,,,,,,,786,2022-01-18_00h47.30.469,multiplicationStroop,2021.2.3,MacIntel,90.90909091,,,,,,,,,,,,,,,,,,,,,,,,,,,,,,,,,54,3.233,1,0,25,25,6,1,6,×,9,6 × 9,incongruent,smallerFirst,2,1,54,,,,,,,,
,,,,,,,,,,,,,,,786,2022-01-18_00h47.30.469,multiplicationStroop,2021.2.3,MacIntel,90.90909091,,,,,,,,,,,,,,,,,,,,,,,,,,,,,,,,,16,2.032,1,0,26,26,23,1,8,×,2,8 × 2,incongruent,largerFirst,1,2,16,,,,,,,,
,,,,,,,,,,,,,,,786,2022-01-18_00h47.30.469,multiplicationStroop,2021.2.3,MacIntel,90.90909091,,,,,,,,,,,,,,,,,,,,,,,,,,,,,,,,,18,1.829,1,0,27,27,2,1,2,×,9,2 × 9,incongruent,smallerFirst,2,1,18,,,,,,,,
,,,,,,,,,,,,,,,786,2022-01-18_00h47.30.469,multiplicationStroop,2021.2.3,MacIntel,90.90909091,,,,,,,,,,,,,,,,,,,,,,,,,,,,,,,,,36,2.349,1,0,28,28,15,1,9,×,4,9 × 4,incongruent,largerFirst,1,2,36,,,,,,,,
,,,,,,,,,,,,,,,786,2022-01-18_00h47.30.469,multiplicationStroop,2021.2.3,MacIntel,90.90909091,,,,,,,,,,,,,,,,,,,,,,,,,,,,,,,,,50,3.415,0,0,29,29,25,1,6,×,5,6 × 5,incongruent,largerFirst,1,2,30,,,,,,,,
,,,,,,,,,,,,,,,786,2022-01-18_00h47.30.469,multiplicationStroop,2021.2.3,MacIntel,90.90909091,,,,,,,,,,,,,,,,,,,,,,,,,,,,,,,,,18,2.582,1,0,30,30,8,1,3,×,6,3 × 6,incongruent,smallerFirst,2,1,18,,,,,,,,
,,,,,,,,,,,,,,,786,2022-01-18_00h47.30.469,multiplicationStroop,2021.2.3,MacIntel,90.90909091,,,,,,,,,,,,,,,,,,,,,,,,,,,,,,,,,6,1.682,1,0,31,31,11,1,2,×,3,2 × 3,incongruent,smallerFirst,2,1,6,,,,,,,,
,,,,,,,,,,,,,,,786,2022-01-18_00h47.30.469,multiplicationStroop,2021.2.3,MacIntel,90.90909091,,,,,,,,,,,,,,,,,,,,,,,,,,,,,,,,,49,2.366,1,0,32,32,33,1,7,×,7,7 × 7,incongruent,tie,1,2,49,,,,,,,,
,,,,,,,,,,,,,,,786,2022-01-18_00h47.30.469,multiplicationStroop,2021.2.3,MacIntel,90.90909091,,,,,,,,,,,,,,,,,,,,,,,,,,,,,,,,,14,1.815,1,0,33,33,4,1,2,×,7,2 × 7,incongruent,smallerFirst,2,1,14,,,,,,,,
,,,,,,,,,,,,,,,786,2022-01-18_00h47.30.469,multiplicationStroop,2021.2.3,MacIntel,90.90909091,,,,,,,,,,,,,,,,,,,,,,,,,,,,,,,,,20,3.932,1,0,34,34,27,1,5,×,4,5 × 4,incongruent,largerFirst,1,2,20,,,,,,,,
,,,,,,,,,,,,,,,786,2022-01-18_00h47.30.469,multiplicationStroop,2021.2.3,MacIntel,90.90909091,,,,,,,,,,,,,,,,,,,,,,,,,,,,,,,,,63,2.966,1,0,35,35,3,1,7,×,9,7 × 9,incongruent,smallerFirst,2,1,63,,,,,,,,
,,,,,,,,,,,,,,,786,2022-01-18_00h47.30.469,multiplicationStroop,2021.2.3,MacIntel,90.90909091,,,,,,,,,,,,,,,,,,,,,,,,,,,,,,,,,,,,,,,,,,,,,,,,,,0,4,4,5,1,stimulusFile/mult_blk6_INcongruent.xlsx,,
,,,,,,,,,,,,,,,786,2022-01-18_00h47.30.469,multiplicationStroop,2021.2.3,MacIntel,90.90909091,,,,,,,,,,,,,,,,,,,,,,,,,,,,,,,space,1.064,54,2.304,1,0,0,0,21,1,9,×,6,9 × 6,neutral,largerFirst,1.5,1.5,54,,,,,,,,
,,,,,,,,,,,,,,,786,2022-01-18_00h47.30.469,multiplicationStroop,2021.2.3,MacIntel,90.90909091,,,,,,,,,,,,,,,,,,,,,,,,,,,,,,,,,9,1.618,1,0,1,1,29,1,3,×,3,3 × 3,neutral,tie,1.5,1.5,9,,,,,,,,
,,,,,,,,,,,,,,,786,2022-01-18_00h47.30.469,multiplicationStroop,2021.2.3,MacIntel,90.90909091,,,,,,,,,,,,,,,,,,,,,,,,,,,,,,,,,10,1.732,1,0,2,2,18,1,5,×,2,5 × 2,neutral,largerFirst,1.5,1.5,10,,,,,,,,
,,,,,,,,,,,,,,,786,2022-01-18_00h47.30.469,multiplicationStroop,2021.2.3,MacIntel,90.90909091,,,,,,,,,,,,,,,,,,,,,,,,,,,,,,,,,16,1.582,1,0,3,3,27,1,8,×,2,8 × 2,neutral,largerFirst,1.5,1.5,16,,,,,,,,
,,,,,,,,,,,,,,,786,2022-01-18_00h47.30.469,multiplicationStroop,2021.2.3,MacIntel,90.90909091,,,,,,,,,,,,,,,,,,,,,,,,,,,,,,,,,36,2.632,1,0,4,4,13,1,4,×,9,4 × 9,neutral,smallerFirst,1.5,1.5,36,,,,,,,,
,,,,,,,,,,,,,,,786,2022-01-18_00h47.30.469,multiplicationStroop,2021.2.3,MacIntel,90.90909091,,,,,,,,,,,,,,,,,,,,,,,,,,,,,,,,,18,2.549,0,0,5,5,0,1,3,×,9,3 × 9,neutral,smallerFirst,1.5,1.5,27,,,,,,,,
,,,,,,,,,,,,,,,786,2022-01-18_00h47.30.469,multiplicationStroop,2021.2.3,MacIntel,90.90909091,,,,,,,,,,,,,,,,,,,,,,,,,,,,,,,,,25,2.166,1,0,6,6,31,1,5,×,5,5 × 5,neutral,tie,1.5,1.5,25,,,,,,,,
,,,,,,,,,,,,,,,786,2022-01-18_00h47.30.469,multiplicationStroop,2021.2.3,MacIntel,90.90909091,,,,,,,,,,,,,,,,,,,,,,,,,,,,,,,,,42,4.581,0,0,7,7,1,1,6,×,8,6 × 8,neutral,smallerFirst,1.5,1.5,48,,,,,,,,
,,,,,,,,,,,,,,,786,2022-01-18_00h47.30.469,multiplicationStroop,2021.2.3,MacIntel,90.90909091,,,,,,,,,,,,,,,,,,,,,,,,,,,,,,,,,40,3.434,1,0,8,8,10,1,5,×,8,5 × 8,neutral,smallerFirst,1.5,1.5,40,,,,,,,,
,,,,,,,,,,,,,,,786,2022-01-18_00h47.30.469,multiplicationStroop,2021.2.3,MacIntel,90.90909091,,,,,,,,,,,,,,,,,,,,,,,,,,,,,,,,,64,2.949,1,0,9,9,34,1,8,×,8,8 × 8,neutral,tie,1.5,1.5,64,,,,,,,,
,,,,,,,,,,,,,,,786,2022-01-18_00h47.30.469,multiplicationStroop,2021.2.3,MacIntel,90.90909091,,,,,,,,,,,,,,,,,,,,,,,,,,,,,,,,,30,2.331,1,0,10,10,5,1,5,×,6,5 × 6,neutral,smallerFirst,1.5,1.5,30,,,,,,,,
,,,,,,,,,,,,,,,786,2022-01-18_00h47.30.469,multiplicationStroop,2021.2.3,MacIntel,90.90909091,,,,,,,,,,,,,,,,,,,,,,,,,,,,,,,,,72,2.234,1,0,11,11,25,1,9,×,8,9 × 8,neutral,largerFirst,1.5,1.5,72,,,,,,,,
,,,,,,,,,,,,,,,786,2022-01-18_00h47.30.469,multiplicationStroop,2021.2.3,MacIntel,90.90909091,,,,,,,,,,,,,,,,,,,,,,,,,,,,,,,,,49,2.233,1,0,12,12,33,1,7,×,7,7 × 7,neutral,tie,1.5,1.5,49,,,,,,,,
,,,,,,,,,,,,,,,786,2022-01-18_00h47.30.469,multiplicationStroop,2021.2.3,MacIntel,90.90909091,,,,,,,,,,,,,,,,,,,,,,,,,,,,,,,,,15,1.749,1,0,13,13,19,1,5,×,3,5 × 3,neutral,largerFirst,1.5,1.5,15,,,,,,,,
,,,,,,,,,,,,,,,786,2022-01-18_00h47.30.469,multiplicationStroop,2021.2.3,MacIntel,90.90909091,,,,,,,,,,,,,,,,,,,,,,,,,,,,,,,,,8,2.017,1,0,14,14,17,1,4,×,2,4 × 2,neutral,largerFirst,1.5,1.5,8,,,,,,,,
,,,,,,,,,,,,,,,786,2022-01-18_00h47.30.469,multiplicationStroop,2021.2.3,MacIntel,90.90909091,,,,,,,,,,,,,,,,,,,,,,,,,,,,,,,,,18,1.749,1,0,15,15,4,1,2,×,9,2 × 9,neutral,smallerFirst,1.5,1.5,18,,,,,,,,
,,,,,,,,,,,,,,,786,2022-01-18_00h47.30.469,multiplicationStroop,2021.2.3,MacIntel,90.90909091,,,,,,,,,,,,,,,,,,,,,,,,,,,,,,,,,4,1.432,1,0,16,16,28,1,2,×,2,2 × 2,neutral,tie,1.5,1.5,4,,,,,,,,
,,,,,,,,,,,,,,,786,2022-01-18_00h47.30.469,multiplicationStroop,2021.2.3,MacIntel,90.90909091,,,,,,,,,,,,,,,,,,,,,,,,,,,,,,,,,21,1.933,1,0,17,17,22,1,7,×,3,7 × 3,neutral,largerFirst,1.5,1.5,21,,,,,,,,
,,,,,,,,,,,,,,,786,2022-01-18_00h47.30.469,multiplicationStroop,2021.2.3,MacIntel,90.90909091,,,,,,,,,,,,,,,,,,,,,,,,,,,,,,,,,24,7.898,1,0,18,18,8,1,3,×,8,3 × 8,neutral,smallerFirst,1.5,1.5,24,,,,,,,,
,,,,,,,,,,,,,,,786,2022-01-18_00h47.30.469,multiplicationStroop,2021.2.3,MacIntel,90.90909091,,,,,,,,,,,,,,,,,,,,,,,,,,,,,,,,,45,4.347,1,0,19,19,24,1,9,×,5,9 × 5,neutral,largerFirst,1.5,1.5,45,,,,,,,,
,,,,,,,,,,,,,,,786,2022-01-18_00h47.30.469,multiplicationStroop,2021.2.3,MacIntel,90.90909091,,,,,,,,,,,,,,,,,,,,,,,,,,,,,,,,,32,8.467,1,0,20,20,9,1,4,×,8,4 × 8,neutral,smallerFirst,1.5,1.5,32,,,,,,,,
,,,,,,,,,,,,,,,786,2022-01-18_00h47.30.469,multiplicationStroop,2021.2.3,MacIntel,90.90909091,,,,,,,,,,,,,,,,,,,,,,,,,,,,,,,,,12,1.682,1,0,21,21,7,1,3,×,4,3 × 4,neutral,smallerFirst,1.5,1.5,12,,,,,,,,
,,,,,,,,,,,,,,,786,2022-01-18_00h47.30.469,multiplicationStroop,2021.2.3,MacIntel,90.90909091,,,,,,,,,,,,,,,,,,,,,,,,,,,,,,,,,36,2.099,1,0,22,22,32,1,6,×,6,6 × 6,neutral,tie,1.5,1.5,36,,,,,,,,
,,,,,,,,,,,,,,,786,2022-01-18_00h47.30.469,multiplicationStroop,2021.2.3,MacIntel,90.90909091,,,,,,,,,,,,,,,,,,,,,,,,,,,,,,,,,20,1.766,1,0,23,23,6,1,4,×,5,4 × 5,neutral,smallerFirst,1.5,1.5,20,,,,,,,,
,,,,,,,,,,,,,,,786,2022-01-18_00h47.30.469,multiplicationStroop,2021.2.3,MacIntel,90.90909091,,,,,,,,,,,,,,,,,,,,,,,,,,,,,,,,,18,1.749,1,0,24,24,14,1,6,×,3,6 × 3,neutral,largerFirst,1.5,1.5,18,,,,,,,,
,,,,,,,,,,,,,,,786,2022-01-18_00h47.30.469,multiplicationStroop,2021.2.3,MacIntel,90.90909091,,,,,,,,,,,,,,,,,,,,,,,,,,,,,,,,,24,1.766,1,0,25,25,16,1,6,×,4,6 × 4,neutral,largerFirst,1.5,1.5,24,,,,,,,,
,,,,,,,,,,,,,,,786,2022-01-18_00h47.30.469,multiplicationStroop,2021.2.3,MacIntel,90.90909091,,,,,,,,,,,,,,,,,,,,,,,,,,,,,,,,,63,6.648,1,0,26,26,26,1,9,×,7,9 × 7,neutral,largerFirst,1.5,1.5,63,,,,,,,,
,,,,,,,,,,,,,,,786,2022-01-18_00h47.30.469,multiplicationStroop,2021.2.3,MacIntel,90.90909091,,,,,,,,,,,,,,,,,,,,,,,,,,,,,,,,,56,3.45,1,0,27,27,23,1,8,×,7,8 × 7,neutral,largerFirst,1.5,1.5,56,,,,,,,,
,,,,,,,,,,,,,,,786,2022-01-18_00h47.30.469,multiplicationStroop,2021.2.3,MacIntel,90.90909091,,,,,,,,,,,,,,,,,,,,,,,,,,,,,,,,,35,2.349,1,0,28,28,15,1,7,×,5,7 × 5,neutral,largerFirst,1.5,1.5,35,,,,,,,,
,,,,,,,,,,,,,,,786,2022-01-18_00h47.30.469,multiplicationStroop,2021.2.3,MacIntel,90.90909091,,,,,,,,,,,,,,,,,,,,,,,,,,,,,,,,,42,2.482,1,0,29,29,20,1,7,×,6,7 × 6,neutral,largerFirst,1.5,1.5,42,,,,,,,,
,,,,,,,,,,,,,,,786,2022-01-18_00h47.30.469,multiplicationStroop,2021.2.3,MacIntel,90.90909091,,,,,,,,,,,,,,,,,,,,,,,,,,,,,,,,,81,2.049,1,0,30,30,35,1,9,×,9,9 × 9,neutral,tie,1.5,1.5,81,,,,,,,,
,,,,,,,,,,,,,,,786,2022-01-18_00h47.30.469,multiplicationStroop,2021.2.3,MacIntel,90.90909091,,,,,,,,,,,,,,,,,,,,,,,,,,,,,,,,,6,1.798,1,0,31,31,12,1,2,×,3,2 × 3,neutral,smallerFirst,1.5,1.5,6,,,,,,,,
,,,,,,,,,,,,,,,786,2022-01-18_00h47.30.469,multiplicationStroop,2021.2.3,MacIntel,90.90909091,,,,,,,,,,,,,,,,,,,,,,,,,,,,,,,,,16,1.767,1,0,32,32,30,1,4,×,4,4 × 4,neutral,tie,1.5,1.5,16,,,,,,,,
,,,,,,,,,,,,,,,786,2022-01-18_00h47.30.469,multiplicationStroop,2021.2.3,MacIntel,90.90909091,,,,,,,,,,,,,,,,,,,,,,,,,,,,,,,,,14,2.699,1,0,33,33,2,1,2,×,7,2 × 7,neutral,smallerFirst,1.5,1.5,14,,,,,,,,
,,,,,,,,,,,,,,,786,2022-01-18_00h47.30.469,multiplicationStroop,2021.2.3,MacIntel,90.90909091,,,,,,,,,,,,,,,,,,,,,,,,,,,,,,,,,12,1.482,1,0,34,34,11,1,2,×,6,2 × 6,neutral,smallerFirst,1.5,1.5,12,,,,,,,,
,,,,,,,,,,,,,,,786,2022-01-18_00h47.30.469,multiplicationStroop,2021.2.3,MacIntel,90.90909091,,,,,,,,,,,,,,,,,,,,,,,,,,,,,,,,,28,2.166,1,0,35,35,3,1,4,×,7,4 × 7,neutral,smallerFirst,1.5,1.5,28,,,,,,,,
,,,,,,,,,,,,,,,786,2022-01-18_00h47.30.469,multiplicationStroop,2021.2.3,MacIntel,90.90909091,,,,,,,,,,,,,,,,,,,,,,,,,,,,,,,,,,,,,,,,,,,,,,,,,,0,5,5,0,1,stimulusFile/mult_blk1.xlsx,,
,,,,,,,,,,,,,,,786,2022-01-18_00h47.30.469,multiplicationStroop,2021.2.3,MacIntel,90.90909091,,,,,,,,,,,,,,,,,,,,,,,,,,,,,,,,,,,,,,,,,,,,,,,,,,,,,,,,space,1.458