welcomeKey_resp.keys,welcomeKey_resp.rt,X Scale,Y Scale,rt_resp_4.keys,rt_resp_4.corr,rt_resp_4.rt,speedtest_2.thisRepN,speedtest_2.thisTrialN,speedtest_2.thisN,speedtest_2.thisIndex,speedtest_2.ran,numberSc,posX,positionLayout,participant,date,expName,psychopyVersion,OS,frameRate,ct_instrresp.keys,ct_instrresp.rt,key_resp_2.keys,key_resp_2.rt,ct_keyResp.keys,ct_keyResp.corr,ct_keyResp.rt,trials.thisRepN,trials.thisTrialN,trials.thisN,trials.thisIndex,trials.ran,leftNo,rightNo,displayProblem,numDistance,leftNo_size,rightNo_size,Dims,keyAnswer,TS_Loop.thisRepN,TS_Loop.thisTrialN,TS_Loop.thisN,TS_Loop.thisIndex,TS_Loop.ran,Condition,ActionInst,instrImage,mltptaskInst_resp.keys,mltptaskInst_resp.rt,continue_resp_2.keys,continue_resp_2.rt,multp_Answer,multi_RT,multiplyCorr,LoopingMultiply.thisRepN,LoopingMultiply.thisTrialN,LoopingMultiply.thisN,LoopingMultiply.thisIndex,LoopingMultiply.ran,factor1,multiplySign,factor2,multliplyProblem,physicalSize,orderOperand,sizeF1,sizeF2,mult_answer,trials_stroop.thisRepN,trials_stroop.thisTrialN,trials_stroop.thisN,trials_stroop.thisIndex,trials_stroop.ran,multiplicationFile,esckey_resp_2.keys,esckey_resp_2.rt
y,16.9283,60,40,right,1,1.2235,0,0,0,15,1,9,200,right,789,2022-01-18_12h58.35.291,multiplicationStroop,2021.2.3,Win32,59.03187721,,,,,,,,,,,,,,,,,,,,,,,,,,,,,,,,,,,,,,,,,,,,,,,,,,,,,,,,,
,,,,left,0,1.6158,0,1,1,10,1,3,200,right,789,2022-01-18_12h58.35.291,multiplicationStroop,2021.2.3,Win32,59.03187721,,,,,,,,,,,,,,,,,,,,,,,,,,,,,,,,,,,,,,,,,,,,,,,,,,,,,,,,,
,,,,right,1,3.0537,0,2,2,12,1,6,200,right,789,2022-01-18_12h58.35.291,multiplicationStroop,2021.2.3,Win32,59.03187721,,,,,,,,,,,,,,,,,,,,,,,,,,,,,,,,,,,,,,,,,,,,,,,,,,,,,,,,,
,,,,right,1,0.5422,0,3,3,11,1,4,200,right,789,2022-01-18_12h58.35.291,multiplicationStroop,2021.2.3,Win32,59.03187721,,,,,,,,,,,,,,,,,,,,,,,,,,,,,,,,,,,,,,,,,,,,,,,,,,,,,,,,,
,,,,left,1,0.6123,0,4,4,7,1,9,-200,left,789,2022-01-18_12h58.35.291,multiplicationStroop,2021.2.3,Win32,59.03187721,,,,,,,,,,,,,,,,,,,,,,,,,,,,,,,,,,,,,,,,,,,,,,,,,,,,,,,,,
,,,,left,1,0.4135,0,5,5,2,1,3,-200,left,789,2022-01-18_12h58.35.291,multiplicationStroop,2021.2.3,Win32,59.03187721,,,,,,,,,,,,,,,,,,,,,,,,,,,,,,,,,,,,,,,,,,,,,,,,,,,,,,,,,
,,,,left,1,0.5624,0,6,6,0,1,1,-200,left,789,2022-01-18_12h58.35.291,multiplicationStroop,2021.2.3,Win32,59.03187721,,,,,,,,,,,,,,,,,,,,,,,,,,,,,,,,,,,,,,,,,,,,,,,,,,,,,,,,,
,,,,left,1,0.4074,0,7,7,6,1,8,-200,left,789,2022-01-18_12h58.35.291,multiplicationStroop,2021.2.3,Win32,59.03187721,,,,,,,,,,,,,,,,,,,,,,,,,,,,,,,,,,,,,,,,,,,,,,,,,,,,,,,,,
,,,,right,1,0.4569,0,8,8,13,1,7,200,right,789,2022-01-18_12h58.35.291,multiplicationStroop,2021.2.3,Win32,59.03187721,,,,,,,,,,,,,,,,,,,,,,,,,,,,,,,,,,,,,,,,,,,,,,,,,,,,,,,,,
,,,,left,1,0.4002,0,9,9,3,1,4,-200,left,789,2022-01-18_12h58.35.291,multiplicationStroop,2021.2.3,Win32,59.03187721,,,,,,,,,,,,,,,,,,,,,,,,,,,,,,,,,,,,,,,,,,,,,,,,,,,,,,,,,
,,,,right,1,0.4518,0,10,10,14,1,8,200,right,789,2022-01-18_12h58.35.291,multiplicationStroop,2021.2.3,Win32,59.03187721,,,,,,,,,,,,,,,,,,,,,,,,,,,,,,,,,,,,,,,,,,,,,,,,,,,,,,,,,
,,,,left,1,0.3512,0,11,11,1,1,2,-200,left,789,2022-01-18_12h58.35.291,multiplicationStroop,2021.2.3,Win32,59.03187721,,,,,,,,,,,,,,,,,,,,,,,,,,,,,,,,,,,,,,,,,,,,,,,,,,,,,,,,,
,,,,right,1,0.2914,0,12,12,9,1,2,200,right,789,2022-01-18_12h58.35.291,multiplicationStroop,2021.2.3,Win32,59.03187721,,,,,,,,,,,,,,,,,,,,,,,,,,,,,,,,,,,,,,,,,,,,,,,,,,,,,,,,,
,,,,right,1,0.5399,0,13,13,8,1,1,200,right,789,2022-01-18_12h58.35.291,multiplicationStroop,2021.2.3,Win32,59.03187721,,,,,,,,,,,,,,,,,,,,,,,,,,,,,,,,,,,,,,,,,,,,,,,,,,,,,,,,,
,,,,left,1,0.4669,0,14,14,5,1,7,-200,left,789,2022-01-18_12h58.35.291,multiplicationStroop,2021.2.3,Win32,59.03187721,,,,,,,,,,,,,,,,,,,,,,,,,,,,,,,,,,,,,,,,,,,,,,,,,,,,,,,,,
,,,,left,1,0.388,0,15,15,4,1,6,-200,left,789,2022-01-18_12h58.35.291,multiplicationStroop,2021.2.3,Win32,59.03187721,,,,,,,,,,,,,,,,,,,,,,,,,,,,,,,,,,,,,,,,,,,,,,,,,,,,,,,,,
,,,,right,1,0.4058,1,0,16,12,1,6,200,right,789,2022-01-18_12h58.35.291,multiplicationStroop,2021.2.3,Win32,59.03187721,,,,,,,,,,,,,,,,,,,,,,,,,,,,,,,,,,,,,,,,,,,,,,,,,,,,,,,,,
,,,,left,1,0.7963,1,1,17,1,1,2,-200,left,789,2022-01-18_12h58.35.291,multiplicationStroop,2021.2.3,Win32,59.03187721,,,,,,,,,,,,,,,,,,,,,,,,,,,,,,,,,,,,,,,,,,,,,,,,,,,,,,,,,
,,,,right,1,0.3982,1,2,18,9,1,2,200,right,789,2022-01-18_12h58.35.291,multiplicationStroop,2021.2.3,Win32,59.03187721,,,,,,,,,,,,,,,,,,,,,,,,,,,,,,,,,,,,,,,,,,,,,,,,,,,,,,,,,
,,,,right,1,0.3489,1,3,19,11,1,4,200,right,789,2022-01-18_12h58.35.291,multiplicationStroop,2021.2.3,Win32,59.03187721,,,,,,,,,,,,,,,,,,,,,,,,,,,,,,,,,,,,,,,,,,,,,,,,,,,,,,,,,
,,,,left,1,0.3695,1,4,20,3,1,4,-200,left,789,2022-01-18_12h58.35.291,multiplicationStroop,2021.2.3,Win32,59.03187721,,,,,,,,,,,,,,,,,,,,,,,,,,,,,,,,,,,,,,,,,,,,,,,,,,,,,,,,,
,,,,left,1,0.3598,1,5,21,4,1,6,-200,left,789,2022-01-18_12h58.35.291,multiplicationStroop,2021.2.3,Win32,59.03187721,,,,,,,,,,,,,,,,,,,,,,,,,,,,,,,,,,,,,,,,,,,,,,,,,,,,,,,,,
,,,,left,1,0.3633,1,6,22,0,1,1,-200,left,789,2022-01-18_12h58.35.291,multiplicationStroop,2021.2.3,Win32,59.03187721,,,,,,,,,,,,,,,,,,,,,,,,,,,,,,,,,,,,,,,,,,,,,,,,,,,,,,,,,
,,,,right,1,0.3995,1,7,23,10,1,3,200,right,789,2022-01-18_12h58.35.291,multiplicationStroop,2021.2.3,Win32,59.03187721,,,,,,,,,,,,,,,,,,,,,,,,,,,,,,,,,,,,,,,,,,,,,,,,,,,,,,,,,
,,,,left,1,0.6718,1,8,24,6,1,8,-200,left,789,2022-01-18_12h58.35.291,multiplicationStroop,2021.2.3,Win32,59.03187721,,,,,,,,,,,,,,,,,,,,,,,,,,,,,,,,,,,,,,,,,,,,,,,,,,,,,,,,,
,,,,right,1,0.3363,1,9,25,13,1,7,200,right,789,2022-01-18_12h58.35.291,multiplicationStroop,2021.2.3,Win32,59.03187721,,,,,,,,,,,,,,,,,,,,,,,,,,,,,,,,,,,,,,,,,,,,,,,,,,,,,,,,,
,,,,left,1,0.3219,1,10,26,7,1,9,-200,left,789,2022-01-18_12h58.35.291,multiplicationStroop,2021.2.3,Win32,59.03187721,,,,,,,,,,,,,,,,,,,,,,,,,,,,,,,,,,,,,,,,,,,,,,,,,,,,,,,,,
,,,,left,1,0.5368,1,11,27,5,1,7,-200,left,789,2022-01-18_12h58.35.291,multiplicationStroop,2021.2.3,Win32,59.03187721,,,,,,,,,,,,,,,,,,,,,,,,,,,,,,,,,,,,,,,,,,,,,,,,,,,,,,,,,
,,,,right,1,0.43,1,12,28,14,1,8,200,right,789,2022-01-18_12h58.35.291,multiplicationStroop,2021.2.3,Win32,59.03187721,,,,,,,,,,,,,,,,,,,,,,,,,,,,,,,,,,,,,,,,,,,,,,,,,,,,,,,,,
,,,,right,1,0.4377,1,13,29,8,1,1,200,right,789,2022-01-18_12h58.35.291,multiplicationStroop,2021.2.3,Win32,59.03187721,,,,,,,,,,,,,,,,,,,,,,,,,,,,,,,,,,,,,,,,,,,,,,,,,,,,,,,,,
,,,,left,1,0.5962,1,14,30,2,1,3,-200,left,789,2022-01-18_12h58.35.291,multiplicationStroop,2021.2.3,Win32,59.03187721,,,,,,,,,,,,,,,,,,,,,,,,,,,,,,,,,,,,,,,,,,,,,,,,,,,,,,,,,
,,,,right,1,0.505,1,15,31,15,1,9,200,right,789,2022-01-18_12h58.35.291,multiplicationStroop,2021.2.3,Win32,59.03187721,,,,,,,,,,,,,,,,,,,,,,,,,,,,,,,,,,,,,,,,,,,,,,,,,,,,,,,,,
,,,,right,1,0.4307,2,0,32,8,1,1,200,right,789,2022-01-18_12h58.35.291,multiplicationStroop,2021.2.3,Win32,59.03187721,,,,,,,,,,,,,,,,,,,,,,,,,,,,,,,,,,,,,,,,,,,,,,,,,,,,,,,,,
,,,,right,1,0.3315,2,1,33,9,1,2,200,right,789,2022-01-18_12h58.35.291,multiplicationStroop,2021.2.3,Win32,59.03187721,,,,,,,,,,,,,,,,,,,,,,,,,,,,,,,,,,,,,,,,,,,,,,,,,,,,,,,,,
,,,,left,1,0.4241,2,2,34,6,1,8,-200,left,789,2022-01-18_12h58.35.291,multiplicationStroop,2021.2.3,Win32,59.03187721,,,,,,,,,,,,,,,,,,,,,,,,,,,,,,,,,,,,,,,,,,,,,,,,,,,,,,,,,
,,,,left,1,0.3164,2,3,35,7,1,9,-200,left,789,2022-01-18_12h58.35.291,multiplicationStroop,2021.2.3,Win32,59.03187721,,,,,,,,,,,,,,,,,,,,,,,,,,,,,,,,,,,,,,,,,,,,,,,,,,,,,,,,,
,,,,left,1,0.3459,2,4,36,4,1,6,-200,left,789,2022-01-18_12h58.35.291,multiplicationStroop,2021.2.3,Win32,59.03187721,,,,,,,,,,,,,,,,,,,,,,,,,,,,,,,,,,,,,,,,,,,,,,,,,,,,,,,,,
,,,,right,1,0.3261,2,5,37,15,1,9,200,right,789,2022-01-18_12h58.35.291,multiplicationStroop,2021.2.3,Win32,59.03187721,,,,,,,,,,,,,,,,,,,,,,,,,,,,,,,,,,,,,,,,,,,,,,,,,,,,,,,,,
,,,,left,1,0.3687,2,6,38,5,1,7,-200,left,789,2022-01-18_12h58.35.291,multiplicationStroop,2021.2.3,Win32,59.03187721,,,,,,,,,,,,,,,,,,,,,,,,,,,,,,,,,,,,,,,,,,,,,,,,,,,,,,,,,
,,,,right,1,0.2972,2,7,39,12,1,6,200,right,789,2022-01-18_12h58.35.291,multiplicationStroop,2021.2.3,Win32,59.03187721,,,,,,,,,,,,,,,,,,,,,,,,,,,,,,,,,,,,,,,,,,,,,,,,,,,,,,,,,
,,,,left,1,0.3188,2,8,40,0,1,1,-200,left,789,2022-01-18_12h58.35.291,multiplicationStroop,2021.2.3,Win32,59.03187721,,,,,,,,,,,,,,,,,,,,,,,,,,,,,,,,,,,,,,,,,,,,,,,,,,,,,,,,,
,,,,right,1,0.3298,2,9,41,13,1,7,200,right,789,2022-01-18_12h58.35.291,multiplicationStroop,2021.2.3,Win32,59.03187721,,,,,,,,,,,,,,,,,,,,,,,,,,,,,,,,,,,,,,,,,,,,,,,,,,,,,,,,,
,,,,right,1,0.3984,2,10,42,10,1,3,200,right,789,2022-01-18_12h58.35.291,multiplicationStroop,2021.2.3,Win32,59.03187721,,,,,,,,,,,,,,,,,,,,,,,,,,,,,,,,,,,,,,,,,,,,,,,,,,,,,,,,,
,,,,left,1,0.3176,2,11,43,2,1,3,-200,left,789,2022-01-18_12h58.35.291,multiplicationStroop,2021.2.3,Win32,59.03187721,,,,,,,,,,,,,,,,,,,,,,,,,,,,,,,,,,,,,,,,,,,,,,,,,,,,,,,,,
,,,,left,1,0.3646,2,12,44,3,1,4,-200,left,789,2022-01-18_12h58.35.291,multiplicationStroop,2021.2.3,Win32,59.03187721,,,,,,,,,,,,,,,,,,,,,,,,,,,,,,,,,,,,,,,,,,,,,,,,,,,,,,,,,
,,,,right,1,0.3923,2,13,45,11,1,4,200,right,789,2022-01-18_12h58.35.291,multiplicationStroop,2021.2.3,Win32,59.03187721,,,,,,,,,,,,,,,,,,,,,,,,,,,,,,,,,,,,,,,,,,,,,,,,,,,,,,,,,
,,,,right,1,0.4131,2,14,46,14,1,8,200,right,789,2022-01-18_12h58.35.291,multiplicationStroop,2021.2.3,Win32,59.03187721,,,,,,,,,,,,,,,,,,,,,,,,,,,,,,,,,,,,,,,,,,,,,,,,,,,,,,,,,
,,,,left,1,0.4129,2,15,47,1,1,2,-200,left,789,2022-01-18_12h58.35.291,multiplicationStroop,2021.2.3,Win32,59.03187721,,,,,,,,,,,,,,,,,,,,,,,,,,,,,,,,,,,,,,,,,,,,,,,,,,,,,,,,,
,,,,right,1,0.3709,3,0,48,13,1,7,200,right,789,2022-01-18_12h58.35.291,multiplicationStroop,2021.2.3,Win32,59.03187721,,,,,,,,,,,,,,,,,,,,,,,,,,,,,,,,,,,,,,,,,,,,,,,,,,,,,,,,,
,,,,right,1,0.4217,3,1,49,14,1,8,200,right,789,2022-01-18_12h58.35.291,multiplicationStroop,2021.2.3,Win32,59.03187721,,,,,,,,,,,,,,,,,,,,,,,,,,,,,,,,,,,,,,,,,,,,,,,,,,,,,,,,,
,,,,left,1,0.334,3,2,50,6,1,8,-200,left,789,2022-01-18_12h58.35.291,multiplicationStroop,2021.2.3,Win32,59.03187721,,,,,,,,,,,,,,,,,,,,,,,,,,,,,,,,,,,,,,,,,,,,,,,,,,,,,,,,,
,,,,right,1,0.3065,3,3,51,15,1,9,200,right,789,2022-01-18_12h58.35.291,multiplicationStroop,2021.2.3,Win32,59.03187721,,,,,,,,,,,,,,,,,,,,,,,,,,,,,,,,,,,,,,,,,,,,,,,,,,,,,,,,,
,,,,right,1,0.4359,3,4,52,10,1,3,200,right,789,2022-01-18_12h58.35.291,multiplicationStroop,2021.2.3,Win32,59.03187721,,,,,,,,,,,,,,,,,,,,,,,,,,,,,,,,,,,,,,,,,,,,,,,,,,,,,,,,,
,,,,right,1,0.3475,3,5,53,9,1,2,200,right,789,2022-01-18_12h58.35.291,multiplicationStroop,2021.2.3,Win32,59.03187721,,,,,,,,,,,,,,,,,,,,,,,,,,,,,,,,,,,,,,,,,,,,,,,,,,,,,,,,,
,,,,left,1,0.5755,3,6,54,2,1,3,-200,left,789,2022-01-18_12h58.35.291,multiplicationStroop,2021.2.3,Win32,59.03187721,,,,,,,,,,,,,,,,,,,,,,,,,,,,,,,,,,,,,,,,,,,,,,,,,,,,,,,,,
,,,,left,1,0.3468,3,7,55,4,1,6,-200,left,789,2022-01-18_12h58.35.291,multiplicationStroop,2021.2.3,Win32,59.03187721,,,,,,,,,,,,,,,,,,,,,,,,,,,,,,,,,,,,,,,,,,,,,,,,,,,,,,,,,
,,,,right,1,0.4042,3,8,56,12,1,6,200,right,789,2022-01-18_12h58.35.291,multiplicationStroop,2021.2.3,Win32,59.03187721,,,,,,,,,,,,,,,,,,,,,,,,,,,,,,,,,,,,,,,,,,,,,,,,,,,,,,,,,
,,,,left,1,0.4395,3,9,57,7,1,9,-200,left,789,2022-01-18_12h58.35.291,multiplicationStroop,2021.2.3,Win32,59.03187721,,,,,,,,,,,,,,,,,,,,,,,,,,,,,,,,,,,,,,,,,,,,,,,,,,,,,,,,,
,,,,left,1,0.398,3,10,58,3,1,4,-200,left,789,2022-01-18_12h58.35.291,multiplicationStroop,2021.2.3,Win32,59.03187721,,,,,,,,,,,,,,,,,,,,,,,,,,,,,,,,,,,,,,,,,,,,,,,,,,,,,,,,,
,,,,left,1,0.3478,3,11,59,5,1,7,-200,left,789,2022-01-18_12h58.35.291,multiplicationStroop,2021.2.3,Win32,59.03187721,,,,,,,,,,,,,,,,,,,,,,,,,,,,,,,,,,,,,,,,,,,,,,,,,,,,,,,,,
,,,,left,1,0.32,3,12,60,0,1,1,-200,left,789,2022-01-18_12h58.35.291,multiplicationStroop,2021.2.3,Win32,59.03187721,,,,,,,,,,,,,,,,,,,,,,,,,,,,,,,,,,,,,,,,,,,,,,,,,,,,,,,,,
,,,,right,1,0.434,3,13,61,8,1,1,200,right,789,2022-01-18_12h58.35.291,multiplicationStroop,2021.2.3,Win32,59.03187721,,,,,,,,,,,,,,,,,,,,,,,,,,,,,,,,,,,,,,,,,,,,,,,,,,,,,,,,,
,,,,left,1,0.3063,3,14,62,1,1,2,-200,left,789,2022-01-18_12h58.35.291,multiplicationStroop,2021.2.3,Win32,59.03187721,,,,,,,,,,,,,,,,,,,,,,,,,,,,,,,,,,,,,,,,,,,,,,,,,,,,,,,,,
,,,,right,1,0.4513,3,15,63,11,1,4,200,right,789,2022-01-18_12h58.35.291,multiplicationStroop,2021.2.3,Win32,59.03187721,,,,,,,,,,,,,,,,,,,,,,,,,,stimulusFile/physical.xlsx,,,,,,,,,,,,,,,,,,,,,,,,,,,,,,,
,,,,,,,,,,,,,,,789,2022-01-18_12h58.35.291,multiplicationStroop,2021.2.3,Win32,59.03187721,space,23.5292,space,9.6188,left,1,0.9744,0,0,0,52,1,2,2,2 | 2,0,1.9756,1.4111,neutral,left,,,,,,stimulusFile/physical.xlsx,,,,,,,,,,,,,,,,,,,,,,,,,,,,,,,
,,,,,,,,,,,,,,,789,2022-01-18_12h58.35.291,multiplicationStroop,2021.2.3,Win32,59.03187721,,,,,left,1,0.5722,0,1,1,23,1,9,4,9 | 4,5,1.9756,1.4111,congruent,left,,,,,,stimulusFile/physical.xlsx,,,,,,,,,,,,,,,,,,,,,,,,,,,,,,,
,,,,,,,,,,,,,,,789,2022-01-18_12h58.35.291,multiplicationStroop,2021.2.3,Win32,59.03187721,,,,,right,1,0.5465,0,2,2,56,1,1,1,1 | 1,0,1.4111,1.9756,neutral,right,,,,,,stimulusFile/physical.xlsx,,,,,,,,,,,,,,,,,,,,,,,,,,,,,,,
,,,,,,,,,,,,,,,789,2022-01-18_12h58.35.291,multiplicationStroop,2021.2.3,Win32,59.03187721,,,,,left,1,0.4969,0,3,3,5,1,4,3,4 | 3,1,1.9756,1.4111,congruent,left,,,,,,stimulusFile/physical.xlsx,,,,,,,,,,,,,,,,,,,,,,,,,,,,,,,
,,,,,,,,,,,,,,,789,2022-01-18_12h58.35.291,multiplicationStroop,2021.2.3,Win32,59.03187721,,,,,right,1,0.5172,0,4,4,2,1,6,7,6 | 7,1,1.4111,1.9756,congruent,right,,,,,,stimulusFile/physical.xlsx,,,,,,,,,,,,,,,,,,,,,,,,,,,,,,,
,,,,,,,,,,,,,,,789,2022-01-18_12h58.35.291,multiplicationStroop,2021.2.3,Win32,59.03187721,,,,,left,1,0.4546,0,5,5,21,1,7,2,7 | 2,5,1.9756,1.4111,congruent,left,,,,,,stimulusFile/physical.xlsx,,,,,,,,,,,,,,,,,,,,,,,,,,,,,,,
,,,,,,,,,,,,,,,789,2022-01-18_12h58.35.291,multiplicationStroop,2021.2.3,Win32,59.03187721,,,,,right,1,0.5108,0,6,6,11,1,7,9,7 | 9,2,1.4111,1.9756,congruent,right,,,,,,stimulusFile/physical.xlsx,,,,,,,,,,,,,,,,,,,,,,,,,,,,,,,
,,,,,,,,,,,,,,,789,2022-01-18_12h58.35.291,multiplicationStroop,2021.2.3,Win32,59.03187721,,,,,right,1,0.5847,0,7,7,10,1,6,8,6 | 8,2,1.4111,1.9756,congruent,right,,,,,,stimulusFile/physical.xlsx,,,,,,,,,,,,,,,,,,,,,,,,,,,,,,,
,,,,,,,,,,,,,,,789,2022-01-18_12h58.35.291,multiplicationStroop,2021.2.3,Win32,59.03187721,,,,,right,1,0.5325,0,8,8,16,1,1,6,1 | 6,5,1.4111,1.9756,congruent,right,,,,,,stimulusFile/physical.xlsx,,,,,,,,,,,,,,,,,,,,,,,,,,,,,,,
,,,,,,,,,,,,,,,789,2022-01-18_12h58.35.291,multiplicationStroop,2021.2.3,Win32,59.03187721,,,,,right,0,0.5497,0,9,9,71,1,9,9,9 | 9,0,1.4111,1.9756,neutral,left,,,,,,stimulusFile/physical.xlsx,,,,,,,,,,,,,,,,,,,,,,,,,,,,,,,
,,,,,,,,,,,,,,,789,2022-01-18_12h58.35.291,multiplicationStroop,2021.2.3,Win32,59.03187721,,,,,right,1,0.4947,0,10,10,17,1,2,7,2 | 7,5,1.4111,1.9756,congruent,right,,,,,,stimulusFile/physical.xlsx,,,,,,,,,,,,,,,,,,,,,,,,,,,,,,,
,,,,,,,,,,,,,,,789,2022-01-18_12h58.35.291,multiplicationStroop,2021.2.3,Win32,59.03187721,,,,,right,1,0.6884,0,11,11,47,1,9,4,9 | 4,5,1.4111,1.9756,incongruent,right,,,,,,stimulusFile/physical.xlsx,,,,,,,,,,,,,,,,,,,,,,,,,,,,,,,
,,,,,,,,,,,,,,,789,2022-01-18_12h58.35.291,multiplicationStroop,2021.2.3,Win32,59.03187721,,,,,left,1,0.6674,0,12,12,51,1,8,8,8 | 8,0,1.9756,1.4111,neutral,left,,,,,,stimulusFile/physical.xlsx,,,,,,,,,,,,,,,,,,,,,,,,,,,,,,,
,,,,,,,,,,,,,,,789,2022-01-18_12h58.35.291,multiplicationStroop,2021.2.3,Win32,59.03187721,,,,,right,1,0.6122,0,13,13,46,1,8,3,8 | 3,5,1.4111,1.9756,incongruent,right,,,,,,stimulusFile/physical.xlsx,,,,,,,,,,,,,,,,,,,,,,,,,,,,,,,
,,,,,,,,,,,,,,,789,2022-01-18_12h58.35.291,multiplicationStroop,2021.2.3,Win32,59.03187721,,,,,left,1,0.5368,0,14,14,14,1,8,6,8 | 6,2,1.9756,1.4111,congruent,left,,,,,,stimulusFile/physical.xlsx,,,,,,,,,,,,,,,,,,,,,,,,,,,,,,,
,,,,,,,,,,,,,,,789,2022-01-18_12h58.35.291,multiplicationStroop,2021.2.3,Win32,59.03187721,,,,,right,1,1.6409,0,15,15,28,1,2,1,2 | 1,1,1.4111,1.9756,incongruent,right,,,,,,stimulusFile/physical.xlsx,,,,,,,,,,,,,,,,,,,,,,,,,,,,,,,
,,,,,,,,,,,,,,,789,2022-01-18_12h58.35.291,multiplicationStroop,2021.2.3,Win32,59.03187721,,,,,right,1,0.7552,0,16,16,67,1,4,4,4 | 4,0,1.4111,1.9756,neutral,right,,,,,,stimulusFile/physical.xlsx,,,,,,,,,,,,,,,,,,,,,,,,,,,,,,,
,,,,,,,,,,,,,,,789,2022-01-18_12h58.35.291,multiplicationStroop,2021.2.3,Win32,59.03187721,,,,,left,0,0.5875,0,17,17,64,1,1,1,1 | 1,0,1.9756,1.4111,neutral,right,,,,,,stimulusFile/physical.xlsx,,,,,,,,,,,,,,,,,,,,,,,,,,,,,,,
,,,,,,,,,,,,,,,789,2022-01-18_12h58.35.291,multiplicationStroop,2021.2.3,Win32,59.03187721,,,,,right,1,0.6144,0,18,18,63,1,9,9,9 | 9,0,1.4111,1.9756,neutral,right,,,,,,stimulusFile/physical.xlsx,,,,,,,,,,,,,,,,,,,,,,,,,,,,,,,
,,,,,,,,,,,,,,,789,2022-01-18_12h58.35.291,multiplicationStroop,2021.2.3,Win32,59.03187721,,,,,right,1,0.7633,0,19,19,1,1,3,4,3 | 4,1,1.4111,1.9756,congruent,right,,,,,,stimulusFile/physical.xlsx,,,,,,,,,,,,,,,,,,,,,,,,,,,,,,,
,,,,,,,,,,,,,,,789,2022-01-18_12h58.35.291,multiplicationStroop,2021.2.3,Win32,59.03187721,,,,,right,1,0.7144,0,20,20,45,1,7,2,7 | 2,5,1.4111,1.9756,incongruent,right,,,,,,stimulusFile/physical.xlsx,,,,,,,,,,,,,,,,,,,,,,,,,,,,,,,
,,,,,,,,,,,,,,,789,2022-01-18_12h58.35.291,multiplicationStroop,2021.2.3,Win32,59.03187721,,,,,left,1,0.7062,0,21,21,27,1,8,9,8 | 9,1,1.9756,1.4111,incongruent,left,,,,,,stimulusFile/physical.xlsx,,,,,,,,,,,,,,,,,,,,,,,,,,,,,,,
,,,,,,,,,,,,,,,789,2022-01-18_12h58.35.291,multiplicationStroop,2021.2.3,Win32,59.03187721,,,,,right,1,1.073,0,22,22,36,1,3,1,3 | 1,2,1.4111,1.9756,incongruent,right,,,,,,stimulusFile/physical.xlsx,,,,,,,,,,,,,,,,,,,,,,,,,,,,,,,
,,,,,,,,,,,,,,,789,2022-01-18_12h58.35.291,multiplicationStroop,2021.2.3,Win32,59.03187721,,,,,left,1,0.6869,0,23,23,15,1,9,7,9 | 7,2,1.9756,1.4111,congruent,left,,,,,,stimulusFile/physical.xlsx,,,,,,,,,,,,,,,,,,,,,,,,,,,,,,,
,,,,,,,,,,,,,,,789,2022-01-18_12h58.35.291,multiplicationStroop,2021.2.3,Win32,59.03187721,,,,,left,1,0.5723,0,24,24,35,1,7,9,7 | 9,2,1.9756,1.4111,incongruent,left,,,,,,stimulusFile/physical.xlsx,,,,,,,,,,,,,,,,,,,,,,,,,,,,,,,
,,,,,,,,,,,,,,,789,2022-01-18_12h58.35.291,multiplicationStroop,2021.2.3,Win32,59.03187721,,,,,right,0,0.4953,0,25,25,40,1,1,6,1 | 6,5,1.9756,1.4111,incongruent,left,,,,,,stimulusFile/physical.xlsx,,,,,,,,,,,,,,,,,,,,,,,,,,,,,,,
,,,,,,,,,,,,,,,789,2022-01-18_12h58.35.291,multiplicationStroop,2021.2.3,Win32,59.03187721,,,,,left,1,0.6805,0,26,26,48,1,1,1,1 | 1,0,1.9756,1.4111,neutral,left,,,,,,stimulusFile/physical.xlsx,,,,,,,,,,,,,,,,,,,,,,,,,,,,,,,
,,,,,,,,,,,,,,,789,2022-01-18_12h58.35.291,multiplicationStroop,2021.2.3,Win32,59.03187721,,,,,right,1,0.8071,0,27,27,29,1,4,3,4 | 3,1,1.4111,1.9756,incongruent,right,,,,,,stimulusFile/physical.xlsx,,,,,,,,,,,,,,,,,,,,,,,,,,,,,,,
,,,,,,,,,,,,,,,789,2022-01-18_12h58.35.291,multiplicationStroop,2021.2.3,Win32,59.03187721,,,,,right,1,0.5456,0,28,28,57,1,2,2,2 | 2,0,1.4111,1.9756,neutral,right,,,,,,stimulusFile/physical.xlsx,,,,,,,,,,,,,,,,,,,,,,,,,,,,,,,
,,,,,,,,,,,,,,,789,2022-01-18_12h58.35.291,multiplicationStroop,2021.2.3,Win32,59.03187721,,,,,left,1,0.5963,0,29,29,55,1,9,9,9 | 9,0,1.9756,1.4111,neutral,left,,,,,,stimulusFile/physical.xlsx,,,,,,,,,,,,,,,,,,,,,,,,,,,,,,,
,,,,,,,,,,,,,,,789,2022-01-18_12h58.35.291,multiplicationStroop,2021.2.3,Win32,59.03187721,,,,,left,1,0.5765,0,30,30,6,1,7,6,7 | 6,1,1.9756,1.4111,congruent,left,,,,,,stimulusFile/physical.xlsx,,,,,,,,,,,,,,,,,,,,,,,,,,,,,,,
,,,,,,,,,,,,,,,789,2022-01-18_12h58.35.291,multiplicationStroop,2021.2.3,Win32,59.03187721,,,,,left,1,0.5005,0,31,31,34,1,6,8,6 | 8,2,1.9756,1.4111,incongruent,left,,,,,,stimulusFile/physical.xlsx,,,,,,,,,,,,,,,,,,,,,,,,,,,,,,,
,,,,,,,,,,,,,,,789,2022-01-18_12h58.35.291,multiplicationStroop,2021.2.3,Win32,59.03187721,,,,,right,1,0.527,0,32,32,3,1,8,9,8 | 9,1,1.4111,1.9756,congruent,right,,,,,,stimulusFile/physical.xlsx,,,,,,,,,,,,,,,,,,,,,,,,,,,,,,,
,,,,,,,,,,,,,,,789,2022-01-18_12h58.35.291,multiplicationStroop,2021.2.3,Win32,59.03187721,,,,,left,1,0.5992,0,33,33,50,1,6,6,6 | 6,0,1.9756,1.4111,neutral,left,,,,,,stimulusFile/physical.xlsx,,,,,,,,,,,,,,,,,,,,,,,,,,,,,,,
,,,,,,,,,,,,,,,789,2022-01-18_12h58.35.291,multiplicationStroop,2021.2.3,Win32,59.03187721,,,,,left,1,0.6736,0,34,34,33,1,2,4,2 | 4,2,1.9756,1.4111,incongruent,left,,,,,,stimulusFile/physical.xlsx,,,,,,,,,,,,,,,,,,,,,,,,,,,,,,,
,,,,,,,,,,,,,,,789,2022-01-18_12h58.35.291,multiplicationStroop,2021.2.3,Win32,59.03187721,,,,,left,1,0.6323,0,35,35,4,1,2,1,2 | 1,1,1.9756,1.4111,congruent,left,,,,,,stimulusFile/physical.xlsx,,,,,,,,,,,,,,,,,,,,,,,,,,,,,,,
,,,,,,,,,,,,,,,789,2022-01-18_12h58.35.291,multiplicationStroop,2021.2.3,Win32,59.03187721,,,,,left,1,0.5449,0,36,36,22,1,8,3,8 | 3,5,1.9756,1.4111,congruent,left,,,,,,stimulusFile/physical.xlsx,,,,,,,,,,,,,,,,,,,,,,,,,,,,,,,
,,,,,,,,,,,,,,,789,2022-01-18_12h58.35.291,multiplicationStroop,2021.2.3,Win32,59.03187721,,,,,right,1,0.6059,0,37,37,62,1,8,8,8 | 8,0,1.4111,1.9756,neutral,right,,,,,,stimulusFile/physical.xlsx,,,,,,,,,,,,,,,,,,,,,,,,,,,,,,,
,,,,,,,,,,,,,,,789,2022-01-18_12h58.35.291,multiplicationStroop,2021.2.3,Win32,59.03187721,,,,,right,1,0.5443,0,38,38,65,1,2,2,2 | 2,0,1.4111,1.9756,neutral,right,,,,,,stimulusFile/physical.xlsx,,,,,,,,,,,,,,,,,,,,,,,,,,,,,,,
,,,,,,,,,,,,,,,789,2022-01-18_12h58.35.291,multiplicationStroop,2021.2.3,Win32,59.03187721,,,,,right,1,0.5281,0,39,39,18,1,3,8,3 | 8,5,1.4111,1.9756,congruent,right,,,,,,stimulusFile/physical.xlsx,,,,,,,,,,,,,,,,,,,,,,,,,,,,,,,
,,,,,,,,,,,,,,,789,2022-01-18_12h58.35.291,multiplicationStroop,2021.2.3,Win32,59.03187721,,,,,left,1,0.5755,0,40,40,68,1,6,6,6 | 6,0,1.9756,1.4111,neutral,left,,,,,,stimulusFile/physical.xlsx,,,,,,,,,,,,,,,,,,,,,,,,,,,,,,,
,,,,,,,,,,,,,,,789,2022-01-18_12h58.35.291,multiplicationStroop,2021.2.3,Win32,59.03187721,,,,,right,1,0.6405,0,41,41,39,1,9,7,9 | 7,2,1.4111,1.9756,incongruent,right,,,,,,stimulusFile/physical.xlsx,,,,,,,,,,,,,,,,,,,,,,,,,,,,,,,
,,,,,,,,,,,,,,,789,2022-01-18_12h58.35.291,multiplicationStroop,2021.2.3,Win32,59.03187721,,,,,left,1,0.5207,0,42,42,54,1,7,7,7 | 7,0,1.9756,1.4111,neutral,left,,,,,,stimulusFile/physical.xlsx,,,,,,,,,,,,,,,,,,,,,,,,,,,,,,,
,,,,,,,,,,,,,,,789,2022-01-18_12h58.35.291,multiplicationStroop,2021.2.3,Win32,59.03187721,,,,,right,1,0.7149,0,43,43,0,1,1,2,1 | 2,1,1.4111,1.9756,congruent,right,,,,,,stimulusFile/physical.xlsx,,,,,,,,,,,,,,,,,,,,,,,,,,,,,,,
,,,,,,,,,,,,,,,789,2022-01-18_12h58.35.291,multiplicationStroop,2021.2.3,Win32,59.03187721,,,,,left,1,0.5458,0,44,44,24,1,1,2,1 | 2,1,1.9756,1.4111,incongruent,left,,,,,,stimulusFile/physical.xlsx,,,,,,,,,,,,,,,,,,,,,,,,,,,,,,,
,,,,,,,,,,,,,,,789,2022-01-18_12h58.35.291,multiplicationStroop,2021.2.3,Win32,59.03187721,,,,,left,1,0.7867,0,45,45,43,1,4,9,4 | 9,5,1.9756,1.4111,incongruent,left,,,,,,stimulusFile/physical.xlsx,,,,,,,,,,,,,,,,,,,,,,,,,,,,,,,
,,,,,,,,,,,,,,,789,2022-01-18_12h58.35.291,multiplicationStroop,2021.2.3,Win32,59.03187721,,,,,right,1,0.6403,0,46,46,38,1,8,6,8 | 6,2,1.4111,1.9756,incongruent,right,,,,,,stimulusFile/physical.xlsx,,,,,,,,,,,,,,,,,,,,,,,,,,,,,,,
,,,,,,,,,,,,,,,789,2022-01-18_12h58.35.291,multiplicationStroop,2021.2.3,Win32,59.03187721,,,,,left,1,0.7266,0,47,47,26,1,6,7,6 | 7,1,1.9756,1.4111,incongruent,left,,,,,,stimulusFile/physical.xlsx,,,,,,,,,,,,,,,,,,,,,,,,,,,,,,,
,,,,,,,,,,,,,,,789,2022-01-18_12h58.35.291,multiplicationStroop,2021.2.3,Win32,59.03187721,,,,,left,1,0.5987,0,48,48,13,1,4,2,4 | 2,2,1.9756,1.4111,congruent,left,,,,,,stimulusFile/physical.xlsx,,,,,,,,,,,,,,,,,,,,,,,,,,,,,,,
,,,,,,,,,,,,,,,789,2022-01-18_12h58.35.291,multiplicationStroop,2021.2.3,Win32,59.03187721,,,,,right,0,0.5502,0,49,49,69,1,7,7,7 | 7,0,1.4111,1.9756,neutral,left,,,,,,stimulusFile/physical.xlsx,,,,,,,,,,,,,,,,,,,,,,,,,,,,,,,
,,,,,,,,,,,,,,,789,2022-01-18_12h58.35.291,multiplicationStroop,2021.2.3,Win32,59.03187721,,,,,right,1,0.6108,0,50,50,37,1,4,2,4 | 2,2,1.4111,1.9756,incongruent,right,,,,,,stimulusFile/physical.xlsx,,,,,,,,,,,,,,,,,,,,,,,,,,,,,,,
,,,,,,,,,,,,,,,789,2022-01-18_12h58.35.291,multiplicationStroop,2021.2.3,Win32,59.03187721,,,,,left,1,0.561,0,51,51,41,1,2,7,2 | 7,5,1.9756,1.4111,incongruent,left,,,,,,stimulusFile/physical.xlsx,,,,,,,,,,,,,,,,,,,,,,,,,,,,,,,
,,,,,,,,,,,,,,,789,2022-01-18_12h58.35.291,multiplicationStroop,2021.2.3,Win32,59.03187721,,,,,left,1,0.6108,0,52,52,20,1,6,1,6 | 1,5,1.9756,1.4111,congruent,left,,,,,,stimulusFile/physical.xlsx,,,,,,,,,,,,,,,,,,,,,,,,,,,,,,,
,,,,,,,,,,,,,,,789,2022-01-18_12h58.35.291,multiplicationStroop,2021.2.3,Win32,59.03187721,,,,,right,1,0.4954,0,53,53,9,1,2,4,2 | 4,2,1.4111,1.9756,congruent,right,,,,,,stimulusFile/physical.xlsx,,,,,,,,,,,,,,,,,,,,,,,,,,,,,,,
,,,,,,,,,,,,,,,789,2022-01-18_12h58.35.291,multiplicationStroop,2021.2.3,Win32,59.03187721,,,,,right,1,0.5298,0,54,54,61,1,4,4,4 | 4,0,1.4111,1.9756,neutral,right,,,,,,stimulusFile/physical.xlsx,,,,,,,,,,,,,,,,,,,,,,,,,,,,,,,
,,,,,,,,,,,,,,,789,2022-01-18_12h58.35.291,multiplicationStroop,2021.2.3,Win32,59.03187721,,,,,right,1,0.6447,0,55,55,30,1,7,6,7 | 6,1,1.4111,1.9756,incongruent,right,,,,,,stimulusFile/physical.xlsx,,,,,,,,,,,,,,,,,,,,,,,,,,,,,,,
,,,,,,,,,,,,,,,789,2022-01-18_12h58.35.291,multiplicationStroop,2021.2.3,Win32,59.03187721,,,,,left,1,0.5358,0,56,56,32,1,1,3,1 | 3,2,1.9756,1.4111,incongruent,left,,,,,,stimulusFile/physical.xlsx,,,,,,,,,,,,,,,,,,,,,,,,,,,,,,,
,,,,,,,,,,,,,,,789,2022-01-18_12h58.35.291,multiplicationStroop,2021.2.3,Win32,59.03187721,,,,,left,1,0.5533,0,57,57,70,1,8,8,8 | 8,0,1.9756,1.4111,neutral,left,,,,,,stimulusFile/physical.xlsx,,,,,,,,,,,,,,,,,,,,,,,,,,,,,,,
,,,,,,,,,,,,,,,789,2022-01-18_12h58.35.291,multiplicationStroop,2021.2.3,Win32,59.03187721,,,,,right,1,1.2896,0,58,58,31,1,9,8,9 | 8,1,1.4111,1.9756,incongruent,right,,,,,,stimulusFile/physical.xlsx,,,,,,,,,,,,,,,,,,,,,,,,,,,,,,,
,,,,,,,,,,,,,,,789,2022-01-18_12h58.35.291,multiplicationStroop,2021.2.3,Win32,59.03187721,,,,,left,0,0.5962,0,59,59,66,1,3,3,3 | 3,0,1.9756,1.4111,neutral,right,,,,,,stimulusFile/physical.xlsx,,,,,,,,,,,,,,,,,,,,,,,,,,,,,,,
,,,,,,,,,,,,,,,789,2022-01-18_12h58.35.291,multiplicationStroop,2021.2.3,Win32,59.03187721,,,,,left,1,0.5891,0,60,60,7,1,9,8,9 | 8,1,1.9756,1.4111,congruent,left,,,,,,stimulusFile/physical.xlsx,,,,,,,,,,,,,,,,,,,,,,,,,,,,,,,
,,,,,,,,,,,,,,,789,2022-01-18_12h58.35.291,multiplicationStroop,2021.2.3,Win32,59.03187721,,,,,right,1,0.5993,0,61,61,59,1,7,7,7 | 7,0,1.4111,1.9756,neutral,right,,,,,,stimulusFile/physical.xlsx,,,,,,,,,,,,,,,,,,,,,,,,,,,,,,,
,,,,,,,,,,,,,,,789,2022-01-18_12h58.35.291,multiplicationStroop,2021.2.3,Win32,59.03187721,,,,,right,1,0.9311,0,62,62,44,1,6,1,6 | 1,5,1.4111,1.9756,incongruent,right,,,,,,stimulusFile/physical.xlsx,,,,,,,,,,,,,,,,,,,,,,,,,,,,,,,
,,,,,,,,,,,,,,,789,2022-01-18_12h58.35.291,multiplicationStroop,2021.2.3,Win32,59.03187721,,,,,left,1,0.8619,0,63,63,42,1,3,8,3 | 8,5,1.9756,1.4111,incongruent,left,,,,,,stimulusFile/physical.xlsx,,,,,,,,,,,,,,,,,,,,,,,,,,,,,,,
,,,,,,,,,,,,,,,789,2022-01-18_12h58.35.291,multiplicationStroop,2021.2.3,Win32,59.03187721,,,,,right,1,0.5121,0,64,64,8,1,1,3,1 | 3,2,1.4111,1.9756,congruent,right,,,,,,stimulusFile/physical.xlsx,,,,,,,,,,,,,,,,,,,,,,,,,,,,,,,
,,,,,,,,,,,,,,,789,2022-01-18_12h58.35.291,multiplicationStroop,2021.2.3,Win32,59.03187721,,,,,right,1,0.9342,0,65,65,19,1,4,9,4 | 9,5,1.4111,1.9756,congruent,right,,,,,,stimulusFile/physical.xlsx,,,,,,,,,,,,,,,,,,,,,,,,,,,,,,,
,,,,,,,,,,,,,,,789,2022-01-18_12h58.35.291,multiplicationStroop,2021.2.3,Win32,59.03187721,,,,,right,1,0.5944,0,66,66,58,1,6,6,6 | 6,0,1.4111,1.9756,neutral,right,,,,,,stimulusFile/physical.xlsx,,,,,,,,,,,,,,,,,,,,,,,,,,,,,,,
,,,,,,,,,,,,,,,789,2022-01-18_12h58.35.291,multiplicationStroop,2021.2.3,Win32,59.03187721,,,,,left,1,0.9492,0,67,67,25,1,3,4,3 | 4,1,1.9756,1.4111,incongruent,left,,,,,,stimulusFile/physical.xlsx,,,,,,,,,,,,,,,,,,,,,,,,,,,,,,,
,,,,,,,,,,,,,,,789,2022-01-18_12h58.35.291,multiplicationStroop,2021.2.3,Win32,59.03187721,,,,,left,1,0.5535,0,68,68,49,1,3,3,3 | 3,0,1.9756,1.4111,neutral,left,,,,,,stimulusFile/physical.xlsx,,,,,,,,,,,,,,,,,,,,,,,,,,,,,,,
,,,,,,,,,,,,,,,789,2022-01-18_12h58.35.291,multiplicationStroop,2021.2.3,Win32,59.03187721,,,,,left,1,0.5232,0,69,69,12,1,3,1,3 | 1,2,1.9756,1.4111,congruent,left,,,,,,stimulusFile/physical.xlsx,,,,,,,,,,,,,,,,,,,,,,,,,,,,,,,
,,,,,,,,,,,,,,,789,2022-01-18_12h58.35.291,multiplicationStroop,2021.2.3,Win32,59.03187721,,,,,left,1,0.8323,0,70,70,53,1,4,4,4 | 4,0,1.9756,1.4111,neutral,left,,,,,,stimulusFile/physical.xlsx,,,,,,,,,,,,,,,,,,,,,,,,,,,,,,,
,,,,,,,,,,,,,,,789,2022-01-18_12h58.35.291,multiplicationStroop,2021.2.3,Win32,59.03187721,,,,,right,1,1.2299,0,71,71,60,1,3,3,3 | 3,0,1.4111,1.9756,neutral,right,,,,,,stimulusFile/physical.xlsx,,,,,,,,,,,,,,,,,,,,,,,,,,,,,,,
,,,,,,,,,,,,,,,789,2022-01-18_12h58.35.291,multiplicationStroop,2021.2.3,Win32,59.03187721,,,,,,,,,,,,,,,,,,,,,0,0,0,1,1,stimulusFile/physical.xlsx,PHYSICALLY larger (larger font size).,images/physicallyLarger.png,,,,,,,,,,,,,,,,,,,,,,,,,,,,,
,,,,,,,,,,,,,,,789,2022-01-18_12h58.35.291,multiplicationStroop,2021.2.3,Win32,59.03187721,space,24.5976,space,5.4752,right,1,1.25,0,0,0,16,1,1,6,1 | 6,5,1.4111,1.9756,congruent,right,,,,,,stimulusFile/magnitude.xlsx,,,,,,,,,,,,,,,,,,,,,,,,,,,,,,,
,,,,,,,,,,,,,,,789,2022-01-18_12h58.35.291,multiplicationStroop,2021.2.3,Win32,59.03187721,,,,,right,1,0.9342,0,1,1,64,1,1,6,1 | 6,5,1.6933,1.6933,neutral,right,,,,,,stimulusFile/magnitude.xlsx,,,,,,,,,,,,,,,,,,,,,,,,,,,,,,,
,,,,,,,,,,,,,,,789,2022-01-18_12h58.35.291,multiplicationStroop,2021.2.3,Win32,59.03187721,,,,,left,1,0.6667,0,2,2,39,1,9,7,9 | 7,2,1.4111,1.9756,incongruent,left,,,,,,stimulusFile/magnitude.xlsx,,,,,,,,,,,,,,,,,,,,,,,,,,,,,,,
,,,,,,,,,,,,,,,789,2022-01-18_12h58.35.291,multiplicationStroop,2021.2.3,Win32,59.03187721,,,,,right,1,0.8342,0,3,3,51,1,8,9,8 | 9,1,1.6933,1.6933,neutral,right,,,,,,stimulusFile/magnitude.xlsx,,,,,,,,,,,,,,,,,,,,,,,,,,,,,,,
,,,,,,,,,,,,,,,789,2022-01-18_12h58.35.291,multiplicationStroop,2021.2.3,Win32,59.03187721,,,,,right,1,0.6394,0,4,4,17,1,2,7,2 | 7,5,1.4111,1.9756,congruent,right,,,,,,stimulusFile/magnitude.xlsx,,,,,,,,,,,,,,,,,,,,,,,,,,,,,,,
,,,,,,,,,,,,,,,789,2022-01-18_12h58.35.291,multiplicationStroop,2021.2.3,Win32,59.03187721,,,,,right,1,1.0347,0,5,5,26,1,6,7,6 | 7,1,1.9756,1.4111,incongruent,right,,,,,,stimulusFile/magnitude.xlsx,,,,,,,,,,,,,,,,,,,,,,,,,,,,,,,
,,,,,,,,,,,,,,,789,2022-01-18_12h58.35.291,multiplicationStroop,2021.2.3,Win32,59.03187721,,,,,left,1,0.851,0,6,6,38,1,8,6,8 | 6,2,1.4111,1.9756,incongruent,left,,,,,,stimulusFile/magnitude.xlsx,,,,,,,,,,,,,,,,,,,,,,,,,,,,,,,
,,,,,,,,,,,,,,,789,2022-01-18_12h58.35.291,multiplicationStroop,2021.2.3,Win32,59.03187721,,,,,right,1,1.0697,0,7,7,50,1,6,7,6 | 7,1,1.6933,1.6933,neutral,right,,,,,,stimulusFile/magnitude.xlsx,,,,,,,,,,,,,,,,,,,,,,,,,,,,,,,
,,,,,,,,,,,,,,,789,2022-01-18_12h58.35.291,multiplicationStroop,2021.2.3,Win32,59.03187721,,,,,left,1,0.9829,0,8,8,52,1,2,1,2 | 1,1,1.6933,1.6933,neutral,left,,,,,,stimulusFile/magnitude.xlsx,,,,,,,,,,,,,,,,,,,,,,,,,,,,,,,
,,,,,,,,,,,,,,,789,2022-01-18_12h58.35.291,multiplicationStroop,2021.2.3,Win32,59.03187721,,,,,left,1,0.7615,0,9,9,47,1,9,4,9 | 4,5,1.4111,1.9756,incongruent,left,,,,,,stimulusFile/magnitude.xlsx,,,,,,,,,,,,,,,,,,,,,,,,,,,,,,,
,,,,,,,,,,,,,,,789,2022-01-18_12h58.35.291,multiplicationStroop,2021.2.3,Win32,59.03187721,,,,,right,1,0.8736,0,10,10,34,1,6,8,6 | 8,2,1.9756,1.4111,incongruent,right,,,,,,stimulusFile/magnitude.xlsx,,,,,,,,,,,,,,,,,,,,,,,,,,,,,,,
,,,,,,,,,,,,,,,789,2022-01-18_12h58.35.291,multiplicationStroop,2021.2.3,Win32,59.03187721,,,,,left,1,0.6948,0,11,11,14,1,8,6,8 | 6,2,1.9756,1.4111,congruent,left,,,,,,stimulusFile/magnitude.xlsx,,,,,,,,,,,,,,,,,,,,,,,,,,,,,,,
,,,,,,,,,,,,,,,789,2022-01-18_12h58.35.291,multiplicationStroop,2021.2.3,Win32,59.03187721,,,,,left,1,0.6859,0,12,12,15,1,9,7,9 | 7,2,1.9756,1.4111,congruent,left,,,,,,stimulusFile/magnitude.xlsx,,,,,,,,,,,,,,,,,,,,,,,,,,,,,,,
,,,,,,,,,,,,,,,789,2022-01-18_12h58.35.291,multiplicationStroop,2021.2.3,Win32,59.03187721,,,,,right,1,0.7175,0,13,13,49,1,3,4,3 | 4,1,1.6933,1.6933,neutral,right,,,,,,stimulusFile/magnitude.xlsx,,,,,,,,,,,,,,,,,,,,,,,,,,,,,,,
,,,,,,,,,,,,,,,789,2022-01-18_12h58.35.291,multiplicationStroop,2021.2.3,Win32,59.03187721,,,,,left,1,1.0169,0,14,14,54,1,7,6,7 | 6,1,1.6933,1.6933,neutral,left,,,,,,stimulusFile/magnitude.xlsx,,,,,,,,,,,,,,,,,,,,,,,,,,,,,,,
,,,,,,,,,,,,,,,789,2022-01-18_12h58.35.291,multiplicationStroop,2021.2.3,Win32,59.03187721,,,,,right,1,0.6168,0,15,15,48,1,1,2,1 | 2,1,1.6933,1.6933,neutral,right,,,,,,stimulusFile/magnitude.xlsx,,,,,,,,,,,,,,,,,,,,,,,,,,,,,,,
,,,,,,,,,,,,,,,789,2022-01-18_12h58.35.291,multiplicationStroop,2021.2.3,Win32,59.03187721,,,,,right,1,0.6402,0,16,16,40,1,1,6,1 | 6,5,1.9756,1.4111,incongruent,right,,,,,,stimulusFile/magnitude.xlsx,,,,,,,,,,,,,,,,,,,,,,,,,,,,,,,
,,,,,,,,,,,,,,,789,2022-01-18_12h58.35.291,multiplicationStroop,2021.2.3,Win32,59.03187721,,,,,left,1,0.6579,0,17,17,36,1,3,1,3 | 1,2,1.4111,1.9756,incongruent,left,,,,,,stimulusFile/magnitude.xlsx,,,,,,,,,,,,,,,,,,,,,,,,,,,,,,,
,,,,,,,,,,,,,,,789,2022-01-18_12h58.35.291,multiplicationStroop,2021.2.3,Win32,59.03187721,,,,,right,1,0.7228,0,18,18,2,1,6,7,6 | 7,1,1.4111,1.9756,congruent,right,,,,,,stimulusFile/magnitude.xlsx,,,,,,,,,,,,,,,,,,,,,,,,,,,,,,,
,,,,,,,,,,,,,,,789,2022-01-18_12h58.35.291,multiplicationStroop,2021.2.3,Win32,59.03187721,,,,,left,1,0.5744,0,19,19,28,1,2,1,2 | 1,1,1.4111,1.9756,incongruent,left,,,,,,stimulusFile/magnitude.xlsx,,,,,,,,,,,,,,,,,,,,,,,,,,,,,,,
,,,,,,,,,,,,,,,789,2022-01-18_12h58.35.291,multiplicationStroop,2021.2.3,Win32,59.03187721,,,,,left,0,1.1186,0,20,20,24,1,1,2,1 | 2,1,1.9756,1.4111,incongruent,right,,,,,,stimulusFile/magnitude.xlsx,,,,,,,,,,,,,,,,,,,,,,,,,,,,,,,
,,,,,,,,,,,,,,,789,2022-01-18_12h58.35.291,multiplicationStroop,2021.2.3,Win32,59.03187721,,,,,left,1,0.7925,0,21,21,61,1,4,2,4 | 2,2,1.6933,1.6933,neutral,left,,,,,,stimulusFile/magnitude.xlsx,,,,,,,,,,,,,,,,,,,,,,,,,,,,,,,
,,,,,,,,,,,,,,,789,2022-01-18_12h58.35.291,multiplicationStroop,2021.2.3,Win32,59.03187721,,,,,right,1,0.5873,0,22,22,10,1,6,8,6 | 8,2,1.4111,1.9756,congruent,right,,,,,,stimulusFile/magnitude.xlsx,,,,,,,,,,,,,,,,,,,,,,,,,,,,,,,
,,,,,,,,,,,,,,,789,2022-01-18_12h58.35.291,multiplicationStroop,2021.2.3,Win32,59.03187721,,,,,left,1,0.7702,0,23,23,37,1,4,2,4 | 2,2,1.4111,1.9756,incongruent,left,,,,,,stimulusFile/magnitude.xlsx,,,,,,,,,,,,,,,,,,,,,,,,,,,,,,,
,,,,,,,,,,,,,,,789,2022-01-18_12h58.35.291,multiplicationStroop,2021.2.3,Win32,59.03187721,,,,,left,1,0.6333,0,24,24,4,1,2,1,2 | 1,1,1.9756,1.4111,congruent,left,,,,,,stimulusFile/magnitude.xlsx,,,,,,,,,,,,,,,,,,,,,,,,,,,,,,,
,,,,,,,,,,,,,,,789,2022-01-18_12h58.35.291,multiplicationStroop,2021.2.3,Win32,59.03187721,,,,,right,1,0.753,0,25,25,35,1,7,9,7 | 9,2,1.9756,1.4111,incongruent,right,,,,,,stimulusFile/magnitude.xlsx,,,,,,,,,,,,,,,,,,,,,,,,,,,,,,,
,,,,,,,,,,,,,,,789,2022-01-18_12h58.35.291,multiplicationStroop,2021.2.3,Win32,59.03187721,,,,,left,1,0.6496,0,26,26,23,1,9,4,9 | 4,5,1.9756,1.4111,congruent,left,,,,,,stimulusFile/magnitude.xlsx,,,,,,,,,,,,,,,,,,,,,,,,,,,,,,,
,,,,,,,,,,,,,,,789,2022-01-18_12h58.35.291,multiplicationStroop,2021.2.3,Win32,59.03187721,,,,,left,1,0.6839,0,27,27,20,1,6,1,6 | 1,5,1.9756,1.4111,congruent,left,,,,,,stimulusFile/magnitude.xlsx,,,,,,,,,,,,,,,,,,,,,,,,,,,,,,,
,,,,,,,,,,,,,,,789,2022-01-18_12h58.35.291,multiplicationStroop,2021.2.3,Win32,59.03187721,,,,,left,1,0.6001,0,28,28,22,1,8,3,8 | 3,5,1.9756,1.4111,congruent,left,,,,,,stimulusFile/magnitude.xlsx,,,,,,,,,,,,,,,,,,,,,,,,,,,,,,,
,,,,,,,,,,,,,,,789,2022-01-18_12h58.35.291,multiplicationStroop,2021.2.3,Win32,59.03187721,,,,,right,1,0.6278,0,29,29,27,1,8,9,8 | 9,1,1.9756,1.4111,incongruent,right,,,,,,stimulusFile/magnitude.xlsx,,,,,,,,,,,,,,,,,,,,,,,,,,,,,,,
,,,,,,,,,,,,,,,789,2022-01-18_12h58.35.291,multiplicationStroop,2021.2.3,Win32,59.03187721,,,,,left,1,0.5749,0,30,30,7,1,9,8,9 | 8,1,1.9756,1.4111,congruent,left,,,,,,stimulusFile/magnitude.xlsx,,,,,,,,,,,,,,,,,,,,,,,,,,,,,,,
,,,,,,,,,,,,,,,789,2022-01-18_12h58.35.291,multiplicationStroop,2021.2.3,Win32,59.03187721,,,,,left,1,0.6995,0,31,31,63,1,9,7,9 | 7,2,1.6933,1.6933,neutral,left,,,,,,stimulusFile/magnitude.xlsx,,,,,,,,,,,,,,,,,,,,,,,,,,,,,,,
,,,,,,,,,,,,,,,789,2022-01-18_12h58.35.291,multiplicationStroop,2021.2.3,Win32,59.03187721,,,,,right,1,0.7505,0,32,32,3,1,8,9,8 | 9,1,1.4111,1.9756,congruent,right,,,,,,stimulusFile/magnitude.xlsx,,,,,,,,,,,,,,,,,,,,,,,,,,,,,,,
,,,,,,,,,,,,,,,789,2022-01-18_12h58.35.291,multiplicationStroop,2021.2.3,Win32,59.03187721,,,,,right,1,0.5841,0,33,33,19,1,4,9,4 | 9,5,1.4111,1.9756,congruent,right,,,,,,stimulusFile/magnitude.xlsx,,,,,,,,,,,,,,,,,,,,,,,,,,,,,,,
,,,,,,,,,,,,,,,789,2022-01-18_12h58.35.291,multiplicationStroop,2021.2.3,Win32,59.03187721,,,,,left,1,0.667,0,34,34,62,1,8,6,8 | 6,2,1.6933,1.6933,neutral,left,,,,,,stimulusFile/magnitude.xlsx,,,,,,,,,,,,,,,,,,,,,,,,,,,,,,,
,,,,,,,,,,,,,,,789,2022-01-18_12h58.35.291,multiplicationStroop,2021.2.3,Win32,59.03187721,,,,,right,1,0.5832,0,35,35,9,1,2,4,2 | 4,2,1.4111,1.9756,congruent,right,,,,,,stimulusFile/magnitude.xlsx,,,,,,,,,,,,,,,,,,,,,,,,,,,,,,,
,,,,,,,,,,,,,,,789,2022-01-18_12h58.35.291,multiplicationStroop,2021.2.3,Win32,59.03187721,,,,,left,1,0.6663,0,36,36,31,1,9,8,9 | 8,1,1.4111,1.9756,incongruent,left,,,,,,stimulusFile/magnitude.xlsx,,,,,,,,,,,,,,,,,,,,,,,,,,,,,,,
,,,,,,,,,,,,,,,789,2022-01-18_12h58.35.291,multiplicationStroop,2021.2.3,Win32,59.03187721,,,,,left,1,0.5957,0,37,37,21,1,7,2,7 | 2,5,1.9756,1.4111,congruent,left,,,,,,stimulusFile/magnitude.xlsx,,,,,,,,,,,,,,,,,,,,,,,,,,,,,,,
,,,,,,,,,,,,,,,789,2022-01-18_12h58.35.291,multiplicationStroop,2021.2.3,Win32,59.03187721,,,,,right,1,0.5936,0,38,38,56,1,1,3,1 | 3,2,1.6933,1.6933,neutral,right,,,,,,stimulusFile/magnitude.xlsx,,,,,,,,,,,,,,,,,,,,,,,,,,,,,,,
,,,,,,,,,,,,,,,789,2022-01-18_12h58.35.291,multiplicationStroop,2021.2.3,Win32,59.03187721,,,,,right,1,0.6197,0,39,39,1,1,3,4,3 | 4,1,1.4111,1.9756,congruent,right,,,,,,stimulusFile/magnitude.xlsx,,,,,,,,,,,,,,,,,,,,,,,,,,,,,,,
,,,,,,,,,,,,,,,789,2022-01-18_12h58.35.291,multiplicationStroop,2021.2.3,Win32,59.03187721,,,,,right,1,1.5508,0,40,40,11,1,7,9,7 | 9,2,1.4111,1.9756,congruent,right,,,,,,stimulusFile/magnitude.xlsx,,,,,,,,,,,,,,,,,,,,,,,,,,,,,,,
,,,,,,,,,,,,,,,789,2022-01-18_12h58.35.291,multiplicationStroop,2021.2.3,Win32,59.03187721,,,,,left,1,0.8562,0,41,41,70,1,8,3,8 | 3,5,1.6933,1.6933,neutral,left,,,,,,stimulusFile/magnitude.xlsx,,,,,,,,,,,,,,,,,,,,,,,,,,,,,,,
,,,,,,,,,,,,,,,789,2022-01-18_12h58.35.291,multiplicationStroop,2021.2.3,Win32,59.03187721,,,,,right,1,1.1899,0,42,42,43,1,4,9,4 | 9,5,1.9756,1.4111,incongruent,right,,,,,,stimulusFile/magnitude.xlsx,,,,,,,,,,,,,,,,,,,,,,,,,,,,,,,
,,,,,,,,,,,,,,,789,2022-01-18_12h58.35.291,multiplicationStroop,2021.2.3,Win32,59.03187721,,,,,left,1,0.9675,0,43,43,71,1,9,4,9 | 4,5,1.6933,1.6933,neutral,left,,,,,,stimulusFile/magnitude.xlsx,,,,,,,,,,,,,,,,,,,,,,,,,,,,,,,
,,,,,,,,,,,,,,,789,2022-01-18_12h58.35.291,multiplicationStroop,2021.2.3,Win32,59.03187721,,,,,right,1,0.6838,0,44,44,41,1,2,7,2 | 7,5,1.9756,1.4111,incongruent,right,,,,,,stimulusFile/magnitude.xlsx,,,,,,,,,,,,,,,,,,,,,,,,,,,,,,,
,,,,,,,,,,,,,,,789,2022-01-18_12h58.35.291,multiplicationStroop,2021.2.3,Win32,59.03187721,,,,,left,1,0.6505,0,45,45,53,1,4,3,4 | 3,1,1.6933,1.6933,neutral,left,,,,,,stimulusFile/magnitude.xlsx,,,,,,,,,,,,,,,,,,,,,,,,,,,,,,,
,,,,,,,,,,,,,,,789,2022-01-18_12h58.35.291,multiplicationStroop,2021.2.3,Win32,59.03187721,,,,,right,1,0.7448,0,46,46,0,1,1,2,1 | 2,1,1.4111,1.9756,congruent,right,,,,,,stimulusFile/magnitude.xlsx,,,,,,,,,,,,,,,,,,,,,,,,,,,,,,,
,,,,,,,,,,,,,,,789,2022-01-18_12h58.35.291,multiplicationStroop,2021.2.3,Win32,59.03187721,,,,,right,1,0.6673,0,47,47,67,1,4,9,4 | 9,5,1.6933,1.6933,neutral,right,,,,,,stimulusFile/magnitude.xlsx,,,,,,,,,,,,,,,,,,,,,,,,,,,,,,,
,,,,,,,,,,,,,,,789,2022-01-18_12h58.35.291,multiplicationStroop,2021.2.3,Win32,59.03187721,,,,,left,1,0.61,0,48,48,29,1,4,3,4 | 3,1,1.4111,1.9756,incongruent,left,,,,,,stimulusFile/magnitude.xlsx,,,,,,,,,,,,,,,,,,,,,,,,,,,,,,,
,,,,,,,,,,,,,,,789,2022-01-18_12h58.35.291,multiplicationStroop,2021.2.3,Win32,59.03187721,,,,,right,1,0.6771,0,49,49,25,1,3,4,3 | 4,1,1.9756,1.4111,incongruent,right,,,,,,stimulusFile/magnitude.xlsx,,,,,,,,,,,,,,,,,,,,,,,,,,,,,,,
,,,,,,,,,,,,,,,789,2022-01-18_12h58.35.291,multiplicationStroop,2021.2.3,Win32,59.03187721,,,,,left,1,0.6424,0,50,50,6,1,7,6,7 | 6,1,1.9756,1.4111,congruent,left,,,,,,stimulusFile/magnitude.xlsx,,,,,,,,,,,,,,,,,,,,,,,,,,,,,,,
,,,,,,,,,,,,,,,789,2022-01-18_12h58.35.291,multiplicationStroop,2021.2.3,Win32,59.03187721,,,,,right,1,0.617,0,51,51,18,1,3,8,3 | 8,5,1.4111,1.9756,congruent,right,,,,,,stimulusFile/magnitude.xlsx,,,,,,,,,,,,,,,,,,,,,,,,,,,,,,,
,,,,,,,,,,,,,,,789,2022-01-18_12h58.35.291,multiplicationStroop,2021.2.3,Win32,59.03187721,,,,,left,1,0.6414,0,52,52,30,1,7,6,7 | 6,1,1.4111,1.9756,incongruent,left,,,,,,stimulusFile/magnitude.xlsx,,,,,,,,,,,,,,,,,,,,,,,,,,,,,,,
,,,,,,,,,,,,,,,789,2022-01-18_12h58.35.291,multiplicationStroop,2021.2.3,Win32,59.03187721,,,,,right,1,0.9165,0,53,53,58,1,6,8,6 | 8,2,1.6933,1.6933,neutral,right,,,,,,stimulusFile/magnitude.xlsx,,,,,,,,,,,,,,,,,,,,,,,,,,,,,,,
,,,,,,,,,,,,,,,789,2022-01-18_12h58.35.291,multiplicationStroop,2021.2.3,Win32,59.03187721,,,,,left,1,0.612,0,54,54,12,1,3,1,3 | 1,2,1.9756,1.4111,congruent,left,,,,,,stimulusFile/magnitude.xlsx,,,,,,,,,,,,,,,,,,,,,,,,,,,,,,,
,,,,,,,,,,,,,,,789,2022-01-18_12h58.35.291,multiplicationStroop,2021.2.3,Win32,59.03187721,,,,,left,1,0.5354,0,55,55,5,1,4,3,4 | 3,1,1.9756,1.4111,congruent,left,,,,,,stimulusFile/magnitude.xlsx,,,,,,,,,,,,,,,,,,,,,,,,,,,,,,,
,,,,,,,,,,,,,,,789,2022-01-18_12h58.35.291,multiplicationStroop,2021.2.3,Win32,59.03187721,,,,,left,1,0.6531,0,56,56,45,1,7,2,7 | 2,5,1.4111,1.9756,incongruent,left,,,,,,stimulusFile/magnitude.xlsx,,,,,,,,,,,,,,,,,,,,,,,,,,,,,,,
,,,,,,,,,,,,,,,789,2022-01-18_12h58.35.291,multiplicationStroop,2021.2.3,Win32,59.03187721,,,,,left,1,0.638,0,57,57,44,1,6,1,6 | 1,5,1.4111,1.9756,incongruent,left,,,,,,stimulusFile/magnitude.xlsx,,,,,,,,,,,,,,,,,,,,,,,,,,,,,,,
,,,,,,,,,,,,,,,789,2022-01-18_12h58.35.291,multiplicationStroop,2021.2.3,Win32,59.03187721,,,,,right,1,0.5289,0,58,58,59,1,7,9,7 | 9,2,1.6933,1.6933,neutral,right,,,,,,stimulusFile/magnitude.xlsx,,,,,,,,,,,,,,,,,,,,,,,,,,,,,,,
,,,,,,,,,,,,,,,789,2022-01-18_12h58.35.291,multiplicationStroop,2021.2.3,Win32,59.03187721,,,,,left,1,0.5583,0,59,59,60,1,3,1,3 | 1,2,1.6933,1.6933,neutral,left,,,,,,stimulusFile/magnitude.xlsx,,,,,,,,,,,,,,,,,,,,,,,,,,,,,,,
,,,,,,,,,,,,,,,789,2022-01-18_12h58.35.291,multiplicationStroop,2021.2.3,Win32,59.03187721,,,,,right,1,0.5542,0,60,60,65,1,2,7,2 | 7,5,1.6933,1.6933,neutral,right,,,,,,stimulusFile/magnitude.xlsx,,,,,,,,,,,,,,,,,,,,,,,,,,,,,,,
,,,,,,,,,,,,,,,789,2022-01-18_12h58.35.291,multiplicationStroop,2021.2.3,Win32,59.03187721,,,,,right,1,0.777,0,61,61,33,1,2,4,2 | 4,2,1.9756,1.4111,incongruent,right,,,,,,stimulusFile/magnitude.xlsx,,,,,,,,,,,,,,,,,,,,,,,,,,,,,,,
,,,,,,,,,,,,,,,789,2022-01-18_12h58.35.291,multiplicationStroop,2021.2.3,Win32,59.03187721,,,,,right,1,0.6789,0,62,62,66,1,3,8,3 | 8,5,1.6933,1.6933,neutral,right,,,,,,stimulusFile/magnitude.xlsx,,,,,,,,,,,,,,,,,,,,,,,,,,,,,,,
,,,,,,,,,,,,,,,789,2022-01-18_12h58.35.291,multiplicationStroop,2021.2.3,Win32,59.03187721,,,,,left,1,0.6074,0,63,63,55,1,9,8,9 | 8,1,1.6933,1.6933,neutral,left,,,,,,stimulusFile/magnitude.xlsx,,,,,,,,,,,,,,,,,,,,,,,,,,,,,,,
,,,,,,,,,,,,,,,789,2022-01-18_12h58.35.291,multiplicationStroop,2021.2.3,Win32,59.03187721,,,,,right,1,0.5502,0,64,64,57,1,2,4,2 | 4,2,1.6933,1.6933,neutral,right,,,,,,stimulusFile/magnitude.xlsx,,,,,,,,,,,,,,,,,,,,,,,,,,,,,,,
,,,,,,,,,,,,,,,789,2022-01-18_12h58.35.291,multiplicationStroop,2021.2.3,Win32,59.03187721,,,,,right,1,0.5669,0,65,65,32,1,1,3,1 | 3,2,1.9756,1.4111,incongruent,right,,,,,,stimulusFile/magnitude.xlsx,,,,,,,,,,,,,,,,,,,,,,,,,,,,,,,
,,,,,,,,,,,,,,,789,2022-01-18_12h58.35.291,multiplicationStroop,2021.2.3,Win32,59.03187721,,,,,left,1,0.5333,0,66,66,68,1,6,1,6 | 1,5,1.6933,1.6933,neutral,left,,,,,,stimulusFile/magnitude.xlsx,,,,,,,,,,,,,,,,,,,,,,,,,,,,,,,
,,,,,,,,,,,,,,,789,2022-01-18_12h58.35.291,multiplicationStroop,2021.2.3,Win32,59.03187721,,,,,left,1,0.7256,0,67,67,69,1,7,2,7 | 2,5,1.6933,1.6933,neutral,left,,,,,,stimulusFile/magnitude.xlsx,,,,,,,,,,,,,,,,,,,,,,,,,,,,,,,
,,,,,,,,,,,,,,,789,2022-01-18_12h58.35.291,multiplicationStroop,2021.2.3,Win32,59.03187721,,,,,right,1,0.5525,0,68,68,42,1,3,8,3 | 8,5,1.9756,1.4111,incongruent,right,,,,,,stimulusFile/magnitude.xlsx,,,,,,,,,,,,,,,,,,,,,,,,,,,,,,,
,,,,,,,,,,,,,,,789,2022-01-18_12h58.35.291,multiplicationStroop,2021.2.3,Win32,59.03187721,,,,,left,1,0.5498,0,69,69,46,1,8,3,8 | 3,5,1.4111,1.9756,incongruent,left,,,,,,stimulusFile/magnitude.xlsx,,,,,,,,,,,,,,,,,,,,,,,,,,,,,,,
,,,,,,,,,,,,,,,789,2022-01-18_12h58.35.291,multiplicationStroop,2021.2.3,Win32,59.03187721,,,,,left,1,0.6894,0,70,70,13,1,4,2,4 | 2,2,1.9756,1.4111,congruent,left,,,,,,stimulusFile/magnitude.xlsx,,,,,,,,,,,,,,,,,,,,,,,,,,,,,,,
,,,,,,,,,,,,,,,789,2022-01-18_12h58.35.291,multiplicationStroop,2021.2.3,Win32,59.03187721,,,,,right,1,0.6425,0,71,71,8,1,1,3,1 | 3,2,1.4111,1.9756,congruent,right,,,,,,stimulusFile/magnitude.xlsx,,,,,,,,,,,,,,,,,,,,,,,,,,,,,,,
,,,,,,,,,,,,,,,789,2022-01-18_12h58.35.291,multiplicationStroop,2021.2.3,Win32,59.03187721,,,,,,,,,,,,,,,,,,,,,0,1,1,0,1,stimulusFile/magnitude.xlsx,NUMERICALLY larger (larger coefficient).,images/numericallyLarger.png,,,,,,,,,,,,,,,,,,,,,,,,,,,,,
,,,,,,,,,,,,,,,789,2022-01-18_12h58.35.291,multiplicationStroop,2021.2.3,Win32,59.03187721,,,,,,,,,,,,,,,,,,,,,,,,,,,,,space,12.4924,space,5.9409,25,3.0962,1,0,0,0,31,1,5,×,5,5 × 5,neutral,tie,1,2,25,,,,,,,,
,,,,,,,,,,,,,,,789,2022-01-18_12h58.35.291,multiplicationStroop,2021.2.3,Win32,59.03187721,,,,,,,,,,,,,,,,,,,,,,,,,,,,,,,,,4,1.4484,1,0,1,1,28,1,2,×,2,2 × 2,neutral,tie,1,2,4,,,,,,,,
,,,,,,,,,,,,,,,789,2022-01-18_12h58.35.291,multiplicationStroop,2021.2.3,Win32,59.03187721,,,,,,,,,,,,,,,,,,,,,,,,,,,,,,,,,8,1.716,1,0,2,2,23,1,4,×,2,4 × 2,congruent,largerFirst,2,1,8,,,,,,,,
,,,,,,,,,,,,,,,789,2022-01-18_12h58.35.291,multiplicationStroop,2021.2.3,Win32,59.03187721,,,,,,,,,,,,,,,,,,,,,,,,,,,,,,,,,10,1.799,1,0,3,3,10,1,2,×,5,2 × 5,congruent,smallerFirst,1,2,10,,,,,,,,
,,,,,,,,,,,,,,,789,2022-01-18_12h58.35.291,multiplicationStroop,2021.2.3,Win32,59.03187721,,,,,,,,,,,,,,,,,,,,,,,,,,,,,,,,,18,1.8822,1,0,4,4,8,1,2,×,9,2 × 9,congruent,smallerFirst,1,2,18,,,,,,,,
,,,,,,,,,,,,,,,789,2022-01-18_12h58.35.291,multiplicationStroop,2021.2.3,Win32,59.03187721,,,,,,,,,,,,,,,,,,,,,,,,,,,,,,,,,32,2.7994,1,0,5,5,6,1,4,×,8,4 × 8,congruent,smallerFirst,1,2,32,,,,,,,,
,,,,,,,,,,,,,,,789,2022-01-18_12h58.35.291,multiplicationStroop,2021.2.3,Win32,59.03187721,,,,,,,,,,,,,,,,,,,,,,,,,,,,,,,,,28,1.8219,1,0,6,6,13,1,4,×,7,4 × 7,congruent,smallerFirst,1,2,28,,,,,,,,
,,,,,,,,,,,,,,,789,2022-01-18_12h58.35.291,multiplicationStroop,2021.2.3,Win32,59.03187721,,,,,,,,,,,,,,,,,,,,,,,,,,,,,,,,,42,2.049,1,0,7,7,17,1,7,×,6,7 × 6,congruent,largerFirst,2,1,42,,,,,,,,
,,,,,,,,,,,,,,,789,2022-01-18_12h58.35.291,multiplicationStroop,2021.2.3,Win32,59.03187721,,,,,,,,,,,,,,,,,,,,,,,,,,,,,,,,,40,1.8491,1,0,8,8,20,1,8,×,5,8 × 5,congruent,largerFirst,2,1,40,,,,,,,,
,,,,,,,,,,,,,,,789,2022-01-18_12h58.35.291,multiplicationStroop,2021.2.3,Win32,59.03187721,,,,,,,,,,,,,,,,,,,,,,,,,,,,,,,,,14,1.5827,1,0,9,9,0,1,2,×,7,2 × 7,congruent,smallerFirst,1,2,14,,,,,,,,
,,,,,,,,,,,,,,,789,2022-01-18_12h58.35.291,multiplicationStroop,2021.2.3,Win32,59.03187721,,,,,,,,,,,,,,,,,,,,,,,,,,,,,,,,,36,1.6823,1,0,10,10,32,1,6,×,6,6 × 6,neutral,tie,1,2,36,,,,,,,,
,,,,,,,,,,,,,,,789,2022-01-18_12h58.35.291,multiplicationStroop,2021.2.3,Win32,59.03187721,,,,,,,,,,,,,,,,,,,,,,,,,,,,,,,,,45,1.8163,1,0,11,11,9,1,5,×,9,5 × 9,congruent,smallerFirst,1,2,45,,,,,,,,
,,,,,,,,,,,,,,,789,2022-01-18_12h58.35.291,multiplicationStroop,2021.2.3,Win32,59.03187721,,,,,,,,,,,,,,,,,,,,,,,,,,,,,,,,,35,1.8159,1,0,12,12,15,1,7,×,5,7 × 5,congruent,largerFirst,2,1,35,,,,,,,,
,,,,,,,,,,,,,,,789,2022-01-18_12h58.35.291,multiplicationStroop,2021.2.3,Win32,59.03187721,,,,,,,,,,,,,,,,,,,,,,,,,,,,,,,,,81,2.9493,1,0,13,13,35,1,9,×,9,9 × 9,neutral,tie,1,2,81,,,,,,,,
,,,,,,,,,,,,,,,789,2022-01-18_12h58.35.291,multiplicationStroop,2021.2.3,Win32,59.03187721,,,,,,,,,,,,,,,,,,,,,,,,,,,,,,,,,72,2.355,1,0,14,14,3,1,8,×,9,8 × 9,congruent,smallerFirst,1,2,72,,,,,,,,
,,,,,,,,,,,,,,,789,2022-01-18_12h58.35.291,multiplicationStroop,2021.2.3,Win32,59.03187721,,,,,,,,,,,,,,,,,,,,,,,,,,,,,,,,,6,1.8335,1,0,15,15,27,1,3,×,2,3 × 2,congruent,largerFirst,2,1,6,,,,,,,,
,,,,,,,,,,,,,,,789,2022-01-18_12h58.35.291,multiplicationStroop,2021.2.3,Win32,59.03187721,,,,,,,,,,,,,,,,,,,,,,,,,,,,,,,,,56,1.7657,1,0,16,16,22,1,8,×,7,8 × 7,congruent,largerFirst,2,1,56,,,,,,,,
,,,,,,,,,,,,,,,789,2022-01-18_12h58.35.291,multiplicationStroop,2021.2.3,Win32,59.03187721,,,,,,,,,,,,,,,,,,,,,,,,,,,,,,,,,48,2.8326,1,0,17,17,4,1,6,×,8,6 × 8,congruent,smallerFirst,1,2,48,,,,,,,,
,,,,,,,,,,,,,,,789,2022-01-18_12h58.35.291,multiplicationStroop,2021.2.3,Win32,59.03187721,,,,,,,,,,,,,,,,,,,,,,,,,,,,,,,,,30,2.0992,1,0,18,18,1,1,5,×,6,5 × 6,congruent,smallerFirst,1,2,30,,,,,,,,
,,,,,,,,,,,,,,,789,2022-01-18_12h58.35.291,multiplicationStroop,2021.2.3,Win32,59.03187721,,,,,,,,,,,,,,,,,,,,,,,,,,,,,,,,,16,1.8491,1,0,19,19,30,1,4,×,4,4 × 4,neutral,tie,1,2,16,,,,,,,,
,,,,,,,,,,,,,,,789,2022-01-18_12h58.35.291,multiplicationStroop,2021.2.3,Win32,59.03187721,,,,,,,,,,,,,,,,,,,,,,,,,,,,,,,,,12,1.3994,1,0,20,20,5,1,2,×,6,2 × 6,congruent,smallerFirst,1,2,12,,,,,,,,
,,,,,,,,,,,,,,,789,2022-01-18_12h58.35.291,multiplicationStroop,2021.2.3,Win32,59.03187721,,,,,,,,,,,,,,,,,,,,,,,,,,,,,,,,,24,1.7992,1,0,21,21,11,1,4,×,6,4 × 6,congruent,smallerFirst,1,2,24,,,,,,,,
,,,,,,,,,,,,,,,789,2022-01-18_12h58.35.291,multiplicationStroop,2021.2.3,Win32,59.03187721,,,,,,,,,,,,,,,,,,,,,,,,,,,,,,,,,24,1.8658,1,0,22,22,24,1,8,×,3,8 × 3,congruent,largerFirst,2,1,24,,,,,,,,
,,,,,,,,,,,,,,,789,2022-01-18_12h58.35.291,multiplicationStroop,2021.2.3,Win32,59.03187721,,,,,,,,,,,,,,,,,,,,,,,,,,,,,,,,,15,1.8491,1,0,23,23,18,1,5,×,3,5 × 3,congruent,largerFirst,2,1,15,,,,,,,,
,,,,,,,,,,,,,,,789,2022-01-18_12h58.35.291,multiplicationStroop,2021.2.3,Win32,59.03187721,,,,,,,,,,,,,,,,,,,,,,,,,,,,,,,,,6,3.0326,0,0,24,24,7,1,7,×,9,7 × 9,congruent,smallerFirst,1,2,63,,,,,,,,
,,,,,,,,,,,,,,,789,2022-01-18_12h58.35.291,multiplicationStroop,2021.2.3,Win32,59.03187721,,,,,,,,,,,,,,,,,,,,,,,,,,,,,,,,,49,4.8703,1,0,25,25,33,1,7,×,7,7 × 7,neutral,tie,1,2,49,,,,,,,,
,,,,,,,,,,,,,,,789,2022-01-18_12h58.35.291,multiplicationStroop,2021.2.3,Win32,59.03187721,,,,,,,,,,,,,,,,,,,,,,,,,,,,,,,,,16,1.7729,1,0,26,26,19,1,8,×,2,8 × 2,congruent,largerFirst,2,1,16,,,,,,,,
,,,,,,,,,,,,,,,789,2022-01-18_12h58.35.291,multiplicationStroop,2021.2.3,Win32,59.03187721,,,,,,,,,,,,,,,,,,,,,,,,,,,,,,,,,54,2.199,1,0,27,27,26,1,9,×,6,9 × 6,congruent,largerFirst,2,1,54,,,,,,,,
,,,,,,,,,,,,,,,789,2022-01-18_12h58.35.291,multiplicationStroop,2021.2.3,Win32,59.03187721,,,,,,,,,,,,,,,,,,,,,,,,,,,,,,,,,12,1.3995,1,0,28,28,16,1,4,×,3,4 × 3,congruent,largerFirst,2,1,12,,,,,,,,
,,,,,,,,,,,,,,,789,2022-01-18_12h58.35.291,multiplicationStroop,2021.2.3,Win32,59.03187721,,,,,,,,,,,,,,,,,,,,,,,,,,,,,,,,,64,2.7156,1,0,29,29,34,1,8,×,8,8 × 8,neutral,tie,1,2,64,,,,,,,,
,,,,,,,,,,,,,,,789,2022-01-18_12h58.35.291,multiplicationStroop,2021.2.3,Win32,59.03187721,,,,,,,,,,,,,,,,,,,,,,,,,,,,,,,,,36,2.199,1,0,30,30,14,1,9,×,4,9 × 4,congruent,largerFirst,2,1,36,,,,,,,,
,,,,,,,,,,,,,,,789,2022-01-18_12h58.35.291,multiplicationStroop,2021.2.3,Win32,59.03187721,,,,,,,,,,,,,,,,,,,,,,,,,,,,,,,,,9,1.6746,1,0,31,31,29,1,3,×,3,3 × 3,neutral,tie,1,2,9,,,,,,,,
,,,,,,,,,,,,,,,789,2022-01-18_12h58.35.291,multiplicationStroop,2021.2.3,Win32,59.03187721,,,,,,,,,,,,,,,,,,,,,,,,,,,,,,,,,21,1.5828,1,0,32,32,2,1,3,×,7,3 × 7,congruent,smallerFirst,1,2,21,,,,,,,,
,,,,,,,,,,,,,,,789,2022-01-18_12h58.35.291,multiplicationStroop,2021.2.3,Win32,59.03187721,,,,,,,,,,,,,,,,,,,,,,,,,,,,,,,,,27,2.3323,1,0,33,33,12,1,3,×,9,3 × 9,congruent,smallerFirst,1,2,27,,,,,,,,
,,,,,,,,,,,,,,,789,2022-01-18_12h58.35.291,multiplicationStroop,2021.2.3,Win32,59.03187721,,,,,,,,,,,,,,,,,,,,,,,,,,,,,,,,,18,2.2493,1,0,34,34,25,1,6,×,3,6 × 3,congruent,largerFirst,2,1,18,,,,,,,,
,,,,,,,,,,,,,,,789,2022-01-18_12h58.35.291,multiplicationStroop,2021.2.3,Win32,59.03187721,,,,,,,,,,,,,,,,,,,,,,,,,,,,,,,,,20,1.8823,1,0,35,35,21,1,5,×,4,5 × 4,congruent,largerFirst,2,1,20,,,,,,,,
,,,,,,,,,,,,,,,789,2022-01-18_12h58.35.291,multiplicationStroop,2021.2.3,Win32,59.03187721,,,,,,,,,,,,,,,,,,,,,,,,,,,,,,,,,,,,,,,,,,,,,,,,,,0,0,0,3,1,stimulusFile/mult_blk4_congruent.xlsx,,
,,,,,,,,,,,,,,,789,2022-01-18_12h58.35.291,multiplicationStroop,2021.2.3,Win32,59.03187721,,,,,,,,,,,,,,,,,,,,,,,,,,,,,,,space,1.7448,9,1.5711,1,0,0,0,29,1,3,×,3,3 × 3,incongruent,tie,1,2,9,,,,,,,,
,,,,,,,,,,,,,,,789,2022-01-18_12h58.35.291,multiplicationStroop,2021.2.3,Win32,59.03187721,,,,,,,,,,,,,,,,,,,,,,,,,,,,,,,,,16,2.5991,1,0,1,1,30,1,4,×,4,4 × 4,incongruent,tie,1,2,16,,,,,,,,
,,,,,,,,,,,,,,,789,2022-01-18_12h58.35.291,multiplicationStroop,2021.2.3,Win32,59.03187721,,,,,,,,,,,,,,,,,,,,,,,,,,,,,,,,,16,2.0652,1,0,2,2,23,1,8,×,2,8 × 2,incongruent,largerFirst,1,2,16,,,,,,,,
,,,,,,,,,,,,,,,789,2022-01-18_12h58.35.291,multiplicationStroop,2021.2.3,Win32,59.03187721,,,,,,,,,,,,,,,,,,,,,,,,,,,,,,,,,35,2.033,1,0,3,3,12,1,5,×,7,5 × 7,incongruent,smallerFirst,2,1,35,,,,,,,,
,,,,,,,,,,,,,,,789,2022-01-18_12h58.35.291,multiplicationStroop,2021.2.3,Win32,59.03187721,,,,,,,,,,,,,,,,,,,,,,,,,,,,,,,,,27,1.8987,1,0,4,4,18,1,9,×,3,9 × 3,incongruent,largerFirst,1,2,27,,,,,,,,
,,,,,,,,,,,,,,,789,2022-01-18_12h58.35.291,multiplicationStroop,2021.2.3,Win32,59.03187721,,,,,,,,,,,,,,,,,,,,,,,,,,,,,,,,,15,2.0659,1,0,5,5,10,1,3,×,5,3 × 5,incongruent,smallerFirst,2,1,15,,,,,,,,
,,,,,,,,,,,,,,,789,2022-01-18_12h58.35.291,multiplicationStroop,2021.2.3,Win32,59.03187721,,,,,,,,,,,,,,,,,,,,,,,,,,,,,,,,,36,1.9489,1,0,6,6,15,1,9,×,4,9 × 4,incongruent,largerFirst,1,2,36,,,,,,,,
,,,,,,,,,,,,,,,789,2022-01-18_12h58.35.291,multiplicationStroop,2021.2.3,Win32,59.03187721,,,,,,,,,,,,,,,,,,,,,,,,,,,,,,,,,6,1.8331,1,0,7,7,11,1,2,×,3,2 × 3,incongruent,smallerFirst,2,1,6,,,,,,,,
,,,,,,,,,,,,,,,789,2022-01-18_12h58.35.291,multiplicationStroop,2021.2.3,Win32,59.03187721,,,,,,,,,,,,,,,,,,,,,,,,,,,,,,,,,12,1.4823,1,0,8,8,5,1,3,×,4,3 × 4,incongruent,smallerFirst,2,1,12,,,,,,,,
,,,,,,,,,,,,,,,789,2022-01-18_12h58.35.291,multiplicationStroop,2021.2.3,Win32,59.03187721,,,,,,,,,,,,,,,,,,,,,,,,,,,,,,,,,42,1.8492,1,0,9,9,17,1,7,×,6,7 × 6,incongruent,largerFirst,1,2,42,,,,,,,,
,,,,,,,,,,,,,,,789,2022-01-18_12h58.35.291,multiplicationStroop,2021.2.3,Win32,59.03187721,,,,,,,,,,,,,,,,,,,,,,,,,,,,,,,,,30,1.8826,1,0,10,10,25,1,6,×,5,6 × 5,incongruent,largerFirst,1,2,30,,,,,,,,
,,,,,,,,,,,,,,,789,2022-01-18_12h58.35.291,multiplicationStroop,2021.2.3,Win32,59.03187721,,,,,,,,,,,,,,,,,,,,,,,,,,,,,,,,,14,2.0986,1,0,11,11,4,1,2,×,7,2 × 7,incongruent,smallerFirst,2,1,14,,,,,,,,
,,,,,,,,,,,,,,,789,2022-01-18_12h58.35.291,multiplicationStroop,2021.2.3,Win32,59.03187721,,,,,,,,,,,,,,,,,,,,,,,,,,,,,,,,,24,1.5991,1,0,12,12,20,1,6,×,4,6 × 4,incongruent,largerFirst,1,2,24,,,,,,,,
,,,,,,,,,,,,,,,789,2022-01-18_12h58.35.291,multiplicationStroop,2021.2.3,Win32,59.03187721,,,,,,,,,,,,,,,,,,,,,,,,,,,,,,,,,63,3.8994,1,0,13,13,3,1,7,×,9,7 × 9,incongruent,smallerFirst,2,1,63,,,,,,,,
,,,,,,,,,,,,,,,789,2022-01-18_12h58.35.291,multiplicationStroop,2021.2.3,Win32,59.03187721,,,,,,,,,,,,,,,,,,,,,,,,,,,,,,,,,45,2.0066,1,0,14,14,22,1,9,×,5,9 × 5,incongruent,largerFirst,1,2,45,,,,,,,,
,,,,,,,,,,,,,,,789,2022-01-18_12h58.35.291,multiplicationStroop,2021.2.3,Win32,59.03187721,,,,,,,,,,,,,,,,,,,,,,,,,,,,,,,,,72,2.499,1,0,15,15,0,1,8,×,9,8 × 9,incongruent,smallerFirst,2,1,72,,,,,,,,
,,,,,,,,,,,,,,,789,2022-01-18_12h58.35.291,multiplicationStroop,2021.2.3,Win32,59.03187721,,,,,,,,,,,,,,,,,,,,,,,,,,,,,,,,,40,1.9655,1,0,16,16,13,1,5,×,8,5 × 8,incongruent,smallerFirst,2,1,40,,,,,,,,
,,,,,,,,,,,,,,,789,2022-01-18_12h58.35.291,multiplicationStroop,2021.2.3,Win32,59.03187721,,,,,,,,,,,,,,,,,,,,,,,,,,,,,,,,,20,1.8994,1,0,17,17,27,1,5,×,4,5 × 4,incongruent,largerFirst,1,2,20,,,,,,,,
,,,,,,,,,,,,,,,789,2022-01-18_12h58.35.291,multiplicationStroop,2021.2.3,Win32,59.03187721,,,,,,,,,,,,,,,,,,,,,,,,,,,,,,,,,4,1.3658,1,0,18,18,28,1,2,×,2,2 × 2,incongruent,tie,1,2,4,,,,,,,,
,,,,,,,,,,,,,,,789,2022-01-18_12h58.35.291,multiplicationStroop,2021.2.3,Win32,59.03187721,,,,,,,,,,,,,,,,,,,,,,,,,,,,,,,,,48,2.599,1,0,19,19,1,1,6,×,8,6 × 8,incongruent,smallerFirst,2,1,48,,,,,,,,
,,,,,,,,,,,,,,,789,2022-01-18_12h58.35.291,multiplicationStroop,2021.2.3,Win32,59.03187721,,,,,,,,,,,,,,,,,,,,,,,,,,,,,,,,,54,2.3492,1,0,20,20,6,1,6,×,9,6 × 9,incongruent,smallerFirst,2,1,54,,,,,,,,
,,,,,,,,,,,,,,,789,2022-01-18_12h58.35.291,multiplicationStroop,2021.2.3,Win32,59.03187721,,,,,,,,,,,,,,,,,,,,,,,,,,,,,,,,,21,1.5154,1,0,21,21,26,1,7,×,3,7 × 3,incongruent,largerFirst,1,2,21,,,,,,,,
,,,,,,,,,,,,,,,789,2022-01-18_12h58.35.291,multiplicationStroop,2021.2.3,Win32,59.03187721,,,,,,,,,,,,,,,,,,,,,,,,,,,,,,,,,28,4.6497,1,0,22,22,16,1,7,×,4,7 × 4,incongruent,largerFirst,1,2,28,,,,,,,,
,,,,,,,,,,,,,,,789,2022-01-18_12h58.35.291,multiplicationStroop,2021.2.3,Win32,59.03187721,,,,,,,,,,,,,,,,,,,,,,,,,,,,,,,,,10,1.8225,1,0,23,23,21,1,5,×,2,5 × 2,incongruent,largerFirst,1,2,10,,,,,,,,
,,,,,,,,,,,,,,,789,2022-01-18_12h58.35.291,multiplicationStroop,2021.2.3,Win32,59.03187721,,,,,,,,,,,,,,,,,,,,,,,,,,,,,,,,,81,2.1656,1,0,24,24,35,1,9,×,9,9 × 9,incongruent,tie,1,2,81,,,,,,,,
,,,,,,,,,,,,,,,789,2022-01-18_12h58.35.291,multiplicationStroop,2021.2.3,Win32,59.03187721,,,,,,,,,,,,,,,,,,,,,,,,,,,,,,,,,64,2.5822,1,0,25,25,34,1,8,×,8,8 × 8,incongruent,tie,1,2,64,,,,,,,,
,,,,,,,,,,,,,,,789,2022-01-18_12h58.35.291,multiplicationStroop,2021.2.3,Win32,59.03187721,,,,,,,,,,,,,,,,,,,,,,,,,,,,,,,,,18,2.0818,1,0,26,26,2,1,2,×,9,2 × 9,incongruent,smallerFirst,2,1,18,,,,,,,,
,,,,,,,,,,,,,,,789,2022-01-18_12h58.35.291,multiplicationStroop,2021.2.3,Win32,59.03187721,,,,,,,,,,,,,,,,,,,,,,,,,,,,,,,,,32,1.7494,1,0,27,27,7,1,4,×,8,4 × 8,incongruent,smallerFirst,2,1,32,,,,,,,,
,,,,,,,,,,,,,,,789,2022-01-18_12h58.35.291,multiplicationStroop,2021.2.3,Win32,59.03187721,,,,,,,,,,,,,,,,,,,,,,,,,,,,,,,,,36,1.8994,1,0,28,28,32,1,6,×,6,6 × 6,incongruent,tie,1,2,36,,,,,,,,
,,,,,,,,,,,,,,,789,2022-01-18_12h58.35.291,multiplicationStroop,2021.2.3,Win32,59.03187721,,,,,,,,,,,,,,,,,,,,,,,,,,,,,,,,,49,1.8329,1,0,29,29,33,1,7,×,7,7 × 7,incongruent,tie,1,2,49,,,,,,,,
,,,,,,,,,,,,,,,789,2022-01-18_12h58.35.291,multiplicationStroop,2021.2.3,Win32,59.03187721,,,,,,,,,,,,,,,,,,,,,,,,,,,,,,,,,56,2.0656,1,0,30,30,14,1,8,×,7,8 × 7,incongruent,largerFirst,1,2,56,,,,,,,,
,,,,,,,,,,,,,,,789,2022-01-18_12h58.35.291,multiplicationStroop,2021.2.3,Win32,59.03187721,,,,,,,,,,,,,,,,,,,,,,,,,,,,,,,,,25,1.6324,1,0,31,31,31,1,5,×,5,5 × 5,incongruent,tie,1,2,25,,,,,,,,
,,,,,,,,,,,,,,,789,2022-01-18_12h58.35.291,multiplicationStroop,2021.2.3,Win32,59.03187721,,,,,,,,,,,,,,,,,,,,,,,,,,,,,,,,,12,1.3988,1,0,32,32,19,1,6,×,2,6 × 2,incongruent,largerFirst,1,2,12,,,,,,,,
,,,,,,,,,,,,,,,789,2022-01-18_12h58.35.291,multiplicationStroop,2021.2.3,Win32,59.03187721,,,,,,,,,,,,,,,,,,,,,,,,,,,,,,,,,8,1.8992,1,0,33,33,24,1,4,×,2,4 × 2,incongruent,largerFirst,1,2,8,,,,,,,,
,,,,,,,,,,,,,,,789,2022-01-18_12h58.35.291,multiplicationStroop,2021.2.3,Win32,59.03187721,,,,,,,,,,,,,,,,,,,,,,,,,,,,,,,,,18,1.7494,1,0,34,34,8,1,3,×,6,3 × 6,incongruent,smallerFirst,2,1,18,,,,,,,,
,,,,,,,,,,,,,,,789,2022-01-18_12h58.35.291,multiplicationStroop,2021.2.3,Win32,59.03187721,,,,,,,,,,,,,,,,,,,,,,,,,,,,,,,,,24,1.8828,1,0,35,35,9,1,3,×,8,3 × 8,incongruent,smallerFirst,2,1,24,,,,,,,,
,,,,,,,,,,,,,,,789,2022-01-18_12h58.35.291,multiplicationStroop,2021.2.3,Win32,59.03187721,,,,,,,,,,,,,,,,,,,,,,,,,,,,,,,,,,,,,,,,,,,,,,,,,,0,1,1,5,1,stimulusFile/mult_blk6_INcongruent.xlsx,,
,,,,,,,,,,,,,,,789,2022-01-18_12h58.35.291,multiplicationStroop,2021.2.3,Win32,59.03187721,,,,,,,,,,,,,,,,,,,,,,,,,,,,,,,space,18.7153,48,3.0321,1,0,0,0,15,1,8,×,6,8 × 6,neutral,largerFirst,1.5,1.5,48,,,,,,,,
,,,,,,,,,,,,,,,789,2022-01-18_12h58.35.291,multiplicationStroop,2021.2.3,Win32,59.03187721,,,,,,,,,,,,,,,,,,,,,,,,,,,,,,,,,24,1.6314,1,0,1,1,22,1,8,×,3,8 × 3,neutral,largerFirst,1.5,1.5,24,,,,,,,,
,,,,,,,,,,,,,,,789,2022-01-18_12h58.35.291,multiplicationStroop,2021.2.3,Win32,59.03187721,,,,,,,,,,,,,,,,,,,,,,,,,,,,,,,,,45,1.7501,1,0,2,2,10,1,5,×,9,5 × 9,neutral,smallerFirst,1.5,1.5,45,,,,,,,,
,,,,,,,,,,,,,,,789,2022-01-18_12h58.35.291,multiplicationStroop,2021.2.3,Win32,59.03187721,,,,,,,,,,,,,,,,,,,,,,,,,,,,,,,,,6,1.8494,1,0,3,3,26,1,3,×,2,3 × 2,neutral,largerFirst,1.5,1.5,6,,,,,,,,
,,,,,,,,,,,,,,,789,2022-01-18_12h58.35.291,multiplicationStroop,2021.2.3,Win32,59.03187721,,,,,,,,,,,,,,,,,,,,,,,,,,,,,,,,,30,1.8487,1,0,4,4,19,1,6,×,5,6 × 5,neutral,largerFirst,1.5,1.5,30,,,,,,,,
,,,,,,,,,,,,,,,789,2022-01-18_12h58.35.291,multiplicationStroop,2021.2.3,Win32,59.03187721,,,,,,,,,,,,,,,,,,,,,,,,,,,,,,,,,16,1.9158,1,0,5,5,13,1,2,×,8,2 × 8,neutral,smallerFirst,1.5,1.5,16,,,,,,,,
,,,,,,,,,,,,,,,789,2022-01-18_12h58.35.291,multiplicationStroop,2021.2.3,Win32,59.03187721,,,,,,,,,,,,,,,,,,,,,,,,,,,,,,,,,48,3.4323,0,0,6,6,9,1,7,×,8,7 × 8,neutral,smallerFirst,1.5,1.5,56,,,,,,,,
,,,,,,,,,,,,,,,789,2022-01-18_12h58.35.291,multiplicationStroop,2021.2.3,Win32,59.03187721,,,,,,,,,,,,,,,,,,,,,,,,,,,,,,,,,18,1.8821,1,0,7,7,18,1,9,×,2,9 × 2,neutral,largerFirst,1.5,1.5,18,,,,,,,,
,,,,,,,,,,,,,,,789,2022-01-18_12h58.35.291,multiplicationStroop,2021.2.3,Win32,59.03187721,,,,,,,,,,,,,,,,,,,,,,,,,,,,,,,,,49,2.0827,1,0,8,8,33,1,7,×,7,7 × 7,neutral,tie,1.5,1.5,49,,,,,,,,
,,,,,,,,,,,,,,,789,2022-01-18_12h58.35.291,multiplicationStroop,2021.2.3,Win32,59.03187721,,,,,,,,,,,,,,,,,,,,,,,,,,,,,,,,,14,2.0164,1,0,9,9,16,1,7,×,2,7 × 2,neutral,largerFirst,1.5,1.5,14,,,,,,,,
,,,,,,,,,,,,,,,789,2022-01-18_12h58.35.291,multiplicationStroop,2021.2.3,Win32,59.03187721,,,,,,,,,,,,,,,,,,,,,,,,,,,,,,,,,9,1.5825,1,0,10,10,29,1,3,×,3,3 × 3,neutral,tie,1.5,1.5,9,,,,,,,,
,,,,,,,,,,,,,,,789,2022-01-18_12h58.35.291,multiplicationStroop,2021.2.3,Win32,59.03187721,,,,,,,,,,,,,,,,,,,,,,,,,,,,,,,,,40,1.7492,1,0,11,11,24,1,8,×,5,8 × 5,neutral,largerFirst,1.5,1.5,40,,,,,,,,
,,,,,,,,,,,,,,,789,2022-01-18_12h58.35.291,multiplicationStroop,2021.2.3,Win32,59.03187721,,,,,,,,,,,,,,,,,,,,,,,,,,,,,,,,,64,2.8655,1,0,12,12,34,1,8,×,8,8 × 8,neutral,tie,1.5,1.5,64,,,,,,,,
,,,,,,,,,,,,,,,789,2022-01-18_12h58.35.291,multiplicationStroop,2021.2.3,Win32,59.03187721,,,,,,,,,,,,,,,,,,,,,,,,,,,,,,,,,32,1.6824,1,0,13,13,23,1,8,×,4,8 × 4,neutral,largerFirst,1.5,1.5,32,,,,,,,,
,,,,,,,,,,,,,,,789,2022-01-18_12h58.35.291,multiplicationStroop,2021.2.3,Win32,59.03187721,,,,,,,,,,,,,,,,,,,,,,,,,,,,,,,,,12,2.4662,1,0,14,14,25,1,6,×,2,6 × 2,neutral,largerFirst,1.5,1.5,12,,,,,,,,
,,,,,,,,,,,,,,,789,2022-01-18_12h58.35.291,multiplicationStroop,2021.2.3,Win32,59.03187721,,,,,,,,,,,,,,,,,,,,,,,,,,,,,,,,,15,1.6824,1,0,15,15,5,1,3,×,5,3 × 5,neutral,smallerFirst,1.5,1.5,15,,,,,,,,
,,,,,,,,,,,,,,,789,2022-01-18_12h58.35.291,multiplicationStroop,2021.2.3,Win32,59.03187721,,,,,,,,,,,,,,,,,,,,,,,,,,,,,,,,,21,1.516,1,0,16,16,8,1,3,×,7,3 × 7,neutral,smallerFirst,1.5,1.5,21,,,,,,,,
,,,,,,,,,,,,,,,789,2022-01-18_12h58.35.291,multiplicationStroop,2021.2.3,Win32,59.03187721,,,,,,,,,,,,,,,,,,,,,,,,,,,,,,,,,25,1.699,1,0,17,17,31,1,5,×,5,5 × 5,neutral,tie,1.5,1.5,25,,,,,,,,
,,,,,,,,,,,,,,,789,2022-01-18_12h58.35.291,multiplicationStroop,2021.2.3,Win32,59.03187721,,,,,,,,,,,,,,,,,,,,,,,,,,,,,,,,,81,1.8828,1,0,18,18,35,1,9,×,9,9 × 9,neutral,tie,1.5,1.5,81,,,,,,,,
,,,,,,,,,,,,,,,789,2022-01-18_12h58.35.291,multiplicationStroop,2021.2.3,Win32,59.03187721,,,,,,,,,,,,,,,,,,,,,,,,,,,,,,,,,2,2.2657,0,0,19,19,2,1,4,×,6,4 × 6,neutral,smallerFirst,1.5,1.5,24,,,,,,,,
,,,,,,,,,,,,,,,789,2022-01-18_12h58.35.291,multiplicationStroop,2021.2.3,Win32,59.03187721,,,,,,,,,,,,,,,,,,,,,,,,,,,,,,,,,36,4.0653,1,0,20,20,27,1,9,×,4,9 × 4,neutral,largerFirst,1.5,1.5,36,,,,,,,,
,,,,,,,,,,,,,,,789,2022-01-18_12h58.35.291,multiplicationStroop,2021.2.3,Win32,59.03187721,,,,,,,,,,,,,,,,,,,,,,,,,,,,,,,,,28,2.0555,1,0,21,21,17,1,7,×,4,7 × 4,neutral,largerFirst,1.5,1.5,28,,,,,,,,
,,,,,,,,,,,,,,,789,2022-01-18_12h58.35.291,multiplicationStroop,2021.2.3,Win32,59.03187721,,,,,,,,,,,,,,,,,,,,,,,,,,,,,,,,,72,3.099,1,0,22,22,11,1,8,×,9,8 × 9,neutral,smallerFirst,1.5,1.5,72,,,,,,,,
,,,,,,,,,,,,,,,789,2022-01-18_12h58.35.291,multiplicationStroop,2021.2.3,Win32,59.03187721,,,,,,,,,,,,,,,,,,,,,,,,,,,,,,,,,42,2.3663,1,0,23,23,6,1,6,×,7,6 × 7,neutral,smallerFirst,1.5,1.5,42,,,,,,,,
,,,,,,,,,,,,,,,789,2022-01-18_12h58.35.291,multiplicationStroop,2021.2.3,Win32,59.03187721,,,,,,,,,,,,,,,,,,,,,,,,,,,,,,,,,18,1.7732,1,0,24,24,0,1,3,×,6,3 × 6,neutral,smallerFirst,1.5,1.5,18,,,,,,,,
,,,,,,,,,,,,,,,789,2022-01-18_12h58.35.291,multiplicationStroop,2021.2.3,Win32,59.03187721,,,,,,,,,,,,,,,,,,,,,,,,,,,,,,,,,4,1.4489,1,0,25,25,28,1,2,×,2,2 × 2,neutral,tie,1.5,1.5,4,,,,,,,,
,,,,,,,,,,,,,,,789,2022-01-18_12h58.35.291,multiplicationStroop,2021.2.3,Win32,59.03187721,,,,,,,,,,,,,,,,,,,,,,,,,,,,,,,,,12,1.4495,1,0,26,26,21,1,4,×,3,4 × 3,neutral,largerFirst,1.5,1.5,12,,,,,,,,
,,,,,,,,,,,,,,,789,2022-01-18_12h58.35.291,multiplicationStroop,2021.2.3,Win32,59.03187721,,,,,,,,,,,,,,,,,,,,,,,,,,,,,,,,,10,1.5826,1,0,27,27,4,1,2,×,5,2 × 5,neutral,smallerFirst,1.5,1.5,10,,,,,,,,
,,,,,,,,,,,,,,,789,2022-01-18_12h58.35.291,multiplicationStroop,2021.2.3,Win32,59.03187721,,,,,,,,,,,,,,,,,,,,,,,,,,,,,,,,,27,1.9826,1,0,28,28,14,1,9,×,3,9 × 3,neutral,largerFirst,1.5,1.5,27,,,,,,,,
,,,,,,,,,,,,,,,789,2022-01-18_12h58.35.291,multiplicationStroop,2021.2.3,Win32,59.03187721,,,,,,,,,,,,,,,,,,,,,,,,,,,,,,,,,8,2.1326,1,0,29,29,3,1,2,×,4,2 × 4,neutral,smallerFirst,1.5,1.5,8,,,,,,,,
,,,,,,,,,,,,,,,789,2022-01-18_12h58.35.291,multiplicationStroop,2021.2.3,Win32,59.03187721,,,,,,,,,,,,,,,,,,,,,,,,,,,,,,,,,63,2.4823,1,0,30,30,12,1,7,×,9,7 × 9,neutral,smallerFirst,1.5,1.5,63,,,,,,,,
,,,,,,,,,,,,,,,789,2022-01-18_12h58.35.291,multiplicationStroop,2021.2.3,Win32,59.03187721,,,,,,,,,,,,,,,,,,,,,,,,,,,,,,,,,36,1.883,1,0,31,31,32,1,6,×,6,6 × 6,neutral,tie,1.5,1.5,36,,,,,,,,
,,,,,,,,,,,,,,,789,2022-01-18_12h58.35.291,multiplicationStroop,2021.2.3,Win32,59.03187721,,,,,,,,,,,,,,,,,,,,,,,,,,,,,,,,,54,1.8989,1,0,32,32,7,1,6,×,9,6 × 9,neutral,smallerFirst,1.5,1.5,54,,,,,,,,
,,,,,,,,,,,,,,,789,2022-01-18_12h58.35.291,multiplicationStroop,2021.2.3,Win32,59.03187721,,,,,,,,,,,,,,,,,,,,,,,,,,,,,,,,,35,1.9979,1,0,33,33,1,1,5,×,7,5 × 7,neutral,smallerFirst,1.5,1.5,35,,,,,,,,
,,,,,,,,,,,,,,,789,2022-01-18_12h58.35.291,multiplicationStroop,2021.2.3,Win32,59.03187721,,,,,,,,,,,,,,,,,,,,,,,,,,,,,,,,,16,1.8162,1,0,34,34,30,1,4,×,4,4 × 4,neutral,tie,1.5,1.5,16,,,,,,,,
,,,,,,,,,,,,,,,789,2022-01-18_12h58.35.291,multiplicationStroop,2021.2.3,Win32,59.03187721,,,,,,,,,,,,,,,,,,,,,,,,,,,,,,,,,20,2.0158,1,0,35,35,20,1,5,×,4,5 × 4,neutral,largerFirst,1.5,1.5,20,,,,,,,,
,,,,,,,,,,,,,,,789,2022-01-18_12h58.35.291,multiplicationStroop,2021.2.3,Win32,59.03187721,,,,,,,,,,,,,,,,,,,,,,,,,,,,,,,,,,,,,,,,,,,,,,,,,,0,2,2,1,1,stimulusFile/mult_blk2.xlsx,,
,,,,,,,,,,,,,,,789,2022-01-18_12h58.35.291,multiplicationStroop,2021.2.3,Win32,59.03187721,,,,,,,,,,,,,,,,,,,,,,,,,,,,,,,space,1.2689,45,1.889,1,0,0,0,23,1,9,×,5,9 × 5,congruent,largerFirst,2,1,45,,,,,,,,
,,,,,,,,,,,,,,,789,2022-01-18_12h58.35.291,multiplicationStroop,2021.2.3,Win32,59.03187721,,,,,,,,,,,,,,,,,,,,,,,,,,,,,,,,,18,1.8661,1,0,1,1,11,1,3,×,6,3 × 6,congruent,smallerFirst,1,2,18,,,,,,,,
,,,,,,,,,,,,,,,789,2022-01-18_12h58.35.291,multiplicationStroop,2021.2.3,Win32,59.03187721,,,,,,,,,,,,,,,,,,,,,,,,,,,,,,,,,64,2.0159,1,0,2,2,34,1,8,×,8,8 × 8,neutral,tie,2,1,64,,,,,,,,
,,,,,,,,,,,,,,,789,2022-01-18_12h58.35.291,multiplicationStroop,2021.2.3,Win32,59.03187721,,,,,,,,,,,,,,,,,,,,,,,,,,,,,,,,,72,2.9323,1,0,3,3,17,1,9,×,8,9 × 8,congruent,largerFirst,2,1,72,,,,,,,,
,,,,,,,,,,,,,,,789,2022-01-18_12h58.35.291,multiplicationStroop,2021.2.3,Win32,59.03187721,,,,,,,,,,,,,,,,,,,,,,,,,,,,,,,,,63,2.6227,1,0,4,4,21,1,9,×,7,9 × 7,congruent,largerFirst,2,1,63,,,,,,,,
,,,,,,,,,,,,,,,789,2022-01-18_12h58.35.291,multiplicationStroop,2021.2.3,Win32,59.03187721,,,,,,,,,,,,,,,,,,,,,,,,,,,,,,,,,30,1.8655,1,0,5,5,15,1,6,×,5,6 × 5,congruent,largerFirst,2,1,30,,,,,,,,
,,,,,,,,,,,,,,,789,2022-01-18_12h58.35.291,multiplicationStroop,2021.2.3,Win32,59.03187721,,,,,,,,,,,,,,,,,,,,,,,,,,,,,,,,,28,1.8158,1,0,6,6,27,1,7,×,4,7 × 4,congruent,largerFirst,2,1,28,,,,,,,,
,,,,,,,,,,,,,,,789,2022-01-18_12h58.35.291,multiplicationStroop,2021.2.3,Win32,59.03187721,,,,,,,,,,,,,,,,,,,,,,,,,,,,,,,,,36,1.866,1,0,7,7,32,1,6,×,6,6 × 6,neutral,tie,2,1,36,,,,,,,,
,,,,,,,,,,,,,,,789,2022-01-18_12h58.35.291,multiplicationStroop,2021.2.3,Win32,59.03187721,,,,,,,,,,,,,,,,,,,,,,,,,,,,,,,,,6,1.8159,1,0,8,8,13,1,2,×,3,2 × 3,congruent,smallerFirst,1,2,6,,,,,,,,
,,,,,,,,,,,,,,,789,2022-01-18_12h58.35.291,multiplicationStroop,2021.2.3,Win32,59.03187721,,,,,,,,,,,,,,,,,,,,,,,,,,,,,,,,,24,1.832,1,0,9,9,10,1,3,×,8,3 × 8,congruent,smallerFirst,1,2,24,,,,,,,,
,,,,,,,,,,,,,,,789,2022-01-18_12h58.35.291,multiplicationStroop,2021.2.3,Win32,59.03187721,,,,,,,,,,,,,,,,,,,,,,,,,,,,,,,,,15,1.7497,1,0,10,10,4,1,3,×,5,3 × 5,congruent,smallerFirst,1,2,15,,,,,,,,
,,,,,,,,,,,,,,,789,2022-01-18_12h58.35.291,multiplicationStroop,2021.2.3,Win32,59.03187721,,,,,,,,,,,,,,,,,,,,,,,,,,,,,,,,,16,1.8158,1,0,11,11,5,1,2,×,8,2 × 8,congruent,smallerFirst,1,2,16,,,,,,,,
,,,,,,,,,,,,,,,789,2022-01-18_12h58.35.291,multiplicationStroop,2021.2.3,Win32,59.03187721,,,,,,,,,,,,,,,,,,,,,,,,,,,,,,,,,32,1.6323,1,0,12,12,20,1,8,×,4,8 × 4,congruent,largerFirst,2,1,32,,,,,,,,
,,,,,,,,,,,,,,,789,2022-01-18_12h58.35.291,multiplicationStroop,2021.2.3,Win32,59.03187721,,,,,,,,,,,,,,,,,,,,,,,,,,,,,,,,,12,1.4326,1,0,13,13,19,1,6,×,2,6 × 2,congruent,largerFirst,2,1,12,,,,,,,,
,,,,,,,,,,,,,,,789,2022-01-18_12h58.35.291,multiplicationStroop,2021.2.3,Win32,59.03187721,,,,,,,,,,,,,,,,,,,,,,,,,,,,,,,,,54,1.8328,1,0,14,14,12,1,6,×,9,6 × 9,congruent,smallerFirst,1,2,54,,,,,,,,
,,,,,,,,,,,,,,,789,2022-01-18_12h58.35.291,multiplicationStroop,2021.2.3,Win32,59.03187721,,,,,,,,,,,,,,,,,,,,,,,,,,,,,,,,,21,1.8158,1,0,15,15,16,1,7,×,3,7 × 3,congruent,largerFirst,2,1,21,,,,,,,,
,,,,,,,,,,,,,,,789,2022-01-18_12h58.35.291,multiplicationStroop,2021.2.3,Win32,59.03187721,,,,,,,,,,,,,,,,,,,,,,,,,,,,,,,,,56,2.0492,1,0,16,16,8,1,7,×,8,7 × 8,congruent,smallerFirst,1,2,56,,,,,,,,
,,,,,,,,,,,,,,,789,2022-01-18_12h58.35.291,multiplicationStroop,2021.2.3,Win32,59.03187721,,,,,,,,,,,,,,,,,,,,,,,,,,,,,,,,,10,1.7657,1,0,17,17,24,1,5,×,2,5 × 2,congruent,largerFirst,2,1,10,,,,,,,,
,,,,,,,,,,,,,,,789,2022-01-18_12h58.35.291,multiplicationStroop,2021.2.3,Win32,59.03187721,,,,,,,,,,,,,,,,,,,,,,,,,,,,,,,,,81,2.0658,1,0,18,18,35,1,9,×,9,9 × 9,neutral,tie,2,1,81,,,,,,,,
,,,,,,,,,,,,,,,789,2022-01-18_12h58.35.291,multiplicationStroop,2021.2.3,Win32,59.03187721,,,,,,,,,,,,,,,,,,,,,,,,,,,,,,,,,16,2.1656,1,0,19,19,30,1,4,×,4,4 × 4,neutral,tie,2,1,16,,,,,,,,
,,,,,,,,,,,,,,,789,2022-01-18_12h58.35.291,multiplicationStroop,2021.2.3,Win32,59.03187721,,,,,,,,,,,,,,,,,,,,,,,,,,,,,,,,,9,1.6828,1,0,20,20,29,1,3,×,3,3 × 3,neutral,tie,2,1,9,,,,,,,,
,,,,,,,,,,,,,,,789,2022-01-18_12h58.35.291,multiplicationStroop,2021.2.3,Win32,59.03187721,,,,,,,,,,,,,,,,,,,,,,,,,,,,,,,,,8,2.2655,1,0,21,21,9,1,2,×,4,2 × 4,congruent,smallerFirst,1,2,8,,,,,,,,
,,,,,,,,,,,,,,,789,2022-01-18_12h58.35.291,multiplicationStroop,2021.2.3,Win32,59.03187721,,,,,,,,,,,,,,,,,,,,,,,,,,,,,,,,,35,2.0996,1,0,22,22,1,1,5,×,7,5 × 7,congruent,smallerFirst,1,2,35,,,,,,,,
,,,,,,,,,,,,,,,789,2022-01-18_12h58.35.291,multiplicationStroop,2021.2.3,Win32,59.03187721,,,,,,,,,,,,,,,,,,,,,,,,,,,,,,,,,42,2.2325,1,0,23,23,3,1,6,×,7,6 × 7,congruent,smallerFirst,1,2,42,,,,,,,,
,,,,,,,,,,,,,,,789,2022-01-18_12h58.35.291,multiplicationStroop,2021.2.3,Win32,59.03187721,,,,,,,,,,,,,,,,,,,,,,,,,,,,,,,,,20,2.2659,1,0,24,24,7,1,4,×,5,4 × 5,congruent,smallerFirst,1,2,20,,,,,,,,
,,,,,,,,,,,,,,,789,2022-01-18_12h58.35.291,multiplicationStroop,2021.2.3,Win32,59.03187721,,,,,,,,,,,,,,,,,,,,,,,,,,,,,,,,,4,1.449,1,0,25,25,28,1,2,×,2,2 × 2,neutral,tie,2,1,4,,,,,,,,
,,,,,,,,,,,,,,,789,2022-01-18_12h58.35.291,multiplicationStroop,2021.2.3,Win32,59.03187721,,,,,,,,,,,,,,,,,,,,,,,,,,,,,,,,,25,1.7494,1,0,26,26,31,1,5,×,5,5 × 5,neutral,tie,2,1,25,,,,,,,,
,,,,,,,,,,,,,,,789,2022-01-18_12h58.35.291,multiplicationStroop,2021.2.3,Win32,59.03187721,,,,,,,,,,,,,,,,,,,,,,,,,,,,,,,,,27,1.8162,1,0,27,27,26,1,9,×,3,9 × 3,congruent,largerFirst,2,1,27,,,,,,,,
,,,,,,,,,,,,,,,789,2022-01-18_12h58.35.291,multiplicationStroop,2021.2.3,Win32,59.03187721,,,,,,,,,,,,,,,,,,,,,,,,,,,,,,,,,42,2.5982,0,0,28,28,18,1,8,×,6,8 × 6,congruent,largerFirst,2,1,48,,,,,,,,
,,,,,,,,,,,,,,,789,2022-01-18_12h58.35.291,multiplicationStroop,2021.2.3,Win32,59.03187721,,,,,,,,,,,,,,,,,,,,,,,,,,,,,,,,,36,1.9003,1,0,29,29,0,1,4,×,9,4 × 9,congruent,smallerFirst,1,2,36,,,,,,,,
,,,,,,,,,,,,,,,789,2022-01-18_12h58.35.291,multiplicationStroop,2021.2.3,Win32,59.03187721,,,,,,,,,,,,,,,,,,,,,,,,,,,,,,,,,18,1.5821,1,0,30,30,22,1,9,×,2,9 × 2,congruent,largerFirst,2,1,18,,,,,,,,
,,,,,,,,,,,,,,,789,2022-01-18_12h58.35.291,multiplicationStroop,2021.2.3,Win32,59.03187721,,,,,,,,,,,,,,,,,,,,,,,,,,,,,,,,,12,1.6825,1,0,31,31,2,1,3,×,4,3 × 4,congruent,smallerFirst,1,2,12,,,,,,,,
,,,,,,,,,,,,,,,789,2022-01-18_12h58.35.291,multiplicationStroop,2021.2.3,Win32,59.03187721,,,,,,,,,,,,,,,,,,,,,,,,,,,,,,,,,24,1.6156,1,0,32,32,25,1,6,×,4,6 × 4,congruent,largerFirst,2,1,24,,,,,,,,
,,,,,,,,,,,,,,,789,2022-01-18_12h58.35.291,multiplicationStroop,2021.2.3,Win32,59.03187721,,,,,,,,,,,,,,,,,,,,,,,,,,,,,,,,,49,2.2659,1,0,33,33,33,1,7,×,7,7 × 7,neutral,tie,2,1,49,,,,,,,,
,,,,,,,,,,,,,,,789,2022-01-18_12h58.35.291,multiplicationStroop,2021.2.3,Win32,59.03187721,,,,,,,,,,,,,,,,,,,,,,,,,,,,,,,,,14,1.4709,1,0,34,34,14,1,7,×,2,7 × 2,congruent,largerFirst,2,1,14,,,,,,,,
,,,,,,,,,,,,,,,789,2022-01-18_12h58.35.291,multiplicationStroop,2021.2.3,Win32,59.03187721,,,,,,,,,,,,,,,,,,,,,,,,,,,,,,,,,40,1.9829,1,0,35,35,6,1,5,×,8,5 × 8,congruent,smallerFirst,1,2,40,,,,,,,,
,,,,,,,,,,,,,,,789,2022-01-18_12h58.35.291,multiplicationStroop,2021.2.3,Win32,59.03187721,,,,,,,,,,,,,,,,,,,,,,,,,,,,,,,,,,,,,,,,,,,,,,,,,,0,3,3,2,1,stimulusFile/mult_blk3_congruent.xlsx,,
,,,,,,,,,,,,,,,789,2022-01-18_12h58.35.291,multiplicationStroop,2021.2.3,Win32,59.03187721,,,,,,,,,,,,,,,,,,,,,,,,,,,,,,,space,1.2876,35,2.5916,1,0,0,0,26,1,7,×,5,7 × 5,incongruent,largerFirst,1,2,35,,,,,,,,
,,,,,,,,,,,,,,,789,2022-01-18_12h58.35.291,multiplicationStroop,2021.2.3,Win32,59.03187721,,,,,,,,,,,,,,,,,,,,,,,,,,,,,,,,,25,1.6659,1,0,1,1,31,1,5,×,5,5 × 5,neutral,tie,2,1,25,,,,,,,,
,,,,,,,,,,,,,,,789,2022-01-18_12h58.35.291,multiplicationStroop,2021.2.3,Win32,59.03187721,,,,,,,,,,,,,,,,,,,,,,,,,,,,,,,,,36,2.8659,1,0,2,2,32,1,6,×,6,6 × 6,neutral,tie,2,1,36,,,,,,,,
,,,,,,,,,,,,,,,789,2022-01-18_12h58.35.291,multiplicationStroop,2021.2.3,Win32,59.03187721,,,,,,,,,,,,,,,,,,,,,,,,,,,,,,,,,36,1.8655,1,0,3,3,1,1,4,×,9,4 × 9,incongruent,smallerFirst,2,1,36,,,,,,,,
,,,,,,,,,,,,,,,789,2022-01-18_12h58.35.291,multiplicationStroop,2021.2.3,Win32,59.03187721,,,,,,,,,,,,,,,,,,,,,,,,,,,,,,,,,64,2.349,1,0,4,4,34,1,8,×,8,8 × 8,neutral,tie,2,1,64,,,,,,,,
,,,,,,,,,,,,,,,789,2022-01-18_12h58.35.291,multiplicationStroop,2021.2.3,Win32,59.03187721,,,,,,,,,,,,,,,,,,,,,,,,,,,,,,,,,21,1.5057,1,0,5,5,12,1,3,×,7,3 × 7,incongruent,smallerFirst,2,1,21,,,,,,,,
,,,,,,,,,,,,,,,789,2022-01-18_12h58.35.291,multiplicationStroop,2021.2.3,Win32,59.03187721,,,,,,,,,,,,,,,,,,,,,,,,,,,,,,,,,18,1.8655,1,0,6,6,22,1,6,×,3,6 × 3,incongruent,largerFirst,1,2,18,,,,,,,,
,,,,,,,,,,,,,,,789,2022-01-18_12h58.35.291,multiplicationStroop,2021.2.3,Win32,59.03187721,,,,,,,,,,,,,,,,,,,,,,,,,,,,,,,,,24,1.7658,1,0,7,7,23,1,8,×,3,8 × 3,incongruent,largerFirst,1,2,24,,,,,,,,
,,,,,,,,,,,,,,,789,2022-01-18_12h58.35.291,multiplicationStroop,2021.2.3,Win32,59.03187721,,,,,,,,,,,,,,,,,,,,,,,,,,,,,,,,,14,1.433,1,0,8,8,18,1,7,×,2,7 × 2,incongruent,largerFirst,1,2,14,,,,,,,,
,,,,,,,,,,,,,,,789,2022-01-18_12h58.35.291,multiplicationStroop,2021.2.3,Win32,59.03187721,,,,,,,,,,,,,,,,,,,,,,,,,,,,,,,,,45,2.6152,1,0,9,9,8,1,5,×,9,5 × 9,incongruent,smallerFirst,2,1,45,,,,,,,,
,,,,,,,,,,,,,,,789,2022-01-18_12h58.35.291,multiplicationStroop,2021.2.3,Win32,59.03187721,,,,,,,,,,,,,,,,,,,,,,,,,,,,,,,,,8,2.016,1,0,10,10,10,1,2,×,4,2 × 4,incongruent,smallerFirst,2,1,8,,,,,,,,
,,,,,,,,,,,,,,,789,2022-01-18_12h58.35.291,multiplicationStroop,2021.2.3,Win32,59.03187721,,,,,,,,,,,,,,,,,,,,,,,,,,,,,,,,,15,1.5493,1,0,11,11,24,1,5,×,3,5 × 3,incongruent,largerFirst,1,2,15,,,,,,,,
,,,,,,,,,,,,,,,789,2022-01-18_12h58.35.291,multiplicationStroop,2021.2.3,Win32,59.03187721,,,,,,,,,,,,,,,,,,,,,,,,,,,,,,,,,30,2.3826,1,0,12,12,11,1,5,×,6,5 × 6,incongruent,smallerFirst,2,1,30,,,,,,,,
,,,,,,,,,,,,,,,789,2022-01-18_12h58.35.291,multiplicationStroop,2021.2.3,Win32,59.03187721,,,,,,,,,,,,,,,,,,,,,,,,,,,,,,,,,12,1.4662,1,0,13,13,19,1,4,×,3,4 × 3,incongruent,largerFirst,1,2,12,,,,,,,,
,,,,,,,,,,,,,,,789,2022-01-18_12h58.35.291,multiplicationStroop,2021.2.3,Win32,59.03187721,,,,,,,,,,,,,,,,,,,,,,,,,,,,,,,,,24,1.7656,1,0,14,14,6,1,4,×,6,4 × 6,incongruent,smallerFirst,2,1,24,,,,,,,,
,,,,,,,,,,,,,,,789,2022-01-18_12h58.35.291,multiplicationStroop,2021.2.3,Win32,59.03187721,,,,,,,,,,,,,,,,,,,,,,,,,,,,,,,,,9,1.7656,1,0,15,15,29,1,3,×,3,3 × 3,neutral,tie,2,1,9,,,,,,,,
,,,,,,,,,,,,,,,789,2022-01-18_12h58.35.291,multiplicationStroop,2021.2.3,Win32,59.03187721,,,,,,,,,,,,,,,,,,,,,,,,,,,,,,,,,32,1.8498,1,0,16,16,21,1,8,×,4,8 × 4,incongruent,largerFirst,1,2,32,,,,,,,,
,,,,,,,,,,,,,,,789,2022-01-18_12h58.35.291,multiplicationStroop,2021.2.3,Win32,59.03187721,,,,,,,,,,,,,,,,,,,,,,,,,,,,,,,,,56,2.4157,1,0,17,17,0,1,7,×,8,7 × 8,incongruent,smallerFirst,2,1,56,,,,,,,,
,,,,,,,,,,,,,,,789,2022-01-18_12h58.35.291,multiplicationStroop,2021.2.3,Win32,59.03187721,,,,,,,,,,,,,,,,,,,,,,,,,,,,,,,,,20,1.9991,1,0,18,18,13,1,4,×,5,4 × 5,incongruent,smallerFirst,2,1,20,,,,,,,,
,,,,,,,,,,,,,,,789,2022-01-18_12h58.35.291,multiplicationStroop,2021.2.3,Win32,59.03187721,,,,,,,,,,,,,,,,,,,,,,,,,,,,,,,,,10,1.8822,1,0,19,19,7,1,2,×,5,2 × 5,incongruent,smallerFirst,2,1,10,,,,,,,,
,,,,,,,,,,,,,,,789,2022-01-18_12h58.35.291,multiplicationStroop,2021.2.3,Win32,59.03187721,,,,,,,,,,,,,,,,,,,,,,,,,,,,,,,,,6,1.8493,1,0,20,20,25,1,3,×,2,3 × 2,incongruent,largerFirst,1,2,6,,,,,,,,
,,,,,,,,,,,,,,,789,2022-01-18_12h58.35.291,multiplicationStroop,2021.2.3,Win32,59.03187721,,,,,,,,,,,,,,,,,,,,,,,,,,,,,,,,,12,2.1323,1,0,21,21,5,1,2,×,6,2 × 6,incongruent,smallerFirst,2,1,12,,,,,,,,
,,,,,,,,,,,,,,,789,2022-01-18_12h58.35.291,multiplicationStroop,2021.2.3,Win32,59.03187721,,,,,,,,,,,,,,,,,,,,,,,,,,,,,,,,,7,2.8492,0,0,22,22,14,1,9,×,8,9 × 8,incongruent,largerFirst,1,2,72,,,,,,,,
,,,,,,,,,,,,,,,789,2022-01-18_12h58.35.291,multiplicationStroop,2021.2.3,Win32,59.03187721,,,,,,,,,,,,,,,,,,,,,,,,,,,,,,,,,40,3.5991,1,0,23,23,27,1,8,×,5,8 × 5,incongruent,largerFirst,1,2,40,,,,,,,,
,,,,,,,,,,,,,,,789,2022-01-18_12h58.35.291,multiplicationStroop,2021.2.3,Win32,59.03187721,,,,,,,,,,,,,,,,,,,,,,,,,,,,,,,,,16,2.0043,1,0,24,24,9,1,2,×,8,2 × 8,incongruent,smallerFirst,2,1,16,,,,,,,,
,,,,,,,,,,,,,,,789,2022-01-18_12h58.35.291,multiplicationStroop,2021.2.3,Win32,59.03187721,,,,,,,,,,,,,,,,,,,,,,,,,,,,,,,,,49,2.066,1,0,25,25,33,1,7,×,7,7 × 7,neutral,tie,2,1,49,,,,,,,,
,,,,,,,,,,,,,,,789,2022-01-18_12h58.35.291,multiplicationStroop,2021.2.3,Win32,59.03187721,,,,,,,,,,,,,,,,,,,,,,,,,,,,,,,,,28,2.4327,1,0,26,26,2,1,4,×,7,4 × 7,incongruent,smallerFirst,2,1,28,,,,,,,,
,,,,,,,,,,,,,,,789,2022-01-18_12h58.35.291,multiplicationStroop,2021.2.3,Win32,59.03187721,,,,,,,,,,,,,,,,,,,,,,,,,,,,,,,,,54,3.2488,1,0,27,27,20,1,9,×,6,9 × 6,incongruent,largerFirst,1,2,54,,,,,,,,
,,,,,,,,,,,,,,,789,2022-01-18_12h58.35.291,multiplicationStroop,2021.2.3,Win32,59.03187721,,,,,,,,,,,,,,,,,,,,,,,,,,,,,,,,,42,2.2536,1,0,28,28,3,1,6,×,7,6 × 7,incongruent,smallerFirst,2,1,42,,,,,,,,
,,,,,,,,,,,,,,,789,2022-01-18_12h58.35.291,multiplicationStroop,2021.2.3,Win32,59.03187721,,,,,,,,,,,,,,,,,,,,,,,,,,,,,,,,,27,1.8826,1,0,29,29,4,1,3,×,9,3 × 9,incongruent,smallerFirst,2,1,27,,,,,,,,
,,,,,,,,,,,,,,,789,2022-01-18_12h58.35.291,multiplicationStroop,2021.2.3,Win32,59.03187721,,,,,,,,,,,,,,,,,,,,,,,,,,,,,,,,,48,2.8991,1,0,30,30,15,1,8,×,6,8 × 6,incongruent,largerFirst,1,2,48,,,,,,,,
,,,,,,,,,,,,,,,789,2022-01-18_12h58.35.291,multiplicationStroop,2021.2.3,Win32,59.03187721,,,,,,,,,,,,,,,,,,,,,,,,,,,,,,,,,18,1.9823,1,0,31,31,16,1,9,×,2,9 × 2,incongruent,largerFirst,1,2,18,,,,,,,,
,,,,,,,,,,,,,,,789,2022-01-18_12h58.35.291,multiplicationStroop,2021.2.3,Win32,59.03187721,,,,,,,,,,,,,,,,,,,,,,,,,,,,,,,,,81,2.6658,1,0,32,32,35,1,9,×,9,9 × 9,neutral,tie,2,1,81,,,,,,,,
,,,,,,,,,,,,,,,789,2022-01-18_12h58.35.291,multiplicationStroop,2021.2.3,Win32,59.03187721,,,,,,,,,,,,,,,,,,,,,,,,,,,,,,,,,4,1.6892,1,0,33,33,28,1,2,×,2,2 × 2,neutral,tie,2,1,4,,,,,,,,
,,,,,,,,,,,,,,,789,2022-01-18_12h58.35.291,multiplicationStroop,2021.2.3,Win32,59.03187721,,,,,,,,,,,,,,,,,,,,,,,,,,,,,,,,,16,1.7825,1,0,34,34,30,1,4,×,4,4 × 4,neutral,tie,2,1,16,,,,,,,,
,,,,,,,,,,,,,,,789,2022-01-18_12h58.35.291,multiplicationStroop,2021.2.3,Win32,59.03187721,,,,,,,,,,,,,,,,,,,,,,,,,,,,,,,,,63,2.2659,1,0,35,35,17,1,9,×,7,9 × 7,incongruent,largerFirst,1,2,63,,,,,,,,
,,,,,,,,,,,,,,,789,2022-01-18_12h58.35.291,multiplicationStroop,2021.2.3,Win32,59.03187721,,,,,,,,,,,,,,,,,,,,,,,,,,,,,,,,,,,,,,,,,,,,,,,,,,0,4,4,4,1,stimulusFile/mult_blk5_INcongruent.xlsx,,
,,,,,,,,,,,,,,,789,2022-01-18_12h58.35.291,multiplicationStroop,2021.2.3,Win32,59.03187721,,,,,,,,,,,,,,,,,,,,,,,,,,,,,,,space,1.0125,6,2.0901,1,0,0,0,12,1,2,×,3,2 × 3,neutral,smallerFirst,1.5,1.5,6,,,,,,,,
,,,,,,,,,,,,,,,789,2022-01-18_12h58.35.291,multiplicationStroop,2021.2.3,Win32,59.03187721,,,,,,,,,,,,,,,,,,,,,,,,,,,,,,,,,18,1.7994,1,0,1,1,14,1,6,×,3,6 × 3,neutral,largerFirst,1.5,1.5,18,,,,,,,,
,,,,,,,,,,,,,,,789,2022-01-18_12h58.35.291,multiplicationStroop,2021.2.3,Win32,59.03187721,,,,,,,,,,,,,,,,,,,,,,,,,,,,,,,,,24,1.6157,1,0,2,2,8,1,3,×,8,3 × 8,neutral,smallerFirst,1.5,1.5,24,,,,,,,,
,,,,,,,,,,,,,,,789,2022-01-18_12h58.35.291,multiplicationStroop,2021.2.3,Win32,59.03187721,,,,,,,,,,,,,,,,,,,,,,,,,,,,,,,,,12,1.4656,1,0,3,3,11,1,2,×,6,2 × 6,neutral,smallerFirst,1.5,1.5,12,,,,,,,,
,,,,,,,,,,,,,,,789,2022-01-18_12h58.35.291,multiplicationStroop,2021.2.3,Win32,59.03187721,,,,,,,,,,,,,,,,,,,,,,,,,,,,,,,,,20,1.9162,1,0,4,4,6,1,4,×,5,4 × 5,neutral,smallerFirst,1.5,1.5,20,,,,,,,,
,,,,,,,,,,,,,,,789,2022-01-18_12h58.35.291,multiplicationStroop,2021.2.3,Win32,59.03187721,,,,,,,,,,,,,,,,,,,,,,,,,,,,,,,,,45,1.782,1,0,5,5,24,1,9,×,5,9 × 5,neutral,largerFirst,1.5,1.5,45,,,,,,,,
,,,,,,,,,,,,,,,789,2022-01-18_12h58.35.291,multiplicationStroop,2021.2.3,Win32,59.03187721,,,,,,,,,,,,,,,,,,,,,,,,,,,,,,,,,27,2.9327,1,0,6,6,0,1,3,×,9,3 × 9,neutral,smallerFirst,1.5,1.5,27,,,,,,,,
,,,,,,,,,,,,,,,789,2022-01-18_12h58.35.291,multiplicationStroop,2021.2.3,Win32,59.03187721,,,,,,,,,,,,,,,,,,,,,,,,,,,,,,,,,63,2.6196,1,0,7,7,26,1,9,×,7,9 × 7,neutral,largerFirst,1.5,1.5,63,,,,,,,,
,,,,,,,,,,,,,,,789,2022-01-18_12h58.35.291,multiplicationStroop,2021.2.3,Win32,59.03187721,,,,,,,,,,,,,,,,,,,,,,,,,,,,,,,,,49,2.2327,1,0,8,8,33,1,7,×,7,7 × 7,neutral,tie,1.5,1.5,49,,,,,,,,
,,,,,,,,,,,,,,,789,2022-01-18_12h58.35.291,multiplicationStroop,2021.2.3,Win32,59.03187721,,,,,,,,,,,,,,,,,,,,,,,,,,,,,,,,,30,2.0822,1,0,9,9,5,1,5,×,6,5 × 6,neutral,smallerFirst,1.5,1.5,30,,,,,,,,
,,,,,,,,,,,,,,,789,2022-01-18_12h58.35.291,multiplicationStroop,2021.2.3,Win32,59.03187721,,,,,,,,,,,,,,,,,,,,,,,,,,,,,,,,,16,2.3828,1,0,10,10,30,1,4,×,4,4 × 4,neutral,tie,1.5,1.5,16,,,,,,,,
,,,,,,,,,,,,,,,789,2022-01-18_12h58.35.291,multiplicationStroop,2021.2.3,Win32,59.03187721,,,,,,,,,,,,,,,,,,,,,,,,,,,,,,,,,4,1.582,1,0,11,11,28,1,2,×,2,2 × 2,neutral,tie,1.5,1.5,4,,,,,,,,
,,,,,,,,,,,,,,,789,2022-01-18_12h58.35.291,multiplicationStroop,2021.2.3,Win32,59.03187721,,,,,,,,,,,,,,,,,,,,,,,,,,,,,,,,,16,2.0327,1,0,12,12,27,1,8,×,2,8 × 2,neutral,largerFirst,1.5,1.5,16,,,,,,,,
,,,,,,,,,,,,,,,789,2022-01-18_12h58.35.291,multiplicationStroop,2021.2.3,Win32,59.03187721,,,,,,,,,,,,,,,,,,,,,,,,,,,,,,,,,18,3.082,1,0,13,13,4,1,2,×,9,2 × 9,neutral,smallerFirst,1.5,1.5,18,,,,,,,,
,,,,,,,,,,,,,,,789,2022-01-18_12h58.35.291,multiplicationStroop,2021.2.3,Win32,59.03187721,,,,,,,,,,,,,,,,,,,,,,,,,,,,,,,,,54,1.856,1,0,14,14,21,1,9,×,6,9 × 6,neutral,largerFirst,1.5,1.5,54,,,,,,,,
,,,,,,,,,,,,,,,789,2022-01-18_12h58.35.291,multiplicationStroop,2021.2.3,Win32,59.03187721,,,,,,,,,,,,,,,,,,,,,,,,,,,,,,,,,28,2.0326,1,0,15,15,3,1,4,×,7,4 × 7,neutral,smallerFirst,1.5,1.5,28,,,,,,,,
,,,,,,,,,,,,,,,789,2022-01-18_12h58.35.291,multiplicationStroop,2021.2.3,Win32,59.03187721,,,,,,,,,,,,,,,,,,,,,,,,,,,,,,,,,25,1.7492,1,0,16,16,31,1,5,×,5,5 × 5,neutral,tie,1.5,1.5,25,,,,,,,,
,,,,,,,,,,,,,,,789,2022-01-18_12h58.35.291,multiplicationStroop,2021.2.3,Win32,59.03187721,,,,,,,,,,,,,,,,,,,,,,,,,,,,,,,,,40,2.6323,1,0,17,17,10,1,5,×,8,5 × 8,neutral,smallerFirst,1.5,1.5,40,,,,,,,,
,,,,,,,,,,,,,,,789,2022-01-18_12h58.35.291,multiplicationStroop,2021.2.3,Win32,59.03187721,,,,,,,,,,,,,,,,,,,,,,,,,,,,,,,,,42,1.9824,1,0,18,18,20,1,7,×,6,7 × 6,neutral,largerFirst,1.5,1.5,42,,,,,,,,
,,,,,,,,,,,,,,,789,2022-01-18_12h58.35.291,multiplicationStroop,2021.2.3,Win32,59.03187721,,,,,,,,,,,,,,,,,,,,,,,,,,,,,,,,,36,2.0491,1,0,19,19,13,1,4,×,9,4 × 9,neutral,smallerFirst,1.5,1.5,36,,,,,,,,
,,,,,,,,,,,,,,,789,2022-01-18_12h58.35.291,multiplicationStroop,2021.2.3,Win32,59.03187721,,,,,,,,,,,,,,,,,,,,,,,,,,,,,,,,,15,1.6823,1,0,20,20,19,1,5,×,3,5 × 3,neutral,largerFirst,1.5,1.5,15,,,,,,,,
,,,,,,,,,,,,,,,789,2022-01-18_12h58.35.291,multiplicationStroop,2021.2.3,Win32,59.03187721,,,,,,,,,,,,,,,,,,,,,,,,,,,,,,,,,8,1.6491,1,0,21,21,17,1,4,×,2,4 × 2,neutral,largerFirst,1.5,1.5,8,,,,,,,,
,,,,,,,,,,,,,,,789,2022-01-18_12h58.35.291,multiplicationStroop,2021.2.3,Win32,59.03187721,,,,,,,,,,,,,,,,,,,,,,,,,,,,,,,,,56,2.0331,1,0,22,22,23,1,8,×,7,8 × 7,neutral,largerFirst,1.5,1.5,56,,,,,,,,
,,,,,,,,,,,,,,,789,2022-01-18_12h58.35.291,multiplicationStroop,2021.2.3,Win32,59.03187721,,,,,,,,,,,,,,,,,,,,,,,,,,,,,,,,,32,1.7324,1,0,23,23,9,1,4,×,8,4 × 8,neutral,smallerFirst,1.5,1.5,32,,,,,,,,
,,,,,,,,,,,,,,,789,2022-01-18_12h58.35.291,multiplicationStroop,2021.2.3,Win32,59.03187721,,,,,,,,,,,,,,,,,,,,,,,,,,,,,,,,,14,1.6161,1,0,24,24,2,1,2,×,7,2 × 7,neutral,smallerFirst,1.5,1.5,14,,,,,,,,
,,,,,,,,,,,,,,,789,2022-01-18_12h58.35.291,multiplicationStroop,2021.2.3,Win32,59.03187721,,,,,,,,,,,,,,,,,,,,,,,,,,,,,,,,,48,2.2321,1,0,25,25,1,1,6,×,8,6 × 8,neutral,smallerFirst,1.5,1.5,48,,,,,,,,
,,,,,,,,,,,,,,,789,2022-01-18_12h58.35.291,multiplicationStroop,2021.2.3,Win32,59.03187721,,,,,,,,,,,,,,,,,,,,,,,,,,,,,,,,,72,3.3829,1,0,26,26,25,1,9,×,8,9 × 8,neutral,largerFirst,1.5,1.5,72,,,,,,,,
,,,,,,,,,,,,,,,789,2022-01-18_12h58.35.291,multiplicationStroop,2021.2.3,Win32,59.03187721,,,,,,,,,,,,,,,,,,,,,,,,,,,,,,,,,36,1.8232,1,0,27,27,32,1,6,×,6,6 × 6,neutral,tie,1.5,1.5,36,,,,,,,,
,,,,,,,,,,,,,,,789,2022-01-18_12h58.35.291,multiplicationStroop,2021.2.3,Win32,59.03187721,,,,,,,,,,,,,,,,,,,,,,,,,,,,,,,,,21,1.5996,1,0,28,28,22,1,7,×,3,7 × 3,neutral,largerFirst,1.5,1.5,21,,,,,,,,
,,,,,,,,,,,,,,,789,2022-01-18_12h58.35.291,multiplicationStroop,2021.2.3,Win32,59.03187721,,,,,,,,,,,,,,,,,,,,,,,,,,,,,,,,,9,1.6321,1,0,29,29,29,1,3,×,3,3 × 3,neutral,tie,1.5,1.5,9,,,,,,,,
,,,,,,,,,,,,,,,789,2022-01-18_12h58.35.291,multiplicationStroop,2021.2.3,Win32,59.03187721,,,,,,,,,,,,,,,,,,,,,,,,,,,,,,,,,64,2.6159,1,0,30,30,34,1,8,×,8,8 × 8,neutral,tie,1.5,1.5,64,,,,,,,,
,,,,,,,,,,,,,,,789,2022-01-18_12h58.35.291,multiplicationStroop,2021.2.3,Win32,59.03187721,,,,,,,,,,,,,,,,,,,,,,,,,,,,,,,,,12,1.7323,1,0,31,31,7,1,3,×,4,3 × 4,neutral,smallerFirst,1.5,1.5,12,,,,,,,,
,,,,,,,,,,,,,,,789,2022-01-18_12h58.35.291,multiplicationStroop,2021.2.3,Win32,59.03187721,,,,,,,,,,,,,,,,,,,,,,,,,,,,,,,,,81,2.8656,1,0,32,32,35,1,9,×,9,9 × 9,neutral,tie,1.5,1.5,81,,,,,,,,
,,,,,,,,,,,,,,,789,2022-01-18_12h58.35.291,multiplicationStroop,2021.2.3,Win32,59.03187721,,,,,,,,,,,,,,,,,,,,,,,,,,,,,,,,,24,1.5989,1,0,33,33,16,1,6,×,4,6 × 4,neutral,largerFirst,1.5,1.5,24,,,,,,,,
,,,,,,,,,,,,,,,789,2022-01-18_12h58.35.291,multiplicationStroop,2021.2.3,Win32,59.03187721,,,,,,,,,,,,,,,,,,,,,,,,,,,,,,,,,35,1.9827,1,0,34,34,15,1,7,×,5,7 × 5,neutral,largerFirst,1.5,1.5,35,,,,,,,,
,,,,,,,,,,,,,,,789,2022-01-18_12h58.35.291,multiplicationStroop,2021.2.3,Win32,59.03187721,,,,,,,,,,,,,,,,,,,,,,,,,,,,,,,,,10,1.999,1,0,35,35,18,1,5,×,2,5 × 2,neutral,largerFirst,1.5,1.5,10,,,,,,,,
,,,,,,,,,,,,,,,789,2022-01-18_12h58.35.291,multiplicationStroop,2021.2.3,Win32,59.03187721,,,,,,,,,,,,,,,,,,,,,,,,,,,,,,,,,,,,,,,,,,,,,,,,,,0,5,5,0,1,stimulusFile/mult_blk1.xlsx,,
,,,,,,,,,,,,,,,789,2022-01-18_12h58.35.291,multiplicationStroop,2021.2.3,Win32,59.03187721,,,,,,,,,,,,,,,,,,,,,,,,,,,,,,,,,,,,,,,,,,,,,,,,,,,,,,,,space,6.7599