welcomeKey_resp.keys,welcomeKey_resp.rt,X Scale,Y Scale,rt_resp_4.keys,rt_resp_4.corr,rt_resp_4.rt,speedtest_2.thisRepN,speedtest_2.thisTrialN,speedtest_2.thisN,speedtest_2.thisIndex,speedtest_2.ran,numberSc,posX,positionLayout,participant,date,expName,psychopyVersion,OS,frameRate,ct_instrresp.keys,ct_instrresp.rt,key_resp_2.keys,key_resp_2.rt,ct_keyResp.keys,ct_keyResp.corr,ct_keyResp.rt,trials.thisRepN,trials.thisTrialN,trials.thisN,trials.thisIndex,trials.ran,leftNo,rightNo,displayProblem,numDistance,leftNo_size,rightNo_size,Dims,keyAnswer,TS_Loop.thisRepN,TS_Loop.thisTrialN,TS_Loop.thisN,TS_Loop.thisIndex,TS_Loop.ran,Condition,ActionInst,instrImage,mltptaskInst_resp.keys,mltptaskInst_resp.rt,continue_resp_2.keys,continue_resp_2.rt,multp_Answer,multi_RT,multiplyCorr,LoopingMultiply.thisRepN,LoopingMultiply.thisTrialN,LoopingMultiply.thisN,LoopingMultiply.thisIndex,LoopingMultiply.ran,factor1,multiplySign,factor2,multliplyProblem,physicalSize,orderOperand,sizeF1,sizeF2,mult_answer,trials_stroop.thisRepN,trials_stroop.thisTrialN,trials_stroop.thisN,trials_stroop.thisIndex,trials_stroop.ran,multiplicationFile,esckey_resp_2.keys,esckey_resp_2.rt
y,6.8022,58.9,46.5,left,1,1.0369,0,0,0,1,1,2,-200,left,790,2022-01-17_13h23.37.757,multiplicationStroop,2021.2.3,Win32,143.7194596,,,,,,,,,,,,,,,,,,,,,,,,,,,,,,,,,,,,,,,,,,,,,,,,,,,,,,,,,
,,,,left,1,0.4762,0,1,1,0,1,1,-200,left,790,2022-01-17_13h23.37.757,multiplicationStroop,2021.2.3,Win32,143.7194596,,,,,,,,,,,,,,,,,,,,,,,,,,,,,,,,,,,,,,,,,,,,,,,,,,,,,,,,,
,,,,left,1,0.3015,0,2,2,4,1,6,-200,left,790,2022-01-17_13h23.37.757,multiplicationStroop,2021.2.3,Win32,143.7194596,,,,,,,,,,,,,,,,,,,,,,,,,,,,,,,,,,,,,,,,,,,,,,,,,,,,,,,,,
,,,,right,1,0.3422,0,3,3,11,1,4,200,right,790,2022-01-17_13h23.37.757,multiplicationStroop,2021.2.3,Win32,143.7194596,,,,,,,,,,,,,,,,,,,,,,,,,,,,,,,,,,,,,,,,,,,,,,,,,,,,,,,,,
,,,,right,1,0.2529,0,4,4,10,1,3,200,right,790,2022-01-17_13h23.37.757,multiplicationStroop,2021.2.3,Win32,143.7194596,,,,,,,,,,,,,,,,,,,,,,,,,,,,,,,,,,,,,,,,,,,,,,,,,,,,,,,,,
,,,,left,1,0.3008,0,5,5,7,1,9,-200,left,790,2022-01-17_13h23.37.757,multiplicationStroop,2021.2.3,Win32,143.7194596,,,,,,,,,,,,,,,,,,,,,,,,,,,,,,,,,,,,,,,,,,,,,,,,,,,,,,,,,
,,,,left,1,0.3008,0,6,6,3,1,4,-200,left,790,2022-01-17_13h23.37.757,multiplicationStroop,2021.2.3,Win32,143.7194596,,,,,,,,,,,,,,,,,,,,,,,,,,,,,,,,,,,,,,,,,,,,,,,,,,,,,,,,,
,,,,left,1,0.2532,0,7,7,2,1,3,-200,left,790,2022-01-17_13h23.37.757,multiplicationStroop,2021.2.3,Win32,143.7194596,,,,,,,,,,,,,,,,,,,,,,,,,,,,,,,,,,,,,,,,,,,,,,,,,,,,,,,,,
,,,,right,1,0.2453,0,8,8,15,1,9,200,right,790,2022-01-17_13h23.37.757,multiplicationStroop,2021.2.3,Win32,143.7194596,,,,,,,,,,,,,,,,,,,,,,,,,,,,,,,,,,,,,,,,,,,,,,,,,,,,,,,,,
,,,,left,1,0.258,0,9,9,6,1,8,-200,left,790,2022-01-17_13h23.37.757,multiplicationStroop,2021.2.3,Win32,143.7194596,,,,,,,,,,,,,,,,,,,,,,,,,,,,,,,,,,,,,,,,,,,,,,,,,,,,,,,,,
,,,,right,1,0.2729,0,10,10,14,1,8,200,right,790,2022-01-17_13h23.37.757,multiplicationStroop,2021.2.3,Win32,143.7194596,,,,,,,,,,,,,,,,,,,,,,,,,,,,,,,,,,,,,,,,,,,,,,,,,,,,,,,,,
,,,,left,1,0.226,0,11,11,5,1,7,-200,left,790,2022-01-17_13h23.37.757,multiplicationStroop,2021.2.3,Win32,143.7194596,,,,,,,,,,,,,,,,,,,,,,,,,,,,,,,,,,,,,,,,,,,,,,,,,,,,,,,,,
,,,,right,1,0.227,0,12,12,13,1,7,200,right,790,2022-01-17_13h23.37.757,multiplicationStroop,2021.2.3,Win32,143.7194596,,,,,,,,,,,,,,,,,,,,,,,,,,,,,,,,,,,,,,,,,,,,,,,,,,,,,,,,,
,,,,right,1,0.3559,0,13,13,8,1,1,200,right,790,2022-01-17_13h23.37.757,multiplicationStroop,2021.2.3,Win32,143.7194596,,,,,,,,,,,,,,,,,,,,,,,,,,,,,,,,,,,,,,,,,,,,,,,,,,,,,,,,,
,,,,right,1,0.2666,0,14,14,12,1,6,200,right,790,2022-01-17_13h23.37.757,multiplicationStroop,2021.2.3,Win32,143.7194596,,,,,,,,,,,,,,,,,,,,,,,,,,,,,,,,,,,,,,,,,,,,,,,,,,,,,,,,,
,,,,right,1,0.2767,0,15,15,9,1,2,200,right,790,2022-01-17_13h23.37.757,multiplicationStroop,2021.2.3,Win32,143.7194596,,,,,,,,,,,,,,,,,,,,,,,,,,,,,,,,,,,,,,,,,,,,,,,,,,,,,,,,,
,,,,right,1,0.2338,1,0,16,10,1,3,200,right,790,2022-01-17_13h23.37.757,multiplicationStroop,2021.2.3,Win32,143.7194596,,,,,,,,,,,,,,,,,,,,,,,,,,,,,,,,,,,,,,,,,,,,,,,,,,,,,,,,,
,,,,left,1,0.2954,1,1,17,2,1,3,-200,left,790,2022-01-17_13h23.37.757,multiplicationStroop,2021.2.3,Win32,143.7194596,,,,,,,,,,,,,,,,,,,,,,,,,,,,,,,,,,,,,,,,,,,,,,,,,,,,,,,,,
,,,,left,1,0.3021,1,2,18,0,1,1,-200,left,790,2022-01-17_13h23.37.757,multiplicationStroop,2021.2.3,Win32,143.7194596,,,,,,,,,,,,,,,,,,,,,,,,,,,,,,,,,,,,,,,,,,,,,,,,,,,,,,,,,
,,,,right,1,0.312,1,3,19,11,1,4,200,right,790,2022-01-17_13h23.37.757,multiplicationStroop,2021.2.3,Win32,143.7194596,,,,,,,,,,,,,,,,,,,,,,,,,,,,,,,,,,,,,,,,,,,,,,,,,,,,,,,,,
,,,,left,1,0.2264,1,4,20,3,1,4,-200,left,790,2022-01-17_13h23.37.757,multiplicationStroop,2021.2.3,Win32,143.7194596,,,,,,,,,,,,,,,,,,,,,,,,,,,,,,,,,,,,,,,,,,,,,,,,,,,,,,,,,
,,,,right,1,0.2293,1,5,21,9,1,2,200,right,790,2022-01-17_13h23.37.757,multiplicationStroop,2021.2.3,Win32,143.7194596,,,,,,,,,,,,,,,,,,,,,,,,,,,,,,,,,,,,,,,,,,,,,,,,,,,,,,,,,
,,,,right,1,0.3175,1,6,22,14,1,8,200,right,790,2022-01-17_13h23.37.757,multiplicationStroop,2021.2.3,Win32,143.7194596,,,,,,,,,,,,,,,,,,,,,,,,,,,,,,,,,,,,,,,,,,,,,,,,,,,,,,,,,
,,,,right,1,0.2077,1,7,23,8,1,1,200,right,790,2022-01-17_13h23.37.757,multiplicationStroop,2021.2.3,Win32,143.7194596,,,,,,,,,,,,,,,,,,,,,,,,,,,,,,,,,,,,,,,,,,,,,,,,,,,,,,,,,
,,,,left,1,0.3214,1,8,24,4,1,6,-200,left,790,2022-01-17_13h23.37.757,multiplicationStroop,2021.2.3,Win32,143.7194596,,,,,,,,,,,,,,,,,,,,,,,,,,,,,,,,,,,,,,,,,,,,,,,,,,,,,,,,,
,,,,right,1,0.2388,1,9,25,12,1,6,200,right,790,2022-01-17_13h23.37.757,multiplicationStroop,2021.2.3,Win32,143.7194596,,,,,,,,,,,,,,,,,,,,,,,,,,,,,,,,,,,,,,,,,,,,,,,,,,,,,,,,,
,,,,left,1,0.2595,1,10,26,1,1,2,-200,left,790,2022-01-17_13h23.37.757,multiplicationStroop,2021.2.3,Win32,143.7194596,,,,,,,,,,,,,,,,,,,,,,,,,,,,,,,,,,,,,,,,,,,,,,,,,,,,,,,,,
,,,,left,1,0.3137,1,11,27,7,1,9,-200,left,790,2022-01-17_13h23.37.757,multiplicationStroop,2021.2.3,Win32,143.7194596,,,,,,,,,,,,,,,,,,,,,,,,,,,,,,,,,,,,,,,,,,,,,,,,,,,,,,,,,
,,,,left,1,0.2864,1,12,28,5,1,7,-200,left,790,2022-01-17_13h23.37.757,multiplicationStroop,2021.2.3,Win32,143.7194596,,,,,,,,,,,,,,,,,,,,,,,,,,,,,,,,,,,,,,,,,,,,,,,,,,,,,,,,,
,,,,right,1,0.2672,1,13,29,15,1,9,200,right,790,2022-01-17_13h23.37.757,multiplicationStroop,2021.2.3,Win32,143.7194596,,,,,,,,,,,,,,,,,,,,,,,,,,,,,,,,,,,,,,,,,,,,,,,,,,,,,,,,,
,,,,right,1,0.2971,1,14,30,13,1,7,200,right,790,2022-01-17_13h23.37.757,multiplicationStroop,2021.2.3,Win32,143.7194596,,,,,,,,,,,,,,,,,,,,,,,,,,,,,,,,,,,,,,,,,,,,,,,,,,,,,,,,,
,,,,right,0,0.2372,1,15,31,6,1,8,-200,left,790,2022-01-17_13h23.37.757,multiplicationStroop,2021.2.3,Win32,143.7194596,,,,,,,,,,,,,,,,,,,,,,,,,,,,,,,,,,,,,,,,,,,,,,,,,,,,,,,,,
,,,,left,1,0.3385,2,0,32,2,1,3,-200,left,790,2022-01-17_13h23.37.757,multiplicationStroop,2021.2.3,Win32,143.7194596,,,,,,,,,,,,,,,,,,,,,,,,,,,,,,,,,,,,,,,,,,,,,,,,,,,,,,,,,
,,,,left,0,0.2338,2,1,33,10,1,3,200,right,790,2022-01-17_13h23.37.757,multiplicationStroop,2021.2.3,Win32,143.7194596,,,,,,,,,,,,,,,,,,,,,,,,,,,,,,,,,,,,,,,,,,,,,,,,,,,,,,,,,
,,,,left,1,0.3838,2,2,34,1,1,2,-200,left,790,2022-01-17_13h23.37.757,multiplicationStroop,2021.2.3,Win32,143.7194596,,,,,,,,,,,,,,,,,,,,,,,,,,,,,,,,,,,,,,,,,,,,,,,,,,,,,,,,,
,,,,right,1,0.316,2,3,35,15,1,9,200,right,790,2022-01-17_13h23.37.757,multiplicationStroop,2021.2.3,Win32,143.7194596,,,,,,,,,,,,,,,,,,,,,,,,,,,,,,,,,,,,,,,,,,,,,,,,,,,,,,,,,
,,,,right,1,0.3657,2,4,36,13,1,7,200,right,790,2022-01-17_13h23.37.757,multiplicationStroop,2021.2.3,Win32,143.7194596,,,,,,,,,,,,,,,,,,,,,,,,,,,,,,,,,,,,,,,,,,,,,,,,,,,,,,,,,
,,,,left,1,0.3306,2,5,37,0,1,1,-200,left,790,2022-01-17_13h23.37.757,multiplicationStroop,2021.2.3,Win32,143.7194596,,,,,,,,,,,,,,,,,,,,,,,,,,,,,,,,,,,,,,,,,,,,,,,,,,,,,,,,,
,,,,right,1,0.2946,2,6,38,14,1,8,200,right,790,2022-01-17_13h23.37.757,multiplicationStroop,2021.2.3,Win32,143.7194596,,,,,,,,,,,,,,,,,,,,,,,,,,,,,,,,,,,,,,,,,,,,,,,,,,,,,,,,,
,,,,right,1,0.3624,2,7,39,9,1,2,200,right,790,2022-01-17_13h23.37.757,multiplicationStroop,2021.2.3,Win32,143.7194596,,,,,,,,,,,,,,,,,,,,,,,,,,,,,,,,,,,,,,,,,,,,,,,,,,,,,,,,,
,,,,left,1,0.3069,2,8,40,6,1,8,-200,left,790,2022-01-17_13h23.37.757,multiplicationStroop,2021.2.3,Win32,143.7194596,,,,,,,,,,,,,,,,,,,,,,,,,,,,,,,,,,,,,,,,,,,,,,,,,,,,,,,,,
,,,,left,1,0.2861,2,9,41,7,1,9,-200,left,790,2022-01-17_13h23.37.757,multiplicationStroop,2021.2.3,Win32,143.7194596,,,,,,,,,,,,,,,,,,,,,,,,,,,,,,,,,,,,,,,,,,,,,,,,,,,,,,,,,
,,,,right,1,0.2898,2,10,42,12,1,6,200,right,790,2022-01-17_13h23.37.757,multiplicationStroop,2021.2.3,Win32,143.7194596,,,,,,,,,,,,,,,,,,,,,,,,,,,,,,,,,,,,,,,,,,,,,,,,,,,,,,,,,
,,,,right,1,0.3261,2,11,43,8,1,1,200,right,790,2022-01-17_13h23.37.757,multiplicationStroop,2021.2.3,Win32,143.7194596,,,,,,,,,,,,,,,,,,,,,,,,,,,,,,,,,,,,,,,,,,,,,,,,,,,,,,,,,
,,,,right,1,0.3018,2,12,44,11,1,4,200,right,790,2022-01-17_13h23.37.757,multiplicationStroop,2021.2.3,Win32,143.7194596,,,,,,,,,,,,,,,,,,,,,,,,,,,,,,,,,,,,,,,,,,,,,,,,,,,,,,,,,
,,,,left,1,0.2953,2,13,45,4,1,6,-200,left,790,2022-01-17_13h23.37.757,multiplicationStroop,2021.2.3,Win32,143.7194596,,,,,,,,,,,,,,,,,,,,,,,,,,,,,,,,,,,,,,,,,,,,,,,,,,,,,,,,,
,,,,left,1,0.3166,2,14,46,3,1,4,-200,left,790,2022-01-17_13h23.37.757,multiplicationStroop,2021.2.3,Win32,143.7194596,,,,,,,,,,,,,,,,,,,,,,,,,,,,,,,,,,,,,,,,,,,,,,,,,,,,,,,,,
,,,,left,1,0.2372,2,15,47,5,1,7,-200,left,790,2022-01-17_13h23.37.757,multiplicationStroop,2021.2.3,Win32,143.7194596,,,,,,,,,,,,,,,,,,,,,,,,,,,,,,,,,,,,,,,,,,,,,,,,,,,,,,,,,
,,,,left,1,0.2777,3,0,48,7,1,9,-200,left,790,2022-01-17_13h23.37.757,multiplicationStroop,2021.2.3,Win32,143.7194596,,,,,,,,,,,,,,,,,,,,,,,,,,,,,,,,,,,,,,,,,,,,,,,,,,,,,,,,,
,,,,left,1,0.2555,3,1,49,6,1,8,-200,left,790,2022-01-17_13h23.37.757,multiplicationStroop,2021.2.3,Win32,143.7194596,,,,,,,,,,,,,,,,,,,,,,,,,,,,,,,,,,,,,,,,,,,,,,,,,,,,,,,,,
,,,,left,1,0.2584,3,2,50,2,1,3,-200,left,790,2022-01-17_13h23.37.757,multiplicationStroop,2021.2.3,Win32,143.7194596,,,,,,,,,,,,,,,,,,,,,,,,,,,,,,,,,,,,,,,,,,,,,,,,,,,,,,,,,
,,,,left,1,0.2997,3,3,51,4,1,6,-200,left,790,2022-01-17_13h23.37.757,multiplicationStroop,2021.2.3,Win32,143.7194596,,,,,,,,,,,,,,,,,,,,,,,,,,,,,,,,,,,,,,,,,,,,,,,,,,,,,,,,,
,,,,right,1,0.3173,3,4,52,13,1,7,200,right,790,2022-01-17_13h23.37.757,multiplicationStroop,2021.2.3,Win32,143.7194596,,,,,,,,,,,,,,,,,,,,,,,,,,,,,,,,,,,,,,,,,,,,,,,,,,,,,,,,,
,,,,right,1,0.2751,3,5,53,10,1,3,200,right,790,2022-01-17_13h23.37.757,multiplicationStroop,2021.2.3,Win32,143.7194596,,,,,,,,,,,,,,,,,,,,,,,,,,,,,,,,,,,,,,,,,,,,,,,,,,,,,,,,,
,,,,left,1,0.3814,3,6,54,1,1,2,-200,left,790,2022-01-17_13h23.37.757,multiplicationStroop,2021.2.3,Win32,143.7194596,,,,,,,,,,,,,,,,,,,,,,,,,,,,,,,,,,,,,,,,,,,,,,,,,,,,,,,,,
,,,,right,1,0.2343,3,7,55,11,1,4,200,right,790,2022-01-17_13h23.37.757,multiplicationStroop,2021.2.3,Win32,143.7194596,,,,,,,,,,,,,,,,,,,,,,,,,,,,,,,,,,,,,,,,,,,,,,,,,,,,,,,,,
,,,,right,1,0.3523,3,8,56,15,1,9,200,right,790,2022-01-17_13h23.37.757,multiplicationStroop,2021.2.3,Win32,143.7194596,,,,,,,,,,,,,,,,,,,,,,,,,,,,,,,,,,,,,,,,,,,,,,,,,,,,,,,,,
,,,,left,1,0.3117,3,9,57,0,1,1,-200,left,790,2022-01-17_13h23.37.757,multiplicationStroop,2021.2.3,Win32,143.7194596,,,,,,,,,,,,,,,,,,,,,,,,,,,,,,,,,,,,,,,,,,,,,,,,,,,,,,,,,
,,,,left,1,0.2808,3,10,58,5,1,7,-200,left,790,2022-01-17_13h23.37.757,multiplicationStroop,2021.2.3,Win32,143.7194596,,,,,,,,,,,,,,,,,,,,,,,,,,,,,,,,,,,,,,,,,,,,,,,,,,,,,,,,,
,,,,right,1,0.2808,3,11,59,9,1,2,200,right,790,2022-01-17_13h23.37.757,multiplicationStroop,2021.2.3,Win32,143.7194596,,,,,,,,,,,,,,,,,,,,,,,,,,,,,,,,,,,,,,,,,,,,,,,,,,,,,,,,,
,,,,right,1,0.3191,3,12,60,8,1,1,200,right,790,2022-01-17_13h23.37.757,multiplicationStroop,2021.2.3,Win32,143.7194596,,,,,,,,,,,,,,,,,,,,,,,,,,,,,,,,,,,,,,,,,,,,,,,,,,,,,,,,,
,,,,left,1,0.269,3,13,61,3,1,4,-200,left,790,2022-01-17_13h23.37.757,multiplicationStroop,2021.2.3,Win32,143.7194596,,,,,,,,,,,,,,,,,,,,,,,,,,,,,,,,,,,,,,,,,,,,,,,,,,,,,,,,,
,,,,right,1,0.2426,3,14,62,14,1,8,200,right,790,2022-01-17_13h23.37.757,multiplicationStroop,2021.2.3,Win32,143.7194596,,,,,,,,,,,,,,,,,,,,,,,,,,,,,,,,,,,,,,,,,,,,,,,,,,,,,,,,,
,,,,right,1,0.2965,3,15,63,12,1,6,200,right,790,2022-01-17_13h23.37.757,multiplicationStroop,2021.2.3,Win32,143.7194596,,,,,,,,,,,,,,,,,,,,,,,,,,stimulusFile/magnitude.xlsx,,,,,,,,,,,,,,,,,,,,,,,,,,,,,,,
,,,,,,,,,,,,,,,790,2022-01-17_13h23.37.757,multiplicationStroop,2021.2.3,Win32,143.7194596,space,14.0691,space,13.6873,right,1,0.7041,0,0,0,51,1,8,9,8 | 9,1,1.6933,1.6933,neutral,right,,,,,,stimulusFile/magnitude.xlsx,,,,,,,,,,,,,,,,,,,,,,,,,,,,,,,
,,,,,,,,,,,,,,,790,2022-01-17_13h23.37.757,multiplicationStroop,2021.2.3,Win32,143.7194596,,,,,right,0,0.7458,0,1,1,47,1,9,4,9 | 4,5,1.4111,1.9756,incongruent,left,,,,,,stimulusFile/magnitude.xlsx,,,,,,,,,,,,,,,,,,,,,,,,,,,,,,,
,,,,,,,,,,,,,,,790,2022-01-17_13h23.37.757,multiplicationStroop,2021.2.3,Win32,143.7194596,,,,,left,1,2.5888,0,2,2,5,1,4,3,4 | 3,1,1.9756,1.4111,congruent,left,,,,,,stimulusFile/magnitude.xlsx,,,,,,,,,,,,,,,,,,,,,,,,,,,,,,,
,,,,,,,,,,,,,,,790,2022-01-17_13h23.37.757,multiplicationStroop,2021.2.3,Win32,143.7194596,,,,,left,1,0.6576,0,3,3,20,1,6,1,6 | 1,5,1.9756,1.4111,congruent,left,,,,,,stimulusFile/magnitude.xlsx,,,,,,,,,,,,,,,,,,,,,,,,,,,,,,,
,,,,,,,,,,,,,,,790,2022-01-17_13h23.37.757,multiplicationStroop,2021.2.3,Win32,143.7194596,,,,,left,1,0.6347,0,4,4,6,1,7,6,7 | 6,1,1.9756,1.4111,congruent,left,,,,,,stimulusFile/magnitude.xlsx,,,,,,,,,,,,,,,,,,,,,,,,,,,,,,,
,,,,,,,,,,,,,,,790,2022-01-17_13h23.37.757,multiplicationStroop,2021.2.3,Win32,143.7194596,,,,,left,1,0.844,0,5,5,44,1,6,1,6 | 1,5,1.4111,1.9756,incongruent,left,,,,,,stimulusFile/magnitude.xlsx,,,,,,,,,,,,,,,,,,,,,,,,,,,,,,,
,,,,,,,,,,,,,,,790,2022-01-17_13h23.37.757,multiplicationStroop,2021.2.3,Win32,143.7194596,,,,,right,1,0.7668,0,6,6,43,1,4,9,4 | 9,5,1.9756,1.4111,incongruent,right,,,,,,stimulusFile/magnitude.xlsx,,,,,,,,,,,,,,,,,,,,,,,,,,,,,,,
,,,,,,,,,,,,,,,790,2022-01-17_13h23.37.757,multiplicationStroop,2021.2.3,Win32,143.7194596,,,,,right,1,0.8391,0,7,7,24,1,1,2,1 | 2,1,1.9756,1.4111,incongruent,right,,,,,,stimulusFile/magnitude.xlsx,,,,,,,,,,,,,,,,,,,,,,,,,,,,,,,
,,,,,,,,,,,,,,,790,2022-01-17_13h23.37.757,multiplicationStroop,2021.2.3,Win32,143.7194596,,,,,right,1,0.6019,0,8,8,42,1,3,8,3 | 8,5,1.9756,1.4111,incongruent,right,,,,,,stimulusFile/magnitude.xlsx,,,,,,,,,,,,,,,,,,,,,,,,,,,,,,,
,,,,,,,,,,,,,,,790,2022-01-17_13h23.37.757,multiplicationStroop,2021.2.3,Win32,143.7194596,,,,,right,1,1.0264,0,9,9,26,1,6,7,6 | 7,1,1.9756,1.4111,incongruent,right,,,,,,stimulusFile/magnitude.xlsx,,,,,,,,,,,,,,,,,,,,,,,,,,,,,,,
,,,,,,,,,,,,,,,790,2022-01-17_13h23.37.757,multiplicationStroop,2021.2.3,Win32,143.7194596,,,,,left,1,0.8195,0,10,10,39,1,9,7,9 | 7,2,1.4111,1.9756,incongruent,left,,,,,,stimulusFile/magnitude.xlsx,,,,,,,,,,,,,,,,,,,,,,,,,,,,,,,
,,,,,,,,,,,,,,,790,2022-01-17_13h23.37.757,multiplicationStroop,2021.2.3,Win32,143.7194596,,,,,right,1,0.7378,0,11,11,27,1,8,9,8 | 9,1,1.9756,1.4111,incongruent,right,,,,,,stimulusFile/magnitude.xlsx,,,,,,,,,,,,,,,,,,,,,,,,,,,,,,,
,,,,,,,,,,,,,,,790,2022-01-17_13h23.37.757,multiplicationStroop,2021.2.3,Win32,143.7194596,,,,,left,1,0.6851,0,12,12,36,1,3,1,3 | 1,2,1.4111,1.9756,incongruent,left,,,,,,stimulusFile/magnitude.xlsx,,,,,,,,,,,,,,,,,,,,,,,,,,,,,,,
,,,,,,,,,,,,,,,790,2022-01-17_13h23.37.757,multiplicationStroop,2021.2.3,Win32,143.7194596,,,,,left,1,0.6682,0,13,13,45,1,7,2,7 | 2,5,1.4111,1.9756,incongruent,left,,,,,,stimulusFile/magnitude.xlsx,,,,,,,,,,,,,,,,,,,,,,,,,,,,,,,
,,,,,,,,,,,,,,,790,2022-01-17_13h23.37.757,multiplicationStroop,2021.2.3,Win32,143.7194596,,,,,left,1,0.6248,0,14,14,29,1,4,3,4 | 3,1,1.4111,1.9756,incongruent,left,,,,,,stimulusFile/magnitude.xlsx,,,,,,,,,,,,,,,,,,,,,,,,,,,,,,,
,,,,,,,,,,,,,,,790,2022-01-17_13h23.37.757,multiplicationStroop,2021.2.3,Win32,143.7194596,,,,,left,1,0.5435,0,15,15,71,1,9,4,9 | 4,5,1.6933,1.6933,neutral,left,,,,,,stimulusFile/magnitude.xlsx,,,,,,,,,,,,,,,,,,,,,,,,,,,,,,,
,,,,,,,,,,,,,,,790,2022-01-17_13h23.37.757,multiplicationStroop,2021.2.3,Win32,143.7194596,,,,,left,1,0.5524,0,16,16,60,1,3,1,3 | 1,2,1.6933,1.6933,neutral,left,,,,,,stimulusFile/magnitude.xlsx,,,,,,,,,,,,,,,,,,,,,,,,,,,,,,,
,,,,,,,,,,,,,,,790,2022-01-17_13h23.37.757,multiplicationStroop,2021.2.3,Win32,143.7194596,,,,,right,1,0.6976,0,17,17,35,1,7,9,7 | 9,2,1.9756,1.4111,incongruent,right,,,,,,stimulusFile/magnitude.xlsx,,,,,,,,,,,,,,,,,,,,,,,,,,,,,,,
,,,,,,,,,,,,,,,790,2022-01-17_13h23.37.757,multiplicationStroop,2021.2.3,Win32,143.7194596,,,,,right,1,0.8115,0,18,18,3,1,8,9,8 | 9,1,1.4111,1.9756,congruent,right,,,,,,stimulusFile/magnitude.xlsx,,,,,,,,,,,,,,,,,,,,,,,,,,,,,,,
,,,,,,,,,,,,,,,790,2022-01-17_13h23.37.757,multiplicationStroop,2021.2.3,Win32,143.7194596,,,,,left,1,0.5389,0,19,19,12,1,3,1,3 | 1,2,1.9756,1.4111,congruent,left,,,,,,stimulusFile/magnitude.xlsx,,,,,,,,,,,,,,,,,,,,,,,,,,,,,,,
,,,,,,,,,,,,,,,790,2022-01-17_13h23.37.757,multiplicationStroop,2021.2.3,Win32,143.7194596,,,,,left,1,0.8325,0,20,20,54,1,7,6,7 | 6,1,1.6933,1.6933,neutral,left,,,,,,stimulusFile/magnitude.xlsx,,,,,,,,,,,,,,,,,,,,,,,,,,,,,,,
,,,,,,,,,,,,,,,790,2022-01-17_13h23.37.757,multiplicationStroop,2021.2.3,Win32,143.7194596,,,,,right,1,0.5876,0,21,21,59,1,7,9,7 | 9,2,1.6933,1.6933,neutral,right,,,,,,stimulusFile/magnitude.xlsx,,,,,,,,,,,,,,,,,,,,,,,,,,,,,,,
,,,,,,,,,,,,,,,790,2022-01-17_13h23.37.757,multiplicationStroop,2021.2.3,Win32,143.7194596,,,,,right,1,0.6103,0,22,22,48,1,1,2,1 | 2,1,1.6933,1.6933,neutral,right,,,,,,stimulusFile/magnitude.xlsx,,,,,,,,,,,,,,,,,,,,,,,,,,,,,,,
,,,,,,,,,,,,,,,790,2022-01-17_13h23.37.757,multiplicationStroop,2021.2.3,Win32,143.7194596,,,,,right,1,0.4739,0,23,23,19,1,4,9,4 | 9,5,1.4111,1.9756,congruent,right,,,,,,stimulusFile/magnitude.xlsx,,,,,,,,,,,,,,,,,,,,,,,,,,,,,,,
,,,,,,,,,,,,,,,790,2022-01-17_13h23.37.757,multiplicationStroop,2021.2.3,Win32,143.7194596,,,,,right,1,0.4546,0,24,24,67,1,4,9,4 | 9,5,1.6933,1.6933,neutral,right,,,,,,stimulusFile/magnitude.xlsx,,,,,,,,,,,,,,,,,,,,,,,,,,,,,,,
,,,,,,,,,,,,,,,790,2022-01-17_13h23.37.757,multiplicationStroop,2021.2.3,Win32,143.7194596,,,,,left,1,0.4719,0,25,25,62,1,8,6,8 | 6,2,1.6933,1.6933,neutral,left,,,,,,stimulusFile/magnitude.xlsx,,,,,,,,,,,,,,,,,,,,,,,,,,,,,,,
,,,,,,,,,,,,,,,790,2022-01-17_13h23.37.757,multiplicationStroop,2021.2.3,Win32,143.7194596,,,,,right,1,0.5437,0,26,26,34,1,6,8,6 | 8,2,1.9756,1.4111,incongruent,right,,,,,,stimulusFile/magnitude.xlsx,,,,,,,,,,,,,,,,,,,,,,,,,,,,,,,
,,,,,,,,,,,,,,,790,2022-01-17_13h23.37.757,multiplicationStroop,2021.2.3,Win32,143.7194596,,,,,right,1,0.4438,0,27,27,10,1,6,8,6 | 8,2,1.4111,1.9756,congruent,right,,,,,,stimulusFile/magnitude.xlsx,,,,,,,,,,,,,,,,,,,,,,,,,,,,,,,
,,,,,,,,,,,,,,,790,2022-01-17_13h23.37.757,multiplicationStroop,2021.2.3,Win32,143.7194596,,,,,left,1,0.4605,0,28,28,61,1,4,2,4 | 2,2,1.6933,1.6933,neutral,left,,,,,,stimulusFile/magnitude.xlsx,,,,,,,,,,,,,,,,,,,,,,,,,,,,,,,
,,,,,,,,,,,,,,,790,2022-01-17_13h23.37.757,multiplicationStroop,2021.2.3,Win32,143.7194596,,,,,left,1,0.6282,0,29,29,46,1,8,3,8 | 3,5,1.4111,1.9756,incongruent,left,,,,,,stimulusFile/magnitude.xlsx,,,,,,,,,,,,,,,,,,,,,,,,,,,,,,,
,,,,,,,,,,,,,,,790,2022-01-17_13h23.37.757,multiplicationStroop,2021.2.3,Win32,143.7194596,,,,,right,0,0.5045,0,30,30,7,1,9,8,9 | 8,1,1.9756,1.4111,congruent,left,,,,,,stimulusFile/magnitude.xlsx,,,,,,,,,,,,,,,,,,,,,,,,,,,,,,,
,,,,,,,,,,,,,,,790,2022-01-17_13h23.37.757,multiplicationStroop,2021.2.3,Win32,143.7194596,,,,,right,1,1.111,0,31,31,64,1,1,6,1 | 6,5,1.6933,1.6933,neutral,right,,,,,,stimulusFile/magnitude.xlsx,,,,,,,,,,,,,,,,,,,,,,,,,,,,,,,
,,,,,,,,,,,,,,,790,2022-01-17_13h23.37.757,multiplicationStroop,2021.2.3,Win32,143.7194596,,,,,right,1,0.7685,0,32,32,0,1,1,2,1 | 2,1,1.4111,1.9756,congruent,right,,,,,,stimulusFile/magnitude.xlsx,,,,,,,,,,,,,,,,,,,,,,,,,,,,,,,
,,,,,,,,,,,,,,,790,2022-01-17_13h23.37.757,multiplicationStroop,2021.2.3,Win32,143.7194596,,,,,left,1,0.5112,0,33,33,23,1,9,4,9 | 4,5,1.9756,1.4111,congruent,left,,,,,,stimulusFile/magnitude.xlsx,,,,,,,,,,,,,,,,,,,,,,,,,,,,,,,
,,,,,,,,,,,,,,,790,2022-01-17_13h23.37.757,multiplicationStroop,2021.2.3,Win32,143.7194596,,,,,right,1,0.5619,0,34,34,32,1,1,3,1 | 3,2,1.9756,1.4111,incongruent,right,,,,,,stimulusFile/magnitude.xlsx,,,,,,,,,,,,,,,,,,,,,,,,,,,,,,,
,,,,,,,,,,,,,,,790,2022-01-17_13h23.37.757,multiplicationStroop,2021.2.3,Win32,143.7194596,,,,,right,1,0.4722,0,35,35,8,1,1,3,1 | 3,2,1.4111,1.9756,congruent,right,,,,,,stimulusFile/magnitude.xlsx,,,,,,,,,,,,,,,,,,,,,,,,,,,,,,,
,,,,,,,,,,,,,,,790,2022-01-17_13h23.37.757,multiplicationStroop,2021.2.3,Win32,143.7194596,,,,,right,1,0.8001,0,36,36,50,1,6,7,6 | 7,1,1.6933,1.6933,neutral,right,,,,,,stimulusFile/magnitude.xlsx,,,,,,,,,,,,,,,,,,,,,,,,,,,,,,,
,,,,,,,,,,,,,,,790,2022-01-17_13h23.37.757,multiplicationStroop,2021.2.3,Win32,143.7194596,,,,,right,1,0.4372,0,37,37,2,1,6,7,6 | 7,1,1.4111,1.9756,congruent,right,,,,,,stimulusFile/magnitude.xlsx,,,,,,,,,,,,,,,,,,,,,,,,,,,,,,,
,,,,,,,,,,,,,,,790,2022-01-17_13h23.37.757,multiplicationStroop,2021.2.3,Win32,143.7194596,,,,,right,1,0.5409,0,38,38,1,1,3,4,3 | 4,1,1.4111,1.9756,congruent,right,,,,,,stimulusFile/magnitude.xlsx,,,,,,,,,,,,,,,,,,,,,,,,,,,,,,,
,,,,,,,,,,,,,,,790,2022-01-17_13h23.37.757,multiplicationStroop,2021.2.3,Win32,143.7194596,,,,,right,1,0.4646,0,39,39,58,1,6,8,6 | 8,2,1.6933,1.6933,neutral,right,,,,,,stimulusFile/magnitude.xlsx,,,,,,,,,,,,,,,,,,,,,,,,,,,,,,,
,,,,,,,,,,,,,,,790,2022-01-17_13h23.37.757,multiplicationStroop,2021.2.3,Win32,143.7194596,,,,,right,1,0.4924,0,40,40,49,1,3,4,3 | 4,1,1.6933,1.6933,neutral,right,,,,,,stimulusFile/magnitude.xlsx,,,,,,,,,,,,,,,,,,,,,,,,,,,,,,,
,,,,,,,,,,,,,,,790,2022-01-17_13h23.37.757,multiplicationStroop,2021.2.3,Win32,143.7194596,,,,,right,1,0.4739,0,41,41,17,1,2,7,2 | 7,5,1.4111,1.9756,congruent,right,,,,,,stimulusFile/magnitude.xlsx,,,,,,,,,,,,,,,,,,,,,,,,,,,,,,,
,,,,,,,,,,,,,,,790,2022-01-17_13h23.37.757,multiplicationStroop,2021.2.3,Win32,143.7194596,,,,,left,1,0.5557,0,42,42,30,1,7,6,7 | 6,1,1.4111,1.9756,incongruent,left,,,,,,stimulusFile/magnitude.xlsx,,,,,,,,,,,,,,,,,,,,,,,,,,,,,,,
,,,,,,,,,,,,,,,790,2022-01-17_13h23.37.757,multiplicationStroop,2021.2.3,Win32,143.7194596,,,,,left,1,0.5439,0,43,43,63,1,9,7,9 | 7,2,1.6933,1.6933,neutral,left,,,,,,stimulusFile/magnitude.xlsx,,,,,,,,,,,,,,,,,,,,,,,,,,,,,,,
,,,,,,,,,,,,,,,790,2022-01-17_13h23.37.757,multiplicationStroop,2021.2.3,Win32,143.7194596,,,,,right,1,0.6226,0,44,44,40,1,1,6,1 | 6,5,1.9756,1.4111,incongruent,right,,,,,,stimulusFile/magnitude.xlsx,,,,,,,,,,,,,,,,,,,,,,,,,,,,,,,
,,,,,,,,,,,,,,,790,2022-01-17_13h23.37.757,multiplicationStroop,2021.2.3,Win32,143.7194596,,,,,left,1,0.5566,0,45,45,68,1,6,1,6 | 1,5,1.6933,1.6933,neutral,left,,,,,,stimulusFile/magnitude.xlsx,,,,,,,,,,,,,,,,,,,,,,,,,,,,,,,
,,,,,,,,,,,,,,,790,2022-01-17_13h23.37.757,multiplicationStroop,2021.2.3,Win32,143.7194596,,,,,left,1,0.7732,0,46,46,53,1,4,3,4 | 3,1,1.6933,1.6933,neutral,left,,,,,,stimulusFile/magnitude.xlsx,,,,,,,,,,,,,,,,,,,,,,,,,,,,,,,
,,,,,,,,,,,,,,,790,2022-01-17_13h23.37.757,multiplicationStroop,2021.2.3,Win32,143.7194596,,,,,left,1,0.4481,0,47,47,14,1,8,6,8 | 6,2,1.9756,1.4111,congruent,left,,,,,,stimulusFile/magnitude.xlsx,,,,,,,,,,,,,,,,,,,,,,,,,,,,,,,
,,,,,,,,,,,,,,,790,2022-01-17_13h23.37.757,multiplicationStroop,2021.2.3,Win32,143.7194596,,,,,right,1,0.3946,0,48,48,11,1,7,9,7 | 9,2,1.4111,1.9756,congruent,right,,,,,,stimulusFile/magnitude.xlsx,,,,,,,,,,,,,,,,,,,,,,,,,,,,,,,
,,,,,,,,,,,,,,,790,2022-01-17_13h23.37.757,multiplicationStroop,2021.2.3,Win32,143.7194596,,,,,left,1,1.216,0,49,49,37,1,4,2,4 | 2,2,1.4111,1.9756,incongruent,left,,,,,,stimulusFile/magnitude.xlsx,,,,,,,,,,,,,,,,,,,,,,,,,,,,,,,
,,,,,,,,,,,,,,,790,2022-01-17_13h23.37.757,multiplicationStroop,2021.2.3,Win32,143.7194596,,,,,left,1,0.4397,0,50,50,28,1,2,1,2 | 1,1,1.4111,1.9756,incongruent,left,,,,,,stimulusFile/magnitude.xlsx,,,,,,,,,,,,,,,,,,,,,,,,,,,,,,,
,,,,,,,,,,,,,,,790,2022-01-17_13h23.37.757,multiplicationStroop,2021.2.3,Win32,143.7194596,,,,,left,1,0.5249,0,51,51,70,1,8,3,8 | 3,5,1.6933,1.6933,neutral,left,,,,,,stimulusFile/magnitude.xlsx,,,,,,,,,,,,,,,,,,,,,,,,,,,,,,,
,,,,,,,,,,,,,,,790,2022-01-17_13h23.37.757,multiplicationStroop,2021.2.3,Win32,143.7194596,,,,,left,1,0.439,0,52,52,15,1,9,7,9 | 7,2,1.9756,1.4111,congruent,left,,,,,,stimulusFile/magnitude.xlsx,,,,,,,,,,,,,,,,,,,,,,,,,,,,,,,
,,,,,,,,,,,,,,,790,2022-01-17_13h23.37.757,multiplicationStroop,2021.2.3,Win32,143.7194596,,,,,right,1,0.4755,0,53,53,9,1,2,4,2 | 4,2,1.4111,1.9756,congruent,right,,,,,,stimulusFile/magnitude.xlsx,,,,,,,,,,,,,,,,,,,,,,,,,,,,,,,
,,,,,,,,,,,,,,,790,2022-01-17_13h23.37.757,multiplicationStroop,2021.2.3,Win32,143.7194596,,,,,right,1,0.5782,0,54,54,57,1,2,4,2 | 4,2,1.6933,1.6933,neutral,right,,,,,,stimulusFile/magnitude.xlsx,,,,,,,,,,,,,,,,,,,,,,,,,,,,,,,
,,,,,,,,,,,,,,,790,2022-01-17_13h23.37.757,multiplicationStroop,2021.2.3,Win32,143.7194596,,,,,left,1,0.7243,0,55,55,31,1,9,8,9 | 8,1,1.4111,1.9756,incongruent,left,,,,,,stimulusFile/magnitude.xlsx,,,,,,,,,,,,,,,,,,,,,,,,,,,,,,,
,,,,,,,,,,,,,,,790,2022-01-17_13h23.37.757,multiplicationStroop,2021.2.3,Win32,143.7194596,,,,,right,1,0.4692,0,56,56,18,1,3,8,3 | 8,5,1.4111,1.9756,congruent,right,,,,,,stimulusFile/magnitude.xlsx,,,,,,,,,,,,,,,,,,,,,,,,,,,,,,,
,,,,,,,,,,,,,,,790,2022-01-17_13h23.37.757,multiplicationStroop,2021.2.3,Win32,143.7194596,,,,,right,1,0.4243,0,57,57,66,1,3,8,3 | 8,5,1.6933,1.6933,neutral,right,,,,,,stimulusFile/magnitude.xlsx,,,,,,,,,,,,,,,,,,,,,,,,,,,,,,,
,,,,,,,,,,,,,,,790,2022-01-17_13h23.37.757,multiplicationStroop,2021.2.3,Win32,143.7194596,,,,,left,1,0.4746,0,58,58,4,1,2,1,2 | 1,1,1.9756,1.4111,congruent,left,,,,,,stimulusFile/magnitude.xlsx,,,,,,,,,,,,,,,,,,,,,,,,,,,,,,,
,,,,,,,,,,,,,,,790,2022-01-17_13h23.37.757,multiplicationStroop,2021.2.3,Win32,143.7194596,,,,,left,1,0.435,0,59,59,22,1,8,3,8 | 3,5,1.9756,1.4111,congruent,left,,,,,,stimulusFile/magnitude.xlsx,,,,,,,,,,,,,,,,,,,,,,,,,,,,,,,
,,,,,,,,,,,,,,,790,2022-01-17_13h23.37.757,multiplicationStroop,2021.2.3,Win32,143.7194596,,,,,left,1,0.4079,0,60,60,52,1,2,1,2 | 1,1,1.6933,1.6933,neutral,left,,,,,,stimulusFile/magnitude.xlsx,,,,,,,,,,,,,,,,,,,,,,,,,,,,,,,
,,,,,,,,,,,,,,,790,2022-01-17_13h23.37.757,multiplicationStroop,2021.2.3,Win32,143.7194596,,,,,left,1,0.4309,0,61,61,21,1,7,2,7 | 2,5,1.9756,1.4111,congruent,left,,,,,,stimulusFile/magnitude.xlsx,,,,,,,,,,,,,,,,,,,,,,,,,,,,,,,
,,,,,,,,,,,,,,,790,2022-01-17_13h23.37.757,multiplicationStroop,2021.2.3,Win32,143.7194596,,,,,left,0,0.4664,0,62,62,25,1,3,4,3 | 4,1,1.9756,1.4111,incongruent,right,,,,,,stimulusFile/magnitude.xlsx,,,,,,,,,,,,,,,,,,,,,,,,,,,,,,,
,,,,,,,,,,,,,,,790,2022-01-17_13h23.37.757,multiplicationStroop,2021.2.3,Win32,143.7194596,,,,,right,1,0.5397,0,63,63,16,1,1,6,1 | 6,5,1.4111,1.9756,congruent,right,,,,,,stimulusFile/magnitude.xlsx,,,,,,,,,,,,,,,,,,,,,,,,,,,,,,,
,,,,,,,,,,,,,,,790,2022-01-17_13h23.37.757,multiplicationStroop,2021.2.3,Win32,143.7194596,,,,,right,1,0.4729,0,64,64,56,1,1,3,1 | 3,2,1.6933,1.6933,neutral,right,,,,,,stimulusFile/magnitude.xlsx,,,,,,,,,,,,,,,,,,,,,,,,,,,,,,,
,,,,,,,,,,,,,,,790,2022-01-17_13h23.37.757,multiplicationStroop,2021.2.3,Win32,143.7194596,,,,,left,1,0.4562,0,65,65,69,1,7,2,7 | 2,5,1.6933,1.6933,neutral,left,,,,,,stimulusFile/magnitude.xlsx,,,,,,,,,,,,,,,,,,,,,,,,,,,,,,,
,,,,,,,,,,,,,,,790,2022-01-17_13h23.37.757,multiplicationStroop,2021.2.3,Win32,143.7194596,,,,,right,1,0.6236,0,66,66,33,1,2,4,2 | 4,2,1.9756,1.4111,incongruent,right,,,,,,stimulusFile/magnitude.xlsx,,,,,,,,,,,,,,,,,,,,,,,,,,,,,,,
,,,,,,,,,,,,,,,790,2022-01-17_13h23.37.757,multiplicationStroop,2021.2.3,Win32,143.7194596,,,,,left,1,0.4246,0,67,67,13,1,4,2,4 | 2,2,1.9756,1.4111,congruent,left,,,,,,stimulusFile/magnitude.xlsx,,,,,,,,,,,,,,,,,,,,,,,,,,,,,,,
,,,,,,,,,,,,,,,790,2022-01-17_13h23.37.757,multiplicationStroop,2021.2.3,Win32,143.7194596,,,,,right,1,0.3862,0,68,68,65,1,2,7,2 | 7,5,1.6933,1.6933,neutral,right,,,,,,stimulusFile/magnitude.xlsx,,,,,,,,,,,,,,,,,,,,,,,,,,,,,,,
,,,,,,,,,,,,,,,790,2022-01-17_13h23.37.757,multiplicationStroop,2021.2.3,Win32,143.7194596,,,,,left,1,0.7297,0,69,69,55,1,9,8,9 | 8,1,1.6933,1.6933,neutral,left,,,,,,stimulusFile/magnitude.xlsx,,,,,,,,,,,,,,,,,,,,,,,,,,,,,,,
,,,,,,,,,,,,,,,790,2022-01-17_13h23.37.757,multiplicationStroop,2021.2.3,Win32,143.7194596,,,,,left,1,0.5719,0,70,70,38,1,8,6,8 | 6,2,1.4111,1.9756,incongruent,left,,,,,,stimulusFile/magnitude.xlsx,,,,,,,,,,,,,,,,,,,,,,,,,,,,,,,
,,,,,,,,,,,,,,,790,2022-01-17_13h23.37.757,multiplicationStroop,2021.2.3,Win32,143.7194596,,,,,right,1,0.5192,0,71,71,41,1,2,7,2 | 7,5,1.9756,1.4111,incongruent,right,,,,,,stimulusFile/magnitude.xlsx,,,,,,,,,,,,,,,,,,,,,,,,,,,,,,,
,,,,,,,,,,,,,,,790,2022-01-17_13h23.37.757,multiplicationStroop,2021.2.3,Win32,143.7194596,,,,,,,,,,,,,,,,,,,,,0,0,0,0,1,stimulusFile/magnitude.xlsx,NUMERICALLY larger (larger coefficient).,images/numericallyLarger.png,,,,,,,,,,,,,,,,,,,,,,,,,,,,,
,,,,,,,,,,,,,,,790,2022-01-17_13h23.37.757,multiplicationStroop,2021.2.3,Win32,143.7194596,space,7.5388,space,4.0084,left,1,0.6866,0,0,0,51,1,8,8,8 | 8,0,1.9756,1.4111,neutral,left,,,,,,stimulusFile/physical.xlsx,,,,,,,,,,,,,,,,,,,,,,,,,,,,,,,
,,,,,,,,,,,,,,,790,2022-01-17_13h23.37.757,multiplicationStroop,2021.2.3,Win32,143.7194596,,,,,left,1,0.6241,0,1,1,25,1,3,4,3 | 4,1,1.9756,1.4111,incongruent,left,,,,,,stimulusFile/physical.xlsx,,,,,,,,,,,,,,,,,,,,,,,,,,,,,,,
,,,,,,,,,,,,,,,790,2022-01-17_13h23.37.757,multiplicationStroop,2021.2.3,Win32,143.7194596,,,,,left,1,0.5221,0,2,2,32,1,1,3,1 | 3,2,1.9756,1.4111,incongruent,left,,,,,,stimulusFile/physical.xlsx,,,,,,,,,,,,,,,,,,,,,,,,,,,,,,,
,,,,,,,,,,,,,,,790,2022-01-17_13h23.37.757,multiplicationStroop,2021.2.3,Win32,143.7194596,,,,,left,1,0.5174,0,3,3,50,1,6,6,6 | 6,0,1.9756,1.4111,neutral,left,,,,,,stimulusFile/physical.xlsx,,,,,,,,,,,,,,,,,,,,,,,,,,,,,,,
,,,,,,,,,,,,,,,790,2022-01-17_13h23.37.757,multiplicationStroop,2021.2.3,Win32,143.7194596,,,,,left,1,0.4894,0,4,4,22,1,8,3,8 | 3,5,1.9756,1.4111,congruent,left,,,,,,stimulusFile/physical.xlsx,,,,,,,,,,,,,,,,,,,,,,,,,,,,,,,
,,,,,,,,,,,,,,,790,2022-01-17_13h23.37.757,multiplicationStroop,2021.2.3,Win32,143.7194596,,,,,right,1,0.6095,0,5,5,62,1,8,8,8 | 8,0,1.4111,1.9756,neutral,right,,,,,,stimulusFile/physical.xlsx,,,,,,,,,,,,,,,,,,,,,,,,,,,,,,,
,,,,,,,,,,,,,,,790,2022-01-17_13h23.37.757,multiplicationStroop,2021.2.3,Win32,143.7194596,,,,,right,1,0.4055,0,6,6,18,1,3,8,3 | 8,5,1.4111,1.9756,congruent,right,,,,,,stimulusFile/physical.xlsx,,,,,,,,,,,,,,,,,,,,,,,,,,,,,,,
,,,,,,,,,,,,,,,790,2022-01-17_13h23.37.757,multiplicationStroop,2021.2.3,Win32,143.7194596,,,,,right,1,0.6396,0,7,7,47,1,9,4,9 | 4,5,1.4111,1.9756,incongruent,right,,,,,,stimulusFile/physical.xlsx,,,,,,,,,,,,,,,,,,,,,,,,,,,,,,,
,,,,,,,,,,,,,,,790,2022-01-17_13h23.37.757,multiplicationStroop,2021.2.3,Win32,143.7194596,,,,,right,1,0.5542,0,8,8,30,1,7,6,7 | 6,1,1.4111,1.9756,incongruent,right,,,,,,stimulusFile/physical.xlsx,,,,,,,,,,,,,,,,,,,,,,,,,,,,,,,
,,,,,,,,,,,,,,,790,2022-01-17_13h23.37.757,multiplicationStroop,2021.2.3,Win32,143.7194596,,,,,left,1,0.613,0,9,9,24,1,1,2,1 | 2,1,1.9756,1.4111,incongruent,left,,,,,,stimulusFile/physical.xlsx,,,,,,,,,,,,,,,,,,,,,,,,,,,,,,,
,,,,,,,,,,,,,,,790,2022-01-17_13h23.37.757,multiplicationStroop,2021.2.3,Win32,143.7194596,,,,,left,1,0.431,0,10,10,23,1,9,4,9 | 4,5,1.9756,1.4111,congruent,left,,,,,,stimulusFile/physical.xlsx,,,,,,,,,,,,,,,,,,,,,,,,,,,,,,,
,,,,,,,,,,,,,,,790,2022-01-17_13h23.37.757,multiplicationStroop,2021.2.3,Win32,143.7194596,,,,,left,1,0.4945,0,11,11,42,1,3,8,3 | 8,5,1.9756,1.4111,incongruent,left,,,,,,stimulusFile/physical.xlsx,,,,,,,,,,,,,,,,,,,,,,,,,,,,,,,
,,,,,,,,,,,,,,,790,2022-01-17_13h23.37.757,multiplicationStroop,2021.2.3,Win32,143.7194596,,,,,left,1,0.4874,0,12,12,15,1,9,7,9 | 7,2,1.9756,1.4111,congruent,left,,,,,,stimulusFile/physical.xlsx,,,,,,,,,,,,,,,,,,,,,,,,,,,,,,,
,,,,,,,,,,,,,,,790,2022-01-17_13h23.37.757,multiplicationStroop,2021.2.3,Win32,143.7194596,,,,,right,1,0.6427,0,13,13,63,1,9,9,9 | 9,0,1.4111,1.9756,neutral,right,,,,,,stimulusFile/physical.xlsx,,,,,,,,,,,,,,,,,,,,,,,,,,,,,,,
,,,,,,,,,,,,,,,790,2022-01-17_13h23.37.757,multiplicationStroop,2021.2.3,Win32,143.7194596,,,,,left,0,0.4442,0,14,14,28,1,2,1,2 | 1,1,1.4111,1.9756,incongruent,right,,,,,,stimulusFile/physical.xlsx,,,,,,,,,,,,,,,,,,,,,,,,,,,,,,,
,,,,,,,,,,,,,,,790,2022-01-17_13h23.37.757,multiplicationStroop,2021.2.3,Win32,143.7194596,,,,,right,1,0.5923,0,15,15,36,1,3,1,3 | 1,2,1.4111,1.9756,incongruent,right,,,,,,stimulusFile/physical.xlsx,,,,,,,,,,,,,,,,,,,,,,,,,,,,,,,
,,,,,,,,,,,,,,,790,2022-01-17_13h23.37.757,multiplicationStroop,2021.2.3,Win32,143.7194596,,,,,right,1,0.4864,0,16,16,11,1,7,9,7 | 9,2,1.4111,1.9756,congruent,right,,,,,,stimulusFile/physical.xlsx,,,,,,,,,,,,,,,,,,,,,,,,,,,,,,,
,,,,,,,,,,,,,,,790,2022-01-17_13h23.37.757,multiplicationStroop,2021.2.3,Win32,143.7194596,,,,,left,0,0.4695,0,17,17,64,1,1,1,1 | 1,0,1.9756,1.4111,neutral,right,,,,,,stimulusFile/physical.xlsx,,,,,,,,,,,,,,,,,,,,,,,,,,,,,,,
,,,,,,,,,,,,,,,790,2022-01-17_13h23.37.757,multiplicationStroop,2021.2.3,Win32,143.7194596,,,,,right,1,0.4443,0,18,18,65,1,2,2,2 | 2,0,1.4111,1.9756,neutral,right,,,,,,stimulusFile/physical.xlsx,,,,,,,,,,,,,,,,,,,,,,,,,,,,,,,
,,,,,,,,,,,,,,,790,2022-01-17_13h23.37.757,multiplicationStroop,2021.2.3,Win32,143.7194596,,,,,right,1,0.5429,0,19,19,29,1,4,3,4 | 3,1,1.4111,1.9756,incongruent,right,,,,,,stimulusFile/physical.xlsx,,,,,,,,,,,,,,,,,,,,,,,,,,,,,,,
,,,,,,,,,,,,,,,790,2022-01-17_13h23.37.757,multiplicationStroop,2021.2.3,Win32,143.7194596,,,,,right,1,0.4887,0,20,20,31,1,9,8,9 | 8,1,1.4111,1.9756,incongruent,right,,,,,,stimulusFile/physical.xlsx,,,,,,,,,,,,,,,,,,,,,,,,,,,,,,,
,,,,,,,,,,,,,,,790,2022-01-17_13h23.37.757,multiplicationStroop,2021.2.3,Win32,143.7194596,,,,,right,0,0.5361,0,21,21,71,1,9,9,9 | 9,0,1.4111,1.9756,neutral,left,,,,,,stimulusFile/physical.xlsx,,,,,,,,,,,,,,,,,,,,,,,,,,,,,,,
,,,,,,,,,,,,,,,790,2022-01-17_13h23.37.757,multiplicationStroop,2021.2.3,Win32,143.7194596,,,,,left,1,0.4992,0,22,22,52,1,2,2,2 | 2,0,1.9756,1.4111,neutral,left,,,,,,stimulusFile/physical.xlsx,,,,,,,,,,,,,,,,,,,,,,,,,,,,,,,
,,,,,,,,,,,,,,,790,2022-01-17_13h23.37.757,multiplicationStroop,2021.2.3,Win32,143.7194596,,,,,right,1,0.5746,0,23,23,37,1,4,2,4 | 2,2,1.4111,1.9756,incongruent,right,,,,,,stimulusFile/physical.xlsx,,,,,,,,,,,,,,,,,,,,,,,,,,,,,,,
,,,,,,,,,,,,,,,790,2022-01-17_13h23.37.757,multiplicationStroop,2021.2.3,Win32,143.7194596,,,,,right,1,0.5591,0,24,24,56,1,1,1,1 | 1,0,1.4111,1.9756,neutral,right,,,,,,stimulusFile/physical.xlsx,,,,,,,,,,,,,,,,,,,,,,,,,,,,,,,
,,,,,,,,,,,,,,,790,2022-01-17_13h23.37.757,multiplicationStroop,2021.2.3,Win32,143.7194596,,,,,right,1,0.5532,0,25,25,45,1,7,2,7 | 2,5,1.4111,1.9756,incongruent,right,,,,,,stimulusFile/physical.xlsx,,,,,,,,,,,,,,,,,,,,,,,,,,,,,,,
,,,,,,,,,,,,,,,790,2022-01-17_13h23.37.757,multiplicationStroop,2021.2.3,Win32,143.7194596,,,,,left,1,0.4359,0,26,26,49,1,3,3,3 | 3,0,1.9756,1.4111,neutral,left,,,,,,stimulusFile/physical.xlsx,,,,,,,,,,,,,,,,,,,,,,,,,,,,,,,
,,,,,,,,,,,,,,,790,2022-01-17_13h23.37.757,multiplicationStroop,2021.2.3,Win32,143.7194596,,,,,left,1,0.5701,0,27,27,70,1,8,8,8 | 8,0,1.9756,1.4111,neutral,left,,,,,,stimulusFile/physical.xlsx,,,,,,,,,,,,,,,,,,,,,,,,,,,,,,,
,,,,,,,,,,,,,,,790,2022-01-17_13h23.37.757,multiplicationStroop,2021.2.3,Win32,143.7194596,,,,,left,1,0.4828,0,28,28,34,1,6,8,6 | 8,2,1.9756,1.4111,incongruent,left,,,,,,stimulusFile/physical.xlsx,,,,,,,,,,,,,,,,,,,,,,,,,,,,,,,
,,,,,,,,,,,,,,,790,2022-01-17_13h23.37.757,multiplicationStroop,2021.2.3,Win32,143.7194596,,,,,left,1,0.4562,0,29,29,48,1,1,1,1 | 1,0,1.9756,1.4111,neutral,left,,,,,,stimulusFile/physical.xlsx,,,,,,,,,,,,,,,,,,,,,,,,,,,,,,,
,,,,,,,,,,,,,,,790,2022-01-17_13h23.37.757,multiplicationStroop,2021.2.3,Win32,143.7194596,,,,,right,0,0.5055,0,30,30,69,1,7,7,7 | 7,0,1.4111,1.9756,neutral,left,,,,,,stimulusFile/physical.xlsx,,,,,,,,,,,,,,,,,,,,,,,,,,,,,,,
,,,,,,,,,,,,,,,790,2022-01-17_13h23.37.757,multiplicationStroop,2021.2.3,Win32,143.7194596,,,,,right,1,0.4466,0,31,31,2,1,6,7,6 | 7,1,1.4111,1.9756,congruent,right,,,,,,stimulusFile/physical.xlsx,,,,,,,,,,,,,,,,,,,,,,,,,,,,,,,
,,,,,,,,,,,,,,,790,2022-01-17_13h23.37.757,multiplicationStroop,2021.2.3,Win32,143.7194596,,,,,left,1,0.3927,0,32,32,33,1,2,4,2 | 4,2,1.9756,1.4111,incongruent,left,,,,,,stimulusFile/physical.xlsx,,,,,,,,,,,,,,,,,,,,,,,,,,,,,,,
,,,,,,,,,,,,,,,790,2022-01-17_13h23.37.757,multiplicationStroop,2021.2.3,Win32,143.7194596,,,,,right,1,0.4799,0,33,33,59,1,7,7,7 | 7,0,1.4111,1.9756,neutral,right,,,,,,stimulusFile/physical.xlsx,,,,,,,,,,,,,,,,,,,,,,,,,,,,,,,
,,,,,,,,,,,,,,,790,2022-01-17_13h23.37.757,multiplicationStroop,2021.2.3,Win32,143.7194596,,,,,left,1,0.3606,0,34,34,6,1,7,6,7 | 6,1,1.9756,1.4111,congruent,left,,,,,,stimulusFile/physical.xlsx,,,,,,,,,,,,,,,,,,,,,,,,,,,,,,,
,,,,,,,,,,,,,,,790,2022-01-17_13h23.37.757,multiplicationStroop,2021.2.3,Win32,143.7194596,,,,,right,1,0.3017,0,35,35,39,1,9,7,9 | 7,2,1.4111,1.9756,incongruent,right,,,,,,stimulusFile/physical.xlsx,,,,,,,,,,,,,,,,,,,,,,,,,,,,,,,
,,,,,,,,,,,,,,,790,2022-01-17_13h23.37.757,multiplicationStroop,2021.2.3,Win32,143.7194596,,,,,right,1,0.6428,0,36,36,38,1,8,6,8 | 6,2,1.4111,1.9756,incongruent,right,,,,,,stimulusFile/physical.xlsx,,,,,,,,,,,,,,,,,,,,,,,,,,,,,,,
,,,,,,,,,,,,,,,790,2022-01-17_13h23.37.757,multiplicationStroop,2021.2.3,Win32,143.7194596,,,,,right,1,0.5502,0,37,37,44,1,6,1,6 | 1,5,1.4111,1.9756,incongruent,right,,,,,,stimulusFile/physical.xlsx,,,,,,,,,,,,,,,,,,,,,,,,,,,,,,,
,,,,,,,,,,,,,,,790,2022-01-17_13h23.37.757,multiplicationStroop,2021.2.3,Win32,143.7194596,,,,,left,1,0.4412,0,38,38,55,1,9,9,9 | 9,0,1.9756,1.4111,neutral,left,,,,,,stimulusFile/physical.xlsx,,,,,,,,,,,,,,,,,,,,,,,,,,,,,,,
,,,,,,,,,,,,,,,790,2022-01-17_13h23.37.757,multiplicationStroop,2021.2.3,Win32,143.7194596,,,,,right,1,0.5638,0,39,39,19,1,4,9,4 | 9,5,1.4111,1.9756,congruent,right,,,,,,stimulusFile/physical.xlsx,,,,,,,,,,,,,,,,,,,,,,,,,,,,,,,
,,,,,,,,,,,,,,,790,2022-01-17_13h23.37.757,multiplicationStroop,2021.2.3,Win32,143.7194596,,,,,left,0,0.3764,0,40,40,1,1,3,4,3 | 4,1,1.4111,1.9756,congruent,right,,,,,,stimulusFile/physical.xlsx,,,,,,,,,,,,,,,,,,,,,,,,,,,,,,,
,,,,,,,,,,,,,,,790,2022-01-17_13h23.37.757,multiplicationStroop,2021.2.3,Win32,143.7194596,,,,,left,1,0.4903,0,41,41,26,1,6,7,6 | 7,1,1.9756,1.4111,incongruent,left,,,,,,stimulusFile/physical.xlsx,,,,,,,,,,,,,,,,,,,,,,,,,,,,,,,
,,,,,,,,,,,,,,,790,2022-01-17_13h23.37.757,multiplicationStroop,2021.2.3,Win32,143.7194596,,,,,left,1,0.6095,0,42,42,40,1,1,6,1 | 6,5,1.9756,1.4111,incongruent,left,,,,,,stimulusFile/physical.xlsx,,,,,,,,,,,,,,,,,,,,,,,,,,,,,,,
,,,,,,,,,,,,,,,790,2022-01-17_13h23.37.757,multiplicationStroop,2021.2.3,Win32,143.7194596,,,,,right,1,0.4131,0,43,43,61,1,4,4,4 | 4,0,1.4111,1.9756,neutral,right,,,,,,stimulusFile/physical.xlsx,,,,,,,,,,,,,,,,,,,,,,,,,,,,,,,
,,,,,,,,,,,,,,,790,2022-01-17_13h23.37.757,multiplicationStroop,2021.2.3,Win32,143.7194596,,,,,left,1,0.368,0,44,44,12,1,3,1,3 | 1,2,1.9756,1.4111,congruent,left,,,,,,stimulusFile/physical.xlsx,,,,,,,,,,,,,,,,,,,,,,,,,,,,,,,
,,,,,,,,,,,,,,,790,2022-01-17_13h23.37.757,multiplicationStroop,2021.2.3,Win32,143.7194596,,,,,left,1,0.4441,0,45,45,5,1,4,3,4 | 3,1,1.9756,1.4111,congruent,left,,,,,,stimulusFile/physical.xlsx,,,,,,,,,,,,,,,,,,,,,,,,,,,,,,,
,,,,,,,,,,,,,,,790,2022-01-17_13h23.37.757,multiplicationStroop,2021.2.3,Win32,143.7194596,,,,,left,1,0.4375,0,46,46,20,1,6,1,6 | 1,5,1.9756,1.4111,congruent,left,,,,,,stimulusFile/physical.xlsx,,,,,,,,,,,,,,,,,,,,,,,,,,,,,,,
,,,,,,,,,,,,,,,790,2022-01-17_13h23.37.757,multiplicationStroop,2021.2.3,Win32,143.7194596,,,,,left,1,0.4113,0,47,47,35,1,7,9,7 | 9,2,1.9756,1.4111,incongruent,left,,,,,,stimulusFile/physical.xlsx,,,,,,,,,,,,,,,,,,,,,,,,,,,,,,,
,,,,,,,,,,,,,,,790,2022-01-17_13h23.37.757,multiplicationStroop,2021.2.3,Win32,143.7194596,,,,,right,1,0.6532,0,48,48,60,1,3,3,3 | 3,0,1.4111,1.9756,neutral,right,,,,,,stimulusFile/physical.xlsx,,,,,,,,,,,,,,,,,,,,,,,,,,,,,,,
,,,,,,,,,,,,,,,790,2022-01-17_13h23.37.757,multiplicationStroop,2021.2.3,Win32,143.7194596,,,,,left,1,0.4706,0,49,49,53,1,4,4,4 | 4,0,1.9756,1.4111,neutral,left,,,,,,stimulusFile/physical.xlsx,,,,,,,,,,,,,,,,,,,,,,,,,,,,,,,
,,,,,,,,,,,,,,,790,2022-01-17_13h23.37.757,multiplicationStroop,2021.2.3,Win32,143.7194596,,,,,right,1,0.4385,0,50,50,67,1,4,4,4 | 4,0,1.4111,1.9756,neutral,right,,,,,,stimulusFile/physical.xlsx,,,,,,,,,,,,,,,,,,,,,,,,,,,,,,,
,,,,,,,,,,,,,,,790,2022-01-17_13h23.37.757,multiplicationStroop,2021.2.3,Win32,143.7194596,,,,,right,1,0.5265,0,51,51,46,1,8,3,8 | 3,5,1.4111,1.9756,incongruent,right,,,,,,stimulusFile/physical.xlsx,,,,,,,,,,,,,,,,,,,,,,,,,,,,,,,
,,,,,,,,,,,,,,,790,2022-01-17_13h23.37.757,multiplicationStroop,2021.2.3,Win32,143.7194596,,,,,right,1,0.4513,0,52,52,9,1,2,4,2 | 4,2,1.4111,1.9756,congruent,right,,,,,,stimulusFile/physical.xlsx,,,,,,,,,,,,,,,,,,,,,,,,,,,,,,,
,,,,,,,,,,,,,,,790,2022-01-17_13h23.37.757,multiplicationStroop,2021.2.3,Win32,143.7194596,,,,,right,1,0.4395,0,53,53,0,1,1,2,1 | 2,1,1.4111,1.9756,congruent,right,,,,,,stimulusFile/physical.xlsx,,,,,,,,,,,,,,,,,,,,,,,,,,,,,,,
,,,,,,,,,,,,,,,790,2022-01-17_13h23.37.757,multiplicationStroop,2021.2.3,Win32,143.7194596,,,,,right,1,0.454,0,54,54,3,1,8,9,8 | 9,1,1.4111,1.9756,congruent,right,,,,,,stimulusFile/physical.xlsx,,,,,,,,,,,,,,,,,,,,,,,,,,,,,,,
,,,,,,,,,,,,,,,790,2022-01-17_13h23.37.757,multiplicationStroop,2021.2.3,Win32,143.7194596,,,,,left,1,0.4644,0,55,55,13,1,4,2,4 | 2,2,1.9756,1.4111,congruent,left,,,,,,stimulusFile/physical.xlsx,,,,,,,,,,,,,,,,,,,,,,,,,,,,,,,
,,,,,,,,,,,,,,,790,2022-01-17_13h23.37.757,multiplicationStroop,2021.2.3,Win32,143.7194596,,,,,left,0,0.4455,0,56,56,66,1,3,3,3 | 3,0,1.9756,1.4111,neutral,right,,,,,,stimulusFile/physical.xlsx,,,,,,,,,,,,,,,,,,,,,,,,,,,,,,,
,,,,,,,,,,,,,,,790,2022-01-17_13h23.37.757,multiplicationStroop,2021.2.3,Win32,143.7194596,,,,,left,1,0.4844,0,57,57,43,1,4,9,4 | 9,5,1.9756,1.4111,incongruent,left,,,,,,stimulusFile/physical.xlsx,,,,,,,,,,,,,,,,,,,,,,,,,,,,,,,
,,,,,,,,,,,,,,,790,2022-01-17_13h23.37.757,multiplicationStroop,2021.2.3,Win32,143.7194596,,,,,right,1,0.4373,0,58,58,8,1,1,3,1 | 3,2,1.4111,1.9756,congruent,right,,,,,,stimulusFile/physical.xlsx,,,,,,,,,,,,,,,,,,,,,,,,,,,,,,,
,,,,,,,,,,,,,,,790,2022-01-17_13h23.37.757,multiplicationStroop,2021.2.3,Win32,143.7194596,,,,,right,1,0.5061,0,59,59,57,1,2,2,2 | 2,0,1.4111,1.9756,neutral,right,,,,,,stimulusFile/physical.xlsx,,,,,,,,,,,,,,,,,,,,,,,,,,,,,,,
,,,,,,,,,,,,,,,790,2022-01-17_13h23.37.757,multiplicationStroop,2021.2.3,Win32,143.7194596,,,,,right,1,0.5112,0,60,60,17,1,2,7,2 | 7,5,1.4111,1.9756,congruent,right,,,,,,stimulusFile/physical.xlsx,,,,,,,,,,,,,,,,,,,,,,,,,,,,,,,
,,,,,,,,,,,,,,,790,2022-01-17_13h23.37.757,multiplicationStroop,2021.2.3,Win32,143.7194596,,,,,left,1,0.5136,0,61,61,54,1,7,7,7 | 7,0,1.9756,1.4111,neutral,left,,,,,,stimulusFile/physical.xlsx,,,,,,,,,,,,,,,,,,,,,,,,,,,,,,,
,,,,,,,,,,,,,,,790,2022-01-17_13h23.37.757,multiplicationStroop,2021.2.3,Win32,143.7194596,,,,,left,1,0.4567,0,62,62,14,1,8,6,8 | 6,2,1.9756,1.4111,congruent,left,,,,,,stimulusFile/physical.xlsx,,,,,,,,,,,,,,,,,,,,,,,,,,,,,,,
,,,,,,,,,,,,,,,790,2022-01-17_13h23.37.757,multiplicationStroop,2021.2.3,Win32,143.7194596,,,,,left,1,0.5823,0,63,63,68,1,6,6,6 | 6,0,1.9756,1.4111,neutral,left,,,,,,stimulusFile/physical.xlsx,,,,,,,,,,,,,,,,,,,,,,,,,,,,,,,
,,,,,,,,,,,,,,,790,2022-01-17_13h23.37.757,multiplicationStroop,2021.2.3,Win32,143.7194596,,,,,left,1,0.4512,0,64,64,27,1,8,9,8 | 9,1,1.9756,1.4111,incongruent,left,,,,,,stimulusFile/physical.xlsx,,,,,,,,,,,,,,,,,,,,,,,,,,,,,,,
,,,,,,,,,,,,,,,790,2022-01-17_13h23.37.757,multiplicationStroop,2021.2.3,Win32,143.7194596,,,,,left,1,0.4488,0,65,65,7,1,9,8,9 | 8,1,1.9756,1.4111,congruent,left,,,,,,stimulusFile/physical.xlsx,,,,,,,,,,,,,,,,,,,,,,,,,,,,,,,
,,,,,,,,,,,,,,,790,2022-01-17_13h23.37.757,multiplicationStroop,2021.2.3,Win32,143.7194596,,,,,right,1,0.568,0,66,66,58,1,6,6,6 | 6,0,1.4111,1.9756,neutral,right,,,,,,stimulusFile/physical.xlsx,,,,,,,,,,,,,,,,,,,,,,,,,,,,,,,
,,,,,,,,,,,,,,,790,2022-01-17_13h23.37.757,multiplicationStroop,2021.2.3,Win32,143.7194596,,,,,left,1,0.4567,0,67,67,4,1,2,1,2 | 1,1,1.9756,1.4111,congruent,left,,,,,,stimulusFile/physical.xlsx,,,,,,,,,,,,,,,,,,,,,,,,,,,,,,,
,,,,,,,,,,,,,,,790,2022-01-17_13h23.37.757,multiplicationStroop,2021.2.3,Win32,143.7194596,,,,,left,1,0.4434,0,68,68,21,1,7,2,7 | 2,5,1.9756,1.4111,congruent,left,,,,,,stimulusFile/physical.xlsx,,,,,,,,,,,,,,,,,,,,,,,,,,,,,,,
,,,,,,,,,,,,,,,790,2022-01-17_13h23.37.757,multiplicationStroop,2021.2.3,Win32,143.7194596,,,,,right,1,0.4551,0,69,69,10,1,6,8,6 | 8,2,1.4111,1.9756,congruent,right,,,,,,stimulusFile/physical.xlsx,,,,,,,,,,,,,,,,,,,,,,,,,,,,,,,
,,,,,,,,,,,,,,,790,2022-01-17_13h23.37.757,multiplicationStroop,2021.2.3,Win32,143.7194596,,,,,right,1,0.4268,0,70,70,16,1,1,6,1 | 6,5,1.4111,1.9756,congruent,right,,,,,,stimulusFile/physical.xlsx,,,,,,,,,,,,,,,,,,,,,,,,,,,,,,,
,,,,,,,,,,,,,,,790,2022-01-17_13h23.37.757,multiplicationStroop,2021.2.3,Win32,143.7194596,,,,,left,1,0.5046,0,71,71,41,1,2,7,2 | 7,5,1.9756,1.4111,incongruent,left,,,,,,stimulusFile/physical.xlsx,,,,,,,,,,,,,,,,,,,,,,,,,,,,,,,
,,,,,,,,,,,,,,,790,2022-01-17_13h23.37.757,multiplicationStroop,2021.2.3,Win32,143.7194596,,,,,,,,,,,,,,,,,,,,,0,1,1,1,1,stimulusFile/physical.xlsx,PHYSICALLY larger (larger font size).,images/physicallyLarger.png,,,,,,,,,,,,,,,,,,,,,,,,,,,,,
,,,,,,,,,,,,,,,790,2022-01-17_13h23.37.757,multiplicationStroop,2021.2.3,Win32,143.7194596,,,,,,,,,,,,,,,,,,,,,,,,,,,,,space,8.4829,space,2.7081,16,2.5539,1,0,0,0,30,1,4,×,4,4 × 4,neutral,tie,1.5,1.5,16,,,,,,,,
,,,,,,,,,,,,,,,790,2022-01-17_13h23.37.757,multiplicationStroop,2021.2.3,Win32,143.7194596,,,,,,,,,,,,,,,,,,,,,,,,,,,,,,,,,18,1.4916,1,0,1,1,0,1,3,×,6,3 × 6,neutral,smallerFirst,1.5,1.5,18,,,,,,,,
,,,,,,,,,,,,,,,790,2022-01-17_13h23.37.757,multiplicationStroop,2021.2.3,Win32,143.7194596,,,,,,,,,,,,,,,,,,,,,,,,,,,,,,,,,72,4.1981,1,0,2,2,11,1,8,×,9,8 × 9,neutral,smallerFirst,1.5,1.5,72,,,,,,,,
,,,,,,,,,,,,,,,790,2022-01-17_13h23.37.757,multiplicationStroop,2021.2.3,Win32,143.7194596,,,,,,,,,,,,,,,,,,,,,,,,,,,,,,,,,27,2.1529,1,0,3,3,14,1,9,×,3,9 × 3,neutral,largerFirst,1.5,1.5,27,,,,,,,,
,,,,,,,,,,,,,,,790,2022-01-17_13h23.37.757,multiplicationStroop,2021.2.3,Win32,143.7194596,,,,,,,,,,,,,,,,,,,,,,,,,,,,,,,,,49,1.6458,1,0,4,4,33,1,7,×,7,7 × 7,neutral,tie,1.5,1.5,49,,,,,,,,
,,,,,,,,,,,,,,,790,2022-01-17_13h23.37.757,multiplicationStroop,2021.2.3,Win32,143.7194596,,,,,,,,,,,,,,,,,,,,,,,,,,,,,,,,,8,1.6667,1,0,5,5,3,1,2,×,4,2 × 4,neutral,smallerFirst,1.5,1.5,8,,,,,,,,
,,,,,,,,,,,,,,,790,2022-01-17_13h23.37.757,multiplicationStroop,2021.2.3,Win32,143.7194596,,,,,,,,,,,,,,,,,,,,,,,,,,,,,,,,,12,1.5898,1,0,6,6,25,1,6,×,2,6 × 2,neutral,largerFirst,1.5,1.5,12,,,,,,,,
,,,,,,,,,,,,,,,790,2022-01-17_13h23.37.757,multiplicationStroop,2021.2.3,Win32,143.7194596,,,,,,,,,,,,,,,,,,,,,,,,,,,,,,,,,9,1.2753,1,0,7,7,29,1,3,×,3,3 × 3,neutral,tie,1.5,1.5,9,,,,,,,,
,,,,,,,,,,,,,,,790,2022-01-17_13h23.37.757,multiplicationStroop,2021.2.3,Win32,143.7194596,,,,,,,,,,,,,,,,,,,,,,,,,,,,,,,,,25,1.3911,1,0,8,8,31,1,5,×,5,5 × 5,neutral,tie,1.5,1.5,25,,,,,,,,
,,,,,,,,,,,,,,,790,2022-01-17_13h23.37.757,multiplicationStroop,2021.2.3,Win32,143.7194596,,,,,,,,,,,,,,,,,,,,,,,,,,,,,,,,,24,3.3061,1,0,9,9,22,1,8,×,3,8 × 3,neutral,largerFirst,1.5,1.5,24,,,,,,,,
,,,,,,,,,,,,,,,790,2022-01-17_13h23.37.757,multiplicationStroop,2021.2.3,Win32,143.7194596,,,,,,,,,,,,,,,,,,,,,,,,,,,,,,,,,45,1.8805,1,0,10,10,10,1,5,×,9,5 × 9,neutral,smallerFirst,1.5,1.5,45,,,,,,,,
,,,,,,,,,,,,,,,790,2022-01-17_13h23.37.757,multiplicationStroop,2021.2.3,Win32,143.7194596,,,,,,,,,,,,,,,,,,,,,,,,,,,,,,,,,32,2.9771,1,0,11,11,23,1,8,×,4,8 × 4,neutral,largerFirst,1.5,1.5,32,,,,,,,,
,,,,,,,,,,,,,,,790,2022-01-17_13h23.37.757,multiplicationStroop,2021.2.3,Win32,143.7194596,,,,,,,,,,,,,,,,,,,,,,,,,,,,,,,,,40,1.5295,1,0,12,12,24,1,8,×,5,8 × 5,neutral,largerFirst,1.5,1.5,40,,,,,,,,
,,,,,,,,,,,,,,,790,2022-01-17_13h23.37.757,multiplicationStroop,2021.2.3,Win32,143.7194596,,,,,,,,,,,,,,,,,,,,,,,,,,,,,,,,,10,1.3832,1,0,13,13,4,1,2,×,5,2 × 5,neutral,smallerFirst,1.5,1.5,10,,,,,,,,
,,,,,,,,,,,,,,,790,2022-01-17_13h23.37.757,multiplicationStroop,2021.2.3,Win32,143.7194596,,,,,,,,,,,,,,,,,,,,,,,,,,,,,,,,,20,1.2776,1,0,14,14,20,1,5,×,4,5 × 4,neutral,largerFirst,1.5,1.5,20,,,,,,,,
,,,,,,,,,,,,,,,790,2022-01-17_13h23.37.757,multiplicationStroop,2021.2.3,Win32,143.7194596,,,,,,,,,,,,,,,,,,,,,,,,,,,,,,,,,81,2.322,1,0,15,15,35,1,9,×,9,9 × 9,neutral,tie,1.5,1.5,81,,,,,,,,
,,,,,,,,,,,,,,,790,2022-01-17_13h23.37.757,multiplicationStroop,2021.2.3,Win32,143.7194596,,,,,,,,,,,,,,,,,,,,,,,,,,,,,,,,,21,1.4071,1,0,16,16,8,1,3,×,7,3 × 7,neutral,smallerFirst,1.5,1.5,21,,,,,,,,
,,,,,,,,,,,,,,,790,2022-01-17_13h23.37.757,multiplicationStroop,2021.2.3,Win32,143.7194596,,,,,,,,,,,,,,,,,,,,,,,,,,,,,,,,,20,1.379,0,0,17,17,2,1,4,×,6,4 × 6,neutral,smallerFirst,1.5,1.5,24,,,,,,,,
,,,,,,,,,,,,,,,790,2022-01-17_13h23.37.757,multiplicationStroop,2021.2.3,Win32,143.7194596,,,,,,,,,,,,,,,,,,,,,,,,,,,,,,,,,16,4.4673,1,0,18,18,13,1,2,×,8,2 × 8,neutral,smallerFirst,1.5,1.5,16,,,,,,,,
,,,,,,,,,,,,,,,790,2022-01-17_13h23.37.757,multiplicationStroop,2021.2.3,Win32,143.7194596,,,,,,,,,,,,,,,,,,,,,,,,,,,,,,,,,54,5.0708,1,0,19,19,7,1,6,×,9,6 × 9,neutral,smallerFirst,1.5,1.5,54,,,,,,,,
,,,,,,,,,,,,,,,790,2022-01-17_13h23.37.757,multiplicationStroop,2021.2.3,Win32,143.7194596,,,,,,,,,,,,,,,,,,,,,,,,,,,,,,,,,15,1.1108,1,0,20,20,5,1,3,×,5,3 × 5,neutral,smallerFirst,1.5,1.5,15,,,,,,,,
,,,,,,,,,,,,,,,790,2022-01-17_13h23.37.757,multiplicationStroop,2021.2.3,Win32,143.7194596,,,,,,,,,,,,,,,,,,,,,,,,,,,,,,,,,4,1.1265,1,0,21,21,28,1,2,×,2,2 × 2,neutral,tie,1.5,1.5,4,,,,,,,,
,,,,,,,,,,,,,,,790,2022-01-17_13h23.37.757,multiplicationStroop,2021.2.3,Win32,143.7194596,,,,,,,,,,,,,,,,,,,,,,,,,,,,,,,,,56,2.9229,1,0,22,22,9,1,7,×,8,7 × 8,neutral,smallerFirst,1.5,1.5,56,,,,,,,,
,,,,,,,,,,,,,,,790,2022-01-17_13h23.37.757,multiplicationStroop,2021.2.3,Win32,143.7194596,,,,,,,,,,,,,,,,,,,,,,,,,,,,,,,,,14,1.6827,1,0,23,23,16,1,7,×,2,7 × 2,neutral,largerFirst,1.5,1.5,14,,,,,,,,
,,,,,,,,,,,,,,,790,2022-01-17_13h23.37.757,multiplicationStroop,2021.2.3,Win32,143.7194596,,,,,,,,,,,,,,,,,,,,,,,,,,,,,,,,,42,3.8723,1,0,24,24,6,1,6,×,7,6 × 7,neutral,smallerFirst,1.5,1.5,42,,,,,,,,
,,,,,,,,,,,,,,,790,2022-01-17_13h23.37.757,multiplicationStroop,2021.2.3,Win32,143.7194596,,,,,,,,,,,,,,,,,,,,,,,,,,,,,,,,,63,3.7219,1,0,25,25,12,1,7,×,9,7 × 9,neutral,smallerFirst,1.5,1.5,63,,,,,,,,
,,,,,,,,,,,,,,,790,2022-01-17_13h23.37.757,multiplicationStroop,2021.2.3,Win32,143.7194596,,,,,,,,,,,,,,,,,,,,,,,,,,,,,,,,,18,1.4117,1,0,26,26,18,1,9,×,2,9 × 2,neutral,largerFirst,1.5,1.5,18,,,,,,,,
,,,,,,,,,,,,,,,790,2022-01-17_13h23.37.757,multiplicationStroop,2021.2.3,Win32,143.7194596,,,,,,,,,,,,,,,,,,,,,,,,,,,,,,,,,12,1.1825,1,0,27,27,21,1,4,×,3,4 × 3,neutral,largerFirst,1.5,1.5,12,,,,,,,,
,,,,,,,,,,,,,,,790,2022-01-17_13h23.37.757,multiplicationStroop,2021.2.3,Win32,143.7194596,,,,,,,,,,,,,,,,,,,,,,,,,,,,,,,,,35,1.826,1,0,28,28,1,1,5,×,7,5 × 7,neutral,smallerFirst,1.5,1.5,35,,,,,,,,
,,,,,,,,,,,,,,,790,2022-01-17_13h23.37.757,multiplicationStroop,2021.2.3,Win32,143.7194596,,,,,,,,,,,,,,,,,,,,,,,,,,,,,,,,,28,1.562,1,0,29,29,17,1,7,×,4,7 × 4,neutral,largerFirst,1.5,1.5,28,,,,,,,,
,,,,,,,,,,,,,,,790,2022-01-17_13h23.37.757,multiplicationStroop,2021.2.3,Win32,143.7194596,,,,,,,,,,,,,,,,,,,,,,,,,,,,,,,,,32,4.6597,0,0,30,30,27,1,9,×,4,9 × 4,neutral,largerFirst,1.5,1.5,36,,,,,,,,
,,,,,,,,,,,,,,,790,2022-01-17_13h23.37.757,multiplicationStroop,2021.2.3,Win32,143.7194596,,,,,,,,,,,,,,,,,,,,,,,,,,,,,,,,,48,2.6118,1,0,31,31,15,1,8,×,6,8 × 6,neutral,largerFirst,1.5,1.5,48,,,,,,,,
,,,,,,,,,,,,,,,790,2022-01-17_13h23.37.757,multiplicationStroop,2021.2.3,Win32,143.7194596,,,,,,,,,,,,,,,,,,,,,,,,,,,,,,,,,46,1.6485,0,0,32,32,32,1,6,×,6,6 × 6,neutral,tie,1.5,1.5,36,,,,,,,,
,,,,,,,,,,,,,,,790,2022-01-17_13h23.37.757,multiplicationStroop,2021.2.3,Win32,143.7194596,,,,,,,,,,,,,,,,,,,,,,,,,,,,,,,,,64,11.1227,1,0,33,33,34,1,8,×,8,8 × 8,neutral,tie,1.5,1.5,64,,,,,,,,
,,,,,,,,,,,,,,,790,2022-01-17_13h23.37.757,multiplicationStroop,2021.2.3,Win32,143.7194596,,,,,,,,,,,,,,,,,,,,,,,,,,,,,,,,,6,1.4459,1,0,34,34,26,1,3,×,2,3 × 2,neutral,largerFirst,1.5,1.5,6,,,,,,,,
,,,,,,,,,,,,,,,790,2022-01-17_13h23.37.757,multiplicationStroop,2021.2.3,Win32,143.7194596,,,,,,,,,,,,,,,,,,,,,,,,,,,,,,,,,30,1.895,1,0,35,35,19,1,6,×,5,6 × 5,neutral,largerFirst,1.5,1.5,30,,,,,,,,
,,,,,,,,,,,,,,,790,2022-01-17_13h23.37.757,multiplicationStroop,2021.2.3,Win32,143.7194596,,,,,,,,,,,,,,,,,,,,,,,,,,,,,,,,,,,,,,,,,,,,,,,,,,0,0,0,1,1,stimulusFile/mult_blk2.xlsx,,
,,,,,,,,,,,,,,,790,2022-01-17_13h23.37.757,multiplicationStroop,2021.2.3,Win32,143.7194596,,,,,,,,,,,,,,,,,,,,,,,,,,,,,,,space,1.531,28,1.7914,1,0,0,0,27,1,7,×,4,7 × 4,congruent,largerFirst,2,1,28,,,,,,,,
,,,,,,,,,,,,,,,790,2022-01-17_13h23.37.757,multiplicationStroop,2021.2.3,Win32,143.7194596,,,,,,,,,,,,,,,,,,,,,,,,,,,,,,,,,56,3.7768,1,0,1,1,8,1,7,×,8,7 × 8,congruent,smallerFirst,1,2,56,,,,,,,,
,,,,,,,,,,,,,,,790,2022-01-17_13h23.37.757,multiplicationStroop,2021.2.3,Win32,143.7194596,,,,,,,,,,,,,,,,,,,,,,,,,,,,,,,,,25,1.4196,1,0,2,2,31,1,5,×,5,5 × 5,neutral,tie,2,1,25,,,,,,,,
,,,,,,,,,,,,,,,790,2022-01-17_13h23.37.757,multiplicationStroop,2021.2.3,Win32,143.7194596,,,,,,,,,,,,,,,,,,,,,,,,,,,,,,,,,40,3.0519,1,0,3,3,6,1,5,×,8,5 × 8,congruent,smallerFirst,1,2,40,,,,,,,,
,,,,,,,,,,,,,,,790,2022-01-17_13h23.37.757,multiplicationStroop,2021.2.3,Win32,143.7194596,,,,,,,,,,,,,,,,,,,,,,,,,,,,,,,,,32,2.9253,0,0,4,4,0,1,4,×,9,4 × 9,congruent,smallerFirst,1,2,36,,,,,,,,
,,,,,,,,,,,,,,,790,2022-01-17_13h23.37.757,multiplicationStroop,2021.2.3,Win32,143.7194596,,,,,,,,,,,,,,,,,,,,,,,,,,,,,,,,,20,3.3302,1,0,5,5,7,1,4,×,5,4 × 5,congruent,smallerFirst,1,2,20,,,,,,,,
,,,,,,,,,,,,,,,790,2022-01-17_13h23.37.757,multiplicationStroop,2021.2.3,Win32,143.7194596,,,,,,,,,,,,,,,,,,,,,,,,,,,,,,,,,12,2.0266,1,0,6,6,19,1,6,×,2,6 × 2,congruent,largerFirst,2,1,12,,,,,,,,
,,,,,,,,,,,,,,,790,2022-01-17_13h23.37.757,multiplicationStroop,2021.2.3,Win32,143.7194596,,,,,,,,,,,,,,,,,,,,,,,,,,,,,,,,,12,1.604,1,0,7,7,2,1,3,×,4,3 × 4,congruent,smallerFirst,1,2,12,,,,,,,,
,,,,,,,,,,,,,,,790,2022-01-17_13h23.37.757,multiplicationStroop,2021.2.3,Win32,143.7194596,,,,,,,,,,,,,,,,,,,,,,,,,,,,,,,,,42,3.0661,1,0,8,8,3,1,6,×,7,6 × 7,congruent,smallerFirst,1,2,42,,,,,,,,
,,,,,,,,,,,,,,,790,2022-01-17_13h23.37.757,multiplicationStroop,2021.2.3,Win32,143.7194596,,,,,,,,,,,,,,,,,,,,,,,,,,,,,,,,,36,1.8996,1,0,9,9,32,1,6,×,6,6 × 6,neutral,tie,2,1,36,,,,,,,,
,,,,,,,,,,,,,,,790,2022-01-17_13h23.37.757,multiplicationStroop,2021.2.3,Win32,143.7194596,,,,,,,,,,,,,,,,,,,,,,,,,,,,,,,,,6,1.7186,1,0,10,10,13,1,2,×,3,2 × 3,congruent,smallerFirst,1,2,6,,,,,,,,
,,,,,,,,,,,,,,,790,2022-01-17_13h23.37.757,multiplicationStroop,2021.2.3,Win32,143.7194596,,,,,,,,,,,,,,,,,,,,,,,,,,,,,,,,,48,3.5544,1,0,11,11,18,1,8,×,6,8 × 6,congruent,largerFirst,2,1,48,,,,,,,,
,,,,,,,,,,,,,,,790,2022-01-17_13h23.37.757,multiplicationStroop,2021.2.3,Win32,143.7194596,,,,,,,,,,,,,,,,,,,,,,,,,,,,,,,,,56,1.908,0,0,12,12,34,1,8,×,8,8 × 8,neutral,tie,2,1,64,,,,,,,,
,,,,,,,,,,,,,,,790,2022-01-17_13h23.37.757,multiplicationStroop,2021.2.3,Win32,143.7194596,,,,,,,,,,,,,,,,,,,,,,,,,,,,,,,,,32,4.7777,1,0,13,13,20,1,8,×,4,8 × 4,congruent,largerFirst,2,1,32,,,,,,,,
,,,,,,,,,,,,,,,790,2022-01-17_13h23.37.757,multiplicationStroop,2021.2.3,Win32,143.7194596,,,,,,,,,,,,,,,,,,,,,,,,,,,,,,,,,35,1.3948,1,0,14,14,1,1,5,×,7,5 × 7,congruent,smallerFirst,1,2,35,,,,,,,,
,,,,,,,,,,,,,,,790,2022-01-17_13h23.37.757,multiplicationStroop,2021.2.3,Win32,143.7194596,,,,,,,,,,,,,,,,,,,,,,,,,,,,,,,,,27,3.1519,1,0,15,15,26,1,9,×,3,9 × 3,congruent,largerFirst,2,1,27,,,,,,,,
,,,,,,,,,,,,,,,790,2022-01-17_13h23.37.757,multiplicationStroop,2021.2.3,Win32,143.7194596,,,,,,,,,,,,,,,,,,,,,,,,,,,,,,,,,24,4.008,1,0,16,16,10,1,3,×,8,3 × 8,congruent,smallerFirst,1,2,24,,,,,,,,
,,,,,,,,,,,,,,,790,2022-01-17_13h23.37.757,multiplicationStroop,2021.2.3,Win32,143.7194596,,,,,,,,,,,,,,,,,,,,,,,,,,,,,,,,,18,1.563,1,0,17,17,22,1,9,×,2,9 × 2,congruent,largerFirst,2,1,18,,,,,,,,
,,,,,,,,,,,,,,,790,2022-01-17_13h23.37.757,multiplicationStroop,2021.2.3,Win32,143.7194596,,,,,,,,,,,,,,,,,,,,,,,,,,,,,,,,,72,3.413,1,0,18,18,17,1,9,×,8,9 × 8,congruent,largerFirst,2,1,72,,,,,,,,
,,,,,,,,,,,,,,,790,2022-01-17_13h23.37.757,multiplicationStroop,2021.2.3,Win32,143.7194596,,,,,,,,,,,,,,,,,,,,,,,,,,,,,,,,,9,4.3594,1,0,19,19,29,1,3,×,3,3 × 3,neutral,tie,2,1,9,,,,,,,,
,,,,,,,,,,,,,,,790,2022-01-17_13h23.37.757,multiplicationStroop,2021.2.3,Win32,143.7194596,,,,,,,,,,,,,,,,,,,,,,,,,,,,,,,,,15,1.2347,1,0,20,20,4,1,3,×,5,3 × 5,congruent,smallerFirst,1,2,15,,,,,,,,
,,,,,,,,,,,,,,,790,2022-01-17_13h23.37.757,multiplicationStroop,2021.2.3,Win32,143.7194596,,,,,,,,,,,,,,,,,,,,,,,,,,,,,,,,,49,1.6305,1,0,21,21,33,1,7,×,7,7 × 7,neutral,tie,2,1,49,,,,,,,,
,,,,,,,,,,,,,,,790,2022-01-17_13h23.37.757,multiplicationStroop,2021.2.3,Win32,143.7194596,,,,,,,,,,,,,,,,,,,,,,,,,,,,,,,,,8,1.4784,1,0,22,22,9,1,2,×,4,2 × 4,congruent,smallerFirst,1,2,8,,,,,,,,
,,,,,,,,,,,,,,,790,2022-01-17_13h23.37.757,multiplicationStroop,2021.2.3,Win32,143.7194596,,,,,,,,,,,,,,,,,,,,,,,,,,,,,,,,,21,1.1991,1,0,23,23,16,1,7,×,3,7 × 3,congruent,largerFirst,2,1,21,,,,,,,,
,,,,,,,,,,,,,,,790,2022-01-17_13h23.37.757,multiplicationStroop,2021.2.3,Win32,143.7194596,,,,,,,,,,,,,,,,,,,,,,,,,,,,,,,,,4,1.0653,1,0,24,24,28,1,2,×,2,2 × 2,neutral,tie,2,1,4,,,,,,,,
,,,,,,,,,,,,,,,790,2022-01-17_13h23.37.757,multiplicationStroop,2021.2.3,Win32,143.7194596,,,,,,,,,,,,,,,,,,,,,,,,,,,,,,,,,14,1.7699,1,0,25,25,14,1,7,×,2,7 × 2,congruent,largerFirst,2,1,14,,,,,,,,
,,,,,,,,,,,,,,,790,2022-01-17_13h23.37.757,multiplicationStroop,2021.2.3,Win32,143.7194596,,,,,,,,,,,,,,,,,,,,,,,,,,,,,,,,,16,1.9141,1,0,26,26,5,1,2,×,8,2 × 8,congruent,smallerFirst,1,2,16,,,,,,,,
,,,,,,,,,,,,,,,790,2022-01-17_13h23.37.757,multiplicationStroop,2021.2.3,Win32,143.7194596,,,,,,,,,,,,,,,,,,,,,,,,,,,,,,,,,30,1.6213,1,0,27,27,15,1,6,×,5,6 × 5,congruent,largerFirst,2,1,30,,,,,,,,
,,,,,,,,,,,,,,,790,2022-01-17_13h23.37.757,multiplicationStroop,2021.2.3,Win32,143.7194596,,,,,,,,,,,,,,,,,,,,,,,,,,,,,,,,,63,2.9154,1,0,28,28,21,1,9,×,7,9 × 7,congruent,largerFirst,2,1,63,,,,,,,,
,,,,,,,,,,,,,,,790,2022-01-17_13h23.37.757,multiplicationStroop,2021.2.3,Win32,143.7194596,,,,,,,,,,,,,,,,,,,,,,,,,,,,,,,,,18,2.4178,1,0,29,29,11,1,3,×,6,3 × 6,congruent,smallerFirst,1,2,18,,,,,,,,
,,,,,,,,,,,,,,,790,2022-01-17_13h23.37.757,multiplicationStroop,2021.2.3,Win32,143.7194596,,,,,,,,,,,,,,,,,,,,,,,,,,,,,,,,,16,2.0274,1,0,30,30,30,1,4,×,4,4 × 4,neutral,tie,2,1,16,,,,,,,,
,,,,,,,,,,,,,,,790,2022-01-17_13h23.37.757,multiplicationStroop,2021.2.3,Win32,143.7194596,,,,,,,,,,,,,,,,,,,,,,,,,,,,,,,,,24,2.7191,1,0,31,31,25,1,6,×,4,6 × 4,congruent,largerFirst,2,1,24,,,,,,,,
,,,,,,,,,,,,,,,790,2022-01-17_13h23.37.757,multiplicationStroop,2021.2.3,Win32,143.7194596,,,,,,,,,,,,,,,,,,,,,,,,,,,,,,,,,54,2.8201,1,0,32,32,12,1,6,×,9,6 × 9,congruent,smallerFirst,1,2,54,,,,,,,,
,,,,,,,,,,,,,,,790,2022-01-17_13h23.37.757,multiplicationStroop,2021.2.3,Win32,143.7194596,,,,,,,,,,,,,,,,,,,,,,,,,,,,,,,,,81,2.5314,1,0,33,33,35,1,9,×,9,9 × 9,neutral,tie,2,1,81,,,,,,,,
,,,,,,,,,,,,,,,790,2022-01-17_13h23.37.757,multiplicationStroop,2021.2.3,Win32,143.7194596,,,,,,,,,,,,,,,,,,,,,,,,,,,,,,,,,10,1.2639,1,0,34,34,24,1,5,×,2,5 × 2,congruent,largerFirst,2,1,10,,,,,,,,
,,,,,,,,,,,,,,,790,2022-01-17_13h23.37.757,multiplicationStroop,2021.2.3,Win32,143.7194596,,,,,,,,,,,,,,,,,,,,,,,,,,,,,,,,,45,2.7428,1,0,35,35,23,1,9,×,5,9 × 5,congruent,largerFirst,2,1,45,,,,,,,,
,,,,,,,,,,,,,,,790,2022-01-17_13h23.37.757,multiplicationStroop,2021.2.3,Win32,143.7194596,,,,,,,,,,,,,,,,,,,,,,,,,,,,,,,,,,,,,,,,,,,,,,,,,,0,1,1,2,1,stimulusFile/mult_blk3_congruent.xlsx,,
,,,,,,,,,,,,,,,790,2022-01-17_13h23.37.757,multiplicationStroop,2021.2.3,Win32,143.7194596,,,,,,,,,,,,,,,,,,,,,,,,,,,,,,,space,1.659,14,1.4461,1,0,0,0,4,1,2,×,7,2 × 7,incongruent,smallerFirst,2,1,14,,,,,,,,
,,,,,,,,,,,,,,,790,2022-01-17_13h23.37.757,multiplicationStroop,2021.2.3,Win32,143.7194596,,,,,,,,,,,,,,,,,,,,,,,,,,,,,,,,,36,5.5713,1,0,1,1,15,1,9,×,4,9 × 4,incongruent,largerFirst,1,2,36,,,,,,,,
,,,,,,,,,,,,,,,790,2022-01-17_13h23.37.757,multiplicationStroop,2021.2.3,Win32,143.7194596,,,,,,,,,,,,,,,,,,,,,,,,,,,,,,,,,24,3.0896,1,0,2,2,20,1,6,×,4,6 × 4,incongruent,largerFirst,1,2,24,,,,,,,,
,,,,,,,,,,,,,,,790,2022-01-17_13h23.37.757,multiplicationStroop,2021.2.3,Win32,143.7194596,,,,,,,,,,,,,,,,,,,,,,,,,,,,,,,,,40,1.4184,1,0,3,3,13,1,5,×,8,5 × 8,incongruent,smallerFirst,2,1,40,,,,,,,,
,,,,,,,,,,,,,,,790,2022-01-17_13h23.37.757,multiplicationStroop,2021.2.3,Win32,143.7194596,,,,,,,,,,,,,,,,,,,,,,,,,,,,,,,,,64,2.3647,1,0,4,4,34,1,8,×,8,8 × 8,incongruent,tie,1,2,64,,,,,,,,
,,,,,,,,,,,,,,,790,2022-01-17_13h23.37.757,multiplicationStroop,2021.2.3,Win32,143.7194596,,,,,,,,,,,,,,,,,,,,,,,,,,,,,,,,,18,1.5571,1,0,5,5,2,1,2,×,9,2 × 9,incongruent,smallerFirst,2,1,18,,,,,,,,
,,,,,,,,,,,,,,,790,2022-01-17_13h23.37.757,multiplicationStroop,2021.2.3,Win32,143.7194596,,,,,,,,,,,,,,,,,,,,,,,,,,,,,,,,,32,2.8696,1,0,6,6,7,1,4,×,8,4 × 8,incongruent,smallerFirst,2,1,32,,,,,,,,
,,,,,,,,,,,,,,,790,2022-01-17_13h23.37.757,multiplicationStroop,2021.2.3,Win32,143.7194596,,,,,,,,,,,,,,,,,,,,,,,,,,,,,,,,,30,1.6328,1,0,7,7,25,1,6,×,5,6 × 5,incongruent,largerFirst,1,2,30,,,,,,,,
,,,,,,,,,,,,,,,790,2022-01-17_13h23.37.757,multiplicationStroop,2021.2.3,Win32,143.7194596,,,,,,,,,,,,,,,,,,,,,,,,,,,,,,,,,21,1.3715,1,0,8,8,26,1,7,×,3,7 × 3,incongruent,largerFirst,1,2,21,,,,,,,,
,,,,,,,,,,,,,,,790,2022-01-17_13h23.37.757,multiplicationStroop,2021.2.3,Win32,143.7194596,,,,,,,,,,,,,,,,,,,,,,,,,,,,,,,,,18,1.5005,1,0,9,9,8,1,3,×,6,3 × 6,incongruent,smallerFirst,2,1,18,,,,,,,,
,,,,,,,,,,,,,,,790,2022-01-17_13h23.37.757,multiplicationStroop,2021.2.3,Win32,143.7194596,,,,,,,,,,,,,,,,,,,,,,,,,,,,,,,,,63,2.6619,1,0,10,10,3,1,7,×,9,7 × 9,incongruent,smallerFirst,2,1,63,,,,,,,,
,,,,,,,,,,,,,,,790,2022-01-17_13h23.37.757,multiplicationStroop,2021.2.3,Win32,143.7194596,,,,,,,,,,,,,,,,,,,,,,,,,,,,,,,,,48,2.8956,1,0,11,11,1,1,6,×,8,6 × 8,incongruent,smallerFirst,2,1,48,,,,,,,,
,,,,,,,,,,,,,,,790,2022-01-17_13h23.37.757,multiplicationStroop,2021.2.3,Win32,143.7194596,,,,,,,,,,,,,,,,,,,,,,,,,,,,,,,,,72,2.4576,1,0,12,12,0,1,8,×,9,8 × 9,incongruent,smallerFirst,2,1,72,,,,,,,,
,,,,,,,,,,,,,,,790,2022-01-17_13h23.37.757,multiplicationStroop,2021.2.3,Win32,143.7194596,,,,,,,,,,,,,,,,,,,,,,,,,,,,,,,,,20,1.1187,1,0,13,13,27,1,5,×,4,5 × 4,incongruent,largerFirst,1,2,20,,,,,,,,
,,,,,,,,,,,,,,,790,2022-01-17_13h23.37.757,multiplicationStroop,2021.2.3,Win32,143.7194596,,,,,,,,,,,,,,,,,,,,,,,,,,,,,,,,,42,2.8269,1,0,14,14,17,1,7,×,6,7 × 6,incongruent,largerFirst,1,2,42,,,,,,,,
,,,,,,,,,,,,,,,790,2022-01-17_13h23.37.757,multiplicationStroop,2021.2.3,Win32,143.7194596,,,,,,,,,,,,,,,,,,,,,,,,,,,,,,,,,9,1.7685,1,0,15,15,29,1,3,×,3,3 × 3,incongruent,tie,1,2,9,,,,,,,,
,,,,,,,,,,,,,,,790,2022-01-17_13h23.37.757,multiplicationStroop,2021.2.3,Win32,143.7194596,,,,,,,,,,,,,,,,,,,,,,,,,,,,,,,,,12,1.9679,1,0,16,16,19,1,6,×,2,6 × 2,incongruent,largerFirst,1,2,12,,,,,,,,
,,,,,,,,,,,,,,,790,2022-01-17_13h23.37.757,multiplicationStroop,2021.2.3,Win32,143.7194596,,,,,,,,,,,,,,,,,,,,,,,,,,,,,,,,,4,1.1169,1,0,17,17,28,1,2,×,2,2 × 2,incongruent,tie,1,2,4,,,,,,,,
,,,,,,,,,,,,,,,790,2022-01-17_13h23.37.757,multiplicationStroop,2021.2.3,Win32,143.7194596,,,,,,,,,,,,,,,,,,,,,,,,,,,,,,,,,28,2.7782,1,0,18,18,16,1,7,×,4,7 × 4,incongruent,largerFirst,1,2,28,,,,,,,,
,,,,,,,,,,,,,,,790,2022-01-17_13h23.37.757,multiplicationStroop,2021.2.3,Win32,143.7194596,,,,,,,,,,,,,,,,,,,,,,,,,,,,,,,,,12,2.8324,1,0,19,19,5,1,3,×,4,3 × 4,incongruent,smallerFirst,2,1,12,,,,,,,,
,,,,,,,,,,,,,,,790,2022-01-17_13h23.37.757,multiplicationStroop,2021.2.3,Win32,143.7194596,,,,,,,,,,,,,,,,,,,,,,,,,,,,,,,,,54,2.1388,1,0,20,20,6,1,6,×,9,6 × 9,incongruent,smallerFirst,2,1,54,,,,,,,,
,,,,,,,,,,,,,,,790,2022-01-17_13h23.37.757,multiplicationStroop,2021.2.3,Win32,143.7194596,,,,,,,,,,,,,,,,,,,,,,,,,,,,,,,,,15,1.1567,1,0,21,21,10,1,3,×,5,3 × 5,incongruent,smallerFirst,2,1,15,,,,,,,,
,,,,,,,,,,,,,,,790,2022-01-17_13h23.37.757,multiplicationStroop,2021.2.3,Win32,143.7194596,,,,,,,,,,,,,,,,,,,,,,,,,,,,,,,,,56,2.5354,1,0,22,22,14,1,8,×,7,8 × 7,incongruent,largerFirst,1,2,56,,,,,,,,
,,,,,,,,,,,,,,,790,2022-01-17_13h23.37.757,multiplicationStroop,2021.2.3,Win32,143.7194596,,,,,,,,,,,,,,,,,,,,,,,,,,,,,,,,,49,1.9015,1,0,23,23,33,1,7,×,7,7 × 7,incongruent,tie,1,2,49,,,,,,,,
,,,,,,,,,,,,,,,790,2022-01-17_13h23.37.757,multiplicationStroop,2021.2.3,Win32,143.7194596,,,,,,,,,,,,,,,,,,,,,,,,,,,,,,,,,45,1.7443,1,0,24,24,22,1,9,×,5,9 × 5,incongruent,largerFirst,1,2,45,,,,,,,,
,,,,,,,,,,,,,,,790,2022-01-17_13h23.37.757,multiplicationStroop,2021.2.3,Win32,143.7194596,,,,,,,,,,,,,,,,,,,,,,,,,,,,,,,,,24,1.4784,1,0,25,25,9,1,3,×,8,3 × 8,incongruent,smallerFirst,2,1,24,,,,,,,,
,,,,,,,,,,,,,,,790,2022-01-17_13h23.37.757,multiplicationStroop,2021.2.3,Win32,143.7194596,,,,,,,,,,,,,,,,,,,,,,,,,,,,,,,,,81,2.0433,1,0,26,26,35,1,9,×,9,9 × 9,incongruent,tie,1,2,81,,,,,,,,
,,,,,,,,,,,,,,,790,2022-01-17_13h23.37.757,multiplicationStroop,2021.2.3,Win32,143.7194596,,,,,,,,,,,,,,,,,,,,,,,,,,,,,,,,,8,1.7957,1,0,27,27,24,1,4,×,2,4 × 2,incongruent,largerFirst,1,2,8,,,,,,,,
,,,,,,,,,,,,,,,790,2022-01-17_13h23.37.757,multiplicationStroop,2021.2.3,Win32,143.7194596,,,,,,,,,,,,,,,,,,,,,,,,,,,,,,,,,36,1.5637,1,0,28,28,32,1,6,×,6,6 × 6,incongruent,tie,1,2,36,,,,,,,,
,,,,,,,,,,,,,,,790,2022-01-17_13h23.37.757,multiplicationStroop,2021.2.3,Win32,143.7194596,,,,,,,,,,,,,,,,,,,,,,,,,,,,,,,,,10,1.1613,1,0,29,29,21,1,5,×,2,5 × 2,incongruent,largerFirst,1,2,10,,,,,,,,
,,,,,,,,,,,,,,,790,2022-01-17_13h23.37.757,multiplicationStroop,2021.2.3,Win32,143.7194596,,,,,,,,,,,,,,,,,,,,,,,,,,,,,,,,,6,1.8745,1,0,30,30,11,1,2,×,3,2 × 3,incongruent,smallerFirst,2,1,6,,,,,,,,
,,,,,,,,,,,,,,,790,2022-01-17_13h23.37.757,multiplicationStroop,2021.2.3,Win32,143.7194596,,,,,,,,,,,,,,,,,,,,,,,,,,,,,,,,,16,1.9303,1,0,31,31,23,1,8,×,2,8 × 2,incongruent,largerFirst,1,2,16,,,,,,,,
,,,,,,,,,,,,,,,790,2022-01-17_13h23.37.757,multiplicationStroop,2021.2.3,Win32,143.7194596,,,,,,,,,,,,,,,,,,,,,,,,,,,,,,,,,35,1.5825,1,0,32,32,12,1,5,×,7,5 × 7,incongruent,smallerFirst,2,1,35,,,,,,,,
,,,,,,,,,,,,,,,790,2022-01-17_13h23.37.757,multiplicationStroop,2021.2.3,Win32,143.7194596,,,,,,,,,,,,,,,,,,,,,,,,,,,,,,,,,21,1.766,0,0,33,33,18,1,9,×,3,9 × 3,incongruent,largerFirst,1,2,27,,,,,,,,
,,,,,,,,,,,,,,,790,2022-01-17_13h23.37.757,multiplicationStroop,2021.2.3,Win32,143.7194596,,,,,,,,,,,,,,,,,,,,,,,,,,,,,,,,,16,1.6647,1,0,34,34,30,1,4,×,4,4 × 4,incongruent,tie,1,2,16,,,,,,,,
,,,,,,,,,,,,,,,790,2022-01-17_13h23.37.757,multiplicationStroop,2021.2.3,Win32,143.7194596,,,,,,,,,,,,,,,,,,,,,,,,,,,,,,,,,25,1.8998,1,0,35,35,31,1,5,×,5,5 × 5,incongruent,tie,1,2,25,,,,,,,,
,,,,,,,,,,,,,,,790,2022-01-17_13h23.37.757,multiplicationStroop,2021.2.3,Win32,143.7194596,,,,,,,,,,,,,,,,,,,,,,,,,,,,,,,,,,,,,,,,,,,,,,,,,,0,2,2,5,1,stimulusFile/mult_blk6_INcongruent.xlsx,,
,,,,,,,,,,,,,,,790,2022-01-17_13h23.37.757,multiplicationStroop,2021.2.3,Win32,143.7194596,,,,,,,,,,,,,,,,,,,,,,,,,,,,,,,space,0.9578,6,1.5403,1,0,0,0,25,1,3,×,2,3 × 2,incongruent,largerFirst,1,2,6,,,,,,,,
,,,,,,,,,,,,,,,790,2022-01-17_13h23.37.757,multiplicationStroop,2021.2.3,Win32,143.7194596,,,,,,,,,,,,,,,,,,,,,,,,,,,,,,,,,24,1.5924,1,0,1,1,23,1,8,×,3,8 × 3,incongruent,largerFirst,1,2,24,,,,,,,,
,,,,,,,,,,,,,,,790,2022-01-17_13h23.37.757,multiplicationStroop,2021.2.3,Win32,143.7194596,,,,,,,,,,,,,,,,,,,,,,,,,,,,,,,,,30,1.5285,1,0,2,2,11,1,5,×,6,5 × 6,incongruent,smallerFirst,2,1,30,,,,,,,,
,,,,,,,,,,,,,,,790,2022-01-17_13h23.37.757,multiplicationStroop,2021.2.3,Win32,143.7194596,,,,,,,,,,,,,,,,,,,,,,,,,,,,,,,,,8,1.3032,1,0,3,3,10,1,2,×,4,2 × 4,incongruent,smallerFirst,2,1,8,,,,,,,,
,,,,,,,,,,,,,,,790,2022-01-17_13h23.37.757,multiplicationStroop,2021.2.3,Win32,143.7194596,,,,,,,,,,,,,,,,,,,,,,,,,,,,,,,,,12,1.0813,1,0,4,4,19,1,4,×,3,4 × 3,incongruent,largerFirst,1,2,12,,,,,,,,
,,,,,,,,,,,,,,,790,2022-01-17_13h23.37.757,multiplicationStroop,2021.2.3,Win32,143.7194596,,,,,,,,,,,,,,,,,,,,,,,,,,,,,,,,,48,2.6804,1,0,5,5,15,1,8,×,6,8 × 6,incongruent,largerFirst,1,2,48,,,,,,,,
,,,,,,,,,,,,,,,790,2022-01-17_13h23.37.757,multiplicationStroop,2021.2.3,Win32,143.7194596,,,,,,,,,,,,,,,,,,,,,,,,,,,,,,,,,28,1.6549,1,0,6,6,2,1,4,×,7,4 × 7,incongruent,smallerFirst,2,1,28,,,,,,,,
,,,,,,,,,,,,,,,790,2022-01-17_13h23.37.757,multiplicationStroop,2021.2.3,Win32,143.7194596,,,,,,,,,,,,,,,,,,,,,,,,,,,,,,,,,15,1.1376,1,0,7,7,24,1,5,×,3,5 × 3,incongruent,largerFirst,1,2,15,,,,,,,,
,,,,,,,,,,,,,,,790,2022-01-17_13h23.37.757,multiplicationStroop,2021.2.3,Win32,143.7194596,,,,,,,,,,,,,,,,,,,,,,,,,,,,,,,,,16,1.3848,1,0,8,8,30,1,4,×,4,4 × 4,neutral,tie,2,1,16,,,,,,,,
,,,,,,,,,,,,,,,790,2022-01-17_13h23.37.757,multiplicationStroop,2021.2.3,Win32,143.7194596,,,,,,,,,,,,,,,,,,,,,,,,,,,,,,,,,49,1.5465,1,0,9,9,33,1,7,×,7,7 × 7,neutral,tie,2,1,49,,,,,,,,
,,,,,,,,,,,,,,,790,2022-01-17_13h23.37.757,multiplicationStroop,2021.2.3,Win32,143.7194596,,,,,,,,,,,,,,,,,,,,,,,,,,,,,,,,,25,1.395,1,0,10,10,31,1,5,×,5,5 × 5,neutral,tie,2,1,25,,,,,,,,
,,,,,,,,,,,,,,,790,2022-01-17_13h23.37.757,multiplicationStroop,2021.2.3,Win32,143.7194596,,,,,,,,,,,,,,,,,,,,,,,,,,,,,,,,,21,1.1603,0,0,11,11,4,1,3,×,9,3 × 9,incongruent,smallerFirst,2,1,27,,,,,,,,
,,,,,,,,,,,,,,,790,2022-01-17_13h23.37.757,multiplicationStroop,2021.2.3,Win32,143.7194596,,,,,,,,,,,,,,,,,,,,,,,,,,,,,,,,,14,1.3871,1,0,12,12,18,1,7,×,2,7 × 2,incongruent,largerFirst,1,2,14,,,,,,,,
,,,,,,,,,,,,,,,790,2022-01-17_13h23.37.757,multiplicationStroop,2021.2.3,Win32,143.7194596,,,,,,,,,,,,,,,,,,,,,,,,,,,,,,,,,42,3.5184,1,0,13,13,3,1,6,×,7,6 × 7,incongruent,smallerFirst,2,1,42,,,,,,,,
,,,,,,,,,,,,,,,790,2022-01-17_13h23.37.757,multiplicationStroop,2021.2.3,Win32,143.7194596,,,,,,,,,,,,,,,,,,,,,,,,,,,,,,,,,16,1.7699,1,0,14,14,9,1,2,×,8,2 × 8,incongruent,smallerFirst,2,1,16,,,,,,,,
,,,,,,,,,,,,,,,790,2022-01-17_13h23.37.757,multiplicationStroop,2021.2.3,Win32,143.7194596,,,,,,,,,,,,,,,,,,,,,,,,,,,,,,,,,40,2.6524,1,0,15,15,27,1,8,×,5,8 × 5,incongruent,largerFirst,1,2,40,,,,,,,,
,,,,,,,,,,,,,,,790,2022-01-17_13h23.37.757,multiplicationStroop,2021.2.3,Win32,143.7194596,,,,,,,,,,,,,,,,,,,,,,,,,,,,,,,,,36,3.6232,1,0,16,16,1,1,4,×,9,4 × 9,incongruent,smallerFirst,2,1,36,,,,,,,,
,,,,,,,,,,,,,,,790,2022-01-17_13h23.37.757,multiplicationStroop,2021.2.3,Win32,143.7194596,,,,,,,,,,,,,,,,,,,,,,,,,,,,,,,,,64,2.8214,1,0,17,17,34,1,8,×,8,8 × 8,neutral,tie,2,1,64,,,,,,,,
,,,,,,,,,,,,,,,790,2022-01-17_13h23.37.757,multiplicationStroop,2021.2.3,Win32,143.7194596,,,,,,,,,,,,,,,,,,,,,,,,,,,,,,,,,35,1.6374,1,0,18,18,26,1,7,×,5,7 × 5,incongruent,largerFirst,1,2,35,,,,,,,,
,,,,,,,,,,,,,,,790,2022-01-17_13h23.37.757,multiplicationStroop,2021.2.3,Win32,143.7194596,,,,,,,,,,,,,,,,,,,,,,,,,,,,,,,,,21,1.2535,1,0,19,19,12,1,3,×,7,3 × 7,incongruent,smallerFirst,2,1,21,,,,,,,,
,,,,,,,,,,,,,,,790,2022-01-17_13h23.37.757,multiplicationStroop,2021.2.3,Win32,143.7194596,,,,,,,,,,,,,,,,,,,,,,,,,,,,,,,,,9,1.2487,1,0,20,20,29,1,3,×,3,3 × 3,neutral,tie,2,1,9,,,,,,,,
,,,,,,,,,,,,,,,790,2022-01-17_13h23.37.757,multiplicationStroop,2021.2.3,Win32,143.7194596,,,,,,,,,,,,,,,,,,,,,,,,,,,,,,,,,12,1.1404,1,0,21,21,5,1,2,×,6,2 × 6,incongruent,smallerFirst,2,1,12,,,,,,,,
,,,,,,,,,,,,,,,790,2022-01-17_13h23.37.757,multiplicationStroop,2021.2.3,Win32,143.7194596,,,,,,,,,,,,,,,,,,,,,,,,,,,,,,,,,18,1.3175,1,0,22,22,16,1,9,×,2,9 × 2,incongruent,largerFirst,1,2,18,,,,,,,,
,,,,,,,,,,,,,,,790,2022-01-17_13h23.37.757,multiplicationStroop,2021.2.3,Win32,143.7194596,,,,,,,,,,,,,,,,,,,,,,,,,,,,,,,,,45,2.2541,1,0,23,23,8,1,5,×,9,5 × 9,incongruent,smallerFirst,2,1,45,,,,,,,,
,,,,,,,,,,,,,,,790,2022-01-17_13h23.37.757,multiplicationStroop,2021.2.3,Win32,143.7194596,,,,,,,,,,,,,,,,,,,,,,,,,,,,,,,,,24,2.0963,1,0,24,24,6,1,4,×,6,4 × 6,incongruent,smallerFirst,2,1,24,,,,,,,,
,,,,,,,,,,,,,,,790,2022-01-17_13h23.37.757,multiplicationStroop,2021.2.3,Win32,143.7194596,,,,,,,,,,,,,,,,,,,,,,,,,,,,,,,,,72,3.6285,1,0,25,25,14,1,9,×,8,9 × 8,incongruent,largerFirst,1,2,72,,,,,,,,
,,,,,,,,,,,,,,,790,2022-01-17_13h23.37.757,multiplicationStroop,2021.2.3,Win32,143.7194596,,,,,,,,,,,,,,,,,,,,,,,,,,,,,,,,,81,1.5098,1,0,26,26,35,1,9,×,9,9 × 9,neutral,tie,2,1,81,,,,,,,,
,,,,,,,,,,,,,,,790,2022-01-17_13h23.37.757,multiplicationStroop,2021.2.3,Win32,143.7194596,,,,,,,,,,,,,,,,,,,,,,,,,,,,,,,,,36,2.8035,1,0,27,27,32,1,6,×,6,6 × 6,neutral,tie,2,1,36,,,,,,,,
,,,,,,,,,,,,,,,790,2022-01-17_13h23.37.757,multiplicationStroop,2021.2.3,Win32,143.7194596,,,,,,,,,,,,,,,,,,,,,,,,,,,,,,,,,10,1.3415,1,0,28,28,7,1,2,×,5,2 × 5,incongruent,smallerFirst,2,1,10,,,,,,,,
,,,,,,,,,,,,,,,790,2022-01-17_13h23.37.757,multiplicationStroop,2021.2.3,Win32,143.7194596,,,,,,,,,,,,,,,,,,,,,,,,,,,,,,,,,4,1.0235,1,0,29,29,28,1,2,×,2,2 × 2,neutral,tie,2,1,4,,,,,,,,
,,,,,,,,,,,,,,,790,2022-01-17_13h23.37.757,multiplicationStroop,2021.2.3,Win32,143.7194596,,,,,,,,,,,,,,,,,,,,,,,,,,,,,,,,,20,1.4323,1,0,30,30,13,1,4,×,5,4 × 5,incongruent,smallerFirst,2,1,20,,,,,,,,
,,,,,,,,,,,,,,,790,2022-01-17_13h23.37.757,multiplicationStroop,2021.2.3,Win32,143.7194596,,,,,,,,,,,,,,,,,,,,,,,,,,,,,,,,,32,2.5068,1,0,31,31,21,1,8,×,4,8 × 4,incongruent,largerFirst,1,2,32,,,,,,,,
,,,,,,,,,,,,,,,790,2022-01-17_13h23.37.757,multiplicationStroop,2021.2.3,Win32,143.7194596,,,,,,,,,,,,,,,,,,,,,,,,,,,,,,,,,54,4.1195,1,0,32,32,20,1,9,×,6,9 × 6,incongruent,largerFirst,1,2,54,,,,,,,,
,,,,,,,,,,,,,,,790,2022-01-17_13h23.37.757,multiplicationStroop,2021.2.3,Win32,143.7194596,,,,,,,,,,,,,,,,,,,,,,,,,,,,,,,,,56,2.4065,1,0,33,33,0,1,7,×,8,7 × 8,incongruent,smallerFirst,2,1,56,,,,,,,,
,,,,,,,,,,,,,,,790,2022-01-17_13h23.37.757,multiplicationStroop,2021.2.3,Win32,143.7194596,,,,,,,,,,,,,,,,,,,,,,,,,,,,,,,,,18,1.8719,1,0,34,34,22,1,6,×,3,6 × 3,incongruent,largerFirst,1,2,18,,,,,,,,
,,,,,,,,,,,,,,,790,2022-01-17_13h23.37.757,multiplicationStroop,2021.2.3,Win32,143.7194596,,,,,,,,,,,,,,,,,,,,,,,,,,,,,,,,,63,3.5344,1,0,35,35,17,1,9,×,7,9 × 7,incongruent,largerFirst,1,2,63,,,,,,,,
,,,,,,,,,,,,,,,790,2022-01-17_13h23.37.757,multiplicationStroop,2021.2.3,Win32,143.7194596,,,,,,,,,,,,,,,,,,,,,,,,,,,,,,,,,,,,,,,,,,,,,,,,,,0,3,3,4,1,stimulusFile/mult_blk5_INcongruent.xlsx,,
,,,,,,,,,,,,,,,790,2022-01-17_13h23.37.757,multiplicationStroop,2021.2.3,Win32,143.7194596,,,,,,,,,,,,,,,,,,,,,,,,,,,,,,,space,1.1882,45,1.7611,1,0,0,0,24,1,9,×,5,9 × 5,neutral,largerFirst,1.5,1.5,45,,,,,,,,
,,,,,,,,,,,,,,,790,2022-01-17_13h23.37.757,multiplicationStroop,2021.2.3,Win32,143.7194596,,,,,,,,,,,,,,,,,,,,,,,,,,,,,,,,,49,2.0095,1,0,1,1,33,1,7,×,7,7 × 7,neutral,tie,1.5,1.5,49,,,,,,,,
,,,,,,,,,,,,,,,790,2022-01-17_13h23.37.757,multiplicationStroop,2021.2.3,Win32,143.7194596,,,,,,,,,,,,,,,,,,,,,,,,,,,,,,,,,8,1.958,1,0,2,2,17,1,4,×,2,4 × 2,neutral,largerFirst,1.5,1.5,8,,,,,,,,
,,,,,,,,,,,,,,,790,2022-01-17_13h23.37.757,multiplicationStroop,2021.2.3,Win32,143.7194596,,,,,,,,,,,,,,,,,,,,,,,,,,,,,,,,,36,11.3276,1,0,3,3,13,1,4,×,9,4 × 9,neutral,smallerFirst,1.5,1.5,36,,,,,,,,
,,,,,,,,,,,,,,,790,2022-01-17_13h23.37.757,multiplicationStroop,2021.2.3,Win32,143.7194596,,,,,,,,,,,,,,,,,,,,,,,,,,,,,,,,,56,2.527,1,0,4,4,23,1,8,×,7,8 × 7,neutral,largerFirst,1.5,1.5,56,,,,,,,,
,,,,,,,,,,,,,,,790,2022-01-17_13h23.37.757,multiplicationStroop,2021.2.3,Win32,143.7194596,,,,,,,,,,,,,,,,,,,,,,,,,,,,,,,,,48,3.74,1,0,5,5,1,1,6,×,8,6 × 8,neutral,smallerFirst,1.5,1.5,48,,,,,,,,
,,,,,,,,,,,,,,,790,2022-01-17_13h23.37.757,multiplicationStroop,2021.2.3,Win32,143.7194596,,,,,,,,,,,,,,,,,,,,,,,,,,,,,,,,,42,2.2543,1,0,6,6,20,1,7,×,6,7 × 6,neutral,largerFirst,1.5,1.5,42,,,,,,,,
,,,,,,,,,,,,,,,790,2022-01-17_13h23.37.757,multiplicationStroop,2021.2.3,Win32,143.7194596,,,,,,,,,,,,,,,,,,,,,,,,,,,,,,,,,16,1.4419,1,0,7,7,30,1,4,×,4,4 × 4,neutral,tie,1.5,1.5,16,,,,,,,,
,,,,,,,,,,,,,,,790,2022-01-17_13h23.37.757,multiplicationStroop,2021.2.3,Win32,143.7194596,,,,,,,,,,,,,,,,,,,,,,,,,,,,,,,,,15,1.3115,1,0,8,8,19,1,5,×,3,5 × 3,neutral,largerFirst,1.5,1.5,15,,,,,,,,
,,,,,,,,,,,,,,,790,2022-01-17_13h23.37.757,multiplicationStroop,2021.2.3,Win32,143.7194596,,,,,,,,,,,,,,,,,,,,,,,,,,,,,,,,,14,1.2804,1,0,9,9,2,1,2,×,7,2 × 7,neutral,smallerFirst,1.5,1.5,14,,,,,,,,
,,,,,,,,,,,,,,,790,2022-01-17_13h23.37.757,multiplicationStroop,2021.2.3,Win32,143.7194596,,,,,,,,,,,,,,,,,,,,,,,,,,,,,,,,,9,1.625,1,0,10,10,29,1,3,×,3,3 × 3,neutral,tie,1.5,1.5,9,,,,,,,,
,,,,,,,,,,,,,,,790,2022-01-17_13h23.37.757,multiplicationStroop,2021.2.3,Win32,143.7194596,,,,,,,,,,,,,,,,,,,,,,,,,,,,,,,,,40,1.5758,1,0,11,11,10,1,5,×,8,5 × 8,neutral,smallerFirst,1.5,1.5,40,,,,,,,,
,,,,,,,,,,,,,,,790,2022-01-17_13h23.37.757,multiplicationStroop,2021.2.3,Win32,143.7194596,,,,,,,,,,,,,,,,,,,,,,,,,,,,,,,,,72,2.0484,1,0,12,12,25,1,9,×,8,9 × 8,neutral,largerFirst,1.5,1.5,72,,,,,,,,
,,,,,,,,,,,,,,,790,2022-01-17_13h23.37.757,multiplicationStroop,2021.2.3,Win32,143.7194596,,,,,,,,,,,,,,,,,,,,,,,,,,,,,,,,,20,1.238,1,0,13,13,6,1,4,×,5,4 × 5,neutral,smallerFirst,1.5,1.5,20,,,,,,,,
,,,,,,,,,,,,,,,790,2022-01-17_13h23.37.757,multiplicationStroop,2021.2.3,Win32,143.7194596,,,,,,,,,,,,,,,,,,,,,,,,,,,,,,,,,28,1.4769,1,0,14,14,3,1,4,×,7,4 × 7,neutral,smallerFirst,1.5,1.5,28,,,,,,,,
,,,,,,,,,,,,,,,790,2022-01-17_13h23.37.757,multiplicationStroop,2021.2.3,Win32,143.7194596,,,,,,,,,,,,,,,,,,,,,,,,,,,,,,,,,63,2.3304,1,0,15,15,26,1,9,×,7,9 × 7,neutral,largerFirst,1.5,1.5,63,,,,,,,,
,,,,,,,,,,,,,,,790,2022-01-17_13h23.37.757,multiplicationStroop,2021.2.3,Win32,143.7194596,,,,,,,,,,,,,,,,,,,,,,,,,,,,,,,,,10,1.113,1,0,16,16,18,1,5,×,2,5 × 2,neutral,largerFirst,1.5,1.5,10,,,,,,,,
,,,,,,,,,,,,,,,790,2022-01-17_13h23.37.757,multiplicationStroop,2021.2.3,Win32,143.7194596,,,,,,,,,,,,,,,,,,,,,,,,,,,,,,,,,18,1.5914,1,0,17,17,14,1,6,×,3,6 × 3,neutral,largerFirst,1.5,1.5,18,,,,,,,,
,,,,,,,,,,,,,,,790,2022-01-17_13h23.37.757,multiplicationStroop,2021.2.3,Win32,143.7194596,,,,,,,,,,,,,,,,,,,,,,,,,,,,,,,,,36,1.5021,1,0,18,18,32,1,6,×,6,6 × 6,neutral,tie,1.5,1.5,36,,,,,,,,
,,,,,,,,,,,,,,,790,2022-01-17_13h23.37.757,multiplicationStroop,2021.2.3,Win32,143.7194596,,,,,,,,,,,,,,,,,,,,,,,,,,,,,,,,,4,1.0308,1,0,19,19,28,1,2,×,2,2 × 2,neutral,tie,1.5,1.5,4,,,,,,,,
,,,,,,,,,,,,,,,790,2022-01-17_13h23.37.757,multiplicationStroop,2021.2.3,Win32,143.7194596,,,,,,,,,,,,,,,,,,,,,,,,,,,,,,,,,30,1.2627,1,0,20,20,5,1,5,×,6,5 × 6,neutral,smallerFirst,1.5,1.5,30,,,,,,,,
,,,,,,,,,,,,,,,790,2022-01-17_13h23.37.757,multiplicationStroop,2021.2.3,Win32,143.7194596,,,,,,,,,,,,,,,,,,,,,,,,,,,,,,,,,12,1.5352,1,0,21,21,11,1,2,×,6,2 × 6,neutral,smallerFirst,1.5,1.5,12,,,,,,,,
,,,,,,,,,,,,,,,790,2022-01-17_13h23.37.757,multiplicationStroop,2021.2.3,Win32,143.7194596,,,,,,,,,,,,,,,,,,,,,,,,,,,,,,,,,35,1.671,1,0,22,22,15,1,7,×,5,7 × 5,neutral,largerFirst,1.5,1.5,35,,,,,,,,
,,,,,,,,,,,,,,,790,2022-01-17_13h23.37.757,multiplicationStroop,2021.2.3,Win32,143.7194596,,,,,,,,,,,,,,,,,,,,,,,,,,,,,,,,,21,1.2144,0,0,23,23,0,1,3,×,9,3 × 9,neutral,smallerFirst,1.5,1.5,27,,,,,,,,
,,,,,,,,,,,,,,,790,2022-01-17_13h23.37.757,multiplicationStroop,2021.2.3,Win32,143.7194596,,,,,,,,,,,,,,,,,,,,,,,,,,,,,,,,,32,5.648,1,0,24,24,9,1,4,×,8,4 × 8,neutral,smallerFirst,1.5,1.5,32,,,,,,,,
,,,,,,,,,,,,,,,790,2022-01-17_13h23.37.757,multiplicationStroop,2021.2.3,Win32,143.7194596,,,,,,,,,,,,,,,,,,,,,,,,,,,,,,,,,12,1.2736,1,0,25,25,7,1,3,×,4,3 × 4,neutral,smallerFirst,1.5,1.5,12,,,,,,,,
,,,,,,,,,,,,,,,790,2022-01-17_13h23.37.757,multiplicationStroop,2021.2.3,Win32,143.7194596,,,,,,,,,,,,,,,,,,,,,,,,,,,,,,,,,54,4.1739,1,0,26,26,21,1,9,×,6,9 × 6,neutral,largerFirst,1.5,1.5,54,,,,,,,,
,,,,,,,,,,,,,,,790,2022-01-17_13h23.37.757,multiplicationStroop,2021.2.3,Win32,143.7194596,,,,,,,,,,,,,,,,,,,,,,,,,,,,,,,,,18,1.4894,1,0,27,27,4,1,2,×,9,2 × 9,neutral,smallerFirst,1.5,1.5,18,,,,,,,,
,,,,,,,,,,,,,,,790,2022-01-17_13h23.37.757,multiplicationStroop,2021.2.3,Win32,143.7194596,,,,,,,,,,,,,,,,,,,,,,,,,,,,,,,,,64,2.329,1,0,28,28,34,1,8,×,8,8 × 8,neutral,tie,1.5,1.5,64,,,,,,,,
,,,,,,,,,,,,,,,790,2022-01-17_13h23.37.757,multiplicationStroop,2021.2.3,Win32,143.7194596,,,,,,,,,,,,,,,,,,,,,,,,,,,,,,,,,25,1.3581,1,0,29,29,31,1,5,×,5,5 × 5,neutral,tie,1.5,1.5,25,,,,,,,,
,,,,,,,,,,,,,,,790,2022-01-17_13h23.37.757,multiplicationStroop,2021.2.3,Win32,143.7194596,,,,,,,,,,,,,,,,,,,,,,,,,,,,,,,,,24,2.4039,1,0,30,30,8,1,3,×,8,3 × 8,neutral,smallerFirst,1.5,1.5,24,,,,,,,,
,,,,,,,,,,,,,,,790,2022-01-17_13h23.37.757,multiplicationStroop,2021.2.3,Win32,143.7194596,,,,,,,,,,,,,,,,,,,,,,,,,,,,,,,,,81,1.5208,1,0,31,31,35,1,9,×,9,9 × 9,neutral,tie,1.5,1.5,81,,,,,,,,
,,,,,,,,,,,,,,,790,2022-01-17_13h23.37.757,multiplicationStroop,2021.2.3,Win32,143.7194596,,,,,,,,,,,,,,,,,,,,,,,,,,,,,,,,,16,1.9866,1,0,32,32,27,1,8,×,2,8 × 2,neutral,largerFirst,1.5,1.5,16,,,,,,,,
,,,,,,,,,,,,,,,790,2022-01-17_13h23.37.757,multiplicationStroop,2021.2.3,Win32,143.7194596,,,,,,,,,,,,,,,,,,,,,,,,,,,,,,,,,21,1.2186,1,0,33,33,22,1,7,×,3,7 × 3,neutral,largerFirst,1.5,1.5,21,,,,,,,,
,,,,,,,,,,,,,,,790,2022-01-17_13h23.37.757,multiplicationStroop,2021.2.3,Win32,143.7194596,,,,,,,,,,,,,,,,,,,,,,,,,,,,,,,,,6,1.4478,1,0,34,34,12,1,2,×,3,2 × 3,neutral,smallerFirst,1.5,1.5,6,,,,,,,,
,,,,,,,,,,,,,,,790,2022-01-17_13h23.37.757,multiplicationStroop,2021.2.3,Win32,143.7194596,,,,,,,,,,,,,,,,,,,,,,,,,,,,,,,,,24,1.3352,1,0,35,35,16,1,6,×,4,6 × 4,neutral,largerFirst,1.5,1.5,24,,,,,,,,
,,,,,,,,,,,,,,,790,2022-01-17_13h23.37.757,multiplicationStroop,2021.2.3,Win32,143.7194596,,,,,,,,,,,,,,,,,,,,,,,,,,,,,,,,,,,,,,,,,,,,,,,,,,0,4,4,0,1,stimulusFile/mult_blk1.xlsx,,
,,,,,,,,,,,,,,,790,2022-01-17_13h23.37.757,multiplicationStroop,2021.2.3,Win32,143.7194596,,,,,,,,,,,,,,,,,,,,,,,,,,,,,,,space,1.0208,81,1.9396,1,0,0,0,35,1,9,×,9,9 × 9,neutral,tie,1,2,81,,,,,,,,
,,,,,,,,,,,,,,,790,2022-01-17_13h23.37.757,multiplicationStroop,2021.2.3,Win32,143.7194596,,,,,,,,,,,,,,,,,,,,,,,,,,,,,,,,,48,2.6806,1,0,1,1,4,1,6,×,8,6 × 8,congruent,smallerFirst,1,2,48,,,,,,,,
,,,,,,,,,,,,,,,790,2022-01-17_13h23.37.757,multiplicationStroop,2021.2.3,Win32,143.7194596,,,,,,,,,,,,,,,,,,,,,,,,,,,,,,,,,18,2.0456,1,0,2,2,8,1,2,×,9,2 × 9,congruent,smallerFirst,1,2,18,,,,,,,,
,,,,,,,,,,,,,,,790,2022-01-17_13h23.37.757,multiplicationStroop,2021.2.3,Win32,143.7194596,,,,,,,,,,,,,,,,,,,,,,,,,,,,,,,,,35,1.3953,1,0,3,3,15,1,7,×,5,7 × 5,congruent,largerFirst,2,1,35,,,,,,,,
,,,,,,,,,,,,,,,790,2022-01-17_13h23.37.757,multiplicationStroop,2021.2.3,Win32,143.7194596,,,,,,,,,,,,,,,,,,,,,,,,,,,,,,,,,12,1.1972,1,0,4,4,16,1,4,×,3,4 × 3,congruent,largerFirst,2,1,12,,,,,,,,
,,,,,,,,,,,,,,,790,2022-01-17_13h23.37.757,multiplicationStroop,2021.2.3,Win32,143.7194596,,,,,,,,,,,,,,,,,,,,,,,,,,,,,,,,,14,1.6522,1,0,5,5,0,1,2,×,7,2 × 7,congruent,smallerFirst,1,2,14,,,,,,,,
,,,,,,,,,,,,,,,790,2022-01-17_13h23.37.757,multiplicationStroop,2021.2.3,Win32,143.7194596,,,,,,,,,,,,,,,,,,,,,,,,,,,,,,,,,25,1.3162,1,0,6,6,31,1,5,×,5,5 × 5,neutral,tie,1,2,25,,,,,,,,
,,,,,,,,,,,,,,,790,2022-01-17_13h23.37.757,multiplicationStroop,2021.2.3,Win32,143.7194596,,,,,,,,,,,,,,,,,,,,,,,,,,,,,,,,,9,1.7456,1,0,7,7,29,1,3,×,3,3 × 3,neutral,tie,1,2,9,,,,,,,,
,,,,,,,,,,,,,,,790,2022-01-17_13h23.37.757,multiplicationStroop,2021.2.3,Win32,143.7194596,,,,,,,,,,,,,,,,,,,,,,,,,,,,,,,,,16,1.488,1,0,8,8,19,1,8,×,2,8 × 2,congruent,largerFirst,2,1,16,,,,,,,,
,,,,,,,,,,,,,,,790,2022-01-17_13h23.37.757,multiplicationStroop,2021.2.3,Win32,143.7194596,,,,,,,,,,,,,,,,,,,,,,,,,,,,,,,,,21,1.1615,0,0,9,9,12,1,3,×,9,3 × 9,congruent,smallerFirst,1,2,27,,,,,,,,
,,,,,,,,,,,,,,,790,2022-01-17_13h23.37.757,multiplicationStroop,2021.2.3,Win32,143.7194596,,,,,,,,,,,,,,,,,,,,,,,,,,,,,,,,,40,2.6114,1,0,10,10,20,1,8,×,5,8 × 5,congruent,largerFirst,2,1,40,,,,,,,,
,,,,,,,,,,,,,,,790,2022-01-17_13h23.37.757,multiplicationStroop,2021.2.3,Win32,143.7194596,,,,,,,,,,,,,,,,,,,,,,,,,,,,,,,,,6,1.5101,1,0,11,11,27,1,3,×,2,3 × 2,congruent,largerFirst,2,1,6,,,,,,,,
,,,,,,,,,,,,,,,790,2022-01-17_13h23.37.757,multiplicationStroop,2021.2.3,Win32,143.7194596,,,,,,,,,,,,,,,,,,,,,,,,,,,,,,,,,24,1.2964,1,0,12,12,11,1,4,×,6,4 × 6,congruent,smallerFirst,1,2,24,,,,,,,,
,,,,,,,,,,,,,,,790,2022-01-17_13h23.37.757,multiplicationStroop,2021.2.3,Win32,143.7194596,,,,,,,,,,,,,,,,,,,,,,,,,,,,,,,,,12,1.5647,1,0,13,13,5,1,2,×,6,2 × 6,congruent,smallerFirst,1,2,12,,,,,,,,
,,,,,,,,,,,,,,,790,2022-01-17_13h23.37.757,multiplicationStroop,2021.2.3,Win32,143.7194596,,,,,,,,,,,,,,,,,,,,,,,,,,,,,,,,,54,3.3046,1,0,14,14,26,1,9,×,6,9 × 6,congruent,largerFirst,2,1,54,,,,,,,,
,,,,,,,,,,,,,,,790,2022-01-17_13h23.37.757,multiplicationStroop,2021.2.3,Win32,143.7194596,,,,,,,,,,,,,,,,,,,,,,,,,,,,,,,,,18,2.015,1,0,15,15,25,1,6,×,3,6 × 3,congruent,largerFirst,2,1,18,,,,,,,,
,,,,,,,,,,,,,,,790,2022-01-17_13h23.37.757,multiplicationStroop,2021.2.3,Win32,143.7194596,,,,,,,,,,,,,,,,,,,,,,,,,,,,,,,,,4,1.0651,1,0,16,16,28,1,2,×,2,2 × 2,neutral,tie,1,2,4,,,,,,,,
,,,,,,,,,,,,,,,790,2022-01-17_13h23.37.757,multiplicationStroop,2021.2.3,Win32,143.7194596,,,,,,,,,,,,,,,,,,,,,,,,,,,,,,,,,36,1.703,1,0,17,17,32,1,6,×,6,6 × 6,neutral,tie,1,2,36,,,,,,,,
,,,,,,,,,,,,,,,790,2022-01-17_13h23.37.757,multiplicationStroop,2021.2.3,Win32,143.7194596,,,,,,,,,,,,,,,,,,,,,,,,,,,,,,,,,10,1.1541,1,0,18,18,10,1,2,×,5,2 × 5,congruent,smallerFirst,1,2,10,,,,,,,,
,,,,,,,,,,,,,,,790,2022-01-17_13h23.37.757,multiplicationStroop,2021.2.3,Win32,143.7194596,,,,,,,,,,,,,,,,,,,,,,,,,,,,,,,,,16,1.4862,1,0,19,19,30,1,4,×,4,4 × 4,neutral,tie,1,2,16,,,,,,,,
,,,,,,,,,,,,,,,790,2022-01-17_13h23.37.757,multiplicationStroop,2021.2.3,Win32,143.7194596,,,,,,,,,,,,,,,,,,,,,,,,,,,,,,,,,24,1.4889,1,0,20,20,24,1,8,×,3,8 × 3,congruent,largerFirst,2,1,24,,,,,,,,
,,,,,,,,,,,,,,,790,2022-01-17_13h23.37.757,multiplicationStroop,2021.2.3,Win32,143.7194596,,,,,,,,,,,,,,,,,,,,,,,,,,,,,,,,,49,1.6941,1,0,21,21,33,1,7,×,7,7 × 7,neutral,tie,1,2,49,,,,,,,,
,,,,,,,,,,,,,,,790,2022-01-17_13h23.37.757,multiplicationStroop,2021.2.3,Win32,143.7194596,,,,,,,,,,,,,,,,,,,,,,,,,,,,,,,,,30,1.236,1,0,22,22,1,1,5,×,6,5 × 6,congruent,smallerFirst,1,2,30,,,,,,,,
,,,,,,,,,,,,,,,790,2022-01-17_13h23.37.757,multiplicationStroop,2021.2.3,Win32,143.7194596,,,,,,,,,,,,,,,,,,,,,,,,,,,,,,,,,56,1.9169,1,0,23,23,22,1,8,×,7,8 × 7,congruent,largerFirst,2,1,56,,,,,,,,
,,,,,,,,,,,,,,,790,2022-01-17_13h23.37.757,multiplicationStroop,2021.2.3,Win32,143.7194596,,,,,,,,,,,,,,,,,,,,,,,,,,,,,,,,,63,2.253,1,0,24,24,7,1,7,×,9,7 × 9,congruent,smallerFirst,1,2,63,,,,,,,,
,,,,,,,,,,,,,,,790,2022-01-17_13h23.37.757,multiplicationStroop,2021.2.3,Win32,143.7194596,,,,,,,,,,,,,,,,,,,,,,,,,,,,,,,,,35,1.5963,0,0,25,25,9,1,5,×,9,5 × 9,congruent,smallerFirst,1,2,45,,,,,,,,
,,,,,,,,,,,,,,,790,2022-01-17_13h23.37.757,multiplicationStroop,2021.2.3,Win32,143.7194596,,,,,,,,,,,,,,,,,,,,,,,,,,,,,,,,,15,3.6403,1,0,26,26,18,1,5,×,3,5 × 3,congruent,largerFirst,2,1,15,,,,,,,,
,,,,,,,,,,,,,,,790,2022-01-17_13h23.37.757,multiplicationStroop,2021.2.3,Win32,143.7194596,,,,,,,,,,,,,,,,,,,,,,,,,,,,,,,,,72,2.0623,1,0,27,27,3,1,8,×,9,8 × 9,congruent,smallerFirst,1,2,72,,,,,,,,
,,,,,,,,,,,,,,,790,2022-01-17_13h23.37.757,multiplicationStroop,2021.2.3,Win32,143.7194596,,,,,,,,,,,,,,,,,,,,,,,,,,,,,,,,,32,1.7811,0,0,28,28,14,1,9,×,4,9 × 4,congruent,largerFirst,2,1,36,,,,,,,,
,,,,,,,,,,,,,,,790,2022-01-17_13h23.37.757,multiplicationStroop,2021.2.3,Win32,143.7194596,,,,,,,,,,,,,,,,,,,,,,,,,,,,,,,,,8,3.483,1,0,29,29,23,1,4,×,2,4 × 2,congruent,largerFirst,2,1,8,,,,,,,,
,,,,,,,,,,,,,,,790,2022-01-17_13h23.37.757,multiplicationStroop,2021.2.3,Win32,143.7194596,,,,,,,,,,,,,,,,,,,,,,,,,,,,,,,,,21,1.0751,1,0,30,30,2,1,3,×,7,3 × 7,congruent,smallerFirst,1,2,21,,,,,,,,
,,,,,,,,,,,,,,,790,2022-01-17_13h23.37.757,multiplicationStroop,2021.2.3,Win32,143.7194596,,,,,,,,,,,,,,,,,,,,,,,,,,,,,,,,,32,3.773,1,0,31,31,6,1,4,×,8,4 × 8,congruent,smallerFirst,1,2,32,,,,,,,,
,,,,,,,,,,,,,,,790,2022-01-17_13h23.37.757,multiplicationStroop,2021.2.3,Win32,143.7194596,,,,,,,,,,,,,,,,,,,,,,,,,,,,,,,,,64,2.4107,1,0,32,32,34,1,8,×,8,8 × 8,neutral,tie,1,2,64,,,,,,,,
,,,,,,,,,,,,,,,790,2022-01-17_13h23.37.757,multiplicationStroop,2021.2.3,Win32,143.7194596,,,,,,,,,,,,,,,,,,,,,,,,,,,,,,,,,20,2.025,1,0,33,33,21,1,5,×,4,5 × 4,congruent,largerFirst,2,1,20,,,,,,,,
,,,,,,,,,,,,,,,790,2022-01-17_13h23.37.757,multiplicationStroop,2021.2.3,Win32,143.7194596,,,,,,,,,,,,,,,,,,,,,,,,,,,,,,,,,42,2.9822,1,0,34,34,17,1,7,×,6,7 × 6,congruent,largerFirst,2,1,42,,,,,,,,
,,,,,,,,,,,,,,,790,2022-01-17_13h23.37.757,multiplicationStroop,2021.2.3,Win32,143.7194596,,,,,,,,,,,,,,,,,,,,,,,,,,,,,,,,,28,2.4291,1,0,35,35,13,1,4,×,7,4 × 7,congruent,smallerFirst,1,2,28,,,,,,,,
,,,,,,,,,,,,,,,790,2022-01-17_13h23.37.757,multiplicationStroop,2021.2.3,Win32,143.7194596,,,,,,,,,,,,,,,,,,,,,,,,,,,,,,,,,,,,,,,,,,,,,,,,,,0,5,5,3,1,stimulusFile/mult_blk4_congruent.xlsx,,
,,,,,,,,,,,,,,,790,2022-01-17_13h23.37.757,multiplicationStroop,2021.2.3,Win32,143.7194596,,,,,,,,,,,,,,,,,,,,,,,,,,,,,,,,,,,,,,,,,,,,,,,,,,,,,,,,space,5.3273