welcomeKey_resp.keys,welcomeKey_resp.rt,X Scale,Y Scale,rt_resp_4.keys,rt_resp_4.corr,rt_resp_4.rt,speedtest_2.thisRepN,speedtest_2.thisTrialN,speedtest_2.thisN,speedtest_2.thisIndex,speedtest_2.ran,numberSc,posX,positionLayout,participant,date,expName,psychopyVersion,OS,frameRate,ct_instrresp.keys,ct_instrresp.rt,key_resp_2.keys,key_resp_2.rt,ct_keyResp.keys,ct_keyResp.corr,ct_keyResp.rt,trials.thisRepN,trials.thisTrialN,trials.thisN,trials.thisIndex,trials.ran,leftNo,rightNo,displayProblem,numDistance,leftNo_size,rightNo_size,Dims,keyAnswer,TS_Loop.thisRepN,TS_Loop.thisTrialN,TS_Loop.thisN,TS_Loop.thisIndex,TS_Loop.ran,Condition,ActionInst,instrImage,mltptaskInst_resp.keys,mltptaskInst_resp.rt,continue_resp_2.keys,continue_resp_2.rt,multp_Answer,multi_RT,multiplyCorr,LoopingMultiply.thisRepN,LoopingMultiply.thisTrialN,LoopingMultiply.thisN,LoopingMultiply.thisIndex,LoopingMultiply.ran,factor1,multiplySign,factor2,multliplyProblem,physicalSize,orderOperand,sizeF1,sizeF2,mult_answer,trials_stroop.thisRepN,trials_stroop.thisTrialN,trials_stroop.thisN,trials_stroop.thisIndex,trials_stroop.ran,multiplicationFile,esckey_resp_2.keys,esckey_resp_2.rt
y,6.7941,43.8,43.8,left,1,0.6707,0,0,0,0,1,1,-200,left,792,2022-01-28_22h30.55.422,multiplicationStroop,2021.2.3,Win32,60.15399423,,,,,,,,,,,,,,,,,,,,,,,,,,,,,,,,,,,,,,,,,,,,,,,,,,,,,,,,,
,,,,right,1,0.509,0,1,1,14,1,8,200,right,792,2022-01-28_22h30.55.422,multiplicationStroop,2021.2.3,Win32,60.15399423,,,,,,,,,,,,,,,,,,,,,,,,,,,,,,,,,,,,,,,,,,,,,,,,,,,,,,,,,
,,,,left,1,0.6181,0,2,2,7,1,9,-200,left,792,2022-01-28_22h30.55.422,multiplicationStroop,2021.2.3,Win32,60.15399423,,,,,,,,,,,,,,,,,,,,,,,,,,,,,,,,,,,,,,,,,,,,,,,,,,,,,,,,,
,,,,left,1,0.5012,0,3,3,2,1,3,-200,left,792,2022-01-28_22h30.55.422,multiplicationStroop,2021.2.3,Win32,60.15399423,,,,,,,,,,,,,,,,,,,,,,,,,,,,,,,,,,,,,,,,,,,,,,,,,,,,,,,,,
,,,,right,1,0.4177,0,4,4,11,1,4,200,right,792,2022-01-28_22h30.55.422,multiplicationStroop,2021.2.3,Win32,60.15399423,,,,,,,,,,,,,,,,,,,,,,,,,,,,,,,,,,,,,,,,,,,,,,,,,,,,,,,,,
,,,,right,1,0.4071,0,5,5,10,1,3,200,right,792,2022-01-28_22h30.55.422,multiplicationStroop,2021.2.3,Win32,60.15399423,,,,,,,,,,,,,,,,,,,,,,,,,,,,,,,,,,,,,,,,,,,,,,,,,,,,,,,,,
,,,,right,1,0.3759,0,6,6,13,1,7,200,right,792,2022-01-28_22h30.55.422,multiplicationStroop,2021.2.3,Win32,60.15399423,,,,,,,,,,,,,,,,,,,,,,,,,,,,,,,,,,,,,,,,,,,,,,,,,,,,,,,,,
,,,,left,1,0.4515,0,7,7,3,1,4,-200,left,792,2022-01-28_22h30.55.422,multiplicationStroop,2021.2.3,Win32,60.15399423,,,,,,,,,,,,,,,,,,,,,,,,,,,,,,,,,,,,,,,,,,,,,,,,,,,,,,,,,
,,,,right,1,0.3939,0,8,8,9,1,2,200,right,792,2022-01-28_22h30.55.422,multiplicationStroop,2021.2.3,Win32,60.15399423,,,,,,,,,,,,,,,,,,,,,,,,,,,,,,,,,,,,,,,,,,,,,,,,,,,,,,,,,
,,,,left,1,0.4179,0,9,9,1,1,2,-200,left,792,2022-01-28_22h30.55.422,multiplicationStroop,2021.2.3,Win32,60.15399423,,,,,,,,,,,,,,,,,,,,,,,,,,,,,,,,,,,,,,,,,,,,,,,,,,,,,,,,,
,,,,right,1,0.3676,0,10,10,15,1,9,200,right,792,2022-01-28_22h30.55.422,multiplicationStroop,2021.2.3,Win32,60.15399423,,,,,,,,,,,,,,,,,,,,,,,,,,,,,,,,,,,,,,,,,,,,,,,,,,,,,,,,,
,,,,right,1,0.3747,0,11,11,8,1,1,200,right,792,2022-01-28_22h30.55.422,multiplicationStroop,2021.2.3,Win32,60.15399423,,,,,,,,,,,,,,,,,,,,,,,,,,,,,,,,,,,,,,,,,,,,,,,,,,,,,,,,,
,,,,left,1,0.4181,0,12,12,4,1,6,-200,left,792,2022-01-28_22h30.55.422,multiplicationStroop,2021.2.3,Win32,60.15399423,,,,,,,,,,,,,,,,,,,,,,,,,,,,,,,,,,,,,,,,,,,,,,,,,,,,,,,,,
,,,,left,1,0.385,0,13,13,5,1,7,-200,left,792,2022-01-28_22h30.55.422,multiplicationStroop,2021.2.3,Win32,60.15399423,,,,,,,,,,,,,,,,,,,,,,,,,,,,,,,,,,,,,,,,,,,,,,,,,,,,,,,,,
,,,,left,1,0.3521,0,14,14,6,1,8,-200,left,792,2022-01-28_22h30.55.422,multiplicationStroop,2021.2.3,Win32,60.15399423,,,,,,,,,,,,,,,,,,,,,,,,,,,,,,,,,,,,,,,,,,,,,,,,,,,,,,,,,
,,,,right,1,0.425,0,15,15,12,1,6,200,right,792,2022-01-28_22h30.55.422,multiplicationStroop,2021.2.3,Win32,60.15399423,,,,,,,,,,,,,,,,,,,,,,,,,,,,,,,,,,,,,,,,,,,,,,,,,,,,,,,,,
,,,,left,1,0.3675,1,0,16,1,1,2,-200,left,792,2022-01-28_22h30.55.422,multiplicationStroop,2021.2.3,Win32,60.15399423,,,,,,,,,,,,,,,,,,,,,,,,,,,,,,,,,,,,,,,,,,,,,,,,,,,,,,,,,
,,,,left,1,0.3668,1,1,17,0,1,1,-200,left,792,2022-01-28_22h30.55.422,multiplicationStroop,2021.2.3,Win32,60.15399423,,,,,,,,,,,,,,,,,,,,,,,,,,,,,,,,,,,,,,,,,,,,,,,,,,,,,,,,,
,,,,left,1,0.3577,1,2,18,5,1,7,-200,left,792,2022-01-28_22h30.55.422,multiplicationStroop,2021.2.3,Win32,60.15399423,,,,,,,,,,,,,,,,,,,,,,,,,,,,,,,,,,,,,,,,,,,,,,,,,,,,,,,,,
,,,,right,1,0.4345,1,3,19,15,1,9,200,right,792,2022-01-28_22h30.55.422,multiplicationStroop,2021.2.3,Win32,60.15399423,,,,,,,,,,,,,,,,,,,,,,,,,,,,,,,,,,,,,,,,,,,,,,,,,,,,,,,,,
,,,,right,1,0.3684,1,4,20,8,1,1,200,right,792,2022-01-28_22h30.55.422,multiplicationStroop,2021.2.3,Win32,60.15399423,,,,,,,,,,,,,,,,,,,,,,,,,,,,,,,,,,,,,,,,,,,,,,,,,,,,,,,,,
,,,,right,1,0.4516,1,5,21,13,1,7,200,right,792,2022-01-28_22h30.55.422,multiplicationStroop,2021.2.3,Win32,60.15399423,,,,,,,,,,,,,,,,,,,,,,,,,,,,,,,,,,,,,,,,,,,,,,,,,,,,,,,,,
,,,,left,1,0.384,1,6,22,3,1,4,-200,left,792,2022-01-28_22h30.55.422,multiplicationStroop,2021.2.3,Win32,60.15399423,,,,,,,,,,,,,,,,,,,,,,,,,,,,,,,,,,,,,,,,,,,,,,,,,,,,,,,,,
,,,,left,1,0.3717,1,7,23,4,1,6,-200,left,792,2022-01-28_22h30.55.422,multiplicationStroop,2021.2.3,Win32,60.15399423,,,,,,,,,,,,,,,,,,,,,,,,,,,,,,,,,,,,,,,,,,,,,,,,,,,,,,,,,
,,,,left,1,0.3401,1,8,24,7,1,9,-200,left,792,2022-01-28_22h30.55.422,multiplicationStroop,2021.2.3,Win32,60.15399423,,,,,,,,,,,,,,,,,,,,,,,,,,,,,,,,,,,,,,,,,,,,,,,,,,,,,,,,,
,,,,right,1,0.3858,1,9,25,14,1,8,200,right,792,2022-01-28_22h30.55.422,multiplicationStroop,2021.2.3,Win32,60.15399423,,,,,,,,,,,,,,,,,,,,,,,,,,,,,,,,,,,,,,,,,,,,,,,,,,,,,,,,,
,,,,left,1,0.4019,1,10,26,6,1,8,-200,left,792,2022-01-28_22h30.55.422,multiplicationStroop,2021.2.3,Win32,60.15399423,,,,,,,,,,,,,,,,,,,,,,,,,,,,,,,,,,,,,,,,,,,,,,,,,,,,,,,,,
,,,,right,1,0.3255,1,11,27,12,1,6,200,right,792,2022-01-28_22h30.55.422,multiplicationStroop,2021.2.3,Win32,60.15399423,,,,,,,,,,,,,,,,,,,,,,,,,,,,,,,,,,,,,,,,,,,,,,,,,,,,,,,,,
,,,,left,1,0.2736,1,12,28,2,1,3,-200,left,792,2022-01-28_22h30.55.422,multiplicationStroop,2021.2.3,Win32,60.15399423,,,,,,,,,,,,,,,,,,,,,,,,,,,,,,,,,,,,,,,,,,,,,,,,,,,,,,,,,
,,,,right,1,0.2836,1,13,29,11,1,4,200,right,792,2022-01-28_22h30.55.422,multiplicationStroop,2021.2.3,Win32,60.15399423,,,,,,,,,,,,,,,,,,,,,,,,,,,,,,,,,,,,,,,,,,,,,,,,,,,,,,,,,
,,,,right,1,0.3518,1,14,30,9,1,2,200,right,792,2022-01-28_22h30.55.422,multiplicationStroop,2021.2.3,Win32,60.15399423,,,,,,,,,,,,,,,,,,,,,,,,,,,,,,,,,,,,,,,,,,,,,,,,,,,,,,,,,
,,,,right,1,0.3017,1,15,31,10,1,3,200,right,792,2022-01-28_22h30.55.422,multiplicationStroop,2021.2.3,Win32,60.15399423,,,,,,,,,,,,,,,,,,,,,,,,,,,,,,,,,,,,,,,,,,,,,,,,,,,,,,,,,
,,,,left,1,0.4201,2,0,32,6,1,8,-200,left,792,2022-01-28_22h30.55.422,multiplicationStroop,2021.2.3,Win32,60.15399423,,,,,,,,,,,,,,,,,,,,,,,,,,,,,,,,,,,,,,,,,,,,,,,,,,,,,,,,,
,,,,left,1,0.3553,2,1,33,5,1,7,-200,left,792,2022-01-28_22h30.55.422,multiplicationStroop,2021.2.3,Win32,60.15399423,,,,,,,,,,,,,,,,,,,,,,,,,,,,,,,,,,,,,,,,,,,,,,,,,,,,,,,,,
,,,,left,0,0.1679,2,2,34,14,1,8,200,right,792,2022-01-28_22h30.55.422,multiplicationStroop,2021.2.3,Win32,60.15399423,,,,,,,,,,,,,,,,,,,,,,,,,,,,,,,,,,,,,,,,,,,,,,,,,,,,,,,,,
,,,,right,1,0.7353,2,3,35,15,1,9,200,right,792,2022-01-28_22h30.55.422,multiplicationStroop,2021.2.3,Win32,60.15399423,,,,,,,,,,,,,,,,,,,,,,,,,,,,,,,,,,,,,,,,,,,,,,,,,,,,,,,,,
,,,,left,1,0.4865,2,4,36,4,1,6,-200,left,792,2022-01-28_22h30.55.422,multiplicationStroop,2021.2.3,Win32,60.15399423,,,,,,,,,,,,,,,,,,,,,,,,,,,,,,,,,,,,,,,,,,,,,,,,,,,,,,,,,
,,,,left,1,0.4015,2,5,37,3,1,4,-200,left,792,2022-01-28_22h30.55.422,multiplicationStroop,2021.2.3,Win32,60.15399423,,,,,,,,,,,,,,,,,,,,,,,,,,,,,,,,,,,,,,,,,,,,,,,,,,,,,,,,,
,,,,right,1,0.3931,2,6,38,9,1,2,200,right,792,2022-01-28_22h30.55.422,multiplicationStroop,2021.2.3,Win32,60.15399423,,,,,,,,,,,,,,,,,,,,,,,,,,,,,,,,,,,,,,,,,,,,,,,,,,,,,,,,,
,,,,left,1,0.4942,2,7,39,1,1,2,-200,left,792,2022-01-28_22h30.55.422,multiplicationStroop,2021.2.3,Win32,60.15399423,,,,,,,,,,,,,,,,,,,,,,,,,,,,,,,,,,,,,,,,,,,,,,,,,,,,,,,,,
,,,,left,1,0.3731,2,8,40,7,1,9,-200,left,792,2022-01-28_22h30.55.422,multiplicationStroop,2021.2.3,Win32,60.15399423,,,,,,,,,,,,,,,,,,,,,,,,,,,,,,,,,,,,,,,,,,,,,,,,,,,,,,,,,
,,,,right,1,0.4512,2,9,41,8,1,1,200,right,792,2022-01-28_22h30.55.422,multiplicationStroop,2021.2.3,Win32,60.15399423,,,,,,,,,,,,,,,,,,,,,,,,,,,,,,,,,,,,,,,,,,,,,,,,,,,,,,,,,
,,,,right,1,0.4774,2,10,42,12,1,6,200,right,792,2022-01-28_22h30.55.422,multiplicationStroop,2021.2.3,Win32,60.15399423,,,,,,,,,,,,,,,,,,,,,,,,,,,,,,,,,,,,,,,,,,,,,,,,,,,,,,,,,
,,,,left,1,0.5226,2,11,43,2,1,3,-200,left,792,2022-01-28_22h30.55.422,multiplicationStroop,2021.2.3,Win32,60.15399423,,,,,,,,,,,,,,,,,,,,,,,,,,,,,,,,,,,,,,,,,,,,,,,,,,,,,,,,,
,,,,right,1,0.3845,2,12,44,11,1,4,200,right,792,2022-01-28_22h30.55.422,multiplicationStroop,2021.2.3,Win32,60.15399423,,,,,,,,,,,,,,,,,,,,,,,,,,,,,,,,,,,,,,,,,,,,,,,,,,,,,,,,,
,,,,right,1,0.4358,2,13,45,10,1,3,200,right,792,2022-01-28_22h30.55.422,multiplicationStroop,2021.2.3,Win32,60.15399423,,,,,,,,,,,,,,,,,,,,,,,,,,,,,,,,,,,,,,,,,,,,,,,,,,,,,,,,,
,,,,right,1,0.4008,2,14,46,13,1,7,200,right,792,2022-01-28_22h30.55.422,multiplicationStroop,2021.2.3,Win32,60.15399423,,,,,,,,,,,,,,,,,,,,,,,,,,,,,,,,,,,,,,,,,,,,,,,,,,,,,,,,,
,,,,left,1,0.3688,2,15,47,0,1,1,-200,left,792,2022-01-28_22h30.55.422,multiplicationStroop,2021.2.3,Win32,60.15399423,,,,,,,,,,,,,,,,,,,,,,,,,,,,,,,,,,,,,,,,,,,,,,,,,,,,,,,,,
,,,,right,1,0.3077,3,0,48,11,1,4,200,right,792,2022-01-28_22h30.55.422,multiplicationStroop,2021.2.3,Win32,60.15399423,,,,,,,,,,,,,,,,,,,,,,,,,,,,,,,,,,,,,,,,,,,,,,,,,,,,,,,,,
,,,,right,1,0.3512,3,1,49,8,1,1,200,right,792,2022-01-28_22h30.55.422,multiplicationStroop,2021.2.3,Win32,60.15399423,,,,,,,,,,,,,,,,,,,,,,,,,,,,,,,,,,,,,,,,,,,,,,,,,,,,,,,,,
,,,,left,1,0.3687,3,2,50,4,1,6,-200,left,792,2022-01-28_22h30.55.422,multiplicationStroop,2021.2.3,Win32,60.15399423,,,,,,,,,,,,,,,,,,,,,,,,,,,,,,,,,,,,,,,,,,,,,,,,,,,,,,,,,
,,,,right,1,0.3253,3,3,51,13,1,7,200,right,792,2022-01-28_22h30.55.422,multiplicationStroop,2021.2.3,Win32,60.15399423,,,,,,,,,,,,,,,,,,,,,,,,,,,,,,,,,,,,,,,,,,,,,,,,,,,,,,,,,
,,,,left,1,0.3373,3,4,52,2,1,3,-200,left,792,2022-01-28_22h30.55.422,multiplicationStroop,2021.2.3,Win32,60.15399423,,,,,,,,,,,,,,,,,,,,,,,,,,,,,,,,,,,,,,,,,,,,,,,,,,,,,,,,,
,,,,right,1,0.3182,3,5,53,15,1,9,200,right,792,2022-01-28_22h30.55.422,multiplicationStroop,2021.2.3,Win32,60.15399423,,,,,,,,,,,,,,,,,,,,,,,,,,,,,,,,,,,,,,,,,,,,,,,,,,,,,,,,,
,,,,right,1,0.4011,3,6,54,12,1,6,200,right,792,2022-01-28_22h30.55.422,multiplicationStroop,2021.2.3,Win32,60.15399423,,,,,,,,,,,,,,,,,,,,,,,,,,,,,,,,,,,,,,,,,,,,,,,,,,,,,,,,,
,,,,right,1,0.2678,3,7,55,14,1,8,200,right,792,2022-01-28_22h30.55.422,multiplicationStroop,2021.2.3,Win32,60.15399423,,,,,,,,,,,,,,,,,,,,,,,,,,,,,,,,,,,,,,,,,,,,,,,,,,,,,,,,,
,,,,left,1,0.4061,3,8,56,6,1,8,-200,left,792,2022-01-28_22h30.55.422,multiplicationStroop,2021.2.3,Win32,60.15399423,,,,,,,,,,,,,,,,,,,,,,,,,,,,,,,,,,,,,,,,,,,,,,,,,,,,,,,,,
,,,,right,1,0.3537,3,9,57,10,1,3,200,right,792,2022-01-28_22h30.55.422,multiplicationStroop,2021.2.3,Win32,60.15399423,,,,,,,,,,,,,,,,,,,,,,,,,,,,,,,,,,,,,,,,,,,,,,,,,,,,,,,,,
,,,,left,1,0.3257,3,10,58,1,1,2,-200,left,792,2022-01-28_22h30.55.422,multiplicationStroop,2021.2.3,Win32,60.15399423,,,,,,,,,,,,,,,,,,,,,,,,,,,,,,,,,,,,,,,,,,,,,,,,,,,,,,,,,
,,,,left,1,0.3842,3,11,59,5,1,7,-200,left,792,2022-01-28_22h30.55.422,multiplicationStroop,2021.2.3,Win32,60.15399423,,,,,,,,,,,,,,,,,,,,,,,,,,,,,,,,,,,,,,,,,,,,,,,,,,,,,,,,,
,,,,left,1,0.3505,3,12,60,7,1,9,-200,left,792,2022-01-28_22h30.55.422,multiplicationStroop,2021.2.3,Win32,60.15399423,,,,,,,,,,,,,,,,,,,,,,,,,,,,,,,,,,,,,,,,,,,,,,,,,,,,,,,,,
,,,,left,1,0.2373,3,13,61,0,1,1,-200,left,792,2022-01-28_22h30.55.422,multiplicationStroop,2021.2.3,Win32,60.15399423,,,,,,,,,,,,,,,,,,,,,,,,,,,,,,,,,,,,,,,,,,,,,,,,,,,,,,,,,
,,,,right,1,0.4271,3,14,62,9,1,2,200,right,792,2022-01-28_22h30.55.422,multiplicationStroop,2021.2.3,Win32,60.15399423,,,,,,,,,,,,,,,,,,,,,,,,,,,,,,,,,,,,,,,,,,,,,,,,,,,,,,,,,
,,,,left,1,0.3406,3,15,63,3,1,4,-200,left,792,2022-01-28_22h30.55.422,multiplicationStroop,2021.2.3,Win32,60.15399423,,,,,,,,,,,,,,,,,,,,,,,,,,stimulusFile/magnitude.xlsx,,,,,,,,,,,,,,,,,,,,,,,,,,,,,,,
,,,,,,,,,,,,,,,792,2022-01-28_22h30.55.422,multiplicationStroop,2021.2.3,Win32,60.15399423,space,17.6914,space,21.2296,right,1,1.0455,0,0,0,32,1,1,3,1 | 3,2,1.9756,1.4111,incongruent,right,,,,,,stimulusFile/magnitude.xlsx,,,,,,,,,,,,,,,,,,,,,,,,,,,,,,,
,,,,,,,,,,,,,,,792,2022-01-28_22h30.55.422,multiplicationStroop,2021.2.3,Win32,60.15399423,,,,,left,1,0.7622,0,1,1,22,1,8,3,8 | 3,5,1.9756,1.4111,congruent,left,,,,,,stimulusFile/magnitude.xlsx,,,,,,,,,,,,,,,,,,,,,,,,,,,,,,,
,,,,,,,,,,,,,,,792,2022-01-28_22h30.55.422,multiplicationStroop,2021.2.3,Win32,60.15399423,,,,,left,1,0.9212,0,2,2,46,1,8,3,8 | 3,5,1.4111,1.9756,incongruent,left,,,,,,stimulusFile/magnitude.xlsx,,,,,,,,,,,,,,,,,,,,,,,,,,,,,,,
,,,,,,,,,,,,,,,792,2022-01-28_22h30.55.422,multiplicationStroop,2021.2.3,Win32,60.15399423,,,,,left,1,0.7218,0,3,3,30,1,7,6,7 | 6,1,1.4111,1.9756,incongruent,left,,,,,,stimulusFile/magnitude.xlsx,,,,,,,,,,,,,,,,,,,,,,,,,,,,,,,
,,,,,,,,,,,,,,,792,2022-01-28_22h30.55.422,multiplicationStroop,2021.2.3,Win32,60.15399423,,,,,right,1,0.7345,0,4,4,34,1,6,8,6 | 8,2,1.9756,1.4111,incongruent,right,,,,,,stimulusFile/magnitude.xlsx,,,,,,,,,,,,,,,,,,,,,,,,,,,,,,,
,,,,,,,,,,,,,,,792,2022-01-28_22h30.55.422,multiplicationStroop,2021.2.3,Win32,60.15399423,,,,,left,1,0.6681,0,5,5,38,1,8,6,8 | 6,2,1.4111,1.9756,incongruent,left,,,,,,stimulusFile/magnitude.xlsx,,,,,,,,,,,,,,,,,,,,,,,,,,,,,,,
,,,,,,,,,,,,,,,792,2022-01-28_22h30.55.422,multiplicationStroop,2021.2.3,Win32,60.15399423,,,,,left,1,0.6397,0,6,6,12,1,3,1,3 | 1,2,1.9756,1.4111,congruent,left,,,,,,stimulusFile/magnitude.xlsx,,,,,,,,,,,,,,,,,,,,,,,,,,,,,,,
,,,,,,,,,,,,,,,792,2022-01-28_22h30.55.422,multiplicationStroop,2021.2.3,Win32,60.15399423,,,,,right,1,0.717,0,7,7,3,1,8,9,8 | 9,1,1.4111,1.9756,congruent,right,,,,,,stimulusFile/magnitude.xlsx,,,,,,,,,,,,,,,,,,,,,,,,,,,,,,,
,,,,,,,,,,,,,,,792,2022-01-28_22h30.55.422,multiplicationStroop,2021.2.3,Win32,60.15399423,,,,,right,1,0.8193,0,8,8,40,1,1,6,1 | 6,5,1.9756,1.4111,incongruent,right,,,,,,stimulusFile/magnitude.xlsx,,,,,,,,,,,,,,,,,,,,,,,,,,,,,,,
,,,,,,,,,,,,,,,792,2022-01-28_22h30.55.422,multiplicationStroop,2021.2.3,Win32,60.15399423,,,,,right,1,0.661,0,9,9,48,1,1,2,1 | 2,1,1.6933,1.6933,neutral,right,,,,,,stimulusFile/magnitude.xlsx,,,,,,,,,,,,,,,,,,,,,,,,,,,,,,,
,,,,,,,,,,,,,,,792,2022-01-28_22h30.55.422,multiplicationStroop,2021.2.3,Win32,60.15399423,,,,,left,1,0.5894,0,10,10,4,1,2,1,2 | 1,1,1.9756,1.4111,congruent,left,,,,,,stimulusFile/magnitude.xlsx,,,,,,,,,,,,,,,,,,,,,,,,,,,,,,,
,,,,,,,,,,,,,,,792,2022-01-28_22h30.55.422,multiplicationStroop,2021.2.3,Win32,60.15399423,,,,,left,1,0.6753,0,11,11,45,1,7,2,7 | 2,5,1.4111,1.9756,incongruent,left,,,,,,stimulusFile/magnitude.xlsx,,,,,,,,,,,,,,,,,,,,,,,,,,,,,,,
,,,,,,,,,,,,,,,792,2022-01-28_22h30.55.422,multiplicationStroop,2021.2.3,Win32,60.15399423,,,,,right,1,0.6375,0,12,12,0,1,1,2,1 | 2,1,1.4111,1.9756,congruent,right,,,,,,stimulusFile/magnitude.xlsx,,,,,,,,,,,,,,,,,,,,,,,,,,,,,,,
,,,,,,,,,,,,,,,792,2022-01-28_22h30.55.422,multiplicationStroop,2021.2.3,Win32,60.15399423,,,,,left,1,0.6727,0,13,13,52,1,2,1,2 | 1,1,1.6933,1.6933,neutral,left,,,,,,stimulusFile/magnitude.xlsx,,,,,,,,,,,,,,,,,,,,,,,,,,,,,,,
,,,,,,,,,,,,,,,792,2022-01-28_22h30.55.422,multiplicationStroop,2021.2.3,Win32,60.15399423,,,,,left,1,0.7844,0,14,14,21,1,7,2,7 | 2,5,1.9756,1.4111,congruent,left,,,,,,stimulusFile/magnitude.xlsx,,,,,,,,,,,,,,,,,,,,,,,,,,,,,,,
,,,,,,,,,,,,,,,792,2022-01-28_22h30.55.422,multiplicationStroop,2021.2.3,Win32,60.15399423,,,,,right,1,0.6019,0,15,15,16,1,1,6,1 | 6,5,1.4111,1.9756,congruent,right,,,,,,stimulusFile/magnitude.xlsx,,,,,,,,,,,,,,,,,,,,,,,,,,,,,,,
,,,,,,,,,,,,,,,792,2022-01-28_22h30.55.422,multiplicationStroop,2021.2.3,Win32,60.15399423,,,,,left,1,0.7183,0,16,16,14,1,8,6,8 | 6,2,1.9756,1.4111,congruent,left,,,,,,stimulusFile/magnitude.xlsx,,,,,,,,,,,,,,,,,,,,,,,,,,,,,,,
,,,,,,,,,,,,,,,792,2022-01-28_22h30.55.422,multiplicationStroop,2021.2.3,Win32,60.15399423,,,,,right,1,0.7347,0,17,17,51,1,8,9,8 | 9,1,1.6933,1.6933,neutral,right,,,,,,stimulusFile/magnitude.xlsx,,,,,,,,,,,,,,,,,,,,,,,,,,,,,,,
,,,,,,,,,,,,,,,792,2022-01-28_22h30.55.422,multiplicationStroop,2021.2.3,Win32,60.15399423,,,,,left,1,0.837,0,18,18,29,1,4,3,4 | 3,1,1.4111,1.9756,incongruent,left,,,,,,stimulusFile/magnitude.xlsx,,,,,,,,,,,,,,,,,,,,,,,,,,,,,,,
,,,,,,,,,,,,,,,792,2022-01-28_22h30.55.422,multiplicationStroop,2021.2.3,Win32,60.15399423,,,,,right,1,0.5854,0,19,19,56,1,1,3,1 | 3,2,1.6933,1.6933,neutral,right,,,,,,stimulusFile/magnitude.xlsx,,,,,,,,,,,,,,,,,,,,,,,,,,,,,,,
,,,,,,,,,,,,,,,792,2022-01-28_22h30.55.422,multiplicationStroop,2021.2.3,Win32,60.15399423,,,,,left,1,0.6566,0,20,20,62,1,8,6,8 | 6,2,1.6933,1.6933,neutral,left,,,,,,stimulusFile/magnitude.xlsx,,,,,,,,,,,,,,,,,,,,,,,,,,,,,,,
,,,,,,,,,,,,,,,792,2022-01-28_22h30.55.422,multiplicationStroop,2021.2.3,Win32,60.15399423,,,,,right,1,0.4853,0,21,21,64,1,1,6,1 | 6,5,1.6933,1.6933,neutral,right,,,,,,stimulusFile/magnitude.xlsx,,,,,,,,,,,,,,,,,,,,,,,,,,,,,,,
,,,,,,,,,,,,,,,792,2022-01-28_22h30.55.422,multiplicationStroop,2021.2.3,Win32,60.15399423,,,,,right,1,0.5845,0,22,22,11,1,7,9,7 | 9,2,1.4111,1.9756,congruent,right,,,,,,stimulusFile/magnitude.xlsx,,,,,,,,,,,,,,,,,,,,,,,,,,,,,,,
,,,,,,,,,,,,,,,792,2022-01-28_22h30.55.422,multiplicationStroop,2021.2.3,Win32,60.15399423,,,,,right,1,0.7888,0,23,23,35,1,7,9,7 | 9,2,1.9756,1.4111,incongruent,right,,,,,,stimulusFile/magnitude.xlsx,,,,,,,,,,,,,,,,,,,,,,,,,,,,,,,
,,,,,,,,,,,,,,,792,2022-01-28_22h30.55.422,multiplicationStroop,2021.2.3,Win32,60.15399423,,,,,right,1,0.5842,0,24,24,1,1,3,4,3 | 4,1,1.4111,1.9756,congruent,right,,,,,,stimulusFile/magnitude.xlsx,,,,,,,,,,,,,,,,,,,,,,,,,,,,,,,
,,,,,,,,,,,,,,,792,2022-01-28_22h30.55.422,multiplicationStroop,2021.2.3,Win32,60.15399423,,,,,left,1,0.5345,0,25,25,28,1,2,1,2 | 1,1,1.4111,1.9756,incongruent,left,,,,,,stimulusFile/magnitude.xlsx,,,,,,,,,,,,,,,,,,,,,,,,,,,,,,,
,,,,,,,,,,,,,,,792,2022-01-28_22h30.55.422,multiplicationStroop,2021.2.3,Win32,60.15399423,,,,,left,1,0.7015,0,26,26,63,1,9,7,9 | 7,2,1.6933,1.6933,neutral,left,,,,,,stimulusFile/magnitude.xlsx,,,,,,,,,,,,,,,,,,,,,,,,,,,,,,,
,,,,,,,,,,,,,,,792,2022-01-28_22h30.55.422,multiplicationStroop,2021.2.3,Win32,60.15399423,,,,,right,1,0.5369,0,27,27,17,1,2,7,2 | 7,5,1.4111,1.9756,congruent,right,,,,,,stimulusFile/magnitude.xlsx,,,,,,,,,,,,,,,,,,,,,,,,,,,,,,,
,,,,,,,,,,,,,,,792,2022-01-28_22h30.55.422,multiplicationStroop,2021.2.3,Win32,60.15399423,,,,,left,1,0.6181,0,28,28,23,1,9,4,9 | 4,5,1.9756,1.4111,congruent,left,,,,,,stimulusFile/magnitude.xlsx,,,,,,,,,,,,,,,,,,,,,,,,,,,,,,,
,,,,,,,,,,,,,,,792,2022-01-28_22h30.55.422,multiplicationStroop,2021.2.3,Win32,60.15399423,,,,,left,1,0.6434,0,29,29,44,1,6,1,6 | 1,5,1.4111,1.9756,incongruent,left,,,,,,stimulusFile/magnitude.xlsx,,,,,,,,,,,,,,,,,,,,,,,,,,,,,,,
,,,,,,,,,,,,,,,792,2022-01-28_22h30.55.422,multiplicationStroop,2021.2.3,Win32,60.15399423,,,,,left,1,0.5382,0,30,30,70,1,8,3,8 | 3,5,1.6933,1.6933,neutral,left,,,,,,stimulusFile/magnitude.xlsx,,,,,,,,,,,,,,,,,,,,,,,,,,,,,,,
,,,,,,,,,,,,,,,792,2022-01-28_22h30.55.422,multiplicationStroop,2021.2.3,Win32,60.15399423,,,,,right,1,0.9853,0,31,31,50,1,6,7,6 | 7,1,1.6933,1.6933,neutral,right,,,,,,stimulusFile/magnitude.xlsx,,,,,,,,,,,,,,,,,,,,,,,,,,,,,,,
,,,,,,,,,,,,,,,792,2022-01-28_22h30.55.422,multiplicationStroop,2021.2.3,Win32,60.15399423,,,,,right,1,0.685,0,32,32,26,1,6,7,6 | 7,1,1.9756,1.4111,incongruent,right,,,,,,stimulusFile/magnitude.xlsx,,,,,,,,,,,,,,,,,,,,,,,,,,,,,,,
,,,,,,,,,,,,,,,792,2022-01-28_22h30.55.422,multiplicationStroop,2021.2.3,Win32,60.15399423,,,,,left,1,0.5738,0,33,33,60,1,3,1,3 | 1,2,1.6933,1.6933,neutral,left,,,,,,stimulusFile/magnitude.xlsx,,,,,,,,,,,,,,,,,,,,,,,,,,,,,,,
,,,,,,,,,,,,,,,792,2022-01-28_22h30.55.422,multiplicationStroop,2021.2.3,Win32,60.15399423,,,,,left,1,0.9394,0,34,34,31,1,9,8,9 | 8,1,1.4111,1.9756,incongruent,left,,,,,,stimulusFile/magnitude.xlsx,,,,,,,,,,,,,,,,,,,,,,,,,,,,,,,
,,,,,,,,,,,,,,,792,2022-01-28_22h30.55.422,multiplicationStroop,2021.2.3,Win32,60.15399423,,,,,left,1,0.6289,0,35,35,53,1,4,3,4 | 3,1,1.6933,1.6933,neutral,left,,,,,,stimulusFile/magnitude.xlsx,,,,,,,,,,,,,,,,,,,,,,,,,,,,,,,
,,,,,,,,,,,,,,,792,2022-01-28_22h30.55.422,multiplicationStroop,2021.2.3,Win32,60.15399423,,,,,left,1,0.5223,0,36,36,13,1,4,2,4 | 2,2,1.9756,1.4111,congruent,left,,,,,,stimulusFile/magnitude.xlsx,,,,,,,,,,,,,,,,,,,,,,,,,,,,,,,
,,,,,,,,,,,,,,,792,2022-01-28_22h30.55.422,multiplicationStroop,2021.2.3,Win32,60.15399423,,,,,left,1,0.4859,0,37,37,5,1,4,3,4 | 3,1,1.9756,1.4111,congruent,left,,,,,,stimulusFile/magnitude.xlsx,,,,,,,,,,,,,,,,,,,,,,,,,,,,,,,
,,,,,,,,,,,,,,,792,2022-01-28_22h30.55.422,multiplicationStroop,2021.2.3,Win32,60.15399423,,,,,left,1,0.4854,0,38,38,68,1,6,1,6 | 1,5,1.6933,1.6933,neutral,left,,,,,,stimulusFile/magnitude.xlsx,,,,,,,,,,,,,,,,,,,,,,,,,,,,,,,
,,,,,,,,,,,,,,,792,2022-01-28_22h30.55.422,multiplicationStroop,2021.2.3,Win32,60.15399423,,,,,left,1,0.6846,0,39,39,47,1,9,4,9 | 4,5,1.4111,1.9756,incongruent,left,,,,,,stimulusFile/magnitude.xlsx,,,,,,,,,,,,,,,,,,,,,,,,,,,,,,,
,,,,,,,,,,,,,,,792,2022-01-28_22h30.55.422,multiplicationStroop,2021.2.3,Win32,60.15399423,,,,,right,1,0.5593,0,40,40,19,1,4,9,4 | 9,5,1.4111,1.9756,congruent,right,,,,,,stimulusFile/magnitude.xlsx,,,,,,,,,,,,,,,,,,,,,,,,,,,,,,,
,,,,,,,,,,,,,,,792,2022-01-28_22h30.55.422,multiplicationStroop,2021.2.3,Win32,60.15399423,,,,,right,1,0.5018,0,41,41,43,1,4,9,4 | 9,5,1.9756,1.4111,incongruent,right,,,,,,stimulusFile/magnitude.xlsx,,,,,,,,,,,,,,,,,,,,,,,,,,,,,,,
,,,,,,,,,,,,,,,792,2022-01-28_22h30.55.422,multiplicationStroop,2021.2.3,Win32,60.15399423,,,,,right,1,0.5079,0,42,42,59,1,7,9,7 | 9,2,1.6933,1.6933,neutral,right,,,,,,stimulusFile/magnitude.xlsx,,,,,,,,,,,,,,,,,,,,,,,,,,,,,,,
,,,,,,,,,,,,,,,792,2022-01-28_22h30.55.422,multiplicationStroop,2021.2.3,Win32,60.15399423,,,,,left,1,0.5853,0,43,43,71,1,9,4,9 | 4,5,1.6933,1.6933,neutral,left,,,,,,stimulusFile/magnitude.xlsx,,,,,,,,,,,,,,,,,,,,,,,,,,,,,,,
,,,,,,,,,,,,,,,792,2022-01-28_22h30.55.422,multiplicationStroop,2021.2.3,Win32,60.15399423,,,,,right,1,0.5009,0,44,44,18,1,3,8,3 | 8,5,1.4111,1.9756,congruent,right,,,,,,stimulusFile/magnitude.xlsx,,,,,,,,,,,,,,,,,,,,,,,,,,,,,,,
,,,,,,,,,,,,,,,792,2022-01-28_22h30.55.422,multiplicationStroop,2021.2.3,Win32,60.15399423,,,,,right,1,0.5397,0,45,45,65,1,2,7,2 | 7,5,1.6933,1.6933,neutral,right,,,,,,stimulusFile/magnitude.xlsx,,,,,,,,,,,,,,,,,,,,,,,,,,,,,,,
,,,,,,,,,,,,,,,792,2022-01-28_22h30.55.422,multiplicationStroop,2021.2.3,Win32,60.15399423,,,,,right,1,0.484,0,46,46,41,1,2,7,2 | 7,5,1.9756,1.4111,incongruent,right,,,,,,stimulusFile/magnitude.xlsx,,,,,,,,,,,,,,,,,,,,,,,,,,,,,,,
,,,,,,,,,,,,,,,792,2022-01-28_22h30.55.422,multiplicationStroop,2021.2.3,Win32,60.15399423,,,,,right,1,0.5435,0,47,47,8,1,1,3,1 | 3,2,1.4111,1.9756,congruent,right,,,,,,stimulusFile/magnitude.xlsx,,,,,,,,,,,,,,,,,,,,,,,,,,,,,,,
,,,,,,,,,,,,,,,792,2022-01-28_22h30.55.422,multiplicationStroop,2021.2.3,Win32,60.15399423,,,,,right,1,0.7507,0,48,48,57,1,2,4,2 | 4,2,1.6933,1.6933,neutral,right,,,,,,stimulusFile/magnitude.xlsx,,,,,,,,,,,,,,,,,,,,,,,,,,,,,,,
,,,,,,,,,,,,,,,792,2022-01-28_22h30.55.422,multiplicationStroop,2021.2.3,Win32,60.15399423,,,,,right,1,0.6428,0,49,49,58,1,6,8,6 | 8,2,1.6933,1.6933,neutral,right,,,,,,stimulusFile/magnitude.xlsx,,,,,,,,,,,,,,,,,,,,,,,,,,,,,,,
,,,,,,,,,,,,,,,792,2022-01-28_22h30.55.422,multiplicationStroop,2021.2.3,Win32,60.15399423,,,,,left,1,0.5873,0,50,50,15,1,9,7,9 | 7,2,1.9756,1.4111,congruent,left,,,,,,stimulusFile/magnitude.xlsx,,,,,,,,,,,,,,,,,,,,,,,,,,,,,,,
,,,,,,,,,,,,,,,792,2022-01-28_22h30.55.422,multiplicationStroop,2021.2.3,Win32,60.15399423,,,,,right,1,0.651,0,51,51,24,1,1,2,1 | 2,1,1.9756,1.4111,incongruent,right,,,,,,stimulusFile/magnitude.xlsx,,,,,,,,,,,,,,,,,,,,,,,,,,,,,,,
,,,,,,,,,,,,,,,792,2022-01-28_22h30.55.422,multiplicationStroop,2021.2.3,Win32,60.15399423,,,,,left,1,0.9443,0,52,52,54,1,7,6,7 | 6,1,1.6933,1.6933,neutral,left,,,,,,stimulusFile/magnitude.xlsx,,,,,,,,,,,,,,,,,,,,,,,,,,,,,,,
,,,,,,,,,,,,,,,792,2022-01-28_22h30.55.422,multiplicationStroop,2021.2.3,Win32,60.15399423,,,,,left,1,0.501,0,53,53,7,1,9,8,9 | 8,1,1.9756,1.4111,congruent,left,,,,,,stimulusFile/magnitude.xlsx,,,,,,,,,,,,,,,,,,,,,,,,,,,,,,,
,,,,,,,,,,,,,,,792,2022-01-28_22h30.55.422,multiplicationStroop,2021.2.3,Win32,60.15399423,,,,,left,1,0.6948,0,54,54,39,1,9,7,9 | 7,2,1.4111,1.9756,incongruent,left,,,,,,stimulusFile/magnitude.xlsx,,,,,,,,,,,,,,,,,,,,,,,,,,,,,,,
,,,,,,,,,,,,,,,792,2022-01-28_22h30.55.422,multiplicationStroop,2021.2.3,Win32,60.15399423,,,,,right,1,0.7878,0,55,55,33,1,2,4,2 | 4,2,1.9756,1.4111,incongruent,right,,,,,,stimulusFile/magnitude.xlsx,,,,,,,,,,,,,,,,,,,,,,,,,,,,,,,
,,,,,,,,,,,,,,,792,2022-01-28_22h30.55.422,multiplicationStroop,2021.2.3,Win32,60.15399423,,,,,left,1,0.6205,0,56,56,61,1,4,2,4 | 2,2,1.6933,1.6933,neutral,left,,,,,,stimulusFile/magnitude.xlsx,,,,,,,,,,,,,,,,,,,,,,,,,,,,,,,
,,,,,,,,,,,,,,,792,2022-01-28_22h30.55.422,multiplicationStroop,2021.2.3,Win32,60.15399423,,,,,left,1,0.6696,0,57,57,55,1,9,8,9 | 8,1,1.6933,1.6933,neutral,left,,,,,,stimulusFile/magnitude.xlsx,,,,,,,,,,,,,,,,,,,,,,,,,,,,,,,
,,,,,,,,,,,,,,,792,2022-01-28_22h30.55.422,multiplicationStroop,2021.2.3,Win32,60.15399423,,,,,right,1,0.5225,0,58,58,2,1,6,7,6 | 7,1,1.4111,1.9756,congruent,right,,,,,,stimulusFile/magnitude.xlsx,,,,,,,,,,,,,,,,,,,,,,,,,,,,,,,
,,,,,,,,,,,,,,,792,2022-01-28_22h30.55.422,multiplicationStroop,2021.2.3,Win32,60.15399423,,,,,right,1,0.6081,0,59,59,66,1,3,8,3 | 8,5,1.6933,1.6933,neutral,right,,,,,,stimulusFile/magnitude.xlsx,,,,,,,,,,,,,,,,,,,,,,,,,,,,,,,
,,,,,,,,,,,,,,,792,2022-01-28_22h30.55.422,multiplicationStroop,2021.2.3,Win32,60.15399423,,,,,left,1,0.6342,0,60,60,6,1,7,6,7 | 6,1,1.9756,1.4111,congruent,left,,,,,,stimulusFile/magnitude.xlsx,,,,,,,,,,,,,,,,,,,,,,,,,,,,,,,
,,,,,,,,,,,,,,,792,2022-01-28_22h30.55.422,multiplicationStroop,2021.2.3,Win32,60.15399423,,,,,left,0,0.4933,0,61,61,27,1,8,9,8 | 9,1,1.9756,1.4111,incongruent,right,,,,,,stimulusFile/magnitude.xlsx,,,,,,,,,,,,,,,,,,,,,,,,,,,,,,,
,,,,,,,,,,,,,,,792,2022-01-28_22h30.55.422,multiplicationStroop,2021.2.3,Win32,60.15399423,,,,,right,1,1.0347,0,62,62,49,1,3,4,3 | 4,1,1.6933,1.6933,neutral,right,,,,,,stimulusFile/magnitude.xlsx,,,,,,,,,,,,,,,,,,,,,,,,,,,,,,,
,,,,,,,,,,,,,,,792,2022-01-28_22h30.55.422,multiplicationStroop,2021.2.3,Win32,60.15399423,,,,,left,1,0.5723,0,63,63,20,1,6,1,6 | 1,5,1.9756,1.4111,congruent,left,,,,,,stimulusFile/magnitude.xlsx,,,,,,,,,,,,,,,,,,,,,,,,,,,,,,,
,,,,,,,,,,,,,,,792,2022-01-28_22h30.55.422,multiplicationStroop,2021.2.3,Win32,60.15399423,,,,,left,1,0.5672,0,64,64,69,1,7,2,7 | 2,5,1.6933,1.6933,neutral,left,,,,,,stimulusFile/magnitude.xlsx,,,,,,,,,,,,,,,,,,,,,,,,,,,,,,,
,,,,,,,,,,,,,,,792,2022-01-28_22h30.55.422,multiplicationStroop,2021.2.3,Win32,60.15399423,,,,,right,1,0.7507,0,65,65,25,1,3,4,3 | 4,1,1.9756,1.4111,incongruent,right,,,,,,stimulusFile/magnitude.xlsx,,,,,,,,,,,,,,,,,,,,,,,,,,,,,,,
,,,,,,,,,,,,,,,792,2022-01-28_22h30.55.422,multiplicationStroop,2021.2.3,Win32,60.15399423,,,,,left,1,0.7517,0,66,66,36,1,3,1,3 | 1,2,1.4111,1.9756,incongruent,left,,,,,,stimulusFile/magnitude.xlsx,,,,,,,,,,,,,,,,,,,,,,,,,,,,,,,
,,,,,,,,,,,,,,,792,2022-01-28_22h30.55.422,multiplicationStroop,2021.2.3,Win32,60.15399423,,,,,right,1,0.6213,0,67,67,9,1,2,4,2 | 4,2,1.4111,1.9756,congruent,right,,,,,,stimulusFile/magnitude.xlsx,,,,,,,,,,,,,,,,,,,,,,,,,,,,,,,
,,,,,,,,,,,,,,,792,2022-01-28_22h30.55.422,multiplicationStroop,2021.2.3,Win32,60.15399423,,,,,right,1,0.7351,0,68,68,10,1,6,8,6 | 8,2,1.4111,1.9756,congruent,right,,,,,,stimulusFile/magnitude.xlsx,,,,,,,,,,,,,,,,,,,,,,,,,,,,,,,
,,,,,,,,,,,,,,,792,2022-01-28_22h30.55.422,multiplicationStroop,2021.2.3,Win32,60.15399423,,,,,right,1,0.7244,0,69,69,42,1,3,8,3 | 8,5,1.9756,1.4111,incongruent,right,,,,,,stimulusFile/magnitude.xlsx,,,,,,,,,,,,,,,,,,,,,,,,,,,,,,,
,,,,,,,,,,,,,,,792,2022-01-28_22h30.55.422,multiplicationStroop,2021.2.3,Win32,60.15399423,,,,,right,1,0.5521,0,70,70,67,1,4,9,4 | 9,5,1.6933,1.6933,neutral,right,,,,,,stimulusFile/magnitude.xlsx,,,,,,,,,,,,,,,,,,,,,,,,,,,,,,,
,,,,,,,,,,,,,,,792,2022-01-28_22h30.55.422,multiplicationStroop,2021.2.3,Win32,60.15399423,,,,,left,1,0.6909,0,71,71,37,1,4,2,4 | 2,2,1.4111,1.9756,incongruent,left,,,,,,stimulusFile/magnitude.xlsx,,,,,,,,,,,,,,,,,,,,,,,,,,,,,,,
,,,,,,,,,,,,,,,792,2022-01-28_22h30.55.422,multiplicationStroop,2021.2.3,Win32,60.15399423,,,,,,,,,,,,,,,,,,,,,0,0,0,0,1,stimulusFile/magnitude.xlsx,NUMERICALLY larger (larger coefficient).,images/numericallyLarger.png,,,,,,,,,,,,,,,,,,,,,,,,,,,,,
,,,,,,,,,,,,,,,792,2022-01-28_22h30.55.422,multiplicationStroop,2021.2.3,Win32,60.15399423,space,4.0043,space,3.6929,left,1,0.9137,0,0,0,26,1,6,7,6 | 7,1,1.9756,1.4111,incongruent,left,,,,,,stimulusFile/physical.xlsx,,,,,,,,,,,,,,,,,,,,,,,,,,,,,,,
,,,,,,,,,,,,,,,792,2022-01-28_22h30.55.422,multiplicationStroop,2021.2.3,Win32,60.15399423,,,,,left,1,0.8229,0,1,1,51,1,8,8,8 | 8,0,1.9756,1.4111,neutral,left,,,,,,stimulusFile/physical.xlsx,,,,,,,,,,,,,,,,,,,,,,,,,,,,,,,
,,,,,,,,,,,,,,,792,2022-01-28_22h30.55.422,multiplicationStroop,2021.2.3,Win32,60.15399423,,,,,right,1,0.638,0,2,2,46,1,8,3,8 | 3,5,1.4111,1.9756,incongruent,right,,,,,,stimulusFile/physical.xlsx,,,,,,,,,,,,,,,,,,,,,,,,,,,,,,,
,,,,,,,,,,,,,,,792,2022-01-28_22h30.55.422,multiplicationStroop,2021.2.3,Win32,60.15399423,,,,,right,1,0.603,0,3,3,38,1,8,6,8 | 6,2,1.4111,1.9756,incongruent,right,,,,,,stimulusFile/physical.xlsx,,,,,,,,,,,,,,,,,,,,,,,,,,,,,,,
,,,,,,,,,,,,,,,792,2022-01-28_22h30.55.422,multiplicationStroop,2021.2.3,Win32,60.15399423,,,,,left,1,0.7252,0,4,4,5,1,4,3,4 | 3,1,1.9756,1.4111,congruent,left,,,,,,stimulusFile/physical.xlsx,,,,,,,,,,,,,,,,,,,,,,,,,,,,,,,
,,,,,,,,,,,,,,,792,2022-01-28_22h30.55.422,multiplicationStroop,2021.2.3,Win32,60.15399423,,,,,left,1,0.524,0,5,5,54,1,7,7,7 | 7,0,1.9756,1.4111,neutral,left,,,,,,stimulusFile/physical.xlsx,,,,,,,,,,,,,,,,,,,,,,,,,,,,,,,
,,,,,,,,,,,,,,,792,2022-01-28_22h30.55.422,multiplicationStroop,2021.2.3,Win32,60.15399423,,,,,left,1,0.5403,0,6,6,53,1,4,4,4 | 4,0,1.9756,1.4111,neutral,left,,,,,,stimulusFile/physical.xlsx,,,,,,,,,,,,,,,,,,,,,,,,,,,,,,,
,,,,,,,,,,,,,,,792,2022-01-28_22h30.55.422,multiplicationStroop,2021.2.3,Win32,60.15399423,,,,,left,1,0.678,0,7,7,43,1,4,9,4 | 9,5,1.9756,1.4111,incongruent,left,,,,,,stimulusFile/physical.xlsx,,,,,,,,,,,,,,,,,,,,,,,,,,,,,,,
,,,,,,,,,,,,,,,792,2022-01-28_22h30.55.422,multiplicationStroop,2021.2.3,Win32,60.15399423,,,,,right,1,0.599,0,8,8,45,1,7,2,7 | 2,5,1.4111,1.9756,incongruent,right,,,,,,stimulusFile/physical.xlsx,,,,,,,,,,,,,,,,,,,,,,,,,,,,,,,
,,,,,,,,,,,,,,,792,2022-01-28_22h30.55.422,multiplicationStroop,2021.2.3,Win32,60.15399423,,,,,right,1,1.535,0,9,9,28,1,2,1,2 | 1,1,1.4111,1.9756,incongruent,right,,,,,,stimulusFile/physical.xlsx,,,,,,,,,,,,,,,,,,,,,,,,,,,,,,,
,,,,,,,,,,,,,,,792,2022-01-28_22h30.55.422,multiplicationStroop,2021.2.3,Win32,60.15399423,,,,,right,1,0.7168,0,10,10,44,1,6,1,6 | 1,5,1.4111,1.9756,incongruent,right,,,,,,stimulusFile/physical.xlsx,,,,,,,,,,,,,,,,,,,,,,,,,,,,,,,
,,,,,,,,,,,,,,,792,2022-01-28_22h30.55.422,multiplicationStroop,2021.2.3,Win32,60.15399423,,,,,left,1,0.6853,0,11,11,41,1,2,7,2 | 7,5,1.9756,1.4111,incongruent,left,,,,,,stimulusFile/physical.xlsx,,,,,,,,,,,,,,,,,,,,,,,,,,,,,,,
,,,,,,,,,,,,,,,792,2022-01-28_22h30.55.422,multiplicationStroop,2021.2.3,Win32,60.15399423,,,,,left,1,0.6243,0,12,12,7,1,9,8,9 | 8,1,1.9756,1.4111,congruent,left,,,,,,stimulusFile/physical.xlsx,,,,,,,,,,,,,,,,,,,,,,,,,,,,,,,
,,,,,,,,,,,,,,,792,2022-01-28_22h30.55.422,multiplicationStroop,2021.2.3,Win32,60.15399423,,,,,left,1,0.7019,0,13,13,25,1,3,4,3 | 4,1,1.9756,1.4111,incongruent,left,,,,,,stimulusFile/physical.xlsx,,,,,,,,,,,,,,,,,,,,,,,,,,,,,,,
,,,,,,,,,,,,,,,792,2022-01-28_22h30.55.422,multiplicationStroop,2021.2.3,Win32,60.15399423,,,,,right,1,0.5913,0,14,14,56,1,1,1,1 | 1,0,1.4111,1.9756,neutral,right,,,,,,stimulusFile/physical.xlsx,,,,,,,,,,,,,,,,,,,,,,,,,,,,,,,
,,,,,,,,,,,,,,,792,2022-01-28_22h30.55.422,multiplicationStroop,2021.2.3,Win32,60.15399423,,,,,right,1,0.6009,0,15,15,67,1,4,4,4 | 4,0,1.4111,1.9756,neutral,right,,,,,,stimulusFile/physical.xlsx,,,,,,,,,,,,,,,,,,,,,,,,,,,,,,,
,,,,,,,,,,,,,,,792,2022-01-28_22h30.55.422,multiplicationStroop,2021.2.3,Win32,60.15399423,,,,,right,1,0.809,0,16,16,17,1,2,7,2 | 7,5,1.4111,1.9756,congruent,right,,,,,,stimulusFile/physical.xlsx,,,,,,,,,,,,,,,,,,,,,,,,,,,,,,,
,,,,,,,,,,,,,,,792,2022-01-28_22h30.55.422,multiplicationStroop,2021.2.3,Win32,60.15399423,,,,,left,1,0.7523,0,17,17,50,1,6,6,6 | 6,0,1.9756,1.4111,neutral,left,,,,,,stimulusFile/physical.xlsx,,,,,,,,,,,,,,,,,,,,,,,,,,,,,,,
,,,,,,,,,,,,,,,792,2022-01-28_22h30.55.422,multiplicationStroop,2021.2.3,Win32,60.15399423,,,,,right,1,1.0847,0,18,18,30,1,7,6,7 | 6,1,1.4111,1.9756,incongruent,right,,,,,,stimulusFile/physical.xlsx,,,,,,,,,,,,,,,,,,,,,,,,,,,,,,,
,,,,,,,,,,,,,,,792,2022-01-28_22h30.55.422,multiplicationStroop,2021.2.3,Win32,60.15399423,,,,,right,1,0.5916,0,19,19,2,1,6,7,6 | 7,1,1.4111,1.9756,congruent,right,,,,,,stimulusFile/physical.xlsx,,,,,,,,,,,,,,,,,,,,,,,,,,,,,,,
,,,,,,,,,,,,,,,792,2022-01-28_22h30.55.422,multiplicationStroop,2021.2.3,Win32,60.15399423,,,,,left,1,0.5176,0,20,20,22,1,8,3,8 | 3,5,1.9756,1.4111,congruent,left,,,,,,stimulusFile/physical.xlsx,,,,,,,,,,,,,,,,,,,,,,,,,,,,,,,
,,,,,,,,,,,,,,,792,2022-01-28_22h30.55.422,multiplicationStroop,2021.2.3,Win32,60.15399423,,,,,right,1,0.5697,0,21,21,59,1,7,7,7 | 7,0,1.4111,1.9756,neutral,right,,,,,,stimulusFile/physical.xlsx,,,,,,,,,,,,,,,,,,,,,,,,,,,,,,,
,,,,,,,,,,,,,,,792,2022-01-28_22h30.55.422,multiplicationStroop,2021.2.3,Win32,60.15399423,,,,,left,1,0.6116,0,22,22,48,1,1,1,1 | 1,0,1.9756,1.4111,neutral,left,,,,,,stimulusFile/physical.xlsx,,,,,,,,,,,,,,,,,,,,,,,,,,,,,,,
,,,,,,,,,,,,,,,792,2022-01-28_22h30.55.422,multiplicationStroop,2021.2.3,Win32,60.15399423,,,,,right,1,0.5393,0,23,23,0,1,1,2,1 | 2,1,1.4111,1.9756,congruent,right,,,,,,stimulusFile/physical.xlsx,,,,,,,,,,,,,,,,,,,,,,,,,,,,,,,
,,,,,,,,,,,,,,,792,2022-01-28_22h30.55.422,multiplicationStroop,2021.2.3,Win32,60.15399423,,,,,left,1,0.4901,0,24,24,34,1,6,8,6 | 8,2,1.9756,1.4111,incongruent,left,,,,,,stimulusFile/physical.xlsx,,,,,,,,,,,,,,,,,,,,,,,,,,,,,,,
,,,,,,,,,,,,,,,792,2022-01-28_22h30.55.422,multiplicationStroop,2021.2.3,Win32,60.15399423,,,,,left,0,0.5181,0,25,25,64,1,1,1,1 | 1,0,1.9756,1.4111,neutral,right,,,,,,stimulusFile/physical.xlsx,,,,,,,,,,,,,,,,,,,,,,,,,,,,,,,
,,,,,,,,,,,,,,,792,2022-01-28_22h30.55.422,multiplicationStroop,2021.2.3,Win32,60.15399423,,,,,right,1,0.5842,0,26,26,16,1,1,6,1 | 6,5,1.4111,1.9756,congruent,right,,,,,,stimulusFile/physical.xlsx,,,,,,,,,,,,,,,,,,,,,,,,,,,,,,,
,,,,,,,,,,,,,,,792,2022-01-28_22h30.55.422,multiplicationStroop,2021.2.3,Win32,60.15399423,,,,,right,1,0.6174,0,27,27,58,1,6,6,6 | 6,0,1.4111,1.9756,neutral,right,,,,,,stimulusFile/physical.xlsx,,,,,,,,,,,,,,,,,,,,,,,,,,,,,,,
,,,,,,,,,,,,,,,792,2022-01-28_22h30.55.422,multiplicationStroop,2021.2.3,Win32,60.15399423,,,,,right,1,0.7244,0,28,28,39,1,9,7,9 | 7,2,1.4111,1.9756,incongruent,right,,,,,,stimulusFile/physical.xlsx,,,,,,,,,,,,,,,,,,,,,,,,,,,,,,,
,,,,,,,,,,,,,,,792,2022-01-28_22h30.55.422,multiplicationStroop,2021.2.3,Win32,60.15399423,,,,,left,1,0.5764,0,29,29,40,1,1,6,1 | 6,5,1.9756,1.4111,incongruent,left,,,,,,stimulusFile/physical.xlsx,,,,,,,,,,,,,,,,,,,,,,,,,,,,,,,
,,,,,,,,,,,,,,,792,2022-01-28_22h30.55.422,multiplicationStroop,2021.2.3,Win32,60.15399423,,,,,right,1,0.8715,0,30,30,36,1,3,1,3 | 1,2,1.4111,1.9756,incongruent,right,,,,,,stimulusFile/physical.xlsx,,,,,,,,,,,,,,,,,,,,,,,,,,,,,,,
,,,,,,,,,,,,,,,792,2022-01-28_22h30.55.422,multiplicationStroop,2021.2.3,Win32,60.15399423,,,,,right,1,0.7182,0,31,31,10,1,6,8,6 | 8,2,1.4111,1.9756,congruent,right,,,,,,stimulusFile/physical.xlsx,,,,,,,,,,,,,,,,,,,,,,,,,,,,,,,
,,,,,,,,,,,,,,,792,2022-01-28_22h30.55.422,multiplicationStroop,2021.2.3,Win32,60.15399423,,,,,left,1,0.5344,0,32,32,52,1,2,2,2 | 2,0,1.9756,1.4111,neutral,left,,,,,,stimulusFile/physical.xlsx,,,,,,,,,,,,,,,,,,,,,,,,,,,,,,,
,,,,,,,,,,,,,,,792,2022-01-28_22h30.55.422,multiplicationStroop,2021.2.3,Win32,60.15399423,,,,,right,1,0.5173,0,33,33,19,1,4,9,4 | 9,5,1.4111,1.9756,congruent,right,,,,,,stimulusFile/physical.xlsx,,,,,,,,,,,,,,,,,,,,,,,,,,,,,,,
,,,,,,,,,,,,,,,792,2022-01-28_22h30.55.422,multiplicationStroop,2021.2.3,Win32,60.15399423,,,,,right,1,0.786,0,34,34,29,1,4,3,4 | 3,1,1.4111,1.9756,incongruent,right,,,,,,stimulusFile/physical.xlsx,,,,,,,,,,,,,,,,,,,,,,,,,,,,,,,
,,,,,,,,,,,,,,,792,2022-01-28_22h30.55.422,multiplicationStroop,2021.2.3,Win32,60.15399423,,,,,left,1,0.5854,0,35,35,27,1,8,9,8 | 9,1,1.9756,1.4111,incongruent,left,,,,,,stimulusFile/physical.xlsx,,,,,,,,,,,,,,,,,,,,,,,,,,,,,,,
,,,,,,,,,,,,,,,792,2022-01-28_22h30.55.422,multiplicationStroop,2021.2.3,Win32,60.15399423,,,,,right,1,0.573,0,36,36,63,1,9,9,9 | 9,0,1.4111,1.9756,neutral,right,,,,,,stimulusFile/physical.xlsx,,,,,,,,,,,,,,,,,,,,,,,,,,,,,,,
,,,,,,,,,,,,,,,792,2022-01-28_22h30.55.422,multiplicationStroop,2021.2.3,Win32,60.15399423,,,,,right,1,0.7689,0,37,37,47,1,9,4,9 | 4,5,1.4111,1.9756,incongruent,right,,,,,,stimulusFile/physical.xlsx,,,,,,,,,,,,,,,,,,,,,,,,,,,,,,,
,,,,,,,,,,,,,,,792,2022-01-28_22h30.55.422,multiplicationStroop,2021.2.3,Win32,60.15399423,,,,,right,0,0.6513,0,38,38,71,1,9,9,9 | 9,0,1.4111,1.9756,neutral,left,,,,,,stimulusFile/physical.xlsx,,,,,,,,,,,,,,,,,,,,,,,,,,,,,,,
,,,,,,,,,,,,,,,792,2022-01-28_22h30.55.422,multiplicationStroop,2021.2.3,Win32,60.15399423,,,,,left,1,0.5241,0,39,39,4,1,2,1,2 | 1,1,1.9756,1.4111,congruent,left,,,,,,stimulusFile/physical.xlsx,,,,,,,,,,,,,,,,,,,,,,,,,,,,,,,
,,,,,,,,,,,,,,,792,2022-01-28_22h30.55.422,multiplicationStroop,2021.2.3,Win32,60.15399423,,,,,right,1,0.5845,0,40,40,3,1,8,9,8 | 9,1,1.4111,1.9756,congruent,right,,,,,,stimulusFile/physical.xlsx,,,,,,,,,,,,,,,,,,,,,,,,,,,,,,,
,,,,,,,,,,,,,,,792,2022-01-28_22h30.55.422,multiplicationStroop,2021.2.3,Win32,60.15399423,,,,,right,1,0.6021,0,41,41,11,1,7,9,7 | 9,2,1.4111,1.9756,congruent,right,,,,,,stimulusFile/physical.xlsx,,,,,,,,,,,,,,,,,,,,,,,,,,,,,,,
,,,,,,,,,,,,,,,792,2022-01-28_22h30.55.422,multiplicationStroop,2021.2.3,Win32,60.15399423,,,,,right,0,0.8347,0,42,42,69,1,7,7,7 | 7,0,1.4111,1.9756,neutral,left,,,,,,stimulusFile/physical.xlsx,,,,,,,,,,,,,,,,,,,,,,,,,,,,,,,
,,,,,,,,,,,,,,,792,2022-01-28_22h30.55.422,multiplicationStroop,2021.2.3,Win32,60.15399423,,,,,right,1,0.5669,0,43,43,60,1,3,3,3 | 3,0,1.4111,1.9756,neutral,right,,,,,,stimulusFile/physical.xlsx,,,,,,,,,,,,,,,,,,,,,,,,,,,,,,,
,,,,,,,,,,,,,,,792,2022-01-28_22h30.55.422,multiplicationStroop,2021.2.3,Win32,60.15399423,,,,,right,1,0.5919,0,44,44,57,1,2,2,2 | 2,0,1.4111,1.9756,neutral,right,,,,,,stimulusFile/physical.xlsx,,,,,,,,,,,,,,,,,,,,,,,,,,,,,,,
,,,,,,,,,,,,,,,792,2022-01-28_22h30.55.422,multiplicationStroop,2021.2.3,Win32,60.15399423,,,,,right,1,0.5351,0,45,45,62,1,8,8,8 | 8,0,1.4111,1.9756,neutral,right,,,,,,stimulusFile/physical.xlsx,,,,,,,,,,,,,,,,,,,,,,,,,,,,,,,
,,,,,,,,,,,,,,,792,2022-01-28_22h30.55.422,multiplicationStroop,2021.2.3,Win32,60.15399423,,,,,left,1,0.9262,0,46,46,33,1,2,4,2 | 4,2,1.9756,1.4111,incongruent,left,,,,,,stimulusFile/physical.xlsx,,,,,,,,,,,,,,,,,,,,,,,,,,,,,,,
,,,,,,,,,,,,,,,792,2022-01-28_22h30.55.422,multiplicationStroop,2021.2.3,Win32,60.15399423,,,,,right,1,0.5236,0,47,47,61,1,4,4,4 | 4,0,1.4111,1.9756,neutral,right,,,,,,stimulusFile/physical.xlsx,,,,,,,,,,,,,,,,,,,,,,,,,,,,,,,
,,,,,,,,,,,,,,,792,2022-01-28_22h30.55.422,multiplicationStroop,2021.2.3,Win32,60.15399423,,,,,right,1,0.8061,0,48,48,37,1,4,2,4 | 2,2,1.4111,1.9756,incongruent,right,,,,,,stimulusFile/physical.xlsx,,,,,,,,,,,,,,,,,,,,,,,,,,,,,,,
,,,,,,,,,,,,,,,792,2022-01-28_22h30.55.422,multiplicationStroop,2021.2.3,Win32,60.15399423,,,,,left,1,0.6338,0,49,49,32,1,1,3,1 | 3,2,1.9756,1.4111,incongruent,left,,,,,,stimulusFile/physical.xlsx,,,,,,,,,,,,,,,,,,,,,,,,,,,,,,,
,,,,,,,,,,,,,,,792,2022-01-28_22h30.55.422,multiplicationStroop,2021.2.3,Win32,60.15399423,,,,,left,1,0.6003,0,50,50,42,1,3,8,3 | 8,5,1.9756,1.4111,incongruent,left,,,,,,stimulusFile/physical.xlsx,,,,,,,,,,,,,,,,,,,,,,,,,,,,,,,
,,,,,,,,,,,,,,,792,2022-01-28_22h30.55.422,multiplicationStroop,2021.2.3,Win32,60.15399423,,,,,left,1,0.506,0,51,51,6,1,7,6,7 | 6,1,1.9756,1.4111,congruent,left,,,,,,stimulusFile/physical.xlsx,,,,,,,,,,,,,,,,,,,,,,,,,,,,,,,
,,,,,,,,,,,,,,,792,2022-01-28_22h30.55.422,multiplicationStroop,2021.2.3,Win32,60.15399423,,,,,right,1,0.6921,0,52,52,31,1,9,8,9 | 8,1,1.4111,1.9756,incongruent,right,,,,,,stimulusFile/physical.xlsx,,,,,,,,,,,,,,,,,,,,,,,,,,,,,,,
,,,,,,,,,,,,,,,792,2022-01-28_22h30.55.422,multiplicationStroop,2021.2.3,Win32,60.15399423,,,,,left,1,0.6679,0,53,53,35,1,7,9,7 | 9,2,1.9756,1.4111,incongruent,left,,,,,,stimulusFile/physical.xlsx,,,,,,,,,,,,,,,,,,,,,,,,,,,,,,,
,,,,,,,,,,,,,,,792,2022-01-28_22h30.55.422,multiplicationStroop,2021.2.3,Win32,60.15399423,,,,,left,1,0.5782,0,54,54,20,1,6,1,6 | 1,5,1.9756,1.4111,congruent,left,,,,,,stimulusFile/physical.xlsx,,,,,,,,,,,,,,,,,,,,,,,,,,,,,,,
,,,,,,,,,,,,,,,792,2022-01-28_22h30.55.422,multiplicationStroop,2021.2.3,Win32,60.15399423,,,,,left,1,0.7856,0,55,55,14,1,8,6,8 | 6,2,1.9756,1.4111,congruent,left,,,,,,stimulusFile/physical.xlsx,,,,,,,,,,,,,,,,,,,,,,,,,,,,,,,
,,,,,,,,,,,,,,,792,2022-01-28_22h30.55.422,multiplicationStroop,2021.2.3,Win32,60.15399423,,,,,left,0,0.5729,0,56,56,66,1,3,3,3 | 3,0,1.9756,1.4111,neutral,right,,,,,,stimulusFile/physical.xlsx,,,,,,,,,,,,,,,,,,,,,,,,,,,,,,,
,,,,,,,,,,,,,,,792,2022-01-28_22h30.55.422,multiplicationStroop,2021.2.3,Win32,60.15399423,,,,,right,1,0.5104,0,57,57,8,1,1,3,1 | 3,2,1.4111,1.9756,congruent,right,,,,,,stimulusFile/physical.xlsx,,,,,,,,,,,,,,,,,,,,,,,,,,,,,,,
,,,,,,,,,,,,,,,792,2022-01-28_22h30.55.422,multiplicationStroop,2021.2.3,Win32,60.15399423,,,,,left,1,0.726,0,58,58,24,1,1,2,1 | 2,1,1.9756,1.4111,incongruent,left,,,,,,stimulusFile/physical.xlsx,,,,,,,,,,,,,,,,,,,,,,,,,,,,,,,
,,,,,,,,,,,,,,,792,2022-01-28_22h30.55.422,multiplicationStroop,2021.2.3,Win32,60.15399423,,,,,left,1,0.5683,0,59,59,49,1,3,3,3 | 3,0,1.9756,1.4111,neutral,left,,,,,,stimulusFile/physical.xlsx,,,,,,,,,,,,,,,,,,,,,,,,,,,,,,,
,,,,,,,,,,,,,,,792,2022-01-28_22h30.55.422,multiplicationStroop,2021.2.3,Win32,60.15399423,,,,,left,1,0.9092,0,60,60,68,1,6,6,6 | 6,0,1.9756,1.4111,neutral,left,,,,,,stimulusFile/physical.xlsx,,,,,,,,,,,,,,,,,,,,,,,,,,,,,,,
,,,,,,,,,,,,,,,792,2022-01-28_22h30.55.422,multiplicationStroop,2021.2.3,Win32,60.15399423,,,,,right,1,0.5514,0,61,61,1,1,3,4,3 | 4,1,1.4111,1.9756,congruent,right,,,,,,stimulusFile/physical.xlsx,,,,,,,,,,,,,,,,,,,,,,,,,,,,,,,
,,,,,,,,,,,,,,,792,2022-01-28_22h30.55.422,multiplicationStroop,2021.2.3,Win32,60.15399423,,,,,left,1,0.4718,0,62,62,15,1,9,7,9 | 7,2,1.9756,1.4111,congruent,left,,,,,,stimulusFile/physical.xlsx,,,,,,,,,,,,,,,,,,,,,,,,,,,,,,,
,,,,,,,,,,,,,,,792,2022-01-28_22h30.55.422,multiplicationStroop,2021.2.3,Win32,60.15399423,,,,,right,1,0.4675,0,63,63,65,1,2,2,2 | 2,0,1.4111,1.9756,neutral,right,,,,,,stimulusFile/physical.xlsx,,,,,,,,,,,,,,,,,,,,,,,,,,,,,,,
,,,,,,,,,,,,,,,792,2022-01-28_22h30.55.422,multiplicationStroop,2021.2.3,Win32,60.15399423,,,,,left,1,0.4372,0,64,64,23,1,9,4,9 | 4,5,1.9756,1.4111,congruent,left,,,,,,stimulusFile/physical.xlsx,,,,,,,,,,,,,,,,,,,,,,,,,,,,,,,
,,,,,,,,,,,,,,,792,2022-01-28_22h30.55.422,multiplicationStroop,2021.2.3,Win32,60.15399423,,,,,left,1,0.4916,0,65,65,12,1,3,1,3 | 1,2,1.9756,1.4111,congruent,left,,,,,,stimulusFile/physical.xlsx,,,,,,,,,,,,,,,,,,,,,,,,,,,,,,,
,,,,,,,,,,,,,,,792,2022-01-28_22h30.55.422,multiplicationStroop,2021.2.3,Win32,60.15399423,,,,,left,1,0.5001,0,66,66,21,1,7,2,7 | 2,5,1.9756,1.4111,congruent,left,,,,,,stimulusFile/physical.xlsx,,,,,,,,,,,,,,,,,,,,,,,,,,,,,,,
,,,,,,,,,,,,,,,792,2022-01-28_22h30.55.422,multiplicationStroop,2021.2.3,Win32,60.15399423,,,,,left,1,0.59,0,67,67,55,1,9,9,9 | 9,0,1.9756,1.4111,neutral,left,,,,,,stimulusFile/physical.xlsx,,,,,,,,,,,,,,,,,,,,,,,,,,,,,,,
,,,,,,,,,,,,,,,792,2022-01-28_22h30.55.422,multiplicationStroop,2021.2.3,Win32,60.15399423,,,,,right,1,0.5964,0,68,68,18,1,3,8,3 | 8,5,1.4111,1.9756,congruent,right,,,,,,stimulusFile/physical.xlsx,,,,,,,,,,,,,,,,,,,,,,,,,,,,,,,
,,,,,,,,,,,,,,,792,2022-01-28_22h30.55.422,multiplicationStroop,2021.2.3,Win32,60.15399423,,,,,left,1,0.4702,0,69,69,13,1,4,2,4 | 2,2,1.9756,1.4111,congruent,left,,,,,,stimulusFile/physical.xlsx,,,,,,,,,,,,,,,,,,,,,,,,,,,,,,,
,,,,,,,,,,,,,,,792,2022-01-28_22h30.55.422,multiplicationStroop,2021.2.3,Win32,60.15399423,,,,,left,1,0.5084,0,70,70,70,1,8,8,8 | 8,0,1.9756,1.4111,neutral,left,,,,,,stimulusFile/physical.xlsx,,,,,,,,,,,,,,,,,,,,,,,,,,,,,,,
,,,,,,,,,,,,,,,792,2022-01-28_22h30.55.422,multiplicationStroop,2021.2.3,Win32,60.15399423,,,,,right,1,0.503,0,71,71,9,1,2,4,2 | 4,2,1.4111,1.9756,congruent,right,,,,,,stimulusFile/physical.xlsx,,,,,,,,,,,,,,,,,,,,,,,,,,,,,,,
,,,,,,,,,,,,,,,792,2022-01-28_22h30.55.422,multiplicationStroop,2021.2.3,Win32,60.15399423,,,,,,,,,,,,,,,,,,,,,0,1,1,1,1,stimulusFile/physical.xlsx,PHYSICALLY larger (larger font size).,images/physicallyLarger.png,,,,,,,,,,,,,,,,,,,,,,,,,,,,,
,,,,,,,,,,,,,,,792,2022-01-28_22h30.55.422,multiplicationStroop,2021.2.3,Win32,60.15399423,,,,,,,,,,,,,,,,,,,,,,,,,,,,,space,86.1035,space,2.9259,63,6.7019,1,0,0,0,3,1,7,×,9,7 × 9,incongruent,smallerFirst,2,1,63,,,,,,,,
,,,,,,,,,,,,,,,792,2022-01-28_22h30.55.422,multiplicationStroop,2021.2.3,Win32,60.15399423,,,,,,,,,,,,,,,,,,,,,,,,,,,,,,,,,18,2.9076,1,0,1,1,2,1,2,×,9,2 × 9,incongruent,smallerFirst,2,1,18,,,,,,,,
,,,,,,,,,,,,,,,792,2022-01-28_22h30.55.422,multiplicationStroop,2021.2.3,Win32,60.15399423,,,,,,,,,,,,,,,,,,,,,,,,,,,,,,,,,9,1.8651,1,0,2,2,29,1,3,×,3,3 × 3,incongruent,tie,1,2,9,,,,,,,,
,,,,,,,,,,,,,,,792,2022-01-28_22h30.55.422,multiplicationStroop,2021.2.3,Win32,60.15399423,,,,,,,,,,,,,,,,,,,,,,,,,,,,,,,,,64,2.6981,1,0,3,3,34,1,8,×,8,8 × 8,incongruent,tie,1,2,64,,,,,,,,
,,,,,,,,,,,,,,,792,2022-01-28_22h30.55.422,multiplicationStroop,2021.2.3,Win32,60.15399423,,,,,,,,,,,,,,,,,,,,,,,,,,,,,,,,,15,1.7007,1,0,4,4,10,1,3,×,5,3 × 5,incongruent,smallerFirst,2,1,15,,,,,,,,
,,,,,,,,,,,,,,,792,2022-01-28_22h30.55.422,multiplicationStroop,2021.2.3,Win32,60.15399423,,,,,,,,,,,,,,,,,,,,,,,,,,,,,,,,,30,3.182,1,0,5,5,25,1,6,×,5,6 × 5,incongruent,largerFirst,1,2,30,,,,,,,,
,,,,,,,,,,,,,,,792,2022-01-28_22h30.55.422,multiplicationStroop,2021.2.3,Win32,60.15399423,,,,,,,,,,,,,,,,,,,,,,,,,,,,,,,,,36,2.3859,1,0,6,6,15,1,9,×,4,9 × 4,incongruent,largerFirst,1,2,36,,,,,,,,
,,,,,,,,,,,,,,,792,2022-01-28_22h30.55.422,multiplicationStroop,2021.2.3,Win32,60.15399423,,,,,,,,,,,,,,,,,,,,,,,,,,,,,,,,,12,1.4164,1,0,7,7,5,1,3,×,4,3 × 4,incongruent,smallerFirst,2,1,12,,,,,,,,
,,,,,,,,,,,,,,,792,2022-01-28_22h30.55.422,multiplicationStroop,2021.2.3,Win32,60.15399423,,,,,,,,,,,,,,,,,,,,,,,,,,,,,,,,,21,1.5655,1,0,8,8,26,1,7,×,3,7 × 3,incongruent,largerFirst,1,2,21,,,,,,,,
,,,,,,,,,,,,,,,792,2022-01-28_22h30.55.422,multiplicationStroop,2021.2.3,Win32,60.15399423,,,,,,,,,,,,,,,,,,,,,,,,,,,,,,,,,40,1.8485,1,0,9,9,13,1,5,×,8,5 × 8,incongruent,smallerFirst,2,1,40,,,,,,,,
,,,,,,,,,,,,,,,792,2022-01-28_22h30.55.422,multiplicationStroop,2021.2.3,Win32,60.15399423,,,,,,,,,,,,,,,,,,,,,,,,,,,,,,,,,46,2.9998,0,0,10,10,1,1,6,×,8,6 × 8,incongruent,smallerFirst,2,1,48,,,,,,,,
,,,,,,,,,,,,,,,792,2022-01-28_22h30.55.422,multiplicationStroop,2021.2.3,Win32,60.15399423,,,,,,,,,,,,,,,,,,,,,,,,,,,,,,,,,27,3.4696,1,0,11,11,18,1,9,×,3,9 × 3,incongruent,largerFirst,1,2,27,,,,,,,,
,,,,,,,,,,,,,,,792,2022-01-28_22h30.55.422,multiplicationStroop,2021.2.3,Win32,60.15399423,,,,,,,,,,,,,,,,,,,,,,,,,,,,,,,,,81,2.3322,1,0,12,12,35,1,9,×,9,9 × 9,incongruent,tie,1,2,81,,,,,,,,
,,,,,,,,,,,,,,,792,2022-01-28_22h30.55.422,multiplicationStroop,2021.2.3,Win32,60.15399423,,,,,,,,,,,,,,,,,,,,,,,,,,,,,,,,,18,2.2029,1,0,13,13,8,1,3,×,6,3 × 6,incongruent,smallerFirst,2,1,18,,,,,,,,
,,,,,,,,,,,,,,,792,2022-01-28_22h30.55.422,multiplicationStroop,2021.2.3,Win32,60.15399423,,,,,,,,,,,,,,,,,,,,,,,,,,,,,,,,,28,2.9661,1,0,14,14,16,1,7,×,4,7 × 4,incongruent,largerFirst,1,2,28,,,,,,,,
,,,,,,,,,,,,,,,792,2022-01-28_22h30.55.422,multiplicationStroop,2021.2.3,Win32,60.15399423,,,,,,,,,,,,,,,,,,,,,,,,,,,,,,,,,8,1.8824,1,0,15,15,24,1,4,×,2,4 × 2,incongruent,largerFirst,1,2,8,,,,,,,,
,,,,,,,,,,,,,,,792,2022-01-28_22h30.55.422,multiplicationStroop,2021.2.3,Win32,60.15399423,,,,,,,,,,,,,,,,,,,,,,,,,,,,,,,,,24,2.7331,1,0,16,16,9,1,3,×,8,3 × 8,incongruent,smallerFirst,2,1,24,,,,,,,,
,,,,,,,,,,,,,,,792,2022-01-28_22h30.55.422,multiplicationStroop,2021.2.3,Win32,60.15399423,,,,,,,,,,,,,,,,,,,,,,,,,,,,,,,,,16,2.1662,1,0,17,17,23,1,8,×,2,8 × 2,incongruent,largerFirst,1,2,16,,,,,,,,
,,,,,,,,,,,,,,,792,2022-01-28_22h30.55.422,multiplicationStroop,2021.2.3,Win32,60.15399423,,,,,,,,,,,,,,,,,,,,,,,,,,,,,,,,,36,1.9317,1,0,18,18,32,1,6,×,6,6 × 6,incongruent,tie,1,2,36,,,,,,,,
,,,,,,,,,,,,,,,792,2022-01-28_22h30.55.422,multiplicationStroop,2021.2.3,Win32,60.15399423,,,,,,,,,,,,,,,,,,,,,,,,,,,,,,,,,16,2.032,1,0,19,19,30,1,4,×,4,4 × 4,incongruent,tie,1,2,16,,,,,,,,
,,,,,,,,,,,,,,,792,2022-01-28_22h30.55.422,multiplicationStroop,2021.2.3,Win32,60.15399423,,,,,,,,,,,,,,,,,,,,,,,,,,,,,,,,,35,2.0005,1,0,20,20,12,1,5,×,7,5 × 7,incongruent,smallerFirst,2,1,35,,,,,,,,
,,,,,,,,,,,,,,,792,2022-01-28_22h30.55.422,multiplicationStroop,2021.2.3,Win32,60.15399423,,,,,,,,,,,,,,,,,,,,,,,,,,,,,,,,,45,1.6815,1,0,21,21,22,1,9,×,5,9 × 5,incongruent,largerFirst,1,2,45,,,,,,,,
,,,,,,,,,,,,,,,792,2022-01-28_22h30.55.422,multiplicationStroop,2021.2.3,Win32,60.15399423,,,,,,,,,,,,,,,,,,,,,,,,,,,,,,,,,12,1.4502,1,0,22,22,19,1,6,×,2,6 × 2,incongruent,largerFirst,1,2,12,,,,,,,,
,,,,,,,,,,,,,,,792,2022-01-28_22h30.55.422,multiplicationStroop,2021.2.3,Win32,60.15399423,,,,,,,,,,,,,,,,,,,,,,,,,,,,,,,,,32,1.5698,1,0,23,23,7,1,4,×,8,4 × 8,incongruent,smallerFirst,2,1,32,,,,,,,,
,,,,,,,,,,,,,,,792,2022-01-28_22h30.55.422,multiplicationStroop,2021.2.3,Win32,60.15399423,,,,,,,,,,,,,,,,,,,,,,,,,,,,,,,,,14,1.5952,1,0,24,24,4,1,2,×,7,2 × 7,incongruent,smallerFirst,2,1,14,,,,,,,,
,,,,,,,,,,,,,,,792,2022-01-28_22h30.55.422,multiplicationStroop,2021.2.3,Win32,60.15399423,,,,,,,,,,,,,,,,,,,,,,,,,,,,,,,,,49,1.9334,1,0,25,25,33,1,7,×,7,7 × 7,incongruent,tie,1,2,49,,,,,,,,
,,,,,,,,,,,,,,,792,2022-01-28_22h30.55.422,multiplicationStroop,2021.2.3,Win32,60.15399423,,,,,,,,,,,,,,,,,,,,,,,,,,,,,,,,,20,1.8497,1,0,26,26,27,1,5,×,4,5 × 4,incongruent,largerFirst,1,2,20,,,,,,,,
,,,,,,,,,,,,,,,792,2022-01-28_22h30.55.422,multiplicationStroop,2021.2.3,Win32,60.15399423,,,,,,,,,,,,,,,,,,,,,,,,,,,,,,,,,10,1.8824,1,0,27,27,21,1,5,×,2,5 × 2,incongruent,largerFirst,1,2,10,,,,,,,,
,,,,,,,,,,,,,,,792,2022-01-28_22h30.55.422,multiplicationStroop,2021.2.3,Win32,60.15399423,,,,,,,,,,,,,,,,,,,,,,,,,,,,,,,,,24,2.0664,1,0,28,28,20,1,6,×,4,6 × 4,incongruent,largerFirst,1,2,24,,,,,,,,
,,,,,,,,,,,,,,,792,2022-01-28_22h30.55.422,multiplicationStroop,2021.2.3,Win32,60.15399423,,,,,,,,,,,,,,,,,,,,,,,,,,,,,,,,,42,2.4828,1,0,29,29,17,1,7,×,6,7 × 6,incongruent,largerFirst,1,2,42,,,,,,,,
,,,,,,,,,,,,,,,792,2022-01-28_22h30.55.422,multiplicationStroop,2021.2.3,Win32,60.15399423,,,,,,,,,,,,,,,,,,,,,,,,,,,,,,,,,6,1.7353,1,0,30,30,11,1,2,×,3,2 × 3,incongruent,smallerFirst,2,1,6,,,,,,,,
,,,,,,,,,,,,,,,792,2022-01-28_22h30.55.422,multiplicationStroop,2021.2.3,Win32,60.15399423,,,,,,,,,,,,,,,,,,,,,,,,,,,,,,,,,25,1.9155,1,0,31,31,31,1,5,×,5,5 × 5,incongruent,tie,1,2,25,,,,,,,,
,,,,,,,,,,,,,,,792,2022-01-28_22h30.55.422,multiplicationStroop,2021.2.3,Win32,60.15399423,,,,,,,,,,,,,,,,,,,,,,,,,,,,,,,,,72,4.0505,1,0,32,32,0,1,8,×,9,8 × 9,incongruent,smallerFirst,2,1,72,,,,,,,,
,,,,,,,,,,,,,,,792,2022-01-28_22h30.55.422,multiplicationStroop,2021.2.3,Win32,60.15399423,,,,,,,,,,,,,,,,,,,,,,,,,,,,,,,,,54,1.9681,1,0,33,33,6,1,6,×,9,6 × 9,incongruent,smallerFirst,2,1,54,,,,,,,,
,,,,,,,,,,,,,,,792,2022-01-28_22h30.55.422,multiplicationStroop,2021.2.3,Win32,60.15399423,,,,,,,,,,,,,,,,,,,,,,,,,,,,,,,,,56,3.0494,1,0,34,34,14,1,8,×,7,8 × 7,incongruent,largerFirst,1,2,56,,,,,,,,
,,,,,,,,,,,,,,,792,2022-01-28_22h30.55.422,multiplicationStroop,2021.2.3,Win32,60.15399423,,,,,,,,,,,,,,,,,,,,,,,,,,,,,,,,,4,1.4481,1,0,35,35,28,1,2,×,2,2 × 2,incongruent,tie,1,2,4,,,,,,,,
,,,,,,,,,,,,,,,792,2022-01-28_22h30.55.422,multiplicationStroop,2021.2.3,Win32,60.15399423,,,,,,,,,,,,,,,,,,,,,,,,,,,,,,,,,,,,,,,,,,,,,,,,,,0,0,0,5,1,stimulusFile/mult_blk6_INcongruent.xlsx,,
,,,,,,,,,,,,,,,792,2022-01-28_22h30.55.422,multiplicationStroop,2021.2.3,Win32,60.15399423,,,,,,,,,,,,,,,,,,,,,,,,,,,,,,,space,4.1209,6,2.2947,1,0,0,0,12,1,2,×,3,2 × 3,neutral,smallerFirst,1.5,1.5,6,,,,,,,,
,,,,,,,,,,,,,,,792,2022-01-28_22h30.55.422,multiplicationStroop,2021.2.3,Win32,60.15399423,,,,,,,,,,,,,,,,,,,,,,,,,,,,,,,,,45,1.7985,1,0,1,1,24,1,9,×,5,9 × 5,neutral,largerFirst,1.5,1.5,45,,,,,,,,
,,,,,,,,,,,,,,,792,2022-01-28_22h30.55.422,multiplicationStroop,2021.2.3,Win32,60.15399423,,,,,,,,,,,,,,,,,,,,,,,,,,,,,,,,,9,1.6986,1,0,2,2,29,1,3,×,3,3 × 3,neutral,tie,1.5,1.5,9,,,,,,,,
,,,,,,,,,,,,,,,792,2022-01-28_22h30.55.422,multiplicationStroop,2021.2.3,Win32,60.15399423,,,,,,,,,,,,,,,,,,,,,,,,,,,,,,,,,30,2.0836,1,0,3,3,5,1,5,×,6,5 × 6,neutral,smallerFirst,1.5,1.5,30,,,,,,,,
,,,,,,,,,,,,,,,792,2022-01-28_22h30.55.422,multiplicationStroop,2021.2.3,Win32,60.15399423,,,,,,,,,,,,,,,,,,,,,,,,,,,,,,,,,24,1.5837,1,0,4,4,16,1,6,×,4,6 × 4,neutral,largerFirst,1.5,1.5,24,,,,,,,,
,,,,,,,,,,,,,,,792,2022-01-28_22h30.55.422,multiplicationStroop,2021.2.3,Win32,60.15399423,,,,,,,,,,,,,,,,,,,,,,,,,,,,,,,,,28,2.1332,1,0,5,5,3,1,4,×,7,4 × 7,neutral,smallerFirst,1.5,1.5,28,,,,,,,,
,,,,,,,,,,,,,,,792,2022-01-28_22h30.55.422,multiplicationStroop,2021.2.3,Win32,60.15399423,,,,,,,,,,,,,,,,,,,,,,,,,,,,,,,,,42,3.601,1,0,6,6,20,1,7,×,6,7 × 6,neutral,largerFirst,1.5,1.5,42,,,,,,,,
,,,,,,,,,,,,,,,792,2022-01-28_22h30.55.422,multiplicationStroop,2021.2.3,Win32,60.15399423,,,,,,,,,,,,,,,,,,,,,,,,,,,,,,,,,21,1.3493,1,0,7,7,22,1,7,×,3,7 × 3,neutral,largerFirst,1.5,1.5,21,,,,,,,,
,,,,,,,,,,,,,,,792,2022-01-28_22h30.55.422,multiplicationStroop,2021.2.3,Win32,60.15399423,,,,,,,,,,,,,,,,,,,,,,,,,,,,,,,,,24,2.8008,1,0,8,8,8,1,3,×,8,3 × 8,neutral,smallerFirst,1.5,1.5,24,,,,,,,,
,,,,,,,,,,,,,,,792,2022-01-28_22h30.55.422,multiplicationStroop,2021.2.3,Win32,60.15399423,,,,,,,,,,,,,,,,,,,,,,,,,,,,,,,,,49,1.7688,1,0,9,9,33,1,7,×,7,7 × 7,neutral,tie,1.5,1.5,49,,,,,,,,
,,,,,,,,,,,,,,,792,2022-01-28_22h30.55.422,multiplicationStroop,2021.2.3,Win32,60.15399423,,,,,,,,,,,,,,,,,,,,,,,,,,,,,,,,,64,1.8171,1,0,10,10,34,1,8,×,8,8 × 8,neutral,tie,1.5,1.5,64,,,,,,,,
,,,,,,,,,,,,,,,792,2022-01-28_22h30.55.422,multiplicationStroop,2021.2.3,Win32,60.15399423,,,,,,,,,,,,,,,,,,,,,,,,,,,,,,,,,12,1.4334,1,0,11,11,7,1,3,×,4,3 × 4,neutral,smallerFirst,1.5,1.5,12,,,,,,,,
,,,,,,,,,,,,,,,792,2022-01-28_22h30.55.422,multiplicationStroop,2021.2.3,Win32,60.15399423,,,,,,,,,,,,,,,,,,,,,,,,,,,,,,,,,72,2.3499,1,0,12,12,25,1,9,×,8,9 × 8,neutral,largerFirst,1.5,1.5,72,,,,,,,,
,,,,,,,,,,,,,,,792,2022-01-28_22h30.55.422,multiplicationStroop,2021.2.3,Win32,60.15399423,,,,,,,,,,,,,,,,,,,,,,,,,,,,,,,,,10,1.9502,1,0,13,13,18,1,5,×,2,5 × 2,neutral,largerFirst,1.5,1.5,10,,,,,,,,
,,,,,,,,,,,,,,,792,2022-01-28_22h30.55.422,multiplicationStroop,2021.2.3,Win32,60.15399423,,,,,,,,,,,,,,,,,,,,,,,,,,,,,,,,,18,1.9834,1,0,14,14,14,1,6,×,3,6 × 3,neutral,largerFirst,1.5,1.5,18,,,,,,,,
,,,,,,,,,,,,,,,792,2022-01-28_22h30.55.422,multiplicationStroop,2021.2.3,Win32,60.15399423,,,,,,,,,,,,,,,,,,,,,,,,,,,,,,,,,36,2.0662,1,0,15,15,32,1,6,×,6,6 × 6,neutral,tie,1.5,1.5,36,,,,,,,,
,,,,,,,,,,,,,,,792,2022-01-28_22h30.55.422,multiplicationStroop,2021.2.3,Win32,60.15399423,,,,,,,,,,,,,,,,,,,,,,,,,,,,,,,,,36,2.6004,1,0,16,16,13,1,4,×,9,4 × 9,neutral,smallerFirst,1.5,1.5,36,,,,,,,,
,,,,,,,,,,,,,,,792,2022-01-28_22h30.55.422,multiplicationStroop,2021.2.3,Win32,60.15399423,,,,,,,,,,,,,,,,,,,,,,,,,,,,,,,,,54,1.8529,1,0,17,17,21,1,9,×,6,9 × 6,neutral,largerFirst,1.5,1.5,54,,,,,,,,
,,,,,,,,,,,,,,,792,2022-01-28_22h30.55.422,multiplicationStroop,2021.2.3,Win32,60.15399423,,,,,,,,,,,,,,,,,,,,,,,,,,,,,,,,,18,1.9996,1,0,18,18,4,1,2,×,9,2 × 9,neutral,smallerFirst,1.5,1.5,18,,,,,,,,
,,,,,,,,,,,,,,,792,2022-01-28_22h30.55.422,multiplicationStroop,2021.2.3,Win32,60.15399423,,,,,,,,,,,,,,,,,,,,,,,,,,,,,,,,,48,3.5008,1,0,19,19,1,1,6,×,8,6 × 8,neutral,smallerFirst,1.5,1.5,48,,,,,,,,
,,,,,,,,,,,,,,,792,2022-01-28_22h30.55.422,multiplicationStroop,2021.2.3,Win32,60.15399423,,,,,,,,,,,,,,,,,,,,,,,,,,,,,,,,,63,2.7513,1,0,20,20,26,1,9,×,7,9 × 7,neutral,largerFirst,1.5,1.5,63,,,,,,,,
,,,,,,,,,,,,,,,792,2022-01-28_22h30.55.422,multiplicationStroop,2021.2.3,Win32,60.15399423,,,,,,,,,,,,,,,,,,,,,,,,,,,,,,,,,12,1.9367,1,0,21,21,11,1,2,×,6,2 × 6,neutral,smallerFirst,1.5,1.5,12,,,,,,,,
,,,,,,,,,,,,,,,792,2022-01-28_22h30.55.422,multiplicationStroop,2021.2.3,Win32,60.15399423,,,,,,,,,,,,,,,,,,,,,,,,,,,,,,,,,40,1.898,1,0,22,22,10,1,5,×,8,5 × 8,neutral,smallerFirst,1.5,1.5,40,,,,,,,,
,,,,,,,,,,,,,,,792,2022-01-28_22h30.55.422,multiplicationStroop,2021.2.3,Win32,60.15399423,,,,,,,,,,,,,,,,,,,,,,,,,,,,,,,,,4,1.4001,1,0,23,23,28,1,2,×,2,2 × 2,neutral,tie,1.5,1.5,4,,,,,,,,
,,,,,,,,,,,,,,,792,2022-01-28_22h30.55.422,multiplicationStroop,2021.2.3,Win32,60.15399423,,,,,,,,,,,,,,,,,,,,,,,,,,,,,,,,,14,2.1151,1,0,24,24,2,1,2,×,7,2 × 7,neutral,smallerFirst,1.5,1.5,14,,,,,,,,
,,,,,,,,,,,,,,,792,2022-01-28_22h30.55.422,multiplicationStroop,2021.2.3,Win32,60.15399423,,,,,,,,,,,,,,,,,,,,,,,,,,,,,,,,,32,1.9007,1,0,25,25,9,1,4,×,8,4 × 8,neutral,smallerFirst,1.5,1.5,32,,,,,,,,
,,,,,,,,,,,,,,,792,2022-01-28_22h30.55.422,multiplicationStroop,2021.2.3,Win32,60.15399423,,,,,,,,,,,,,,,,,,,,,,,,,,,,,,,,,16,3.8492,1,0,26,26,30,1,4,×,4,4 × 4,neutral,tie,1.5,1.5,16,,,,,,,,
,,,,,,,,,,,,,,,792,2022-01-28_22h30.55.422,multiplicationStroop,2021.2.3,Win32,60.15399423,,,,,,,,,,,,,,,,,,,,,,,,,,,,,,,,,20,1.8353,1,0,27,27,6,1,4,×,5,4 × 5,neutral,smallerFirst,1.5,1.5,20,,,,,,,,
,,,,,,,,,,,,,,,792,2022-01-28_22h30.55.422,multiplicationStroop,2021.2.3,Win32,60.15399423,,,,,,,,,,,,,,,,,,,,,,,,,,,,,,,,,35,1.6656,1,0,28,28,15,1,7,×,5,7 × 5,neutral,largerFirst,1.5,1.5,35,,,,,,,,
,,,,,,,,,,,,,,,792,2022-01-28_22h30.55.422,multiplicationStroop,2021.2.3,Win32,60.15399423,,,,,,,,,,,,,,,,,,,,,,,,,,,,,,,,,81,4.567,1,0,29,29,35,1,9,×,9,9 × 9,neutral,tie,1.5,1.5,81,,,,,,,,
,,,,,,,,,,,,,,,792,2022-01-28_22h30.55.422,multiplicationStroop,2021.2.3,Win32,60.15399423,,,,,,,,,,,,,,,,,,,,,,,,,,,,,,,,,15,2.769,1,0,30,30,19,1,5,×,3,5 × 3,neutral,largerFirst,1.5,1.5,15,,,,,,,,
,,,,,,,,,,,,,,,792,2022-01-28_22h30.55.422,multiplicationStroop,2021.2.3,Win32,60.15399423,,,,,,,,,,,,,,,,,,,,,,,,,,,,,,,,,25,1.6679,1,0,31,31,31,1,5,×,5,5 × 5,neutral,tie,1.5,1.5,25,,,,,,,,
,,,,,,,,,,,,,,,792,2022-01-28_22h30.55.422,multiplicationStroop,2021.2.3,Win32,60.15399423,,,,,,,,,,,,,,,,,,,,,,,,,,,,,,,,,56,1.7832,1,0,32,32,23,1,8,×,7,8 × 7,neutral,largerFirst,1.5,1.5,56,,,,,,,,
,,,,,,,,,,,,,,,792,2022-01-28_22h30.55.422,multiplicationStroop,2021.2.3,Win32,60.15399423,,,,,,,,,,,,,,,,,,,,,,,,,,,,,,,,,16,1.9157,1,0,33,33,27,1,8,×,2,8 × 2,neutral,largerFirst,1.5,1.5,16,,,,,,,,
,,,,,,,,,,,,,,,792,2022-01-28_22h30.55.422,multiplicationStroop,2021.2.3,Win32,60.15399423,,,,,,,,,,,,,,,,,,,,,,,,,,,,,,,,,27,2.0997,1,0,34,34,0,1,3,×,9,3 × 9,neutral,smallerFirst,1.5,1.5,27,,,,,,,,
,,,,,,,,,,,,,,,792,2022-01-28_22h30.55.422,multiplicationStroop,2021.2.3,Win32,60.15399423,,,,,,,,,,,,,,,,,,,,,,,,,,,,,,,,,8,3.4331,1,0,35,35,17,1,4,×,2,4 × 2,neutral,largerFirst,1.5,1.5,8,,,,,,,,
,,,,,,,,,,,,,,,792,2022-01-28_22h30.55.422,multiplicationStroop,2021.2.3,Win32,60.15399423,,,,,,,,,,,,,,,,,,,,,,,,,,,,,,,,,,,,,,,,,,,,,,,,,,0,1,1,0,1,stimulusFile/mult_blk1.xlsx,,
,,,,,,,,,,,,,,,792,2022-01-28_22h30.55.422,multiplicationStroop,2021.2.3,Win32,60.15399423,,,,,,,,,,,,,,,,,,,,,,,,,,,,,,,space,4.8672,36,2.7319,1,0,0,0,27,1,9,×,4,9 × 4,neutral,largerFirst,1.5,1.5,36,,,,,,,,
,,,,,,,,,,,,,,,792,2022-01-28_22h30.55.422,multiplicationStroop,2021.2.3,Win32,60.15399423,,,,,,,,,,,,,,,,,,,,,,,,,,,,,,,,,9,1.5186,1,0,1,1,29,1,3,×,3,3 × 3,neutral,tie,1.5,1.5,9,,,,,,,,
,,,,,,,,,,,,,,,792,2022-01-28_22h30.55.422,multiplicationStroop,2021.2.3,Win32,60.15399423,,,,,,,,,,,,,,,,,,,,,,,,,,,,,,,,,18,2,1,0,2,2,18,1,9,×,2,9 × 2,neutral,largerFirst,1.5,1.5,18,,,,,,,,
,,,,,,,,,,,,,,,792,2022-01-28_22h30.55.422,multiplicationStroop,2021.2.3,Win32,60.15399423,,,,,,,,,,,,,,,,,,,,,,,,,,,,,,,,,42,2.0501,1,0,3,3,6,1,6,×,7,6 × 7,neutral,smallerFirst,1.5,1.5,42,,,,,,,,
,,,,,,,,,,,,,,,792,2022-01-28_22h30.55.422,multiplicationStroop,2021.2.3,Win32,60.15399423,,,,,,,,,,,,,,,,,,,,,,,,,,,,,,,,,25,1.533,1,0,4,4,31,1,5,×,5,5 × 5,neutral,tie,1.5,1.5,25,,,,,,,,
,,,,,,,,,,,,,,,792,2022-01-28_22h30.55.422,multiplicationStroop,2021.2.3,Win32,60.15399423,,,,,,,,,,,,,,,,,,,,,,,,,,,,,,,,,16,1.6173,1,0,5,5,30,1,4,×,4,4 × 4,neutral,tie,1.5,1.5,16,,,,,,,,
,,,,,,,,,,,,,,,792,2022-01-28_22h30.55.422,multiplicationStroop,2021.2.3,Win32,60.15399423,,,,,,,,,,,,,,,,,,,,,,,,,,,,,,,,,45,2.033,1,0,6,6,10,1,5,×,9,5 × 9,neutral,smallerFirst,1.5,1.5,45,,,,,,,,
,,,,,,,,,,,,,,,792,2022-01-28_22h30.55.422,multiplicationStroop,2021.2.3,Win32,60.15399423,,,,,,,,,,,,,,,,,,,,,,,,,,,,,,,,,18,1.8669,1,0,7,7,0,1,3,×,6,3 × 6,neutral,smallerFirst,1.5,1.5,18,,,,,,,,
,,,,,,,,,,,,,,,792,2022-01-28_22h30.55.422,multiplicationStroop,2021.2.3,Win32,60.15399423,,,,,,,,,,,,,,,,,,,,,,,,,,,,,,,,,12,1.4167,1,0,8,8,25,1,6,×,2,6 × 2,neutral,largerFirst,1.5,1.5,12,,,,,,,,
,,,,,,,,,,,,,,,792,2022-01-28_22h30.55.422,multiplicationStroop,2021.2.3,Win32,60.15399423,,,,,,,,,,,,,,,,,,,,,,,,,,,,,,,,,30,1.7499,1,0,9,9,19,1,6,×,5,6 × 5,neutral,largerFirst,1.5,1.5,30,,,,,,,,
,,,,,,,,,,,,,,,792,2022-01-28_22h30.55.422,multiplicationStroop,2021.2.3,Win32,60.15399423,,,,,,,,,,,,,,,,,,,,,,,,,,,,,,,,,12,1.3838,1,0,10,10,21,1,4,×,3,4 × 3,neutral,largerFirst,1.5,1.5,12,,,,,,,,
,,,,,,,,,,,,,,,792,2022-01-28_22h30.55.422,multiplicationStroop,2021.2.3,Win32,60.15399423,,,,,,,,,,,,,,,,,,,,,,,,,,,,,,,,,28,1.7663,1,0,11,11,17,1,7,×,4,7 × 4,neutral,largerFirst,1.5,1.5,28,,,,,,,,
,,,,,,,,,,,,,,,792,2022-01-28_22h30.55.422,multiplicationStroop,2021.2.3,Win32,60.15399423,,,,,,,,,,,,,,,,,,,,,,,,,,,,,,,,,32,1.5005,1,0,12,12,23,1,8,×,4,8 × 4,neutral,largerFirst,1.5,1.5,32,,,,,,,,
,,,,,,,,,,,,,,,792,2022-01-28_22h30.55.422,multiplicationStroop,2021.2.3,Win32,60.15399423,,,,,,,,,,,,,,,,,,,,,,,,,,,,,,,,,6,1.7493,1,0,13,13,26,1,3,×,2,3 × 2,neutral,largerFirst,1.5,1.5,6,,,,,,,,
,,,,,,,,,,,,,,,792,2022-01-28_22h30.55.422,multiplicationStroop,2021.2.3,Win32,60.15399423,,,,,,,,,,,,,,,,,,,,,,,,,,,,,,,,,40,2.1828,1,0,14,14,24,1,8,×,5,8 × 5,neutral,largerFirst,1.5,1.5,40,,,,,,,,
,,,,,,,,,,,,,,,792,2022-01-28_22h30.55.422,multiplicationStroop,2021.2.3,Win32,60.15399423,,,,,,,,,,,,,,,,,,,,,,,,,,,,,,,,,24,2.5653,1,0,15,15,22,1,8,×,3,8 × 3,neutral,largerFirst,1.5,1.5,24,,,,,,,,
,,,,,,,,,,,,,,,792,2022-01-28_22h30.55.422,multiplicationStroop,2021.2.3,Win32,60.15399423,,,,,,,,,,,,,,,,,,,,,,,,,,,,,,,,,35,1.9673,1,0,16,16,1,1,5,×,7,5 × 7,neutral,smallerFirst,1.5,1.5,35,,,,,,,,
,,,,,,,,,,,,,,,792,2022-01-28_22h30.55.422,multiplicationStroop,2021.2.3,Win32,60.15399423,,,,,,,,,,,,,,,,,,,,,,,,,,,,,,,,,48,2.6806,1,0,17,17,15,1,8,×,6,8 × 6,neutral,largerFirst,1.5,1.5,48,,,,,,,,
,,,,,,,,,,,,,,,792,2022-01-28_22h30.55.422,multiplicationStroop,2021.2.3,Win32,60.15399423,,,,,,,,,,,,,,,,,,,,,,,,,,,,,,,,,27,2.3852,1,0,18,18,14,1,9,×,3,9 × 3,neutral,largerFirst,1.5,1.5,27,,,,,,,,
,,,,,,,,,,,,,,,792,2022-01-28_22h30.55.422,multiplicationStroop,2021.2.3,Win32,60.15399423,,,,,,,,,,,,,,,,,,,,,,,,,,,,,,,,,8,2.3826,1,0,19,19,3,1,2,×,4,2 × 4,neutral,smallerFirst,1.5,1.5,8,,,,,,,,
,,,,,,,,,,,,,,,792,2022-01-28_22h30.55.422,multiplicationStroop,2021.2.3,Win32,60.15399423,,,,,,,,,,,,,,,,,,,,,,,,,,,,,,,,,81,2.1992,1,0,20,20,35,1,9,×,9,9 × 9,neutral,tie,1.5,1.5,81,,,,,,,,
,,,,,,,,,,,,,,,792,2022-01-28_22h30.55.422,multiplicationStroop,2021.2.3,Win32,60.15399423,,,,,,,,,,,,,,,,,,,,,,,,,,,,,,,,,72,2.1657,1,0,21,21,11,1,8,×,9,8 × 9,neutral,smallerFirst,1.5,1.5,72,,,,,,,,
,,,,,,,,,,,,,,,792,2022-01-28_22h30.55.422,multiplicationStroop,2021.2.3,Win32,60.15399423,,,,,,,,,,,,,,,,,,,,,,,,,,,,,,,,,14,1.767,1,0,22,22,16,1,7,×,2,7 × 2,neutral,largerFirst,1.5,1.5,14,,,,,,,,
,,,,,,,,,,,,,,,792,2022-01-28_22h30.55.422,multiplicationStroop,2021.2.3,Win32,60.15399423,,,,,,,,,,,,,,,,,,,,,,,,,,,,,,,,,15,1.5993,1,0,23,23,5,1,3,×,5,3 × 5,neutral,smallerFirst,1.5,1.5,15,,,,,,,,
,,,,,,,,,,,,,,,792,2022-01-28_22h30.55.422,multiplicationStroop,2021.2.3,Win32,60.15399423,,,,,,,,,,,,,,,,,,,,,,,,,,,,,,,,,16,1.9321,1,0,24,24,13,1,2,×,8,2 × 8,neutral,smallerFirst,1.5,1.5,16,,,,,,,,
,,,,,,,,,,,,,,,792,2022-01-28_22h30.55.422,multiplicationStroop,2021.2.3,Win32,60.15399423,,,,,,,,,,,,,,,,,,,,,,,,,,,,,,,,,20,1.917,1,0,25,25,20,1,5,×,4,5 × 4,neutral,largerFirst,1.5,1.5,20,,,,,,,,
,,,,,,,,,,,,,,,792,2022-01-28_22h30.55.422,multiplicationStroop,2021.2.3,Win32,60.15399423,,,,,,,,,,,,,,,,,,,,,,,,,,,,,,,,,4,1.3984,1,0,26,26,28,1,2,×,2,2 × 2,neutral,tie,1.5,1.5,4,,,,,,,,
,,,,,,,,,,,,,,,792,2022-01-28_22h30.55.422,multiplicationStroop,2021.2.3,Win32,60.15399423,,,,,,,,,,,,,,,,,,,,,,,,,,,,,,,,,10,1.9329,1,0,27,27,4,1,2,×,5,2 × 5,neutral,smallerFirst,1.5,1.5,10,,,,,,,,
,,,,,,,,,,,,,,,792,2022-01-28_22h30.55.422,multiplicationStroop,2021.2.3,Win32,60.15399423,,,,,,,,,,,,,,,,,,,,,,,,,,,,,,,,,24,1.9,1,0,28,28,2,1,4,×,6,4 × 6,neutral,smallerFirst,1.5,1.5,24,,,,,,,,
,,,,,,,,,,,,,,,792,2022-01-28_22h30.55.422,multiplicationStroop,2021.2.3,Win32,60.15399423,,,,,,,,,,,,,,,,,,,,,,,,,,,,,,,,,63,3.2999,1,0,29,29,12,1,7,×,9,7 × 9,neutral,smallerFirst,1.5,1.5,63,,,,,,,,
,,,,,,,,,,,,,,,792,2022-01-28_22h30.55.422,multiplicationStroop,2021.2.3,Win32,60.15399423,,,,,,,,,,,,,,,,,,,,,,,,,,,,,,,,,36,2.0691,1,0,30,30,32,1,6,×,6,6 × 6,neutral,tie,1.5,1.5,36,,,,,,,,
,,,,,,,,,,,,,,,792,2022-01-28_22h30.55.422,multiplicationStroop,2021.2.3,Win32,60.15399423,,,,,,,,,,,,,,,,,,,,,,,,,,,,,,,,,56,3.7821,1,0,31,31,9,1,7,×,8,7 × 8,neutral,smallerFirst,1.5,1.5,56,,,,,,,,
,,,,,,,,,,,,,,,792,2022-01-28_22h30.55.422,multiplicationStroop,2021.2.3,Win32,60.15399423,,,,,,,,,,,,,,,,,,,,,,,,,,,,,,,,,64,2.0196,1,0,32,32,34,1,8,×,8,8 × 8,neutral,tie,1.5,1.5,64,,,,,,,,
,,,,,,,,,,,,,,,792,2022-01-28_22h30.55.422,multiplicationStroop,2021.2.3,Win32,60.15399423,,,,,,,,,,,,,,,,,,,,,,,,,,,,,,,,,21,1.6825,1,0,33,33,8,1,3,×,7,3 × 7,neutral,smallerFirst,1.5,1.5,21,,,,,,,,
,,,,,,,,,,,,,,,792,2022-01-28_22h30.55.422,multiplicationStroop,2021.2.3,Win32,60.15399423,,,,,,,,,,,,,,,,,,,,,,,,,,,,,,,,,49,1.9982,1,0,34,34,33,1,7,×,7,7 × 7,neutral,tie,1.5,1.5,49,,,,,,,,
,,,,,,,,,,,,,,,792,2022-01-28_22h30.55.422,multiplicationStroop,2021.2.3,Win32,60.15399423,,,,,,,,,,,,,,,,,,,,,,,,,,,,,,,,,54,1.7998,1,0,35,35,7,1,6,×,9,6 × 9,neutral,smallerFirst,1.5,1.5,54,,,,,,,,
,,,,,,,,,,,,,,,792,2022-01-28_22h30.55.422,multiplicationStroop,2021.2.3,Win32,60.15399423,,,,,,,,,,,,,,,,,,,,,,,,,,,,,,,,,,,,,,,,,,,,,,,,,,0,2,2,1,1,stimulusFile/mult_blk2.xlsx,,
,,,,,,,,,,,,,,,792,2022-01-28_22h30.55.422,multiplicationStroop,2021.2.3,Win32,60.15399423,,,,,,,,,,,,,,,,,,,,,,,,,,,,,,,space,2.6608,10,3.0826,1,0,0,0,24,1,5,×,2,5 × 2,congruent,largerFirst,2,1,10,,,,,,,,
,,,,,,,,,,,,,,,792,2022-01-28_22h30.55.422,multiplicationStroop,2021.2.3,Win32,60.15399423,,,,,,,,,,,,,,,,,,,,,,,,,,,,,,,,,36,2.3346,1,0,1,1,0,1,4,×,9,4 × 9,congruent,smallerFirst,1,2,36,,,,,,,,
,,,,,,,,,,,,,,,792,2022-01-28_22h30.55.422,multiplicationStroop,2021.2.3,Win32,60.15399423,,,,,,,,,,,,,,,,,,,,,,,,,,,,,,,,,27,1.8876,1,0,2,2,26,1,9,×,3,9 × 3,congruent,largerFirst,2,1,27,,,,,,,,
,,,,,,,,,,,,,,,792,2022-01-28_22h30.55.422,multiplicationStroop,2021.2.3,Win32,60.15399423,,,,,,,,,,,,,,,,,,,,,,,,,,,,,,,,,42,2.4287,1,0,3,3,3,1,6,×,7,6 × 7,congruent,smallerFirst,1,2,42,,,,,,,,
,,,,,,,,,,,,,,,792,2022-01-28_22h30.55.422,multiplicationStroop,2021.2.3,Win32,60.15399423,,,,,,,,,,,,,,,,,,,,,,,,,,,,,,,,,72,2.3158,1,0,4,4,17,1,9,×,8,9 × 8,congruent,largerFirst,2,1,72,,,,,,,,
,,,,,,,,,,,,,,,792,2022-01-28_22h30.55.422,multiplicationStroop,2021.2.3,Win32,60.15399423,,,,,,,,,,,,,,,,,,,,,,,,,,,,,,,,,32,1.8494,1,0,5,5,20,1,8,×,4,8 × 4,congruent,largerFirst,2,1,32,,,,,,,,
,,,,,,,,,,,,,,,792,2022-01-28_22h30.55.422,multiplicationStroop,2021.2.3,Win32,60.15399423,,,,,,,,,,,,,,,,,,,,,,,,,,,,,,,,,16,2.3665,1,0,6,6,5,1,2,×,8,2 × 8,congruent,smallerFirst,1,2,16,,,,,,,,
,,,,,,,,,,,,,,,792,2022-01-28_22h30.55.422,multiplicationStroop,2021.2.3,Win32,60.15399423,,,,,,,,,,,,,,,,,,,,,,,,,,,,,,,,,45,1.8169,1,0,7,7,23,1,9,×,5,9 × 5,congruent,largerFirst,2,1,45,,,,,,,,
,,,,,,,,,,,,,,,792,2022-01-28_22h30.55.422,multiplicationStroop,2021.2.3,Win32,60.15399423,,,,,,,,,,,,,,,,,,,,,,,,,,,,,,,,,15,1.7992,1,0,8,8,4,1,3,×,5,3 × 5,congruent,smallerFirst,1,2,15,,,,,,,,
,,,,,,,,,,,,,,,792,2022-01-28_22h30.55.422,multiplicationStroop,2021.2.3,Win32,60.15399423,,,,,,,,,,,,,,,,,,,,,,,,,,,,,,,,,54,1.6485,1,0,9,9,12,1,6,×,9,6 × 9,congruent,smallerFirst,1,2,54,,,,,,,,
,,,,,,,,,,,,,,,792,2022-01-28_22h30.55.422,multiplicationStroop,2021.2.3,Win32,60.15399423,,,,,,,,,,,,,,,,,,,,,,,,,,,,,,,,,63,2.3331,1,0,10,10,21,1,9,×,7,9 × 7,congruent,largerFirst,2,1,63,,,,,,,,
,,,,,,,,,,,,,,,792,2022-01-28_22h30.55.422,multiplicationStroop,2021.2.3,Win32,60.15399423,,,,,,,,,,,,,,,,,,,,,,,,,,,,,,,,,12,1.3658,1,0,11,11,2,1,3,×,4,3 × 4,congruent,smallerFirst,1,2,12,,,,,,,,
,,,,,,,,,,,,,,,792,2022-01-28_22h30.55.422,multiplicationStroop,2021.2.3,Win32,60.15399423,,,,,,,,,,,,,,,,,,,,,,,,,,,,,,,,,35,1.9991,1,0,12,12,1,1,5,×,7,5 × 7,congruent,smallerFirst,1,2,35,,,,,,,,
,,,,,,,,,,,,,,,792,2022-01-28_22h30.55.422,multiplicationStroop,2021.2.3,Win32,60.15399423,,,,,,,,,,,,,,,,,,,,,,,,,,,,,,,,,28,2.0332,1,0,13,13,27,1,7,×,4,7 × 4,congruent,largerFirst,2,1,28,,,,,,,,
,,,,,,,,,,,,,,,792,2022-01-28_22h30.55.422,multiplicationStroop,2021.2.3,Win32,60.15399423,,,,,,,,,,,,,,,,,,,,,,,,,,,,,,,,,56,2.1827,1,0,14,14,8,1,7,×,8,7 × 8,congruent,smallerFirst,1,2,56,,,,,,,,
,,,,,,,,,,,,,,,792,2022-01-28_22h30.55.422,multiplicationStroop,2021.2.3,Win32,60.15399423,,,,,,,,,,,,,,,,,,,,,,,,,,,,,,,,,24,3.3697,1,0,15,15,25,1,6,×,4,6 × 4,congruent,largerFirst,2,1,24,,,,,,,,
,,,,,,,,,,,,,,,792,2022-01-28_22h30.55.422,multiplicationStroop,2021.2.3,Win32,60.15399423,,,,,,,,,,,,,,,,,,,,,,,,,,,,,,,,,25,1.6967,1,0,16,16,31,1,5,×,5,5 × 5,neutral,tie,2,1,25,,,,,,,,
,,,,,,,,,,,,,,,792,2022-01-28_22h30.55.422,multiplicationStroop,2021.2.3,Win32,60.15399423,,,,,,,,,,,,,,,,,,,,,,,,,,,,,,,,,8,1.8816,1,0,17,17,9,1,2,×,4,2 × 4,congruent,smallerFirst,1,2,8,,,,,,,,
,,,,,,,,,,,,,,,792,2022-01-28_22h30.55.422,multiplicationStroop,2021.2.3,Win32,60.15399423,,,,,,,,,,,,,,,,,,,,,,,,,,,,,,,,,64,2.2325,1,0,18,18,34,1,8,×,8,8 × 8,neutral,tie,2,1,64,,,,,,,,
,,,,,,,,,,,,,,,792,2022-01-28_22h30.55.422,multiplicationStroop,2021.2.3,Win32,60.15399423,,,,,,,,,,,,,,,,,,,,,,,,,,,,,,,,,18,1.8834,1,0,19,19,22,1,9,×,2,9 × 2,congruent,largerFirst,2,1,18,,,,,,,,
,,,,,,,,,,,,,,,792,2022-01-28_22h30.55.422,multiplicationStroop,2021.2.3,Win32,60.15399423,,,,,,,,,,,,,,,,,,,,,,,,,,,,,,,,,12,1.531,1,0,20,20,19,1,6,×,2,6 × 2,congruent,largerFirst,2,1,12,,,,,,,,
,,,,,,,,,,,,,,,792,2022-01-28_22h30.55.422,multiplicationStroop,2021.2.3,Win32,60.15399423,,,,,,,,,,,,,,,,,,,,,,,,,,,,,,,,,49,1.8874,1,0,21,21,33,1,7,×,7,7 × 7,neutral,tie,2,1,49,,,,,,,,
,,,,,,,,,,,,,,,792,2022-01-28_22h30.55.422,multiplicationStroop,2021.2.3,Win32,60.15399423,,,,,,,,,,,,,,,,,,,,,,,,,,,,,,,,,18,2.4012,1,0,22,22,11,1,3,×,6,3 × 6,congruent,smallerFirst,1,2,18,,,,,,,,
,,,,,,,,,,,,,,,792,2022-01-28_22h30.55.422,multiplicationStroop,2021.2.3,Win32,60.15399423,,,,,,,,,,,,,,,,,,,,,,,,,,,,,,,,,20,1.933,1,0,23,23,7,1,4,×,5,4 × 5,congruent,smallerFirst,1,2,20,,,,,,,,
,,,,,,,,,,,,,,,792,2022-01-28_22h30.55.422,multiplicationStroop,2021.2.3,Win32,60.15399423,,,,,,,,,,,,,,,,,,,,,,,,,,,,,,,,,40,2.3498,1,0,24,24,6,1,5,×,8,5 × 8,congruent,smallerFirst,1,2,40,,,,,,,,
,,,,,,,,,,,,,,,792,2022-01-28_22h30.55.422,multiplicationStroop,2021.2.3,Win32,60.15399423,,,,,,,,,,,,,,,,,,,,,,,,,,,,,,,,,4,1.3669,1,0,25,25,28,1,2,×,2,2 × 2,neutral,tie,2,1,4,,,,,,,,
,,,,,,,,,,,,,,,792,2022-01-28_22h30.55.422,multiplicationStroop,2021.2.3,Win32,60.15399423,,,,,,,,,,,,,,,,,,,,,,,,,,,,,,,,,81,2.6005,1,0,26,26,35,1,9,×,9,9 × 9,neutral,tie,2,1,81,,,,,,,,
,,,,,,,,,,,,,,,792,2022-01-28_22h30.55.422,multiplicationStroop,2021.2.3,Win32,60.15399423,,,,,,,,,,,,,,,,,,,,,,,,,,,,,,,,,24,2.5501,1,0,27,27,10,1,3,×,8,3 × 8,congruent,smallerFirst,1,2,24,,,,,,,,
,,,,,,,,,,,,,,,792,2022-01-28_22h30.55.422,multiplicationStroop,2021.2.3,Win32,60.15399423,,,,,,,,,,,,,,,,,,,,,,,,,,,,,,,,,36,2.1797,1,0,28,28,32,1,6,×,6,6 × 6,neutral,tie,2,1,36,,,,,,,,
,,,,,,,,,,,,,,,792,2022-01-28_22h30.55.422,multiplicationStroop,2021.2.3,Win32,60.15399423,,,,,,,,,,,,,,,,,,,,,,,,,,,,,,,,,6,1.7504,1,0,29,29,13,1,2,×,3,2 × 3,congruent,smallerFirst,1,2,6,,,,,,,,
,,,,,,,,,,,,,,,792,2022-01-28_22h30.55.422,multiplicationStroop,2021.2.3,Win32,60.15399423,,,,,,,,,,,,,,,,,,,,,,,,,,,,,,,,,14,2.6831,1,0,30,30,14,1,7,×,2,7 × 2,congruent,largerFirst,2,1,14,,,,,,,,
,,,,,,,,,,,,,,,792,2022-01-28_22h30.55.422,multiplicationStroop,2021.2.3,Win32,60.15399423,,,,,,,,,,,,,,,,,,,,,,,,,,,,,,,,,9,1.8326,1,0,31,31,29,1,3,×,3,3 × 3,neutral,tie,2,1,9,,,,,,,,
,,,,,,,,,,,,,,,792,2022-01-28_22h30.55.422,multiplicationStroop,2021.2.3,Win32,60.15399423,,,,,,,,,,,,,,,,,,,,,,,,,,,,,,,,,48,3.0652,1,0,32,32,18,1,8,×,6,8 × 6,congruent,largerFirst,2,1,48,,,,,,,,
,,,,,,,,,,,,,,,792,2022-01-28_22h30.55.422,multiplicationStroop,2021.2.3,Win32,60.15399423,,,,,,,,,,,,,,,,,,,,,,,,,,,,,,,,,30,1.7838,1,0,33,33,15,1,6,×,5,6 × 5,congruent,largerFirst,2,1,30,,,,,,,,
,,,,,,,,,,,,,,,792,2022-01-28_22h30.55.422,multiplicationStroop,2021.2.3,Win32,60.15399423,,,,,,,,,,,,,,,,,,,,,,,,,,,,,,,,,16,1.7485,1,0,34,34,30,1,4,×,4,4 × 4,neutral,tie,2,1,16,,,,,,,,
,,,,,,,,,,,,,,,792,2022-01-28_22h30.55.422,multiplicationStroop,2021.2.3,Win32,60.15399423,,,,,,,,,,,,,,,,,,,,,,,,,,,,,,,,,21,1.4836,1,0,35,35,16,1,7,×,3,7 × 3,congruent,largerFirst,2,1,21,,,,,,,,
,,,,,,,,,,,,,,,792,2022-01-28_22h30.55.422,multiplicationStroop,2021.2.3,Win32,60.15399423,,,,,,,,,,,,,,,,,,,,,,,,,,,,,,,,,,,,,,,,,,,,,,,,,,0,3,3,2,1,stimulusFile/mult_blk3_congruent.xlsx,,
,,,,,,,,,,,,,,,792,2022-01-28_22h30.55.422,multiplicationStroop,2021.2.3,Win32,60.15399423,,,,,,,,,,,,,,,,,,,,,,,,,,,,,,,space,52.0544,14,2.7599,1,0,0,0,18,1,7,×,2,7 × 2,incongruent,largerFirst,1,2,14,,,,,,,,
,,,,,,,,,,,,,,,792,2022-01-28_22h30.55.422,multiplicationStroop,2021.2.3,Win32,60.15399423,,,,,,,,,,,,,,,,,,,,,,,,,,,,,,,,,12,1.4838,1,0,1,1,19,1,4,×,3,4 × 3,incongruent,largerFirst,1,2,12,,,,,,,,
,,,,,,,,,,,,,,,792,2022-01-28_22h30.55.422,multiplicationStroop,2021.2.3,Win32,60.15399423,,,,,,,,,,,,,,,,,,,,,,,,,,,,,,,,,21,1.5165,1,0,2,2,12,1,3,×,7,3 × 7,incongruent,smallerFirst,2,1,21,,,,,,,,
,,,,,,,,,,,,,,,792,2022-01-28_22h30.55.422,multiplicationStroop,2021.2.3,Win32,60.15399423,,,,,,,,,,,,,,,,,,,,,,,,,,,,,,,,,45,1.8168,1,0,3,3,8,1,5,×,9,5 × 9,incongruent,smallerFirst,2,1,45,,,,,,,,
,,,,,,,,,,,,,,,792,2022-01-28_22h30.55.422,multiplicationStroop,2021.2.3,Win32,60.15399423,,,,,,,,,,,,,,,,,,,,,,,,,,,,,,,,,30,2.1835,1,0,4,4,11,1,5,×,6,5 × 6,incongruent,smallerFirst,2,1,30,,,,,,,,
,,,,,,,,,,,,,,,792,2022-01-28_22h30.55.422,multiplicationStroop,2021.2.3,Win32,60.15399423,,,,,,,,,,,,,,,,,,,,,,,,,,,,,,,,,49,2.1996,1,0,5,5,33,1,7,×,7,7 × 7,neutral,tie,2,1,49,,,,,,,,
,,,,,,,,,,,,,,,792,2022-01-28_22h30.55.422,multiplicationStroop,2021.2.3,Win32,60.15399423,,,,,,,,,,,,,,,,,,,,,,,,,,,,,,,,,25,1.6001,1,0,6,6,31,1,5,×,5,5 × 5,neutral,tie,2,1,25,,,,,,,,
,,,,,,,,,,,,,,,792,2022-01-28_22h30.55.422,multiplicationStroop,2021.2.3,Win32,60.15399423,,,,,,,,,,,,,,,,,,,,,,,,,,,,,,,,,12,1.4334,1,0,7,7,5,1,2,×,6,2 × 6,incongruent,smallerFirst,2,1,12,,,,,,,,
,,,,,,,,,,,,,,,792,2022-01-28_22h30.55.422,multiplicationStroop,2021.2.3,Win32,60.15399423,,,,,,,,,,,,,,,,,,,,,,,,,,,,,,,,,8,2.4,1,0,8,8,10,1,2,×,4,2 × 4,incongruent,smallerFirst,2,1,8,,,,,,,,
,,,,,,,,,,,,,,,792,2022-01-28_22h30.55.422,multiplicationStroop,2021.2.3,Win32,60.15399423,,,,,,,,,,,,,,,,,,,,,,,,,,,,,,,,,48,3.4174,1,0,9,9,15,1,8,×,6,8 × 6,incongruent,largerFirst,1,2,48,,,,,,,,
,,,,,,,,,,,,,,,792,2022-01-28_22h30.55.422,multiplicationStroop,2021.2.3,Win32,60.15399423,,,,,,,,,,,,,,,,,,,,,,,,,,,,,,,,,81,2.6195,1,0,10,10,35,1,9,×,9,9 × 9,neutral,tie,2,1,81,,,,,,,,
,,,,,,,,,,,,,,,792,2022-01-28_22h30.55.422,multiplicationStroop,2021.2.3,Win32,60.15399423,,,,,,,,,,,,,,,,,,,,,,,,,,,,,,,,,24,1.5162,1,0,11,11,6,1,4,×,6,4 × 6,incongruent,smallerFirst,2,1,24,,,,,,,,
,,,,,,,,,,,,,,,792,2022-01-28_22h30.55.422,multiplicationStroop,2021.2.3,Win32,60.15399423,,,,,,,,,,,,,,,,,,,,,,,,,,,,,,,,,40,2.2672,1,0,12,12,27,1,8,×,5,8 × 5,incongruent,largerFirst,1,2,40,,,,,,,,
,,,,,,,,,,,,,,,792,2022-01-28_22h30.55.422,multiplicationStroop,2021.2.3,Win32,60.15399423,,,,,,,,,,,,,,,,,,,,,,,,,,,,,,,,,54,1.7169,1,0,13,13,20,1,9,×,6,9 × 6,incongruent,largerFirst,1,2,54,,,,,,,,
,,,,,,,,,,,,,,,792,2022-01-28_22h30.55.422,multiplicationStroop,2021.2.3,Win32,60.15399423,,,,,,,,,,,,,,,,,,,,,,,,,,,,,,,,,27,1.7162,1,0,14,14,4,1,3,×,9,3 × 9,incongruent,smallerFirst,2,1,27,,,,,,,,
,,,,,,,,,,,,,,,792,2022-01-28_22h30.55.422,multiplicationStroop,2021.2.3,Win32,60.15399423,,,,,,,,,,,,,,,,,,,,,,,,,,,,,,,,,36,1.8838,1,0,15,15,32,1,6,×,6,6 × 6,neutral,tie,2,1,36,,,,,,,,
,,,,,,,,,,,,,,,792,2022-01-28_22h30.55.422,multiplicationStroop,2021.2.3,Win32,60.15399423,,,,,,,,,,,,,,,,,,,,,,,,,,,,,,,,,15,1.6326,1,0,16,16,24,1,5,×,3,5 × 3,incongruent,largerFirst,1,2,15,,,,,,,,
,,,,,,,,,,,,,,,792,2022-01-28_22h30.55.422,multiplicationStroop,2021.2.3,Win32,60.15399423,,,,,,,,,,,,,,,,,,,,,,,,,,,,,,,,,72,1.9673,1,0,17,17,14,1,9,×,8,9 × 8,incongruent,largerFirst,1,2,72,,,,,,,,
,,,,,,,,,,,,,,,792,2022-01-28_22h30.55.422,multiplicationStroop,2021.2.3,Win32,60.15399423,,,,,,,,,,,,,,,,,,,,,,,,,,,,,,,,,20,1.6998,1,0,18,18,13,1,4,×,5,4 × 5,incongruent,smallerFirst,2,1,20,,,,,,,,
,,,,,,,,,,,,,,,792,2022-01-28_22h30.55.422,multiplicationStroop,2021.2.3,Win32,60.15399423,,,,,,,,,,,,,,,,,,,,,,,,,,,,,,,,,6,1.7678,1,0,19,19,25,1,3,×,2,3 × 2,incongruent,largerFirst,1,2,6,,,,,,,,
,,,,,,,,,,,,,,,792,2022-01-28_22h30.55.422,multiplicationStroop,2021.2.3,Win32,60.15399423,,,,,,,,,,,,,,,,,,,,,,,,,,,,,,,,,4,1.4147,1,0,20,20,28,1,2,×,2,2 × 2,neutral,tie,2,1,4,,,,,,,,
,,,,,,,,,,,,,,,792,2022-01-28_22h30.55.422,multiplicationStroop,2021.2.3,Win32,60.15399423,,,,,,,,,,,,,,,,,,,,,,,,,,,,,,,,,42,3.9997,1,0,21,21,3,1,6,×,7,6 × 7,incongruent,smallerFirst,2,1,42,,,,,,,,
,,,,,,,,,,,,,,,792,2022-01-28_22h30.55.422,multiplicationStroop,2021.2.3,Win32,60.15399423,,,,,,,,,,,,,,,,,,,,,,,,,,,,,,,,,63,2.0022,1,0,22,22,17,1,9,×,7,9 × 7,incongruent,largerFirst,1,2,63,,,,,,,,
,,,,,,,,,,,,,,,792,2022-01-28_22h30.55.422,multiplicationStroop,2021.2.3,Win32,60.15399423,,,,,,,,,,,,,,,,,,,,,,,,,,,,,,,,,32,2.3664,1,0,23,23,21,1,8,×,4,8 × 4,incongruent,largerFirst,1,2,32,,,,,,,,
,,,,,,,,,,,,,,,792,2022-01-28_22h30.55.422,multiplicationStroop,2021.2.3,Win32,60.15399423,,,,,,,,,,,,,,,,,,,,,,,,,,,,,,,,,9,2.7335,1,0,24,24,29,1,3,×,3,3 × 3,neutral,tie,2,1,9,,,,,,,,
,,,,,,,,,,,,,,,792,2022-01-28_22h30.55.422,multiplicationStroop,2021.2.3,Win32,60.15399423,,,,,,,,,,,,,,,,,,,,,,,,,,,,,,,,,18,3.5687,1,0,25,25,16,1,9,×,2,9 × 2,incongruent,largerFirst,1,2,18,,,,,,,,
,,,,,,,,,,,,,,,792,2022-01-28_22h30.55.422,multiplicationStroop,2021.2.3,Win32,60.15399423,,,,,,,,,,,,,,,,,,,,,,,,,,,,,,,,,18,2.6667,1,0,26,26,22,1,6,×,3,6 × 3,incongruent,largerFirst,1,2,18,,,,,,,,
,,,,,,,,,,,,,,,792,2022-01-28_22h30.55.422,multiplicationStroop,2021.2.3,Win32,60.15399423,,,,,,,,,,,,,,,,,,,,,,,,,,,,,,,,,64,2.1525,1,0,27,27,34,1,8,×,8,8 × 8,neutral,tie,2,1,64,,,,,,,,
,,,,,,,,,,,,,,,792,2022-01-28_22h30.55.422,multiplicationStroop,2021.2.3,Win32,60.15399423,,,,,,,,,,,,,,,,,,,,,,,,,,,,,,,,,10,2.0826,1,0,28,28,7,1,2,×,5,2 × 5,incongruent,smallerFirst,2,1,10,,,,,,,,
,,,,,,,,,,,,,,,792,2022-01-28_22h30.55.422,multiplicationStroop,2021.2.3,Win32,60.15399423,,,,,,,,,,,,,,,,,,,,,,,,,,,,,,,,,36,2.899,1,0,29,29,1,1,4,×,9,4 × 9,incongruent,smallerFirst,2,1,36,,,,,,,,
,,,,,,,,,,,,,,,792,2022-01-28_22h30.55.422,multiplicationStroop,2021.2.3,Win32,60.15399423,,,,,,,,,,,,,,,,,,,,,,,,,,,,,,,,,24,3.2669,1,0,30,30,23,1,8,×,3,8 × 3,incongruent,largerFirst,1,2,24,,,,,,,,
,,,,,,,,,,,,,,,792,2022-01-28_22h30.55.422,multiplicationStroop,2021.2.3,Win32,60.15399423,,,,,,,,,,,,,,,,,,,,,,,,,,,,,,,,,16,2.0402,1,0,31,31,9,1,2,×,8,2 × 8,incongruent,smallerFirst,2,1,16,,,,,,,,
,,,,,,,,,,,,,,,792,2022-01-28_22h30.55.422,multiplicationStroop,2021.2.3,Win32,60.15399423,,,,,,,,,,,,,,,,,,,,,,,,,,,,,,,,,28,1.8625,1,0,32,32,2,1,4,×,7,4 × 7,incongruent,smallerFirst,2,1,28,,,,,,,,
,,,,,,,,,,,,,,,792,2022-01-28_22h30.55.422,multiplicationStroop,2021.2.3,Win32,60.15399423,,,,,,,,,,,,,,,,,,,,,,,,,,,,,,,,,35,1.4993,1,0,33,33,26,1,7,×,5,7 × 5,incongruent,largerFirst,1,2,35,,,,,,,,
,,,,,,,,,,,,,,,792,2022-01-28_22h30.55.422,multiplicationStroop,2021.2.3,Win32,60.15399423,,,,,,,,,,,,,,,,,,,,,,,,,,,,,,,,,56,3.0655,1,0,34,34,0,1,7,×,8,7 × 8,incongruent,smallerFirst,2,1,56,,,,,,,,
,,,,,,,,,,,,,,,792,2022-01-28_22h30.55.422,multiplicationStroop,2021.2.3,Win32,60.15399423,,,,,,,,,,,,,,,,,,,,,,,,,,,,,,,,,16,1.6834,1,0,35,35,30,1,4,×,4,4 × 4,neutral,tie,2,1,16,,,,,,,,
,,,,,,,,,,,,,,,792,2022-01-28_22h30.55.422,multiplicationStroop,2021.2.3,Win32,60.15399423,,,,,,,,,,,,,,,,,,,,,,,,,,,,,,,,,,,,,,,,,,,,,,,,,,0,4,4,4,1,stimulusFile/mult_blk5_INcongruent.xlsx,,
,,,,,,,,,,,,,,,792,2022-01-28_22h30.55.422,multiplicationStroop,2021.2.3,Win32,60.15399423,,,,,,,,,,,,,,,,,,,,,,,,,,,,,,,space,53.3684,28,3.0923,1,0,0,0,13,1,4,×,7,4 × 7,congruent,smallerFirst,1,2,28,,,,,,,,
,,,,,,,,,,,,,,,792,2022-01-28_22h30.55.422,multiplicationStroop,2021.2.3,Win32,60.15399423,,,,,,,,,,,,,,,,,,,,,,,,,,,,,,,,,4,1.4502,1,0,1,1,28,1,2,×,2,2 × 2,neutral,tie,1,2,4,,,,,,,,
,,,,,,,,,,,,,,,792,2022-01-28_22h30.55.422,multiplicationStroop,2021.2.3,Win32,60.15399423,,,,,,,,,,,,,,,,,,,,,,,,,,,,,,,,,24,2.882,1,0,2,2,11,1,4,×,6,4 × 6,congruent,smallerFirst,1,2,24,,,,,,,,
,,,,,,,,,,,,,,,792,2022-01-28_22h30.55.422,multiplicationStroop,2021.2.3,Win32,60.15399423,,,,,,,,,,,,,,,,,,,,,,,,,,,,,,,,,18,2.0836,1,0,3,3,25,1,6,×,3,6 × 3,congruent,largerFirst,2,1,18,,,,,,,,
,,,,,,,,,,,,,,,792,2022-01-28_22h30.55.422,multiplicationStroop,2021.2.3,Win32,60.15399423,,,,,,,,,,,,,,,,,,,,,,,,,,,,,,,,,30,1.898,1,0,4,4,1,1,5,×,6,5 × 6,congruent,smallerFirst,1,2,30,,,,,,,,
,,,,,,,,,,,,,,,792,2022-01-28_22h30.55.422,multiplicationStroop,2021.2.3,Win32,60.15399423,,,,,,,,,,,,,,,,,,,,,,,,,,,,,,,,,9,1.7162,1,0,5,5,29,1,3,×,3,3 × 3,neutral,tie,1,2,9,,,,,,,,
,,,,,,,,,,,,,,,792,2022-01-28_22h30.55.422,multiplicationStroop,2021.2.3,Win32,60.15399423,,,,,,,,,,,,,,,,,,,,,,,,,,,,,,,,,72,2.533,1,0,6,6,3,1,8,×,9,8 × 9,congruent,smallerFirst,1,2,72,,,,,,,,
,,,,,,,,,,,,,,,792,2022-01-28_22h30.55.422,multiplicationStroop,2021.2.3,Win32,60.15399423,,,,,,,,,,,,,,,,,,,,,,,,,,,,,,,,,32,1.6535,1,0,7,7,6,1,4,×,8,4 × 8,congruent,smallerFirst,1,2,32,,,,,,,,
,,,,,,,,,,,,,,,792,2022-01-28_22h30.55.422,multiplicationStroop,2021.2.3,Win32,60.15399423,,,,,,,,,,,,,,,,,,,,,,,,,,,,,,,,,64,1.9787,1,0,8,8,34,1,8,×,8,8 × 8,neutral,tie,1,2,64,,,,,,,,
,,,,,,,,,,,,,,,792,2022-01-28_22h30.55.422,multiplicationStroop,2021.2.3,Win32,60.15399423,,,,,,,,,,,,,,,,,,,,,,,,,,,,,,,,,54,1.6498,1,0,9,9,26,1,9,×,6,9 × 6,congruent,largerFirst,2,1,54,,,,,,,,
,,,,,,,,,,,,,,,792,2022-01-28_22h30.55.422,multiplicationStroop,2021.2.3,Win32,60.15399423,,,,,,,,,,,,,,,,,,,,,,,,,,,,,,,,,40,1.7991,1,0,10,10,20,1,8,×,5,8 × 5,congruent,largerFirst,2,1,40,,,,,,,,
,,,,,,,,,,,,,,,792,2022-01-28_22h30.55.422,multiplicationStroop,2021.2.3,Win32,60.15399423,,,,,,,,,,,,,,,,,,,,,,,,,,,,,,,,,63,2.0711,1,0,11,11,7,1,7,×,9,7 × 9,congruent,smallerFirst,1,2,63,,,,,,,,
,,,,,,,,,,,,,,,792,2022-01-28_22h30.55.422,multiplicationStroop,2021.2.3,Win32,60.15399423,,,,,,,,,,,,,,,,,,,,,,,,,,,,,,,,,16,1.6449,1,0,12,12,30,1,4,×,4,4 × 4,neutral,tie,1,2,16,,,,,,,,
,,,,,,,,,,,,,,,792,2022-01-28_22h30.55.422,multiplicationStroop,2021.2.3,Win32,60.15399423,,,,,,,,,,,,,,,,,,,,,,,,,,,,,,,,,56,3.1673,1,0,13,13,22,1,8,×,7,8 × 7,congruent,largerFirst,2,1,56,,,,,,,,
,,,,,,,,,,,,,,,792,2022-01-28_22h30.55.422,multiplicationStroop,2021.2.3,Win32,60.15399423,,,,,,,,,,,,,,,,,,,,,,,,,,,,,,,,,36,4.8486,1,0,14,14,32,1,6,×,6,6 × 6,neutral,tie,1,2,36,,,,,,,,
,,,,,,,,,,,,,,,792,2022-01-28_22h30.55.422,multiplicationStroop,2021.2.3,Win32,60.15399423,,,,,,,,,,,,,,,,,,,,,,,,,,,,,,,,,18,1.9191,1,0,15,15,8,1,2,×,9,2 × 9,congruent,smallerFirst,1,2,18,,,,,,,,
,,,,,,,,,,,,,,,792,2022-01-28_22h30.55.422,multiplicationStroop,2021.2.3,Win32,60.15399423,,,,,,,,,,,,,,,,,,,,,,,,,,,,,,,,,48,4.133,1,0,16,16,4,1,6,×,8,6 × 8,congruent,smallerFirst,1,2,48,,,,,,,,
,,,,,,,,,,,,,,,792,2022-01-28_22h30.55.422,multiplicationStroop,2021.2.3,Win32,60.15399423,,,,,,,,,,,,,,,,,,,,,,,,,,,,,,,,,12,2.3196,1,0,17,17,16,1,4,×,3,4 × 3,congruent,largerFirst,2,1,12,,,,,,,,
,,,,,,,,,,,,,,,792,2022-01-28_22h30.55.422,multiplicationStroop,2021.2.3,Win32,60.15399423,,,,,,,,,,,,,,,,,,,,,,,,,,,,,,,,,35,1.6988,1,0,18,18,15,1,7,×,5,7 × 5,congruent,largerFirst,2,1,35,,,,,,,,
,,,,,,,,,,,,,,,792,2022-01-28_22h30.55.422,multiplicationStroop,2021.2.3,Win32,60.15399423,,,,,,,,,,,,,,,,,,,,,,,,,,,,,,,,,8,1.8665,1,0,19,19,23,1,4,×,2,4 × 2,congruent,largerFirst,2,1,8,,,,,,,,
,,,,,,,,,,,,,,,792,2022-01-28_22h30.55.422,multiplicationStroop,2021.2.3,Win32,60.15399423,,,,,,,,,,,,,,,,,,,,,,,,,,,,,,,,,6,1.5648,1,0,20,20,27,1,3,×,2,3 × 2,congruent,largerFirst,2,1,6,,,,,,,,
,,,,,,,,,,,,,,,792,2022-01-28_22h30.55.422,multiplicationStroop,2021.2.3,Win32,60.15399423,,,,,,,,,,,,,,,,,,,,,,,,,,,,,,,,,42,1.916,1,0,21,21,17,1,7,×,6,7 × 6,congruent,largerFirst,2,1,42,,,,,,,,
,,,,,,,,,,,,,,,792,2022-01-28_22h30.55.422,multiplicationStroop,2021.2.3,Win32,60.15399423,,,,,,,,,,,,,,,,,,,,,,,,,,,,,,,,,15,1.7993,1,0,22,22,18,1,5,×,3,5 × 3,congruent,largerFirst,2,1,15,,,,,,,,
,,,,,,,,,,,,,,,792,2022-01-28_22h30.55.422,multiplicationStroop,2021.2.3,Win32,60.15399423,,,,,,,,,,,,,,,,,,,,,,,,,,,,,,,,,14,1.5168,1,0,23,23,0,1,2,×,7,2 × 7,congruent,smallerFirst,1,2,14,,,,,,,,
,,,,,,,,,,,,,,,792,2022-01-28_22h30.55.422,multiplicationStroop,2021.2.3,Win32,60.15399423,,,,,,,,,,,,,,,,,,,,,,,,,,,,,,,,,20,1.7201,1,0,24,24,21,1,5,×,4,5 × 4,congruent,largerFirst,2,1,20,,,,,,,,
,,,,,,,,,,,,,,,792,2022-01-28_22h30.55.422,multiplicationStroop,2021.2.3,Win32,60.15399423,,,,,,,,,,,,,,,,,,,,,,,,,,,,,,,,,36,1.7628,1,0,25,25,14,1,9,×,4,9 × 4,congruent,largerFirst,2,1,36,,,,,,,,
,,,,,,,,,,,,,,,792,2022-01-28_22h30.55.422,multiplicationStroop,2021.2.3,Win32,60.15399423,,,,,,,,,,,,,,,,,,,,,,,,,,,,,,,,,81,1.9317,1,0,26,26,35,1,9,×,9,9 × 9,neutral,tie,1,2,81,,,,,,,,
,,,,,,,,,,,,,,,792,2022-01-28_22h30.55.422,multiplicationStroop,2021.2.3,Win32,60.15399423,,,,,,,,,,,,,,,,,,,,,,,,,,,,,,,,,16,3.2497,1,0,27,27,19,1,8,×,2,8 × 2,congruent,largerFirst,2,1,16,,,,,,,,
,,,,,,,,,,,,,,,792,2022-01-28_22h30.55.422,multiplicationStroop,2021.2.3,Win32,60.15399423,,,,,,,,,,,,,,,,,,,,,,,,,,,,,,,,,45,2.2658,1,0,28,28,9,1,5,×,9,5 × 9,congruent,smallerFirst,1,2,45,,,,,,,,
,,,,,,,,,,,,,,,792,2022-01-28_22h30.55.422,multiplicationStroop,2021.2.3,Win32,60.15399423,,,,,,,,,,,,,,,,,,,,,,,,,,,,,,,,,27,1.8026,1,0,29,29,12,1,3,×,9,3 × 9,congruent,smallerFirst,1,2,27,,,,,,,,
,,,,,,,,,,,,,,,792,2022-01-28_22h30.55.422,multiplicationStroop,2021.2.3,Win32,60.15399423,,,,,,,,,,,,,,,,,,,,,,,,,,,,,,,,,25,1.6491,1,0,30,30,31,1,5,×,5,5 × 5,neutral,tie,1,2,25,,,,,,,,
,,,,,,,,,,,,,,,792,2022-01-28_22h30.55.422,multiplicationStroop,2021.2.3,Win32,60.15399423,,,,,,,,,,,,,,,,,,,,,,,,,,,,,,,,,21,1.4168,1,0,31,31,2,1,3,×,7,3 × 7,congruent,smallerFirst,1,2,21,,,,,,,,
,,,,,,,,,,,,,,,792,2022-01-28_22h30.55.422,multiplicationStroop,2021.2.3,Win32,60.15399423,,,,,,,,,,,,,,,,,,,,,,,,,,,,,,,,,12,1.8983,1,0,32,32,5,1,2,×,6,2 × 6,congruent,smallerFirst,1,2,12,,,,,,,,
,,,,,,,,,,,,,,,792,2022-01-28_22h30.55.422,multiplicationStroop,2021.2.3,Win32,60.15399423,,,,,,,,,,,,,,,,,,,,,,,,,,,,,,,,,10,1.7668,1,0,33,33,10,1,2,×,5,2 × 5,congruent,smallerFirst,1,2,10,,,,,,,,
,,,,,,,,,,,,,,,792,2022-01-28_22h30.55.422,multiplicationStroop,2021.2.3,Win32,60.15399423,,,,,,,,,,,,,,,,,,,,,,,,,,,,,,,,,24,2.1814,1,0,34,34,24,1,8,×,3,8 × 3,congruent,largerFirst,2,1,24,,,,,,,,
,,,,,,,,,,,,,,,792,2022-01-28_22h30.55.422,multiplicationStroop,2021.2.3,Win32,60.15399423,,,,,,,,,,,,,,,,,,,,,,,,,,,,,,,,,49,2.3341,1,0,35,35,33,1,7,×,7,7 × 7,neutral,tie,1,2,49,,,,,,,,
,,,,,,,,,,,,,,,792,2022-01-28_22h30.55.422,multiplicationStroop,2021.2.3,Win32,60.15399423,,,,,,,,,,,,,,,,,,,,,,,,,,,,,,,,,,,,,,,,,,,,,,,,,,0,5,5,3,1,stimulusFile/mult_blk4_congruent.xlsx,,
,,,,,,,,,,,,,,,792,2022-01-28_22h30.55.422,multiplicationStroop,2021.2.3,Win32,60.15399423,,,,,,,,,,,,,,,,,,,,,,,,,,,,,,,,,,,,,,,,,,,,,,,,,,,,,,,,space,5.6193