welcomeKey_resp.keys,welcomeKey_resp.rt,X Scale,Y Scale,rt_resp_4.keys,rt_resp_4.corr,rt_resp_4.rt,speedtest_2.thisRepN,speedtest_2.thisTrialN,speedtest_2.thisN,speedtest_2.thisIndex,speedtest_2.ran,numberSc,posX,positionLayout,participant,date,expName,psychopyVersion,OS,frameRate,ct_instrresp.keys,ct_instrresp.rt,key_resp_2.keys,key_resp_2.rt,ct_keyResp.keys,ct_keyResp.corr,ct_keyResp.rt,trials.thisRepN,trials.thisTrialN,trials.thisN,trials.thisIndex,trials.ran,leftNo,rightNo,displayProblem,numDistance,leftNo_size,rightNo_size,Dims,keyAnswer,TS_Loop.thisRepN,TS_Loop.thisTrialN,TS_Loop.thisN,TS_Loop.thisIndex,TS_Loop.ran,Condition,ActionInst,instrImage,mltptaskInst_resp.keys,mltptaskInst_resp.rt,continue_resp_2.keys,continue_resp_2.rt,multp_Answer,multi_RT,multiplyCorr,LoopingMultiply.thisRepN,LoopingMultiply.thisTrialN,LoopingMultiply.thisN,LoopingMultiply.thisIndex,LoopingMultiply.ran,factor1,multiplySign,factor2,multliplyProblem,physicalSize,orderOperand,sizeF1,sizeF2,mult_answer,trials_stroop.thisRepN,trials_stroop.thisTrialN,trials_stroop.thisN,trials_stroop.thisIndex,trials_stroop.ran,multiplicationFile,esckey_resp_2.keys,esckey_resp_2.rt
y,29.9767,45.1,44.9,left,1,0.5574,0,0,0,3,1,4,-200,left,793,2022-01-17_14h25.46.453,multiplicationStroop,2021.2.3,Win32,59.22065616,,,,,,,,,,,,,,,,,,,,,,,,,,,,,,,,,,,,,,,,,,,,,,,,,,,,,,,,,
,,,,right,1,0.2852,0,1,1,14,1,8,200,right,793,2022-01-17_14h25.46.453,multiplicationStroop,2021.2.3,Win32,59.22065616,,,,,,,,,,,,,,,,,,,,,,,,,,,,,,,,,,,,,,,,,,,,,,,,,,,,,,,,,
,,,,right,1,0.3216,0,2,2,11,1,4,200,right,793,2022-01-17_14h25.46.453,multiplicationStroop,2021.2.3,Win32,59.22065616,,,,,,,,,,,,,,,,,,,,,,,,,,,,,,,,,,,,,,,,,,,,,,,,,,,,,,,,,
,,,,left,1,0.2886,0,3,3,6,1,8,-200,left,793,2022-01-17_14h25.46.453,multiplicationStroop,2021.2.3,Win32,59.22065616,,,,,,,,,,,,,,,,,,,,,,,,,,,,,,,,,,,,,,,,,,,,,,,,,,,,,,,,,
,,,,left,1,0.2993,0,4,4,2,1,3,-200,left,793,2022-01-17_14h25.46.453,multiplicationStroop,2021.2.3,Win32,59.22065616,,,,,,,,,,,,,,,,,,,,,,,,,,,,,,,,,,,,,,,,,,,,,,,,,,,,,,,,,
,,,,left,1,0.2694,0,5,5,1,1,2,-200,left,793,2022-01-17_14h25.46.453,multiplicationStroop,2021.2.3,Win32,59.22065616,,,,,,,,,,,,,,,,,,,,,,,,,,,,,,,,,,,,,,,,,,,,,,,,,,,,,,,,,
,,,,left,1,0.2789,0,6,6,7,1,9,-200,left,793,2022-01-17_14h25.46.453,multiplicationStroop,2021.2.3,Win32,59.22065616,,,,,,,,,,,,,,,,,,,,,,,,,,,,,,,,,,,,,,,,,,,,,,,,,,,,,,,,,
,,,,right,1,0.2998,0,7,7,9,1,2,200,right,793,2022-01-17_14h25.46.453,multiplicationStroop,2021.2.3,Win32,59.22065616,,,,,,,,,,,,,,,,,,,,,,,,,,,,,,,,,,,,,,,,,,,,,,,,,,,,,,,,,
,,,,right,1,0.27,0,8,8,10,1,3,200,right,793,2022-01-17_14h25.46.453,multiplicationStroop,2021.2.3,Win32,59.22065616,,,,,,,,,,,,,,,,,,,,,,,,,,,,,,,,,,,,,,,,,,,,,,,,,,,,,,,,,
,,,,left,1,0.3048,0,9,9,4,1,6,-200,left,793,2022-01-17_14h25.46.453,multiplicationStroop,2021.2.3,Win32,59.22065616,,,,,,,,,,,,,,,,,,,,,,,,,,,,,,,,,,,,,,,,,,,,,,,,,,,,,,,,,
,,,,right,1,0.2506,0,10,10,12,1,6,200,right,793,2022-01-17_14h25.46.453,multiplicationStroop,2021.2.3,Win32,59.22065616,,,,,,,,,,,,,,,,,,,,,,,,,,,,,,,,,,,,,,,,,,,,,,,,,,,,,,,,,
,,,,left,1,0.267,0,11,11,5,1,7,-200,left,793,2022-01-17_14h25.46.453,multiplicationStroop,2021.2.3,Win32,59.22065616,,,,,,,,,,,,,,,,,,,,,,,,,,,,,,,,,,,,,,,,,,,,,,,,,,,,,,,,,
,,,,right,1,0.2377,0,12,12,13,1,7,200,right,793,2022-01-17_14h25.46.453,multiplicationStroop,2021.2.3,Win32,59.22065616,,,,,,,,,,,,,,,,,,,,,,,,,,,,,,,,,,,,,,,,,,,,,,,,,,,,,,,,,
,,,,right,1,0.2875,0,13,13,15,1,9,200,right,793,2022-01-17_14h25.46.453,multiplicationStroop,2021.2.3,Win32,59.22065616,,,,,,,,,,,,,,,,,,,,,,,,,,,,,,,,,,,,,,,,,,,,,,,,,,,,,,,,,
,,,,right,1,0.2918,0,14,14,8,1,1,200,right,793,2022-01-17_14h25.46.453,multiplicationStroop,2021.2.3,Win32,59.22065616,,,,,,,,,,,,,,,,,,,,,,,,,,,,,,,,,,,,,,,,,,,,,,,,,,,,,,,,,
,,,,right,0,0.1872,0,15,15,0,1,1,-200,left,793,2022-01-17_14h25.46.453,multiplicationStroop,2021.2.3,Win32,59.22065616,,,,,,,,,,,,,,,,,,,,,,,,,,,,,,,,,,,,,,,,,,,,,,,,,,,,,,,,,
,,,,right,1,0.4195,1,0,16,9,1,2,200,right,793,2022-01-17_14h25.46.453,multiplicationStroop,2021.2.3,Win32,59.22065616,,,,,,,,,,,,,,,,,,,,,,,,,,,,,,,,,,,,,,,,,,,,,,,,,,,,,,,,,
,,,,left,1,0.2702,1,1,17,6,1,8,-200,left,793,2022-01-17_14h25.46.453,multiplicationStroop,2021.2.3,Win32,59.22065616,,,,,,,,,,,,,,,,,,,,,,,,,,,,,,,,,,,,,,,,,,,,,,,,,,,,,,,,,
,,,,right,1,0.2461,1,2,18,11,1,4,200,right,793,2022-01-17_14h25.46.453,multiplicationStroop,2021.2.3,Win32,59.22065616,,,,,,,,,,,,,,,,,,,,,,,,,,,,,,,,,,,,,,,,,,,,,,,,,,,,,,,,,
,,,,left,1,0.2384,1,3,19,1,1,2,-200,left,793,2022-01-17_14h25.46.453,multiplicationStroop,2021.2.3,Win32,59.22065616,,,,,,,,,,,,,,,,,,,,,,,,,,,,,,,,,,,,,,,,,,,,,,,,,,,,,,,,,
,,,,left,1,0.3282,1,4,20,0,1,1,-200,left,793,2022-01-17_14h25.46.453,multiplicationStroop,2021.2.3,Win32,59.22065616,,,,,,,,,,,,,,,,,,,,,,,,,,,,,,,,,,,,,,,,,,,,,,,,,,,,,,,,,
,,,,right,1,0.2804,1,5,21,13,1,7,200,right,793,2022-01-17_14h25.46.453,multiplicationStroop,2021.2.3,Win32,59.22065616,,,,,,,,,,,,,,,,,,,,,,,,,,,,,,,,,,,,,,,,,,,,,,,,,,,,,,,,,
,,,,right,1,0.2885,1,6,22,12,1,6,200,right,793,2022-01-17_14h25.46.453,multiplicationStroop,2021.2.3,Win32,59.22065616,,,,,,,,,,,,,,,,,,,,,,,,,,,,,,,,,,,,,,,,,,,,,,,,,,,,,,,,,
,,,,left,1,0.3061,1,7,23,4,1,6,-200,left,793,2022-01-17_14h25.46.453,multiplicationStroop,2021.2.3,Win32,59.22065616,,,,,,,,,,,,,,,,,,,,,,,,,,,,,,,,,,,,,,,,,,,,,,,,,,,,,,,,,
,,,,right,1,0.2532,1,8,24,8,1,1,200,right,793,2022-01-17_14h25.46.453,multiplicationStroop,2021.2.3,Win32,59.22065616,,,,,,,,,,,,,,,,,,,,,,,,,,,,,,,,,,,,,,,,,,,,,,,,,,,,,,,,,
,,,,left,1,0.2498,1,9,25,2,1,3,-200,left,793,2022-01-17_14h25.46.453,multiplicationStroop,2021.2.3,Win32,59.22065616,,,,,,,,,,,,,,,,,,,,,,,,,,,,,,,,,,,,,,,,,,,,,,,,,,,,,,,,,
,,,,left,1,0.3084,1,10,26,7,1,9,-200,left,793,2022-01-17_14h25.46.453,multiplicationStroop,2021.2.3,Win32,59.22065616,,,,,,,,,,,,,,,,,,,,,,,,,,,,,,,,,,,,,,,,,,,,,,,,,,,,,,,,,
,,,,left,1,0.2474,1,11,27,3,1,4,-200,left,793,2022-01-17_14h25.46.453,multiplicationStroop,2021.2.3,Win32,59.22065616,,,,,,,,,,,,,,,,,,,,,,,,,,,,,,,,,,,,,,,,,,,,,,,,,,,,,,,,,
,,,,right,1,0.3003,1,12,28,10,1,3,200,right,793,2022-01-17_14h25.46.453,multiplicationStroop,2021.2.3,Win32,59.22065616,,,,,,,,,,,,,,,,,,,,,,,,,,,,,,,,,,,,,,,,,,,,,,,,,,,,,,,,,
,,,,right,1,0.266,1,13,29,15,1,9,200,right,793,2022-01-17_14h25.46.453,multiplicationStroop,2021.2.3,Win32,59.22065616,,,,,,,,,,,,,,,,,,,,,,,,,,,,,,,,,,,,,,,,,,,,,,,,,,,,,,,,,
,,,,left,1,0.293,1,14,30,5,1,7,-200,left,793,2022-01-17_14h25.46.453,multiplicationStroop,2021.2.3,Win32,59.22065616,,,,,,,,,,,,,,,,,,,,,,,,,,,,,,,,,,,,,,,,,,,,,,,,,,,,,,,,,
,,,,right,1,0.249,1,15,31,14,1,8,200,right,793,2022-01-17_14h25.46.453,multiplicationStroop,2021.2.3,Win32,59.22065616,,,,,,,,,,,,,,,,,,,,,,,,,,,,,,,,,,,,,,,,,,,,,,,,,,,,,,,,,
,,,,left,1,0.2695,2,0,32,7,1,9,-200,left,793,2022-01-17_14h25.46.453,multiplicationStroop,2021.2.3,Win32,59.22065616,,,,,,,,,,,,,,,,,,,,,,,,,,,,,,,,,,,,,,,,,,,,,,,,,,,,,,,,,
,,,,right,1,0.2734,2,1,33,8,1,1,200,right,793,2022-01-17_14h25.46.453,multiplicationStroop,2021.2.3,Win32,59.22065616,,,,,,,,,,,,,,,,,,,,,,,,,,,,,,,,,,,,,,,,,,,,,,,,,,,,,,,,,
,,,,right,1,0.3248,2,2,34,11,1,4,200,right,793,2022-01-17_14h25.46.453,multiplicationStroop,2021.2.3,Win32,59.22065616,,,,,,,,,,,,,,,,,,,,,,,,,,,,,,,,,,,,,,,,,,,,,,,,,,,,,,,,,
,,,,right,1,0.2867,2,3,35,15,1,9,200,right,793,2022-01-17_14h25.46.453,multiplicationStroop,2021.2.3,Win32,59.22065616,,,,,,,,,,,,,,,,,,,,,,,,,,,,,,,,,,,,,,,,,,,,,,,,,,,,,,,,,
,,,,right,1,0.2706,2,4,36,13,1,7,200,right,793,2022-01-17_14h25.46.453,multiplicationStroop,2021.2.3,Win32,59.22065616,,,,,,,,,,,,,,,,,,,,,,,,,,,,,,,,,,,,,,,,,,,,,,,,,,,,,,,,,
,,,,left,1,0.3509,2,5,37,0,1,1,-200,left,793,2022-01-17_14h25.46.453,multiplicationStroop,2021.2.3,Win32,59.22065616,,,,,,,,,,,,,,,,,,,,,,,,,,,,,,,,,,,,,,,,,,,,,,,,,,,,,,,,,
,,,,right,1,0.2341,2,6,38,9,1,2,200,right,793,2022-01-17_14h25.46.453,multiplicationStroop,2021.2.3,Win32,59.22065616,,,,,,,,,,,,,,,,,,,,,,,,,,,,,,,,,,,,,,,,,,,,,,,,,,,,,,,,,
,,,,left,1,0.2625,2,7,39,4,1,6,-200,left,793,2022-01-17_14h25.46.453,multiplicationStroop,2021.2.3,Win32,59.22065616,,,,,,,,,,,,,,,,,,,,,,,,,,,,,,,,,,,,,,,,,,,,,,,,,,,,,,,,,
,,,,right,1,0.2232,2,8,40,12,1,6,200,right,793,2022-01-17_14h25.46.453,multiplicationStroop,2021.2.3,Win32,59.22065616,,,,,,,,,,,,,,,,,,,,,,,,,,,,,,,,,,,,,,,,,,,,,,,,,,,,,,,,,
,,,,left,1,0.2135,2,9,41,2,1,3,-200,left,793,2022-01-17_14h25.46.453,multiplicationStroop,2021.2.3,Win32,59.22065616,,,,,,,,,,,,,,,,,,,,,,,,,,,,,,,,,,,,,,,,,,,,,,,,,,,,,,,,,
,,,,left,1,0.3674,2,10,42,5,1,7,-200,left,793,2022-01-17_14h25.46.453,multiplicationStroop,2021.2.3,Win32,59.22065616,,,,,,,,,,,,,,,,,,,,,,,,,,,,,,,,,,,,,,,,,,,,,,,,,,,,,,,,,
,,,,left,1,0.2417,2,11,43,6,1,8,-200,left,793,2022-01-17_14h25.46.453,multiplicationStroop,2021.2.3,Win32,59.22065616,,,,,,,,,,,,,,,,,,,,,,,,,,,,,,,,,,,,,,,,,,,,,,,,,,,,,,,,,
,,,,left,1,0.2522,2,12,44,1,1,2,-200,left,793,2022-01-17_14h25.46.453,multiplicationStroop,2021.2.3,Win32,59.22065616,,,,,,,,,,,,,,,,,,,,,,,,,,,,,,,,,,,,,,,,,,,,,,,,,,,,,,,,,
,,,,right,1,0.3718,2,13,45,10,1,3,200,right,793,2022-01-17_14h25.46.453,multiplicationStroop,2021.2.3,Win32,59.22065616,,,,,,,,,,,,,,,,,,,,,,,,,,,,,,,,,,,,,,,,,,,,,,,,,,,,,,,,,
,,,,right,1,0.3138,2,14,46,14,1,8,200,right,793,2022-01-17_14h25.46.453,multiplicationStroop,2021.2.3,Win32,59.22065616,,,,,,,,,,,,,,,,,,,,,,,,,,,,,,,,,,,,,,,,,,,,,,,,,,,,,,,,,
,,,,left,1,0.3868,2,15,47,3,1,4,-200,left,793,2022-01-17_14h25.46.453,multiplicationStroop,2021.2.3,Win32,59.22065616,,,,,,,,,,,,,,,,,,,,,,,,,,,,,,,,,,,,,,,,,,,,,,,,,,,,,,,,,
,,,,right,1,0.2586,3,0,48,8,1,1,200,right,793,2022-01-17_14h25.46.453,multiplicationStroop,2021.2.3,Win32,59.22065616,,,,,,,,,,,,,,,,,,,,,,,,,,,,,,,,,,,,,,,,,,,,,,,,,,,,,,,,,
,,,,left,1,0.2503,3,1,49,3,1,4,-200,left,793,2022-01-17_14h25.46.453,multiplicationStroop,2021.2.3,Win32,59.22065616,,,,,,,,,,,,,,,,,,,,,,,,,,,,,,,,,,,,,,,,,,,,,,,,,,,,,,,,,
,,,,right,1,0.268,3,2,50,13,1,7,200,right,793,2022-01-17_14h25.46.453,multiplicationStroop,2021.2.3,Win32,59.22065616,,,,,,,,,,,,,,,,,,,,,,,,,,,,,,,,,,,,,,,,,,,,,,,,,,,,,,,,,
,,,,right,1,0.3066,3,3,51,9,1,2,200,right,793,2022-01-17_14h25.46.453,multiplicationStroop,2021.2.3,Win32,59.22065616,,,,,,,,,,,,,,,,,,,,,,,,,,,,,,,,,,,,,,,,,,,,,,,,,,,,,,,,,
,,,,right,1,0.2867,3,4,52,14,1,8,200,right,793,2022-01-17_14h25.46.453,multiplicationStroop,2021.2.3,Win32,59.22065616,,,,,,,,,,,,,,,,,,,,,,,,,,,,,,,,,,,,,,,,,,,,,,,,,,,,,,,,,
,,,,right,1,0.2999,3,5,53,12,1,6,200,right,793,2022-01-17_14h25.46.453,multiplicationStroop,2021.2.3,Win32,59.22065616,,,,,,,,,,,,,,,,,,,,,,,,,,,,,,,,,,,,,,,,,,,,,,,,,,,,,,,,,
,,,,left,1,0.2976,3,6,54,2,1,3,-200,left,793,2022-01-17_14h25.46.453,multiplicationStroop,2021.2.3,Win32,59.22065616,,,,,,,,,,,,,,,,,,,,,,,,,,,,,,,,,,,,,,,,,,,,,,,,,,,,,,,,,
,,,,right,1,0.2522,3,7,55,15,1,9,200,right,793,2022-01-17_14h25.46.453,multiplicationStroop,2021.2.3,Win32,59.22065616,,,,,,,,,,,,,,,,,,,,,,,,,,,,,,,,,,,,,,,,,,,,,,,,,,,,,,,,,
,,,,right,1,0.2709,3,8,56,10,1,3,200,right,793,2022-01-17_14h25.46.453,multiplicationStroop,2021.2.3,Win32,59.22065616,,,,,,,,,,,,,,,,,,,,,,,,,,,,,,,,,,,,,,,,,,,,,,,,,,,,,,,,,
,,,,left,1,0.319,3,9,57,5,1,7,-200,left,793,2022-01-17_14h25.46.453,multiplicationStroop,2021.2.3,Win32,59.22065616,,,,,,,,,,,,,,,,,,,,,,,,,,,,,,,,,,,,,,,,,,,,,,,,,,,,,,,,,
,,,,left,1,0.3649,3,10,58,1,1,2,-200,left,793,2022-01-17_14h25.46.453,multiplicationStroop,2021.2.3,Win32,59.22065616,,,,,,,,,,,,,,,,,,,,,,,,,,,,,,,,,,,,,,,,,,,,,,,,,,,,,,,,,
,,,,left,1,0.3149,3,11,59,7,1,9,-200,left,793,2022-01-17_14h25.46.453,multiplicationStroop,2021.2.3,Win32,59.22065616,,,,,,,,,,,,,,,,,,,,,,,,,,,,,,,,,,,,,,,,,,,,,,,,,,,,,,,,,
,,,,left,1,0.3188,3,12,60,6,1,8,-200,left,793,2022-01-17_14h25.46.453,multiplicationStroop,2021.2.3,Win32,59.22065616,,,,,,,,,,,,,,,,,,,,,,,,,,,,,,,,,,,,,,,,,,,,,,,,,,,,,,,,,
,,,,left,0,0.2168,3,13,61,11,1,4,200,right,793,2022-01-17_14h25.46.453,multiplicationStroop,2021.2.3,Win32,59.22065616,,,,,,,,,,,,,,,,,,,,,,,,,,,,,,,,,,,,,,,,,,,,,,,,,,,,,,,,,
,,,,left,1,0.3834,3,14,62,0,1,1,-200,left,793,2022-01-17_14h25.46.453,multiplicationStroop,2021.2.3,Win32,59.22065616,,,,,,,,,,,,,,,,,,,,,,,,,,,,,,,,,,,,,,,,,,,,,,,,,,,,,,,,,
,,,,left,1,0.2731,3,15,63,4,1,6,-200,left,793,2022-01-17_14h25.46.453,multiplicationStroop,2021.2.3,Win32,59.22065616,,,,,,,,,,,,,,,,,,,,,,,,,,stimulusFile/physical.xlsx,,,,,,,,,,,,,,,,,,,,,,,,,,,,,,,
,,,,,,,,,,,,,,,793,2022-01-17_14h25.46.453,multiplicationStroop,2021.2.3,Win32,59.22065616,space,27.342,space,4.2025,right,1,0.8327,0,0,0,29,1,4,3,4 | 3,1,1.4111,1.9756,incongruent,right,,,,,,stimulusFile/physical.xlsx,,,,,,,,,,,,,,,,,,,,,,,,,,,,,,,
,,,,,,,,,,,,,,,793,2022-01-17_14h25.46.453,multiplicationStroop,2021.2.3,Win32,59.22065616,,,,,left,1,0.3619,0,1,1,41,1,2,7,2 | 7,5,1.9756,1.4111,incongruent,left,,,,,,stimulusFile/physical.xlsx,,,,,,,,,,,,,,,,,,,,,,,,,,,,,,,
,,,,,,,,,,,,,,,793,2022-01-17_14h25.46.453,multiplicationStroop,2021.2.3,Win32,59.22065616,,,,,right,1,0.4347,0,2,2,56,1,1,1,1 | 1,0,1.4111,1.9756,neutral,right,,,,,,stimulusFile/physical.xlsx,,,,,,,,,,,,,,,,,,,,,,,,,,,,,,,
,,,,,,,,,,,,,,,793,2022-01-17_14h25.46.453,multiplicationStroop,2021.2.3,Win32,59.22065616,,,,,right,1,0.4043,0,3,3,19,1,4,9,4 | 9,5,1.4111,1.9756,congruent,right,,,,,,stimulusFile/physical.xlsx,,,,,,,,,,,,,,,,,,,,,,,,,,,,,,,
,,,,,,,,,,,,,,,793,2022-01-17_14h25.46.453,multiplicationStroop,2021.2.3,Win32,59.22065616,,,,,left,1,0.3847,0,4,4,34,1,6,8,6 | 8,2,1.9756,1.4111,incongruent,left,,,,,,stimulusFile/physical.xlsx,,,,,,,,,,,,,,,,,,,,,,,,,,,,,,,
,,,,,,,,,,,,,,,793,2022-01-17_14h25.46.453,multiplicationStroop,2021.2.3,Win32,59.22065616,,,,,left,1,0.535,0,5,5,50,1,6,6,6 | 6,0,1.9756,1.4111,neutral,left,,,,,,stimulusFile/physical.xlsx,,,,,,,,,,,,,,,,,,,,,,,,,,,,,,,
,,,,,,,,,,,,,,,793,2022-01-17_14h25.46.453,multiplicationStroop,2021.2.3,Win32,59.22065616,,,,,right,1,0.4018,0,6,6,18,1,3,8,3 | 8,5,1.4111,1.9756,congruent,right,,,,,,stimulusFile/physical.xlsx,,,,,,,,,,,,,,,,,,,,,,,,,,,,,,,
,,,,,,,,,,,,,,,793,2022-01-17_14h25.46.453,multiplicationStroop,2021.2.3,Win32,59.22065616,,,,,left,1,0.4084,0,7,7,43,1,4,9,4 | 9,5,1.9756,1.4111,incongruent,left,,,,,,stimulusFile/physical.xlsx,,,,,,,,,,,,,,,,,,,,,,,,,,,,,,,
,,,,,,,,,,,,,,,793,2022-01-17_14h25.46.453,multiplicationStroop,2021.2.3,Win32,59.22065616,,,,,left,1,0.3845,0,8,8,54,1,7,7,7 | 7,0,1.9756,1.4111,neutral,left,,,,,,stimulusFile/physical.xlsx,,,,,,,,,,,,,,,,,,,,,,,,,,,,,,,
,,,,,,,,,,,,,,,793,2022-01-17_14h25.46.453,multiplicationStroop,2021.2.3,Win32,59.22065616,,,,,left,1,0.4348,0,9,9,51,1,8,8,8 | 8,0,1.9756,1.4111,neutral,left,,,,,,stimulusFile/physical.xlsx,,,,,,,,,,,,,,,,,,,,,,,,,,,,,,,
,,,,,,,,,,,,,,,793,2022-01-17_14h25.46.453,multiplicationStroop,2021.2.3,Win32,59.22065616,,,,,left,0,0.5174,0,10,10,66,1,3,3,3 | 3,0,1.9756,1.4111,neutral,right,,,,,,stimulusFile/physical.xlsx,,,,,,,,,,,,,,,,,,,,,,,,,,,,,,,
,,,,,,,,,,,,,,,793,2022-01-17_14h25.46.453,multiplicationStroop,2021.2.3,Win32,59.22065616,,,,,right,1,0.374,0,11,11,10,1,6,8,6 | 8,2,1.4111,1.9756,congruent,right,,,,,,stimulusFile/physical.xlsx,,,,,,,,,,,,,,,,,,,,,,,,,,,,,,,
,,,,,,,,,,,,,,,793,2022-01-17_14h25.46.453,multiplicationStroop,2021.2.3,Win32,59.22065616,,,,,right,1,0.4085,0,12,12,9,1,2,4,2 | 4,2,1.4111,1.9756,congruent,right,,,,,,stimulusFile/physical.xlsx,,,,,,,,,,,,,,,,,,,,,,,,,,,,,,,
,,,,,,,,,,,,,,,793,2022-01-17_14h25.46.453,multiplicationStroop,2021.2.3,Win32,59.22065616,,,,,right,1,0.4619,0,13,13,57,1,2,2,2 | 2,0,1.4111,1.9756,neutral,right,,,,,,stimulusFile/physical.xlsx,,,,,,,,,,,,,,,,,,,,,,,,,,,,,,,
,,,,,,,,,,,,,,,793,2022-01-17_14h25.46.453,multiplicationStroop,2021.2.3,Win32,59.22065616,,,,,right,1,0.3948,0,14,14,39,1,9,7,9 | 7,2,1.4111,1.9756,incongruent,right,,,,,,stimulusFile/physical.xlsx,,,,,,,,,,,,,,,,,,,,,,,,,,,,,,,
,,,,,,,,,,,,,,,793,2022-01-17_14h25.46.453,multiplicationStroop,2021.2.3,Win32,59.22065616,,,,,right,1,0.3609,0,15,15,0,1,1,2,1 | 2,1,1.4111,1.9756,congruent,right,,,,,,stimulusFile/physical.xlsx,,,,,,,,,,,,,,,,,,,,,,,,,,,,,,,
,,,,,,,,,,,,,,,793,2022-01-17_14h25.46.453,multiplicationStroop,2021.2.3,Win32,59.22065616,,,,,left,1,0.4766,0,16,16,27,1,8,9,8 | 9,1,1.9756,1.4111,incongruent,left,,,,,,stimulusFile/physical.xlsx,,,,,,,,,,,,,,,,,,,,,,,,,,,,,,,
,,,,,,,,,,,,,,,793,2022-01-17_14h25.46.453,multiplicationStroop,2021.2.3,Win32,59.22065616,,,,,right,1,0.4011,0,17,17,38,1,8,6,8 | 6,2,1.4111,1.9756,incongruent,right,,,,,,stimulusFile/physical.xlsx,,,,,,,,,,,,,,,,,,,,,,,,,,,,,,,
,,,,,,,,,,,,,,,793,2022-01-17_14h25.46.453,multiplicationStroop,2021.2.3,Win32,59.22065616,,,,,right,1,0.418,0,18,18,62,1,8,8,8 | 8,0,1.4111,1.9756,neutral,right,,,,,,stimulusFile/physical.xlsx,,,,,,,,,,,,,,,,,,,,,,,,,,,,,,,
,,,,,,,,,,,,,,,793,2022-01-17_14h25.46.453,multiplicationStroop,2021.2.3,Win32,59.22065616,,,,,right,1,0.4429,0,19,19,17,1,2,7,2 | 7,5,1.4111,1.9756,congruent,right,,,,,,stimulusFile/physical.xlsx,,,,,,,,,,,,,,,,,,,,,,,,,,,,,,,
,,,,,,,,,,,,,,,793,2022-01-17_14h25.46.453,multiplicationStroop,2021.2.3,Win32,59.22065616,,,,,left,1,0.4917,0,20,20,22,1,8,3,8 | 3,5,1.9756,1.4111,congruent,left,,,,,,stimulusFile/physical.xlsx,,,,,,,,,,,,,,,,,,,,,,,,,,,,,,,
,,,,,,,,,,,,,,,793,2022-01-17_14h25.46.453,multiplicationStroop,2021.2.3,Win32,59.22065616,,,,,left,1,0.3937,0,21,21,13,1,4,2,4 | 2,2,1.9756,1.4111,congruent,left,,,,,,stimulusFile/physical.xlsx,,,,,,,,,,,,,,,,,,,,,,,,,,,,,,,
,,,,,,,,,,,,,,,793,2022-01-17_14h25.46.453,multiplicationStroop,2021.2.3,Win32,59.22065616,,,,,right,1,0.3439,0,22,22,47,1,9,4,9 | 4,5,1.4111,1.9756,incongruent,right,,,,,,stimulusFile/physical.xlsx,,,,,,,,,,,,,,,,,,,,,,,,,,,,,,,
,,,,,,,,,,,,,,,793,2022-01-17_14h25.46.453,multiplicationStroop,2021.2.3,Win32,59.22065616,,,,,right,1,0.6528,0,23,23,37,1,4,2,4 | 2,2,1.4111,1.9756,incongruent,right,,,,,,stimulusFile/physical.xlsx,,,,,,,,,,,,,,,,,,,,,,,,,,,,,,,
,,,,,,,,,,,,,,,793,2022-01-17_14h25.46.453,multiplicationStroop,2021.2.3,Win32,59.22065616,,,,,left,1,0.3849,0,24,24,12,1,3,1,3 | 1,2,1.9756,1.4111,congruent,left,,,,,,stimulusFile/physical.xlsx,,,,,,,,,,,,,,,,,,,,,,,,,,,,,,,
,,,,,,,,,,,,,,,793,2022-01-17_14h25.46.453,multiplicationStroop,2021.2.3,Win32,59.22065616,,,,,left,1,0.4789,0,25,25,55,1,9,9,9 | 9,0,1.9756,1.4111,neutral,left,,,,,,stimulusFile/physical.xlsx,,,,,,,,,,,,,,,,,,,,,,,,,,,,,,,
,,,,,,,,,,,,,,,793,2022-01-17_14h25.46.453,multiplicationStroop,2021.2.3,Win32,59.22065616,,,,,left,1,0.4338,0,26,26,15,1,9,7,9 | 7,2,1.9756,1.4111,congruent,left,,,,,,stimulusFile/physical.xlsx,,,,,,,,,,,,,,,,,,,,,,,,,,,,,,,
,,,,,,,,,,,,,,,793,2022-01-17_14h25.46.453,multiplicationStroop,2021.2.3,Win32,59.22065616,,,,,left,1,0.3762,0,27,27,33,1,2,4,2 | 4,2,1.9756,1.4111,incongruent,left,,,,,,stimulusFile/physical.xlsx,,,,,,,,,,,,,,,,,,,,,,,,,,,,,,,
,,,,,,,,,,,,,,,793,2022-01-17_14h25.46.453,multiplicationStroop,2021.2.3,Win32,59.22065616,,,,,left,1,0.4019,0,28,28,53,1,4,4,4 | 4,0,1.9756,1.4111,neutral,left,,,,,,stimulusFile/physical.xlsx,,,,,,,,,,,,,,,,,,,,,,,,,,,,,,,
,,,,,,,,,,,,,,,793,2022-01-17_14h25.46.453,multiplicationStroop,2021.2.3,Win32,59.22065616,,,,,left,1,0.4866,0,29,29,40,1,1,6,1 | 6,5,1.9756,1.4111,incongruent,left,,,,,,stimulusFile/physical.xlsx,,,,,,,,,,,,,,,,,,,,,,,,,,,,,,,
,,,,,,,,,,,,,,,793,2022-01-17_14h25.46.453,multiplicationStroop,2021.2.3,Win32,59.22065616,,,,,right,1,0.4506,0,30,30,65,1,2,2,2 | 2,0,1.4111,1.9756,neutral,right,,,,,,stimulusFile/physical.xlsx,,,,,,,,,,,,,,,,,,,,,,,,,,,,,,,
,,,,,,,,,,,,,,,793,2022-01-17_14h25.46.453,multiplicationStroop,2021.2.3,Win32,59.22065616,,,,,right,1,0.4105,0,31,31,44,1,6,1,6 | 1,5,1.4111,1.9756,incongruent,right,,,,,,stimulusFile/physical.xlsx,,,,,,,,,,,,,,,,,,,,,,,,,,,,,,,
,,,,,,,,,,,,,,,793,2022-01-17_14h25.46.453,multiplicationStroop,2021.2.3,Win32,59.22065616,,,,,left,1,0.3976,0,32,32,23,1,9,4,9 | 4,5,1.9756,1.4111,congruent,left,,,,,,stimulusFile/physical.xlsx,,,,,,,,,,,,,,,,,,,,,,,,,,,,,,,
,,,,,,,,,,,,,,,793,2022-01-17_14h25.46.453,multiplicationStroop,2021.2.3,Win32,59.22065616,,,,,left,1,0.424,0,33,33,14,1,8,6,8 | 6,2,1.9756,1.4111,congruent,left,,,,,,stimulusFile/physical.xlsx,,,,,,,,,,,,,,,,,,,,,,,,,,,,,,,
,,,,,,,,,,,,,,,793,2022-01-17_14h25.46.453,multiplicationStroop,2021.2.3,Win32,59.22065616,,,,,right,1,0.4014,0,34,34,46,1,8,3,8 | 3,5,1.4111,1.9756,incongruent,right,,,,,,stimulusFile/physical.xlsx,,,,,,,,,,,,,,,,,,,,,,,,,,,,,,,
,,,,,,,,,,,,,,,793,2022-01-17_14h25.46.453,multiplicationStroop,2021.2.3,Win32,59.22065616,,,,,right,0,0.457,0,35,35,69,1,7,7,7 | 7,0,1.4111,1.9756,neutral,left,,,,,,stimulusFile/physical.xlsx,,,,,,,,,,,,,,,,,,,,,,,,,,,,,,,
,,,,,,,,,,,,,,,793,2022-01-17_14h25.46.453,multiplicationStroop,2021.2.3,Win32,59.22065616,,,,,right,1,0.4197,0,36,36,11,1,7,9,7 | 9,2,1.4111,1.9756,congruent,right,,,,,,stimulusFile/physical.xlsx,,,,,,,,,,,,,,,,,,,,,,,,,,,,,,,
,,,,,,,,,,,,,,,793,2022-01-17_14h25.46.453,multiplicationStroop,2021.2.3,Win32,59.22065616,,,,,right,1,0.4054,0,37,37,58,1,6,6,6 | 6,0,1.4111,1.9756,neutral,right,,,,,,stimulusFile/physical.xlsx,,,,,,,,,,,,,,,,,,,,,,,,,,,,,,,
,,,,,,,,,,,,,,,793,2022-01-17_14h25.46.453,multiplicationStroop,2021.2.3,Win32,59.22065616,,,,,left,1,0.3696,0,38,38,4,1,2,1,2 | 1,1,1.9756,1.4111,congruent,left,,,,,,stimulusFile/physical.xlsx,,,,,,,,,,,,,,,,,,,,,,,,,,,,,,,
,,,,,,,,,,,,,,,793,2022-01-17_14h25.46.453,multiplicationStroop,2021.2.3,Win32,59.22065616,,,,,left,1,0.385,0,39,39,7,1,9,8,9 | 8,1,1.9756,1.4111,congruent,left,,,,,,stimulusFile/physical.xlsx,,,,,,,,,,,,,,,,,,,,,,,,,,,,,,,
,,,,,,,,,,,,,,,793,2022-01-17_14h25.46.453,multiplicationStroop,2021.2.3,Win32,59.22065616,,,,,left,1,0.3848,0,40,40,26,1,6,7,6 | 7,1,1.9756,1.4111,incongruent,left,,,,,,stimulusFile/physical.xlsx,,,,,,,,,,,,,,,,,,,,,,,,,,,,,,,
,,,,,,,,,,,,,,,793,2022-01-17_14h25.46.453,multiplicationStroop,2021.2.3,Win32,59.22065616,,,,,right,1,0.4376,0,41,41,31,1,9,8,9 | 8,1,1.4111,1.9756,incongruent,right,,,,,,stimulusFile/physical.xlsx,,,,,,,,,,,,,,,,,,,,,,,,,,,,,,,
,,,,,,,,,,,,,,,793,2022-01-17_14h25.46.453,multiplicationStroop,2021.2.3,Win32,59.22065616,,,,,right,1,0.4999,0,42,42,67,1,4,4,4 | 4,0,1.4111,1.9756,neutral,right,,,,,,stimulusFile/physical.xlsx,,,,,,,,,,,,,,,,,,,,,,,,,,,,,,,
,,,,,,,,,,,,,,,793,2022-01-17_14h25.46.453,multiplicationStroop,2021.2.3,Win32,59.22065616,,,,,right,1,0.3854,0,43,43,63,1,9,9,9 | 9,0,1.4111,1.9756,neutral,right,,,,,,stimulusFile/physical.xlsx,,,,,,,,,,,,,,,,,,,,,,,,,,,,,,,
,,,,,,,,,,,,,,,793,2022-01-17_14h25.46.453,multiplicationStroop,2021.2.3,Win32,59.22065616,,,,,left,0,0.3945,0,44,44,28,1,2,1,2 | 1,1,1.4111,1.9756,incongruent,right,,,,,,stimulusFile/physical.xlsx,,,,,,,,,,,,,,,,,,,,,,,,,,,,,,,
,,,,,,,,,,,,,,,793,2022-01-17_14h25.46.453,multiplicationStroop,2021.2.3,Win32,59.22065616,,,,,left,1,0.4856,0,45,45,42,1,3,8,3 | 8,5,1.9756,1.4111,incongruent,left,,,,,,stimulusFile/physical.xlsx,,,,,,,,,,,,,,,,,,,,,,,,,,,,,,,
,,,,,,,,,,,,,,,793,2022-01-17_14h25.46.453,multiplicationStroop,2021.2.3,Win32,59.22065616,,,,,left,1,0.4678,0,46,46,21,1,7,2,7 | 2,5,1.9756,1.4111,congruent,left,,,,,,stimulusFile/physical.xlsx,,,,,,,,,,,,,,,,,,,,,,,,,,,,,,,
,,,,,,,,,,,,,,,793,2022-01-17_14h25.46.453,multiplicationStroop,2021.2.3,Win32,59.22065616,,,,,left,1,0.5013,0,47,47,5,1,4,3,4 | 3,1,1.9756,1.4111,congruent,left,,,,,,stimulusFile/physical.xlsx,,,,,,,,,,,,,,,,,,,,,,,,,,,,,,,
,,,,,,,,,,,,,,,793,2022-01-17_14h25.46.453,multiplicationStroop,2021.2.3,Win32,59.22065616,,,,,right,1,0.4436,0,48,48,2,1,6,7,6 | 7,1,1.4111,1.9756,congruent,right,,,,,,stimulusFile/physical.xlsx,,,,,,,,,,,,,,,,,,,,,,,,,,,,,,,
,,,,,,,,,,,,,,,793,2022-01-17_14h25.46.453,multiplicationStroop,2021.2.3,Win32,59.22065616,,,,,left,1,0.4231,0,49,49,49,1,3,3,3 | 3,0,1.9756,1.4111,neutral,left,,,,,,stimulusFile/physical.xlsx,,,,,,,,,,,,,,,,,,,,,,,,,,,,,,,
,,,,,,,,,,,,,,,793,2022-01-17_14h25.46.453,multiplicationStroop,2021.2.3,Win32,59.22065616,,,,,right,1,0.3545,0,50,50,61,1,4,4,4 | 4,0,1.4111,1.9756,neutral,right,,,,,,stimulusFile/physical.xlsx,,,,,,,,,,,,,,,,,,,,,,,,,,,,,,,
,,,,,,,,,,,,,,,793,2022-01-17_14h25.46.453,multiplicationStroop,2021.2.3,Win32,59.22065616,,,,,left,1,0.421,0,51,51,68,1,6,6,6 | 6,0,1.9756,1.4111,neutral,left,,,,,,stimulusFile/physical.xlsx,,,,,,,,,,,,,,,,,,,,,,,,,,,,,,,
,,,,,,,,,,,,,,,793,2022-01-17_14h25.46.453,multiplicationStroop,2021.2.3,Win32,59.22065616,,,,,left,1,0.4106,0,52,52,32,1,1,3,1 | 3,2,1.9756,1.4111,incongruent,left,,,,,,stimulusFile/physical.xlsx,,,,,,,,,,,,,,,,,,,,,,,,,,,,,,,
,,,,,,,,,,,,,,,793,2022-01-17_14h25.46.453,multiplicationStroop,2021.2.3,Win32,59.22065616,,,,,left,1,0.4022,0,53,53,48,1,1,1,1 | 1,0,1.9756,1.4111,neutral,left,,,,,,stimulusFile/physical.xlsx,,,,,,,,,,,,,,,,,,,,,,,,,,,,,,,
,,,,,,,,,,,,,,,793,2022-01-17_14h25.46.453,multiplicationStroop,2021.2.3,Win32,59.22065616,,,,,left,1,0.4012,0,54,54,70,1,8,8,8 | 8,0,1.9756,1.4111,neutral,left,,,,,,stimulusFile/physical.xlsx,,,,,,,,,,,,,,,,,,,,,,,,,,,,,,,
,,,,,,,,,,,,,,,793,2022-01-17_14h25.46.453,multiplicationStroop,2021.2.3,Win32,59.22065616,,,,,right,1,0.4018,0,55,55,16,1,1,6,1 | 6,5,1.4111,1.9756,congruent,right,,,,,,stimulusFile/physical.xlsx,,,,,,,,,,,,,,,,,,,,,,,,,,,,,,,
,,,,,,,,,,,,,,,793,2022-01-17_14h25.46.453,multiplicationStroop,2021.2.3,Win32,59.22065616,,,,,left,1,0.4559,0,56,56,24,1,1,2,1 | 2,1,1.9756,1.4111,incongruent,left,,,,,,stimulusFile/physical.xlsx,,,,,,,,,,,,,,,,,,,,,,,,,,,,,,,
,,,,,,,,,,,,,,,793,2022-01-17_14h25.46.453,multiplicationStroop,2021.2.3,Win32,59.22065616,,,,,right,1,0.4114,0,57,57,3,1,8,9,8 | 9,1,1.4111,1.9756,congruent,right,,,,,,stimulusFile/physical.xlsx,,,,,,,,,,,,,,,,,,,,,,,,,,,,,,,
,,,,,,,,,,,,,,,793,2022-01-17_14h25.46.453,multiplicationStroop,2021.2.3,Win32,59.22065616,,,,,left,0,0.3888,0,58,58,64,1,1,1,1 | 1,0,1.9756,1.4111,neutral,right,,,,,,stimulusFile/physical.xlsx,,,,,,,,,,,,,,,,,,,,,,,,,,,,,,,
,,,,,,,,,,,,,,,793,2022-01-17_14h25.46.453,multiplicationStroop,2021.2.3,Win32,59.22065616,,,,,right,1,0.338,0,59,59,30,1,7,6,7 | 6,1,1.4111,1.9756,incongruent,right,,,,,,stimulusFile/physical.xlsx,,,,,,,,,,,,,,,,,,,,,,,,,,,,,,,
,,,,,,,,,,,,,,,793,2022-01-17_14h25.46.453,multiplicationStroop,2021.2.3,Win32,59.22065616,,,,,left,1,0.3906,0,60,60,52,1,2,2,2 | 2,0,1.9756,1.4111,neutral,left,,,,,,stimulusFile/physical.xlsx,,,,,,,,,,,,,,,,,,,,,,,,,,,,,,,
,,,,,,,,,,,,,,,793,2022-01-17_14h25.46.453,multiplicationStroop,2021.2.3,Win32,59.22065616,,,,,right,1,0.335,0,61,61,59,1,7,7,7 | 7,0,1.4111,1.9756,neutral,right,,,,,,stimulusFile/physical.xlsx,,,,,,,,,,,,,,,,,,,,,,,,,,,,,,,
,,,,,,,,,,,,,,,793,2022-01-17_14h25.46.453,multiplicationStroop,2021.2.3,Win32,59.22065616,,,,,right,1,0.4341,0,62,62,1,1,3,4,3 | 4,1,1.4111,1.9756,congruent,right,,,,,,stimulusFile/physical.xlsx,,,,,,,,,,,,,,,,,,,,,,,,,,,,,,,
,,,,,,,,,,,,,,,793,2022-01-17_14h25.46.453,multiplicationStroop,2021.2.3,Win32,59.22065616,,,,,right,1,0.3898,0,63,63,8,1,1,3,1 | 3,2,1.4111,1.9756,congruent,right,,,,,,stimulusFile/physical.xlsx,,,,,,,,,,,,,,,,,,,,,,,,,,,,,,,
,,,,,,,,,,,,,,,793,2022-01-17_14h25.46.453,multiplicationStroop,2021.2.3,Win32,59.22065616,,,,,right,0,0.401,0,64,64,71,1,9,9,9 | 9,0,1.4111,1.9756,neutral,left,,,,,,stimulusFile/physical.xlsx,,,,,,,,,,,,,,,,,,,,,,,,,,,,,,,
,,,,,,,,,,,,,,,793,2022-01-17_14h25.46.453,multiplicationStroop,2021.2.3,Win32,59.22065616,,,,,left,0,0.4755,0,65,65,36,1,3,1,3 | 1,2,1.4111,1.9756,incongruent,right,,,,,,stimulusFile/physical.xlsx,,,,,,,,,,,,,,,,,,,,,,,,,,,,,,,
,,,,,,,,,,,,,,,793,2022-01-17_14h25.46.453,multiplicationStroop,2021.2.3,Win32,59.22065616,,,,,left,1,0.5686,0,66,66,35,1,7,9,7 | 9,2,1.9756,1.4111,incongruent,left,,,,,,stimulusFile/physical.xlsx,,,,,,,,,,,,,,,,,,,,,,,,,,,,,,,
,,,,,,,,,,,,,,,793,2022-01-17_14h25.46.453,multiplicationStroop,2021.2.3,Win32,59.22065616,,,,,right,1,0.4366,0,67,67,45,1,7,2,7 | 2,5,1.4111,1.9756,incongruent,right,,,,,,stimulusFile/physical.xlsx,,,,,,,,,,,,,,,,,,,,,,,,,,,,,,,
,,,,,,,,,,,,,,,793,2022-01-17_14h25.46.453,multiplicationStroop,2021.2.3,Win32,59.22065616,,,,,left,1,0.5181,0,68,68,25,1,3,4,3 | 4,1,1.9756,1.4111,incongruent,left,,,,,,stimulusFile/physical.xlsx,,,,,,,,,,,,,,,,,,,,,,,,,,,,,,,
,,,,,,,,,,,,,,,793,2022-01-17_14h25.46.453,multiplicationStroop,2021.2.3,Win32,59.22065616,,,,,left,1,1.6783,0,69,69,6,1,7,6,7 | 6,1,1.9756,1.4111,congruent,left,,,,,,stimulusFile/physical.xlsx,,,,,,,,,,,,,,,,,,,,,,,,,,,,,,,
,,,,,,,,,,,,,,,793,2022-01-17_14h25.46.453,multiplicationStroop,2021.2.3,Win32,59.22065616,,,,,right,1,0.4552,0,70,70,60,1,3,3,3 | 3,0,1.4111,1.9756,neutral,right,,,,,,stimulusFile/physical.xlsx,,,,,,,,,,,,,,,,,,,,,,,,,,,,,,,
,,,,,,,,,,,,,,,793,2022-01-17_14h25.46.453,multiplicationStroop,2021.2.3,Win32,59.22065616,,,,,left,1,0.378,0,71,71,20,1,6,1,6 | 1,5,1.9756,1.4111,congruent,left,,,,,,stimulusFile/physical.xlsx,,,,,,,,,,,,,,,,,,,,,,,,,,,,,,,
,,,,,,,,,,,,,,,793,2022-01-17_14h25.46.453,multiplicationStroop,2021.2.3,Win32,59.22065616,,,,,,,,,,,,,,,,,,,,,0,0,0,1,1,stimulusFile/physical.xlsx,PHYSICALLY larger (larger font size).,images/physicallyLarger.png,,,,,,,,,,,,,,,,,,,,,,,,,,,,,
,,,,,,,,,,,,,,,793,2022-01-17_14h25.46.453,multiplicationStroop,2021.2.3,Win32,59.22065616,space,7.0812,space,3.7021,left,1,0.8029,0,0,0,23,1,9,4,9 | 4,5,1.9756,1.4111,congruent,left,,,,,,stimulusFile/magnitude.xlsx,,,,,,,,,,,,,,,,,,,,,,,,,,,,,,,
,,,,,,,,,,,,,,,793,2022-01-17_14h25.46.453,multiplicationStroop,2021.2.3,Win32,59.22065616,,,,,left,1,0.5691,0,1,1,60,1,3,1,3 | 1,2,1.6933,1.6933,neutral,left,,,,,,stimulusFile/magnitude.xlsx,,,,,,,,,,,,,,,,,,,,,,,,,,,,,,,
,,,,,,,,,,,,,,,793,2022-01-17_14h25.46.453,multiplicationStroop,2021.2.3,Win32,59.22065616,,,,,left,1,0.75,0,2,2,7,1,9,8,9 | 8,1,1.9756,1.4111,congruent,left,,,,,,stimulusFile/magnitude.xlsx,,,,,,,,,,,,,,,,,,,,,,,,,,,,,,,
,,,,,,,,,,,,,,,793,2022-01-17_14h25.46.453,multiplicationStroop,2021.2.3,Win32,59.22065616,,,,,left,1,0.5326,0,3,3,6,1,7,6,7 | 6,1,1.9756,1.4111,congruent,left,,,,,,stimulusFile/magnitude.xlsx,,,,,,,,,,,,,,,,,,,,,,,,,,,,,,,
,,,,,,,,,,,,,,,793,2022-01-17_14h25.46.453,multiplicationStroop,2021.2.3,Win32,59.22065616,,,,,left,1,1.1476,0,4,4,36,1,3,1,3 | 1,2,1.4111,1.9756,incongruent,left,,,,,,stimulusFile/magnitude.xlsx,,,,,,,,,,,,,,,,,,,,,,,,,,,,,,,
,,,,,,,,,,,,,,,793,2022-01-17_14h25.46.453,multiplicationStroop,2021.2.3,Win32,59.22065616,,,,,right,1,0.8049,0,5,5,35,1,7,9,7 | 9,2,1.9756,1.4111,incongruent,right,,,,,,stimulusFile/magnitude.xlsx,,,,,,,,,,,,,,,,,,,,,,,,,,,,,,,
,,,,,,,,,,,,,,,793,2022-01-17_14h25.46.453,multiplicationStroop,2021.2.3,Win32,59.22065616,,,,,right,1,0.5212,0,6,6,0,1,1,2,1 | 2,1,1.4111,1.9756,congruent,right,,,,,,stimulusFile/magnitude.xlsx,,,,,,,,,,,,,,,,,,,,,,,,,,,,,,,
,,,,,,,,,,,,,,,793,2022-01-17_14h25.46.453,multiplicationStroop,2021.2.3,Win32,59.22065616,,,,,right,1,0.4527,0,7,7,9,1,2,4,2 | 4,2,1.4111,1.9756,congruent,right,,,,,,stimulusFile/magnitude.xlsx,,,,,,,,,,,,,,,,,,,,,,,,,,,,,,,
,,,,,,,,,,,,,,,793,2022-01-17_14h25.46.453,multiplicationStroop,2021.2.3,Win32,59.22065616,,,,,right,1,0.4278,0,8,8,64,1,1,6,1 | 6,5,1.6933,1.6933,neutral,right,,,,,,stimulusFile/magnitude.xlsx,,,,,,,,,,,,,,,,,,,,,,,,,,,,,,,
,,,,,,,,,,,,,,,793,2022-01-17_14h25.46.453,multiplicationStroop,2021.2.3,Win32,59.22065616,,,,,right,1,0.4883,0,9,9,19,1,4,9,4 | 9,5,1.4111,1.9756,congruent,right,,,,,,stimulusFile/magnitude.xlsx,,,,,,,,,,,,,,,,,,,,,,,,,,,,,,,
,,,,,,,,,,,,,,,793,2022-01-17_14h25.46.453,multiplicationStroop,2021.2.3,Win32,59.22065616,,,,,right,1,0.6387,0,10,10,59,1,7,9,7 | 9,2,1.6933,1.6933,neutral,right,,,,,,stimulusFile/magnitude.xlsx,,,,,,,,,,,,,,,,,,,,,,,,,,,,,,,
,,,,,,,,,,,,,,,793,2022-01-17_14h25.46.453,multiplicationStroop,2021.2.3,Win32,59.22065616,,,,,left,1,0.8449,0,11,11,4,1,2,1,2 | 1,1,1.9756,1.4111,congruent,left,,,,,,stimulusFile/magnitude.xlsx,,,,,,,,,,,,,,,,,,,,,,,,,,,,,,,
,,,,,,,,,,,,,,,793,2022-01-17_14h25.46.453,multiplicationStroop,2021.2.3,Win32,59.22065616,,,,,right,1,0.6039,0,12,12,3,1,8,9,8 | 9,1,1.4111,1.9756,congruent,right,,,,,,stimulusFile/magnitude.xlsx,,,,,,,,,,,,,,,,,,,,,,,,,,,,,,,
,,,,,,,,,,,,,,,793,2022-01-17_14h25.46.453,multiplicationStroop,2021.2.3,Win32,59.22065616,,,,,right,1,0.9056,0,13,13,58,1,6,8,6 | 8,2,1.6933,1.6933,neutral,right,,,,,,stimulusFile/magnitude.xlsx,,,,,,,,,,,,,,,,,,,,,,,,,,,,,,,
,,,,,,,,,,,,,,,793,2022-01-17_14h25.46.453,multiplicationStroop,2021.2.3,Win32,59.22065616,,,,,left,1,0.5186,0,14,14,5,1,4,3,4 | 3,1,1.9756,1.4111,congruent,left,,,,,,stimulusFile/magnitude.xlsx,,,,,,,,,,,,,,,,,,,,,,,,,,,,,,,
,,,,,,,,,,,,,,,793,2022-01-17_14h25.46.453,multiplicationStroop,2021.2.3,Win32,59.22065616,,,,,right,1,0.7587,0,15,15,50,1,6,7,6 | 7,1,1.6933,1.6933,neutral,right,,,,,,stimulusFile/magnitude.xlsx,,,,,,,,,,,,,,,,,,,,,,,,,,,,,,,
,,,,,,,,,,,,,,,793,2022-01-17_14h25.46.453,multiplicationStroop,2021.2.3,Win32,59.22065616,,,,,left,0,0.5157,0,16,16,27,1,8,9,8 | 9,1,1.9756,1.4111,incongruent,right,,,,,,stimulusFile/magnitude.xlsx,,,,,,,,,,,,,,,,,,,,,,,,,,,,,,,
,,,,,,,,,,,,,,,793,2022-01-17_14h25.46.453,multiplicationStroop,2021.2.3,Win32,59.22065616,,,,,left,1,0.4638,0,17,17,14,1,8,6,8 | 6,2,1.9756,1.4111,congruent,left,,,,,,stimulusFile/magnitude.xlsx,,,,,,,,,,,,,,,,,,,,,,,,,,,,,,,
,,,,,,,,,,,,,,,793,2022-01-17_14h25.46.453,multiplicationStroop,2021.2.3,Win32,59.22065616,,,,,right,1,0.55,0,18,18,40,1,1,6,1 | 6,5,1.9756,1.4111,incongruent,right,,,,,,stimulusFile/magnitude.xlsx,,,,,,,,,,,,,,,,,,,,,,,,,,,,,,,
,,,,,,,,,,,,,,,793,2022-01-17_14h25.46.453,multiplicationStroop,2021.2.3,Win32,59.22065616,,,,,right,1,0.6975,0,19,19,24,1,1,2,1 | 2,1,1.9756,1.4111,incongruent,right,,,,,,stimulusFile/magnitude.xlsx,,,,,,,,,,,,,,,,,,,,,,,,,,,,,,,
,,,,,,,,,,,,,,,793,2022-01-17_14h25.46.453,multiplicationStroop,2021.2.3,Win32,59.22065616,,,,,right,1,0.6137,0,20,20,26,1,6,7,6 | 7,1,1.9756,1.4111,incongruent,right,,,,,,stimulusFile/magnitude.xlsx,,,,,,,,,,,,,,,,,,,,,,,,,,,,,,,
,,,,,,,,,,,,,,,793,2022-01-17_14h25.46.453,multiplicationStroop,2021.2.3,Win32,59.22065616,,,,,left,1,0.9053,0,21,21,12,1,3,1,3 | 1,2,1.9756,1.4111,congruent,left,,,,,,stimulusFile/magnitude.xlsx,,,,,,,,,,,,,,,,,,,,,,,,,,,,,,,
,,,,,,,,,,,,,,,793,2022-01-17_14h25.46.453,multiplicationStroop,2021.2.3,Win32,59.22065616,,,,,left,1,0.7998,0,22,22,62,1,8,6,8 | 6,2,1.6933,1.6933,neutral,left,,,,,,stimulusFile/magnitude.xlsx,,,,,,,,,,,,,,,,,,,,,,,,,,,,,,,
,,,,,,,,,,,,,,,793,2022-01-17_14h25.46.453,multiplicationStroop,2021.2.3,Win32,59.22065616,,,,,right,1,0.5468,0,23,23,10,1,6,8,6 | 8,2,1.4111,1.9756,congruent,right,,,,,,stimulusFile/magnitude.xlsx,,,,,,,,,,,,,,,,,,,,,,,,,,,,,,,
,,,,,,,,,,,,,,,793,2022-01-17_14h25.46.453,multiplicationStroop,2021.2.3,Win32,59.22065616,,,,,left,1,0.4993,0,24,24,52,1,2,1,2 | 1,1,1.6933,1.6933,neutral,left,,,,,,stimulusFile/magnitude.xlsx,,,,,,,,,,,,,,,,,,,,,,,,,,,,,,,
,,,,,,,,,,,,,,,793,2022-01-17_14h25.46.453,multiplicationStroop,2021.2.3,Win32,59.22065616,,,,,right,1,0.5758,0,25,25,11,1,7,9,7 | 9,2,1.4111,1.9756,congruent,right,,,,,,stimulusFile/magnitude.xlsx,,,,,,,,,,,,,,,,,,,,,,,,,,,,,,,
,,,,,,,,,,,,,,,793,2022-01-17_14h25.46.453,multiplicationStroop,2021.2.3,Win32,59.22065616,,,,,left,1,0.5433,0,26,26,15,1,9,7,9 | 7,2,1.9756,1.4111,congruent,left,,,,,,stimulusFile/magnitude.xlsx,,,,,,,,,,,,,,,,,,,,,,,,,,,,,,,
,,,,,,,,,,,,,,,793,2022-01-17_14h25.46.453,multiplicationStroop,2021.2.3,Win32,59.22065616,,,,,left,1,1.019,0,27,27,31,1,9,8,9 | 8,1,1.4111,1.9756,incongruent,left,,,,,,stimulusFile/magnitude.xlsx,,,,,,,,,,,,,,,,,,,,,,,,,,,,,,,
,,,,,,,,,,,,,,,793,2022-01-17_14h25.46.453,multiplicationStroop,2021.2.3,Win32,59.22065616,,,,,left,1,0.5676,0,28,28,63,1,9,7,9 | 7,2,1.6933,1.6933,neutral,left,,,,,,stimulusFile/magnitude.xlsx,,,,,,,,,,,,,,,,,,,,,,,,,,,,,,,
,,,,,,,,,,,,,,,793,2022-01-17_14h25.46.453,multiplicationStroop,2021.2.3,Win32,59.22065616,,,,,left,1,0.8243,0,29,29,39,1,9,7,9 | 7,2,1.4111,1.9756,incongruent,left,,,,,,stimulusFile/magnitude.xlsx,,,,,,,,,,,,,,,,,,,,,,,,,,,,,,,
,,,,,,,,,,,,,,,793,2022-01-17_14h25.46.453,multiplicationStroop,2021.2.3,Win32,59.22065616,,,,,right,1,0.4763,0,30,30,18,1,3,8,3 | 8,5,1.4111,1.9756,congruent,right,,,,,,stimulusFile/magnitude.xlsx,,,,,,,,,,,,,,,,,,,,,,,,,,,,,,,
,,,,,,,,,,,,,,,793,2022-01-17_14h25.46.453,multiplicationStroop,2021.2.3,Win32,59.22065616,,,,,right,1,0.5387,0,31,31,16,1,1,6,1 | 6,5,1.4111,1.9756,congruent,right,,,,,,stimulusFile/magnitude.xlsx,,,,,,,,,,,,,,,,,,,,,,,,,,,,,,,
,,,,,,,,,,,,,,,793,2022-01-17_14h25.46.453,multiplicationStroop,2021.2.3,Win32,59.22065616,,,,,right,1,0.7334,0,32,32,1,1,3,4,3 | 4,1,1.4111,1.9756,congruent,right,,,,,,stimulusFile/magnitude.xlsx,,,,,,,,,,,,,,,,,,,,,,,,,,,,,,,
,,,,,,,,,,,,,,,793,2022-01-17_14h25.46.453,multiplicationStroop,2021.2.3,Win32,59.22065616,,,,,right,1,0.68,0,33,33,49,1,3,4,3 | 4,1,1.6933,1.6933,neutral,right,,,,,,stimulusFile/magnitude.xlsx,,,,,,,,,,,,,,,,,,,,,,,,,,,,,,,
,,,,,,,,,,,,,,,793,2022-01-17_14h25.46.453,multiplicationStroop,2021.2.3,Win32,59.22065616,,,,,left,1,0.6818,0,34,34,37,1,4,2,4 | 2,2,1.4111,1.9756,incongruent,left,,,,,,stimulusFile/magnitude.xlsx,,,,,,,,,,,,,,,,,,,,,,,,,,,,,,,
,,,,,,,,,,,,,,,793,2022-01-17_14h25.46.453,multiplicationStroop,2021.2.3,Win32,59.22065616,,,,,left,1,0.5328,0,35,35,21,1,7,2,7 | 2,5,1.9756,1.4111,congruent,left,,,,,,stimulusFile/magnitude.xlsx,,,,,,,,,,,,,,,,,,,,,,,,,,,,,,,
,,,,,,,,,,,,,,,793,2022-01-17_14h25.46.453,multiplicationStroop,2021.2.3,Win32,59.22065616,,,,,left,1,0.6265,0,36,36,30,1,7,6,7 | 6,1,1.4111,1.9756,incongruent,left,,,,,,stimulusFile/magnitude.xlsx,,,,,,,,,,,,,,,,,,,,,,,,,,,,,,,
,,,,,,,,,,,,,,,793,2022-01-17_14h25.46.453,multiplicationStroop,2021.2.3,Win32,59.22065616,,,,,right,1,0.7617,0,37,37,2,1,6,7,6 | 7,1,1.4111,1.9756,congruent,right,,,,,,stimulusFile/magnitude.xlsx,,,,,,,,,,,,,,,,,,,,,,,,,,,,,,,
,,,,,,,,,,,,,,,793,2022-01-17_14h25.46.453,multiplicationStroop,2021.2.3,Win32,59.22065616,,,,,left,1,0.6804,0,38,38,45,1,7,2,7 | 2,5,1.4111,1.9756,incongruent,left,,,,,,stimulusFile/magnitude.xlsx,,,,,,,,,,,,,,,,,,,,,,,,,,,,,,,
,,,,,,,,,,,,,,,793,2022-01-17_14h25.46.453,multiplicationStroop,2021.2.3,Win32,59.22065616,,,,,right,1,0.6654,0,39,39,51,1,8,9,8 | 9,1,1.6933,1.6933,neutral,right,,,,,,stimulusFile/magnitude.xlsx,,,,,,,,,,,,,,,,,,,,,,,,,,,,,,,
,,,,,,,,,,,,,,,793,2022-01-17_14h25.46.453,multiplicationStroop,2021.2.3,Win32,59.22065616,,,,,right,1,0.498,0,40,40,8,1,1,3,1 | 3,2,1.4111,1.9756,congruent,right,,,,,,stimulusFile/magnitude.xlsx,,,,,,,,,,,,,,,,,,,,,,,,,,,,,,,
,,,,,,,,,,,,,,,793,2022-01-17_14h25.46.453,multiplicationStroop,2021.2.3,Win32,59.22065616,,,,,left,0,0.5371,0,41,41,41,1,2,7,2 | 7,5,1.9756,1.4111,incongruent,right,,,,,,stimulusFile/magnitude.xlsx,,,,,,,,,,,,,,,,,,,,,,,,,,,,,,,
,,,,,,,,,,,,,,,793,2022-01-17_14h25.46.453,multiplicationStroop,2021.2.3,Win32,59.22065616,,,,,right,1,1.5641,0,42,42,42,1,3,8,3 | 8,5,1.9756,1.4111,incongruent,right,,,,,,stimulusFile/magnitude.xlsx,,,,,,,,,,,,,,,,,,,,,,,,,,,,,,,
,,,,,,,,,,,,,,,793,2022-01-17_14h25.46.453,multiplicationStroop,2021.2.3,Win32,59.22065616,,,,,left,1,0.7952,0,43,43,29,1,4,3,4 | 3,1,1.4111,1.9756,incongruent,left,,,,,,stimulusFile/magnitude.xlsx,,,,,,,,,,,,,,,,,,,,,,,,,,,,,,,
,,,,,,,,,,,,,,,793,2022-01-17_14h25.46.453,multiplicationStroop,2021.2.3,Win32,59.22065616,,,,,left,1,0.5977,0,44,44,68,1,6,1,6 | 1,5,1.6933,1.6933,neutral,left,,,,,,stimulusFile/magnitude.xlsx,,,,,,,,,,,,,,,,,,,,,,,,,,,,,,,
,,,,,,,,,,,,,,,793,2022-01-17_14h25.46.453,multiplicationStroop,2021.2.3,Win32,59.22065616,,,,,right,1,0.5131,0,45,45,17,1,2,7,2 | 7,5,1.4111,1.9756,congruent,right,,,,,,stimulusFile/magnitude.xlsx,,,,,,,,,,,,,,,,,,,,,,,,,,,,,,,
,,,,,,,,,,,,,,,793,2022-01-17_14h25.46.453,multiplicationStroop,2021.2.3,Win32,59.22065616,,,,,left,1,0.5101,0,46,46,71,1,9,4,9 | 4,5,1.6933,1.6933,neutral,left,,,,,,stimulusFile/magnitude.xlsx,,,,,,,,,,,,,,,,,,,,,,,,,,,,,,,
,,,,,,,,,,,,,,,793,2022-01-17_14h25.46.453,multiplicationStroop,2021.2.3,Win32,59.22065616,,,,,right,1,0.5979,0,47,47,34,1,6,8,6 | 8,2,1.9756,1.4111,incongruent,right,,,,,,stimulusFile/magnitude.xlsx,,,,,,,,,,,,,,,,,,,,,,,,,,,,,,,
,,,,,,,,,,,,,,,793,2022-01-17_14h25.46.453,multiplicationStroop,2021.2.3,Win32,59.22065616,,,,,left,1,0.5398,0,48,48,61,1,4,2,4 | 2,2,1.6933,1.6933,neutral,left,,,,,,stimulusFile/magnitude.xlsx,,,,,,,,,,,,,,,,,,,,,,,,,,,,,,,
,,,,,,,,,,,,,,,793,2022-01-17_14h25.46.453,multiplicationStroop,2021.2.3,Win32,59.22065616,,,,,right,1,0.5828,0,49,49,43,1,4,9,4 | 9,5,1.9756,1.4111,incongruent,right,,,,,,stimulusFile/magnitude.xlsx,,,,,,,,,,,,,,,,,,,,,,,,,,,,,,,
,,,,,,,,,,,,,,,793,2022-01-17_14h25.46.453,multiplicationStroop,2021.2.3,Win32,59.22065616,,,,,left,1,0.5123,0,50,50,22,1,8,3,8 | 3,5,1.9756,1.4111,congruent,left,,,,,,stimulusFile/magnitude.xlsx,,,,,,,,,,,,,,,,,,,,,,,,,,,,,,,
,,,,,,,,,,,,,,,793,2022-01-17_14h25.46.453,multiplicationStroop,2021.2.3,Win32,59.22065616,,,,,left,1,0.5799,0,51,51,53,1,4,3,4 | 3,1,1.6933,1.6933,neutral,left,,,,,,stimulusFile/magnitude.xlsx,,,,,,,,,,,,,,,,,,,,,,,,,,,,,,,
,,,,,,,,,,,,,,,793,2022-01-17_14h25.46.453,multiplicationStroop,2021.2.3,Win32,59.22065616,,,,,left,1,0.654,0,52,52,38,1,8,6,8 | 6,2,1.4111,1.9756,incongruent,left,,,,,,stimulusFile/magnitude.xlsx,,,,,,,,,,,,,,,,,,,,,,,,,,,,,,,
,,,,,,,,,,,,,,,793,2022-01-17_14h25.46.453,multiplicationStroop,2021.2.3,Win32,59.22065616,,,,,right,1,0.5331,0,53,53,57,1,2,4,2 | 4,2,1.6933,1.6933,neutral,right,,,,,,stimulusFile/magnitude.xlsx,,,,,,,,,,,,,,,,,,,,,,,,,,,,,,,
,,,,,,,,,,,,,,,793,2022-01-17_14h25.46.453,multiplicationStroop,2021.2.3,Win32,59.22065616,,,,,left,1,0.5689,0,54,54,70,1,8,3,8 | 3,5,1.6933,1.6933,neutral,left,,,,,,stimulusFile/magnitude.xlsx,,,,,,,,,,,,,,,,,,,,,,,,,,,,,,,
,,,,,,,,,,,,,,,793,2022-01-17_14h25.46.453,multiplicationStroop,2021.2.3,Win32,59.22065616,,,,,left,1,0.634,0,55,55,46,1,8,3,8 | 3,5,1.4111,1.9756,incongruent,left,,,,,,stimulusFile/magnitude.xlsx,,,,,,,,,,,,,,,,,,,,,,,,,,,,,,,
,,,,,,,,,,,,,,,793,2022-01-17_14h25.46.453,multiplicationStroop,2021.2.3,Win32,59.22065616,,,,,right,1,0.5118,0,56,56,66,1,3,8,3 | 8,5,1.6933,1.6933,neutral,right,,,,,,stimulusFile/magnitude.xlsx,,,,,,,,,,,,,,,,,,,,,,,,,,,,,,,
,,,,,,,,,,,,,,,793,2022-01-17_14h25.46.453,multiplicationStroop,2021.2.3,Win32,59.22065616,,,,,right,1,0.6464,0,57,57,56,1,1,3,1 | 3,2,1.6933,1.6933,neutral,right,,,,,,stimulusFile/magnitude.xlsx,,,,,,,,,,,,,,,,,,,,,,,,,,,,,,,
,,,,,,,,,,,,,,,793,2022-01-17_14h25.46.453,multiplicationStroop,2021.2.3,Win32,59.22065616,,,,,right,1,0.6325,0,58,58,25,1,3,4,3 | 4,1,1.9756,1.4111,incongruent,right,,,,,,stimulusFile/magnitude.xlsx,,,,,,,,,,,,,,,,,,,,,,,,,,,,,,,
,,,,,,,,,,,,,,,793,2022-01-17_14h25.46.453,multiplicationStroop,2021.2.3,Win32,59.22065616,,,,,left,1,0.5679,0,59,59,28,1,2,1,2 | 1,1,1.4111,1.9756,incongruent,left,,,,,,stimulusFile/magnitude.xlsx,,,,,,,,,,,,,,,,,,,,,,,,,,,,,,,
,,,,,,,,,,,,,,,793,2022-01-17_14h25.46.453,multiplicationStroop,2021.2.3,Win32,59.22065616,,,,,right,1,0.4916,0,60,60,48,1,1,2,1 | 2,1,1.6933,1.6933,neutral,right,,,,,,stimulusFile/magnitude.xlsx,,,,,,,,,,,,,,,,,,,,,,,,,,,,,,,
,,,,,,,,,,,,,,,793,2022-01-17_14h25.46.453,multiplicationStroop,2021.2.3,Win32,59.22065616,,,,,left,1,0.4286,0,61,61,20,1,6,1,6 | 1,5,1.9756,1.4111,congruent,left,,,,,,stimulusFile/magnitude.xlsx,,,,,,,,,,,,,,,,,,,,,,,,,,,,,,,
,,,,,,,,,,,,,,,793,2022-01-17_14h25.46.453,multiplicationStroop,2021.2.3,Win32,59.22065616,,,,,left,1,0.5655,0,62,62,13,1,4,2,4 | 2,2,1.9756,1.4111,congruent,left,,,,,,stimulusFile/magnitude.xlsx,,,,,,,,,,,,,,,,,,,,,,,,,,,,,,,
,,,,,,,,,,,,,,,793,2022-01-17_14h25.46.453,multiplicationStroop,2021.2.3,Win32,59.22065616,,,,,right,1,0.6668,0,63,63,33,1,2,4,2 | 4,2,1.9756,1.4111,incongruent,right,,,,,,stimulusFile/magnitude.xlsx,,,,,,,,,,,,,,,,,,,,,,,,,,,,,,,
,,,,,,,,,,,,,,,793,2022-01-17_14h25.46.453,multiplicationStroop,2021.2.3,Win32,59.22065616,,,,,right,1,0.5179,0,64,64,32,1,1,3,1 | 3,2,1.9756,1.4111,incongruent,right,,,,,,stimulusFile/magnitude.xlsx,,,,,,,,,,,,,,,,,,,,,,,,,,,,,,,
,,,,,,,,,,,,,,,793,2022-01-17_14h25.46.453,multiplicationStroop,2021.2.3,Win32,59.22065616,,,,,left,1,0.5539,0,65,65,44,1,6,1,6 | 1,5,1.4111,1.9756,incongruent,left,,,,,,stimulusFile/magnitude.xlsx,,,,,,,,,,,,,,,,,,,,,,,,,,,,,,,
,,,,,,,,,,,,,,,793,2022-01-17_14h25.46.453,multiplicationStroop,2021.2.3,Win32,59.22065616,,,,,right,1,0.5222,0,66,66,65,1,2,7,2 | 7,5,1.6933,1.6933,neutral,right,,,,,,stimulusFile/magnitude.xlsx,,,,,,,,,,,,,,,,,,,,,,,,,,,,,,,
,,,,,,,,,,,,,,,793,2022-01-17_14h25.46.453,multiplicationStroop,2021.2.3,Win32,59.22065616,,,,,right,1,0.588,0,67,67,67,1,4,9,4 | 9,5,1.6933,1.6933,neutral,right,,,,,,stimulusFile/magnitude.xlsx,,,,,,,,,,,,,,,,,,,,,,,,,,,,,,,
,,,,,,,,,,,,,,,793,2022-01-17_14h25.46.453,multiplicationStroop,2021.2.3,Win32,59.22065616,,,,,left,1,0.5899,0,68,68,69,1,7,2,7 | 2,5,1.6933,1.6933,neutral,left,,,,,,stimulusFile/magnitude.xlsx,,,,,,,,,,,,,,,,,,,,,,,,,,,,,,,
,,,,,,,,,,,,,,,793,2022-01-17_14h25.46.453,multiplicationStroop,2021.2.3,Win32,59.22065616,,,,,left,1,0.6651,0,69,69,54,1,7,6,7 | 6,1,1.6933,1.6933,neutral,left,,,,,,stimulusFile/magnitude.xlsx,,,,,,,,,,,,,,,,,,,,,,,,,,,,,,,
,,,,,,,,,,,,,,,793,2022-01-17_14h25.46.453,multiplicationStroop,2021.2.3,Win32,59.22065616,,,,,left,1,0.6008,0,70,70,55,1,9,8,9 | 8,1,1.6933,1.6933,neutral,left,,,,,,stimulusFile/magnitude.xlsx,,,,,,,,,,,,,,,,,,,,,,,,,,,,,,,
,,,,,,,,,,,,,,,793,2022-01-17_14h25.46.453,multiplicationStroop,2021.2.3,Win32,59.22065616,,,,,left,1,0.6133,0,71,71,47,1,9,4,9 | 4,5,1.4111,1.9756,incongruent,left,,,,,,stimulusFile/magnitude.xlsx,,,,,,,,,,,,,,,,,,,,,,,,,,,,,,,
,,,,,,,,,,,,,,,793,2022-01-17_14h25.46.453,multiplicationStroop,2021.2.3,Win32,59.22065616,,,,,,,,,,,,,,,,,,,,,0,1,1,0,1,stimulusFile/magnitude.xlsx,NUMERICALLY larger (larger coefficient).,images/numericallyLarger.png,,,,,,,,,,,,,,,,,,,,,,,,,,,,,
,,,,,,,,,,,,,,,793,2022-01-17_14h25.46.453,multiplicationStroop,2021.2.3,Win32,59.22065616,,,,,,,,,,,,,,,,,,,,,,,,,,,,,space,13.3018,space,1.5188,81,3.6289,1,0,0,0,35,1,9,×,9,9 × 9,neutral,tie,2,1,81,,,,,,,,
,,,,,,,,,,,,,,,793,2022-01-17_14h25.46.453,multiplicationStroop,2021.2.3,Win32,59.22065616,,,,,,,,,,,,,,,,,,,,,,,,,,,,,,,,,18,1.9465,1,0,1,1,22,1,9,×,2,9 × 2,congruent,largerFirst,2,1,18,,,,,,,,
,,,,,,,,,,,,,,,793,2022-01-17_14h25.46.453,multiplicationStroop,2021.2.3,Win32,59.22065616,,,,,,,,,,,,,,,,,,,,,,,,,,,,,,,,,24,2.2959,1,0,2,2,25,1,6,×,4,6 × 4,congruent,largerFirst,2,1,24,,,,,,,,
,,,,,,,,,,,,,,,793,2022-01-17_14h25.46.453,multiplicationStroop,2021.2.3,Win32,59.22065616,,,,,,,,,,,,,,,,,,,,,,,,,,,,,,,,,63,2.7659,1,0,3,3,21,1,9,×,7,9 × 7,congruent,largerFirst,2,1,63,,,,,,,,
,,,,,,,,,,,,,,,793,2022-01-17_14h25.46.453,multiplicationStroop,2021.2.3,Win32,59.22065616,,,,,,,,,,,,,,,,,,,,,,,,,,,,,,,,,28,3.4351,1,0,4,4,27,1,7,×,4,7 × 4,congruent,largerFirst,2,1,28,,,,,,,,
,,,,,,,,,,,,,,,793,2022-01-17_14h25.46.453,multiplicationStroop,2021.2.3,Win32,59.22065616,,,,,,,,,,,,,,,,,,,,,,,,,,,,,,,,,4,1.5138,1,0,5,5,28,1,2,×,2,2 × 2,neutral,tie,2,1,4,,,,,,,,
,,,,,,,,,,,,,,,793,2022-01-17_14h25.46.453,multiplicationStroop,2021.2.3,Win32,59.22065616,,,,,,,,,,,,,,,,,,,,,,,,,,,,,,,,,56,1.5135,1,0,6,6,8,1,7,×,8,7 × 8,congruent,smallerFirst,1,2,56,,,,,,,,
,,,,,,,,,,,,,,,793,2022-01-17_14h25.46.453,multiplicationStroop,2021.2.3,Win32,59.22065616,,,,,,,,,,,,,,,,,,,,,,,,,,,,,,,,,49,2.0988,1,0,7,7,33,1,7,×,7,7 × 7,neutral,tie,2,1,49,,,,,,,,
,,,,,,,,,,,,,,,793,2022-01-17_14h25.46.453,multiplicationStroop,2021.2.3,Win32,59.22065616,,,,,,,,,,,,,,,,,,,,,,,,,,,,,,,,,20,2.6619,1,0,8,8,7,1,4,×,5,4 × 5,congruent,smallerFirst,1,2,20,,,,,,,,
,,,,,,,,,,,,,,,793,2022-01-17_14h25.46.453,multiplicationStroop,2021.2.3,Win32,59.22065616,,,,,,,,,,,,,,,,,,,,,,,,,,,,,,,,,48,2.3673,1,0,9,9,18,1,8,×,6,8 × 6,congruent,largerFirst,2,1,48,,,,,,,,
,,,,,,,,,,,,,,,793,2022-01-17_14h25.46.453,multiplicationStroop,2021.2.3,Win32,59.22065616,,,,,,,,,,,,,,,,,,,,,,,,,,,,,,,,,35,1.5633,1,0,10,10,1,1,5,×,7,5 × 7,congruent,smallerFirst,1,2,35,,,,,,,,
,,,,,,,,,,,,,,,793,2022-01-17_14h25.46.453,multiplicationStroop,2021.2.3,Win32,59.22065616,,,,,,,,,,,,,,,,,,,,,,,,,,,,,,,,,42,1.715,1,0,11,11,3,1,6,×,7,6 × 7,congruent,smallerFirst,1,2,42,,,,,,,,
,,,,,,,,,,,,,,,793,2022-01-17_14h25.46.453,multiplicationStroop,2021.2.3,Win32,59.22065616,,,,,,,,,,,,,,,,,,,,,,,,,,,,,,,,,15,1.8809,1,0,12,12,4,1,3,×,5,3 × 5,congruent,smallerFirst,1,2,15,,,,,,,,
,,,,,,,,,,,,,,,793,2022-01-17_14h25.46.453,multiplicationStroop,2021.2.3,Win32,59.22065616,,,,,,,,,,,,,,,,,,,,,,,,,,,,,,,,,10,1.5308,1,0,13,13,24,1,5,×,2,5 × 2,congruent,largerFirst,2,1,10,,,,,,,,
,,,,,,,,,,,,,,,793,2022-01-17_14h25.46.453,multiplicationStroop,2021.2.3,Win32,59.22065616,,,,,,,,,,,,,,,,,,,,,,,,,,,,,,,,,8,1.7822,1,0,14,14,9,1,2,×,4,2 × 4,congruent,smallerFirst,1,2,8,,,,,,,,
,,,,,,,,,,,,,,,793,2022-01-17_14h25.46.453,multiplicationStroop,2021.2.3,Win32,59.22065616,,,,,,,,,,,,,,,,,,,,,,,,,,,,,,,,,12,1.3477,1,0,15,15,2,1,3,×,4,3 × 4,congruent,smallerFirst,1,2,12,,,,,,,,
,,,,,,,,,,,,,,,793,2022-01-17_14h25.46.453,multiplicationStroop,2021.2.3,Win32,59.22065616,,,,,,,,,,,,,,,,,,,,,,,,,,,,,,,,,30,1.8646,1,0,16,16,15,1,6,×,5,6 × 5,congruent,largerFirst,2,1,30,,,,,,,,
,,,,,,,,,,,,,,,793,2022-01-17_14h25.46.453,multiplicationStroop,2021.2.3,Win32,59.22065616,,,,,,,,,,,,,,,,,,,,,,,,,,,,,,,,,16,1.8653,1,0,17,17,5,1,2,×,8,2 × 8,congruent,smallerFirst,1,2,16,,,,,,,,
,,,,,,,,,,,,,,,793,2022-01-17_14h25.46.453,multiplicationStroop,2021.2.3,Win32,59.22065616,,,,,,,,,,,,,,,,,,,,,,,,,,,,,,,,,40,1.7643,1,0,18,18,6,1,5,×,8,5 × 8,congruent,smallerFirst,1,2,40,,,,,,,,
,,,,,,,,,,,,,,,793,2022-01-17_14h25.46.453,multiplicationStroop,2021.2.3,Win32,59.22065616,,,,,,,,,,,,,,,,,,,,,,,,,,,,,,,,,21,1.6652,1,0,19,19,16,1,7,×,3,7 × 3,congruent,largerFirst,2,1,21,,,,,,,,
,,,,,,,,,,,,,,,793,2022-01-17_14h25.46.453,multiplicationStroop,2021.2.3,Win32,59.22065616,,,,,,,,,,,,,,,,,,,,,,,,,,,,,,,,,14,1.4318,1,0,20,20,14,1,7,×,2,7 × 2,congruent,largerFirst,2,1,14,,,,,,,,
,,,,,,,,,,,,,,,793,2022-01-17_14h25.46.453,multiplicationStroop,2021.2.3,Win32,59.22065616,,,,,,,,,,,,,,,,,,,,,,,,,,,,,,,,,32,1.9475,1,0,21,21,20,1,8,×,4,8 × 4,congruent,largerFirst,2,1,32,,,,,,,,
,,,,,,,,,,,,,,,793,2022-01-17_14h25.46.453,multiplicationStroop,2021.2.3,Win32,59.22065616,,,,,,,,,,,,,,,,,,,,,,,,,,,,,,,,,16,1.7478,1,0,22,22,30,1,4,×,4,4 × 4,neutral,tie,2,1,16,,,,,,,,
,,,,,,,,,,,,,,,793,2022-01-17_14h25.46.453,multiplicationStroop,2021.2.3,Win32,59.22065616,,,,,,,,,,,,,,,,,,,,,,,,,,,,,,,,,72,2.1486,1,0,23,23,17,1,9,×,8,9 × 8,congruent,largerFirst,2,1,72,,,,,,,,
,,,,,,,,,,,,,,,793,2022-01-17_14h25.46.453,multiplicationStroop,2021.2.3,Win32,59.22065616,,,,,,,,,,,,,,,,,,,,,,,,,,,,,,,,,64,2.2473,1,0,24,24,34,1,8,×,8,8 × 8,neutral,tie,2,1,64,,,,,,,,
,,,,,,,,,,,,,,,793,2022-01-17_14h25.46.453,multiplicationStroop,2021.2.3,Win32,59.22065616,,,,,,,,,,,,,,,,,,,,,,,,,,,,,,,,,27,2.053,1,0,25,25,26,1,9,×,3,9 × 3,congruent,largerFirst,2,1,27,,,,,,,,
,,,,,,,,,,,,,,,793,2022-01-17_14h25.46.453,multiplicationStroop,2021.2.3,Win32,59.22065616,,,,,,,,,,,,,,,,,,,,,,,,,,,,,,,,,18,1.8648,1,0,26,26,11,1,3,×,6,3 × 6,congruent,smallerFirst,1,2,18,,,,,,,,
,,,,,,,,,,,,,,,793,2022-01-17_14h25.46.453,multiplicationStroop,2021.2.3,Win32,59.22065616,,,,,,,,,,,,,,,,,,,,,,,,,,,,,,,,,24,3.5307,1,0,27,27,10,1,3,×,8,3 × 8,congruent,smallerFirst,1,2,24,,,,,,,,
,,,,,,,,,,,,,,,793,2022-01-17_14h25.46.453,multiplicationStroop,2021.2.3,Win32,59.22065616,,,,,,,,,,,,,,,,,,,,,,,,,,,,,,,,,12,1.5146,1,0,28,28,19,1,6,×,2,6 × 2,congruent,largerFirst,2,1,12,,,,,,,,
,,,,,,,,,,,,,,,793,2022-01-17_14h25.46.453,multiplicationStroop,2021.2.3,Win32,59.22065616,,,,,,,,,,,,,,,,,,,,,,,,,,,,,,,,,45,1.7643,1,0,29,29,23,1,9,×,5,9 × 5,congruent,largerFirst,2,1,45,,,,,,,,
,,,,,,,,,,,,,,,793,2022-01-17_14h25.46.453,multiplicationStroop,2021.2.3,Win32,59.22065616,,,,,,,,,,,,,,,,,,,,,,,,,,,,,,,,,25,2.7307,1,0,30,30,31,1,5,×,5,5 × 5,neutral,tie,2,1,25,,,,,,,,
,,,,,,,,,,,,,,,793,2022-01-17_14h25.46.453,multiplicationStroop,2021.2.3,Win32,59.22065616,,,,,,,,,,,,,,,,,,,,,,,,,,,,,,,,,9,1.4828,1,0,31,31,29,1,3,×,3,3 × 3,neutral,tie,2,1,9,,,,,,,,
,,,,,,,,,,,,,,,793,2022-01-17_14h25.46.453,multiplicationStroop,2021.2.3,Win32,59.22065616,,,,,,,,,,,,,,,,,,,,,,,,,,,,,,,,,36,1.8966,1,0,32,32,0,1,4,×,9,4 × 9,congruent,smallerFirst,1,2,36,,,,,,,,
,,,,,,,,,,,,,,,793,2022-01-17_14h25.46.453,multiplicationStroop,2021.2.3,Win32,59.22065616,,,,,,,,,,,,,,,,,,,,,,,,,,,,,,,,,36,1.6662,1,0,33,33,32,1,6,×,6,6 × 6,neutral,tie,2,1,36,,,,,,,,
,,,,,,,,,,,,,,,793,2022-01-17_14h25.46.453,multiplicationStroop,2021.2.3,Win32,59.22065616,,,,,,,,,,,,,,,,,,,,,,,,,,,,,,,,,6,1.6975,1,0,34,34,13,1,2,×,3,2 × 3,congruent,smallerFirst,1,2,6,,,,,,,,
,,,,,,,,,,,,,,,793,2022-01-17_14h25.46.453,multiplicationStroop,2021.2.3,Win32,59.22065616,,,,,,,,,,,,,,,,,,,,,,,,,,,,,,,,,54,2.2638,1,0,35,35,12,1,6,×,9,6 × 9,congruent,smallerFirst,1,2,54,,,,,,,,
,,,,,,,,,,,,,,,793,2022-01-17_14h25.46.453,multiplicationStroop,2021.2.3,Win32,59.22065616,,,,,,,,,,,,,,,,,,,,,,,,,,,,,,,,,,,,,,,,,,,,,,,,,,0,0,0,2,1,stimulusFile/mult_blk3_congruent.xlsx,,
,,,,,,,,,,,,,,,793,2022-01-17_14h25.46.453,multiplicationStroop,2021.2.3,Win32,59.22065616,,,,,,,,,,,,,,,,,,,,,,,,,,,,,,,space,1.5846,28,2.2356,1,0,0,0,13,1,4,×,7,4 × 7,congruent,smallerFirst,1,2,28,,,,,,,,
,,,,,,,,,,,,,,,793,2022-01-17_14h25.46.453,multiplicationStroop,2021.2.3,Win32,59.22065616,,,,,,,,,,,,,,,,,,,,,,,,,,,,,,,,,12,2.2139,1,0,1,1,16,1,4,×,3,4 × 3,congruent,largerFirst,2,1,12,,,,,,,,
,,,,,,,,,,,,,,,793,2022-01-17_14h25.46.453,multiplicationStroop,2021.2.3,Win32,59.22065616,,,,,,,,,,,,,,,,,,,,,,,,,,,,,,,,,72,2.464,1,0,2,2,3,1,8,×,9,8 × 9,congruent,smallerFirst,1,2,72,,,,,,,,
,,,,,,,,,,,,,,,793,2022-01-17_14h25.46.453,multiplicationStroop,2021.2.3,Win32,59.22065616,,,,,,,,,,,,,,,,,,,,,,,,,,,,,,,,,12,1.5308,1,0,3,3,5,1,2,×,6,2 × 6,congruent,smallerFirst,1,2,12,,,,,,,,
,,,,,,,,,,,,,,,793,2022-01-17_14h25.46.453,multiplicationStroop,2021.2.3,Win32,59.22065616,,,,,,,,,,,,,,,,,,,,,,,,,,,,,,,,,14,1.7467,1,0,4,4,0,1,2,×,7,2 × 7,congruent,smallerFirst,1,2,14,,,,,,,,
,,,,,,,,,,,,,,,793,2022-01-17_14h25.46.453,multiplicationStroop,2021.2.3,Win32,59.22065616,,,,,,,,,,,,,,,,,,,,,,,,,,,,,,,,,54,3.1482,1,0,5,5,26,1,9,×,6,9 × 6,congruent,largerFirst,2,1,54,,,,,,,,
,,,,,,,,,,,,,,,793,2022-01-17_14h25.46.453,multiplicationStroop,2021.2.3,Win32,59.22065616,,,,,,,,,,,,,,,,,,,,,,,,,,,,,,,,,63,2.2824,1,0,6,6,7,1,7,×,9,7 × 9,congruent,smallerFirst,1,2,63,,,,,,,,
,,,,,,,,,,,,,,,793,2022-01-17_14h25.46.453,multiplicationStroop,2021.2.3,Win32,59.22065616,,,,,,,,,,,,,,,,,,,,,,,,,,,,,,,,,24,1.8489,1,0,7,7,24,1,8,×,3,8 × 3,congruent,largerFirst,2,1,24,,,,,,,,
,,,,,,,,,,,,,,,793,2022-01-17_14h25.46.453,multiplicationStroop,2021.2.3,Win32,59.22065616,,,,,,,,,,,,,,,,,,,,,,,,,,,,,,,,,8,4.0829,1,0,8,8,23,1,4,×,2,4 × 2,congruent,largerFirst,2,1,8,,,,,,,,
,,,,,,,,,,,,,,,793,2022-01-17_14h25.46.453,multiplicationStroop,2021.2.3,Win32,59.22065616,,,,,,,,,,,,,,,,,,,,,,,,,,,,,,,,,42,3.1328,1,0,9,9,17,1,7,×,6,7 × 6,congruent,largerFirst,2,1,42,,,,,,,,
,,,,,,,,,,,,,,,793,2022-01-17_14h25.46.453,multiplicationStroop,2021.2.3,Win32,59.22065616,,,,,,,,,,,,,,,,,,,,,,,,,,,,,,,,,18,1.957,1,0,10,10,25,1,6,×,3,6 × 3,congruent,largerFirst,2,1,18,,,,,,,,
,,,,,,,,,,,,,,,793,2022-01-17_14h25.46.453,multiplicationStroop,2021.2.3,Win32,59.22065616,,,,,,,,,,,,,,,,,,,,,,,,,,,,,,,,,15,1.7652,1,0,11,11,18,1,5,×,3,5 × 3,congruent,largerFirst,2,1,15,,,,,,,,
,,,,,,,,,,,,,,,793,2022-01-17_14h25.46.453,multiplicationStroop,2021.2.3,Win32,59.22065616,,,,,,,,,,,,,,,,,,,,,,,,,,,,,,,,,27,2.132,1,0,12,12,12,1,3,×,9,3 × 9,congruent,smallerFirst,1,2,27,,,,,,,,
,,,,,,,,,,,,,,,793,2022-01-17_14h25.46.453,multiplicationStroop,2021.2.3,Win32,59.22065616,,,,,,,,,,,,,,,,,,,,,,,,,,,,,,,,,49,1.8812,1,0,13,13,33,1,7,×,7,7 × 7,neutral,tie,1,2,49,,,,,,,,
,,,,,,,,,,,,,,,793,2022-01-17_14h25.46.453,multiplicationStroop,2021.2.3,Win32,59.22065616,,,,,,,,,,,,,,,,,,,,,,,,,,,,,,,,,30,2.1314,1,0,14,14,1,1,5,×,6,5 × 6,congruent,smallerFirst,1,2,30,,,,,,,,
,,,,,,,,,,,,,,,793,2022-01-17_14h25.46.453,multiplicationStroop,2021.2.3,Win32,59.22065616,,,,,,,,,,,,,,,,,,,,,,,,,,,,,,,,,25,2.5146,1,0,15,15,31,1,5,×,5,5 × 5,neutral,tie,1,2,25,,,,,,,,
,,,,,,,,,,,,,,,793,2022-01-17_14h25.46.453,multiplicationStroop,2021.2.3,Win32,59.22065616,,,,,,,,,,,,,,,,,,,,,,,,,,,,,,,,,20,2.3643,1,0,16,16,21,1,5,×,4,5 × 4,congruent,largerFirst,2,1,20,,,,,,,,
,,,,,,,,,,,,,,,793,2022-01-17_14h25.46.453,multiplicationStroop,2021.2.3,Win32,59.22065616,,,,,,,,,,,,,,,,,,,,,,,,,,,,,,,,,6,1.8645,1,0,17,17,27,1,3,×,2,3 × 2,congruent,largerFirst,2,1,6,,,,,,,,
,,,,,,,,,,,,,,,793,2022-01-17_14h25.46.453,multiplicationStroop,2021.2.3,Win32,59.22065616,,,,,,,,,,,,,,,,,,,,,,,,,,,,,,,,,36,2.2813,1,0,18,18,32,1,6,×,6,6 × 6,neutral,tie,1,2,36,,,,,,,,
,,,,,,,,,,,,,,,793,2022-01-17_14h25.46.453,multiplicationStroop,2021.2.3,Win32,59.22065616,,,,,,,,,,,,,,,,,,,,,,,,,,,,,,,,,9,1.5143,1,0,19,19,29,1,3,×,3,3 × 3,neutral,tie,1,2,9,,,,,,,,
,,,,,,,,,,,,,,,793,2022-01-17_14h25.46.453,multiplicationStroop,2021.2.3,Win32,59.22065616,,,,,,,,,,,,,,,,,,,,,,,,,,,,,,,,,16,1.7638,1,0,20,20,19,1,8,×,2,8 × 2,congruent,largerFirst,2,1,16,,,,,,,,
,,,,,,,,,,,,,,,793,2022-01-17_14h25.46.453,multiplicationStroop,2021.2.3,Win32,59.22065616,,,,,,,,,,,,,,,,,,,,,,,,,,,,,,,,,36,2.8311,1,0,21,21,14,1,9,×,4,9 × 4,congruent,largerFirst,2,1,36,,,,,,,,
,,,,,,,,,,,,,,,793,2022-01-17_14h25.46.453,multiplicationStroop,2021.2.3,Win32,59.22065616,,,,,,,,,,,,,,,,,,,,,,,,,,,,,,,,,64,2.6807,1,0,22,22,34,1,8,×,8,8 × 8,neutral,tie,1,2,64,,,,,,,,
,,,,,,,,,,,,,,,793,2022-01-17_14h25.46.453,multiplicationStroop,2021.2.3,Win32,59.22065616,,,,,,,,,,,,,,,,,,,,,,,,,,,,,,,,,10,1.5517,1,0,23,23,10,1,2,×,5,2 × 5,congruent,smallerFirst,1,2,10,,,,,,,,
,,,,,,,,,,,,,,,793,2022-01-17_14h25.46.453,multiplicationStroop,2021.2.3,Win32,59.22065616,,,,,,,,,,,,,,,,,,,,,,,,,,,,,,,,,35,2.7639,1,0,24,24,15,1,7,×,5,7 × 5,congruent,largerFirst,2,1,35,,,,,,,,
,,,,,,,,,,,,,,,793,2022-01-17_14h25.46.453,multiplicationStroop,2021.2.3,Win32,59.22065616,,,,,,,,,,,,,,,,,,,,,,,,,,,,,,,,,45,1.5902,1,0,25,25,9,1,5,×,9,5 × 9,congruent,smallerFirst,1,2,45,,,,,,,,
,,,,,,,,,,,,,,,793,2022-01-17_14h25.46.453,multiplicationStroop,2021.2.3,Win32,59.22065616,,,,,,,,,,,,,,,,,,,,,,,,,,,,,,,,,4,1.4149,1,0,26,26,28,1,2,×,2,2 × 2,neutral,tie,1,2,4,,,,,,,,
,,,,,,,,,,,,,,,793,2022-01-17_14h25.46.453,multiplicationStroop,2021.2.3,Win32,59.22065616,,,,,,,,,,,,,,,,,,,,,,,,,,,,,,,,,56,1.5362,1,0,27,27,22,1,8,×,7,8 × 7,congruent,largerFirst,2,1,56,,,,,,,,
,,,,,,,,,,,,,,,793,2022-01-17_14h25.46.453,multiplicationStroop,2021.2.3,Win32,59.22065616,,,,,,,,,,,,,,,,,,,,,,,,,,,,,,,,,21,1.828,1,0,28,28,2,1,3,×,7,3 × 7,congruent,smallerFirst,1,2,21,,,,,,,,
,,,,,,,,,,,,,,,793,2022-01-17_14h25.46.453,multiplicationStroop,2021.2.3,Win32,59.22065616,,,,,,,,,,,,,,,,,,,,,,,,,,,,,,,,,32,3.3972,1,0,29,29,6,1,4,×,8,4 × 8,congruent,smallerFirst,1,2,32,,,,,,,,
,,,,,,,,,,,,,,,793,2022-01-17_14h25.46.453,multiplicationStroop,2021.2.3,Win32,59.22065616,,,,,,,,,,,,,,,,,,,,,,,,,,,,,,,,,24,1.7226,1,0,30,30,11,1,4,×,6,4 × 6,congruent,smallerFirst,1,2,24,,,,,,,,
,,,,,,,,,,,,,,,793,2022-01-17_14h25.46.453,multiplicationStroop,2021.2.3,Win32,59.22065616,,,,,,,,,,,,,,,,,,,,,,,,,,,,,,,,,81,1.898,1,0,31,31,35,1,9,×,9,9 × 9,neutral,tie,1,2,81,,,,,,,,
,,,,,,,,,,,,,,,793,2022-01-17_14h25.46.453,multiplicationStroop,2021.2.3,Win32,59.22065616,,,,,,,,,,,,,,,,,,,,,,,,,,,,,,,,,16,1.7473,1,0,32,32,30,1,4,×,4,4 × 4,neutral,tie,1,2,16,,,,,,,,
,,,,,,,,,,,,,,,793,2022-01-17_14h25.46.453,multiplicationStroop,2021.2.3,Win32,59.22065616,,,,,,,,,,,,,,,,,,,,,,,,,,,,,,,,,40,2.3644,1,0,33,33,20,1,8,×,5,8 × 5,congruent,largerFirst,2,1,40,,,,,,,,
,,,,,,,,,,,,,,,793,2022-01-17_14h25.46.453,multiplicationStroop,2021.2.3,Win32,59.22065616,,,,,,,,,,,,,,,,,,,,,,,,,,,,,,,,,18,1.9241,1,0,34,34,8,1,2,×,9,2 × 9,congruent,smallerFirst,1,2,18,,,,,,,,
,,,,,,,,,,,,,,,793,2022-01-17_14h25.46.453,multiplicationStroop,2021.2.3,Win32,59.22065616,,,,,,,,,,,,,,,,,,,,,,,,,,,,,,,,,48,2.5812,1,0,35,35,4,1,6,×,8,6 × 8,congruent,smallerFirst,1,2,48,,,,,,,,
,,,,,,,,,,,,,,,793,2022-01-17_14h25.46.453,multiplicationStroop,2021.2.3,Win32,59.22065616,,,,,,,,,,,,,,,,,,,,,,,,,,,,,,,,,,,,,,,,,,,,,,,,,,0,1,1,3,1,stimulusFile/mult_blk4_congruent.xlsx,,
,,,,,,,,,,,,,,,793,2022-01-17_14h25.46.453,multiplicationStroop,2021.2.3,Win32,59.22065616,,,,,,,,,,,,,,,,,,,,,,,,,,,,,,,space,1.1177,64,2.2864,1,0,0,0,34,1,8,×,8,8 × 8,neutral,tie,1.5,1.5,64,,,,,,,,
,,,,,,,,,,,,,,,793,2022-01-17_14h25.46.453,multiplicationStroop,2021.2.3,Win32,59.22065616,,,,,,,,,,,,,,,,,,,,,,,,,,,,,,,,,48,2.5308,1,0,1,1,15,1,8,×,6,8 × 6,neutral,largerFirst,1.5,1.5,48,,,,,,,,
,,,,,,,,,,,,,,,793,2022-01-17_14h25.46.453,multiplicationStroop,2021.2.3,Win32,59.22065616,,,,,,,,,,,,,,,,,,,,,,,,,,,,,,,,,8,2.5869,1,0,2,2,3,1,2,×,4,2 × 4,neutral,smallerFirst,1.5,1.5,8,,,,,,,,
,,,,,,,,,,,,,,,793,2022-01-17_14h25.46.453,multiplicationStroop,2021.2.3,Win32,59.22065616,,,,,,,,,,,,,,,,,,,,,,,,,,,,,,,,,18,1.9483,1,0,3,3,18,1,9,×,2,9 × 2,neutral,largerFirst,1.5,1.5,18,,,,,,,,
,,,,,,,,,,,,,,,793,2022-01-17_14h25.46.453,multiplicationStroop,2021.2.3,Win32,59.22065616,,,,,,,,,,,,,,,,,,,,,,,,,,,,,,,,,54,2.0317,1,0,4,4,7,1,6,×,9,6 × 9,neutral,smallerFirst,1.5,1.5,54,,,,,,,,
,,,,,,,,,,,,,,,793,2022-01-17_14h25.46.453,multiplicationStroop,2021.2.3,Win32,59.22065616,,,,,,,,,,,,,,,,,,,,,,,,,,,,,,,,,10,1.3481,1,0,5,5,4,1,2,×,5,2 × 5,neutral,smallerFirst,1.5,1.5,10,,,,,,,,
,,,,,,,,,,,,,,,793,2022-01-17_14h25.46.453,multiplicationStroop,2021.2.3,Win32,59.22065616,,,,,,,,,,,,,,,,,,,,,,,,,,,,,,,,,40,2.115,1,0,6,6,24,1,8,×,5,8 × 5,neutral,largerFirst,1.5,1.5,40,,,,,,,,
,,,,,,,,,,,,,,,793,2022-01-17_14h25.46.453,multiplicationStroop,2021.2.3,Win32,59.22065616,,,,,,,,,,,,,,,,,,,,,,,,,,,,,,,,,36,3.0977,1,0,7,7,27,1,9,×,4,9 × 4,neutral,largerFirst,1.5,1.5,36,,,,,,,,
,,,,,,,,,,,,,,,793,2022-01-17_14h25.46.453,multiplicationStroop,2021.2.3,Win32,59.22065616,,,,,,,,,,,,,,,,,,,,,,,,,,,,,,,,,28,2.2647,1,0,8,8,17,1,7,×,4,7 × 4,neutral,largerFirst,1.5,1.5,28,,,,,,,,
,,,,,,,,,,,,,,,793,2022-01-17_14h25.46.453,multiplicationStroop,2021.2.3,Win32,59.22065616,,,,,,,,,,,,,,,,,,,,,,,,,,,,,,,,,15,1.4657,1,0,9,9,5,1,3,×,5,3 × 5,neutral,smallerFirst,1.5,1.5,15,,,,,,,,
,,,,,,,,,,,,,,,793,2022-01-17_14h25.46.453,multiplicationStroop,2021.2.3,Win32,59.22065616,,,,,,,,,,,,,,,,,,,,,,,,,,,,,,,,,81,1.3303,1,0,10,10,35,1,9,×,9,9 × 9,neutral,tie,1.5,1.5,81,,,,,,,,
,,,,,,,,,,,,,,,793,2022-01-17_14h25.46.453,multiplicationStroop,2021.2.3,Win32,59.22065616,,,,,,,,,,,,,,,,,,,,,,,,,,,,,,,,,25,2.1812,1,0,11,11,31,1,5,×,5,5 × 5,neutral,tie,1.5,1.5,25,,,,,,,,
,,,,,,,,,,,,,,,793,2022-01-17_14h25.46.453,multiplicationStroop,2021.2.3,Win32,59.22065616,,,,,,,,,,,,,,,,,,,,,,,,,,,,,,,,,35,2.6146,1,0,12,12,1,1,5,×,7,5 × 7,neutral,smallerFirst,1.5,1.5,35,,,,,,,,
,,,,,,,,,,,,,,,793,2022-01-17_14h25.46.453,multiplicationStroop,2021.2.3,Win32,59.22065616,,,,,,,,,,,,,,,,,,,,,,,,,,,,,,,,,16,1.7674,1,0,13,13,30,1,4,×,4,4 × 4,neutral,tie,1.5,1.5,16,,,,,,,,
,,,,,,,,,,,,,,,793,2022-01-17_14h25.46.453,multiplicationStroop,2021.2.3,Win32,59.22065616,,,,,,,,,,,,,,,,,,,,,,,,,,,,,,,,,14,1.6461,1,0,14,14,16,1,7,×,2,7 × 2,neutral,largerFirst,1.5,1.5,14,,,,,,,,
,,,,,,,,,,,,,,,793,2022-01-17_14h25.46.453,multiplicationStroop,2021.2.3,Win32,59.22065616,,,,,,,,,,,,,,,,,,,,,,,,,,,,,,,,,42,1.5312,1,0,15,15,6,1,6,×,7,6 × 7,neutral,smallerFirst,1.5,1.5,42,,,,,,,,
,,,,,,,,,,,,,,,793,2022-01-17_14h25.46.453,multiplicationStroop,2021.2.3,Win32,59.22065616,,,,,,,,,,,,,,,,,,,,,,,,,,,,,,,,,12,1.5327,1,0,16,16,21,1,4,×,3,4 × 3,neutral,largerFirst,1.5,1.5,12,,,,,,,,
,,,,,,,,,,,,,,,793,2022-01-17_14h25.46.453,multiplicationStroop,2021.2.3,Win32,59.22065616,,,,,,,,,,,,,,,,,,,,,,,,,,,,,,,,,4,1.3815,1,0,17,17,28,1,2,×,2,2 × 2,neutral,tie,1.5,1.5,4,,,,,,,,
,,,,,,,,,,,,,,,793,2022-01-17_14h25.46.453,multiplicationStroop,2021.2.3,Win32,59.22065616,,,,,,,,,,,,,,,,,,,,,,,,,,,,,,,,,21,1.6156,1,0,18,18,8,1,3,×,7,3 × 7,neutral,smallerFirst,1.5,1.5,21,,,,,,,,
,,,,,,,,,,,,,,,793,2022-01-17_14h25.46.453,multiplicationStroop,2021.2.3,Win32,59.22065616,,,,,,,,,,,,,,,,,,,,,,,,,,,,,,,,,72,2.4482,1,0,19,19,11,1,8,×,9,8 × 9,neutral,smallerFirst,1.5,1.5,72,,,,,,,,
,,,,,,,,,,,,,,,793,2022-01-17_14h25.46.453,multiplicationStroop,2021.2.3,Win32,59.22065616,,,,,,,,,,,,,,,,,,,,,,,,,,,,,,,,,9,1.5634,1,0,20,20,29,1,3,×,3,3 × 3,neutral,tie,1.5,1.5,9,,,,,,,,
,,,,,,,,,,,,,,,793,2022-01-17_14h25.46.453,multiplicationStroop,2021.2.3,Win32,59.22065616,,,,,,,,,,,,,,,,,,,,,,,,,,,,,,,,,27,2.3142,1,0,21,21,14,1,9,×,3,9 × 3,neutral,largerFirst,1.5,1.5,27,,,,,,,,
,,,,,,,,,,,,,,,793,2022-01-17_14h25.46.453,multiplicationStroop,2021.2.3,Win32,59.22065616,,,,,,,,,,,,,,,,,,,,,,,,,,,,,,,,,18,1.733,1,0,22,22,0,1,3,×,6,3 × 6,neutral,smallerFirst,1.5,1.5,18,,,,,,,,
,,,,,,,,,,,,,,,793,2022-01-17_14h25.46.453,multiplicationStroop,2021.2.3,Win32,59.22065616,,,,,,,,,,,,,,,,,,,,,,,,,,,,,,,,,36,1.7808,1,0,23,23,32,1,6,×,6,6 × 6,neutral,tie,1.5,1.5,36,,,,,,,,
,,,,,,,,,,,,,,,793,2022-01-17_14h25.46.453,multiplicationStroop,2021.2.3,Win32,59.22065616,,,,,,,,,,,,,,,,,,,,,,,,,,,,,,,,,63,2.9302,1,0,24,24,12,1,7,×,9,7 × 9,neutral,smallerFirst,1.5,1.5,63,,,,,,,,
,,,,,,,,,,,,,,,793,2022-01-17_14h25.46.453,multiplicationStroop,2021.2.3,Win32,59.22065616,,,,,,,,,,,,,,,,,,,,,,,,,,,,,,,,,24,2.5988,1,0,25,25,2,1,4,×,6,4 × 6,neutral,smallerFirst,1.5,1.5,24,,,,,,,,
,,,,,,,,,,,,,,,793,2022-01-17_14h25.46.453,multiplicationStroop,2021.2.3,Win32,59.22065616,,,,,,,,,,,,,,,,,,,,,,,,,,,,,,,,,49,1.8076,1,0,26,26,33,1,7,×,7,7 × 7,neutral,tie,1.5,1.5,49,,,,,,,,
,,,,,,,,,,,,,,,793,2022-01-17_14h25.46.453,multiplicationStroop,2021.2.3,Win32,59.22065616,,,,,,,,,,,,,,,,,,,,,,,,,,,,,,,,,16,1.8973,1,0,27,27,13,1,2,×,8,2 × 8,neutral,smallerFirst,1.5,1.5,16,,,,,,,,
,,,,,,,,,,,,,,,793,2022-01-17_14h25.46.453,multiplicationStroop,2021.2.3,Win32,59.22065616,,,,,,,,,,,,,,,,,,,,,,,,,,,,,,,,,20,1.7819,1,0,28,28,20,1,5,×,4,5 × 4,neutral,largerFirst,1.5,1.5,20,,,,,,,,
,,,,,,,,,,,,,,,793,2022-01-17_14h25.46.453,multiplicationStroop,2021.2.3,Win32,59.22065616,,,,,,,,,,,,,,,,,,,,,,,,,,,,,,,,,6,1.8144,1,0,29,29,26,1,3,×,2,3 × 2,neutral,largerFirst,1.5,1.5,6,,,,,,,,
,,,,,,,,,,,,,,,793,2022-01-17_14h25.46.453,multiplicationStroop,2021.2.3,Win32,59.22065616,,,,,,,,,,,,,,,,,,,,,,,,,,,,,,,,,30,2.1191,1,0,30,30,19,1,6,×,5,6 × 5,neutral,largerFirst,1.5,1.5,30,,,,,,,,
,,,,,,,,,,,,,,,793,2022-01-17_14h25.46.453,multiplicationStroop,2021.2.3,Win32,59.22065616,,,,,,,,,,,,,,,,,,,,,,,,,,,,,,,,,56,1.9281,1,0,31,31,9,1,7,×,8,7 × 8,neutral,smallerFirst,1.5,1.5,56,,,,,,,,
,,,,,,,,,,,,,,,793,2022-01-17_14h25.46.453,multiplicationStroop,2021.2.3,Win32,59.22065616,,,,,,,,,,,,,,,,,,,,,,,,,,,,,,,,,12,1.3141,1,0,32,32,25,1,6,×,2,6 × 2,neutral,largerFirst,1.5,1.5,12,,,,,,,,
,,,,,,,,,,,,,,,793,2022-01-17_14h25.46.453,multiplicationStroop,2021.2.3,Win32,59.22065616,,,,,,,,,,,,,,,,,,,,,,,,,,,,,,,,,32,2.4471,1,0,33,33,23,1,8,×,4,8 × 4,neutral,largerFirst,1.5,1.5,32,,,,,,,,
,,,,,,,,,,,,,,,793,2022-01-17_14h25.46.453,multiplicationStroop,2021.2.3,Win32,59.22065616,,,,,,,,,,,,,,,,,,,,,,,,,,,,,,,,,45,2.0657,1,0,34,34,10,1,5,×,9,5 × 9,neutral,smallerFirst,1.5,1.5,45,,,,,,,,
,,,,,,,,,,,,,,,793,2022-01-17_14h25.46.453,multiplicationStroop,2021.2.3,Win32,59.22065616,,,,,,,,,,,,,,,,,,,,,,,,,,,,,,,,,24,1.5321,1,0,35,35,22,1,8,×,3,8 × 3,neutral,largerFirst,1.5,1.5,24,,,,,,,,
,,,,,,,,,,,,,,,793,2022-01-17_14h25.46.453,multiplicationStroop,2021.2.3,Win32,59.22065616,,,,,,,,,,,,,,,,,,,,,,,,,,,,,,,,,,,,,,,,,,,,,,,,,,0,2,2,1,1,stimulusFile/mult_blk2.xlsx,,
,,,,,,,,,,,,,,,793,2022-01-17_14h25.46.453,multiplicationStroop,2021.2.3,Win32,59.22065616,,,,,,,,,,,,,,,,,,,,,,,,,,,,,,,space,0.91,21,2.3231,1,0,0,0,22,1,7,×,3,7 × 3,neutral,largerFirst,1.5,1.5,21,,,,,,,,
,,,,,,,,,,,,,,,793,2022-01-17_14h25.46.453,multiplicationStroop,2021.2.3,Win32,59.22065616,,,,,,,,,,,,,,,,,,,,,,,,,,,,,,,,,54,2.8071,1,0,1,1,21,1,9,×,6,9 × 6,neutral,largerFirst,1.5,1.5,54,,,,,,,,
,,,,,,,,,,,,,,,793,2022-01-17_14h25.46.453,multiplicationStroop,2021.2.3,Win32,59.22065616,,,,,,,,,,,,,,,,,,,,,,,,,,,,,,,,,12,1.5645,1,0,2,2,7,1,3,×,4,3 × 4,neutral,smallerFirst,1.5,1.5,12,,,,,,,,
,,,,,,,,,,,,,,,793,2022-01-17_14h25.46.453,multiplicationStroop,2021.2.3,Win32,59.22065616,,,,,,,,,,,,,,,,,,,,,,,,,,,,,,,,,30,1.7135,1,0,3,3,5,1,5,×,6,5 × 6,neutral,smallerFirst,1.5,1.5,30,,,,,,,,
,,,,,,,,,,,,,,,793,2022-01-17_14h25.46.453,multiplicationStroop,2021.2.3,Win32,59.22065616,,,,,,,,,,,,,,,,,,,,,,,,,,,,,,,,,48,2.2165,1,0,4,4,1,1,6,×,8,6 × 8,neutral,smallerFirst,1.5,1.5,48,,,,,,,,
,,,,,,,,,,,,,,,793,2022-01-17_14h25.46.453,multiplicationStroop,2021.2.3,Win32,59.22065616,,,,,,,,,,,,,,,,,,,,,,,,,,,,,,,,,9,1.4481,1,0,5,5,29,1,3,×,3,3 × 3,neutral,tie,1.5,1.5,9,,,,,,,,
,,,,,,,,,,,,,,,793,2022-01-17_14h25.46.453,multiplicationStroop,2021.2.3,Win32,59.22065616,,,,,,,,,,,,,,,,,,,,,,,,,,,,,,,,,42,2.2805,1,0,6,6,20,1,7,×,6,7 × 6,neutral,largerFirst,1.5,1.5,42,,,,,,,,
,,,,,,,,,,,,,,,793,2022-01-17_14h25.46.453,multiplicationStroop,2021.2.3,Win32,59.22065616,,,,,,,,,,,,,,,,,,,,,,,,,,,,,,,,,40,2.0811,1,0,7,7,10,1,5,×,8,5 × 8,neutral,smallerFirst,1.5,1.5,40,,,,,,,,
,,,,,,,,,,,,,,,793,2022-01-17_14h25.46.453,multiplicationStroop,2021.2.3,Win32,59.22065616,,,,,,,,,,,,,,,,,,,,,,,,,,,,,,,,,16,2.0811,1,0,8,8,27,1,8,×,2,8 × 2,neutral,largerFirst,1.5,1.5,16,,,,,,,,
,,,,,,,,,,,,,,,793,2022-01-17_14h25.46.453,multiplicationStroop,2021.2.3,Win32,59.22065616,,,,,,,,,,,,,,,,,,,,,,,,,,,,,,,,,6,1.4374,1,0,9,9,12,1,2,×,3,2 × 3,neutral,smallerFirst,1.5,1.5,6,,,,,,,,
,,,,,,,,,,,,,,,793,2022-01-17_14h25.46.453,multiplicationStroop,2021.2.3,Win32,59.22065616,,,,,,,,,,,,,,,,,,,,,,,,,,,,,,,,,24,1.6313,1,0,10,10,16,1,6,×,4,6 × 4,neutral,largerFirst,1.5,1.5,24,,,,,,,,
,,,,,,,,,,,,,,,793,2022-01-17_14h25.46.453,multiplicationStroop,2021.2.3,Win32,59.22065616,,,,,,,,,,,,,,,,,,,,,,,,,,,,,,,,,37,3.027,0,0,11,11,0,1,3,×,9,3 × 9,neutral,smallerFirst,1.5,1.5,27,,,,,,,,
,,,,,,,,,,,,,,,793,2022-01-17_14h25.46.453,multiplicationStroop,2021.2.3,Win32,59.22065616,,,,,,,,,,,,,,,,,,,,,,,,,,,,,,,,,64,3.424,1,0,12,12,34,1,8,×,8,8 × 8,neutral,tie,1.5,1.5,64,,,,,,,,
,,,,,,,,,,,,,,,793,2022-01-17_14h25.46.453,multiplicationStroop,2021.2.3,Win32,59.22065616,,,,,,,,,,,,,,,,,,,,,,,,,,,,,,,,,15,2.4468,1,0,13,13,19,1,5,×,3,5 × 3,neutral,largerFirst,1.5,1.5,15,,,,,,,,
,,,,,,,,,,,,,,,793,2022-01-17_14h25.46.453,multiplicationStroop,2021.2.3,Win32,59.22065616,,,,,,,,,,,,,,,,,,,,,,,,,,,,,,,,,4,1.7242,1,0,14,14,28,1,2,×,2,2 × 2,neutral,tie,1.5,1.5,4,,,,,,,,
,,,,,,,,,,,,,,,793,2022-01-17_14h25.46.453,multiplicationStroop,2021.2.3,Win32,59.22065616,,,,,,,,,,,,,,,,,,,,,,,,,,,,,,,,,36,2.0971,1,0,15,15,32,1,6,×,6,6 × 6,neutral,tie,1.5,1.5,36,,,,,,,,
,,,,,,,,,,,,,,,793,2022-01-17_14h25.46.453,multiplicationStroop,2021.2.3,Win32,59.22065616,,,,,,,,,,,,,,,,,,,,,,,,,,,,,,,,,18,2.9316,1,0,16,16,14,1,6,×,3,6 × 3,neutral,largerFirst,1.5,1.5,18,,,,,,,,
,,,,,,,,,,,,,,,793,2022-01-17_14h25.46.453,multiplicationStroop,2021.2.3,Win32,59.22065616,,,,,,,,,,,,,,,,,,,,,,,,,,,,,,,,,32,3.0977,1,0,17,17,9,1,4,×,8,4 × 8,neutral,smallerFirst,1.5,1.5,32,,,,,,,,
,,,,,,,,,,,,,,,793,2022-01-17_14h25.46.453,multiplicationStroop,2021.2.3,Win32,59.22065616,,,,,,,,,,,,,,,,,,,,,,,,,,,,,,,,,25,1.9072,1,0,18,18,31,1,5,×,5,5 × 5,neutral,tie,1.5,1.5,25,,,,,,,,
,,,,,,,,,,,,,,,793,2022-01-17_14h25.46.453,multiplicationStroop,2021.2.3,Win32,59.22065616,,,,,,,,,,,,,,,,,,,,,,,,,,,,,,,,,45,2.8808,1,0,19,19,24,1,9,×,5,9 × 5,neutral,largerFirst,1.5,1.5,45,,,,,,,,
,,,,,,,,,,,,,,,793,2022-01-17_14h25.46.453,multiplicationStroop,2021.2.3,Win32,59.22065616,,,,,,,,,,,,,,,,,,,,,,,,,,,,,,,,,63,2.2981,1,0,20,20,26,1,9,×,7,9 × 7,neutral,largerFirst,1.5,1.5,63,,,,,,,,
,,,,,,,,,,,,,,,793,2022-01-17_14h25.46.453,multiplicationStroop,2021.2.3,Win32,59.22065616,,,,,,,,,,,,,,,,,,,,,,,,,,,,,,,,,10,1.5814,1,0,21,21,18,1,5,×,2,5 × 2,neutral,largerFirst,1.5,1.5,10,,,,,,,,
,,,,,,,,,,,,,,,793,2022-01-17_14h25.46.453,multiplicationStroop,2021.2.3,Win32,59.22065616,,,,,,,,,,,,,,,,,,,,,,,,,,,,,,,,,56,1.6468,1,0,22,22,23,1,8,×,7,8 × 7,neutral,largerFirst,1.5,1.5,56,,,,,,,,
,,,,,,,,,,,,,,,793,2022-01-17_14h25.46.453,multiplicationStroop,2021.2.3,Win32,59.22065616,,,,,,,,,,,,,,,,,,,,,,,,,,,,,,,,,24,1.6488,1,0,23,23,8,1,3,×,8,3 × 8,neutral,smallerFirst,1.5,1.5,24,,,,,,,,
,,,,,,,,,,,,,,,793,2022-01-17_14h25.46.453,multiplicationStroop,2021.2.3,Win32,59.22065616,,,,,,,,,,,,,,,,,,,,,,,,,,,,,,,,,12,1.5312,1,0,24,24,11,1,2,×,6,2 × 6,neutral,smallerFirst,1.5,1.5,12,,,,,,,,
,,,,,,,,,,,,,,,793,2022-01-17_14h25.46.453,multiplicationStroop,2021.2.3,Win32,59.22065616,,,,,,,,,,,,,,,,,,,,,,,,,,,,,,,,,18,1.6807,1,0,25,25,4,1,2,×,9,2 × 9,neutral,smallerFirst,1.5,1.5,18,,,,,,,,
,,,,,,,,,,,,,,,793,2022-01-17_14h25.46.453,multiplicationStroop,2021.2.3,Win32,59.22065616,,,,,,,,,,,,,,,,,,,,,,,,,,,,,,,,,81,1.5643,1,0,26,26,35,1,9,×,9,9 × 9,neutral,tie,1.5,1.5,81,,,,,,,,
,,,,,,,,,,,,,,,793,2022-01-17_14h25.46.453,multiplicationStroop,2021.2.3,Win32,59.22065616,,,,,,,,,,,,,,,,,,,,,,,,,,,,,,,,,16,1.664,1,0,27,27,30,1,4,×,4,4 × 4,neutral,tie,1.5,1.5,16,,,,,,,,
,,,,,,,,,,,,,,,793,2022-01-17_14h25.46.453,multiplicationStroop,2021.2.3,Win32,59.22065616,,,,,,,,,,,,,,,,,,,,,,,,,,,,,,,,,35,2.799,1,0,28,28,15,1,7,×,5,7 × 5,neutral,largerFirst,1.5,1.5,35,,,,,,,,
,,,,,,,,,,,,,,,793,2022-01-17_14h25.46.453,multiplicationStroop,2021.2.3,Win32,59.22065616,,,,,,,,,,,,,,,,,,,,,,,,,,,,,,,,,8,2.0133,1,0,29,29,17,1,4,×,2,4 × 2,neutral,largerFirst,1.5,1.5,8,,,,,,,,
,,,,,,,,,,,,,,,793,2022-01-17_14h25.46.453,multiplicationStroop,2021.2.3,Win32,59.22065616,,,,,,,,,,,,,,,,,,,,,,,,,,,,,,,,,20,1.9823,1,0,30,30,6,1,4,×,5,4 × 5,neutral,smallerFirst,1.5,1.5,20,,,,,,,,
,,,,,,,,,,,,,,,793,2022-01-17_14h25.46.453,multiplicationStroop,2021.2.3,Win32,59.22065616,,,,,,,,,,,,,,,,,,,,,,,,,,,,,,,,,28,3.7133,1,0,31,31,3,1,4,×,7,4 × 7,neutral,smallerFirst,1.5,1.5,28,,,,,,,,
,,,,,,,,,,,,,,,793,2022-01-17_14h25.46.453,multiplicationStroop,2021.2.3,Win32,59.22065616,,,,,,,,,,,,,,,,,,,,,,,,,,,,,,,,,72,2.3069,1,0,32,32,25,1,9,×,8,9 × 8,neutral,largerFirst,1.5,1.5,72,,,,,,,,
,,,,,,,,,,,,,,,793,2022-01-17_14h25.46.453,multiplicationStroop,2021.2.3,Win32,59.22065616,,,,,,,,,,,,,,,,,,,,,,,,,,,,,,,,,14,1.4317,1,0,33,33,2,1,2,×,7,2 × 7,neutral,smallerFirst,1.5,1.5,14,,,,,,,,
,,,,,,,,,,,,,,,793,2022-01-17_14h25.46.453,multiplicationStroop,2021.2.3,Win32,59.22065616,,,,,,,,,,,,,,,,,,,,,,,,,,,,,,,,,49,1.5812,1,0,34,34,33,1,7,×,7,7 × 7,neutral,tie,1.5,1.5,49,,,,,,,,
,,,,,,,,,,,,,,,793,2022-01-17_14h25.46.453,multiplicationStroop,2021.2.3,Win32,59.22065616,,,,,,,,,,,,,,,,,,,,,,,,,,,,,,,,,36,2.1478,1,0,35,35,13,1,4,×,9,4 × 9,neutral,smallerFirst,1.5,1.5,36,,,,,,,,
,,,,,,,,,,,,,,,793,2022-01-17_14h25.46.453,multiplicationStroop,2021.2.3,Win32,59.22065616,,,,,,,,,,,,,,,,,,,,,,,,,,,,,,,,,,,,,,,,,,,,,,,,,,0,3,3,0,1,stimulusFile/mult_blk1.xlsx,,
,,,,,,,,,,,,,,,793,2022-01-17_14h25.46.453,multiplicationStroop,2021.2.3,Win32,59.22065616,,,,,,,,,,,,,,,,,,,,,,,,,,,,,,,space,3.7793,28,2.6008,1,0,0,0,16,1,7,×,4,7 × 4,incongruent,largerFirst,1,2,28,,,,,,,,
,,,,,,,,,,,,,,,793,2022-01-17_14h25.46.453,multiplicationStroop,2021.2.3,Win32,59.22065616,,,,,,,,,,,,,,,,,,,,,,,,,,,,,,,,,12,1.4138,1,0,1,1,19,1,6,×,2,6 × 2,incongruent,largerFirst,1,2,12,,,,,,,,
,,,,,,,,,,,,,,,793,2022-01-17_14h25.46.453,multiplicationStroop,2021.2.3,Win32,59.22065616,,,,,,,,,,,,,,,,,,,,,,,,,,,,,,,,,24,1.8975,1,0,2,2,9,1,3,×,8,3 × 8,incongruent,smallerFirst,2,1,24,,,,,,,,
,,,,,,,,,,,,,,,793,2022-01-17_14h25.46.453,multiplicationStroop,2021.2.3,Win32,59.22065616,,,,,,,,,,,,,,,,,,,,,,,,,,,,,,,,,30,1.6975,1,0,3,3,25,1,6,×,5,6 × 5,incongruent,largerFirst,1,2,30,,,,,,,,
,,,,,,,,,,,,,,,793,2022-01-17_14h25.46.453,multiplicationStroop,2021.2.3,Win32,59.22065616,,,,,,,,,,,,,,,,,,,,,,,,,,,,,,,,,8,1.999,1,0,4,4,24,1,4,×,2,4 × 2,incongruent,largerFirst,1,2,8,,,,,,,,
,,,,,,,,,,,,,,,793,2022-01-17_14h25.46.453,multiplicationStroop,2021.2.3,Win32,59.22065616,,,,,,,,,,,,,,,,,,,,,,,,,,,,,,,,,36,2.3964,1,0,5,5,15,1,9,×,4,9 × 4,incongruent,largerFirst,1,2,36,,,,,,,,
,,,,,,,,,,,,,,,793,2022-01-17_14h25.46.453,multiplicationStroop,2021.2.3,Win32,59.22065616,,,,,,,,,,,,,,,,,,,,,,,,,,,,,,,,,21,1.7134,1,0,6,6,26,1,7,×,3,7 × 3,incongruent,largerFirst,1,2,21,,,,,,,,
,,,,,,,,,,,,,,,793,2022-01-17_14h25.46.453,multiplicationStroop,2021.2.3,Win32,59.22065616,,,,,,,,,,,,,,,,,,,,,,,,,,,,,,,,,16,1.7149,1,0,7,7,30,1,4,×,4,4 × 4,incongruent,tie,1,2,16,,,,,,,,
,,,,,,,,,,,,,,,793,2022-01-17_14h25.46.453,multiplicationStroop,2021.2.3,Win32,59.22065616,,,,,,,,,,,,,,,,,,,,,,,,,,,,,,,,,10,1.3991,1,0,8,8,21,1,5,×,2,5 × 2,incongruent,largerFirst,1,2,10,,,,,,,,
,,,,,,,,,,,,,,,793,2022-01-17_14h25.46.453,multiplicationStroop,2021.2.3,Win32,59.22065616,,,,,,,,,,,,,,,,,,,,,,,,,,,,,,,,,18,1.7137,1,0,9,9,8,1,3,×,6,3 × 6,incongruent,smallerFirst,2,1,18,,,,,,,,
,,,,,,,,,,,,,,,793,2022-01-17_14h25.46.453,multiplicationStroop,2021.2.3,Win32,59.22065616,,,,,,,,,,,,,,,,,,,,,,,,,,,,,,,,,40,1.7143,1,0,10,10,13,1,5,×,8,5 × 8,incongruent,smallerFirst,2,1,40,,,,,,,,
,,,,,,,,,,,,,,,793,2022-01-17_14h25.46.453,multiplicationStroop,2021.2.3,Win32,59.22065616,,,,,,,,,,,,,,,,,,,,,,,,,,,,,,,,,16,2.1984,1,0,11,11,23,1,8,×,2,8 × 2,incongruent,largerFirst,1,2,16,,,,,,,,
,,,,,,,,,,,,,,,793,2022-01-17_14h25.46.453,multiplicationStroop,2021.2.3,Win32,59.22065616,,,,,,,,,,,,,,,,,,,,,,,,,,,,,,,,,32,2.581,1,0,12,12,7,1,4,×,8,4 × 8,incongruent,smallerFirst,2,1,32,,,,,,,,
,,,,,,,,,,,,,,,793,2022-01-17_14h25.46.453,multiplicationStroop,2021.2.3,Win32,59.22065616,,,,,,,,,,,,,,,,,,,,,,,,,,,,,,,,,14,1.5304,1,0,13,13,4,1,2,×,7,2 × 7,incongruent,smallerFirst,2,1,14,,,,,,,,
,,,,,,,,,,,,,,,793,2022-01-17_14h25.46.453,multiplicationStroop,2021.2.3,Win32,59.22065616,,,,,,,,,,,,,,,,,,,,,,,,,,,,,,,,,56,1.747,1,0,14,14,14,1,8,×,7,8 × 7,incongruent,largerFirst,1,2,56,,,,,,,,
,,,,,,,,,,,,,,,793,2022-01-17_14h25.46.453,multiplicationStroop,2021.2.3,Win32,59.22065616,,,,,,,,,,,,,,,,,,,,,,,,,,,,,,,,,49,1.6158,1,0,15,15,33,1,7,×,7,7 × 7,incongruent,tie,1,2,49,,,,,,,,
,,,,,,,,,,,,,,,793,2022-01-17_14h25.46.453,multiplicationStroop,2021.2.3,Win32,59.22065616,,,,,,,,,,,,,,,,,,,,,,,,,,,,,,,,,6,2.1975,1,0,16,16,11,1,2,×,3,2 × 3,incongruent,smallerFirst,2,1,6,,,,,,,,
,,,,,,,,,,,,,,,793,2022-01-17_14h25.46.453,multiplicationStroop,2021.2.3,Win32,59.22065616,,,,,,,,,,,,,,,,,,,,,,,,,,,,,,,,,72,1.6648,1,0,17,17,0,1,8,×,9,8 × 9,incongruent,smallerFirst,2,1,72,,,,,,,,
,,,,,,,,,,,,,,,793,2022-01-17_14h25.46.453,multiplicationStroop,2021.2.3,Win32,59.22065616,,,,,,,,,,,,,,,,,,,,,,,,,,,,,,,,,27,2.0474,1,0,18,18,18,1,9,×,3,9 × 3,incongruent,largerFirst,1,2,27,,,,,,,,
,,,,,,,,,,,,,,,793,2022-01-17_14h25.46.453,multiplicationStroop,2021.2.3,Win32,59.22065616,,,,,,,,,,,,,,,,,,,,,,,,,,,,,,,,,64,1.7141,1,0,19,19,34,1,8,×,8,8 × 8,incongruent,tie,1,2,64,,,,,,,,
,,,,,,,,,,,,,,,793,2022-01-17_14h25.46.453,multiplicationStroop,2021.2.3,Win32,59.22065616,,,,,,,,,,,,,,,,,,,,,,,,,,,,,,,,,45,2.0307,1,0,20,20,22,1,9,×,5,9 × 5,incongruent,largerFirst,1,2,45,,,,,,,,
,,,,,,,,,,,,,,,793,2022-01-17_14h25.46.453,multiplicationStroop,2021.2.3,Win32,59.22065616,,,,,,,,,,,,,,,,,,,,,,,,,,,,,,,,,54,2.0419,1,0,21,21,6,1,6,×,9,6 × 9,incongruent,smallerFirst,2,1,54,,,,,,,,
,,,,,,,,,,,,,,,793,2022-01-17_14h25.46.453,multiplicationStroop,2021.2.3,Win32,59.22065616,,,,,,,,,,,,,,,,,,,,,,,,,,,,,,,,,9,1.4965,1,0,22,22,29,1,3,×,3,3 × 3,incongruent,tie,1,2,9,,,,,,,,
,,,,,,,,,,,,,,,793,2022-01-17_14h25.46.453,multiplicationStroop,2021.2.3,Win32,59.22065616,,,,,,,,,,,,,,,,,,,,,,,,,,,,,,,,,35,2.0822,1,0,23,23,12,1,5,×,7,5 × 7,incongruent,smallerFirst,2,1,35,,,,,,,,
,,,,,,,,,,,,,,,793,2022-01-17_14h25.46.453,multiplicationStroop,2021.2.3,Win32,59.22065616,,,,,,,,,,,,,,,,,,,,,,,,,,,,,,,,,81,1.532,1,0,24,24,35,1,9,×,9,9 × 9,incongruent,tie,1,2,81,,,,,,,,
,,,,,,,,,,,,,,,793,2022-01-17_14h25.46.453,multiplicationStroop,2021.2.3,Win32,59.22065616,,,,,,,,,,,,,,,,,,,,,,,,,,,,,,,,,36,2.0967,1,0,25,25,32,1,6,×,6,6 × 6,incongruent,tie,1,2,36,,,,,,,,
,,,,,,,,,,,,,,,793,2022-01-17_14h25.46.453,multiplicationStroop,2021.2.3,Win32,59.22065616,,,,,,,,,,,,,,,,,,,,,,,,,,,,,,,,,63,2.1318,1,0,26,26,3,1,7,×,9,7 × 9,incongruent,smallerFirst,2,1,63,,,,,,,,
,,,,,,,,,,,,,,,793,2022-01-17_14h25.46.453,multiplicationStroop,2021.2.3,Win32,59.22065616,,,,,,,,,,,,,,,,,,,,,,,,,,,,,,,,,25,1.7979,1,0,27,27,31,1,5,×,5,5 × 5,incongruent,tie,1,2,25,,,,,,,,
,,,,,,,,,,,,,,,793,2022-01-17_14h25.46.453,multiplicationStroop,2021.2.3,Win32,59.22065616,,,,,,,,,,,,,,,,,,,,,,,,,,,,,,,,,18,1.6479,1,0,28,28,2,1,2,×,9,2 × 9,incongruent,smallerFirst,2,1,18,,,,,,,,
,,,,,,,,,,,,,,,793,2022-01-17_14h25.46.453,multiplicationStroop,2021.2.3,Win32,59.22065616,,,,,,,,,,,,,,,,,,,,,,,,,,,,,,,,,20,1.6976,1,0,29,29,27,1,5,×,4,5 × 4,incongruent,largerFirst,1,2,20,,,,,,,,
,,,,,,,,,,,,,,,793,2022-01-17_14h25.46.453,multiplicationStroop,2021.2.3,Win32,59.22065616,,,,,,,,,,,,,,,,,,,,,,,,,,,,,,,,,42,2.3162,1,0,30,30,17,1,7,×,6,7 × 6,incongruent,largerFirst,1,2,42,,,,,,,,
,,,,,,,,,,,,,,,793,2022-01-17_14h25.46.453,multiplicationStroop,2021.2.3,Win32,59.22065616,,,,,,,,,,,,,,,,,,,,,,,,,,,,,,,,,15,1.715,1,0,31,31,10,1,3,×,5,3 × 5,incongruent,smallerFirst,2,1,15,,,,,,,,
,,,,,,,,,,,,,,,793,2022-01-17_14h25.46.453,multiplicationStroop,2021.2.3,Win32,59.22065616,,,,,,,,,,,,,,,,,,,,,,,,,,,,,,,,,48,2.6802,1,0,32,32,1,1,6,×,8,6 × 8,incongruent,smallerFirst,2,1,48,,,,,,,,
,,,,,,,,,,,,,,,793,2022-01-17_14h25.46.453,multiplicationStroop,2021.2.3,Win32,59.22065616,,,,,,,,,,,,,,,,,,,,,,,,,,,,,,,,,4,1.3653,1,0,33,33,28,1,2,×,2,2 × 2,incongruent,tie,1,2,4,,,,,,,,
,,,,,,,,,,,,,,,793,2022-01-17_14h25.46.453,multiplicationStroop,2021.2.3,Win32,59.22065616,,,,,,,,,,,,,,,,,,,,,,,,,,,,,,,,,12,1.5822,1,0,34,34,5,1,3,×,4,3 × 4,incongruent,smallerFirst,2,1,12,,,,,,,,
,,,,,,,,,,,,,,,793,2022-01-17_14h25.46.453,multiplicationStroop,2021.2.3,Win32,59.22065616,,,,,,,,,,,,,,,,,,,,,,,,,,,,,,,,,24,1.9486,1,0,35,35,20,1,6,×,4,6 × 4,incongruent,largerFirst,1,2,24,,,,,,,,
,,,,,,,,,,,,,,,793,2022-01-17_14h25.46.453,multiplicationStroop,2021.2.3,Win32,59.22065616,,,,,,,,,,,,,,,,,,,,,,,,,,,,,,,,,,,,,,,,,,,,,,,,,,0,4,4,5,1,stimulusFile/mult_blk6_INcongruent.xlsx,,
,,,,,,,,,,,,,,,793,2022-01-17_14h25.46.453,multiplicationStroop,2021.2.3,Win32,59.22065616,,,,,,,,,,,,,,,,,,,,,,,,,,,,,,,space,1.0063,81,1.3743,1,0,0,0,35,1,9,×,9,9 × 9,neutral,tie,2,1,81,,,,,,,,
,,,,,,,,,,,,,,,793,2022-01-17_14h25.46.453,multiplicationStroop,2021.2.3,Win32,59.22065616,,,,,,,,,,,,,,,,,,,,,,,,,,,,,,,,,54,2.0298,1,0,1,1,20,1,9,×,6,9 × 6,incongruent,largerFirst,1,2,54,,,,,,,,
,,,,,,,,,,,,,,,793,2022-01-17_14h25.46.453,multiplicationStroop,2021.2.3,Win32,59.22065616,,,,,,,,,,,,,,,,,,,,,,,,,,,,,,,,,18,2.2975,1,0,2,2,22,1,6,×,3,6 × 3,incongruent,largerFirst,1,2,18,,,,,,,,
,,,,,,,,,,,,,,,793,2022-01-17_14h25.46.453,multiplicationStroop,2021.2.3,Win32,59.22065616,,,,,,,,,,,,,,,,,,,,,,,,,,,,,,,,,36,2.098,1,0,3,3,1,1,4,×,9,4 × 9,incongruent,smallerFirst,2,1,36,,,,,,,,
,,,,,,,,,,,,,,,793,2022-01-17_14h25.46.453,multiplicationStroop,2021.2.3,Win32,59.22065616,,,,,,,,,,,,,,,,,,,,,,,,,,,,,,,,,12,1.6815,1,0,4,4,5,1,2,×,6,2 × 6,incongruent,smallerFirst,2,1,12,,,,,,,,
,,,,,,,,,,,,,,,793,2022-01-17_14h25.46.453,multiplicationStroop,2021.2.3,Win32,59.22065616,,,,,,,,,,,,,,,,,,,,,,,,,,,,,,,,,20,1.582,1,0,5,5,13,1,4,×,5,4 × 5,incongruent,smallerFirst,2,1,20,,,,,,,,
,,,,,,,,,,,,,,,793,2022-01-17_14h25.46.453,multiplicationStroop,2021.2.3,Win32,59.22065616,,,,,,,,,,,,,,,,,,,,,,,,,,,,,,,,,45,2.1145,1,0,6,6,8,1,5,×,9,5 × 9,incongruent,smallerFirst,2,1,45,,,,,,,,
,,,,,,,,,,,,,,,793,2022-01-17_14h25.46.453,multiplicationStroop,2021.2.3,Win32,59.22065616,,,,,,,,,,,,,,,,,,,,,,,,,,,,,,,,,32,1.6639,1,0,7,7,21,1,8,×,4,8 × 4,incongruent,largerFirst,1,2,32,,,,,,,,
,,,,,,,,,,,,,,,793,2022-01-17_14h25.46.453,multiplicationStroop,2021.2.3,Win32,59.22065616,,,,,,,,,,,,,,,,,,,,,,,,,,,,,,,,,24,2.398,1,0,8,8,23,1,8,×,3,8 × 3,incongruent,largerFirst,1,2,24,,,,,,,,
,,,,,,,,,,,,,,,793,2022-01-17_14h25.46.453,multiplicationStroop,2021.2.3,Win32,59.22065616,,,,,,,,,,,,,,,,,,,,,,,,,,,,,,,,,4,1.2655,1,0,9,9,28,1,2,×,2,2 × 2,neutral,tie,2,1,4,,,,,,,,
,,,,,,,,,,,,,,,793,2022-01-17_14h25.46.453,multiplicationStroop,2021.2.3,Win32,59.22065616,,,,,,,,,,,,,,,,,,,,,,,,,,,,,,,,,56,1.5863,1,0,10,10,0,1,7,×,8,7 × 8,incongruent,smallerFirst,2,1,56,,,,,,,,
,,,,,,,,,,,,,,,793,2022-01-17_14h25.46.453,multiplicationStroop,2021.2.3,Win32,59.22065616,,,,,,,,,,,,,,,,,,,,,,,,,,,,,,,,,14,1.5442,1,0,11,11,18,1,7,×,2,7 × 2,incongruent,largerFirst,1,2,14,,,,,,,,
,,,,,,,,,,,,,,,793,2022-01-17_14h25.46.453,multiplicationStroop,2021.2.3,Win32,59.22065616,,,,,,,,,,,,,,,,,,,,,,,,,,,,,,,,,63,2.1313,1,0,12,12,17,1,9,×,7,9 × 7,incongruent,largerFirst,1,2,63,,,,,,,,
,,,,,,,,,,,,,,,793,2022-01-17_14h25.46.453,multiplicationStroop,2021.2.3,Win32,59.22065616,,,,,,,,,,,,,,,,,,,,,,,,,,,,,,,,,12,1.4471,1,0,13,13,19,1,4,×,3,4 × 3,incongruent,largerFirst,1,2,12,,,,,,,,
,,,,,,,,,,,,,,,793,2022-01-17_14h25.46.453,multiplicationStroop,2021.2.3,Win32,59.22065616,,,,,,,,,,,,,,,,,,,,,,,,,,,,,,,,,21,1.5652,1,0,14,14,12,1,3,×,7,3 × 7,incongruent,smallerFirst,2,1,21,,,,,,,,
,,,,,,,,,,,,,,,793,2022-01-17_14h25.46.453,multiplicationStroop,2021.2.3,Win32,59.22065616,,,,,,,,,,,,,,,,,,,,,,,,,,,,,,,,,16,2.0481,1,0,15,15,9,1,2,×,8,2 × 8,incongruent,smallerFirst,2,1,16,,,,,,,,
,,,,,,,,,,,,,,,793,2022-01-17_14h25.46.453,multiplicationStroop,2021.2.3,Win32,59.22065616,,,,,,,,,,,,,,,,,,,,,,,,,,,,,,,,,42,1.8906,1,0,16,16,3,1,6,×,7,6 × 7,incongruent,smallerFirst,2,1,42,,,,,,,,
,,,,,,,,,,,,,,,793,2022-01-17_14h25.46.453,multiplicationStroop,2021.2.3,Win32,59.22065616,,,,,,,,,,,,,,,,,,,,,,,,,,,,,,,,,25,2.0992,1,0,17,17,31,1,5,×,5,5 × 5,neutral,tie,2,1,25,,,,,,,,
,,,,,,,,,,,,,,,793,2022-01-17_14h25.46.453,multiplicationStroop,2021.2.3,Win32,59.22065616,,,,,,,,,,,,,,,,,,,,,,,,,,,,,,,,,10,1.6188,1,0,18,18,7,1,2,×,5,2 × 5,incongruent,smallerFirst,2,1,10,,,,,,,,
,,,,,,,,,,,,,,,793,2022-01-17_14h25.46.453,multiplicationStroop,2021.2.3,Win32,59.22065616,,,,,,,,,,,,,,,,,,,,,,,,,,,,,,,,,49,1.8158,1,0,19,19,33,1,7,×,7,7 × 7,neutral,tie,2,1,49,,,,,,,,
,,,,,,,,,,,,,,,793,2022-01-17_14h25.46.453,multiplicationStroop,2021.2.3,Win32,59.22065616,,,,,,,,,,,,,,,,,,,,,,,,,,,,,,,,,72,3.4993,1,0,20,20,14,1,9,×,8,9 × 8,incongruent,largerFirst,1,2,72,,,,,,,,
,,,,,,,,,,,,,,,793,2022-01-17_14h25.46.453,multiplicationStroop,2021.2.3,Win32,59.22065616,,,,,,,,,,,,,,,,,,,,,,,,,,,,,,,,,27,1.9136,1,0,21,21,4,1,3,×,9,3 × 9,incongruent,smallerFirst,2,1,27,,,,,,,,
,,,,,,,,,,,,,,,793,2022-01-17_14h25.46.453,multiplicationStroop,2021.2.3,Win32,59.22065616,,,,,,,,,,,,,,,,,,,,,,,,,,,,,,,,,6,1.548,1,0,22,22,25,1,3,×,2,3 × 2,incongruent,largerFirst,1,2,6,,,,,,,,
,,,,,,,,,,,,,,,793,2022-01-17_14h25.46.453,multiplicationStroop,2021.2.3,Win32,59.22065616,,,,,,,,,,,,,,,,,,,,,,,,,,,,,,,,,30,1.6151,1,0,23,23,11,1,5,×,6,5 × 6,incongruent,smallerFirst,2,1,30,,,,,,,,
,,,,,,,,,,,,,,,793,2022-01-17_14h25.46.453,multiplicationStroop,2021.2.3,Win32,59.22065616,,,,,,,,,,,,,,,,,,,,,,,,,,,,,,,,,48,1.8973,1,0,24,24,15,1,8,×,6,8 × 6,incongruent,largerFirst,1,2,48,,,,,,,,
,,,,,,,,,,,,,,,793,2022-01-17_14h25.46.453,multiplicationStroop,2021.2.3,Win32,59.22065616,,,,,,,,,,,,,,,,,,,,,,,,,,,,,,,,,64,1.814,1,0,25,25,34,1,8,×,8,8 × 8,neutral,tie,2,1,64,,,,,,,,
,,,,,,,,,,,,,,,793,2022-01-17_14h25.46.453,multiplicationStroop,2021.2.3,Win32,59.22065616,,,,,,,,,,,,,,,,,,,,,,,,,,,,,,,,,8,2.0159,1,0,26,26,10,1,2,×,4,2 × 4,incongruent,smallerFirst,2,1,8,,,,,,,,
,,,,,,,,,,,,,,,793,2022-01-17_14h25.46.453,multiplicationStroop,2021.2.3,Win32,59.22065616,,,,,,,,,,,,,,,,,,,,,,,,,,,,,,,,,36,2.5807,1,0,27,27,32,1,6,×,6,6 × 6,neutral,tie,2,1,36,,,,,,,,
,,,,,,,,,,,,,,,793,2022-01-17_14h25.46.453,multiplicationStroop,2021.2.3,Win32,59.22065616,,,,,,,,,,,,,,,,,,,,,,,,,,,,,,,,,28,2.7357,1,0,28,28,2,1,4,×,7,4 × 7,incongruent,smallerFirst,2,1,28,,,,,,,,
,,,,,,,,,,,,,,,793,2022-01-17_14h25.46.453,multiplicationStroop,2021.2.3,Win32,59.22065616,,,,,,,,,,,,,,,,,,,,,,,,,,,,,,,,,24,1.7025,1,0,29,29,6,1,4,×,6,4 × 6,incongruent,smallerFirst,2,1,24,,,,,,,,
,,,,,,,,,,,,,,,793,2022-01-17_14h25.46.453,multiplicationStroop,2021.2.3,Win32,59.22065616,,,,,,,,,,,,,,,,,,,,,,,,,,,,,,,,,9,1.3638,1,0,30,30,29,1,3,×,3,3 × 3,neutral,tie,2,1,9,,,,,,,,
,,,,,,,,,,,,,,,793,2022-01-17_14h25.46.453,multiplicationStroop,2021.2.3,Win32,59.22065616,,,,,,,,,,,,,,,,,,,,,,,,,,,,,,,,,16,1.6141,1,0,31,31,30,1,4,×,4,4 × 4,neutral,tie,2,1,16,,,,,,,,
,,,,,,,,,,,,,,,793,2022-01-17_14h25.46.453,multiplicationStroop,2021.2.3,Win32,59.22065616,,,,,,,,,,,,,,,,,,,,,,,,,,,,,,,,,15,1.6314,1,0,32,32,24,1,5,×,3,5 × 3,incongruent,largerFirst,1,2,15,,,,,,,,
,,,,,,,,,,,,,,,793,2022-01-17_14h25.46.453,multiplicationStroop,2021.2.3,Win32,59.22065616,,,,,,,,,,,,,,,,,,,,,,,,,,,,,,,,,40,3.0639,1,0,33,33,27,1,8,×,5,8 × 5,incongruent,largerFirst,1,2,40,,,,,,,,
,,,,,,,,,,,,,,,793,2022-01-17_14h25.46.453,multiplicationStroop,2021.2.3,Win32,59.22065616,,,,,,,,,,,,,,,,,,,,,,,,,,,,,,,,,35,1.4975,1,0,34,34,26,1,7,×,5,7 × 5,incongruent,largerFirst,1,2,35,,,,,,,,
,,,,,,,,,,,,,,,793,2022-01-17_14h25.46.453,multiplicationStroop,2021.2.3,Win32,59.22065616,,,,,,,,,,,,,,,,,,,,,,,,,,,,,,,,,18,1.5991,1,0,35,35,16,1,9,×,2,9 × 2,incongruent,largerFirst,1,2,18,,,,,,,,
,,,,,,,,,,,,,,,793,2022-01-17_14h25.46.453,multiplicationStroop,2021.2.3,Win32,59.22065616,,,,,,,,,,,,,,,,,,,,,,,,,,,,,,,,,,,,,,,,,,,,,,,,,,0,5,5,4,1,stimulusFile/mult_blk5_INcongruent.xlsx,,
,,,,,,,,,,,,,,,793,2022-01-17_14h25.46.453,multiplicationStroop,2021.2.3,Win32,59.22065616,,,,,,,,,,,,,,,,,,,,,,,,,,,,,,,,,,,,,,,,,,,,,,,,,,,,,,,,space,12.5106