welcomeKey_resp.keys,welcomeKey_resp.rt,X Scale,Y Scale,rt_resp_4.keys,rt_resp_4.corr,rt_resp_4.rt,speedtest_2.thisRepN,speedtest_2.thisTrialN,speedtest_2.thisN,speedtest_2.thisIndex,speedtest_2.ran,numberSc,posX,positionLayout,participant,date,expName,psychopyVersion,OS,frameRate,ct_instrresp.keys,ct_instrresp.rt,key_resp_2.keys,key_resp_2.rt,ct_keyResp.keys,ct_keyResp.corr,ct_keyResp.rt,trials.thisRepN,trials.thisTrialN,trials.thisN,trials.thisIndex,trials.ran,leftNo,rightNo,displayProblem,numDistance,leftNo_size,rightNo_size,Dims,keyAnswer,TS_Loop.thisRepN,TS_Loop.thisTrialN,TS_Loop.thisN,TS_Loop.thisIndex,TS_Loop.ran,Condition,ActionInst,instrImage,mltptaskInst_resp.keys,mltptaskInst_resp.rt,continue_resp_2.keys,continue_resp_2.rt,multp_Answer,multi_RT,multiplyCorr,LoopingMultiply.thisRepN,LoopingMultiply.thisTrialN,LoopingMultiply.thisN,LoopingMultiply.thisIndex,LoopingMultiply.ran,factor1,multiplySign,factor2,multliplyProblem,physicalSize,orderOperand,sizeF1,sizeF2,mult_answer,trials_stroop.thisRepN,trials_stroop.thisTrialN,trials_stroop.thisN,trials_stroop.thisIndex,trials_stroop.ran,multiplicationFile,esckey_resp_2.keys,esckey_resp_2.rt
y,7.6986,44.5,45.2,right,1,2.5822,0,0,0,8,1,1,200,right,794,2022-01-16_23h31.03.046,multiplicationStroop,2021.2.3,Win32,120.1778632,,,,,,,,,,,,,,,,,,,,,,,,,,,,,,,,,,,,,,,,,,,,,,,,,,,,,,,,,
,,,,left,1,0.8812,0,1,1,6,1,8,-200,left,794,2022-01-16_23h31.03.046,multiplicationStroop,2021.2.3,Win32,120.1778632,,,,,,,,,,,,,,,,,,,,,,,,,,,,,,,,,,,,,,,,,,,,,,,,,,,,,,,,,
,,,,right,1,0.335,0,2,2,15,1,9,200,right,794,2022-01-16_23h31.03.046,multiplicationStroop,2021.2.3,Win32,120.1778632,,,,,,,,,,,,,,,,,,,,,,,,,,,,,,,,,,,,,,,,,,,,,,,,,,,,,,,,,
,,,,right,1,0.5465,0,3,3,14,1,8,200,right,794,2022-01-16_23h31.03.046,multiplicationStroop,2021.2.3,Win32,120.1778632,,,,,,,,,,,,,,,,,,,,,,,,,,,,,,,,,,,,,,,,,,,,,,,,,,,,,,,,,
,,,,left,1,0.3746,0,4,4,1,1,2,-200,left,794,2022-01-16_23h31.03.046,multiplicationStroop,2021.2.3,Win32,120.1778632,,,,,,,,,,,,,,,,,,,,,,,,,,,,,,,,,,,,,,,,,,,,,,,,,,,,,,,,,
,,,,right,1,0.3127,0,5,5,10,1,3,200,right,794,2022-01-16_23h31.03.046,multiplicationStroop,2021.2.3,Win32,120.1778632,,,,,,,,,,,,,,,,,,,,,,,,,,,,,,,,,,,,,,,,,,,,,,,,,,,,,,,,,
,,,,right,1,0.4209,0,6,6,11,1,4,200,right,794,2022-01-16_23h31.03.046,multiplicationStroop,2021.2.3,Win32,120.1778632,,,,,,,,,,,,,,,,,,,,,,,,,,,,,,,,,,,,,,,,,,,,,,,,,,,,,,,,,
,,,,right,1,0.3212,0,7,7,12,1,6,200,right,794,2022-01-16_23h31.03.046,multiplicationStroop,2021.2.3,Win32,120.1778632,,,,,,,,,,,,,,,,,,,,,,,,,,,,,,,,,,,,,,,,,,,,,,,,,,,,,,,,,
,,,,left,1,0.5051,0,8,8,7,1,9,-200,left,794,2022-01-16_23h31.03.046,multiplicationStroop,2021.2.3,Win32,120.1778632,,,,,,,,,,,,,,,,,,,,,,,,,,,,,,,,,,,,,,,,,,,,,,,,,,,,,,,,,
,,,,left,1,0.4259,0,9,9,3,1,4,-200,left,794,2022-01-16_23h31.03.046,multiplicationStroop,2021.2.3,Win32,120.1778632,,,,,,,,,,,,,,,,,,,,,,,,,,,,,,,,,,,,,,,,,,,,,,,,,,,,,,,,,
,,,,left,1,0.3551,0,10,10,4,1,6,-200,left,794,2022-01-16_23h31.03.046,multiplicationStroop,2021.2.3,Win32,120.1778632,,,,,,,,,,,,,,,,,,,,,,,,,,,,,,,,,,,,,,,,,,,,,,,,,,,,,,,,,
,,,,left,1,0.3064,0,11,11,5,1,7,-200,left,794,2022-01-16_23h31.03.046,multiplicationStroop,2021.2.3,Win32,120.1778632,,,,,,,,,,,,,,,,,,,,,,,,,,,,,,,,,,,,,,,,,,,,,,,,,,,,,,,,,
,,,,right,1,0.3712,0,12,12,13,1,7,200,right,794,2022-01-16_23h31.03.046,multiplicationStroop,2021.2.3,Win32,120.1778632,,,,,,,,,,,,,,,,,,,,,,,,,,,,,,,,,,,,,,,,,,,,,,,,,,,,,,,,,
,,,,right,1,0.3713,0,13,13,9,1,2,200,right,794,2022-01-16_23h31.03.046,multiplicationStroop,2021.2.3,Win32,120.1778632,,,,,,,,,,,,,,,,,,,,,,,,,,,,,,,,,,,,,,,,,,,,,,,,,,,,,,,,,
,,,,left,1,0.3924,0,14,14,2,1,3,-200,left,794,2022-01-16_23h31.03.046,multiplicationStroop,2021.2.3,Win32,120.1778632,,,,,,,,,,,,,,,,,,,,,,,,,,,,,,,,,,,,,,,,,,,,,,,,,,,,,,,,,
,,,,left,1,0.3994,0,15,15,0,1,1,-200,left,794,2022-01-16_23h31.03.046,multiplicationStroop,2021.2.3,Win32,120.1778632,,,,,,,,,,,,,,,,,,,,,,,,,,,,,,,,,,,,,,,,,,,,,,,,,,,,,,,,,
,,,,left,1,0.3317,1,0,16,6,1,8,-200,left,794,2022-01-16_23h31.03.046,multiplicationStroop,2021.2.3,Win32,120.1778632,,,,,,,,,,,,,,,,,,,,,,,,,,,,,,,,,,,,,,,,,,,,,,,,,,,,,,,,,
,,,,right,1,0.3657,1,1,17,15,1,9,200,right,794,2022-01-16_23h31.03.046,multiplicationStroop,2021.2.3,Win32,120.1778632,,,,,,,,,,,,,,,,,,,,,,,,,,,,,,,,,,,,,,,,,,,,,,,,,,,,,,,,,
,,,,right,1,0.3461,1,2,18,8,1,1,200,right,794,2022-01-16_23h31.03.046,multiplicationStroop,2021.2.3,Win32,120.1778632,,,,,,,,,,,,,,,,,,,,,,,,,,,,,,,,,,,,,,,,,,,,,,,,,,,,,,,,,
,,,,right,0,0.3133,1,3,19,0,1,1,-200,left,794,2022-01-16_23h31.03.046,multiplicationStroop,2021.2.3,Win32,120.1778632,,,,,,,,,,,,,,,,,,,,,,,,,,,,,,,,,,,,,,,,,,,,,,,,,,,,,,,,,
,,,,left,1,0.5709,1,4,20,2,1,3,-200,left,794,2022-01-16_23h31.03.046,multiplicationStroop,2021.2.3,Win32,120.1778632,,,,,,,,,,,,,,,,,,,,,,,,,,,,,,,,,,,,,,,,,,,,,,,,,,,,,,,,,
,,,,left,1,0.398,1,5,21,3,1,4,-200,left,794,2022-01-16_23h31.03.046,multiplicationStroop,2021.2.3,Win32,120.1778632,,,,,,,,,,,,,,,,,,,,,,,,,,,,,,,,,,,,,,,,,,,,,,,,,,,,,,,,,
,,,,left,1,0.3416,1,6,22,5,1,7,-200,left,794,2022-01-16_23h31.03.046,multiplicationStroop,2021.2.3,Win32,120.1778632,,,,,,,,,,,,,,,,,,,,,,,,,,,,,,,,,,,,,,,,,,,,,,,,,,,,,,,,,
,,,,left,1,0.3325,1,7,23,1,1,2,-200,left,794,2022-01-16_23h31.03.046,multiplicationStroop,2021.2.3,Win32,120.1778632,,,,,,,,,,,,,,,,,,,,,,,,,,,,,,,,,,,,,,,,,,,,,,,,,,,,,,,,,
,,,,right,1,0.4323,1,8,24,14,1,8,200,right,794,2022-01-16_23h31.03.046,multiplicationStroop,2021.2.3,Win32,120.1778632,,,,,,,,,,,,,,,,,,,,,,,,,,,,,,,,,,,,,,,,,,,,,,,,,,,,,,,,,
,,,,right,1,0.3387,1,9,25,13,1,7,200,right,794,2022-01-16_23h31.03.046,multiplicationStroop,2021.2.3,Win32,120.1778632,,,,,,,,,,,,,,,,,,,,,,,,,,,,,,,,,,,,,,,,,,,,,,,,,,,,,,,,,
,,,,right,1,0.3639,1,10,26,12,1,6,200,right,794,2022-01-16_23h31.03.046,multiplicationStroop,2021.2.3,Win32,120.1778632,,,,,,,,,,,,,,,,,,,,,,,,,,,,,,,,,,,,,,,,,,,,,,,,,,,,,,,,,
,,,,right,1,0.3378,1,11,27,9,1,2,200,right,794,2022-01-16_23h31.03.046,multiplicationStroop,2021.2.3,Win32,120.1778632,,,,,,,,,,,,,,,,,,,,,,,,,,,,,,,,,,,,,,,,,,,,,,,,,,,,,,,,,
,,,,right,1,0.3939,1,12,28,11,1,4,200,right,794,2022-01-16_23h31.03.046,multiplicationStroop,2021.2.3,Win32,120.1778632,,,,,,,,,,,,,,,,,,,,,,,,,,,,,,,,,,,,,,,,,,,,,,,,,,,,,,,,,
,,,,left,1,0.3853,1,13,29,4,1,6,-200,left,794,2022-01-16_23h31.03.046,multiplicationStroop,2021.2.3,Win32,120.1778632,,,,,,,,,,,,,,,,,,,,,,,,,,,,,,,,,,,,,,,,,,,,,,,,,,,,,,,,,
,,,,right,1,0.3877,1,14,30,10,1,3,200,right,794,2022-01-16_23h31.03.046,multiplicationStroop,2021.2.3,Win32,120.1778632,,,,,,,,,,,,,,,,,,,,,,,,,,,,,,,,,,,,,,,,,,,,,,,,,,,,,,,,,
,,,,left,1,0.3376,1,15,31,7,1,9,-200,left,794,2022-01-16_23h31.03.046,multiplicationStroop,2021.2.3,Win32,120.1778632,,,,,,,,,,,,,,,,,,,,,,,,,,,,,,,,,,,,,,,,,,,,,,,,,,,,,,,,,
,,,,right,1,0.3099,2,0,32,15,1,9,200,right,794,2022-01-16_23h31.03.046,multiplicationStroop,2021.2.3,Win32,120.1778632,,,,,,,,,,,,,,,,,,,,,,,,,,,,,,,,,,,,,,,,,,,,,,,,,,,,,,,,,
,,,,left,1,0.3528,2,1,33,3,1,4,-200,left,794,2022-01-16_23h31.03.046,multiplicationStroop,2021.2.3,Win32,120.1778632,,,,,,,,,,,,,,,,,,,,,,,,,,,,,,,,,,,,,,,,,,,,,,,,,,,,,,,,,
,,,,right,1,0.315,2,2,34,13,1,7,200,right,794,2022-01-16_23h31.03.046,multiplicationStroop,2021.2.3,Win32,120.1778632,,,,,,,,,,,,,,,,,,,,,,,,,,,,,,,,,,,,,,,,,,,,,,,,,,,,,,,,,
,,,,left,1,0.4044,2,3,35,6,1,8,-200,left,794,2022-01-16_23h31.03.046,multiplicationStroop,2021.2.3,Win32,120.1778632,,,,,,,,,,,,,,,,,,,,,,,,,,,,,,,,,,,,,,,,,,,,,,,,,,,,,,,,,
,,,,right,1,0.2754,2,4,36,11,1,4,200,right,794,2022-01-16_23h31.03.046,multiplicationStroop,2021.2.3,Win32,120.1778632,,,,,,,,,,,,,,,,,,,,,,,,,,,,,,,,,,,,,,,,,,,,,,,,,,,,,,,,,
,,,,right,1,0.4917,2,5,37,8,1,1,200,right,794,2022-01-16_23h31.03.046,multiplicationStroop,2021.2.3,Win32,120.1778632,,,,,,,,,,,,,,,,,,,,,,,,,,,,,,,,,,,,,,,,,,,,,,,,,,,,,,,,,
,,,,right,1,0.4433,2,6,38,10,1,3,200,right,794,2022-01-16_23h31.03.046,multiplicationStroop,2021.2.3,Win32,120.1778632,,,,,,,,,,,,,,,,,,,,,,,,,,,,,,,,,,,,,,,,,,,,,,,,,,,,,,,,,
,,,,right,1,0.3958,2,7,39,9,1,2,200,right,794,2022-01-16_23h31.03.046,multiplicationStroop,2021.2.3,Win32,120.1778632,,,,,,,,,,,,,,,,,,,,,,,,,,,,,,,,,,,,,,,,,,,,,,,,,,,,,,,,,
,,,,left,1,0.5261,2,8,40,2,1,3,-200,left,794,2022-01-16_23h31.03.046,multiplicationStroop,2021.2.3,Win32,120.1778632,,,,,,,,,,,,,,,,,,,,,,,,,,,,,,,,,,,,,,,,,,,,,,,,,,,,,,,,,
,,,,left,1,0.4087,2,9,41,5,1,7,-200,left,794,2022-01-16_23h31.03.046,multiplicationStroop,2021.2.3,Win32,120.1778632,,,,,,,,,,,,,,,,,,,,,,,,,,,,,,,,,,,,,,,,,,,,,,,,,,,,,,,,,
,,,,left,1,0.3525,2,10,42,7,1,9,-200,left,794,2022-01-16_23h31.03.046,multiplicationStroop,2021.2.3,Win32,120.1778632,,,,,,,,,,,,,,,,,,,,,,,,,,,,,,,,,,,,,,,,,,,,,,,,,,,,,,,,,
,,,,left,1,0.3079,2,11,43,1,1,2,-200,left,794,2022-01-16_23h31.03.046,multiplicationStroop,2021.2.3,Win32,120.1778632,,,,,,,,,,,,,,,,,,,,,,,,,,,,,,,,,,,,,,,,,,,,,,,,,,,,,,,,,
,,,,right,1,0.3671,2,12,44,14,1,8,200,right,794,2022-01-16_23h31.03.046,multiplicationStroop,2021.2.3,Win32,120.1778632,,,,,,,,,,,,,,,,,,,,,,,,,,,,,,,,,,,,,,,,,,,,,,,,,,,,,,,,,
,,,,left,1,0.2993,2,13,45,4,1,6,-200,left,794,2022-01-16_23h31.03.046,multiplicationStroop,2021.2.3,Win32,120.1778632,,,,,,,,,,,,,,,,,,,,,,,,,,,,,,,,,,,,,,,,,,,,,,,,,,,,,,,,,
,,,,left,1,0.5209,2,14,46,0,1,1,-200,left,794,2022-01-16_23h31.03.046,multiplicationStroop,2021.2.3,Win32,120.1778632,,,,,,,,,,,,,,,,,,,,,,,,,,,,,,,,,,,,,,,,,,,,,,,,,,,,,,,,,
,,,,right,1,0.3267,2,15,47,12,1,6,200,right,794,2022-01-16_23h31.03.046,multiplicationStroop,2021.2.3,Win32,120.1778632,,,,,,,,,,,,,,,,,,,,,,,,,,,,,,,,,,,,,,,,,,,,,,,,,,,,,,,,,
,,,,right,1,0.5008,3,0,48,14,1,8,200,right,794,2022-01-16_23h31.03.046,multiplicationStroop,2021.2.3,Win32,120.1778632,,,,,,,,,,,,,,,,,,,,,,,,,,,,,,,,,,,,,,,,,,,,,,,,,,,,,,,,,
,,,,left,1,0.3396,3,1,49,3,1,4,-200,left,794,2022-01-16_23h31.03.046,multiplicationStroop,2021.2.3,Win32,120.1778632,,,,,,,,,,,,,,,,,,,,,,,,,,,,,,,,,,,,,,,,,,,,,,,,,,,,,,,,,
,,,,left,1,0.4555,3,2,50,7,1,9,-200,left,794,2022-01-16_23h31.03.046,multiplicationStroop,2021.2.3,Win32,120.1778632,,,,,,,,,,,,,,,,,,,,,,,,,,,,,,,,,,,,,,,,,,,,,,,,,,,,,,,,,
,,,,left,1,0.3582,3,3,51,4,1,6,-200,left,794,2022-01-16_23h31.03.046,multiplicationStroop,2021.2.3,Win32,120.1778632,,,,,,,,,,,,,,,,,,,,,,,,,,,,,,,,,,,,,,,,,,,,,,,,,,,,,,,,,
,,,,right,1,0.3084,3,4,52,11,1,4,200,right,794,2022-01-16_23h31.03.046,multiplicationStroop,2021.2.3,Win32,120.1778632,,,,,,,,,,,,,,,,,,,,,,,,,,,,,,,,,,,,,,,,,,,,,,,,,,,,,,,,,
,,,,right,1,0.3751,3,5,53,10,1,3,200,right,794,2022-01-16_23h31.03.046,multiplicationStroop,2021.2.3,Win32,120.1778632,,,,,,,,,,,,,,,,,,,,,,,,,,,,,,,,,,,,,,,,,,,,,,,,,,,,,,,,,
,,,,right,1,0.3833,3,6,54,9,1,2,200,right,794,2022-01-16_23h31.03.046,multiplicationStroop,2021.2.3,Win32,120.1778632,,,,,,,,,,,,,,,,,,,,,,,,,,,,,,,,,,,,,,,,,,,,,,,,,,,,,,,,,
,,,,left,1,0.3286,3,7,55,1,1,2,-200,left,794,2022-01-16_23h31.03.046,multiplicationStroop,2021.2.3,Win32,120.1778632,,,,,,,,,,,,,,,,,,,,,,,,,,,,,,,,,,,,,,,,,,,,,,,,,,,,,,,,,
,,,,right,1,0.3288,3,8,56,15,1,9,200,right,794,2022-01-16_23h31.03.046,multiplicationStroop,2021.2.3,Win32,120.1778632,,,,,,,,,,,,,,,,,,,,,,,,,,,,,,,,,,,,,,,,,,,,,,,,,,,,,,,,,
,,,,left,1,0.3003,3,9,57,2,1,3,-200,left,794,2022-01-16_23h31.03.046,multiplicationStroop,2021.2.3,Win32,120.1778632,,,,,,,,,,,,,,,,,,,,,,,,,,,,,,,,,,,,,,,,,,,,,,,,,,,,,,,,,
,,,,left,1,0.4206,3,10,58,0,1,1,-200,left,794,2022-01-16_23h31.03.046,multiplicationStroop,2021.2.3,Win32,120.1778632,,,,,,,,,,,,,,,,,,,,,,,,,,,,,,,,,,,,,,,,,,,,,,,,,,,,,,,,,
,,,,right,1,0.3168,3,11,59,12,1,6,200,right,794,2022-01-16_23h31.03.046,multiplicationStroop,2021.2.3,Win32,120.1778632,,,,,,,,,,,,,,,,,,,,,,,,,,,,,,,,,,,,,,,,,,,,,,,,,,,,,,,,,
,,,,left,1,0.2434,3,12,60,6,1,8,-200,left,794,2022-01-16_23h31.03.046,multiplicationStroop,2021.2.3,Win32,120.1778632,,,,,,,,,,,,,,,,,,,,,,,,,,,,,,,,,,,,,,,,,,,,,,,,,,,,,,,,,
,,,,left,1,0.393,3,13,61,5,1,7,-200,left,794,2022-01-16_23h31.03.046,multiplicationStroop,2021.2.3,Win32,120.1778632,,,,,,,,,,,,,,,,,,,,,,,,,,,,,,,,,,,,,,,,,,,,,,,,,,,,,,,,,
,,,,right,1,0.3666,3,14,62,13,1,7,200,right,794,2022-01-16_23h31.03.046,multiplicationStroop,2021.2.3,Win32,120.1778632,,,,,,,,,,,,,,,,,,,,,,,,,,,,,,,,,,,,,,,,,,,,,,,,,,,,,,,,,
,,,,left,0,0.2436,3,15,63,8,1,1,200,right,794,2022-01-16_23h31.03.046,multiplicationStroop,2021.2.3,Win32,120.1778632,,,,,,,,,,,,,,,,,,,,,,,,,,stimulusFile/physical.xlsx,,,,,,,,,,,,,,,,,,,,,,,,,,,,,,,
,,,,,,,,,,,,,,,794,2022-01-16_23h31.03.046,multiplicationStroop,2021.2.3,Win32,120.1778632,space,9.105,space,17.9797,left,1,1.9759,0,0,0,55,1,9,9,9 | 9,0,1.9756,1.4111,neutral,left,,,,,,stimulusFile/physical.xlsx,,,,,,,,,,,,,,,,,,,,,,,,,,,,,,,
,,,,,,,,,,,,,,,794,2022-01-16_23h31.03.046,multiplicationStroop,2021.2.3,Win32,120.1778632,,,,,left,1,0.754,0,1,1,35,1,7,9,7 | 9,2,1.9756,1.4111,incongruent,left,,,,,,stimulusFile/physical.xlsx,,,,,,,,,,,,,,,,,,,,,,,,,,,,,,,
,,,,,,,,,,,,,,,794,2022-01-16_23h31.03.046,multiplicationStroop,2021.2.3,Win32,120.1778632,,,,,left,1,0.5076,0,2,2,21,1,7,2,7 | 2,5,1.9756,1.4111,congruent,left,,,,,,stimulusFile/physical.xlsx,,,,,,,,,,,,,,,,,,,,,,,,,,,,,,,
,,,,,,,,,,,,,,,794,2022-01-16_23h31.03.046,multiplicationStroop,2021.2.3,Win32,120.1778632,,,,,left,0,0.7268,0,3,3,64,1,1,1,1 | 1,0,1.9756,1.4111,neutral,right,,,,,,stimulusFile/physical.xlsx,,,,,,,,,,,,,,,,,,,,,,,,,,,,,,,
,,,,,,,,,,,,,,,794,2022-01-16_23h31.03.046,multiplicationStroop,2021.2.3,Win32,120.1778632,,,,,left,1,1.0788,0,4,4,27,1,8,9,8 | 9,1,1.9756,1.4111,incongruent,left,,,,,,stimulusFile/physical.xlsx,,,,,,,,,,,,,,,,,,,,,,,,,,,,,,,
,,,,,,,,,,,,,,,794,2022-01-16_23h31.03.046,multiplicationStroop,2021.2.3,Win32,120.1778632,,,,,left,1,0.7629,0,5,5,15,1,9,7,9 | 7,2,1.9756,1.4111,congruent,left,,,,,,stimulusFile/physical.xlsx,,,,,,,,,,,,,,,,,,,,,,,,,,,,,,,
,,,,,,,,,,,,,,,794,2022-01-16_23h31.03.046,multiplicationStroop,2021.2.3,Win32,120.1778632,,,,,right,0,0.6659,0,6,6,71,1,9,9,9 | 9,0,1.4111,1.9756,neutral,left,,,,,,stimulusFile/physical.xlsx,,,,,,,,,,,,,,,,,,,,,,,,,,,,,,,
,,,,,,,,,,,,,,,794,2022-01-16_23h31.03.046,multiplicationStroop,2021.2.3,Win32,120.1778632,,,,,right,1,0.5916,0,7,7,39,1,9,7,9 | 7,2,1.4111,1.9756,incongruent,right,,,,,,stimulusFile/physical.xlsx,,,,,,,,,,,,,,,,,,,,,,,,,,,,,,,
,,,,,,,,,,,,,,,794,2022-01-16_23h31.03.046,multiplicationStroop,2021.2.3,Win32,120.1778632,,,,,left,1,0.5914,0,8,8,51,1,8,8,8 | 8,0,1.9756,1.4111,neutral,left,,,,,,stimulusFile/physical.xlsx,,,,,,,,,,,,,,,,,,,,,,,,,,,,,,,
,,,,,,,,,,,,,,,794,2022-01-16_23h31.03.046,multiplicationStroop,2021.2.3,Win32,120.1778632,,,,,left,1,0.8078,0,9,9,13,1,4,2,4 | 2,2,1.9756,1.4111,congruent,left,,,,,,stimulusFile/physical.xlsx,,,,,,,,,,,,,,,,,,,,,,,,,,,,,,,
,,,,,,,,,,,,,,,794,2022-01-16_23h31.03.046,multiplicationStroop,2021.2.3,Win32,120.1778632,,,,,left,1,1.1907,0,10,10,34,1,6,8,6 | 8,2,1.9756,1.4111,incongruent,left,,,,,,stimulusFile/physical.xlsx,,,,,,,,,,,,,,,,,,,,,,,,,,,,,,,
,,,,,,,,,,,,,,,794,2022-01-16_23h31.03.046,multiplicationStroop,2021.2.3,Win32,120.1778632,,,,,right,1,0.5414,0,11,11,60,1,3,3,3 | 3,0,1.4111,1.9756,neutral,right,,,,,,stimulusFile/physical.xlsx,,,,,,,,,,,,,,,,,,,,,,,,,,,,,,,
,,,,,,,,,,,,,,,794,2022-01-16_23h31.03.046,multiplicationStroop,2021.2.3,Win32,120.1778632,,,,,right,0,0.6768,0,12,12,26,1,6,7,6 | 7,1,1.9756,1.4111,incongruent,left,,,,,,stimulusFile/physical.xlsx,,,,,,,,,,,,,,,,,,,,,,,,,,,,,,,
,,,,,,,,,,,,,,,794,2022-01-16_23h31.03.046,multiplicationStroop,2021.2.3,Win32,120.1778632,,,,,right,1,0.8604,0,13,13,1,1,3,4,3 | 4,1,1.4111,1.9756,congruent,right,,,,,,stimulusFile/physical.xlsx,,,,,,,,,,,,,,,,,,,,,,,,,,,,,,,
,,,,,,,,,,,,,,,794,2022-01-16_23h31.03.046,multiplicationStroop,2021.2.3,Win32,120.1778632,,,,,right,1,0.6999,0,14,14,38,1,8,6,8 | 6,2,1.4111,1.9756,incongruent,right,,,,,,stimulusFile/physical.xlsx,,,,,,,,,,,,,,,,,,,,,,,,,,,,,,,
,,,,,,,,,,,,,,,794,2022-01-16_23h31.03.046,multiplicationStroop,2021.2.3,Win32,120.1778632,,,,,right,1,0.6247,0,15,15,19,1,4,9,4 | 9,5,1.4111,1.9756,congruent,right,,,,,,stimulusFile/physical.xlsx,,,,,,,,,,,,,,,,,,,,,,,,,,,,,,,
,,,,,,,,,,,,,,,794,2022-01-16_23h31.03.046,multiplicationStroop,2021.2.3,Win32,120.1778632,,,,,left,1,0.6745,0,16,16,43,1,4,9,4 | 9,5,1.9756,1.4111,incongruent,left,,,,,,stimulusFile/physical.xlsx,,,,,,,,,,,,,,,,,,,,,,,,,,,,,,,
,,,,,,,,,,,,,,,794,2022-01-16_23h31.03.046,multiplicationStroop,2021.2.3,Win32,120.1778632,,,,,left,0,0.6666,0,17,17,66,1,3,3,3 | 3,0,1.9756,1.4111,neutral,right,,,,,,stimulusFile/physical.xlsx,,,,,,,,,,,,,,,,,,,,,,,,,,,,,,,
,,,,,,,,,,,,,,,794,2022-01-16_23h31.03.046,multiplicationStroop,2021.2.3,Win32,120.1778632,,,,,right,1,0.7022,0,18,18,37,1,4,2,4 | 2,2,1.4111,1.9756,incongruent,right,,,,,,stimulusFile/physical.xlsx,,,,,,,,,,,,,,,,,,,,,,,,,,,,,,,
,,,,,,,,,,,,,,,794,2022-01-16_23h31.03.046,multiplicationStroop,2021.2.3,Win32,120.1778632,,,,,left,1,1.0741,0,19,19,5,1,4,3,4 | 3,1,1.9756,1.4111,congruent,left,,,,,,stimulusFile/physical.xlsx,,,,,,,,,,,,,,,,,,,,,,,,,,,,,,,
,,,,,,,,,,,,,,,794,2022-01-16_23h31.03.046,multiplicationStroop,2021.2.3,Win32,120.1778632,,,,,right,1,0.71,0,20,20,36,1,3,1,3 | 1,2,1.4111,1.9756,incongruent,right,,,,,,stimulusFile/physical.xlsx,,,,,,,,,,,,,,,,,,,,,,,,,,,,,,,
,,,,,,,,,,,,,,,794,2022-01-16_23h31.03.046,multiplicationStroop,2021.2.3,Win32,120.1778632,,,,,left,1,0.809,0,21,21,22,1,8,3,8 | 3,5,1.9756,1.4111,congruent,left,,,,,,stimulusFile/physical.xlsx,,,,,,,,,,,,,,,,,,,,,,,,,,,,,,,
,,,,,,,,,,,,,,,794,2022-01-16_23h31.03.046,multiplicationStroop,2021.2.3,Win32,120.1778632,,,,,right,1,0.5835,0,22,22,59,1,7,7,7 | 7,0,1.4111,1.9756,neutral,right,,,,,,stimulusFile/physical.xlsx,,,,,,,,,,,,,,,,,,,,,,,,,,,,,,,
,,,,,,,,,,,,,,,794,2022-01-16_23h31.03.046,multiplicationStroop,2021.2.3,Win32,120.1778632,,,,,right,1,0.6246,0,23,23,65,1,2,2,2 | 2,0,1.4111,1.9756,neutral,right,,,,,,stimulusFile/physical.xlsx,,,,,,,,,,,,,,,,,,,,,,,,,,,,,,,
,,,,,,,,,,,,,,,794,2022-01-16_23h31.03.046,multiplicationStroop,2021.2.3,Win32,120.1778632,,,,,right,1,0.5998,0,24,24,11,1,7,9,7 | 9,2,1.4111,1.9756,congruent,right,,,,,,stimulusFile/physical.xlsx,,,,,,,,,,,,,,,,,,,,,,,,,,,,,,,
,,,,,,,,,,,,,,,794,2022-01-16_23h31.03.046,multiplicationStroop,2021.2.3,Win32,120.1778632,,,,,right,1,0.5954,0,25,25,56,1,1,1,1 | 1,0,1.4111,1.9756,neutral,right,,,,,,stimulusFile/physical.xlsx,,,,,,,,,,,,,,,,,,,,,,,,,,,,,,,
,,,,,,,,,,,,,,,794,2022-01-16_23h31.03.046,multiplicationStroop,2021.2.3,Win32,120.1778632,,,,,left,1,0.6849,0,26,26,48,1,1,1,1 | 1,0,1.9756,1.4111,neutral,left,,,,,,stimulusFile/physical.xlsx,,,,,,,,,,,,,,,,,,,,,,,,,,,,,,,
,,,,,,,,,,,,,,,794,2022-01-16_23h31.03.046,multiplicationStroop,2021.2.3,Win32,120.1778632,,,,,right,1,0.6201,0,27,27,8,1,1,3,1 | 3,2,1.4111,1.9756,congruent,right,,,,,,stimulusFile/physical.xlsx,,,,,,,,,,,,,,,,,,,,,,,,,,,,,,,
,,,,,,,,,,,,,,,794,2022-01-16_23h31.03.046,multiplicationStroop,2021.2.3,Win32,120.1778632,,,,,left,1,0.6253,0,28,28,4,1,2,1,2 | 1,1,1.9756,1.4111,congruent,left,,,,,,stimulusFile/physical.xlsx,,,,,,,,,,,,,,,,,,,,,,,,,,,,,,,
,,,,,,,,,,,,,,,794,2022-01-16_23h31.03.046,multiplicationStroop,2021.2.3,Win32,120.1778632,,,,,right,0,0.5081,0,29,29,69,1,7,7,7 | 7,0,1.4111,1.9756,neutral,left,,,,,,stimulusFile/physical.xlsx,,,,,,,,,,,,,,,,,,,,,,,,,,,,,,,
,,,,,,,,,,,,,,,794,2022-01-16_23h31.03.046,multiplicationStroop,2021.2.3,Win32,120.1778632,,,,,right,1,0.7507,0,30,30,28,1,2,1,2 | 1,1,1.4111,1.9756,incongruent,right,,,,,,stimulusFile/physical.xlsx,,,,,,,,,,,,,,,,,,,,,,,,,,,,,,,
,,,,,,,,,,,,,,,794,2022-01-16_23h31.03.046,multiplicationStroop,2021.2.3,Win32,120.1778632,,,,,right,1,0.6748,0,31,31,31,1,9,8,9 | 8,1,1.4111,1.9756,incongruent,right,,,,,,stimulusFile/physical.xlsx,,,,,,,,,,,,,,,,,,,,,,,,,,,,,,,
,,,,,,,,,,,,,,,794,2022-01-16_23h31.03.046,multiplicationStroop,2021.2.3,Win32,120.1778632,,,,,left,1,0.7247,0,32,32,7,1,9,8,9 | 8,1,1.9756,1.4111,congruent,left,,,,,,stimulusFile/physical.xlsx,,,,,,,,,,,,,,,,,,,,,,,,,,,,,,,
,,,,,,,,,,,,,,,794,2022-01-16_23h31.03.046,multiplicationStroop,2021.2.3,Win32,120.1778632,,,,,right,1,0.708,0,33,33,44,1,6,1,6 | 1,5,1.4111,1.9756,incongruent,right,,,,,,stimulusFile/physical.xlsx,,,,,,,,,,,,,,,,,,,,,,,,,,,,,,,
,,,,,,,,,,,,,,,794,2022-01-16_23h31.03.046,multiplicationStroop,2021.2.3,Win32,120.1778632,,,,,left,1,0.5949,0,34,34,20,1,6,1,6 | 1,5,1.9756,1.4111,congruent,left,,,,,,stimulusFile/physical.xlsx,,,,,,,,,,,,,,,,,,,,,,,,,,,,,,,
,,,,,,,,,,,,,,,794,2022-01-16_23h31.03.046,multiplicationStroop,2021.2.3,Win32,120.1778632,,,,,right,0,0.525,0,35,35,50,1,6,6,6 | 6,0,1.9756,1.4111,neutral,left,,,,,,stimulusFile/physical.xlsx,,,,,,,,,,,,,,,,,,,,,,,,,,,,,,,
,,,,,,,,,,,,,,,794,2022-01-16_23h31.03.046,multiplicationStroop,2021.2.3,Win32,120.1778632,,,,,right,1,0.8163,0,36,36,46,1,8,3,8 | 3,5,1.4111,1.9756,incongruent,right,,,,,,stimulusFile/physical.xlsx,,,,,,,,,,,,,,,,,,,,,,,,,,,,,,,
,,,,,,,,,,,,,,,794,2022-01-16_23h31.03.046,multiplicationStroop,2021.2.3,Win32,120.1778632,,,,,left,1,0.575,0,37,37,24,1,1,2,1 | 2,1,1.9756,1.4111,incongruent,left,,,,,,stimulusFile/physical.xlsx,,,,,,,,,,,,,,,,,,,,,,,,,,,,,,,
,,,,,,,,,,,,,,,794,2022-01-16_23h31.03.046,multiplicationStroop,2021.2.3,Win32,120.1778632,,,,,right,1,0.5529,0,38,38,17,1,2,7,2 | 7,5,1.4111,1.9756,congruent,right,,,,,,stimulusFile/physical.xlsx,,,,,,,,,,,,,,,,,,,,,,,,,,,,,,,
,,,,,,,,,,,,,,,794,2022-01-16_23h31.03.046,multiplicationStroop,2021.2.3,Win32,120.1778632,,,,,left,1,0.5845,0,39,39,49,1,3,3,3 | 3,0,1.9756,1.4111,neutral,left,,,,,,stimulusFile/physical.xlsx,,,,,,,,,,,,,,,,,,,,,,,,,,,,,,,
,,,,,,,,,,,,,,,794,2022-01-16_23h31.03.046,multiplicationStroop,2021.2.3,Win32,120.1778632,,,,,left,1,0.6664,0,40,40,53,1,4,4,4 | 4,0,1.9756,1.4111,neutral,left,,,,,,stimulusFile/physical.xlsx,,,,,,,,,,,,,,,,,,,,,,,,,,,,,,,
,,,,,,,,,,,,,,,794,2022-01-16_23h31.03.046,multiplicationStroop,2021.2.3,Win32,120.1778632,,,,,right,1,0.676,0,41,41,47,1,9,4,9 | 4,5,1.4111,1.9756,incongruent,right,,,,,,stimulusFile/physical.xlsx,,,,,,,,,,,,,,,,,,,,,,,,,,,,,,,
,,,,,,,,,,,,,,,794,2022-01-16_23h31.03.046,multiplicationStroop,2021.2.3,Win32,120.1778632,,,,,right,1,0.5414,0,42,42,3,1,8,9,8 | 9,1,1.4111,1.9756,congruent,right,,,,,,stimulusFile/physical.xlsx,,,,,,,,,,,,,,,,,,,,,,,,,,,,,,,
,,,,,,,,,,,,,,,794,2022-01-16_23h31.03.046,multiplicationStroop,2021.2.3,Win32,120.1778632,,,,,left,1,0.5674,0,43,43,70,1,8,8,8 | 8,0,1.9756,1.4111,neutral,left,,,,,,stimulusFile/physical.xlsx,,,,,,,,,,,,,,,,,,,,,,,,,,,,,,,
,,,,,,,,,,,,,,,794,2022-01-16_23h31.03.046,multiplicationStroop,2021.2.3,Win32,120.1778632,,,,,right,1,0.5496,0,44,44,9,1,2,4,2 | 4,2,1.4111,1.9756,congruent,right,,,,,,stimulusFile/physical.xlsx,,,,,,,,,,,,,,,,,,,,,,,,,,,,,,,
,,,,,,,,,,,,,,,794,2022-01-16_23h31.03.046,multiplicationStroop,2021.2.3,Win32,120.1778632,,,,,left,1,0.5913,0,45,45,14,1,8,6,8 | 6,2,1.9756,1.4111,congruent,left,,,,,,stimulusFile/physical.xlsx,,,,,,,,,,,,,,,,,,,,,,,,,,,,,,,
,,,,,,,,,,,,,,,794,2022-01-16_23h31.03.046,multiplicationStroop,2021.2.3,Win32,120.1778632,,,,,left,1,0.6,0,46,46,42,1,3,8,3 | 8,5,1.9756,1.4111,incongruent,left,,,,,,stimulusFile/physical.xlsx,,,,,,,,,,,,,,,,,,,,,,,,,,,,,,,
,,,,,,,,,,,,,,,794,2022-01-16_23h31.03.046,multiplicationStroop,2021.2.3,Win32,120.1778632,,,,,right,1,0.5584,0,47,47,45,1,7,2,7 | 2,5,1.4111,1.9756,incongruent,right,,,,,,stimulusFile/physical.xlsx,,,,,,,,,,,,,,,,,,,,,,,,,,,,,,,
,,,,,,,,,,,,,,,794,2022-01-16_23h31.03.046,multiplicationStroop,2021.2.3,Win32,120.1778632,,,,,right,1,0.6523,0,48,48,2,1,6,7,6 | 7,1,1.4111,1.9756,congruent,right,,,,,,stimulusFile/physical.xlsx,,,,,,,,,,,,,,,,,,,,,,,,,,,,,,,
,,,,,,,,,,,,,,,794,2022-01-16_23h31.03.046,multiplicationStroop,2021.2.3,Win32,120.1778632,,,,,right,1,0.5621,0,49,49,58,1,6,6,6 | 6,0,1.4111,1.9756,neutral,right,,,,,,stimulusFile/physical.xlsx,,,,,,,,,,,,,,,,,,,,,,,,,,,,,,,
,,,,,,,,,,,,,,,794,2022-01-16_23h31.03.046,multiplicationStroop,2021.2.3,Win32,120.1778632,,,,,right,1,0.5677,0,50,50,16,1,1,6,1 | 6,5,1.4111,1.9756,congruent,right,,,,,,stimulusFile/physical.xlsx,,,,,,,,,,,,,,,,,,,,,,,,,,,,,,,
,,,,,,,,,,,,,,,794,2022-01-16_23h31.03.046,multiplicationStroop,2021.2.3,Win32,120.1778632,,,,,right,1,0.5008,0,51,51,62,1,8,8,8 | 8,0,1.4111,1.9756,neutral,right,,,,,,stimulusFile/physical.xlsx,,,,,,,,,,,,,,,,,,,,,,,,,,,,,,,
,,,,,,,,,,,,,,,794,2022-01-16_23h31.03.046,multiplicationStroop,2021.2.3,Win32,120.1778632,,,,,left,1,0.9912,0,52,52,68,1,6,6,6 | 6,0,1.9756,1.4111,neutral,left,,,,,,stimulusFile/physical.xlsx,,,,,,,,,,,,,,,,,,,,,,,,,,,,,,,
,,,,,,,,,,,,,,,794,2022-01-16_23h31.03.046,multiplicationStroop,2021.2.3,Win32,120.1778632,,,,,right,0,0.5248,0,53,53,41,1,2,7,2 | 7,5,1.9756,1.4111,incongruent,left,,,,,,stimulusFile/physical.xlsx,,,,,,,,,,,,,,,,,,,,,,,,,,,,,,,
,,,,,,,,,,,,,,,794,2022-01-16_23h31.03.046,multiplicationStroop,2021.2.3,Win32,120.1778632,,,,,right,1,1.2742,0,54,54,29,1,4,3,4 | 3,1,1.4111,1.9756,incongruent,right,,,,,,stimulusFile/physical.xlsx,,,,,,,,,,,,,,,,,,,,,,,,,,,,,,,
,,,,,,,,,,,,,,,794,2022-01-16_23h31.03.046,multiplicationStroop,2021.2.3,Win32,120.1778632,,,,,right,1,0.5705,0,55,55,18,1,3,8,3 | 8,5,1.4111,1.9756,congruent,right,,,,,,stimulusFile/physical.xlsx,,,,,,,,,,,,,,,,,,,,,,,,,,,,,,,
,,,,,,,,,,,,,,,794,2022-01-16_23h31.03.046,multiplicationStroop,2021.2.3,Win32,120.1778632,,,,,left,1,0.653,0,56,56,25,1,3,4,3 | 4,1,1.9756,1.4111,incongruent,left,,,,,,stimulusFile/physical.xlsx,,,,,,,,,,,,,,,,,,,,,,,,,,,,,,,
,,,,,,,,,,,,,,,794,2022-01-16_23h31.03.046,multiplicationStroop,2021.2.3,Win32,120.1778632,,,,,left,1,0.5742,0,57,57,52,1,2,2,2 | 2,0,1.9756,1.4111,neutral,left,,,,,,stimulusFile/physical.xlsx,,,,,,,,,,,,,,,,,,,,,,,,,,,,,,,
,,,,,,,,,,,,,,,794,2022-01-16_23h31.03.046,multiplicationStroop,2021.2.3,Win32,120.1778632,,,,,left,1,0.5845,0,58,58,54,1,7,7,7 | 7,0,1.9756,1.4111,neutral,left,,,,,,stimulusFile/physical.xlsx,,,,,,,,,,,,,,,,,,,,,,,,,,,,,,,
,,,,,,,,,,,,,,,794,2022-01-16_23h31.03.046,multiplicationStroop,2021.2.3,Win32,120.1778632,,,,,right,1,0.633,0,59,59,10,1,6,8,6 | 8,2,1.4111,1.9756,congruent,right,,,,,,stimulusFile/physical.xlsx,,,,,,,,,,,,,,,,,,,,,,,,,,,,,,,
,,,,,,,,,,,,,,,794,2022-01-16_23h31.03.046,multiplicationStroop,2021.2.3,Win32,120.1778632,,,,,left,1,0.5497,0,60,60,32,1,1,3,1 | 3,2,1.9756,1.4111,incongruent,left,,,,,,stimulusFile/physical.xlsx,,,,,,,,,,,,,,,,,,,,,,,,,,,,,,,
,,,,,,,,,,,,,,,794,2022-01-16_23h31.03.046,multiplicationStroop,2021.2.3,Win32,120.1778632,,,,,right,1,0.5837,0,61,61,67,1,4,4,4 | 4,0,1.4111,1.9756,neutral,right,,,,,,stimulusFile/physical.xlsx,,,,,,,,,,,,,,,,,,,,,,,,,,,,,,,
,,,,,,,,,,,,,,,794,2022-01-16_23h31.03.046,multiplicationStroop,2021.2.3,Win32,120.1778632,,,,,left,1,0.6954,0,62,62,23,1,9,4,9 | 4,5,1.9756,1.4111,congruent,left,,,,,,stimulusFile/physical.xlsx,,,,,,,,,,,,,,,,,,,,,,,,,,,,,,,
,,,,,,,,,,,,,,,794,2022-01-16_23h31.03.046,multiplicationStroop,2021.2.3,Win32,120.1778632,,,,,left,1,0.6949,0,63,63,12,1,3,1,3 | 1,2,1.9756,1.4111,congruent,left,,,,,,stimulusFile/physical.xlsx,,,,,,,,,,,,,,,,,,,,,,,,,,,,,,,
,,,,,,,,,,,,,,,794,2022-01-16_23h31.03.046,multiplicationStroop,2021.2.3,Win32,120.1778632,,,,,right,1,0.6019,0,64,64,61,1,4,4,4 | 4,0,1.4111,1.9756,neutral,right,,,,,,stimulusFile/physical.xlsx,,,,,,,,,,,,,,,,,,,,,,,,,,,,,,,
,,,,,,,,,,,,,,,794,2022-01-16_23h31.03.046,multiplicationStroop,2021.2.3,Win32,120.1778632,,,,,right,1,0.6081,0,65,65,63,1,9,9,9 | 9,0,1.4111,1.9756,neutral,right,,,,,,stimulusFile/physical.xlsx,,,,,,,,,,,,,,,,,,,,,,,,,,,,,,,
,,,,,,,,,,,,,,,794,2022-01-16_23h31.03.046,multiplicationStroop,2021.2.3,Win32,120.1778632,,,,,right,1,0.7663,0,66,66,30,1,7,6,7 | 6,1,1.4111,1.9756,incongruent,right,,,,,,stimulusFile/physical.xlsx,,,,,,,,,,,,,,,,,,,,,,,,,,,,,,,
,,,,,,,,,,,,,,,794,2022-01-16_23h31.03.046,multiplicationStroop,2021.2.3,Win32,120.1778632,,,,,left,1,1.4323,0,67,67,33,1,2,4,2 | 4,2,1.9756,1.4111,incongruent,left,,,,,,stimulusFile/physical.xlsx,,,,,,,,,,,,,,,,,,,,,,,,,,,,,,,
,,,,,,,,,,,,,,,794,2022-01-16_23h31.03.046,multiplicationStroop,2021.2.3,Win32,120.1778632,,,,,right,1,0.5239,0,68,68,57,1,2,2,2 | 2,0,1.4111,1.9756,neutral,right,,,,,,stimulusFile/physical.xlsx,,,,,,,,,,,,,,,,,,,,,,,,,,,,,,,
,,,,,,,,,,,,,,,794,2022-01-16_23h31.03.046,multiplicationStroop,2021.2.3,Win32,120.1778632,,,,,left,1,0.558,0,69,69,40,1,1,6,1 | 6,5,1.9756,1.4111,incongruent,left,,,,,,stimulusFile/physical.xlsx,,,,,,,,,,,,,,,,,,,,,,,,,,,,,,,
,,,,,,,,,,,,,,,794,2022-01-16_23h31.03.046,multiplicationStroop,2021.2.3,Win32,120.1778632,,,,,left,1,0.6082,0,70,70,6,1,7,6,7 | 6,1,1.9756,1.4111,congruent,left,,,,,,stimulusFile/physical.xlsx,,,,,,,,,,,,,,,,,,,,,,,,,,,,,,,
,,,,,,,,,,,,,,,794,2022-01-16_23h31.03.046,multiplicationStroop,2021.2.3,Win32,120.1778632,,,,,right,1,0.5672,0,71,71,0,1,1,2,1 | 2,1,1.4111,1.9756,congruent,right,,,,,,stimulusFile/physical.xlsx,,,,,,,,,,,,,,,,,,,,,,,,,,,,,,,
,,,,,,,,,,,,,,,794,2022-01-16_23h31.03.046,multiplicationStroop,2021.2.3,Win32,120.1778632,,,,,,,,,,,,,,,,,,,,,0,0,0,1,1,stimulusFile/physical.xlsx,PHYSICALLY larger (larger font size).,images/physicallyLarger.png,,,,,,,,,,,,,,,,,,,,,,,,,,,,,
,,,,,,,,,,,,,,,794,2022-01-16_23h31.03.046,multiplicationStroop,2021.2.3,Win32,120.1778632,space,3.6637,space,64.6544,right,0,3.9003,0,0,0,60,1,3,1,3 | 1,2,1.6933,1.6933,neutral,left,,,,,,stimulusFile/magnitude.xlsx,,,,,,,,,,,,,,,,,,,,,,,,,,,,,,,
,,,,,,,,,,,,,,,794,2022-01-16_23h31.03.046,multiplicationStroop,2021.2.3,Win32,120.1778632,,,,,right,1,0.8916,0,1,1,2,1,6,7,6 | 7,1,1.4111,1.9756,congruent,right,,,,,,stimulusFile/magnitude.xlsx,,,,,,,,,,,,,,,,,,,,,,,,,,,,,,,
,,,,,,,,,,,,,,,794,2022-01-16_23h31.03.046,multiplicationStroop,2021.2.3,Win32,120.1778632,,,,,left,1,3.018,0,2,2,4,1,2,1,2 | 1,1,1.9756,1.4111,congruent,left,,,,,,stimulusFile/magnitude.xlsx,,,,,,,,,,,,,,,,,,,,,,,,,,,,,,,
,,,,,,,,,,,,,,,794,2022-01-16_23h31.03.046,multiplicationStroop,2021.2.3,Win32,120.1778632,,,,,right,1,0.6529,0,3,3,51,1,8,9,8 | 9,1,1.6933,1.6933,neutral,right,,,,,,stimulusFile/magnitude.xlsx,,,,,,,,,,,,,,,,,,,,,,,,,,,,,,,
,,,,,,,,,,,,,,,794,2022-01-16_23h31.03.046,multiplicationStroop,2021.2.3,Win32,120.1778632,,,,,right,0,0.6913,0,4,4,47,1,9,4,9 | 4,5,1.4111,1.9756,incongruent,left,,,,,,stimulusFile/magnitude.xlsx,,,,,,,,,,,,,,,,,,,,,,,,,,,,,,,
,,,,,,,,,,,,,,,794,2022-01-16_23h31.03.046,multiplicationStroop,2021.2.3,Win32,120.1778632,,,,,right,1,0.4855,0,5,5,56,1,1,3,1 | 3,2,1.6933,1.6933,neutral,right,,,,,,stimulusFile/magnitude.xlsx,,,,,,,,,,,,,,,,,,,,,,,,,,,,,,,
,,,,,,,,,,,,,,,794,2022-01-16_23h31.03.046,multiplicationStroop,2021.2.3,Win32,120.1778632,,,,,right,1,0.4759,0,6,6,32,1,1,3,1 | 3,2,1.9756,1.4111,incongruent,right,,,,,,stimulusFile/magnitude.xlsx,,,,,,,,,,,,,,,,,,,,,,,,,,,,,,,
,,,,,,,,,,,,,,,794,2022-01-16_23h31.03.046,multiplicationStroop,2021.2.3,Win32,120.1778632,,,,,left,1,2.2485,0,7,7,71,1,9,4,9 | 4,5,1.6933,1.6933,neutral,left,,,,,,stimulusFile/magnitude.xlsx,,,,,,,,,,,,,,,,,,,,,,,,,,,,,,,
,,,,,,,,,,,,,,,794,2022-01-16_23h31.03.046,multiplicationStroop,2021.2.3,Win32,120.1778632,,,,,left,0,1.091,0,8,8,42,1,3,8,3 | 8,5,1.9756,1.4111,incongruent,right,,,,,,stimulusFile/magnitude.xlsx,,,,,,,,,,,,,,,,,,,,,,,,,,,,,,,
,,,,,,,,,,,,,,,794,2022-01-16_23h31.03.046,multiplicationStroop,2021.2.3,Win32,120.1778632,,,,,left,1,0.6539,0,9,9,6,1,7,6,7 | 6,1,1.9756,1.4111,congruent,left,,,,,,stimulusFile/magnitude.xlsx,,,,,,,,,,,,,,,,,,,,,,,,,,,,,,,
,,,,,,,,,,,,,,,794,2022-01-16_23h31.03.046,multiplicationStroop,2021.2.3,Win32,120.1778632,,,,,right,1,0.6034,0,10,10,66,1,3,8,3 | 8,5,1.6933,1.6933,neutral,right,,,,,,stimulusFile/magnitude.xlsx,,,,,,,,,,,,,,,,,,,,,,,,,,,,,,,
,,,,,,,,,,,,,,,794,2022-01-16_23h31.03.046,multiplicationStroop,2021.2.3,Win32,120.1778632,,,,,right,0,0.658,0,11,11,28,1,2,1,2 | 1,1,1.4111,1.9756,incongruent,left,,,,,,stimulusFile/magnitude.xlsx,,,,,,,,,,,,,,,,,,,,,,,,,,,,,,,
,,,,,,,,,,,,,,,794,2022-01-16_23h31.03.046,multiplicationStroop,2021.2.3,Win32,120.1778632,,,,,right,1,0.4999,0,12,12,1,1,3,4,3 | 4,1,1.4111,1.9756,congruent,right,,,,,,stimulusFile/magnitude.xlsx,,,,,,,,,,,,,,,,,,,,,,,,,,,,,,,
,,,,,,,,,,,,,,,794,2022-01-16_23h31.03.046,multiplicationStroop,2021.2.3,Win32,120.1778632,,,,,right,0,0.5331,0,13,13,37,1,4,2,4 | 2,2,1.4111,1.9756,incongruent,left,,,,,,stimulusFile/magnitude.xlsx,,,,,,,,,,,,,,,,,,,,,,,,,,,,,,,
,,,,,,,,,,,,,,,794,2022-01-16_23h31.03.046,multiplicationStroop,2021.2.3,Win32,120.1778632,,,,,left,1,0.8683,0,14,14,5,1,4,3,4 | 3,1,1.9756,1.4111,congruent,left,,,,,,stimulusFile/magnitude.xlsx,,,,,,,,,,,,,,,,,,,,,,,,,,,,,,,
,,,,,,,,,,,,,,,794,2022-01-16_23h31.03.046,multiplicationStroop,2021.2.3,Win32,120.1778632,,,,,left,1,0.6411,0,15,15,20,1,6,1,6 | 1,5,1.9756,1.4111,congruent,left,,,,,,stimulusFile/magnitude.xlsx,,,,,,,,,,,,,,,,,,,,,,,,,,,,,,,
,,,,,,,,,,,,,,,794,2022-01-16_23h31.03.046,multiplicationStroop,2021.2.3,Win32,120.1778632,,,,,left,0,0.529,0,16,16,34,1,6,8,6 | 8,2,1.9756,1.4111,incongruent,right,,,,,,stimulusFile/magnitude.xlsx,,,,,,,,,,,,,,,,,,,,,,,,,,,,,,,
,,,,,,,,,,,,,,,794,2022-01-16_23h31.03.046,multiplicationStroop,2021.2.3,Win32,120.1778632,,,,,right,1,0.4697,0,17,17,50,1,6,7,6 | 7,1,1.6933,1.6933,neutral,right,,,,,,stimulusFile/magnitude.xlsx,,,,,,,,,,,,,,,,,,,,,,,,,,,,,,,
,,,,,,,,,,,,,,,794,2022-01-16_23h31.03.046,multiplicationStroop,2021.2.3,Win32,120.1778632,,,,,left,0,1.0028,0,18,18,43,1,4,9,4 | 9,5,1.9756,1.4111,incongruent,right,,,,,,stimulusFile/magnitude.xlsx,,,,,,,,,,,,,,,,,,,,,,,,,,,,,,,
,,,,,,,,,,,,,,,794,2022-01-16_23h31.03.046,multiplicationStroop,2021.2.3,Win32,120.1778632,,,,,left,1,0.5993,0,19,19,22,1,8,3,8 | 3,5,1.9756,1.4111,congruent,left,,,,,,stimulusFile/magnitude.xlsx,,,,,,,,,,,,,,,,,,,,,,,,,,,,,,,
,,,,,,,,,,,,,,,794,2022-01-16_23h31.03.046,multiplicationStroop,2021.2.3,Win32,120.1778632,,,,,right,0,0.4248,0,20,20,38,1,8,6,8 | 6,2,1.4111,1.9756,incongruent,left,,,,,,stimulusFile/magnitude.xlsx,,,,,,,,,,,,,,,,,,,,,,,,,,,,,,,
,,,,,,,,,,,,,,,794,2022-01-16_23h31.03.046,multiplicationStroop,2021.2.3,Win32,120.1778632,,,,,left,0,1.1491,0,21,21,35,1,7,9,7 | 9,2,1.9756,1.4111,incongruent,right,,,,,,stimulusFile/magnitude.xlsx,,,,,,,,,,,,,,,,,,,,,,,,,,,,,,,
,,,,,,,,,,,,,,,794,2022-01-16_23h31.03.046,multiplicationStroop,2021.2.3,Win32,120.1778632,,,,,left,0,0.8414,0,22,22,27,1,8,9,8 | 9,1,1.9756,1.4111,incongruent,right,,,,,,stimulusFile/magnitude.xlsx,,,,,,,,,,,,,,,,,,,,,,,,,,,,,,,
,,,,,,,,,,,,,,,794,2022-01-16_23h31.03.046,multiplicationStroop,2021.2.3,Win32,120.1778632,,,,,right,1,0.4505,0,23,23,17,1,2,7,2 | 7,5,1.4111,1.9756,congruent,right,,,,,,stimulusFile/magnitude.xlsx,,,,,,,,,,,,,,,,,,,,,,,,,,,,,,,
,,,,,,,,,,,,,,,794,2022-01-16_23h31.03.046,multiplicationStroop,2021.2.3,Win32,120.1778632,,,,,right,1,0.6013,0,24,24,64,1,1,6,1 | 6,5,1.6933,1.6933,neutral,right,,,,,,stimulusFile/magnitude.xlsx,,,,,,,,,,,,,,,,,,,,,,,,,,,,,,,
,,,,,,,,,,,,,,,794,2022-01-16_23h31.03.046,multiplicationStroop,2021.2.3,Win32,120.1778632,,,,,left,1,0.4777,0,25,25,13,1,4,2,4 | 2,2,1.9756,1.4111,congruent,left,,,,,,stimulusFile/magnitude.xlsx,,,,,,,,,,,,,,,,,,,,,,,,,,,,,,,
,,,,,,,,,,,,,,,794,2022-01-16_23h31.03.046,multiplicationStroop,2021.2.3,Win32,120.1778632,,,,,right,0,0.4609,0,26,26,31,1,9,8,9 | 8,1,1.4111,1.9756,incongruent,left,,,,,,stimulusFile/magnitude.xlsx,,,,,,,,,,,,,,,,,,,,,,,,,,,,,,,
,,,,,,,,,,,,,,,794,2022-01-16_23h31.03.046,multiplicationStroop,2021.2.3,Win32,120.1778632,,,,,right,0,0.7576,0,27,27,61,1,4,2,4 | 2,2,1.6933,1.6933,neutral,left,,,,,,stimulusFile/magnitude.xlsx,,,,,,,,,,,,,,,,,,,,,,,,,,,,,,,
,,,,,,,,,,,,,,,794,2022-01-16_23h31.03.046,multiplicationStroop,2021.2.3,Win32,120.1778632,,,,,right,0,0.5286,0,28,28,39,1,9,7,9 | 7,2,1.4111,1.9756,incongruent,left,,,,,,stimulusFile/magnitude.xlsx,,,,,,,,,,,,,,,,,,,,,,,,,,,,,,,
,,,,,,,,,,,,,,,794,2022-01-16_23h31.03.046,multiplicationStroop,2021.2.3,Win32,120.1778632,,,,,right,1,0.4367,0,29,29,48,1,1,2,1 | 2,1,1.6933,1.6933,neutral,right,,,,,,stimulusFile/magnitude.xlsx,,,,,,,,,,,,,,,,,,,,,,,,,,,,,,,
,,,,,,,,,,,,,,,794,2022-01-16_23h31.03.046,multiplicationStroop,2021.2.3,Win32,120.1778632,,,,,right,0,0.6922,0,30,30,30,1,7,6,7 | 6,1,1.4111,1.9756,incongruent,left,,,,,,stimulusFile/magnitude.xlsx,,,,,,,,,,,,,,,,,,,,,,,,,,,,,,,
,,,,,,,,,,,,,,,794,2022-01-16_23h31.03.046,multiplicationStroop,2021.2.3,Win32,120.1778632,,,,,right,0,0.5748,0,31,31,36,1,3,1,3 | 1,2,1.4111,1.9756,incongruent,left,,,,,,stimulusFile/magnitude.xlsx,,,,,,,,,,,,,,,,,,,,,,,,,,,,,,,
,,,,,,,,,,,,,,,794,2022-01-16_23h31.03.046,multiplicationStroop,2021.2.3,Win32,120.1778632,,,,,left,0,1.249,0,32,32,65,1,2,7,2 | 7,5,1.6933,1.6933,neutral,right,,,,,,stimulusFile/magnitude.xlsx,,,,,,,,,,,,,,,,,,,,,,,,,,,,,,,
,,,,,,,,,,,,,,,794,2022-01-16_23h31.03.046,multiplicationStroop,2021.2.3,Win32,120.1778632,,,,,right,1,2.7727,0,33,33,49,1,3,4,3 | 4,1,1.6933,1.6933,neutral,right,,,,,,stimulusFile/magnitude.xlsx,,,,,,,,,,,,,,,,,,,,,,,,,,,,,,,
,,,,,,,,,,,,,,,794,2022-01-16_23h31.03.046,multiplicationStroop,2021.2.3,Win32,120.1778632,,,,,left,0,2.1593,0,34,34,40,1,1,6,1 | 6,5,1.9756,1.4111,incongruent,right,,,,,,stimulusFile/magnitude.xlsx,,,,,,,,,,,,,,,,,,,,,,,,,,,,,,,
,,,,,,,,,,,,,,,794,2022-01-16_23h31.03.046,multiplicationStroop,2021.2.3,Win32,120.1778632,,,,,left,0,1.2988,0,35,35,24,1,1,2,1 | 2,1,1.9756,1.4111,incongruent,right,,,,,,stimulusFile/magnitude.xlsx,,,,,,,,,,,,,,,,,,,,,,,,,,,,,,,
,,,,,,,,,,,,,,,794,2022-01-16_23h31.03.046,multiplicationStroop,2021.2.3,Win32,120.1778632,,,,,right,0,0.6184,0,36,36,45,1,7,2,7 | 2,5,1.4111,1.9756,incongruent,left,,,,,,stimulusFile/magnitude.xlsx,,,,,,,,,,,,,,,,,,,,,,,,,,,,,,,
,,,,,,,,,,,,,,,794,2022-01-16_23h31.03.046,multiplicationStroop,2021.2.3,Win32,120.1778632,,,,,right,1,0.5996,0,37,37,16,1,1,6,1 | 6,5,1.4111,1.9756,congruent,right,,,,,,stimulusFile/magnitude.xlsx,,,,,,,,,,,,,,,,,,,,,,,,,,,,,,,
,,,,,,,,,,,,,,,794,2022-01-16_23h31.03.046,multiplicationStroop,2021.2.3,Win32,120.1778632,,,,,left,1,0.6696,0,38,38,14,1,8,6,8 | 6,2,1.9756,1.4111,congruent,left,,,,,,stimulusFile/magnitude.xlsx,,,,,,,,,,,,,,,,,,,,,,,,,,,,,,,
,,,,,,,,,,,,,,,794,2022-01-16_23h31.03.046,multiplicationStroop,2021.2.3,Win32,120.1778632,,,,,right,0,1.177,0,39,39,63,1,9,7,9 | 7,2,1.6933,1.6933,neutral,left,,,,,,stimulusFile/magnitude.xlsx,,,,,,,,,,,,,,,,,,,,,,,,,,,,,,,
,,,,,,,,,,,,,,,794,2022-01-16_23h31.03.046,multiplicationStroop,2021.2.3,Win32,120.1778632,,,,,right,0,0.758,0,40,40,70,1,8,3,8 | 3,5,1.6933,1.6933,neutral,left,,,,,,stimulusFile/magnitude.xlsx,,,,,,,,,,,,,,,,,,,,,,,,,,,,,,,
,,,,,,,,,,,,,,,794,2022-01-16_23h31.03.046,multiplicationStroop,2021.2.3,Win32,120.1778632,,,,,right,0,1.3516,0,41,41,62,1,8,6,8 | 6,2,1.6933,1.6933,neutral,left,,,,,,stimulusFile/magnitude.xlsx,,,,,,,,,,,,,,,,,,,,,,,,,,,,,,,
,,,,,,,,,,,,,,,794,2022-01-16_23h31.03.046,multiplicationStroop,2021.2.3,Win32,120.1778632,,,,,right,1,1.6818,0,42,42,59,1,7,9,7 | 9,2,1.6933,1.6933,neutral,right,,,,,,stimulusFile/magnitude.xlsx,,,,,,,,,,,,,,,,,,,,,,,,,,,,,,,
,,,,,,,,,,,,,,,794,2022-01-16_23h31.03.046,multiplicationStroop,2021.2.3,Win32,120.1778632,,,,,right,1,1.5156,0,43,43,18,1,3,8,3 | 8,5,1.4111,1.9756,congruent,right,,,,,,stimulusFile/magnitude.xlsx,,,,,,,,,,,,,,,,,,,,,,,,,,,,,,,
,,,,,,,,,,,,,,,794,2022-01-16_23h31.03.046,multiplicationStroop,2021.2.3,Win32,120.1778632,,,,,left,1,0.7679,0,44,44,15,1,9,7,9 | 7,2,1.9756,1.4111,congruent,left,,,,,,stimulusFile/magnitude.xlsx,,,,,,,,,,,,,,,,,,,,,,,,,,,,,,,
,,,,,,,,,,,,,,,794,2022-01-16_23h31.03.046,multiplicationStroop,2021.2.3,Win32,120.1778632,,,,,right,0,1.0413,0,45,45,68,1,6,1,6 | 1,5,1.6933,1.6933,neutral,left,,,,,,stimulusFile/magnitude.xlsx,,,,,,,,,,,,,,,,,,,,,,,,,,,,,,,
,,,,,,,,,,,,,,,794,2022-01-16_23h31.03.046,multiplicationStroop,2021.2.3,Win32,120.1778632,,,,,right,1,1.2243,0,46,46,10,1,6,8,6 | 8,2,1.4111,1.9756,congruent,right,,,,,,stimulusFile/magnitude.xlsx,,,,,,,,,,,,,,,,,,,,,,,,,,,,,,,
,,,,,,,,,,,,,,,794,2022-01-16_23h31.03.046,multiplicationStroop,2021.2.3,Win32,120.1778632,,,,,right,0,0.7163,0,47,47,46,1,8,3,8 | 3,5,1.4111,1.9756,incongruent,left,,,,,,stimulusFile/magnitude.xlsx,,,,,,,,,,,,,,,,,,,,,,,,,,,,,,,
,,,,,,,,,,,,,,,794,2022-01-16_23h31.03.046,multiplicationStroop,2021.2.3,Win32,120.1778632,,,,,left,0,0.6419,0,48,48,26,1,6,7,6 | 7,1,1.9756,1.4111,incongruent,right,,,,,,stimulusFile/magnitude.xlsx,,,,,,,,,,,,,,,,,,,,,,,,,,,,,,,
,,,,,,,,,,,,,,,794,2022-01-16_23h31.03.046,multiplicationStroop,2021.2.3,Win32,120.1778632,,,,,right,1,1.111,0,49,49,57,1,2,4,2 | 4,2,1.6933,1.6933,neutral,right,,,,,,stimulusFile/magnitude.xlsx,,,,,,,,,,,,,,,,,,,,,,,,,,,,,,,
,,,,,,,,,,,,,,,794,2022-01-16_23h31.03.046,multiplicationStroop,2021.2.3,Win32,120.1778632,,,,,right,1,1.7652,0,50,50,58,1,6,8,6 | 8,2,1.6933,1.6933,neutral,right,,,,,,stimulusFile/magnitude.xlsx,,,,,,,,,,,,,,,,,,,,,,,,,,,,,,,
,,,,,,,,,,,,,,,794,2022-01-16_23h31.03.046,multiplicationStroop,2021.2.3,Win32,120.1778632,,,,,right,0,0.9992,0,51,51,29,1,4,3,4 | 3,1,1.4111,1.9756,incongruent,left,,,,,,stimulusFile/magnitude.xlsx,,,,,,,,,,,,,,,,,,,,,,,,,,,,,,,
,,,,,,,,,,,,,,,794,2022-01-16_23h31.03.046,multiplicationStroop,2021.2.3,Win32,120.1778632,,,,,left,1,0.5416,0,52,52,52,1,2,1,2 | 1,1,1.6933,1.6933,neutral,left,,,,,,stimulusFile/magnitude.xlsx,,,,,,,,,,,,,,,,,,,,,,,,,,,,,,,
,,,,,,,,,,,,,,,794,2022-01-16_23h31.03.046,multiplicationStroop,2021.2.3,Win32,120.1778632,,,,,right,1,0.6416,0,53,53,0,1,1,2,1 | 2,1,1.4111,1.9756,congruent,right,,,,,,stimulusFile/magnitude.xlsx,,,,,,,,,,,,,,,,,,,,,,,,,,,,,,,
,,,,,,,,,,,,,,,794,2022-01-16_23h31.03.046,multiplicationStroop,2021.2.3,Win32,120.1778632,,,,,right,1,0.6082,0,54,54,67,1,4,9,4 | 9,5,1.6933,1.6933,neutral,right,,,,,,stimulusFile/magnitude.xlsx,,,,,,,,,,,,,,,,,,,,,,,,,,,,,,,
,,,,,,,,,,,,,,,794,2022-01-16_23h31.03.046,multiplicationStroop,2021.2.3,Win32,120.1778632,,,,,right,0,0.4666,0,55,55,54,1,7,6,7 | 6,1,1.6933,1.6933,neutral,left,,,,,,stimulusFile/magnitude.xlsx,,,,,,,,,,,,,,,,,,,,,,,,,,,,,,,
,,,,,,,,,,,,,,,794,2022-01-16_23h31.03.046,multiplicationStroop,2021.2.3,Win32,120.1778632,,,,,right,1,0.8244,0,56,56,8,1,1,3,1 | 3,2,1.4111,1.9756,congruent,right,,,,,,stimulusFile/magnitude.xlsx,,,,,,,,,,,,,,,,,,,,,,,,,,,,,,,
,,,,,,,,,,,,,,,794,2022-01-16_23h31.03.046,multiplicationStroop,2021.2.3,Win32,120.1778632,,,,,right,1,0.7364,0,57,57,9,1,2,4,2 | 4,2,1.4111,1.9756,congruent,right,,,,,,stimulusFile/magnitude.xlsx,,,,,,,,,,,,,,,,,,,,,,,,,,,,,,,
,,,,,,,,,,,,,,,794,2022-01-16_23h31.03.046,multiplicationStroop,2021.2.3,Win32,120.1778632,,,,,left,1,0.6344,0,58,58,7,1,9,8,9 | 8,1,1.9756,1.4111,congruent,left,,,,,,stimulusFile/magnitude.xlsx,,,,,,,,,,,,,,,,,,,,,,,,,,,,,,,
,,,,,,,,,,,,,,,794,2022-01-16_23h31.03.046,multiplicationStroop,2021.2.3,Win32,120.1778632,,,,,right,0,0.575,0,59,59,44,1,6,1,6 | 1,5,1.4111,1.9756,incongruent,left,,,,,,stimulusFile/magnitude.xlsx,,,,,,,,,,,,,,,,,,,,,,,,,,,,,,,
,,,,,,,,,,,,,,,794,2022-01-16_23h31.03.046,multiplicationStroop,2021.2.3,Win32,120.1778632,,,,,right,1,0.5671,0,60,60,3,1,8,9,8 | 9,1,1.4111,1.9756,congruent,right,,,,,,stimulusFile/magnitude.xlsx,,,,,,,,,,,,,,,,,,,,,,,,,,,,,,,
,,,,,,,,,,,,,,,794,2022-01-16_23h31.03.046,multiplicationStroop,2021.2.3,Win32,120.1778632,,,,,left,0,0.7039,0,61,61,41,1,2,7,2 | 7,5,1.9756,1.4111,incongruent,right,,,,,,stimulusFile/magnitude.xlsx,,,,,,,,,,,,,,,,,,,,,,,,,,,,,,,
,,,,,,,,,,,,,,,794,2022-01-16_23h31.03.046,multiplicationStroop,2021.2.3,Win32,120.1778632,,,,,left,1,0.6782,0,62,62,21,1,7,2,7 | 2,5,1.9756,1.4111,congruent,left,,,,,,stimulusFile/magnitude.xlsx,,,,,,,,,,,,,,,,,,,,,,,,,,,,,,,
,,,,,,,,,,,,,,,794,2022-01-16_23h31.03.046,multiplicationStroop,2021.2.3,Win32,120.1778632,,,,,right,1,0.5083,0,63,63,11,1,7,9,7 | 9,2,1.4111,1.9756,congruent,right,,,,,,stimulusFile/magnitude.xlsx,,,,,,,,,,,,,,,,,,,,,,,,,,,,,,,
,,,,,,,,,,,,,,,794,2022-01-16_23h31.03.046,multiplicationStroop,2021.2.3,Win32,120.1778632,,,,,right,0,1.2615,0,64,64,53,1,4,3,4 | 3,1,1.6933,1.6933,neutral,left,,,,,,stimulusFile/magnitude.xlsx,,,,,,,,,,,,,,,,,,,,,,,,,,,,,,,
,,,,,,,,,,,,,,,794,2022-01-16_23h31.03.046,multiplicationStroop,2021.2.3,Win32,120.1778632,,,,,left,0,0.7331,0,65,65,25,1,3,4,3 | 4,1,1.9756,1.4111,incongruent,right,,,,,,stimulusFile/magnitude.xlsx,,,,,,,,,,,,,,,,,,,,,,,,,,,,,,,
,,,,,,,,,,,,,,,794,2022-01-16_23h31.03.046,multiplicationStroop,2021.2.3,Win32,120.1778632,,,,,right,1,0.5456,0,66,66,19,1,4,9,4 | 9,5,1.4111,1.9756,congruent,right,,,,,,stimulusFile/magnitude.xlsx,,,,,,,,,,,,,,,,,,,,,,,,,,,,,,,
,,,,,,,,,,,,,,,794,2022-01-16_23h31.03.046,multiplicationStroop,2021.2.3,Win32,120.1778632,,,,,right,0,0.9077,0,67,67,55,1,9,8,9 | 8,1,1.6933,1.6933,neutral,left,,,,,,stimulusFile/magnitude.xlsx,,,,,,,,,,,,,,,,,,,,,,,,,,,,,,,
,,,,,,,,,,,,,,,794,2022-01-16_23h31.03.046,multiplicationStroop,2021.2.3,Win32,120.1778632,,,,,right,0,0.8578,0,68,68,69,1,7,2,7 | 2,5,1.6933,1.6933,neutral,left,,,,,,stimulusFile/magnitude.xlsx,,,,,,,,,,,,,,,,,,,,,,,,,,,,,,,
,,,,,,,,,,,,,,,794,2022-01-16_23h31.03.046,multiplicationStroop,2021.2.3,Win32,120.1778632,,,,,right,0,0.5832,0,69,69,23,1,9,4,9 | 4,5,1.9756,1.4111,congruent,left,,,,,,stimulusFile/magnitude.xlsx,,,,,,,,,,,,,,,,,,,,,,,,,,,,,,,
,,,,,,,,,,,,,,,794,2022-01-16_23h31.03.046,multiplicationStroop,2021.2.3,Win32,120.1778632,,,,,left,0,0.9525,0,70,70,33,1,2,4,2 | 4,2,1.9756,1.4111,incongruent,right,,,,,,stimulusFile/magnitude.xlsx,,,,,,,,,,,,,,,,,,,,,,,,,,,,,,,
,,,,,,,,,,,,,,,794,2022-01-16_23h31.03.046,multiplicationStroop,2021.2.3,Win32,120.1778632,,,,,left,1,0.6271,0,71,71,12,1,3,1,3 | 1,2,1.9756,1.4111,congruent,left,,,,,,stimulusFile/magnitude.xlsx,,,,,,,,,,,,,,,,,,,,,,,,,,,,,,,
,,,,,,,,,,,,,,,794,2022-01-16_23h31.03.046,multiplicationStroop,2021.2.3,Win32,120.1778632,,,,,,,,,,,,,,,,,,,,,0,1,1,0,1,stimulusFile/magnitude.xlsx,NUMERICALLY larger (larger coefficient).,images/numericallyLarger.png,,,,,,,,,,,,,,,,,,,,,,,,,,,,,
,,,,,,,,,,,,,,,794,2022-01-16_23h31.03.046,multiplicationStroop,2021.2.3,Win32,120.1778632,,,,,,,,,,,,,,,,,,,,,,,,,,,,,space,2.7963,space,2.8352,24,2.9091,1,0,0,0,24,1,8,×,3,8 × 3,congruent,largerFirst,2,1,24,,,,,,,,
,,,,,,,,,,,,,,,794,2022-01-16_23h31.03.046,multiplicationStroop,2021.2.3,Win32,120.1778632,,,,,,,,,,,,,,,,,,,,,,,,,,,,,,,,,42,4.2868,1,0,1,1,17,1,7,×,6,7 × 6,congruent,largerFirst,2,1,42,,,,,,,,
,,,,,,,,,,,,,,,794,2022-01-16_23h31.03.046,multiplicationStroop,2021.2.3,Win32,120.1778632,,,,,,,,,,,,,,,,,,,,,,,,,,,,,,,,,9,1.9309,1,0,2,2,29,1,3,×,3,3 × 3,neutral,tie,1,2,9,,,,,,,,
,,,,,,,,,,,,,,,794,2022-01-16_23h31.03.046,multiplicationStroop,2021.2.3,Win32,120.1778632,,,,,,,,,,,,,,,,,,,,,,,,,,,,,,,,,56,1.7976,1,0,3,3,22,1,8,×,7,8 × 7,congruent,largerFirst,2,1,56,,,,,,,,
,,,,,,,,,,,,,,,794,2022-01-16_23h31.03.046,multiplicationStroop,2021.2.3,Win32,120.1778632,,,,,,,,,,,,,,,,,,,,,,,,,,,,,,,,,21,1.8061,1,0,4,4,2,1,3,×,7,3 × 7,congruent,smallerFirst,1,2,21,,,,,,,,
,,,,,,,,,,,,,,,794,2022-01-16_23h31.03.046,multiplicationStroop,2021.2.3,Win32,120.1778632,,,,,,,,,,,,,,,,,,,,,,,,,,,,,,,,,15,1.6897,1,0,5,5,18,1,5,×,3,5 × 3,congruent,largerFirst,2,1,15,,,,,,,,
,,,,,,,,,,,,,,,794,2022-01-16_23h31.03.046,multiplicationStroop,2021.2.3,Win32,120.1778632,,,,,,,,,,,,,,,,,,,,,,,,,,,,,,,,,48,2.8802,1,0,6,6,4,1,6,×,8,6 × 8,congruent,smallerFirst,1,2,48,,,,,,,,
,,,,,,,,,,,,,,,794,2022-01-16_23h31.03.046,multiplicationStroop,2021.2.3,Win32,120.1778632,,,,,,,,,,,,,,,,,,,,,,,,,,,,,,,,,18,2.8384,1,0,7,7,25,1,6,×,3,6 × 3,congruent,largerFirst,2,1,18,,,,,,,,
,,,,,,,,,,,,,,,794,2022-01-16_23h31.03.046,multiplicationStroop,2021.2.3,Win32,120.1778632,,,,,,,,,,,,,,,,,,,,,,,,,,,,,,,,,20,3.0384,1,0,8,8,21,1,5,×,4,5 × 4,congruent,largerFirst,2,1,20,,,,,,,,
,,,,,,,,,,,,,,,794,2022-01-16_23h31.03.046,multiplicationStroop,2021.2.3,Win32,120.1778632,,,,,,,,,,,,,,,,,,,,,,,,,,,,,,,,,25,1.6314,1,0,9,9,31,1,5,×,5,5 × 5,neutral,tie,1,2,25,,,,,,,,
,,,,,,,,,,,,,,,794,2022-01-16_23h31.03.046,multiplicationStroop,2021.2.3,Win32,120.1778632,,,,,,,,,,,,,,,,,,,,,,,,,,,,,,,,,27,1.9145,1,0,10,10,12,1,3,×,9,3 × 9,congruent,smallerFirst,1,2,27,,,,,,,,
,,,,,,,,,,,,,,,794,2022-01-16_23h31.03.046,multiplicationStroop,2021.2.3,Win32,120.1778632,,,,,,,,,,,,,,,,,,,,,,,,,,,,,,,,,81,2.1392,1,0,11,11,35,1,9,×,9,9 × 9,neutral,tie,1,2,81,,,,,,,,
,,,,,,,,,,,,,,,794,2022-01-16_23h31.03.046,multiplicationStroop,2021.2.3,Win32,120.1778632,,,,,,,,,,,,,,,,,,,,,,,,,,,,,,,,,14,1.3651,1,0,12,12,0,1,2,×,7,2 × 7,congruent,smallerFirst,1,2,14,,,,,,,,
,,,,,,,,,,,,,,,794,2022-01-16_23h31.03.046,multiplicationStroop,2021.2.3,Win32,120.1778632,,,,,,,,,,,,,,,,,,,,,,,,,,,,,,,,,49,1.8479,1,0,13,13,33,1,7,×,7,7 × 7,neutral,tie,1,2,49,,,,,,,,
,,,,,,,,,,,,,,,794,2022-01-16_23h31.03.046,multiplicationStroop,2021.2.3,Win32,120.1778632,,,,,,,,,,,,,,,,,,,,,,,,,,,,,,,,,16,1.6147,1,0,14,14,30,1,4,×,4,4 × 4,neutral,tie,1,2,16,,,,,,,,
,,,,,,,,,,,,,,,794,2022-01-16_23h31.03.046,multiplicationStroop,2021.2.3,Win32,120.1778632,,,,,,,,,,,,,,,,,,,,,,,,,,,,,,,,,12,1.2651,1,0,15,15,5,1,2,×,6,2 × 6,congruent,smallerFirst,1,2,12,,,,,,,,
,,,,,,,,,,,,,,,794,2022-01-16_23h31.03.046,multiplicationStroop,2021.2.3,Win32,120.1778632,,,,,,,,,,,,,,,,,,,,,,,,,,,,,,,,,56,1.9477,0,0,16,16,7,1,7,×,9,7 × 9,congruent,smallerFirst,1,2,63,,,,,,,,
,,,,,,,,,,,,,,,794,2022-01-16_23h31.03.046,multiplicationStroop,2021.2.3,Win32,120.1778632,,,,,,,,,,,,,,,,,,,,,,,,,,,,,,,,,54,1.773,1,0,17,17,26,1,9,×,6,9 × 6,congruent,largerFirst,2,1,54,,,,,,,,
,,,,,,,,,,,,,,,794,2022-01-16_23h31.03.046,multiplicationStroop,2021.2.3,Win32,120.1778632,,,,,,,,,,,,,,,,,,,,,,,,,,,,,,,,,32,1.8062,1,0,18,18,6,1,4,×,8,4 × 8,congruent,smallerFirst,1,2,32,,,,,,,,
,,,,,,,,,,,,,,,794,2022-01-16_23h31.03.046,multiplicationStroop,2021.2.3,Win32,120.1778632,,,,,,,,,,,,,,,,,,,,,,,,,,,,,,,,,24,1.5317,1,0,19,19,11,1,4,×,6,4 × 6,congruent,smallerFirst,1,2,24,,,,,,,,
,,,,,,,,,,,,,,,794,2022-01-16_23h31.03.046,multiplicationStroop,2021.2.3,Win32,120.1778632,,,,,,,,,,,,,,,,,,,,,,,,,,,,,,,,,36,1.7396,1,0,20,20,32,1,6,×,6,6 × 6,neutral,tie,1,2,36,,,,,,,,
,,,,,,,,,,,,,,,794,2022-01-16_23h31.03.046,multiplicationStroop,2021.2.3,Win32,120.1778632,,,,,,,,,,,,,,,,,,,,,,,,,,,,,,,,,48,2.7387,0,0,21,21,34,1,8,×,8,8 × 8,neutral,tie,1,2,64,,,,,,,,
,,,,,,,,,,,,,,,794,2022-01-16_23h31.03.046,multiplicationStroop,2021.2.3,Win32,120.1778632,,,,,,,,,,,,,,,,,,,,,,,,,,,,,,,,,4,1.4315,1,0,22,22,28,1,2,×,2,2 × 2,neutral,tie,1,2,4,,,,,,,,
,,,,,,,,,,,,,,,794,2022-01-16_23h31.03.046,multiplicationStroop,2021.2.3,Win32,120.1778632,,,,,,,,,,,,,,,,,,,,,,,,,,,,,,,,,10,1.8313,1,0,23,23,10,1,2,×,5,2 × 5,congruent,smallerFirst,1,2,10,,,,,,,,
,,,,,,,,,,,,,,,794,2022-01-16_23h31.03.046,multiplicationStroop,2021.2.3,Win32,120.1778632,,,,,,,,,,,,,,,,,,,,,,,,,,,,,,,,,36,2.0393,1,0,24,24,14,1,9,×,4,9 × 4,congruent,largerFirst,2,1,36,,,,,,,,
,,,,,,,,,,,,,,,794,2022-01-16_23h31.03.046,multiplicationStroop,2021.2.3,Win32,120.1778632,,,,,,,,,,,,,,,,,,,,,,,,,,,,,,,,,12,1.3481,1,0,25,25,16,1,4,×,3,4 × 3,congruent,largerFirst,2,1,12,,,,,,,,
,,,,,,,,,,,,,,,794,2022-01-16_23h31.03.046,multiplicationStroop,2021.2.3,Win32,120.1778632,,,,,,,,,,,,,,,,,,,,,,,,,,,,,,,,,35,1.5814,1,0,26,26,15,1,7,×,5,7 × 5,congruent,largerFirst,2,1,35,,,,,,,,
,,,,,,,,,,,,,,,794,2022-01-16_23h31.03.046,multiplicationStroop,2021.2.3,Win32,120.1778632,,,,,,,,,,,,,,,,,,,,,,,,,,,,,,,,,40,2.13,0,0,27,27,9,1,5,×,9,5 × 9,congruent,smallerFirst,1,2,45,,,,,,,,
,,,,,,,,,,,,,,,794,2022-01-16_23h31.03.046,multiplicationStroop,2021.2.3,Win32,120.1778632,,,,,,,,,,,,,,,,,,,,,,,,,,,,,,,,,8,1.9975,1,0,28,28,23,1,4,×,2,4 × 2,congruent,largerFirst,2,1,8,,,,,,,,
,,,,,,,,,,,,,,,794,2022-01-16_23h31.03.046,multiplicationStroop,2021.2.3,Win32,120.1778632,,,,,,,,,,,,,,,,,,,,,,,,,,,,,,,,,16,2.6554,1,0,29,29,19,1,8,×,2,8 × 2,congruent,largerFirst,2,1,16,,,,,,,,
,,,,,,,,,,,,,,,794,2022-01-16_23h31.03.046,multiplicationStroop,2021.2.3,Win32,120.1778632,,,,,,,,,,,,,,,,,,,,,,,,,,,,,,,,,6,2.4466,1,0,30,30,27,1,3,×,2,3 × 2,congruent,largerFirst,2,1,6,,,,,,,,
,,,,,,,,,,,,,,,794,2022-01-16_23h31.03.046,multiplicationStroop,2021.2.3,Win32,120.1778632,,,,,,,,,,,,,,,,,,,,,,,,,,,,,,,,,72,2.1641,1,0,31,31,3,1,8,×,9,8 × 9,congruent,smallerFirst,1,2,72,,,,,,,,
,,,,,,,,,,,,,,,794,2022-01-16_23h31.03.046,multiplicationStroop,2021.2.3,Win32,120.1778632,,,,,,,,,,,,,,,,,,,,,,,,,,,,,,,,,28,2.5303,1,0,32,32,13,1,4,×,7,4 × 7,congruent,smallerFirst,1,2,28,,,,,,,,
,,,,,,,,,,,,,,,794,2022-01-16_23h31.03.046,multiplicationStroop,2021.2.3,Win32,120.1778632,,,,,,,,,,,,,,,,,,,,,,,,,,,,,,,,,40,1.7482,1,0,33,33,20,1,8,×,5,8 × 5,congruent,largerFirst,2,1,40,,,,,,,,
,,,,,,,,,,,,,,,794,2022-01-16_23h31.03.046,multiplicationStroop,2021.2.3,Win32,120.1778632,,,,,,,,,,,,,,,,,,,,,,,,,,,,,,,,,30,1.8474,1,0,34,34,1,1,5,×,6,5 × 6,congruent,smallerFirst,1,2,30,,,,,,,,
,,,,,,,,,,,,,,,794,2022-01-16_23h31.03.046,multiplicationStroop,2021.2.3,Win32,120.1778632,,,,,,,,,,,,,,,,,,,,,,,,,,,,,,,,,18,1.6314,1,0,35,35,8,1,2,×,9,2 × 9,congruent,smallerFirst,1,2,18,,,,,,,,
,,,,,,,,,,,,,,,794,2022-01-16_23h31.03.046,multiplicationStroop,2021.2.3,Win32,120.1778632,,,,,,,,,,,,,,,,,,,,,,,,,,,,,,,,,,,,,,,,,,,,,,,,,,0,0,0,3,1,stimulusFile/mult_blk4_congruent.xlsx,,
,,,,,,,,,,,,,,,794,2022-01-16_23h31.03.046,multiplicationStroop,2021.2.3,Win32,120.1778632,,,,,,,,,,,,,,,,,,,,,,,,,,,,,,,space,1.5181,21,1.4095,1,0,0,0,26,1,7,×,3,7 × 3,incongruent,largerFirst,1,2,21,,,,,,,,
,,,,,,,,,,,,,,,794,2022-01-16_23h31.03.046,multiplicationStroop,2021.2.3,Win32,120.1778632,,,,,,,,,,,,,,,,,,,,,,,,,,,,,,,,,16,2.7297,1,0,1,1,30,1,4,×,4,4 × 4,incongruent,tie,1,2,16,,,,,,,,
,,,,,,,,,,,,,,,794,2022-01-16_23h31.03.046,multiplicationStroop,2021.2.3,Win32,120.1778632,,,,,,,,,,,,,,,,,,,,,,,,,,,,,,,,,18,2.2213,1,0,2,2,2,1,2,×,9,2 × 9,incongruent,smallerFirst,2,1,18,,,,,,,,
,,,,,,,,,,,,,,,794,2022-01-16_23h31.03.046,multiplicationStroop,2021.2.3,Win32,120.1778632,,,,,,,,,,,,,,,,,,,,,,,,,,,,,,,,,32,2.3971,1,0,3,3,7,1,4,×,8,4 × 8,incongruent,smallerFirst,2,1,32,,,,,,,,
,,,,,,,,,,,,,,,794,2022-01-16_23h31.03.046,multiplicationStroop,2021.2.3,Win32,120.1778632,,,,,,,,,,,,,,,,,,,,,,,,,,,,,,,,,15,1.5147,1,0,4,4,10,1,3,×,5,3 × 5,incongruent,smallerFirst,2,1,15,,,,,,,,
,,,,,,,,,,,,,,,794,2022-01-16_23h31.03.046,multiplicationStroop,2021.2.3,Win32,120.1778632,,,,,,,,,,,,,,,,,,,,,,,,,,,,,,,,,24,1.365,1,0,5,5,20,1,6,×,4,6 × 4,incongruent,largerFirst,1,2,24,,,,,,,,
,,,,,,,,,,,,,,,794,2022-01-16_23h31.03.046,multiplicationStroop,2021.2.3,Win32,120.1778632,,,,,,,,,,,,,,,,,,,,,,,,,,,,,,,,,18,2.1225,1,0,6,6,8,1,3,×,6,3 × 6,incongruent,smallerFirst,2,1,18,,,,,,,,
,,,,,,,,,,,,,,,794,2022-01-16_23h31.03.046,multiplicationStroop,2021.2.3,Win32,120.1778632,,,,,,,,,,,,,,,,,,,,,,,,,,,,,,,,,14,1.3729,1,0,7,7,4,1,2,×,7,2 × 7,incongruent,smallerFirst,2,1,14,,,,,,,,
,,,,,,,,,,,,,,,794,2022-01-16_23h31.03.046,multiplicationStroop,2021.2.3,Win32,120.1778632,,,,,,,,,,,,,,,,,,,,,,,,,,,,,,,,,28,2.4976,1,0,8,8,16,1,7,×,4,7 × 4,incongruent,largerFirst,1,2,28,,,,,,,,
,,,,,,,,,,,,,,,794,2022-01-16_23h31.03.046,multiplicationStroop,2021.2.3,Win32,120.1778632,,,,,,,,,,,,,,,,,,,,,,,,,,,,,,,,,48,1.9055,1,0,9,9,1,1,6,×,8,6 × 8,incongruent,smallerFirst,2,1,48,,,,,,,,
,,,,,,,,,,,,,,,794,2022-01-16_23h31.03.046,multiplicationStroop,2021.2.3,Win32,120.1778632,,,,,,,,,,,,,,,,,,,,,,,,,,,,,,,,,36,2.1558,1,0,10,10,15,1,9,×,4,9 × 4,incongruent,largerFirst,1,2,36,,,,,,,,
,,,,,,,,,,,,,,,794,2022-01-16_23h31.03.046,multiplicationStroop,2021.2.3,Win32,120.1778632,,,,,,,,,,,,,,,,,,,,,,,,,,,,,,,,,81,2.5553,1,0,11,11,35,1,9,×,9,9 × 9,incongruent,tie,1,2,81,,,,,,,,
,,,,,,,,,,,,,,,794,2022-01-16_23h31.03.046,multiplicationStroop,2021.2.3,Win32,120.1778632,,,,,,,,,,,,,,,,,,,,,,,,,,,,,,,,,24,5.8421,1,0,12,12,9,1,3,×,8,3 × 8,incongruent,smallerFirst,2,1,24,,,,,,,,
,,,,,,,,,,,,,,,794,2022-01-16_23h31.03.046,multiplicationStroop,2021.2.3,Win32,120.1778632,,,,,,,,,,,,,,,,,,,,,,,,,,,,,,,,,40,2.0955,1,0,13,13,13,1,5,×,8,5 × 8,incongruent,smallerFirst,2,1,40,,,,,,,,
,,,,,,,,,,,,,,,794,2022-01-16_23h31.03.046,multiplicationStroop,2021.2.3,Win32,120.1778632,,,,,,,,,,,,,,,,,,,,,,,,,,,,,,,,,63,6.4934,1,0,14,14,3,1,7,×,9,7 × 9,incongruent,smallerFirst,2,1,63,,,,,,,,
,,,,,,,,,,,,,,,794,2022-01-16_23h31.03.046,multiplicationStroop,2021.2.3,Win32,120.1778632,,,,,,,,,,,,,,,,,,,,,,,,,,,,,,,,,25,2.0227,1,0,15,15,31,1,5,×,5,5 × 5,incongruent,tie,1,2,25,,,,,,,,
,,,,,,,,,,,,,,,794,2022-01-16_23h31.03.046,multiplicationStroop,2021.2.3,Win32,120.1778632,,,,,,,,,,,,,,,,,,,,,,,,,,,,,,,,,40,1.7145,0,0,16,16,22,1,9,×,5,9 × 5,incongruent,largerFirst,1,2,45,,,,,,,,
,,,,,,,,,,,,,,,794,2022-01-16_23h31.03.046,multiplicationStroop,2021.2.3,Win32,120.1778632,,,,,,,,,,,,,,,,,,,,,,,,,,,,,,,,,6,1.6978,1,0,17,17,11,1,2,×,3,2 × 3,incongruent,smallerFirst,2,1,6,,,,,,,,
,,,,,,,,,,,,,,,794,2022-01-16_23h31.03.046,multiplicationStroop,2021.2.3,Win32,120.1778632,,,,,,,,,,,,,,,,,,,,,,,,,,,,,,,,,12,1.1819,1,0,18,18,19,1,6,×,2,6 × 2,incongruent,largerFirst,1,2,12,,,,,,,,
,,,,,,,,,,,,,,,794,2022-01-16_23h31.03.046,multiplicationStroop,2021.2.3,Win32,120.1778632,,,,,,,,,,,,,,,,,,,,,,,,,,,,,,,,,49,1.6814,1,0,19,19,33,1,7,×,7,7 × 7,incongruent,tie,1,2,49,,,,,,,,
,,,,,,,,,,,,,,,794,2022-01-16_23h31.03.046,multiplicationStroop,2021.2.3,Win32,120.1778632,,,,,,,,,,,,,,,,,,,,,,,,,,,,,,,,,16,1.8562,1,0,20,20,23,1,8,×,2,8 × 2,incongruent,largerFirst,1,2,16,,,,,,,,
,,,,,,,,,,,,,,,794,2022-01-16_23h31.03.046,multiplicationStroop,2021.2.3,Win32,120.1778632,,,,,,,,,,,,,,,,,,,,,,,,,,,,,,,,,54,1.6145,1,0,21,21,6,1,6,×,9,6 × 9,incongruent,smallerFirst,2,1,54,,,,,,,,
,,,,,,,,,,,,,,,794,2022-01-16_23h31.03.046,multiplicationStroop,2021.2.3,Win32,120.1778632,,,,,,,,,,,,,,,,,,,,,,,,,,,,,,,,,56,1.623,1,0,22,22,14,1,8,×,7,8 × 7,incongruent,largerFirst,1,2,56,,,,,,,,
,,,,,,,,,,,,,,,794,2022-01-16_23h31.03.046,multiplicationStroop,2021.2.3,Win32,120.1778632,,,,,,,,,,,,,,,,,,,,,,,,,,,,,,,,,4,1.315,1,0,23,23,28,1,2,×,2,2 × 2,incongruent,tie,1,2,4,,,,,,,,
,,,,,,,,,,,,,,,794,2022-01-16_23h31.03.046,multiplicationStroop,2021.2.3,Win32,120.1778632,,,,,,,,,,,,,,,,,,,,,,,,,,,,,,,,,8,1.7145,1,0,24,24,24,1,4,×,2,4 × 2,incongruent,largerFirst,1,2,8,,,,,,,,
,,,,,,,,,,,,,,,794,2022-01-16_23h31.03.046,multiplicationStroop,2021.2.3,Win32,120.1778632,,,,,,,,,,,,,,,,,,,,,,,,,,,,,,,,,12,1.4397,1,0,25,25,5,1,3,×,4,3 × 4,incongruent,smallerFirst,2,1,12,,,,,,,,
,,,,,,,,,,,,,,,794,2022-01-16_23h31.03.046,multiplicationStroop,2021.2.3,Win32,120.1778632,,,,,,,,,,,,,,,,,,,,,,,,,,,,,,,,,35,1.54,1,0,26,26,12,1,5,×,7,5 × 7,incongruent,smallerFirst,2,1,35,,,,,,,,
,,,,,,,,,,,,,,,794,2022-01-16_23h31.03.046,multiplicationStroop,2021.2.3,Win32,120.1778632,,,,,,,,,,,,,,,,,,,,,,,,,,,,,,,,,20,1.7561,1,0,27,27,27,1,5,×,4,5 × 4,incongruent,largerFirst,1,2,20,,,,,,,,
,,,,,,,,,,,,,,,794,2022-01-16_23h31.03.046,multiplicationStroop,2021.2.3,Win32,120.1778632,,,,,,,,,,,,,,,,,,,,,,,,,,,,,,,,,10,1.5395,1,0,28,28,21,1,5,×,2,5 × 2,incongruent,largerFirst,1,2,10,,,,,,,,
,,,,,,,,,,,,,,,794,2022-01-16_23h31.03.046,multiplicationStroop,2021.2.3,Win32,120.1778632,,,,,,,,,,,,,,,,,,,,,,,,,,,,,,,,,48,3.4048,0,0,29,29,34,1,8,×,8,8 × 8,incongruent,tie,1,2,64,,,,,,,,
,,,,,,,,,,,,,,,794,2022-01-16_23h31.03.046,multiplicationStroop,2021.2.3,Win32,120.1778632,,,,,,,,,,,,,,,,,,,,,,,,,,,,,,,,,72,2.4338,1,0,30,30,0,1,8,×,9,8 × 9,incongruent,smallerFirst,2,1,72,,,,,,,,
,,,,,,,,,,,,,,,794,2022-01-16_23h31.03.046,multiplicationStroop,2021.2.3,Win32,120.1778632,,,,,,,,,,,,,,,,,,,,,,,,,,,,,,,,,54,2.5485,0,0,31,31,17,1,7,×,6,7 × 6,incongruent,largerFirst,1,2,42,,,,,,,,
,,,,,,,,,,,,,,,794,2022-01-16_23h31.03.046,multiplicationStroop,2021.2.3,Win32,120.1778632,,,,,,,,,,,,,,,,,,,,,,,,,,,,,,,,,30,1.7107,1,0,32,32,25,1,6,×,5,6 × 5,incongruent,largerFirst,1,2,30,,,,,,,,
,,,,,,,,,,,,,,,794,2022-01-16_23h31.03.046,multiplicationStroop,2021.2.3,Win32,120.1778632,,,,,,,,,,,,,,,,,,,,,,,,,,,,,,,,,36,1.5318,1,0,33,33,32,1,6,×,6,6 × 6,incongruent,tie,1,2,36,,,,,,,,
,,,,,,,,,,,,,,,794,2022-01-16_23h31.03.046,multiplicationStroop,2021.2.3,Win32,120.1778632,,,,,,,,,,,,,,,,,,,,,,,,,,,,,,,,,9,1.5061,1,0,34,34,29,1,3,×,3,3 × 3,incongruent,tie,1,2,9,,,,,,,,
,,,,,,,,,,,,,,,794,2022-01-16_23h31.03.046,multiplicationStroop,2021.2.3,Win32,120.1778632,,,,,,,,,,,,,,,,,,,,,,,,,,,,,,,,,27,1.5897,1,0,35,35,18,1,9,×,3,9 × 3,incongruent,largerFirst,1,2,27,,,,,,,,
,,,,,,,,,,,,,,,794,2022-01-16_23h31.03.046,multiplicationStroop,2021.2.3,Win32,120.1778632,,,,,,,,,,,,,,,,,,,,,,,,,,,,,,,,,,,,,,,,,,,,,,,,,,0,1,1,5,1,stimulusFile/mult_blk6_INcongruent.xlsx,,
,,,,,,,,,,,,,,,794,2022-01-16_23h31.03.046,multiplicationStroop,2021.2.3,Win32,120.1778632,,,,,,,,,,,,,,,,,,,,,,,,,,,,,,,space,1.1658,56,1.4556,1,0,0,0,9,1,7,×,8,7 × 8,neutral,smallerFirst,1.5,1.5,56,,,,,,,,
,,,,,,,,,,,,,,,794,2022-01-16_23h31.03.046,multiplicationStroop,2021.2.3,Win32,120.1778632,,,,,,,,,,,,,,,,,,,,,,,,,,,,,,,,,12,1.223,1,0,1,1,25,1,6,×,2,6 × 2,neutral,largerFirst,1.5,1.5,12,,,,,,,,
,,,,,,,,,,,,,,,794,2022-01-16_23h31.03.046,multiplicationStroop,2021.2.3,Win32,120.1778632,,,,,,,,,,,,,,,,,,,,,,,,,,,,,,,,,9,1.5812,1,0,2,2,29,1,3,×,3,3 × 3,neutral,tie,1.5,1.5,9,,,,,,,,
,,,,,,,,,,,,,,,794,2022-01-16_23h31.03.046,multiplicationStroop,2021.2.3,Win32,120.1778632,,,,,,,,,,,,,,,,,,,,,,,,,,,,,,,,,45,1.7567,1,0,3,3,10,1,5,×,9,5 × 9,neutral,smallerFirst,1.5,1.5,45,,,,,,,,
,,,,,,,,,,,,,,,794,2022-01-16_23h31.03.046,multiplicationStroop,2021.2.3,Win32,120.1778632,,,,,,,,,,,,,,,,,,,,,,,,,,,,,,,,,16,1.6311,1,0,4,4,13,1,2,×,8,2 × 8,neutral,smallerFirst,1.5,1.5,16,,,,,,,,
,,,,,,,,,,,,,,,794,2022-01-16_23h31.03.046,multiplicationStroop,2021.2.3,Win32,120.1778632,,,,,,,,,,,,,,,,,,,,,,,,,,,,,,,,,24,1.6144,1,0,5,5,2,1,4,×,6,4 × 6,neutral,smallerFirst,1.5,1.5,24,,,,,,,,
,,,,,,,,,,,,,,,794,2022-01-16_23h31.03.046,multiplicationStroop,2021.2.3,Win32,120.1778632,,,,,,,,,,,,,,,,,,,,,,,,,,,,,,,,,36,1.6562,1,0,6,6,27,1,9,×,4,9 × 4,neutral,largerFirst,1.5,1.5,36,,,,,,,,
,,,,,,,,,,,,,,,794,2022-01-16_23h31.03.046,multiplicationStroop,2021.2.3,Win32,120.1778632,,,,,,,,,,,,,,,,,,,,,,,,,,,,,,,,,27,1.5898,1,0,7,7,14,1,9,×,3,9 × 3,neutral,largerFirst,1.5,1.5,27,,,,,,,,
,,,,,,,,,,,,,,,794,2022-01-16_23h31.03.046,multiplicationStroop,2021.2.3,Win32,120.1778632,,,,,,,,,,,,,,,,,,,,,,,,,,,,,,,,,6,1.5648,1,0,8,8,26,1,3,×,2,3 × 2,neutral,largerFirst,1.5,1.5,6,,,,,,,,
,,,,,,,,,,,,,,,794,2022-01-16_23h31.03.046,multiplicationStroop,2021.2.3,Win32,120.1778632,,,,,,,,,,,,,,,,,,,,,,,,,,,,,,,,,35,1.5814,1,0,9,9,1,1,5,×,7,5 × 7,neutral,smallerFirst,1.5,1.5,35,,,,,,,,
,,,,,,,,,,,,,,,794,2022-01-16_23h31.03.046,multiplicationStroop,2021.2.3,Win32,120.1778632,,,,,,,,,,,,,,,,,,,,,,,,,,,,,,,,,72,3.5131,1,0,10,10,11,1,8,×,9,8 × 9,neutral,smallerFirst,1.5,1.5,72,,,,,,,,
,,,,,,,,,,,,,,,794,2022-01-16_23h31.03.046,multiplicationStroop,2021.2.3,Win32,120.1778632,,,,,,,,,,,,,,,,,,,,,,,,,,,,,,,,,40,1.7155,1,0,11,11,24,1,8,×,5,8 × 5,neutral,largerFirst,1.5,1.5,40,,,,,,,,
,,,,,,,,,,,,,,,794,2022-01-16_23h31.03.046,multiplicationStroop,2021.2.3,Win32,120.1778632,,,,,,,,,,,,,,,,,,,,,,,,,,,,,,,,,14,1.5898,1,0,12,12,16,1,7,×,2,7 × 2,neutral,largerFirst,1.5,1.5,14,,,,,,,,
,,,,,,,,,,,,,,,794,2022-01-16_23h31.03.046,multiplicationStroop,2021.2.3,Win32,120.1778632,,,,,,,,,,,,,,,,,,,,,,,,,,,,,,,,,15,2.5888,1,0,13,13,5,1,3,×,5,3 × 5,neutral,smallerFirst,1.5,1.5,15,,,,,,,,
,,,,,,,,,,,,,,,794,2022-01-16_23h31.03.046,multiplicationStroop,2021.2.3,Win32,120.1778632,,,,,,,,,,,,,,,,,,,,,,,,,,,,,,,,,4,1.6987,0,0,14,14,33,1,7,×,7,7 × 7,neutral,tie,1.5,1.5,49,,,,,,,,
,,,,,,,,,,,,,,,794,2022-01-16_23h31.03.046,multiplicationStroop,2021.2.3,Win32,120.1778632,,,,,,,,,,,,,,,,,,,,,,,,,,,,,,,,,32,1.7226,0,0,15,15,17,1,7,×,4,7 × 4,neutral,largerFirst,1.5,1.5,28,,,,,,,,
,,,,,,,,,,,,,,,794,2022-01-16_23h31.03.046,multiplicationStroop,2021.2.3,Win32,120.1778632,,,,,,,,,,,,,,,,,,,,,,,,,,,,,,,,,16,1.4817,1,0,16,16,30,1,4,×,4,4 × 4,neutral,tie,1.5,1.5,16,,,,,,,,
,,,,,,,,,,,,,,,794,2022-01-16_23h31.03.046,multiplicationStroop,2021.2.3,Win32,120.1778632,,,,,,,,,,,,,,,,,,,,,,,,,,,,,,,,,42,1.7063,1,0,17,17,6,1,6,×,7,6 × 7,neutral,smallerFirst,1.5,1.5,42,,,,,,,,
,,,,,,,,,,,,,,,794,2022-01-16_23h31.03.046,multiplicationStroop,2021.2.3,Win32,120.1778632,,,,,,,,,,,,,,,,,,,,,,,,,,,,,,,,,20,1.8978,1,0,18,18,20,1,5,×,4,5 × 4,neutral,largerFirst,1.5,1.5,20,,,,,,,,
,,,,,,,,,,,,,,,794,2022-01-16_23h31.03.046,multiplicationStroop,2021.2.3,Win32,120.1778632,,,,,,,,,,,,,,,,,,,,,,,,,,,,,,,,,10,2.0643,1,0,19,19,4,1,2,×,5,2 × 5,neutral,smallerFirst,1.5,1.5,10,,,,,,,,
,,,,,,,,,,,,,,,794,2022-01-16_23h31.03.046,multiplicationStroop,2021.2.3,Win32,120.1778632,,,,,,,,,,,,,,,,,,,,,,,,,,,,,,,,,63,2.6806,1,0,20,20,12,1,7,×,9,7 × 9,neutral,smallerFirst,1.5,1.5,63,,,,,,,,
,,,,,,,,,,,,,,,794,2022-01-16_23h31.03.046,multiplicationStroop,2021.2.3,Win32,120.1778632,,,,,,,,,,,,,,,,,,,,,,,,,,,,,,,,,54,2.0558,1,0,21,21,7,1,6,×,9,6 × 9,neutral,smallerFirst,1.5,1.5,54,,,,,,,,
,,,,,,,,,,,,,,,794,2022-01-16_23h31.03.046,multiplicationStroop,2021.2.3,Win32,120.1778632,,,,,,,,,,,,,,,,,,,,,,,,,,,,,,,,,25,1.7065,1,0,22,22,31,1,5,×,5,5 × 5,neutral,tie,1.5,1.5,25,,,,,,,,
,,,,,,,,,,,,,,,794,2022-01-16_23h31.03.046,multiplicationStroop,2021.2.3,Win32,120.1778632,,,,,,,,,,,,,,,,,,,,,,,,,,,,,,,,,48,3.8707,0,0,23,23,34,1,8,×,8,8 × 8,neutral,tie,1.5,1.5,64,,,,,,,,
,,,,,,,,,,,,,,,794,2022-01-16_23h31.03.046,multiplicationStroop,2021.2.3,Win32,120.1778632,,,,,,,,,,,,,,,,,,,,,,,,,,,,,,,,,21,2.1943,1,0,24,24,8,1,3,×,7,3 × 7,neutral,smallerFirst,1.5,1.5,21,,,,,,,,
,,,,,,,,,,,,,,,794,2022-01-16_23h31.03.046,multiplicationStroop,2021.2.3,Win32,120.1778632,,,,,,,,,,,,,,,,,,,,,,,,,,,,,,,,,32,1.6358,1,0,25,25,23,1,8,×,4,8 × 4,neutral,largerFirst,1.5,1.5,32,,,,,,,,
,,,,,,,,,,,,,,,794,2022-01-16_23h31.03.046,multiplicationStroop,2021.2.3,Win32,120.1778632,,,,,,,,,,,,,,,,,,,,,,,,,,,,,,,,,18,2.1893,1,0,26,26,0,1,3,×,6,3 × 6,neutral,smallerFirst,1.5,1.5,18,,,,,,,,
,,,,,,,,,,,,,,,794,2022-01-16_23h31.03.046,multiplicationStroop,2021.2.3,Win32,120.1778632,,,,,,,,,,,,,,,,,,,,,,,,,,,,,,,,,81,3.0385,1,0,27,27,35,1,9,×,9,9 × 9,neutral,tie,1.5,1.5,81,,,,,,,,
,,,,,,,,,,,,,,,794,2022-01-16_23h31.03.046,multiplicationStroop,2021.2.3,Win32,120.1778632,,,,,,,,,,,,,,,,,,,,,,,,,,,,,,,,,12,1.3898,1,0,28,28,21,1,4,×,3,4 × 3,neutral,largerFirst,1.5,1.5,12,,,,,,,,
,,,,,,,,,,,,,,,794,2022-01-16_23h31.03.046,multiplicationStroop,2021.2.3,Win32,120.1778632,,,,,,,,,,,,,,,,,,,,,,,,,,,,,,,,,30,1.8479,1,0,29,29,19,1,6,×,5,6 × 5,neutral,largerFirst,1.5,1.5,30,,,,,,,,
,,,,,,,,,,,,,,,794,2022-01-16_23h31.03.046,multiplicationStroop,2021.2.3,Win32,120.1778632,,,,,,,,,,,,,,,,,,,,,,,,,,,,,,,,,36,2.2061,1,0,30,30,32,1,6,×,6,6 × 6,neutral,tie,1.5,1.5,36,,,,,,,,
,,,,,,,,,,,,,,,794,2022-01-16_23h31.03.046,multiplicationStroop,2021.2.3,Win32,120.1778632,,,,,,,,,,,,,,,,,,,,,,,,,,,,,,,,,4,1.3813,1,0,31,31,28,1,2,×,2,2 × 2,neutral,tie,1.5,1.5,4,,,,,,,,
,,,,,,,,,,,,,,,794,2022-01-16_23h31.03.046,multiplicationStroop,2021.2.3,Win32,120.1778632,,,,,,,,,,,,,,,,,,,,,,,,,,,,,,,,,8,2.0894,1,0,32,32,3,1,2,×,4,2 × 4,neutral,smallerFirst,1.5,1.5,8,,,,,,,,
,,,,,,,,,,,,,,,794,2022-01-16_23h31.03.046,multiplicationStroop,2021.2.3,Win32,120.1778632,,,,,,,,,,,,,,,,,,,,,,,,,,,,,,,,,48,2.5139,1,0,33,33,15,1,8,×,6,8 × 6,neutral,largerFirst,1.5,1.5,48,,,,,,,,
,,,,,,,,,,,,,,,794,2022-01-16_23h31.03.046,multiplicationStroop,2021.2.3,Win32,120.1778632,,,,,,,,,,,,,,,,,,,,,,,,,,,,,,,,,18,2.4808,1,0,34,34,18,1,9,×,2,9 × 2,neutral,largerFirst,1.5,1.5,18,,,,,,,,
,,,,,,,,,,,,,,,794,2022-01-16_23h31.03.046,multiplicationStroop,2021.2.3,Win32,120.1778632,,,,,,,,,,,,,,,,,,,,,,,,,,,,,,,,,24,1.9907,1,0,35,35,22,1,8,×,3,8 × 3,neutral,largerFirst,1.5,1.5,24,,,,,,,,
,,,,,,,,,,,,,,,794,2022-01-16_23h31.03.046,multiplicationStroop,2021.2.3,Win32,120.1778632,,,,,,,,,,,,,,,,,,,,,,,,,,,,,,,,,,,,,,,,,,,,,,,,,,0,2,2,1,1,stimulusFile/mult_blk2.xlsx,,
,,,,,,,,,,,,,,,794,2022-01-16_23h31.03.046,multiplicationStroop,2021.2.3,Win32,120.1778632,,,,,,,,,,,,,,,,,,,,,,,,,,,,,,,space,0.9414,18,1.8056,1,0,0,0,22,1,6,×,3,6 × 3,incongruent,largerFirst,1,2,18,,,,,,,,
,,,,,,,,,,,,,,,794,2022-01-16_23h31.03.046,multiplicationStroop,2021.2.3,Win32,120.1778632,,,,,,,,,,,,,,,,,,,,,,,,,,,,,,,,,32,1.8396,1,0,1,1,21,1,8,×,4,8 × 4,incongruent,largerFirst,1,2,32,,,,,,,,
,,,,,,,,,,,,,,,794,2022-01-16_23h31.03.046,multiplicationStroop,2021.2.3,Win32,120.1778632,,,,,,,,,,,,,,,,,,,,,,,,,,,,,,,,,40,5.2448,1,0,2,2,27,1,8,×,5,8 × 5,incongruent,largerFirst,1,2,40,,,,,,,,
,,,,,,,,,,,,,,,794,2022-01-16_23h31.03.046,multiplicationStroop,2021.2.3,Win32,120.1778632,,,,,,,,,,,,,,,,,,,,,,,,,,,,,,,,,63,3.4555,1,0,3,3,17,1,9,×,7,9 × 7,incongruent,largerFirst,1,2,63,,,,,,,,
,,,,,,,,,,,,,,,794,2022-01-16_23h31.03.046,multiplicationStroop,2021.2.3,Win32,120.1778632,,,,,,,,,,,,,,,,,,,,,,,,,,,,,,,,,16,4.022,1,0,4,4,30,1,4,×,4,4 × 4,neutral,tie,2,1,16,,,,,,,,
,,,,,,,,,,,,,,,794,2022-01-16_23h31.03.046,multiplicationStroop,2021.2.3,Win32,120.1778632,,,,,,,,,,,,,,,,,,,,,,,,,,,,,,,,,82,2.0826,0,0,5,5,35,1,9,×,9,9 × 9,neutral,tie,2,1,81,,,,,,,,
,,,,,,,,,,,,,,,794,2022-01-16_23h31.03.046,multiplicationStroop,2021.2.3,Win32,120.1778632,,,,,,,,,,,,,,,,,,,,,,,,,,,,,,,,,42,2.4889,1,0,6,6,3,1,6,×,7,6 × 7,incongruent,smallerFirst,2,1,42,,,,,,,,
,,,,,,,,,,,,,,,794,2022-01-16_23h31.03.046,multiplicationStroop,2021.2.3,Win32,120.1778632,,,,,,,,,,,,,,,,,,,,,,,,,,,,,,,,,18,1.8236,1,0,7,7,16,1,9,×,2,9 × 2,incongruent,largerFirst,1,2,18,,,,,,,,
,,,,,,,,,,,,,,,794,2022-01-16_23h31.03.046,multiplicationStroop,2021.2.3,Win32,120.1778632,,,,,,,,,,,,,,,,,,,,,,,,,,,,,,,,,15,1.4566,1,0,8,8,24,1,5,×,3,5 × 3,incongruent,largerFirst,1,2,15,,,,,,,,
,,,,,,,,,,,,,,,794,2022-01-16_23h31.03.046,multiplicationStroop,2021.2.3,Win32,120.1778632,,,,,,,,,,,,,,,,,,,,,,,,,,,,,,,,,28,1.9061,1,0,9,9,2,1,4,×,7,4 × 7,incongruent,smallerFirst,2,1,28,,,,,,,,
,,,,,,,,,,,,,,,794,2022-01-16_23h31.03.046,multiplicationStroop,2021.2.3,Win32,120.1778632,,,,,,,,,,,,,,,,,,,,,,,,,,,,,,,,,9,1.6314,1,0,10,10,29,1,3,×,3,3 × 3,neutral,tie,2,1,9,,,,,,,,
,,,,,,,,,,,,,,,794,2022-01-16_23h31.03.046,multiplicationStroop,2021.2.3,Win32,120.1778632,,,,,,,,,,,,,,,,,,,,,,,,,,,,,,,,,20,1.7979,1,0,11,11,13,1,4,×,5,4 × 5,incongruent,smallerFirst,2,1,20,,,,,,,,
,,,,,,,,,,,,,,,794,2022-01-16_23h31.03.046,multiplicationStroop,2021.2.3,Win32,120.1778632,,,,,,,,,,,,,,,,,,,,,,,,,,,,,,,,,72,2.9136,1,0,12,12,14,1,9,×,8,9 × 8,incongruent,largerFirst,1,2,72,,,,,,,,
,,,,,,,,,,,,,,,794,2022-01-16_23h31.03.046,multiplicationStroop,2021.2.3,Win32,120.1778632,,,,,,,,,,,,,,,,,,,,,,,,,,,,,,,,,24,1.6397,1,0,13,13,6,1,4,×,6,4 × 6,incongruent,smallerFirst,2,1,24,,,,,,,,
,,,,,,,,,,,,,,,794,2022-01-16_23h31.03.046,multiplicationStroop,2021.2.3,Win32,120.1778632,,,,,,,,,,,,,,,,,,,,,,,,,,,,,,,,,36,1.6106,1,0,14,14,32,1,6,×,6,6 × 6,neutral,tie,2,1,36,,,,,,,,
,,,,,,,,,,,,,,,794,2022-01-16_23h31.03.046,multiplicationStroop,2021.2.3,Win32,120.1778632,,,,,,,,,,,,,,,,,,,,,,,,,,,,,,,,,48,2.4771,0,0,15,15,34,1,8,×,8,8 × 8,neutral,tie,2,1,64,,,,,,,,
,,,,,,,,,,,,,,,794,2022-01-16_23h31.03.046,multiplicationStroop,2021.2.3,Win32,120.1778632,,,,,,,,,,,,,,,,,,,,,,,,,,,,,,,,,27,2.0054,1,0,16,16,4,1,3,×,9,3 × 9,incongruent,smallerFirst,2,1,27,,,,,,,,
,,,,,,,,,,,,,,,794,2022-01-16_23h31.03.046,multiplicationStroop,2021.2.3,Win32,120.1778632,,,,,,,,,,,,,,,,,,,,,,,,,,,,,,,,,35,2.0477,1,0,17,17,26,1,7,×,5,7 × 5,incongruent,largerFirst,1,2,35,,,,,,,,
,,,,,,,,,,,,,,,794,2022-01-16_23h31.03.046,multiplicationStroop,2021.2.3,Win32,120.1778632,,,,,,,,,,,,,,,,,,,,,,,,,,,,,,,,,30,1.8811,1,0,18,18,11,1,5,×,6,5 × 6,incongruent,smallerFirst,2,1,30,,,,,,,,
,,,,,,,,,,,,,,,794,2022-01-16_23h31.03.046,multiplicationStroop,2021.2.3,Win32,120.1778632,,,,,,,,,,,,,,,,,,,,,,,,,,,,,,,,,4,1.2904,1,0,19,19,28,1,2,×,2,2 × 2,neutral,tie,2,1,4,,,,,,,,
,,,,,,,,,,,,,,,794,2022-01-16_23h31.03.046,multiplicationStroop,2021.2.3,Win32,120.1778632,,,,,,,,,,,,,,,,,,,,,,,,,,,,,,,,,10,1.7809,1,0,20,20,7,1,2,×,5,2 × 5,incongruent,smallerFirst,2,1,10,,,,,,,,
,,,,,,,,,,,,,,,794,2022-01-16_23h31.03.046,multiplicationStroop,2021.2.3,Win32,120.1778632,,,,,,,,,,,,,,,,,,,,,,,,,,,,,,,,,8,2.7304,1,0,21,21,10,1,2,×,4,2 × 4,incongruent,smallerFirst,2,1,8,,,,,,,,
,,,,,,,,,,,,,,,794,2022-01-16_23h31.03.046,multiplicationStroop,2021.2.3,Win32,120.1778632,,,,,,,,,,,,,,,,,,,,,,,,,,,,,,,,,12,1.9723,1,0,22,22,5,1,2,×,6,2 × 6,incongruent,smallerFirst,2,1,12,,,,,,,,
,,,,,,,,,,,,,,,794,2022-01-16_23h31.03.046,multiplicationStroop,2021.2.3,Win32,120.1778632,,,,,,,,,,,,,,,,,,,,,,,,,,,,,,,,,16,1.7812,1,0,23,23,9,1,2,×,8,2 × 8,incongruent,smallerFirst,2,1,16,,,,,,,,
,,,,,,,,,,,,,,,794,2022-01-16_23h31.03.046,multiplicationStroop,2021.2.3,Win32,120.1778632,,,,,,,,,,,,,,,,,,,,,,,,,,,,,,,,,36,2.2225,1,0,24,24,1,1,4,×,9,4 × 9,incongruent,smallerFirst,2,1,36,,,,,,,,
,,,,,,,,,,,,,,,794,2022-01-16_23h31.03.046,multiplicationStroop,2021.2.3,Win32,120.1778632,,,,,,,,,,,,,,,,,,,,,,,,,,,,,,,,,56,1.673,1,0,25,25,0,1,7,×,8,7 × 8,incongruent,smallerFirst,2,1,56,,,,,,,,
,,,,,,,,,,,,,,,794,2022-01-16_23h31.03.046,multiplicationStroop,2021.2.3,Win32,120.1778632,,,,,,,,,,,,,,,,,,,,,,,,,,,,,,,,,21,1.7147,1,0,26,26,12,1,3,×,7,3 × 7,incongruent,smallerFirst,2,1,21,,,,,,,,
,,,,,,,,,,,,,,,794,2022-01-16_23h31.03.046,multiplicationStroop,2021.2.3,Win32,120.1778632,,,,,,,,,,,,,,,,,,,,,,,,,,,,,,,,,48,1.9145,1,0,27,27,15,1,8,×,6,8 × 6,incongruent,largerFirst,1,2,48,,,,,,,,
,,,,,,,,,,,,,,,794,2022-01-16_23h31.03.046,multiplicationStroop,2021.2.3,Win32,120.1778632,,,,,,,,,,,,,,,,,,,,,,,,,,,,,,,,,54,1.5648,1,0,28,28,20,1,9,×,6,9 × 6,incongruent,largerFirst,1,2,54,,,,,,,,
,,,,,,,,,,,,,,,794,2022-01-16_23h31.03.046,multiplicationStroop,2021.2.3,Win32,120.1778632,,,,,,,,,,,,,,,,,,,,,,,,,,,,,,,,,12,1.4234,1,0,29,29,19,1,4,×,3,4 × 3,incongruent,largerFirst,1,2,12,,,,,,,,
,,,,,,,,,,,,,,,794,2022-01-16_23h31.03.046,multiplicationStroop,2021.2.3,Win32,120.1778632,,,,,,,,,,,,,,,,,,,,,,,,,,,,,,,,,25,1.6731,1,0,30,30,31,1,5,×,5,5 × 5,neutral,tie,2,1,25,,,,,,,,
,,,,,,,,,,,,,,,794,2022-01-16_23h31.03.046,multiplicationStroop,2021.2.3,Win32,120.1778632,,,,,,,,,,,,,,,,,,,,,,,,,,,,,,,,,45,1.9061,1,0,31,31,8,1,5,×,9,5 × 9,incongruent,smallerFirst,2,1,45,,,,,,,,
,,,,,,,,,,,,,,,794,2022-01-16_23h31.03.046,multiplicationStroop,2021.2.3,Win32,120.1778632,,,,,,,,,,,,,,,,,,,,,,,,,,,,,,,,,21,1.4566,0,0,32,32,23,1,8,×,3,8 × 3,incongruent,largerFirst,1,2,24,,,,,,,,
,,,,,,,,,,,,,,,794,2022-01-16_23h31.03.046,multiplicationStroop,2021.2.3,Win32,120.1778632,,,,,,,,,,,,,,,,,,,,,,,,,,,,,,,,,49,1.9811,1,0,33,33,33,1,7,×,7,7 × 7,neutral,tie,2,1,49,,,,,,,,
,,,,,,,,,,,,,,,794,2022-01-16_23h31.03.046,multiplicationStroop,2021.2.3,Win32,120.1778632,,,,,,,,,,,,,,,,,,,,,,,,,,,,,,,,,14,1.6229,1,0,34,34,18,1,7,×,2,7 × 2,incongruent,largerFirst,1,2,14,,,,,,,,
,,,,,,,,,,,,,,,794,2022-01-16_23h31.03.046,multiplicationStroop,2021.2.3,Win32,120.1778632,,,,,,,,,,,,,,,,,,,,,,,,,,,,,,,,,6,1.5814,1,0,35,35,25,1,3,×,2,3 × 2,incongruent,largerFirst,1,2,6,,,,,,,,
,,,,,,,,,,,,,,,794,2022-01-16_23h31.03.046,multiplicationStroop,2021.2.3,Win32,120.1778632,,,,,,,,,,,,,,,,,,,,,,,,,,,,,,,,,,,,,,,,,,,,,,,,,,0,3,3,4,1,stimulusFile/mult_blk5_INcongruent.xlsx,,
,,,,,,,,,,,,,,,794,2022-01-16_23h31.03.046,multiplicationStroop,2021.2.3,Win32,120.1778632,,,,,,,,,,,,,,,,,,,,,,,,,,,,,,,space,1.1824,24,1.4227,1,0,0,0,16,1,6,×,4,6 × 4,neutral,largerFirst,1.5,1.5,24,,,,,,,,
,,,,,,,,,,,,,,,794,2022-01-16_23h31.03.046,multiplicationStroop,2021.2.3,Win32,120.1778632,,,,,,,,,,,,,,,,,,,,,,,,,,,,,,,,,40,1.8145,1,0,1,1,10,1,5,×,8,5 × 8,neutral,smallerFirst,1.5,1.5,40,,,,,,,,
,,,,,,,,,,,,,,,794,2022-01-16_23h31.03.046,multiplicationStroop,2021.2.3,Win32,120.1778632,,,,,,,,,,,,,,,,,,,,,,,,,,,,,,,,,6,1.3899,1,0,2,2,12,1,2,×,3,2 × 3,neutral,smallerFirst,1.5,1.5,6,,,,,,,,
,,,,,,,,,,,,,,,794,2022-01-16_23h31.03.046,multiplicationStroop,2021.2.3,Win32,120.1778632,,,,,,,,,,,,,,,,,,,,,,,,,,,,,,,,,18,1.698,1,0,3,3,4,1,2,×,9,2 × 9,neutral,smallerFirst,1.5,1.5,18,,,,,,,,
,,,,,,,,,,,,,,,794,2022-01-16_23h31.03.046,multiplicationStroop,2021.2.3,Win32,120.1778632,,,,,,,,,,,,,,,,,,,,,,,,,,,,,,,,,25,1.39,1,0,4,4,31,1,5,×,5,5 × 5,neutral,tie,1.5,1.5,25,,,,,,,,
,,,,,,,,,,,,,,,794,2022-01-16_23h31.03.046,multiplicationStroop,2021.2.3,Win32,120.1778632,,,,,,,,,,,,,,,,,,,,,,,,,,,,,,,,,21,1.3318,1,0,5,5,22,1,7,×,3,7 × 3,neutral,largerFirst,1.5,1.5,21,,,,,,,,
,,,,,,,,,,,,,,,794,2022-01-16_23h31.03.046,multiplicationStroop,2021.2.3,Win32,120.1778632,,,,,,,,,,,,,,,,,,,,,,,,,,,,,,,,,8,1.9394,1,0,6,6,17,1,4,×,2,4 × 2,neutral,largerFirst,1.5,1.5,8,,,,,,,,
,,,,,,,,,,,,,,,794,2022-01-16_23h31.03.046,multiplicationStroop,2021.2.3,Win32,120.1778632,,,,,,,,,,,,,,,,,,,,,,,,,,,,,,,,,12,1.365,1,0,7,7,11,1,2,×,6,2 × 6,neutral,smallerFirst,1.5,1.5,12,,,,,,,,
,,,,,,,,,,,,,,,794,2022-01-16_23h31.03.046,multiplicationStroop,2021.2.3,Win32,120.1778632,,,,,,,,,,,,,,,,,,,,,,,,,,,,,,,,,56,1.7063,0,0,8,8,26,1,9,×,7,9 × 7,neutral,largerFirst,1.5,1.5,63,,,,,,,,
,,,,,,,,,,,,,,,794,2022-01-16_23h31.03.046,multiplicationStroop,2021.2.3,Win32,120.1778632,,,,,,,,,,,,,,,,,,,,,,,,,,,,,,,,,10,2.0892,1,0,9,9,18,1,5,×,2,5 × 2,neutral,largerFirst,1.5,1.5,10,,,,,,,,
,,,,,,,,,,,,,,,794,2022-01-16_23h31.03.046,multiplicationStroop,2021.2.3,Win32,120.1778632,,,,,,,,,,,,,,,,,,,,,,,,,,,,,,,,,35,1.94,1,0,10,10,15,1,7,×,5,7 × 5,neutral,largerFirst,1.5,1.5,35,,,,,,,,
,,,,,,,,,,,,,,,794,2022-01-16_23h31.03.046,multiplicationStroop,2021.2.3,Win32,120.1778632,,,,,,,,,,,,,,,,,,,,,,,,,,,,,,,,,42,1.7806,1,0,11,11,20,1,7,×,6,7 × 6,neutral,largerFirst,1.5,1.5,42,,,,,,,,
,,,,,,,,,,,,,,,794,2022-01-16_23h31.03.046,multiplicationStroop,2021.2.3,Win32,120.1778632,,,,,,,,,,,,,,,,,,,,,,,,,,,,,,,,,16,2.8635,1,0,12,12,30,1,4,×,4,4 × 4,neutral,tie,1.5,1.5,16,,,,,,,,
,,,,,,,,,,,,,,,794,2022-01-16_23h31.03.046,multiplicationStroop,2021.2.3,Win32,120.1778632,,,,,,,,,,,,,,,,,,,,,,,,,,,,,,,,,16,1.6646,1,0,13,13,27,1,8,×,2,8 × 2,neutral,largerFirst,1.5,1.5,16,,,,,,,,
,,,,,,,,,,,,,,,794,2022-01-16_23h31.03.046,multiplicationStroop,2021.2.3,Win32,120.1778632,,,,,,,,,,,,,,,,,,,,,,,,,,,,,,,,,48,3.1633,0,0,14,14,34,1,8,×,8,8 × 8,neutral,tie,1.5,1.5,64,,,,,,,,
,,,,,,,,,,,,,,,794,2022-01-16_23h31.03.046,multiplicationStroop,2021.2.3,Win32,120.1778632,,,,,,,,,,,,,,,,,,,,,,,,,,,,,,,,,12,1.2659,1,0,15,15,7,1,3,×,4,3 × 4,neutral,smallerFirst,1.5,1.5,12,,,,,,,,
,,,,,,,,,,,,,,,794,2022-01-16_23h31.03.046,multiplicationStroop,2021.2.3,Win32,120.1778632,,,,,,,,,,,,,,,,,,,,,,,,,,,,,,,,,81,2.7302,1,0,16,16,35,1,9,×,9,9 × 9,neutral,tie,1.5,1.5,81,,,,,,,,
,,,,,,,,,,,,,,,794,2022-01-16_23h31.03.046,multiplicationStroop,2021.2.3,Win32,120.1778632,,,,,,,,,,,,,,,,,,,,,,,,,,,,,,,,,40,2.115,0,0,17,17,24,1,9,×,5,9 × 5,neutral,largerFirst,1.5,1.5,45,,,,,,,,
,,,,,,,,,,,,,,,794,2022-01-16_23h31.03.046,multiplicationStroop,2021.2.3,Win32,120.1778632,,,,,,,,,,,,,,,,,,,,,,,,,,,,,,,,,32,1.8147,1,0,18,18,9,1,4,×,8,4 × 8,neutral,smallerFirst,1.5,1.5,32,,,,,,,,
,,,,,,,,,,,,,,,794,2022-01-16_23h31.03.046,multiplicationStroop,2021.2.3,Win32,120.1778632,,,,,,,,,,,,,,,,,,,,,,,,,,,,,,,,,28,1.5483,1,0,19,19,3,1,4,×,7,4 × 7,neutral,smallerFirst,1.5,1.5,28,,,,,,,,
,,,,,,,,,,,,,,,794,2022-01-16_23h31.03.046,multiplicationStroop,2021.2.3,Win32,120.1778632,,,,,,,,,,,,,,,,,,,,,,,,,,,,,,,,,36,1.6479,1,0,20,20,32,1,6,×,6,6 × 6,neutral,tie,1.5,1.5,36,,,,,,,,
,,,,,,,,,,,,,,,794,2022-01-16_23h31.03.046,multiplicationStroop,2021.2.3,Win32,120.1778632,,,,,,,,,,,,,,,,,,,,,,,,,,,,,,,,,72,2.1976,1,0,21,21,25,1,9,×,8,9 × 8,neutral,largerFirst,1.5,1.5,72,,,,,,,,
,,,,,,,,,,,,,,,794,2022-01-16_23h31.03.046,multiplicationStroop,2021.2.3,Win32,120.1778632,,,,,,,,,,,,,,,,,,,,,,,,,,,,,,,,,18,1.8729,1,0,22,22,14,1,6,×,3,6 × 3,neutral,largerFirst,1.5,1.5,18,,,,,,,,
,,,,,,,,,,,,,,,794,2022-01-16_23h31.03.046,multiplicationStroop,2021.2.3,Win32,120.1778632,,,,,,,,,,,,,,,,,,,,,,,,,,,,,,,,,20,1.673,1,0,23,23,6,1,4,×,5,4 × 5,neutral,smallerFirst,1.5,1.5,20,,,,,,,,
,,,,,,,,,,,,,,,794,2022-01-16_23h31.03.046,multiplicationStroop,2021.2.3,Win32,120.1778632,,,,,,,,,,,,,,,,,,,,,,,,,,,,,,,,,49,1.6979,1,0,24,24,33,1,7,×,7,7 × 7,neutral,tie,1.5,1.5,49,,,,,,,,
,,,,,,,,,,,,,,,794,2022-01-16_23h31.03.046,multiplicationStroop,2021.2.3,Win32,120.1778632,,,,,,,,,,,,,,,,,,,,,,,,,,,,,,,,,54,1.9312,1,0,25,25,21,1,9,×,6,9 × 6,neutral,largerFirst,1.5,1.5,54,,,,,,,,
,,,,,,,,,,,,,,,794,2022-01-16_23h31.03.046,multiplicationStroop,2021.2.3,Win32,120.1778632,,,,,,,,,,,,,,,,,,,,,,,,,,,,,,,,,36,1.8396,1,0,26,26,13,1,4,×,9,4 × 9,neutral,smallerFirst,1.5,1.5,36,,,,,,,,
,,,,,,,,,,,,,,,794,2022-01-16_23h31.03.046,multiplicationStroop,2021.2.3,Win32,120.1778632,,,,,,,,,,,,,,,,,,,,,,,,,,,,,,,,,30,1.5981,1,0,27,27,5,1,5,×,6,5 × 6,neutral,smallerFirst,1.5,1.5,30,,,,,,,,
,,,,,,,,,,,,,,,794,2022-01-16_23h31.03.046,multiplicationStroop,2021.2.3,Win32,120.1778632,,,,,,,,,,,,,,,,,,,,,,,,,,,,,,,,,56,1.6647,1,0,28,28,23,1,8,×,7,8 × 7,neutral,largerFirst,1.5,1.5,56,,,,,,,,
,,,,,,,,,,,,,,,794,2022-01-16_23h31.03.046,multiplicationStroop,2021.2.3,Win32,120.1778632,,,,,,,,,,,,,,,,,,,,,,,,,,,,,,,,,27,1.9729,1,0,29,29,0,1,3,×,9,3 × 9,neutral,smallerFirst,1.5,1.5,27,,,,,,,,
,,,,,,,,,,,,,,,794,2022-01-16_23h31.03.046,multiplicationStroop,2021.2.3,Win32,120.1778632,,,,,,,,,,,,,,,,,,,,,,,,,,,,,,,,,48,1.864,1,0,30,30,1,1,6,×,8,6 × 8,neutral,smallerFirst,1.5,1.5,48,,,,,,,,
,,,,,,,,,,,,,,,794,2022-01-16_23h31.03.046,multiplicationStroop,2021.2.3,Win32,120.1778632,,,,,,,,,,,,,,,,,,,,,,,,,,,,,,,,,9,1.7734,1,0,31,31,29,1,3,×,3,3 × 3,neutral,tie,1.5,1.5,9,,,,,,,,
,,,,,,,,,,,,,,,794,2022-01-16_23h31.03.046,multiplicationStroop,2021.2.3,Win32,120.1778632,,,,,,,,,,,,,,,,,,,,,,,,,,,,,,,,,4,1.2317,1,0,32,32,28,1,2,×,2,2 × 2,neutral,tie,1.5,1.5,4,,,,,,,,
,,,,,,,,,,,,,,,794,2022-01-16_23h31.03.046,multiplicationStroop,2021.2.3,Win32,120.1778632,,,,,,,,,,,,,,,,,,,,,,,,,,,,,,,,,14,1.5145,1,0,33,33,2,1,2,×,7,2 × 7,neutral,smallerFirst,1.5,1.5,14,,,,,,,,
,,,,,,,,,,,,,,,794,2022-01-16_23h31.03.046,multiplicationStroop,2021.2.3,Win32,120.1778632,,,,,,,,,,,,,,,,,,,,,,,,,,,,,,,,,24,1.723,1,0,34,34,8,1,3,×,8,3 × 8,neutral,smallerFirst,1.5,1.5,24,,,,,,,,
,,,,,,,,,,,,,,,794,2022-01-16_23h31.03.046,multiplicationStroop,2021.2.3,Win32,120.1778632,,,,,,,,,,,,,,,,,,,,,,,,,,,,,,,,,15,1.4524,1,0,35,35,19,1,5,×,3,5 × 3,neutral,largerFirst,1.5,1.5,15,,,,,,,,
,,,,,,,,,,,,,,,794,2022-01-16_23h31.03.046,multiplicationStroop,2021.2.3,Win32,120.1778632,,,,,,,,,,,,,,,,,,,,,,,,,,,,,,,,,,,,,,,,,,,,,,,,,,0,4,4,0,1,stimulusFile/mult_blk1.xlsx,,
,,,,,,,,,,,,,,,794,2022-01-16_23h31.03.046,multiplicationStroop,2021.2.3,Win32,120.1778632,,,,,,,,,,,,,,,,,,,,,,,,,,,,,,,space,0.8829,21,1.2823,1,0,0,0,16,1,7,×,3,7 × 3,congruent,largerFirst,2,1,21,,,,,,,,
,,,,,,,,,,,,,,,794,2022-01-16_23h31.03.046,multiplicationStroop,2021.2.3,Win32,120.1778632,,,,,,,,,,,,,,,,,,,,,,,,,,,,,,,,,4,1.1653,1,0,1,1,28,1,2,×,2,2 × 2,neutral,tie,2,1,4,,,,,,,,
,,,,,,,,,,,,,,,794,2022-01-16_23h31.03.046,multiplicationStroop,2021.2.3,Win32,120.1778632,,,,,,,,,,,,,,,,,,,,,,,,,,,,,,,,,18,1.8228,1,0,2,2,11,1,3,×,6,3 × 6,congruent,smallerFirst,1,2,18,,,,,,,,
,,,,,,,,,,,,,,,794,2022-01-16_23h31.03.046,multiplicationStroop,2021.2.3,Win32,120.1778632,,,,,,,,,,,,,,,,,,,,,,,,,,,,,,,,,8,2.0727,1,0,3,3,9,1,2,×,4,2 × 4,congruent,smallerFirst,1,2,8,,,,,,,,
,,,,,,,,,,,,,,,794,2022-01-16_23h31.03.046,multiplicationStroop,2021.2.3,Win32,120.1778632,,,,,,,,,,,,,,,,,,,,,,,,,,,,,,,,,16,1.7649,1,0,4,4,5,1,2,×,8,2 × 8,congruent,smallerFirst,1,2,16,,,,,,,,
,,,,,,,,,,,,,,,794,2022-01-16_23h31.03.046,multiplicationStroop,2021.2.3,Win32,120.1778632,,,,,,,,,,,,,,,,,,,,,,,,,,,,,,,,,12,1.2733,1,0,5,5,19,1,6,×,2,6 × 2,congruent,largerFirst,2,1,12,,,,,,,,
,,,,,,,,,,,,,,,794,2022-01-16_23h31.03.046,multiplicationStroop,2021.2.3,Win32,120.1778632,,,,,,,,,,,,,,,,,,,,,,,,,,,,,,,,,40,1.7395,0,0,6,6,23,1,9,×,5,9 × 5,congruent,largerFirst,2,1,45,,,,,,,,
,,,,,,,,,,,,,,,794,2022-01-16_23h31.03.046,multiplicationStroop,2021.2.3,Win32,120.1778632,,,,,,,,,,,,,,,,,,,,,,,,,,,,,,,,,35,1.4232,1,0,7,7,1,1,5,×,7,5 × 7,congruent,smallerFirst,1,2,35,,,,,,,,
,,,,,,,,,,,,,,,794,2022-01-16_23h31.03.046,multiplicationStroop,2021.2.3,Win32,120.1778632,,,,,,,,,,,,,,,,,,,,,,,,,,,,,,,,,25,1.515,1,0,8,8,31,1,5,×,5,5 × 5,neutral,tie,2,1,25,,,,,,,,
,,,,,,,,,,,,,,,794,2022-01-16_23h31.03.046,multiplicationStroop,2021.2.3,Win32,120.1778632,,,,,,,,,,,,,,,,,,,,,,,,,,,,,,,,,49,1.8727,1,0,9,9,33,1,7,×,7,7 × 7,neutral,tie,2,1,49,,,,,,,,
,,,,,,,,,,,,,,,794,2022-01-16_23h31.03.046,multiplicationStroop,2021.2.3,Win32,120.1778632,,,,,,,,,,,,,,,,,,,,,,,,,,,,,,,,,24,1.3819,1,0,10,10,25,1,6,×,4,6 × 4,congruent,largerFirst,2,1,24,,,,,,,,
,,,,,,,,,,,,,,,794,2022-01-16_23h31.03.046,multiplicationStroop,2021.2.3,Win32,120.1778632,,,,,,,,,,,,,,,,,,,,,,,,,,,,,,,,,48,1.7807,1,0,11,11,18,1,8,×,6,8 × 6,congruent,largerFirst,2,1,48,,,,,,,,
,,,,,,,,,,,,,,,794,2022-01-16_23h31.03.046,multiplicationStroop,2021.2.3,Win32,120.1778632,,,,,,,,,,,,,,,,,,,,,,,,,,,,,,,,,14,1.3151,1,0,12,12,14,1,7,×,2,7 × 2,congruent,largerFirst,2,1,14,,,,,,,,
,,,,,,,,,,,,,,,794,2022-01-16_23h31.03.046,multiplicationStroop,2021.2.3,Win32,120.1778632,,,,,,,,,,,,,,,,,,,,,,,,,,,,,,,,,54,1.4818,1,0,13,13,12,1,6,×,9,6 × 9,congruent,smallerFirst,1,2,54,,,,,,,,
,,,,,,,,,,,,,,,794,2022-01-16_23h31.03.046,multiplicationStroop,2021.2.3,Win32,120.1778632,,,,,,,,,,,,,,,,,,,,,,,,,,,,,,,,,10,2.2304,1,0,14,14,24,1,5,×,2,5 × 2,congruent,largerFirst,2,1,10,,,,,,,,
,,,,,,,,,,,,,,,794,2022-01-16_23h31.03.046,multiplicationStroop,2021.2.3,Win32,120.1778632,,,,,,,,,,,,,,,,,,,,,,,,,,,,,,,,,40,2.0143,1,0,15,15,6,1,5,×,8,5 × 8,congruent,smallerFirst,1,2,40,,,,,,,,
,,,,,,,,,,,,,,,794,2022-01-16_23h31.03.046,multiplicationStroop,2021.2.3,Win32,120.1778632,,,,,,,,,,,,,,,,,,,,,,,,,,,,,,,,,6,1.4398,1,0,16,16,13,1,2,×,3,2 × 3,congruent,smallerFirst,1,2,6,,,,,,,,
,,,,,,,,,,,,,,,794,2022-01-16_23h31.03.046,multiplicationStroop,2021.2.3,Win32,120.1778632,,,,,,,,,,,,,,,,,,,,,,,,,,,,,,,,,72,12.6958,1,0,17,17,17,1,9,×,8,9 × 8,congruent,largerFirst,2,1,72,,,,,,,,
,,,,,,,,,,,,,,,794,2022-01-16_23h31.03.046,multiplicationStroop,2021.2.3,Win32,120.1778632,,,,,,,,,,,,,,,,,,,,,,,,,,,,,,,,,28,5.7616,1,0,18,18,27,1,7,×,4,7 × 4,congruent,largerFirst,2,1,28,,,,,,,,
,,,,,,,,,,,,,,,794,2022-01-16_23h31.03.046,multiplicationStroop,2021.2.3,Win32,120.1778632,,,,,,,,,,,,,,,,,,,,,,,,,,,,,,,,,12,1.4162,1,0,19,19,2,1,3,×,4,3 × 4,congruent,smallerFirst,1,2,12,,,,,,,,
,,,,,,,,,,,,,,,794,2022-01-16_23h31.03.046,multiplicationStroop,2021.2.3,Win32,120.1778632,,,,,,,,,,,,,,,,,,,,,,,,,,,,,,,,,56,2.6804,1,0,20,20,8,1,7,×,8,7 × 8,congruent,smallerFirst,1,2,56,,,,,,,,
,,,,,,,,,,,,,,,794,2022-01-16_23h31.03.046,multiplicationStroop,2021.2.3,Win32,120.1778632,,,,,,,,,,,,,,,,,,,,,,,,,,,,,,,,,36,2.0311,1,0,21,21,0,1,4,×,9,4 × 9,congruent,smallerFirst,1,2,36,,,,,,,,
,,,,,,,,,,,,,,,794,2022-01-16_23h31.03.046,multiplicationStroop,2021.2.3,Win32,120.1778632,,,,,,,,,,,,,,,,,,,,,,,,,,,,,,,,,27,1.9395,1,0,22,22,26,1,9,×,3,9 × 3,congruent,largerFirst,2,1,27,,,,,,,,
,,,,,,,,,,,,,,,794,2022-01-16_23h31.03.046,multiplicationStroop,2021.2.3,Win32,120.1778632,,,,,,,,,,,,,,,,,,,,,,,,,,,,,,,,,32,1.4484,1,0,23,23,20,1,8,×,4,8 × 4,congruent,largerFirst,2,1,32,,,,,,,,
,,,,,,,,,,,,,,,794,2022-01-16_23h31.03.046,multiplicationStroop,2021.2.3,Win32,120.1778632,,,,,,,,,,,,,,,,,,,,,,,,,,,,,,,,,15,1.4482,1,0,24,24,4,1,3,×,5,3 × 5,congruent,smallerFirst,1,2,15,,,,,,,,
,,,,,,,,,,,,,,,794,2022-01-16_23h31.03.046,multiplicationStroop,2021.2.3,Win32,120.1778632,,,,,,,,,,,,,,,,,,,,,,,,,,,,,,,,,64,2.3474,1,0,25,25,34,1,8,×,8,8 × 8,neutral,tie,2,1,64,,,,,,,,
,,,,,,,,,,,,,,,794,2022-01-16_23h31.03.046,multiplicationStroop,2021.2.3,Win32,120.1778632,,,,,,,,,,,,,,,,,,,,,,,,,,,,,,,,,30,1.6397,1,0,26,26,15,1,6,×,5,6 × 5,congruent,largerFirst,2,1,30,,,,,,,,
,,,,,,,,,,,,,,,794,2022-01-16_23h31.03.046,multiplicationStroop,2021.2.3,Win32,120.1778632,,,,,,,,,,,,,,,,,,,,,,,,,,,,,,,,,24,1.5731,0,0,27,27,30,1,4,×,4,4 × 4,neutral,tie,2,1,16,,,,,,,,
,,,,,,,,,,,,,,,794,2022-01-16_23h31.03.046,multiplicationStroop,2021.2.3,Win32,120.1778632,,,,,,,,,,,,,,,,,,,,,,,,,,,,,,,,,81,2.8805,1,0,28,28,35,1,9,×,9,9 × 9,neutral,tie,2,1,81,,,,,,,,
,,,,,,,,,,,,,,,794,2022-01-16_23h31.03.046,multiplicationStroop,2021.2.3,Win32,120.1778632,,,,,,,,,,,,,,,,,,,,,,,,,,,,,,,,,9,1.8303,1,0,29,29,29,1,3,×,3,3 × 3,neutral,tie,2,1,9,,,,,,,,
,,,,,,,,,,,,,,,794,2022-01-16_23h31.03.046,multiplicationStroop,2021.2.3,Win32,120.1778632,,,,,,,,,,,,,,,,,,,,,,,,,,,,,,,,,20,1.7143,1,0,30,30,7,1,4,×,5,4 × 5,congruent,smallerFirst,1,2,20,,,,,,,,
,,,,,,,,,,,,,,,794,2022-01-16_23h31.03.046,multiplicationStroop,2021.2.3,Win32,120.1778632,,,,,,,,,,,,,,,,,,,,,,,,,,,,,,,,,24,1.9894,1,0,31,31,10,1,3,×,8,3 × 8,congruent,smallerFirst,1,2,24,,,,,,,,
,,,,,,,,,,,,,,,794,2022-01-16_23h31.03.046,multiplicationStroop,2021.2.3,Win32,120.1778632,,,,,,,,,,,,,,,,,,,,,,,,,,,,,,,,,63,4.1789,1,0,32,32,21,1,9,×,7,9 × 7,congruent,largerFirst,2,1,63,,,,,,,,
,,,,,,,,,,,,,,,794,2022-01-16_23h31.03.046,multiplicationStroop,2021.2.3,Win32,120.1778632,,,,,,,,,,,,,,,,,,,,,,,,,,,,,,,,,18,1.849,1,0,33,33,22,1,9,×,2,9 × 2,congruent,largerFirst,2,1,18,,,,,,,,
,,,,,,,,,,,,,,,794,2022-01-16_23h31.03.046,multiplicationStroop,2021.2.3,Win32,120.1778632,,,,,,,,,,,,,,,,,,,,,,,,,,,,,,,,,36,1.598,1,0,34,34,32,1,6,×,6,6 × 6,neutral,tie,2,1,36,,,,,,,,
,,,,,,,,,,,,,,,794,2022-01-16_23h31.03.046,multiplicationStroop,2021.2.3,Win32,120.1778632,,,,,,,,,,,,,,,,,,,,,,,,,,,,,,,,,42,1.7897,1,0,35,35,3,1,6,×,7,6 × 7,congruent,smallerFirst,1,2,42,,,,,,,,
,,,,,,,,,,,,,,,794,2022-01-16_23h31.03.046,multiplicationStroop,2021.2.3,Win32,120.1778632,,,,,,,,,,,,,,,,,,,,,,,,,,,,,,,,,,,,,,,,,,,,,,,,,,0,5,5,2,1,stimulusFile/mult_blk3_congruent.xlsx,,
,,,,,,,,,,,,,,,794,2022-01-16_23h31.03.046,multiplicationStroop,2021.2.3,Win32,120.1778632,,,,,,,,,,,,,,,,,,,,,,,,,,,,,,,,,,,,,,,,,,,,,,,,,,,,,,,,space,6.4801