welcomeKey_resp.keys,welcomeKey_resp.rt,X Scale,Y Scale,rt_resp_4.keys,rt_resp_4.corr,rt_resp_4.rt,speedtest_2.thisRepN,speedtest_2.thisTrialN,speedtest_2.thisN,speedtest_2.thisIndex,speedtest_2.ran,numberSc,posX,positionLayout,participant,date,expName,psychopyVersion,OS,frameRate,ct_instrresp.keys,ct_instrresp.rt,key_resp_2.keys,key_resp_2.rt,ct_keyResp.keys,ct_keyResp.corr,ct_keyResp.rt,trials.thisRepN,trials.thisTrialN,trials.thisN,trials.thisIndex,trials.ran,leftNo,rightNo,displayProblem,numDistance,leftNo_size,rightNo_size,Dims,keyAnswer,TS_Loop.thisRepN,TS_Loop.thisTrialN,TS_Loop.thisN,TS_Loop.thisIndex,TS_Loop.ran,Condition,ActionInst,instrImage,mltptaskInst_resp.keys,mltptaskInst_resp.rt,continue_resp_2.keys,continue_resp_2.rt,multp_Answer,multi_RT,multiplyCorr,LoopingMultiply.thisRepN,LoopingMultiply.thisTrialN,LoopingMultiply.thisN,LoopingMultiply.thisIndex,LoopingMultiply.ran,factor1,multiplySign,factor2,multliplyProblem,physicalSize,orderOperand,sizeF1,sizeF2,mult_answer,trials_stroop.thisRepN,trials_stroop.thisTrialN,trials_stroop.thisN,trials_stroop.thisIndex,trials_stroop.ran,multiplicationFile,esckey_resp_2.keys,esckey_resp_2.rt
y,12.8437,44.4,43,right,1,0.375,0,0,0,13,1,7,200,right,795,2022-01-17_09h08.01.262,multiplicationStroop,2021.2.3,Win32,52.49343832,,,,,,,,,,,,,,,,,,,,,,,,,,,,,,,,,,,,,,,,,,,,,,,,,,,,,,,,,
,,,,left,1,0.4764,0,1,1,6,1,8,-200,left,795,2022-01-17_09h08.01.262,multiplicationStroop,2021.2.3,Win32,52.49343832,,,,,,,,,,,,,,,,,,,,,,,,,,,,,,,,,,,,,,,,,,,,,,,,,,,,,,,,,
,,,,left,1,0.5115,0,2,2,1,1,2,-200,left,795,2022-01-17_09h08.01.262,multiplicationStroop,2021.2.3,Win32,52.49343832,,,,,,,,,,,,,,,,,,,,,,,,,,,,,,,,,,,,,,,,,,,,,,,,,,,,,,,,,
,,,,left,1,0.4368,0,3,3,0,1,1,-200,left,795,2022-01-17_09h08.01.262,multiplicationStroop,2021.2.3,Win32,52.49343832,,,,,,,,,,,,,,,,,,,,,,,,,,,,,,,,,,,,,,,,,,,,,,,,,,,,,,,,,
,,,,right,1,0.4414,0,4,4,14,1,8,200,right,795,2022-01-17_09h08.01.262,multiplicationStroop,2021.2.3,Win32,52.49343832,,,,,,,,,,,,,,,,,,,,,,,,,,,,,,,,,,,,,,,,,,,,,,,,,,,,,,,,,
,,,,left,1,0.2801,0,5,5,7,1,9,-200,left,795,2022-01-17_09h08.01.262,multiplicationStroop,2021.2.3,Win32,52.49343832,,,,,,,,,,,,,,,,,,,,,,,,,,,,,,,,,,,,,,,,,,,,,,,,,,,,,,,,,
,,,,right,1,0.3139,0,6,6,11,1,4,200,right,795,2022-01-17_09h08.01.262,multiplicationStroop,2021.2.3,Win32,52.49343832,,,,,,,,,,,,,,,,,,,,,,,,,,,,,,,,,,,,,,,,,,,,,,,,,,,,,,,,,
,,,,left,1,0.2755,0,7,7,2,1,3,-200,left,795,2022-01-17_09h08.01.262,multiplicationStroop,2021.2.3,Win32,52.49343832,,,,,,,,,,,,,,,,,,,,,,,,,,,,,,,,,,,,,,,,,,,,,,,,,,,,,,,,,
,,,,right,1,0.2889,0,8,8,12,1,6,200,right,795,2022-01-17_09h08.01.262,multiplicationStroop,2021.2.3,Win32,52.49343832,,,,,,,,,,,,,,,,,,,,,,,,,,,,,,,,,,,,,,,,,,,,,,,,,,,,,,,,,
,,,,left,1,0.2857,0,9,9,3,1,4,-200,left,795,2022-01-17_09h08.01.262,multiplicationStroop,2021.2.3,Win32,52.49343832,,,,,,,,,,,,,,,,,,,,,,,,,,,,,,,,,,,,,,,,,,,,,,,,,,,,,,,,,
,,,,right,1,0.2833,0,10,10,15,1,9,200,right,795,2022-01-17_09h08.01.262,multiplicationStroop,2021.2.3,Win32,52.49343832,,,,,,,,,,,,,,,,,,,,,,,,,,,,,,,,,,,,,,,,,,,,,,,,,,,,,,,,,
,,,,right,1,0.356,0,11,11,9,1,2,200,right,795,2022-01-17_09h08.01.262,multiplicationStroop,2021.2.3,Win32,52.49343832,,,,,,,,,,,,,,,,,,,,,,,,,,,,,,,,,,,,,,,,,,,,,,,,,,,,,,,,,
,,,,right,1,0.3178,0,12,12,8,1,1,200,right,795,2022-01-17_09h08.01.262,multiplicationStroop,2021.2.3,Win32,52.49343832,,,,,,,,,,,,,,,,,,,,,,,,,,,,,,,,,,,,,,,,,,,,,,,,,,,,,,,,,
,,,,left,1,0.2944,0,13,13,5,1,7,-200,left,795,2022-01-17_09h08.01.262,multiplicationStroop,2021.2.3,Win32,52.49343832,,,,,,,,,,,,,,,,,,,,,,,,,,,,,,,,,,,,,,,,,,,,,,,,,,,,,,,,,
,,,,right,1,0.2802,0,14,14,10,1,3,200,right,795,2022-01-17_09h08.01.262,multiplicationStroop,2021.2.3,Win32,52.49343832,,,,,,,,,,,,,,,,,,,,,,,,,,,,,,,,,,,,,,,,,,,,,,,,,,,,,,,,,
,,,,left,1,0.2889,0,15,15,4,1,6,-200,left,795,2022-01-17_09h08.01.262,multiplicationStroop,2021.2.3,Win32,52.49343832,,,,,,,,,,,,,,,,,,,,,,,,,,,,,,,,,,,,,,,,,,,,,,,,,,,,,,,,,
,,,,left,1,0.3176,1,0,16,4,1,6,-200,left,795,2022-01-17_09h08.01.262,multiplicationStroop,2021.2.3,Win32,52.49343832,,,,,,,,,,,,,,,,,,,,,,,,,,,,,,,,,,,,,,,,,,,,,,,,,,,,,,,,,
,,,,right,1,0.2796,1,1,17,13,1,7,200,right,795,2022-01-17_09h08.01.262,multiplicationStroop,2021.2.3,Win32,52.49343832,,,,,,,,,,,,,,,,,,,,,,,,,,,,,,,,,,,,,,,,,,,,,,,,,,,,,,,,,
,,,,left,1,0.2703,1,2,18,7,1,9,-200,left,795,2022-01-17_09h08.01.262,multiplicationStroop,2021.2.3,Win32,52.49343832,,,,,,,,,,,,,,,,,,,,,,,,,,,,,,,,,,,,,,,,,,,,,,,,,,,,,,,,,
,,,,right,1,0.31,1,3,19,11,1,4,200,right,795,2022-01-17_09h08.01.262,multiplicationStroop,2021.2.3,Win32,52.49343832,,,,,,,,,,,,,,,,,,,,,,,,,,,,,,,,,,,,,,,,,,,,,,,,,,,,,,,,,
,,,,left,1,0.2877,1,4,20,3,1,4,-200,left,795,2022-01-17_09h08.01.262,multiplicationStroop,2021.2.3,Win32,52.49343832,,,,,,,,,,,,,,,,,,,,,,,,,,,,,,,,,,,,,,,,,,,,,,,,,,,,,,,,,
,,,,right,1,0.25,1,5,21,12,1,6,200,right,795,2022-01-17_09h08.01.262,multiplicationStroop,2021.2.3,Win32,52.49343832,,,,,,,,,,,,,,,,,,,,,,,,,,,,,,,,,,,,,,,,,,,,,,,,,,,,,,,,,
,,,,right,1,0.3345,1,6,22,14,1,8,200,right,795,2022-01-17_09h08.01.262,multiplicationStroop,2021.2.3,Win32,52.49343832,,,,,,,,,,,,,,,,,,,,,,,,,,,,,,,,,,,,,,,,,,,,,,,,,,,,,,,,,
,,,,left,1,0.2592,1,7,23,1,1,2,-200,left,795,2022-01-17_09h08.01.262,multiplicationStroop,2021.2.3,Win32,52.49343832,,,,,,,,,,,,,,,,,,,,,,,,,,,,,,,,,,,,,,,,,,,,,,,,,,,,,,,,,
,,,,left,1,0.3351,1,8,24,5,1,7,-200,left,795,2022-01-17_09h08.01.262,multiplicationStroop,2021.2.3,Win32,52.49343832,,,,,,,,,,,,,,,,,,,,,,,,,,,,,,,,,,,,,,,,,,,,,,,,,,,,,,,,,
,,,,right,1,0.3063,1,9,25,10,1,3,200,right,795,2022-01-17_09h08.01.262,multiplicationStroop,2021.2.3,Win32,52.49343832,,,,,,,,,,,,,,,,,,,,,,,,,,,,,,,,,,,,,,,,,,,,,,,,,,,,,,,,,
,,,,left,1,0.5312,1,10,26,0,1,1,-200,left,795,2022-01-17_09h08.01.262,multiplicationStroop,2021.2.3,Win32,52.49343832,,,,,,,,,,,,,,,,,,,,,,,,,,,,,,,,,,,,,,,,,,,,,,,,,,,,,,,,,
,,,,right,1,0.9092,1,11,27,9,1,2,200,right,795,2022-01-17_09h08.01.262,multiplicationStroop,2021.2.3,Win32,52.49343832,,,,,,,,,,,,,,,,,,,,,,,,,,,,,,,,,,,,,,,,,,,,,,,,,,,,,,,,,
,,,,right,1,0.5565,1,12,28,15,1,9,200,right,795,2022-01-17_09h08.01.262,multiplicationStroop,2021.2.3,Win32,52.49343832,,,,,,,,,,,,,,,,,,,,,,,,,,,,,,,,,,,,,,,,,,,,,,,,,,,,,,,,,
,,,,left,1,0.3035,1,13,29,6,1,8,-200,left,795,2022-01-17_09h08.01.262,multiplicationStroop,2021.2.3,Win32,52.49343832,,,,,,,,,,,,,,,,,,,,,,,,,,,,,,,,,,,,,,,,,,,,,,,,,,,,,,,,,
,,,,right,1,0.2907,1,14,30,8,1,1,200,right,795,2022-01-17_09h08.01.262,multiplicationStroop,2021.2.3,Win32,52.49343832,,,,,,,,,,,,,,,,,,,,,,,,,,,,,,,,,,,,,,,,,,,,,,,,,,,,,,,,,
,,,,left,1,0.2968,1,15,31,2,1,3,-200,left,795,2022-01-17_09h08.01.262,multiplicationStroop,2021.2.3,Win32,52.49343832,,,,,,,,,,,,,,,,,,,,,,,,,,,,,,,,,,,,,,,,,,,,,,,,,,,,,,,,,
,,,,left,0,0.5098,2,0,32,9,1,2,200,right,795,2022-01-17_09h08.01.262,multiplicationStroop,2021.2.3,Win32,52.49343832,,,,,,,,,,,,,,,,,,,,,,,,,,,,,,,,,,,,,,,,,,,,,,,,,,,,,,,,,
,,,,left,1,0.4411,2,1,33,7,1,9,-200,left,795,2022-01-17_09h08.01.262,multiplicationStroop,2021.2.3,Win32,52.49343832,,,,,,,,,,,,,,,,,,,,,,,,,,,,,,,,,,,,,,,,,,,,,,,,,,,,,,,,,
,,,,left,1,0.363,2,2,34,4,1,6,-200,left,795,2022-01-17_09h08.01.262,multiplicationStroop,2021.2.3,Win32,52.49343832,,,,,,,,,,,,,,,,,,,,,,,,,,,,,,,,,,,,,,,,,,,,,,,,,,,,,,,,,
,,,,left,1,0.2922,2,3,35,3,1,4,-200,left,795,2022-01-17_09h08.01.262,multiplicationStroop,2021.2.3,Win32,52.49343832,,,,,,,,,,,,,,,,,,,,,,,,,,,,,,,,,,,,,,,,,,,,,,,,,,,,,,,,,
,,,,right,1,0.3109,2,4,36,8,1,1,200,right,795,2022-01-17_09h08.01.262,multiplicationStroop,2021.2.3,Win32,52.49343832,,,,,,,,,,,,,,,,,,,,,,,,,,,,,,,,,,,,,,,,,,,,,,,,,,,,,,,,,
,,,,left,1,0.2582,2,5,37,5,1,7,-200,left,795,2022-01-17_09h08.01.262,multiplicationStroop,2021.2.3,Win32,52.49343832,,,,,,,,,,,,,,,,,,,,,,,,,,,,,,,,,,,,,,,,,,,,,,,,,,,,,,,,,
,,,,right,1,0.2567,2,6,38,15,1,9,200,right,795,2022-01-17_09h08.01.262,multiplicationStroop,2021.2.3,Win32,52.49343832,,,,,,,,,,,,,,,,,,,,,,,,,,,,,,,,,,,,,,,,,,,,,,,,,,,,,,,,,
,,,,left,1,0.2925,2,7,39,1,1,2,-200,left,795,2022-01-17_09h08.01.262,multiplicationStroop,2021.2.3,Win32,52.49343832,,,,,,,,,,,,,,,,,,,,,,,,,,,,,,,,,,,,,,,,,,,,,,,,,,,,,,,,,
,,,,left,1,0.2568,2,8,40,6,1,8,-200,left,795,2022-01-17_09h08.01.262,multiplicationStroop,2021.2.3,Win32,52.49343832,,,,,,,,,,,,,,,,,,,,,,,,,,,,,,,,,,,,,,,,,,,,,,,,,,,,,,,,,
,,,,left,1,0.2812,2,9,41,0,1,1,-200,left,795,2022-01-17_09h08.01.262,multiplicationStroop,2021.2.3,Win32,52.49343832,,,,,,,,,,,,,,,,,,,,,,,,,,,,,,,,,,,,,,,,,,,,,,,,,,,,,,,,,
,,,,right,1,0.2661,2,10,42,12,1,6,200,right,795,2022-01-17_09h08.01.262,multiplicationStroop,2021.2.3,Win32,52.49343832,,,,,,,,,,,,,,,,,,,,,,,,,,,,,,,,,,,,,,,,,,,,,,,,,,,,,,,,,
,,,,right,1,0.3074,2,11,43,11,1,4,200,right,795,2022-01-17_09h08.01.262,multiplicationStroop,2021.2.3,Win32,52.49343832,,,,,,,,,,,,,,,,,,,,,,,,,,,,,,,,,,,,,,,,,,,,,,,,,,,,,,,,,
,,,,right,1,0.2579,2,12,44,13,1,7,200,right,795,2022-01-17_09h08.01.262,multiplicationStroop,2021.2.3,Win32,52.49343832,,,,,,,,,,,,,,,,,,,,,,,,,,,,,,,,,,,,,,,,,,,,,,,,,,,,,,,,,
,,,,right,1,0.2238,2,13,45,14,1,8,200,right,795,2022-01-17_09h08.01.262,multiplicationStroop,2021.2.3,Win32,52.49343832,,,,,,,,,,,,,,,,,,,,,,,,,,,,,,,,,,,,,,,,,,,,,,,,,,,,,,,,,
,,,,right,1,0.3189,2,14,46,10,1,3,200,right,795,2022-01-17_09h08.01.262,multiplicationStroop,2021.2.3,Win32,52.49343832,,,,,,,,,,,,,,,,,,,,,,,,,,,,,,,,,,,,,,,,,,,,,,,,,,,,,,,,,
,,,,left,1,0.2922,2,15,47,2,1,3,-200,left,795,2022-01-17_09h08.01.262,multiplicationStroop,2021.2.3,Win32,52.49343832,,,,,,,,,,,,,,,,,,,,,,,,,,,,,,,,,,,,,,,,,,,,,,,,,,,,,,,,,
,,,,right,1,0.2427,3,0,48,11,1,4,200,right,795,2022-01-17_09h08.01.262,multiplicationStroop,2021.2.3,Win32,52.49343832,,,,,,,,,,,,,,,,,,,,,,,,,,,,,,,,,,,,,,,,,,,,,,,,,,,,,,,,,
,,,,left,1,0.2185,3,1,49,2,1,3,-200,left,795,2022-01-17_09h08.01.262,multiplicationStroop,2021.2.3,Win32,52.49343832,,,,,,,,,,,,,,,,,,,,,,,,,,,,,,,,,,,,,,,,,,,,,,,,,,,,,,,,,
,,,,right,1,0.298,3,2,50,8,1,1,200,right,795,2022-01-17_09h08.01.262,multiplicationStroop,2021.2.3,Win32,52.49343832,,,,,,,,,,,,,,,,,,,,,,,,,,,,,,,,,,,,,,,,,,,,,,,,,,,,,,,,,
,,,,right,1,0.2777,3,3,51,10,1,3,200,right,795,2022-01-17_09h08.01.262,multiplicationStroop,2021.2.3,Win32,52.49343832,,,,,,,,,,,,,,,,,,,,,,,,,,,,,,,,,,,,,,,,,,,,,,,,,,,,,,,,,
,,,,right,1,0.2677,3,4,52,12,1,6,200,right,795,2022-01-17_09h08.01.262,multiplicationStroop,2021.2.3,Win32,52.49343832,,,,,,,,,,,,,,,,,,,,,,,,,,,,,,,,,,,,,,,,,,,,,,,,,,,,,,,,,
,,,,right,1,0.256,3,5,53,9,1,2,200,right,795,2022-01-17_09h08.01.262,multiplicationStroop,2021.2.3,Win32,52.49343832,,,,,,,,,,,,,,,,,,,,,,,,,,,,,,,,,,,,,,,,,,,,,,,,,,,,,,,,,
,,,,left,1,0.2906,3,6,54,4,1,6,-200,left,795,2022-01-17_09h08.01.262,multiplicationStroop,2021.2.3,Win32,52.49343832,,,,,,,,,,,,,,,,,,,,,,,,,,,,,,,,,,,,,,,,,,,,,,,,,,,,,,,,,
,,,,right,1,0.223,3,7,55,13,1,7,200,right,795,2022-01-17_09h08.01.262,multiplicationStroop,2021.2.3,Win32,52.49343832,,,,,,,,,,,,,,,,,,,,,,,,,,,,,,,,,,,,,,,,,,,,,,,,,,,,,,,,,
,,,,right,1,0.3322,3,8,56,14,1,8,200,right,795,2022-01-17_09h08.01.262,multiplicationStroop,2021.2.3,Win32,52.49343832,,,,,,,,,,,,,,,,,,,,,,,,,,,,,,,,,,,,,,,,,,,,,,,,,,,,,,,,,
,,,,right,0,0.2423,3,9,57,0,1,1,-200,left,795,2022-01-17_09h08.01.262,multiplicationStroop,2021.2.3,Win32,52.49343832,,,,,,,,,,,,,,,,,,,,,,,,,,,,,,,,,,,,,,,,,,,,,,,,,,,,,,,,,
,,,,left,1,0.4006,3,10,58,6,1,8,-200,left,795,2022-01-17_09h08.01.262,multiplicationStroop,2021.2.3,Win32,52.49343832,,,,,,,,,,,,,,,,,,,,,,,,,,,,,,,,,,,,,,,,,,,,,,,,,,,,,,,,,
,,,,left,1,0.3123,3,11,59,7,1,9,-200,left,795,2022-01-17_09h08.01.262,multiplicationStroop,2021.2.3,Win32,52.49343832,,,,,,,,,,,,,,,,,,,,,,,,,,,,,,,,,,,,,,,,,,,,,,,,,,,,,,,,,
,,,,left,1,0.2505,3,12,60,5,1,7,-200,left,795,2022-01-17_09h08.01.262,multiplicationStroop,2021.2.3,Win32,52.49343832,,,,,,,,,,,,,,,,,,,,,,,,,,,,,,,,,,,,,,,,,,,,,,,,,,,,,,,,,
,,,,left,1,0.2753,3,13,61,3,1,4,-200,left,795,2022-01-17_09h08.01.262,multiplicationStroop,2021.2.3,Win32,52.49343832,,,,,,,,,,,,,,,,,,,,,,,,,,,,,,,,,,,,,,,,,,,,,,,,,,,,,,,,,
,,,,right,1,0.4863,3,14,62,15,1,9,200,right,795,2022-01-17_09h08.01.262,multiplicationStroop,2021.2.3,Win32,52.49343832,,,,,,,,,,,,,,,,,,,,,,,,,,,,,,,,,,,,,,,,,,,,,,,,,,,,,,,,,
,,,,right,0,0.2776,3,15,63,1,1,2,-200,left,795,2022-01-17_09h08.01.262,multiplicationStroop,2021.2.3,Win32,52.49343832,,,,,,,,,,,,,,,,,,,,,,,,,,stimulusFile/physical.xlsx,,,,,,,,,,,,,,,,,,,,,,,,,,,,,,,
,,,,,,,,,,,,,,,795,2022-01-17_09h08.01.262,multiplicationStroop,2021.2.3,Win32,52.49343832,space,11.5859,space,3.0617,right,1,0.5241,0,0,0,56,1,1,1,1 | 1,0,1.4111,1.9756,neutral,right,,,,,,stimulusFile/physical.xlsx,,,,,,,,,,,,,,,,,,,,,,,,,,,,,,,
,,,,,,,,,,,,,,,795,2022-01-17_09h08.01.262,multiplicationStroop,2021.2.3,Win32,52.49343832,,,,,right,1,0.4105,0,1,1,60,1,3,3,3 | 3,0,1.4111,1.9756,neutral,right,,,,,,stimulusFile/physical.xlsx,,,,,,,,,,,,,,,,,,,,,,,,,,,,,,,
,,,,,,,,,,,,,,,795,2022-01-17_09h08.01.262,multiplicationStroop,2021.2.3,Win32,52.49343832,,,,,right,1,0.5854,0,2,2,65,1,2,2,2 | 2,0,1.4111,1.9756,neutral,right,,,,,,stimulusFile/physical.xlsx,,,,,,,,,,,,,,,,,,,,,,,,,,,,,,,
,,,,,,,,,,,,,,,795,2022-01-17_09h08.01.262,multiplicationStroop,2021.2.3,Win32,52.49343832,,,,,left,1,0.4536,0,3,3,24,1,1,2,1 | 2,1,1.9756,1.4111,incongruent,left,,,,,,stimulusFile/physical.xlsx,,,,,,,,,,,,,,,,,,,,,,,,,,,,,,,
,,,,,,,,,,,,,,,795,2022-01-17_09h08.01.262,multiplicationStroop,2021.2.3,Win32,52.49343832,,,,,right,1,0.4436,0,4,4,39,1,9,7,9 | 7,2,1.4111,1.9756,incongruent,right,,,,,,stimulusFile/physical.xlsx,,,,,,,,,,,,,,,,,,,,,,,,,,,,,,,
,,,,,,,,,,,,,,,795,2022-01-17_09h08.01.262,multiplicationStroop,2021.2.3,Win32,52.49343832,,,,,left,0,0.4156,0,5,5,64,1,1,1,1 | 1,0,1.9756,1.4111,neutral,right,,,,,,stimulusFile/physical.xlsx,,,,,,,,,,,,,,,,,,,,,,,,,,,,,,,
,,,,,,,,,,,,,,,795,2022-01-17_09h08.01.262,multiplicationStroop,2021.2.3,Win32,52.49343832,,,,,right,1,0.3502,0,6,6,1,1,3,4,3 | 4,1,1.4111,1.9756,congruent,right,,,,,,stimulusFile/physical.xlsx,,,,,,,,,,,,,,,,,,,,,,,,,,,,,,,
,,,,,,,,,,,,,,,795,2022-01-17_09h08.01.262,multiplicationStroop,2021.2.3,Win32,52.49343832,,,,,right,1,0.4838,0,7,7,29,1,4,3,4 | 3,1,1.4111,1.9756,incongruent,right,,,,,,stimulusFile/physical.xlsx,,,,,,,,,,,,,,,,,,,,,,,,,,,,,,,
,,,,,,,,,,,,,,,795,2022-01-17_09h08.01.262,multiplicationStroop,2021.2.3,Win32,52.49343832,,,,,left,1,0.3814,0,8,8,5,1,4,3,4 | 3,1,1.9756,1.4111,congruent,left,,,,,,stimulusFile/physical.xlsx,,,,,,,,,,,,,,,,,,,,,,,,,,,,,,,
,,,,,,,,,,,,,,,795,2022-01-17_09h08.01.262,multiplicationStroop,2021.2.3,Win32,52.49343832,,,,,right,0,0.3899,0,9,9,71,1,9,9,9 | 9,0,1.4111,1.9756,neutral,left,,,,,,stimulusFile/physical.xlsx,,,,,,,,,,,,,,,,,,,,,,,,,,,,,,,
,,,,,,,,,,,,,,,795,2022-01-17_09h08.01.262,multiplicationStroop,2021.2.3,Win32,52.49343832,,,,,left,1,0.4995,0,10,10,33,1,2,4,2 | 4,2,1.9756,1.4111,incongruent,left,,,,,,stimulusFile/physical.xlsx,,,,,,,,,,,,,,,,,,,,,,,,,,,,,,,
,,,,,,,,,,,,,,,795,2022-01-17_09h08.01.262,multiplicationStroop,2021.2.3,Win32,52.49343832,,,,,right,1,0.3662,0,11,11,19,1,4,9,4 | 9,5,1.4111,1.9756,congruent,right,,,,,,stimulusFile/physical.xlsx,,,,,,,,,,,,,,,,,,,,,,,,,,,,,,,
,,,,,,,,,,,,,,,795,2022-01-17_09h08.01.262,multiplicationStroop,2021.2.3,Win32,52.49343832,,,,,right,1,0.4331,0,12,12,17,1,2,7,2 | 7,5,1.4111,1.9756,congruent,right,,,,,,stimulusFile/physical.xlsx,,,,,,,,,,,,,,,,,,,,,,,,,,,,,,,
,,,,,,,,,,,,,,,795,2022-01-17_09h08.01.262,multiplicationStroop,2021.2.3,Win32,52.49343832,,,,,left,1,0.4064,0,13,13,21,1,7,2,7 | 2,5,1.9756,1.4111,congruent,left,,,,,,stimulusFile/physical.xlsx,,,,,,,,,,,,,,,,,,,,,,,,,,,,,,,
,,,,,,,,,,,,,,,795,2022-01-17_09h08.01.262,multiplicationStroop,2021.2.3,Win32,52.49343832,,,,,left,1,0.5748,0,14,14,41,1,2,7,2 | 7,5,1.9756,1.4111,incongruent,left,,,,,,stimulusFile/physical.xlsx,,,,,,,,,,,,,,,,,,,,,,,,,,,,,,,
,,,,,,,,,,,,,,,795,2022-01-17_09h08.01.262,multiplicationStroop,2021.2.3,Win32,52.49343832,,,,,left,1,0.433,0,15,15,53,1,4,4,4 | 4,0,1.9756,1.4111,neutral,left,,,,,,stimulusFile/physical.xlsx,,,,,,,,,,,,,,,,,,,,,,,,,,,,,,,
,,,,,,,,,,,,,,,795,2022-01-17_09h08.01.262,multiplicationStroop,2021.2.3,Win32,52.49343832,,,,,left,1,0.5009,0,16,16,7,1,9,8,9 | 8,1,1.9756,1.4111,congruent,left,,,,,,stimulusFile/physical.xlsx,,,,,,,,,,,,,,,,,,,,,,,,,,,,,,,
,,,,,,,,,,,,,,,795,2022-01-17_09h08.01.262,multiplicationStroop,2021.2.3,Win32,52.49343832,,,,,left,1,1.0441,0,17,17,22,1,8,3,8 | 3,5,1.9756,1.4111,congruent,left,,,,,,stimulusFile/physical.xlsx,,,,,,,,,,,,,,,,,,,,,,,,,,,,,,,
,,,,,,,,,,,,,,,795,2022-01-17_09h08.01.262,multiplicationStroop,2021.2.3,Win32,52.49343832,,,,,right,1,0.5435,0,18,18,38,1,8,6,8 | 6,2,1.4111,1.9756,incongruent,right,,,,,,stimulusFile/physical.xlsx,,,,,,,,,,,,,,,,,,,,,,,,,,,,,,,
,,,,,,,,,,,,,,,795,2022-01-17_09h08.01.262,multiplicationStroop,2021.2.3,Win32,52.49343832,,,,,left,1,0.4276,0,19,19,32,1,1,3,1 | 3,2,1.9756,1.4111,incongruent,left,,,,,,stimulusFile/physical.xlsx,,,,,,,,,,,,,,,,,,,,,,,,,,,,,,,
,,,,,,,,,,,,,,,795,2022-01-17_09h08.01.262,multiplicationStroop,2021.2.3,Win32,52.49343832,,,,,right,0,0.6287,0,20,20,27,1,8,9,8 | 9,1,1.9756,1.4111,incongruent,left,,,,,,stimulusFile/physical.xlsx,,,,,,,,,,,,,,,,,,,,,,,,,,,,,,,
,,,,,,,,,,,,,,,795,2022-01-17_09h08.01.262,multiplicationStroop,2021.2.3,Win32,52.49343832,,,,,left,1,0.4758,0,21,21,23,1,9,4,9 | 4,5,1.9756,1.4111,congruent,left,,,,,,stimulusFile/physical.xlsx,,,,,,,,,,,,,,,,,,,,,,,,,,,,,,,
,,,,,,,,,,,,,,,795,2022-01-17_09h08.01.262,multiplicationStroop,2021.2.3,Win32,52.49343832,,,,,left,1,0.553,0,22,22,50,1,6,6,6 | 6,0,1.9756,1.4111,neutral,left,,,,,,stimulusFile/physical.xlsx,,,,,,,,,,,,,,,,,,,,,,,,,,,,,,,
,,,,,,,,,,,,,,,795,2022-01-17_09h08.01.262,multiplicationStroop,2021.2.3,Win32,52.49343832,,,,,left,1,0.4669,0,23,23,54,1,7,7,7 | 7,0,1.9756,1.4111,neutral,left,,,,,,stimulusFile/physical.xlsx,,,,,,,,,,,,,,,,,,,,,,,,,,,,,,,
,,,,,,,,,,,,,,,795,2022-01-17_09h08.01.262,multiplicationStroop,2021.2.3,Win32,52.49343832,,,,,right,1,0.4694,0,24,24,31,1,9,8,9 | 8,1,1.4111,1.9756,incongruent,right,,,,,,stimulusFile/physical.xlsx,,,,,,,,,,,,,,,,,,,,,,,,,,,,,,,
,,,,,,,,,,,,,,,795,2022-01-17_09h08.01.262,multiplicationStroop,2021.2.3,Win32,52.49343832,,,,,right,1,0.4432,0,25,25,11,1,7,9,7 | 9,2,1.4111,1.9756,congruent,right,,,,,,stimulusFile/physical.xlsx,,,,,,,,,,,,,,,,,,,,,,,,,,,,,,,
,,,,,,,,,,,,,,,795,2022-01-17_09h08.01.262,multiplicationStroop,2021.2.3,Win32,52.49343832,,,,,left,1,0.4553,0,26,26,70,1,8,8,8 | 8,0,1.9756,1.4111,neutral,left,,,,,,stimulusFile/physical.xlsx,,,,,,,,,,,,,,,,,,,,,,,,,,,,,,,
,,,,,,,,,,,,,,,795,2022-01-17_09h08.01.262,multiplicationStroop,2021.2.3,Win32,52.49343832,,,,,right,1,0.6175,0,27,27,45,1,7,2,7 | 2,5,1.4111,1.9756,incongruent,right,,,,,,stimulusFile/physical.xlsx,,,,,,,,,,,,,,,,,,,,,,,,,,,,,,,
,,,,,,,,,,,,,,,795,2022-01-17_09h08.01.262,multiplicationStroop,2021.2.3,Win32,52.49343832,,,,,left,1,0.5034,0,28,28,68,1,6,6,6 | 6,0,1.9756,1.4111,neutral,left,,,,,,stimulusFile/physical.xlsx,,,,,,,,,,,,,,,,,,,,,,,,,,,,,,,
,,,,,,,,,,,,,,,795,2022-01-17_09h08.01.262,multiplicationStroop,2021.2.3,Win32,52.49343832,,,,,left,1,0.6162,0,29,29,48,1,1,1,1 | 1,0,1.9756,1.4111,neutral,left,,,,,,stimulusFile/physical.xlsx,,,,,,,,,,,,,,,,,,,,,,,,,,,,,,,
,,,,,,,,,,,,,,,795,2022-01-17_09h08.01.262,multiplicationStroop,2021.2.3,Win32,52.49343832,,,,,left,1,0.4004,0,30,30,12,1,3,1,3 | 1,2,1.9756,1.4111,congruent,left,,,,,,stimulusFile/physical.xlsx,,,,,,,,,,,,,,,,,,,,,,,,,,,,,,,
,,,,,,,,,,,,,,,795,2022-01-17_09h08.01.262,multiplicationStroop,2021.2.3,Win32,52.49343832,,,,,right,1,0.4717,0,31,31,37,1,4,2,4 | 2,2,1.4111,1.9756,incongruent,right,,,,,,stimulusFile/physical.xlsx,,,,,,,,,,,,,,,,,,,,,,,,,,,,,,,
,,,,,,,,,,,,,,,795,2022-01-17_09h08.01.262,multiplicationStroop,2021.2.3,Win32,52.49343832,,,,,left,1,0.4541,0,32,32,15,1,9,7,9 | 7,2,1.9756,1.4111,congruent,left,,,,,,stimulusFile/physical.xlsx,,,,,,,,,,,,,,,,,,,,,,,,,,,,,,,
,,,,,,,,,,,,,,,795,2022-01-17_09h08.01.262,multiplicationStroop,2021.2.3,Win32,52.49343832,,,,,left,1,0.6023,0,33,33,43,1,4,9,4 | 9,5,1.9756,1.4111,incongruent,left,,,,,,stimulusFile/physical.xlsx,,,,,,,,,,,,,,,,,,,,,,,,,,,,,,,
,,,,,,,,,,,,,,,795,2022-01-17_09h08.01.262,multiplicationStroop,2021.2.3,Win32,52.49343832,,,,,right,0,0.495,0,34,34,69,1,7,7,7 | 7,0,1.4111,1.9756,neutral,left,,,,,,stimulusFile/physical.xlsx,,,,,,,,,,,,,,,,,,,,,,,,,,,,,,,
,,,,,,,,,,,,,,,795,2022-01-17_09h08.01.262,multiplicationStroop,2021.2.3,Win32,52.49343832,,,,,left,1,0.3919,0,35,35,4,1,2,1,2 | 1,1,1.9756,1.4111,congruent,left,,,,,,stimulusFile/physical.xlsx,,,,,,,,,,,,,,,,,,,,,,,,,,,,,,,
,,,,,,,,,,,,,,,795,2022-01-17_09h08.01.262,multiplicationStroop,2021.2.3,Win32,52.49343832,,,,,left,1,0.483,0,36,36,34,1,6,8,6 | 8,2,1.9756,1.4111,incongruent,left,,,,,,stimulusFile/physical.xlsx,,,,,,,,,,,,,,,,,,,,,,,,,,,,,,,
,,,,,,,,,,,,,,,795,2022-01-17_09h08.01.262,multiplicationStroop,2021.2.3,Win32,52.49343832,,,,,left,1,0.5826,0,37,37,35,1,7,9,7 | 9,2,1.9756,1.4111,incongruent,left,,,,,,stimulusFile/physical.xlsx,,,,,,,,,,,,,,,,,,,,,,,,,,,,,,,
,,,,,,,,,,,,,,,795,2022-01-17_09h08.01.262,multiplicationStroop,2021.2.3,Win32,52.49343832,,,,,left,1,0.4586,0,38,38,55,1,9,9,9 | 9,0,1.9756,1.4111,neutral,left,,,,,,stimulusFile/physical.xlsx,,,,,,,,,,,,,,,,,,,,,,,,,,,,,,,
,,,,,,,,,,,,,,,795,2022-01-17_09h08.01.262,multiplicationStroop,2021.2.3,Win32,52.49343832,,,,,right,1,0.4285,0,39,39,8,1,1,3,1 | 3,2,1.4111,1.9756,congruent,right,,,,,,stimulusFile/physical.xlsx,,,,,,,,,,,,,,,,,,,,,,,,,,,,,,,
,,,,,,,,,,,,,,,795,2022-01-17_09h08.01.262,multiplicationStroop,2021.2.3,Win32,52.49343832,,,,,right,1,0.4499,0,40,40,16,1,1,6,1 | 6,5,1.4111,1.9756,congruent,right,,,,,,stimulusFile/physical.xlsx,,,,,,,,,,,,,,,,,,,,,,,,,,,,,,,
,,,,,,,,,,,,,,,795,2022-01-17_09h08.01.262,multiplicationStroop,2021.2.3,Win32,52.49343832,,,,,right,1,0.533,0,41,41,36,1,3,1,3 | 1,2,1.4111,1.9756,incongruent,right,,,,,,stimulusFile/physical.xlsx,,,,,,,,,,,,,,,,,,,,,,,,,,,,,,,
,,,,,,,,,,,,,,,795,2022-01-17_09h08.01.262,multiplicationStroop,2021.2.3,Win32,52.49343832,,,,,left,1,0.7866,0,42,42,52,1,2,2,2 | 2,0,1.9756,1.4111,neutral,left,,,,,,stimulusFile/physical.xlsx,,,,,,,,,,,,,,,,,,,,,,,,,,,,,,,
,,,,,,,,,,,,,,,795,2022-01-17_09h08.01.262,multiplicationStroop,2021.2.3,Win32,52.49343832,,,,,right,0,0.4378,0,43,43,25,1,3,4,3 | 4,1,1.9756,1.4111,incongruent,left,,,,,,stimulusFile/physical.xlsx,,,,,,,,,,,,,,,,,,,,,,,,,,,,,,,
,,,,,,,,,,,,,,,795,2022-01-17_09h08.01.262,multiplicationStroop,2021.2.3,Win32,52.49343832,,,,,right,1,0.6042,0,44,44,67,1,4,4,4 | 4,0,1.4111,1.9756,neutral,right,,,,,,stimulusFile/physical.xlsx,,,,,,,,,,,,,,,,,,,,,,,,,,,,,,,
,,,,,,,,,,,,,,,795,2022-01-17_09h08.01.262,multiplicationStroop,2021.2.3,Win32,52.49343832,,,,,right,1,0.5489,0,45,45,62,1,8,8,8 | 8,0,1.4111,1.9756,neutral,right,,,,,,stimulusFile/physical.xlsx,,,,,,,,,,,,,,,,,,,,,,,,,,,,,,,
,,,,,,,,,,,,,,,795,2022-01-17_09h08.01.262,multiplicationStroop,2021.2.3,Win32,52.49343832,,,,,right,1,0.5417,0,46,46,63,1,9,9,9 | 9,0,1.4111,1.9756,neutral,right,,,,,,stimulusFile/physical.xlsx,,,,,,,,,,,,,,,,,,,,,,,,,,,,,,,
,,,,,,,,,,,,,,,795,2022-01-17_09h08.01.262,multiplicationStroop,2021.2.3,Win32,52.49343832,,,,,right,1,0.4521,0,47,47,3,1,8,9,8 | 9,1,1.4111,1.9756,congruent,right,,,,,,stimulusFile/physical.xlsx,,,,,,,,,,,,,,,,,,,,,,,,,,,,,,,
,,,,,,,,,,,,,,,795,2022-01-17_09h08.01.262,multiplicationStroop,2021.2.3,Win32,52.49343832,,,,,right,1,0.3411,0,48,48,46,1,8,3,8 | 3,5,1.4111,1.9756,incongruent,right,,,,,,stimulusFile/physical.xlsx,,,,,,,,,,,,,,,,,,,,,,,,,,,,,,,
,,,,,,,,,,,,,,,795,2022-01-17_09h08.01.262,multiplicationStroop,2021.2.3,Win32,52.49343832,,,,,left,1,0.6065,0,49,49,6,1,7,6,7 | 6,1,1.9756,1.4111,congruent,left,,,,,,stimulusFile/physical.xlsx,,,,,,,,,,,,,,,,,,,,,,,,,,,,,,,
,,,,,,,,,,,,,,,795,2022-01-17_09h08.01.262,multiplicationStroop,2021.2.3,Win32,52.49343832,,,,,right,1,0.4165,0,50,50,10,1,6,8,6 | 8,2,1.4111,1.9756,congruent,right,,,,,,stimulusFile/physical.xlsx,,,,,,,,,,,,,,,,,,,,,,,,,,,,,,,
,,,,,,,,,,,,,,,795,2022-01-17_09h08.01.262,multiplicationStroop,2021.2.3,Win32,52.49343832,,,,,left,1,0.4991,0,51,51,26,1,6,7,6 | 7,1,1.9756,1.4111,incongruent,left,,,,,,stimulusFile/physical.xlsx,,,,,,,,,,,,,,,,,,,,,,,,,,,,,,,
,,,,,,,,,,,,,,,795,2022-01-17_09h08.01.262,multiplicationStroop,2021.2.3,Win32,52.49343832,,,,,right,1,0.4354,0,52,52,9,1,2,4,2 | 4,2,1.4111,1.9756,congruent,right,,,,,,stimulusFile/physical.xlsx,,,,,,,,,,,,,,,,,,,,,,,,,,,,,,,
,,,,,,,,,,,,,,,795,2022-01-17_09h08.01.262,multiplicationStroop,2021.2.3,Win32,52.49343832,,,,,left,0,0.4331,0,53,53,28,1,2,1,2 | 1,1,1.4111,1.9756,incongruent,right,,,,,,stimulusFile/physical.xlsx,,,,,,,,,,,,,,,,,,,,,,,,,,,,,,,
,,,,,,,,,,,,,,,795,2022-01-17_09h08.01.262,multiplicationStroop,2021.2.3,Win32,52.49343832,,,,,right,1,0.5554,0,54,54,47,1,9,4,9 | 4,5,1.4111,1.9756,incongruent,right,,,,,,stimulusFile/physical.xlsx,,,,,,,,,,,,,,,,,,,,,,,,,,,,,,,
,,,,,,,,,,,,,,,795,2022-01-17_09h08.01.262,multiplicationStroop,2021.2.3,Win32,52.49343832,,,,,right,1,0.5337,0,55,55,0,1,1,2,1 | 2,1,1.4111,1.9756,congruent,right,,,,,,stimulusFile/physical.xlsx,,,,,,,,,,,,,,,,,,,,,,,,,,,,,,,
,,,,,,,,,,,,,,,795,2022-01-17_09h08.01.262,multiplicationStroop,2021.2.3,Win32,52.49343832,,,,,left,1,0.4583,0,56,56,49,1,3,3,3 | 3,0,1.9756,1.4111,neutral,left,,,,,,stimulusFile/physical.xlsx,,,,,,,,,,,,,,,,,,,,,,,,,,,,,,,
,,,,,,,,,,,,,,,795,2022-01-17_09h08.01.262,multiplicationStroop,2021.2.3,Win32,52.49343832,,,,,right,1,0.4933,0,57,57,61,1,4,4,4 | 4,0,1.4111,1.9756,neutral,right,,,,,,stimulusFile/physical.xlsx,,,,,,,,,,,,,,,,,,,,,,,,,,,,,,,
,,,,,,,,,,,,,,,795,2022-01-17_09h08.01.262,multiplicationStroop,2021.2.3,Win32,52.49343832,,,,,right,1,0.4667,0,58,58,18,1,3,8,3 | 8,5,1.4111,1.9756,congruent,right,,,,,,stimulusFile/physical.xlsx,,,,,,,,,,,,,,,,,,,,,,,,,,,,,,,
,,,,,,,,,,,,,,,795,2022-01-17_09h08.01.262,multiplicationStroop,2021.2.3,Win32,52.49343832,,,,,right,1,0.4619,0,59,59,30,1,7,6,7 | 6,1,1.4111,1.9756,incongruent,right,,,,,,stimulusFile/physical.xlsx,,,,,,,,,,,,,,,,,,,,,,,,,,,,,,,
,,,,,,,,,,,,,,,795,2022-01-17_09h08.01.262,multiplicationStroop,2021.2.3,Win32,52.49343832,,,,,left,1,0.4673,0,60,60,20,1,6,1,6 | 1,5,1.9756,1.4111,congruent,left,,,,,,stimulusFile/physical.xlsx,,,,,,,,,,,,,,,,,,,,,,,,,,,,,,,
,,,,,,,,,,,,,,,795,2022-01-17_09h08.01.262,multiplicationStroop,2021.2.3,Win32,52.49343832,,,,,left,1,0.5074,0,61,61,51,1,8,8,8 | 8,0,1.9756,1.4111,neutral,left,,,,,,stimulusFile/physical.xlsx,,,,,,,,,,,,,,,,,,,,,,,,,,,,,,,
,,,,,,,,,,,,,,,795,2022-01-17_09h08.01.262,multiplicationStroop,2021.2.3,Win32,52.49343832,,,,,right,1,1.1657,0,62,62,58,1,6,6,6 | 6,0,1.4111,1.9756,neutral,right,,,,,,stimulusFile/physical.xlsx,,,,,,,,,,,,,,,,,,,,,,,,,,,,,,,
,,,,,,,,,,,,,,,795,2022-01-17_09h08.01.262,multiplicationStroop,2021.2.3,Win32,52.49343832,,,,,right,1,0.4902,0,63,63,44,1,6,1,6 | 1,5,1.4111,1.9756,incongruent,right,,,,,,stimulusFile/physical.xlsx,,,,,,,,,,,,,,,,,,,,,,,,,,,,,,,
,,,,,,,,,,,,,,,795,2022-01-17_09h08.01.262,multiplicationStroop,2021.2.3,Win32,52.49343832,,,,,left,1,0.4496,0,64,64,14,1,8,6,8 | 6,2,1.9756,1.4111,congruent,left,,,,,,stimulusFile/physical.xlsx,,,,,,,,,,,,,,,,,,,,,,,,,,,,,,,
,,,,,,,,,,,,,,,795,2022-01-17_09h08.01.262,multiplicationStroop,2021.2.3,Win32,52.49343832,,,,,right,1,0.4164,0,65,65,2,1,6,7,6 | 7,1,1.4111,1.9756,congruent,right,,,,,,stimulusFile/physical.xlsx,,,,,,,,,,,,,,,,,,,,,,,,,,,,,,,
,,,,,,,,,,,,,,,795,2022-01-17_09h08.01.262,multiplicationStroop,2021.2.3,Win32,52.49343832,,,,,left,1,0.5918,0,66,66,40,1,1,6,1 | 6,5,1.9756,1.4111,incongruent,left,,,,,,stimulusFile/physical.xlsx,,,,,,,,,,,,,,,,,,,,,,,,,,,,,,,
,,,,,,,,,,,,,,,795,2022-01-17_09h08.01.262,multiplicationStroop,2021.2.3,Win32,52.49343832,,,,,right,1,0.4333,0,67,67,57,1,2,2,2 | 2,0,1.4111,1.9756,neutral,right,,,,,,stimulusFile/physical.xlsx,,,,,,,,,,,,,,,,,,,,,,,,,,,,,,,
,,,,,,,,,,,,,,,795,2022-01-17_09h08.01.262,multiplicationStroop,2021.2.3,Win32,52.49343832,,,,,left,1,0.387,0,68,68,13,1,4,2,4 | 2,2,1.9756,1.4111,congruent,left,,,,,,stimulusFile/physical.xlsx,,,,,,,,,,,,,,,,,,,,,,,,,,,,,,,
,,,,,,,,,,,,,,,795,2022-01-17_09h08.01.262,multiplicationStroop,2021.2.3,Win32,52.49343832,,,,,right,1,0.3771,0,69,69,59,1,7,7,7 | 7,0,1.4111,1.9756,neutral,right,,,,,,stimulusFile/physical.xlsx,,,,,,,,,,,,,,,,,,,,,,,,,,,,,,,
,,,,,,,,,,,,,,,795,2022-01-17_09h08.01.262,multiplicationStroop,2021.2.3,Win32,52.49343832,,,,,left,1,0.6496,0,70,70,42,1,3,8,3 | 8,5,1.9756,1.4111,incongruent,left,,,,,,stimulusFile/physical.xlsx,,,,,,,,,,,,,,,,,,,,,,,,,,,,,,,
,,,,,,,,,,,,,,,795,2022-01-17_09h08.01.262,multiplicationStroop,2021.2.3,Win32,52.49343832,,,,,left,0,0.4886,0,71,71,66,1,3,3,3 | 3,0,1.9756,1.4111,neutral,right,,,,,,stimulusFile/physical.xlsx,,,,,,,,,,,,,,,,,,,,,,,,,,,,,,,
,,,,,,,,,,,,,,,795,2022-01-17_09h08.01.262,multiplicationStroop,2021.2.3,Win32,52.49343832,,,,,,,,,,,,,,,,,,,,,0,0,0,1,1,stimulusFile/physical.xlsx,PHYSICALLY larger (larger font size).,images/physicallyLarger.png,,,,,,,,,,,,,,,,,,,,,,,,,,,,,
,,,,,,,,,,,,,,,795,2022-01-17_09h08.01.262,multiplicationStroop,2021.2.3,Win32,52.49343832,space,3.2812,space,5.5196,left,1,0.8827,0,0,0,60,1,3,1,3 | 1,2,1.6933,1.6933,neutral,left,,,,,,stimulusFile/magnitude.xlsx,,,,,,,,,,,,,,,,,,,,,,,,,,,,,,,
,,,,,,,,,,,,,,,795,2022-01-17_09h08.01.262,multiplicationStroop,2021.2.3,Win32,52.49343832,,,,,left,1,0.4697,0,1,1,47,1,9,4,9 | 4,5,1.4111,1.9756,incongruent,left,,,,,,stimulusFile/magnitude.xlsx,,,,,,,,,,,,,,,,,,,,,,,,,,,,,,,
,,,,,,,,,,,,,,,795,2022-01-17_09h08.01.262,multiplicationStroop,2021.2.3,Win32,52.49343832,,,,,right,1,0.3669,0,2,2,8,1,1,3,1 | 3,2,1.4111,1.9756,congruent,right,,,,,,stimulusFile/magnitude.xlsx,,,,,,,,,,,,,,,,,,,,,,,,,,,,,,,
,,,,,,,,,,,,,,,795,2022-01-17_09h08.01.262,multiplicationStroop,2021.2.3,Win32,52.49343832,,,,,right,1,0.4175,0,3,3,11,1,7,9,7 | 9,2,1.4111,1.9756,congruent,right,,,,,,stimulusFile/magnitude.xlsx,,,,,,,,,,,,,,,,,,,,,,,,,,,,,,,
,,,,,,,,,,,,,,,795,2022-01-17_09h08.01.262,multiplicationStroop,2021.2.3,Win32,52.49343832,,,,,right,1,0.3474,0,4,4,0,1,1,2,1 | 2,1,1.4111,1.9756,congruent,right,,,,,,stimulusFile/magnitude.xlsx,,,,,,,,,,,,,,,,,,,,,,,,,,,,,,,
,,,,,,,,,,,,,,,795,2022-01-17_09h08.01.262,multiplicationStroop,2021.2.3,Win32,52.49343832,,,,,left,1,0.3509,0,5,5,52,1,2,1,2 | 1,1,1.6933,1.6933,neutral,left,,,,,,stimulusFile/magnitude.xlsx,,,,,,,,,,,,,,,,,,,,,,,,,,,,,,,
,,,,,,,,,,,,,,,795,2022-01-17_09h08.01.262,multiplicationStroop,2021.2.3,Win32,52.49343832,,,,,right,1,0.4685,0,6,6,17,1,2,7,2 | 7,5,1.4111,1.9756,congruent,right,,,,,,stimulusFile/magnitude.xlsx,,,,,,,,,,,,,,,,,,,,,,,,,,,,,,,
,,,,,,,,,,,,,,,795,2022-01-17_09h08.01.262,multiplicationStroop,2021.2.3,Win32,52.49343832,,,,,right,0,0.5167,0,7,7,30,1,7,6,7 | 6,1,1.4111,1.9756,incongruent,left,,,,,,stimulusFile/magnitude.xlsx,,,,,,,,,,,,,,,,,,,,,,,,,,,,,,,
,,,,,,,,,,,,,,,795,2022-01-17_09h08.01.262,multiplicationStroop,2021.2.3,Win32,52.49343832,,,,,right,1,0.6548,0,8,8,42,1,3,8,3 | 8,5,1.9756,1.4111,incongruent,right,,,,,,stimulusFile/magnitude.xlsx,,,,,,,,,,,,,,,,,,,,,,,,,,,,,,,
,,,,,,,,,,,,,,,795,2022-01-17_09h08.01.262,multiplicationStroop,2021.2.3,Win32,52.49343832,,,,,left,1,1.171,0,9,9,5,1,4,3,4 | 3,1,1.9756,1.4111,congruent,left,,,,,,stimulusFile/magnitude.xlsx,,,,,,,,,,,,,,,,,,,,,,,,,,,,,,,
,,,,,,,,,,,,,,,795,2022-01-17_09h08.01.262,multiplicationStroop,2021.2.3,Win32,52.49343832,,,,,left,1,0.5273,0,10,10,70,1,8,3,8 | 3,5,1.6933,1.6933,neutral,left,,,,,,stimulusFile/magnitude.xlsx,,,,,,,,,,,,,,,,,,,,,,,,,,,,,,,
,,,,,,,,,,,,,,,795,2022-01-17_09h08.01.262,multiplicationStroop,2021.2.3,Win32,52.49343832,,,,,right,1,0.4171,0,11,11,18,1,3,8,3 | 8,5,1.4111,1.9756,congruent,right,,,,,,stimulusFile/magnitude.xlsx,,,,,,,,,,,,,,,,,,,,,,,,,,,,,,,
,,,,,,,,,,,,,,,795,2022-01-17_09h08.01.262,multiplicationStroop,2021.2.3,Win32,52.49343832,,,,,right,1,0.374,0,12,12,10,1,6,8,6 | 8,2,1.4111,1.9756,congruent,right,,,,,,stimulusFile/magnitude.xlsx,,,,,,,,,,,,,,,,,,,,,,,,,,,,,,,
,,,,,,,,,,,,,,,795,2022-01-17_09h08.01.262,multiplicationStroop,2021.2.3,Win32,52.49343832,,,,,left,1,0.4446,0,13,13,21,1,7,2,7 | 2,5,1.9756,1.4111,congruent,left,,,,,,stimulusFile/magnitude.xlsx,,,,,,,,,,,,,,,,,,,,,,,,,,,,,,,
,,,,,,,,,,,,,,,795,2022-01-17_09h08.01.262,multiplicationStroop,2021.2.3,Win32,52.49343832,,,,,left,1,0.4216,0,14,14,23,1,9,4,9 | 4,5,1.9756,1.4111,congruent,left,,,,,,stimulusFile/magnitude.xlsx,,,,,,,,,,,,,,,,,,,,,,,,,,,,,,,
,,,,,,,,,,,,,,,795,2022-01-17_09h08.01.262,multiplicationStroop,2021.2.3,Win32,52.49343832,,,,,right,1,0.5118,0,15,15,3,1,8,9,8 | 9,1,1.4111,1.9756,congruent,right,,,,,,stimulusFile/magnitude.xlsx,,,,,,,,,,,,,,,,,,,,,,,,,,,,,,,
,,,,,,,,,,,,,,,795,2022-01-17_09h08.01.262,multiplicationStroop,2021.2.3,Win32,52.49343832,,,,,right,1,0.5869,0,16,16,1,1,3,4,3 | 4,1,1.4111,1.9756,congruent,right,,,,,,stimulusFile/magnitude.xlsx,,,,,,,,,,,,,,,,,,,,,,,,,,,,,,,
,,,,,,,,,,,,,,,795,2022-01-17_09h08.01.262,multiplicationStroop,2021.2.3,Win32,52.49343832,,,,,left,0,0.3837,0,17,17,26,1,6,7,6 | 7,1,1.9756,1.4111,incongruent,right,,,,,,stimulusFile/magnitude.xlsx,,,,,,,,,,,,,,,,,,,,,,,,,,,,,,,
,,,,,,,,,,,,,,,795,2022-01-17_09h08.01.262,multiplicationStroop,2021.2.3,Win32,52.49343832,,,,,right,1,0.4499,0,18,18,2,1,6,7,6 | 7,1,1.4111,1.9756,congruent,right,,,,,,stimulusFile/magnitude.xlsx,,,,,,,,,,,,,,,,,,,,,,,,,,,,,,,
,,,,,,,,,,,,,,,795,2022-01-17_09h08.01.262,multiplicationStroop,2021.2.3,Win32,52.49343832,,,,,left,1,0.4568,0,19,19,14,1,8,6,8 | 6,2,1.9756,1.4111,congruent,left,,,,,,stimulusFile/magnitude.xlsx,,,,,,,,,,,,,,,,,,,,,,,,,,,,,,,
,,,,,,,,,,,,,,,795,2022-01-17_09h08.01.262,multiplicationStroop,2021.2.3,Win32,52.49343832,,,,,left,1,0.5039,0,20,20,62,1,8,6,8 | 6,2,1.6933,1.6933,neutral,left,,,,,,stimulusFile/magnitude.xlsx,,,,,,,,,,,,,,,,,,,,,,,,,,,,,,,
,,,,,,,,,,,,,,,795,2022-01-17_09h08.01.262,multiplicationStroop,2021.2.3,Win32,52.49343832,,,,,right,1,0.7825,0,21,21,24,1,1,2,1 | 2,1,1.9756,1.4111,incongruent,right,,,,,,stimulusFile/magnitude.xlsx,,,,,,,,,,,,,,,,,,,,,,,,,,,,,,,
,,,,,,,,,,,,,,,795,2022-01-17_09h08.01.262,multiplicationStroop,2021.2.3,Win32,52.49343832,,,,,left,1,0.4829,0,22,22,20,1,6,1,6 | 1,5,1.9756,1.4111,congruent,left,,,,,,stimulusFile/magnitude.xlsx,,,,,,,,,,,,,,,,,,,,,,,,,,,,,,,
,,,,,,,,,,,,,,,795,2022-01-17_09h08.01.262,multiplicationStroop,2021.2.3,Win32,52.49343832,,,,,left,1,0.4493,0,23,23,6,1,7,6,7 | 6,1,1.9756,1.4111,congruent,left,,,,,,stimulusFile/magnitude.xlsx,,,,,,,,,,,,,,,,,,,,,,,,,,,,,,,
,,,,,,,,,,,,,,,795,2022-01-17_09h08.01.262,multiplicationStroop,2021.2.3,Win32,52.49343832,,,,,left,1,0.4494,0,24,24,15,1,9,7,9 | 7,2,1.9756,1.4111,congruent,left,,,,,,stimulusFile/magnitude.xlsx,,,,,,,,,,,,,,,,,,,,,,,,,,,,,,,
,,,,,,,,,,,,,,,795,2022-01-17_09h08.01.262,multiplicationStroop,2021.2.3,Win32,52.49343832,,,,,right,1,0.4036,0,25,25,41,1,2,7,2 | 7,5,1.9756,1.4111,incongruent,right,,,,,,stimulusFile/magnitude.xlsx,,,,,,,,,,,,,,,,,,,,,,,,,,,,,,,
,,,,,,,,,,,,,,,795,2022-01-17_09h08.01.262,multiplicationStroop,2021.2.3,Win32,52.49343832,,,,,left,1,0.4259,0,26,26,46,1,8,3,8 | 3,5,1.4111,1.9756,incongruent,left,,,,,,stimulusFile/magnitude.xlsx,,,,,,,,,,,,,,,,,,,,,,,,,,,,,,,
,,,,,,,,,,,,,,,795,2022-01-17_09h08.01.262,multiplicationStroop,2021.2.3,Win32,52.49343832,,,,,right,1,0.4993,0,27,27,16,1,1,6,1 | 6,5,1.4111,1.9756,congruent,right,,,,,,stimulusFile/magnitude.xlsx,,,,,,,,,,,,,,,,,,,,,,,,,,,,,,,
,,,,,,,,,,,,,,,795,2022-01-17_09h08.01.262,multiplicationStroop,2021.2.3,Win32,52.49343832,,,,,left,1,0.4873,0,28,28,37,1,4,2,4 | 2,2,1.4111,1.9756,incongruent,left,,,,,,stimulusFile/magnitude.xlsx,,,,,,,,,,,,,,,,,,,,,,,,,,,,,,,
,,,,,,,,,,,,,,,795,2022-01-17_09h08.01.262,multiplicationStroop,2021.2.3,Win32,52.49343832,,,,,right,1,0.4365,0,29,29,33,1,2,4,2 | 4,2,1.9756,1.4111,incongruent,right,,,,,,stimulusFile/magnitude.xlsx,,,,,,,,,,,,,,,,,,,,,,,,,,,,,,,
,,,,,,,,,,,,,,,795,2022-01-17_09h08.01.262,multiplicationStroop,2021.2.3,Win32,52.49343832,,,,,right,1,0.4998,0,30,30,19,1,4,9,4 | 9,5,1.4111,1.9756,congruent,right,,,,,,stimulusFile/magnitude.xlsx,,,,,,,,,,,,,,,,,,,,,,,,,,,,,,,
,,,,,,,,,,,,,,,795,2022-01-17_09h08.01.262,multiplicationStroop,2021.2.3,Win32,52.49343832,,,,,left,1,0.4183,0,31,31,22,1,8,3,8 | 3,5,1.9756,1.4111,congruent,left,,,,,,stimulusFile/magnitude.xlsx,,,,,,,,,,,,,,,,,,,,,,,,,,,,,,,
,,,,,,,,,,,,,,,795,2022-01-17_09h08.01.262,multiplicationStroop,2021.2.3,Win32,52.49343832,,,,,left,1,0.3937,0,32,32,13,1,4,2,4 | 2,2,1.9756,1.4111,congruent,left,,,,,,stimulusFile/magnitude.xlsx,,,,,,,,,,,,,,,,,,,,,,,,,,,,,,,
,,,,,,,,,,,,,,,795,2022-01-17_09h08.01.262,multiplicationStroop,2021.2.3,Win32,52.49343832,,,,,right,1,0.6336,0,33,33,32,1,1,3,1 | 3,2,1.9756,1.4111,incongruent,right,,,,,,stimulusFile/magnitude.xlsx,,,,,,,,,,,,,,,,,,,,,,,,,,,,,,,
,,,,,,,,,,,,,,,795,2022-01-17_09h08.01.262,multiplicationStroop,2021.2.3,Win32,52.49343832,,,,,right,1,0.4164,0,34,34,64,1,1,6,1 | 6,5,1.6933,1.6933,neutral,right,,,,,,stimulusFile/magnitude.xlsx,,,,,,,,,,,,,,,,,,,,,,,,,,,,,,,
,,,,,,,,,,,,,,,795,2022-01-17_09h08.01.262,multiplicationStroop,2021.2.3,Win32,52.49343832,,,,,right,1,0.5239,0,35,35,34,1,6,8,6 | 8,2,1.9756,1.4111,incongruent,right,,,,,,stimulusFile/magnitude.xlsx,,,,,,,,,,,,,,,,,,,,,,,,,,,,,,,
,,,,,,,,,,,,,,,795,2022-01-17_09h08.01.262,multiplicationStroop,2021.2.3,Win32,52.49343832,,,,,left,1,0.8162,0,36,36,28,1,2,1,2 | 1,1,1.4111,1.9756,incongruent,left,,,,,,stimulusFile/magnitude.xlsx,,,,,,,,,,,,,,,,,,,,,,,,,,,,,,,
,,,,,,,,,,,,,,,795,2022-01-17_09h08.01.262,multiplicationStroop,2021.2.3,Win32,52.49343832,,,,,right,1,0.7669,0,37,37,25,1,3,4,3 | 4,1,1.9756,1.4111,incongruent,right,,,,,,stimulusFile/magnitude.xlsx,,,,,,,,,,,,,,,,,,,,,,,,,,,,,,,
,,,,,,,,,,,,,,,795,2022-01-17_09h08.01.262,multiplicationStroop,2021.2.3,Win32,52.49343832,,,,,right,1,0.554,0,38,38,43,1,4,9,4 | 9,5,1.9756,1.4111,incongruent,right,,,,,,stimulusFile/magnitude.xlsx,,,,,,,,,,,,,,,,,,,,,,,,,,,,,,,
,,,,,,,,,,,,,,,795,2022-01-17_09h08.01.262,multiplicationStroop,2021.2.3,Win32,52.49343832,,,,,right,0,0.5902,0,39,39,39,1,9,7,9 | 7,2,1.4111,1.9756,incongruent,left,,,,,,stimulusFile/magnitude.xlsx,,,,,,,,,,,,,,,,,,,,,,,,,,,,,,,
,,,,,,,,,,,,,,,795,2022-01-17_09h08.01.262,multiplicationStroop,2021.2.3,Win32,52.49343832,,,,,left,1,0.5388,0,40,40,45,1,7,2,7 | 2,5,1.4111,1.9756,incongruent,left,,,,,,stimulusFile/magnitude.xlsx,,,,,,,,,,,,,,,,,,,,,,,,,,,,,,,
,,,,,,,,,,,,,,,795,2022-01-17_09h08.01.262,multiplicationStroop,2021.2.3,Win32,52.49343832,,,,,left,1,0.4592,0,41,41,44,1,6,1,6 | 1,5,1.4111,1.9756,incongruent,left,,,,,,stimulusFile/magnitude.xlsx,,,,,,,,,,,,,,,,,,,,,,,,,,,,,,,
,,,,,,,,,,,,,,,795,2022-01-17_09h08.01.262,multiplicationStroop,2021.2.3,Win32,52.49343832,,,,,left,1,0.4597,0,42,42,63,1,9,7,9 | 7,2,1.6933,1.6933,neutral,left,,,,,,stimulusFile/magnitude.xlsx,,,,,,,,,,,,,,,,,,,,,,,,,,,,,,,
,,,,,,,,,,,,,,,795,2022-01-17_09h08.01.262,multiplicationStroop,2021.2.3,Win32,52.49343832,,,,,right,1,0.4103,0,43,43,58,1,6,8,6 | 8,2,1.6933,1.6933,neutral,right,,,,,,stimulusFile/magnitude.xlsx,,,,,,,,,,,,,,,,,,,,,,,,,,,,,,,
,,,,,,,,,,,,,,,795,2022-01-17_09h08.01.262,multiplicationStroop,2021.2.3,Win32,52.49343832,,,,,left,1,1.0491,0,44,44,68,1,6,1,6 | 1,5,1.6933,1.6933,neutral,left,,,,,,stimulusFile/magnitude.xlsx,,,,,,,,,,,,,,,,,,,,,,,,,,,,,,,
,,,,,,,,,,,,,,,795,2022-01-17_09h08.01.262,multiplicationStroop,2021.2.3,Win32,52.49343832,,,,,right,1,0.422,0,45,45,9,1,2,4,2 | 4,2,1.4111,1.9756,congruent,right,,,,,,stimulusFile/magnitude.xlsx,,,,,,,,,,,,,,,,,,,,,,,,,,,,,,,
,,,,,,,,,,,,,,,795,2022-01-17_09h08.01.262,multiplicationStroop,2021.2.3,Win32,52.49343832,,,,,left,1,0.5398,0,46,46,54,1,7,6,7 | 6,1,1.6933,1.6933,neutral,left,,,,,,stimulusFile/magnitude.xlsx,,,,,,,,,,,,,,,,,,,,,,,,,,,,,,,
,,,,,,,,,,,,,,,795,2022-01-17_09h08.01.262,multiplicationStroop,2021.2.3,Win32,52.49343832,,,,,left,1,0.5993,0,47,47,55,1,9,8,9 | 8,1,1.6933,1.6933,neutral,left,,,,,,stimulusFile/magnitude.xlsx,,,,,,,,,,,,,,,,,,,,,,,,,,,,,,,
,,,,,,,,,,,,,,,795,2022-01-17_09h08.01.262,multiplicationStroop,2021.2.3,Win32,52.49343832,,,,,right,1,0.588,0,48,48,66,1,3,8,3 | 8,5,1.6933,1.6933,neutral,right,,,,,,stimulusFile/magnitude.xlsx,,,,,,,,,,,,,,,,,,,,,,,,,,,,,,,
,,,,,,,,,,,,,,,795,2022-01-17_09h08.01.262,multiplicationStroop,2021.2.3,Win32,52.49343832,,,,,right,1,0.4333,0,49,49,57,1,2,4,2 | 4,2,1.6933,1.6933,neutral,right,,,,,,stimulusFile/magnitude.xlsx,,,,,,,,,,,,,,,,,,,,,,,,,,,,,,,
,,,,,,,,,,,,,,,795,2022-01-17_09h08.01.262,multiplicationStroop,2021.2.3,Win32,52.49343832,,,,,left,1,0.5536,0,50,50,7,1,9,8,9 | 8,1,1.9756,1.4111,congruent,left,,,,,,stimulusFile/magnitude.xlsx,,,,,,,,,,,,,,,,,,,,,,,,,,,,,,,
,,,,,,,,,,,,,,,795,2022-01-17_09h08.01.262,multiplicationStroop,2021.2.3,Win32,52.49343832,,,,,left,1,0.3681,0,51,51,12,1,3,1,3 | 1,2,1.9756,1.4111,congruent,left,,,,,,stimulusFile/magnitude.xlsx,,,,,,,,,,,,,,,,,,,,,,,,,,,,,,,
,,,,,,,,,,,,,,,795,2022-01-17_09h08.01.262,multiplicationStroop,2021.2.3,Win32,52.49343832,,,,,right,1,0.5777,0,52,52,35,1,7,9,7 | 9,2,1.9756,1.4111,incongruent,right,,,,,,stimulusFile/magnitude.xlsx,,,,,,,,,,,,,,,,,,,,,,,,,,,,,,,
,,,,,,,,,,,,,,,795,2022-01-17_09h08.01.262,multiplicationStroop,2021.2.3,Win32,52.49343832,,,,,left,1,0.4333,0,53,53,53,1,4,3,4 | 3,1,1.6933,1.6933,neutral,left,,,,,,stimulusFile/magnitude.xlsx,,,,,,,,,,,,,,,,,,,,,,,,,,,,,,,
,,,,,,,,,,,,,,,795,2022-01-17_09h08.01.262,multiplicationStroop,2021.2.3,Win32,52.49343832,,,,,right,1,0.576,0,54,54,51,1,8,9,8 | 9,1,1.6933,1.6933,neutral,right,,,,,,stimulusFile/magnitude.xlsx,,,,,,,,,,,,,,,,,,,,,,,,,,,,,,,
,,,,,,,,,,,,,,,795,2022-01-17_09h08.01.262,multiplicationStroop,2021.2.3,Win32,52.49343832,,,,,right,1,0.4993,0,55,55,65,1,2,7,2 | 7,5,1.6933,1.6933,neutral,right,,,,,,stimulusFile/magnitude.xlsx,,,,,,,,,,,,,,,,,,,,,,,,,,,,,,,
,,,,,,,,,,,,,,,795,2022-01-17_09h08.01.262,multiplicationStroop,2021.2.3,Win32,52.49343832,,,,,right,1,0.4618,0,56,56,40,1,1,6,1 | 6,5,1.9756,1.4111,incongruent,right,,,,,,stimulusFile/magnitude.xlsx,,,,,,,,,,,,,,,,,,,,,,,,,,,,,,,
,,,,,,,,,,,,,,,795,2022-01-17_09h08.01.262,multiplicationStroop,2021.2.3,Win32,52.49343832,,,,,left,1,0.8049,0,57,57,31,1,9,8,9 | 8,1,1.4111,1.9756,incongruent,left,,,,,,stimulusFile/magnitude.xlsx,,,,,,,,,,,,,,,,,,,,,,,,,,,,,,,
,,,,,,,,,,,,,,,795,2022-01-17_09h08.01.262,multiplicationStroop,2021.2.3,Win32,52.49343832,,,,,right,1,0.5945,0,58,58,50,1,6,7,6 | 7,1,1.6933,1.6933,neutral,right,,,,,,stimulusFile/magnitude.xlsx,,,,,,,,,,,,,,,,,,,,,,,,,,,,,,,
,,,,,,,,,,,,,,,795,2022-01-17_09h08.01.262,multiplicationStroop,2021.2.3,Win32,52.49343832,,,,,left,1,0.5161,0,59,59,71,1,9,4,9 | 4,5,1.6933,1.6933,neutral,left,,,,,,stimulusFile/magnitude.xlsx,,,,,,,,,,,,,,,,,,,,,,,,,,,,,,,
,,,,,,,,,,,,,,,795,2022-01-17_09h08.01.262,multiplicationStroop,2021.2.3,Win32,52.49343832,,,,,left,1,0.4588,0,60,60,4,1,2,1,2 | 1,1,1.9756,1.4111,congruent,left,,,,,,stimulusFile/magnitude.xlsx,,,,,,,,,,,,,,,,,,,,,,,,,,,,,,,
,,,,,,,,,,,,,,,795,2022-01-17_09h08.01.262,multiplicationStroop,2021.2.3,Win32,52.49343832,,,,,right,1,0.4455,0,61,61,59,1,7,9,7 | 9,2,1.6933,1.6933,neutral,right,,,,,,stimulusFile/magnitude.xlsx,,,,,,,,,,,,,,,,,,,,,,,,,,,,,,,
,,,,,,,,,,,,,,,795,2022-01-17_09h08.01.262,multiplicationStroop,2021.2.3,Win32,52.49343832,,,,,left,1,0.4331,0,62,62,69,1,7,2,7 | 2,5,1.6933,1.6933,neutral,left,,,,,,stimulusFile/magnitude.xlsx,,,,,,,,,,,,,,,,,,,,,,,,,,,,,,,
,,,,,,,,,,,,,,,795,2022-01-17_09h08.01.262,multiplicationStroop,2021.2.3,Win32,52.49343832,,,,,right,1,0.425,0,63,63,48,1,1,2,1 | 2,1,1.6933,1.6933,neutral,right,,,,,,stimulusFile/magnitude.xlsx,,,,,,,,,,,,,,,,,,,,,,,,,,,,,,,
,,,,,,,,,,,,,,,795,2022-01-17_09h08.01.262,multiplicationStroop,2021.2.3,Win32,52.49343832,,,,,left,1,0.5084,0,64,64,38,1,8,6,8 | 6,2,1.4111,1.9756,incongruent,left,,,,,,stimulusFile/magnitude.xlsx,,,,,,,,,,,,,,,,,,,,,,,,,,,,,,,
,,,,,,,,,,,,,,,795,2022-01-17_09h08.01.262,multiplicationStroop,2021.2.3,Win32,52.49343832,,,,,right,1,0.4888,0,65,65,56,1,1,3,1 | 3,2,1.6933,1.6933,neutral,right,,,,,,stimulusFile/magnitude.xlsx,,,,,,,,,,,,,,,,,,,,,,,,,,,,,,,
,,,,,,,,,,,,,,,795,2022-01-17_09h08.01.262,multiplicationStroop,2021.2.3,Win32,52.49343832,,,,,right,1,0.5448,0,66,66,67,1,4,9,4 | 9,5,1.6933,1.6933,neutral,right,,,,,,stimulusFile/magnitude.xlsx,,,,,,,,,,,,,,,,,,,,,,,,,,,,,,,
,,,,,,,,,,,,,,,795,2022-01-17_09h08.01.262,multiplicationStroop,2021.2.3,Win32,52.49343832,,,,,left,1,0.606,0,67,67,61,1,4,2,4 | 2,2,1.6933,1.6933,neutral,left,,,,,,stimulusFile/magnitude.xlsx,,,,,,,,,,,,,,,,,,,,,,,,,,,,,,,
,,,,,,,,,,,,,,,795,2022-01-17_09h08.01.262,multiplicationStroop,2021.2.3,Win32,52.49343832,,,,,right,1,0.5356,0,68,68,49,1,3,4,3 | 4,1,1.6933,1.6933,neutral,right,,,,,,stimulusFile/magnitude.xlsx,,,,,,,,,,,,,,,,,,,,,,,,,,,,,,,
,,,,,,,,,,,,,,,795,2022-01-17_09h08.01.262,multiplicationStroop,2021.2.3,Win32,52.49343832,,,,,left,1,0.5769,0,69,69,36,1,3,1,3 | 1,2,1.4111,1.9756,incongruent,left,,,,,,stimulusFile/magnitude.xlsx,,,,,,,,,,,,,,,,,,,,,,,,,,,,,,,
,,,,,,,,,,,,,,,795,2022-01-17_09h08.01.262,multiplicationStroop,2021.2.3,Win32,52.49343832,,,,,left,1,0.4178,0,70,70,29,1,4,3,4 | 3,1,1.4111,1.9756,incongruent,left,,,,,,stimulusFile/magnitude.xlsx,,,,,,,,,,,,,,,,,,,,,,,,,,,,,,,
,,,,,,,,,,,,,,,795,2022-01-17_09h08.01.262,multiplicationStroop,2021.2.3,Win32,52.49343832,,,,,right,1,0.5952,0,71,71,27,1,8,9,8 | 9,1,1.9756,1.4111,incongruent,right,,,,,,stimulusFile/magnitude.xlsx,,,,,,,,,,,,,,,,,,,,,,,,,,,,,,,
,,,,,,,,,,,,,,,795,2022-01-17_09h08.01.262,multiplicationStroop,2021.2.3,Win32,52.49343832,,,,,,,,,,,,,,,,,,,,,0,1,1,0,1,stimulusFile/magnitude.xlsx,NUMERICALLY larger (larger coefficient).,images/numericallyLarger.png,,,,,,,,,,,,,,,,,,,,,,,,,,,,,
,,,,,,,,,,,,,,,795,2022-01-17_09h08.01.262,multiplicationStroop,2021.2.3,Win32,52.49343832,,,,,,,,,,,,,,,,,,,,,,,,,,,,,space,4.9233,space,1.3646,81,2.2553,1,0,0,0,35,1,9,×,9,9 × 9,neutral,tie,1.5,1.5,81,,,,,,,,
,,,,,,,,,,,,,,,795,2022-01-17_09h08.01.262,multiplicationStroop,2021.2.3,Win32,52.49343832,,,,,,,,,,,,,,,,,,,,,,,,,,,,,,,,,42,2.1216,1,0,1,1,6,1,6,×,7,6 × 7,neutral,smallerFirst,1.5,1.5,42,,,,,,,,
,,,,,,,,,,,,,,,795,2022-01-17_09h08.01.262,multiplicationStroop,2021.2.3,Win32,52.49343832,,,,,,,,,,,,,,,,,,,,,,,,,,,,,,,,,30,3.6288,1,0,2,2,19,1,6,×,5,6 × 5,neutral,largerFirst,1.5,1.5,30,,,,,,,,
,,,,,,,,,,,,,,,795,2022-01-17_09h08.01.262,multiplicationStroop,2021.2.3,Win32,52.49343832,,,,,,,,,,,,,,,,,,,,,,,,,,,,,,,,,36,2.4975,1,0,3,3,27,1,9,×,4,9 × 4,neutral,largerFirst,1.5,1.5,36,,,,,,,,
,,,,,,,,,,,,,,,795,2022-01-17_09h08.01.262,multiplicationStroop,2021.2.3,Win32,52.49343832,,,,,,,,,,,,,,,,,,,,,,,,,,,,,,,,,24,1.7386,1,0,4,4,22,1,8,×,3,8 × 3,neutral,largerFirst,1.5,1.5,24,,,,,,,,
,,,,,,,,,,,,,,,795,2022-01-17_09h08.01.262,multiplicationStroop,2021.2.3,Win32,52.49343832,,,,,,,,,,,,,,,,,,,,,,,,,,,,,,,,,12,1.3483,1,0,5,5,25,1,6,×,2,6 × 2,neutral,largerFirst,1.5,1.5,12,,,,,,,,
,,,,,,,,,,,,,,,795,2022-01-17_09h08.01.262,multiplicationStroop,2021.2.3,Win32,52.49343832,,,,,,,,,,,,,,,,,,,,,,,,,,,,,,,,,32,1.9314,1,0,6,6,23,1,8,×,4,8 × 4,neutral,largerFirst,1.5,1.5,32,,,,,,,,
,,,,,,,,,,,,,,,795,2022-01-17_09h08.01.262,multiplicationStroop,2021.2.3,Win32,52.49343832,,,,,,,,,,,,,,,,,,,,,,,,,,,,,,,,,10,1.5477,1,0,7,7,4,1,2,×,5,2 × 5,neutral,smallerFirst,1.5,1.5,10,,,,,,,,
,,,,,,,,,,,,,,,795,2022-01-17_09h08.01.262,multiplicationStroop,2021.2.3,Win32,52.49343832,,,,,,,,,,,,,,,,,,,,,,,,,,,,,,,,,14,1.3318,1,0,8,8,16,1,7,×,2,7 × 2,neutral,largerFirst,1.5,1.5,14,,,,,,,,
,,,,,,,,,,,,,,,795,2022-01-17_09h08.01.262,multiplicationStroop,2021.2.3,Win32,52.49343832,,,,,,,,,,,,,,,,,,,,,,,,,,,,,,,,,40,1.6147,1,0,9,9,24,1,8,×,5,8 × 5,neutral,largerFirst,1.5,1.5,40,,,,,,,,
,,,,,,,,,,,,,,,795,2022-01-17_09h08.01.262,multiplicationStroop,2021.2.3,Win32,52.49343832,,,,,,,,,,,,,,,,,,,,,,,,,,,,,,,,,16,1.3984,1,0,10,10,13,1,2,×,8,2 × 8,neutral,smallerFirst,1.5,1.5,16,,,,,,,,
,,,,,,,,,,,,,,,795,2022-01-17_09h08.01.262,multiplicationStroop,2021.2.3,Win32,52.49343832,,,,,,,,,,,,,,,,,,,,,,,,,,,,,,,,,18,1.6314,1,0,11,11,0,1,3,×,6,3 × 6,neutral,smallerFirst,1.5,1.5,18,,,,,,,,
,,,,,,,,,,,,,,,795,2022-01-17_09h08.01.262,multiplicationStroop,2021.2.3,Win32,52.49343832,,,,,,,,,,,,,,,,,,,,,,,,,,,,,,,,,18,1.4483,1,0,12,12,18,1,9,×,2,9 × 2,neutral,largerFirst,1.5,1.5,18,,,,,,,,
,,,,,,,,,,,,,,,795,2022-01-17_09h08.01.262,multiplicationStroop,2021.2.3,Win32,52.49343832,,,,,,,,,,,,,,,,,,,,,,,,,,,,,,,,,9,1.6984,1,0,13,13,29,1,3,×,3,3 × 3,neutral,tie,1.5,1.5,9,,,,,,,,
,,,,,,,,,,,,,,,795,2022-01-17_09h08.01.262,multiplicationStroop,2021.2.3,Win32,52.49343832,,,,,,,,,,,,,,,,,,,,,,,,,,,,,,,,,4,1.1452,1,0,14,14,28,1,2,×,2,2 × 2,neutral,tie,1.5,1.5,4,,,,,,,,
,,,,,,,,,,,,,,,795,2022-01-17_09h08.01.262,multiplicationStroop,2021.2.3,Win32,52.49343832,,,,,,,,,,,,,,,,,,,,,,,,,,,,,,,,,35,1.9145,1,0,15,15,1,1,5,×,7,5 × 7,neutral,smallerFirst,1.5,1.5,35,,,,,,,,
,,,,,,,,,,,,,,,795,2022-01-17_09h08.01.262,multiplicationStroop,2021.2.3,Win32,52.49343832,,,,,,,,,,,,,,,,,,,,,,,,,,,,,,,,,45,1.4157,1,0,16,16,10,1,5,×,9,5 × 9,neutral,smallerFirst,1.5,1.5,45,,,,,,,,
,,,,,,,,,,,,,,,795,2022-01-17_09h08.01.262,multiplicationStroop,2021.2.3,Win32,52.49343832,,,,,,,,,,,,,,,,,,,,,,,,,,,,,,,,,81,2.0639,0,0,17,17,11,1,8,×,9,8 × 9,neutral,smallerFirst,1.5,1.5,72,,,,,,,,
,,,,,,,,,,,,,,,795,2022-01-17_09h08.01.262,multiplicationStroop,2021.2.3,Win32,52.49343832,,,,,,,,,,,,,,,,,,,,,,,,,,,,,,,,,36,2.6303,1,0,18,18,32,1,6,×,6,6 × 6,neutral,tie,1.5,1.5,36,,,,,,,,
,,,,,,,,,,,,,,,795,2022-01-17_09h08.01.262,multiplicationStroop,2021.2.3,Win32,52.49343832,,,,,,,,,,,,,,,,,,,,,,,,,,,,,,,,,45,1.8482,0,0,19,19,7,1,6,×,9,6 × 9,neutral,smallerFirst,1.5,1.5,54,,,,,,,,
,,,,,,,,,,,,,,,795,2022-01-17_09h08.01.262,multiplicationStroop,2021.2.3,Win32,52.49343832,,,,,,,,,,,,,,,,,,,,,,,,,,,,,,,,,27,2.2284,0,0,20,20,17,1,7,×,4,7 × 4,neutral,largerFirst,1.5,1.5,28,,,,,,,,
,,,,,,,,,,,,,,,795,2022-01-17_09h08.01.262,multiplicationStroop,2021.2.3,Win32,52.49343832,,,,,,,,,,,,,,,,,,,,,,,,,,,,,,,,,20,2.3799,1,0,21,21,20,1,5,×,4,5 × 4,neutral,largerFirst,1.5,1.5,20,,,,,,,,
,,,,,,,,,,,,,,,795,2022-01-17_09h08.01.262,multiplicationStroop,2021.2.3,Win32,52.49343832,,,,,,,,,,,,,,,,,,,,,,,,,,,,,,,,,16,1.7156,1,0,22,22,30,1,4,×,4,4 × 4,neutral,tie,1.5,1.5,16,,,,,,,,
,,,,,,,,,,,,,,,795,2022-01-17_09h08.01.262,multiplicationStroop,2021.2.3,Win32,52.49343832,,,,,,,,,,,,,,,,,,,,,,,,,,,,,,,,,25,1.6303,1,0,23,23,31,1,5,×,5,5 × 5,neutral,tie,1.5,1.5,25,,,,,,,,
,,,,,,,,,,,,,,,795,2022-01-17_09h08.01.262,multiplicationStroop,2021.2.3,Win32,52.49343832,,,,,,,,,,,,,,,,,,,,,,,,,,,,,,,,,27,1.7149,1,0,24,24,14,1,9,×,3,9 × 3,neutral,largerFirst,1.5,1.5,27,,,,,,,,
,,,,,,,,,,,,,,,795,2022-01-17_09h08.01.262,multiplicationStroop,2021.2.3,Win32,52.49343832,,,,,,,,,,,,,,,,,,,,,,,,,,,,,,,,,56,2.5301,1,0,25,25,9,1,7,×,8,7 × 8,neutral,smallerFirst,1.5,1.5,56,,,,,,,,
,,,,,,,,,,,,,,,795,2022-01-17_09h08.01.262,multiplicationStroop,2021.2.3,Win32,52.49343832,,,,,,,,,,,,,,,,,,,,,,,,,,,,,,,,,64,2.631,1,0,26,26,34,1,8,×,8,8 × 8,neutral,tie,1.5,1.5,64,,,,,,,,
,,,,,,,,,,,,,,,795,2022-01-17_09h08.01.262,multiplicationStroop,2021.2.3,Win32,52.49343832,,,,,,,,,,,,,,,,,,,,,,,,,,,,,,,,,6,1.5644,1,0,27,27,26,1,3,×,2,3 × 2,neutral,largerFirst,1.5,1.5,6,,,,,,,,
,,,,,,,,,,,,,,,795,2022-01-17_09h08.01.262,multiplicationStroop,2021.2.3,Win32,52.49343832,,,,,,,,,,,,,,,,,,,,,,,,,,,,,,,,,63,3.1304,1,0,28,28,12,1,7,×,9,7 × 9,neutral,smallerFirst,1.5,1.5,63,,,,,,,,
,,,,,,,,,,,,,,,795,2022-01-17_09h08.01.262,multiplicationStroop,2021.2.3,Win32,52.49343832,,,,,,,,,,,,,,,,,,,,,,,,,,,,,,,,,21,1.5344,1,0,29,29,8,1,3,×,7,3 × 7,neutral,smallerFirst,1.5,1.5,21,,,,,,,,
,,,,,,,,,,,,,,,795,2022-01-17_09h08.01.262,multiplicationStroop,2021.2.3,Win32,52.49343832,,,,,,,,,,,,,,,,,,,,,,,,,,,,,,,,,24,1.5983,1,0,30,30,2,1,4,×,6,4 × 6,neutral,smallerFirst,1.5,1.5,24,,,,,,,,
,,,,,,,,,,,,,,,795,2022-01-17_09h08.01.262,multiplicationStroop,2021.2.3,Win32,52.49343832,,,,,,,,,,,,,,,,,,,,,,,,,,,,,,,,,12,1.2148,1,0,31,31,21,1,4,×,3,4 × 3,neutral,largerFirst,1.5,1.5,12,,,,,,,,
,,,,,,,,,,,,,,,795,2022-01-17_09h08.01.262,multiplicationStroop,2021.2.3,Win32,52.49343832,,,,,,,,,,,,,,,,,,,,,,,,,,,,,,,,,48,2.0979,1,0,32,32,15,1,8,×,6,8 × 6,neutral,largerFirst,1.5,1.5,48,,,,,,,,
,,,,,,,,,,,,,,,795,2022-01-17_09h08.01.262,multiplicationStroop,2021.2.3,Win32,52.49343832,,,,,,,,,,,,,,,,,,,,,,,,,,,,,,,,,49,3.5462,1,0,33,33,33,1,7,×,7,7 × 7,neutral,tie,1.5,1.5,49,,,,,,,,
,,,,,,,,,,,,,,,795,2022-01-17_09h08.01.262,multiplicationStroop,2021.2.3,Win32,52.49343832,,,,,,,,,,,,,,,,,,,,,,,,,,,,,,,,,8,1.4893,1,0,34,34,3,1,2,×,4,2 × 4,neutral,smallerFirst,1.5,1.5,8,,,,,,,,
,,,,,,,,,,,,,,,795,2022-01-17_09h08.01.262,multiplicationStroop,2021.2.3,Win32,52.49343832,,,,,,,,,,,,,,,,,,,,,,,,,,,,,,,,,15,1.3817,1,0,35,35,5,1,3,×,5,3 × 5,neutral,smallerFirst,1.5,1.5,15,,,,,,,,
,,,,,,,,,,,,,,,795,2022-01-17_09h08.01.262,multiplicationStroop,2021.2.3,Win32,52.49343832,,,,,,,,,,,,,,,,,,,,,,,,,,,,,,,,,,,,,,,,,,,,,,,,,,0,0,0,1,1,stimulusFile/mult_blk2.xlsx,,
,,,,,,,,,,,,,,,795,2022-01-17_09h08.01.262,multiplicationStroop,2021.2.3,Win32,52.49343832,,,,,,,,,,,,,,,,,,,,,,,,,,,,,,,space,3.7402,20,2.0315,1,0,0,0,27,1,5,×,4,5 × 4,incongruent,largerFirst,1,2,20,,,,,,,,
,,,,,,,,,,,,,,,795,2022-01-17_09h08.01.262,multiplicationStroop,2021.2.3,Win32,52.49343832,,,,,,,,,,,,,,,,,,,,,,,,,,,,,,,,,24,2.7971,1,0,1,1,20,1,6,×,4,6 × 4,incongruent,largerFirst,1,2,24,,,,,,,,
,,,,,,,,,,,,,,,795,2022-01-17_09h08.01.262,multiplicationStroop,2021.2.3,Win32,52.49343832,,,,,,,,,,,,,,,,,,,,,,,,,,,,,,,,,32,1.6573,1,0,2,2,7,1,4,×,8,4 × 8,incongruent,smallerFirst,2,1,32,,,,,,,,
,,,,,,,,,,,,,,,795,2022-01-17_09h08.01.262,multiplicationStroop,2021.2.3,Win32,52.49343832,,,,,,,,,,,,,,,,,,,,,,,,,,,,,,,,,28,1.7024,1,0,3,3,16,1,7,×,4,7 × 4,incongruent,largerFirst,1,2,28,,,,,,,,
,,,,,,,,,,,,,,,795,2022-01-17_09h08.01.262,multiplicationStroop,2021.2.3,Win32,52.49343832,,,,,,,,,,,,,,,,,,,,,,,,,,,,,,,,,9,1.5103,1,0,4,4,29,1,3,×,3,3 × 3,incongruent,tie,1,2,9,,,,,,,,
,,,,,,,,,,,,,,,795,2022-01-17_09h08.01.262,multiplicationStroop,2021.2.3,Win32,52.49343832,,,,,,,,,,,,,,,,,,,,,,,,,,,,,,,,,21,1.2655,1,0,5,5,26,1,7,×,3,7 × 3,incongruent,largerFirst,1,2,21,,,,,,,,
,,,,,,,,,,,,,,,795,2022-01-17_09h08.01.262,multiplicationStroop,2021.2.3,Win32,52.49343832,,,,,,,,,,,,,,,,,,,,,,,,,,,,,,,,,12,1.5147,1,0,6,6,19,1,6,×,2,6 × 2,incongruent,largerFirst,1,2,12,,,,,,,,
,,,,,,,,,,,,,,,795,2022-01-17_09h08.01.262,multiplicationStroop,2021.2.3,Win32,52.49343832,,,,,,,,,,,,,,,,,,,,,,,,,,,,,,,,,36,2.5635,1,0,7,7,15,1,9,×,4,9 × 4,incongruent,largerFirst,1,2,36,,,,,,,,
,,,,,,,,,,,,,,,795,2022-01-17_09h08.01.262,multiplicationStroop,2021.2.3,Win32,52.49343832,,,,,,,,,,,,,,,,,,,,,,,,,,,,,,,,,56,2.3043,1,0,8,8,14,1,8,×,7,8 × 7,incongruent,largerFirst,1,2,56,,,,,,,,
,,,,,,,,,,,,,,,795,2022-01-17_09h08.01.262,multiplicationStroop,2021.2.3,Win32,52.49343832,,,,,,,,,,,,,,,,,,,,,,,,,,,,,,,,,81,1.7146,1,0,9,9,35,1,9,×,9,9 × 9,incongruent,tie,1,2,81,,,,,,,,
,,,,,,,,,,,,,,,795,2022-01-17_09h08.01.262,multiplicationStroop,2021.2.3,Win32,52.49343832,,,,,,,,,,,,,,,,,,,,,,,,,,,,,,,,,24,1.5482,1,0,10,10,9,1,3,×,8,3 × 8,incongruent,smallerFirst,2,1,24,,,,,,,,
,,,,,,,,,,,,,,,795,2022-01-17_09h08.01.262,multiplicationStroop,2021.2.3,Win32,52.49343832,,,,,,,,,,,,,,,,,,,,,,,,,,,,,,,,,64,1.7476,1,0,11,11,34,1,8,×,8,8 × 8,incongruent,tie,1,2,64,,,,,,,,
,,,,,,,,,,,,,,,795,2022-01-17_09h08.01.262,multiplicationStroop,2021.2.3,Win32,52.49343832,,,,,,,,,,,,,,,,,,,,,,,,,,,,,,,,,10,1.6147,1,0,12,12,21,1,5,×,2,5 × 2,incongruent,largerFirst,1,2,10,,,,,,,,
,,,,,,,,,,,,,,,795,2022-01-17_09h08.01.262,multiplicationStroop,2021.2.3,Win32,52.49343832,,,,,,,,,,,,,,,,,,,,,,,,,,,,,,,,,30,1.5647,1,0,13,13,25,1,6,×,5,6 × 5,incongruent,largerFirst,1,2,30,,,,,,,,
,,,,,,,,,,,,,,,795,2022-01-17_09h08.01.262,multiplicationStroop,2021.2.3,Win32,52.49343832,,,,,,,,,,,,,,,,,,,,,,,,,,,,,,,,,12,1.6307,1,0,14,14,5,1,3,×,4,3 × 4,incongruent,smallerFirst,2,1,12,,,,,,,,
,,,,,,,,,,,,,,,795,2022-01-17_09h08.01.262,multiplicationStroop,2021.2.3,Win32,52.49343832,,,,,,,,,,,,,,,,,,,,,,,,,,,,,,,,,63,2.6639,1,0,15,15,3,1,7,×,9,7 × 9,incongruent,smallerFirst,2,1,63,,,,,,,,
,,,,,,,,,,,,,,,795,2022-01-17_09h08.01.262,multiplicationStroop,2021.2.3,Win32,52.49343832,,,,,,,,,,,,,,,,,,,,,,,,,,,,,,,,,18,1.6815,1,0,16,16,8,1,3,×,6,3 × 6,incongruent,smallerFirst,2,1,18,,,,,,,,
,,,,,,,,,,,,,,,795,2022-01-17_09h08.01.262,multiplicationStroop,2021.2.3,Win32,52.49343832,,,,,,,,,,,,,,,,,,,,,,,,,,,,,,,,,4,1.2159,1,0,17,17,28,1,2,×,2,2 × 2,incongruent,tie,1,2,4,,,,,,,,
,,,,,,,,,,,,,,,795,2022-01-17_09h08.01.262,multiplicationStroop,2021.2.3,Win32,52.49343832,,,,,,,,,,,,,,,,,,,,,,,,,,,,,,,,,15,1.2974,1,0,18,18,10,1,3,×,5,3 × 5,incongruent,smallerFirst,2,1,15,,,,,,,,
,,,,,,,,,,,,,,,795,2022-01-17_09h08.01.262,multiplicationStroop,2021.2.3,Win32,52.49343832,,,,,,,,,,,,,,,,,,,,,,,,,,,,,,,,,42,1.8406,1,0,19,19,17,1,7,×,6,7 × 6,incongruent,largerFirst,1,2,42,,,,,,,,
,,,,,,,,,,,,,,,795,2022-01-17_09h08.01.262,multiplicationStroop,2021.2.3,Win32,52.49343832,,,,,,,,,,,,,,,,,,,,,,,,,,,,,,,,,48,3.3868,1,0,20,20,1,1,6,×,8,6 × 8,incongruent,smallerFirst,2,1,48,,,,,,,,
,,,,,,,,,,,,,,,795,2022-01-17_09h08.01.262,multiplicationStroop,2021.2.3,Win32,52.49343832,,,,,,,,,,,,,,,,,,,,,,,,,,,,,,,,,16,1.3913,1,0,21,21,23,1,8,×,2,8 × 2,incongruent,largerFirst,1,2,16,,,,,,,,
,,,,,,,,,,,,,,,795,2022-01-17_09h08.01.262,multiplicationStroop,2021.2.3,Win32,52.49343832,,,,,,,,,,,,,,,,,,,,,,,,,,,,,,,,,25,1.3981,1,0,22,22,31,1,5,×,5,5 × 5,incongruent,tie,1,2,25,,,,,,,,
,,,,,,,,,,,,,,,795,2022-01-17_09h08.01.262,multiplicationStroop,2021.2.3,Win32,52.49343832,,,,,,,,,,,,,,,,,,,,,,,,,,,,,,,,,54,1.848,1,0,23,23,6,1,6,×,9,6 × 9,incongruent,smallerFirst,2,1,54,,,,,,,,
,,,,,,,,,,,,,,,795,2022-01-17_09h08.01.262,multiplicationStroop,2021.2.3,Win32,52.49343832,,,,,,,,,,,,,,,,,,,,,,,,,,,,,,,,,14,1.3317,1,0,24,24,4,1,2,×,7,2 × 7,incongruent,smallerFirst,2,1,14,,,,,,,,
,,,,,,,,,,,,,,,795,2022-01-17_09h08.01.262,multiplicationStroop,2021.2.3,Win32,52.49343832,,,,,,,,,,,,,,,,,,,,,,,,,,,,,,,,,81,2.0977,0,0,25,25,0,1,8,×,9,8 × 9,incongruent,smallerFirst,2,1,72,,,,,,,,
,,,,,,,,,,,,,,,795,2022-01-17_09h08.01.262,multiplicationStroop,2021.2.3,Win32,52.49343832,,,,,,,,,,,,,,,,,,,,,,,,,,,,,,,,,6,2.7801,1,0,26,26,11,1,2,×,3,2 × 3,incongruent,smallerFirst,2,1,6,,,,,,,,
,,,,,,,,,,,,,,,795,2022-01-17_09h08.01.262,multiplicationStroop,2021.2.3,Win32,52.49343832,,,,,,,,,,,,,,,,,,,,,,,,,,,,,,,,,27,2.1316,1,0,27,27,18,1,9,×,3,9 × 3,incongruent,largerFirst,1,2,27,,,,,,,,
,,,,,,,,,,,,,,,795,2022-01-17_09h08.01.262,multiplicationStroop,2021.2.3,Win32,52.49343832,,,,,,,,,,,,,,,,,,,,,,,,,,,,,,,,,45,1.4472,1,0,28,28,22,1,9,×,5,9 × 5,incongruent,largerFirst,1,2,45,,,,,,,,
,,,,,,,,,,,,,,,795,2022-01-17_09h08.01.262,multiplicationStroop,2021.2.3,Win32,52.49343832,,,,,,,,,,,,,,,,,,,,,,,,,,,,,,,,,35,1.5816,1,0,29,29,12,1,5,×,7,5 × 7,incongruent,smallerFirst,2,1,35,,,,,,,,
,,,,,,,,,,,,,,,795,2022-01-17_09h08.01.262,multiplicationStroop,2021.2.3,Win32,52.49343832,,,,,,,,,,,,,,,,,,,,,,,,,,,,,,,,,8,1.6146,1,0,30,30,24,1,4,×,2,4 × 2,incongruent,largerFirst,1,2,8,,,,,,,,
,,,,,,,,,,,,,,,795,2022-01-17_09h08.01.262,multiplicationStroop,2021.2.3,Win32,52.49343832,,,,,,,,,,,,,,,,,,,,,,,,,,,,,,,,,16,1.4655,1,0,31,31,30,1,4,×,4,4 × 4,incongruent,tie,1,2,16,,,,,,,,
,,,,,,,,,,,,,,,795,2022-01-17_09h08.01.262,multiplicationStroop,2021.2.3,Win32,52.49343832,,,,,,,,,,,,,,,,,,,,,,,,,,,,,,,,,36,1.8477,1,0,32,32,32,1,6,×,6,6 × 6,incongruent,tie,1,2,36,,,,,,,,
,,,,,,,,,,,,,,,795,2022-01-17_09h08.01.262,multiplicationStroop,2021.2.3,Win32,52.49343832,,,,,,,,,,,,,,,,,,,,,,,,,,,,,,,,,49,9.1743,1,0,33,33,33,1,7,×,7,7 × 7,incongruent,tie,1,2,49,,,,,,,,
,,,,,,,,,,,,,,,795,2022-01-17_09h08.01.262,multiplicationStroop,2021.2.3,Win32,52.49343832,,,,,,,,,,,,,,,,,,,,,,,,,,,,,,,,,18,1.4269,1,0,34,34,2,1,2,×,9,2 × 9,incongruent,smallerFirst,2,1,18,,,,,,,,
,,,,,,,,,,,,,,,795,2022-01-17_09h08.01.262,multiplicationStroop,2021.2.3,Win32,52.49343832,,,,,,,,,,,,,,,,,,,,,,,,,,,,,,,,,40,1.5934,1,0,35,35,13,1,5,×,8,5 × 8,incongruent,smallerFirst,2,1,40,,,,,,,,
,,,,,,,,,,,,,,,795,2022-01-17_09h08.01.262,multiplicationStroop,2021.2.3,Win32,52.49343832,,,,,,,,,,,,,,,,,,,,,,,,,,,,,,,,,,,,,,,,,,,,,,,,,,0,1,1,5,1,stimulusFile/mult_blk6_INcongruent.xlsx,,
,,,,,,,,,,,,,,,795,2022-01-17_09h08.01.262,multiplicationStroop,2021.2.3,Win32,52.49343832,,,,,,,,,,,,,,,,,,,,,,,,,,,,,,,space,56.8646,35,1.463,1,0,0,0,15,1,7,×,5,7 × 5,congruent,largerFirst,2,1,35,,,,,,,,
,,,,,,,,,,,,,,,795,2022-01-17_09h08.01.262,multiplicationStroop,2021.2.3,Win32,52.49343832,,,,,,,,,,,,,,,,,,,,,,,,,,,,,,,,,48,1.6644,1,0,1,1,4,1,6,×,8,6 × 8,congruent,smallerFirst,1,2,48,,,,,,,,
,,,,,,,,,,,,,,,795,2022-01-17_09h08.01.262,multiplicationStroop,2021.2.3,Win32,52.49343832,,,,,,,,,,,,,,,,,,,,,,,,,,,,,,,,,24,1.385,1,0,2,2,24,1,8,×,3,8 × 3,congruent,largerFirst,2,1,24,,,,,,,,
,,,,,,,,,,,,,,,795,2022-01-17_09h08.01.262,multiplicationStroop,2021.2.3,Win32,52.49343832,,,,,,,,,,,,,,,,,,,,,,,,,,,,,,,,,63,2.6587,1,0,3,3,7,1,7,×,9,7 × 9,congruent,smallerFirst,1,2,63,,,,,,,,
,,,,,,,,,,,,,,,795,2022-01-17_09h08.01.262,multiplicationStroop,2021.2.3,Win32,52.49343832,,,,,,,,,,,,,,,,,,,,,,,,,,,,,,,,,56,2.7965,1,0,4,4,22,1,8,×,7,8 × 7,congruent,largerFirst,2,1,56,,,,,,,,
,,,,,,,,,,,,,,,795,2022-01-17_09h08.01.262,multiplicationStroop,2021.2.3,Win32,52.49343832,,,,,,,,,,,,,,,,,,,,,,,,,,,,,,,,,16,1.4148,1,0,5,5,19,1,8,×,2,8 × 2,congruent,largerFirst,2,1,16,,,,,,,,
,,,,,,,,,,,,,,,795,2022-01-17_09h08.01.262,multiplicationStroop,2021.2.3,Win32,52.49343832,,,,,,,,,,,,,,,,,,,,,,,,,,,,,,,,,42,1.7522,1,0,6,6,17,1,7,×,6,7 × 6,congruent,largerFirst,2,1,42,,,,,,,,
,,,,,,,,,,,,,,,795,2022-01-17_09h08.01.262,multiplicationStroop,2021.2.3,Win32,52.49343832,,,,,,,,,,,,,,,,,,,,,,,,,,,,,,,,,18,1.5605,1,0,7,7,8,1,2,×,9,2 × 9,congruent,smallerFirst,1,2,18,,,,,,,,
,,,,,,,,,,,,,,,795,2022-01-17_09h08.01.262,multiplicationStroop,2021.2.3,Win32,52.49343832,,,,,,,,,,,,,,,,,,,,,,,,,,,,,,,,,6,1.3481,1,0,8,8,27,1,3,×,2,3 × 2,congruent,largerFirst,2,1,6,,,,,,,,
,,,,,,,,,,,,,,,795,2022-01-17_09h08.01.262,multiplicationStroop,2021.2.3,Win32,52.49343832,,,,,,,,,,,,,,,,,,,,,,,,,,,,,,,,,12,1.2817,1,0,9,9,5,1,2,×,6,2 × 6,congruent,smallerFirst,1,2,12,,,,,,,,
,,,,,,,,,,,,,,,795,2022-01-17_09h08.01.262,multiplicationStroop,2021.2.3,Win32,52.49343832,,,,,,,,,,,,,,,,,,,,,,,,,,,,,,,,,8,1.4476,1,0,10,10,23,1,4,×,2,4 × 2,congruent,largerFirst,2,1,8,,,,,,,,
,,,,,,,,,,,,,,,795,2022-01-17_09h08.01.262,multiplicationStroop,2021.2.3,Win32,52.49343832,,,,,,,,,,,,,,,,,,,,,,,,,,,,,,,,,15,1.415,1,0,11,11,18,1,5,×,3,5 × 3,congruent,largerFirst,2,1,15,,,,,,,,
,,,,,,,,,,,,,,,795,2022-01-17_09h08.01.262,multiplicationStroop,2021.2.3,Win32,52.49343832,,,,,,,,,,,,,,,,,,,,,,,,,,,,,,,,,9,1.4987,1,0,12,12,29,1,3,×,3,3 × 3,neutral,tie,1,2,9,,,,,,,,
,,,,,,,,,,,,,,,795,2022-01-17_09h08.01.262,multiplicationStroop,2021.2.3,Win32,52.49343832,,,,,,,,,,,,,,,,,,,,,,,,,,,,,,,,,30,1.7309,1,0,13,13,1,1,5,×,6,5 × 6,congruent,smallerFirst,1,2,30,,,,,,,,
,,,,,,,,,,,,,,,795,2022-01-17_09h08.01.262,multiplicationStroop,2021.2.3,Win32,52.49343832,,,,,,,,,,,,,,,,,,,,,,,,,,,,,,,,,49,2.9633,1,0,14,14,33,1,7,×,7,7 × 7,neutral,tie,1,2,49,,,,,,,,
,,,,,,,,,,,,,,,795,2022-01-17_09h08.01.262,multiplicationStroop,2021.2.3,Win32,52.49343832,,,,,,,,,,,,,,,,,,,,,,,,,,,,,,,,,56,2.8401,0,0,15,15,34,1,8,×,8,8 × 8,neutral,tie,1,2,64,,,,,,,,
,,,,,,,,,,,,,,,795,2022-01-17_09h08.01.262,multiplicationStroop,2021.2.3,Win32,52.49343832,,,,,,,,,,,,,,,,,,,,,,,,,,,,,,,,,28,2.1311,1,0,16,16,13,1,4,×,7,4 × 7,congruent,smallerFirst,1,2,28,,,,,,,,
,,,,,,,,,,,,,,,795,2022-01-17_09h08.01.262,multiplicationStroop,2021.2.3,Win32,52.49343832,,,,,,,,,,,,,,,,,,,,,,,,,,,,,,,,,27,2.8967,1,0,17,17,12,1,3,×,9,3 × 9,congruent,smallerFirst,1,2,27,,,,,,,,
,,,,,,,,,,,,,,,795,2022-01-17_09h08.01.262,multiplicationStroop,2021.2.3,Win32,52.49343832,,,,,,,,,,,,,,,,,,,,,,,,,,,,,,,,,20,1.8399,1,0,18,18,21,1,5,×,4,5 × 4,congruent,largerFirst,2,1,20,,,,,,,,
,,,,,,,,,,,,,,,795,2022-01-17_09h08.01.262,multiplicationStroop,2021.2.3,Win32,52.49343832,,,,,,,,,,,,,,,,,,,,,,,,,,,,,,,,,45,1.5523,1,0,19,19,9,1,5,×,9,5 × 9,congruent,smallerFirst,1,2,45,,,,,,,,
,,,,,,,,,,,,,,,795,2022-01-17_09h08.01.262,multiplicationStroop,2021.2.3,Win32,52.49343832,,,,,,,,,,,,,,,,,,,,,,,,,,,,,,,,,54,3.1928,1,0,20,20,26,1,9,×,6,9 × 6,congruent,largerFirst,2,1,54,,,,,,,,
,,,,,,,,,,,,,,,795,2022-01-17_09h08.01.262,multiplicationStroop,2021.2.3,Win32,52.49343832,,,,,,,,,,,,,,,,,,,,,,,,,,,,,,,,,18,2.137,1,0,21,21,25,1,6,×,3,6 × 3,congruent,largerFirst,2,1,18,,,,,,,,
,,,,,,,,,,,,,,,795,2022-01-17_09h08.01.262,multiplicationStroop,2021.2.3,Win32,52.49343832,,,,,,,,,,,,,,,,,,,,,,,,,,,,,,,,,1,1.4481,0,0,22,22,0,1,2,×,7,2 × 7,congruent,smallerFirst,1,2,14,,,,,,,,
,,,,,,,,,,,,,,,795,2022-01-17_09h08.01.262,multiplicationStroop,2021.2.3,Win32,52.49343832,,,,,,,,,,,,,,,,,,,,,,,,,,,,,,,,,24,2.264,1,0,23,23,11,1,4,×,6,4 × 6,congruent,smallerFirst,1,2,24,,,,,,,,
,,,,,,,,,,,,,,,795,2022-01-17_09h08.01.262,multiplicationStroop,2021.2.3,Win32,52.49343832,,,,,,,,,,,,,,,,,,,,,,,,,,,,,,,,,12,1.3148,1,0,24,24,16,1,4,×,3,4 × 3,congruent,largerFirst,2,1,12,,,,,,,,
,,,,,,,,,,,,,,,795,2022-01-17_09h08.01.262,multiplicationStroop,2021.2.3,Win32,52.49343832,,,,,,,,,,,,,,,,,,,,,,,,,,,,,,,,,2,1.4982,0,0,25,25,2,1,3,×,7,3 × 7,congruent,smallerFirst,1,2,21,,,,,,,,
,,,,,,,,,,,,,,,795,2022-01-17_09h08.01.262,multiplicationStroop,2021.2.3,Win32,52.49343832,,,,,,,,,,,,,,,,,,,,,,,,,,,,,,,,,40,1.6983,1,0,26,26,20,1,8,×,5,8 × 5,congruent,largerFirst,2,1,40,,,,,,,,
,,,,,,,,,,,,,,,795,2022-01-17_09h08.01.262,multiplicationStroop,2021.2.3,Win32,52.49343832,,,,,,,,,,,,,,,,,,,,,,,,,,,,,,,,,10,1.4982,1,0,27,27,10,1,2,×,5,2 × 5,congruent,smallerFirst,1,2,10,,,,,,,,
,,,,,,,,,,,,,,,795,2022-01-17_09h08.01.262,multiplicationStroop,2021.2.3,Win32,52.49343832,,,,,,,,,,,,,,,,,,,,,,,,,,,,,,,,,16,2.2971,1,0,28,28,30,1,4,×,4,4 × 4,neutral,tie,1,2,16,,,,,,,,
,,,,,,,,,,,,,,,795,2022-01-17_09h08.01.262,multiplicationStroop,2021.2.3,Win32,52.49343832,,,,,,,,,,,,,,,,,,,,,,,,,,,,,,,,,32,1.7148,1,0,29,29,6,1,4,×,8,4 × 8,congruent,smallerFirst,1,2,32,,,,,,,,
,,,,,,,,,,,,,,,795,2022-01-17_09h08.01.262,multiplicationStroop,2021.2.3,Win32,52.49343832,,,,,,,,,,,,,,,,,,,,,,,,,,,,,,,,,36,3.4614,1,0,30,30,14,1,9,×,4,9 × 4,congruent,largerFirst,2,1,36,,,,,,,,
,,,,,,,,,,,,,,,795,2022-01-17_09h08.01.262,multiplicationStroop,2021.2.3,Win32,52.49343832,,,,,,,,,,,,,,,,,,,,,,,,,,,,,,,,,4,1.2928,1,0,31,31,28,1,2,×,2,2 × 2,neutral,tie,1,2,4,,,,,,,,
,,,,,,,,,,,,,,,795,2022-01-17_09h08.01.262,multiplicationStroop,2021.2.3,Win32,52.49343832,,,,,,,,,,,,,,,,,,,,,,,,,,,,,,,,,81,2.6245,1,0,32,32,35,1,9,×,9,9 × 9,neutral,tie,1,2,81,,,,,,,,
,,,,,,,,,,,,,,,795,2022-01-17_09h08.01.262,multiplicationStroop,2021.2.3,Win32,52.49343832,,,,,,,,,,,,,,,,,,,,,,,,,,,,,,,,,72,3.0038,1,0,33,33,3,1,8,×,9,8 × 9,congruent,smallerFirst,1,2,72,,,,,,,,
,,,,,,,,,,,,,,,795,2022-01-17_09h08.01.262,multiplicationStroop,2021.2.3,Win32,52.49343832,,,,,,,,,,,,,,,,,,,,,,,,,,,,,,,,,36,1.5484,1,0,34,34,32,1,6,×,6,6 × 6,neutral,tie,1,2,36,,,,,,,,
,,,,,,,,,,,,,,,795,2022-01-17_09h08.01.262,multiplicationStroop,2021.2.3,Win32,52.49343832,,,,,,,,,,,,,,,,,,,,,,,,,,,,,,,,,25,1.6146,1,0,35,35,31,1,5,×,5,5 × 5,neutral,tie,1,2,25,,,,,,,,
,,,,,,,,,,,,,,,795,2022-01-17_09h08.01.262,multiplicationStroop,2021.2.3,Win32,52.49343832,,,,,,,,,,,,,,,,,,,,,,,,,,,,,,,,,,,,,,,,,,,,,,,,,,0,2,2,3,1,stimulusFile/mult_blk4_congruent.xlsx,,
,,,,,,,,,,,,,,,795,2022-01-17_09h08.01.262,multiplicationStroop,2021.2.3,Win32,52.49343832,,,,,,,,,,,,,,,,,,,,,,,,,,,,,,,space,0.8495,15,1.6732,1,0,0,0,4,1,3,×,5,3 × 5,congruent,smallerFirst,1,2,15,,,,,,,,
,,,,,,,,,,,,,,,795,2022-01-17_09h08.01.262,multiplicationStroop,2021.2.3,Win32,52.49343832,,,,,,,,,,,,,,,,,,,,,,,,,,,,,,,,,64,1.8315,1,0,1,1,34,1,8,×,8,8 × 8,neutral,tie,2,1,64,,,,,,,,
,,,,,,,,,,,,,,,795,2022-01-17_09h08.01.262,multiplicationStroop,2021.2.3,Win32,52.49343832,,,,,,,,,,,,,,,,,,,,,,,,,,,,,,,,,35,1.6641,1,0,2,2,1,1,5,×,7,5 × 7,congruent,smallerFirst,1,2,35,,,,,,,,
,,,,,,,,,,,,,,,795,2022-01-17_09h08.01.262,multiplicationStroop,2021.2.3,Win32,52.49343832,,,,,,,,,,,,,,,,,,,,,,,,,,,,,,,,,18,1.6984,1,0,3,3,11,1,3,×,6,3 × 6,congruent,smallerFirst,1,2,18,,,,,,,,
,,,,,,,,,,,,,,,795,2022-01-17_09h08.01.262,multiplicationStroop,2021.2.3,Win32,52.49343832,,,,,,,,,,,,,,,,,,,,,,,,,,,,,,,,,42,2.0478,1,0,4,4,3,1,6,×,7,6 × 7,congruent,smallerFirst,1,2,42,,,,,,,,
,,,,,,,,,,,,,,,795,2022-01-17_09h08.01.262,multiplicationStroop,2021.2.3,Win32,52.49343832,,,,,,,,,,,,,,,,,,,,,,,,,,,,,,,,,8,1.6571,1,0,5,5,9,1,2,×,4,2 × 4,congruent,smallerFirst,1,2,8,,,,,,,,
,,,,,,,,,,,,,,,795,2022-01-17_09h08.01.262,multiplicationStroop,2021.2.3,Win32,52.49343832,,,,,,,,,,,,,,,,,,,,,,,,,,,,,,,,,54,4.5285,1,0,6,6,12,1,6,×,9,6 × 9,congruent,smallerFirst,1,2,54,,,,,,,,
,,,,,,,,,,,,,,,795,2022-01-17_09h08.01.262,multiplicationStroop,2021.2.3,Win32,52.49343832,,,,,,,,,,,,,,,,,,,,,,,,,,,,,,,,,49,3.9351,1,0,7,7,33,1,7,×,7,7 × 7,neutral,tie,2,1,49,,,,,,,,
,,,,,,,,,,,,,,,795,2022-01-17_09h08.01.262,multiplicationStroop,2021.2.3,Win32,52.49343832,,,,,,,,,,,,,,,,,,,,,,,,,,,,,,,,,24,2.3574,1,0,8,8,25,1,6,×,4,6 × 4,congruent,largerFirst,2,1,24,,,,,,,,
,,,,,,,,,,,,,,,795,2022-01-17_09h08.01.262,multiplicationStroop,2021.2.3,Win32,52.49343832,,,,,,,,,,,,,,,,,,,,,,,,,,,,,,,,,27,1.6477,1,0,9,9,26,1,9,×,3,9 × 3,congruent,largerFirst,2,1,27,,,,,,,,
,,,,,,,,,,,,,,,795,2022-01-17_09h08.01.262,multiplicationStroop,2021.2.3,Win32,52.49343832,,,,,,,,,,,,,,,,,,,,,,,,,,,,,,,,,45,1.5651,1,0,10,10,23,1,9,×,5,9 × 5,congruent,largerFirst,2,1,45,,,,,,,,
,,,,,,,,,,,,,,,795,2022-01-17_09h08.01.262,multiplicationStroop,2021.2.3,Win32,52.49343832,,,,,,,,,,,,,,,,,,,,,,,,,,,,,,,,,14,1.2984,1,0,11,11,14,1,7,×,2,7 × 2,congruent,largerFirst,2,1,14,,,,,,,,
,,,,,,,,,,,,,,,795,2022-01-17_09h08.01.262,multiplicationStroop,2021.2.3,Win32,52.49343832,,,,,,,,,,,,,,,,,,,,,,,,,,,,,,,,,16,1.3322,1,0,12,12,5,1,2,×,8,2 × 8,congruent,smallerFirst,1,2,16,,,,,,,,
,,,,,,,,,,,,,,,795,2022-01-17_09h08.01.262,multiplicationStroop,2021.2.3,Win32,52.49343832,,,,,,,,,,,,,,,,,,,,,,,,,,,,,,,,,12,1.3479,1,0,13,13,19,1,6,×,2,6 × 2,congruent,largerFirst,2,1,12,,,,,,,,
,,,,,,,,,,,,,,,795,2022-01-17_09h08.01.262,multiplicationStroop,2021.2.3,Win32,52.49343832,,,,,,,,,,,,,,,,,,,,,,,,,,,,,,,,,72,2.1142,1,0,14,14,17,1,9,×,8,9 × 8,congruent,largerFirst,2,1,72,,,,,,,,
,,,,,,,,,,,,,,,795,2022-01-17_09h08.01.262,multiplicationStroop,2021.2.3,Win32,52.49343832,,,,,,,,,,,,,,,,,,,,,,,,,,,,,,,,,63,8.3413,1,0,15,15,21,1,9,×,7,9 × 7,congruent,largerFirst,2,1,63,,,,,,,,
,,,,,,,,,,,,,,,795,2022-01-17_09h08.01.262,multiplicationStroop,2021.2.3,Win32,52.49343832,,,,,,,,,,,,,,,,,,,,,,,,,,,,,,,,,28,2.3735,1,0,16,16,27,1,7,×,4,7 × 4,congruent,largerFirst,2,1,28,,,,,,,,
,,,,,,,,,,,,,,,795,2022-01-17_09h08.01.262,multiplicationStroop,2021.2.3,Win32,52.49343832,,,,,,,,,,,,,,,,,,,,,,,,,,,,,,,,,2,1.3485,0,0,17,17,31,1,5,×,5,5 × 5,neutral,tie,2,1,25,,,,,,,,
,,,,,,,,,,,,,,,795,2022-01-17_09h08.01.262,multiplicationStroop,2021.2.3,Win32,52.49343832,,,,,,,,,,,,,,,,,,,,,,,,,,,,,,,,,20,1.8644,1,0,18,18,7,1,4,×,5,4 × 5,congruent,smallerFirst,1,2,20,,,,,,,,
,,,,,,,,,,,,,,,795,2022-01-17_09h08.01.262,multiplicationStroop,2021.2.3,Win32,52.49343832,,,,,,,,,,,,,,,,,,,,,,,,,,,,,,,,,16,1.6317,1,0,19,19,30,1,4,×,4,4 × 4,neutral,tie,2,1,16,,,,,,,,
,,,,,,,,,,,,,,,795,2022-01-17_09h08.01.262,multiplicationStroop,2021.2.3,Win32,52.49343832,,,,,,,,,,,,,,,,,,,,,,,,,,,,,,,,,6,1.4644,1,0,20,20,13,1,2,×,3,2 × 3,congruent,smallerFirst,1,2,6,,,,,,,,
,,,,,,,,,,,,,,,795,2022-01-17_09h08.01.262,multiplicationStroop,2021.2.3,Win32,52.49343832,,,,,,,,,,,,,,,,,,,,,,,,,,,,,,,,,56,7.4594,1,0,21,21,8,1,7,×,8,7 × 8,congruent,smallerFirst,1,2,56,,,,,,,,
,,,,,,,,,,,,,,,795,2022-01-17_09h08.01.262,multiplicationStroop,2021.2.3,Win32,52.49343832,,,,,,,,,,,,,,,,,,,,,,,,,,,,,,,,,32,2.0739,1,0,22,22,20,1,8,×,4,8 × 4,congruent,largerFirst,2,1,32,,,,,,,,
,,,,,,,,,,,,,,,795,2022-01-17_09h08.01.262,multiplicationStroop,2021.2.3,Win32,52.49343832,,,,,,,,,,,,,,,,,,,,,,,,,,,,,,,,,30,1.6146,1,0,23,23,15,1,6,×,5,6 × 5,congruent,largerFirst,2,1,30,,,,,,,,
,,,,,,,,,,,,,,,795,2022-01-17_09h08.01.262,multiplicationStroop,2021.2.3,Win32,52.49343832,,,,,,,,,,,,,,,,,,,,,,,,,,,,,,,,,4,1.2653,1,0,24,24,28,1,2,×,2,2 × 2,neutral,tie,2,1,4,,,,,,,,
,,,,,,,,,,,,,,,795,2022-01-17_09h08.01.262,multiplicationStroop,2021.2.3,Win32,52.49343832,,,,,,,,,,,,,,,,,,,,,,,,,,,,,,,,,40,1.598,1,0,25,25,6,1,5,×,8,5 × 8,congruent,smallerFirst,1,2,40,,,,,,,,
,,,,,,,,,,,,,,,795,2022-01-17_09h08.01.262,multiplicationStroop,2021.2.3,Win32,52.49343832,,,,,,,,,,,,,,,,,,,,,,,,,,,,,,,,,36,2.0981,1,0,26,26,0,1,4,×,9,4 × 9,congruent,smallerFirst,1,2,36,,,,,,,,
,,,,,,,,,,,,,,,795,2022-01-17_09h08.01.262,multiplicationStroop,2021.2.3,Win32,52.49343832,,,,,,,,,,,,,,,,,,,,,,,,,,,,,,,,,12,1.3478,1,0,27,27,2,1,3,×,4,3 × 4,congruent,smallerFirst,1,2,12,,,,,,,,
,,,,,,,,,,,,,,,795,2022-01-17_09h08.01.262,multiplicationStroop,2021.2.3,Win32,52.49343832,,,,,,,,,,,,,,,,,,,,,,,,,,,,,,,,,24,1.3647,1,0,28,28,10,1,3,×,8,3 × 8,congruent,smallerFirst,1,2,24,,,,,,,,
,,,,,,,,,,,,,,,795,2022-01-17_09h08.01.262,multiplicationStroop,2021.2.3,Win32,52.49343832,,,,,,,,,,,,,,,,,,,,,,,,,,,,,,,,,10,1.4316,1,0,29,29,24,1,5,×,2,5 × 2,congruent,largerFirst,2,1,10,,,,,,,,
,,,,,,,,,,,,,,,795,2022-01-17_09h08.01.262,multiplicationStroop,2021.2.3,Win32,52.49343832,,,,,,,,,,,,,,,,,,,,,,,,,,,,,,,,,21,1.8642,1,0,30,30,16,1,7,×,3,7 × 3,congruent,largerFirst,2,1,21,,,,,,,,
,,,,,,,,,,,,,,,795,2022-01-17_09h08.01.262,multiplicationStroop,2021.2.3,Win32,52.49343832,,,,,,,,,,,,,,,,,,,,,,,,,,,,,,,,,18,1.8144,1,0,31,31,22,1,9,×,2,9 × 2,congruent,largerFirst,2,1,18,,,,,,,,
,,,,,,,,,,,,,,,795,2022-01-17_09h08.01.262,multiplicationStroop,2021.2.3,Win32,52.49343832,,,,,,,,,,,,,,,,,,,,,,,,,,,,,,,,,9,1.6485,1,0,32,32,29,1,3,×,3,3 × 3,neutral,tie,2,1,9,,,,,,,,
,,,,,,,,,,,,,,,795,2022-01-17_09h08.01.262,multiplicationStroop,2021.2.3,Win32,52.49343832,,,,,,,,,,,,,,,,,,,,,,,,,,,,,,,,,36,1.9477,1,0,33,33,32,1,6,×,6,6 × 6,neutral,tie,2,1,36,,,,,,,,
,,,,,,,,,,,,,,,795,2022-01-17_09h08.01.262,multiplicationStroop,2021.2.3,Win32,52.49343832,,,,,,,,,,,,,,,,,,,,,,,,,,,,,,,,,48,3.2794,1,0,34,34,18,1,8,×,6,8 × 6,congruent,largerFirst,2,1,48,,,,,,,,
,,,,,,,,,,,,,,,795,2022-01-17_09h08.01.262,multiplicationStroop,2021.2.3,Win32,52.49343832,,,,,,,,,,,,,,,,,,,,,,,,,,,,,,,,,81,1.9477,1,0,35,35,35,1,9,×,9,9 × 9,neutral,tie,2,1,81,,,,,,,,
,,,,,,,,,,,,,,,795,2022-01-17_09h08.01.262,multiplicationStroop,2021.2.3,Win32,52.49343832,,,,,,,,,,,,,,,,,,,,,,,,,,,,,,,,,,,,,,,,,,,,,,,,,,0,3,3,2,1,stimulusFile/mult_blk3_congruent.xlsx,,
,,,,,,,,,,,,,,,795,2022-01-17_09h08.01.262,multiplicationStroop,2021.2.3,Win32,52.49343832,,,,,,,,,,,,,,,,,,,,,,,,,,,,,,,space,1.0677,45,1.4063,1,0,0,0,8,1,5,×,9,5 × 9,incongruent,smallerFirst,2,1,45,,,,,,,,
,,,,,,,,,,,,,,,795,2022-01-17_09h08.01.262,multiplicationStroop,2021.2.3,Win32,52.49343832,,,,,,,,,,,,,,,,,,,,,,,,,,,,,,,,,24,1.5811,1,0,1,1,6,1,4,×,6,4 × 6,incongruent,smallerFirst,2,1,24,,,,,,,,
,,,,,,,,,,,,,,,795,2022-01-17_09h08.01.262,multiplicationStroop,2021.2.3,Win32,52.49343832,,,,,,,,,,,,,,,,,,,,,,,,,,,,,,,,,40,1.5319,1,0,2,2,27,1,8,×,5,8 × 5,incongruent,largerFirst,1,2,40,,,,,,,,
,,,,,,,,,,,,,,,795,2022-01-17_09h08.01.262,multiplicationStroop,2021.2.3,Win32,52.49343832,,,,,,,,,,,,,,,,,,,,,,,,,,,,,,,,,56,2.5468,1,0,3,3,0,1,7,×,8,7 × 8,incongruent,smallerFirst,2,1,56,,,,,,,,
,,,,,,,,,,,,,,,795,2022-01-17_09h08.01.262,multiplicationStroop,2021.2.3,Win32,52.49343832,,,,,,,,,,,,,,,,,,,,,,,,,,,,,,,,,64,1.6984,1,0,4,4,34,1,8,×,8,8 × 8,neutral,tie,2,1,64,,,,,,,,
,,,,,,,,,,,,,,,795,2022-01-17_09h08.01.262,multiplicationStroop,2021.2.3,Win32,52.49343832,,,,,,,,,,,,,,,,,,,,,,,,,,,,,,,,,4,1.181,1,0,5,5,28,1,2,×,2,2 × 2,neutral,tie,2,1,4,,,,,,,,
,,,,,,,,,,,,,,,795,2022-01-17_09h08.01.262,multiplicationStroop,2021.2.3,Win32,52.49343832,,,,,,,,,,,,,,,,,,,,,,,,,,,,,,,,,42,4.263,1,0,6,6,3,1,6,×,7,6 × 7,incongruent,smallerFirst,2,1,42,,,,,,,,
,,,,,,,,,,,,,,,795,2022-01-17_09h08.01.262,multiplicationStroop,2021.2.3,Win32,52.49343832,,,,,,,,,,,,,,,,,,,,,,,,,,,,,,,,,63,6.2668,1,0,7,7,17,1,9,×,7,9 × 7,incongruent,largerFirst,1,2,63,,,,,,,,
,,,,,,,,,,,,,,,795,2022-01-17_09h08.01.262,multiplicationStroop,2021.2.3,Win32,52.49343832,,,,,,,,,,,,,,,,,,,,,,,,,,,,,,,,,24,1.5243,1,0,8,8,23,1,8,×,3,8 × 3,incongruent,largerFirst,1,2,24,,,,,,,,
,,,,,,,,,,,,,,,795,2022-01-17_09h08.01.262,multiplicationStroop,2021.2.3,Win32,52.49343832,,,,,,,,,,,,,,,,,,,,,,,,,,,,,,,,,30,3.1129,1,0,9,9,11,1,5,×,6,5 × 6,incongruent,smallerFirst,2,1,30,,,,,,,,
,,,,,,,,,,,,,,,795,2022-01-17_09h08.01.262,multiplicationStroop,2021.2.3,Win32,52.49343832,,,,,,,,,,,,,,,,,,,,,,,,,,,,,,,,,21,1.5817,1,0,10,10,12,1,3,×,7,3 × 7,incongruent,smallerFirst,2,1,21,,,,,,,,
,,,,,,,,,,,,,,,795,2022-01-17_09h08.01.262,multiplicationStroop,2021.2.3,Win32,52.49343832,,,,,,,,,,,,,,,,,,,,,,,,,,,,,,,,,54,1.9309,1,0,11,11,20,1,9,×,6,9 × 6,incongruent,largerFirst,1,2,54,,,,,,,,
,,,,,,,,,,,,,,,795,2022-01-17_09h08.01.262,multiplicationStroop,2021.2.3,Win32,52.49343832,,,,,,,,,,,,,,,,,,,,,,,,,,,,,,,,,12,1.7151,1,0,12,12,19,1,4,×,3,4 × 3,incongruent,largerFirst,1,2,12,,,,,,,,
,,,,,,,,,,,,,,,795,2022-01-17_09h08.01.262,multiplicationStroop,2021.2.3,Win32,52.49343832,,,,,,,,,,,,,,,,,,,,,,,,,,,,,,,,,25,1.4982,1,0,13,13,31,1,5,×,5,5 × 5,neutral,tie,2,1,25,,,,,,,,
,,,,,,,,,,,,,,,795,2022-01-17_09h08.01.262,multiplicationStroop,2021.2.3,Win32,52.49343832,,,,,,,,,,,,,,,,,,,,,,,,,,,,,,,,,27,1.648,1,0,14,14,4,1,3,×,9,3 × 9,incongruent,smallerFirst,2,1,27,,,,,,,,
,,,,,,,,,,,,,,,795,2022-01-17_09h08.01.262,multiplicationStroop,2021.2.3,Win32,52.49343832,,,,,,,,,,,,,,,,,,,,,,,,,,,,,,,,,81,1.9805,1,0,15,15,35,1,9,×,9,9 × 9,neutral,tie,2,1,81,,,,,,,,
,,,,,,,,,,,,,,,795,2022-01-17_09h08.01.262,multiplicationStroop,2021.2.3,Win32,52.49343832,,,,,,,,,,,,,,,,,,,,,,,,,,,,,,,,,16,1.8148,1,0,16,16,30,1,4,×,4,4 × 4,neutral,tie,2,1,16,,,,,,,,
,,,,,,,,,,,,,,,795,2022-01-17_09h08.01.262,multiplicationStroop,2021.2.3,Win32,52.49343832,,,,,,,,,,,,,,,,,,,,,,,,,,,,,,,,,12,1.3478,1,0,17,17,5,1,2,×,6,2 × 6,incongruent,smallerFirst,2,1,12,,,,,,,,
,,,,,,,,,,,,,,,795,2022-01-17_09h08.01.262,multiplicationStroop,2021.2.3,Win32,52.49343832,,,,,,,,,,,,,,,,,,,,,,,,,,,,,,,,,72,2.114,1,0,18,18,14,1,9,×,8,9 × 8,incongruent,largerFirst,1,2,72,,,,,,,,
,,,,,,,,,,,,,,,795,2022-01-17_09h08.01.262,multiplicationStroop,2021.2.3,Win32,52.49343832,,,,,,,,,,,,,,,,,,,,,,,,,,,,,,,,,36,1.9981,1,0,19,19,1,1,4,×,9,4 × 9,incongruent,smallerFirst,2,1,36,,,,,,,,
,,,,,,,,,,,,,,,795,2022-01-17_09h08.01.262,multiplicationStroop,2021.2.3,Win32,52.49343832,,,,,,,,,,,,,,,,,,,,,,,,,,,,,,,,,8,1.7475,1,0,20,20,10,1,2,×,4,2 × 4,incongruent,smallerFirst,2,1,8,,,,,,,,
,,,,,,,,,,,,,,,795,2022-01-17_09h08.01.262,multiplicationStroop,2021.2.3,Win32,52.49343832,,,,,,,,,,,,,,,,,,,,,,,,,,,,,,,,,48,2.7297,1,0,21,21,15,1,8,×,6,8 × 6,incongruent,largerFirst,1,2,48,,,,,,,,
,,,,,,,,,,,,,,,795,2022-01-17_09h08.01.262,multiplicationStroop,2021.2.3,Win32,52.49343832,,,,,,,,,,,,,,,,,,,,,,,,,,,,,,,,,15,1.6653,1,0,22,22,24,1,5,×,3,5 × 3,incongruent,largerFirst,1,2,15,,,,,,,,
,,,,,,,,,,,,,,,795,2022-01-17_09h08.01.262,multiplicationStroop,2021.2.3,Win32,52.49343832,,,,,,,,,,,,,,,,,,,,,,,,,,,,,,,,,36,2.0142,1,0,23,23,32,1,6,×,6,6 × 6,neutral,tie,2,1,36,,,,,,,,
,,,,,,,,,,,,,,,795,2022-01-17_09h08.01.262,multiplicationStroop,2021.2.3,Win32,52.49343832,,,,,,,,,,,,,,,,,,,,,,,,,,,,,,,,,6,1.3484,1,0,24,24,25,1,3,×,2,3 × 2,incongruent,largerFirst,1,2,6,,,,,,,,
,,,,,,,,,,,,,,,795,2022-01-17_09h08.01.262,multiplicationStroop,2021.2.3,Win32,52.49343832,,,,,,,,,,,,,,,,,,,,,,,,,,,,,,,,,32,1.9811,1,0,25,25,21,1,8,×,4,8 × 4,incongruent,largerFirst,1,2,32,,,,,,,,
,,,,,,,,,,,,,,,795,2022-01-17_09h08.01.262,multiplicationStroop,2021.2.3,Win32,52.49343832,,,,,,,,,,,,,,,,,,,,,,,,,,,,,,,,,28,2.3347,1,0,26,26,2,1,4,×,7,4 × 7,incongruent,smallerFirst,2,1,28,,,,,,,,
,,,,,,,,,,,,,,,795,2022-01-17_09h08.01.262,multiplicationStroop,2021.2.3,Win32,52.49343832,,,,,,,,,,,,,,,,,,,,,,,,,,,,,,,,,20,2.6594,1,0,27,27,13,1,4,×,5,4 × 5,incongruent,smallerFirst,2,1,20,,,,,,,,
,,,,,,,,,,,,,,,795,2022-01-17_09h08.01.262,multiplicationStroop,2021.2.3,Win32,52.49343832,,,,,,,,,,,,,,,,,,,,,,,,,,,,,,,,,18,1.7317,1,0,28,28,22,1,6,×,3,6 × 3,incongruent,largerFirst,1,2,18,,,,,,,,
,,,,,,,,,,,,,,,795,2022-01-17_09h08.01.262,multiplicationStroop,2021.2.3,Win32,52.49343832,,,,,,,,,,,,,,,,,,,,,,,,,,,,,,,,,10,2.5968,1,0,29,29,7,1,2,×,5,2 × 5,incongruent,smallerFirst,2,1,10,,,,,,,,
,,,,,,,,,,,,,,,795,2022-01-17_09h08.01.262,multiplicationStroop,2021.2.3,Win32,52.49343832,,,,,,,,,,,,,,,,,,,,,,,,,,,,,,,,,9,1.6979,1,0,30,30,29,1,3,×,3,3 × 3,neutral,tie,2,1,9,,,,,,,,
,,,,,,,,,,,,,,,795,2022-01-17_09h08.01.262,multiplicationStroop,2021.2.3,Win32,52.49343832,,,,,,,,,,,,,,,,,,,,,,,,,,,,,,,,,18,1.3983,1,0,31,31,16,1,9,×,2,9 × 2,incongruent,largerFirst,1,2,18,,,,,,,,
,,,,,,,,,,,,,,,795,2022-01-17_09h08.01.262,multiplicationStroop,2021.2.3,Win32,52.49343832,,,,,,,,,,,,,,,,,,,,,,,,,,,,,,,,,14,1.2985,1,0,32,32,18,1,7,×,2,7 × 2,incongruent,largerFirst,1,2,14,,,,,,,,
,,,,,,,,,,,,,,,795,2022-01-17_09h08.01.262,multiplicationStroop,2021.2.3,Win32,52.49343832,,,,,,,,,,,,,,,,,,,,,,,,,,,,,,,,,35,2.9465,1,0,33,33,26,1,7,×,5,7 × 5,incongruent,largerFirst,1,2,35,,,,,,,,
,,,,,,,,,,,,,,,795,2022-01-17_09h08.01.262,multiplicationStroop,2021.2.3,Win32,52.49343832,,,,,,,,,,,,,,,,,,,,,,,,,,,,,,,,,49,2.9801,1,0,34,34,33,1,7,×,7,7 × 7,neutral,tie,2,1,49,,,,,,,,
,,,,,,,,,,,,,,,795,2022-01-17_09h08.01.262,multiplicationStroop,2021.2.3,Win32,52.49343832,,,,,,,,,,,,,,,,,,,,,,,,,,,,,,,,,16,1.9541,1,0,35,35,9,1,2,×,8,2 × 8,incongruent,smallerFirst,2,1,16,,,,,,,,
,,,,,,,,,,,,,,,795,2022-01-17_09h08.01.262,multiplicationStroop,2021.2.3,Win32,52.49343832,,,,,,,,,,,,,,,,,,,,,,,,,,,,,,,,,,,,,,,,,,,,,,,,,,0,4,4,4,1,stimulusFile/mult_blk5_INcongruent.xlsx,,
,,,,,,,,,,,,,,,795,2022-01-17_09h08.01.262,multiplicationStroop,2021.2.3,Win32,52.49343832,,,,,,,,,,,,,,,,,,,,,,,,,,,,,,,space,0.9248,32,1.5907,1,0,0,0,9,1,4,×,8,4 × 8,neutral,smallerFirst,1.5,1.5,32,,,,,,,,
,,,,,,,,,,,,,,,795,2022-01-17_09h08.01.262,multiplicationStroop,2021.2.3,Win32,52.49343832,,,,,,,,,,,,,,,,,,,,,,,,,,,,,,,,,20,1.6313,1,0,1,1,6,1,4,×,5,4 × 5,neutral,smallerFirst,1.5,1.5,20,,,,,,,,
,,,,,,,,,,,,,,,795,2022-01-17_09h08.01.262,multiplicationStroop,2021.2.3,Win32,52.49343832,,,,,,,,,,,,,,,,,,,,,,,,,,,,,,,,,4,1.1982,1,0,2,2,28,1,2,×,2,2 × 2,neutral,tie,1.5,1.5,4,,,,,,,,
,,,,,,,,,,,,,,,795,2022-01-17_09h08.01.262,multiplicationStroop,2021.2.3,Win32,52.49343832,,,,,,,,,,,,,,,,,,,,,,,,,,,,,,,,,45,1.3986,1,0,3,3,24,1,9,×,5,9 × 5,neutral,largerFirst,1.5,1.5,45,,,,,,,,
,,,,,,,,,,,,,,,795,2022-01-17_09h08.01.262,multiplicationStroop,2021.2.3,Win32,52.49343832,,,,,,,,,,,,,,,,,,,,,,,,,,,,,,,,,64,1.681,1,0,4,4,34,1,8,×,8,8 × 8,neutral,tie,1.5,1.5,64,,,,,,,,
,,,,,,,,,,,,,,,795,2022-01-17_09h08.01.262,multiplicationStroop,2021.2.3,Win32,52.49343832,,,,,,,,,,,,,,,,,,,,,,,,,,,,,,,,,28,1.8811,1,0,5,5,3,1,4,×,7,4 × 7,neutral,smallerFirst,1.5,1.5,28,,,,,,,,
,,,,,,,,,,,,,,,795,2022-01-17_09h08.01.262,multiplicationStroop,2021.2.3,Win32,52.49343832,,,,,,,,,,,,,,,,,,,,,,,,,,,,,,,,,9,1.4816,1,0,6,6,29,1,3,×,3,3 × 3,neutral,tie,1.5,1.5,9,,,,,,,,
,,,,,,,,,,,,,,,795,2022-01-17_09h08.01.262,multiplicationStroop,2021.2.3,Win32,52.49343832,,,,,,,,,,,,,,,,,,,,,,,,,,,,,,,,,48,3.4133,1,0,7,7,1,1,6,×,8,6 × 8,neutral,smallerFirst,1.5,1.5,48,,,,,,,,
,,,,,,,,,,,,,,,795,2022-01-17_09h08.01.262,multiplicationStroop,2021.2.3,Win32,52.49343832,,,,,,,,,,,,,,,,,,,,,,,,,,,,,,,,,16,1.5643,1,0,8,8,30,1,4,×,4,4 × 4,neutral,tie,1.5,1.5,16,,,,,,,,
,,,,,,,,,,,,,,,795,2022-01-17_09h08.01.262,multiplicationStroop,2021.2.3,Win32,52.49343832,,,,,,,,,,,,,,,,,,,,,,,,,,,,,,,,,8,1.5315,1,0,9,9,17,1,4,×,2,4 × 2,neutral,largerFirst,1.5,1.5,8,,,,,,,,
,,,,,,,,,,,,,,,795,2022-01-17_09h08.01.262,multiplicationStroop,2021.2.3,Win32,52.49343832,,,,,,,,,,,,,,,,,,,,,,,,,,,,,,,,,12,1.3812,1,0,10,10,7,1,3,×,4,3 × 4,neutral,smallerFirst,1.5,1.5,12,,,,,,,,
,,,,,,,,,,,,,,,795,2022-01-17_09h08.01.262,multiplicationStroop,2021.2.3,Win32,52.49343832,,,,,,,,,,,,,,,,,,,,,,,,,,,,,,,,,25,2.0313,1,0,11,11,31,1,5,×,5,5 × 5,neutral,tie,1.5,1.5,25,,,,,,,,
,,,,,,,,,,,,,,,795,2022-01-17_09h08.01.262,multiplicationStroop,2021.2.3,Win32,52.49343832,,,,,,,,,,,,,,,,,,,,,,,,,,,,,,,,,42,2.1308,1,0,12,12,20,1,7,×,6,7 × 6,neutral,largerFirst,1.5,1.5,42,,,,,,,,
,,,,,,,,,,,,,,,795,2022-01-17_09h08.01.262,multiplicationStroop,2021.2.3,Win32,52.49343832,,,,,,,,,,,,,,,,,,,,,,,,,,,,,,,,,16,1.2241,1,0,13,13,27,1,8,×,2,8 × 2,neutral,largerFirst,1.5,1.5,16,,,,,,,,
,,,,,,,,,,,,,,,795,2022-01-17_09h08.01.262,multiplicationStroop,2021.2.3,Win32,52.49343832,,,,,,,,,,,,,,,,,,,,,,,,,,,,,,,,,27,1.7985,1,0,14,14,0,1,3,×,9,3 × 9,neutral,smallerFirst,1.5,1.5,27,,,,,,,,
,,,,,,,,,,,,,,,795,2022-01-17_09h08.01.262,multiplicationStroop,2021.2.3,Win32,52.49343832,,,,,,,,,,,,,,,,,,,,,,,,,,,,,,,,,24,1.4981,1,0,15,15,8,1,3,×,8,3 × 8,neutral,smallerFirst,1.5,1.5,24,,,,,,,,
,,,,,,,,,,,,,,,795,2022-01-17_09h08.01.262,multiplicationStroop,2021.2.3,Win32,52.49343832,,,,,,,,,,,,,,,,,,,,,,,,,,,,,,,,,49,2.6467,1,0,16,16,33,1,7,×,7,7 × 7,neutral,tie,1.5,1.5,49,,,,,,,,
,,,,,,,,,,,,,,,795,2022-01-17_09h08.01.262,multiplicationStroop,2021.2.3,Win32,52.49343832,,,,,,,,,,,,,,,,,,,,,,,,,,,,,,,,,26,1.815,0,0,17,17,32,1,6,×,6,6 × 6,neutral,tie,1.5,1.5,36,,,,,,,,
,,,,,,,,,,,,,,,795,2022-01-17_09h08.01.262,multiplicationStroop,2021.2.3,Win32,52.49343832,,,,,,,,,,,,,,,,,,,,,,,,,,,,,,,,,18,1.781,1,0,18,18,14,1,6,×,3,6 × 3,neutral,largerFirst,1.5,1.5,18,,,,,,,,
,,,,,,,,,,,,,,,795,2022-01-17_09h08.01.262,multiplicationStroop,2021.2.3,Win32,52.49343832,,,,,,,,,,,,,,,,,,,,,,,,,,,,,,,,,14,1.3315,1,0,19,19,2,1,2,×,7,2 × 7,neutral,smallerFirst,1.5,1.5,14,,,,,,,,
,,,,,,,,,,,,,,,795,2022-01-17_09h08.01.262,multiplicationStroop,2021.2.3,Win32,52.49343832,,,,,,,,,,,,,,,,,,,,,,,,,,,,,,,,,35,1.5315,1,0,20,20,15,1,7,×,5,7 × 5,neutral,largerFirst,1.5,1.5,35,,,,,,,,
,,,,,,,,,,,,,,,795,2022-01-17_09h08.01.262,multiplicationStroop,2021.2.3,Win32,52.49343832,,,,,,,,,,,,,,,,,,,,,,,,,,,,,,,,,15,1.2149,1,0,21,21,19,1,5,×,3,5 × 3,neutral,largerFirst,1.5,1.5,15,,,,,,,,
,,,,,,,,,,,,,,,795,2022-01-17_09h08.01.262,multiplicationStroop,2021.2.3,Win32,52.49343832,,,,,,,,,,,,,,,,,,,,,,,,,,,,,,,,,54,1.8807,1,0,22,22,21,1,9,×,6,9 × 6,neutral,largerFirst,1.5,1.5,54,,,,,,,,
,,,,,,,,,,,,,,,795,2022-01-17_09h08.01.262,multiplicationStroop,2021.2.3,Win32,52.49343832,,,,,,,,,,,,,,,,,,,,,,,,,,,,,,,,,40,1.882,1,0,23,23,10,1,5,×,8,5 × 8,neutral,smallerFirst,1.5,1.5,40,,,,,,,,
,,,,,,,,,,,,,,,795,2022-01-17_09h08.01.262,multiplicationStroop,2021.2.3,Win32,52.49343832,,,,,,,,,,,,,,,,,,,,,,,,,,,,,,,,,24,1.4304,1,0,24,24,16,1,6,×,4,6 × 4,neutral,largerFirst,1.5,1.5,24,,,,,,,,
,,,,,,,,,,,,,,,795,2022-01-17_09h08.01.262,multiplicationStroop,2021.2.3,Win32,52.49343832,,,,,,,,,,,,,,,,,,,,,,,,,,,,,,,,,18,2.0641,1,0,25,25,4,1,2,×,9,2 × 9,neutral,smallerFirst,1.5,1.5,18,,,,,,,,
,,,,,,,,,,,,,,,795,2022-01-17_09h08.01.262,multiplicationStroop,2021.2.3,Win32,52.49343832,,,,,,,,,,,,,,,,,,,,,,,,,,,,,,,,,10,1.4148,1,0,26,26,18,1,5,×,2,5 × 2,neutral,largerFirst,1.5,1.5,10,,,,,,,,
,,,,,,,,,,,,,,,795,2022-01-17_09h08.01.262,multiplicationStroop,2021.2.3,Win32,52.49343832,,,,,,,,,,,,,,,,,,,,,,,,,,,,,,,,,49,3.2469,0,0,27,27,26,1,9,×,7,9 × 7,neutral,largerFirst,1.5,1.5,63,,,,,,,,
,,,,,,,,,,,,,,,795,2022-01-17_09h08.01.262,multiplicationStroop,2021.2.3,Win32,52.49343832,,,,,,,,,,,,,,,,,,,,,,,,,,,,,,,,,6,1.6054,1,0,28,28,12,1,2,×,3,2 × 3,neutral,smallerFirst,1.5,1.5,6,,,,,,,,
,,,,,,,,,,,,,,,795,2022-01-17_09h08.01.262,multiplicationStroop,2021.2.3,Win32,52.49343832,,,,,,,,,,,,,,,,,,,,,,,,,,,,,,,,,12,1.5809,1,0,29,29,11,1,2,×,6,2 × 6,neutral,smallerFirst,1.5,1.5,12,,,,,,,,
,,,,,,,,,,,,,,,795,2022-01-17_09h08.01.262,multiplicationStroop,2021.2.3,Win32,52.49343832,,,,,,,,,,,,,,,,,,,,,,,,,,,,,,,,,81,2.8479,1,0,30,30,35,1,9,×,9,9 × 9,neutral,tie,1.5,1.5,81,,,,,,,,
,,,,,,,,,,,,,,,795,2022-01-17_09h08.01.262,multiplicationStroop,2021.2.3,Win32,52.49343832,,,,,,,,,,,,,,,,,,,,,,,,,,,,,,,,,30,1.6807,1,0,31,31,5,1,5,×,6,5 × 6,neutral,smallerFirst,1.5,1.5,30,,,,,,,,
,,,,,,,,,,,,,,,795,2022-01-17_09h08.01.262,multiplicationStroop,2021.2.3,Win32,52.49343832,,,,,,,,,,,,,,,,,,,,,,,,,,,,,,,,,21,1.3308,1,0,32,32,22,1,7,×,3,7 × 3,neutral,largerFirst,1.5,1.5,21,,,,,,,,
,,,,,,,,,,,,,,,795,2022-01-17_09h08.01.262,multiplicationStroop,2021.2.3,Win32,52.49343832,,,,,,,,,,,,,,,,,,,,,,,,,,,,,,,,,56,4.313,1,0,33,33,23,1,8,×,7,8 × 7,neutral,largerFirst,1.5,1.5,56,,,,,,,,
,,,,,,,,,,,,,,,795,2022-01-17_09h08.01.262,multiplicationStroop,2021.2.3,Win32,52.49343832,,,,,,,,,,,,,,,,,,,,,,,,,,,,,,,,,72,2.8204,1,0,34,34,25,1,9,×,8,9 × 8,neutral,largerFirst,1.5,1.5,72,,,,,,,,
,,,,,,,,,,,,,,,795,2022-01-17_09h08.01.262,multiplicationStroop,2021.2.3,Win32,52.49343832,,,,,,,,,,,,,,,,,,,,,,,,,,,,,,,,,27,1.5477,0,0,35,35,13,1,4,×,9,4 × 9,neutral,smallerFirst,1.5,1.5,36,,,,,,,,
,,,,,,,,,,,,,,,795,2022-01-17_09h08.01.262,multiplicationStroop,2021.2.3,Win32,52.49343832,,,,,,,,,,,,,,,,,,,,,,,,,,,,,,,,,,,,,,,,,,,,,,,,,,0,5,5,0,1,stimulusFile/mult_blk1.xlsx,,
,,,,,,,,,,,,,,,795,2022-01-17_09h08.01.262,multiplicationStroop,2021.2.3,Win32,52.49343832,,,,,,,,,,,,,,,,,,,,,,,,,,,,,,,,,,,,,,,,,,,,,,,,,,,,,,,,space,2.6461