welcomeKey_resp.keys,welcomeKey_resp.rt,X Scale,Y Scale,rt_resp_4.keys,rt_resp_4.corr,rt_resp_4.rt,speedtest_2.thisRepN,speedtest_2.thisTrialN,speedtest_2.thisN,speedtest_2.thisIndex,speedtest_2.ran,numberSc,posX,positionLayout,participant,date,expName,psychopyVersion,OS,frameRate,ct_instrresp.keys,ct_instrresp.rt,key_resp_2.keys,key_resp_2.rt,ct_keyResp.keys,ct_keyResp.corr,ct_keyResp.rt,trials.thisRepN,trials.thisTrialN,trials.thisN,trials.thisIndex,trials.ran,leftNo,rightNo,displayProblem,numDistance,leftNo_size,rightNo_size,Dims,keyAnswer,TS_Loop.thisRepN,TS_Loop.thisTrialN,TS_Loop.thisN,TS_Loop.thisIndex,TS_Loop.ran,Condition,ActionInst,instrImage,mltptaskInst_resp.keys,mltptaskInst_resp.rt,continue_resp_2.keys,continue_resp_2.rt,multp_Answer,multi_RT,multiplyCorr,LoopingMultiply.thisRepN,LoopingMultiply.thisTrialN,LoopingMultiply.thisN,LoopingMultiply.thisIndex,LoopingMultiply.ran,factor1,multiplySign,factor2,multliplyProblem,physicalSize,orderOperand,sizeF1,sizeF2,mult_answer,trials_stroop.thisRepN,trials_stroop.thisTrialN,trials_stroop.thisN,trials_stroop.thisIndex,trials_stroop.ran,multiplicationFile,esckey_resp_2.keys,esckey_resp_2.rt
y,5.514,50.6,51.5,right,1,1.445,0,0,0,14,1,8,200,right,796,2022-01-16_22h26.42.817,multiplicationStroop,2021.2.3,MacIntel,58.82352941,,,,,,,,,,,,,,,,,,,,,,,,,,,,,,,,,,,,,,,,,,,,,,,,,,,,,,,,,
,,,,left,1,0.564,0,1,1,4,1,6,-200,left,796,2022-01-16_22h26.42.817,multiplicationStroop,2021.2.3,MacIntel,58.82352941,,,,,,,,,,,,,,,,,,,,,,,,,,,,,,,,,,,,,,,,,,,,,,,,,,,,,,,,,
,,,,left,1,0.528,0,2,2,1,1,2,-200,left,796,2022-01-16_22h26.42.817,multiplicationStroop,2021.2.3,MacIntel,58.82352941,,,,,,,,,,,,,,,,,,,,,,,,,,,,,,,,,,,,,,,,,,,,,,,,,,,,,,,,,
,,,,left,1,0.34,0,3,3,6,1,8,-200,left,796,2022-01-16_22h26.42.817,multiplicationStroop,2021.2.3,MacIntel,58.82352941,,,,,,,,,,,,,,,,,,,,,,,,,,,,,,,,,,,,,,,,,,,,,,,,,,,,,,,,,
,,,,right,1,0.414,0,4,4,10,1,3,200,right,796,2022-01-16_22h26.42.817,multiplicationStroop,2021.2.3,MacIntel,58.82352941,,,,,,,,,,,,,,,,,,,,,,,,,,,,,,,,,,,,,,,,,,,,,,,,,,,,,,,,,
,,,,left,1,0.329,0,5,5,2,1,3,-200,left,796,2022-01-16_22h26.42.817,multiplicationStroop,2021.2.3,MacIntel,58.82352941,,,,,,,,,,,,,,,,,,,,,,,,,,,,,,,,,,,,,,,,,,,,,,,,,,,,,,,,,
,,,,left,1,0.525,0,6,6,0,1,1,-200,left,796,2022-01-16_22h26.42.817,multiplicationStroop,2021.2.3,MacIntel,58.82352941,,,,,,,,,,,,,,,,,,,,,,,,,,,,,,,,,,,,,,,,,,,,,,,,,,,,,,,,,
,,,,right,1,0.344,0,7,7,15,1,9,200,right,796,2022-01-16_22h26.42.817,multiplicationStroop,2021.2.3,MacIntel,58.82352941,,,,,,,,,,,,,,,,,,,,,,,,,,,,,,,,,,,,,,,,,,,,,,,,,,,,,,,,,
,,,,right,1,0.573,0,8,8,13,1,7,200,right,796,2022-01-16_22h26.42.817,multiplicationStroop,2021.2.3,MacIntel,58.82352941,,,,,,,,,,,,,,,,,,,,,,,,,,,,,,,,,,,,,,,,,,,,,,,,,,,,,,,,,
,,,,left,1,0.379,0,9,9,3,1,4,-200,left,796,2022-01-16_22h26.42.817,multiplicationStroop,2021.2.3,MacIntel,58.82352941,,,,,,,,,,,,,,,,,,,,,,,,,,,,,,,,,,,,,,,,,,,,,,,,,,,,,,,,,
,,,,left,1,0.395,0,10,10,5,1,7,-200,left,796,2022-01-16_22h26.42.817,multiplicationStroop,2021.2.3,MacIntel,58.82352941,,,,,,,,,,,,,,,,,,,,,,,,,,,,,,,,,,,,,,,,,,,,,,,,,,,,,,,,,
,,,,right,1,0.695,0,11,11,11,1,4,200,right,796,2022-01-16_22h26.42.817,multiplicationStroop,2021.2.3,MacIntel,58.82352941,,,,,,,,,,,,,,,,,,,,,,,,,,,,,,,,,,,,,,,,,,,,,,,,,,,,,,,,,
,,,,left,1,0.317,0,12,12,7,1,9,-200,left,796,2022-01-16_22h26.42.817,multiplicationStroop,2021.2.3,MacIntel,58.82352941,,,,,,,,,,,,,,,,,,,,,,,,,,,,,,,,,,,,,,,,,,,,,,,,,,,,,,,,,
,,,,right,1,0.267,0,13,13,8,1,1,200,right,796,2022-01-16_22h26.42.817,multiplicationStroop,2021.2.3,MacIntel,58.82352941,,,,,,,,,,,,,,,,,,,,,,,,,,,,,,,,,,,,,,,,,,,,,,,,,,,,,,,,,
,,,,left,0,0.273,0,14,14,12,1,6,200,right,796,2022-01-16_22h26.42.817,multiplicationStroop,2021.2.3,MacIntel,58.82352941,,,,,,,,,,,,,,,,,,,,,,,,,,,,,,,,,,,,,,,,,,,,,,,,,,,,,,,,,
,,,,right,1,0.757,0,15,15,9,1,2,200,right,796,2022-01-16_22h26.42.817,multiplicationStroop,2021.2.3,MacIntel,58.82352941,,,,,,,,,,,,,,,,,,,,,,,,,,,,,,,,,,,,,,,,,,,,,,,,,,,,,,,,,
,,,,left,1,0.316,1,0,16,4,1,6,-200,left,796,2022-01-16_22h26.42.817,multiplicationStroop,2021.2.3,MacIntel,58.82352941,,,,,,,,,,,,,,,,,,,,,,,,,,,,,,,,,,,,,,,,,,,,,,,,,,,,,,,,,
,,,,left,1,0.324,1,1,17,6,1,8,-200,left,796,2022-01-16_22h26.42.817,multiplicationStroop,2021.2.3,MacIntel,58.82352941,,,,,,,,,,,,,,,,,,,,,,,,,,,,,,,,,,,,,,,,,,,,,,,,,,,,,,,,,
,,,,right,1,0.328,1,2,18,10,1,3,200,right,796,2022-01-16_22h26.42.817,multiplicationStroop,2021.2.3,MacIntel,58.82352941,,,,,,,,,,,,,,,,,,,,,,,,,,,,,,,,,,,,,,,,,,,,,,,,,,,,,,,,,
,,,,left,1,0.376,1,3,19,5,1,7,-200,left,796,2022-01-16_22h26.42.817,multiplicationStroop,2021.2.3,MacIntel,58.82352941,,,,,,,,,,,,,,,,,,,,,,,,,,,,,,,,,,,,,,,,,,,,,,,,,,,,,,,,,
,,,,right,1,0.262,1,4,20,11,1,4,200,right,796,2022-01-16_22h26.42.817,multiplicationStroop,2021.2.3,MacIntel,58.82352941,,,,,,,,,,,,,,,,,,,,,,,,,,,,,,,,,,,,,,,,,,,,,,,,,,,,,,,,,
,,,,left,0,0.378,1,5,21,14,1,8,200,right,796,2022-01-16_22h26.42.817,multiplicationStroop,2021.2.3,MacIntel,58.82352941,,,,,,,,,,,,,,,,,,,,,,,,,,,,,,,,,,,,,,,,,,,,,,,,,,,,,,,,,
,,,,right,1,0.589,1,6,22,8,1,1,200,right,796,2022-01-16_22h26.42.817,multiplicationStroop,2021.2.3,MacIntel,58.82352941,,,,,,,,,,,,,,,,,,,,,,,,,,,,,,,,,,,,,,,,,,,,,,,,,,,,,,,,,
,,,,right,1,0.5,1,7,23,15,1,9,200,right,796,2022-01-16_22h26.42.817,multiplicationStroop,2021.2.3,MacIntel,58.82352941,,,,,,,,,,,,,,,,,,,,,,,,,,,,,,,,,,,,,,,,,,,,,,,,,,,,,,,,,
,,,,left,1,0.416,1,8,24,3,1,4,-200,left,796,2022-01-16_22h26.42.817,multiplicationStroop,2021.2.3,MacIntel,58.82352941,,,,,,,,,,,,,,,,,,,,,,,,,,,,,,,,,,,,,,,,,,,,,,,,,,,,,,,,,
,,,,left,1,0.331,1,9,25,7,1,9,-200,left,796,2022-01-16_22h26.42.817,multiplicationStroop,2021.2.3,MacIntel,58.82352941,,,,,,,,,,,,,,,,,,,,,,,,,,,,,,,,,,,,,,,,,,,,,,,,,,,,,,,,,
,,,,left,1,0.344,1,10,26,2,1,3,-200,left,796,2022-01-16_22h26.42.817,multiplicationStroop,2021.2.3,MacIntel,58.82352941,,,,,,,,,,,,,,,,,,,,,,,,,,,,,,,,,,,,,,,,,,,,,,,,,,,,,,,,,
,,,,right,1,0.857,1,11,27,13,1,7,200,right,796,2022-01-16_22h26.42.817,multiplicationStroop,2021.2.3,MacIntel,58.82352941,,,,,,,,,,,,,,,,,,,,,,,,,,,,,,,,,,,,,,,,,,,,,,,,,,,,,,,,,
,,,,right,1,0.35,1,12,28,9,1,2,200,right,796,2022-01-16_22h26.42.817,multiplicationStroop,2021.2.3,MacIntel,58.82352941,,,,,,,,,,,,,,,,,,,,,,,,,,,,,,,,,,,,,,,,,,,,,,,,,,,,,,,,,
,,,,left,1,0.395,1,13,29,1,1,2,-200,left,796,2022-01-16_22h26.42.817,multiplicationStroop,2021.2.3,MacIntel,58.82352941,,,,,,,,,,,,,,,,,,,,,,,,,,,,,,,,,,,,,,,,,,,,,,,,,,,,,,,,,
,,,,right,1,0.327,1,14,30,12,1,6,200,right,796,2022-01-16_22h26.42.817,multiplicationStroop,2021.2.3,MacIntel,58.82352941,,,,,,,,,,,,,,,,,,,,,,,,,,,,,,,,,,,,,,,,,,,,,,,,,,,,,,,,,
,,,,left,1,0.499,1,15,31,0,1,1,-200,left,796,2022-01-16_22h26.42.817,multiplicationStroop,2021.2.3,MacIntel,58.82352941,,,,,,,,,,,,,,,,,,,,,,,,,,,,,,,,,,,,,,,,,,,,,,,,,,,,,,,,,
,,,,left,1,0.502,2,0,32,0,1,1,-200,left,796,2022-01-16_22h26.42.817,multiplicationStroop,2021.2.3,MacIntel,58.82352941,,,,,,,,,,,,,,,,,,,,,,,,,,,,,,,,,,,,,,,,,,,,,,,,,,,,,,,,,
,,,,right,1,0.364,2,1,33,11,1,4,200,right,796,2022-01-16_22h26.42.817,multiplicationStroop,2021.2.3,MacIntel,58.82352941,,,,,,,,,,,,,,,,,,,,,,,,,,,,,,,,,,,,,,,,,,,,,,,,,,,,,,,,,
,,,,left,1,0.347,2,2,34,7,1,9,-200,left,796,2022-01-16_22h26.42.817,multiplicationStroop,2021.2.3,MacIntel,58.82352941,,,,,,,,,,,,,,,,,,,,,,,,,,,,,,,,,,,,,,,,,,,,,,,,,,,,,,,,,
,,,,left,1,0.373,2,3,35,2,1,3,-200,left,796,2022-01-16_22h26.42.817,multiplicationStroop,2021.2.3,MacIntel,58.82352941,,,,,,,,,,,,,,,,,,,,,,,,,,,,,,,,,,,,,,,,,,,,,,,,,,,,,,,,,
,,,,left,1,0.374,2,4,36,5,1,7,-200,left,796,2022-01-16_22h26.42.817,multiplicationStroop,2021.2.3,MacIntel,58.82352941,,,,,,,,,,,,,,,,,,,,,,,,,,,,,,,,,,,,,,,,,,,,,,,,,,,,,,,,,
,,,,right,1,0.463,2,5,37,12,1,6,200,right,796,2022-01-16_22h26.42.817,multiplicationStroop,2021.2.3,MacIntel,58.82352941,,,,,,,,,,,,,,,,,,,,,,,,,,,,,,,,,,,,,,,,,,,,,,,,,,,,,,,,,
,,,,right,1,0.355,2,6,38,9,1,2,200,right,796,2022-01-16_22h26.42.817,multiplicationStroop,2021.2.3,MacIntel,58.82352941,,,,,,,,,,,,,,,,,,,,,,,,,,,,,,,,,,,,,,,,,,,,,,,,,,,,,,,,,
,,,,left,1,0.395,2,7,39,3,1,4,-200,left,796,2022-01-16_22h26.42.817,multiplicationStroop,2021.2.3,MacIntel,58.82352941,,,,,,,,,,,,,,,,,,,,,,,,,,,,,,,,,,,,,,,,,,,,,,,,,,,,,,,,,
,,,,right,1,0.331,2,8,40,14,1,8,200,right,796,2022-01-16_22h26.42.817,multiplicationStroop,2021.2.3,MacIntel,58.82352941,,,,,,,,,,,,,,,,,,,,,,,,,,,,,,,,,,,,,,,,,,,,,,,,,,,,,,,,,
,,,,right,1,0.547,2,9,41,15,1,9,200,right,796,2022-01-16_22h26.42.817,multiplicationStroop,2021.2.3,MacIntel,58.82352941,,,,,,,,,,,,,,,,,,,,,,,,,,,,,,,,,,,,,,,,,,,,,,,,,,,,,,,,,
,,,,right,1,0.527,2,10,42,8,1,1,200,right,796,2022-01-16_22h26.42.817,multiplicationStroop,2021.2.3,MacIntel,58.82352941,,,,,,,,,,,,,,,,,,,,,,,,,,,,,,,,,,,,,,,,,,,,,,,,,,,,,,,,,
,,,,left,1,0.344,2,11,43,6,1,8,-200,left,796,2022-01-16_22h26.42.817,multiplicationStroop,2021.2.3,MacIntel,58.82352941,,,,,,,,,,,,,,,,,,,,,,,,,,,,,,,,,,,,,,,,,,,,,,,,,,,,,,,,,
,,,,left,1,0.343,2,12,44,1,1,2,-200,left,796,2022-01-16_22h26.42.817,multiplicationStroop,2021.2.3,MacIntel,58.82352941,,,,,,,,,,,,,,,,,,,,,,,,,,,,,,,,,,,,,,,,,,,,,,,,,,,,,,,,,
,,,,right,1,0.324,2,13,45,10,1,3,200,right,796,2022-01-16_22h26.42.817,multiplicationStroop,2021.2.3,MacIntel,58.82352941,,,,,,,,,,,,,,,,,,,,,,,,,,,,,,,,,,,,,,,,,,,,,,,,,,,,,,,,,
,,,,left,1,0.303,2,14,46,4,1,6,-200,left,796,2022-01-16_22h26.42.817,multiplicationStroop,2021.2.3,MacIntel,58.82352941,,,,,,,,,,,,,,,,,,,,,,,,,,,,,,,,,,,,,,,,,,,,,,,,,,,,,,,,,
,,,,right,1,0.334,2,15,47,13,1,7,200,right,796,2022-01-16_22h26.42.817,multiplicationStroop,2021.2.3,MacIntel,58.82352941,,,,,,,,,,,,,,,,,,,,,,,,,,,,,,,,,,,,,,,,,,,,,,,,,,,,,,,,,
,,,,right,1,0.548,3,0,48,11,1,4,200,right,796,2022-01-16_22h26.42.817,multiplicationStroop,2021.2.3,MacIntel,58.82352941,,,,,,,,,,,,,,,,,,,,,,,,,,,,,,,,,,,,,,,,,,,,,,,,,,,,,,,,,
,,,,left,1,0.507,3,1,49,1,1,2,-200,left,796,2022-01-16_22h26.42.817,multiplicationStroop,2021.2.3,MacIntel,58.82352941,,,,,,,,,,,,,,,,,,,,,,,,,,,,,,,,,,,,,,,,,,,,,,,,,,,,,,,,,
,,,,left,1,0.315,3,2,50,2,1,3,-200,left,796,2022-01-16_22h26.42.817,multiplicationStroop,2021.2.3,MacIntel,58.82352941,,,,,,,,,,,,,,,,,,,,,,,,,,,,,,,,,,,,,,,,,,,,,,,,,,,,,,,,,
,,,,right,1,0.306,3,3,51,9,1,2,200,right,796,2022-01-16_22h26.42.817,multiplicationStroop,2021.2.3,MacIntel,58.82352941,,,,,,,,,,,,,,,,,,,,,,,,,,,,,,,,,,,,,,,,,,,,,,,,,,,,,,,,,
,,,,right,1,0.325,3,4,52,14,1,8,200,right,796,2022-01-16_22h26.42.817,multiplicationStroop,2021.2.3,MacIntel,58.82352941,,,,,,,,,,,,,,,,,,,,,,,,,,,,,,,,,,,,,,,,,,,,,,,,,,,,,,,,,
,,,,right,1,0.7,3,5,53,13,1,7,200,right,796,2022-01-16_22h26.42.817,multiplicationStroop,2021.2.3,MacIntel,58.82352941,,,,,,,,,,,,,,,,,,,,,,,,,,,,,,,,,,,,,,,,,,,,,,,,,,,,,,,,,
,,,,right,1,0.33,3,6,54,8,1,1,200,right,796,2022-01-16_22h26.42.817,multiplicationStroop,2021.2.3,MacIntel,58.82352941,,,,,,,,,,,,,,,,,,,,,,,,,,,,,,,,,,,,,,,,,,,,,,,,,,,,,,,,,
,,,,left,1,0.413,3,7,55,0,1,1,-200,left,796,2022-01-16_22h26.42.817,multiplicationStroop,2021.2.3,MacIntel,58.82352941,,,,,,,,,,,,,,,,,,,,,,,,,,,,,,,,,,,,,,,,,,,,,,,,,,,,,,,,,
,,,,right,1,0.364,3,8,56,12,1,6,200,right,796,2022-01-16_22h26.42.817,multiplicationStroop,2021.2.3,MacIntel,58.82352941,,,,,,,,,,,,,,,,,,,,,,,,,,,,,,,,,,,,,,,,,,,,,,,,,,,,,,,,,
,,,,right,1,0.334,3,9,57,15,1,9,200,right,796,2022-01-16_22h26.42.817,multiplicationStroop,2021.2.3,MacIntel,58.82352941,,,,,,,,,,,,,,,,,,,,,,,,,,,,,,,,,,,,,,,,,,,,,,,,,,,,,,,,,
,,,,left,1,0.512,3,10,58,7,1,9,-200,left,796,2022-01-16_22h26.42.817,multiplicationStroop,2021.2.3,MacIntel,58.82352941,,,,,,,,,,,,,,,,,,,,,,,,,,,,,,,,,,,,,,,,,,,,,,,,,,,,,,,,,
,,,,right,0,0.243,3,11,59,6,1,8,-200,left,796,2022-01-16_22h26.42.817,multiplicationStroop,2021.2.3,MacIntel,58.82352941,,,,,,,,,,,,,,,,,,,,,,,,,,,,,,,,,,,,,,,,,,,,,,,,,,,,,,,,,
,,,,left,1,0.706,3,12,60,4,1,6,-200,left,796,2022-01-16_22h26.42.817,multiplicationStroop,2021.2.3,MacIntel,58.82352941,,,,,,,,,,,,,,,,,,,,,,,,,,,,,,,,,,,,,,,,,,,,,,,,,,,,,,,,,
,,,,left,1,0.344,3,13,61,3,1,4,-200,left,796,2022-01-16_22h26.42.817,multiplicationStroop,2021.2.3,MacIntel,58.82352941,,,,,,,,,,,,,,,,,,,,,,,,,,,,,,,,,,,,,,,,,,,,,,,,,,,,,,,,,
,,,,left,1,0.301,3,14,62,5,1,7,-200,left,796,2022-01-16_22h26.42.817,multiplicationStroop,2021.2.3,MacIntel,58.82352941,,,,,,,,,,,,,,,,,,,,,,,,,,,,,,,,,,,,,,,,,,,,,,,,,,,,,,,,,
,,,,right,1,0.924,3,15,63,10,1,3,200,right,796,2022-01-16_22h26.42.817,multiplicationStroop,2021.2.3,MacIntel,58.82352941,,,,,,,,,,,,,,,,,,,,,,,,,,stimulusFile/physical.xlsx,,,,,,,,,,,,,,,,,,,,,,,,,,,,,,,
,,,,,,,,,,,,,,,796,2022-01-16_22h26.42.817,multiplicationStroop,2021.2.3,MacIntel,58.82352941,space,9.338,space,11.506,right,1,2.698,0,0,0,11,1,7,9,7 | 9,2,1.4111,1.9756,congruent,right,,,,,,stimulusFile/physical.xlsx,,,,,,,,,,,,,,,,,,,,,,,,,,,,,,,
,,,,,,,,,,,,,,,796,2022-01-16_22h26.42.817,multiplicationStroop,2021.2.3,MacIntel,58.82352941,,,,,right,0,0.964,0,1,1,71,1,9,9,9 | 9,0,1.4111,1.9756,neutral,left,,,,,,stimulusFile/physical.xlsx,,,,,,,,,,,,,,,,,,,,,,,,,,,,,,,
,,,,,,,,,,,,,,,796,2022-01-16_22h26.42.817,multiplicationStroop,2021.2.3,MacIntel,58.82352941,,,,,left,1,1.041,0,2,2,27,1,8,9,8 | 9,1,1.9756,1.4111,incongruent,left,,,,,,stimulusFile/physical.xlsx,,,,,,,,,,,,,,,,,,,,,,,,,,,,,,,
,,,,,,,,,,,,,,,796,2022-01-16_22h26.42.817,multiplicationStroop,2021.2.3,MacIntel,58.82352941,,,,,left,1,0.643,0,3,3,70,1,8,8,8 | 8,0,1.9756,1.4111,neutral,left,,,,,,stimulusFile/physical.xlsx,,,,,,,,,,,,,,,,,,,,,,,,,,,,,,,
,,,,,,,,,,,,,,,796,2022-01-16_22h26.42.817,multiplicationStroop,2021.2.3,MacIntel,58.82352941,,,,,right,1,0.607,0,4,4,47,1,9,4,9 | 4,5,1.4111,1.9756,incongruent,right,,,,,,stimulusFile/physical.xlsx,,,,,,,,,,,,,,,,,,,,,,,,,,,,,,,
,,,,,,,,,,,,,,,796,2022-01-16_22h26.42.817,multiplicationStroop,2021.2.3,MacIntel,58.82352941,,,,,right,1,0.54,0,5,5,9,1,2,4,2 | 4,2,1.4111,1.9756,congruent,right,,,,,,stimulusFile/physical.xlsx,,,,,,,,,,,,,,,,,,,,,,,,,,,,,,,
,,,,,,,,,,,,,,,796,2022-01-16_22h26.42.817,multiplicationStroop,2021.2.3,MacIntel,58.82352941,,,,,left,1,0.501,0,6,6,54,1,7,7,7 | 7,0,1.9756,1.4111,neutral,left,,,,,,stimulusFile/physical.xlsx,,,,,,,,,,,,,,,,,,,,,,,,,,,,,,,
,,,,,,,,,,,,,,,796,2022-01-16_22h26.42.817,multiplicationStroop,2021.2.3,MacIntel,58.82352941,,,,,left,1,0.521,0,7,7,23,1,9,4,9 | 4,5,1.9756,1.4111,congruent,left,,,,,,stimulusFile/physical.xlsx,,,,,,,,,,,,,,,,,,,,,,,,,,,,,,,
,,,,,,,,,,,,,,,796,2022-01-16_22h26.42.817,multiplicationStroop,2021.2.3,MacIntel,58.82352941,,,,,right,1,0.859,0,8,8,3,1,8,9,8 | 9,1,1.4111,1.9756,congruent,right,,,,,,stimulusFile/physical.xlsx,,,,,,,,,,,,,,,,,,,,,,,,,,,,,,,
,,,,,,,,,,,,,,,796,2022-01-16_22h26.42.817,multiplicationStroop,2021.2.3,MacIntel,58.82352941,,,,,right,1,0.578,0,9,9,31,1,9,8,9 | 8,1,1.4111,1.9756,incongruent,right,,,,,,stimulusFile/physical.xlsx,,,,,,,,,,,,,,,,,,,,,,,,,,,,,,,
,,,,,,,,,,,,,,,796,2022-01-16_22h26.42.817,multiplicationStroop,2021.2.3,MacIntel,58.82352941,,,,,right,1,0.444,0,10,10,63,1,9,9,9 | 9,0,1.4111,1.9756,neutral,right,,,,,,stimulusFile/physical.xlsx,,,,,,,,,,,,,,,,,,,,,,,,,,,,,,,
,,,,,,,,,,,,,,,796,2022-01-16_22h26.42.817,multiplicationStroop,2021.2.3,MacIntel,58.82352941,,,,,left,1,0.461,0,11,11,12,1,3,1,3 | 1,2,1.9756,1.4111,congruent,left,,,,,,stimulusFile/physical.xlsx,,,,,,,,,,,,,,,,,,,,,,,,,,,,,,,
,,,,,,,,,,,,,,,796,2022-01-16_22h26.42.817,multiplicationStroop,2021.2.3,MacIntel,58.82352941,,,,,left,1,0.476,0,12,12,5,1,4,3,4 | 3,1,1.9756,1.4111,congruent,left,,,,,,stimulusFile/physical.xlsx,,,,,,,,,,,,,,,,,,,,,,,,,,,,,,,
,,,,,,,,,,,,,,,796,2022-01-16_22h26.42.817,multiplicationStroop,2021.2.3,MacIntel,58.82352941,,,,,right,1,0.48,0,13,13,46,1,8,3,8 | 3,5,1.4111,1.9756,incongruent,right,,,,,,stimulusFile/physical.xlsx,,,,,,,,,,,,,,,,,,,,,,,,,,,,,,,
,,,,,,,,,,,,,,,796,2022-01-16_22h26.42.817,multiplicationStroop,2021.2.3,MacIntel,58.82352941,,,,,left,1,0.402,0,14,14,21,1,7,2,7 | 2,5,1.9756,1.4111,congruent,left,,,,,,stimulusFile/physical.xlsx,,,,,,,,,,,,,,,,,,,,,,,,,,,,,,,
,,,,,,,,,,,,,,,796,2022-01-16_22h26.42.817,multiplicationStroop,2021.2.3,MacIntel,58.82352941,,,,,left,1,0.554,0,15,15,43,1,4,9,4 | 9,5,1.9756,1.4111,incongruent,left,,,,,,stimulusFile/physical.xlsx,,,,,,,,,,,,,,,,,,,,,,,,,,,,,,,
,,,,,,,,,,,,,,,796,2022-01-16_22h26.42.817,multiplicationStroop,2021.2.3,MacIntel,58.82352941,,,,,left,1,0.48,0,16,16,4,1,2,1,2 | 1,1,1.9756,1.4111,congruent,left,,,,,,stimulusFile/physical.xlsx,,,,,,,,,,,,,,,,,,,,,,,,,,,,,,,
,,,,,,,,,,,,,,,796,2022-01-16_22h26.42.817,multiplicationStroop,2021.2.3,MacIntel,58.82352941,,,,,right,1,0.506,0,17,17,61,1,4,4,4 | 4,0,1.4111,1.9756,neutral,right,,,,,,stimulusFile/physical.xlsx,,,,,,,,,,,,,,,,,,,,,,,,,,,,,,,
,,,,,,,,,,,,,,,796,2022-01-16_22h26.42.817,multiplicationStroop,2021.2.3,MacIntel,58.82352941,,,,,right,1,0.497,0,18,18,8,1,1,3,1 | 3,2,1.4111,1.9756,congruent,right,,,,,,stimulusFile/physical.xlsx,,,,,,,,,,,,,,,,,,,,,,,,,,,,,,,
,,,,,,,,,,,,,,,796,2022-01-16_22h26.42.817,multiplicationStroop,2021.2.3,MacIntel,58.82352941,,,,,right,1,0.475,0,19,19,67,1,4,4,4 | 4,0,1.4111,1.9756,neutral,right,,,,,,stimulusFile/physical.xlsx,,,,,,,,,,,,,,,,,,,,,,,,,,,,,,,
,,,,,,,,,,,,,,,796,2022-01-16_22h26.42.817,multiplicationStroop,2021.2.3,MacIntel,58.82352941,,,,,left,0,0.474,0,20,20,64,1,1,1,1 | 1,0,1.9756,1.4111,neutral,right,,,,,,stimulusFile/physical.xlsx,,,,,,,,,,,,,,,,,,,,,,,,,,,,,,,
,,,,,,,,,,,,,,,796,2022-01-16_22h26.42.817,multiplicationStroop,2021.2.3,MacIntel,58.82352941,,,,,right,1,0.473,0,21,21,37,1,4,2,4 | 2,2,1.4111,1.9756,incongruent,right,,,,,,stimulusFile/physical.xlsx,,,,,,,,,,,,,,,,,,,,,,,,,,,,,,,
,,,,,,,,,,,,,,,796,2022-01-16_22h26.42.817,multiplicationStroop,2021.2.3,MacIntel,58.82352941,,,,,right,1,0.638,0,22,22,2,1,6,7,6 | 7,1,1.4111,1.9756,congruent,right,,,,,,stimulusFile/physical.xlsx,,,,,,,,,,,,,,,,,,,,,,,,,,,,,,,
,,,,,,,,,,,,,,,796,2022-01-16_22h26.42.817,multiplicationStroop,2021.2.3,MacIntel,58.82352941,,,,,right,1,0.509,0,23,23,62,1,8,8,8 | 8,0,1.4111,1.9756,neutral,right,,,,,,stimulusFile/physical.xlsx,,,,,,,,,,,,,,,,,,,,,,,,,,,,,,,
,,,,,,,,,,,,,,,796,2022-01-16_22h26.42.817,multiplicationStroop,2021.2.3,MacIntel,58.82352941,,,,,right,1,0.49,0,24,24,16,1,1,6,1 | 6,5,1.4111,1.9756,congruent,right,,,,,,stimulusFile/physical.xlsx,,,,,,,,,,,,,,,,,,,,,,,,,,,,,,,
,,,,,,,,,,,,,,,796,2022-01-16_22h26.42.817,multiplicationStroop,2021.2.3,MacIntel,58.82352941,,,,,right,1,0.425,0,25,25,39,1,9,7,9 | 7,2,1.4111,1.9756,incongruent,right,,,,,,stimulusFile/physical.xlsx,,,,,,,,,,,,,,,,,,,,,,,,,,,,,,,
,,,,,,,,,,,,,,,796,2022-01-16_22h26.42.817,multiplicationStroop,2021.2.3,MacIntel,58.82352941,,,,,left,1,0.413,0,26,26,22,1,8,3,8 | 3,5,1.9756,1.4111,congruent,left,,,,,,stimulusFile/physical.xlsx,,,,,,,,,,,,,,,,,,,,,,,,,,,,,,,
,,,,,,,,,,,,,,,796,2022-01-16_22h26.42.817,multiplicationStroop,2021.2.3,MacIntel,58.82352941,,,,,right,1,0.491,0,27,27,19,1,4,9,4 | 9,5,1.4111,1.9756,congruent,right,,,,,,stimulusFile/physical.xlsx,,,,,,,,,,,,,,,,,,,,,,,,,,,,,,,
,,,,,,,,,,,,,,,796,2022-01-16_22h26.42.817,multiplicationStroop,2021.2.3,MacIntel,58.82352941,,,,,right,1,0.476,0,28,28,45,1,7,2,7 | 2,5,1.4111,1.9756,incongruent,right,,,,,,stimulusFile/physical.xlsx,,,,,,,,,,,,,,,,,,,,,,,,,,,,,,,
,,,,,,,,,,,,,,,796,2022-01-16_22h26.42.817,multiplicationStroop,2021.2.3,MacIntel,58.82352941,,,,,right,1,0.512,0,29,29,57,1,2,2,2 | 2,0,1.4111,1.9756,neutral,right,,,,,,stimulusFile/physical.xlsx,,,,,,,,,,,,,,,,,,,,,,,,,,,,,,,
,,,,,,,,,,,,,,,796,2022-01-16_22h26.42.817,multiplicationStroop,2021.2.3,MacIntel,58.82352941,,,,,left,1,0.446,0,30,30,7,1,9,8,9 | 8,1,1.9756,1.4111,congruent,left,,,,,,stimulusFile/physical.xlsx,,,,,,,,,,,,,,,,,,,,,,,,,,,,,,,
,,,,,,,,,,,,,,,796,2022-01-16_22h26.42.817,multiplicationStroop,2021.2.3,MacIntel,58.82352941,,,,,right,1,0.477,0,31,31,56,1,1,1,1 | 1,0,1.4111,1.9756,neutral,right,,,,,,stimulusFile/physical.xlsx,,,,,,,,,,,,,,,,,,,,,,,,,,,,,,,
,,,,,,,,,,,,,,,796,2022-01-16_22h26.42.817,multiplicationStroop,2021.2.3,MacIntel,58.82352941,,,,,left,1,0.429,0,32,32,51,1,8,8,8 | 8,0,1.9756,1.4111,neutral,left,,,,,,stimulusFile/physical.xlsx,,,,,,,,,,,,,,,,,,,,,,,,,,,,,,,
,,,,,,,,,,,,,,,796,2022-01-16_22h26.42.817,multiplicationStroop,2021.2.3,MacIntel,58.82352941,,,,,right,1,0.382,0,33,33,18,1,3,8,3 | 8,5,1.4111,1.9756,congruent,right,,,,,,stimulusFile/physical.xlsx,,,,,,,,,,,,,,,,,,,,,,,,,,,,,,,
,,,,,,,,,,,,,,,796,2022-01-16_22h26.42.817,multiplicationStroop,2021.2.3,MacIntel,58.82352941,,,,,left,1,0.364,0,34,34,68,1,6,6,6 | 6,0,1.9756,1.4111,neutral,left,,,,,,stimulusFile/physical.xlsx,,,,,,,,,,,,,,,,,,,,,,,,,,,,,,,
,,,,,,,,,,,,,,,796,2022-01-16_22h26.42.817,multiplicationStroop,2021.2.3,MacIntel,58.82352941,,,,,right,1,0.324,0,35,35,29,1,4,3,4 | 3,1,1.4111,1.9756,incongruent,right,,,,,,stimulusFile/physical.xlsx,,,,,,,,,,,,,,,,,,,,,,,,,,,,,,,
,,,,,,,,,,,,,,,796,2022-01-16_22h26.42.817,multiplicationStroop,2021.2.3,MacIntel,58.82352941,,,,,left,1,0.388,0,36,36,35,1,7,9,7 | 9,2,1.9756,1.4111,incongruent,left,,,,,,stimulusFile/physical.xlsx,,,,,,,,,,,,,,,,,,,,,,,,,,,,,,,
,,,,,,,,,,,,,,,796,2022-01-16_22h26.42.817,multiplicationStroop,2021.2.3,MacIntel,58.82352941,,,,,left,1,0.574,0,37,37,6,1,7,6,7 | 6,1,1.9756,1.4111,congruent,left,,,,,,stimulusFile/physical.xlsx,,,,,,,,,,,,,,,,,,,,,,,,,,,,,,,
,,,,,,,,,,,,,,,796,2022-01-16_22h26.42.817,multiplicationStroop,2021.2.3,MacIntel,58.82352941,,,,,left,1,0.553,0,38,38,53,1,4,4,4 | 4,0,1.9756,1.4111,neutral,left,,,,,,stimulusFile/physical.xlsx,,,,,,,,,,,,,,,,,,,,,,,,,,,,,,,
,,,,,,,,,,,,,,,796,2022-01-16_22h26.42.817,multiplicationStroop,2021.2.3,MacIntel,58.82352941,,,,,right,1,0.542,0,39,39,38,1,8,6,8 | 6,2,1.4111,1.9756,incongruent,right,,,,,,stimulusFile/physical.xlsx,,,,,,,,,,,,,,,,,,,,,,,,,,,,,,,
,,,,,,,,,,,,,,,796,2022-01-16_22h26.42.817,multiplicationStroop,2021.2.3,MacIntel,58.82352941,,,,,right,1,0.597,0,40,40,28,1,2,1,2 | 1,1,1.4111,1.9756,incongruent,right,,,,,,stimulusFile/physical.xlsx,,,,,,,,,,,,,,,,,,,,,,,,,,,,,,,
,,,,,,,,,,,,,,,796,2022-01-16_22h26.42.817,multiplicationStroop,2021.2.3,MacIntel,58.82352941,,,,,right,1,0.48,0,41,41,58,1,6,6,6 | 6,0,1.4111,1.9756,neutral,right,,,,,,stimulusFile/physical.xlsx,,,,,,,,,,,,,,,,,,,,,,,,,,,,,,,
,,,,,,,,,,,,,,,796,2022-01-16_22h26.42.817,multiplicationStroop,2021.2.3,MacIntel,58.82352941,,,,,right,1,0.575,0,42,42,1,1,3,4,3 | 4,1,1.4111,1.9756,congruent,right,,,,,,stimulusFile/physical.xlsx,,,,,,,,,,,,,,,,,,,,,,,,,,,,,,,
,,,,,,,,,,,,,,,796,2022-01-16_22h26.42.817,multiplicationStroop,2021.2.3,MacIntel,58.82352941,,,,,left,1,0.594,0,43,43,33,1,2,4,2 | 4,2,1.9756,1.4111,incongruent,left,,,,,,stimulusFile/physical.xlsx,,,,,,,,,,,,,,,,,,,,,,,,,,,,,,,
,,,,,,,,,,,,,,,796,2022-01-16_22h26.42.817,multiplicationStroop,2021.2.3,MacIntel,58.82352941,,,,,left,0,0.396,0,44,44,66,1,3,3,3 | 3,0,1.9756,1.4111,neutral,right,,,,,,stimulusFile/physical.xlsx,,,,,,,,,,,,,,,,,,,,,,,,,,,,,,,
,,,,,,,,,,,,,,,796,2022-01-16_22h26.42.817,multiplicationStroop,2021.2.3,MacIntel,58.82352941,,,,,right,1,0.592,0,45,45,60,1,3,3,3 | 3,0,1.4111,1.9756,neutral,right,,,,,,stimulusFile/physical.xlsx,,,,,,,,,,,,,,,,,,,,,,,,,,,,,,,
,,,,,,,,,,,,,,,796,2022-01-16_22h26.42.817,multiplicationStroop,2021.2.3,MacIntel,58.82352941,,,,,right,1,0.57,0,46,46,10,1,6,8,6 | 8,2,1.4111,1.9756,congruent,right,,,,,,stimulusFile/physical.xlsx,,,,,,,,,,,,,,,,,,,,,,,,,,,,,,,
,,,,,,,,,,,,,,,796,2022-01-16_22h26.42.817,multiplicationStroop,2021.2.3,MacIntel,58.82352941,,,,,left,1,0.492,0,47,47,24,1,1,2,1 | 2,1,1.9756,1.4111,incongruent,left,,,,,,stimulusFile/physical.xlsx,,,,,,,,,,,,,,,,,,,,,,,,,,,,,,,
,,,,,,,,,,,,,,,796,2022-01-16_22h26.42.817,multiplicationStroop,2021.2.3,MacIntel,58.82352941,,,,,right,0,0.408,0,48,48,34,1,6,8,6 | 8,2,1.9756,1.4111,incongruent,left,,,,,,stimulusFile/physical.xlsx,,,,,,,,,,,,,,,,,,,,,,,,,,,,,,,
,,,,,,,,,,,,,,,796,2022-01-16_22h26.42.817,multiplicationStroop,2021.2.3,MacIntel,58.82352941,,,,,right,1,0.572,0,49,49,0,1,1,2,1 | 2,1,1.4111,1.9756,congruent,right,,,,,,stimulusFile/physical.xlsx,,,,,,,,,,,,,,,,,,,,,,,,,,,,,,,
,,,,,,,,,,,,,,,796,2022-01-16_22h26.42.817,multiplicationStroop,2021.2.3,MacIntel,58.82352941,,,,,left,1,0.523,0,50,50,52,1,2,2,2 | 2,0,1.9756,1.4111,neutral,left,,,,,,stimulusFile/physical.xlsx,,,,,,,,,,,,,,,,,,,,,,,,,,,,,,,
,,,,,,,,,,,,,,,796,2022-01-16_22h26.42.817,multiplicationStroop,2021.2.3,MacIntel,58.82352941,,,,,right,0,0.478,0,51,51,69,1,7,7,7 | 7,0,1.4111,1.9756,neutral,left,,,,,,stimulusFile/physical.xlsx,,,,,,,,,,,,,,,,,,,,,,,,,,,,,,,
,,,,,,,,,,,,,,,796,2022-01-16_22h26.42.817,multiplicationStroop,2021.2.3,MacIntel,58.82352941,,,,,left,1,0.657,0,52,52,25,1,3,4,3 | 4,1,1.9756,1.4111,incongruent,left,,,,,,stimulusFile/physical.xlsx,,,,,,,,,,,,,,,,,,,,,,,,,,,,,,,
,,,,,,,,,,,,,,,796,2022-01-16_22h26.42.817,multiplicationStroop,2021.2.3,MacIntel,58.82352941,,,,,left,1,0.792,0,53,53,50,1,6,6,6 | 6,0,1.9756,1.4111,neutral,left,,,,,,stimulusFile/physical.xlsx,,,,,,,,,,,,,,,,,,,,,,,,,,,,,,,
,,,,,,,,,,,,,,,796,2022-01-16_22h26.42.817,multiplicationStroop,2021.2.3,MacIntel,58.82352941,,,,,right,1,0.553,0,54,54,17,1,2,7,2 | 7,5,1.4111,1.9756,congruent,right,,,,,,stimulusFile/physical.xlsx,,,,,,,,,,,,,,,,,,,,,,,,,,,,,,,
,,,,,,,,,,,,,,,796,2022-01-16_22h26.42.817,multiplicationStroop,2021.2.3,MacIntel,58.82352941,,,,,left,1,0.606,0,55,55,42,1,3,8,3 | 8,5,1.9756,1.4111,incongruent,left,,,,,,stimulusFile/physical.xlsx,,,,,,,,,,,,,,,,,,,,,,,,,,,,,,,
,,,,,,,,,,,,,,,796,2022-01-16_22h26.42.817,multiplicationStroop,2021.2.3,MacIntel,58.82352941,,,,,right,1,0.586,0,56,56,44,1,6,1,6 | 1,5,1.4111,1.9756,incongruent,right,,,,,,stimulusFile/physical.xlsx,,,,,,,,,,,,,,,,,,,,,,,,,,,,,,,
,,,,,,,,,,,,,,,796,2022-01-16_22h26.42.817,multiplicationStroop,2021.2.3,MacIntel,58.82352941,,,,,right,1,0.776,0,57,57,59,1,7,7,7 | 7,0,1.4111,1.9756,neutral,right,,,,,,stimulusFile/physical.xlsx,,,,,,,,,,,,,,,,,,,,,,,,,,,,,,,
,,,,,,,,,,,,,,,796,2022-01-16_22h26.42.817,multiplicationStroop,2021.2.3,MacIntel,58.82352941,,,,,left,1,0.475,0,58,58,32,1,1,3,1 | 3,2,1.9756,1.4111,incongruent,left,,,,,,stimulusFile/physical.xlsx,,,,,,,,,,,,,,,,,,,,,,,,,,,,,,,
,,,,,,,,,,,,,,,796,2022-01-16_22h26.42.817,multiplicationStroop,2021.2.3,MacIntel,58.82352941,,,,,left,1,0.496,0,59,59,55,1,9,9,9 | 9,0,1.9756,1.4111,neutral,left,,,,,,stimulusFile/physical.xlsx,,,,,,,,,,,,,,,,,,,,,,,,,,,,,,,
,,,,,,,,,,,,,,,796,2022-01-16_22h26.42.817,multiplicationStroop,2021.2.3,MacIntel,58.82352941,,,,,left,1,0.731,0,60,60,14,1,8,6,8 | 6,2,1.9756,1.4111,congruent,left,,,,,,stimulusFile/physical.xlsx,,,,,,,,,,,,,,,,,,,,,,,,,,,,,,,
,,,,,,,,,,,,,,,796,2022-01-16_22h26.42.817,multiplicationStroop,2021.2.3,MacIntel,58.82352941,,,,,left,1,0.512,0,61,61,48,1,1,1,1 | 1,0,1.9756,1.4111,neutral,left,,,,,,stimulusFile/physical.xlsx,,,,,,,,,,,,,,,,,,,,,,,,,,,,,,,
,,,,,,,,,,,,,,,796,2022-01-16_22h26.42.817,multiplicationStroop,2021.2.3,MacIntel,58.82352941,,,,,left,1,0.544,0,62,62,49,1,3,3,3 | 3,0,1.9756,1.4111,neutral,left,,,,,,stimulusFile/physical.xlsx,,,,,,,,,,,,,,,,,,,,,,,,,,,,,,,
,,,,,,,,,,,,,,,796,2022-01-16_22h26.42.817,multiplicationStroop,2021.2.3,MacIntel,58.82352941,,,,,right,1,0.471,0,63,63,36,1,3,1,3 | 1,2,1.4111,1.9756,incongruent,right,,,,,,stimulusFile/physical.xlsx,,,,,,,,,,,,,,,,,,,,,,,,,,,,,,,
,,,,,,,,,,,,,,,796,2022-01-16_22h26.42.817,multiplicationStroop,2021.2.3,MacIntel,58.82352941,,,,,left,1,0.49,0,64,64,13,1,4,2,4 | 2,2,1.9756,1.4111,congruent,left,,,,,,stimulusFile/physical.xlsx,,,,,,,,,,,,,,,,,,,,,,,,,,,,,,,
,,,,,,,,,,,,,,,796,2022-01-16_22h26.42.817,multiplicationStroop,2021.2.3,MacIntel,58.82352941,,,,,left,1,0.478,0,65,65,15,1,9,7,9 | 7,2,1.9756,1.4111,congruent,left,,,,,,stimulusFile/physical.xlsx,,,,,,,,,,,,,,,,,,,,,,,,,,,,,,,
,,,,,,,,,,,,,,,796,2022-01-16_22h26.42.817,multiplicationStroop,2021.2.3,MacIntel,58.82352941,,,,,right,1,0.508,0,66,66,30,1,7,6,7 | 6,1,1.4111,1.9756,incongruent,right,,,,,,stimulusFile/physical.xlsx,,,,,,,,,,,,,,,,,,,,,,,,,,,,,,,
,,,,,,,,,,,,,,,796,2022-01-16_22h26.42.817,multiplicationStroop,2021.2.3,MacIntel,58.82352941,,,,,left,1,0.371,0,67,67,26,1,6,7,6 | 7,1,1.9756,1.4111,incongruent,left,,,,,,stimulusFile/physical.xlsx,,,,,,,,,,,,,,,,,,,,,,,,,,,,,,,
,,,,,,,,,,,,,,,796,2022-01-16_22h26.42.817,multiplicationStroop,2021.2.3,MacIntel,58.82352941,,,,,right,1,0.526,0,68,68,65,1,2,2,2 | 2,0,1.4111,1.9756,neutral,right,,,,,,stimulusFile/physical.xlsx,,,,,,,,,,,,,,,,,,,,,,,,,,,,,,,
,,,,,,,,,,,,,,,796,2022-01-16_22h26.42.817,multiplicationStroop,2021.2.3,MacIntel,58.82352941,,,,,left,1,0.447,0,69,69,41,1,2,7,2 | 7,5,1.9756,1.4111,incongruent,left,,,,,,stimulusFile/physical.xlsx,,,,,,,,,,,,,,,,,,,,,,,,,,,,,,,
,,,,,,,,,,,,,,,796,2022-01-16_22h26.42.817,multiplicationStroop,2021.2.3,MacIntel,58.82352941,,,,,left,1,0.538,0,70,70,20,1,6,1,6 | 1,5,1.9756,1.4111,congruent,left,,,,,,stimulusFile/physical.xlsx,,,,,,,,,,,,,,,,,,,,,,,,,,,,,,,
,,,,,,,,,,,,,,,796,2022-01-16_22h26.42.817,multiplicationStroop,2021.2.3,MacIntel,58.82352941,,,,,left,1,0.575,0,71,71,40,1,1,6,1 | 6,5,1.9756,1.4111,incongruent,left,,,,,,stimulusFile/physical.xlsx,,,,,,,,,,,,,,,,,,,,,,,,,,,,,,,
,,,,,,,,,,,,,,,796,2022-01-16_22h26.42.817,multiplicationStroop,2021.2.3,MacIntel,58.82352941,,,,,,,,,,,,,,,,,,,,,0,0,0,1,1,stimulusFile/physical.xlsx,PHYSICALLY larger (larger font size).,images/physicallyLarger.png,,,,,,,,,,,,,,,,,,,,,,,,,,,,,
,,,,,,,,,,,,,,,796,2022-01-16_22h26.42.817,multiplicationStroop,2021.2.3,MacIntel,58.82352941,space,4.465,space,4.817,right,1,0.854,0,0,0,11,1,7,9,7 | 9,2,1.4111,1.9756,congruent,right,,,,,,stimulusFile/magnitude.xlsx,,,,,,,,,,,,,,,,,,,,,,,,,,,,,,,
,,,,,,,,,,,,,,,796,2022-01-16_22h26.42.817,multiplicationStroop,2021.2.3,MacIntel,58.82352941,,,,,right,1,1.228,0,1,1,40,1,1,6,1 | 6,5,1.9756,1.4111,incongruent,right,,,,,,stimulusFile/magnitude.xlsx,,,,,,,,,,,,,,,,,,,,,,,,,,,,,,,
,,,,,,,,,,,,,,,796,2022-01-16_22h26.42.817,multiplicationStroop,2021.2.3,MacIntel,58.82352941,,,,,left,1,1.043,0,2,2,55,1,9,8,9 | 8,1,1.6933,1.6933,neutral,left,,,,,,stimulusFile/magnitude.xlsx,,,,,,,,,,,,,,,,,,,,,,,,,,,,,,,
,,,,,,,,,,,,,,,796,2022-01-16_22h26.42.817,multiplicationStroop,2021.2.3,MacIntel,58.82352941,,,,,left,1,1.49,0,3,3,37,1,4,2,4 | 2,2,1.4111,1.9756,incongruent,left,,,,,,stimulusFile/magnitude.xlsx,,,,,,,,,,,,,,,,,,,,,,,,,,,,,,,
,,,,,,,,,,,,,,,796,2022-01-16_22h26.42.817,multiplicationStroop,2021.2.3,MacIntel,58.82352941,,,,,right,1,0.838,0,4,4,50,1,6,7,6 | 7,1,1.6933,1.6933,neutral,right,,,,,,stimulusFile/magnitude.xlsx,,,,,,,,,,,,,,,,,,,,,,,,,,,,,,,
,,,,,,,,,,,,,,,796,2022-01-16_22h26.42.817,multiplicationStroop,2021.2.3,MacIntel,58.82352941,,,,,left,1,0.727,0,5,5,68,1,6,1,6 | 1,5,1.6933,1.6933,neutral,left,,,,,,stimulusFile/magnitude.xlsx,,,,,,,,,,,,,,,,,,,,,,,,,,,,,,,
,,,,,,,,,,,,,,,796,2022-01-16_22h26.42.817,multiplicationStroop,2021.2.3,MacIntel,58.82352941,,,,,left,1,0.591,0,6,6,46,1,8,3,8 | 3,5,1.4111,1.9756,incongruent,left,,,,,,stimulusFile/magnitude.xlsx,,,,,,,,,,,,,,,,,,,,,,,,,,,,,,,
,,,,,,,,,,,,,,,796,2022-01-16_22h26.42.817,multiplicationStroop,2021.2.3,MacIntel,58.82352941,,,,,right,1,0.741,0,7,7,2,1,6,7,6 | 7,1,1.4111,1.9756,congruent,right,,,,,,stimulusFile/magnitude.xlsx,,,,,,,,,,,,,,,,,,,,,,,,,,,,,,,
,,,,,,,,,,,,,,,796,2022-01-16_22h26.42.817,multiplicationStroop,2021.2.3,MacIntel,58.82352941,,,,,left,1,0.59,0,8,8,4,1,2,1,2 | 1,1,1.9756,1.4111,congruent,left,,,,,,stimulusFile/magnitude.xlsx,,,,,,,,,,,,,,,,,,,,,,,,,,,,,,,
,,,,,,,,,,,,,,,796,2022-01-16_22h26.42.817,multiplicationStroop,2021.2.3,MacIntel,58.82352941,,,,,left,1,0.641,0,9,9,23,1,9,4,9 | 4,5,1.9756,1.4111,congruent,left,,,,,,stimulusFile/magnitude.xlsx,,,,,,,,,,,,,,,,,,,,,,,,,,,,,,,
,,,,,,,,,,,,,,,796,2022-01-16_22h26.42.817,multiplicationStroop,2021.2.3,MacIntel,58.82352941,,,,,right,1,0.494,0,10,10,48,1,1,2,1 | 2,1,1.6933,1.6933,neutral,right,,,,,,stimulusFile/magnitude.xlsx,,,,,,,,,,,,,,,,,,,,,,,,,,,,,,,
,,,,,,,,,,,,,,,796,2022-01-16_22h26.42.817,multiplicationStroop,2021.2.3,MacIntel,58.82352941,,,,,right,1,0.713,0,11,11,65,1,2,7,2 | 7,5,1.6933,1.6933,neutral,right,,,,,,stimulusFile/magnitude.xlsx,,,,,,,,,,,,,,,,,,,,,,,,,,,,,,,
,,,,,,,,,,,,,,,796,2022-01-16_22h26.42.817,multiplicationStroop,2021.2.3,MacIntel,58.82352941,,,,,left,0,0.504,0,12,12,35,1,7,9,7 | 9,2,1.9756,1.4111,incongruent,right,,,,,,stimulusFile/magnitude.xlsx,,,,,,,,,,,,,,,,,,,,,,,,,,,,,,,
,,,,,,,,,,,,,,,796,2022-01-16_22h26.42.817,multiplicationStroop,2021.2.3,MacIntel,58.82352941,,,,,left,1,0.679,0,13,13,70,1,8,3,8 | 3,5,1.6933,1.6933,neutral,left,,,,,,stimulusFile/magnitude.xlsx,,,,,,,,,,,,,,,,,,,,,,,,,,,,,,,
,,,,,,,,,,,,,,,796,2022-01-16_22h26.42.817,multiplicationStroop,2021.2.3,MacIntel,58.82352941,,,,,left,1,0.475,0,14,14,22,1,8,3,8 | 3,5,1.9756,1.4111,congruent,left,,,,,,stimulusFile/magnitude.xlsx,,,,,,,,,,,,,,,,,,,,,,,,,,,,,,,
,,,,,,,,,,,,,,,796,2022-01-16_22h26.42.817,multiplicationStroop,2021.2.3,MacIntel,58.82352941,,,,,left,1,0.558,0,15,15,20,1,6,1,6 | 1,5,1.9756,1.4111,congruent,left,,,,,,stimulusFile/magnitude.xlsx,,,,,,,,,,,,,,,,,,,,,,,,,,,,,,,
,,,,,,,,,,,,,,,796,2022-01-16_22h26.42.817,multiplicationStroop,2021.2.3,MacIntel,58.82352941,,,,,right,1,0.661,0,16,16,34,1,6,8,6 | 8,2,1.9756,1.4111,incongruent,right,,,,,,stimulusFile/magnitude.xlsx,,,,,,,,,,,,,,,,,,,,,,,,,,,,,,,
,,,,,,,,,,,,,,,796,2022-01-16_22h26.42.817,multiplicationStroop,2021.2.3,MacIntel,58.82352941,,,,,right,1,0.524,0,17,17,57,1,2,4,2 | 4,2,1.6933,1.6933,neutral,right,,,,,,stimulusFile/magnitude.xlsx,,,,,,,,,,,,,,,,,,,,,,,,,,,,,,,
,,,,,,,,,,,,,,,796,2022-01-16_22h26.42.817,multiplicationStroop,2021.2.3,MacIntel,58.82352941,,,,,left,1,0.509,0,18,18,60,1,3,1,3 | 1,2,1.6933,1.6933,neutral,left,,,,,,stimulusFile/magnitude.xlsx,,,,,,,,,,,,,,,,,,,,,,,,,,,,,,,
,,,,,,,,,,,,,,,796,2022-01-16_22h26.42.817,multiplicationStroop,2021.2.3,MacIntel,58.82352941,,,,,right,1,0.843,0,19,19,58,1,6,8,6 | 8,2,1.6933,1.6933,neutral,right,,,,,,stimulusFile/magnitude.xlsx,,,,,,,,,,,,,,,,,,,,,,,,,,,,,,,
,,,,,,,,,,,,,,,796,2022-01-16_22h26.42.817,multiplicationStroop,2021.2.3,MacIntel,58.82352941,,,,,left,1,0.529,0,20,20,53,1,4,3,4 | 3,1,1.6933,1.6933,neutral,left,,,,,,stimulusFile/magnitude.xlsx,,,,,,,,,,,,,,,,,,,,,,,,,,,,,,,
,,,,,,,,,,,,,,,796,2022-01-16_22h26.42.817,multiplicationStroop,2021.2.3,MacIntel,58.82352941,,,,,right,1,0.587,0,21,21,43,1,4,9,4 | 9,5,1.9756,1.4111,incongruent,right,,,,,,stimulusFile/magnitude.xlsx,,,,,,,,,,,,,,,,,,,,,,,,,,,,,,,
,,,,,,,,,,,,,,,796,2022-01-16_22h26.42.817,multiplicationStroop,2021.2.3,MacIntel,58.82352941,,,,,right,1,0.524,0,22,22,32,1,1,3,1 | 3,2,1.9756,1.4111,incongruent,right,,,,,,stimulusFile/magnitude.xlsx,,,,,,,,,,,,,,,,,,,,,,,,,,,,,,,
,,,,,,,,,,,,,,,796,2022-01-16_22h26.42.817,multiplicationStroop,2021.2.3,MacIntel,58.82352941,,,,,left,1,0.524,0,23,23,71,1,9,4,9 | 4,5,1.6933,1.6933,neutral,left,,,,,,stimulusFile/magnitude.xlsx,,,,,,,,,,,,,,,,,,,,,,,,,,,,,,,
,,,,,,,,,,,,,,,796,2022-01-16_22h26.42.817,multiplicationStroop,2021.2.3,MacIntel,58.82352941,,,,,left,1,0.659,0,24,24,61,1,4,2,4 | 2,2,1.6933,1.6933,neutral,left,,,,,,stimulusFile/magnitude.xlsx,,,,,,,,,,,,,,,,,,,,,,,,,,,,,,,
,,,,,,,,,,,,,,,796,2022-01-16_22h26.42.817,multiplicationStroop,2021.2.3,MacIntel,58.82352941,,,,,left,1,1.291,0,25,25,38,1,8,6,8 | 6,2,1.4111,1.9756,incongruent,left,,,,,,stimulusFile/magnitude.xlsx,,,,,,,,,,,,,,,,,,,,,,,,,,,,,,,
,,,,,,,,,,,,,,,796,2022-01-16_22h26.42.817,multiplicationStroop,2021.2.3,MacIntel,58.82352941,,,,,left,1,0.693,0,26,26,36,1,3,1,3 | 1,2,1.4111,1.9756,incongruent,left,,,,,,stimulusFile/magnitude.xlsx,,,,,,,,,,,,,,,,,,,,,,,,,,,,,,,
,,,,,,,,,,,,,,,796,2022-01-16_22h26.42.817,multiplicationStroop,2021.2.3,MacIntel,58.82352941,,,,,left,1,0.599,0,27,27,63,1,9,7,9 | 7,2,1.6933,1.6933,neutral,left,,,,,,stimulusFile/magnitude.xlsx,,,,,,,,,,,,,,,,,,,,,,,,,,,,,,,
,,,,,,,,,,,,,,,796,2022-01-16_22h26.42.817,multiplicationStroop,2021.2.3,MacIntel,58.82352941,,,,,right,1,0.51,0,28,28,16,1,1,6,1 | 6,5,1.4111,1.9756,congruent,right,,,,,,stimulusFile/magnitude.xlsx,,,,,,,,,,,,,,,,,,,,,,,,,,,,,,,
,,,,,,,,,,,,,,,796,2022-01-16_22h26.42.817,multiplicationStroop,2021.2.3,MacIntel,58.82352941,,,,,left,1,1.175,0,29,29,12,1,3,1,3 | 1,2,1.9756,1.4111,congruent,left,,,,,,stimulusFile/magnitude.xlsx,,,,,,,,,,,,,,,,,,,,,,,,,,,,,,,
,,,,,,,,,,,,,,,796,2022-01-16_22h26.42.817,multiplicationStroop,2021.2.3,MacIntel,58.82352941,,,,,left,1,0.525,0,30,30,52,1,2,1,2 | 1,1,1.6933,1.6933,neutral,left,,,,,,stimulusFile/magnitude.xlsx,,,,,,,,,,,,,,,,,,,,,,,,,,,,,,,
,,,,,,,,,,,,,,,796,2022-01-16_22h26.42.817,multiplicationStroop,2021.2.3,MacIntel,58.82352941,,,,,right,1,0.524,0,31,31,3,1,8,9,8 | 9,1,1.4111,1.9756,congruent,right,,,,,,stimulusFile/magnitude.xlsx,,,,,,,,,,,,,,,,,,,,,,,,,,,,,,,
,,,,,,,,,,,,,,,796,2022-01-16_22h26.42.817,multiplicationStroop,2021.2.3,MacIntel,58.82352941,,,,,right,1,0.592,0,32,32,67,1,4,9,4 | 9,5,1.6933,1.6933,neutral,right,,,,,,stimulusFile/magnitude.xlsx,,,,,,,,,,,,,,,,,,,,,,,,,,,,,,,
,,,,,,,,,,,,,,,796,2022-01-16_22h26.42.817,multiplicationStroop,2021.2.3,MacIntel,58.82352941,,,,,left,0,0.52,0,33,33,41,1,2,7,2 | 7,5,1.9756,1.4111,incongruent,right,,,,,,stimulusFile/magnitude.xlsx,,,,,,,,,,,,,,,,,,,,,,,,,,,,,,,
,,,,,,,,,,,,,,,796,2022-01-16_22h26.42.817,multiplicationStroop,2021.2.3,MacIntel,58.82352941,,,,,right,1,0.636,0,34,34,10,1,6,8,6 | 8,2,1.4111,1.9756,congruent,right,,,,,,stimulusFile/magnitude.xlsx,,,,,,,,,,,,,,,,,,,,,,,,,,,,,,,
,,,,,,,,,,,,,,,796,2022-01-16_22h26.42.817,multiplicationStroop,2021.2.3,MacIntel,58.82352941,,,,,left,1,0.553,0,35,35,13,1,4,2,4 | 2,2,1.9756,1.4111,congruent,left,,,,,,stimulusFile/magnitude.xlsx,,,,,,,,,,,,,,,,,,,,,,,,,,,,,,,
,,,,,,,,,,,,,,,796,2022-01-16_22h26.42.817,multiplicationStroop,2021.2.3,MacIntel,58.82352941,,,,,right,1,0.662,0,36,36,59,1,7,9,7 | 9,2,1.6933,1.6933,neutral,right,,,,,,stimulusFile/magnitude.xlsx,,,,,,,,,,,,,,,,,,,,,,,,,,,,,,,
,,,,,,,,,,,,,,,796,2022-01-16_22h26.42.817,multiplicationStroop,2021.2.3,MacIntel,58.82352941,,,,,left,1,0.654,0,37,37,45,1,7,2,7 | 2,5,1.4111,1.9756,incongruent,left,,,,,,stimulusFile/magnitude.xlsx,,,,,,,,,,,,,,,,,,,,,,,,,,,,,,,
,,,,,,,,,,,,,,,796,2022-01-16_22h26.42.817,multiplicationStroop,2021.2.3,MacIntel,58.82352941,,,,,right,1,0.594,0,38,38,26,1,6,7,6 | 7,1,1.9756,1.4111,incongruent,right,,,,,,stimulusFile/magnitude.xlsx,,,,,,,,,,,,,,,,,,,,,,,,,,,,,,,
,,,,,,,,,,,,,,,796,2022-01-16_22h26.42.817,multiplicationStroop,2021.2.3,MacIntel,58.82352941,,,,,left,1,0.738,0,39,39,30,1,7,6,7 | 6,1,1.4111,1.9756,incongruent,left,,,,,,stimulusFile/magnitude.xlsx,,,,,,,,,,,,,,,,,,,,,,,,,,,,,,,
,,,,,,,,,,,,,,,796,2022-01-16_22h26.42.817,multiplicationStroop,2021.2.3,MacIntel,58.82352941,,,,,left,1,0.56,0,40,40,62,1,8,6,8 | 6,2,1.6933,1.6933,neutral,left,,,,,,stimulusFile/magnitude.xlsx,,,,,,,,,,,,,,,,,,,,,,,,,,,,,,,
,,,,,,,,,,,,,,,796,2022-01-16_22h26.42.817,multiplicationStroop,2021.2.3,MacIntel,58.82352941,,,,,left,1,0.463,0,41,41,14,1,8,6,8 | 6,2,1.9756,1.4111,congruent,left,,,,,,stimulusFile/magnitude.xlsx,,,,,,,,,,,,,,,,,,,,,,,,,,,,,,,
,,,,,,,,,,,,,,,796,2022-01-16_22h26.42.817,multiplicationStroop,2021.2.3,MacIntel,58.82352941,,,,,right,1,0.554,0,42,42,19,1,4,9,4 | 9,5,1.4111,1.9756,congruent,right,,,,,,stimulusFile/magnitude.xlsx,,,,,,,,,,,,,,,,,,,,,,,,,,,,,,,
,,,,,,,,,,,,,,,796,2022-01-16_22h26.42.817,multiplicationStroop,2021.2.3,MacIntel,58.82352941,,,,,right,1,0.842,0,43,43,27,1,8,9,8 | 9,1,1.9756,1.4111,incongruent,right,,,,,,stimulusFile/magnitude.xlsx,,,,,,,,,,,,,,,,,,,,,,,,,,,,,,,
,,,,,,,,,,,,,,,796,2022-01-16_22h26.42.817,multiplicationStroop,2021.2.3,MacIntel,58.82352941,,,,,right,1,0.596,0,44,44,49,1,3,4,3 | 4,1,1.6933,1.6933,neutral,right,,,,,,stimulusFile/magnitude.xlsx,,,,,,,,,,,,,,,,,,,,,,,,,,,,,,,
,,,,,,,,,,,,,,,796,2022-01-16_22h26.42.817,multiplicationStroop,2021.2.3,MacIntel,58.82352941,,,,,right,1,0.68,0,45,45,64,1,1,6,1 | 6,5,1.6933,1.6933,neutral,right,,,,,,stimulusFile/magnitude.xlsx,,,,,,,,,,,,,,,,,,,,,,,,,,,,,,,
,,,,,,,,,,,,,,,796,2022-01-16_22h26.42.817,multiplicationStroop,2021.2.3,MacIntel,58.82352941,,,,,left,1,0.621,0,46,46,6,1,7,6,7 | 6,1,1.9756,1.4111,congruent,left,,,,,,stimulusFile/magnitude.xlsx,,,,,,,,,,,,,,,,,,,,,,,,,,,,,,,
,,,,,,,,,,,,,,,796,2022-01-16_22h26.42.817,multiplicationStroop,2021.2.3,MacIntel,58.82352941,,,,,right,1,0.754,0,47,47,51,1,8,9,8 | 9,1,1.6933,1.6933,neutral,right,,,,,,stimulusFile/magnitude.xlsx,,,,,,,,,,,,,,,,,,,,,,,,,,,,,,,
,,,,,,,,,,,,,,,796,2022-01-16_22h26.42.817,multiplicationStroop,2021.2.3,MacIntel,58.82352941,,,,,left,1,0.557,0,48,48,21,1,7,2,7 | 2,5,1.9756,1.4111,congruent,left,,,,,,stimulusFile/magnitude.xlsx,,,,,,,,,,,,,,,,,,,,,,,,,,,,,,,
,,,,,,,,,,,,,,,796,2022-01-16_22h26.42.817,multiplicationStroop,2021.2.3,MacIntel,58.82352941,,,,,right,1,0.635,0,49,49,24,1,1,2,1 | 2,1,1.9756,1.4111,incongruent,right,,,,,,stimulusFile/magnitude.xlsx,,,,,,,,,,,,,,,,,,,,,,,,,,,,,,,
,,,,,,,,,,,,,,,796,2022-01-16_22h26.42.817,multiplicationStroop,2021.2.3,MacIntel,58.82352941,,,,,right,1,0.606,0,50,50,17,1,2,7,2 | 7,5,1.4111,1.9756,congruent,right,,,,,,stimulusFile/magnitude.xlsx,,,,,,,,,,,,,,,,,,,,,,,,,,,,,,,
,,,,,,,,,,,,,,,796,2022-01-16_22h26.42.817,multiplicationStroop,2021.2.3,MacIntel,58.82352941,,,,,right,1,0.488,0,51,51,0,1,1,2,1 | 2,1,1.4111,1.9756,congruent,right,,,,,,stimulusFile/magnitude.xlsx,,,,,,,,,,,,,,,,,,,,,,,,,,,,,,,
,,,,,,,,,,,,,,,796,2022-01-16_22h26.42.817,multiplicationStroop,2021.2.3,MacIntel,58.82352941,,,,,right,1,0.653,0,52,52,9,1,2,4,2 | 4,2,1.4111,1.9756,congruent,right,,,,,,stimulusFile/magnitude.xlsx,,,,,,,,,,,,,,,,,,,,,,,,,,,,,,,
,,,,,,,,,,,,,,,796,2022-01-16_22h26.42.817,multiplicationStroop,2021.2.3,MacIntel,58.82352941,,,,,left,1,0.557,0,53,53,7,1,9,8,9 | 8,1,1.9756,1.4111,congruent,left,,,,,,stimulusFile/magnitude.xlsx,,,,,,,,,,,,,,,,,,,,,,,,,,,,,,,
,,,,,,,,,,,,,,,796,2022-01-16_22h26.42.817,multiplicationStroop,2021.2.3,MacIntel,58.82352941,,,,,right,1,0.785,0,54,54,42,1,3,8,3 | 8,5,1.9756,1.4111,incongruent,right,,,,,,stimulusFile/magnitude.xlsx,,,,,,,,,,,,,,,,,,,,,,,,,,,,,,,
,,,,,,,,,,,,,,,796,2022-01-16_22h26.42.817,multiplicationStroop,2021.2.3,MacIntel,58.82352941,,,,,right,1,2.064,0,55,55,25,1,3,4,3 | 4,1,1.9756,1.4111,incongruent,right,,,,,,stimulusFile/magnitude.xlsx,,,,,,,,,,,,,,,,,,,,,,,,,,,,,,,
,,,,,,,,,,,,,,,796,2022-01-16_22h26.42.817,multiplicationStroop,2021.2.3,MacIntel,58.82352941,,,,,left,1,0.559,0,56,56,15,1,9,7,9 | 7,2,1.9756,1.4111,congruent,left,,,,,,stimulusFile/magnitude.xlsx,,,,,,,,,,,,,,,,,,,,,,,,,,,,,,,
,,,,,,,,,,,,,,,796,2022-01-16_22h26.42.817,multiplicationStroop,2021.2.3,MacIntel,58.82352941,,,,,left,1,1.279,0,57,57,29,1,4,3,4 | 3,1,1.4111,1.9756,incongruent,left,,,,,,stimulusFile/magnitude.xlsx,,,,,,,,,,,,,,,,,,,,,,,,,,,,,,,
,,,,,,,,,,,,,,,796,2022-01-16_22h26.42.817,multiplicationStroop,2021.2.3,MacIntel,58.82352941,,,,,right,1,0.525,0,58,58,56,1,1,3,1 | 3,2,1.6933,1.6933,neutral,right,,,,,,stimulusFile/magnitude.xlsx,,,,,,,,,,,,,,,,,,,,,,,,,,,,,,,
,,,,,,,,,,,,,,,796,2022-01-16_22h26.42.817,multiplicationStroop,2021.2.3,MacIntel,58.82352941,,,,,left,1,0.561,0,59,59,39,1,9,7,9 | 7,2,1.4111,1.9756,incongruent,left,,,,,,stimulusFile/magnitude.xlsx,,,,,,,,,,,,,,,,,,,,,,,,,,,,,,,
,,,,,,,,,,,,,,,796,2022-01-16_22h26.42.817,multiplicationStroop,2021.2.3,MacIntel,58.82352941,,,,,right,1,0.493,0,60,60,18,1,3,8,3 | 8,5,1.4111,1.9756,congruent,right,,,,,,stimulusFile/magnitude.xlsx,,,,,,,,,,,,,,,,,,,,,,,,,,,,,,,
,,,,,,,,,,,,,,,796,2022-01-16_22h26.42.817,multiplicationStroop,2021.2.3,MacIntel,58.82352941,,,,,left,1,0.495,0,61,61,5,1,4,3,4 | 3,1,1.9756,1.4111,congruent,left,,,,,,stimulusFile/magnitude.xlsx,,,,,,,,,,,,,,,,,,,,,,,,,,,,,,,
,,,,,,,,,,,,,,,796,2022-01-16_22h26.42.817,multiplicationStroop,2021.2.3,MacIntel,58.82352941,,,,,left,1,0.769,0,62,62,47,1,9,4,9 | 4,5,1.4111,1.9756,incongruent,left,,,,,,stimulusFile/magnitude.xlsx,,,,,,,,,,,,,,,,,,,,,,,,,,,,,,,
,,,,,,,,,,,,,,,796,2022-01-16_22h26.42.817,multiplicationStroop,2021.2.3,MacIntel,58.82352941,,,,,right,1,0.775,0,63,63,1,1,3,4,3 | 4,1,1.4111,1.9756,congruent,right,,,,,,stimulusFile/magnitude.xlsx,,,,,,,,,,,,,,,,,,,,,,,,,,,,,,,
,,,,,,,,,,,,,,,796,2022-01-16_22h26.42.817,multiplicationStroop,2021.2.3,MacIntel,58.82352941,,,,,left,1,0.707,0,64,64,54,1,7,6,7 | 6,1,1.6933,1.6933,neutral,left,,,,,,stimulusFile/magnitude.xlsx,,,,,,,,,,,,,,,,,,,,,,,,,,,,,,,
,,,,,,,,,,,,,,,796,2022-01-16_22h26.42.817,multiplicationStroop,2021.2.3,MacIntel,58.82352941,,,,,left,1,0.558,0,65,65,44,1,6,1,6 | 1,5,1.4111,1.9756,incongruent,left,,,,,,stimulusFile/magnitude.xlsx,,,,,,,,,,,,,,,,,,,,,,,,,,,,,,,
,,,,,,,,,,,,,,,796,2022-01-16_22h26.42.817,multiplicationStroop,2021.2.3,MacIntel,58.82352941,,,,,right,1,0.626,0,66,66,33,1,2,4,2 | 4,2,1.9756,1.4111,incongruent,right,,,,,,stimulusFile/magnitude.xlsx,,,,,,,,,,,,,,,,,,,,,,,,,,,,,,,
,,,,,,,,,,,,,,,796,2022-01-16_22h26.42.817,multiplicationStroop,2021.2.3,MacIntel,58.82352941,,,,,right,1,0.591,0,67,67,8,1,1,3,1 | 3,2,1.4111,1.9756,congruent,right,,,,,,stimulusFile/magnitude.xlsx,,,,,,,,,,,,,,,,,,,,,,,,,,,,,,,
,,,,,,,,,,,,,,,796,2022-01-16_22h26.42.817,multiplicationStroop,2021.2.3,MacIntel,58.82352941,,,,,left,1,0.547,0,68,68,69,1,7,2,7 | 2,5,1.6933,1.6933,neutral,left,,,,,,stimulusFile/magnitude.xlsx,,,,,,,,,,,,,,,,,,,,,,,,,,,,,,,
,,,,,,,,,,,,,,,796,2022-01-16_22h26.42.817,multiplicationStroop,2021.2.3,MacIntel,58.82352941,,,,,left,1,0.695,0,69,69,31,1,9,8,9 | 8,1,1.4111,1.9756,incongruent,left,,,,,,stimulusFile/magnitude.xlsx,,,,,,,,,,,,,,,,,,,,,,,,,,,,,,,
,,,,,,,,,,,,,,,796,2022-01-16_22h26.42.817,multiplicationStroop,2021.2.3,MacIntel,58.82352941,,,,,right,1,0.528,0,70,70,66,1,3,8,3 | 8,5,1.6933,1.6933,neutral,right,,,,,,stimulusFile/magnitude.xlsx,,,,,,,,,,,,,,,,,,,,,,,,,,,,,,,
,,,,,,,,,,,,,,,796,2022-01-16_22h26.42.817,multiplicationStroop,2021.2.3,MacIntel,58.82352941,,,,,left,1,0.571,0,71,71,28,1,2,1,2 | 1,1,1.4111,1.9756,incongruent,left,,,,,,stimulusFile/magnitude.xlsx,,,,,,,,,,,,,,,,,,,,,,,,,,,,,,,
,,,,,,,,,,,,,,,796,2022-01-16_22h26.42.817,multiplicationStroop,2021.2.3,MacIntel,58.82352941,,,,,,,,,,,,,,,,,,,,,0,1,1,0,1,stimulusFile/magnitude.xlsx,NUMERICALLY larger (larger coefficient).,images/numericallyLarger.png,,,,,,,,,,,,,,,,,,,,,,,,,,,,,
,,,,,,,,,,,,,,,796,2022-01-16_22h26.42.817,multiplicationStroop,2021.2.3,MacIntel,58.82352941,,,,,,,,,,,,,,,,,,,,,,,,,,,,,space,6.036,space,2.072,12,2.495,1,0,0,0,19,1,4,×,3,4 × 3,incongruent,largerFirst,1,2,12,,,,,,,,
,,,,,,,,,,,,,,,796,2022-01-16_22h26.42.817,multiplicationStroop,2021.2.3,MacIntel,58.82352941,,,,,,,,,,,,,,,,,,,,,,,,,,,,,,,,,49,2.18,0,0,1,1,27,1,8,×,5,8 × 5,incongruent,largerFirst,1,2,40,,,,,,,,
,,,,,,,,,,,,,,,796,2022-01-16_22h26.42.817,multiplicationStroop,2021.2.3,MacIntel,58.82352941,,,,,,,,,,,,,,,,,,,,,,,,,,,,,,,,,9,2.081,1,0,2,2,29,1,3,×,3,3 × 3,neutral,tie,2,1,9,,,,,,,,
,,,,,,,,,,,,,,,796,2022-01-16_22h26.42.817,multiplicationStroop,2021.2.3,MacIntel,58.82352941,,,,,,,,,,,,,,,,,,,,,,,,,,,,,,,,,56,2.482,1,0,3,3,0,1,7,×,8,7 × 8,incongruent,smallerFirst,2,1,56,,,,,,,,
,,,,,,,,,,,,,,,796,2022-01-16_22h26.42.817,multiplicationStroop,2021.2.3,MacIntel,58.82352941,,,,,,,,,,,,,,,,,,,,,,,,,,,,,,,,,35,2.081,1,0,4,4,26,1,7,×,5,7 × 5,incongruent,largerFirst,1,2,35,,,,,,,,
,,,,,,,,,,,,,,,796,2022-01-16_22h26.42.817,multiplicationStroop,2021.2.3,MacIntel,58.82352941,,,,,,,,,,,,,,,,,,,,,,,,,,,,,,,,,20,2.498,1,0,5,5,13,1,4,×,5,4 × 5,incongruent,smallerFirst,2,1,20,,,,,,,,
,,,,,,,,,,,,,,,796,2022-01-16_22h26.42.817,multiplicationStroop,2021.2.3,MacIntel,58.82352941,,,,,,,,,,,,,,,,,,,,,,,,,,,,,,,,,12,1.449,1,0,6,6,5,1,2,×,6,2 × 6,incongruent,smallerFirst,2,1,12,,,,,,,,
,,,,,,,,,,,,,,,796,2022-01-16_22h26.42.817,multiplicationStroop,2021.2.3,MacIntel,58.82352941,,,,,,,,,,,,,,,,,,,,,,,,,,,,,,,,,6,1.765,1,0,7,7,25,1,3,×,2,3 × 2,incongruent,largerFirst,1,2,6,,,,,,,,
,,,,,,,,,,,,,,,796,2022-01-16_22h26.42.817,multiplicationStroop,2021.2.3,MacIntel,58.82352941,,,,,,,,,,,,,,,,,,,,,,,,,,,,,,,,,64,1.898,1,0,8,8,34,1,8,×,8,8 × 8,neutral,tie,2,1,64,,,,,,,,
,,,,,,,,,,,,,,,796,2022-01-16_22h26.42.817,multiplicationStroop,2021.2.3,MacIntel,58.82352941,,,,,,,,,,,,,,,,,,,,,,,,,,,,,,,,,81,1.731,1,0,9,9,35,1,9,×,9,9 × 9,neutral,tie,2,1,81,,,,,,,,
,,,,,,,,,,,,,,,796,2022-01-16_22h26.42.817,multiplicationStroop,2021.2.3,MacIntel,58.82352941,,,,,,,,,,,,,,,,,,,,,,,,,,,,,,,,,45,1.932,1,0,10,10,8,1,5,×,9,5 × 9,incongruent,smallerFirst,2,1,45,,,,,,,,
,,,,,,,,,,,,,,,796,2022-01-16_22h26.42.817,multiplicationStroop,2021.2.3,MacIntel,58.82352941,,,,,,,,,,,,,,,,,,,,,,,,,,,,,,,,,36,1.848,1,0,11,11,32,1,6,×,6,6 × 6,neutral,tie,2,1,36,,,,,,,,
,,,,,,,,,,,,,,,796,2022-01-16_22h26.42.817,multiplicationStroop,2021.2.3,MacIntel,58.82352941,,,,,,,,,,,,,,,,,,,,,,,,,,,,,,,,,72,1.948,1,0,12,12,14,1,9,×,8,9 × 8,incongruent,largerFirst,1,2,72,,,,,,,,
,,,,,,,,,,,,,,,796,2022-01-16_22h26.42.817,multiplicationStroop,2021.2.3,MacIntel,58.82352941,,,,,,,,,,,,,,,,,,,,,,,,,,,,,,,,,24,1.666,1,0,13,13,6,1,4,×,6,4 × 6,incongruent,smallerFirst,2,1,24,,,,,,,,
,,,,,,,,,,,,,,,796,2022-01-16_22h26.42.817,multiplicationStroop,2021.2.3,MacIntel,58.82352941,,,,,,,,,,,,,,,,,,,,,,,,,,,,,,,,,10,1.731,1,0,14,14,7,1,2,×,5,2 × 5,incongruent,smallerFirst,2,1,10,,,,,,,,
,,,,,,,,,,,,,,,796,2022-01-16_22h26.42.817,multiplicationStroop,2021.2.3,MacIntel,58.82352941,,,,,,,,,,,,,,,,,,,,,,,,,,,,,,,,,63,2.864,1,0,15,15,17,1,9,×,7,9 × 7,incongruent,largerFirst,1,2,63,,,,,,,,
,,,,,,,,,,,,,,,796,2022-01-16_22h26.42.817,multiplicationStroop,2021.2.3,MacIntel,58.82352941,,,,,,,,,,,,,,,,,,,,,,,,,,,,,,,,,4,1.432,1,0,16,16,28,1,2,×,2,2 × 2,neutral,tie,2,1,4,,,,,,,,
,,,,,,,,,,,,,,,796,2022-01-16_22h26.42.817,multiplicationStroop,2021.2.3,MacIntel,58.82352941,,,,,,,,,,,,,,,,,,,,,,,,,,,,,,,,,54,3.215,1,0,17,17,20,1,9,×,6,9 × 6,incongruent,largerFirst,1,2,54,,,,,,,,
,,,,,,,,,,,,,,,796,2022-01-16_22h26.42.817,multiplicationStroop,2021.2.3,MacIntel,58.82352941,,,,,,,,,,,,,,,,,,,,,,,,,,,,,,,,,24,1.531,1,0,18,18,23,1,8,×,3,8 × 3,incongruent,largerFirst,1,2,24,,,,,,,,
,,,,,,,,,,,,,,,796,2022-01-16_22h26.42.817,multiplicationStroop,2021.2.3,MacIntel,58.82352941,,,,,,,,,,,,,,,,,,,,,,,,,,,,,,,,,30,1.664,1,0,19,19,11,1,5,×,6,5 × 6,incongruent,smallerFirst,2,1,30,,,,,,,,
,,,,,,,,,,,,,,,796,2022-01-16_22h26.42.817,multiplicationStroop,2021.2.3,MacIntel,58.82352941,,,,,,,,,,,,,,,,,,,,,,,,,,,,,,,,,48,1.983,1,0,20,20,15,1,8,×,6,8 × 6,incongruent,largerFirst,1,2,48,,,,,,,,
,,,,,,,,,,,,,,,796,2022-01-16_22h26.42.817,multiplicationStroop,2021.2.3,MacIntel,58.82352941,,,,,,,,,,,,,,,,,,,,,,,,,,,,,,,,,49,2.03,1,0,21,21,33,1,7,×,7,7 × 7,neutral,tie,2,1,49,,,,,,,,
,,,,,,,,,,,,,,,796,2022-01-16_22h26.42.817,multiplicationStroop,2021.2.3,MacIntel,58.82352941,,,,,,,,,,,,,,,,,,,,,,,,,,,,,,,,,15,2.266,1,0,22,22,24,1,5,×,3,5 × 3,incongruent,largerFirst,1,2,15,,,,,,,,
,,,,,,,,,,,,,,,796,2022-01-16_22h26.42.817,multiplicationStroop,2021.2.3,MacIntel,58.82352941,,,,,,,,,,,,,,,,,,,,,,,,,,,,,,,,,26,1.933,0,0,23,23,30,1,4,×,4,4 × 4,neutral,tie,2,1,16,,,,,,,,
,,,,,,,,,,,,,,,796,2022-01-16_22h26.42.817,multiplicationStroop,2021.2.3,MacIntel,58.82352941,,,,,,,,,,,,,,,,,,,,,,,,,,,,,,,,,21,1.565,1,0,24,24,12,1,3,×,7,3 × 7,incongruent,smallerFirst,2,1,21,,,,,,,,
,,,,,,,,,,,,,,,796,2022-01-16_22h26.42.817,multiplicationStroop,2021.2.3,MacIntel,58.82352941,,,,,,,,,,,,,,,,,,,,,,,,,,,,,,,,,32,1.531,1,0,25,25,21,1,8,×,4,8 × 4,incongruent,largerFirst,1,2,32,,,,,,,,
,,,,,,,,,,,,,,,796,2022-01-16_22h26.42.817,multiplicationStroop,2021.2.3,MacIntel,58.82352941,,,,,,,,,,,,,,,,,,,,,,,,,,,,,,,,,8,1.732,1,0,26,26,10,1,2,×,4,2 × 4,incongruent,smallerFirst,2,1,8,,,,,,,,
,,,,,,,,,,,,,,,796,2022-01-16_22h26.42.817,multiplicationStroop,2021.2.3,MacIntel,58.82352941,,,,,,,,,,,,,,,,,,,,,,,,,,,,,,,,,14,1.631,1,0,27,27,18,1,7,×,2,7 × 2,incongruent,largerFirst,1,2,14,,,,,,,,
,,,,,,,,,,,,,,,796,2022-01-16_22h26.42.817,multiplicationStroop,2021.2.3,MacIntel,58.82352941,,,,,,,,,,,,,,,,,,,,,,,,,,,,,,,,,42,1.698,1,0,28,28,3,1,6,×,7,6 × 7,incongruent,smallerFirst,2,1,42,,,,,,,,
,,,,,,,,,,,,,,,796,2022-01-16_22h26.42.817,multiplicationStroop,2021.2.3,MacIntel,58.82352941,,,,,,,,,,,,,,,,,,,,,,,,,,,,,,,,,27,1.899,1,0,29,29,4,1,3,×,9,3 × 9,incongruent,smallerFirst,2,1,27,,,,,,,,
,,,,,,,,,,,,,,,796,2022-01-16_22h26.42.817,multiplicationStroop,2021.2.3,MacIntel,58.82352941,,,,,,,,,,,,,,,,,,,,,,,,,,,,,,,,,16,1.831,1,0,30,30,9,1,2,×,8,2 × 8,incongruent,smallerFirst,2,1,16,,,,,,,,
,,,,,,,,,,,,,,,796,2022-01-16_22h26.42.817,multiplicationStroop,2021.2.3,MacIntel,58.82352941,,,,,,,,,,,,,,,,,,,,,,,,,,,,,,,,,28,1.865,1,0,31,31,2,1,4,×,7,4 × 7,incongruent,smallerFirst,2,1,28,,,,,,,,
,,,,,,,,,,,,,,,796,2022-01-16_22h26.42.817,multiplicationStroop,2021.2.3,MacIntel,58.82352941,,,,,,,,,,,,,,,,,,,,,,,,,,,,,,,,,36,2.315,1,0,32,32,1,1,4,×,9,4 × 9,incongruent,smallerFirst,2,1,36,,,,,,,,
,,,,,,,,,,,,,,,796,2022-01-16_22h26.42.817,multiplicationStroop,2021.2.3,MacIntel,58.82352941,,,,,,,,,,,,,,,,,,,,,,,,,,,,,,,,,25,1.914,1,0,33,33,31,1,5,×,5,5 × 5,neutral,tie,2,1,25,,,,,,,,
,,,,,,,,,,,,,,,796,2022-01-16_22h26.42.817,multiplicationStroop,2021.2.3,MacIntel,58.82352941,,,,,,,,,,,,,,,,,,,,,,,,,,,,,,,,,18,1.698,1,0,34,34,22,1,6,×,3,6 × 3,incongruent,largerFirst,1,2,18,,,,,,,,
,,,,,,,,,,,,,,,796,2022-01-16_22h26.42.817,multiplicationStroop,2021.2.3,MacIntel,58.82352941,,,,,,,,,,,,,,,,,,,,,,,,,,,,,,,,,18,1.948,1,0,35,35,16,1,9,×,2,9 × 2,incongruent,largerFirst,1,2,18,,,,,,,,
,,,,,,,,,,,,,,,796,2022-01-16_22h26.42.817,multiplicationStroop,2021.2.3,MacIntel,58.82352941,,,,,,,,,,,,,,,,,,,,,,,,,,,,,,,,,,,,,,,,,,,,,,,,,,0,0,0,4,1,stimulusFile/mult_blk5_INcongruent.xlsx,,
,,,,,,,,,,,,,,,796,2022-01-16_22h26.42.817,multiplicationStroop,2021.2.3,MacIntel,58.82352941,,,,,,,,,,,,,,,,,,,,,,,,,,,,,,,space,3.981,64,2.187,1,0,0,0,34,1,8,×,8,8 × 8,neutral,tie,1.5,1.5,64,,,,,,,,
,,,,,,,,,,,,,,,796,2022-01-16_22h26.42.817,multiplicationStroop,2021.2.3,MacIntel,58.82352941,,,,,,,,,,,,,,,,,,,,,,,,,,,,,,,,,27,1.682,1,0,1,1,0,1,3,×,9,3 × 9,neutral,smallerFirst,1.5,1.5,27,,,,,,,,
,,,,,,,,,,,,,,,796,2022-01-16_22h26.42.817,multiplicationStroop,2021.2.3,MacIntel,58.82352941,,,,,,,,,,,,,,,,,,,,,,,,,,,,,,,,,36,1.799,1,0,2,2,32,1,6,×,6,6 × 6,neutral,tie,1.5,1.5,36,,,,,,,,
,,,,,,,,,,,,,,,796,2022-01-16_22h26.42.817,multiplicationStroop,2021.2.3,MacIntel,58.82352941,,,,,,,,,,,,,,,,,,,,,,,,,,,,,,,,,24,1.498,1,0,3,3,8,1,3,×,8,3 × 8,neutral,smallerFirst,1.5,1.5,24,,,,,,,,
,,,,,,,,,,,,,,,796,2022-01-16_22h26.42.817,multiplicationStroop,2021.2.3,MacIntel,58.82352941,,,,,,,,,,,,,,,,,,,,,,,,,,,,,,,,,8,2.148,1,0,4,4,17,1,4,×,2,4 × 2,neutral,largerFirst,1.5,1.5,8,,,,,,,,
,,,,,,,,,,,,,,,796,2022-01-16_22h26.42.817,multiplicationStroop,2021.2.3,MacIntel,58.82352941,,,,,,,,,,,,,,,,,,,,,,,,,,,,,,,,,24,1.481,1,0,5,5,16,1,6,×,4,6 × 4,neutral,largerFirst,1.5,1.5,24,,,,,,,,
,,,,,,,,,,,,,,,796,2022-01-16_22h26.42.817,multiplicationStroop,2021.2.3,MacIntel,58.82352941,,,,,,,,,,,,,,,,,,,,,,,,,,,,,,,,,36,2.566,1,0,6,6,13,1,4,×,9,4 × 9,neutral,smallerFirst,1.5,1.5,36,,,,,,,,
,,,,,,,,,,,,,,,796,2022-01-16_22h26.42.817,multiplicationStroop,2021.2.3,MacIntel,58.82352941,,,,,,,,,,,,,,,,,,,,,,,,,,,,,,,,,40,1.698,1,0,7,7,10,1,5,×,8,5 × 8,neutral,smallerFirst,1.5,1.5,40,,,,,,,,
,,,,,,,,,,,,,,,796,2022-01-16_22h26.42.817,multiplicationStroop,2021.2.3,MacIntel,58.82352941,,,,,,,,,,,,,,,,,,,,,,,,,,,,,,,,,54,4.615,1,0,8,8,21,1,9,×,6,9 × 6,neutral,largerFirst,1.5,1.5,54,,,,,,,,
,,,,,,,,,,,,,,,796,2022-01-16_22h26.42.817,multiplicationStroop,2021.2.3,MacIntel,58.82352941,,,,,,,,,,,,,,,,,,,,,,,,,,,,,,,,,42,1.714,1,0,9,9,20,1,7,×,6,7 × 6,neutral,largerFirst,1.5,1.5,42,,,,,,,,
,,,,,,,,,,,,,,,796,2022-01-16_22h26.42.817,multiplicationStroop,2021.2.3,MacIntel,58.82352941,,,,,,,,,,,,,,,,,,,,,,,,,,,,,,,,,8,1.598,0,0,10,10,35,1,9,×,9,9 × 9,neutral,tie,1.5,1.5,81,,,,,,,,
,,,,,,,,,,,,,,,796,2022-01-16_22h26.42.817,multiplicationStroop,2021.2.3,MacIntel,58.82352941,,,,,,,,,,,,,,,,,,,,,,,,,,,,,,,,,48,3.065,1,0,11,11,1,1,6,×,8,6 × 8,neutral,smallerFirst,1.5,1.5,48,,,,,,,,
,,,,,,,,,,,,,,,796,2022-01-16_22h26.42.817,multiplicationStroop,2021.2.3,MacIntel,58.82352941,,,,,,,,,,,,,,,,,,,,,,,,,,,,,,,,,56,2.065,1,0,12,12,23,1,8,×,7,8 × 7,neutral,largerFirst,1.5,1.5,56,,,,,,,,
,,,,,,,,,,,,,,,796,2022-01-16_22h26.42.817,multiplicationStroop,2021.2.3,MacIntel,58.82352941,,,,,,,,,,,,,,,,,,,,,,,,,,,,,,,,,72,1.865,1,0,13,13,25,1,9,×,8,9 × 8,neutral,largerFirst,1.5,1.5,72,,,,,,,,
,,,,,,,,,,,,,,,796,2022-01-16_22h26.42.817,multiplicationStroop,2021.2.3,MacIntel,58.82352941,,,,,,,,,,,,,,,,,,,,,,,,,,,,,,,,,16,1.748,1,0,14,14,27,1,8,×,2,8 × 2,neutral,largerFirst,1.5,1.5,16,,,,,,,,
,,,,,,,,,,,,,,,796,2022-01-16_22h26.42.817,multiplicationStroop,2021.2.3,MacIntel,58.82352941,,,,,,,,,,,,,,,,,,,,,,,,,,,,,,,,,14,1.665,1,0,15,15,2,1,2,×,7,2 × 7,neutral,smallerFirst,1.5,1.5,14,,,,,,,,
,,,,,,,,,,,,,,,796,2022-01-16_22h26.42.817,multiplicationStroop,2021.2.3,MacIntel,58.82352941,,,,,,,,,,,,,,,,,,,,,,,,,,,,,,,,,21,2.281,1,0,16,16,22,1,7,×,3,7 × 3,neutral,largerFirst,1.5,1.5,21,,,,,,,,
,,,,,,,,,,,,,,,796,2022-01-16_22h26.42.817,multiplicationStroop,2021.2.3,MacIntel,58.82352941,,,,,,,,,,,,,,,,,,,,,,,,,,,,,,,,,18,1.764,1,0,17,17,14,1,6,×,3,6 × 3,neutral,largerFirst,1.5,1.5,18,,,,,,,,
,,,,,,,,,,,,,,,796,2022-01-16_22h26.42.817,multiplicationStroop,2021.2.3,MacIntel,58.82352941,,,,,,,,,,,,,,,,,,,,,,,,,,,,,,,,,32,2.164,1,0,18,18,9,1,4,×,8,4 × 8,neutral,smallerFirst,1.5,1.5,32,,,,,,,,
,,,,,,,,,,,,,,,796,2022-01-16_22h26.42.817,multiplicationStroop,2021.2.3,MacIntel,58.82352941,,,,,,,,,,,,,,,,,,,,,,,,,,,,,,,,,10,1.599,1,0,19,19,18,1,5,×,2,5 × 2,neutral,largerFirst,1.5,1.5,10,,,,,,,,
,,,,,,,,,,,,,,,796,2022-01-16_22h26.42.817,multiplicationStroop,2021.2.3,MacIntel,58.82352941,,,,,,,,,,,,,,,,,,,,,,,,,,,,,,,,,4,1.864,1,0,20,20,28,1,2,×,2,2 × 2,neutral,tie,1.5,1.5,4,,,,,,,,
,,,,,,,,,,,,,,,796,2022-01-16_22h26.42.817,multiplicationStroop,2021.2.3,MacIntel,58.82352941,,,,,,,,,,,,,,,,,,,,,,,,,,,,,,,,,12,1.314,1,0,21,21,7,1,3,×,4,3 × 4,neutral,smallerFirst,1.5,1.5,12,,,,,,,,
,,,,,,,,,,,,,,,796,2022-01-16_22h26.42.817,multiplicationStroop,2021.2.3,MacIntel,58.82352941,,,,,,,,,,,,,,,,,,,,,,,,,,,,,,,,,18,2.05,1,0,22,22,4,1,2,×,9,2 × 9,neutral,smallerFirst,1.5,1.5,18,,,,,,,,
,,,,,,,,,,,,,,,796,2022-01-16_22h26.42.817,multiplicationStroop,2021.2.3,MacIntel,58.82352941,,,,,,,,,,,,,,,,,,,,,,,,,,,,,,,,,30,1.682,1,0,23,23,5,1,5,×,6,5 × 6,neutral,smallerFirst,1.5,1.5,30,,,,,,,,
,,,,,,,,,,,,,,,796,2022-01-16_22h26.42.817,multiplicationStroop,2021.2.3,MacIntel,58.82352941,,,,,,,,,,,,,,,,,,,,,,,,,,,,,,,,,20,1.848,1,0,24,24,6,1,4,×,5,4 × 5,neutral,smallerFirst,1.5,1.5,20,,,,,,,,
,,,,,,,,,,,,,,,796,2022-01-16_22h26.42.817,multiplicationStroop,2021.2.3,MacIntel,58.82352941,,,,,,,,,,,,,,,,,,,,,,,,,,,,,,,,,9,1.881,1,0,25,25,29,1,3,×,3,3 × 3,neutral,tie,1.5,1.5,9,,,,,,,,
,,,,,,,,,,,,,,,796,2022-01-16_22h26.42.817,multiplicationStroop,2021.2.3,MacIntel,58.82352941,,,,,,,,,,,,,,,,,,,,,,,,,,,,,,,,,35,2.631,1,0,26,26,15,1,7,×,5,7 × 5,neutral,largerFirst,1.5,1.5,35,,,,,,,,
,,,,,,,,,,,,,,,796,2022-01-16_22h26.42.817,multiplicationStroop,2021.2.3,MacIntel,58.82352941,,,,,,,,,,,,,,,,,,,,,,,,,,,,,,,,,25,1.765,1,0,27,27,31,1,5,×,5,5 × 5,neutral,tie,1.5,1.5,25,,,,,,,,
,,,,,,,,,,,,,,,796,2022-01-16_22h26.42.817,multiplicationStroop,2021.2.3,MacIntel,58.82352941,,,,,,,,,,,,,,,,,,,,,,,,,,,,,,,,,45,1.748,1,0,28,28,24,1,9,×,5,9 × 5,neutral,largerFirst,1.5,1.5,45,,,,,,,,
,,,,,,,,,,,,,,,796,2022-01-16_22h26.42.817,multiplicationStroop,2021.2.3,MacIntel,58.82352941,,,,,,,,,,,,,,,,,,,,,,,,,,,,,,,,,63,2.081,1,0,29,29,26,1,9,×,7,9 × 7,neutral,largerFirst,1.5,1.5,63,,,,,,,,
,,,,,,,,,,,,,,,796,2022-01-16_22h26.42.817,multiplicationStroop,2021.2.3,MacIntel,58.82352941,,,,,,,,,,,,,,,,,,,,,,,,,,,,,,,,,6,1.715,1,0,30,30,12,1,2,×,3,2 × 3,neutral,smallerFirst,1.5,1.5,6,,,,,,,,
,,,,,,,,,,,,,,,796,2022-01-16_22h26.42.817,multiplicationStroop,2021.2.3,MacIntel,58.82352941,,,,,,,,,,,,,,,,,,,,,,,,,,,,,,,,,28,1.764,1,0,31,31,3,1,4,×,7,4 × 7,neutral,smallerFirst,1.5,1.5,28,,,,,,,,
,,,,,,,,,,,,,,,796,2022-01-16_22h26.42.817,multiplicationStroop,2021.2.3,MacIntel,58.82352941,,,,,,,,,,,,,,,,,,,,,,,,,,,,,,,,,49,2.098,1,0,32,32,33,1,7,×,7,7 × 7,neutral,tie,1.5,1.5,49,,,,,,,,
,,,,,,,,,,,,,,,796,2022-01-16_22h26.42.817,multiplicationStroop,2021.2.3,MacIntel,58.82352941,,,,,,,,,,,,,,,,,,,,,,,,,,,,,,,,,16,1.965,1,0,33,33,30,1,4,×,4,4 × 4,neutral,tie,1.5,1.5,16,,,,,,,,
,,,,,,,,,,,,,,,796,2022-01-16_22h26.42.817,multiplicationStroop,2021.2.3,MacIntel,58.82352941,,,,,,,,,,,,,,,,,,,,,,,,,,,,,,,,,15,1.548,1,0,34,34,19,1,5,×,3,5 × 3,neutral,largerFirst,1.5,1.5,15,,,,,,,,
,,,,,,,,,,,,,,,796,2022-01-16_22h26.42.817,multiplicationStroop,2021.2.3,MacIntel,58.82352941,,,,,,,,,,,,,,,,,,,,,,,,,,,,,,,,,12,1.332,1,0,35,35,11,1,2,×,6,2 × 6,neutral,smallerFirst,1.5,1.5,12,,,,,,,,
,,,,,,,,,,,,,,,796,2022-01-16_22h26.42.817,multiplicationStroop,2021.2.3,MacIntel,58.82352941,,,,,,,,,,,,,,,,,,,,,,,,,,,,,,,,,,,,,,,,,,,,,,,,,,0,1,1,0,1,stimulusFile/mult_blk1.xlsx,,
,,,,,,,,,,,,,,,796,2022-01-16_22h26.42.817,multiplicationStroop,2021.2.3,MacIntel,58.82352941,,,,,,,,,,,,,,,,,,,,,,,,,,,,,,,space,1.792,10,1.665,1,0,0,0,10,1,2,×,5,2 × 5,congruent,smallerFirst,1,2,10,,,,,,,,
,,,,,,,,,,,,,,,796,2022-01-16_22h26.42.817,multiplicationStroop,2021.2.3,MacIntel,58.82352941,,,,,,,,,,,,,,,,,,,,,,,,,,,,,,,,,63,2.731,1,0,1,1,7,1,7,×,9,7 × 9,congruent,smallerFirst,1,2,63,,,,,,,,
,,,,,,,,,,,,,,,796,2022-01-16_22h26.42.817,multiplicationStroop,2021.2.3,MacIntel,58.82352941,,,,,,,,,,,,,,,,,,,,,,,,,,,,,,,,,81,2.465,1,0,2,2,35,1,9,×,9,9 × 9,neutral,tie,1,2,81,,,,,,,,
,,,,,,,,,,,,,,,796,2022-01-16_22h26.42.817,multiplicationStroop,2021.2.3,MacIntel,58.82352941,,,,,,,,,,,,,,,,,,,,,,,,,,,,,,,,,35,1.931,1,0,3,3,15,1,7,×,5,7 × 5,congruent,largerFirst,2,1,35,,,,,,,,
,,,,,,,,,,,,,,,796,2022-01-16_22h26.42.817,multiplicationStroop,2021.2.3,MacIntel,58.82352941,,,,,,,,,,,,,,,,,,,,,,,,,,,,,,,,,18,1.93,1,0,4,4,25,1,6,×,3,6 × 3,congruent,largerFirst,2,1,18,,,,,,,,
,,,,,,,,,,,,,,,796,2022-01-16_22h26.42.817,multiplicationStroop,2021.2.3,MacIntel,58.82352941,,,,,,,,,,,,,,,,,,,,,,,,,,,,,,,,,15,1.765,1,0,5,5,18,1,5,×,3,5 × 3,congruent,largerFirst,2,1,15,,,,,,,,
,,,,,,,,,,,,,,,796,2022-01-16_22h26.42.817,multiplicationStroop,2021.2.3,MacIntel,58.82352941,,,,,,,,,,,,,,,,,,,,,,,,,,,,,,,,,32,1.833,1,0,6,6,6,1,4,×,8,4 × 8,congruent,smallerFirst,1,2,32,,,,,,,,
,,,,,,,,,,,,,,,796,2022-01-16_22h26.42.817,multiplicationStroop,2021.2.3,MacIntel,58.82352941,,,,,,,,,,,,,,,,,,,,,,,,,,,,,,,,,25,1.749,1,0,7,7,31,1,5,×,5,5 × 5,neutral,tie,1,2,25,,,,,,,,
,,,,,,,,,,,,,,,796,2022-01-16_22h26.42.817,multiplicationStroop,2021.2.3,MacIntel,58.82352941,,,,,,,,,,,,,,,,,,,,,,,,,,,,,,,,,45,1.682,1,0,8,8,9,1,5,×,9,5 × 9,congruent,smallerFirst,1,2,45,,,,,,,,
,,,,,,,,,,,,,,,796,2022-01-16_22h26.42.817,multiplicationStroop,2021.2.3,MacIntel,58.82352941,,,,,,,,,,,,,,,,,,,,,,,,,,,,,,,,,4,1.331,1,0,9,9,28,1,2,×,2,2 × 2,neutral,tie,1,2,4,,,,,,,,
,,,,,,,,,,,,,,,796,2022-01-16_22h26.42.817,multiplicationStroop,2021.2.3,MacIntel,58.82352941,,,,,,,,,,,,,,,,,,,,,,,,,,,,,,,,,48,2.098,1,0,10,10,4,1,6,×,8,6 × 8,congruent,smallerFirst,1,2,48,,,,,,,,
,,,,,,,,,,,,,,,796,2022-01-16_22h26.42.817,multiplicationStroop,2021.2.3,MacIntel,58.82352941,,,,,,,,,,,,,,,,,,,,,,,,,,,,,,,,,42,1.598,1,0,11,11,17,1,7,×,6,7 × 6,congruent,largerFirst,2,1,42,,,,,,,,
,,,,,,,,,,,,,,,796,2022-01-16_22h26.42.817,multiplicationStroop,2021.2.3,MacIntel,58.82352941,,,,,,,,,,,,,,,,,,,,,,,,,,,,,,,,,56,2.297,1,0,12,12,22,1,8,×,7,8 × 7,congruent,largerFirst,2,1,56,,,,,,,,
,,,,,,,,,,,,,,,796,2022-01-16_22h26.42.817,multiplicationStroop,2021.2.3,MacIntel,58.82352941,,,,,,,,,,,,,,,,,,,,,,,,,,,,,,,,,14,1.566,1,0,13,13,0,1,2,×,7,2 × 7,congruent,smallerFirst,1,2,14,,,,,,,,
,,,,,,,,,,,,,,,796,2022-01-16_22h26.42.817,multiplicationStroop,2021.2.3,MacIntel,58.82352941,,,,,,,,,,,,,,,,,,,,,,,,,,,,,,,,,24,1.581,1,0,14,14,11,1,4,×,6,4 × 6,congruent,smallerFirst,1,2,24,,,,,,,,
,,,,,,,,,,,,,,,796,2022-01-16_22h26.42.817,multiplicationStroop,2021.2.3,MacIntel,58.82352941,,,,,,,,,,,,,,,,,,,,,,,,,,,,,,,,,18,1.648,1,0,15,15,8,1,2,×,9,2 × 9,congruent,smallerFirst,1,2,18,,,,,,,,
,,,,,,,,,,,,,,,796,2022-01-16_22h26.42.817,multiplicationStroop,2021.2.3,MacIntel,58.82352941,,,,,,,,,,,,,,,,,,,,,,,,,,,,,,,,,49,1.966,1,0,16,16,33,1,7,×,7,7 × 7,neutral,tie,1,2,49,,,,,,,,
,,,,,,,,,,,,,,,796,2022-01-16_22h26.42.817,multiplicationStroop,2021.2.3,MacIntel,58.82352941,,,,,,,,,,,,,,,,,,,,,,,,,,,,,,,,,9,1.581,1,0,17,17,29,1,3,×,3,3 × 3,neutral,tie,1,2,9,,,,,,,,
,,,,,,,,,,,,,,,796,2022-01-16_22h26.42.817,multiplicationStroop,2021.2.3,MacIntel,58.82352941,,,,,,,,,,,,,,,,,,,,,,,,,,,,,,,,,64,1.765,1,0,18,18,34,1,8,×,8,8 × 8,neutral,tie,1,2,64,,,,,,,,
,,,,,,,,,,,,,,,796,2022-01-16_22h26.42.817,multiplicationStroop,2021.2.3,MacIntel,58.82352941,,,,,,,,,,,,,,,,,,,,,,,,,,,,,,,,,36,1.833,1,0,19,19,14,1,9,×,4,9 × 4,congruent,largerFirst,2,1,36,,,,,,,,
,,,,,,,,,,,,,,,796,2022-01-16_22h26.42.817,multiplicationStroop,2021.2.3,MacIntel,58.82352941,,,,,,,,,,,,,,,,,,,,,,,,,,,,,,,,,21,1.481,1,0,20,20,2,1,3,×,7,3 × 7,congruent,smallerFirst,1,2,21,,,,,,,,
,,,,,,,,,,,,,,,796,2022-01-16_22h26.42.817,multiplicationStroop,2021.2.3,MacIntel,58.82352941,,,,,,,,,,,,,,,,,,,,,,,,,,,,,,,,,16,1.715,1,0,21,21,19,1,8,×,2,8 × 2,congruent,largerFirst,2,1,16,,,,,,,,
,,,,,,,,,,,,,,,796,2022-01-16_22h26.42.817,multiplicationStroop,2021.2.3,MacIntel,58.82352941,,,,,,,,,,,,,,,,,,,,,,,,,,,,,,,,,24,1.481,1,0,22,22,24,1,8,×,3,8 × 3,congruent,largerFirst,2,1,24,,,,,,,,
,,,,,,,,,,,,,,,796,2022-01-16_22h26.42.817,multiplicationStroop,2021.2.3,MacIntel,58.82352941,,,,,,,,,,,,,,,,,,,,,,,,,,,,,,,,,12,1.365,1,0,23,23,16,1,4,×,3,4 × 3,congruent,largerFirst,2,1,12,,,,,,,,
,,,,,,,,,,,,,,,796,2022-01-16_22h26.42.817,multiplicationStroop,2021.2.3,MacIntel,58.82352941,,,,,,,,,,,,,,,,,,,,,,,,,,,,,,,,,20,1.615,1,0,24,24,21,1,5,×,4,5 × 4,congruent,largerFirst,2,1,20,,,,,,,,
,,,,,,,,,,,,,,,796,2022-01-16_22h26.42.817,multiplicationStroop,2021.2.3,MacIntel,58.82352941,,,,,,,,,,,,,,,,,,,,,,,,,,,,,,,,,40,1.814,1,0,25,25,20,1,8,×,5,8 × 5,congruent,largerFirst,2,1,40,,,,,,,,
,,,,,,,,,,,,,,,796,2022-01-16_22h26.42.817,multiplicationStroop,2021.2.3,MacIntel,58.82352941,,,,,,,,,,,,,,,,,,,,,,,,,,,,,,,,,30,1.615,1,0,26,26,1,1,5,×,6,5 × 6,congruent,smallerFirst,1,2,30,,,,,,,,
,,,,,,,,,,,,,,,796,2022-01-16_22h26.42.817,multiplicationStroop,2021.2.3,MacIntel,58.82352941,,,,,,,,,,,,,,,,,,,,,,,,,,,,,,,,,16,1.782,1,0,27,27,30,1,4,×,4,4 × 4,neutral,tie,1,2,16,,,,,,,,
,,,,,,,,,,,,,,,796,2022-01-16_22h26.42.817,multiplicationStroop,2021.2.3,MacIntel,58.82352941,,,,,,,,,,,,,,,,,,,,,,,,,,,,,,,,,54,2.182,1,0,28,28,26,1,9,×,6,9 × 6,congruent,largerFirst,2,1,54,,,,,,,,
,,,,,,,,,,,,,,,796,2022-01-16_22h26.42.817,multiplicationStroop,2021.2.3,MacIntel,58.82352941,,,,,,,,,,,,,,,,,,,,,,,,,,,,,,,,,72,2.099,1,0,29,29,3,1,8,×,9,8 × 9,congruent,smallerFirst,1,2,72,,,,,,,,
,,,,,,,,,,,,,,,796,2022-01-16_22h26.42.817,multiplicationStroop,2021.2.3,MacIntel,58.82352941,,,,,,,,,,,,,,,,,,,,,,,,,,,,,,,,,27,1.865,1,0,30,30,12,1,3,×,9,3 × 9,congruent,smallerFirst,1,2,27,,,,,,,,
,,,,,,,,,,,,,,,796,2022-01-16_22h26.42.817,multiplicationStroop,2021.2.3,MacIntel,58.82352941,,,,,,,,,,,,,,,,,,,,,,,,,,,,,,,,,28,1.698,1,0,31,31,13,1,4,×,7,4 × 7,congruent,smallerFirst,1,2,28,,,,,,,,
,,,,,,,,,,,,,,,796,2022-01-16_22h26.42.817,multiplicationStroop,2021.2.3,MacIntel,58.82352941,,,,,,,,,,,,,,,,,,,,,,,,,,,,,,,,,36,2.064,1,0,32,32,32,1,6,×,6,6 × 6,neutral,tie,1,2,36,,,,,,,,
,,,,,,,,,,,,,,,796,2022-01-16_22h26.42.817,multiplicationStroop,2021.2.3,MacIntel,58.82352941,,,,,,,,,,,,,,,,,,,,,,,,,,,,,,,,,8,1.898,1,0,33,33,23,1,4,×,2,4 × 2,congruent,largerFirst,2,1,8,,,,,,,,
,,,,,,,,,,,,,,,796,2022-01-16_22h26.42.817,multiplicationStroop,2021.2.3,MacIntel,58.82352941,,,,,,,,,,,,,,,,,,,,,,,,,,,,,,,,,12,1.365,1,0,34,34,5,1,2,×,6,2 × 6,congruent,smallerFirst,1,2,12,,,,,,,,
,,,,,,,,,,,,,,,796,2022-01-16_22h26.42.817,multiplicationStroop,2021.2.3,MacIntel,58.82352941,,,,,,,,,,,,,,,,,,,,,,,,,,,,,,,,,6,1.648,1,0,35,35,27,1,3,×,2,3 × 2,congruent,largerFirst,2,1,6,,,,,,,,
,,,,,,,,,,,,,,,796,2022-01-16_22h26.42.817,multiplicationStroop,2021.2.3,MacIntel,58.82352941,,,,,,,,,,,,,,,,,,,,,,,,,,,,,,,,,,,,,,,,,,,,,,,,,,0,2,2,3,1,stimulusFile/mult_blk4_congruent.xlsx,,
,,,,,,,,,,,,,,,796,2022-01-16_22h26.42.817,multiplicationStroop,2021.2.3,MacIntel,58.82352941,,,,,,,,,,,,,,,,,,,,,,,,,,,,,,,space,1.006,63,2.794,1,0,0,0,12,1,7,×,9,7 × 9,neutral,smallerFirst,1.5,1.5,63,,,,,,,,
,,,,,,,,,,,,,,,796,2022-01-16_22h26.42.817,multiplicationStroop,2021.2.3,MacIntel,58.82352941,,,,,,,,,,,,,,,,,,,,,,,,,,,,,,,,,30,1.581,1,0,1,1,19,1,6,×,5,6 × 5,neutral,largerFirst,1.5,1.5,30,,,,,,,,
,,,,,,,,,,,,,,,796,2022-01-16_22h26.42.817,multiplicationStroop,2021.2.3,MacIntel,58.82352941,,,,,,,,,,,,,,,,,,,,,,,,,,,,,,,,,35,1.8,1,0,2,2,1,1,5,×,7,5 × 7,neutral,smallerFirst,1.5,1.5,35,,,,,,,,
,,,,,,,,,,,,,,,796,2022-01-16_22h26.42.817,multiplicationStroop,2021.2.3,MacIntel,58.82352941,,,,,,,,,,,,,,,,,,,,,,,,,,,,,,,,,27,1.781,1,0,3,3,14,1,9,×,3,9 × 3,neutral,largerFirst,1.5,1.5,27,,,,,,,,
,,,,,,,,,,,,,,,796,2022-01-16_22h26.42.817,multiplicationStroop,2021.2.3,MacIntel,58.82352941,,,,,,,,,,,,,,,,,,,,,,,,,,,,,,,,,18,1.697,1,0,4,4,0,1,3,×,6,3 × 6,neutral,smallerFirst,1.5,1.5,18,,,,,,,,
,,,,,,,,,,,,,,,796,2022-01-16_22h26.42.817,multiplicationStroop,2021.2.3,MacIntel,58.82352941,,,,,,,,,,,,,,,,,,,,,,,,,,,,,,,,,36,3.532,1,0,5,5,27,1,9,×,4,9 × 4,neutral,largerFirst,1.5,1.5,36,,,,,,,,
,,,,,,,,,,,,,,,796,2022-01-16_22h26.42.817,multiplicationStroop,2021.2.3,MacIntel,58.82352941,,,,,,,,,,,,,,,,,,,,,,,,,,,,,,,,,40,1.682,1,0,6,6,24,1,8,×,5,8 × 5,neutral,largerFirst,1.5,1.5,40,,,,,,,,
,,,,,,,,,,,,,,,796,2022-01-16_22h26.42.817,multiplicationStroop,2021.2.3,MacIntel,58.82352941,,,,,,,,,,,,,,,,,,,,,,,,,,,,,,,,,45,1.598,1,0,7,7,10,1,5,×,9,5 × 9,neutral,smallerFirst,1.5,1.5,45,,,,,,,,
,,,,,,,,,,,,,,,796,2022-01-16_22h26.42.817,multiplicationStroop,2021.2.3,MacIntel,58.82352941,,,,,,,,,,,,,,,,,,,,,,,,,,,,,,,,,24,1.681,1,0,8,8,2,1,4,×,6,4 × 6,neutral,smallerFirst,1.5,1.5,24,,,,,,,,
,,,,,,,,,,,,,,,796,2022-01-16_22h26.42.817,multiplicationStroop,2021.2.3,MacIntel,58.82352941,,,,,,,,,,,,,,,,,,,,,,,,,,,,,,,,,24,1.598,1,0,9,9,22,1,8,×,3,8 × 3,neutral,largerFirst,1.5,1.5,24,,,,,,,,
,,,,,,,,,,,,,,,796,2022-01-16_22h26.42.817,multiplicationStroop,2021.2.3,MacIntel,58.82352941,,,,,,,,,,,,,,,,,,,,,,,,,,,,,,,,,16,1.899,1,0,10,10,30,1,4,×,4,4 × 4,neutral,tie,1.5,1.5,16,,,,,,,,
,,,,,,,,,,,,,,,796,2022-01-16_22h26.42.817,multiplicationStroop,2021.2.3,MacIntel,58.82352941,,,,,,,,,,,,,,,,,,,,,,,,,,,,,,,,,42,1.648,1,0,11,11,6,1,6,×,7,6 × 7,neutral,smallerFirst,1.5,1.5,42,,,,,,,,
,,,,,,,,,,,,,,,796,2022-01-16_22h26.42.817,multiplicationStroop,2021.2.3,MacIntel,58.82352941,,,,,,,,,,,,,,,,,,,,,,,,,,,,,,,,,81,2.748,1,0,12,12,35,1,9,×,9,9 × 9,neutral,tie,1.5,1.5,81,,,,,,,,
,,,,,,,,,,,,,,,796,2022-01-16_22h26.42.817,multiplicationStroop,2021.2.3,MacIntel,58.82352941,,,,,,,,,,,,,,,,,,,,,,,,,,,,,,,,,15,1.599,1,0,13,13,5,1,3,×,5,3 × 5,neutral,smallerFirst,1.5,1.5,15,,,,,,,,
,,,,,,,,,,,,,,,796,2022-01-16_22h26.42.817,multiplicationStroop,2021.2.3,MacIntel,58.82352941,,,,,,,,,,,,,,,,,,,,,,,,,,,,,,,,,36,1.731,1,0,14,14,32,1,6,×,6,6 × 6,neutral,tie,1.5,1.5,36,,,,,,,,
,,,,,,,,,,,,,,,796,2022-01-16_22h26.42.817,multiplicationStroop,2021.2.3,MacIntel,58.82352941,,,,,,,,,,,,,,,,,,,,,,,,,,,,,,,,,4,1.398,1,0,15,15,28,1,2,×,2,2 × 2,neutral,tie,1.5,1.5,4,,,,,,,,
,,,,,,,,,,,,,,,796,2022-01-16_22h26.42.817,multiplicationStroop,2021.2.3,MacIntel,58.82352941,,,,,,,,,,,,,,,,,,,,,,,,,,,,,,,,,6,1.499,1,0,16,16,26,1,3,×,2,3 × 2,neutral,largerFirst,1.5,1.5,6,,,,,,,,
,,,,,,,,,,,,,,,796,2022-01-16_22h26.42.817,multiplicationStroop,2021.2.3,MacIntel,58.82352941,,,,,,,,,,,,,,,,,,,,,,,,,,,,,,,,,21,1.666,1,0,17,17,8,1,3,×,7,3 × 7,neutral,smallerFirst,1.5,1.5,21,,,,,,,,
,,,,,,,,,,,,,,,796,2022-01-16_22h26.42.817,multiplicationStroop,2021.2.3,MacIntel,58.82352941,,,,,,,,,,,,,,,,,,,,,,,,,,,,,,,,,14,1.598,1,0,18,18,16,1,7,×,2,7 × 2,neutral,largerFirst,1.5,1.5,14,,,,,,,,
,,,,,,,,,,,,,,,796,2022-01-16_22h26.42.817,multiplicationStroop,2021.2.3,MacIntel,58.82352941,,,,,,,,,,,,,,,,,,,,,,,,,,,,,,,,,28,1.798,1,0,19,19,17,1,7,×,4,7 × 4,neutral,largerFirst,1.5,1.5,28,,,,,,,,
,,,,,,,,,,,,,,,796,2022-01-16_22h26.42.817,multiplicationStroop,2021.2.3,MacIntel,58.82352941,,,,,,,,,,,,,,,,,,,,,,,,,,,,,,,,,12,1.332,1,0,20,20,21,1,4,×,3,4 × 3,neutral,largerFirst,1.5,1.5,12,,,,,,,,
,,,,,,,,,,,,,,,796,2022-01-16_22h26.42.817,multiplicationStroop,2021.2.3,MacIntel,58.82352941,,,,,,,,,,,,,,,,,,,,,,,,,,,,,,,,,12,1.781,1,0,21,21,25,1,6,×,2,6 × 2,neutral,largerFirst,1.5,1.5,12,,,,,,,,
,,,,,,,,,,,,,,,796,2022-01-16_22h26.42.817,multiplicationStroop,2021.2.3,MacIntel,58.82352941,,,,,,,,,,,,,,,,,,,,,,,,,,,,,,,,,5,2.315,0,0,22,22,7,1,6,×,9,6 × 9,neutral,smallerFirst,1.5,1.5,54,,,,,,,,
,,,,,,,,,,,,,,,796,2022-01-16_22h26.42.817,multiplicationStroop,2021.2.3,MacIntel,58.82352941,,,,,,,,,,,,,,,,,,,,,,,,,,,,,,,,,49,2.931,1,0,23,23,33,1,7,×,7,7 × 7,neutral,tie,1.5,1.5,49,,,,,,,,
,,,,,,,,,,,,,,,796,2022-01-16_22h26.42.817,multiplicationStroop,2021.2.3,MacIntel,58.82352941,,,,,,,,,,,,,,,,,,,,,,,,,,,,,,,,,10,1.515,1,0,24,24,4,1,2,×,5,2 × 5,neutral,smallerFirst,1.5,1.5,10,,,,,,,,
,,,,,,,,,,,,,,,796,2022-01-16_22h26.42.817,multiplicationStroop,2021.2.3,MacIntel,58.82352941,,,,,,,,,,,,,,,,,,,,,,,,,,,,,,,,,25,1.714,1,0,25,25,31,1,5,×,5,5 × 5,neutral,tie,1.5,1.5,25,,,,,,,,
,,,,,,,,,,,,,,,796,2022-01-16_22h26.42.817,multiplicationStroop,2021.2.3,MacIntel,58.82352941,,,,,,,,,,,,,,,,,,,,,,,,,,,,,,,,,18,1.765,1,0,26,26,18,1,9,×,2,9 × 2,neutral,largerFirst,1.5,1.5,18,,,,,,,,
,,,,,,,,,,,,,,,796,2022-01-16_22h26.42.817,multiplicationStroop,2021.2.3,MacIntel,58.82352941,,,,,,,,,,,,,,,,,,,,,,,,,,,,,,,,,8,1.781,1,0,27,27,3,1,2,×,4,2 × 4,neutral,smallerFirst,1.5,1.5,8,,,,,,,,
,,,,,,,,,,,,,,,796,2022-01-16_22h26.42.817,multiplicationStroop,2021.2.3,MacIntel,58.82352941,,,,,,,,,,,,,,,,,,,,,,,,,,,,,,,,,32,1.498,1,0,28,28,23,1,8,×,4,8 × 4,neutral,largerFirst,1.5,1.5,32,,,,,,,,
,,,,,,,,,,,,,,,796,2022-01-16_22h26.42.817,multiplicationStroop,2021.2.3,MacIntel,58.82352941,,,,,,,,,,,,,,,,,,,,,,,,,,,,,,,,,72,3.915,1,0,29,29,11,1,8,×,9,8 × 9,neutral,smallerFirst,1.5,1.5,72,,,,,,,,
,,,,,,,,,,,,,,,796,2022-01-16_22h26.42.817,multiplicationStroop,2021.2.3,MacIntel,58.82352941,,,,,,,,,,,,,,,,,,,,,,,,,,,,,,,,,64,1.898,1,0,30,30,34,1,8,×,8,8 × 8,neutral,tie,1.5,1.5,64,,,,,,,,
,,,,,,,,,,,,,,,796,2022-01-16_22h26.42.817,multiplicationStroop,2021.2.3,MacIntel,58.82352941,,,,,,,,,,,,,,,,,,,,,,,,,,,,,,,,,20,1.681,1,0,31,31,20,1,5,×,4,5 × 4,neutral,largerFirst,1.5,1.5,20,,,,,,,,
,,,,,,,,,,,,,,,796,2022-01-16_22h26.42.817,multiplicationStroop,2021.2.3,MacIntel,58.82352941,,,,,,,,,,,,,,,,,,,,,,,,,,,,,,,,,9,1.616,1,0,32,32,29,1,3,×,3,3 × 3,neutral,tie,1.5,1.5,9,,,,,,,,
,,,,,,,,,,,,,,,796,2022-01-16_22h26.42.817,multiplicationStroop,2021.2.3,MacIntel,58.82352941,,,,,,,,,,,,,,,,,,,,,,,,,,,,,,,,,56,2.015,1,0,33,33,9,1,7,×,8,7 × 8,neutral,smallerFirst,1.5,1.5,56,,,,,,,,
,,,,,,,,,,,,,,,796,2022-01-16_22h26.42.817,multiplicationStroop,2021.2.3,MacIntel,58.82352941,,,,,,,,,,,,,,,,,,,,,,,,,,,,,,,,,48,2.281,1,0,34,34,15,1,8,×,6,8 × 6,neutral,largerFirst,1.5,1.5,48,,,,,,,,
,,,,,,,,,,,,,,,796,2022-01-16_22h26.42.817,multiplicationStroop,2021.2.3,MacIntel,58.82352941,,,,,,,,,,,,,,,,,,,,,,,,,,,,,,,,,16,2.032,1,0,35,35,13,1,2,×,8,2 × 8,neutral,smallerFirst,1.5,1.5,16,,,,,,,,
,,,,,,,,,,,,,,,796,2022-01-16_22h26.42.817,multiplicationStroop,2021.2.3,MacIntel,58.82352941,,,,,,,,,,,,,,,,,,,,,,,,,,,,,,,,,,,,,,,,,,,,,,,,,,0,3,3,1,1,stimulusFile/mult_blk2.xlsx,,
,,,,,,,,,,,,,,,796,2022-01-16_22h26.42.817,multiplicationStroop,2021.2.3,MacIntel,58.82352941,,,,,,,,,,,,,,,,,,,,,,,,,,,,,,,space,0.931,24,1.766,1,0,0,0,10,1,3,×,8,3 × 8,congruent,smallerFirst,1,2,24,,,,,,,,
,,,,,,,,,,,,,,,796,2022-01-16_22h26.42.817,multiplicationStroop,2021.2.3,MacIntel,58.82352941,,,,,,,,,,,,,,,,,,,,,,,,,,,,,,,,,6,1.581,1,0,1,1,13,1,2,×,3,2 × 3,congruent,smallerFirst,1,2,6,,,,,,,,
,,,,,,,,,,,,,,,796,2022-01-16_22h26.42.817,multiplicationStroop,2021.2.3,MacIntel,58.82352941,,,,,,,,,,,,,,,,,,,,,,,,,,,,,,,,,36,1.831,1,0,2,2,32,1,6,×,6,6 × 6,neutral,tie,2,1,36,,,,,,,,
,,,,,,,,,,,,,,,796,2022-01-16_22h26.42.817,multiplicationStroop,2021.2.3,MacIntel,58.82352941,,,,,,,,,,,,,,,,,,,,,,,,,,,,,,,,,45,1.666,1,0,3,3,23,1,9,×,5,9 × 5,congruent,largerFirst,2,1,45,,,,,,,,
,,,,,,,,,,,,,,,796,2022-01-16_22h26.42.817,multiplicationStroop,2021.2.3,MacIntel,58.82352941,,,,,,,,,,,,,,,,,,,,,,,,,,,,,,,,,9,1.598,1,0,4,4,29,1,3,×,3,3 × 3,neutral,tie,2,1,9,,,,,,,,
,,,,,,,,,,,,,,,796,2022-01-16_22h26.42.817,multiplicationStroop,2021.2.3,MacIntel,58.82352941,,,,,,,,,,,,,,,,,,,,,,,,,,,,,,,,,28,1.966,1,0,5,5,27,1,7,×,4,7 × 4,congruent,largerFirst,2,1,28,,,,,,,,
,,,,,,,,,,,,,,,796,2022-01-16_22h26.42.817,multiplicationStroop,2021.2.3,MacIntel,58.82352941,,,,,,,,,,,,,,,,,,,,,,,,,,,,,,,,,56,3.548,1,0,6,6,8,1,7,×,8,7 × 8,congruent,smallerFirst,1,2,56,,,,,,,,
,,,,,,,,,,,,,,,796,2022-01-16_22h26.42.817,multiplicationStroop,2021.2.3,MacIntel,58.82352941,,,,,,,,,,,,,,,,,,,,,,,,,,,,,,,,,54,3.197,1,0,7,7,12,1,6,×,9,6 × 9,congruent,smallerFirst,1,2,54,,,,,,,,
,,,,,,,,,,,,,,,796,2022-01-16_22h26.42.817,multiplicationStroop,2021.2.3,MacIntel,58.82352941,,,,,,,,,,,,,,,,,,,,,,,,,,,,,,,,,36,3.983,1,0,8,8,0,1,4,×,9,4 × 9,congruent,smallerFirst,1,2,36,,,,,,,,
,,,,,,,,,,,,,,,796,2022-01-16_22h26.42.817,multiplicationStroop,2021.2.3,MacIntel,58.82352941,,,,,,,,,,,,,,,,,,,,,,,,,,,,,,,,,12,1.348,1,0,9,9,19,1,6,×,2,6 × 2,congruent,largerFirst,2,1,12,,,,,,,,
,,,,,,,,,,,,,,,796,2022-01-16_22h26.42.817,multiplicationStroop,2021.2.3,MacIntel,58.82352941,,,,,,,,,,,,,,,,,,,,,,,,,,,,,,,,,48,1.914,1,0,10,10,18,1,8,×,6,8 × 6,congruent,largerFirst,2,1,48,,,,,,,,
,,,,,,,,,,,,,,,796,2022-01-16_22h26.42.817,multiplicationStroop,2021.2.3,MacIntel,58.82352941,,,,,,,,,,,,,,,,,,,,,,,,,,,,,,,,,21,1.416,1,0,11,11,16,1,7,×,3,7 × 3,congruent,largerFirst,2,1,21,,,,,,,,
,,,,,,,,,,,,,,,796,2022-01-16_22h26.42.817,multiplicationStroop,2021.2.3,MacIntel,58.82352941,,,,,,,,,,,,,,,,,,,,,,,,,,,,,,,,,24,1.547,1,0,12,12,25,1,6,×,4,6 × 4,congruent,largerFirst,2,1,24,,,,,,,,
,,,,,,,,,,,,,,,796,2022-01-16_22h26.42.817,multiplicationStroop,2021.2.3,MacIntel,58.82352941,,,,,,,,,,,,,,,,,,,,,,,,,,,,,,,,,81,1.699,1,0,13,13,35,1,9,×,9,9 × 9,neutral,tie,2,1,81,,,,,,,,
,,,,,,,,,,,,,,,796,2022-01-16_22h26.42.817,multiplicationStroop,2021.2.3,MacIntel,58.82352941,,,,,,,,,,,,,,,,,,,,,,,,,,,,,,,,,14,1.581,1,0,14,14,14,1,7,×,2,7 × 2,congruent,largerFirst,2,1,14,,,,,,,,
,,,,,,,,,,,,,,,796,2022-01-16_22h26.42.817,multiplicationStroop,2021.2.3,MacIntel,58.82352941,,,,,,,,,,,,,,,,,,,,,,,,,,,,,,,,,30,1.731,1,0,15,15,15,1,6,×,5,6 × 5,congruent,largerFirst,2,1,30,,,,,,,,
,,,,,,,,,,,,,,,796,2022-01-16_22h26.42.817,multiplicationStroop,2021.2.3,MacIntel,58.82352941,,,,,,,,,,,,,,,,,,,,,,,,,,,,,,,,,27,2.148,1,0,16,16,26,1,9,×,3,9 × 3,congruent,largerFirst,2,1,27,,,,,,,,
,,,,,,,,,,,,,,,796,2022-01-16_22h26.42.817,multiplicationStroop,2021.2.3,MacIntel,58.82352941,,,,,,,,,,,,,,,,,,,,,,,,,,,,,,,,,32,1.465,1,0,17,17,20,1,8,×,4,8 × 4,congruent,largerFirst,2,1,32,,,,,,,,
,,,,,,,,,,,,,,,796,2022-01-16_22h26.42.817,multiplicationStroop,2021.2.3,MacIntel,58.82352941,,,,,,,,,,,,,,,,,,,,,,,,,,,,,,,,,64,1.899,1,0,18,18,34,1,8,×,8,8 × 8,neutral,tie,2,1,64,,,,,,,,
,,,,,,,,,,,,,,,796,2022-01-16_22h26.42.817,multiplicationStroop,2021.2.3,MacIntel,58.82352941,,,,,,,,,,,,,,,,,,,,,,,,,,,,,,,,,63,2.031,1,0,19,19,21,1,9,×,7,9 × 7,congruent,largerFirst,2,1,63,,,,,,,,
,,,,,,,,,,,,,,,796,2022-01-16_22h26.42.817,multiplicationStroop,2021.2.3,MacIntel,58.82352941,,,,,,,,,,,,,,,,,,,,,,,,,,,,,,,,,16,1.865,1,0,20,20,5,1,2,×,8,2 × 8,congruent,smallerFirst,1,2,16,,,,,,,,
,,,,,,,,,,,,,,,796,2022-01-16_22h26.42.817,multiplicationStroop,2021.2.3,MacIntel,58.82352941,,,,,,,,,,,,,,,,,,,,,,,,,,,,,,,,,16,1.732,1,0,21,21,30,1,4,×,4,4 × 4,neutral,tie,2,1,16,,,,,,,,
,,,,,,,,,,,,,,,796,2022-01-16_22h26.42.817,multiplicationStroop,2021.2.3,MacIntel,58.82352941,,,,,,,,,,,,,,,,,,,,,,,,,,,,,,,,,49,1.964,1,0,22,22,33,1,7,×,7,7 × 7,neutral,tie,2,1,49,,,,,,,,
,,,,,,,,,,,,,,,796,2022-01-16_22h26.42.817,multiplicationStroop,2021.2.3,MacIntel,58.82352941,,,,,,,,,,,,,,,,,,,,,,,,,,,,,,,,,42,1.848,1,0,23,23,3,1,6,×,7,6 × 7,congruent,smallerFirst,1,2,42,,,,,,,,
,,,,,,,,,,,,,,,796,2022-01-16_22h26.42.817,multiplicationStroop,2021.2.3,MacIntel,58.82352941,,,,,,,,,,,,,,,,,,,,,,,,,,,,,,,,,8,1.748,1,0,24,24,9,1,2,×,4,2 × 4,congruent,smallerFirst,1,2,8,,,,,,,,
,,,,,,,,,,,,,,,796,2022-01-16_22h26.42.817,multiplicationStroop,2021.2.3,MacIntel,58.82352941,,,,,,,,,,,,,,,,,,,,,,,,,,,,,,,,,12,1.565,1,0,25,25,2,1,3,×,4,3 × 4,congruent,smallerFirst,1,2,12,,,,,,,,
,,,,,,,,,,,,,,,796,2022-01-16_22h26.42.817,multiplicationStroop,2021.2.3,MacIntel,58.82352941,,,,,,,,,,,,,,,,,,,,,,,,,,,,,,,,,40,1.931,1,0,26,26,6,1,5,×,8,5 × 8,congruent,smallerFirst,1,2,40,,,,,,,,
,,,,,,,,,,,,,,,796,2022-01-16_22h26.42.817,multiplicationStroop,2021.2.3,MacIntel,58.82352941,,,,,,,,,,,,,,,,,,,,,,,,,,,,,,,,,18,1.683,1,0,27,27,22,1,9,×,2,9 × 2,congruent,largerFirst,2,1,18,,,,,,,,
,,,,,,,,,,,,,,,796,2022-01-16_22h26.42.817,multiplicationStroop,2021.2.3,MacIntel,58.82352941,,,,,,,,,,,,,,,,,,,,,,,,,,,,,,,,,20,1.715,1,0,28,28,7,1,4,×,5,4 × 5,congruent,smallerFirst,1,2,20,,,,,,,,
,,,,,,,,,,,,,,,796,2022-01-16_22h26.42.817,multiplicationStroop,2021.2.3,MacIntel,58.82352941,,,,,,,,,,,,,,,,,,,,,,,,,,,,,,,,,10,1.548,1,0,29,29,24,1,5,×,2,5 × 2,congruent,largerFirst,2,1,10,,,,,,,,
,,,,,,,,,,,,,,,796,2022-01-16_22h26.42.817,multiplicationStroop,2021.2.3,MacIntel,58.82352941,,,,,,,,,,,,,,,,,,,,,,,,,,,,,,,,,25,1.681,1,0,30,30,31,1,5,×,5,5 × 5,neutral,tie,2,1,25,,,,,,,,
,,,,,,,,,,,,,,,796,2022-01-16_22h26.42.817,multiplicationStroop,2021.2.3,MacIntel,58.82352941,,,,,,,,,,,,,,,,,,,,,,,,,,,,,,,,,35,2.216,1,0,31,31,1,1,5,×,7,5 × 7,congruent,smallerFirst,1,2,35,,,,,,,,
,,,,,,,,,,,,,,,796,2022-01-16_22h26.42.817,multiplicationStroop,2021.2.3,MacIntel,58.82352941,,,,,,,,,,,,,,,,,,,,,,,,,,,,,,,,,72,1.898,1,0,32,32,17,1,9,×,8,9 × 8,congruent,largerFirst,2,1,72,,,,,,,,
,,,,,,,,,,,,,,,796,2022-01-16_22h26.42.817,multiplicationStroop,2021.2.3,MacIntel,58.82352941,,,,,,,,,,,,,,,,,,,,,,,,,,,,,,,,,4,1.565,1,0,33,33,28,1,2,×,2,2 × 2,neutral,tie,2,1,4,,,,,,,,
,,,,,,,,,,,,,,,796,2022-01-16_22h26.42.817,multiplicationStroop,2021.2.3,MacIntel,58.82352941,,,,,,,,,,,,,,,,,,,,,,,,,,,,,,,,,15,1.666,1,0,34,34,4,1,3,×,5,3 × 5,congruent,smallerFirst,1,2,15,,,,,,,,
,,,,,,,,,,,,,,,796,2022-01-16_22h26.42.817,multiplicationStroop,2021.2.3,MacIntel,58.82352941,,,,,,,,,,,,,,,,,,,,,,,,,,,,,,,,,18,1.698,1,0,35,35,11,1,3,×,6,3 × 6,congruent,smallerFirst,1,2,18,,,,,,,,
,,,,,,,,,,,,,,,796,2022-01-16_22h26.42.817,multiplicationStroop,2021.2.3,MacIntel,58.82352941,,,,,,,,,,,,,,,,,,,,,,,,,,,,,,,,,,,,,,,,,,,,,,,,,,0,4,4,2,1,stimulusFile/mult_blk3_congruent.xlsx,,
,,,,,,,,,,,,,,,796,2022-01-16_22h26.42.817,multiplicationStroop,2021.2.3,MacIntel,58.82352941,,,,,,,,,,,,,,,,,,,,,,,,,,,,,,,space,1.195,6,1.895,1,0,0,0,11,1,2,×,3,2 × 3,incongruent,smallerFirst,2,1,6,,,,,,,,
,,,,,,,,,,,,,,,796,2022-01-16_22h26.42.817,multiplicationStroop,2021.2.3,MacIntel,58.82352941,,,,,,,,,,,,,,,,,,,,,,,,,,,,,,,,,45,1.848,1,0,1,1,22,1,9,×,5,9 × 5,incongruent,largerFirst,1,2,45,,,,,,,,
,,,,,,,,,,,,,,,796,2022-01-16_22h26.42.817,multiplicationStroop,2021.2.3,MacIntel,58.82352941,,,,,,,,,,,,,,,,,,,,,,,,,,,,,,,,,25,1.882,1,0,2,2,31,1,5,×,5,5 × 5,incongruent,tie,1,2,25,,,,,,,,
,,,,,,,,,,,,,,,796,2022-01-16_22h26.42.817,multiplicationStroop,2021.2.3,MacIntel,58.82352941,,,,,,,,,,,,,,,,,,,,,,,,,,,,,,,,,8,1.615,1,0,3,3,24,1,4,×,2,4 × 2,incongruent,largerFirst,1,2,8,,,,,,,,
,,,,,,,,,,,,,,,796,2022-01-16_22h26.42.817,multiplicationStroop,2021.2.3,MacIntel,58.82352941,,,,,,,,,,,,,,,,,,,,,,,,,,,,,,,,,35,1.831,1,0,4,4,12,1,5,×,7,5 × 7,incongruent,smallerFirst,2,1,35,,,,,,,,
,,,,,,,,,,,,,,,796,2022-01-16_22h26.42.817,multiplicationStroop,2021.2.3,MacIntel,58.82352941,,,,,,,,,,,,,,,,,,,,,,,,,,,,,,,,,42,1.899,1,0,5,5,17,1,7,×,6,7 × 6,incongruent,largerFirst,1,2,42,,,,,,,,
,,,,,,,,,,,,,,,796,2022-01-16_22h26.42.817,multiplicationStroop,2021.2.3,MacIntel,58.82352941,,,,,,,,,,,,,,,,,,,,,,,,,,,,,,,,,28,2.414,1,0,6,6,16,1,7,×,4,7 × 4,incongruent,largerFirst,1,2,28,,,,,,,,
,,,,,,,,,,,,,,,796,2022-01-16_22h26.42.817,multiplicationStroop,2021.2.3,MacIntel,58.82352941,,,,,,,,,,,,,,,,,,,,,,,,,,,,,,,,,16,1.782,1,0,7,7,30,1,4,×,4,4 × 4,incongruent,tie,1,2,16,,,,,,,,
,,,,,,,,,,,,,,,796,2022-01-16_22h26.42.817,multiplicationStroop,2021.2.3,MacIntel,58.82352941,,,,,,,,,,,,,,,,,,,,,,,,,,,,,,,,,81,1.598,1,0,8,8,35,1,9,×,9,9 × 9,incongruent,tie,1,2,81,,,,,,,,
,,,,,,,,,,,,,,,796,2022-01-16_22h26.42.817,multiplicationStroop,2021.2.3,MacIntel,58.82352941,,,,,,,,,,,,,,,,,,,,,,,,,,,,,,,,,18,1.699,1,0,9,9,2,1,2,×,9,2 × 9,incongruent,smallerFirst,2,1,18,,,,,,,,
,,,,,,,,,,,,,,,796,2022-01-16_22h26.42.817,multiplicationStroop,2021.2.3,MacIntel,58.82352941,,,,,,,,,,,,,,,,,,,,,,,,,,,,,,,,,24,2.065,1,0,10,10,9,1,3,×,8,3 × 8,incongruent,smallerFirst,2,1,24,,,,,,,,
,,,,,,,,,,,,,,,796,2022-01-16_22h26.42.817,multiplicationStroop,2021.2.3,MacIntel,58.82352941,,,,,,,,,,,,,,,,,,,,,,,,,,,,,,,,,6,2.148,0,0,11,11,3,1,7,×,9,7 × 9,incongruent,smallerFirst,2,1,63,,,,,,,,
,,,,,,,,,,,,,,,796,2022-01-16_22h26.42.817,multiplicationStroop,2021.2.3,MacIntel,58.82352941,,,,,,,,,,,,,,,,,,,,,,,,,,,,,,,,,48,1.898,1,0,12,12,1,1,6,×,8,6 × 8,incongruent,smallerFirst,2,1,48,,,,,,,,
,,,,,,,,,,,,,,,796,2022-01-16_22h26.42.817,multiplicationStroop,2021.2.3,MacIntel,58.82352941,,,,,,,,,,,,,,,,,,,,,,,,,,,,,,,,,18,1.898,1,0,13,13,8,1,3,×,6,3 × 6,incongruent,smallerFirst,2,1,18,,,,,,,,
,,,,,,,,,,,,,,,796,2022-01-16_22h26.42.817,multiplicationStroop,2021.2.3,MacIntel,58.82352941,,,,,,,,,,,,,,,,,,,,,,,,,,,,,,,,,12,1.365,1,0,14,14,5,1,3,×,4,3 × 4,incongruent,smallerFirst,2,1,12,,,,,,,,
,,,,,,,,,,,,,,,796,2022-01-16_22h26.42.817,multiplicationStroop,2021.2.3,MacIntel,58.82352941,,,,,,,,,,,,,,,,,,,,,,,,,,,,,,,,,49,2.898,1,0,15,15,33,1,7,×,7,7 × 7,incongruent,tie,1,2,49,,,,,,,,
,,,,,,,,,,,,,,,796,2022-01-16_22h26.42.817,multiplicationStroop,2021.2.3,MacIntel,58.82352941,,,,,,,,,,,,,,,,,,,,,,,,,,,,,,,,,9,1.697,1,0,16,16,29,1,3,×,3,3 × 3,incongruent,tie,1,2,9,,,,,,,,
,,,,,,,,,,,,,,,796,2022-01-16_22h26.42.817,multiplicationStroop,2021.2.3,MacIntel,58.82352941,,,,,,,,,,,,,,,,,,,,,,,,,,,,,,,,,72,2.049,1,0,17,17,0,1,8,×,9,8 × 9,incongruent,smallerFirst,2,1,72,,,,,,,,
,,,,,,,,,,,,,,,796,2022-01-16_22h26.42.817,multiplicationStroop,2021.2.3,MacIntel,58.82352941,,,,,,,,,,,,,,,,,,,,,,,,,,,,,,,,,14,1.599,1,0,18,18,4,1,2,×,7,2 × 7,incongruent,smallerFirst,2,1,14,,,,,,,,
,,,,,,,,,,,,,,,796,2022-01-16_22h26.42.817,multiplicationStroop,2021.2.3,MacIntel,58.82352941,,,,,,,,,,,,,,,,,,,,,,,,,,,,,,,,,40,1.699,1,0,19,19,13,1,5,×,8,5 × 8,incongruent,smallerFirst,2,1,40,,,,,,,,
,,,,,,,,,,,,,,,796,2022-01-16_22h26.42.817,multiplicationStroop,2021.2.3,MacIntel,58.82352941,,,,,,,,,,,,,,,,,,,,,,,,,,,,,,,,,20,1.766,1,0,20,20,27,1,5,×,4,5 × 4,incongruent,largerFirst,1,2,20,,,,,,,,
,,,,,,,,,,,,,,,796,2022-01-16_22h26.42.817,multiplicationStroop,2021.2.3,MacIntel,58.82352941,,,,,,,,,,,,,,,,,,,,,,,,,,,,,,,,,27,1.848,1,0,21,21,18,1,9,×,3,9 × 3,incongruent,largerFirst,1,2,27,,,,,,,,
,,,,,,,,,,,,,,,796,2022-01-16_22h26.42.817,multiplicationStroop,2021.2.3,MacIntel,58.82352941,,,,,,,,,,,,,,,,,,,,,,,,,,,,,,,,,56,2.948,1,0,22,22,14,1,8,×,7,8 × 7,incongruent,largerFirst,1,2,56,,,,,,,,
,,,,,,,,,,,,,,,796,2022-01-16_22h26.42.817,multiplicationStroop,2021.2.3,MacIntel,58.82352941,,,,,,,,,,,,,,,,,,,,,,,,,,,,,,,,,30,1.731,1,0,23,23,25,1,6,×,5,6 × 5,incongruent,largerFirst,1,2,30,,,,,,,,
,,,,,,,,,,,,,,,796,2022-01-16_22h26.42.817,multiplicationStroop,2021.2.3,MacIntel,58.82352941,,,,,,,,,,,,,,,,,,,,,,,,,,,,,,,,,32,1.799,1,0,24,24,7,1,4,×,8,4 × 8,incongruent,smallerFirst,2,1,32,,,,,,,,
,,,,,,,,,,,,,,,796,2022-01-16_22h26.42.817,multiplicationStroop,2021.2.3,MacIntel,58.82352941,,,,,,,,,,,,,,,,,,,,,,,,,,,,,,,,,15,2.298,1,0,25,25,10,1,3,×,5,3 × 5,incongruent,smallerFirst,2,1,15,,,,,,,,
,,,,,,,,,,,,,,,796,2022-01-16_22h26.42.817,multiplicationStroop,2021.2.3,MacIntel,58.82352941,,,,,,,,,,,,,,,,,,,,,,,,,,,,,,,,,54,2.514,1,0,26,26,6,1,6,×,9,6 × 9,incongruent,smallerFirst,2,1,54,,,,,,,,
,,,,,,,,,,,,,,,796,2022-01-16_22h26.42.817,multiplicationStroop,2021.2.3,MacIntel,58.82352941,,,,,,,,,,,,,,,,,,,,,,,,,,,,,,,,,12,1.35,1,0,27,27,19,1,6,×,2,6 × 2,incongruent,largerFirst,1,2,12,,,,,,,,
,,,,,,,,,,,,,,,796,2022-01-16_22h26.42.817,multiplicationStroop,2021.2.3,MacIntel,58.82352941,,,,,,,,,,,,,,,,,,,,,,,,,,,,,,,,,21,1.448,1,0,28,28,26,1,7,×,3,7 × 3,incongruent,largerFirst,1,2,21,,,,,,,,
,,,,,,,,,,,,,,,796,2022-01-16_22h26.42.817,multiplicationStroop,2021.2.3,MacIntel,58.82352941,,,,,,,,,,,,,,,,,,,,,,,,,,,,,,,,,36,1.898,1,0,29,29,15,1,9,×,4,9 × 4,incongruent,largerFirst,1,2,36,,,,,,,,
,,,,,,,,,,,,,,,796,2022-01-16_22h26.42.817,multiplicationStroop,2021.2.3,MacIntel,58.82352941,,,,,,,,,,,,,,,,,,,,,,,,,,,,,,,,,16,1.664,1,0,30,30,23,1,8,×,2,8 × 2,incongruent,largerFirst,1,2,16,,,,,,,,
,,,,,,,,,,,,,,,796,2022-01-16_22h26.42.817,multiplicationStroop,2021.2.3,MacIntel,58.82352941,,,,,,,,,,,,,,,,,,,,,,,,,,,,,,,,,4,1.515,1,0,31,31,28,1,2,×,2,2 × 2,incongruent,tie,1,2,4,,,,,,,,
,,,,,,,,,,,,,,,796,2022-01-16_22h26.42.817,multiplicationStroop,2021.2.3,MacIntel,58.82352941,,,,,,,,,,,,,,,,,,,,,,,,,,,,,,,,,36,2.015,1,0,32,32,32,1,6,×,6,6 × 6,incongruent,tie,1,2,36,,,,,,,,
,,,,,,,,,,,,,,,796,2022-01-16_22h26.42.817,multiplicationStroop,2021.2.3,MacIntel,58.82352941,,,,,,,,,,,,,,,,,,,,,,,,,,,,,,,,,24,1.765,1,0,33,33,20,1,6,×,4,6 × 4,incongruent,largerFirst,1,2,24,,,,,,,,
,,,,,,,,,,,,,,,796,2022-01-16_22h26.42.817,multiplicationStroop,2021.2.3,MacIntel,58.82352941,,,,,,,,,,,,,,,,,,,,,,,,,,,,,,,,,10,1.665,1,0,34,34,21,1,5,×,2,5 × 2,incongruent,largerFirst,1,2,10,,,,,,,,
,,,,,,,,,,,,,,,796,2022-01-16_22h26.42.817,multiplicationStroop,2021.2.3,MacIntel,58.82352941,,,,,,,,,,,,,,,,,,,,,,,,,,,,,,,,,64,1.931,1,0,35,35,34,1,8,×,8,8 × 8,incongruent,tie,1,2,64,,,,,,,,
,,,,,,,,,,,,,,,796,2022-01-16_22h26.42.817,multiplicationStroop,2021.2.3,MacIntel,58.82352941,,,,,,,,,,,,,,,,,,,,,,,,,,,,,,,,,,,,,,,,,,,,,,,,,,0,5,5,5,1,stimulusFile/mult_blk6_INcongruent.xlsx,,
,,,,,,,,,,,,,,,796,2022-01-16_22h26.42.817,multiplicationStroop,2021.2.3,MacIntel,58.82352941,,,,,,,,,,,,,,,,,,,,,,,,,,,,,,,,,,,,,,,,,,,,,,,,,,,,,,,,space,4.302