welcomeKey_resp.keys,welcomeKey_resp.rt,X Scale,Y Scale,rt_resp_4.keys,rt_resp_4.corr,rt_resp_4.rt,speedtest_2.thisRepN,speedtest_2.thisTrialN,speedtest_2.thisN,speedtest_2.thisIndex,speedtest_2.ran,numberSc,posX,positionLayout,participant,date,expName,psychopyVersion,OS,frameRate,ct_instrresp.keys,ct_instrresp.rt,key_resp_2.keys,key_resp_2.rt,ct_keyResp.keys,ct_keyResp.corr,ct_keyResp.rt,trials.thisRepN,trials.thisTrialN,trials.thisN,trials.thisIndex,trials.ran,leftNo,rightNo,displayProblem,numDistance,leftNo_size,rightNo_size,Dims,keyAnswer,TS_Loop.thisRepN,TS_Loop.thisTrialN,TS_Loop.thisN,TS_Loop.thisIndex,TS_Loop.ran,Condition,ActionInst,instrImage,mltptaskInst_resp.keys,mltptaskInst_resp.rt,continue_resp_2.keys,continue_resp_2.rt,multp_Answer,multi_RT,multiplyCorr,LoopingMultiply.thisRepN,LoopingMultiply.thisTrialN,LoopingMultiply.thisN,LoopingMultiply.thisIndex,LoopingMultiply.ran,factor1,multiplySign,factor2,multliplyProblem,physicalSize,orderOperand,sizeF1,sizeF2,mult_answer,trials_stroop.thisRepN,trials_stroop.thisTrialN,trials_stroop.thisN,trials_stroop.thisIndex,trials_stroop.ran,multiplicationFile,esckey_resp_2.keys,esckey_resp_2.rt
y,14.0877,45.4,45.5,right,1,0.7645,0,0,0,15,1,9,200,right,797,2022-01-17_21h36.34.244,multiplicationStroop,2021.2.3,Win32,59.53089654,,,,,,,,,,,,,,,,,,,,,,,,,,,,,,,,,,,,,,,,,,,,,,,,,,,,,,,,,
,,,,left,1,0.3857,0,1,1,1,1,2,-200,left,797,2022-01-17_21h36.34.244,multiplicationStroop,2021.2.3,Win32,59.53089654,,,,,,,,,,,,,,,,,,,,,,,,,,,,,,,,,,,,,,,,,,,,,,,,,,,,,,,,,
,,,,right,1,0.3434,0,2,2,12,1,6,200,right,797,2022-01-17_21h36.34.244,multiplicationStroop,2021.2.3,Win32,59.53089654,,,,,,,,,,,,,,,,,,,,,,,,,,,,,,,,,,,,,,,,,,,,,,,,,,,,,,,,,
,,,,right,1,0.5176,0,3,3,9,1,2,200,right,797,2022-01-17_21h36.34.244,multiplicationStroop,2021.2.3,Win32,59.53089654,,,,,,,,,,,,,,,,,,,,,,,,,,,,,,,,,,,,,,,,,,,,,,,,,,,,,,,,,
,,,,left,1,0.3442,0,4,4,7,1,9,-200,left,797,2022-01-17_21h36.34.244,multiplicationStroop,2021.2.3,Win32,59.53089654,,,,,,,,,,,,,,,,,,,,,,,,,,,,,,,,,,,,,,,,,,,,,,,,,,,,,,,,,
,,,,left,1,0.6722,0,5,5,5,1,7,-200,left,797,2022-01-17_21h36.34.244,multiplicationStroop,2021.2.3,Win32,59.53089654,,,,,,,,,,,,,,,,,,,,,,,,,,,,,,,,,,,,,,,,,,,,,,,,,,,,,,,,,
,,,,right,0,0.3851,0,6,6,6,1,8,-200,left,797,2022-01-17_21h36.34.244,multiplicationStroop,2021.2.3,Win32,59.53089654,,,,,,,,,,,,,,,,,,,,,,,,,,,,,,,,,,,,,,,,,,,,,,,,,,,,,,,,,
,,,,left,1,0.6505,0,7,7,3,1,4,-200,left,797,2022-01-17_21h36.34.244,multiplicationStroop,2021.2.3,Win32,59.53089654,,,,,,,,,,,,,,,,,,,,,,,,,,,,,,,,,,,,,,,,,,,,,,,,,,,,,,,,,
,,,,right,1,0.3724,0,8,8,11,1,4,200,right,797,2022-01-17_21h36.34.244,multiplicationStroop,2021.2.3,Win32,59.53089654,,,,,,,,,,,,,,,,,,,,,,,,,,,,,,,,,,,,,,,,,,,,,,,,,,,,,,,,,
,,,,right,1,0.5675,0,9,9,10,1,3,200,right,797,2022-01-17_21h36.34.244,multiplicationStroop,2021.2.3,Win32,59.53089654,,,,,,,,,,,,,,,,,,,,,,,,,,,,,,,,,,,,,,,,,,,,,,,,,,,,,,,,,
,,,,left,1,0.3535,0,10,10,4,1,6,-200,left,797,2022-01-17_21h36.34.244,multiplicationStroop,2021.2.3,Win32,59.53089654,,,,,,,,,,,,,,,,,,,,,,,,,,,,,,,,,,,,,,,,,,,,,,,,,,,,,,,,,
,,,,right,1,0.3612,0,11,11,8,1,1,200,right,797,2022-01-17_21h36.34.244,multiplicationStroop,2021.2.3,Win32,59.53089654,,,,,,,,,,,,,,,,,,,,,,,,,,,,,,,,,,,,,,,,,,,,,,,,,,,,,,,,,
,,,,left,1,0.3275,0,12,12,0,1,1,-200,left,797,2022-01-17_21h36.34.244,multiplicationStroop,2021.2.3,Win32,59.53089654,,,,,,,,,,,,,,,,,,,,,,,,,,,,,,,,,,,,,,,,,,,,,,,,,,,,,,,,,
,,,,left,1,0.5177,0,13,13,2,1,3,-200,left,797,2022-01-17_21h36.34.244,multiplicationStroop,2021.2.3,Win32,59.53089654,,,,,,,,,,,,,,,,,,,,,,,,,,,,,,,,,,,,,,,,,,,,,,,,,,,,,,,,,
,,,,right,1,0.3363,0,14,14,13,1,7,200,right,797,2022-01-17_21h36.34.244,multiplicationStroop,2021.2.3,Win32,59.53089654,,,,,,,,,,,,,,,,,,,,,,,,,,,,,,,,,,,,,,,,,,,,,,,,,,,,,,,,,
,,,,right,1,0.4674,0,15,15,14,1,8,200,right,797,2022-01-17_21h36.34.244,multiplicationStroop,2021.2.3,Win32,59.53089654,,,,,,,,,,,,,,,,,,,,,,,,,,,,,,,,,,,,,,,,,,,,,,,,,,,,,,,,,
,,,,left,1,0.3351,1,0,16,3,1,4,-200,left,797,2022-01-17_21h36.34.244,multiplicationStroop,2021.2.3,Win32,59.53089654,,,,,,,,,,,,,,,,,,,,,,,,,,,,,,,,,,,,,,,,,,,,,,,,,,,,,,,,,
,,,,left,1,0.5074,1,1,17,7,1,9,-200,left,797,2022-01-17_21h36.34.244,multiplicationStroop,2021.2.3,Win32,59.53089654,,,,,,,,,,,,,,,,,,,,,,,,,,,,,,,,,,,,,,,,,,,,,,,,,,,,,,,,,
,,,,left,1,0.8682,1,2,18,0,1,1,-200,left,797,2022-01-17_21h36.34.244,multiplicationStroop,2021.2.3,Win32,59.53089654,,,,,,,,,,,,,,,,,,,,,,,,,,,,,,,,,,,,,,,,,,,,,,,,,,,,,,,,,
,,,,right,1,0.359,1,3,19,14,1,8,200,right,797,2022-01-17_21h36.34.244,multiplicationStroop,2021.2.3,Win32,59.53089654,,,,,,,,,,,,,,,,,,,,,,,,,,,,,,,,,,,,,,,,,,,,,,,,,,,,,,,,,
,,,,left,1,0.3849,1,4,20,4,1,6,-200,left,797,2022-01-17_21h36.34.244,multiplicationStroop,2021.2.3,Win32,59.53089654,,,,,,,,,,,,,,,,,,,,,,,,,,,,,,,,,,,,,,,,,,,,,,,,,,,,,,,,,
,,,,right,1,0.3027,1,5,21,9,1,2,200,right,797,2022-01-17_21h36.34.244,multiplicationStroop,2021.2.3,Win32,59.53089654,,,,,,,,,,,,,,,,,,,,,,,,,,,,,,,,,,,,,,,,,,,,,,,,,,,,,,,,,
,,,,left,1,0.293,1,6,22,5,1,7,-200,left,797,2022-01-17_21h36.34.244,multiplicationStroop,2021.2.3,Win32,59.53089654,,,,,,,,,,,,,,,,,,,,,,,,,,,,,,,,,,,,,,,,,,,,,,,,,,,,,,,,,
,,,,left,1,0.4387,1,7,23,1,1,2,-200,left,797,2022-01-17_21h36.34.244,multiplicationStroop,2021.2.3,Win32,59.53089654,,,,,,,,,,,,,,,,,,,,,,,,,,,,,,,,,,,,,,,,,,,,,,,,,,,,,,,,,
,,,,right,1,0.338,1,8,24,13,1,7,200,right,797,2022-01-17_21h36.34.244,multiplicationStroop,2021.2.3,Win32,59.53089654,,,,,,,,,,,,,,,,,,,,,,,,,,,,,,,,,,,,,,,,,,,,,,,,,,,,,,,,,
,,,,right,1,0.4181,1,9,25,10,1,3,200,right,797,2022-01-17_21h36.34.244,multiplicationStroop,2021.2.3,Win32,59.53089654,,,,,,,,,,,,,,,,,,,,,,,,,,,,,,,,,,,,,,,,,,,,,,,,,,,,,,,,,
,,,,right,1,0.4176,1,10,26,15,1,9,200,right,797,2022-01-17_21h36.34.244,multiplicationStroop,2021.2.3,Win32,59.53089654,,,,,,,,,,,,,,,,,,,,,,,,,,,,,,,,,,,,,,,,,,,,,,,,,,,,,,,,,
,,,,right,1,0.371,1,11,27,12,1,6,200,right,797,2022-01-17_21h36.34.244,multiplicationStroop,2021.2.3,Win32,59.53089654,,,,,,,,,,,,,,,,,,,,,,,,,,,,,,,,,,,,,,,,,,,,,,,,,,,,,,,,,
,,,,right,1,0.318,1,12,28,8,1,1,200,right,797,2022-01-17_21h36.34.244,multiplicationStroop,2021.2.3,Win32,59.53089654,,,,,,,,,,,,,,,,,,,,,,,,,,,,,,,,,,,,,,,,,,,,,,,,,,,,,,,,,
,,,,left,1,0.3698,1,13,29,2,1,3,-200,left,797,2022-01-17_21h36.34.244,multiplicationStroop,2021.2.3,Win32,59.53089654,,,,,,,,,,,,,,,,,,,,,,,,,,,,,,,,,,,,,,,,,,,,,,,,,,,,,,,,,
,,,,left,1,0.3796,1,14,30,6,1,8,-200,left,797,2022-01-17_21h36.34.244,multiplicationStroop,2021.2.3,Win32,59.53089654,,,,,,,,,,,,,,,,,,,,,,,,,,,,,,,,,,,,,,,,,,,,,,,,,,,,,,,,,
,,,,right,1,0.6524,1,15,31,11,1,4,200,right,797,2022-01-17_21h36.34.244,multiplicationStroop,2021.2.3,Win32,59.53089654,,,,,,,,,,,,,,,,,,,,,,,,,,,,,,,,,,,,,,,,,,,,,,,,,,,,,,,,,
,,,,left,1,0.3343,2,0,32,7,1,9,-200,left,797,2022-01-17_21h36.34.244,multiplicationStroop,2021.2.3,Win32,59.53089654,,,,,,,,,,,,,,,,,,,,,,,,,,,,,,,,,,,,,,,,,,,,,,,,,,,,,,,,,
,,,,right,1,0.3019,2,1,33,12,1,6,200,right,797,2022-01-17_21h36.34.244,multiplicationStroop,2021.2.3,Win32,59.53089654,,,,,,,,,,,,,,,,,,,,,,,,,,,,,,,,,,,,,,,,,,,,,,,,,,,,,,,,,
,,,,right,1,0.452,2,2,34,14,1,8,200,right,797,2022-01-17_21h36.34.244,multiplicationStroop,2021.2.3,Win32,59.53089654,,,,,,,,,,,,,,,,,,,,,,,,,,,,,,,,,,,,,,,,,,,,,,,,,,,,,,,,,
,,,,right,1,0.3026,2,3,35,8,1,1,200,right,797,2022-01-17_21h36.34.244,multiplicationStroop,2021.2.3,Win32,59.53089654,,,,,,,,,,,,,,,,,,,,,,,,,,,,,,,,,,,,,,,,,,,,,,,,,,,,,,,,,
,,,,left,1,0.3664,2,4,36,1,1,2,-200,left,797,2022-01-17_21h36.34.244,multiplicationStroop,2021.2.3,Win32,59.53089654,,,,,,,,,,,,,,,,,,,,,,,,,,,,,,,,,,,,,,,,,,,,,,,,,,,,,,,,,
,,,,right,1,0.2955,2,5,37,11,1,4,200,right,797,2022-01-17_21h36.34.244,multiplicationStroop,2021.2.3,Win32,59.53089654,,,,,,,,,,,,,,,,,,,,,,,,,,,,,,,,,,,,,,,,,,,,,,,,,,,,,,,,,
,,,,left,1,0.3441,2,6,38,4,1,6,-200,left,797,2022-01-17_21h36.34.244,multiplicationStroop,2021.2.3,Win32,59.53089654,,,,,,,,,,,,,,,,,,,,,,,,,,,,,,,,,,,,,,,,,,,,,,,,,,,,,,,,,
,,,,left,1,0.4511,2,7,39,6,1,8,-200,left,797,2022-01-17_21h36.34.244,multiplicationStroop,2021.2.3,Win32,59.53089654,,,,,,,,,,,,,,,,,,,,,,,,,,,,,,,,,,,,,,,,,,,,,,,,,,,,,,,,,
,,,,right,1,0.3082,2,8,40,10,1,3,200,right,797,2022-01-17_21h36.34.244,multiplicationStroop,2021.2.3,Win32,59.53089654,,,,,,,,,,,,,,,,,,,,,,,,,,,,,,,,,,,,,,,,,,,,,,,,,,,,,,,,,
,,,,left,1,0.2766,2,9,41,3,1,4,-200,left,797,2022-01-17_21h36.34.244,multiplicationStroop,2021.2.3,Win32,59.53089654,,,,,,,,,,,,,,,,,,,,,,,,,,,,,,,,,,,,,,,,,,,,,,,,,,,,,,,,,
,,,,right,1,0.2868,2,10,42,13,1,7,200,right,797,2022-01-17_21h36.34.244,multiplicationStroop,2021.2.3,Win32,59.53089654,,,,,,,,,,,,,,,,,,,,,,,,,,,,,,,,,,,,,,,,,,,,,,,,,,,,,,,,,
,,,,left,1,0.3041,2,11,43,5,1,7,-200,left,797,2022-01-17_21h36.34.244,multiplicationStroop,2021.2.3,Win32,59.53089654,,,,,,,,,,,,,,,,,,,,,,,,,,,,,,,,,,,,,,,,,,,,,,,,,,,,,,,,,
,,,,right,1,0.3005,2,12,44,9,1,2,200,right,797,2022-01-17_21h36.34.244,multiplicationStroop,2021.2.3,Win32,59.53089654,,,,,,,,,,,,,,,,,,,,,,,,,,,,,,,,,,,,,,,,,,,,,,,,,,,,,,,,,
,,,,left,1,0.2825,2,13,45,0,1,1,-200,left,797,2022-01-17_21h36.34.244,multiplicationStroop,2021.2.3,Win32,59.53089654,,,,,,,,,,,,,,,,,,,,,,,,,,,,,,,,,,,,,,,,,,,,,,,,,,,,,,,,,
,,,,left,1,0.4462,2,14,46,2,1,3,-200,left,797,2022-01-17_21h36.34.244,multiplicationStroop,2021.2.3,Win32,59.53089654,,,,,,,,,,,,,,,,,,,,,,,,,,,,,,,,,,,,,,,,,,,,,,,,,,,,,,,,,
,,,,right,1,0.4247,2,15,47,15,1,9,200,right,797,2022-01-17_21h36.34.244,multiplicationStroop,2021.2.3,Win32,59.53089654,,,,,,,,,,,,,,,,,,,,,,,,,,,,,,,,,,,,,,,,,,,,,,,,,,,,,,,,,
,,,,left,1,0.2457,3,0,48,0,1,1,-200,left,797,2022-01-17_21h36.34.244,multiplicationStroop,2021.2.3,Win32,59.53089654,,,,,,,,,,,,,,,,,,,,,,,,,,,,,,,,,,,,,,,,,,,,,,,,,,,,,,,,,
,,,,left,1,0.3775,3,1,49,3,1,4,-200,left,797,2022-01-17_21h36.34.244,multiplicationStroop,2021.2.3,Win32,59.53089654,,,,,,,,,,,,,,,,,,,,,,,,,,,,,,,,,,,,,,,,,,,,,,,,,,,,,,,,,
,,,,left,1,0.4788,3,2,50,2,1,3,-200,left,797,2022-01-17_21h36.34.244,multiplicationStroop,2021.2.3,Win32,59.53089654,,,,,,,,,,,,,,,,,,,,,,,,,,,,,,,,,,,,,,,,,,,,,,,,,,,,,,,,,
,,,,left,1,0.3185,3,3,51,5,1,7,-200,left,797,2022-01-17_21h36.34.244,multiplicationStroop,2021.2.3,Win32,59.53089654,,,,,,,,,,,,,,,,,,,,,,,,,,,,,,,,,,,,,,,,,,,,,,,,,,,,,,,,,
,,,,right,1,0.3375,3,4,52,12,1,6,200,right,797,2022-01-17_21h36.34.244,multiplicationStroop,2021.2.3,Win32,59.53089654,,,,,,,,,,,,,,,,,,,,,,,,,,,,,,,,,,,,,,,,,,,,,,,,,,,,,,,,,
,,,,right,1,0.5511,3,5,53,9,1,2,200,right,797,2022-01-17_21h36.34.244,multiplicationStroop,2021.2.3,Win32,59.53089654,,,,,,,,,,,,,,,,,,,,,,,,,,,,,,,,,,,,,,,,,,,,,,,,,,,,,,,,,
,,,,right,1,0.3774,3,6,54,15,1,9,200,right,797,2022-01-17_21h36.34.244,multiplicationStroop,2021.2.3,Win32,59.53089654,,,,,,,,,,,,,,,,,,,,,,,,,,,,,,,,,,,,,,,,,,,,,,,,,,,,,,,,,
,,,,left,1,0.3592,3,7,55,1,1,2,-200,left,797,2022-01-17_21h36.34.244,multiplicationStroop,2021.2.3,Win32,59.53089654,,,,,,,,,,,,,,,,,,,,,,,,,,,,,,,,,,,,,,,,,,,,,,,,,,,,,,,,,
,,,,left,1,0.3184,3,8,56,6,1,8,-200,left,797,2022-01-17_21h36.34.244,multiplicationStroop,2021.2.3,Win32,59.53089654,,,,,,,,,,,,,,,,,,,,,,,,,,,,,,,,,,,,,,,,,,,,,,,,,,,,,,,,,
,,,,left,1,0.3266,3,9,57,4,1,6,-200,left,797,2022-01-17_21h36.34.244,multiplicationStroop,2021.2.3,Win32,59.53089654,,,,,,,,,,,,,,,,,,,,,,,,,,,,,,,,,,,,,,,,,,,,,,,,,,,,,,,,,
,,,,right,1,0.3516,3,10,58,10,1,3,200,right,797,2022-01-17_21h36.34.244,multiplicationStroop,2021.2.3,Win32,59.53089654,,,,,,,,,,,,,,,,,,,,,,,,,,,,,,,,,,,,,,,,,,,,,,,,,,,,,,,,,
,,,,right,1,0.4511,3,11,59,11,1,4,200,right,797,2022-01-17_21h36.34.244,multiplicationStroop,2021.2.3,Win32,59.53089654,,,,,,,,,,,,,,,,,,,,,,,,,,,,,,,,,,,,,,,,,,,,,,,,,,,,,,,,,
,,,,right,1,0.2656,3,12,60,13,1,7,200,right,797,2022-01-17_21h36.34.244,multiplicationStroop,2021.2.3,Win32,59.53089654,,,,,,,,,,,,,,,,,,,,,,,,,,,,,,,,,,,,,,,,,,,,,,,,,,,,,,,,,
,,,,right,1,0.3342,3,13,61,8,1,1,200,right,797,2022-01-17_21h36.34.244,multiplicationStroop,2021.2.3,Win32,59.53089654,,,,,,,,,,,,,,,,,,,,,,,,,,,,,,,,,,,,,,,,,,,,,,,,,,,,,,,,,
,,,,right,1,0.301,3,14,62,14,1,8,200,right,797,2022-01-17_21h36.34.244,multiplicationStroop,2021.2.3,Win32,59.53089654,,,,,,,,,,,,,,,,,,,,,,,,,,,,,,,,,,,,,,,,,,,,,,,,,,,,,,,,,
,,,,left,1,1.5421,3,15,63,7,1,9,-200,left,797,2022-01-17_21h36.34.244,multiplicationStroop,2021.2.3,Win32,59.53089654,,,,,,,,,,,,,,,,,,,,,,,,,,stimulusFile/physical.xlsx,,,,,,,,,,,,,,,,,,,,,,,,,,,,,,,
,,,,,,,,,,,,,,,797,2022-01-17_21h36.34.244,multiplicationStroop,2021.2.3,Win32,59.53089654,space,31.38,space,13.7386,right,1,1.0047,0,0,0,60,1,3,3,3 | 3,0,1.4111,1.9756,neutral,right,,,,,,stimulusFile/physical.xlsx,,,,,,,,,,,,,,,,,,,,,,,,,,,,,,,
,,,,,,,,,,,,,,,797,2022-01-17_21h36.34.244,multiplicationStroop,2021.2.3,Win32,59.53089654,,,,,left,1,0.7559,0,1,1,20,1,6,1,6 | 1,5,1.9756,1.4111,congruent,left,,,,,,stimulusFile/physical.xlsx,,,,,,,,,,,,,,,,,,,,,,,,,,,,,,,
,,,,,,,,,,,,,,,797,2022-01-17_21h36.34.244,multiplicationStroop,2021.2.3,Win32,59.53089654,,,,,left,1,0.5864,0,2,2,70,1,8,8,8 | 8,0,1.9756,1.4111,neutral,left,,,,,,stimulusFile/physical.xlsx,,,,,,,,,,,,,,,,,,,,,,,,,,,,,,,
,,,,,,,,,,,,,,,797,2022-01-17_21h36.34.244,multiplicationStroop,2021.2.3,Win32,59.53089654,,,,,left,1,0.5061,0,3,3,13,1,4,2,4 | 2,2,1.9756,1.4111,congruent,left,,,,,,stimulusFile/physical.xlsx,,,,,,,,,,,,,,,,,,,,,,,,,,,,,,,
,,,,,,,,,,,,,,,797,2022-01-17_21h36.34.244,multiplicationStroop,2021.2.3,Win32,59.53089654,,,,,right,1,0.4519,0,4,4,57,1,2,2,2 | 2,0,1.4111,1.9756,neutral,right,,,,,,stimulusFile/physical.xlsx,,,,,,,,,,,,,,,,,,,,,,,,,,,,,,,
,,,,,,,,,,,,,,,797,2022-01-17_21h36.34.244,multiplicationStroop,2021.2.3,Win32,59.53089654,,,,,left,1,0.4625,0,5,5,23,1,9,4,9 | 4,5,1.9756,1.4111,congruent,left,,,,,,stimulusFile/physical.xlsx,,,,,,,,,,,,,,,,,,,,,,,,,,,,,,,
,,,,,,,,,,,,,,,797,2022-01-17_21h36.34.244,multiplicationStroop,2021.2.3,Win32,59.53089654,,,,,right,1,0.4728,0,6,6,62,1,8,8,8 | 8,0,1.4111,1.9756,neutral,right,,,,,,stimulusFile/physical.xlsx,,,,,,,,,,,,,,,,,,,,,,,,,,,,,,,
,,,,,,,,,,,,,,,797,2022-01-17_21h36.34.244,multiplicationStroop,2021.2.3,Win32,59.53089654,,,,,left,1,0.6835,0,7,7,51,1,8,8,8 | 8,0,1.9756,1.4111,neutral,left,,,,,,stimulusFile/physical.xlsx,,,,,,,,,,,,,,,,,,,,,,,,,,,,,,,
,,,,,,,,,,,,,,,797,2022-01-17_21h36.34.244,multiplicationStroop,2021.2.3,Win32,59.53089654,,,,,right,1,0.4935,0,8,8,38,1,8,6,8 | 6,2,1.4111,1.9756,incongruent,right,,,,,,stimulusFile/physical.xlsx,,,,,,,,,,,,,,,,,,,,,,,,,,,,,,,
,,,,,,,,,,,,,,,797,2022-01-17_21h36.34.244,multiplicationStroop,2021.2.3,Win32,59.53089654,,,,,left,1,0.4968,0,9,9,14,1,8,6,8 | 6,2,1.9756,1.4111,congruent,left,,,,,,stimulusFile/physical.xlsx,,,,,,,,,,,,,,,,,,,,,,,,,,,,,,,
,,,,,,,,,,,,,,,797,2022-01-17_21h36.34.244,multiplicationStroop,2021.2.3,Win32,59.53089654,,,,,left,1,0.5207,0,10,10,53,1,4,4,4 | 4,0,1.9756,1.4111,neutral,left,,,,,,stimulusFile/physical.xlsx,,,,,,,,,,,,,,,,,,,,,,,,,,,,,,,
,,,,,,,,,,,,,,,797,2022-01-17_21h36.34.244,multiplicationStroop,2021.2.3,Win32,59.53089654,,,,,left,1,0.6361,0,11,11,48,1,1,1,1 | 1,0,1.9756,1.4111,neutral,left,,,,,,stimulusFile/physical.xlsx,,,,,,,,,,,,,,,,,,,,,,,,,,,,,,,
,,,,,,,,,,,,,,,797,2022-01-17_21h36.34.244,multiplicationStroop,2021.2.3,Win32,59.53089654,,,,,right,1,0.4277,0,12,12,2,1,6,7,6 | 7,1,1.4111,1.9756,congruent,right,,,,,,stimulusFile/physical.xlsx,,,,,,,,,,,,,,,,,,,,,,,,,,,,,,,
,,,,,,,,,,,,,,,797,2022-01-17_21h36.34.244,multiplicationStroop,2021.2.3,Win32,59.53089654,,,,,right,1,0.4255,0,13,13,17,1,2,7,2 | 7,5,1.4111,1.9756,congruent,right,,,,,,stimulusFile/physical.xlsx,,,,,,,,,,,,,,,,,,,,,,,,,,,,,,,
,,,,,,,,,,,,,,,797,2022-01-17_21h36.34.244,multiplicationStroop,2021.2.3,Win32,59.53089654,,,,,right,1,0.5357,0,14,14,36,1,3,1,3 | 1,2,1.4111,1.9756,incongruent,right,,,,,,stimulusFile/physical.xlsx,,,,,,,,,,,,,,,,,,,,,,,,,,,,,,,
,,,,,,,,,,,,,,,797,2022-01-17_21h36.34.244,multiplicationStroop,2021.2.3,Win32,59.53089654,,,,,right,1,0.5016,0,15,15,28,1,2,1,2 | 1,1,1.4111,1.9756,incongruent,right,,,,,,stimulusFile/physical.xlsx,,,,,,,,,,,,,,,,,,,,,,,,,,,,,,,
,,,,,,,,,,,,,,,797,2022-01-17_21h36.34.244,multiplicationStroop,2021.2.3,Win32,59.53089654,,,,,left,1,0.5165,0,16,16,6,1,7,6,7 | 6,1,1.9756,1.4111,congruent,left,,,,,,stimulusFile/physical.xlsx,,,,,,,,,,,,,,,,,,,,,,,,,,,,,,,
,,,,,,,,,,,,,,,797,2022-01-17_21h36.34.244,multiplicationStroop,2021.2.3,Win32,59.53089654,,,,,left,1,0.7102,0,17,17,52,1,2,2,2 | 2,0,1.9756,1.4111,neutral,left,,,,,,stimulusFile/physical.xlsx,,,,,,,,,,,,,,,,,,,,,,,,,,,,,,,
,,,,,,,,,,,,,,,797,2022-01-17_21h36.34.244,multiplicationStroop,2021.2.3,Win32,59.53089654,,,,,left,1,0.4551,0,18,18,7,1,9,8,9 | 8,1,1.9756,1.4111,congruent,left,,,,,,stimulusFile/physical.xlsx,,,,,,,,,,,,,,,,,,,,,,,,,,,,,,,
,,,,,,,,,,,,,,,797,2022-01-17_21h36.34.244,multiplicationStroop,2021.2.3,Win32,59.53089654,,,,,left,1,0.4023,0,19,19,5,1,4,3,4 | 3,1,1.9756,1.4111,congruent,left,,,,,,stimulusFile/physical.xlsx,,,,,,,,,,,,,,,,,,,,,,,,,,,,,,,
,,,,,,,,,,,,,,,797,2022-01-17_21h36.34.244,multiplicationStroop,2021.2.3,Win32,59.53089654,,,,,right,0,0.5012,0,20,20,71,1,9,9,9 | 9,0,1.4111,1.9756,neutral,left,,,,,,stimulusFile/physical.xlsx,,,,,,,,,,,,,,,,,,,,,,,,,,,,,,,
,,,,,,,,,,,,,,,797,2022-01-17_21h36.34.244,multiplicationStroop,2021.2.3,Win32,59.53089654,,,,,left,1,0.393,0,21,21,12,1,3,1,3 | 1,2,1.9756,1.4111,congruent,left,,,,,,stimulusFile/physical.xlsx,,,,,,,,,,,,,,,,,,,,,,,,,,,,,,,
,,,,,,,,,,,,,,,797,2022-01-17_21h36.34.244,multiplicationStroop,2021.2.3,Win32,59.53089654,,,,,right,0,0.3432,0,22,22,43,1,4,9,4 | 9,5,1.9756,1.4111,incongruent,left,,,,,,stimulusFile/physical.xlsx,,,,,,,,,,,,,,,,,,,,,,,,,,,,,,,
,,,,,,,,,,,,,,,797,2022-01-17_21h36.34.244,multiplicationStroop,2021.2.3,Win32,59.53089654,,,,,left,0,0.599,0,23,23,44,1,6,1,6 | 1,5,1.4111,1.9756,incongruent,right,,,,,,stimulusFile/physical.xlsx,,,,,,,,,,,,,,,,,,,,,,,,,,,,,,,
,,,,,,,,,,,,,,,797,2022-01-17_21h36.34.244,multiplicationStroop,2021.2.3,Win32,59.53089654,,,,,right,1,0.9398,0,24,24,45,1,7,2,7 | 2,5,1.4111,1.9756,incongruent,right,,,,,,stimulusFile/physical.xlsx,,,,,,,,,,,,,,,,,,,,,,,,,,,,,,,
,,,,,,,,,,,,,,,797,2022-01-17_21h36.34.244,multiplicationStroop,2021.2.3,Win32,59.53089654,,,,,right,1,0.4916,0,25,25,58,1,6,6,6 | 6,0,1.4111,1.9756,neutral,right,,,,,,stimulusFile/physical.xlsx,,,,,,,,,,,,,,,,,,,,,,,,,,,,,,,
,,,,,,,,,,,,,,,797,2022-01-17_21h36.34.244,multiplicationStroop,2021.2.3,Win32,59.53089654,,,,,right,1,0.5583,0,26,26,29,1,4,3,4 | 3,1,1.4111,1.9756,incongruent,right,,,,,,stimulusFile/physical.xlsx,,,,,,,,,,,,,,,,,,,,,,,,,,,,,,,
,,,,,,,,,,,,,,,797,2022-01-17_21h36.34.244,multiplicationStroop,2021.2.3,Win32,59.53089654,,,,,left,1,0.453,0,27,27,33,1,2,4,2 | 4,2,1.9756,1.4111,incongruent,left,,,,,,stimulusFile/physical.xlsx,,,,,,,,,,,,,,,,,,,,,,,,,,,,,,,
,,,,,,,,,,,,,,,797,2022-01-17_21h36.34.244,multiplicationStroop,2021.2.3,Win32,59.53089654,,,,,right,1,0.5849,0,28,28,47,1,9,4,9 | 4,5,1.4111,1.9756,incongruent,right,,,,,,stimulusFile/physical.xlsx,,,,,,,,,,,,,,,,,,,,,,,,,,,,,,,
,,,,,,,,,,,,,,,797,2022-01-17_21h36.34.244,multiplicationStroop,2021.2.3,Win32,59.53089654,,,,,right,1,0.469,0,29,29,19,1,4,9,4 | 9,5,1.4111,1.9756,congruent,right,,,,,,stimulusFile/physical.xlsx,,,,,,,,,,,,,,,,,,,,,,,,,,,,,,,
,,,,,,,,,,,,,,,797,2022-01-17_21h36.34.244,multiplicationStroop,2021.2.3,Win32,59.53089654,,,,,right,1,0.4082,0,30,30,63,1,9,9,9 | 9,0,1.4111,1.9756,neutral,right,,,,,,stimulusFile/physical.xlsx,,,,,,,,,,,,,,,,,,,,,,,,,,,,,,,
,,,,,,,,,,,,,,,797,2022-01-17_21h36.34.244,multiplicationStroop,2021.2.3,Win32,59.53089654,,,,,left,1,0.4688,0,31,31,25,1,3,4,3 | 4,1,1.9756,1.4111,incongruent,left,,,,,,stimulusFile/physical.xlsx,,,,,,,,,,,,,,,,,,,,,,,,,,,,,,,
,,,,,,,,,,,,,,,797,2022-01-17_21h36.34.244,multiplicationStroop,2021.2.3,Win32,59.53089654,,,,,left,1,0.527,0,32,32,15,1,9,7,9 | 7,2,1.9756,1.4111,congruent,left,,,,,,stimulusFile/physical.xlsx,,,,,,,,,,,,,,,,,,,,,,,,,,,,,,,
,,,,,,,,,,,,,,,797,2022-01-17_21h36.34.244,multiplicationStroop,2021.2.3,Win32,59.53089654,,,,,left,1,0.5757,0,33,33,24,1,1,2,1 | 2,1,1.9756,1.4111,incongruent,left,,,,,,stimulusFile/physical.xlsx,,,,,,,,,,,,,,,,,,,,,,,,,,,,,,,
,,,,,,,,,,,,,,,797,2022-01-17_21h36.34.244,multiplicationStroop,2021.2.3,Win32,59.53089654,,,,,left,1,0.6679,0,34,34,55,1,9,9,9 | 9,0,1.9756,1.4111,neutral,left,,,,,,stimulusFile/physical.xlsx,,,,,,,,,,,,,,,,,,,,,,,,,,,,,,,
,,,,,,,,,,,,,,,797,2022-01-17_21h36.34.244,multiplicationStroop,2021.2.3,Win32,59.53089654,,,,,left,0,0.5015,0,35,35,66,1,3,3,3 | 3,0,1.9756,1.4111,neutral,right,,,,,,stimulusFile/physical.xlsx,,,,,,,,,,,,,,,,,,,,,,,,,,,,,,,
,,,,,,,,,,,,,,,797,2022-01-17_21h36.34.244,multiplicationStroop,2021.2.3,Win32,59.53089654,,,,,left,1,0.5327,0,36,36,4,1,2,1,2 | 1,1,1.9756,1.4111,congruent,left,,,,,,stimulusFile/physical.xlsx,,,,,,,,,,,,,,,,,,,,,,,,,,,,,,,
,,,,,,,,,,,,,,,797,2022-01-17_21h36.34.244,multiplicationStroop,2021.2.3,Win32,59.53089654,,,,,left,1,0.617,0,37,37,35,1,7,9,7 | 9,2,1.9756,1.4111,incongruent,left,,,,,,stimulusFile/physical.xlsx,,,,,,,,,,,,,,,,,,,,,,,,,,,,,,,
,,,,,,,,,,,,,,,797,2022-01-17_21h36.34.244,multiplicationStroop,2021.2.3,Win32,59.53089654,,,,,right,1,0.5286,0,38,38,8,1,1,3,1 | 3,2,1.4111,1.9756,congruent,right,,,,,,stimulusFile/physical.xlsx,,,,,,,,,,,,,,,,,,,,,,,,,,,,,,,
,,,,,,,,,,,,,,,797,2022-01-17_21h36.34.244,multiplicationStroop,2021.2.3,Win32,59.53089654,,,,,right,1,0.5519,0,39,39,37,1,4,2,4 | 2,2,1.4111,1.9756,incongruent,right,,,,,,stimulusFile/physical.xlsx,,,,,,,,,,,,,,,,,,,,,,,,,,,,,,,
,,,,,,,,,,,,,,,797,2022-01-17_21h36.34.244,multiplicationStroop,2021.2.3,Win32,59.53089654,,,,,left,1,0.5275,0,40,40,41,1,2,7,2 | 7,5,1.9756,1.4111,incongruent,left,,,,,,stimulusFile/physical.xlsx,,,,,,,,,,,,,,,,,,,,,,,,,,,,,,,
,,,,,,,,,,,,,,,797,2022-01-17_21h36.34.244,multiplicationStroop,2021.2.3,Win32,59.53089654,,,,,left,1,0.5197,0,41,41,54,1,7,7,7 | 7,0,1.9756,1.4111,neutral,left,,,,,,stimulusFile/physical.xlsx,,,,,,,,,,,,,,,,,,,,,,,,,,,,,,,
,,,,,,,,,,,,,,,797,2022-01-17_21h36.34.244,multiplicationStroop,2021.2.3,Win32,59.53089654,,,,,right,1,0.3917,0,42,42,46,1,8,3,8 | 3,5,1.4111,1.9756,incongruent,right,,,,,,stimulusFile/physical.xlsx,,,,,,,,,,,,,,,,,,,,,,,,,,,,,,,
,,,,,,,,,,,,,,,797,2022-01-17_21h36.34.244,multiplicationStroop,2021.2.3,Win32,59.53089654,,,,,right,1,0.5523,0,43,43,59,1,7,7,7 | 7,0,1.4111,1.9756,neutral,right,,,,,,stimulusFile/physical.xlsx,,,,,,,,,,,,,,,,,,,,,,,,,,,,,,,
,,,,,,,,,,,,,,,797,2022-01-17_21h36.34.244,multiplicationStroop,2021.2.3,Win32,59.53089654,,,,,right,1,0.5868,0,44,44,56,1,1,1,1 | 1,0,1.4111,1.9756,neutral,right,,,,,,stimulusFile/physical.xlsx,,,,,,,,,,,,,,,,,,,,,,,,,,,,,,,
,,,,,,,,,,,,,,,797,2022-01-17_21h36.34.244,multiplicationStroop,2021.2.3,Win32,59.53089654,,,,,left,1,0.4264,0,45,45,26,1,6,7,6 | 7,1,1.9756,1.4111,incongruent,left,,,,,,stimulusFile/physical.xlsx,,,,,,,,,,,,,,,,,,,,,,,,,,,,,,,
,,,,,,,,,,,,,,,797,2022-01-17_21h36.34.244,multiplicationStroop,2021.2.3,Win32,59.53089654,,,,,right,1,0.4346,0,46,46,30,1,7,6,7 | 6,1,1.4111,1.9756,incongruent,right,,,,,,stimulusFile/physical.xlsx,,,,,,,,,,,,,,,,,,,,,,,,,,,,,,,
,,,,,,,,,,,,,,,797,2022-01-17_21h36.34.244,multiplicationStroop,2021.2.3,Win32,59.53089654,,,,,right,1,0.6437,0,47,47,61,1,4,4,4 | 4,0,1.4111,1.9756,neutral,right,,,,,,stimulusFile/physical.xlsx,,,,,,,,,,,,,,,,,,,,,,,,,,,,,,,
,,,,,,,,,,,,,,,797,2022-01-17_21h36.34.244,multiplicationStroop,2021.2.3,Win32,59.53089654,,,,,left,1,0.4066,0,48,48,49,1,3,3,3 | 3,0,1.9756,1.4111,neutral,left,,,,,,stimulusFile/physical.xlsx,,,,,,,,,,,,,,,,,,,,,,,,,,,,,,,
,,,,,,,,,,,,,,,797,2022-01-17_21h36.34.244,multiplicationStroop,2021.2.3,Win32,59.53089654,,,,,left,1,0.5016,0,49,49,22,1,8,3,8 | 3,5,1.9756,1.4111,congruent,left,,,,,,stimulusFile/physical.xlsx,,,,,,,,,,,,,,,,,,,,,,,,,,,,,,,
,,,,,,,,,,,,,,,797,2022-01-17_21h36.34.244,multiplicationStroop,2021.2.3,Win32,59.53089654,,,,,right,1,0.4299,0,50,50,0,1,1,2,1 | 2,1,1.4111,1.9756,congruent,right,,,,,,stimulusFile/physical.xlsx,,,,,,,,,,,,,,,,,,,,,,,,,,,,,,,
,,,,,,,,,,,,,,,797,2022-01-17_21h36.34.244,multiplicationStroop,2021.2.3,Win32,59.53089654,,,,,right,1,0.5185,0,51,51,3,1,8,9,8 | 9,1,1.4111,1.9756,congruent,right,,,,,,stimulusFile/physical.xlsx,,,,,,,,,,,,,,,,,,,,,,,,,,,,,,,
,,,,,,,,,,,,,,,797,2022-01-17_21h36.34.244,multiplicationStroop,2021.2.3,Win32,59.53089654,,,,,right,1,0.5535,0,52,52,65,1,2,2,2 | 2,0,1.4111,1.9756,neutral,right,,,,,,stimulusFile/physical.xlsx,,,,,,,,,,,,,,,,,,,,,,,,,,,,,,,
,,,,,,,,,,,,,,,797,2022-01-17_21h36.34.244,multiplicationStroop,2021.2.3,Win32,59.53089654,,,,,left,1,0.5046,0,53,53,40,1,1,6,1 | 6,5,1.9756,1.4111,incongruent,left,,,,,,stimulusFile/physical.xlsx,,,,,,,,,,,,,,,,,,,,,,,,,,,,,,,
,,,,,,,,,,,,,,,797,2022-01-17_21h36.34.244,multiplicationStroop,2021.2.3,Win32,59.53089654,,,,,right,1,0.3485,0,54,54,16,1,1,6,1 | 6,5,1.4111,1.9756,congruent,right,,,,,,stimulusFile/physical.xlsx,,,,,,,,,,,,,,,,,,,,,,,,,,,,,,,
,,,,,,,,,,,,,,,797,2022-01-17_21h36.34.244,multiplicationStroop,2021.2.3,Win32,59.53089654,,,,,right,1,0.6352,0,55,55,9,1,2,4,2 | 4,2,1.4111,1.9756,congruent,right,,,,,,stimulusFile/physical.xlsx,,,,,,,,,,,,,,,,,,,,,,,,,,,,,,,
,,,,,,,,,,,,,,,797,2022-01-17_21h36.34.244,multiplicationStroop,2021.2.3,Win32,59.53089654,,,,,left,1,0.4848,0,56,56,34,1,6,8,6 | 8,2,1.9756,1.4111,incongruent,left,,,,,,stimulusFile/physical.xlsx,,,,,,,,,,,,,,,,,,,,,,,,,,,,,,,
,,,,,,,,,,,,,,,797,2022-01-17_21h36.34.244,multiplicationStroop,2021.2.3,Win32,59.53089654,,,,,right,1,0.3915,0,57,57,18,1,3,8,3 | 8,5,1.4111,1.9756,congruent,right,,,,,,stimulusFile/physical.xlsx,,,,,,,,,,,,,,,,,,,,,,,,,,,,,,,
,,,,,,,,,,,,,,,797,2022-01-17_21h36.34.244,multiplicationStroop,2021.2.3,Win32,59.53089654,,,,,right,1,0.6174,0,58,58,10,1,6,8,6 | 8,2,1.4111,1.9756,congruent,right,,,,,,stimulusFile/physical.xlsx,,,,,,,,,,,,,,,,,,,,,,,,,,,,,,,
,,,,,,,,,,,,,,,797,2022-01-17_21h36.34.244,multiplicationStroop,2021.2.3,Win32,59.53089654,,,,,left,1,0.4522,0,59,59,21,1,7,2,7 | 2,5,1.9756,1.4111,congruent,left,,,,,,stimulusFile/physical.xlsx,,,,,,,,,,,,,,,,,,,,,,,,,,,,,,,
,,,,,,,,,,,,,,,797,2022-01-17_21h36.34.244,multiplicationStroop,2021.2.3,Win32,59.53089654,,,,,right,1,0.3661,0,60,60,31,1,9,8,9 | 8,1,1.4111,1.9756,incongruent,right,,,,,,stimulusFile/physical.xlsx,,,,,,,,,,,,,,,,,,,,,,,,,,,,,,,
,,,,,,,,,,,,,,,797,2022-01-17_21h36.34.244,multiplicationStroop,2021.2.3,Win32,59.53089654,,,,,right,1,0.6036,0,61,61,67,1,4,4,4 | 4,0,1.4111,1.9756,neutral,right,,,,,,stimulusFile/physical.xlsx,,,,,,,,,,,,,,,,,,,,,,,,,,,,,,,
,,,,,,,,,,,,,,,797,2022-01-17_21h36.34.244,multiplicationStroop,2021.2.3,Win32,59.53089654,,,,,left,1,0.4257,0,62,62,50,1,6,6,6 | 6,0,1.9756,1.4111,neutral,left,,,,,,stimulusFile/physical.xlsx,,,,,,,,,,,,,,,,,,,,,,,,,,,,,,,
,,,,,,,,,,,,,,,797,2022-01-17_21h36.34.244,multiplicationStroop,2021.2.3,Win32,59.53089654,,,,,right,1,0.3586,0,63,63,1,1,3,4,3 | 4,1,1.4111,1.9756,congruent,right,,,,,,stimulusFile/physical.xlsx,,,,,,,,,,,,,,,,,,,,,,,,,,,,,,,
,,,,,,,,,,,,,,,797,2022-01-17_21h36.34.244,multiplicationStroop,2021.2.3,Win32,59.53089654,,,,,left,1,0.4347,0,64,64,42,1,3,8,3 | 8,5,1.9756,1.4111,incongruent,left,,,,,,stimulusFile/physical.xlsx,,,,,,,,,,,,,,,,,,,,,,,,,,,,,,,
,,,,,,,,,,,,,,,797,2022-01-17_21h36.34.244,multiplicationStroop,2021.2.3,Win32,59.53089654,,,,,right,1,0.3345,0,65,65,39,1,9,7,9 | 7,2,1.4111,1.9756,incongruent,right,,,,,,stimulusFile/physical.xlsx,,,,,,,,,,,,,,,,,,,,,,,,,,,,,,,
,,,,,,,,,,,,,,,797,2022-01-17_21h36.34.244,multiplicationStroop,2021.2.3,Win32,59.53089654,,,,,left,0,0.3614,0,66,66,64,1,1,1,1 | 1,0,1.9756,1.4111,neutral,right,,,,,,stimulusFile/physical.xlsx,,,,,,,,,,,,,,,,,,,,,,,,,,,,,,,
,,,,,,,,,,,,,,,797,2022-01-17_21h36.34.244,multiplicationStroop,2021.2.3,Win32,59.53089654,,,,,right,0,0.3044,0,67,67,32,1,1,3,1 | 3,2,1.9756,1.4111,incongruent,left,,,,,,stimulusFile/physical.xlsx,,,,,,,,,,,,,,,,,,,,,,,,,,,,,,,
,,,,,,,,,,,,,,,797,2022-01-17_21h36.34.244,multiplicationStroop,2021.2.3,Win32,59.53089654,,,,,left,1,0.4893,0,68,68,68,1,6,6,6 | 6,0,1.9756,1.4111,neutral,left,,,,,,stimulusFile/physical.xlsx,,,,,,,,,,,,,,,,,,,,,,,,,,,,,,,
,,,,,,,,,,,,,,,797,2022-01-17_21h36.34.244,multiplicationStroop,2021.2.3,Win32,59.53089654,,,,,right,1,0.4021,0,69,69,11,1,7,9,7 | 9,2,1.4111,1.9756,congruent,right,,,,,,stimulusFile/physical.xlsx,,,,,,,,,,,,,,,,,,,,,,,,,,,,,,,
,,,,,,,,,,,,,,,797,2022-01-17_21h36.34.244,multiplicationStroop,2021.2.3,Win32,59.53089654,,,,,right,0,0.5202,0,70,70,69,1,7,7,7 | 7,0,1.4111,1.9756,neutral,left,,,,,,stimulusFile/physical.xlsx,,,,,,,,,,,,,,,,,,,,,,,,,,,,,,,
,,,,,,,,,,,,,,,797,2022-01-17_21h36.34.244,multiplicationStroop,2021.2.3,Win32,59.53089654,,,,,left,1,0.4729,0,71,71,27,1,8,9,8 | 9,1,1.9756,1.4111,incongruent,left,,,,,,stimulusFile/physical.xlsx,,,,,,,,,,,,,,,,,,,,,,,,,,,,,,,
,,,,,,,,,,,,,,,797,2022-01-17_21h36.34.244,multiplicationStroop,2021.2.3,Win32,59.53089654,,,,,,,,,,,,,,,,,,,,,0,0,0,1,1,stimulusFile/physical.xlsx,PHYSICALLY larger (larger font size).,images/physicallyLarger.png,,,,,,,,,,,,,,,,,,,,,,,,,,,,,
,,,,,,,,,,,,,,,797,2022-01-17_21h36.34.244,multiplicationStroop,2021.2.3,Win32,59.53089654,space,10.5296,space,7.6456,left,1,0.9989,0,0,0,20,1,6,1,6 | 1,5,1.9756,1.4111,congruent,left,,,,,,stimulusFile/magnitude.xlsx,,,,,,,,,,,,,,,,,,,,,,,,,,,,,,,
,,,,,,,,,,,,,,,797,2022-01-17_21h36.34.244,multiplicationStroop,2021.2.3,Win32,59.53089654,,,,,right,1,0.7592,0,1,1,32,1,1,3,1 | 3,2,1.9756,1.4111,incongruent,right,,,,,,stimulusFile/magnitude.xlsx,,,,,,,,,,,,,,,,,,,,,,,,,,,,,,,
,,,,,,,,,,,,,,,797,2022-01-17_21h36.34.244,multiplicationStroop,2021.2.3,Win32,59.53089654,,,,,left,1,0.8557,0,2,2,63,1,9,7,9 | 7,2,1.6933,1.6933,neutral,left,,,,,,stimulusFile/magnitude.xlsx,,,,,,,,,,,,,,,,,,,,,,,,,,,,,,,
,,,,,,,,,,,,,,,797,2022-01-17_21h36.34.244,multiplicationStroop,2021.2.3,Win32,59.53089654,,,,,left,1,0.8601,0,3,3,47,1,9,4,9 | 4,5,1.4111,1.9756,incongruent,left,,,,,,stimulusFile/magnitude.xlsx,,,,,,,,,,,,,,,,,,,,,,,,,,,,,,,
,,,,,,,,,,,,,,,797,2022-01-17_21h36.34.244,multiplicationStroop,2021.2.3,Win32,59.53089654,,,,,left,1,0.6153,0,4,4,15,1,9,7,9 | 7,2,1.9756,1.4111,congruent,left,,,,,,stimulusFile/magnitude.xlsx,,,,,,,,,,,,,,,,,,,,,,,,,,,,,,,
,,,,,,,,,,,,,,,797,2022-01-17_21h36.34.244,multiplicationStroop,2021.2.3,Win32,59.53089654,,,,,right,1,0.5062,0,5,5,18,1,3,8,3 | 8,5,1.4111,1.9756,congruent,right,,,,,,stimulusFile/magnitude.xlsx,,,,,,,,,,,,,,,,,,,,,,,,,,,,,,,
,,,,,,,,,,,,,,,797,2022-01-17_21h36.34.244,multiplicationStroop,2021.2.3,Win32,59.53089654,,,,,left,1,0.5833,0,6,6,45,1,7,2,7 | 2,5,1.4111,1.9756,incongruent,left,,,,,,stimulusFile/magnitude.xlsx,,,,,,,,,,,,,,,,,,,,,,,,,,,,,,,
,,,,,,,,,,,,,,,797,2022-01-17_21h36.34.244,multiplicationStroop,2021.2.3,Win32,59.53089654,,,,,right,1,0.625,0,7,7,51,1,8,9,8 | 9,1,1.6933,1.6933,neutral,right,,,,,,stimulusFile/magnitude.xlsx,,,,,,,,,,,,,,,,,,,,,,,,,,,,,,,
,,,,,,,,,,,,,,,797,2022-01-17_21h36.34.244,multiplicationStroop,2021.2.3,Win32,59.53089654,,,,,left,1,0.725,0,8,8,29,1,4,3,4 | 3,1,1.4111,1.9756,incongruent,left,,,,,,stimulusFile/magnitude.xlsx,,,,,,,,,,,,,,,,,,,,,,,,,,,,,,,
,,,,,,,,,,,,,,,797,2022-01-17_21h36.34.244,multiplicationStroop,2021.2.3,Win32,59.53089654,,,,,right,1,0.398,0,9,9,19,1,4,9,4 | 9,5,1.4111,1.9756,congruent,right,,,,,,stimulusFile/magnitude.xlsx,,,,,,,,,,,,,,,,,,,,,,,,,,,,,,,
,,,,,,,,,,,,,,,797,2022-01-17_21h36.34.244,multiplicationStroop,2021.2.3,Win32,59.53089654,,,,,right,1,0.6459,0,10,10,34,1,6,8,6 | 8,2,1.9756,1.4111,incongruent,right,,,,,,stimulusFile/magnitude.xlsx,,,,,,,,,,,,,,,,,,,,,,,,,,,,,,,
,,,,,,,,,,,,,,,797,2022-01-17_21h36.34.244,multiplicationStroop,2021.2.3,Win32,59.53089654,,,,,right,1,0.665,0,11,11,40,1,1,6,1 | 6,5,1.9756,1.4111,incongruent,right,,,,,,stimulusFile/magnitude.xlsx,,,,,,,,,,,,,,,,,,,,,,,,,,,,,,,
,,,,,,,,,,,,,,,797,2022-01-17_21h36.34.244,multiplicationStroop,2021.2.3,Win32,59.53089654,,,,,left,1,0.6143,0,12,12,55,1,9,8,9 | 8,1,1.6933,1.6933,neutral,left,,,,,,stimulusFile/magnitude.xlsx,,,,,,,,,,,,,,,,,,,,,,,,,,,,,,,
,,,,,,,,,,,,,,,797,2022-01-17_21h36.34.244,multiplicationStroop,2021.2.3,Win32,59.53089654,,,,,right,1,0.567,0,13,13,56,1,1,3,1 | 3,2,1.6933,1.6933,neutral,right,,,,,,stimulusFile/magnitude.xlsx,,,,,,,,,,,,,,,,,,,,,,,,,,,,,,,
,,,,,,,,,,,,,,,797,2022-01-17_21h36.34.244,multiplicationStroop,2021.2.3,Win32,59.53089654,,,,,left,1,0.4878,0,14,14,12,1,3,1,3 | 1,2,1.9756,1.4111,congruent,left,,,,,,stimulusFile/magnitude.xlsx,,,,,,,,,,,,,,,,,,,,,,,,,,,,,,,
,,,,,,,,,,,,,,,797,2022-01-17_21h36.34.244,multiplicationStroop,2021.2.3,Win32,59.53089654,,,,,right,1,0.459,0,15,15,10,1,6,8,6 | 8,2,1.4111,1.9756,congruent,right,,,,,,stimulusFile/magnitude.xlsx,,,,,,,,,,,,,,,,,,,,,,,,,,,,,,,
,,,,,,,,,,,,,,,797,2022-01-17_21h36.34.244,multiplicationStroop,2021.2.3,Win32,59.53089654,,,,,left,1,0.3991,0,16,16,70,1,8,3,8 | 3,5,1.6933,1.6933,neutral,left,,,,,,stimulusFile/magnitude.xlsx,,,,,,,,,,,,,,,,,,,,,,,,,,,,,,,
,,,,,,,,,,,,,,,797,2022-01-17_21h36.34.244,multiplicationStroop,2021.2.3,Win32,59.53089654,,,,,right,1,0.5087,0,17,17,27,1,8,9,8 | 9,1,1.9756,1.4111,incongruent,right,,,,,,stimulusFile/magnitude.xlsx,,,,,,,,,,,,,,,,,,,,,,,,,,,,,,,
,,,,,,,,,,,,,,,797,2022-01-17_21h36.34.244,multiplicationStroop,2021.2.3,Win32,59.53089654,,,,,left,1,0.5872,0,18,18,31,1,9,8,9 | 8,1,1.4111,1.9756,incongruent,left,,,,,,stimulusFile/magnitude.xlsx,,,,,,,,,,,,,,,,,,,,,,,,,,,,,,,
,,,,,,,,,,,,,,,797,2022-01-17_21h36.34.244,multiplicationStroop,2021.2.3,Win32,59.53089654,,,,,right,1,0.5783,0,19,19,24,1,1,2,1 | 2,1,1.9756,1.4111,incongruent,right,,,,,,stimulusFile/magnitude.xlsx,,,,,,,,,,,,,,,,,,,,,,,,,,,,,,,
,,,,,,,,,,,,,,,797,2022-01-17_21h36.34.244,multiplicationStroop,2021.2.3,Win32,59.53089654,,,,,left,1,0.6069,0,20,20,61,1,4,2,4 | 2,2,1.6933,1.6933,neutral,left,,,,,,stimulusFile/magnitude.xlsx,,,,,,,,,,,,,,,,,,,,,,,,,,,,,,,
,,,,,,,,,,,,,,,797,2022-01-17_21h36.34.244,multiplicationStroop,2021.2.3,Win32,59.53089654,,,,,right,1,0.4621,0,21,21,67,1,4,9,4 | 9,5,1.6933,1.6933,neutral,right,,,,,,stimulusFile/magnitude.xlsx,,,,,,,,,,,,,,,,,,,,,,,,,,,,,,,
,,,,,,,,,,,,,,,797,2022-01-17_21h36.34.244,multiplicationStroop,2021.2.3,Win32,59.53089654,,,,,left,1,0.4085,0,22,22,13,1,4,2,4 | 2,2,1.9756,1.4111,congruent,left,,,,,,stimulusFile/magnitude.xlsx,,,,,,,,,,,,,,,,,,,,,,,,,,,,,,,
,,,,,,,,,,,,,,,797,2022-01-17_21h36.34.244,multiplicationStroop,2021.2.3,Win32,59.53089654,,,,,left,1,0.8291,0,23,23,6,1,7,6,7 | 6,1,1.9756,1.4111,congruent,left,,,,,,stimulusFile/magnitude.xlsx,,,,,,,,,,,,,,,,,,,,,,,,,,,,,,,
,,,,,,,,,,,,,,,797,2022-01-17_21h36.34.244,multiplicationStroop,2021.2.3,Win32,59.53089654,,,,,right,1,0.4253,0,24,24,41,1,2,7,2 | 7,5,1.9756,1.4111,incongruent,right,,,,,,stimulusFile/magnitude.xlsx,,,,,,,,,,,,,,,,,,,,,,,,,,,,,,,
,,,,,,,,,,,,,,,797,2022-01-17_21h36.34.244,multiplicationStroop,2021.2.3,Win32,59.53089654,,,,,right,1,0.5919,0,25,25,64,1,1,6,1 | 6,5,1.6933,1.6933,neutral,right,,,,,,stimulusFile/magnitude.xlsx,,,,,,,,,,,,,,,,,,,,,,,,,,,,,,,
,,,,,,,,,,,,,,,797,2022-01-17_21h36.34.244,multiplicationStroop,2021.2.3,Win32,59.53089654,,,,,left,1,0.6644,0,26,26,54,1,7,6,7 | 6,1,1.6933,1.6933,neutral,left,,,,,,stimulusFile/magnitude.xlsx,,,,,,,,,,,,,,,,,,,,,,,,,,,,,,,
,,,,,,,,,,,,,,,797,2022-01-17_21h36.34.244,multiplicationStroop,2021.2.3,Win32,59.53089654,,,,,left,1,0.6169,0,27,27,38,1,8,6,8 | 6,2,1.4111,1.9756,incongruent,left,,,,,,stimulusFile/magnitude.xlsx,,,,,,,,,,,,,,,,,,,,,,,,,,,,,,,
,,,,,,,,,,,,,,,797,2022-01-17_21h36.34.244,multiplicationStroop,2021.2.3,Win32,59.53089654,,,,,left,1,0.7416,0,28,28,44,1,6,1,6 | 1,5,1.4111,1.9756,incongruent,left,,,,,,stimulusFile/magnitude.xlsx,,,,,,,,,,,,,,,,,,,,,,,,,,,,,,,
,,,,,,,,,,,,,,,797,2022-01-17_21h36.34.244,multiplicationStroop,2021.2.3,Win32,59.53089654,,,,,right,1,0.5728,0,29,29,9,1,2,4,2 | 4,2,1.4111,1.9756,congruent,right,,,,,,stimulusFile/magnitude.xlsx,,,,,,,,,,,,,,,,,,,,,,,,,,,,,,,
,,,,,,,,,,,,,,,797,2022-01-17_21h36.34.244,multiplicationStroop,2021.2.3,Win32,59.53089654,,,,,right,1,0.5974,0,30,30,48,1,1,2,1 | 2,1,1.6933,1.6933,neutral,right,,,,,,stimulusFile/magnitude.xlsx,,,,,,,,,,,,,,,,,,,,,,,,,,,,,,,
,,,,,,,,,,,,,,,797,2022-01-17_21h36.34.244,multiplicationStroop,2021.2.3,Win32,59.53089654,,,,,right,1,0.5221,0,31,31,66,1,3,8,3 | 8,5,1.6933,1.6933,neutral,right,,,,,,stimulusFile/magnitude.xlsx,,,,,,,,,,,,,,,,,,,,,,,,,,,,,,,
,,,,,,,,,,,,,,,797,2022-01-17_21h36.34.244,multiplicationStroop,2021.2.3,Win32,59.53089654,,,,,right,1,0.5392,0,32,32,65,1,2,7,2 | 7,5,1.6933,1.6933,neutral,right,,,,,,stimulusFile/magnitude.xlsx,,,,,,,,,,,,,,,,,,,,,,,,,,,,,,,
,,,,,,,,,,,,,,,797,2022-01-17_21h36.34.244,multiplicationStroop,2021.2.3,Win32,59.53089654,,,,,right,1,0.6753,0,33,33,50,1,6,7,6 | 7,1,1.6933,1.6933,neutral,right,,,,,,stimulusFile/magnitude.xlsx,,,,,,,,,,,,,,,,,,,,,,,,,,,,,,,
,,,,,,,,,,,,,,,797,2022-01-17_21h36.34.244,multiplicationStroop,2021.2.3,Win32,59.53089654,,,,,left,1,0.6835,0,34,34,28,1,2,1,2 | 1,1,1.4111,1.9756,incongruent,left,,,,,,stimulusFile/magnitude.xlsx,,,,,,,,,,,,,,,,,,,,,,,,,,,,,,,
,,,,,,,,,,,,,,,797,2022-01-17_21h36.34.244,multiplicationStroop,2021.2.3,Win32,59.53089654,,,,,left,1,0.4742,0,35,35,23,1,9,4,9 | 4,5,1.9756,1.4111,congruent,left,,,,,,stimulusFile/magnitude.xlsx,,,,,,,,,,,,,,,,,,,,,,,,,,,,,,,
,,,,,,,,,,,,,,,797,2022-01-17_21h36.34.244,multiplicationStroop,2021.2.3,Win32,59.53089654,,,,,left,1,0.4469,0,36,36,4,1,2,1,2 | 1,1,1.9756,1.4111,congruent,left,,,,,,stimulusFile/magnitude.xlsx,,,,,,,,,,,,,,,,,,,,,,,,,,,,,,,
,,,,,,,,,,,,,,,797,2022-01-17_21h36.34.244,multiplicationStroop,2021.2.3,Win32,59.53089654,,,,,left,1,0.6138,0,37,37,46,1,8,3,8 | 3,5,1.4111,1.9756,incongruent,left,,,,,,stimulusFile/magnitude.xlsx,,,,,,,,,,,,,,,,,,,,,,,,,,,,,,,
,,,,,,,,,,,,,,,797,2022-01-17_21h36.34.244,multiplicationStroop,2021.2.3,Win32,59.53089654,,,,,left,1,0.4239,0,38,38,71,1,9,4,9 | 4,5,1.6933,1.6933,neutral,left,,,,,,stimulusFile/magnitude.xlsx,,,,,,,,,,,,,,,,,,,,,,,,,,,,,,,
,,,,,,,,,,,,,,,797,2022-01-17_21h36.34.244,multiplicationStroop,2021.2.3,Win32,59.53089654,,,,,right,1,0.4285,0,39,39,0,1,1,2,1 | 2,1,1.4111,1.9756,congruent,right,,,,,,stimulusFile/magnitude.xlsx,,,,,,,,,,,,,,,,,,,,,,,,,,,,,,,
,,,,,,,,,,,,,,,797,2022-01-17_21h36.34.244,multiplicationStroop,2021.2.3,Win32,59.53089654,,,,,left,1,0.4157,0,40,40,36,1,3,1,3 | 1,2,1.4111,1.9756,incongruent,left,,,,,,stimulusFile/magnitude.xlsx,,,,,,,,,,,,,,,,,,,,,,,,,,,,,,,
,,,,,,,,,,,,,,,797,2022-01-17_21h36.34.244,multiplicationStroop,2021.2.3,Win32,59.53089654,,,,,right,1,0.4065,0,41,41,8,1,1,3,1 | 3,2,1.4111,1.9756,congruent,right,,,,,,stimulusFile/magnitude.xlsx,,,,,,,,,,,,,,,,,,,,,,,,,,,,,,,
,,,,,,,,,,,,,,,797,2022-01-17_21h36.34.244,multiplicationStroop,2021.2.3,Win32,59.53089654,,,,,left,1,0.4088,0,42,42,69,1,7,2,7 | 2,5,1.6933,1.6933,neutral,left,,,,,,stimulusFile/magnitude.xlsx,,,,,,,,,,,,,,,,,,,,,,,,,,,,,,,
,,,,,,,,,,,,,,,797,2022-01-17_21h36.34.244,multiplicationStroop,2021.2.3,Win32,59.53089654,,,,,right,1,0.4329,0,43,43,11,1,7,9,7 | 9,2,1.4111,1.9756,congruent,right,,,,,,stimulusFile/magnitude.xlsx,,,,,,,,,,,,,,,,,,,,,,,,,,,,,,,
,,,,,,,,,,,,,,,797,2022-01-17_21h36.34.244,multiplicationStroop,2021.2.3,Win32,59.53089654,,,,,left,1,0.364,0,44,44,5,1,4,3,4 | 3,1,1.9756,1.4111,congruent,left,,,,,,stimulusFile/magnitude.xlsx,,,,,,,,,,,,,,,,,,,,,,,,,,,,,,,
,,,,,,,,,,,,,,,797,2022-01-17_21h36.34.244,multiplicationStroop,2021.2.3,Win32,59.53089654,,,,,right,1,0.5314,0,45,45,26,1,6,7,6 | 7,1,1.9756,1.4111,incongruent,right,,,,,,stimulusFile/magnitude.xlsx,,,,,,,,,,,,,,,,,,,,,,,,,,,,,,,
,,,,,,,,,,,,,,,797,2022-01-17_21h36.34.244,multiplicationStroop,2021.2.3,Win32,59.53089654,,,,,left,1,0.4061,0,46,46,22,1,8,3,8 | 3,5,1.9756,1.4111,congruent,left,,,,,,stimulusFile/magnitude.xlsx,,,,,,,,,,,,,,,,,,,,,,,,,,,,,,,
,,,,,,,,,,,,,,,797,2022-01-17_21h36.34.244,multiplicationStroop,2021.2.3,Win32,59.53089654,,,,,left,1,0.4475,0,47,47,21,1,7,2,7 | 2,5,1.9756,1.4111,congruent,left,,,,,,stimulusFile/magnitude.xlsx,,,,,,,,,,,,,,,,,,,,,,,,,,,,,,,
,,,,,,,,,,,,,,,797,2022-01-17_21h36.34.244,multiplicationStroop,2021.2.3,Win32,59.53089654,,,,,left,1,0.4259,0,48,48,14,1,8,6,8 | 6,2,1.9756,1.4111,congruent,left,,,,,,stimulusFile/magnitude.xlsx,,,,,,,,,,,,,,,,,,,,,,,,,,,,,,,
,,,,,,,,,,,,,,,797,2022-01-17_21h36.34.244,multiplicationStroop,2021.2.3,Win32,59.53089654,,,,,right,1,0.4058,0,49,49,16,1,1,6,1 | 6,5,1.4111,1.9756,congruent,right,,,,,,stimulusFile/magnitude.xlsx,,,,,,,,,,,,,,,,,,,,,,,,,,,,,,,
,,,,,,,,,,,,,,,797,2022-01-17_21h36.34.244,multiplicationStroop,2021.2.3,Win32,59.53089654,,,,,right,1,0.7918,0,50,50,49,1,3,4,3 | 4,1,1.6933,1.6933,neutral,right,,,,,,stimulusFile/magnitude.xlsx,,,,,,,,,,,,,,,,,,,,,,,,,,,,,,,
,,,,,,,,,,,,,,,797,2022-01-17_21h36.34.244,multiplicationStroop,2021.2.3,Win32,59.53089654,,,,,left,1,0.6607,0,51,51,30,1,7,6,7 | 6,1,1.4111,1.9756,incongruent,left,,,,,,stimulusFile/magnitude.xlsx,,,,,,,,,,,,,,,,,,,,,,,,,,,,,,,
,,,,,,,,,,,,,,,797,2022-01-17_21h36.34.244,multiplicationStroop,2021.2.3,Win32,59.53089654,,,,,left,0,0.4163,0,52,52,59,1,7,9,7 | 9,2,1.6933,1.6933,neutral,right,,,,,,stimulusFile/magnitude.xlsx,,,,,,,,,,,,,,,,,,,,,,,,,,,,,,,
,,,,,,,,,,,,,,,797,2022-01-17_21h36.34.244,multiplicationStroop,2021.2.3,Win32,59.53089654,,,,,left,1,0.6438,0,53,53,37,1,4,2,4 | 2,2,1.4111,1.9756,incongruent,left,,,,,,stimulusFile/magnitude.xlsx,,,,,,,,,,,,,,,,,,,,,,,,,,,,,,,
,,,,,,,,,,,,,,,797,2022-01-17_21h36.34.244,multiplicationStroop,2021.2.3,Win32,59.53089654,,,,,left,1,0.6949,0,54,54,62,1,8,6,8 | 6,2,1.6933,1.6933,neutral,left,,,,,,stimulusFile/magnitude.xlsx,,,,,,,,,,,,,,,,,,,,,,,,,,,,,,,
,,,,,,,,,,,,,,,797,2022-01-17_21h36.34.244,multiplicationStroop,2021.2.3,Win32,59.53089654,,,,,right,1,0.5757,0,55,55,3,1,8,9,8 | 9,1,1.4111,1.9756,congruent,right,,,,,,stimulusFile/magnitude.xlsx,,,,,,,,,,,,,,,,,,,,,,,,,,,,,,,
,,,,,,,,,,,,,,,797,2022-01-17_21h36.34.244,multiplicationStroop,2021.2.3,Win32,59.53089654,,,,,right,1,0.6653,0,56,56,57,1,2,4,2 | 4,2,1.6933,1.6933,neutral,right,,,,,,stimulusFile/magnitude.xlsx,,,,,,,,,,,,,,,,,,,,,,,,,,,,,,,
,,,,,,,,,,,,,,,797,2022-01-17_21h36.34.244,multiplicationStroop,2021.2.3,Win32,59.53089654,,,,,right,1,0.653,0,57,57,1,1,3,4,3 | 4,1,1.4111,1.9756,congruent,right,,,,,,stimulusFile/magnitude.xlsx,,,,,,,,,,,,,,,,,,,,,,,,,,,,,,,
,,,,,,,,,,,,,,,797,2022-01-17_21h36.34.244,multiplicationStroop,2021.2.3,Win32,59.53089654,,,,,right,1,0.9659,0,58,58,33,1,2,4,2 | 4,2,1.9756,1.4111,incongruent,right,,,,,,stimulusFile/magnitude.xlsx,,,,,,,,,,,,,,,,,,,,,,,,,,,,,,,
,,,,,,,,,,,,,,,797,2022-01-17_21h36.34.244,multiplicationStroop,2021.2.3,Win32,59.53089654,,,,,right,1,0.5032,0,59,59,42,1,3,8,3 | 8,5,1.9756,1.4111,incongruent,right,,,,,,stimulusFile/magnitude.xlsx,,,,,,,,,,,,,,,,,,,,,,,,,,,,,,,
,,,,,,,,,,,,,,,797,2022-01-17_21h36.34.244,multiplicationStroop,2021.2.3,Win32,59.53089654,,,,,right,1,0.5442,0,60,60,43,1,4,9,4 | 9,5,1.9756,1.4111,incongruent,right,,,,,,stimulusFile/magnitude.xlsx,,,,,,,,,,,,,,,,,,,,,,,,,,,,,,,
,,,,,,,,,,,,,,,797,2022-01-17_21h36.34.244,multiplicationStroop,2021.2.3,Win32,59.53089654,,,,,left,1,0.503,0,61,61,53,1,4,3,4 | 3,1,1.6933,1.6933,neutral,left,,,,,,stimulusFile/magnitude.xlsx,,,,,,,,,,,,,,,,,,,,,,,,,,,,,,,
,,,,,,,,,,,,,,,797,2022-01-17_21h36.34.244,multiplicationStroop,2021.2.3,Win32,59.53089654,,,,,left,1,0.4888,0,62,62,52,1,2,1,2 | 1,1,1.6933,1.6933,neutral,left,,,,,,stimulusFile/magnitude.xlsx,,,,,,,,,,,,,,,,,,,,,,,,,,,,,,,
,,,,,,,,,,,,,,,797,2022-01-17_21h36.34.244,multiplicationStroop,2021.2.3,Win32,59.53089654,,,,,left,1,0.5927,0,63,63,39,1,9,7,9 | 7,2,1.4111,1.9756,incongruent,left,,,,,,stimulusFile/magnitude.xlsx,,,,,,,,,,,,,,,,,,,,,,,,,,,,,,,
,,,,,,,,,,,,,,,797,2022-01-17_21h36.34.244,multiplicationStroop,2021.2.3,Win32,59.53089654,,,,,right,1,0.5015,0,64,64,2,1,6,7,6 | 7,1,1.4111,1.9756,congruent,right,,,,,,stimulusFile/magnitude.xlsx,,,,,,,,,,,,,,,,,,,,,,,,,,,,,,,
,,,,,,,,,,,,,,,797,2022-01-17_21h36.34.244,multiplicationStroop,2021.2.3,Win32,59.53089654,,,,,right,1,0.4384,0,65,65,17,1,2,7,2 | 7,5,1.4111,1.9756,congruent,right,,,,,,stimulusFile/magnitude.xlsx,,,,,,,,,,,,,,,,,,,,,,,,,,,,,,,
,,,,,,,,,,,,,,,797,2022-01-17_21h36.34.244,multiplicationStroop,2021.2.3,Win32,59.53089654,,,,,left,1,0.5204,0,66,66,7,1,9,8,9 | 8,1,1.9756,1.4111,congruent,left,,,,,,stimulusFile/magnitude.xlsx,,,,,,,,,,,,,,,,,,,,,,,,,,,,,,,
,,,,,,,,,,,,,,,797,2022-01-17_21h36.34.244,multiplicationStroop,2021.2.3,Win32,59.53089654,,,,,right,1,0.5672,0,67,67,35,1,7,9,7 | 9,2,1.9756,1.4111,incongruent,right,,,,,,stimulusFile/magnitude.xlsx,,,,,,,,,,,,,,,,,,,,,,,,,,,,,,,
,,,,,,,,,,,,,,,797,2022-01-17_21h36.34.244,multiplicationStroop,2021.2.3,Win32,59.53089654,,,,,left,1,0.4271,0,68,68,60,1,3,1,3 | 1,2,1.6933,1.6933,neutral,left,,,,,,stimulusFile/magnitude.xlsx,,,,,,,,,,,,,,,,,,,,,,,,,,,,,,,
,,,,,,,,,,,,,,,797,2022-01-17_21h36.34.244,multiplicationStroop,2021.2.3,Win32,59.53089654,,,,,left,1,0.6148,0,69,69,68,1,6,1,6 | 1,5,1.6933,1.6933,neutral,left,,,,,,stimulusFile/magnitude.xlsx,,,,,,,,,,,,,,,,,,,,,,,,,,,,,,,
,,,,,,,,,,,,,,,797,2022-01-17_21h36.34.244,multiplicationStroop,2021.2.3,Win32,59.53089654,,,,,right,1,0.5366,0,70,70,25,1,3,4,3 | 4,1,1.9756,1.4111,incongruent,right,,,,,,stimulusFile/magnitude.xlsx,,,,,,,,,,,,,,,,,,,,,,,,,,,,,,,
,,,,,,,,,,,,,,,797,2022-01-17_21h36.34.244,multiplicationStroop,2021.2.3,Win32,59.53089654,,,,,right,1,0.793,0,71,71,58,1,6,8,6 | 8,2,1.6933,1.6933,neutral,right,,,,,,stimulusFile/magnitude.xlsx,,,,,,,,,,,,,,,,,,,,,,,,,,,,,,,
,,,,,,,,,,,,,,,797,2022-01-17_21h36.34.244,multiplicationStroop,2021.2.3,Win32,59.53089654,,,,,,,,,,,,,,,,,,,,,0,1,1,0,1,stimulusFile/magnitude.xlsx,NUMERICALLY larger (larger coefficient).,images/numericallyLarger.png,,,,,,,,,,,,,,,,,,,,,,,,,,,,,
,,,,,,,,,,,,,,,797,2022-01-17_21h36.34.244,multiplicationStroop,2021.2.3,Win32,59.53089654,,,,,,,,,,,,,,,,,,,,,,,,,,,,,space,16.1672,space,8.1251,63,3.2883,1,0,0,0,12,1,7,×,9,7 × 9,neutral,smallerFirst,1.5,1.5,63,,,,,,,,
,,,,,,,,,,,,,,,797,2022-01-17_21h36.34.244,multiplicationStroop,2021.2.3,Win32,59.53089654,,,,,,,,,,,,,,,,,,,,,,,,,,,,,,,,,18,4.3976,1,0,1,1,0,1,3,×,6,3 × 6,neutral,smallerFirst,1.5,1.5,18,,,,,,,,
,,,,,,,,,,,,,,,797,2022-01-17_21h36.34.244,multiplicationStroop,2021.2.3,Win32,59.53089654,,,,,,,,,,,,,,,,,,,,,,,,,,,,,,,,,16,1.8737,1,0,2,2,30,1,4,×,4,4 × 4,neutral,tie,1.5,1.5,16,,,,,,,,
,,,,,,,,,,,,,,,797,2022-01-17_21h36.34.244,multiplicationStroop,2021.2.3,Win32,59.53089654,,,,,,,,,,,,,,,,,,,,,,,,,,,,,,,,,35,1.8488,1,0,3,3,1,1,5,×,7,5 × 7,neutral,smallerFirst,1.5,1.5,35,,,,,,,,
,,,,,,,,,,,,,,,797,2022-01-17_21h36.34.244,multiplicationStroop,2021.2.3,Win32,59.53089654,,,,,,,,,,,,,,,,,,,,,,,,,,,,,,,,,16,1.998,1,0,4,4,13,1,2,×,8,2 × 8,neutral,smallerFirst,1.5,1.5,16,,,,,,,,
,,,,,,,,,,,,,,,797,2022-01-17_21h36.34.244,multiplicationStroop,2021.2.3,Win32,59.53089654,,,,,,,,,,,,,,,,,,,,,,,,,,,,,,,,,6,1.6652,1,0,5,5,26,1,3,×,2,3 × 2,neutral,largerFirst,1.5,1.5,6,,,,,,,,
,,,,,,,,,,,,,,,797,2022-01-17_21h36.34.244,multiplicationStroop,2021.2.3,Win32,59.53089654,,,,,,,,,,,,,,,,,,,,,,,,,,,,,,,,,32,2.1656,1,0,6,6,23,1,8,×,4,8 × 4,neutral,largerFirst,1.5,1.5,32,,,,,,,,
,,,,,,,,,,,,,,,797,2022-01-17_21h36.34.244,multiplicationStroop,2021.2.3,Win32,59.53089654,,,,,,,,,,,,,,,,,,,,,,,,,,,,,,,,,18,2.0151,1,0,7,7,18,1,9,×,2,9 × 2,neutral,largerFirst,1.5,1.5,18,,,,,,,,
,,,,,,,,,,,,,,,797,2022-01-17_21h36.34.244,multiplicationStroop,2021.2.3,Win32,59.53089654,,,,,,,,,,,,,,,,,,,,,,,,,,,,,,,,,54,4.8468,0,0,8,8,6,1,6,×,7,6 × 7,neutral,smallerFirst,1.5,1.5,42,,,,,,,,
,,,,,,,,,,,,,,,797,2022-01-17_21h36.34.244,multiplicationStroop,2021.2.3,Win32,59.53089654,,,,,,,,,,,,,,,,,,,,,,,,,,,,,,,,,21,1.9233,1,0,9,9,8,1,3,×,7,3 × 7,neutral,smallerFirst,1.5,1.5,21,,,,,,,,
,,,,,,,,,,,,,,,797,2022-01-17_21h36.34.244,multiplicationStroop,2021.2.3,Win32,59.53089654,,,,,,,,,,,,,,,,,,,,,,,,,,,,,,,,,20,1.9983,1,0,10,10,20,1,5,×,4,5 × 4,neutral,largerFirst,1.5,1.5,20,,,,,,,,
,,,,,,,,,,,,,,,797,2022-01-17_21h36.34.244,multiplicationStroop,2021.2.3,Win32,59.53089654,,,,,,,,,,,,,,,,,,,,,,,,,,,,,,,,,245,1.6492,0,0,11,11,22,1,8,×,3,8 × 3,neutral,largerFirst,1.5,1.5,24,,,,,,,,
,,,,,,,,,,,,,,,797,2022-01-17_21h36.34.244,multiplicationStroop,2021.2.3,Win32,59.53089654,,,,,,,,,,,,,,,,,,,,,,,,,,,,,,,,,24,1.8484,1,0,12,12,2,1,4,×,6,4 × 6,neutral,smallerFirst,1.5,1.5,24,,,,,,,,
,,,,,,,,,,,,,,,797,2022-01-17_21h36.34.244,multiplicationStroop,2021.2.3,Win32,59.53089654,,,,,,,,,,,,,,,,,,,,,,,,,,,,,,,,,4,1.5986,1,0,13,13,28,1,2,×,2,2 × 2,neutral,tie,1.5,1.5,4,,,,,,,,
,,,,,,,,,,,,,,,797,2022-01-17_21h36.34.244,multiplicationStroop,2021.2.3,Win32,59.53089654,,,,,,,,,,,,,,,,,,,,,,,,,,,,,,,,,15,2.1813,1,0,14,14,5,1,3,×,5,3 × 5,neutral,smallerFirst,1.5,1.5,15,,,,,,,,
,,,,,,,,,,,,,,,797,2022-01-17_21h36.34.244,multiplicationStroop,2021.2.3,Win32,59.53089654,,,,,,,,,,,,,,,,,,,,,,,,,,,,,,,,,36,1.6819,1,0,15,15,27,1,9,×,4,9 × 4,neutral,largerFirst,1.5,1.5,36,,,,,,,,
,,,,,,,,,,,,,,,797,2022-01-17_21h36.34.244,multiplicationStroop,2021.2.3,Win32,59.53089654,,,,,,,,,,,,,,,,,,,,,,,,,,,,,,,,,12,1.3825,1,0,16,16,25,1,6,×,2,6 × 2,neutral,largerFirst,1.5,1.5,12,,,,,,,,
,,,,,,,,,,,,,,,797,2022-01-17_21h36.34.244,multiplicationStroop,2021.2.3,Win32,59.53089654,,,,,,,,,,,,,,,,,,,,,,,,,,,,,,,,,40,2.0485,1,0,17,17,24,1,8,×,5,8 × 5,neutral,largerFirst,1.5,1.5,40,,,,,,,,
,,,,,,,,,,,,,,,797,2022-01-17_21h36.34.244,multiplicationStroop,2021.2.3,Win32,59.53089654,,,,,,,,,,,,,,,,,,,,,,,,,,,,,,,,,9,2.8313,1,0,18,18,29,1,3,×,3,3 × 3,neutral,tie,1.5,1.5,9,,,,,,,,
,,,,,,,,,,,,,,,797,2022-01-17_21h36.34.244,multiplicationStroop,2021.2.3,Win32,59.53089654,,,,,,,,,,,,,,,,,,,,,,,,,,,,,,,,,48,2.3143,1,0,19,19,15,1,8,×,6,8 × 6,neutral,largerFirst,1.5,1.5,48,,,,,,,,
,,,,,,,,,,,,,,,797,2022-01-17_21h36.34.244,multiplicationStroop,2021.2.3,Win32,59.53089654,,,,,,,,,,,,,,,,,,,,,,,,,,,,,,,,,25,1.9823,1,0,20,20,31,1,5,×,5,5 × 5,neutral,tie,1.5,1.5,25,,,,,,,,
,,,,,,,,,,,,,,,797,2022-01-17_21h36.34.244,multiplicationStroop,2021.2.3,Win32,59.53089654,,,,,,,,,,,,,,,,,,,,,,,,,,,,,,,,,10,1.9982,1,0,21,21,4,1,2,×,5,2 × 5,neutral,smallerFirst,1.5,1.5,10,,,,,,,,
,,,,,,,,,,,,,,,797,2022-01-17_21h36.34.244,multiplicationStroop,2021.2.3,Win32,59.53089654,,,,,,,,,,,,,,,,,,,,,,,,,,,,,,,,,56,1.9321,1,0,22,22,9,1,7,×,8,7 × 8,neutral,smallerFirst,1.5,1.5,56,,,,,,,,
,,,,,,,,,,,,,,,797,2022-01-17_21h36.34.244,multiplicationStroop,2021.2.3,Win32,59.53089654,,,,,,,,,,,,,,,,,,,,,,,,,,,,,,,,,81,2.0812,1,0,23,23,35,1,9,×,9,9 × 9,neutral,tie,1.5,1.5,81,,,,,,,,
,,,,,,,,,,,,,,,797,2022-01-17_21h36.34.244,multiplicationStroop,2021.2.3,Win32,59.53089654,,,,,,,,,,,,,,,,,,,,,,,,,,,,,,,,,49,2.1323,1,0,24,24,33,1,7,×,7,7 × 7,neutral,tie,1.5,1.5,49,,,,,,,,
,,,,,,,,,,,,,,,797,2022-01-17_21h36.34.244,multiplicationStroop,2021.2.3,Win32,59.53089654,,,,,,,,,,,,,,,,,,,,,,,,,,,,,,,,,6,1.5817,0,0,25,25,3,1,2,×,4,2 × 4,neutral,smallerFirst,1.5,1.5,8,,,,,,,,
,,,,,,,,,,,,,,,797,2022-01-17_21h36.34.244,multiplicationStroop,2021.2.3,Win32,59.53089654,,,,,,,,,,,,,,,,,,,,,,,,,,,,,,,,,54,1.765,1,0,26,26,7,1,6,×,9,6 × 9,neutral,smallerFirst,1.5,1.5,54,,,,,,,,
,,,,,,,,,,,,,,,797,2022-01-17_21h36.34.244,multiplicationStroop,2021.2.3,Win32,59.53089654,,,,,,,,,,,,,,,,,,,,,,,,,,,,,,,,,12,1.7317,1,0,27,27,21,1,4,×,3,4 × 3,neutral,largerFirst,1.5,1.5,12,,,,,,,,
,,,,,,,,,,,,,,,797,2022-01-17_21h36.34.244,multiplicationStroop,2021.2.3,Win32,59.53089654,,,,,,,,,,,,,,,,,,,,,,,,,,,,,,,,,27,1.8868,1,0,28,28,14,1,9,×,3,9 × 3,neutral,largerFirst,1.5,1.5,27,,,,,,,,
,,,,,,,,,,,,,,,797,2022-01-17_21h36.34.244,multiplicationStroop,2021.2.3,Win32,59.53089654,,,,,,,,,,,,,,,,,,,,,,,,,,,,,,,,,72,6.2304,1,0,29,29,11,1,8,×,9,8 × 9,neutral,smallerFirst,1.5,1.5,72,,,,,,,,
,,,,,,,,,,,,,,,797,2022-01-17_21h36.34.244,multiplicationStroop,2021.2.3,Win32,59.53089654,,,,,,,,,,,,,,,,,,,,,,,,,,,,,,,,,36,2.7351,1,0,30,30,32,1,6,×,6,6 × 6,neutral,tie,1.5,1.5,36,,,,,,,,
,,,,,,,,,,,,,,,797,2022-01-17_21h36.34.244,multiplicationStroop,2021.2.3,Win32,59.53089654,,,,,,,,,,,,,,,,,,,,,,,,,,,,,,,,,28,2.7361,1,0,31,31,17,1,7,×,4,7 × 4,neutral,largerFirst,1.5,1.5,28,,,,,,,,
,,,,,,,,,,,,,,,797,2022-01-17_21h36.34.244,multiplicationStroop,2021.2.3,Win32,59.53089654,,,,,,,,,,,,,,,,,,,,,,,,,,,,,,,,,45,2.0526,1,0,32,32,10,1,5,×,9,5 × 9,neutral,smallerFirst,1.5,1.5,45,,,,,,,,
,,,,,,,,,,,,,,,797,2022-01-17_21h36.34.244,multiplicationStroop,2021.2.3,Win32,59.53089654,,,,,,,,,,,,,,,,,,,,,,,,,,,,,,,,,64,1.8981,1,0,33,33,34,1,8,×,8,8 × 8,neutral,tie,1.5,1.5,64,,,,,,,,
,,,,,,,,,,,,,,,797,2022-01-17_21h36.34.244,multiplicationStroop,2021.2.3,Win32,59.53089654,,,,,,,,,,,,,,,,,,,,,,,,,,,,,,,,,30,2.1479,1,0,34,34,19,1,6,×,5,6 × 5,neutral,largerFirst,1.5,1.5,30,,,,,,,,
,,,,,,,,,,,,,,,797,2022-01-17_21h36.34.244,multiplicationStroop,2021.2.3,Win32,59.53089654,,,,,,,,,,,,,,,,,,,,,,,,,,,,,,,,,14,1.5363,1,0,35,35,16,1,7,×,2,7 × 2,neutral,largerFirst,1.5,1.5,14,,,,,,,,
,,,,,,,,,,,,,,,797,2022-01-17_21h36.34.244,multiplicationStroop,2021.2.3,Win32,59.53089654,,,,,,,,,,,,,,,,,,,,,,,,,,,,,,,,,,,,,,,,,,,,,,,,,,0,0,0,1,1,stimulusFile/mult_blk2.xlsx,,
,,,,,,,,,,,,,,,797,2022-01-17_21h36.34.244,multiplicationStroop,2021.2.3,Win32,59.53089654,,,,,,,,,,,,,,,,,,,,,,,,,,,,,,,space,2.2183,56,2.6851,1,0,0,0,8,1,7,×,8,7 × 8,congruent,smallerFirst,1,2,56,,,,,,,,
,,,,,,,,,,,,,,,797,2022-01-17_21h36.34.244,multiplicationStroop,2021.2.3,Win32,59.53089654,,,,,,,,,,,,,,,,,,,,,,,,,,,,,,,,,36,2.3816,1,0,1,1,32,1,6,×,6,6 × 6,neutral,tie,2,1,36,,,,,,,,
,,,,,,,,,,,,,,,797,2022-01-17_21h36.34.244,multiplicationStroop,2021.2.3,Win32,59.53089654,,,,,,,,,,,,,,,,,,,,,,,,,,,,,,,,,32,1.815,1,0,2,2,20,1,8,×,4,8 × 4,congruent,largerFirst,2,1,32,,,,,,,,
,,,,,,,,,,,,,,,797,2022-01-17_21h36.34.244,multiplicationStroop,2021.2.3,Win32,59.53089654,,,,,,,,,,,,,,,,,,,,,,,,,,,,,,,,,49,2.1821,1,0,3,3,33,1,7,×,7,7 × 7,neutral,tie,2,1,49,,,,,,,,
,,,,,,,,,,,,,,,797,2022-01-17_21h36.34.244,multiplicationStroop,2021.2.3,Win32,59.53089654,,,,,,,,,,,,,,,,,,,,,,,,,,,,,,,,,9,1.8484,1,0,4,4,29,1,3,×,3,3 × 3,neutral,tie,2,1,9,,,,,,,,
,,,,,,,,,,,,,,,797,2022-01-17_21h36.34.244,multiplicationStroop,2021.2.3,Win32,59.53089654,,,,,,,,,,,,,,,,,,,,,,,,,,,,,,,,,30,2.2484,1,0,5,5,15,1,6,×,5,6 × 5,congruent,largerFirst,2,1,30,,,,,,,,
,,,,,,,,,,,,,,,797,2022-01-17_21h36.34.244,multiplicationStroop,2021.2.3,Win32,59.53089654,,,,,,,,,,,,,,,,,,,,,,,,,,,,,,,,,45,1.6986,1,0,6,6,23,1,9,×,5,9 × 5,congruent,largerFirst,2,1,45,,,,,,,,
,,,,,,,,,,,,,,,797,2022-01-17_21h36.34.244,multiplicationStroop,2021.2.3,Win32,59.53089654,,,,,,,,,,,,,,,,,,,,,,,,,,,,,,,,,15,2.1474,1,0,7,7,4,1,3,×,5,3 × 5,congruent,smallerFirst,1,2,15,,,,,,,,
,,,,,,,,,,,,,,,797,2022-01-17_21h36.34.244,multiplicationStroop,2021.2.3,Win32,59.53089654,,,,,,,,,,,,,,,,,,,,,,,,,,,,,,,,,14,3.1313,1,0,8,8,14,1,7,×,2,7 × 2,congruent,largerFirst,2,1,14,,,,,,,,
,,,,,,,,,,,,,,,797,2022-01-17_21h36.34.244,multiplicationStroop,2021.2.3,Win32,59.53089654,,,,,,,,,,,,,,,,,,,,,,,,,,,,,,,,,8,1.7778,1,0,9,9,9,1,2,×,4,2 × 4,congruent,smallerFirst,1,2,8,,,,,,,,
,,,,,,,,,,,,,,,797,2022-01-17_21h36.34.244,multiplicationStroop,2021.2.3,Win32,59.53089654,,,,,,,,,,,,,,,,,,,,,,,,,,,,,,,,,12,1.4767,1,0,10,10,19,1,6,×,2,6 × 2,congruent,largerFirst,2,1,12,,,,,,,,
,,,,,,,,,,,,,,,797,2022-01-17_21h36.34.244,multiplicationStroop,2021.2.3,Win32,59.53089654,,,,,,,,,,,,,,,,,,,,,,,,,,,,,,,,,16,1.7491,1,0,11,11,5,1,2,×,8,2 × 8,congruent,smallerFirst,1,2,16,,,,,,,,
,,,,,,,,,,,,,,,797,2022-01-17_21h36.34.244,multiplicationStroop,2021.2.3,Win32,59.53089654,,,,,,,,,,,,,,,,,,,,,,,,,,,,,,,,,40,1.9816,1,0,12,12,6,1,5,×,8,5 × 8,congruent,smallerFirst,1,2,40,,,,,,,,
,,,,,,,,,,,,,,,797,2022-01-17_21h36.34.244,multiplicationStroop,2021.2.3,Win32,59.53089654,,,,,,,,,,,,,,,,,,,,,,,,,,,,,,,,,35,1.8653,1,0,13,13,1,1,5,×,7,5 × 7,congruent,smallerFirst,1,2,35,,,,,,,,
,,,,,,,,,,,,,,,797,2022-01-17_21h36.34.244,multiplicationStroop,2021.2.3,Win32,59.53089654,,,,,,,,,,,,,,,,,,,,,,,,,,,,,,,,,24,1.6812,1,0,14,14,25,1,6,×,4,6 × 4,congruent,largerFirst,2,1,24,,,,,,,,
,,,,,,,,,,,,,,,797,2022-01-17_21h36.34.244,multiplicationStroop,2021.2.3,Win32,59.53089654,,,,,,,,,,,,,,,,,,,,,,,,,,,,,,,,,10,1.7839,1,0,15,15,24,1,5,×,2,5 × 2,congruent,largerFirst,2,1,10,,,,,,,,
,,,,,,,,,,,,,,,797,2022-01-17_21h36.34.244,multiplicationStroop,2021.2.3,Win32,59.53089654,,,,,,,,,,,,,,,,,,,,,,,,,,,,,,,,,25,1.7947,1,0,16,16,31,1,5,×,5,5 × 5,neutral,tie,2,1,25,,,,,,,,
,,,,,,,,,,,,,,,797,2022-01-17_21h36.34.244,multiplicationStroop,2021.2.3,Win32,59.53089654,,,,,,,,,,,,,,,,,,,,,,,,,,,,,,,,,18,2.2837,1,0,17,17,22,1,9,×,2,9 × 2,congruent,largerFirst,2,1,18,,,,,,,,
,,,,,,,,,,,,,,,797,2022-01-17_21h36.34.244,multiplicationStroop,2021.2.3,Win32,59.53089654,,,,,,,,,,,,,,,,,,,,,,,,,,,,,,,,,42,2.2676,1,0,18,18,3,1,6,×,7,6 × 7,congruent,smallerFirst,1,2,42,,,,,,,,
,,,,,,,,,,,,,,,797,2022-01-17_21h36.34.244,multiplicationStroop,2021.2.3,Win32,59.53089654,,,,,,,,,,,,,,,,,,,,,,,,,,,,,,,,,24,1.8651,1,0,19,19,10,1,3,×,8,3 × 8,congruent,smallerFirst,1,2,24,,,,,,,,
,,,,,,,,,,,,,,,797,2022-01-17_21h36.34.244,multiplicationStroop,2021.2.3,Win32,59.53089654,,,,,,,,,,,,,,,,,,,,,,,,,,,,,,,,,28,2.3607,1,0,20,20,27,1,7,×,4,7 × 4,congruent,largerFirst,2,1,28,,,,,,,,
,,,,,,,,,,,,,,,797,2022-01-17_21h36.34.244,multiplicationStroop,2021.2.3,Win32,59.53089654,,,,,,,,,,,,,,,,,,,,,,,,,,,,,,,,,81,1.9319,1,0,21,21,35,1,9,×,9,9 × 9,neutral,tie,2,1,81,,,,,,,,
,,,,,,,,,,,,,,,797,2022-01-17_21h36.34.244,multiplicationStroop,2021.2.3,Win32,59.53089654,,,,,,,,,,,,,,,,,,,,,,,,,,,,,,,,,21,1.9027,1,0,22,22,16,1,7,×,3,7 × 3,congruent,largerFirst,2,1,21,,,,,,,,
,,,,,,,,,,,,,,,797,2022-01-17_21h36.34.244,multiplicationStroop,2021.2.3,Win32,59.53089654,,,,,,,,,,,,,,,,,,,,,,,,,,,,,,,,,12,2.1777,1,0,23,23,2,1,3,×,4,3 × 4,congruent,smallerFirst,1,2,12,,,,,,,,
,,,,,,,,,,,,,,,797,2022-01-17_21h36.34.244,multiplicationStroop,2021.2.3,Win32,59.53089654,,,,,,,,,,,,,,,,,,,,,,,,,,,,,,,,,20,1.8026,1,0,24,24,7,1,4,×,5,4 × 5,congruent,smallerFirst,1,2,20,,,,,,,,
,,,,,,,,,,,,,,,797,2022-01-17_21h36.34.244,multiplicationStroop,2021.2.3,Win32,59.53089654,,,,,,,,,,,,,,,,,,,,,,,,,,,,,,,,,64,2.0983,1,0,25,25,34,1,8,×,8,8 × 8,neutral,tie,2,1,64,,,,,,,,
,,,,,,,,,,,,,,,797,2022-01-17_21h36.34.244,multiplicationStroop,2021.2.3,Win32,59.53089654,,,,,,,,,,,,,,,,,,,,,,,,,,,,,,,,,63,2.2948,1,0,26,26,21,1,9,×,7,9 × 7,congruent,largerFirst,2,1,63,,,,,,,,
,,,,,,,,,,,,,,,797,2022-01-17_21h36.34.244,multiplicationStroop,2021.2.3,Win32,59.53089654,,,,,,,,,,,,,,,,,,,,,,,,,,,,,,,,,27,1.9976,1,0,27,27,26,1,9,×,3,9 × 3,congruent,largerFirst,2,1,27,,,,,,,,
,,,,,,,,,,,,,,,797,2022-01-17_21h36.34.244,multiplicationStroop,2021.2.3,Win32,59.53089654,,,,,,,,,,,,,,,,,,,,,,,,,,,,,,,,,6,1.8147,1,0,28,28,13,1,2,×,3,2 × 3,congruent,smallerFirst,1,2,6,,,,,,,,
,,,,,,,,,,,,,,,797,2022-01-17_21h36.34.244,multiplicationStroop,2021.2.3,Win32,59.53089654,,,,,,,,,,,,,,,,,,,,,,,,,,,,,,,,,72,4.0637,1,0,29,29,17,1,9,×,8,9 × 8,congruent,largerFirst,2,1,72,,,,,,,,
,,,,,,,,,,,,,,,797,2022-01-17_21h36.34.244,multiplicationStroop,2021.2.3,Win32,59.53089654,,,,,,,,,,,,,,,,,,,,,,,,,,,,,,,,,54,2.0237,1,0,30,30,12,1,6,×,9,6 × 9,congruent,smallerFirst,1,2,54,,,,,,,,
,,,,,,,,,,,,,,,797,2022-01-17_21h36.34.244,multiplicationStroop,2021.2.3,Win32,59.53089654,,,,,,,,,,,,,,,,,,,,,,,,,,,,,,,,,36,2.1184,1,0,31,31,0,1,4,×,9,4 × 9,congruent,smallerFirst,1,2,36,,,,,,,,
,,,,,,,,,,,,,,,797,2022-01-17_21h36.34.244,multiplicationStroop,2021.2.3,Win32,59.53089654,,,,,,,,,,,,,,,,,,,,,,,,,,,,,,,,,16,1.8948,1,0,32,32,30,1,4,×,4,4 × 4,neutral,tie,2,1,16,,,,,,,,
,,,,,,,,,,,,,,,797,2022-01-17_21h36.34.244,multiplicationStroop,2021.2.3,Win32,59.53089654,,,,,,,,,,,,,,,,,,,,,,,,,,,,,,,,,4,1.4651,1,0,33,33,28,1,2,×,2,2 × 2,neutral,tie,2,1,4,,,,,,,,
,,,,,,,,,,,,,,,797,2022-01-17_21h36.34.244,multiplicationStroop,2021.2.3,Win32,59.53089654,,,,,,,,,,,,,,,,,,,,,,,,,,,,,,,,,48,2.2153,1,0,34,34,18,1,8,×,6,8 × 6,congruent,largerFirst,2,1,48,,,,,,,,
,,,,,,,,,,,,,,,797,2022-01-17_21h36.34.244,multiplicationStroop,2021.2.3,Win32,59.53089654,,,,,,,,,,,,,,,,,,,,,,,,,,,,,,,,,18,2.0023,1,0,35,35,11,1,3,×,6,3 × 6,congruent,smallerFirst,1,2,18,,,,,,,,
,,,,,,,,,,,,,,,797,2022-01-17_21h36.34.244,multiplicationStroop,2021.2.3,Win32,59.53089654,,,,,,,,,,,,,,,,,,,,,,,,,,,,,,,,,,,,,,,,,,,,,,,,,,0,1,1,2,1,stimulusFile/mult_blk3_congruent.xlsx,,
,,,,,,,,,,,,,,,797,2022-01-17_21h36.34.244,multiplicationStroop,2021.2.3,Win32,59.53089654,,,,,,,,,,,,,,,,,,,,,,,,,,,,,,,space,1.386,56,1.9434,1,0,0,0,22,1,8,×,7,8 × 7,congruent,largerFirst,2,1,56,,,,,,,,
,,,,,,,,,,,,,,,797,2022-01-17_21h36.34.244,multiplicationStroop,2021.2.3,Win32,59.53089654,,,,,,,,,,,,,,,,,,,,,,,,,,,,,,,,,36,1.9151,1,0,1,1,14,1,9,×,4,9 × 4,congruent,largerFirst,2,1,36,,,,,,,,
,,,,,,,,,,,,,,,797,2022-01-17_21h36.34.244,multiplicationStroop,2021.2.3,Win32,59.53089654,,,,,,,,,,,,,,,,,,,,,,,,,,,,,,,,,6,1.5854,1,0,2,2,27,1,3,×,2,3 × 2,congruent,largerFirst,2,1,6,,,,,,,,
,,,,,,,,,,,,,,,797,2022-01-17_21h36.34.244,multiplicationStroop,2021.2.3,Win32,59.53089654,,,,,,,,,,,,,,,,,,,,,,,,,,,,,,,,,42,1.7832,1,0,3,3,17,1,7,×,6,7 × 6,congruent,largerFirst,2,1,42,,,,,,,,
,,,,,,,,,,,,,,,797,2022-01-17_21h36.34.244,multiplicationStroop,2021.2.3,Win32,59.53089654,,,,,,,,,,,,,,,,,,,,,,,,,,,,,,,,,18,1.7937,1,0,4,4,8,1,2,×,9,2 × 9,congruent,smallerFirst,1,2,18,,,,,,,,
,,,,,,,,,,,,,,,797,2022-01-17_21h36.34.244,multiplicationStroop,2021.2.3,Win32,59.53089654,,,,,,,,,,,,,,,,,,,,,,,,,,,,,,,,,24,1.8985,1,0,5,5,11,1,4,×,6,4 × 6,congruent,smallerFirst,1,2,24,,,,,,,,
,,,,,,,,,,,,,,,797,2022-01-17_21h36.34.244,multiplicationStroop,2021.2.3,Win32,59.53089654,,,,,,,,,,,,,,,,,,,,,,,,,,,,,,,,,24,1.8483,1,0,6,6,24,1,8,×,3,8 × 3,congruent,largerFirst,2,1,24,,,,,,,,
,,,,,,,,,,,,,,,797,2022-01-17_21h36.34.244,multiplicationStroop,2021.2.3,Win32,59.53089654,,,,,,,,,,,,,,,,,,,,,,,,,,,,,,,,,81,2.2813,1,0,7,7,35,1,9,×,9,9 × 9,neutral,tie,1,2,81,,,,,,,,
,,,,,,,,,,,,,,,797,2022-01-17_21h36.34.244,multiplicationStroop,2021.2.3,Win32,59.53089654,,,,,,,,,,,,,,,,,,,,,,,,,,,,,,,,,18,2.0526,1,0,8,8,25,1,6,×,3,6 × 3,congruent,largerFirst,2,1,18,,,,,,,,
,,,,,,,,,,,,,,,797,2022-01-17_21h36.34.244,multiplicationStroop,2021.2.3,Win32,59.53089654,,,,,,,,,,,,,,,,,,,,,,,,,,,,,,,,,35,1.6944,1,0,9,9,15,1,7,×,5,7 × 5,congruent,largerFirst,2,1,35,,,,,,,,
,,,,,,,,,,,,,,,797,2022-01-17_21h36.34.244,multiplicationStroop,2021.2.3,Win32,59.53089654,,,,,,,,,,,,,,,,,,,,,,,,,,,,,,,,,16,1.6529,1,0,10,10,19,1,8,×,2,8 × 2,congruent,largerFirst,2,1,16,,,,,,,,
,,,,,,,,,,,,,,,797,2022-01-17_21h36.34.244,multiplicationStroop,2021.2.3,Win32,59.53089654,,,,,,,,,,,,,,,,,,,,,,,,,,,,,,,,,8,1.9111,1,0,11,11,23,1,4,×,2,4 × 2,congruent,largerFirst,2,1,8,,,,,,,,
,,,,,,,,,,,,,,,797,2022-01-17_21h36.34.244,multiplicationStroop,2021.2.3,Win32,59.53089654,,,,,,,,,,,,,,,,,,,,,,,,,,,,,,,,,49,1.8699,1,0,12,12,33,1,7,×,7,7 × 7,neutral,tie,1,2,49,,,,,,,,
,,,,,,,,,,,,,,,797,2022-01-17_21h36.34.244,multiplicationStroop,2021.2.3,Win32,59.53089654,,,,,,,,,,,,,,,,,,,,,,,,,,,,,,,,,54,1.6936,1,0,13,13,26,1,9,×,6,9 × 6,congruent,largerFirst,2,1,54,,,,,,,,
,,,,,,,,,,,,,,,797,2022-01-17_21h36.34.244,multiplicationStroop,2021.2.3,Win32,59.53089654,,,,,,,,,,,,,,,,,,,,,,,,,,,,,,,,,14,1.8362,1,0,14,14,0,1,2,×,7,2 × 7,congruent,smallerFirst,1,2,14,,,,,,,,
,,,,,,,,,,,,,,,797,2022-01-17_21h36.34.244,multiplicationStroop,2021.2.3,Win32,59.53089654,,,,,,,,,,,,,,,,,,,,,,,,,,,,,,,,,4,1.3777,1,0,15,15,28,1,2,×,2,2 × 2,neutral,tie,1,2,4,,,,,,,,
,,,,,,,,,,,,,,,797,2022-01-17_21h36.34.244,multiplicationStroop,2021.2.3,Win32,59.53089654,,,,,,,,,,,,,,,,,,,,,,,,,,,,,,,,,27,1.882,1,0,16,16,12,1,3,×,9,3 × 9,congruent,smallerFirst,1,2,27,,,,,,,,
,,,,,,,,,,,,,,,797,2022-01-17_21h36.34.244,multiplicationStroop,2021.2.3,Win32,59.53089654,,,,,,,,,,,,,,,,,,,,,,,,,,,,,,,,,12,1.6652,1,0,17,17,5,1,2,×,6,2 × 6,congruent,smallerFirst,1,2,12,,,,,,,,
,,,,,,,,,,,,,,,797,2022-01-17_21h36.34.244,multiplicationStroop,2021.2.3,Win32,59.53089654,,,,,,,,,,,,,,,,,,,,,,,,,,,,,,,,,12,2.015,1,0,18,18,16,1,4,×,3,4 × 3,congruent,largerFirst,2,1,12,,,,,,,,
,,,,,,,,,,,,,,,797,2022-01-17_21h36.34.244,multiplicationStroop,2021.2.3,Win32,59.53089654,,,,,,,,,,,,,,,,,,,,,,,,,,,,,,,,,64,2.0145,1,0,19,19,34,1,8,×,8,8 × 8,neutral,tie,1,2,64,,,,,,,,
,,,,,,,,,,,,,,,797,2022-01-17_21h36.34.244,multiplicationStroop,2021.2.3,Win32,59.53089654,,,,,,,,,,,,,,,,,,,,,,,,,,,,,,,,,31,2.2479,0,0,20,20,2,1,3,×,7,3 × 7,congruent,smallerFirst,1,2,21,,,,,,,,
,,,,,,,,,,,,,,,797,2022-01-17_21h36.34.244,multiplicationStroop,2021.2.3,Win32,59.53089654,,,,,,,,,,,,,,,,,,,,,,,,,,,,,,,,,20,2.3533,1,0,21,21,21,1,5,×,4,5 × 4,congruent,largerFirst,2,1,20,,,,,,,,
,,,,,,,,,,,,,,,797,2022-01-17_21h36.34.244,multiplicationStroop,2021.2.3,Win32,59.53089654,,,,,,,,,,,,,,,,,,,,,,,,,,,,,,,,,32,1.7109,1,0,22,22,6,1,4,×,8,4 × 8,congruent,smallerFirst,1,2,32,,,,,,,,
,,,,,,,,,,,,,,,797,2022-01-17_21h36.34.244,multiplicationStroop,2021.2.3,Win32,59.53089654,,,,,,,,,,,,,,,,,,,,,,,,,,,,,,,,,48,2.4026,1,0,23,23,4,1,6,×,8,6 × 8,congruent,smallerFirst,1,2,48,,,,,,,,
,,,,,,,,,,,,,,,797,2022-01-17_21h36.34.244,multiplicationStroop,2021.2.3,Win32,59.53089654,,,,,,,,,,,,,,,,,,,,,,,,,,,,,,,,,45,1.7323,1,0,24,24,9,1,5,×,9,5 × 9,congruent,smallerFirst,1,2,45,,,,,,,,
,,,,,,,,,,,,,,,797,2022-01-17_21h36.34.244,multiplicationStroop,2021.2.3,Win32,59.53089654,,,,,,,,,,,,,,,,,,,,,,,,,,,,,,,,,28,2.6768,1,0,25,25,13,1,4,×,7,4 × 7,congruent,smallerFirst,1,2,28,,,,,,,,
,,,,,,,,,,,,,,,797,2022-01-17_21h36.34.244,multiplicationStroop,2021.2.3,Win32,59.53089654,,,,,,,,,,,,,,,,,,,,,,,,,,,,,,,,,40,1.7941,1,0,26,26,20,1,8,×,5,8 × 5,congruent,largerFirst,2,1,40,,,,,,,,
,,,,,,,,,,,,,,,797,2022-01-17_21h36.34.244,multiplicationStroop,2021.2.3,Win32,59.53089654,,,,,,,,,,,,,,,,,,,,,,,,,,,,,,,,,9,2.0155,1,0,27,27,29,1,3,×,3,3 × 3,neutral,tie,1,2,9,,,,,,,,
,,,,,,,,,,,,,,,797,2022-01-17_21h36.34.244,multiplicationStroop,2021.2.3,Win32,59.53089654,,,,,,,,,,,,,,,,,,,,,,,,,,,,,,,,,30,2.0112,1,0,28,28,1,1,5,×,6,5 × 6,congruent,smallerFirst,1,2,30,,,,,,,,
,,,,,,,,,,,,,,,797,2022-01-17_21h36.34.244,multiplicationStroop,2021.2.3,Win32,59.53089654,,,,,,,,,,,,,,,,,,,,,,,,,,,,,,,,,36,2.0647,1,0,29,29,32,1,6,×,6,6 × 6,neutral,tie,1,2,36,,,,,,,,
,,,,,,,,,,,,,,,797,2022-01-17_21h36.34.244,multiplicationStroop,2021.2.3,Win32,59.53089654,,,,,,,,,,,,,,,,,,,,,,,,,,,,,,,,,10,1.9149,1,0,30,30,10,1,2,×,5,2 × 5,congruent,smallerFirst,1,2,10,,,,,,,,
,,,,,,,,,,,,,,,797,2022-01-17_21h36.34.244,multiplicationStroop,2021.2.3,Win32,59.53089654,,,,,,,,,,,,,,,,,,,,,,,,,,,,,,,,,72,2.8694,1,0,31,31,3,1,8,×,9,8 × 9,congruent,smallerFirst,1,2,72,,,,,,,,
,,,,,,,,,,,,,,,797,2022-01-17_21h36.34.244,multiplicationStroop,2021.2.3,Win32,59.53089654,,,,,,,,,,,,,,,,,,,,,,,,,,,,,,,,,15,1.9443,1,0,32,32,18,1,5,×,3,5 × 3,congruent,largerFirst,2,1,15,,,,,,,,
,,,,,,,,,,,,,,,797,2022-01-17_21h36.34.244,multiplicationStroop,2021.2.3,Win32,59.53089654,,,,,,,,,,,,,,,,,,,,,,,,,,,,,,,,,63,2.1857,1,0,33,33,7,1,7,×,9,7 × 9,congruent,smallerFirst,1,2,63,,,,,,,,
,,,,,,,,,,,,,,,797,2022-01-17_21h36.34.244,multiplicationStroop,2021.2.3,Win32,59.53089654,,,,,,,,,,,,,,,,,,,,,,,,,,,,,,,,,25,2.427,1,0,34,34,31,1,5,×,5,5 × 5,neutral,tie,1,2,25,,,,,,,,
,,,,,,,,,,,,,,,797,2022-01-17_21h36.34.244,multiplicationStroop,2021.2.3,Win32,59.53089654,,,,,,,,,,,,,,,,,,,,,,,,,,,,,,,,,16,1.7535,1,0,35,35,30,1,4,×,4,4 × 4,neutral,tie,1,2,16,,,,,,,,
,,,,,,,,,,,,,,,797,2022-01-17_21h36.34.244,multiplicationStroop,2021.2.3,Win32,59.53089654,,,,,,,,,,,,,,,,,,,,,,,,,,,,,,,,,,,,,,,,,,,,,,,,,,0,2,2,3,1,stimulusFile/mult_blk4_congruent.xlsx,,
,,,,,,,,,,,,,,,797,2022-01-17_21h36.34.244,multiplicationStroop,2021.2.3,Win32,59.53089654,,,,,,,,,,,,,,,,,,,,,,,,,,,,,,,space,3.2691,54,3.5268,0,0,0,0,20,1,7,×,6,7 × 6,neutral,largerFirst,1.5,1.5,42,,,,,,,,
,,,,,,,,,,,,,,,797,2022-01-17_21h36.34.244,multiplicationStroop,2021.2.3,Win32,59.53089654,,,,,,,,,,,,,,,,,,,,,,,,,,,,,,,,,16,2.807,1,0,1,1,27,1,8,×,2,8 × 2,neutral,largerFirst,1.5,1.5,16,,,,,,,,
,,,,,,,,,,,,,,,797,2022-01-17_21h36.34.244,multiplicationStroop,2021.2.3,Win32,59.53089654,,,,,,,,,,,,,,,,,,,,,,,,,,,,,,,,,81,2.4102,1,0,2,2,35,1,9,×,9,9 × 9,neutral,tie,1.5,1.5,81,,,,,,,,
,,,,,,,,,,,,,,,797,2022-01-17_21h36.34.244,multiplicationStroop,2021.2.3,Win32,59.53089654,,,,,,,,,,,,,,,,,,,,,,,,,,,,,,,,,45,1.9655,1,0,3,3,24,1,9,×,5,9 × 5,neutral,largerFirst,1.5,1.5,45,,,,,,,,
,,,,,,,,,,,,,,,797,2022-01-17_21h36.34.244,multiplicationStroop,2021.2.3,Win32,59.53089654,,,,,,,,,,,,,,,,,,,,,,,,,,,,,,,,,8,2.0486,1,0,4,4,17,1,4,×,2,4 × 2,neutral,largerFirst,1.5,1.5,8,,,,,,,,
,,,,,,,,,,,,,,,797,2022-01-17_21h36.34.244,multiplicationStroop,2021.2.3,Win32,59.53089654,,,,,,,,,,,,,,,,,,,,,,,,,,,,,,,,,48,1.9818,1,0,5,5,1,1,6,×,8,6 × 8,neutral,smallerFirst,1.5,1.5,48,,,,,,,,
,,,,,,,,,,,,,,,797,2022-01-17_21h36.34.244,multiplicationStroop,2021.2.3,Win32,59.53089654,,,,,,,,,,,,,,,,,,,,,,,,,,,,,,,,,16,1.6822,1,0,6,6,30,1,4,×,4,4 × 4,neutral,tie,1.5,1.5,16,,,,,,,,
,,,,,,,,,,,,,,,797,2022-01-17_21h36.34.244,multiplicationStroop,2021.2.3,Win32,59.53089654,,,,,,,,,,,,,,,,,,,,,,,,,,,,,,,,,18,3.1685,1,0,7,7,14,1,6,×,3,6 × 3,neutral,largerFirst,1.5,1.5,18,,,,,,,,
,,,,,,,,,,,,,,,797,2022-01-17_21h36.34.244,multiplicationStroop,2021.2.3,Win32,59.53089654,,,,,,,,,,,,,,,,,,,,,,,,,,,,,,,,,36,1.8744,1,0,8,8,13,1,4,×,9,4 × 9,neutral,smallerFirst,1.5,1.5,36,,,,,,,,
,,,,,,,,,,,,,,,797,2022-01-17_21h36.34.244,multiplicationStroop,2021.2.3,Win32,59.53089654,,,,,,,,,,,,,,,,,,,,,,,,,,,,,,,,,64,2.5274,1,0,9,9,34,1,8,×,8,8 × 8,neutral,tie,1.5,1.5,64,,,,,,,,
,,,,,,,,,,,,,,,797,2022-01-17_21h36.34.244,multiplicationStroop,2021.2.3,Win32,59.53089654,,,,,,,,,,,,,,,,,,,,,,,,,,,,,,,,,12,2.1609,1,0,10,10,7,1,3,×,4,3 × 4,neutral,smallerFirst,1.5,1.5,12,,,,,,,,
,,,,,,,,,,,,,,,797,2022-01-17_21h36.34.244,multiplicationStroop,2021.2.3,Win32,59.53089654,,,,,,,,,,,,,,,,,,,,,,,,,,,,,,,,,25,2.2435,1,0,11,11,31,1,5,×,5,5 × 5,neutral,tie,1.5,1.5,25,,,,,,,,
,,,,,,,,,,,,,,,797,2022-01-17_21h36.34.244,multiplicationStroop,2021.2.3,Win32,59.53089654,,,,,,,,,,,,,,,,,,,,,,,,,,,,,,,,,54,2.0193,1,0,12,12,21,1,9,×,6,9 × 6,neutral,largerFirst,1.5,1.5,54,,,,,,,,
,,,,,,,,,,,,,,,797,2022-01-17_21h36.34.244,multiplicationStroop,2021.2.3,Win32,59.53089654,,,,,,,,,,,,,,,,,,,,,,,,,,,,,,,,,40,2.0947,1,0,13,13,10,1,5,×,8,5 × 8,neutral,smallerFirst,1.5,1.5,40,,,,,,,,
,,,,,,,,,,,,,,,797,2022-01-17_21h36.34.244,multiplicationStroop,2021.2.3,Win32,59.53089654,,,,,,,,,,,,,,,,,,,,,,,,,,,,,,,,,35,1.9027,1,0,14,14,15,1,7,×,5,7 × 5,neutral,largerFirst,1.5,1.5,35,,,,,,,,
,,,,,,,,,,,,,,,797,2022-01-17_21h36.34.244,multiplicationStroop,2021.2.3,Win32,59.53089654,,,,,,,,,,,,,,,,,,,,,,,,,,,,,,,,,20,1.9651,1,0,15,15,6,1,4,×,5,4 × 5,neutral,smallerFirst,1.5,1.5,20,,,,,,,,
,,,,,,,,,,,,,,,797,2022-01-17_21h36.34.244,multiplicationStroop,2021.2.3,Win32,59.53089654,,,,,,,,,,,,,,,,,,,,,,,,,,,,,,,,,14,1.9281,1,0,16,16,2,1,2,×,7,2 × 7,neutral,smallerFirst,1.5,1.5,14,,,,,,,,
,,,,,,,,,,,,,,,797,2022-01-17_21h36.34.244,multiplicationStroop,2021.2.3,Win32,59.53089654,,,,,,,,,,,,,,,,,,,,,,,,,,,,,,,,,15,1.6818,1,0,17,17,19,1,5,×,3,5 × 3,neutral,largerFirst,1.5,1.5,15,,,,,,,,
,,,,,,,,,,,,,,,797,2022-01-17_21h36.34.244,multiplicationStroop,2021.2.3,Win32,59.53089654,,,,,,,,,,,,,,,,,,,,,,,,,,,,,,,,,49,1.9649,1,0,18,18,33,1,7,×,7,7 × 7,neutral,tie,1.5,1.5,49,,,,,,,,
,,,,,,,,,,,,,,,797,2022-01-17_21h36.34.244,multiplicationStroop,2021.2.3,Win32,59.53089654,,,,,,,,,,,,,,,,,,,,,,,,,,,,,,,,,63,2.3526,1,0,19,19,26,1,9,×,7,9 × 7,neutral,largerFirst,1.5,1.5,63,,,,,,,,
,,,,,,,,,,,,,,,797,2022-01-17_21h36.34.244,multiplicationStroop,2021.2.3,Win32,59.53089654,,,,,,,,,,,,,,,,,,,,,,,,,,,,,,,,,24,1.8444,1,0,20,20,16,1,6,×,4,6 × 4,neutral,largerFirst,1.5,1.5,24,,,,,,,,
,,,,,,,,,,,,,,,797,2022-01-17_21h36.34.244,multiplicationStroop,2021.2.3,Win32,59.53089654,,,,,,,,,,,,,,,,,,,,,,,,,,,,,,,,,72,3.3853,1,0,21,21,25,1,9,×,8,9 × 8,neutral,largerFirst,1.5,1.5,72,,,,,,,,
,,,,,,,,,,,,,,,797,2022-01-17_21h36.34.244,multiplicationStroop,2021.2.3,Win32,59.53089654,,,,,,,,,,,,,,,,,,,,,,,,,,,,,,,,,28,3.0095,1,0,22,22,3,1,4,×,7,4 × 7,neutral,smallerFirst,1.5,1.5,28,,,,,,,,
,,,,,,,,,,,,,,,797,2022-01-17_21h36.34.244,multiplicationStroop,2021.2.3,Win32,59.53089654,,,,,,,,,,,,,,,,,,,,,,,,,,,,,,,,,6,1.6922,1,0,23,23,12,1,2,×,3,2 × 3,neutral,smallerFirst,1.5,1.5,6,,,,,,,,
,,,,,,,,,,,,,,,797,2022-01-17_21h36.34.244,multiplicationStroop,2021.2.3,Win32,59.53089654,,,,,,,,,,,,,,,,,,,,,,,,,,,,,,,,,9,1.6147,1,0,24,24,29,1,3,×,3,3 × 3,neutral,tie,1.5,1.5,9,,,,,,,,
,,,,,,,,,,,,,,,797,2022-01-17_21h36.34.244,multiplicationStroop,2021.2.3,Win32,59.53089654,,,,,,,,,,,,,,,,,,,,,,,,,,,,,,,,,24,2.0467,1,0,25,25,8,1,3,×,8,3 × 8,neutral,smallerFirst,1.5,1.5,24,,,,,,,,
,,,,,,,,,,,,,,,797,2022-01-17_21h36.34.244,multiplicationStroop,2021.2.3,Win32,59.53089654,,,,,,,,,,,,,,,,,,,,,,,,,,,,,,,,,36,1.7974,1,0,26,26,32,1,6,×,6,6 × 6,neutral,tie,1.5,1.5,36,,,,,,,,
,,,,,,,,,,,,,,,797,2022-01-17_21h36.34.244,multiplicationStroop,2021.2.3,Win32,59.53089654,,,,,,,,,,,,,,,,,,,,,,,,,,,,,,,,,18,1.7989,1,0,27,27,4,1,2,×,9,2 × 9,neutral,smallerFirst,1.5,1.5,18,,,,,,,,
,,,,,,,,,,,,,,,797,2022-01-17_21h36.34.244,multiplicationStroop,2021.2.3,Win32,59.53089654,,,,,,,,,,,,,,,,,,,,,,,,,,,,,,,,,12,1.4858,1,0,28,28,11,1,2,×,6,2 × 6,neutral,smallerFirst,1.5,1.5,12,,,,,,,,
,,,,,,,,,,,,,,,797,2022-01-17_21h36.34.244,multiplicationStroop,2021.2.3,Win32,59.53089654,,,,,,,,,,,,,,,,,,,,,,,,,,,,,,,,,4,1.5159,1,0,29,29,28,1,2,×,2,2 × 2,neutral,tie,1.5,1.5,4,,,,,,,,
,,,,,,,,,,,,,,,797,2022-01-17_21h36.34.244,multiplicationStroop,2021.2.3,Win32,59.53089654,,,,,,,,,,,,,,,,,,,,,,,,,,,,,,,,,10,1.6611,1,0,30,30,18,1,5,×,2,5 × 2,neutral,largerFirst,1.5,1.5,10,,,,,,,,
,,,,,,,,,,,,,,,797,2022-01-17_21h36.34.244,multiplicationStroop,2021.2.3,Win32,59.53089654,,,,,,,,,,,,,,,,,,,,,,,,,,,,,,,,,30,2.398,1,0,31,31,5,1,5,×,6,5 × 6,neutral,smallerFirst,1.5,1.5,30,,,,,,,,
,,,,,,,,,,,,,,,797,2022-01-17_21h36.34.244,multiplicationStroop,2021.2.3,Win32,59.53089654,,,,,,,,,,,,,,,,,,,,,,,,,,,,,,,,,27,2.6645,1,0,32,32,0,1,3,×,9,3 × 9,neutral,smallerFirst,1.5,1.5,27,,,,,,,,
,,,,,,,,,,,,,,,797,2022-01-17_21h36.34.244,multiplicationStroop,2021.2.3,Win32,59.53089654,,,,,,,,,,,,,,,,,,,,,,,,,,,,,,,,,21,1.7686,1,0,33,33,22,1,7,×,3,7 × 3,neutral,largerFirst,1.5,1.5,21,,,,,,,,
,,,,,,,,,,,,,,,797,2022-01-17_21h36.34.244,multiplicationStroop,2021.2.3,Win32,59.53089654,,,,,,,,,,,,,,,,,,,,,,,,,,,,,,,,,56,1.9783,1,0,34,34,23,1,8,×,7,8 × 7,neutral,largerFirst,1.5,1.5,56,,,,,,,,
,,,,,,,,,,,,,,,797,2022-01-17_21h36.34.244,multiplicationStroop,2021.2.3,Win32,59.53089654,,,,,,,,,,,,,,,,,,,,,,,,,,,,,,,,,32,2.7647,1,0,35,35,9,1,4,×,8,4 × 8,neutral,smallerFirst,1.5,1.5,32,,,,,,,,
,,,,,,,,,,,,,,,797,2022-01-17_21h36.34.244,multiplicationStroop,2021.2.3,Win32,59.53089654,,,,,,,,,,,,,,,,,,,,,,,,,,,,,,,,,,,,,,,,,,,,,,,,,,0,3,3,0,1,stimulusFile/mult_blk1.xlsx,,
,,,,,,,,,,,,,,,797,2022-01-17_21h36.34.244,multiplicationStroop,2021.2.3,Win32,59.53089654,,,,,,,,,,,,,,,,,,,,,,,,,,,,,,,space,1.6742,12,1.5293,1,0,0,0,19,1,4,×,3,4 × 3,incongruent,largerFirst,1,2,12,,,,,,,,
,,,,,,,,,,,,,,,797,2022-01-17_21h36.34.244,multiplicationStroop,2021.2.3,Win32,59.53089654,,,,,,,,,,,,,,,,,,,,,,,,,,,,,,,,,16,2.1316,1,0,1,1,30,1,4,×,4,4 × 4,neutral,tie,2,1,16,,,,,,,,
,,,,,,,,,,,,,,,797,2022-01-17_21h36.34.244,multiplicationStroop,2021.2.3,Win32,59.53089654,,,,,,,,,,,,,,,,,,,,,,,,,,,,,,,,,63,2.1653,1,0,2,2,17,1,9,×,7,9 × 7,incongruent,largerFirst,1,2,63,,,,,,,,
,,,,,,,,,,,,,,,797,2022-01-17_21h36.34.244,multiplicationStroop,2021.2.3,Win32,59.53089654,,,,,,,,,,,,,,,,,,,,,,,,,,,,,,,,,18,1.7482,1,0,3,3,22,1,6,×,3,6 × 3,incongruent,largerFirst,1,2,18,,,,,,,,
,,,,,,,,,,,,,,,797,2022-01-17_21h36.34.244,multiplicationStroop,2021.2.3,Win32,59.53089654,,,,,,,,,,,,,,,,,,,,,,,,,,,,,,,,,24,1.6994,1,0,4,4,23,1,8,×,3,8 × 3,incongruent,largerFirst,1,2,24,,,,,,,,
,,,,,,,,,,,,,,,797,2022-01-17_21h36.34.244,multiplicationStroop,2021.2.3,Win32,59.53089654,,,,,,,,,,,,,,,,,,,,,,,,,,,,,,,,,35,2.0148,1,0,5,5,26,1,7,×,5,7 × 5,incongruent,largerFirst,1,2,35,,,,,,,,
,,,,,,,,,,,,,,,797,2022-01-17_21h36.34.244,multiplicationStroop,2021.2.3,Win32,59.53089654,,,,,,,,,,,,,,,,,,,,,,,,,,,,,,,,,25,1.6856,1,0,6,6,31,1,5,×,5,5 × 5,neutral,tie,2,1,25,,,,,,,,
,,,,,,,,,,,,,,,797,2022-01-17_21h36.34.244,multiplicationStroop,2021.2.3,Win32,59.53089654,,,,,,,,,,,,,,,,,,,,,,,,,,,,,,,,,20,1.9655,1,0,7,7,13,1,4,×,5,4 × 5,incongruent,smallerFirst,2,1,20,,,,,,,,
,,,,,,,,,,,,,,,797,2022-01-17_21h36.34.244,multiplicationStroop,2021.2.3,Win32,59.53089654,,,,,,,,,,,,,,,,,,,,,,,,,,,,,,,,,8,1.9991,1,0,8,8,10,1,2,×,4,2 × 4,incongruent,smallerFirst,2,1,8,,,,,,,,
,,,,,,,,,,,,,,,797,2022-01-17_21h36.34.244,multiplicationStroop,2021.2.3,Win32,59.53089654,,,,,,,,,,,,,,,,,,,,,,,,,,,,,,,,,27,1.7448,1,0,9,9,4,1,3,×,9,3 × 9,incongruent,smallerFirst,2,1,27,,,,,,,,
,,,,,,,,,,,,,,,797,2022-01-17_21h36.34.244,multiplicationStroop,2021.2.3,Win32,59.53089654,,,,,,,,,,,,,,,,,,,,,,,,,,,,,,,,,56,1.9692,1,0,10,10,0,1,7,×,8,7 × 8,incongruent,smallerFirst,2,1,56,,,,,,,,
,,,,,,,,,,,,,,,797,2022-01-17_21h36.34.244,multiplicationStroop,2021.2.3,Win32,59.53089654,,,,,,,,,,,,,,,,,,,,,,,,,,,,,,,,,30,1.8319,1,0,11,11,11,1,5,×,6,5 × 6,incongruent,smallerFirst,2,1,30,,,,,,,,
,,,,,,,,,,,,,,,797,2022-01-17_21h36.34.244,multiplicationStroop,2021.2.3,Win32,59.53089654,,,,,,,,,,,,,,,,,,,,,,,,,,,,,,,,,81,2.382,1,0,12,12,35,1,9,×,9,9 × 9,neutral,tie,2,1,81,,,,,,,,
,,,,,,,,,,,,,,,797,2022-01-17_21h36.34.244,multiplicationStroop,2021.2.3,Win32,59.53089654,,,,,,,,,,,,,,,,,,,,,,,,,,,,,,,,,54,1.911,1,0,13,13,20,1,9,×,6,9 × 6,incongruent,largerFirst,1,2,54,,,,,,,,
,,,,,,,,,,,,,,,797,2022-01-17_21h36.34.244,multiplicationStroop,2021.2.3,Win32,59.53089654,,,,,,,,,,,,,,,,,,,,,,,,,,,,,,,,,72,2.4816,1,0,14,14,14,1,9,×,8,9 × 8,incongruent,largerFirst,1,2,72,,,,,,,,
,,,,,,,,,,,,,,,797,2022-01-17_21h36.34.244,multiplicationStroop,2021.2.3,Win32,59.53089654,,,,,,,,,,,,,,,,,,,,,,,,,,,,,,,,,14,1.819,1,0,15,15,18,1,7,×,2,7 × 2,incongruent,largerFirst,1,2,14,,,,,,,,
,,,,,,,,,,,,,,,797,2022-01-17_21h36.34.244,multiplicationStroop,2021.2.3,Win32,59.53089654,,,,,,,,,,,,,,,,,,,,,,,,,,,,,,,,,32,1.6945,1,0,16,16,21,1,8,×,4,8 × 4,incongruent,largerFirst,1,2,32,,,,,,,,
,,,,,,,,,,,,,,,797,2022-01-17_21h36.34.244,multiplicationStroop,2021.2.3,Win32,59.53089654,,,,,,,,,,,,,,,,,,,,,,,,,,,,,,,,,4,1.6153,1,0,17,17,28,1,2,×,2,2 × 2,neutral,tie,2,1,4,,,,,,,,
,,,,,,,,,,,,,,,797,2022-01-17_21h36.34.244,multiplicationStroop,2021.2.3,Win32,59.53089654,,,,,,,,,,,,,,,,,,,,,,,,,,,,,,,,,18,1.8986,1,0,18,18,16,1,9,×,2,9 × 2,incongruent,largerFirst,1,2,18,,,,,,,,
,,,,,,,,,,,,,,,797,2022-01-17_21h36.34.244,multiplicationStroop,2021.2.3,Win32,59.53089654,,,,,,,,,,,,,,,,,,,,,,,,,,,,,,,,,15,1.7985,1,0,19,19,24,1,5,×,3,5 × 3,incongruent,largerFirst,1,2,15,,,,,,,,
,,,,,,,,,,,,,,,797,2022-01-17_21h36.34.244,multiplicationStroop,2021.2.3,Win32,59.53089654,,,,,,,,,,,,,,,,,,,,,,,,,,,,,,,,,49,1.8357,1,0,20,20,33,1,7,×,7,7 × 7,neutral,tie,2,1,49,,,,,,,,
,,,,,,,,,,,,,,,797,2022-01-17_21h36.34.244,multiplicationStroop,2021.2.3,Win32,59.53089654,,,,,,,,,,,,,,,,,,,,,,,,,,,,,,,,,16,1.8657,1,0,21,21,9,1,2,×,8,2 × 8,incongruent,smallerFirst,2,1,16,,,,,,,,
,,,,,,,,,,,,,,,797,2022-01-17_21h36.34.244,multiplicationStroop,2021.2.3,Win32,59.53089654,,,,,,,,,,,,,,,,,,,,,,,,,,,,,,,,,36,1.8278,1,0,22,22,1,1,4,×,9,4 × 9,incongruent,smallerFirst,2,1,36,,,,,,,,
,,,,,,,,,,,,,,,797,2022-01-17_21h36.34.244,multiplicationStroop,2021.2.3,Win32,59.53089654,,,,,,,,,,,,,,,,,,,,,,,,,,,,,,,,,21,1.5482,1,0,23,23,12,1,3,×,7,3 × 7,incongruent,smallerFirst,2,1,21,,,,,,,,
,,,,,,,,,,,,,,,797,2022-01-17_21h36.34.244,multiplicationStroop,2021.2.3,Win32,59.53089654,,,,,,,,,,,,,,,,,,,,,,,,,,,,,,,,,24,1.6975,1,0,24,24,6,1,4,×,6,4 × 6,incongruent,smallerFirst,2,1,24,,,,,,,,
,,,,,,,,,,,,,,,797,2022-01-17_21h36.34.244,multiplicationStroop,2021.2.3,Win32,59.53089654,,,,,,,,,,,,,,,,,,,,,,,,,,,,,,,,,45,1.9814,1,0,25,25,8,1,5,×,9,5 × 9,incongruent,smallerFirst,2,1,45,,,,,,,,
,,,,,,,,,,,,,,,797,2022-01-17_21h36.34.244,multiplicationStroop,2021.2.3,Win32,59.53089654,,,,,,,,,,,,,,,,,,,,,,,,,,,,,,,,,36,1.9154,1,0,26,26,32,1,6,×,6,6 × 6,neutral,tie,2,1,36,,,,,,,,
,,,,,,,,,,,,,,,797,2022-01-17_21h36.34.244,multiplicationStroop,2021.2.3,Win32,59.53089654,,,,,,,,,,,,,,,,,,,,,,,,,,,,,,,,,40,1.9318,1,0,27,27,27,1,8,×,5,8 × 5,incongruent,largerFirst,1,2,40,,,,,,,,
,,,,,,,,,,,,,,,797,2022-01-17_21h36.34.244,multiplicationStroop,2021.2.3,Win32,59.53089654,,,,,,,,,,,,,,,,,,,,,,,,,,,,,,,,,9,1.9331,1,0,28,28,29,1,3,×,3,3 × 3,neutral,tie,2,1,9,,,,,,,,
,,,,,,,,,,,,,,,797,2022-01-17_21h36.34.244,multiplicationStroop,2021.2.3,Win32,59.53089654,,,,,,,,,,,,,,,,,,,,,,,,,,,,,,,,,10,1.8136,1,0,29,29,7,1,2,×,5,2 × 5,incongruent,smallerFirst,2,1,10,,,,,,,,
,,,,,,,,,,,,,,,797,2022-01-17_21h36.34.244,multiplicationStroop,2021.2.3,Win32,59.53089654,,,,,,,,,,,,,,,,,,,,,,,,,,,,,,,,,64,2.2487,1,0,30,30,34,1,8,×,8,8 × 8,neutral,tie,2,1,64,,,,,,,,
,,,,,,,,,,,,,,,797,2022-01-17_21h36.34.244,multiplicationStroop,2021.2.3,Win32,59.53089654,,,,,,,,,,,,,,,,,,,,,,,,,,,,,,,,,28,2.7314,1,0,31,31,2,1,4,×,7,4 × 7,incongruent,smallerFirst,2,1,28,,,,,,,,
,,,,,,,,,,,,,,,797,2022-01-17_21h36.34.244,multiplicationStroop,2021.2.3,Win32,59.53089654,,,,,,,,,,,,,,,,,,,,,,,,,,,,,,,,,42,5.4511,1,0,32,32,3,1,6,×,7,6 × 7,incongruent,smallerFirst,2,1,42,,,,,,,,
,,,,,,,,,,,,,,,797,2022-01-17_21h36.34.244,multiplicationStroop,2021.2.3,Win32,59.53089654,,,,,,,,,,,,,,,,,,,,,,,,,,,,,,,,,12,1.6377,1,0,33,33,5,1,2,×,6,2 × 6,incongruent,smallerFirst,2,1,12,,,,,,,,
,,,,,,,,,,,,,,,797,2022-01-17_21h36.34.244,multiplicationStroop,2021.2.3,Win32,59.53089654,,,,,,,,,,,,,,,,,,,,,,,,,,,,,,,,,6,1.6701,1,0,34,34,25,1,3,×,2,3 × 2,incongruent,largerFirst,1,2,6,,,,,,,,
,,,,,,,,,,,,,,,797,2022-01-17_21h36.34.244,multiplicationStroop,2021.2.3,Win32,59.53089654,,,,,,,,,,,,,,,,,,,,,,,,,,,,,,,,,48,2.0648,1,0,35,35,15,1,8,×,6,8 × 6,incongruent,largerFirst,1,2,48,,,,,,,,
,,,,,,,,,,,,,,,797,2022-01-17_21h36.34.244,multiplicationStroop,2021.2.3,Win32,59.53089654,,,,,,,,,,,,,,,,,,,,,,,,,,,,,,,,,,,,,,,,,,,,,,,,,,0,4,4,4,1,stimulusFile/mult_blk5_INcongruent.xlsx,,
,,,,,,,,,,,,,,,797,2022-01-17_21h36.34.244,multiplicationStroop,2021.2.3,Win32,59.53089654,,,,,,,,,,,,,,,,,,,,,,,,,,,,,,,space,1.0008,27,2.2393,1,0,0,0,18,1,9,×,3,9 × 3,incongruent,largerFirst,1,2,27,,,,,,,,
,,,,,,,,,,,,,,,797,2022-01-17_21h36.34.244,multiplicationStroop,2021.2.3,Win32,59.53089654,,,,,,,,,,,,,,,,,,,,,,,,,,,,,,,,,28,2.3813,1,0,1,1,16,1,7,×,4,7 × 4,incongruent,largerFirst,1,2,28,,,,,,,,
,,,,,,,,,,,,,,,797,2022-01-17_21h36.34.244,multiplicationStroop,2021.2.3,Win32,59.53089654,,,,,,,,,,,,,,,,,,,,,,,,,,,,,,,,,18,1.8687,1,0,2,2,2,1,2,×,9,2 × 9,incongruent,smallerFirst,2,1,18,,,,,,,,
,,,,,,,,,,,,,,,797,2022-01-17_21h36.34.244,multiplicationStroop,2021.2.3,Win32,59.53089654,,,,,,,,,,,,,,,,,,,,,,,,,,,,,,,,,16,1.7449,1,0,3,3,30,1,4,×,4,4 × 4,incongruent,tie,1,2,16,,,,,,,,
,,,,,,,,,,,,,,,797,2022-01-17_21h36.34.244,multiplicationStroop,2021.2.3,Win32,59.53089654,,,,,,,,,,,,,,,,,,,,,,,,,,,,,,,,,20,2.0317,1,0,4,4,27,1,5,×,4,5 × 4,incongruent,largerFirst,1,2,20,,,,,,,,
,,,,,,,,,,,,,,,797,2022-01-17_21h36.34.244,multiplicationStroop,2021.2.3,Win32,59.53089654,,,,,,,,,,,,,,,,,,,,,,,,,,,,,,,,,24,1.7319,1,0,5,5,9,1,3,×,8,3 × 8,incongruent,smallerFirst,2,1,24,,,,,,,,
,,,,,,,,,,,,,,,797,2022-01-17_21h36.34.244,multiplicationStroop,2021.2.3,Win32,59.53089654,,,,,,,,,,,,,,,,,,,,,,,,,,,,,,,,,15,1.7984,1,0,6,6,10,1,3,×,5,3 × 5,incongruent,smallerFirst,2,1,15,,,,,,,,
,,,,,,,,,,,,,,,797,2022-01-17_21h36.34.244,multiplicationStroop,2021.2.3,Win32,59.53089654,,,,,,,,,,,,,,,,,,,,,,,,,,,,,,,,,6,1.7816,1,0,7,7,11,1,2,×,3,2 × 3,incongruent,smallerFirst,2,1,6,,,,,,,,
,,,,,,,,,,,,,,,797,2022-01-17_21h36.34.244,multiplicationStroop,2021.2.3,Win32,59.53089654,,,,,,,,,,,,,,,,,,,,,,,,,,,,,,,,,8,2.1649,1,0,8,8,24,1,4,×,2,4 × 2,incongruent,largerFirst,1,2,8,,,,,,,,
,,,,,,,,,,,,,,,797,2022-01-17_21h36.34.244,multiplicationStroop,2021.2.3,Win32,59.53089654,,,,,,,,,,,,,,,,,,,,,,,,,,,,,,,,,4,1.515,1,0,9,9,28,1,2,×,2,2 × 2,incongruent,tie,1,2,4,,,,,,,,
,,,,,,,,,,,,,,,797,2022-01-17_21h36.34.244,multiplicationStroop,2021.2.3,Win32,59.53089654,,,,,,,,,,,,,,,,,,,,,,,,,,,,,,,,,49,2.3185,1,0,10,10,33,1,7,×,7,7 × 7,incongruent,tie,1,2,49,,,,,,,,
,,,,,,,,,,,,,,,797,2022-01-17_21h36.34.244,multiplicationStroop,2021.2.3,Win32,59.53089654,,,,,,,,,,,,,,,,,,,,,,,,,,,,,,,,,21,3.2105,1,0,11,11,26,1,7,×,3,7 × 3,incongruent,largerFirst,1,2,21,,,,,,,,
,,,,,,,,,,,,,,,797,2022-01-17_21h36.34.244,multiplicationStroop,2021.2.3,Win32,59.53089654,,,,,,,,,,,,,,,,,,,,,,,,,,,,,,,,,63,5.93,1,0,12,12,3,1,7,×,9,7 × 9,incongruent,smallerFirst,2,1,63,,,,,,,,
,,,,,,,,,,,,,,,797,2022-01-17_21h36.34.244,multiplicationStroop,2021.2.3,Win32,59.53089654,,,,,,,,,,,,,,,,,,,,,,,,,,,,,,,,,9,1.6564,1,0,13,13,29,1,3,×,3,3 × 3,incongruent,tie,1,2,9,,,,,,,,
,,,,,,,,,,,,,,,797,2022-01-17_21h36.34.244,multiplicationStroop,2021.2.3,Win32,59.53089654,,,,,,,,,,,,,,,,,,,,,,,,,,,,,,,,,12,1.4526,1,0,14,14,5,1,3,×,4,3 × 4,incongruent,smallerFirst,2,1,12,,,,,,,,
,,,,,,,,,,,,,,,797,2022-01-17_21h36.34.244,multiplicationStroop,2021.2.3,Win32,59.53089654,,,,,,,,,,,,,,,,,,,,,,,,,,,,,,,,,64,2.5117,1,0,15,15,34,1,8,×,8,8 × 8,incongruent,tie,1,2,64,,,,,,,,
,,,,,,,,,,,,,,,797,2022-01-17_21h36.34.244,multiplicationStroop,2021.2.3,Win32,59.53089654,,,,,,,,,,,,,,,,,,,,,,,,,,,,,,,,,14,2.1815,1,0,16,16,4,1,2,×,7,2 × 7,incongruent,smallerFirst,2,1,14,,,,,,,,
,,,,,,,,,,,,,,,797,2022-01-17_21h36.34.244,multiplicationStroop,2021.2.3,Win32,59.53089654,,,,,,,,,,,,,,,,,,,,,,,,,,,,,,,,,12,1.6981,1,0,17,17,19,1,6,×,2,6 × 2,incongruent,largerFirst,1,2,12,,,,,,,,
,,,,,,,,,,,,,,,797,2022-01-17_21h36.34.244,multiplicationStroop,2021.2.3,Win32,59.53089654,,,,,,,,,,,,,,,,,,,,,,,,,,,,,,,,,54,2.2983,1,0,18,18,6,1,6,×,9,6 × 9,incongruent,smallerFirst,2,1,54,,,,,,,,
,,,,,,,,,,,,,,,797,2022-01-17_21h36.34.244,multiplicationStroop,2021.2.3,Win32,59.53089654,,,,,,,,,,,,,,,,,,,,,,,,,,,,,,,,,42,2.715,1,0,19,19,17,1,7,×,6,7 × 6,incongruent,largerFirst,1,2,42,,,,,,,,
,,,,,,,,,,,,,,,797,2022-01-17_21h36.34.244,multiplicationStroop,2021.2.3,Win32,59.53089654,,,,,,,,,,,,,,,,,,,,,,,,,,,,,,,,,36,2.1595,1,0,20,20,15,1,9,×,4,9 × 4,incongruent,largerFirst,1,2,36,,,,,,,,
,,,,,,,,,,,,,,,797,2022-01-17_21h36.34.244,multiplicationStroop,2021.2.3,Win32,59.53089654,,,,,,,,,,,,,,,,,,,,,,,,,,,,,,,,,45,1.7114,1,0,21,21,22,1,9,×,5,9 × 5,incongruent,largerFirst,1,2,45,,,,,,,,
,,,,,,,,,,,,,,,797,2022-01-17_21h36.34.244,multiplicationStroop,2021.2.3,Win32,59.53089654,,,,,,,,,,,,,,,,,,,,,,,,,,,,,,,,,35,2.0483,1,0,22,22,12,1,5,×,7,5 × 7,incongruent,smallerFirst,2,1,35,,,,,,,,
,,,,,,,,,,,,,,,797,2022-01-17_21h36.34.244,multiplicationStroop,2021.2.3,Win32,59.53089654,,,,,,,,,,,,,,,,,,,,,,,,,,,,,,,,,48,2.2313,1,0,23,23,1,1,6,×,8,6 × 8,incongruent,smallerFirst,2,1,48,,,,,,,,
,,,,,,,,,,,,,,,797,2022-01-17_21h36.34.244,multiplicationStroop,2021.2.3,Win32,59.53089654,,,,,,,,,,,,,,,,,,,,,,,,,,,,,,,,,36,1.9817,1,0,24,24,32,1,6,×,6,6 × 6,incongruent,tie,1,2,36,,,,,,,,
,,,,,,,,,,,,,,,797,2022-01-17_21h36.34.244,multiplicationStroop,2021.2.3,Win32,59.53089654,,,,,,,,,,,,,,,,,,,,,,,,,,,,,,,,,24,2.1356,1,0,25,25,20,1,6,×,4,6 × 4,incongruent,largerFirst,1,2,24,,,,,,,,
,,,,,,,,,,,,,,,797,2022-01-17_21h36.34.244,multiplicationStroop,2021.2.3,Win32,59.53089654,,,,,,,,,,,,,,,,,,,,,,,,,,,,,,,,,10,1.9446,1,0,26,26,21,1,5,×,2,5 × 2,incongruent,largerFirst,1,2,10,,,,,,,,
,,,,,,,,,,,,,,,797,2022-01-17_21h36.34.244,multiplicationStroop,2021.2.3,Win32,59.53089654,,,,,,,,,,,,,,,,,,,,,,,,,,,,,,,,,72,2.7478,1,0,27,27,0,1,8,×,9,8 × 9,incongruent,smallerFirst,2,1,72,,,,,,,,
,,,,,,,,,,,,,,,797,2022-01-17_21h36.34.244,multiplicationStroop,2021.2.3,Win32,59.53089654,,,,,,,,,,,,,,,,,,,,,,,,,,,,,,,,,30,1.8858,1,0,28,28,25,1,6,×,5,6 × 5,incongruent,largerFirst,1,2,30,,,,,,,,
,,,,,,,,,,,,,,,797,2022-01-17_21h36.34.244,multiplicationStroop,2021.2.3,Win32,59.53089654,,,,,,,,,,,,,,,,,,,,,,,,,,,,,,,,,25,1.8111,1,0,29,29,31,1,5,×,5,5 × 5,incongruent,tie,1,2,25,,,,,,,,
,,,,,,,,,,,,,,,797,2022-01-17_21h36.34.244,multiplicationStroop,2021.2.3,Win32,59.53089654,,,,,,,,,,,,,,,,,,,,,,,,,,,,,,,,,18,1.9314,1,0,30,30,8,1,3,×,6,3 × 6,incongruent,smallerFirst,2,1,18,,,,,,,,
,,,,,,,,,,,,,,,797,2022-01-17_21h36.34.244,multiplicationStroop,2021.2.3,Win32,59.53089654,,,,,,,,,,,,,,,,,,,,,,,,,,,,,,,,,56,2.2185,1,0,31,31,14,1,8,×,7,8 × 7,incongruent,largerFirst,1,2,56,,,,,,,,
,,,,,,,,,,,,,,,797,2022-01-17_21h36.34.244,multiplicationStroop,2021.2.3,Win32,59.53089654,,,,,,,,,,,,,,,,,,,,,,,,,,,,,,,,,81,2.5941,1,0,32,32,35,1,9,×,9,9 × 9,incongruent,tie,1,2,81,,,,,,,,
,,,,,,,,,,,,,,,797,2022-01-17_21h36.34.244,multiplicationStroop,2021.2.3,Win32,59.53089654,,,,,,,,,,,,,,,,,,,,,,,,,,,,,,,,,32,1.7316,1,0,33,33,7,1,4,×,8,4 × 8,incongruent,smallerFirst,2,1,32,,,,,,,,
,,,,,,,,,,,,,,,797,2022-01-17_21h36.34.244,multiplicationStroop,2021.2.3,Win32,59.53089654,,,,,,,,,,,,,,,,,,,,,,,,,,,,,,,,,40,2.1816,1,0,34,34,13,1,5,×,8,5 × 8,incongruent,smallerFirst,2,1,40,,,,,,,,
,,,,,,,,,,,,,,,797,2022-01-17_21h36.34.244,multiplicationStroop,2021.2.3,Win32,59.53089654,,,,,,,,,,,,,,,,,,,,,,,,,,,,,,,,,16,1.8868,1,0,35,35,23,1,8,×,2,8 × 2,incongruent,largerFirst,1,2,16,,,,,,,,
,,,,,,,,,,,,,,,797,2022-01-17_21h36.34.244,multiplicationStroop,2021.2.3,Win32,59.53089654,,,,,,,,,,,,,,,,,,,,,,,,,,,,,,,,,,,,,,,,,,,,,,,,,,0,5,5,5,1,stimulusFile/mult_blk6_INcongruent.xlsx,,
,,,,,,,,,,,,,,,797,2022-01-17_21h36.34.244,multiplicationStroop,2021.2.3,Win32,59.53089654,,,,,,,,,,,,,,,,,,,,,,,,,,,,,,,,,,,,,,,,,,,,,,,,,,,,,,,,space,6.3024