welcomeKey_resp.keys,welcomeKey_resp.rt,X Scale,Y Scale,rt_resp_4.keys,rt_resp_4.corr,rt_resp_4.rt,speedtest_2.thisRepN,speedtest_2.thisTrialN,speedtest_2.thisN,speedtest_2.thisIndex,speedtest_2.ran,numberSc,posX,positionLayout,participant,date,expName,psychopyVersion,OS,frameRate,ct_instrresp.keys,ct_instrresp.rt,key_resp_2.keys,key_resp_2.rt,ct_keyResp.keys,ct_keyResp.corr,ct_keyResp.rt,trials.thisRepN,trials.thisTrialN,trials.thisN,trials.thisIndex,trials.ran,leftNo,rightNo,displayProblem,numDistance,leftNo_size,rightNo_size,Dims,keyAnswer,TS_Loop.thisRepN,TS_Loop.thisTrialN,TS_Loop.thisN,TS_Loop.thisIndex,TS_Loop.ran,Condition,ActionInst,instrImage,mltptaskInst_resp.keys,mltptaskInst_resp.rt,continue_resp_2.keys,continue_resp_2.rt,multp_Answer,multi_RT,multiplyCorr,LoopingMultiply.thisRepN,LoopingMultiply.thisTrialN,LoopingMultiply.thisN,LoopingMultiply.thisIndex,LoopingMultiply.ran,factor1,multiplySign,factor2,multliplyProblem,physicalSize,orderOperand,sizeF1,sizeF2,mult_answer,trials_stroop.thisRepN,trials_stroop.thisTrialN,trials_stroop.thisN,trials_stroop.thisIndex,trials_stroop.ran,multiplicationFile,esckey_resp_2.keys,esckey_resp_2.rt
y,14.1276,37.2,37.4,right,1,0.818,0,0,0,10,1,3,200,right,8014,2022-02-16_13h01.04.272,multiplicationStroop,2021.2.3,Win32,49.92760497,,,,,,,,,,,,,,,,,,,,,,,,,,,,,,,,,,,,,,,,,,,,,,,,,,,,,,,,,
,,,,right,1,0.5893,0,1,1,8,1,1,200,right,8014,2022-02-16_13h01.04.272,multiplicationStroop,2021.2.3,Win32,49.92760497,,,,,,,,,,,,,,,,,,,,,,,,,,,,,,,,,,,,,,,,,,,,,,,,,,,,,,,,,
,,,,left,1,0.4016,0,2,2,5,1,7,-200,left,8014,2022-02-16_13h01.04.272,multiplicationStroop,2021.2.3,Win32,49.92760497,,,,,,,,,,,,,,,,,,,,,,,,,,,,,,,,,,,,,,,,,,,,,,,,,,,,,,,,,
,,,,right,1,0.3991,0,3,3,15,1,9,200,right,8014,2022-02-16_13h01.04.272,multiplicationStroop,2021.2.3,Win32,49.92760497,,,,,,,,,,,,,,,,,,,,,,,,,,,,,,,,,,,,,,,,,,,,,,,,,,,,,,,,,
,,,,left,1,0.3876,0,4,4,1,1,2,-200,left,8014,2022-02-16_13h01.04.272,multiplicationStroop,2021.2.3,Win32,49.92760497,,,,,,,,,,,,,,,,,,,,,,,,,,,,,,,,,,,,,,,,,,,,,,,,,,,,,,,,,
,,,,right,1,0.3595,0,5,5,12,1,6,200,right,8014,2022-02-16_13h01.04.272,multiplicationStroop,2021.2.3,Win32,49.92760497,,,,,,,,,,,,,,,,,,,,,,,,,,,,,,,,,,,,,,,,,,,,,,,,,,,,,,,,,
,,,,right,1,0.3634,0,6,6,13,1,7,200,right,8014,2022-02-16_13h01.04.272,multiplicationStroop,2021.2.3,Win32,49.92760497,,,,,,,,,,,,,,,,,,,,,,,,,,,,,,,,,,,,,,,,,,,,,,,,,,,,,,,,,
,,,,left,1,0.3298,0,7,7,7,1,9,-200,left,8014,2022-02-16_13h01.04.272,multiplicationStroop,2021.2.3,Win32,49.92760497,,,,,,,,,,,,,,,,,,,,,,,,,,,,,,,,,,,,,,,,,,,,,,,,,,,,,,,,,
,,,,left,1,0.3126,0,8,8,0,1,1,-200,left,8014,2022-02-16_13h01.04.272,multiplicationStroop,2021.2.3,Win32,49.92760497,,,,,,,,,,,,,,,,,,,,,,,,,,,,,,,,,,,,,,,,,,,,,,,,,,,,,,,,,
,,,,left,1,0.3196,0,9,9,6,1,8,-200,left,8014,2022-02-16_13h01.04.272,multiplicationStroop,2021.2.3,Win32,49.92760497,,,,,,,,,,,,,,,,,,,,,,,,,,,,,,,,,,,,,,,,,,,,,,,,,,,,,,,,,
,,,,right,1,0.3216,0,10,10,9,1,2,200,right,8014,2022-02-16_13h01.04.272,multiplicationStroop,2021.2.3,Win32,49.92760497,,,,,,,,,,,,,,,,,,,,,,,,,,,,,,,,,,,,,,,,,,,,,,,,,,,,,,,,,
,,,,right,1,0.3023,0,11,11,11,1,4,200,right,8014,2022-02-16_13h01.04.272,multiplicationStroop,2021.2.3,Win32,49.92760497,,,,,,,,,,,,,,,,,,,,,,,,,,,,,,,,,,,,,,,,,,,,,,,,,,,,,,,,,
,,,,left,1,0.3043,0,12,12,2,1,3,-200,left,8014,2022-02-16_13h01.04.272,multiplicationStroop,2021.2.3,Win32,49.92760497,,,,,,,,,,,,,,,,,,,,,,,,,,,,,,,,,,,,,,,,,,,,,,,,,,,,,,,,,
,,,,left,1,0.3073,0,13,13,3,1,4,-200,left,8014,2022-02-16_13h01.04.272,multiplicationStroop,2021.2.3,Win32,49.92760497,,,,,,,,,,,,,,,,,,,,,,,,,,,,,,,,,,,,,,,,,,,,,,,,,,,,,,,,,
,,,,left,1,0.2877,0,14,14,4,1,6,-200,left,8014,2022-02-16_13h01.04.272,multiplicationStroop,2021.2.3,Win32,49.92760497,,,,,,,,,,,,,,,,,,,,,,,,,,,,,,,,,,,,,,,,,,,,,,,,,,,,,,,,,
,,,,right,1,0.312,0,15,15,14,1,8,200,right,8014,2022-02-16_13h01.04.272,multiplicationStroop,2021.2.3,Win32,49.92760497,,,,,,,,,,,,,,,,,,,,,,,,,,,,,,,,,,,,,,,,,,,,,,,,,,,,,,,,,
,,,,left,1,0.3125,1,0,16,1,1,2,-200,left,8014,2022-02-16_13h01.04.272,multiplicationStroop,2021.2.3,Win32,49.92760497,,,,,,,,,,,,,,,,,,,,,,,,,,,,,,,,,,,,,,,,,,,,,,,,,,,,,,,,,
,,,,right,1,0.3199,1,1,17,15,1,9,200,right,8014,2022-02-16_13h01.04.272,multiplicationStroop,2021.2.3,Win32,49.92760497,,,,,,,,,,,,,,,,,,,,,,,,,,,,,,,,,,,,,,,,,,,,,,,,,,,,,,,,,
,,,,left,1,0.2977,1,2,18,5,1,7,-200,left,8014,2022-02-16_13h01.04.272,multiplicationStroop,2021.2.3,Win32,49.92760497,,,,,,,,,,,,,,,,,,,,,,,,,,,,,,,,,,,,,,,,,,,,,,,,,,,,,,,,,
,,,,right,1,0.3226,1,3,19,10,1,3,200,right,8014,2022-02-16_13h01.04.272,multiplicationStroop,2021.2.3,Win32,49.92760497,,,,,,,,,,,,,,,,,,,,,,,,,,,,,,,,,,,,,,,,,,,,,,,,,,,,,,,,,
,,,,left,1,0.2606,1,4,20,3,1,4,-200,left,8014,2022-02-16_13h01.04.272,multiplicationStroop,2021.2.3,Win32,49.92760497,,,,,,,,,,,,,,,,,,,,,,,,,,,,,,,,,,,,,,,,,,,,,,,,,,,,,,,,,
,,,,right,1,0.3261,1,5,21,12,1,6,200,right,8014,2022-02-16_13h01.04.272,multiplicationStroop,2021.2.3,Win32,49.92760497,,,,,,,,,,,,,,,,,,,,,,,,,,,,,,,,,,,,,,,,,,,,,,,,,,,,,,,,,
,,,,right,1,0.2852,1,6,22,9,1,2,200,right,8014,2022-02-16_13h01.04.272,multiplicationStroop,2021.2.3,Win32,49.92760497,,,,,,,,,,,,,,,,,,,,,,,,,,,,,,,,,,,,,,,,,,,,,,,,,,,,,,,,,
,,,,left,1,0.2855,1,7,23,2,1,3,-200,left,8014,2022-02-16_13h01.04.272,multiplicationStroop,2021.2.3,Win32,49.92760497,,,,,,,,,,,,,,,,,,,,,,,,,,,,,,,,,,,,,,,,,,,,,,,,,,,,,,,,,
,,,,left,1,0.308,1,8,24,6,1,8,-200,left,8014,2022-02-16_13h01.04.272,multiplicationStroop,2021.2.3,Win32,49.92760497,,,,,,,,,,,,,,,,,,,,,,,,,,,,,,,,,,,,,,,,,,,,,,,,,,,,,,,,,
,,,,right,1,0.2641,1,9,25,11,1,4,200,right,8014,2022-02-16_13h01.04.272,multiplicationStroop,2021.2.3,Win32,49.92760497,,,,,,,,,,,,,,,,,,,,,,,,,,,,,,,,,,,,,,,,,,,,,,,,,,,,,,,,,
,,,,right,1,0.2851,1,10,26,14,1,8,200,right,8014,2022-02-16_13h01.04.272,multiplicationStroop,2021.2.3,Win32,49.92760497,,,,,,,,,,,,,,,,,,,,,,,,,,,,,,,,,,,,,,,,,,,,,,,,,,,,,,,,,
,,,,left,1,0.2842,1,11,27,7,1,9,-200,left,8014,2022-02-16_13h01.04.272,multiplicationStroop,2021.2.3,Win32,49.92760497,,,,,,,,,,,,,,,,,,,,,,,,,,,,,,,,,,,,,,,,,,,,,,,,,,,,,,,,,
,,,,left,1,0.2835,1,12,28,0,1,1,-200,left,8014,2022-02-16_13h01.04.272,multiplicationStroop,2021.2.3,Win32,49.92760497,,,,,,,,,,,,,,,,,,,,,,,,,,,,,,,,,,,,,,,,,,,,,,,,,,,,,,,,,
,,,,left,1,0.2846,1,13,29,4,1,6,-200,left,8014,2022-02-16_13h01.04.272,multiplicationStroop,2021.2.3,Win32,49.92760497,,,,,,,,,,,,,,,,,,,,,,,,,,,,,,,,,,,,,,,,,,,,,,,,,,,,,,,,,
,,,,right,1,0.2855,1,14,30,13,1,7,200,right,8014,2022-02-16_13h01.04.272,multiplicationStroop,2021.2.3,Win32,49.92760497,,,,,,,,,,,,,,,,,,,,,,,,,,,,,,,,,,,,,,,,,,,,,,,,,,,,,,,,,
,,,,right,1,0.285,1,15,31,8,1,1,200,right,8014,2022-02-16_13h01.04.272,multiplicationStroop,2021.2.3,Win32,49.92760497,,,,,,,,,,,,,,,,,,,,,,,,,,,,,,,,,,,,,,,,,,,,,,,,,,,,,,,,,
,,,,left,1,0.3291,2,0,32,7,1,9,-200,left,8014,2022-02-16_13h01.04.272,multiplicationStroop,2021.2.3,Win32,49.92760497,,,,,,,,,,,,,,,,,,,,,,,,,,,,,,,,,,,,,,,,,,,,,,,,,,,,,,,,,
,,,,left,1,0.2895,2,1,33,5,1,7,-200,left,8014,2022-02-16_13h01.04.272,multiplicationStroop,2021.2.3,Win32,49.92760497,,,,,,,,,,,,,,,,,,,,,,,,,,,,,,,,,,,,,,,,,,,,,,,,,,,,,,,,,
,,,,left,1,0.2904,2,2,34,6,1,8,-200,left,8014,2022-02-16_13h01.04.272,multiplicationStroop,2021.2.3,Win32,49.92760497,,,,,,,,,,,,,,,,,,,,,,,,,,,,,,,,,,,,,,,,,,,,,,,,,,,,,,,,,
,,,,right,1,0.3104,2,3,35,13,1,7,200,right,8014,2022-02-16_13h01.04.272,multiplicationStroop,2021.2.3,Win32,49.92760497,,,,,,,,,,,,,,,,,,,,,,,,,,,,,,,,,,,,,,,,,,,,,,,,,,,,,,,,,
,,,,right,1,0.3208,2,4,36,11,1,4,200,right,8014,2022-02-16_13h01.04.272,multiplicationStroop,2021.2.3,Win32,49.92760497,,,,,,,,,,,,,,,,,,,,,,,,,,,,,,,,,,,,,,,,,,,,,,,,,,,,,,,,,
,,,,right,1,0.2528,2,5,37,10,1,3,200,right,8014,2022-02-16_13h01.04.272,multiplicationStroop,2021.2.3,Win32,49.92760497,,,,,,,,,,,,,,,,,,,,,,,,,,,,,,,,,,,,,,,,,,,,,,,,,,,,,,,,,
,,,,left,1,0.321,2,6,38,1,1,2,-200,left,8014,2022-02-16_13h01.04.272,multiplicationStroop,2021.2.3,Win32,49.92760497,,,,,,,,,,,,,,,,,,,,,,,,,,,,,,,,,,,,,,,,,,,,,,,,,,,,,,,,,
,,,,left,1,0.2804,2,7,39,2,1,3,-200,left,8014,2022-02-16_13h01.04.272,multiplicationStroop,2021.2.3,Win32,49.92760497,,,,,,,,,,,,,,,,,,,,,,,,,,,,,,,,,,,,,,,,,,,,,,,,,,,,,,,,,
,,,,left,1,0.2994,2,8,40,4,1,6,-200,left,8014,2022-02-16_13h01.04.272,multiplicationStroop,2021.2.3,Win32,49.92760497,,,,,,,,,,,,,,,,,,,,,,,,,,,,,,,,,,,,,,,,,,,,,,,,,,,,,,,,,
,,,,left,1,0.3012,2,9,41,0,1,1,-200,left,8014,2022-02-16_13h01.04.272,multiplicationStroop,2021.2.3,Win32,49.92760497,,,,,,,,,,,,,,,,,,,,,,,,,,,,,,,,,,,,,,,,,,,,,,,,,,,,,,,,,
,,,,right,1,0.2808,2,10,42,14,1,8,200,right,8014,2022-02-16_13h01.04.272,multiplicationStroop,2021.2.3,Win32,49.92760497,,,,,,,,,,,,,,,,,,,,,,,,,,,,,,,,,,,,,,,,,,,,,,,,,,,,,,,,,
,,,,right,1,0.2809,2,11,43,9,1,2,200,right,8014,2022-02-16_13h01.04.272,multiplicationStroop,2021.2.3,Win32,49.92760497,,,,,,,,,,,,,,,,,,,,,,,,,,,,,,,,,,,,,,,,,,,,,,,,,,,,,,,,,
,,,,right,1,0.2161,2,12,44,15,1,9,200,right,8014,2022-02-16_13h01.04.272,multiplicationStroop,2021.2.3,Win32,49.92760497,,,,,,,,,,,,,,,,,,,,,,,,,,,,,,,,,,,,,,,,,,,,,,,,,,,,,,,,,
,,,,right,1,0.2759,2,13,45,12,1,6,200,right,8014,2022-02-16_13h01.04.272,multiplicationStroop,2021.2.3,Win32,49.92760497,,,,,,,,,,,,,,,,,,,,,,,,,,,,,,,,,,,,,,,,,,,,,,,,,,,,,,,,,
,,,,left,1,0.3418,2,14,46,3,1,4,-200,left,8014,2022-02-16_13h01.04.272,multiplicationStroop,2021.2.3,Win32,49.92760497,,,,,,,,,,,,,,,,,,,,,,,,,,,,,,,,,,,,,,,,,,,,,,,,,,,,,,,,,
,,,,right,1,0.3032,2,15,47,8,1,1,200,right,8014,2022-02-16_13h01.04.272,multiplicationStroop,2021.2.3,Win32,49.92760497,,,,,,,,,,,,,,,,,,,,,,,,,,,,,,,,,,,,,,,,,,,,,,,,,,,,,,,,,
,,,,right,1,0.282,3,0,48,9,1,2,200,right,8014,2022-02-16_13h01.04.272,multiplicationStroop,2021.2.3,Win32,49.92760497,,,,,,,,,,,,,,,,,,,,,,,,,,,,,,,,,,,,,,,,,,,,,,,,,,,,,,,,,
,,,,right,0,0.1481,3,1,49,4,1,6,-200,left,8014,2022-02-16_13h01.04.272,multiplicationStroop,2021.2.3,Win32,49.92760497,,,,,,,,,,,,,,,,,,,,,,,,,,,,,,,,,,,,,,,,,,,,,,,,,,,,,,,,,
,,,,left,1,0.423,3,2,50,3,1,4,-200,left,8014,2022-02-16_13h01.04.272,multiplicationStroop,2021.2.3,Win32,49.92760497,,,,,,,,,,,,,,,,,,,,,,,,,,,,,,,,,,,,,,,,,,,,,,,,,,,,,,,,,
,,,,right,1,0.306,3,3,51,14,1,8,200,right,8014,2022-02-16_13h01.04.272,multiplicationStroop,2021.2.3,Win32,49.92760497,,,,,,,,,,,,,,,,,,,,,,,,,,,,,,,,,,,,,,,,,,,,,,,,,,,,,,,,,
,,,,left,1,0.2905,3,4,52,6,1,8,-200,left,8014,2022-02-16_13h01.04.272,multiplicationStroop,2021.2.3,Win32,49.92760497,,,,,,,,,,,,,,,,,,,,,,,,,,,,,,,,,,,,,,,,,,,,,,,,,,,,,,,,,
,,,,left,1,0.3067,3,5,53,5,1,7,-200,left,8014,2022-02-16_13h01.04.272,multiplicationStroop,2021.2.3,Win32,49.92760497,,,,,,,,,,,,,,,,,,,,,,,,,,,,,,,,,,,,,,,,,,,,,,,,,,,,,,,,,
,,,,left,1,0.2652,3,6,54,2,1,3,-200,left,8014,2022-02-16_13h01.04.272,multiplicationStroop,2021.2.3,Win32,49.92760497,,,,,,,,,,,,,,,,,,,,,,,,,,,,,,,,,,,,,,,,,,,,,,,,,,,,,,,,,
,,,,right,0,0.2858,3,7,55,7,1,9,-200,left,8014,2022-02-16_13h01.04.272,multiplicationStroop,2021.2.3,Win32,49.92760497,,,,,,,,,,,,,,,,,,,,,,,,,,,,,,,,,,,,,,,,,,,,,,,,,,,,,,,,,
,,,,right,1,0.3802,3,8,56,10,1,3,200,right,8014,2022-02-16_13h01.04.272,multiplicationStroop,2021.2.3,Win32,49.92760497,,,,,,,,,,,,,,,,,,,,,,,,,,,,,,,,,,,,,,,,,,,,,,,,,,,,,,,,,
,,,,right,1,0.2976,3,9,57,15,1,9,200,right,8014,2022-02-16_13h01.04.272,multiplicationStroop,2021.2.3,Win32,49.92760497,,,,,,,,,,,,,,,,,,,,,,,,,,,,,,,,,,,,,,,,,,,,,,,,,,,,,,,,,
,,,,right,1,0.3008,3,10,58,11,1,4,200,right,8014,2022-02-16_13h01.04.272,multiplicationStroop,2021.2.3,Win32,49.92760497,,,,,,,,,,,,,,,,,,,,,,,,,,,,,,,,,,,,,,,,,,,,,,,,,,,,,,,,,
,,,,right,1,0.2811,3,11,59,13,1,7,200,right,8014,2022-02-16_13h01.04.272,multiplicationStroop,2021.2.3,Win32,49.92760497,,,,,,,,,,,,,,,,,,,,,,,,,,,,,,,,,,,,,,,,,,,,,,,,,,,,,,,,,
,,,,right,1,0.257,3,12,60,8,1,1,200,right,8014,2022-02-16_13h01.04.272,multiplicationStroop,2021.2.3,Win32,49.92760497,,,,,,,,,,,,,,,,,,,,,,,,,,,,,,,,,,,,,,,,,,,,,,,,,,,,,,,,,
,,,,left,1,0.278,3,13,61,0,1,1,-200,left,8014,2022-02-16_13h01.04.272,multiplicationStroop,2021.2.3,Win32,49.92760497,,,,,,,,,,,,,,,,,,,,,,,,,,,,,,,,,,,,,,,,,,,,,,,,,,,,,,,,,
,,,,right,1,0.3015,3,14,62,12,1,6,200,right,8014,2022-02-16_13h01.04.272,multiplicationStroop,2021.2.3,Win32,49.92760497,,,,,,,,,,,,,,,,,,,,,,,,,,,,,,,,,,,,,,,,,,,,,,,,,,,,,,,,,
,,,,left,1,0.2809,3,15,63,1,1,2,-200,left,8014,2022-02-16_13h01.04.272,multiplicationStroop,2021.2.3,Win32,49.92760497,,,,,,,,,,,,,,,,,,,,,,,,,,,,,,,,,,,,,,,,,,,,,,,,,,,,,,,,,
,,,,,,,,,,,,,,,8014,2022-02-16_13h01.04.272,multiplicationStroop,2021.2.3,Win32,49.92760497,space,16.7838,space,9.2716,right,1,0.7805,0,0,0,51,1,8,9,8 | 9,1,1.6933,1.6933,neutral,right,,,,,,stimulusFile/magnitude.xlsx,,,,,,,,,,,,,,,,,,,,,,,,,,,,,,,
,,,,,,,,,,,,,,,8014,2022-02-16_13h01.04.272,multiplicationStroop,2021.2.3,Win32,49.92760497,,,,,left,1,0.6495,0,1,1,38,1,8,6,8 | 6,2,1.4111,1.9756,incongruent,left,,,,,,stimulusFile/magnitude.xlsx,,,,,,,,,,,,,,,,,,,,,,,,,,,,,,,
,,,,,,,,,,,,,,,8014,2022-02-16_13h01.04.272,multiplicationStroop,2021.2.3,Win32,49.92760497,,,,,right,1,0.6213,0,2,2,64,1,1,6,1 | 6,5,1.6933,1.6933,neutral,right,,,,,,stimulusFile/magnitude.xlsx,,,,,,,,,,,,,,,,,,,,,,,,,,,,,,,
,,,,,,,,,,,,,,,8014,2022-02-16_13h01.04.272,multiplicationStroop,2021.2.3,Win32,49.92760497,,,,,right,1,0.5765,0,3,3,3,1,8,9,8 | 9,1,1.4111,1.9756,congruent,right,,,,,,stimulusFile/magnitude.xlsx,,,,,,,,,,,,,,,,,,,,,,,,,,,,,,,
,,,,,,,,,,,,,,,8014,2022-02-16_13h01.04.272,multiplicationStroop,2021.2.3,Win32,49.92760497,,,,,left,0,0.5882,0,4,4,24,1,1,2,1 | 2,1,1.9756,1.4111,incongruent,right,,,,,,stimulusFile/magnitude.xlsx,,,,,,,,,,,,,,,,,,,,,,,,,,,,,,,
,,,,,,,,,,,,,,,8014,2022-02-16_13h01.04.272,multiplicationStroop,2021.2.3,Win32,49.92760497,,,,,left,1,0.6772,0,5,5,20,1,6,1,6 | 1,5,1.9756,1.4111,congruent,left,,,,,,stimulusFile/magnitude.xlsx,,,,,,,,,,,,,,,,,,,,,,,,,,,,,,,
,,,,,,,,,,,,,,,8014,2022-02-16_13h01.04.272,multiplicationStroop,2021.2.3,Win32,49.92760497,,,,,left,1,0.7429,0,6,6,39,1,9,7,9 | 7,2,1.4111,1.9756,incongruent,left,,,,,,stimulusFile/magnitude.xlsx,,,,,,,,,,,,,,,,,,,,,,,,,,,,,,,
,,,,,,,,,,,,,,,8014,2022-02-16_13h01.04.272,multiplicationStroop,2021.2.3,Win32,49.92760497,,,,,left,1,0.5102,0,7,7,68,1,6,1,6 | 1,5,1.6933,1.6933,neutral,left,,,,,,stimulusFile/magnitude.xlsx,,,,,,,,,,,,,,,,,,,,,,,,,,,,,,,
,,,,,,,,,,,,,,,8014,2022-02-16_13h01.04.272,multiplicationStroop,2021.2.3,Win32,49.92760497,,,,,right,1,0.5126,0,8,8,42,1,3,8,3 | 8,5,1.9756,1.4111,incongruent,right,,,,,,stimulusFile/magnitude.xlsx,,,,,,,,,,,,,,,,,,,,,,,,,,,,,,,
,,,,,,,,,,,,,,,8014,2022-02-16_13h01.04.272,multiplicationStroop,2021.2.3,Win32,49.92760497,,,,,left,1,0.4998,0,9,9,14,1,8,6,8 | 6,2,1.9756,1.4111,congruent,left,,,,,,stimulusFile/magnitude.xlsx,,,,,,,,,,,,,,,,,,,,,,,,,,,,,,,
,,,,,,,,,,,,,,,8014,2022-02-16_13h01.04.272,multiplicationStroop,2021.2.3,Win32,49.92760497,,,,,right,1,0.5032,0,10,10,48,1,1,2,1 | 2,1,1.6933,1.6933,neutral,right,,,,,,stimulusFile/magnitude.xlsx,,,,,,,,,,,,,,,,,,,,,,,,,,,,,,,
,,,,,,,,,,,,,,,8014,2022-02-16_13h01.04.272,multiplicationStroop,2021.2.3,Win32,49.92760497,,,,,left,1,0.5095,0,11,11,23,1,9,4,9 | 4,5,1.9756,1.4111,congruent,left,,,,,,stimulusFile/magnitude.xlsx,,,,,,,,,,,,,,,,,,,,,,,,,,,,,,,
,,,,,,,,,,,,,,,8014,2022-02-16_13h01.04.272,multiplicationStroop,2021.2.3,Win32,49.92760497,,,,,right,1,0.6506,0,12,12,49,1,3,4,3 | 4,1,1.6933,1.6933,neutral,right,,,,,,stimulusFile/magnitude.xlsx,,,,,,,,,,,,,,,,,,,,,,,,,,,,,,,
,,,,,,,,,,,,,,,8014,2022-02-16_13h01.04.272,multiplicationStroop,2021.2.3,Win32,49.92760497,,,,,right,1,0.5148,0,13,13,18,1,3,8,3 | 8,5,1.4111,1.9756,congruent,right,,,,,,stimulusFile/magnitude.xlsx,,,,,,,,,,,,,,,,,,,,,,,,,,,,,,,
,,,,,,,,,,,,,,,8014,2022-02-16_13h01.04.272,multiplicationStroop,2021.2.3,Win32,49.92760497,,,,,left,1,0.4763,0,14,14,55,1,9,8,9 | 8,1,1.6933,1.6933,neutral,left,,,,,,stimulusFile/magnitude.xlsx,,,,,,,,,,,,,,,,,,,,,,,,,,,,,,,
,,,,,,,,,,,,,,,8014,2022-02-16_13h01.04.272,multiplicationStroop,2021.2.3,Win32,49.92760497,,,,,right,1,0.5678,0,15,15,40,1,1,6,1 | 6,5,1.9756,1.4111,incongruent,right,,,,,,stimulusFile/magnitude.xlsx,,,,,,,,,,,,,,,,,,,,,,,,,,,,,,,
,,,,,,,,,,,,,,,8014,2022-02-16_13h01.04.272,multiplicationStroop,2021.2.3,Win32,49.92760497,,,,,right,0,0.6045,0,16,16,37,1,4,2,4 | 2,2,1.4111,1.9756,incongruent,left,,,,,,stimulusFile/magnitude.xlsx,,,,,,,,,,,,,,,,,,,,,,,,,,,,,,,
,,,,,,,,,,,,,,,8014,2022-02-16_13h01.04.272,multiplicationStroop,2021.2.3,Win32,49.92760497,,,,,left,1,0.487,0,17,17,60,1,3,1,3 | 1,2,1.6933,1.6933,neutral,left,,,,,,stimulusFile/magnitude.xlsx,,,,,,,,,,,,,,,,,,,,,,,,,,,,,,,
,,,,,,,,,,,,,,,8014,2022-02-16_13h01.04.272,multiplicationStroop,2021.2.3,Win32,49.92760497,,,,,left,1,0.5139,0,18,18,13,1,4,2,4 | 2,2,1.9756,1.4111,congruent,left,,,,,,stimulusFile/magnitude.xlsx,,,,,,,,,,,,,,,,,,,,,,,,,,,,,,,
,,,,,,,,,,,,,,,8014,2022-02-16_13h01.04.272,multiplicationStroop,2021.2.3,Win32,49.92760497,,,,,left,1,0.5893,0,19,19,71,1,9,4,9 | 4,5,1.6933,1.6933,neutral,left,,,,,,stimulusFile/magnitude.xlsx,,,,,,,,,,,,,,,,,,,,,,,,,,,,,,,
,,,,,,,,,,,,,,,8014,2022-02-16_13h01.04.272,multiplicationStroop,2021.2.3,Win32,49.92760497,,,,,left,1,0.5567,0,20,20,52,1,2,1,2 | 1,1,1.6933,1.6933,neutral,left,,,,,,stimulusFile/magnitude.xlsx,,,,,,,,,,,,,,,,,,,,,,,,,,,,,,,
,,,,,,,,,,,,,,,8014,2022-02-16_13h01.04.272,multiplicationStroop,2021.2.3,Win32,49.92760497,,,,,right,1,0.5713,0,21,21,59,1,7,9,7 | 9,2,1.6933,1.6933,neutral,right,,,,,,stimulusFile/magnitude.xlsx,,,,,,,,,,,,,,,,,,,,,,,,,,,,,,,
,,,,,,,,,,,,,,,8014,2022-02-16_13h01.04.272,multiplicationStroop,2021.2.3,Win32,49.92760497,,,,,left,1,0.5816,0,22,22,61,1,4,2,4 | 2,2,1.6933,1.6933,neutral,left,,,,,,stimulusFile/magnitude.xlsx,,,,,,,,,,,,,,,,,,,,,,,,,,,,,,,
,,,,,,,,,,,,,,,8014,2022-02-16_13h01.04.272,multiplicationStroop,2021.2.3,Win32,49.92760497,,,,,right,0,0.7333,0,23,23,30,1,7,6,7 | 6,1,1.4111,1.9756,incongruent,left,,,,,,stimulusFile/magnitude.xlsx,,,,,,,,,,,,,,,,,,,,,,,,,,,,,,,
,,,,,,,,,,,,,,,8014,2022-02-16_13h01.04.272,multiplicationStroop,2021.2.3,Win32,49.92760497,,,,,left,0,0.6774,0,24,24,25,1,3,4,3 | 4,1,1.9756,1.4111,incongruent,right,,,,,,stimulusFile/magnitude.xlsx,,,,,,,,,,,,,,,,,,,,,,,,,,,,,,,
,,,,,,,,,,,,,,,8014,2022-02-16_13h01.04.272,multiplicationStroop,2021.2.3,Win32,49.92760497,,,,,left,1,0.639,0,25,25,12,1,3,1,3 | 1,2,1.9756,1.4111,congruent,left,,,,,,stimulusFile/magnitude.xlsx,,,,,,,,,,,,,,,,,,,,,,,,,,,,,,,
,,,,,,,,,,,,,,,8014,2022-02-16_13h01.04.272,multiplicationStroop,2021.2.3,Win32,49.92760497,,,,,left,1,0.594,0,26,26,69,1,7,2,7 | 2,5,1.6933,1.6933,neutral,left,,,,,,stimulusFile/magnitude.xlsx,,,,,,,,,,,,,,,,,,,,,,,,,,,,,,,
,,,,,,,,,,,,,,,8014,2022-02-16_13h01.04.272,multiplicationStroop,2021.2.3,Win32,49.92760497,,,,,right,1,0.5635,0,27,27,10,1,6,8,6 | 8,2,1.4111,1.9756,congruent,right,,,,,,stimulusFile/magnitude.xlsx,,,,,,,,,,,,,,,,,,,,,,,,,,,,,,,
,,,,,,,,,,,,,,,8014,2022-02-16_13h01.04.272,multiplicationStroop,2021.2.3,Win32,49.92760497,,,,,left,1,0.4863,0,28,28,15,1,9,7,9 | 7,2,1.9756,1.4111,congruent,left,,,,,,stimulusFile/magnitude.xlsx,,,,,,,,,,,,,,,,,,,,,,,,,,,,,,,
,,,,,,,,,,,,,,,8014,2022-02-16_13h01.04.272,multiplicationStroop,2021.2.3,Win32,49.92760497,,,,,right,1,0.5572,0,29,29,32,1,1,3,1 | 3,2,1.9756,1.4111,incongruent,right,,,,,,stimulusFile/magnitude.xlsx,,,,,,,,,,,,,,,,,,,,,,,,,,,,,,,
,,,,,,,,,,,,,,,8014,2022-02-16_13h01.04.272,multiplicationStroop,2021.2.3,Win32,49.92760497,,,,,left,1,0.5238,0,30,30,21,1,7,2,7 | 2,5,1.9756,1.4111,congruent,left,,,,,,stimulusFile/magnitude.xlsx,,,,,,,,,,,,,,,,,,,,,,,,,,,,,,,
,,,,,,,,,,,,,,,8014,2022-02-16_13h01.04.272,multiplicationStroop,2021.2.3,Win32,49.92760497,,,,,right,1,0.5341,0,31,31,19,1,4,9,4 | 9,5,1.4111,1.9756,congruent,right,,,,,,stimulusFile/magnitude.xlsx,,,,,,,,,,,,,,,,,,,,,,,,,,,,,,,
,,,,,,,,,,,,,,,8014,2022-02-16_13h01.04.272,multiplicationStroop,2021.2.3,Win32,49.92760497,,,,,right,1,0.5411,0,32,32,41,1,2,7,2 | 7,5,1.9756,1.4111,incongruent,right,,,,,,stimulusFile/magnitude.xlsx,,,,,,,,,,,,,,,,,,,,,,,,,,,,,,,
,,,,,,,,,,,,,,,8014,2022-02-16_13h01.04.272,multiplicationStroop,2021.2.3,Win32,49.92760497,,,,,left,1,0.4624,0,33,33,47,1,9,4,9 | 4,5,1.4111,1.9756,incongruent,left,,,,,,stimulusFile/magnitude.xlsx,,,,,,,,,,,,,,,,,,,,,,,,,,,,,,,
,,,,,,,,,,,,,,,8014,2022-02-16_13h01.04.272,multiplicationStroop,2021.2.3,Win32,49.92760497,,,,,right,1,0.4842,0,34,34,65,1,2,7,2 | 7,5,1.6933,1.6933,neutral,right,,,,,,stimulusFile/magnitude.xlsx,,,,,,,,,,,,,,,,,,,,,,,,,,,,,,,
,,,,,,,,,,,,,,,8014,2022-02-16_13h01.04.272,multiplicationStroop,2021.2.3,Win32,49.92760497,,,,,left,1,0.6214,0,35,35,31,1,9,8,9 | 8,1,1.4111,1.9756,incongruent,left,,,,,,stimulusFile/magnitude.xlsx,,,,,,,,,,,,,,,,,,,,,,,,,,,,,,,
,,,,,,,,,,,,,,,8014,2022-02-16_13h01.04.272,multiplicationStroop,2021.2.3,Win32,49.92760497,,,,,right,1,0.4833,0,36,36,0,1,1,2,1 | 2,1,1.4111,1.9756,congruent,right,,,,,,stimulusFile/magnitude.xlsx,,,,,,,,,,,,,,,,,,,,,,,,,,,,,,,
,,,,,,,,,,,,,,,8014,2022-02-16_13h01.04.272,multiplicationStroop,2021.2.3,Win32,49.92760497,,,,,left,1,0.4628,0,37,37,36,1,3,1,3 | 1,2,1.4111,1.9756,incongruent,left,,,,,,stimulusFile/magnitude.xlsx,,,,,,,,,,,,,,,,,,,,,,,,,,,,,,,
,,,,,,,,,,,,,,,8014,2022-02-16_13h01.04.272,multiplicationStroop,2021.2.3,Win32,49.92760497,,,,,right,1,0.5551,0,38,38,2,1,6,7,6 | 7,1,1.4111,1.9756,congruent,right,,,,,,stimulusFile/magnitude.xlsx,,,,,,,,,,,,,,,,,,,,,,,,,,,,,,,
,,,,,,,,,,,,,,,8014,2022-02-16_13h01.04.272,multiplicationStroop,2021.2.3,Win32,49.92760497,,,,,left,1,0.4774,0,39,39,46,1,8,3,8 | 3,5,1.4111,1.9756,incongruent,left,,,,,,stimulusFile/magnitude.xlsx,,,,,,,,,,,,,,,,,,,,,,,,,,,,,,,
,,,,,,,,,,,,,,,8014,2022-02-16_13h01.04.272,multiplicationStroop,2021.2.3,Win32,49.92760497,,,,,right,1,0.5486,0,40,40,58,1,6,8,6 | 8,2,1.6933,1.6933,neutral,right,,,,,,stimulusFile/magnitude.xlsx,,,,,,,,,,,,,,,,,,,,,,,,,,,,,,,
,,,,,,,,,,,,,,,8014,2022-02-16_13h01.04.272,multiplicationStroop,2021.2.3,Win32,49.92760497,,,,,right,1,0.5809,0,41,41,50,1,6,7,6 | 7,1,1.6933,1.6933,neutral,right,,,,,,stimulusFile/magnitude.xlsx,,,,,,,,,,,,,,,,,,,,,,,,,,,,,,,
,,,,,,,,,,,,,,,8014,2022-02-16_13h01.04.272,multiplicationStroop,2021.2.3,Win32,49.92760497,,,,,right,1,0.5986,0,42,42,27,1,8,9,8 | 9,1,1.9756,1.4111,incongruent,right,,,,,,stimulusFile/magnitude.xlsx,,,,,,,,,,,,,,,,,,,,,,,,,,,,,,,
,,,,,,,,,,,,,,,8014,2022-02-16_13h01.04.272,multiplicationStroop,2021.2.3,Win32,49.92760497,,,,,left,1,0.5004,0,43,43,7,1,9,8,9 | 8,1,1.9756,1.4111,congruent,left,,,,,,stimulusFile/magnitude.xlsx,,,,,,,,,,,,,,,,,,,,,,,,,,,,,,,
,,,,,,,,,,,,,,,8014,2022-02-16_13h01.04.272,multiplicationStroop,2021.2.3,Win32,49.92760497,,,,,left,1,0.5044,0,44,44,5,1,4,3,4 | 3,1,1.9756,1.4111,congruent,left,,,,,,stimulusFile/magnitude.xlsx,,,,,,,,,,,,,,,,,,,,,,,,,,,,,,,
,,,,,,,,,,,,,,,8014,2022-02-16_13h01.04.272,multiplicationStroop,2021.2.3,Win32,49.92760497,,,,,right,1,0.4863,0,45,45,1,1,3,4,3 | 4,1,1.4111,1.9756,congruent,right,,,,,,stimulusFile/magnitude.xlsx,,,,,,,,,,,,,,,,,,,,,,,,,,,,,,,
,,,,,,,,,,,,,,,8014,2022-02-16_13h01.04.272,multiplicationStroop,2021.2.3,Win32,49.92760497,,,,,right,1,0.6239,0,46,46,11,1,7,9,7 | 9,2,1.4111,1.9756,congruent,right,,,,,,stimulusFile/magnitude.xlsx,,,,,,,,,,,,,,,,,,,,,,,,,,,,,,,
,,,,,,,,,,,,,,,8014,2022-02-16_13h01.04.272,multiplicationStroop,2021.2.3,Win32,49.92760497,,,,,left,1,0.5079,0,47,47,63,1,9,7,9 | 7,2,1.6933,1.6933,neutral,left,,,,,,stimulusFile/magnitude.xlsx,,,,,,,,,,,,,,,,,,,,,,,,,,,,,,,
,,,,,,,,,,,,,,,8014,2022-02-16_13h01.04.272,multiplicationStroop,2021.2.3,Win32,49.92760497,,,,,right,1,0.6788,0,48,48,35,1,7,9,7 | 9,2,1.9756,1.4111,incongruent,right,,,,,,stimulusFile/magnitude.xlsx,,,,,,,,,,,,,,,,,,,,,,,,,,,,,,,
,,,,,,,,,,,,,,,8014,2022-02-16_13h01.04.272,multiplicationStroop,2021.2.3,Win32,49.92760497,,,,,left,1,0.9726,0,49,49,6,1,7,6,7 | 6,1,1.9756,1.4111,congruent,left,,,,,,stimulusFile/magnitude.xlsx,,,,,,,,,,,,,,,,,,,,,,,,,,,,,,,
,,,,,,,,,,,,,,,8014,2022-02-16_13h01.04.272,multiplicationStroop,2021.2.3,Win32,49.92760497,,,,,right,1,0.5133,0,50,50,56,1,1,3,1 | 3,2,1.6933,1.6933,neutral,right,,,,,,stimulusFile/magnitude.xlsx,,,,,,,,,,,,,,,,,,,,,,,,,,,,,,,
,,,,,,,,,,,,,,,8014,2022-02-16_13h01.04.272,multiplicationStroop,2021.2.3,Win32,49.92760497,,,,,left,1,0.6181,0,51,51,44,1,6,1,6 | 1,5,1.4111,1.9756,incongruent,left,,,,,,stimulusFile/magnitude.xlsx,,,,,,,,,,,,,,,,,,,,,,,,,,,,,,,
,,,,,,,,,,,,,,,8014,2022-02-16_13h01.04.272,multiplicationStroop,2021.2.3,Win32,49.92760497,,,,,left,1,0.609,0,52,52,28,1,2,1,2 | 1,1,1.4111,1.9756,incongruent,left,,,,,,stimulusFile/magnitude.xlsx,,,,,,,,,,,,,,,,,,,,,,,,,,,,,,,
,,,,,,,,,,,,,,,8014,2022-02-16_13h01.04.272,multiplicationStroop,2021.2.3,Win32,49.92760497,,,,,left,1,0.539,0,53,53,45,1,7,2,7 | 2,5,1.4111,1.9756,incongruent,left,,,,,,stimulusFile/magnitude.xlsx,,,,,,,,,,,,,,,,,,,,,,,,,,,,,,,
,,,,,,,,,,,,,,,8014,2022-02-16_13h01.04.272,multiplicationStroop,2021.2.3,Win32,49.92760497,,,,,left,1,0.4341,0,54,54,70,1,8,3,8 | 3,5,1.6933,1.6933,neutral,left,,,,,,stimulusFile/magnitude.xlsx,,,,,,,,,,,,,,,,,,,,,,,,,,,,,,,
,,,,,,,,,,,,,,,8014,2022-02-16_13h01.04.272,multiplicationStroop,2021.2.3,Win32,49.92760497,,,,,right,1,0.4105,0,55,55,16,1,1,6,1 | 6,5,1.4111,1.9756,congruent,right,,,,,,stimulusFile/magnitude.xlsx,,,,,,,,,,,,,,,,,,,,,,,,,,,,,,,
,,,,,,,,,,,,,,,8014,2022-02-16_13h01.04.272,multiplicationStroop,2021.2.3,Win32,49.92760497,,,,,right,1,0.5599,0,56,56,33,1,2,4,2 | 4,2,1.9756,1.4111,incongruent,right,,,,,,stimulusFile/magnitude.xlsx,,,,,,,,,,,,,,,,,,,,,,,,,,,,,,,
,,,,,,,,,,,,,,,8014,2022-02-16_13h01.04.272,multiplicationStroop,2021.2.3,Win32,49.92760497,,,,,left,1,0.4815,0,57,57,29,1,4,3,4 | 3,1,1.4111,1.9756,incongruent,left,,,,,,stimulusFile/magnitude.xlsx,,,,,,,,,,,,,,,,,,,,,,,,,,,,,,,
,,,,,,,,,,,,,,,8014,2022-02-16_13h01.04.272,multiplicationStroop,2021.2.3,Win32,49.92760497,,,,,right,1,0.5064,0,58,58,67,1,4,9,4 | 9,5,1.6933,1.6933,neutral,right,,,,,,stimulusFile/magnitude.xlsx,,,,,,,,,,,,,,,,,,,,,,,,,,,,,,,
,,,,,,,,,,,,,,,8014,2022-02-16_13h01.04.272,multiplicationStroop,2021.2.3,Win32,49.92760497,,,,,right,1,0.534,0,59,59,9,1,2,4,2 | 4,2,1.4111,1.9756,congruent,right,,,,,,stimulusFile/magnitude.xlsx,,,,,,,,,,,,,,,,,,,,,,,,,,,,,,,
,,,,,,,,,,,,,,,8014,2022-02-16_13h01.04.272,multiplicationStroop,2021.2.3,Win32,49.92760497,,,,,right,1,0.4396,0,60,60,17,1,2,7,2 | 7,5,1.4111,1.9756,congruent,right,,,,,,stimulusFile/magnitude.xlsx,,,,,,,,,,,,,,,,,,,,,,,,,,,,,,,
,,,,,,,,,,,,,,,8014,2022-02-16_13h01.04.272,multiplicationStroop,2021.2.3,Win32,49.92760497,,,,,right,1,0.4976,0,61,61,8,1,1,3,1 | 3,2,1.4111,1.9756,congruent,right,,,,,,stimulusFile/magnitude.xlsx,,,,,,,,,,,,,,,,,,,,,,,,,,,,,,,
,,,,,,,,,,,,,,,8014,2022-02-16_13h01.04.272,multiplicationStroop,2021.2.3,Win32,49.92760497,,,,,right,0,0.3875,0,62,62,54,1,7,6,7 | 6,1,1.6933,1.6933,neutral,left,,,,,,stimulusFile/magnitude.xlsx,,,,,,,,,,,,,,,,,,,,,,,,,,,,,,,
,,,,,,,,,,,,,,,8014,2022-02-16_13h01.04.272,multiplicationStroop,2021.2.3,Win32,49.92760497,,,,,left,1,0.7172,0,63,63,4,1,2,1,2 | 1,1,1.9756,1.4111,congruent,left,,,,,,stimulusFile/magnitude.xlsx,,,,,,,,,,,,,,,,,,,,,,,,,,,,,,,
,,,,,,,,,,,,,,,8014,2022-02-16_13h01.04.272,multiplicationStroop,2021.2.3,Win32,49.92760497,,,,,right,1,0.8626,0,64,64,43,1,4,9,4 | 9,5,1.9756,1.4111,incongruent,right,,,,,,stimulusFile/magnitude.xlsx,,,,,,,,,,,,,,,,,,,,,,,,,,,,,,,
,,,,,,,,,,,,,,,8014,2022-02-16_13h01.04.272,multiplicationStroop,2021.2.3,Win32,49.92760497,,,,,right,1,0.6654,0,65,65,34,1,6,8,6 | 8,2,1.9756,1.4111,incongruent,right,,,,,,stimulusFile/magnitude.xlsx,,,,,,,,,,,,,,,,,,,,,,,,,,,,,,,
,,,,,,,,,,,,,,,8014,2022-02-16_13h01.04.272,multiplicationStroop,2021.2.3,Win32,49.92760497,,,,,left,1,0.5101,0,66,66,53,1,4,3,4 | 3,1,1.6933,1.6933,neutral,left,,,,,,stimulusFile/magnitude.xlsx,,,,,,,,,,,,,,,,,,,,,,,,,,,,,,,
,,,,,,,,,,,,,,,8014,2022-02-16_13h01.04.272,multiplicationStroop,2021.2.3,Win32,49.92760497,,,,,right,1,0.5018,0,67,67,57,1,2,4,2 | 4,2,1.6933,1.6933,neutral,right,,,,,,stimulusFile/magnitude.xlsx,,,,,,,,,,,,,,,,,,,,,,,,,,,,,,,
,,,,,,,,,,,,,,,8014,2022-02-16_13h01.04.272,multiplicationStroop,2021.2.3,Win32,49.92760497,,,,,left,1,0.4286,0,68,68,62,1,8,6,8 | 6,2,1.6933,1.6933,neutral,left,,,,,,stimulusFile/magnitude.xlsx,,,,,,,,,,,,,,,,,,,,,,,,,,,,,,,
,,,,,,,,,,,,,,,8014,2022-02-16_13h01.04.272,multiplicationStroop,2021.2.3,Win32,49.92760497,,,,,left,0,0.4705,0,69,69,26,1,6,7,6 | 7,1,1.9756,1.4111,incongruent,right,,,,,,stimulusFile/magnitude.xlsx,,,,,,,,,,,,,,,,,,,,,,,,,,,,,,,
,,,,,,,,,,,,,,,8014,2022-02-16_13h01.04.272,multiplicationStroop,2021.2.3,Win32,49.92760497,,,,,right,1,0.538,0,70,70,66,1,3,8,3 | 8,5,1.6933,1.6933,neutral,right,,,,,,stimulusFile/magnitude.xlsx,,,,,,,,,,,,,,,,,,,,,,,,,,,,,,,
,,,,,,,,,,,,,,,8014,2022-02-16_13h01.04.272,multiplicationStroop,2021.2.3,Win32,49.92760497,,,,,left,1,0.4578,0,71,71,22,1,8,3,8 | 3,5,1.9756,1.4111,congruent,left,,,,,,stimulusFile/magnitude.xlsx,,,,,,,,,,,,,,,,,,,,,,,,,,,,,,,
,,,,,,,,,,,,,,,8014,2022-02-16_13h01.04.272,multiplicationStroop,2021.2.3,Win32,49.92760497,,,,,,,,,,,,,,,,,,,,,0,0,0,0,1,stimulusFile/magnitude.xlsx,NUMERICALLY larger (larger coefficient).,images/numericallyLarger.png,,,,,,,,,,,,,,,,,,,,,,,,,,,,,
,,,,,,,,,,,,,,,8014,2022-02-16_13h01.04.272,multiplicationStroop,2021.2.3,Win32,49.92760497,space,9.4784,space,15.4863,right,1,0.5608,0,0,0,8,1,1,3,1 | 3,2,1.4111,1.9756,congruent,right,,,,,,stimulusFile/physical.xlsx,,,,,,,,,,,,,,,,,,,,,,,,,,,,,,,
,,,,,,,,,,,,,,,8014,2022-02-16_13h01.04.272,multiplicationStroop,2021.2.3,Win32,49.92760497,,,,,right,1,0.4874,0,1,1,19,1,4,9,4 | 9,5,1.4111,1.9756,congruent,right,,,,,,stimulusFile/physical.xlsx,,,,,,,,,,,,,,,,,,,,,,,,,,,,,,,
,,,,,,,,,,,,,,,8014,2022-02-16_13h01.04.272,multiplicationStroop,2021.2.3,Win32,49.92760497,,,,,right,1,0.6021,0,2,2,58,1,6,6,6 | 6,0,1.4111,1.9756,neutral,right,,,,,,stimulusFile/physical.xlsx,,,,,,,,,,,,,,,,,,,,,,,,,,,,,,,
,,,,,,,,,,,,,,,8014,2022-02-16_13h01.04.272,multiplicationStroop,2021.2.3,Win32,49.92760497,,,,,right,1,0.6445,0,3,3,37,1,4,2,4 | 2,2,1.4111,1.9756,incongruent,right,,,,,,stimulusFile/physical.xlsx,,,,,,,,,,,,,,,,,,,,,,,,,,,,,,,
,,,,,,,,,,,,,,,8014,2022-02-16_13h01.04.272,multiplicationStroop,2021.2.3,Win32,49.92760497,,,,,left,0,0.4906,0,4,4,47,1,9,4,9 | 4,5,1.4111,1.9756,incongruent,right,,,,,,stimulusFile/physical.xlsx,,,,,,,,,,,,,,,,,,,,,,,,,,,,,,,
,,,,,,,,,,,,,,,8014,2022-02-16_13h01.04.272,multiplicationStroop,2021.2.3,Win32,49.92760497,,,,,left,1,0.4729,0,5,5,52,1,2,2,2 | 2,0,1.9756,1.4111,neutral,left,,,,,,stimulusFile/physical.xlsx,,,,,,,,,,,,,,,,,,,,,,,,,,,,,,,
,,,,,,,,,,,,,,,8014,2022-02-16_13h01.04.272,multiplicationStroop,2021.2.3,Win32,49.92760497,,,,,left,1,0.431,0,6,6,21,1,7,2,7 | 2,5,1.9756,1.4111,congruent,left,,,,,,stimulusFile/physical.xlsx,,,,,,,,,,,,,,,,,,,,,,,,,,,,,,,
,,,,,,,,,,,,,,,8014,2022-02-16_13h01.04.272,multiplicationStroop,2021.2.3,Win32,49.92760497,,,,,left,1,0.4732,0,7,7,49,1,3,3,3 | 3,0,1.9756,1.4111,neutral,left,,,,,,stimulusFile/physical.xlsx,,,,,,,,,,,,,,,,,,,,,,,,,,,,,,,
,,,,,,,,,,,,,,,8014,2022-02-16_13h01.04.272,multiplicationStroop,2021.2.3,Win32,49.92760497,,,,,right,1,0.4805,0,8,8,9,1,2,4,2 | 4,2,1.4111,1.9756,congruent,right,,,,,,stimulusFile/physical.xlsx,,,,,,,,,,,,,,,,,,,,,,,,,,,,,,,
,,,,,,,,,,,,,,,8014,2022-02-16_13h01.04.272,multiplicationStroop,2021.2.3,Win32,49.92760497,,,,,left,1,0.4121,0,9,9,14,1,8,6,8 | 6,2,1.9756,1.4111,congruent,left,,,,,,stimulusFile/physical.xlsx,,,,,,,,,,,,,,,,,,,,,,,,,,,,,,,
,,,,,,,,,,,,,,,8014,2022-02-16_13h01.04.272,multiplicationStroop,2021.2.3,Win32,49.92760497,,,,,right,1,0.4764,0,10,10,31,1,9,8,9 | 8,1,1.4111,1.9756,incongruent,right,,,,,,stimulusFile/physical.xlsx,,,,,,,,,,,,,,,,,,,,,,,,,,,,,,,
,,,,,,,,,,,,,,,8014,2022-02-16_13h01.04.272,multiplicationStroop,2021.2.3,Win32,49.92760497,,,,,left,1,0.5009,0,11,11,34,1,6,8,6 | 8,2,1.9756,1.4111,incongruent,left,,,,,,stimulusFile/physical.xlsx,,,,,,,,,,,,,,,,,,,,,,,,,,,,,,,
,,,,,,,,,,,,,,,8014,2022-02-16_13h01.04.272,multiplicationStroop,2021.2.3,Win32,49.92760497,,,,,right,1,0.5081,0,12,12,44,1,6,1,6 | 1,5,1.4111,1.9756,incongruent,right,,,,,,stimulusFile/physical.xlsx,,,,,,,,,,,,,,,,,,,,,,,,,,,,,,,
,,,,,,,,,,,,,,,8014,2022-02-16_13h01.04.272,multiplicationStroop,2021.2.3,Win32,49.92760497,,,,,left,1,0.4606,0,13,13,25,1,3,4,3 | 4,1,1.9756,1.4111,incongruent,left,,,,,,stimulusFile/physical.xlsx,,,,,,,,,,,,,,,,,,,,,,,,,,,,,,,
,,,,,,,,,,,,,,,8014,2022-02-16_13h01.04.272,multiplicationStroop,2021.2.3,Win32,49.92760497,,,,,right,0,0.4217,0,14,14,40,1,1,6,1 | 6,5,1.9756,1.4111,incongruent,left,,,,,,stimulusFile/physical.xlsx,,,,,,,,,,,,,,,,,,,,,,,,,,,,,,,
,,,,,,,,,,,,,,,8014,2022-02-16_13h01.04.272,multiplicationStroop,2021.2.3,Win32,49.92760497,,,,,right,1,0.421,0,15,15,2,1,6,7,6 | 7,1,1.4111,1.9756,congruent,right,,,,,,stimulusFile/physical.xlsx,,,,,,,,,,,,,,,,,,,,,,,,,,,,,,,
,,,,,,,,,,,,,,,8014,2022-02-16_13h01.04.272,multiplicationStroop,2021.2.3,Win32,49.92760497,,,,,right,1,0.4679,0,16,16,17,1,2,7,2 | 7,5,1.4111,1.9756,congruent,right,,,,,,stimulusFile/physical.xlsx,,,,,,,,,,,,,,,,,,,,,,,,,,,,,,,
,,,,,,,,,,,,,,,8014,2022-02-16_13h01.04.272,multiplicationStroop,2021.2.3,Win32,49.92760497,,,,,right,1,0.6962,0,17,17,11,1,7,9,7 | 9,2,1.4111,1.9756,congruent,right,,,,,,stimulusFile/physical.xlsx,,,,,,,,,,,,,,,,,,,,,,,,,,,,,,,
,,,,,,,,,,,,,,,8014,2022-02-16_13h01.04.272,multiplicationStroop,2021.2.3,Win32,49.92760497,,,,,right,1,0.4604,0,18,18,57,1,2,2,2 | 2,0,1.4111,1.9756,neutral,right,,,,,,stimulusFile/physical.xlsx,,,,,,,,,,,,,,,,,,,,,,,,,,,,,,,
,,,,,,,,,,,,,,,8014,2022-02-16_13h01.04.272,multiplicationStroop,2021.2.3,Win32,49.92760497,,,,,right,1,0.3804,0,19,19,16,1,1,6,1 | 6,5,1.4111,1.9756,congruent,right,,,,,,stimulusFile/physical.xlsx,,,,,,,,,,,,,,,,,,,,,,,,,,,,,,,
,,,,,,,,,,,,,,,8014,2022-02-16_13h01.04.272,multiplicationStroop,2021.2.3,Win32,49.92760497,,,,,right,1,0.4194,0,20,20,29,1,4,3,4 | 3,1,1.4111,1.9756,incongruent,right,,,,,,stimulusFile/physical.xlsx,,,,,,,,,,,,,,,,,,,,,,,,,,,,,,,
,,,,,,,,,,,,,,,8014,2022-02-16_13h01.04.272,multiplicationStroop,2021.2.3,Win32,49.92760497,,,,,right,1,0.4014,0,21,21,45,1,7,2,7 | 2,5,1.4111,1.9756,incongruent,right,,,,,,stimulusFile/physical.xlsx,,,,,,,,,,,,,,,,,,,,,,,,,,,,,,,
,,,,,,,,,,,,,,,8014,2022-02-16_13h01.04.272,multiplicationStroop,2021.2.3,Win32,49.92760497,,,,,right,0,0.5081,0,22,22,71,1,9,9,9 | 9,0,1.4111,1.9756,neutral,left,,,,,,stimulusFile/physical.xlsx,,,,,,,,,,,,,,,,,,,,,,,,,,,,,,,
,,,,,,,,,,,,,,,8014,2022-02-16_13h01.04.272,multiplicationStroop,2021.2.3,Win32,49.92760497,,,,,right,1,0.5602,0,23,23,36,1,3,1,3 | 1,2,1.4111,1.9756,incongruent,right,,,,,,stimulusFile/physical.xlsx,,,,,,,,,,,,,,,,,,,,,,,,,,,,,,,
,,,,,,,,,,,,,,,8014,2022-02-16_13h01.04.272,multiplicationStroop,2021.2.3,Win32,49.92760497,,,,,left,1,0.441,0,24,24,41,1,2,7,2 | 7,5,1.9756,1.4111,incongruent,left,,,,,,stimulusFile/physical.xlsx,,,,,,,,,,,,,,,,,,,,,,,,,,,,,,,
,,,,,,,,,,,,,,,8014,2022-02-16_13h01.04.272,multiplicationStroop,2021.2.3,Win32,49.92760497,,,,,right,1,0.379,0,25,25,60,1,3,3,3 | 3,0,1.4111,1.9756,neutral,right,,,,,,stimulusFile/physical.xlsx,,,,,,,,,,,,,,,,,,,,,,,,,,,,,,,
,,,,,,,,,,,,,,,8014,2022-02-16_13h01.04.272,multiplicationStroop,2021.2.3,Win32,49.92760497,,,,,left,1,0.5603,0,26,26,51,1,8,8,8 | 8,0,1.9756,1.4111,neutral,left,,,,,,stimulusFile/physical.xlsx,,,,,,,,,,,,,,,,,,,,,,,,,,,,,,,
,,,,,,,,,,,,,,,8014,2022-02-16_13h01.04.272,multiplicationStroop,2021.2.3,Win32,49.92760497,,,,,left,1,0.442,0,27,27,55,1,9,9,9 | 9,0,1.9756,1.4111,neutral,left,,,,,,stimulusFile/physical.xlsx,,,,,,,,,,,,,,,,,,,,,,,,,,,,,,,
,,,,,,,,,,,,,,,8014,2022-02-16_13h01.04.272,multiplicationStroop,2021.2.3,Win32,49.92760497,,,,,left,1,0.465,0,28,28,70,1,8,8,8 | 8,0,1.9756,1.4111,neutral,left,,,,,,stimulusFile/physical.xlsx,,,,,,,,,,,,,,,,,,,,,,,,,,,,,,,
,,,,,,,,,,,,,,,8014,2022-02-16_13h01.04.272,multiplicationStroop,2021.2.3,Win32,49.92760497,,,,,left,1,0.401,0,29,29,4,1,2,1,2 | 1,1,1.9756,1.4111,congruent,left,,,,,,stimulusFile/physical.xlsx,,,,,,,,,,,,,,,,,,,,,,,,,,,,,,,
,,,,,,,,,,,,,,,8014,2022-02-16_13h01.04.272,multiplicationStroop,2021.2.3,Win32,49.92760497,,,,,right,0,0.3731,0,30,30,69,1,7,7,7 | 7,0,1.4111,1.9756,neutral,left,,,,,,stimulusFile/physical.xlsx,,,,,,,,,,,,,,,,,,,,,,,,,,,,,,,
,,,,,,,,,,,,,,,8014,2022-02-16_13h01.04.272,multiplicationStroop,2021.2.3,Win32,49.92760497,,,,,left,1,0.3622,0,31,31,5,1,4,3,4 | 3,1,1.9756,1.4111,congruent,left,,,,,,stimulusFile/physical.xlsx,,,,,,,,,,,,,,,,,,,,,,,,,,,,,,,
,,,,,,,,,,,,,,,8014,2022-02-16_13h01.04.272,multiplicationStroop,2021.2.3,Win32,49.92760497,,,,,right,1,0.5618,0,32,32,46,1,8,3,8 | 3,5,1.4111,1.9756,incongruent,right,,,,,,stimulusFile/physical.xlsx,,,,,,,,,,,,,,,,,,,,,,,,,,,,,,,
,,,,,,,,,,,,,,,8014,2022-02-16_13h01.04.272,multiplicationStroop,2021.2.3,Win32,49.92760497,,,,,right,1,0.3689,0,33,33,0,1,1,2,1 | 2,1,1.4111,1.9756,congruent,right,,,,,,stimulusFile/physical.xlsx,,,,,,,,,,,,,,,,,,,,,,,,,,,,,,,
,,,,,,,,,,,,,,,8014,2022-02-16_13h01.04.272,multiplicationStroop,2021.2.3,Win32,49.92760497,,,,,right,1,0.3811,0,34,34,1,1,3,4,3 | 4,1,1.4111,1.9756,congruent,right,,,,,,stimulusFile/physical.xlsx,,,,,,,,,,,,,,,,,,,,,,,,,,,,,,,
,,,,,,,,,,,,,,,8014,2022-02-16_13h01.04.272,multiplicationStroop,2021.2.3,Win32,49.92760497,,,,,left,0,0.5052,0,35,35,64,1,1,1,1 | 1,0,1.9756,1.4111,neutral,right,,,,,,stimulusFile/physical.xlsx,,,,,,,,,,,,,,,,,,,,,,,,,,,,,,,
,,,,,,,,,,,,,,,8014,2022-02-16_13h01.04.272,multiplicationStroop,2021.2.3,Win32,49.92760497,,,,,left,1,0.4459,0,36,36,54,1,7,7,7 | 7,0,1.9756,1.4111,neutral,left,,,,,,stimulusFile/physical.xlsx,,,,,,,,,,,,,,,,,,,,,,,,,,,,,,,
,,,,,,,,,,,,,,,8014,2022-02-16_13h01.04.272,multiplicationStroop,2021.2.3,Win32,49.92760497,,,,,left,1,0.4905,0,37,37,26,1,6,7,6 | 7,1,1.9756,1.4111,incongruent,left,,,,,,stimulusFile/physical.xlsx,,,,,,,,,,,,,,,,,,,,,,,,,,,,,,,
,,,,,,,,,,,,,,,8014,2022-02-16_13h01.04.272,multiplicationStroop,2021.2.3,Win32,49.92760497,,,,,left,1,0.4054,0,38,38,24,1,1,2,1 | 2,1,1.9756,1.4111,incongruent,left,,,,,,stimulusFile/physical.xlsx,,,,,,,,,,,,,,,,,,,,,,,,,,,,,,,
,,,,,,,,,,,,,,,8014,2022-02-16_13h01.04.272,multiplicationStroop,2021.2.3,Win32,49.92760497,,,,,right,1,0.3618,0,39,39,18,1,3,8,3 | 8,5,1.4111,1.9756,congruent,right,,,,,,stimulusFile/physical.xlsx,,,,,,,,,,,,,,,,,,,,,,,,,,,,,,,
,,,,,,,,,,,,,,,8014,2022-02-16_13h01.04.272,multiplicationStroop,2021.2.3,Win32,49.92760497,,,,,left,1,0.4136,0,40,40,32,1,1,3,1 | 3,2,1.9756,1.4111,incongruent,left,,,,,,stimulusFile/physical.xlsx,,,,,,,,,,,,,,,,,,,,,,,,,,,,,,,
,,,,,,,,,,,,,,,8014,2022-02-16_13h01.04.272,multiplicationStroop,2021.2.3,Win32,49.92760497,,,,,right,0,0.3992,0,41,41,43,1,4,9,4 | 9,5,1.9756,1.4111,incongruent,left,,,,,,stimulusFile/physical.xlsx,,,,,,,,,,,,,,,,,,,,,,,,,,,,,,,
,,,,,,,,,,,,,,,8014,2022-02-16_13h01.04.272,multiplicationStroop,2021.2.3,Win32,49.92760497,,,,,right,1,0.4034,0,42,42,38,1,8,6,8 | 6,2,1.4111,1.9756,incongruent,right,,,,,,stimulusFile/physical.xlsx,,,,,,,,,,,,,,,,,,,,,,,,,,,,,,,
,,,,,,,,,,,,,,,8014,2022-02-16_13h01.04.272,multiplicationStroop,2021.2.3,Win32,49.92760497,,,,,left,1,0.3808,0,43,43,48,1,1,1,1 | 1,0,1.9756,1.4111,neutral,left,,,,,,stimulusFile/physical.xlsx,,,,,,,,,,,,,,,,,,,,,,,,,,,,,,,
,,,,,,,,,,,,,,,8014,2022-02-16_13h01.04.272,multiplicationStroop,2021.2.3,Win32,49.92760497,,,,,left,1,0.4811,0,44,44,33,1,2,4,2 | 4,2,1.9756,1.4111,incongruent,left,,,,,,stimulusFile/physical.xlsx,,,,,,,,,,,,,,,,,,,,,,,,,,,,,,,
,,,,,,,,,,,,,,,8014,2022-02-16_13h01.04.272,multiplicationStroop,2021.2.3,Win32,49.92760497,,,,,right,1,0.3512,0,45,45,30,1,7,6,7 | 6,1,1.4111,1.9756,incongruent,right,,,,,,stimulusFile/physical.xlsx,,,,,,,,,,,,,,,,,,,,,,,,,,,,,,,
,,,,,,,,,,,,,,,8014,2022-02-16_13h01.04.272,multiplicationStroop,2021.2.3,Win32,49.92760497,,,,,left,1,0.3413,0,46,46,68,1,6,6,6 | 6,0,1.9756,1.4111,neutral,left,,,,,,stimulusFile/physical.xlsx,,,,,,,,,,,,,,,,,,,,,,,,,,,,,,,
,,,,,,,,,,,,,,,8014,2022-02-16_13h01.04.272,multiplicationStroop,2021.2.3,Win32,49.92760497,,,,,left,1,0.4407,0,47,47,22,1,8,3,8 | 3,5,1.9756,1.4111,congruent,left,,,,,,stimulusFile/physical.xlsx,,,,,,,,,,,,,,,,,,,,,,,,,,,,,,,
,,,,,,,,,,,,,,,8014,2022-02-16_13h01.04.272,multiplicationStroop,2021.2.3,Win32,49.92760497,,,,,right,0,0.3679,0,48,48,15,1,9,7,9 | 7,2,1.9756,1.4111,congruent,left,,,,,,stimulusFile/physical.xlsx,,,,,,,,,,,,,,,,,,,,,,,,,,,,,,,
,,,,,,,,,,,,,,,8014,2022-02-16_13h01.04.272,multiplicationStroop,2021.2.3,Win32,49.92760497,,,,,right,1,0.3812,0,49,49,10,1,6,8,6 | 8,2,1.4111,1.9756,congruent,right,,,,,,stimulusFile/physical.xlsx,,,,,,,,,,,,,,,,,,,,,,,,,,,,,,,
,,,,,,,,,,,,,,,8014,2022-02-16_13h01.04.272,multiplicationStroop,2021.2.3,Win32,49.92760497,,,,,right,0,0.3737,0,50,50,13,1,4,2,4 | 2,2,1.9756,1.4111,congruent,left,,,,,,stimulusFile/physical.xlsx,,,,,,,,,,,,,,,,,,,,,,,,,,,,,,,
,,,,,,,,,,,,,,,8014,2022-02-16_13h01.04.272,multiplicationStroop,2021.2.3,Win32,49.92760497,,,,,right,1,0.4007,0,51,51,59,1,7,7,7 | 7,0,1.4111,1.9756,neutral,right,,,,,,stimulusFile/physical.xlsx,,,,,,,,,,,,,,,,,,,,,,,,,,,,,,,
,,,,,,,,,,,,,,,8014,2022-02-16_13h01.04.272,multiplicationStroop,2021.2.3,Win32,49.92760497,,,,,left,1,0.3616,0,52,52,53,1,4,4,4 | 4,0,1.9756,1.4111,neutral,left,,,,,,stimulusFile/physical.xlsx,,,,,,,,,,,,,,,,,,,,,,,,,,,,,,,
,,,,,,,,,,,,,,,8014,2022-02-16_13h01.04.272,multiplicationStroop,2021.2.3,Win32,49.92760497,,,,,left,1,0.3947,0,53,53,42,1,3,8,3 | 8,5,1.9756,1.4111,incongruent,left,,,,,,stimulusFile/physical.xlsx,,,,,,,,,,,,,,,,,,,,,,,,,,,,,,,
,,,,,,,,,,,,,,,8014,2022-02-16_13h01.04.272,multiplicationStroop,2021.2.3,Win32,49.92760497,,,,,right,1,0.4004,0,54,54,28,1,2,1,2 | 1,1,1.4111,1.9756,incongruent,right,,,,,,stimulusFile/physical.xlsx,,,,,,,,,,,,,,,,,,,,,,,,,,,,,,,
,,,,,,,,,,,,,,,8014,2022-02-16_13h01.04.272,multiplicationStroop,2021.2.3,Win32,49.92760497,,,,,right,1,0.3993,0,55,55,67,1,4,4,4 | 4,0,1.4111,1.9756,neutral,right,,,,,,stimulusFile/physical.xlsx,,,,,,,,,,,,,,,,,,,,,,,,,,,,,,,
,,,,,,,,,,,,,,,8014,2022-02-16_13h01.04.272,multiplicationStroop,2021.2.3,Win32,49.92760497,,,,,right,1,0.3257,0,56,56,62,1,8,8,8 | 8,0,1.4111,1.9756,neutral,right,,,,,,stimulusFile/physical.xlsx,,,,,,,,,,,,,,,,,,,,,,,,,,,,,,,
,,,,,,,,,,,,,,,8014,2022-02-16_13h01.04.272,multiplicationStroop,2021.2.3,Win32,49.92760497,,,,,right,1,0.4004,0,57,57,65,1,2,2,2 | 2,0,1.4111,1.9756,neutral,right,,,,,,stimulusFile/physical.xlsx,,,,,,,,,,,,,,,,,,,,,,,,,,,,,,,
,,,,,,,,,,,,,,,8014,2022-02-16_13h01.04.272,multiplicationStroop,2021.2.3,Win32,49.92760497,,,,,left,1,0.3691,0,58,58,23,1,9,4,9 | 4,5,1.9756,1.4111,congruent,left,,,,,,stimulusFile/physical.xlsx,,,,,,,,,,,,,,,,,,,,,,,,,,,,,,,
,,,,,,,,,,,,,,,8014,2022-02-16_13h01.04.272,multiplicationStroop,2021.2.3,Win32,49.92760497,,,,,right,1,0.3618,0,59,59,56,1,1,1,1 | 1,0,1.4111,1.9756,neutral,right,,,,,,stimulusFile/physical.xlsx,,,,,,,,,,,,,,,,,,,,,,,,,,,,,,,
,,,,,,,,,,,,,,,8014,2022-02-16_13h01.04.272,multiplicationStroop,2021.2.3,Win32,49.92760497,,,,,right,1,0.4812,0,60,60,63,1,9,9,9 | 9,0,1.4111,1.9756,neutral,right,,,,,,stimulusFile/physical.xlsx,,,,,,,,,,,,,,,,,,,,,,,,,,,,,,,
,,,,,,,,,,,,,,,8014,2022-02-16_13h01.04.272,multiplicationStroop,2021.2.3,Win32,49.92760497,,,,,right,0,0.3571,0,61,61,6,1,7,6,7 | 6,1,1.9756,1.4111,congruent,left,,,,,,stimulusFile/physical.xlsx,,,,,,,,,,,,,,,,,,,,,,,,,,,,,,,
,,,,,,,,,,,,,,,8014,2022-02-16_13h01.04.272,multiplicationStroop,2021.2.3,Win32,49.92760497,,,,,left,1,0.4612,0,62,62,7,1,9,8,9 | 8,1,1.9756,1.4111,congruent,left,,,,,,stimulusFile/physical.xlsx,,,,,,,,,,,,,,,,,,,,,,,,,,,,,,,
,,,,,,,,,,,,,,,8014,2022-02-16_13h01.04.272,multiplicationStroop,2021.2.3,Win32,49.92760497,,,,,right,0,0.3231,0,63,63,50,1,6,6,6 | 6,0,1.9756,1.4111,neutral,left,,,,,,stimulusFile/physical.xlsx,,,,,,,,,,,,,,,,,,,,,,,,,,,,,,,
,,,,,,,,,,,,,,,8014,2022-02-16_13h01.04.272,multiplicationStroop,2021.2.3,Win32,49.92760497,,,,,left,1,0.4219,0,64,64,20,1,6,1,6 | 1,5,1.9756,1.4111,congruent,left,,,,,,stimulusFile/physical.xlsx,,,,,,,,,,,,,,,,,,,,,,,,,,,,,,,
,,,,,,,,,,,,,,,8014,2022-02-16_13h01.04.272,multiplicationStroop,2021.2.3,Win32,49.92760497,,,,,left,1,0.5511,0,65,65,35,1,7,9,7 | 9,2,1.9756,1.4111,incongruent,left,,,,,,stimulusFile/physical.xlsx,,,,,,,,,,,,,,,,,,,,,,,,,,,,,,,
,,,,,,,,,,,,,,,8014,2022-02-16_13h01.04.272,multiplicationStroop,2021.2.3,Win32,49.92760497,,,,,left,1,0.36,0,66,66,27,1,8,9,8 | 9,1,1.9756,1.4111,incongruent,left,,,,,,stimulusFile/physical.xlsx,,,,,,,,,,,,,,,,,,,,,,,,,,,,,,,
,,,,,,,,,,,,,,,8014,2022-02-16_13h01.04.272,multiplicationStroop,2021.2.3,Win32,49.92760497,,,,,right,1,0.4797,0,67,67,39,1,9,7,9 | 7,2,1.4111,1.9756,incongruent,right,,,,,,stimulusFile/physical.xlsx,,,,,,,,,,,,,,,,,,,,,,,,,,,,,,,
,,,,,,,,,,,,,,,8014,2022-02-16_13h01.04.272,multiplicationStroop,2021.2.3,Win32,49.92760497,,,,,right,1,0.3593,0,68,68,61,1,4,4,4 | 4,0,1.4111,1.9756,neutral,right,,,,,,stimulusFile/physical.xlsx,,,,,,,,,,,,,,,,,,,,,,,,,,,,,,,
,,,,,,,,,,,,,,,8014,2022-02-16_13h01.04.272,multiplicationStroop,2021.2.3,Win32,49.92760497,,,,,left,0,0.4096,0,69,69,66,1,3,3,3 | 3,0,1.9756,1.4111,neutral,right,,,,,,stimulusFile/physical.xlsx,,,,,,,,,,,,,,,,,,,,,,,,,,,,,,,
,,,,,,,,,,,,,,,8014,2022-02-16_13h01.04.272,multiplicationStroop,2021.2.3,Win32,49.92760497,,,,,left,1,0.3824,0,70,70,12,1,3,1,3 | 1,2,1.9756,1.4111,congruent,left,,,,,,stimulusFile/physical.xlsx,,,,,,,,,,,,,,,,,,,,,,,,,,,,,,,
,,,,,,,,,,,,,,,8014,2022-02-16_13h01.04.272,multiplicationStroop,2021.2.3,Win32,49.92760497,,,,,right,1,0.4213,0,71,71,3,1,8,9,8 | 9,1,1.4111,1.9756,congruent,right,,,,,,stimulusFile/physical.xlsx,,,,,,,,,,,,,,,,,,,,,,,,,,,,,,,
,,,,,,,,,,,,,,,8014,2022-02-16_13h01.04.272,multiplicationStroop,2021.2.3,Win32,49.92760497,,,,,,,,,,,,,,,,,,,,,0,1,1,1,1,stimulusFile/physical.xlsx,PHYSICALLY larger (larger font size).,images/physicallyLarger.png,,,,,,,,,,,,,,,,,,,,,,,,,,,,,
,,,,,,,,,,,,,,,8014,2022-02-16_13h01.04.272,multiplicationStroop,2021.2.3,Win32,49.92760497,,,,,,,,,,,,,,,,,,,,,,,,,,,,,space,9.9209,space,1.7863,72,7.7482,1,0,0,0,17,1,9,×,8,9 × 8,congruent,largerFirst,2,1,72,,,,,,,,
,,,,,,,,,,,,,,,8014,2022-02-16_13h01.04.272,multiplicationStroop,2021.2.3,Win32,49.92760497,,,,,,,,,,,,,,,,,,,,,,,,,,,,,,,,,45,3.1704,1,0,1,1,23,1,9,×,5,9 × 5,congruent,largerFirst,2,1,45,,,,,,,,
,,,,,,,,,,,,,,,8014,2022-02-16_13h01.04.272,multiplicationStroop,2021.2.3,Win32,49.92760497,,,,,,,,,,,,,,,,,,,,,,,,,,,,,,,,,49,1.9711,1,0,2,2,33,1,7,×,7,7 × 7,neutral,tie,2,1,49,,,,,,,,
,,,,,,,,,,,,,,,8014,2022-02-16_13h01.04.272,multiplicationStroop,2021.2.3,Win32,49.92760497,,,,,,,,,,,,,,,,,,,,,,,,,,,,,,,,,64,4.4595,1,0,3,3,34,1,8,×,8,8 × 8,neutral,tie,2,1,64,,,,,,,,
,,,,,,,,,,,,,,,8014,2022-02-16_13h01.04.272,multiplicationStroop,2021.2.3,Win32,49.92760497,,,,,,,,,,,,,,,,,,,,,,,,,,,,,,,,,18,2.0708,1,0,4,4,11,1,3,×,6,3 × 6,congruent,smallerFirst,1,2,18,,,,,,,,
,,,,,,,,,,,,,,,8014,2022-02-16_13h01.04.272,multiplicationStroop,2021.2.3,Win32,49.92760497,,,,,,,,,,,,,,,,,,,,,,,,,,,,,,,,,16,1.7191,1,0,5,5,5,1,2,×,8,2 × 8,congruent,smallerFirst,1,2,16,,,,,,,,
,,,,,,,,,,,,,,,8014,2022-02-16_13h01.04.272,multiplicationStroop,2021.2.3,Win32,49.92760497,,,,,,,,,,,,,,,,,,,,,,,,,,,,,,,,,81,2.6797,1,0,6,6,35,1,9,×,9,9 × 9,neutral,tie,2,1,81,,,,,,,,
,,,,,,,,,,,,,,,8014,2022-02-16_13h01.04.272,multiplicationStroop,2021.2.3,Win32,49.92760497,,,,,,,,,,,,,,,,,,,,,,,,,,,,,,,,,42,2.6395,1,0,7,7,3,1,6,×,7,6 × 7,congruent,smallerFirst,1,2,42,,,,,,,,
,,,,,,,,,,,,,,,8014,2022-02-16_13h01.04.272,multiplicationStroop,2021.2.3,Win32,49.92760497,,,,,,,,,,,,,,,,,,,,,,,,,,,,,,,,,3,3.1107,0,0,8,8,20,1,8,×,4,8 × 4,congruent,largerFirst,2,1,32,,,,,,,,
,,,,,,,,,,,,,,,8014,2022-02-16_13h01.04.272,multiplicationStroop,2021.2.3,Win32,49.92760497,,,,,,,,,,,,,,,,,,,,,,,,,,,,,,,,,21,1.3988,1,0,9,9,16,1,7,×,3,7 × 3,congruent,largerFirst,2,1,21,,,,,,,,
,,,,,,,,,,,,,,,8014,2022-02-16_13h01.04.272,multiplicationStroop,2021.2.3,Win32,49.92760497,,,,,,,,,,,,,,,,,,,,,,,,,,,,,,,,,63,4.7995,1,0,10,10,21,1,9,×,7,9 × 7,congruent,largerFirst,2,1,63,,,,,,,,
,,,,,,,,,,,,,,,8014,2022-02-16_13h01.04.272,multiplicationStroop,2021.2.3,Win32,49.92760497,,,,,,,,,,,,,,,,,,,,,,,,,,,,,,,,,4,1.631,1,0,11,11,28,1,2,×,2,2 × 2,neutral,tie,2,1,4,,,,,,,,
,,,,,,,,,,,,,,,8014,2022-02-16_13h01.04.272,multiplicationStroop,2021.2.3,Win32,49.92760497,,,,,,,,,,,,,,,,,,,,,,,,,,,,,,,,,65,3.3597,0,0,12,12,8,1,7,×,8,7 × 8,congruent,smallerFirst,1,2,56,,,,,,,,
,,,,,,,,,,,,,,,8014,2022-02-16_13h01.04.272,multiplicationStroop,2021.2.3,Win32,49.92760497,,,,,,,,,,,,,,,,,,,,,,,,,,,,,,,,,36,2.6706,1,0,13,13,32,1,6,×,6,6 × 6,neutral,tie,2,1,36,,,,,,,,
,,,,,,,,,,,,,,,8014,2022-02-16_13h01.04.272,multiplicationStroop,2021.2.3,Win32,49.92760497,,,,,,,,,,,,,,,,,,,,,,,,,,,,,,,,,25,2.3393,1,0,14,14,31,1,5,×,5,5 × 5,neutral,tie,2,1,25,,,,,,,,
,,,,,,,,,,,,,,,8014,2022-02-16_13h01.04.272,multiplicationStroop,2021.2.3,Win32,49.92760497,,,,,,,,,,,,,,,,,,,,,,,,,,,,,,,,,10,1.6597,1,0,15,15,24,1,5,×,2,5 × 2,congruent,largerFirst,2,1,10,,,,,,,,
,,,,,,,,,,,,,,,8014,2022-02-16_13h01.04.272,multiplicationStroop,2021.2.3,Win32,49.92760497,,,,,,,,,,,,,,,,,,,,,,,,,,,,,,,,,36,3.0392,1,0,16,16,0,1,4,×,9,4 × 9,congruent,smallerFirst,1,2,36,,,,,,,,
,,,,,,,,,,,,,,,8014,2022-02-16_13h01.04.272,multiplicationStroop,2021.2.3,Win32,49.92760497,,,,,,,,,,,,,,,,,,,,,,,,,,,,,,,,,9,1.7309,1,0,17,17,29,1,3,×,3,3 × 3,neutral,tie,2,1,9,,,,,,,,
,,,,,,,,,,,,,,,8014,2022-02-16_13h01.04.272,multiplicationStroop,2021.2.3,Win32,49.92760497,,,,,,,,,,,,,,,,,,,,,,,,,,,,,,,,,54,2.5394,1,0,18,18,12,1,6,×,9,6 × 9,congruent,smallerFirst,1,2,54,,,,,,,,
,,,,,,,,,,,,,,,8014,2022-02-16_13h01.04.272,multiplicationStroop,2021.2.3,Win32,49.92760497,,,,,,,,,,,,,,,,,,,,,,,,,,,,,,,,,48,2.9597,1,0,19,19,18,1,8,×,6,8 × 6,congruent,largerFirst,2,1,48,,,,,,,,
,,,,,,,,,,,,,,,8014,2022-02-16_13h01.04.272,multiplicationStroop,2021.2.3,Win32,49.92760497,,,,,,,,,,,,,,,,,,,,,,,,,,,,,,,,,6,2.6595,1,0,20,20,13,1,2,×,3,2 × 3,congruent,smallerFirst,1,2,6,,,,,,,,
,,,,,,,,,,,,,,,8014,2022-02-16_13h01.04.272,multiplicationStroop,2021.2.3,Win32,49.92760497,,,,,,,,,,,,,,,,,,,,,,,,,,,,,,,,,12,2.8309,1,0,21,21,19,1,6,×,2,6 × 2,congruent,largerFirst,2,1,12,,,,,,,,
,,,,,,,,,,,,,,,8014,2022-02-16_13h01.04.272,multiplicationStroop,2021.2.3,Win32,49.92760497,,,,,,,,,,,,,,,,,,,,,,,,,,,,,,,,,24,2.5193,1,0,22,22,25,1,6,×,4,6 × 4,congruent,largerFirst,2,1,24,,,,,,,,
,,,,,,,,,,,,,,,8014,2022-02-16_13h01.04.272,multiplicationStroop,2021.2.3,Win32,49.92760497,,,,,,,,,,,,,,,,,,,,,,,,,,,,,,,,,24,2.9996,1,0,23,23,10,1,3,×,8,3 × 8,congruent,smallerFirst,1,2,24,,,,,,,,
,,,,,,,,,,,,,,,8014,2022-02-16_13h01.04.272,multiplicationStroop,2021.2.3,Win32,49.92760497,,,,,,,,,,,,,,,,,,,,,,,,,,,,,,,,,40,2.2911,1,0,24,24,6,1,5,×,8,5 × 8,congruent,smallerFirst,1,2,40,,,,,,,,
,,,,,,,,,,,,,,,8014,2022-02-16_13h01.04.272,multiplicationStroop,2021.2.3,Win32,49.92760497,,,,,,,,,,,,,,,,,,,,,,,,,,,,,,,,,28,4.1792,1,0,25,25,27,1,7,×,4,7 × 4,congruent,largerFirst,2,1,28,,,,,,,,
,,,,,,,,,,,,,,,8014,2022-02-16_13h01.04.272,multiplicationStroop,2021.2.3,Win32,49.92760497,,,,,,,,,,,,,,,,,,,,,,,,,,,,,,,,,27,3.3713,1,0,26,26,26,1,9,×,3,9 × 3,congruent,largerFirst,2,1,27,,,,,,,,
,,,,,,,,,,,,,,,8014,2022-02-16_13h01.04.272,multiplicationStroop,2021.2.3,Win32,49.92760497,,,,,,,,,,,,,,,,,,,,,,,,,,,,,,,,,35,3.0302,1,0,27,27,1,1,5,×,7,5 × 7,congruent,smallerFirst,1,2,35,,,,,,,,
,,,,,,,,,,,,,,,8014,2022-02-16_13h01.04.272,multiplicationStroop,2021.2.3,Win32,49.92760497,,,,,,,,,,,,,,,,,,,,,,,,,,,,,,,,,30,1.7997,1,0,28,28,15,1,6,×,5,6 × 5,congruent,largerFirst,2,1,30,,,,,,,,
,,,,,,,,,,,,,,,8014,2022-02-16_13h01.04.272,multiplicationStroop,2021.2.3,Win32,49.92760497,,,,,,,,,,,,,,,,,,,,,,,,,,,,,,,,,14,2.3591,1,0,29,29,14,1,7,×,2,7 × 2,congruent,largerFirst,2,1,14,,,,,,,,
,,,,,,,,,,,,,,,8014,2022-02-16_13h01.04.272,multiplicationStroop,2021.2.3,Win32,49.92760497,,,,,,,,,,,,,,,,,,,,,,,,,,,,,,,,,15,1.5802,1,0,30,30,4,1,3,×,5,3 × 5,congruent,smallerFirst,1,2,15,,,,,,,,
,,,,,,,,,,,,,,,8014,2022-02-16_13h01.04.272,multiplicationStroop,2021.2.3,Win32,49.92760497,,,,,,,,,,,,,,,,,,,,,,,,,,,,,,,,,18,1.6991,1,0,31,31,22,1,9,×,2,9 × 2,congruent,largerFirst,2,1,18,,,,,,,,
,,,,,,,,,,,,,,,8014,2022-02-16_13h01.04.272,multiplicationStroop,2021.2.3,Win32,49.92760497,,,,,,,,,,,,,,,,,,,,,,,,,,,,,,,,,16,1.5997,1,0,32,32,30,1,4,×,4,4 × 4,neutral,tie,2,1,16,,,,,,,,
,,,,,,,,,,,,,,,8014,2022-02-16_13h01.04.272,multiplicationStroop,2021.2.3,Win32,49.92760497,,,,,,,,,,,,,,,,,,,,,,,,,,,,,,,,,20,1.5393,1,0,33,33,7,1,4,×,5,4 × 5,congruent,smallerFirst,1,2,20,,,,,,,,
,,,,,,,,,,,,,,,8014,2022-02-16_13h01.04.272,multiplicationStroop,2021.2.3,Win32,49.92760497,,,,,,,,,,,,,,,,,,,,,,,,,,,,,,,,,8,1.6589,1,0,34,34,9,1,2,×,4,2 × 4,congruent,smallerFirst,1,2,8,,,,,,,,
,,,,,,,,,,,,,,,8014,2022-02-16_13h01.04.272,multiplicationStroop,2021.2.3,Win32,49.92760497,,,,,,,,,,,,,,,,,,,,,,,,,,,,,,,,,12,1.4199,1,0,35,35,2,1,3,×,4,3 × 4,congruent,smallerFirst,1,2,12,,,,,,,,
,,,,,,,,,,,,,,,8014,2022-02-16_13h01.04.272,multiplicationStroop,2021.2.3,Win32,49.92760497,,,,,,,,,,,,,,,,,,,,,,,,,,,,,,,,,,,,,,,,,,,,,,,,,,0,0,0,2,1,stimulusFile/mult_blk3_congruent.xlsx,,
,,,,,,,,,,,,,,,8014,2022-02-16_13h01.04.272,multiplicationStroop,2021.2.3,Win32,49.92760497,,,,,,,,,,,,,,,,,,,,,,,,,,,,,,,space,9.4511,25,2.1686,1,0,0,0,31,1,5,×,5,5 × 5,neutral,tie,1.5,1.5,25,,,,,,,,
,,,,,,,,,,,,,,,8014,2022-02-16_13h01.04.272,multiplicationStroop,2021.2.3,Win32,49.92760497,,,,,,,,,,,,,,,,,,,,,,,,,,,,,,,,,16,3.0434,1,0,1,1,13,1,2,×,8,2 × 8,neutral,smallerFirst,1.5,1.5,16,,,,,,,,
,,,,,,,,,,,,,,,8014,2022-02-16_13h01.04.272,multiplicationStroop,2021.2.3,Win32,49.92760497,,,,,,,,,,,,,,,,,,,,,,,,,,,,,,,,,49,2.2789,1,0,2,2,33,1,7,×,7,7 × 7,neutral,tie,1.5,1.5,49,,,,,,,,
,,,,,,,,,,,,,,,8014,2022-02-16_13h01.04.272,multiplicationStroop,2021.2.3,Win32,49.92760497,,,,,,,,,,,,,,,,,,,,,,,,,,,,,,,,,54,9.979,1,0,3,3,7,1,6,×,9,6 × 9,neutral,smallerFirst,1.5,1.5,54,,,,,,,,
,,,,,,,,,,,,,,,8014,2022-02-16_13h01.04.272,multiplicationStroop,2021.2.3,Win32,49.92760497,,,,,,,,,,,,,,,,,,,,,,,,,,,,,,,,,36,3.4621,1,0,4,4,27,1,9,×,4,9 × 4,neutral,largerFirst,1.5,1.5,36,,,,,,,,
,,,,,,,,,,,,,,,8014,2022-02-16_13h01.04.272,multiplicationStroop,2021.2.3,Win32,49.92760497,,,,,,,,,,,,,,,,,,,,,,,,,,,,,,,,,36,1.9434,1,0,5,5,32,1,6,×,6,6 × 6,neutral,tie,1.5,1.5,36,,,,,,,,
,,,,,,,,,,,,,,,8014,2022-02-16_13h01.04.272,multiplicationStroop,2021.2.3,Win32,49.92760497,,,,,,,,,,,,,,,,,,,,,,,,,,,,,,,,,8,1.6945,1,0,6,6,3,1,2,×,4,2 × 4,neutral,smallerFirst,1.5,1.5,8,,,,,,,,
,,,,,,,,,,,,,,,8014,2022-02-16_13h01.04.272,multiplicationStroop,2021.2.3,Win32,49.92760497,,,,,,,,,,,,,,,,,,,,,,,,,,,,,,,,,16,1.5036,1,0,7,7,30,1,4,×,4,4 × 4,neutral,tie,1.5,1.5,16,,,,,,,,
,,,,,,,,,,,,,,,8014,2022-02-16_13h01.04.272,multiplicationStroop,2021.2.3,Win32,49.92760497,,,,,,,,,,,,,,,,,,,,,,,,,,,,,,,,,28,3.4983,1,0,8,8,17,1,7,×,4,7 × 4,neutral,largerFirst,1.5,1.5,28,,,,,,,,
,,,,,,,,,,,,,,,8014,2022-02-16_13h01.04.272,multiplicationStroop,2021.2.3,Win32,49.92760497,,,,,,,,,,,,,,,,,,,,,,,,,,,,,,,,,12,1.4729,1,0,9,9,21,1,4,×,3,4 × 3,neutral,largerFirst,1.5,1.5,12,,,,,,,,
,,,,,,,,,,,,,,,8014,2022-02-16_13h01.04.272,multiplicationStroop,2021.2.3,Win32,49.92760497,,,,,,,,,,,,,,,,,,,,,,,,,,,,,,,,,9,1.5347,1,0,10,10,29,1,3,×,3,3 × 3,neutral,tie,1.5,1.5,9,,,,,,,,
,,,,,,,,,,,,,,,8014,2022-02-16_13h01.04.272,multiplicationStroop,2021.2.3,Win32,49.92760497,,,,,,,,,,,,,,,,,,,,,,,,,,,,,,,,,18,1.5174,1,0,11,11,18,1,9,×,2,9 × 2,neutral,largerFirst,1.5,1.5,18,,,,,,,,
,,,,,,,,,,,,,,,8014,2022-02-16_13h01.04.272,multiplicationStroop,2021.2.3,Win32,49.92760497,,,,,,,,,,,,,,,,,,,,,,,,,,,,,,,,,21,1.3793,1,0,12,12,8,1,3,×,7,3 × 7,neutral,smallerFirst,1.5,1.5,21,,,,,,,,
,,,,,,,,,,,,,,,8014,2022-02-16_13h01.04.272,multiplicationStroop,2021.2.3,Win32,49.92760497,,,,,,,,,,,,,,,,,,,,,,,,,,,,,,,,,24,2.5823,1,0,13,13,22,1,8,×,3,8 × 3,neutral,largerFirst,1.5,1.5,24,,,,,,,,
,,,,,,,,,,,,,,,8014,2022-02-16_13h01.04.272,multiplicationStroop,2021.2.3,Win32,49.92760497,,,,,,,,,,,,,,,,,,,,,,,,,,,,,,,,,40,2.3475,1,0,14,14,24,1,8,×,5,8 × 5,neutral,largerFirst,1.5,1.5,40,,,,,,,,
,,,,,,,,,,,,,,,8014,2022-02-16_13h01.04.272,multiplicationStroop,2021.2.3,Win32,49.92760497,,,,,,,,,,,,,,,,,,,,,,,,,,,,,,,,,24,3.3976,1,0,15,15,2,1,4,×,6,4 × 6,neutral,smallerFirst,1.5,1.5,24,,,,,,,,
,,,,,,,,,,,,,,,8014,2022-02-16_13h01.04.272,multiplicationStroop,2021.2.3,Win32,49.92760497,,,,,,,,,,,,,,,,,,,,,,,,,,,,,,,,,14,1.57,1,0,16,16,16,1,7,×,2,7 × 2,neutral,largerFirst,1.5,1.5,14,,,,,,,,
,,,,,,,,,,,,,,,8014,2022-02-16_13h01.04.272,multiplicationStroop,2021.2.3,Win32,49.92760497,,,,,,,,,,,,,,,,,,,,,,,,,,,,,,,,,56,6.0985,1,0,17,17,9,1,7,×,8,7 × 8,neutral,smallerFirst,1.5,1.5,56,,,,,,,,
,,,,,,,,,,,,,,,8014,2022-02-16_13h01.04.272,multiplicationStroop,2021.2.3,Win32,49.92760497,,,,,,,,,,,,,,,,,,,,,,,,,,,,,,,,,45,2.8142,1,0,18,18,10,1,5,×,9,5 × 9,neutral,smallerFirst,1.5,1.5,45,,,,,,,,
,,,,,,,,,,,,,,,8014,2022-02-16_13h01.04.272,multiplicationStroop,2021.2.3,Win32,49.92760497,,,,,,,,,,,,,,,,,,,,,,,,,,,,,,,,,12,1.9874,1,0,19,19,25,1,6,×,2,6 × 2,neutral,largerFirst,1.5,1.5,12,,,,,,,,
,,,,,,,,,,,,,,,8014,2022-02-16_13h01.04.272,multiplicationStroop,2021.2.3,Win32,49.92760497,,,,,,,,,,,,,,,,,,,,,,,,,,,,,,,,,72,2.8431,1,0,20,20,11,1,8,×,9,8 × 9,neutral,smallerFirst,1.5,1.5,72,,,,,,,,
,,,,,,,,,,,,,,,8014,2022-02-16_13h01.04.272,multiplicationStroop,2021.2.3,Win32,49.92760497,,,,,,,,,,,,,,,,,,,,,,,,,,,,,,,,,18,1.9155,1,0,21,21,0,1,3,×,6,3 × 6,neutral,smallerFirst,1.5,1.5,18,,,,,,,,
,,,,,,,,,,,,,,,8014,2022-02-16_13h01.04.272,multiplicationStroop,2021.2.3,Win32,49.92760497,,,,,,,,,,,,,,,,,,,,,,,,,,,,,,,,,6,1.7996,1,0,22,22,26,1,3,×,2,3 × 2,neutral,largerFirst,1.5,1.5,6,,,,,,,,
,,,,,,,,,,,,,,,8014,2022-02-16_13h01.04.272,multiplicationStroop,2021.2.3,Win32,49.92760497,,,,,,,,,,,,,,,,,,,,,,,,,,,,,,,,,42,2.4235,1,0,23,23,6,1,6,×,7,6 × 7,neutral,smallerFirst,1.5,1.5,42,,,,,,,,
,,,,,,,,,,,,,,,8014,2022-02-16_13h01.04.272,multiplicationStroop,2021.2.3,Win32,49.92760497,,,,,,,,,,,,,,,,,,,,,,,,,,,,,,,,,32,2.7743,1,0,24,24,23,1,8,×,4,8 × 4,neutral,largerFirst,1.5,1.5,32,,,,,,,,
,,,,,,,,,,,,,,,8014,2022-02-16_13h01.04.272,multiplicationStroop,2021.2.3,Win32,49.92760497,,,,,,,,,,,,,,,,,,,,,,,,,,,,,,,,,48,2.8495,1,0,25,25,15,1,8,×,6,8 × 6,neutral,largerFirst,1.5,1.5,48,,,,,,,,
,,,,,,,,,,,,,,,8014,2022-02-16_13h01.04.272,multiplicationStroop,2021.2.3,Win32,49.92760497,,,,,,,,,,,,,,,,,,,,,,,,,,,,,,,,,30,2.0588,1,0,26,26,19,1,6,×,5,6 × 5,neutral,largerFirst,1.5,1.5,30,,,,,,,,
,,,,,,,,,,,,,,,8014,2022-02-16_13h01.04.272,multiplicationStroop,2021.2.3,Win32,49.92760497,,,,,,,,,,,,,,,,,,,,,,,,,,,,,,,,,63,3.678,1,0,27,27,12,1,7,×,9,7 × 9,neutral,smallerFirst,1.5,1.5,63,,,,,,,,
,,,,,,,,,,,,,,,8014,2022-02-16_13h01.04.272,multiplicationStroop,2021.2.3,Win32,49.92760497,,,,,,,,,,,,,,,,,,,,,,,,,,,,,,,,,10,2.4553,1,0,28,28,4,1,2,×,5,2 × 5,neutral,smallerFirst,1.5,1.5,10,,,,,,,,
,,,,,,,,,,,,,,,8014,2022-02-16_13h01.04.272,multiplicationStroop,2021.2.3,Win32,49.92760497,,,,,,,,,,,,,,,,,,,,,,,,,,,,,,,,,4,1.394,1,0,29,29,28,1,2,×,2,2 × 2,neutral,tie,1.5,1.5,4,,,,,,,,
,,,,,,,,,,,,,,,8014,2022-02-16_13h01.04.272,multiplicationStroop,2021.2.3,Win32,49.92760497,,,,,,,,,,,,,,,,,,,,,,,,,,,,,,,,,64,2.4987,1,0,30,30,34,1,8,×,8,8 × 8,neutral,tie,1.5,1.5,64,,,,,,,,
,,,,,,,,,,,,,,,8014,2022-02-16_13h01.04.272,multiplicationStroop,2021.2.3,Win32,49.92760497,,,,,,,,,,,,,,,,,,,,,,,,,,,,,,,,,35,2.3385,1,0,31,31,1,1,5,×,7,5 × 7,neutral,smallerFirst,1.5,1.5,35,,,,,,,,
,,,,,,,,,,,,,,,8014,2022-02-16_13h01.04.272,multiplicationStroop,2021.2.3,Win32,49.92760497,,,,,,,,,,,,,,,,,,,,,,,,,,,,,,,,,15,1.5236,1,0,32,32,5,1,3,×,5,3 × 5,neutral,smallerFirst,1.5,1.5,15,,,,,,,,
,,,,,,,,,,,,,,,8014,2022-02-16_13h01.04.272,multiplicationStroop,2021.2.3,Win32,49.92760497,,,,,,,,,,,,,,,,,,,,,,,,,,,,,,,,,81,1.4399,1,0,33,33,35,1,9,×,9,9 × 9,neutral,tie,1.5,1.5,81,,,,,,,,
,,,,,,,,,,,,,,,8014,2022-02-16_13h01.04.272,multiplicationStroop,2021.2.3,Win32,49.92760497,,,,,,,,,,,,,,,,,,,,,,,,,,,,,,,,,18,1.7538,0,0,34,34,14,1,9,×,3,9 × 3,neutral,largerFirst,1.5,1.5,27,,,,,,,,
,,,,,,,,,,,,,,,8014,2022-02-16_13h01.04.272,multiplicationStroop,2021.2.3,Win32,49.92760497,,,,,,,,,,,,,,,,,,,,,,,,,,,,,,,,,20,1.6388,1,0,35,35,20,1,5,×,4,5 × 4,neutral,largerFirst,1.5,1.5,20,,,,,,,,
,,,,,,,,,,,,,,,8014,2022-02-16_13h01.04.272,multiplicationStroop,2021.2.3,Win32,49.92760497,,,,,,,,,,,,,,,,,,,,,,,,,,,,,,,,,,,,,,,,,,,,,,,,,,0,1,1,1,1,stimulusFile/mult_blk2.xlsx,,
,,,,,,,,,,,,,,,8014,2022-02-16_13h01.04.272,multiplicationStroop,2021.2.3,Win32,49.92760497,,,,,,,,,,,,,,,,,,,,,,,,,,,,,,,space,14.4015,54,5.7528,1,0,0,0,21,1,9,×,6,9 × 6,neutral,largerFirst,1.5,1.5,54,,,,,,,,
,,,,,,,,,,,,,,,8014,2022-02-16_13h01.04.272,multiplicationStroop,2021.2.3,Win32,49.92760497,,,,,,,,,,,,,,,,,,,,,,,,,,,,,,,,,16,2.2107,1,0,1,1,27,1,8,×,2,8 × 2,neutral,largerFirst,1.5,1.5,16,,,,,,,,
,,,,,,,,,,,,,,,8014,2022-02-16_13h01.04.272,multiplicationStroop,2021.2.3,Win32,49.92760497,,,,,,,,,,,,,,,,,,,,,,,,,,,,,,,,,20,1.4985,1,0,2,2,6,1,4,×,5,4 × 5,neutral,smallerFirst,1.5,1.5,20,,,,,,,,
,,,,,,,,,,,,,,,8014,2022-02-16_13h01.04.272,multiplicationStroop,2021.2.3,Win32,49.92760497,,,,,,,,,,,,,,,,,,,,,,,,,,,,,,,,,10,1.3986,1,0,3,3,18,1,5,×,2,5 × 2,neutral,largerFirst,1.5,1.5,10,,,,,,,,
,,,,,,,,,,,,,,,8014,2022-02-16_13h01.04.272,multiplicationStroop,2021.2.3,Win32,49.92760497,,,,,,,,,,,,,,,,,,,,,,,,,,,,,,,,,4,1.3993,1,0,4,4,28,1,2,×,2,2 × 2,neutral,tie,1.5,1.5,4,,,,,,,,
,,,,,,,,,,,,,,,8014,2022-02-16_13h01.04.272,multiplicationStroop,2021.2.3,Win32,49.92760497,,,,,,,,,,,,,,,,,,,,,,,,,,,,,,,,,12,1.4194,1,0,5,5,7,1,3,×,4,3 × 4,neutral,smallerFirst,1.5,1.5,12,,,,,,,,
,,,,,,,,,,,,,,,8014,2022-02-16_13h01.04.272,multiplicationStroop,2021.2.3,Win32,49.92760497,,,,,,,,,,,,,,,,,,,,,,,,,,,,,,,,,3,3.0586,0,0,6,6,9,1,4,×,8,4 × 8,neutral,smallerFirst,1.5,1.5,32,,,,,,,,
,,,,,,,,,,,,,,,8014,2022-02-16_13h01.04.272,multiplicationStroop,2021.2.3,Win32,49.92760497,,,,,,,,,,,,,,,,,,,,,,,,,,,,,,,,,24,4.0098,1,0,7,7,8,1,3,×,8,3 × 8,neutral,smallerFirst,1.5,1.5,24,,,,,,,,
,,,,,,,,,,,,,,,8014,2022-02-16_13h01.04.272,multiplicationStroop,2021.2.3,Win32,49.92760497,,,,,,,,,,,,,,,,,,,,,,,,,,,,,,,,,81,1.6511,1,0,8,8,35,1,9,×,9,9 × 9,neutral,tie,1.5,1.5,81,,,,,,,,
,,,,,,,,,,,,,,,8014,2022-02-16_13h01.04.272,multiplicationStroop,2021.2.3,Win32,49.92760497,,,,,,,,,,,,,,,,,,,,,,,,,,,,,,,,,9,1.6994,1,0,9,9,29,1,3,×,3,3 × 3,neutral,tie,1.5,1.5,9,,,,,,,,
,,,,,,,,,,,,,,,8014,2022-02-16_13h01.04.272,multiplicationStroop,2021.2.3,Win32,49.92760497,,,,,,,,,,,,,,,,,,,,,,,,,,,,,,,,,24,5.398,1,0,10,10,16,1,6,×,4,6 × 4,neutral,largerFirst,1.5,1.5,24,,,,,,,,
,,,,,,,,,,,,,,,8014,2022-02-16_13h01.04.272,multiplicationStroop,2021.2.3,Win32,49.92760497,,,,,,,,,,,,,,,,,,,,,,,,,,,,,,,,,14,1.651,1,0,11,11,2,1,2,×,7,2 × 7,neutral,smallerFirst,1.5,1.5,14,,,,,,,,
,,,,,,,,,,,,,,,8014,2022-02-16_13h01.04.272,multiplicationStroop,2021.2.3,Win32,49.92760497,,,,,,,,,,,,,,,,,,,,,,,,,,,,,,,,,48,3.7027,1,0,12,12,1,1,6,×,8,6 × 8,neutral,smallerFirst,1.5,1.5,48,,,,,,,,
,,,,,,,,,,,,,,,8014,2022-02-16_13h01.04.272,multiplicationStroop,2021.2.3,Win32,49.92760497,,,,,,,,,,,,,,,,,,,,,,,,,,,,,,,,,21,1.6677,1,0,13,13,22,1,7,×,3,7 × 3,neutral,largerFirst,1.5,1.5,21,,,,,,,,
,,,,,,,,,,,,,,,8014,2022-02-16_13h01.04.272,multiplicationStroop,2021.2.3,Win32,49.92760497,,,,,,,,,,,,,,,,,,,,,,,,,,,,,,,,,15,1.5794,1,0,14,14,19,1,5,×,3,5 × 3,neutral,largerFirst,1.5,1.5,15,,,,,,,,
,,,,,,,,,,,,,,,8014,2022-02-16_13h01.04.272,multiplicationStroop,2021.2.3,Win32,49.92760497,,,,,,,,,,,,,,,,,,,,,,,,,,,,,,,,,40,2.0179,1,0,15,15,10,1,5,×,8,5 × 8,neutral,smallerFirst,1.5,1.5,40,,,,,,,,
,,,,,,,,,,,,,,,8014,2022-02-16_13h01.04.272,multiplicationStroop,2021.2.3,Win32,49.92760497,,,,,,,,,,,,,,,,,,,,,,,,,,,,,,,,,30,5.0189,1,0,16,16,5,1,5,×,6,5 × 6,neutral,smallerFirst,1.5,1.5,30,,,,,,,,
,,,,,,,,,,,,,,,8014,2022-02-16_13h01.04.272,multiplicationStroop,2021.2.3,Win32,49.92760497,,,,,,,,,,,,,,,,,,,,,,,,,,,,,,,,,27,2.7965,1,0,17,17,0,1,3,×,9,3 × 9,neutral,smallerFirst,1.5,1.5,27,,,,,,,,
,,,,,,,,,,,,,,,8014,2022-02-16_13h01.04.272,multiplicationStroop,2021.2.3,Win32,49.92760497,,,,,,,,,,,,,,,,,,,,,,,,,,,,,,,,,25,1.8,1,0,18,18,31,1,5,×,5,5 × 5,neutral,tie,1.5,1.5,25,,,,,,,,
,,,,,,,,,,,,,,,8014,2022-02-16_13h01.04.272,multiplicationStroop,2021.2.3,Win32,49.92760497,,,,,,,,,,,,,,,,,,,,,,,,,,,,,,,,,35,2.0943,1,0,19,19,15,1,7,×,5,7 × 5,neutral,largerFirst,1.5,1.5,35,,,,,,,,
,,,,,,,,,,,,,,,8014,2022-02-16_13h01.04.272,multiplicationStroop,2021.2.3,Win32,49.92760497,,,,,,,,,,,,,,,,,,,,,,,,,,,,,,,,,64,2.0982,1,0,20,20,34,1,8,×,8,8 × 8,neutral,tie,1.5,1.5,64,,,,,,,,
,,,,,,,,,,,,,,,8014,2022-02-16_13h01.04.272,multiplicationStroop,2021.2.3,Win32,49.92760497,,,,,,,,,,,,,,,,,,,,,,,,,,,,,,,,,72,3.5988,1,0,21,21,25,1,9,×,8,9 × 8,neutral,largerFirst,1.5,1.5,72,,,,,,,,
,,,,,,,,,,,,,,,8014,2022-02-16_13h01.04.272,multiplicationStroop,2021.2.3,Win32,49.92760497,,,,,,,,,,,,,,,,,,,,,,,,,,,,,,,,,8,1.6302,1,0,22,22,17,1,4,×,2,4 × 2,neutral,largerFirst,1.5,1.5,8,,,,,,,,
,,,,,,,,,,,,,,,8014,2022-02-16_13h01.04.272,multiplicationStroop,2021.2.3,Win32,49.92760497,,,,,,,,,,,,,,,,,,,,,,,,,,,,,,,,,35,2.0381,0,0,23,23,24,1,9,×,5,9 × 5,neutral,largerFirst,1.5,1.5,45,,,,,,,,
,,,,,,,,,,,,,,,8014,2022-02-16_13h01.04.272,multiplicationStroop,2021.2.3,Win32,49.92760497,,,,,,,,,,,,,,,,,,,,,,,,,,,,,,,,,16,2.0592,1,0,24,24,30,1,4,×,4,4 × 4,neutral,tie,1.5,1.5,16,,,,,,,,
,,,,,,,,,,,,,,,8014,2022-02-16_13h01.04.272,multiplicationStroop,2021.2.3,Win32,49.92760497,,,,,,,,,,,,,,,,,,,,,,,,,,,,,,,,,6,1.6592,1,0,25,25,12,1,2,×,3,2 × 3,neutral,smallerFirst,1.5,1.5,6,,,,,,,,
,,,,,,,,,,,,,,,8014,2022-02-16_13h01.04.272,multiplicationStroop,2021.2.3,Win32,49.92760497,,,,,,,,,,,,,,,,,,,,,,,,,,,,,,,,,18,1.9218,1,0,26,26,14,1,6,×,3,6 × 3,neutral,largerFirst,1.5,1.5,18,,,,,,,,
,,,,,,,,,,,,,,,8014,2022-02-16_13h01.04.272,multiplicationStroop,2021.2.3,Win32,49.92760497,,,,,,,,,,,,,,,,,,,,,,,,,,,,,,,,,36,3.579,1,0,27,27,13,1,4,×,9,4 × 9,neutral,smallerFirst,1.5,1.5,36,,,,,,,,
,,,,,,,,,,,,,,,8014,2022-02-16_13h01.04.272,multiplicationStroop,2021.2.3,Win32,49.92760497,,,,,,,,,,,,,,,,,,,,,,,,,,,,,,,,,42,9.2278,1,0,28,28,20,1,7,×,6,7 × 6,neutral,largerFirst,1.5,1.5,42,,,,,,,,
,,,,,,,,,,,,,,,8014,2022-02-16_13h01.04.272,multiplicationStroop,2021.2.3,Win32,49.92760497,,,,,,,,,,,,,,,,,,,,,,,,,,,,,,,,,18,1.5541,1,0,29,29,4,1,2,×,9,2 × 9,neutral,smallerFirst,1.5,1.5,18,,,,,,,,
,,,,,,,,,,,,,,,8014,2022-02-16_13h01.04.272,multiplicationStroop,2021.2.3,Win32,49.92760497,,,,,,,,,,,,,,,,,,,,,,,,,,,,,,,,,56,9.4553,1,0,30,30,23,1,8,×,7,8 × 7,neutral,largerFirst,1.5,1.5,56,,,,,,,,
,,,,,,,,,,,,,,,8014,2022-02-16_13h01.04.272,multiplicationStroop,2021.2.3,Win32,49.92760497,,,,,,,,,,,,,,,,,,,,,,,,,,,,,,,,,63,3.5694,1,0,31,31,26,1,9,×,7,9 × 7,neutral,largerFirst,1.5,1.5,63,,,,,,,,
,,,,,,,,,,,,,,,8014,2022-02-16_13h01.04.272,multiplicationStroop,2021.2.3,Win32,49.92760497,,,,,,,,,,,,,,,,,,,,,,,,,,,,,,,,,36,2.1393,1,0,32,32,32,1,6,×,6,6 × 6,neutral,tie,1.5,1.5,36,,,,,,,,
,,,,,,,,,,,,,,,8014,2022-02-16_13h01.04.272,multiplicationStroop,2021.2.3,Win32,49.92760497,,,,,,,,,,,,,,,,,,,,,,,,,,,,,,,,,28,3.7987,1,0,33,33,3,1,4,×,7,4 × 7,neutral,smallerFirst,1.5,1.5,28,,,,,,,,
,,,,,,,,,,,,,,,8014,2022-02-16_13h01.04.272,multiplicationStroop,2021.2.3,Win32,49.92760497,,,,,,,,,,,,,,,,,,,,,,,,,,,,,,,,,49,2.3307,1,0,34,34,33,1,7,×,7,7 × 7,neutral,tie,1.5,1.5,49,,,,,,,,
,,,,,,,,,,,,,,,8014,2022-02-16_13h01.04.272,multiplicationStroop,2021.2.3,Win32,49.92760497,,,,,,,,,,,,,,,,,,,,,,,,,,,,,,,,,12,2.039,1,0,35,35,11,1,2,×,6,2 × 6,neutral,smallerFirst,1.5,1.5,12,,,,,,,,
,,,,,,,,,,,,,,,8014,2022-02-16_13h01.04.272,multiplicationStroop,2021.2.3,Win32,49.92760497,,,,,,,,,,,,,,,,,,,,,,,,,,,,,,,,,,,,,,,,,,,,,,,,,,0,2,2,0,1,stimulusFile/mult_blk1.xlsx,,
,,,,,,,,,,,,,,,8014,2022-02-16_13h01.04.272,multiplicationStroop,2021.2.3,Win32,49.92760497,,,,,,,,,,,,,,,,,,,,,,,,,,,,,,,space,7.9701,10,1.8453,1,0,0,0,10,1,2,×,5,2 × 5,congruent,smallerFirst,1,2,10,,,,,,,,
,,,,,,,,,,,,,,,8014,2022-02-16_13h01.04.272,multiplicationStroop,2021.2.3,Win32,49.92760497,,,,,,,,,,,,,,,,,,,,,,,,,,,,,,,,,8,1.4386,1,0,1,1,23,1,4,×,2,4 × 2,congruent,largerFirst,2,1,8,,,,,,,,
,,,,,,,,,,,,,,,8014,2022-02-16_13h01.04.272,multiplicationStroop,2021.2.3,Win32,49.92760497,,,,,,,,,,,,,,,,,,,,,,,,,,,,,,,,,35,3.0194,0,0,2,2,9,1,5,×,9,5 × 9,congruent,smallerFirst,1,2,45,,,,,,,,
,,,,,,,,,,,,,,,8014,2022-02-16_13h01.04.272,multiplicationStroop,2021.2.3,Win32,49.92760497,,,,,,,,,,,,,,,,,,,,,,,,,,,,,,,,,40,1.7506,1,0,3,3,20,1,8,×,5,8 × 5,congruent,largerFirst,2,1,40,,,,,,,,
,,,,,,,,,,,,,,,8014,2022-02-16_13h01.04.272,multiplicationStroop,2021.2.3,Win32,49.92760497,,,,,,,,,,,,,,,,,,,,,,,,,,,,,,,,,36,3.039,1,0,4,4,14,1,9,×,4,9 × 4,congruent,largerFirst,2,1,36,,,,,,,,
,,,,,,,,,,,,,,,8014,2022-02-16_13h01.04.272,multiplicationStroop,2021.2.3,Win32,49.92760497,,,,,,,,,,,,,,,,,,,,,,,,,,,,,,,,,15,1.429,1,0,5,5,18,1,5,×,3,5 × 3,congruent,largerFirst,2,1,15,,,,,,,,
,,,,,,,,,,,,,,,8014,2022-02-16_13h01.04.272,multiplicationStroop,2021.2.3,Win32,49.92760497,,,,,,,,,,,,,,,,,,,,,,,,,,,,,,,,,36,2.2183,1,0,6,6,32,1,6,×,6,6 × 6,neutral,tie,1,2,36,,,,,,,,
,,,,,,,,,,,,,,,8014,2022-02-16_13h01.04.272,multiplicationStroop,2021.2.3,Win32,49.92760497,,,,,,,,,,,,,,,,,,,,,,,,,,,,,,,,,18,1.4787,1,0,7,7,8,1,2,×,9,2 × 9,congruent,smallerFirst,1,2,18,,,,,,,,
,,,,,,,,,,,,,,,8014,2022-02-16_13h01.04.272,multiplicationStroop,2021.2.3,Win32,49.92760497,,,,,,,,,,,,,,,,,,,,,,,,,,,,,,,,,18,1.5987,1,0,8,8,25,1,6,×,3,6 × 3,congruent,largerFirst,2,1,18,,,,,,,,
,,,,,,,,,,,,,,,8014,2022-02-16_13h01.04.272,multiplicationStroop,2021.2.3,Win32,49.92760497,,,,,,,,,,,,,,,,,,,,,,,,,,,,,,,,,35,2.1387,1,0,9,9,15,1,7,×,5,7 × 5,congruent,largerFirst,2,1,35,,,,,,,,
,,,,,,,,,,,,,,,8014,2022-02-16_13h01.04.272,multiplicationStroop,2021.2.3,Win32,49.92760497,,,,,,,,,,,,,,,,,,,,,,,,,,,,,,,,,32,3.3581,1,0,10,10,6,1,4,×,8,4 × 8,congruent,smallerFirst,1,2,32,,,,,,,,
,,,,,,,,,,,,,,,8014,2022-02-16_13h01.04.272,multiplicationStroop,2021.2.3,Win32,49.92760497,,,,,,,,,,,,,,,,,,,,,,,,,,,,,,,,,81,1.5503,1,0,11,11,35,1,9,×,9,9 × 9,neutral,tie,1,2,81,,,,,,,,
,,,,,,,,,,,,,,,8014,2022-02-16_13h01.04.272,multiplicationStroop,2021.2.3,Win32,49.92760497,,,,,,,,,,,,,,,,,,,,,,,,,,,,,,,,,24,2.6826,1,0,12,12,24,1,8,×,3,8 × 3,congruent,largerFirst,2,1,24,,,,,,,,
,,,,,,,,,,,,,,,8014,2022-02-16_13h01.04.272,multiplicationStroop,2021.2.3,Win32,49.92760497,,,,,,,,,,,,,,,,,,,,,,,,,,,,,,,,,99,1.7399,0,0,13,13,29,1,3,×,3,3 × 3,neutral,tie,1,2,9,,,,,,,,
,,,,,,,,,,,,,,,8014,2022-02-16_13h01.04.272,multiplicationStroop,2021.2.3,Win32,49.92760497,,,,,,,,,,,,,,,,,,,,,,,,,,,,,,,,,14,1.7793,1,0,14,14,0,1,2,×,7,2 × 7,congruent,smallerFirst,1,2,14,,,,,,,,
,,,,,,,,,,,,,,,8014,2022-02-16_13h01.04.272,multiplicationStroop,2021.2.3,Win32,49.92760497,,,,,,,,,,,,,,,,,,,,,,,,,,,,,,,,,21,2.355,1,0,15,15,2,1,3,×,7,3 × 7,congruent,smallerFirst,1,2,21,,,,,,,,
,,,,,,,,,,,,,,,8014,2022-02-16_13h01.04.272,multiplicationStroop,2021.2.3,Win32,49.92760497,,,,,,,,,,,,,,,,,,,,,,,,,,,,,,,,,6,1.7186,1,0,16,16,27,1,3,×,2,3 × 2,congruent,largerFirst,2,1,6,,,,,,,,
,,,,,,,,,,,,,,,8014,2022-02-16_13h01.04.272,multiplicationStroop,2021.2.3,Win32,49.92760497,,,,,,,,,,,,,,,,,,,,,,,,,,,,,,,,,64,5.359,1,0,17,17,34,1,8,×,8,8 × 8,neutral,tie,1,2,64,,,,,,,,
,,,,,,,,,,,,,,,8014,2022-02-16_13h01.04.272,multiplicationStroop,2021.2.3,Win32,49.92760497,,,,,,,,,,,,,,,,,,,,,,,,,,,,,,,,,28,2.2701,1,0,18,18,13,1,4,×,7,4 × 7,congruent,smallerFirst,1,2,28,,,,,,,,
,,,,,,,,,,,,,,,8014,2022-02-16_13h01.04.272,multiplicationStroop,2021.2.3,Win32,49.92760497,,,,,,,,,,,,,,,,,,,,,,,,,,,,,,,,,5,6.2433,0,0,19,19,17,1,7,×,6,7 × 6,congruent,largerFirst,2,1,42,,,,,,,,
,,,,,,,,,,,,,,,8014,2022-02-16_13h01.04.272,multiplicationStroop,2021.2.3,Win32,49.92760497,,,,,,,,,,,,,,,,,,,,,,,,,,,,,,,,,63,8.8676,1,0,20,20,7,1,7,×,9,7 × 9,congruent,smallerFirst,1,2,63,,,,,,,,
,,,,,,,,,,,,,,,8014,2022-02-16_13h01.04.272,multiplicationStroop,2021.2.3,Win32,49.92760497,,,,,,,,,,,,,,,,,,,,,,,,,,,,,,,,,20,1.7491,1,0,21,21,21,1,5,×,4,5 × 4,congruent,largerFirst,2,1,20,,,,,,,,
,,,,,,,,,,,,,,,8014,2022-02-16_13h01.04.272,multiplicationStroop,2021.2.3,Win32,49.92760497,,,,,,,,,,,,,,,,,,,,,,,,,,,,,,,,,27,6.459,1,0,22,22,12,1,3,×,9,3 × 9,congruent,smallerFirst,1,2,27,,,,,,,,
,,,,,,,,,,,,,,,8014,2022-02-16_13h01.04.272,multiplicationStroop,2021.2.3,Win32,49.92760497,,,,,,,,,,,,,,,,,,,,,,,,,,,,,,,,,16,1.7293,1,0,23,23,30,1,4,×,4,4 × 4,neutral,tie,1,2,16,,,,,,,,
,,,,,,,,,,,,,,,8014,2022-02-16_13h01.04.272,multiplicationStroop,2021.2.3,Win32,49.92760497,,,,,,,,,,,,,,,,,,,,,,,,,,,,,,,,,72,4.5589,1,0,24,24,3,1,8,×,9,8 × 9,congruent,smallerFirst,1,2,72,,,,,,,,
,,,,,,,,,,,,,,,8014,2022-02-16_13h01.04.272,multiplicationStroop,2021.2.3,Win32,49.92760497,,,,,,,,,,,,,,,,,,,,,,,,,,,,,,,,,24,6.295,1,0,25,25,11,1,4,×,6,4 × 6,congruent,smallerFirst,1,2,24,,,,,,,,
,,,,,,,,,,,,,,,8014,2022-02-16_13h01.04.272,multiplicationStroop,2021.2.3,Win32,49.92760497,,,,,,,,,,,,,,,,,,,,,,,,,,,,,,,,,49,2.7871,1,0,26,26,33,1,7,×,7,7 × 7,neutral,tie,1,2,49,,,,,,,,
,,,,,,,,,,,,,,,8014,2022-02-16_13h01.04.272,multiplicationStroop,2021.2.3,Win32,49.92760497,,,,,,,,,,,,,,,,,,,,,,,,,,,,,,,,,12,3.0183,1,0,27,27,5,1,2,×,6,2 × 6,congruent,smallerFirst,1,2,12,,,,,,,,
,,,,,,,,,,,,,,,8014,2022-02-16_13h01.04.272,multiplicationStroop,2021.2.3,Win32,49.92760497,,,,,,,,,,,,,,,,,,,,,,,,,,,,,,,,,56,4.0905,1,0,28,28,22,1,8,×,7,8 × 7,congruent,largerFirst,2,1,56,,,,,,,,
,,,,,,,,,,,,,,,8014,2022-02-16_13h01.04.272,multiplicationStroop,2021.2.3,Win32,49.92760497,,,,,,,,,,,,,,,,,,,,,,,,,,,,,,,,,25,2.3315,1,0,29,29,31,1,5,×,5,5 × 5,neutral,tie,1,2,25,,,,,,,,
,,,,,,,,,,,,,,,8014,2022-02-16_13h01.04.272,multiplicationStroop,2021.2.3,Win32,49.92760497,,,,,,,,,,,,,,,,,,,,,,,,,,,,,,,,,4,1.5374,1,0,30,30,28,1,2,×,2,2 × 2,neutral,tie,1,2,4,,,,,,,,
,,,,,,,,,,,,,,,8014,2022-02-16_13h01.04.272,multiplicationStroop,2021.2.3,Win32,49.92760497,,,,,,,,,,,,,,,,,,,,,,,,,,,,,,,,,16,1.8445,1,0,31,31,19,1,8,×,2,8 × 2,congruent,largerFirst,2,1,16,,,,,,,,
,,,,,,,,,,,,,,,8014,2022-02-16_13h01.04.272,multiplicationStroop,2021.2.3,Win32,49.92760497,,,,,,,,,,,,,,,,,,,,,,,,,,,,,,,,,48,5.3188,1,0,32,32,4,1,6,×,8,6 × 8,congruent,smallerFirst,1,2,48,,,,,,,,
,,,,,,,,,,,,,,,8014,2022-02-16_13h01.04.272,multiplicationStroop,2021.2.3,Win32,49.92760497,,,,,,,,,,,,,,,,,,,,,,,,,,,,,,,,,12,1.6277,1,0,33,33,16,1,4,×,3,4 × 3,congruent,largerFirst,2,1,12,,,,,,,,
,,,,,,,,,,,,,,,8014,2022-02-16_13h01.04.272,multiplicationStroop,2021.2.3,Win32,49.92760497,,,,,,,,,,,,,,,,,,,,,,,,,,,,,,,,,54,5.3224,1,0,34,34,26,1,9,×,6,9 × 6,congruent,largerFirst,2,1,54,,,,,,,,
,,,,,,,,,,,,,,,8014,2022-02-16_13h01.04.272,multiplicationStroop,2021.2.3,Win32,49.92760497,,,,,,,,,,,,,,,,,,,,,,,,,,,,,,,,,30,2.1323,1,0,35,35,1,1,5,×,6,5 × 6,congruent,smallerFirst,1,2,30,,,,,,,,
,,,,,,,,,,,,,,,8014,2022-02-16_13h01.04.272,multiplicationStroop,2021.2.3,Win32,49.92760497,,,,,,,,,,,,,,,,,,,,,,,,,,,,,,,,,,,,,,,,,,,,,,,,,,0,3,3,3,1,stimulusFile/mult_blk4_congruent.xlsx,,
,,,,,,,,,,,,,,,8014,2022-02-16_13h01.04.272,multiplicationStroop,2021.2.3,Win32,49.92760497,,,,,,,,,,,,,,,,,,,,,,,,,,,,,,,space,21.0478,72,5.3588,1,0,0,0,14,1,9,×,8,9 × 8,incongruent,largerFirst,1,2,72,,,,,,,,
,,,,,,,,,,,,,,,8014,2022-02-16_13h01.04.272,multiplicationStroop,2021.2.3,Win32,49.92760497,,,,,,,,,,,,,,,,,,,,,,,,,,,,,,,,,81,1.5111,1,0,1,1,35,1,9,×,9,9 × 9,neutral,tie,2,1,81,,,,,,,,
,,,,,,,,,,,,,,,8014,2022-02-16_13h01.04.272,multiplicationStroop,2021.2.3,Win32,49.92760497,,,,,,,,,,,,,,,,,,,,,,,,,,,,,,,,,48,3.0796,1,0,2,2,15,1,8,×,6,8 × 6,incongruent,largerFirst,1,2,48,,,,,,,,
,,,,,,,,,,,,,,,8014,2022-02-16_13h01.04.272,multiplicationStroop,2021.2.3,Win32,49.92760497,,,,,,,,,,,,,,,,,,,,,,,,,,,,,,,,,14,1.4596,1,0,3,3,18,1,7,×,2,7 × 2,incongruent,largerFirst,1,2,14,,,,,,,,
,,,,,,,,,,,,,,,8014,2022-02-16_13h01.04.272,multiplicationStroop,2021.2.3,Win32,49.92760497,,,,,,,,,,,,,,,,,,,,,,,,,,,,,,,,,25,1.8796,1,0,4,4,31,1,5,×,5,5 × 5,neutral,tie,2,1,25,,,,,,,,
,,,,,,,,,,,,,,,8014,2022-02-16_13h01.04.272,multiplicationStroop,2021.2.3,Win32,49.92760497,,,,,,,,,,,,,,,,,,,,,,,,,,,,,,,,,36,3.0394,0,0,5,5,3,1,6,×,7,6 × 7,incongruent,smallerFirst,2,1,42,,,,,,,,
,,,,,,,,,,,,,,,8014,2022-02-16_13h01.04.272,multiplicationStroop,2021.2.3,Win32,49.92760497,,,,,,,,,,,,,,,,,,,,,,,,,,,,,,,,,12,1.4108,1,0,6,6,19,1,4,×,3,4 × 3,incongruent,largerFirst,1,2,12,,,,,,,,
,,,,,,,,,,,,,,,8014,2022-02-16_13h01.04.272,multiplicationStroop,2021.2.3,Win32,49.92760497,,,,,,,,,,,,,,,,,,,,,,,,,,,,,,,,,24,3.4798,1,0,7,7,6,1,4,×,6,4 × 6,incongruent,smallerFirst,2,1,24,,,,,,,,
,,,,,,,,,,,,,,,8014,2022-02-16_13h01.04.272,multiplicationStroop,2021.2.3,Win32,49.92760497,,,,,,,,,,,,,,,,,,,,,,,,,,,,,,,,,35,1.6501,1,0,8,8,26,1,7,×,5,7 × 5,incongruent,largerFirst,1,2,35,,,,,,,,
,,,,,,,,,,,,,,,8014,2022-02-16_13h01.04.272,multiplicationStroop,2021.2.3,Win32,49.92760497,,,,,,,,,,,,,,,,,,,,,,,,,,,,,,,,,49,1.9395,1,0,9,9,33,1,7,×,7,7 × 7,neutral,tie,2,1,49,,,,,,,,
,,,,,,,,,,,,,,,8014,2022-02-16_13h01.04.272,multiplicationStroop,2021.2.3,Win32,49.92760497,,,,,,,,,,,,,,,,,,,,,,,,,,,,,,,,,54,3.1797,1,0,10,10,20,1,9,×,6,9 × 6,incongruent,largerFirst,1,2,54,,,,,,,,
,,,,,,,,,,,,,,,8014,2022-02-16_13h01.04.272,multiplicationStroop,2021.2.3,Win32,49.92760497,,,,,,,,,,,,,,,,,,,,,,,,,,,,,,,,,4,1.4396,1,0,11,11,28,1,2,×,2,2 × 2,neutral,tie,2,1,4,,,,,,,,
,,,,,,,,,,,,,,,8014,2022-02-16_13h01.04.272,multiplicationStroop,2021.2.3,Win32,49.92760497,,,,,,,,,,,,,,,,,,,,,,,,,,,,,,,,,18,1.8794,1,0,12,12,16,1,9,×,2,9 × 2,incongruent,largerFirst,1,2,18,,,,,,,,
,,,,,,,,,,,,,,,8014,2022-02-16_13h01.04.272,multiplicationStroop,2021.2.3,Win32,49.92760497,,,,,,,,,,,,,,,,,,,,,,,,,,,,,,,,,12,1.4397,1,0,13,13,5,1,2,×,6,2 × 6,incongruent,smallerFirst,2,1,12,,,,,,,,
,,,,,,,,,,,,,,,8014,2022-02-16_13h01.04.272,multiplicationStroop,2021.2.3,Win32,49.92760497,,,,,,,,,,,,,,,,,,,,,,,,,,,,,,,,,10,1.5793,1,0,14,14,7,1,2,×,5,2 × 5,incongruent,smallerFirst,2,1,10,,,,,,,,
,,,,,,,,,,,,,,,8014,2022-02-16_13h01.04.272,multiplicationStroop,2021.2.3,Win32,49.92760497,,,,,,,,,,,,,,,,,,,,,,,,,,,,,,,,,30,2.0394,1,0,15,15,11,1,5,×,6,5 × 6,incongruent,smallerFirst,2,1,30,,,,,,,,
,,,,,,,,,,,,,,,8014,2022-02-16_13h01.04.272,multiplicationStroop,2021.2.3,Win32,49.92760497,,,,,,,,,,,,,,,,,,,,,,,,,,,,,,,,,24,2.2998,0,0,16,16,21,1,8,×,4,8 × 4,incongruent,largerFirst,1,2,32,,,,,,,,
,,,,,,,,,,,,,,,8014,2022-02-16_13h01.04.272,multiplicationStroop,2021.2.3,Win32,49.92760497,,,,,,,,,,,,,,,,,,,,,,,,,,,,,,,,,16,3.0793,1,0,17,17,9,1,2,×,8,2 × 8,incongruent,smallerFirst,2,1,16,,,,,,,,
,,,,,,,,,,,,,,,8014,2022-02-16_13h01.04.272,multiplicationStroop,2021.2.3,Win32,49.92760497,,,,,,,,,,,,,,,,,,,,,,,,,,,,,,,,,20,1.7796,1,0,18,18,13,1,4,×,5,4 × 5,incongruent,smallerFirst,2,1,20,,,,,,,,
,,,,,,,,,,,,,,,8014,2022-02-16_13h01.04.272,multiplicationStroop,2021.2.3,Win32,49.92760497,,,,,,,,,,,,,,,,,,,,,,,,,,,,,,,,,24,3.0394,1,0,19,19,23,1,8,×,3,8 × 3,incongruent,largerFirst,1,2,24,,,,,,,,
,,,,,,,,,,,,,,,8014,2022-02-16_13h01.04.272,multiplicationStroop,2021.2.3,Win32,49.92760497,,,,,,,,,,,,,,,,,,,,,,,,,,,,,,,,,27,2.7308,1,0,20,20,4,1,3,×,9,3 × 9,incongruent,smallerFirst,2,1,27,,,,,,,,
,,,,,,,,,,,,,,,8014,2022-02-16_13h01.04.272,multiplicationStroop,2021.2.3,Win32,49.92760497,,,,,,,,,,,,,,,,,,,,,,,,,,,,,,,,,21,2.2798,1,0,21,21,12,1,3,×,7,3 × 7,incongruent,smallerFirst,2,1,21,,,,,,,,
,,,,,,,,,,,,,,,8014,2022-02-16_13h01.04.272,multiplicationStroop,2021.2.3,Win32,49.92760497,,,,,,,,,,,,,,,,,,,,,,,,,,,,,,,,,63,3.5796,1,0,22,22,17,1,9,×,7,9 × 7,incongruent,largerFirst,1,2,63,,,,,,,,
,,,,,,,,,,,,,,,8014,2022-02-16_13h01.04.272,multiplicationStroop,2021.2.3,Win32,49.92760497,,,,,,,,,,,,,,,,,,,,,,,,,,,,,,,,,6,1.7506,1,0,23,23,25,1,3,×,2,3 × 2,incongruent,largerFirst,1,2,6,,,,,,,,
,,,,,,,,,,,,,,,8014,2022-02-16_13h01.04.272,multiplicationStroop,2021.2.3,Win32,49.92760497,,,,,,,,,,,,,,,,,,,,,,,,,,,,,,,,,40,1.8198,1,0,24,24,27,1,8,×,5,8 × 5,incongruent,largerFirst,1,2,40,,,,,,,,
,,,,,,,,,,,,,,,8014,2022-02-16_13h01.04.272,multiplicationStroop,2021.2.3,Win32,49.92760497,,,,,,,,,,,,,,,,,,,,,,,,,,,,,,,,,36,1.7996,1,0,25,25,32,1,6,×,6,6 × 6,neutral,tie,2,1,36,,,,,,,,
,,,,,,,,,,,,,,,8014,2022-02-16_13h01.04.272,multiplicationStroop,2021.2.3,Win32,49.92760497,,,,,,,,,,,,,,,,,,,,,,,,,,,,,,,,,16,2.0394,1,0,26,26,30,1,4,×,4,4 × 4,neutral,tie,2,1,16,,,,,,,,
,,,,,,,,,,,,,,,8014,2022-02-16_13h01.04.272,multiplicationStroop,2021.2.3,Win32,49.92760497,,,,,,,,,,,,,,,,,,,,,,,,,,,,,,,,,8,1.5398,1,0,27,27,10,1,2,×,4,2 × 4,incongruent,smallerFirst,2,1,8,,,,,,,,
,,,,,,,,,,,,,,,8014,2022-02-16_13h01.04.272,multiplicationStroop,2021.2.3,Win32,49.92760497,,,,,,,,,,,,,,,,,,,,,,,,,,,,,,,,,18,1.6994,1,0,28,28,22,1,6,×,3,6 × 3,incongruent,largerFirst,1,2,18,,,,,,,,
,,,,,,,,,,,,,,,8014,2022-02-16_13h01.04.272,multiplicationStroop,2021.2.3,Win32,49.92760497,,,,,,,,,,,,,,,,,,,,,,,,,,,,,,,,,35,2.1597,0,0,29,29,8,1,5,×,9,5 × 9,incongruent,smallerFirst,2,1,45,,,,,,,,
,,,,,,,,,,,,,,,8014,2022-02-16_13h01.04.272,multiplicationStroop,2021.2.3,Win32,49.92760497,,,,,,,,,,,,,,,,,,,,,,,,,,,,,,,,,64,1.9197,1,0,30,30,34,1,8,×,8,8 × 8,neutral,tie,2,1,64,,,,,,,,
,,,,,,,,,,,,,,,8014,2022-02-16_13h01.04.272,multiplicationStroop,2021.2.3,Win32,49.92760497,,,,,,,,,,,,,,,,,,,,,,,,,,,,,,,,,36,6.8794,1,0,31,31,1,1,4,×,9,4 × 9,incongruent,smallerFirst,2,1,36,,,,,,,,
,,,,,,,,,,,,,,,8014,2022-02-16_13h01.04.272,multiplicationStroop,2021.2.3,Win32,49.92760497,,,,,,,,,,,,,,,,,,,,,,,,,,,,,,,,,15,1.6504,1,0,32,32,24,1,5,×,3,5 × 3,incongruent,largerFirst,1,2,15,,,,,,,,
,,,,,,,,,,,,,,,8014,2022-02-16_13h01.04.272,multiplicationStroop,2021.2.3,Win32,49.92760497,,,,,,,,,,,,,,,,,,,,,,,,,,,,,,,,,56,3.9596,1,0,33,33,0,1,7,×,8,7 × 8,incongruent,smallerFirst,2,1,56,,,,,,,,
,,,,,,,,,,,,,,,8014,2022-02-16_13h01.04.272,multiplicationStroop,2021.2.3,Win32,49.92760497,,,,,,,,,,,,,,,,,,,,,,,,,,,,,,,,,9,1.5908,1,0,34,34,29,1,3,×,3,3 × 3,neutral,tie,2,1,9,,,,,,,,
,,,,,,,,,,,,,,,8014,2022-02-16_13h01.04.272,multiplicationStroop,2021.2.3,Win32,49.92760497,,,,,,,,,,,,,,,,,,,,,,,,,,,,,,,,,28,2.1197,1,0,35,35,2,1,4,×,7,4 × 7,incongruent,smallerFirst,2,1,28,,,,,,,,
,,,,,,,,,,,,,,,8014,2022-02-16_13h01.04.272,multiplicationStroop,2021.2.3,Win32,49.92760497,,,,,,,,,,,,,,,,,,,,,,,,,,,,,,,,,,,,,,,,,,,,,,,,,,0,4,4,4,1,stimulusFile/mult_blk5_INcongruent.xlsx,,
,,,,,,,,,,,,,,,8014,2022-02-16_13h01.04.272,multiplicationStroop,2021.2.3,Win32,49.92760497,,,,,,,,,,,,,,,,,,,,,,,,,,,,,,,space,11.974,18,1.6622,1,0,0,0,2,1,2,×,9,2 × 9,incongruent,smallerFirst,2,1,18,,,,,,,,
,,,,,,,,,,,,,,,8014,2022-02-16_13h01.04.272,multiplicationStroop,2021.2.3,Win32,49.92760497,,,,,,,,,,,,,,,,,,,,,,,,,,,,,,,,,64,1.8192,1,0,1,1,34,1,8,×,8,8 × 8,incongruent,tie,1,2,64,,,,,,,,
,,,,,,,,,,,,,,,8014,2022-02-16_13h01.04.272,multiplicationStroop,2021.2.3,Win32,49.92760497,,,,,,,,,,,,,,,,,,,,,,,,,,,,,,,,,72,2.1596,1,0,2,2,0,1,8,×,9,8 × 9,incongruent,smallerFirst,2,1,72,,,,,,,,
,,,,,,,,,,,,,,,8014,2022-02-16_13h01.04.272,multiplicationStroop,2021.2.3,Win32,49.92760497,,,,,,,,,,,,,,,,,,,,,,,,,,,,,,,,,6,1.7795,1,0,3,3,11,1,2,×,3,2 × 3,incongruent,smallerFirst,2,1,6,,,,,,,,
,,,,,,,,,,,,,,,8014,2022-02-16_13h01.04.272,multiplicationStroop,2021.2.3,Win32,49.92760497,,,,,,,,,,,,,,,,,,,,,,,,,,,,,,,,,35,2.0197,1,0,4,4,12,1,5,×,7,5 × 7,incongruent,smallerFirst,2,1,35,,,,,,,,
,,,,,,,,,,,,,,,8014,2022-02-16_13h01.04.272,multiplicationStroop,2021.2.3,Win32,49.92760497,,,,,,,,,,,,,,,,,,,,,,,,,,,,,,,,,9,1.4194,1,0,5,5,29,1,3,×,3,3 × 3,incongruent,tie,1,2,9,,,,,,,,
,,,,,,,,,,,,,,,8014,2022-02-16_13h01.04.272,multiplicationStroop,2021.2.3,Win32,49.92760497,,,,,,,,,,,,,,,,,,,,,,,,,,,,,,,,,15,1.5997,1,0,6,6,10,1,3,×,5,3 × 5,incongruent,smallerFirst,2,1,15,,,,,,,,
,,,,,,,,,,,,,,,8014,2022-02-16_13h01.04.272,multiplicationStroop,2021.2.3,Win32,49.92760497,,,,,,,,,,,,,,,,,,,,,,,,,,,,,,,,,12,1.5195,1,0,7,7,5,1,3,×,4,3 × 4,incongruent,smallerFirst,2,1,12,,,,,,,,
,,,,,,,,,,,,,,,8014,2022-02-16_13h01.04.272,multiplicationStroop,2021.2.3,Win32,49.92760497,,,,,,,,,,,,,,,,,,,,,,,,,,,,,,,,,27,2.4195,1,0,8,8,18,1,9,×,3,9 × 3,incongruent,largerFirst,1,2,27,,,,,,,,
,,,,,,,,,,,,,,,8014,2022-02-16_13h01.04.272,multiplicationStroop,2021.2.3,Win32,49.92760497,,,,,,,,,,,,,,,,,,,,,,,,,,,,,,,,,40,1.6709,1,0,9,9,13,1,5,×,8,5 × 8,incongruent,smallerFirst,2,1,40,,,,,,,,
,,,,,,,,,,,,,,,8014,2022-02-16_13h01.04.272,multiplicationStroop,2021.2.3,Win32,49.92760497,,,,,,,,,,,,,,,,,,,,,,,,,,,,,,,,,16,1.6595,1,0,10,10,23,1,8,×,2,8 × 2,incongruent,largerFirst,1,2,16,,,,,,,,
,,,,,,,,,,,,,,,8014,2022-02-16_13h01.04.272,multiplicationStroop,2021.2.3,Win32,49.92760497,,,,,,,,,,,,,,,,,,,,,,,,,,,,,,,,,12,1.9595,1,0,11,11,19,1,6,×,2,6 × 2,incongruent,largerFirst,1,2,12,,,,,,,,
,,,,,,,,,,,,,,,8014,2022-02-16_13h01.04.272,multiplicationStroop,2021.2.3,Win32,49.92760497,,,,,,,,,,,,,,,,,,,,,,,,,,,,,,,,,45,1.96,0,0,12,12,14,1,8,×,7,8 × 7,incongruent,largerFirst,1,2,56,,,,,,,,
,,,,,,,,,,,,,,,8014,2022-02-16_13h01.04.272,multiplicationStroop,2021.2.3,Win32,49.92760497,,,,,,,,,,,,,,,,,,,,,,,,,,,,,,,,,63,2.9197,1,0,13,13,3,1,7,×,9,7 × 9,incongruent,smallerFirst,2,1,63,,,,,,,,
,,,,,,,,,,,,,,,8014,2022-02-16_13h01.04.272,multiplicationStroop,2021.2.3,Win32,49.92760497,,,,,,,,,,,,,,,,,,,,,,,,,,,,,,,,,49,1.9907,1,0,14,14,33,1,7,×,7,7 × 7,incongruent,tie,1,2,49,,,,,,,,
,,,,,,,,,,,,,,,8014,2022-02-16_13h01.04.272,multiplicationStroop,2021.2.3,Win32,49.92760497,,,,,,,,,,,,,,,,,,,,,,,,,,,,,,,,,32,4.2799,1,0,15,15,7,1,4,×,8,4 × 8,incongruent,smallerFirst,2,1,32,,,,,,,,
,,,,,,,,,,,,,,,8014,2022-02-16_13h01.04.272,multiplicationStroop,2021.2.3,Win32,49.92760497,,,,,,,,,,,,,,,,,,,,,,,,,,,,,,,,,20,1.4307,1,0,16,16,27,1,5,×,4,5 × 4,incongruent,largerFirst,1,2,20,,,,,,,,
,,,,,,,,,,,,,,,8014,2022-02-16_13h01.04.272,multiplicationStroop,2021.2.3,Win32,49.92760497,,,,,,,,,,,,,,,,,,,,,,,,,,,,,,,,,81,1.5598,1,0,17,17,35,1,9,×,9,9 × 9,incongruent,tie,1,2,81,,,,,,,,
,,,,,,,,,,,,,,,8014,2022-02-16_13h01.04.272,multiplicationStroop,2021.2.3,Win32,49.92760497,,,,,,,,,,,,,,,,,,,,,,,,,,,,,,,,,10,1.9391,1,0,18,18,21,1,5,×,2,5 × 2,incongruent,largerFirst,1,2,10,,,,,,,,
,,,,,,,,,,,,,,,8014,2022-02-16_13h01.04.272,multiplicationStroop,2021.2.3,Win32,49.92760497,,,,,,,,,,,,,,,,,,,,,,,,,,,,,,,,,30,1.68,1,0,19,19,25,1,6,×,5,6 × 5,incongruent,largerFirst,1,2,30,,,,,,,,
,,,,,,,,,,,,,,,8014,2022-02-16_13h01.04.272,multiplicationStroop,2021.2.3,Win32,49.92760497,,,,,,,,,,,,,,,,,,,,,,,,,,,,,,,,,16,1.7395,1,0,20,20,30,1,4,×,4,4 × 4,incongruent,tie,1,2,16,,,,,,,,
,,,,,,,,,,,,,,,8014,2022-02-16_13h01.04.272,multiplicationStroop,2021.2.3,Win32,49.92760497,,,,,,,,,,,,,,,,,,,,,,,,,,,,,,,,,25,2.1994,1,0,21,21,31,1,5,×,5,5 × 5,incongruent,tie,1,2,25,,,,,,,,
,,,,,,,,,,,,,,,8014,2022-02-16_13h01.04.272,multiplicationStroop,2021.2.3,Win32,49.92760497,,,,,,,,,,,,,,,,,,,,,,,,,,,,,,,,,36,4.3197,1,0,22,22,15,1,9,×,4,9 × 4,incongruent,largerFirst,1,2,36,,,,,,,,
,,,,,,,,,,,,,,,8014,2022-02-16_13h01.04.272,multiplicationStroop,2021.2.3,Win32,49.92760497,,,,,,,,,,,,,,,,,,,,,,,,,,,,,,,,,4,1.5712,1,0,23,23,28,1,2,×,2,2 × 2,incongruent,tie,1,2,4,,,,,,,,
,,,,,,,,,,,,,,,8014,2022-02-16_13h01.04.272,multiplicationStroop,2021.2.3,Win32,49.92760497,,,,,,,,,,,,,,,,,,,,,,,,,,,,,,,,,18,2.2597,1,0,24,24,8,1,3,×,6,3 × 6,incongruent,smallerFirst,2,1,18,,,,,,,,
,,,,,,,,,,,,,,,8014,2022-02-16_13h01.04.272,multiplicationStroop,2021.2.3,Win32,49.92760497,,,,,,,,,,,,,,,,,,,,,,,,,,,,,,,,,28,2.5393,1,0,25,25,16,1,7,×,4,7 × 4,incongruent,largerFirst,1,2,28,,,,,,,,
,,,,,,,,,,,,,,,8014,2022-02-16_13h01.04.272,multiplicationStroop,2021.2.3,Win32,49.92760497,,,,,,,,,,,,,,,,,,,,,,,,,,,,,,,,,48,2.611,1,0,26,26,1,1,6,×,8,6 × 8,incongruent,smallerFirst,2,1,48,,,,,,,,
,,,,,,,,,,,,,,,8014,2022-02-16_13h01.04.272,multiplicationStroop,2021.2.3,Win32,49.92760497,,,,,,,,,,,,,,,,,,,,,,,,,,,,,,,,,24,3.3397,1,0,27,27,20,1,6,×,4,6 × 4,incongruent,largerFirst,1,2,24,,,,,,,,
,,,,,,,,,,,,,,,8014,2022-02-16_13h01.04.272,multiplicationStroop,2021.2.3,Win32,49.92760497,,,,,,,,,,,,,,,,,,,,,,,,,,,,,,,,,8,1.5397,1,0,28,28,24,1,4,×,2,4 × 2,incongruent,largerFirst,1,2,8,,,,,,,,
,,,,,,,,,,,,,,,8014,2022-02-16_13h01.04.272,multiplicationStroop,2021.2.3,Win32,49.92760497,,,,,,,,,,,,,,,,,,,,,,,,,,,,,,,,,35,2.2195,0,0,29,29,22,1,9,×,5,9 × 5,incongruent,largerFirst,1,2,45,,,,,,,,
,,,,,,,,,,,,,,,8014,2022-02-16_13h01.04.272,multiplicationStroop,2021.2.3,Win32,49.92760497,,,,,,,,,,,,,,,,,,,,,,,,,,,,,,,,,24,2.2396,1,0,30,30,9,1,3,×,8,3 × 8,incongruent,smallerFirst,2,1,24,,,,,,,,
,,,,,,,,,,,,,,,8014,2022-02-16_13h01.04.272,multiplicationStroop,2021.2.3,Win32,49.92760497,,,,,,,,,,,,,,,,,,,,,,,,,,,,,,,,,54,2.2793,1,0,31,31,6,1,6,×,9,6 × 9,incongruent,smallerFirst,2,1,54,,,,,,,,
,,,,,,,,,,,,,,,8014,2022-02-16_13h01.04.272,multiplicationStroop,2021.2.3,Win32,49.92760497,,,,,,,,,,,,,,,,,,,,,,,,,,,,,,,,,21,1.4914,1,0,32,32,26,1,7,×,3,7 × 3,incongruent,largerFirst,1,2,21,,,,,,,,
,,,,,,,,,,,,,,,8014,2022-02-16_13h01.04.272,multiplicationStroop,2021.2.3,Win32,49.92760497,,,,,,,,,,,,,,,,,,,,,,,,,,,,,,,,,36,2.0796,1,0,33,33,32,1,6,×,6,6 × 6,incongruent,tie,1,2,36,,,,,,,,
,,,,,,,,,,,,,,,8014,2022-02-16_13h01.04.272,multiplicationStroop,2021.2.3,Win32,49.92760497,,,,,,,,,,,,,,,,,,,,,,,,,,,,,,,,,14,1.4397,1,0,34,34,4,1,2,×,7,2 × 7,incongruent,smallerFirst,2,1,14,,,,,,,,
,,,,,,,,,,,,,,,8014,2022-02-16_13h01.04.272,multiplicationStroop,2021.2.3,Win32,49.92760497,,,,,,,,,,,,,,,,,,,,,,,,,,,,,,,,,35,2.0592,0,0,35,35,17,1,7,×,6,7 × 6,incongruent,largerFirst,1,2,42,,,,,,,,
,,,,,,,,,,,,,,,8014,2022-02-16_13h01.04.272,multiplicationStroop,2021.2.3,Win32,49.92760497,,,,,,,,,,,,,,,,,,,,,,,,,,,,,,,,,,,,,,,,,,,,,,,,,,0,5,5,5,1,stimulusFile/mult_blk6_INcongruent.xlsx,,
,,,,,,,,,,,,,,,8014,2022-02-16_13h01.04.272,multiplicationStroop,2021.2.3,Win32,49.92760497,,,,,,,,,,,,,,,,,,,,,,,,,,,,,,,,,,,,,,,,,,,,,,,,,,,,,,,,space,8.9457