welcomeKey_resp.keys,welcomeKey_resp.rt,X Scale,Y Scale,rt_resp_4.keys,rt_resp_4.corr,rt_resp_4.rt,speedtest_2.thisRepN,speedtest_2.thisTrialN,speedtest_2.thisN,speedtest_2.thisIndex,speedtest_2.ran,numberSc,posX,positionLayout,participant,date,expName,psychopyVersion,OS,frameRate,ct_instrresp.keys,ct_instrresp.rt,key_resp_2.keys,key_resp_2.rt,ct_keyResp.keys,ct_keyResp.corr,ct_keyResp.rt,trials.thisRepN,trials.thisTrialN,trials.thisN,trials.thisIndex,trials.ran,leftNo,rightNo,displayProblem,numDistance,leftNo_size,rightNo_size,Dims,keyAnswer,TS_Loop.thisRepN,TS_Loop.thisTrialN,TS_Loop.thisN,TS_Loop.thisIndex,TS_Loop.ran,Condition,ActionInst,instrImage,mltptaskInst_resp.keys,mltptaskInst_resp.rt,continue_resp_2.keys,continue_resp_2.rt,multp_Answer,multi_RT,multiplyCorr,LoopingMultiply.thisRepN,LoopingMultiply.thisTrialN,LoopingMultiply.thisN,LoopingMultiply.thisIndex,LoopingMultiply.ran,factor1,multiplySign,factor2,multliplyProblem,physicalSize,orderOperand,sizeF1,sizeF2,mult_answer,trials_stroop.thisRepN,trials_stroop.thisTrialN,trials_stroop.thisN,trials_stroop.thisIndex,trials_stroop.ran,multiplicationFile,esckey_resp_2.keys,esckey_resp_2.rt
y,17.3095,45.1,45.9,right,1,0.8063,0,0,0,12,1,6,200,right,801,2022-01-17_12h27.18.698,multiplicationStroop,2021.2.3,Win32,60.17209218,,,,,,,,,,,,,,,,,,,,,,,,,,,,,,,,,,,,,,,,,,,,,,,,,,,,,,,,,
,,,,right,1,0.5839,0,1,1,11,1,4,200,right,801,2022-01-17_12h27.18.698,multiplicationStroop,2021.2.3,Win32,60.17209218,,,,,,,,,,,,,,,,,,,,,,,,,,,,,,,,,,,,,,,,,,,,,,,,,,,,,,,,,
,,,,left,1,0.5012,0,2,2,6,1,8,-200,left,801,2022-01-17_12h27.18.698,multiplicationStroop,2021.2.3,Win32,60.17209218,,,,,,,,,,,,,,,,,,,,,,,,,,,,,,,,,,,,,,,,,,,,,,,,,,,,,,,,,
,,,,left,1,0.4189,0,3,3,7,1,9,-200,left,801,2022-01-17_12h27.18.698,multiplicationStroop,2021.2.3,Win32,60.17209218,,,,,,,,,,,,,,,,,,,,,,,,,,,,,,,,,,,,,,,,,,,,,,,,,,,,,,,,,
,,,,left,1,0.4002,0,4,4,4,1,6,-200,left,801,2022-01-17_12h27.18.698,multiplicationStroop,2021.2.3,Win32,60.17209218,,,,,,,,,,,,,,,,,,,,,,,,,,,,,,,,,,,,,,,,,,,,,,,,,,,,,,,,,
,,,,right,1,0.3906,0,5,5,8,1,1,200,right,801,2022-01-17_12h27.18.698,multiplicationStroop,2021.2.3,Win32,60.17209218,,,,,,,,,,,,,,,,,,,,,,,,,,,,,,,,,,,,,,,,,,,,,,,,,,,,,,,,,
,,,,left,1,0.3338,0,6,6,3,1,4,-200,left,801,2022-01-17_12h27.18.698,multiplicationStroop,2021.2.3,Win32,60.17209218,,,,,,,,,,,,,,,,,,,,,,,,,,,,,,,,,,,,,,,,,,,,,,,,,,,,,,,,,
,,,,right,1,0.2929,0,7,7,13,1,7,200,right,801,2022-01-17_12h27.18.698,multiplicationStroop,2021.2.3,Win32,60.17209218,,,,,,,,,,,,,,,,,,,,,,,,,,,,,,,,,,,,,,,,,,,,,,,,,,,,,,,,,
,,,,right,1,0.5005,0,8,8,9,1,2,200,right,801,2022-01-17_12h27.18.698,multiplicationStroop,2021.2.3,Win32,60.17209218,,,,,,,,,,,,,,,,,,,,,,,,,,,,,,,,,,,,,,,,,,,,,,,,,,,,,,,,,
,,,,right,1,0.4596,0,9,9,10,1,3,200,right,801,2022-01-17_12h27.18.698,multiplicationStroop,2021.2.3,Win32,60.17209218,,,,,,,,,,,,,,,,,,,,,,,,,,,,,,,,,,,,,,,,,,,,,,,,,,,,,,,,,
,,,,right,1,0.4205,0,10,10,14,1,8,200,right,801,2022-01-17_12h27.18.698,multiplicationStroop,2021.2.3,Win32,60.17209218,,,,,,,,,,,,,,,,,,,,,,,,,,,,,,,,,,,,,,,,,,,,,,,,,,,,,,,,,
,,,,left,1,0.3336,0,11,11,1,1,2,-200,left,801,2022-01-17_12h27.18.698,multiplicationStroop,2021.2.3,Win32,60.17209218,,,,,,,,,,,,,,,,,,,,,,,,,,,,,,,,,,,,,,,,,,,,,,,,,,,,,,,,,
,,,,right,1,0.3442,0,12,12,15,1,9,200,right,801,2022-01-17_12h27.18.698,multiplicationStroop,2021.2.3,Win32,60.17209218,,,,,,,,,,,,,,,,,,,,,,,,,,,,,,,,,,,,,,,,,,,,,,,,,,,,,,,,,
,,,,left,1,0.3172,0,13,13,2,1,3,-200,left,801,2022-01-17_12h27.18.698,multiplicationStroop,2021.2.3,Win32,60.17209218,,,,,,,,,,,,,,,,,,,,,,,,,,,,,,,,,,,,,,,,,,,,,,,,,,,,,,,,,
,,,,left,1,0.3347,0,14,14,0,1,1,-200,left,801,2022-01-17_12h27.18.698,multiplicationStroop,2021.2.3,Win32,60.17209218,,,,,,,,,,,,,,,,,,,,,,,,,,,,,,,,,,,,,,,,,,,,,,,,,,,,,,,,,
,,,,left,1,0.3041,0,15,15,5,1,7,-200,left,801,2022-01-17_12h27.18.698,multiplicationStroop,2021.2.3,Win32,60.17209218,,,,,,,,,,,,,,,,,,,,,,,,,,,,,,,,,,,,,,,,,,,,,,,,,,,,,,,,,
,,,,left,1,0.3175,1,0,16,3,1,4,-200,left,801,2022-01-17_12h27.18.698,multiplicationStroop,2021.2.3,Win32,60.17209218,,,,,,,,,,,,,,,,,,,,,,,,,,,,,,,,,,,,,,,,,,,,,,,,,,,,,,,,,
,,,,right,1,0.3185,1,1,17,9,1,2,200,right,801,2022-01-17_12h27.18.698,multiplicationStroop,2021.2.3,Win32,60.17209218,,,,,,,,,,,,,,,,,,,,,,,,,,,,,,,,,,,,,,,,,,,,,,,,,,,,,,,,,
,,,,left,1,0.2842,1,2,18,5,1,7,-200,left,801,2022-01-17_12h27.18.698,multiplicationStroop,2021.2.3,Win32,60.17209218,,,,,,,,,,,,,,,,,,,,,,,,,,,,,,,,,,,,,,,,,,,,,,,,,,,,,,,,,
,,,,left,1,0.334,1,3,19,1,1,2,-200,left,801,2022-01-17_12h27.18.698,multiplicationStroop,2021.2.3,Win32,60.17209218,,,,,,,,,,,,,,,,,,,,,,,,,,,,,,,,,,,,,,,,,,,,,,,,,,,,,,,,,
,,,,left,1,0.3353,1,4,20,2,1,3,-200,left,801,2022-01-17_12h27.18.698,multiplicationStroop,2021.2.3,Win32,60.17209218,,,,,,,,,,,,,,,,,,,,,,,,,,,,,,,,,,,,,,,,,,,,,,,,,,,,,,,,,
,,,,right,1,0.3054,1,5,21,15,1,9,200,right,801,2022-01-17_12h27.18.698,multiplicationStroop,2021.2.3,Win32,60.17209218,,,,,,,,,,,,,,,,,,,,,,,,,,,,,,,,,,,,,,,,,,,,,,,,,,,,,,,,,
,,,,right,1,0.3674,1,6,22,11,1,4,200,right,801,2022-01-17_12h27.18.698,multiplicationStroop,2021.2.3,Win32,60.17209218,,,,,,,,,,,,,,,,,,,,,,,,,,,,,,,,,,,,,,,,,,,,,,,,,,,,,,,,,
,,,,right,1,0.3267,1,7,23,14,1,8,200,right,801,2022-01-17_12h27.18.698,multiplicationStroop,2021.2.3,Win32,60.17209218,,,,,,,,,,,,,,,,,,,,,,,,,,,,,,,,,,,,,,,,,,,,,,,,,,,,,,,,,
,,,,left,1,0.3208,1,8,24,0,1,1,-200,left,801,2022-01-17_12h27.18.698,multiplicationStroop,2021.2.3,Win32,60.17209218,,,,,,,,,,,,,,,,,,,,,,,,,,,,,,,,,,,,,,,,,,,,,,,,,,,,,,,,,
,,,,right,1,0.3001,1,9,25,12,1,6,200,right,801,2022-01-17_12h27.18.698,multiplicationStroop,2021.2.3,Win32,60.17209218,,,,,,,,,,,,,,,,,,,,,,,,,,,,,,,,,,,,,,,,,,,,,,,,,,,,,,,,,
,,,,right,1,0.3856,1,10,26,10,1,3,200,right,801,2022-01-17_12h27.18.698,multiplicationStroop,2021.2.3,Win32,60.17209218,,,,,,,,,,,,,,,,,,,,,,,,,,,,,,,,,,,,,,,,,,,,,,,,,,,,,,,,,
,,,,right,1,0.3524,1,11,27,13,1,7,200,right,801,2022-01-17_12h27.18.698,multiplicationStroop,2021.2.3,Win32,60.17209218,,,,,,,,,,,,,,,,,,,,,,,,,,,,,,,,,,,,,,,,,,,,,,,,,,,,,,,,,
,,,,left,1,0.2995,1,12,28,6,1,8,-200,left,801,2022-01-17_12h27.18.698,multiplicationStroop,2021.2.3,Win32,60.17209218,,,,,,,,,,,,,,,,,,,,,,,,,,,,,,,,,,,,,,,,,,,,,,,,,,,,,,,,,
,,,,right,1,0.3026,1,13,29,8,1,1,200,right,801,2022-01-17_12h27.18.698,multiplicationStroop,2021.2.3,Win32,60.17209218,,,,,,,,,,,,,,,,,,,,,,,,,,,,,,,,,,,,,,,,,,,,,,,,,,,,,,,,,
,,,,left,1,0.2749,1,14,30,7,1,9,-200,left,801,2022-01-17_12h27.18.698,multiplicationStroop,2021.2.3,Win32,60.17209218,,,,,,,,,,,,,,,,,,,,,,,,,,,,,,,,,,,,,,,,,,,,,,,,,,,,,,,,,
,,,,right,0,0.3562,1,15,31,4,1,6,-200,left,801,2022-01-17_12h27.18.698,multiplicationStroop,2021.2.3,Win32,60.17209218,,,,,,,,,,,,,,,,,,,,,,,,,,,,,,,,,,,,,,,,,,,,,,,,,,,,,,,,,
,,,,left,1,0.4526,2,0,32,4,1,6,-200,left,801,2022-01-17_12h27.18.698,multiplicationStroop,2021.2.3,Win32,60.17209218,,,,,,,,,,,,,,,,,,,,,,,,,,,,,,,,,,,,,,,,,,,,,,,,,,,,,,,,,
,,,,right,1,0.3521,2,1,33,11,1,4,200,right,801,2022-01-17_12h27.18.698,multiplicationStroop,2021.2.3,Win32,60.17209218,,,,,,,,,,,,,,,,,,,,,,,,,,,,,,,,,,,,,,,,,,,,,,,,,,,,,,,,,
,,,,left,1,0.373,2,2,34,6,1,8,-200,left,801,2022-01-17_12h27.18.698,multiplicationStroop,2021.2.3,Win32,60.17209218,,,,,,,,,,,,,,,,,,,,,,,,,,,,,,,,,,,,,,,,,,,,,,,,,,,,,,,,,
,,,,right,1,0.3182,2,3,35,15,1,9,200,right,801,2022-01-17_12h27.18.698,multiplicationStroop,2021.2.3,Win32,60.17209218,,,,,,,,,,,,,,,,,,,,,,,,,,,,,,,,,,,,,,,,,,,,,,,,,,,,,,,,,
,,,,left,1,0.3553,2,4,36,0,1,1,-200,left,801,2022-01-17_12h27.18.698,multiplicationStroop,2021.2.3,Win32,60.17209218,,,,,,,,,,,,,,,,,,,,,,,,,,,,,,,,,,,,,,,,,,,,,,,,,,,,,,,,,
,,,,left,1,0.3294,2,5,37,2,1,3,-200,left,801,2022-01-17_12h27.18.698,multiplicationStroop,2021.2.3,Win32,60.17209218,,,,,,,,,,,,,,,,,,,,,,,,,,,,,,,,,,,,,,,,,,,,,,,,,,,,,,,,,
,,,,right,1,0.351,2,6,38,14,1,8,200,right,801,2022-01-17_12h27.18.698,multiplicationStroop,2021.2.3,Win32,60.17209218,,,,,,,,,,,,,,,,,,,,,,,,,,,,,,,,,,,,,,,,,,,,,,,,,,,,,,,,,
,,,,right,1,0.3941,2,7,39,13,1,7,200,right,801,2022-01-17_12h27.18.698,multiplicationStroop,2021.2.3,Win32,60.17209218,,,,,,,,,,,,,,,,,,,,,,,,,,,,,,,,,,,,,,,,,,,,,,,,,,,,,,,,,
,,,,left,1,0.3859,2,8,40,7,1,9,-200,left,801,2022-01-17_12h27.18.698,multiplicationStroop,2021.2.3,Win32,60.17209218,,,,,,,,,,,,,,,,,,,,,,,,,,,,,,,,,,,,,,,,,,,,,,,,,,,,,,,,,
,,,,right,1,0.317,2,9,41,12,1,6,200,right,801,2022-01-17_12h27.18.698,multiplicationStroop,2021.2.3,Win32,60.17209218,,,,,,,,,,,,,,,,,,,,,,,,,,,,,,,,,,,,,,,,,,,,,,,,,,,,,,,,,
,,,,left,1,0.3174,2,10,42,1,1,2,-200,left,801,2022-01-17_12h27.18.698,multiplicationStroop,2021.2.3,Win32,60.17209218,,,,,,,,,,,,,,,,,,,,,,,,,,,,,,,,,,,,,,,,,,,,,,,,,,,,,,,,,
,,,,left,1,0.345,2,11,43,3,1,4,-200,left,801,2022-01-17_12h27.18.698,multiplicationStroop,2021.2.3,Win32,60.17209218,,,,,,,,,,,,,,,,,,,,,,,,,,,,,,,,,,,,,,,,,,,,,,,,,,,,,,,,,
,,,,right,1,0.4085,2,12,44,9,1,2,200,right,801,2022-01-17_12h27.18.698,multiplicationStroop,2021.2.3,Win32,60.17209218,,,,,,,,,,,,,,,,,,,,,,,,,,,,,,,,,,,,,,,,,,,,,,,,,,,,,,,,,
,,,,left,1,0.4084,2,13,45,5,1,7,-200,left,801,2022-01-17_12h27.18.698,multiplicationStroop,2021.2.3,Win32,60.17209218,,,,,,,,,,,,,,,,,,,,,,,,,,,,,,,,,,,,,,,,,,,,,,,,,,,,,,,,,
,,,,right,1,0.2928,2,14,46,8,1,1,200,right,801,2022-01-17_12h27.18.698,multiplicationStroop,2021.2.3,Win32,60.17209218,,,,,,,,,,,,,,,,,,,,,,,,,,,,,,,,,,,,,,,,,,,,,,,,,,,,,,,,,
,,,,left,0,0.2881,2,15,47,10,1,3,200,right,801,2022-01-17_12h27.18.698,multiplicationStroop,2021.2.3,Win32,60.17209218,,,,,,,,,,,,,,,,,,,,,,,,,,,,,,,,,,,,,,,,,,,,,,,,,,,,,,,,,
,,,,right,1,0.3252,3,0,48,11,1,4,200,right,801,2022-01-17_12h27.18.698,multiplicationStroop,2021.2.3,Win32,60.17209218,,,,,,,,,,,,,,,,,,,,,,,,,,,,,,,,,,,,,,,,,,,,,,,,,,,,,,,,,
,,,,left,1,0.3691,3,1,49,2,1,3,-200,left,801,2022-01-17_12h27.18.698,multiplicationStroop,2021.2.3,Win32,60.17209218,,,,,,,,,,,,,,,,,,,,,,,,,,,,,,,,,,,,,,,,,,,,,,,,,,,,,,,,,
,,,,left,1,0.3076,3,2,50,7,1,9,-200,left,801,2022-01-17_12h27.18.698,multiplicationStroop,2021.2.3,Win32,60.17209218,,,,,,,,,,,,,,,,,,,,,,,,,,,,,,,,,,,,,,,,,,,,,,,,,,,,,,,,,
,,,,left,1,0.284,3,3,51,5,1,7,-200,left,801,2022-01-17_12h27.18.698,multiplicationStroop,2021.2.3,Win32,60.17209218,,,,,,,,,,,,,,,,,,,,,,,,,,,,,,,,,,,,,,,,,,,,,,,,,,,,,,,,,
,,,,right,1,0.3352,3,4,52,13,1,7,200,right,801,2022-01-17_12h27.18.698,multiplicationStroop,2021.2.3,Win32,60.17209218,,,,,,,,,,,,,,,,,,,,,,,,,,,,,,,,,,,,,,,,,,,,,,,,,,,,,,,,,
,,,,right,1,0.3436,3,5,53,10,1,3,200,right,801,2022-01-17_12h27.18.698,multiplicationStroop,2021.2.3,Win32,60.17209218,,,,,,,,,,,,,,,,,,,,,,,,,,,,,,,,,,,,,,,,,,,,,,,,,,,,,,,,,
,,,,left,1,0.3735,3,6,54,3,1,4,-200,left,801,2022-01-17_12h27.18.698,multiplicationStroop,2021.2.3,Win32,60.17209218,,,,,,,,,,,,,,,,,,,,,,,,,,,,,,,,,,,,,,,,,,,,,,,,,,,,,,,,,
,,,,left,1,0.2754,3,7,55,4,1,6,-200,left,801,2022-01-17_12h27.18.698,multiplicationStroop,2021.2.3,Win32,60.17209218,,,,,,,,,,,,,,,,,,,,,,,,,,,,,,,,,,,,,,,,,,,,,,,,,,,,,,,,,
,,,,right,1,0.3276,3,8,56,8,1,1,200,right,801,2022-01-17_12h27.18.698,multiplicationStroop,2021.2.3,Win32,60.17209218,,,,,,,,,,,,,,,,,,,,,,,,,,,,,,,,,,,,,,,,,,,,,,,,,,,,,,,,,
,,,,right,1,0.3867,3,9,57,12,1,6,200,right,801,2022-01-17_12h27.18.698,multiplicationStroop,2021.2.3,Win32,60.17209218,,,,,,,,,,,,,,,,,,,,,,,,,,,,,,,,,,,,,,,,,,,,,,,,,,,,,,,,,
,,,,right,1,0.3348,3,10,58,15,1,9,200,right,801,2022-01-17_12h27.18.698,multiplicationStroop,2021.2.3,Win32,60.17209218,,,,,,,,,,,,,,,,,,,,,,,,,,,,,,,,,,,,,,,,,,,,,,,,,,,,,,,,,
,,,,right,1,0.318,3,11,59,14,1,8,200,right,801,2022-01-17_12h27.18.698,multiplicationStroop,2021.2.3,Win32,60.17209218,,,,,,,,,,,,,,,,,,,,,,,,,,,,,,,,,,,,,,,,,,,,,,,,,,,,,,,,,
,,,,left,1,0.3606,3,12,60,6,1,8,-200,left,801,2022-01-17_12h27.18.698,multiplicationStroop,2021.2.3,Win32,60.17209218,,,,,,,,,,,,,,,,,,,,,,,,,,,,,,,,,,,,,,,,,,,,,,,,,,,,,,,,,
,,,,left,1,0.3553,3,13,61,1,1,2,-200,left,801,2022-01-17_12h27.18.698,multiplicationStroop,2021.2.3,Win32,60.17209218,,,,,,,,,,,,,,,,,,,,,,,,,,,,,,,,,,,,,,,,,,,,,,,,,,,,,,,,,
,,,,right,1,0.3184,3,14,62,9,1,2,200,right,801,2022-01-17_12h27.18.698,multiplicationStroop,2021.2.3,Win32,60.17209218,,,,,,,,,,,,,,,,,,,,,,,,,,,,,,,,,,,,,,,,,,,,,,,,,,,,,,,,,
,,,,left,1,0.3109,3,15,63,0,1,1,-200,left,801,2022-01-17_12h27.18.698,multiplicationStroop,2021.2.3,Win32,60.17209218,,,,,,,,,,,,,,,,,,,,,,,,,,,,,,,,,,,,,,,,,,,,,,,,,,,,,,,,,
,,,,,,,,,,,,,,,801,2022-01-17_12h27.18.698,multiplicationStroop,2021.2.3,Win32,60.17209218,space,20.5565,space,5.2659,right,1,1.0687,0,0,0,31,1,9,8,9 | 8,1,1.4111,1.9756,incongruent,right,,,,,,stimulusFile/physical.xlsx,,,,,,,,,,,,,,,,,,,,,,,,,,,,,,,
,,,,,,,,,,,,,,,801,2022-01-17_12h27.18.698,multiplicationStroop,2021.2.3,Win32,60.17209218,,,,,right,1,0.6228,0,1,1,46,1,8,3,8 | 3,5,1.4111,1.9756,incongruent,right,,,,,,stimulusFile/physical.xlsx,,,,,,,,,,,,,,,,,,,,,,,,,,,,,,,
,,,,,,,,,,,,,,,801,2022-01-17_12h27.18.698,multiplicationStroop,2021.2.3,Win32,60.17209218,,,,,right,1,0.5542,0,2,2,30,1,7,6,7 | 6,1,1.4111,1.9756,incongruent,right,,,,,,stimulusFile/physical.xlsx,,,,,,,,,,,,,,,,,,,,,,,,,,,,,,,
,,,,,,,,,,,,,,,801,2022-01-17_12h27.18.698,multiplicationStroop,2021.2.3,Win32,60.17209218,,,,,left,1,0.5514,0,3,3,54,1,7,7,7 | 7,0,1.9756,1.4111,neutral,left,,,,,,stimulusFile/physical.xlsx,,,,,,,,,,,,,,,,,,,,,,,,,,,,,,,
,,,,,,,,,,,,,,,801,2022-01-17_12h27.18.698,multiplicationStroop,2021.2.3,Win32,60.17209218,,,,,left,0,0.4712,0,4,4,37,1,4,2,4 | 2,2,1.4111,1.9756,incongruent,right,,,,,,stimulusFile/physical.xlsx,,,,,,,,,,,,,,,,,,,,,,,,,,,,,,,
,,,,,,,,,,,,,,,801,2022-01-17_12h27.18.698,multiplicationStroop,2021.2.3,Win32,60.17209218,,,,,left,0,0.4799,0,5,5,66,1,3,3,3 | 3,0,1.9756,1.4111,neutral,right,,,,,,stimulusFile/physical.xlsx,,,,,,,,,,,,,,,,,,,,,,,,,,,,,,,
,,,,,,,,,,,,,,,801,2022-01-17_12h27.18.698,multiplicationStroop,2021.2.3,Win32,60.17209218,,,,,left,1,0.4913,0,6,6,7,1,9,8,9 | 8,1,1.9756,1.4111,congruent,left,,,,,,stimulusFile/physical.xlsx,,,,,,,,,,,,,,,,,,,,,,,,,,,,,,,
,,,,,,,,,,,,,,,801,2022-01-17_12h27.18.698,multiplicationStroop,2021.2.3,Win32,60.17209218,,,,,left,1,0.5455,0,7,7,24,1,1,2,1 | 2,1,1.9756,1.4111,incongruent,left,,,,,,stimulusFile/physical.xlsx,,,,,,,,,,,,,,,,,,,,,,,,,,,,,,,
,,,,,,,,,,,,,,,801,2022-01-17_12h27.18.698,multiplicationStroop,2021.2.3,Win32,60.17209218,,,,,left,1,0.4345,0,8,8,6,1,7,6,7 | 6,1,1.9756,1.4111,congruent,left,,,,,,stimulusFile/physical.xlsx,,,,,,,,,,,,,,,,,,,,,,,,,,,,,,,
,,,,,,,,,,,,,,,801,2022-01-17_12h27.18.698,multiplicationStroop,2021.2.3,Win32,60.17209218,,,,,right,1,0.5267,0,9,9,44,1,6,1,6 | 1,5,1.4111,1.9756,incongruent,right,,,,,,stimulusFile/physical.xlsx,,,,,,,,,,,,,,,,,,,,,,,,,,,,,,,
,,,,,,,,,,,,,,,801,2022-01-17_12h27.18.698,multiplicationStroop,2021.2.3,Win32,60.17209218,,,,,right,1,0.449,0,10,10,61,1,4,4,4 | 4,0,1.4111,1.9756,neutral,right,,,,,,stimulusFile/physical.xlsx,,,,,,,,,,,,,,,,,,,,,,,,,,,,,,,
,,,,,,,,,,,,,,,801,2022-01-17_12h27.18.698,multiplicationStroop,2021.2.3,Win32,60.17209218,,,,,right,1,0.4948,0,11,11,19,1,4,9,4 | 9,5,1.4111,1.9756,congruent,right,,,,,,stimulusFile/physical.xlsx,,,,,,,,,,,,,,,,,,,,,,,,,,,,,,,
,,,,,,,,,,,,,,,801,2022-01-17_12h27.18.698,multiplicationStroop,2021.2.3,Win32,60.17209218,,,,,right,1,0.4927,0,12,12,39,1,9,7,9 | 7,2,1.4111,1.9756,incongruent,right,,,,,,stimulusFile/physical.xlsx,,,,,,,,,,,,,,,,,,,,,,,,,,,,,,,
,,,,,,,,,,,,,,,801,2022-01-17_12h27.18.698,multiplicationStroop,2021.2.3,Win32,60.17209218,,,,,right,1,0.4646,0,13,13,11,1,7,9,7 | 9,2,1.4111,1.9756,congruent,right,,,,,,stimulusFile/physical.xlsx,,,,,,,,,,,,,,,,,,,,,,,,,,,,,,,
,,,,,,,,,,,,,,,801,2022-01-17_12h27.18.698,multiplicationStroop,2021.2.3,Win32,60.17209218,,,,,left,1,0.4734,0,14,14,40,1,1,6,1 | 6,5,1.9756,1.4111,incongruent,left,,,,,,stimulusFile/physical.xlsx,,,,,,,,,,,,,,,,,,,,,,,,,,,,,,,
,,,,,,,,,,,,,,,801,2022-01-17_12h27.18.698,multiplicationStroop,2021.2.3,Win32,60.17209218,,,,,right,1,0.4275,0,15,15,18,1,3,8,3 | 8,5,1.4111,1.9756,congruent,right,,,,,,stimulusFile/physical.xlsx,,,,,,,,,,,,,,,,,,,,,,,,,,,,,,,
,,,,,,,,,,,,,,,801,2022-01-17_12h27.18.698,multiplicationStroop,2021.2.3,Win32,60.17209218,,,,,left,1,0.4319,0,16,16,49,1,3,3,3 | 3,0,1.9756,1.4111,neutral,left,,,,,,stimulusFile/physical.xlsx,,,,,,,,,,,,,,,,,,,,,,,,,,,,,,,
,,,,,,,,,,,,,,,801,2022-01-17_12h27.18.698,multiplicationStroop,2021.2.3,Win32,60.17209218,,,,,left,1,0.5118,0,17,17,26,1,6,7,6 | 7,1,1.9756,1.4111,incongruent,left,,,,,,stimulusFile/physical.xlsx,,,,,,,,,,,,,,,,,,,,,,,,,,,,,,,
,,,,,,,,,,,,,,,801,2022-01-17_12h27.18.698,multiplicationStroop,2021.2.3,Win32,60.17209218,,,,,left,0,0.4502,0,18,18,64,1,1,1,1 | 1,0,1.9756,1.4111,neutral,right,,,,,,stimulusFile/physical.xlsx,,,,,,,,,,,,,,,,,,,,,,,,,,,,,,,
,,,,,,,,,,,,,,,801,2022-01-17_12h27.18.698,multiplicationStroop,2021.2.3,Win32,60.17209218,,,,,right,1,0.4588,0,19,19,10,1,6,8,6 | 8,2,1.4111,1.9756,congruent,right,,,,,,stimulusFile/physical.xlsx,,,,,,,,,,,,,,,,,,,,,,,,,,,,,,,
,,,,,,,,,,,,,,,801,2022-01-17_12h27.18.698,multiplicationStroop,2021.2.3,Win32,60.17209218,,,,,left,1,0.4076,0,20,20,34,1,6,8,6 | 8,2,1.9756,1.4111,incongruent,left,,,,,,stimulusFile/physical.xlsx,,,,,,,,,,,,,,,,,,,,,,,,,,,,,,,
,,,,,,,,,,,,,,,801,2022-01-17_12h27.18.698,multiplicationStroop,2021.2.3,Win32,60.17209218,,,,,left,1,0.4986,0,21,21,70,1,8,8,8 | 8,0,1.9756,1.4111,neutral,left,,,,,,stimulusFile/physical.xlsx,,,,,,,,,,,,,,,,,,,,,,,,,,,,,,,
,,,,,,,,,,,,,,,801,2022-01-17_12h27.18.698,multiplicationStroop,2021.2.3,Win32,60.17209218,,,,,right,1,0.4734,0,22,22,1,1,3,4,3 | 4,1,1.4111,1.9756,congruent,right,,,,,,stimulusFile/physical.xlsx,,,,,,,,,,,,,,,,,,,,,,,,,,,,,,,
,,,,,,,,,,,,,,,801,2022-01-17_12h27.18.698,multiplicationStroop,2021.2.3,Win32,60.17209218,,,,,left,1,0.464,0,23,23,53,1,4,4,4 | 4,0,1.9756,1.4111,neutral,left,,,,,,stimulusFile/physical.xlsx,,,,,,,,,,,,,,,,,,,,,,,,,,,,,,,
,,,,,,,,,,,,,,,801,2022-01-17_12h27.18.698,multiplicationStroop,2021.2.3,Win32,60.17209218,,,,,right,1,0.4564,0,24,24,56,1,1,1,1 | 1,0,1.4111,1.9756,neutral,right,,,,,,stimulusFile/physical.xlsx,,,,,,,,,,,,,,,,,,,,,,,,,,,,,,,
,,,,,,,,,,,,,,,801,2022-01-17_12h27.18.698,multiplicationStroop,2021.2.3,Win32,60.17209218,,,,,right,1,0.4818,0,25,25,60,1,3,3,3 | 3,0,1.4111,1.9756,neutral,right,,,,,,stimulusFile/physical.xlsx,,,,,,,,,,,,,,,,,,,,,,,,,,,,,,,
,,,,,,,,,,,,,,,801,2022-01-17_12h27.18.698,multiplicationStroop,2021.2.3,Win32,60.17209218,,,,,right,1,0.4334,0,26,26,59,1,7,7,7 | 7,0,1.4111,1.9756,neutral,right,,,,,,stimulusFile/physical.xlsx,,,,,,,,,,,,,,,,,,,,,,,,,,,,,,,
,,,,,,,,,,,,,,,801,2022-01-17_12h27.18.698,multiplicationStroop,2021.2.3,Win32,60.17209218,,,,,left,1,0.4576,0,27,27,14,1,8,6,8 | 6,2,1.9756,1.4111,congruent,left,,,,,,stimulusFile/physical.xlsx,,,,,,,,,,,,,,,,,,,,,,,,,,,,,,,
,,,,,,,,,,,,,,,801,2022-01-17_12h27.18.698,multiplicationStroop,2021.2.3,Win32,60.17209218,,,,,left,1,0.4884,0,28,28,50,1,6,6,6 | 6,0,1.9756,1.4111,neutral,left,,,,,,stimulusFile/physical.xlsx,,,,,,,,,,,,,,,,,,,,,,,,,,,,,,,
,,,,,,,,,,,,,,,801,2022-01-17_12h27.18.698,multiplicationStroop,2021.2.3,Win32,60.17209218,,,,,right,1,0.4223,0,29,29,67,1,4,4,4 | 4,0,1.4111,1.9756,neutral,right,,,,,,stimulusFile/physical.xlsx,,,,,,,,,,,,,,,,,,,,,,,,,,,,,,,
,,,,,,,,,,,,,,,801,2022-01-17_12h27.18.698,multiplicationStroop,2021.2.3,Win32,60.17209218,,,,,right,0,0.4735,0,30,30,42,1,3,8,3 | 8,5,1.9756,1.4111,incongruent,left,,,,,,stimulusFile/physical.xlsx,,,,,,,,,,,,,,,,,,,,,,,,,,,,,,,
,,,,,,,,,,,,,,,801,2022-01-17_12h27.18.698,multiplicationStroop,2021.2.3,Win32,60.17209218,,,,,right,1,0.4993,0,31,31,8,1,1,3,1 | 3,2,1.4111,1.9756,congruent,right,,,,,,stimulusFile/physical.xlsx,,,,,,,,,,,,,,,,,,,,,,,,,,,,,,,
,,,,,,,,,,,,,,,801,2022-01-17_12h27.18.698,multiplicationStroop,2021.2.3,Win32,60.17209218,,,,,left,1,0.4414,0,32,32,25,1,3,4,3 | 4,1,1.9756,1.4111,incongruent,left,,,,,,stimulusFile/physical.xlsx,,,,,,,,,,,,,,,,,,,,,,,,,,,,,,,
,,,,,,,,,,,,,,,801,2022-01-17_12h27.18.698,multiplicationStroop,2021.2.3,Win32,60.17209218,,,,,left,1,0.4634,0,33,33,23,1,9,4,9 | 4,5,1.9756,1.4111,congruent,left,,,,,,stimulusFile/physical.xlsx,,,,,,,,,,,,,,,,,,,,,,,,,,,,,,,
,,,,,,,,,,,,,,,801,2022-01-17_12h27.18.698,multiplicationStroop,2021.2.3,Win32,60.17209218,,,,,left,1,0.4959,0,34,34,5,1,4,3,4 | 3,1,1.9756,1.4111,congruent,left,,,,,,stimulusFile/physical.xlsx,,,,,,,,,,,,,,,,,,,,,,,,,,,,,,,
,,,,,,,,,,,,,,,801,2022-01-17_12h27.18.698,multiplicationStroop,2021.2.3,Win32,60.17209218,,,,,left,1,0.4934,0,35,35,35,1,7,9,7 | 9,2,1.9756,1.4111,incongruent,left,,,,,,stimulusFile/physical.xlsx,,,,,,,,,,,,,,,,,,,,,,,,,,,,,,,
,,,,,,,,,,,,,,,801,2022-01-17_12h27.18.698,multiplicationStroop,2021.2.3,Win32,60.17209218,,,,,right,0,0.4495,0,36,36,71,1,9,9,9 | 9,0,1.4111,1.9756,neutral,left,,,,,,stimulusFile/physical.xlsx,,,,,,,,,,,,,,,,,,,,,,,,,,,,,,,
,,,,,,,,,,,,,,,801,2022-01-17_12h27.18.698,multiplicationStroop,2021.2.3,Win32,60.17209218,,,,,left,1,0.5182,0,37,37,22,1,8,3,8 | 3,5,1.9756,1.4111,congruent,left,,,,,,stimulusFile/physical.xlsx,,,,,,,,,,,,,,,,,,,,,,,,,,,,,,,
,,,,,,,,,,,,,,,801,2022-01-17_12h27.18.698,multiplicationStroop,2021.2.3,Win32,60.17209218,,,,,right,1,0.4416,0,38,38,2,1,6,7,6 | 7,1,1.4111,1.9756,congruent,right,,,,,,stimulusFile/physical.xlsx,,,,,,,,,,,,,,,,,,,,,,,,,,,,,,,
,,,,,,,,,,,,,,,801,2022-01-17_12h27.18.698,multiplicationStroop,2021.2.3,Win32,60.17209218,,,,,right,1,0.4076,0,39,39,63,1,9,9,9 | 9,0,1.4111,1.9756,neutral,right,,,,,,stimulusFile/physical.xlsx,,,,,,,,,,,,,,,,,,,,,,,,,,,,,,,
,,,,,,,,,,,,,,,801,2022-01-17_12h27.18.698,multiplicationStroop,2021.2.3,Win32,60.17209218,,,,,right,0,0.3933,0,40,40,69,1,7,7,7 | 7,0,1.4111,1.9756,neutral,left,,,,,,stimulusFile/physical.xlsx,,,,,,,,,,,,,,,,,,,,,,,,,,,,,,,
,,,,,,,,,,,,,,,801,2022-01-17_12h27.18.698,multiplicationStroop,2021.2.3,Win32,60.17209218,,,,,left,1,0.4243,0,41,41,55,1,9,9,9 | 9,0,1.9756,1.4111,neutral,left,,,,,,stimulusFile/physical.xlsx,,,,,,,,,,,,,,,,,,,,,,,,,,,,,,,
,,,,,,,,,,,,,,,801,2022-01-17_12h27.18.698,multiplicationStroop,2021.2.3,Win32,60.17209218,,,,,left,1,0.5933,0,42,42,43,1,4,9,4 | 9,5,1.9756,1.4111,incongruent,left,,,,,,stimulusFile/physical.xlsx,,,,,,,,,,,,,,,,,,,,,,,,,,,,,,,
,,,,,,,,,,,,,,,801,2022-01-17_12h27.18.698,multiplicationStroop,2021.2.3,Win32,60.17209218,,,,,right,1,0.5238,0,43,43,38,1,8,6,8 | 6,2,1.4111,1.9756,incongruent,right,,,,,,stimulusFile/physical.xlsx,,,,,,,,,,,,,,,,,,,,,,,,,,,,,,,
,,,,,,,,,,,,,,,801,2022-01-17_12h27.18.698,multiplicationStroop,2021.2.3,Win32,60.17209218,,,,,right,1,0.4491,0,44,44,62,1,8,8,8 | 8,0,1.4111,1.9756,neutral,right,,,,,,stimulusFile/physical.xlsx,,,,,,,,,,,,,,,,,,,,,,,,,,,,,,,
,,,,,,,,,,,,,,,801,2022-01-17_12h27.18.698,multiplicationStroop,2021.2.3,Win32,60.17209218,,,,,left,1,0.3739,0,45,45,21,1,7,2,7 | 2,5,1.9756,1.4111,congruent,left,,,,,,stimulusFile/physical.xlsx,,,,,,,,,,,,,,,,,,,,,,,,,,,,,,,
,,,,,,,,,,,,,,,801,2022-01-17_12h27.18.698,multiplicationStroop,2021.2.3,Win32,60.17209218,,,,,right,1,0.4184,0,46,46,17,1,2,7,2 | 7,5,1.4111,1.9756,congruent,right,,,,,,stimulusFile/physical.xlsx,,,,,,,,,,,,,,,,,,,,,,,,,,,,,,,
,,,,,,,,,,,,,,,801,2022-01-17_12h27.18.698,multiplicationStroop,2021.2.3,Win32,60.17209218,,,,,left,1,0.4246,0,47,47,27,1,8,9,8 | 9,1,1.9756,1.4111,incongruent,left,,,,,,stimulusFile/physical.xlsx,,,,,,,,,,,,,,,,,,,,,,,,,,,,,,,
,,,,,,,,,,,,,,,801,2022-01-17_12h27.18.698,multiplicationStroop,2021.2.3,Win32,60.17209218,,,,,left,0,0.4735,0,48,48,28,1,2,1,2 | 1,1,1.4111,1.9756,incongruent,right,,,,,,stimulusFile/physical.xlsx,,,,,,,,,,,,,,,,,,,,,,,,,,,,,,,
,,,,,,,,,,,,,,,801,2022-01-17_12h27.18.698,multiplicationStroop,2021.2.3,Win32,60.17209218,,,,,left,1,0.4615,0,49,49,48,1,1,1,1 | 1,0,1.9756,1.4111,neutral,left,,,,,,stimulusFile/physical.xlsx,,,,,,,,,,,,,,,,,,,,,,,,,,,,,,,
,,,,,,,,,,,,,,,801,2022-01-17_12h27.18.698,multiplicationStroop,2021.2.3,Win32,60.17209218,,,,,left,1,0.445,0,50,50,33,1,2,4,2 | 4,2,1.9756,1.4111,incongruent,left,,,,,,stimulusFile/physical.xlsx,,,,,,,,,,,,,,,,,,,,,,,,,,,,,,,
,,,,,,,,,,,,,,,801,2022-01-17_12h27.18.698,multiplicationStroop,2021.2.3,Win32,60.17209218,,,,,right,1,0.4922,0,51,51,57,1,2,2,2 | 2,0,1.4111,1.9756,neutral,right,,,,,,stimulusFile/physical.xlsx,,,,,,,,,,,,,,,,,,,,,,,,,,,,,,,
,,,,,,,,,,,,,,,801,2022-01-17_12h27.18.698,multiplicationStroop,2021.2.3,Win32,60.17209218,,,,,right,1,0.4802,0,52,52,47,1,9,4,9 | 4,5,1.4111,1.9756,incongruent,right,,,,,,stimulusFile/physical.xlsx,,,,,,,,,,,,,,,,,,,,,,,,,,,,,,,
,,,,,,,,,,,,,,,801,2022-01-17_12h27.18.698,multiplicationStroop,2021.2.3,Win32,60.17209218,,,,,right,1,0.4735,0,53,53,58,1,6,6,6 | 6,0,1.4111,1.9756,neutral,right,,,,,,stimulusFile/physical.xlsx,,,,,,,,,,,,,,,,,,,,,,,,,,,,,,,
,,,,,,,,,,,,,,,801,2022-01-17_12h27.18.698,multiplicationStroop,2021.2.3,Win32,60.17209218,,,,,left,1,0.4067,0,54,54,13,1,4,2,4 | 2,2,1.9756,1.4111,congruent,left,,,,,,stimulusFile/physical.xlsx,,,,,,,,,,,,,,,,,,,,,,,,,,,,,,,
,,,,,,,,,,,,,,,801,2022-01-17_12h27.18.698,multiplicationStroop,2021.2.3,Win32,60.17209218,,,,,right,1,0.5318,0,55,55,45,1,7,2,7 | 2,5,1.4111,1.9756,incongruent,right,,,,,,stimulusFile/physical.xlsx,,,,,,,,,,,,,,,,,,,,,,,,,,,,,,,
,,,,,,,,,,,,,,,801,2022-01-17_12h27.18.698,multiplicationStroop,2021.2.3,Win32,60.17209218,,,,,left,0,0.3996,0,56,56,36,1,3,1,3 | 1,2,1.4111,1.9756,incongruent,right,,,,,,stimulusFile/physical.xlsx,,,,,,,,,,,,,,,,,,,,,,,,,,,,,,,
,,,,,,,,,,,,,,,801,2022-01-17_12h27.18.698,multiplicationStroop,2021.2.3,Win32,60.17209218,,,,,left,1,0.4404,0,57,57,20,1,6,1,6 | 1,5,1.9756,1.4111,congruent,left,,,,,,stimulusFile/physical.xlsx,,,,,,,,,,,,,,,,,,,,,,,,,,,,,,,
,,,,,,,,,,,,,,,801,2022-01-17_12h27.18.698,multiplicationStroop,2021.2.3,Win32,60.17209218,,,,,left,1,0.4506,0,58,58,52,1,2,2,2 | 2,0,1.9756,1.4111,neutral,left,,,,,,stimulusFile/physical.xlsx,,,,,,,,,,,,,,,,,,,,,,,,,,,,,,,
,,,,,,,,,,,,,,,801,2022-01-17_12h27.18.698,multiplicationStroop,2021.2.3,Win32,60.17209218,,,,,left,1,0.4069,0,59,59,15,1,9,7,9 | 7,2,1.9756,1.4111,congruent,left,,,,,,stimulusFile/physical.xlsx,,,,,,,,,,,,,,,,,,,,,,,,,,,,,,,
,,,,,,,,,,,,,,,801,2022-01-17_12h27.18.698,multiplicationStroop,2021.2.3,Win32,60.17209218,,,,,left,1,0.4728,0,60,60,51,1,8,8,8 | 8,0,1.9756,1.4111,neutral,left,,,,,,stimulusFile/physical.xlsx,,,,,,,,,,,,,,,,,,,,,,,,,,,,,,,
,,,,,,,,,,,,,,,801,2022-01-17_12h27.18.698,multiplicationStroop,2021.2.3,Win32,60.17209218,,,,,left,1,0.4514,0,61,61,68,1,6,6,6 | 6,0,1.9756,1.4111,neutral,left,,,,,,stimulusFile/physical.xlsx,,,,,,,,,,,,,,,,,,,,,,,,,,,,,,,
,,,,,,,,,,,,,,,801,2022-01-17_12h27.18.698,multiplicationStroop,2021.2.3,Win32,60.17209218,,,,,left,1,0.4275,0,62,62,4,1,2,1,2 | 1,1,1.9756,1.4111,congruent,left,,,,,,stimulusFile/physical.xlsx,,,,,,,,,,,,,,,,,,,,,,,,,,,,,,,
,,,,,,,,,,,,,,,801,2022-01-17_12h27.18.698,multiplicationStroop,2021.2.3,Win32,60.17209218,,,,,right,1,0.4725,0,63,63,65,1,2,2,2 | 2,0,1.4111,1.9756,neutral,right,,,,,,stimulusFile/physical.xlsx,,,,,,,,,,,,,,,,,,,,,,,,,,,,,,,
,,,,,,,,,,,,,,,801,2022-01-17_12h27.18.698,multiplicationStroop,2021.2.3,Win32,60.17209218,,,,,left,1,0.4211,0,64,64,12,1,3,1,3 | 1,2,1.9756,1.4111,congruent,left,,,,,,stimulusFile/physical.xlsx,,,,,,,,,,,,,,,,,,,,,,,,,,,,,,,
,,,,,,,,,,,,,,,801,2022-01-17_12h27.18.698,multiplicationStroop,2021.2.3,Win32,60.17209218,,,,,right,1,0.4779,0,65,65,29,1,4,3,4 | 3,1,1.4111,1.9756,incongruent,right,,,,,,stimulusFile/physical.xlsx,,,,,,,,,,,,,,,,,,,,,,,,,,,,,,,
,,,,,,,,,,,,,,,801,2022-01-17_12h27.18.698,multiplicationStroop,2021.2.3,Win32,60.17209218,,,,,right,1,0.56,0,66,66,16,1,1,6,1 | 6,5,1.4111,1.9756,congruent,right,,,,,,stimulusFile/physical.xlsx,,,,,,,,,,,,,,,,,,,,,,,,,,,,,,,
,,,,,,,,,,,,,,,801,2022-01-17_12h27.18.698,multiplicationStroop,2021.2.3,Win32,60.17209218,,,,,left,1,0.3939,0,67,67,41,1,2,7,2 | 7,5,1.9756,1.4111,incongruent,left,,,,,,stimulusFile/physical.xlsx,,,,,,,,,,,,,,,,,,,,,,,,,,,,,,,
,,,,,,,,,,,,,,,801,2022-01-17_12h27.18.698,multiplicationStroop,2021.2.3,Win32,60.17209218,,,,,right,1,0.4424,0,68,68,3,1,8,9,8 | 9,1,1.4111,1.9756,congruent,right,,,,,,stimulusFile/physical.xlsx,,,,,,,,,,,,,,,,,,,,,,,,,,,,,,,
,,,,,,,,,,,,,,,801,2022-01-17_12h27.18.698,multiplicationStroop,2021.2.3,Win32,60.17209218,,,,,left,1,0.3996,0,69,69,32,1,1,3,1 | 3,2,1.9756,1.4111,incongruent,left,,,,,,stimulusFile/physical.xlsx,,,,,,,,,,,,,,,,,,,,,,,,,,,,,,,
,,,,,,,,,,,,,,,801,2022-01-17_12h27.18.698,multiplicationStroop,2021.2.3,Win32,60.17209218,,,,,right,1,0.4681,0,70,70,0,1,1,2,1 | 2,1,1.4111,1.9756,congruent,right,,,,,,stimulusFile/physical.xlsx,,,,,,,,,,,,,,,,,,,,,,,,,,,,,,,
,,,,,,,,,,,,,,,801,2022-01-17_12h27.18.698,multiplicationStroop,2021.2.3,Win32,60.17209218,,,,,right,1,0.5018,0,71,71,9,1,2,4,2 | 4,2,1.4111,1.9756,congruent,right,,,,,,stimulusFile/physical.xlsx,,,,,,,,,,,,,,,,,,,,,,,,,,,,,,,
,,,,,,,,,,,,,,,801,2022-01-17_12h27.18.698,multiplicationStroop,2021.2.3,Win32,60.17209218,,,,,,,,,,,,,,,,,,,,,0,0,0,1,1,stimulusFile/physical.xlsx,PHYSICALLY larger (larger font size).,images/physicallyLarger.png,,,,,,,,,,,,,,,,,,,,,,,,,,,,,
,,,,,,,,,,,,,,,801,2022-01-17_12h27.18.698,multiplicationStroop,2021.2.3,Win32,60.17209218,space,4.1703,space,5.9287,left,1,0.8263,0,0,0,13,1,4,2,4 | 2,2,1.9756,1.4111,congruent,left,,,,,,stimulusFile/magnitude.xlsx,,,,,,,,,,,,,,,,,,,,,,,,,,,,,,,
,,,,,,,,,,,,,,,801,2022-01-17_12h27.18.698,multiplicationStroop,2021.2.3,Win32,60.17209218,,,,,right,1,0.6231,0,1,1,10,1,6,8,6 | 8,2,1.4111,1.9756,congruent,right,,,,,,stimulusFile/magnitude.xlsx,,,,,,,,,,,,,,,,,,,,,,,,,,,,,,,
,,,,,,,,,,,,,,,801,2022-01-17_12h27.18.698,multiplicationStroop,2021.2.3,Win32,60.17209218,,,,,left,1,0.5174,0,2,2,23,1,9,4,9 | 4,5,1.9756,1.4111,congruent,left,,,,,,stimulusFile/magnitude.xlsx,,,,,,,,,,,,,,,,,,,,,,,,,,,,,,,
,,,,,,,,,,,,,,,801,2022-01-17_12h27.18.698,multiplicationStroop,2021.2.3,Win32,60.17209218,,,,,right,1,0.4866,0,3,3,0,1,1,2,1 | 2,1,1.4111,1.9756,congruent,right,,,,,,stimulusFile/magnitude.xlsx,,,,,,,,,,,,,,,,,,,,,,,,,,,,,,,
,,,,,,,,,,,,,,,801,2022-01-17_12h27.18.698,multiplicationStroop,2021.2.3,Win32,60.17209218,,,,,right,1,0.7186,0,4,4,32,1,1,3,1 | 3,2,1.9756,1.4111,incongruent,right,,,,,,stimulusFile/magnitude.xlsx,,,,,,,,,,,,,,,,,,,,,,,,,,,,,,,
,,,,,,,,,,,,,,,801,2022-01-17_12h27.18.698,multiplicationStroop,2021.2.3,Win32,60.17209218,,,,,left,0,0.5678,0,5,5,27,1,8,9,8 | 9,1,1.9756,1.4111,incongruent,right,,,,,,stimulusFile/magnitude.xlsx,,,,,,,,,,,,,,,,,,,,,,,,,,,,,,,
,,,,,,,,,,,,,,,801,2022-01-17_12h27.18.698,multiplicationStroop,2021.2.3,Win32,60.17209218,,,,,right,1,0.6507,0,6,6,43,1,4,9,4 | 9,5,1.9756,1.4111,incongruent,right,,,,,,stimulusFile/magnitude.xlsx,,,,,,,,,,,,,,,,,,,,,,,,,,,,,,,
,,,,,,,,,,,,,,,801,2022-01-17_12h27.18.698,multiplicationStroop,2021.2.3,Win32,60.17209218,,,,,right,1,0.7265,0,7,7,57,1,2,4,2 | 4,2,1.6933,1.6933,neutral,right,,,,,,stimulusFile/magnitude.xlsx,,,,,,,,,,,,,,,,,,,,,,,,,,,,,,,
,,,,,,,,,,,,,,,801,2022-01-17_12h27.18.698,multiplicationStroop,2021.2.3,Win32,60.17209218,,,,,left,1,0.909,0,8,8,21,1,7,2,7 | 2,5,1.9756,1.4111,congruent,left,,,,,,stimulusFile/magnitude.xlsx,,,,,,,,,,,,,,,,,,,,,,,,,,,,,,,
,,,,,,,,,,,,,,,801,2022-01-17_12h27.18.698,multiplicationStroop,2021.2.3,Win32,60.17209218,,,,,left,1,0.5864,0,9,9,71,1,9,4,9 | 4,5,1.6933,1.6933,neutral,left,,,,,,stimulusFile/magnitude.xlsx,,,,,,,,,,,,,,,,,,,,,,,,,,,,,,,
,,,,,,,,,,,,,,,801,2022-01-17_12h27.18.698,multiplicationStroop,2021.2.3,Win32,60.17209218,,,,,left,1,0.5217,0,10,10,62,1,8,6,8 | 6,2,1.6933,1.6933,neutral,left,,,,,,stimulusFile/magnitude.xlsx,,,,,,,,,,,,,,,,,,,,,,,,,,,,,,,
,,,,,,,,,,,,,,,801,2022-01-17_12h27.18.698,multiplicationStroop,2021.2.3,Win32,60.17209218,,,,,left,1,0.6349,0,11,11,37,1,4,2,4 | 2,2,1.4111,1.9756,incongruent,left,,,,,,stimulusFile/magnitude.xlsx,,,,,,,,,,,,,,,,,,,,,,,,,,,,,,,
,,,,,,,,,,,,,,,801,2022-01-17_12h27.18.698,multiplicationStroop,2021.2.3,Win32,60.17209218,,,,,right,1,0.5412,0,12,12,65,1,2,7,2 | 7,5,1.6933,1.6933,neutral,right,,,,,,stimulusFile/magnitude.xlsx,,,,,,,,,,,,,,,,,,,,,,,,,,,,,,,
,,,,,,,,,,,,,,,801,2022-01-17_12h27.18.698,multiplicationStroop,2021.2.3,Win32,60.17209218,,,,,left,1,0.4777,0,13,13,20,1,6,1,6 | 1,5,1.9756,1.4111,congruent,left,,,,,,stimulusFile/magnitude.xlsx,,,,,,,,,,,,,,,,,,,,,,,,,,,,,,,
,,,,,,,,,,,,,,,801,2022-01-17_12h27.18.698,multiplicationStroop,2021.2.3,Win32,60.17209218,,,,,right,0,0.5071,0,14,14,38,1,8,6,8 | 6,2,1.4111,1.9756,incongruent,left,,,,,,stimulusFile/magnitude.xlsx,,,,,,,,,,,,,,,,,,,,,,,,,,,,,,,
,,,,,,,,,,,,,,,801,2022-01-17_12h27.18.698,multiplicationStroop,2021.2.3,Win32,60.17209218,,,,,right,1,0.9605,0,15,15,8,1,1,3,1 | 3,2,1.4111,1.9756,congruent,right,,,,,,stimulusFile/magnitude.xlsx,,,,,,,,,,,,,,,,,,,,,,,,,,,,,,,
,,,,,,,,,,,,,,,801,2022-01-17_12h27.18.698,multiplicationStroop,2021.2.3,Win32,60.17209218,,,,,right,1,0.6355,0,16,16,17,1,2,7,2 | 7,5,1.4111,1.9756,congruent,right,,,,,,stimulusFile/magnitude.xlsx,,,,,,,,,,,,,,,,,,,,,,,,,,,,,,,
,,,,,,,,,,,,,,,801,2022-01-17_12h27.18.698,multiplicationStroop,2021.2.3,Win32,60.17209218,,,,,right,1,0.5846,0,17,17,3,1,8,9,8 | 9,1,1.4111,1.9756,congruent,right,,,,,,stimulusFile/magnitude.xlsx,,,,,,,,,,,,,,,,,,,,,,,,,,,,,,,
,,,,,,,,,,,,,,,801,2022-01-17_12h27.18.698,multiplicationStroop,2021.2.3,Win32,60.17209218,,,,,right,1,0.8355,0,18,18,58,1,6,8,6 | 8,2,1.6933,1.6933,neutral,right,,,,,,stimulusFile/magnitude.xlsx,,,,,,,,,,,,,,,,,,,,,,,,,,,,,,,
,,,,,,,,,,,,,,,801,2022-01-17_12h27.18.698,multiplicationStroop,2021.2.3,Win32,60.17209218,,,,,right,1,0.4914,0,19,19,11,1,7,9,7 | 9,2,1.4111,1.9756,congruent,right,,,,,,stimulusFile/magnitude.xlsx,,,,,,,,,,,,,,,,,,,,,,,,,,,,,,,
,,,,,,,,,,,,,,,801,2022-01-17_12h27.18.698,multiplicationStroop,2021.2.3,Win32,60.17209218,,,,,right,0,0.6041,0,20,20,46,1,8,3,8 | 3,5,1.4111,1.9756,incongruent,left,,,,,,stimulusFile/magnitude.xlsx,,,,,,,,,,,,,,,,,,,,,,,,,,,,,,,
,,,,,,,,,,,,,,,801,2022-01-17_12h27.18.698,multiplicationStroop,2021.2.3,Win32,60.17209218,,,,,right,0,0.4842,0,21,21,31,1,9,8,9 | 8,1,1.4111,1.9756,incongruent,left,,,,,,stimulusFile/magnitude.xlsx,,,,,,,,,,,,,,,,,,,,,,,,,,,,,,,
,,,,,,,,,,,,,,,801,2022-01-17_12h27.18.698,multiplicationStroop,2021.2.3,Win32,60.17209218,,,,,right,1,0.5361,0,22,22,67,1,4,9,4 | 9,5,1.6933,1.6933,neutral,right,,,,,,stimulusFile/magnitude.xlsx,,,,,,,,,,,,,,,,,,,,,,,,,,,,,,,
,,,,,,,,,,,,,,,801,2022-01-17_12h27.18.698,multiplicationStroop,2021.2.3,Win32,60.17209218,,,,,left,1,0.8843,0,23,23,29,1,4,3,4 | 3,1,1.4111,1.9756,incongruent,left,,,,,,stimulusFile/magnitude.xlsx,,,,,,,,,,,,,,,,,,,,,,,,,,,,,,,
,,,,,,,,,,,,,,,801,2022-01-17_12h27.18.698,multiplicationStroop,2021.2.3,Win32,60.17209218,,,,,left,1,0.7519,0,24,24,54,1,7,6,7 | 6,1,1.6933,1.6933,neutral,left,,,,,,stimulusFile/magnitude.xlsx,,,,,,,,,,,,,,,,,,,,,,,,,,,,,,,
,,,,,,,,,,,,,,,801,2022-01-17_12h27.18.698,multiplicationStroop,2021.2.3,Win32,60.17209218,,,,,right,1,0.5065,0,25,25,1,1,3,4,3 | 4,1,1.4111,1.9756,congruent,right,,,,,,stimulusFile/magnitude.xlsx,,,,,,,,,,,,,,,,,,,,,,,,,,,,,,,
,,,,,,,,,,,,,,,801,2022-01-17_12h27.18.698,multiplicationStroop,2021.2.3,Win32,60.17209218,,,,,right,1,0.7731,0,26,26,56,1,1,3,1 | 3,2,1.6933,1.6933,neutral,right,,,,,,stimulusFile/magnitude.xlsx,,,,,,,,,,,,,,,,,,,,,,,,,,,,,,,
,,,,,,,,,,,,,,,801,2022-01-17_12h27.18.698,multiplicationStroop,2021.2.3,Win32,60.17209218,,,,,left,1,0.5214,0,27,27,4,1,2,1,2 | 1,1,1.9756,1.4111,congruent,left,,,,,,stimulusFile/magnitude.xlsx,,,,,,,,,,,,,,,,,,,,,,,,,,,,,,,
,,,,,,,,,,,,,,,801,2022-01-17_12h27.18.698,multiplicationStroop,2021.2.3,Win32,60.17209218,,,,,left,1,0.5595,0,28,28,15,1,9,7,9 | 7,2,1.9756,1.4111,congruent,left,,,,,,stimulusFile/magnitude.xlsx,,,,,,,,,,,,,,,,,,,,,,,,,,,,,,,
,,,,,,,,,,,,,,,801,2022-01-17_12h27.18.698,multiplicationStroop,2021.2.3,Win32,60.17209218,,,,,right,1,0.5057,0,29,29,9,1,2,4,2 | 4,2,1.4111,1.9756,congruent,right,,,,,,stimulusFile/magnitude.xlsx,,,,,,,,,,,,,,,,,,,,,,,,,,,,,,,
,,,,,,,,,,,,,,,801,2022-01-17_12h27.18.698,multiplicationStroop,2021.2.3,Win32,60.17209218,,,,,left,1,0.578,0,30,30,55,1,9,8,9 | 8,1,1.6933,1.6933,neutral,left,,,,,,stimulusFile/magnitude.xlsx,,,,,,,,,,,,,,,,,,,,,,,,,,,,,,,
,,,,,,,,,,,,,,,801,2022-01-17_12h27.18.698,multiplicationStroop,2021.2.3,Win32,60.17209218,,,,,right,1,0.7561,0,31,31,50,1,6,7,6 | 7,1,1.6933,1.6933,neutral,right,,,,,,stimulusFile/magnitude.xlsx,,,,,,,,,,,,,,,,,,,,,,,,,,,,,,,
,,,,,,,,,,,,,,,801,2022-01-17_12h27.18.698,multiplicationStroop,2021.2.3,Win32,60.17209218,,,,,left,1,0.5525,0,32,32,36,1,3,1,3 | 1,2,1.4111,1.9756,incongruent,left,,,,,,stimulusFile/magnitude.xlsx,,,,,,,,,,,,,,,,,,,,,,,,,,,,,,,
,,,,,,,,,,,,,,,801,2022-01-17_12h27.18.698,multiplicationStroop,2021.2.3,Win32,60.17209218,,,,,left,1,0.5514,0,33,33,52,1,2,1,2 | 1,1,1.6933,1.6933,neutral,left,,,,,,stimulusFile/magnitude.xlsx,,,,,,,,,,,,,,,,,,,,,,,,,,,,,,,
,,,,,,,,,,,,,,,801,2022-01-17_12h27.18.698,multiplicationStroop,2021.2.3,Win32,60.17209218,,,,,left,1,0.5347,0,34,34,45,1,7,2,7 | 2,5,1.4111,1.9756,incongruent,left,,,,,,stimulusFile/magnitude.xlsx,,,,,,,,,,,,,,,,,,,,,,,,,,,,,,,
,,,,,,,,,,,,,,,801,2022-01-17_12h27.18.698,multiplicationStroop,2021.2.3,Win32,60.17209218,,,,,left,1,0.4234,0,35,35,47,1,9,4,9 | 4,5,1.4111,1.9756,incongruent,left,,,,,,stimulusFile/magnitude.xlsx,,,,,,,,,,,,,,,,,,,,,,,,,,,,,,,
,,,,,,,,,,,,,,,801,2022-01-17_12h27.18.698,multiplicationStroop,2021.2.3,Win32,60.17209218,,,,,right,1,0.4692,0,36,36,18,1,3,8,3 | 8,5,1.4111,1.9756,congruent,right,,,,,,stimulusFile/magnitude.xlsx,,,,,,,,,,,,,,,,,,,,,,,,,,,,,,,
,,,,,,,,,,,,,,,801,2022-01-17_12h27.18.698,multiplicationStroop,2021.2.3,Win32,60.17209218,,,,,right,1,0.5005,0,37,37,64,1,1,6,1 | 6,5,1.6933,1.6933,neutral,right,,,,,,stimulusFile/magnitude.xlsx,,,,,,,,,,,,,,,,,,,,,,,,,,,,,,,
,,,,,,,,,,,,,,,801,2022-01-17_12h27.18.698,multiplicationStroop,2021.2.3,Win32,60.17209218,,,,,left,1,0.4203,0,38,38,30,1,7,6,7 | 6,1,1.4111,1.9756,incongruent,left,,,,,,stimulusFile/magnitude.xlsx,,,,,,,,,,,,,,,,,,,,,,,,,,,,,,,
,,,,,,,,,,,,,,,801,2022-01-17_12h27.18.698,multiplicationStroop,2021.2.3,Win32,60.17209218,,,,,left,1,0.5221,0,39,39,39,1,9,7,9 | 7,2,1.4111,1.9756,incongruent,left,,,,,,stimulusFile/magnitude.xlsx,,,,,,,,,,,,,,,,,,,,,,,,,,,,,,,
,,,,,,,,,,,,,,,801,2022-01-17_12h27.18.698,multiplicationStroop,2021.2.3,Win32,60.17209218,,,,,left,1,0.417,0,40,40,68,1,6,1,6 | 1,5,1.6933,1.6933,neutral,left,,,,,,stimulusFile/magnitude.xlsx,,,,,,,,,,,,,,,,,,,,,,,,,,,,,,,
,,,,,,,,,,,,,,,801,2022-01-17_12h27.18.698,multiplicationStroop,2021.2.3,Win32,60.17209218,,,,,right,1,0.584,0,41,41,59,1,7,9,7 | 9,2,1.6933,1.6933,neutral,right,,,,,,stimulusFile/magnitude.xlsx,,,,,,,,,,,,,,,,,,,,,,,,,,,,,,,
,,,,,,,,,,,,,,,801,2022-01-17_12h27.18.698,multiplicationStroop,2021.2.3,Win32,60.17209218,,,,,right,1,0.5288,0,42,42,51,1,8,9,8 | 9,1,1.6933,1.6933,neutral,right,,,,,,stimulusFile/magnitude.xlsx,,,,,,,,,,,,,,,,,,,,,,,,,,,,,,,
,,,,,,,,,,,,,,,801,2022-01-17_12h27.18.698,multiplicationStroop,2021.2.3,Win32,60.17209218,,,,,left,1,0.434,0,43,43,69,1,7,2,7 | 2,5,1.6933,1.6933,neutral,left,,,,,,stimulusFile/magnitude.xlsx,,,,,,,,,,,,,,,,,,,,,,,,,,,,,,,
,,,,,,,,,,,,,,,801,2022-01-17_12h27.18.698,multiplicationStroop,2021.2.3,Win32,60.17209218,,,,,left,1,0.4682,0,44,44,44,1,6,1,6 | 1,5,1.4111,1.9756,incongruent,left,,,,,,stimulusFile/magnitude.xlsx,,,,,,,,,,,,,,,,,,,,,,,,,,,,,,,
,,,,,,,,,,,,,,,801,2022-01-17_12h27.18.698,multiplicationStroop,2021.2.3,Win32,60.17209218,,,,,left,0,0.4909,0,45,45,25,1,3,4,3 | 4,1,1.9756,1.4111,incongruent,right,,,,,,stimulusFile/magnitude.xlsx,,,,,,,,,,,,,,,,,,,,,,,,,,,,,,,
,,,,,,,,,,,,,,,801,2022-01-17_12h27.18.698,multiplicationStroop,2021.2.3,Win32,60.17209218,,,,,left,1,0.5673,0,46,46,5,1,4,3,4 | 3,1,1.9756,1.4111,congruent,left,,,,,,stimulusFile/magnitude.xlsx,,,,,,,,,,,,,,,,,,,,,,,,,,,,,,,
,,,,,,,,,,,,,,,801,2022-01-17_12h27.18.698,multiplicationStroop,2021.2.3,Win32,60.17209218,,,,,right,1,0.5565,0,47,47,40,1,1,6,1 | 6,5,1.9756,1.4111,incongruent,right,,,,,,stimulusFile/magnitude.xlsx,,,,,,,,,,,,,,,,,,,,,,,,,,,,,,,
,,,,,,,,,,,,,,,801,2022-01-17_12h27.18.698,multiplicationStroop,2021.2.3,Win32,60.17209218,,,,,left,1,0.4608,0,48,48,6,1,7,6,7 | 6,1,1.9756,1.4111,congruent,left,,,,,,stimulusFile/magnitude.xlsx,,,,,,,,,,,,,,,,,,,,,,,,,,,,,,,
,,,,,,,,,,,,,,,801,2022-01-17_12h27.18.698,multiplicationStroop,2021.2.3,Win32,60.17209218,,,,,left,1,0.4781,0,49,49,7,1,9,8,9 | 8,1,1.9756,1.4111,congruent,left,,,,,,stimulusFile/magnitude.xlsx,,,,,,,,,,,,,,,,,,,,,,,,,,,,,,,
,,,,,,,,,,,,,,,801,2022-01-17_12h27.18.698,multiplicationStroop,2021.2.3,Win32,60.17209218,,,,,right,1,0.4573,0,50,50,2,1,6,7,6 | 7,1,1.4111,1.9756,congruent,right,,,,,,stimulusFile/magnitude.xlsx,,,,,,,,,,,,,,,,,,,,,,,,,,,,,,,
,,,,,,,,,,,,,,,801,2022-01-17_12h27.18.698,multiplicationStroop,2021.2.3,Win32,60.17209218,,,,,right,1,0.5268,0,51,51,16,1,1,6,1 | 6,5,1.4111,1.9756,congruent,right,,,,,,stimulusFile/magnitude.xlsx,,,,,,,,,,,,,,,,,,,,,,,,,,,,,,,
,,,,,,,,,,,,,,,801,2022-01-17_12h27.18.698,multiplicationStroop,2021.2.3,Win32,60.17209218,,,,,left,0,0.6882,0,52,52,26,1,6,7,6 | 7,1,1.9756,1.4111,incongruent,right,,,,,,stimulusFile/magnitude.xlsx,,,,,,,,,,,,,,,,,,,,,,,,,,,,,,,
,,,,,,,,,,,,,,,801,2022-01-17_12h27.18.698,multiplicationStroop,2021.2.3,Win32,60.17209218,,,,,left,1,0.6848,0,53,53,53,1,4,3,4 | 3,1,1.6933,1.6933,neutral,left,,,,,,stimulusFile/magnitude.xlsx,,,,,,,,,,,,,,,,,,,,,,,,,,,,,,,
,,,,,,,,,,,,,,,801,2022-01-17_12h27.18.698,multiplicationStroop,2021.2.3,Win32,60.17209218,,,,,right,1,0.5174,0,54,54,19,1,4,9,4 | 9,5,1.4111,1.9756,congruent,right,,,,,,stimulusFile/magnitude.xlsx,,,,,,,,,,,,,,,,,,,,,,,,,,,,,,,
,,,,,,,,,,,,,,,801,2022-01-17_12h27.18.698,multiplicationStroop,2021.2.3,Win32,60.17209218,,,,,left,1,0.5928,0,55,55,12,1,3,1,3 | 1,2,1.9756,1.4111,congruent,left,,,,,,stimulusFile/magnitude.xlsx,,,,,,,,,,,,,,,,,,,,,,,,,,,,,,,
,,,,,,,,,,,,,,,801,2022-01-17_12h27.18.698,multiplicationStroop,2021.2.3,Win32,60.17209218,,,,,right,1,0.535,0,56,56,48,1,1,2,1 | 2,1,1.6933,1.6933,neutral,right,,,,,,stimulusFile/magnitude.xlsx,,,,,,,,,,,,,,,,,,,,,,,,,,,,,,,
,,,,,,,,,,,,,,,801,2022-01-17_12h27.18.698,multiplicationStroop,2021.2.3,Win32,60.17209218,,,,,right,1,0.676,0,57,57,41,1,2,7,2 | 7,5,1.9756,1.4111,incongruent,right,,,,,,stimulusFile/magnitude.xlsx,,,,,,,,,,,,,,,,,,,,,,,,,,,,,,,
,,,,,,,,,,,,,,,801,2022-01-17_12h27.18.698,multiplicationStroop,2021.2.3,Win32,60.17209218,,,,,left,1,0.4933,0,58,58,63,1,9,7,9 | 7,2,1.6933,1.6933,neutral,left,,,,,,stimulusFile/magnitude.xlsx,,,,,,,,,,,,,,,,,,,,,,,,,,,,,,,
,,,,,,,,,,,,,,,801,2022-01-17_12h27.18.698,multiplicationStroop,2021.2.3,Win32,60.17209218,,,,,left,1,0.457,0,59,59,14,1,8,6,8 | 6,2,1.9756,1.4111,congruent,left,,,,,,stimulusFile/magnitude.xlsx,,,,,,,,,,,,,,,,,,,,,,,,,,,,,,,
,,,,,,,,,,,,,,,801,2022-01-17_12h27.18.698,multiplicationStroop,2021.2.3,Win32,60.17209218,,,,,right,1,0.4783,0,60,60,66,1,3,8,3 | 8,5,1.6933,1.6933,neutral,right,,,,,,stimulusFile/magnitude.xlsx,,,,,,,,,,,,,,,,,,,,,,,,,,,,,,,
,,,,,,,,,,,,,,,801,2022-01-17_12h27.18.698,multiplicationStroop,2021.2.3,Win32,60.17209218,,,,,left,1,0.4946,0,61,61,22,1,8,3,8 | 3,5,1.9756,1.4111,congruent,left,,,,,,stimulusFile/magnitude.xlsx,,,,,,,,,,,,,,,,,,,,,,,,,,,,,,,
,,,,,,,,,,,,,,,801,2022-01-17_12h27.18.698,multiplicationStroop,2021.2.3,Win32,60.17209218,,,,,left,1,0.4675,0,62,62,70,1,8,3,8 | 3,5,1.6933,1.6933,neutral,left,,,,,,stimulusFile/magnitude.xlsx,,,,,,,,,,,,,,,,,,,,,,,,,,,,,,,
,,,,,,,,,,,,,,,801,2022-01-17_12h27.18.698,multiplicationStroop,2021.2.3,Win32,60.17209218,,,,,right,1,0.5345,0,63,63,34,1,6,8,6 | 8,2,1.9756,1.4111,incongruent,right,,,,,,stimulusFile/magnitude.xlsx,,,,,,,,,,,,,,,,,,,,,,,,,,,,,,,
,,,,,,,,,,,,,,,801,2022-01-17_12h27.18.698,multiplicationStroop,2021.2.3,Win32,60.17209218,,,,,right,1,0.5604,0,64,64,33,1,2,4,2 | 4,2,1.9756,1.4111,incongruent,right,,,,,,stimulusFile/magnitude.xlsx,,,,,,,,,,,,,,,,,,,,,,,,,,,,,,,
,,,,,,,,,,,,,,,801,2022-01-17_12h27.18.698,multiplicationStroop,2021.2.3,Win32,60.17209218,,,,,left,1,0.4371,0,65,65,60,1,3,1,3 | 1,2,1.6933,1.6933,neutral,left,,,,,,stimulusFile/magnitude.xlsx,,,,,,,,,,,,,,,,,,,,,,,,,,,,,,,
,,,,,,,,,,,,,,,801,2022-01-17_12h27.18.698,multiplicationStroop,2021.2.3,Win32,60.17209218,,,,,right,1,0.6089,0,66,66,42,1,3,8,3 | 8,5,1.9756,1.4111,incongruent,right,,,,,,stimulusFile/magnitude.xlsx,,,,,,,,,,,,,,,,,,,,,,,,,,,,,,,
,,,,,,,,,,,,,,,801,2022-01-17_12h27.18.698,multiplicationStroop,2021.2.3,Win32,60.17209218,,,,,right,1,0.5043,0,67,67,24,1,1,2,1 | 2,1,1.9756,1.4111,incongruent,right,,,,,,stimulusFile/magnitude.xlsx,,,,,,,,,,,,,,,,,,,,,,,,,,,,,,,
,,,,,,,,,,,,,,,801,2022-01-17_12h27.18.698,multiplicationStroop,2021.2.3,Win32,60.17209218,,,,,left,1,0.5011,0,68,68,61,1,4,2,4 | 2,2,1.6933,1.6933,neutral,left,,,,,,stimulusFile/magnitude.xlsx,,,,,,,,,,,,,,,,,,,,,,,,,,,,,,,
,,,,,,,,,,,,,,,801,2022-01-17_12h27.18.698,multiplicationStroop,2021.2.3,Win32,60.17209218,,,,,right,1,0.4881,0,69,69,49,1,3,4,3 | 4,1,1.6933,1.6933,neutral,right,,,,,,stimulusFile/magnitude.xlsx,,,,,,,,,,,,,,,,,,,,,,,,,,,,,,,
,,,,,,,,,,,,,,,801,2022-01-17_12h27.18.698,multiplicationStroop,2021.2.3,Win32,60.17209218,,,,,left,1,0.5951,0,70,70,28,1,2,1,2 | 1,1,1.4111,1.9756,incongruent,left,,,,,,stimulusFile/magnitude.xlsx,,,,,,,,,,,,,,,,,,,,,,,,,,,,,,,
,,,,,,,,,,,,,,,801,2022-01-17_12h27.18.698,multiplicationStroop,2021.2.3,Win32,60.17209218,,,,,right,1,0.568,0,71,71,35,1,7,9,7 | 9,2,1.9756,1.4111,incongruent,right,,,,,,stimulusFile/magnitude.xlsx,,,,,,,,,,,,,,,,,,,,,,,,,,,,,,,
,,,,,,,,,,,,,,,801,2022-01-17_12h27.18.698,multiplicationStroop,2021.2.3,Win32,60.17209218,,,,,,,,,,,,,,,,,,,,,0,1,1,0,1,stimulusFile/magnitude.xlsx,NUMERICALLY larger (larger coefficient).,images/numericallyLarger.png,,,,,,,,,,,,,,,,,,,,,,,,,,,,,
,,,,,,,,,,,,,,,801,2022-01-17_12h27.18.698,multiplicationStroop,2021.2.3,Win32,60.17209218,,,,,,,,,,,,,,,,,,,,,,,,,,,,,space,13.054,space,5.4526,32,3.6758,0,0,0,0,8,1,3,×,8,3 × 8,neutral,smallerFirst,1.5,1.5,24,,,,,,,,
,,,,,,,,,,,,,,,801,2022-01-17_12h27.18.698,multiplicationStroop,2021.2.3,Win32,60.17209218,,,,,,,,,,,,,,,,,,,,,,,,,,,,,,,,,42,2.0498,1,0,1,1,20,1,7,×,6,7 × 6,neutral,largerFirst,1.5,1.5,42,,,,,,,,
,,,,,,,,,,,,,,,801,2022-01-17_12h27.18.698,multiplicationStroop,2021.2.3,Win32,60.17209218,,,,,,,,,,,,,,,,,,,,,,,,,,,,,,,,,27,1.9501,1,0,2,2,0,1,3,×,9,3 × 9,neutral,smallerFirst,1.5,1.5,27,,,,,,,,
,,,,,,,,,,,,,,,801,2022-01-17_12h27.18.698,multiplicationStroop,2021.2.3,Win32,60.17209218,,,,,,,,,,,,,,,,,,,,,,,,,,,,,,,,,64,2.5003,1,0,3,3,34,1,8,×,8,8 × 8,neutral,tie,1.5,1.5,64,,,,,,,,
,,,,,,,,,,,,,,,801,2022-01-17_12h27.18.698,multiplicationStroop,2021.2.3,Win32,60.17209218,,,,,,,,,,,,,,,,,,,,,,,,,,,,,,,,,63,2.0502,1,0,4,4,26,1,9,×,7,9 × 7,neutral,largerFirst,1.5,1.5,63,,,,,,,,
,,,,,,,,,,,,,,,801,2022-01-17_12h27.18.698,multiplicationStroop,2021.2.3,Win32,60.17209218,,,,,,,,,,,,,,,,,,,,,,,,,,,,,,,,,48,2.6503,1,0,5,5,1,1,6,×,8,6 × 8,neutral,smallerFirst,1.5,1.5,48,,,,,,,,
,,,,,,,,,,,,,,,801,2022-01-17_12h27.18.698,multiplicationStroop,2021.2.3,Win32,60.17209218,,,,,,,,,,,,,,,,,,,,,,,,,,,,,,,,,49,2.2858,1,0,6,6,33,1,7,×,7,7 × 7,neutral,tie,1.5,1.5,49,,,,,,,,
,,,,,,,,,,,,,,,801,2022-01-17_12h27.18.698,multiplicationStroop,2021.2.3,Win32,60.17209218,,,,,,,,,,,,,,,,,,,,,,,,,,,,,,,,,21,1.5837,1,0,7,7,22,1,7,×,3,7 × 3,neutral,largerFirst,1.5,1.5,21,,,,,,,,
,,,,,,,,,,,,,,,801,2022-01-17_12h27.18.698,multiplicationStroop,2021.2.3,Win32,60.17209218,,,,,,,,,,,,,,,,,,,,,,,,,,,,,,,,,36,2.1672,1,0,8,8,13,1,4,×,9,4 × 9,neutral,smallerFirst,1.5,1.5,36,,,,,,,,
,,,,,,,,,,,,,,,801,2022-01-17_12h27.18.698,multiplicationStroop,2021.2.3,Win32,60.17209218,,,,,,,,,,,,,,,,,,,,,,,,,,,,,,,,,28,1.9001,1,0,9,9,3,1,4,×,7,4 × 7,neutral,smallerFirst,1.5,1.5,28,,,,,,,,
,,,,,,,,,,,,,,,801,2022-01-17_12h27.18.698,multiplicationStroop,2021.2.3,Win32,60.17209218,,,,,,,,,,,,,,,,,,,,,,,,,,,,,,,,,54,1.8159,1,0,10,10,21,1,9,×,6,9 × 6,neutral,largerFirst,1.5,1.5,54,,,,,,,,
,,,,,,,,,,,,,,,801,2022-01-17_12h27.18.698,multiplicationStroop,2021.2.3,Win32,60.17209218,,,,,,,,,,,,,,,,,,,,,,,,,,,,,,,,,20,2.1005,1,0,11,11,6,1,4,×,5,4 × 5,neutral,smallerFirst,1.5,1.5,20,,,,,,,,
,,,,,,,,,,,,,,,801,2022-01-17_12h27.18.698,multiplicationStroop,2021.2.3,Win32,60.17209218,,,,,,,,,,,,,,,,,,,,,,,,,,,,,,,,,30,2.7333,1,0,12,12,5,1,5,×,6,5 × 6,neutral,smallerFirst,1.5,1.5,30,,,,,,,,
,,,,,,,,,,,,,,,801,2022-01-17_12h27.18.698,multiplicationStroop,2021.2.3,Win32,60.17209218,,,,,,,,,,,,,,,,,,,,,,,,,,,,,,,,,16,1.8508,1,0,13,13,27,1,8,×,2,8 × 2,neutral,largerFirst,1.5,1.5,16,,,,,,,,
,,,,,,,,,,,,,,,801,2022-01-17_12h27.18.698,multiplicationStroop,2021.2.3,Win32,60.17209218,,,,,,,,,,,,,,,,,,,,,,,,,,,,,,,,,14,1.6164,1,0,14,14,2,1,2,×,7,2 × 7,neutral,smallerFirst,1.5,1.5,14,,,,,,,,
,,,,,,,,,,,,,,,801,2022-01-17_12h27.18.698,multiplicationStroop,2021.2.3,Win32,60.17209218,,,,,,,,,,,,,,,,,,,,,,,,,,,,,,,,,72,1.9165,1,0,15,15,25,1,9,×,8,9 × 8,neutral,largerFirst,1.5,1.5,72,,,,,,,,
,,,,,,,,,,,,,,,801,2022-01-17_12h27.18.698,multiplicationStroop,2021.2.3,Win32,60.17209218,,,,,,,,,,,,,,,,,,,,,,,,,,,,,,,,,18,2.2504,1,0,16,16,4,1,2,×,9,2 × 9,neutral,smallerFirst,1.5,1.5,18,,,,,,,,
,,,,,,,,,,,,,,,801,2022-01-17_12h27.18.698,multiplicationStroop,2021.2.3,Win32,60.17209218,,,,,,,,,,,,,,,,,,,,,,,,,,,,,,,,,15,1.4835,1,0,17,17,19,1,5,×,3,5 × 3,neutral,largerFirst,1.5,1.5,15,,,,,,,,
,,,,,,,,,,,,,,,801,2022-01-17_12h27.18.698,multiplicationStroop,2021.2.3,Win32,60.17209218,,,,,,,,,,,,,,,,,,,,,,,,,,,,,,,,,16,1.5165,1,0,18,18,30,1,4,×,4,4 × 4,neutral,tie,1.5,1.5,16,,,,,,,,
,,,,,,,,,,,,,,,801,2022-01-17_12h27.18.698,multiplicationStroop,2021.2.3,Win32,60.17209218,,,,,,,,,,,,,,,,,,,,,,,,,,,,,,,,,12,1.3331,1,0,19,19,7,1,3,×,4,3 × 4,neutral,smallerFirst,1.5,1.5,12,,,,,,,,
,,,,,,,,,,,,,,,801,2022-01-17_12h27.18.698,multiplicationStroop,2021.2.3,Win32,60.17209218,,,,,,,,,,,,,,,,,,,,,,,,,,,,,,,,,36,1.8164,1,0,20,20,32,1,6,×,6,6 × 6,neutral,tie,1.5,1.5,36,,,,,,,,
,,,,,,,,,,,,,,,801,2022-01-17_12h27.18.698,multiplicationStroop,2021.2.3,Win32,60.17209218,,,,,,,,,,,,,,,,,,,,,,,,,,,,,,,,,56,4.3347,1,0,21,21,23,1,8,×,7,8 × 7,neutral,largerFirst,1.5,1.5,56,,,,,,,,
,,,,,,,,,,,,,,,801,2022-01-17_12h27.18.698,multiplicationStroop,2021.2.3,Win32,60.17209218,,,,,,,,,,,,,,,,,,,,,,,,,,,,,,,,,40,2.6027,1,0,22,22,10,1,5,×,8,5 × 8,neutral,smallerFirst,1.5,1.5,40,,,,,,,,
,,,,,,,,,,,,,,,801,2022-01-17_12h27.18.698,multiplicationStroop,2021.2.3,Win32,60.17209218,,,,,,,,,,,,,,,,,,,,,,,,,,,,,,,,,4,1.417,1,0,23,23,28,1,2,×,2,2 × 2,neutral,tie,1.5,1.5,4,,,,,,,,
,,,,,,,,,,,,,,,801,2022-01-17_12h27.18.698,multiplicationStroop,2021.2.3,Win32,60.17209218,,,,,,,,,,,,,,,,,,,,,,,,,,,,,,,,,32,1.9831,1,0,24,24,9,1,4,×,8,4 × 8,neutral,smallerFirst,1.5,1.5,32,,,,,,,,
,,,,,,,,,,,,,,,801,2022-01-17_12h27.18.698,multiplicationStroop,2021.2.3,Win32,60.17209218,,,,,,,,,,,,,,,,,,,,,,,,,,,,,,,,,24,1.683,1,0,25,25,16,1,6,×,4,6 × 4,neutral,largerFirst,1.5,1.5,24,,,,,,,,
,,,,,,,,,,,,,,,801,2022-01-17_12h27.18.698,multiplicationStroop,2021.2.3,Win32,60.17209218,,,,,,,,,,,,,,,,,,,,,,,,,,,,,,,,,18,1.8169,1,0,26,26,14,1,6,×,3,6 × 3,neutral,largerFirst,1.5,1.5,18,,,,,,,,
,,,,,,,,,,,,,,,801,2022-01-17_12h27.18.698,multiplicationStroop,2021.2.3,Win32,60.17209218,,,,,,,,,,,,,,,,,,,,,,,,,,,,,,,,,35,2.1167,1,0,27,27,15,1,7,×,5,7 × 5,neutral,largerFirst,1.5,1.5,35,,,,,,,,
,,,,,,,,,,,,,,,801,2022-01-17_12h27.18.698,multiplicationStroop,2021.2.3,Win32,60.17209218,,,,,,,,,,,,,,,,,,,,,,,,,,,,,,,,,8,1.6673,1,0,28,28,17,1,4,×,2,4 × 2,neutral,largerFirst,1.5,1.5,8,,,,,,,,
,,,,,,,,,,,,,,,801,2022-01-17_12h27.18.698,multiplicationStroop,2021.2.3,Win32,60.17209218,,,,,,,,,,,,,,,,,,,,,,,,,,,,,,,,,10,1.6496,1,0,29,29,18,1,5,×,2,5 × 2,neutral,largerFirst,1.5,1.5,10,,,,,,,,
,,,,,,,,,,,,,,,801,2022-01-17_12h27.18.698,multiplicationStroop,2021.2.3,Win32,60.17209218,,,,,,,,,,,,,,,,,,,,,,,,,,,,,,,,,9,1.7003,1,0,30,30,29,1,3,×,3,3 × 3,neutral,tie,1.5,1.5,9,,,,,,,,
,,,,,,,,,,,,,,,801,2022-01-17_12h27.18.698,multiplicationStroop,2021.2.3,Win32,60.17209218,,,,,,,,,,,,,,,,,,,,,,,,,,,,,,,,,6,2.5006,1,0,31,31,12,1,2,×,3,2 × 3,neutral,smallerFirst,1.5,1.5,6,,,,,,,,
,,,,,,,,,,,,,,,801,2022-01-17_12h27.18.698,multiplicationStroop,2021.2.3,Win32,60.17209218,,,,,,,,,,,,,,,,,,,,,,,,,,,,,,,,,25,1.6854,1,0,32,32,31,1,5,×,5,5 × 5,neutral,tie,1.5,1.5,25,,,,,,,,
,,,,,,,,,,,,,,,801,2022-01-17_12h27.18.698,multiplicationStroop,2021.2.3,Win32,60.17209218,,,,,,,,,,,,,,,,,,,,,,,,,,,,,,,,,12,1.3144,1,0,33,33,11,1,2,×,6,2 × 6,neutral,smallerFirst,1.5,1.5,12,,,,,,,,
,,,,,,,,,,,,,,,801,2022-01-17_12h27.18.698,multiplicationStroop,2021.2.3,Win32,60.17209218,,,,,,,,,,,,,,,,,,,,,,,,,,,,,,,,,81,2.1338,1,0,34,34,35,1,9,×,9,9 × 9,neutral,tie,1.5,1.5,81,,,,,,,,
,,,,,,,,,,,,,,,801,2022-01-17_12h27.18.698,multiplicationStroop,2021.2.3,Win32,60.17209218,,,,,,,,,,,,,,,,,,,,,,,,,,,,,,,,,45,1.817,1,0,35,35,24,1,9,×,5,9 × 5,neutral,largerFirst,1.5,1.5,45,,,,,,,,
,,,,,,,,,,,,,,,801,2022-01-17_12h27.18.698,multiplicationStroop,2021.2.3,Win32,60.17209218,,,,,,,,,,,,,,,,,,,,,,,,,,,,,,,,,,,,,,,,,,,,,,,,,,0,0,0,0,1,stimulusFile/mult_blk1.xlsx,,
,,,,,,,,,,,,,,,801,2022-01-17_12h27.18.698,multiplicationStroop,2021.2.3,Win32,60.17209218,,,,,,,,,,,,,,,,,,,,,,,,,,,,,,,space,1.7991,48,2.4143,1,0,0,0,18,1,8,×,6,8 × 6,congruent,largerFirst,2,1,48,,,,,,,,
,,,,,,,,,,,,,,,801,2022-01-17_12h27.18.698,multiplicationStroop,2021.2.3,Win32,60.17209218,,,,,,,,,,,,,,,,,,,,,,,,,,,,,,,,,21,1.516,1,0,1,1,16,1,7,×,3,7 × 3,congruent,largerFirst,2,1,21,,,,,,,,
,,,,,,,,,,,,,,,801,2022-01-17_12h27.18.698,multiplicationStroop,2021.2.3,Win32,60.17209218,,,,,,,,,,,,,,,,,,,,,,,,,,,,,,,,,12,1.4833,1,0,2,2,19,1,6,×,2,6 × 2,congruent,largerFirst,2,1,12,,,,,,,,
,,,,,,,,,,,,,,,801,2022-01-17_12h27.18.698,multiplicationStroop,2021.2.3,Win32,60.17209218,,,,,,,,,,,,,,,,,,,,,,,,,,,,,,,,,9,1.6169,1,0,3,3,29,1,3,×,3,3 × 3,neutral,tie,2,1,9,,,,,,,,
,,,,,,,,,,,,,,,801,2022-01-17_12h27.18.698,multiplicationStroop,2021.2.3,Win32,60.17209218,,,,,,,,,,,,,,,,,,,,,,,,,,,,,,,,,24,1.7995,1,0,4,4,25,1,6,×,4,6 × 4,congruent,largerFirst,2,1,24,,,,,,,,
,,,,,,,,,,,,,,,801,2022-01-17_12h27.18.698,multiplicationStroop,2021.2.3,Win32,60.17209218,,,,,,,,,,,,,,,,,,,,,,,,,,,,,,,,,56,1.9336,1,0,5,5,8,1,7,×,8,7 × 8,congruent,smallerFirst,1,2,56,,,,,,,,
,,,,,,,,,,,,,,,801,2022-01-17_12h27.18.698,multiplicationStroop,2021.2.3,Win32,60.17209218,,,,,,,,,,,,,,,,,,,,,,,,,,,,,,,,,81,1.6666,1,0,6,6,35,1,9,×,9,9 × 9,neutral,tie,2,1,81,,,,,,,,
,,,,,,,,,,,,,,,801,2022-01-17_12h27.18.698,multiplicationStroop,2021.2.3,Win32,60.17209218,,,,,,,,,,,,,,,,,,,,,,,,,,,,,,,,,24,1.7828,1,0,7,7,10,1,3,×,8,3 × 8,congruent,smallerFirst,1,2,24,,,,,,,,
,,,,,,,,,,,,,,,801,2022-01-17_12h27.18.698,multiplicationStroop,2021.2.3,Win32,60.17209218,,,,,,,,,,,,,,,,,,,,,,,,,,,,,,,,,30,1.9338,1,0,8,8,15,1,6,×,5,6 × 5,congruent,largerFirst,2,1,30,,,,,,,,
,,,,,,,,,,,,,,,801,2022-01-17_12h27.18.698,multiplicationStroop,2021.2.3,Win32,60.17209218,,,,,,,,,,,,,,,,,,,,,,,,,,,,,,,,,72,1.7645,1,0,9,9,17,1,9,×,8,9 × 8,congruent,largerFirst,2,1,72,,,,,,,,
,,,,,,,,,,,,,,,801,2022-01-17_12h27.18.698,multiplicationStroop,2021.2.3,Win32,60.17209218,,,,,,,,,,,,,,,,,,,,,,,,,,,,,,,,,63,1.8332,1,0,10,10,21,1,9,×,7,9 × 7,congruent,largerFirst,2,1,63,,,,,,,,
,,,,,,,,,,,,,,,801,2022-01-17_12h27.18.698,multiplicationStroop,2021.2.3,Win32,60.17209218,,,,,,,,,,,,,,,,,,,,,,,,,,,,,,,,,18,1.6657,1,0,11,11,22,1,9,×,2,9 × 2,congruent,largerFirst,2,1,18,,,,,,,,
,,,,,,,,,,,,,,,801,2022-01-17_12h27.18.698,multiplicationStroop,2021.2.3,Win32,60.17209218,,,,,,,,,,,,,,,,,,,,,,,,,,,,,,,,,14,1.7992,1,0,12,12,14,1,7,×,2,7 × 2,congruent,largerFirst,2,1,14,,,,,,,,
,,,,,,,,,,,,,,,801,2022-01-17_12h27.18.698,multiplicationStroop,2021.2.3,Win32,60.17209218,,,,,,,,,,,,,,,,,,,,,,,,,,,,,,,,,32,2.9162,1,0,13,13,20,1,8,×,4,8 × 4,congruent,largerFirst,2,1,32,,,,,,,,
,,,,,,,,,,,,,,,801,2022-01-17_12h27.18.698,multiplicationStroop,2021.2.3,Win32,60.17209218,,,,,,,,,,,,,,,,,,,,,,,,,,,,,,,,,54,2.0672,1,0,14,14,12,1,6,×,9,6 × 9,congruent,smallerFirst,1,2,54,,,,,,,,
,,,,,,,,,,,,,,,801,2022-01-17_12h27.18.698,multiplicationStroop,2021.2.3,Win32,60.17209218,,,,,,,,,,,,,,,,,,,,,,,,,,,,,,,,,16,1.5658,1,0,15,15,30,1,4,×,4,4 × 4,neutral,tie,2,1,16,,,,,,,,
,,,,,,,,,,,,,,,801,2022-01-17_12h27.18.698,multiplicationStroop,2021.2.3,Win32,60.17209218,,,,,,,,,,,,,,,,,,,,,,,,,,,,,,,,,10,1.5832,1,0,16,16,24,1,5,×,2,5 × 2,congruent,largerFirst,2,1,10,,,,,,,,
,,,,,,,,,,,,,,,801,2022-01-17_12h27.18.698,multiplicationStroop,2021.2.3,Win32,60.17209218,,,,,,,,,,,,,,,,,,,,,,,,,,,,,,,,,36,4.1325,1,0,17,17,32,1,6,×,6,6 × 6,neutral,tie,2,1,36,,,,,,,,
,,,,,,,,,,,,,,,801,2022-01-17_12h27.18.698,multiplicationStroop,2021.2.3,Win32,60.17209218,,,,,,,,,,,,,,,,,,,,,,,,,,,,,,,,,20,2.4688,1,0,18,18,7,1,4,×,5,4 × 5,congruent,smallerFirst,1,2,20,,,,,,,,
,,,,,,,,,,,,,,,801,2022-01-17_12h27.18.698,multiplicationStroop,2021.2.3,Win32,60.17209218,,,,,,,,,,,,,,,,,,,,,,,,,,,,,,,,,28,2.6503,1,0,19,19,27,1,7,×,4,7 × 4,congruent,largerFirst,2,1,28,,,,,,,,
,,,,,,,,,,,,,,,801,2022-01-17_12h27.18.698,multiplicationStroop,2021.2.3,Win32,60.17209218,,,,,,,,,,,,,,,,,,,,,,,,,,,,,,,,,12,2.1335,1,0,20,20,2,1,3,×,4,3 × 4,congruent,smallerFirst,1,2,12,,,,,,,,
,,,,,,,,,,,,,,,801,2022-01-17_12h27.18.698,multiplicationStroop,2021.2.3,Win32,60.17209218,,,,,,,,,,,,,,,,,,,,,,,,,,,,,,,,,15,1.7992,1,0,21,21,4,1,3,×,5,3 × 5,congruent,smallerFirst,1,2,15,,,,,,,,
,,,,,,,,,,,,,,,801,2022-01-17_12h27.18.698,multiplicationStroop,2021.2.3,Win32,60.17209218,,,,,,,,,,,,,,,,,,,,,,,,,,,,,,,,,18,1.7991,1,0,22,22,11,1,3,×,6,3 × 6,congruent,smallerFirst,1,2,18,,,,,,,,
,,,,,,,,,,,,,,,801,2022-01-17_12h27.18.698,multiplicationStroop,2021.2.3,Win32,60.17209218,,,,,,,,,,,,,,,,,,,,,,,,,,,,,,,,,42,2.0001,1,0,23,23,3,1,6,×,7,6 × 7,congruent,smallerFirst,1,2,42,,,,,,,,
,,,,,,,,,,,,,,,801,2022-01-17_12h27.18.698,multiplicationStroop,2021.2.3,Win32,60.17209218,,,,,,,,,,,,,,,,,,,,,,,,,,,,,,,,,25,1.6153,1,0,24,24,31,1,5,×,5,5 × 5,neutral,tie,2,1,25,,,,,,,,
,,,,,,,,,,,,,,,801,2022-01-17_12h27.18.698,multiplicationStroop,2021.2.3,Win32,60.17209218,,,,,,,,,,,,,,,,,,,,,,,,,,,,,,,,,4,2.2002,1,0,25,25,28,1,2,×,2,2 × 2,neutral,tie,2,1,4,,,,,,,,
,,,,,,,,,,,,,,,801,2022-01-17_12h27.18.698,multiplicationStroop,2021.2.3,Win32,60.17209218,,,,,,,,,,,,,,,,,,,,,,,,,,,,,,,,,49,2.6334,1,0,26,26,33,1,7,×,7,7 × 7,neutral,tie,2,1,49,,,,,,,,
,,,,,,,,,,,,,,,801,2022-01-17_12h27.18.698,multiplicationStroop,2021.2.3,Win32,60.17209218,,,,,,,,,,,,,,,,,,,,,,,,,,,,,,,,,8,2.2001,1,0,27,27,9,1,2,×,4,2 × 4,congruent,smallerFirst,1,2,8,,,,,,,,
,,,,,,,,,,,,,,,801,2022-01-17_12h27.18.698,multiplicationStroop,2021.2.3,Win32,60.17209218,,,,,,,,,,,,,,,,,,,,,,,,,,,,,,,,,45,3.0531,1,0,28,28,23,1,9,×,5,9 × 5,congruent,largerFirst,2,1,45,,,,,,,,
,,,,,,,,,,,,,,,801,2022-01-17_12h27.18.698,multiplicationStroop,2021.2.3,Win32,60.17209218,,,,,,,,,,,,,,,,,,,,,,,,,,,,,,,,,16,1.5989,1,0,29,29,5,1,2,×,8,2 × 8,congruent,smallerFirst,1,2,16,,,,,,,,
,,,,,,,,,,,,,,,801,2022-01-17_12h27.18.698,multiplicationStroop,2021.2.3,Win32,60.17209218,,,,,,,,,,,,,,,,,,,,,,,,,,,,,,,,,64,1.8498,1,0,30,30,34,1,8,×,8,8 × 8,neutral,tie,2,1,64,,,,,,,,
,,,,,,,,,,,,,,,801,2022-01-17_12h27.18.698,multiplicationStroop,2021.2.3,Win32,60.17209218,,,,,,,,,,,,,,,,,,,,,,,,,,,,,,,,,36,1.9005,1,0,31,31,0,1,4,×,9,4 × 9,congruent,smallerFirst,1,2,36,,,,,,,,
,,,,,,,,,,,,,,,801,2022-01-17_12h27.18.698,multiplicationStroop,2021.2.3,Win32,60.17209218,,,,,,,,,,,,,,,,,,,,,,,,,,,,,,,,,35,2.0332,1,0,32,32,1,1,5,×,7,5 × 7,congruent,smallerFirst,1,2,35,,,,,,,,
,,,,,,,,,,,,,,,801,2022-01-17_12h27.18.698,multiplicationStroop,2021.2.3,Win32,60.17209218,,,,,,,,,,,,,,,,,,,,,,,,,,,,,,,,,27,2.0999,1,0,33,33,26,1,9,×,3,9 × 3,congruent,largerFirst,2,1,27,,,,,,,,
,,,,,,,,,,,,,,,801,2022-01-17_12h27.18.698,multiplicationStroop,2021.2.3,Win32,60.17209218,,,,,,,,,,,,,,,,,,,,,,,,,,,,,,,,,40,1.8991,1,0,34,34,6,1,5,×,8,5 × 8,congruent,smallerFirst,1,2,40,,,,,,,,
,,,,,,,,,,,,,,,801,2022-01-17_12h27.18.698,multiplicationStroop,2021.2.3,Win32,60.17209218,,,,,,,,,,,,,,,,,,,,,,,,,,,,,,,,,6,1.6665,1,0,35,35,13,1,2,×,3,2 × 3,congruent,smallerFirst,1,2,6,,,,,,,,
,,,,,,,,,,,,,,,801,2022-01-17_12h27.18.698,multiplicationStroop,2021.2.3,Win32,60.17209218,,,,,,,,,,,,,,,,,,,,,,,,,,,,,,,,,,,,,,,,,,,,,,,,,,0,1,1,2,1,stimulusFile/mult_blk3_congruent.xlsx,,
,,,,,,,,,,,,,,,801,2022-01-17_12h27.18.698,multiplicationStroop,2021.2.3,Win32,60.17209218,,,,,,,,,,,,,,,,,,,,,,,,,,,,,,,space,1.3269,15,2.4116,1,0,0,0,5,1,3,×,5,3 × 5,neutral,smallerFirst,1.5,1.5,15,,,,,,,,
,,,,,,,,,,,,,,,801,2022-01-17_12h27.18.698,multiplicationStroop,2021.2.3,Win32,60.17209218,,,,,,,,,,,,,,,,,,,,,,,,,,,,,,,,,36,3.0157,1,0,1,1,32,1,6,×,6,6 × 6,neutral,tie,1.5,1.5,36,,,,,,,,
,,,,,,,,,,,,,,,801,2022-01-17_12h27.18.698,multiplicationStroop,2021.2.3,Win32,60.17209218,,,,,,,,,,,,,,,,,,,,,,,,,,,,,,,,,48,2.369,1,0,2,2,15,1,8,×,6,8 × 6,neutral,largerFirst,1.5,1.5,48,,,,,,,,
,,,,,,,,,,,,,,,801,2022-01-17_12h27.18.698,multiplicationStroop,2021.2.3,Win32,60.17209218,,,,,,,,,,,,,,,,,,,,,,,,,,,,,,,,,8,1.7987,1,0,3,3,3,1,2,×,4,2 × 4,neutral,smallerFirst,1.5,1.5,8,,,,,,,,
,,,,,,,,,,,,,,,801,2022-01-17_12h27.18.698,multiplicationStroop,2021.2.3,Win32,60.17209218,,,,,,,,,,,,,,,,,,,,,,,,,,,,,,,,,24,3.2671,1,0,4,4,2,1,4,×,6,4 × 6,neutral,smallerFirst,1.5,1.5,24,,,,,,,,
,,,,,,,,,,,,,,,801,2022-01-17_12h27.18.698,multiplicationStroop,2021.2.3,Win32,60.17209218,,,,,,,,,,,,,,,,,,,,,,,,,,,,,,,,,18,4.5527,1,0,5,5,0,1,3,×,6,3 × 6,neutral,smallerFirst,1.5,1.5,18,,,,,,,,
,,,,,,,,,,,,,,,801,2022-01-17_12h27.18.698,multiplicationStroop,2021.2.3,Win32,60.17209218,,,,,,,,,,,,,,,,,,,,,,,,,,,,,,,,,72,1.8997,1,0,6,6,11,1,8,×,9,8 × 9,neutral,smallerFirst,1.5,1.5,72,,,,,,,,
,,,,,,,,,,,,,,,801,2022-01-17_12h27.18.698,multiplicationStroop,2021.2.3,Win32,60.17209218,,,,,,,,,,,,,,,,,,,,,,,,,,,,,,,,,54,3.0803,1,0,7,7,7,1,6,×,9,6 × 9,neutral,smallerFirst,1.5,1.5,54,,,,,,,,
,,,,,,,,,,,,,,,801,2022-01-17_12h27.18.698,multiplicationStroop,2021.2.3,Win32,60.17209218,,,,,,,,,,,,,,,,,,,,,,,,,,,,,,,,,32,1.7329,1,0,8,8,23,1,8,×,4,8 × 4,neutral,largerFirst,1.5,1.5,32,,,,,,,,
,,,,,,,,,,,,,,,801,2022-01-17_12h27.18.698,multiplicationStroop,2021.2.3,Win32,60.17209218,,,,,,,,,,,,,,,,,,,,,,,,,,,,,,,,,30,1.9669,1,0,9,9,19,1,6,×,5,6 × 5,neutral,largerFirst,1.5,1.5,30,,,,,,,,
,,,,,,,,,,,,,,,801,2022-01-17_12h27.18.698,multiplicationStroop,2021.2.3,Win32,60.17209218,,,,,,,,,,,,,,,,,,,,,,,,,,,,,,,,,56,1.833,1,0,10,10,9,1,7,×,8,7 × 8,neutral,smallerFirst,1.5,1.5,56,,,,,,,,
,,,,,,,,,,,,,,,801,2022-01-17_12h27.18.698,multiplicationStroop,2021.2.3,Win32,60.17209218,,,,,,,,,,,,,,,,,,,,,,,,,,,,,,,,,35,2.5495,1,0,11,11,1,1,5,×,7,5 × 7,neutral,smallerFirst,1.5,1.5,35,,,,,,,,
,,,,,,,,,,,,,,,801,2022-01-17_12h27.18.698,multiplicationStroop,2021.2.3,Win32,60.17209218,,,,,,,,,,,,,,,,,,,,,,,,,,,,,,,,,16,1.7251,1,0,12,12,30,1,4,×,4,4 × 4,neutral,tie,1.5,1.5,16,,,,,,,,
,,,,,,,,,,,,,,,801,2022-01-17_12h27.18.698,multiplicationStroop,2021.2.3,Win32,60.17209218,,,,,,,,,,,,,,,,,,,,,,,,,,,,,,,,,21,1.3941,1,0,13,13,8,1,3,×,7,3 × 7,neutral,smallerFirst,1.5,1.5,21,,,,,,,,
,,,,,,,,,,,,,,,801,2022-01-17_12h27.18.698,multiplicationStroop,2021.2.3,Win32,60.17209218,,,,,,,,,,,,,,,,,,,,,,,,,,,,,,,,,16,2.0662,1,0,14,14,13,1,2,×,8,2 × 8,neutral,smallerFirst,1.5,1.5,16,,,,,,,,
,,,,,,,,,,,,,,,801,2022-01-17_12h27.18.698,multiplicationStroop,2021.2.3,Win32,60.17209218,,,,,,,,,,,,,,,,,,,,,,,,,,,,,,,,,24,1.4164,1,0,15,15,22,1,8,×,3,8 × 3,neutral,largerFirst,1.5,1.5,24,,,,,,,,
,,,,,,,,,,,,,,,801,2022-01-17_12h27.18.698,multiplicationStroop,2021.2.3,Win32,60.17209218,,,,,,,,,,,,,,,,,,,,,,,,,,,,,,,,,25,1.6324,1,0,16,16,31,1,5,×,5,5 × 5,neutral,tie,1.5,1.5,25,,,,,,,,
,,,,,,,,,,,,,,,801,2022-01-17_12h27.18.698,multiplicationStroop,2021.2.3,Win32,60.17209218,,,,,,,,,,,,,,,,,,,,,,,,,,,,,,,,,12,1.2497,1,0,17,17,21,1,4,×,3,4 × 3,neutral,largerFirst,1.5,1.5,12,,,,,,,,
,,,,,,,,,,,,,,,801,2022-01-17_12h27.18.698,multiplicationStroop,2021.2.3,Win32,60.17209218,,,,,,,,,,,,,,,,,,,,,,,,,,,,,,,,,27,1.8325,1,0,18,18,14,1,9,×,3,9 × 3,neutral,largerFirst,1.5,1.5,27,,,,,,,,
,,,,,,,,,,,,,,,801,2022-01-17_12h27.18.698,multiplicationStroop,2021.2.3,Win32,60.17209218,,,,,,,,,,,,,,,,,,,,,,,,,,,,,,,,,20,1.5833,1,0,19,19,20,1,5,×,4,5 × 4,neutral,largerFirst,1.5,1.5,20,,,,,,,,
,,,,,,,,,,,,,,,801,2022-01-17_12h27.18.698,multiplicationStroop,2021.2.3,Win32,60.17209218,,,,,,,,,,,,,,,,,,,,,,,,,,,,,,,,,6,1.6159,1,0,20,20,26,1,3,×,2,3 × 2,neutral,largerFirst,1.5,1.5,6,,,,,,,,
,,,,,,,,,,,,,,,801,2022-01-17_12h27.18.698,multiplicationStroop,2021.2.3,Win32,60.17209218,,,,,,,,,,,,,,,,,,,,,,,,,,,,,,,,,49,2.0666,1,0,21,21,33,1,7,×,7,7 × 7,neutral,tie,1.5,1.5,49,,,,,,,,
,,,,,,,,,,,,,,,801,2022-01-17_12h27.18.698,multiplicationStroop,2021.2.3,Win32,60.17209218,,,,,,,,,,,,,,,,,,,,,,,,,,,,,,,,,18,2.1001,1,0,22,22,18,1,9,×,2,9 × 2,neutral,largerFirst,1.5,1.5,18,,,,,,,,
,,,,,,,,,,,,,,,801,2022-01-17_12h27.18.698,multiplicationStroop,2021.2.3,Win32,60.17209218,,,,,,,,,,,,,,,,,,,,,,,,,,,,,,,,,10,1.5831,1,0,23,23,4,1,2,×,5,2 × 5,neutral,smallerFirst,1.5,1.5,10,,,,,,,,
,,,,,,,,,,,,,,,801,2022-01-17_12h27.18.698,multiplicationStroop,2021.2.3,Win32,60.17209218,,,,,,,,,,,,,,,,,,,,,,,,,,,,,,,,,42,3.3499,1,0,24,24,6,1,6,×,7,6 × 7,neutral,smallerFirst,1.5,1.5,42,,,,,,,,
,,,,,,,,,,,,,,,801,2022-01-17_12h27.18.698,multiplicationStroop,2021.2.3,Win32,60.17209218,,,,,,,,,,,,,,,,,,,,,,,,,,,,,,,,,28,2.8334,1,0,25,25,17,1,7,×,4,7 × 4,neutral,largerFirst,1.5,1.5,28,,,,,,,,
,,,,,,,,,,,,,,,801,2022-01-17_12h27.18.698,multiplicationStroop,2021.2.3,Win32,60.17209218,,,,,,,,,,,,,,,,,,,,,,,,,,,,,,,,,40,2.1858,1,0,26,26,24,1,8,×,5,8 × 5,neutral,largerFirst,1.5,1.5,40,,,,,,,,
,,,,,,,,,,,,,,,801,2022-01-17_12h27.18.698,multiplicationStroop,2021.2.3,Win32,60.17209218,,,,,,,,,,,,,,,,,,,,,,,,,,,,,,,,,4,1.5332,1,0,27,27,28,1,2,×,2,2 × 2,neutral,tie,1.5,1.5,4,,,,,,,,
,,,,,,,,,,,,,,,801,2022-01-17_12h27.18.698,multiplicationStroop,2021.2.3,Win32,60.17209218,,,,,,,,,,,,,,,,,,,,,,,,,,,,,,,,,81,2.3539,1,0,28,28,35,1,9,×,9,9 × 9,neutral,tie,1.5,1.5,81,,,,,,,,
,,,,,,,,,,,,,,,801,2022-01-17_12h27.18.698,multiplicationStroop,2021.2.3,Win32,60.17209218,,,,,,,,,,,,,,,,,,,,,,,,,,,,,,,,,9,1.8157,1,0,29,29,29,1,3,×,3,3 × 3,neutral,tie,1.5,1.5,9,,,,,,,,
,,,,,,,,,,,,,,,801,2022-01-17_12h27.18.698,multiplicationStroop,2021.2.3,Win32,60.17209218,,,,,,,,,,,,,,,,,,,,,,,,,,,,,,,,,12,1.5783,1,0,30,30,25,1,6,×,2,6 × 2,neutral,largerFirst,1.5,1.5,12,,,,,,,,
,,,,,,,,,,,,,,,801,2022-01-17_12h27.18.698,multiplicationStroop,2021.2.3,Win32,60.17209218,,,,,,,,,,,,,,,,,,,,,,,,,,,,,,,,,36,2.8833,1,0,31,31,27,1,9,×,4,9 × 4,neutral,largerFirst,1.5,1.5,36,,,,,,,,
,,,,,,,,,,,,,,,801,2022-01-17_12h27.18.698,multiplicationStroop,2021.2.3,Win32,60.17209218,,,,,,,,,,,,,,,,,,,,,,,,,,,,,,,,,14,1.7071,1,0,32,32,16,1,7,×,2,7 × 2,neutral,largerFirst,1.5,1.5,14,,,,,,,,
,,,,,,,,,,,,,,,801,2022-01-17_12h27.18.698,multiplicationStroop,2021.2.3,Win32,60.17209218,,,,,,,,,,,,,,,,,,,,,,,,,,,,,,,,,45,1.7787,1,0,33,33,10,1,5,×,9,5 × 9,neutral,smallerFirst,1.5,1.5,45,,,,,,,,
,,,,,,,,,,,,,,,801,2022-01-17_12h27.18.698,multiplicationStroop,2021.2.3,Win32,60.17209218,,,,,,,,,,,,,,,,,,,,,,,,,,,,,,,,,64,2.0493,1,0,34,34,34,1,8,×,8,8 × 8,neutral,tie,1.5,1.5,64,,,,,,,,
,,,,,,,,,,,,,,,801,2022-01-17_12h27.18.698,multiplicationStroop,2021.2.3,Win32,60.17209218,,,,,,,,,,,,,,,,,,,,,,,,,,,,,,,,,63,3.0176,1,0,35,35,12,1,7,×,9,7 × 9,neutral,smallerFirst,1.5,1.5,63,,,,,,,,
,,,,,,,,,,,,,,,801,2022-01-17_12h27.18.698,multiplicationStroop,2021.2.3,Win32,60.17209218,,,,,,,,,,,,,,,,,,,,,,,,,,,,,,,,,,,,,,,,,,,,,,,,,,0,2,2,1,1,stimulusFile/mult_blk2.xlsx,,
,,,,,,,,,,,,,,,801,2022-01-17_12h27.18.698,multiplicationStroop,2021.2.3,Win32,60.17209218,,,,,,,,,,,,,,,,,,,,,,,,,,,,,,,space,1.7688,42,2.76,1,0,0,0,3,1,6,×,7,6 × 7,incongruent,smallerFirst,2,1,42,,,,,,,,
,,,,,,,,,,,,,,,801,2022-01-17_12h27.18.698,multiplicationStroop,2021.2.3,Win32,60.17209218,,,,,,,,,,,,,,,,,,,,,,,,,,,,,,,,,18,1.9664,1,0,1,1,16,1,9,×,2,9 × 2,incongruent,largerFirst,1,2,18,,,,,,,,
,,,,,,,,,,,,,,,801,2022-01-17_12h27.18.698,multiplicationStroop,2021.2.3,Win32,60.17209218,,,,,,,,,,,,,,,,,,,,,,,,,,,,,,,,,18,1.8478,1,0,2,2,22,1,6,×,3,6 × 3,incongruent,largerFirst,1,2,18,,,,,,,,
,,,,,,,,,,,,,,,801,2022-01-17_12h27.18.698,multiplicationStroop,2021.2.3,Win32,60.17209218,,,,,,,,,,,,,,,,,,,,,,,,,,,,,,,,,36,3.1338,1,0,3,3,32,1,6,×,6,6 × 6,neutral,tie,2,1,36,,,,,,,,
,,,,,,,,,,,,,,,801,2022-01-17_12h27.18.698,multiplicationStroop,2021.2.3,Win32,60.17209218,,,,,,,,,,,,,,,,,,,,,,,,,,,,,,,,,4,1.3802,1,0,4,4,28,1,2,×,2,2 × 2,neutral,tie,2,1,4,,,,,,,,
,,,,,,,,,,,,,,,801,2022-01-17_12h27.18.698,multiplicationStroop,2021.2.3,Win32,60.17209218,,,,,,,,,,,,,,,,,,,,,,,,,,,,,,,,,63,2.7163,1,0,5,5,17,1,9,×,7,9 × 7,incongruent,largerFirst,1,2,63,,,,,,,,
,,,,,,,,,,,,,,,801,2022-01-17_12h27.18.698,multiplicationStroop,2021.2.3,Win32,60.17209218,,,,,,,,,,,,,,,,,,,,,,,,,,,,,,,,,10,1.5998,1,0,6,6,7,1,2,×,5,2 × 5,incongruent,smallerFirst,2,1,10,,,,,,,,
,,,,,,,,,,,,,,,801,2022-01-17_12h27.18.698,multiplicationStroop,2021.2.3,Win32,60.17209218,,,,,,,,,,,,,,,,,,,,,,,,,,,,,,,,,16,2.0334,1,0,7,7,9,1,2,×,8,2 × 8,incongruent,smallerFirst,2,1,16,,,,,,,,
,,,,,,,,,,,,,,,801,2022-01-17_12h27.18.698,multiplicationStroop,2021.2.3,Win32,60.17209218,,,,,,,,,,,,,,,,,,,,,,,,,,,,,,,,,36,1.8829,1,0,8,8,1,1,4,×,9,4 × 9,incongruent,smallerFirst,2,1,36,,,,,,,,
,,,,,,,,,,,,,,,801,2022-01-17_12h27.18.698,multiplicationStroop,2021.2.3,Win32,60.17209218,,,,,,,,,,,,,,,,,,,,,,,,,,,,,,,,,24,2.5503,1,0,9,9,6,1,4,×,6,4 × 6,incongruent,smallerFirst,2,1,24,,,,,,,,
,,,,,,,,,,,,,,,801,2022-01-17_12h27.18.698,multiplicationStroop,2021.2.3,Win32,60.17209218,,,,,,,,,,,,,,,,,,,,,,,,,,,,,,,,,54,2.1824,1,0,10,10,20,1,9,×,6,9 × 6,incongruent,largerFirst,1,2,54,,,,,,,,
,,,,,,,,,,,,,,,801,2022-01-17_12h27.18.698,multiplicationStroop,2021.2.3,Win32,60.17209218,,,,,,,,,,,,,,,,,,,,,,,,,,,,,,,,,48,10.8693,1,0,11,11,15,1,8,×,6,8 × 6,incongruent,largerFirst,1,2,48,,,,,,,,
,,,,,,,,,,,,,,,801,2022-01-17_12h27.18.698,multiplicationStroop,2021.2.3,Win32,60.17209218,,,,,,,,,,,,,,,,,,,,,,,,,,,,,,,,,12,1.3509,1,0,12,12,5,1,2,×,6,2 × 6,incongruent,smallerFirst,2,1,12,,,,,,,,
,,,,,,,,,,,,,,,801,2022-01-17_12h27.18.698,multiplicationStroop,2021.2.3,Win32,60.17209218,,,,,,,,,,,,,,,,,,,,,,,,,,,,,,,,,81,1.9495,1,0,13,13,35,1,9,×,9,9 × 9,neutral,tie,2,1,81,,,,,,,,
,,,,,,,,,,,,,,,801,2022-01-17_12h27.18.698,multiplicationStroop,2021.2.3,Win32,60.17209218,,,,,,,,,,,,,,,,,,,,,,,,,,,,,,,,,20,2.1326,1,0,14,14,13,1,4,×,5,4 × 5,incongruent,smallerFirst,2,1,20,,,,,,,,
,,,,,,,,,,,,,,,801,2022-01-17_12h27.18.698,multiplicationStroop,2021.2.3,Win32,60.17209218,,,,,,,,,,,,,,,,,,,,,,,,,,,,,,,,,56,1.9816,1,0,15,15,0,1,7,×,8,7 × 8,incongruent,smallerFirst,2,1,56,,,,,,,,
,,,,,,,,,,,,,,,801,2022-01-17_12h27.18.698,multiplicationStroop,2021.2.3,Win32,60.17209218,,,,,,,,,,,,,,,,,,,,,,,,,,,,,,,,,21,1.45,1,0,16,16,12,1,3,×,7,3 × 7,incongruent,smallerFirst,2,1,21,,,,,,,,
,,,,,,,,,,,,,,,801,2022-01-17_12h27.18.698,multiplicationStroop,2021.2.3,Win32,60.17209218,,,,,,,,,,,,,,,,,,,,,,,,,,,,,,,,,27,2.534,1,0,17,17,4,1,3,×,9,3 × 9,incongruent,smallerFirst,2,1,27,,,,,,,,
,,,,,,,,,,,,,,,801,2022-01-17_12h27.18.698,multiplicationStroop,2021.2.3,Win32,60.17209218,,,,,,,,,,,,,,,,,,,,,,,,,,,,,,,,,64,2.5832,1,0,18,18,34,1,8,×,8,8 × 8,neutral,tie,2,1,64,,,,,,,,
,,,,,,,,,,,,,,,801,2022-01-17_12h27.18.698,multiplicationStroop,2021.2.3,Win32,60.17209218,,,,,,,,,,,,,,,,,,,,,,,,,,,,,,,,,30,1.966,1,0,19,19,11,1,5,×,6,5 × 6,incongruent,smallerFirst,2,1,30,,,,,,,,
,,,,,,,,,,,,,,,801,2022-01-17_12h27.18.698,multiplicationStroop,2021.2.3,Win32,60.17209218,,,,,,,,,,,,,,,,,,,,,,,,,,,,,,,,,12,1.5324,1,0,20,20,19,1,4,×,3,4 × 3,incongruent,largerFirst,1,2,12,,,,,,,,
,,,,,,,,,,,,,,,801,2022-01-17_12h27.18.698,multiplicationStroop,2021.2.3,Win32,60.17209218,,,,,,,,,,,,,,,,,,,,,,,,,,,,,,,,,35,1.9662,1,0,21,21,26,1,7,×,5,7 × 5,incongruent,largerFirst,1,2,35,,,,,,,,
,,,,,,,,,,,,,,,801,2022-01-17_12h27.18.698,multiplicationStroop,2021.2.3,Win32,60.17209218,,,,,,,,,,,,,,,,,,,,,,,,,,,,,,,,,9,1.4668,1,0,22,22,29,1,3,×,3,3 × 3,neutral,tie,2,1,9,,,,,,,,
,,,,,,,,,,,,,,,801,2022-01-17_12h27.18.698,multiplicationStroop,2021.2.3,Win32,60.17209218,,,,,,,,,,,,,,,,,,,,,,,,,,,,,,,,,32,1.8656,1,0,23,23,21,1,8,×,4,8 × 4,incongruent,largerFirst,1,2,32,,,,,,,,
,,,,,,,,,,,,,,,801,2022-01-17_12h27.18.698,multiplicationStroop,2021.2.3,Win32,60.17209218,,,,,,,,,,,,,,,,,,,,,,,,,,,,,,,,,14,1.5977,1,0,24,24,18,1,7,×,2,7 × 2,incongruent,largerFirst,1,2,14,,,,,,,,
,,,,,,,,,,,,,,,801,2022-01-17_12h27.18.698,multiplicationStroop,2021.2.3,Win32,60.17209218,,,,,,,,,,,,,,,,,,,,,,,,,,,,,,,,,72,1.8331,1,0,25,25,14,1,9,×,8,9 × 8,incongruent,largerFirst,1,2,72,,,,,,,,
,,,,,,,,,,,,,,,801,2022-01-17_12h27.18.698,multiplicationStroop,2021.2.3,Win32,60.17209218,,,,,,,,,,,,,,,,,,,,,,,,,,,,,,,,,40,1.9,1,0,26,26,27,1,8,×,5,8 × 5,incongruent,largerFirst,1,2,40,,,,,,,,
,,,,,,,,,,,,,,,801,2022-01-17_12h27.18.698,multiplicationStroop,2021.2.3,Win32,60.17209218,,,,,,,,,,,,,,,,,,,,,,,,,,,,,,,,,24,1.6489,1,0,27,27,23,1,8,×,3,8 × 3,incongruent,largerFirst,1,2,24,,,,,,,,
,,,,,,,,,,,,,,,801,2022-01-17_12h27.18.698,multiplicationStroop,2021.2.3,Win32,60.17209218,,,,,,,,,,,,,,,,,,,,,,,,,,,,,,,,,15,1.5331,1,0,28,28,24,1,5,×,3,5 × 3,incongruent,largerFirst,1,2,15,,,,,,,,
,,,,,,,,,,,,,,,801,2022-01-17_12h27.18.698,multiplicationStroop,2021.2.3,Win32,60.17209218,,,,,,,,,,,,,,,,,,,,,,,,,,,,,,,,,6,1.5143,1,0,29,29,25,1,3,×,2,3 × 2,incongruent,largerFirst,1,2,6,,,,,,,,
,,,,,,,,,,,,,,,801,2022-01-17_12h27.18.698,multiplicationStroop,2021.2.3,Win32,60.17209218,,,,,,,,,,,,,,,,,,,,,,,,,,,,,,,,,49,1.9977,1,0,30,30,33,1,7,×,7,7 × 7,neutral,tie,2,1,49,,,,,,,,
,,,,,,,,,,,,,,,801,2022-01-17_12h27.18.698,multiplicationStroop,2021.2.3,Win32,60.17209218,,,,,,,,,,,,,,,,,,,,,,,,,,,,,,,,,45,1.8502,1,0,31,31,8,1,5,×,9,5 × 9,incongruent,smallerFirst,2,1,45,,,,,,,,
,,,,,,,,,,,,,,,801,2022-01-17_12h27.18.698,multiplicationStroop,2021.2.3,Win32,60.17209218,,,,,,,,,,,,,,,,,,,,,,,,,,,,,,,,,36,2.2657,0,0,32,32,2,1,4,×,7,4 × 7,incongruent,smallerFirst,2,1,28,,,,,,,,
,,,,,,,,,,,,,,,801,2022-01-17_12h27.18.698,multiplicationStroop,2021.2.3,Win32,60.17209218,,,,,,,,,,,,,,,,,,,,,,,,,,,,,,,,,25,2.3497,1,0,33,33,31,1,5,×,5,5 × 5,neutral,tie,2,1,25,,,,,,,,
,,,,,,,,,,,,,,,801,2022-01-17_12h27.18.698,multiplicationStroop,2021.2.3,Win32,60.17209218,,,,,,,,,,,,,,,,,,,,,,,,,,,,,,,,,8,1.7665,1,0,34,34,10,1,2,×,4,2 × 4,incongruent,smallerFirst,2,1,8,,,,,,,,
,,,,,,,,,,,,,,,801,2022-01-17_12h27.18.698,multiplicationStroop,2021.2.3,Win32,60.17209218,,,,,,,,,,,,,,,,,,,,,,,,,,,,,,,,,16,1.7309,1,0,35,35,30,1,4,×,4,4 × 4,neutral,tie,2,1,16,,,,,,,,
,,,,,,,,,,,,,,,801,2022-01-17_12h27.18.698,multiplicationStroop,2021.2.3,Win32,60.17209218,,,,,,,,,,,,,,,,,,,,,,,,,,,,,,,,,,,,,,,,,,,,,,,,,,0,3,3,4,1,stimulusFile/mult_blk5_INcongruent.xlsx,,
,,,,,,,,,,,,,,,801,2022-01-17_12h27.18.698,multiplicationStroop,2021.2.3,Win32,60.17209218,,,,,,,,,,,,,,,,,,,,,,,,,,,,,,,space,1.2025,12,1.3484,1,0,0,0,19,1,6,×,2,6 × 2,incongruent,largerFirst,1,2,12,,,,,,,,
,,,,,,,,,,,,,,,801,2022-01-17_12h27.18.698,multiplicationStroop,2021.2.3,Win32,60.17209218,,,,,,,,,,,,,,,,,,,,,,,,,,,,,,,,,14,2.4167,1,0,1,1,4,1,2,×,7,2 × 7,incongruent,smallerFirst,2,1,14,,,,,,,,
,,,,,,,,,,,,,,,801,2022-01-17_12h27.18.698,multiplicationStroop,2021.2.3,Win32,60.17209218,,,,,,,,,,,,,,,,,,,,,,,,,,,,,,,,,18,1.5824,1,0,2,2,2,1,2,×,9,2 × 9,incongruent,smallerFirst,2,1,18,,,,,,,,
,,,,,,,,,,,,,,,801,2022-01-17_12h27.18.698,multiplicationStroop,2021.2.3,Win32,60.17209218,,,,,,,,,,,,,,,,,,,,,,,,,,,,,,,,,63,2.5496,1,0,3,3,3,1,7,×,9,7 × 9,incongruent,smallerFirst,2,1,63,,,,,,,,
,,,,,,,,,,,,,,,801,2022-01-17_12h27.18.698,multiplicationStroop,2021.2.3,Win32,60.17209218,,,,,,,,,,,,,,,,,,,,,,,,,,,,,,,,,27,2.0321,1,0,4,4,18,1,9,×,3,9 × 3,incongruent,largerFirst,1,2,27,,,,,,,,
,,,,,,,,,,,,,,,801,2022-01-17_12h27.18.698,multiplicationStroop,2021.2.3,Win32,60.17209218,,,,,,,,,,,,,,,,,,,,,,,,,,,,,,,,,16,1.5829,1,0,5,5,30,1,4,×,4,4 × 4,incongruent,tie,1,2,16,,,,,,,,
,,,,,,,,,,,,,,,801,2022-01-17_12h27.18.698,multiplicationStroop,2021.2.3,Win32,60.17209218,,,,,,,,,,,,,,,,,,,,,,,,,,,,,,,,,15,1.4996,1,0,6,6,10,1,3,×,5,3 × 5,incongruent,smallerFirst,2,1,15,,,,,,,,
,,,,,,,,,,,,,,,801,2022-01-17_12h27.18.698,multiplicationStroop,2021.2.3,Win32,60.17209218,,,,,,,,,,,,,,,,,,,,,,,,,,,,,,,,,45,1.8494,1,0,7,7,22,1,9,×,5,9 × 5,incongruent,largerFirst,1,2,45,,,,,,,,
,,,,,,,,,,,,,,,801,2022-01-17_12h27.18.698,multiplicationStroop,2021.2.3,Win32,60.17209218,,,,,,,,,,,,,,,,,,,,,,,,,,,,,,,,,12,1.4166,1,0,8,8,5,1,3,×,4,3 × 4,incongruent,smallerFirst,2,1,12,,,,,,,,
,,,,,,,,,,,,,,,801,2022-01-17_12h27.18.698,multiplicationStroop,2021.2.3,Win32,60.17209218,,,,,,,,,,,,,,,,,,,,,,,,,,,,,,,,,64,1.7668,1,0,9,9,34,1,8,×,8,8 × 8,incongruent,tie,1,2,64,,,,,,,,
,,,,,,,,,,,,,,,801,2022-01-17_12h27.18.698,multiplicationStroop,2021.2.3,Win32,60.17209218,,,,,,,,,,,,,,,,,,,,,,,,,,,,,,,,,30,1.8161,1,0,10,10,25,1,6,×,5,6 × 5,incongruent,largerFirst,1,2,30,,,,,,,,
,,,,,,,,,,,,,,,801,2022-01-17_12h27.18.698,multiplicationStroop,2021.2.3,Win32,60.17209218,,,,,,,,,,,,,,,,,,,,,,,,,,,,,,,,,42,1.8833,1,0,11,11,17,1,7,×,6,7 × 6,incongruent,largerFirst,1,2,42,,,,,,,,
,,,,,,,,,,,,,,,801,2022-01-17_12h27.18.698,multiplicationStroop,2021.2.3,Win32,60.17209218,,,,,,,,,,,,,,,,,,,,,,,,,,,,,,,,,8,3.1172,1,0,12,12,24,1,4,×,2,4 × 2,incongruent,largerFirst,1,2,8,,,,,,,,
,,,,,,,,,,,,,,,801,2022-01-17_12h27.18.698,multiplicationStroop,2021.2.3,Win32,60.17209218,,,,,,,,,,,,,,,,,,,,,,,,,,,,,,,,,36,2.8643,1,0,13,13,15,1,9,×,4,9 × 4,incongruent,largerFirst,1,2,36,,,,,,,,
,,,,,,,,,,,,,,,801,2022-01-17_12h27.18.698,multiplicationStroop,2021.2.3,Win32,60.17209218,,,,,,,,,,,,,,,,,,,,,,,,,,,,,,,,,10,1.6497,1,0,14,14,21,1,5,×,2,5 × 2,incongruent,largerFirst,1,2,10,,,,,,,,
,,,,,,,,,,,,,,,801,2022-01-17_12h27.18.698,multiplicationStroop,2021.2.3,Win32,60.17209218,,,,,,,,,,,,,,,,,,,,,,,,,,,,,,,,,56,1.9496,1,0,15,15,14,1,8,×,7,8 × 7,incongruent,largerFirst,1,2,56,,,,,,,,
,,,,,,,,,,,,,,,801,2022-01-17_12h27.18.698,multiplicationStroop,2021.2.3,Win32,60.17209218,,,,,,,,,,,,,,,,,,,,,,,,,,,,,,,,,9,1.566,1,0,16,16,29,1,3,×,3,3 × 3,incongruent,tie,1,2,9,,,,,,,,
,,,,,,,,,,,,,,,801,2022-01-17_12h27.18.698,multiplicationStroop,2021.2.3,Win32,60.17209218,,,,,,,,,,,,,,,,,,,,,,,,,,,,,,,,,72,2.0501,1,0,17,17,0,1,8,×,9,8 × 9,incongruent,smallerFirst,2,1,72,,,,,,,,
,,,,,,,,,,,,,,,801,2022-01-17_12h27.18.698,multiplicationStroop,2021.2.3,Win32,60.17209218,,,,,,,,,,,,,,,,,,,,,,,,,,,,,,,,,21,1.5494,1,0,18,18,26,1,7,×,3,7 × 3,incongruent,largerFirst,1,2,21,,,,,,,,
,,,,,,,,,,,,,,,801,2022-01-17_12h27.18.698,multiplicationStroop,2021.2.3,Win32,60.17209218,,,,,,,,,,,,,,,,,,,,,,,,,,,,,,,,,28,2.3163,1,0,19,19,16,1,7,×,4,7 × 4,incongruent,largerFirst,1,2,28,,,,,,,,
,,,,,,,,,,,,,,,801,2022-01-17_12h27.18.698,multiplicationStroop,2021.2.3,Win32,60.17209218,,,,,,,,,,,,,,,,,,,,,,,,,,,,,,,,,36,1.8336,1,0,20,20,32,1,6,×,6,6 × 6,incongruent,tie,1,2,36,,,,,,,,
,,,,,,,,,,,,,,,801,2022-01-17_12h27.18.698,multiplicationStroop,2021.2.3,Win32,60.17209218,,,,,,,,,,,,,,,,,,,,,,,,,,,,,,,,,18,2.233,1,0,21,21,8,1,3,×,6,3 × 6,incongruent,smallerFirst,2,1,18,,,,,,,,
,,,,,,,,,,,,,,,801,2022-01-17_12h27.18.698,multiplicationStroop,2021.2.3,Win32,60.17209218,,,,,,,,,,,,,,,,,,,,,,,,,,,,,,,,,48,2.8503,1,0,22,22,1,1,6,×,8,6 × 8,incongruent,smallerFirst,2,1,48,,,,,,,,
,,,,,,,,,,,,,,,801,2022-01-17_12h27.18.698,multiplicationStroop,2021.2.3,Win32,60.17209218,,,,,,,,,,,,,,,,,,,,,,,,,,,,,,,,,16,2.5005,1,0,23,23,23,1,8,×,2,8 × 2,incongruent,largerFirst,1,2,16,,,,,,,,
,,,,,,,,,,,,,,,801,2022-01-17_12h27.18.698,multiplicationStroop,2021.2.3,Win32,60.17209218,,,,,,,,,,,,,,,,,,,,,,,,,,,,,,,,,6,1.4685,1,0,24,24,11,1,2,×,3,2 × 3,incongruent,smallerFirst,2,1,6,,,,,,,,
,,,,,,,,,,,,,,,801,2022-01-17_12h27.18.698,multiplicationStroop,2021.2.3,Win32,60.17209218,,,,,,,,,,,,,,,,,,,,,,,,,,,,,,,,,24,1.5501,1,0,25,25,20,1,6,×,4,6 × 4,incongruent,largerFirst,1,2,24,,,,,,,,
,,,,,,,,,,,,,,,801,2022-01-17_12h27.18.698,multiplicationStroop,2021.2.3,Win32,60.17209218,,,,,,,,,,,,,,,,,,,,,,,,,,,,,,,,,35,2.1162,1,0,26,26,12,1,5,×,7,5 × 7,incongruent,smallerFirst,2,1,35,,,,,,,,
,,,,,,,,,,,,,,,801,2022-01-17_12h27.18.698,multiplicationStroop,2021.2.3,Win32,60.17209218,,,,,,,,,,,,,,,,,,,,,,,,,,,,,,,,,81,1.4997,1,0,27,27,35,1,9,×,9,9 × 9,incongruent,tie,1,2,81,,,,,,,,
,,,,,,,,,,,,,,,801,2022-01-17_12h27.18.698,multiplicationStroop,2021.2.3,Win32,60.17209218,,,,,,,,,,,,,,,,,,,,,,,,,,,,,,,,,20,2.9668,1,0,28,28,27,1,5,×,4,5 × 4,incongruent,largerFirst,1,2,20,,,,,,,,
,,,,,,,,,,,,,,,801,2022-01-17_12h27.18.698,multiplicationStroop,2021.2.3,Win32,60.17209218,,,,,,,,,,,,,,,,,,,,,,,,,,,,,,,,,54,3.5172,1,0,29,29,6,1,6,×,9,6 × 9,incongruent,smallerFirst,2,1,54,,,,,,,,
,,,,,,,,,,,,,,,801,2022-01-17_12h27.18.698,multiplicationStroop,2021.2.3,Win32,60.17209218,,,,,,,,,,,,,,,,,,,,,,,,,,,,,,,,,40,2.3694,1,0,30,30,13,1,5,×,8,5 × 8,incongruent,smallerFirst,2,1,40,,,,,,,,
,,,,,,,,,,,,,,,801,2022-01-17_12h27.18.698,multiplicationStroop,2021.2.3,Win32,60.17209218,,,,,,,,,,,,,,,,,,,,,,,,,,,,,,,,,49,1.9665,1,0,31,31,33,1,7,×,7,7 × 7,incongruent,tie,1,2,49,,,,,,,,
,,,,,,,,,,,,,,,801,2022-01-17_12h27.18.698,multiplicationStroop,2021.2.3,Win32,60.17209218,,,,,,,,,,,,,,,,,,,,,,,,,,,,,,,,,25,1.5334,1,0,32,32,31,1,5,×,5,5 × 5,incongruent,tie,1,2,25,,,,,,,,
,,,,,,,,,,,,,,,801,2022-01-17_12h27.18.698,multiplicationStroop,2021.2.3,Win32,60.17209218,,,,,,,,,,,,,,,,,,,,,,,,,,,,,,,,,24,2.2994,1,0,33,33,9,1,3,×,8,3 × 8,incongruent,smallerFirst,2,1,24,,,,,,,,
,,,,,,,,,,,,,,,801,2022-01-17_12h27.18.698,multiplicationStroop,2021.2.3,Win32,60.17209218,,,,,,,,,,,,,,,,,,,,,,,,,,,,,,,,,4,1.6166,1,0,34,34,28,1,2,×,2,2 × 2,incongruent,tie,1,2,4,,,,,,,,
,,,,,,,,,,,,,,,801,2022-01-17_12h27.18.698,multiplicationStroop,2021.2.3,Win32,60.17209218,,,,,,,,,,,,,,,,,,,,,,,,,,,,,,,,,32,2.1321,1,0,35,35,7,1,4,×,8,4 × 8,incongruent,smallerFirst,2,1,32,,,,,,,,
,,,,,,,,,,,,,,,801,2022-01-17_12h27.18.698,multiplicationStroop,2021.2.3,Win32,60.17209218,,,,,,,,,,,,,,,,,,,,,,,,,,,,,,,,,,,,,,,,,,,,,,,,,,0,4,4,5,1,stimulusFile/mult_blk6_INcongruent.xlsx,,
,,,,,,,,,,,,,,,801,2022-01-17_12h27.18.698,multiplicationStroop,2021.2.3,Win32,60.17209218,,,,,,,,,,,,,,,,,,,,,,,,,,,,,,,space,1.0026,63,1.8872,0,0,0,0,34,1,8,×,8,8 × 8,neutral,tie,1,2,64,,,,,,,,
,,,,,,,,,,,,,,,801,2022-01-17_12h27.18.698,multiplicationStroop,2021.2.3,Win32,60.17209218,,,,,,,,,,,,,,,,,,,,,,,,,,,,,,,,,12,2.5674,1,0,1,1,5,1,2,×,6,2 × 6,congruent,smallerFirst,1,2,12,,,,,,,,
,,,,,,,,,,,,,,,801,2022-01-17_12h27.18.698,multiplicationStroop,2021.2.3,Win32,60.17209218,,,,,,,,,,,,,,,,,,,,,,,,,,,,,,,,,48,3.1175,1,0,2,2,4,1,6,×,8,6 × 8,congruent,smallerFirst,1,2,48,,,,,,,,
,,,,,,,,,,,,,,,801,2022-01-17_12h27.18.698,multiplicationStroop,2021.2.3,Win32,60.17209218,,,,,,,,,,,,,,,,,,,,,,,,,,,,,,,,,6,1.5828,1,0,3,3,27,1,3,×,2,3 × 2,congruent,largerFirst,2,1,6,,,,,,,,
,,,,,,,,,,,,,,,801,2022-01-17_12h27.18.698,multiplicationStroop,2021.2.3,Win32,60.17209218,,,,,,,,,,,,,,,,,,,,,,,,,,,,,,,,,8,1.4665,1,0,4,4,23,1,4,×,2,4 × 2,congruent,largerFirst,2,1,8,,,,,,,,
,,,,,,,,,,,,,,,801,2022-01-17_12h27.18.698,multiplicationStroop,2021.2.3,Win32,60.17209218,,,,,,,,,,,,,,,,,,,,,,,,,,,,,,,,,12,1.4836,1,0,5,5,16,1,4,×,3,4 × 3,congruent,largerFirst,2,1,12,,,,,,,,
,,,,,,,,,,,,,,,801,2022-01-17_12h27.18.698,multiplicationStroop,2021.2.3,Win32,60.17209218,,,,,,,,,,,,,,,,,,,,,,,,,,,,,,,,,36,1.9999,1,0,6,6,14,1,9,×,4,9 × 4,congruent,largerFirst,2,1,36,,,,,,,,
,,,,,,,,,,,,,,,801,2022-01-17_12h27.18.698,multiplicationStroop,2021.2.3,Win32,60.17209218,,,,,,,,,,,,,,,,,,,,,,,,,,,,,,,,,16,1.7003,1,0,7,7,30,1,4,×,4,4 × 4,neutral,tie,1,2,16,,,,,,,,
,,,,,,,,,,,,,,,801,2022-01-17_12h27.18.698,multiplicationStroop,2021.2.3,Win32,60.17209218,,,,,,,,,,,,,,,,,,,,,,,,,,,,,,,,,81,1.5835,1,0,8,8,35,1,9,×,9,9 × 9,neutral,tie,1,2,81,,,,,,,,
,,,,,,,,,,,,,,,801,2022-01-17_12h27.18.698,multiplicationStroop,2021.2.3,Win32,60.17209218,,,,,,,,,,,,,,,,,,,,,,,,,,,,,,,,,36,2.6837,1,0,9,9,32,1,6,×,6,6 × 6,neutral,tie,1,2,36,,,,,,,,
,,,,,,,,,,,,,,,801,2022-01-17_12h27.18.698,multiplicationStroop,2021.2.3,Win32,60.17209218,,,,,,,,,,,,,,,,,,,,,,,,,,,,,,,,,25,1.536,1,0,10,10,31,1,5,×,5,5 × 5,neutral,tie,1,2,25,,,,,,,,
,,,,,,,,,,,,,,,801,2022-01-17_12h27.18.698,multiplicationStroop,2021.2.3,Win32,60.17209218,,,,,,,,,,,,,,,,,,,,,,,,,,,,,,,,,45,2.317,1,0,11,11,9,1,5,×,9,5 × 9,congruent,smallerFirst,1,2,45,,,,,,,,
,,,,,,,,,,,,,,,801,2022-01-17_12h27.18.698,multiplicationStroop,2021.2.3,Win32,60.17209218,,,,,,,,,,,,,,,,,,,,,,,,,,,,,,,,,15,1.9529,1,0,12,12,18,1,5,×,3,5 × 3,congruent,largerFirst,2,1,15,,,,,,,,
,,,,,,,,,,,,,,,801,2022-01-17_12h27.18.698,multiplicationStroop,2021.2.3,Win32,60.17209218,,,,,,,,,,,,,,,,,,,,,,,,,,,,,,,,,40,2.0333,1,0,13,13,20,1,8,×,5,8 × 5,congruent,largerFirst,2,1,40,,,,,,,,
,,,,,,,,,,,,,,,801,2022-01-17_12h27.18.698,multiplicationStroop,2021.2.3,Win32,60.17209218,,,,,,,,,,,,,,,,,,,,,,,,,,,,,,,,,21,1.5167,1,0,14,14,2,1,3,×,7,3 × 7,congruent,smallerFirst,1,2,21,,,,,,,,
,,,,,,,,,,,,,,,801,2022-01-17_12h27.18.698,multiplicationStroop,2021.2.3,Win32,60.17209218,,,,,,,,,,,,,,,,,,,,,,,,,,,,,,,,,56,3.5676,1,0,15,15,22,1,8,×,7,8 × 7,congruent,largerFirst,2,1,56,,,,,,,,
,,,,,,,,,,,,,,,801,2022-01-17_12h27.18.698,multiplicationStroop,2021.2.3,Win32,60.17209218,,,,,,,,,,,,,,,,,,,,,,,,,,,,,,,,,4,1.2855,1,0,16,16,28,1,2,×,2,2 × 2,neutral,tie,1,2,4,,,,,,,,
,,,,,,,,,,,,,,,801,2022-01-17_12h27.18.698,multiplicationStroop,2021.2.3,Win32,60.17209218,,,,,,,,,,,,,,,,,,,,,,,,,,,,,,,,,10,1.5171,1,0,17,17,10,1,2,×,5,2 × 5,congruent,smallerFirst,1,2,10,,,,,,,,
,,,,,,,,,,,,,,,801,2022-01-17_12h27.18.698,multiplicationStroop,2021.2.3,Win32,60.17209218,,,,,,,,,,,,,,,,,,,,,,,,,,,,,,,,,72,1.8002,1,0,18,18,3,1,8,×,9,8 × 9,congruent,smallerFirst,1,2,72,,,,,,,,
,,,,,,,,,,,,,,,801,2022-01-17_12h27.18.698,multiplicationStroop,2021.2.3,Win32,60.17209218,,,,,,,,,,,,,,,,,,,,,,,,,,,,,,,,,24,1.4831,1,0,19,19,24,1,8,×,3,8 × 3,congruent,largerFirst,2,1,24,,,,,,,,
,,,,,,,,,,,,,,,801,2022-01-17_12h27.18.698,multiplicationStroop,2021.2.3,Win32,60.17209218,,,,,,,,,,,,,,,,,,,,,,,,,,,,,,,,,14,1.4999,1,0,20,20,0,1,2,×,7,2 × 7,congruent,smallerFirst,1,2,14,,,,,,,,
,,,,,,,,,,,,,,,801,2022-01-17_12h27.18.698,multiplicationStroop,2021.2.3,Win32,60.17209218,,,,,,,,,,,,,,,,,,,,,,,,,,,,,,,,,9,1.5835,1,0,21,21,29,1,3,×,3,3 × 3,neutral,tie,1,2,9,,,,,,,,
,,,,,,,,,,,,,,,801,2022-01-17_12h27.18.698,multiplicationStroop,2021.2.3,Win32,60.17209218,,,,,,,,,,,,,,,,,,,,,,,,,,,,,,,,,16,2.134,1,0,22,22,19,1,8,×,2,8 × 2,congruent,largerFirst,2,1,16,,,,,,,,
,,,,,,,,,,,,,,,801,2022-01-17_12h27.18.698,multiplicationStroop,2021.2.3,Win32,60.17209218,,,,,,,,,,,,,,,,,,,,,,,,,,,,,,,,,18,1.7334,1,0,23,23,8,1,2,×,9,2 × 9,congruent,smallerFirst,1,2,18,,,,,,,,
,,,,,,,,,,,,,,,801,2022-01-17_12h27.18.698,multiplicationStroop,2021.2.3,Win32,60.17209218,,,,,,,,,,,,,,,,,,,,,,,,,,,,,,,,,54,1.6161,1,0,24,24,26,1,9,×,6,9 × 6,congruent,largerFirst,2,1,54,,,,,,,,
,,,,,,,,,,,,,,,801,2022-01-17_12h27.18.698,multiplicationStroop,2021.2.3,Win32,60.17209218,,,,,,,,,,,,,,,,,,,,,,,,,,,,,,,,,24,2.1003,1,0,25,25,11,1,4,×,6,4 × 6,congruent,smallerFirst,1,2,24,,,,,,,,
,,,,,,,,,,,,,,,801,2022-01-17_12h27.18.698,multiplicationStroop,2021.2.3,Win32,60.17209218,,,,,,,,,,,,,,,,,,,,,,,,,,,,,,,,,20,1.6184,1,0,26,26,21,1,5,×,4,5 × 4,congruent,largerFirst,2,1,20,,,,,,,,
,,,,,,,,,,,,,,,801,2022-01-17_12h27.18.698,multiplicationStroop,2021.2.3,Win32,60.17209218,,,,,,,,,,,,,,,,,,,,,,,,,,,,,,,,,42,2.9341,1,0,27,27,17,1,7,×,6,7 × 6,congruent,largerFirst,2,1,42,,,,,,,,
,,,,,,,,,,,,,,,801,2022-01-17_12h27.18.698,multiplicationStroop,2021.2.3,Win32,60.17209218,,,,,,,,,,,,,,,,,,,,,,,,,,,,,,,,,27,2.386,1,0,28,28,12,1,3,×,9,3 × 9,congruent,smallerFirst,1,2,27,,,,,,,,
,,,,,,,,,,,,,,,801,2022-01-17_12h27.18.698,multiplicationStroop,2021.2.3,Win32,60.17209218,,,,,,,,,,,,,,,,,,,,,,,,,,,,,,,,,18,2.0502,1,0,29,29,25,1,6,×,3,6 × 3,congruent,largerFirst,2,1,18,,,,,,,,
,,,,,,,,,,,,,,,801,2022-01-17_12h27.18.698,multiplicationStroop,2021.2.3,Win32,60.17209218,,,,,,,,,,,,,,,,,,,,,,,,,,,,,,,,,35,3.0842,1,0,30,30,15,1,7,×,5,7 × 5,congruent,largerFirst,2,1,35,,,,,,,,
,,,,,,,,,,,,,,,801,2022-01-17_12h27.18.698,multiplicationStroop,2021.2.3,Win32,60.17209218,,,,,,,,,,,,,,,,,,,,,,,,,,,,,,,,,32,1.7856,1,0,31,31,6,1,4,×,8,4 × 8,congruent,smallerFirst,1,2,32,,,,,,,,
,,,,,,,,,,,,,,,801,2022-01-17_12h27.18.698,multiplicationStroop,2021.2.3,Win32,60.17209218,,,,,,,,,,,,,,,,,,,,,,,,,,,,,,,,,49,1.9671,1,0,32,32,33,1,7,×,7,7 × 7,neutral,tie,1,2,49,,,,,,,,
,,,,,,,,,,,,,,,801,2022-01-17_12h27.18.698,multiplicationStroop,2021.2.3,Win32,60.17209218,,,,,,,,,,,,,,,,,,,,,,,,,,,,,,,,,63,2.5673,1,0,33,33,7,1,7,×,9,7 × 9,congruent,smallerFirst,1,2,63,,,,,,,,
,,,,,,,,,,,,,,,801,2022-01-17_12h27.18.698,multiplicationStroop,2021.2.3,Win32,60.17209218,,,,,,,,,,,,,,,,,,,,,,,,,,,,,,,,,30,1.8523,1,0,34,34,1,1,5,×,6,5 × 6,congruent,smallerFirst,1,2,30,,,,,,,,
,,,,,,,,,,,,,,,801,2022-01-17_12h27.18.698,multiplicationStroop,2021.2.3,Win32,60.17209218,,,,,,,,,,,,,,,,,,,,,,,,,,,,,,,,,28,2.5506,1,0,35,35,13,1,4,×,7,4 × 7,congruent,smallerFirst,1,2,28,,,,,,,,
,,,,,,,,,,,,,,,801,2022-01-17_12h27.18.698,multiplicationStroop,2021.2.3,Win32,60.17209218,,,,,,,,,,,,,,,,,,,,,,,,,,,,,,,,,,,,,,,,,,,,,,,,,,0,5,5,3,1,stimulusFile/mult_blk4_congruent.xlsx,,
,,,,,,,,,,,,,,,801,2022-01-17_12h27.18.698,multiplicationStroop,2021.2.3,Win32,60.17209218,,,,,,,,,,,,,,,,,,,,,,,,,,,,,,,,,,,,,,,,,,,,,,,,,,,,,,,,space,9.2538