welcomeKey_resp.keys,welcomeKey_resp.rt,X Scale,Y Scale,rt_resp_4.keys,rt_resp_4.corr,rt_resp_4.rt,speedtest_2.thisRepN,speedtest_2.thisTrialN,speedtest_2.thisN,speedtest_2.thisIndex,speedtest_2.ran,numberSc,posX,positionLayout,participant,date,expName,psychopyVersion,OS,frameRate,ct_instrresp.keys,ct_instrresp.rt,key_resp_2.keys,key_resp_2.rt,ct_keyResp.keys,ct_keyResp.corr,ct_keyResp.rt,trials.thisRepN,trials.thisTrialN,trials.thisN,trials.thisIndex,trials.ran,leftNo,rightNo,displayProblem,numDistance,leftNo_size,rightNo_size,Dims,keyAnswer,TS_Loop.thisRepN,TS_Loop.thisTrialN,TS_Loop.thisN,TS_Loop.thisIndex,TS_Loop.ran,Condition,ActionInst,instrImage,mltptaskInst_resp.keys,mltptaskInst_resp.rt,continue_resp_2.keys,continue_resp_2.rt,multp_Answer,multi_RT,multiplyCorr,LoopingMultiply.thisRepN,LoopingMultiply.thisTrialN,LoopingMultiply.thisN,LoopingMultiply.thisIndex,LoopingMultiply.ran,factor1,multiplySign,factor2,multliplyProblem,physicalSize,orderOperand,sizeF1,sizeF2,mult_answer,trials_stroop.thisRepN,trials_stroop.thisTrialN,trials_stroop.thisN,trials_stroop.thisIndex,trials_stroop.ran,multiplicationFile,esckey_resp_2.keys,esckey_resp_2.rt
y,34.5861,60,40,left,1,0.6346,0,0,0,0,1,1,-200,left,802,2022-01-16_22h56.18.991,multiplicationStroop,2021.2.3,Win32,60.85686465,,,,,,,,,,,,,,,,,,,,,,,,,,,,,,,,,,,,,,,,,,,,,,,,,,,,,,,,,
,,,,right,1,0.4781,0,1,1,15,1,9,200,right,802,2022-01-16_22h56.18.991,multiplicationStroop,2021.2.3,Win32,60.85686465,,,,,,,,,,,,,,,,,,,,,,,,,,,,,,,,,,,,,,,,,,,,,,,,,,,,,,,,,
,,,,right,1,0.585,0,2,2,12,1,6,200,right,802,2022-01-16_22h56.18.991,multiplicationStroop,2021.2.3,Win32,60.85686465,,,,,,,,,,,,,,,,,,,,,,,,,,,,,,,,,,,,,,,,,,,,,,,,,,,,,,,,,
,,,,left,1,0.5813,0,3,3,3,1,4,-200,left,802,2022-01-16_22h56.18.991,multiplicationStroop,2021.2.3,Win32,60.85686465,,,,,,,,,,,,,,,,,,,,,,,,,,,,,,,,,,,,,,,,,,,,,,,,,,,,,,,,,
,,,,left,1,0.5566,0,4,4,5,1,7,-200,left,802,2022-01-16_22h56.18.991,multiplicationStroop,2021.2.3,Win32,60.85686465,,,,,,,,,,,,,,,,,,,,,,,,,,,,,,,,,,,,,,,,,,,,,,,,,,,,,,,,,
,,,,right,1,0.4077,0,5,5,9,1,2,200,right,802,2022-01-16_22h56.18.991,multiplicationStroop,2021.2.3,Win32,60.85686465,,,,,,,,,,,,,,,,,,,,,,,,,,,,,,,,,,,,,,,,,,,,,,,,,,,,,,,,,
,,,,left,1,0.5208,0,6,6,6,1,8,-200,left,802,2022-01-16_22h56.18.991,multiplicationStroop,2021.2.3,Win32,60.85686465,,,,,,,,,,,,,,,,,,,,,,,,,,,,,,,,,,,,,,,,,,,,,,,,,,,,,,,,,
,,,,right,1,0.4874,0,7,7,14,1,8,200,right,802,2022-01-16_22h56.18.991,multiplicationStroop,2021.2.3,Win32,60.85686465,,,,,,,,,,,,,,,,,,,,,,,,,,,,,,,,,,,,,,,,,,,,,,,,,,,,,,,,,
,,,,right,1,0.5366,0,8,8,10,1,3,200,right,802,2022-01-16_22h56.18.991,multiplicationStroop,2021.2.3,Win32,60.85686465,,,,,,,,,,,,,,,,,,,,,,,,,,,,,,,,,,,,,,,,,,,,,,,,,,,,,,,,,
,,,,left,1,0.6141,0,9,9,7,1,9,-200,left,802,2022-01-16_22h56.18.991,multiplicationStroop,2021.2.3,Win32,60.85686465,,,,,,,,,,,,,,,,,,,,,,,,,,,,,,,,,,,,,,,,,,,,,,,,,,,,,,,,,
,,,,right,1,0.5078,0,10,10,13,1,7,200,right,802,2022-01-16_22h56.18.991,multiplicationStroop,2021.2.3,Win32,60.85686465,,,,,,,,,,,,,,,,,,,,,,,,,,,,,,,,,,,,,,,,,,,,,,,,,,,,,,,,,
,,,,right,1,0.7849,0,11,11,11,1,4,200,right,802,2022-01-16_22h56.18.991,multiplicationStroop,2021.2.3,Win32,60.85686465,,,,,,,,,,,,,,,,,,,,,,,,,,,,,,,,,,,,,,,,,,,,,,,,,,,,,,,,,
,,,,right,1,0.5652,0,12,12,8,1,1,200,right,802,2022-01-16_22h56.18.991,multiplicationStroop,2021.2.3,Win32,60.85686465,,,,,,,,,,,,,,,,,,,,,,,,,,,,,,,,,,,,,,,,,,,,,,,,,,,,,,,,,
,,,,left,1,0.4484,0,13,13,2,1,3,-200,left,802,2022-01-16_22h56.18.991,multiplicationStroop,2021.2.3,Win32,60.85686465,,,,,,,,,,,,,,,,,,,,,,,,,,,,,,,,,,,,,,,,,,,,,,,,,,,,,,,,,
,,,,left,1,0.4876,0,14,14,1,1,2,-200,left,802,2022-01-16_22h56.18.991,multiplicationStroop,2021.2.3,Win32,60.85686465,,,,,,,,,,,,,,,,,,,,,,,,,,,,,,,,,,,,,,,,,,,,,,,,,,,,,,,,,
,,,,left,1,0.4741,0,15,15,4,1,6,-200,left,802,2022-01-16_22h56.18.991,multiplicationStroop,2021.2.3,Win32,60.85686465,,,,,,,,,,,,,,,,,,,,,,,,,,,,,,,,,,,,,,,,,,,,,,,,,,,,,,,,,
,,,,right,1,0.3968,1,0,16,11,1,4,200,right,802,2022-01-16_22h56.18.991,multiplicationStroop,2021.2.3,Win32,60.85686465,,,,,,,,,,,,,,,,,,,,,,,,,,,,,,,,,,,,,,,,,,,,,,,,,,,,,,,,,
,,,,left,1,0.3835,1,1,17,7,1,9,-200,left,802,2022-01-16_22h56.18.991,multiplicationStroop,2021.2.3,Win32,60.85686465,,,,,,,,,,,,,,,,,,,,,,,,,,,,,,,,,,,,,,,,,,,,,,,,,,,,,,,,,
,,,,right,1,0.35,1,2,18,14,1,8,200,right,802,2022-01-16_22h56.18.991,multiplicationStroop,2021.2.3,Win32,60.85686465,,,,,,,,,,,,,,,,,,,,,,,,,,,,,,,,,,,,,,,,,,,,,,,,,,,,,,,,,
,,,,left,1,0.3707,1,3,19,0,1,1,-200,left,802,2022-01-16_22h56.18.991,multiplicationStroop,2021.2.3,Win32,60.85686465,,,,,,,,,,,,,,,,,,,,,,,,,,,,,,,,,,,,,,,,,,,,,,,,,,,,,,,,,
,,,,left,1,0.4861,1,4,20,4,1,6,-200,left,802,2022-01-16_22h56.18.991,multiplicationStroop,2021.2.3,Win32,60.85686465,,,,,,,,,,,,,,,,,,,,,,,,,,,,,,,,,,,,,,,,,,,,,,,,,,,,,,,,,
,,,,right,1,0.4356,1,5,21,12,1,6,200,right,802,2022-01-16_22h56.18.991,multiplicationStroop,2021.2.3,Win32,60.85686465,,,,,,,,,,,,,,,,,,,,,,,,,,,,,,,,,,,,,,,,,,,,,,,,,,,,,,,,,
,,,,left,1,0.3996,1,6,22,5,1,7,-200,left,802,2022-01-16_22h56.18.991,multiplicationStroop,2021.2.3,Win32,60.85686465,,,,,,,,,,,,,,,,,,,,,,,,,,,,,,,,,,,,,,,,,,,,,,,,,,,,,,,,,
,,,,right,1,0.4814,1,7,23,15,1,9,200,right,802,2022-01-16_22h56.18.991,multiplicationStroop,2021.2.3,Win32,60.85686465,,,,,,,,,,,,,,,,,,,,,,,,,,,,,,,,,,,,,,,,,,,,,,,,,,,,,,,,,
,,,,right,1,0.4818,1,8,24,9,1,2,200,right,802,2022-01-16_22h56.18.991,multiplicationStroop,2021.2.3,Win32,60.85686465,,,,,,,,,,,,,,,,,,,,,,,,,,,,,,,,,,,,,,,,,,,,,,,,,,,,,,,,,
,,,,left,1,0.4156,1,9,25,3,1,4,-200,left,802,2022-01-16_22h56.18.991,multiplicationStroop,2021.2.3,Win32,60.85686465,,,,,,,,,,,,,,,,,,,,,,,,,,,,,,,,,,,,,,,,,,,,,,,,,,,,,,,,,
,,,,left,1,0.4247,1,10,26,1,1,2,-200,left,802,2022-01-16_22h56.18.991,multiplicationStroop,2021.2.3,Win32,60.85686465,,,,,,,,,,,,,,,,,,,,,,,,,,,,,,,,,,,,,,,,,,,,,,,,,,,,,,,,,
,,,,right,1,0.536,1,11,27,10,1,3,200,right,802,2022-01-16_22h56.18.991,multiplicationStroop,2021.2.3,Win32,60.85686465,,,,,,,,,,,,,,,,,,,,,,,,,,,,,,,,,,,,,,,,,,,,,,,,,,,,,,,,,
,,,,right,1,0.612,1,12,28,8,1,1,200,right,802,2022-01-16_22h56.18.991,multiplicationStroop,2021.2.3,Win32,60.85686465,,,,,,,,,,,,,,,,,,,,,,,,,,,,,,,,,,,,,,,,,,,,,,,,,,,,,,,,,
,,,,left,1,0.4499,1,13,29,6,1,8,-200,left,802,2022-01-16_22h56.18.991,multiplicationStroop,2021.2.3,Win32,60.85686465,,,,,,,,,,,,,,,,,,,,,,,,,,,,,,,,,,,,,,,,,,,,,,,,,,,,,,,,,
,,,,left,1,0.4208,1,14,30,2,1,3,-200,left,802,2022-01-16_22h56.18.991,multiplicationStroop,2021.2.3,Win32,60.85686465,,,,,,,,,,,,,,,,,,,,,,,,,,,,,,,,,,,,,,,,,,,,,,,,,,,,,,,,,
,,,,right,1,0.3716,1,15,31,13,1,7,200,right,802,2022-01-16_22h56.18.991,multiplicationStroop,2021.2.3,Win32,60.85686465,,,,,,,,,,,,,,,,,,,,,,,,,,,,,,,,,,,,,,,,,,,,,,,,,,,,,,,,,
,,,,left,1,0.4968,2,0,32,4,1,6,-200,left,802,2022-01-16_22h56.18.991,multiplicationStroop,2021.2.3,Win32,60.85686465,,,,,,,,,,,,,,,,,,,,,,,,,,,,,,,,,,,,,,,,,,,,,,,,,,,,,,,,,
,,,,right,1,0.3454,2,1,33,11,1,4,200,right,802,2022-01-16_22h56.18.991,multiplicationStroop,2021.2.3,Win32,60.85686465,,,,,,,,,,,,,,,,,,,,,,,,,,,,,,,,,,,,,,,,,,,,,,,,,,,,,,,,,
,,,,right,1,0.4729,2,2,34,13,1,7,200,right,802,2022-01-16_22h56.18.991,multiplicationStroop,2021.2.3,Win32,60.85686465,,,,,,,,,,,,,,,,,,,,,,,,,,,,,,,,,,,,,,,,,,,,,,,,,,,,,,,,,
,,,,left,1,0.4801,2,3,35,7,1,9,-200,left,802,2022-01-16_22h56.18.991,multiplicationStroop,2021.2.3,Win32,60.85686465,,,,,,,,,,,,,,,,,,,,,,,,,,,,,,,,,,,,,,,,,,,,,,,,,,,,,,,,,
,,,,left,1,0.4817,2,4,36,5,1,7,-200,left,802,2022-01-16_22h56.18.991,multiplicationStroop,2021.2.3,Win32,60.85686465,,,,,,,,,,,,,,,,,,,,,,,,,,,,,,,,,,,,,,,,,,,,,,,,,,,,,,,,,
,,,,right,1,0.3886,2,5,37,14,1,8,200,right,802,2022-01-16_22h56.18.991,multiplicationStroop,2021.2.3,Win32,60.85686465,,,,,,,,,,,,,,,,,,,,,,,,,,,,,,,,,,,,,,,,,,,,,,,,,,,,,,,,,
,,,,right,1,0.3986,2,6,38,15,1,9,200,right,802,2022-01-16_22h56.18.991,multiplicationStroop,2021.2.3,Win32,60.85686465,,,,,,,,,,,,,,,,,,,,,,,,,,,,,,,,,,,,,,,,,,,,,,,,,,,,,,,,,
,,,,left,1,0.4964,2,7,39,3,1,4,-200,left,802,2022-01-16_22h56.18.991,multiplicationStroop,2021.2.3,Win32,60.85686465,,,,,,,,,,,,,,,,,,,,,,,,,,,,,,,,,,,,,,,,,,,,,,,,,,,,,,,,,
,,,,right,1,0.4383,2,8,40,8,1,1,200,right,802,2022-01-16_22h56.18.991,multiplicationStroop,2021.2.3,Win32,60.85686465,,,,,,,,,,,,,,,,,,,,,,,,,,,,,,,,,,,,,,,,,,,,,,,,,,,,,,,,,
,,,,left,1,0.3882,2,9,41,0,1,1,-200,left,802,2022-01-16_22h56.18.991,multiplicationStroop,2021.2.3,Win32,60.85686465,,,,,,,,,,,,,,,,,,,,,,,,,,,,,,,,,,,,,,,,,,,,,,,,,,,,,,,,,
,,,,right,1,0.4006,2,10,42,10,1,3,200,right,802,2022-01-16_22h56.18.991,multiplicationStroop,2021.2.3,Win32,60.85686465,,,,,,,,,,,,,,,,,,,,,,,,,,,,,,,,,,,,,,,,,,,,,,,,,,,,,,,,,
,,,,left,1,0.4193,2,11,43,6,1,8,-200,left,802,2022-01-16_22h56.18.991,multiplicationStroop,2021.2.3,Win32,60.85686465,,,,,,,,,,,,,,,,,,,,,,,,,,,,,,,,,,,,,,,,,,,,,,,,,,,,,,,,,
,,,,right,1,0.3747,2,12,44,9,1,2,200,right,802,2022-01-16_22h56.18.991,multiplicationStroop,2021.2.3,Win32,60.85686465,,,,,,,,,,,,,,,,,,,,,,,,,,,,,,,,,,,,,,,,,,,,,,,,,,,,,,,,,
,,,,left,1,0.3519,2,13,45,1,1,2,-200,left,802,2022-01-16_22h56.18.991,multiplicationStroop,2021.2.3,Win32,60.85686465,,,,,,,,,,,,,,,,,,,,,,,,,,,,,,,,,,,,,,,,,,,,,,,,,,,,,,,,,
,,,,left,1,0.5177,2,14,46,2,1,3,-200,left,802,2022-01-16_22h56.18.991,multiplicationStroop,2021.2.3,Win32,60.85686465,,,,,,,,,,,,,,,,,,,,,,,,,,,,,,,,,,,,,,,,,,,,,,,,,,,,,,,,,
,,,,right,1,0.5112,2,15,47,12,1,6,200,right,802,2022-01-16_22h56.18.991,multiplicationStroop,2021.2.3,Win32,60.85686465,,,,,,,,,,,,,,,,,,,,,,,,,,,,,,,,,,,,,,,,,,,,,,,,,,,,,,,,,
,,,,left,1,0.3698,3,0,48,7,1,9,-200,left,802,2022-01-16_22h56.18.991,multiplicationStroop,2021.2.3,Win32,60.85686465,,,,,,,,,,,,,,,,,,,,,,,,,,,,,,,,,,,,,,,,,,,,,,,,,,,,,,,,,
,,,,right,1,0.3514,3,1,49,15,1,9,200,right,802,2022-01-16_22h56.18.991,multiplicationStroop,2021.2.3,Win32,60.85686465,,,,,,,,,,,,,,,,,,,,,,,,,,,,,,,,,,,,,,,,,,,,,,,,,,,,,,,,,
,,,,left,1,0.3345,3,2,50,1,1,2,-200,left,802,2022-01-16_22h56.18.991,multiplicationStroop,2021.2.3,Win32,60.85686465,,,,,,,,,,,,,,,,,,,,,,,,,,,,,,,,,,,,,,,,,,,,,,,,,,,,,,,,,
,,,,right,1,0.3148,3,3,51,11,1,4,200,right,802,2022-01-16_22h56.18.991,multiplicationStroop,2021.2.3,Win32,60.85686465,,,,,,,,,,,,,,,,,,,,,,,,,,,,,,,,,,,,,,,,,,,,,,,,,,,,,,,,,
,,,,right,1,0.5211,3,4,52,12,1,6,200,right,802,2022-01-16_22h56.18.991,multiplicationStroop,2021.2.3,Win32,60.85686465,,,,,,,,,,,,,,,,,,,,,,,,,,,,,,,,,,,,,,,,,,,,,,,,,,,,,,,,,
,,,,left,1,0.347,3,5,53,5,1,7,-200,left,802,2022-01-16_22h56.18.991,multiplicationStroop,2021.2.3,Win32,60.85686465,,,,,,,,,,,,,,,,,,,,,,,,,,,,,,,,,,,,,,,,,,,,,,,,,,,,,,,,,
,,,,right,1,0.3298,3,6,54,14,1,8,200,right,802,2022-01-16_22h56.18.991,multiplicationStroop,2021.2.3,Win32,60.85686465,,,,,,,,,,,,,,,,,,,,,,,,,,,,,,,,,,,,,,,,,,,,,,,,,,,,,,,,,
,,,,left,1,0.3257,3,7,55,0,1,1,-200,left,802,2022-01-16_22h56.18.991,multiplicationStroop,2021.2.3,Win32,60.85686465,,,,,,,,,,,,,,,,,,,,,,,,,,,,,,,,,,,,,,,,,,,,,,,,,,,,,,,,,
,,,,left,1,0.4161,3,8,56,6,1,8,-200,left,802,2022-01-16_22h56.18.991,multiplicationStroop,2021.2.3,Win32,60.85686465,,,,,,,,,,,,,,,,,,,,,,,,,,,,,,,,,,,,,,,,,,,,,,,,,,,,,,,,,
,,,,left,1,0.4058,3,9,57,3,1,4,-200,left,802,2022-01-16_22h56.18.991,multiplicationStroop,2021.2.3,Win32,60.85686465,,,,,,,,,,,,,,,,,,,,,,,,,,,,,,,,,,,,,,,,,,,,,,,,,,,,,,,,,
,,,,right,1,0.4652,3,10,58,9,1,2,200,right,802,2022-01-16_22h56.18.991,multiplicationStroop,2021.2.3,Win32,60.85686465,,,,,,,,,,,,,,,,,,,,,,,,,,,,,,,,,,,,,,,,,,,,,,,,,,,,,,,,,
,,,,right,1,0.4577,3,11,59,10,1,3,200,right,802,2022-01-16_22h56.18.991,multiplicationStroop,2021.2.3,Win32,60.85686465,,,,,,,,,,,,,,,,,,,,,,,,,,,,,,,,,,,,,,,,,,,,,,,,,,,,,,,,,
,,,,left,1,0.3202,3,12,60,4,1,6,-200,left,802,2022-01-16_22h56.18.991,multiplicationStroop,2021.2.3,Win32,60.85686465,,,,,,,,,,,,,,,,,,,,,,,,,,,,,,,,,,,,,,,,,,,,,,,,,,,,,,,,,
,,,,right,1,0.3322,3,13,61,8,1,1,200,right,802,2022-01-16_22h56.18.991,multiplicationStroop,2021.2.3,Win32,60.85686465,,,,,,,,,,,,,,,,,,,,,,,,,,,,,,,,,,,,,,,,,,,,,,,,,,,,,,,,,
,,,,left,1,0.3697,3,14,62,2,1,3,-200,left,802,2022-01-16_22h56.18.991,multiplicationStroop,2021.2.3,Win32,60.85686465,,,,,,,,,,,,,,,,,,,,,,,,,,,,,,,,,,,,,,,,,,,,,,,,,,,,,,,,,
,,,,right,1,0.3236,3,15,63,13,1,7,200,right,802,2022-01-16_22h56.18.991,multiplicationStroop,2021.2.3,Win32,60.85686465,,,,,,,,,,,,,,,,,,,,,,,,,,stimulusFile/physical.xlsx,,,,,,,,,,,,,,,,,,,,,,,,,,,,,,,
,,,,,,,,,,,,,,,802,2022-01-16_22h56.18.991,multiplicationStroop,2021.2.3,Win32,60.85686465,space,63.5122,space,26.3579,right,1,2.2101,0,0,0,30,1,7,6,7 | 6,1,1.4111,1.9756,incongruent,right,,,,,,stimulusFile/physical.xlsx,,,,,,,,,,,,,,,,,,,,,,,,,,,,,,,
,,,,,,,,,,,,,,,802,2022-01-16_22h56.18.991,multiplicationStroop,2021.2.3,Win32,60.85686465,,,,,left,1,0.8179,0,1,1,33,1,2,4,2 | 4,2,1.9756,1.4111,incongruent,left,,,,,,stimulusFile/physical.xlsx,,,,,,,,,,,,,,,,,,,,,,,,,,,,,,,
,,,,,,,,,,,,,,,802,2022-01-16_22h56.18.991,multiplicationStroop,2021.2.3,Win32,60.85686465,,,,,right,0,0.7184,0,2,2,69,1,7,7,7 | 7,0,1.4111,1.9756,neutral,left,,,,,,stimulusFile/physical.xlsx,,,,,,,,,,,,,,,,,,,,,,,,,,,,,,,
,,,,,,,,,,,,,,,802,2022-01-16_22h56.18.991,multiplicationStroop,2021.2.3,Win32,60.85686465,,,,,left,1,0.6452,0,3,3,5,1,4,3,4 | 3,1,1.9756,1.4111,congruent,left,,,,,,stimulusFile/physical.xlsx,,,,,,,,,,,,,,,,,,,,,,,,,,,,,,,
,,,,,,,,,,,,,,,802,2022-01-16_22h56.18.991,multiplicationStroop,2021.2.3,Win32,60.85686465,,,,,right,1,0.5691,0,4,4,62,1,8,8,8 | 8,0,1.4111,1.9756,neutral,right,,,,,,stimulusFile/physical.xlsx,,,,,,,,,,,,,,,,,,,,,,,,,,,,,,,
,,,,,,,,,,,,,,,802,2022-01-16_22h56.18.991,multiplicationStroop,2021.2.3,Win32,60.85686465,,,,,left,1,0.6751,0,5,5,15,1,9,7,9 | 7,2,1.9756,1.4111,congruent,left,,,,,,stimulusFile/physical.xlsx,,,,,,,,,,,,,,,,,,,,,,,,,,,,,,,
,,,,,,,,,,,,,,,802,2022-01-16_22h56.18.991,multiplicationStroop,2021.2.3,Win32,60.85686465,,,,,right,1,0.7004,0,6,6,57,1,2,2,2 | 2,0,1.4111,1.9756,neutral,right,,,,,,stimulusFile/physical.xlsx,,,,,,,,,,,,,,,,,,,,,,,,,,,,,,,
,,,,,,,,,,,,,,,802,2022-01-16_22h56.18.991,multiplicationStroop,2021.2.3,Win32,60.85686465,,,,,left,1,0.6698,0,7,7,35,1,7,9,7 | 9,2,1.9756,1.4111,incongruent,left,,,,,,stimulusFile/physical.xlsx,,,,,,,,,,,,,,,,,,,,,,,,,,,,,,,
,,,,,,,,,,,,,,,802,2022-01-16_22h56.18.991,multiplicationStroop,2021.2.3,Win32,60.85686465,,,,,right,1,0.9498,0,8,8,8,1,1,3,1 | 3,2,1.4111,1.9756,congruent,right,,,,,,stimulusFile/physical.xlsx,,,,,,,,,,,,,,,,,,,,,,,,,,,,,,,
,,,,,,,,,,,,,,,802,2022-01-16_22h56.18.991,multiplicationStroop,2021.2.3,Win32,60.85686465,,,,,left,1,0.7843,0,9,9,23,1,9,4,9 | 4,5,1.9756,1.4111,congruent,left,,,,,,stimulusFile/physical.xlsx,,,,,,,,,,,,,,,,,,,,,,,,,,,,,,,
,,,,,,,,,,,,,,,802,2022-01-16_22h56.18.991,multiplicationStroop,2021.2.3,Win32,60.85686465,,,,,right,1,0.6101,0,10,10,19,1,4,9,4 | 9,5,1.4111,1.9756,congruent,right,,,,,,stimulusFile/physical.xlsx,,,,,,,,,,,,,,,,,,,,,,,,,,,,,,,
,,,,,,,,,,,,,,,802,2022-01-16_22h56.18.991,multiplicationStroop,2021.2.3,Win32,60.85686465,,,,,right,1,0.6527,0,11,11,16,1,1,6,1 | 6,5,1.4111,1.9756,congruent,right,,,,,,stimulusFile/physical.xlsx,,,,,,,,,,,,,,,,,,,,,,,,,,,,,,,
,,,,,,,,,,,,,,,802,2022-01-16_22h56.18.991,multiplicationStroop,2021.2.3,Win32,60.85686465,,,,,right,1,0.7219,0,12,12,47,1,9,4,9 | 4,5,1.4111,1.9756,incongruent,right,,,,,,stimulusFile/physical.xlsx,,,,,,,,,,,,,,,,,,,,,,,,,,,,,,,
,,,,,,,,,,,,,,,802,2022-01-16_22h56.18.991,multiplicationStroop,2021.2.3,Win32,60.85686465,,,,,right,1,0.6546,0,13,13,60,1,3,3,3 | 3,0,1.4111,1.9756,neutral,right,,,,,,stimulusFile/physical.xlsx,,,,,,,,,,,,,,,,,,,,,,,,,,,,,,,
,,,,,,,,,,,,,,,802,2022-01-16_22h56.18.991,multiplicationStroop,2021.2.3,Win32,60.85686465,,,,,left,1,0.6668,0,14,14,51,1,8,8,8 | 8,0,1.9756,1.4111,neutral,left,,,,,,stimulusFile/physical.xlsx,,,,,,,,,,,,,,,,,,,,,,,,,,,,,,,
,,,,,,,,,,,,,,,802,2022-01-16_22h56.18.991,multiplicationStroop,2021.2.3,Win32,60.85686465,,,,,left,1,0.6579,0,15,15,21,1,7,2,7 | 2,5,1.9756,1.4111,congruent,left,,,,,,stimulusFile/physical.xlsx,,,,,,,,,,,,,,,,,,,,,,,,,,,,,,,
,,,,,,,,,,,,,,,802,2022-01-16_22h56.18.991,multiplicationStroop,2021.2.3,Win32,60.85686465,,,,,right,1,0.5669,0,16,16,10,1,6,8,6 | 8,2,1.4111,1.9756,congruent,right,,,,,,stimulusFile/physical.xlsx,,,,,,,,,,,,,,,,,,,,,,,,,,,,,,,
,,,,,,,,,,,,,,,802,2022-01-16_22h56.18.991,multiplicationStroop,2021.2.3,Win32,60.85686465,,,,,left,1,0.6261,0,17,17,53,1,4,4,4 | 4,0,1.9756,1.4111,neutral,left,,,,,,stimulusFile/physical.xlsx,,,,,,,,,,,,,,,,,,,,,,,,,,,,,,,
,,,,,,,,,,,,,,,802,2022-01-16_22h56.18.991,multiplicationStroop,2021.2.3,Win32,60.85686465,,,,,left,1,0.5709,0,18,18,13,1,4,2,4 | 2,2,1.9756,1.4111,congruent,left,,,,,,stimulusFile/physical.xlsx,,,,,,,,,,,,,,,,,,,,,,,,,,,,,,,
,,,,,,,,,,,,,,,802,2022-01-16_22h56.18.991,multiplicationStroop,2021.2.3,Win32,60.85686465,,,,,left,1,0.6009,0,19,19,26,1,6,7,6 | 7,1,1.9756,1.4111,incongruent,left,,,,,,stimulusFile/physical.xlsx,,,,,,,,,,,,,,,,,,,,,,,,,,,,,,,
,,,,,,,,,,,,,,,802,2022-01-16_22h56.18.991,multiplicationStroop,2021.2.3,Win32,60.85686465,,,,,right,1,0.556,0,20,20,2,1,6,7,6 | 7,1,1.4111,1.9756,congruent,right,,,,,,stimulusFile/physical.xlsx,,,,,,,,,,,,,,,,,,,,,,,,,,,,,,,
,,,,,,,,,,,,,,,802,2022-01-16_22h56.18.991,multiplicationStroop,2021.2.3,Win32,60.85686465,,,,,left,0,0.8094,0,21,21,66,1,3,3,3 | 3,0,1.9756,1.4111,neutral,right,,,,,,stimulusFile/physical.xlsx,,,,,,,,,,,,,,,,,,,,,,,,,,,,,,,
,,,,,,,,,,,,,,,802,2022-01-16_22h56.18.991,multiplicationStroop,2021.2.3,Win32,60.85686465,,,,,left,1,0.7498,0,22,22,50,1,6,6,6 | 6,0,1.9756,1.4111,neutral,left,,,,,,stimulusFile/physical.xlsx,,,,,,,,,,,,,,,,,,,,,,,,,,,,,,,
,,,,,,,,,,,,,,,802,2022-01-16_22h56.18.991,multiplicationStroop,2021.2.3,Win32,60.85686465,,,,,left,1,0.6063,0,23,23,68,1,6,6,6 | 6,0,1.9756,1.4111,neutral,left,,,,,,stimulusFile/physical.xlsx,,,,,,,,,,,,,,,,,,,,,,,,,,,,,,,
,,,,,,,,,,,,,,,802,2022-01-16_22h56.18.991,multiplicationStroop,2021.2.3,Win32,60.85686465,,,,,right,1,0.5701,0,24,24,18,1,3,8,3 | 8,5,1.4111,1.9756,congruent,right,,,,,,stimulusFile/physical.xlsx,,,,,,,,,,,,,,,,,,,,,,,,,,,,,,,
,,,,,,,,,,,,,,,802,2022-01-16_22h56.18.991,multiplicationStroop,2021.2.3,Win32,60.85686465,,,,,right,1,0.7893,0,25,25,29,1,4,3,4 | 3,1,1.4111,1.9756,incongruent,right,,,,,,stimulusFile/physical.xlsx,,,,,,,,,,,,,,,,,,,,,,,,,,,,,,,
,,,,,,,,,,,,,,,802,2022-01-16_22h56.18.991,multiplicationStroop,2021.2.3,Win32,60.85686465,,,,,right,0,0.8544,0,26,26,71,1,9,9,9 | 9,0,1.4111,1.9756,neutral,left,,,,,,stimulusFile/physical.xlsx,,,,,,,,,,,,,,,,,,,,,,,,,,,,,,,
,,,,,,,,,,,,,,,802,2022-01-16_22h56.18.991,multiplicationStroop,2021.2.3,Win32,60.85686465,,,,,right,1,0.6332,0,27,27,1,1,3,4,3 | 4,1,1.4111,1.9756,congruent,right,,,,,,stimulusFile/physical.xlsx,,,,,,,,,,,,,,,,,,,,,,,,,,,,,,,
,,,,,,,,,,,,,,,802,2022-01-16_22h56.18.991,multiplicationStroop,2021.2.3,Win32,60.85686465,,,,,right,1,0.967,0,28,28,67,1,4,4,4 | 4,0,1.4111,1.9756,neutral,right,,,,,,stimulusFile/physical.xlsx,,,,,,,,,,,,,,,,,,,,,,,,,,,,,,,
,,,,,,,,,,,,,,,802,2022-01-16_22h56.18.991,multiplicationStroop,2021.2.3,Win32,60.85686465,,,,,right,1,0.7031,0,29,29,44,1,6,1,6 | 1,5,1.4111,1.9756,incongruent,right,,,,,,stimulusFile/physical.xlsx,,,,,,,,,,,,,,,,,,,,,,,,,,,,,,,
,,,,,,,,,,,,,,,802,2022-01-16_22h56.18.991,multiplicationStroop,2021.2.3,Win32,60.85686465,,,,,left,1,0.6186,0,30,30,4,1,2,1,2 | 1,1,1.9756,1.4111,congruent,left,,,,,,stimulusFile/physical.xlsx,,,,,,,,,,,,,,,,,,,,,,,,,,,,,,,
,,,,,,,,,,,,,,,802,2022-01-16_22h56.18.991,multiplicationStroop,2021.2.3,Win32,60.85686465,,,,,right,1,0.7559,0,31,31,37,1,4,2,4 | 2,2,1.4111,1.9756,incongruent,right,,,,,,stimulusFile/physical.xlsx,,,,,,,,,,,,,,,,,,,,,,,,,,,,,,,
,,,,,,,,,,,,,,,802,2022-01-16_22h56.18.991,multiplicationStroop,2021.2.3,Win32,60.85686465,,,,,right,1,0.6606,0,32,32,31,1,9,8,9 | 8,1,1.4111,1.9756,incongruent,right,,,,,,stimulusFile/physical.xlsx,,,,,,,,,,,,,,,,,,,,,,,,,,,,,,,
,,,,,,,,,,,,,,,802,2022-01-16_22h56.18.991,multiplicationStroop,2021.2.3,Win32,60.85686465,,,,,left,1,0.5439,0,33,33,52,1,2,2,2 | 2,0,1.9756,1.4111,neutral,left,,,,,,stimulusFile/physical.xlsx,,,,,,,,,,,,,,,,,,,,,,,,,,,,,,,
,,,,,,,,,,,,,,,802,2022-01-16_22h56.18.991,multiplicationStroop,2021.2.3,Win32,60.85686465,,,,,right,1,0.5551,0,34,34,65,1,2,2,2 | 2,0,1.4111,1.9756,neutral,right,,,,,,stimulusFile/physical.xlsx,,,,,,,,,,,,,,,,,,,,,,,,,,,,,,,
,,,,,,,,,,,,,,,802,2022-01-16_22h56.18.991,multiplicationStroop,2021.2.3,Win32,60.85686465,,,,,right,1,0.6669,0,35,35,56,1,1,1,1 | 1,0,1.4111,1.9756,neutral,right,,,,,,stimulusFile/physical.xlsx,,,,,,,,,,,,,,,,,,,,,,,,,,,,,,,
,,,,,,,,,,,,,,,802,2022-01-16_22h56.18.991,multiplicationStroop,2021.2.3,Win32,60.85686465,,,,,left,1,0.7009,0,36,36,42,1,3,8,3 | 8,5,1.9756,1.4111,incongruent,left,,,,,,stimulusFile/physical.xlsx,,,,,,,,,,,,,,,,,,,,,,,,,,,,,,,
,,,,,,,,,,,,,,,802,2022-01-16_22h56.18.991,multiplicationStroop,2021.2.3,Win32,60.85686465,,,,,right,1,1.5735,0,37,37,39,1,9,7,9 | 7,2,1.4111,1.9756,incongruent,right,,,,,,stimulusFile/physical.xlsx,,,,,,,,,,,,,,,,,,,,,,,,,,,,,,,
,,,,,,,,,,,,,,,802,2022-01-16_22h56.18.991,multiplicationStroop,2021.2.3,Win32,60.85686465,,,,,left,1,1.1499,0,38,38,25,1,3,4,3 | 4,1,1.9756,1.4111,incongruent,left,,,,,,stimulusFile/physical.xlsx,,,,,,,,,,,,,,,,,,,,,,,,,,,,,,,
,,,,,,,,,,,,,,,802,2022-01-16_22h56.18.991,multiplicationStroop,2021.2.3,Win32,60.85686465,,,,,left,1,0.5854,0,39,39,54,1,7,7,7 | 7,0,1.9756,1.4111,neutral,left,,,,,,stimulusFile/physical.xlsx,,,,,,,,,,,,,,,,,,,,,,,,,,,,,,,
,,,,,,,,,,,,,,,802,2022-01-16_22h56.18.991,multiplicationStroop,2021.2.3,Win32,60.85686465,,,,,left,1,0.8847,0,40,40,32,1,1,3,1 | 3,2,1.9756,1.4111,incongruent,left,,,,,,stimulusFile/physical.xlsx,,,,,,,,,,,,,,,,,,,,,,,,,,,,,,,
,,,,,,,,,,,,,,,802,2022-01-16_22h56.18.991,multiplicationStroop,2021.2.3,Win32,60.85686465,,,,,right,1,0.5857,0,41,41,11,1,7,9,7 | 9,2,1.4111,1.9756,congruent,right,,,,,,stimulusFile/physical.xlsx,,,,,,,,,,,,,,,,,,,,,,,,,,,,,,,
,,,,,,,,,,,,,,,802,2022-01-16_22h56.18.991,multiplicationStroop,2021.2.3,Win32,60.85686465,,,,,left,1,0.7922,0,42,42,40,1,1,6,1 | 6,5,1.9756,1.4111,incongruent,left,,,,,,stimulusFile/physical.xlsx,,,,,,,,,,,,,,,,,,,,,,,,,,,,,,,
,,,,,,,,,,,,,,,802,2022-01-16_22h56.18.991,multiplicationStroop,2021.2.3,Win32,60.85686465,,,,,right,1,0.5838,0,43,43,59,1,7,7,7 | 7,0,1.4111,1.9756,neutral,right,,,,,,stimulusFile/physical.xlsx,,,,,,,,,,,,,,,,,,,,,,,,,,,,,,,
,,,,,,,,,,,,,,,802,2022-01-16_22h56.18.991,multiplicationStroop,2021.2.3,Win32,60.85686465,,,,,right,1,0.6345,0,44,44,63,1,9,9,9 | 9,0,1.4111,1.9756,neutral,right,,,,,,stimulusFile/physical.xlsx,,,,,,,,,,,,,,,,,,,,,,,,,,,,,,,
,,,,,,,,,,,,,,,802,2022-01-16_22h56.18.991,multiplicationStroop,2021.2.3,Win32,60.85686465,,,,,right,1,0.6412,0,45,45,38,1,8,6,8 | 6,2,1.4111,1.9756,incongruent,right,,,,,,stimulusFile/physical.xlsx,,,,,,,,,,,,,,,,,,,,,,,,,,,,,,,
,,,,,,,,,,,,,,,802,2022-01-16_22h56.18.991,multiplicationStroop,2021.2.3,Win32,60.85686465,,,,,left,1,0.6709,0,46,46,49,1,3,3,3 | 3,0,1.9756,1.4111,neutral,left,,,,,,stimulusFile/physical.xlsx,,,,,,,,,,,,,,,,,,,,,,,,,,,,,,,
,,,,,,,,,,,,,,,802,2022-01-16_22h56.18.991,multiplicationStroop,2021.2.3,Win32,60.85686465,,,,,right,1,0.6527,0,47,47,9,1,2,4,2 | 4,2,1.4111,1.9756,congruent,right,,,,,,stimulusFile/physical.xlsx,,,,,,,,,,,,,,,,,,,,,,,,,,,,,,,
,,,,,,,,,,,,,,,802,2022-01-16_22h56.18.991,multiplicationStroop,2021.2.3,Win32,60.85686465,,,,,left,1,0.6412,0,48,48,20,1,6,1,6 | 1,5,1.9756,1.4111,congruent,left,,,,,,stimulusFile/physical.xlsx,,,,,,,,,,,,,,,,,,,,,,,,,,,,,,,
,,,,,,,,,,,,,,,802,2022-01-16_22h56.18.991,multiplicationStroop,2021.2.3,Win32,60.85686465,,,,,left,1,0.7771,0,49,49,22,1,8,3,8 | 3,5,1.9756,1.4111,congruent,left,,,,,,stimulusFile/physical.xlsx,,,,,,,,,,,,,,,,,,,,,,,,,,,,,,,
,,,,,,,,,,,,,,,802,2022-01-16_22h56.18.991,multiplicationStroop,2021.2.3,Win32,60.85686465,,,,,left,1,1.0845,0,50,50,41,1,2,7,2 | 7,5,1.9756,1.4111,incongruent,left,,,,,,stimulusFile/physical.xlsx,,,,,,,,,,,,,,,,,,,,,,,,,,,,,,,
,,,,,,,,,,,,,,,802,2022-01-16_22h56.18.991,multiplicationStroop,2021.2.3,Win32,60.85686465,,,,,right,1,0.5246,0,51,51,0,1,1,2,1 | 2,1,1.4111,1.9756,congruent,right,,,,,,stimulusFile/physical.xlsx,,,,,,,,,,,,,,,,,,,,,,,,,,,,,,,
,,,,,,,,,,,,,,,802,2022-01-16_22h56.18.991,multiplicationStroop,2021.2.3,Win32,60.85686465,,,,,right,1,0.8092,0,52,52,36,1,3,1,3 | 1,2,1.4111,1.9756,incongruent,right,,,,,,stimulusFile/physical.xlsx,,,,,,,,,,,,,,,,,,,,,,,,,,,,,,,
,,,,,,,,,,,,,,,802,2022-01-16_22h56.18.991,multiplicationStroop,2021.2.3,Win32,60.85686465,,,,,left,0,0.5032,0,53,53,64,1,1,1,1 | 1,0,1.9756,1.4111,neutral,right,,,,,,stimulusFile/physical.xlsx,,,,,,,,,,,,,,,,,,,,,,,,,,,,,,,
,,,,,,,,,,,,,,,802,2022-01-16_22h56.18.991,multiplicationStroop,2021.2.3,Win32,60.85686465,,,,,left,1,0.6508,0,54,54,27,1,8,9,8 | 9,1,1.9756,1.4111,incongruent,left,,,,,,stimulusFile/physical.xlsx,,,,,,,,,,,,,,,,,,,,,,,,,,,,,,,
,,,,,,,,,,,,,,,802,2022-01-16_22h56.18.991,multiplicationStroop,2021.2.3,Win32,60.85686465,,,,,left,1,0.7013,0,55,55,43,1,4,9,4 | 9,5,1.9756,1.4111,incongruent,left,,,,,,stimulusFile/physical.xlsx,,,,,,,,,,,,,,,,,,,,,,,,,,,,,,,
,,,,,,,,,,,,,,,802,2022-01-16_22h56.18.991,multiplicationStroop,2021.2.3,Win32,60.85686465,,,,,left,1,0.6111,0,56,56,14,1,8,6,8 | 6,2,1.9756,1.4111,congruent,left,,,,,,stimulusFile/physical.xlsx,,,,,,,,,,,,,,,,,,,,,,,,,,,,,,,
,,,,,,,,,,,,,,,802,2022-01-16_22h56.18.991,multiplicationStroop,2021.2.3,Win32,60.85686465,,,,,right,1,0.7322,0,57,57,45,1,7,2,7 | 2,5,1.4111,1.9756,incongruent,right,,,,,,stimulusFile/physical.xlsx,,,,,,,,,,,,,,,,,,,,,,,,,,,,,,,
,,,,,,,,,,,,,,,802,2022-01-16_22h56.18.991,multiplicationStroop,2021.2.3,Win32,60.85686465,,,,,left,1,0.4538,0,58,58,24,1,1,2,1 | 2,1,1.9756,1.4111,incongruent,left,,,,,,stimulusFile/physical.xlsx,,,,,,,,,,,,,,,,,,,,,,,,,,,,,,,
,,,,,,,,,,,,,,,802,2022-01-16_22h56.18.991,multiplicationStroop,2021.2.3,Win32,60.85686465,,,,,left,1,0.6298,0,59,59,7,1,9,8,9 | 8,1,1.9756,1.4111,congruent,left,,,,,,stimulusFile/physical.xlsx,,,,,,,,,,,,,,,,,,,,,,,,,,,,,,,
,,,,,,,,,,,,,,,802,2022-01-16_22h56.18.991,multiplicationStroop,2021.2.3,Win32,60.85686465,,,,,left,1,0.6169,0,60,60,48,1,1,1,1 | 1,0,1.9756,1.4111,neutral,left,,,,,,stimulusFile/physical.xlsx,,,,,,,,,,,,,,,,,,,,,,,,,,,,,,,
,,,,,,,,,,,,,,,802,2022-01-16_22h56.18.991,multiplicationStroop,2021.2.3,Win32,60.85686465,,,,,right,1,0.8457,0,61,61,46,1,8,3,8 | 3,5,1.4111,1.9756,incongruent,right,,,,,,stimulusFile/physical.xlsx,,,,,,,,,,,,,,,,,,,,,,,,,,,,,,,
,,,,,,,,,,,,,,,802,2022-01-16_22h56.18.991,multiplicationStroop,2021.2.3,Win32,60.85686465,,,,,left,1,0.546,0,62,62,34,1,6,8,6 | 8,2,1.9756,1.4111,incongruent,left,,,,,,stimulusFile/physical.xlsx,,,,,,,,,,,,,,,,,,,,,,,,,,,,,,,
,,,,,,,,,,,,,,,802,2022-01-16_22h56.18.991,multiplicationStroop,2021.2.3,Win32,60.85686465,,,,,left,1,0.6616,0,63,63,6,1,7,6,7 | 6,1,1.9756,1.4111,congruent,left,,,,,,stimulusFile/physical.xlsx,,,,,,,,,,,,,,,,,,,,,,,,,,,,,,,
,,,,,,,,,,,,,,,802,2022-01-16_22h56.18.991,multiplicationStroop,2021.2.3,Win32,60.85686465,,,,,right,1,0.649,0,64,64,3,1,8,9,8 | 9,1,1.4111,1.9756,congruent,right,,,,,,stimulusFile/physical.xlsx,,,,,,,,,,,,,,,,,,,,,,,,,,,,,,,
,,,,,,,,,,,,,,,802,2022-01-16_22h56.18.991,multiplicationStroop,2021.2.3,Win32,60.85686465,,,,,right,1,0.6104,0,65,65,58,1,6,6,6 | 6,0,1.4111,1.9756,neutral,right,,,,,,stimulusFile/physical.xlsx,,,,,,,,,,,,,,,,,,,,,,,,,,,,,,,
,,,,,,,,,,,,,,,802,2022-01-16_22h56.18.991,multiplicationStroop,2021.2.3,Win32,60.85686465,,,,,right,1,0.78,0,66,66,61,1,4,4,4 | 4,0,1.4111,1.9756,neutral,right,,,,,,stimulusFile/physical.xlsx,,,,,,,,,,,,,,,,,,,,,,,,,,,,,,,
,,,,,,,,,,,,,,,802,2022-01-16_22h56.18.991,multiplicationStroop,2021.2.3,Win32,60.85686465,,,,,right,1,0.7507,0,67,67,17,1,2,7,2 | 7,5,1.4111,1.9756,congruent,right,,,,,,stimulusFile/physical.xlsx,,,,,,,,,,,,,,,,,,,,,,,,,,,,,,,
,,,,,,,,,,,,,,,802,2022-01-16_22h56.18.991,multiplicationStroop,2021.2.3,Win32,60.85686465,,,,,left,1,0.5959,0,68,68,70,1,8,8,8 | 8,0,1.9756,1.4111,neutral,left,,,,,,stimulusFile/physical.xlsx,,,,,,,,,,,,,,,,,,,,,,,,,,,,,,,
,,,,,,,,,,,,,,,802,2022-01-16_22h56.18.991,multiplicationStroop,2021.2.3,Win32,60.85686465,,,,,left,1,0.6459,0,69,69,12,1,3,1,3 | 1,2,1.9756,1.4111,congruent,left,,,,,,stimulusFile/physical.xlsx,,,,,,,,,,,,,,,,,,,,,,,,,,,,,,,
,,,,,,,,,,,,,,,802,2022-01-16_22h56.18.991,multiplicationStroop,2021.2.3,Win32,60.85686465,,,,,right,1,0.6169,0,70,70,28,1,2,1,2 | 1,1,1.4111,1.9756,incongruent,right,,,,,,stimulusFile/physical.xlsx,,,,,,,,,,,,,,,,,,,,,,,,,,,,,,,
,,,,,,,,,,,,,,,802,2022-01-16_22h56.18.991,multiplicationStroop,2021.2.3,Win32,60.85686465,,,,,left,1,0.5121,0,71,71,55,1,9,9,9 | 9,0,1.9756,1.4111,neutral,left,,,,,,stimulusFile/physical.xlsx,,,,,,,,,,,,,,,,,,,,,,,,,,,,,,,
,,,,,,,,,,,,,,,802,2022-01-16_22h56.18.991,multiplicationStroop,2021.2.3,Win32,60.85686465,,,,,,,,,,,,,,,,,,,,,0,0,0,1,1,stimulusFile/physical.xlsx,PHYSICALLY larger (larger font size).,images/physicallyLarger.png,,,,,,,,,,,,,,,,,,,,,,,,,,,,,
,,,,,,,,,,,,,,,802,2022-01-16_22h56.18.991,multiplicationStroop,2021.2.3,Win32,60.85686465,space,57.0512,space,18.4645,right,0,1.0884,0,0,0,31,1,9,8,9 | 8,1,1.4111,1.9756,incongruent,left,,,,,,stimulusFile/magnitude.xlsx,,,,,,,,,,,,,,,,,,,,,,,,,,,,,,,
,,,,,,,,,,,,,,,802,2022-01-16_22h56.18.991,multiplicationStroop,2021.2.3,Win32,60.85686465,,,,,left,1,0.9103,0,1,1,69,1,7,2,7 | 2,5,1.6933,1.6933,neutral,left,,,,,,stimulusFile/magnitude.xlsx,,,,,,,,,,,,,,,,,,,,,,,,,,,,,,,
,,,,,,,,,,,,,,,802,2022-01-16_22h56.18.991,multiplicationStroop,2021.2.3,Win32,60.85686465,,,,,left,1,1.4141,0,2,2,55,1,9,8,9 | 8,1,1.6933,1.6933,neutral,left,,,,,,stimulusFile/magnitude.xlsx,,,,,,,,,,,,,,,,,,,,,,,,,,,,,,,
,,,,,,,,,,,,,,,802,2022-01-16_22h56.18.991,multiplicationStroop,2021.2.3,Win32,60.85686465,,,,,right,1,0.7495,0,3,3,41,1,2,7,2 | 7,5,1.9756,1.4111,incongruent,right,,,,,,stimulusFile/magnitude.xlsx,,,,,,,,,,,,,,,,,,,,,,,,,,,,,,,
,,,,,,,,,,,,,,,802,2022-01-16_22h56.18.991,multiplicationStroop,2021.2.3,Win32,60.85686465,,,,,left,0,0.8836,0,4,4,11,1,7,9,7 | 9,2,1.4111,1.9756,congruent,right,,,,,,stimulusFile/magnitude.xlsx,,,,,,,,,,,,,,,,,,,,,,,,,,,,,,,
,,,,,,,,,,,,,,,802,2022-01-16_22h56.18.991,multiplicationStroop,2021.2.3,Win32,60.85686465,,,,,left,1,1.6415,0,5,5,6,1,7,6,7 | 6,1,1.9756,1.4111,congruent,left,,,,,,stimulusFile/magnitude.xlsx,,,,,,,,,,,,,,,,,,,,,,,,,,,,,,,
,,,,,,,,,,,,,,,802,2022-01-16_22h56.18.991,multiplicationStroop,2021.2.3,Win32,60.85686465,,,,,left,1,1.0777,0,6,6,28,1,2,1,2 | 1,1,1.4111,1.9756,incongruent,left,,,,,,stimulusFile/magnitude.xlsx,,,,,,,,,,,,,,,,,,,,,,,,,,,,,,,
,,,,,,,,,,,,,,,802,2022-01-16_22h56.18.991,multiplicationStroop,2021.2.3,Win32,60.85686465,,,,,right,1,0.8262,0,7,7,10,1,6,8,6 | 8,2,1.4111,1.9756,congruent,right,,,,,,stimulusFile/magnitude.xlsx,,,,,,,,,,,,,,,,,,,,,,,,,,,,,,,
,,,,,,,,,,,,,,,802,2022-01-16_22h56.18.991,multiplicationStroop,2021.2.3,Win32,60.85686465,,,,,right,1,1.0086,0,8,8,51,1,8,9,8 | 9,1,1.6933,1.6933,neutral,right,,,,,,stimulusFile/magnitude.xlsx,,,,,,,,,,,,,,,,,,,,,,,,,,,,,,,
,,,,,,,,,,,,,,,802,2022-01-16_22h56.18.991,multiplicationStroop,2021.2.3,Win32,60.85686465,,,,,right,1,1.5828,0,9,9,40,1,1,6,1 | 6,5,1.9756,1.4111,incongruent,right,,,,,,stimulusFile/magnitude.xlsx,,,,,,,,,,,,,,,,,,,,,,,,,,,,,,,
,,,,,,,,,,,,,,,802,2022-01-16_22h56.18.991,multiplicationStroop,2021.2.3,Win32,60.85686465,,,,,right,1,0.8582,0,10,10,57,1,2,4,2 | 4,2,1.6933,1.6933,neutral,right,,,,,,stimulusFile/magnitude.xlsx,,,,,,,,,,,,,,,,,,,,,,,,,,,,,,,
,,,,,,,,,,,,,,,802,2022-01-16_22h56.18.991,multiplicationStroop,2021.2.3,Win32,60.85686465,,,,,left,1,0.7358,0,11,11,70,1,8,3,8 | 3,5,1.6933,1.6933,neutral,left,,,,,,stimulusFile/magnitude.xlsx,,,,,,,,,,,,,,,,,,,,,,,,,,,,,,,
,,,,,,,,,,,,,,,802,2022-01-16_22h56.18.991,multiplicationStroop,2021.2.3,Win32,60.85686465,,,,,right,1,1.0579,0,12,12,26,1,6,7,6 | 7,1,1.9756,1.4111,incongruent,right,,,,,,stimulusFile/magnitude.xlsx,,,,,,,,,,,,,,,,,,,,,,,,,,,,,,,
,,,,,,,,,,,,,,,802,2022-01-16_22h56.18.991,multiplicationStroop,2021.2.3,Win32,60.85686465,,,,,right,1,1.0173,0,13,13,48,1,1,2,1 | 2,1,1.6933,1.6933,neutral,right,,,,,,stimulusFile/magnitude.xlsx,,,,,,,,,,,,,,,,,,,,,,,,,,,,,,,
,,,,,,,,,,,,,,,802,2022-01-16_22h56.18.991,multiplicationStroop,2021.2.3,Win32,60.85686465,,,,,right,1,0.9165,0,14,14,67,1,4,9,4 | 9,5,1.6933,1.6933,neutral,right,,,,,,stimulusFile/magnitude.xlsx,,,,,,,,,,,,,,,,,,,,,,,,,,,,,,,
,,,,,,,,,,,,,,,802,2022-01-16_22h56.18.991,multiplicationStroop,2021.2.3,Win32,60.85686465,,,,,right,1,0.6835,0,15,15,0,1,1,2,1 | 2,1,1.4111,1.9756,congruent,right,,,,,,stimulusFile/magnitude.xlsx,,,,,,,,,,,,,,,,,,,,,,,,,,,,,,,
,,,,,,,,,,,,,,,802,2022-01-16_22h56.18.991,multiplicationStroop,2021.2.3,Win32,60.85686465,,,,,right,1,0.5028,0,16,16,16,1,1,6,1 | 6,5,1.4111,1.9756,congruent,right,,,,,,stimulusFile/magnitude.xlsx,,,,,,,,,,,,,,,,,,,,,,,,,,,,,,,
,,,,,,,,,,,,,,,802,2022-01-16_22h56.18.991,multiplicationStroop,2021.2.3,Win32,60.85686465,,,,,right,1,1.3535,0,17,17,50,1,6,7,6 | 7,1,1.6933,1.6933,neutral,right,,,,,,stimulusFile/magnitude.xlsx,,,,,,,,,,,,,,,,,,,,,,,,,,,,,,,
,,,,,,,,,,,,,,,802,2022-01-16_22h56.18.991,multiplicationStroop,2021.2.3,Win32,60.85686465,,,,,left,1,0.9343,0,18,18,30,1,7,6,7 | 6,1,1.4111,1.9756,incongruent,left,,,,,,stimulusFile/magnitude.xlsx,,,,,,,,,,,,,,,,,,,,,,,,,,,,,,,
,,,,,,,,,,,,,,,802,2022-01-16_22h56.18.991,multiplicationStroop,2021.2.3,Win32,60.85686465,,,,,left,1,1.3015,0,19,19,29,1,4,3,4 | 3,1,1.4111,1.9756,incongruent,left,,,,,,stimulusFile/magnitude.xlsx,,,,,,,,,,,,,,,,,,,,,,,,,,,,,,,
,,,,,,,,,,,,,,,802,2022-01-16_22h56.18.991,multiplicationStroop,2021.2.3,Win32,60.85686465,,,,,left,1,1.2973,0,20,20,63,1,9,7,9 | 7,2,1.6933,1.6933,neutral,left,,,,,,stimulusFile/magnitude.xlsx,,,,,,,,,,,,,,,,,,,,,,,,,,,,,,,
,,,,,,,,,,,,,,,802,2022-01-16_22h56.18.991,multiplicationStroop,2021.2.3,Win32,60.85686465,,,,,right,1,1.3665,0,21,21,33,1,2,4,2 | 4,2,1.9756,1.4111,incongruent,right,,,,,,stimulusFile/magnitude.xlsx,,,,,,,,,,,,,,,,,,,,,,,,,,,,,,,
,,,,,,,,,,,,,,,802,2022-01-16_22h56.18.991,multiplicationStroop,2021.2.3,Win32,60.85686465,,,,,left,1,0.7026,0,22,22,15,1,9,7,9 | 7,2,1.9756,1.4111,congruent,left,,,,,,stimulusFile/magnitude.xlsx,,,,,,,,,,,,,,,,,,,,,,,,,,,,,,,
,,,,,,,,,,,,,,,802,2022-01-16_22h56.18.991,multiplicationStroop,2021.2.3,Win32,60.85686465,,,,,right,1,0.8343,0,23,23,34,1,6,8,6 | 8,2,1.9756,1.4111,incongruent,right,,,,,,stimulusFile/magnitude.xlsx,,,,,,,,,,,,,,,,,,,,,,,,,,,,,,,
,,,,,,,,,,,,,,,802,2022-01-16_22h56.18.991,multiplicationStroop,2021.2.3,Win32,60.85686465,,,,,right,1,0.9833,0,24,24,25,1,3,4,3 | 4,1,1.9756,1.4111,incongruent,right,,,,,,stimulusFile/magnitude.xlsx,,,,,,,,,,,,,,,,,,,,,,,,,,,,,,,
,,,,,,,,,,,,,,,802,2022-01-16_22h56.18.991,multiplicationStroop,2021.2.3,Win32,60.85686465,,,,,left,1,0.6532,0,25,25,4,1,2,1,2 | 1,1,1.9756,1.4111,congruent,left,,,,,,stimulusFile/magnitude.xlsx,,,,,,,,,,,,,,,,,,,,,,,,,,,,,,,
,,,,,,,,,,,,,,,802,2022-01-16_22h56.18.991,multiplicationStroop,2021.2.3,Win32,60.85686465,,,,,left,1,0.7021,0,26,26,61,1,4,2,4 | 2,2,1.6933,1.6933,neutral,left,,,,,,stimulusFile/magnitude.xlsx,,,,,,,,,,,,,,,,,,,,,,,,,,,,,,,
,,,,,,,,,,,,,,,802,2022-01-16_22h56.18.991,multiplicationStroop,2021.2.3,Win32,60.85686465,,,,,left,1,0.5448,0,27,27,5,1,4,3,4 | 3,1,1.9756,1.4111,congruent,left,,,,,,stimulusFile/magnitude.xlsx,,,,,,,,,,,,,,,,,,,,,,,,,,,,,,,
,,,,,,,,,,,,,,,802,2022-01-16_22h56.18.991,multiplicationStroop,2021.2.3,Win32,60.85686465,,,,,right,1,0.5891,0,28,28,2,1,6,7,6 | 7,1,1.4111,1.9756,congruent,right,,,,,,stimulusFile/magnitude.xlsx,,,,,,,,,,,,,,,,,,,,,,,,,,,,,,,
,,,,,,,,,,,,,,,802,2022-01-16_22h56.18.991,multiplicationStroop,2021.2.3,Win32,60.85686465,,,,,left,1,0.7504,0,29,29,53,1,4,3,4 | 3,1,1.6933,1.6933,neutral,left,,,,,,stimulusFile/magnitude.xlsx,,,,,,,,,,,,,,,,,,,,,,,,,,,,,,,
,,,,,,,,,,,,,,,802,2022-01-16_22h56.18.991,multiplicationStroop,2021.2.3,Win32,60.85686465,,,,,right,1,0.5432,0,30,30,8,1,1,3,1 | 3,2,1.4111,1.9756,congruent,right,,,,,,stimulusFile/magnitude.xlsx,,,,,,,,,,,,,,,,,,,,,,,,,,,,,,,
,,,,,,,,,,,,,,,802,2022-01-16_22h56.18.991,multiplicationStroop,2021.2.3,Win32,60.85686465,,,,,left,1,0.8722,0,31,31,39,1,9,7,9 | 7,2,1.4111,1.9756,incongruent,left,,,,,,stimulusFile/magnitude.xlsx,,,,,,,,,,,,,,,,,,,,,,,,,,,,,,,
,,,,,,,,,,,,,,,802,2022-01-16_22h56.18.991,multiplicationStroop,2021.2.3,Win32,60.85686465,,,,,left,1,0.8831,0,32,32,62,1,8,6,8 | 6,2,1.6933,1.6933,neutral,left,,,,,,stimulusFile/magnitude.xlsx,,,,,,,,,,,,,,,,,,,,,,,,,,,,,,,
,,,,,,,,,,,,,,,802,2022-01-16_22h56.18.991,multiplicationStroop,2021.2.3,Win32,60.85686465,,,,,right,1,0.5863,0,33,33,64,1,1,6,1 | 6,5,1.6933,1.6933,neutral,right,,,,,,stimulusFile/magnitude.xlsx,,,,,,,,,,,,,,,,,,,,,,,,,,,,,,,
,,,,,,,,,,,,,,,802,2022-01-16_22h56.18.991,multiplicationStroop,2021.2.3,Win32,60.85686465,,,,,right,1,0.7017,0,34,34,3,1,8,9,8 | 9,1,1.4111,1.9756,congruent,right,,,,,,stimulusFile/magnitude.xlsx,,,,,,,,,,,,,,,,,,,,,,,,,,,,,,,
,,,,,,,,,,,,,,,802,2022-01-16_22h56.18.991,multiplicationStroop,2021.2.3,Win32,60.85686465,,,,,left,1,0.7686,0,35,35,46,1,8,3,8 | 3,5,1.4111,1.9756,incongruent,left,,,,,,stimulusFile/magnitude.xlsx,,,,,,,,,,,,,,,,,,,,,,,,,,,,,,,
,,,,,,,,,,,,,,,802,2022-01-16_22h56.18.991,multiplicationStroop,2021.2.3,Win32,60.85686465,,,,,left,1,0.6525,0,36,36,20,1,6,1,6 | 1,5,1.9756,1.4111,congruent,left,,,,,,stimulusFile/magnitude.xlsx,,,,,,,,,,,,,,,,,,,,,,,,,,,,,,,
,,,,,,,,,,,,,,,802,2022-01-16_22h56.18.991,multiplicationStroop,2021.2.3,Win32,60.85686465,,,,,left,1,0.6405,0,37,37,52,1,2,1,2 | 1,1,1.6933,1.6933,neutral,left,,,,,,stimulusFile/magnitude.xlsx,,,,,,,,,,,,,,,,,,,,,,,,,,,,,,,
,,,,,,,,,,,,,,,802,2022-01-16_22h56.18.991,multiplicationStroop,2021.2.3,Win32,60.85686465,,,,,left,1,0.7091,0,38,38,7,1,9,8,9 | 8,1,1.9756,1.4111,congruent,left,,,,,,stimulusFile/magnitude.xlsx,,,,,,,,,,,,,,,,,,,,,,,,,,,,,,,
,,,,,,,,,,,,,,,802,2022-01-16_22h56.18.991,multiplicationStroop,2021.2.3,Win32,60.85686465,,,,,left,1,0.7448,0,39,39,22,1,8,3,8 | 3,5,1.9756,1.4111,congruent,left,,,,,,stimulusFile/magnitude.xlsx,,,,,,,,,,,,,,,,,,,,,,,,,,,,,,,
,,,,,,,,,,,,,,,802,2022-01-16_22h56.18.991,multiplicationStroop,2021.2.3,Win32,60.85686465,,,,,right,1,0.6474,0,40,40,66,1,3,8,3 | 8,5,1.6933,1.6933,neutral,right,,,,,,stimulusFile/magnitude.xlsx,,,,,,,,,,,,,,,,,,,,,,,,,,,,,,,
,,,,,,,,,,,,,,,802,2022-01-16_22h56.18.991,multiplicationStroop,2021.2.3,Win32,60.85686465,,,,,left,1,0.7623,0,41,41,60,1,3,1,3 | 1,2,1.6933,1.6933,neutral,left,,,,,,stimulusFile/magnitude.xlsx,,,,,,,,,,,,,,,,,,,,,,,,,,,,,,,
,,,,,,,,,,,,,,,802,2022-01-16_22h56.18.991,multiplicationStroop,2021.2.3,Win32,60.85686465,,,,,right,1,0.5495,0,42,42,49,1,3,4,3 | 4,1,1.6933,1.6933,neutral,right,,,,,,stimulusFile/magnitude.xlsx,,,,,,,,,,,,,,,,,,,,,,,,,,,,,,,
,,,,,,,,,,,,,,,802,2022-01-16_22h56.18.991,multiplicationStroop,2021.2.3,Win32,60.85686465,,,,,left,1,0.6357,0,43,43,37,1,4,2,4 | 2,2,1.4111,1.9756,incongruent,left,,,,,,stimulusFile/magnitude.xlsx,,,,,,,,,,,,,,,,,,,,,,,,,,,,,,,
,,,,,,,,,,,,,,,802,2022-01-16_22h56.18.991,multiplicationStroop,2021.2.3,Win32,60.85686465,,,,,left,1,0.5703,0,44,44,21,1,7,2,7 | 2,5,1.9756,1.4111,congruent,left,,,,,,stimulusFile/magnitude.xlsx,,,,,,,,,,,,,,,,,,,,,,,,,,,,,,,
,,,,,,,,,,,,,,,802,2022-01-16_22h56.18.991,multiplicationStroop,2021.2.3,Win32,60.85686465,,,,,right,1,0.5803,0,45,45,17,1,2,7,2 | 7,5,1.4111,1.9756,congruent,right,,,,,,stimulusFile/magnitude.xlsx,,,,,,,,,,,,,,,,,,,,,,,,,,,,,,,
,,,,,,,,,,,,,,,802,2022-01-16_22h56.18.991,multiplicationStroop,2021.2.3,Win32,60.85686465,,,,,right,1,0.5979,0,46,46,65,1,2,7,2 | 7,5,1.6933,1.6933,neutral,right,,,,,,stimulusFile/magnitude.xlsx,,,,,,,,,,,,,,,,,,,,,,,,,,,,,,,
,,,,,,,,,,,,,,,802,2022-01-16_22h56.18.991,multiplicationStroop,2021.2.3,Win32,60.85686465,,,,,left,1,0.8608,0,47,47,44,1,6,1,6 | 1,5,1.4111,1.9756,incongruent,left,,,,,,stimulusFile/magnitude.xlsx,,,,,,,,,,,,,,,,,,,,,,,,,,,,,,,
,,,,,,,,,,,,,,,802,2022-01-16_22h56.18.991,multiplicationStroop,2021.2.3,Win32,60.85686465,,,,,right,1,0.7275,0,48,48,59,1,7,9,7 | 9,2,1.6933,1.6933,neutral,right,,,,,,stimulusFile/magnitude.xlsx,,,,,,,,,,,,,,,,,,,,,,,,,,,,,,,
,,,,,,,,,,,,,,,802,2022-01-16_22h56.18.991,multiplicationStroop,2021.2.3,Win32,60.85686465,,,,,left,1,0.5502,0,49,49,13,1,4,2,4 | 2,2,1.9756,1.4111,congruent,left,,,,,,stimulusFile/magnitude.xlsx,,,,,,,,,,,,,,,,,,,,,,,,,,,,,,,
,,,,,,,,,,,,,,,802,2022-01-16_22h56.18.991,multiplicationStroop,2021.2.3,Win32,60.85686465,,,,,right,1,0.508,0,50,50,56,1,1,3,1 | 3,2,1.6933,1.6933,neutral,right,,,,,,stimulusFile/magnitude.xlsx,,,,,,,,,,,,,,,,,,,,,,,,,,,,,,,
,,,,,,,,,,,,,,,802,2022-01-16_22h56.18.991,multiplicationStroop,2021.2.3,Win32,60.85686465,,,,,right,1,0.7927,0,51,51,27,1,8,9,8 | 9,1,1.9756,1.4111,incongruent,right,,,,,,stimulusFile/magnitude.xlsx,,,,,,,,,,,,,,,,,,,,,,,,,,,,,,,
,,,,,,,,,,,,,,,802,2022-01-16_22h56.18.991,multiplicationStroop,2021.2.3,Win32,60.85686465,,,,,left,1,0.8289,0,52,52,38,1,8,6,8 | 6,2,1.4111,1.9756,incongruent,left,,,,,,stimulusFile/magnitude.xlsx,,,,,,,,,,,,,,,,,,,,,,,,,,,,,,,
,,,,,,,,,,,,,,,802,2022-01-16_22h56.18.991,multiplicationStroop,2021.2.3,Win32,60.85686465,,,,,left,1,0.6435,0,53,53,47,1,9,4,9 | 4,5,1.4111,1.9756,incongruent,left,,,,,,stimulusFile/magnitude.xlsx,,,,,,,,,,,,,,,,,,,,,,,,,,,,,,,
,,,,,,,,,,,,,,,802,2022-01-16_22h56.18.991,multiplicationStroop,2021.2.3,Win32,60.85686465,,,,,left,1,0.4849,0,54,54,71,1,9,4,9 | 4,5,1.6933,1.6933,neutral,left,,,,,,stimulusFile/magnitude.xlsx,,,,,,,,,,,,,,,,,,,,,,,,,,,,,,,
,,,,,,,,,,,,,,,802,2022-01-16_22h56.18.991,multiplicationStroop,2021.2.3,Win32,60.85686465,,,,,left,1,0.6844,0,55,55,36,1,3,1,3 | 1,2,1.4111,1.9756,incongruent,left,,,,,,stimulusFile/magnitude.xlsx,,,,,,,,,,,,,,,,,,,,,,,,,,,,,,,
,,,,,,,,,,,,,,,802,2022-01-16_22h56.18.991,multiplicationStroop,2021.2.3,Win32,60.85686465,,,,,right,0,0.7049,0,56,56,54,1,7,6,7 | 6,1,1.6933,1.6933,neutral,left,,,,,,stimulusFile/magnitude.xlsx,,,,,,,,,,,,,,,,,,,,,,,,,,,,,,,
,,,,,,,,,,,,,,,802,2022-01-16_22h56.18.991,multiplicationStroop,2021.2.3,Win32,60.85686465,,,,,right,1,1.4218,0,57,57,32,1,1,3,1 | 3,2,1.9756,1.4111,incongruent,right,,,,,,stimulusFile/magnitude.xlsx,,,,,,,,,,,,,,,,,,,,,,,,,,,,,,,
,,,,,,,,,,,,,,,802,2022-01-16_22h56.18.991,multiplicationStroop,2021.2.3,Win32,60.85686465,,,,,left,1,0.9264,0,58,58,14,1,8,6,8 | 6,2,1.9756,1.4111,congruent,left,,,,,,stimulusFile/magnitude.xlsx,,,,,,,,,,,,,,,,,,,,,,,,,,,,,,,
,,,,,,,,,,,,,,,802,2022-01-16_22h56.18.991,multiplicationStroop,2021.2.3,Win32,60.85686465,,,,,right,1,0.7673,0,59,59,18,1,3,8,3 | 8,5,1.4111,1.9756,congruent,right,,,,,,stimulusFile/magnitude.xlsx,,,,,,,,,,,,,,,,,,,,,,,,,,,,,,,
,,,,,,,,,,,,,,,802,2022-01-16_22h56.18.991,multiplicationStroop,2021.2.3,Win32,60.85686465,,,,,right,1,0.9884,0,60,60,58,1,6,8,6 | 8,2,1.6933,1.6933,neutral,right,,,,,,stimulusFile/magnitude.xlsx,,,,,,,,,,,,,,,,,,,,,,,,,,,,,,,
,,,,,,,,,,,,,,,802,2022-01-16_22h56.18.991,multiplicationStroop,2021.2.3,Win32,60.85686465,,,,,right,1,1.7586,0,61,61,9,1,2,4,2 | 4,2,1.4111,1.9756,congruent,right,,,,,,stimulusFile/magnitude.xlsx,,,,,,,,,,,,,,,,,,,,,,,,,,,,,,,
,,,,,,,,,,,,,,,802,2022-01-16_22h56.18.991,multiplicationStroop,2021.2.3,Win32,60.85686465,,,,,right,1,0.8842,0,62,62,24,1,1,2,1 | 2,1,1.9756,1.4111,incongruent,right,,,,,,stimulusFile/magnitude.xlsx,,,,,,,,,,,,,,,,,,,,,,,,,,,,,,,
,,,,,,,,,,,,,,,802,2022-01-16_22h56.18.991,multiplicationStroop,2021.2.3,Win32,60.85686465,,,,,left,1,0.5669,0,63,63,23,1,9,4,9 | 4,5,1.9756,1.4111,congruent,left,,,,,,stimulusFile/magnitude.xlsx,,,,,,,,,,,,,,,,,,,,,,,,,,,,,,,
,,,,,,,,,,,,,,,802,2022-01-16_22h56.18.991,multiplicationStroop,2021.2.3,Win32,60.85686465,,,,,right,1,0.6704,0,64,64,42,1,3,8,3 | 8,5,1.9756,1.4111,incongruent,right,,,,,,stimulusFile/magnitude.xlsx,,,,,,,,,,,,,,,,,,,,,,,,,,,,,,,
,,,,,,,,,,,,,,,802,2022-01-16_22h56.18.991,multiplicationStroop,2021.2.3,Win32,60.85686465,,,,,right,1,0.7819,0,65,65,1,1,3,4,3 | 4,1,1.4111,1.9756,congruent,right,,,,,,stimulusFile/magnitude.xlsx,,,,,,,,,,,,,,,,,,,,,,,,,,,,,,,
,,,,,,,,,,,,,,,802,2022-01-16_22h56.18.991,multiplicationStroop,2021.2.3,Win32,60.85686465,,,,,right,1,0.8478,0,66,66,35,1,7,9,7 | 9,2,1.9756,1.4111,incongruent,right,,,,,,stimulusFile/magnitude.xlsx,,,,,,,,,,,,,,,,,,,,,,,,,,,,,,,
,,,,,,,,,,,,,,,802,2022-01-16_22h56.18.991,multiplicationStroop,2021.2.3,Win32,60.85686465,,,,,left,1,0.4732,0,67,67,68,1,6,1,6 | 1,5,1.6933,1.6933,neutral,left,,,,,,stimulusFile/magnitude.xlsx,,,,,,,,,,,,,,,,,,,,,,,,,,,,,,,
,,,,,,,,,,,,,,,802,2022-01-16_22h56.18.991,multiplicationStroop,2021.2.3,Win32,60.85686465,,,,,right,1,0.8329,0,68,68,43,1,4,9,4 | 9,5,1.9756,1.4111,incongruent,right,,,,,,stimulusFile/magnitude.xlsx,,,,,,,,,,,,,,,,,,,,,,,,,,,,,,,
,,,,,,,,,,,,,,,802,2022-01-16_22h56.18.991,multiplicationStroop,2021.2.3,Win32,60.85686465,,,,,right,1,0.5004,0,69,69,19,1,4,9,4 | 9,5,1.4111,1.9756,congruent,right,,,,,,stimulusFile/magnitude.xlsx,,,,,,,,,,,,,,,,,,,,,,,,,,,,,,,
,,,,,,,,,,,,,,,802,2022-01-16_22h56.18.991,multiplicationStroop,2021.2.3,Win32,60.85686465,,,,,left,1,0.6663,0,70,70,45,1,7,2,7 | 2,5,1.4111,1.9756,incongruent,left,,,,,,stimulusFile/magnitude.xlsx,,,,,,,,,,,,,,,,,,,,,,,,,,,,,,,
,,,,,,,,,,,,,,,802,2022-01-16_22h56.18.991,multiplicationStroop,2021.2.3,Win32,60.85686465,,,,,left,1,0.943,0,71,71,12,1,3,1,3 | 1,2,1.9756,1.4111,congruent,left,,,,,,stimulusFile/magnitude.xlsx,,,,,,,,,,,,,,,,,,,,,,,,,,,,,,,
,,,,,,,,,,,,,,,802,2022-01-16_22h56.18.991,multiplicationStroop,2021.2.3,Win32,60.85686465,,,,,,,,,,,,,,,,,,,,,0,1,1,0,1,stimulusFile/magnitude.xlsx,NUMERICALLY larger (larger coefficient).,images/numericallyLarger.png,,,,,,,,,,,,,,,,,,,,,,,,,,,,,
,,,,,,,,,,,,,,,802,2022-01-16_22h56.18.991,multiplicationStroop,2021.2.3,Win32,60.85686465,,,,,,,,,,,,,,,,,,,,,,,,,,,,,space,70.5866,space,4.0633,72,7.2093,1,0,0,0,14,1,9,×,8,9 × 8,incongruent,largerFirst,1,2,72,,,,,,,,
,,,,,,,,,,,,,,,802,2022-01-16_22h56.18.991,multiplicationStroop,2021.2.3,Win32,60.85686465,,,,,,,,,,,,,,,,,,,,,,,,,,,,,,,,,20,2.5876,1,0,1,1,13,1,4,×,5,4 × 5,incongruent,smallerFirst,2,1,20,,,,,,,,
,,,,,,,,,,,,,,,802,2022-01-16_22h56.18.991,multiplicationStroop,2021.2.3,Win32,60.85686465,,,,,,,,,,,,,,,,,,,,,,,,,,,,,,,,,24,4.3139,1,0,2,2,6,1,4,×,6,4 × 6,incongruent,smallerFirst,2,1,24,,,,,,,,
,,,,,,,,,,,,,,,802,2022-01-16_22h56.18.991,multiplicationStroop,2021.2.3,Win32,60.85686465,,,,,,,,,,,,,,,,,,,,,,,,,,,,,,,,,42,4.3369,1,0,3,3,3,1,6,×,7,6 × 7,incongruent,smallerFirst,2,1,42,,,,,,,,
,,,,,,,,,,,,,,,802,2022-01-16_22h56.18.991,multiplicationStroop,2021.2.3,Win32,60.85686465,,,,,,,,,,,,,,,,,,,,,,,,,,,,,,,,,16,3.9378,1,0,4,4,30,1,4,×,4,4 × 4,neutral,tie,2,1,16,,,,,,,,
,,,,,,,,,,,,,,,802,2022-01-16_22h56.18.991,multiplicationStroop,2021.2.3,Win32,60.85686465,,,,,,,,,,,,,,,,,,,,,,,,,,,,,,,,,21,1.9204,1,0,5,5,12,1,3,×,7,3 × 7,incongruent,smallerFirst,2,1,21,,,,,,,,
,,,,,,,,,,,,,,,802,2022-01-16_22h56.18.991,multiplicationStroop,2021.2.3,Win32,60.85686465,,,,,,,,,,,,,,,,,,,,,,,,,,,,,,,,,15,2.0151,1,0,6,6,24,1,5,×,3,5 × 3,incongruent,largerFirst,1,2,15,,,,,,,,
,,,,,,,,,,,,,,,802,2022-01-16_22h56.18.991,multiplicationStroop,2021.2.3,Win32,60.85686465,,,,,,,,,,,,,,,,,,,,,,,,,,,,,,,,,12,1.7985,1,0,7,7,19,1,4,×,3,4 × 3,incongruent,largerFirst,1,2,12,,,,,,,,
,,,,,,,,,,,,,,,802,2022-01-16_22h56.18.991,multiplicationStroop,2021.2.3,Win32,60.85686465,,,,,,,,,,,,,,,,,,,,,,,,,,,,,,,,,36,3.7813,1,0,8,8,1,1,4,×,9,4 × 9,incongruent,smallerFirst,2,1,36,,,,,,,,
,,,,,,,,,,,,,,,802,2022-01-16_22h56.18.991,multiplicationStroop,2021.2.3,Win32,60.85686465,,,,,,,,,,,,,,,,,,,,,,,,,,,,,,,,,25,2.505,1,0,9,9,31,1,5,×,5,5 × 5,neutral,tie,2,1,25,,,,,,,,
,,,,,,,,,,,,,,,802,2022-01-16_22h56.18.991,multiplicationStroop,2021.2.3,Win32,60.85686465,,,,,,,,,,,,,,,,,,,,,,,,,,,,,,,,,6,1.8984,1,0,10,10,25,1,3,×,2,3 × 2,incongruent,largerFirst,1,2,6,,,,,,,,
,,,,,,,,,,,,,,,802,2022-01-16_22h56.18.991,multiplicationStroop,2021.2.3,Win32,60.85686465,,,,,,,,,,,,,,,,,,,,,,,,,,,,,,,,,36,2.7485,1,0,11,11,32,1,6,×,6,6 × 6,neutral,tie,2,1,36,,,,,,,,
,,,,,,,,,,,,,,,802,2022-01-16_22h56.18.991,multiplicationStroop,2021.2.3,Win32,60.85686465,,,,,,,,,,,,,,,,,,,,,,,,,,,,,,,,,48,4.847,1,0,12,12,15,1,8,×,6,8 × 6,incongruent,largerFirst,1,2,48,,,,,,,,
,,,,,,,,,,,,,,,802,2022-01-16_22h56.18.991,multiplicationStroop,2021.2.3,Win32,60.85686465,,,,,,,,,,,,,,,,,,,,,,,,,,,,,,,,,81,3.8848,1,0,13,13,35,1,9,×,9,9 × 9,neutral,tie,2,1,81,,,,,,,,
,,,,,,,,,,,,,,,802,2022-01-16_22h56.18.991,multiplicationStroop,2021.2.3,Win32,60.85686465,,,,,,,,,,,,,,,,,,,,,,,,,,,,,,,,,18,2.3144,1,0,14,14,16,1,9,×,2,9 × 2,incongruent,largerFirst,1,2,18,,,,,,,,
,,,,,,,,,,,,,,,802,2022-01-16_22h56.18.991,multiplicationStroop,2021.2.3,Win32,60.85686465,,,,,,,,,,,,,,,,,,,,,,,,,,,,,,,,,40,2.7523,1,0,15,15,27,1,8,×,5,8 × 5,incongruent,largerFirst,1,2,40,,,,,,,,
,,,,,,,,,,,,,,,802,2022-01-16_22h56.18.991,multiplicationStroop,2021.2.3,Win32,60.85686465,,,,,,,,,,,,,,,,,,,,,,,,,,,,,,,,,8,2.2284,1,0,16,16,10,1,2,×,4,2 × 4,incongruent,smallerFirst,2,1,8,,,,,,,,
,,,,,,,,,,,,,,,802,2022-01-16_22h56.18.991,multiplicationStroop,2021.2.3,Win32,60.85686465,,,,,,,,,,,,,,,,,,,,,,,,,,,,,,,,,12,1.7853,1,0,17,17,5,1,2,×,6,2 × 6,incongruent,smallerFirst,2,1,12,,,,,,,,
,,,,,,,,,,,,,,,802,2022-01-16_22h56.18.991,multiplicationStroop,2021.2.3,Win32,60.85686465,,,,,,,,,,,,,,,,,,,,,,,,,,,,,,,,,18,3.4441,1,0,18,18,22,1,6,×,3,6 × 3,incongruent,largerFirst,1,2,18,,,,,,,,
,,,,,,,,,,,,,,,802,2022-01-16_22h56.18.991,multiplicationStroop,2021.2.3,Win32,60.85686465,,,,,,,,,,,,,,,,,,,,,,,,,,,,,,,,,10,2.1051,1,0,19,19,7,1,2,×,5,2 × 5,incongruent,smallerFirst,2,1,10,,,,,,,,
,,,,,,,,,,,,,,,802,2022-01-16_22h56.18.991,multiplicationStroop,2021.2.3,Win32,60.85686465,,,,,,,,,,,,,,,,,,,,,,,,,,,,,,,,,56,4.4145,1,0,20,20,0,1,7,×,8,7 × 8,incongruent,smallerFirst,2,1,56,,,,,,,,
,,,,,,,,,,,,,,,802,2022-01-16_22h56.18.991,multiplicationStroop,2021.2.3,Win32,60.85686465,,,,,,,,,,,,,,,,,,,,,,,,,,,,,,,,,28,3.4538,1,0,21,21,2,1,4,×,7,4 × 7,incongruent,smallerFirst,2,1,28,,,,,,,,
,,,,,,,,,,,,,,,802,2022-01-16_22h56.18.991,multiplicationStroop,2021.2.3,Win32,60.85686465,,,,,,,,,,,,,,,,,,,,,,,,,,,,,,,,,35,2.9252,1,0,22,22,26,1,7,×,5,7 × 5,incongruent,largerFirst,1,2,35,,,,,,,,
,,,,,,,,,,,,,,,802,2022-01-16_22h56.18.991,multiplicationStroop,2021.2.3,Win32,60.85686465,,,,,,,,,,,,,,,,,,,,,,,,,,,,,,,,,16,2.4609,1,0,23,23,9,1,2,×,8,2 × 8,incongruent,smallerFirst,2,1,16,,,,,,,,
,,,,,,,,,,,,,,,802,2022-01-16_22h56.18.991,multiplicationStroop,2021.2.3,Win32,60.85686465,,,,,,,,,,,,,,,,,,,,,,,,,,,,,,,,,14,1.8153,1,0,24,24,18,1,7,×,2,7 × 2,incongruent,largerFirst,1,2,14,,,,,,,,
,,,,,,,,,,,,,,,802,2022-01-16_22h56.18.991,multiplicationStroop,2021.2.3,Win32,60.85686465,,,,,,,,,,,,,,,,,,,,,,,,,,,,,,,,,54,4.1807,1,0,25,25,20,1,9,×,6,9 × 6,incongruent,largerFirst,1,2,54,,,,,,,,
,,,,,,,,,,,,,,,802,2022-01-16_22h56.18.991,multiplicationStroop,2021.2.3,Win32,60.85686465,,,,,,,,,,,,,,,,,,,,,,,,,,,,,,,,,32,4.2777,1,0,26,26,21,1,8,×,4,8 × 4,incongruent,largerFirst,1,2,32,,,,,,,,
,,,,,,,,,,,,,,,802,2022-01-16_22h56.18.991,multiplicationStroop,2021.2.3,Win32,60.85686465,,,,,,,,,,,,,,,,,,,,,,,,,,,,,,,,,18,3.5501,0,0,27,27,4,1,3,×,9,3 × 9,incongruent,smallerFirst,2,1,27,,,,,,,,
,,,,,,,,,,,,,,,802,2022-01-16_22h56.18.991,multiplicationStroop,2021.2.3,Win32,60.85686465,,,,,,,,,,,,,,,,,,,,,,,,,,,,,,,,,4,1.8468,1,0,28,28,28,1,2,×,2,2 × 2,neutral,tie,2,1,4,,,,,,,,
,,,,,,,,,,,,,,,802,2022-01-16_22h56.18.991,multiplicationStroop,2021.2.3,Win32,60.85686465,,,,,,,,,,,,,,,,,,,,,,,,,,,,,,,,,56,2.9454,0,0,29,29,34,1,8,×,8,8 × 8,neutral,tie,2,1,64,,,,,,,,
,,,,,,,,,,,,,,,802,2022-01-16_22h56.18.991,multiplicationStroop,2021.2.3,Win32,60.85686465,,,,,,,,,,,,,,,,,,,,,,,,,,,,,,,,,30,2.2101,1,0,30,30,11,1,5,×,6,5 × 6,incongruent,smallerFirst,2,1,30,,,,,,,,
,,,,,,,,,,,,,,,802,2022-01-16_22h56.18.991,multiplicationStroop,2021.2.3,Win32,60.85686465,,,,,,,,,,,,,,,,,,,,,,,,,,,,,,,,,63,3.6922,1,0,31,31,17,1,9,×,7,9 × 7,incongruent,largerFirst,1,2,63,,,,,,,,
,,,,,,,,,,,,,,,802,2022-01-16_22h56.18.991,multiplicationStroop,2021.2.3,Win32,60.85686465,,,,,,,,,,,,,,,,,,,,,,,,,,,,,,,,,45,3.8531,1,0,32,32,8,1,5,×,9,5 × 9,incongruent,smallerFirst,2,1,45,,,,,,,,
,,,,,,,,,,,,,,,802,2022-01-16_22h56.18.991,multiplicationStroop,2021.2.3,Win32,60.85686465,,,,,,,,,,,,,,,,,,,,,,,,,,,,,,,,,49,2.9721,1,0,33,33,33,1,7,×,7,7 × 7,neutral,tie,2,1,49,,,,,,,,
,,,,,,,,,,,,,,,802,2022-01-16_22h56.18.991,multiplicationStroop,2021.2.3,Win32,60.85686465,,,,,,,,,,,,,,,,,,,,,,,,,,,,,,,,,24,3.7307,1,0,34,34,23,1,8,×,3,8 × 3,incongruent,largerFirst,1,2,24,,,,,,,,
,,,,,,,,,,,,,,,802,2022-01-16_22h56.18.991,multiplicationStroop,2021.2.3,Win32,60.85686465,,,,,,,,,,,,,,,,,,,,,,,,,,,,,,,,,9,1.6421,1,0,35,35,29,1,3,×,3,3 × 3,neutral,tie,2,1,9,,,,,,,,
,,,,,,,,,,,,,,,802,2022-01-16_22h56.18.991,multiplicationStroop,2021.2.3,Win32,60.85686465,,,,,,,,,,,,,,,,,,,,,,,,,,,,,,,,,,,,,,,,,,,,,,,,,,0,0,0,4,1,stimulusFile/mult_blk5_INcongruent.xlsx,,
,,,,,,,,,,,,,,,802,2022-01-16_22h56.18.991,multiplicationStroop,2021.2.3,Win32,60.85686465,,,,,,,,,,,,,,,,,,,,,,,,,,,,,,,space,83.4077,40,2.2045,1,0,0,0,24,1,8,×,5,8 × 5,neutral,largerFirst,1.5,1.5,40,,,,,,,,
,,,,,,,,,,,,,,,802,2022-01-16_22h56.18.991,multiplicationStroop,2021.2.3,Win32,60.85686465,,,,,,,,,,,,,,,,,,,,,,,,,,,,,,,,,16,4.4015,1,0,1,1,30,1,4,×,4,4 × 4,neutral,tie,1.5,1.5,16,,,,,,,,
,,,,,,,,,,,,,,,802,2022-01-16_22h56.18.991,multiplicationStroop,2021.2.3,Win32,60.85686465,,,,,,,,,,,,,,,,,,,,,,,,,,,,,,,,,49,2.6494,1,0,2,2,33,1,7,×,7,7 × 7,neutral,tie,1.5,1.5,49,,,,,,,,
,,,,,,,,,,,,,,,802,2022-01-16_22h56.18.991,multiplicationStroop,2021.2.3,Win32,60.85686465,,,,,,,,,,,,,,,,,,,,,,,,,,,,,,,,,63,3.1957,1,0,3,3,12,1,7,×,9,7 × 9,neutral,smallerFirst,1.5,1.5,63,,,,,,,,
,,,,,,,,,,,,,,,802,2022-01-16_22h56.18.991,multiplicationStroop,2021.2.3,Win32,60.85686465,,,,,,,,,,,,,,,,,,,,,,,,,,,,,,,,,45,2.6715,1,0,4,4,10,1,5,×,9,5 × 9,neutral,smallerFirst,1.5,1.5,45,,,,,,,,
,,,,,,,,,,,,,,,802,2022-01-16_22h56.18.991,multiplicationStroop,2021.2.3,Win32,60.85686465,,,,,,,,,,,,,,,,,,,,,,,,,,,,,,,,,27,4.8785,1,0,5,5,14,1,9,×,3,9 × 3,neutral,largerFirst,1.5,1.5,27,,,,,,,,
,,,,,,,,,,,,,,,802,2022-01-16_22h56.18.991,multiplicationStroop,2021.2.3,Win32,60.85686465,,,,,,,,,,,,,,,,,,,,,,,,,,,,,,,,,18,1.8376,1,0,6,6,18,1,9,×,2,9 × 2,neutral,largerFirst,1.5,1.5,18,,,,,,,,
,,,,,,,,,,,,,,,802,2022-01-16_22h56.18.991,multiplicationStroop,2021.2.3,Win32,60.85686465,,,,,,,,,,,,,,,,,,,,,,,,,,,,,,,,,56,6.5794,1,0,7,7,9,1,7,×,8,7 × 8,neutral,smallerFirst,1.5,1.5,56,,,,,,,,
,,,,,,,,,,,,,,,802,2022-01-16_22h56.18.991,multiplicationStroop,2021.2.3,Win32,60.85686465,,,,,,,,,,,,,,,,,,,,,,,,,,,,,,,,,48,4.8683,1,0,8,8,15,1,8,×,6,8 × 6,neutral,largerFirst,1.5,1.5,48,,,,,,,,
,,,,,,,,,,,,,,,802,2022-01-16_22h56.18.991,multiplicationStroop,2021.2.3,Win32,60.85686465,,,,,,,,,,,,,,,,,,,,,,,,,,,,,,,,,18,2.9885,1,0,9,9,0,1,3,×,6,3 × 6,neutral,smallerFirst,1.5,1.5,18,,,,,,,,
,,,,,,,,,,,,,,,802,2022-01-16_22h56.18.991,multiplicationStroop,2021.2.3,Win32,60.85686465,,,,,,,,,,,,,,,,,,,,,,,,,,,,,,,,,15,2.2896,1,0,10,10,5,1,3,×,5,3 × 5,neutral,smallerFirst,1.5,1.5,15,,,,,,,,
,,,,,,,,,,,,,,,802,2022-01-16_22h56.18.991,multiplicationStroop,2021.2.3,Win32,60.85686465,,,,,,,,,,,,,,,,,,,,,,,,,,,,,,,,,32,6.3282,1,0,11,11,23,1,8,×,4,8 × 4,neutral,largerFirst,1.5,1.5,32,,,,,,,,
,,,,,,,,,,,,,,,802,2022-01-16_22h56.18.991,multiplicationStroop,2021.2.3,Win32,60.85686465,,,,,,,,,,,,,,,,,,,,,,,,,,,,,,,,,24,3.9191,1,0,12,12,22,1,8,×,3,8 × 3,neutral,largerFirst,1.5,1.5,24,,,,,,,,
,,,,,,,,,,,,,,,802,2022-01-16_22h56.18.991,multiplicationStroop,2021.2.3,Win32,60.85686465,,,,,,,,,,,,,,,,,,,,,,,,,,,,,,,,,12,2.2058,1,0,13,13,25,1,6,×,2,6 × 2,neutral,largerFirst,1.5,1.5,12,,,,,,,,
,,,,,,,,,,,,,,,802,2022-01-16_22h56.18.991,multiplicationStroop,2021.2.3,Win32,60.85686465,,,,,,,,,,,,,,,,,,,,,,,,,,,,,,,,,28,2.1789,1,0,14,14,17,1,7,×,4,7 × 4,neutral,largerFirst,1.5,1.5,28,,,,,,,,
,,,,,,,,,,,,,,,802,2022-01-16_22h56.18.991,multiplicationStroop,2021.2.3,Win32,60.85686465,,,,,,,,,,,,,,,,,,,,,,,,,,,,,,,,,30,2.1471,1,0,15,15,19,1,6,×,5,6 × 5,neutral,largerFirst,1.5,1.5,30,,,,,,,,
,,,,,,,,,,,,,,,802,2022-01-16_22h56.18.991,multiplicationStroop,2021.2.3,Win32,60.85686465,,,,,,,,,,,,,,,,,,,,,,,,,,,,,,,,,21,3.5631,1,0,16,16,8,1,3,×,7,3 × 7,neutral,smallerFirst,1.5,1.5,21,,,,,,,,
,,,,,,,,,,,,,,,802,2022-01-16_22h56.18.991,multiplicationStroop,2021.2.3,Win32,60.85686465,,,,,,,,,,,,,,,,,,,,,,,,,,,,,,,,,16,3.8543,1,0,17,17,13,1,2,×,8,2 × 8,neutral,smallerFirst,1.5,1.5,16,,,,,,,,
,,,,,,,,,,,,,,,802,2022-01-16_22h56.18.991,multiplicationStroop,2021.2.3,Win32,60.85686465,,,,,,,,,,,,,,,,,,,,,,,,,,,,,,,,,12,1.5017,1,0,18,18,21,1,4,×,3,4 × 3,neutral,largerFirst,1.5,1.5,12,,,,,,,,
,,,,,,,,,,,,,,,802,2022-01-16_22h56.18.991,multiplicationStroop,2021.2.3,Win32,60.85686465,,,,,,,,,,,,,,,,,,,,,,,,,,,,,,,,,30,2.1961,0,0,19,19,1,1,5,×,7,5 × 7,neutral,smallerFirst,1.5,1.5,35,,,,,,,,
,,,,,,,,,,,,,,,802,2022-01-16_22h56.18.991,multiplicationStroop,2021.2.3,Win32,60.85686465,,,,,,,,,,,,,,,,,,,,,,,,,,,,,,,,,64,2.9312,1,0,20,20,34,1,8,×,8,8 × 8,neutral,tie,1.5,1.5,64,,,,,,,,
,,,,,,,,,,,,,,,802,2022-01-16_22h56.18.991,multiplicationStroop,2021.2.3,Win32,60.85686465,,,,,,,,,,,,,,,,,,,,,,,,,,,,,,,,,81,3.5339,1,0,21,21,35,1,9,×,9,9 × 9,neutral,tie,1.5,1.5,81,,,,,,,,
,,,,,,,,,,,,,,,802,2022-01-16_22h56.18.991,multiplicationStroop,2021.2.3,Win32,60.85686465,,,,,,,,,,,,,,,,,,,,,,,,,,,,,,,,,42,14.0499,1,0,22,22,6,1,6,×,7,6 × 7,neutral,smallerFirst,1.5,1.5,42,,,,,,,,
,,,,,,,,,,,,,,,802,2022-01-16_22h56.18.991,multiplicationStroop,2021.2.3,Win32,60.85686465,,,,,,,,,,,,,,,,,,,,,,,,,,,,,,,,,4,2.1743,1,0,23,23,28,1,2,×,2,2 × 2,neutral,tie,1.5,1.5,4,,,,,,,,
,,,,,,,,,,,,,,,802,2022-01-16_22h56.18.991,multiplicationStroop,2021.2.3,Win32,60.85686465,,,,,,,,,,,,,,,,,,,,,,,,,,,,,,,,,54,5.4247,1,0,24,24,7,1,6,×,9,6 × 9,neutral,smallerFirst,1.5,1.5,54,,,,,,,,
,,,,,,,,,,,,,,,802,2022-01-16_22h56.18.991,multiplicationStroop,2021.2.3,Win32,60.85686465,,,,,,,,,,,,,,,,,,,,,,,,,,,,,,,,,20,2.4539,1,0,25,25,20,1,5,×,4,5 × 4,neutral,largerFirst,1.5,1.5,20,,,,,,,,
,,,,,,,,,,,,,,,802,2022-01-16_22h56.18.991,multiplicationStroop,2021.2.3,Win32,60.85686465,,,,,,,,,,,,,,,,,,,,,,,,,,,,,,,,,24,14.6003,1,0,26,26,2,1,4,×,6,4 × 6,neutral,smallerFirst,1.5,1.5,24,,,,,,,,
,,,,,,,,,,,,,,,802,2022-01-16_22h56.18.991,multiplicationStroop,2021.2.3,Win32,60.85686465,,,,,,,,,,,,,,,,,,,,,,,,,,,,,,,,,6,2.3025,1,0,27,27,26,1,3,×,2,3 × 2,neutral,largerFirst,1.5,1.5,6,,,,,,,,
,,,,,,,,,,,,,,,802,2022-01-16_22h56.18.991,multiplicationStroop,2021.2.3,Win32,60.85686465,,,,,,,,,,,,,,,,,,,,,,,,,,,,,,,,,72,5.7334,1,0,28,28,11,1,8,×,9,8 × 9,neutral,smallerFirst,1.5,1.5,72,,,,,,,,
,,,,,,,,,,,,,,,802,2022-01-16_22h56.18.991,multiplicationStroop,2021.2.3,Win32,60.85686465,,,,,,,,,,,,,,,,,,,,,,,,,,,,,,,,,14,2.0556,1,0,29,29,16,1,7,×,2,7 × 2,neutral,largerFirst,1.5,1.5,14,,,,,,,,
,,,,,,,,,,,,,,,802,2022-01-16_22h56.18.991,multiplicationStroop,2021.2.3,Win32,60.85686465,,,,,,,,,,,,,,,,,,,,,,,,,,,,,,,,,10,1.6098,1,0,30,30,4,1,2,×,5,2 × 5,neutral,smallerFirst,1.5,1.5,10,,,,,,,,
,,,,,,,,,,,,,,,802,2022-01-16_22h56.18.991,multiplicationStroop,2021.2.3,Win32,60.85686465,,,,,,,,,,,,,,,,,,,,,,,,,,,,,,,,,25,2.2474,1,0,31,31,31,1,5,×,5,5 × 5,neutral,tie,1.5,1.5,25,,,,,,,,
,,,,,,,,,,,,,,,802,2022-01-16_22h56.18.991,multiplicationStroop,2021.2.3,Win32,60.85686465,,,,,,,,,,,,,,,,,,,,,,,,,,,,,,,,,36,2.5298,1,0,32,32,32,1,6,×,6,6 × 6,neutral,tie,1.5,1.5,36,,,,,,,,
,,,,,,,,,,,,,,,802,2022-01-16_22h56.18.991,multiplicationStroop,2021.2.3,Win32,60.85686465,,,,,,,,,,,,,,,,,,,,,,,,,,,,,,,,,8,3.5929,1,0,33,33,3,1,2,×,4,2 × 4,neutral,smallerFirst,1.5,1.5,8,,,,,,,,
,,,,,,,,,,,,,,,802,2022-01-16_22h56.18.991,multiplicationStroop,2021.2.3,Win32,60.85686465,,,,,,,,,,,,,,,,,,,,,,,,,,,,,,,,,9,1.6979,1,0,34,34,29,1,3,×,3,3 × 3,neutral,tie,1.5,1.5,9,,,,,,,,
,,,,,,,,,,,,,,,802,2022-01-16_22h56.18.991,multiplicationStroop,2021.2.3,Win32,60.85686465,,,,,,,,,,,,,,,,,,,,,,,,,,,,,,,,,36,4.3249,1,0,35,35,27,1,9,×,4,9 × 4,neutral,largerFirst,1.5,1.5,36,,,,,,,,
,,,,,,,,,,,,,,,802,2022-01-16_22h56.18.991,multiplicationStroop,2021.2.3,Win32,60.85686465,,,,,,,,,,,,,,,,,,,,,,,,,,,,,,,,,,,,,,,,,,,,,,,,,,0,1,1,1,1,stimulusFile/mult_blk2.xlsx,,
,,,,,,,,,,,,,,,802,2022-01-16_22h56.18.991,multiplicationStroop,2021.2.3,Win32,60.85686465,,,,,,,,,,,,,,,,,,,,,,,,,,,,,,,space,47.7966,36,2.7303,1,0,0,0,32,1,6,×,6,6 × 6,neutral,tie,1,2,36,,,,,,,,
,,,,,,,,,,,,,,,802,2022-01-16_22h56.18.991,multiplicationStroop,2021.2.3,Win32,60.85686465,,,,,,,,,,,,,,,,,,,,,,,,,,,,,,,,,12,1.6271,1,0,1,1,16,1,4,×,3,4 × 3,congruent,largerFirst,2,1,12,,,,,,,,
,,,,,,,,,,,,,,,802,2022-01-16_22h56.18.991,multiplicationStroop,2021.2.3,Win32,60.85686465,,,,,,,,,,,,,,,,,,,,,,,,,,,,,,,,,16,2.3954,1,0,2,2,30,1,4,×,4,4 × 4,neutral,tie,1,2,16,,,,,,,,
,,,,,,,,,,,,,,,802,2022-01-16_22h56.18.991,multiplicationStroop,2021.2.3,Win32,60.85686465,,,,,,,,,,,,,,,,,,,,,,,,,,,,,,,,,8,2.3198,1,0,3,3,23,1,4,×,2,4 × 2,congruent,largerFirst,2,1,8,,,,,,,,
,,,,,,,,,,,,,,,802,2022-01-16_22h56.18.991,multiplicationStroop,2021.2.3,Win32,60.85686465,,,,,,,,,,,,,,,,,,,,,,,,,,,,,,,,,40,2.376,1,0,4,4,20,1,8,×,5,8 × 5,congruent,largerFirst,2,1,40,,,,,,,,
,,,,,,,,,,,,,,,802,2022-01-16_22h56.18.991,multiplicationStroop,2021.2.3,Win32,60.85686465,,,,,,,,,,,,,,,,,,,,,,,,,,,,,,,,,49,2.1957,1,0,5,5,33,1,7,×,7,7 × 7,neutral,tie,1,2,49,,,,,,,,
,,,,,,,,,,,,,,,802,2022-01-16_22h56.18.991,multiplicationStroop,2021.2.3,Win32,60.85686465,,,,,,,,,,,,,,,,,,,,,,,,,,,,,,,,,27,2.9958,1,0,6,6,12,1,3,×,9,3 × 9,congruent,smallerFirst,1,2,27,,,,,,,,
,,,,,,,,,,,,,,,802,2022-01-16_22h56.18.991,multiplicationStroop,2021.2.3,Win32,60.85686465,,,,,,,,,,,,,,,,,,,,,,,,,,,,,,,,,6,1.8214,1,0,7,7,27,1,3,×,2,3 × 2,congruent,largerFirst,2,1,6,,,,,,,,
,,,,,,,,,,,,,,,802,2022-01-16_22h56.18.991,multiplicationStroop,2021.2.3,Win32,60.85686465,,,,,,,,,,,,,,,,,,,,,,,,,,,,,,,,,9,1.5462,1,0,8,8,29,1,3,×,3,3 × 3,neutral,tie,1,2,9,,,,,,,,
,,,,,,,,,,,,,,,802,2022-01-16_22h56.18.991,multiplicationStroop,2021.2.3,Win32,60.85686465,,,,,,,,,,,,,,,,,,,,,,,,,,,,,,,,,18,2.0019,1,0,9,9,25,1,6,×,3,6 × 3,congruent,largerFirst,2,1,18,,,,,,,,
,,,,,,,,,,,,,,,802,2022-01-16_22h56.18.991,multiplicationStroop,2021.2.3,Win32,60.85686465,,,,,,,,,,,,,,,,,,,,,,,,,,,,,,,,,18,2.9264,1,0,10,10,8,1,2,×,9,2 × 9,congruent,smallerFirst,1,2,18,,,,,,,,
,,,,,,,,,,,,,,,802,2022-01-16_22h56.18.991,multiplicationStroop,2021.2.3,Win32,60.85686465,,,,,,,,,,,,,,,,,,,,,,,,,,,,,,,,,32,2.9176,1,0,11,11,6,1,4,×,8,4 × 8,congruent,smallerFirst,1,2,32,,,,,,,,
,,,,,,,,,,,,,,,802,2022-01-16_22h56.18.991,multiplicationStroop,2021.2.3,Win32,60.85686465,,,,,,,,,,,,,,,,,,,,,,,,,,,,,,,,,21,1.6427,1,0,12,12,2,1,3,×,7,3 × 7,congruent,smallerFirst,1,2,21,,,,,,,,
,,,,,,,,,,,,,,,802,2022-01-16_22h56.18.991,multiplicationStroop,2021.2.3,Win32,60.85686465,,,,,,,,,,,,,,,,,,,,,,,,,,,,,,,,,24,2.8865,1,0,13,13,24,1,8,×,3,8 × 3,congruent,largerFirst,2,1,24,,,,,,,,
,,,,,,,,,,,,,,,802,2022-01-16_22h56.18.991,multiplicationStroop,2021.2.3,Win32,60.85686465,,,,,,,,,,,,,,,,,,,,,,,,,,,,,,,,,72,3.8062,1,0,14,14,3,1,8,×,9,8 × 9,congruent,smallerFirst,1,2,72,,,,,,,,
,,,,,,,,,,,,,,,802,2022-01-16_22h56.18.991,multiplicationStroop,2021.2.3,Win32,60.85686465,,,,,,,,,,,,,,,,,,,,,,,,,,,,,,,,,54,4.1618,1,0,15,15,26,1,9,×,6,9 × 6,congruent,largerFirst,2,1,54,,,,,,,,
,,,,,,,,,,,,,,,802,2022-01-16_22h56.18.991,multiplicationStroop,2021.2.3,Win32,60.85686465,,,,,,,,,,,,,,,,,,,,,,,,,,,,,,,,,20,2.2192,1,0,16,16,21,1,5,×,4,5 × 4,congruent,largerFirst,2,1,20,,,,,,,,
,,,,,,,,,,,,,,,802,2022-01-16_22h56.18.991,multiplicationStroop,2021.2.3,Win32,60.85686465,,,,,,,,,,,,,,,,,,,,,,,,,,,,,,,,,63,8.5167,1,0,17,17,7,1,7,×,9,7 × 9,congruent,smallerFirst,1,2,63,,,,,,,,
,,,,,,,,,,,,,,,802,2022-01-16_22h56.18.991,multiplicationStroop,2021.2.3,Win32,60.85686465,,,,,,,,,,,,,,,,,,,,,,,,,,,,,,,,,12,2.0861,1,0,18,18,5,1,2,×,6,2 × 6,congruent,smallerFirst,1,2,12,,,,,,,,
,,,,,,,,,,,,,,,802,2022-01-16_22h56.18.991,multiplicationStroop,2021.2.3,Win32,60.85686465,,,,,,,,,,,,,,,,,,,,,,,,,,,,,,,,,4,2.1973,1,0,19,19,28,1,2,×,2,2 × 2,neutral,tie,1,2,4,,,,,,,,
,,,,,,,,,,,,,,,802,2022-01-16_22h56.18.991,multiplicationStroop,2021.2.3,Win32,60.85686465,,,,,,,,,,,,,,,,,,,,,,,,,,,,,,,,,81,4.0419,1,0,20,20,35,1,9,×,9,9 × 9,neutral,tie,1,2,81,,,,,,,,
,,,,,,,,,,,,,,,802,2022-01-16_22h56.18.991,multiplicationStroop,2021.2.3,Win32,60.85686465,,,,,,,,,,,,,,,,,,,,,,,,,,,,,,,,,15,2.4206,1,0,21,21,18,1,5,×,3,5 × 3,congruent,largerFirst,2,1,15,,,,,,,,
,,,,,,,,,,,,,,,802,2022-01-16_22h56.18.991,multiplicationStroop,2021.2.3,Win32,60.85686465,,,,,,,,,,,,,,,,,,,,,,,,,,,,,,,,,35,6.3771,1,0,22,22,15,1,7,×,5,7 × 5,congruent,largerFirst,2,1,35,,,,,,,,
,,,,,,,,,,,,,,,802,2022-01-16_22h56.18.991,multiplicationStroop,2021.2.3,Win32,60.85686465,,,,,,,,,,,,,,,,,,,,,,,,,,,,,,,,,16,3.8542,1,0,23,23,19,1,8,×,2,8 × 2,congruent,largerFirst,2,1,16,,,,,,,,
,,,,,,,,,,,,,,,802,2022-01-16_22h56.18.991,multiplicationStroop,2021.2.3,Win32,60.85686465,,,,,,,,,,,,,,,,,,,,,,,,,,,,,,,,,10,1.6052,1,0,24,24,10,1,2,×,5,2 × 5,congruent,smallerFirst,1,2,10,,,,,,,,
,,,,,,,,,,,,,,,802,2022-01-16_22h56.18.991,multiplicationStroop,2021.2.3,Win32,60.85686465,,,,,,,,,,,,,,,,,,,,,,,,,,,,,,,,,24,1.9487,1,0,25,25,11,1,4,×,6,4 × 6,congruent,smallerFirst,1,2,24,,,,,,,,
,,,,,,,,,,,,,,,802,2022-01-16_22h56.18.991,multiplicationStroop,2021.2.3,Win32,60.85686465,,,,,,,,,,,,,,,,,,,,,,,,,,,,,,,,,28,2.465,1,0,26,26,13,1,4,×,7,4 × 7,congruent,smallerFirst,1,2,28,,,,,,,,
,,,,,,,,,,,,,,,802,2022-01-16_22h56.18.991,multiplicationStroop,2021.2.3,Win32,60.85686465,,,,,,,,,,,,,,,,,,,,,,,,,,,,,,,,,42,5.8858,1,0,27,27,17,1,7,×,6,7 × 6,congruent,largerFirst,2,1,42,,,,,,,,
,,,,,,,,,,,,,,,802,2022-01-16_22h56.18.991,multiplicationStroop,2021.2.3,Win32,60.85686465,,,,,,,,,,,,,,,,,,,,,,,,,,,,,,,,,25,2.821,1,0,28,28,31,1,5,×,5,5 × 5,neutral,tie,1,2,25,,,,,,,,
,,,,,,,,,,,,,,,802,2022-01-16_22h56.18.991,multiplicationStroop,2021.2.3,Win32,60.85686465,,,,,,,,,,,,,,,,,,,,,,,,,,,,,,,,,54,4.487,0,0,29,29,22,1,8,×,7,8 × 7,congruent,largerFirst,2,1,56,,,,,,,,
,,,,,,,,,,,,,,,802,2022-01-16_22h56.18.991,multiplicationStroop,2021.2.3,Win32,60.85686465,,,,,,,,,,,,,,,,,,,,,,,,,,,,,,,,,30,4.9874,1,0,30,30,1,1,5,×,6,5 × 6,congruent,smallerFirst,1,2,30,,,,,,,,
,,,,,,,,,,,,,,,802,2022-01-16_22h56.18.991,multiplicationStroop,2021.2.3,Win32,60.85686465,,,,,,,,,,,,,,,,,,,,,,,,,,,,,,,,,45,4.154,1,0,31,31,9,1,5,×,9,5 × 9,congruent,smallerFirst,1,2,45,,,,,,,,
,,,,,,,,,,,,,,,802,2022-01-16_22h56.18.991,multiplicationStroop,2021.2.3,Win32,60.85686465,,,,,,,,,,,,,,,,,,,,,,,,,,,,,,,,,48,12.4832,1,0,32,32,4,1,6,×,8,6 × 8,congruent,smallerFirst,1,2,48,,,,,,,,
,,,,,,,,,,,,,,,802,2022-01-16_22h56.18.991,multiplicationStroop,2021.2.3,Win32,60.85686465,,,,,,,,,,,,,,,,,,,,,,,,,,,,,,,,,36,5.5912,1,0,33,33,14,1,9,×,4,9 × 4,congruent,largerFirst,2,1,36,,,,,,,,
,,,,,,,,,,,,,,,802,2022-01-16_22h56.18.991,multiplicationStroop,2021.2.3,Win32,60.85686465,,,,,,,,,,,,,,,,,,,,,,,,,,,,,,,,,64,2.6841,1,0,34,34,34,1,8,×,8,8 × 8,neutral,tie,1,2,64,,,,,,,,
,,,,,,,,,,,,,,,802,2022-01-16_22h56.18.991,multiplicationStroop,2021.2.3,Win32,60.85686465,,,,,,,,,,,,,,,,,,,,,,,,,,,,,,,,,14,1.9925,1,0,35,35,0,1,2,×,7,2 × 7,congruent,smallerFirst,1,2,14,,,,,,,,
,,,,,,,,,,,,,,,802,2022-01-16_22h56.18.991,multiplicationStroop,2021.2.3,Win32,60.85686465,,,,,,,,,,,,,,,,,,,,,,,,,,,,,,,,,,,,,,,,,,,,,,,,,,0,2,2,3,1,stimulusFile/mult_blk4_congruent.xlsx,,
,,,,,,,,,,,,,,,802,2022-01-16_22h56.18.991,multiplicationStroop,2021.2.3,Win32,60.85686465,,,,,,,,,,,,,,,,,,,,,,,,,,,,,,,space,402.303,12,1.7836,1,0,0,0,5,1,3,×,4,3 × 4,incongruent,smallerFirst,2,1,12,,,,,,,,
,,,,,,,,,,,,,,,802,2022-01-16_22h56.18.991,multiplicationStroop,2021.2.3,Win32,60.85686465,,,,,,,,,,,,,,,,,,,,,,,,,,,,,,,,,72,4.174,1,0,1,1,0,1,8,×,9,8 × 9,incongruent,smallerFirst,2,1,72,,,,,,,,
,,,,,,,,,,,,,,,802,2022-01-16_22h56.18.991,multiplicationStroop,2021.2.3,Win32,60.85686465,,,,,,,,,,,,,,,,,,,,,,,,,,,,,,,,,15,1.9092,1,0,2,2,10,1,3,×,5,3 × 5,incongruent,smallerFirst,2,1,15,,,,,,,,
,,,,,,,,,,,,,,,802,2022-01-16_22h56.18.991,multiplicationStroop,2021.2.3,Win32,60.85686465,,,,,,,,,,,,,,,,,,,,,,,,,,,,,,,,,24,2.8597,1,0,3,3,20,1,6,×,4,6 × 4,incongruent,largerFirst,1,2,24,,,,,,,,
,,,,,,,,,,,,,,,802,2022-01-16_22h56.18.991,multiplicationStroop,2021.2.3,Win32,60.85686465,,,,,,,,,,,,,,,,,,,,,,,,,,,,,,,,,36,4.6695,1,0,4,4,15,1,9,×,4,9 × 4,incongruent,largerFirst,1,2,36,,,,,,,,
,,,,,,,,,,,,,,,802,2022-01-16_22h56.18.991,multiplicationStroop,2021.2.3,Win32,60.85686465,,,,,,,,,,,,,,,,,,,,,,,,,,,,,,,,,48,9.7685,1,0,5,5,1,1,6,×,8,6 × 8,incongruent,smallerFirst,2,1,48,,,,,,,,
,,,,,,,,,,,,,,,802,2022-01-16_22h56.18.991,multiplicationStroop,2021.2.3,Win32,60.85686465,,,,,,,,,,,,,,,,,,,,,,,,,,,,,,,,,64,3.1539,1,0,6,6,34,1,8,×,8,8 × 8,incongruent,tie,1,2,64,,,,,,,,
,,,,,,,,,,,,,,,802,2022-01-16_22h56.18.991,multiplicationStroop,2021.2.3,Win32,60.85686465,,,,,,,,,,,,,,,,,,,,,,,,,,,,,,,,,49,2.4819,0,0,7,7,35,1,9,×,9,9 × 9,incongruent,tie,1,2,81,,,,,,,,
,,,,,,,,,,,,,,,802,2022-01-16_22h56.18.991,multiplicationStroop,2021.2.3,Win32,60.85686465,,,,,,,,,,,,,,,,,,,,,,,,,,,,,,,,,12,1.9982,1,0,8,8,19,1,6,×,2,6 × 2,incongruent,largerFirst,1,2,12,,,,,,,,
,,,,,,,,,,,,,,,802,2022-01-16_22h56.18.991,multiplicationStroop,2021.2.3,Win32,60.85686465,,,,,,,,,,,,,,,,,,,,,,,,,,,,,,,,,14,3.115,1,0,9,9,4,1,2,×,7,2 × 7,incongruent,smallerFirst,2,1,14,,,,,,,,
,,,,,,,,,,,,,,,802,2022-01-16_22h56.18.991,multiplicationStroop,2021.2.3,Win32,60.85686465,,,,,,,,,,,,,,,,,,,,,,,,,,,,,,,,,9,4.3208,1,0,10,10,29,1,3,×,3,3 × 3,incongruent,tie,1,2,9,,,,,,,,
,,,,,,,,,,,,,,,802,2022-01-16_22h56.18.991,multiplicationStroop,2021.2.3,Win32,60.85686465,,,,,,,,,,,,,,,,,,,,,,,,,,,,,,,,,18,2.2877,1,0,11,11,8,1,3,×,6,3 × 6,incongruent,smallerFirst,2,1,18,,,,,,,,
,,,,,,,,,,,,,,,802,2022-01-16_22h56.18.991,multiplicationStroop,2021.2.3,Win32,60.85686465,,,,,,,,,,,,,,,,,,,,,,,,,,,,,,,,,45,2.182,1,0,12,12,22,1,9,×,5,9 × 5,incongruent,largerFirst,1,2,45,,,,,,,,
,,,,,,,,,,,,,,,802,2022-01-16_22h56.18.991,multiplicationStroop,2021.2.3,Win32,60.85686465,,,,,,,,,,,,,,,,,,,,,,,,,,,,,,,,,49,1.9318,1,0,13,13,33,1,7,×,7,7 × 7,incongruent,tie,1,2,49,,,,,,,,
,,,,,,,,,,,,,,,802,2022-01-16_22h56.18.991,multiplicationStroop,2021.2.3,Win32,60.85686465,,,,,,,,,,,,,,,,,,,,,,,,,,,,,,,,,16,3.6144,1,0,14,14,30,1,4,×,4,4 × 4,incongruent,tie,1,2,16,,,,,,,,
,,,,,,,,,,,,,,,802,2022-01-16_22h56.18.991,multiplicationStroop,2021.2.3,Win32,60.85686465,,,,,,,,,,,,,,,,,,,,,,,,,,,,,,,,,42,5.0226,1,0,15,15,17,1,7,×,6,7 × 6,incongruent,largerFirst,1,2,42,,,,,,,,
,,,,,,,,,,,,,,,802,2022-01-16_22h56.18.991,multiplicationStroop,2021.2.3,Win32,60.85686465,,,,,,,,,,,,,,,,,,,,,,,,,,,,,,,,,63,4.6038,1,0,16,16,3,1,7,×,9,7 × 9,incongruent,smallerFirst,2,1,63,,,,,,,,
,,,,,,,,,,,,,,,802,2022-01-16_22h56.18.991,multiplicationStroop,2021.2.3,Win32,60.85686465,,,,,,,,,,,,,,,,,,,,,,,,,,,,,,,,,12,1.9149,0,0,17,17,24,1,4,×,2,4 × 2,incongruent,largerFirst,1,2,8,,,,,,,,
,,,,,,,,,,,,,,,802,2022-01-16_22h56.18.991,multiplicationStroop,2021.2.3,Win32,60.85686465,,,,,,,,,,,,,,,,,,,,,,,,,,,,,,,,,56,8.2791,1,0,18,18,14,1,8,×,7,8 × 7,incongruent,largerFirst,1,2,56,,,,,,,,
,,,,,,,,,,,,,,,802,2022-01-16_22h56.18.991,multiplicationStroop,2021.2.3,Win32,60.85686465,,,,,,,,,,,,,,,,,,,,,,,,,,,,,,,,,16,3.2875,1,0,19,19,23,1,8,×,2,8 × 2,incongruent,largerFirst,1,2,16,,,,,,,,
,,,,,,,,,,,,,,,802,2022-01-16_22h56.18.991,multiplicationStroop,2021.2.3,Win32,60.85686465,,,,,,,,,,,,,,,,,,,,,,,,,,,,,,,,,18,2.1382,1,0,20,20,2,1,2,×,9,2 × 9,incongruent,smallerFirst,2,1,18,,,,,,,,
,,,,,,,,,,,,,,,802,2022-01-16_22h56.18.991,multiplicationStroop,2021.2.3,Win32,60.85686465,,,,,,,,,,,,,,,,,,,,,,,,,,,,,,,,,4,1.815,1,0,21,21,28,1,2,×,2,2 × 2,incongruent,tie,1,2,4,,,,,,,,
,,,,,,,,,,,,,,,802,2022-01-16_22h56.18.991,multiplicationStroop,2021.2.3,Win32,60.85686465,,,,,,,,,,,,,,,,,,,,,,,,,,,,,,,,,21,1.87,1,0,22,22,26,1,7,×,3,7 × 3,incongruent,largerFirst,1,2,21,,,,,,,,
,,,,,,,,,,,,,,,802,2022-01-16_22h56.18.991,multiplicationStroop,2021.2.3,Win32,60.85686465,,,,,,,,,,,,,,,,,,,,,,,,,,,,,,,,,25,2.4981,1,0,23,23,31,1,5,×,5,5 × 5,incongruent,tie,1,2,25,,,,,,,,
,,,,,,,,,,,,,,,802,2022-01-16_22h56.18.991,multiplicationStroop,2021.2.3,Win32,60.85686465,,,,,,,,,,,,,,,,,,,,,,,,,,,,,,,,,28,5.2579,1,0,24,24,16,1,7,×,4,7 × 4,incongruent,largerFirst,1,2,28,,,,,,,,
,,,,,,,,,,,,,,,802,2022-01-16_22h56.18.991,multiplicationStroop,2021.2.3,Win32,60.85686465,,,,,,,,,,,,,,,,,,,,,,,,,,,,,,,,,10,4.9198,1,0,25,25,21,1,5,×,2,5 × 2,incongruent,largerFirst,1,2,10,,,,,,,,
,,,,,,,,,,,,,,,802,2022-01-16_22h56.18.991,multiplicationStroop,2021.2.3,Win32,60.85686465,,,,,,,,,,,,,,,,,,,,,,,,,,,,,,,,,30,2.7704,1,0,26,26,25,1,6,×,5,6 × 5,incongruent,largerFirst,1,2,30,,,,,,,,
,,,,,,,,,,,,,,,802,2022-01-16_22h56.18.991,multiplicationStroop,2021.2.3,Win32,60.85686465,,,,,,,,,,,,,,,,,,,,,,,,,,,,,,,,,24,3.1131,1,0,27,27,9,1,3,×,8,3 × 8,incongruent,smallerFirst,2,1,24,,,,,,,,
,,,,,,,,,,,,,,,802,2022-01-16_22h56.18.991,multiplicationStroop,2021.2.3,Win32,60.85686465,,,,,,,,,,,,,,,,,,,,,,,,,,,,,,,,,35,2.3536,1,0,28,28,12,1,5,×,7,5 × 7,incongruent,smallerFirst,2,1,35,,,,,,,,
,,,,,,,,,,,,,,,802,2022-01-16_22h56.18.991,multiplicationStroop,2021.2.3,Win32,60.85686465,,,,,,,,,,,,,,,,,,,,,,,,,,,,,,,,,32,5.5293,1,0,29,29,7,1,4,×,8,4 × 8,incongruent,smallerFirst,2,1,32,,,,,,,,
,,,,,,,,,,,,,,,802,2022-01-16_22h56.18.991,multiplicationStroop,2021.2.3,Win32,60.85686465,,,,,,,,,,,,,,,,,,,,,,,,,,,,,,,,,40,4.5371,1,0,30,30,13,1,5,×,8,5 × 8,incongruent,smallerFirst,2,1,40,,,,,,,,
,,,,,,,,,,,,,,,802,2022-01-16_22h56.18.991,multiplicationStroop,2021.2.3,Win32,60.85686465,,,,,,,,,,,,,,,,,,,,,,,,,,,,,,,,,36,2.4919,1,0,31,31,32,1,6,×,6,6 × 6,incongruent,tie,1,2,36,,,,,,,,
,,,,,,,,,,,,,,,802,2022-01-16_22h56.18.991,multiplicationStroop,2021.2.3,Win32,60.85686465,,,,,,,,,,,,,,,,,,,,,,,,,,,,,,,,,20,1.9101,1,0,32,32,27,1,5,×,4,5 × 4,incongruent,largerFirst,1,2,20,,,,,,,,
,,,,,,,,,,,,,,,802,2022-01-16_22h56.18.991,multiplicationStroop,2021.2.3,Win32,60.85686465,,,,,,,,,,,,,,,,,,,,,,,,,,,,,,,,,6,1.8649,1,0,33,33,11,1,2,×,3,2 × 3,incongruent,smallerFirst,2,1,6,,,,,,,,
,,,,,,,,,,,,,,,802,2022-01-16_22h56.18.991,multiplicationStroop,2021.2.3,Win32,60.85686465,,,,,,,,,,,,,,,,,,,,,,,,,,,,,,,,,18,2.0509,0,0,34,34,18,1,9,×,3,9 × 3,incongruent,largerFirst,1,2,27,,,,,,,,
,,,,,,,,,,,,,,,802,2022-01-16_22h56.18.991,multiplicationStroop,2021.2.3,Win32,60.85686465,,,,,,,,,,,,,,,,,,,,,,,,,,,,,,,,,54,5.1471,1,0,35,35,6,1,6,×,9,6 × 9,incongruent,smallerFirst,2,1,54,,,,,,,,
,,,,,,,,,,,,,,,802,2022-01-16_22h56.18.991,multiplicationStroop,2021.2.3,Win32,60.85686465,,,,,,,,,,,,,,,,,,,,,,,,,,,,,,,,,,,,,,,,,,,,,,,,,,0,3,3,5,1,stimulusFile/mult_blk6_INcongruent.xlsx,,
,,,,,,,,,,,,,,,802,2022-01-16_22h56.18.991,multiplicationStroop,2021.2.3,Win32,60.85686465,,,,,,,,,,,,,,,,,,,,,,,,,,,,,,,space,8.3783,32,5.8576,1,0,0,0,20,1,8,×,4,8 × 4,congruent,largerFirst,2,1,32,,,,,,,,
,,,,,,,,,,,,,,,802,2022-01-16_22h56.18.991,multiplicationStroop,2021.2.3,Win32,60.85686465,,,,,,,,,,,,,,,,,,,,,,,,,,,,,,,,,15,2.0172,1,0,1,1,4,1,3,×,5,3 × 5,congruent,smallerFirst,1,2,15,,,,,,,,
,,,,,,,,,,,,,,,802,2022-01-16_22h56.18.991,multiplicationStroop,2021.2.3,Win32,60.85686465,,,,,,,,,,,,,,,,,,,,,,,,,,,,,,,,,12,1.6817,1,0,2,2,19,1,6,×,2,6 × 2,congruent,largerFirst,2,1,12,,,,,,,,
,,,,,,,,,,,,,,,802,2022-01-16_22h56.18.991,multiplicationStroop,2021.2.3,Win32,60.85686465,,,,,,,,,,,,,,,,,,,,,,,,,,,,,,,,,72,8.9289,1,0,3,3,17,1,9,×,8,9 × 8,congruent,largerFirst,2,1,72,,,,,,,,
,,,,,,,,,,,,,,,802,2022-01-16_22h56.18.991,multiplicationStroop,2021.2.3,Win32,60.85686465,,,,,,,,,,,,,,,,,,,,,,,,,,,,,,,,,25,2.6199,1,0,4,4,31,1,5,×,5,5 × 5,neutral,tie,2,1,25,,,,,,,,
,,,,,,,,,,,,,,,802,2022-01-16_22h56.18.991,multiplicationStroop,2021.2.3,Win32,60.85686465,,,,,,,,,,,,,,,,,,,,,,,,,,,,,,,,,30,2.3313,1,0,5,5,15,1,6,×,5,6 × 5,congruent,largerFirst,2,1,30,,,,,,,,
,,,,,,,,,,,,,,,802,2022-01-16_22h56.18.991,multiplicationStroop,2021.2.3,Win32,60.85686465,,,,,,,,,,,,,,,,,,,,,,,,,,,,,,,,,16,2.0273,1,0,6,6,5,1,2,×,8,2 × 8,congruent,smallerFirst,1,2,16,,,,,,,,
,,,,,,,,,,,,,,,802,2022-01-16_22h56.18.991,multiplicationStroop,2021.2.3,Win32,60.85686465,,,,,,,,,,,,,,,,,,,,,,,,,,,,,,,,,18,1.7269,1,0,7,7,22,1,9,×,2,9 × 2,congruent,largerFirst,2,1,18,,,,,,,,
,,,,,,,,,,,,,,,802,2022-01-16_22h56.18.991,multiplicationStroop,2021.2.3,Win32,60.85686465,,,,,,,,,,,,,,,,,,,,,,,,,,,,,,,,,36,5.0951,1,0,8,8,0,1,4,×,9,4 × 9,congruent,smallerFirst,1,2,36,,,,,,,,
,,,,,,,,,,,,,,,802,2022-01-16_22h56.18.991,multiplicationStroop,2021.2.3,Win32,60.85686465,,,,,,,,,,,,,,,,,,,,,,,,,,,,,,,,,18,1.9545,1,0,9,9,11,1,3,×,6,3 × 6,congruent,smallerFirst,1,2,18,,,,,,,,
,,,,,,,,,,,,,,,802,2022-01-16_22h56.18.991,multiplicationStroop,2021.2.3,Win32,60.85686465,,,,,,,,,,,,,,,,,,,,,,,,,,,,,,,,,9,1.5847,1,0,10,10,29,1,3,×,3,3 × 3,neutral,tie,2,1,9,,,,,,,,
,,,,,,,,,,,,,,,802,2022-01-16_22h56.18.991,multiplicationStroop,2021.2.3,Win32,60.85686465,,,,,,,,,,,,,,,,,,,,,,,,,,,,,,,,,4,1.7602,1,0,11,11,28,1,2,×,2,2 × 2,neutral,tie,2,1,4,,,,,,,,
,,,,,,,,,,,,,,,802,2022-01-16_22h56.18.991,multiplicationStroop,2021.2.3,Win32,60.85686465,,,,,,,,,,,,,,,,,,,,,,,,,,,,,,,,,35,3.0967,1,0,12,12,1,1,5,×,7,5 × 7,congruent,smallerFirst,1,2,35,,,,,,,,
,,,,,,,,,,,,,,,802,2022-01-16_22h56.18.991,multiplicationStroop,2021.2.3,Win32,60.85686465,,,,,,,,,,,,,,,,,,,,,,,,,,,,,,,,,56,3.2182,1,0,13,13,8,1,7,×,8,7 × 8,congruent,smallerFirst,1,2,56,,,,,,,,
,,,,,,,,,,,,,,,802,2022-01-16_22h56.18.991,multiplicationStroop,2021.2.3,Win32,60.85686465,,,,,,,,,,,,,,,,,,,,,,,,,,,,,,,,,20,1.7785,1,0,14,14,7,1,4,×,5,4 × 5,congruent,smallerFirst,1,2,20,,,,,,,,
,,,,,,,,,,,,,,,802,2022-01-16_22h56.18.991,multiplicationStroop,2021.2.3,Win32,60.85686465,,,,,,,,,,,,,,,,,,,,,,,,,,,,,,,,,64,2.3977,1,0,15,15,34,1,8,×,8,8 × 8,neutral,tie,2,1,64,,,,,,,,
,,,,,,,,,,,,,,,802,2022-01-16_22h56.18.991,multiplicationStroop,2021.2.3,Win32,60.85686465,,,,,,,,,,,,,,,,,,,,,,,,,,,,,,,,,12,1.868,1,0,16,16,2,1,3,×,4,3 × 4,congruent,smallerFirst,1,2,12,,,,,,,,
,,,,,,,,,,,,,,,802,2022-01-16_22h56.18.991,multiplicationStroop,2021.2.3,Win32,60.85686465,,,,,,,,,,,,,,,,,,,,,,,,,,,,,,,,,6,1.7762,1,0,17,17,13,1,2,×,3,2 × 3,congruent,smallerFirst,1,2,6,,,,,,,,
,,,,,,,,,,,,,,,802,2022-01-16_22h56.18.991,multiplicationStroop,2021.2.3,Win32,60.85686465,,,,,,,,,,,,,,,,,,,,,,,,,,,,,,,,,49,2.2304,0,0,18,18,35,1,9,×,9,9 × 9,neutral,tie,2,1,81,,,,,,,,
,,,,,,,,,,,,,,,802,2022-01-16_22h56.18.991,multiplicationStroop,2021.2.3,Win32,60.85686465,,,,,,,,,,,,,,,,,,,,,,,,,,,,,,,,,21,1.7334,1,0,19,19,16,1,7,×,3,7 × 3,congruent,largerFirst,2,1,21,,,,,,,,
,,,,,,,,,,,,,,,802,2022-01-16_22h56.18.991,multiplicationStroop,2021.2.3,Win32,60.85686465,,,,,,,,,,,,,,,,,,,,,,,,,,,,,,,,,49,5.2937,1,0,20,20,33,1,7,×,7,7 × 7,neutral,tie,2,1,49,,,,,,,,
,,,,,,,,,,,,,,,802,2022-01-16_22h56.18.991,multiplicationStroop,2021.2.3,Win32,60.85686465,,,,,,,,,,,,,,,,,,,,,,,,,,,,,,,,,54,4.3842,1,0,21,21,12,1,6,×,9,6 × 9,congruent,smallerFirst,1,2,54,,,,,,,,
,,,,,,,,,,,,,,,802,2022-01-16_22h56.18.991,multiplicationStroop,2021.2.3,Win32,60.85686465,,,,,,,,,,,,,,,,,,,,,,,,,,,,,,,,,40,2.0735,1,0,22,22,6,1,5,×,8,5 × 8,congruent,smallerFirst,1,2,40,,,,,,,,
,,,,,,,,,,,,,,,802,2022-01-16_22h56.18.991,multiplicationStroop,2021.2.3,Win32,60.85686465,,,,,,,,,,,,,,,,,,,,,,,,,,,,,,,,,24,7.5429,1,0,23,23,25,1,6,×,4,6 × 4,congruent,largerFirst,2,1,24,,,,,,,,
,,,,,,,,,,,,,,,802,2022-01-16_22h56.18.991,multiplicationStroop,2021.2.3,Win32,60.85686465,,,,,,,,,,,,,,,,,,,,,,,,,,,,,,,,,18,2.3884,0,0,24,24,26,1,9,×,3,9 × 3,congruent,largerFirst,2,1,27,,,,,,,,
,,,,,,,,,,,,,,,802,2022-01-16_22h56.18.991,multiplicationStroop,2021.2.3,Win32,60.85686465,,,,,,,,,,,,,,,,,,,,,,,,,,,,,,,,,14,1.8513,1,0,25,25,14,1,7,×,2,7 × 2,congruent,largerFirst,2,1,14,,,,,,,,
,,,,,,,,,,,,,,,802,2022-01-16_22h56.18.991,multiplicationStroop,2021.2.3,Win32,60.85686465,,,,,,,,,,,,,,,,,,,,,,,,,,,,,,,,,45,2.6303,1,0,26,26,23,1,9,×,5,9 × 5,congruent,largerFirst,2,1,45,,,,,,,,
,,,,,,,,,,,,,,,802,2022-01-16_22h56.18.991,multiplicationStroop,2021.2.3,Win32,60.85686465,,,,,,,,,,,,,,,,,,,,,,,,,,,,,,,,,54,4.7365,0,0,27,27,18,1,8,×,6,8 × 6,congruent,largerFirst,2,1,48,,,,,,,,
,,,,,,,,,,,,,,,802,2022-01-16_22h56.18.991,multiplicationStroop,2021.2.3,Win32,60.85686465,,,,,,,,,,,,,,,,,,,,,,,,,,,,,,,,,42,6.3403,1,0,28,28,3,1,6,×,7,6 × 7,congruent,smallerFirst,1,2,42,,,,,,,,
,,,,,,,,,,,,,,,802,2022-01-16_22h56.18.991,multiplicationStroop,2021.2.3,Win32,60.85686465,,,,,,,,,,,,,,,,,,,,,,,,,,,,,,,,,10,1.8413,1,0,29,29,24,1,5,×,2,5 × 2,congruent,largerFirst,2,1,10,,,,,,,,
,,,,,,,,,,,,,,,802,2022-01-16_22h56.18.991,multiplicationStroop,2021.2.3,Win32,60.85686465,,,,,,,,,,,,,,,,,,,,,,,,,,,,,,,,,16,2.6921,1,0,30,30,30,1,4,×,4,4 × 4,neutral,tie,2,1,16,,,,,,,,
,,,,,,,,,,,,,,,802,2022-01-16_22h56.18.991,multiplicationStroop,2021.2.3,Win32,60.85686465,,,,,,,,,,,,,,,,,,,,,,,,,,,,,,,,,36,2.0605,1,0,31,31,32,1,6,×,6,6 × 6,neutral,tie,2,1,36,,,,,,,,
,,,,,,,,,,,,,,,802,2022-01-16_22h56.18.991,multiplicationStroop,2021.2.3,Win32,60.85686465,,,,,,,,,,,,,,,,,,,,,,,,,,,,,,,,,24,2.6093,1,0,32,32,10,1,3,×,8,3 × 8,congruent,smallerFirst,1,2,24,,,,,,,,
,,,,,,,,,,,,,,,802,2022-01-16_22h56.18.991,multiplicationStroop,2021.2.3,Win32,60.85686465,,,,,,,,,,,,,,,,,,,,,,,,,,,,,,,,,8,2.2968,1,0,33,33,9,1,2,×,4,2 × 4,congruent,smallerFirst,1,2,8,,,,,,,,
,,,,,,,,,,,,,,,802,2022-01-16_22h56.18.991,multiplicationStroop,2021.2.3,Win32,60.85686465,,,,,,,,,,,,,,,,,,,,,,,,,,,,,,,,,21,2.2681,0,0,34,34,27,1,7,×,4,7 × 4,congruent,largerFirst,2,1,28,,,,,,,,
,,,,,,,,,,,,,,,802,2022-01-16_22h56.18.991,multiplicationStroop,2021.2.3,Win32,60.85686465,,,,,,,,,,,,,,,,,,,,,,,,,,,,,,,,,63,4.0421,1,0,35,35,21,1,9,×,7,9 × 7,congruent,largerFirst,2,1,63,,,,,,,,
,,,,,,,,,,,,,,,802,2022-01-16_22h56.18.991,multiplicationStroop,2021.2.3,Win32,60.85686465,,,,,,,,,,,,,,,,,,,,,,,,,,,,,,,,,,,,,,,,,,,,,,,,,,0,4,4,2,1,stimulusFile/mult_blk3_congruent.xlsx,,
,,,,,,,,,,,,,,,802,2022-01-16_22h56.18.991,multiplicationStroop,2021.2.3,Win32,60.85686465,,,,,,,,,,,,,,,,,,,,,,,,,,,,,,,space,24.8117,32,2.7424,1,0,0,0,9,1,4,×,8,4 × 8,neutral,smallerFirst,1.5,1.5,32,,,,,,,,
,,,,,,,,,,,,,,,802,2022-01-16_22h56.18.991,multiplicationStroop,2021.2.3,Win32,60.85686465,,,,,,,,,,,,,,,,,,,,,,,,,,,,,,,,,10,1.5267,1,0,1,1,18,1,5,×,2,5 × 2,neutral,largerFirst,1.5,1.5,10,,,,,,,,
,,,,,,,,,,,,,,,802,2022-01-16_22h56.18.991,multiplicationStroop,2021.2.3,Win32,60.85686465,,,,,,,,,,,,,,,,,,,,,,,,,,,,,,,,,20,1.9688,1,0,2,2,6,1,4,×,5,4 × 5,neutral,smallerFirst,1.5,1.5,20,,,,,,,,
,,,,,,,,,,,,,,,802,2022-01-16_22h56.18.991,multiplicationStroop,2021.2.3,Win32,60.85686465,,,,,,,,,,,,,,,,,,,,,,,,,,,,,,,,,63,3.809,1,0,3,3,26,1,9,×,7,9 × 7,neutral,largerFirst,1.5,1.5,63,,,,,,,,
,,,,,,,,,,,,,,,802,2022-01-16_22h56.18.991,multiplicationStroop,2021.2.3,Win32,60.85686465,,,,,,,,,,,,,,,,,,,,,,,,,,,,,,,,,18,2.1378,1,0,4,4,4,1,2,×,9,2 × 9,neutral,smallerFirst,1.5,1.5,18,,,,,,,,
,,,,,,,,,,,,,,,802,2022-01-16_22h56.18.991,multiplicationStroop,2021.2.3,Win32,60.85686465,,,,,,,,,,,,,,,,,,,,,,,,,,,,,,,,,9,1.463,1,0,5,5,29,1,3,×,3,3 × 3,neutral,tie,1.5,1.5,9,,,,,,,,
,,,,,,,,,,,,,,,802,2022-01-16_22h56.18.991,multiplicationStroop,2021.2.3,Win32,60.85686465,,,,,,,,,,,,,,,,,,,,,,,,,,,,,,,,,45,2.4633,1,0,6,6,24,1,9,×,5,9 × 5,neutral,largerFirst,1.5,1.5,45,,,,,,,,
,,,,,,,,,,,,,,,802,2022-01-16_22h56.18.991,multiplicationStroop,2021.2.3,Win32,60.85686465,,,,,,,,,,,,,,,,,,,,,,,,,,,,,,,,,24,2.029,1,0,7,7,8,1,3,×,8,3 × 8,neutral,smallerFirst,1.5,1.5,24,,,,,,,,
,,,,,,,,,,,,,,,802,2022-01-16_22h56.18.991,multiplicationStroop,2021.2.3,Win32,60.85686465,,,,,,,,,,,,,,,,,,,,,,,,,,,,,,,,,8,1.4147,1,0,8,8,17,1,4,×,2,4 × 2,neutral,largerFirst,1.5,1.5,8,,,,,,,,
,,,,,,,,,,,,,,,802,2022-01-16_22h56.18.991,multiplicationStroop,2021.2.3,Win32,60.85686465,,,,,,,,,,,,,,,,,,,,,,,,,,,,,,,,,49,2.3021,1,0,9,9,33,1,7,×,7,7 × 7,neutral,tie,1.5,1.5,49,,,,,,,,
,,,,,,,,,,,,,,,802,2022-01-16_22h56.18.991,multiplicationStroop,2021.2.3,Win32,60.85686465,,,,,,,,,,,,,,,,,,,,,,,,,,,,,,,,,54,3.3978,1,0,10,10,21,1,9,×,6,9 × 6,neutral,largerFirst,1.5,1.5,54,,,,,,,,
,,,,,,,,,,,,,,,802,2022-01-16_22h56.18.991,multiplicationStroop,2021.2.3,Win32,60.85686465,,,,,,,,,,,,,,,,,,,,,,,,,,,,,,,,,81,4.0327,1,0,11,11,35,1,9,×,9,9 × 9,neutral,tie,1.5,1.5,81,,,,,,,,
,,,,,,,,,,,,,,,802,2022-01-16_22h56.18.991,multiplicationStroop,2021.2.3,Win32,60.85686465,,,,,,,,,,,,,,,,,,,,,,,,,,,,,,,,,21,1.4384,1,0,12,12,22,1,7,×,3,7 × 3,neutral,largerFirst,1.5,1.5,21,,,,,,,,
,,,,,,,,,,,,,,,802,2022-01-16_22h56.18.991,multiplicationStroop,2021.2.3,Win32,60.85686465,,,,,,,,,,,,,,,,,,,,,,,,,,,,,,,,,4,2.0623,1,0,13,13,28,1,2,×,2,2 × 2,neutral,tie,1.5,1.5,4,,,,,,,,
,,,,,,,,,,,,,,,802,2022-01-16_22h56.18.991,multiplicationStroop,2021.2.3,Win32,60.85686465,,,,,,,,,,,,,,,,,,,,,,,,,,,,,,,,,35,2.1125,1,0,14,14,15,1,7,×,5,7 × 5,neutral,largerFirst,1.5,1.5,35,,,,,,,,
,,,,,,,,,,,,,,,802,2022-01-16_22h56.18.991,multiplicationStroop,2021.2.3,Win32,60.85686465,,,,,,,,,,,,,,,,,,,,,,,,,,,,,,,,,36,3.731,1,0,15,15,13,1,4,×,9,4 × 9,neutral,smallerFirst,1.5,1.5,36,,,,,,,,
,,,,,,,,,,,,,,,802,2022-01-16_22h56.18.991,multiplicationStroop,2021.2.3,Win32,60.85686465,,,,,,,,,,,,,,,,,,,,,,,,,,,,,,,,,28,3.071,1,0,16,16,3,1,4,×,7,4 × 7,neutral,smallerFirst,1.5,1.5,28,,,,,,,,
,,,,,,,,,,,,,,,802,2022-01-16_22h56.18.991,multiplicationStroop,2021.2.3,Win32,60.85686465,,,,,,,,,,,,,,,,,,,,,,,,,,,,,,,,,25,2.1383,1,0,17,17,31,1,5,×,5,5 × 5,neutral,tie,1.5,1.5,25,,,,,,,,
,,,,,,,,,,,,,,,802,2022-01-16_22h56.18.991,multiplicationStroop,2021.2.3,Win32,60.85686465,,,,,,,,,,,,,,,,,,,,,,,,,,,,,,,,,16,2.0803,1,0,18,18,30,1,4,×,4,4 × 4,neutral,tie,1.5,1.5,16,,,,,,,,
,,,,,,,,,,,,,,,802,2022-01-16_22h56.18.991,multiplicationStroop,2021.2.3,Win32,60.85686465,,,,,,,,,,,,,,,,,,,,,,,,,,,,,,,,,24,9.4117,1,0,19,19,16,1,6,×,4,6 × 4,neutral,largerFirst,1.5,1.5,24,,,,,,,,
,,,,,,,,,,,,,,,802,2022-01-16_22h56.18.991,multiplicationStroop,2021.2.3,Win32,60.85686465,,,,,,,,,,,,,,,,,,,,,,,,,,,,,,,,,18,1.754,0,0,20,20,27,1,8,×,2,8 × 2,neutral,largerFirst,1.5,1.5,16,,,,,,,,
,,,,,,,,,,,,,,,802,2022-01-16_22h56.18.991,multiplicationStroop,2021.2.3,Win32,60.85686465,,,,,,,,,,,,,,,,,,,,,,,,,,,,,,,,,27,6.1967,1,0,21,21,0,1,3,×,9,3 × 9,neutral,smallerFirst,1.5,1.5,27,,,,,,,,
,,,,,,,,,,,,,,,802,2022-01-16_22h56.18.991,multiplicationStroop,2021.2.3,Win32,60.85686465,,,,,,,,,,,,,,,,,,,,,,,,,,,,,,,,,15,1.8054,1,0,22,22,19,1,5,×,3,5 × 3,neutral,largerFirst,1.5,1.5,15,,,,,,,,
,,,,,,,,,,,,,,,802,2022-01-16_22h56.18.991,multiplicationStroop,2021.2.3,Win32,60.85686465,,,,,,,,,,,,,,,,,,,,,,,,,,,,,,,,,18,2.5818,1,0,23,23,14,1,6,×,3,6 × 3,neutral,largerFirst,1.5,1.5,18,,,,,,,,
,,,,,,,,,,,,,,,802,2022-01-16_22h56.18.991,multiplicationStroop,2021.2.3,Win32,60.85686465,,,,,,,,,,,,,,,,,,,,,,,,,,,,,,,,,14,1.7884,1,0,24,24,2,1,2,×,7,2 × 7,neutral,smallerFirst,1.5,1.5,14,,,,,,,,
,,,,,,,,,,,,,,,802,2022-01-16_22h56.18.991,multiplicationStroop,2021.2.3,Win32,60.85686465,,,,,,,,,,,,,,,,,,,,,,,,,,,,,,,,,56,4.6473,1,0,25,25,23,1,8,×,7,8 × 7,neutral,largerFirst,1.5,1.5,56,,,,,,,,
,,,,,,,,,,,,,,,802,2022-01-16_22h56.18.991,multiplicationStroop,2021.2.3,Win32,60.85686465,,,,,,,,,,,,,,,,,,,,,,,,,,,,,,,,,6,1.7896,1,0,26,26,12,1,2,×,3,2 × 3,neutral,smallerFirst,1.5,1.5,6,,,,,,,,
,,,,,,,,,,,,,,,802,2022-01-16_22h56.18.991,multiplicationStroop,2021.2.3,Win32,60.85686465,,,,,,,,,,,,,,,,,,,,,,,,,,,,,,,,,40,2.199,1,0,27,27,10,1,5,×,8,5 × 8,neutral,smallerFirst,1.5,1.5,40,,,,,,,,
,,,,,,,,,,,,,,,802,2022-01-16_22h56.18.991,multiplicationStroop,2021.2.3,Win32,60.85686465,,,,,,,,,,,,,,,,,,,,,,,,,,,,,,,,,48,5.9112,1,0,28,28,1,1,6,×,8,6 × 8,neutral,smallerFirst,1.5,1.5,48,,,,,,,,
,,,,,,,,,,,,,,,802,2022-01-16_22h56.18.991,multiplicationStroop,2021.2.3,Win32,60.85686465,,,,,,,,,,,,,,,,,,,,,,,,,,,,,,,,,36,2.1195,1,0,29,29,32,1,6,×,6,6 × 6,neutral,tie,1.5,1.5,36,,,,,,,,
,,,,,,,,,,,,,,,802,2022-01-16_22h56.18.991,multiplicationStroop,2021.2.3,Win32,60.85686465,,,,,,,,,,,,,,,,,,,,,,,,,,,,,,,,,12,2.6642,1,0,30,30,11,1,2,×,6,2 × 6,neutral,smallerFirst,1.5,1.5,12,,,,,,,,
,,,,,,,,,,,,,,,802,2022-01-16_22h56.18.991,multiplicationStroop,2021.2.3,Win32,60.85686465,,,,,,,,,,,,,,,,,,,,,,,,,,,,,,,,,12,1.6489,1,0,31,31,7,1,3,×,4,3 × 4,neutral,smallerFirst,1.5,1.5,12,,,,,,,,
,,,,,,,,,,,,,,,802,2022-01-16_22h56.18.991,multiplicationStroop,2021.2.3,Win32,60.85686465,,,,,,,,,,,,,,,,,,,,,,,,,,,,,,,,,42,3.5139,1,0,32,32,20,1,7,×,6,7 × 6,neutral,largerFirst,1.5,1.5,42,,,,,,,,
,,,,,,,,,,,,,,,802,2022-01-16_22h56.18.991,multiplicationStroop,2021.2.3,Win32,60.85686465,,,,,,,,,,,,,,,,,,,,,,,,,,,,,,,,,64,8.3353,1,0,33,33,34,1,8,×,8,8 × 8,neutral,tie,1.5,1.5,64,,,,,,,,
,,,,,,,,,,,,,,,802,2022-01-16_22h56.18.991,multiplicationStroop,2021.2.3,Win32,60.85686465,,,,,,,,,,,,,,,,,,,,,,,,,,,,,,,,,30,1.9732,1,0,34,34,5,1,5,×,6,5 × 6,neutral,smallerFirst,1.5,1.5,30,,,,,,,,
,,,,,,,,,,,,,,,802,2022-01-16_22h56.18.991,multiplicationStroop,2021.2.3,Win32,60.85686465,,,,,,,,,,,,,,,,,,,,,,,,,,,,,,,,,72,5.2614,1,0,35,35,25,1,9,×,8,9 × 8,neutral,largerFirst,1.5,1.5,72,,,,,,,,
,,,,,,,,,,,,,,,802,2022-01-16_22h56.18.991,multiplicationStroop,2021.2.3,Win32,60.85686465,,,,,,,,,,,,,,,,,,,,,,,,,,,,,,,,,,,,,,,,,,,,,,,,,,0,5,5,0,1,stimulusFile/mult_blk1.xlsx,,
,,,,,,,,,,,,,,,802,2022-01-16_22h56.18.991,multiplicationStroop,2021.2.3,Win32,60.85686465,,,,,,,,,,,,,,,,,,,,,,,,,,,,,,,,,,,,,,,,,,,,,,,,,,,,,,,,space,15.928