welcomeKey_resp.keys,welcomeKey_resp.rt,X Scale,Y Scale,rt_resp_4.keys,rt_resp_4.corr,rt_resp_4.rt,speedtest_2.thisRepN,speedtest_2.thisTrialN,speedtest_2.thisN,speedtest_2.thisIndex,speedtest_2.ran,numberSc,posX,positionLayout,participant,date,expName,psychopyVersion,OS,frameRate,ct_instrresp.keys,ct_instrresp.rt,key_resp_2.keys,key_resp_2.rt,ct_keyResp.keys,ct_keyResp.corr,ct_keyResp.rt,trials.thisRepN,trials.thisTrialN,trials.thisN,trials.thisIndex,trials.ran,leftNo,rightNo,displayProblem,numDistance,leftNo_size,rightNo_size,Dims,keyAnswer,TS_Loop.thisRepN,TS_Loop.thisTrialN,TS_Loop.thisN,TS_Loop.thisIndex,TS_Loop.ran,Condition,ActionInst,instrImage,mltptaskInst_resp.keys,mltptaskInst_resp.rt,continue_resp_2.keys,continue_resp_2.rt,multp_Answer,multi_RT,multiplyCorr,LoopingMultiply.thisRepN,LoopingMultiply.thisTrialN,LoopingMultiply.thisN,LoopingMultiply.thisIndex,LoopingMultiply.ran,factor1,multiplySign,factor2,multliplyProblem,physicalSize,orderOperand,sizeF1,sizeF2,mult_answer,trials_stroop.thisRepN,trials_stroop.thisTrialN,trials_stroop.thisN,trials_stroop.thisIndex,trials_stroop.ran,multiplicationFile,esckey_resp_2.keys,esckey_resp_2.rt
y,30.0097,55,50.3,left,1,0.9442,0,0,0,1,1,2,-200,left,803,2022-01-20_19h14.07.080,multiplicationStroop,2021.2.3,Win32,59.94485074,,,,,,,,,,,,,,,,,,,,,,,,,,,,,,,,,,,,,,,,,,,,,,,,,,,,,,,,,
,,,,left,1,0.4164,0,1,1,4,1,6,-200,left,803,2022-01-20_19h14.07.080,multiplicationStroop,2021.2.3,Win32,59.94485074,,,,,,,,,,,,,,,,,,,,,,,,,,,,,,,,,,,,,,,,,,,,,,,,,,,,,,,,,
,,,,right,1,0.95,0,2,2,14,1,8,200,right,803,2022-01-20_19h14.07.080,multiplicationStroop,2021.2.3,Win32,59.94485074,,,,,,,,,,,,,,,,,,,,,,,,,,,,,,,,,,,,,,,,,,,,,,,,,,,,,,,,,
,,,,right,1,0.3578,0,3,3,12,1,6,200,right,803,2022-01-20_19h14.07.080,multiplicationStroop,2021.2.3,Win32,59.94485074,,,,,,,,,,,,,,,,,,,,,,,,,,,,,,,,,,,,,,,,,,,,,,,,,,,,,,,,,
,,,,left,1,0.3421,0,4,4,6,1,8,-200,left,803,2022-01-20_19h14.07.080,multiplicationStroop,2021.2.3,Win32,59.94485074,,,,,,,,,,,,,,,,,,,,,,,,,,,,,,,,,,,,,,,,,,,,,,,,,,,,,,,,,
,,,,left,1,0.5001,0,5,5,2,1,3,-200,left,803,2022-01-20_19h14.07.080,multiplicationStroop,2021.2.3,Win32,59.94485074,,,,,,,,,,,,,,,,,,,,,,,,,,,,,,,,,,,,,,,,,,,,,,,,,,,,,,,,,
,,,,left,1,0.2952,0,6,6,5,1,7,-200,left,803,2022-01-20_19h14.07.080,multiplicationStroop,2021.2.3,Win32,59.94485074,,,,,,,,,,,,,,,,,,,,,,,,,,,,,,,,,,,,,,,,,,,,,,,,,,,,,,,,,
,,,,right,1,0.3505,0,7,7,15,1,9,200,right,803,2022-01-20_19h14.07.080,multiplicationStroop,2021.2.3,Win32,59.94485074,,,,,,,,,,,,,,,,,,,,,,,,,,,,,,,,,,,,,,,,,,,,,,,,,,,,,,,,,
,,,,right,1,0.3259,0,8,8,10,1,3,200,right,803,2022-01-20_19h14.07.080,multiplicationStroop,2021.2.3,Win32,59.94485074,,,,,,,,,,,,,,,,,,,,,,,,,,,,,,,,,,,,,,,,,,,,,,,,,,,,,,,,,
,,,,right,1,0.278,0,9,9,11,1,4,200,right,803,2022-01-20_19h14.07.080,multiplicationStroop,2021.2.3,Win32,59.94485074,,,,,,,,,,,,,,,,,,,,,,,,,,,,,,,,,,,,,,,,,,,,,,,,,,,,,,,,,
,,,,left,1,0.2901,0,10,10,0,1,1,-200,left,803,2022-01-20_19h14.07.080,multiplicationStroop,2021.2.3,Win32,59.94485074,,,,,,,,,,,,,,,,,,,,,,,,,,,,,,,,,,,,,,,,,,,,,,,,,,,,,,,,,
,,,,right,1,0.2834,0,11,11,8,1,1,200,right,803,2022-01-20_19h14.07.080,multiplicationStroop,2021.2.3,Win32,59.94485074,,,,,,,,,,,,,,,,,,,,,,,,,,,,,,,,,,,,,,,,,,,,,,,,,,,,,,,,,
,,,,right,1,0.4389,0,12,12,9,1,2,200,right,803,2022-01-20_19h14.07.080,multiplicationStroop,2021.2.3,Win32,59.94485074,,,,,,,,,,,,,,,,,,,,,,,,,,,,,,,,,,,,,,,,,,,,,,,,,,,,,,,,,
,,,,left,1,0.3275,0,13,13,7,1,9,-200,left,803,2022-01-20_19h14.07.080,multiplicationStroop,2021.2.3,Win32,59.94485074,,,,,,,,,,,,,,,,,,,,,,,,,,,,,,,,,,,,,,,,,,,,,,,,,,,,,,,,,
,,,,left,1,0.2998,0,14,14,3,1,4,-200,left,803,2022-01-20_19h14.07.080,multiplicationStroop,2021.2.3,Win32,59.94485074,,,,,,,,,,,,,,,,,,,,,,,,,,,,,,,,,,,,,,,,,,,,,,,,,,,,,,,,,
,,,,right,1,0.3166,0,15,15,13,1,7,200,right,803,2022-01-20_19h14.07.080,multiplicationStroop,2021.2.3,Win32,59.94485074,,,,,,,,,,,,,,,,,,,,,,,,,,,,,,,,,,,,,,,,,,,,,,,,,,,,,,,,,
,,,,left,1,0.272,1,0,16,3,1,4,-200,left,803,2022-01-20_19h14.07.080,multiplicationStroop,2021.2.3,Win32,59.94485074,,,,,,,,,,,,,,,,,,,,,,,,,,,,,,,,,,,,,,,,,,,,,,,,,,,,,,,,,
,,,,left,1,0.3499,1,1,17,1,1,2,-200,left,803,2022-01-20_19h14.07.080,multiplicationStroop,2021.2.3,Win32,59.94485074,,,,,,,,,,,,,,,,,,,,,,,,,,,,,,,,,,,,,,,,,,,,,,,,,,,,,,,,,
,,,,left,1,0.3661,1,2,18,4,1,6,-200,left,803,2022-01-20_19h14.07.080,multiplicationStroop,2021.2.3,Win32,59.94485074,,,,,,,,,,,,,,,,,,,,,,,,,,,,,,,,,,,,,,,,,,,,,,,,,,,,,,,,,
,,,,left,1,0.3545,1,3,19,2,1,3,-200,left,803,2022-01-20_19h14.07.080,multiplicationStroop,2021.2.3,Win32,59.94485074,,,,,,,,,,,,,,,,,,,,,,,,,,,,,,,,,,,,,,,,,,,,,,,,,,,,,,,,,
,,,,right,1,0.4095,1,4,20,11,1,4,200,right,803,2022-01-20_19h14.07.080,multiplicationStroop,2021.2.3,Win32,59.94485074,,,,,,,,,,,,,,,,,,,,,,,,,,,,,,,,,,,,,,,,,,,,,,,,,,,,,,,,,
,,,,left,1,0.4754,1,5,21,7,1,9,-200,left,803,2022-01-20_19h14.07.080,multiplicationStroop,2021.2.3,Win32,59.94485074,,,,,,,,,,,,,,,,,,,,,,,,,,,,,,,,,,,,,,,,,,,,,,,,,,,,,,,,,
,,,,right,1,0.3245,1,6,22,10,1,3,200,right,803,2022-01-20_19h14.07.080,multiplicationStroop,2021.2.3,Win32,59.94485074,,,,,,,,,,,,,,,,,,,,,,,,,,,,,,,,,,,,,,,,,,,,,,,,,,,,,,,,,
,,,,right,1,0.4498,1,7,23,14,1,8,200,right,803,2022-01-20_19h14.07.080,multiplicationStroop,2021.2.3,Win32,59.94485074,,,,,,,,,,,,,,,,,,,,,,,,,,,,,,,,,,,,,,,,,,,,,,,,,,,,,,,,,
,,,,left,1,0.433,1,8,24,5,1,7,-200,left,803,2022-01-20_19h14.07.080,multiplicationStroop,2021.2.3,Win32,59.94485074,,,,,,,,,,,,,,,,,,,,,,,,,,,,,,,,,,,,,,,,,,,,,,,,,,,,,,,,,
,,,,right,1,0.4024,1,9,25,8,1,1,200,right,803,2022-01-20_19h14.07.080,multiplicationStroop,2021.2.3,Win32,59.94485074,,,,,,,,,,,,,,,,,,,,,,,,,,,,,,,,,,,,,,,,,,,,,,,,,,,,,,,,,
,,,,left,1,0.2941,1,10,26,0,1,1,-200,left,803,2022-01-20_19h14.07.080,multiplicationStroop,2021.2.3,Win32,59.94485074,,,,,,,,,,,,,,,,,,,,,,,,,,,,,,,,,,,,,,,,,,,,,,,,,,,,,,,,,
,,,,left,1,0.3163,1,11,27,6,1,8,-200,left,803,2022-01-20_19h14.07.080,multiplicationStroop,2021.2.3,Win32,59.94485074,,,,,,,,,,,,,,,,,,,,,,,,,,,,,,,,,,,,,,,,,,,,,,,,,,,,,,,,,
,,,,right,1,0.4361,1,12,28,12,1,6,200,right,803,2022-01-20_19h14.07.080,multiplicationStroop,2021.2.3,Win32,59.94485074,,,,,,,,,,,,,,,,,,,,,,,,,,,,,,,,,,,,,,,,,,,,,,,,,,,,,,,,,
,,,,right,1,0.35,1,13,29,15,1,9,200,right,803,2022-01-20_19h14.07.080,multiplicationStroop,2021.2.3,Win32,59.94485074,,,,,,,,,,,,,,,,,,,,,,,,,,,,,,,,,,,,,,,,,,,,,,,,,,,,,,,,,
,,,,right,1,0.3704,1,14,30,13,1,7,200,right,803,2022-01-20_19h14.07.080,multiplicationStroop,2021.2.3,Win32,59.94485074,,,,,,,,,,,,,,,,,,,,,,,,,,,,,,,,,,,,,,,,,,,,,,,,,,,,,,,,,
,,,,right,1,0.2916,1,15,31,9,1,2,200,right,803,2022-01-20_19h14.07.080,multiplicationStroop,2021.2.3,Win32,59.94485074,,,,,,,,,,,,,,,,,,,,,,,,,,,,,,,,,,,,,,,,,,,,,,,,,,,,,,,,,
,,,,left,1,0.4165,2,0,32,7,1,9,-200,left,803,2022-01-20_19h14.07.080,multiplicationStroop,2021.2.3,Win32,59.94485074,,,,,,,,,,,,,,,,,,,,,,,,,,,,,,,,,,,,,,,,,,,,,,,,,,,,,,,,,
,,,,left,1,0.3118,2,1,33,5,1,7,-200,left,803,2022-01-20_19h14.07.080,multiplicationStroop,2021.2.3,Win32,59.94485074,,,,,,,,,,,,,,,,,,,,,,,,,,,,,,,,,,,,,,,,,,,,,,,,,,,,,,,,,
,,,,right,1,0.4365,2,2,34,13,1,7,200,right,803,2022-01-20_19h14.07.080,multiplicationStroop,2021.2.3,Win32,59.94485074,,,,,,,,,,,,,,,,,,,,,,,,,,,,,,,,,,,,,,,,,,,,,,,,,,,,,,,,,
,,,,left,1,0.4666,2,3,35,4,1,6,-200,left,803,2022-01-20_19h14.07.080,multiplicationStroop,2021.2.3,Win32,59.94485074,,,,,,,,,,,,,,,,,,,,,,,,,,,,,,,,,,,,,,,,,,,,,,,,,,,,,,,,,
,,,,right,1,0.3669,2,4,36,9,1,2,200,right,803,2022-01-20_19h14.07.080,multiplicationStroop,2021.2.3,Win32,59.94485074,,,,,,,,,,,,,,,,,,,,,,,,,,,,,,,,,,,,,,,,,,,,,,,,,,,,,,,,,
,,,,left,1,0.3249,2,5,37,2,1,3,-200,left,803,2022-01-20_19h14.07.080,multiplicationStroop,2021.2.3,Win32,59.94485074,,,,,,,,,,,,,,,,,,,,,,,,,,,,,,,,,,,,,,,,,,,,,,,,,,,,,,,,,
,,,,right,1,0.3051,2,6,38,8,1,1,200,right,803,2022-01-20_19h14.07.080,multiplicationStroop,2021.2.3,Win32,59.94485074,,,,,,,,,,,,,,,,,,,,,,,,,,,,,,,,,,,,,,,,,,,,,,,,,,,,,,,,,
,,,,right,1,0.4695,2,7,39,14,1,8,200,right,803,2022-01-20_19h14.07.080,multiplicationStroop,2021.2.3,Win32,59.94485074,,,,,,,,,,,,,,,,,,,,,,,,,,,,,,,,,,,,,,,,,,,,,,,,,,,,,,,,,
,,,,right,1,0.4033,2,8,40,12,1,6,200,right,803,2022-01-20_19h14.07.080,multiplicationStroop,2021.2.3,Win32,59.94485074,,,,,,,,,,,,,,,,,,,,,,,,,,,,,,,,,,,,,,,,,,,,,,,,,,,,,,,,,
,,,,right,1,0.4168,2,9,41,15,1,9,200,right,803,2022-01-20_19h14.07.080,multiplicationStroop,2021.2.3,Win32,59.94485074,,,,,,,,,,,,,,,,,,,,,,,,,,,,,,,,,,,,,,,,,,,,,,,,,,,,,,,,,
,,,,left,1,0.3911,2,10,42,1,1,2,-200,left,803,2022-01-20_19h14.07.080,multiplicationStroop,2021.2.3,Win32,59.94485074,,,,,,,,,,,,,,,,,,,,,,,,,,,,,,,,,,,,,,,,,,,,,,,,,,,,,,,,,
,,,,left,1,0.3646,2,11,43,0,1,1,-200,left,803,2022-01-20_19h14.07.080,multiplicationStroop,2021.2.3,Win32,59.94485074,,,,,,,,,,,,,,,,,,,,,,,,,,,,,,,,,,,,,,,,,,,,,,,,,,,,,,,,,
,,,,right,1,0.3193,2,12,44,10,1,3,200,right,803,2022-01-20_19h14.07.080,multiplicationStroop,2021.2.3,Win32,59.94485074,,,,,,,,,,,,,,,,,,,,,,,,,,,,,,,,,,,,,,,,,,,,,,,,,,,,,,,,,
,,,,left,1,0.3501,2,13,45,3,1,4,-200,left,803,2022-01-20_19h14.07.080,multiplicationStroop,2021.2.3,Win32,59.94485074,,,,,,,,,,,,,,,,,,,,,,,,,,,,,,,,,,,,,,,,,,,,,,,,,,,,,,,,,
,,,,right,0,0.3575,2,14,46,6,1,8,-200,left,803,2022-01-20_19h14.07.080,multiplicationStroop,2021.2.3,Win32,59.94485074,,,,,,,,,,,,,,,,,,,,,,,,,,,,,,,,,,,,,,,,,,,,,,,,,,,,,,,,,
,,,,right,1,0.816,2,15,47,11,1,4,200,right,803,2022-01-20_19h14.07.080,multiplicationStroop,2021.2.3,Win32,59.94485074,,,,,,,,,,,,,,,,,,,,,,,,,,,,,,,,,,,,,,,,,,,,,,,,,,,,,,,,,
,,,,left,1,0.3057,3,0,48,1,1,2,-200,left,803,2022-01-20_19h14.07.080,multiplicationStroop,2021.2.3,Win32,59.94485074,,,,,,,,,,,,,,,,,,,,,,,,,,,,,,,,,,,,,,,,,,,,,,,,,,,,,,,,,
,,,,left,1,0.3762,3,1,49,7,1,9,-200,left,803,2022-01-20_19h14.07.080,multiplicationStroop,2021.2.3,Win32,59.94485074,,,,,,,,,,,,,,,,,,,,,,,,,,,,,,,,,,,,,,,,,,,,,,,,,,,,,,,,,
,,,,left,1,0.402,3,2,50,0,1,1,-200,left,803,2022-01-20_19h14.07.080,multiplicationStroop,2021.2.3,Win32,59.94485074,,,,,,,,,,,,,,,,,,,,,,,,,,,,,,,,,,,,,,,,,,,,,,,,,,,,,,,,,
,,,,right,1,0.3737,3,3,51,12,1,6,200,right,803,2022-01-20_19h14.07.080,multiplicationStroop,2021.2.3,Win32,59.94485074,,,,,,,,,,,,,,,,,,,,,,,,,,,,,,,,,,,,,,,,,,,,,,,,,,,,,,,,,
,,,,left,1,0.3329,3,4,52,4,1,6,-200,left,803,2022-01-20_19h14.07.080,multiplicationStroop,2021.2.3,Win32,59.94485074,,,,,,,,,,,,,,,,,,,,,,,,,,,,,,,,,,,,,,,,,,,,,,,,,,,,,,,,,
,,,,right,1,0.3699,3,5,53,14,1,8,200,right,803,2022-01-20_19h14.07.080,multiplicationStroop,2021.2.3,Win32,59.94485074,,,,,,,,,,,,,,,,,,,,,,,,,,,,,,,,,,,,,,,,,,,,,,,,,,,,,,,,,
,,,,right,1,0.4498,3,6,54,11,1,4,200,right,803,2022-01-20_19h14.07.080,multiplicationStroop,2021.2.3,Win32,59.94485074,,,,,,,,,,,,,,,,,,,,,,,,,,,,,,,,,,,,,,,,,,,,,,,,,,,,,,,,,
,,,,left,1,0.3831,3,7,55,5,1,7,-200,left,803,2022-01-20_19h14.07.080,multiplicationStroop,2021.2.3,Win32,59.94485074,,,,,,,,,,,,,,,,,,,,,,,,,,,,,,,,,,,,,,,,,,,,,,,,,,,,,,,,,
,,,,left,1,0.3346,3,8,56,3,1,4,-200,left,803,2022-01-20_19h14.07.080,multiplicationStroop,2021.2.3,Win32,59.94485074,,,,,,,,,,,,,,,,,,,,,,,,,,,,,,,,,,,,,,,,,,,,,,,,,,,,,,,,,
,,,,right,1,0.2836,3,9,57,8,1,1,200,right,803,2022-01-20_19h14.07.080,multiplicationStroop,2021.2.3,Win32,59.94485074,,,,,,,,,,,,,,,,,,,,,,,,,,,,,,,,,,,,,,,,,,,,,,,,,,,,,,,,,
,,,,left,1,0.3502,3,10,58,6,1,8,-200,left,803,2022-01-20_19h14.07.080,multiplicationStroop,2021.2.3,Win32,59.94485074,,,,,,,,,,,,,,,,,,,,,,,,,,,,,,,,,,,,,,,,,,,,,,,,,,,,,,,,,
,,,,right,1,0.5766,3,11,59,15,1,9,200,right,803,2022-01-20_19h14.07.080,multiplicationStroop,2021.2.3,Win32,59.94485074,,,,,,,,,,,,,,,,,,,,,,,,,,,,,,,,,,,,,,,,,,,,,,,,,,,,,,,,,
,,,,left,1,0.3666,3,12,60,2,1,3,-200,left,803,2022-01-20_19h14.07.080,multiplicationStroop,2021.2.3,Win32,59.94485074,,,,,,,,,,,,,,,,,,,,,,,,,,,,,,,,,,,,,,,,,,,,,,,,,,,,,,,,,
,,,,right,1,0.3106,3,13,61,10,1,3,200,right,803,2022-01-20_19h14.07.080,multiplicationStroop,2021.2.3,Win32,59.94485074,,,,,,,,,,,,,,,,,,,,,,,,,,,,,,,,,,,,,,,,,,,,,,,,,,,,,,,,,
,,,,right,1,0.4001,3,14,62,9,1,2,200,right,803,2022-01-20_19h14.07.080,multiplicationStroop,2021.2.3,Win32,59.94485074,,,,,,,,,,,,,,,,,,,,,,,,,,,,,,,,,,,,,,,,,,,,,,,,,,,,,,,,,
,,,,right,1,0.4829,3,15,63,13,1,7,200,right,803,2022-01-20_19h14.07.080,multiplicationStroop,2021.2.3,Win32,59.94485074,,,,,,,,,,,,,,,,,,,,,,,,,,stimulusFile/magnitude.xlsx,,,,,,,,,,,,,,,,,,,,,,,,,,,,,,,
,,,,,,,,,,,,,,,803,2022-01-20_19h14.07.080,multiplicationStroop,2021.2.3,Win32,59.94485074,space,69.4052,space,4.4673,left,1,1.5439,0,0,0,21,1,7,2,7 | 2,5,1.9756,1.4111,congruent,left,,,,,,stimulusFile/magnitude.xlsx,,,,,,,,,,,,,,,,,,,,,,,,,,,,,,,
,,,,,,,,,,,,,,,803,2022-01-20_19h14.07.080,multiplicationStroop,2021.2.3,Win32,59.94485074,,,,,right,1,0.7576,0,1,1,40,1,1,6,1 | 6,5,1.9756,1.4111,incongruent,right,,,,,,stimulusFile/magnitude.xlsx,,,,,,,,,,,,,,,,,,,,,,,,,,,,,,,
,,,,,,,,,,,,,,,803,2022-01-20_19h14.07.080,multiplicationStroop,2021.2.3,Win32,59.94485074,,,,,left,1,0.7907,0,2,2,15,1,9,7,9 | 7,2,1.9756,1.4111,congruent,left,,,,,,stimulusFile/magnitude.xlsx,,,,,,,,,,,,,,,,,,,,,,,,,,,,,,,
,,,,,,,,,,,,,,,803,2022-01-20_19h14.07.080,multiplicationStroop,2021.2.3,Win32,59.94485074,,,,,right,1,0.5602,0,3,3,16,1,1,6,1 | 6,5,1.4111,1.9756,congruent,right,,,,,,stimulusFile/magnitude.xlsx,,,,,,,,,,,,,,,,,,,,,,,,,,,,,,,
,,,,,,,,,,,,,,,803,2022-01-20_19h14.07.080,multiplicationStroop,2021.2.3,Win32,59.94485074,,,,,right,1,0.7989,0,4,4,9,1,2,4,2 | 4,2,1.4111,1.9756,congruent,right,,,,,,stimulusFile/magnitude.xlsx,,,,,,,,,,,,,,,,,,,,,,,,,,,,,,,
,,,,,,,,,,,,,,,803,2022-01-20_19h14.07.080,multiplicationStroop,2021.2.3,Win32,59.94485074,,,,,left,1,1.9977,0,5,5,46,1,8,3,8 | 3,5,1.4111,1.9756,incongruent,left,,,,,,stimulusFile/magnitude.xlsx,,,,,,,,,,,,,,,,,,,,,,,,,,,,,,,
,,,,,,,,,,,,,,,803,2022-01-20_19h14.07.080,multiplicationStroop,2021.2.3,Win32,59.94485074,,,,,right,1,0.7331,0,6,6,41,1,2,7,2 | 7,5,1.9756,1.4111,incongruent,right,,,,,,stimulusFile/magnitude.xlsx,,,,,,,,,,,,,,,,,,,,,,,,,,,,,,,
,,,,,,,,,,,,,,,803,2022-01-20_19h14.07.080,multiplicationStroop,2021.2.3,Win32,59.94485074,,,,,right,1,0.5615,0,7,7,33,1,2,4,2 | 4,2,1.9756,1.4111,incongruent,right,,,,,,stimulusFile/magnitude.xlsx,,,,,,,,,,,,,,,,,,,,,,,,,,,,,,,
,,,,,,,,,,,,,,,803,2022-01-20_19h14.07.080,multiplicationStroop,2021.2.3,Win32,59.94485074,,,,,right,1,0.9421,0,8,8,1,1,3,4,3 | 4,1,1.4111,1.9756,congruent,right,,,,,,stimulusFile/magnitude.xlsx,,,,,,,,,,,,,,,,,,,,,,,,,,,,,,,
,,,,,,,,,,,,,,,803,2022-01-20_19h14.07.080,multiplicationStroop,2021.2.3,Win32,59.94485074,,,,,left,1,0.8161,0,9,9,45,1,7,2,7 | 2,5,1.4111,1.9756,incongruent,left,,,,,,stimulusFile/magnitude.xlsx,,,,,,,,,,,,,,,,,,,,,,,,,,,,,,,
,,,,,,,,,,,,,,,803,2022-01-20_19h14.07.080,multiplicationStroop,2021.2.3,Win32,59.94485074,,,,,right,1,0.9504,0,10,10,10,1,6,8,6 | 8,2,1.4111,1.9756,congruent,right,,,,,,stimulusFile/magnitude.xlsx,,,,,,,,,,,,,,,,,,,,,,,,,,,,,,,
,,,,,,,,,,,,,,,803,2022-01-20_19h14.07.080,multiplicationStroop,2021.2.3,Win32,59.94485074,,,,,right,1,0.8158,0,11,11,3,1,8,9,8 | 9,1,1.4111,1.9756,congruent,right,,,,,,stimulusFile/magnitude.xlsx,,,,,,,,,,,,,,,,,,,,,,,,,,,,,,,
,,,,,,,,,,,,,,,803,2022-01-20_19h14.07.080,multiplicationStroop,2021.2.3,Win32,59.94485074,,,,,right,1,0.6701,0,12,12,58,1,6,8,6 | 8,2,1.6933,1.6933,neutral,right,,,,,,stimulusFile/magnitude.xlsx,,,,,,,,,,,,,,,,,,,,,,,,,,,,,,,
,,,,,,,,,,,,,,,803,2022-01-20_19h14.07.080,multiplicationStroop,2021.2.3,Win32,59.94485074,,,,,left,1,0.833,0,13,13,22,1,8,3,8 | 3,5,1.9756,1.4111,congruent,left,,,,,,stimulusFile/magnitude.xlsx,,,,,,,,,,,,,,,,,,,,,,,,,,,,,,,
,,,,,,,,,,,,,,,803,2022-01-20_19h14.07.080,multiplicationStroop,2021.2.3,Win32,59.94485074,,,,,left,1,1.1652,0,14,14,28,1,2,1,2 | 1,1,1.4111,1.9756,incongruent,left,,,,,,stimulusFile/magnitude.xlsx,,,,,,,,,,,,,,,,,,,,,,,,,,,,,,,
,,,,,,,,,,,,,,,803,2022-01-20_19h14.07.080,multiplicationStroop,2021.2.3,Win32,59.94485074,,,,,right,1,1.3818,0,15,15,27,1,8,9,8 | 9,1,1.9756,1.4111,incongruent,right,,,,,,stimulusFile/magnitude.xlsx,,,,,,,,,,,,,,,,,,,,,,,,,,,,,,,
,,,,,,,,,,,,,,,803,2022-01-20_19h14.07.080,multiplicationStroop,2021.2.3,Win32,59.94485074,,,,,right,1,0.7226,0,16,16,8,1,1,3,1 | 3,2,1.4111,1.9756,congruent,right,,,,,,stimulusFile/magnitude.xlsx,,,,,,,,,,,,,,,,,,,,,,,,,,,,,,,
,,,,,,,,,,,,,,,803,2022-01-20_19h14.07.080,multiplicationStroop,2021.2.3,Win32,59.94485074,,,,,left,1,0.8194,0,17,17,38,1,8,6,8 | 6,2,1.4111,1.9756,incongruent,left,,,,,,stimulusFile/magnitude.xlsx,,,,,,,,,,,,,,,,,,,,,,,,,,,,,,,
,,,,,,,,,,,,,,,803,2022-01-20_19h14.07.080,multiplicationStroop,2021.2.3,Win32,59.94485074,,,,,right,1,0.6849,0,18,18,17,1,2,7,2 | 7,5,1.4111,1.9756,congruent,right,,,,,,stimulusFile/magnitude.xlsx,,,,,,,,,,,,,,,,,,,,,,,,,,,,,,,
,,,,,,,,,,,,,,,803,2022-01-20_19h14.07.080,multiplicationStroop,2021.2.3,Win32,59.94485074,,,,,left,1,0.7933,0,19,19,31,1,9,8,9 | 8,1,1.4111,1.9756,incongruent,left,,,,,,stimulusFile/magnitude.xlsx,,,,,,,,,,,,,,,,,,,,,,,,,,,,,,,
,,,,,,,,,,,,,,,803,2022-01-20_19h14.07.080,multiplicationStroop,2021.2.3,Win32,59.94485074,,,,,left,1,0.7261,0,20,20,39,1,9,7,9 | 7,2,1.4111,1.9756,incongruent,left,,,,,,stimulusFile/magnitude.xlsx,,,,,,,,,,,,,,,,,,,,,,,,,,,,,,,
,,,,,,,,,,,,,,,803,2022-01-20_19h14.07.080,multiplicationStroop,2021.2.3,Win32,59.94485074,,,,,right,1,0.7006,0,21,21,48,1,1,2,1 | 2,1,1.6933,1.6933,neutral,right,,,,,,stimulusFile/magnitude.xlsx,,,,,,,,,,,,,,,,,,,,,,,,,,,,,,,
,,,,,,,,,,,,,,,803,2022-01-20_19h14.07.080,multiplicationStroop,2021.2.3,Win32,59.94485074,,,,,left,1,0.5668,0,22,22,36,1,3,1,3 | 1,2,1.4111,1.9756,incongruent,left,,,,,,stimulusFile/magnitude.xlsx,,,,,,,,,,,,,,,,,,,,,,,,,,,,,,,
,,,,,,,,,,,,,,,803,2022-01-20_19h14.07.080,multiplicationStroop,2021.2.3,Win32,59.94485074,,,,,left,1,0.6403,0,23,23,12,1,3,1,3 | 1,2,1.9756,1.4111,congruent,left,,,,,,stimulusFile/magnitude.xlsx,,,,,,,,,,,,,,,,,,,,,,,,,,,,,,,
,,,,,,,,,,,,,,,803,2022-01-20_19h14.07.080,multiplicationStroop,2021.2.3,Win32,59.94485074,,,,,left,1,1.0095,0,24,24,63,1,9,7,9 | 7,2,1.6933,1.6933,neutral,left,,,,,,stimulusFile/magnitude.xlsx,,,,,,,,,,,,,,,,,,,,,,,,,,,,,,,
,,,,,,,,,,,,,,,803,2022-01-20_19h14.07.080,multiplicationStroop,2021.2.3,Win32,59.94485074,,,,,left,1,0.683,0,25,25,29,1,4,3,4 | 3,1,1.4111,1.9756,incongruent,left,,,,,,stimulusFile/magnitude.xlsx,,,,,,,,,,,,,,,,,,,,,,,,,,,,,,,
,,,,,,,,,,,,,,,803,2022-01-20_19h14.07.080,multiplicationStroop,2021.2.3,Win32,59.94485074,,,,,right,1,0.6494,0,26,26,57,1,2,4,2 | 4,2,1.6933,1.6933,neutral,right,,,,,,stimulusFile/magnitude.xlsx,,,,,,,,,,,,,,,,,,,,,,,,,,,,,,,
,,,,,,,,,,,,,,,803,2022-01-20_19h14.07.080,multiplicationStroop,2021.2.3,Win32,59.94485074,,,,,left,1,0.5881,0,27,27,53,1,4,3,4 | 3,1,1.6933,1.6933,neutral,left,,,,,,stimulusFile/magnitude.xlsx,,,,,,,,,,,,,,,,,,,,,,,,,,,,,,,
,,,,,,,,,,,,,,,803,2022-01-20_19h14.07.080,multiplicationStroop,2021.2.3,Win32,59.94485074,,,,,left,1,0.5097,0,28,28,69,1,7,2,7 | 2,5,1.6933,1.6933,neutral,left,,,,,,stimulusFile/magnitude.xlsx,,,,,,,,,,,,,,,,,,,,,,,,,,,,,,,
,,,,,,,,,,,,,,,803,2022-01-20_19h14.07.080,multiplicationStroop,2021.2.3,Win32,59.94485074,,,,,right,1,0.5925,0,29,29,0,1,1,2,1 | 2,1,1.4111,1.9756,congruent,right,,,,,,stimulusFile/magnitude.xlsx,,,,,,,,,,,,,,,,,,,,,,,,,,,,,,,
,,,,,,,,,,,,,,,803,2022-01-20_19h14.07.080,multiplicationStroop,2021.2.3,Win32,59.94485074,,,,,right,1,0.7662,0,30,30,25,1,3,4,3 | 4,1,1.9756,1.4111,incongruent,right,,,,,,stimulusFile/magnitude.xlsx,,,,,,,,,,,,,,,,,,,,,,,,,,,,,,,
,,,,,,,,,,,,,,,803,2022-01-20_19h14.07.080,multiplicationStroop,2021.2.3,Win32,59.94485074,,,,,right,1,0.6092,0,31,31,66,1,3,8,3 | 8,5,1.6933,1.6933,neutral,right,,,,,,stimulusFile/magnitude.xlsx,,,,,,,,,,,,,,,,,,,,,,,,,,,,,,,
,,,,,,,,,,,,,,,803,2022-01-20_19h14.07.080,multiplicationStroop,2021.2.3,Win32,59.94485074,,,,,right,1,1.0494,0,32,32,51,1,8,9,8 | 9,1,1.6933,1.6933,neutral,right,,,,,,stimulusFile/magnitude.xlsx,,,,,,,,,,,,,,,,,,,,,,,,,,,,,,,
,,,,,,,,,,,,,,,803,2022-01-20_19h14.07.080,multiplicationStroop,2021.2.3,Win32,59.94485074,,,,,right,1,0.6426,0,33,33,50,1,6,7,6 | 7,1,1.6933,1.6933,neutral,right,,,,,,stimulusFile/magnitude.xlsx,,,,,,,,,,,,,,,,,,,,,,,,,,,,,,,
,,,,,,,,,,,,,,,803,2022-01-20_19h14.07.080,multiplicationStroop,2021.2.3,Win32,59.94485074,,,,,left,1,0.6164,0,34,34,71,1,9,4,9 | 4,5,1.6933,1.6933,neutral,left,,,,,,stimulusFile/magnitude.xlsx,,,,,,,,,,,,,,,,,,,,,,,,,,,,,,,
,,,,,,,,,,,,,,,803,2022-01-20_19h14.07.080,multiplicationStroop,2021.2.3,Win32,59.94485074,,,,,right,1,0.5755,0,35,35,24,1,1,2,1 | 2,1,1.9756,1.4111,incongruent,right,,,,,,stimulusFile/magnitude.xlsx,,,,,,,,,,,,,,,,,,,,,,,,,,,,,,,
,,,,,,,,,,,,,,,803,2022-01-20_19h14.07.080,multiplicationStroop,2021.2.3,Win32,59.94485074,,,,,right,1,0.7825,0,36,36,19,1,4,9,4 | 9,5,1.4111,1.9756,congruent,right,,,,,,stimulusFile/magnitude.xlsx,,,,,,,,,,,,,,,,,,,,,,,,,,,,,,,
,,,,,,,,,,,,,,,803,2022-01-20_19h14.07.080,multiplicationStroop,2021.2.3,Win32,59.94485074,,,,,right,1,0.5665,0,37,37,56,1,1,3,1 | 3,2,1.6933,1.6933,neutral,right,,,,,,stimulusFile/magnitude.xlsx,,,,,,,,,,,,,,,,,,,,,,,,,,,,,,,
,,,,,,,,,,,,,,,803,2022-01-20_19h14.07.080,multiplicationStroop,2021.2.3,Win32,59.94485074,,,,,left,1,0.6069,0,38,38,37,1,4,2,4 | 2,2,1.4111,1.9756,incongruent,left,,,,,,stimulusFile/magnitude.xlsx,,,,,,,,,,,,,,,,,,,,,,,,,,,,,,,
,,,,,,,,,,,,,,,803,2022-01-20_19h14.07.080,multiplicationStroop,2021.2.3,Win32,59.94485074,,,,,left,1,0.7495,0,39,39,54,1,7,6,7 | 6,1,1.6933,1.6933,neutral,left,,,,,,stimulusFile/magnitude.xlsx,,,,,,,,,,,,,,,,,,,,,,,,,,,,,,,
,,,,,,,,,,,,,,,803,2022-01-20_19h14.07.080,multiplicationStroop,2021.2.3,Win32,59.94485074,,,,,left,1,0.5548,0,40,40,52,1,2,1,2 | 1,1,1.6933,1.6933,neutral,left,,,,,,stimulusFile/magnitude.xlsx,,,,,,,,,,,,,,,,,,,,,,,,,,,,,,,
,,,,,,,,,,,,,,,803,2022-01-20_19h14.07.080,multiplicationStroop,2021.2.3,Win32,59.94485074,,,,,right,1,0.6995,0,41,41,59,1,7,9,7 | 9,2,1.6933,1.6933,neutral,right,,,,,,stimulusFile/magnitude.xlsx,,,,,,,,,,,,,,,,,,,,,,,,,,,,,,,
,,,,,,,,,,,,,,,803,2022-01-20_19h14.07.080,multiplicationStroop,2021.2.3,Win32,59.94485074,,,,,left,1,0.8895,0,42,42,62,1,8,6,8 | 6,2,1.6933,1.6933,neutral,left,,,,,,stimulusFile/magnitude.xlsx,,,,,,,,,,,,,,,,,,,,,,,,,,,,,,,
,,,,,,,,,,,,,,,803,2022-01-20_19h14.07.080,multiplicationStroop,2021.2.3,Win32,59.94485074,,,,,right,1,0.6736,0,43,43,67,1,4,9,4 | 9,5,1.6933,1.6933,neutral,right,,,,,,stimulusFile/magnitude.xlsx,,,,,,,,,,,,,,,,,,,,,,,,,,,,,,,
,,,,,,,,,,,,,,,803,2022-01-20_19h14.07.080,multiplicationStroop,2021.2.3,Win32,59.94485074,,,,,right,1,0.8044,0,44,44,35,1,7,9,7 | 9,2,1.9756,1.4111,incongruent,right,,,,,,stimulusFile/magnitude.xlsx,,,,,,,,,,,,,,,,,,,,,,,,,,,,,,,
,,,,,,,,,,,,,,,803,2022-01-20_19h14.07.080,multiplicationStroop,2021.2.3,Win32,59.94485074,,,,,right,1,0.7326,0,45,45,18,1,3,8,3 | 8,5,1.4111,1.9756,congruent,right,,,,,,stimulusFile/magnitude.xlsx,,,,,,,,,,,,,,,,,,,,,,,,,,,,,,,
,,,,,,,,,,,,,,,803,2022-01-20_19h14.07.080,multiplicationStroop,2021.2.3,Win32,59.94485074,,,,,left,1,0.5756,0,46,46,4,1,2,1,2 | 1,1,1.9756,1.4111,congruent,left,,,,,,stimulusFile/magnitude.xlsx,,,,,,,,,,,,,,,,,,,,,,,,,,,,,,,
,,,,,,,,,,,,,,,803,2022-01-20_19h14.07.080,multiplicationStroop,2021.2.3,Win32,59.94485074,,,,,right,1,0.5599,0,47,47,2,1,6,7,6 | 7,1,1.4111,1.9756,congruent,right,,,,,,stimulusFile/magnitude.xlsx,,,,,,,,,,,,,,,,,,,,,,,,,,,,,,,
,,,,,,,,,,,,,,,803,2022-01-20_19h14.07.080,multiplicationStroop,2021.2.3,Win32,59.94485074,,,,,right,1,0.6,0,48,48,65,1,2,7,2 | 7,5,1.6933,1.6933,neutral,right,,,,,,stimulusFile/magnitude.xlsx,,,,,,,,,,,,,,,,,,,,,,,,,,,,,,,
,,,,,,,,,,,,,,,803,2022-01-20_19h14.07.080,multiplicationStroop,2021.2.3,Win32,59.94485074,,,,,right,1,0.7507,0,49,49,26,1,6,7,6 | 7,1,1.9756,1.4111,incongruent,right,,,,,,stimulusFile/magnitude.xlsx,,,,,,,,,,,,,,,,,,,,,,,,,,,,,,,
,,,,,,,,,,,,,,,803,2022-01-20_19h14.07.080,multiplicationStroop,2021.2.3,Win32,59.94485074,,,,,left,1,0.7381,0,50,50,55,1,9,8,9 | 8,1,1.6933,1.6933,neutral,left,,,,,,stimulusFile/magnitude.xlsx,,,,,,,,,,,,,,,,,,,,,,,,,,,,,,,
,,,,,,,,,,,,,,,803,2022-01-20_19h14.07.080,multiplicationStroop,2021.2.3,Win32,59.94485074,,,,,left,1,0.5325,0,51,51,70,1,8,3,8 | 3,5,1.6933,1.6933,neutral,left,,,,,,stimulusFile/magnitude.xlsx,,,,,,,,,,,,,,,,,,,,,,,,,,,,,,,
,,,,,,,,,,,,,,,803,2022-01-20_19h14.07.080,multiplicationStroop,2021.2.3,Win32,59.94485074,,,,,right,0,0.5166,0,52,52,47,1,9,4,9 | 4,5,1.4111,1.9756,incongruent,left,,,,,,stimulusFile/magnitude.xlsx,,,,,,,,,,,,,,,,,,,,,,,,,,,,,,,
,,,,,,,,,,,,,,,803,2022-01-20_19h14.07.080,multiplicationStroop,2021.2.3,Win32,59.94485074,,,,,right,1,1.1922,0,53,53,11,1,7,9,7 | 9,2,1.4111,1.9756,congruent,right,,,,,,stimulusFile/magnitude.xlsx,,,,,,,,,,,,,,,,,,,,,,,,,,,,,,,
,,,,,,,,,,,,,,,803,2022-01-20_19h14.07.080,multiplicationStroop,2021.2.3,Win32,59.94485074,,,,,left,1,0.6329,0,54,54,60,1,3,1,3 | 1,2,1.6933,1.6933,neutral,left,,,,,,stimulusFile/magnitude.xlsx,,,,,,,,,,,,,,,,,,,,,,,,,,,,,,,
,,,,,,,,,,,,,,,803,2022-01-20_19h14.07.080,multiplicationStroop,2021.2.3,Win32,59.94485074,,,,,right,1,0.5825,0,55,55,64,1,1,6,1 | 6,5,1.6933,1.6933,neutral,right,,,,,,stimulusFile/magnitude.xlsx,,,,,,,,,,,,,,,,,,,,,,,,,,,,,,,
,,,,,,,,,,,,,,,803,2022-01-20_19h14.07.080,multiplicationStroop,2021.2.3,Win32,59.94485074,,,,,left,1,0.544,0,56,56,68,1,6,1,6 | 1,5,1.6933,1.6933,neutral,left,,,,,,stimulusFile/magnitude.xlsx,,,,,,,,,,,,,,,,,,,,,,,,,,,,,,,
,,,,,,,,,,,,,,,803,2022-01-20_19h14.07.080,multiplicationStroop,2021.2.3,Win32,59.94485074,,,,,right,1,0.5495,0,57,57,49,1,3,4,3 | 4,1,1.6933,1.6933,neutral,right,,,,,,stimulusFile/magnitude.xlsx,,,,,,,,,,,,,,,,,,,,,,,,,,,,,,,
,,,,,,,,,,,,,,,803,2022-01-20_19h14.07.080,multiplicationStroop,2021.2.3,Win32,59.94485074,,,,,left,1,0.4048,0,58,58,20,1,6,1,6 | 1,5,1.9756,1.4111,congruent,left,,,,,,stimulusFile/magnitude.xlsx,,,,,,,,,,,,,,,,,,,,,,,,,,,,,,,
,,,,,,,,,,,,,,,803,2022-01-20_19h14.07.080,multiplicationStroop,2021.2.3,Win32,59.94485074,,,,,left,1,0.4833,0,59,59,44,1,6,1,6 | 1,5,1.4111,1.9756,incongruent,left,,,,,,stimulusFile/magnitude.xlsx,,,,,,,,,,,,,,,,,,,,,,,,,,,,,,,
,,,,,,,,,,,,,,,803,2022-01-20_19h14.07.080,multiplicationStroop,2021.2.3,Win32,59.94485074,,,,,right,0,0.536,0,60,60,30,1,7,6,7 | 6,1,1.4111,1.9756,incongruent,left,,,,,,stimulusFile/magnitude.xlsx,,,,,,,,,,,,,,,,,,,,,,,,,,,,,,,
,,,,,,,,,,,,,,,803,2022-01-20_19h14.07.080,multiplicationStroop,2021.2.3,Win32,59.94485074,,,,,left,1,0.8328,0,61,61,14,1,8,6,8 | 6,2,1.9756,1.4111,congruent,left,,,,,,stimulusFile/magnitude.xlsx,,,,,,,,,,,,,,,,,,,,,,,,,,,,,,,
,,,,,,,,,,,,,,,803,2022-01-20_19h14.07.080,multiplicationStroop,2021.2.3,Win32,59.94485074,,,,,left,1,0.9651,0,62,62,6,1,7,6,7 | 6,1,1.9756,1.4111,congruent,left,,,,,,stimulusFile/magnitude.xlsx,,,,,,,,,,,,,,,,,,,,,,,,,,,,,,,
,,,,,,,,,,,,,,,803,2022-01-20_19h14.07.080,multiplicationStroop,2021.2.3,Win32,59.94485074,,,,,left,1,0.6008,0,63,63,7,1,9,8,9 | 8,1,1.9756,1.4111,congruent,left,,,,,,stimulusFile/magnitude.xlsx,,,,,,,,,,,,,,,,,,,,,,,,,,,,,,,
,,,,,,,,,,,,,,,803,2022-01-20_19h14.07.080,multiplicationStroop,2021.2.3,Win32,59.94485074,,,,,left,1,0.5729,0,64,64,5,1,4,3,4 | 3,1,1.9756,1.4111,congruent,left,,,,,,stimulusFile/magnitude.xlsx,,,,,,,,,,,,,,,,,,,,,,,,,,,,,,,
,,,,,,,,,,,,,,,803,2022-01-20_19h14.07.080,multiplicationStroop,2021.2.3,Win32,59.94485074,,,,,right,1,0.5375,0,65,65,32,1,1,3,1 | 3,2,1.9756,1.4111,incongruent,right,,,,,,stimulusFile/magnitude.xlsx,,,,,,,,,,,,,,,,,,,,,,,,,,,,,,,
,,,,,,,,,,,,,,,803,2022-01-20_19h14.07.080,multiplicationStroop,2021.2.3,Win32,59.94485074,,,,,right,1,0.5006,0,66,66,42,1,3,8,3 | 8,5,1.9756,1.4111,incongruent,right,,,,,,stimulusFile/magnitude.xlsx,,,,,,,,,,,,,,,,,,,,,,,,,,,,,,,
,,,,,,,,,,,,,,,803,2022-01-20_19h14.07.080,multiplicationStroop,2021.2.3,Win32,59.94485074,,,,,right,1,0.6587,0,67,67,34,1,6,8,6 | 8,2,1.9756,1.4111,incongruent,right,,,,,,stimulusFile/magnitude.xlsx,,,,,,,,,,,,,,,,,,,,,,,,,,,,,,,
,,,,,,,,,,,,,,,803,2022-01-20_19h14.07.080,multiplicationStroop,2021.2.3,Win32,59.94485074,,,,,right,1,0.6279,0,68,68,43,1,4,9,4 | 9,5,1.9756,1.4111,incongruent,right,,,,,,stimulusFile/magnitude.xlsx,,,,,,,,,,,,,,,,,,,,,,,,,,,,,,,
,,,,,,,,,,,,,,,803,2022-01-20_19h14.07.080,multiplicationStroop,2021.2.3,Win32,59.94485074,,,,,left,1,0.5515,0,69,69,23,1,9,4,9 | 4,5,1.9756,1.4111,congruent,left,,,,,,stimulusFile/magnitude.xlsx,,,,,,,,,,,,,,,,,,,,,,,,,,,,,,,
,,,,,,,,,,,,,,,803,2022-01-20_19h14.07.080,multiplicationStroop,2021.2.3,Win32,59.94485074,,,,,left,1,0.5838,0,70,70,61,1,4,2,4 | 2,2,1.6933,1.6933,neutral,left,,,,,,stimulusFile/magnitude.xlsx,,,,,,,,,,,,,,,,,,,,,,,,,,,,,,,
,,,,,,,,,,,,,,,803,2022-01-20_19h14.07.080,multiplicationStroop,2021.2.3,Win32,59.94485074,,,,,left,1,0.5002,0,71,71,13,1,4,2,4 | 2,2,1.9756,1.4111,congruent,left,,,,,,stimulusFile/magnitude.xlsx,,,,,,,,,,,,,,,,,,,,,,,,,,,,,,,
,,,,,,,,,,,,,,,803,2022-01-20_19h14.07.080,multiplicationStroop,2021.2.3,Win32,59.94485074,,,,,,,,,,,,,,,,,,,,,0,0,0,0,1,stimulusFile/magnitude.xlsx,NUMERICALLY larger (larger coefficient).,images/numericallyLarger.png,,,,,,,,,,,,,,,,,,,,,,,,,,,,,
,,,,,,,,,,,,,,,803,2022-01-20_19h14.07.080,multiplicationStroop,2021.2.3,Win32,59.94485074,space,7.0942,space,1.9532,right,1,0.6037,0,0,0,31,1,9,8,9 | 8,1,1.4111,1.9756,incongruent,right,,,,,,stimulusFile/physical.xlsx,,,,,,,,,,,,,,,,,,,,,,,,,,,,,,,
,,,,,,,,,,,,,,,803,2022-01-20_19h14.07.080,multiplicationStroop,2021.2.3,Win32,59.94485074,,,,,left,1,0.4542,0,1,1,35,1,7,9,7 | 9,2,1.9756,1.4111,incongruent,left,,,,,,stimulusFile/physical.xlsx,,,,,,,,,,,,,,,,,,,,,,,,,,,,,,,
,,,,,,,,,,,,,,,803,2022-01-20_19h14.07.080,multiplicationStroop,2021.2.3,Win32,59.94485074,,,,,left,1,0.884,0,2,2,26,1,6,7,6 | 7,1,1.9756,1.4111,incongruent,left,,,,,,stimulusFile/physical.xlsx,,,,,,,,,,,,,,,,,,,,,,,,,,,,,,,
,,,,,,,,,,,,,,,803,2022-01-20_19h14.07.080,multiplicationStroop,2021.2.3,Win32,59.94485074,,,,,left,1,0.6518,0,3,3,68,1,6,6,6 | 6,0,1.9756,1.4111,neutral,left,,,,,,stimulusFile/physical.xlsx,,,,,,,,,,,,,,,,,,,,,,,,,,,,,,,
,,,,,,,,,,,,,,,803,2022-01-20_19h14.07.080,multiplicationStroop,2021.2.3,Win32,59.94485074,,,,,left,1,0.5466,0,4,4,51,1,8,8,8 | 8,0,1.9756,1.4111,neutral,left,,,,,,stimulusFile/physical.xlsx,,,,,,,,,,,,,,,,,,,,,,,,,,,,,,,
,,,,,,,,,,,,,,,803,2022-01-20_19h14.07.080,multiplicationStroop,2021.2.3,Win32,59.94485074,,,,,left,1,0.514,0,5,5,43,1,4,9,4 | 9,5,1.9756,1.4111,incongruent,left,,,,,,stimulusFile/physical.xlsx,,,,,,,,,,,,,,,,,,,,,,,,,,,,,,,
,,,,,,,,,,,,,,,803,2022-01-20_19h14.07.080,multiplicationStroop,2021.2.3,Win32,59.94485074,,,,,left,1,0.5009,0,6,6,50,1,6,6,6 | 6,0,1.9756,1.4111,neutral,left,,,,,,stimulusFile/physical.xlsx,,,,,,,,,,,,,,,,,,,,,,,,,,,,,,,
,,,,,,,,,,,,,,,803,2022-01-20_19h14.07.080,multiplicationStroop,2021.2.3,Win32,59.94485074,,,,,right,1,0.5145,0,7,7,38,1,8,6,8 | 6,2,1.4111,1.9756,incongruent,right,,,,,,stimulusFile/physical.xlsx,,,,,,,,,,,,,,,,,,,,,,,,,,,,,,,
,,,,,,,,,,,,,,,803,2022-01-20_19h14.07.080,multiplicationStroop,2021.2.3,Win32,59.94485074,,,,,right,1,0.5345,0,8,8,56,1,1,1,1 | 1,0,1.4111,1.9756,neutral,right,,,,,,stimulusFile/physical.xlsx,,,,,,,,,,,,,,,,,,,,,,,,,,,,,,,
,,,,,,,,,,,,,,,803,2022-01-20_19h14.07.080,multiplicationStroop,2021.2.3,Win32,59.94485074,,,,,right,0,0.4988,0,9,9,69,1,7,7,7 | 7,0,1.4111,1.9756,neutral,left,,,,,,stimulusFile/physical.xlsx,,,,,,,,,,,,,,,,,,,,,,,,,,,,,,,
,,,,,,,,,,,,,,,803,2022-01-20_19h14.07.080,multiplicationStroop,2021.2.3,Win32,59.94485074,,,,,left,1,0.4821,0,10,10,22,1,8,3,8 | 3,5,1.9756,1.4111,congruent,left,,,,,,stimulusFile/physical.xlsx,,,,,,,,,,,,,,,,,,,,,,,,,,,,,,,
,,,,,,,,,,,,,,,803,2022-01-20_19h14.07.080,multiplicationStroop,2021.2.3,Win32,59.94485074,,,,,right,1,0.4238,0,11,11,61,1,4,4,4 | 4,0,1.4111,1.9756,neutral,right,,,,,,stimulusFile/physical.xlsx,,,,,,,,,,,,,,,,,,,,,,,,,,,,,,,
,,,,,,,,,,,,,,,803,2022-01-20_19h14.07.080,multiplicationStroop,2021.2.3,Win32,59.94485074,,,,,left,1,0.7014,0,12,12,41,1,2,7,2 | 7,5,1.9756,1.4111,incongruent,left,,,,,,stimulusFile/physical.xlsx,,,,,,,,,,,,,,,,,,,,,,,,,,,,,,,
,,,,,,,,,,,,,,,803,2022-01-20_19h14.07.080,multiplicationStroop,2021.2.3,Win32,59.94485074,,,,,left,1,0.4867,0,13,13,54,1,7,7,7 | 7,0,1.9756,1.4111,neutral,left,,,,,,stimulusFile/physical.xlsx,,,,,,,,,,,,,,,,,,,,,,,,,,,,,,,
,,,,,,,,,,,,,,,803,2022-01-20_19h14.07.080,multiplicationStroop,2021.2.3,Win32,59.94485074,,,,,right,1,0.4806,0,14,14,11,1,7,9,7 | 9,2,1.4111,1.9756,congruent,right,,,,,,stimulusFile/physical.xlsx,,,,,,,,,,,,,,,,,,,,,,,,,,,,,,,
,,,,,,,,,,,,,,,803,2022-01-20_19h14.07.080,multiplicationStroop,2021.2.3,Win32,59.94485074,,,,,left,1,0.5387,0,15,15,53,1,4,4,4 | 4,0,1.9756,1.4111,neutral,left,,,,,,stimulusFile/physical.xlsx,,,,,,,,,,,,,,,,,,,,,,,,,,,,,,,
,,,,,,,,,,,,,,,803,2022-01-20_19h14.07.080,multiplicationStroop,2021.2.3,Win32,59.94485074,,,,,left,1,0.5476,0,16,16,23,1,9,4,9 | 4,5,1.9756,1.4111,congruent,left,,,,,,stimulusFile/physical.xlsx,,,,,,,,,,,,,,,,,,,,,,,,,,,,,,,
,,,,,,,,,,,,,,,803,2022-01-20_19h14.07.080,multiplicationStroop,2021.2.3,Win32,59.94485074,,,,,left,1,0.5613,0,17,17,49,1,3,3,3 | 3,0,1.9756,1.4111,neutral,left,,,,,,stimulusFile/physical.xlsx,,,,,,,,,,,,,,,,,,,,,,,,,,,,,,,
,,,,,,,,,,,,,,,803,2022-01-20_19h14.07.080,multiplicationStroop,2021.2.3,Win32,59.94485074,,,,,left,1,0.4792,0,18,18,14,1,8,6,8 | 6,2,1.9756,1.4111,congruent,left,,,,,,stimulusFile/physical.xlsx,,,,,,,,,,,,,,,,,,,,,,,,,,,,,,,
,,,,,,,,,,,,,,,803,2022-01-20_19h14.07.080,multiplicationStroop,2021.2.3,Win32,59.94485074,,,,,right,1,0.4543,0,19,19,57,1,2,2,2 | 2,0,1.4111,1.9756,neutral,right,,,,,,stimulusFile/physical.xlsx,,,,,,,,,,,,,,,,,,,,,,,,,,,,,,,
,,,,,,,,,,,,,,,803,2022-01-20_19h14.07.080,multiplicationStroop,2021.2.3,Win32,59.94485074,,,,,right,1,0.5231,0,20,20,19,1,4,9,4 | 9,5,1.4111,1.9756,congruent,right,,,,,,stimulusFile/physical.xlsx,,,,,,,,,,,,,,,,,,,,,,,,,,,,,,,
,,,,,,,,,,,,,,,803,2022-01-20_19h14.07.080,multiplicationStroop,2021.2.3,Win32,59.94485074,,,,,right,1,0.4044,0,21,21,47,1,9,4,9 | 4,5,1.4111,1.9756,incongruent,right,,,,,,stimulusFile/physical.xlsx,,,,,,,,,,,,,,,,,,,,,,,,,,,,,,,
,,,,,,,,,,,,,,,803,2022-01-20_19h14.07.080,multiplicationStroop,2021.2.3,Win32,59.94485074,,,,,right,0,0.4883,0,22,22,71,1,9,9,9 | 9,0,1.4111,1.9756,neutral,left,,,,,,stimulusFile/physical.xlsx,,,,,,,,,,,,,,,,,,,,,,,,,,,,,,,
,,,,,,,,,,,,,,,803,2022-01-20_19h14.07.080,multiplicationStroop,2021.2.3,Win32,59.94485074,,,,,left,1,0.3943,0,23,23,42,1,3,8,3 | 8,5,1.9756,1.4111,incongruent,left,,,,,,stimulusFile/physical.xlsx,,,,,,,,,,,,,,,,,,,,,,,,,,,,,,,
,,,,,,,,,,,,,,,803,2022-01-20_19h14.07.080,multiplicationStroop,2021.2.3,Win32,59.94485074,,,,,right,1,0.5777,0,24,24,45,1,7,2,7 | 2,5,1.4111,1.9756,incongruent,right,,,,,,stimulusFile/physical.xlsx,,,,,,,,,,,,,,,,,,,,,,,,,,,,,,,
,,,,,,,,,,,,,,,803,2022-01-20_19h14.07.080,multiplicationStroop,2021.2.3,Win32,59.94485074,,,,,left,1,0.5949,0,25,25,40,1,1,6,1 | 6,5,1.9756,1.4111,incongruent,left,,,,,,stimulusFile/physical.xlsx,,,,,,,,,,,,,,,,,,,,,,,,,,,,,,,
,,,,,,,,,,,,,,,803,2022-01-20_19h14.07.080,multiplicationStroop,2021.2.3,Win32,59.94485074,,,,,left,1,0.44,0,26,26,7,1,9,8,9 | 8,1,1.9756,1.4111,congruent,left,,,,,,stimulusFile/physical.xlsx,,,,,,,,,,,,,,,,,,,,,,,,,,,,,,,
,,,,,,,,,,,,,,,803,2022-01-20_19h14.07.080,multiplicationStroop,2021.2.3,Win32,59.94485074,,,,,right,1,0.5192,0,27,27,29,1,4,3,4 | 3,1,1.4111,1.9756,incongruent,right,,,,,,stimulusFile/physical.xlsx,,,,,,,,,,,,,,,,,,,,,,,,,,,,,,,
,,,,,,,,,,,,,,,803,2022-01-20_19h14.07.080,multiplicationStroop,2021.2.3,Win32,59.94485074,,,,,right,1,0.531,0,28,28,36,1,3,1,3 | 1,2,1.4111,1.9756,incongruent,right,,,,,,stimulusFile/physical.xlsx,,,,,,,,,,,,,,,,,,,,,,,,,,,,,,,
,,,,,,,,,,,,,,,803,2022-01-20_19h14.07.080,multiplicationStroop,2021.2.3,Win32,59.94485074,,,,,right,1,0.362,0,29,29,46,1,8,3,8 | 3,5,1.4111,1.9756,incongruent,right,,,,,,stimulusFile/physical.xlsx,,,,,,,,,,,,,,,,,,,,,,,,,,,,,,,
,,,,,,,,,,,,,,,803,2022-01-20_19h14.07.080,multiplicationStroop,2021.2.3,Win32,59.94485074,,,,,right,1,0.6042,0,30,30,18,1,3,8,3 | 8,5,1.4111,1.9756,congruent,right,,,,,,stimulusFile/physical.xlsx,,,,,,,,,,,,,,,,,,,,,,,,,,,,,,,
,,,,,,,,,,,,,,,803,2022-01-20_19h14.07.080,multiplicationStroop,2021.2.3,Win32,59.94485074,,,,,right,1,0.4842,0,31,31,67,1,4,4,4 | 4,0,1.4111,1.9756,neutral,right,,,,,,stimulusFile/physical.xlsx,,,,,,,,,,,,,,,,,,,,,,,,,,,,,,,
,,,,,,,,,,,,,,,803,2022-01-20_19h14.07.080,multiplicationStroop,2021.2.3,Win32,59.94485074,,,,,left,1,0.5665,0,32,32,25,1,3,4,3 | 4,1,1.9756,1.4111,incongruent,left,,,,,,stimulusFile/physical.xlsx,,,,,,,,,,,,,,,,,,,,,,,,,,,,,,,
,,,,,,,,,,,,,,,803,2022-01-20_19h14.07.080,multiplicationStroop,2021.2.3,Win32,59.94485074,,,,,right,1,0.5465,0,33,33,30,1,7,6,7 | 6,1,1.4111,1.9756,incongruent,right,,,,,,stimulusFile/physical.xlsx,,,,,,,,,,,,,,,,,,,,,,,,,,,,,,,
,,,,,,,,,,,,,,,803,2022-01-20_19h14.07.080,multiplicationStroop,2021.2.3,Win32,59.94485074,,,,,left,1,0.5471,0,34,34,55,1,9,9,9 | 9,0,1.9756,1.4111,neutral,left,,,,,,stimulusFile/physical.xlsx,,,,,,,,,,,,,,,,,,,,,,,,,,,,,,,
,,,,,,,,,,,,,,,803,2022-01-20_19h14.07.080,multiplicationStroop,2021.2.3,Win32,59.94485074,,,,,right,1,0.5369,0,35,35,8,1,1,3,1 | 3,2,1.4111,1.9756,congruent,right,,,,,,stimulusFile/physical.xlsx,,,,,,,,,,,,,,,,,,,,,,,,,,,,,,,
,,,,,,,,,,,,,,,803,2022-01-20_19h14.07.080,multiplicationStroop,2021.2.3,Win32,59.94485074,,,,,right,1,0.681,0,36,36,28,1,2,1,2 | 1,1,1.4111,1.9756,incongruent,right,,,,,,stimulusFile/physical.xlsx,,,,,,,,,,,,,,,,,,,,,,,,,,,,,,,
,,,,,,,,,,,,,,,803,2022-01-20_19h14.07.080,multiplicationStroop,2021.2.3,Win32,59.94485074,,,,,left,1,0.5238,0,37,37,4,1,2,1,2 | 1,1,1.9756,1.4111,congruent,left,,,,,,stimulusFile/physical.xlsx,,,,,,,,,,,,,,,,,,,,,,,,,,,,,,,
,,,,,,,,,,,,,,,803,2022-01-20_19h14.07.080,multiplicationStroop,2021.2.3,Win32,59.94485074,,,,,right,1,0.5071,0,38,38,60,1,3,3,3 | 3,0,1.4111,1.9756,neutral,right,,,,,,stimulusFile/physical.xlsx,,,,,,,,,,,,,,,,,,,,,,,,,,,,,,,
,,,,,,,,,,,,,,,803,2022-01-20_19h14.07.080,multiplicationStroop,2021.2.3,Win32,59.94485074,,,,,left,0,0.5719,0,39,39,64,1,1,1,1 | 1,0,1.9756,1.4111,neutral,right,,,,,,stimulusFile/physical.xlsx,,,,,,,,,,,,,,,,,,,,,,,,,,,,,,,
,,,,,,,,,,,,,,,803,2022-01-20_19h14.07.080,multiplicationStroop,2021.2.3,Win32,59.94485074,,,,,right,1,0.405,0,40,40,59,1,7,7,7 | 7,0,1.4111,1.9756,neutral,right,,,,,,stimulusFile/physical.xlsx,,,,,,,,,,,,,,,,,,,,,,,,,,,,,,,
,,,,,,,,,,,,,,,803,2022-01-20_19h14.07.080,multiplicationStroop,2021.2.3,Win32,59.94485074,,,,,left,1,0.5439,0,41,41,24,1,1,2,1 | 2,1,1.9756,1.4111,incongruent,left,,,,,,stimulusFile/physical.xlsx,,,,,,,,,,,,,,,,,,,,,,,,,,,,,,,
,,,,,,,,,,,,,,,803,2022-01-20_19h14.07.080,multiplicationStroop,2021.2.3,Win32,59.94485074,,,,,right,1,0.5588,0,42,42,10,1,6,8,6 | 8,2,1.4111,1.9756,congruent,right,,,,,,stimulusFile/physical.xlsx,,,,,,,,,,,,,,,,,,,,,,,,,,,,,,,
,,,,,,,,,,,,,,,803,2022-01-20_19h14.07.080,multiplicationStroop,2021.2.3,Win32,59.94485074,,,,,right,1,0.5365,0,43,43,39,1,9,7,9 | 7,2,1.4111,1.9756,incongruent,right,,,,,,stimulusFile/physical.xlsx,,,,,,,,,,,,,,,,,,,,,,,,,,,,,,,
,,,,,,,,,,,,,,,803,2022-01-20_19h14.07.080,multiplicationStroop,2021.2.3,Win32,59.94485074,,,,,right,1,0.6516,0,44,44,1,1,3,4,3 | 4,1,1.4111,1.9756,congruent,right,,,,,,stimulusFile/physical.xlsx,,,,,,,,,,,,,,,,,,,,,,,,,,,,,,,
,,,,,,,,,,,,,,,803,2022-01-20_19h14.07.080,multiplicationStroop,2021.2.3,Win32,59.94485074,,,,,left,1,0.4986,0,45,45,33,1,2,4,2 | 4,2,1.9756,1.4111,incongruent,left,,,,,,stimulusFile/physical.xlsx,,,,,,,,,,,,,,,,,,,,,,,,,,,,,,,
,,,,,,,,,,,,,,,803,2022-01-20_19h14.07.080,multiplicationStroop,2021.2.3,Win32,59.94485074,,,,,left,1,0.7131,0,46,46,27,1,8,9,8 | 9,1,1.9756,1.4111,incongruent,left,,,,,,stimulusFile/physical.xlsx,,,,,,,,,,,,,,,,,,,,,,,,,,,,,,,
,,,,,,,,,,,,,,,803,2022-01-20_19h14.07.080,multiplicationStroop,2021.2.3,Win32,59.94485074,,,,,right,1,0.8792,0,47,47,62,1,8,8,8 | 8,0,1.4111,1.9756,neutral,right,,,,,,stimulusFile/physical.xlsx,,,,,,,,,,,,,,,,,,,,,,,,,,,,,,,
,,,,,,,,,,,,,,,803,2022-01-20_19h14.07.080,multiplicationStroop,2021.2.3,Win32,59.94485074,,,,,left,1,2.4668,0,48,48,48,1,1,1,1 | 1,0,1.9756,1.4111,neutral,left,,,,,,stimulusFile/physical.xlsx,,,,,,,,,,,,,,,,,,,,,,,,,,,,,,,
,,,,,,,,,,,,,,,803,2022-01-20_19h14.07.080,multiplicationStroop,2021.2.3,Win32,59.94485074,,,,,left,1,0.8136,0,49,49,6,1,7,6,7 | 6,1,1.9756,1.4111,congruent,left,,,,,,stimulusFile/physical.xlsx,,,,,,,,,,,,,,,,,,,,,,,,,,,,,,,
,,,,,,,,,,,,,,,803,2022-01-20_19h14.07.080,multiplicationStroop,2021.2.3,Win32,59.94485074,,,,,left,1,0.5859,0,50,50,70,1,8,8,8 | 8,0,1.9756,1.4111,neutral,left,,,,,,stimulusFile/physical.xlsx,,,,,,,,,,,,,,,,,,,,,,,,,,,,,,,
,,,,,,,,,,,,,,,803,2022-01-20_19h14.07.080,multiplicationStroop,2021.2.3,Win32,59.94485074,,,,,left,1,0.4883,0,51,51,13,1,4,2,4 | 2,2,1.9756,1.4111,congruent,left,,,,,,stimulusFile/physical.xlsx,,,,,,,,,,,,,,,,,,,,,,,,,,,,,,,
,,,,,,,,,,,,,,,803,2022-01-20_19h14.07.080,multiplicationStroop,2021.2.3,Win32,59.94485074,,,,,left,1,0.5042,0,52,52,21,1,7,2,7 | 2,5,1.9756,1.4111,congruent,left,,,,,,stimulusFile/physical.xlsx,,,,,,,,,,,,,,,,,,,,,,,,,,,,,,,
,,,,,,,,,,,,,,,803,2022-01-20_19h14.07.080,multiplicationStroop,2021.2.3,Win32,59.94485074,,,,,left,0,0.4137,0,53,53,66,1,3,3,3 | 3,0,1.9756,1.4111,neutral,right,,,,,,stimulusFile/physical.xlsx,,,,,,,,,,,,,,,,,,,,,,,,,,,,,,,
,,,,,,,,,,,,,,,803,2022-01-20_19h14.07.080,multiplicationStroop,2021.2.3,Win32,59.94485074,,,,,right,1,0.4974,0,54,54,58,1,6,6,6 | 6,0,1.4111,1.9756,neutral,right,,,,,,stimulusFile/physical.xlsx,,,,,,,,,,,,,,,,,,,,,,,,,,,,,,,
,,,,,,,,,,,,,,,803,2022-01-20_19h14.07.080,multiplicationStroop,2021.2.3,Win32,59.94485074,,,,,right,0,0.4559,0,55,55,5,1,4,3,4 | 3,1,1.9756,1.4111,congruent,left,,,,,,stimulusFile/physical.xlsx,,,,,,,,,,,,,,,,,,,,,,,,,,,,,,,
,,,,,,,,,,,,,,,803,2022-01-20_19h14.07.080,multiplicationStroop,2021.2.3,Win32,59.94485074,,,,,right,1,0.4805,0,56,56,16,1,1,6,1 | 6,5,1.4111,1.9756,congruent,right,,,,,,stimulusFile/physical.xlsx,,,,,,,,,,,,,,,,,,,,,,,,,,,,,,,
,,,,,,,,,,,,,,,803,2022-01-20_19h14.07.080,multiplicationStroop,2021.2.3,Win32,59.94485074,,,,,left,1,0.4304,0,57,57,34,1,6,8,6 | 8,2,1.9756,1.4111,incongruent,left,,,,,,stimulusFile/physical.xlsx,,,,,,,,,,,,,,,,,,,,,,,,,,,,,,,
,,,,,,,,,,,,,,,803,2022-01-20_19h14.07.080,multiplicationStroop,2021.2.3,Win32,59.94485074,,,,,right,1,0.2802,0,58,58,17,1,2,7,2 | 7,5,1.4111,1.9756,congruent,right,,,,,,stimulusFile/physical.xlsx,,,,,,,,,,,,,,,,,,,,,,,,,,,,,,,
,,,,,,,,,,,,,,,803,2022-01-20_19h14.07.080,multiplicationStroop,2021.2.3,Win32,59.94485074,,,,,right,1,0.7358,0,59,59,44,1,6,1,6 | 1,5,1.4111,1.9756,incongruent,right,,,,,,stimulusFile/physical.xlsx,,,,,,,,,,,,,,,,,,,,,,,,,,,,,,,
,,,,,,,,,,,,,,,803,2022-01-20_19h14.07.080,multiplicationStroop,2021.2.3,Win32,59.94485074,,,,,right,1,1.0572,0,60,60,37,1,4,2,4 | 2,2,1.4111,1.9756,incongruent,right,,,,,,stimulusFile/physical.xlsx,,,,,,,,,,,,,,,,,,,,,,,,,,,,,,,
,,,,,,,,,,,,,,,803,2022-01-20_19h14.07.080,multiplicationStroop,2021.2.3,Win32,59.94485074,,,,,right,1,1.2813,0,61,61,2,1,6,7,6 | 7,1,1.4111,1.9756,congruent,right,,,,,,stimulusFile/physical.xlsx,,,,,,,,,,,,,,,,,,,,,,,,,,,,,,,
,,,,,,,,,,,,,,,803,2022-01-20_19h14.07.080,multiplicationStroop,2021.2.3,Win32,59.94485074,,,,,right,1,0.5166,0,62,62,63,1,9,9,9 | 9,0,1.4111,1.9756,neutral,right,,,,,,stimulusFile/physical.xlsx,,,,,,,,,,,,,,,,,,,,,,,,,,,,,,,
,,,,,,,,,,,,,,,803,2022-01-20_19h14.07.080,multiplicationStroop,2021.2.3,Win32,59.94485074,,,,,left,1,0.5123,0,63,63,15,1,9,7,9 | 7,2,1.9756,1.4111,congruent,left,,,,,,stimulusFile/physical.xlsx,,,,,,,,,,,,,,,,,,,,,,,,,,,,,,,
,,,,,,,,,,,,,,,803,2022-01-20_19h14.07.080,multiplicationStroop,2021.2.3,Win32,59.94485074,,,,,right,1,0.4943,0,64,64,9,1,2,4,2 | 4,2,1.4111,1.9756,congruent,right,,,,,,stimulusFile/physical.xlsx,,,,,,,,,,,,,,,,,,,,,,,,,,,,,,,
,,,,,,,,,,,,,,,803,2022-01-20_19h14.07.080,multiplicationStroop,2021.2.3,Win32,59.94485074,,,,,left,1,0.5719,0,65,65,32,1,1,3,1 | 3,2,1.9756,1.4111,incongruent,left,,,,,,stimulusFile/physical.xlsx,,,,,,,,,,,,,,,,,,,,,,,,,,,,,,,
,,,,,,,,,,,,,,,803,2022-01-20_19h14.07.080,multiplicationStroop,2021.2.3,Win32,59.94485074,,,,,left,1,0.494,0,66,66,12,1,3,1,3 | 1,2,1.9756,1.4111,congruent,left,,,,,,stimulusFile/physical.xlsx,,,,,,,,,,,,,,,,,,,,,,,,,,,,,,,
,,,,,,,,,,,,,,,803,2022-01-20_19h14.07.080,multiplicationStroop,2021.2.3,Win32,59.94485074,,,,,right,1,0.5065,0,67,67,3,1,8,9,8 | 9,1,1.4111,1.9756,congruent,right,,,,,,stimulusFile/physical.xlsx,,,,,,,,,,,,,,,,,,,,,,,,,,,,,,,
,,,,,,,,,,,,,,,803,2022-01-20_19h14.07.080,multiplicationStroop,2021.2.3,Win32,59.94485074,,,,,right,1,0.509,0,68,68,65,1,2,2,2 | 2,0,1.4111,1.9756,neutral,right,,,,,,stimulusFile/physical.xlsx,,,,,,,,,,,,,,,,,,,,,,,,,,,,,,,
,,,,,,,,,,,,,,,803,2022-01-20_19h14.07.080,multiplicationStroop,2021.2.3,Win32,59.94485074,,,,,right,1,0.5652,0,69,69,0,1,1,2,1 | 2,1,1.4111,1.9756,congruent,right,,,,,,stimulusFile/physical.xlsx,,,,,,,,,,,,,,,,,,,,,,,,,,,,,,,
,,,,,,,,,,,,,,,803,2022-01-20_19h14.07.080,multiplicationStroop,2021.2.3,Win32,59.94485074,,,,,left,1,0.5111,0,70,70,20,1,6,1,6 | 1,5,1.9756,1.4111,congruent,left,,,,,,stimulusFile/physical.xlsx,,,,,,,,,,,,,,,,,,,,,,,,,,,,,,,
,,,,,,,,,,,,,,,803,2022-01-20_19h14.07.080,multiplicationStroop,2021.2.3,Win32,59.94485074,,,,,left,1,0.3889,0,71,71,52,1,2,2,2 | 2,0,1.9756,1.4111,neutral,left,,,,,,stimulusFile/physical.xlsx,,,,,,,,,,,,,,,,,,,,,,,,,,,,,,,
,,,,,,,,,,,,,,,803,2022-01-20_19h14.07.080,multiplicationStroop,2021.2.3,Win32,59.94485074,,,,,,,,,,,,,,,,,,,,,0,1,1,1,1,stimulusFile/physical.xlsx,PHYSICALLY larger (larger font size).,images/physicallyLarger.png,,,,,,,,,,,,,,,,,,,,,,,,,,,,,
,,,,,,,,,,,,,,,803,2022-01-20_19h14.07.080,multiplicationStroop,2021.2.3,Win32,59.94485074,,,,,,,,,,,,,,,,,,,,,,,,,,,,,space,13.8482,space,3.4377,27,4.3644,1,0,0,0,18,1,9,×,3,9 × 3,incongruent,largerFirst,1,2,27,,,,,,,,
,,,,,,,,,,,,,,,803,2022-01-20_19h14.07.080,multiplicationStroop,2021.2.3,Win32,59.94485074,,,,,,,,,,,,,,,,,,,,,,,,,,,,,,,,,42,2.019,1,0,1,1,17,1,7,×,6,7 × 6,incongruent,largerFirst,1,2,42,,,,,,,,
,,,,,,,,,,,,,,,803,2022-01-20_19h14.07.080,multiplicationStroop,2021.2.3,Win32,59.94485074,,,,,,,,,,,,,,,,,,,,,,,,,,,,,,,,,49,2.2622,1,0,2,2,33,1,7,×,7,7 × 7,incongruent,tie,1,2,49,,,,,,,,
,,,,,,,,,,,,,,,803,2022-01-20_19h14.07.080,multiplicationStroop,2021.2.3,Win32,59.94485074,,,,,,,,,,,,,,,,,,,,,,,,,,,,,,,,,10,1.7051,1,0,3,3,21,1,5,×,2,5 × 2,incongruent,largerFirst,1,2,10,,,,,,,,
,,,,,,,,,,,,,,,803,2022-01-20_19h14.07.080,multiplicationStroop,2021.2.3,Win32,59.94485074,,,,,,,,,,,,,,,,,,,,,,,,,,,,,,,,,81,2.6945,1,0,4,4,35,1,9,×,9,9 × 9,incongruent,tie,1,2,81,,,,,,,,
,,,,,,,,,,,,,,,803,2022-01-20_19h14.07.080,multiplicationStroop,2021.2.3,Win32,59.94485074,,,,,,,,,,,,,,,,,,,,,,,,,,,,,,,,,64,2.436,1,0,5,5,34,1,8,×,8,8 × 8,incongruent,tie,1,2,64,,,,,,,,
,,,,,,,,,,,,,,,803,2022-01-20_19h14.07.080,multiplicationStroop,2021.2.3,Win32,59.94485074,,,,,,,,,,,,,,,,,,,,,,,,,,,,,,,,,9,1.8462,1,0,6,6,29,1,3,×,3,3 × 3,incongruent,tie,1,2,9,,,,,,,,
,,,,,,,,,,,,,,,803,2022-01-20_19h14.07.080,multiplicationStroop,2021.2.3,Win32,59.94485074,,,,,,,,,,,,,,,,,,,,,,,,,,,,,,,,,21,1.663,1,0,7,7,26,1,7,×,3,7 × 3,incongruent,largerFirst,1,2,21,,,,,,,,
,,,,,,,,,,,,,,,803,2022-01-20_19h14.07.080,multiplicationStroop,2021.2.3,Win32,59.94485074,,,,,,,,,,,,,,,,,,,,,,,,,,,,,,,,,36,5.0907,1,0,8,8,15,1,9,×,4,9 × 4,incongruent,largerFirst,1,2,36,,,,,,,,
,,,,,,,,,,,,,,,803,2022-01-20_19h14.07.080,multiplicationStroop,2021.2.3,Win32,59.94485074,,,,,,,,,,,,,,,,,,,,,,,,,,,,,,,,,36,3.3674,1,0,9,9,32,1,6,×,6,6 × 6,incongruent,tie,1,2,36,,,,,,,,
,,,,,,,,,,,,,,,803,2022-01-20_19h14.07.080,multiplicationStroop,2021.2.3,Win32,59.94485074,,,,,,,,,,,,,,,,,,,,,,,,,,,,,,,,,15,1.82,1,0,10,10,10,1,3,×,5,3 × 5,incongruent,smallerFirst,2,1,15,,,,,,,,
,,,,,,,,,,,,,,,803,2022-01-20_19h14.07.080,multiplicationStroop,2021.2.3,Win32,59.94485074,,,,,,,,,,,,,,,,,,,,,,,,,,,,,,,,,16,3.8261,1,0,11,11,23,1,8,×,2,8 × 2,incongruent,largerFirst,1,2,16,,,,,,,,
,,,,,,,,,,,,,,,803,2022-01-20_19h14.07.080,multiplicationStroop,2021.2.3,Win32,59.94485074,,,,,,,,,,,,,,,,,,,,,,,,,,,,,,,,,24,1.5869,0,0,12,12,4,1,2,×,7,2 × 7,incongruent,smallerFirst,2,1,14,,,,,,,,
,,,,,,,,,,,,,,,803,2022-01-20_19h14.07.080,multiplicationStroop,2021.2.3,Win32,59.94485074,,,,,,,,,,,,,,,,,,,,,,,,,,,,,,,,,3,1.8127,0,0,13,13,12,1,5,×,7,5 × 7,incongruent,smallerFirst,2,1,35,,,,,,,,
,,,,,,,,,,,,,,,803,2022-01-20_19h14.07.080,multiplicationStroop,2021.2.3,Win32,59.94485074,,,,,,,,,,,,,,,,,,,,,,,,,,,,,,,,,24,5.6896,0,0,14,14,27,1,5,×,4,5 × 4,incongruent,largerFirst,1,2,20,,,,,,,,
,,,,,,,,,,,,,,,803,2022-01-20_19h14.07.080,multiplicationStroop,2021.2.3,Win32,59.94485074,,,,,,,,,,,,,,,,,,,,,,,,,,,,,,,,,32,2.2197,1,0,15,15,7,1,4,×,8,4 × 8,incongruent,smallerFirst,2,1,32,,,,,,,,
,,,,,,,,,,,,,,,803,2022-01-20_19h14.07.080,multiplicationStroop,2021.2.3,Win32,59.94485074,,,,,,,,,,,,,,,,,,,,,,,,,,,,,,,,,6,1.8132,1,0,16,16,11,1,2,×,3,2 × 3,incongruent,smallerFirst,2,1,6,,,,,,,,
,,,,,,,,,,,,,,,803,2022-01-20_19h14.07.080,multiplicationStroop,2021.2.3,Win32,59.94485074,,,,,,,,,,,,,,,,,,,,,,,,,,,,,,,,,12,2.0955,1,0,17,17,19,1,6,×,2,6 × 2,incongruent,largerFirst,1,2,12,,,,,,,,
,,,,,,,,,,,,,,,803,2022-01-20_19h14.07.080,multiplicationStroop,2021.2.3,Win32,59.94485074,,,,,,,,,,,,,,,,,,,,,,,,,,,,,,,,,54,2.2289,1,0,18,18,6,1,6,×,9,6 × 9,incongruent,smallerFirst,2,1,54,,,,,,,,
,,,,,,,,,,,,,,,803,2022-01-20_19h14.07.080,multiplicationStroop,2021.2.3,Win32,59.94485074,,,,,,,,,,,,,,,,,,,,,,,,,,,,,,,,,30,2.3043,1,0,19,19,25,1,6,×,5,6 × 5,incongruent,largerFirst,1,2,30,,,,,,,,
,,,,,,,,,,,,,,,803,2022-01-20_19h14.07.080,multiplicationStroop,2021.2.3,Win32,59.94485074,,,,,,,,,,,,,,,,,,,,,,,,,,,,,,,,,18,4.059,1,0,20,20,8,1,3,×,6,3 × 6,incongruent,smallerFirst,2,1,18,,,,,,,,
,,,,,,,,,,,,,,,803,2022-01-20_19h14.07.080,multiplicationStroop,2021.2.3,Win32,59.94485074,,,,,,,,,,,,,,,,,,,,,,,,,,,,,,,,,8,3.4684,1,0,21,21,24,1,4,×,2,4 × 2,incongruent,largerFirst,1,2,8,,,,,,,,
,,,,,,,,,,,,,,,803,2022-01-20_19h14.07.080,multiplicationStroop,2021.2.3,Win32,59.94485074,,,,,,,,,,,,,,,,,,,,,,,,,,,,,,,,,18,2.7948,1,0,22,22,2,1,2,×,9,2 × 9,incongruent,smallerFirst,2,1,18,,,,,,,,
,,,,,,,,,,,,,,,803,2022-01-20_19h14.07.080,multiplicationStroop,2021.2.3,Win32,59.94485074,,,,,,,,,,,,,,,,,,,,,,,,,,,,,,,,,4,2.6695,1,0,23,23,28,1,2,×,2,2 × 2,incongruent,tie,1,2,4,,,,,,,,
,,,,,,,,,,,,,,,803,2022-01-20_19h14.07.080,multiplicationStroop,2021.2.3,Win32,59.94485074,,,,,,,,,,,,,,,,,,,,,,,,,,,,,,,,,72,4.159,1,0,24,24,0,1,8,×,9,8 × 9,incongruent,smallerFirst,2,1,72,,,,,,,,
,,,,,,,,,,,,,,,803,2022-01-20_19h14.07.080,multiplicationStroop,2021.2.3,Win32,59.94485074,,,,,,,,,,,,,,,,,,,,,,,,,,,,,,,,,63,4.8662,1,0,25,25,3,1,7,×,9,7 × 9,incongruent,smallerFirst,2,1,63,,,,,,,,
,,,,,,,,,,,,,,,803,2022-01-20_19h14.07.080,multiplicationStroop,2021.2.3,Win32,59.94485074,,,,,,,,,,,,,,,,,,,,,,,,,,,,,,,,,28,2.2205,1,0,26,26,16,1,7,×,4,7 × 4,incongruent,largerFirst,1,2,28,,,,,,,,
,,,,,,,,,,,,,,,803,2022-01-20_19h14.07.080,multiplicationStroop,2021.2.3,Win32,59.94485074,,,,,,,,,,,,,,,,,,,,,,,,,,,,,,,,,24,2.0293,1,0,27,27,9,1,3,×,8,3 × 8,incongruent,smallerFirst,2,1,24,,,,,,,,
,,,,,,,,,,,,,,,803,2022-01-20_19h14.07.080,multiplicationStroop,2021.2.3,Win32,59.94485074,,,,,,,,,,,,,,,,,,,,,,,,,,,,,,,,,45,3.1264,1,0,28,28,22,1,9,×,5,9 × 5,incongruent,largerFirst,1,2,45,,,,,,,,
,,,,,,,,,,,,,,,803,2022-01-20_19h14.07.080,multiplicationStroop,2021.2.3,Win32,59.94485074,,,,,,,,,,,,,,,,,,,,,,,,,,,,,,,,,24,3.9757,1,0,29,29,20,1,6,×,4,6 × 4,incongruent,largerFirst,1,2,24,,,,,,,,
,,,,,,,,,,,,,,,803,2022-01-20_19h14.07.080,multiplicationStroop,2021.2.3,Win32,59.94485074,,,,,,,,,,,,,,,,,,,,,,,,,,,,,,,,,25,1.8192,1,0,30,30,31,1,5,×,5,5 × 5,incongruent,tie,1,2,25,,,,,,,,
,,,,,,,,,,,,,,,803,2022-01-20_19h14.07.080,multiplicationStroop,2021.2.3,Win32,59.94485074,,,,,,,,,,,,,,,,,,,,,,,,,,,,,,,,,40,2.279,1,0,31,31,13,1,5,×,8,5 × 8,incongruent,smallerFirst,2,1,40,,,,,,,,
,,,,,,,,,,,,,,,803,2022-01-20_19h14.07.080,multiplicationStroop,2021.2.3,Win32,59.94485074,,,,,,,,,,,,,,,,,,,,,,,,,,,,,,,,,12,1.6967,1,0,32,32,5,1,3,×,4,3 × 4,incongruent,smallerFirst,2,1,12,,,,,,,,
,,,,,,,,,,,,,,,803,2022-01-20_19h14.07.080,multiplicationStroop,2021.2.3,Win32,59.94485074,,,,,,,,,,,,,,,,,,,,,,,,,,,,,,,,,48,5.3568,1,0,33,33,1,1,6,×,8,6 × 8,incongruent,smallerFirst,2,1,48,,,,,,,,
,,,,,,,,,,,,,,,803,2022-01-20_19h14.07.080,multiplicationStroop,2021.2.3,Win32,59.94485074,,,,,,,,,,,,,,,,,,,,,,,,,,,,,,,,,51,3.7504,0,0,34,34,14,1,8,×,7,8 × 7,incongruent,largerFirst,1,2,56,,,,,,,,
,,,,,,,,,,,,,,,803,2022-01-20_19h14.07.080,multiplicationStroop,2021.2.3,Win32,59.94485074,,,,,,,,,,,,,,,,,,,,,,,,,,,,,,,,,16,2.7854,1,0,35,35,30,1,4,×,4,4 × 4,incongruent,tie,1,2,16,,,,,,,,
,,,,,,,,,,,,,,,803,2022-01-20_19h14.07.080,multiplicationStroop,2021.2.3,Win32,59.94485074,,,,,,,,,,,,,,,,,,,,,,,,,,,,,,,,,,,,,,,,,,,,,,,,,,0,0,0,5,1,stimulusFile/mult_blk6_INcongruent.xlsx,,
,,,,,,,,,,,,,,,803,2022-01-20_19h14.07.080,multiplicationStroop,2021.2.3,Win32,59.94485074,,,,,,,,,,,,,,,,,,,,,,,,,,,,,,,space,2.1771,28,3.9138,1,0,0,0,13,1,4,×,7,4 × 7,congruent,smallerFirst,1,2,28,,,,,,,,
,,,,,,,,,,,,,,,803,2022-01-20_19h14.07.080,multiplicationStroop,2021.2.3,Win32,59.94485074,,,,,,,,,,,,,,,,,,,,,,,,,,,,,,,,,64,7.595,1,0,1,1,34,1,8,×,8,8 × 8,neutral,tie,1,2,64,,,,,,,,
,,,,,,,,,,,,,,,803,2022-01-20_19h14.07.080,multiplicationStroop,2021.2.3,Win32,59.94485074,,,,,,,,,,,,,,,,,,,,,,,,,,,,,,,,,81,2.6194,1,0,2,2,35,1,9,×,9,9 × 9,neutral,tie,1,2,81,,,,,,,,
,,,,,,,,,,,,,,,803,2022-01-20_19h14.07.080,multiplicationStroop,2021.2.3,Win32,59.94485074,,,,,,,,,,,,,,,,,,,,,,,,,,,,,,,,,24,1.6967,1,0,3,3,24,1,8,×,3,8 × 3,congruent,largerFirst,2,1,24,,,,,,,,
,,,,,,,,,,,,,,,803,2022-01-20_19h14.07.080,multiplicationStroop,2021.2.3,Win32,59.94485074,,,,,,,,,,,,,,,,,,,,,,,,,,,,,,,,,30,1.7462,1,0,4,4,1,1,5,×,6,5 × 6,congruent,smallerFirst,1,2,30,,,,,,,,
,,,,,,,,,,,,,,,803,2022-01-20_19h14.07.080,multiplicationStroop,2021.2.3,Win32,59.94485074,,,,,,,,,,,,,,,,,,,,,,,,,,,,,,,,,4,1.5302,1,0,5,5,28,1,2,×,2,2 × 2,neutral,tie,1,2,4,,,,,,,,
,,,,,,,,,,,,,,,803,2022-01-20_19h14.07.080,multiplicationStroop,2021.2.3,Win32,59.94485074,,,,,,,,,,,,,,,,,,,,,,,,,,,,,,,,,36,1.9458,1,0,6,6,14,1,9,×,4,9 × 4,congruent,largerFirst,2,1,36,,,,,,,,
,,,,,,,,,,,,,,,803,2022-01-20_19h14.07.080,multiplicationStroop,2021.2.3,Win32,59.94485074,,,,,,,,,,,,,,,,,,,,,,,,,,,,,,,,,35,1.6634,1,0,7,7,15,1,7,×,5,7 × 5,congruent,largerFirst,2,1,35,,,,,,,,
,,,,,,,,,,,,,,,803,2022-01-20_19h14.07.080,multiplicationStroop,2021.2.3,Win32,59.94485074,,,,,,,,,,,,,,,,,,,,,,,,,,,,,,,,,42,1.8461,1,0,8,8,17,1,7,×,6,7 × 6,congruent,largerFirst,2,1,42,,,,,,,,
,,,,,,,,,,,,,,,803,2022-01-20_19h14.07.080,multiplicationStroop,2021.2.3,Win32,59.94485074,,,,,,,,,,,,,,,,,,,,,,,,,,,,,,,,,9,1.8298,1,0,9,9,29,1,3,×,3,3 × 3,neutral,tie,1,2,9,,,,,,,,
,,,,,,,,,,,,,,,803,2022-01-20_19h14.07.080,multiplicationStroop,2021.2.3,Win32,59.94485074,,,,,,,,,,,,,,,,,,,,,,,,,,,,,,,,,45,2.2121,1,0,10,10,9,1,5,×,9,5 × 9,congruent,smallerFirst,1,2,45,,,,,,,,
,,,,,,,,,,,,,,,803,2022-01-20_19h14.07.080,multiplicationStroop,2021.2.3,Win32,59.94485074,,,,,,,,,,,,,,,,,,,,,,,,,,,,,,,,,32,2.2622,1,0,11,11,6,1,4,×,8,4 × 8,congruent,smallerFirst,1,2,32,,,,,,,,
,,,,,,,,,,,,,,,803,2022-01-20_19h14.07.080,multiplicationStroop,2021.2.3,Win32,59.94485074,,,,,,,,,,,,,,,,,,,,,,,,,,,,,,,,,14,1.846,0,0,12,12,33,1,7,×,7,7 × 7,neutral,tie,1,2,49,,,,,,,,
,,,,,,,,,,,,,,,803,2022-01-20_19h14.07.080,multiplicationStroop,2021.2.3,Win32,59.94485074,,,,,,,,,,,,,,,,,,,,,,,,,,,,,,,,,24,1.9295,0,0,13,13,21,1,5,×,4,5 × 4,congruent,largerFirst,2,1,20,,,,,,,,
,,,,,,,,,,,,,,,803,2022-01-20_19h14.07.080,multiplicationStroop,2021.2.3,Win32,59.94485074,,,,,,,,,,,,,,,,,,,,,,,,,,,,,,,,,40,1.9296,1,0,14,14,20,1,8,×,5,8 × 5,congruent,largerFirst,2,1,40,,,,,,,,
,,,,,,,,,,,,,,,803,2022-01-20_19h14.07.080,multiplicationStroop,2021.2.3,Win32,59.94485074,,,,,,,,,,,,,,,,,,,,,,,,,,,,,,,,,36,2.6618,1,0,15,15,32,1,6,×,6,6 × 6,neutral,tie,1,2,36,,,,,,,,
,,,,,,,,,,,,,,,803,2022-01-20_19h14.07.080,multiplicationStroop,2021.2.3,Win32,59.94485074,,,,,,,,,,,,,,,,,,,,,,,,,,,,,,,,,6,2.9113,1,0,16,16,27,1,3,×,2,3 × 2,congruent,largerFirst,2,1,6,,,,,,,,
,,,,,,,,,,,,,,,803,2022-01-20_19h14.07.080,multiplicationStroop,2021.2.3,Win32,59.94485074,,,,,,,,,,,,,,,,,,,,,,,,,,,,,,,,,24,1.7462,0,0,17,17,30,1,4,×,4,4 × 4,neutral,tie,1,2,16,,,,,,,,
,,,,,,,,,,,,,,,803,2022-01-20_19h14.07.080,multiplicationStroop,2021.2.3,Win32,59.94485074,,,,,,,,,,,,,,,,,,,,,,,,,,,,,,,,,27,4.4585,1,0,18,18,12,1,3,×,9,3 × 9,congruent,smallerFirst,1,2,27,,,,,,,,
,,,,,,,,,,,,,,,803,2022-01-20_19h14.07.080,multiplicationStroop,2021.2.3,Win32,59.94485074,,,,,,,,,,,,,,,,,,,,,,,,,,,,,,,,,56,1.888,1,0,19,19,22,1,8,×,7,8 × 7,congruent,largerFirst,2,1,56,,,,,,,,
,,,,,,,,,,,,,,,803,2022-01-20_19h14.07.080,multiplicationStroop,2021.2.3,Win32,59.94485074,,,,,,,,,,,,,,,,,,,,,,,,,,,,,,,,,21,3.8594,1,0,20,20,2,1,3,×,7,3 × 7,congruent,smallerFirst,1,2,21,,,,,,,,
,,,,,,,,,,,,,,,803,2022-01-20_19h14.07.080,multiplicationStroop,2021.2.3,Win32,59.94485074,,,,,,,,,,,,,,,,,,,,,,,,,,,,,,,,,18,2.7036,1,0,21,21,25,1,6,×,3,6 × 3,congruent,largerFirst,2,1,18,,,,,,,,
,,,,,,,,,,,,,,,803,2022-01-20_19h14.07.080,multiplicationStroop,2021.2.3,Win32,59.94485074,,,,,,,,,,,,,,,,,,,,,,,,,,,,,,,,,10,2.2045,1,0,22,22,10,1,2,×,5,2 × 5,congruent,smallerFirst,1,2,10,,,,,,,,
,,,,,,,,,,,,,,,803,2022-01-20_19h14.07.080,multiplicationStroop,2021.2.3,Win32,59.94485074,,,,,,,,,,,,,,,,,,,,,,,,,,,,,,,,,25,5.4235,1,0,23,23,31,1,5,×,5,5 × 5,neutral,tie,1,2,25,,,,,,,,
,,,,,,,,,,,,,,,803,2022-01-20_19h14.07.080,multiplicationStroop,2021.2.3,Win32,59.94485074,,,,,,,,,,,,,,,,,,,,,,,,,,,,,,,,,42,2.6195,0,0,24,24,4,1,6,×,8,6 × 8,congruent,smallerFirst,1,2,48,,,,,,,,
,,,,,,,,,,,,,,,803,2022-01-20_19h14.07.080,multiplicationStroop,2021.2.3,Win32,59.94485074,,,,,,,,,,,,,,,,,,,,,,,,,,,,,,,,,54,4.3918,1,0,25,25,26,1,9,×,6,9 × 6,congruent,largerFirst,2,1,54,,,,,,,,
,,,,,,,,,,,,,,,803,2022-01-20_19h14.07.080,multiplicationStroop,2021.2.3,Win32,59.94485074,,,,,,,,,,,,,,,,,,,,,,,,,,,,,,,,,72,2.419,1,0,26,26,3,1,8,×,9,8 × 9,congruent,smallerFirst,1,2,72,,,,,,,,
,,,,,,,,,,,,,,,803,2022-01-20_19h14.07.080,multiplicationStroop,2021.2.3,Win32,59.94485074,,,,,,,,,,,,,,,,,,,,,,,,,,,,,,,,,24,2.2124,1,0,27,27,11,1,4,×,6,4 × 6,congruent,smallerFirst,1,2,24,,,,,,,,
,,,,,,,,,,,,,,,803,2022-01-20_19h14.07.080,multiplicationStroop,2021.2.3,Win32,59.94485074,,,,,,,,,,,,,,,,,,,,,,,,,,,,,,,,,16,2.5948,1,0,28,28,19,1,8,×,2,8 × 2,congruent,largerFirst,2,1,16,,,,,,,,
,,,,,,,,,,,,,,,803,2022-01-20_19h14.07.080,multiplicationStroop,2021.2.3,Win32,59.94485074,,,,,,,,,,,,,,,,,,,,,,,,,,,,,,,,,18,2.2522,1,0,29,29,8,1,2,×,9,2 × 9,congruent,smallerFirst,1,2,18,,,,,,,,
,,,,,,,,,,,,,,,803,2022-01-20_19h14.07.080,multiplicationStroop,2021.2.3,Win32,59.94485074,,,,,,,,,,,,,,,,,,,,,,,,,,,,,,,,,8,1.9464,1,0,30,30,23,1,4,×,2,4 × 2,congruent,largerFirst,2,1,8,,,,,,,,
,,,,,,,,,,,,,,,803,2022-01-20_19h14.07.080,multiplicationStroop,2021.2.3,Win32,59.94485074,,,,,,,,,,,,,,,,,,,,,,,,,,,,,,,,,16,1.9958,0,0,31,31,16,1,4,×,3,4 × 3,congruent,largerFirst,2,1,12,,,,,,,,
,,,,,,,,,,,,,,,803,2022-01-20_19h14.07.080,multiplicationStroop,2021.2.3,Win32,59.94485074,,,,,,,,,,,,,,,,,,,,,,,,,,,,,,,,,15,1.8465,1,0,32,32,18,1,5,×,3,5 × 3,congruent,largerFirst,2,1,15,,,,,,,,
,,,,,,,,,,,,,,,803,2022-01-20_19h14.07.080,multiplicationStroop,2021.2.3,Win32,59.94485074,,,,,,,,,,,,,,,,,,,,,,,,,,,,,,,,,12,1.7963,1,0,33,33,5,1,2,×,6,2 × 6,congruent,smallerFirst,1,2,12,,,,,,,,
,,,,,,,,,,,,,,,803,2022-01-20_19h14.07.080,multiplicationStroop,2021.2.3,Win32,59.94485074,,,,,,,,,,,,,,,,,,,,,,,,,,,,,,,,,14,1.5302,1,0,34,34,0,1,2,×,7,2 × 7,congruent,smallerFirst,1,2,14,,,,,,,,
,,,,,,,,,,,,,,,803,2022-01-20_19h14.07.080,multiplicationStroop,2021.2.3,Win32,59.94485074,,,,,,,,,,,,,,,,,,,,,,,,,,,,,,,,,63,2.3453,1,0,35,35,7,1,7,×,9,7 × 9,congruent,smallerFirst,1,2,63,,,,,,,,
,,,,,,,,,,,,,,,803,2022-01-20_19h14.07.080,multiplicationStroop,2021.2.3,Win32,59.94485074,,,,,,,,,,,,,,,,,,,,,,,,,,,,,,,,,,,,,,,,,,,,,,,,,,0,1,1,3,1,stimulusFile/mult_blk4_congruent.xlsx,,
,,,,,,,,,,,,,,,803,2022-01-20_19h14.07.080,multiplicationStroop,2021.2.3,Win32,59.94485074,,,,,,,,,,,,,,,,,,,,,,,,,,,,,,,space,1.4163,42,2.4977,1,0,0,0,3,1,6,×,7,6 × 7,incongruent,smallerFirst,2,1,42,,,,,,,,
,,,,,,,,,,,,,,,803,2022-01-20_19h14.07.080,multiplicationStroop,2021.2.3,Win32,59.94485074,,,,,,,,,,,,,,,,,,,,,,,,,,,,,,,,,28,2.2543,0,0,1,1,6,1,4,×,6,4 × 6,incongruent,smallerFirst,2,1,24,,,,,,,,
,,,,,,,,,,,,,,,803,2022-01-20_19h14.07.080,multiplicationStroop,2021.2.3,Win32,59.94485074,,,,,,,,,,,,,,,,,,,,,,,,,,,,,,,,,4,5.0079,0,0,2,2,26,1,7,×,5,7 × 5,incongruent,largerFirst,1,2,35,,,,,,,,
,,,,,,,,,,,,,,,803,2022-01-20_19h14.07.080,multiplicationStroop,2021.2.3,Win32,59.94485074,,,,,,,,,,,,,,,,,,,,,,,,,,,,,,,,,72,3.3839,1,0,3,3,14,1,9,×,8,9 × 8,incongruent,largerFirst,1,2,72,,,,,,,,
,,,,,,,,,,,,,,,803,2022-01-20_19h14.07.080,multiplicationStroop,2021.2.3,Win32,59.94485074,,,,,,,,,,,,,,,,,,,,,,,,,,,,,,,,,10,1.7693,1,0,4,4,7,1,2,×,5,2 × 5,incongruent,smallerFirst,2,1,10,,,,,,,,
,,,,,,,,,,,,,,,803,2022-01-20_19h14.07.080,multiplicationStroop,2021.2.3,Win32,59.94485074,,,,,,,,,,,,,,,,,,,,,,,,,,,,,,,,,45,1.7466,1,0,5,5,8,1,5,×,9,5 × 9,incongruent,smallerFirst,2,1,45,,,,,,,,
,,,,,,,,,,,,,,,803,2022-01-20_19h14.07.080,multiplicationStroop,2021.2.3,Win32,59.94485074,,,,,,,,,,,,,,,,,,,,,,,,,,,,,,,,,16,5.1738,1,0,6,6,30,1,4,×,4,4 × 4,neutral,tie,2,1,16,,,,,,,,
,,,,,,,,,,,,,,,803,2022-01-20_19h14.07.080,multiplicationStroop,2021.2.3,Win32,59.94485074,,,,,,,,,,,,,,,,,,,,,,,,,,,,,,,,,56,3.7672,1,0,7,7,0,1,7,×,8,7 × 8,incongruent,smallerFirst,2,1,56,,,,,,,,
,,,,,,,,,,,,,,,803,2022-01-20_19h14.07.080,multiplicationStroop,2021.2.3,Win32,59.94485074,,,,,,,,,,,,,,,,,,,,,,,,,,,,,,,,,20,5.1817,1,0,8,8,13,1,4,×,5,4 × 5,incongruent,smallerFirst,2,1,20,,,,,,,,
,,,,,,,,,,,,,,,803,2022-01-20_19h14.07.080,multiplicationStroop,2021.2.3,Win32,59.94485074,,,,,,,,,,,,,,,,,,,,,,,,,,,,,,,,,15,1.7035,1,0,9,9,24,1,5,×,3,5 × 3,incongruent,largerFirst,1,2,15,,,,,,,,
,,,,,,,,,,,,,,,803,2022-01-20_19h14.07.080,multiplicationStroop,2021.2.3,Win32,59.94485074,,,,,,,,,,,,,,,,,,,,,,,,,,,,,,,,,81,2.1292,1,0,10,10,35,1,9,×,9,9 × 9,neutral,tie,2,1,81,,,,,,,,
,,,,,,,,,,,,,,,803,2022-01-20_19h14.07.080,multiplicationStroop,2021.2.3,Win32,59.94485074,,,,,,,,,,,,,,,,,,,,,,,,,,,,,,,,,21,2.1458,1,0,11,11,12,1,3,×,7,3 × 7,incongruent,smallerFirst,2,1,21,,,,,,,,
,,,,,,,,,,,,,,,803,2022-01-20_19h14.07.080,multiplicationStroop,2021.2.3,Win32,59.94485074,,,,,,,,,,,,,,,,,,,,,,,,,,,,,,,,,64,2.0643,1,0,12,12,34,1,8,×,8,8 × 8,neutral,tie,2,1,64,,,,,,,,
,,,,,,,,,,,,,,,803,2022-01-20_19h14.07.080,multiplicationStroop,2021.2.3,Win32,59.94485074,,,,,,,,,,,,,,,,,,,,,,,,,,,,,,,,,6,2.6102,1,0,13,13,25,1,3,×,2,3 × 2,incongruent,largerFirst,1,2,6,,,,,,,,
,,,,,,,,,,,,,,,803,2022-01-20_19h14.07.080,multiplicationStroop,2021.2.3,Win32,59.94485074,,,,,,,,,,,,,,,,,,,,,,,,,,,,,,,,,32,2.0956,1,0,14,14,21,1,8,×,4,8 × 4,incongruent,largerFirst,1,2,32,,,,,,,,
,,,,,,,,,,,,,,,803,2022-01-20_19h14.07.080,multiplicationStroop,2021.2.3,Win32,59.94485074,,,,,,,,,,,,,,,,,,,,,,,,,,,,,,,,,18,2.3821,0,0,15,15,15,1,8,×,6,8 × 6,incongruent,largerFirst,1,2,48,,,,,,,,
,,,,,,,,,,,,,,,803,2022-01-20_19h14.07.080,multiplicationStroop,2021.2.3,Win32,59.94485074,,,,,,,,,,,,,,,,,,,,,,,,,,,,,,,,,8,2.4626,1,0,16,16,10,1,2,×,4,2 × 4,incongruent,smallerFirst,2,1,8,,,,,,,,
,,,,,,,,,,,,,,,803,2022-01-20_19h14.07.080,multiplicationStroop,2021.2.3,Win32,59.94485074,,,,,,,,,,,,,,,,,,,,,,,,,,,,,,,,,54,1.9959,1,0,17,17,20,1,9,×,6,9 × 6,incongruent,largerFirst,1,2,54,,,,,,,,
,,,,,,,,,,,,,,,803,2022-01-20_19h14.07.080,multiplicationStroop,2021.2.3,Win32,59.94485074,,,,,,,,,,,,,,,,,,,,,,,,,,,,,,,,,16,2.1293,1,0,18,18,9,1,2,×,8,2 × 8,incongruent,smallerFirst,2,1,16,,,,,,,,
,,,,,,,,,,,,,,,803,2022-01-20_19h14.07.080,multiplicationStroop,2021.2.3,Win32,59.94485074,,,,,,,,,,,,,,,,,,,,,,,,,,,,,,,,,4,1.8842,1,0,19,19,28,1,2,×,2,2 × 2,neutral,tie,2,1,4,,,,,,,,
,,,,,,,,,,,,,,,803,2022-01-20_19h14.07.080,multiplicationStroop,2021.2.3,Win32,59.94485074,,,,,,,,,,,,,,,,,,,,,,,,,,,,,,,,,26,2.2783,0,0,20,20,32,1,6,×,6,6 × 6,neutral,tie,2,1,36,,,,,,,,
,,,,,,,,,,,,,,,803,2022-01-20_19h14.07.080,multiplicationStroop,2021.2.3,Win32,59.94485074,,,,,,,,,,,,,,,,,,,,,,,,,,,,,,,,,45,2.9679,0,0,21,21,27,1,8,×,5,8 × 5,incongruent,largerFirst,1,2,40,,,,,,,,
,,,,,,,,,,,,,,,803,2022-01-20_19h14.07.080,multiplicationStroop,2021.2.3,Win32,59.94485074,,,,,,,,,,,,,,,,,,,,,,,,,,,,,,,,,28,2.0459,1,0,22,22,2,1,4,×,7,4 × 7,incongruent,smallerFirst,2,1,28,,,,,,,,
,,,,,,,,,,,,,,,803,2022-01-20_19h14.07.080,multiplicationStroop,2021.2.3,Win32,59.94485074,,,,,,,,,,,,,,,,,,,,,,,,,,,,,,,,,24,1.7951,0,0,23,23,33,1,7,×,7,7 × 7,neutral,tie,2,1,49,,,,,,,,
,,,,,,,,,,,,,,,803,2022-01-20_19h14.07.080,multiplicationStroop,2021.2.3,Win32,59.94485074,,,,,,,,,,,,,,,,,,,,,,,,,,,,,,,,,28,2.334,0,0,24,24,1,1,4,×,9,4 × 9,incongruent,smallerFirst,2,1,36,,,,,,,,
,,,,,,,,,,,,,,,803,2022-01-20_19h14.07.080,multiplicationStroop,2021.2.3,Win32,59.94485074,,,,,,,,,,,,,,,,,,,,,,,,,,,,,,,,,12,2.5232,1,0,25,25,5,1,2,×,6,2 × 6,incongruent,smallerFirst,2,1,12,,,,,,,,
,,,,,,,,,,,,,,,803,2022-01-20_19h14.07.080,multiplicationStroop,2021.2.3,Win32,59.94485074,,,,,,,,,,,,,,,,,,,,,,,,,,,,,,,,,27,3.161,1,0,26,26,4,1,3,×,9,3 × 9,incongruent,smallerFirst,2,1,27,,,,,,,,
,,,,,,,,,,,,,,,803,2022-01-20_19h14.07.080,multiplicationStroop,2021.2.3,Win32,59.94485074,,,,,,,,,,,,,,,,,,,,,,,,,,,,,,,,,9,1.7202,1,0,27,27,29,1,3,×,3,3 × 3,neutral,tie,2,1,9,,,,,,,,
,,,,,,,,,,,,,,,803,2022-01-20_19h14.07.080,multiplicationStroop,2021.2.3,Win32,59.94485074,,,,,,,,,,,,,,,,,,,,,,,,,,,,,,,,,24,2.5279,1,0,28,28,23,1,8,×,3,8 × 3,incongruent,largerFirst,1,2,24,,,,,,,,
,,,,,,,,,,,,,,,803,2022-01-20_19h14.07.080,multiplicationStroop,2021.2.3,Win32,59.94485074,,,,,,,,,,,,,,,,,,,,,,,,,,,,,,,,,12,1.6629,1,0,29,29,19,1,4,×,3,4 × 3,incongruent,largerFirst,1,2,12,,,,,,,,
,,,,,,,,,,,,,,,803,2022-01-20_19h14.07.080,multiplicationStroop,2021.2.3,Win32,59.94485074,,,,,,,,,,,,,,,,,,,,,,,,,,,,,,,,,14,2.2118,0,0,30,30,16,1,9,×,2,9 × 2,incongruent,largerFirst,1,2,18,,,,,,,,
,,,,,,,,,,,,,,,803,2022-01-20_19h14.07.080,multiplicationStroop,2021.2.3,Win32,59.94485074,,,,,,,,,,,,,,,,,,,,,,,,,,,,,,,,,12,2.2453,0,0,31,31,22,1,6,×,3,6 × 3,incongruent,largerFirst,1,2,18,,,,,,,,
,,,,,,,,,,,,,,,803,2022-01-20_19h14.07.080,multiplicationStroop,2021.2.3,Win32,59.94485074,,,,,,,,,,,,,,,,,,,,,,,,,,,,,,,,,30,2.9472,1,0,32,32,11,1,5,×,6,5 × 6,incongruent,smallerFirst,2,1,30,,,,,,,,
,,,,,,,,,,,,,,,803,2022-01-20_19h14.07.080,multiplicationStroop,2021.2.3,Win32,59.94485074,,,,,,,,,,,,,,,,,,,,,,,,,,,,,,,,,25,2.1841,1,0,33,33,31,1,5,×,5,5 × 5,neutral,tie,2,1,25,,,,,,,,
,,,,,,,,,,,,,,,803,2022-01-20_19h14.07.080,multiplicationStroop,2021.2.3,Win32,59.94485074,,,,,,,,,,,,,,,,,,,,,,,,,,,,,,,,,14,2.0245,1,0,34,34,18,1,7,×,2,7 × 2,incongruent,largerFirst,1,2,14,,,,,,,,
,,,,,,,,,,,,,,,803,2022-01-20_19h14.07.080,multiplicationStroop,2021.2.3,Win32,59.94485074,,,,,,,,,,,,,,,,,,,,,,,,,,,,,,,,,63,3.2759,1,0,35,35,17,1,9,×,7,9 × 7,incongruent,largerFirst,1,2,63,,,,,,,,
,,,,,,,,,,,,,,,803,2022-01-20_19h14.07.080,multiplicationStroop,2021.2.3,Win32,59.94485074,,,,,,,,,,,,,,,,,,,,,,,,,,,,,,,,,,,,,,,,,,,,,,,,,,0,2,2,4,1,stimulusFile/mult_blk5_INcongruent.xlsx,,
,,,,,,,,,,,,,,,803,2022-01-20_19h14.07.080,multiplicationStroop,2021.2.3,Win32,59.94485074,,,,,,,,,,,,,,,,,,,,,,,,,,,,,,,space,1.2257,24,2.7246,1,0,0,0,16,1,6,×,4,6 × 4,neutral,largerFirst,1.5,1.5,24,,,,,,,,
,,,,,,,,,,,,,,,803,2022-01-20_19h14.07.080,multiplicationStroop,2021.2.3,Win32,59.94485074,,,,,,,,,,,,,,,,,,,,,,,,,,,,,,,,,32,1.7618,1,0,1,1,9,1,4,×,8,4 × 8,neutral,smallerFirst,1.5,1.5,32,,,,,,,,
,,,,,,,,,,,,,,,803,2022-01-20_19h14.07.080,multiplicationStroop,2021.2.3,Win32,59.94485074,,,,,,,,,,,,,,,,,,,,,,,,,,,,,,,,,18,1.9792,1,0,2,2,4,1,2,×,9,2 × 9,neutral,smallerFirst,1.5,1.5,18,,,,,,,,
,,,,,,,,,,,,,,,803,2022-01-20_19h14.07.080,multiplicationStroop,2021.2.3,Win32,59.94485074,,,,,,,,,,,,,,,,,,,,,,,,,,,,,,,,,64,2.5447,1,0,3,3,34,1,8,×,8,8 × 8,neutral,tie,1.5,1.5,64,,,,,,,,
,,,,,,,,,,,,,,,803,2022-01-20_19h14.07.080,multiplicationStroop,2021.2.3,Win32,59.94485074,,,,,,,,,,,,,,,,,,,,,,,,,,,,,,,,,15,1.7029,1,0,4,4,19,1,5,×,3,5 × 3,neutral,largerFirst,1.5,1.5,15,,,,,,,,
,,,,,,,,,,,,,,,803,2022-01-20_19h14.07.080,multiplicationStroop,2021.2.3,Win32,59.94485074,,,,,,,,,,,,,,,,,,,,,,,,,,,,,,,,,16,1.9793,1,0,5,5,27,1,8,×,2,8 × 2,neutral,largerFirst,1.5,1.5,16,,,,,,,,
,,,,,,,,,,,,,,,803,2022-01-20_19h14.07.080,multiplicationStroop,2021.2.3,Win32,59.94485074,,,,,,,,,,,,,,,,,,,,,,,,,,,,,,,,,9,1.6465,1,0,6,6,29,1,3,×,3,3 × 3,neutral,tie,1.5,1.5,9,,,,,,,,
,,,,,,,,,,,,,,,803,2022-01-20_19h14.07.080,multiplicationStroop,2021.2.3,Win32,59.94485074,,,,,,,,,,,,,,,,,,,,,,,,,,,,,,,,,12,2.3617,1,0,7,7,11,1,2,×,6,2 × 6,neutral,smallerFirst,1.5,1.5,12,,,,,,,,
,,,,,,,,,,,,,,,803,2022-01-20_19h14.07.080,multiplicationStroop,2021.2.3,Win32,59.94485074,,,,,,,,,,,,,,,,,,,,,,,,,,,,,,,,,8,2.2622,1,0,8,8,17,1,4,×,2,4 × 2,neutral,largerFirst,1.5,1.5,8,,,,,,,,
,,,,,,,,,,,,,,,803,2022-01-20_19h14.07.080,multiplicationStroop,2021.2.3,Win32,59.94485074,,,,,,,,,,,,,,,,,,,,,,,,,,,,,,,,,45,1.9378,1,0,9,9,24,1,9,×,5,9 × 5,neutral,largerFirst,1.5,1.5,45,,,,,,,,
,,,,,,,,,,,,,,,803,2022-01-20_19h14.07.080,multiplicationStroop,2021.2.3,Win32,59.94485074,,,,,,,,,,,,,,,,,,,,,,,,,,,,,,,,,25,2.0959,1,0,10,10,31,1,5,×,5,5 × 5,neutral,tie,1.5,1.5,25,,,,,,,,
,,,,,,,,,,,,,,,803,2022-01-20_19h14.07.080,multiplicationStroop,2021.2.3,Win32,59.94485074,,,,,,,,,,,,,,,,,,,,,,,,,,,,,,,,,35,2.29,1,0,11,11,15,1,7,×,5,7 × 5,neutral,largerFirst,1.5,1.5,35,,,,,,,,
,,,,,,,,,,,,,,,803,2022-01-20_19h14.07.080,multiplicationStroop,2021.2.3,Win32,59.94485074,,,,,,,,,,,,,,,,,,,,,,,,,,,,,,,,,28,2.4905,1,0,12,12,3,1,4,×,7,4 × 7,neutral,smallerFirst,1.5,1.5,28,,,,,,,,
,,,,,,,,,,,,,,,803,2022-01-20_19h14.07.080,multiplicationStroop,2021.2.3,Win32,59.94485074,,,,,,,,,,,,,,,,,,,,,,,,,,,,,,,,,35,2.1953,0,0,13,13,13,1,4,×,9,4 × 9,neutral,smallerFirst,1.5,1.5,36,,,,,,,,
,,,,,,,,,,,,,,,803,2022-01-20_19h14.07.080,multiplicationStroop,2021.2.3,Win32,59.94485074,,,,,,,,,,,,,,,,,,,,,,,,,,,,,,,,,30,3.9922,1,0,14,14,5,1,5,×,6,5 × 6,neutral,smallerFirst,1.5,1.5,30,,,,,,,,
,,,,,,,,,,,,,,,803,2022-01-20_19h14.07.080,multiplicationStroop,2021.2.3,Win32,59.94485074,,,,,,,,,,,,,,,,,,,,,,,,,,,,,,,,,48,6.6767,1,0,15,15,1,1,6,×,8,6 × 8,neutral,smallerFirst,1.5,1.5,48,,,,,,,,
,,,,,,,,,,,,,,,803,2022-01-20_19h14.07.080,multiplicationStroop,2021.2.3,Win32,59.94485074,,,,,,,,,,,,,,,,,,,,,,,,,,,,,,,,,10,3.1008,1,0,16,16,18,1,5,×,2,5 × 2,neutral,largerFirst,1.5,1.5,10,,,,,,,,
,,,,,,,,,,,,,,,803,2022-01-20_19h14.07.080,multiplicationStroop,2021.2.3,Win32,59.94485074,,,,,,,,,,,,,,,,,,,,,,,,,,,,,,,,,72,2.3067,1,0,17,17,25,1,9,×,8,9 × 8,neutral,largerFirst,1.5,1.5,72,,,,,,,,
,,,,,,,,,,,,,,,803,2022-01-20_19h14.07.080,multiplicationStroop,2021.2.3,Win32,59.94485074,,,,,,,,,,,,,,,,,,,,,,,,,,,,,,,,,27,4.1425,1,0,18,18,0,1,3,×,9,3 × 9,neutral,smallerFirst,1.5,1.5,27,,,,,,,,
,,,,,,,,,,,,,,,803,2022-01-20_19h14.07.080,multiplicationStroop,2021.2.3,Win32,59.94485074,,,,,,,,,,,,,,,,,,,,,,,,,,,,,,,,,49,3.0637,1,0,19,19,33,1,7,×,7,7 × 7,neutral,tie,1.5,1.5,49,,,,,,,,
,,,,,,,,,,,,,,,803,2022-01-20_19h14.07.080,multiplicationStroop,2021.2.3,Win32,59.94485074,,,,,,,,,,,,,,,,,,,,,,,,,,,,,,,,,45,2.086,0,0,20,20,10,1,5,×,8,5 × 8,neutral,smallerFirst,1.5,1.5,40,,,,,,,,
,,,,,,,,,,,,,,,803,2022-01-20_19h14.07.080,multiplicationStroop,2021.2.3,Win32,59.94485074,,,,,,,,,,,,,,,,,,,,,,,,,,,,,,,,,54,1.7777,1,0,21,21,21,1,9,×,6,9 × 6,neutral,largerFirst,1.5,1.5,54,,,,,,,,
,,,,,,,,,,,,,,,803,2022-01-20_19h14.07.080,multiplicationStroop,2021.2.3,Win32,59.94485074,,,,,,,,,,,,,,,,,,,,,,,,,,,,,,,,,62,2.6331,0,0,22,22,26,1,9,×,7,9 × 7,neutral,largerFirst,1.5,1.5,63,,,,,,,,
,,,,,,,,,,,,,,,803,2022-01-20_19h14.07.080,multiplicationStroop,2021.2.3,Win32,59.94485074,,,,,,,,,,,,,,,,,,,,,,,,,,,,,,,,,54,2.1411,0,0,23,23,8,1,3,×,8,3 × 8,neutral,smallerFirst,1.5,1.5,24,,,,,,,,
,,,,,,,,,,,,,,,803,2022-01-20_19h14.07.080,multiplicationStroop,2021.2.3,Win32,59.94485074,,,,,,,,,,,,,,,,,,,,,,,,,,,,,,,,,12,2.0954,1,0,24,24,7,1,3,×,4,3 × 4,neutral,smallerFirst,1.5,1.5,12,,,,,,,,
,,,,,,,,,,,,,,,803,2022-01-20_19h14.07.080,multiplicationStroop,2021.2.3,Win32,59.94485074,,,,,,,,,,,,,,,,,,,,,,,,,,,,,,,,,20,4.4634,1,0,25,25,6,1,4,×,5,4 × 5,neutral,smallerFirst,1.5,1.5,20,,,,,,,,
,,,,,,,,,,,,,,,803,2022-01-20_19h14.07.080,multiplicationStroop,2021.2.3,Win32,59.94485074,,,,,,,,,,,,,,,,,,,,,,,,,,,,,,,,,16,2.6363,1,0,26,26,30,1,4,×,4,4 × 4,neutral,tie,1.5,1.5,16,,,,,,,,
,,,,,,,,,,,,,,,803,2022-01-20_19h14.07.080,multiplicationStroop,2021.2.3,Win32,59.94485074,,,,,,,,,,,,,,,,,,,,,,,,,,,,,,,,,81,2.6477,1,0,27,27,35,1,9,×,9,9 × 9,neutral,tie,1.5,1.5,81,,,,,,,,
,,,,,,,,,,,,,,,803,2022-01-20_19h14.07.080,multiplicationStroop,2021.2.3,Win32,59.94485074,,,,,,,,,,,,,,,,,,,,,,,,,,,,,,,,,21,2.0456,1,0,28,28,22,1,7,×,3,7 × 3,neutral,largerFirst,1.5,1.5,21,,,,,,,,
,,,,,,,,,,,,,,,803,2022-01-20_19h14.07.080,multiplicationStroop,2021.2.3,Win32,59.94485074,,,,,,,,,,,,,,,,,,,,,,,,,,,,,,,,,26,6.7377,0,0,29,29,32,1,6,×,6,6 × 6,neutral,tie,1.5,1.5,36,,,,,,,,
,,,,,,,,,,,,,,,803,2022-01-20_19h14.07.080,multiplicationStroop,2021.2.3,Win32,59.94485074,,,,,,,,,,,,,,,,,,,,,,,,,,,,,,,,,4,3.5161,1,0,30,30,28,1,2,×,2,2 × 2,neutral,tie,1.5,1.5,4,,,,,,,,
,,,,,,,,,,,,,,,803,2022-01-20_19h14.07.080,multiplicationStroop,2021.2.3,Win32,59.94485074,,,,,,,,,,,,,,,,,,,,,,,,,,,,,,,,,14,1.6867,1,0,31,31,2,1,2,×,7,2 × 7,neutral,smallerFirst,1.5,1.5,14,,,,,,,,
,,,,,,,,,,,,,,,803,2022-01-20_19h14.07.080,multiplicationStroop,2021.2.3,Win32,59.94485074,,,,,,,,,,,,,,,,,,,,,,,,,,,,,,,,,56,2.245,1,0,32,32,23,1,8,×,7,8 × 7,neutral,largerFirst,1.5,1.5,56,,,,,,,,
,,,,,,,,,,,,,,,803,2022-01-20_19h14.07.080,multiplicationStroop,2021.2.3,Win32,59.94485074,,,,,,,,,,,,,,,,,,,,,,,,,,,,,,,,,6,3.4096,1,0,33,33,12,1,2,×,3,2 × 3,neutral,smallerFirst,1.5,1.5,6,,,,,,,,
,,,,,,,,,,,,,,,803,2022-01-20_19h14.07.080,multiplicationStroop,2021.2.3,Win32,59.94485074,,,,,,,,,,,,,,,,,,,,,,,,,,,,,,,,,18,3.6735,1,0,34,34,14,1,6,×,3,6 × 3,neutral,largerFirst,1.5,1.5,18,,,,,,,,
,,,,,,,,,,,,,,,803,2022-01-20_19h14.07.080,multiplicationStroop,2021.2.3,Win32,59.94485074,,,,,,,,,,,,,,,,,,,,,,,,,,,,,,,,,42,2.681,1,0,35,35,20,1,7,×,6,7 × 6,neutral,largerFirst,1.5,1.5,42,,,,,,,,
,,,,,,,,,,,,,,,803,2022-01-20_19h14.07.080,multiplicationStroop,2021.2.3,Win32,59.94485074,,,,,,,,,,,,,,,,,,,,,,,,,,,,,,,,,,,,,,,,,,,,,,,,,,0,3,3,0,1,stimulusFile/mult_blk1.xlsx,,
,,,,,,,,,,,,,,,803,2022-01-20_19h14.07.080,multiplicationStroop,2021.2.3,Win32,59.94485074,,,,,,,,,,,,,,,,,,,,,,,,,,,,,,,space,1.0584,25,2.1496,1,0,0,0,31,1,5,×,5,5 × 5,neutral,tie,2,1,25,,,,,,,,
,,,,,,,,,,,,,,,803,2022-01-20_19h14.07.080,multiplicationStroop,2021.2.3,Win32,59.94485074,,,,,,,,,,,,,,,,,,,,,,,,,,,,,,,,,30,2.0362,1,0,1,1,15,1,6,×,5,6 × 5,congruent,largerFirst,2,1,30,,,,,,,,
,,,,,,,,,,,,,,,803,2022-01-20_19h14.07.080,multiplicationStroop,2021.2.3,Win32,59.94485074,,,,,,,,,,,,,,,,,,,,,,,,,,,,,,,,,12,1.7296,1,0,2,2,2,1,3,×,4,3 × 4,congruent,smallerFirst,1,2,12,,,,,,,,
,,,,,,,,,,,,,,,803,2022-01-20_19h14.07.080,multiplicationStroop,2021.2.3,Win32,59.94485074,,,,,,,,,,,,,,,,,,,,,,,,,,,,,,,,,42,2.35,1,0,3,3,3,1,6,×,7,6 × 7,congruent,smallerFirst,1,2,42,,,,,,,,
,,,,,,,,,,,,,,,803,2022-01-20_19h14.07.080,multiplicationStroop,2021.2.3,Win32,59.94485074,,,,,,,,,,,,,,,,,,,,,,,,,,,,,,,,,28,2.0704,1,0,4,4,27,1,7,×,4,7 × 4,congruent,largerFirst,2,1,28,,,,,,,,
,,,,,,,,,,,,,,,803,2022-01-20_19h14.07.080,multiplicationStroop,2021.2.3,Win32,59.94485074,,,,,,,,,,,,,,,,,,,,,,,,,,,,,,,,,24,6.0224,1,0,5,5,25,1,6,×,4,6 × 4,congruent,largerFirst,2,1,24,,,,,,,,
,,,,,,,,,,,,,,,803,2022-01-20_19h14.07.080,multiplicationStroop,2021.2.3,Win32,59.94485074,,,,,,,,,,,,,,,,,,,,,,,,,,,,,,,,,40,2.7994,1,0,6,6,6,1,5,×,8,5 × 8,congruent,smallerFirst,1,2,40,,,,,,,,
,,,,,,,,,,,,,,,803,2022-01-20_19h14.07.080,multiplicationStroop,2021.2.3,Win32,59.94485074,,,,,,,,,,,,,,,,,,,,,,,,,,,,,,,,,18,1.9616,1,0,7,7,22,1,9,×,2,9 × 2,congruent,largerFirst,2,1,18,,,,,,,,
,,,,,,,,,,,,,,,803,2022-01-20_19h14.07.080,multiplicationStroop,2021.2.3,Win32,59.94485074,,,,,,,,,,,,,,,,,,,,,,,,,,,,,,,,,35,3.0112,1,0,8,8,1,1,5,×,7,5 × 7,congruent,smallerFirst,1,2,35,,,,,,,,
,,,,,,,,,,,,,,,803,2022-01-20_19h14.07.080,multiplicationStroop,2021.2.3,Win32,59.94485074,,,,,,,,,,,,,,,,,,,,,,,,,,,,,,,,,4,1.4801,1,0,9,9,28,1,2,×,2,2 × 2,neutral,tie,2,1,4,,,,,,,,
,,,,,,,,,,,,,,,803,2022-01-20_19h14.07.080,multiplicationStroop,2021.2.3,Win32,59.94485074,,,,,,,,,,,,,,,,,,,,,,,,,,,,,,,,,6,2.0517,1,0,10,10,13,1,2,×,3,2 × 3,congruent,smallerFirst,1,2,6,,,,,,,,
,,,,,,,,,,,,,,,803,2022-01-20_19h14.07.080,multiplicationStroop,2021.2.3,Win32,59.94485074,,,,,,,,,,,,,,,,,,,,,,,,,,,,,,,,,56,2.0068,1,0,11,11,8,1,7,×,8,7 × 8,congruent,smallerFirst,1,2,56,,,,,,,,
,,,,,,,,,,,,,,,803,2022-01-20_19h14.07.080,multiplicationStroop,2021.2.3,Win32,59.94485074,,,,,,,,,,,,,,,,,,,,,,,,,,,,,,,,,18,2.3663,1,0,12,12,11,1,3,×,6,3 × 6,congruent,smallerFirst,1,2,18,,,,,,,,
,,,,,,,,,,,,,,,803,2022-01-20_19h14.07.080,multiplicationStroop,2021.2.3,Win32,59.94485074,,,,,,,,,,,,,,,,,,,,,,,,,,,,,,,,,32,1.5921,1,0,13,13,20,1,8,×,4,8 × 4,congruent,largerFirst,2,1,32,,,,,,,,
,,,,,,,,,,,,,,,803,2022-01-20_19h14.07.080,multiplicationStroop,2021.2.3,Win32,59.94485074,,,,,,,,,,,,,,,,,,,,,,,,,,,,,,,,,36,2.6165,1,0,14,14,32,1,6,×,6,6 × 6,neutral,tie,2,1,36,,,,,,,,
,,,,,,,,,,,,,,,803,2022-01-20_19h14.07.080,multiplicationStroop,2021.2.3,Win32,59.94485074,,,,,,,,,,,,,,,,,,,,,,,,,,,,,,,,,49,2.0373,1,0,15,15,33,1,7,×,7,7 × 7,neutral,tie,2,1,49,,,,,,,,
,,,,,,,,,,,,,,,803,2022-01-20_19h14.07.080,multiplicationStroop,2021.2.3,Win32,59.94485074,,,,,,,,,,,,,,,,,,,,,,,,,,,,,,,,,72,2.0247,1,0,16,16,17,1,9,×,8,9 × 8,congruent,largerFirst,2,1,72,,,,,,,,
,,,,,,,,,,,,,,,803,2022-01-20_19h14.07.080,multiplicationStroop,2021.2.3,Win32,59.94485074,,,,,,,,,,,,,,,,,,,,,,,,,,,,,,,,,64,2.2936,1,0,17,17,34,1,8,×,8,8 × 8,neutral,tie,2,1,64,,,,,,,,
,,,,,,,,,,,,,,,803,2022-01-20_19h14.07.080,multiplicationStroop,2021.2.3,Win32,59.94485074,,,,,,,,,,,,,,,,,,,,,,,,,,,,,,,,,81,2.4454,1,0,18,18,35,1,9,×,9,9 × 9,neutral,tie,2,1,81,,,,,,,,
,,,,,,,,,,,,,,,803,2022-01-20_19h14.07.080,multiplicationStroop,2021.2.3,Win32,59.94485074,,,,,,,,,,,,,,,,,,,,,,,,,,,,,,,,,20,6.0723,1,0,19,19,7,1,4,×,5,4 × 5,congruent,smallerFirst,1,2,20,,,,,,,,
,,,,,,,,,,,,,,,803,2022-01-20_19h14.07.080,multiplicationStroop,2021.2.3,Win32,59.94485074,,,,,,,,,,,,,,,,,,,,,,,,,,,,,,,,,36,2.7684,1,0,20,20,0,1,4,×,9,4 × 9,congruent,smallerFirst,1,2,36,,,,,,,,
,,,,,,,,,,,,,,,803,2022-01-20_19h14.07.080,multiplicationStroop,2021.2.3,Win32,59.94485074,,,,,,,,,,,,,,,,,,,,,,,,,,,,,,,,,12,3.1939,1,0,21,21,19,1,6,×,2,6 × 2,congruent,largerFirst,2,1,12,,,,,,,,
,,,,,,,,,,,,,,,803,2022-01-20_19h14.07.080,multiplicationStroop,2021.2.3,Win32,59.94485074,,,,,,,,,,,,,,,,,,,,,,,,,,,,,,,,,36,3.1821,0,0,22,22,12,1,6,×,9,6 × 9,congruent,smallerFirst,1,2,54,,,,,,,,
,,,,,,,,,,,,,,,803,2022-01-20_19h14.07.080,multiplicationStroop,2021.2.3,Win32,59.94485074,,,,,,,,,,,,,,,,,,,,,,,,,,,,,,,,,27,2.2017,1,0,23,23,26,1,9,×,3,9 × 3,congruent,largerFirst,2,1,27,,,,,,,,
,,,,,,,,,,,,,,,803,2022-01-20_19h14.07.080,multiplicationStroop,2021.2.3,Win32,59.94485074,,,,,,,,,,,,,,,,,,,,,,,,,,,,,,,,,16,1.9291,1,0,24,24,5,1,2,×,8,2 × 8,congruent,smallerFirst,1,2,16,,,,,,,,
,,,,,,,,,,,,,,,803,2022-01-20_19h14.07.080,multiplicationStroop,2021.2.3,Win32,59.94485074,,,,,,,,,,,,,,,,,,,,,,,,,,,,,,,,,15,2.2831,1,0,25,25,4,1,3,×,5,3 × 5,congruent,smallerFirst,1,2,15,,,,,,,,
,,,,,,,,,,,,,,,803,2022-01-20_19h14.07.080,multiplicationStroop,2021.2.3,Win32,59.94485074,,,,,,,,,,,,,,,,,,,,,,,,,,,,,,,,,8,2.2914,1,0,26,26,9,1,2,×,4,2 × 4,congruent,smallerFirst,1,2,8,,,,,,,,
,,,,,,,,,,,,,,,803,2022-01-20_19h14.07.080,multiplicationStroop,2021.2.3,Win32,59.94485074,,,,,,,,,,,,,,,,,,,,,,,,,,,,,,,,,21,1.6966,1,0,27,27,16,1,7,×,3,7 × 3,congruent,largerFirst,2,1,21,,,,,,,,
,,,,,,,,,,,,,,,803,2022-01-20_19h14.07.080,multiplicationStroop,2021.2.3,Win32,59.94485074,,,,,,,,,,,,,,,,,,,,,,,,,,,,,,,,,48,3.8084,1,0,28,28,18,1,8,×,6,8 × 6,congruent,largerFirst,2,1,48,,,,,,,,
,,,,,,,,,,,,,,,803,2022-01-20_19h14.07.080,multiplicationStroop,2021.2.3,Win32,59.94485074,,,,,,,,,,,,,,,,,,,,,,,,,,,,,,,,,35,2.5232,0,0,29,29,23,1,9,×,5,9 × 5,congruent,largerFirst,2,1,45,,,,,,,,
,,,,,,,,,,,,,,,803,2022-01-20_19h14.07.080,multiplicationStroop,2021.2.3,Win32,59.94485074,,,,,,,,,,,,,,,,,,,,,,,,,,,,,,,,,10,2.7063,1,0,30,30,24,1,5,×,2,5 × 2,congruent,largerFirst,2,1,10,,,,,,,,
,,,,,,,,,,,,,,,803,2022-01-20_19h14.07.080,multiplicationStroop,2021.2.3,Win32,59.94485074,,,,,,,,,,,,,,,,,,,,,,,,,,,,,,,,,9,2.0792,1,0,31,31,29,1,3,×,3,3 × 3,neutral,tie,2,1,9,,,,,,,,
,,,,,,,,,,,,,,,803,2022-01-20_19h14.07.080,multiplicationStroop,2021.2.3,Win32,59.94485074,,,,,,,,,,,,,,,,,,,,,,,,,,,,,,,,,14,2.7114,1,0,32,32,14,1,7,×,2,7 × 2,congruent,largerFirst,2,1,14,,,,,,,,
,,,,,,,,,,,,,,,803,2022-01-20_19h14.07.080,multiplicationStroop,2021.2.3,Win32,59.94485074,,,,,,,,,,,,,,,,,,,,,,,,,,,,,,,,,12,3.6383,0,0,33,33,30,1,4,×,4,4 × 4,neutral,tie,2,1,16,,,,,,,,
,,,,,,,,,,,,,,,803,2022-01-20_19h14.07.080,multiplicationStroop,2021.2.3,Win32,59.94485074,,,,,,,,,,,,,,,,,,,,,,,,,,,,,,,,,63,3.2228,1,0,34,34,21,1,9,×,7,9 × 7,congruent,largerFirst,2,1,63,,,,,,,,
,,,,,,,,,,,,,,,803,2022-01-20_19h14.07.080,multiplicationStroop,2021.2.3,Win32,59.94485074,,,,,,,,,,,,,,,,,,,,,,,,,,,,,,,,,24,2.9519,1,0,35,35,10,1,3,×,8,3 × 8,congruent,smallerFirst,1,2,24,,,,,,,,
,,,,,,,,,,,,,,,803,2022-01-20_19h14.07.080,multiplicationStroop,2021.2.3,Win32,59.94485074,,,,,,,,,,,,,,,,,,,,,,,,,,,,,,,,,,,,,,,,,,,,,,,,,,0,4,4,2,1,stimulusFile/mult_blk3_congruent.xlsx,,
,,,,,,,,,,,,,,,803,2022-01-20_19h14.07.080,multiplicationStroop,2021.2.3,Win32,59.94485074,,,,,,,,,,,,,,,,,,,,,,,,,,,,,,,space,1.4313,10,1.7023,1,0,0,0,4,1,2,×,5,2 × 5,neutral,smallerFirst,1.5,1.5,10,,,,,,,,
,,,,,,,,,,,,,,,803,2022-01-20_19h14.07.080,multiplicationStroop,2021.2.3,Win32,59.94485074,,,,,,,,,,,,,,,,,,,,,,,,,,,,,,,,,14,1.4637,1,0,1,1,16,1,7,×,2,7 × 2,neutral,largerFirst,1.5,1.5,14,,,,,,,,
,,,,,,,,,,,,,,,803,2022-01-20_19h14.07.080,multiplicationStroop,2021.2.3,Win32,59.94485074,,,,,,,,,,,,,,,,,,,,,,,,,,,,,,,,,35,1.7179,1,0,2,2,1,1,5,×,7,5 × 7,neutral,smallerFirst,1.5,1.5,35,,,,,,,,
,,,,,,,,,,,,,,,803,2022-01-20_19h14.07.080,multiplicationStroop,2021.2.3,Win32,59.94485074,,,,,,,,,,,,,,,,,,,,,,,,,,,,,,,,,25,2.0909,1,0,3,3,31,1,5,×,5,5 × 5,neutral,tie,1.5,1.5,25,,,,,,,,
,,,,,,,,,,,,,,,803,2022-01-20_19h14.07.080,multiplicationStroop,2021.2.3,Win32,59.94485074,,,,,,,,,,,,,,,,,,,,,,,,,,,,,,,,,20,4.1923,1,0,4,4,20,1,5,×,4,5 × 4,neutral,largerFirst,1.5,1.5,20,,,,,,,,
,,,,,,,,,,,,,,,803,2022-01-20_19h14.07.080,multiplicationStroop,2021.2.3,Win32,59.94485074,,,,,,,,,,,,,,,,,,,,,,,,,,,,,,,,,16,1.9922,1,0,5,5,13,1,2,×,8,2 × 8,neutral,smallerFirst,1.5,1.5,16,,,,,,,,
,,,,,,,,,,,,,,,803,2022-01-20_19h14.07.080,multiplicationStroop,2021.2.3,Win32,59.94485074,,,,,,,,,,,,,,,,,,,,,,,,,,,,,,,,,9,2.0286,1,0,6,6,29,1,3,×,3,3 × 3,neutral,tie,1.5,1.5,9,,,,,,,,
,,,,,,,,,,,,,,,803,2022-01-20_19h14.07.080,multiplicationStroop,2021.2.3,Win32,59.94485074,,,,,,,,,,,,,,,,,,,,,,,,,,,,,,,,,72,3.1569,1,0,7,7,11,1,8,×,9,8 × 9,neutral,smallerFirst,1.5,1.5,72,,,,,,,,
,,,,,,,,,,,,,,,803,2022-01-20_19h14.07.080,multiplicationStroop,2021.2.3,Win32,59.94485074,,,,,,,,,,,,,,,,,,,,,,,,,,,,,,,,,36,3.044,0,0,8,8,23,1,8,×,4,8 × 4,neutral,largerFirst,1.5,1.5,32,,,,,,,,
,,,,,,,,,,,,,,,803,2022-01-20_19h14.07.080,multiplicationStroop,2021.2.3,Win32,59.94485074,,,,,,,,,,,,,,,,,,,,,,,,,,,,,,,,,40,2.186,1,0,9,9,24,1,8,×,5,8 × 5,neutral,largerFirst,1.5,1.5,40,,,,,,,,
,,,,,,,,,,,,,,,803,2022-01-20_19h14.07.080,multiplicationStroop,2021.2.3,Win32,59.94485074,,,,,,,,,,,,,,,,,,,,,,,,,,,,,,,,,18,1.9455,1,0,10,10,18,1,9,×,2,9 × 2,neutral,largerFirst,1.5,1.5,18,,,,,,,,
,,,,,,,,,,,,,,,803,2022-01-20_19h14.07.080,multiplicationStroop,2021.2.3,Win32,59.94485074,,,,,,,,,,,,,,,,,,,,,,,,,,,,,,,,,56,1.9837,1,0,11,11,9,1,7,×,8,7 × 8,neutral,smallerFirst,1.5,1.5,56,,,,,,,,
,,,,,,,,,,,,,,,803,2022-01-20_19h14.07.080,multiplicationStroop,2021.2.3,Win32,59.94485074,,,,,,,,,,,,,,,,,,,,,,,,,,,,,,,,,63,2.4741,1,0,12,12,12,1,7,×,9,7 × 9,neutral,smallerFirst,1.5,1.5,63,,,,,,,,
,,,,,,,,,,,,,,,803,2022-01-20_19h14.07.080,multiplicationStroop,2021.2.3,Win32,59.94485074,,,,,,,,,,,,,,,,,,,,,,,,,,,,,,,,,28,1.9955,1,0,13,13,17,1,7,×,4,7 × 4,neutral,largerFirst,1.5,1.5,28,,,,,,,,
,,,,,,,,,,,,,,,803,2022-01-20_19h14.07.080,multiplicationStroop,2021.2.3,Win32,59.94485074,,,,,,,,,,,,,,,,,,,,,,,,,,,,,,,,,24,2.6447,1,0,14,14,2,1,4,×,6,4 × 6,neutral,smallerFirst,1.5,1.5,24,,,,,,,,
,,,,,,,,,,,,,,,803,2022-01-20_19h14.07.080,multiplicationStroop,2021.2.3,Win32,59.94485074,,,,,,,,,,,,,,,,,,,,,,,,,,,,,,,,,12,2.1258,1,0,15,15,21,1,4,×,3,4 × 3,neutral,largerFirst,1.5,1.5,12,,,,,,,,
,,,,,,,,,,,,,,,803,2022-01-20_19h14.07.080,multiplicationStroop,2021.2.3,Win32,59.94485074,,,,,,,,,,,,,,,,,,,,,,,,,,,,,,,,,12,2.5121,0,0,16,16,0,1,3,×,6,3 × 6,neutral,smallerFirst,1.5,1.5,18,,,,,,,,
,,,,,,,,,,,,,,,803,2022-01-20_19h14.07.080,multiplicationStroop,2021.2.3,Win32,59.94485074,,,,,,,,,,,,,,,,,,,,,,,,,,,,,,,,,36,1.9961,1,0,17,17,27,1,9,×,4,9 × 4,neutral,largerFirst,1.5,1.5,36,,,,,,,,
,,,,,,,,,,,,,,,803,2022-01-20_19h14.07.080,multiplicationStroop,2021.2.3,Win32,59.94485074,,,,,,,,,,,,,,,,,,,,,,,,,,,,,,,,,27,1.9799,1,0,18,18,14,1,9,×,3,9 × 3,neutral,largerFirst,1.5,1.5,27,,,,,,,,
,,,,,,,,,,,,,,,803,2022-01-20_19h14.07.080,multiplicationStroop,2021.2.3,Win32,59.94485074,,,,,,,,,,,,,,,,,,,,,,,,,,,,,,,,,15,1.9961,1,0,19,19,5,1,3,×,5,3 × 5,neutral,smallerFirst,1.5,1.5,15,,,,,,,,
,,,,,,,,,,,,,,,803,2022-01-20_19h14.07.080,multiplicationStroop,2021.2.3,Win32,59.94485074,,,,,,,,,,,,,,,,,,,,,,,,,,,,,,,,,36,1.725,1,0,20,20,32,1,6,×,6,6 × 6,neutral,tie,1.5,1.5,36,,,,,,,,
,,,,,,,,,,,,,,,803,2022-01-20_19h14.07.080,multiplicationStroop,2021.2.3,Win32,59.94485074,,,,,,,,,,,,,,,,,,,,,,,,,,,,,,,,,12,1.8957,1,0,21,21,25,1,6,×,2,6 × 2,neutral,largerFirst,1.5,1.5,12,,,,,,,,
,,,,,,,,,,,,,,,803,2022-01-20_19h14.07.080,multiplicationStroop,2021.2.3,Win32,59.94485074,,,,,,,,,,,,,,,,,,,,,,,,,,,,,,,,,64,1.9622,1,0,22,22,34,1,8,×,8,8 × 8,neutral,tie,1.5,1.5,64,,,,,,,,
,,,,,,,,,,,,,,,803,2022-01-20_19h14.07.080,multiplicationStroop,2021.2.3,Win32,59.94485074,,,,,,,,,,,,,,,,,,,,,,,,,,,,,,,,,48,2.2618,1,0,23,23,15,1,8,×,6,8 × 6,neutral,largerFirst,1.5,1.5,48,,,,,,,,
,,,,,,,,,,,,,,,803,2022-01-20_19h14.07.080,multiplicationStroop,2021.2.3,Win32,59.94485074,,,,,,,,,,,,,,,,,,,,,,,,,,,,,,,,,42,2.6945,1,0,24,24,6,1,6,×,7,6 × 7,neutral,smallerFirst,1.5,1.5,42,,,,,,,,
,,,,,,,,,,,,,,,803,2022-01-20_19h14.07.080,multiplicationStroop,2021.2.3,Win32,59.94485074,,,,,,,,,,,,,,,,,,,,,,,,,,,,,,,,,81,1.9793,1,0,25,25,35,1,9,×,9,9 × 9,neutral,tie,1.5,1.5,81,,,,,,,,
,,,,,,,,,,,,,,,803,2022-01-20_19h14.07.080,multiplicationStroop,2021.2.3,Win32,59.94485074,,,,,,,,,,,,,,,,,,,,,,,,,,,,,,,,,8,1.967,1,0,26,26,3,1,2,×,4,2 × 4,neutral,smallerFirst,1.5,1.5,8,,,,,,,,
,,,,,,,,,,,,,,,803,2022-01-20_19h14.07.080,multiplicationStroop,2021.2.3,Win32,59.94485074,,,,,,,,,,,,,,,,,,,,,,,,,,,,,,,,,24,2.1078,1,0,27,27,22,1,8,×,3,8 × 3,neutral,largerFirst,1.5,1.5,24,,,,,,,,
,,,,,,,,,,,,,,,803,2022-01-20_19h14.07.080,multiplicationStroop,2021.2.3,Win32,59.94485074,,,,,,,,,,,,,,,,,,,,,,,,,,,,,,,,,30,1.8794,1,0,28,28,19,1,6,×,5,6 × 5,neutral,largerFirst,1.5,1.5,30,,,,,,,,
,,,,,,,,,,,,,,,803,2022-01-20_19h14.07.080,multiplicationStroop,2021.2.3,Win32,59.94485074,,,,,,,,,,,,,,,,,,,,,,,,,,,,,,,,,21,2.1338,1,0,29,29,8,1,3,×,7,3 × 7,neutral,smallerFirst,1.5,1.5,21,,,,,,,,
,,,,,,,,,,,,,,,803,2022-01-20_19h14.07.080,multiplicationStroop,2021.2.3,Win32,59.94485074,,,,,,,,,,,,,,,,,,,,,,,,,,,,,,,,,6,1.6799,1,0,30,30,26,1,3,×,2,3 × 2,neutral,largerFirst,1.5,1.5,6,,,,,,,,
,,,,,,,,,,,,,,,803,2022-01-20_19h14.07.080,multiplicationStroop,2021.2.3,Win32,59.94485074,,,,,,,,,,,,,,,,,,,,,,,,,,,,,,,,,45,2.7571,1,0,31,31,10,1,5,×,9,5 × 9,neutral,smallerFirst,1.5,1.5,45,,,,,,,,
,,,,,,,,,,,,,,,803,2022-01-20_19h14.07.080,multiplicationStroop,2021.2.3,Win32,59.94485074,,,,,,,,,,,,,,,,,,,,,,,,,,,,,,,,,63,3.6927,0,0,32,32,33,1,7,×,7,7 × 7,neutral,tie,1.5,1.5,49,,,,,,,,
,,,,,,,,,,,,,,,803,2022-01-20_19h14.07.080,multiplicationStroop,2021.2.3,Win32,59.94485074,,,,,,,,,,,,,,,,,,,,,,,,,,,,,,,,,4,1.2878,1,0,33,33,28,1,2,×,2,2 × 2,neutral,tie,1.5,1.5,4,,,,,,,,
,,,,,,,,,,,,,,,803,2022-01-20_19h14.07.080,multiplicationStroop,2021.2.3,Win32,59.94485074,,,,,,,,,,,,,,,,,,,,,,,,,,,,,,,,,72,2.878,0,0,34,34,7,1,6,×,9,6 × 9,neutral,smallerFirst,1.5,1.5,54,,,,,,,,
,,,,,,,,,,,,,,,803,2022-01-20_19h14.07.080,multiplicationStroop,2021.2.3,Win32,59.94485074,,,,,,,,,,,,,,,,,,,,,,,,,,,,,,,,,16,3.56,1,0,35,35,30,1,4,×,4,4 × 4,neutral,tie,1.5,1.5,16,,,,,,,,
,,,,,,,,,,,,,,,803,2022-01-20_19h14.07.080,multiplicationStroop,2021.2.3,Win32,59.94485074,,,,,,,,,,,,,,,,,,,,,,,,,,,,,,,,,,,,,,,,,,,,,,,,,,0,5,5,1,1,stimulusFile/mult_blk2.xlsx,,
,,,,,,,,,,,,,,,803,2022-01-20_19h14.07.080,multiplicationStroop,2021.2.3,Win32,59.94485074,,,,,,,,,,,,,,,,,,,,,,,,,,,,,,,,,,,,,,,,,,,,,,,,,,,,,,,,space,1.9567