welcomeKey_resp.keys,welcomeKey_resp.rt,X Scale,Y Scale,rt_resp_4.keys,rt_resp_4.corr,rt_resp_4.rt,speedtest_2.thisRepN,speedtest_2.thisTrialN,speedtest_2.thisN,speedtest_2.thisIndex,speedtest_2.ran,numberSc,posX,positionLayout,participant,date,expName,psychopyVersion,OS,frameRate,ct_instrresp.keys,ct_instrresp.rt,key_resp_2.keys,key_resp_2.rt,ct_keyResp.keys,ct_keyResp.corr,ct_keyResp.rt,trials.thisRepN,trials.thisTrialN,trials.thisN,trials.thisIndex,trials.ran,leftNo,rightNo,displayProblem,numDistance,leftNo_size,rightNo_size,Dims,keyAnswer,TS_Loop.thisRepN,TS_Loop.thisTrialN,TS_Loop.thisN,TS_Loop.thisIndex,TS_Loop.ran,Condition,ActionInst,instrImage,mltptaskInst_resp.keys,mltptaskInst_resp.rt,continue_resp_2.keys,continue_resp_2.rt,multp_Answer,multi_RT,multiplyCorr,LoopingMultiply.thisRepN,LoopingMultiply.thisTrialN,LoopingMultiply.thisN,LoopingMultiply.thisIndex,LoopingMultiply.ran,factor1,multiplySign,factor2,multliplyProblem,physicalSize,orderOperand,sizeF1,sizeF2,mult_answer,trials_stroop.thisRepN,trials_stroop.thisTrialN,trials_stroop.thisN,trials_stroop.thisIndex,trials_stroop.ran,multiplicationFile,esckey_resp_2.keys,esckey_resp_2.rt
y,4.1701,43.8,44.3,left,1,0.4341,0,0,0,6,1,8,-200,left,804,2022-01-17_20h25.37.428,multiplicationStroop,2021.2.3,Win32,61.0798925,,,,,,,,,,,,,,,,,,,,,,,,,,,,,,,,,,,,,,,,,,,,,,,,,,,,,,,,,
,,,,right,1,0.3243,0,1,1,12,1,6,200,right,804,2022-01-17_20h25.37.428,multiplicationStroop,2021.2.3,Win32,61.0798925,,,,,,,,,,,,,,,,,,,,,,,,,,,,,,,,,,,,,,,,,,,,,,,,,,,,,,,,,
,,,,left,1,0.3022,0,2,2,7,1,9,-200,left,804,2022-01-17_20h25.37.428,multiplicationStroop,2021.2.3,Win32,61.0798925,,,,,,,,,,,,,,,,,,,,,,,,,,,,,,,,,,,,,,,,,,,,,,,,,,,,,,,,,
,,,,right,1,0.2702,0,3,3,10,1,3,200,right,804,2022-01-17_20h25.37.428,multiplicationStroop,2021.2.3,Win32,61.0798925,,,,,,,,,,,,,,,,,,,,,,,,,,,,,,,,,,,,,,,,,,,,,,,,,,,,,,,,,
,,,,right,1,0.321,0,4,4,11,1,4,200,right,804,2022-01-17_20h25.37.428,multiplicationStroop,2021.2.3,Win32,61.0798925,,,,,,,,,,,,,,,,,,,,,,,,,,,,,,,,,,,,,,,,,,,,,,,,,,,,,,,,,
,,,,left,1,0.2645,0,5,5,3,1,4,-200,left,804,2022-01-17_20h25.37.428,multiplicationStroop,2021.2.3,Win32,61.0798925,,,,,,,,,,,,,,,,,,,,,,,,,,,,,,,,,,,,,,,,,,,,,,,,,,,,,,,,,
,,,,right,1,0.3076,0,6,6,9,1,2,200,right,804,2022-01-17_20h25.37.428,multiplicationStroop,2021.2.3,Win32,61.0798925,,,,,,,,,,,,,,,,,,,,,,,,,,,,,,,,,,,,,,,,,,,,,,,,,,,,,,,,,
,,,,right,1,0.3292,0,7,7,15,1,9,200,right,804,2022-01-17_20h25.37.428,multiplicationStroop,2021.2.3,Win32,61.0798925,,,,,,,,,,,,,,,,,,,,,,,,,,,,,,,,,,,,,,,,,,,,,,,,,,,,,,,,,
,,,,right,1,0.2853,0,8,8,8,1,1,200,right,804,2022-01-17_20h25.37.428,multiplicationStroop,2021.2.3,Win32,61.0798925,,,,,,,,,,,,,,,,,,,,,,,,,,,,,,,,,,,,,,,,,,,,,,,,,,,,,,,,,
,,,,left,1,0.2947,0,9,9,1,1,2,-200,left,804,2022-01-17_20h25.37.428,multiplicationStroop,2021.2.3,Win32,61.0798925,,,,,,,,,,,,,,,,,,,,,,,,,,,,,,,,,,,,,,,,,,,,,,,,,,,,,,,,,
,,,,right,1,0.2584,0,10,10,13,1,7,200,right,804,2022-01-17_20h25.37.428,multiplicationStroop,2021.2.3,Win32,61.0798925,,,,,,,,,,,,,,,,,,,,,,,,,,,,,,,,,,,,,,,,,,,,,,,,,,,,,,,,,
,,,,left,1,0.2664,0,11,11,0,1,1,-200,left,804,2022-01-17_20h25.37.428,multiplicationStroop,2021.2.3,Win32,61.0798925,,,,,,,,,,,,,,,,,,,,,,,,,,,,,,,,,,,,,,,,,,,,,,,,,,,,,,,,,
,,,,right,0,0.2862,0,12,12,2,1,3,-200,left,804,2022-01-17_20h25.37.428,multiplicationStroop,2021.2.3,Win32,61.0798925,,,,,,,,,,,,,,,,,,,,,,,,,,,,,,,,,,,,,,,,,,,,,,,,,,,,,,,,,
,,,,left,1,0.3857,0,13,13,4,1,6,-200,left,804,2022-01-17_20h25.37.428,multiplicationStroop,2021.2.3,Win32,61.0798925,,,,,,,,,,,,,,,,,,,,,,,,,,,,,,,,,,,,,,,,,,,,,,,,,,,,,,,,,
,,,,right,1,0.3314,0,14,14,14,1,8,200,right,804,2022-01-17_20h25.37.428,multiplicationStroop,2021.2.3,Win32,61.0798925,,,,,,,,,,,,,,,,,,,,,,,,,,,,,,,,,,,,,,,,,,,,,,,,,,,,,,,,,
,,,,left,1,0.2936,0,15,15,5,1,7,-200,left,804,2022-01-17_20h25.37.428,multiplicationStroop,2021.2.3,Win32,61.0798925,,,,,,,,,,,,,,,,,,,,,,,,,,,,,,,,,,,,,,,,,,,,,,,,,,,,,,,,,
,,,,right,1,0.3196,1,0,16,11,1,4,200,right,804,2022-01-17_20h25.37.428,multiplicationStroop,2021.2.3,Win32,61.0798925,,,,,,,,,,,,,,,,,,,,,,,,,,,,,,,,,,,,,,,,,,,,,,,,,,,,,,,,,
,,,,right,1,0.3697,1,1,17,14,1,8,200,right,804,2022-01-17_20h25.37.428,multiplicationStroop,2021.2.3,Win32,61.0798925,,,,,,,,,,,,,,,,,,,,,,,,,,,,,,,,,,,,,,,,,,,,,,,,,,,,,,,,,
,,,,left,1,0.2723,1,2,18,3,1,4,-200,left,804,2022-01-17_20h25.37.428,multiplicationStroop,2021.2.3,Win32,61.0798925,,,,,,,,,,,,,,,,,,,,,,,,,,,,,,,,,,,,,,,,,,,,,,,,,,,,,,,,,
,,,,left,1,0.2952,1,3,19,2,1,3,-200,left,804,2022-01-17_20h25.37.428,multiplicationStroop,2021.2.3,Win32,61.0798925,,,,,,,,,,,,,,,,,,,,,,,,,,,,,,,,,,,,,,,,,,,,,,,,,,,,,,,,,
,,,,left,1,0.2784,1,4,20,6,1,8,-200,left,804,2022-01-17_20h25.37.428,multiplicationStroop,2021.2.3,Win32,61.0798925,,,,,,,,,,,,,,,,,,,,,,,,,,,,,,,,,,,,,,,,,,,,,,,,,,,,,,,,,
,,,,right,1,0.3267,1,5,21,10,1,3,200,right,804,2022-01-17_20h25.37.428,multiplicationStroop,2021.2.3,Win32,61.0798925,,,,,,,,,,,,,,,,,,,,,,,,,,,,,,,,,,,,,,,,,,,,,,,,,,,,,,,,,
,,,,left,1,0.2937,1,6,22,7,1,9,-200,left,804,2022-01-17_20h25.37.428,multiplicationStroop,2021.2.3,Win32,61.0798925,,,,,,,,,,,,,,,,,,,,,,,,,,,,,,,,,,,,,,,,,,,,,,,,,,,,,,,,,
,,,,left,1,0.3477,1,7,23,5,1,7,-200,left,804,2022-01-17_20h25.37.428,multiplicationStroop,2021.2.3,Win32,61.0798925,,,,,,,,,,,,,,,,,,,,,,,,,,,,,,,,,,,,,,,,,,,,,,,,,,,,,,,,,
,,,,right,1,0.3361,1,8,24,9,1,2,200,right,804,2022-01-17_20h25.37.428,multiplicationStroop,2021.2.3,Win32,61.0798925,,,,,,,,,,,,,,,,,,,,,,,,,,,,,,,,,,,,,,,,,,,,,,,,,,,,,,,,,
,,,,right,1,0.3688,1,9,25,13,1,7,200,right,804,2022-01-17_20h25.37.428,multiplicationStroop,2021.2.3,Win32,61.0798925,,,,,,,,,,,,,,,,,,,,,,,,,,,,,,,,,,,,,,,,,,,,,,,,,,,,,,,,,
,,,,right,1,0.3112,1,10,26,8,1,1,200,right,804,2022-01-17_20h25.37.428,multiplicationStroop,2021.2.3,Win32,61.0798925,,,,,,,,,,,,,,,,,,,,,,,,,,,,,,,,,,,,,,,,,,,,,,,,,,,,,,,,,
,,,,left,1,0.3143,1,11,27,0,1,1,-200,left,804,2022-01-17_20h25.37.428,multiplicationStroop,2021.2.3,Win32,61.0798925,,,,,,,,,,,,,,,,,,,,,,,,,,,,,,,,,,,,,,,,,,,,,,,,,,,,,,,,,
,,,,left,1,0.3344,1,12,28,1,1,2,-200,left,804,2022-01-17_20h25.37.428,multiplicationStroop,2021.2.3,Win32,61.0798925,,,,,,,,,,,,,,,,,,,,,,,,,,,,,,,,,,,,,,,,,,,,,,,,,,,,,,,,,
,,,,right,1,0.2935,1,13,29,12,1,6,200,right,804,2022-01-17_20h25.37.428,multiplicationStroop,2021.2.3,Win32,61.0798925,,,,,,,,,,,,,,,,,,,,,,,,,,,,,,,,,,,,,,,,,,,,,,,,,,,,,,,,,
,,,,left,0,0.4322,1,14,30,15,1,9,200,right,804,2022-01-17_20h25.37.428,multiplicationStroop,2021.2.3,Win32,61.0798925,,,,,,,,,,,,,,,,,,,,,,,,,,,,,,,,,,,,,,,,,,,,,,,,,,,,,,,,,
,,,,left,1,0.3831,1,15,31,4,1,6,-200,left,804,2022-01-17_20h25.37.428,multiplicationStroop,2021.2.3,Win32,61.0798925,,,,,,,,,,,,,,,,,,,,,,,,,,,,,,,,,,,,,,,,,,,,,,,,,,,,,,,,,
,,,,right,1,0.3142,2,0,32,12,1,6,200,right,804,2022-01-17_20h25.37.428,multiplicationStroop,2021.2.3,Win32,61.0798925,,,,,,,,,,,,,,,,,,,,,,,,,,,,,,,,,,,,,,,,,,,,,,,,,,,,,,,,,
,,,,left,1,0.2348,2,1,33,3,1,4,-200,left,804,2022-01-17_20h25.37.428,multiplicationStroop,2021.2.3,Win32,61.0798925,,,,,,,,,,,,,,,,,,,,,,,,,,,,,,,,,,,,,,,,,,,,,,,,,,,,,,,,,
,,,,left,1,0.3328,2,2,34,1,1,2,-200,left,804,2022-01-17_20h25.37.428,multiplicationStroop,2021.2.3,Win32,61.0798925,,,,,,,,,,,,,,,,,,,,,,,,,,,,,,,,,,,,,,,,,,,,,,,,,,,,,,,,,
,,,,right,1,0.2978,2,3,35,8,1,1,200,right,804,2022-01-17_20h25.37.428,multiplicationStroop,2021.2.3,Win32,61.0798925,,,,,,,,,,,,,,,,,,,,,,,,,,,,,,,,,,,,,,,,,,,,,,,,,,,,,,,,,
,,,,left,1,0.2762,2,4,36,7,1,9,-200,left,804,2022-01-17_20h25.37.428,multiplicationStroop,2021.2.3,Win32,61.0798925,,,,,,,,,,,,,,,,,,,,,,,,,,,,,,,,,,,,,,,,,,,,,,,,,,,,,,,,,
,,,,right,1,0.2735,2,5,37,9,1,2,200,right,804,2022-01-17_20h25.37.428,multiplicationStroop,2021.2.3,Win32,61.0798925,,,,,,,,,,,,,,,,,,,,,,,,,,,,,,,,,,,,,,,,,,,,,,,,,,,,,,,,,
,,,,right,1,0.4615,2,6,38,10,1,3,200,right,804,2022-01-17_20h25.37.428,multiplicationStroop,2021.2.3,Win32,61.0798925,,,,,,,,,,,,,,,,,,,,,,,,,,,,,,,,,,,,,,,,,,,,,,,,,,,,,,,,,
,,,,left,1,0.2847,2,7,39,2,1,3,-200,left,804,2022-01-17_20h25.37.428,multiplicationStroop,2021.2.3,Win32,61.0798925,,,,,,,,,,,,,,,,,,,,,,,,,,,,,,,,,,,,,,,,,,,,,,,,,,,,,,,,,
,,,,left,1,0.3323,2,8,40,6,1,8,-200,left,804,2022-01-17_20h25.37.428,multiplicationStroop,2021.2.3,Win32,61.0798925,,,,,,,,,,,,,,,,,,,,,,,,,,,,,,,,,,,,,,,,,,,,,,,,,,,,,,,,,
,,,,left,1,0.3002,2,9,41,5,1,7,-200,left,804,2022-01-17_20h25.37.428,multiplicationStroop,2021.2.3,Win32,61.0798925,,,,,,,,,,,,,,,,,,,,,,,,,,,,,,,,,,,,,,,,,,,,,,,,,,,,,,,,,
,,,,right,1,0.2981,2,10,42,15,1,9,200,right,804,2022-01-17_20h25.37.428,multiplicationStroop,2021.2.3,Win32,61.0798925,,,,,,,,,,,,,,,,,,,,,,,,,,,,,,,,,,,,,,,,,,,,,,,,,,,,,,,,,
,,,,left,1,0.2828,2,11,43,4,1,6,-200,left,804,2022-01-17_20h25.37.428,multiplicationStroop,2021.2.3,Win32,61.0798925,,,,,,,,,,,,,,,,,,,,,,,,,,,,,,,,,,,,,,,,,,,,,,,,,,,,,,,,,
,,,,right,1,0.2817,2,12,44,14,1,8,200,right,804,2022-01-17_20h25.37.428,multiplicationStroop,2021.2.3,Win32,61.0798925,,,,,,,,,,,,,,,,,,,,,,,,,,,,,,,,,,,,,,,,,,,,,,,,,,,,,,,,,
,,,,right,1,0.3445,2,13,45,13,1,7,200,right,804,2022-01-17_20h25.37.428,multiplicationStroop,2021.2.3,Win32,61.0798925,,,,,,,,,,,,,,,,,,,,,,,,,,,,,,,,,,,,,,,,,,,,,,,,,,,,,,,,,
,,,,right,1,0.3284,2,14,46,11,1,4,200,right,804,2022-01-17_20h25.37.428,multiplicationStroop,2021.2.3,Win32,61.0798925,,,,,,,,,,,,,,,,,,,,,,,,,,,,,,,,,,,,,,,,,,,,,,,,,,,,,,,,,
,,,,left,1,0.3287,2,15,47,0,1,1,-200,left,804,2022-01-17_20h25.37.428,multiplicationStroop,2021.2.3,Win32,61.0798925,,,,,,,,,,,,,,,,,,,,,,,,,,,,,,,,,,,,,,,,,,,,,,,,,,,,,,,,,
,,,,left,1,0.2871,3,0,48,6,1,8,-200,left,804,2022-01-17_20h25.37.428,multiplicationStroop,2021.2.3,Win32,61.0798925,,,,,,,,,,,,,,,,,,,,,,,,,,,,,,,,,,,,,,,,,,,,,,,,,,,,,,,,,
,,,,right,1,0.2867,3,1,49,9,1,2,200,right,804,2022-01-17_20h25.37.428,multiplicationStroop,2021.2.3,Win32,61.0798925,,,,,,,,,,,,,,,,,,,,,,,,,,,,,,,,,,,,,,,,,,,,,,,,,,,,,,,,,
,,,,left,1,0.2618,3,2,50,7,1,9,-200,left,804,2022-01-17_20h25.37.428,multiplicationStroop,2021.2.3,Win32,61.0798925,,,,,,,,,,,,,,,,,,,,,,,,,,,,,,,,,,,,,,,,,,,,,,,,,,,,,,,,,
,,,,left,1,0.2609,3,3,51,4,1,6,-200,left,804,2022-01-17_20h25.37.428,multiplicationStroop,2021.2.3,Win32,61.0798925,,,,,,,,,,,,,,,,,,,,,,,,,,,,,,,,,,,,,,,,,,,,,,,,,,,,,,,,,
,,,,right,1,0.2949,3,4,52,13,1,7,200,right,804,2022-01-17_20h25.37.428,multiplicationStroop,2021.2.3,Win32,61.0798925,,,,,,,,,,,,,,,,,,,,,,,,,,,,,,,,,,,,,,,,,,,,,,,,,,,,,,,,,
,,,,right,1,0.3488,3,5,53,12,1,6,200,right,804,2022-01-17_20h25.37.428,multiplicationStroop,2021.2.3,Win32,61.0798925,,,,,,,,,,,,,,,,,,,,,,,,,,,,,,,,,,,,,,,,,,,,,,,,,,,,,,,,,
,,,,right,1,0.3113,3,6,54,11,1,4,200,right,804,2022-01-17_20h25.37.428,multiplicationStroop,2021.2.3,Win32,61.0798925,,,,,,,,,,,,,,,,,,,,,,,,,,,,,,,,,,,,,,,,,,,,,,,,,,,,,,,,,
,,,,left,1,0.3856,3,7,55,5,1,7,-200,left,804,2022-01-17_20h25.37.428,multiplicationStroop,2021.2.3,Win32,61.0798925,,,,,,,,,,,,,,,,,,,,,,,,,,,,,,,,,,,,,,,,,,,,,,,,,,,,,,,,,
,,,,right,1,0.3,3,8,56,8,1,1,200,right,804,2022-01-17_20h25.37.428,multiplicationStroop,2021.2.3,Win32,61.0798925,,,,,,,,,,,,,,,,,,,,,,,,,,,,,,,,,,,,,,,,,,,,,,,,,,,,,,,,,
,,,,right,1,0.3843,3,9,57,15,1,9,200,right,804,2022-01-17_20h25.37.428,multiplicationStroop,2021.2.3,Win32,61.0798925,,,,,,,,,,,,,,,,,,,,,,,,,,,,,,,,,,,,,,,,,,,,,,,,,,,,,,,,,
,,,,right,1,0.311,3,10,58,14,1,8,200,right,804,2022-01-17_20h25.37.428,multiplicationStroop,2021.2.3,Win32,61.0798925,,,,,,,,,,,,,,,,,,,,,,,,,,,,,,,,,,,,,,,,,,,,,,,,,,,,,,,,,
,,,,left,1,0.3497,3,11,59,1,1,2,-200,left,804,2022-01-17_20h25.37.428,multiplicationStroop,2021.2.3,Win32,61.0798925,,,,,,,,,,,,,,,,,,,,,,,,,,,,,,,,,,,,,,,,,,,,,,,,,,,,,,,,,
,,,,left,1,0.3534,3,12,60,2,1,3,-200,left,804,2022-01-17_20h25.37.428,multiplicationStroop,2021.2.3,Win32,61.0798925,,,,,,,,,,,,,,,,,,,,,,,,,,,,,,,,,,,,,,,,,,,,,,,,,,,,,,,,,
,,,,right,1,0.3051,3,13,61,10,1,3,200,right,804,2022-01-17_20h25.37.428,multiplicationStroop,2021.2.3,Win32,61.0798925,,,,,,,,,,,,,,,,,,,,,,,,,,,,,,,,,,,,,,,,,,,,,,,,,,,,,,,,,
,,,,left,1,0.2837,3,14,62,3,1,4,-200,left,804,2022-01-17_20h25.37.428,multiplicationStroop,2021.2.3,Win32,61.0798925,,,,,,,,,,,,,,,,,,,,,,,,,,,,,,,,,,,,,,,,,,,,,,,,,,,,,,,,,
,,,,left,1,0.3905,3,15,63,0,1,1,-200,left,804,2022-01-17_20h25.37.428,multiplicationStroop,2021.2.3,Win32,61.0798925,,,,,,,,,,,,,,,,,,,,,,,,,,stimulusFile/physical.xlsx,,,,,,,,,,,,,,,,,,,,,,,,,,,,,,,
,,,,,,,,,,,,,,,804,2022-01-17_20h25.37.428,multiplicationStroop,2021.2.3,Win32,61.0798925,space,15.9667,space,10.8903,left,1,0.8734,0,0,0,42,1,3,8,3 | 8,5,1.9756,1.4111,incongruent,left,,,,,,stimulusFile/physical.xlsx,,,,,,,,,,,,,,,,,,,,,,,,,,,,,,,
,,,,,,,,,,,,,,,804,2022-01-17_20h25.37.428,multiplicationStroop,2021.2.3,Win32,61.0798925,,,,,left,1,1.1068,0,1,1,7,1,9,8,9 | 8,1,1.9756,1.4111,congruent,left,,,,,,stimulusFile/physical.xlsx,,,,,,,,,,,,,,,,,,,,,,,,,,,,,,,
,,,,,,,,,,,,,,,804,2022-01-17_20h25.37.428,multiplicationStroop,2021.2.3,Win32,61.0798925,,,,,right,1,0.5905,0,2,2,29,1,4,3,4 | 3,1,1.4111,1.9756,incongruent,right,,,,,,stimulusFile/physical.xlsx,,,,,,,,,,,,,,,,,,,,,,,,,,,,,,,
,,,,,,,,,,,,,,,804,2022-01-17_20h25.37.428,multiplicationStroop,2021.2.3,Win32,61.0798925,,,,,right,0,0.4817,0,3,3,69,1,7,7,7 | 7,0,1.4111,1.9756,neutral,left,,,,,,stimulusFile/physical.xlsx,,,,,,,,,,,,,,,,,,,,,,,,,,,,,,,
,,,,,,,,,,,,,,,804,2022-01-17_20h25.37.428,multiplicationStroop,2021.2.3,Win32,61.0798925,,,,,left,1,0.6044,0,4,4,32,1,1,3,1 | 3,2,1.9756,1.4111,incongruent,left,,,,,,stimulusFile/physical.xlsx,,,,,,,,,,,,,,,,,,,,,,,,,,,,,,,
,,,,,,,,,,,,,,,804,2022-01-17_20h25.37.428,multiplicationStroop,2021.2.3,Win32,61.0798925,,,,,right,1,0.3748,0,5,5,1,1,3,4,3 | 4,1,1.4111,1.9756,congruent,right,,,,,,stimulusFile/physical.xlsx,,,,,,,,,,,,,,,,,,,,,,,,,,,,,,,
,,,,,,,,,,,,,,,804,2022-01-17_20h25.37.428,multiplicationStroop,2021.2.3,Win32,61.0798925,,,,,right,1,0.5137,0,6,6,19,1,4,9,4 | 9,5,1.4111,1.9756,congruent,right,,,,,,stimulusFile/physical.xlsx,,,,,,,,,,,,,,,,,,,,,,,,,,,,,,,
,,,,,,,,,,,,,,,804,2022-01-17_20h25.37.428,multiplicationStroop,2021.2.3,Win32,61.0798925,,,,,right,1,0.5041,0,7,7,16,1,1,6,1 | 6,5,1.4111,1.9756,congruent,right,,,,,,stimulusFile/physical.xlsx,,,,,,,,,,,,,,,,,,,,,,,,,,,,,,,
,,,,,,,,,,,,,,,804,2022-01-17_20h25.37.428,multiplicationStroop,2021.2.3,Win32,61.0798925,,,,,left,0,0.4939,0,8,8,64,1,1,1,1 | 1,0,1.9756,1.4111,neutral,right,,,,,,stimulusFile/physical.xlsx,,,,,,,,,,,,,,,,,,,,,,,,,,,,,,,
,,,,,,,,,,,,,,,804,2022-01-17_20h25.37.428,multiplicationStroop,2021.2.3,Win32,61.0798925,,,,,left,1,0.58,0,9,9,70,1,8,8,8 | 8,0,1.9756,1.4111,neutral,left,,,,,,stimulusFile/physical.xlsx,,,,,,,,,,,,,,,,,,,,,,,,,,,,,,,
,,,,,,,,,,,,,,,804,2022-01-17_20h25.37.428,multiplicationStroop,2021.2.3,Win32,61.0798925,,,,,right,1,0.4402,0,10,10,17,1,2,7,2 | 7,5,1.4111,1.9756,congruent,right,,,,,,stimulusFile/physical.xlsx,,,,,,,,,,,,,,,,,,,,,,,,,,,,,,,
,,,,,,,,,,,,,,,804,2022-01-17_20h25.37.428,multiplicationStroop,2021.2.3,Win32,61.0798925,,,,,right,1,0.5437,0,11,11,31,1,9,8,9 | 8,1,1.4111,1.9756,incongruent,right,,,,,,stimulusFile/physical.xlsx,,,,,,,,,,,,,,,,,,,,,,,,,,,,,,,
,,,,,,,,,,,,,,,804,2022-01-17_20h25.37.428,multiplicationStroop,2021.2.3,Win32,61.0798925,,,,,left,1,0.6962,0,12,12,14,1,8,6,8 | 6,2,1.9756,1.4111,congruent,left,,,,,,stimulusFile/physical.xlsx,,,,,,,,,,,,,,,,,,,,,,,,,,,,,,,
,,,,,,,,,,,,,,,804,2022-01-17_20h25.37.428,multiplicationStroop,2021.2.3,Win32,61.0798925,,,,,left,1,0.6537,0,13,13,25,1,3,4,3 | 4,1,1.9756,1.4111,incongruent,left,,,,,,stimulusFile/physical.xlsx,,,,,,,,,,,,,,,,,,,,,,,,,,,,,,,
,,,,,,,,,,,,,,,804,2022-01-17_20h25.37.428,multiplicationStroop,2021.2.3,Win32,61.0798925,,,,,right,1,0.4983,0,14,14,3,1,8,9,8 | 9,1,1.4111,1.9756,congruent,right,,,,,,stimulusFile/physical.xlsx,,,,,,,,,,,,,,,,,,,,,,,,,,,,,,,
,,,,,,,,,,,,,,,804,2022-01-17_20h25.37.428,multiplicationStroop,2021.2.3,Win32,61.0798925,,,,,left,1,0.5054,0,15,15,20,1,6,1,6 | 1,5,1.9756,1.4111,congruent,left,,,,,,stimulusFile/physical.xlsx,,,,,,,,,,,,,,,,,,,,,,,,,,,,,,,
,,,,,,,,,,,,,,,804,2022-01-17_20h25.37.428,multiplicationStroop,2021.2.3,Win32,61.0798925,,,,,right,1,0.4745,0,16,16,44,1,6,1,6 | 1,5,1.4111,1.9756,incongruent,right,,,,,,stimulusFile/physical.xlsx,,,,,,,,,,,,,,,,,,,,,,,,,,,,,,,
,,,,,,,,,,,,,,,804,2022-01-17_20h25.37.428,multiplicationStroop,2021.2.3,Win32,61.0798925,,,,,left,1,0.5318,0,17,17,40,1,1,6,1 | 6,5,1.9756,1.4111,incongruent,left,,,,,,stimulusFile/physical.xlsx,,,,,,,,,,,,,,,,,,,,,,,,,,,,,,,
,,,,,,,,,,,,,,,804,2022-01-17_20h25.37.428,multiplicationStroop,2021.2.3,Win32,61.0798925,,,,,right,0,0.4555,0,18,18,71,1,9,9,9 | 9,0,1.4111,1.9756,neutral,left,,,,,,stimulusFile/physical.xlsx,,,,,,,,,,,,,,,,,,,,,,,,,,,,,,,
,,,,,,,,,,,,,,,804,2022-01-17_20h25.37.428,multiplicationStroop,2021.2.3,Win32,61.0798925,,,,,right,1,0.6394,0,19,19,2,1,6,7,6 | 7,1,1.4111,1.9756,congruent,right,,,,,,stimulusFile/physical.xlsx,,,,,,,,,,,,,,,,,,,,,,,,,,,,,,,
,,,,,,,,,,,,,,,804,2022-01-17_20h25.37.428,multiplicationStroop,2021.2.3,Win32,61.0798925,,,,,left,1,0.5967,0,20,20,53,1,4,4,4 | 4,0,1.9756,1.4111,neutral,left,,,,,,stimulusFile/physical.xlsx,,,,,,,,,,,,,,,,,,,,,,,,,,,,,,,
,,,,,,,,,,,,,,,804,2022-01-17_20h25.37.428,multiplicationStroop,2021.2.3,Win32,61.0798925,,,,,left,1,0.6068,0,21,21,4,1,2,1,2 | 1,1,1.9756,1.4111,congruent,left,,,,,,stimulusFile/physical.xlsx,,,,,,,,,,,,,,,,,,,,,,,,,,,,,,,
,,,,,,,,,,,,,,,804,2022-01-17_20h25.37.428,multiplicationStroop,2021.2.3,Win32,61.0798925,,,,,left,1,0.5281,0,22,22,55,1,9,9,9 | 9,0,1.9756,1.4111,neutral,left,,,,,,stimulusFile/physical.xlsx,,,,,,,,,,,,,,,,,,,,,,,,,,,,,,,
,,,,,,,,,,,,,,,804,2022-01-17_20h25.37.428,multiplicationStroop,2021.2.3,Win32,61.0798925,,,,,left,1,0.3624,0,23,23,12,1,3,1,3 | 1,2,1.9756,1.4111,congruent,left,,,,,,stimulusFile/physical.xlsx,,,,,,,,,,,,,,,,,,,,,,,,,,,,,,,
,,,,,,,,,,,,,,,804,2022-01-17_20h25.37.428,multiplicationStroop,2021.2.3,Win32,61.0798925,,,,,left,1,0.5985,0,24,24,43,1,4,9,4 | 9,5,1.9756,1.4111,incongruent,left,,,,,,stimulusFile/physical.xlsx,,,,,,,,,,,,,,,,,,,,,,,,,,,,,,,
,,,,,,,,,,,,,,,804,2022-01-17_20h25.37.428,multiplicationStroop,2021.2.3,Win32,61.0798925,,,,,right,1,0.4552,0,25,25,9,1,2,4,2 | 4,2,1.4111,1.9756,congruent,right,,,,,,stimulusFile/physical.xlsx,,,,,,,,,,,,,,,,,,,,,,,,,,,,,,,
,,,,,,,,,,,,,,,804,2022-01-17_20h25.37.428,multiplicationStroop,2021.2.3,Win32,61.0798925,,,,,left,1,0.4843,0,26,26,51,1,8,8,8 | 8,0,1.9756,1.4111,neutral,left,,,,,,stimulusFile/physical.xlsx,,,,,,,,,,,,,,,,,,,,,,,,,,,,,,,
,,,,,,,,,,,,,,,804,2022-01-17_20h25.37.428,multiplicationStroop,2021.2.3,Win32,61.0798925,,,,,left,1,0.6491,0,27,27,5,1,4,3,4 | 3,1,1.9756,1.4111,congruent,left,,,,,,stimulusFile/physical.xlsx,,,,,,,,,,,,,,,,,,,,,,,,,,,,,,,
,,,,,,,,,,,,,,,804,2022-01-17_20h25.37.428,multiplicationStroop,2021.2.3,Win32,61.0798925,,,,,right,1,0.6341,0,28,28,37,1,4,2,4 | 2,2,1.4111,1.9756,incongruent,right,,,,,,stimulusFile/physical.xlsx,,,,,,,,,,,,,,,,,,,,,,,,,,,,,,,
,,,,,,,,,,,,,,,804,2022-01-17_20h25.37.428,multiplicationStroop,2021.2.3,Win32,61.0798925,,,,,left,1,0.8666,0,29,29,26,1,6,7,6 | 7,1,1.9756,1.4111,incongruent,left,,,,,,stimulusFile/physical.xlsx,,,,,,,,,,,,,,,,,,,,,,,,,,,,,,,
,,,,,,,,,,,,,,,804,2022-01-17_20h25.37.428,multiplicationStroop,2021.2.3,Win32,61.0798925,,,,,right,1,0.5597,0,30,30,61,1,4,4,4 | 4,0,1.4111,1.9756,neutral,right,,,,,,stimulusFile/physical.xlsx,,,,,,,,,,,,,,,,,,,,,,,,,,,,,,,
,,,,,,,,,,,,,,,804,2022-01-17_20h25.37.428,multiplicationStroop,2021.2.3,Win32,61.0798925,,,,,right,1,0.5961,0,31,31,58,1,6,6,6 | 6,0,1.4111,1.9756,neutral,right,,,,,,stimulusFile/physical.xlsx,,,,,,,,,,,,,,,,,,,,,,,,,,,,,,,
,,,,,,,,,,,,,,,804,2022-01-17_20h25.37.428,multiplicationStroop,2021.2.3,Win32,61.0798925,,,,,left,1,0.599,0,32,32,23,1,9,4,9 | 4,5,1.9756,1.4111,congruent,left,,,,,,stimulusFile/physical.xlsx,,,,,,,,,,,,,,,,,,,,,,,,,,,,,,,
,,,,,,,,,,,,,,,804,2022-01-17_20h25.37.428,multiplicationStroop,2021.2.3,Win32,61.0798925,,,,,left,1,0.6146,0,33,33,22,1,8,3,8 | 3,5,1.9756,1.4111,congruent,left,,,,,,stimulusFile/physical.xlsx,,,,,,,,,,,,,,,,,,,,,,,,,,,,,,,
,,,,,,,,,,,,,,,804,2022-01-17_20h25.37.428,multiplicationStroop,2021.2.3,Win32,61.0798925,,,,,right,1,0.4936,0,34,34,45,1,7,2,7 | 2,5,1.4111,1.9756,incongruent,right,,,,,,stimulusFile/physical.xlsx,,,,,,,,,,,,,,,,,,,,,,,,,,,,,,,
,,,,,,,,,,,,,,,804,2022-01-17_20h25.37.428,multiplicationStroop,2021.2.3,Win32,61.0798925,,,,,left,1,1.0903,0,35,35,68,1,6,6,6 | 6,0,1.9756,1.4111,neutral,left,,,,,,stimulusFile/physical.xlsx,,,,,,,,,,,,,,,,,,,,,,,,,,,,,,,
,,,,,,,,,,,,,,,804,2022-01-17_20h25.37.428,multiplicationStroop,2021.2.3,Win32,61.0798925,,,,,right,1,0.4621,0,36,36,38,1,8,6,8 | 6,2,1.4111,1.9756,incongruent,right,,,,,,stimulusFile/physical.xlsx,,,,,,,,,,,,,,,,,,,,,,,,,,,,,,,
,,,,,,,,,,,,,,,804,2022-01-17_20h25.37.428,multiplicationStroop,2021.2.3,Win32,61.0798925,,,,,left,1,0.857,0,37,37,49,1,3,3,3 | 3,0,1.9756,1.4111,neutral,left,,,,,,stimulusFile/physical.xlsx,,,,,,,,,,,,,,,,,,,,,,,,,,,,,,,
,,,,,,,,,,,,,,,804,2022-01-17_20h25.37.428,multiplicationStroop,2021.2.3,Win32,61.0798925,,,,,left,1,0.6285,0,38,38,24,1,1,2,1 | 2,1,1.9756,1.4111,incongruent,left,,,,,,stimulusFile/physical.xlsx,,,,,,,,,,,,,,,,,,,,,,,,,,,,,,,
,,,,,,,,,,,,,,,804,2022-01-17_20h25.37.428,multiplicationStroop,2021.2.3,Win32,61.0798925,,,,,right,1,0.5114,0,39,39,60,1,3,3,3 | 3,0,1.4111,1.9756,neutral,right,,,,,,stimulusFile/physical.xlsx,,,,,,,,,,,,,,,,,,,,,,,,,,,,,,,
,,,,,,,,,,,,,,,804,2022-01-17_20h25.37.428,multiplicationStroop,2021.2.3,Win32,61.0798925,,,,,right,1,0.7495,0,40,40,18,1,3,8,3 | 8,5,1.4111,1.9756,congruent,right,,,,,,stimulusFile/physical.xlsx,,,,,,,,,,,,,,,,,,,,,,,,,,,,,,,
,,,,,,,,,,,,,,,804,2022-01-17_20h25.37.428,multiplicationStroop,2021.2.3,Win32,61.0798925,,,,,left,1,0.6348,0,41,41,34,1,6,8,6 | 8,2,1.9756,1.4111,incongruent,left,,,,,,stimulusFile/physical.xlsx,,,,,,,,,,,,,,,,,,,,,,,,,,,,,,,
,,,,,,,,,,,,,,,804,2022-01-17_20h25.37.428,multiplicationStroop,2021.2.3,Win32,61.0798925,,,,,right,1,0.5082,0,42,42,0,1,1,2,1 | 2,1,1.4111,1.9756,congruent,right,,,,,,stimulusFile/physical.xlsx,,,,,,,,,,,,,,,,,,,,,,,,,,,,,,,
,,,,,,,,,,,,,,,804,2022-01-17_20h25.37.428,multiplicationStroop,2021.2.3,Win32,61.0798925,,,,,left,1,0.5826,0,43,43,52,1,2,2,2 | 2,0,1.9756,1.4111,neutral,left,,,,,,stimulusFile/physical.xlsx,,,,,,,,,,,,,,,,,,,,,,,,,,,,,,,
,,,,,,,,,,,,,,,804,2022-01-17_20h25.37.428,multiplicationStroop,2021.2.3,Win32,61.0798925,,,,,left,1,0.6149,0,44,44,50,1,6,6,6 | 6,0,1.9756,1.4111,neutral,left,,,,,,stimulusFile/physical.xlsx,,,,,,,,,,,,,,,,,,,,,,,,,,,,,,,
,,,,,,,,,,,,,,,804,2022-01-17_20h25.37.428,multiplicationStroop,2021.2.3,Win32,61.0798925,,,,,left,1,0.5651,0,45,45,6,1,7,6,7 | 6,1,1.9756,1.4111,congruent,left,,,,,,stimulusFile/physical.xlsx,,,,,,,,,,,,,,,,,,,,,,,,,,,,,,,
,,,,,,,,,,,,,,,804,2022-01-17_20h25.37.428,multiplicationStroop,2021.2.3,Win32,61.0798925,,,,,right,1,0.594,0,46,46,47,1,9,4,9 | 4,5,1.4111,1.9756,incongruent,right,,,,,,stimulusFile/physical.xlsx,,,,,,,,,,,,,,,,,,,,,,,,,,,,,,,
,,,,,,,,,,,,,,,804,2022-01-17_20h25.37.428,multiplicationStroop,2021.2.3,Win32,61.0798925,,,,,right,1,0.5472,0,47,47,36,1,3,1,3 | 1,2,1.4111,1.9756,incongruent,right,,,,,,stimulusFile/physical.xlsx,,,,,,,,,,,,,,,,,,,,,,,,,,,,,,,
,,,,,,,,,,,,,,,804,2022-01-17_20h25.37.428,multiplicationStroop,2021.2.3,Win32,61.0798925,,,,,right,1,0.5071,0,48,48,62,1,8,8,8 | 8,0,1.4111,1.9756,neutral,right,,,,,,stimulusFile/physical.xlsx,,,,,,,,,,,,,,,,,,,,,,,,,,,,,,,
,,,,,,,,,,,,,,,804,2022-01-17_20h25.37.428,multiplicationStroop,2021.2.3,Win32,61.0798925,,,,,right,1,0.4888,0,49,49,57,1,2,2,2 | 2,0,1.4111,1.9756,neutral,right,,,,,,stimulusFile/physical.xlsx,,,,,,,,,,,,,,,,,,,,,,,,,,,,,,,
,,,,,,,,,,,,,,,804,2022-01-17_20h25.37.428,multiplicationStroop,2021.2.3,Win32,61.0798925,,,,,left,0,0.5018,0,50,50,66,1,3,3,3 | 3,0,1.9756,1.4111,neutral,right,,,,,,stimulusFile/physical.xlsx,,,,,,,,,,,,,,,,,,,,,,,,,,,,,,,
,,,,,,,,,,,,,,,804,2022-01-17_20h25.37.428,multiplicationStroop,2021.2.3,Win32,61.0798925,,,,,right,1,0.5373,0,51,51,10,1,6,8,6 | 8,2,1.4111,1.9756,congruent,right,,,,,,stimulusFile/physical.xlsx,,,,,,,,,,,,,,,,,,,,,,,,,,,,,,,
,,,,,,,,,,,,,,,804,2022-01-17_20h25.37.428,multiplicationStroop,2021.2.3,Win32,61.0798925,,,,,right,1,0.6105,0,52,52,30,1,7,6,7 | 6,1,1.4111,1.9756,incongruent,right,,,,,,stimulusFile/physical.xlsx,,,,,,,,,,,,,,,,,,,,,,,,,,,,,,,
,,,,,,,,,,,,,,,804,2022-01-17_20h25.37.428,multiplicationStroop,2021.2.3,Win32,61.0798925,,,,,left,1,0.6155,0,53,53,21,1,7,2,7 | 2,5,1.9756,1.4111,congruent,left,,,,,,stimulusFile/physical.xlsx,,,,,,,,,,,,,,,,,,,,,,,,,,,,,,,
,,,,,,,,,,,,,,,804,2022-01-17_20h25.37.428,multiplicationStroop,2021.2.3,Win32,61.0798925,,,,,left,1,0.51,0,54,54,54,1,7,7,7 | 7,0,1.9756,1.4111,neutral,left,,,,,,stimulusFile/physical.xlsx,,,,,,,,,,,,,,,,,,,,,,,,,,,,,,,
,,,,,,,,,,,,,,,804,2022-01-17_20h25.37.428,multiplicationStroop,2021.2.3,Win32,61.0798925,,,,,right,1,0.6491,0,55,55,46,1,8,3,8 | 3,5,1.4111,1.9756,incongruent,right,,,,,,stimulusFile/physical.xlsx,,,,,,,,,,,,,,,,,,,,,,,,,,,,,,,
,,,,,,,,,,,,,,,804,2022-01-17_20h25.37.428,multiplicationStroop,2021.2.3,Win32,61.0798925,,,,,left,1,0.4828,0,56,56,27,1,8,9,8 | 9,1,1.9756,1.4111,incongruent,left,,,,,,stimulusFile/physical.xlsx,,,,,,,,,,,,,,,,,,,,,,,,,,,,,,,
,,,,,,,,,,,,,,,804,2022-01-17_20h25.37.428,multiplicationStroop,2021.2.3,Win32,61.0798925,,,,,right,1,0.3983,0,57,57,39,1,9,7,9 | 7,2,1.4111,1.9756,incongruent,right,,,,,,stimulusFile/physical.xlsx,,,,,,,,,,,,,,,,,,,,,,,,,,,,,,,
,,,,,,,,,,,,,,,804,2022-01-17_20h25.37.428,multiplicationStroop,2021.2.3,Win32,61.0798925,,,,,left,1,0.5139,0,58,58,15,1,9,7,9 | 7,2,1.9756,1.4111,congruent,left,,,,,,stimulusFile/physical.xlsx,,,,,,,,,,,,,,,,,,,,,,,,,,,,,,,
,,,,,,,,,,,,,,,804,2022-01-17_20h25.37.428,multiplicationStroop,2021.2.3,Win32,61.0798925,,,,,left,1,0.6586,0,59,59,41,1,2,7,2 | 7,5,1.9756,1.4111,incongruent,left,,,,,,stimulusFile/physical.xlsx,,,,,,,,,,,,,,,,,,,,,,,,,,,,,,,
,,,,,,,,,,,,,,,804,2022-01-17_20h25.37.428,multiplicationStroop,2021.2.3,Win32,61.0798925,,,,,right,1,0.5546,0,60,60,65,1,2,2,2 | 2,0,1.4111,1.9756,neutral,right,,,,,,stimulusFile/physical.xlsx,,,,,,,,,,,,,,,,,,,,,,,,,,,,,,,
,,,,,,,,,,,,,,,804,2022-01-17_20h25.37.428,multiplicationStroop,2021.2.3,Win32,61.0798925,,,,,right,1,0.5821,0,61,61,59,1,7,7,7 | 7,0,1.4111,1.9756,neutral,right,,,,,,stimulusFile/physical.xlsx,,,,,,,,,,,,,,,,,,,,,,,,,,,,,,,
,,,,,,,,,,,,,,,804,2022-01-17_20h25.37.428,multiplicationStroop,2021.2.3,Win32,61.0798925,,,,,left,1,0.6549,0,62,62,35,1,7,9,7 | 9,2,1.9756,1.4111,incongruent,left,,,,,,stimulusFile/physical.xlsx,,,,,,,,,,,,,,,,,,,,,,,,,,,,,,,
,,,,,,,,,,,,,,,804,2022-01-17_20h25.37.428,multiplicationStroop,2021.2.3,Win32,61.0798925,,,,,right,1,0.5499,0,63,63,28,1,2,1,2 | 1,1,1.4111,1.9756,incongruent,right,,,,,,stimulusFile/physical.xlsx,,,,,,,,,,,,,,,,,,,,,,,,,,,,,,,
,,,,,,,,,,,,,,,804,2022-01-17_20h25.37.428,multiplicationStroop,2021.2.3,Win32,61.0798925,,,,,right,1,0.5405,0,64,64,63,1,9,9,9 | 9,0,1.4111,1.9756,neutral,right,,,,,,stimulusFile/physical.xlsx,,,,,,,,,,,,,,,,,,,,,,,,,,,,,,,
,,,,,,,,,,,,,,,804,2022-01-17_20h25.37.428,multiplicationStroop,2021.2.3,Win32,61.0798925,,,,,right,1,0.5673,0,65,65,56,1,1,1,1 | 1,0,1.4111,1.9756,neutral,right,,,,,,stimulusFile/physical.xlsx,,,,,,,,,,,,,,,,,,,,,,,,,,,,,,,
,,,,,,,,,,,,,,,804,2022-01-17_20h25.37.428,multiplicationStroop,2021.2.3,Win32,61.0798925,,,,,right,1,0.5074,0,66,66,67,1,4,4,4 | 4,0,1.4111,1.9756,neutral,right,,,,,,stimulusFile/physical.xlsx,,,,,,,,,,,,,,,,,,,,,,,,,,,,,,,
,,,,,,,,,,,,,,,804,2022-01-17_20h25.37.428,multiplicationStroop,2021.2.3,Win32,61.0798925,,,,,right,1,0.4796,0,67,67,11,1,7,9,7 | 9,2,1.4111,1.9756,congruent,right,,,,,,stimulusFile/physical.xlsx,,,,,,,,,,,,,,,,,,,,,,,,,,,,,,,
,,,,,,,,,,,,,,,804,2022-01-17_20h25.37.428,multiplicationStroop,2021.2.3,Win32,61.0798925,,,,,left,1,0.4431,0,68,68,48,1,1,1,1 | 1,0,1.9756,1.4111,neutral,left,,,,,,stimulusFile/physical.xlsx,,,,,,,,,,,,,,,,,,,,,,,,,,,,,,,
,,,,,,,,,,,,,,,804,2022-01-17_20h25.37.428,multiplicationStroop,2021.2.3,Win32,61.0798925,,,,,left,1,0.5129,0,69,69,33,1,2,4,2 | 4,2,1.9756,1.4111,incongruent,left,,,,,,stimulusFile/physical.xlsx,,,,,,,,,,,,,,,,,,,,,,,,,,,,,,,
,,,,,,,,,,,,,,,804,2022-01-17_20h25.37.428,multiplicationStroop,2021.2.3,Win32,61.0798925,,,,,right,1,0.3745,0,70,70,8,1,1,3,1 | 3,2,1.4111,1.9756,congruent,right,,,,,,stimulusFile/physical.xlsx,,,,,,,,,,,,,,,,,,,,,,,,,,,,,,,
,,,,,,,,,,,,,,,804,2022-01-17_20h25.37.428,multiplicationStroop,2021.2.3,Win32,61.0798925,,,,,left,1,0.3397,0,71,71,13,1,4,2,4 | 2,2,1.9756,1.4111,congruent,left,,,,,,stimulusFile/physical.xlsx,,,,,,,,,,,,,,,,,,,,,,,,,,,,,,,
,,,,,,,,,,,,,,,804,2022-01-17_20h25.37.428,multiplicationStroop,2021.2.3,Win32,61.0798925,,,,,,,,,,,,,,,,,,,,,0,0,0,1,1,stimulusFile/physical.xlsx,PHYSICALLY larger (larger font size).,images/physicallyLarger.png,,,,,,,,,,,,,,,,,,,,,,,,,,,,,
,,,,,,,,,,,,,,,804,2022-01-17_20h25.37.428,multiplicationStroop,2021.2.3,Win32,61.0798925,space,3.3644,space,4.377,right,1,0.7582,0,0,0,11,1,7,9,7 | 9,2,1.4111,1.9756,congruent,right,,,,,,stimulusFile/magnitude.xlsx,,,,,,,,,,,,,,,,,,,,,,,,,,,,,,,
,,,,,,,,,,,,,,,804,2022-01-17_20h25.37.428,multiplicationStroop,2021.2.3,Win32,61.0798925,,,,,right,1,0.6444,0,1,1,0,1,1,2,1 | 2,1,1.4111,1.9756,congruent,right,,,,,,stimulusFile/magnitude.xlsx,,,,,,,,,,,,,,,,,,,,,,,,,,,,,,,
,,,,,,,,,,,,,,,804,2022-01-17_20h25.37.428,multiplicationStroop,2021.2.3,Win32,61.0798925,,,,,left,1,0.4633,0,2,2,15,1,9,7,9 | 7,2,1.9756,1.4111,congruent,left,,,,,,stimulusFile/magnitude.xlsx,,,,,,,,,,,,,,,,,,,,,,,,,,,,,,,
,,,,,,,,,,,,,,,804,2022-01-17_20h25.37.428,multiplicationStroop,2021.2.3,Win32,61.0798925,,,,,right,1,0.6619,0,3,3,26,1,6,7,6 | 7,1,1.9756,1.4111,incongruent,right,,,,,,stimulusFile/magnitude.xlsx,,,,,,,,,,,,,,,,,,,,,,,,,,,,,,,
,,,,,,,,,,,,,,,804,2022-01-17_20h25.37.428,multiplicationStroop,2021.2.3,Win32,61.0798925,,,,,left,1,0.7111,0,4,4,70,1,8,3,8 | 3,5,1.6933,1.6933,neutral,left,,,,,,stimulusFile/magnitude.xlsx,,,,,,,,,,,,,,,,,,,,,,,,,,,,,,,
,,,,,,,,,,,,,,,804,2022-01-17_20h25.37.428,multiplicationStroop,2021.2.3,Win32,61.0798925,,,,,left,1,0.5515,0,5,5,71,1,9,4,9 | 4,5,1.6933,1.6933,neutral,left,,,,,,stimulusFile/magnitude.xlsx,,,,,,,,,,,,,,,,,,,,,,,,,,,,,,,
,,,,,,,,,,,,,,,804,2022-01-17_20h25.37.428,multiplicationStroop,2021.2.3,Win32,61.0798925,,,,,left,1,0.6599,0,6,6,54,1,7,6,7 | 6,1,1.6933,1.6933,neutral,left,,,,,,stimulusFile/magnitude.xlsx,,,,,,,,,,,,,,,,,,,,,,,,,,,,,,,
,,,,,,,,,,,,,,,804,2022-01-17_20h25.37.428,multiplicationStroop,2021.2.3,Win32,61.0798925,,,,,left,1,0.5665,0,7,7,60,1,3,1,3 | 1,2,1.6933,1.6933,neutral,left,,,,,,stimulusFile/magnitude.xlsx,,,,,,,,,,,,,,,,,,,,,,,,,,,,,,,
,,,,,,,,,,,,,,,804,2022-01-17_20h25.37.428,multiplicationStroop,2021.2.3,Win32,61.0798925,,,,,right,1,0.4526,0,8,8,51,1,8,9,8 | 9,1,1.6933,1.6933,neutral,right,,,,,,stimulusFile/magnitude.xlsx,,,,,,,,,,,,,,,,,,,,,,,,,,,,,,,
,,,,,,,,,,,,,,,804,2022-01-17_20h25.37.428,multiplicationStroop,2021.2.3,Win32,61.0798925,,,,,right,1,0.4772,0,9,9,16,1,1,6,1 | 6,5,1.4111,1.9756,congruent,right,,,,,,stimulusFile/magnitude.xlsx,,,,,,,,,,,,,,,,,,,,,,,,,,,,,,,
,,,,,,,,,,,,,,,804,2022-01-17_20h25.37.428,multiplicationStroop,2021.2.3,Win32,61.0798925,,,,,left,1,0.3902,0,10,10,44,1,6,1,6 | 1,5,1.4111,1.9756,incongruent,left,,,,,,stimulusFile/magnitude.xlsx,,,,,,,,,,,,,,,,,,,,,,,,,,,,,,,
,,,,,,,,,,,,,,,804,2022-01-17_20h25.37.428,multiplicationStroop,2021.2.3,Win32,61.0798925,,,,,left,1,0.7717,0,11,11,62,1,8,6,8 | 6,2,1.6933,1.6933,neutral,left,,,,,,stimulusFile/magnitude.xlsx,,,,,,,,,,,,,,,,,,,,,,,,,,,,,,,
,,,,,,,,,,,,,,,804,2022-01-17_20h25.37.428,multiplicationStroop,2021.2.3,Win32,61.0798925,,,,,left,1,0.6575,0,12,12,29,1,4,3,4 | 3,1,1.4111,1.9756,incongruent,left,,,,,,stimulusFile/magnitude.xlsx,,,,,,,,,,,,,,,,,,,,,,,,,,,,,,,
,,,,,,,,,,,,,,,804,2022-01-17_20h25.37.428,multiplicationStroop,2021.2.3,Win32,61.0798925,,,,,right,1,0.5123,0,13,13,10,1,6,8,6 | 8,2,1.4111,1.9756,congruent,right,,,,,,stimulusFile/magnitude.xlsx,,,,,,,,,,,,,,,,,,,,,,,,,,,,,,,
,,,,,,,,,,,,,,,804,2022-01-17_20h25.37.428,multiplicationStroop,2021.2.3,Win32,61.0798925,,,,,right,1,0.5017,0,14,14,19,1,4,9,4 | 9,5,1.4111,1.9756,congruent,right,,,,,,stimulusFile/magnitude.xlsx,,,,,,,,,,,,,,,,,,,,,,,,,,,,,,,
,,,,,,,,,,,,,,,804,2022-01-17_20h25.37.428,multiplicationStroop,2021.2.3,Win32,61.0798925,,,,,left,1,0.5008,0,15,15,5,1,4,3,4 | 3,1,1.9756,1.4111,congruent,left,,,,,,stimulusFile/magnitude.xlsx,,,,,,,,,,,,,,,,,,,,,,,,,,,,,,,
,,,,,,,,,,,,,,,804,2022-01-17_20h25.37.428,multiplicationStroop,2021.2.3,Win32,61.0798925,,,,,right,1,0.4374,0,16,16,27,1,8,9,8 | 9,1,1.9756,1.4111,incongruent,right,,,,,,stimulusFile/magnitude.xlsx,,,,,,,,,,,,,,,,,,,,,,,,,,,,,,,
,,,,,,,,,,,,,,,804,2022-01-17_20h25.37.428,multiplicationStroop,2021.2.3,Win32,61.0798925,,,,,right,1,0.5253,0,17,17,64,1,1,6,1 | 6,5,1.6933,1.6933,neutral,right,,,,,,stimulusFile/magnitude.xlsx,,,,,,,,,,,,,,,,,,,,,,,,,,,,,,,
,,,,,,,,,,,,,,,804,2022-01-17_20h25.37.428,multiplicationStroop,2021.2.3,Win32,61.0798925,,,,,left,1,0.5248,0,18,18,31,1,9,8,9 | 8,1,1.4111,1.9756,incongruent,left,,,,,,stimulusFile/magnitude.xlsx,,,,,,,,,,,,,,,,,,,,,,,,,,,,,,,
,,,,,,,,,,,,,,,804,2022-01-17_20h25.37.428,multiplicationStroop,2021.2.3,Win32,61.0798925,,,,,left,1,0.6512,0,19,19,45,1,7,2,7 | 2,5,1.4111,1.9756,incongruent,left,,,,,,stimulusFile/magnitude.xlsx,,,,,,,,,,,,,,,,,,,,,,,,,,,,,,,
,,,,,,,,,,,,,,,804,2022-01-17_20h25.37.428,multiplicationStroop,2021.2.3,Win32,61.0798925,,,,,right,1,0.5383,0,20,20,65,1,2,7,2 | 7,5,1.6933,1.6933,neutral,right,,,,,,stimulusFile/magnitude.xlsx,,,,,,,,,,,,,,,,,,,,,,,,,,,,,,,
,,,,,,,,,,,,,,,804,2022-01-17_20h25.37.428,multiplicationStroop,2021.2.3,Win32,61.0798925,,,,,right,1,0.5722,0,21,21,2,1,6,7,6 | 7,1,1.4111,1.9756,congruent,right,,,,,,stimulusFile/magnitude.xlsx,,,,,,,,,,,,,,,,,,,,,,,,,,,,,,,
,,,,,,,,,,,,,,,804,2022-01-17_20h25.37.428,multiplicationStroop,2021.2.3,Win32,61.0798925,,,,,left,1,0.5182,0,22,22,39,1,9,7,9 | 7,2,1.4111,1.9756,incongruent,left,,,,,,stimulusFile/magnitude.xlsx,,,,,,,,,,,,,,,,,,,,,,,,,,,,,,,
,,,,,,,,,,,,,,,804,2022-01-17_20h25.37.428,multiplicationStroop,2021.2.3,Win32,61.0798925,,,,,left,1,0.5352,0,23,23,21,1,7,2,7 | 2,5,1.9756,1.4111,congruent,left,,,,,,stimulusFile/magnitude.xlsx,,,,,,,,,,,,,,,,,,,,,,,,,,,,,,,
,,,,,,,,,,,,,,,804,2022-01-17_20h25.37.428,multiplicationStroop,2021.2.3,Win32,61.0798925,,,,,left,1,0.8847,0,24,24,52,1,2,1,2 | 1,1,1.6933,1.6933,neutral,left,,,,,,stimulusFile/magnitude.xlsx,,,,,,,,,,,,,,,,,,,,,,,,,,,,,,,
,,,,,,,,,,,,,,,804,2022-01-17_20h25.37.428,multiplicationStroop,2021.2.3,Win32,61.0798925,,,,,right,0,0.4668,0,25,25,30,1,7,6,7 | 6,1,1.4111,1.9756,incongruent,left,,,,,,stimulusFile/magnitude.xlsx,,,,,,,,,,,,,,,,,,,,,,,,,,,,,,,
,,,,,,,,,,,,,,,804,2022-01-17_20h25.37.428,multiplicationStroop,2021.2.3,Win32,61.0798925,,,,,left,1,0.6025,0,26,26,28,1,2,1,2 | 1,1,1.4111,1.9756,incongruent,left,,,,,,stimulusFile/magnitude.xlsx,,,,,,,,,,,,,,,,,,,,,,,,,,,,,,,
,,,,,,,,,,,,,,,804,2022-01-17_20h25.37.428,multiplicationStroop,2021.2.3,Win32,61.0798925,,,,,right,1,0.6413,0,27,27,43,1,4,9,4 | 9,5,1.9756,1.4111,incongruent,right,,,,,,stimulusFile/magnitude.xlsx,,,,,,,,,,,,,,,,,,,,,,,,,,,,,,,
,,,,,,,,,,,,,,,804,2022-01-17_20h25.37.428,multiplicationStroop,2021.2.3,Win32,61.0798925,,,,,left,1,0.5515,0,28,28,46,1,8,3,8 | 3,5,1.4111,1.9756,incongruent,left,,,,,,stimulusFile/magnitude.xlsx,,,,,,,,,,,,,,,,,,,,,,,,,,,,,,,
,,,,,,,,,,,,,,,804,2022-01-17_20h25.37.428,multiplicationStroop,2021.2.3,Win32,61.0798925,,,,,left,1,0.6349,0,29,29,69,1,7,2,7 | 2,5,1.6933,1.6933,neutral,left,,,,,,stimulusFile/magnitude.xlsx,,,,,,,,,,,,,,,,,,,,,,,,,,,,,,,
,,,,,,,,,,,,,,,804,2022-01-17_20h25.37.428,multiplicationStroop,2021.2.3,Win32,61.0798925,,,,,left,1,0.5282,0,30,30,7,1,9,8,9 | 8,1,1.9756,1.4111,congruent,left,,,,,,stimulusFile/magnitude.xlsx,,,,,,,,,,,,,,,,,,,,,,,,,,,,,,,
,,,,,,,,,,,,,,,804,2022-01-17_20h25.37.428,multiplicationStroop,2021.2.3,Win32,61.0798925,,,,,left,1,0.4896,0,31,31,23,1,9,4,9 | 4,5,1.9756,1.4111,congruent,left,,,,,,stimulusFile/magnitude.xlsx,,,,,,,,,,,,,,,,,,,,,,,,,,,,,,,
,,,,,,,,,,,,,,,804,2022-01-17_20h25.37.428,multiplicationStroop,2021.2.3,Win32,61.0798925,,,,,right,1,0.5397,0,32,32,66,1,3,8,3 | 8,5,1.6933,1.6933,neutral,right,,,,,,stimulusFile/magnitude.xlsx,,,,,,,,,,,,,,,,,,,,,,,,,,,,,,,
,,,,,,,,,,,,,,,804,2022-01-17_20h25.37.428,multiplicationStroop,2021.2.3,Win32,61.0798925,,,,,right,1,0.6351,0,33,33,56,1,1,3,1 | 3,2,1.6933,1.6933,neutral,right,,,,,,stimulusFile/magnitude.xlsx,,,,,,,,,,,,,,,,,,,,,,,,,,,,,,,
,,,,,,,,,,,,,,,804,2022-01-17_20h25.37.428,multiplicationStroop,2021.2.3,Win32,61.0798925,,,,,left,1,0.5963,0,34,34,53,1,4,3,4 | 3,1,1.6933,1.6933,neutral,left,,,,,,stimulusFile/magnitude.xlsx,,,,,,,,,,,,,,,,,,,,,,,,,,,,,,,
,,,,,,,,,,,,,,,804,2022-01-17_20h25.37.428,multiplicationStroop,2021.2.3,Win32,61.0798925,,,,,right,1,0.4693,0,35,35,25,1,3,4,3 | 4,1,1.9756,1.4111,incongruent,right,,,,,,stimulusFile/magnitude.xlsx,,,,,,,,,,,,,,,,,,,,,,,,,,,,,,,
,,,,,,,,,,,,,,,804,2022-01-17_20h25.37.428,multiplicationStroop,2021.2.3,Win32,61.0798925,,,,,right,1,0.5684,0,36,36,35,1,7,9,7 | 9,2,1.9756,1.4111,incongruent,right,,,,,,stimulusFile/magnitude.xlsx,,,,,,,,,,,,,,,,,,,,,,,,,,,,,,,
,,,,,,,,,,,,,,,804,2022-01-17_20h25.37.428,multiplicationStroop,2021.2.3,Win32,61.0798925,,,,,left,1,0.6232,0,37,37,63,1,9,7,9 | 7,2,1.6933,1.6933,neutral,left,,,,,,stimulusFile/magnitude.xlsx,,,,,,,,,,,,,,,,,,,,,,,,,,,,,,,
,,,,,,,,,,,,,,,804,2022-01-17_20h25.37.428,multiplicationStroop,2021.2.3,Win32,61.0798925,,,,,left,1,0.6858,0,38,38,36,1,3,1,3 | 1,2,1.4111,1.9756,incongruent,left,,,,,,stimulusFile/magnitude.xlsx,,,,,,,,,,,,,,,,,,,,,,,,,,,,,,,
,,,,,,,,,,,,,,,804,2022-01-17_20h25.37.428,multiplicationStroop,2021.2.3,Win32,61.0798925,,,,,left,1,0.5186,0,39,39,22,1,8,3,8 | 3,5,1.9756,1.4111,congruent,left,,,,,,stimulusFile/magnitude.xlsx,,,,,,,,,,,,,,,,,,,,,,,,,,,,,,,
,,,,,,,,,,,,,,,804,2022-01-17_20h25.37.428,multiplicationStroop,2021.2.3,Win32,61.0798925,,,,,left,1,0.5194,0,40,40,6,1,7,6,7 | 6,1,1.9756,1.4111,congruent,left,,,,,,stimulusFile/magnitude.xlsx,,,,,,,,,,,,,,,,,,,,,,,,,,,,,,,
,,,,,,,,,,,,,,,804,2022-01-17_20h25.37.428,multiplicationStroop,2021.2.3,Win32,61.0798925,,,,,right,1,0.5109,0,41,41,3,1,8,9,8 | 9,1,1.4111,1.9756,congruent,right,,,,,,stimulusFile/magnitude.xlsx,,,,,,,,,,,,,,,,,,,,,,,,,,,,,,,
,,,,,,,,,,,,,,,804,2022-01-17_20h25.37.428,multiplicationStroop,2021.2.3,Win32,61.0798925,,,,,right,1,0.5841,0,42,42,1,1,3,4,3 | 4,1,1.4111,1.9756,congruent,right,,,,,,stimulusFile/magnitude.xlsx,,,,,,,,,,,,,,,,,,,,,,,,,,,,,,,
,,,,,,,,,,,,,,,804,2022-01-17_20h25.37.428,multiplicationStroop,2021.2.3,Win32,61.0798925,,,,,right,1,0.6936,0,43,43,48,1,1,2,1 | 2,1,1.6933,1.6933,neutral,right,,,,,,stimulusFile/magnitude.xlsx,,,,,,,,,,,,,,,,,,,,,,,,,,,,,,,
,,,,,,,,,,,,,,,804,2022-01-17_20h25.37.428,multiplicationStroop,2021.2.3,Win32,61.0798925,,,,,left,1,0.5885,0,44,44,47,1,9,4,9 | 4,5,1.4111,1.9756,incongruent,left,,,,,,stimulusFile/magnitude.xlsx,,,,,,,,,,,,,,,,,,,,,,,,,,,,,,,
,,,,,,,,,,,,,,,804,2022-01-17_20h25.37.428,multiplicationStroop,2021.2.3,Win32,61.0798925,,,,,right,1,0.5577,0,45,45,49,1,3,4,3 | 4,1,1.6933,1.6933,neutral,right,,,,,,stimulusFile/magnitude.xlsx,,,,,,,,,,,,,,,,,,,,,,,,,,,,,,,
,,,,,,,,,,,,,,,804,2022-01-17_20h25.37.428,multiplicationStroop,2021.2.3,Win32,61.0798925,,,,,right,1,0.7019,0,46,46,42,1,3,8,3 | 8,5,1.9756,1.4111,incongruent,right,,,,,,stimulusFile/magnitude.xlsx,,,,,,,,,,,,,,,,,,,,,,,,,,,,,,,
,,,,,,,,,,,,,,,804,2022-01-17_20h25.37.428,multiplicationStroop,2021.2.3,Win32,61.0798925,,,,,right,1,0.786,0,47,47,8,1,1,3,1 | 3,2,1.4111,1.9756,congruent,right,,,,,,stimulusFile/magnitude.xlsx,,,,,,,,,,,,,,,,,,,,,,,,,,,,,,,
,,,,,,,,,,,,,,,804,2022-01-17_20h25.37.428,multiplicationStroop,2021.2.3,Win32,61.0798925,,,,,right,1,0.7604,0,48,48,41,1,2,7,2 | 7,5,1.9756,1.4111,incongruent,right,,,,,,stimulusFile/magnitude.xlsx,,,,,,,,,,,,,,,,,,,,,,,,,,,,,,,
,,,,,,,,,,,,,,,804,2022-01-17_20h25.37.428,multiplicationStroop,2021.2.3,Win32,61.0798925,,,,,right,1,0.5545,0,49,49,34,1,6,8,6 | 8,2,1.9756,1.4111,incongruent,right,,,,,,stimulusFile/magnitude.xlsx,,,,,,,,,,,,,,,,,,,,,,,,,,,,,,,
,,,,,,,,,,,,,,,804,2022-01-17_20h25.37.428,multiplicationStroop,2021.2.3,Win32,61.0798925,,,,,right,1,0.5014,0,50,50,9,1,2,4,2 | 4,2,1.4111,1.9756,congruent,right,,,,,,stimulusFile/magnitude.xlsx,,,,,,,,,,,,,,,,,,,,,,,,,,,,,,,
,,,,,,,,,,,,,,,804,2022-01-17_20h25.37.428,multiplicationStroop,2021.2.3,Win32,61.0798925,,,,,left,1,0.5179,0,51,51,20,1,6,1,6 | 1,5,1.9756,1.4111,congruent,left,,,,,,stimulusFile/magnitude.xlsx,,,,,,,,,,,,,,,,,,,,,,,,,,,,,,,
,,,,,,,,,,,,,,,804,2022-01-17_20h25.37.428,multiplicationStroop,2021.2.3,Win32,61.0798925,,,,,left,1,0.4348,0,52,52,4,1,2,1,2 | 1,1,1.9756,1.4111,congruent,left,,,,,,stimulusFile/magnitude.xlsx,,,,,,,,,,,,,,,,,,,,,,,,,,,,,,,
,,,,,,,,,,,,,,,804,2022-01-17_20h25.37.428,multiplicationStroop,2021.2.3,Win32,61.0798925,,,,,left,1,0.4665,0,53,53,12,1,3,1,3 | 1,2,1.9756,1.4111,congruent,left,,,,,,stimulusFile/magnitude.xlsx,,,,,,,,,,,,,,,,,,,,,,,,,,,,,,,
,,,,,,,,,,,,,,,804,2022-01-17_20h25.37.428,multiplicationStroop,2021.2.3,Win32,61.0798925,,,,,right,0,0.4256,0,54,54,38,1,8,6,8 | 6,2,1.4111,1.9756,incongruent,left,,,,,,stimulusFile/magnitude.xlsx,,,,,,,,,,,,,,,,,,,,,,,,,,,,,,,
,,,,,,,,,,,,,,,804,2022-01-17_20h25.37.428,multiplicationStroop,2021.2.3,Win32,61.0798925,,,,,left,1,0.5532,0,55,55,55,1,9,8,9 | 8,1,1.6933,1.6933,neutral,left,,,,,,stimulusFile/magnitude.xlsx,,,,,,,,,,,,,,,,,,,,,,,,,,,,,,,
,,,,,,,,,,,,,,,804,2022-01-17_20h25.37.428,multiplicationStroop,2021.2.3,Win32,61.0798925,,,,,left,1,0.4938,0,56,56,37,1,4,2,4 | 2,2,1.4111,1.9756,incongruent,left,,,,,,stimulusFile/magnitude.xlsx,,,,,,,,,,,,,,,,,,,,,,,,,,,,,,,
,,,,,,,,,,,,,,,804,2022-01-17_20h25.37.428,multiplicationStroop,2021.2.3,Win32,61.0798925,,,,,right,1,0.6732,0,57,57,58,1,6,8,6 | 8,2,1.6933,1.6933,neutral,right,,,,,,stimulusFile/magnitude.xlsx,,,,,,,,,,,,,,,,,,,,,,,,,,,,,,,
,,,,,,,,,,,,,,,804,2022-01-17_20h25.37.428,multiplicationStroop,2021.2.3,Win32,61.0798925,,,,,right,1,0.8557,0,58,58,40,1,1,6,1 | 6,5,1.9756,1.4111,incongruent,right,,,,,,stimulusFile/magnitude.xlsx,,,,,,,,,,,,,,,,,,,,,,,,,,,,,,,
,,,,,,,,,,,,,,,804,2022-01-17_20h25.37.428,multiplicationStroop,2021.2.3,Win32,61.0798925,,,,,right,1,0.7599,0,59,59,57,1,2,4,2 | 4,2,1.6933,1.6933,neutral,right,,,,,,stimulusFile/magnitude.xlsx,,,,,,,,,,,,,,,,,,,,,,,,,,,,,,,
,,,,,,,,,,,,,,,804,2022-01-17_20h25.37.428,multiplicationStroop,2021.2.3,Win32,61.0798925,,,,,right,1,0.4736,0,60,60,50,1,6,7,6 | 7,1,1.6933,1.6933,neutral,right,,,,,,stimulusFile/magnitude.xlsx,,,,,,,,,,,,,,,,,,,,,,,,,,,,,,,
,,,,,,,,,,,,,,,804,2022-01-17_20h25.37.428,multiplicationStroop,2021.2.3,Win32,61.0798925,,,,,left,1,0.4862,0,61,61,68,1,6,1,6 | 1,5,1.6933,1.6933,neutral,left,,,,,,stimulusFile/magnitude.xlsx,,,,,,,,,,,,,,,,,,,,,,,,,,,,,,,
,,,,,,,,,,,,,,,804,2022-01-17_20h25.37.428,multiplicationStroop,2021.2.3,Win32,61.0798925,,,,,right,1,1.1353,0,62,62,24,1,1,2,1 | 2,1,1.9756,1.4111,incongruent,right,,,,,,stimulusFile/magnitude.xlsx,,,,,,,,,,,,,,,,,,,,,,,,,,,,,,,
,,,,,,,,,,,,,,,804,2022-01-17_20h25.37.428,multiplicationStroop,2021.2.3,Win32,61.0798925,,,,,right,1,0.5018,0,63,63,33,1,2,4,2 | 4,2,1.9756,1.4111,incongruent,right,,,,,,stimulusFile/magnitude.xlsx,,,,,,,,,,,,,,,,,,,,,,,,,,,,,,,
,,,,,,,,,,,,,,,804,2022-01-17_20h25.37.428,multiplicationStroop,2021.2.3,Win32,61.0798925,,,,,right,1,0.4958,0,64,64,32,1,1,3,1 | 3,2,1.9756,1.4111,incongruent,right,,,,,,stimulusFile/magnitude.xlsx,,,,,,,,,,,,,,,,,,,,,,,,,,,,,,,
,,,,,,,,,,,,,,,804,2022-01-17_20h25.37.428,multiplicationStroop,2021.2.3,Win32,61.0798925,,,,,right,1,0.4725,0,65,65,18,1,3,8,3 | 8,5,1.4111,1.9756,congruent,right,,,,,,stimulusFile/magnitude.xlsx,,,,,,,,,,,,,,,,,,,,,,,,,,,,,,,
,,,,,,,,,,,,,,,804,2022-01-17_20h25.37.428,multiplicationStroop,2021.2.3,Win32,61.0798925,,,,,right,0,0.2999,0,66,66,14,1,8,6,8 | 6,2,1.9756,1.4111,congruent,left,,,,,,stimulusFile/magnitude.xlsx,,,,,,,,,,,,,,,,,,,,,,,,,,,,,,,
,,,,,,,,,,,,,,,804,2022-01-17_20h25.37.428,multiplicationStroop,2021.2.3,Win32,61.0798925,,,,,right,1,0.4453,0,67,67,59,1,7,9,7 | 9,2,1.6933,1.6933,neutral,right,,,,,,stimulusFile/magnitude.xlsx,,,,,,,,,,,,,,,,,,,,,,,,,,,,,,,
,,,,,,,,,,,,,,,804,2022-01-17_20h25.37.428,multiplicationStroop,2021.2.3,Win32,61.0798925,,,,,left,1,0.4396,0,68,68,13,1,4,2,4 | 2,2,1.9756,1.4111,congruent,left,,,,,,stimulusFile/magnitude.xlsx,,,,,,,,,,,,,,,,,,,,,,,,,,,,,,,
,,,,,,,,,,,,,,,804,2022-01-17_20h25.37.428,multiplicationStroop,2021.2.3,Win32,61.0798925,,,,,right,1,0.4679,0,69,69,17,1,2,7,2 | 7,5,1.4111,1.9756,congruent,right,,,,,,stimulusFile/magnitude.xlsx,,,,,,,,,,,,,,,,,,,,,,,,,,,,,,,
,,,,,,,,,,,,,,,804,2022-01-17_20h25.37.428,multiplicationStroop,2021.2.3,Win32,61.0798925,,,,,right,1,0.5848,0,70,70,67,1,4,9,4 | 9,5,1.6933,1.6933,neutral,right,,,,,,stimulusFile/magnitude.xlsx,,,,,,,,,,,,,,,,,,,,,,,,,,,,,,,
,,,,,,,,,,,,,,,804,2022-01-17_20h25.37.428,multiplicationStroop,2021.2.3,Win32,61.0798925,,,,,left,1,0.5183,0,71,71,61,1,4,2,4 | 2,2,1.6933,1.6933,neutral,left,,,,,,stimulusFile/magnitude.xlsx,,,,,,,,,,,,,,,,,,,,,,,,,,,,,,,
,,,,,,,,,,,,,,,804,2022-01-17_20h25.37.428,multiplicationStroop,2021.2.3,Win32,61.0798925,,,,,,,,,,,,,,,,,,,,,0,1,1,0,1,stimulusFile/magnitude.xlsx,NUMERICALLY larger (larger coefficient).,images/numericallyLarger.png,,,,,,,,,,,,,,,,,,,,,,,,,,,,,
,,,,,,,,,,,,,,,804,2022-01-17_20h25.37.428,multiplicationStroop,2021.2.3,Win32,61.0798925,,,,,,,,,,,,,,,,,,,,,,,,,,,,,space,4.6749,space,3.0693,4,1.9625,1,0,0,0,28,1,2,×,2,2 × 2,neutral,tie,2,1,4,,,,,,,,
,,,,,,,,,,,,,,,804,2022-01-17_20h25.37.428,multiplicationStroop,2021.2.3,Win32,61.0798925,,,,,,,,,,,,,,,,,,,,,,,,,,,,,,,,,20,1.6815,1,0,1,1,13,1,4,×,5,4 × 5,incongruent,smallerFirst,2,1,20,,,,,,,,
,,,,,,,,,,,,,,,804,2022-01-17_20h25.37.428,multiplicationStroop,2021.2.3,Win32,61.0798925,,,,,,,,,,,,,,,,,,,,,,,,,,,,,,,,,28,1.8321,1,0,2,2,2,1,4,×,7,4 × 7,incongruent,smallerFirst,2,1,28,,,,,,,,
,,,,,,,,,,,,,,,804,2022-01-17_20h25.37.428,multiplicationStroop,2021.2.3,Win32,61.0798925,,,,,,,,,,,,,,,,,,,,,,,,,,,,,,,,,15,1.5315,1,0,3,3,24,1,5,×,3,5 × 3,incongruent,largerFirst,1,2,15,,,,,,,,
,,,,,,,,,,,,,,,804,2022-01-17_20h25.37.428,multiplicationStroop,2021.2.3,Win32,61.0798925,,,,,,,,,,,,,,,,,,,,,,,,,,,,,,,,,14,2.048,1,0,4,4,18,1,7,×,2,7 × 2,incongruent,largerFirst,1,2,14,,,,,,,,
,,,,,,,,,,,,,,,804,2022-01-17_20h25.37.428,multiplicationStroop,2021.2.3,Win32,61.0798925,,,,,,,,,,,,,,,,,,,,,,,,,,,,,,,,,48,1.9813,1,0,5,5,15,1,8,×,6,8 × 6,incongruent,largerFirst,1,2,48,,,,,,,,
,,,,,,,,,,,,,,,804,2022-01-17_20h25.37.428,multiplicationStroop,2021.2.3,Win32,61.0798925,,,,,,,,,,,,,,,,,,,,,,,,,,,,,,,,,56,1.8653,1,0,6,6,0,1,7,×,8,7 × 8,incongruent,smallerFirst,2,1,56,,,,,,,,
,,,,,,,,,,,,,,,804,2022-01-17_20h25.37.428,multiplicationStroop,2021.2.3,Win32,61.0798925,,,,,,,,,,,,,,,,,,,,,,,,,,,,,,,,,25,1.6648,1,0,7,7,31,1,5,×,5,5 × 5,neutral,tie,2,1,25,,,,,,,,
,,,,,,,,,,,,,,,804,2022-01-17_20h25.37.428,multiplicationStroop,2021.2.3,Win32,61.0798925,,,,,,,,,,,,,,,,,,,,,,,,,,,,,,,,,32,1.3988,1,0,8,8,21,1,8,×,4,8 × 4,incongruent,largerFirst,1,2,32,,,,,,,,
,,,,,,,,,,,,,,,804,2022-01-17_20h25.37.428,multiplicationStroop,2021.2.3,Win32,61.0798925,,,,,,,,,,,,,,,,,,,,,,,,,,,,,,,,,36,1.5485,1,0,9,9,1,1,4,×,9,4 × 9,incongruent,smallerFirst,2,1,36,,,,,,,,
,,,,,,,,,,,,,,,804,2022-01-17_20h25.37.428,multiplicationStroop,2021.2.3,Win32,61.0798925,,,,,,,,,,,,,,,,,,,,,,,,,,,,,,,,,12,1.4314,1,0,10,10,19,1,4,×,3,4 × 3,incongruent,largerFirst,1,2,12,,,,,,,,
,,,,,,,,,,,,,,,804,2022-01-17_20h25.37.428,multiplicationStroop,2021.2.3,Win32,61.0798925,,,,,,,,,,,,,,,,,,,,,,,,,,,,,,,,,245,1.4655,0,0,11,11,6,1,4,×,6,4 × 6,incongruent,smallerFirst,2,1,24,,,,,,,,
,,,,,,,,,,,,,,,804,2022-01-17_20h25.37.428,multiplicationStroop,2021.2.3,Win32,61.0798925,,,,,,,,,,,,,,,,,,,,,,,,,,,,,,,,,63,3.2473,1,0,12,12,17,1,9,×,7,9 × 7,incongruent,largerFirst,1,2,63,,,,,,,,
,,,,,,,,,,,,,,,804,2022-01-17_20h25.37.428,multiplicationStroop,2021.2.3,Win32,61.0798925,,,,,,,,,,,,,,,,,,,,,,,,,,,,,,,,,42,1.5501,1,0,13,13,3,1,6,×,7,6 × 7,incongruent,smallerFirst,2,1,42,,,,,,,,
,,,,,,,,,,,,,,,804,2022-01-17_20h25.37.428,multiplicationStroop,2021.2.3,Win32,61.0798925,,,,,,,,,,,,,,,,,,,,,,,,,,,,,,,,,16,1.5819,1,0,14,14,9,1,2,×,8,2 × 8,incongruent,smallerFirst,2,1,16,,,,,,,,
,,,,,,,,,,,,,,,804,2022-01-17_20h25.37.428,multiplicationStroop,2021.2.3,Win32,61.0798925,,,,,,,,,,,,,,,,,,,,,,,,,,,,,,,,,8,1.7984,1,0,15,15,10,1,2,×,4,2 × 4,incongruent,smallerFirst,2,1,8,,,,,,,,
,,,,,,,,,,,,,,,804,2022-01-17_20h25.37.428,multiplicationStroop,2021.2.3,Win32,61.0798925,,,,,,,,,,,,,,,,,,,,,,,,,,,,,,,,,18,1.6151,1,0,16,16,16,1,9,×,2,9 × 2,incongruent,largerFirst,1,2,18,,,,,,,,
,,,,,,,,,,,,,,,804,2022-01-17_20h25.37.428,multiplicationStroop,2021.2.3,Win32,61.0798925,,,,,,,,,,,,,,,,,,,,,,,,,,,,,,,,,40,1.4318,1,0,17,17,27,1,8,×,5,8 × 5,incongruent,largerFirst,1,2,40,,,,,,,,
,,,,,,,,,,,,,,,804,2022-01-17_20h25.37.428,multiplicationStroop,2021.2.3,Win32,61.0798925,,,,,,,,,,,,,,,,,,,,,,,,,,,,,,,,,36,1.9981,1,0,18,18,32,1,6,×,6,6 × 6,neutral,tie,2,1,36,,,,,,,,
,,,,,,,,,,,,,,,804,2022-01-17_20h25.37.428,multiplicationStroop,2021.2.3,Win32,61.0798925,,,,,,,,,,,,,,,,,,,,,,,,,,,,,,,,,35,1.8652,1,0,19,19,26,1,7,×,5,7 × 5,incongruent,largerFirst,1,2,35,,,,,,,,
,,,,,,,,,,,,,,,804,2022-01-17_20h25.37.428,multiplicationStroop,2021.2.3,Win32,61.0798925,,,,,,,,,,,,,,,,,,,,,,,,,,,,,,,,,27,1.8317,1,0,20,20,4,1,3,×,9,3 × 9,incongruent,smallerFirst,2,1,27,,,,,,,,
,,,,,,,,,,,,,,,804,2022-01-17_20h25.37.428,multiplicationStroop,2021.2.3,Win32,61.0798925,,,,,,,,,,,,,,,,,,,,,,,,,,,,,,,,,12,1.7983,1,0,21,21,5,1,2,×,6,2 × 6,incongruent,smallerFirst,2,1,12,,,,,,,,
,,,,,,,,,,,,,,,804,2022-01-17_20h25.37.428,multiplicationStroop,2021.2.3,Win32,61.0798925,,,,,,,,,,,,,,,,,,,,,,,,,,,,,,,,,9,1.7483,1,0,22,22,29,1,3,×,3,3 × 3,neutral,tie,2,1,9,,,,,,,,
,,,,,,,,,,,,,,,804,2022-01-17_20h25.37.428,multiplicationStroop,2021.2.3,Win32,61.0798925,,,,,,,,,,,,,,,,,,,,,,,,,,,,,,,,,49,1.8478,1,0,23,23,33,1,7,×,7,7 × 7,neutral,tie,2,1,49,,,,,,,,
,,,,,,,,,,,,,,,804,2022-01-17_20h25.37.428,multiplicationStroop,2021.2.3,Win32,61.0798925,,,,,,,,,,,,,,,,,,,,,,,,,,,,,,,,,30,1.3824,1,0,24,24,11,1,5,×,6,5 × 6,incongruent,smallerFirst,2,1,30,,,,,,,,
,,,,,,,,,,,,,,,804,2022-01-17_20h25.37.428,multiplicationStroop,2021.2.3,Win32,61.0798925,,,,,,,,,,,,,,,,,,,,,,,,,,,,,,,,,64,2.0978,1,0,25,25,34,1,8,×,8,8 × 8,neutral,tie,2,1,64,,,,,,,,
,,,,,,,,,,,,,,,804,2022-01-17_20h25.37.428,multiplicationStroop,2021.2.3,Win32,61.0798925,,,,,,,,,,,,,,,,,,,,,,,,,,,,,,,,,24,1.449,1,0,26,26,23,1,8,×,3,8 × 3,incongruent,largerFirst,1,2,24,,,,,,,,
,,,,,,,,,,,,,,,804,2022-01-17_20h25.37.428,multiplicationStroop,2021.2.3,Win32,61.0798925,,,,,,,,,,,,,,,,,,,,,,,,,,,,,,,,,54,2.8142,1,0,27,27,20,1,9,×,6,9 × 6,incongruent,largerFirst,1,2,54,,,,,,,,
,,,,,,,,,,,,,,,804,2022-01-17_20h25.37.428,multiplicationStroop,2021.2.3,Win32,61.0798925,,,,,,,,,,,,,,,,,,,,,,,,,,,,,,,,,72,1.7651,1,0,28,28,14,1,9,×,8,9 × 8,incongruent,largerFirst,1,2,72,,,,,,,,
,,,,,,,,,,,,,,,804,2022-01-17_20h25.37.428,multiplicationStroop,2021.2.3,Win32,61.0798925,,,,,,,,,,,,,,,,,,,,,,,,,,,,,,,,,21,1.215,1,0,29,29,12,1,3,×,7,3 × 7,incongruent,smallerFirst,2,1,21,,,,,,,,
,,,,,,,,,,,,,,,804,2022-01-17_20h25.37.428,multiplicationStroop,2021.2.3,Win32,61.0798925,,,,,,,,,,,,,,,,,,,,,,,,,,,,,,,,,6,1.648,1,0,30,30,25,1,3,×,2,3 × 2,incongruent,largerFirst,1,2,6,,,,,,,,
,,,,,,,,,,,,,,,804,2022-01-17_20h25.37.428,multiplicationStroop,2021.2.3,Win32,61.0798925,,,,,,,,,,,,,,,,,,,,,,,,,,,,,,,,,10,1.3653,1,0,31,31,7,1,2,×,5,2 × 5,incongruent,smallerFirst,2,1,10,,,,,,,,
,,,,,,,,,,,,,,,804,2022-01-17_20h25.37.428,multiplicationStroop,2021.2.3,Win32,61.0798925,,,,,,,,,,,,,,,,,,,,,,,,,,,,,,,,,45,1.582,1,0,32,32,8,1,5,×,9,5 × 9,incongruent,smallerFirst,2,1,45,,,,,,,,
,,,,,,,,,,,,,,,804,2022-01-17_20h25.37.428,multiplicationStroop,2021.2.3,Win32,61.0798925,,,,,,,,,,,,,,,,,,,,,,,,,,,,,,,,,16,1.598,1,0,33,33,30,1,4,×,4,4 × 4,neutral,tie,2,1,16,,,,,,,,
,,,,,,,,,,,,,,,804,2022-01-17_20h25.37.428,multiplicationStroop,2021.2.3,Win32,61.0798925,,,,,,,,,,,,,,,,,,,,,,,,,,,,,,,,,81,1.9653,1,0,34,34,35,1,9,×,9,9 × 9,neutral,tie,2,1,81,,,,,,,,
,,,,,,,,,,,,,,,804,2022-01-17_20h25.37.428,multiplicationStroop,2021.2.3,Win32,61.0798925,,,,,,,,,,,,,,,,,,,,,,,,,,,,,,,,,18,1.6818,1,0,35,35,22,1,6,×,3,6 × 3,incongruent,largerFirst,1,2,18,,,,,,,,
,,,,,,,,,,,,,,,804,2022-01-17_20h25.37.428,multiplicationStroop,2021.2.3,Win32,61.0798925,,,,,,,,,,,,,,,,,,,,,,,,,,,,,,,,,,,,,,,,,,,,,,,,,,0,0,0,4,1,stimulusFile/mult_blk5_INcongruent.xlsx,,
,,,,,,,,,,,,,,,804,2022-01-17_20h25.37.428,multiplicationStroop,2021.2.3,Win32,61.0798925,,,,,,,,,,,,,,,,,,,,,,,,,,,,,,,space,141.0866,64,2.5603,1,0,0,0,34,1,8,×,8,8 × 8,neutral,tie,1.5,1.5,64,,,,,,,,
,,,,,,,,,,,,,,,804,2022-01-17_20h25.37.428,multiplicationStroop,2021.2.3,Win32,61.0798925,,,,,,,,,,,,,,,,,,,,,,,,,,,,,,,,,9,1.5349,1,0,1,1,29,1,3,×,3,3 × 3,neutral,tie,1.5,1.5,9,,,,,,,,
,,,,,,,,,,,,,,,804,2022-01-17_20h25.37.428,multiplicationStroop,2021.2.3,Win32,61.0798925,,,,,,,,,,,,,,,,,,,,,,,,,,,,,,,,,28,1.6105,1,0,2,2,3,1,4,×,7,4 × 7,neutral,smallerFirst,1.5,1.5,28,,,,,,,,
,,,,,,,,,,,,,,,804,2022-01-17_20h25.37.428,multiplicationStroop,2021.2.3,Win32,61.0798925,,,,,,,,,,,,,,,,,,,,,,,,,,,,,,,,,72,2.2309,1,0,3,3,25,1,9,×,8,9 × 8,neutral,largerFirst,1.5,1.5,72,,,,,,,,
,,,,,,,,,,,,,,,804,2022-01-17_20h25.37.428,multiplicationStroop,2021.2.3,Win32,61.0798925,,,,,,,,,,,,,,,,,,,,,,,,,,,,,,,,,8,1.7489,1,0,4,4,17,1,4,×,2,4 × 2,neutral,largerFirst,1.5,1.5,8,,,,,,,,
,,,,,,,,,,,,,,,804,2022-01-17_20h25.37.428,multiplicationStroop,2021.2.3,Win32,61.0798925,,,,,,,,,,,,,,,,,,,,,,,,,,,,,,,,,12,2.2459,1,0,5,5,11,1,2,×,6,2 × 6,neutral,smallerFirst,1.5,1.5,12,,,,,,,,
,,,,,,,,,,,,,,,804,2022-01-17_20h25.37.428,multiplicationStroop,2021.2.3,Win32,61.0798925,,,,,,,,,,,,,,,,,,,,,,,,,,,,,,,,,45,1.5328,1,0,6,6,24,1,9,×,5,9 × 5,neutral,largerFirst,1.5,1.5,45,,,,,,,,
,,,,,,,,,,,,,,,804,2022-01-17_20h25.37.428,multiplicationStroop,2021.2.3,Win32,61.0798925,,,,,,,,,,,,,,,,,,,,,,,,,,,,,,,,,10,2.3479,1,0,7,7,18,1,5,×,2,5 × 2,neutral,largerFirst,1.5,1.5,10,,,,,,,,
,,,,,,,,,,,,,,,804,2022-01-17_20h25.37.428,multiplicationStroop,2021.2.3,Win32,61.0798925,,,,,,,,,,,,,,,,,,,,,,,,,,,,,,,,,16,1.7976,1,0,8,8,30,1,4,×,4,4 × 4,neutral,tie,1.5,1.5,16,,,,,,,,
,,,,,,,,,,,,,,,804,2022-01-17_20h25.37.428,multiplicationStroop,2021.2.3,Win32,61.0798925,,,,,,,,,,,,,,,,,,,,,,,,,,,,,,,,,32,1.5309,1,0,9,9,9,1,4,×,8,4 × 8,neutral,smallerFirst,1.5,1.5,32,,,,,,,,
,,,,,,,,,,,,,,,804,2022-01-17_20h25.37.428,multiplicationStroop,2021.2.3,Win32,61.0798925,,,,,,,,,,,,,,,,,,,,,,,,,,,,,,,,,25,1.4308,1,0,10,10,31,1,5,×,5,5 × 5,neutral,tie,1.5,1.5,25,,,,,,,,
,,,,,,,,,,,,,,,804,2022-01-17_20h25.37.428,multiplicationStroop,2021.2.3,Win32,61.0798925,,,,,,,,,,,,,,,,,,,,,,,,,,,,,,,,,63,1.9643,1,0,11,11,26,1,9,×,7,9 × 7,neutral,largerFirst,1.5,1.5,63,,,,,,,,
,,,,,,,,,,,,,,,804,2022-01-17_20h25.37.428,multiplicationStroop,2021.2.3,Win32,61.0798925,,,,,,,,,,,,,,,,,,,,,,,,,,,,,,,,,42,1.6476,1,0,12,12,20,1,7,×,6,7 × 6,neutral,largerFirst,1.5,1.5,42,,,,,,,,
,,,,,,,,,,,,,,,804,2022-01-17_20h25.37.428,multiplicationStroop,2021.2.3,Win32,61.0798925,,,,,,,,,,,,,,,,,,,,,,,,,,,,,,,,,56,1.6146,1,0,13,13,23,1,8,×,7,8 × 7,neutral,largerFirst,1.5,1.5,56,,,,,,,,
,,,,,,,,,,,,,,,804,2022-01-17_20h25.37.428,multiplicationStroop,2021.2.3,Win32,61.0798925,,,,,,,,,,,,,,,,,,,,,,,,,,,,,,,,,48,1.7464,1,0,14,14,1,1,6,×,8,6 × 8,neutral,smallerFirst,1.5,1.5,48,,,,,,,,
,,,,,,,,,,,,,,,804,2022-01-17_20h25.37.428,multiplicationStroop,2021.2.3,Win32,61.0798925,,,,,,,,,,,,,,,,,,,,,,,,,,,,,,,,,16,1.9141,1,0,15,15,27,1,8,×,2,8 × 2,neutral,largerFirst,1.5,1.5,16,,,,,,,,
,,,,,,,,,,,,,,,804,2022-01-17_20h25.37.428,multiplicationStroop,2021.2.3,Win32,61.0798925,,,,,,,,,,,,,,,,,,,,,,,,,,,,,,,,,14,1.752,1,0,16,16,2,1,2,×,7,2 × 7,neutral,smallerFirst,1.5,1.5,14,,,,,,,,
,,,,,,,,,,,,,,,804,2022-01-17_20h25.37.428,multiplicationStroop,2021.2.3,Win32,61.0798925,,,,,,,,,,,,,,,,,,,,,,,,,,,,,,,,,49,1.7941,1,0,17,17,33,1,7,×,7,7 × 7,neutral,tie,1.5,1.5,49,,,,,,,,
,,,,,,,,,,,,,,,804,2022-01-17_20h25.37.428,multiplicationStroop,2021.2.3,Win32,61.0798925,,,,,,,,,,,,,,,,,,,,,,,,,,,,,,,,,12,1.3979,1,0,18,18,7,1,3,×,4,3 × 4,neutral,smallerFirst,1.5,1.5,12,,,,,,,,
,,,,,,,,,,,,,,,804,2022-01-17_20h25.37.428,multiplicationStroop,2021.2.3,Win32,61.0798925,,,,,,,,,,,,,,,,,,,,,,,,,,,,,,,,,81,1.4643,1,0,19,19,35,1,9,×,9,9 × 9,neutral,tie,1.5,1.5,81,,,,,,,,
,,,,,,,,,,,,,,,804,2022-01-17_20h25.37.428,multiplicationStroop,2021.2.3,Win32,61.0798925,,,,,,,,,,,,,,,,,,,,,,,,,,,,,,,,,6,1.5485,1,0,20,20,12,1,2,×,3,2 × 3,neutral,smallerFirst,1.5,1.5,6,,,,,,,,
,,,,,,,,,,,,,,,804,2022-01-17_20h25.37.428,multiplicationStroop,2021.2.3,Win32,61.0798925,,,,,,,,,,,,,,,,,,,,,,,,,,,,,,,,,35,1.5144,1,0,21,21,15,1,7,×,5,7 × 5,neutral,largerFirst,1.5,1.5,35,,,,,,,,
,,,,,,,,,,,,,,,804,2022-01-17_20h25.37.428,multiplicationStroop,2021.2.3,Win32,61.0798925,,,,,,,,,,,,,,,,,,,,,,,,,,,,,,,,,54,1.9476,1,0,22,22,21,1,9,×,6,9 × 6,neutral,largerFirst,1.5,1.5,54,,,,,,,,
,,,,,,,,,,,,,,,804,2022-01-17_20h25.37.428,multiplicationStroop,2021.2.3,Win32,61.0798925,,,,,,,,,,,,,,,,,,,,,,,,,,,,,,,,,18,1.9974,1,0,23,23,4,1,2,×,9,2 × 9,neutral,smallerFirst,1.5,1.5,18,,,,,,,,
,,,,,,,,,,,,,,,804,2022-01-17_20h25.37.428,multiplicationStroop,2021.2.3,Win32,61.0798925,,,,,,,,,,,,,,,,,,,,,,,,,,,,,,,,,4,1.1973,1,0,24,24,28,1,2,×,2,2 × 2,neutral,tie,1.5,1.5,4,,,,,,,,
,,,,,,,,,,,,,,,804,2022-01-17_20h25.37.428,multiplicationStroop,2021.2.3,Win32,61.0798925,,,,,,,,,,,,,,,,,,,,,,,,,,,,,,,,,36,1.5309,1,0,25,25,13,1,4,×,9,4 × 9,neutral,smallerFirst,1.5,1.5,36,,,,,,,,
,,,,,,,,,,,,,,,804,2022-01-17_20h25.37.428,multiplicationStroop,2021.2.3,Win32,61.0798925,,,,,,,,,,,,,,,,,,,,,,,,,,,,,,,,,15,2.0141,1,0,26,26,19,1,5,×,3,5 × 3,neutral,largerFirst,1.5,1.5,15,,,,,,,,
,,,,,,,,,,,,,,,804,2022-01-17_20h25.37.428,multiplicationStroop,2021.2.3,Win32,61.0798925,,,,,,,,,,,,,,,,,,,,,,,,,,,,,,,,,24,1.3148,1,0,27,27,16,1,6,×,4,6 × 4,neutral,largerFirst,1.5,1.5,24,,,,,,,,
,,,,,,,,,,,,,,,804,2022-01-17_20h25.37.428,multiplicationStroop,2021.2.3,Win32,61.0798925,,,,,,,,,,,,,,,,,,,,,,,,,,,,,,,,,40,1.7303,1,0,28,28,10,1,5,×,8,5 × 8,neutral,smallerFirst,1.5,1.5,40,,,,,,,,
,,,,,,,,,,,,,,,804,2022-01-17_20h25.37.428,multiplicationStroop,2021.2.3,Win32,61.0798925,,,,,,,,,,,,,,,,,,,,,,,,,,,,,,,,,21,1.2303,1,0,29,29,22,1,7,×,3,7 × 3,neutral,largerFirst,1.5,1.5,21,,,,,,,,
,,,,,,,,,,,,,,,804,2022-01-17_20h25.37.428,multiplicationStroop,2021.2.3,Win32,61.0798925,,,,,,,,,,,,,,,,,,,,,,,,,,,,,,,,,20,1.4983,1,0,30,30,6,1,4,×,5,4 × 5,neutral,smallerFirst,1.5,1.5,20,,,,,,,,
,,,,,,,,,,,,,,,804,2022-01-17_20h25.37.428,multiplicationStroop,2021.2.3,Win32,61.0798925,,,,,,,,,,,,,,,,,,,,,,,,,,,,,,,,,24,1.4651,1,0,31,31,8,1,3,×,8,3 × 8,neutral,smallerFirst,1.5,1.5,24,,,,,,,,
,,,,,,,,,,,,,,,804,2022-01-17_20h25.37.428,multiplicationStroop,2021.2.3,Win32,61.0798925,,,,,,,,,,,,,,,,,,,,,,,,,,,,,,,,,36,1.5139,1,0,32,32,32,1,6,×,6,6 × 6,neutral,tie,1.5,1.5,36,,,,,,,,
,,,,,,,,,,,,,,,804,2022-01-17_20h25.37.428,multiplicationStroop,2021.2.3,Win32,61.0798925,,,,,,,,,,,,,,,,,,,,,,,,,,,,,,,,,30,1.4648,1,0,33,33,5,1,5,×,6,5 × 6,neutral,smallerFirst,1.5,1.5,30,,,,,,,,
,,,,,,,,,,,,,,,804,2022-01-17_20h25.37.428,multiplicationStroop,2021.2.3,Win32,61.0798925,,,,,,,,,,,,,,,,,,,,,,,,,,,,,,,,,27,2.3975,1,0,34,34,0,1,3,×,9,3 × 9,neutral,smallerFirst,1.5,1.5,27,,,,,,,,
,,,,,,,,,,,,,,,804,2022-01-17_20h25.37.428,multiplicationStroop,2021.2.3,Win32,61.0798925,,,,,,,,,,,,,,,,,,,,,,,,,,,,,,,,,18,1.9802,1,0,35,35,14,1,6,×,3,6 × 3,neutral,largerFirst,1.5,1.5,18,,,,,,,,
,,,,,,,,,,,,,,,804,2022-01-17_20h25.37.428,multiplicationStroop,2021.2.3,Win32,61.0798925,,,,,,,,,,,,,,,,,,,,,,,,,,,,,,,,,,,,,,,,,,,,,,,,,,0,1,1,0,1,stimulusFile/mult_blk1.xlsx,,
,,,,,,,,,,,,,,,804,2022-01-17_20h25.37.428,multiplicationStroop,2021.2.3,Win32,61.0798925,,,,,,,,,,,,,,,,,,,,,,,,,,,,,,,space,96.817,6,1.6152,1,0,0,0,11,1,2,×,3,2 × 3,incongruent,smallerFirst,2,1,6,,,,,,,,
,,,,,,,,,,,,,,,804,2022-01-17_20h25.37.428,multiplicationStroop,2021.2.3,Win32,61.0798925,,,,,,,,,,,,,,,,,,,,,,,,,,,,,,,,,32,1.5481,1,0,1,1,7,1,4,×,8,4 × 8,incongruent,smallerFirst,2,1,32,,,,,,,,
,,,,,,,,,,,,,,,804,2022-01-17_20h25.37.428,multiplicationStroop,2021.2.3,Win32,61.0798925,,,,,,,,,,,,,,,,,,,,,,,,,,,,,,,,,56,1.8321,1,0,2,2,14,1,8,×,7,8 × 7,incongruent,largerFirst,1,2,56,,,,,,,,
,,,,,,,,,,,,,,,804,2022-01-17_20h25.37.428,multiplicationStroop,2021.2.3,Win32,61.0798925,,,,,,,,,,,,,,,,,,,,,,,,,,,,,,,,,48,1.798,1,0,3,3,1,1,6,×,8,6 × 8,incongruent,smallerFirst,2,1,48,,,,,,,,
,,,,,,,,,,,,,,,804,2022-01-17_20h25.37.428,multiplicationStroop,2021.2.3,Win32,61.0798925,,,,,,,,,,,,,,,,,,,,,,,,,,,,,,,,,72,1.932,1,0,4,4,0,1,8,×,9,8 × 9,incongruent,smallerFirst,2,1,72,,,,,,,,
,,,,,,,,,,,,,,,804,2022-01-17_20h25.37.428,multiplicationStroop,2021.2.3,Win32,61.0798925,,,,,,,,,,,,,,,,,,,,,,,,,,,,,,,,,20,1.3482,1,0,5,5,27,1,5,×,4,5 × 4,incongruent,largerFirst,1,2,20,,,,,,,,
,,,,,,,,,,,,,,,804,2022-01-17_20h25.37.428,multiplicationStroop,2021.2.3,Win32,61.0798925,,,,,,,,,,,,,,,,,,,,,,,,,,,,,,,,,4,1.1486,1,0,6,6,28,1,2,×,2,2 × 2,incongruent,tie,1,2,4,,,,,,,,
,,,,,,,,,,,,,,,804,2022-01-17_20h25.37.428,multiplicationStroop,2021.2.3,Win32,61.0798925,,,,,,,,,,,,,,,,,,,,,,,,,,,,,,,,,28,1.4153,1,0,7,7,16,1,7,×,4,7 × 4,incongruent,largerFirst,1,2,28,,,,,,,,
,,,,,,,,,,,,,,,804,2022-01-17_20h25.37.428,multiplicationStroop,2021.2.3,Win32,61.0798925,,,,,,,,,,,,,,,,,,,,,,,,,,,,,,,,,9,1.5315,1,0,8,8,29,1,3,×,3,3 × 3,incongruent,tie,1,2,9,,,,,,,,
,,,,,,,,,,,,,,,804,2022-01-17_20h25.37.428,multiplicationStroop,2021.2.3,Win32,61.0798925,,,,,,,,,,,,,,,,,,,,,,,,,,,,,,,,,36,1.5983,1,0,9,9,32,1,6,×,6,6 × 6,incongruent,tie,1,2,36,,,,,,,,
,,,,,,,,,,,,,,,804,2022-01-17_20h25.37.428,multiplicationStroop,2021.2.3,Win32,61.0798925,,,,,,,,,,,,,,,,,,,,,,,,,,,,,,,,,10,1.3821,1,0,10,10,21,1,5,×,2,5 × 2,incongruent,largerFirst,1,2,10,,,,,,,,
,,,,,,,,,,,,,,,804,2022-01-17_20h25.37.428,multiplicationStroop,2021.2.3,Win32,61.0798925,,,,,,,,,,,,,,,,,,,,,,,,,,,,,,,,,64,1.7815,1,0,11,11,34,1,8,×,8,8 × 8,incongruent,tie,1,2,64,,,,,,,,
,,,,,,,,,,,,,,,804,2022-01-17_20h25.37.428,multiplicationStroop,2021.2.3,Win32,61.0798925,,,,,,,,,,,,,,,,,,,,,,,,,,,,,,,,,24,1.5322,1,0,12,12,9,1,3,×,8,3 × 8,incongruent,smallerFirst,2,1,24,,,,,,,,
,,,,,,,,,,,,,,,804,2022-01-17_20h25.37.428,multiplicationStroop,2021.2.3,Win32,61.0798925,,,,,,,,,,,,,,,,,,,,,,,,,,,,,,,,,27,1.4817,1,0,13,13,18,1,9,×,3,9 × 3,incongruent,largerFirst,1,2,27,,,,,,,,
,,,,,,,,,,,,,,,804,2022-01-17_20h25.37.428,multiplicationStroop,2021.2.3,Win32,61.0798925,,,,,,,,,,,,,,,,,,,,,,,,,,,,,,,,,14,1.3146,1,0,14,14,4,1,2,×,7,2 × 7,incongruent,smallerFirst,2,1,14,,,,,,,,
,,,,,,,,,,,,,,,804,2022-01-17_20h25.37.428,multiplicationStroop,2021.2.3,Win32,61.0798925,,,,,,,,,,,,,,,,,,,,,,,,,,,,,,,,,8,1.449,1,0,15,15,24,1,4,×,2,4 × 2,incongruent,largerFirst,1,2,8,,,,,,,,
,,,,,,,,,,,,,,,804,2022-01-17_20h25.37.428,multiplicationStroop,2021.2.3,Win32,61.0798925,,,,,,,,,,,,,,,,,,,,,,,,,,,,,,,,,24,1.2155,1,0,16,16,20,1,6,×,4,6 × 4,incongruent,largerFirst,1,2,24,,,,,,,,
,,,,,,,,,,,,,,,804,2022-01-17_20h25.37.428,multiplicationStroop,2021.2.3,Win32,61.0798925,,,,,,,,,,,,,,,,,,,,,,,,,,,,,,,,,12,1.1488,1,0,17,17,19,1,6,×,2,6 × 2,incongruent,largerFirst,1,2,12,,,,,,,,
,,,,,,,,,,,,,,,804,2022-01-17_20h25.37.428,multiplicationStroop,2021.2.3,Win32,61.0798925,,,,,,,,,,,,,,,,,,,,,,,,,,,,,,,,,54,1.7481,1,0,18,18,6,1,6,×,9,6 × 9,incongruent,smallerFirst,2,1,54,,,,,,,,
,,,,,,,,,,,,,,,804,2022-01-17_20h25.37.428,multiplicationStroop,2021.2.3,Win32,61.0798925,,,,,,,,,,,,,,,,,,,,,,,,,,,,,,,,,63,1.7986,1,0,19,19,3,1,7,×,9,7 × 9,incongruent,smallerFirst,2,1,63,,,,,,,,
,,,,,,,,,,,,,,,804,2022-01-17_20h25.37.428,multiplicationStroop,2021.2.3,Win32,61.0798925,,,,,,,,,,,,,,,,,,,,,,,,,,,,,,,,,40,1.5981,1,0,20,20,13,1,5,×,8,5 × 8,incongruent,smallerFirst,2,1,40,,,,,,,,
,,,,,,,,,,,,,,,804,2022-01-17_20h25.37.428,multiplicationStroop,2021.2.3,Win32,61.0798925,,,,,,,,,,,,,,,,,,,,,,,,,,,,,,,,,36,1.5647,1,0,21,21,15,1,9,×,4,9 × 4,incongruent,largerFirst,1,2,36,,,,,,,,
,,,,,,,,,,,,,,,804,2022-01-17_20h25.37.428,multiplicationStroop,2021.2.3,Win32,61.0798925,,,,,,,,,,,,,,,,,,,,,,,,,,,,,,,,,30,1.4154,1,0,22,22,25,1,6,×,5,6 × 5,incongruent,largerFirst,1,2,30,,,,,,,,
,,,,,,,,,,,,,,,804,2022-01-17_20h25.37.428,multiplicationStroop,2021.2.3,Win32,61.0798925,,,,,,,,,,,,,,,,,,,,,,,,,,,,,,,,,49,1.9818,1,0,23,23,33,1,7,×,7,7 × 7,incongruent,tie,1,2,49,,,,,,,,
,,,,,,,,,,,,,,,804,2022-01-17_20h25.37.428,multiplicationStroop,2021.2.3,Win32,61.0798925,,,,,,,,,,,,,,,,,,,,,,,,,,,,,,,,,12,1.3155,1,0,24,24,5,1,3,×,4,3 × 4,incongruent,smallerFirst,2,1,12,,,,,,,,
,,,,,,,,,,,,,,,804,2022-01-17_20h25.37.428,multiplicationStroop,2021.2.3,Win32,61.0798925,,,,,,,,,,,,,,,,,,,,,,,,,,,,,,,,,35,2.0146,1,0,25,25,12,1,5,×,7,5 × 7,incongruent,smallerFirst,2,1,35,,,,,,,,
,,,,,,,,,,,,,,,804,2022-01-17_20h25.37.428,multiplicationStroop,2021.2.3,Win32,61.0798925,,,,,,,,,,,,,,,,,,,,,,,,,,,,,,,,,15,1.5984,1,0,26,26,10,1,3,×,5,3 × 5,incongruent,smallerFirst,2,1,15,,,,,,,,
,,,,,,,,,,,,,,,804,2022-01-17_20h25.37.428,multiplicationStroop,2021.2.3,Win32,61.0798925,,,,,,,,,,,,,,,,,,,,,,,,,,,,,,,,,25,1.3817,1,0,27,27,31,1,5,×,5,5 × 5,incongruent,tie,1,2,25,,,,,,,,
,,,,,,,,,,,,,,,804,2022-01-17_20h25.37.428,multiplicationStroop,2021.2.3,Win32,61.0798925,,,,,,,,,,,,,,,,,,,,,,,,,,,,,,,,,16,1.3819,1,0,28,28,30,1,4,×,4,4 × 4,incongruent,tie,1,2,16,,,,,,,,
,,,,,,,,,,,,,,,804,2022-01-17_20h25.37.428,multiplicationStroop,2021.2.3,Win32,61.0798925,,,,,,,,,,,,,,,,,,,,,,,,,,,,,,,,,45,1.4145,1,0,29,29,22,1,9,×,5,9 × 5,incongruent,largerFirst,1,2,45,,,,,,,,
,,,,,,,,,,,,,,,804,2022-01-17_20h25.37.428,multiplicationStroop,2021.2.3,Win32,61.0798925,,,,,,,,,,,,,,,,,,,,,,,,,,,,,,,,,81,2.3818,1,0,30,30,35,1,9,×,9,9 × 9,incongruent,tie,1,2,81,,,,,,,,
,,,,,,,,,,,,,,,804,2022-01-17_20h25.37.428,multiplicationStroop,2021.2.3,Win32,61.0798925,,,,,,,,,,,,,,,,,,,,,,,,,,,,,,,,,18,1.8634,1,0,31,31,8,1,3,×,6,3 × 6,incongruent,smallerFirst,2,1,18,,,,,,,,
,,,,,,,,,,,,,,,804,2022-01-17_20h25.37.428,multiplicationStroop,2021.2.3,Win32,61.0798925,,,,,,,,,,,,,,,,,,,,,,,,,,,,,,,,,16,1.5814,1,0,32,32,23,1,8,×,2,8 × 2,incongruent,largerFirst,1,2,16,,,,,,,,
,,,,,,,,,,,,,,,804,2022-01-17_20h25.37.428,multiplicationStroop,2021.2.3,Win32,61.0798925,,,,,,,,,,,,,,,,,,,,,,,,,,,,,,,,,21,1.1655,1,0,33,33,26,1,7,×,3,7 × 3,incongruent,largerFirst,1,2,21,,,,,,,,
,,,,,,,,,,,,,,,804,2022-01-17_20h25.37.428,multiplicationStroop,2021.2.3,Win32,61.0798925,,,,,,,,,,,,,,,,,,,,,,,,,,,,,,,,,18,1.4653,1,0,34,34,2,1,2,×,9,2 × 9,incongruent,smallerFirst,2,1,18,,,,,,,,
,,,,,,,,,,,,,,,804,2022-01-17_20h25.37.428,multiplicationStroop,2021.2.3,Win32,61.0798925,,,,,,,,,,,,,,,,,,,,,,,,,,,,,,,,,42,1.6152,1,0,35,35,17,1,7,×,6,7 × 6,incongruent,largerFirst,1,2,42,,,,,,,,
,,,,,,,,,,,,,,,804,2022-01-17_20h25.37.428,multiplicationStroop,2021.2.3,Win32,61.0798925,,,,,,,,,,,,,,,,,,,,,,,,,,,,,,,,,,,,,,,,,,,,,,,,,,0,2,2,5,1,stimulusFile/mult_blk6_INcongruent.xlsx,,
,,,,,,,,,,,,,,,804,2022-01-17_20h25.37.428,multiplicationStroop,2021.2.3,Win32,61.0798925,,,,,,,,,,,,,,,,,,,,,,,,,,,,,,,space,0.9735,6,1.6632,1,0,0,0,26,1,3,×,2,3 × 2,neutral,largerFirst,1.5,1.5,6,,,,,,,,
,,,,,,,,,,,,,,,804,2022-01-17_20h25.37.428,multiplicationStroop,2021.2.3,Win32,61.0798925,,,,,,,,,,,,,,,,,,,,,,,,,,,,,,,,,18,1.7313,1,0,1,1,0,1,3,×,6,3 × 6,neutral,smallerFirst,1.5,1.5,18,,,,,,,,
,,,,,,,,,,,,,,,804,2022-01-17_20h25.37.428,multiplicationStroop,2021.2.3,Win32,61.0798925,,,,,,,,,,,,,,,,,,,,,,,,,,,,,,,,,48,1.7651,1,0,2,2,15,1,8,×,6,8 × 6,neutral,largerFirst,1.5,1.5,48,,,,,,,,
,,,,,,,,,,,,,,,804,2022-01-17_20h25.37.428,multiplicationStroop,2021.2.3,Win32,61.0798925,,,,,,,,,,,,,,,,,,,,,,,,,,,,,,,,,1,1.1821,0,0,3,3,25,1,6,×,2,6 × 2,neutral,largerFirst,1.5,1.5,12,,,,,,,,
,,,,,,,,,,,,,,,804,2022-01-17_20h25.37.428,multiplicationStroop,2021.2.3,Win32,61.0798925,,,,,,,,,,,,,,,,,,,,,,,,,,,,,,,,,12,1.2316,1,0,4,4,21,1,4,×,3,4 × 3,neutral,largerFirst,1.5,1.5,12,,,,,,,,
,,,,,,,,,,,,,,,804,2022-01-17_20h25.37.428,multiplicationStroop,2021.2.3,Win32,61.0798925,,,,,,,,,,,,,,,,,,,,,,,,,,,,,,,,,35,1.5322,1,0,5,5,1,1,5,×,7,5 × 7,neutral,smallerFirst,1.5,1.5,35,,,,,,,,
,,,,,,,,,,,,,,,804,2022-01-17_20h25.37.428,multiplicationStroop,2021.2.3,Win32,61.0798925,,,,,,,,,,,,,,,,,,,,,,,,,,,,,,,,,20,1.5983,1,0,6,6,20,1,5,×,4,5 × 4,neutral,largerFirst,1.5,1.5,20,,,,,,,,
,,,,,,,,,,,,,,,804,2022-01-17_20h25.37.428,multiplicationStroop,2021.2.3,Win32,61.0798925,,,,,,,,,,,,,,,,,,,,,,,,,,,,,,,,,15,1.448,1,0,7,7,5,1,3,×,5,3 × 5,neutral,smallerFirst,1.5,1.5,15,,,,,,,,
,,,,,,,,,,,,,,,804,2022-01-17_20h25.37.428,multiplicationStroop,2021.2.3,Win32,61.0798925,,,,,,,,,,,,,,,,,,,,,,,,,,,,,,,,,24,1.2822,1,0,8,8,22,1,8,×,3,8 × 3,neutral,largerFirst,1.5,1.5,24,,,,,,,,
,,,,,,,,,,,,,,,804,2022-01-17_20h25.37.428,multiplicationStroop,2021.2.3,Win32,61.0798925,,,,,,,,,,,,,,,,,,,,,,,,,,,,,,,,,40,2.4479,1,0,9,9,24,1,8,×,5,8 × 5,neutral,largerFirst,1.5,1.5,40,,,,,,,,
,,,,,,,,,,,,,,,804,2022-01-17_20h25.37.428,multiplicationStroop,2021.2.3,Win32,61.0798925,,,,,,,,,,,,,,,,,,,,,,,,,,,,,,,,,10,1.3154,1,0,10,10,4,1,2,×,5,2 × 5,neutral,smallerFirst,1.5,1.5,10,,,,,,,,
,,,,,,,,,,,,,,,804,2022-01-17_20h25.37.428,multiplicationStroop,2021.2.3,Win32,61.0798925,,,,,,,,,,,,,,,,,,,,,,,,,,,,,,,,,30,1.5648,1,0,11,11,19,1,6,×,5,6 × 5,neutral,largerFirst,1.5,1.5,30,,,,,,,,
,,,,,,,,,,,,,,,804,2022-01-17_20h25.37.428,multiplicationStroop,2021.2.3,Win32,61.0798925,,,,,,,,,,,,,,,,,,,,,,,,,,,,,,,,,64,2.3811,1,0,12,12,34,1,8,×,8,8 × 8,neutral,tie,1.5,1.5,64,,,,,,,,
,,,,,,,,,,,,,,,804,2022-01-17_20h25.37.428,multiplicationStroop,2021.2.3,Win32,61.0798925,,,,,,,,,,,,,,,,,,,,,,,,,,,,,,,,,45,1.815,1,0,13,13,10,1,5,×,9,5 × 9,neutral,smallerFirst,1.5,1.5,45,,,,,,,,
,,,,,,,,,,,,,,,804,2022-01-17_20h25.37.428,multiplicationStroop,2021.2.3,Win32,61.0798925,,,,,,,,,,,,,,,,,,,,,,,,,,,,,,,,,16,1.5654,1,0,14,14,30,1,4,×,4,4 × 4,neutral,tie,1.5,1.5,16,,,,,,,,
,,,,,,,,,,,,,,,804,2022-01-17_20h25.37.428,multiplicationStroop,2021.2.3,Win32,61.0798925,,,,,,,,,,,,,,,,,,,,,,,,,,,,,,,,,24,1.3817,1,0,15,15,2,1,4,×,6,4 × 6,neutral,smallerFirst,1.5,1.5,24,,,,,,,,
,,,,,,,,,,,,,,,804,2022-01-17_20h25.37.428,multiplicationStroop,2021.2.3,Win32,61.0798925,,,,,,,,,,,,,,,,,,,,,,,,,,,,,,,,,21,1.2322,1,0,16,16,8,1,3,×,7,3 × 7,neutral,smallerFirst,1.5,1.5,21,,,,,,,,
,,,,,,,,,,,,,,,804,2022-01-17_20h25.37.428,multiplicationStroop,2021.2.3,Win32,61.0798925,,,,,,,,,,,,,,,,,,,,,,,,,,,,,,,,,18,2.4974,1,0,17,17,18,1,9,×,2,9 × 2,neutral,largerFirst,1.5,1.5,18,,,,,,,,
,,,,,,,,,,,,,,,804,2022-01-17_20h25.37.428,multiplicationStroop,2021.2.3,Win32,61.0798925,,,,,,,,,,,,,,,,,,,,,,,,,,,,,,,,,8,1.6656,1,0,18,18,3,1,2,×,4,2 × 4,neutral,smallerFirst,1.5,1.5,8,,,,,,,,
,,,,,,,,,,,,,,,804,2022-01-17_20h25.37.428,multiplicationStroop,2021.2.3,Win32,61.0798925,,,,,,,,,,,,,,,,,,,,,,,,,,,,,,,,,82,1.7145,0,0,19,19,35,1,9,×,9,9 × 9,neutral,tie,1.5,1.5,81,,,,,,,,
,,,,,,,,,,,,,,,804,2022-01-17_20h25.37.428,multiplicationStroop,2021.2.3,Win32,61.0798925,,,,,,,,,,,,,,,,,,,,,,,,,,,,,,,,,27,3.9642,1,0,20,20,14,1,9,×,3,9 × 3,neutral,largerFirst,1.5,1.5,27,,,,,,,,
,,,,,,,,,,,,,,,804,2022-01-17_20h25.37.428,multiplicationStroop,2021.2.3,Win32,61.0798925,,,,,,,,,,,,,,,,,,,,,,,,,,,,,,,,,54,1.9982,1,0,21,21,7,1,6,×,9,6 × 9,neutral,smallerFirst,1.5,1.5,54,,,,,,,,
,,,,,,,,,,,,,,,804,2022-01-17_20h25.37.428,multiplicationStroop,2021.2.3,Win32,61.0798925,,,,,,,,,,,,,,,,,,,,,,,,,,,,,,,,,9,1.3988,1,0,22,22,29,1,3,×,3,3 × 3,neutral,tie,1.5,1.5,9,,,,,,,,
,,,,,,,,,,,,,,,804,2022-01-17_20h25.37.428,multiplicationStroop,2021.2.3,Win32,61.0798925,,,,,,,,,,,,,,,,,,,,,,,,,,,,,,,,,25,1.9145,1,0,23,23,31,1,5,×,5,5 × 5,neutral,tie,1.5,1.5,25,,,,,,,,
,,,,,,,,,,,,,,,804,2022-01-17_20h25.37.428,multiplicationStroop,2021.2.3,Win32,61.0798925,,,,,,,,,,,,,,,,,,,,,,,,,,,,,,,,,49,3.6809,1,0,24,24,33,1,7,×,7,7 × 7,neutral,tie,1.5,1.5,49,,,,,,,,
,,,,,,,,,,,,,,,804,2022-01-17_20h25.37.428,multiplicationStroop,2021.2.3,Win32,61.0798925,,,,,,,,,,,,,,,,,,,,,,,,,,,,,,,,,16,2.2826,1,0,25,25,13,1,2,×,8,2 × 8,neutral,smallerFirst,1.5,1.5,16,,,,,,,,
,,,,,,,,,,,,,,,804,2022-01-17_20h25.37.428,multiplicationStroop,2021.2.3,Win32,61.0798925,,,,,,,,,,,,,,,,,,,,,,,,,,,,,,,,,32,1.6481,1,0,26,26,23,1,8,×,4,8 × 4,neutral,largerFirst,1.5,1.5,32,,,,,,,,
,,,,,,,,,,,,,,,804,2022-01-17_20h25.37.428,multiplicationStroop,2021.2.3,Win32,61.0798925,,,,,,,,,,,,,,,,,,,,,,,,,,,,,,,,,28,1.899,1,0,27,27,17,1,7,×,4,7 × 4,neutral,largerFirst,1.5,1.5,28,,,,,,,,
,,,,,,,,,,,,,,,804,2022-01-17_20h25.37.428,multiplicationStroop,2021.2.3,Win32,61.0798925,,,,,,,,,,,,,,,,,,,,,,,,,,,,,,,,,36,1.8142,1,0,28,28,32,1,6,×,6,6 × 6,neutral,tie,1.5,1.5,36,,,,,,,,
,,,,,,,,,,,,,,,804,2022-01-17_20h25.37.428,multiplicationStroop,2021.2.3,Win32,61.0798925,,,,,,,,,,,,,,,,,,,,,,,,,,,,,,,,,72,2.282,1,0,29,29,11,1,8,×,9,8 × 9,neutral,smallerFirst,1.5,1.5,72,,,,,,,,
,,,,,,,,,,,,,,,804,2022-01-17_20h25.37.428,multiplicationStroop,2021.2.3,Win32,61.0798925,,,,,,,,,,,,,,,,,,,,,,,,,,,,,,,,,36,2.0149,1,0,30,30,27,1,9,×,4,9 × 4,neutral,largerFirst,1.5,1.5,36,,,,,,,,
,,,,,,,,,,,,,,,804,2022-01-17_20h25.37.428,multiplicationStroop,2021.2.3,Win32,61.0798925,,,,,,,,,,,,,,,,,,,,,,,,,,,,,,,,,42,1.565,1,0,31,31,6,1,6,×,7,6 × 7,neutral,smallerFirst,1.5,1.5,42,,,,,,,,
,,,,,,,,,,,,,,,804,2022-01-17_20h25.37.428,multiplicationStroop,2021.2.3,Win32,61.0798925,,,,,,,,,,,,,,,,,,,,,,,,,,,,,,,,,56,1.8983,1,0,32,32,9,1,7,×,8,7 × 8,neutral,smallerFirst,1.5,1.5,56,,,,,,,,
,,,,,,,,,,,,,,,804,2022-01-17_20h25.37.428,multiplicationStroop,2021.2.3,Win32,61.0798925,,,,,,,,,,,,,,,,,,,,,,,,,,,,,,,,,4,1.2152,1,0,33,33,28,1,2,×,2,2 × 2,neutral,tie,1.5,1.5,4,,,,,,,,
,,,,,,,,,,,,,,,804,2022-01-17_20h25.37.428,multiplicationStroop,2021.2.3,Win32,61.0798925,,,,,,,,,,,,,,,,,,,,,,,,,,,,,,,,,63,3.7471,1,0,34,34,12,1,7,×,9,7 × 9,neutral,smallerFirst,1.5,1.5,63,,,,,,,,
,,,,,,,,,,,,,,,804,2022-01-17_20h25.37.428,multiplicationStroop,2021.2.3,Win32,61.0798925,,,,,,,,,,,,,,,,,,,,,,,,,,,,,,,,,14,1.7328,1,0,35,35,16,1,7,×,2,7 × 2,neutral,largerFirst,1.5,1.5,14,,,,,,,,
,,,,,,,,,,,,,,,804,2022-01-17_20h25.37.428,multiplicationStroop,2021.2.3,Win32,61.0798925,,,,,,,,,,,,,,,,,,,,,,,,,,,,,,,,,,,,,,,,,,,,,,,,,,0,3,3,1,1,stimulusFile/mult_blk2.xlsx,,
,,,,,,,,,,,,,,,804,2022-01-17_20h25.37.428,multiplicationStroop,2021.2.3,Win32,61.0798925,,,,,,,,,,,,,,,,,,,,,,,,,,,,,,,space,80.5705,18,1.8714,1,0,0,0,8,1,2,×,9,2 × 9,congruent,smallerFirst,1,2,18,,,,,,,,
,,,,,,,,,,,,,,,804,2022-01-17_20h25.37.428,multiplicationStroop,2021.2.3,Win32,61.0798925,,,,,,,,,,,,,,,,,,,,,,,,,,,,,,,,,36,1.8315,1,0,1,1,32,1,6,×,6,6 × 6,neutral,tie,1,2,36,,,,,,,,
,,,,,,,,,,,,,,,804,2022-01-17_20h25.37.428,multiplicationStroop,2021.2.3,Win32,61.0798925,,,,,,,,,,,,,,,,,,,,,,,,,,,,,,,,,30,1.5487,1,0,2,2,1,1,5,×,6,5 × 6,congruent,smallerFirst,1,2,30,,,,,,,,
,,,,,,,,,,,,,,,804,2022-01-17_20h25.37.428,multiplicationStroop,2021.2.3,Win32,61.0798925,,,,,,,,,,,,,,,,,,,,,,,,,,,,,,,,,54,1.8482,1,0,3,3,26,1,9,×,6,9 × 6,congruent,largerFirst,2,1,54,,,,,,,,
,,,,,,,,,,,,,,,804,2022-01-17_20h25.37.428,multiplicationStroop,2021.2.3,Win32,61.0798925,,,,,,,,,,,,,,,,,,,,,,,,,,,,,,,,,63,2.5477,1,0,4,4,7,1,7,×,9,7 × 9,congruent,smallerFirst,1,2,63,,,,,,,,
,,,,,,,,,,,,,,,804,2022-01-17_20h25.37.428,multiplicationStroop,2021.2.3,Win32,61.0798925,,,,,,,,,,,,,,,,,,,,,,,,,,,,,,,,,8,2.0487,1,0,5,5,23,1,4,×,2,4 × 2,congruent,largerFirst,2,1,8,,,,,,,,
,,,,,,,,,,,,,,,804,2022-01-17_20h25.37.428,multiplicationStroop,2021.2.3,Win32,61.0798925,,,,,,,,,,,,,,,,,,,,,,,,,,,,,,,,,14,1.7146,1,0,6,6,0,1,2,×,7,2 × 7,congruent,smallerFirst,1,2,14,,,,,,,,
,,,,,,,,,,,,,,,804,2022-01-17_20h25.37.428,multiplicationStroop,2021.2.3,Win32,61.0798925,,,,,,,,,,,,,,,,,,,,,,,,,,,,,,,,,16,1.6824,1,0,7,7,19,1,8,×,2,8 × 2,congruent,largerFirst,2,1,16,,,,,,,,
,,,,,,,,,,,,,,,804,2022-01-17_20h25.37.428,multiplicationStroop,2021.2.3,Win32,61.0798925,,,,,,,,,,,,,,,,,,,,,,,,,,,,,,,,,35,2.6476,1,0,8,8,15,1,7,×,5,7 × 5,congruent,largerFirst,2,1,35,,,,,,,,
,,,,,,,,,,,,,,,804,2022-01-17_20h25.37.428,multiplicationStroop,2021.2.3,Win32,61.0798925,,,,,,,,,,,,,,,,,,,,,,,,,,,,,,,,,12,2.0646,1,0,9,9,16,1,4,×,3,4 × 3,congruent,largerFirst,2,1,12,,,,,,,,
,,,,,,,,,,,,,,,804,2022-01-17_20h25.37.428,multiplicationStroop,2021.2.3,Win32,61.0798925,,,,,,,,,,,,,,,,,,,,,,,,,,,,,,,,,81,2.1486,1,0,10,10,35,1,9,×,9,9 × 9,neutral,tie,1,2,81,,,,,,,,
,,,,,,,,,,,,,,,804,2022-01-17_20h25.37.428,multiplicationStroop,2021.2.3,Win32,61.0798925,,,,,,,,,,,,,,,,,,,,,,,,,,,,,,,,,18,1.7981,1,0,11,11,25,1,6,×,3,6 × 3,congruent,largerFirst,2,1,18,,,,,,,,
,,,,,,,,,,,,,,,804,2022-01-17_20h25.37.428,multiplicationStroop,2021.2.3,Win32,61.0798925,,,,,,,,,,,,,,,,,,,,,,,,,,,,,,,,,45,1.5988,1,0,12,12,9,1,5,×,9,5 × 9,congruent,smallerFirst,1,2,45,,,,,,,,
,,,,,,,,,,,,,,,804,2022-01-17_20h25.37.428,multiplicationStroop,2021.2.3,Win32,61.0798925,,,,,,,,,,,,,,,,,,,,,,,,,,,,,,,,,6,1.5151,1,0,13,13,27,1,3,×,2,3 × 2,congruent,largerFirst,2,1,6,,,,,,,,
,,,,,,,,,,,,,,,804,2022-01-17_20h25.37.428,multiplicationStroop,2021.2.3,Win32,61.0798925,,,,,,,,,,,,,,,,,,,,,,,,,,,,,,,,,24,1.5646,1,0,14,14,24,1,8,×,3,8 × 3,congruent,largerFirst,2,1,24,,,,,,,,
,,,,,,,,,,,,,,,804,2022-01-17_20h25.37.428,multiplicationStroop,2021.2.3,Win32,61.0798925,,,,,,,,,,,,,,,,,,,,,,,,,,,,,,,,,27,2.9978,1,0,15,15,12,1,3,×,9,3 × 9,congruent,smallerFirst,1,2,27,,,,,,,,
,,,,,,,,,,,,,,,804,2022-01-17_20h25.37.428,multiplicationStroop,2021.2.3,Win32,61.0798925,,,,,,,,,,,,,,,,,,,,,,,,,,,,,,,,,24,1.948,1,0,16,16,11,1,4,×,6,4 × 6,congruent,smallerFirst,1,2,24,,,,,,,,
,,,,,,,,,,,,,,,804,2022-01-17_20h25.37.428,multiplicationStroop,2021.2.3,Win32,61.0798925,,,,,,,,,,,,,,,,,,,,,,,,,,,,,,,,,20,1.6486,1,0,17,17,21,1,5,×,4,5 × 4,congruent,largerFirst,2,1,20,,,,,,,,
,,,,,,,,,,,,,,,804,2022-01-17_20h25.37.428,multiplicationStroop,2021.2.3,Win32,61.0798925,,,,,,,,,,,,,,,,,,,,,,,,,,,,,,,,,56,1.7483,1,0,18,18,22,1,8,×,7,8 × 7,congruent,largerFirst,2,1,56,,,,,,,,
,,,,,,,,,,,,,,,804,2022-01-17_20h25.37.428,multiplicationStroop,2021.2.3,Win32,61.0798925,,,,,,,,,,,,,,,,,,,,,,,,,,,,,,,,,21,1.7979,1,0,19,19,2,1,3,×,7,3 × 7,congruent,smallerFirst,1,2,21,,,,,,,,
,,,,,,,,,,,,,,,804,2022-01-17_20h25.37.428,multiplicationStroop,2021.2.3,Win32,61.0798925,,,,,,,,,,,,,,,,,,,,,,,,,,,,,,,,,72,2.5319,1,0,20,20,3,1,8,×,9,8 × 9,congruent,smallerFirst,1,2,72,,,,,,,,
,,,,,,,,,,,,,,,804,2022-01-17_20h25.37.428,multiplicationStroop,2021.2.3,Win32,61.0798925,,,,,,,,,,,,,,,,,,,,,,,,,,,,,,,,,9,1.6982,1,0,21,21,29,1,3,×,3,3 × 3,neutral,tie,1,2,9,,,,,,,,
,,,,,,,,,,,,,,,804,2022-01-17_20h25.37.428,multiplicationStroop,2021.2.3,Win32,61.0798925,,,,,,,,,,,,,,,,,,,,,,,,,,,,,,,,,40,2.5313,1,0,22,22,20,1,8,×,5,8 × 5,congruent,largerFirst,2,1,40,,,,,,,,
,,,,,,,,,,,,,,,804,2022-01-17_20h25.37.428,multiplicationStroop,2021.2.3,Win32,61.0798925,,,,,,,,,,,,,,,,,,,,,,,,,,,,,,,,,49,2.6477,1,0,23,23,33,1,7,×,7,7 × 7,neutral,tie,1,2,49,,,,,,,,
,,,,,,,,,,,,,,,804,2022-01-17_20h25.37.428,multiplicationStroop,2021.2.3,Win32,61.0798925,,,,,,,,,,,,,,,,,,,,,,,,,,,,,,,,,12,3.1307,1,0,24,24,5,1,2,×,6,2 × 6,congruent,smallerFirst,1,2,12,,,,,,,,
,,,,,,,,,,,,,,,804,2022-01-17_20h25.37.428,multiplicationStroop,2021.2.3,Win32,61.0798925,,,,,,,,,,,,,,,,,,,,,,,,,,,,,,,,,36,1.7166,1,0,25,25,14,1,9,×,4,9 × 4,congruent,largerFirst,2,1,36,,,,,,,,
,,,,,,,,,,,,,,,804,2022-01-17_20h25.37.428,multiplicationStroop,2021.2.3,Win32,61.0798925,,,,,,,,,,,,,,,,,,,,,,,,,,,,,,,,,4,1.5819,1,0,26,26,28,1,2,×,2,2 × 2,neutral,tie,1,2,4,,,,,,,,
,,,,,,,,,,,,,,,804,2022-01-17_20h25.37.428,multiplicationStroop,2021.2.3,Win32,61.0798925,,,,,,,,,,,,,,,,,,,,,,,,,,,,,,,,,32,1.9151,1,0,27,27,6,1,4,×,8,4 × 8,congruent,smallerFirst,1,2,32,,,,,,,,
,,,,,,,,,,,,,,,804,2022-01-17_20h25.37.428,multiplicationStroop,2021.2.3,Win32,61.0798925,,,,,,,,,,,,,,,,,,,,,,,,,,,,,,,,,10,1.7482,1,0,28,28,10,1,2,×,5,2 × 5,congruent,smallerFirst,1,2,10,,,,,,,,
,,,,,,,,,,,,,,,804,2022-01-17_20h25.37.428,multiplicationStroop,2021.2.3,Win32,61.0798925,,,,,,,,,,,,,,,,,,,,,,,,,,,,,,,,,64,1.9151,1,0,29,29,34,1,8,×,8,8 × 8,neutral,tie,1,2,64,,,,,,,,
,,,,,,,,,,,,,,,804,2022-01-17_20h25.37.428,multiplicationStroop,2021.2.3,Win32,61.0798925,,,,,,,,,,,,,,,,,,,,,,,,,,,,,,,,,48,2.4482,1,0,30,30,4,1,6,×,8,6 × 8,congruent,smallerFirst,1,2,48,,,,,,,,
,,,,,,,,,,,,,,,804,2022-01-17_20h25.37.428,multiplicationStroop,2021.2.3,Win32,61.0798925,,,,,,,,,,,,,,,,,,,,,,,,,,,,,,,,,15,1.7832,1,0,31,31,18,1,5,×,3,5 × 3,congruent,largerFirst,2,1,15,,,,,,,,
,,,,,,,,,,,,,,,804,2022-01-17_20h25.37.428,multiplicationStroop,2021.2.3,Win32,61.0798925,,,,,,,,,,,,,,,,,,,,,,,,,,,,,,,,,42,1.8148,1,0,32,32,17,1,7,×,6,7 × 6,congruent,largerFirst,2,1,42,,,,,,,,
,,,,,,,,,,,,,,,804,2022-01-17_20h25.37.428,multiplicationStroop,2021.2.3,Win32,61.0798925,,,,,,,,,,,,,,,,,,,,,,,,,,,,,,,,,28,1.9318,1,0,33,33,13,1,4,×,7,4 × 7,congruent,smallerFirst,1,2,28,,,,,,,,
,,,,,,,,,,,,,,,804,2022-01-17_20h25.37.428,multiplicationStroop,2021.2.3,Win32,61.0798925,,,,,,,,,,,,,,,,,,,,,,,,,,,,,,,,,16,1.7646,1,0,34,34,30,1,4,×,4,4 × 4,neutral,tie,1,2,16,,,,,,,,
,,,,,,,,,,,,,,,804,2022-01-17_20h25.37.428,multiplicationStroop,2021.2.3,Win32,61.0798925,,,,,,,,,,,,,,,,,,,,,,,,,,,,,,,,,25,1.5653,1,0,35,35,31,1,5,×,5,5 × 5,neutral,tie,1,2,25,,,,,,,,
,,,,,,,,,,,,,,,804,2022-01-17_20h25.37.428,multiplicationStroop,2021.2.3,Win32,61.0798925,,,,,,,,,,,,,,,,,,,,,,,,,,,,,,,,,,,,,,,,,,,,,,,,,,0,4,4,3,1,stimulusFile/mult_blk4_congruent.xlsx,,
,,,,,,,,,,,,,,,804,2022-01-17_20h25.37.428,multiplicationStroop,2021.2.3,Win32,61.0798925,,,,,,,,,,,,,,,,,,,,,,,,,,,,,,,space,14.2276,21,1.3078,1,0,0,0,16,1,7,×,3,7 × 3,congruent,largerFirst,2,1,21,,,,,,,,
,,,,,,,,,,,,,,,804,2022-01-17_20h25.37.428,multiplicationStroop,2021.2.3,Win32,61.0798925,,,,,,,,,,,,,,,,,,,,,,,,,,,,,,,,,10,2.4142,1,0,1,1,24,1,5,×,2,5 × 2,congruent,largerFirst,2,1,10,,,,,,,,
,,,,,,,,,,,,,,,804,2022-01-17_20h25.37.428,multiplicationStroop,2021.2.3,Win32,61.0798925,,,,,,,,,,,,,,,,,,,,,,,,,,,,,,,,,36,1.9311,1,0,2,2,32,1,6,×,6,6 × 6,neutral,tie,2,1,36,,,,,,,,
,,,,,,,,,,,,,,,804,2022-01-17_20h25.37.428,multiplicationStroop,2021.2.3,Win32,61.0798925,,,,,,,,,,,,,,,,,,,,,,,,,,,,,,,,,40,2.6301,1,0,3,3,6,1,5,×,8,5 × 8,congruent,smallerFirst,1,2,40,,,,,,,,
,,,,,,,,,,,,,,,804,2022-01-17_20h25.37.428,multiplicationStroop,2021.2.3,Win32,61.0798925,,,,,,,,,,,,,,,,,,,,,,,,,,,,,,,,,32,1.3506,1,0,4,4,20,1,8,×,4,8 × 4,congruent,largerFirst,2,1,32,,,,,,,,
,,,,,,,,,,,,,,,804,2022-01-17_20h25.37.428,multiplicationStroop,2021.2.3,Win32,61.0798925,,,,,,,,,,,,,,,,,,,,,,,,,,,,,,,,,64,2.4474,1,0,5,5,34,1,8,×,8,8 × 8,neutral,tie,2,1,64,,,,,,,,
,,,,,,,,,,,,,,,804,2022-01-17_20h25.37.428,multiplicationStroop,2021.2.3,Win32,61.0798925,,,,,,,,,,,,,,,,,,,,,,,,,,,,,,,,,36,1.6497,1,0,6,6,0,1,4,×,9,4 × 9,congruent,smallerFirst,1,2,36,,,,,,,,
,,,,,,,,,,,,,,,804,2022-01-17_20h25.37.428,multiplicationStroop,2021.2.3,Win32,61.0798925,,,,,,,,,,,,,,,,,,,,,,,,,,,,,,,,,25,1.4975,1,0,7,7,31,1,5,×,5,5 × 5,neutral,tie,2,1,25,,,,,,,,
,,,,,,,,,,,,,,,804,2022-01-17_20h25.37.428,multiplicationStroop,2021.2.3,Win32,61.0798925,,,,,,,,,,,,,,,,,,,,,,,,,,,,,,,,,56,1.7977,1,0,8,8,8,1,7,×,8,7 × 8,congruent,smallerFirst,1,2,56,,,,,,,,
,,,,,,,,,,,,,,,804,2022-01-17_20h25.37.428,multiplicationStroop,2021.2.3,Win32,61.0798925,,,,,,,,,,,,,,,,,,,,,,,,,,,,,,,,,24,1.4646,1,0,9,9,10,1,3,×,8,3 × 8,congruent,smallerFirst,1,2,24,,,,,,,,
,,,,,,,,,,,,,,,804,2022-01-17_20h25.37.428,multiplicationStroop,2021.2.3,Win32,61.0798925,,,,,,,,,,,,,,,,,,,,,,,,,,,,,,,,,12,1.2981,1,0,10,10,2,1,3,×,4,3 × 4,congruent,smallerFirst,1,2,12,,,,,,,,
,,,,,,,,,,,,,,,804,2022-01-17_20h25.37.428,multiplicationStroop,2021.2.3,Win32,61.0798925,,,,,,,,,,,,,,,,,,,,,,,,,,,,,,,,,63,2.1638,1,0,11,11,21,1,9,×,7,9 × 7,congruent,largerFirst,2,1,63,,,,,,,,
,,,,,,,,,,,,,,,804,2022-01-17_20h25.37.428,multiplicationStroop,2021.2.3,Win32,61.0798925,,,,,,,,,,,,,,,,,,,,,,,,,,,,,,,,,54,3.0473,1,0,12,12,12,1,6,×,9,6 × 9,congruent,smallerFirst,1,2,54,,,,,,,,
,,,,,,,,,,,,,,,804,2022-01-17_20h25.37.428,multiplicationStroop,2021.2.3,Win32,61.0798925,,,,,,,,,,,,,,,,,,,,,,,,,,,,,,,,,27,1.8306,1,0,13,13,26,1,9,×,3,9 × 3,congruent,largerFirst,2,1,27,,,,,,,,
,,,,,,,,,,,,,,,804,2022-01-17_20h25.37.428,multiplicationStroop,2021.2.3,Win32,61.0798925,,,,,,,,,,,,,,,,,,,,,,,,,,,,,,,,,6,1.6309,1,0,14,14,13,1,2,×,3,2 × 3,congruent,smallerFirst,1,2,6,,,,,,,,
,,,,,,,,,,,,,,,804,2022-01-17_20h25.37.428,multiplicationStroop,2021.2.3,Win32,61.0798925,,,,,,,,,,,,,,,,,,,,,,,,,,,,,,,,,20,1.3486,1,0,15,15,7,1,4,×,5,4 × 5,congruent,smallerFirst,1,2,20,,,,,,,,
,,,,,,,,,,,,,,,804,2022-01-17_20h25.37.428,multiplicationStroop,2021.2.3,Win32,61.0798925,,,,,,,,,,,,,,,,,,,,,,,,,,,,,,,,,35,1.4977,1,0,16,16,1,1,5,×,7,5 × 7,congruent,smallerFirst,1,2,35,,,,,,,,
,,,,,,,,,,,,,,,804,2022-01-17_20h25.37.428,multiplicationStroop,2021.2.3,Win32,61.0798925,,,,,,,,,,,,,,,,,,,,,,,,,,,,,,,,,8,2.8308,0,0,17,17,35,1,9,×,9,9 × 9,neutral,tie,2,1,81,,,,,,,,
,,,,,,,,,,,,,,,804,2022-01-17_20h25.37.428,multiplicationStroop,2021.2.3,Win32,61.0798925,,,,,,,,,,,,,,,,,,,,,,,,,,,,,,,,,28,2.3815,1,0,18,18,27,1,7,×,4,7 × 4,congruent,largerFirst,2,1,28,,,,,,,,
,,,,,,,,,,,,,,,804,2022-01-17_20h25.37.428,multiplicationStroop,2021.2.3,Win32,61.0798925,,,,,,,,,,,,,,,,,,,,,,,,,,,,,,,,,16,1.4147,1,0,19,19,30,1,4,×,4,4 × 4,neutral,tie,2,1,16,,,,,,,,
,,,,,,,,,,,,,,,804,2022-01-17_20h25.37.428,multiplicationStroop,2021.2.3,Win32,61.0798925,,,,,,,,,,,,,,,,,,,,,,,,,,,,,,,,,9,1.3816,1,0,20,20,29,1,3,×,3,3 × 3,neutral,tie,2,1,9,,,,,,,,
,,,,,,,,,,,,,,,804,2022-01-17_20h25.37.428,multiplicationStroop,2021.2.3,Win32,61.0798925,,,,,,,,,,,,,,,,,,,,,,,,,,,,,,,,,72,2.3478,1,0,21,21,17,1,9,×,8,9 × 8,congruent,largerFirst,2,1,72,,,,,,,,
,,,,,,,,,,,,,,,804,2022-01-17_20h25.37.428,multiplicationStroop,2021.2.3,Win32,61.0798925,,,,,,,,,,,,,,,,,,,,,,,,,,,,,,,,,19,2.1637,0,0,22,22,11,1,3,×,6,3 × 6,congruent,smallerFirst,1,2,18,,,,,,,,
,,,,,,,,,,,,,,,804,2022-01-17_20h25.37.428,multiplicationStroop,2021.2.3,Win32,61.0798925,,,,,,,,,,,,,,,,,,,,,,,,,,,,,,,,,49,4.3462,1,0,23,23,33,1,7,×,7,7 × 7,neutral,tie,2,1,49,,,,,,,,
,,,,,,,,,,,,,,,804,2022-01-17_20h25.37.428,multiplicationStroop,2021.2.3,Win32,61.0798925,,,,,,,,,,,,,,,,,,,,,,,,,,,,,,,,,24,2.1808,1,0,24,24,25,1,6,×,4,6 × 4,congruent,largerFirst,2,1,24,,,,,,,,
,,,,,,,,,,,,,,,804,2022-01-17_20h25.37.428,multiplicationStroop,2021.2.3,Win32,61.0798925,,,,,,,,,,,,,,,,,,,,,,,,,,,,,,,,,15,1.4649,1,0,25,25,4,1,3,×,5,3 × 5,congruent,smallerFirst,1,2,15,,,,,,,,
,,,,,,,,,,,,,,,804,2022-01-17_20h25.37.428,multiplicationStroop,2021.2.3,Win32,61.0798925,,,,,,,,,,,,,,,,,,,,,,,,,,,,,,,,,18,1.6644,1,0,26,26,22,1,9,×,2,9 × 2,congruent,largerFirst,2,1,18,,,,,,,,
,,,,,,,,,,,,,,,804,2022-01-17_20h25.37.428,multiplicationStroop,2021.2.3,Win32,61.0798925,,,,,,,,,,,,,,,,,,,,,,,,,,,,,,,,,8,2.5975,1,0,27,27,9,1,2,×,4,2 × 4,congruent,smallerFirst,1,2,8,,,,,,,,
,,,,,,,,,,,,,,,804,2022-01-17_20h25.37.428,multiplicationStroop,2021.2.3,Win32,61.0798925,,,,,,,,,,,,,,,,,,,,,,,,,,,,,,,,,42,1.6663,1,0,28,28,3,1,6,×,7,6 × 7,congruent,smallerFirst,1,2,42,,,,,,,,
,,,,,,,,,,,,,,,804,2022-01-17_20h25.37.428,multiplicationStroop,2021.2.3,Win32,61.0798925,,,,,,,,,,,,,,,,,,,,,,,,,,,,,,,,,48,1.7403,1,0,29,29,18,1,8,×,6,8 × 6,congruent,largerFirst,2,1,48,,,,,,,,
,,,,,,,,,,,,,,,804,2022-01-17_20h25.37.428,multiplicationStroop,2021.2.3,Win32,61.0798925,,,,,,,,,,,,,,,,,,,,,,,,,,,,,,,,,30,1.5234,1,0,30,30,15,1,6,×,5,6 × 5,congruent,largerFirst,2,1,30,,,,,,,,
,,,,,,,,,,,,,,,804,2022-01-17_20h25.37.428,multiplicationStroop,2021.2.3,Win32,61.0798925,,,,,,,,,,,,,,,,,,,,,,,,,,,,,,,,,16,1.5474,1,0,31,31,5,1,2,×,8,2 × 8,congruent,smallerFirst,1,2,16,,,,,,,,
,,,,,,,,,,,,,,,804,2022-01-17_20h25.37.428,multiplicationStroop,2021.2.3,Win32,61.0798925,,,,,,,,,,,,,,,,,,,,,,,,,,,,,,,,,4,1.3638,1,0,32,32,28,1,2,×,2,2 × 2,neutral,tie,2,1,4,,,,,,,,
,,,,,,,,,,,,,,,804,2022-01-17_20h25.37.428,multiplicationStroop,2021.2.3,Win32,61.0798925,,,,,,,,,,,,,,,,,,,,,,,,,,,,,,,,,45,1.5812,1,0,33,33,23,1,9,×,5,9 × 5,congruent,largerFirst,2,1,45,,,,,,,,
,,,,,,,,,,,,,,,804,2022-01-17_20h25.37.428,multiplicationStroop,2021.2.3,Win32,61.0798925,,,,,,,,,,,,,,,,,,,,,,,,,,,,,,,,,14,1.2974,1,0,34,34,14,1,7,×,2,7 × 2,congruent,largerFirst,2,1,14,,,,,,,,
,,,,,,,,,,,,,,,804,2022-01-17_20h25.37.428,multiplicationStroop,2021.2.3,Win32,61.0798925,,,,,,,,,,,,,,,,,,,,,,,,,,,,,,,,,12,1.198,1,0,35,35,19,1,6,×,2,6 × 2,congruent,largerFirst,2,1,12,,,,,,,,
,,,,,,,,,,,,,,,804,2022-01-17_20h25.37.428,multiplicationStroop,2021.2.3,Win32,61.0798925,,,,,,,,,,,,,,,,,,,,,,,,,,,,,,,,,,,,,,,,,,,,,,,,,,0,5,5,2,1,stimulusFile/mult_blk3_congruent.xlsx,,
,,,,,,,,,,,,,,,804,2022-01-17_20h25.37.428,multiplicationStroop,2021.2.3,Win32,61.0798925,,,,,,,,,,,,,,,,,,,,,,,,,,,,,,,,,,,,,,,,,,,,,,,,,,,,,,,,space,7.5152