welcomeKey_resp.keys,welcomeKey_resp.rt,X Scale,Y Scale,rt_resp_4.keys,rt_resp_4.corr,rt_resp_4.rt,speedtest_2.thisRepN,speedtest_2.thisTrialN,speedtest_2.thisN,speedtest_2.thisIndex,speedtest_2.ran,numberSc,posX,positionLayout,participant,date,expName,psychopyVersion,OS,frameRate,ct_instrresp.keys,ct_instrresp.rt,key_resp_2.keys,key_resp_2.rt,ct_keyResp.keys,ct_keyResp.corr,ct_keyResp.rt,trials.thisRepN,trials.thisTrialN,trials.thisN,trials.thisIndex,trials.ran,leftNo,rightNo,displayProblem,numDistance,leftNo_size,rightNo_size,Dims,keyAnswer,TS_Loop.thisRepN,TS_Loop.thisTrialN,TS_Loop.thisN,TS_Loop.thisIndex,TS_Loop.ran,Condition,ActionInst,instrImage,mltptaskInst_resp.keys,mltptaskInst_resp.rt,continue_resp_2.keys,continue_resp_2.rt,multp_Answer,multi_RT,multiplyCorr,LoopingMultiply.thisRepN,LoopingMultiply.thisTrialN,LoopingMultiply.thisN,LoopingMultiply.thisIndex,LoopingMultiply.ran,factor1,multiplySign,factor2,multliplyProblem,physicalSize,orderOperand,sizeF1,sizeF2,mult_answer,trials_stroop.thisRepN,trials_stroop.thisTrialN,trials_stroop.thisN,trials_stroop.thisIndex,trials_stroop.ran,multiplicationFile,esckey_resp_2.keys,esckey_resp_2.rt
y,7.535,44.7,44.7,right,1,0.7537,0,0,0,9,1,2,200,right,805,2022-01-21_09h03.20.238,multiplicationStroop,2021.2.3,Win32,60.27000964,,,,,,,,,,,,,,,,,,,,,,,,,,,,,,,,,,,,,,,,,,,,,,,,,,,,,,,,,
,,,,right,1,0.6444,0,1,1,14,1,8,200,right,805,2022-01-21_09h03.20.238,multiplicationStroop,2021.2.3,Win32,60.27000964,,,,,,,,,,,,,,,,,,,,,,,,,,,,,,,,,,,,,,,,,,,,,,,,,,,,,,,,,
,,,,left,1,0.5059,0,2,2,0,1,1,-200,left,805,2022-01-21_09h03.20.238,multiplicationStroop,2021.2.3,Win32,60.27000964,,,,,,,,,,,,,,,,,,,,,,,,,,,,,,,,,,,,,,,,,,,,,,,,,,,,,,,,,
,,,,left,1,0.4156,0,3,3,1,1,2,-200,left,805,2022-01-21_09h03.20.238,multiplicationStroop,2021.2.3,Win32,60.27000964,,,,,,,,,,,,,,,,,,,,,,,,,,,,,,,,,,,,,,,,,,,,,,,,,,,,,,,,,
,,,,right,1,0.4458,0,4,4,8,1,1,200,right,805,2022-01-21_09h03.20.238,multiplicationStroop,2021.2.3,Win32,60.27000964,,,,,,,,,,,,,,,,,,,,,,,,,,,,,,,,,,,,,,,,,,,,,,,,,,,,,,,,,
,,,,left,1,0.3624,0,5,5,6,1,8,-200,left,805,2022-01-21_09h03.20.238,multiplicationStroop,2021.2.3,Win32,60.27000964,,,,,,,,,,,,,,,,,,,,,,,,,,,,,,,,,,,,,,,,,,,,,,,,,,,,,,,,,
,,,,right,1,0.3786,0,6,6,15,1,9,200,right,805,2022-01-21_09h03.20.238,multiplicationStroop,2021.2.3,Win32,60.27000964,,,,,,,,,,,,,,,,,,,,,,,,,,,,,,,,,,,,,,,,,,,,,,,,,,,,,,,,,
,,,,left,1,0.3608,0,7,7,5,1,7,-200,left,805,2022-01-21_09h03.20.238,multiplicationStroop,2021.2.3,Win32,60.27000964,,,,,,,,,,,,,,,,,,,,,,,,,,,,,,,,,,,,,,,,,,,,,,,,,,,,,,,,,
,,,,right,1,0.3967,0,8,8,11,1,4,200,right,805,2022-01-21_09h03.20.238,multiplicationStroop,2021.2.3,Win32,60.27000964,,,,,,,,,,,,,,,,,,,,,,,,,,,,,,,,,,,,,,,,,,,,,,,,,,,,,,,,,
,,,,right,1,0.4114,0,9,9,10,1,3,200,right,805,2022-01-21_09h03.20.238,multiplicationStroop,2021.2.3,Win32,60.27000964,,,,,,,,,,,,,,,,,,,,,,,,,,,,,,,,,,,,,,,,,,,,,,,,,,,,,,,,,
,,,,right,1,0.3501,0,10,10,13,1,7,200,right,805,2022-01-21_09h03.20.238,multiplicationStroop,2021.2.3,Win32,60.27000964,,,,,,,,,,,,,,,,,,,,,,,,,,,,,,,,,,,,,,,,,,,,,,,,,,,,,,,,,
,,,,left,1,0.4001,0,11,11,2,1,3,-200,left,805,2022-01-21_09h03.20.238,multiplicationStroop,2021.2.3,Win32,60.27000964,,,,,,,,,,,,,,,,,,,,,,,,,,,,,,,,,,,,,,,,,,,,,,,,,,,,,,,,,
,,,,left,1,0.4647,0,12,12,7,1,9,-200,left,805,2022-01-21_09h03.20.238,multiplicationStroop,2021.2.3,Win32,60.27000964,,,,,,,,,,,,,,,,,,,,,,,,,,,,,,,,,,,,,,,,,,,,,,,,,,,,,,,,,
,,,,left,1,0.4445,0,13,13,4,1,6,-200,left,805,2022-01-21_09h03.20.238,multiplicationStroop,2021.2.3,Win32,60.27000964,,,,,,,,,,,,,,,,,,,,,,,,,,,,,,,,,,,,,,,,,,,,,,,,,,,,,,,,,
,,,,right,1,0.4408,0,14,14,12,1,6,200,right,805,2022-01-21_09h03.20.238,multiplicationStroop,2021.2.3,Win32,60.27000964,,,,,,,,,,,,,,,,,,,,,,,,,,,,,,,,,,,,,,,,,,,,,,,,,,,,,,,,,
,,,,left,1,0.4431,0,15,15,3,1,4,-200,left,805,2022-01-21_09h03.20.238,multiplicationStroop,2021.2.3,Win32,60.27000964,,,,,,,,,,,,,,,,,,,,,,,,,,,,,,,,,,,,,,,,,,,,,,,,,,,,,,,,,
,,,,left,1,0.4355,1,0,16,5,1,7,-200,left,805,2022-01-21_09h03.20.238,multiplicationStroop,2021.2.3,Win32,60.27000964,,,,,,,,,,,,,,,,,,,,,,,,,,,,,,,,,,,,,,,,,,,,,,,,,,,,,,,,,
,,,,right,1,0.4307,1,1,17,10,1,3,200,right,805,2022-01-21_09h03.20.238,multiplicationStroop,2021.2.3,Win32,60.27000964,,,,,,,,,,,,,,,,,,,,,,,,,,,,,,,,,,,,,,,,,,,,,,,,,,,,,,,,,
,,,,left,1,0.3788,1,2,18,1,1,2,-200,left,805,2022-01-21_09h03.20.238,multiplicationStroop,2021.2.3,Win32,60.27000964,,,,,,,,,,,,,,,,,,,,,,,,,,,,,,,,,,,,,,,,,,,,,,,,,,,,,,,,,
,,,,right,1,0.3966,1,3,19,14,1,8,200,right,805,2022-01-21_09h03.20.238,multiplicationStroop,2021.2.3,Win32,60.27000964,,,,,,,,,,,,,,,,,,,,,,,,,,,,,,,,,,,,,,,,,,,,,,,,,,,,,,,,,
,,,,left,1,0.3337,1,4,20,7,1,9,-200,left,805,2022-01-21_09h03.20.238,multiplicationStroop,2021.2.3,Win32,60.27000964,,,,,,,,,,,,,,,,,,,,,,,,,,,,,,,,,,,,,,,,,,,,,,,,,,,,,,,,,
,,,,right,1,0.3796,1,5,21,8,1,1,200,right,805,2022-01-21_09h03.20.238,multiplicationStroop,2021.2.3,Win32,60.27000964,,,,,,,,,,,,,,,,,,,,,,,,,,,,,,,,,,,,,,,,,,,,,,,,,,,,,,,,,
,,,,right,1,0.4677,1,6,22,15,1,9,200,right,805,2022-01-21_09h03.20.238,multiplicationStroop,2021.2.3,Win32,60.27000964,,,,,,,,,,,,,,,,,,,,,,,,,,,,,,,,,,,,,,,,,,,,,,,,,,,,,,,,,
,,,,right,1,0.3323,1,7,23,13,1,7,200,right,805,2022-01-21_09h03.20.238,multiplicationStroop,2021.2.3,Win32,60.27000964,,,,,,,,,,,,,,,,,,,,,,,,,,,,,,,,,,,,,,,,,,,,,,,,,,,,,,,,,
,,,,right,1,0.3181,1,8,24,9,1,2,200,right,805,2022-01-21_09h03.20.238,multiplicationStroop,2021.2.3,Win32,60.27000964,,,,,,,,,,,,,,,,,,,,,,,,,,,,,,,,,,,,,,,,,,,,,,,,,,,,,,,,,
,,,,left,1,0.3965,1,9,25,0,1,1,-200,left,805,2022-01-21_09h03.20.238,multiplicationStroop,2021.2.3,Win32,60.27000964,,,,,,,,,,,,,,,,,,,,,,,,,,,,,,,,,,,,,,,,,,,,,,,,,,,,,,,,,
,,,,right,1,0.368,1,10,26,11,1,4,200,right,805,2022-01-21_09h03.20.238,multiplicationStroop,2021.2.3,Win32,60.27000964,,,,,,,,,,,,,,,,,,,,,,,,,,,,,,,,,,,,,,,,,,,,,,,,,,,,,,,,,
,,,,left,1,0.3823,1,11,27,3,1,4,-200,left,805,2022-01-21_09h03.20.238,multiplicationStroop,2021.2.3,Win32,60.27000964,,,,,,,,,,,,,,,,,,,,,,,,,,,,,,,,,,,,,,,,,,,,,,,,,,,,,,,,,
,,,,left,1,0.5002,1,12,28,4,1,6,-200,left,805,2022-01-21_09h03.20.238,multiplicationStroop,2021.2.3,Win32,60.27000964,,,,,,,,,,,,,,,,,,,,,,,,,,,,,,,,,,,,,,,,,,,,,,,,,,,,,,,,,
,,,,right,1,0.4178,1,13,29,12,1,6,200,right,805,2022-01-21_09h03.20.238,multiplicationStroop,2021.2.3,Win32,60.27000964,,,,,,,,,,,,,,,,,,,,,,,,,,,,,,,,,,,,,,,,,,,,,,,,,,,,,,,,,
,,,,left,1,0.3462,1,14,30,2,1,3,-200,left,805,2022-01-21_09h03.20.238,multiplicationStroop,2021.2.3,Win32,60.27000964,,,,,,,,,,,,,,,,,,,,,,,,,,,,,,,,,,,,,,,,,,,,,,,,,,,,,,,,,
,,,,left,1,0.404,1,15,31,6,1,8,-200,left,805,2022-01-21_09h03.20.238,multiplicationStroop,2021.2.3,Win32,60.27000964,,,,,,,,,,,,,,,,,,,,,,,,,,,,,,,,,,,,,,,,,,,,,,,,,,,,,,,,,
,,,,left,1,0.3928,2,0,32,6,1,8,-200,left,805,2022-01-21_09h03.20.238,multiplicationStroop,2021.2.3,Win32,60.27000964,,,,,,,,,,,,,,,,,,,,,,,,,,,,,,,,,,,,,,,,,,,,,,,,,,,,,,,,,
,,,,right,1,0.4776,2,1,33,15,1,9,200,right,805,2022-01-21_09h03.20.238,multiplicationStroop,2021.2.3,Win32,60.27000964,,,,,,,,,,,,,,,,,,,,,,,,,,,,,,,,,,,,,,,,,,,,,,,,,,,,,,,,,
,,,,right,1,0.4159,2,2,34,10,1,3,200,right,805,2022-01-21_09h03.20.238,multiplicationStroop,2021.2.3,Win32,60.27000964,,,,,,,,,,,,,,,,,,,,,,,,,,,,,,,,,,,,,,,,,,,,,,,,,,,,,,,,,
,,,,left,1,0.3831,2,3,35,4,1,6,-200,left,805,2022-01-21_09h03.20.238,multiplicationStroop,2021.2.3,Win32,60.27000964,,,,,,,,,,,,,,,,,,,,,,,,,,,,,,,,,,,,,,,,,,,,,,,,,,,,,,,,,
,,,,left,0,0.3549,2,4,36,12,1,6,200,right,805,2022-01-21_09h03.20.238,multiplicationStroop,2021.2.3,Win32,60.27000964,,,,,,,,,,,,,,,,,,,,,,,,,,,,,,,,,,,,,,,,,,,,,,,,,,,,,,,,,
,,,,left,1,0.87,2,5,37,7,1,9,-200,left,805,2022-01-21_09h03.20.238,multiplicationStroop,2021.2.3,Win32,60.27000964,,,,,,,,,,,,,,,,,,,,,,,,,,,,,,,,,,,,,,,,,,,,,,,,,,,,,,,,,
,,,,left,1,0.4126,2,6,38,0,1,1,-200,left,805,2022-01-21_09h03.20.238,multiplicationStroop,2021.2.3,Win32,60.27000964,,,,,,,,,,,,,,,,,,,,,,,,,,,,,,,,,,,,,,,,,,,,,,,,,,,,,,,,,
,,,,right,1,0.4557,2,7,39,9,1,2,200,right,805,2022-01-21_09h03.20.238,multiplicationStroop,2021.2.3,Win32,60.27000964,,,,,,,,,,,,,,,,,,,,,,,,,,,,,,,,,,,,,,,,,,,,,,,,,,,,,,,,,
,,,,left,1,0.4467,2,8,40,1,1,2,-200,left,805,2022-01-21_09h03.20.238,multiplicationStroop,2021.2.3,Win32,60.27000964,,,,,,,,,,,,,,,,,,,,,,,,,,,,,,,,,,,,,,,,,,,,,,,,,,,,,,,,,
,,,,right,1,0.3448,2,9,41,14,1,8,200,right,805,2022-01-21_09h03.20.238,multiplicationStroop,2021.2.3,Win32,60.27000964,,,,,,,,,,,,,,,,,,,,,,,,,,,,,,,,,,,,,,,,,,,,,,,,,,,,,,,,,
,,,,right,1,0.5027,2,10,42,11,1,4,200,right,805,2022-01-21_09h03.20.238,multiplicationStroop,2021.2.3,Win32,60.27000964,,,,,,,,,,,,,,,,,,,,,,,,,,,,,,,,,,,,,,,,,,,,,,,,,,,,,,,,,
,,,,right,1,0.384,2,11,43,8,1,1,200,right,805,2022-01-21_09h03.20.238,multiplicationStroop,2021.2.3,Win32,60.27000964,,,,,,,,,,,,,,,,,,,,,,,,,,,,,,,,,,,,,,,,,,,,,,,,,,,,,,,,,
,,,,left,1,0.4026,2,12,44,5,1,7,-200,left,805,2022-01-21_09h03.20.238,multiplicationStroop,2021.2.3,Win32,60.27000964,,,,,,,,,,,,,,,,,,,,,,,,,,,,,,,,,,,,,,,,,,,,,,,,,,,,,,,,,
,,,,right,1,0.3648,2,13,45,13,1,7,200,right,805,2022-01-21_09h03.20.238,multiplicationStroop,2021.2.3,Win32,60.27000964,,,,,,,,,,,,,,,,,,,,,,,,,,,,,,,,,,,,,,,,,,,,,,,,,,,,,,,,,
,,,,left,1,0.3625,2,14,46,2,1,3,-200,left,805,2022-01-21_09h03.20.238,multiplicationStroop,2021.2.3,Win32,60.27000964,,,,,,,,,,,,,,,,,,,,,,,,,,,,,,,,,,,,,,,,,,,,,,,,,,,,,,,,,
,,,,left,1,0.4616,2,15,47,3,1,4,-200,left,805,2022-01-21_09h03.20.238,multiplicationStroop,2021.2.3,Win32,60.27000964,,,,,,,,,,,,,,,,,,,,,,,,,,,,,,,,,,,,,,,,,,,,,,,,,,,,,,,,,
,,,,right,1,0.4075,3,0,48,12,1,6,200,right,805,2022-01-21_09h03.20.238,multiplicationStroop,2021.2.3,Win32,60.27000964,,,,,,,,,,,,,,,,,,,,,,,,,,,,,,,,,,,,,,,,,,,,,,,,,,,,,,,,,
,,,,left,1,0.411,3,1,49,1,1,2,-200,left,805,2022-01-21_09h03.20.238,multiplicationStroop,2021.2.3,Win32,60.27000964,,,,,,,,,,,,,,,,,,,,,,,,,,,,,,,,,,,,,,,,,,,,,,,,,,,,,,,,,
,,,,right,1,0.4022,3,2,50,8,1,1,200,right,805,2022-01-21_09h03.20.238,multiplicationStroop,2021.2.3,Win32,60.27000964,,,,,,,,,,,,,,,,,,,,,,,,,,,,,,,,,,,,,,,,,,,,,,,,,,,,,,,,,
,,,,left,1,0.4177,3,3,51,4,1,6,-200,left,805,2022-01-21_09h03.20.238,multiplicationStroop,2021.2.3,Win32,60.27000964,,,,,,,,,,,,,,,,,,,,,,,,,,,,,,,,,,,,,,,,,,,,,,,,,,,,,,,,,
,,,,left,1,0.4824,3,4,52,3,1,4,-200,left,805,2022-01-21_09h03.20.238,multiplicationStroop,2021.2.3,Win32,60.27000964,,,,,,,,,,,,,,,,,,,,,,,,,,,,,,,,,,,,,,,,,,,,,,,,,,,,,,,,,
,,,,right,1,0.3687,3,5,53,11,1,4,200,right,805,2022-01-21_09h03.20.238,multiplicationStroop,2021.2.3,Win32,60.27000964,,,,,,,,,,,,,,,,,,,,,,,,,,,,,,,,,,,,,,,,,,,,,,,,,,,,,,,,,
,,,,left,1,0.3933,3,6,54,0,1,1,-200,left,805,2022-01-21_09h03.20.238,multiplicationStroop,2021.2.3,Win32,60.27000964,,,,,,,,,,,,,,,,,,,,,,,,,,,,,,,,,,,,,,,,,,,,,,,,,,,,,,,,,
,,,,right,1,0.3294,3,7,55,14,1,8,200,right,805,2022-01-21_09h03.20.238,multiplicationStroop,2021.2.3,Win32,60.27000964,,,,,,,,,,,,,,,,,,,,,,,,,,,,,,,,,,,,,,,,,,,,,,,,,,,,,,,,,
,,,,left,1,0.3886,3,8,56,5,1,7,-200,left,805,2022-01-21_09h03.20.238,multiplicationStroop,2021.2.3,Win32,60.27000964,,,,,,,,,,,,,,,,,,,,,,,,,,,,,,,,,,,,,,,,,,,,,,,,,,,,,,,,,
,,,,left,1,0.4513,3,9,57,2,1,3,-200,left,805,2022-01-21_09h03.20.238,multiplicationStroop,2021.2.3,Win32,60.27000964,,,,,,,,,,,,,,,,,,,,,,,,,,,,,,,,,,,,,,,,,,,,,,,,,,,,,,,,,
,,,,left,1,0.3383,3,10,58,6,1,8,-200,left,805,2022-01-21_09h03.20.238,multiplicationStroop,2021.2.3,Win32,60.27000964,,,,,,,,,,,,,,,,,,,,,,,,,,,,,,,,,,,,,,,,,,,,,,,,,,,,,,,,,
,,,,right,1,0.4008,3,11,59,15,1,9,200,right,805,2022-01-21_09h03.20.238,multiplicationStroop,2021.2.3,Win32,60.27000964,,,,,,,,,,,,,,,,,,,,,,,,,,,,,,,,,,,,,,,,,,,,,,,,,,,,,,,,,
,,,,right,1,0.3992,3,12,60,13,1,7,200,right,805,2022-01-21_09h03.20.238,multiplicationStroop,2021.2.3,Win32,60.27000964,,,,,,,,,,,,,,,,,,,,,,,,,,,,,,,,,,,,,,,,,,,,,,,,,,,,,,,,,
,,,,right,1,0.395,3,13,61,9,1,2,200,right,805,2022-01-21_09h03.20.238,multiplicationStroop,2021.2.3,Win32,60.27000964,,,,,,,,,,,,,,,,,,,,,,,,,,,,,,,,,,,,,,,,,,,,,,,,,,,,,,,,,
,,,,left,1,0.3974,3,14,62,7,1,9,-200,left,805,2022-01-21_09h03.20.238,multiplicationStroop,2021.2.3,Win32,60.27000964,,,,,,,,,,,,,,,,,,,,,,,,,,,,,,,,,,,,,,,,,,,,,,,,,,,,,,,,,
,,,,right,1,0.3693,3,15,63,10,1,3,200,right,805,2022-01-21_09h03.20.238,multiplicationStroop,2021.2.3,Win32,60.27000964,,,,,,,,,,,,,,,,,,,,,,,,,,,,,,,,,,,,,,,,,,,,,,,,,,,,,,,,,
,,,,,,,,,,,,,,,805,2022-01-21_09h03.20.238,multiplicationStroop,2021.2.3,Win32,60.27000964,space,17.643,space,21.1353,right,1,1.097,0,0,0,26,1,6,7,6 | 7,1,1.9756,1.4111,incongruent,right,,,,,,stimulusFile/magnitude.xlsx,,,,,,,,,,,,,,,,,,,,,,,,,,,,,,,
,,,,,,,,,,,,,,,805,2022-01-21_09h03.20.238,multiplicationStroop,2021.2.3,Win32,60.27000964,,,,,right,1,0.6479,0,1,1,16,1,1,6,1 | 6,5,1.4111,1.9756,congruent,right,,,,,,stimulusFile/magnitude.xlsx,,,,,,,,,,,,,,,,,,,,,,,,,,,,,,,
,,,,,,,,,,,,,,,805,2022-01-21_09h03.20.238,multiplicationStroop,2021.2.3,Win32,60.27000964,,,,,right,1,1.0112,0,2,2,35,1,7,9,7 | 9,2,1.9756,1.4111,incongruent,right,,,,,,stimulusFile/magnitude.xlsx,,,,,,,,,,,,,,,,,,,,,,,,,,,,,,,
,,,,,,,,,,,,,,,805,2022-01-21_09h03.20.238,multiplicationStroop,2021.2.3,Win32,60.27000964,,,,,right,1,0.8444,0,3,3,25,1,3,4,3 | 4,1,1.9756,1.4111,incongruent,right,,,,,,stimulusFile/magnitude.xlsx,,,,,,,,,,,,,,,,,,,,,,,,,,,,,,,
,,,,,,,,,,,,,,,805,2022-01-21_09h03.20.238,multiplicationStroop,2021.2.3,Win32,60.27000964,,,,,right,1,0.6205,0,4,4,65,1,2,7,2 | 7,5,1.6933,1.6933,neutral,right,,,,,,stimulusFile/magnitude.xlsx,,,,,,,,,,,,,,,,,,,,,,,,,,,,,,,
,,,,,,,,,,,,,,,805,2022-01-21_09h03.20.238,multiplicationStroop,2021.2.3,Win32,60.27000964,,,,,right,1,0.6137,0,5,5,9,1,2,4,2 | 4,2,1.4111,1.9756,congruent,right,,,,,,stimulusFile/magnitude.xlsx,,,,,,,,,,,,,,,,,,,,,,,,,,,,,,,
,,,,,,,,,,,,,,,805,2022-01-21_09h03.20.238,multiplicationStroop,2021.2.3,Win32,60.27000964,,,,,left,1,0.7774,0,6,6,37,1,4,2,4 | 2,2,1.4111,1.9756,incongruent,left,,,,,,stimulusFile/magnitude.xlsx,,,,,,,,,,,,,,,,,,,,,,,,,,,,,,,
,,,,,,,,,,,,,,,805,2022-01-21_09h03.20.238,multiplicationStroop,2021.2.3,Win32,60.27000964,,,,,left,1,0.5953,0,7,7,21,1,7,2,7 | 2,5,1.9756,1.4111,congruent,left,,,,,,stimulusFile/magnitude.xlsx,,,,,,,,,,,,,,,,,,,,,,,,,,,,,,,
,,,,,,,,,,,,,,,805,2022-01-21_09h03.20.238,multiplicationStroop,2021.2.3,Win32,60.27000964,,,,,right,1,0.6667,0,8,8,67,1,4,9,4 | 9,5,1.6933,1.6933,neutral,right,,,,,,stimulusFile/magnitude.xlsx,,,,,,,,,,,,,,,,,,,,,,,,,,,,,,,
,,,,,,,,,,,,,,,805,2022-01-21_09h03.20.238,multiplicationStroop,2021.2.3,Win32,60.27000964,,,,,right,1,0.6764,0,9,9,2,1,6,7,6 | 7,1,1.4111,1.9756,congruent,right,,,,,,stimulusFile/magnitude.xlsx,,,,,,,,,,,,,,,,,,,,,,,,,,,,,,,
,,,,,,,,,,,,,,,805,2022-01-21_09h03.20.238,multiplicationStroop,2021.2.3,Win32,60.27000964,,,,,right,1,0.8621,0,10,10,34,1,6,8,6 | 8,2,1.9756,1.4111,incongruent,right,,,,,,stimulusFile/magnitude.xlsx,,,,,,,,,,,,,,,,,,,,,,,,,,,,,,,
,,,,,,,,,,,,,,,805,2022-01-21_09h03.20.238,multiplicationStroop,2021.2.3,Win32,60.27000964,,,,,right,1,0.7813,0,11,11,18,1,3,8,3 | 8,5,1.4111,1.9756,congruent,right,,,,,,stimulusFile/magnitude.xlsx,,,,,,,,,,,,,,,,,,,,,,,,,,,,,,,
,,,,,,,,,,,,,,,805,2022-01-21_09h03.20.238,multiplicationStroop,2021.2.3,Win32,60.27000964,,,,,right,1,0.6648,0,12,12,42,1,3,8,3 | 8,5,1.9756,1.4111,incongruent,right,,,,,,stimulusFile/magnitude.xlsx,,,,,,,,,,,,,,,,,,,,,,,,,,,,,,,
,,,,,,,,,,,,,,,805,2022-01-21_09h03.20.238,multiplicationStroop,2021.2.3,Win32,60.27000964,,,,,right,1,0.6006,0,13,13,59,1,7,9,7 | 9,2,1.6933,1.6933,neutral,right,,,,,,stimulusFile/magnitude.xlsx,,,,,,,,,,,,,,,,,,,,,,,,,,,,,,,
,,,,,,,,,,,,,,,805,2022-01-21_09h03.20.238,multiplicationStroop,2021.2.3,Win32,60.27000964,,,,,right,1,0.5314,0,14,14,8,1,1,3,1 | 3,2,1.4111,1.9756,congruent,right,,,,,,stimulusFile/magnitude.xlsx,,,,,,,,,,,,,,,,,,,,,,,,,,,,,,,
,,,,,,,,,,,,,,,805,2022-01-21_09h03.20.238,multiplicationStroop,2021.2.3,Win32,60.27000964,,,,,left,1,0.7123,0,15,15,5,1,4,3,4 | 3,1,1.9756,1.4111,congruent,left,,,,,,stimulusFile/magnitude.xlsx,,,,,,,,,,,,,,,,,,,,,,,,,,,,,,,
,,,,,,,,,,,,,,,805,2022-01-21_09h03.20.238,multiplicationStroop,2021.2.3,Win32,60.27000964,,,,,right,1,0.6184,0,16,16,10,1,6,8,6 | 8,2,1.4111,1.9756,congruent,right,,,,,,stimulusFile/magnitude.xlsx,,,,,,,,,,,,,,,,,,,,,,,,,,,,,,,
,,,,,,,,,,,,,,,805,2022-01-21_09h03.20.238,multiplicationStroop,2021.2.3,Win32,60.27000964,,,,,left,1,0.9536,0,17,17,31,1,9,8,9 | 8,1,1.4111,1.9756,incongruent,left,,,,,,stimulusFile/magnitude.xlsx,,,,,,,,,,,,,,,,,,,,,,,,,,,,,,,
,,,,,,,,,,,,,,,805,2022-01-21_09h03.20.238,multiplicationStroop,2021.2.3,Win32,60.27000964,,,,,left,1,0.9888,0,18,18,39,1,9,7,9 | 7,2,1.4111,1.9756,incongruent,left,,,,,,stimulusFile/magnitude.xlsx,,,,,,,,,,,,,,,,,,,,,,,,,,,,,,,
,,,,,,,,,,,,,,,805,2022-01-21_09h03.20.238,multiplicationStroop,2021.2.3,Win32,60.27000964,,,,,left,1,0.7057,0,19,19,61,1,4,2,4 | 2,2,1.6933,1.6933,neutral,left,,,,,,stimulusFile/magnitude.xlsx,,,,,,,,,,,,,,,,,,,,,,,,,,,,,,,
,,,,,,,,,,,,,,,805,2022-01-21_09h03.20.238,multiplicationStroop,2021.2.3,Win32,60.27000964,,,,,left,1,0.6909,0,20,20,36,1,3,1,3 | 1,2,1.4111,1.9756,incongruent,left,,,,,,stimulusFile/magnitude.xlsx,,,,,,,,,,,,,,,,,,,,,,,,,,,,,,,
,,,,,,,,,,,,,,,805,2022-01-21_09h03.20.238,multiplicationStroop,2021.2.3,Win32,60.27000964,,,,,left,1,0.6157,0,21,21,20,1,6,1,6 | 1,5,1.9756,1.4111,congruent,left,,,,,,stimulusFile/magnitude.xlsx,,,,,,,,,,,,,,,,,,,,,,,,,,,,,,,
,,,,,,,,,,,,,,,805,2022-01-21_09h03.20.238,multiplicationStroop,2021.2.3,Win32,60.27000964,,,,,right,1,0.7363,0,22,22,48,1,1,2,1 | 2,1,1.6933,1.6933,neutral,right,,,,,,stimulusFile/magnitude.xlsx,,,,,,,,,,,,,,,,,,,,,,,,,,,,,,,
,,,,,,,,,,,,,,,805,2022-01-21_09h03.20.238,multiplicationStroop,2021.2.3,Win32,60.27000964,,,,,left,1,0.5309,0,23,23,12,1,3,1,3 | 1,2,1.9756,1.4111,congruent,left,,,,,,stimulusFile/magnitude.xlsx,,,,,,,,,,,,,,,,,,,,,,,,,,,,,,,
,,,,,,,,,,,,,,,805,2022-01-21_09h03.20.238,multiplicationStroop,2021.2.3,Win32,60.27000964,,,,,left,1,0.7164,0,24,24,53,1,4,3,4 | 3,1,1.6933,1.6933,neutral,left,,,,,,stimulusFile/magnitude.xlsx,,,,,,,,,,,,,,,,,,,,,,,,,,,,,,,
,,,,,,,,,,,,,,,805,2022-01-21_09h03.20.238,multiplicationStroop,2021.2.3,Win32,60.27000964,,,,,left,1,0.649,0,25,25,71,1,9,4,9 | 4,5,1.6933,1.6933,neutral,left,,,,,,stimulusFile/magnitude.xlsx,,,,,,,,,,,,,,,,,,,,,,,,,,,,,,,
,,,,,,,,,,,,,,,805,2022-01-21_09h03.20.238,multiplicationStroop,2021.2.3,Win32,60.27000964,,,,,left,1,0.7519,0,26,26,69,1,7,2,7 | 2,5,1.6933,1.6933,neutral,left,,,,,,stimulusFile/magnitude.xlsx,,,,,,,,,,,,,,,,,,,,,,,,,,,,,,,
,,,,,,,,,,,,,,,805,2022-01-21_09h03.20.238,multiplicationStroop,2021.2.3,Win32,60.27000964,,,,,left,1,0.6003,0,27,27,70,1,8,3,8 | 3,5,1.6933,1.6933,neutral,left,,,,,,stimulusFile/magnitude.xlsx,,,,,,,,,,,,,,,,,,,,,,,,,,,,,,,
,,,,,,,,,,,,,,,805,2022-01-21_09h03.20.238,multiplicationStroop,2021.2.3,Win32,60.27000964,,,,,left,1,0.7138,0,28,28,7,1,9,8,9 | 8,1,1.9756,1.4111,congruent,left,,,,,,stimulusFile/magnitude.xlsx,,,,,,,,,,,,,,,,,,,,,,,,,,,,,,,
,,,,,,,,,,,,,,,805,2022-01-21_09h03.20.238,multiplicationStroop,2021.2.3,Win32,60.27000964,,,,,left,1,0.861,0,29,29,28,1,2,1,2 | 1,1,1.4111,1.9756,incongruent,left,,,,,,stimulusFile/magnitude.xlsx,,,,,,,,,,,,,,,,,,,,,,,,,,,,,,,
,,,,,,,,,,,,,,,805,2022-01-21_09h03.20.238,multiplicationStroop,2021.2.3,Win32,60.27000964,,,,,right,1,0.7615,0,30,30,49,1,3,4,3 | 4,1,1.6933,1.6933,neutral,right,,,,,,stimulusFile/magnitude.xlsx,,,,,,,,,,,,,,,,,,,,,,,,,,,,,,,
,,,,,,,,,,,,,,,805,2022-01-21_09h03.20.238,multiplicationStroop,2021.2.3,Win32,60.27000964,,,,,right,1,0.6131,0,31,31,40,1,1,6,1 | 6,5,1.9756,1.4111,incongruent,right,,,,,,stimulusFile/magnitude.xlsx,,,,,,,,,,,,,,,,,,,,,,,,,,,,,,,
,,,,,,,,,,,,,,,805,2022-01-21_09h03.20.238,multiplicationStroop,2021.2.3,Win32,60.27000964,,,,,right,1,0.6141,0,32,32,41,1,2,7,2 | 7,5,1.9756,1.4111,incongruent,right,,,,,,stimulusFile/magnitude.xlsx,,,,,,,,,,,,,,,,,,,,,,,,,,,,,,,
,,,,,,,,,,,,,,,805,2022-01-21_09h03.20.238,multiplicationStroop,2021.2.3,Win32,60.27000964,,,,,left,1,0.671,0,33,33,47,1,9,4,9 | 4,5,1.4111,1.9756,incongruent,left,,,,,,stimulusFile/magnitude.xlsx,,,,,,,,,,,,,,,,,,,,,,,,,,,,,,,
,,,,,,,,,,,,,,,805,2022-01-21_09h03.20.238,multiplicationStroop,2021.2.3,Win32,60.27000964,,,,,right,1,0.6634,0,34,34,50,1,6,7,6 | 7,1,1.6933,1.6933,neutral,right,,,,,,stimulusFile/magnitude.xlsx,,,,,,,,,,,,,,,,,,,,,,,,,,,,,,,
,,,,,,,,,,,,,,,805,2022-01-21_09h03.20.238,multiplicationStroop,2021.2.3,Win32,60.27000964,,,,,right,1,0.8412,0,35,35,43,1,4,9,4 | 9,5,1.9756,1.4111,incongruent,right,,,,,,stimulusFile/magnitude.xlsx,,,,,,,,,,,,,,,,,,,,,,,,,,,,,,,
,,,,,,,,,,,,,,,805,2022-01-21_09h03.20.238,multiplicationStroop,2021.2.3,Win32,60.27000964,,,,,right,1,1.1605,0,36,36,51,1,8,9,8 | 9,1,1.6933,1.6933,neutral,right,,,,,,stimulusFile/magnitude.xlsx,,,,,,,,,,,,,,,,,,,,,,,,,,,,,,,
,,,,,,,,,,,,,,,805,2022-01-21_09h03.20.238,multiplicationStroop,2021.2.3,Win32,60.27000964,,,,,left,1,0.7179,0,37,37,63,1,9,7,9 | 7,2,1.6933,1.6933,neutral,left,,,,,,stimulusFile/magnitude.xlsx,,,,,,,,,,,,,,,,,,,,,,,,,,,,,,,
,,,,,,,,,,,,,,,805,2022-01-21_09h03.20.238,multiplicationStroop,2021.2.3,Win32,60.27000964,,,,,left,1,0.675,0,38,38,68,1,6,1,6 | 1,5,1.6933,1.6933,neutral,left,,,,,,stimulusFile/magnitude.xlsx,,,,,,,,,,,,,,,,,,,,,,,,,,,,,,,
,,,,,,,,,,,,,,,805,2022-01-21_09h03.20.238,multiplicationStroop,2021.2.3,Win32,60.27000964,,,,,right,1,0.597,0,39,39,0,1,1,2,1 | 2,1,1.4111,1.9756,congruent,right,,,,,,stimulusFile/magnitude.xlsx,,,,,,,,,,,,,,,,,,,,,,,,,,,,,,,
,,,,,,,,,,,,,,,805,2022-01-21_09h03.20.238,multiplicationStroop,2021.2.3,Win32,60.27000964,,,,,left,1,1.1213,0,40,40,30,1,7,6,7 | 6,1,1.4111,1.9756,incongruent,left,,,,,,stimulusFile/magnitude.xlsx,,,,,,,,,,,,,,,,,,,,,,,,,,,,,,,
,,,,,,,,,,,,,,,805,2022-01-21_09h03.20.238,multiplicationStroop,2021.2.3,Win32,60.27000964,,,,,right,1,0.5729,0,41,41,57,1,2,4,2 | 4,2,1.6933,1.6933,neutral,right,,,,,,stimulusFile/magnitude.xlsx,,,,,,,,,,,,,,,,,,,,,,,,,,,,,,,
,,,,,,,,,,,,,,,805,2022-01-21_09h03.20.238,multiplicationStroop,2021.2.3,Win32,60.27000964,,,,,left,1,0.6244,0,42,42,15,1,9,7,9 | 7,2,1.9756,1.4111,congruent,left,,,,,,stimulusFile/magnitude.xlsx,,,,,,,,,,,,,,,,,,,,,,,,,,,,,,,
,,,,,,,,,,,,,,,805,2022-01-21_09h03.20.238,multiplicationStroop,2021.2.3,Win32,60.27000964,,,,,right,1,0.5868,0,43,43,3,1,8,9,8 | 9,1,1.4111,1.9756,congruent,right,,,,,,stimulusFile/magnitude.xlsx,,,,,,,,,,,,,,,,,,,,,,,,,,,,,,,
,,,,,,,,,,,,,,,805,2022-01-21_09h03.20.238,multiplicationStroop,2021.2.3,Win32,60.27000964,,,,,right,1,0.6673,0,44,44,1,1,3,4,3 | 4,1,1.4111,1.9756,congruent,right,,,,,,stimulusFile/magnitude.xlsx,,,,,,,,,,,,,,,,,,,,,,,,,,,,,,,
,,,,,,,,,,,,,,,805,2022-01-21_09h03.20.238,multiplicationStroop,2021.2.3,Win32,60.27000964,,,,,right,1,0.7345,0,45,45,33,1,2,4,2 | 4,2,1.9756,1.4111,incongruent,right,,,,,,stimulusFile/magnitude.xlsx,,,,,,,,,,,,,,,,,,,,,,,,,,,,,,,
,,,,,,,,,,,,,,,805,2022-01-21_09h03.20.238,multiplicationStroop,2021.2.3,Win32,60.27000964,,,,,left,1,0.9166,0,46,46,4,1,2,1,2 | 1,1,1.9756,1.4111,congruent,left,,,,,,stimulusFile/magnitude.xlsx,,,,,,,,,,,,,,,,,,,,,,,,,,,,,,,
,,,,,,,,,,,,,,,805,2022-01-21_09h03.20.238,multiplicationStroop,2021.2.3,Win32,60.27000964,,,,,right,1,1.0541,0,47,47,66,1,3,8,3 | 8,5,1.6933,1.6933,neutral,right,,,,,,stimulusFile/magnitude.xlsx,,,,,,,,,,,,,,,,,,,,,,,,,,,,,,,
,,,,,,,,,,,,,,,805,2022-01-21_09h03.20.238,multiplicationStroop,2021.2.3,Win32,60.27000964,,,,,left,1,0.6004,0,48,48,45,1,7,2,7 | 2,5,1.4111,1.9756,incongruent,left,,,,,,stimulusFile/magnitude.xlsx,,,,,,,,,,,,,,,,,,,,,,,,,,,,,,,
,,,,,,,,,,,,,,,805,2022-01-21_09h03.20.238,multiplicationStroop,2021.2.3,Win32,60.27000964,,,,,right,1,0.5342,0,49,49,64,1,1,6,1 | 6,5,1.6933,1.6933,neutral,right,,,,,,stimulusFile/magnitude.xlsx,,,,,,,,,,,,,,,,,,,,,,,,,,,,,,,
,,,,,,,,,,,,,,,805,2022-01-21_09h03.20.238,multiplicationStroop,2021.2.3,Win32,60.27000964,,,,,left,1,0.6694,0,50,50,29,1,4,3,4 | 3,1,1.4111,1.9756,incongruent,left,,,,,,stimulusFile/magnitude.xlsx,,,,,,,,,,,,,,,,,,,,,,,,,,,,,,,
,,,,,,,,,,,,,,,805,2022-01-21_09h03.20.238,multiplicationStroop,2021.2.3,Win32,60.27000964,,,,,left,1,0.6008,0,51,51,6,1,7,6,7 | 6,1,1.9756,1.4111,congruent,left,,,,,,stimulusFile/magnitude.xlsx,,,,,,,,,,,,,,,,,,,,,,,,,,,,,,,
,,,,,,,,,,,,,,,805,2022-01-21_09h03.20.238,multiplicationStroop,2021.2.3,Win32,60.27000964,,,,,left,1,0.5728,0,52,52,14,1,8,6,8 | 6,2,1.9756,1.4111,congruent,left,,,,,,stimulusFile/magnitude.xlsx,,,,,,,,,,,,,,,,,,,,,,,,,,,,,,,
,,,,,,,,,,,,,,,805,2022-01-21_09h03.20.238,multiplicationStroop,2021.2.3,Win32,60.27000964,,,,,left,1,0.683,0,53,53,52,1,2,1,2 | 1,1,1.6933,1.6933,neutral,left,,,,,,stimulusFile/magnitude.xlsx,,,,,,,,,,,,,,,,,,,,,,,,,,,,,,,
,,,,,,,,,,,,,,,805,2022-01-21_09h03.20.238,multiplicationStroop,2021.2.3,Win32,60.27000964,,,,,left,1,0.835,0,54,54,46,1,8,3,8 | 3,5,1.4111,1.9756,incongruent,left,,,,,,stimulusFile/magnitude.xlsx,,,,,,,,,,,,,,,,,,,,,,,,,,,,,,,
,,,,,,,,,,,,,,,805,2022-01-21_09h03.20.238,multiplicationStroop,2021.2.3,Win32,60.27000964,,,,,left,1,0.4562,0,55,55,62,1,8,6,8 | 6,2,1.6933,1.6933,neutral,left,,,,,,stimulusFile/magnitude.xlsx,,,,,,,,,,,,,,,,,,,,,,,,,,,,,,,
,,,,,,,,,,,,,,,805,2022-01-21_09h03.20.238,multiplicationStroop,2021.2.3,Win32,60.27000964,,,,,right,1,0.5836,0,56,56,11,1,7,9,7 | 9,2,1.4111,1.9756,congruent,right,,,,,,stimulusFile/magnitude.xlsx,,,,,,,,,,,,,,,,,,,,,,,,,,,,,,,
,,,,,,,,,,,,,,,805,2022-01-21_09h03.20.238,multiplicationStroop,2021.2.3,Win32,60.27000964,,,,,right,1,1.016,0,57,57,32,1,1,3,1 | 3,2,1.9756,1.4111,incongruent,right,,,,,,stimulusFile/magnitude.xlsx,,,,,,,,,,,,,,,,,,,,,,,,,,,,,,,
,,,,,,,,,,,,,,,805,2022-01-21_09h03.20.238,multiplicationStroop,2021.2.3,Win32,60.27000964,,,,,left,1,0.5835,0,58,58,13,1,4,2,4 | 2,2,1.9756,1.4111,congruent,left,,,,,,stimulusFile/magnitude.xlsx,,,,,,,,,,,,,,,,,,,,,,,,,,,,,,,
,,,,,,,,,,,,,,,805,2022-01-21_09h03.20.238,multiplicationStroop,2021.2.3,Win32,60.27000964,,,,,right,1,0.8175,0,59,59,27,1,8,9,8 | 9,1,1.9756,1.4111,incongruent,right,,,,,,stimulusFile/magnitude.xlsx,,,,,,,,,,,,,,,,,,,,,,,,,,,,,,,
,,,,,,,,,,,,,,,805,2022-01-21_09h03.20.238,multiplicationStroop,2021.2.3,Win32,60.27000964,,,,,right,1,0.6989,0,60,60,58,1,6,8,6 | 8,2,1.6933,1.6933,neutral,right,,,,,,stimulusFile/magnitude.xlsx,,,,,,,,,,,,,,,,,,,,,,,,,,,,,,,
,,,,,,,,,,,,,,,805,2022-01-21_09h03.20.238,multiplicationStroop,2021.2.3,Win32,60.27000964,,,,,right,1,0.6925,0,61,61,17,1,2,7,2 | 7,5,1.4111,1.9756,congruent,right,,,,,,stimulusFile/magnitude.xlsx,,,,,,,,,,,,,,,,,,,,,,,,,,,,,,,
,,,,,,,,,,,,,,,805,2022-01-21_09h03.20.238,multiplicationStroop,2021.2.3,Win32,60.27000964,,,,,left,1,0.8548,0,62,62,55,1,9,8,9 | 8,1,1.6933,1.6933,neutral,left,,,,,,stimulusFile/magnitude.xlsx,,,,,,,,,,,,,,,,,,,,,,,,,,,,,,,
,,,,,,,,,,,,,,,805,2022-01-21_09h03.20.238,multiplicationStroop,2021.2.3,Win32,60.27000964,,,,,left,1,0.5742,0,63,63,60,1,3,1,3 | 1,2,1.6933,1.6933,neutral,left,,,,,,stimulusFile/magnitude.xlsx,,,,,,,,,,,,,,,,,,,,,,,,,,,,,,,
,,,,,,,,,,,,,,,805,2022-01-21_09h03.20.238,multiplicationStroop,2021.2.3,Win32,60.27000964,,,,,left,1,0.8016,0,64,64,38,1,8,6,8 | 6,2,1.4111,1.9756,incongruent,left,,,,,,stimulusFile/magnitude.xlsx,,,,,,,,,,,,,,,,,,,,,,,,,,,,,,,
,,,,,,,,,,,,,,,805,2022-01-21_09h03.20.238,multiplicationStroop,2021.2.3,Win32,60.27000964,,,,,left,1,0.6181,0,65,65,54,1,7,6,7 | 6,1,1.6933,1.6933,neutral,left,,,,,,stimulusFile/magnitude.xlsx,,,,,,,,,,,,,,,,,,,,,,,,,,,,,,,
,,,,,,,,,,,,,,,805,2022-01-21_09h03.20.238,multiplicationStroop,2021.2.3,Win32,60.27000964,,,,,left,1,0.5225,0,66,66,23,1,9,4,9 | 4,5,1.9756,1.4111,congruent,left,,,,,,stimulusFile/magnitude.xlsx,,,,,,,,,,,,,,,,,,,,,,,,,,,,,,,
,,,,,,,,,,,,,,,805,2022-01-21_09h03.20.238,multiplicationStroop,2021.2.3,Win32,60.27000964,,,,,left,1,0.4656,0,67,67,22,1,8,3,8 | 3,5,1.9756,1.4111,congruent,left,,,,,,stimulusFile/magnitude.xlsx,,,,,,,,,,,,,,,,,,,,,,,,,,,,,,,
,,,,,,,,,,,,,,,805,2022-01-21_09h03.20.238,multiplicationStroop,2021.2.3,Win32,60.27000964,,,,,right,1,0.7056,0,68,68,24,1,1,2,1 | 2,1,1.9756,1.4111,incongruent,right,,,,,,stimulusFile/magnitude.xlsx,,,,,,,,,,,,,,,,,,,,,,,,,,,,,,,
,,,,,,,,,,,,,,,805,2022-01-21_09h03.20.238,multiplicationStroop,2021.2.3,Win32,60.27000964,,,,,left,1,0.6017,0,69,69,44,1,6,1,6 | 1,5,1.4111,1.9756,incongruent,left,,,,,,stimulusFile/magnitude.xlsx,,,,,,,,,,,,,,,,,,,,,,,,,,,,,,,
,,,,,,,,,,,,,,,805,2022-01-21_09h03.20.238,multiplicationStroop,2021.2.3,Win32,60.27000964,,,,,right,1,0.6543,0,70,70,56,1,1,3,1 | 3,2,1.6933,1.6933,neutral,right,,,,,,stimulusFile/magnitude.xlsx,,,,,,,,,,,,,,,,,,,,,,,,,,,,,,,
,,,,,,,,,,,,,,,805,2022-01-21_09h03.20.238,multiplicationStroop,2021.2.3,Win32,60.27000964,,,,,right,1,0.7224,0,71,71,19,1,4,9,4 | 9,5,1.4111,1.9756,congruent,right,,,,,,stimulusFile/magnitude.xlsx,,,,,,,,,,,,,,,,,,,,,,,,,,,,,,,
,,,,,,,,,,,,,,,805,2022-01-21_09h03.20.238,multiplicationStroop,2021.2.3,Win32,60.27000964,,,,,,,,,,,,,,,,,,,,,0,0,0,0,1,stimulusFile/magnitude.xlsx,NUMERICALLY larger (larger coefficient).,images/numericallyLarger.png,,,,,,,,,,,,,,,,,,,,,,,,,,,,,
,,,,,,,,,,,,,,,805,2022-01-21_09h03.20.238,multiplicationStroop,2021.2.3,Win32,60.27000964,space,11.3619,space,8.0452,left,1,0.9002,0,0,0,70,1,8,8,8 | 8,0,1.9756,1.4111,neutral,left,,,,,,stimulusFile/physical.xlsx,,,,,,,,,,,,,,,,,,,,,,,,,,,,,,,
,,,,,,,,,,,,,,,805,2022-01-21_09h03.20.238,multiplicationStroop,2021.2.3,Win32,60.27000964,,,,,left,1,0.569,0,1,1,55,1,9,9,9 | 9,0,1.9756,1.4111,neutral,left,,,,,,stimulusFile/physical.xlsx,,,,,,,,,,,,,,,,,,,,,,,,,,,,,,,
,,,,,,,,,,,,,,,805,2022-01-21_09h03.20.238,multiplicationStroop,2021.2.3,Win32,60.27000964,,,,,right,1,0.614,0,2,2,18,1,3,8,3 | 8,5,1.4111,1.9756,congruent,right,,,,,,stimulusFile/physical.xlsx,,,,,,,,,,,,,,,,,,,,,,,,,,,,,,,
,,,,,,,,,,,,,,,805,2022-01-21_09h03.20.238,multiplicationStroop,2021.2.3,Win32,60.27000964,,,,,right,1,0.5595,0,3,3,11,1,7,9,7 | 9,2,1.4111,1.9756,congruent,right,,,,,,stimulusFile/physical.xlsx,,,,,,,,,,,,,,,,,,,,,,,,,,,,,,,
,,,,,,,,,,,,,,,805,2022-01-21_09h03.20.238,multiplicationStroop,2021.2.3,Win32,60.27000964,,,,,left,1,0.6775,0,4,4,13,1,4,2,4 | 2,2,1.9756,1.4111,congruent,left,,,,,,stimulusFile/physical.xlsx,,,,,,,,,,,,,,,,,,,,,,,,,,,,,,,
,,,,,,,,,,,,,,,805,2022-01-21_09h03.20.238,multiplicationStroop,2021.2.3,Win32,60.27000964,,,,,left,1,0.5806,0,5,5,26,1,6,7,6 | 7,1,1.9756,1.4111,incongruent,left,,,,,,stimulusFile/physical.xlsx,,,,,,,,,,,,,,,,,,,,,,,,,,,,,,,
,,,,,,,,,,,,,,,805,2022-01-21_09h03.20.238,multiplicationStroop,2021.2.3,Win32,60.27000964,,,,,right,1,0.5757,0,6,6,39,1,9,7,9 | 7,2,1.4111,1.9756,incongruent,right,,,,,,stimulusFile/physical.xlsx,,,,,,,,,,,,,,,,,,,,,,,,,,,,,,,
,,,,,,,,,,,,,,,805,2022-01-21_09h03.20.238,multiplicationStroop,2021.2.3,Win32,60.27000964,,,,,right,1,0.7984,0,7,7,30,1,7,6,7 | 6,1,1.4111,1.9756,incongruent,right,,,,,,stimulusFile/physical.xlsx,,,,,,,,,,,,,,,,,,,,,,,,,,,,,,,
,,,,,,,,,,,,,,,805,2022-01-21_09h03.20.238,multiplicationStroop,2021.2.3,Win32,60.27000964,,,,,left,1,0.5333,0,8,8,23,1,9,4,9 | 4,5,1.9756,1.4111,congruent,left,,,,,,stimulusFile/physical.xlsx,,,,,,,,,,,,,,,,,,,,,,,,,,,,,,,
,,,,,,,,,,,,,,,805,2022-01-21_09h03.20.238,multiplicationStroop,2021.2.3,Win32,60.27000964,,,,,left,0,0.661,0,9,9,66,1,3,3,3 | 3,0,1.9756,1.4111,neutral,right,,,,,,stimulusFile/physical.xlsx,,,,,,,,,,,,,,,,,,,,,,,,,,,,,,,
,,,,,,,,,,,,,,,805,2022-01-21_09h03.20.238,multiplicationStroop,2021.2.3,Win32,60.27000964,,,,,right,1,0.6096,0,10,10,67,1,4,4,4 | 4,0,1.4111,1.9756,neutral,right,,,,,,stimulusFile/physical.xlsx,,,,,,,,,,,,,,,,,,,,,,,,,,,,,,,
,,,,,,,,,,,,,,,805,2022-01-21_09h03.20.238,multiplicationStroop,2021.2.3,Win32,60.27000964,,,,,left,1,0.5279,0,11,11,20,1,6,1,6 | 1,5,1.9756,1.4111,congruent,left,,,,,,stimulusFile/physical.xlsx,,,,,,,,,,,,,,,,,,,,,,,,,,,,,,,
,,,,,,,,,,,,,,,805,2022-01-21_09h03.20.238,multiplicationStroop,2021.2.3,Win32,60.27000964,,,,,right,1,0.6981,0,12,12,31,1,9,8,9 | 8,1,1.4111,1.9756,incongruent,right,,,,,,stimulusFile/physical.xlsx,,,,,,,,,,,,,,,,,,,,,,,,,,,,,,,
,,,,,,,,,,,,,,,805,2022-01-21_09h03.20.238,multiplicationStroop,2021.2.3,Win32,60.27000964,,,,,left,1,0.545,0,13,13,12,1,3,1,3 | 1,2,1.9756,1.4111,congruent,left,,,,,,stimulusFile/physical.xlsx,,,,,,,,,,,,,,,,,,,,,,,,,,,,,,,
,,,,,,,,,,,,,,,805,2022-01-21_09h03.20.238,multiplicationStroop,2021.2.3,Win32,60.27000964,,,,,left,1,0.6469,0,14,14,4,1,2,1,2 | 1,1,1.9756,1.4111,congruent,left,,,,,,stimulusFile/physical.xlsx,,,,,,,,,,,,,,,,,,,,,,,,,,,,,,,
,,,,,,,,,,,,,,,805,2022-01-21_09h03.20.238,multiplicationStroop,2021.2.3,Win32,60.27000964,,,,,right,1,0.6703,0,15,15,61,1,4,4,4 | 4,0,1.4111,1.9756,neutral,right,,,,,,stimulusFile/physical.xlsx,,,,,,,,,,,,,,,,,,,,,,,,,,,,,,,
,,,,,,,,,,,,,,,805,2022-01-21_09h03.20.238,multiplicationStroop,2021.2.3,Win32,60.27000964,,,,,left,1,0.7314,0,16,16,34,1,6,8,6 | 8,2,1.9756,1.4111,incongruent,left,,,,,,stimulusFile/physical.xlsx,,,,,,,,,,,,,,,,,,,,,,,,,,,,,,,
,,,,,,,,,,,,,,,805,2022-01-21_09h03.20.238,multiplicationStroop,2021.2.3,Win32,60.27000964,,,,,right,1,0.961,0,17,17,28,1,2,1,2 | 1,1,1.4111,1.9756,incongruent,right,,,,,,stimulusFile/physical.xlsx,,,,,,,,,,,,,,,,,,,,,,,,,,,,,,,
,,,,,,,,,,,,,,,805,2022-01-21_09h03.20.238,multiplicationStroop,2021.2.3,Win32,60.27000964,,,,,right,1,0.9448,0,18,18,17,1,2,7,2 | 7,5,1.4111,1.9756,congruent,right,,,,,,stimulusFile/physical.xlsx,,,,,,,,,,,,,,,,,,,,,,,,,,,,,,,
,,,,,,,,,,,,,,,805,2022-01-21_09h03.20.238,multiplicationStroop,2021.2.3,Win32,60.27000964,,,,,right,0,0.6945,0,19,19,71,1,9,9,9 | 9,0,1.4111,1.9756,neutral,left,,,,,,stimulusFile/physical.xlsx,,,,,,,,,,,,,,,,,,,,,,,,,,,,,,,
,,,,,,,,,,,,,,,805,2022-01-21_09h03.20.238,multiplicationStroop,2021.2.3,Win32,60.27000964,,,,,left,1,0.6697,0,20,20,40,1,1,6,1 | 6,5,1.9756,1.4111,incongruent,left,,,,,,stimulusFile/physical.xlsx,,,,,,,,,,,,,,,,,,,,,,,,,,,,,,,
,,,,,,,,,,,,,,,805,2022-01-21_09h03.20.238,multiplicationStroop,2021.2.3,Win32,60.27000964,,,,,left,1,0.5783,0,21,21,51,1,8,8,8 | 8,0,1.9756,1.4111,neutral,left,,,,,,stimulusFile/physical.xlsx,,,,,,,,,,,,,,,,,,,,,,,,,,,,,,,
,,,,,,,,,,,,,,,805,2022-01-21_09h03.20.238,multiplicationStroop,2021.2.3,Win32,60.27000964,,,,,left,1,0.5525,0,22,22,15,1,9,7,9 | 7,2,1.9756,1.4111,congruent,left,,,,,,stimulusFile/physical.xlsx,,,,,,,,,,,,,,,,,,,,,,,,,,,,,,,
,,,,,,,,,,,,,,,805,2022-01-21_09h03.20.238,multiplicationStroop,2021.2.3,Win32,60.27000964,,,,,left,1,0.5298,0,23,23,14,1,8,6,8 | 6,2,1.9756,1.4111,congruent,left,,,,,,stimulusFile/physical.xlsx,,,,,,,,,,,,,,,,,,,,,,,,,,,,,,,
,,,,,,,,,,,,,,,805,2022-01-21_09h03.20.238,multiplicationStroop,2021.2.3,Win32,60.27000964,,,,,right,1,0.5999,0,24,24,58,1,6,6,6 | 6,0,1.4111,1.9756,neutral,right,,,,,,stimulusFile/physical.xlsx,,,,,,,,,,,,,,,,,,,,,,,,,,,,,,,
,,,,,,,,,,,,,,,805,2022-01-21_09h03.20.238,multiplicationStroop,2021.2.3,Win32,60.27000964,,,,,left,1,0.6604,0,25,25,22,1,8,3,8 | 3,5,1.9756,1.4111,congruent,left,,,,,,stimulusFile/physical.xlsx,,,,,,,,,,,,,,,,,,,,,,,,,,,,,,,
,,,,,,,,,,,,,,,805,2022-01-21_09h03.20.238,multiplicationStroop,2021.2.3,Win32,60.27000964,,,,,right,1,0.6951,0,26,26,46,1,8,3,8 | 3,5,1.4111,1.9756,incongruent,right,,,,,,stimulusFile/physical.xlsx,,,,,,,,,,,,,,,,,,,,,,,,,,,,,,,
,,,,,,,,,,,,,,,805,2022-01-21_09h03.20.238,multiplicationStroop,2021.2.3,Win32,60.27000964,,,,,right,1,0.6312,0,27,27,9,1,2,4,2 | 4,2,1.4111,1.9756,congruent,right,,,,,,stimulusFile/physical.xlsx,,,,,,,,,,,,,,,,,,,,,,,,,,,,,,,
,,,,,,,,,,,,,,,805,2022-01-21_09h03.20.238,multiplicationStroop,2021.2.3,Win32,60.27000964,,,,,left,1,0.6789,0,28,28,24,1,1,2,1 | 2,1,1.9756,1.4111,incongruent,left,,,,,,stimulusFile/physical.xlsx,,,,,,,,,,,,,,,,,,,,,,,,,,,,,,,
,,,,,,,,,,,,,,,805,2022-01-21_09h03.20.238,multiplicationStroop,2021.2.3,Win32,60.27000964,,,,,right,1,0.649,0,29,29,57,1,2,2,2 | 2,0,1.4111,1.9756,neutral,right,,,,,,stimulusFile/physical.xlsx,,,,,,,,,,,,,,,,,,,,,,,,,,,,,,,
,,,,,,,,,,,,,,,805,2022-01-21_09h03.20.238,multiplicationStroop,2021.2.3,Win32,60.27000964,,,,,right,1,0.6147,0,30,30,0,1,1,2,1 | 2,1,1.4111,1.9756,congruent,right,,,,,,stimulusFile/physical.xlsx,,,,,,,,,,,,,,,,,,,,,,,,,,,,,,,
,,,,,,,,,,,,,,,805,2022-01-21_09h03.20.238,multiplicationStroop,2021.2.3,Win32,60.27000964,,,,,right,0,0.6616,0,31,31,69,1,7,7,7 | 7,0,1.4111,1.9756,neutral,left,,,,,,stimulusFile/physical.xlsx,,,,,,,,,,,,,,,,,,,,,,,,,,,,,,,
,,,,,,,,,,,,,,,805,2022-01-21_09h03.20.238,multiplicationStroop,2021.2.3,Win32,60.27000964,,,,,left,1,0.5636,0,32,32,41,1,2,7,2 | 7,5,1.9756,1.4111,incongruent,left,,,,,,stimulusFile/physical.xlsx,,,,,,,,,,,,,,,,,,,,,,,,,,,,,,,
,,,,,,,,,,,,,,,805,2022-01-21_09h03.20.238,multiplicationStroop,2021.2.3,Win32,60.27000964,,,,,right,1,0.6108,0,33,33,19,1,4,9,4 | 9,5,1.4111,1.9756,congruent,right,,,,,,stimulusFile/physical.xlsx,,,,,,,,,,,,,,,,,,,,,,,,,,,,,,,
,,,,,,,,,,,,,,,805,2022-01-21_09h03.20.238,multiplicationStroop,2021.2.3,Win32,60.27000964,,,,,right,1,0.5164,0,34,34,3,1,8,9,8 | 9,1,1.4111,1.9756,congruent,right,,,,,,stimulusFile/physical.xlsx,,,,,,,,,,,,,,,,,,,,,,,,,,,,,,,
,,,,,,,,,,,,,,,805,2022-01-21_09h03.20.238,multiplicationStroop,2021.2.3,Win32,60.27000964,,,,,right,1,0.6686,0,35,35,29,1,4,3,4 | 3,1,1.4111,1.9756,incongruent,right,,,,,,stimulusFile/physical.xlsx,,,,,,,,,,,,,,,,,,,,,,,,,,,,,,,
,,,,,,,,,,,,,,,805,2022-01-21_09h03.20.238,multiplicationStroop,2021.2.3,Win32,60.27000964,,,,,left,1,0.5283,0,36,36,6,1,7,6,7 | 6,1,1.9756,1.4111,congruent,left,,,,,,stimulusFile/physical.xlsx,,,,,,,,,,,,,,,,,,,,,,,,,,,,,,,
,,,,,,,,,,,,,,,805,2022-01-21_09h03.20.238,multiplicationStroop,2021.2.3,Win32,60.27000964,,,,,left,1,0.6219,0,37,37,50,1,6,6,6 | 6,0,1.9756,1.4111,neutral,left,,,,,,stimulusFile/physical.xlsx,,,,,,,,,,,,,,,,,,,,,,,,,,,,,,,
,,,,,,,,,,,,,,,805,2022-01-21_09h03.20.238,multiplicationStroop,2021.2.3,Win32,60.27000964,,,,,right,1,0.7005,0,38,38,10,1,6,8,6 | 8,2,1.4111,1.9756,congruent,right,,,,,,stimulusFile/physical.xlsx,,,,,,,,,,,,,,,,,,,,,,,,,,,,,,,
,,,,,,,,,,,,,,,805,2022-01-21_09h03.20.238,multiplicationStroop,2021.2.3,Win32,60.27000964,,,,,right,1,0.5365,0,39,39,16,1,1,6,1 | 6,5,1.4111,1.9756,congruent,right,,,,,,stimulusFile/physical.xlsx,,,,,,,,,,,,,,,,,,,,,,,,,,,,,,,
,,,,,,,,,,,,,,,805,2022-01-21_09h03.20.238,multiplicationStroop,2021.2.3,Win32,60.27000964,,,,,right,1,0.8188,0,40,40,47,1,9,4,9 | 4,5,1.4111,1.9756,incongruent,right,,,,,,stimulusFile/physical.xlsx,,,,,,,,,,,,,,,,,,,,,,,,,,,,,,,
,,,,,,,,,,,,,,,805,2022-01-21_09h03.20.238,multiplicationStroop,2021.2.3,Win32,60.27000964,,,,,left,1,0.5435,0,41,41,33,1,2,4,2 | 4,2,1.9756,1.4111,incongruent,left,,,,,,stimulusFile/physical.xlsx,,,,,,,,,,,,,,,,,,,,,,,,,,,,,,,
,,,,,,,,,,,,,,,805,2022-01-21_09h03.20.238,multiplicationStroop,2021.2.3,Win32,60.27000964,,,,,left,1,0.5636,0,42,42,68,1,6,6,6 | 6,0,1.9756,1.4111,neutral,left,,,,,,stimulusFile/physical.xlsx,,,,,,,,,,,,,,,,,,,,,,,,,,,,,,,
,,,,,,,,,,,,,,,805,2022-01-21_09h03.20.238,multiplicationStroop,2021.2.3,Win32,60.27000964,,,,,left,1,0.536,0,43,43,52,1,2,2,2 | 2,0,1.9756,1.4111,neutral,left,,,,,,stimulusFile/physical.xlsx,,,,,,,,,,,,,,,,,,,,,,,,,,,,,,,
,,,,,,,,,,,,,,,805,2022-01-21_09h03.20.238,multiplicationStroop,2021.2.3,Win32,60.27000964,,,,,left,1,0.5981,0,44,44,48,1,1,1,1 | 1,0,1.9756,1.4111,neutral,left,,,,,,stimulusFile/physical.xlsx,,,,,,,,,,,,,,,,,,,,,,,,,,,,,,,
,,,,,,,,,,,,,,,805,2022-01-21_09h03.20.238,multiplicationStroop,2021.2.3,Win32,60.27000964,,,,,right,1,0.6304,0,45,45,45,1,7,2,7 | 2,5,1.4111,1.9756,incongruent,right,,,,,,stimulusFile/physical.xlsx,,,,,,,,,,,,,,,,,,,,,,,,,,,,,,,
,,,,,,,,,,,,,,,805,2022-01-21_09h03.20.238,multiplicationStroop,2021.2.3,Win32,60.27000964,,,,,right,1,0.5657,0,46,46,65,1,2,2,2 | 2,0,1.4111,1.9756,neutral,right,,,,,,stimulusFile/physical.xlsx,,,,,,,,,,,,,,,,,,,,,,,,,,,,,,,
,,,,,,,,,,,,,,,805,2022-01-21_09h03.20.238,multiplicationStroop,2021.2.3,Win32,60.27000964,,,,,right,1,0.6509,0,47,47,1,1,3,4,3 | 4,1,1.4111,1.9756,congruent,right,,,,,,stimulusFile/physical.xlsx,,,,,,,,,,,,,,,,,,,,,,,,,,,,,,,
,,,,,,,,,,,,,,,805,2022-01-21_09h03.20.238,multiplicationStroop,2021.2.3,Win32,60.27000964,,,,,left,1,0.5876,0,48,48,27,1,8,9,8 | 9,1,1.9756,1.4111,incongruent,left,,,,,,stimulusFile/physical.xlsx,,,,,,,,,,,,,,,,,,,,,,,,,,,,,,,
,,,,,,,,,,,,,,,805,2022-01-21_09h03.20.238,multiplicationStroop,2021.2.3,Win32,60.27000964,,,,,left,1,0.5652,0,49,49,43,1,4,9,4 | 9,5,1.9756,1.4111,incongruent,left,,,,,,stimulusFile/physical.xlsx,,,,,,,,,,,,,,,,,,,,,,,,,,,,,,,
,,,,,,,,,,,,,,,805,2022-01-21_09h03.20.238,multiplicationStroop,2021.2.3,Win32,60.27000964,,,,,right,1,0.5674,0,50,50,38,1,8,6,8 | 6,2,1.4111,1.9756,incongruent,right,,,,,,stimulusFile/physical.xlsx,,,,,,,,,,,,,,,,,,,,,,,,,,,,,,,
,,,,,,,,,,,,,,,805,2022-01-21_09h03.20.238,multiplicationStroop,2021.2.3,Win32,60.27000964,,,,,left,1,0.645,0,51,51,42,1,3,8,3 | 8,5,1.9756,1.4111,incongruent,left,,,,,,stimulusFile/physical.xlsx,,,,,,,,,,,,,,,,,,,,,,,,,,,,,,,
,,,,,,,,,,,,,,,805,2022-01-21_09h03.20.238,multiplicationStroop,2021.2.3,Win32,60.27000964,,,,,right,1,0.6105,0,52,52,62,1,8,8,8 | 8,0,1.4111,1.9756,neutral,right,,,,,,stimulusFile/physical.xlsx,,,,,,,,,,,,,,,,,,,,,,,,,,,,,,,
,,,,,,,,,,,,,,,805,2022-01-21_09h03.20.238,multiplicationStroop,2021.2.3,Win32,60.27000964,,,,,left,1,0.5017,0,53,53,35,1,7,9,7 | 9,2,1.9756,1.4111,incongruent,left,,,,,,stimulusFile/physical.xlsx,,,,,,,,,,,,,,,,,,,,,,,,,,,,,,,
,,,,,,,,,,,,,,,805,2022-01-21_09h03.20.238,multiplicationStroop,2021.2.3,Win32,60.27000964,,,,,right,1,0.6188,0,54,54,60,1,3,3,3 | 3,0,1.4111,1.9756,neutral,right,,,,,,stimulusFile/physical.xlsx,,,,,,,,,,,,,,,,,,,,,,,,,,,,,,,
,,,,,,,,,,,,,,,805,2022-01-21_09h03.20.238,multiplicationStroop,2021.2.3,Win32,60.27000964,,,,,right,1,0.6179,0,55,55,59,1,7,7,7 | 7,0,1.4111,1.9756,neutral,right,,,,,,stimulusFile/physical.xlsx,,,,,,,,,,,,,,,,,,,,,,,,,,,,,,,
,,,,,,,,,,,,,,,805,2022-01-21_09h03.20.238,multiplicationStroop,2021.2.3,Win32,60.27000964,,,,,left,1,0.6143,0,56,56,25,1,3,4,3 | 4,1,1.9756,1.4111,incongruent,left,,,,,,stimulusFile/physical.xlsx,,,,,,,,,,,,,,,,,,,,,,,,,,,,,,,
,,,,,,,,,,,,,,,805,2022-01-21_09h03.20.238,multiplicationStroop,2021.2.3,Win32,60.27000964,,,,,right,1,0.5646,0,57,57,8,1,1,3,1 | 3,2,1.4111,1.9756,congruent,right,,,,,,stimulusFile/physical.xlsx,,,,,,,,,,,,,,,,,,,,,,,,,,,,,,,
,,,,,,,,,,,,,,,805,2022-01-21_09h03.20.238,multiplicationStroop,2021.2.3,Win32,60.27000964,,,,,right,1,0.5974,0,58,58,2,1,6,7,6 | 7,1,1.4111,1.9756,congruent,right,,,,,,stimulusFile/physical.xlsx,,,,,,,,,,,,,,,,,,,,,,,,,,,,,,,
,,,,,,,,,,,,,,,805,2022-01-21_09h03.20.238,multiplicationStroop,2021.2.3,Win32,60.27000964,,,,,right,1,0.6312,0,59,59,63,1,9,9,9 | 9,0,1.4111,1.9756,neutral,right,,,,,,stimulusFile/physical.xlsx,,,,,,,,,,,,,,,,,,,,,,,,,,,,,,,
,,,,,,,,,,,,,,,805,2022-01-21_09h03.20.238,multiplicationStroop,2021.2.3,Win32,60.27000964,,,,,left,1,0.5952,0,60,60,49,1,3,3,3 | 3,0,1.9756,1.4111,neutral,left,,,,,,stimulusFile/physical.xlsx,,,,,,,,,,,,,,,,,,,,,,,,,,,,,,,
,,,,,,,,,,,,,,,805,2022-01-21_09h03.20.238,multiplicationStroop,2021.2.3,Win32,60.27000964,,,,,left,1,0.582,0,61,61,53,1,4,4,4 | 4,0,1.9756,1.4111,neutral,left,,,,,,stimulusFile/physical.xlsx,,,,,,,,,,,,,,,,,,,,,,,,,,,,,,,
,,,,,,,,,,,,,,,805,2022-01-21_09h03.20.238,multiplicationStroop,2021.2.3,Win32,60.27000964,,,,,left,1,0.5643,0,62,62,21,1,7,2,7 | 2,5,1.9756,1.4111,congruent,left,,,,,,stimulusFile/physical.xlsx,,,,,,,,,,,,,,,,,,,,,,,,,,,,,,,
,,,,,,,,,,,,,,,805,2022-01-21_09h03.20.238,multiplicationStroop,2021.2.3,Win32,60.27000964,,,,,left,0,0.5498,0,63,63,64,1,1,1,1 | 1,0,1.9756,1.4111,neutral,right,,,,,,stimulusFile/physical.xlsx,,,,,,,,,,,,,,,,,,,,,,,,,,,,,,,
,,,,,,,,,,,,,,,805,2022-01-21_09h03.20.238,multiplicationStroop,2021.2.3,Win32,60.27000964,,,,,left,1,0.5108,0,64,64,7,1,9,8,9 | 8,1,1.9756,1.4111,congruent,left,,,,,,stimulusFile/physical.xlsx,,,,,,,,,,,,,,,,,,,,,,,,,,,,,,,
,,,,,,,,,,,,,,,805,2022-01-21_09h03.20.238,multiplicationStroop,2021.2.3,Win32,60.27000964,,,,,left,1,0.5448,0,65,65,5,1,4,3,4 | 3,1,1.9756,1.4111,congruent,left,,,,,,stimulusFile/physical.xlsx,,,,,,,,,,,,,,,,,,,,,,,,,,,,,,,
,,,,,,,,,,,,,,,805,2022-01-21_09h03.20.238,multiplicationStroop,2021.2.3,Win32,60.27000964,,,,,left,1,0.4974,0,66,66,54,1,7,7,7 | 7,0,1.9756,1.4111,neutral,left,,,,,,stimulusFile/physical.xlsx,,,,,,,,,,,,,,,,,,,,,,,,,,,,,,,
,,,,,,,,,,,,,,,805,2022-01-21_09h03.20.238,multiplicationStroop,2021.2.3,Win32,60.27000964,,,,,right,1,0.5273,0,67,67,36,1,3,1,3 | 1,2,1.4111,1.9756,incongruent,right,,,,,,stimulusFile/physical.xlsx,,,,,,,,,,,,,,,,,,,,,,,,,,,,,,,
,,,,,,,,,,,,,,,805,2022-01-21_09h03.20.238,multiplicationStroop,2021.2.3,Win32,60.27000964,,,,,left,1,0.5203,0,68,68,32,1,1,3,1 | 3,2,1.9756,1.4111,incongruent,left,,,,,,stimulusFile/physical.xlsx,,,,,,,,,,,,,,,,,,,,,,,,,,,,,,,
,,,,,,,,,,,,,,,805,2022-01-21_09h03.20.238,multiplicationStroop,2021.2.3,Win32,60.27000964,,,,,right,1,0.5279,0,69,69,37,1,4,2,4 | 2,2,1.4111,1.9756,incongruent,right,,,,,,stimulusFile/physical.xlsx,,,,,,,,,,,,,,,,,,,,,,,,,,,,,,,
,,,,,,,,,,,,,,,805,2022-01-21_09h03.20.238,multiplicationStroop,2021.2.3,Win32,60.27000964,,,,,right,1,0.5288,0,70,70,44,1,6,1,6 | 1,5,1.4111,1.9756,incongruent,right,,,,,,stimulusFile/physical.xlsx,,,,,,,,,,,,,,,,,,,,,,,,,,,,,,,
,,,,,,,,,,,,,,,805,2022-01-21_09h03.20.238,multiplicationStroop,2021.2.3,Win32,60.27000964,,,,,right,1,0.4644,0,71,71,56,1,1,1,1 | 1,0,1.4111,1.9756,neutral,right,,,,,,stimulusFile/physical.xlsx,,,,,,,,,,,,,,,,,,,,,,,,,,,,,,,
,,,,,,,,,,,,,,,805,2022-01-21_09h03.20.238,multiplicationStroop,2021.2.3,Win32,60.27000964,,,,,,,,,,,,,,,,,,,,,0,1,1,1,1,stimulusFile/physical.xlsx,PHYSICALLY larger (larger font size).,images/physicallyLarger.png,,,,,,,,,,,,,,,,,,,,,,,,,,,,,
,,,,,,,,,,,,,,,805,2022-01-21_09h03.20.238,multiplicationStroop,2021.2.3,Win32,60.27000964,,,,,,,,,,,,,,,,,,,,,,,,,,,,,space,9.0505,space,1.8245,49,6.5112,1,0,0,0,33,1,7,×,7,7 × 7,neutral,tie,1,2,49,,,,,,,,
,,,,,,,,,,,,,,,805,2022-01-21_09h03.20.238,multiplicationStroop,2021.2.3,Win32,60.27000964,,,,,,,,,,,,,,,,,,,,,,,,,,,,,,,,,12,2.467,1,0,1,1,16,1,4,×,3,4 × 3,congruent,largerFirst,2,1,12,,,,,,,,
,,,,,,,,,,,,,,,805,2022-01-21_09h03.20.238,multiplicationStroop,2021.2.3,Win32,60.27000964,,,,,,,,,,,,,,,,,,,,,,,,,,,,,,,,,56,2.4805,1,0,2,2,22,1,8,×,7,8 × 7,congruent,largerFirst,2,1,56,,,,,,,,
,,,,,,,,,,,,,,,805,2022-01-21_09h03.20.238,multiplicationStroop,2021.2.3,Win32,60.27000964,,,,,,,,,,,,,,,,,,,,,,,,,,,,,,,,,32,2.4641,1,0,3,3,6,1,4,×,8,4 × 8,congruent,smallerFirst,1,2,32,,,,,,,,
,,,,,,,,,,,,,,,805,2022-01-21_09h03.20.238,multiplicationStroop,2021.2.3,Win32,60.27000964,,,,,,,,,,,,,,,,,,,,,,,,,,,,,,,,,28,3.53,1,0,4,4,13,1,4,×,7,4 × 7,congruent,smallerFirst,1,2,28,,,,,,,,
,,,,,,,,,,,,,,,805,2022-01-21_09h03.20.238,multiplicationStroop,2021.2.3,Win32,60.27000964,,,,,,,,,,,,,,,,,,,,,,,,,,,,,,,,,24,3.9183,1,0,5,5,11,1,4,×,6,4 × 6,congruent,smallerFirst,1,2,24,,,,,,,,
,,,,,,,,,,,,,,,805,2022-01-21_09h03.20.238,multiplicationStroop,2021.2.3,Win32,60.27000964,,,,,,,,,,,,,,,,,,,,,,,,,,,,,,,,,4,1.8378,1,0,6,6,28,1,2,×,2,2 × 2,neutral,tie,1,2,4,,,,,,,,
,,,,,,,,,,,,,,,805,2022-01-21_09h03.20.238,multiplicationStroop,2021.2.3,Win32,60.27000964,,,,,,,,,,,,,,,,,,,,,,,,,,,,,,,,,36,2.9131,0,0,7,7,26,1,9,×,6,9 × 6,congruent,largerFirst,2,1,54,,,,,,,,
,,,,,,,,,,,,,,,805,2022-01-21_09h03.20.238,multiplicationStroop,2021.2.3,Win32,60.27000964,,,,,,,,,,,,,,,,,,,,,,,,,,,,,,,,,40,3.4539,1,0,8,8,20,1,8,×,5,8 × 5,congruent,largerFirst,2,1,40,,,,,,,,
,,,,,,,,,,,,,,,805,2022-01-21_09h03.20.238,multiplicationStroop,2021.2.3,Win32,60.27000964,,,,,,,,,,,,,,,,,,,,,,,,,,,,,,,,,20,2.5793,1,0,9,9,21,1,5,×,4,5 × 4,congruent,largerFirst,2,1,20,,,,,,,,
,,,,,,,,,,,,,,,805,2022-01-21_09h03.20.238,multiplicationStroop,2021.2.3,Win32,60.27000964,,,,,,,,,,,,,,,,,,,,,,,,,,,,,,,,,8,2.471,1,0,10,10,23,1,4,×,2,4 × 2,congruent,largerFirst,2,1,8,,,,,,,,
,,,,,,,,,,,,,,,805,2022-01-21_09h03.20.238,multiplicationStroop,2021.2.3,Win32,60.27000964,,,,,,,,,,,,,,,,,,,,,,,,,,,,,,,,,36,3.6959,1,0,11,11,14,1,9,×,4,9 × 4,congruent,largerFirst,2,1,36,,,,,,,,
,,,,,,,,,,,,,,,805,2022-01-21_09h03.20.238,multiplicationStroop,2021.2.3,Win32,60.27000964,,,,,,,,,,,,,,,,,,,,,,,,,,,,,,,,,42,3.0377,1,0,12,12,17,1,7,×,6,7 × 6,congruent,largerFirst,2,1,42,,,,,,,,
,,,,,,,,,,,,,,,805,2022-01-21_09h03.20.238,multiplicationStroop,2021.2.3,Win32,60.27000964,,,,,,,,,,,,,,,,,,,,,,,,,,,,,,,,,21,2.9126,1,0,13,13,2,1,3,×,7,3 × 7,congruent,smallerFirst,1,2,21,,,,,,,,
,,,,,,,,,,,,,,,805,2022-01-21_09h03.20.238,multiplicationStroop,2021.2.3,Win32,60.27000964,,,,,,,,,,,,,,,,,,,,,,,,,,,,,,,,,18,4.6833,1,0,14,14,25,1,6,×,3,6 × 3,congruent,largerFirst,2,1,18,,,,,,,,
,,,,,,,,,,,,,,,805,2022-01-21_09h03.20.238,multiplicationStroop,2021.2.3,Win32,60.27000964,,,,,,,,,,,,,,,,,,,,,,,,,,,,,,,,,15,1.9035,1,0,15,15,18,1,5,×,3,5 × 3,congruent,largerFirst,2,1,15,,,,,,,,
,,,,,,,,,,,,,,,805,2022-01-21_09h03.20.238,multiplicationStroop,2021.2.3,Win32,60.27000964,,,,,,,,,,,,,,,,,,,,,,,,,,,,,,,,,16,2.3295,1,0,16,16,30,1,4,×,4,4 × 4,neutral,tie,1,2,16,,,,,,,,
,,,,,,,,,,,,,,,805,2022-01-21_09h03.20.238,multiplicationStroop,2021.2.3,Win32,60.27000964,,,,,,,,,,,,,,,,,,,,,,,,,,,,,,,,,45,2.3149,1,0,17,17,9,1,5,×,9,5 × 9,congruent,smallerFirst,1,2,45,,,,,,,,
,,,,,,,,,,,,,,,805,2022-01-21_09h03.20.238,multiplicationStroop,2021.2.3,Win32,60.27000964,,,,,,,,,,,,,,,,,,,,,,,,,,,,,,,,,36,2.0805,1,0,18,18,32,1,6,×,6,6 × 6,neutral,tie,1,2,36,,,,,,,,
,,,,,,,,,,,,,,,805,2022-01-21_09h03.20.238,multiplicationStroop,2021.2.3,Win32,60.27000964,,,,,,,,,,,,,,,,,,,,,,,,,,,,,,,,,10,2.1306,1,0,19,19,10,1,2,×,5,2 × 5,congruent,smallerFirst,1,2,10,,,,,,,,
,,,,,,,,,,,,,,,805,2022-01-21_09h03.20.238,multiplicationStroop,2021.2.3,Win32,60.27000964,,,,,,,,,,,,,,,,,,,,,,,,,,,,,,,,,63,7.3595,1,0,20,20,7,1,7,×,9,7 × 9,congruent,smallerFirst,1,2,63,,,,,,,,
,,,,,,,,,,,,,,,805,2022-01-21_09h03.20.238,multiplicationStroop,2021.2.3,Win32,60.27000964,,,,,,,,,,,,,,,,,,,,,,,,,,,,,,,,,72,4.1842,1,0,21,21,3,1,8,×,9,8 × 9,congruent,smallerFirst,1,2,72,,,,,,,,
,,,,,,,,,,,,,,,805,2022-01-21_09h03.20.238,multiplicationStroop,2021.2.3,Win32,60.27000964,,,,,,,,,,,,,,,,,,,,,,,,,,,,,,,,,27,2.5865,1,0,22,22,12,1,3,×,9,3 × 9,congruent,smallerFirst,1,2,27,,,,,,,,
,,,,,,,,,,,,,,,805,2022-01-21_09h03.20.238,multiplicationStroop,2021.2.3,Win32,60.27000964,,,,,,,,,,,,,,,,,,,,,,,,,,,,,,,,,30,3.0959,1,0,23,23,1,1,5,×,6,5 × 6,congruent,smallerFirst,1,2,30,,,,,,,,
,,,,,,,,,,,,,,,805,2022-01-21_09h03.20.238,multiplicationStroop,2021.2.3,Win32,60.27000964,,,,,,,,,,,,,,,,,,,,,,,,,,,,,,,,,25,1.9865,1,0,24,24,31,1,5,×,5,5 × 5,neutral,tie,1,2,25,,,,,,,,
,,,,,,,,,,,,,,,805,2022-01-21_09h03.20.238,multiplicationStroop,2021.2.3,Win32,60.27000964,,,,,,,,,,,,,,,,,,,,,,,,,,,,,,,,,81,3.446,1,0,25,25,35,1,9,×,9,9 × 9,neutral,tie,1,2,81,,,,,,,,
,,,,,,,,,,,,,,,805,2022-01-21_09h03.20.238,multiplicationStroop,2021.2.3,Win32,60.27000964,,,,,,,,,,,,,,,,,,,,,,,,,,,,,,,,,16,2.3722,1,0,26,26,19,1,8,×,2,8 × 2,congruent,largerFirst,2,1,16,,,,,,,,
,,,,,,,,,,,,,,,805,2022-01-21_09h03.20.238,multiplicationStroop,2021.2.3,Win32,60.27000964,,,,,,,,,,,,,,,,,,,,,,,,,,,,,,,,,24,2.6467,1,0,27,27,24,1,8,×,3,8 × 3,congruent,largerFirst,2,1,24,,,,,,,,
,,,,,,,,,,,,,,,805,2022-01-21_09h03.20.238,multiplicationStroop,2021.2.3,Win32,60.27000964,,,,,,,,,,,,,,,,,,,,,,,,,,,,,,,,,9,3.7625,1,0,28,28,29,1,3,×,3,3 × 3,neutral,tie,1,2,9,,,,,,,,
,,,,,,,,,,,,,,,805,2022-01-21_09h03.20.238,multiplicationStroop,2021.2.3,Win32,60.27000964,,,,,,,,,,,,,,,,,,,,,,,,,,,,,,,,,18,1.878,1,0,29,29,8,1,2,×,9,2 × 9,congruent,smallerFirst,1,2,18,,,,,,,,
,,,,,,,,,,,,,,,805,2022-01-21_09h03.20.238,multiplicationStroop,2021.2.3,Win32,60.27000964,,,,,,,,,,,,,,,,,,,,,,,,,,,,,,,,,14,2.0466,1,0,30,30,0,1,2,×,7,2 × 7,congruent,smallerFirst,1,2,14,,,,,,,,
,,,,,,,,,,,,,,,805,2022-01-21_09h03.20.238,multiplicationStroop,2021.2.3,Win32,60.27000964,,,,,,,,,,,,,,,,,,,,,,,,,,,,,,,,,48,4.5958,1,0,31,31,4,1,6,×,8,6 × 8,congruent,smallerFirst,1,2,48,,,,,,,,
,,,,,,,,,,,,,,,805,2022-01-21_09h03.20.238,multiplicationStroop,2021.2.3,Win32,60.27000964,,,,,,,,,,,,,,,,,,,,,,,,,,,,,,,,,35,2.2709,1,0,32,32,15,1,7,×,5,7 × 5,congruent,largerFirst,2,1,35,,,,,,,,
,,,,,,,,,,,,,,,805,2022-01-21_09h03.20.238,multiplicationStroop,2021.2.3,Win32,60.27000964,,,,,,,,,,,,,,,,,,,,,,,,,,,,,,,,,3,1.8143,0,0,33,33,27,1,3,×,2,3 × 2,congruent,largerFirst,2,1,6,,,,,,,,
,,,,,,,,,,,,,,,805,2022-01-21_09h03.20.238,multiplicationStroop,2021.2.3,Win32,60.27000964,,,,,,,,,,,,,,,,,,,,,,,,,,,,,,,,,12,2.3303,1,0,34,34,5,1,2,×,6,2 × 6,congruent,smallerFirst,1,2,12,,,,,,,,
,,,,,,,,,,,,,,,805,2022-01-21_09h03.20.238,multiplicationStroop,2021.2.3,Win32,60.27000964,,,,,,,,,,,,,,,,,,,,,,,,,,,,,,,,,64,5.7333,1,0,35,35,34,1,8,×,8,8 × 8,neutral,tie,1,2,64,,,,,,,,
,,,,,,,,,,,,,,,805,2022-01-21_09h03.20.238,multiplicationStroop,2021.2.3,Win32,60.27000964,,,,,,,,,,,,,,,,,,,,,,,,,,,,,,,,,,,,,,,,,,,,,,,,,,0,0,0,3,1,stimulusFile/mult_blk4_congruent.xlsx,,
,,,,,,,,,,,,,,,805,2022-01-21_09h03.20.238,multiplicationStroop,2021.2.3,Win32,60.27000964,,,,,,,,,,,,,,,,,,,,,,,,,,,,,,,space,8.0183,81,2.6749,1,0,0,0,35,1,9,×,9,9 × 9,neutral,tie,1.5,1.5,81,,,,,,,,
,,,,,,,,,,,,,,,805,2022-01-21_09h03.20.238,multiplicationStroop,2021.2.3,Win32,60.27000964,,,,,,,,,,,,,,,,,,,,,,,,,,,,,,,,,27,2.4216,1,0,1,1,0,1,3,×,9,3 × 9,neutral,smallerFirst,1.5,1.5,27,,,,,,,,
,,,,,,,,,,,,,,,805,2022-01-21_09h03.20.238,multiplicationStroop,2021.2.3,Win32,60.27000964,,,,,,,,,,,,,,,,,,,,,,,,,,,,,,,,,18,2.5301,1,0,2,2,4,1,2,×,9,2 × 9,neutral,smallerFirst,1.5,1.5,18,,,,,,,,
,,,,,,,,,,,,,,,805,2022-01-21_09h03.20.238,multiplicationStroop,2021.2.3,Win32,60.27000964,,,,,,,,,,,,,,,,,,,,,,,,,,,,,,,,,36,2.0971,1,0,3,3,32,1,6,×,6,6 × 6,neutral,tie,1.5,1.5,36,,,,,,,,
,,,,,,,,,,,,,,,805,2022-01-21_09h03.20.238,multiplicationStroop,2021.2.3,Win32,60.27000964,,,,,,,,,,,,,,,,,,,,,,,,,,,,,,,,,24,4.2292,1,0,4,4,8,1,3,×,8,3 × 8,neutral,smallerFirst,1.5,1.5,24,,,,,,,,
,,,,,,,,,,,,,,,805,2022-01-21_09h03.20.238,multiplicationStroop,2021.2.3,Win32,60.27000964,,,,,,,,,,,,,,,,,,,,,,,,,,,,,,,,,36,2.5377,1,0,5,5,13,1,4,×,9,4 × 9,neutral,smallerFirst,1.5,1.5,36,,,,,,,,
,,,,,,,,,,,,,,,805,2022-01-21_09h03.20.238,multiplicationStroop,2021.2.3,Win32,60.27000964,,,,,,,,,,,,,,,,,,,,,,,,,,,,,,,,,64,3.703,1,0,6,6,34,1,8,×,8,8 × 8,neutral,tie,1.5,1.5,64,,,,,,,,
,,,,,,,,,,,,,,,805,2022-01-21_09h03.20.238,multiplicationStroop,2021.2.3,Win32,60.27000964,,,,,,,,,,,,,,,,,,,,,,,,,,,,,,,,,42,3.3369,1,0,7,7,20,1,7,×,6,7 × 6,neutral,largerFirst,1.5,1.5,42,,,,,,,,
,,,,,,,,,,,,,,,805,2022-01-21_09h03.20.238,multiplicationStroop,2021.2.3,Win32,60.27000964,,,,,,,,,,,,,,,,,,,,,,,,,,,,,,,,,40,2.1641,1,0,8,8,10,1,5,×,8,5 × 8,neutral,smallerFirst,1.5,1.5,40,,,,,,,,
,,,,,,,,,,,,,,,805,2022-01-21_09h03.20.238,multiplicationStroop,2021.2.3,Win32,60.27000964,,,,,,,,,,,,,,,,,,,,,,,,,,,,,,,,,12,1.664,1,0,9,9,7,1,3,×,4,3 × 4,neutral,smallerFirst,1.5,1.5,12,,,,,,,,
,,,,,,,,,,,,,,,805,2022-01-21_09h03.20.238,multiplicationStroop,2021.2.3,Win32,60.27000964,,,,,,,,,,,,,,,,,,,,,,,,,,,,,,,,,45,2.5798,1,0,10,10,24,1,9,×,5,9 × 5,neutral,largerFirst,1.5,1.5,45,,,,,,,,
,,,,,,,,,,,,,,,805,2022-01-21_09h03.20.238,multiplicationStroop,2021.2.3,Win32,60.27000964,,,,,,,,,,,,,,,,,,,,,,,,,,,,,,,,,35,2.4971,1,0,11,11,15,1,7,×,5,7 × 5,neutral,largerFirst,1.5,1.5,35,,,,,,,,
,,,,,,,,,,,,,,,805,2022-01-21_09h03.20.238,multiplicationStroop,2021.2.3,Win32,60.27000964,,,,,,,,,,,,,,,,,,,,,,,,,,,,,,,,,10,1.9211,1,0,12,12,18,1,5,×,2,5 × 2,neutral,largerFirst,1.5,1.5,10,,,,,,,,
,,,,,,,,,,,,,,,805,2022-01-21_09h03.20.238,multiplicationStroop,2021.2.3,Win32,60.27000964,,,,,,,,,,,,,,,,,,,,,,,,,,,,,,,,,56,1.9973,1,0,13,13,23,1,8,×,7,8 × 7,neutral,largerFirst,1.5,1.5,56,,,,,,,,
,,,,,,,,,,,,,,,805,2022-01-21_09h03.20.238,multiplicationStroop,2021.2.3,Win32,60.27000964,,,,,,,,,,,,,,,,,,,,,,,,,,,,,,,,,21,8.7415,1,0,14,14,22,1,7,×,3,7 × 3,neutral,largerFirst,1.5,1.5,21,,,,,,,,
,,,,,,,,,,,,,,,805,2022-01-21_09h03.20.238,multiplicationStroop,2021.2.3,Win32,60.27000964,,,,,,,,,,,,,,,,,,,,,,,,,,,,,,,,,9,2.4013,1,0,15,15,29,1,3,×,3,3 × 3,neutral,tie,1.5,1.5,9,,,,,,,,
,,,,,,,,,,,,,,,805,2022-01-21_09h03.20.238,multiplicationStroop,2021.2.3,Win32,60.27000964,,,,,,,,,,,,,,,,,,,,,,,,,,,,,,,,,24,2.8634,1,0,16,16,16,1,6,×,4,6 × 4,neutral,largerFirst,1.5,1.5,24,,,,,,,,
,,,,,,,,,,,,,,,805,2022-01-21_09h03.20.238,multiplicationStroop,2021.2.3,Win32,60.27000964,,,,,,,,,,,,,,,,,,,,,,,,,,,,,,,,,72,4.4528,1,0,17,17,25,1,9,×,8,9 × 8,neutral,largerFirst,1.5,1.5,72,,,,,,,,
,,,,,,,,,,,,,,,805,2022-01-21_09h03.20.238,multiplicationStroop,2021.2.3,Win32,60.27000964,,,,,,,,,,,,,,,,,,,,,,,,,,,,,,,,,25,1.9191,1,0,18,18,31,1,5,×,5,5 × 5,neutral,tie,1.5,1.5,25,,,,,,,,
,,,,,,,,,,,,,,,805,2022-01-21_09h03.20.238,multiplicationStroop,2021.2.3,Win32,60.27000964,,,,,,,,,,,,,,,,,,,,,,,,,,,,,,,,,54,3.7628,1,0,19,19,21,1,9,×,6,9 × 6,neutral,largerFirst,1.5,1.5,54,,,,,,,,
,,,,,,,,,,,,,,,805,2022-01-21_09h03.20.238,multiplicationStroop,2021.2.3,Win32,60.27000964,,,,,,,,,,,,,,,,,,,,,,,,,,,,,,,,,6,2.4043,1,0,20,20,12,1,2,×,3,2 × 3,neutral,smallerFirst,1.5,1.5,6,,,,,,,,
,,,,,,,,,,,,,,,805,2022-01-21_09h03.20.238,multiplicationStroop,2021.2.3,Win32,60.27000964,,,,,,,,,,,,,,,,,,,,,,,,,,,,,,,,,30,2.2974,1,0,21,21,5,1,5,×,6,5 × 6,neutral,smallerFirst,1.5,1.5,30,,,,,,,,
,,,,,,,,,,,,,,,805,2022-01-21_09h03.20.238,multiplicationStroop,2021.2.3,Win32,60.27000964,,,,,,,,,,,,,,,,,,,,,,,,,,,,,,,,,16,1.8639,1,0,22,22,30,1,4,×,4,4 × 4,neutral,tie,1.5,1.5,16,,,,,,,,
,,,,,,,,,,,,,,,805,2022-01-21_09h03.20.238,multiplicationStroop,2021.2.3,Win32,60.27000964,,,,,,,,,,,,,,,,,,,,,,,,,,,,,,,,,28,5.8439,1,0,23,23,3,1,4,×,7,4 × 7,neutral,smallerFirst,1.5,1.5,28,,,,,,,,
,,,,,,,,,,,,,,,805,2022-01-21_09h03.20.238,multiplicationStroop,2021.2.3,Win32,60.27000964,,,,,,,,,,,,,,,,,,,,,,,,,,,,,,,,,32,3.187,1,0,24,24,9,1,4,×,8,4 × 8,neutral,smallerFirst,1.5,1.5,32,,,,,,,,
,,,,,,,,,,,,,,,805,2022-01-21_09h03.20.238,multiplicationStroop,2021.2.3,Win32,60.27000964,,,,,,,,,,,,,,,,,,,,,,,,,,,,,,,,,12,1.5982,1,0,25,25,11,1,2,×,6,2 × 6,neutral,smallerFirst,1.5,1.5,12,,,,,,,,
,,,,,,,,,,,,,,,805,2022-01-21_09h03.20.238,multiplicationStroop,2021.2.3,Win32,60.27000964,,,,,,,,,,,,,,,,,,,,,,,,,,,,,,,,,15,1.7641,1,0,26,26,19,1,5,×,3,5 × 3,neutral,largerFirst,1.5,1.5,15,,,,,,,,
,,,,,,,,,,,,,,,805,2022-01-21_09h03.20.238,multiplicationStroop,2021.2.3,Win32,60.27000964,,,,,,,,,,,,,,,,,,,,,,,,,,,,,,,,,48,6.7931,1,0,27,27,1,1,6,×,8,6 × 8,neutral,smallerFirst,1.5,1.5,48,,,,,,,,
,,,,,,,,,,,,,,,805,2022-01-21_09h03.20.238,multiplicationStroop,2021.2.3,Win32,60.27000964,,,,,,,,,,,,,,,,,,,,,,,,,,,,,,,,,49,2.4868,1,0,28,28,33,1,7,×,7,7 × 7,neutral,tie,1.5,1.5,49,,,,,,,,
,,,,,,,,,,,,,,,805,2022-01-21_09h03.20.238,multiplicationStroop,2021.2.3,Win32,60.27000964,,,,,,,,,,,,,,,,,,,,,,,,,,,,,,,,,20,1.9974,1,0,29,29,6,1,4,×,5,4 × 5,neutral,smallerFirst,1.5,1.5,20,,,,,,,,
,,,,,,,,,,,,,,,805,2022-01-21_09h03.20.238,multiplicationStroop,2021.2.3,Win32,60.27000964,,,,,,,,,,,,,,,,,,,,,,,,,,,,,,,,,63,4.9103,1,0,30,30,26,1,9,×,7,9 × 7,neutral,largerFirst,1.5,1.5,63,,,,,,,,
,,,,,,,,,,,,,,,805,2022-01-21_09h03.20.238,multiplicationStroop,2021.2.3,Win32,60.27000964,,,,,,,,,,,,,,,,,,,,,,,,,,,,,,,,,4,1.8721,1,0,31,31,28,1,2,×,2,2 × 2,neutral,tie,1.5,1.5,4,,,,,,,,
,,,,,,,,,,,,,,,805,2022-01-21_09h03.20.238,multiplicationStroop,2021.2.3,Win32,60.27000964,,,,,,,,,,,,,,,,,,,,,,,,,,,,,,,,,8,2.1307,1,0,32,32,17,1,4,×,2,4 × 2,neutral,largerFirst,1.5,1.5,8,,,,,,,,
,,,,,,,,,,,,,,,805,2022-01-21_09h03.20.238,multiplicationStroop,2021.2.3,Win32,60.27000964,,,,,,,,,,,,,,,,,,,,,,,,,,,,,,,,,18,2.5137,1,0,33,33,14,1,6,×,3,6 × 3,neutral,largerFirst,1.5,1.5,18,,,,,,,,
,,,,,,,,,,,,,,,805,2022-01-21_09h03.20.238,multiplicationStroop,2021.2.3,Win32,60.27000964,,,,,,,,,,,,,,,,,,,,,,,,,,,,,,,,,14,1.5052,1,0,34,34,2,1,2,×,7,2 × 7,neutral,smallerFirst,1.5,1.5,14,,,,,,,,
,,,,,,,,,,,,,,,805,2022-01-21_09h03.20.238,multiplicationStroop,2021.2.3,Win32,60.27000964,,,,,,,,,,,,,,,,,,,,,,,,,,,,,,,,,16,1.7977,1,0,35,35,27,1,8,×,2,8 × 2,neutral,largerFirst,1.5,1.5,16,,,,,,,,
,,,,,,,,,,,,,,,805,2022-01-21_09h03.20.238,multiplicationStroop,2021.2.3,Win32,60.27000964,,,,,,,,,,,,,,,,,,,,,,,,,,,,,,,,,,,,,,,,,,,,,,,,,,0,1,1,0,1,stimulusFile/mult_blk1.xlsx,,
,,,,,,,,,,,,,,,805,2022-01-21_09h03.20.238,multiplicationStroop,2021.2.3,Win32,60.27000964,,,,,,,,,,,,,,,,,,,,,,,,,,,,,,,space,2.0616,4,1.5864,1,0,0,0,28,1,2,×,2,2 × 2,neutral,tie,1.5,1.5,4,,,,,,,,
,,,,,,,,,,,,,,,805,2022-01-21_09h03.20.238,multiplicationStroop,2021.2.3,Win32,60.27000964,,,,,,,,,,,,,,,,,,,,,,,,,,,,,,,,,36,2.8133,1,0,1,1,32,1,6,×,6,6 × 6,neutral,tie,1.5,1.5,36,,,,,,,,
,,,,,,,,,,,,,,,805,2022-01-21_09h03.20.238,multiplicationStroop,2021.2.3,Win32,60.27000964,,,,,,,,,,,,,,,,,,,,,,,,,,,,,,,,,42,2.1806,1,0,2,2,6,1,6,×,7,6 × 7,neutral,smallerFirst,1.5,1.5,42,,,,,,,,
,,,,,,,,,,,,,,,805,2022-01-21_09h03.20.238,multiplicationStroop,2021.2.3,Win32,60.27000964,,,,,,,,,,,,,,,,,,,,,,,,,,,,,,,,,28,3.6029,1,0,3,3,17,1,7,×,4,7 × 4,neutral,largerFirst,1.5,1.5,28,,,,,,,,
,,,,,,,,,,,,,,,805,2022-01-21_09h03.20.238,multiplicationStroop,2021.2.3,Win32,60.27000964,,,,,,,,,,,,,,,,,,,,,,,,,,,,,,,,,15,1.7485,1,0,4,4,5,1,3,×,5,3 × 5,neutral,smallerFirst,1.5,1.5,15,,,,,,,,
,,,,,,,,,,,,,,,805,2022-01-21_09h03.20.238,multiplicationStroop,2021.2.3,Win32,60.27000964,,,,,,,,,,,,,,,,,,,,,,,,,,,,,,,,,35,1.8143,1,0,5,5,1,1,5,×,7,5 × 7,neutral,smallerFirst,1.5,1.5,35,,,,,,,,
,,,,,,,,,,,,,,,805,2022-01-21_09h03.20.238,multiplicationStroop,2021.2.3,Win32,60.27000964,,,,,,,,,,,,,,,,,,,,,,,,,,,,,,,,,48,3.7957,1,0,6,6,15,1,8,×,6,8 × 6,neutral,largerFirst,1.5,1.5,48,,,,,,,,
,,,,,,,,,,,,,,,805,2022-01-21_09h03.20.238,multiplicationStroop,2021.2.3,Win32,60.27000964,,,,,,,,,,,,,,,,,,,,,,,,,,,,,,,,,49,2.2523,1,0,7,7,33,1,7,×,7,7 × 7,neutral,tie,1.5,1.5,49,,,,,,,,
,,,,,,,,,,,,,,,805,2022-01-21_09h03.20.238,multiplicationStroop,2021.2.3,Win32,60.27000964,,,,,,,,,,,,,,,,,,,,,,,,,,,,,,,,,36,2.23,1,0,8,8,27,1,9,×,4,9 × 4,neutral,largerFirst,1.5,1.5,36,,,,,,,,
,,,,,,,,,,,,,,,805,2022-01-21_09h03.20.238,multiplicationStroop,2021.2.3,Win32,60.27000964,,,,,,,,,,,,,,,,,,,,,,,,,,,,,,,,,20,1.8478,1,0,9,9,20,1,5,×,4,5 × 4,neutral,largerFirst,1.5,1.5,20,,,,,,,,
,,,,,,,,,,,,,,,805,2022-01-21_09h03.20.238,multiplicationStroop,2021.2.3,Win32,60.27000964,,,,,,,,,,,,,,,,,,,,,,,,,,,,,,,,,18,2.3472,1,0,10,10,0,1,3,×,6,3 × 6,neutral,smallerFirst,1.5,1.5,18,,,,,,,,
,,,,,,,,,,,,,,,805,2022-01-21_09h03.20.238,multiplicationStroop,2021.2.3,Win32,60.27000964,,,,,,,,,,,,,,,,,,,,,,,,,,,,,,,,,16,1.9468,1,0,11,11,13,1,2,×,8,2 × 8,neutral,smallerFirst,1.5,1.5,16,,,,,,,,
,,,,,,,,,,,,,,,805,2022-01-21_09h03.20.238,multiplicationStroop,2021.2.3,Win32,60.27000964,,,,,,,,,,,,,,,,,,,,,,,,,,,,,,,,,27,2.2143,1,0,12,12,14,1,9,×,3,9 × 3,neutral,largerFirst,1.5,1.5,27,,,,,,,,
,,,,,,,,,,,,,,,805,2022-01-21_09h03.20.238,multiplicationStroop,2021.2.3,Win32,60.27000964,,,,,,,,,,,,,,,,,,,,,,,,,,,,,,,,,8,2.0309,1,0,13,13,3,1,2,×,4,2 × 4,neutral,smallerFirst,1.5,1.5,8,,,,,,,,
,,,,,,,,,,,,,,,805,2022-01-21_09h03.20.238,multiplicationStroop,2021.2.3,Win32,60.27000964,,,,,,,,,,,,,,,,,,,,,,,,,,,,,,,,,12,1.7978,1,0,14,14,21,1,4,×,3,4 × 3,neutral,largerFirst,1.5,1.5,12,,,,,,,,
,,,,,,,,,,,,,,,805,2022-01-21_09h03.20.238,multiplicationStroop,2021.2.3,Win32,60.27000964,,,,,,,,,,,,,,,,,,,,,,,,,,,,,,,,,6,1.7811,1,0,15,15,26,1,3,×,2,3 × 2,neutral,largerFirst,1.5,1.5,6,,,,,,,,
,,,,,,,,,,,,,,,805,2022-01-21_09h03.20.238,multiplicationStroop,2021.2.3,Win32,60.27000964,,,,,,,,,,,,,,,,,,,,,,,,,,,,,,,,,49,2.8795,0,0,16,16,35,1,9,×,9,9 × 9,neutral,tie,1.5,1.5,81,,,,,,,,
,,,,,,,,,,,,,,,805,2022-01-21_09h03.20.238,multiplicationStroop,2021.2.3,Win32,60.27000964,,,,,,,,,,,,,,,,,,,,,,,,,,,,,,,,,56,2.9709,1,0,17,17,9,1,7,×,8,7 × 8,neutral,smallerFirst,1.5,1.5,56,,,,,,,,
,,,,,,,,,,,,,,,805,2022-01-21_09h03.20.238,multiplicationStroop,2021.2.3,Win32,60.27000964,,,,,,,,,,,,,,,,,,,,,,,,,,,,,,,,,9,2.0139,1,0,18,18,29,1,3,×,3,3 × 3,neutral,tie,1.5,1.5,9,,,,,,,,
,,,,,,,,,,,,,,,805,2022-01-21_09h03.20.238,multiplicationStroop,2021.2.3,Win32,60.27000964,,,,,,,,,,,,,,,,,,,,,,,,,,,,,,,,,45,2.1308,1,0,19,19,10,1,5,×,9,5 × 9,neutral,smallerFirst,1.5,1.5,45,,,,,,,,
,,,,,,,,,,,,,,,805,2022-01-21_09h03.20.238,multiplicationStroop,2021.2.3,Win32,60.27000964,,,,,,,,,,,,,,,,,,,,,,,,,,,,,,,,,40,2.0647,1,0,20,20,24,1,8,×,5,8 × 5,neutral,largerFirst,1.5,1.5,40,,,,,,,,
,,,,,,,,,,,,,,,805,2022-01-21_09h03.20.238,multiplicationStroop,2021.2.3,Win32,60.27000964,,,,,,,,,,,,,,,,,,,,,,,,,,,,,,,,,63,3.9125,1,0,21,21,12,1,7,×,9,7 × 9,neutral,smallerFirst,1.5,1.5,63,,,,,,,,
,,,,,,,,,,,,,,,805,2022-01-21_09h03.20.238,multiplicationStroop,2021.2.3,Win32,60.27000964,,,,,,,,,,,,,,,,,,,,,,,,,,,,,,,,,16,1.9365,1,0,22,22,30,1,4,×,4,4 × 4,neutral,tie,1.5,1.5,16,,,,,,,,
,,,,,,,,,,,,,,,805,2022-01-21_09h03.20.238,multiplicationStroop,2021.2.3,Win32,60.27000964,,,,,,,,,,,,,,,,,,,,,,,,,,,,,,,,,72,3.6961,1,0,23,23,11,1,8,×,9,8 × 9,neutral,smallerFirst,1.5,1.5,72,,,,,,,,
,,,,,,,,,,,,,,,805,2022-01-21_09h03.20.238,multiplicationStroop,2021.2.3,Win32,60.27000964,,,,,,,,,,,,,,,,,,,,,,,,,,,,,,,,,21,1.855,1,0,24,24,8,1,3,×,7,3 × 7,neutral,smallerFirst,1.5,1.5,21,,,,,,,,
,,,,,,,,,,,,,,,805,2022-01-21_09h03.20.238,multiplicationStroop,2021.2.3,Win32,60.27000964,,,,,,,,,,,,,,,,,,,,,,,,,,,,,,,,,25,1.8644,1,0,25,25,31,1,5,×,5,5 × 5,neutral,tie,1.5,1.5,25,,,,,,,,
,,,,,,,,,,,,,,,805,2022-01-21_09h03.20.238,multiplicationStroop,2021.2.3,Win32,60.27000964,,,,,,,,,,,,,,,,,,,,,,,,,,,,,,,,,12,1.5977,1,0,26,26,25,1,6,×,2,6 × 2,neutral,largerFirst,1.5,1.5,12,,,,,,,,
,,,,,,,,,,,,,,,805,2022-01-21_09h03.20.238,multiplicationStroop,2021.2.3,Win32,60.27000964,,,,,,,,,,,,,,,,,,,,,,,,,,,,,,,,,30,2.1305,1,0,27,27,19,1,6,×,5,6 × 5,neutral,largerFirst,1.5,1.5,30,,,,,,,,
,,,,,,,,,,,,,,,805,2022-01-21_09h03.20.238,multiplicationStroop,2021.2.3,Win32,60.27000964,,,,,,,,,,,,,,,,,,,,,,,,,,,,,,,,,32,2.1475,1,0,28,28,23,1,8,×,4,8 × 4,neutral,largerFirst,1.5,1.5,32,,,,,,,,
,,,,,,,,,,,,,,,805,2022-01-21_09h03.20.238,multiplicationStroop,2021.2.3,Win32,60.27000964,,,,,,,,,,,,,,,,,,,,,,,,,,,,,,,,,54,3.3125,1,0,29,29,7,1,6,×,9,6 × 9,neutral,smallerFirst,1.5,1.5,54,,,,,,,,
,,,,,,,,,,,,,,,805,2022-01-21_09h03.20.238,multiplicationStroop,2021.2.3,Win32,60.27000964,,,,,,,,,,,,,,,,,,,,,,,,,,,,,,,,,18,2.1137,1,0,30,30,18,1,9,×,2,9 × 2,neutral,largerFirst,1.5,1.5,18,,,,,,,,
,,,,,,,,,,,,,,,805,2022-01-21_09h03.20.238,multiplicationStroop,2021.2.3,Win32,60.27000964,,,,,,,,,,,,,,,,,,,,,,,,,,,,,,,,,64,2.82,1,0,31,31,34,1,8,×,8,8 × 8,neutral,tie,1.5,1.5,64,,,,,,,,
,,,,,,,,,,,,,,,805,2022-01-21_09h03.20.238,multiplicationStroop,2021.2.3,Win32,60.27000964,,,,,,,,,,,,,,,,,,,,,,,,,,,,,,,,,14,1.5291,1,0,32,32,16,1,7,×,2,7 × 2,neutral,largerFirst,1.5,1.5,14,,,,,,,,
,,,,,,,,,,,,,,,805,2022-01-21_09h03.20.238,multiplicationStroop,2021.2.3,Win32,60.27000964,,,,,,,,,,,,,,,,,,,,,,,,,,,,,,,,,18,3.9286,0,0,33,33,22,1,8,×,3,8 × 3,neutral,largerFirst,1.5,1.5,24,,,,,,,,
,,,,,,,,,,,,,,,805,2022-01-21_09h03.20.238,multiplicationStroop,2021.2.3,Win32,60.27000964,,,,,,,,,,,,,,,,,,,,,,,,,,,,,,,,,10,2.6034,1,0,34,34,4,1,2,×,5,2 × 5,neutral,smallerFirst,1.5,1.5,10,,,,,,,,
,,,,,,,,,,,,,,,805,2022-01-21_09h03.20.238,multiplicationStroop,2021.2.3,Win32,60.27000964,,,,,,,,,,,,,,,,,,,,,,,,,,,,,,,,,24,1.8805,1,0,35,35,2,1,4,×,6,4 × 6,neutral,smallerFirst,1.5,1.5,24,,,,,,,,
,,,,,,,,,,,,,,,805,2022-01-21_09h03.20.238,multiplicationStroop,2021.2.3,Win32,60.27000964,,,,,,,,,,,,,,,,,,,,,,,,,,,,,,,,,,,,,,,,,,,,,,,,,,0,2,2,1,1,stimulusFile/mult_blk2.xlsx,,
,,,,,,,,,,,,,,,805,2022-01-21_09h03.20.238,multiplicationStroop,2021.2.3,Win32,60.27000964,,,,,,,,,,,,,,,,,,,,,,,,,,,,,,,space,1.465,15,1.6839,1,0,0,0,10,1,3,×,5,3 × 5,incongruent,smallerFirst,2,1,15,,,,,,,,
,,,,,,,,,,,,,,,805,2022-01-21_09h03.20.238,multiplicationStroop,2021.2.3,Win32,60.27000964,,,,,,,,,,,,,,,,,,,,,,,,,,,,,,,,,42,2.3799,1,0,1,1,17,1,7,×,6,7 × 6,incongruent,largerFirst,1,2,42,,,,,,,,
,,,,,,,,,,,,,,,805,2022-01-21_09h03.20.238,multiplicationStroop,2021.2.3,Win32,60.27000964,,,,,,,,,,,,,,,,,,,,,,,,,,,,,,,,,21,2.0145,1,0,2,2,26,1,7,×,3,7 × 3,incongruent,largerFirst,1,2,21,,,,,,,,
,,,,,,,,,,,,,,,805,2022-01-21_09h03.20.238,multiplicationStroop,2021.2.3,Win32,60.27000964,,,,,,,,,,,,,,,,,,,,,,,,,,,,,,,,,32,2.3474,1,0,3,3,7,1,4,×,8,4 × 8,incongruent,smallerFirst,2,1,32,,,,,,,,
,,,,,,,,,,,,,,,805,2022-01-21_09h03.20.238,multiplicationStroop,2021.2.3,Win32,60.27000964,,,,,,,,,,,,,,,,,,,,,,,,,,,,,,,,,45,3.4455,1,0,4,4,22,1,9,×,5,9 × 5,incongruent,largerFirst,1,2,45,,,,,,,,
,,,,,,,,,,,,,,,805,2022-01-21_09h03.20.238,multiplicationStroop,2021.2.3,Win32,60.27000964,,,,,,,,,,,,,,,,,,,,,,,,,,,,,,,,,72,4.1191,1,0,5,5,0,1,8,×,9,8 × 9,incongruent,smallerFirst,2,1,72,,,,,,,,
,,,,,,,,,,,,,,,805,2022-01-21_09h03.20.238,multiplicationStroop,2021.2.3,Win32,60.27000964,,,,,,,,,,,,,,,,,,,,,,,,,,,,,,,,,56,2.0548,1,0,6,6,14,1,8,×,7,8 × 7,incongruent,largerFirst,1,2,56,,,,,,,,
,,,,,,,,,,,,,,,805,2022-01-21_09h03.20.238,multiplicationStroop,2021.2.3,Win32,60.27000964,,,,,,,,,,,,,,,,,,,,,,,,,,,,,,,,,6,2.9633,1,0,7,7,11,1,2,×,3,2 × 3,incongruent,smallerFirst,2,1,6,,,,,,,,
,,,,,,,,,,,,,,,805,2022-01-21_09h03.20.238,multiplicationStroop,2021.2.3,Win32,60.27000964,,,,,,,,,,,,,,,,,,,,,,,,,,,,,,,,,20,2.0307,1,0,8,8,27,1,5,×,4,5 × 4,incongruent,largerFirst,1,2,20,,,,,,,,
,,,,,,,,,,,,,,,805,2022-01-21_09h03.20.238,multiplicationStroop,2021.2.3,Win32,60.27000964,,,,,,,,,,,,,,,,,,,,,,,,,,,,,,,,,30,1.8977,1,0,9,9,25,1,6,×,5,6 × 5,incongruent,largerFirst,1,2,30,,,,,,,,
,,,,,,,,,,,,,,,805,2022-01-21_09h03.20.238,multiplicationStroop,2021.2.3,Win32,60.27000964,,,,,,,,,,,,,,,,,,,,,,,,,,,,,,,,,18,1.8805,1,0,10,10,2,1,2,×,9,2 × 9,incongruent,smallerFirst,2,1,18,,,,,,,,
,,,,,,,,,,,,,,,805,2022-01-21_09h03.20.238,multiplicationStroop,2021.2.3,Win32,60.27000964,,,,,,,,,,,,,,,,,,,,,,,,,,,,,,,,,24,3.297,1,0,11,11,20,1,6,×,4,6 × 4,incongruent,largerFirst,1,2,24,,,,,,,,
,,,,,,,,,,,,,,,805,2022-01-21_09h03.20.238,multiplicationStroop,2021.2.3,Win32,60.27000964,,,,,,,,,,,,,,,,,,,,,,,,,,,,,,,,,28,3.1356,1,0,12,12,16,1,7,×,4,7 × 4,incongruent,largerFirst,1,2,28,,,,,,,,
,,,,,,,,,,,,,,,805,2022-01-21_09h03.20.238,multiplicationStroop,2021.2.3,Win32,60.27000964,,,,,,,,,,,,,,,,,,,,,,,,,,,,,,,,,63,4.4949,1,0,13,13,3,1,7,×,9,7 × 9,incongruent,smallerFirst,2,1,63,,,,,,,,
,,,,,,,,,,,,,,,805,2022-01-21_09h03.20.238,multiplicationStroop,2021.2.3,Win32,60.27000964,,,,,,,,,,,,,,,,,,,,,,,,,,,,,,,,,54,2.4873,1,0,14,14,6,1,6,×,9,6 × 9,incongruent,smallerFirst,2,1,54,,,,,,,,
,,,,,,,,,,,,,,,805,2022-01-21_09h03.20.238,multiplicationStroop,2021.2.3,Win32,60.27000964,,,,,,,,,,,,,,,,,,,,,,,,,,,,,,,,,48,3.5793,1,0,15,15,1,1,6,×,8,6 × 8,incongruent,smallerFirst,2,1,48,,,,,,,,
,,,,,,,,,,,,,,,805,2022-01-21_09h03.20.238,multiplicationStroop,2021.2.3,Win32,60.27000964,,,,,,,,,,,,,,,,,,,,,,,,,,,,,,,,,18,3.3204,0,0,16,16,9,1,3,×,8,3 × 8,incongruent,smallerFirst,2,1,24,,,,,,,,
,,,,,,,,,,,,,,,805,2022-01-21_09h03.20.238,multiplicationStroop,2021.2.3,Win32,60.27000964,,,,,,,,,,,,,,,,,,,,,,,,,,,,,,,,,35,2.0971,1,0,17,17,12,1,5,×,7,5 × 7,incongruent,smallerFirst,2,1,35,,,,,,,,
,,,,,,,,,,,,,,,805,2022-01-21_09h03.20.238,multiplicationStroop,2021.2.3,Win32,60.27000964,,,,,,,,,,,,,,,,,,,,,,,,,,,,,,,,,18,2.1968,1,0,18,18,8,1,3,×,6,3 × 6,incongruent,smallerFirst,2,1,18,,,,,,,,
,,,,,,,,,,,,,,,805,2022-01-21_09h03.20.238,multiplicationStroop,2021.2.3,Win32,60.27000964,,,,,,,,,,,,,,,,,,,,,,,,,,,,,,,,,10,1.7142,1,0,19,19,21,1,5,×,2,5 × 2,incongruent,largerFirst,1,2,10,,,,,,,,
,,,,,,,,,,,,,,,805,2022-01-21_09h03.20.238,multiplicationStroop,2021.2.3,Win32,60.27000964,,,,,,,,,,,,,,,,,,,,,,,,,,,,,,,,,25,2.2643,1,0,20,20,31,1,5,×,5,5 × 5,incongruent,tie,1,2,25,,,,,,,,
,,,,,,,,,,,,,,,805,2022-01-21_09h03.20.238,multiplicationStroop,2021.2.3,Win32,60.27000964,,,,,,,,,,,,,,,,,,,,,,,,,,,,,,,,,8,2.5135,1,0,21,21,24,1,4,×,2,4 × 2,incongruent,largerFirst,1,2,8,,,,,,,,
,,,,,,,,,,,,,,,805,2022-01-21_09h03.20.238,multiplicationStroop,2021.2.3,Win32,60.27000964,,,,,,,,,,,,,,,,,,,,,,,,,,,,,,,,,16,1.9376,1,0,22,22,23,1,8,×,2,8 × 2,incongruent,largerFirst,1,2,16,,,,,,,,
,,,,,,,,,,,,,,,805,2022-01-21_09h03.20.238,multiplicationStroop,2021.2.3,Win32,60.27000964,,,,,,,,,,,,,,,,,,,,,,,,,,,,,,,,,27,2.2138,1,0,23,23,18,1,9,×,3,9 × 3,incongruent,largerFirst,1,2,27,,,,,,,,
,,,,,,,,,,,,,,,805,2022-01-21_09h03.20.238,multiplicationStroop,2021.2.3,Win32,60.27000964,,,,,,,,,,,,,,,,,,,,,,,,,,,,,,,,,36,2.2311,1,0,24,24,32,1,6,×,6,6 × 6,incongruent,tie,1,2,36,,,,,,,,
,,,,,,,,,,,,,,,805,2022-01-21_09h03.20.238,multiplicationStroop,2021.2.3,Win32,60.27000964,,,,,,,,,,,,,,,,,,,,,,,,,,,,,,,,,14,1.8643,1,0,25,25,4,1,2,×,7,2 × 7,incongruent,smallerFirst,2,1,14,,,,,,,,
,,,,,,,,,,,,,,,805,2022-01-21_09h03.20.238,multiplicationStroop,2021.2.3,Win32,60.27000964,,,,,,,,,,,,,,,,,,,,,,,,,,,,,,,,,16,4.1452,1,0,26,26,30,1,4,×,4,4 × 4,incongruent,tie,1,2,16,,,,,,,,
,,,,,,,,,,,,,,,805,2022-01-21_09h03.20.238,multiplicationStroop,2021.2.3,Win32,60.27000964,,,,,,,,,,,,,,,,,,,,,,,,,,,,,,,,,64,2.8042,1,0,27,27,34,1,8,×,8,8 × 8,incongruent,tie,1,2,64,,,,,,,,
,,,,,,,,,,,,,,,805,2022-01-21_09h03.20.238,multiplicationStroop,2021.2.3,Win32,60.27000964,,,,,,,,,,,,,,,,,,,,,,,,,,,,,,,,,49,2.2808,1,0,28,28,33,1,7,×,7,7 × 7,incongruent,tie,1,2,49,,,,,,,,
,,,,,,,,,,,,,,,805,2022-01-21_09h03.20.238,multiplicationStroop,2021.2.3,Win32,60.27000964,,,,,,,,,,,,,,,,,,,,,,,,,,,,,,,,,81,2.8968,1,0,29,29,35,1,9,×,9,9 × 9,incongruent,tie,1,2,81,,,,,,,,
,,,,,,,,,,,,,,,805,2022-01-21_09h03.20.238,multiplicationStroop,2021.2.3,Win32,60.27000964,,,,,,,,,,,,,,,,,,,,,,,,,,,,,,,,,36,3.1869,1,0,30,30,15,1,9,×,4,9 × 4,incongruent,largerFirst,1,2,36,,,,,,,,
,,,,,,,,,,,,,,,805,2022-01-21_09h03.20.238,multiplicationStroop,2021.2.3,Win32,60.27000964,,,,,,,,,,,,,,,,,,,,,,,,,,,,,,,,,40,2.3299,1,0,31,31,13,1,5,×,8,5 × 8,incongruent,smallerFirst,2,1,40,,,,,,,,
,,,,,,,,,,,,,,,805,2022-01-21_09h03.20.238,multiplicationStroop,2021.2.3,Win32,60.27000964,,,,,,,,,,,,,,,,,,,,,,,,,,,,,,,,,12,1.623,1,0,32,32,19,1,6,×,2,6 × 2,incongruent,largerFirst,1,2,12,,,,,,,,
,,,,,,,,,,,,,,,805,2022-01-21_09h03.20.238,multiplicationStroop,2021.2.3,Win32,60.27000964,,,,,,,,,,,,,,,,,,,,,,,,,,,,,,,,,9,1.9476,1,0,33,33,29,1,3,×,3,3 × 3,incongruent,tie,1,2,9,,,,,,,,
,,,,,,,,,,,,,,,805,2022-01-21_09h03.20.238,multiplicationStroop,2021.2.3,Win32,60.27000964,,,,,,,,,,,,,,,,,,,,,,,,,,,,,,,,,12,1.5644,1,0,34,34,5,1,3,×,4,3 × 4,incongruent,smallerFirst,2,1,12,,,,,,,,
,,,,,,,,,,,,,,,805,2022-01-21_09h03.20.238,multiplicationStroop,2021.2.3,Win32,60.27000964,,,,,,,,,,,,,,,,,,,,,,,,,,,,,,,,,4,1.6984,1,0,35,35,28,1,2,×,2,2 × 2,incongruent,tie,1,2,4,,,,,,,,
,,,,,,,,,,,,,,,805,2022-01-21_09h03.20.238,multiplicationStroop,2021.2.3,Win32,60.27000964,,,,,,,,,,,,,,,,,,,,,,,,,,,,,,,,,,,,,,,,,,,,,,,,,,0,3,3,5,1,stimulusFile/mult_blk6_INcongruent.xlsx,,
,,,,,,,,,,,,,,,805,2022-01-21_09h03.20.238,multiplicationStroop,2021.2.3,Win32,60.27000964,,,,,,,,,,,,,,,,,,,,,,,,,,,,,,,space,1.5124,4,2.4196,1,0,0,0,28,1,2,×,2,2 × 2,neutral,tie,2,1,4,,,,,,,,
,,,,,,,,,,,,,,,805,2022-01-21_09h03.20.238,multiplicationStroop,2021.2.3,Win32,60.27000964,,,,,,,,,,,,,,,,,,,,,,,,,,,,,,,,,36,2.4138,1,0,1,1,32,1,6,×,6,6 × 6,neutral,tie,2,1,36,,,,,,,,
,,,,,,,,,,,,,,,805,2022-01-21_09h03.20.238,multiplicationStroop,2021.2.3,Win32,60.27000964,,,,,,,,,,,,,,,,,,,,,,,,,,,,,,,,,16,2.014,1,0,2,2,30,1,4,×,4,4 × 4,neutral,tie,2,1,16,,,,,,,,
,,,,,,,,,,,,,,,805,2022-01-21_09h03.20.238,multiplicationStroop,2021.2.3,Win32,60.27000964,,,,,,,,,,,,,,,,,,,,,,,,,,,,,,,,,8,1.9971,1,0,3,3,10,1,2,×,4,2 × 4,incongruent,smallerFirst,2,1,8,,,,,,,,
,,,,,,,,,,,,,,,805,2022-01-21_09h03.20.238,multiplicationStroop,2021.2.3,Win32,60.27000964,,,,,,,,,,,,,,,,,,,,,,,,,,,,,,,,,10,1.7648,1,0,4,4,7,1,2,×,5,2 × 5,incongruent,smallerFirst,2,1,10,,,,,,,,
,,,,,,,,,,,,,,,805,2022-01-21_09h03.20.238,multiplicationStroop,2021.2.3,Win32,60.27000964,,,,,,,,,,,,,,,,,,,,,,,,,,,,,,,,,27,2.5638,1,0,5,5,4,1,3,×,9,3 × 9,incongruent,smallerFirst,2,1,27,,,,,,,,
,,,,,,,,,,,,,,,805,2022-01-21_09h03.20.238,multiplicationStroop,2021.2.3,Win32,60.27000964,,,,,,,,,,,,,,,,,,,,,,,,,,,,,,,,,24,2.8966,1,0,6,6,6,1,4,×,6,4 × 6,incongruent,smallerFirst,2,1,24,,,,,,,,
,,,,,,,,,,,,,,,805,2022-01-21_09h03.20.238,multiplicationStroop,2021.2.3,Win32,60.27000964,,,,,,,,,,,,,,,,,,,,,,,,,,,,,,,,,15,1.7167,1,0,7,7,24,1,5,×,3,5 × 3,incongruent,largerFirst,1,2,15,,,,,,,,
,,,,,,,,,,,,,,,805,2022-01-21_09h03.20.238,multiplicationStroop,2021.2.3,Win32,60.27000964,,,,,,,,,,,,,,,,,,,,,,,,,,,,,,,,,18,1.8307,1,0,8,8,16,1,9,×,2,9 × 2,incongruent,largerFirst,1,2,18,,,,,,,,
,,,,,,,,,,,,,,,805,2022-01-21_09h03.20.238,multiplicationStroop,2021.2.3,Win32,60.27000964,,,,,,,,,,,,,,,,,,,,,,,,,,,,,,,,,54,3.3463,1,0,9,9,20,1,9,×,6,9 × 6,incongruent,largerFirst,1,2,54,,,,,,,,
,,,,,,,,,,,,,,,805,2022-01-21_09h03.20.238,multiplicationStroop,2021.2.3,Win32,60.27000964,,,,,,,,,,,,,,,,,,,,,,,,,,,,,,,,,64,2.2642,1,0,10,10,34,1,8,×,8,8 × 8,neutral,tie,2,1,64,,,,,,,,
,,,,,,,,,,,,,,,805,2022-01-21_09h03.20.238,multiplicationStroop,2021.2.3,Win32,60.27000964,,,,,,,,,,,,,,,,,,,,,,,,,,,,,,,,,21,2.9631,1,0,11,11,12,1,3,×,7,3 × 7,incongruent,smallerFirst,2,1,21,,,,,,,,
,,,,,,,,,,,,,,,805,2022-01-21_09h03.20.238,multiplicationStroop,2021.2.3,Win32,60.27000964,,,,,,,,,,,,,,,,,,,,,,,,,,,,,,,,,28,4.0861,1,0,12,12,2,1,4,×,7,4 × 7,incongruent,smallerFirst,2,1,28,,,,,,,,
,,,,,,,,,,,,,,,805,2022-01-21_09h03.20.238,multiplicationStroop,2021.2.3,Win32,60.27000964,,,,,,,,,,,,,,,,,,,,,,,,,,,,,,,,,20,2.5851,1,0,13,13,13,1,4,×,5,4 × 5,incongruent,smallerFirst,2,1,20,,,,,,,,
,,,,,,,,,,,,,,,805,2022-01-21_09h03.20.238,multiplicationStroop,2021.2.3,Win32,60.27000964,,,,,,,,,,,,,,,,,,,,,,,,,,,,,,,,,72,6.277,1,0,14,14,14,1,9,×,8,9 × 8,incongruent,largerFirst,1,2,72,,,,,,,,
,,,,,,,,,,,,,,,805,2022-01-21_09h03.20.238,multiplicationStroop,2021.2.3,Win32,60.27000964,,,,,,,,,,,,,,,,,,,,,,,,,,,,,,,,,18,2.2868,1,0,15,15,22,1,6,×,3,6 × 3,incongruent,largerFirst,1,2,18,,,,,,,,
,,,,,,,,,,,,,,,805,2022-01-21_09h03.20.238,multiplicationStroop,2021.2.3,Win32,60.27000964,,,,,,,,,,,,,,,,,,,,,,,,,,,,,,,,,14,1.5187,1,0,16,16,18,1,7,×,2,7 × 2,incongruent,largerFirst,1,2,14,,,,,,,,
,,,,,,,,,,,,,,,805,2022-01-21_09h03.20.238,multiplicationStroop,2021.2.3,Win32,60.27000964,,,,,,,,,,,,,,,,,,,,,,,,,,,,,,,,,9,1.748,1,0,17,17,29,1,3,×,3,3 × 3,neutral,tie,2,1,9,,,,,,,,
,,,,,,,,,,,,,,,805,2022-01-21_09h03.20.238,multiplicationStroop,2021.2.3,Win32,60.27000964,,,,,,,,,,,,,,,,,,,,,,,,,,,,,,,,,30,2.5635,1,0,18,18,11,1,5,×,6,5 × 6,incongruent,smallerFirst,2,1,30,,,,,,,,
,,,,,,,,,,,,,,,805,2022-01-21_09h03.20.238,multiplicationStroop,2021.2.3,Win32,60.27000964,,,,,,,,,,,,,,,,,,,,,,,,,,,,,,,,,49,2.1304,1,0,19,19,33,1,7,×,7,7 × 7,neutral,tie,2,1,49,,,,,,,,
,,,,,,,,,,,,,,,805,2022-01-21_09h03.20.238,multiplicationStroop,2021.2.3,Win32,60.27000964,,,,,,,,,,,,,,,,,,,,,,,,,,,,,,,,,32,2.0142,1,0,20,20,21,1,8,×,4,8 × 4,incongruent,largerFirst,1,2,32,,,,,,,,
,,,,,,,,,,,,,,,805,2022-01-21_09h03.20.238,multiplicationStroop,2021.2.3,Win32,60.27000964,,,,,,,,,,,,,,,,,,,,,,,,,,,,,,,,,12,1.4646,1,0,21,21,5,1,2,×,6,2 × 6,incongruent,smallerFirst,2,1,12,,,,,,,,
,,,,,,,,,,,,,,,805,2022-01-21_09h03.20.238,multiplicationStroop,2021.2.3,Win32,60.27000964,,,,,,,,,,,,,,,,,,,,,,,,,,,,,,,,,24,12.4382,1,0,22,22,23,1,8,×,3,8 × 3,incongruent,largerFirst,1,2,24,,,,,,,,
,,,,,,,,,,,,,,,805,2022-01-21_09h03.20.238,multiplicationStroop,2021.2.3,Win32,60.27000964,,,,,,,,,,,,,,,,,,,,,,,,,,,,,,,,,48,2.8866,1,0,23,23,15,1,8,×,6,8 × 6,incongruent,largerFirst,1,2,48,,,,,,,,
,,,,,,,,,,,,,,,805,2022-01-21_09h03.20.238,multiplicationStroop,2021.2.3,Win32,60.27000964,,,,,,,,,,,,,,,,,,,,,,,,,,,,,,,,,56,2.2641,1,0,24,24,0,1,7,×,8,7 × 8,incongruent,smallerFirst,2,1,56,,,,,,,,
,,,,,,,,,,,,,,,805,2022-01-21_09h03.20.238,multiplicationStroop,2021.2.3,Win32,60.27000964,,,,,,,,,,,,,,,,,,,,,,,,,,,,,,,,,12,1.4976,1,0,25,25,19,1,4,×,3,4 × 3,incongruent,largerFirst,1,2,12,,,,,,,,
,,,,,,,,,,,,,,,805,2022-01-21_09h03.20.238,multiplicationStroop,2021.2.3,Win32,60.27000964,,,,,,,,,,,,,,,,,,,,,,,,,,,,,,,,,81,3.4629,1,0,26,26,35,1,9,×,9,9 × 9,neutral,tie,2,1,81,,,,,,,,
,,,,,,,,,,,,,,,805,2022-01-21_09h03.20.238,multiplicationStroop,2021.2.3,Win32,60.27000964,,,,,,,,,,,,,,,,,,,,,,,,,,,,,,,,,35,1.8711,1,0,27,27,26,1,7,×,5,7 × 5,incongruent,largerFirst,1,2,35,,,,,,,,
,,,,,,,,,,,,,,,805,2022-01-21_09h03.20.238,multiplicationStroop,2021.2.3,Win32,60.27000964,,,,,,,,,,,,,,,,,,,,,,,,,,,,,,,,,42,2.6136,1,0,28,28,3,1,6,×,7,6 × 7,incongruent,smallerFirst,2,1,42,,,,,,,,
,,,,,,,,,,,,,,,805,2022-01-21_09h03.20.238,multiplicationStroop,2021.2.3,Win32,60.27000964,,,,,,,,,,,,,,,,,,,,,,,,,,,,,,,,,63,3.5177,1,0,29,29,17,1,9,×,7,9 × 7,incongruent,largerFirst,1,2,63,,,,,,,,
,,,,,,,,,,,,,,,805,2022-01-21_09h03.20.238,multiplicationStroop,2021.2.3,Win32,60.27000964,,,,,,,,,,,,,,,,,,,,,,,,,,,,,,,,,16,2.9545,1,0,30,30,9,1,2,×,8,2 × 8,incongruent,smallerFirst,2,1,16,,,,,,,,
,,,,,,,,,,,,,,,805,2022-01-21_09h03.20.238,multiplicationStroop,2021.2.3,Win32,60.27000964,,,,,,,,,,,,,,,,,,,,,,,,,,,,,,,,,40,2.3136,1,0,31,31,27,1,8,×,5,8 × 5,incongruent,largerFirst,1,2,40,,,,,,,,
,,,,,,,,,,,,,,,805,2022-01-21_09h03.20.238,multiplicationStroop,2021.2.3,Win32,60.27000964,,,,,,,,,,,,,,,,,,,,,,,,,,,,,,,,,25,1.8807,1,0,32,32,31,1,5,×,5,5 × 5,neutral,tie,2,1,25,,,,,,,,
,,,,,,,,,,,,,,,805,2022-01-21_09h03.20.238,multiplicationStroop,2021.2.3,Win32,60.27000964,,,,,,,,,,,,,,,,,,,,,,,,,,,,,,,,,36,3.5297,1,0,33,33,1,1,4,×,9,4 × 9,incongruent,smallerFirst,2,1,36,,,,,,,,
,,,,,,,,,,,,,,,805,2022-01-21_09h03.20.238,multiplicationStroop,2021.2.3,Win32,60.27000964,,,,,,,,,,,,,,,,,,,,,,,,,,,,,,,,,6,2.1867,1,0,34,34,25,1,3,×,2,3 × 2,incongruent,largerFirst,1,2,6,,,,,,,,
,,,,,,,,,,,,,,,805,2022-01-21_09h03.20.238,multiplicationStroop,2021.2.3,Win32,60.27000964,,,,,,,,,,,,,,,,,,,,,,,,,,,,,,,,,45,2.4806,1,0,35,35,8,1,5,×,9,5 × 9,incongruent,smallerFirst,2,1,45,,,,,,,,
,,,,,,,,,,,,,,,805,2022-01-21_09h03.20.238,multiplicationStroop,2021.2.3,Win32,60.27000964,,,,,,,,,,,,,,,,,,,,,,,,,,,,,,,,,,,,,,,,,,,,,,,,,,0,4,4,4,1,stimulusFile/mult_blk5_INcongruent.xlsx,,
,,,,,,,,,,,,,,,805,2022-01-21_09h03.20.238,multiplicationStroop,2021.2.3,Win32,60.27000964,,,,,,,,,,,,,,,,,,,,,,,,,,,,,,,space,1.4641,28,3.2346,1,0,0,0,27,1,7,×,4,7 × 4,congruent,largerFirst,2,1,28,,,,,,,,
,,,,,,,,,,,,,,,805,2022-01-21_09h03.20.238,multiplicationStroop,2021.2.3,Win32,60.27000964,,,,,,,,,,,,,,,,,,,,,,,,,,,,,,,,,27,3.1353,1,0,1,1,26,1,9,×,3,9 × 3,congruent,largerFirst,2,1,27,,,,,,,,
,,,,,,,,,,,,,,,805,2022-01-21_09h03.20.238,multiplicationStroop,2021.2.3,Win32,60.27000964,,,,,,,,,,,,,,,,,,,,,,,,,,,,,,,,,35,2.3644,1,0,2,2,1,1,5,×,7,5 × 7,congruent,smallerFirst,1,2,35,,,,,,,,
,,,,,,,,,,,,,,,805,2022-01-21_09h03.20.238,multiplicationStroop,2021.2.3,Win32,60.27000964,,,,,,,,,,,,,,,,,,,,,,,,,,,,,,,,,4,1.6306,1,0,3,3,28,1,2,×,2,2 × 2,neutral,tie,2,1,4,,,,,,,,
,,,,,,,,,,,,,,,805,2022-01-21_09h03.20.238,multiplicationStroop,2021.2.3,Win32,60.27000964,,,,,,,,,,,,,,,,,,,,,,,,,,,,,,,,,36,2.364,1,0,4,4,0,1,4,×,9,4 × 9,congruent,smallerFirst,1,2,36,,,,,,,,
,,,,,,,,,,,,,,,805,2022-01-21_09h03.20.238,multiplicationStroop,2021.2.3,Win32,60.27000964,,,,,,,,,,,,,,,,,,,,,,,,,,,,,,,,,72,3.8622,1,0,5,5,17,1,9,×,8,9 × 8,congruent,largerFirst,2,1,72,,,,,,,,
,,,,,,,,,,,,,,,805,2022-01-21_09h03.20.238,multiplicationStroop,2021.2.3,Win32,60.27000964,,,,,,,,,,,,,,,,,,,,,,,,,,,,,,,,,24,2.5188,1,0,6,6,10,1,3,×,8,3 × 8,congruent,smallerFirst,1,2,24,,,,,,,,
,,,,,,,,,,,,,,,805,2022-01-21_09h03.20.238,multiplicationStroop,2021.2.3,Win32,60.27000964,,,,,,,,,,,,,,,,,,,,,,,,,,,,,,,,,16,3.9853,1,0,7,7,5,1,2,×,8,2 × 8,congruent,smallerFirst,1,2,16,,,,,,,,
,,,,,,,,,,,,,,,805,2022-01-21_09h03.20.238,multiplicationStroop,2021.2.3,Win32,60.27000964,,,,,,,,,,,,,,,,,,,,,,,,,,,,,,,,,12,1.3879,1,0,8,8,19,1,6,×,2,6 × 2,congruent,largerFirst,2,1,12,,,,,,,,
,,,,,,,,,,,,,,,805,2022-01-21_09h03.20.238,multiplicationStroop,2021.2.3,Win32,60.27000964,,,,,,,,,,,,,,,,,,,,,,,,,,,,,,,,,8,1.8974,1,0,9,9,9,1,2,×,4,2 × 4,congruent,smallerFirst,1,2,8,,,,,,,,
,,,,,,,,,,,,,,,805,2022-01-21_09h03.20.238,multiplicationStroop,2021.2.3,Win32,60.27000964,,,,,,,,,,,,,,,,,,,,,,,,,,,,,,,,,30,2.3803,1,0,10,10,15,1,6,×,5,6 × 5,congruent,largerFirst,2,1,30,,,,,,,,
,,,,,,,,,,,,,,,805,2022-01-21_09h03.20.238,multiplicationStroop,2021.2.3,Win32,60.27000964,,,,,,,,,,,,,,,,,,,,,,,,,,,,,,,,,40,2.0641,1,0,11,11,6,1,5,×,8,5 × 8,congruent,smallerFirst,1,2,40,,,,,,,,
,,,,,,,,,,,,,,,805,2022-01-21_09h03.20.238,multiplicationStroop,2021.2.3,Win32,60.27000964,,,,,,,,,,,,,,,,,,,,,,,,,,,,,,,,,20,1.9634,1,0,12,12,7,1,4,×,5,4 × 5,congruent,smallerFirst,1,2,20,,,,,,,,
,,,,,,,,,,,,,,,805,2022-01-21_09h03.20.238,multiplicationStroop,2021.2.3,Win32,60.27000964,,,,,,,,,,,,,,,,,,,,,,,,,,,,,,,,,42,1.948,1,0,13,13,3,1,6,×,7,6 × 7,congruent,smallerFirst,1,2,42,,,,,,,,
,,,,,,,,,,,,,,,805,2022-01-21_09h03.20.238,multiplicationStroop,2021.2.3,Win32,60.27000964,,,,,,,,,,,,,,,,,,,,,,,,,,,,,,,,,54,4.4612,1,0,14,14,12,1,6,×,9,6 × 9,congruent,smallerFirst,1,2,54,,,,,,,,
,,,,,,,,,,,,,,,805,2022-01-21_09h03.20.238,multiplicationStroop,2021.2.3,Win32,60.27000964,,,,,,,,,,,,,,,,,,,,,,,,,,,,,,,,,49,2.1877,1,0,15,15,33,1,7,×,7,7 × 7,neutral,tie,2,1,49,,,,,,,,
,,,,,,,,,,,,,,,805,2022-01-21_09h03.20.238,multiplicationStroop,2021.2.3,Win32,60.27000964,,,,,,,,,,,,,,,,,,,,,,,,,,,,,,,,,18,3.5788,1,0,16,16,11,1,3,×,6,3 × 6,congruent,smallerFirst,1,2,18,,,,,,,,
,,,,,,,,,,,,,,,805,2022-01-21_09h03.20.238,multiplicationStroop,2021.2.3,Win32,60.27000964,,,,,,,,,,,,,,,,,,,,,,,,,,,,,,,,,56,2.0646,1,0,17,17,8,1,7,×,8,7 × 8,congruent,smallerFirst,1,2,56,,,,,,,,
,,,,,,,,,,,,,,,805,2022-01-21_09h03.20.238,multiplicationStroop,2021.2.3,Win32,60.27000964,,,,,,,,,,,,,,,,,,,,,,,,,,,,,,,,,36,2.5378,1,0,18,18,32,1,6,×,6,6 × 6,neutral,tie,2,1,36,,,,,,,,
,,,,,,,,,,,,,,,805,2022-01-21_09h03.20.238,multiplicationStroop,2021.2.3,Win32,60.27000964,,,,,,,,,,,,,,,,,,,,,,,,,,,,,,,,,21,1.4476,1,0,19,19,16,1,7,×,3,7 × 3,congruent,largerFirst,2,1,21,,,,,,,,
,,,,,,,,,,,,,,,805,2022-01-21_09h03.20.238,multiplicationStroop,2021.2.3,Win32,60.27000964,,,,,,,,,,,,,,,,,,,,,,,,,,,,,,,,,15,1.6475,1,0,20,20,4,1,3,×,5,3 × 5,congruent,smallerFirst,1,2,15,,,,,,,,
,,,,,,,,,,,,,,,805,2022-01-21_09h03.20.238,multiplicationStroop,2021.2.3,Win32,60.27000964,,,,,,,,,,,,,,,,,,,,,,,,,,,,,,,,,81,2.1478,1,0,21,21,35,1,9,×,9,9 × 9,neutral,tie,2,1,81,,,,,,,,
,,,,,,,,,,,,,,,805,2022-01-21_09h03.20.238,multiplicationStroop,2021.2.3,Win32,60.27000964,,,,,,,,,,,,,,,,,,,,,,,,,,,,,,,,,63,3.5962,1,0,22,22,21,1,9,×,7,9 × 7,congruent,largerFirst,2,1,63,,,,,,,,
,,,,,,,,,,,,,,,805,2022-01-21_09h03.20.238,multiplicationStroop,2021.2.3,Win32,60.27000964,,,,,,,,,,,,,,,,,,,,,,,,,,,,,,,,,45,2.4184,1,0,23,23,23,1,9,×,5,9 × 5,congruent,largerFirst,2,1,45,,,,,,,,
,,,,,,,,,,,,,,,805,2022-01-21_09h03.20.238,multiplicationStroop,2021.2.3,Win32,60.27000964,,,,,,,,,,,,,,,,,,,,,,,,,,,,,,,,,12,1.5149,1,0,24,24,2,1,3,×,4,3 × 4,congruent,smallerFirst,1,2,12,,,,,,,,
,,,,,,,,,,,,,,,805,2022-01-21_09h03.20.238,multiplicationStroop,2021.2.3,Win32,60.27000964,,,,,,,,,,,,,,,,,,,,,,,,,,,,,,,,,14,1.5809,1,0,25,25,14,1,7,×,2,7 × 2,congruent,largerFirst,2,1,14,,,,,,,,
,,,,,,,,,,,,,,,805,2022-01-21_09h03.20.238,multiplicationStroop,2021.2.3,Win32,60.27000964,,,,,,,,,,,,,,,,,,,,,,,,,,,,,,,,,16,1.8641,1,0,26,26,30,1,4,×,4,4 × 4,neutral,tie,2,1,16,,,,,,,,
,,,,,,,,,,,,,,,805,2022-01-21_09h03.20.238,multiplicationStroop,2021.2.3,Win32,60.27000964,,,,,,,,,,,,,,,,,,,,,,,,,,,,,,,,,24,1.9144,1,0,27,27,25,1,6,×,4,6 × 4,congruent,largerFirst,2,1,24,,,,,,,,
,,,,,,,,,,,,,,,805,2022-01-21_09h03.20.238,multiplicationStroop,2021.2.3,Win32,60.27000964,,,,,,,,,,,,,,,,,,,,,,,,,,,,,,,,,9,2.0308,1,0,28,28,29,1,3,×,3,3 × 3,neutral,tie,2,1,9,,,,,,,,
,,,,,,,,,,,,,,,805,2022-01-21_09h03.20.238,multiplicationStroop,2021.2.3,Win32,60.27000964,,,,,,,,,,,,,,,,,,,,,,,,,,,,,,,,,10,1.7979,1,0,29,29,24,1,5,×,2,5 × 2,congruent,largerFirst,2,1,10,,,,,,,,
,,,,,,,,,,,,,,,805,2022-01-21_09h03.20.238,multiplicationStroop,2021.2.3,Win32,60.27000964,,,,,,,,,,,,,,,,,,,,,,,,,,,,,,,,,6,1.9638,1,0,30,30,13,1,2,×,3,2 × 3,congruent,smallerFirst,1,2,6,,,,,,,,
,,,,,,,,,,,,,,,805,2022-01-21_09h03.20.238,multiplicationStroop,2021.2.3,Win32,60.27000964,,,,,,,,,,,,,,,,,,,,,,,,,,,,,,,,,32,1.8969,1,0,31,31,20,1,8,×,4,8 × 4,congruent,largerFirst,2,1,32,,,,,,,,
,,,,,,,,,,,,,,,805,2022-01-21_09h03.20.238,multiplicationStroop,2021.2.3,Win32,60.27000964,,,,,,,,,,,,,,,,,,,,,,,,,,,,,,,,,48,3.7294,1,0,32,32,18,1,8,×,6,8 × 6,congruent,largerFirst,2,1,48,,,,,,,,
,,,,,,,,,,,,,,,805,2022-01-21_09h03.20.238,multiplicationStroop,2021.2.3,Win32,60.27000964,,,,,,,,,,,,,,,,,,,,,,,,,,,,,,,,,64,2.4211,1,0,33,33,34,1,8,×,8,8 × 8,neutral,tie,2,1,64,,,,,,,,
,,,,,,,,,,,,,,,805,2022-01-21_09h03.20.238,multiplicationStroop,2021.2.3,Win32,60.27000964,,,,,,,,,,,,,,,,,,,,,,,,,,,,,,,,,25,1.8809,1,0,34,34,31,1,5,×,5,5 × 5,neutral,tie,2,1,25,,,,,,,,
,,,,,,,,,,,,,,,805,2022-01-21_09h03.20.238,multiplicationStroop,2021.2.3,Win32,60.27000964,,,,,,,,,,,,,,,,,,,,,,,,,,,,,,,,,18,1.9139,1,0,35,35,22,1,9,×,2,9 × 2,congruent,largerFirst,2,1,18,,,,,,,,
,,,,,,,,,,,,,,,805,2022-01-21_09h03.20.238,multiplicationStroop,2021.2.3,Win32,60.27000964,,,,,,,,,,,,,,,,,,,,,,,,,,,,,,,,,,,,,,,,,,,,,,,,,,0,5,5,2,1,stimulusFile/mult_blk3_congruent.xlsx,,
,,,,,,,,,,,,,,,805,2022-01-21_09h03.20.238,multiplicationStroop,2021.2.3,Win32,60.27000964,,,,,,,,,,,,,,,,,,,,,,,,,,,,,,,,,,,,,,,,,,,,,,,,,,,,,,,,space,5.5728