welcomeKey_resp.keys,welcomeKey_resp.rt,X Scale,Y Scale,rt_resp_4.keys,rt_resp_4.corr,rt_resp_4.rt,speedtest_2.thisRepN,speedtest_2.thisTrialN,speedtest_2.thisN,speedtest_2.thisIndex,speedtest_2.ran,numberSc,posX,positionLayout,participant,date,expName,psychopyVersion,OS,frameRate,ct_instrresp.keys,ct_instrresp.rt,key_resp_2.keys,key_resp_2.rt,ct_keyResp.keys,ct_keyResp.corr,ct_keyResp.rt,trials.thisRepN,trials.thisTrialN,trials.thisN,trials.thisIndex,trials.ran,leftNo,rightNo,displayProblem,numDistance,leftNo_size,rightNo_size,Dims,keyAnswer,TS_Loop.thisRepN,TS_Loop.thisTrialN,TS_Loop.thisN,TS_Loop.thisIndex,TS_Loop.ran,Condition,ActionInst,instrImage,mltptaskInst_resp.keys,mltptaskInst_resp.rt,continue_resp_2.keys,continue_resp_2.rt,multp_Answer,multi_RT,multiplyCorr,LoopingMultiply.thisRepN,LoopingMultiply.thisTrialN,LoopingMultiply.thisN,LoopingMultiply.thisIndex,LoopingMultiply.ran,factor1,multiplySign,factor2,multliplyProblem,physicalSize,orderOperand,sizeF1,sizeF2,mult_answer,trials_stroop.thisRepN,trials_stroop.thisTrialN,trials_stroop.thisN,trials_stroop.thisIndex,trials_stroop.ran,multiplicationFile,esckey_resp_2.keys,esckey_resp_2.rt
y,11.7932,50.9,50.7,right,1,0.5594,0,0,0,15,1,9,200,right,806,2022-01-16_23h48.24.895,multiplicationStroop,2021.2.3,MacIntel,59.99880004,,,,,,,,,,,,,,,,,,,,,,,,,,,,,,,,,,,,,,,,,,,,,,,,,,,,,,,,,
,,,,right,1,0.4156,0,1,1,11,1,4,200,right,806,2022-01-16_23h48.24.895,multiplicationStroop,2021.2.3,MacIntel,59.99880004,,,,,,,,,,,,,,,,,,,,,,,,,,,,,,,,,,,,,,,,,,,,,,,,,,,,,,,,,
,,,,right,1,0.3589,0,2,2,8,1,1,200,right,806,2022-01-16_23h48.24.895,multiplicationStroop,2021.2.3,MacIntel,59.99880004,,,,,,,,,,,,,,,,,,,,,,,,,,,,,,,,,,,,,,,,,,,,,,,,,,,,,,,,,
,,,,right,1,0.3816,0,3,3,12,1,6,200,right,806,2022-01-16_23h48.24.895,multiplicationStroop,2021.2.3,MacIntel,59.99880004,,,,,,,,,,,,,,,,,,,,,,,,,,,,,,,,,,,,,,,,,,,,,,,,,,,,,,,,,
,,,,right,1,0.3188,0,4,4,9,1,2,200,right,806,2022-01-16_23h48.24.895,multiplicationStroop,2021.2.3,MacIntel,59.99880004,,,,,,,,,,,,,,,,,,,,,,,,,,,,,,,,,,,,,,,,,,,,,,,,,,,,,,,,,
,,,,right,1,0.3001,0,5,5,10,1,3,200,right,806,2022-01-16_23h48.24.895,multiplicationStroop,2021.2.3,MacIntel,59.99880004,,,,,,,,,,,,,,,,,,,,,,,,,,,,,,,,,,,,,,,,,,,,,,,,,,,,,,,,,
,,,,left,1,0.368,0,6,6,2,1,3,-200,left,806,2022-01-16_23h48.24.895,multiplicationStroop,2021.2.3,MacIntel,59.99880004,,,,,,,,,,,,,,,,,,,,,,,,,,,,,,,,,,,,,,,,,,,,,,,,,,,,,,,,,
,,,,left,1,0.3167,0,7,7,7,1,9,-200,left,806,2022-01-16_23h48.24.895,multiplicationStroop,2021.2.3,MacIntel,59.99880004,,,,,,,,,,,,,,,,,,,,,,,,,,,,,,,,,,,,,,,,,,,,,,,,,,,,,,,,,
,,,,right,1,0.3068,0,8,8,13,1,7,200,right,806,2022-01-16_23h48.24.895,multiplicationStroop,2021.2.3,MacIntel,59.99880004,,,,,,,,,,,,,,,,,,,,,,,,,,,,,,,,,,,,,,,,,,,,,,,,,,,,,,,,,
,,,,left,1,0.2844,0,9,9,6,1,8,-200,left,806,2022-01-16_23h48.24.895,multiplicationStroop,2021.2.3,MacIntel,59.99880004,,,,,,,,,,,,,,,,,,,,,,,,,,,,,,,,,,,,,,,,,,,,,,,,,,,,,,,,,
,,,,left,1,0.3989,0,10,10,1,1,2,-200,left,806,2022-01-16_23h48.24.895,multiplicationStroop,2021.2.3,MacIntel,59.99880004,,,,,,,,,,,,,,,,,,,,,,,,,,,,,,,,,,,,,,,,,,,,,,,,,,,,,,,,,
,,,,right,1,0.333,0,11,11,14,1,8,200,right,806,2022-01-16_23h48.24.895,multiplicationStroop,2021.2.3,MacIntel,59.99880004,,,,,,,,,,,,,,,,,,,,,,,,,,,,,,,,,,,,,,,,,,,,,,,,,,,,,,,,,
,,,,left,1,0.3851,0,12,12,4,1,6,-200,left,806,2022-01-16_23h48.24.895,multiplicationStroop,2021.2.3,MacIntel,59.99880004,,,,,,,,,,,,,,,,,,,,,,,,,,,,,,,,,,,,,,,,,,,,,,,,,,,,,,,,,
,,,,left,1,0.3456,0,13,13,3,1,4,-200,left,806,2022-01-16_23h48.24.895,multiplicationStroop,2021.2.3,MacIntel,59.99880004,,,,,,,,,,,,,,,,,,,,,,,,,,,,,,,,,,,,,,,,,,,,,,,,,,,,,,,,,
,,,,left,1,0.3682,0,14,14,5,1,7,-200,left,806,2022-01-16_23h48.24.895,multiplicationStroop,2021.2.3,MacIntel,59.99880004,,,,,,,,,,,,,,,,,,,,,,,,,,,,,,,,,,,,,,,,,,,,,,,,,,,,,,,,,
,,,,left,1,0.3703,0,15,15,0,1,1,-200,left,806,2022-01-16_23h48.24.895,multiplicationStroop,2021.2.3,MacIntel,59.99880004,,,,,,,,,,,,,,,,,,,,,,,,,,,,,,,,,,,,,,,,,,,,,,,,,,,,,,,,,
,,,,right,1,0.386,1,0,16,15,1,9,200,right,806,2022-01-16_23h48.24.895,multiplicationStroop,2021.2.3,MacIntel,59.99880004,,,,,,,,,,,,,,,,,,,,,,,,,,,,,,,,,,,,,,,,,,,,,,,,,,,,,,,,,
,,,,right,1,0.3506,1,1,17,11,1,4,200,right,806,2022-01-16_23h48.24.895,multiplicationStroop,2021.2.3,MacIntel,59.99880004,,,,,,,,,,,,,,,,,,,,,,,,,,,,,,,,,,,,,,,,,,,,,,,,,,,,,,,,,
,,,,right,1,0.3333,1,2,18,14,1,8,200,right,806,2022-01-16_23h48.24.895,multiplicationStroop,2021.2.3,MacIntel,59.99880004,,,,,,,,,,,,,,,,,,,,,,,,,,,,,,,,,,,,,,,,,,,,,,,,,,,,,,,,,
,,,,left,1,0.3001,1,3,19,6,1,8,-200,left,806,2022-01-16_23h48.24.895,multiplicationStroop,2021.2.3,MacIntel,59.99880004,,,,,,,,,,,,,,,,,,,,,,,,,,,,,,,,,,,,,,,,,,,,,,,,,,,,,,,,,
,,,,left,1,0.3734,1,4,20,5,1,7,-200,left,806,2022-01-16_23h48.24.895,multiplicationStroop,2021.2.3,MacIntel,59.99880004,,,,,,,,,,,,,,,,,,,,,,,,,,,,,,,,,,,,,,,,,,,,,,,,,,,,,,,,,
,,,,right,1,0.3205,1,5,21,13,1,7,200,right,806,2022-01-16_23h48.24.895,multiplicationStroop,2021.2.3,MacIntel,59.99880004,,,,,,,,,,,,,,,,,,,,,,,,,,,,,,,,,,,,,,,,,,,,,,,,,,,,,,,,,
,,,,left,1,0.3004,1,6,22,3,1,4,-200,left,806,2022-01-16_23h48.24.895,multiplicationStroop,2021.2.3,MacIntel,59.99880004,,,,,,,,,,,,,,,,,,,,,,,,,,,,,,,,,,,,,,,,,,,,,,,,,,,,,,,,,
,,,,right,1,0.2654,1,7,23,10,1,3,200,right,806,2022-01-16_23h48.24.895,multiplicationStroop,2021.2.3,MacIntel,59.99880004,,,,,,,,,,,,,,,,,,,,,,,,,,,,,,,,,,,,,,,,,,,,,,,,,,,,,,,,,
,,,,left,1,0.269,1,8,24,2,1,3,-200,left,806,2022-01-16_23h48.24.895,multiplicationStroop,2021.2.3,MacIntel,59.99880004,,,,,,,,,,,,,,,,,,,,,,,,,,,,,,,,,,,,,,,,,,,,,,,,,,,,,,,,,
,,,,right,1,0.2576,1,9,25,8,1,1,200,right,806,2022-01-16_23h48.24.895,multiplicationStroop,2021.2.3,MacIntel,59.99880004,,,,,,,,,,,,,,,,,,,,,,,,,,,,,,,,,,,,,,,,,,,,,,,,,,,,,,,,,
,,,,left,1,0.291,1,10,26,4,1,6,-200,left,806,2022-01-16_23h48.24.895,multiplicationStroop,2021.2.3,MacIntel,59.99880004,,,,,,,,,,,,,,,,,,,,,,,,,,,,,,,,,,,,,,,,,,,,,,,,,,,,,,,,,
,,,,left,1,0.4567,1,11,27,0,1,1,-200,left,806,2022-01-16_23h48.24.895,multiplicationStroop,2021.2.3,MacIntel,59.99880004,,,,,,,,,,,,,,,,,,,,,,,,,,,,,,,,,,,,,,,,,,,,,,,,,,,,,,,,,
,,,,right,1,0.2852,1,12,28,9,1,2,200,right,806,2022-01-16_23h48.24.895,multiplicationStroop,2021.2.3,MacIntel,59.99880004,,,,,,,,,,,,,,,,,,,,,,,,,,,,,,,,,,,,,,,,,,,,,,,,,,,,,,,,,
,,,,right,1,0.3737,1,13,29,12,1,6,200,right,806,2022-01-16_23h48.24.895,multiplicationStroop,2021.2.3,MacIntel,59.99880004,,,,,,,,,,,,,,,,,,,,,,,,,,,,,,,,,,,,,,,,,,,,,,,,,,,,,,,,,
,,,,left,1,0.2857,1,14,30,1,1,2,-200,left,806,2022-01-16_23h48.24.895,multiplicationStroop,2021.2.3,MacIntel,59.99880004,,,,,,,,,,,,,,,,,,,,,,,,,,,,,,,,,,,,,,,,,,,,,,,,,,,,,,,,,
,,,,left,1,0.4828,1,15,31,7,1,9,-200,left,806,2022-01-16_23h48.24.895,multiplicationStroop,2021.2.3,MacIntel,59.99880004,,,,,,,,,,,,,,,,,,,,,,,,,,,,,,,,,,,,,,,,,,,,,,,,,,,,,,,,,
,,,,right,1,0.2796,2,0,32,8,1,1,200,right,806,2022-01-16_23h48.24.895,multiplicationStroop,2021.2.3,MacIntel,59.99880004,,,,,,,,,,,,,,,,,,,,,,,,,,,,,,,,,,,,,,,,,,,,,,,,,,,,,,,,,
,,,,right,1,0.4149,2,1,33,9,1,2,200,right,806,2022-01-16_23h48.24.895,multiplicationStroop,2021.2.3,MacIntel,59.99880004,,,,,,,,,,,,,,,,,,,,,,,,,,,,,,,,,,,,,,,,,,,,,,,,,,,,,,,,,
,,,,left,1,0.285,2,2,34,1,1,2,-200,left,806,2022-01-16_23h48.24.895,multiplicationStroop,2021.2.3,MacIntel,59.99880004,,,,,,,,,,,,,,,,,,,,,,,,,,,,,,,,,,,,,,,,,,,,,,,,,,,,,,,,,
,,,,right,1,0.2975,2,3,35,14,1,8,200,right,806,2022-01-16_23h48.24.895,multiplicationStroop,2021.2.3,MacIntel,59.99880004,,,,,,,,,,,,,,,,,,,,,,,,,,,,,,,,,,,,,,,,,,,,,,,,,,,,,,,,,
,,,,right,1,0.415,2,4,36,13,1,7,200,right,806,2022-01-16_23h48.24.895,multiplicationStroop,2021.2.3,MacIntel,59.99880004,,,,,,,,,,,,,,,,,,,,,,,,,,,,,,,,,,,,,,,,,,,,,,,,,,,,,,,,,
,,,,left,1,0.2818,2,5,37,7,1,9,-200,left,806,2022-01-16_23h48.24.895,multiplicationStroop,2021.2.3,MacIntel,59.99880004,,,,,,,,,,,,,,,,,,,,,,,,,,,,,,,,,,,,,,,,,,,,,,,,,,,,,,,,,
,,,,left,1,0.5023,2,6,38,3,1,4,-200,left,806,2022-01-16_23h48.24.895,multiplicationStroop,2021.2.3,MacIntel,59.99880004,,,,,,,,,,,,,,,,,,,,,,,,,,,,,,,,,,,,,,,,,,,,,,,,,,,,,,,,,
,,,,right,1,0.2888,2,7,39,12,1,6,200,right,806,2022-01-16_23h48.24.895,multiplicationStroop,2021.2.3,MacIntel,59.99880004,,,,,,,,,,,,,,,,,,,,,,,,,,,,,,,,,,,,,,,,,,,,,,,,,,,,,,,,,
,,,,left,1,0.2757,2,8,40,4,1,6,-200,left,806,2022-01-16_23h48.24.895,multiplicationStroop,2021.2.3,MacIntel,59.99880004,,,,,,,,,,,,,,,,,,,,,,,,,,,,,,,,,,,,,,,,,,,,,,,,,,,,,,,,,
,,,,right,1,0.2492,2,9,41,10,1,3,200,right,806,2022-01-16_23h48.24.895,multiplicationStroop,2021.2.3,MacIntel,59.99880004,,,,,,,,,,,,,,,,,,,,,,,,,,,,,,,,,,,,,,,,,,,,,,,,,,,,,,,,,
,,,,right,1,0.4469,2,10,42,15,1,9,200,right,806,2022-01-16_23h48.24.895,multiplicationStroop,2021.2.3,MacIntel,59.99880004,,,,,,,,,,,,,,,,,,,,,,,,,,,,,,,,,,,,,,,,,,,,,,,,,,,,,,,,,
,,,,left,1,0.3659,2,11,43,5,1,7,-200,left,806,2022-01-16_23h48.24.895,multiplicationStroop,2021.2.3,MacIntel,59.99880004,,,,,,,,,,,,,,,,,,,,,,,,,,,,,,,,,,,,,,,,,,,,,,,,,,,,,,,,,
,,,,left,1,0.4513,2,12,44,6,1,8,-200,left,806,2022-01-16_23h48.24.895,multiplicationStroop,2021.2.3,MacIntel,59.99880004,,,,,,,,,,,,,,,,,,,,,,,,,,,,,,,,,,,,,,,,,,,,,,,,,,,,,,,,,
,,,,right,1,0.3136,2,13,45,11,1,4,200,right,806,2022-01-16_23h48.24.895,multiplicationStroop,2021.2.3,MacIntel,59.99880004,,,,,,,,,,,,,,,,,,,,,,,,,,,,,,,,,,,,,,,,,,,,,,,,,,,,,,,,,
,,,,left,1,0.3603,2,14,46,2,1,3,-200,left,806,2022-01-16_23h48.24.895,multiplicationStroop,2021.2.3,MacIntel,59.99880004,,,,,,,,,,,,,,,,,,,,,,,,,,,,,,,,,,,,,,,,,,,,,,,,,,,,,,,,,
,,,,left,1,0.4641,2,15,47,0,1,1,-200,left,806,2022-01-16_23h48.24.895,multiplicationStroop,2021.2.3,MacIntel,59.99880004,,,,,,,,,,,,,,,,,,,,,,,,,,,,,,,,,,,,,,,,,,,,,,,,,,,,,,,,,
,,,,right,1,0.3866,3,0,48,8,1,1,200,right,806,2022-01-16_23h48.24.895,multiplicationStroop,2021.2.3,MacIntel,59.99880004,,,,,,,,,,,,,,,,,,,,,,,,,,,,,,,,,,,,,,,,,,,,,,,,,,,,,,,,,
,,,,right,1,0.4413,3,1,49,13,1,7,200,right,806,2022-01-16_23h48.24.895,multiplicationStroop,2021.2.3,MacIntel,59.99880004,,,,,,,,,,,,,,,,,,,,,,,,,,,,,,,,,,,,,,,,,,,,,,,,,,,,,,,,,
,,,,left,1,0.3865,3,2,50,0,1,1,-200,left,806,2022-01-16_23h48.24.895,multiplicationStroop,2021.2.3,MacIntel,59.99880004,,,,,,,,,,,,,,,,,,,,,,,,,,,,,,,,,,,,,,,,,,,,,,,,,,,,,,,,,
,,,,right,1,0.2662,3,3,51,10,1,3,200,right,806,2022-01-16_23h48.24.895,multiplicationStroop,2021.2.3,MacIntel,59.99880004,,,,,,,,,,,,,,,,,,,,,,,,,,,,,,,,,,,,,,,,,,,,,,,,,,,,,,,,,
,,,,left,1,0.2666,3,4,52,6,1,8,-200,left,806,2022-01-16_23h48.24.895,multiplicationStroop,2021.2.3,MacIntel,59.99880004,,,,,,,,,,,,,,,,,,,,,,,,,,,,,,,,,,,,,,,,,,,,,,,,,,,,,,,,,
,,,,left,1,0.4149,3,5,53,3,1,4,-200,left,806,2022-01-16_23h48.24.895,multiplicationStroop,2021.2.3,MacIntel,59.99880004,,,,,,,,,,,,,,,,,,,,,,,,,,,,,,,,,,,,,,,,,,,,,,,,,,,,,,,,,
,,,,left,1,0.4166,3,6,54,4,1,6,-200,left,806,2022-01-16_23h48.24.895,multiplicationStroop,2021.2.3,MacIntel,59.99880004,,,,,,,,,,,,,,,,,,,,,,,,,,,,,,,,,,,,,,,,,,,,,,,,,,,,,,,,,
,,,,right,1,0.3812,3,7,55,11,1,4,200,right,806,2022-01-16_23h48.24.895,multiplicationStroop,2021.2.3,MacIntel,59.99880004,,,,,,,,,,,,,,,,,,,,,,,,,,,,,,,,,,,,,,,,,,,,,,,,,,,,,,,,,
,,,,right,0,0.3225,3,8,56,7,1,9,-200,left,806,2022-01-16_23h48.24.895,multiplicationStroop,2021.2.3,MacIntel,59.99880004,,,,,,,,,,,,,,,,,,,,,,,,,,,,,,,,,,,,,,,,,,,,,,,,,,,,,,,,,
,,,,right,1,0.5495,3,9,57,12,1,6,200,right,806,2022-01-16_23h48.24.895,multiplicationStroop,2021.2.3,MacIntel,59.99880004,,,,,,,,,,,,,,,,,,,,,,,,,,,,,,,,,,,,,,,,,,,,,,,,,,,,,,,,,
,,,,left,1,0.3322,3,10,58,5,1,7,-200,left,806,2022-01-16_23h48.24.895,multiplicationStroop,2021.2.3,MacIntel,59.99880004,,,,,,,,,,,,,,,,,,,,,,,,,,,,,,,,,,,,,,,,,,,,,,,,,,,,,,,,,
,,,,right,1,0.2352,3,11,59,9,1,2,200,right,806,2022-01-16_23h48.24.895,multiplicationStroop,2021.2.3,MacIntel,59.99880004,,,,,,,,,,,,,,,,,,,,,,,,,,,,,,,,,,,,,,,,,,,,,,,,,,,,,,,,,
,,,,left,1,0.3029,3,12,60,1,1,2,-200,left,806,2022-01-16_23h48.24.895,multiplicationStroop,2021.2.3,MacIntel,59.99880004,,,,,,,,,,,,,,,,,,,,,,,,,,,,,,,,,,,,,,,,,,,,,,,,,,,,,,,,,
,,,,left,1,0.3494,3,13,61,2,1,3,-200,left,806,2022-01-16_23h48.24.895,multiplicationStroop,2021.2.3,MacIntel,59.99880004,,,,,,,,,,,,,,,,,,,,,,,,,,,,,,,,,,,,,,,,,,,,,,,,,,,,,,,,,
,,,,right,1,0.315,3,14,62,14,1,8,200,right,806,2022-01-16_23h48.24.895,multiplicationStroop,2021.2.3,MacIntel,59.99880004,,,,,,,,,,,,,,,,,,,,,,,,,,,,,,,,,,,,,,,,,,,,,,,,,,,,,,,,,
,,,,right,1,0.3986,3,15,63,15,1,9,200,right,806,2022-01-16_23h48.24.895,multiplicationStroop,2021.2.3,MacIntel,59.99880004,,,,,,,,,,,,,,,,,,,,,,,,,,,,,,,,,,,,,,,,,,,,,,,,,,,,,,,,,
,,,,,,,,,,,,,,,806,2022-01-16_23h48.24.895,multiplicationStroop,2021.2.3,MacIntel,59.99880004,space,11.154,space,6.2285,left,1,0.7339,0,0,0,7,1,9,8,9 | 8,1,1.9756,1.4111,congruent,left,,,,,,stimulusFile/physical.xlsx,,,,,,,,,,,,,,,,,,,,,,,,,,,,,,,
,,,,,,,,,,,,,,,806,2022-01-16_23h48.24.895,multiplicationStroop,2021.2.3,MacIntel,59.99880004,,,,,right,1,1.333,0,1,1,36,1,3,1,3 | 1,2,1.4111,1.9756,incongruent,right,,,,,,stimulusFile/physical.xlsx,,,,,,,,,,,,,,,,,,,,,,,,,,,,,,,
,,,,,,,,,,,,,,,806,2022-01-16_23h48.24.895,multiplicationStroop,2021.2.3,MacIntel,59.99880004,,,,,left,1,0.7017,0,2,2,40,1,1,6,1 | 6,5,1.9756,1.4111,incongruent,left,,,,,,stimulusFile/physical.xlsx,,,,,,,,,,,,,,,,,,,,,,,,,,,,,,,
,,,,,,,,,,,,,,,806,2022-01-16_23h48.24.895,multiplicationStroop,2021.2.3,MacIntel,59.99880004,,,,,left,0,0.6014,0,3,3,66,1,3,3,3 | 3,0,1.9756,1.4111,neutral,right,,,,,,stimulusFile/physical.xlsx,,,,,,,,,,,,,,,,,,,,,,,,,,,,,,,
,,,,,,,,,,,,,,,806,2022-01-16_23h48.24.895,multiplicationStroop,2021.2.3,MacIntel,59.99880004,,,,,left,1,0.4842,0,4,4,53,1,4,4,4 | 4,0,1.9756,1.4111,neutral,left,,,,,,stimulusFile/physical.xlsx,,,,,,,,,,,,,,,,,,,,,,,,,,,,,,,
,,,,,,,,,,,,,,,806,2022-01-16_23h48.24.895,multiplicationStroop,2021.2.3,MacIntel,59.99880004,,,,,right,1,0.4277,0,5,5,17,1,2,7,2 | 7,5,1.4111,1.9756,congruent,right,,,,,,stimulusFile/physical.xlsx,,,,,,,,,,,,,,,,,,,,,,,,,,,,,,,
,,,,,,,,,,,,,,,806,2022-01-16_23h48.24.895,multiplicationStroop,2021.2.3,MacIntel,59.99880004,,,,,right,1,0.5453,0,6,6,11,1,7,9,7 | 9,2,1.4111,1.9756,congruent,right,,,,,,stimulusFile/physical.xlsx,,,,,,,,,,,,,,,,,,,,,,,,,,,,,,,
,,,,,,,,,,,,,,,806,2022-01-16_23h48.24.895,multiplicationStroop,2021.2.3,MacIntel,59.99880004,,,,,right,1,0.581,0,7,7,16,1,1,6,1 | 6,5,1.4111,1.9756,congruent,right,,,,,,stimulusFile/physical.xlsx,,,,,,,,,,,,,,,,,,,,,,,,,,,,,,,
,,,,,,,,,,,,,,,806,2022-01-16_23h48.24.895,multiplicationStroop,2021.2.3,MacIntel,59.99880004,,,,,right,1,0.8485,0,8,8,47,1,9,4,9 | 4,5,1.4111,1.9756,incongruent,right,,,,,,stimulusFile/physical.xlsx,,,,,,,,,,,,,,,,,,,,,,,,,,,,,,,
,,,,,,,,,,,,,,,806,2022-01-16_23h48.24.895,multiplicationStroop,2021.2.3,MacIntel,59.99880004,,,,,right,1,0.5354,0,9,9,60,1,3,3,3 | 3,0,1.4111,1.9756,neutral,right,,,,,,stimulusFile/physical.xlsx,,,,,,,,,,,,,,,,,,,,,,,,,,,,,,,
,,,,,,,,,,,,,,,806,2022-01-16_23h48.24.895,multiplicationStroop,2021.2.3,MacIntel,59.99880004,,,,,right,0,0.4945,0,10,10,69,1,7,7,7 | 7,0,1.4111,1.9756,neutral,left,,,,,,stimulusFile/physical.xlsx,,,,,,,,,,,,,,,,,,,,,,,,,,,,,,,
,,,,,,,,,,,,,,,806,2022-01-16_23h48.24.895,multiplicationStroop,2021.2.3,MacIntel,59.99880004,,,,,right,1,0.5255,0,11,11,39,1,9,7,9 | 7,2,1.4111,1.9756,incongruent,right,,,,,,stimulusFile/physical.xlsx,,,,,,,,,,,,,,,,,,,,,,,,,,,,,,,
,,,,,,,,,,,,,,,806,2022-01-16_23h48.24.895,multiplicationStroop,2021.2.3,MacIntel,59.99880004,,,,,left,1,0.5359,0,12,12,35,1,7,9,7 | 9,2,1.9756,1.4111,incongruent,left,,,,,,stimulusFile/physical.xlsx,,,,,,,,,,,,,,,,,,,,,,,,,,,,,,,
,,,,,,,,,,,,,,,806,2022-01-16_23h48.24.895,multiplicationStroop,2021.2.3,MacIntel,59.99880004,,,,,left,1,0.6157,0,13,13,54,1,7,7,7 | 7,0,1.9756,1.4111,neutral,left,,,,,,stimulusFile/physical.xlsx,,,,,,,,,,,,,,,,,,,,,,,,,,,,,,,
,,,,,,,,,,,,,,,806,2022-01-16_23h48.24.895,multiplicationStroop,2021.2.3,MacIntel,59.99880004,,,,,right,1,0.4554,0,14,14,3,1,8,9,8 | 9,1,1.4111,1.9756,congruent,right,,,,,,stimulusFile/physical.xlsx,,,,,,,,,,,,,,,,,,,,,,,,,,,,,,,
,,,,,,,,,,,,,,,806,2022-01-16_23h48.24.895,multiplicationStroop,2021.2.3,MacIntel,59.99880004,,,,,right,1,0.5347,0,15,15,67,1,4,4,4 | 4,0,1.4111,1.9756,neutral,right,,,,,,stimulusFile/physical.xlsx,,,,,,,,,,,,,,,,,,,,,,,,,,,,,,,
,,,,,,,,,,,,,,,806,2022-01-16_23h48.24.895,multiplicationStroop,2021.2.3,MacIntel,59.99880004,,,,,right,1,0.5707,0,16,16,9,1,2,4,2 | 4,2,1.4111,1.9756,congruent,right,,,,,,stimulusFile/physical.xlsx,,,,,,,,,,,,,,,,,,,,,,,,,,,,,,,
,,,,,,,,,,,,,,,806,2022-01-16_23h48.24.895,multiplicationStroop,2021.2.3,MacIntel,59.99880004,,,,,right,1,0.5663,0,17,17,65,1,2,2,2 | 2,0,1.4111,1.9756,neutral,right,,,,,,stimulusFile/physical.xlsx,,,,,,,,,,,,,,,,,,,,,,,,,,,,,,,
,,,,,,,,,,,,,,,806,2022-01-16_23h48.24.895,multiplicationStroop,2021.2.3,MacIntel,59.99880004,,,,,left,1,0.4861,0,18,18,52,1,2,2,2 | 2,0,1.9756,1.4111,neutral,left,,,,,,stimulusFile/physical.xlsx,,,,,,,,,,,,,,,,,,,,,,,,,,,,,,,
,,,,,,,,,,,,,,,806,2022-01-16_23h48.24.895,multiplicationStroop,2021.2.3,MacIntel,59.99880004,,,,,right,1,0.5674,0,19,19,31,1,9,8,9 | 8,1,1.4111,1.9756,incongruent,right,,,,,,stimulusFile/physical.xlsx,,,,,,,,,,,,,,,,,,,,,,,,,,,,,,,
,,,,,,,,,,,,,,,806,2022-01-16_23h48.24.895,multiplicationStroop,2021.2.3,MacIntel,59.99880004,,,,,right,1,0.5222,0,20,20,58,1,6,6,6 | 6,0,1.4111,1.9756,neutral,right,,,,,,stimulusFile/physical.xlsx,,,,,,,,,,,,,,,,,,,,,,,,,,,,,,,
,,,,,,,,,,,,,,,806,2022-01-16_23h48.24.895,multiplicationStroop,2021.2.3,MacIntel,59.99880004,,,,,right,1,0.5502,0,21,21,18,1,3,8,3 | 8,5,1.4111,1.9756,congruent,right,,,,,,stimulusFile/physical.xlsx,,,,,,,,,,,,,,,,,,,,,,,,,,,,,,,
,,,,,,,,,,,,,,,806,2022-01-16_23h48.24.895,multiplicationStroop,2021.2.3,MacIntel,59.99880004,,,,,right,1,0.5299,0,22,22,61,1,4,4,4 | 4,0,1.4111,1.9756,neutral,right,,,,,,stimulusFile/physical.xlsx,,,,,,,,,,,,,,,,,,,,,,,,,,,,,,,
,,,,,,,,,,,,,,,806,2022-01-16_23h48.24.895,multiplicationStroop,2021.2.3,MacIntel,59.99880004,,,,,right,1,0.5354,0,23,23,45,1,7,2,7 | 2,5,1.4111,1.9756,incongruent,right,,,,,,stimulusFile/physical.xlsx,,,,,,,,,,,,,,,,,,,,,,,,,,,,,,,
,,,,,,,,,,,,,,,806,2022-01-16_23h48.24.895,multiplicationStroop,2021.2.3,MacIntel,59.99880004,,,,,right,1,0.8661,0,24,24,37,1,4,2,4 | 2,2,1.4111,1.9756,incongruent,right,,,,,,stimulusFile/physical.xlsx,,,,,,,,,,,,,,,,,,,,,,,,,,,,,,,
,,,,,,,,,,,,,,,806,2022-01-16_23h48.24.895,multiplicationStroop,2021.2.3,MacIntel,59.99880004,,,,,left,1,0.7812,0,25,25,14,1,8,6,8 | 6,2,1.9756,1.4111,congruent,left,,,,,,stimulusFile/physical.xlsx,,,,,,,,,,,,,,,,,,,,,,,,,,,,,,,
,,,,,,,,,,,,,,,806,2022-01-16_23h48.24.895,multiplicationStroop,2021.2.3,MacIntel,59.99880004,,,,,right,1,0.7219,0,26,26,56,1,1,1,1 | 1,0,1.4111,1.9756,neutral,right,,,,,,stimulusFile/physical.xlsx,,,,,,,,,,,,,,,,,,,,,,,,,,,,,,,
,,,,,,,,,,,,,,,806,2022-01-16_23h48.24.895,multiplicationStroop,2021.2.3,MacIntel,59.99880004,,,,,right,1,0.9501,0,27,27,19,1,4,9,4 | 9,5,1.4111,1.9756,congruent,right,,,,,,stimulusFile/physical.xlsx,,,,,,,,,,,,,,,,,,,,,,,,,,,,,,,
,,,,,,,,,,,,,,,806,2022-01-16_23h48.24.895,multiplicationStroop,2021.2.3,MacIntel,59.99880004,,,,,left,1,0.829,0,28,28,27,1,8,9,8 | 9,1,1.9756,1.4111,incongruent,left,,,,,,stimulusFile/physical.xlsx,,,,,,,,,,,,,,,,,,,,,,,,,,,,,,,
,,,,,,,,,,,,,,,806,2022-01-16_23h48.24.895,multiplicationStroop,2021.2.3,MacIntel,59.99880004,,,,,right,1,0.6643,0,29,29,44,1,6,1,6 | 1,5,1.4111,1.9756,incongruent,right,,,,,,stimulusFile/physical.xlsx,,,,,,,,,,,,,,,,,,,,,,,,,,,,,,,
,,,,,,,,,,,,,,,806,2022-01-16_23h48.24.895,multiplicationStroop,2021.2.3,MacIntel,59.99880004,,,,,left,1,0.4491,0,30,30,12,1,3,1,3 | 1,2,1.9756,1.4111,congruent,left,,,,,,stimulusFile/physical.xlsx,,,,,,,,,,,,,,,,,,,,,,,,,,,,,,,
,,,,,,,,,,,,,,,806,2022-01-16_23h48.24.895,multiplicationStroop,2021.2.3,MacIntel,59.99880004,,,,,left,1,0.5985,0,31,31,20,1,6,1,6 | 1,5,1.9756,1.4111,congruent,left,,,,,,stimulusFile/physical.xlsx,,,,,,,,,,,,,,,,,,,,,,,,,,,,,,,
,,,,,,,,,,,,,,,806,2022-01-16_23h48.24.895,multiplicationStroop,2021.2.3,MacIntel,59.99880004,,,,,right,1,0.3791,0,32,32,2,1,6,7,6 | 7,1,1.4111,1.9756,congruent,right,,,,,,stimulusFile/physical.xlsx,,,,,,,,,,,,,,,,,,,,,,,,,,,,,,,
,,,,,,,,,,,,,,,806,2022-01-16_23h48.24.895,multiplicationStroop,2021.2.3,MacIntel,59.99880004,,,,,left,1,0.3961,0,33,33,23,1,9,4,9 | 4,5,1.9756,1.4111,congruent,left,,,,,,stimulusFile/physical.xlsx,,,,,,,,,,,,,,,,,,,,,,,,,,,,,,,
,,,,,,,,,,,,,,,806,2022-01-16_23h48.24.895,multiplicationStroop,2021.2.3,MacIntel,59.99880004,,,,,right,1,0.3155,0,34,34,8,1,1,3,1 | 3,2,1.4111,1.9756,congruent,right,,,,,,stimulusFile/physical.xlsx,,,,,,,,,,,,,,,,,,,,,,,,,,,,,,,
,,,,,,,,,,,,,,,806,2022-01-16_23h48.24.895,multiplicationStroop,2021.2.3,MacIntel,59.99880004,,,,,right,1,0.4813,0,35,35,59,1,7,7,7 | 7,0,1.4111,1.9756,neutral,right,,,,,,stimulusFile/physical.xlsx,,,,,,,,,,,,,,,,,,,,,,,,,,,,,,,
,,,,,,,,,,,,,,,806,2022-01-16_23h48.24.895,multiplicationStroop,2021.2.3,MacIntel,59.99880004,,,,,right,1,0.5559,0,36,36,0,1,1,2,1 | 2,1,1.4111,1.9756,congruent,right,,,,,,stimulusFile/physical.xlsx,,,,,,,,,,,,,,,,,,,,,,,,,,,,,,,
,,,,,,,,,,,,,,,806,2022-01-16_23h48.24.895,multiplicationStroop,2021.2.3,MacIntel,59.99880004,,,,,right,1,0.6131,0,37,37,10,1,6,8,6 | 8,2,1.4111,1.9756,congruent,right,,,,,,stimulusFile/physical.xlsx,,,,,,,,,,,,,,,,,,,,,,,,,,,,,,,
,,,,,,,,,,,,,,,806,2022-01-16_23h48.24.895,multiplicationStroop,2021.2.3,MacIntel,59.99880004,,,,,right,1,0.6166,0,38,38,29,1,4,3,4 | 3,1,1.4111,1.9756,incongruent,right,,,,,,stimulusFile/physical.xlsx,,,,,,,,,,,,,,,,,,,,,,,,,,,,,,,
,,,,,,,,,,,,,,,806,2022-01-16_23h48.24.895,multiplicationStroop,2021.2.3,MacIntel,59.99880004,,,,,left,1,0.4971,0,39,39,43,1,4,9,4 | 9,5,1.9756,1.4111,incongruent,left,,,,,,stimulusFile/physical.xlsx,,,,,,,,,,,,,,,,,,,,,,,,,,,,,,,
,,,,,,,,,,,,,,,806,2022-01-16_23h48.24.895,multiplicationStroop,2021.2.3,MacIntel,59.99880004,,,,,left,1,0.6048,0,40,40,25,1,3,4,3 | 4,1,1.9756,1.4111,incongruent,left,,,,,,stimulusFile/physical.xlsx,,,,,,,,,,,,,,,,,,,,,,,,,,,,,,,
,,,,,,,,,,,,,,,806,2022-01-16_23h48.24.895,multiplicationStroop,2021.2.3,MacIntel,59.99880004,,,,,right,1,0.5002,0,41,41,63,1,9,9,9 | 9,0,1.4111,1.9756,neutral,right,,,,,,stimulusFile/physical.xlsx,,,,,,,,,,,,,,,,,,,,,,,,,,,,,,,
,,,,,,,,,,,,,,,806,2022-01-16_23h48.24.895,multiplicationStroop,2021.2.3,MacIntel,59.99880004,,,,,left,1,0.5144,0,42,42,32,1,1,3,1 | 3,2,1.9756,1.4111,incongruent,left,,,,,,stimulusFile/physical.xlsx,,,,,,,,,,,,,,,,,,,,,,,,,,,,,,,
,,,,,,,,,,,,,,,806,2022-01-16_23h48.24.895,multiplicationStroop,2021.2.3,MacIntel,59.99880004,,,,,right,1,0.3529,0,43,43,57,1,2,2,2 | 2,0,1.4111,1.9756,neutral,right,,,,,,stimulusFile/physical.xlsx,,,,,,,,,,,,,,,,,,,,,,,,,,,,,,,
,,,,,,,,,,,,,,,806,2022-01-16_23h48.24.895,multiplicationStroop,2021.2.3,MacIntel,59.99880004,,,,,left,1,0.4822,0,44,44,50,1,6,6,6 | 6,0,1.9756,1.4111,neutral,left,,,,,,stimulusFile/physical.xlsx,,,,,,,,,,,,,,,,,,,,,,,,,,,,,,,
,,,,,,,,,,,,,,,806,2022-01-16_23h48.24.895,multiplicationStroop,2021.2.3,MacIntel,59.99880004,,,,,right,1,0.3996,0,45,45,1,1,3,4,3 | 4,1,1.4111,1.9756,congruent,right,,,,,,stimulusFile/physical.xlsx,,,,,,,,,,,,,,,,,,,,,,,,,,,,,,,
,,,,,,,,,,,,,,,806,2022-01-16_23h48.24.895,multiplicationStroop,2021.2.3,MacIntel,59.99880004,,,,,left,1,0.4193,0,46,46,68,1,6,6,6 | 6,0,1.9756,1.4111,neutral,left,,,,,,stimulusFile/physical.xlsx,,,,,,,,,,,,,,,,,,,,,,,,,,,,,,,
,,,,,,,,,,,,,,,806,2022-01-16_23h48.24.895,multiplicationStroop,2021.2.3,MacIntel,59.99880004,,,,,right,0,0.2997,0,47,47,24,1,1,2,1 | 2,1,1.9756,1.4111,incongruent,left,,,,,,stimulusFile/physical.xlsx,,,,,,,,,,,,,,,,,,,,,,,,,,,,,,,
,,,,,,,,,,,,,,,806,2022-01-16_23h48.24.895,multiplicationStroop,2021.2.3,MacIntel,59.99880004,,,,,left,1,0.5543,0,48,48,13,1,4,2,4 | 2,2,1.9756,1.4111,congruent,left,,,,,,stimulusFile/physical.xlsx,,,,,,,,,,,,,,,,,,,,,,,,,,,,,,,
,,,,,,,,,,,,,,,806,2022-01-16_23h48.24.895,multiplicationStroop,2021.2.3,MacIntel,59.99880004,,,,,right,1,0.3969,0,49,49,46,1,8,3,8 | 3,5,1.4111,1.9756,incongruent,right,,,,,,stimulusFile/physical.xlsx,,,,,,,,,,,,,,,,,,,,,,,,,,,,,,,
,,,,,,,,,,,,,,,806,2022-01-16_23h48.24.895,multiplicationStroop,2021.2.3,MacIntel,59.99880004,,,,,left,1,0.4967,0,50,50,41,1,2,7,2 | 7,5,1.9756,1.4111,incongruent,left,,,,,,stimulusFile/physical.xlsx,,,,,,,,,,,,,,,,,,,,,,,,,,,,,,,
,,,,,,,,,,,,,,,806,2022-01-16_23h48.24.895,multiplicationStroop,2021.2.3,MacIntel,59.99880004,,,,,left,1,0.5169,0,51,51,33,1,2,4,2 | 4,2,1.9756,1.4111,incongruent,left,,,,,,stimulusFile/physical.xlsx,,,,,,,,,,,,,,,,,,,,,,,,,,,,,,,
,,,,,,,,,,,,,,,806,2022-01-16_23h48.24.895,multiplicationStroop,2021.2.3,MacIntel,59.99880004,,,,,right,0,0.5825,0,52,52,70,1,8,8,8 | 8,0,1.9756,1.4111,neutral,left,,,,,,stimulusFile/physical.xlsx,,,,,,,,,,,,,,,,,,,,,,,,,,,,,,,
,,,,,,,,,,,,,,,806,2022-01-16_23h48.24.895,multiplicationStroop,2021.2.3,MacIntel,59.99880004,,,,,left,1,0.5181,0,53,53,6,1,7,6,7 | 6,1,1.9756,1.4111,congruent,left,,,,,,stimulusFile/physical.xlsx,,,,,,,,,,,,,,,,,,,,,,,,,,,,,,,
,,,,,,,,,,,,,,,806,2022-01-16_23h48.24.895,multiplicationStroop,2021.2.3,MacIntel,59.99880004,,,,,left,1,0.8969,0,54,54,5,1,4,3,4 | 3,1,1.9756,1.4111,congruent,left,,,,,,stimulusFile/physical.xlsx,,,,,,,,,,,,,,,,,,,,,,,,,,,,,,,
,,,,,,,,,,,,,,,806,2022-01-16_23h48.24.895,multiplicationStroop,2021.2.3,MacIntel,59.99880004,,,,,left,1,1.0844,0,55,55,51,1,8,8,8 | 8,0,1.9756,1.4111,neutral,left,,,,,,stimulusFile/physical.xlsx,,,,,,,,,,,,,,,,,,,,,,,,,,,,,,,
,,,,,,,,,,,,,,,806,2022-01-16_23h48.24.895,multiplicationStroop,2021.2.3,MacIntel,59.99880004,,,,,left,1,0.532,0,56,56,22,1,8,3,8 | 3,5,1.9756,1.4111,congruent,left,,,,,,stimulusFile/physical.xlsx,,,,,,,,,,,,,,,,,,,,,,,,,,,,,,,
,,,,,,,,,,,,,,,806,2022-01-16_23h48.24.895,multiplicationStroop,2021.2.3,MacIntel,59.99880004,,,,,left,1,0.7144,0,57,57,42,1,3,8,3 | 8,5,1.9756,1.4111,incongruent,left,,,,,,stimulusFile/physical.xlsx,,,,,,,,,,,,,,,,,,,,,,,,,,,,,,,
,,,,,,,,,,,,,,,806,2022-01-16_23h48.24.895,multiplicationStroop,2021.2.3,MacIntel,59.99880004,,,,,right,1,0.5478,0,58,58,28,1,2,1,2 | 1,1,1.4111,1.9756,incongruent,right,,,,,,stimulusFile/physical.xlsx,,,,,,,,,,,,,,,,,,,,,,,,,,,,,,,
,,,,,,,,,,,,,,,806,2022-01-16_23h48.24.895,multiplicationStroop,2021.2.3,MacIntel,59.99880004,,,,,left,1,0.5709,0,59,59,49,1,3,3,3 | 3,0,1.9756,1.4111,neutral,left,,,,,,stimulusFile/physical.xlsx,,,,,,,,,,,,,,,,,,,,,,,,,,,,,,,
,,,,,,,,,,,,,,,806,2022-01-16_23h48.24.895,multiplicationStroop,2021.2.3,MacIntel,59.99880004,,,,,left,1,0.5806,0,60,60,48,1,1,1,1 | 1,0,1.9756,1.4111,neutral,left,,,,,,stimulusFile/physical.xlsx,,,,,,,,,,,,,,,,,,,,,,,,,,,,,,,
,,,,,,,,,,,,,,,806,2022-01-16_23h48.24.895,multiplicationStroop,2021.2.3,MacIntel,59.99880004,,,,,right,1,0.5541,0,61,61,30,1,7,6,7 | 6,1,1.4111,1.9756,incongruent,right,,,,,,stimulusFile/physical.xlsx,,,,,,,,,,,,,,,,,,,,,,,,,,,,,,,
,,,,,,,,,,,,,,,806,2022-01-16_23h48.24.895,multiplicationStroop,2021.2.3,MacIntel,59.99880004,,,,,left,1,0.4458,0,62,62,34,1,6,8,6 | 8,2,1.9756,1.4111,incongruent,left,,,,,,stimulusFile/physical.xlsx,,,,,,,,,,,,,,,,,,,,,,,,,,,,,,,
,,,,,,,,,,,,,,,806,2022-01-16_23h48.24.895,multiplicationStroop,2021.2.3,MacIntel,59.99880004,,,,,left,1,0.6286,0,63,63,15,1,9,7,9 | 7,2,1.9756,1.4111,congruent,left,,,,,,stimulusFile/physical.xlsx,,,,,,,,,,,,,,,,,,,,,,,,,,,,,,,
,,,,,,,,,,,,,,,806,2022-01-16_23h48.24.895,multiplicationStroop,2021.2.3,MacIntel,59.99880004,,,,,left,0,0.5482,0,64,64,64,1,1,1,1 | 1,0,1.9756,1.4111,neutral,right,,,,,,stimulusFile/physical.xlsx,,,,,,,,,,,,,,,,,,,,,,,,,,,,,,,
,,,,,,,,,,,,,,,806,2022-01-16_23h48.24.895,multiplicationStroop,2021.2.3,MacIntel,59.99880004,,,,,left,1,0.4505,0,65,65,4,1,2,1,2 | 1,1,1.9756,1.4111,congruent,left,,,,,,stimulusFile/physical.xlsx,,,,,,,,,,,,,,,,,,,,,,,,,,,,,,,
,,,,,,,,,,,,,,,806,2022-01-16_23h48.24.895,multiplicationStroop,2021.2.3,MacIntel,59.99880004,,,,,right,0,0.5209,0,66,66,71,1,9,9,9 | 9,0,1.4111,1.9756,neutral,left,,,,,,stimulusFile/physical.xlsx,,,,,,,,,,,,,,,,,,,,,,,,,,,,,,,
,,,,,,,,,,,,,,,806,2022-01-16_23h48.24.895,multiplicationStroop,2021.2.3,MacIntel,59.99880004,,,,,right,1,0.569,0,67,67,38,1,8,6,8 | 6,2,1.4111,1.9756,incongruent,right,,,,,,stimulusFile/physical.xlsx,,,,,,,,,,,,,,,,,,,,,,,,,,,,,,,
,,,,,,,,,,,,,,,806,2022-01-16_23h48.24.895,multiplicationStroop,2021.2.3,MacIntel,59.99880004,,,,,right,1,0.4655,0,68,68,62,1,8,8,8 | 8,0,1.4111,1.9756,neutral,right,,,,,,stimulusFile/physical.xlsx,,,,,,,,,,,,,,,,,,,,,,,,,,,,,,,
,,,,,,,,,,,,,,,806,2022-01-16_23h48.24.895,multiplicationStroop,2021.2.3,MacIntel,59.99880004,,,,,left,1,0.4476,0,69,69,21,1,7,2,7 | 2,5,1.9756,1.4111,congruent,left,,,,,,stimulusFile/physical.xlsx,,,,,,,,,,,,,,,,,,,,,,,,,,,,,,,
,,,,,,,,,,,,,,,806,2022-01-16_23h48.24.895,multiplicationStroop,2021.2.3,MacIntel,59.99880004,,,,,left,1,0.5353,0,70,70,26,1,6,7,6 | 7,1,1.9756,1.4111,incongruent,left,,,,,,stimulusFile/physical.xlsx,,,,,,,,,,,,,,,,,,,,,,,,,,,,,,,
,,,,,,,,,,,,,,,806,2022-01-16_23h48.24.895,multiplicationStroop,2021.2.3,MacIntel,59.99880004,,,,,left,1,0.5493,0,71,71,55,1,9,9,9 | 9,0,1.9756,1.4111,neutral,left,,,,,,stimulusFile/physical.xlsx,,,,,,,,,,,,,,,,,,,,,,,,,,,,,,,
,,,,,,,,,,,,,,,806,2022-01-16_23h48.24.895,multiplicationStroop,2021.2.3,MacIntel,59.99880004,,,,,,,,,,,,,,,,,,,,,0,0,0,1,1,stimulusFile/physical.xlsx,PHYSICALLY larger (larger font size).,images/physicallyLarger.png,,,,,,,,,,,,,,,,,,,,,,,,,,,,,
,,,,,,,,,,,,,,,806,2022-01-16_23h48.24.895,multiplicationStroop,2021.2.3,MacIntel,59.99880004,space,6.0653,space,1.5688,left,1,0.8172,0,0,0,45,1,7,2,7 | 2,5,1.4111,1.9756,incongruent,left,,,,,,stimulusFile/magnitude.xlsx,,,,,,,,,,,,,,,,,,,,,,,,,,,,,,,
,,,,,,,,,,,,,,,806,2022-01-16_23h48.24.895,multiplicationStroop,2021.2.3,MacIntel,59.99880004,,,,,right,1,1.0373,0,1,1,19,1,4,9,4 | 9,5,1.4111,1.9756,congruent,right,,,,,,stimulusFile/magnitude.xlsx,,,,,,,,,,,,,,,,,,,,,,,,,,,,,,,
,,,,,,,,,,,,,,,806,2022-01-16_23h48.24.895,multiplicationStroop,2021.2.3,MacIntel,59.99880004,,,,,left,1,0.696,0,2,2,60,1,3,1,3 | 1,2,1.6933,1.6933,neutral,left,,,,,,stimulusFile/magnitude.xlsx,,,,,,,,,,,,,,,,,,,,,,,,,,,,,,,
,,,,,,,,,,,,,,,806,2022-01-16_23h48.24.895,multiplicationStroop,2021.2.3,MacIntel,59.99880004,,,,,right,1,0.8301,0,3,3,48,1,1,2,1 | 2,1,1.6933,1.6933,neutral,right,,,,,,stimulusFile/magnitude.xlsx,,,,,,,,,,,,,,,,,,,,,,,,,,,,,,,
,,,,,,,,,,,,,,,806,2022-01-16_23h48.24.895,multiplicationStroop,2021.2.3,MacIntel,59.99880004,,,,,left,1,0.7143,0,4,4,54,1,7,6,7 | 6,1,1.6933,1.6933,neutral,left,,,,,,stimulusFile/magnitude.xlsx,,,,,,,,,,,,,,,,,,,,,,,,,,,,,,,
,,,,,,,,,,,,,,,806,2022-01-16_23h48.24.895,multiplicationStroop,2021.2.3,MacIntel,59.99880004,,,,,right,1,0.4476,0,5,5,56,1,1,3,1 | 3,2,1.6933,1.6933,neutral,right,,,,,,stimulusFile/magnitude.xlsx,,,,,,,,,,,,,,,,,,,,,,,,,,,,,,,
,,,,,,,,,,,,,,,806,2022-01-16_23h48.24.895,multiplicationStroop,2021.2.3,MacIntel,59.99880004,,,,,right,1,0.6814,0,6,6,40,1,1,6,1 | 6,5,1.9756,1.4111,incongruent,right,,,,,,stimulusFile/magnitude.xlsx,,,,,,,,,,,,,,,,,,,,,,,,,,,,,,,
,,,,,,,,,,,,,,,806,2022-01-16_23h48.24.895,multiplicationStroop,2021.2.3,MacIntel,59.99880004,,,,,right,1,0.7994,0,7,7,42,1,3,8,3 | 8,5,1.9756,1.4111,incongruent,right,,,,,,stimulusFile/magnitude.xlsx,,,,,,,,,,,,,,,,,,,,,,,,,,,,,,,
,,,,,,,,,,,,,,,806,2022-01-16_23h48.24.895,multiplicationStroop,2021.2.3,MacIntel,59.99880004,,,,,right,1,0.945,0,8,8,18,1,3,8,3 | 8,5,1.4111,1.9756,congruent,right,,,,,,stimulusFile/magnitude.xlsx,,,,,,,,,,,,,,,,,,,,,,,,,,,,,,,
,,,,,,,,,,,,,,,806,2022-01-16_23h48.24.895,multiplicationStroop,2021.2.3,MacIntel,59.99880004,,,,,left,1,0.8458,0,9,9,7,1,9,8,9 | 8,1,1.9756,1.4111,congruent,left,,,,,,stimulusFile/magnitude.xlsx,,,,,,,,,,,,,,,,,,,,,,,,,,,,,,,
,,,,,,,,,,,,,,,806,2022-01-16_23h48.24.895,multiplicationStroop,2021.2.3,MacIntel,59.99880004,,,,,right,1,0.722,0,10,10,59,1,7,9,7 | 9,2,1.6933,1.6933,neutral,right,,,,,,stimulusFile/magnitude.xlsx,,,,,,,,,,,,,,,,,,,,,,,,,,,,,,,
,,,,,,,,,,,,,,,806,2022-01-16_23h48.24.895,multiplicationStroop,2021.2.3,MacIntel,59.99880004,,,,,left,1,0.9387,0,11,11,55,1,9,8,9 | 8,1,1.6933,1.6933,neutral,left,,,,,,stimulusFile/magnitude.xlsx,,,,,,,,,,,,,,,,,,,,,,,,,,,,,,,
,,,,,,,,,,,,,,,806,2022-01-16_23h48.24.895,multiplicationStroop,2021.2.3,MacIntel,59.99880004,,,,,left,1,0.7501,0,12,12,31,1,9,8,9 | 8,1,1.4111,1.9756,incongruent,left,,,,,,stimulusFile/magnitude.xlsx,,,,,,,,,,,,,,,,,,,,,,,,,,,,,,,
,,,,,,,,,,,,,,,806,2022-01-16_23h48.24.895,multiplicationStroop,2021.2.3,MacIntel,59.99880004,,,,,right,1,0.7835,0,13,13,26,1,6,7,6 | 7,1,1.9756,1.4111,incongruent,right,,,,,,stimulusFile/magnitude.xlsx,,,,,,,,,,,,,,,,,,,,,,,,,,,,,,,
,,,,,,,,,,,,,,,806,2022-01-16_23h48.24.895,multiplicationStroop,2021.2.3,MacIntel,59.99880004,,,,,right,1,0.5981,0,14,14,67,1,4,9,4 | 9,5,1.6933,1.6933,neutral,right,,,,,,stimulusFile/magnitude.xlsx,,,,,,,,,,,,,,,,,,,,,,,,,,,,,,,
,,,,,,,,,,,,,,,806,2022-01-16_23h48.24.895,multiplicationStroop,2021.2.3,MacIntel,59.99880004,,,,,left,1,0.5565,0,15,15,47,1,9,4,9 | 4,5,1.4111,1.9756,incongruent,left,,,,,,stimulusFile/magnitude.xlsx,,,,,,,,,,,,,,,,,,,,,,,,,,,,,,,
,,,,,,,,,,,,,,,806,2022-01-16_23h48.24.895,multiplicationStroop,2021.2.3,MacIntel,59.99880004,,,,,right,1,0.4813,0,16,16,41,1,2,7,2 | 7,5,1.9756,1.4111,incongruent,right,,,,,,stimulusFile/magnitude.xlsx,,,,,,,,,,,,,,,,,,,,,,,,,,,,,,,
,,,,,,,,,,,,,,,806,2022-01-16_23h48.24.895,multiplicationStroop,2021.2.3,MacIntel,59.99880004,,,,,left,1,0.7724,0,17,17,61,1,4,2,4 | 2,2,1.6933,1.6933,neutral,left,,,,,,stimulusFile/magnitude.xlsx,,,,,,,,,,,,,,,,,,,,,,,,,,,,,,,
,,,,,,,,,,,,,,,806,2022-01-16_23h48.24.895,multiplicationStroop,2021.2.3,MacIntel,59.99880004,,,,,left,1,0.5643,0,18,18,46,1,8,3,8 | 3,5,1.4111,1.9756,incongruent,left,,,,,,stimulusFile/magnitude.xlsx,,,,,,,,,,,,,,,,,,,,,,,,,,,,,,,
,,,,,,,,,,,,,,,806,2022-01-16_23h48.24.895,multiplicationStroop,2021.2.3,MacIntel,59.99880004,,,,,left,1,0.5801,0,19,19,63,1,9,7,9 | 7,2,1.6933,1.6933,neutral,left,,,,,,stimulusFile/magnitude.xlsx,,,,,,,,,,,,,,,,,,,,,,,,,,,,,,,
,,,,,,,,,,,,,,,806,2022-01-16_23h48.24.895,multiplicationStroop,2021.2.3,MacIntel,59.99880004,,,,,left,1,0.5146,0,20,20,68,1,6,1,6 | 1,5,1.6933,1.6933,neutral,left,,,,,,stimulusFile/magnitude.xlsx,,,,,,,,,,,,,,,,,,,,,,,,,,,,,,,
,,,,,,,,,,,,,,,806,2022-01-16_23h48.24.895,multiplicationStroop,2021.2.3,MacIntel,59.99880004,,,,,left,1,0.4193,0,21,21,44,1,6,1,6 | 1,5,1.4111,1.9756,incongruent,left,,,,,,stimulusFile/magnitude.xlsx,,,,,,,,,,,,,,,,,,,,,,,,,,,,,,,
,,,,,,,,,,,,,,,806,2022-01-16_23h48.24.895,multiplicationStroop,2021.2.3,MacIntel,59.99880004,,,,,left,1,0.4397,0,22,22,13,1,4,2,4 | 2,2,1.9756,1.4111,congruent,left,,,,,,stimulusFile/magnitude.xlsx,,,,,,,,,,,,,,,,,,,,,,,,,,,,,,,
,,,,,,,,,,,,,,,806,2022-01-16_23h48.24.895,multiplicationStroop,2021.2.3,MacIntel,59.99880004,,,,,left,1,0.5533,0,23,23,38,1,8,6,8 | 6,2,1.4111,1.9756,incongruent,left,,,,,,stimulusFile/magnitude.xlsx,,,,,,,,,,,,,,,,,,,,,,,,,,,,,,,
,,,,,,,,,,,,,,,806,2022-01-16_23h48.24.895,multiplicationStroop,2021.2.3,MacIntel,59.99880004,,,,,left,1,0.5972,0,24,24,36,1,3,1,3 | 1,2,1.4111,1.9756,incongruent,left,,,,,,stimulusFile/magnitude.xlsx,,,,,,,,,,,,,,,,,,,,,,,,,,,,,,,
,,,,,,,,,,,,,,,806,2022-01-16_23h48.24.895,multiplicationStroop,2021.2.3,MacIntel,59.99880004,,,,,right,1,0.5671,0,25,25,51,1,8,9,8 | 9,1,1.6933,1.6933,neutral,right,,,,,,stimulusFile/magnitude.xlsx,,,,,,,,,,,,,,,,,,,,,,,,,,,,,,,
,,,,,,,,,,,,,,,806,2022-01-16_23h48.24.895,multiplicationStroop,2021.2.3,MacIntel,59.99880004,,,,,left,0,0.4496,0,26,26,25,1,3,4,3 | 4,1,1.9756,1.4111,incongruent,right,,,,,,stimulusFile/magnitude.xlsx,,,,,,,,,,,,,,,,,,,,,,,,,,,,,,,
,,,,,,,,,,,,,,,806,2022-01-16_23h48.24.895,multiplicationStroop,2021.2.3,MacIntel,59.99880004,,,,,right,1,0.506,0,27,27,49,1,3,4,3 | 4,1,1.6933,1.6933,neutral,right,,,,,,stimulusFile/magnitude.xlsx,,,,,,,,,,,,,,,,,,,,,,,,,,,,,,,
,,,,,,,,,,,,,,,806,2022-01-16_23h48.24.895,multiplicationStroop,2021.2.3,MacIntel,59.99880004,,,,,left,1,0.5786,0,28,28,23,1,9,4,9 | 4,5,1.9756,1.4111,congruent,left,,,,,,stimulusFile/magnitude.xlsx,,,,,,,,,,,,,,,,,,,,,,,,,,,,,,,
,,,,,,,,,,,,,,,806,2022-01-16_23h48.24.895,multiplicationStroop,2021.2.3,MacIntel,59.99880004,,,,,right,1,0.5854,0,29,29,57,1,2,4,2 | 4,2,1.6933,1.6933,neutral,right,,,,,,stimulusFile/magnitude.xlsx,,,,,,,,,,,,,,,,,,,,,,,,,,,,,,,
,,,,,,,,,,,,,,,806,2022-01-16_23h48.24.895,multiplicationStroop,2021.2.3,MacIntel,59.99880004,,,,,left,1,0.553,0,30,30,6,1,7,6,7 | 6,1,1.9756,1.4111,congruent,left,,,,,,stimulusFile/magnitude.xlsx,,,,,,,,,,,,,,,,,,,,,,,,,,,,,,,
,,,,,,,,,,,,,,,806,2022-01-16_23h48.24.895,multiplicationStroop,2021.2.3,MacIntel,59.99880004,,,,,right,0,0.5175,0,31,31,39,1,9,7,9 | 7,2,1.4111,1.9756,incongruent,left,,,,,,stimulusFile/magnitude.xlsx,,,,,,,,,,,,,,,,,,,,,,,,,,,,,,,
,,,,,,,,,,,,,,,806,2022-01-16_23h48.24.895,multiplicationStroop,2021.2.3,MacIntel,59.99880004,,,,,left,1,0.5714,0,32,32,70,1,8,3,8 | 3,5,1.6933,1.6933,neutral,left,,,,,,stimulusFile/magnitude.xlsx,,,,,,,,,,,,,,,,,,,,,,,,,,,,,,,
,,,,,,,,,,,,,,,806,2022-01-16_23h48.24.895,multiplicationStroop,2021.2.3,MacIntel,59.99880004,,,,,left,1,0.4978,0,33,33,71,1,9,4,9 | 4,5,1.6933,1.6933,neutral,left,,,,,,stimulusFile/magnitude.xlsx,,,,,,,,,,,,,,,,,,,,,,,,,,,,,,,
,,,,,,,,,,,,,,,806,2022-01-16_23h48.24.895,multiplicationStroop,2021.2.3,MacIntel,59.99880004,,,,,left,1,0.9465,0,34,34,62,1,8,6,8 | 6,2,1.6933,1.6933,neutral,left,,,,,,stimulusFile/magnitude.xlsx,,,,,,,,,,,,,,,,,,,,,,,,,,,,,,,
,,,,,,,,,,,,,,,806,2022-01-16_23h48.24.895,multiplicationStroop,2021.2.3,MacIntel,59.99880004,,,,,left,1,0.5333,0,35,35,69,1,7,2,7 | 2,5,1.6933,1.6933,neutral,left,,,,,,stimulusFile/magnitude.xlsx,,,,,,,,,,,,,,,,,,,,,,,,,,,,,,,
,,,,,,,,,,,,,,,806,2022-01-16_23h48.24.895,multiplicationStroop,2021.2.3,MacIntel,59.99880004,,,,,right,1,0.6475,0,36,36,33,1,2,4,2 | 4,2,1.9756,1.4111,incongruent,right,,,,,,stimulusFile/magnitude.xlsx,,,,,,,,,,,,,,,,,,,,,,,,,,,,,,,
,,,,,,,,,,,,,,,806,2022-01-16_23h48.24.895,multiplicationStroop,2021.2.3,MacIntel,59.99880004,,,,,left,1,0.5125,0,37,37,12,1,3,1,3 | 1,2,1.9756,1.4111,congruent,left,,,,,,stimulusFile/magnitude.xlsx,,,,,,,,,,,,,,,,,,,,,,,,,,,,,,,
,,,,,,,,,,,,,,,806,2022-01-16_23h48.24.895,multiplicationStroop,2021.2.3,MacIntel,59.99880004,,,,,left,1,0.4619,0,38,38,22,1,8,3,8 | 3,5,1.9756,1.4111,congruent,left,,,,,,stimulusFile/magnitude.xlsx,,,,,,,,,,,,,,,,,,,,,,,,,,,,,,,
,,,,,,,,,,,,,,,806,2022-01-16_23h48.24.895,multiplicationStroop,2021.2.3,MacIntel,59.99880004,,,,,right,1,0.5482,0,39,39,65,1,2,7,2 | 7,5,1.6933,1.6933,neutral,right,,,,,,stimulusFile/magnitude.xlsx,,,,,,,,,,,,,,,,,,,,,,,,,,,,,,,
,,,,,,,,,,,,,,,806,2022-01-16_23h48.24.895,multiplicationStroop,2021.2.3,MacIntel,59.99880004,,,,,right,1,0.6784,0,40,40,58,1,6,8,6 | 8,2,1.6933,1.6933,neutral,right,,,,,,stimulusFile/magnitude.xlsx,,,,,,,,,,,,,,,,,,,,,,,,,,,,,,,
,,,,,,,,,,,,,,,806,2022-01-16_23h48.24.895,multiplicationStroop,2021.2.3,MacIntel,59.99880004,,,,,left,1,0.4642,0,41,41,53,1,4,3,4 | 3,1,1.6933,1.6933,neutral,left,,,,,,stimulusFile/magnitude.xlsx,,,,,,,,,,,,,,,,,,,,,,,,,,,,,,,
,,,,,,,,,,,,,,,806,2022-01-16_23h48.24.895,multiplicationStroop,2021.2.3,MacIntel,59.99880004,,,,,right,1,0.5896,0,42,42,0,1,1,2,1 | 2,1,1.4111,1.9756,congruent,right,,,,,,stimulusFile/magnitude.xlsx,,,,,,,,,,,,,,,,,,,,,,,,,,,,,,,
,,,,,,,,,,,,,,,806,2022-01-16_23h48.24.895,multiplicationStroop,2021.2.3,MacIntel,59.99880004,,,,,left,0,0.554,0,43,43,43,1,4,9,4 | 9,5,1.9756,1.4111,incongruent,right,,,,,,stimulusFile/magnitude.xlsx,,,,,,,,,,,,,,,,,,,,,,,,,,,,,,,
,,,,,,,,,,,,,,,806,2022-01-16_23h48.24.895,multiplicationStroop,2021.2.3,MacIntel,59.99880004,,,,,left,1,0.6995,0,44,44,21,1,7,2,7 | 2,5,1.9756,1.4111,congruent,left,,,,,,stimulusFile/magnitude.xlsx,,,,,,,,,,,,,,,,,,,,,,,,,,,,,,,
,,,,,,,,,,,,,,,806,2022-01-16_23h48.24.895,multiplicationStroop,2021.2.3,MacIntel,59.99880004,,,,,right,1,0.8649,0,45,45,34,1,6,8,6 | 8,2,1.9756,1.4111,incongruent,right,,,,,,stimulusFile/magnitude.xlsx,,,,,,,,,,,,,,,,,,,,,,,,,,,,,,,
,,,,,,,,,,,,,,,806,2022-01-16_23h48.24.895,multiplicationStroop,2021.2.3,MacIntel,59.99880004,,,,,right,1,0.5653,0,46,46,11,1,7,9,7 | 9,2,1.4111,1.9756,congruent,right,,,,,,stimulusFile/magnitude.xlsx,,,,,,,,,,,,,,,,,,,,,,,,,,,,,,,
,,,,,,,,,,,,,,,806,2022-01-16_23h48.24.895,multiplicationStroop,2021.2.3,MacIntel,59.99880004,,,,,left,1,0.5688,0,47,47,15,1,9,7,9 | 7,2,1.9756,1.4111,congruent,left,,,,,,stimulusFile/magnitude.xlsx,,,,,,,,,,,,,,,,,,,,,,,,,,,,,,,
,,,,,,,,,,,,,,,806,2022-01-16_23h48.24.895,multiplicationStroop,2021.2.3,MacIntel,59.99880004,,,,,right,1,0.7031,0,48,48,27,1,8,9,8 | 9,1,1.9756,1.4111,incongruent,right,,,,,,stimulusFile/magnitude.xlsx,,,,,,,,,,,,,,,,,,,,,,,,,,,,,,,
,,,,,,,,,,,,,,,806,2022-01-16_23h48.24.895,multiplicationStroop,2021.2.3,MacIntel,59.99880004,,,,,left,1,0.5722,0,49,49,52,1,2,1,2 | 1,1,1.6933,1.6933,neutral,left,,,,,,stimulusFile/magnitude.xlsx,,,,,,,,,,,,,,,,,,,,,,,,,,,,,,,
,,,,,,,,,,,,,,,806,2022-01-16_23h48.24.895,multiplicationStroop,2021.2.3,MacIntel,59.99880004,,,,,right,1,0.9126,0,50,50,24,1,1,2,1 | 2,1,1.9756,1.4111,incongruent,right,,,,,,stimulusFile/magnitude.xlsx,,,,,,,,,,,,,,,,,,,,,,,,,,,,,,,
,,,,,,,,,,,,,,,806,2022-01-16_23h48.24.895,multiplicationStroop,2021.2.3,MacIntel,59.99880004,,,,,right,1,0.6042,0,51,51,3,1,8,9,8 | 9,1,1.4111,1.9756,congruent,right,,,,,,stimulusFile/magnitude.xlsx,,,,,,,,,,,,,,,,,,,,,,,,,,,,,,,
,,,,,,,,,,,,,,,806,2022-01-16_23h48.24.895,multiplicationStroop,2021.2.3,MacIntel,59.99880004,,,,,left,1,0.4467,0,52,52,20,1,6,1,6 | 1,5,1.9756,1.4111,congruent,left,,,,,,stimulusFile/magnitude.xlsx,,,,,,,,,,,,,,,,,,,,,,,,,,,,,,,
,,,,,,,,,,,,,,,806,2022-01-16_23h48.24.895,multiplicationStroop,2021.2.3,MacIntel,59.99880004,,,,,left,1,0.7017,0,53,53,29,1,4,3,4 | 3,1,1.4111,1.9756,incongruent,left,,,,,,stimulusFile/magnitude.xlsx,,,,,,,,,,,,,,,,,,,,,,,,,,,,,,,
,,,,,,,,,,,,,,,806,2022-01-16_23h48.24.895,multiplicationStroop,2021.2.3,MacIntel,59.99880004,,,,,left,1,0.5638,0,54,54,4,1,2,1,2 | 1,1,1.9756,1.4111,congruent,left,,,,,,stimulusFile/magnitude.xlsx,,,,,,,,,,,,,,,,,,,,,,,,,,,,,,,
,,,,,,,,,,,,,,,806,2022-01-16_23h48.24.895,multiplicationStroop,2021.2.3,MacIntel,59.99880004,,,,,right,1,0.53,0,55,55,10,1,6,8,6 | 8,2,1.4111,1.9756,congruent,right,,,,,,stimulusFile/magnitude.xlsx,,,,,,,,,,,,,,,,,,,,,,,,,,,,,,,
,,,,,,,,,,,,,,,806,2022-01-16_23h48.24.895,multiplicationStroop,2021.2.3,MacIntel,59.99880004,,,,,right,1,0.6305,0,56,56,66,1,3,8,3 | 8,5,1.6933,1.6933,neutral,right,,,,,,stimulusFile/magnitude.xlsx,,,,,,,,,,,,,,,,,,,,,,,,,,,,,,,
,,,,,,,,,,,,,,,806,2022-01-16_23h48.24.895,multiplicationStroop,2021.2.3,MacIntel,59.99880004,,,,,left,1,0.6129,0,57,57,37,1,4,2,4 | 2,2,1.4111,1.9756,incongruent,left,,,,,,stimulusFile/magnitude.xlsx,,,,,,,,,,,,,,,,,,,,,,,,,,,,,,,
,,,,,,,,,,,,,,,806,2022-01-16_23h48.24.895,multiplicationStroop,2021.2.3,MacIntel,59.99880004,,,,,left,1,0.7062,0,58,58,14,1,8,6,8 | 6,2,1.9756,1.4111,congruent,left,,,,,,stimulusFile/magnitude.xlsx,,,,,,,,,,,,,,,,,,,,,,,,,,,,,,,
,,,,,,,,,,,,,,,806,2022-01-16_23h48.24.895,multiplicationStroop,2021.2.3,MacIntel,59.99880004,,,,,right,1,0.6542,0,59,59,9,1,2,4,2 | 4,2,1.4111,1.9756,congruent,right,,,,,,stimulusFile/magnitude.xlsx,,,,,,,,,,,,,,,,,,,,,,,,,,,,,,,
,,,,,,,,,,,,,,,806,2022-01-16_23h48.24.895,multiplicationStroop,2021.2.3,MacIntel,59.99880004,,,,,right,1,0.5329,0,60,60,2,1,6,7,6 | 7,1,1.4111,1.9756,congruent,right,,,,,,stimulusFile/magnitude.xlsx,,,,,,,,,,,,,,,,,,,,,,,,,,,,,,,
,,,,,,,,,,,,,,,806,2022-01-16_23h48.24.895,multiplicationStroop,2021.2.3,MacIntel,59.99880004,,,,,right,1,0.7116,0,61,61,1,1,3,4,3 | 4,1,1.4111,1.9756,congruent,right,,,,,,stimulusFile/magnitude.xlsx,,,,,,,,,,,,,,,,,,,,,,,,,,,,,,,
,,,,,,,,,,,,,,,806,2022-01-16_23h48.24.895,multiplicationStroop,2021.2.3,MacIntel,59.99880004,,,,,right,1,0.8308,0,62,62,50,1,6,7,6 | 7,1,1.6933,1.6933,neutral,right,,,,,,stimulusFile/magnitude.xlsx,,,,,,,,,,,,,,,,,,,,,,,,,,,,,,,
,,,,,,,,,,,,,,,806,2022-01-16_23h48.24.895,multiplicationStroop,2021.2.3,MacIntel,59.99880004,,,,,right,1,0.7508,0,63,63,35,1,7,9,7 | 9,2,1.9756,1.4111,incongruent,right,,,,,,stimulusFile/magnitude.xlsx,,,,,,,,,,,,,,,,,,,,,,,,,,,,,,,
,,,,,,,,,,,,,,,806,2022-01-16_23h48.24.895,multiplicationStroop,2021.2.3,MacIntel,59.99880004,,,,,right,1,0.5364,0,64,64,64,1,1,6,1 | 6,5,1.6933,1.6933,neutral,right,,,,,,stimulusFile/magnitude.xlsx,,,,,,,,,,,,,,,,,,,,,,,,,,,,,,,
,,,,,,,,,,,,,,,806,2022-01-16_23h48.24.895,multiplicationStroop,2021.2.3,MacIntel,59.99880004,,,,,left,1,0.732,0,65,65,30,1,7,6,7 | 6,1,1.4111,1.9756,incongruent,left,,,,,,stimulusFile/magnitude.xlsx,,,,,,,,,,,,,,,,,,,,,,,,,,,,,,,
,,,,,,,,,,,,,,,806,2022-01-16_23h48.24.895,multiplicationStroop,2021.2.3,MacIntel,59.99880004,,,,,left,1,0.5947,0,66,66,5,1,4,3,4 | 3,1,1.9756,1.4111,congruent,left,,,,,,stimulusFile/magnitude.xlsx,,,,,,,,,,,,,,,,,,,,,,,,,,,,,,,
,,,,,,,,,,,,,,,806,2022-01-16_23h48.24.895,multiplicationStroop,2021.2.3,MacIntel,59.99880004,,,,,right,1,0.4995,0,67,67,16,1,1,6,1 | 6,5,1.4111,1.9756,congruent,right,,,,,,stimulusFile/magnitude.xlsx,,,,,,,,,,,,,,,,,,,,,,,,,,,,,,,
,,,,,,,,,,,,,,,806,2022-01-16_23h48.24.895,multiplicationStroop,2021.2.3,MacIntel,59.99880004,,,,,right,1,0.6614,0,68,68,32,1,1,3,1 | 3,2,1.9756,1.4111,incongruent,right,,,,,,stimulusFile/magnitude.xlsx,,,,,,,,,,,,,,,,,,,,,,,,,,,,,,,
,,,,,,,,,,,,,,,806,2022-01-16_23h48.24.895,multiplicationStroop,2021.2.3,MacIntel,59.99880004,,,,,right,1,0.5148,0,69,69,8,1,1,3,1 | 3,2,1.4111,1.9756,congruent,right,,,,,,stimulusFile/magnitude.xlsx,,,,,,,,,,,,,,,,,,,,,,,,,,,,,,,
,,,,,,,,,,,,,,,806,2022-01-16_23h48.24.895,multiplicationStroop,2021.2.3,MacIntel,59.99880004,,,,,right,1,0.5659,0,70,70,17,1,2,7,2 | 7,5,1.4111,1.9756,congruent,right,,,,,,stimulusFile/magnitude.xlsx,,,,,,,,,,,,,,,,,,,,,,,,,,,,,,,
,,,,,,,,,,,,,,,806,2022-01-16_23h48.24.895,multiplicationStroop,2021.2.3,MacIntel,59.99880004,,,,,left,1,0.571,0,71,71,28,1,2,1,2 | 1,1,1.4111,1.9756,incongruent,left,,,,,,stimulusFile/magnitude.xlsx,,,,,,,,,,,,,,,,,,,,,,,,,,,,,,,
,,,,,,,,,,,,,,,806,2022-01-16_23h48.24.895,multiplicationStroop,2021.2.3,MacIntel,59.99880004,,,,,,,,,,,,,,,,,,,,,0,1,1,0,1,stimulusFile/magnitude.xlsx,NUMERICALLY larger (larger coefficient).,images/numericallyLarger.png,,,,,,,,,,,,,,,,,,,,,,,,,,,,,
,,,,,,,,,,,,,,,806,2022-01-16_23h48.24.895,multiplicationStroop,2021.2.3,MacIntel,59.99880004,,,,,,,,,,,,,,,,,,,,,,,,,,,,,space,0.8705,space,2.1832,36,3.5375,1,0,0,0,32,1,6,×,6,6 × 6,neutral,tie,1.5,1.5,36,,,,,,,,
,,,,,,,,,,,,,,,806,2022-01-16_23h48.24.895,multiplicationStroop,2021.2.3,MacIntel,59.99880004,,,,,,,,,,,,,,,,,,,,,,,,,,,,,,,,,72,3.1727,1,0,1,1,25,1,9,×,8,9 × 8,neutral,largerFirst,1.5,1.5,72,,,,,,,,
,,,,,,,,,,,,,,,806,2022-01-16_23h48.24.895,multiplicationStroop,2021.2.3,MacIntel,59.99880004,,,,,,,,,,,,,,,,,,,,,,,,,,,,,,,,,49,2.0829,1,0,2,2,33,1,7,×,7,7 × 7,neutral,tie,1.5,1.5,49,,,,,,,,
,,,,,,,,,,,,,,,806,2022-01-16_23h48.24.895,multiplicationStroop,2021.2.3,MacIntel,59.99880004,,,,,,,,,,,,,,,,,,,,,,,,,,,,,,,,,64,2.017,1,0,3,3,34,1,8,×,8,8 × 8,neutral,tie,1.5,1.5,64,,,,,,,,
,,,,,,,,,,,,,,,806,2022-01-16_23h48.24.895,multiplicationStroop,2021.2.3,MacIntel,59.99880004,,,,,,,,,,,,,,,,,,,,,,,,,,,,,,,,,6,1.5146,1,0,4,4,12,1,2,×,3,2 × 3,neutral,smallerFirst,1.5,1.5,6,,,,,,,,
,,,,,,,,,,,,,,,806,2022-01-16_23h48.24.895,multiplicationStroop,2021.2.3,MacIntel,59.99880004,,,,,,,,,,,,,,,,,,,,,,,,,,,,,,,,,81,1.8321,1,0,5,5,35,1,9,×,9,9 × 9,neutral,tie,1.5,1.5,81,,,,,,,,
,,,,,,,,,,,,,,,806,2022-01-16_23h48.24.895,multiplicationStroop,2021.2.3,MacIntel,59.99880004,,,,,,,,,,,,,,,,,,,,,,,,,,,,,,,,,8,1.534,1,0,6,6,17,1,4,×,2,4 × 2,neutral,largerFirst,1.5,1.5,8,,,,,,,,
,,,,,,,,,,,,,,,806,2022-01-16_23h48.24.895,multiplicationStroop,2021.2.3,MacIntel,59.99880004,,,,,,,,,,,,,,,,,,,,,,,,,,,,,,,,,36,2.8804,1,0,7,7,13,1,4,×,9,4 × 9,neutral,smallerFirst,1.5,1.5,36,,,,,,,,
,,,,,,,,,,,,,,,806,2022-01-16_23h48.24.895,multiplicationStroop,2021.2.3,MacIntel,59.99880004,,,,,,,,,,,,,,,,,,,,,,,,,,,,,,,,,48,1.7503,1,0,8,8,1,1,6,×,8,6 × 8,neutral,smallerFirst,1.5,1.5,48,,,,,,,,
,,,,,,,,,,,,,,,806,2022-01-16_23h48.24.895,multiplicationStroop,2021.2.3,MacIntel,59.99880004,,,,,,,,,,,,,,,,,,,,,,,,,,,,,,,,,27,1.7996,1,0,9,9,0,1,3,×,9,3 × 9,neutral,smallerFirst,1.5,1.5,27,,,,,,,,
,,,,,,,,,,,,,,,806,2022-01-16_23h48.24.895,multiplicationStroop,2021.2.3,MacIntel,59.99880004,,,,,,,,,,,,,,,,,,,,,,,,,,,,,,,,,25,1.5495,1,0,10,10,31,1,5,×,5,5 × 5,neutral,tie,1.5,1.5,25,,,,,,,,
,,,,,,,,,,,,,,,806,2022-01-16_23h48.24.895,multiplicationStroop,2021.2.3,MacIntel,59.99880004,,,,,,,,,,,,,,,,,,,,,,,,,,,,,,,,,12,1.5992,1,0,11,11,7,1,3,×,4,3 × 4,neutral,smallerFirst,1.5,1.5,12,,,,,,,,
,,,,,,,,,,,,,,,806,2022-01-16_23h48.24.895,multiplicationStroop,2021.2.3,MacIntel,59.99880004,,,,,,,,,,,,,,,,,,,,,,,,,,,,,,,,,10,1.5329,1,0,12,12,18,1,5,×,2,5 × 2,neutral,largerFirst,1.5,1.5,10,,,,,,,,
,,,,,,,,,,,,,,,806,2022-01-16_23h48.24.895,multiplicationStroop,2021.2.3,MacIntel,59.99880004,,,,,,,,,,,,,,,,,,,,,,,,,,,,,,,,,30,1.5997,1,0,13,13,5,1,5,×,6,5 × 6,neutral,smallerFirst,1.5,1.5,30,,,,,,,,
,,,,,,,,,,,,,,,806,2022-01-16_23h48.24.895,multiplicationStroop,2021.2.3,MacIntel,59.99880004,,,,,,,,,,,,,,,,,,,,,,,,,,,,,,,,,15,1.3665,1,0,14,14,19,1,5,×,3,5 × 3,neutral,largerFirst,1.5,1.5,15,,,,,,,,
,,,,,,,,,,,,,,,806,2022-01-16_23h48.24.895,multiplicationStroop,2021.2.3,MacIntel,59.99880004,,,,,,,,,,,,,,,,,,,,,,,,,,,,,,,,,24,1.4823,1,0,15,15,16,1,6,×,4,6 × 4,neutral,largerFirst,1.5,1.5,24,,,,,,,,
,,,,,,,,,,,,,,,806,2022-01-16_23h48.24.895,multiplicationStroop,2021.2.3,MacIntel,59.99880004,,,,,,,,,,,,,,,,,,,,,,,,,,,,,,,,,9,1.4845,1,0,16,16,29,1,3,×,3,3 × 3,neutral,tie,1.5,1.5,9,,,,,,,,
,,,,,,,,,,,,,,,806,2022-01-16_23h48.24.895,multiplicationStroop,2021.2.3,MacIntel,59.99880004,,,,,,,,,,,,,,,,,,,,,,,,,,,,,,,,,54,2.2649,1,0,17,17,21,1,9,×,6,9 × 6,neutral,largerFirst,1.5,1.5,54,,,,,,,,
,,,,,,,,,,,,,,,806,2022-01-16_23h48.24.895,multiplicationStroop,2021.2.3,MacIntel,59.99880004,,,,,,,,,,,,,,,,,,,,,,,,,,,,,,,,,12,1.4178,1,0,18,18,11,1,2,×,6,2 × 6,neutral,smallerFirst,1.5,1.5,12,,,,,,,,
,,,,,,,,,,,,,,,806,2022-01-16_23h48.24.895,multiplicationStroop,2021.2.3,MacIntel,59.99880004,,,,,,,,,,,,,,,,,,,,,,,,,,,,,,,,,56,1.8964,1,0,19,19,23,1,8,×,7,8 × 7,neutral,largerFirst,1.5,1.5,56,,,,,,,,
,,,,,,,,,,,,,,,806,2022-01-16_23h48.24.895,multiplicationStroop,2021.2.3,MacIntel,59.99880004,,,,,,,,,,,,,,,,,,,,,,,,,,,,,,,,,49,1.8495,0,0,20,20,10,1,5,×,8,5 × 8,neutral,smallerFirst,1.5,1.5,40,,,,,,,,
,,,,,,,,,,,,,,,806,2022-01-16_23h48.24.895,multiplicationStroop,2021.2.3,MacIntel,59.99880004,,,,,,,,,,,,,,,,,,,,,,,,,,,,,,,,,18,2.6328,1,0,21,21,4,1,2,×,9,2 × 9,neutral,smallerFirst,1.5,1.5,18,,,,,,,,
,,,,,,,,,,,,,,,806,2022-01-16_23h48.24.895,multiplicationStroop,2021.2.3,MacIntel,59.99880004,,,,,,,,,,,,,,,,,,,,,,,,,,,,,,,,,20,1.5831,1,0,22,22,6,1,4,×,5,4 × 5,neutral,smallerFirst,1.5,1.5,20,,,,,,,,
,,,,,,,,,,,,,,,806,2022-01-16_23h48.24.895,multiplicationStroop,2021.2.3,MacIntel,59.99880004,,,,,,,,,,,,,,,,,,,,,,,,,,,,,,,,,63,2.1165,1,0,23,23,26,1,9,×,7,9 × 7,neutral,largerFirst,1.5,1.5,63,,,,,,,,
,,,,,,,,,,,,,,,806,2022-01-16_23h48.24.895,multiplicationStroop,2021.2.3,MacIntel,59.99880004,,,,,,,,,,,,,,,,,,,,,,,,,,,,,,,,,16,2.2339,1,0,24,24,30,1,4,×,4,4 × 4,neutral,tie,1.5,1.5,16,,,,,,,,
,,,,,,,,,,,,,,,806,2022-01-16_23h48.24.895,multiplicationStroop,2021.2.3,MacIntel,59.99880004,,,,,,,,,,,,,,,,,,,,,,,,,,,,,,,,,21,1.5143,1,0,25,25,22,1,7,×,3,7 × 3,neutral,largerFirst,1.5,1.5,21,,,,,,,,
,,,,,,,,,,,,,,,806,2022-01-16_23h48.24.895,multiplicationStroop,2021.2.3,MacIntel,59.99880004,,,,,,,,,,,,,,,,,,,,,,,,,,,,,,,,,42,2.5828,1,0,26,26,20,1,7,×,6,7 × 6,neutral,largerFirst,1.5,1.5,42,,,,,,,,
,,,,,,,,,,,,,,,806,2022-01-16_23h48.24.895,multiplicationStroop,2021.2.3,MacIntel,59.99880004,,,,,,,,,,,,,,,,,,,,,,,,,,,,,,,,,28,1.8831,1,0,27,27,3,1,4,×,7,4 × 7,neutral,smallerFirst,1.5,1.5,28,,,,,,,,
,,,,,,,,,,,,,,,806,2022-01-16_23h48.24.895,multiplicationStroop,2021.2.3,MacIntel,59.99880004,,,,,,,,,,,,,,,,,,,,,,,,,,,,,,,,,16,1.4663,1,0,28,28,27,1,8,×,2,8 × 2,neutral,largerFirst,1.5,1.5,16,,,,,,,,
,,,,,,,,,,,,,,,806,2022-01-16_23h48.24.895,multiplicationStroop,2021.2.3,MacIntel,59.99880004,,,,,,,,,,,,,,,,,,,,,,,,,,,,,,,,,32,1.632,1,0,29,29,9,1,4,×,8,4 × 8,neutral,smallerFirst,1.5,1.5,32,,,,,,,,
,,,,,,,,,,,,,,,806,2022-01-16_23h48.24.895,multiplicationStroop,2021.2.3,MacIntel,59.99880004,,,,,,,,,,,,,,,,,,,,,,,,,,,,,,,,,18,1.7171,1,0,30,30,14,1,6,×,3,6 × 3,neutral,largerFirst,1.5,1.5,18,,,,,,,,
,,,,,,,,,,,,,,,806,2022-01-16_23h48.24.895,multiplicationStroop,2021.2.3,MacIntel,59.99880004,,,,,,,,,,,,,,,,,,,,,,,,,,,,,,,,,45,1.7322,1,0,31,31,24,1,9,×,5,9 × 5,neutral,largerFirst,1.5,1.5,45,,,,,,,,
,,,,,,,,,,,,,,,806,2022-01-16_23h48.24.895,multiplicationStroop,2021.2.3,MacIntel,59.99880004,,,,,,,,,,,,,,,,,,,,,,,,,,,,,,,,,4,1.3319,1,0,32,32,28,1,2,×,2,2 × 2,neutral,tie,1.5,1.5,4,,,,,,,,
,,,,,,,,,,,,,,,806,2022-01-16_23h48.24.895,multiplicationStroop,2021.2.3,MacIntel,59.99880004,,,,,,,,,,,,,,,,,,,,,,,,,,,,,,,,,24,1.7821,1,0,33,33,8,1,3,×,8,3 × 8,neutral,smallerFirst,1.5,1.5,24,,,,,,,,
,,,,,,,,,,,,,,,806,2022-01-16_23h48.24.895,multiplicationStroop,2021.2.3,MacIntel,59.99880004,,,,,,,,,,,,,,,,,,,,,,,,,,,,,,,,,14,1.4821,1,0,34,34,2,1,2,×,7,2 × 7,neutral,smallerFirst,1.5,1.5,14,,,,,,,,
,,,,,,,,,,,,,,,806,2022-01-16_23h48.24.895,multiplicationStroop,2021.2.3,MacIntel,59.99880004,,,,,,,,,,,,,,,,,,,,,,,,,,,,,,,,,35,1.5503,1,0,35,35,15,1,7,×,5,7 × 5,neutral,largerFirst,1.5,1.5,35,,,,,,,,
,,,,,,,,,,,,,,,806,2022-01-16_23h48.24.895,multiplicationStroop,2021.2.3,MacIntel,59.99880004,,,,,,,,,,,,,,,,,,,,,,,,,,,,,,,,,,,,,,,,,,,,,,,,,,0,0,0,0,1,stimulusFile/mult_blk1.xlsx,,
,,,,,,,,,,,,,,,806,2022-01-16_23h48.24.895,multiplicationStroop,2021.2.3,MacIntel,59.99880004,,,,,,,,,,,,,,,,,,,,,,,,,,,,,,,space,1.8972,27,3.8703,1,0,0,0,18,1,9,×,3,9 × 3,incongruent,largerFirst,1,2,27,,,,,,,,
,,,,,,,,,,,,,,,806,2022-01-16_23h48.24.895,multiplicationStroop,2021.2.3,MacIntel,59.99880004,,,,,,,,,,,,,,,,,,,,,,,,,,,,,,,,,48,3.2576,1,0,1,1,1,1,6,×,8,6 × 8,incongruent,smallerFirst,2,1,48,,,,,,,,
,,,,,,,,,,,,,,,806,2022-01-16_23h48.24.895,multiplicationStroop,2021.2.3,MacIntel,59.99880004,,,,,,,,,,,,,,,,,,,,,,,,,,,,,,,,,18,2.0565,1,0,2,2,2,1,2,×,9,2 × 9,incongruent,smallerFirst,2,1,18,,,,,,,,
,,,,,,,,,,,,,,,806,2022-01-16_23h48.24.895,multiplicationStroop,2021.2.3,MacIntel,59.99880004,,,,,,,,,,,,,,,,,,,,,,,,,,,,,,,,,63,2.582,1,0,3,3,3,1,7,×,9,7 × 9,incongruent,smallerFirst,2,1,63,,,,,,,,
,,,,,,,,,,,,,,,806,2022-01-16_23h48.24.895,multiplicationStroop,2021.2.3,MacIntel,59.99880004,,,,,,,,,,,,,,,,,,,,,,,,,,,,,,,,,4,1.4328,1,0,4,4,28,1,2,×,2,2 × 2,incongruent,tie,1,2,4,,,,,,,,
,,,,,,,,,,,,,,,806,2022-01-16_23h48.24.895,multiplicationStroop,2021.2.3,MacIntel,59.99880004,,,,,,,,,,,,,,,,,,,,,,,,,,,,,,,,,24,1.5482,1,0,5,5,20,1,6,×,4,6 × 4,incongruent,largerFirst,1,2,24,,,,,,,,
,,,,,,,,,,,,,,,806,2022-01-16_23h48.24.895,multiplicationStroop,2021.2.3,MacIntel,59.99880004,,,,,,,,,,,,,,,,,,,,,,,,,,,,,,,,,16,1.7183,1,0,6,6,30,1,4,×,4,4 × 4,incongruent,tie,1,2,16,,,,,,,,
,,,,,,,,,,,,,,,806,2022-01-16_23h48.24.895,multiplicationStroop,2021.2.3,MacIntel,59.99880004,,,,,,,,,,,,,,,,,,,,,,,,,,,,,,,,,54,2.381,1,0,7,7,6,1,6,×,9,6 × 9,incongruent,smallerFirst,2,1,54,,,,,,,,
,,,,,,,,,,,,,,,806,2022-01-16_23h48.24.895,multiplicationStroop,2021.2.3,MacIntel,59.99880004,,,,,,,,,,,,,,,,,,,,,,,,,,,,,,,,,35,2.1484,1,0,8,8,12,1,5,×,7,5 × 7,incongruent,smallerFirst,2,1,35,,,,,,,,
,,,,,,,,,,,,,,,806,2022-01-16_23h48.24.895,multiplicationStroop,2021.2.3,MacIntel,59.99880004,,,,,,,,,,,,,,,,,,,,,,,,,,,,,,,,,8,1.5984,1,0,9,9,24,1,4,×,2,4 × 2,incongruent,largerFirst,1,2,8,,,,,,,,
,,,,,,,,,,,,,,,806,2022-01-16_23h48.24.895,multiplicationStroop,2021.2.3,MacIntel,59.99880004,,,,,,,,,,,,,,,,,,,,,,,,,,,,,,,,,36,1.7994,1,0,10,10,15,1,9,×,4,9 × 4,incongruent,largerFirst,1,2,36,,,,,,,,
,,,,,,,,,,,,,,,806,2022-01-16_23h48.24.895,multiplicationStroop,2021.2.3,MacIntel,59.99880004,,,,,,,,,,,,,,,,,,,,,,,,,,,,,,,,,40,1.5848,1,0,11,11,13,1,5,×,8,5 × 8,incongruent,smallerFirst,2,1,40,,,,,,,,
,,,,,,,,,,,,,,,806,2022-01-16_23h48.24.895,multiplicationStroop,2021.2.3,MacIntel,59.99880004,,,,,,,,,,,,,,,,,,,,,,,,,,,,,,,,,10,1.582,1,0,12,12,21,1,5,×,2,5 × 2,incongruent,largerFirst,1,2,10,,,,,,,,
,,,,,,,,,,,,,,,806,2022-01-16_23h48.24.895,multiplicationStroop,2021.2.3,MacIntel,59.99880004,,,,,,,,,,,,,,,,,,,,,,,,,,,,,,,,,6,1.6319,1,0,13,13,11,1,2,×,3,2 × 3,incongruent,smallerFirst,2,1,6,,,,,,,,
,,,,,,,,,,,,,,,806,2022-01-16_23h48.24.895,multiplicationStroop,2021.2.3,MacIntel,59.99880004,,,,,,,,,,,,,,,,,,,,,,,,,,,,,,,,,72,3.6491,1,0,14,14,0,1,8,×,9,8 × 9,incongruent,smallerFirst,2,1,72,,,,,,,,
,,,,,,,,,,,,,,,806,2022-01-16_23h48.24.895,multiplicationStroop,2021.2.3,MacIntel,59.99880004,,,,,,,,,,,,,,,,,,,,,,,,,,,,,,,,,32,1.9559,1,0,15,15,7,1,4,×,8,4 × 8,incongruent,smallerFirst,2,1,32,,,,,,,,
,,,,,,,,,,,,,,,806,2022-01-16_23h48.24.895,multiplicationStroop,2021.2.3,MacIntel,59.99880004,,,,,,,,,,,,,,,,,,,,,,,,,,,,,,,,,9,1.4836,1,0,16,16,29,1,3,×,3,3 × 3,incongruent,tie,1,2,9,,,,,,,,
,,,,,,,,,,,,,,,806,2022-01-16_23h48.24.895,multiplicationStroop,2021.2.3,MacIntel,59.99880004,,,,,,,,,,,,,,,,,,,,,,,,,,,,,,,,,56,1.781,1,0,17,17,14,1,8,×,7,8 × 7,incongruent,largerFirst,1,2,56,,,,,,,,
,,,,,,,,,,,,,,,806,2022-01-16_23h48.24.895,multiplicationStroop,2021.2.3,MacIntel,59.99880004,,,,,,,,,,,,,,,,,,,,,,,,,,,,,,,,,21,1.4147,1,0,18,18,26,1,7,×,3,7 × 3,incongruent,largerFirst,1,2,21,,,,,,,,
,,,,,,,,,,,,,,,806,2022-01-16_23h48.24.895,multiplicationStroop,2021.2.3,MacIntel,59.99880004,,,,,,,,,,,,,,,,,,,,,,,,,,,,,,,,,28,1.8146,1,0,19,19,16,1,7,×,4,7 × 4,incongruent,largerFirst,1,2,28,,,,,,,,
,,,,,,,,,,,,,,,806,2022-01-16_23h48.24.895,multiplicationStroop,2021.2.3,MacIntel,59.99880004,,,,,,,,,,,,,,,,,,,,,,,,,,,,,,,,,20,1.764,1,0,20,20,27,1,5,×,4,5 × 4,incongruent,largerFirst,1,2,20,,,,,,,,
,,,,,,,,,,,,,,,806,2022-01-16_23h48.24.895,multiplicationStroop,2021.2.3,MacIntel,59.99880004,,,,,,,,,,,,,,,,,,,,,,,,,,,,,,,,,42,2.9175,1,0,21,21,17,1,7,×,6,7 × 6,incongruent,largerFirst,1,2,42,,,,,,,,
,,,,,,,,,,,,,,,806,2022-01-16_23h48.24.895,multiplicationStroop,2021.2.3,MacIntel,59.99880004,,,,,,,,,,,,,,,,,,,,,,,,,,,,,,,,,15,1.9651,1,0,22,22,10,1,3,×,5,3 × 5,incongruent,smallerFirst,2,1,15,,,,,,,,
,,,,,,,,,,,,,,,806,2022-01-16_23h48.24.895,multiplicationStroop,2021.2.3,MacIntel,59.99880004,,,,,,,,,,,,,,,,,,,,,,,,,,,,,,,,,1,1.4489,0,0,23,23,19,1,6,×,2,6 × 2,incongruent,largerFirst,1,2,12,,,,,,,,
,,,,,,,,,,,,,,,806,2022-01-16_23h48.24.895,multiplicationStroop,2021.2.3,MacIntel,59.99880004,,,,,,,,,,,,,,,,,,,,,,,,,,,,,,,,,24,1.9178,1,0,24,24,9,1,3,×,8,3 × 8,incongruent,smallerFirst,2,1,24,,,,,,,,
,,,,,,,,,,,,,,,806,2022-01-16_23h48.24.895,multiplicationStroop,2021.2.3,MacIntel,59.99880004,,,,,,,,,,,,,,,,,,,,,,,,,,,,,,,,,14,1.4961,1,0,25,25,4,1,2,×,7,2 × 7,incongruent,smallerFirst,2,1,14,,,,,,,,
,,,,,,,,,,,,,,,806,2022-01-16_23h48.24.895,multiplicationStroop,2021.2.3,MacIntel,59.99880004,,,,,,,,,,,,,,,,,,,,,,,,,,,,,,,,,18,1.8826,1,0,26,26,8,1,3,×,6,3 × 6,incongruent,smallerFirst,2,1,18,,,,,,,,
,,,,,,,,,,,,,,,806,2022-01-16_23h48.24.895,multiplicationStroop,2021.2.3,MacIntel,59.99880004,,,,,,,,,,,,,,,,,,,,,,,,,,,,,,,,,45,1.5665,1,0,27,27,22,1,9,×,5,9 × 5,incongruent,largerFirst,1,2,45,,,,,,,,
,,,,,,,,,,,,,,,806,2022-01-16_23h48.24.895,multiplicationStroop,2021.2.3,MacIntel,59.99880004,,,,,,,,,,,,,,,,,,,,,,,,,,,,,,,,,64,1.8331,1,0,28,28,34,1,8,×,8,8 × 8,incongruent,tie,1,2,64,,,,,,,,
,,,,,,,,,,,,,,,806,2022-01-16_23h48.24.895,multiplicationStroop,2021.2.3,MacIntel,59.99880004,,,,,,,,,,,,,,,,,,,,,,,,,,,,,,,,,30,1.7151,1,0,29,29,25,1,6,×,5,6 × 5,incongruent,largerFirst,1,2,30,,,,,,,,
,,,,,,,,,,,,,,,806,2022-01-16_23h48.24.895,multiplicationStroop,2021.2.3,MacIntel,59.99880004,,,,,,,,,,,,,,,,,,,,,,,,,,,,,,,,,49,1.8995,1,0,30,30,33,1,7,×,7,7 × 7,incongruent,tie,1,2,49,,,,,,,,
,,,,,,,,,,,,,,,806,2022-01-16_23h48.24.895,multiplicationStroop,2021.2.3,MacIntel,59.99880004,,,,,,,,,,,,,,,,,,,,,,,,,,,,,,,,,36,3.1327,1,0,31,31,32,1,6,×,6,6 × 6,incongruent,tie,1,2,36,,,,,,,,
,,,,,,,,,,,,,,,806,2022-01-16_23h48.24.895,multiplicationStroop,2021.2.3,MacIntel,59.99880004,,,,,,,,,,,,,,,,,,,,,,,,,,,,,,,,,81,3.2902,1,0,32,32,35,1,9,×,9,9 × 9,incongruent,tie,1,2,81,,,,,,,,
,,,,,,,,,,,,,,,806,2022-01-16_23h48.24.895,multiplicationStroop,2021.2.3,MacIntel,59.99880004,,,,,,,,,,,,,,,,,,,,,,,,,,,,,,,,,25,1.7474,1,0,33,33,31,1,5,×,5,5 × 5,incongruent,tie,1,2,25,,,,,,,,
,,,,,,,,,,,,,,,806,2022-01-16_23h48.24.895,multiplicationStroop,2021.2.3,MacIntel,59.99880004,,,,,,,,,,,,,,,,,,,,,,,,,,,,,,,,,16,3.0002,1,0,34,34,23,1,8,×,2,8 × 2,incongruent,largerFirst,1,2,16,,,,,,,,
,,,,,,,,,,,,,,,806,2022-01-16_23h48.24.895,multiplicationStroop,2021.2.3,MacIntel,59.99880004,,,,,,,,,,,,,,,,,,,,,,,,,,,,,,,,,12,1.8218,1,0,35,35,5,1,3,×,4,3 × 4,incongruent,smallerFirst,2,1,12,,,,,,,,
,,,,,,,,,,,,,,,806,2022-01-16_23h48.24.895,multiplicationStroop,2021.2.3,MacIntel,59.99880004,,,,,,,,,,,,,,,,,,,,,,,,,,,,,,,,,,,,,,,,,,,,,,,,,,0,1,1,5,1,stimulusFile/mult_blk6_INcongruent.xlsx,,
,,,,,,,,,,,,,,,806,2022-01-16_23h48.24.895,multiplicationStroop,2021.2.3,MacIntel,59.99880004,,,,,,,,,,,,,,,,,,,,,,,,,,,,,,,space,1.2703,30,1.9421,1,0,0,0,11,1,5,×,6,5 × 6,incongruent,smallerFirst,2,1,30,,,,,,,,
,,,,,,,,,,,,,,,806,2022-01-16_23h48.24.895,multiplicationStroop,2021.2.3,MacIntel,59.99880004,,,,,,,,,,,,,,,,,,,,,,,,,,,,,,,,,9,1.4644,1,0,1,1,29,1,3,×,3,3 × 3,neutral,tie,2,1,9,,,,,,,,
,,,,,,,,,,,,,,,806,2022-01-16_23h48.24.895,multiplicationStroop,2021.2.3,MacIntel,59.99880004,,,,,,,,,,,,,,,,,,,,,,,,,,,,,,,,,4,1.266,1,0,2,2,28,1,2,×,2,2 × 2,neutral,tie,2,1,4,,,,,,,,
,,,,,,,,,,,,,,,806,2022-01-16_23h48.24.895,multiplicationStroop,2021.2.3,MacIntel,59.99880004,,,,,,,,,,,,,,,,,,,,,,,,,,,,,,,,,18,1.5994,1,0,3,3,16,1,9,×,2,9 × 2,incongruent,largerFirst,1,2,18,,,,,,,,
,,,,,,,,,,,,,,,806,2022-01-16_23h48.24.895,multiplicationStroop,2021.2.3,MacIntel,59.99880004,,,,,,,,,,,,,,,,,,,,,,,,,,,,,,,,,25,1.6332,1,0,4,4,31,1,5,×,5,5 × 5,neutral,tie,2,1,25,,,,,,,,
,,,,,,,,,,,,,,,806,2022-01-16_23h48.24.895,multiplicationStroop,2021.2.3,MacIntel,59.99880004,,,,,,,,,,,,,,,,,,,,,,,,,,,,,,,,,12,1.3328,1,0,5,5,19,1,4,×,3,4 × 3,incongruent,largerFirst,1,2,12,,,,,,,,
,,,,,,,,,,,,,,,806,2022-01-16_23h48.24.895,multiplicationStroop,2021.2.3,MacIntel,59.99880004,,,,,,,,,,,,,,,,,,,,,,,,,,,,,,,,,36,1.8503,1,0,6,6,32,1,6,×,6,6 × 6,neutral,tie,2,1,36,,,,,,,,
,,,,,,,,,,,,,,,806,2022-01-16_23h48.24.895,multiplicationStroop,2021.2.3,MacIntel,59.99880004,,,,,,,,,,,,,,,,,,,,,,,,,,,,,,,,,63,1.9152,1,0,7,7,17,1,9,×,7,9 × 7,incongruent,largerFirst,1,2,63,,,,,,,,
,,,,,,,,,,,,,,,806,2022-01-16_23h48.24.895,multiplicationStroop,2021.2.3,MacIntel,59.99880004,,,,,,,,,,,,,,,,,,,,,,,,,,,,,,,,,6,1.3498,1,0,8,8,25,1,3,×,2,3 × 2,incongruent,largerFirst,1,2,6,,,,,,,,
,,,,,,,,,,,,,,,806,2022-01-16_23h48.24.895,multiplicationStroop,2021.2.3,MacIntel,59.99880004,,,,,,,,,,,,,,,,,,,,,,,,,,,,,,,,,24,3.0496,1,0,9,9,6,1,4,×,6,4 × 6,incongruent,smallerFirst,2,1,24,,,,,,,,
,,,,,,,,,,,,,,,806,2022-01-16_23h48.24.895,multiplicationStroop,2021.2.3,MacIntel,59.99880004,,,,,,,,,,,,,,,,,,,,,,,,,,,,,,,,,32,1.5485,1,0,10,10,21,1,8,×,4,8 × 4,incongruent,largerFirst,1,2,32,,,,,,,,
,,,,,,,,,,,,,,,806,2022-01-16_23h48.24.895,multiplicationStroop,2021.2.3,MacIntel,59.99880004,,,,,,,,,,,,,,,,,,,,,,,,,,,,,,,,,14,1.5003,1,0,11,11,18,1,7,×,2,7 × 2,incongruent,largerFirst,1,2,14,,,,,,,,
,,,,,,,,,,,,,,,806,2022-01-16_23h48.24.895,multiplicationStroop,2021.2.3,MacIntel,59.99880004,,,,,,,,,,,,,,,,,,,,,,,,,,,,,,,,,24,1.4491,1,0,12,12,23,1,8,×,3,8 × 3,incongruent,largerFirst,1,2,24,,,,,,,,
,,,,,,,,,,,,,,,806,2022-01-16_23h48.24.895,multiplicationStroop,2021.2.3,MacIntel,59.99880004,,,,,,,,,,,,,,,,,,,,,,,,,,,,,,,,,15,1.6834,1,0,13,13,24,1,5,×,3,5 × 3,incongruent,largerFirst,1,2,15,,,,,,,,
,,,,,,,,,,,,,,,806,2022-01-16_23h48.24.895,multiplicationStroop,2021.2.3,MacIntel,59.99880004,,,,,,,,,,,,,,,,,,,,,,,,,,,,,,,,,28,2.3999,0,0,14,14,1,1,4,×,9,4 × 9,incongruent,smallerFirst,2,1,36,,,,,,,,
,,,,,,,,,,,,,,,806,2022-01-16_23h48.24.895,multiplicationStroop,2021.2.3,MacIntel,59.99880004,,,,,,,,,,,,,,,,,,,,,,,,,,,,,,,,,42,2.515,1,0,15,15,3,1,6,×,7,6 × 7,incongruent,smallerFirst,2,1,42,,,,,,,,
,,,,,,,,,,,,,,,806,2022-01-16_23h48.24.895,multiplicationStroop,2021.2.3,MacIntel,59.99880004,,,,,,,,,,,,,,,,,,,,,,,,,,,,,,,,,40,2.7907,1,0,16,16,27,1,8,×,5,8 × 5,incongruent,largerFirst,1,2,40,,,,,,,,
,,,,,,,,,,,,,,,806,2022-01-16_23h48.24.895,multiplicationStroop,2021.2.3,MacIntel,59.99880004,,,,,,,,,,,,,,,,,,,,,,,,,,,,,,,,,8,1.4807,1,0,17,17,10,1,2,×,4,2 × 4,incongruent,smallerFirst,2,1,8,,,,,,,,
,,,,,,,,,,,,,,,806,2022-01-16_23h48.24.895,multiplicationStroop,2021.2.3,MacIntel,59.99880004,,,,,,,,,,,,,,,,,,,,,,,,,,,,,,,,,45,1.9999,1,0,18,18,8,1,5,×,9,5 × 9,incongruent,smallerFirst,2,1,45,,,,,,,,
,,,,,,,,,,,,,,,806,2022-01-16_23h48.24.895,multiplicationStroop,2021.2.3,MacIntel,59.99880004,,,,,,,,,,,,,,,,,,,,,,,,,,,,,,,,,21,1.983,0,0,19,19,4,1,3,×,9,3 × 9,incongruent,smallerFirst,2,1,27,,,,,,,,
,,,,,,,,,,,,,,,806,2022-01-16_23h48.24.895,multiplicationStroop,2021.2.3,MacIntel,59.99880004,,,,,,,,,,,,,,,,,,,,,,,,,,,,,,,,,64,1.9995,1,0,20,20,34,1,8,×,8,8 × 8,neutral,tie,2,1,64,,,,,,,,
,,,,,,,,,,,,,,,806,2022-01-16_23h48.24.895,multiplicationStroop,2021.2.3,MacIntel,59.99880004,,,,,,,,,,,,,,,,,,,,,,,,,,,,,,,,,81,1.833,1,0,21,21,35,1,9,×,9,9 × 9,neutral,tie,2,1,81,,,,,,,,
,,,,,,,,,,,,,,,806,2022-01-16_23h48.24.895,multiplicationStroop,2021.2.3,MacIntel,59.99880004,,,,,,,,,,,,,,,,,,,,,,,,,,,,,,,,,10,2.0329,1,0,22,22,7,1,2,×,5,2 × 5,incongruent,smallerFirst,2,1,10,,,,,,,,
,,,,,,,,,,,,,,,806,2022-01-16_23h48.24.895,multiplicationStroop,2021.2.3,MacIntel,59.99880004,,,,,,,,,,,,,,,,,,,,,,,,,,,,,,,,,54,1.9497,1,0,23,23,20,1,9,×,6,9 × 6,incongruent,largerFirst,1,2,54,,,,,,,,
,,,,,,,,,,,,,,,806,2022-01-16_23h48.24.895,multiplicationStroop,2021.2.3,MacIntel,59.99880004,,,,,,,,,,,,,,,,,,,,,,,,,,,,,,,,,16,1.8152,1,0,24,24,30,1,4,×,4,4 × 4,neutral,tie,2,1,16,,,,,,,,
,,,,,,,,,,,,,,,806,2022-01-16_23h48.24.895,multiplicationStroop,2021.2.3,MacIntel,59.99880004,,,,,,,,,,,,,,,,,,,,,,,,,,,,,,,,,1,1.499,0,0,25,25,5,1,2,×,6,2 × 6,incongruent,smallerFirst,2,1,12,,,,,,,,
,,,,,,,,,,,,,,,806,2022-01-16_23h48.24.895,multiplicationStroop,2021.2.3,MacIntel,59.99880004,,,,,,,,,,,,,,,,,,,,,,,,,,,,,,,,,20,1.6477,1,0,26,26,13,1,4,×,5,4 × 5,incongruent,smallerFirst,2,1,20,,,,,,,,
,,,,,,,,,,,,,,,806,2022-01-16_23h48.24.895,multiplicationStroop,2021.2.3,MacIntel,59.99880004,,,,,,,,,,,,,,,,,,,,,,,,,,,,,,,,,72,2.4498,1,0,27,27,14,1,9,×,8,9 × 8,incongruent,largerFirst,1,2,72,,,,,,,,
,,,,,,,,,,,,,,,806,2022-01-16_23h48.24.895,multiplicationStroop,2021.2.3,MacIntel,59.99880004,,,,,,,,,,,,,,,,,,,,,,,,,,,,,,,,,35,1.7508,1,0,28,28,26,1,7,×,5,7 × 5,incongruent,largerFirst,1,2,35,,,,,,,,
,,,,,,,,,,,,,,,806,2022-01-16_23h48.24.895,multiplicationStroop,2021.2.3,MacIntel,59.99880004,,,,,,,,,,,,,,,,,,,,,,,,,,,,,,,,,49,2.098,1,0,29,29,33,1,7,×,7,7 × 7,neutral,tie,2,1,49,,,,,,,,
,,,,,,,,,,,,,,,806,2022-01-16_23h48.24.895,multiplicationStroop,2021.2.3,MacIntel,59.99880004,,,,,,,,,,,,,,,,,,,,,,,,,,,,,,,,,28,1.9002,1,0,30,30,2,1,4,×,7,4 × 7,incongruent,smallerFirst,2,1,28,,,,,,,,
,,,,,,,,,,,,,,,806,2022-01-16_23h48.24.895,multiplicationStroop,2021.2.3,MacIntel,59.99880004,,,,,,,,,,,,,,,,,,,,,,,,,,,,,,,,,48,2.0649,1,0,31,31,15,1,8,×,6,8 × 6,incongruent,largerFirst,1,2,48,,,,,,,,
,,,,,,,,,,,,,,,806,2022-01-16_23h48.24.895,multiplicationStroop,2021.2.3,MacIntel,59.99880004,,,,,,,,,,,,,,,,,,,,,,,,,,,,,,,,,21,1.5165,1,0,32,32,12,1,3,×,7,3 × 7,incongruent,smallerFirst,2,1,21,,,,,,,,
,,,,,,,,,,,,,,,806,2022-01-16_23h48.24.895,multiplicationStroop,2021.2.3,MacIntel,59.99880004,,,,,,,,,,,,,,,,,,,,,,,,,,,,,,,,,56,2.1819,1,0,33,33,0,1,7,×,8,7 × 8,incongruent,smallerFirst,2,1,56,,,,,,,,
,,,,,,,,,,,,,,,806,2022-01-16_23h48.24.895,multiplicationStroop,2021.2.3,MacIntel,59.99880004,,,,,,,,,,,,,,,,,,,,,,,,,,,,,,,,,18,1.9822,1,0,34,34,22,1,6,×,3,6 × 3,incongruent,largerFirst,1,2,18,,,,,,,,
,,,,,,,,,,,,,,,806,2022-01-16_23h48.24.895,multiplicationStroop,2021.2.3,MacIntel,59.99880004,,,,,,,,,,,,,,,,,,,,,,,,,,,,,,,,,16,1.6653,1,0,35,35,9,1,2,×,8,2 × 8,incongruent,smallerFirst,2,1,16,,,,,,,,
,,,,,,,,,,,,,,,806,2022-01-16_23h48.24.895,multiplicationStroop,2021.2.3,MacIntel,59.99880004,,,,,,,,,,,,,,,,,,,,,,,,,,,,,,,,,,,,,,,,,,,,,,,,,,0,2,2,4,1,stimulusFile/mult_blk5_INcongruent.xlsx,,
,,,,,,,,,,,,,,,806,2022-01-16_23h48.24.895,multiplicationStroop,2021.2.3,MacIntel,59.99880004,,,,,,,,,,,,,,,,,,,,,,,,,,,,,,,space,2.6988,14,1.6885,1,0,0,0,0,1,2,×,7,2 × 7,congruent,smallerFirst,1,2,14,,,,,,,,
,,,,,,,,,,,,,,,806,2022-01-16_23h48.24.895,multiplicationStroop,2021.2.3,MacIntel,59.99880004,,,,,,,,,,,,,,,,,,,,,,,,,,,,,,,,,63,2.0828,1,0,1,1,7,1,7,×,9,7 × 9,congruent,smallerFirst,1,2,63,,,,,,,,
,,,,,,,,,,,,,,,806,2022-01-16_23h48.24.895,multiplicationStroop,2021.2.3,MacIntel,59.99880004,,,,,,,,,,,,,,,,,,,,,,,,,,,,,,,,,35,1.5974,1,0,2,2,15,1,7,×,5,7 × 5,congruent,largerFirst,2,1,35,,,,,,,,
,,,,,,,,,,,,,,,806,2022-01-16_23h48.24.895,multiplicationStroop,2021.2.3,MacIntel,59.99880004,,,,,,,,,,,,,,,,,,,,,,,,,,,,,,,,,18,1.8664,1,0,3,3,8,1,2,×,9,2 × 9,congruent,smallerFirst,1,2,18,,,,,,,,
,,,,,,,,,,,,,,,806,2022-01-16_23h48.24.895,multiplicationStroop,2021.2.3,MacIntel,59.99880004,,,,,,,,,,,,,,,,,,,,,,,,,,,,,,,,,72,1.9656,1,0,4,4,3,1,8,×,9,8 × 9,congruent,smallerFirst,1,2,72,,,,,,,,
,,,,,,,,,,,,,,,806,2022-01-16_23h48.24.895,multiplicationStroop,2021.2.3,MacIntel,59.99880004,,,,,,,,,,,,,,,,,,,,,,,,,,,,,,,,,40,1.7516,1,0,5,5,20,1,8,×,5,8 × 5,congruent,largerFirst,2,1,40,,,,,,,,
,,,,,,,,,,,,,,,806,2022-01-16_23h48.24.895,multiplicationStroop,2021.2.3,MacIntel,59.99880004,,,,,,,,,,,,,,,,,,,,,,,,,,,,,,,,,32,1.5972,1,0,6,6,6,1,4,×,8,4 × 8,congruent,smallerFirst,1,2,32,,,,,,,,
,,,,,,,,,,,,,,,806,2022-01-16_23h48.24.895,multiplicationStroop,2021.2.3,MacIntel,59.99880004,,,,,,,,,,,,,,,,,,,,,,,,,,,,,,,,,45,1.9999,1,0,7,7,9,1,5,×,9,5 × 9,congruent,smallerFirst,1,2,45,,,,,,,,
,,,,,,,,,,,,,,,806,2022-01-16_23h48.24.895,multiplicationStroop,2021.2.3,MacIntel,59.99880004,,,,,,,,,,,,,,,,,,,,,,,,,,,,,,,,,15,1.6002,1,0,8,8,18,1,5,×,3,5 × 3,congruent,largerFirst,2,1,15,,,,,,,,
,,,,,,,,,,,,,,,806,2022-01-16_23h48.24.895,multiplicationStroop,2021.2.3,MacIntel,59.99880004,,,,,,,,,,,,,,,,,,,,,,,,,,,,,,,,,8,1.6312,1,0,9,9,23,1,4,×,2,4 × 2,congruent,largerFirst,2,1,8,,,,,,,,
,,,,,,,,,,,,,,,806,2022-01-16_23h48.24.895,multiplicationStroop,2021.2.3,MacIntel,59.99880004,,,,,,,,,,,,,,,,,,,,,,,,,,,,,,,,,48,2.4504,1,0,10,10,4,1,6,×,8,6 × 8,congruent,smallerFirst,1,2,48,,,,,,,,
,,,,,,,,,,,,,,,806,2022-01-16_23h48.24.895,multiplicationStroop,2021.2.3,MacIntel,59.99880004,,,,,,,,,,,,,,,,,,,,,,,,,,,,,,,,,4,1.2304,1,0,11,11,28,1,2,×,2,2 × 2,neutral,tie,1,2,4,,,,,,,,
,,,,,,,,,,,,,,,806,2022-01-16_23h48.24.895,multiplicationStroop,2021.2.3,MacIntel,59.99880004,,,,,,,,,,,,,,,,,,,,,,,,,,,,,,,,,16,2.8336,1,0,12,12,30,1,4,×,4,4 × 4,neutral,tie,1,2,16,,,,,,,,
,,,,,,,,,,,,,,,806,2022-01-16_23h48.24.895,multiplicationStroop,2021.2.3,MacIntel,59.99880004,,,,,,,,,,,,,,,,,,,,,,,,,,,,,,,,,36,1.7226,1,0,13,13,32,1,6,×,6,6 × 6,neutral,tie,1,2,36,,,,,,,,
,,,,,,,,,,,,,,,806,2022-01-16_23h48.24.895,multiplicationStroop,2021.2.3,MacIntel,59.99880004,,,,,,,,,,,,,,,,,,,,,,,,,,,,,,,,,81,1.7318,1,0,14,14,35,1,9,×,9,9 × 9,neutral,tie,1,2,81,,,,,,,,
,,,,,,,,,,,,,,,806,2022-01-16_23h48.24.895,multiplicationStroop,2021.2.3,MacIntel,59.99880004,,,,,,,,,,,,,,,,,,,,,,,,,,,,,,,,,27,2.1494,1,0,15,15,12,1,3,×,9,3 × 9,congruent,smallerFirst,1,2,27,,,,,,,,
,,,,,,,,,,,,,,,806,2022-01-16_23h48.24.895,multiplicationStroop,2021.2.3,MacIntel,59.99880004,,,,,,,,,,,,,,,,,,,,,,,,,,,,,,,,,6,1.5326,1,0,16,16,27,1,3,×,2,3 × 2,congruent,largerFirst,2,1,6,,,,,,,,
,,,,,,,,,,,,,,,806,2022-01-16_23h48.24.895,multiplicationStroop,2021.2.3,MacIntel,59.99880004,,,,,,,,,,,,,,,,,,,,,,,,,,,,,,,,,24,1.5491,1,0,17,17,11,1,4,×,6,4 × 6,congruent,smallerFirst,1,2,24,,,,,,,,
,,,,,,,,,,,,,,,806,2022-01-16_23h48.24.895,multiplicationStroop,2021.2.3,MacIntel,59.99880004,,,,,,,,,,,,,,,,,,,,,,,,,,,,,,,,,9,1.6493,1,0,18,18,29,1,3,×,3,3 × 3,neutral,tie,1,2,9,,,,,,,,
,,,,,,,,,,,,,,,806,2022-01-16_23h48.24.895,multiplicationStroop,2021.2.3,MacIntel,59.99880004,,,,,,,,,,,,,,,,,,,,,,,,,,,,,,,,,24,2.3013,0,0,19,19,17,1,7,×,6,7 × 6,congruent,largerFirst,2,1,42,,,,,,,,
,,,,,,,,,,,,,,,806,2022-01-16_23h48.24.895,multiplicationStroop,2021.2.3,MacIntel,59.99880004,,,,,,,,,,,,,,,,,,,,,,,,,,,,,,,,,49,2.5308,1,0,20,20,33,1,7,×,7,7 × 7,neutral,tie,1,2,49,,,,,,,,
,,,,,,,,,,,,,,,806,2022-01-16_23h48.24.895,multiplicationStroop,2021.2.3,MacIntel,59.99880004,,,,,,,,,,,,,,,,,,,,,,,,,,,,,,,,,20,1.9844,1,0,21,21,21,1,5,×,4,5 × 4,congruent,largerFirst,2,1,20,,,,,,,,
,,,,,,,,,,,,,,,806,2022-01-16_23h48.24.895,multiplicationStroop,2021.2.3,MacIntel,59.99880004,,,,,,,,,,,,,,,,,,,,,,,,,,,,,,,,,36,2.2329,1,0,22,22,14,1,9,×,4,9 × 4,congruent,largerFirst,2,1,36,,,,,,,,
,,,,,,,,,,,,,,,806,2022-01-16_23h48.24.895,multiplicationStroop,2021.2.3,MacIntel,59.99880004,,,,,,,,,,,,,,,,,,,,,,,,,,,,,,,,,54,2.048,1,0,23,23,26,1,9,×,6,9 × 6,congruent,largerFirst,2,1,54,,,,,,,,
,,,,,,,,,,,,,,,806,2022-01-16_23h48.24.895,multiplicationStroop,2021.2.3,MacIntel,59.99880004,,,,,,,,,,,,,,,,,,,,,,,,,,,,,,,,,28,1.8822,1,0,24,24,13,1,4,×,7,4 × 7,congruent,smallerFirst,1,2,28,,,,,,,,
,,,,,,,,,,,,,,,806,2022-01-16_23h48.24.895,multiplicationStroop,2021.2.3,MacIntel,59.99880004,,,,,,,,,,,,,,,,,,,,,,,,,,,,,,,,,16,2.1168,1,0,25,25,19,1,8,×,2,8 × 2,congruent,largerFirst,2,1,16,,,,,,,,
,,,,,,,,,,,,,,,806,2022-01-16_23h48.24.895,multiplicationStroop,2021.2.3,MacIntel,59.99880004,,,,,,,,,,,,,,,,,,,,,,,,,,,,,,,,,21,1.6009,1,0,26,26,2,1,3,×,7,3 × 7,congruent,smallerFirst,1,2,21,,,,,,,,
,,,,,,,,,,,,,,,806,2022-01-16_23h48.24.895,multiplicationStroop,2021.2.3,MacIntel,59.99880004,,,,,,,,,,,,,,,,,,,,,,,,,,,,,,,,,12,1.5492,1,0,27,27,5,1,2,×,6,2 × 6,congruent,smallerFirst,1,2,12,,,,,,,,
,,,,,,,,,,,,,,,806,2022-01-16_23h48.24.895,multiplicationStroop,2021.2.3,MacIntel,59.99880004,,,,,,,,,,,,,,,,,,,,,,,,,,,,,,,,,24,1.5664,1,0,28,28,24,1,8,×,3,8 × 3,congruent,largerFirst,2,1,24,,,,,,,,
,,,,,,,,,,,,,,,806,2022-01-16_23h48.24.895,multiplicationStroop,2021.2.3,MacIntel,59.99880004,,,,,,,,,,,,,,,,,,,,,,,,,,,,,,,,,25,1.5139,1,0,29,29,31,1,5,×,5,5 × 5,neutral,tie,1,2,25,,,,,,,,
,,,,,,,,,,,,,,,806,2022-01-16_23h48.24.895,multiplicationStroop,2021.2.3,MacIntel,59.99880004,,,,,,,,,,,,,,,,,,,,,,,,,,,,,,,,,56,3.6162,1,0,30,30,22,1,8,×,7,8 × 7,congruent,largerFirst,2,1,56,,,,,,,,
,,,,,,,,,,,,,,,806,2022-01-16_23h48.24.895,multiplicationStroop,2021.2.3,MacIntel,59.99880004,,,,,,,,,,,,,,,,,,,,,,,,,,,,,,,,,10,1.6732,1,0,31,31,10,1,2,×,5,2 × 5,congruent,smallerFirst,1,2,10,,,,,,,,
,,,,,,,,,,,,,,,806,2022-01-16_23h48.24.895,multiplicationStroop,2021.2.3,MacIntel,59.99880004,,,,,,,,,,,,,,,,,,,,,,,,,,,,,,,,,36,2.7308,0,0,32,32,25,1,6,×,3,6 × 3,congruent,largerFirst,2,1,18,,,,,,,,
,,,,,,,,,,,,,,,806,2022-01-16_23h48.24.895,multiplicationStroop,2021.2.3,MacIntel,59.99880004,,,,,,,,,,,,,,,,,,,,,,,,,,,,,,,,,64,2.1337,1,0,33,33,34,1,8,×,8,8 × 8,neutral,tie,1,2,64,,,,,,,,
,,,,,,,,,,,,,,,806,2022-01-16_23h48.24.895,multiplicationStroop,2021.2.3,MacIntel,59.99880004,,,,,,,,,,,,,,,,,,,,,,,,,,,,,,,,,30,2.7833,1,0,34,34,1,1,5,×,6,5 × 6,congruent,smallerFirst,1,2,30,,,,,,,,
,,,,,,,,,,,,,,,806,2022-01-16_23h48.24.895,multiplicationStroop,2021.2.3,MacIntel,59.99880004,,,,,,,,,,,,,,,,,,,,,,,,,,,,,,,,,12,1.4068,1,0,35,35,16,1,4,×,3,4 × 3,congruent,largerFirst,2,1,12,,,,,,,,
,,,,,,,,,,,,,,,806,2022-01-16_23h48.24.895,multiplicationStroop,2021.2.3,MacIntel,59.99880004,,,,,,,,,,,,,,,,,,,,,,,,,,,,,,,,,,,,,,,,,,,,,,,,,,0,3,3,3,1,stimulusFile/mult_blk4_congruent.xlsx,,
,,,,,,,,,,,,,,,806,2022-01-16_23h48.24.895,multiplicationStroop,2021.2.3,MacIntel,59.99880004,,,,,,,,,,,,,,,,,,,,,,,,,,,,,,,space,1.5573,21,1.5224,1,0,0,0,16,1,7,×,3,7 × 3,congruent,largerFirst,2,1,21,,,,,,,,
,,,,,,,,,,,,,,,806,2022-01-16_23h48.24.895,multiplicationStroop,2021.2.3,MacIntel,59.99880004,,,,,,,,,,,,,,,,,,,,,,,,,,,,,,,,,4,1.2481,1,0,1,1,28,1,2,×,2,2 × 2,neutral,tie,2,1,4,,,,,,,,
,,,,,,,,,,,,,,,806,2022-01-16_23h48.24.895,multiplicationStroop,2021.2.3,MacIntel,59.99880004,,,,,,,,,,,,,,,,,,,,,,,,,,,,,,,,,6,2.0332,1,0,2,2,13,1,2,×,3,2 × 3,congruent,smallerFirst,1,2,6,,,,,,,,
,,,,,,,,,,,,,,,806,2022-01-16_23h48.24.895,multiplicationStroop,2021.2.3,MacIntel,59.99880004,,,,,,,,,,,,,,,,,,,,,,,,,,,,,,,,,56,1.9156,1,0,3,3,8,1,7,×,8,7 × 8,congruent,smallerFirst,1,2,56,,,,,,,,
,,,,,,,,,,,,,,,806,2022-01-16_23h48.24.895,multiplicationStroop,2021.2.3,MacIntel,59.99880004,,,,,,,,,,,,,,,,,,,,,,,,,,,,,,,,,18,1.6168,1,0,4,4,22,1,9,×,2,9 × 2,congruent,largerFirst,2,1,18,,,,,,,,
,,,,,,,,,,,,,,,806,2022-01-16_23h48.24.895,multiplicationStroop,2021.2.3,MacIntel,59.99880004,,,,,,,,,,,,,,,,,,,,,,,,,,,,,,,,,8,1.7833,1,0,5,5,9,1,2,×,4,2 × 4,congruent,smallerFirst,1,2,8,,,,,,,,
,,,,,,,,,,,,,,,806,2022-01-16_23h48.24.895,multiplicationStroop,2021.2.3,MacIntel,59.99880004,,,,,,,,,,,,,,,,,,,,,,,,,,,,,,,,,24,1.8148,1,0,6,6,10,1,3,×,8,3 × 8,congruent,smallerFirst,1,2,24,,,,,,,,
,,,,,,,,,,,,,,,806,2022-01-16_23h48.24.895,multiplicationStroop,2021.2.3,MacIntel,59.99880004,,,,,,,,,,,,,,,,,,,,,,,,,,,,,,,,,14,1.5329,1,0,7,7,14,1,7,×,2,7 × 2,congruent,largerFirst,2,1,14,,,,,,,,
,,,,,,,,,,,,,,,806,2022-01-16_23h48.24.895,multiplicationStroop,2021.2.3,MacIntel,59.99880004,,,,,,,,,,,,,,,,,,,,,,,,,,,,,,,,,24,1.5334,1,0,8,8,25,1,6,×,4,6 × 4,congruent,largerFirst,2,1,24,,,,,,,,
,,,,,,,,,,,,,,,806,2022-01-16_23h48.24.895,multiplicationStroop,2021.2.3,MacIntel,59.99880004,,,,,,,,,,,,,,,,,,,,,,,,,,,,,,,,,12,1.4314,1,0,9,9,19,1,6,×,2,6 × 2,congruent,largerFirst,2,1,12,,,,,,,,
,,,,,,,,,,,,,,,806,2022-01-16_23h48.24.895,multiplicationStroop,2021.2.3,MacIntel,59.99880004,,,,,,,,,,,,,,,,,,,,,,,,,,,,,,,,,16,2.1319,1,0,10,10,30,1,4,×,4,4 × 4,neutral,tie,2,1,16,,,,,,,,
,,,,,,,,,,,,,,,806,2022-01-16_23h48.24.895,multiplicationStroop,2021.2.3,MacIntel,59.99880004,,,,,,,,,,,,,,,,,,,,,,,,,,,,,,,,,81,1.9826,1,0,11,11,35,1,9,×,9,9 × 9,neutral,tie,2,1,81,,,,,,,,
,,,,,,,,,,,,,,,806,2022-01-16_23h48.24.895,multiplicationStroop,2021.2.3,MacIntel,59.99880004,,,,,,,,,,,,,,,,,,,,,,,,,,,,,,,,,10,1.5161,1,0,12,12,24,1,5,×,2,5 × 2,congruent,largerFirst,2,1,10,,,,,,,,
,,,,,,,,,,,,,,,806,2022-01-16_23h48.24.895,multiplicationStroop,2021.2.3,MacIntel,59.99880004,,,,,,,,,,,,,,,,,,,,,,,,,,,,,,,,,15,1.5162,1,0,13,13,4,1,3,×,5,3 × 5,congruent,smallerFirst,1,2,15,,,,,,,,
,,,,,,,,,,,,,,,806,2022-01-16_23h48.24.895,multiplicationStroop,2021.2.3,MacIntel,59.99880004,,,,,,,,,,,,,,,,,,,,,,,,,,,,,,,,,28,2.5995,1,0,14,14,27,1,7,×,4,7 × 4,congruent,largerFirst,2,1,28,,,,,,,,
,,,,,,,,,,,,,,,806,2022-01-16_23h48.24.895,multiplicationStroop,2021.2.3,MacIntel,59.99880004,,,,,,,,,,,,,,,,,,,,,,,,,,,,,,,,,54,1.933,1,0,15,15,12,1,6,×,9,6 × 9,congruent,smallerFirst,1,2,54,,,,,,,,
,,,,,,,,,,,,,,,806,2022-01-16_23h48.24.895,multiplicationStroop,2021.2.3,MacIntel,59.99880004,,,,,,,,,,,,,,,,,,,,,,,,,,,,,,,,,49,2.4335,1,0,16,16,33,1,7,×,7,7 × 7,neutral,tie,2,1,49,,,,,,,,
,,,,,,,,,,,,,,,806,2022-01-16_23h48.24.895,multiplicationStroop,2021.2.3,MacIntel,59.99880004,,,,,,,,,,,,,,,,,,,,,,,,,,,,,,,,,20,1.5888,1,0,17,17,7,1,4,×,5,4 × 5,congruent,smallerFirst,1,2,20,,,,,,,,
,,,,,,,,,,,,,,,806,2022-01-16_23h48.24.895,multiplicationStroop,2021.2.3,MacIntel,59.99880004,,,,,,,,,,,,,,,,,,,,,,,,,,,,,,,,,12,1.4667,1,0,18,18,2,1,3,×,4,3 × 4,congruent,smallerFirst,1,2,12,,,,,,,,
,,,,,,,,,,,,,,,806,2022-01-16_23h48.24.895,multiplicationStroop,2021.2.3,MacIntel,59.99880004,,,,,,,,,,,,,,,,,,,,,,,,,,,,,,,,,72,2.0157,1,0,19,19,17,1,9,×,8,9 × 8,congruent,largerFirst,2,1,72,,,,,,,,
,,,,,,,,,,,,,,,806,2022-01-16_23h48.24.895,multiplicationStroop,2021.2.3,MacIntel,59.99880004,,,,,,,,,,,,,,,,,,,,,,,,,,,,,,,,,48,2.3497,1,0,20,20,18,1,8,×,6,8 × 6,congruent,largerFirst,2,1,48,,,,,,,,
,,,,,,,,,,,,,,,806,2022-01-16_23h48.24.895,multiplicationStroop,2021.2.3,MacIntel,59.99880004,,,,,,,,,,,,,,,,,,,,,,,,,,,,,,,,,35,1.7349,1,0,21,21,1,1,5,×,7,5 × 7,congruent,smallerFirst,1,2,35,,,,,,,,
,,,,,,,,,,,,,,,806,2022-01-16_23h48.24.895,multiplicationStroop,2021.2.3,MacIntel,59.99880004,,,,,,,,,,,,,,,,,,,,,,,,,,,,,,,,,9,1.5646,1,0,22,22,29,1,3,×,3,3 × 3,neutral,tie,2,1,9,,,,,,,,
,,,,,,,,,,,,,,,806,2022-01-16_23h48.24.895,multiplicationStroop,2021.2.3,MacIntel,59.99880004,,,,,,,,,,,,,,,,,,,,,,,,,,,,,,,,,36,2.0497,1,0,23,23,0,1,4,×,9,4 × 9,congruent,smallerFirst,1,2,36,,,,,,,,
,,,,,,,,,,,,,,,806,2022-01-16_23h48.24.895,multiplicationStroop,2021.2.3,MacIntel,59.99880004,,,,,,,,,,,,,,,,,,,,,,,,,,,,,,,,,30,1.6825,1,0,24,24,15,1,6,×,5,6 × 5,congruent,largerFirst,2,1,30,,,,,,,,
,,,,,,,,,,,,,,,806,2022-01-16_23h48.24.895,multiplicationStroop,2021.2.3,MacIntel,59.99880004,,,,,,,,,,,,,,,,,,,,,,,,,,,,,,,,,18,2.5321,1,0,25,25,11,1,3,×,6,3 × 6,congruent,smallerFirst,1,2,18,,,,,,,,
,,,,,,,,,,,,,,,806,2022-01-16_23h48.24.895,multiplicationStroop,2021.2.3,MacIntel,59.99880004,,,,,,,,,,,,,,,,,,,,,,,,,,,,,,,,,32,1.8024,1,0,26,26,20,1,8,×,4,8 × 4,congruent,largerFirst,2,1,32,,,,,,,,
,,,,,,,,,,,,,,,806,2022-01-16_23h48.24.895,multiplicationStroop,2021.2.3,MacIntel,59.99880004,,,,,,,,,,,,,,,,,,,,,,,,,,,,,,,,,45,1.7319,1,0,27,27,23,1,9,×,5,9 × 5,congruent,largerFirst,2,1,45,,,,,,,,
,,,,,,,,,,,,,,,806,2022-01-16_23h48.24.895,multiplicationStroop,2021.2.3,MacIntel,59.99880004,,,,,,,,,,,,,,,,,,,,,,,,,,,,,,,,,25,1.5659,1,0,28,28,31,1,5,×,5,5 × 5,neutral,tie,2,1,25,,,,,,,,
,,,,,,,,,,,,,,,806,2022-01-16_23h48.24.895,multiplicationStroop,2021.2.3,MacIntel,59.99880004,,,,,,,,,,,,,,,,,,,,,,,,,,,,,,,,,64,2.4983,1,0,29,29,34,1,8,×,8,8 × 8,neutral,tie,2,1,64,,,,,,,,
,,,,,,,,,,,,,,,806,2022-01-16_23h48.24.895,multiplicationStroop,2021.2.3,MacIntel,59.99880004,,,,,,,,,,,,,,,,,,,,,,,,,,,,,,,,,42,2.1166,1,0,30,30,3,1,6,×,7,6 × 7,congruent,smallerFirst,1,2,42,,,,,,,,
,,,,,,,,,,,,,,,806,2022-01-16_23h48.24.895,multiplicationStroop,2021.2.3,MacIntel,59.99880004,,,,,,,,,,,,,,,,,,,,,,,,,,,,,,,,,16,1.6982,1,0,31,31,5,1,2,×,8,2 × 8,congruent,smallerFirst,1,2,16,,,,,,,,
,,,,,,,,,,,,,,,806,2022-01-16_23h48.24.895,multiplicationStroop,2021.2.3,MacIntel,59.99880004,,,,,,,,,,,,,,,,,,,,,,,,,,,,,,,,,63,2.0982,1,0,32,32,21,1,9,×,7,9 × 7,congruent,largerFirst,2,1,63,,,,,,,,
,,,,,,,,,,,,,,,806,2022-01-16_23h48.24.895,multiplicationStroop,2021.2.3,MacIntel,59.99880004,,,,,,,,,,,,,,,,,,,,,,,,,,,,,,,,,27,2.665,1,0,33,33,26,1,9,×,3,9 × 3,congruent,largerFirst,2,1,27,,,,,,,,
,,,,,,,,,,,,,,,806,2022-01-16_23h48.24.895,multiplicationStroop,2021.2.3,MacIntel,59.99880004,,,,,,,,,,,,,,,,,,,,,,,,,,,,,,,,,36,1.8661,1,0,34,34,32,1,6,×,6,6 × 6,neutral,tie,2,1,36,,,,,,,,
,,,,,,,,,,,,,,,806,2022-01-16_23h48.24.895,multiplicationStroop,2021.2.3,MacIntel,59.99880004,,,,,,,,,,,,,,,,,,,,,,,,,,,,,,,,,40,1.7484,1,0,35,35,6,1,5,×,8,5 × 8,congruent,smallerFirst,1,2,40,,,,,,,,
,,,,,,,,,,,,,,,806,2022-01-16_23h48.24.895,multiplicationStroop,2021.2.3,MacIntel,59.99880004,,,,,,,,,,,,,,,,,,,,,,,,,,,,,,,,,,,,,,,,,,,,,,,,,,0,4,4,2,1,stimulusFile/mult_blk3_congruent.xlsx,,
,,,,,,,,,,,,,,,806,2022-01-16_23h48.24.895,multiplicationStroop,2021.2.3,MacIntel,59.99880004,,,,,,,,,,,,,,,,,,,,,,,,,,,,,,,space,0.9322,4,1.9069,1,0,0,0,28,1,2,×,2,2 × 2,neutral,tie,1.5,1.5,4,,,,,,,,
,,,,,,,,,,,,,,,806,2022-01-16_23h48.24.895,multiplicationStroop,2021.2.3,MacIntel,59.99880004,,,,,,,,,,,,,,,,,,,,,,,,,,,,,,,,,15,1.6826,1,0,1,1,5,1,3,×,5,3 × 5,neutral,smallerFirst,1.5,1.5,15,,,,,,,,
,,,,,,,,,,,,,,,806,2022-01-16_23h48.24.895,multiplicationStroop,2021.2.3,MacIntel,59.99880004,,,,,,,,,,,,,,,,,,,,,,,,,,,,,,,,,30,1.5668,1,0,2,2,19,1,6,×,5,6 × 5,neutral,largerFirst,1.5,1.5,30,,,,,,,,
,,,,,,,,,,,,,,,806,2022-01-16_23h48.24.895,multiplicationStroop,2021.2.3,MacIntel,59.99880004,,,,,,,,,,,,,,,,,,,,,,,,,,,,,,,,,54,2.6321,1,0,3,3,7,1,6,×,9,6 × 9,neutral,smallerFirst,1.5,1.5,54,,,,,,,,
,,,,,,,,,,,,,,,806,2022-01-16_23h48.24.895,multiplicationStroop,2021.2.3,MacIntel,59.99880004,,,,,,,,,,,,,,,,,,,,,,,,,,,,,,,,,24,1.5982,1,0,4,4,2,1,4,×,6,4 × 6,neutral,smallerFirst,1.5,1.5,24,,,,,,,,
,,,,,,,,,,,,,,,806,2022-01-16_23h48.24.895,multiplicationStroop,2021.2.3,MacIntel,59.99880004,,,,,,,,,,,,,,,,,,,,,,,,,,,,,,,,,18,1.9838,1,0,5,5,18,1,9,×,2,9 × 2,neutral,largerFirst,1.5,1.5,18,,,,,,,,
,,,,,,,,,,,,,,,806,2022-01-16_23h48.24.895,multiplicationStroop,2021.2.3,MacIntel,59.99880004,,,,,,,,,,,,,,,,,,,,,,,,,,,,,,,,,42,2.6315,1,0,6,6,6,1,6,×,7,6 × 7,neutral,smallerFirst,1.5,1.5,42,,,,,,,,
,,,,,,,,,,,,,,,806,2022-01-16_23h48.24.895,multiplicationStroop,2021.2.3,MacIntel,59.99880004,,,,,,,,,,,,,,,,,,,,,,,,,,,,,,,,,14,1.4661,1,0,7,7,16,1,7,×,2,7 × 2,neutral,largerFirst,1.5,1.5,14,,,,,,,,
,,,,,,,,,,,,,,,806,2022-01-16_23h48.24.895,multiplicationStroop,2021.2.3,MacIntel,59.99880004,,,,,,,,,,,,,,,,,,,,,,,,,,,,,,,,,24,1.6497,1,0,8,8,22,1,8,×,3,8 × 3,neutral,largerFirst,1.5,1.5,24,,,,,,,,
,,,,,,,,,,,,,,,806,2022-01-16_23h48.24.895,multiplicationStroop,2021.2.3,MacIntel,59.99880004,,,,,,,,,,,,,,,,,,,,,,,,,,,,,,,,,56,3.0824,1,0,9,9,9,1,7,×,8,7 × 8,neutral,smallerFirst,1.5,1.5,56,,,,,,,,
,,,,,,,,,,,,,,,806,2022-01-16_23h48.24.895,multiplicationStroop,2021.2.3,MacIntel,59.99880004,,,,,,,,,,,,,,,,,,,,,,,,,,,,,,,,,20,1.7896,1,0,10,10,20,1,5,×,4,5 × 4,neutral,largerFirst,1.5,1.5,20,,,,,,,,
,,,,,,,,,,,,,,,806,2022-01-16_23h48.24.895,multiplicationStroop,2021.2.3,MacIntel,59.99880004,,,,,,,,,,,,,,,,,,,,,,,,,,,,,,,,,10,1.8981,1,0,11,11,4,1,2,×,5,2 × 5,neutral,smallerFirst,1.5,1.5,10,,,,,,,,
,,,,,,,,,,,,,,,806,2022-01-16_23h48.24.895,multiplicationStroop,2021.2.3,MacIntel,59.99880004,,,,,,,,,,,,,,,,,,,,,,,,,,,,,,,,,81,2.0663,1,0,12,12,35,1,9,×,9,9 × 9,neutral,tie,1.5,1.5,81,,,,,,,,
,,,,,,,,,,,,,,,806,2022-01-16_23h48.24.895,multiplicationStroop,2021.2.3,MacIntel,59.99880004,,,,,,,,,,,,,,,,,,,,,,,,,,,,,,,,,63,2.2097,1,0,13,13,12,1,7,×,9,7 × 9,neutral,smallerFirst,1.5,1.5,63,,,,,,,,
,,,,,,,,,,,,,,,806,2022-01-16_23h48.24.895,multiplicationStroop,2021.2.3,MacIntel,59.99880004,,,,,,,,,,,,,,,,,,,,,,,,,,,,,,,,,36,2.1465,1,0,14,14,32,1,6,×,6,6 × 6,neutral,tie,1.5,1.5,36,,,,,,,,
,,,,,,,,,,,,,,,806,2022-01-16_23h48.24.895,multiplicationStroop,2021.2.3,MacIntel,59.99880004,,,,,,,,,,,,,,,,,,,,,,,,,,,,,,,,,18,1.7315,1,0,15,15,0,1,3,×,6,3 × 6,neutral,smallerFirst,1.5,1.5,18,,,,,,,,
,,,,,,,,,,,,,,,806,2022-01-16_23h48.24.895,multiplicationStroop,2021.2.3,MacIntel,59.99880004,,,,,,,,,,,,,,,,,,,,,,,,,,,,,,,,,16,1.7501,1,0,16,16,13,1,2,×,8,2 × 8,neutral,smallerFirst,1.5,1.5,16,,,,,,,,
,,,,,,,,,,,,,,,806,2022-01-16_23h48.24.895,multiplicationStroop,2021.2.3,MacIntel,59.99880004,,,,,,,,,,,,,,,,,,,,,,,,,,,,,,,,,48,2.2676,1,0,17,17,15,1,8,×,6,8 × 6,neutral,largerFirst,1.5,1.5,48,,,,,,,,
,,,,,,,,,,,,,,,806,2022-01-16_23h48.24.895,multiplicationStroop,2021.2.3,MacIntel,59.99880004,,,,,,,,,,,,,,,,,,,,,,,,,,,,,,,,,72,2.0055,1,0,18,18,11,1,8,×,9,8 × 9,neutral,smallerFirst,1.5,1.5,72,,,,,,,,
,,,,,,,,,,,,,,,806,2022-01-16_23h48.24.895,multiplicationStroop,2021.2.3,MacIntel,59.99880004,,,,,,,,,,,,,,,,,,,,,,,,,,,,,,,,,35,1.6145,1,0,19,19,1,1,5,×,7,5 × 7,neutral,smallerFirst,1.5,1.5,35,,,,,,,,
,,,,,,,,,,,,,,,806,2022-01-16_23h48.24.895,multiplicationStroop,2021.2.3,MacIntel,59.99880004,,,,,,,,,,,,,,,,,,,,,,,,,,,,,,,,,16,1.6174,1,0,20,20,30,1,4,×,4,4 × 4,neutral,tie,1.5,1.5,16,,,,,,,,
,,,,,,,,,,,,,,,806,2022-01-16_23h48.24.895,multiplicationStroop,2021.2.3,MacIntel,59.99880004,,,,,,,,,,,,,,,,,,,,,,,,,,,,,,,,,28,2.2828,1,0,21,21,17,1,7,×,4,7 × 4,neutral,largerFirst,1.5,1.5,28,,,,,,,,
,,,,,,,,,,,,,,,806,2022-01-16_23h48.24.895,multiplicationStroop,2021.2.3,MacIntel,59.99880004,,,,,,,,,,,,,,,,,,,,,,,,,,,,,,,,,32,1.714,1,0,22,22,23,1,8,×,4,8 × 4,neutral,largerFirst,1.5,1.5,32,,,,,,,,
,,,,,,,,,,,,,,,806,2022-01-16_23h48.24.895,multiplicationStroop,2021.2.3,MacIntel,59.99880004,,,,,,,,,,,,,,,,,,,,,,,,,,,,,,,,,9,1.8165,1,0,23,23,29,1,3,×,3,3 × 3,neutral,tie,1.5,1.5,9,,,,,,,,
,,,,,,,,,,,,,,,806,2022-01-16_23h48.24.895,multiplicationStroop,2021.2.3,MacIntel,59.99880004,,,,,,,,,,,,,,,,,,,,,,,,,,,,,,,,,27,2.3149,1,0,24,24,14,1,9,×,3,9 × 3,neutral,largerFirst,1.5,1.5,27,,,,,,,,
,,,,,,,,,,,,,,,806,2022-01-16_23h48.24.895,multiplicationStroop,2021.2.3,MacIntel,59.99880004,,,,,,,,,,,,,,,,,,,,,,,,,,,,,,,,,8,1.7497,1,0,25,25,3,1,2,×,4,2 × 4,neutral,smallerFirst,1.5,1.5,8,,,,,,,,
,,,,,,,,,,,,,,,806,2022-01-16_23h48.24.895,multiplicationStroop,2021.2.3,MacIntel,59.99880004,,,,,,,,,,,,,,,,,,,,,,,,,,,,,,,,,12,1.4156,1,0,26,26,21,1,4,×,3,4 × 3,neutral,largerFirst,1.5,1.5,12,,,,,,,,
,,,,,,,,,,,,,,,806,2022-01-16_23h48.24.895,multiplicationStroop,2021.2.3,MacIntel,59.99880004,,,,,,,,,,,,,,,,,,,,,,,,,,,,,,,,,45,1.7507,1,0,27,27,10,1,5,×,9,5 × 9,neutral,smallerFirst,1.5,1.5,45,,,,,,,,
,,,,,,,,,,,,,,,806,2022-01-16_23h48.24.895,multiplicationStroop,2021.2.3,MacIntel,59.99880004,,,,,,,,,,,,,,,,,,,,,,,,,,,,,,,,,64,1.8992,1,0,28,28,34,1,8,×,8,8 × 8,neutral,tie,1.5,1.5,64,,,,,,,,
,,,,,,,,,,,,,,,806,2022-01-16_23h48.24.895,multiplicationStroop,2021.2.3,MacIntel,59.99880004,,,,,,,,,,,,,,,,,,,,,,,,,,,,,,,,,36,2.8344,1,0,29,29,27,1,9,×,4,9 × 4,neutral,largerFirst,1.5,1.5,36,,,,,,,,
,,,,,,,,,,,,,,,806,2022-01-16_23h48.24.895,multiplicationStroop,2021.2.3,MacIntel,59.99880004,,,,,,,,,,,,,,,,,,,,,,,,,,,,,,,,,6,1.5818,1,0,30,30,26,1,3,×,2,3 × 2,neutral,largerFirst,1.5,1.5,6,,,,,,,,
,,,,,,,,,,,,,,,806,2022-01-16_23h48.24.895,multiplicationStroop,2021.2.3,MacIntel,59.99880004,,,,,,,,,,,,,,,,,,,,,,,,,,,,,,,,,40,1.8316,1,0,31,31,24,1,8,×,5,8 × 5,neutral,largerFirst,1.5,1.5,40,,,,,,,,
,,,,,,,,,,,,,,,806,2022-01-16_23h48.24.895,multiplicationStroop,2021.2.3,MacIntel,59.99880004,,,,,,,,,,,,,,,,,,,,,,,,,,,,,,,,,25,1.5654,1,0,32,32,31,1,5,×,5,5 × 5,neutral,tie,1.5,1.5,25,,,,,,,,
,,,,,,,,,,,,,,,806,2022-01-16_23h48.24.895,multiplicationStroop,2021.2.3,MacIntel,59.99880004,,,,,,,,,,,,,,,,,,,,,,,,,,,,,,,,,12,1.7147,1,0,33,33,25,1,6,×,2,6 × 2,neutral,largerFirst,1.5,1.5,12,,,,,,,,
,,,,,,,,,,,,,,,806,2022-01-16_23h48.24.895,multiplicationStroop,2021.2.3,MacIntel,59.99880004,,,,,,,,,,,,,,,,,,,,,,,,,,,,,,,,,49,2.1667,1,0,34,34,33,1,7,×,7,7 × 7,neutral,tie,1.5,1.5,49,,,,,,,,
,,,,,,,,,,,,,,,806,2022-01-16_23h48.24.895,multiplicationStroop,2021.2.3,MacIntel,59.99880004,,,,,,,,,,,,,,,,,,,,,,,,,,,,,,,,,21,1.7154,1,0,35,35,8,1,3,×,7,3 × 7,neutral,smallerFirst,1.5,1.5,21,,,,,,,,
,,,,,,,,,,,,,,,806,2022-01-16_23h48.24.895,multiplicationStroop,2021.2.3,MacIntel,59.99880004,,,,,,,,,,,,,,,,,,,,,,,,,,,,,,,,,,,,,,,,,,,,,,,,,,0,5,5,1,1,stimulusFile/mult_blk2.xlsx,,
,,,,,,,,,,,,,,,806,2022-01-16_23h48.24.895,multiplicationStroop,2021.2.3,MacIntel,59.99880004,,,,,,,,,,,,,,,,,,,,,,,,,,,,,,,,,,,,,,,,,,,,,,,,,,,,,,,,space,5.7624