welcomeKey_resp.keys,welcomeKey_resp.rt,X Scale,Y Scale,rt_resp_4.keys,rt_resp_4.corr,rt_resp_4.rt,speedtest_2.thisRepN,speedtest_2.thisTrialN,speedtest_2.thisN,speedtest_2.thisIndex,speedtest_2.ran,numberSc,posX,positionLayout,participant,date,expName,psychopyVersion,OS,frameRate,ct_instrresp.keys,ct_instrresp.rt,key_resp_2.keys,key_resp_2.rt,ct_keyResp.keys,ct_keyResp.corr,ct_keyResp.rt,trials.thisRepN,trials.thisTrialN,trials.thisN,trials.thisIndex,trials.ran,leftNo,rightNo,displayProblem,numDistance,leftNo_size,rightNo_size,Dims,keyAnswer,TS_Loop.thisRepN,TS_Loop.thisTrialN,TS_Loop.thisN,TS_Loop.thisIndex,TS_Loop.ran,Condition,ActionInst,instrImage,mltptaskInst_resp.keys,mltptaskInst_resp.rt,continue_resp_2.keys,continue_resp_2.rt,multp_Answer,multi_RT,multiplyCorr,LoopingMultiply.thisRepN,LoopingMultiply.thisTrialN,LoopingMultiply.thisN,LoopingMultiply.thisIndex,LoopingMultiply.ran,factor1,multiplySign,factor2,multliplyProblem,physicalSize,orderOperand,sizeF1,sizeF2,mult_answer,trials_stroop.thisRepN,trials_stroop.thisTrialN,trials_stroop.thisN,trials_stroop.thisIndex,trials_stroop.ran,multiplicationFile,esckey_resp_2.keys,esckey_resp_2.rt
y,5.0484,41.9,41.2,left,1,0.4446,0,0,0,0,1,1,-200,left,808,2022-01-16_13h08.21.806,multiplicationStroop,2021.2.3,Win32,59.9880024,,,,,,,,,,,,,,,,,,,,,,,,,,,,,,,,,,,,,,,,,,,,,,,,,,,,,,,,,
,,,,left,1,0.3974,0,1,1,4,1,6,-200,left,808,2022-01-16_13h08.21.806,multiplicationStroop,2021.2.3,Win32,59.9880024,,,,,,,,,,,,,,,,,,,,,,,,,,,,,,,,,,,,,,,,,,,,,,,,,,,,,,,,,
,,,,left,1,0.3309,0,2,2,6,1,8,-200,left,808,2022-01-16_13h08.21.806,multiplicationStroop,2021.2.3,Win32,59.9880024,,,,,,,,,,,,,,,,,,,,,,,,,,,,,,,,,,,,,,,,,,,,,,,,,,,,,,,,,
,,,,left,1,0.3069,0,3,3,2,1,3,-200,left,808,2022-01-16_13h08.21.806,multiplicationStroop,2021.2.3,Win32,59.9880024,,,,,,,,,,,,,,,,,,,,,,,,,,,,,,,,,,,,,,,,,,,,,,,,,,,,,,,,,
,,,,right,1,0.2894,0,4,4,9,1,2,200,right,808,2022-01-16_13h08.21.806,multiplicationStroop,2021.2.3,Win32,59.9880024,,,,,,,,,,,,,,,,,,,,,,,,,,,,,,,,,,,,,,,,,,,,,,,,,,,,,,,,,
,,,,right,1,0.2815,0,5,5,10,1,3,200,right,808,2022-01-16_13h08.21.806,multiplicationStroop,2021.2.3,Win32,59.9880024,,,,,,,,,,,,,,,,,,,,,,,,,,,,,,,,,,,,,,,,,,,,,,,,,,,,,,,,,
,,,,right,1,0.2908,0,6,6,13,1,7,200,right,808,2022-01-16_13h08.21.806,multiplicationStroop,2021.2.3,Win32,59.9880024,,,,,,,,,,,,,,,,,,,,,,,,,,,,,,,,,,,,,,,,,,,,,,,,,,,,,,,,,
,,,,right,1,0.2643,0,7,7,12,1,6,200,right,808,2022-01-16_13h08.21.806,multiplicationStroop,2021.2.3,Win32,59.9880024,,,,,,,,,,,,,,,,,,,,,,,,,,,,,,,,,,,,,,,,,,,,,,,,,,,,,,,,,
,,,,left,1,0.3326,0,8,8,3,1,4,-200,left,808,2022-01-16_13h08.21.806,multiplicationStroop,2021.2.3,Win32,59.9880024,,,,,,,,,,,,,,,,,,,,,,,,,,,,,,,,,,,,,,,,,,,,,,,,,,,,,,,,,
,,,,left,1,0.2706,0,9,9,5,1,7,-200,left,808,2022-01-16_13h08.21.806,multiplicationStroop,2021.2.3,Win32,59.9880024,,,,,,,,,,,,,,,,,,,,,,,,,,,,,,,,,,,,,,,,,,,,,,,,,,,,,,,,,
,,,,right,1,0.314,0,10,10,8,1,1,200,right,808,2022-01-16_13h08.21.806,multiplicationStroop,2021.2.3,Win32,59.9880024,,,,,,,,,,,,,,,,,,,,,,,,,,,,,,,,,,,,,,,,,,,,,,,,,,,,,,,,,
,,,,right,1,0.3013,0,11,11,15,1,9,200,right,808,2022-01-16_13h08.21.806,multiplicationStroop,2021.2.3,Win32,59.9880024,,,,,,,,,,,,,,,,,,,,,,,,,,,,,,,,,,,,,,,,,,,,,,,,,,,,,,,,,
,,,,right,1,0.2998,0,12,12,11,1,4,200,right,808,2022-01-16_13h08.21.806,multiplicationStroop,2021.2.3,Win32,59.9880024,,,,,,,,,,,,,,,,,,,,,,,,,,,,,,,,,,,,,,,,,,,,,,,,,,,,,,,,,
,,,,left,1,0.3484,0,13,13,1,1,2,-200,left,808,2022-01-16_13h08.21.806,multiplicationStroop,2021.2.3,Win32,59.9880024,,,,,,,,,,,,,,,,,,,,,,,,,,,,,,,,,,,,,,,,,,,,,,,,,,,,,,,,,
,,,,right,1,0.3327,0,14,14,14,1,8,200,right,808,2022-01-16_13h08.21.806,multiplicationStroop,2021.2.3,Win32,59.9880024,,,,,,,,,,,,,,,,,,,,,,,,,,,,,,,,,,,,,,,,,,,,,,,,,,,,,,,,,
,,,,left,1,0.3035,0,15,15,7,1,9,-200,left,808,2022-01-16_13h08.21.806,multiplicationStroop,2021.2.3,Win32,59.9880024,,,,,,,,,,,,,,,,,,,,,,,,,,,,,,,,,,,,,,,,,,,,,,,,,,,,,,,,,
,,,,left,1,0.3152,1,0,16,0,1,1,-200,left,808,2022-01-16_13h08.21.806,multiplicationStroop,2021.2.3,Win32,59.9880024,,,,,,,,,,,,,,,,,,,,,,,,,,,,,,,,,,,,,,,,,,,,,,,,,,,,,,,,,
,,,,left,1,0.2916,1,1,17,4,1,6,-200,left,808,2022-01-16_13h08.21.806,multiplicationStroop,2021.2.3,Win32,59.9880024,,,,,,,,,,,,,,,,,,,,,,,,,,,,,,,,,,,,,,,,,,,,,,,,,,,,,,,,,
,,,,left,1,0.2819,1,2,18,1,1,2,-200,left,808,2022-01-16_13h08.21.806,multiplicationStroop,2021.2.3,Win32,59.9880024,,,,,,,,,,,,,,,,,,,,,,,,,,,,,,,,,,,,,,,,,,,,,,,,,,,,,,,,,
,,,,right,1,0.3671,1,3,19,10,1,3,200,right,808,2022-01-16_13h08.21.806,multiplicationStroop,2021.2.3,Win32,59.9880024,,,,,,,,,,,,,,,,,,,,,,,,,,,,,,,,,,,,,,,,,,,,,,,,,,,,,,,,,
,,,,left,1,0.3712,1,4,20,6,1,8,-200,left,808,2022-01-16_13h08.21.806,multiplicationStroop,2021.2.3,Win32,59.9880024,,,,,,,,,,,,,,,,,,,,,,,,,,,,,,,,,,,,,,,,,,,,,,,,,,,,,,,,,
,,,,right,1,0.2681,1,5,21,14,1,8,200,right,808,2022-01-16_13h08.21.806,multiplicationStroop,2021.2.3,Win32,59.9880024,,,,,,,,,,,,,,,,,,,,,,,,,,,,,,,,,,,,,,,,,,,,,,,,,,,,,,,,,
,,,,left,1,0.2667,1,6,22,2,1,3,-200,left,808,2022-01-16_13h08.21.806,multiplicationStroop,2021.2.3,Win32,59.9880024,,,,,,,,,,,,,,,,,,,,,,,,,,,,,,,,,,,,,,,,,,,,,,,,,,,,,,,,,
,,,,right,1,0.2587,1,7,23,13,1,7,200,right,808,2022-01-16_13h08.21.806,multiplicationStroop,2021.2.3,Win32,59.9880024,,,,,,,,,,,,,,,,,,,,,,,,,,,,,,,,,,,,,,,,,,,,,,,,,,,,,,,,,
,,,,left,1,0.3546,1,8,24,7,1,9,-200,left,808,2022-01-16_13h08.21.806,multiplicationStroop,2021.2.3,Win32,59.9880024,,,,,,,,,,,,,,,,,,,,,,,,,,,,,,,,,,,,,,,,,,,,,,,,,,,,,,,,,
,,,,left,1,0.3516,1,9,25,5,1,7,-200,left,808,2022-01-16_13h08.21.806,multiplicationStroop,2021.2.3,Win32,59.9880024,,,,,,,,,,,,,,,,,,,,,,,,,,,,,,,,,,,,,,,,,,,,,,,,,,,,,,,,,
,,,,right,1,0.3477,1,10,26,11,1,4,200,right,808,2022-01-16_13h08.21.806,multiplicationStroop,2021.2.3,Win32,59.9880024,,,,,,,,,,,,,,,,,,,,,,,,,,,,,,,,,,,,,,,,,,,,,,,,,,,,,,,,,
,,,,right,1,0.3047,1,11,27,12,1,6,200,right,808,2022-01-16_13h08.21.806,multiplicationStroop,2021.2.3,Win32,59.9880024,,,,,,,,,,,,,,,,,,,,,,,,,,,,,,,,,,,,,,,,,,,,,,,,,,,,,,,,,
,,,,right,1,0.2748,1,12,28,9,1,2,200,right,808,2022-01-16_13h08.21.806,multiplicationStroop,2021.2.3,Win32,59.9880024,,,,,,,,,,,,,,,,,,,,,,,,,,,,,,,,,,,,,,,,,,,,,,,,,,,,,,,,,
,,,,right,1,0.2557,1,13,29,15,1,9,200,right,808,2022-01-16_13h08.21.806,multiplicationStroop,2021.2.3,Win32,59.9880024,,,,,,,,,,,,,,,,,,,,,,,,,,,,,,,,,,,,,,,,,,,,,,,,,,,,,,,,,
,,,,right,1,0.2822,1,14,30,8,1,1,200,right,808,2022-01-16_13h08.21.806,multiplicationStroop,2021.2.3,Win32,59.9880024,,,,,,,,,,,,,,,,,,,,,,,,,,,,,,,,,,,,,,,,,,,,,,,,,,,,,,,,,
,,,,left,1,0.3508,1,15,31,3,1,4,-200,left,808,2022-01-16_13h08.21.806,multiplicationStroop,2021.2.3,Win32,59.9880024,,,,,,,,,,,,,,,,,,,,,,,,,,,,,,,,,,,,,,,,,,,,,,,,,,,,,,,,,
,,,,left,1,0.3124,2,0,32,3,1,4,-200,left,808,2022-01-16_13h08.21.806,multiplicationStroop,2021.2.3,Win32,59.9880024,,,,,,,,,,,,,,,,,,,,,,,,,,,,,,,,,,,,,,,,,,,,,,,,,,,,,,,,,
,,,,left,1,0.3058,2,1,33,7,1,9,-200,left,808,2022-01-16_13h08.21.806,multiplicationStroop,2021.2.3,Win32,59.9880024,,,,,,,,,,,,,,,,,,,,,,,,,,,,,,,,,,,,,,,,,,,,,,,,,,,,,,,,,
,,,,right,1,0.3254,2,2,34,9,1,2,200,right,808,2022-01-16_13h08.21.806,multiplicationStroop,2021.2.3,Win32,59.9880024,,,,,,,,,,,,,,,,,,,,,,,,,,,,,,,,,,,,,,,,,,,,,,,,,,,,,,,,,
,,,,left,1,0.3427,2,3,35,6,1,8,-200,left,808,2022-01-16_13h08.21.806,multiplicationStroop,2021.2.3,Win32,59.9880024,,,,,,,,,,,,,,,,,,,,,,,,,,,,,,,,,,,,,,,,,,,,,,,,,,,,,,,,,
,,,,left,1,0.3676,2,4,36,5,1,7,-200,left,808,2022-01-16_13h08.21.806,multiplicationStroop,2021.2.3,Win32,59.9880024,,,,,,,,,,,,,,,,,,,,,,,,,,,,,,,,,,,,,,,,,,,,,,,,,,,,,,,,,
,,,,right,1,0.3728,2,5,37,15,1,9,200,right,808,2022-01-16_13h08.21.806,multiplicationStroop,2021.2.3,Win32,59.9880024,,,,,,,,,,,,,,,,,,,,,,,,,,,,,,,,,,,,,,,,,,,,,,,,,,,,,,,,,
,,,,right,1,0.2768,2,6,38,14,1,8,200,right,808,2022-01-16_13h08.21.806,multiplicationStroop,2021.2.3,Win32,59.9880024,,,,,,,,,,,,,,,,,,,,,,,,,,,,,,,,,,,,,,,,,,,,,,,,,,,,,,,,,
,,,,right,1,0.2311,2,7,39,8,1,1,200,right,808,2022-01-16_13h08.21.806,multiplicationStroop,2021.2.3,Win32,59.9880024,,,,,,,,,,,,,,,,,,,,,,,,,,,,,,,,,,,,,,,,,,,,,,,,,,,,,,,,,
,,,,left,1,0.2935,2,8,40,1,1,2,-200,left,808,2022-01-16_13h08.21.806,multiplicationStroop,2021.2.3,Win32,59.9880024,,,,,,,,,,,,,,,,,,,,,,,,,,,,,,,,,,,,,,,,,,,,,,,,,,,,,,,,,
,,,,right,1,0.318,2,9,41,10,1,3,200,right,808,2022-01-16_13h08.21.806,multiplicationStroop,2021.2.3,Win32,59.9880024,,,,,,,,,,,,,,,,,,,,,,,,,,,,,,,,,,,,,,,,,,,,,,,,,,,,,,,,,
,,,,right,1,0.2853,2,10,42,12,1,6,200,right,808,2022-01-16_13h08.21.806,multiplicationStroop,2021.2.3,Win32,59.9880024,,,,,,,,,,,,,,,,,,,,,,,,,,,,,,,,,,,,,,,,,,,,,,,,,,,,,,,,,
,,,,right,1,0.2635,2,11,43,11,1,4,200,right,808,2022-01-16_13h08.21.806,multiplicationStroop,2021.2.3,Win32,59.9880024,,,,,,,,,,,,,,,,,,,,,,,,,,,,,,,,,,,,,,,,,,,,,,,,,,,,,,,,,
,,,,left,1,0.3139,2,12,44,2,1,3,-200,left,808,2022-01-16_13h08.21.806,multiplicationStroop,2021.2.3,Win32,59.9880024,,,,,,,,,,,,,,,,,,,,,,,,,,,,,,,,,,,,,,,,,,,,,,,,,,,,,,,,,
,,,,left,1,0.3053,2,13,45,4,1,6,-200,left,808,2022-01-16_13h08.21.806,multiplicationStroop,2021.2.3,Win32,59.9880024,,,,,,,,,,,,,,,,,,,,,,,,,,,,,,,,,,,,,,,,,,,,,,,,,,,,,,,,,
,,,,right,1,0.2646,2,14,46,13,1,7,200,right,808,2022-01-16_13h08.21.806,multiplicationStroop,2021.2.3,Win32,59.9880024,,,,,,,,,,,,,,,,,,,,,,,,,,,,,,,,,,,,,,,,,,,,,,,,,,,,,,,,,
,,,,left,1,0.3197,2,15,47,0,1,1,-200,left,808,2022-01-16_13h08.21.806,multiplicationStroop,2021.2.3,Win32,59.9880024,,,,,,,,,,,,,,,,,,,,,,,,,,,,,,,,,,,,,,,,,,,,,,,,,,,,,,,,,
,,,,right,1,0.3149,3,0,48,13,1,7,200,right,808,2022-01-16_13h08.21.806,multiplicationStroop,2021.2.3,Win32,59.9880024,,,,,,,,,,,,,,,,,,,,,,,,,,,,,,,,,,,,,,,,,,,,,,,,,,,,,,,,,
,,,,right,1,0.3403,3,1,49,11,1,4,200,right,808,2022-01-16_13h08.21.806,multiplicationStroop,2021.2.3,Win32,59.9880024,,,,,,,,,,,,,,,,,,,,,,,,,,,,,,,,,,,,,,,,,,,,,,,,,,,,,,,,,
,,,,right,1,0.266,3,2,50,8,1,1,200,right,808,2022-01-16_13h08.21.806,multiplicationStroop,2021.2.3,Win32,59.9880024,,,,,,,,,,,,,,,,,,,,,,,,,,,,,,,,,,,,,,,,,,,,,,,,,,,,,,,,,
,,,,right,1,0.2684,3,3,51,12,1,6,200,right,808,2022-01-16_13h08.21.806,multiplicationStroop,2021.2.3,Win32,59.9880024,,,,,,,,,,,,,,,,,,,,,,,,,,,,,,,,,,,,,,,,,,,,,,,,,,,,,,,,,
,,,,left,1,0.3156,3,4,52,2,1,3,-200,left,808,2022-01-16_13h08.21.806,multiplicationStroop,2021.2.3,Win32,59.9880024,,,,,,,,,,,,,,,,,,,,,,,,,,,,,,,,,,,,,,,,,,,,,,,,,,,,,,,,,
,,,,left,1,0.3037,3,5,53,6,1,8,-200,left,808,2022-01-16_13h08.21.806,multiplicationStroop,2021.2.3,Win32,59.9880024,,,,,,,,,,,,,,,,,,,,,,,,,,,,,,,,,,,,,,,,,,,,,,,,,,,,,,,,,
,,,,left,1,0.2653,3,6,54,7,1,9,-200,left,808,2022-01-16_13h08.21.806,multiplicationStroop,2021.2.3,Win32,59.9880024,,,,,,,,,,,,,,,,,,,,,,,,,,,,,,,,,,,,,,,,,,,,,,,,,,,,,,,,,
,,,,right,1,0.2654,3,7,55,14,1,8,200,right,808,2022-01-16_13h08.21.806,multiplicationStroop,2021.2.3,Win32,59.9880024,,,,,,,,,,,,,,,,,,,,,,,,,,,,,,,,,,,,,,,,,,,,,,,,,,,,,,,,,
,,,,right,1,0.27,3,8,56,10,1,3,200,right,808,2022-01-16_13h08.21.806,multiplicationStroop,2021.2.3,Win32,59.9880024,,,,,,,,,,,,,,,,,,,,,,,,,,,,,,,,,,,,,,,,,,,,,,,,,,,,,,,,,
,,,,right,1,0.2139,3,9,57,15,1,9,200,right,808,2022-01-16_13h08.21.806,multiplicationStroop,2021.2.3,Win32,59.9880024,,,,,,,,,,,,,,,,,,,,,,,,,,,,,,,,,,,,,,,,,,,,,,,,,,,,,,,,,
,,,,left,1,0.2906,3,10,58,3,1,4,-200,left,808,2022-01-16_13h08.21.806,multiplicationStroop,2021.2.3,Win32,59.9880024,,,,,,,,,,,,,,,,,,,,,,,,,,,,,,,,,,,,,,,,,,,,,,,,,,,,,,,,,
,,,,left,1,0.3814,3,11,59,5,1,7,-200,left,808,2022-01-16_13h08.21.806,multiplicationStroop,2021.2.3,Win32,59.9880024,,,,,,,,,,,,,,,,,,,,,,,,,,,,,,,,,,,,,,,,,,,,,,,,,,,,,,,,,
,,,,left,1,0.2533,3,12,60,1,1,2,-200,left,808,2022-01-16_13h08.21.806,multiplicationStroop,2021.2.3,Win32,59.9880024,,,,,,,,,,,,,,,,,,,,,,,,,,,,,,,,,,,,,,,,,,,,,,,,,,,,,,,,,
,,,,left,1,0.2751,3,13,61,4,1,6,-200,left,808,2022-01-16_13h08.21.806,multiplicationStroop,2021.2.3,Win32,59.9880024,,,,,,,,,,,,,,,,,,,,,,,,,,,,,,,,,,,,,,,,,,,,,,,,,,,,,,,,,
,,,,left,1,0.2538,3,14,62,0,1,1,-200,left,808,2022-01-16_13h08.21.806,multiplicationStroop,2021.2.3,Win32,59.9880024,,,,,,,,,,,,,,,,,,,,,,,,,,,,,,,,,,,,,,,,,,,,,,,,,,,,,,,,,
,,,,right,1,0.3989,3,15,63,9,1,2,200,right,808,2022-01-16_13h08.21.806,multiplicationStroop,2021.2.3,Win32,59.9880024,,,,,,,,,,,,,,,,,,,,,,,,,,,,,,,,,,,,,,,,,,,,,,,,,,,,,,,,,
,,,,,,,,,,,,,,,808,2022-01-16_13h08.21.806,multiplicationStroop,2021.2.3,Win32,59.9880024,space,4.6767,space,1.2475,right,1,0.4792,0,0,0,3,1,8,9,8 | 9,1,1.4111,1.9756,congruent,right,,,,,,stimulusFile/magnitude.xlsx,,,,,,,,,,,,,,,,,,,,,,,,,,,,,,,
,,,,,,,,,,,,,,,808,2022-01-16_13h08.21.806,multiplicationStroop,2021.2.3,Win32,59.9880024,,,,,left,1,0.504,0,1,1,6,1,7,6,7 | 6,1,1.9756,1.4111,congruent,left,,,,,,stimulusFile/magnitude.xlsx,,,,,,,,,,,,,,,,,,,,,,,,,,,,,,,
,,,,,,,,,,,,,,,808,2022-01-16_13h08.21.806,multiplicationStroop,2021.2.3,Win32,59.9880024,,,,,right,1,0.4296,0,2,2,48,1,1,2,1 | 2,1,1.6933,1.6933,neutral,right,,,,,,stimulusFile/magnitude.xlsx,,,,,,,,,,,,,,,,,,,,,,,,,,,,,,,
,,,,,,,,,,,,,,,808,2022-01-16_13h08.21.806,multiplicationStroop,2021.2.3,Win32,59.9880024,,,,,left,1,0.4158,0,3,3,55,1,9,8,9 | 8,1,1.6933,1.6933,neutral,left,,,,,,stimulusFile/magnitude.xlsx,,,,,,,,,,,,,,,,,,,,,,,,,,,,,,,
,,,,,,,,,,,,,,,808,2022-01-16_13h08.21.806,multiplicationStroop,2021.2.3,Win32,59.9880024,,,,,left,1,0.3785,0,4,4,13,1,4,2,4 | 2,2,1.9756,1.4111,congruent,left,,,,,,stimulusFile/magnitude.xlsx,,,,,,,,,,,,,,,,,,,,,,,,,,,,,,,
,,,,,,,,,,,,,,,808,2022-01-16_13h08.21.806,multiplicationStroop,2021.2.3,Win32,59.9880024,,,,,left,1,0.3761,0,5,5,12,1,3,1,3 | 1,2,1.9756,1.4111,congruent,left,,,,,,stimulusFile/magnitude.xlsx,,,,,,,,,,,,,,,,,,,,,,,,,,,,,,,
,,,,,,,,,,,,,,,808,2022-01-16_13h08.21.806,multiplicationStroop,2021.2.3,Win32,59.9880024,,,,,right,1,0.3982,0,6,6,43,1,4,9,4 | 9,5,1.9756,1.4111,incongruent,right,,,,,,stimulusFile/magnitude.xlsx,,,,,,,,,,,,,,,,,,,,,,,,,,,,,,,
,,,,,,,,,,,,,,,808,2022-01-16_13h08.21.806,multiplicationStroop,2021.2.3,Win32,59.9880024,,,,,right,1,0.3643,0,7,7,66,1,3,8,3 | 8,5,1.6933,1.6933,neutral,right,,,,,,stimulusFile/magnitude.xlsx,,,,,,,,,,,,,,,,,,,,,,,,,,,,,,,
,,,,,,,,,,,,,,,808,2022-01-16_13h08.21.806,multiplicationStroop,2021.2.3,Win32,59.9880024,,,,,left,1,0.4196,0,8,8,61,1,4,2,4 | 2,2,1.6933,1.6933,neutral,left,,,,,,stimulusFile/magnitude.xlsx,,,,,,,,,,,,,,,,,,,,,,,,,,,,,,,
,,,,,,,,,,,,,,,808,2022-01-16_13h08.21.806,multiplicationStroop,2021.2.3,Win32,59.9880024,,,,,right,0,0.397,0,9,9,47,1,9,4,9 | 4,5,1.4111,1.9756,incongruent,left,,,,,,stimulusFile/magnitude.xlsx,,,,,,,,,,,,,,,,,,,,,,,,,,,,,,,
,,,,,,,,,,,,,,,808,2022-01-16_13h08.21.806,multiplicationStroop,2021.2.3,Win32,59.9880024,,,,,right,1,0.5304,0,10,10,33,1,2,4,2 | 4,2,1.9756,1.4111,incongruent,right,,,,,,stimulusFile/magnitude.xlsx,,,,,,,,,,,,,,,,,,,,,,,,,,,,,,,
,,,,,,,,,,,,,,,808,2022-01-16_13h08.21.806,multiplicationStroop,2021.2.3,Win32,59.9880024,,,,,left,1,0.5188,0,11,11,71,1,9,4,9 | 4,5,1.6933,1.6933,neutral,left,,,,,,stimulusFile/magnitude.xlsx,,,,,,,,,,,,,,,,,,,,,,,,,,,,,,,
,,,,,,,,,,,,,,,808,2022-01-16_13h08.21.806,multiplicationStroop,2021.2.3,Win32,59.9880024,,,,,left,0,0.6233,0,12,12,51,1,8,9,8 | 9,1,1.6933,1.6933,neutral,right,,,,,,stimulusFile/magnitude.xlsx,,,,,,,,,,,,,,,,,,,,,,,,,,,,,,,
,,,,,,,,,,,,,,,808,2022-01-16_13h08.21.806,multiplicationStroop,2021.2.3,Win32,59.9880024,,,,,left,1,0.5903,0,13,13,38,1,8,6,8 | 6,2,1.4111,1.9756,incongruent,left,,,,,,stimulusFile/magnitude.xlsx,,,,,,,,,,,,,,,,,,,,,,,,,,,,,,,
,,,,,,,,,,,,,,,808,2022-01-16_13h08.21.806,multiplicationStroop,2021.2.3,Win32,59.9880024,,,,,right,1,0.5524,0,14,14,24,1,1,2,1 | 2,1,1.9756,1.4111,incongruent,right,,,,,,stimulusFile/magnitude.xlsx,,,,,,,,,,,,,,,,,,,,,,,,,,,,,,,
,,,,,,,,,,,,,,,808,2022-01-16_13h08.21.806,multiplicationStroop,2021.2.3,Win32,59.9880024,,,,,left,1,0.473,0,15,15,36,1,3,1,3 | 1,2,1.4111,1.9756,incongruent,left,,,,,,stimulusFile/magnitude.xlsx,,,,,,,,,,,,,,,,,,,,,,,,,,,,,,,
,,,,,,,,,,,,,,,808,2022-01-16_13h08.21.806,multiplicationStroop,2021.2.3,Win32,59.9880024,,,,,left,1,0.4903,0,16,16,5,1,4,3,4 | 3,1,1.9756,1.4111,congruent,left,,,,,,stimulusFile/magnitude.xlsx,,,,,,,,,,,,,,,,,,,,,,,,,,,,,,,
,,,,,,,,,,,,,,,808,2022-01-16_13h08.21.806,multiplicationStroop,2021.2.3,Win32,59.9880024,,,,,left,1,0.4552,0,17,17,54,1,7,6,7 | 6,1,1.6933,1.6933,neutral,left,,,,,,stimulusFile/magnitude.xlsx,,,,,,,,,,,,,,,,,,,,,,,,,,,,,,,
,,,,,,,,,,,,,,,808,2022-01-16_13h08.21.806,multiplicationStroop,2021.2.3,Win32,59.9880024,,,,,right,1,0.5373,0,18,18,42,1,3,8,3 | 8,5,1.9756,1.4111,incongruent,right,,,,,,stimulusFile/magnitude.xlsx,,,,,,,,,,,,,,,,,,,,,,,,,,,,,,,
,,,,,,,,,,,,,,,808,2022-01-16_13h08.21.806,multiplicationStroop,2021.2.3,Win32,59.9880024,,,,,left,1,0.4757,0,19,19,44,1,6,1,6 | 1,5,1.4111,1.9756,incongruent,left,,,,,,stimulusFile/magnitude.xlsx,,,,,,,,,,,,,,,,,,,,,,,,,,,,,,,
,,,,,,,,,,,,,,,808,2022-01-16_13h08.21.806,multiplicationStroop,2021.2.3,Win32,59.9880024,,,,,left,1,0.39,0,20,20,14,1,8,6,8 | 6,2,1.9756,1.4111,congruent,left,,,,,,stimulusFile/magnitude.xlsx,,,,,,,,,,,,,,,,,,,,,,,,,,,,,,,
,,,,,,,,,,,,,,,808,2022-01-16_13h08.21.806,multiplicationStroop,2021.2.3,Win32,59.9880024,,,,,left,1,0.4455,0,21,21,53,1,4,3,4 | 3,1,1.6933,1.6933,neutral,left,,,,,,stimulusFile/magnitude.xlsx,,,,,,,,,,,,,,,,,,,,,,,,,,,,,,,
,,,,,,,,,,,,,,,808,2022-01-16_13h08.21.806,multiplicationStroop,2021.2.3,Win32,59.9880024,,,,,left,1,0.4004,0,22,22,7,1,9,8,9 | 8,1,1.9756,1.4111,congruent,left,,,,,,stimulusFile/magnitude.xlsx,,,,,,,,,,,,,,,,,,,,,,,,,,,,,,,
,,,,,,,,,,,,,,,808,2022-01-16_13h08.21.806,multiplicationStroop,2021.2.3,Win32,59.9880024,,,,,right,1,0.5705,0,23,23,32,1,1,3,1 | 3,2,1.9756,1.4111,incongruent,right,,,,,,stimulusFile/magnitude.xlsx,,,,,,,,,,,,,,,,,,,,,,,,,,,,,,,
,,,,,,,,,,,,,,,808,2022-01-16_13h08.21.806,multiplicationStroop,2021.2.3,Win32,59.9880024,,,,,right,1,0.6621,0,24,24,11,1,7,9,7 | 9,2,1.4111,1.9756,congruent,right,,,,,,stimulusFile/magnitude.xlsx,,,,,,,,,,,,,,,,,,,,,,,,,,,,,,,
,,,,,,,,,,,,,,,808,2022-01-16_13h08.21.806,multiplicationStroop,2021.2.3,Win32,59.9880024,,,,,right,1,0.567,0,25,25,40,1,1,6,1 | 6,5,1.9756,1.4111,incongruent,right,,,,,,stimulusFile/magnitude.xlsx,,,,,,,,,,,,,,,,,,,,,,,,,,,,,,,
,,,,,,,,,,,,,,,808,2022-01-16_13h08.21.806,multiplicationStroop,2021.2.3,Win32,59.9880024,,,,,right,1,0.5959,0,26,26,49,1,3,4,3 | 4,1,1.6933,1.6933,neutral,right,,,,,,stimulusFile/magnitude.xlsx,,,,,,,,,,,,,,,,,,,,,,,,,,,,,,,
,,,,,,,,,,,,,,,808,2022-01-16_13h08.21.806,multiplicationStroop,2021.2.3,Win32,59.9880024,,,,,right,1,0.4678,0,27,27,9,1,2,4,2 | 4,2,1.4111,1.9756,congruent,right,,,,,,stimulusFile/magnitude.xlsx,,,,,,,,,,,,,,,,,,,,,,,,,,,,,,,
,,,,,,,,,,,,,,,808,2022-01-16_13h08.21.806,multiplicationStroop,2021.2.3,Win32,59.9880024,,,,,left,1,0.4841,0,28,28,46,1,8,3,8 | 3,5,1.4111,1.9756,incongruent,left,,,,,,stimulusFile/magnitude.xlsx,,,,,,,,,,,,,,,,,,,,,,,,,,,,,,,
,,,,,,,,,,,,,,,808,2022-01-16_13h08.21.806,multiplicationStroop,2021.2.3,Win32,59.9880024,,,,,left,1,0.4223,0,29,29,20,1,6,1,6 | 1,5,1.9756,1.4111,congruent,left,,,,,,stimulusFile/magnitude.xlsx,,,,,,,,,,,,,,,,,,,,,,,,,,,,,,,
,,,,,,,,,,,,,,,808,2022-01-16_13h08.21.806,multiplicationStroop,2021.2.3,Win32,59.9880024,,,,,right,1,0.4886,0,30,30,0,1,1,2,1 | 2,1,1.4111,1.9756,congruent,right,,,,,,stimulusFile/magnitude.xlsx,,,,,,,,,,,,,,,,,,,,,,,,,,,,,,,
,,,,,,,,,,,,,,,808,2022-01-16_13h08.21.806,multiplicationStroop,2021.2.3,Win32,59.9880024,,,,,right,1,0.4652,0,31,31,18,1,3,8,3 | 8,5,1.4111,1.9756,congruent,right,,,,,,stimulusFile/magnitude.xlsx,,,,,,,,,,,,,,,,,,,,,,,,,,,,,,,
,,,,,,,,,,,,,,,808,2022-01-16_13h08.21.806,multiplicationStroop,2021.2.3,Win32,59.9880024,,,,,right,1,0.4804,0,32,32,64,1,1,6,1 | 6,5,1.6933,1.6933,neutral,right,,,,,,stimulusFile/magnitude.xlsx,,,,,,,,,,,,,,,,,,,,,,,,,,,,,,,
,,,,,,,,,,,,,,,808,2022-01-16_13h08.21.806,multiplicationStroop,2021.2.3,Win32,59.9880024,,,,,right,1,0.7683,0,33,33,50,1,6,7,6 | 7,1,1.6933,1.6933,neutral,right,,,,,,stimulusFile/magnitude.xlsx,,,,,,,,,,,,,,,,,,,,,,,,,,,,,,,
,,,,,,,,,,,,,,,808,2022-01-16_13h08.21.806,multiplicationStroop,2021.2.3,Win32,59.9880024,,,,,left,1,0.4344,0,34,34,70,1,8,3,8 | 3,5,1.6933,1.6933,neutral,left,,,,,,stimulusFile/magnitude.xlsx,,,,,,,,,,,,,,,,,,,,,,,,,,,,,,,
,,,,,,,,,,,,,,,808,2022-01-16_13h08.21.806,multiplicationStroop,2021.2.3,Win32,59.9880024,,,,,right,1,0.5623,0,35,35,58,1,6,8,6 | 8,2,1.6933,1.6933,neutral,right,,,,,,stimulusFile/magnitude.xlsx,,,,,,,,,,,,,,,,,,,,,,,,,,,,,,,
,,,,,,,,,,,,,,,808,2022-01-16_13h08.21.806,multiplicationStroop,2021.2.3,Win32,59.9880024,,,,,right,1,0.4796,0,36,36,16,1,1,6,1 | 6,5,1.4111,1.9756,congruent,right,,,,,,stimulusFile/magnitude.xlsx,,,,,,,,,,,,,,,,,,,,,,,,,,,,,,,
,,,,,,,,,,,,,,,808,2022-01-16_13h08.21.806,multiplicationStroop,2021.2.3,Win32,59.9880024,,,,,left,1,0.4895,0,37,37,4,1,2,1,2 | 1,1,1.9756,1.4111,congruent,left,,,,,,stimulusFile/magnitude.xlsx,,,,,,,,,,,,,,,,,,,,,,,,,,,,,,,
,,,,,,,,,,,,,,,808,2022-01-16_13h08.21.806,multiplicationStroop,2021.2.3,Win32,59.9880024,,,,,left,1,0.4506,0,38,38,31,1,9,8,9 | 8,1,1.4111,1.9756,incongruent,left,,,,,,stimulusFile/magnitude.xlsx,,,,,,,,,,,,,,,,,,,,,,,,,,,,,,,
,,,,,,,,,,,,,,,808,2022-01-16_13h08.21.806,multiplicationStroop,2021.2.3,Win32,59.9880024,,,,,left,1,0.5478,0,39,39,62,1,8,6,8 | 6,2,1.6933,1.6933,neutral,left,,,,,,stimulusFile/magnitude.xlsx,,,,,,,,,,,,,,,,,,,,,,,,,,,,,,,
,,,,,,,,,,,,,,,808,2022-01-16_13h08.21.806,multiplicationStroop,2021.2.3,Win32,59.9880024,,,,,left,1,0.7051,0,40,40,30,1,7,6,7 | 6,1,1.4111,1.9756,incongruent,left,,,,,,stimulusFile/magnitude.xlsx,,,,,,,,,,,,,,,,,,,,,,,,,,,,,,,
,,,,,,,,,,,,,,,808,2022-01-16_13h08.21.806,multiplicationStroop,2021.2.3,Win32,59.9880024,,,,,left,1,0.3792,0,41,41,21,1,7,2,7 | 2,5,1.9756,1.4111,congruent,left,,,,,,stimulusFile/magnitude.xlsx,,,,,,,,,,,,,,,,,,,,,,,,,,,,,,,
,,,,,,,,,,,,,,,808,2022-01-16_13h08.21.806,multiplicationStroop,2021.2.3,Win32,59.9880024,,,,,left,1,0.4148,0,42,42,68,1,6,1,6 | 1,5,1.6933,1.6933,neutral,left,,,,,,stimulusFile/magnitude.xlsx,,,,,,,,,,,,,,,,,,,,,,,,,,,,,,,
,,,,,,,,,,,,,,,808,2022-01-16_13h08.21.806,multiplicationStroop,2021.2.3,Win32,59.9880024,,,,,right,1,0.6322,0,43,43,25,1,3,4,3 | 4,1,1.9756,1.4111,incongruent,right,,,,,,stimulusFile/magnitude.xlsx,,,,,,,,,,,,,,,,,,,,,,,,,,,,,,,
,,,,,,,,,,,,,,,808,2022-01-16_13h08.21.806,multiplicationStroop,2021.2.3,Win32,59.9880024,,,,,right,1,0.5076,0,44,44,57,1,2,4,2 | 4,2,1.6933,1.6933,neutral,right,,,,,,stimulusFile/magnitude.xlsx,,,,,,,,,,,,,,,,,,,,,,,,,,,,,,,
,,,,,,,,,,,,,,,808,2022-01-16_13h08.21.806,multiplicationStroop,2021.2.3,Win32,59.9880024,,,,,right,1,0.5817,0,45,45,10,1,6,8,6 | 8,2,1.4111,1.9756,congruent,right,,,,,,stimulusFile/magnitude.xlsx,,,,,,,,,,,,,,,,,,,,,,,,,,,,,,,
,,,,,,,,,,,,,,,808,2022-01-16_13h08.21.806,multiplicationStroop,2021.2.3,Win32,59.9880024,,,,,right,1,0.4299,0,46,46,19,1,4,9,4 | 9,5,1.4111,1.9756,congruent,right,,,,,,stimulusFile/magnitude.xlsx,,,,,,,,,,,,,,,,,,,,,,,,,,,,,,,
,,,,,,,,,,,,,,,808,2022-01-16_13h08.21.806,multiplicationStroop,2021.2.3,Win32,59.9880024,,,,,left,1,0.4823,0,47,47,69,1,7,2,7 | 2,5,1.6933,1.6933,neutral,left,,,,,,stimulusFile/magnitude.xlsx,,,,,,,,,,,,,,,,,,,,,,,,,,,,,,,
,,,,,,,,,,,,,,,808,2022-01-16_13h08.21.806,multiplicationStroop,2021.2.3,Win32,59.9880024,,,,,left,1,0.5405,0,48,48,37,1,4,2,4 | 2,2,1.4111,1.9756,incongruent,left,,,,,,stimulusFile/magnitude.xlsx,,,,,,,,,,,,,,,,,,,,,,,,,,,,,,,
,,,,,,,,,,,,,,,808,2022-01-16_13h08.21.806,multiplicationStroop,2021.2.3,Win32,59.9880024,,,,,left,1,0.4791,0,49,49,23,1,9,4,9 | 4,5,1.9756,1.4111,congruent,left,,,,,,stimulusFile/magnitude.xlsx,,,,,,,,,,,,,,,,,,,,,,,,,,,,,,,
,,,,,,,,,,,,,,,808,2022-01-16_13h08.21.806,multiplicationStroop,2021.2.3,Win32,59.9880024,,,,,right,1,0.4527,0,50,50,56,1,1,3,1 | 3,2,1.6933,1.6933,neutral,right,,,,,,stimulusFile/magnitude.xlsx,,,,,,,,,,,,,,,,,,,,,,,,,,,,,,,
,,,,,,,,,,,,,,,808,2022-01-16_13h08.21.806,multiplicationStroop,2021.2.3,Win32,59.9880024,,,,,left,1,0.5359,0,51,51,29,1,4,3,4 | 3,1,1.4111,1.9756,incongruent,left,,,,,,stimulusFile/magnitude.xlsx,,,,,,,,,,,,,,,,,,,,,,,,,,,,,,,
,,,,,,,,,,,,,,,808,2022-01-16_13h08.21.806,multiplicationStroop,2021.2.3,Win32,59.9880024,,,,,right,1,0.4985,0,52,52,26,1,6,7,6 | 7,1,1.9756,1.4111,incongruent,right,,,,,,stimulusFile/magnitude.xlsx,,,,,,,,,,,,,,,,,,,,,,,,,,,,,,,
,,,,,,,,,,,,,,,808,2022-01-16_13h08.21.806,multiplicationStroop,2021.2.3,Win32,59.9880024,,,,,left,1,0.4099,0,53,53,15,1,9,7,9 | 7,2,1.9756,1.4111,congruent,left,,,,,,stimulusFile/magnitude.xlsx,,,,,,,,,,,,,,,,,,,,,,,,,,,,,,,
,,,,,,,,,,,,,,,808,2022-01-16_13h08.21.806,multiplicationStroop,2021.2.3,Win32,59.9880024,,,,,right,1,0.516,0,54,54,8,1,1,3,1 | 3,2,1.4111,1.9756,congruent,right,,,,,,stimulusFile/magnitude.xlsx,,,,,,,,,,,,,,,,,,,,,,,,,,,,,,,
,,,,,,,,,,,,,,,808,2022-01-16_13h08.21.806,multiplicationStroop,2021.2.3,Win32,59.9880024,,,,,right,1,0.47,0,55,55,2,1,6,7,6 | 7,1,1.4111,1.9756,congruent,right,,,,,,stimulusFile/magnitude.xlsx,,,,,,,,,,,,,,,,,,,,,,,,,,,,,,,
,,,,,,,,,,,,,,,808,2022-01-16_13h08.21.806,multiplicationStroop,2021.2.3,Win32,59.9880024,,,,,right,1,0.5493,0,56,56,35,1,7,9,7 | 9,2,1.9756,1.4111,incongruent,right,,,,,,stimulusFile/magnitude.xlsx,,,,,,,,,,,,,,,,,,,,,,,,,,,,,,,
,,,,,,,,,,,,,,,808,2022-01-16_13h08.21.806,multiplicationStroop,2021.2.3,Win32,59.9880024,,,,,right,1,0.4696,0,57,57,34,1,6,8,6 | 8,2,1.9756,1.4111,incongruent,right,,,,,,stimulusFile/magnitude.xlsx,,,,,,,,,,,,,,,,,,,,,,,,,,,,,,,
,,,,,,,,,,,,,,,808,2022-01-16_13h08.21.806,multiplicationStroop,2021.2.3,Win32,59.9880024,,,,,right,1,0.4132,0,58,58,1,1,3,4,3 | 4,1,1.4111,1.9756,congruent,right,,,,,,stimulusFile/magnitude.xlsx,,,,,,,,,,,,,,,,,,,,,,,,,,,,,,,
,,,,,,,,,,,,,,,808,2022-01-16_13h08.21.806,multiplicationStroop,2021.2.3,Win32,59.9880024,,,,,right,1,0.4916,0,59,59,65,1,2,7,2 | 7,5,1.6933,1.6933,neutral,right,,,,,,stimulusFile/magnitude.xlsx,,,,,,,,,,,,,,,,,,,,,,,,,,,,,,,
,,,,,,,,,,,,,,,808,2022-01-16_13h08.21.806,multiplicationStroop,2021.2.3,Win32,59.9880024,,,,,left,1,0.6536,0,60,60,28,1,2,1,2 | 1,1,1.4111,1.9756,incongruent,left,,,,,,stimulusFile/magnitude.xlsx,,,,,,,,,,,,,,,,,,,,,,,,,,,,,,,
,,,,,,,,,,,,,,,808,2022-01-16_13h08.21.806,multiplicationStroop,2021.2.3,Win32,59.9880024,,,,,left,1,0.4496,0,61,61,22,1,8,3,8 | 3,5,1.9756,1.4111,congruent,left,,,,,,stimulusFile/magnitude.xlsx,,,,,,,,,,,,,,,,,,,,,,,,,,,,,,,
,,,,,,,,,,,,,,,808,2022-01-16_13h08.21.806,multiplicationStroop,2021.2.3,Win32,59.9880024,,,,,right,1,0.4451,0,62,62,17,1,2,7,2 | 7,5,1.4111,1.9756,congruent,right,,,,,,stimulusFile/magnitude.xlsx,,,,,,,,,,,,,,,,,,,,,,,,,,,,,,,
,,,,,,,,,,,,,,,808,2022-01-16_13h08.21.806,multiplicationStroop,2021.2.3,Win32,59.9880024,,,,,left,1,0.4289,0,63,63,63,1,9,7,9 | 7,2,1.6933,1.6933,neutral,left,,,,,,stimulusFile/magnitude.xlsx,,,,,,,,,,,,,,,,,,,,,,,,,,,,,,,
,,,,,,,,,,,,,,,808,2022-01-16_13h08.21.806,multiplicationStroop,2021.2.3,Win32,59.9880024,,,,,left,0,0.2669,0,64,64,27,1,8,9,8 | 9,1,1.9756,1.4111,incongruent,right,,,,,,stimulusFile/magnitude.xlsx,,,,,,,,,,,,,,,,,,,,,,,,,,,,,,,
,,,,,,,,,,,,,,,808,2022-01-16_13h08.21.806,multiplicationStroop,2021.2.3,Win32,59.9880024,,,,,right,1,0.4828,0,65,65,59,1,7,9,7 | 9,2,1.6933,1.6933,neutral,right,,,,,,stimulusFile/magnitude.xlsx,,,,,,,,,,,,,,,,,,,,,,,,,,,,,,,
,,,,,,,,,,,,,,,808,2022-01-16_13h08.21.806,multiplicationStroop,2021.2.3,Win32,59.9880024,,,,,left,1,0.4082,0,66,66,39,1,9,7,9 | 7,2,1.4111,1.9756,incongruent,left,,,,,,stimulusFile/magnitude.xlsx,,,,,,,,,,,,,,,,,,,,,,,,,,,,,,,
,,,,,,,,,,,,,,,808,2022-01-16_13h08.21.806,multiplicationStroop,2021.2.3,Win32,59.9880024,,,,,right,1,0.454,0,67,67,67,1,4,9,4 | 9,5,1.6933,1.6933,neutral,right,,,,,,stimulusFile/magnitude.xlsx,,,,,,,,,,,,,,,,,,,,,,,,,,,,,,,
,,,,,,,,,,,,,,,808,2022-01-16_13h08.21.806,multiplicationStroop,2021.2.3,Win32,59.9880024,,,,,left,1,0.4791,0,68,68,52,1,2,1,2 | 1,1,1.6933,1.6933,neutral,left,,,,,,stimulusFile/magnitude.xlsx,,,,,,,,,,,,,,,,,,,,,,,,,,,,,,,
,,,,,,,,,,,,,,,808,2022-01-16_13h08.21.806,multiplicationStroop,2021.2.3,Win32,59.9880024,,,,,left,1,0.4873,0,69,69,45,1,7,2,7 | 2,5,1.4111,1.9756,incongruent,left,,,,,,stimulusFile/magnitude.xlsx,,,,,,,,,,,,,,,,,,,,,,,,,,,,,,,
,,,,,,,,,,,,,,,808,2022-01-16_13h08.21.806,multiplicationStroop,2021.2.3,Win32,59.9880024,,,,,right,1,0.4875,0,70,70,41,1,2,7,2 | 7,5,1.9756,1.4111,incongruent,right,,,,,,stimulusFile/magnitude.xlsx,,,,,,,,,,,,,,,,,,,,,,,,,,,,,,,
,,,,,,,,,,,,,,,808,2022-01-16_13h08.21.806,multiplicationStroop,2021.2.3,Win32,59.9880024,,,,,left,1,0.479,0,71,71,60,1,3,1,3 | 1,2,1.6933,1.6933,neutral,left,,,,,,stimulusFile/magnitude.xlsx,,,,,,,,,,,,,,,,,,,,,,,,,,,,,,,
,,,,,,,,,,,,,,,808,2022-01-16_13h08.21.806,multiplicationStroop,2021.2.3,Win32,59.9880024,,,,,,,,,,,,,,,,,,,,,0,0,0,0,1,stimulusFile/magnitude.xlsx,NUMERICALLY larger (larger coefficient).,images/numericallyLarger.png,,,,,,,,,,,,,,,,,,,,,,,,,,,,,
,,,,,,,,,,,,,,,808,2022-01-16_13h08.21.806,multiplicationStroop,2021.2.3,Win32,59.9880024,space,4.0378,space,0.8842,left,1,0.4604,0,0,0,53,1,4,4,4 | 4,0,1.9756,1.4111,neutral,left,,,,,,stimulusFile/physical.xlsx,,,,,,,,,,,,,,,,,,,,,,,,,,,,,,,
,,,,,,,,,,,,,,,808,2022-01-16_13h08.21.806,multiplicationStroop,2021.2.3,Win32,59.9880024,,,,,left,1,0.3698,0,1,1,33,1,2,4,2 | 4,2,1.9756,1.4111,incongruent,left,,,,,,stimulusFile/physical.xlsx,,,,,,,,,,,,,,,,,,,,,,,,,,,,,,,
,,,,,,,,,,,,,,,808,2022-01-16_13h08.21.806,multiplicationStroop,2021.2.3,Win32,59.9880024,,,,,left,1,0.4527,0,2,2,27,1,8,9,8 | 9,1,1.9756,1.4111,incongruent,left,,,,,,stimulusFile/physical.xlsx,,,,,,,,,,,,,,,,,,,,,,,,,,,,,,,
,,,,,,,,,,,,,,,808,2022-01-16_13h08.21.806,multiplicationStroop,2021.2.3,Win32,59.9880024,,,,,left,1,0.4193,0,3,3,32,1,1,3,1 | 3,2,1.9756,1.4111,incongruent,left,,,,,,stimulusFile/physical.xlsx,,,,,,,,,,,,,,,,,,,,,,,,,,,,,,,
,,,,,,,,,,,,,,,808,2022-01-16_13h08.21.806,multiplicationStroop,2021.2.3,Win32,59.9880024,,,,,right,1,0.4199,0,4,4,39,1,9,7,9 | 7,2,1.4111,1.9756,incongruent,right,,,,,,stimulusFile/physical.xlsx,,,,,,,,,,,,,,,,,,,,,,,,,,,,,,,
,,,,,,,,,,,,,,,808,2022-01-16_13h08.21.806,multiplicationStroop,2021.2.3,Win32,59.9880024,,,,,right,1,0.4074,0,5,5,11,1,7,9,7 | 9,2,1.4111,1.9756,congruent,right,,,,,,stimulusFile/physical.xlsx,,,,,,,,,,,,,,,,,,,,,,,,,,,,,,,
,,,,,,,,,,,,,,,808,2022-01-16_13h08.21.806,multiplicationStroop,2021.2.3,Win32,59.9880024,,,,,right,0,0.5375,0,6,6,69,1,7,7,7 | 7,0,1.4111,1.9756,neutral,left,,,,,,stimulusFile/physical.xlsx,,,,,,,,,,,,,,,,,,,,,,,,,,,,,,,
,,,,,,,,,,,,,,,808,2022-01-16_13h08.21.806,multiplicationStroop,2021.2.3,Win32,59.9880024,,,,,left,1,0.3702,0,7,7,50,1,6,6,6 | 6,0,1.9756,1.4111,neutral,left,,,,,,stimulusFile/physical.xlsx,,,,,,,,,,,,,,,,,,,,,,,,,,,,,,,
,,,,,,,,,,,,,,,808,2022-01-16_13h08.21.806,multiplicationStroop,2021.2.3,Win32,59.9880024,,,,,right,1,0.4078,0,8,8,29,1,4,3,4 | 3,1,1.4111,1.9756,incongruent,right,,,,,,stimulusFile/physical.xlsx,,,,,,,,,,,,,,,,,,,,,,,,,,,,,,,
,,,,,,,,,,,,,,,808,2022-01-16_13h08.21.806,multiplicationStroop,2021.2.3,Win32,59.9880024,,,,,right,1,0.6746,0,9,9,47,1,9,4,9 | 4,5,1.4111,1.9756,incongruent,right,,,,,,stimulusFile/physical.xlsx,,,,,,,,,,,,,,,,,,,,,,,,,,,,,,,
,,,,,,,,,,,,,,,808,2022-01-16_13h08.21.806,multiplicationStroop,2021.2.3,Win32,59.9880024,,,,,right,1,0.4117,0,10,10,19,1,4,9,4 | 9,5,1.4111,1.9756,congruent,right,,,,,,stimulusFile/physical.xlsx,,,,,,,,,,,,,,,,,,,,,,,,,,,,,,,
,,,,,,,,,,,,,,,808,2022-01-16_13h08.21.806,multiplicationStroop,2021.2.3,Win32,59.9880024,,,,,left,1,0.4042,0,11,11,24,1,1,2,1 | 2,1,1.9756,1.4111,incongruent,left,,,,,,stimulusFile/physical.xlsx,,,,,,,,,,,,,,,,,,,,,,,,,,,,,,,
,,,,,,,,,,,,,,,808,2022-01-16_13h08.21.806,multiplicationStroop,2021.2.3,Win32,59.9880024,,,,,right,1,0.784,0,12,12,63,1,9,9,9 | 9,0,1.4111,1.9756,neutral,right,,,,,,stimulusFile/physical.xlsx,,,,,,,,,,,,,,,,,,,,,,,,,,,,,,,
,,,,,,,,,,,,,,,808,2022-01-16_13h08.21.806,multiplicationStroop,2021.2.3,Win32,59.9880024,,,,,right,1,0.6083,0,13,13,37,1,4,2,4 | 2,2,1.4111,1.9756,incongruent,right,,,,,,stimulusFile/physical.xlsx,,,,,,,,,,,,,,,,,,,,,,,,,,,,,,,
,,,,,,,,,,,,,,,808,2022-01-16_13h08.21.806,multiplicationStroop,2021.2.3,Win32,59.9880024,,,,,right,1,0.5877,0,14,14,2,1,6,7,6 | 7,1,1.4111,1.9756,congruent,right,,,,,,stimulusFile/physical.xlsx,,,,,,,,,,,,,,,,,,,,,,,,,,,,,,,
,,,,,,,,,,,,,,,808,2022-01-16_13h08.21.806,multiplicationStroop,2021.2.3,Win32,59.9880024,,,,,left,1,0.4082,0,15,15,49,1,3,3,3 | 3,0,1.9756,1.4111,neutral,left,,,,,,stimulusFile/physical.xlsx,,,,,,,,,,,,,,,,,,,,,,,,,,,,,,,
,,,,,,,,,,,,,,,808,2022-01-16_13h08.21.806,multiplicationStroop,2021.2.3,Win32,59.9880024,,,,,right,1,0.4127,0,16,16,3,1,8,9,8 | 9,1,1.4111,1.9756,congruent,right,,,,,,stimulusFile/physical.xlsx,,,,,,,,,,,,,,,,,,,,,,,,,,,,,,,
,,,,,,,,,,,,,,,808,2022-01-16_13h08.21.806,multiplicationStroop,2021.2.3,Win32,59.9880024,,,,,left,1,0.4551,0,17,17,15,1,9,7,9 | 7,2,1.9756,1.4111,congruent,left,,,,,,stimulusFile/physical.xlsx,,,,,,,,,,,,,,,,,,,,,,,,,,,,,,,
,,,,,,,,,,,,,,,808,2022-01-16_13h08.21.806,multiplicationStroop,2021.2.3,Win32,59.9880024,,,,,left,1,0.4218,0,18,18,4,1,2,1,2 | 1,1,1.9756,1.4111,congruent,left,,,,,,stimulusFile/physical.xlsx,,,,,,,,,,,,,,,,,,,,,,,,,,,,,,,
,,,,,,,,,,,,,,,808,2022-01-16_13h08.21.806,multiplicationStroop,2021.2.3,Win32,59.9880024,,,,,right,1,0.4592,0,19,19,17,1,2,7,2 | 7,5,1.4111,1.9756,congruent,right,,,,,,stimulusFile/physical.xlsx,,,,,,,,,,,,,,,,,,,,,,,,,,,,,,,
,,,,,,,,,,,,,,,808,2022-01-16_13h08.21.806,multiplicationStroop,2021.2.3,Win32,59.9880024,,,,,left,1,0.5125,0,20,20,70,1,8,8,8 | 8,0,1.9756,1.4111,neutral,left,,,,,,stimulusFile/physical.xlsx,,,,,,,,,,,,,,,,,,,,,,,,,,,,,,,
,,,,,,,,,,,,,,,808,2022-01-16_13h08.21.806,multiplicationStroop,2021.2.3,Win32,59.9880024,,,,,left,1,0.8428,0,21,21,54,1,7,7,7 | 7,0,1.9756,1.4111,neutral,left,,,,,,stimulusFile/physical.xlsx,,,,,,,,,,,,,,,,,,,,,,,,,,,,,,,
,,,,,,,,,,,,,,,808,2022-01-16_13h08.21.806,multiplicationStroop,2021.2.3,Win32,59.9880024,,,,,left,1,0.4166,0,22,22,25,1,3,4,3 | 4,1,1.9756,1.4111,incongruent,left,,,,,,stimulusFile/physical.xlsx,,,,,,,,,,,,,,,,,,,,,,,,,,,,,,,
,,,,,,,,,,,,,,,808,2022-01-16_13h08.21.806,multiplicationStroop,2021.2.3,Win32,59.9880024,,,,,left,1,0.3552,0,23,23,12,1,3,1,3 | 1,2,1.9756,1.4111,congruent,left,,,,,,stimulusFile/physical.xlsx,,,,,,,,,,,,,,,,,,,,,,,,,,,,,,,
,,,,,,,,,,,,,,,808,2022-01-16_13h08.21.806,multiplicationStroop,2021.2.3,Win32,59.9880024,,,,,left,0,0.3222,0,24,24,64,1,1,1,1 | 1,0,1.9756,1.4111,neutral,right,,,,,,stimulusFile/physical.xlsx,,,,,,,,,,,,,,,,,,,,,,,,,,,,,,,
,,,,,,,,,,,,,,,808,2022-01-16_13h08.21.806,multiplicationStroop,2021.2.3,Win32,59.9880024,,,,,right,1,0.5842,0,25,25,8,1,1,3,1 | 3,2,1.4111,1.9756,congruent,right,,,,,,stimulusFile/physical.xlsx,,,,,,,,,,,,,,,,,,,,,,,,,,,,,,,
,,,,,,,,,,,,,,,808,2022-01-16_13h08.21.806,multiplicationStroop,2021.2.3,Win32,59.9880024,,,,,left,1,0.4689,0,26,26,51,1,8,8,8 | 8,0,1.9756,1.4111,neutral,left,,,,,,stimulusFile/physical.xlsx,,,,,,,,,,,,,,,,,,,,,,,,,,,,,,,
,,,,,,,,,,,,,,,808,2022-01-16_13h08.21.806,multiplicationStroop,2021.2.3,Win32,59.9880024,,,,,left,1,0.3308,0,27,27,22,1,8,3,8 | 3,5,1.9756,1.4111,congruent,left,,,,,,stimulusFile/physical.xlsx,,,,,,,,,,,,,,,,,,,,,,,,,,,,,,,
,,,,,,,,,,,,,,,808,2022-01-16_13h08.21.806,multiplicationStroop,2021.2.3,Win32,59.9880024,,,,,right,1,0.4431,0,28,28,44,1,6,1,6 | 1,5,1.4111,1.9756,incongruent,right,,,,,,stimulusFile/physical.xlsx,,,,,,,,,,,,,,,,,,,,,,,,,,,,,,,
,,,,,,,,,,,,,,,808,2022-01-16_13h08.21.806,multiplicationStroop,2021.2.3,Win32,59.9880024,,,,,right,1,0.439,0,29,29,58,1,6,6,6 | 6,0,1.4111,1.9756,neutral,right,,,,,,stimulusFile/physical.xlsx,,,,,,,,,,,,,,,,,,,,,,,,,,,,,,,
,,,,,,,,,,,,,,,808,2022-01-16_13h08.21.806,multiplicationStroop,2021.2.3,Win32,59.9880024,,,,,left,1,0.348,0,30,30,35,1,7,9,7 | 9,2,1.9756,1.4111,incongruent,left,,,,,,stimulusFile/physical.xlsx,,,,,,,,,,,,,,,,,,,,,,,,,,,,,,,
,,,,,,,,,,,,,,,808,2022-01-16_13h08.21.806,multiplicationStroop,2021.2.3,Win32,59.9880024,,,,,right,1,0.3559,0,31,31,9,1,2,4,2 | 4,2,1.4111,1.9756,congruent,right,,,,,,stimulusFile/physical.xlsx,,,,,,,,,,,,,,,,,,,,,,,,,,,,,,,
,,,,,,,,,,,,,,,808,2022-01-16_13h08.21.806,multiplicationStroop,2021.2.3,Win32,59.9880024,,,,,left,1,0.3225,0,32,32,26,1,6,7,6 | 7,1,1.9756,1.4111,incongruent,left,,,,,,stimulusFile/physical.xlsx,,,,,,,,,,,,,,,,,,,,,,,,,,,,,,,
,,,,,,,,,,,,,,,808,2022-01-16_13h08.21.806,multiplicationStroop,2021.2.3,Win32,59.9880024,,,,,right,1,0.4675,0,33,33,36,1,3,1,3 | 1,2,1.4111,1.9756,incongruent,right,,,,,,stimulusFile/physical.xlsx,,,,,,,,,,,,,,,,,,,,,,,,,,,,,,,
,,,,,,,,,,,,,,,808,2022-01-16_13h08.21.806,multiplicationStroop,2021.2.3,Win32,59.9880024,,,,,right,1,0.9836,0,34,34,16,1,1,6,1 | 6,5,1.4111,1.9756,congruent,right,,,,,,stimulusFile/physical.xlsx,,,,,,,,,,,,,,,,,,,,,,,,,,,,,,,
,,,,,,,,,,,,,,,808,2022-01-16_13h08.21.806,multiplicationStroop,2021.2.3,Win32,59.9880024,,,,,right,1,0.4043,0,35,35,30,1,7,6,7 | 6,1,1.4111,1.9756,incongruent,right,,,,,,stimulusFile/physical.xlsx,,,,,,,,,,,,,,,,,,,,,,,,,,,,,,,
,,,,,,,,,,,,,,,808,2022-01-16_13h08.21.806,multiplicationStroop,2021.2.3,Win32,59.9880024,,,,,left,1,0.4567,0,36,36,41,1,2,7,2 | 7,5,1.9756,1.4111,incongruent,left,,,,,,stimulusFile/physical.xlsx,,,,,,,,,,,,,,,,,,,,,,,,,,,,,,,
,,,,,,,,,,,,,,,808,2022-01-16_13h08.21.806,multiplicationStroop,2021.2.3,Win32,59.9880024,,,,,left,1,0.4115,0,37,37,68,1,6,6,6 | 6,0,1.9756,1.4111,neutral,left,,,,,,stimulusFile/physical.xlsx,,,,,,,,,,,,,,,,,,,,,,,,,,,,,,,
,,,,,,,,,,,,,,,808,2022-01-16_13h08.21.806,multiplicationStroop,2021.2.3,Win32,59.9880024,,,,,left,1,0.3025,0,38,38,40,1,1,6,1 | 6,5,1.9756,1.4111,incongruent,left,,,,,,stimulusFile/physical.xlsx,,,,,,,,,,,,,,,,,,,,,,,,,,,,,,,
,,,,,,,,,,,,,,,808,2022-01-16_13h08.21.806,multiplicationStroop,2021.2.3,Win32,59.9880024,,,,,right,1,0.4195,0,39,39,60,1,3,3,3 | 3,0,1.4111,1.9756,neutral,right,,,,,,stimulusFile/physical.xlsx,,,,,,,,,,,,,,,,,,,,,,,,,,,,,,,
,,,,,,,,,,,,,,,808,2022-01-16_13h08.21.806,multiplicationStroop,2021.2.3,Win32,59.9880024,,,,,right,0,0.5447,0,40,40,21,1,7,2,7 | 2,5,1.9756,1.4111,congruent,left,,,,,,stimulusFile/physical.xlsx,,,,,,,,,,,,,,,,,,,,,,,,,,,,,,,
,,,,,,,,,,,,,,,808,2022-01-16_13h08.21.806,multiplicationStroop,2021.2.3,Win32,59.9880024,,,,,right,1,0.7198,0,41,41,65,1,2,2,2 | 2,0,1.4111,1.9756,neutral,right,,,,,,stimulusFile/physical.xlsx,,,,,,,,,,,,,,,,,,,,,,,,,,,,,,,
,,,,,,,,,,,,,,,808,2022-01-16_13h08.21.806,multiplicationStroop,2021.2.3,Win32,59.9880024,,,,,right,1,0.6533,0,42,42,38,1,8,6,8 | 6,2,1.4111,1.9756,incongruent,right,,,,,,stimulusFile/physical.xlsx,,,,,,,,,,,,,,,,,,,,,,,,,,,,,,,
,,,,,,,,,,,,,,,808,2022-01-16_13h08.21.806,multiplicationStroop,2021.2.3,Win32,59.9880024,,,,,left,1,0.5199,0,43,43,43,1,4,9,4 | 9,5,1.9756,1.4111,incongruent,left,,,,,,stimulusFile/physical.xlsx,,,,,,,,,,,,,,,,,,,,,,,,,,,,,,,
,,,,,,,,,,,,,,,808,2022-01-16_13h08.21.806,multiplicationStroop,2021.2.3,Win32,59.9880024,,,,,right,1,0.6337,0,44,44,59,1,7,7,7 | 7,0,1.4111,1.9756,neutral,right,,,,,,stimulusFile/physical.xlsx,,,,,,,,,,,,,,,,,,,,,,,,,,,,,,,
,,,,,,,,,,,,,,,808,2022-01-16_13h08.21.806,multiplicationStroop,2021.2.3,Win32,59.9880024,,,,,left,1,0.6408,0,45,45,34,1,6,8,6 | 8,2,1.9756,1.4111,incongruent,left,,,,,,stimulusFile/physical.xlsx,,,,,,,,,,,,,,,,,,,,,,,,,,,,,,,
,,,,,,,,,,,,,,,808,2022-01-16_13h08.21.806,multiplicationStroop,2021.2.3,Win32,59.9880024,,,,,right,1,0.7115,0,46,46,46,1,8,3,8 | 3,5,1.4111,1.9756,incongruent,right,,,,,,stimulusFile/physical.xlsx,,,,,,,,,,,,,,,,,,,,,,,,,,,,,,,
,,,,,,,,,,,,,,,808,2022-01-16_13h08.21.806,multiplicationStroop,2021.2.3,Win32,59.9880024,,,,,left,1,0.4409,0,47,47,7,1,9,8,9 | 8,1,1.9756,1.4111,congruent,left,,,,,,stimulusFile/physical.xlsx,,,,,,,,,,,,,,,,,,,,,,,,,,,,,,,
,,,,,,,,,,,,,,,808,2022-01-16_13h08.21.806,multiplicationStroop,2021.2.3,Win32,59.9880024,,,,,left,1,0.5125,0,48,48,42,1,3,8,3 | 8,5,1.9756,1.4111,incongruent,left,,,,,,stimulusFile/physical.xlsx,,,,,,,,,,,,,,,,,,,,,,,,,,,,,,,
,,,,,,,,,,,,,,,808,2022-01-16_13h08.21.806,multiplicationStroop,2021.2.3,Win32,59.9880024,,,,,right,1,0.4682,0,49,49,0,1,1,2,1 | 2,1,1.4111,1.9756,congruent,right,,,,,,stimulusFile/physical.xlsx,,,,,,,,,,,,,,,,,,,,,,,,,,,,,,,
,,,,,,,,,,,,,,,808,2022-01-16_13h08.21.806,multiplicationStroop,2021.2.3,Win32,59.9880024,,,,,left,1,0.5197,0,50,50,6,1,7,6,7 | 6,1,1.9756,1.4111,congruent,left,,,,,,stimulusFile/physical.xlsx,,,,,,,,,,,,,,,,,,,,,,,,,,,,,,,
,,,,,,,,,,,,,,,808,2022-01-16_13h08.21.806,multiplicationStroop,2021.2.3,Win32,59.9880024,,,,,right,1,0.7281,0,51,51,45,1,7,2,7 | 2,5,1.4111,1.9756,incongruent,right,,,,,,stimulusFile/physical.xlsx,,,,,,,,,,,,,,,,,,,,,,,,,,,,,,,
,,,,,,,,,,,,,,,808,2022-01-16_13h08.21.806,multiplicationStroop,2021.2.3,Win32,59.9880024,,,,,right,1,0.4689,0,52,52,61,1,4,4,4 | 4,0,1.4111,1.9756,neutral,right,,,,,,stimulusFile/physical.xlsx,,,,,,,,,,,,,,,,,,,,,,,,,,,,,,,
,,,,,,,,,,,,,,,808,2022-01-16_13h08.21.806,multiplicationStroop,2021.2.3,Win32,59.9880024,,,,,right,1,0.529,0,53,53,56,1,1,1,1 | 1,0,1.4111,1.9756,neutral,right,,,,,,stimulusFile/physical.xlsx,,,,,,,,,,,,,,,,,,,,,,,,,,,,,,,
,,,,,,,,,,,,,,,808,2022-01-16_13h08.21.806,multiplicationStroop,2021.2.3,Win32,59.9880024,,,,,right,1,0.4797,0,54,54,62,1,8,8,8 | 8,0,1.4111,1.9756,neutral,right,,,,,,stimulusFile/physical.xlsx,,,,,,,,,,,,,,,,,,,,,,,,,,,,,,,
,,,,,,,,,,,,,,,808,2022-01-16_13h08.21.806,multiplicationStroop,2021.2.3,Win32,59.9880024,,,,,right,0,0.479,0,55,55,71,1,9,9,9 | 9,0,1.4111,1.9756,neutral,left,,,,,,stimulusFile/physical.xlsx,,,,,,,,,,,,,,,,,,,,,,,,,,,,,,,
,,,,,,,,,,,,,,,808,2022-01-16_13h08.21.806,multiplicationStroop,2021.2.3,Win32,59.9880024,,,,,right,1,0.5692,0,56,56,28,1,2,1,2 | 1,1,1.4111,1.9756,incongruent,right,,,,,,stimulusFile/physical.xlsx,,,,,,,,,,,,,,,,,,,,,,,,,,,,,,,
,,,,,,,,,,,,,,,808,2022-01-16_13h08.21.806,multiplicationStroop,2021.2.3,Win32,59.9880024,,,,,left,0,0.4675,0,57,57,66,1,3,3,3 | 3,0,1.9756,1.4111,neutral,right,,,,,,stimulusFile/physical.xlsx,,,,,,,,,,,,,,,,,,,,,,,,,,,,,,,
,,,,,,,,,,,,,,,808,2022-01-16_13h08.21.806,multiplicationStroop,2021.2.3,Win32,59.9880024,,,,,left,1,0.5174,0,58,58,52,1,2,2,2 | 2,0,1.9756,1.4111,neutral,left,,,,,,stimulusFile/physical.xlsx,,,,,,,,,,,,,,,,,,,,,,,,,,,,,,,
,,,,,,,,,,,,,,,808,2022-01-16_13h08.21.806,multiplicationStroop,2021.2.3,Win32,59.9880024,,,,,left,1,0.4424,0,59,59,23,1,9,4,9 | 4,5,1.9756,1.4111,congruent,left,,,,,,stimulusFile/physical.xlsx,,,,,,,,,,,,,,,,,,,,,,,,,,,,,,,
,,,,,,,,,,,,,,,808,2022-01-16_13h08.21.806,multiplicationStroop,2021.2.3,Win32,59.9880024,,,,,left,1,0.4385,0,60,60,14,1,8,6,8 | 6,2,1.9756,1.4111,congruent,left,,,,,,stimulusFile/physical.xlsx,,,,,,,,,,,,,,,,,,,,,,,,,,,,,,,
,,,,,,,,,,,,,,,808,2022-01-16_13h08.21.806,multiplicationStroop,2021.2.3,Win32,59.9880024,,,,,right,1,0.4216,0,61,61,67,1,4,4,4 | 4,0,1.4111,1.9756,neutral,right,,,,,,stimulusFile/physical.xlsx,,,,,,,,,,,,,,,,,,,,,,,,,,,,,,,
,,,,,,,,,,,,,,,808,2022-01-16_13h08.21.806,multiplicationStroop,2021.2.3,Win32,59.9880024,,,,,right,1,0.609,0,62,62,31,1,9,8,9 | 8,1,1.4111,1.9756,incongruent,right,,,,,,stimulusFile/physical.xlsx,,,,,,,,,,,,,,,,,,,,,,,,,,,,,,,
,,,,,,,,,,,,,,,808,2022-01-16_13h08.21.806,multiplicationStroop,2021.2.3,Win32,59.9880024,,,,,left,1,0.4173,0,63,63,5,1,4,3,4 | 3,1,1.9756,1.4111,congruent,left,,,,,,stimulusFile/physical.xlsx,,,,,,,,,,,,,,,,,,,,,,,,,,,,,,,
,,,,,,,,,,,,,,,808,2022-01-16_13h08.21.806,multiplicationStroop,2021.2.3,Win32,59.9880024,,,,,left,1,0.5051,0,64,64,48,1,1,1,1 | 1,0,1.9756,1.4111,neutral,left,,,,,,stimulusFile/physical.xlsx,,,,,,,,,,,,,,,,,,,,,,,,,,,,,,,
,,,,,,,,,,,,,,,808,2022-01-16_13h08.21.806,multiplicationStroop,2021.2.3,Win32,59.9880024,,,,,left,1,0.5093,0,65,65,55,1,9,9,9 | 9,0,1.9756,1.4111,neutral,left,,,,,,stimulusFile/physical.xlsx,,,,,,,,,,,,,,,,,,,,,,,,,,,,,,,
,,,,,,,,,,,,,,,808,2022-01-16_13h08.21.806,multiplicationStroop,2021.2.3,Win32,59.9880024,,,,,right,1,0.5176,0,66,66,10,1,6,8,6 | 8,2,1.4111,1.9756,congruent,right,,,,,,stimulusFile/physical.xlsx,,,,,,,,,,,,,,,,,,,,,,,,,,,,,,,
,,,,,,,,,,,,,,,808,2022-01-16_13h08.21.806,multiplicationStroop,2021.2.3,Win32,59.9880024,,,,,right,1,0.476,0,67,67,57,1,2,2,2 | 2,0,1.4111,1.9756,neutral,right,,,,,,stimulusFile/physical.xlsx,,,,,,,,,,,,,,,,,,,,,,,,,,,,,,,
,,,,,,,,,,,,,,,808,2022-01-16_13h08.21.806,multiplicationStroop,2021.2.3,Win32,59.9880024,,,,,right,1,0.4891,0,68,68,18,1,3,8,3 | 8,5,1.4111,1.9756,congruent,right,,,,,,stimulusFile/physical.xlsx,,,,,,,,,,,,,,,,,,,,,,,,,,,,,,,
,,,,,,,,,,,,,,,808,2022-01-16_13h08.21.806,multiplicationStroop,2021.2.3,Win32,59.9880024,,,,,left,1,0.4857,0,69,69,20,1,6,1,6 | 1,5,1.9756,1.4111,congruent,left,,,,,,stimulusFile/physical.xlsx,,,,,,,,,,,,,,,,,,,,,,,,,,,,,,,
,,,,,,,,,,,,,,,808,2022-01-16_13h08.21.806,multiplicationStroop,2021.2.3,Win32,59.9880024,,,,,left,1,0.3931,0,70,70,13,1,4,2,4 | 2,2,1.9756,1.4111,congruent,left,,,,,,stimulusFile/physical.xlsx,,,,,,,,,,,,,,,,,,,,,,,,,,,,,,,
,,,,,,,,,,,,,,,808,2022-01-16_13h08.21.806,multiplicationStroop,2021.2.3,Win32,59.9880024,,,,,right,1,0.4894,0,71,71,1,1,3,4,3 | 4,1,1.4111,1.9756,congruent,right,,,,,,stimulusFile/physical.xlsx,,,,,,,,,,,,,,,,,,,,,,,,,,,,,,,
,,,,,,,,,,,,,,,808,2022-01-16_13h08.21.806,multiplicationStroop,2021.2.3,Win32,59.9880024,,,,,,,,,,,,,,,,,,,,,0,1,1,1,1,stimulusFile/physical.xlsx,PHYSICALLY larger (larger font size).,images/physicallyLarger.png,,,,,,,,,,,,,,,,,,,,,,,,,,,,,
,,,,,,,,,,,,,,,808,2022-01-16_13h08.21.806,multiplicationStroop,2021.2.3,Win32,59.9880024,,,,,,,,,,,,,,,,,,,,,,,,,,,,,space,6.2224,space,1.9755,56,2.9479,1,0,0,0,0,1,7,×,8,7 × 8,incongruent,smallerFirst,2,1,56,,,,,,,,
,,,,,,,,,,,,,,,808,2022-01-16_13h08.21.806,multiplicationStroop,2021.2.3,Win32,59.9880024,,,,,,,,,,,,,,,,,,,,,,,,,,,,,,,,,28,2.0822,1,0,1,1,2,1,4,×,7,4 × 7,incongruent,smallerFirst,2,1,28,,,,,,,,
,,,,,,,,,,,,,,,808,2022-01-16_13h08.21.806,multiplicationStroop,2021.2.3,Win32,59.9880024,,,,,,,,,,,,,,,,,,,,,,,,,,,,,,,,,48,3.3555,1,0,2,2,15,1,8,×,6,8 × 6,incongruent,largerFirst,1,2,48,,,,,,,,
,,,,,,,,,,,,,,,808,2022-01-16_13h08.21.806,multiplicationStroop,2021.2.3,Win32,59.9880024,,,,,,,,,,,,,,,,,,,,,,,,,,,,,,,,,18,1.7827,1,0,3,3,22,1,6,×,3,6 × 3,incongruent,largerFirst,1,2,18,,,,,,,,
,,,,,,,,,,,,,,,808,2022-01-16_13h08.21.806,multiplicationStroop,2021.2.3,Win32,59.9880024,,,,,,,,,,,,,,,,,,,,,,,,,,,,,,,,,49,1.7491,1,0,4,4,33,1,7,×,7,7 × 7,neutral,tie,2,1,49,,,,,,,,
,,,,,,,,,,,,,,,808,2022-01-16_13h08.21.806,multiplicationStroop,2021.2.3,Win32,59.9880024,,,,,,,,,,,,,,,,,,,,,,,,,,,,,,,,,63,2.1994,1,0,5,5,17,1,9,×,7,9 × 7,incongruent,largerFirst,1,2,63,,,,,,,,
,,,,,,,,,,,,,,,808,2022-01-16_13h08.21.806,multiplicationStroop,2021.2.3,Win32,59.9880024,,,,,,,,,,,,,,,,,,,,,,,,,,,,,,,,,20,1.5993,1,0,6,6,13,1,4,×,5,4 × 5,incongruent,smallerFirst,2,1,20,,,,,,,,
,,,,,,,,,,,,,,,808,2022-01-16_13h08.21.806,multiplicationStroop,2021.2.3,Win32,59.9880024,,,,,,,,,,,,,,,,,,,,,,,,,,,,,,,,,24,1.6494,1,0,7,7,6,1,4,×,6,4 × 6,incongruent,smallerFirst,2,1,24,,,,,,,,
,,,,,,,,,,,,,,,808,2022-01-16_13h08.21.806,multiplicationStroop,2021.2.3,Win32,59.9880024,,,,,,,,,,,,,,,,,,,,,,,,,,,,,,,,,8,1.4664,1,0,8,8,10,1,2,×,4,2 × 4,incongruent,smallerFirst,2,1,8,,,,,,,,
,,,,,,,,,,,,,,,808,2022-01-16_13h08.21.806,multiplicationStroop,2021.2.3,Win32,59.9880024,,,,,,,,,,,,,,,,,,,,,,,,,,,,,,,,,12,1.299,1,0,9,9,5,1,2,×,6,2 × 6,incongruent,smallerFirst,2,1,12,,,,,,,,
,,,,,,,,,,,,,,,808,2022-01-16_13h08.21.806,multiplicationStroop,2021.2.3,Win32,59.9880024,,,,,,,,,,,,,,,,,,,,,,,,,,,,,,,,,24,1.4995,1,0,10,10,23,1,8,×,3,8 × 3,incongruent,largerFirst,1,2,24,,,,,,,,
,,,,,,,,,,,,,,,808,2022-01-16_13h08.21.806,multiplicationStroop,2021.2.3,Win32,59.9880024,,,,,,,,,,,,,,,,,,,,,,,,,,,,,,,,,42,4.1152,1,0,11,11,3,1,6,×,7,6 × 7,incongruent,smallerFirst,2,1,42,,,,,,,,
,,,,,,,,,,,,,,,808,2022-01-16_13h08.21.806,multiplicationStroop,2021.2.3,Win32,59.9880024,,,,,,,,,,,,,,,,,,,,,,,,,,,,,,,,,72,2.4228,1,0,12,12,14,1,9,×,8,9 × 8,incongruent,largerFirst,1,2,72,,,,,,,,
,,,,,,,,,,,,,,,808,2022-01-16_13h08.21.806,multiplicationStroop,2021.2.3,Win32,59.9880024,,,,,,,,,,,,,,,,,,,,,,,,,,,,,,,,,40,1.7494,1,0,13,13,27,1,8,×,5,8 × 5,incongruent,largerFirst,1,2,40,,,,,,,,
,,,,,,,,,,,,,,,808,2022-01-16_13h08.21.806,multiplicationStroop,2021.2.3,Win32,59.9880024,,,,,,,,,,,,,,,,,,,,,,,,,,,,,,,,,64,1.7161,1,0,14,14,34,1,8,×,8,8 × 8,neutral,tie,2,1,64,,,,,,,,
,,,,,,,,,,,,,,,808,2022-01-16_13h08.21.806,multiplicationStroop,2021.2.3,Win32,59.9880024,,,,,,,,,,,,,,,,,,,,,,,,,,,,,,,,,54,2.0826,1,0,15,15,20,1,9,×,6,9 × 6,incongruent,largerFirst,1,2,54,,,,,,,,
,,,,,,,,,,,,,,,808,2022-01-16_13h08.21.806,multiplicationStroop,2021.2.3,Win32,59.9880024,,,,,,,,,,,,,,,,,,,,,,,,,,,,,,,,,1,1.5491,0,0,16,16,16,1,9,×,2,9 × 2,incongruent,largerFirst,1,2,18,,,,,,,,
,,,,,,,,,,,,,,,808,2022-01-16_13h08.21.806,multiplicationStroop,2021.2.3,Win32,59.9880024,,,,,,,,,,,,,,,,,,,,,,,,,,,,,,,,,14,1.8493,1,0,17,17,18,1,7,×,2,7 × 2,incongruent,largerFirst,1,2,14,,,,,,,,
,,,,,,,,,,,,,,,808,2022-01-16_13h08.21.806,multiplicationStroop,2021.2.3,Win32,59.9880024,,,,,,,,,,,,,,,,,,,,,,,,,,,,,,,,,45,2.9495,1,0,18,18,8,1,5,×,9,5 × 9,incongruent,smallerFirst,2,1,45,,,,,,,,
,,,,,,,,,,,,,,,808,2022-01-16_13h08.21.806,multiplicationStroop,2021.2.3,Win32,59.9880024,,,,,,,,,,,,,,,,,,,,,,,,,,,,,,,,,36,2.5493,1,0,19,19,1,1,4,×,9,4 × 9,incongruent,smallerFirst,2,1,36,,,,,,,,
,,,,,,,,,,,,,,,808,2022-01-16_13h08.21.806,multiplicationStroop,2021.2.3,Win32,59.9880024,,,,,,,,,,,,,,,,,,,,,,,,,,,,,,,,,10,1.5329,1,0,20,20,7,1,2,×,5,2 × 5,incongruent,smallerFirst,2,1,10,,,,,,,,
,,,,,,,,,,,,,,,808,2022-01-16_13h08.21.806,multiplicationStroop,2021.2.3,Win32,59.9880024,,,,,,,,,,,,,,,,,,,,,,,,,,,,,,,,,30,1.799,1,0,21,21,11,1,5,×,6,5 × 6,incongruent,smallerFirst,2,1,30,,,,,,,,
,,,,,,,,,,,,,,,808,2022-01-16_13h08.21.806,multiplicationStroop,2021.2.3,Win32,59.9880024,,,,,,,,,,,,,,,,,,,,,,,,,,,,,,,,,15,1.6159,1,0,22,22,24,1,5,×,3,5 × 3,incongruent,largerFirst,1,2,15,,,,,,,,
,,,,,,,,,,,,,,,808,2022-01-16_13h08.21.806,multiplicationStroop,2021.2.3,Win32,59.9880024,,,,,,,,,,,,,,,,,,,,,,,,,,,,,,,,,36,2.0158,1,0,23,23,32,1,6,×,6,6 × 6,neutral,tie,2,1,36,,,,,,,,
,,,,,,,,,,,,,,,808,2022-01-16_13h08.21.806,multiplicationStroop,2021.2.3,Win32,59.9880024,,,,,,,,,,,,,,,,,,,,,,,,,,,,,,,,,9,1.9993,1,0,24,24,29,1,3,×,3,3 × 3,neutral,tie,2,1,9,,,,,,,,
,,,,,,,,,,,,,,,808,2022-01-16_13h08.21.806,multiplicationStroop,2021.2.3,Win32,59.9880024,,,,,,,,,,,,,,,,,,,,,,,,,,,,,,,,,16,1.7328,1,0,25,25,30,1,4,×,4,4 × 4,neutral,tie,2,1,16,,,,,,,,
,,,,,,,,,,,,,,,808,2022-01-16_13h08.21.806,multiplicationStroop,2021.2.3,Win32,59.9880024,,,,,,,,,,,,,,,,,,,,,,,,,,,,,,,,,12,1.2659,1,0,26,26,19,1,4,×,3,4 × 3,incongruent,largerFirst,1,2,12,,,,,,,,
,,,,,,,,,,,,,,,808,2022-01-16_13h08.21.806,multiplicationStroop,2021.2.3,Win32,59.9880024,,,,,,,,,,,,,,,,,,,,,,,,,,,,,,,,,25,1.7664,1,0,27,27,31,1,5,×,5,5 × 5,neutral,tie,2,1,25,,,,,,,,
,,,,,,,,,,,,,,,808,2022-01-16_13h08.21.806,multiplicationStroop,2021.2.3,Win32,59.9880024,,,,,,,,,,,,,,,,,,,,,,,,,,,,,,,,,81,2.5159,1,0,28,28,35,1,9,×,9,9 × 9,neutral,tie,2,1,81,,,,,,,,
,,,,,,,,,,,,,,,808,2022-01-16_13h08.21.806,multiplicationStroop,2021.2.3,Win32,59.9880024,,,,,,,,,,,,,,,,,,,,,,,,,,,,,,,,,32,2.3657,1,0,29,29,21,1,8,×,4,8 × 4,incongruent,largerFirst,1,2,32,,,,,,,,
,,,,,,,,,,,,,,,808,2022-01-16_13h08.21.806,multiplicationStroop,2021.2.3,Win32,59.9880024,,,,,,,,,,,,,,,,,,,,,,,,,,,,,,,,,35,1.8568,1,0,30,30,26,1,7,×,5,7 × 5,incongruent,largerFirst,1,2,35,,,,,,,,
,,,,,,,,,,,,,,,808,2022-01-16_13h08.21.806,multiplicationStroop,2021.2.3,Win32,59.9880024,,,,,,,,,,,,,,,,,,,,,,,,,,,,,,,,,6,1.5831,1,0,31,31,25,1,3,×,2,3 × 2,incongruent,largerFirst,1,2,6,,,,,,,,
,,,,,,,,,,,,,,,808,2022-01-16_13h08.21.806,multiplicationStroop,2021.2.3,Win32,59.9880024,,,,,,,,,,,,,,,,,,,,,,,,,,,,,,,,,16,1.7318,1,0,32,32,9,1,2,×,8,2 × 8,incongruent,smallerFirst,2,1,16,,,,,,,,
,,,,,,,,,,,,,,,808,2022-01-16_13h08.21.806,multiplicationStroop,2021.2.3,Win32,59.9880024,,,,,,,,,,,,,,,,,,,,,,,,,,,,,,,,,21,1.4318,1,0,33,33,12,1,3,×,7,3 × 7,incongruent,smallerFirst,2,1,21,,,,,,,,
,,,,,,,,,,,,,,,808,2022-01-16_13h08.21.806,multiplicationStroop,2021.2.3,Win32,59.9880024,,,,,,,,,,,,,,,,,,,,,,,,,,,,,,,,,4,1.3828,1,0,34,34,28,1,2,×,2,2 × 2,neutral,tie,2,1,4,,,,,,,,
,,,,,,,,,,,,,,,808,2022-01-16_13h08.21.806,multiplicationStroop,2021.2.3,Win32,59.9880024,,,,,,,,,,,,,,,,,,,,,,,,,,,,,,,,,27,1.9491,1,0,35,35,4,1,3,×,9,3 × 9,incongruent,smallerFirst,2,1,27,,,,,,,,
,,,,,,,,,,,,,,,808,2022-01-16_13h08.21.806,multiplicationStroop,2021.2.3,Win32,59.9880024,,,,,,,,,,,,,,,,,,,,,,,,,,,,,,,,,,,,,,,,,,,,,,,,,,0,0,0,4,1,stimulusFile/mult_blk5_INcongruent.xlsx,,
,,,,,,,,,,,,,,,808,2022-01-16_13h08.21.806,multiplicationStroop,2021.2.3,Win32,59.9880024,,,,,,,,,,,,,,,,,,,,,,,,,,,,,,,space,9.7796,42,3.4135,1,0,0,0,17,1,7,×,6,7 × 6,congruent,largerFirst,2,1,42,,,,,,,,
,,,,,,,,,,,,,,,808,2022-01-16_13h08.21.806,multiplicationStroop,2021.2.3,Win32,59.9880024,,,,,,,,,,,,,,,,,,,,,,,,,,,,,,,,,48,2.1168,1,0,1,1,4,1,6,×,8,6 × 8,congruent,smallerFirst,1,2,48,,,,,,,,
,,,,,,,,,,,,,,,808,2022-01-16_13h08.21.806,multiplicationStroop,2021.2.3,Win32,59.9880024,,,,,,,,,,,,,,,,,,,,,,,,,,,,,,,,,21,1.7489,1,0,2,2,2,1,3,×,7,3 × 7,congruent,smallerFirst,1,2,21,,,,,,,,
,,,,,,,,,,,,,,,808,2022-01-16_13h08.21.806,multiplicationStroop,2021.2.3,Win32,59.9880024,,,,,,,,,,,,,,,,,,,,,,,,,,,,,,,,,16,1.6993,1,0,3,3,30,1,4,×,4,4 × 4,neutral,tie,1,2,16,,,,,,,,
,,,,,,,,,,,,,,,808,2022-01-16_13h08.21.806,multiplicationStroop,2021.2.3,Win32,59.9880024,,,,,,,,,,,,,,,,,,,,,,,,,,,,,,,,,24,1.4662,1,0,4,4,24,1,8,×,3,8 × 3,congruent,largerFirst,2,1,24,,,,,,,,
,,,,,,,,,,,,,,,808,2022-01-16_13h08.21.806,multiplicationStroop,2021.2.3,Win32,59.9880024,,,,,,,,,,,,,,,,,,,,,,,,,,,,,,,,,20,1.5159,1,0,5,5,21,1,5,×,4,5 × 4,congruent,largerFirst,2,1,20,,,,,,,,
,,,,,,,,,,,,,,,808,2022-01-16_13h08.21.806,multiplicationStroop,2021.2.3,Win32,59.9880024,,,,,,,,,,,,,,,,,,,,,,,,,,,,,,,,,27,1.766,1,0,6,6,12,1,3,×,9,3 × 9,congruent,smallerFirst,1,2,27,,,,,,,,
,,,,,,,,,,,,,,,808,2022-01-16_13h08.21.806,multiplicationStroop,2021.2.3,Win32,59.9880024,,,,,,,,,,,,,,,,,,,,,,,,,,,,,,,,,10,1.5494,1,0,7,7,10,1,2,×,5,2 × 5,congruent,smallerFirst,1,2,10,,,,,,,,
,,,,,,,,,,,,,,,808,2022-01-16_13h08.21.806,multiplicationStroop,2021.2.3,Win32,59.9880024,,,,,,,,,,,,,,,,,,,,,,,,,,,,,,,,,25,1.6663,1,0,8,8,31,1,5,×,5,5 × 5,neutral,tie,1,2,25,,,,,,,,
,,,,,,,,,,,,,,,808,2022-01-16_13h08.21.806,multiplicationStroop,2021.2.3,Win32,59.9880024,,,,,,,,,,,,,,,,,,,,,,,,,,,,,,,,,12,1.6823,1,0,9,9,5,1,2,×,6,2 × 6,congruent,smallerFirst,1,2,12,,,,,,,,
,,,,,,,,,,,,,,,808,2022-01-16_13h08.21.806,multiplicationStroop,2021.2.3,Win32,59.9880024,,,,,,,,,,,,,,,,,,,,,,,,,,,,,,,,,72,2.3493,1,0,10,10,3,1,8,×,9,8 × 9,congruent,smallerFirst,1,2,72,,,,,,,,
,,,,,,,,,,,,,,,808,2022-01-16_13h08.21.806,multiplicationStroop,2021.2.3,Win32,59.9880024,,,,,,,,,,,,,,,,,,,,,,,,,,,,,,,,,54,1.9323,1,0,11,11,26,1,9,×,6,9 × 6,congruent,largerFirst,2,1,54,,,,,,,,
,,,,,,,,,,,,,,,808,2022-01-16_13h08.21.806,multiplicationStroop,2021.2.3,Win32,59.9880024,,,,,,,,,,,,,,,,,,,,,,,,,,,,,,,,,30,1.7494,1,0,12,12,1,1,5,×,6,5 × 6,congruent,smallerFirst,1,2,30,,,,,,,,
,,,,,,,,,,,,,,,808,2022-01-16_13h08.21.806,multiplicationStroop,2021.2.3,Win32,59.9880024,,,,,,,,,,,,,,,,,,,,,,,,,,,,,,,,,18,2.1164,1,0,13,13,25,1,6,×,3,6 × 3,congruent,largerFirst,2,1,18,,,,,,,,
,,,,,,,,,,,,,,,808,2022-01-16_13h08.21.806,multiplicationStroop,2021.2.3,Win32,59.9880024,,,,,,,,,,,,,,,,,,,,,,,,,,,,,,,,,28,2.282,1,0,14,14,13,1,4,×,7,4 × 7,congruent,smallerFirst,1,2,28,,,,,,,,
,,,,,,,,,,,,,,,808,2022-01-16_13h08.21.806,multiplicationStroop,2021.2.3,Win32,59.9880024,,,,,,,,,,,,,,,,,,,,,,,,,,,,,,,,,45,3.4992,1,0,15,15,9,1,5,×,9,5 × 9,congruent,smallerFirst,1,2,45,,,,,,,,
,,,,,,,,,,,,,,,808,2022-01-16_13h08.21.806,multiplicationStroop,2021.2.3,Win32,59.9880024,,,,,,,,,,,,,,,,,,,,,,,,,,,,,,,,,64,1.8737,1,0,16,16,34,1,8,×,8,8 × 8,neutral,tie,1,2,64,,,,,,,,
,,,,,,,,,,,,,,,808,2022-01-16_13h08.21.806,multiplicationStroop,2021.2.3,Win32,59.9880024,,,,,,,,,,,,,,,,,,,,,,,,,,,,,,,,,49,1.9158,1,0,17,17,33,1,7,×,7,7 × 7,neutral,tie,1,2,49,,,,,,,,
,,,,,,,,,,,,,,,808,2022-01-16_13h08.21.806,multiplicationStroop,2021.2.3,Win32,59.9880024,,,,,,,,,,,,,,,,,,,,,,,,,,,,,,,,,24,1.7153,1,0,18,18,11,1,4,×,6,4 × 6,congruent,smallerFirst,1,2,24,,,,,,,,
,,,,,,,,,,,,,,,808,2022-01-16_13h08.21.806,multiplicationStroop,2021.2.3,Win32,59.9880024,,,,,,,,,,,,,,,,,,,,,,,,,,,,,,,,,40,1.8162,1,0,19,19,20,1,8,×,5,8 × 5,congruent,largerFirst,2,1,40,,,,,,,,
,,,,,,,,,,,,,,,808,2022-01-16_13h08.21.806,multiplicationStroop,2021.2.3,Win32,59.9880024,,,,,,,,,,,,,,,,,,,,,,,,,,,,,,,,,16,2.4326,1,0,20,20,19,1,8,×,2,8 × 2,congruent,largerFirst,2,1,16,,,,,,,,
,,,,,,,,,,,,,,,808,2022-01-16_13h08.21.806,multiplicationStroop,2021.2.3,Win32,59.9880024,,,,,,,,,,,,,,,,,,,,,,,,,,,,,,,,,36,1.9397,1,0,21,21,32,1,6,×,6,6 × 6,neutral,tie,1,2,36,,,,,,,,
,,,,,,,,,,,,,,,808,2022-01-16_13h08.21.806,multiplicationStroop,2021.2.3,Win32,59.9880024,,,,,,,,,,,,,,,,,,,,,,,,,,,,,,,,,36,1.9323,1,0,22,22,14,1,9,×,4,9 × 4,congruent,largerFirst,2,1,36,,,,,,,,
,,,,,,,,,,,,,,,808,2022-01-16_13h08.21.806,multiplicationStroop,2021.2.3,Win32,59.9880024,,,,,,,,,,,,,,,,,,,,,,,,,,,,,,,,,15,1.6328,1,0,23,23,18,1,5,×,3,5 × 3,congruent,largerFirst,2,1,15,,,,,,,,
,,,,,,,,,,,,,,,808,2022-01-16_13h08.21.806,multiplicationStroop,2021.2.3,Win32,59.9880024,,,,,,,,,,,,,,,,,,,,,,,,,,,,,,,,,5,2.516,0,0,24,24,22,1,8,×,7,8 × 7,congruent,largerFirst,2,1,56,,,,,,,,
,,,,,,,,,,,,,,,808,2022-01-16_13h08.21.806,multiplicationStroop,2021.2.3,Win32,59.9880024,,,,,,,,,,,,,,,,,,,,,,,,,,,,,,,,,4,1.6723,1,0,25,25,28,1,2,×,2,2 × 2,neutral,tie,1,2,4,,,,,,,,
,,,,,,,,,,,,,,,808,2022-01-16_13h08.21.806,multiplicationStroop,2021.2.3,Win32,59.9880024,,,,,,,,,,,,,,,,,,,,,,,,,,,,,,,,,35,1.6995,1,0,26,26,15,1,7,×,5,7 × 5,congruent,largerFirst,2,1,35,,,,,,,,
,,,,,,,,,,,,,,,808,2022-01-16_13h08.21.806,multiplicationStroop,2021.2.3,Win32,59.9880024,,,,,,,,,,,,,,,,,,,,,,,,,,,,,,,,,9,1.5661,1,0,27,27,29,1,3,×,3,3 × 3,neutral,tie,1,2,9,,,,,,,,
,,,,,,,,,,,,,,,808,2022-01-16_13h08.21.806,multiplicationStroop,2021.2.3,Win32,59.9880024,,,,,,,,,,,,,,,,,,,,,,,,,,,,,,,,,8,1.5824,1,0,28,28,23,1,4,×,2,4 × 2,congruent,largerFirst,2,1,8,,,,,,,,
,,,,,,,,,,,,,,,808,2022-01-16_13h08.21.806,multiplicationStroop,2021.2.3,Win32,59.9880024,,,,,,,,,,,,,,,,,,,,,,,,,,,,,,,,,63,3.0159,1,0,29,29,7,1,7,×,9,7 × 9,congruent,smallerFirst,1,2,63,,,,,,,,
,,,,,,,,,,,,,,,808,2022-01-16_13h08.21.806,multiplicationStroop,2021.2.3,Win32,59.9880024,,,,,,,,,,,,,,,,,,,,,,,,,,,,,,,,,6,1.4665,1,0,30,30,27,1,3,×,2,3 × 2,congruent,largerFirst,2,1,6,,,,,,,,
,,,,,,,,,,,,,,,808,2022-01-16_13h08.21.806,multiplicationStroop,2021.2.3,Win32,59.9880024,,,,,,,,,,,,,,,,,,,,,,,,,,,,,,,,,32,2.1152,1,0,31,31,6,1,4,×,8,4 × 8,congruent,smallerFirst,1,2,32,,,,,,,,
,,,,,,,,,,,,,,,808,2022-01-16_13h08.21.806,multiplicationStroop,2021.2.3,Win32,59.9880024,,,,,,,,,,,,,,,,,,,,,,,,,,,,,,,,,12,1.3162,1,0,32,32,16,1,4,×,3,4 × 3,congruent,largerFirst,2,1,12,,,,,,,,
,,,,,,,,,,,,,,,808,2022-01-16_13h08.21.806,multiplicationStroop,2021.2.3,Win32,59.9880024,,,,,,,,,,,,,,,,,,,,,,,,,,,,,,,,,81,2.2657,1,0,33,33,35,1,9,×,9,9 × 9,neutral,tie,1,2,81,,,,,,,,
,,,,,,,,,,,,,,,808,2022-01-16_13h08.21.806,multiplicationStroop,2021.2.3,Win32,59.9880024,,,,,,,,,,,,,,,,,,,,,,,,,,,,,,,,,12,1.5329,0,0,34,34,8,1,2,×,9,2 × 9,congruent,smallerFirst,1,2,18,,,,,,,,
,,,,,,,,,,,,,,,808,2022-01-16_13h08.21.806,multiplicationStroop,2021.2.3,Win32,59.9880024,,,,,,,,,,,,,,,,,,,,,,,,,,,,,,,,,14,1.5992,1,0,35,35,0,1,2,×,7,2 × 7,congruent,smallerFirst,1,2,14,,,,,,,,
,,,,,,,,,,,,,,,808,2022-01-16_13h08.21.806,multiplicationStroop,2021.2.3,Win32,59.9880024,,,,,,,,,,,,,,,,,,,,,,,,,,,,,,,,,,,,,,,,,,,,,,,,,,0,1,1,3,1,stimulusFile/mult_blk4_congruent.xlsx,,
,,,,,,,,,,,,,,,808,2022-01-16_13h08.21.806,multiplicationStroop,2021.2.3,Win32,59.9880024,,,,,,,,,,,,,,,,,,,,,,,,,,,,,,,space,0.7659,40,1.9938,1,0,0,0,6,1,5,×,8,5 × 8,congruent,smallerFirst,1,2,40,,,,,,,,
,,,,,,,,,,,,,,,808,2022-01-16_13h08.21.806,multiplicationStroop,2021.2.3,Win32,59.9880024,,,,,,,,,,,,,,,,,,,,,,,,,,,,,,,,,8,1.4991,1,0,1,1,9,1,2,×,4,2 × 4,congruent,smallerFirst,1,2,8,,,,,,,,
,,,,,,,,,,,,,,,808,2022-01-16_13h08.21.806,multiplicationStroop,2021.2.3,Win32,59.9880024,,,,,,,,,,,,,,,,,,,,,,,,,,,,,,,,,27,1.9161,1,0,2,2,26,1,9,×,3,9 × 3,congruent,largerFirst,2,1,27,,,,,,,,
,,,,,,,,,,,,,,,808,2022-01-16_13h08.21.806,multiplicationStroop,2021.2.3,Win32,59.9880024,,,,,,,,,,,,,,,,,,,,,,,,,,,,,,,,,16,1.7664,1,0,3,3,5,1,2,×,8,2 × 8,congruent,smallerFirst,1,2,16,,,,,,,,
,,,,,,,,,,,,,,,808,2022-01-16_13h08.21.806,multiplicationStroop,2021.2.3,Win32,59.9880024,,,,,,,,,,,,,,,,,,,,,,,,,,,,,,,,,24,2.0492,1,0,4,4,25,1,6,×,4,6 × 4,congruent,largerFirst,2,1,24,,,,,,,,
,,,,,,,,,,,,,,,808,2022-01-16_13h08.21.806,multiplicationStroop,2021.2.3,Win32,59.9880024,,,,,,,,,,,,,,,,,,,,,,,,,,,,,,,,,63,2.4999,1,0,5,5,21,1,9,×,7,9 × 7,congruent,largerFirst,2,1,63,,,,,,,,
,,,,,,,,,,,,,,,808,2022-01-16_13h08.21.806,multiplicationStroop,2021.2.3,Win32,59.9880024,,,,,,,,,,,,,,,,,,,,,,,,,,,,,,,,,48,3.6315,1,0,6,6,18,1,8,×,6,8 × 6,congruent,largerFirst,2,1,48,,,,,,,,
,,,,,,,,,,,,,,,808,2022-01-16_13h08.21.806,multiplicationStroop,2021.2.3,Win32,59.9880024,,,,,,,,,,,,,,,,,,,,,,,,,,,,,,,,,14,1.49,1,0,7,7,14,1,7,×,2,7 × 2,congruent,largerFirst,2,1,14,,,,,,,,
,,,,,,,,,,,,,,,808,2022-01-16_13h08.21.806,multiplicationStroop,2021.2.3,Win32,59.9880024,,,,,,,,,,,,,,,,,,,,,,,,,,,,,,,,,4,1.3658,1,0,8,8,28,1,2,×,2,2 × 2,neutral,tie,2,1,4,,,,,,,,
,,,,,,,,,,,,,,,808,2022-01-16_13h08.21.806,multiplicationStroop,2021.2.3,Win32,59.9880024,,,,,,,,,,,,,,,,,,,,,,,,,,,,,,,,,12,1.283,1,0,9,9,2,1,3,×,4,3 × 4,congruent,smallerFirst,1,2,12,,,,,,,,
,,,,,,,,,,,,,,,808,2022-01-16_13h08.21.806,multiplicationStroop,2021.2.3,Win32,59.9880024,,,,,,,,,,,,,,,,,,,,,,,,,,,,,,,,,45,1.9323,1,0,10,10,23,1,9,×,5,9 × 5,congruent,largerFirst,2,1,45,,,,,,,,
,,,,,,,,,,,,,,,808,2022-01-16_13h08.21.806,multiplicationStroop,2021.2.3,Win32,59.9880024,,,,,,,,,,,,,,,,,,,,,,,,,,,,,,,,,6,1.5662,1,0,11,11,13,1,2,×,3,2 × 3,congruent,smallerFirst,1,2,6,,,,,,,,
,,,,,,,,,,,,,,,808,2022-01-16_13h08.21.806,multiplicationStroop,2021.2.3,Win32,59.9880024,,,,,,,,,,,,,,,,,,,,,,,,,,,,,,,,,21,1.4494,1,0,12,12,16,1,7,×,3,7 × 3,congruent,largerFirst,2,1,21,,,,,,,,
,,,,,,,,,,,,,,,808,2022-01-16_13h08.21.806,multiplicationStroop,2021.2.3,Win32,59.9880024,,,,,,,,,,,,,,,,,,,,,,,,,,,,,,,,,36,1.9823,1,0,13,13,0,1,4,×,9,4 × 9,congruent,smallerFirst,1,2,36,,,,,,,,
,,,,,,,,,,,,,,,808,2022-01-16_13h08.21.806,multiplicationStroop,2021.2.3,Win32,59.9880024,,,,,,,,,,,,,,,,,,,,,,,,,,,,,,,,,18,1.8328,1,0,14,14,11,1,3,×,6,3 × 6,congruent,smallerFirst,1,2,18,,,,,,,,
,,,,,,,,,,,,,,,808,2022-01-16_13h08.21.806,multiplicationStroop,2021.2.3,Win32,59.9880024,,,,,,,,,,,,,,,,,,,,,,,,,,,,,,,,,24,1.616,1,0,15,15,10,1,3,×,8,3 × 8,congruent,smallerFirst,1,2,24,,,,,,,,
,,,,,,,,,,,,,,,808,2022-01-16_13h08.21.806,multiplicationStroop,2021.2.3,Win32,59.9880024,,,,,,,,,,,,,,,,,,,,,,,,,,,,,,,,,56,2.1496,1,0,16,16,8,1,7,×,8,7 × 8,congruent,smallerFirst,1,2,56,,,,,,,,
,,,,,,,,,,,,,,,808,2022-01-16_13h08.21.806,multiplicationStroop,2021.2.3,Win32,59.9880024,,,,,,,,,,,,,,,,,,,,,,,,,,,,,,,,,25,1.9161,1,0,17,17,31,1,5,×,5,5 × 5,neutral,tie,2,1,25,,,,,,,,
,,,,,,,,,,,,,,,808,2022-01-16_13h08.21.806,multiplicationStroop,2021.2.3,Win32,59.9880024,,,,,,,,,,,,,,,,,,,,,,,,,,,,,,,,,42,4.4486,1,0,18,18,3,1,6,×,7,6 × 7,congruent,smallerFirst,1,2,42,,,,,,,,
,,,,,,,,,,,,,,,808,2022-01-16_13h08.21.806,multiplicationStroop,2021.2.3,Win32,59.9880024,,,,,,,,,,,,,,,,,,,,,,,,,,,,,,,,,49,2.2069,1,0,19,19,33,1,7,×,7,7 × 7,neutral,tie,2,1,49,,,,,,,,
,,,,,,,,,,,,,,,808,2022-01-16_13h08.21.806,multiplicationStroop,2021.2.3,Win32,59.9880024,,,,,,,,,,,,,,,,,,,,,,,,,,,,,,,,,10,1.4998,1,0,20,20,24,1,5,×,2,5 × 2,congruent,largerFirst,2,1,10,,,,,,,,
,,,,,,,,,,,,,,,808,2022-01-16_13h08.21.806,multiplicationStroop,2021.2.3,Win32,59.9880024,,,,,,,,,,,,,,,,,,,,,,,,,,,,,,,,,28,2.1985,1,0,21,21,27,1,7,×,4,7 × 4,congruent,largerFirst,2,1,28,,,,,,,,
,,,,,,,,,,,,,,,808,2022-01-16_13h08.21.806,multiplicationStroop,2021.2.3,Win32,59.9880024,,,,,,,,,,,,,,,,,,,,,,,,,,,,,,,,,36,1.6993,1,0,22,22,32,1,6,×,6,6 × 6,neutral,tie,2,1,36,,,,,,,,
,,,,,,,,,,,,,,,808,2022-01-16_13h08.21.806,multiplicationStroop,2021.2.3,Win32,59.9880024,,,,,,,,,,,,,,,,,,,,,,,,,,,,,,,,,45,1.8826,0,0,23,23,12,1,6,×,9,6 × 9,congruent,smallerFirst,1,2,54,,,,,,,,
,,,,,,,,,,,,,,,808,2022-01-16_13h08.21.806,multiplicationStroop,2021.2.3,Win32,59.9880024,,,,,,,,,,,,,,,,,,,,,,,,,,,,,,,,,32,2.6994,1,0,24,24,20,1,8,×,4,8 × 4,congruent,largerFirst,2,1,32,,,,,,,,
,,,,,,,,,,,,,,,808,2022-01-16_13h08.21.806,multiplicationStroop,2021.2.3,Win32,59.9880024,,,,,,,,,,,,,,,,,,,,,,,,,,,,,,,,,30,1.799,1,0,25,25,15,1,6,×,5,6 × 5,congruent,largerFirst,2,1,30,,,,,,,,
,,,,,,,,,,,,,,,808,2022-01-16_13h08.21.806,multiplicationStroop,2021.2.3,Win32,59.9880024,,,,,,,,,,,,,,,,,,,,,,,,,,,,,,,,,20,2.333,1,0,26,26,7,1,4,×,5,4 × 5,congruent,smallerFirst,1,2,20,,,,,,,,
,,,,,,,,,,,,,,,808,2022-01-16_13h08.21.806,multiplicationStroop,2021.2.3,Win32,59.9880024,,,,,,,,,,,,,,,,,,,,,,,,,,,,,,,,,9,1.5996,1,0,27,27,29,1,3,×,3,3 × 3,neutral,tie,2,1,9,,,,,,,,
,,,,,,,,,,,,,,,808,2022-01-16_13h08.21.806,multiplicationStroop,2021.2.3,Win32,59.9880024,,,,,,,,,,,,,,,,,,,,,,,,,,,,,,,,,72,2.3156,1,0,28,28,17,1,9,×,8,9 × 8,congruent,largerFirst,2,1,72,,,,,,,,
,,,,,,,,,,,,,,,808,2022-01-16_13h08.21.806,multiplicationStroop,2021.2.3,Win32,59.9880024,,,,,,,,,,,,,,,,,,,,,,,,,,,,,,,,,12,1.1659,1,0,29,29,19,1,6,×,2,6 × 2,congruent,largerFirst,2,1,12,,,,,,,,
,,,,,,,,,,,,,,,808,2022-01-16_13h08.21.806,multiplicationStroop,2021.2.3,Win32,59.9880024,,,,,,,,,,,,,,,,,,,,,,,,,,,,,,,,,16,1.5494,1,0,30,30,30,1,4,×,4,4 × 4,neutral,tie,2,1,16,,,,,,,,
,,,,,,,,,,,,,,,808,2022-01-16_13h08.21.806,multiplicationStroop,2021.2.3,Win32,59.9880024,,,,,,,,,,,,,,,,,,,,,,,,,,,,,,,,,81,1.8494,1,0,31,31,35,1,9,×,9,9 × 9,neutral,tie,2,1,81,,,,,,,,
,,,,,,,,,,,,,,,808,2022-01-16_13h08.21.806,multiplicationStroop,2021.2.3,Win32,59.9880024,,,,,,,,,,,,,,,,,,,,,,,,,,,,,,,,,35,2.216,1,0,32,32,1,1,5,×,7,5 × 7,congruent,smallerFirst,1,2,35,,,,,,,,
,,,,,,,,,,,,,,,808,2022-01-16_13h08.21.806,multiplicationStroop,2021.2.3,Win32,59.9880024,,,,,,,,,,,,,,,,,,,,,,,,,,,,,,,,,15,1.6329,1,0,33,33,4,1,3,×,5,3 × 5,congruent,smallerFirst,1,2,15,,,,,,,,
,,,,,,,,,,,,,,,808,2022-01-16_13h08.21.806,multiplicationStroop,2021.2.3,Win32,59.9880024,,,,,,,,,,,,,,,,,,,,,,,,,,,,,,,,,64,1.9996,1,0,34,34,34,1,8,×,8,8 × 8,neutral,tie,2,1,64,,,,,,,,
,,,,,,,,,,,,,,,808,2022-01-16_13h08.21.806,multiplicationStroop,2021.2.3,Win32,59.9880024,,,,,,,,,,,,,,,,,,,,,,,,,,,,,,,,,18,1.583,1,0,35,35,22,1,9,×,2,9 × 2,congruent,largerFirst,2,1,18,,,,,,,,
,,,,,,,,,,,,,,,808,2022-01-16_13h08.21.806,multiplicationStroop,2021.2.3,Win32,59.9880024,,,,,,,,,,,,,,,,,,,,,,,,,,,,,,,,,,,,,,,,,,,,,,,,,,0,2,2,2,1,stimulusFile/mult_blk3_congruent.xlsx,,
,,,,,,,,,,,,,,,808,2022-01-16_13h08.21.806,multiplicationStroop,2021.2.3,Win32,59.9880024,,,,,,,,,,,,,,,,,,,,,,,,,,,,,,,space,0.834,64,1.9684,1,0,0,0,34,1,8,×,8,8 × 8,neutral,tie,1.5,1.5,64,,,,,,,,
,,,,,,,,,,,,,,,808,2022-01-16_13h08.21.806,multiplicationStroop,2021.2.3,Win32,59.9880024,,,,,,,,,,,,,,,,,,,,,,,,,,,,,,,,,18,1.5995,1,0,1,1,4,1,2,×,9,2 × 9,neutral,smallerFirst,1.5,1.5,18,,,,,,,,
,,,,,,,,,,,,,,,808,2022-01-16_13h08.21.806,multiplicationStroop,2021.2.3,Win32,59.9880024,,,,,,,,,,,,,,,,,,,,,,,,,,,,,,,,,14,1.7324,1,0,2,2,2,1,2,×,7,2 × 7,neutral,smallerFirst,1.5,1.5,14,,,,,,,,
,,,,,,,,,,,,,,,808,2022-01-16_13h08.21.806,multiplicationStroop,2021.2.3,Win32,59.9880024,,,,,,,,,,,,,,,,,,,,,,,,,,,,,,,,,9,1.5491,1,0,3,3,29,1,3,×,3,3 × 3,neutral,tie,1.5,1.5,9,,,,,,,,
,,,,,,,,,,,,,,,808,2022-01-16_13h08.21.806,multiplicationStroop,2021.2.3,Win32,59.9880024,,,,,,,,,,,,,,,,,,,,,,,,,,,,,,,,,42,2.6329,1,0,4,4,20,1,7,×,6,7 × 6,neutral,largerFirst,1.5,1.5,42,,,,,,,,
,,,,,,,,,,,,,,,808,2022-01-16_13h08.21.806,multiplicationStroop,2021.2.3,Win32,59.9880024,,,,,,,,,,,,,,,,,,,,,,,,,,,,,,,,,36,2.0494,1,0,5,5,32,1,6,×,6,6 × 6,neutral,tie,1.5,1.5,36,,,,,,,,
,,,,,,,,,,,,,,,808,2022-01-16_13h08.21.806,multiplicationStroop,2021.2.3,Win32,59.9880024,,,,,,,,,,,,,,,,,,,,,,,,,,,,,,,,,10,1.5161,1,0,6,6,18,1,5,×,2,5 × 2,neutral,largerFirst,1.5,1.5,10,,,,,,,,
,,,,,,,,,,,,,,,808,2022-01-16_13h08.21.806,multiplicationStroop,2021.2.3,Win32,59.9880024,,,,,,,,,,,,,,,,,,,,,,,,,,,,,,,,,16,1.6156,1,0,7,7,27,1,8,×,2,8 × 2,neutral,largerFirst,1.5,1.5,16,,,,,,,,
,,,,,,,,,,,,,,,808,2022-01-16_13h08.21.806,multiplicationStroop,2021.2.3,Win32,59.9880024,,,,,,,,,,,,,,,,,,,,,,,,,,,,,,,,,81,1.9992,1,0,8,8,35,1,9,×,9,9 × 9,neutral,tie,1.5,1.5,81,,,,,,,,
,,,,,,,,,,,,,,,808,2022-01-16_13h08.21.806,multiplicationStroop,2021.2.3,Win32,59.9880024,,,,,,,,,,,,,,,,,,,,,,,,,,,,,,,,,40,1.8993,1,0,9,9,10,1,5,×,8,5 × 8,neutral,smallerFirst,1.5,1.5,40,,,,,,,,
,,,,,,,,,,,,,,,808,2022-01-16_13h08.21.806,multiplicationStroop,2021.2.3,Win32,59.9880024,,,,,,,,,,,,,,,,,,,,,,,,,,,,,,,,,25,2.0826,1,0,10,10,31,1,5,×,5,5 × 5,neutral,tie,1.5,1.5,25,,,,,,,,
,,,,,,,,,,,,,,,808,2022-01-16_13h08.21.806,multiplicationStroop,2021.2.3,Win32,59.9880024,,,,,,,,,,,,,,,,,,,,,,,,,,,,,,,,,35,1.7163,1,0,11,11,15,1,7,×,5,7 × 5,neutral,largerFirst,1.5,1.5,35,,,,,,,,
,,,,,,,,,,,,,,,808,2022-01-16_13h08.21.806,multiplicationStroop,2021.2.3,Win32,59.9880024,,,,,,,,,,,,,,,,,,,,,,,,,,,,,,,,,63,2.3831,1,0,12,12,26,1,9,×,7,9 × 7,neutral,largerFirst,1.5,1.5,63,,,,,,,,
,,,,,,,,,,,,,,,808,2022-01-16_13h08.21.806,multiplicationStroop,2021.2.3,Win32,59.9880024,,,,,,,,,,,,,,,,,,,,,,,,,,,,,,,,,15,1.6655,1,0,13,13,19,1,5,×,3,5 × 3,neutral,largerFirst,1.5,1.5,15,,,,,,,,
,,,,,,,,,,,,,,,808,2022-01-16_13h08.21.806,multiplicationStroop,2021.2.3,Win32,59.9880024,,,,,,,,,,,,,,,,,,,,,,,,,,,,,,,,,30,1.5827,1,0,14,14,5,1,5,×,6,5 × 6,neutral,smallerFirst,1.5,1.5,30,,,,,,,,
,,,,,,,,,,,,,,,808,2022-01-16_13h08.21.806,multiplicationStroop,2021.2.3,Win32,59.9880024,,,,,,,,,,,,,,,,,,,,,,,,,,,,,,,,,72,2.0157,1,0,15,15,25,1,9,×,8,9 × 8,neutral,largerFirst,1.5,1.5,72,,,,,,,,
,,,,,,,,,,,,,,,808,2022-01-16_13h08.21.806,multiplicationStroop,2021.2.3,Win32,59.9880024,,,,,,,,,,,,,,,,,,,,,,,,,,,,,,,,,20,1.6497,1,0,16,16,6,1,4,×,5,4 × 5,neutral,smallerFirst,1.5,1.5,20,,,,,,,,
,,,,,,,,,,,,,,,808,2022-01-16_13h08.21.806,multiplicationStroop,2021.2.3,Win32,59.9880024,,,,,,,,,,,,,,,,,,,,,,,,,,,,,,,,,8,1.466,1,0,17,17,17,1,4,×,2,4 × 2,neutral,largerFirst,1.5,1.5,8,,,,,,,,
,,,,,,,,,,,,,,,808,2022-01-16_13h08.21.806,multiplicationStroop,2021.2.3,Win32,59.9880024,,,,,,,,,,,,,,,,,,,,,,,,,,,,,,,,,27,1.9327,1,0,18,18,0,1,3,×,9,3 × 9,neutral,smallerFirst,1.5,1.5,27,,,,,,,,
,,,,,,,,,,,,,,,808,2022-01-16_13h08.21.806,multiplicationStroop,2021.2.3,Win32,59.9880024,,,,,,,,,,,,,,,,,,,,,,,,,,,,,,,,,4,1.3493,1,0,19,19,28,1,2,×,2,2 × 2,neutral,tie,1.5,1.5,4,,,,,,,,
,,,,,,,,,,,,,,,808,2022-01-16_13h08.21.806,multiplicationStroop,2021.2.3,Win32,59.9880024,,,,,,,,,,,,,,,,,,,,,,,,,,,,,,,,,18,2.1663,1,0,20,20,14,1,6,×,3,6 × 3,neutral,largerFirst,1.5,1.5,18,,,,,,,,
,,,,,,,,,,,,,,,808,2022-01-16_13h08.21.806,multiplicationStroop,2021.2.3,Win32,59.9880024,,,,,,,,,,,,,,,,,,,,,,,,,,,,,,,,,54,1.9163,1,0,21,21,21,1,9,×,6,9 × 6,neutral,largerFirst,1.5,1.5,54,,,,,,,,
,,,,,,,,,,,,,,,808,2022-01-16_13h08.21.806,multiplicationStroop,2021.2.3,Win32,59.9880024,,,,,,,,,,,,,,,,,,,,,,,,,,,,,,,,,49,1.8657,1,0,22,22,33,1,7,×,7,7 × 7,neutral,tie,1.5,1.5,49,,,,,,,,
,,,,,,,,,,,,,,,808,2022-01-16_13h08.21.806,multiplicationStroop,2021.2.3,Win32,59.9880024,,,,,,,,,,,,,,,,,,,,,,,,,,,,,,,,,12,1.5161,1,0,23,23,11,1,2,×,6,2 × 6,neutral,smallerFirst,1.5,1.5,12,,,,,,,,
,,,,,,,,,,,,,,,808,2022-01-16_13h08.21.806,multiplicationStroop,2021.2.3,Win32,59.9880024,,,,,,,,,,,,,,,,,,,,,,,,,,,,,,,,,56,2.0827,1,0,24,24,23,1,8,×,7,8 × 7,neutral,largerFirst,1.5,1.5,56,,,,,,,,
,,,,,,,,,,,,,,,808,2022-01-16_13h08.21.806,multiplicationStroop,2021.2.3,Win32,59.9880024,,,,,,,,,,,,,,,,,,,,,,,,,,,,,,,,,24,1.7993,1,0,25,25,16,1,6,×,4,6 × 4,neutral,largerFirst,1.5,1.5,24,,,,,,,,
,,,,,,,,,,,,,,,808,2022-01-16_13h08.21.806,multiplicationStroop,2021.2.3,Win32,59.9880024,,,,,,,,,,,,,,,,,,,,,,,,,,,,,,,,,16,1.749,1,0,26,26,30,1,4,×,4,4 × 4,neutral,tie,1.5,1.5,16,,,,,,,,
,,,,,,,,,,,,,,,808,2022-01-16_13h08.21.806,multiplicationStroop,2021.2.3,Win32,59.9880024,,,,,,,,,,,,,,,,,,,,,,,,,,,,,,,,,36,2.366,1,0,27,27,13,1,4,×,9,4 × 9,neutral,smallerFirst,1.5,1.5,36,,,,,,,,
,,,,,,,,,,,,,,,808,2022-01-16_13h08.21.806,multiplicationStroop,2021.2.3,Win32,59.9880024,,,,,,,,,,,,,,,,,,,,,,,,,,,,,,,,,21,1.4395,1,0,28,28,22,1,7,×,3,7 × 3,neutral,largerFirst,1.5,1.5,21,,,,,,,,
,,,,,,,,,,,,,,,808,2022-01-16_13h08.21.806,multiplicationStroop,2021.2.3,Win32,59.9880024,,,,,,,,,,,,,,,,,,,,,,,,,,,,,,,,,45,1.6162,1,0,29,29,24,1,9,×,5,9 × 5,neutral,largerFirst,1.5,1.5,45,,,,,,,,
,,,,,,,,,,,,,,,808,2022-01-16_13h08.21.806,multiplicationStroop,2021.2.3,Win32,59.9880024,,,,,,,,,,,,,,,,,,,,,,,,,,,,,,,,,28,1.9161,1,0,30,30,3,1,4,×,7,4 × 7,neutral,smallerFirst,1.5,1.5,28,,,,,,,,
,,,,,,,,,,,,,,,808,2022-01-16_13h08.21.806,multiplicationStroop,2021.2.3,Win32,59.9880024,,,,,,,,,,,,,,,,,,,,,,,,,,,,,,,,,32,1.5659,1,0,31,31,9,1,4,×,8,4 × 8,neutral,smallerFirst,1.5,1.5,32,,,,,,,,
,,,,,,,,,,,,,,,808,2022-01-16_13h08.21.806,multiplicationStroop,2021.2.3,Win32,59.9880024,,,,,,,,,,,,,,,,,,,,,,,,,,,,,,,,,6,1.5327,1,0,32,32,12,1,2,×,3,2 × 3,neutral,smallerFirst,1.5,1.5,6,,,,,,,,
,,,,,,,,,,,,,,,808,2022-01-16_13h08.21.806,multiplicationStroop,2021.2.3,Win32,59.9880024,,,,,,,,,,,,,,,,,,,,,,,,,,,,,,,,,48,3.2659,1,0,33,33,1,1,6,×,8,6 × 8,neutral,smallerFirst,1.5,1.5,48,,,,,,,,
,,,,,,,,,,,,,,,808,2022-01-16_13h08.21.806,multiplicationStroop,2021.2.3,Win32,59.9880024,,,,,,,,,,,,,,,,,,,,,,,,,,,,,,,,,12,1.2156,1,0,34,34,7,1,3,×,4,3 × 4,neutral,smallerFirst,1.5,1.5,12,,,,,,,,
,,,,,,,,,,,,,,,808,2022-01-16_13h08.21.806,multiplicationStroop,2021.2.3,Win32,59.9880024,,,,,,,,,,,,,,,,,,,,,,,,,,,,,,,,,24,1.4497,1,0,35,35,8,1,3,×,8,3 × 8,neutral,smallerFirst,1.5,1.5,24,,,,,,,,
,,,,,,,,,,,,,,,808,2022-01-16_13h08.21.806,multiplicationStroop,2021.2.3,Win32,59.9880024,,,,,,,,,,,,,,,,,,,,,,,,,,,,,,,,,,,,,,,,,,,,,,,,,,0,3,3,0,1,stimulusFile/mult_blk1.xlsx,,
,,,,,,,,,,,,,,,808,2022-01-16_13h08.21.806,multiplicationStroop,2021.2.3,Win32,59.9880024,,,,,,,,,,,,,,,,,,,,,,,,,,,,,,,space,45.6428,56,2.2122,1,0,0,0,9,1,7,×,8,7 × 8,neutral,smallerFirst,1.5,1.5,56,,,,,,,,
,,,,,,,,,,,,,,,808,2022-01-16_13h08.21.806,multiplicationStroop,2021.2.3,Win32,59.9880024,,,,,,,,,,,,,,,,,,,,,,,,,,,,,,,,,42,2.0153,1,0,1,1,6,1,6,×,7,6 × 7,neutral,smallerFirst,1.5,1.5,42,,,,,,,,
,,,,,,,,,,,,,,,808,2022-01-16_13h08.21.806,multiplicationStroop,2021.2.3,Win32,59.9880024,,,,,,,,,,,,,,,,,,,,,,,,,,,,,,,,,27,2.6999,1,0,2,2,14,1,9,×,3,9 × 3,neutral,largerFirst,1.5,1.5,27,,,,,,,,
,,,,,,,,,,,,,,,808,2022-01-16_13h08.21.806,multiplicationStroop,2021.2.3,Win32,59.9880024,,,,,,,,,,,,,,,,,,,,,,,,,,,,,,,,,54,1.5987,1,0,3,3,7,1,6,×,9,6 × 9,neutral,smallerFirst,1.5,1.5,54,,,,,,,,
,,,,,,,,,,,,,,,808,2022-01-16_13h08.21.806,multiplicationStroop,2021.2.3,Win32,59.9880024,,,,,,,,,,,,,,,,,,,,,,,,,,,,,,,,,18,2.3155,1,0,4,4,0,1,3,×,6,3 × 6,neutral,smallerFirst,1.5,1.5,18,,,,,,,,
,,,,,,,,,,,,,,,808,2022-01-16_13h08.21.806,multiplicationStroop,2021.2.3,Win32,59.9880024,,,,,,,,,,,,,,,,,,,,,,,,,,,,,,,,,28,1.9996,1,0,5,5,17,1,7,×,4,7 × 4,neutral,largerFirst,1.5,1.5,28,,,,,,,,
,,,,,,,,,,,,,,,808,2022-01-16_13h08.21.806,multiplicationStroop,2021.2.3,Win32,59.9880024,,,,,,,,,,,,,,,,,,,,,,,,,,,,,,,,,24,1.7332,1,0,6,6,2,1,4,×,6,4 × 6,neutral,smallerFirst,1.5,1.5,24,,,,,,,,
,,,,,,,,,,,,,,,808,2022-01-16_13h08.21.806,multiplicationStroop,2021.2.3,Win32,59.9880024,,,,,,,,,,,,,,,,,,,,,,,,,,,,,,,,,36,1.7987,1,0,7,7,32,1,6,×,6,6 × 6,neutral,tie,1.5,1.5,36,,,,,,,,
,,,,,,,,,,,,,,,808,2022-01-16_13h08.21.806,multiplicationStroop,2021.2.3,Win32,59.9880024,,,,,,,,,,,,,,,,,,,,,,,,,,,,,,,,,63,2.4663,1,0,8,8,12,1,7,×,9,7 × 9,neutral,smallerFirst,1.5,1.5,63,,,,,,,,
,,,,,,,,,,,,,,,808,2022-01-16_13h08.21.806,multiplicationStroop,2021.2.3,Win32,59.9880024,,,,,,,,,,,,,,,,,,,,,,,,,,,,,,,,,49,2.4821,1,0,9,9,33,1,7,×,7,7 × 7,neutral,tie,1.5,1.5,49,,,,,,,,
,,,,,,,,,,,,,,,808,2022-01-16_13h08.21.806,multiplicationStroop,2021.2.3,Win32,59.9880024,,,,,,,,,,,,,,,,,,,,,,,,,,,,,,,,,21,1.316,1,0,10,10,8,1,3,×,7,3 × 7,neutral,smallerFirst,1.5,1.5,21,,,,,,,,
,,,,,,,,,,,,,,,808,2022-01-16_13h08.21.806,multiplicationStroop,2021.2.3,Win32,59.9880024,,,,,,,,,,,,,,,,,,,,,,,,,,,,,,,,,81,2.0164,1,0,11,11,35,1,9,×,9,9 × 9,neutral,tie,1.5,1.5,81,,,,,,,,
,,,,,,,,,,,,,,,808,2022-01-16_13h08.21.806,multiplicationStroop,2021.2.3,Win32,59.9880024,,,,,,,,,,,,,,,,,,,,,,,,,,,,,,,,,32,1.8158,1,0,12,12,23,1,8,×,4,8 × 4,neutral,largerFirst,1.5,1.5,32,,,,,,,,
,,,,,,,,,,,,,,,808,2022-01-16_13h08.21.806,multiplicationStroop,2021.2.3,Win32,59.9880024,,,,,,,,,,,,,,,,,,,,,,,,,,,,,,,,,16,1.6661,1,0,13,13,30,1,4,×,4,4 × 4,neutral,tie,1.5,1.5,16,,,,,,,,
,,,,,,,,,,,,,,,808,2022-01-16_13h08.21.806,multiplicationStroop,2021.2.3,Win32,59.9880024,,,,,,,,,,,,,,,,,,,,,,,,,,,,,,,,,25,1.5993,1,0,14,14,31,1,5,×,5,5 × 5,neutral,tie,1.5,1.5,25,,,,,,,,
,,,,,,,,,,,,,,,808,2022-01-16_13h08.21.806,multiplicationStroop,2021.2.3,Win32,59.9880024,,,,,,,,,,,,,,,,,,,,,,,,,,,,,,,,,40,1.666,1,0,15,15,24,1,8,×,5,8 × 5,neutral,largerFirst,1.5,1.5,40,,,,,,,,
,,,,,,,,,,,,,,,808,2022-01-16_13h08.21.806,multiplicationStroop,2021.2.3,Win32,59.9880024,,,,,,,,,,,,,,,,,,,,,,,,,,,,,,,,,35,1.5992,1,0,16,16,1,1,5,×,7,5 × 7,neutral,smallerFirst,1.5,1.5,35,,,,,,,,
,,,,,,,,,,,,,,,808,2022-01-16_13h08.21.806,multiplicationStroop,2021.2.3,Win32,59.9880024,,,,,,,,,,,,,,,,,,,,,,,,,,,,,,,,,10,1.4669,1,0,17,17,4,1,2,×,5,2 × 5,neutral,smallerFirst,1.5,1.5,10,,,,,,,,
,,,,,,,,,,,,,,,808,2022-01-16_13h08.21.806,multiplicationStroop,2021.2.3,Win32,59.9880024,,,,,,,,,,,,,,,,,,,,,,,,,,,,,,,,,16,1.6484,1,0,18,18,13,1,2,×,8,2 × 8,neutral,smallerFirst,1.5,1.5,16,,,,,,,,
,,,,,,,,,,,,,,,808,2022-01-16_13h08.21.806,multiplicationStroop,2021.2.3,Win32,59.9880024,,,,,,,,,,,,,,,,,,,,,,,,,,,,,,,,,12,1.1666,1,0,19,19,21,1,4,×,3,4 × 3,neutral,largerFirst,1.5,1.5,12,,,,,,,,
,,,,,,,,,,,,,,,808,2022-01-16_13h08.21.806,multiplicationStroop,2021.2.3,Win32,59.9880024,,,,,,,,,,,,,,,,,,,,,,,,,,,,,,,,,20,1.6156,1,0,20,20,20,1,5,×,4,5 × 4,neutral,largerFirst,1.5,1.5,20,,,,,,,,
,,,,,,,,,,,,,,,808,2022-01-16_13h08.21.806,multiplicationStroop,2021.2.3,Win32,59.9880024,,,,,,,,,,,,,,,,,,,,,,,,,,,,,,,,,15,1.5493,1,0,21,21,5,1,3,×,5,3 × 5,neutral,smallerFirst,1.5,1.5,15,,,,,,,,
,,,,,,,,,,,,,,,808,2022-01-16_13h08.21.806,multiplicationStroop,2021.2.3,Win32,59.9880024,,,,,,,,,,,,,,,,,,,,,,,,,,,,,,,,,14,1.5337,1,0,22,22,16,1,7,×,2,7 × 2,neutral,largerFirst,1.5,1.5,14,,,,,,,,
,,,,,,,,,,,,,,,808,2022-01-16_13h08.21.806,multiplicationStroop,2021.2.3,Win32,59.9880024,,,,,,,,,,,,,,,,,,,,,,,,,,,,,,,,,24,2.282,1,0,23,23,22,1,8,×,3,8 × 3,neutral,largerFirst,1.5,1.5,24,,,,,,,,
,,,,,,,,,,,,,,,808,2022-01-16_13h08.21.806,multiplicationStroop,2021.2.3,Win32,59.9880024,,,,,,,,,,,,,,,,,,,,,,,,,,,,,,,,,6,1.5397,1,0,24,24,26,1,3,×,2,3 × 2,neutral,largerFirst,1.5,1.5,6,,,,,,,,
,,,,,,,,,,,,,,,808,2022-01-16_13h08.21.806,multiplicationStroop,2021.2.3,Win32,59.9880024,,,,,,,,,,,,,,,,,,,,,,,,,,,,,,,,,9,1.6992,1,0,25,25,29,1,3,×,3,3 × 3,neutral,tie,1.5,1.5,9,,,,,,,,
,,,,,,,,,,,,,,,808,2022-01-16_13h08.21.806,multiplicationStroop,2021.2.3,Win32,59.9880024,,,,,,,,,,,,,,,,,,,,,,,,,,,,,,,,,48,2.1328,1,0,26,26,15,1,8,×,6,8 × 6,neutral,largerFirst,1.5,1.5,48,,,,,,,,
,,,,,,,,,,,,,,,808,2022-01-16_13h08.21.806,multiplicationStroop,2021.2.3,Win32,59.9880024,,,,,,,,,,,,,,,,,,,,,,,,,,,,,,,,,12,1.1825,1,0,27,27,25,1,6,×,2,6 × 2,neutral,largerFirst,1.5,1.5,12,,,,,,,,
,,,,,,,,,,,,,,,808,2022-01-16_13h08.21.806,multiplicationStroop,2021.2.3,Win32,59.9880024,,,,,,,,,,,,,,,,,,,,,,,,,,,,,,,,,36,3.5491,1,0,28,28,27,1,9,×,4,9 × 4,neutral,largerFirst,1.5,1.5,36,,,,,,,,
,,,,,,,,,,,,,,,808,2022-01-16_13h08.21.806,multiplicationStroop,2021.2.3,Win32,59.9880024,,,,,,,,,,,,,,,,,,,,,,,,,,,,,,,,,30,1.79,1,0,29,29,19,1,6,×,5,6 × 5,neutral,largerFirst,1.5,1.5,30,,,,,,,,
,,,,,,,,,,,,,,,808,2022-01-16_13h08.21.806,multiplicationStroop,2021.2.3,Win32,59.9880024,,,,,,,,,,,,,,,,,,,,,,,,,,,,,,,,,72,2.1163,1,0,30,30,11,1,8,×,9,8 × 9,neutral,smallerFirst,1.5,1.5,72,,,,,,,,
,,,,,,,,,,,,,,,808,2022-01-16_13h08.21.806,multiplicationStroop,2021.2.3,Win32,59.9880024,,,,,,,,,,,,,,,,,,,,,,,,,,,,,,,,,8,1.4989,1,0,31,31,3,1,2,×,4,2 × 4,neutral,smallerFirst,1.5,1.5,8,,,,,,,,
,,,,,,,,,,,,,,,808,2022-01-16_13h08.21.806,multiplicationStroop,2021.2.3,Win32,59.9880024,,,,,,,,,,,,,,,,,,,,,,,,,,,,,,,,,45,1.8326,1,0,32,32,10,1,5,×,9,5 × 9,neutral,smallerFirst,1.5,1.5,45,,,,,,,,
,,,,,,,,,,,,,,,808,2022-01-16_13h08.21.806,multiplicationStroop,2021.2.3,Win32,59.9880024,,,,,,,,,,,,,,,,,,,,,,,,,,,,,,,,,64,2.4496,1,0,33,33,34,1,8,×,8,8 × 8,neutral,tie,1.5,1.5,64,,,,,,,,
,,,,,,,,,,,,,,,808,2022-01-16_13h08.21.806,multiplicationStroop,2021.2.3,Win32,59.9880024,,,,,,,,,,,,,,,,,,,,,,,,,,,,,,,,,18,1.4559,1,0,34,34,18,1,9,×,2,9 × 2,neutral,largerFirst,1.5,1.5,18,,,,,,,,
,,,,,,,,,,,,,,,808,2022-01-16_13h08.21.806,multiplicationStroop,2021.2.3,Win32,59.9880024,,,,,,,,,,,,,,,,,,,,,,,,,,,,,,,,,4,1.4666,1,0,35,35,28,1,2,×,2,2 × 2,neutral,tie,1.5,1.5,4,,,,,,,,
,,,,,,,,,,,,,,,808,2022-01-16_13h08.21.806,multiplicationStroop,2021.2.3,Win32,59.9880024,,,,,,,,,,,,,,,,,,,,,,,,,,,,,,,,,,,,,,,,,,,,,,,,,,0,4,4,1,1,stimulusFile/mult_blk2.xlsx,,
,,,,,,,,,,,,,,,808,2022-01-16_13h08.21.806,multiplicationStroop,2021.2.3,Win32,59.9880024,,,,,,,,,,,,,,,,,,,,,,,,,,,,,,,space,0.7874,30,1.6678,1,0,0,0,25,1,6,×,5,6 × 5,incongruent,largerFirst,1,2,30,,,,,,,,
,,,,,,,,,,,,,,,808,2022-01-16_13h08.21.806,multiplicationStroop,2021.2.3,Win32,59.9880024,,,,,,,,,,,,,,,,,,,,,,,,,,,,,,,,,20,1.5826,1,0,1,1,27,1,5,×,4,5 × 4,incongruent,largerFirst,1,2,20,,,,,,,,
,,,,,,,,,,,,,,,808,2022-01-16_13h08.21.806,multiplicationStroop,2021.2.3,Win32,59.9880024,,,,,,,,,,,,,,,,,,,,,,,,,,,,,,,,,18,1.5162,1,0,2,2,2,1,2,×,9,2 × 9,incongruent,smallerFirst,2,1,18,,,,,,,,
,,,,,,,,,,,,,,,808,2022-01-16_13h08.21.806,multiplicationStroop,2021.2.3,Win32,59.9880024,,,,,,,,,,,,,,,,,,,,,,,,,,,,,,,,,35,1.6004,1,0,3,3,12,1,5,×,7,5 × 7,incongruent,smallerFirst,2,1,35,,,,,,,,
,,,,,,,,,,,,,,,808,2022-01-16_13h08.21.806,multiplicationStroop,2021.2.3,Win32,59.9880024,,,,,,,,,,,,,,,,,,,,,,,,,,,,,,,,,45,1.4987,1,0,4,4,22,1,9,×,5,9 × 5,incongruent,largerFirst,1,2,45,,,,,,,,
,,,,,,,,,,,,,,,808,2022-01-16_13h08.21.806,multiplicationStroop,2021.2.3,Win32,59.9880024,,,,,,,,,,,,,,,,,,,,,,,,,,,,,,,,,9,1.5495,1,0,5,5,29,1,3,×,3,3 × 3,incongruent,tie,1,2,9,,,,,,,,
,,,,,,,,,,,,,,,808,2022-01-16_13h08.21.806,multiplicationStroop,2021.2.3,Win32,59.9880024,,,,,,,,,,,,,,,,,,,,,,,,,,,,,,,,,24,2.4989,1,0,6,6,9,1,3,×,8,3 × 8,incongruent,smallerFirst,2,1,24,,,,,,,,
,,,,,,,,,,,,,,,808,2022-01-16_13h08.21.806,multiplicationStroop,2021.2.3,Win32,59.9880024,,,,,,,,,,,,,,,,,,,,,,,,,,,,,,,,,81,2.3827,1,0,7,7,35,1,9,×,9,9 × 9,incongruent,tie,1,2,81,,,,,,,,
,,,,,,,,,,,,,,,808,2022-01-16_13h08.21.806,multiplicationStroop,2021.2.3,Win32,59.9880024,,,,,,,,,,,,,,,,,,,,,,,,,,,,,,,,,36,2.2064,1,0,8,8,15,1,9,×,4,9 × 4,incongruent,largerFirst,1,2,36,,,,,,,,
,,,,,,,,,,,,,,,808,2022-01-16_13h08.21.806,multiplicationStroop,2021.2.3,Win32,59.9880024,,,,,,,,,,,,,,,,,,,,,,,,,,,,,,,,,54,1.6992,1,0,9,9,6,1,6,×,9,6 × 9,incongruent,smallerFirst,2,1,54,,,,,,,,
,,,,,,,,,,,,,,,808,2022-01-16_13h08.21.806,multiplicationStroop,2021.2.3,Win32,59.9880024,,,,,,,,,,,,,,,,,,,,,,,,,,,,,,,,,5,3.2493,0,0,10,10,14,1,8,×,7,8 × 7,incongruent,largerFirst,1,2,56,,,,,,,,
,,,,,,,,,,,,,,,808,2022-01-16_13h08.21.806,multiplicationStroop,2021.2.3,Win32,59.9880024,,,,,,,,,,,,,,,,,,,,,,,,,,,,,,,,,25,2.0335,1,0,11,11,31,1,5,×,5,5 × 5,incongruent,tie,1,2,25,,,,,,,,
,,,,,,,,,,,,,,,808,2022-01-16_13h08.21.806,multiplicationStroop,2021.2.3,Win32,59.9880024,,,,,,,,,,,,,,,,,,,,,,,,,,,,,,,,,12,1.1649,1,0,12,12,19,1,6,×,2,6 × 2,incongruent,largerFirst,1,2,12,,,,,,,,
,,,,,,,,,,,,,,,808,2022-01-16_13h08.21.806,multiplicationStroop,2021.2.3,Win32,59.9880024,,,,,,,,,,,,,,,,,,,,,,,,,,,,,,,,,40,1.6661,1,0,13,13,13,1,5,×,8,5 × 8,incongruent,smallerFirst,2,1,40,,,,,,,,
,,,,,,,,,,,,,,,808,2022-01-16_13h08.21.806,multiplicationStroop,2021.2.3,Win32,59.9880024,,,,,,,,,,,,,,,,,,,,,,,,,,,,,,,,,32,1.6824,1,0,14,14,7,1,4,×,8,4 × 8,incongruent,smallerFirst,2,1,32,,,,,,,,
,,,,,,,,,,,,,,,808,2022-01-16_13h08.21.806,multiplicationStroop,2021.2.3,Win32,59.9880024,,,,,,,,,,,,,,,,,,,,,,,,,,,,,,,,,48,1.9161,1,0,15,15,1,1,6,×,8,6 × 8,incongruent,smallerFirst,2,1,48,,,,,,,,
,,,,,,,,,,,,,,,808,2022-01-16_13h08.21.806,multiplicationStroop,2021.2.3,Win32,59.9880024,,,,,,,,,,,,,,,,,,,,,,,,,,,,,,,,,10,2.0663,1,0,16,16,21,1,5,×,2,5 × 2,incongruent,largerFirst,1,2,10,,,,,,,,
,,,,,,,,,,,,,,,808,2022-01-16_13h08.21.806,multiplicationStroop,2021.2.3,Win32,59.9880024,,,,,,,,,,,,,,,,,,,,,,,,,,,,,,,,,1,1.7661,0,0,17,17,30,1,4,×,4,4 × 4,incongruent,tie,1,2,16,,,,,,,,
,,,,,,,,,,,,,,,808,2022-01-16_13h08.21.806,multiplicationStroop,2021.2.3,Win32,59.9880024,,,,,,,,,,,,,,,,,,,,,,,,,,,,,,,,,15,1.6656,1,0,18,18,10,1,3,×,5,3 × 5,incongruent,smallerFirst,2,1,15,,,,,,,,
,,,,,,,,,,,,,,,808,2022-01-16_13h08.21.806,multiplicationStroop,2021.2.3,Win32,59.9880024,,,,,,,,,,,,,,,,,,,,,,,,,,,,,,,,,72,2.1158,1,0,19,19,0,1,8,×,9,8 × 9,incongruent,smallerFirst,2,1,72,,,,,,,,
,,,,,,,,,,,,,,,808,2022-01-16_13h08.21.806,multiplicationStroop,2021.2.3,Win32,59.9880024,,,,,,,,,,,,,,,,,,,,,,,,,,,,,,,,,24,2.3492,1,0,20,20,20,1,6,×,4,6 × 4,incongruent,largerFirst,1,2,24,,,,,,,,
,,,,,,,,,,,,,,,808,2022-01-16_13h08.21.806,multiplicationStroop,2021.2.3,Win32,59.9880024,,,,,,,,,,,,,,,,,,,,,,,,,,,,,,,,,42,2.0327,1,0,21,21,17,1,7,×,6,7 × 6,incongruent,largerFirst,1,2,42,,,,,,,,
,,,,,,,,,,,,,,,808,2022-01-16_13h08.21.806,multiplicationStroop,2021.2.3,Win32,59.9880024,,,,,,,,,,,,,,,,,,,,,,,,,,,,,,,,,49,1.7161,1,0,22,22,33,1,7,×,7,7 × 7,incongruent,tie,1,2,49,,,,,,,,
,,,,,,,,,,,,,,,808,2022-01-16_13h08.21.806,multiplicationStroop,2021.2.3,Win32,59.9880024,,,,,,,,,,,,,,,,,,,,,,,,,,,,,,,,,14,1.916,1,0,23,23,4,1,2,×,7,2 × 7,incongruent,smallerFirst,2,1,14,,,,,,,,
,,,,,,,,,,,,,,,808,2022-01-16_13h08.21.806,multiplicationStroop,2021.2.3,Win32,59.9880024,,,,,,,,,,,,,,,,,,,,,,,,,,,,,,,,,63,2.2159,1,0,24,24,3,1,7,×,9,7 × 9,incongruent,smallerFirst,2,1,63,,,,,,,,
,,,,,,,,,,,,,,,808,2022-01-16_13h08.21.806,multiplicationStroop,2021.2.3,Win32,59.9880024,,,,,,,,,,,,,,,,,,,,,,,,,,,,,,,,,64,1.9493,1,0,25,25,34,1,8,×,8,8 × 8,incongruent,tie,1,2,64,,,,,,,,
,,,,,,,,,,,,,,,808,2022-01-16_13h08.21.806,multiplicationStroop,2021.2.3,Win32,59.9880024,,,,,,,,,,,,,,,,,,,,,,,,,,,,,,,,,27,1.6991,1,0,26,26,18,1,9,×,3,9 × 3,incongruent,largerFirst,1,2,27,,,,,,,,
,,,,,,,,,,,,,,,808,2022-01-16_13h08.21.806,multiplicationStroop,2021.2.3,Win32,59.9880024,,,,,,,,,,,,,,,,,,,,,,,,,,,,,,,,,12,1.2163,1,0,27,27,5,1,3,×,4,3 × 4,incongruent,smallerFirst,2,1,12,,,,,,,,
,,,,,,,,,,,,,,,808,2022-01-16_13h08.21.806,multiplicationStroop,2021.2.3,Win32,59.9880024,,,,,,,,,,,,,,,,,,,,,,,,,,,,,,,,,6,1.5992,1,0,28,28,11,1,2,×,3,2 × 3,incongruent,smallerFirst,2,1,6,,,,,,,,
,,,,,,,,,,,,,,,808,2022-01-16_13h08.21.806,multiplicationStroop,2021.2.3,Win32,59.9880024,,,,,,,,,,,,,,,,,,,,,,,,,,,,,,,,,8,1.5165,1,0,29,29,24,1,4,×,2,4 × 2,incongruent,largerFirst,1,2,8,,,,,,,,
,,,,,,,,,,,,,,,808,2022-01-16_13h08.21.806,multiplicationStroop,2021.2.3,Win32,59.9880024,,,,,,,,,,,,,,,,,,,,,,,,,,,,,,,,,18,2.0324,1,0,30,30,8,1,3,×,6,3 × 6,incongruent,smallerFirst,2,1,18,,,,,,,,
,,,,,,,,,,,,,,,808,2022-01-16_13h08.21.806,multiplicationStroop,2021.2.3,Win32,59.9880024,,,,,,,,,,,,,,,,,,,,,,,,,,,,,,,,,21,1.4327,1,0,31,31,26,1,7,×,3,7 × 3,incongruent,largerFirst,1,2,21,,,,,,,,
,,,,,,,,,,,,,,,808,2022-01-16_13h08.21.806,multiplicationStroop,2021.2.3,Win32,59.9880024,,,,,,,,,,,,,,,,,,,,,,,,,,,,,,,,,4,1.3498,1,0,32,32,28,1,2,×,2,2 × 2,incongruent,tie,1,2,4,,,,,,,,
,,,,,,,,,,,,,,,808,2022-01-16_13h08.21.806,multiplicationStroop,2021.2.3,Win32,59.9880024,,,,,,,,,,,,,,,,,,,,,,,,,,,,,,,,,36,1.7994,1,0,33,33,32,1,6,×,6,6 × 6,incongruent,tie,1,2,36,,,,,,,,
,,,,,,,,,,,,,,,808,2022-01-16_13h08.21.806,multiplicationStroop,2021.2.3,Win32,59.9880024,,,,,,,,,,,,,,,,,,,,,,,,,,,,,,,,,28,1.9984,1,0,34,34,16,1,7,×,4,7 × 4,incongruent,largerFirst,1,2,28,,,,,,,,
,,,,,,,,,,,,,,,808,2022-01-16_13h08.21.806,multiplicationStroop,2021.2.3,Win32,59.9880024,,,,,,,,,,,,,,,,,,,,,,,,,,,,,,,,,16,1.5163,1,0,35,35,23,1,8,×,2,8 × 2,incongruent,largerFirst,1,2,16,,,,,,,,
,,,,,,,,,,,,,,,808,2022-01-16_13h08.21.806,multiplicationStroop,2021.2.3,Win32,59.9880024,,,,,,,,,,,,,,,,,,,,,,,,,,,,,,,,,,,,,,,,,,,,,,,,,,0,5,5,5,1,stimulusFile/mult_blk6_INcongruent.xlsx,,
,,,,,,,,,,,,,,,808,2022-01-16_13h08.21.806,multiplicationStroop,2021.2.3,Win32,59.9880024,,,,,,,,,,,,,,,,,,,,,,,,,,,,,,,,,,,,,,,,,,,,,,,,,,,,,,,,space,2.6012