welcomeKey_resp.keys,welcomeKey_resp.rt,X Scale,Y Scale,rt_resp_4.keys,rt_resp_4.corr,rt_resp_4.rt,speedtest_2.thisRepN,speedtest_2.thisTrialN,speedtest_2.thisN,speedtest_2.thisIndex,speedtest_2.ran,numberSc,posX,positionLayout,participant,date,expName,psychopyVersion,OS,frameRate,ct_instrresp.keys,ct_instrresp.rt,key_resp_2.keys,key_resp_2.rt,ct_keyResp.keys,ct_keyResp.corr,ct_keyResp.rt,trials.thisRepN,trials.thisTrialN,trials.thisN,trials.thisIndex,trials.ran,leftNo,rightNo,displayProblem,numDistance,leftNo_size,rightNo_size,Dims,keyAnswer,TS_Loop.thisRepN,TS_Loop.thisTrialN,TS_Loop.thisN,TS_Loop.thisIndex,TS_Loop.ran,Condition,ActionInst,instrImage,mltptaskInst_resp.keys,mltptaskInst_resp.rt,continue_resp_2.keys,continue_resp_2.rt,multp_Answer,multi_RT,multiplyCorr,LoopingMultiply.thisRepN,LoopingMultiply.thisTrialN,LoopingMultiply.thisN,LoopingMultiply.thisIndex,LoopingMultiply.ran,factor1,multiplySign,factor2,multliplyProblem,physicalSize,orderOperand,sizeF1,sizeF2,mult_answer,trials_stroop.thisRepN,trials_stroop.thisTrialN,trials_stroop.thisN,trials_stroop.thisIndex,trials_stroop.ran,multiplicationFile,esckey_resp_2.keys,esckey_resp_2.rt
y,10.1271,45.1,44.7,left,1,1.3318,0,0,0,0,1,1,-200,left,810,2022-01-16_12h38.14.422,multiplicationStroop,2021.2.3,Win32,59.89817311,,,,,,,,,,,,,,,,,,,,,,,,,,,,,,,,,,,,,,,,,,,,,,,,,,,,,,,,,
,,,,left,1,0.7209,0,1,1,5,1,7,-200,left,810,2022-01-16_12h38.14.422,multiplicationStroop,2021.2.3,Win32,59.89817311,,,,,,,,,,,,,,,,,,,,,,,,,,,,,,,,,,,,,,,,,,,,,,,,,,,,,,,,,
,,,,right,1,0.5188,0,2,2,11,1,4,200,right,810,2022-01-16_12h38.14.422,multiplicationStroop,2021.2.3,Win32,59.89817311,,,,,,,,,,,,,,,,,,,,,,,,,,,,,,,,,,,,,,,,,,,,,,,,,,,,,,,,,
,,,,right,1,0.3506,0,3,3,10,1,3,200,right,810,2022-01-16_12h38.14.422,multiplicationStroop,2021.2.3,Win32,59.89817311,,,,,,,,,,,,,,,,,,,,,,,,,,,,,,,,,,,,,,,,,,,,,,,,,,,,,,,,,
,,,,left,1,0.5181,0,4,4,1,1,2,-200,left,810,2022-01-16_12h38.14.422,multiplicationStroop,2021.2.3,Win32,59.89817311,,,,,,,,,,,,,,,,,,,,,,,,,,,,,,,,,,,,,,,,,,,,,,,,,,,,,,,,,
,,,,right,1,0.4267,0,5,5,9,1,2,200,right,810,2022-01-16_12h38.14.422,multiplicationStroop,2021.2.3,Win32,59.89817311,,,,,,,,,,,,,,,,,,,,,,,,,,,,,,,,,,,,,,,,,,,,,,,,,,,,,,,,,
,,,,left,1,0.3522,0,6,6,4,1,6,-200,left,810,2022-01-16_12h38.14.422,multiplicationStroop,2021.2.3,Win32,59.89817311,,,,,,,,,,,,,,,,,,,,,,,,,,,,,,,,,,,,,,,,,,,,,,,,,,,,,,,,,
,,,,left,1,0.3362,0,7,7,7,1,9,-200,left,810,2022-01-16_12h38.14.422,multiplicationStroop,2021.2.3,Win32,59.89817311,,,,,,,,,,,,,,,,,,,,,,,,,,,,,,,,,,,,,,,,,,,,,,,,,,,,,,,,,
,,,,right,1,0.2887,0,8,8,13,1,7,200,right,810,2022-01-16_12h38.14.422,multiplicationStroop,2021.2.3,Win32,59.89817311,,,,,,,,,,,,,,,,,,,,,,,,,,,,,,,,,,,,,,,,,,,,,,,,,,,,,,,,,
,,,,left,1,0.3511,0,9,9,6,1,8,-200,left,810,2022-01-16_12h38.14.422,multiplicationStroop,2021.2.3,Win32,59.89817311,,,,,,,,,,,,,,,,,,,,,,,,,,,,,,,,,,,,,,,,,,,,,,,,,,,,,,,,,
,,,,right,1,0.2707,0,10,10,8,1,1,200,right,810,2022-01-16_12h38.14.422,multiplicationStroop,2021.2.3,Win32,59.89817311,,,,,,,,,,,,,,,,,,,,,,,,,,,,,,,,,,,,,,,,,,,,,,,,,,,,,,,,,
,,,,right,1,0.3509,0,11,11,14,1,8,200,right,810,2022-01-16_12h38.14.422,multiplicationStroop,2021.2.3,Win32,59.89817311,,,,,,,,,,,,,,,,,,,,,,,,,,,,,,,,,,,,,,,,,,,,,,,,,,,,,,,,,
,,,,left,1,0.2771,0,12,12,2,1,3,-200,left,810,2022-01-16_12h38.14.422,multiplicationStroop,2021.2.3,Win32,59.89817311,,,,,,,,,,,,,,,,,,,,,,,,,,,,,,,,,,,,,,,,,,,,,,,,,,,,,,,,,
,,,,right,1,0.295,0,13,13,12,1,6,200,right,810,2022-01-16_12h38.14.422,multiplicationStroop,2021.2.3,Win32,59.89817311,,,,,,,,,,,,,,,,,,,,,,,,,,,,,,,,,,,,,,,,,,,,,,,,,,,,,,,,,
,,,,left,1,0.2892,0,14,14,3,1,4,-200,left,810,2022-01-16_12h38.14.422,multiplicationStroop,2021.2.3,Win32,59.89817311,,,,,,,,,,,,,,,,,,,,,,,,,,,,,,,,,,,,,,,,,,,,,,,,,,,,,,,,,
,,,,right,1,0.3048,0,15,15,15,1,9,200,right,810,2022-01-16_12h38.14.422,multiplicationStroop,2021.2.3,Win32,59.89817311,,,,,,,,,,,,,,,,,,,,,,,,,,,,,,,,,,,,,,,,,,,,,,,,,,,,,,,,,
,,,,right,1,0.3495,1,0,16,13,1,7,200,right,810,2022-01-16_12h38.14.422,multiplicationStroop,2021.2.3,Win32,59.89817311,,,,,,,,,,,,,,,,,,,,,,,,,,,,,,,,,,,,,,,,,,,,,,,,,,,,,,,,,
,,,,right,1,0.2848,1,1,17,12,1,6,200,right,810,2022-01-16_12h38.14.422,multiplicationStroop,2021.2.3,Win32,59.89817311,,,,,,,,,,,,,,,,,,,,,,,,,,,,,,,,,,,,,,,,,,,,,,,,,,,,,,,,,
,,,,left,1,0.3015,1,2,18,3,1,4,-200,left,810,2022-01-16_12h38.14.422,multiplicationStroop,2021.2.3,Win32,59.89817311,,,,,,,,,,,,,,,,,,,,,,,,,,,,,,,,,,,,,,,,,,,,,,,,,,,,,,,,,
,,,,left,1,0.3031,1,3,19,2,1,3,-200,left,810,2022-01-16_12h38.14.422,multiplicationStroop,2021.2.3,Win32,59.89817311,,,,,,,,,,,,,,,,,,,,,,,,,,,,,,,,,,,,,,,,,,,,,,,,,,,,,,,,,
,,,,right,1,0.2845,1,4,20,15,1,9,200,right,810,2022-01-16_12h38.14.422,multiplicationStroop,2021.2.3,Win32,59.89817311,,,,,,,,,,,,,,,,,,,,,,,,,,,,,,,,,,,,,,,,,,,,,,,,,,,,,,,,,
,,,,left,1,0.2841,1,5,21,7,1,9,-200,left,810,2022-01-16_12h38.14.422,multiplicationStroop,2021.2.3,Win32,59.89817311,,,,,,,,,,,,,,,,,,,,,,,,,,,,,,,,,,,,,,,,,,,,,,,,,,,,,,,,,
,,,,left,1,0.3343,1,6,22,0,1,1,-200,left,810,2022-01-16_12h38.14.422,multiplicationStroop,2021.2.3,Win32,59.89817311,,,,,,,,,,,,,,,,,,,,,,,,,,,,,,,,,,,,,,,,,,,,,,,,,,,,,,,,,
,,,,left,1,0.3164,1,7,23,5,1,7,-200,left,810,2022-01-16_12h38.14.422,multiplicationStroop,2021.2.3,Win32,59.89817311,,,,,,,,,,,,,,,,,,,,,,,,,,,,,,,,,,,,,,,,,,,,,,,,,,,,,,,,,
,,,,right,1,0.3181,1,8,24,8,1,1,200,right,810,2022-01-16_12h38.14.422,multiplicationStroop,2021.2.3,Win32,59.89817311,,,,,,,,,,,,,,,,,,,,,,,,,,,,,,,,,,,,,,,,,,,,,,,,,,,,,,,,,
,,,,right,1,0.3061,1,9,25,9,1,2,200,right,810,2022-01-16_12h38.14.422,multiplicationStroop,2021.2.3,Win32,59.89817311,,,,,,,,,,,,,,,,,,,,,,,,,,,,,,,,,,,,,,,,,,,,,,,,,,,,,,,,,
,,,,right,1,0.2889,1,10,26,10,1,3,200,right,810,2022-01-16_12h38.14.422,multiplicationStroop,2021.2.3,Win32,59.89817311,,,,,,,,,,,,,,,,,,,,,,,,,,,,,,,,,,,,,,,,,,,,,,,,,,,,,,,,,
,,,,left,1,0.301,1,11,27,4,1,6,-200,left,810,2022-01-16_12h38.14.422,multiplicationStroop,2021.2.3,Win32,59.89817311,,,,,,,,,,,,,,,,,,,,,,,,,,,,,,,,,,,,,,,,,,,,,,,,,,,,,,,,,
,,,,left,1,0.2844,1,12,28,1,1,2,-200,left,810,2022-01-16_12h38.14.422,multiplicationStroop,2021.2.3,Win32,59.89817311,,,,,,,,,,,,,,,,,,,,,,,,,,,,,,,,,,,,,,,,,,,,,,,,,,,,,,,,,
,,,,left,1,0.2666,1,13,29,6,1,8,-200,left,810,2022-01-16_12h38.14.422,multiplicationStroop,2021.2.3,Win32,59.89817311,,,,,,,,,,,,,,,,,,,,,,,,,,,,,,,,,,,,,,,,,,,,,,,,,,,,,,,,,
,,,,right,1,0.3009,1,14,30,11,1,4,200,right,810,2022-01-16_12h38.14.422,multiplicationStroop,2021.2.3,Win32,59.89817311,,,,,,,,,,,,,,,,,,,,,,,,,,,,,,,,,,,,,,,,,,,,,,,,,,,,,,,,,
,,,,right,1,0.2937,1,15,31,14,1,8,200,right,810,2022-01-16_12h38.14.422,multiplicationStroop,2021.2.3,Win32,59.89817311,,,,,,,,,,,,,,,,,,,,,,,,,,,,,,,,,,,,,,,,,,,,,,,,,,,,,,,,,
,,,,right,1,0.2669,2,0,32,15,1,9,200,right,810,2022-01-16_12h38.14.422,multiplicationStroop,2021.2.3,Win32,59.89817311,,,,,,,,,,,,,,,,,,,,,,,,,,,,,,,,,,,,,,,,,,,,,,,,,,,,,,,,,
,,,,right,1,0.2902,2,1,33,13,1,7,200,right,810,2022-01-16_12h38.14.422,multiplicationStroop,2021.2.3,Win32,59.89817311,,,,,,,,,,,,,,,,,,,,,,,,,,,,,,,,,,,,,,,,,,,,,,,,,,,,,,,,,
,,,,right,0,0.1851,2,2,34,4,1,6,-200,left,810,2022-01-16_12h38.14.422,multiplicationStroop,2021.2.3,Win32,59.89817311,,,,,,,,,,,,,,,,,,,,,,,,,,,,,,,,,,,,,,,,,,,,,,,,,,,,,,,,,
,,,,left,1,0.4504,2,3,35,7,1,9,-200,left,810,2022-01-16_12h38.14.422,multiplicationStroop,2021.2.3,Win32,59.89817311,,,,,,,,,,,,,,,,,,,,,,,,,,,,,,,,,,,,,,,,,,,,,,,,,,,,,,,,,
,,,,left,0,0.1517,2,4,36,8,1,1,200,right,810,2022-01-16_12h38.14.422,multiplicationStroop,2021.2.3,Win32,59.89817311,,,,,,,,,,,,,,,,,,,,,,,,,,,,,,,,,,,,,,,,,,,,,,,,,,,,,,,,,
,,,,right,1,0.6511,2,5,37,9,1,2,200,right,810,2022-01-16_12h38.14.422,multiplicationStroop,2021.2.3,Win32,59.89817311,,,,,,,,,,,,,,,,,,,,,,,,,,,,,,,,,,,,,,,,,,,,,,,,,,,,,,,,,
,,,,right,1,0.3256,2,6,38,14,1,8,200,right,810,2022-01-16_12h38.14.422,multiplicationStroop,2021.2.3,Win32,59.89817311,,,,,,,,,,,,,,,,,,,,,,,,,,,,,,,,,,,,,,,,,,,,,,,,,,,,,,,,,
,,,,right,1,0.2885,2,7,39,12,1,6,200,right,810,2022-01-16_12h38.14.422,multiplicationStroop,2021.2.3,Win32,59.89817311,,,,,,,,,,,,,,,,,,,,,,,,,,,,,,,,,,,,,,,,,,,,,,,,,,,,,,,,,
,,,,left,1,0.3525,2,8,40,6,1,8,-200,left,810,2022-01-16_12h38.14.422,multiplicationStroop,2021.2.3,Win32,59.89817311,,,,,,,,,,,,,,,,,,,,,,,,,,,,,,,,,,,,,,,,,,,,,,,,,,,,,,,,,
,,,,left,1,0.3174,2,9,41,5,1,7,-200,left,810,2022-01-16_12h38.14.422,multiplicationStroop,2021.2.3,Win32,59.89817311,,,,,,,,,,,,,,,,,,,,,,,,,,,,,,,,,,,,,,,,,,,,,,,,,,,,,,,,,
,,,,left,1,0.3344,2,10,42,3,1,4,-200,left,810,2022-01-16_12h38.14.422,multiplicationStroop,2021.2.3,Win32,59.89817311,,,,,,,,,,,,,,,,,,,,,,,,,,,,,,,,,,,,,,,,,,,,,,,,,,,,,,,,,
,,,,left,1,0.3039,2,11,43,2,1,3,-200,left,810,2022-01-16_12h38.14.422,multiplicationStroop,2021.2.3,Win32,59.89817311,,,,,,,,,,,,,,,,,,,,,,,,,,,,,,,,,,,,,,,,,,,,,,,,,,,,,,,,,
,,,,left,1,0.3585,2,12,44,1,1,2,-200,left,810,2022-01-16_12h38.14.422,multiplicationStroop,2021.2.3,Win32,59.89817311,,,,,,,,,,,,,,,,,,,,,,,,,,,,,,,,,,,,,,,,,,,,,,,,,,,,,,,,,
,,,,right,1,0.3903,2,13,45,10,1,3,200,right,810,2022-01-16_12h38.14.422,multiplicationStroop,2021.2.3,Win32,59.89817311,,,,,,,,,,,,,,,,,,,,,,,,,,,,,,,,,,,,,,,,,,,,,,,,,,,,,,,,,
,,,,left,1,0.3023,2,14,46,0,1,1,-200,left,810,2022-01-16_12h38.14.422,multiplicationStroop,2021.2.3,Win32,59.89817311,,,,,,,,,,,,,,,,,,,,,,,,,,,,,,,,,,,,,,,,,,,,,,,,,,,,,,,,,
,,,,right,1,0.2839,2,15,47,11,1,4,200,right,810,2022-01-16_12h38.14.422,multiplicationStroop,2021.2.3,Win32,59.89817311,,,,,,,,,,,,,,,,,,,,,,,,,,,,,,,,,,,,,,,,,,,,,,,,,,,,,,,,,
,,,,left,1,0.3035,3,0,48,1,1,2,-200,left,810,2022-01-16_12h38.14.422,multiplicationStroop,2021.2.3,Win32,59.89817311,,,,,,,,,,,,,,,,,,,,,,,,,,,,,,,,,,,,,,,,,,,,,,,,,,,,,,,,,
,,,,right,1,0.3044,3,1,49,9,1,2,200,right,810,2022-01-16_12h38.14.422,multiplicationStroop,2021.2.3,Win32,59.89817311,,,,,,,,,,,,,,,,,,,,,,,,,,,,,,,,,,,,,,,,,,,,,,,,,,,,,,,,,
,,,,right,1,0.2586,3,2,50,10,1,3,200,right,810,2022-01-16_12h38.14.422,multiplicationStroop,2021.2.3,Win32,59.89817311,,,,,,,,,,,,,,,,,,,,,,,,,,,,,,,,,,,,,,,,,,,,,,,,,,,,,,,,,
,,,,left,1,0.3368,3,3,51,6,1,8,-200,left,810,2022-01-16_12h38.14.422,multiplicationStroop,2021.2.3,Win32,59.89817311,,,,,,,,,,,,,,,,,,,,,,,,,,,,,,,,,,,,,,,,,,,,,,,,,,,,,,,,,
,,,,left,1,0.3746,3,4,52,2,1,3,-200,left,810,2022-01-16_12h38.14.422,multiplicationStroop,2021.2.3,Win32,59.89817311,,,,,,,,,,,,,,,,,,,,,,,,,,,,,,,,,,,,,,,,,,,,,,,,,,,,,,,,,
,,,,right,1,0.2999,3,5,53,14,1,8,200,right,810,2022-01-16_12h38.14.422,multiplicationStroop,2021.2.3,Win32,59.89817311,,,,,,,,,,,,,,,,,,,,,,,,,,,,,,,,,,,,,,,,,,,,,,,,,,,,,,,,,
,,,,right,1,0.3194,3,6,54,15,1,9,200,right,810,2022-01-16_12h38.14.422,multiplicationStroop,2021.2.3,Win32,59.89817311,,,,,,,,,,,,,,,,,,,,,,,,,,,,,,,,,,,,,,,,,,,,,,,,,,,,,,,,,
,,,,left,1,0.3412,3,7,55,7,1,9,-200,left,810,2022-01-16_12h38.14.422,multiplicationStroop,2021.2.3,Win32,59.89817311,,,,,,,,,,,,,,,,,,,,,,,,,,,,,,,,,,,,,,,,,,,,,,,,,,,,,,,,,
,,,,right,1,0.2756,3,8,56,11,1,4,200,right,810,2022-01-16_12h38.14.422,multiplicationStroop,2021.2.3,Win32,59.89817311,,,,,,,,,,,,,,,,,,,,,,,,,,,,,,,,,,,,,,,,,,,,,,,,,,,,,,,,,
,,,,left,1,0.3361,3,9,57,3,1,4,-200,left,810,2022-01-16_12h38.14.422,multiplicationStroop,2021.2.3,Win32,59.89817311,,,,,,,,,,,,,,,,,,,,,,,,,,,,,,,,,,,,,,,,,,,,,,,,,,,,,,,,,
,,,,left,1,0.309,3,10,58,5,1,7,-200,left,810,2022-01-16_12h38.14.422,multiplicationStroop,2021.2.3,Win32,59.89817311,,,,,,,,,,,,,,,,,,,,,,,,,,,,,,,,,,,,,,,,,,,,,,,,,,,,,,,,,
,,,,right,1,0.3385,3,11,59,13,1,7,200,right,810,2022-01-16_12h38.14.422,multiplicationStroop,2021.2.3,Win32,59.89817311,,,,,,,,,,,,,,,,,,,,,,,,,,,,,,,,,,,,,,,,,,,,,,,,,,,,,,,,,
,,,,left,1,0.3196,3,12,60,0,1,1,-200,left,810,2022-01-16_12h38.14.422,multiplicationStroop,2021.2.3,Win32,59.89817311,,,,,,,,,,,,,,,,,,,,,,,,,,,,,,,,,,,,,,,,,,,,,,,,,,,,,,,,,
,,,,right,1,0.3014,3,13,61,8,1,1,200,right,810,2022-01-16_12h38.14.422,multiplicationStroop,2021.2.3,Win32,59.89817311,,,,,,,,,,,,,,,,,,,,,,,,,,,,,,,,,,,,,,,,,,,,,,,,,,,,,,,,,
,,,,right,1,0.3174,3,14,62,12,1,6,200,right,810,2022-01-16_12h38.14.422,multiplicationStroop,2021.2.3,Win32,59.89817311,,,,,,,,,,,,,,,,,,,,,,,,,,,,,,,,,,,,,,,,,,,,,,,,,,,,,,,,,
,,,,left,1,0.3175,3,15,63,4,1,6,-200,left,810,2022-01-16_12h38.14.422,multiplicationStroop,2021.2.3,Win32,59.89817311,,,,,,,,,,,,,,,,,,,,,,,,,,stimulusFile/magnitude.xlsx,,,,,,,,,,,,,,,,,,,,,,,,,,,,,,,
,,,,,,,,,,,,,,,810,2022-01-16_12h38.14.422,multiplicationStroop,2021.2.3,Win32,59.89817311,space,24.7615,space,32.17,right,1,0.918,0,0,0,67,1,4,9,4 | 9,5,1.6933,1.6933,neutral,right,,,,,,stimulusFile/magnitude.xlsx,,,,,,,,,,,,,,,,,,,,,,,,,,,,,,,
,,,,,,,,,,,,,,,810,2022-01-16_12h38.14.422,multiplicationStroop,2021.2.3,Win32,59.89817311,,,,,right,1,0.8925,0,1,1,34,1,6,8,6 | 8,2,1.9756,1.4111,incongruent,right,,,,,,stimulusFile/magnitude.xlsx,,,,,,,,,,,,,,,,,,,,,,,,,,,,,,,
,,,,,,,,,,,,,,,810,2022-01-16_12h38.14.422,multiplicationStroop,2021.2.3,Win32,59.89817311,,,,,left,1,1.2266,0,2,2,30,1,7,6,7 | 6,1,1.4111,1.9756,incongruent,left,,,,,,stimulusFile/magnitude.xlsx,,,,,,,,,,,,,,,,,,,,,,,,,,,,,,,
,,,,,,,,,,,,,,,810,2022-01-16_12h38.14.422,multiplicationStroop,2021.2.3,Win32,59.89817311,,,,,right,1,1.0394,0,3,3,50,1,6,7,6 | 7,1,1.6933,1.6933,neutral,right,,,,,,stimulusFile/magnitude.xlsx,,,,,,,,,,,,,,,,,,,,,,,,,,,,,,,
,,,,,,,,,,,,,,,810,2022-01-16_12h38.14.422,multiplicationStroop,2021.2.3,Win32,59.89817311,,,,,left,1,0.7705,0,4,4,31,1,9,8,9 | 8,1,1.4111,1.9756,incongruent,left,,,,,,stimulusFile/magnitude.xlsx,,,,,,,,,,,,,,,,,,,,,,,,,,,,,,,
,,,,,,,,,,,,,,,810,2022-01-16_12h38.14.422,multiplicationStroop,2021.2.3,Win32,59.89817311,,,,,left,1,0.7356,0,5,5,60,1,3,1,3 | 1,2,1.6933,1.6933,neutral,left,,,,,,stimulusFile/magnitude.xlsx,,,,,,,,,,,,,,,,,,,,,,,,,,,,,,,
,,,,,,,,,,,,,,,810,2022-01-16_12h38.14.422,multiplicationStroop,2021.2.3,Win32,59.89817311,,,,,left,1,0.6832,0,6,6,22,1,8,3,8 | 3,5,1.9756,1.4111,congruent,left,,,,,,stimulusFile/magnitude.xlsx,,,,,,,,,,,,,,,,,,,,,,,,,,,,,,,
,,,,,,,,,,,,,,,810,2022-01-16_12h38.14.422,multiplicationStroop,2021.2.3,Win32,59.89817311,,,,,left,1,0.8071,0,7,7,20,1,6,1,6 | 1,5,1.9756,1.4111,congruent,left,,,,,,stimulusFile/magnitude.xlsx,,,,,,,,,,,,,,,,,,,,,,,,,,,,,,,
,,,,,,,,,,,,,,,810,2022-01-16_12h38.14.422,multiplicationStroop,2021.2.3,Win32,59.89817311,,,,,right,1,0.6503,0,8,8,35,1,7,9,7 | 9,2,1.9756,1.4111,incongruent,right,,,,,,stimulusFile/magnitude.xlsx,,,,,,,,,,,,,,,,,,,,,,,,,,,,,,,
,,,,,,,,,,,,,,,810,2022-01-16_12h38.14.422,multiplicationStroop,2021.2.3,Win32,59.89817311,,,,,left,1,0.7597,0,9,9,62,1,8,6,8 | 6,2,1.6933,1.6933,neutral,left,,,,,,stimulusFile/magnitude.xlsx,,,,,,,,,,,,,,,,,,,,,,,,,,,,,,,
,,,,,,,,,,,,,,,810,2022-01-16_12h38.14.422,multiplicationStroop,2021.2.3,Win32,59.89817311,,,,,left,1,0.6009,0,10,10,12,1,3,1,3 | 1,2,1.9756,1.4111,congruent,left,,,,,,stimulusFile/magnitude.xlsx,,,,,,,,,,,,,,,,,,,,,,,,,,,,,,,
,,,,,,,,,,,,,,,810,2022-01-16_12h38.14.422,multiplicationStroop,2021.2.3,Win32,59.89817311,,,,,right,1,0.5273,0,11,11,19,1,4,9,4 | 9,5,1.4111,1.9756,congruent,right,,,,,,stimulusFile/magnitude.xlsx,,,,,,,,,,,,,,,,,,,,,,,,,,,,,,,
,,,,,,,,,,,,,,,810,2022-01-16_12h38.14.422,multiplicationStroop,2021.2.3,Win32,59.89817311,,,,,left,1,0.7173,0,12,12,54,1,7,6,7 | 6,1,1.6933,1.6933,neutral,left,,,,,,stimulusFile/magnitude.xlsx,,,,,,,,,,,,,,,,,,,,,,,,,,,,,,,
,,,,,,,,,,,,,,,810,2022-01-16_12h38.14.422,multiplicationStroop,2021.2.3,Win32,59.89817311,,,,,left,1,0.5182,0,13,13,21,1,7,2,7 | 2,5,1.9756,1.4111,congruent,left,,,,,,stimulusFile/magnitude.xlsx,,,,,,,,,,,,,,,,,,,,,,,,,,,,,,,
,,,,,,,,,,,,,,,810,2022-01-16_12h38.14.422,multiplicationStroop,2021.2.3,Win32,59.89817311,,,,,right,1,0.6074,0,14,14,18,1,3,8,3 | 8,5,1.4111,1.9756,congruent,right,,,,,,stimulusFile/magnitude.xlsx,,,,,,,,,,,,,,,,,,,,,,,,,,,,,,,
,,,,,,,,,,,,,,,810,2022-01-16_12h38.14.422,multiplicationStroop,2021.2.3,Win32,59.89817311,,,,,left,1,0.6547,0,15,15,52,1,2,1,2 | 1,1,1.6933,1.6933,neutral,left,,,,,,stimulusFile/magnitude.xlsx,,,,,,,,,,,,,,,,,,,,,,,,,,,,,,,
,,,,,,,,,,,,,,,810,2022-01-16_12h38.14.422,multiplicationStroop,2021.2.3,Win32,59.89817311,,,,,right,1,0.4896,0,16,16,0,1,1,2,1 | 2,1,1.4111,1.9756,congruent,right,,,,,,stimulusFile/magnitude.xlsx,,,,,,,,,,,,,,,,,,,,,,,,,,,,,,,
,,,,,,,,,,,,,,,810,2022-01-16_12h38.14.422,multiplicationStroop,2021.2.3,Win32,59.89817311,,,,,left,1,0.534,0,17,17,5,1,4,3,4 | 3,1,1.9756,1.4111,congruent,left,,,,,,stimulusFile/magnitude.xlsx,,,,,,,,,,,,,,,,,,,,,,,,,,,,,,,
,,,,,,,,,,,,,,,810,2022-01-16_12h38.14.422,multiplicationStroop,2021.2.3,Win32,59.89817311,,,,,left,1,0.7837,0,18,18,38,1,8,6,8 | 6,2,1.4111,1.9756,incongruent,left,,,,,,stimulusFile/magnitude.xlsx,,,,,,,,,,,,,,,,,,,,,,,,,,,,,,,
,,,,,,,,,,,,,,,810,2022-01-16_12h38.14.422,multiplicationStroop,2021.2.3,Win32,59.89817311,,,,,left,1,0.5845,0,19,19,13,1,4,2,4 | 2,2,1.9756,1.4111,congruent,left,,,,,,stimulusFile/magnitude.xlsx,,,,,,,,,,,,,,,,,,,,,,,,,,,,,,,
,,,,,,,,,,,,,,,810,2022-01-16_12h38.14.422,multiplicationStroop,2021.2.3,Win32,59.89817311,,,,,left,1,0.4713,0,20,20,7,1,9,8,9 | 8,1,1.9756,1.4111,congruent,left,,,,,,stimulusFile/magnitude.xlsx,,,,,,,,,,,,,,,,,,,,,,,,,,,,,,,
,,,,,,,,,,,,,,,810,2022-01-16_12h38.14.422,multiplicationStroop,2021.2.3,Win32,59.89817311,,,,,right,1,0.818,0,21,21,42,1,3,8,3 | 8,5,1.9756,1.4111,incongruent,right,,,,,,stimulusFile/magnitude.xlsx,,,,,,,,,,,,,,,,,,,,,,,,,,,,,,,
,,,,,,,,,,,,,,,810,2022-01-16_12h38.14.422,multiplicationStroop,2021.2.3,Win32,59.89817311,,,,,right,1,0.6514,0,22,22,56,1,1,3,1 | 3,2,1.6933,1.6933,neutral,right,,,,,,stimulusFile/magnitude.xlsx,,,,,,,,,,,,,,,,,,,,,,,,,,,,,,,
,,,,,,,,,,,,,,,810,2022-01-16_12h38.14.422,multiplicationStroop,2021.2.3,Win32,59.89817311,,,,,left,1,0.4516,0,23,23,23,1,9,4,9 | 4,5,1.9756,1.4111,congruent,left,,,,,,stimulusFile/magnitude.xlsx,,,,,,,,,,,,,,,,,,,,,,,,,,,,,,,
,,,,,,,,,,,,,,,810,2022-01-16_12h38.14.422,multiplicationStroop,2021.2.3,Win32,59.89817311,,,,,right,1,0.9022,0,24,24,25,1,3,4,3 | 4,1,1.9756,1.4111,incongruent,right,,,,,,stimulusFile/magnitude.xlsx,,,,,,,,,,,,,,,,,,,,,,,,,,,,,,,
,,,,,,,,,,,,,,,810,2022-01-16_12h38.14.422,multiplicationStroop,2021.2.3,Win32,59.89817311,,,,,right,1,0.5244,0,25,25,9,1,2,4,2 | 4,2,1.4111,1.9756,congruent,right,,,,,,stimulusFile/magnitude.xlsx,,,,,,,,,,,,,,,,,,,,,,,,,,,,,,,
,,,,,,,,,,,,,,,810,2022-01-16_12h38.14.422,multiplicationStroop,2021.2.3,Win32,59.89817311,,,,,left,1,0.6398,0,26,26,55,1,9,8,9 | 8,1,1.6933,1.6933,neutral,left,,,,,,stimulusFile/magnitude.xlsx,,,,,,,,,,,,,,,,,,,,,,,,,,,,,,,
,,,,,,,,,,,,,,,810,2022-01-16_12h38.14.422,multiplicationStroop,2021.2.3,Win32,59.89817311,,,,,right,1,0.4676,0,27,27,17,1,2,7,2 | 7,5,1.4111,1.9756,congruent,right,,,,,,stimulusFile/magnitude.xlsx,,,,,,,,,,,,,,,,,,,,,,,,,,,,,,,
,,,,,,,,,,,,,,,810,2022-01-16_12h38.14.422,multiplicationStroop,2021.2.3,Win32,59.89817311,,,,,right,1,0.6345,0,28,28,59,1,7,9,7 | 9,2,1.6933,1.6933,neutral,right,,,,,,stimulusFile/magnitude.xlsx,,,,,,,,,,,,,,,,,,,,,,,,,,,,,,,
,,,,,,,,,,,,,,,810,2022-01-16_12h38.14.422,multiplicationStroop,2021.2.3,Win32,59.89817311,,,,,left,1,0.4685,0,29,29,4,1,2,1,2 | 1,1,1.9756,1.4111,congruent,left,,,,,,stimulusFile/magnitude.xlsx,,,,,,,,,,,,,,,,,,,,,,,,,,,,,,,
,,,,,,,,,,,,,,,810,2022-01-16_12h38.14.422,multiplicationStroop,2021.2.3,Win32,59.89817311,,,,,left,1,0.4595,0,30,30,14,1,8,6,8 | 6,2,1.9756,1.4111,congruent,left,,,,,,stimulusFile/magnitude.xlsx,,,,,,,,,,,,,,,,,,,,,,,,,,,,,,,
,,,,,,,,,,,,,,,810,2022-01-16_12h38.14.422,multiplicationStroop,2021.2.3,Win32,59.89817311,,,,,right,1,0.5381,0,31,31,58,1,6,8,6 | 8,2,1.6933,1.6933,neutral,right,,,,,,stimulusFile/magnitude.xlsx,,,,,,,,,,,,,,,,,,,,,,,,,,,,,,,
,,,,,,,,,,,,,,,810,2022-01-16_12h38.14.422,multiplicationStroop,2021.2.3,Win32,59.89817311,,,,,right,1,0.8513,0,32,32,32,1,1,3,1 | 3,2,1.9756,1.4111,incongruent,right,,,,,,stimulusFile/magnitude.xlsx,,,,,,,,,,,,,,,,,,,,,,,,,,,,,,,
,,,,,,,,,,,,,,,810,2022-01-16_12h38.14.422,multiplicationStroop,2021.2.3,Win32,59.89817311,,,,,left,1,0.4774,0,33,33,68,1,6,1,6 | 1,5,1.6933,1.6933,neutral,left,,,,,,stimulusFile/magnitude.xlsx,,,,,,,,,,,,,,,,,,,,,,,,,,,,,,,
,,,,,,,,,,,,,,,810,2022-01-16_12h38.14.422,multiplicationStroop,2021.2.3,Win32,59.89817311,,,,,left,1,0.8702,0,34,34,39,1,9,7,9 | 7,2,1.4111,1.9756,incongruent,left,,,,,,stimulusFile/magnitude.xlsx,,,,,,,,,,,,,,,,,,,,,,,,,,,,,,,
,,,,,,,,,,,,,,,810,2022-01-16_12h38.14.422,multiplicationStroop,2021.2.3,Win32,59.89817311,,,,,right,1,0.6063,0,35,35,51,1,8,9,8 | 9,1,1.6933,1.6933,neutral,right,,,,,,stimulusFile/magnitude.xlsx,,,,,,,,,,,,,,,,,,,,,,,,,,,,,,,
,,,,,,,,,,,,,,,810,2022-01-16_12h38.14.422,multiplicationStroop,2021.2.3,Win32,59.89817311,,,,,right,1,0.7701,0,36,36,24,1,1,2,1 | 2,1,1.9756,1.4111,incongruent,right,,,,,,stimulusFile/magnitude.xlsx,,,,,,,,,,,,,,,,,,,,,,,,,,,,,,,
,,,,,,,,,,,,,,,810,2022-01-16_12h38.14.422,multiplicationStroop,2021.2.3,Win32,59.89817311,,,,,right,1,0.501,0,37,37,11,1,7,9,7 | 9,2,1.4111,1.9756,congruent,right,,,,,,stimulusFile/magnitude.xlsx,,,,,,,,,,,,,,,,,,,,,,,,,,,,,,,
,,,,,,,,,,,,,,,810,2022-01-16_12h38.14.422,multiplicationStroop,2021.2.3,Win32,59.89817311,,,,,left,1,0.9034,0,38,38,28,1,2,1,2 | 1,1,1.4111,1.9756,incongruent,left,,,,,,stimulusFile/magnitude.xlsx,,,,,,,,,,,,,,,,,,,,,,,,,,,,,,,
,,,,,,,,,,,,,,,810,2022-01-16_12h38.14.422,multiplicationStroop,2021.2.3,Win32,59.89817311,,,,,left,1,0.5376,0,39,39,44,1,6,1,6 | 1,5,1.4111,1.9756,incongruent,left,,,,,,stimulusFile/magnitude.xlsx,,,,,,,,,,,,,,,,,,,,,,,,,,,,,,,
,,,,,,,,,,,,,,,810,2022-01-16_12h38.14.422,multiplicationStroop,2021.2.3,Win32,59.89817311,,,,,right,1,0.5267,0,40,40,40,1,1,6,1 | 6,5,1.9756,1.4111,incongruent,right,,,,,,stimulusFile/magnitude.xlsx,,,,,,,,,,,,,,,,,,,,,,,,,,,,,,,
,,,,,,,,,,,,,,,810,2022-01-16_12h38.14.422,multiplicationStroop,2021.2.3,Win32,59.89817311,,,,,right,1,0.4946,0,41,41,16,1,1,6,1 | 6,5,1.4111,1.9756,congruent,right,,,,,,stimulusFile/magnitude.xlsx,,,,,,,,,,,,,,,,,,,,,,,,,,,,,,,
,,,,,,,,,,,,,,,810,2022-01-16_12h38.14.422,multiplicationStroop,2021.2.3,Win32,59.89817311,,,,,left,1,0.5244,0,42,42,69,1,7,2,7 | 2,5,1.6933,1.6933,neutral,left,,,,,,stimulusFile/magnitude.xlsx,,,,,,,,,,,,,,,,,,,,,,,,,,,,,,,
,,,,,,,,,,,,,,,810,2022-01-16_12h38.14.422,multiplicationStroop,2021.2.3,Win32,59.89817311,,,,,right,1,0.7373,0,43,43,27,1,8,9,8 | 9,1,1.9756,1.4111,incongruent,right,,,,,,stimulusFile/magnitude.xlsx,,,,,,,,,,,,,,,,,,,,,,,,,,,,,,,
,,,,,,,,,,,,,,,810,2022-01-16_12h38.14.422,multiplicationStroop,2021.2.3,Win32,59.89817311,,,,,right,1,0.6685,0,44,44,57,1,2,4,2 | 4,2,1.6933,1.6933,neutral,right,,,,,,stimulusFile/magnitude.xlsx,,,,,,,,,,,,,,,,,,,,,,,,,,,,,,,
,,,,,,,,,,,,,,,810,2022-01-16_12h38.14.422,multiplicationStroop,2021.2.3,Win32,59.89817311,,,,,right,1,0.8511,0,45,45,49,1,3,4,3 | 4,1,1.6933,1.6933,neutral,right,,,,,,stimulusFile/magnitude.xlsx,,,,,,,,,,,,,,,,,,,,,,,,,,,,,,,
,,,,,,,,,,,,,,,810,2022-01-16_12h38.14.422,multiplicationStroop,2021.2.3,Win32,59.89817311,,,,,left,1,0.6843,0,46,46,37,1,4,2,4 | 2,2,1.4111,1.9756,incongruent,left,,,,,,stimulusFile/magnitude.xlsx,,,,,,,,,,,,,,,,,,,,,,,,,,,,,,,
,,,,,,,,,,,,,,,810,2022-01-16_12h38.14.422,multiplicationStroop,2021.2.3,Win32,59.89817311,,,,,right,1,0.5382,0,47,47,65,1,2,7,2 | 7,5,1.6933,1.6933,neutral,right,,,,,,stimulusFile/magnitude.xlsx,,,,,,,,,,,,,,,,,,,,,,,,,,,,,,,
,,,,,,,,,,,,,,,810,2022-01-16_12h38.14.422,multiplicationStroop,2021.2.3,Win32,59.89817311,,,,,left,1,0.6343,0,48,48,46,1,8,3,8 | 3,5,1.4111,1.9756,incongruent,left,,,,,,stimulusFile/magnitude.xlsx,,,,,,,,,,,,,,,,,,,,,,,,,,,,,,,
,,,,,,,,,,,,,,,810,2022-01-16_12h38.14.422,multiplicationStroop,2021.2.3,Win32,59.89817311,,,,,right,1,0.4847,0,49,49,8,1,1,3,1 | 3,2,1.4111,1.9756,congruent,right,,,,,,stimulusFile/magnitude.xlsx,,,,,,,,,,,,,,,,,,,,,,,,,,,,,,,
,,,,,,,,,,,,,,,810,2022-01-16_12h38.14.422,multiplicationStroop,2021.2.3,Win32,59.89817311,,,,,left,0,0.4675,0,50,50,26,1,6,7,6 | 7,1,1.9756,1.4111,incongruent,right,,,,,,stimulusFile/magnitude.xlsx,,,,,,,,,,,,,,,,,,,,,,,,,,,,,,,
,,,,,,,,,,,,,,,810,2022-01-16_12h38.14.422,multiplicationStroop,2021.2.3,Win32,59.89817311,,,,,right,1,0.5747,0,51,51,1,1,3,4,3 | 4,1,1.4111,1.9756,congruent,right,,,,,,stimulusFile/magnitude.xlsx,,,,,,,,,,,,,,,,,,,,,,,,,,,,,,,
,,,,,,,,,,,,,,,810,2022-01-16_12h38.14.422,multiplicationStroop,2021.2.3,Win32,59.89817311,,,,,left,1,0.6712,0,52,52,36,1,3,1,3 | 1,2,1.4111,1.9756,incongruent,left,,,,,,stimulusFile/magnitude.xlsx,,,,,,,,,,,,,,,,,,,,,,,,,,,,,,,
,,,,,,,,,,,,,,,810,2022-01-16_12h38.14.422,multiplicationStroop,2021.2.3,Win32,59.89817311,,,,,right,1,0.4664,0,53,53,64,1,1,6,1 | 6,5,1.6933,1.6933,neutral,right,,,,,,stimulusFile/magnitude.xlsx,,,,,,,,,,,,,,,,,,,,,,,,,,,,,,,
,,,,,,,,,,,,,,,810,2022-01-16_12h38.14.422,multiplicationStroop,2021.2.3,Win32,59.89817311,,,,,left,1,0.4237,0,54,54,61,1,4,2,4 | 2,2,1.6933,1.6933,neutral,left,,,,,,stimulusFile/magnitude.xlsx,,,,,,,,,,,,,,,,,,,,,,,,,,,,,,,
,,,,,,,,,,,,,,,810,2022-01-16_12h38.14.422,multiplicationStroop,2021.2.3,Win32,59.89817311,,,,,left,1,0.4371,0,55,55,70,1,8,3,8 | 3,5,1.6933,1.6933,neutral,left,,,,,,stimulusFile/magnitude.xlsx,,,,,,,,,,,,,,,,,,,,,,,,,,,,,,,
,,,,,,,,,,,,,,,810,2022-01-16_12h38.14.422,multiplicationStroop,2021.2.3,Win32,59.89817311,,,,,right,1,0.6892,0,56,56,2,1,6,7,6 | 7,1,1.4111,1.9756,congruent,right,,,,,,stimulusFile/magnitude.xlsx,,,,,,,,,,,,,,,,,,,,,,,,,,,,,,,
,,,,,,,,,,,,,,,810,2022-01-16_12h38.14.422,multiplicationStroop,2021.2.3,Win32,59.89817311,,,,,left,0,0.5617,0,57,57,33,1,2,4,2 | 4,2,1.9756,1.4111,incongruent,right,,,,,,stimulusFile/magnitude.xlsx,,,,,,,,,,,,,,,,,,,,,,,,,,,,,,,
,,,,,,,,,,,,,,,810,2022-01-16_12h38.14.422,multiplicationStroop,2021.2.3,Win32,59.89817311,,,,,right,1,0.6672,0,58,58,66,1,3,8,3 | 8,5,1.6933,1.6933,neutral,right,,,,,,stimulusFile/magnitude.xlsx,,,,,,,,,,,,,,,,,,,,,,,,,,,,,,,
,,,,,,,,,,,,,,,810,2022-01-16_12h38.14.422,multiplicationStroop,2021.2.3,Win32,59.89817311,,,,,right,1,0.501,0,59,59,10,1,6,8,6 | 8,2,1.4111,1.9756,congruent,right,,,,,,stimulusFile/magnitude.xlsx,,,,,,,,,,,,,,,,,,,,,,,,,,,,,,,
,,,,,,,,,,,,,,,810,2022-01-16_12h38.14.422,multiplicationStroop,2021.2.3,Win32,59.89817311,,,,,left,1,0.5361,0,60,60,47,1,9,4,9 | 4,5,1.4111,1.9756,incongruent,left,,,,,,stimulusFile/magnitude.xlsx,,,,,,,,,,,,,,,,,,,,,,,,,,,,,,,
,,,,,,,,,,,,,,,810,2022-01-16_12h38.14.422,multiplicationStroop,2021.2.3,Win32,59.89817311,,,,,right,0,0.5866,0,61,61,29,1,4,3,4 | 3,1,1.4111,1.9756,incongruent,left,,,,,,stimulusFile/magnitude.xlsx,,,,,,,,,,,,,,,,,,,,,,,,,,,,,,,
,,,,,,,,,,,,,,,810,2022-01-16_12h38.14.422,multiplicationStroop,2021.2.3,Win32,59.89817311,,,,,left,1,0.5344,0,62,62,63,1,9,7,9 | 7,2,1.6933,1.6933,neutral,left,,,,,,stimulusFile/magnitude.xlsx,,,,,,,,,,,,,,,,,,,,,,,,,,,,,,,
,,,,,,,,,,,,,,,810,2022-01-16_12h38.14.422,multiplicationStroop,2021.2.3,Win32,59.89817311,,,,,right,1,0.5243,0,63,63,3,1,8,9,8 | 9,1,1.4111,1.9756,congruent,right,,,,,,stimulusFile/magnitude.xlsx,,,,,,,,,,,,,,,,,,,,,,,,,,,,,,,
,,,,,,,,,,,,,,,810,2022-01-16_12h38.14.422,multiplicationStroop,2021.2.3,Win32,59.89817311,,,,,left,1,0.5246,0,64,64,53,1,4,3,4 | 3,1,1.6933,1.6933,neutral,left,,,,,,stimulusFile/magnitude.xlsx,,,,,,,,,,,,,,,,,,,,,,,,,,,,,,,
,,,,,,,,,,,,,,,810,2022-01-16_12h38.14.422,multiplicationStroop,2021.2.3,Win32,59.89817311,,,,,left,1,0.5221,0,65,65,45,1,7,2,7 | 2,5,1.4111,1.9756,incongruent,left,,,,,,stimulusFile/magnitude.xlsx,,,,,,,,,,,,,,,,,,,,,,,,,,,,,,,
,,,,,,,,,,,,,,,810,2022-01-16_12h38.14.422,multiplicationStroop,2021.2.3,Win32,59.89817311,,,,,right,1,0.5239,0,66,66,43,1,4,9,4 | 9,5,1.9756,1.4111,incongruent,right,,,,,,stimulusFile/magnitude.xlsx,,,,,,,,,,,,,,,,,,,,,,,,,,,,,,,
,,,,,,,,,,,,,,,810,2022-01-16_12h38.14.422,multiplicationStroop,2021.2.3,Win32,59.89817311,,,,,right,1,0.5512,0,67,67,41,1,2,7,2 | 7,5,1.9756,1.4111,incongruent,right,,,,,,stimulusFile/magnitude.xlsx,,,,,,,,,,,,,,,,,,,,,,,,,,,,,,,
,,,,,,,,,,,,,,,810,2022-01-16_12h38.14.422,multiplicationStroop,2021.2.3,Win32,59.89817311,,,,,right,1,0.5844,0,68,68,48,1,1,2,1 | 2,1,1.6933,1.6933,neutral,right,,,,,,stimulusFile/magnitude.xlsx,,,,,,,,,,,,,,,,,,,,,,,,,,,,,,,
,,,,,,,,,,,,,,,810,2022-01-16_12h38.14.422,multiplicationStroop,2021.2.3,Win32,59.89817311,,,,,left,1,0.4177,0,69,69,15,1,9,7,9 | 7,2,1.9756,1.4111,congruent,left,,,,,,stimulusFile/magnitude.xlsx,,,,,,,,,,,,,,,,,,,,,,,,,,,,,,,
,,,,,,,,,,,,,,,810,2022-01-16_12h38.14.422,multiplicationStroop,2021.2.3,Win32,59.89817311,,,,,left,1,0.6195,0,70,70,6,1,7,6,7 | 6,1,1.9756,1.4111,congruent,left,,,,,,stimulusFile/magnitude.xlsx,,,,,,,,,,,,,,,,,,,,,,,,,,,,,,,
,,,,,,,,,,,,,,,810,2022-01-16_12h38.14.422,multiplicationStroop,2021.2.3,Win32,59.89817311,,,,,left,1,0.3906,0,71,71,71,1,9,4,9 | 4,5,1.6933,1.6933,neutral,left,,,,,,stimulusFile/magnitude.xlsx,,,,,,,,,,,,,,,,,,,,,,,,,,,,,,,
,,,,,,,,,,,,,,,810,2022-01-16_12h38.14.422,multiplicationStroop,2021.2.3,Win32,59.89817311,,,,,,,,,,,,,,,,,,,,,0,0,0,0,1,stimulusFile/magnitude.xlsx,NUMERICALLY larger (larger coefficient).,images/numericallyLarger.png,,,,,,,,,,,,,,,,,,,,,,,,,,,,,
,,,,,,,,,,,,,,,810,2022-01-16_12h38.14.422,multiplicationStroop,2021.2.3,Win32,59.89817311,space,7.501,space,5.0071,right,1,0.8383,0,0,0,29,1,4,3,4 | 3,1,1.4111,1.9756,incongruent,right,,,,,,stimulusFile/physical.xlsx,,,,,,,,,,,,,,,,,,,,,,,,,,,,,,,
,,,,,,,,,,,,,,,810,2022-01-16_12h38.14.422,multiplicationStroop,2021.2.3,Win32,59.89817311,,,,,left,1,0.5128,0,1,1,22,1,8,3,8 | 3,5,1.9756,1.4111,congruent,left,,,,,,stimulusFile/physical.xlsx,,,,,,,,,,,,,,,,,,,,,,,,,,,,,,,
,,,,,,,,,,,,,,,810,2022-01-16_12h38.14.422,multiplicationStroop,2021.2.3,Win32,59.89817311,,,,,right,1,0.5118,0,2,2,60,1,3,3,3 | 3,0,1.4111,1.9756,neutral,right,,,,,,stimulusFile/physical.xlsx,,,,,,,,,,,,,,,,,,,,,,,,,,,,,,,
,,,,,,,,,,,,,,,810,2022-01-16_12h38.14.422,multiplicationStroop,2021.2.3,Win32,59.89817311,,,,,right,0,0.5704,0,3,3,49,1,3,3,3 | 3,0,1.9756,1.4111,neutral,left,,,,,,stimulusFile/physical.xlsx,,,,,,,,,,,,,,,,,,,,,,,,,,,,,,,
,,,,,,,,,,,,,,,810,2022-01-16_12h38.14.422,multiplicationStroop,2021.2.3,Win32,59.89817311,,,,,right,1,0.5204,0,4,4,61,1,4,4,4 | 4,0,1.4111,1.9756,neutral,right,,,,,,stimulusFile/physical.xlsx,,,,,,,,,,,,,,,,,,,,,,,,,,,,,,,
,,,,,,,,,,,,,,,810,2022-01-16_12h38.14.422,multiplicationStroop,2021.2.3,Win32,59.89817311,,,,,left,1,0.5232,0,5,5,50,1,6,6,6 | 6,0,1.9756,1.4111,neutral,left,,,,,,stimulusFile/physical.xlsx,,,,,,,,,,,,,,,,,,,,,,,,,,,,,,,
,,,,,,,,,,,,,,,810,2022-01-16_12h38.14.422,multiplicationStroop,2021.2.3,Win32,59.89817311,,,,,right,1,0.5068,0,6,6,30,1,7,6,7 | 6,1,1.4111,1.9756,incongruent,right,,,,,,stimulusFile/physical.xlsx,,,,,,,,,,,,,,,,,,,,,,,,,,,,,,,
,,,,,,,,,,,,,,,810,2022-01-16_12h38.14.422,multiplicationStroop,2021.2.3,Win32,59.89817311,,,,,left,1,0.453,0,7,7,27,1,8,9,8 | 9,1,1.9756,1.4111,incongruent,left,,,,,,stimulusFile/physical.xlsx,,,,,,,,,,,,,,,,,,,,,,,,,,,,,,,
,,,,,,,,,,,,,,,810,2022-01-16_12h38.14.422,multiplicationStroop,2021.2.3,Win32,59.89817311,,,,,left,1,0.5001,0,8,8,34,1,6,8,6 | 8,2,1.9756,1.4111,incongruent,left,,,,,,stimulusFile/physical.xlsx,,,,,,,,,,,,,,,,,,,,,,,,,,,,,,,
,,,,,,,,,,,,,,,810,2022-01-16_12h38.14.422,multiplicationStroop,2021.2.3,Win32,59.89817311,,,,,left,1,0.5178,0,9,9,5,1,4,3,4 | 3,1,1.9756,1.4111,congruent,left,,,,,,stimulusFile/physical.xlsx,,,,,,,,,,,,,,,,,,,,,,,,,,,,,,,
,,,,,,,,,,,,,,,810,2022-01-16_12h38.14.422,multiplicationStroop,2021.2.3,Win32,59.89817311,,,,,left,1,0.5617,0,10,10,40,1,1,6,1 | 6,5,1.9756,1.4111,incongruent,left,,,,,,stimulusFile/physical.xlsx,,,,,,,,,,,,,,,,,,,,,,,,,,,,,,,
,,,,,,,,,,,,,,,810,2022-01-16_12h38.14.422,multiplicationStroop,2021.2.3,Win32,59.89817311,,,,,left,1,0.5161,0,11,11,6,1,7,6,7 | 6,1,1.9756,1.4111,congruent,left,,,,,,stimulusFile/physical.xlsx,,,,,,,,,,,,,,,,,,,,,,,,,,,,,,,
,,,,,,,,,,,,,,,810,2022-01-16_12h38.14.422,multiplicationStroop,2021.2.3,Win32,59.89817311,,,,,left,1,0.4346,0,12,12,20,1,6,1,6 | 1,5,1.9756,1.4111,congruent,left,,,,,,stimulusFile/physical.xlsx,,,,,,,,,,,,,,,,,,,,,,,,,,,,,,,
,,,,,,,,,,,,,,,810,2022-01-16_12h38.14.422,multiplicationStroop,2021.2.3,Win32,59.89817311,,,,,left,1,0.5238,0,13,13,4,1,2,1,2 | 1,1,1.9756,1.4111,congruent,left,,,,,,stimulusFile/physical.xlsx,,,,,,,,,,,,,,,,,,,,,,,,,,,,,,,
,,,,,,,,,,,,,,,810,2022-01-16_12h38.14.422,multiplicationStroop,2021.2.3,Win32,59.89817311,,,,,left,1,0.4958,0,14,14,14,1,8,6,8 | 6,2,1.9756,1.4111,congruent,left,,,,,,stimulusFile/physical.xlsx,,,,,,,,,,,,,,,,,,,,,,,,,,,,,,,
,,,,,,,,,,,,,,,810,2022-01-16_12h38.14.422,multiplicationStroop,2021.2.3,Win32,59.89817311,,,,,right,1,0.4999,0,15,15,37,1,4,2,4 | 2,2,1.4111,1.9756,incongruent,right,,,,,,stimulusFile/physical.xlsx,,,,,,,,,,,,,,,,,,,,,,,,,,,,,,,
,,,,,,,,,,,,,,,810,2022-01-16_12h38.14.422,multiplicationStroop,2021.2.3,Win32,59.89817311,,,,,right,1,0.4894,0,16,16,9,1,2,4,2 | 4,2,1.4111,1.9756,congruent,right,,,,,,stimulusFile/physical.xlsx,,,,,,,,,,,,,,,,,,,,,,,,,,,,,,,
,,,,,,,,,,,,,,,810,2022-01-16_12h38.14.422,multiplicationStroop,2021.2.3,Win32,59.89817311,,,,,left,1,0.4056,0,17,17,51,1,8,8,8 | 8,0,1.9756,1.4111,neutral,left,,,,,,stimulusFile/physical.xlsx,,,,,,,,,,,,,,,,,,,,,,,,,,,,,,,
,,,,,,,,,,,,,,,810,2022-01-16_12h38.14.422,multiplicationStroop,2021.2.3,Win32,59.89817311,,,,,right,1,0.4993,0,18,18,62,1,8,8,8 | 8,0,1.4111,1.9756,neutral,right,,,,,,stimulusFile/physical.xlsx,,,,,,,,,,,,,,,,,,,,,,,,,,,,,,,
,,,,,,,,,,,,,,,810,2022-01-16_12h38.14.422,multiplicationStroop,2021.2.3,Win32,59.89817311,,,,,right,1,0.5854,0,19,19,31,1,9,8,9 | 8,1,1.4111,1.9756,incongruent,right,,,,,,stimulusFile/physical.xlsx,,,,,,,,,,,,,,,,,,,,,,,,,,,,,,,
,,,,,,,,,,,,,,,810,2022-01-16_12h38.14.422,multiplicationStroop,2021.2.3,Win32,59.89817311,,,,,left,1,0.5323,0,20,20,55,1,9,9,9 | 9,0,1.9756,1.4111,neutral,left,,,,,,stimulusFile/physical.xlsx,,,,,,,,,,,,,,,,,,,,,,,,,,,,,,,
,,,,,,,,,,,,,,,810,2022-01-16_12h38.14.422,multiplicationStroop,2021.2.3,Win32,59.89817311,,,,,right,1,0.5514,0,21,21,56,1,1,1,1 | 1,0,1.4111,1.9756,neutral,right,,,,,,stimulusFile/physical.xlsx,,,,,,,,,,,,,,,,,,,,,,,,,,,,,,,
,,,,,,,,,,,,,,,810,2022-01-16_12h38.14.422,multiplicationStroop,2021.2.3,Win32,59.89817311,,,,,left,1,0.4154,0,22,22,13,1,4,2,4 | 2,2,1.9756,1.4111,congruent,left,,,,,,stimulusFile/physical.xlsx,,,,,,,,,,,,,,,,,,,,,,,,,,,,,,,
,,,,,,,,,,,,,,,810,2022-01-16_12h38.14.422,multiplicationStroop,2021.2.3,Win32,59.89817311,,,,,right,1,0.679,0,23,23,46,1,8,3,8 | 3,5,1.4111,1.9756,incongruent,right,,,,,,stimulusFile/physical.xlsx,,,,,,,,,,,,,,,,,,,,,,,,,,,,,,,
,,,,,,,,,,,,,,,810,2022-01-16_12h38.14.422,multiplicationStroop,2021.2.3,Win32,59.89817311,,,,,right,1,0.4955,0,24,24,63,1,9,9,9 | 9,0,1.4111,1.9756,neutral,right,,,,,,stimulusFile/physical.xlsx,,,,,,,,,,,,,,,,,,,,,,,,,,,,,,,
,,,,,,,,,,,,,,,810,2022-01-16_12h38.14.422,multiplicationStroop,2021.2.3,Win32,59.89817311,,,,,left,1,0.5143,0,25,25,54,1,7,7,7 | 7,0,1.9756,1.4111,neutral,left,,,,,,stimulusFile/physical.xlsx,,,,,,,,,,,,,,,,,,,,,,,,,,,,,,,
,,,,,,,,,,,,,,,810,2022-01-16_12h38.14.422,multiplicationStroop,2021.2.3,Win32,59.89817311,,,,,right,1,0.4459,0,26,26,57,1,2,2,2 | 2,0,1.4111,1.9756,neutral,right,,,,,,stimulusFile/physical.xlsx,,,,,,,,,,,,,,,,,,,,,,,,,,,,,,,
,,,,,,,,,,,,,,,810,2022-01-16_12h38.14.422,multiplicationStroop,2021.2.3,Win32,59.89817311,,,,,right,1,0.6321,0,27,27,1,1,3,4,3 | 4,1,1.4111,1.9756,congruent,right,,,,,,stimulusFile/physical.xlsx,,,,,,,,,,,,,,,,,,,,,,,,,,,,,,,
,,,,,,,,,,,,,,,810,2022-01-16_12h38.14.422,multiplicationStroop,2021.2.3,Win32,59.89817311,,,,,left,1,0.4623,0,28,28,41,1,2,7,2 | 7,5,1.9756,1.4111,incongruent,left,,,,,,stimulusFile/physical.xlsx,,,,,,,,,,,,,,,,,,,,,,,,,,,,,,,
,,,,,,,,,,,,,,,810,2022-01-16_12h38.14.422,multiplicationStroop,2021.2.3,Win32,59.89817311,,,,,left,1,0.4509,0,29,29,23,1,9,4,9 | 4,5,1.9756,1.4111,congruent,left,,,,,,stimulusFile/physical.xlsx,,,,,,,,,,,,,,,,,,,,,,,,,,,,,,,
,,,,,,,,,,,,,,,810,2022-01-16_12h38.14.422,multiplicationStroop,2021.2.3,Win32,59.89817311,,,,,left,1,0.4683,0,30,30,32,1,1,3,1 | 3,2,1.9756,1.4111,incongruent,left,,,,,,stimulusFile/physical.xlsx,,,,,,,,,,,,,,,,,,,,,,,,,,,,,,,
,,,,,,,,,,,,,,,810,2022-01-16_12h38.14.422,multiplicationStroop,2021.2.3,Win32,59.89817311,,,,,left,1,0.3859,0,31,31,26,1,6,7,6 | 7,1,1.9756,1.4111,incongruent,left,,,,,,stimulusFile/physical.xlsx,,,,,,,,,,,,,,,,,,,,,,,,,,,,,,,
,,,,,,,,,,,,,,,810,2022-01-16_12h38.14.422,multiplicationStroop,2021.2.3,Win32,59.89817311,,,,,right,1,0.6636,0,32,32,36,1,3,1,3 | 1,2,1.4111,1.9756,incongruent,right,,,,,,stimulusFile/physical.xlsx,,,,,,,,,,,,,,,,,,,,,,,,,,,,,,,
,,,,,,,,,,,,,,,810,2022-01-16_12h38.14.422,multiplicationStroop,2021.2.3,Win32,59.89817311,,,,,left,1,0.3685,0,33,33,42,1,3,8,3 | 8,5,1.9756,1.4111,incongruent,left,,,,,,stimulusFile/physical.xlsx,,,,,,,,,,,,,,,,,,,,,,,,,,,,,,,
,,,,,,,,,,,,,,,810,2022-01-16_12h38.14.422,multiplicationStroop,2021.2.3,Win32,59.89817311,,,,,right,1,0.4382,0,34,34,65,1,2,2,2 | 2,0,1.4111,1.9756,neutral,right,,,,,,stimulusFile/physical.xlsx,,,,,,,,,,,,,,,,,,,,,,,,,,,,,,,
,,,,,,,,,,,,,,,810,2022-01-16_12h38.14.422,multiplicationStroop,2021.2.3,Win32,59.89817311,,,,,left,1,0.4446,0,35,35,68,1,6,6,6 | 6,0,1.9756,1.4111,neutral,left,,,,,,stimulusFile/physical.xlsx,,,,,,,,,,,,,,,,,,,,,,,,,,,,,,,
,,,,,,,,,,,,,,,810,2022-01-16_12h38.14.422,multiplicationStroop,2021.2.3,Win32,59.89817311,,,,,right,1,0.4364,0,36,36,19,1,4,9,4 | 9,5,1.4111,1.9756,congruent,right,,,,,,stimulusFile/physical.xlsx,,,,,,,,,,,,,,,,,,,,,,,,,,,,,,,
,,,,,,,,,,,,,,,810,2022-01-16_12h38.14.422,multiplicationStroop,2021.2.3,Win32,59.89817311,,,,,left,1,0.4024,0,37,37,12,1,3,1,3 | 1,2,1.9756,1.4111,congruent,left,,,,,,stimulusFile/physical.xlsx,,,,,,,,,,,,,,,,,,,,,,,,,,,,,,,
,,,,,,,,,,,,,,,810,2022-01-16_12h38.14.422,multiplicationStroop,2021.2.3,Win32,59.89817311,,,,,right,0,0.3256,0,38,38,71,1,9,9,9 | 9,0,1.4111,1.9756,neutral,left,,,,,,stimulusFile/physical.xlsx,,,,,,,,,,,,,,,,,,,,,,,,,,,,,,,
,,,,,,,,,,,,,,,810,2022-01-16_12h38.14.422,multiplicationStroop,2021.2.3,Win32,59.89817311,,,,,left,1,0.4459,0,39,39,70,1,8,8,8 | 8,0,1.9756,1.4111,neutral,left,,,,,,stimulusFile/physical.xlsx,,,,,,,,,,,,,,,,,,,,,,,,,,,,,,,
,,,,,,,,,,,,,,,810,2022-01-16_12h38.14.422,multiplicationStroop,2021.2.3,Win32,59.89817311,,,,,right,1,0.5682,0,40,40,44,1,6,1,6 | 1,5,1.4111,1.9756,incongruent,right,,,,,,stimulusFile/physical.xlsx,,,,,,,,,,,,,,,,,,,,,,,,,,,,,,,
,,,,,,,,,,,,,,,810,2022-01-16_12h38.14.422,multiplicationStroop,2021.2.3,Win32,59.89817311,,,,,left,1,0.4553,0,41,41,35,1,7,9,7 | 9,2,1.9756,1.4111,incongruent,left,,,,,,stimulusFile/physical.xlsx,,,,,,,,,,,,,,,,,,,,,,,,,,,,,,,
,,,,,,,,,,,,,,,810,2022-01-16_12h38.14.422,multiplicationStroop,2021.2.3,Win32,59.89817311,,,,,left,1,0.4728,0,42,42,48,1,1,1,1 | 1,0,1.9756,1.4111,neutral,left,,,,,,stimulusFile/physical.xlsx,,,,,,,,,,,,,,,,,,,,,,,,,,,,,,,
,,,,,,,,,,,,,,,810,2022-01-16_12h38.14.422,multiplicationStroop,2021.2.3,Win32,59.89817311,,,,,right,1,0.5012,0,43,43,0,1,1,2,1 | 2,1,1.4111,1.9756,congruent,right,,,,,,stimulusFile/physical.xlsx,,,,,,,,,,,,,,,,,,,,,,,,,,,,,,,
,,,,,,,,,,,,,,,810,2022-01-16_12h38.14.422,multiplicationStroop,2021.2.3,Win32,59.89817311,,,,,left,1,0.4197,0,44,44,7,1,9,8,9 | 8,1,1.9756,1.4111,congruent,left,,,,,,stimulusFile/physical.xlsx,,,,,,,,,,,,,,,,,,,,,,,,,,,,,,,
,,,,,,,,,,,,,,,810,2022-01-16_12h38.14.422,multiplicationStroop,2021.2.3,Win32,59.89817311,,,,,right,1,0.4152,0,45,45,16,1,1,6,1 | 6,5,1.4111,1.9756,congruent,right,,,,,,stimulusFile/physical.xlsx,,,,,,,,,,,,,,,,,,,,,,,,,,,,,,,
,,,,,,,,,,,,,,,810,2022-01-16_12h38.14.422,multiplicationStroop,2021.2.3,Win32,59.89817311,,,,,right,1,0.5038,0,46,46,18,1,3,8,3 | 8,5,1.4111,1.9756,congruent,right,,,,,,stimulusFile/physical.xlsx,,,,,,,,,,,,,,,,,,,,,,,,,,,,,,,
,,,,,,,,,,,,,,,810,2022-01-16_12h38.14.422,multiplicationStroop,2021.2.3,Win32,59.89817311,,,,,right,1,0.4805,0,47,47,10,1,6,8,6 | 8,2,1.4111,1.9756,congruent,right,,,,,,stimulusFile/physical.xlsx,,,,,,,,,,,,,,,,,,,,,,,,,,,,,,,
,,,,,,,,,,,,,,,810,2022-01-16_12h38.14.422,multiplicationStroop,2021.2.3,Win32,59.89817311,,,,,right,0,0.5012,0,48,48,69,1,7,7,7 | 7,0,1.4111,1.9756,neutral,left,,,,,,stimulusFile/physical.xlsx,,,,,,,,,,,,,,,,,,,,,,,,,,,,,,,
,,,,,,,,,,,,,,,810,2022-01-16_12h38.14.422,multiplicationStroop,2021.2.3,Win32,59.89817311,,,,,right,1,0.47,0,49,49,38,1,8,6,8 | 6,2,1.4111,1.9756,incongruent,right,,,,,,stimulusFile/physical.xlsx,,,,,,,,,,,,,,,,,,,,,,,,,,,,,,,
,,,,,,,,,,,,,,,810,2022-01-16_12h38.14.422,multiplicationStroop,2021.2.3,Win32,59.89817311,,,,,right,1,0.4825,0,50,50,28,1,2,1,2 | 1,1,1.4111,1.9756,incongruent,right,,,,,,stimulusFile/physical.xlsx,,,,,,,,,,,,,,,,,,,,,,,,,,,,,,,
,,,,,,,,,,,,,,,810,2022-01-16_12h38.14.422,multiplicationStroop,2021.2.3,Win32,59.89817311,,,,,left,1,0.4334,0,51,51,15,1,9,7,9 | 7,2,1.9756,1.4111,congruent,left,,,,,,stimulusFile/physical.xlsx,,,,,,,,,,,,,,,,,,,,,,,,,,,,,,,
,,,,,,,,,,,,,,,810,2022-01-16_12h38.14.422,multiplicationStroop,2021.2.3,Win32,59.89817311,,,,,left,1,0.3836,0,52,52,43,1,4,9,4 | 9,5,1.9756,1.4111,incongruent,left,,,,,,stimulusFile/physical.xlsx,,,,,,,,,,,,,,,,,,,,,,,,,,,,,,,
,,,,,,,,,,,,,,,810,2022-01-16_12h38.14.422,multiplicationStroop,2021.2.3,Win32,59.89817311,,,,,right,1,0.6343,0,53,53,45,1,7,2,7 | 2,5,1.4111,1.9756,incongruent,right,,,,,,stimulusFile/physical.xlsx,,,,,,,,,,,,,,,,,,,,,,,,,,,,,,,
,,,,,,,,,,,,,,,810,2022-01-16_12h38.14.422,multiplicationStroop,2021.2.3,Win32,59.89817311,,,,,left,1,0.4351,0,54,54,52,1,2,2,2 | 2,0,1.9756,1.4111,neutral,left,,,,,,stimulusFile/physical.xlsx,,,,,,,,,,,,,,,,,,,,,,,,,,,,,,,
,,,,,,,,,,,,,,,810,2022-01-16_12h38.14.422,multiplicationStroop,2021.2.3,Win32,59.89817311,,,,,right,1,0.5026,0,55,55,47,1,9,4,9 | 4,5,1.4111,1.9756,incongruent,right,,,,,,stimulusFile/physical.xlsx,,,,,,,,,,,,,,,,,,,,,,,,,,,,,,,
,,,,,,,,,,,,,,,810,2022-01-16_12h38.14.422,multiplicationStroop,2021.2.3,Win32,59.89817311,,,,,right,1,0.5006,0,56,56,58,1,6,6,6 | 6,0,1.4111,1.9756,neutral,right,,,,,,stimulusFile/physical.xlsx,,,,,,,,,,,,,,,,,,,,,,,,,,,,,,,
,,,,,,,,,,,,,,,810,2022-01-16_12h38.14.422,multiplicationStroop,2021.2.3,Win32,59.89817311,,,,,right,1,0.4398,0,57,57,17,1,2,7,2 | 7,5,1.4111,1.9756,congruent,right,,,,,,stimulusFile/physical.xlsx,,,,,,,,,,,,,,,,,,,,,,,,,,,,,,,
,,,,,,,,,,,,,,,810,2022-01-16_12h38.14.422,multiplicationStroop,2021.2.3,Win32,59.89817311,,,,,right,1,0.4678,0,58,58,3,1,8,9,8 | 9,1,1.4111,1.9756,congruent,right,,,,,,stimulusFile/physical.xlsx,,,,,,,,,,,,,,,,,,,,,,,,,,,,,,,
,,,,,,,,,,,,,,,810,2022-01-16_12h38.14.422,multiplicationStroop,2021.2.3,Win32,59.89817311,,,,,right,1,0.4539,0,59,59,8,1,1,3,1 | 3,2,1.4111,1.9756,congruent,right,,,,,,stimulusFile/physical.xlsx,,,,,,,,,,,,,,,,,,,,,,,,,,,,,,,
,,,,,,,,,,,,,,,810,2022-01-16_12h38.14.422,multiplicationStroop,2021.2.3,Win32,59.89817311,,,,,right,1,0.5619,0,60,60,67,1,4,4,4 | 4,0,1.4111,1.9756,neutral,right,,,,,,stimulusFile/physical.xlsx,,,,,,,,,,,,,,,,,,,,,,,,,,,,,,,
,,,,,,,,,,,,,,,810,2022-01-16_12h38.14.422,multiplicationStroop,2021.2.3,Win32,59.89817311,,,,,right,1,0.6228,0,61,61,39,1,9,7,9 | 7,2,1.4111,1.9756,incongruent,right,,,,,,stimulusFile/physical.xlsx,,,,,,,,,,,,,,,,,,,,,,,,,,,,,,,
,,,,,,,,,,,,,,,810,2022-01-16_12h38.14.422,multiplicationStroop,2021.2.3,Win32,59.89817311,,,,,left,0,0.5297,0,62,62,66,1,3,3,3 | 3,0,1.9756,1.4111,neutral,right,,,,,,stimulusFile/physical.xlsx,,,,,,,,,,,,,,,,,,,,,,,,,,,,,,,
,,,,,,,,,,,,,,,810,2022-01-16_12h38.14.422,multiplicationStroop,2021.2.3,Win32,59.89817311,,,,,left,1,0.4476,0,63,63,21,1,7,2,7 | 2,5,1.9756,1.4111,congruent,left,,,,,,stimulusFile/physical.xlsx,,,,,,,,,,,,,,,,,,,,,,,,,,,,,,,
,,,,,,,,,,,,,,,810,2022-01-16_12h38.14.422,multiplicationStroop,2021.2.3,Win32,59.89817311,,,,,right,1,0.4422,0,64,64,2,1,6,7,6 | 7,1,1.4111,1.9756,congruent,right,,,,,,stimulusFile/physical.xlsx,,,,,,,,,,,,,,,,,,,,,,,,,,,,,,,
,,,,,,,,,,,,,,,810,2022-01-16_12h38.14.422,multiplicationStroop,2021.2.3,Win32,59.89817311,,,,,left,1,0.4849,0,65,65,25,1,3,4,3 | 4,1,1.9756,1.4111,incongruent,left,,,,,,stimulusFile/physical.xlsx,,,,,,,,,,,,,,,,,,,,,,,,,,,,,,,
,,,,,,,,,,,,,,,810,2022-01-16_12h38.14.422,multiplicationStroop,2021.2.3,Win32,59.89817311,,,,,left,1,0.3965,0,66,66,33,1,2,4,2 | 4,2,1.9756,1.4111,incongruent,left,,,,,,stimulusFile/physical.xlsx,,,,,,,,,,,,,,,,,,,,,,,,,,,,,,,
,,,,,,,,,,,,,,,810,2022-01-16_12h38.14.422,multiplicationStroop,2021.2.3,Win32,59.89817311,,,,,left,1,0.3445,0,67,67,53,1,4,4,4 | 4,0,1.9756,1.4111,neutral,left,,,,,,stimulusFile/physical.xlsx,,,,,,,,,,,,,,,,,,,,,,,,,,,,,,,
,,,,,,,,,,,,,,,810,2022-01-16_12h38.14.422,multiplicationStroop,2021.2.3,Win32,59.89817311,,,,,left,0,0.4175,0,68,68,64,1,1,1,1 | 1,0,1.9756,1.4111,neutral,right,,,,,,stimulusFile/physical.xlsx,,,,,,,,,,,,,,,,,,,,,,,,,,,,,,,
,,,,,,,,,,,,,,,810,2022-01-16_12h38.14.422,multiplicationStroop,2021.2.3,Win32,59.89817311,,,,,right,1,0.4982,0,69,69,59,1,7,7,7 | 7,0,1.4111,1.9756,neutral,right,,,,,,stimulusFile/physical.xlsx,,,,,,,,,,,,,,,,,,,,,,,,,,,,,,,
,,,,,,,,,,,,,,,810,2022-01-16_12h38.14.422,multiplicationStroop,2021.2.3,Win32,59.89817311,,,,,left,1,0.4226,0,70,70,24,1,1,2,1 | 2,1,1.9756,1.4111,incongruent,left,,,,,,stimulusFile/physical.xlsx,,,,,,,,,,,,,,,,,,,,,,,,,,,,,,,
,,,,,,,,,,,,,,,810,2022-01-16_12h38.14.422,multiplicationStroop,2021.2.3,Win32,59.89817311,,,,,right,1,0.3955,0,71,71,11,1,7,9,7 | 9,2,1.4111,1.9756,congruent,right,,,,,,stimulusFile/physical.xlsx,,,,,,,,,,,,,,,,,,,,,,,,,,,,,,,
,,,,,,,,,,,,,,,810,2022-01-16_12h38.14.422,multiplicationStroop,2021.2.3,Win32,59.89817311,,,,,,,,,,,,,,,,,,,,,0,1,1,1,1,stimulusFile/physical.xlsx,PHYSICALLY larger (larger font size).,images/physicallyLarger.png,,,,,,,,,,,,,,,,,,,,,,,,,,,,,
,,,,,,,,,,,,,,,810,2022-01-16_12h38.14.422,multiplicationStroop,2021.2.3,Win32,59.89817311,,,,,,,,,,,,,,,,,,,,,,,,,,,,,space,11.7493,space,2.108,24,4.7391,1,0,0,0,9,1,3,×,8,3 × 8,incongruent,smallerFirst,2,1,24,,,,,,,,
,,,,,,,,,,,,,,,810,2022-01-16_12h38.14.422,multiplicationStroop,2021.2.3,Win32,59.89817311,,,,,,,,,,,,,,,,,,,,,,,,,,,,,,,,,63,5.8239,1,0,1,1,3,1,7,×,9,7 × 9,incongruent,smallerFirst,2,1,63,,,,,,,,
,,,,,,,,,,,,,,,810,2022-01-16_12h38.14.422,multiplicationStroop,2021.2.3,Win32,59.89817311,,,,,,,,,,,,,,,,,,,,,,,,,,,,,,,,,9,1.9911,1,0,2,2,29,1,3,×,3,3 × 3,incongruent,tie,1,2,9,,,,,,,,
,,,,,,,,,,,,,,,810,2022-01-16_12h38.14.422,multiplicationStroop,2021.2.3,Win32,59.89817311,,,,,,,,,,,,,,,,,,,,,,,,,,,,,,,,,4,2.9162,1,0,3,3,28,1,2,×,2,2 × 2,incongruent,tie,1,2,4,,,,,,,,
,,,,,,,,,,,,,,,810,2022-01-16_12h38.14.422,multiplicationStroop,2021.2.3,Win32,59.89817311,,,,,,,,,,,,,,,,,,,,,,,,,,,,,,,,,35,5.4483,1,0,4,4,12,1,5,×,7,5 × 7,incongruent,smallerFirst,2,1,35,,,,,,,,
,,,,,,,,,,,,,,,810,2022-01-16_12h38.14.422,multiplicationStroop,2021.2.3,Win32,59.89817311,,,,,,,,,,,,,,,,,,,,,,,,,,,,,,,,,40,2.3581,1,0,5,5,13,1,5,×,8,5 × 8,incongruent,smallerFirst,2,1,40,,,,,,,,
,,,,,,,,,,,,,,,810,2022-01-16_12h38.14.422,multiplicationStroop,2021.2.3,Win32,59.89817311,,,,,,,,,,,,,,,,,,,,,,,,,,,,,,,,,8,1.7834,1,0,6,6,24,1,4,×,2,4 × 2,incongruent,largerFirst,1,2,8,,,,,,,,
,,,,,,,,,,,,,,,810,2022-01-16_12h38.14.422,multiplicationStroop,2021.2.3,Win32,59.89817311,,,,,,,,,,,,,,,,,,,,,,,,,,,,,,,,,15,2.0488,1,0,7,7,10,1,3,×,5,3 × 5,incongruent,smallerFirst,2,1,15,,,,,,,,
,,,,,,,,,,,,,,,810,2022-01-16_12h38.14.422,multiplicationStroop,2021.2.3,Win32,59.89817311,,,,,,,,,,,,,,,,,,,,,,,,,,,,,,,,,25,4.3997,1,0,8,8,31,1,5,×,5,5 × 5,incongruent,tie,1,2,25,,,,,,,,
,,,,,,,,,,,,,,,810,2022-01-16_12h38.14.422,multiplicationStroop,2021.2.3,Win32,59.89817311,,,,,,,,,,,,,,,,,,,,,,,,,,,,,,,,,16,1.7243,1,0,9,9,23,1,8,×,2,8 × 2,incongruent,largerFirst,1,2,16,,,,,,,,
,,,,,,,,,,,,,,,810,2022-01-16_12h38.14.422,multiplicationStroop,2021.2.3,Win32,59.89817311,,,,,,,,,,,,,,,,,,,,,,,,,,,,,,,,,32,4.5161,1,0,10,10,7,1,4,×,8,4 × 8,incongruent,smallerFirst,2,1,32,,,,,,,,
,,,,,,,,,,,,,,,810,2022-01-16_12h38.14.422,multiplicationStroop,2021.2.3,Win32,59.89817311,,,,,,,,,,,,,,,,,,,,,,,,,,,,,,,,,49,2.358,1,0,11,11,33,1,7,×,7,7 × 7,incongruent,tie,1,2,49,,,,,,,,
,,,,,,,,,,,,,,,810,2022-01-16_12h38.14.422,multiplicationStroop,2021.2.3,Win32,59.89817311,,,,,,,,,,,,,,,,,,,,,,,,,,,,,,,,,42,3.5411,1,0,12,12,17,1,7,×,6,7 × 6,incongruent,largerFirst,1,2,42,,,,,,,,
,,,,,,,,,,,,,,,810,2022-01-16_12h38.14.422,multiplicationStroop,2021.2.3,Win32,59.89817311,,,,,,,,,,,,,,,,,,,,,,,,,,,,,,,,,20,1.8324,1,0,13,13,27,1,5,×,4,5 × 4,incongruent,largerFirst,1,2,20,,,,,,,,
,,,,,,,,,,,,,,,810,2022-01-16_12h38.14.422,multiplicationStroop,2021.2.3,Win32,59.89817311,,,,,,,,,,,,,,,,,,,,,,,,,,,,,,,,,72,7.0321,1,0,14,14,0,1,8,×,9,8 × 9,incongruent,smallerFirst,2,1,72,,,,,,,,
,,,,,,,,,,,,,,,810,2022-01-16_12h38.14.422,multiplicationStroop,2021.2.3,Win32,59.89817311,,,,,,,,,,,,,,,,,,,,,,,,,,,,,,,,,21,2.6567,1,0,15,15,26,1,7,×,3,7 × 3,incongruent,largerFirst,1,2,21,,,,,,,,
,,,,,,,,,,,,,,,810,2022-01-16_12h38.14.422,multiplicationStroop,2021.2.3,Win32,59.89817311,,,,,,,,,,,,,,,,,,,,,,,,,,,,,,,,,14,1.5831,1,0,16,16,4,1,2,×,7,2 × 7,incongruent,smallerFirst,2,1,14,,,,,,,,
,,,,,,,,,,,,,,,810,2022-01-16_12h38.14.422,multiplicationStroop,2021.2.3,Win32,59.89817311,,,,,,,,,,,,,,,,,,,,,,,,,,,,,,,,,18,1.9999,1,0,17,17,2,1,2,×,9,2 × 9,incongruent,smallerFirst,2,1,18,,,,,,,,
,,,,,,,,,,,,,,,810,2022-01-16_12h38.14.422,multiplicationStroop,2021.2.3,Win32,59.89817311,,,,,,,,,,,,,,,,,,,,,,,,,,,,,,,,,64,1.9826,1,0,18,18,34,1,8,×,8,8 × 8,incongruent,tie,1,2,64,,,,,,,,
,,,,,,,,,,,,,,,810,2022-01-16_12h38.14.422,multiplicationStroop,2021.2.3,Win32,59.89817311,,,,,,,,,,,,,,,,,,,,,,,,,,,,,,,,,25,1.9996,0,0,19,19,25,1,6,×,5,6 × 5,incongruent,largerFirst,1,2,30,,,,,,,,
,,,,,,,,,,,,,,,810,2022-01-16_12h38.14.422,multiplicationStroop,2021.2.3,Win32,59.89817311,,,,,,,,,,,,,,,,,,,,,,,,,,,,,,,,,28,2.9159,1,0,20,20,16,1,7,×,4,7 × 4,incongruent,largerFirst,1,2,28,,,,,,,,
,,,,,,,,,,,,,,,810,2022-01-16_12h38.14.422,multiplicationStroop,2021.2.3,Win32,59.89817311,,,,,,,,,,,,,,,,,,,,,,,,,,,,,,,,,16,2.3157,1,0,21,21,30,1,4,×,4,4 × 4,incongruent,tie,1,2,16,,,,,,,,
,,,,,,,,,,,,,,,810,2022-01-16_12h38.14.422,multiplicationStroop,2021.2.3,Win32,59.89817311,,,,,,,,,,,,,,,,,,,,,,,,,,,,,,,,,36,11.4902,1,0,22,22,32,1,6,×,6,6 × 6,incongruent,tie,1,2,36,,,,,,,,
,,,,,,,,,,,,,,,810,2022-01-16_12h38.14.422,multiplicationStroop,2021.2.3,Win32,59.89817311,,,,,,,,,,,,,,,,,,,,,,,,,,,,,,,,,36,3.6732,1,0,23,23,15,1,9,×,4,9 × 4,incongruent,largerFirst,1,2,36,,,,,,,,
,,,,,,,,,,,,,,,810,2022-01-16_12h38.14.422,multiplicationStroop,2021.2.3,Win32,59.89817311,,,,,,,,,,,,,,,,,,,,,,,,,,,,,,,,,56,8.4491,1,0,24,24,14,1,8,×,7,8 × 7,incongruent,largerFirst,1,2,56,,,,,,,,
,,,,,,,,,,,,,,,810,2022-01-16_12h38.14.422,multiplicationStroop,2021.2.3,Win32,59.89817311,,,,,,,,,,,,,,,,,,,,,,,,,,,,,,,,,24,2.7403,1,0,25,25,20,1,6,×,4,6 × 4,incongruent,largerFirst,1,2,24,,,,,,,,
,,,,,,,,,,,,,,,810,2022-01-16_12h38.14.422,multiplicationStroop,2021.2.3,Win32,59.89817311,,,,,,,,,,,,,,,,,,,,,,,,,,,,,,,,,6,2.4825,1,0,26,26,11,1,2,×,3,2 × 3,incongruent,smallerFirst,2,1,6,,,,,,,,
,,,,,,,,,,,,,,,810,2022-01-16_12h38.14.422,multiplicationStroop,2021.2.3,Win32,59.89817311,,,,,,,,,,,,,,,,,,,,,,,,,,,,,,,,,81,5.9658,1,0,27,27,35,1,9,×,9,9 × 9,incongruent,tie,1,2,81,,,,,,,,
,,,,,,,,,,,,,,,810,2022-01-16_12h38.14.422,multiplicationStroop,2021.2.3,Win32,59.89817311,,,,,,,,,,,,,,,,,,,,,,,,,,,,,,,,,12,1.8404,1,0,28,28,19,1,6,×,2,6 × 2,incongruent,largerFirst,1,2,12,,,,,,,,
,,,,,,,,,,,,,,,810,2022-01-16_12h38.14.422,multiplicationStroop,2021.2.3,Win32,59.89817311,,,,,,,,,,,,,,,,,,,,,,,,,,,,,,,,,48,6.9826,1,0,29,29,1,1,6,×,8,6 × 8,incongruent,smallerFirst,2,1,48,,,,,,,,
,,,,,,,,,,,,,,,810,2022-01-16_12h38.14.422,multiplicationStroop,2021.2.3,Win32,59.89817311,,,,,,,,,,,,,,,,,,,,,,,,,,,,,,,,,54,5.9901,1,0,30,30,6,1,6,×,9,6 × 9,incongruent,smallerFirst,2,1,54,,,,,,,,
,,,,,,,,,,,,,,,810,2022-01-16_12h38.14.422,multiplicationStroop,2021.2.3,Win32,59.89817311,,,,,,,,,,,,,,,,,,,,,,,,,,,,,,,,,12,2.7069,1,0,31,31,5,1,3,×,4,3 × 4,incongruent,smallerFirst,2,1,12,,,,,,,,
,,,,,,,,,,,,,,,810,2022-01-16_12h38.14.422,multiplicationStroop,2021.2.3,Win32,59.89817311,,,,,,,,,,,,,,,,,,,,,,,,,,,,,,,,,10,2.0664,1,0,32,32,21,1,5,×,2,5 × 2,incongruent,largerFirst,1,2,10,,,,,,,,
,,,,,,,,,,,,,,,810,2022-01-16_12h38.14.422,multiplicationStroop,2021.2.3,Win32,59.89817311,,,,,,,,,,,,,,,,,,,,,,,,,,,,,,,,,18,3.3491,1,0,33,33,8,1,3,×,6,3 × 6,incongruent,smallerFirst,2,1,18,,,,,,,,
,,,,,,,,,,,,,,,810,2022-01-16_12h38.14.422,multiplicationStroop,2021.2.3,Win32,59.89817311,,,,,,,,,,,,,,,,,,,,,,,,,,,,,,,,,45,2.4244,1,0,34,34,22,1,9,×,5,9 × 5,incongruent,largerFirst,1,2,45,,,,,,,,
,,,,,,,,,,,,,,,810,2022-01-16_12h38.14.422,multiplicationStroop,2021.2.3,Win32,59.89817311,,,,,,,,,,,,,,,,,,,,,,,,,,,,,,,,,27,3.1828,1,0,35,35,18,1,9,×,3,9 × 3,incongruent,largerFirst,1,2,27,,,,,,,,
,,,,,,,,,,,,,,,810,2022-01-16_12h38.14.422,multiplicationStroop,2021.2.3,Win32,59.89817311,,,,,,,,,,,,,,,,,,,,,,,,,,,,,,,,,,,,,,,,,,,,,,,,,,0,0,0,5,1,stimulusFile/mult_blk6_INcongruent.xlsx,,
,,,,,,,,,,,,,,,810,2022-01-16_12h38.14.422,multiplicationStroop,2021.2.3,Win32,59.89817311,,,,,,,,,,,,,,,,,,,,,,,,,,,,,,,space,1.7114,6,1.7562,1,0,0,0,26,1,3,×,2,3 × 2,neutral,largerFirst,1.5,1.5,6,,,,,,,,
,,,,,,,,,,,,,,,810,2022-01-16_12h38.14.422,multiplicationStroop,2021.2.3,Win32,59.89817311,,,,,,,,,,,,,,,,,,,,,,,,,,,,,,,,,35,2.8325,1,0,1,1,1,1,5,×,7,5 × 7,neutral,smallerFirst,1.5,1.5,35,,,,,,,,
,,,,,,,,,,,,,,,810,2022-01-16_12h38.14.422,multiplicationStroop,2021.2.3,Win32,59.89817311,,,,,,,,,,,,,,,,,,,,,,,,,,,,,,,,,8,2.6916,1,0,2,2,3,1,2,×,4,2 × 4,neutral,smallerFirst,1.5,1.5,8,,,,,,,,
,,,,,,,,,,,,,,,810,2022-01-16_12h38.14.422,multiplicationStroop,2021.2.3,Win32,59.89817311,,,,,,,,,,,,,,,,,,,,,,,,,,,,,,,,,48,9.0152,1,0,3,3,15,1,8,×,6,8 × 6,neutral,largerFirst,1.5,1.5,48,,,,,,,,
,,,,,,,,,,,,,,,810,2022-01-16_12h38.14.422,multiplicationStroop,2021.2.3,Win32,59.89817311,,,,,,,,,,,,,,,,,,,,,,,,,,,,,,,,,27,2.8904,1,0,4,4,14,1,9,×,3,9 × 3,neutral,largerFirst,1.5,1.5,27,,,,,,,,
,,,,,,,,,,,,,,,810,2022-01-16_12h38.14.422,multiplicationStroop,2021.2.3,Win32,59.89817311,,,,,,,,,,,,,,,,,,,,,,,,,,,,,,,,,16,3.2242,1,0,5,5,30,1,4,×,4,4 × 4,neutral,tie,1.5,1.5,16,,,,,,,,
,,,,,,,,,,,,,,,810,2022-01-16_12h38.14.422,multiplicationStroop,2021.2.3,Win32,59.89817311,,,,,,,,,,,,,,,,,,,,,,,,,,,,,,,,,15,3.6827,1,0,6,6,5,1,3,×,5,3 × 5,neutral,smallerFirst,1.5,1.5,15,,,,,,,,
,,,,,,,,,,,,,,,810,2022-01-16_12h38.14.422,multiplicationStroop,2021.2.3,Win32,59.89817311,,,,,,,,,,,,,,,,,,,,,,,,,,,,,,,,,81,2.8241,1,0,7,7,35,1,9,×,9,9 × 9,neutral,tie,1.5,1.5,81,,,,,,,,
,,,,,,,,,,,,,,,810,2022-01-16_12h38.14.422,multiplicationStroop,2021.2.3,Win32,59.89817311,,,,,,,,,,,,,,,,,,,,,,,,,,,,,,,,,10,1.8235,1,0,8,8,4,1,2,×,5,2 × 5,neutral,smallerFirst,1.5,1.5,10,,,,,,,,
,,,,,,,,,,,,,,,810,2022-01-16_12h38.14.422,multiplicationStroop,2021.2.3,Win32,59.89817311,,,,,,,,,,,,,,,,,,,,,,,,,,,,,,,,,32,3.2148,1,0,9,9,23,1,8,×,4,8 × 4,neutral,largerFirst,1.5,1.5,32,,,,,,,,
,,,,,,,,,,,,,,,810,2022-01-16_12h38.14.422,multiplicationStroop,2021.2.3,Win32,59.89817311,,,,,,,,,,,,,,,,,,,,,,,,,,,,,,,,,25,3.615,1,0,10,10,31,1,5,×,5,5 × 5,neutral,tie,1.5,1.5,25,,,,,,,,
,,,,,,,,,,,,,,,810,2022-01-16_12h38.14.422,multiplicationStroop,2021.2.3,Win32,59.89817311,,,,,,,,,,,,,,,,,,,,,,,,,,,,,,,,,4,1.6571,1,0,11,11,28,1,2,×,2,2 × 2,neutral,tie,1.5,1.5,4,,,,,,,,
,,,,,,,,,,,,,,,810,2022-01-16_12h38.14.422,multiplicationStroop,2021.2.3,Win32,59.89817311,,,,,,,,,,,,,,,,,,,,,,,,,,,,,,,,,56,4.7144,1,0,12,12,9,1,7,×,8,7 × 8,neutral,smallerFirst,1.5,1.5,56,,,,,,,,
,,,,,,,,,,,,,,,810,2022-01-16_12h38.14.422,multiplicationStroop,2021.2.3,Win32,59.89817311,,,,,,,,,,,,,,,,,,,,,,,,,,,,,,,,,24,3.1742,1,0,13,13,2,1,4,×,6,4 × 6,neutral,smallerFirst,1.5,1.5,24,,,,,,,,
,,,,,,,,,,,,,,,810,2022-01-16_12h38.14.422,multiplicationStroop,2021.2.3,Win32,59.89817311,,,,,,,,,,,,,,,,,,,,,,,,,,,,,,,,,18,1.8573,1,0,14,14,18,1,9,×,2,9 × 2,neutral,largerFirst,1.5,1.5,18,,,,,,,,
,,,,,,,,,,,,,,,810,2022-01-16_12h38.14.422,multiplicationStroop,2021.2.3,Win32,59.89817311,,,,,,,,,,,,,,,,,,,,,,,,,,,,,,,,,36,5.465,1,0,15,15,27,1,9,×,4,9 × 4,neutral,largerFirst,1.5,1.5,36,,,,,,,,
,,,,,,,,,,,,,,,810,2022-01-16_12h38.14.422,multiplicationStroop,2021.2.3,Win32,59.89817311,,,,,,,,,,,,,,,,,,,,,,,,,,,,,,,,,63,4.7736,1,0,16,16,12,1,7,×,9,7 × 9,neutral,smallerFirst,1.5,1.5,63,,,,,,,,
,,,,,,,,,,,,,,,810,2022-01-16_12h38.14.422,multiplicationStroop,2021.2.3,Win32,59.89817311,,,,,,,,,,,,,,,,,,,,,,,,,,,,,,,,,14,1.6247,1,0,17,17,16,1,7,×,2,7 × 2,neutral,largerFirst,1.5,1.5,14,,,,,,,,
,,,,,,,,,,,,,,,810,2022-01-16_12h38.14.422,multiplicationStroop,2021.2.3,Win32,59.89817311,,,,,,,,,,,,,,,,,,,,,,,,,,,,,,,,,18,2.4979,1,0,18,18,0,1,3,×,6,3 × 6,neutral,smallerFirst,1.5,1.5,18,,,,,,,,
,,,,,,,,,,,,,,,810,2022-01-16_12h38.14.422,multiplicationStroop,2021.2.3,Win32,59.89817311,,,,,,,,,,,,,,,,,,,,,,,,,,,,,,,,,49,2.0654,1,0,19,19,33,1,7,×,7,7 × 7,neutral,tie,1.5,1.5,49,,,,,,,,
,,,,,,,,,,,,,,,810,2022-01-16_12h38.14.422,multiplicationStroop,2021.2.3,Win32,59.89817311,,,,,,,,,,,,,,,,,,,,,,,,,,,,,,,,,45,2.7135,1,0,20,20,10,1,5,×,9,5 × 9,neutral,smallerFirst,1.5,1.5,45,,,,,,,,
,,,,,,,,,,,,,,,810,2022-01-16_12h38.14.422,multiplicationStroop,2021.2.3,Win32,59.89817311,,,,,,,,,,,,,,,,,,,,,,,,,,,,,,,,,24,2.5647,1,0,21,21,22,1,8,×,3,8 × 3,neutral,largerFirst,1.5,1.5,24,,,,,,,,
,,,,,,,,,,,,,,,810,2022-01-16_12h38.14.422,multiplicationStroop,2021.2.3,Win32,59.89817311,,,,,,,,,,,,,,,,,,,,,,,,,,,,,,,,,9,1.5407,1,0,22,22,29,1,3,×,3,3 × 3,neutral,tie,1.5,1.5,9,,,,,,,,
,,,,,,,,,,,,,,,810,2022-01-16_12h38.14.422,multiplicationStroop,2021.2.3,Win32,59.89817311,,,,,,,,,,,,,,,,,,,,,,,,,,,,,,,,,12,1.8154,1,0,23,23,25,1,6,×,2,6 × 2,neutral,largerFirst,1.5,1.5,12,,,,,,,,
,,,,,,,,,,,,,,,810,2022-01-16_12h38.14.422,multiplicationStroop,2021.2.3,Win32,59.89817311,,,,,,,,,,,,,,,,,,,,,,,,,,,,,,,,,30,6.6146,1,0,24,24,19,1,6,×,5,6 × 5,neutral,largerFirst,1.5,1.5,30,,,,,,,,
,,,,,,,,,,,,,,,810,2022-01-16_12h38.14.422,multiplicationStroop,2021.2.3,Win32,59.89817311,,,,,,,,,,,,,,,,,,,,,,,,,,,,,,,,,21,2.5886,1,0,25,25,8,1,3,×,7,3 × 7,neutral,smallerFirst,1.5,1.5,21,,,,,,,,
,,,,,,,,,,,,,,,810,2022-01-16_12h38.14.422,multiplicationStroop,2021.2.3,Win32,59.89817311,,,,,,,,,,,,,,,,,,,,,,,,,,,,,,,,,64,2.099,1,0,26,26,34,1,8,×,8,8 × 8,neutral,tie,1.5,1.5,64,,,,,,,,
,,,,,,,,,,,,,,,810,2022-01-16_12h38.14.422,multiplicationStroop,2021.2.3,Win32,59.89817311,,,,,,,,,,,,,,,,,,,,,,,,,,,,,,,,,12,2.5647,1,0,27,27,21,1,4,×,3,4 × 3,neutral,largerFirst,1.5,1.5,12,,,,,,,,
,,,,,,,,,,,,,,,810,2022-01-16_12h38.14.422,multiplicationStroop,2021.2.3,Win32,59.89817311,,,,,,,,,,,,,,,,,,,,,,,,,,,,,,,,,16,2.0964,1,0,28,28,13,1,2,×,8,2 × 8,neutral,smallerFirst,1.5,1.5,16,,,,,,,,
,,,,,,,,,,,,,,,810,2022-01-16_12h38.14.422,multiplicationStroop,2021.2.3,Win32,59.89817311,,,,,,,,,,,,,,,,,,,,,,,,,,,,,,,,,20,1.9809,1,0,29,29,20,1,5,×,4,5 × 4,neutral,largerFirst,1.5,1.5,20,,,,,,,,
,,,,,,,,,,,,,,,810,2022-01-16_12h38.14.422,multiplicationStroop,2021.2.3,Win32,59.89817311,,,,,,,,,,,,,,,,,,,,,,,,,,,,,,,,,28,3.1648,1,0,30,30,17,1,7,×,4,7 × 4,neutral,largerFirst,1.5,1.5,28,,,,,,,,
,,,,,,,,,,,,,,,810,2022-01-16_12h38.14.422,multiplicationStroop,2021.2.3,Win32,59.89817311,,,,,,,,,,,,,,,,,,,,,,,,,,,,,,,,,40,6.2566,1,0,31,31,24,1,8,×,5,8 × 5,neutral,largerFirst,1.5,1.5,40,,,,,,,,
,,,,,,,,,,,,,,,810,2022-01-16_12h38.14.422,multiplicationStroop,2021.2.3,Win32,59.89817311,,,,,,,,,,,,,,,,,,,,,,,,,,,,,,,,,36,5.0235,1,0,32,32,32,1,6,×,6,6 × 6,neutral,tie,1.5,1.5,36,,,,,,,,
,,,,,,,,,,,,,,,810,2022-01-16_12h38.14.422,multiplicationStroop,2021.2.3,Win32,59.89817311,,,,,,,,,,,,,,,,,,,,,,,,,,,,,,,,,72,9.3224,1,0,33,33,11,1,8,×,9,8 × 9,neutral,smallerFirst,1.5,1.5,72,,,,,,,,
,,,,,,,,,,,,,,,810,2022-01-16_12h38.14.422,multiplicationStroop,2021.2.3,Win32,59.89817311,,,,,,,,,,,,,,,,,,,,,,,,,,,,,,,,,42,6.0559,1,0,34,34,6,1,6,×,7,6 × 7,neutral,smallerFirst,1.5,1.5,42,,,,,,,,
,,,,,,,,,,,,,,,810,2022-01-16_12h38.14.422,multiplicationStroop,2021.2.3,Win32,59.89817311,,,,,,,,,,,,,,,,,,,,,,,,,,,,,,,,,54,5.6399,1,0,35,35,7,1,6,×,9,6 × 9,neutral,smallerFirst,1.5,1.5,54,,,,,,,,
,,,,,,,,,,,,,,,810,2022-01-16_12h38.14.422,multiplicationStroop,2021.2.3,Win32,59.89817311,,,,,,,,,,,,,,,,,,,,,,,,,,,,,,,,,,,,,,,,,,,,,,,,,,0,1,1,1,1,stimulusFile/mult_blk2.xlsx,,
,,,,,,,,,,,,,,,810,2022-01-16_12h38.14.422,multiplicationStroop,2021.2.3,Win32,59.89817311,,,,,,,,,,,,,,,,,,,,,,,,,,,,,,,space,1.1035,18,2.0886,1,0,0,0,8,1,2,×,9,2 × 9,congruent,smallerFirst,1,2,18,,,,,,,,
,,,,,,,,,,,,,,,810,2022-01-16_12h38.14.422,multiplicationStroop,2021.2.3,Win32,59.89817311,,,,,,,,,,,,,,,,,,,,,,,,,,,,,,,,,42,4.6981,1,0,1,1,17,1,7,×,6,7 × 6,congruent,largerFirst,2,1,42,,,,,,,,
,,,,,,,,,,,,,,,810,2022-01-16_12h38.14.422,multiplicationStroop,2021.2.3,Win32,59.89817311,,,,,,,,,,,,,,,,,,,,,,,,,,,,,,,,,4,1.4068,1,0,2,2,28,1,2,×,2,2 × 2,neutral,tie,1,2,4,,,,,,,,
,,,,,,,,,,,,,,,810,2022-01-16_12h38.14.422,multiplicationStroop,2021.2.3,Win32,59.89817311,,,,,,,,,,,,,,,,,,,,,,,,,,,,,,,,,40,2.3148,1,0,3,3,20,1,8,×,5,8 × 5,congruent,largerFirst,2,1,40,,,,,,,,
,,,,,,,,,,,,,,,810,2022-01-16_12h38.14.422,multiplicationStroop,2021.2.3,Win32,59.89817311,,,,,,,,,,,,,,,,,,,,,,,,,,,,,,,,,6,1.7491,1,0,4,4,27,1,3,×,2,3 × 2,congruent,largerFirst,2,1,6,,,,,,,,
,,,,,,,,,,,,,,,810,2022-01-16_12h38.14.422,multiplicationStroop,2021.2.3,Win32,59.89817311,,,,,,,,,,,,,,,,,,,,,,,,,,,,,,,,,48,5.1804,1,0,5,5,4,1,6,×,8,6 × 8,congruent,smallerFirst,1,2,48,,,,,,,,
,,,,,,,,,,,,,,,810,2022-01-16_12h38.14.422,multiplicationStroop,2021.2.3,Win32,59.89817311,,,,,,,,,,,,,,,,,,,,,,,,,,,,,,,,,14,1.6241,1,0,6,6,0,1,2,×,7,2 × 7,congruent,smallerFirst,1,2,14,,,,,,,,
,,,,,,,,,,,,,,,810,2022-01-16_12h38.14.422,multiplicationStroop,2021.2.3,Win32,59.89817311,,,,,,,,,,,,,,,,,,,,,,,,,,,,,,,,,56,9.5636,1,0,7,7,22,1,8,×,7,8 × 7,congruent,largerFirst,2,1,56,,,,,,,,
,,,,,,,,,,,,,,,810,2022-01-16_12h38.14.422,multiplicationStroop,2021.2.3,Win32,59.89817311,,,,,,,,,,,,,,,,,,,,,,,,,,,,,,,,,49,3.3891,1,0,8,8,33,1,7,×,7,7 × 7,neutral,tie,1,2,49,,,,,,,,
,,,,,,,,,,,,,,,810,2022-01-16_12h38.14.422,multiplicationStroop,2021.2.3,Win32,59.89817311,,,,,,,,,,,,,,,,,,,,,,,,,,,,,,,,,54,5.8972,1,0,9,9,26,1,9,×,6,9 × 6,congruent,largerFirst,2,1,54,,,,,,,,
,,,,,,,,,,,,,,,810,2022-01-16_12h38.14.422,multiplicationStroop,2021.2.3,Win32,59.89817311,,,,,,,,,,,,,,,,,,,,,,,,,,,,,,,,,25,2.2406,1,0,10,10,31,1,5,×,5,5 × 5,neutral,tie,1,2,25,,,,,,,,
,,,,,,,,,,,,,,,810,2022-01-16_12h38.14.422,multiplicationStroop,2021.2.3,Win32,59.89817311,,,,,,,,,,,,,,,,,,,,,,,,,,,,,,,,,36,4.4151,1,0,11,11,14,1,9,×,4,9 × 4,congruent,largerFirst,2,1,36,,,,,,,,
,,,,,,,,,,,,,,,810,2022-01-16_12h38.14.422,multiplicationStroop,2021.2.3,Win32,59.89817311,,,,,,,,,,,,,,,,,,,,,,,,,,,,,,,,,12,2.4574,1,0,12,12,5,1,2,×,6,2 × 6,congruent,smallerFirst,1,2,12,,,,,,,,
,,,,,,,,,,,,,,,810,2022-01-16_12h38.14.422,multiplicationStroop,2021.2.3,Win32,59.89817311,,,,,,,,,,,,,,,,,,,,,,,,,,,,,,,,,8,1.7245,1,0,13,13,23,1,4,×,2,4 × 2,congruent,largerFirst,2,1,8,,,,,,,,
,,,,,,,,,,,,,,,810,2022-01-16_12h38.14.422,multiplicationStroop,2021.2.3,Win32,59.89817311,,,,,,,,,,,,,,,,,,,,,,,,,,,,,,,,,16,2.481,1,0,14,14,19,1,8,×,2,8 × 2,congruent,largerFirst,2,1,16,,,,,,,,
,,,,,,,,,,,,,,,810,2022-01-16_12h38.14.422,multiplicationStroop,2021.2.3,Win32,59.89817311,,,,,,,,,,,,,,,,,,,,,,,,,,,,,,,,,36,6.9477,1,0,15,15,32,1,6,×,6,6 × 6,neutral,tie,1,2,36,,,,,,,,
,,,,,,,,,,,,,,,810,2022-01-16_12h38.14.422,multiplicationStroop,2021.2.3,Win32,59.89817311,,,,,,,,,,,,,,,,,,,,,,,,,,,,,,,,,16,3.3229,1,0,16,16,30,1,4,×,4,4 × 4,neutral,tie,1,2,16,,,,,,,,
,,,,,,,,,,,,,,,810,2022-01-16_12h38.14.422,multiplicationStroop,2021.2.3,Win32,59.89817311,,,,,,,,,,,,,,,,,,,,,,,,,,,,,,,,,63,5.5074,1,0,17,17,7,1,7,×,9,7 × 9,congruent,smallerFirst,1,2,63,,,,,,,,
,,,,,,,,,,,,,,,810,2022-01-16_12h38.14.422,multiplicationStroop,2021.2.3,Win32,59.89817311,,,,,,,,,,,,,,,,,,,,,,,,,,,,,,,,,27,2.9243,1,0,18,18,12,1,3,×,9,3 × 9,congruent,smallerFirst,1,2,27,,,,,,,,
,,,,,,,,,,,,,,,810,2022-01-16_12h38.14.422,multiplicationStroop,2021.2.3,Win32,59.89817311,,,,,,,,,,,,,,,,,,,,,,,,,,,,,,,,,15,1.7644,1,0,19,19,18,1,5,×,3,5 × 3,congruent,largerFirst,2,1,15,,,,,,,,
,,,,,,,,,,,,,,,810,2022-01-16_12h38.14.422,multiplicationStroop,2021.2.3,Win32,59.89817311,,,,,,,,,,,,,,,,,,,,,,,,,,,,,,,,,35,4.9808,1,0,20,20,15,1,7,×,5,7 × 5,congruent,largerFirst,2,1,35,,,,,,,,
,,,,,,,,,,,,,,,810,2022-01-16_12h38.14.422,multiplicationStroop,2021.2.3,Win32,59.89817311,,,,,,,,,,,,,,,,,,,,,,,,,,,,,,,,,20,3.3908,1,0,21,21,21,1,5,×,4,5 × 4,congruent,largerFirst,2,1,20,,,,,,,,
,,,,,,,,,,,,,,,810,2022-01-16_12h38.14.422,multiplicationStroop,2021.2.3,Win32,59.89817311,,,,,,,,,,,,,,,,,,,,,,,,,,,,,,,,,12,2.1314,1,0,22,22,16,1,4,×,3,4 × 3,congruent,largerFirst,2,1,12,,,,,,,,
,,,,,,,,,,,,,,,810,2022-01-16_12h38.14.422,multiplicationStroop,2021.2.3,Win32,59.89817311,,,,,,,,,,,,,,,,,,,,,,,,,,,,,,,,,10,1.6816,1,0,23,23,10,1,2,×,5,2 × 5,congruent,smallerFirst,1,2,10,,,,,,,,
,,,,,,,,,,,,,,,810,2022-01-16_12h38.14.422,multiplicationStroop,2021.2.3,Win32,59.89817311,,,,,,,,,,,,,,,,,,,,,,,,,,,,,,,,,45,4.4149,1,0,24,24,9,1,5,×,9,5 × 9,congruent,smallerFirst,1,2,45,,,,,,,,
,,,,,,,,,,,,,,,810,2022-01-16_12h38.14.422,multiplicationStroop,2021.2.3,Win32,59.89817311,,,,,,,,,,,,,,,,,,,,,,,,,,,,,,,,,73,6.1075,0,0,25,25,3,1,8,×,9,8 × 9,congruent,smallerFirst,1,2,72,,,,,,,,
,,,,,,,,,,,,,,,810,2022-01-16_12h38.14.422,multiplicationStroop,2021.2.3,Win32,59.89817311,,,,,,,,,,,,,,,,,,,,,,,,,,,,,,,,,8,1.6569,0,0,26,26,29,1,3,×,3,3 × 3,neutral,tie,1,2,9,,,,,,,,
,,,,,,,,,,,,,,,810,2022-01-16_12h38.14.422,multiplicationStroop,2021.2.3,Win32,59.89817311,,,,,,,,,,,,,,,,,,,,,,,,,,,,,,,,,30,4.564,1,0,27,27,1,1,5,×,6,5 × 6,congruent,smallerFirst,1,2,30,,,,,,,,
,,,,,,,,,,,,,,,810,2022-01-16_12h38.14.422,multiplicationStroop,2021.2.3,Win32,59.89817311,,,,,,,,,,,,,,,,,,,,,,,,,,,,,,,,,64,2.2074,1,0,28,28,34,1,8,×,8,8 × 8,neutral,tie,1,2,64,,,,,,,,
,,,,,,,,,,,,,,,810,2022-01-16_12h38.14.422,multiplicationStroop,2021.2.3,Win32,59.89817311,,,,,,,,,,,,,,,,,,,,,,,,,,,,,,,,,18,2.3985,1,0,29,29,25,1,6,×,3,6 × 3,congruent,largerFirst,2,1,18,,,,,,,,
,,,,,,,,,,,,,,,810,2022-01-16_12h38.14.422,multiplicationStroop,2021.2.3,Win32,59.89817311,,,,,,,,,,,,,,,,,,,,,,,,,,,,,,,,,24,3.3136,1,0,30,30,11,1,4,×,6,4 × 6,congruent,smallerFirst,1,2,24,,,,,,,,
,,,,,,,,,,,,,,,810,2022-01-16_12h38.14.422,multiplicationStroop,2021.2.3,Win32,59.89817311,,,,,,,,,,,,,,,,,,,,,,,,,,,,,,,,,24,6.9651,1,0,31,31,24,1,8,×,3,8 × 3,congruent,largerFirst,2,1,24,,,,,,,,
,,,,,,,,,,,,,,,810,2022-01-16_12h38.14.422,multiplicationStroop,2021.2.3,Win32,59.89817311,,,,,,,,,,,,,,,,,,,,,,,,,,,,,,,,,28,7.0884,1,0,32,32,13,1,4,×,7,4 × 7,congruent,smallerFirst,1,2,28,,,,,,,,
,,,,,,,,,,,,,,,810,2022-01-16_12h38.14.422,multiplicationStroop,2021.2.3,Win32,59.89817311,,,,,,,,,,,,,,,,,,,,,,,,,,,,,,,,,21,2.5405,1,0,33,33,2,1,3,×,7,3 × 7,congruent,smallerFirst,1,2,21,,,,,,,,
,,,,,,,,,,,,,,,810,2022-01-16_12h38.14.422,multiplicationStroop,2021.2.3,Win32,59.89817311,,,,,,,,,,,,,,,,,,,,,,,,,,,,,,,,,32,2.9554,1,0,34,34,6,1,4,×,8,4 × 8,congruent,smallerFirst,1,2,32,,,,,,,,
,,,,,,,,,,,,,,,810,2022-01-16_12h38.14.422,multiplicationStroop,2021.2.3,Win32,59.89817311,,,,,,,,,,,,,,,,,,,,,,,,,,,,,,,,,81,2.8153,1,0,35,35,35,1,9,×,9,9 × 9,neutral,tie,1,2,81,,,,,,,,
,,,,,,,,,,,,,,,810,2022-01-16_12h38.14.422,multiplicationStroop,2021.2.3,Win32,59.89817311,,,,,,,,,,,,,,,,,,,,,,,,,,,,,,,,,,,,,,,,,,,,,,,,,,0,2,2,3,1,stimulusFile/mult_blk4_congruent.xlsx,,
,,,,,,,,,,,,,,,810,2022-01-16_12h38.14.422,multiplicationStroop,2021.2.3,Win32,59.89817311,,,,,,,,,,,,,,,,,,,,,,,,,,,,,,,space,49.8027,18,3.0097,1,0,0,0,14,1,6,×,3,6 × 3,neutral,largerFirst,1.5,1.5,18,,,,,,,,
,,,,,,,,,,,,,,,810,2022-01-16_12h38.14.422,multiplicationStroop,2021.2.3,Win32,59.89817311,,,,,,,,,,,,,,,,,,,,,,,,,,,,,,,,,6,1.8976,1,0,1,1,12,1,2,×,3,2 × 3,neutral,smallerFirst,1.5,1.5,6,,,,,,,,
,,,,,,,,,,,,,,,810,2022-01-16_12h38.14.422,multiplicationStroop,2021.2.3,Win32,59.89817311,,,,,,,,,,,,,,,,,,,,,,,,,,,,,,,,,28,2.8809,1,0,2,2,3,1,4,×,7,4 × 7,neutral,smallerFirst,1.5,1.5,28,,,,,,,,
,,,,,,,,,,,,,,,810,2022-01-16_12h38.14.422,multiplicationStroop,2021.2.3,Win32,59.89817311,,,,,,,,,,,,,,,,,,,,,,,,,,,,,,,,,36,9.7464,1,0,3,3,32,1,6,×,6,6 × 6,neutral,tie,1.5,1.5,36,,,,,,,,
,,,,,,,,,,,,,,,810,2022-01-16_12h38.14.422,multiplicationStroop,2021.2.3,Win32,59.89817311,,,,,,,,,,,,,,,,,,,,,,,,,,,,,,,,,45,1.9064,1,0,4,4,24,1,9,×,5,9 × 5,neutral,largerFirst,1.5,1.5,45,,,,,,,,
,,,,,,,,,,,,,,,810,2022-01-16_12h38.14.422,multiplicationStroop,2021.2.3,Win32,59.89817311,,,,,,,,,,,,,,,,,,,,,,,,,,,,,,,,,63,6.3631,1,0,5,5,26,1,9,×,7,9 × 7,neutral,largerFirst,1.5,1.5,63,,,,,,,,
,,,,,,,,,,,,,,,810,2022-01-16_12h38.14.422,multiplicationStroop,2021.2.3,Win32,59.89817311,,,,,,,,,,,,,,,,,,,,,,,,,,,,,,,,,32,3.107,1,0,6,6,9,1,4,×,8,4 × 8,neutral,smallerFirst,1.5,1.5,32,,,,,,,,
,,,,,,,,,,,,,,,810,2022-01-16_12h38.14.422,multiplicationStroop,2021.2.3,Win32,59.89817311,,,,,,,,,,,,,,,,,,,,,,,,,,,,,,,,,15,1.6978,1,0,7,7,19,1,5,×,3,5 × 3,neutral,largerFirst,1.5,1.5,15,,,,,,,,
,,,,,,,,,,,,,,,810,2022-01-16_12h38.14.422,multiplicationStroop,2021.2.3,Win32,59.89817311,,,,,,,,,,,,,,,,,,,,,,,,,,,,,,,,,49,2.7142,1,0,8,8,33,1,7,×,7,7 × 7,neutral,tie,1.5,1.5,49,,,,,,,,
,,,,,,,,,,,,,,,810,2022-01-16_12h38.14.422,multiplicationStroop,2021.2.3,Win32,59.89817311,,,,,,,,,,,,,,,,,,,,,,,,,,,,,,,,,8,1.6647,1,0,9,9,17,1,4,×,2,4 × 2,neutral,largerFirst,1.5,1.5,8,,,,,,,,
,,,,,,,,,,,,,,,810,2022-01-16_12h38.14.422,multiplicationStroop,2021.2.3,Win32,59.89817311,,,,,,,,,,,,,,,,,,,,,,,,,,,,,,,,,24,3.2986,1,0,10,10,8,1,3,×,8,3 × 8,neutral,smallerFirst,1.5,1.5,24,,,,,,,,
,,,,,,,,,,,,,,,810,2022-01-16_12h38.14.422,multiplicationStroop,2021.2.3,Win32,59.89817311,,,,,,,,,,,,,,,,,,,,,,,,,,,,,,,,,10,1.6236,1,0,11,11,18,1,5,×,2,5 × 2,neutral,largerFirst,1.5,1.5,10,,,,,,,,
,,,,,,,,,,,,,,,810,2022-01-16_12h38.14.422,multiplicationStroop,2021.2.3,Win32,59.89817311,,,,,,,,,,,,,,,,,,,,,,,,,,,,,,,,,45,2.6483,0,0,12,12,10,1,5,×,8,5 × 8,neutral,smallerFirst,1.5,1.5,40,,,,,,,,
,,,,,,,,,,,,,,,810,2022-01-16_12h38.14.422,multiplicationStroop,2021.2.3,Win32,59.89817311,,,,,,,,,,,,,,,,,,,,,,,,,,,,,,,,,30,2.7987,1,0,13,13,5,1,5,×,6,5 × 6,neutral,smallerFirst,1.5,1.5,30,,,,,,,,
,,,,,,,,,,,,,,,810,2022-01-16_12h38.14.422,multiplicationStroop,2021.2.3,Win32,59.89817311,,,,,,,,,,,,,,,,,,,,,,,,,,,,,,,,,20,2.0324,1,0,14,14,6,1,4,×,5,4 × 5,neutral,smallerFirst,1.5,1.5,20,,,,,,,,
,,,,,,,,,,,,,,,810,2022-01-16_12h38.14.422,multiplicationStroop,2021.2.3,Win32,59.89817311,,,,,,,,,,,,,,,,,,,,,,,,,,,,,,,,,54,3.6649,0,0,15,15,1,1,6,×,8,6 × 8,neutral,smallerFirst,1.5,1.5,48,,,,,,,,
,,,,,,,,,,,,,,,810,2022-01-16_12h38.14.422,multiplicationStroop,2021.2.3,Win32,59.89817311,,,,,,,,,,,,,,,,,,,,,,,,,,,,,,,,,36,3.3895,1,0,16,16,13,1,4,×,9,4 × 9,neutral,smallerFirst,1.5,1.5,36,,,,,,,,
,,,,,,,,,,,,,,,810,2022-01-16_12h38.14.422,multiplicationStroop,2021.2.3,Win32,59.89817311,,,,,,,,,,,,,,,,,,,,,,,,,,,,,,,,,16,1.9242,1,0,17,17,27,1,8,×,2,8 × 2,neutral,largerFirst,1.5,1.5,16,,,,,,,,
,,,,,,,,,,,,,,,810,2022-01-16_12h38.14.422,multiplicationStroop,2021.2.3,Win32,59.89817311,,,,,,,,,,,,,,,,,,,,,,,,,,,,,,,,,16,2.0986,1,0,18,18,30,1,4,×,4,4 × 4,neutral,tie,1.5,1.5,16,,,,,,,,
,,,,,,,,,,,,,,,810,2022-01-16_12h38.14.422,multiplicationStroop,2021.2.3,Win32,59.89817311,,,,,,,,,,,,,,,,,,,,,,,,,,,,,,,,,21,2.5817,1,0,19,19,22,1,7,×,3,7 × 3,neutral,largerFirst,1.5,1.5,21,,,,,,,,
,,,,,,,,,,,,,,,810,2022-01-16_12h38.14.422,multiplicationStroop,2021.2.3,Win32,59.89817311,,,,,,,,,,,,,,,,,,,,,,,,,,,,,,,,,53,3.3645,0,0,20,20,21,1,9,×,6,9 × 6,neutral,largerFirst,1.5,1.5,54,,,,,,,,
,,,,,,,,,,,,,,,810,2022-01-16_12h38.14.422,multiplicationStroop,2021.2.3,Win32,59.89817311,,,,,,,,,,,,,,,,,,,,,,,,,,,,,,,,,81,9.073,1,0,21,21,35,1,9,×,9,9 × 9,neutral,tie,1.5,1.5,81,,,,,,,,
,,,,,,,,,,,,,,,810,2022-01-16_12h38.14.422,multiplicationStroop,2021.2.3,Win32,59.89817311,,,,,,,,,,,,,,,,,,,,,,,,,,,,,,,,,27,2.6898,1,0,22,22,0,1,3,×,9,3 × 9,neutral,smallerFirst,1.5,1.5,27,,,,,,,,
,,,,,,,,,,,,,,,810,2022-01-16_12h38.14.422,multiplicationStroop,2021.2.3,Win32,59.89817311,,,,,,,,,,,,,,,,,,,,,,,,,,,,,,,,,56,10.6056,1,0,23,23,23,1,8,×,7,8 × 7,neutral,largerFirst,1.5,1.5,56,,,,,,,,
,,,,,,,,,,,,,,,810,2022-01-16_12h38.14.422,multiplicationStroop,2021.2.3,Win32,59.89817311,,,,,,,,,,,,,,,,,,,,,,,,,,,,,,,,,12,2.0551,1,0,24,24,11,1,2,×,6,2 × 6,neutral,smallerFirst,1.5,1.5,12,,,,,,,,
,,,,,,,,,,,,,,,810,2022-01-16_12h38.14.422,multiplicationStroop,2021.2.3,Win32,59.89817311,,,,,,,,,,,,,,,,,,,,,,,,,,,,,,,,,14,1.6643,1,0,25,25,2,1,2,×,7,2 × 7,neutral,smallerFirst,1.5,1.5,14,,,,,,,,
,,,,,,,,,,,,,,,810,2022-01-16_12h38.14.422,multiplicationStroop,2021.2.3,Win32,59.89817311,,,,,,,,,,,,,,,,,,,,,,,,,,,,,,,,,4,1.2979,1,0,26,26,28,1,2,×,2,2 × 2,neutral,tie,1.5,1.5,4,,,,,,,,
,,,,,,,,,,,,,,,810,2022-01-16_12h38.14.422,multiplicationStroop,2021.2.3,Win32,59.89817311,,,,,,,,,,,,,,,,,,,,,,,,,,,,,,,,,9,2.0152,1,0,27,27,29,1,3,×,3,3 × 3,neutral,tie,1.5,1.5,9,,,,,,,,
,,,,,,,,,,,,,,,810,2022-01-16_12h38.14.422,multiplicationStroop,2021.2.3,Win32,59.89817311,,,,,,,,,,,,,,,,,,,,,,,,,,,,,,,,,18,2.2308,1,0,28,28,4,1,2,×,9,2 × 9,neutral,smallerFirst,1.5,1.5,18,,,,,,,,
,,,,,,,,,,,,,,,810,2022-01-16_12h38.14.422,multiplicationStroop,2021.2.3,Win32,59.89817311,,,,,,,,,,,,,,,,,,,,,,,,,,,,,,,,,72,4.6819,1,0,29,29,25,1,9,×,8,9 × 8,neutral,largerFirst,1.5,1.5,72,,,,,,,,
,,,,,,,,,,,,,,,810,2022-01-16_12h38.14.422,multiplicationStroop,2021.2.3,Win32,59.89817311,,,,,,,,,,,,,,,,,,,,,,,,,,,,,,,,,24,3.8236,1,0,30,30,16,1,6,×,4,6 × 4,neutral,largerFirst,1.5,1.5,24,,,,,,,,
,,,,,,,,,,,,,,,810,2022-01-16_12h38.14.422,multiplicationStroop,2021.2.3,Win32,59.89817311,,,,,,,,,,,,,,,,,,,,,,,,,,,,,,,,,42,4.3078,1,0,31,31,20,1,7,×,6,7 × 6,neutral,largerFirst,1.5,1.5,42,,,,,,,,
,,,,,,,,,,,,,,,810,2022-01-16_12h38.14.422,multiplicationStroop,2021.2.3,Win32,59.89817311,,,,,,,,,,,,,,,,,,,,,,,,,,,,,,,,,35,5.4059,1,0,32,32,15,1,7,×,5,7 × 5,neutral,largerFirst,1.5,1.5,35,,,,,,,,
,,,,,,,,,,,,,,,810,2022-01-16_12h38.14.422,multiplicationStroop,2021.2.3,Win32,59.89817311,,,,,,,,,,,,,,,,,,,,,,,,,,,,,,,,,12,2.5573,1,0,33,33,7,1,3,×,4,3 × 4,neutral,smallerFirst,1.5,1.5,12,,,,,,,,
,,,,,,,,,,,,,,,810,2022-01-16_12h38.14.422,multiplicationStroop,2021.2.3,Win32,59.89817311,,,,,,,,,,,,,,,,,,,,,,,,,,,,,,,,,25,2.5399,1,0,34,34,31,1,5,×,5,5 × 5,neutral,tie,1.5,1.5,25,,,,,,,,
,,,,,,,,,,,,,,,810,2022-01-16_12h38.14.422,multiplicationStroop,2021.2.3,Win32,59.89817311,,,,,,,,,,,,,,,,,,,,,,,,,,,,,,,,,64,2.3994,1,0,35,35,34,1,8,×,8,8 × 8,neutral,tie,1.5,1.5,64,,,,,,,,
,,,,,,,,,,,,,,,810,2022-01-16_12h38.14.422,multiplicationStroop,2021.2.3,Win32,59.89817311,,,,,,,,,,,,,,,,,,,,,,,,,,,,,,,,,,,,,,,,,,,,,,,,,,0,3,3,0,1,stimulusFile/mult_blk1.xlsx,,
,,,,,,,,,,,,,,,810,2022-01-16_12h38.14.422,multiplicationStroop,2021.2.3,Win32,59.89817311,,,,,,,,,,,,,,,,,,,,,,,,,,,,,,,space,26.0979,72,6.7112,1,0,0,0,14,1,9,×,8,9 × 8,incongruent,largerFirst,1,2,72,,,,,,,,
,,,,,,,,,,,,,,,810,2022-01-16_12h38.14.422,multiplicationStroop,2021.2.3,Win32,59.89817311,,,,,,,,,,,,,,,,,,,,,,,,,,,,,,,,,18,1.8733,1,0,1,1,16,1,9,×,2,9 × 2,incongruent,largerFirst,1,2,18,,,,,,,,
,,,,,,,,,,,,,,,810,2022-01-16_12h38.14.422,multiplicationStroop,2021.2.3,Win32,59.89817311,,,,,,,,,,,,,,,,,,,,,,,,,,,,,,,,,9,1.5327,1,0,2,2,29,1,3,×,3,3 × 3,neutral,tie,2,1,9,,,,,,,,
,,,,,,,,,,,,,,,810,2022-01-16_12h38.14.422,multiplicationStroop,2021.2.3,Win32,59.89817311,,,,,,,,,,,,,,,,,,,,,,,,,,,,,,,,,35,4.5976,1,0,3,3,26,1,7,×,5,7 × 5,incongruent,largerFirst,1,2,35,,,,,,,,
,,,,,,,,,,,,,,,810,2022-01-16_12h38.14.422,multiplicationStroop,2021.2.3,Win32,59.89817311,,,,,,,,,,,,,,,,,,,,,,,,,,,,,,,,,24,3.5734,1,0,4,4,6,1,4,×,6,4 × 6,incongruent,smallerFirst,2,1,24,,,,,,,,
,,,,,,,,,,,,,,,810,2022-01-16_12h38.14.422,multiplicationStroop,2021.2.3,Win32,59.89817311,,,,,,,,,,,,,,,,,,,,,,,,,,,,,,,,,40,7.2731,1,0,5,5,27,1,8,×,5,8 × 5,incongruent,largerFirst,1,2,40,,,,,,,,
,,,,,,,,,,,,,,,810,2022-01-16_12h38.14.422,multiplicationStroop,2021.2.3,Win32,59.89817311,,,,,,,,,,,,,,,,,,,,,,,,,,,,,,,,,12,2.9742,1,0,6,6,19,1,4,×,3,4 × 3,incongruent,largerFirst,1,2,12,,,,,,,,
,,,,,,,,,,,,,,,810,2022-01-16_12h38.14.422,multiplicationStroop,2021.2.3,Win32,59.89817311,,,,,,,,,,,,,,,,,,,,,,,,,,,,,,,,,16,2.8569,1,0,7,7,30,1,4,×,4,4 × 4,neutral,tie,2,1,16,,,,,,,,
,,,,,,,,,,,,,,,810,2022-01-16_12h38.14.422,multiplicationStroop,2021.2.3,Win32,59.89817311,,,,,,,,,,,,,,,,,,,,,,,,,,,,,,,,,36,3.7652,1,0,8,8,1,1,4,×,9,4 × 9,incongruent,smallerFirst,2,1,36,,,,,,,,
,,,,,,,,,,,,,,,810,2022-01-16_12h38.14.422,multiplicationStroop,2021.2.3,Win32,59.89817311,,,,,,,,,,,,,,,,,,,,,,,,,,,,,,,,,42,3.5897,1,0,9,9,3,1,6,×,7,6 × 7,incongruent,smallerFirst,2,1,42,,,,,,,,
,,,,,,,,,,,,,,,810,2022-01-16_12h38.14.422,multiplicationStroop,2021.2.3,Win32,59.89817311,,,,,,,,,,,,,,,,,,,,,,,,,,,,,,,,,14,1.8415,1,0,10,10,18,1,7,×,2,7 × 2,incongruent,largerFirst,1,2,14,,,,,,,,
,,,,,,,,,,,,,,,810,2022-01-16_12h38.14.422,multiplicationStroop,2021.2.3,Win32,59.89817311,,,,,,,,,,,,,,,,,,,,,,,,,,,,,,,,,20,2.0815,1,0,11,11,13,1,4,×,5,4 × 5,incongruent,smallerFirst,2,1,20,,,,,,,,
,,,,,,,,,,,,,,,810,2022-01-16_12h38.14.422,multiplicationStroop,2021.2.3,Win32,59.89817311,,,,,,,,,,,,,,,,,,,,,,,,,,,,,,,,,28,4.0305,1,0,12,12,2,1,4,×,7,4 × 7,incongruent,smallerFirst,2,1,28,,,,,,,,
,,,,,,,,,,,,,,,810,2022-01-16_12h38.14.422,multiplicationStroop,2021.2.3,Win32,59.89817311,,,,,,,,,,,,,,,,,,,,,,,,,,,,,,,,,56,6.8733,1,0,13,13,0,1,7,×,8,7 × 8,incongruent,smallerFirst,2,1,56,,,,,,,,
,,,,,,,,,,,,,,,810,2022-01-16_12h38.14.422,multiplicationStroop,2021.2.3,Win32,59.89817311,,,,,,,,,,,,,,,,,,,,,,,,,,,,,,,,,15,1.6244,1,0,14,14,24,1,5,×,3,5 × 3,incongruent,largerFirst,1,2,15,,,,,,,,
,,,,,,,,,,,,,,,810,2022-01-16_12h38.14.422,multiplicationStroop,2021.2.3,Win32,59.89817311,,,,,,,,,,,,,,,,,,,,,,,,,,,,,,,,,24,2.5476,1,0,15,15,23,1,8,×,3,8 × 3,incongruent,largerFirst,1,2,24,,,,,,,,
,,,,,,,,,,,,,,,810,2022-01-16_12h38.14.422,multiplicationStroop,2021.2.3,Win32,59.89817311,,,,,,,,,,,,,,,,,,,,,,,,,,,,,,,,,27,2.8324,1,0,16,16,4,1,3,×,9,3 × 9,incongruent,smallerFirst,2,1,27,,,,,,,,
,,,,,,,,,,,,,,,810,2022-01-16_12h38.14.422,multiplicationStroop,2021.2.3,Win32,59.89817311,,,,,,,,,,,,,,,,,,,,,,,,,,,,,,,,,45,4.0396,1,0,17,17,8,1,5,×,9,5 × 9,incongruent,smallerFirst,2,1,45,,,,,,,,
,,,,,,,,,,,,,,,810,2022-01-16_12h38.14.422,multiplicationStroop,2021.2.3,Win32,59.89817311,,,,,,,,,,,,,,,,,,,,,,,,,,,,,,,,,54,2.7404,1,0,18,18,20,1,9,×,6,9 × 6,incongruent,largerFirst,1,2,54,,,,,,,,
,,,,,,,,,,,,,,,810,2022-01-16_12h38.14.422,multiplicationStroop,2021.2.3,Win32,59.89817311,,,,,,,,,,,,,,,,,,,,,,,,,,,,,,,,,36,4.6317,1,0,19,19,32,1,6,×,6,6 × 6,neutral,tie,2,1,36,,,,,,,,
,,,,,,,,,,,,,,,810,2022-01-16_12h38.14.422,multiplicationStroop,2021.2.3,Win32,59.89817311,,,,,,,,,,,,,,,,,,,,,,,,,,,,,,,,,4,1.4572,1,0,20,20,28,1,2,×,2,2 × 2,neutral,tie,2,1,4,,,,,,,,
,,,,,,,,,,,,,,,810,2022-01-16_12h38.14.422,multiplicationStroop,2021.2.3,Win32,59.89817311,,,,,,,,,,,,,,,,,,,,,,,,,,,,,,,,,10,1.7644,1,0,21,21,7,1,2,×,5,2 × 5,incongruent,smallerFirst,2,1,10,,,,,,,,
,,,,,,,,,,,,,,,810,2022-01-16_12h38.14.422,multiplicationStroop,2021.2.3,Win32,59.89817311,,,,,,,,,,,,,,,,,,,,,,,,,,,,,,,,,8,2.5981,1,0,22,22,10,1,2,×,4,2 × 4,incongruent,smallerFirst,2,1,8,,,,,,,,
,,,,,,,,,,,,,,,810,2022-01-16_12h38.14.422,multiplicationStroop,2021.2.3,Win32,59.89817311,,,,,,,,,,,,,,,,,,,,,,,,,,,,,,,,,6,2.7151,1,0,23,23,25,1,3,×,2,3 × 2,incongruent,largerFirst,1,2,6,,,,,,,,
,,,,,,,,,,,,,,,810,2022-01-16_12h38.14.422,multiplicationStroop,2021.2.3,Win32,59.89817311,,,,,,,,,,,,,,,,,,,,,,,,,,,,,,,,,16,1.99,1,0,24,24,9,1,2,×,8,2 × 8,incongruent,smallerFirst,2,1,16,,,,,,,,
,,,,,,,,,,,,,,,810,2022-01-16_12h38.14.422,multiplicationStroop,2021.2.3,Win32,59.89817311,,,,,,,,,,,,,,,,,,,,,,,,,,,,,,,,,64,3.2153,1,0,25,25,34,1,8,×,8,8 × 8,neutral,tie,2,1,64,,,,,,,,
,,,,,,,,,,,,,,,810,2022-01-16_12h38.14.422,multiplicationStroop,2021.2.3,Win32,59.89817311,,,,,,,,,,,,,,,,,,,,,,,,,,,,,,,,,21,2.1949,1,0,26,26,12,1,3,×,7,3 × 7,incongruent,smallerFirst,2,1,21,,,,,,,,
,,,,,,,,,,,,,,,810,2022-01-16_12h38.14.422,multiplicationStroop,2021.2.3,Win32,59.89817311,,,,,,,,,,,,,,,,,,,,,,,,,,,,,,,,,30,2.5571,1,0,27,27,11,1,5,×,6,5 × 6,incongruent,smallerFirst,2,1,30,,,,,,,,
,,,,,,,,,,,,,,,810,2022-01-16_12h38.14.422,multiplicationStroop,2021.2.3,Win32,59.89817311,,,,,,,,,,,,,,,,,,,,,,,,,,,,,,,,,12,1.582,1,0,28,28,5,1,2,×,6,2 × 6,incongruent,smallerFirst,2,1,12,,,,,,,,
,,,,,,,,,,,,,,,810,2022-01-16_12h38.14.422,multiplicationStroop,2021.2.3,Win32,59.89817311,,,,,,,,,,,,,,,,,,,,,,,,,,,,,,,,,49,2.3981,1,0,29,29,33,1,7,×,7,7 × 7,neutral,tie,2,1,49,,,,,,,,
,,,,,,,,,,,,,,,810,2022-01-16_12h38.14.422,multiplicationStroop,2021.2.3,Win32,59.89817311,,,,,,,,,,,,,,,,,,,,,,,,,,,,,,,,,81,2.7147,1,0,30,30,35,1,9,×,9,9 × 9,neutral,tie,2,1,81,,,,,,,,
,,,,,,,,,,,,,,,810,2022-01-16_12h38.14.422,multiplicationStroop,2021.2.3,Win32,59.89817311,,,,,,,,,,,,,,,,,,,,,,,,,,,,,,,,,63,5.547,1,0,31,31,17,1,9,×,7,9 × 7,incongruent,largerFirst,1,2,63,,,,,,,,
,,,,,,,,,,,,,,,810,2022-01-16_12h38.14.422,multiplicationStroop,2021.2.3,Win32,59.89817311,,,,,,,,,,,,,,,,,,,,,,,,,,,,,,,,,18,3.3578,1,0,32,32,22,1,6,×,3,6 × 3,incongruent,largerFirst,1,2,18,,,,,,,,
,,,,,,,,,,,,,,,810,2022-01-16_12h38.14.422,multiplicationStroop,2021.2.3,Win32,59.89817311,,,,,,,,,,,,,,,,,,,,,,,,,,,,,,,,,32,4.0056,1,0,33,33,21,1,8,×,4,8 × 4,incongruent,largerFirst,1,2,32,,,,,,,,
,,,,,,,,,,,,,,,810,2022-01-16_12h38.14.422,multiplicationStroop,2021.2.3,Win32,59.89817311,,,,,,,,,,,,,,,,,,,,,,,,,,,,,,,,,48,3.224,1,0,34,34,15,1,8,×,6,8 × 6,incongruent,largerFirst,1,2,48,,,,,,,,
,,,,,,,,,,,,,,,810,2022-01-16_12h38.14.422,multiplicationStroop,2021.2.3,Win32,59.89817311,,,,,,,,,,,,,,,,,,,,,,,,,,,,,,,,,25,2.2655,1,0,35,35,31,1,5,×,5,5 × 5,neutral,tie,2,1,25,,,,,,,,
,,,,,,,,,,,,,,,810,2022-01-16_12h38.14.422,multiplicationStroop,2021.2.3,Win32,59.89817311,,,,,,,,,,,,,,,,,,,,,,,,,,,,,,,,,,,,,,,,,,,,,,,,,,0,4,4,4,1,stimulusFile/mult_blk5_INcongruent.xlsx,,
,,,,,,,,,,,,,,,810,2022-01-16_12h38.14.422,multiplicationStroop,2021.2.3,Win32,59.89817311,,,,,,,,,,,,,,,,,,,,,,,,,,,,,,,space,1.1341,27,2.9236,1,0,0,0,26,1,9,×,3,9 × 3,congruent,largerFirst,2,1,27,,,,,,,,
,,,,,,,,,,,,,,,810,2022-01-16_12h38.14.422,multiplicationStroop,2021.2.3,Win32,59.89817311,,,,,,,,,,,,,,,,,,,,,,,,,,,,,,,,,25,1.9641,1,0,1,1,31,1,5,×,5,5 × 5,neutral,tie,2,1,25,,,,,,,,
,,,,,,,,,,,,,,,810,2022-01-16_12h38.14.422,multiplicationStroop,2021.2.3,Win32,59.89817311,,,,,,,,,,,,,,,,,,,,,,,,,,,,,,,,,20,1.9793,1,0,2,2,7,1,4,×,5,4 × 5,congruent,smallerFirst,1,2,20,,,,,,,,
,,,,,,,,,,,,,,,810,2022-01-16_12h38.14.422,multiplicationStroop,2021.2.3,Win32,59.89817311,,,,,,,,,,,,,,,,,,,,,,,,,,,,,,,,,42,2.665,1,0,3,3,3,1,6,×,7,6 × 7,congruent,smallerFirst,1,2,42,,,,,,,,
,,,,,,,,,,,,,,,810,2022-01-16_12h38.14.422,multiplicationStroop,2021.2.3,Win32,59.89817311,,,,,,,,,,,,,,,,,,,,,,,,,,,,,,,,,40,3.0233,1,0,4,4,6,1,5,×,8,5 × 8,congruent,smallerFirst,1,2,40,,,,,,,,
,,,,,,,,,,,,,,,810,2022-01-16_12h38.14.422,multiplicationStroop,2021.2.3,Win32,59.89817311,,,,,,,,,,,,,,,,,,,,,,,,,,,,,,,,,24,3.0973,1,0,5,5,25,1,6,×,4,6 × 4,congruent,largerFirst,2,1,24,,,,,,,,
,,,,,,,,,,,,,,,810,2022-01-16_12h38.14.422,multiplicationStroop,2021.2.3,Win32,59.89817311,,,,,,,,,,,,,,,,,,,,,,,,,,,,,,,,,28,3.6908,1,0,6,6,27,1,7,×,4,7 × 4,congruent,largerFirst,2,1,28,,,,,,,,
,,,,,,,,,,,,,,,810,2022-01-16_12h38.14.422,multiplicationStroop,2021.2.3,Win32,59.89817311,,,,,,,,,,,,,,,,,,,,,,,,,,,,,,,,,49,2.041,1,0,7,7,33,1,7,×,7,7 × 7,neutral,tie,2,1,49,,,,,,,,
,,,,,,,,,,,,,,,810,2022-01-16_12h38.14.422,multiplicationStroop,2021.2.3,Win32,59.89817311,,,,,,,,,,,,,,,,,,,,,,,,,,,,,,,,,4,1.4315,1,0,8,8,28,1,2,×,2,2 × 2,neutral,tie,2,1,4,,,,,,,,
,,,,,,,,,,,,,,,810,2022-01-16_12h38.14.422,multiplicationStroop,2021.2.3,Win32,59.89817311,,,,,,,,,,,,,,,,,,,,,,,,,,,,,,,,,12,2.6487,1,0,9,9,2,1,3,×,4,3 × 4,congruent,smallerFirst,1,2,12,,,,,,,,
,,,,,,,,,,,,,,,810,2022-01-16_12h38.14.422,multiplicationStroop,2021.2.3,Win32,59.89817311,,,,,,,,,,,,,,,,,,,,,,,,,,,,,,,,,24,2.4905,1,0,10,10,10,1,3,×,8,3 × 8,congruent,smallerFirst,1,2,24,,,,,,,,
,,,,,,,,,,,,,,,810,2022-01-16_12h38.14.422,multiplicationStroop,2021.2.3,Win32,59.89817311,,,,,,,,,,,,,,,,,,,,,,,,,,,,,,,,,21,2.4649,1,0,11,11,16,1,7,×,3,7 × 3,congruent,largerFirst,2,1,21,,,,,,,,
,,,,,,,,,,,,,,,810,2022-01-16_12h38.14.422,multiplicationStroop,2021.2.3,Win32,59.89817311,,,,,,,,,,,,,,,,,,,,,,,,,,,,,,,,,64,2.4645,1,0,12,12,34,1,8,×,8,8 × 8,neutral,tie,2,1,64,,,,,,,,
,,,,,,,,,,,,,,,810,2022-01-16_12h38.14.422,multiplicationStroop,2021.2.3,Win32,59.89817311,,,,,,,,,,,,,,,,,,,,,,,,,,,,,,,,,8,2.532,1,0,13,13,9,1,2,×,4,2 × 4,congruent,smallerFirst,1,2,8,,,,,,,,
,,,,,,,,,,,,,,,810,2022-01-16_12h38.14.422,multiplicationStroop,2021.2.3,Win32,59.89817311,,,,,,,,,,,,,,,,,,,,,,,,,,,,,,,,,35,4.6898,1,0,14,14,1,1,5,×,7,5 × 7,congruent,smallerFirst,1,2,35,,,,,,,,
,,,,,,,,,,,,,,,810,2022-01-16_12h38.14.422,multiplicationStroop,2021.2.3,Win32,59.89817311,,,,,,,,,,,,,,,,,,,,,,,,,,,,,,,,,15,1.7239,1,0,15,15,4,1,3,×,5,3 × 5,congruent,smallerFirst,1,2,15,,,,,,,,
,,,,,,,,,,,,,,,810,2022-01-16_12h38.14.422,multiplicationStroop,2021.2.3,Win32,59.89817311,,,,,,,,,,,,,,,,,,,,,,,,,,,,,,,,,30,4.4812,1,0,16,16,15,1,6,×,5,6 × 5,congruent,largerFirst,2,1,30,,,,,,,,
,,,,,,,,,,,,,,,810,2022-01-16_12h38.14.422,multiplicationStroop,2021.2.3,Win32,59.89817311,,,,,,,,,,,,,,,,,,,,,,,,,,,,,,,,,63,7.4074,1,0,17,17,21,1,9,×,7,9 × 7,congruent,largerFirst,2,1,63,,,,,,,,
,,,,,,,,,,,,,,,810,2022-01-16_12h38.14.422,multiplicationStroop,2021.2.3,Win32,59.89817311,,,,,,,,,,,,,,,,,,,,,,,,,,,,,,,,,18,2.3397,1,0,18,18,11,1,3,×,6,3 × 6,congruent,smallerFirst,1,2,18,,,,,,,,
,,,,,,,,,,,,,,,810,2022-01-16_12h38.14.422,multiplicationStroop,2021.2.3,Win32,59.89817311,,,,,,,,,,,,,,,,,,,,,,,,,,,,,,,,,36,2.5649,1,0,19,19,32,1,6,×,6,6 × 6,neutral,tie,2,1,36,,,,,,,,
,,,,,,,,,,,,,,,810,2022-01-16_12h38.14.422,multiplicationStroop,2021.2.3,Win32,59.89817311,,,,,,,,,,,,,,,,,,,,,,,,,,,,,,,,,16,2.1808,1,0,20,20,5,1,2,×,8,2 × 8,congruent,smallerFirst,1,2,16,,,,,,,,
,,,,,,,,,,,,,,,810,2022-01-16_12h38.14.422,multiplicationStroop,2021.2.3,Win32,59.89817311,,,,,,,,,,,,,,,,,,,,,,,,,,,,,,,,,45,1.8626,1,0,21,21,23,1,9,×,5,9 × 5,congruent,largerFirst,2,1,45,,,,,,,,
,,,,,,,,,,,,,,,810,2022-01-16_12h38.14.422,multiplicationStroop,2021.2.3,Win32,59.89817311,,,,,,,,,,,,,,,,,,,,,,,,,,,,,,,,,56,8.9143,1,0,22,22,8,1,7,×,8,7 × 8,congruent,smallerFirst,1,2,56,,,,,,,,
,,,,,,,,,,,,,,,810,2022-01-16_12h38.14.422,multiplicationStroop,2021.2.3,Win32,59.89817311,,,,,,,,,,,,,,,,,,,,,,,,,,,,,,,,,32,3.3224,1,0,23,23,20,1,8,×,4,8 × 4,congruent,largerFirst,2,1,32,,,,,,,,
,,,,,,,,,,,,,,,810,2022-01-16_12h38.14.422,multiplicationStroop,2021.2.3,Win32,59.89817311,,,,,,,,,,,,,,,,,,,,,,,,,,,,,,,,,16,3.7814,1,0,24,24,30,1,4,×,4,4 × 4,neutral,tie,2,1,16,,,,,,,,
,,,,,,,,,,,,,,,810,2022-01-16_12h38.14.422,multiplicationStroop,2021.2.3,Win32,59.89817311,,,,,,,,,,,,,,,,,,,,,,,,,,,,,,,,,6,1.9403,1,0,25,25,13,1,2,×,3,2 × 3,congruent,smallerFirst,1,2,6,,,,,,,,
,,,,,,,,,,,,,,,810,2022-01-16_12h38.14.422,multiplicationStroop,2021.2.3,Win32,59.89817311,,,,,,,,,,,,,,,,,,,,,,,,,,,,,,,,,81,3.3522,1,0,26,26,35,1,9,×,9,9 × 9,neutral,tie,2,1,81,,,,,,,,
,,,,,,,,,,,,,,,810,2022-01-16_12h38.14.422,multiplicationStroop,2021.2.3,Win32,59.89817311,,,,,,,,,,,,,,,,,,,,,,,,,,,,,,,,,48,7.6026,1,0,27,27,18,1,8,×,6,8 × 6,congruent,largerFirst,2,1,48,,,,,,,,
,,,,,,,,,,,,,,,810,2022-01-16_12h38.14.422,multiplicationStroop,2021.2.3,Win32,59.89817311,,,,,,,,,,,,,,,,,,,,,,,,,,,,,,,,,14,2.173,1,0,28,28,14,1,7,×,2,7 × 2,congruent,largerFirst,2,1,14,,,,,,,,
,,,,,,,,,,,,,,,810,2022-01-16_12h38.14.422,multiplicationStroop,2021.2.3,Win32,59.89817311,,,,,,,,,,,,,,,,,,,,,,,,,,,,,,,,,54,3.0143,1,0,29,29,12,1,6,×,9,6 × 9,congruent,smallerFirst,1,2,54,,,,,,,,
,,,,,,,,,,,,,,,810,2022-01-16_12h38.14.422,multiplicationStroop,2021.2.3,Win32,59.89817311,,,,,,,,,,,,,,,,,,,,,,,,,,,,,,,,,10,2.4811,1,0,30,30,24,1,5,×,2,5 × 2,congruent,largerFirst,2,1,10,,,,,,,,
,,,,,,,,,,,,,,,810,2022-01-16_12h38.14.422,multiplicationStroop,2021.2.3,Win32,59.89817311,,,,,,,,,,,,,,,,,,,,,,,,,,,,,,,,,12,1.5651,1,0,31,31,19,1,6,×,2,6 × 2,congruent,largerFirst,2,1,12,,,,,,,,
,,,,,,,,,,,,,,,810,2022-01-16_12h38.14.422,multiplicationStroop,2021.2.3,Win32,59.89817311,,,,,,,,,,,,,,,,,,,,,,,,,,,,,,,,,18,2.0988,1,0,32,32,22,1,9,×,2,9 × 2,congruent,largerFirst,2,1,18,,,,,,,,
,,,,,,,,,,,,,,,810,2022-01-16_12h38.14.422,multiplicationStroop,2021.2.3,Win32,59.89817311,,,,,,,,,,,,,,,,,,,,,,,,,,,,,,,,,72,9.3122,1,0,33,33,17,1,9,×,8,9 × 8,congruent,largerFirst,2,1,72,,,,,,,,
,,,,,,,,,,,,,,,810,2022-01-16_12h38.14.422,multiplicationStroop,2021.2.3,Win32,59.89817311,,,,,,,,,,,,,,,,,,,,,,,,,,,,,,,,,8,1.756,0,0,34,34,29,1,3,×,3,3 × 3,neutral,tie,2,1,9,,,,,,,,
,,,,,,,,,,,,,,,810,2022-01-16_12h38.14.422,multiplicationStroop,2021.2.3,Win32,59.89817311,,,,,,,,,,,,,,,,,,,,,,,,,,,,,,,,,36,6.6644,1,0,35,35,0,1,4,×,9,4 × 9,congruent,smallerFirst,1,2,36,,,,,,,,
,,,,,,,,,,,,,,,810,2022-01-16_12h38.14.422,multiplicationStroop,2021.2.3,Win32,59.89817311,,,,,,,,,,,,,,,,,,,,,,,,,,,,,,,,,,,,,,,,,,,,,,,,,,0,5,5,2,1,stimulusFile/mult_blk3_congruent.xlsx,,
,,,,,,,,,,,,,,,810,2022-01-16_12h38.14.422,multiplicationStroop,2021.2.3,Win32,59.89817311,,,,,,,,,,,,,,,,,,,,,,,,,,,,,,,,,,,,,,,,,,,,,,,,,,,,,,,,space,14.6571