welcomeKey_resp.keys,welcomeKey_resp.rt,X Scale,Y Scale,rt_resp_4.keys,rt_resp_4.corr,rt_resp_4.rt,speedtest_2.thisRepN,speedtest_2.thisTrialN,speedtest_2.thisN,speedtest_2.thisIndex,speedtest_2.ran,numberSc,posX,positionLayout,participant,date,expName,psychopyVersion,OS,frameRate,ct_instrresp.keys,ct_instrresp.rt,key_resp_2.keys,key_resp_2.rt,ct_keyResp.keys,ct_keyResp.corr,ct_keyResp.rt,trials.thisRepN,trials.thisTrialN,trials.thisN,trials.thisIndex,trials.ran,leftNo,rightNo,displayProblem,numDistance,leftNo_size,rightNo_size,Dims,keyAnswer,TS_Loop.thisRepN,TS_Loop.thisTrialN,TS_Loop.thisN,TS_Loop.thisIndex,TS_Loop.ran,Condition,ActionInst,instrImage,mltptaskInst_resp.keys,mltptaskInst_resp.rt,continue_resp_2.keys,continue_resp_2.rt,multp_Answer,multi_RT,multiplyCorr,LoopingMultiply.thisRepN,LoopingMultiply.thisTrialN,LoopingMultiply.thisN,LoopingMultiply.thisIndex,LoopingMultiply.ran,factor1,multiplySign,factor2,multliplyProblem,physicalSize,orderOperand,sizeF1,sizeF2,mult_answer,trials_stroop.thisRepN,trials_stroop.thisTrialN,trials_stroop.thisN,trials_stroop.thisIndex,trials_stroop.ran,multiplicationFile,esckey_resp_2.keys,esckey_resp_2.rt
y,2.934,60,55.6,left,1,0.429,0,0,0,4,1,6,-200,left,8116,2022-01-31_01h01.03.499,multiplicationStroop,2021.2.3,MacIntel,62.5,,,,,,,,,,,,,,,,,,,,,,,,,,,,,,,,,,,,,,,,,,,,,,,,,,,,,,,,,
,,,,left,1,0.361,0,1,1,6,1,8,-200,left,8116,2022-01-31_01h01.03.499,multiplicationStroop,2021.2.3,MacIntel,62.5,,,,,,,,,,,,,,,,,,,,,,,,,,,,,,,,,,,,,,,,,,,,,,,,,,,,,,,,,
,,,,right,1,0.446,0,2,2,12,1,6,200,right,8116,2022-01-31_01h01.03.499,multiplicationStroop,2021.2.3,MacIntel,62.5,,,,,,,,,,,,,,,,,,,,,,,,,,,,,,,,,,,,,,,,,,,,,,,,,,,,,,,,,
,,,,left,1,0.344,0,3,3,2,1,3,-200,left,8116,2022-01-31_01h01.03.499,multiplicationStroop,2021.2.3,MacIntel,62.5,,,,,,,,,,,,,,,,,,,,,,,,,,,,,,,,,,,,,,,,,,,,,,,,,,,,,,,,,
,,,,left,1,0.349,0,4,4,5,1,7,-200,left,8116,2022-01-31_01h01.03.499,multiplicationStroop,2021.2.3,MacIntel,62.5,,,,,,,,,,,,,,,,,,,,,,,,,,,,,,,,,,,,,,,,,,,,,,,,,,,,,,,,,
,,,,right,1,0.275,0,5,5,13,1,7,200,right,8116,2022-01-31_01h01.03.499,multiplicationStroop,2021.2.3,MacIntel,62.5,,,,,,,,,,,,,,,,,,,,,,,,,,,,,,,,,,,,,,,,,,,,,,,,,,,,,,,,,
,,,,left,1,0.296,0,6,6,7,1,9,-200,left,8116,2022-01-31_01h01.03.499,multiplicationStroop,2021.2.3,MacIntel,62.5,,,,,,,,,,,,,,,,,,,,,,,,,,,,,,,,,,,,,,,,,,,,,,,,,,,,,,,,,
,,,,right,1,0.348,0,7,7,9,1,2,200,right,8116,2022-01-31_01h01.03.499,multiplicationStroop,2021.2.3,MacIntel,62.5,,,,,,,,,,,,,,,,,,,,,,,,,,,,,,,,,,,,,,,,,,,,,,,,,,,,,,,,,
,,,,right,1,0.438,0,8,8,11,1,4,200,right,8116,2022-01-31_01h01.03.499,multiplicationStroop,2021.2.3,MacIntel,62.5,,,,,,,,,,,,,,,,,,,,,,,,,,,,,,,,,,,,,,,,,,,,,,,,,,,,,,,,,
,,,,left,1,0.474,0,9,9,0,1,1,-200,left,8116,2022-01-31_01h01.03.499,multiplicationStroop,2021.2.3,MacIntel,62.5,,,,,,,,,,,,,,,,,,,,,,,,,,,,,,,,,,,,,,,,,,,,,,,,,,,,,,,,,
,,,,right,1,0.338,0,10,10,15,1,9,200,right,8116,2022-01-31_01h01.03.499,multiplicationStroop,2021.2.3,MacIntel,62.5,,,,,,,,,,,,,,,,,,,,,,,,,,,,,,,,,,,,,,,,,,,,,,,,,,,,,,,,,
,,,,right,1,0.373,0,11,11,8,1,1,200,right,8116,2022-01-31_01h01.03.499,multiplicationStroop,2021.2.3,MacIntel,62.5,,,,,,,,,,,,,,,,,,,,,,,,,,,,,,,,,,,,,,,,,,,,,,,,,,,,,,,,,
,,,,right,1,0.289,0,12,12,14,1,8,200,right,8116,2022-01-31_01h01.03.499,multiplicationStroop,2021.2.3,MacIntel,62.5,,,,,,,,,,,,,,,,,,,,,,,,,,,,,,,,,,,,,,,,,,,,,,,,,,,,,,,,,
,,,,right,1,0.341,0,13,13,10,1,3,200,right,8116,2022-01-31_01h01.03.499,multiplicationStroop,2021.2.3,MacIntel,62.5,,,,,,,,,,,,,,,,,,,,,,,,,,,,,,,,,,,,,,,,,,,,,,,,,,,,,,,,,
,,,,left,1,0.315,0,14,14,3,1,4,-200,left,8116,2022-01-31_01h01.03.499,multiplicationStroop,2021.2.3,MacIntel,62.5,,,,,,,,,,,,,,,,,,,,,,,,,,,,,,,,,,,,,,,,,,,,,,,,,,,,,,,,,
,,,,left,1,0.315,0,15,15,1,1,2,-200,left,8116,2022-01-31_01h01.03.499,multiplicationStroop,2021.2.3,MacIntel,62.5,,,,,,,,,,,,,,,,,,,,,,,,,,,,,,,,,,,,,,,,,,,,,,,,,,,,,,,,,
,,,,left,1,0.412,1,0,16,2,1,3,-200,left,8116,2022-01-31_01h01.03.499,multiplicationStroop,2021.2.3,MacIntel,62.5,,,,,,,,,,,,,,,,,,,,,,,,,,,,,,,,,,,,,,,,,,,,,,,,,,,,,,,,,
,,,,left,1,0.349,1,1,17,4,1,6,-200,left,8116,2022-01-31_01h01.03.499,multiplicationStroop,2021.2.3,MacIntel,62.5,,,,,,,,,,,,,,,,,,,,,,,,,,,,,,,,,,,,,,,,,,,,,,,,,,,,,,,,,
,,,,right,1,0.272,1,2,18,9,1,2,200,right,8116,2022-01-31_01h01.03.499,multiplicationStroop,2021.2.3,MacIntel,62.5,,,,,,,,,,,,,,,,,,,,,,,,,,,,,,,,,,,,,,,,,,,,,,,,,,,,,,,,,
,,,,left,1,0.338,1,3,19,3,1,4,-200,left,8116,2022-01-31_01h01.03.499,multiplicationStroop,2021.2.3,MacIntel,62.5,,,,,,,,,,,,,,,,,,,,,,,,,,,,,,,,,,,,,,,,,,,,,,,,,,,,,,,,,
,,,,right,1,0.265,1,4,20,12,1,6,200,right,8116,2022-01-31_01h01.03.499,multiplicationStroop,2021.2.3,MacIntel,62.5,,,,,,,,,,,,,,,,,,,,,,,,,,,,,,,,,,,,,,,,,,,,,,,,,,,,,,,,,
,,,,right,1,0.351,1,5,21,13,1,7,200,right,8116,2022-01-31_01h01.03.499,multiplicationStroop,2021.2.3,MacIntel,62.5,,,,,,,,,,,,,,,,,,,,,,,,,,,,,,,,,,,,,,,,,,,,,,,,,,,,,,,,,
,,,,left,1,0.266,1,6,22,5,1,7,-200,left,8116,2022-01-31_01h01.03.499,multiplicationStroop,2021.2.3,MacIntel,62.5,,,,,,,,,,,,,,,,,,,,,,,,,,,,,,,,,,,,,,,,,,,,,,,,,,,,,,,,,
,,,,right,1,0.238,1,7,23,10,1,3,200,right,8116,2022-01-31_01h01.03.499,multiplicationStroop,2021.2.3,MacIntel,62.5,,,,,,,,,,,,,,,,,,,,,,,,,,,,,,,,,,,,,,,,,,,,,,,,,,,,,,,,,
,,,,left,1,0.247,1,8,24,7,1,9,-200,left,8116,2022-01-31_01h01.03.499,multiplicationStroop,2021.2.3,MacIntel,62.5,,,,,,,,,,,,,,,,,,,,,,,,,,,,,,,,,,,,,,,,,,,,,,,,,,,,,,,,,
,,,,left,1,0.269,1,9,25,0,1,1,-200,left,8116,2022-01-31_01h01.03.499,multiplicationStroop,2021.2.3,MacIntel,62.5,,,,,,,,,,,,,,,,,,,,,,,,,,,,,,,,,,,,,,,,,,,,,,,,,,,,,,,,,
,,,,left,1,0.264,1,10,26,6,1,8,-200,left,8116,2022-01-31_01h01.03.499,multiplicationStroop,2021.2.3,MacIntel,62.5,,,,,,,,,,,,,,,,,,,,,,,,,,,,,,,,,,,,,,,,,,,,,,,,,,,,,,,,,
,,,,right,1,0.268,1,11,27,14,1,8,200,right,8116,2022-01-31_01h01.03.499,multiplicationStroop,2021.2.3,MacIntel,62.5,,,,,,,,,,,,,,,,,,,,,,,,,,,,,,,,,,,,,,,,,,,,,,,,,,,,,,,,,
,,,,right,1,0.306,1,12,28,15,1,9,200,right,8116,2022-01-31_01h01.03.499,multiplicationStroop,2021.2.3,MacIntel,62.5,,,,,,,,,,,,,,,,,,,,,,,,,,,,,,,,,,,,,,,,,,,,,,,,,,,,,,,,,
,,,,right,1,0.354,1,13,29,8,1,1,200,right,8116,2022-01-31_01h01.03.499,multiplicationStroop,2021.2.3,MacIntel,62.5,,,,,,,,,,,,,,,,,,,,,,,,,,,,,,,,,,,,,,,,,,,,,,,,,,,,,,,,,
,,,,right,1,0.366,1,14,30,11,1,4,200,right,8116,2022-01-31_01h01.03.499,multiplicationStroop,2021.2.3,MacIntel,62.5,,,,,,,,,,,,,,,,,,,,,,,,,,,,,,,,,,,,,,,,,,,,,,,,,,,,,,,,,
,,,,left,1,0.298,1,15,31,1,1,2,-200,left,8116,2022-01-31_01h01.03.499,multiplicationStroop,2021.2.3,MacIntel,62.5,,,,,,,,,,,,,,,,,,,,,,,,,,,,,,,,,,,,,,,,,,,,,,,,,,,,,,,,,
,,,,left,1,0.263,2,0,32,6,1,8,-200,left,8116,2022-01-31_01h01.03.499,multiplicationStroop,2021.2.3,MacIntel,62.5,,,,,,,,,,,,,,,,,,,,,,,,,,,,,,,,,,,,,,,,,,,,,,,,,,,,,,,,,
,,,,left,1,0.285,2,1,33,0,1,1,-200,left,8116,2022-01-31_01h01.03.499,multiplicationStroop,2021.2.3,MacIntel,62.5,,,,,,,,,,,,,,,,,,,,,,,,,,,,,,,,,,,,,,,,,,,,,,,,,,,,,,,,,
,,,,right,1,0.321,2,2,34,8,1,1,200,right,8116,2022-01-31_01h01.03.499,multiplicationStroop,2021.2.3,MacIntel,62.5,,,,,,,,,,,,,,,,,,,,,,,,,,,,,,,,,,,,,,,,,,,,,,,,,,,,,,,,,
,,,,right,1,0.229,2,3,35,10,1,3,200,right,8116,2022-01-31_01h01.03.499,multiplicationStroop,2021.2.3,MacIntel,62.5,,,,,,,,,,,,,,,,,,,,,,,,,,,,,,,,,,,,,,,,,,,,,,,,,,,,,,,,,
,,,,left,1,0.354,2,4,36,3,1,4,-200,left,8116,2022-01-31_01h01.03.499,multiplicationStroop,2021.2.3,MacIntel,62.5,,,,,,,,,,,,,,,,,,,,,,,,,,,,,,,,,,,,,,,,,,,,,,,,,,,,,,,,,
,,,,right,1,0.26,2,5,37,11,1,4,200,right,8116,2022-01-31_01h01.03.499,multiplicationStroop,2021.2.3,MacIntel,62.5,,,,,,,,,,,,,,,,,,,,,,,,,,,,,,,,,,,,,,,,,,,,,,,,,,,,,,,,,
,,,,left,0,0.18,2,6,38,13,1,7,200,right,8116,2022-01-31_01h01.03.499,multiplicationStroop,2021.2.3,MacIntel,62.5,,,,,,,,,,,,,,,,,,,,,,,,,,,,,,,,,,,,,,,,,,,,,,,,,,,,,,,,,
,,,,right,1,0.171,2,7,39,15,1,9,200,right,8116,2022-01-31_01h01.03.499,multiplicationStroop,2021.2.3,MacIntel,62.5,,,,,,,,,,,,,,,,,,,,,,,,,,,,,,,,,,,,,,,,,,,,,,,,,,,,,,,,,
,,,,right,1,0.32,2,8,40,12,1,6,200,right,8116,2022-01-31_01h01.03.499,multiplicationStroop,2021.2.3,MacIntel,62.5,,,,,,,,,,,,,,,,,,,,,,,,,,,,,,,,,,,,,,,,,,,,,,,,,,,,,,,,,
,,,,left,1,0.295,2,9,41,1,1,2,-200,left,8116,2022-01-31_01h01.03.499,multiplicationStroop,2021.2.3,MacIntel,62.5,,,,,,,,,,,,,,,,,,,,,,,,,,,,,,,,,,,,,,,,,,,,,,,,,,,,,,,,,
,,,,right,1,0.236,2,10,42,14,1,8,200,right,8116,2022-01-31_01h01.03.499,multiplicationStroop,2021.2.3,MacIntel,62.5,,,,,,,,,,,,,,,,,,,,,,,,,,,,,,,,,,,,,,,,,,,,,,,,,,,,,,,,,
,,,,left,1,0.279,2,11,43,5,1,7,-200,left,8116,2022-01-31_01h01.03.499,multiplicationStroop,2021.2.3,MacIntel,62.5,,,,,,,,,,,,,,,,,,,,,,,,,,,,,,,,,,,,,,,,,,,,,,,,,,,,,,,,,
,,,,right,1,0.24,2,12,44,9,1,2,200,right,8116,2022-01-31_01h01.03.499,multiplicationStroop,2021.2.3,MacIntel,62.5,,,,,,,,,,,,,,,,,,,,,,,,,,,,,,,,,,,,,,,,,,,,,,,,,,,,,,,,,
,,,,left,1,0.195,2,13,45,2,1,3,-200,left,8116,2022-01-31_01h01.03.499,multiplicationStroop,2021.2.3,MacIntel,62.5,,,,,,,,,,,,,,,,,,,,,,,,,,,,,,,,,,,,,,,,,,,,,,,,,,,,,,,,,
,,,,left,1,0.329,2,14,46,7,1,9,-200,left,8116,2022-01-31_01h01.03.499,multiplicationStroop,2021.2.3,MacIntel,62.5,,,,,,,,,,,,,,,,,,,,,,,,,,,,,,,,,,,,,,,,,,,,,,,,,,,,,,,,,
,,,,left,1,0.406,2,15,47,4,1,6,-200,left,8116,2022-01-31_01h01.03.499,multiplicationStroop,2021.2.3,MacIntel,62.5,,,,,,,,,,,,,,,,,,,,,,,,,,,,,,,,,,,,,,,,,,,,,,,,,,,,,,,,,
,,,,right,1,0.317,3,0,48,12,1,6,200,right,8116,2022-01-31_01h01.03.499,multiplicationStroop,2021.2.3,MacIntel,62.5,,,,,,,,,,,,,,,,,,,,,,,,,,,,,,,,,,,,,,,,,,,,,,,,,,,,,,,,,
,,,,right,1,0.306,3,1,49,15,1,9,200,right,8116,2022-01-31_01h01.03.499,multiplicationStroop,2021.2.3,MacIntel,62.5,,,,,,,,,,,,,,,,,,,,,,,,,,,,,,,,,,,,,,,,,,,,,,,,,,,,,,,,,
,,,,right,1,0.241,3,2,50,10,1,3,200,right,8116,2022-01-31_01h01.03.499,multiplicationStroop,2021.2.3,MacIntel,62.5,,,,,,,,,,,,,,,,,,,,,,,,,,,,,,,,,,,,,,,,,,,,,,,,,,,,,,,,,
,,,,right,1,0.294,3,3,51,11,1,4,200,right,8116,2022-01-31_01h01.03.499,multiplicationStroop,2021.2.3,MacIntel,62.5,,,,,,,,,,,,,,,,,,,,,,,,,,,,,,,,,,,,,,,,,,,,,,,,,,,,,,,,,
,,,,right,1,0.261,3,4,52,9,1,2,200,right,8116,2022-01-31_01h01.03.499,multiplicationStroop,2021.2.3,MacIntel,62.5,,,,,,,,,,,,,,,,,,,,,,,,,,,,,,,,,,,,,,,,,,,,,,,,,,,,,,,,,
,,,,left,1,0.313,3,5,53,3,1,4,-200,left,8116,2022-01-31_01h01.03.499,multiplicationStroop,2021.2.3,MacIntel,62.5,,,,,,,,,,,,,,,,,,,,,,,,,,,,,,,,,,,,,,,,,,,,,,,,,,,,,,,,,
,,,,left,1,0.307,3,6,54,6,1,8,-200,left,8116,2022-01-31_01h01.03.499,multiplicationStroop,2021.2.3,MacIntel,62.5,,,,,,,,,,,,,,,,,,,,,,,,,,,,,,,,,,,,,,,,,,,,,,,,,,,,,,,,,
,,,,right,1,0.249,3,7,55,8,1,1,200,right,8116,2022-01-31_01h01.03.499,multiplicationStroop,2021.2.3,MacIntel,62.5,,,,,,,,,,,,,,,,,,,,,,,,,,,,,,,,,,,,,,,,,,,,,,,,,,,,,,,,,
,,,,left,1,0.317,3,8,56,1,1,2,-200,left,8116,2022-01-31_01h01.03.499,multiplicationStroop,2021.2.3,MacIntel,62.5,,,,,,,,,,,,,,,,,,,,,,,,,,,,,,,,,,,,,,,,,,,,,,,,,,,,,,,,,
,,,,left,1,0.432,3,9,57,4,1,6,-200,left,8116,2022-01-31_01h01.03.499,multiplicationStroop,2021.2.3,MacIntel,62.5,,,,,,,,,,,,,,,,,,,,,,,,,,,,,,,,,,,,,,,,,,,,,,,,,,,,,,,,,
,,,,left,1,0.313,3,10,58,2,1,3,-200,left,8116,2022-01-31_01h01.03.499,multiplicationStroop,2021.2.3,MacIntel,62.5,,,,,,,,,,,,,,,,,,,,,,,,,,,,,,,,,,,,,,,,,,,,,,,,,,,,,,,,,
,,,,right,1,0.344,3,11,59,13,1,7,200,right,8116,2022-01-31_01h01.03.499,multiplicationStroop,2021.2.3,MacIntel,62.5,,,,,,,,,,,,,,,,,,,,,,,,,,,,,,,,,,,,,,,,,,,,,,,,,,,,,,,,,
,,,,left,1,0.32,3,12,60,0,1,1,-200,left,8116,2022-01-31_01h01.03.499,multiplicationStroop,2021.2.3,MacIntel,62.5,,,,,,,,,,,,,,,,,,,,,,,,,,,,,,,,,,,,,,,,,,,,,,,,,,,,,,,,,
,,,,right,0,0.124,3,13,61,7,1,9,-200,left,8116,2022-01-31_01h01.03.499,multiplicationStroop,2021.2.3,MacIntel,62.5,,,,,,,,,,,,,,,,,,,,,,,,,,,,,,,,,,,,,,,,,,,,,,,,,,,,,,,,,
,,,,left,1,0.403,3,14,62,5,1,7,-200,left,8116,2022-01-31_01h01.03.499,multiplicationStroop,2021.2.3,MacIntel,62.5,,,,,,,,,,,,,,,,,,,,,,,,,,,,,,,,,,,,,,,,,,,,,,,,,,,,,,,,,
,,,,right,1,0.362,3,15,63,14,1,8,200,right,8116,2022-01-31_01h01.03.499,multiplicationStroop,2021.2.3,MacIntel,62.5,,,,,,,,,,,,,,,,,,,,,,,,,,,,,,,,,,,,,,,,,,,,,,,,,,,,,,,,,
,,,,,,,,,,,,,,,8116,2022-01-31_01h01.03.499,multiplicationStroop,2021.2.3,MacIntel,62.5,space,7.318,space,2.405,left,1,0.609,0,0,0,22,1,8,3,8 | 3,5,1.9756,1.4111,congruent,left,,,,,,stimulusFile/magnitude.xlsx,,,,,,,,,,,,,,,,,,,,,,,,,,,,,,,
,,,,,,,,,,,,,,,8116,2022-01-31_01h01.03.499,multiplicationStroop,2021.2.3,MacIntel,62.5,,,,,right,1,0.725,0,1,1,50,1,6,7,6 | 7,1,1.6933,1.6933,neutral,right,,,,,,stimulusFile/magnitude.xlsx,,,,,,,,,,,,,,,,,,,,,,,,,,,,,,,
,,,,,,,,,,,,,,,8116,2022-01-31_01h01.03.499,multiplicationStroop,2021.2.3,MacIntel,62.5,,,,,left,1,0.466,0,2,2,63,1,9,7,9 | 7,2,1.6933,1.6933,neutral,left,,,,,,stimulusFile/magnitude.xlsx,,,,,,,,,,,,,,,,,,,,,,,,,,,,,,,
,,,,,,,,,,,,,,,8116,2022-01-31_01h01.03.499,multiplicationStroop,2021.2.3,MacIntel,62.5,,,,,left,1,0.498,0,3,3,69,1,7,2,7 | 2,5,1.6933,1.6933,neutral,left,,,,,,stimulusFile/magnitude.xlsx,,,,,,,,,,,,,,,,,,,,,,,,,,,,,,,
,,,,,,,,,,,,,,,8116,2022-01-31_01h01.03.499,multiplicationStroop,2021.2.3,MacIntel,62.5,,,,,left,1,0.533,0,4,4,61,1,4,2,4 | 2,2,1.6933,1.6933,neutral,left,,,,,,stimulusFile/magnitude.xlsx,,,,,,,,,,,,,,,,,,,,,,,,,,,,,,,
,,,,,,,,,,,,,,,8116,2022-01-31_01h01.03.499,multiplicationStroop,2021.2.3,MacIntel,62.5,,,,,right,1,0.561,0,5,5,33,1,2,4,2 | 4,2,1.9756,1.4111,incongruent,right,,,,,,stimulusFile/magnitude.xlsx,,,,,,,,,,,,,,,,,,,,,,,,,,,,,,,
,,,,,,,,,,,,,,,8116,2022-01-31_01h01.03.499,multiplicationStroop,2021.2.3,MacIntel,62.5,,,,,left,1,1.005,0,6,6,47,1,9,4,9 | 4,5,1.4111,1.9756,incongruent,left,,,,,,stimulusFile/magnitude.xlsx,,,,,,,,,,,,,,,,,,,,,,,,,,,,,,,
,,,,,,,,,,,,,,,8116,2022-01-31_01h01.03.499,multiplicationStroop,2021.2.3,MacIntel,62.5,,,,,left,0,0.552,0,7,7,24,1,1,2,1 | 2,1,1.9756,1.4111,incongruent,right,,,,,,stimulusFile/magnitude.xlsx,,,,,,,,,,,,,,,,,,,,,,,,,,,,,,,
,,,,,,,,,,,,,,,8116,2022-01-31_01h01.03.499,multiplicationStroop,2021.2.3,MacIntel,62.5,,,,,left,1,0.925,0,8,8,55,1,9,8,9 | 8,1,1.6933,1.6933,neutral,left,,,,,,stimulusFile/magnitude.xlsx,,,,,,,,,,,,,,,,,,,,,,,,,,,,,,,
,,,,,,,,,,,,,,,8116,2022-01-31_01h01.03.499,multiplicationStroop,2021.2.3,MacIntel,62.5,,,,,left,1,0.641,0,9,9,39,1,9,7,9 | 7,2,1.4111,1.9756,incongruent,left,,,,,,stimulusFile/magnitude.xlsx,,,,,,,,,,,,,,,,,,,,,,,,,,,,,,,
,,,,,,,,,,,,,,,8116,2022-01-31_01h01.03.499,multiplicationStroop,2021.2.3,MacIntel,62.5,,,,,left,1,0.54,0,10,10,13,1,4,2,4 | 2,2,1.9756,1.4111,congruent,left,,,,,,stimulusFile/magnitude.xlsx,,,,,,,,,,,,,,,,,,,,,,,,,,,,,,,
,,,,,,,,,,,,,,,8116,2022-01-31_01h01.03.499,multiplicationStroop,2021.2.3,MacIntel,62.5,,,,,right,1,0.673,0,11,11,34,1,6,8,6 | 8,2,1.9756,1.4111,incongruent,right,,,,,,stimulusFile/magnitude.xlsx,,,,,,,,,,,,,,,,,,,,,,,,,,,,,,,
,,,,,,,,,,,,,,,8116,2022-01-31_01h01.03.499,multiplicationStroop,2021.2.3,MacIntel,62.5,,,,,right,1,0.625,0,12,12,0,1,1,2,1 | 2,1,1.4111,1.9756,congruent,right,,,,,,stimulusFile/magnitude.xlsx,,,,,,,,,,,,,,,,,,,,,,,,,,,,,,,
,,,,,,,,,,,,,,,8116,2022-01-31_01h01.03.499,multiplicationStroop,2021.2.3,MacIntel,62.5,,,,,right,1,0.714,0,13,13,19,1,4,9,4 | 9,5,1.4111,1.9756,congruent,right,,,,,,stimulusFile/magnitude.xlsx,,,,,,,,,,,,,,,,,,,,,,,,,,,,,,,
,,,,,,,,,,,,,,,8116,2022-01-31_01h01.03.499,multiplicationStroop,2021.2.3,MacIntel,62.5,,,,,right,1,0.704,0,14,14,26,1,6,7,6 | 7,1,1.9756,1.4111,incongruent,right,,,,,,stimulusFile/magnitude.xlsx,,,,,,,,,,,,,,,,,,,,,,,,,,,,,,,
,,,,,,,,,,,,,,,8116,2022-01-31_01h01.03.499,multiplicationStroop,2021.2.3,MacIntel,62.5,,,,,right,1,0.71,0,15,15,10,1,6,8,6 | 8,2,1.4111,1.9756,congruent,right,,,,,,stimulusFile/magnitude.xlsx,,,,,,,,,,,,,,,,,,,,,,,,,,,,,,,
,,,,,,,,,,,,,,,8116,2022-01-31_01h01.03.499,multiplicationStroop,2021.2.3,MacIntel,62.5,,,,,left,1,0.581,0,16,16,5,1,4,3,4 | 3,1,1.9756,1.4111,congruent,left,,,,,,stimulusFile/magnitude.xlsx,,,,,,,,,,,,,,,,,,,,,,,,,,,,,,,
,,,,,,,,,,,,,,,8116,2022-01-31_01h01.03.499,multiplicationStroop,2021.2.3,MacIntel,62.5,,,,,right,1,0.551,0,17,17,41,1,2,7,2 | 7,5,1.9756,1.4111,incongruent,right,,,,,,stimulusFile/magnitude.xlsx,,,,,,,,,,,,,,,,,,,,,,,,,,,,,,,
,,,,,,,,,,,,,,,8116,2022-01-31_01h01.03.499,multiplicationStroop,2021.2.3,MacIntel,62.5,,,,,left,1,0.493,0,18,18,21,1,7,2,7 | 2,5,1.9756,1.4111,congruent,left,,,,,,stimulusFile/magnitude.xlsx,,,,,,,,,,,,,,,,,,,,,,,,,,,,,,,
,,,,,,,,,,,,,,,8116,2022-01-31_01h01.03.499,multiplicationStroop,2021.2.3,MacIntel,62.5,,,,,left,1,0.614,0,19,19,45,1,7,2,7 | 2,5,1.4111,1.9756,incongruent,left,,,,,,stimulusFile/magnitude.xlsx,,,,,,,,,,,,,,,,,,,,,,,,,,,,,,,
,,,,,,,,,,,,,,,8116,2022-01-31_01h01.03.499,multiplicationStroop,2021.2.3,MacIntel,62.5,,,,,right,1,0.553,0,20,20,48,1,1,2,1 | 2,1,1.6933,1.6933,neutral,right,,,,,,stimulusFile/magnitude.xlsx,,,,,,,,,,,,,,,,,,,,,,,,,,,,,,,
,,,,,,,,,,,,,,,8116,2022-01-31_01h01.03.499,multiplicationStroop,2021.2.3,MacIntel,62.5,,,,,right,1,0.532,0,21,21,56,1,1,3,1 | 3,2,1.6933,1.6933,neutral,right,,,,,,stimulusFile/magnitude.xlsx,,,,,,,,,,,,,,,,,,,,,,,,,,,,,,,
,,,,,,,,,,,,,,,8116,2022-01-31_01h01.03.499,multiplicationStroop,2021.2.3,MacIntel,62.5,,,,,right,1,0.726,0,22,22,58,1,6,8,6 | 8,2,1.6933,1.6933,neutral,right,,,,,,stimulusFile/magnitude.xlsx,,,,,,,,,,,,,,,,,,,,,,,,,,,,,,,
,,,,,,,,,,,,,,,8116,2022-01-31_01h01.03.499,multiplicationStroop,2021.2.3,MacIntel,62.5,,,,,left,1,0.628,0,23,23,68,1,6,1,6 | 1,5,1.6933,1.6933,neutral,left,,,,,,stimulusFile/magnitude.xlsx,,,,,,,,,,,,,,,,,,,,,,,,,,,,,,,
,,,,,,,,,,,,,,,8116,2022-01-31_01h01.03.499,multiplicationStroop,2021.2.3,MacIntel,62.5,,,,,left,1,0.482,0,24,24,14,1,8,6,8 | 6,2,1.9756,1.4111,congruent,left,,,,,,stimulusFile/magnitude.xlsx,,,,,,,,,,,,,,,,,,,,,,,,,,,,,,,
,,,,,,,,,,,,,,,8116,2022-01-31_01h01.03.499,multiplicationStroop,2021.2.3,MacIntel,62.5,,,,,right,1,0.548,0,25,25,27,1,8,9,8 | 9,1,1.9756,1.4111,incongruent,right,,,,,,stimulusFile/magnitude.xlsx,,,,,,,,,,,,,,,,,,,,,,,,,,,,,,,
,,,,,,,,,,,,,,,8116,2022-01-31_01h01.03.499,multiplicationStroop,2021.2.3,MacIntel,62.5,,,,,left,1,0.78,0,26,26,36,1,3,1,3 | 1,2,1.4111,1.9756,incongruent,left,,,,,,stimulusFile/magnitude.xlsx,,,,,,,,,,,,,,,,,,,,,,,,,,,,,,,
,,,,,,,,,,,,,,,8116,2022-01-31_01h01.03.499,multiplicationStroop,2021.2.3,MacIntel,62.5,,,,,left,1,0.809,0,27,27,31,1,9,8,9 | 8,1,1.4111,1.9756,incongruent,left,,,,,,stimulusFile/magnitude.xlsx,,,,,,,,,,,,,,,,,,,,,,,,,,,,,,,
,,,,,,,,,,,,,,,8116,2022-01-31_01h01.03.499,multiplicationStroop,2021.2.3,MacIntel,62.5,,,,,left,1,0.719,0,28,28,38,1,8,6,8 | 6,2,1.4111,1.9756,incongruent,left,,,,,,stimulusFile/magnitude.xlsx,,,,,,,,,,,,,,,,,,,,,,,,,,,,,,,
,,,,,,,,,,,,,,,8116,2022-01-31_01h01.03.499,multiplicationStroop,2021.2.3,MacIntel,62.5,,,,,left,1,0.81,0,29,29,54,1,7,6,7 | 6,1,1.6933,1.6933,neutral,left,,,,,,stimulusFile/magnitude.xlsx,,,,,,,,,,,,,,,,,,,,,,,,,,,,,,,
,,,,,,,,,,,,,,,8116,2022-01-31_01h01.03.499,multiplicationStroop,2021.2.3,MacIntel,62.5,,,,,left,1,0.46,0,30,30,60,1,3,1,3 | 1,2,1.6933,1.6933,neutral,left,,,,,,stimulusFile/magnitude.xlsx,,,,,,,,,,,,,,,,,,,,,,,,,,,,,,,
,,,,,,,,,,,,,,,8116,2022-01-31_01h01.03.499,multiplicationStroop,2021.2.3,MacIntel,62.5,,,,,right,1,0.528,0,31,31,65,1,2,7,2 | 7,5,1.6933,1.6933,neutral,right,,,,,,stimulusFile/magnitude.xlsx,,,,,,,,,,,,,,,,,,,,,,,,,,,,,,,
,,,,,,,,,,,,,,,8116,2022-01-31_01h01.03.499,multiplicationStroop,2021.2.3,MacIntel,62.5,,,,,left,1,0.575,0,32,32,7,1,9,8,9 | 8,1,1.9756,1.4111,congruent,left,,,,,,stimulusFile/magnitude.xlsx,,,,,,,,,,,,,,,,,,,,,,,,,,,,,,,
,,,,,,,,,,,,,,,8116,2022-01-31_01h01.03.499,multiplicationStroop,2021.2.3,MacIntel,62.5,,,,,right,1,0.491,0,33,33,43,1,4,9,4 | 9,5,1.9756,1.4111,incongruent,right,,,,,,stimulusFile/magnitude.xlsx,,,,,,,,,,,,,,,,,,,,,,,,,,,,,,,
,,,,,,,,,,,,,,,8116,2022-01-31_01h01.03.499,multiplicationStroop,2021.2.3,MacIntel,62.5,,,,,right,1,0.61,0,34,34,49,1,3,4,3 | 4,1,1.6933,1.6933,neutral,right,,,,,,stimulusFile/magnitude.xlsx,,,,,,,,,,,,,,,,,,,,,,,,,,,,,,,
,,,,,,,,,,,,,,,8116,2022-01-31_01h01.03.499,multiplicationStroop,2021.2.3,MacIntel,62.5,,,,,right,1,0.543,0,35,35,51,1,8,9,8 | 9,1,1.6933,1.6933,neutral,right,,,,,,stimulusFile/magnitude.xlsx,,,,,,,,,,,,,,,,,,,,,,,,,,,,,,,
,,,,,,,,,,,,,,,8116,2022-01-31_01h01.03.499,multiplicationStroop,2021.2.3,MacIntel,62.5,,,,,right,1,0.454,0,36,36,16,1,1,6,1 | 6,5,1.4111,1.9756,congruent,right,,,,,,stimulusFile/magnitude.xlsx,,,,,,,,,,,,,,,,,,,,,,,,,,,,,,,
,,,,,,,,,,,,,,,8116,2022-01-31_01h01.03.499,multiplicationStroop,2021.2.3,MacIntel,62.5,,,,,left,1,0.558,0,37,37,52,1,2,1,2 | 1,1,1.6933,1.6933,neutral,left,,,,,,stimulusFile/magnitude.xlsx,,,,,,,,,,,,,,,,,,,,,,,,,,,,,,,
,,,,,,,,,,,,,,,8116,2022-01-31_01h01.03.499,multiplicationStroop,2021.2.3,MacIntel,62.5,,,,,right,1,0.556,0,38,38,59,1,7,9,7 | 9,2,1.6933,1.6933,neutral,right,,,,,,stimulusFile/magnitude.xlsx,,,,,,,,,,,,,,,,,,,,,,,,,,,,,,,
,,,,,,,,,,,,,,,8116,2022-01-31_01h01.03.499,multiplicationStroop,2021.2.3,MacIntel,62.5,,,,,left,1,0.543,0,39,39,28,1,2,1,2 | 1,1,1.4111,1.9756,incongruent,left,,,,,,stimulusFile/magnitude.xlsx,,,,,,,,,,,,,,,,,,,,,,,,,,,,,,,
,,,,,,,,,,,,,,,8116,2022-01-31_01h01.03.499,multiplicationStroop,2021.2.3,MacIntel,62.5,,,,,left,1,0.488,0,40,40,12,1,3,1,3 | 1,2,1.9756,1.4111,congruent,left,,,,,,stimulusFile/magnitude.xlsx,,,,,,,,,,,,,,,,,,,,,,,,,,,,,,,
,,,,,,,,,,,,,,,8116,2022-01-31_01h01.03.499,multiplicationStroop,2021.2.3,MacIntel,62.5,,,,,right,1,0.409,0,41,41,9,1,2,4,2 | 4,2,1.4111,1.9756,congruent,right,,,,,,stimulusFile/magnitude.xlsx,,,,,,,,,,,,,,,,,,,,,,,,,,,,,,,
,,,,,,,,,,,,,,,8116,2022-01-31_01h01.03.499,multiplicationStroop,2021.2.3,MacIntel,62.5,,,,,right,1,0.489,0,42,42,1,1,3,4,3 | 4,1,1.4111,1.9756,congruent,right,,,,,,stimulusFile/magnitude.xlsx,,,,,,,,,,,,,,,,,,,,,,,,,,,,,,,
,,,,,,,,,,,,,,,8116,2022-01-31_01h01.03.499,multiplicationStroop,2021.2.3,MacIntel,62.5,,,,,left,1,0.41,0,43,43,53,1,4,3,4 | 3,1,1.6933,1.6933,neutral,left,,,,,,stimulusFile/magnitude.xlsx,,,,,,,,,,,,,,,,,,,,,,,,,,,,,,,
,,,,,,,,,,,,,,,8116,2022-01-31_01h01.03.499,multiplicationStroop,2021.2.3,MacIntel,62.5,,,,,left,1,0.442,0,44,44,23,1,9,4,9 | 4,5,1.9756,1.4111,congruent,left,,,,,,stimulusFile/magnitude.xlsx,,,,,,,,,,,,,,,,,,,,,,,,,,,,,,,
,,,,,,,,,,,,,,,8116,2022-01-31_01h01.03.499,multiplicationStroop,2021.2.3,MacIntel,62.5,,,,,left,1,0.5,0,45,45,15,1,9,7,9 | 7,2,1.9756,1.4111,congruent,left,,,,,,stimulusFile/magnitude.xlsx,,,,,,,,,,,,,,,,,,,,,,,,,,,,,,,
,,,,,,,,,,,,,,,8116,2022-01-31_01h01.03.499,multiplicationStroop,2021.2.3,MacIntel,62.5,,,,,right,1,0.542,0,46,46,64,1,1,6,1 | 6,5,1.6933,1.6933,neutral,right,,,,,,stimulusFile/magnitude.xlsx,,,,,,,,,,,,,,,,,,,,,,,,,,,,,,,
,,,,,,,,,,,,,,,8116,2022-01-31_01h01.03.499,multiplicationStroop,2021.2.3,MacIntel,62.5,,,,,left,1,0.483,0,47,47,71,1,9,4,9 | 4,5,1.6933,1.6933,neutral,left,,,,,,stimulusFile/magnitude.xlsx,,,,,,,,,,,,,,,,,,,,,,,,,,,,,,,
,,,,,,,,,,,,,,,8116,2022-01-31_01h01.03.499,multiplicationStroop,2021.2.3,MacIntel,62.5,,,,,left,1,0.419,0,48,48,20,1,6,1,6 | 1,5,1.9756,1.4111,congruent,left,,,,,,stimulusFile/magnitude.xlsx,,,,,,,,,,,,,,,,,,,,,,,,,,,,,,,
,,,,,,,,,,,,,,,8116,2022-01-31_01h01.03.499,multiplicationStroop,2021.2.3,MacIntel,62.5,,,,,right,1,0.432,0,49,49,11,1,7,9,7 | 9,2,1.4111,1.9756,congruent,right,,,,,,stimulusFile/magnitude.xlsx,,,,,,,,,,,,,,,,,,,,,,,,,,,,,,,
,,,,,,,,,,,,,,,8116,2022-01-31_01h01.03.499,multiplicationStroop,2021.2.3,MacIntel,62.5,,,,,right,1,0.409,0,50,50,17,1,2,7,2 | 7,5,1.4111,1.9756,congruent,right,,,,,,stimulusFile/magnitude.xlsx,,,,,,,,,,,,,,,,,,,,,,,,,,,,,,,
,,,,,,,,,,,,,,,8116,2022-01-31_01h01.03.499,multiplicationStroop,2021.2.3,MacIntel,62.5,,,,,right,1,0.559,0,51,51,32,1,1,3,1 | 3,2,1.9756,1.4111,incongruent,right,,,,,,stimulusFile/magnitude.xlsx,,,,,,,,,,,,,,,,,,,,,,,,,,,,,,,
,,,,,,,,,,,,,,,8116,2022-01-31_01h01.03.499,multiplicationStroop,2021.2.3,MacIntel,62.5,,,,,left,1,0.86,0,52,52,62,1,8,6,8 | 6,2,1.6933,1.6933,neutral,left,,,,,,stimulusFile/magnitude.xlsx,,,,,,,,,,,,,,,,,,,,,,,,,,,,,,,
,,,,,,,,,,,,,,,8116,2022-01-31_01h01.03.499,multiplicationStroop,2021.2.3,MacIntel,62.5,,,,,right,1,0.461,0,53,53,2,1,6,7,6 | 7,1,1.4111,1.9756,congruent,right,,,,,,stimulusFile/magnitude.xlsx,,,,,,,,,,,,,,,,,,,,,,,,,,,,,,,
,,,,,,,,,,,,,,,8116,2022-01-31_01h01.03.499,multiplicationStroop,2021.2.3,MacIntel,62.5,,,,,left,1,0.508,0,54,54,30,1,7,6,7 | 6,1,1.4111,1.9756,incongruent,left,,,,,,stimulusFile/magnitude.xlsx,,,,,,,,,,,,,,,,,,,,,,,,,,,,,,,
,,,,,,,,,,,,,,,8116,2022-01-31_01h01.03.499,multiplicationStroop,2021.2.3,MacIntel,62.5,,,,,left,1,0.492,0,55,55,46,1,8,3,8 | 3,5,1.4111,1.9756,incongruent,left,,,,,,stimulusFile/magnitude.xlsx,,,,,,,,,,,,,,,,,,,,,,,,,,,,,,,
,,,,,,,,,,,,,,,8116,2022-01-31_01h01.03.499,multiplicationStroop,2021.2.3,MacIntel,62.5,,,,,left,1,0.459,0,56,56,70,1,8,3,8 | 3,5,1.6933,1.6933,neutral,left,,,,,,stimulusFile/magnitude.xlsx,,,,,,,,,,,,,,,,,,,,,,,,,,,,,,,
,,,,,,,,,,,,,,,8116,2022-01-31_01h01.03.499,multiplicationStroop,2021.2.3,MacIntel,62.5,,,,,right,1,0.483,0,57,57,57,1,2,4,2 | 4,2,1.6933,1.6933,neutral,right,,,,,,stimulusFile/magnitude.xlsx,,,,,,,,,,,,,,,,,,,,,,,,,,,,,,,
,,,,,,,,,,,,,,,8116,2022-01-31_01h01.03.499,multiplicationStroop,2021.2.3,MacIntel,62.5,,,,,right,1,0.526,0,58,58,8,1,1,3,1 | 3,2,1.4111,1.9756,congruent,right,,,,,,stimulusFile/magnitude.xlsx,,,,,,,,,,,,,,,,,,,,,,,,,,,,,,,
,,,,,,,,,,,,,,,8116,2022-01-31_01h01.03.499,multiplicationStroop,2021.2.3,MacIntel,62.5,,,,,right,1,0.611,0,59,59,66,1,3,8,3 | 8,5,1.6933,1.6933,neutral,right,,,,,,stimulusFile/magnitude.xlsx,,,,,,,,,,,,,,,,,,,,,,,,,,,,,,,
,,,,,,,,,,,,,,,8116,2022-01-31_01h01.03.499,multiplicationStroop,2021.2.3,MacIntel,62.5,,,,,left,1,0.448,0,60,60,44,1,6,1,6 | 1,5,1.4111,1.9756,incongruent,left,,,,,,stimulusFile/magnitude.xlsx,,,,,,,,,,,,,,,,,,,,,,,,,,,,,,,
,,,,,,,,,,,,,,,8116,2022-01-31_01h01.03.499,multiplicationStroop,2021.2.3,MacIntel,62.5,,,,,left,1,0.582,0,61,61,37,1,4,2,4 | 2,2,1.4111,1.9756,incongruent,left,,,,,,stimulusFile/magnitude.xlsx,,,,,,,,,,,,,,,,,,,,,,,,,,,,,,,
,,,,,,,,,,,,,,,8116,2022-01-31_01h01.03.499,multiplicationStroop,2021.2.3,MacIntel,62.5,,,,,right,1,0.487,0,62,62,3,1,8,9,8 | 9,1,1.4111,1.9756,congruent,right,,,,,,stimulusFile/magnitude.xlsx,,,,,,,,,,,,,,,,,,,,,,,,,,,,,,,
,,,,,,,,,,,,,,,8116,2022-01-31_01h01.03.499,multiplicationStroop,2021.2.3,MacIntel,62.5,,,,,left,1,0.514,0,63,63,6,1,7,6,7 | 6,1,1.9756,1.4111,congruent,left,,,,,,stimulusFile/magnitude.xlsx,,,,,,,,,,,,,,,,,,,,,,,,,,,,,,,
,,,,,,,,,,,,,,,8116,2022-01-31_01h01.03.499,multiplicationStroop,2021.2.3,MacIntel,62.5,,,,,right,1,0.449,0,64,64,18,1,3,8,3 | 8,5,1.4111,1.9756,congruent,right,,,,,,stimulusFile/magnitude.xlsx,,,,,,,,,,,,,,,,,,,,,,,,,,,,,,,
,,,,,,,,,,,,,,,8116,2022-01-31_01h01.03.499,multiplicationStroop,2021.2.3,MacIntel,62.5,,,,,right,1,0.515,0,65,65,67,1,4,9,4 | 9,5,1.6933,1.6933,neutral,right,,,,,,stimulusFile/magnitude.xlsx,,,,,,,,,,,,,,,,,,,,,,,,,,,,,,,
,,,,,,,,,,,,,,,8116,2022-01-31_01h01.03.499,multiplicationStroop,2021.2.3,MacIntel,62.5,,,,,left,0,0.484,0,66,66,25,1,3,4,3 | 4,1,1.9756,1.4111,incongruent,right,,,,,,stimulusFile/magnitude.xlsx,,,,,,,,,,,,,,,,,,,,,,,,,,,,,,,
,,,,,,,,,,,,,,,8116,2022-01-31_01h01.03.499,multiplicationStroop,2021.2.3,MacIntel,62.5,,,,,left,1,0.541,0,67,67,29,1,4,3,4 | 3,1,1.4111,1.9756,incongruent,left,,,,,,stimulusFile/magnitude.xlsx,,,,,,,,,,,,,,,,,,,,,,,,,,,,,,,
,,,,,,,,,,,,,,,8116,2022-01-31_01h01.03.499,multiplicationStroop,2021.2.3,MacIntel,62.5,,,,,left,1,0.461,0,68,68,4,1,2,1,2 | 1,1,1.9756,1.4111,congruent,left,,,,,,stimulusFile/magnitude.xlsx,,,,,,,,,,,,,,,,,,,,,,,,,,,,,,,
,,,,,,,,,,,,,,,8116,2022-01-31_01h01.03.499,multiplicationStroop,2021.2.3,MacIntel,62.5,,,,,right,1,0.445,0,69,69,42,1,3,8,3 | 8,5,1.9756,1.4111,incongruent,right,,,,,,stimulusFile/magnitude.xlsx,,,,,,,,,,,,,,,,,,,,,,,,,,,,,,,
,,,,,,,,,,,,,,,8116,2022-01-31_01h01.03.499,multiplicationStroop,2021.2.3,MacIntel,62.5,,,,,right,1,0.474,0,70,70,35,1,7,9,7 | 9,2,1.9756,1.4111,incongruent,right,,,,,,stimulusFile/magnitude.xlsx,,,,,,,,,,,,,,,,,,,,,,,,,,,,,,,
,,,,,,,,,,,,,,,8116,2022-01-31_01h01.03.499,multiplicationStroop,2021.2.3,MacIntel,62.5,,,,,right,1,0.431,0,71,71,40,1,1,6,1 | 6,5,1.9756,1.4111,incongruent,right,,,,,,stimulusFile/magnitude.xlsx,,,,,,,,,,,,,,,,,,,,,,,,,,,,,,,
,,,,,,,,,,,,,,,8116,2022-01-31_01h01.03.499,multiplicationStroop,2021.2.3,MacIntel,62.5,,,,,,,,,,,,,,,,,,,,,0,0,0,0,1,stimulusFile/magnitude.xlsx,NUMERICALLY larger (larger coefficient).,images/numericallyLarger.png,,,,,,,,,,,,,,,,,,,,,,,,,,,,,
,,,,,,,,,,,,,,,8116,2022-01-31_01h01.03.499,multiplicationStroop,2021.2.3,MacIntel,62.5,space,3.978,space,1.978,left,1,0.414,0,0,0,5,1,4,3,4 | 3,1,1.9756,1.4111,congruent,left,,,,,,stimulusFile/physical.xlsx,,,,,,,,,,,,,,,,,,,,,,,,,,,,,,,
,,,,,,,,,,,,,,,8116,2022-01-31_01h01.03.499,multiplicationStroop,2021.2.3,MacIntel,62.5,,,,,right,1,0.354,0,1,1,11,1,7,9,7 | 9,2,1.4111,1.9756,congruent,right,,,,,,stimulusFile/physical.xlsx,,,,,,,,,,,,,,,,,,,,,,,,,,,,,,,
,,,,,,,,,,,,,,,8116,2022-01-31_01h01.03.499,multiplicationStroop,2021.2.3,MacIntel,62.5,,,,,left,1,0.344,0,2,2,41,1,2,7,2 | 7,5,1.9756,1.4111,incongruent,left,,,,,,stimulusFile/physical.xlsx,,,,,,,,,,,,,,,,,,,,,,,,,,,,,,,
,,,,,,,,,,,,,,,8116,2022-01-31_01h01.03.499,multiplicationStroop,2021.2.3,MacIntel,62.5,,,,,right,1,0.344,0,3,3,16,1,1,6,1 | 6,5,1.4111,1.9756,congruent,right,,,,,,stimulusFile/physical.xlsx,,,,,,,,,,,,,,,,,,,,,,,,,,,,,,,
,,,,,,,,,,,,,,,8116,2022-01-31_01h01.03.499,multiplicationStroop,2021.2.3,MacIntel,62.5,,,,,right,1,0.568,0,4,4,47,1,9,4,9 | 4,5,1.4111,1.9756,incongruent,right,,,,,,stimulusFile/physical.xlsx,,,,,,,,,,,,,,,,,,,,,,,,,,,,,,,
,,,,,,,,,,,,,,,8116,2022-01-31_01h01.03.499,multiplicationStroop,2021.2.3,MacIntel,62.5,,,,,left,1,0.721,0,5,5,40,1,1,6,1 | 6,5,1.9756,1.4111,incongruent,left,,,,,,stimulusFile/physical.xlsx,,,,,,,,,,,,,,,,,,,,,,,,,,,,,,,
,,,,,,,,,,,,,,,8116,2022-01-31_01h01.03.499,multiplicationStroop,2021.2.3,MacIntel,62.5,,,,,right,1,0.466,0,6,6,10,1,6,8,6 | 8,2,1.4111,1.9756,congruent,right,,,,,,stimulusFile/physical.xlsx,,,,,,,,,,,,,,,,,,,,,,,,,,,,,,,
,,,,,,,,,,,,,,,8116,2022-01-31_01h01.03.499,multiplicationStroop,2021.2.3,MacIntel,62.5,,,,,left,1,0.375,0,7,7,22,1,8,3,8 | 3,5,1.9756,1.4111,congruent,left,,,,,,stimulusFile/physical.xlsx,,,,,,,,,,,,,,,,,,,,,,,,,,,,,,,
,,,,,,,,,,,,,,,8116,2022-01-31_01h01.03.499,multiplicationStroop,2021.2.3,MacIntel,62.5,,,,,left,0,0.467,0,8,8,64,1,1,1,1 | 1,0,1.9756,1.4111,neutral,right,,,,,,stimulusFile/physical.xlsx,,,,,,,,,,,,,,,,,,,,,,,,,,,,,,,
,,,,,,,,,,,,,,,8116,2022-01-31_01h01.03.499,multiplicationStroop,2021.2.3,MacIntel,62.5,,,,,right,1,0.392,0,9,9,60,1,3,3,3 | 3,0,1.4111,1.9756,neutral,right,,,,,,stimulusFile/physical.xlsx,,,,,,,,,,,,,,,,,,,,,,,,,,,,,,,
,,,,,,,,,,,,,,,8116,2022-01-31_01h01.03.499,multiplicationStroop,2021.2.3,MacIntel,62.5,,,,,left,1,0.447,0,10,10,24,1,1,2,1 | 2,1,1.9756,1.4111,incongruent,left,,,,,,stimulusFile/physical.xlsx,,,,,,,,,,,,,,,,,,,,,,,,,,,,,,,
,,,,,,,,,,,,,,,8116,2022-01-31_01h01.03.499,multiplicationStroop,2021.2.3,MacIntel,62.5,,,,,right,1,0.429,0,11,11,62,1,8,8,8 | 8,0,1.4111,1.9756,neutral,right,,,,,,stimulusFile/physical.xlsx,,,,,,,,,,,,,,,,,,,,,,,,,,,,,,,
,,,,,,,,,,,,,,,8116,2022-01-31_01h01.03.499,multiplicationStroop,2021.2.3,MacIntel,62.5,,,,,left,0,0.396,0,12,12,28,1,2,1,2 | 1,1,1.4111,1.9756,incongruent,right,,,,,,stimulusFile/physical.xlsx,,,,,,,,,,,,,,,,,,,,,,,,,,,,,,,
,,,,,,,,,,,,,,,8116,2022-01-31_01h01.03.499,multiplicationStroop,2021.2.3,MacIntel,62.5,,,,,right,1,0.552,0,13,13,56,1,1,1,1 | 1,0,1.4111,1.9756,neutral,right,,,,,,stimulusFile/physical.xlsx,,,,,,,,,,,,,,,,,,,,,,,,,,,,,,,
,,,,,,,,,,,,,,,8116,2022-01-31_01h01.03.499,multiplicationStroop,2021.2.3,MacIntel,62.5,,,,,right,1,0.734,0,14,14,67,1,4,4,4 | 4,0,1.4111,1.9756,neutral,right,,,,,,stimulusFile/physical.xlsx,,,,,,,,,,,,,,,,,,,,,,,,,,,,,,,
,,,,,,,,,,,,,,,8116,2022-01-31_01h01.03.499,multiplicationStroop,2021.2.3,MacIntel,62.5,,,,,right,1,0.398,0,15,15,9,1,2,4,2 | 4,2,1.4111,1.9756,congruent,right,,,,,,stimulusFile/physical.xlsx,,,,,,,,,,,,,,,,,,,,,,,,,,,,,,,
,,,,,,,,,,,,,,,8116,2022-01-31_01h01.03.499,multiplicationStroop,2021.2.3,MacIntel,62.5,,,,,right,1,0.615,0,16,16,38,1,8,6,8 | 6,2,1.4111,1.9756,incongruent,right,,,,,,stimulusFile/physical.xlsx,,,,,,,,,,,,,,,,,,,,,,,,,,,,,,,
,,,,,,,,,,,,,,,8116,2022-01-31_01h01.03.499,multiplicationStroop,2021.2.3,MacIntel,62.5,,,,,left,1,0.421,0,17,17,34,1,6,8,6 | 8,2,1.9756,1.4111,incongruent,left,,,,,,stimulusFile/physical.xlsx,,,,,,,,,,,,,,,,,,,,,,,,,,,,,,,
,,,,,,,,,,,,,,,8116,2022-01-31_01h01.03.499,multiplicationStroop,2021.2.3,MacIntel,62.5,,,,,right,1,0.466,0,18,18,46,1,8,3,8 | 3,5,1.4111,1.9756,incongruent,right,,,,,,stimulusFile/physical.xlsx,,,,,,,,,,,,,,,,,,,,,,,,,,,,,,,
,,,,,,,,,,,,,,,8116,2022-01-31_01h01.03.499,multiplicationStroop,2021.2.3,MacIntel,62.5,,,,,left,0,0.41,0,19,19,66,1,3,3,3 | 3,0,1.9756,1.4111,neutral,right,,,,,,stimulusFile/physical.xlsx,,,,,,,,,,,,,,,,,,,,,,,,,,,,,,,
,,,,,,,,,,,,,,,8116,2022-01-31_01h01.03.499,multiplicationStroop,2021.2.3,MacIntel,62.5,,,,,left,1,0.467,0,20,20,54,1,7,7,7 | 7,0,1.9756,1.4111,neutral,left,,,,,,stimulusFile/physical.xlsx,,,,,,,,,,,,,,,,,,,,,,,,,,,,,,,
,,,,,,,,,,,,,,,8116,2022-01-31_01h01.03.499,multiplicationStroop,2021.2.3,MacIntel,62.5,,,,,right,1,0.364,0,21,21,0,1,1,2,1 | 2,1,1.4111,1.9756,congruent,right,,,,,,stimulusFile/physical.xlsx,,,,,,,,,,,,,,,,,,,,,,,,,,,,,,,
,,,,,,,,,,,,,,,8116,2022-01-31_01h01.03.499,multiplicationStroop,2021.2.3,MacIntel,62.5,,,,,left,1,0.465,0,22,22,48,1,1,1,1 | 1,0,1.9756,1.4111,neutral,left,,,,,,stimulusFile/physical.xlsx,,,,,,,,,,,,,,,,,,,,,,,,,,,,,,,
,,,,,,,,,,,,,,,8116,2022-01-31_01h01.03.499,multiplicationStroop,2021.2.3,MacIntel,62.5,,,,,left,1,0.436,0,23,23,55,1,9,9,9 | 9,0,1.9756,1.4111,neutral,left,,,,,,stimulusFile/physical.xlsx,,,,,,,,,,,,,,,,,,,,,,,,,,,,,,,
,,,,,,,,,,,,,,,8116,2022-01-31_01h01.03.499,multiplicationStroop,2021.2.3,MacIntel,62.5,,,,,right,1,0.352,0,24,24,65,1,2,2,2 | 2,0,1.4111,1.9756,neutral,right,,,,,,stimulusFile/physical.xlsx,,,,,,,,,,,,,,,,,,,,,,,,,,,,,,,
,,,,,,,,,,,,,,,8116,2022-01-31_01h01.03.499,multiplicationStroop,2021.2.3,MacIntel,62.5,,,,,left,1,0.387,0,25,25,15,1,9,7,9 | 7,2,1.9756,1.4111,congruent,left,,,,,,stimulusFile/physical.xlsx,,,,,,,,,,,,,,,,,,,,,,,,,,,,,,,
,,,,,,,,,,,,,,,8116,2022-01-31_01h01.03.499,multiplicationStroop,2021.2.3,MacIntel,62.5,,,,,left,1,0.443,0,26,26,50,1,6,6,6 | 6,0,1.9756,1.4111,neutral,left,,,,,,stimulusFile/physical.xlsx,,,,,,,,,,,,,,,,,,,,,,,,,,,,,,,
,,,,,,,,,,,,,,,8116,2022-01-31_01h01.03.499,multiplicationStroop,2021.2.3,MacIntel,62.5,,,,,left,1,0.527,0,27,27,35,1,7,9,7 | 9,2,1.9756,1.4111,incongruent,left,,,,,,stimulusFile/physical.xlsx,,,,,,,,,,,,,,,,,,,,,,,,,,,,,,,
,,,,,,,,,,,,,,,8116,2022-01-31_01h01.03.499,multiplicationStroop,2021.2.3,MacIntel,62.5,,,,,right,1,0.383,0,28,28,57,1,2,2,2 | 2,0,1.4111,1.9756,neutral,right,,,,,,stimulusFile/physical.xlsx,,,,,,,,,,,,,,,,,,,,,,,,,,,,,,,
,,,,,,,,,,,,,,,8116,2022-01-31_01h01.03.499,multiplicationStroop,2021.2.3,MacIntel,62.5,,,,,left,1,0.396,0,29,29,6,1,7,6,7 | 6,1,1.9756,1.4111,congruent,left,,,,,,stimulusFile/physical.xlsx,,,,,,,,,,,,,,,,,,,,,,,,,,,,,,,
,,,,,,,,,,,,,,,8116,2022-01-31_01h01.03.499,multiplicationStroop,2021.2.3,MacIntel,62.5,,,,,right,1,0.365,0,30,30,19,1,4,9,4 | 9,5,1.4111,1.9756,congruent,right,,,,,,stimulusFile/physical.xlsx,,,,,,,,,,,,,,,,,,,,,,,,,,,,,,,
,,,,,,,,,,,,,,,8116,2022-01-31_01h01.03.499,multiplicationStroop,2021.2.3,MacIntel,62.5,,,,,right,1,0.42,0,31,31,30,1,7,6,7 | 6,1,1.4111,1.9756,incongruent,right,,,,,,stimulusFile/physical.xlsx,,,,,,,,,,,,,,,,,,,,,,,,,,,,,,,
,,,,,,,,,,,,,,,8116,2022-01-31_01h01.03.499,multiplicationStroop,2021.2.3,MacIntel,62.5,,,,,left,1,0.661,0,32,32,42,1,3,8,3 | 8,5,1.9756,1.4111,incongruent,left,,,,,,stimulusFile/physical.xlsx,,,,,,,,,,,,,,,,,,,,,,,,,,,,,,,
,,,,,,,,,,,,,,,8116,2022-01-31_01h01.03.499,multiplicationStroop,2021.2.3,MacIntel,62.5,,,,,left,1,0.46,0,33,33,43,1,4,9,4 | 9,5,1.9756,1.4111,incongruent,left,,,,,,stimulusFile/physical.xlsx,,,,,,,,,,,,,,,,,,,,,,,,,,,,,,,
,,,,,,,,,,,,,,,8116,2022-01-31_01h01.03.499,multiplicationStroop,2021.2.3,MacIntel,62.5,,,,,right,1,0.471,0,34,34,1,1,3,4,3 | 4,1,1.4111,1.9756,congruent,right,,,,,,stimulusFile/physical.xlsx,,,,,,,,,,,,,,,,,,,,,,,,,,,,,,,
,,,,,,,,,,,,,,,8116,2022-01-31_01h01.03.499,multiplicationStroop,2021.2.3,MacIntel,62.5,,,,,left,1,0.375,0,35,35,14,1,8,6,8 | 6,2,1.9756,1.4111,congruent,left,,,,,,stimulusFile/physical.xlsx,,,,,,,,,,,,,,,,,,,,,,,,,,,,,,,
,,,,,,,,,,,,,,,8116,2022-01-31_01h01.03.499,multiplicationStroop,2021.2.3,MacIntel,62.5,,,,,right,1,0.382,0,36,36,45,1,7,2,7 | 2,5,1.4111,1.9756,incongruent,right,,,,,,stimulusFile/physical.xlsx,,,,,,,,,,,,,,,,,,,,,,,,,,,,,,,
,,,,,,,,,,,,,,,8116,2022-01-31_01h01.03.499,multiplicationStroop,2021.2.3,MacIntel,62.5,,,,,left,1,0.376,0,37,37,12,1,3,1,3 | 1,2,1.9756,1.4111,congruent,left,,,,,,stimulusFile/physical.xlsx,,,,,,,,,,,,,,,,,,,,,,,,,,,,,,,
,,,,,,,,,,,,,,,8116,2022-01-31_01h01.03.499,multiplicationStroop,2021.2.3,MacIntel,62.5,,,,,right,1,0.378,0,38,38,17,1,2,7,2 | 7,5,1.4111,1.9756,congruent,right,,,,,,stimulusFile/physical.xlsx,,,,,,,,,,,,,,,,,,,,,,,,,,,,,,,
,,,,,,,,,,,,,,,8116,2022-01-31_01h01.03.499,multiplicationStroop,2021.2.3,MacIntel,62.5,,,,,left,1,0.347,0,39,39,20,1,6,1,6 | 1,5,1.9756,1.4111,congruent,left,,,,,,stimulusFile/physical.xlsx,,,,,,,,,,,,,,,,,,,,,,,,,,,,,,,
,,,,,,,,,,,,,,,8116,2022-01-31_01h01.03.499,multiplicationStroop,2021.2.3,MacIntel,62.5,,,,,right,1,0.4,0,40,40,61,1,4,4,4 | 4,0,1.4111,1.9756,neutral,right,,,,,,stimulusFile/physical.xlsx,,,,,,,,,,,,,,,,,,,,,,,,,,,,,,,
,,,,,,,,,,,,,,,8116,2022-01-31_01h01.03.499,multiplicationStroop,2021.2.3,MacIntel,62.5,,,,,right,1,0.56,0,41,41,36,1,3,1,3 | 1,2,1.4111,1.9756,incongruent,right,,,,,,stimulusFile/physical.xlsx,,,,,,,,,,,,,,,,,,,,,,,,,,,,,,,
,,,,,,,,,,,,,,,8116,2022-01-31_01h01.03.499,multiplicationStroop,2021.2.3,MacIntel,62.5,,,,,right,0,0.478,0,42,42,69,1,7,7,7 | 7,0,1.4111,1.9756,neutral,left,,,,,,stimulusFile/physical.xlsx,,,,,,,,,,,,,,,,,,,,,,,,,,,,,,,
,,,,,,,,,,,,,,,8116,2022-01-31_01h01.03.499,multiplicationStroop,2021.2.3,MacIntel,62.5,,,,,left,1,0.393,0,43,43,21,1,7,2,7 | 2,5,1.9756,1.4111,congruent,left,,,,,,stimulusFile/physical.xlsx,,,,,,,,,,,,,,,,,,,,,,,,,,,,,,,
,,,,,,,,,,,,,,,8116,2022-01-31_01h01.03.499,multiplicationStroop,2021.2.3,MacIntel,62.5,,,,,right,1,0.382,0,44,44,63,1,9,9,9 | 9,0,1.4111,1.9756,neutral,right,,,,,,stimulusFile/physical.xlsx,,,,,,,,,,,,,,,,,,,,,,,,,,,,,,,
,,,,,,,,,,,,,,,8116,2022-01-31_01h01.03.499,multiplicationStroop,2021.2.3,MacIntel,62.5,,,,,left,1,0.529,0,45,45,49,1,3,3,3 | 3,0,1.9756,1.4111,neutral,left,,,,,,stimulusFile/physical.xlsx,,,,,,,,,,,,,,,,,,,,,,,,,,,,,,,
,,,,,,,,,,,,,,,8116,2022-01-31_01h01.03.499,multiplicationStroop,2021.2.3,MacIntel,62.5,,,,,left,1,0.443,0,46,46,25,1,3,4,3 | 4,1,1.9756,1.4111,incongruent,left,,,,,,stimulusFile/physical.xlsx,,,,,,,,,,,,,,,,,,,,,,,,,,,,,,,
,,,,,,,,,,,,,,,8116,2022-01-31_01h01.03.499,multiplicationStroop,2021.2.3,MacIntel,62.5,,,,,left,1,0.437,0,47,47,53,1,4,4,4 | 4,0,1.9756,1.4111,neutral,left,,,,,,stimulusFile/physical.xlsx,,,,,,,,,,,,,,,,,,,,,,,,,,,,,,,
,,,,,,,,,,,,,,,8116,2022-01-31_01h01.03.499,multiplicationStroop,2021.2.3,MacIntel,62.5,,,,,left,1,0.335,0,48,48,51,1,8,8,8 | 8,0,1.9756,1.4111,neutral,left,,,,,,stimulusFile/physical.xlsx,,,,,,,,,,,,,,,,,,,,,,,,,,,,,,,
,,,,,,,,,,,,,,,8116,2022-01-31_01h01.03.499,multiplicationStroop,2021.2.3,MacIntel,62.5,,,,,left,1,0.585,0,49,49,32,1,1,3,1 | 3,2,1.9756,1.4111,incongruent,left,,,,,,stimulusFile/physical.xlsx,,,,,,,,,,,,,,,,,,,,,,,,,,,,,,,
,,,,,,,,,,,,,,,8116,2022-01-31_01h01.03.499,multiplicationStroop,2021.2.3,MacIntel,62.5,,,,,left,1,0.372,0,50,50,7,1,9,8,9 | 8,1,1.9756,1.4111,congruent,left,,,,,,stimulusFile/physical.xlsx,,,,,,,,,,,,,,,,,,,,,,,,,,,,,,,
,,,,,,,,,,,,,,,8116,2022-01-31_01h01.03.499,multiplicationStroop,2021.2.3,MacIntel,62.5,,,,,right,1,0.371,0,51,51,58,1,6,6,6 | 6,0,1.4111,1.9756,neutral,right,,,,,,stimulusFile/physical.xlsx,,,,,,,,,,,,,,,,,,,,,,,,,,,,,,,
,,,,,,,,,,,,,,,8116,2022-01-31_01h01.03.499,multiplicationStroop,2021.2.3,MacIntel,62.5,,,,,right,1,0.393,0,52,52,39,1,9,7,9 | 7,2,1.4111,1.9756,incongruent,right,,,,,,stimulusFile/physical.xlsx,,,,,,,,,,,,,,,,,,,,,,,,,,,,,,,
,,,,,,,,,,,,,,,8116,2022-01-31_01h01.03.499,multiplicationStroop,2021.2.3,MacIntel,62.5,,,,,right,1,0.393,0,53,53,3,1,8,9,8 | 9,1,1.4111,1.9756,congruent,right,,,,,,stimulusFile/physical.xlsx,,,,,,,,,,,,,,,,,,,,,,,,,,,,,,,
,,,,,,,,,,,,,,,8116,2022-01-31_01h01.03.499,multiplicationStroop,2021.2.3,MacIntel,62.5,,,,,left,0,0.446,0,54,54,37,1,4,2,4 | 2,2,1.4111,1.9756,incongruent,right,,,,,,stimulusFile/physical.xlsx,,,,,,,,,,,,,,,,,,,,,,,,,,,,,,,
,,,,,,,,,,,,,,,8116,2022-01-31_01h01.03.499,multiplicationStroop,2021.2.3,MacIntel,62.5,,,,,left,1,0.446,0,55,55,4,1,2,1,2 | 1,1,1.9756,1.4111,congruent,left,,,,,,stimulusFile/physical.xlsx,,,,,,,,,,,,,,,,,,,,,,,,,,,,,,,
,,,,,,,,,,,,,,,8116,2022-01-31_01h01.03.499,multiplicationStroop,2021.2.3,MacIntel,62.5,,,,,left,1,0.562,0,56,56,52,1,2,2,2 | 2,0,1.9756,1.4111,neutral,left,,,,,,stimulusFile/physical.xlsx,,,,,,,,,,,,,,,,,,,,,,,,,,,,,,,
,,,,,,,,,,,,,,,8116,2022-01-31_01h01.03.499,multiplicationStroop,2021.2.3,MacIntel,62.5,,,,,right,1,0.393,0,57,57,29,1,4,3,4 | 3,1,1.4111,1.9756,incongruent,right,,,,,,stimulusFile/physical.xlsx,,,,,,,,,,,,,,,,,,,,,,,,,,,,,,,
,,,,,,,,,,,,,,,8116,2022-01-31_01h01.03.499,multiplicationStroop,2021.2.3,MacIntel,62.5,,,,,right,0,0.293,0,58,58,23,1,9,4,9 | 4,5,1.9756,1.4111,congruent,left,,,,,,stimulusFile/physical.xlsx,,,,,,,,,,,,,,,,,,,,,,,,,,,,,,,
,,,,,,,,,,,,,,,8116,2022-01-31_01h01.03.499,multiplicationStroop,2021.2.3,MacIntel,62.5,,,,,right,1,0.487,0,59,59,59,1,7,7,7 | 7,0,1.4111,1.9756,neutral,right,,,,,,stimulusFile/physical.xlsx,,,,,,,,,,,,,,,,,,,,,,,,,,,,,,,
,,,,,,,,,,,,,,,8116,2022-01-31_01h01.03.499,multiplicationStroop,2021.2.3,MacIntel,62.5,,,,,left,1,0.42,0,60,60,27,1,8,9,8 | 9,1,1.9756,1.4111,incongruent,left,,,,,,stimulusFile/physical.xlsx,,,,,,,,,,,,,,,,,,,,,,,,,,,,,,,
,,,,,,,,,,,,,,,8116,2022-01-31_01h01.03.499,multiplicationStroop,2021.2.3,MacIntel,62.5,,,,,left,1,0.447,0,61,61,13,1,4,2,4 | 2,2,1.9756,1.4111,congruent,left,,,,,,stimulusFile/physical.xlsx,,,,,,,,,,,,,,,,,,,,,,,,,,,,,,,
,,,,,,,,,,,,,,,8116,2022-01-31_01h01.03.499,multiplicationStroop,2021.2.3,MacIntel,62.5,,,,,right,1,0.394,0,62,62,31,1,9,8,9 | 8,1,1.4111,1.9756,incongruent,right,,,,,,stimulusFile/physical.xlsx,,,,,,,,,,,,,,,,,,,,,,,,,,,,,,,
,,,,,,,,,,,,,,,8116,2022-01-31_01h01.03.499,multiplicationStroop,2021.2.3,MacIntel,62.5,,,,,left,0,0.398,0,63,63,44,1,6,1,6 | 1,5,1.4111,1.9756,incongruent,right,,,,,,stimulusFile/physical.xlsx,,,,,,,,,,,,,,,,,,,,,,,,,,,,,,,
,,,,,,,,,,,,,,,8116,2022-01-31_01h01.03.499,multiplicationStroop,2021.2.3,MacIntel,62.5,,,,,right,1,0.428,0,64,64,18,1,3,8,3 | 8,5,1.4111,1.9756,congruent,right,,,,,,stimulusFile/physical.xlsx,,,,,,,,,,,,,,,,,,,,,,,,,,,,,,,
,,,,,,,,,,,,,,,8116,2022-01-31_01h01.03.499,multiplicationStroop,2021.2.3,MacIntel,62.5,,,,,right,0,0.435,0,65,65,71,1,9,9,9 | 9,0,1.4111,1.9756,neutral,left,,,,,,stimulusFile/physical.xlsx,,,,,,,,,,,,,,,,,,,,,,,,,,,,,,,
,,,,,,,,,,,,,,,8116,2022-01-31_01h01.03.499,multiplicationStroop,2021.2.3,MacIntel,62.5,,,,,right,1,0.397,0,66,66,2,1,6,7,6 | 7,1,1.4111,1.9756,congruent,right,,,,,,stimulusFile/physical.xlsx,,,,,,,,,,,,,,,,,,,,,,,,,,,,,,,
,,,,,,,,,,,,,,,8116,2022-01-31_01h01.03.499,multiplicationStroop,2021.2.3,MacIntel,62.5,,,,,left,1,0.493,0,67,67,68,1,6,6,6 | 6,0,1.9756,1.4111,neutral,left,,,,,,stimulusFile/physical.xlsx,,,,,,,,,,,,,,,,,,,,,,,,,,,,,,,
,,,,,,,,,,,,,,,8116,2022-01-31_01h01.03.499,multiplicationStroop,2021.2.3,MacIntel,62.5,,,,,left,1,0.459,0,68,68,70,1,8,8,8 | 8,0,1.9756,1.4111,neutral,left,,,,,,stimulusFile/physical.xlsx,,,,,,,,,,,,,,,,,,,,,,,,,,,,,,,
,,,,,,,,,,,,,,,8116,2022-01-31_01h01.03.499,multiplicationStroop,2021.2.3,MacIntel,62.5,,,,,right,1,0.365,0,69,69,8,1,1,3,1 | 3,2,1.4111,1.9756,congruent,right,,,,,,stimulusFile/physical.xlsx,,,,,,,,,,,,,,,,,,,,,,,,,,,,,,,
,,,,,,,,,,,,,,,8116,2022-01-31_01h01.03.499,multiplicationStroop,2021.2.3,MacIntel,62.5,,,,,left,1,0.378,0,70,70,33,1,2,4,2 | 4,2,1.9756,1.4111,incongruent,left,,,,,,stimulusFile/physical.xlsx,,,,,,,,,,,,,,,,,,,,,,,,,,,,,,,
,,,,,,,,,,,,,,,8116,2022-01-31_01h01.03.499,multiplicationStroop,2021.2.3,MacIntel,62.5,,,,,left,1,0.392,0,71,71,26,1,6,7,6 | 7,1,1.9756,1.4111,incongruent,left,,,,,,stimulusFile/physical.xlsx,,,,,,,,,,,,,,,,,,,,,,,,,,,,,,,
,,,,,,,,,,,,,,,8116,2022-01-31_01h01.03.499,multiplicationStroop,2021.2.3,MacIntel,62.5,,,,,,,,,,,,,,,,,,,,,0,1,1,1,1,stimulusFile/physical.xlsx,PHYSICALLY larger (larger font size).,images/physicallyLarger.png,,,,,,,,,,,,,,,,,,,,,,,,,,,,,
,,,,,,,,,,,,,,,8116,2022-01-31_01h01.03.499,multiplicationStroop,2021.2.3,MacIntel,62.5,,,,,,,,,,,,,,,,,,,,,,,,,,,,,space,3.511,space,1.588,63,3.194,1,0,0,0,26,1,9,×,7,9 × 7,neutral,largerFirst,1.5,1.5,63,,,,,,,,
,,,,,,,,,,,,,,,8116,2022-01-31_01h01.03.499,multiplicationStroop,2021.2.3,MacIntel,62.5,,,,,,,,,,,,,,,,,,,,,,,,,,,,,,,,,36,1.799,1,0,1,1,13,1,4,×,9,4 × 9,neutral,smallerFirst,1.5,1.5,36,,,,,,,,
,,,,,,,,,,,,,,,8116,2022-01-31_01h01.03.499,multiplicationStroop,2021.2.3,MacIntel,62.5,,,,,,,,,,,,,,,,,,,,,,,,,,,,,,,,,16,1.681,1,0,2,2,30,1,4,×,4,4 × 4,neutral,tie,1.5,1.5,16,,,,,,,,
,,,,,,,,,,,,,,,8116,2022-01-31_01h01.03.499,multiplicationStroop,2021.2.3,MacIntel,62.5,,,,,,,,,,,,,,,,,,,,,,,,,,,,,,,,,19,1.6,0,0,3,3,14,1,6,×,3,6 × 3,neutral,largerFirst,1.5,1.5,18,,,,,,,,
,,,,,,,,,,,,,,,8116,2022-01-31_01h01.03.499,multiplicationStroop,2021.2.3,MacIntel,62.5,,,,,,,,,,,,,,,,,,,,,,,,,,,,,,,,,24,1.701,1,0,4,4,8,1,3,×,8,3 × 8,neutral,smallerFirst,1.5,1.5,24,,,,,,,,
,,,,,,,,,,,,,,,8116,2022-01-31_01h01.03.499,multiplicationStroop,2021.2.3,MacIntel,62.5,,,,,,,,,,,,,,,,,,,,,,,,,,,,,,,,,20,1.583,1,0,5,5,6,1,4,×,5,4 × 5,neutral,smallerFirst,1.5,1.5,20,,,,,,,,
,,,,,,,,,,,,,,,8116,2022-01-31_01h01.03.499,multiplicationStroop,2021.2.3,MacIntel,62.5,,,,,,,,,,,,,,,,,,,,,,,,,,,,,,,,,35,1.814,0,0,6,6,20,1,7,×,6,7 × 6,neutral,largerFirst,1.5,1.5,42,,,,,,,,
,,,,,,,,,,,,,,,8116,2022-01-31_01h01.03.499,multiplicationStroop,2021.2.3,MacIntel,62.5,,,,,,,,,,,,,,,,,,,,,,,,,,,,,,,,,8,1.35,1,0,7,7,17,1,4,×,2,4 × 2,neutral,largerFirst,1.5,1.5,8,,,,,,,,
,,,,,,,,,,,,,,,8116,2022-01-31_01h01.03.499,multiplicationStroop,2021.2.3,MacIntel,62.5,,,,,,,,,,,,,,,,,,,,,,,,,,,,,,,,,30,1.749,1,0,8,8,5,1,5,×,6,5 × 6,neutral,smallerFirst,1.5,1.5,30,,,,,,,,
,,,,,,,,,,,,,,,8116,2022-01-31_01h01.03.499,multiplicationStroop,2021.2.3,MacIntel,62.5,,,,,,,,,,,,,,,,,,,,,,,,,,,,,,,,,6,1.316,1,0,9,9,12,1,2,×,3,2 × 3,neutral,smallerFirst,1.5,1.5,6,,,,,,,,
,,,,,,,,,,,,,,,8116,2022-01-31_01h01.03.499,multiplicationStroop,2021.2.3,MacIntel,62.5,,,,,,,,,,,,,,,,,,,,,,,,,,,,,,,,,72,1.782,1,0,10,10,25,1,9,×,8,9 × 8,neutral,largerFirst,1.5,1.5,72,,,,,,,,
,,,,,,,,,,,,,,,8116,2022-01-31_01h01.03.499,multiplicationStroop,2021.2.3,MacIntel,62.5,,,,,,,,,,,,,,,,,,,,,,,,,,,,,,,,,28,2.367,1,0,11,11,3,1,4,×,7,4 × 7,neutral,smallerFirst,1.5,1.5,28,,,,,,,,
,,,,,,,,,,,,,,,8116,2022-01-31_01h01.03.499,multiplicationStroop,2021.2.3,MacIntel,62.5,,,,,,,,,,,,,,,,,,,,,,,,,,,,,,,,,24,1.515,1,0,12,12,16,1,6,×,4,6 × 4,neutral,largerFirst,1.5,1.5,24,,,,,,,,
,,,,,,,,,,,,,,,8116,2022-01-31_01h01.03.499,multiplicationStroop,2021.2.3,MacIntel,62.5,,,,,,,,,,,,,,,,,,,,,,,,,,,,,,,,,10,1.366,1,0,13,13,18,1,5,×,2,5 × 2,neutral,largerFirst,1.5,1.5,10,,,,,,,,
,,,,,,,,,,,,,,,8116,2022-01-31_01h01.03.499,multiplicationStroop,2021.2.3,MacIntel,62.5,,,,,,,,,,,,,,,,,,,,,,,,,,,,,,,,,12,1.183,1,0,14,14,11,1,2,×,6,2 × 6,neutral,smallerFirst,1.5,1.5,12,,,,,,,,
,,,,,,,,,,,,,,,8116,2022-01-31_01h01.03.499,multiplicationStroop,2021.2.3,MacIntel,62.5,,,,,,,,,,,,,,,,,,,,,,,,,,,,,,,,,48,2.916,1,0,15,15,1,1,6,×,8,6 × 8,neutral,smallerFirst,1.5,1.5,48,,,,,,,,
,,,,,,,,,,,,,,,8116,2022-01-31_01h01.03.499,multiplicationStroop,2021.2.3,MacIntel,62.5,,,,,,,,,,,,,,,,,,,,,,,,,,,,,,,,,21,1.266,1,0,16,16,22,1,7,×,3,7 × 3,neutral,largerFirst,1.5,1.5,21,,,,,,,,
,,,,,,,,,,,,,,,8116,2022-01-31_01h01.03.499,multiplicationStroop,2021.2.3,MacIntel,62.5,,,,,,,,,,,,,,,,,,,,,,,,,,,,,,,,,15,1.265,1,0,17,17,19,1,5,×,3,5 × 3,neutral,largerFirst,1.5,1.5,15,,,,,,,,
,,,,,,,,,,,,,,,8116,2022-01-31_01h01.03.499,multiplicationStroop,2021.2.3,MacIntel,62.5,,,,,,,,,,,,,,,,,,,,,,,,,,,,,,,,,36,1.516,1,0,18,18,32,1,6,×,6,6 × 6,neutral,tie,1.5,1.5,36,,,,,,,,
,,,,,,,,,,,,,,,8116,2022-01-31_01h01.03.499,multiplicationStroop,2021.2.3,MacIntel,62.5,,,,,,,,,,,,,,,,,,,,,,,,,,,,,,,,,25,1.599,1,0,19,19,31,1,5,×,5,5 × 5,neutral,tie,1.5,1.5,25,,,,,,,,
,,,,,,,,,,,,,,,8116,2022-01-31_01h01.03.499,multiplicationStroop,2021.2.3,MacIntel,62.5,,,,,,,,,,,,,,,,,,,,,,,,,,,,,,,,,49,2.498,1,0,20,20,33,1,7,×,7,7 × 7,neutral,tie,1.5,1.5,49,,,,,,,,
,,,,,,,,,,,,,,,8116,2022-01-31_01h01.03.499,multiplicationStroop,2021.2.3,MacIntel,62.5,,,,,,,,,,,,,,,,,,,,,,,,,,,,,,,,,32,2.2,1,0,21,21,9,1,4,×,8,4 × 8,neutral,smallerFirst,1.5,1.5,32,,,,,,,,
,,,,,,,,,,,,,,,8116,2022-01-31_01h01.03.499,multiplicationStroop,2021.2.3,MacIntel,62.5,,,,,,,,,,,,,,,,,,,,,,,,,,,,,,,,,12,1.865,1,0,22,22,7,1,3,×,4,3 × 4,neutral,smallerFirst,1.5,1.5,12,,,,,,,,
,,,,,,,,,,,,,,,8116,2022-01-31_01h01.03.499,multiplicationStroop,2021.2.3,MacIntel,62.5,,,,,,,,,,,,,,,,,,,,,,,,,,,,,,,,,56,4.567,0,0,23,23,34,1,8,×,8,8 × 8,neutral,tie,1.5,1.5,64,,,,,,,,
,,,,,,,,,,,,,,,8116,2022-01-31_01h01.03.499,multiplicationStroop,2021.2.3,MacIntel,62.5,,,,,,,,,,,,,,,,,,,,,,,,,,,,,,,,,54,1.982,1,0,24,24,21,1,9,×,6,9 × 6,neutral,largerFirst,1.5,1.5,54,,,,,,,,
,,,,,,,,,,,,,,,8116,2022-01-31_01h01.03.499,multiplicationStroop,2021.2.3,MacIntel,62.5,,,,,,,,,,,,,,,,,,,,,,,,,,,,,,,,,16,1.465,1,0,25,25,27,1,8,×,2,8 × 2,neutral,largerFirst,1.5,1.5,16,,,,,,,,
,,,,,,,,,,,,,,,8116,2022-01-31_01h01.03.499,multiplicationStroop,2021.2.3,MacIntel,62.5,,,,,,,,,,,,,,,,,,,,,,,,,,,,,,,,,27,2.25,1,0,26,26,0,1,3,×,9,3 × 9,neutral,smallerFirst,1.5,1.5,27,,,,,,,,
,,,,,,,,,,,,,,,8116,2022-01-31_01h01.03.499,multiplicationStroop,2021.2.3,MacIntel,62.5,,,,,,,,,,,,,,,,,,,,,,,,,,,,,,,,,56,2.364,1,0,27,27,23,1,8,×,7,8 × 7,neutral,largerFirst,1.5,1.5,56,,,,,,,,
,,,,,,,,,,,,,,,8116,2022-01-31_01h01.03.499,multiplicationStroop,2021.2.3,MacIntel,62.5,,,,,,,,,,,,,,,,,,,,,,,,,,,,,,,,,40,1.798,1,0,28,28,10,1,5,×,8,5 × 8,neutral,smallerFirst,1.5,1.5,40,,,,,,,,
,,,,,,,,,,,,,,,8116,2022-01-31_01h01.03.499,multiplicationStroop,2021.2.3,MacIntel,62.5,,,,,,,,,,,,,,,,,,,,,,,,,,,,,,,,,4,1.098,1,0,29,29,28,1,2,×,2,2 × 2,neutral,tie,1.5,1.5,4,,,,,,,,
,,,,,,,,,,,,,,,8116,2022-01-31_01h01.03.499,multiplicationStroop,2021.2.3,MacIntel,62.5,,,,,,,,,,,,,,,,,,,,,,,,,,,,,,,,,81,1.867,1,0,30,30,35,1,9,×,9,9 × 9,neutral,tie,1.5,1.5,81,,,,,,,,
,,,,,,,,,,,,,,,8116,2022-01-31_01h01.03.499,multiplicationStroop,2021.2.3,MacIntel,62.5,,,,,,,,,,,,,,,,,,,,,,,,,,,,,,,,,18,1.497,1,0,31,31,4,1,2,×,9,2 × 9,neutral,smallerFirst,1.5,1.5,18,,,,,,,,
,,,,,,,,,,,,,,,8116,2022-01-31_01h01.03.499,multiplicationStroop,2021.2.3,MacIntel,62.5,,,,,,,,,,,,,,,,,,,,,,,,,,,,,,,,,9,1.749,1,0,32,32,29,1,3,×,3,3 × 3,neutral,tie,1.5,1.5,9,,,,,,,,
,,,,,,,,,,,,,,,8116,2022-01-31_01h01.03.499,multiplicationStroop,2021.2.3,MacIntel,62.5,,,,,,,,,,,,,,,,,,,,,,,,,,,,,,,,,35,1.733,1,0,33,33,15,1,7,×,5,7 × 5,neutral,largerFirst,1.5,1.5,35,,,,,,,,
,,,,,,,,,,,,,,,8116,2022-01-31_01h01.03.499,multiplicationStroop,2021.2.3,MacIntel,62.5,,,,,,,,,,,,,,,,,,,,,,,,,,,,,,,,,45,1.582,1,0,34,34,24,1,9,×,5,9 × 5,neutral,largerFirst,1.5,1.5,45,,,,,,,,
,,,,,,,,,,,,,,,8116,2022-01-31_01h01.03.499,multiplicationStroop,2021.2.3,MacIntel,62.5,,,,,,,,,,,,,,,,,,,,,,,,,,,,,,,,,14,1.267,1,0,35,35,2,1,2,×,7,2 × 7,neutral,smallerFirst,1.5,1.5,14,,,,,,,,
,,,,,,,,,,,,,,,8116,2022-01-31_01h01.03.499,multiplicationStroop,2021.2.3,MacIntel,62.5,,,,,,,,,,,,,,,,,,,,,,,,,,,,,,,,,,,,,,,,,,,,,,,,,,0,0,0,0,1,stimulusFile/mult_blk1.xlsx,,
,,,,,,,,,,,,,,,8116,2022-01-31_01h01.03.499,multiplicationStroop,2021.2.3,MacIntel,62.5,,,,,,,,,,,,,,,,,,,,,,,,,,,,,,,space,1.461,45,1.575,1,0,0,0,23,1,9,×,5,9 × 5,congruent,largerFirst,2,1,45,,,,,,,,
,,,,,,,,,,,,,,,8116,2022-01-31_01h01.03.499,multiplicationStroop,2021.2.3,MacIntel,62.5,,,,,,,,,,,,,,,,,,,,,,,,,,,,,,,,,64,3.415,1,0,1,1,34,1,8,×,8,8 × 8,neutral,tie,2,1,64,,,,,,,,
,,,,,,,,,,,,,,,8116,2022-01-31_01h01.03.499,multiplicationStroop,2021.2.3,MacIntel,62.5,,,,,,,,,,,,,,,,,,,,,,,,,,,,,,,,,8,1.3,1,0,2,2,9,1,2,×,4,2 × 4,congruent,smallerFirst,1,2,8,,,,,,,,
,,,,,,,,,,,,,,,8116,2022-01-31_01h01.03.499,multiplicationStroop,2021.2.3,MacIntel,62.5,,,,,,,,,,,,,,,,,,,,,,,,,,,,,,,,,36,1.515,1,0,3,3,0,1,4,×,9,4 × 9,congruent,smallerFirst,1,2,36,,,,,,,,
,,,,,,,,,,,,,,,8116,2022-01-31_01h01.03.499,multiplicationStroop,2021.2.3,MacIntel,62.5,,,,,,,,,,,,,,,,,,,,,,,,,,,,,,,,,49,1.664,1,0,4,4,33,1,7,×,7,7 × 7,neutral,tie,2,1,49,,,,,,,,
,,,,,,,,,,,,,,,8116,2022-01-31_01h01.03.499,multiplicationStroop,2021.2.3,MacIntel,62.5,,,,,,,,,,,,,,,,,,,,,,,,,,,,,,,,,12,1.282,1,0,5,5,2,1,3,×,4,3 × 4,congruent,smallerFirst,1,2,12,,,,,,,,
,,,,,,,,,,,,,,,8116,2022-01-31_01h01.03.499,multiplicationStroop,2021.2.3,MacIntel,62.5,,,,,,,,,,,,,,,,,,,,,,,,,,,,,,,,,6,1.382,1,0,6,6,13,1,2,×,3,2 × 3,congruent,smallerFirst,1,2,6,,,,,,,,
,,,,,,,,,,,,,,,8116,2022-01-31_01h01.03.499,multiplicationStroop,2021.2.3,MacIntel,62.5,,,,,,,,,,,,,,,,,,,,,,,,,,,,,,,,,16,2.032,1,0,7,7,30,1,4,×,4,4 × 4,neutral,tie,2,1,16,,,,,,,,
,,,,,,,,,,,,,,,8116,2022-01-31_01h01.03.499,multiplicationStroop,2021.2.3,MacIntel,62.5,,,,,,,,,,,,,,,,,,,,,,,,,,,,,,,,,18,1.499,1,0,8,8,22,1,9,×,2,9 × 2,congruent,largerFirst,2,1,18,,,,,,,,
,,,,,,,,,,,,,,,8116,2022-01-31_01h01.03.499,multiplicationStroop,2021.2.3,MacIntel,62.5,,,,,,,,,,,,,,,,,,,,,,,,,,,,,,,,,20,1.467,1,0,9,9,7,1,4,×,5,4 × 5,congruent,smallerFirst,1,2,20,,,,,,,,
,,,,,,,,,,,,,,,8116,2022-01-31_01h01.03.499,multiplicationStroop,2021.2.3,MacIntel,62.5,,,,,,,,,,,,,,,,,,,,,,,,,,,,,,,,,54,1.515,1,0,10,10,12,1,6,×,9,6 × 9,congruent,smallerFirst,1,2,54,,,,,,,,
,,,,,,,,,,,,,,,8116,2022-01-31_01h01.03.499,multiplicationStroop,2021.2.3,MacIntel,62.5,,,,,,,,,,,,,,,,,,,,,,,,,,,,,,,,,15,1.201,1,0,11,11,4,1,3,×,5,3 × 5,congruent,smallerFirst,1,2,15,,,,,,,,
,,,,,,,,,,,,,,,8116,2022-01-31_01h01.03.499,multiplicationStroop,2021.2.3,MacIntel,62.5,,,,,,,,,,,,,,,,,,,,,,,,,,,,,,,,,48,3.149,0,0,12,12,3,1,6,×,7,6 × 7,congruent,smallerFirst,1,2,42,,,,,,,,
,,,,,,,,,,,,,,,8116,2022-01-31_01h01.03.499,multiplicationStroop,2021.2.3,MacIntel,62.5,,,,,,,,,,,,,,,,,,,,,,,,,,,,,,,,,10,1.299,1,0,13,13,24,1,5,×,2,5 × 2,congruent,largerFirst,2,1,10,,,,,,,,
,,,,,,,,,,,,,,,8116,2022-01-31_01h01.03.499,multiplicationStroop,2021.2.3,MacIntel,62.5,,,,,,,,,,,,,,,,,,,,,,,,,,,,,,,,,28,3.083,1,0,14,14,27,1,7,×,4,7 × 4,congruent,largerFirst,2,1,28,,,,,,,,
,,,,,,,,,,,,,,,8116,2022-01-31_01h01.03.499,multiplicationStroop,2021.2.3,MacIntel,62.5,,,,,,,,,,,,,,,,,,,,,,,,,,,,,,,,,16,1.399,1,0,15,15,5,1,2,×,8,2 × 8,congruent,smallerFirst,1,2,16,,,,,,,,
,,,,,,,,,,,,,,,8116,2022-01-31_01h01.03.499,multiplicationStroop,2021.2.3,MacIntel,62.5,,,,,,,,,,,,,,,,,,,,,,,,,,,,,,,,,4,1.048,1,0,16,16,28,1,2,×,2,2 × 2,neutral,tie,2,1,4,,,,,,,,
,,,,,,,,,,,,,,,8116,2022-01-31_01h01.03.499,multiplicationStroop,2021.2.3,MacIntel,62.5,,,,,,,,,,,,,,,,,,,,,,,,,,,,,,,,,32,2.351,1,0,17,17,20,1,8,×,4,8 × 4,congruent,largerFirst,2,1,32,,,,,,,,
,,,,,,,,,,,,,,,8116,2022-01-31_01h01.03.499,multiplicationStroop,2021.2.3,MacIntel,62.5,,,,,,,,,,,,,,,,,,,,,,,,,,,,,,,,,72,7.757,1,0,18,18,17,1,9,×,8,9 × 8,congruent,largerFirst,2,1,72,,,,,,,,
,,,,,,,,,,,,,,,8116,2022-01-31_01h01.03.499,multiplicationStroop,2021.2.3,MacIntel,62.5,,,,,,,,,,,,,,,,,,,,,,,,,,,,,,,,,81,1.7,1,0,19,19,35,1,9,×,9,9 × 9,neutral,tie,2,1,81,,,,,,,,
,,,,,,,,,,,,,,,8116,2022-01-31_01h01.03.499,multiplicationStroop,2021.2.3,MacIntel,62.5,,,,,,,,,,,,,,,,,,,,,,,,,,,,,,,,,56,4.958,1,0,20,20,8,1,7,×,8,7 × 8,congruent,smallerFirst,1,2,56,,,,,,,,
,,,,,,,,,,,,,,,8116,2022-01-31_01h01.03.499,multiplicationStroop,2021.2.3,MacIntel,62.5,,,,,,,,,,,,,,,,,,,,,,,,,,,,,,,,,24,3.363,1,0,21,21,25,1,6,×,4,6 × 4,congruent,largerFirst,2,1,24,,,,,,,,
,,,,,,,,,,,,,,,8116,2022-01-31_01h01.03.499,multiplicationStroop,2021.2.3,MacIntel,62.5,,,,,,,,,,,,,,,,,,,,,,,,,,,,,,,,,25,1.389,1,0,22,22,31,1,5,×,5,5 × 5,neutral,tie,2,1,25,,,,,,,,
,,,,,,,,,,,,,,,8116,2022-01-31_01h01.03.499,multiplicationStroop,2021.2.3,MacIntel,62.5,,,,,,,,,,,,,,,,,,,,,,,,,,,,,,,,,21,1.257,1,0,23,23,16,1,7,×,3,7 × 3,congruent,largerFirst,2,1,21,,,,,,,,
,,,,,,,,,,,,,,,8116,2022-01-31_01h01.03.499,multiplicationStroop,2021.2.3,MacIntel,62.5,,,,,,,,,,,,,,,,,,,,,,,,,,,,,,,,,9,1.502,1,0,24,24,29,1,3,×,3,3 × 3,neutral,tie,2,1,9,,,,,,,,
,,,,,,,,,,,,,,,8116,2022-01-31_01h01.03.499,multiplicationStroop,2021.2.3,MacIntel,62.5,,,,,,,,,,,,,,,,,,,,,,,,,,,,,,,,,18,1.482,1,0,25,25,11,1,3,×,6,3 × 6,congruent,smallerFirst,1,2,18,,,,,,,,
,,,,,,,,,,,,,,,8116,2022-01-31_01h01.03.499,multiplicationStroop,2021.2.3,MacIntel,62.5,,,,,,,,,,,,,,,,,,,,,,,,,,,,,,,,,36,1.713,1,0,26,26,32,1,6,×,6,6 × 6,neutral,tie,2,1,36,,,,,,,,
,,,,,,,,,,,,,,,8116,2022-01-31_01h01.03.499,multiplicationStroop,2021.2.3,MacIntel,62.5,,,,,,,,,,,,,,,,,,,,,,,,,,,,,,,,,12,1.166,1,0,27,27,19,1,6,×,2,6 × 2,congruent,largerFirst,2,1,12,,,,,,,,
,,,,,,,,,,,,,,,8116,2022-01-31_01h01.03.499,multiplicationStroop,2021.2.3,MacIntel,62.5,,,,,,,,,,,,,,,,,,,,,,,,,,,,,,,,,30,1.651,1,0,28,28,15,1,6,×,5,6 × 5,congruent,largerFirst,2,1,30,,,,,,,,
,,,,,,,,,,,,,,,8116,2022-01-31_01h01.03.499,multiplicationStroop,2021.2.3,MacIntel,62.5,,,,,,,,,,,,,,,,,,,,,,,,,,,,,,,,,63,3.419,1,0,29,29,21,1,9,×,7,9 × 7,congruent,largerFirst,2,1,63,,,,,,,,
,,,,,,,,,,,,,,,8116,2022-01-31_01h01.03.499,multiplicationStroop,2021.2.3,MacIntel,62.5,,,,,,,,,,,,,,,,,,,,,,,,,,,,,,,,,48,3.286,1,0,30,30,18,1,8,×,6,8 × 6,congruent,largerFirst,2,1,48,,,,,,,,
,,,,,,,,,,,,,,,8116,2022-01-31_01h01.03.499,multiplicationStroop,2021.2.3,MacIntel,62.5,,,,,,,,,,,,,,,,,,,,,,,,,,,,,,,,,14,1.502,1,0,31,31,14,1,7,×,2,7 × 2,congruent,largerFirst,2,1,14,,,,,,,,
,,,,,,,,,,,,,,,8116,2022-01-31_01h01.03.499,multiplicationStroop,2021.2.3,MacIntel,62.5,,,,,,,,,,,,,,,,,,,,,,,,,,,,,,,,,27,2.004,1,0,32,32,26,1,9,×,3,9 × 3,congruent,largerFirst,2,1,27,,,,,,,,
,,,,,,,,,,,,,,,8116,2022-01-31_01h01.03.499,multiplicationStroop,2021.2.3,MacIntel,62.5,,,,,,,,,,,,,,,,,,,,,,,,,,,,,,,,,24,1.817,1,0,33,33,10,1,3,×,8,3 × 8,congruent,smallerFirst,1,2,24,,,,,,,,
,,,,,,,,,,,,,,,8116,2022-01-31_01h01.03.499,multiplicationStroop,2021.2.3,MacIntel,62.5,,,,,,,,,,,,,,,,,,,,,,,,,,,,,,,,,40,1.901,1,0,34,34,6,1,5,×,8,5 × 8,congruent,smallerFirst,1,2,40,,,,,,,,
,,,,,,,,,,,,,,,8116,2022-01-31_01h01.03.499,multiplicationStroop,2021.2.3,MacIntel,62.5,,,,,,,,,,,,,,,,,,,,,,,,,,,,,,,,,35,1.767,1,0,35,35,1,1,5,×,7,5 × 7,congruent,smallerFirst,1,2,35,,,,,,,,
,,,,,,,,,,,,,,,8116,2022-01-31_01h01.03.499,multiplicationStroop,2021.2.3,MacIntel,62.5,,,,,,,,,,,,,,,,,,,,,,,,,,,,,,,,,,,,,,,,,,,,,,,,,,0,1,1,2,1,stimulusFile/mult_blk3_congruent.xlsx,,
,,,,,,,,,,,,,,,8116,2022-01-31_01h01.03.499,multiplicationStroop,2021.2.3,MacIntel,62.5,,,,,,,,,,,,,,,,,,,,,,,,,,,,,,,space,1.201,21,1.516,1,0,0,0,8,1,3,×,7,3 × 7,neutral,smallerFirst,1.5,1.5,21,,,,,,,,
,,,,,,,,,,,,,,,8116,2022-01-31_01h01.03.499,multiplicationStroop,2021.2.3,MacIntel,62.5,,,,,,,,,,,,,,,,,,,,,,,,,,,,,,,,,18,1.585,1,0,1,1,0,1,3,×,6,3 × 6,neutral,smallerFirst,1.5,1.5,18,,,,,,,,
,,,,,,,,,,,,,,,8116,2022-01-31_01h01.03.499,multiplicationStroop,2021.2.3,MacIntel,62.5,,,,,,,,,,,,,,,,,,,,,,,,,,,,,,,,,24,1.484,1,0,2,2,22,1,8,×,3,8 × 3,neutral,largerFirst,1.5,1.5,24,,,,,,,,
,,,,,,,,,,,,,,,8116,2022-01-31_01h01.03.499,multiplicationStroop,2021.2.3,MacIntel,62.5,,,,,,,,,,,,,,,,,,,,,,,,,,,,,,,,,28,1.775,1,0,3,3,17,1,7,×,4,7 × 4,neutral,largerFirst,1.5,1.5,28,,,,,,,,
,,,,,,,,,,,,,,,8116,2022-01-31_01h01.03.499,multiplicationStroop,2021.2.3,MacIntel,62.5,,,,,,,,,,,,,,,,,,,,,,,,,,,,,,,,,6,1.417,1,0,4,4,26,1,3,×,2,3 × 2,neutral,largerFirst,1.5,1.5,6,,,,,,,,
,,,,,,,,,,,,,,,8116,2022-01-31_01h01.03.499,multiplicationStroop,2021.2.3,MacIntel,62.5,,,,,,,,,,,,,,,,,,,,,,,,,,,,,,,,,48,2.805,1,0,5,5,15,1,8,×,6,8 × 6,neutral,largerFirst,1.5,1.5,48,,,,,,,,
,,,,,,,,,,,,,,,8116,2022-01-31_01h01.03.499,multiplicationStroop,2021.2.3,MacIntel,62.5,,,,,,,,,,,,,,,,,,,,,,,,,,,,,,,,,25,1.339,1,0,6,6,31,1,5,×,5,5 × 5,neutral,tie,1.5,1.5,25,,,,,,,,
,,,,,,,,,,,,,,,8116,2022-01-31_01h01.03.499,multiplicationStroop,2021.2.3,MacIntel,62.5,,,,,,,,,,,,,,,,,,,,,,,,,,,,,,,,,12,1.226,1,0,7,7,21,1,4,×,3,4 × 3,neutral,largerFirst,1.5,1.5,12,,,,,,,,
,,,,,,,,,,,,,,,8116,2022-01-31_01h01.03.499,multiplicationStroop,2021.2.3,MacIntel,62.5,,,,,,,,,,,,,,,,,,,,,,,,,,,,,,,,,15,1.212,1,0,8,8,5,1,3,×,5,3 × 5,neutral,smallerFirst,1.5,1.5,15,,,,,,,,
,,,,,,,,,,,,,,,8116,2022-01-31_01h01.03.499,multiplicationStroop,2021.2.3,MacIntel,62.5,,,,,,,,,,,,,,,,,,,,,,,,,,,,,,,,,32,2.131,1,0,9,9,23,1,8,×,4,8 × 4,neutral,largerFirst,1.5,1.5,32,,,,,,,,
,,,,,,,,,,,,,,,8116,2022-01-31_01h01.03.499,multiplicationStroop,2021.2.3,MacIntel,62.5,,,,,,,,,,,,,,,,,,,,,,,,,,,,,,,,,20,1.482,1,0,10,10,20,1,5,×,4,5 × 4,neutral,largerFirst,1.5,1.5,20,,,,,,,,
,,,,,,,,,,,,,,,8116,2022-01-31_01h01.03.499,multiplicationStroop,2021.2.3,MacIntel,62.5,,,,,,,,,,,,,,,,,,,,,,,,,,,,,,,,,36,1.447,1,0,11,11,27,1,9,×,4,9 × 4,neutral,largerFirst,1.5,1.5,36,,,,,,,,
,,,,,,,,,,,,,,,8116,2022-01-31_01h01.03.499,multiplicationStroop,2021.2.3,MacIntel,62.5,,,,,,,,,,,,,,,,,,,,,,,,,,,,,,,,,40,1.585,1,0,12,12,24,1,8,×,5,8 × 5,neutral,largerFirst,1.5,1.5,40,,,,,,,,
,,,,,,,,,,,,,,,8116,2022-01-31_01h01.03.499,multiplicationStroop,2021.2.3,MacIntel,62.5,,,,,,,,,,,,,,,,,,,,,,,,,,,,,,,,,36,1.737,1,0,13,13,32,1,6,×,6,6 × 6,neutral,tie,1.5,1.5,36,,,,,,,,
,,,,,,,,,,,,,,,8116,2022-01-31_01h01.03.499,multiplicationStroop,2021.2.3,MacIntel,62.5,,,,,,,,,,,,,,,,,,,,,,,,,,,,,,,,,24,1.471,1,0,14,14,2,1,4,×,6,4 × 6,neutral,smallerFirst,1.5,1.5,24,,,,,,,,
,,,,,,,,,,,,,,,8116,2022-01-31_01h01.03.499,multiplicationStroop,2021.2.3,MacIntel,62.5,,,,,,,,,,,,,,,,,,,,,,,,,,,,,,,,,10,1.351,1,0,15,15,4,1,2,×,5,2 × 5,neutral,smallerFirst,1.5,1.5,10,,,,,,,,
,,,,,,,,,,,,,,,8116,2022-01-31_01h01.03.499,multiplicationStroop,2021.2.3,MacIntel,62.5,,,,,,,,,,,,,,,,,,,,,,,,,,,,,,,,,56,2.585,1,0,16,16,9,1,7,×,8,7 × 8,neutral,smallerFirst,1.5,1.5,56,,,,,,,,
,,,,,,,,,,,,,,,8116,2022-01-31_01h01.03.499,multiplicationStroop,2021.2.3,MacIntel,62.5,,,,,,,,,,,,,,,,,,,,,,,,,,,,,,,,,45,1.452,1,0,17,17,10,1,5,×,9,5 × 9,neutral,smallerFirst,1.5,1.5,45,,,,,,,,
,,,,,,,,,,,,,,,8116,2022-01-31_01h01.03.499,multiplicationStroop,2021.2.3,MacIntel,62.5,,,,,,,,,,,,,,,,,,,,,,,,,,,,,,,,,18,1.436,1,0,18,18,18,1,9,×,2,9 × 2,neutral,largerFirst,1.5,1.5,18,,,,,,,,
,,,,,,,,,,,,,,,8116,2022-01-31_01h01.03.499,multiplicationStroop,2021.2.3,MacIntel,62.5,,,,,,,,,,,,,,,,,,,,,,,,,,,,,,,,,16,1.35,1,0,19,19,13,1,2,×,8,2 × 8,neutral,smallerFirst,1.5,1.5,16,,,,,,,,
,,,,,,,,,,,,,,,8116,2022-01-31_01h01.03.499,multiplicationStroop,2021.2.3,MacIntel,62.5,,,,,,,,,,,,,,,,,,,,,,,,,,,,,,,,,42,2.112,1,0,20,20,6,1,6,×,7,6 × 7,neutral,smallerFirst,1.5,1.5,42,,,,,,,,
,,,,,,,,,,,,,,,8116,2022-01-31_01h01.03.499,multiplicationStroop,2021.2.3,MacIntel,62.5,,,,,,,,,,,,,,,,,,,,,,,,,,,,,,,,,12,1.107,1,0,21,21,25,1,6,×,2,6 × 2,neutral,largerFirst,1.5,1.5,12,,,,,,,,
,,,,,,,,,,,,,,,8116,2022-01-31_01h01.03.499,multiplicationStroop,2021.2.3,MacIntel,62.5,,,,,,,,,,,,,,,,,,,,,,,,,,,,,,,,,49,1.753,1,0,22,22,33,1,7,×,7,7 × 7,neutral,tie,1.5,1.5,49,,,,,,,,
,,,,,,,,,,,,,,,8116,2022-01-31_01h01.03.499,multiplicationStroop,2021.2.3,MacIntel,62.5,,,,,,,,,,,,,,,,,,,,,,,,,,,,,,,,,8,1.388,1,0,23,23,3,1,2,×,4,2 × 4,neutral,smallerFirst,1.5,1.5,8,,,,,,,,
,,,,,,,,,,,,,,,8116,2022-01-31_01h01.03.499,multiplicationStroop,2021.2.3,MacIntel,62.5,,,,,,,,,,,,,,,,,,,,,,,,,,,,,,,,,4,1.133,1,0,24,24,28,1,2,×,2,2 × 2,neutral,tie,1.5,1.5,4,,,,,,,,
,,,,,,,,,,,,,,,8116,2022-01-31_01h01.03.499,multiplicationStroop,2021.2.3,MacIntel,62.5,,,,,,,,,,,,,,,,,,,,,,,,,,,,,,,,,63,2.902,1,0,25,25,12,1,7,×,9,7 × 9,neutral,smallerFirst,1.5,1.5,63,,,,,,,,
,,,,,,,,,,,,,,,8116,2022-01-31_01h01.03.499,multiplicationStroop,2021.2.3,MacIntel,62.5,,,,,,,,,,,,,,,,,,,,,,,,,,,,,,,,,16,1.505,1,0,26,26,30,1,4,×,4,4 × 4,neutral,tie,1.5,1.5,16,,,,,,,,
,,,,,,,,,,,,,,,8116,2022-01-31_01h01.03.499,multiplicationStroop,2021.2.3,MacIntel,62.5,,,,,,,,,,,,,,,,,,,,,,,,,,,,,,,,,35,2.005,1,0,27,27,1,1,5,×,7,5 × 7,neutral,smallerFirst,1.5,1.5,35,,,,,,,,
,,,,,,,,,,,,,,,8116,2022-01-31_01h01.03.499,multiplicationStroop,2021.2.3,MacIntel,62.5,,,,,,,,,,,,,,,,,,,,,,,,,,,,,,,,,30,1.602,1,0,28,28,19,1,6,×,5,6 × 5,neutral,largerFirst,1.5,1.5,30,,,,,,,,
,,,,,,,,,,,,,,,8116,2022-01-31_01h01.03.499,multiplicationStroop,2021.2.3,MacIntel,62.5,,,,,,,,,,,,,,,,,,,,,,,,,,,,,,,,,64,3.111,1,0,29,29,34,1,8,×,8,8 × 8,neutral,tie,1.5,1.5,64,,,,,,,,
,,,,,,,,,,,,,,,8116,2022-01-31_01h01.03.499,multiplicationStroop,2021.2.3,MacIntel,62.5,,,,,,,,,,,,,,,,,,,,,,,,,,,,,,,,,14,1.22,1,0,30,30,16,1,7,×,2,7 × 2,neutral,largerFirst,1.5,1.5,14,,,,,,,,
,,,,,,,,,,,,,,,8116,2022-01-31_01h01.03.499,multiplicationStroop,2021.2.3,MacIntel,62.5,,,,,,,,,,,,,,,,,,,,,,,,,,,,,,,,,27,1.767,1,0,31,31,14,1,9,×,3,9 × 3,neutral,largerFirst,1.5,1.5,27,,,,,,,,
,,,,,,,,,,,,,,,8116,2022-01-31_01h01.03.499,multiplicationStroop,2021.2.3,MacIntel,62.5,,,,,,,,,,,,,,,,,,,,,,,,,,,,,,,,,9,1.284,1,0,32,32,29,1,3,×,3,3 × 3,neutral,tie,1.5,1.5,9,,,,,,,,
,,,,,,,,,,,,,,,8116,2022-01-31_01h01.03.499,multiplicationStroop,2021.2.3,MacIntel,62.5,,,,,,,,,,,,,,,,,,,,,,,,,,,,,,,,,54,1.831,1,0,33,33,7,1,6,×,9,6 × 9,neutral,smallerFirst,1.5,1.5,54,,,,,,,,
,,,,,,,,,,,,,,,8116,2022-01-31_01h01.03.499,multiplicationStroop,2021.2.3,MacIntel,62.5,,,,,,,,,,,,,,,,,,,,,,,,,,,,,,,,,72,2.519,1,0,34,34,11,1,8,×,9,8 × 9,neutral,smallerFirst,1.5,1.5,72,,,,,,,,
,,,,,,,,,,,,,,,8116,2022-01-31_01h01.03.499,multiplicationStroop,2021.2.3,MacIntel,62.5,,,,,,,,,,,,,,,,,,,,,,,,,,,,,,,,,81,2.182,1,0,35,35,35,1,9,×,9,9 × 9,neutral,tie,1.5,1.5,81,,,,,,,,
,,,,,,,,,,,,,,,8116,2022-01-31_01h01.03.499,multiplicationStroop,2021.2.3,MacIntel,62.5,,,,,,,,,,,,,,,,,,,,,,,,,,,,,,,,,,,,,,,,,,,,,,,,,,0,2,2,1,1,stimulusFile/mult_blk2.xlsx,,
,,,,,,,,,,,,,,,8116,2022-01-31_01h01.03.499,multiplicationStroop,2021.2.3,MacIntel,62.5,,,,,,,,,,,,,,,,,,,,,,,,,,,,,,,space,1.095,30,1.979,1,0,0,0,11,1,5,×,6,5 × 6,incongruent,smallerFirst,2,1,30,,,,,,,,
,,,,,,,,,,,,,,,8116,2022-01-31_01h01.03.499,multiplicationStroop,2021.2.3,MacIntel,62.5,,,,,,,,,,,,,,,,,,,,,,,,,,,,,,,,,40,1.586,1,0,1,1,27,1,8,×,5,8 × 5,incongruent,largerFirst,1,2,40,,,,,,,,
,,,,,,,,,,,,,,,8116,2022-01-31_01h01.03.499,multiplicationStroop,2021.2.3,MacIntel,62.5,,,,,,,,,,,,,,,,,,,,,,,,,,,,,,,,,9,1.287,1,0,2,2,29,1,3,×,3,3 × 3,neutral,tie,2,1,9,,,,,,,,
,,,,,,,,,,,,,,,8116,2022-01-31_01h01.03.499,multiplicationStroop,2021.2.3,MacIntel,62.5,,,,,,,,,,,,,,,,,,,,,,,,,,,,,,,,,21,1.449,1,0,3,3,12,1,3,×,7,3 × 7,incongruent,smallerFirst,2,1,21,,,,,,,,
,,,,,,,,,,,,,,,8116,2022-01-31_01h01.03.499,multiplicationStroop,2021.2.3,MacIntel,62.5,,,,,,,,,,,,,,,,,,,,,,,,,,,,,,,,,64,2.207,1,0,4,4,34,1,8,×,8,8 × 8,neutral,tie,2,1,64,,,,,,,,
,,,,,,,,,,,,,,,8116,2022-01-31_01h01.03.499,multiplicationStroop,2021.2.3,MacIntel,62.5,,,,,,,,,,,,,,,,,,,,,,,,,,,,,,,,,24,1.638,1,0,5,5,6,1,4,×,6,4 × 6,incongruent,smallerFirst,2,1,24,,,,,,,,
,,,,,,,,,,,,,,,8116,2022-01-31_01h01.03.499,multiplicationStroop,2021.2.3,MacIntel,62.5,,,,,,,,,,,,,,,,,,,,,,,,,,,,,,,,,49,1.767,1,0,6,6,33,1,7,×,7,7 × 7,neutral,tie,2,1,49,,,,,,,,
,,,,,,,,,,,,,,,8116,2022-01-31_01h01.03.499,multiplicationStroop,2021.2.3,MacIntel,62.5,,,,,,,,,,,,,,,,,,,,,,,,,,,,,,,,,18,1.436,1,0,7,7,22,1,6,×,3,6 × 3,incongruent,largerFirst,1,2,18,,,,,,,,
,,,,,,,,,,,,,,,8116,2022-01-31_01h01.03.499,multiplicationStroop,2021.2.3,MacIntel,62.5,,,,,,,,,,,,,,,,,,,,,,,,,,,,,,,,,36,1.693,1,0,8,8,32,1,6,×,6,6 × 6,neutral,tie,2,1,36,,,,,,,,
,,,,,,,,,,,,,,,8116,2022-01-31_01h01.03.499,multiplicationStroop,2021.2.3,MacIntel,62.5,,,,,,,,,,,,,,,,,,,,,,,,,,,,,,,,,16,2.458,1,0,9,9,9,1,2,×,8,2 × 8,incongruent,smallerFirst,2,1,16,,,,,,,,
,,,,,,,,,,,,,,,8116,2022-01-31_01h01.03.499,multiplicationStroop,2021.2.3,MacIntel,62.5,,,,,,,,,,,,,,,,,,,,,,,,,,,,,,,,,6,1.452,1,0,10,10,25,1,3,×,2,3 × 2,incongruent,largerFirst,1,2,6,,,,,,,,
,,,,,,,,,,,,,,,8116,2022-01-31_01h01.03.499,multiplicationStroop,2021.2.3,MacIntel,62.5,,,,,,,,,,,,,,,,,,,,,,,,,,,,,,,,,20,1.57,1,0,11,11,13,1,4,×,5,4 × 5,incongruent,smallerFirst,2,1,20,,,,,,,,
,,,,,,,,,,,,,,,8116,2022-01-31_01h01.03.499,multiplicationStroop,2021.2.3,MacIntel,62.5,,,,,,,,,,,,,,,,,,,,,,,,,,,,,,,,,12,1.132,1,0,12,12,5,1,2,×,6,2 × 6,incongruent,smallerFirst,2,1,12,,,,,,,,
,,,,,,,,,,,,,,,8116,2022-01-31_01h01.03.499,multiplicationStroop,2021.2.3,MacIntel,62.5,,,,,,,,,,,,,,,,,,,,,,,,,,,,,,,,,56,2.176,0,0,13,13,17,1,9,×,7,9 × 7,incongruent,largerFirst,1,2,63,,,,,,,,
,,,,,,,,,,,,,,,8116,2022-01-31_01h01.03.499,multiplicationStroop,2021.2.3,MacIntel,62.5,,,,,,,,,,,,,,,,,,,,,,,,,,,,,,,,,48,2.906,0,0,14,14,3,1,6,×,7,6 × 7,incongruent,smallerFirst,2,1,42,,,,,,,,
,,,,,,,,,,,,,,,8116,2022-01-31_01h01.03.499,multiplicationStroop,2021.2.3,MacIntel,62.5,,,,,,,,,,,,,,,,,,,,,,,,,,,,,,,,,56,2.257,1,0,15,15,0,1,7,×,8,7 × 8,incongruent,smallerFirst,2,1,56,,,,,,,,
,,,,,,,,,,,,,,,8116,2022-01-31_01h01.03.499,multiplicationStroop,2021.2.3,MacIntel,62.5,,,,,,,,,,,,,,,,,,,,,,,,,,,,,,,,,4,1.076,1,0,16,16,28,1,2,×,2,2 × 2,neutral,tie,2,1,4,,,,,,,,
,,,,,,,,,,,,,,,8116,2022-01-31_01h01.03.499,multiplicationStroop,2021.2.3,MacIntel,62.5,,,,,,,,,,,,,,,,,,,,,,,,,,,,,,,,,54,1.568,1,0,17,17,20,1,9,×,6,9 × 6,incongruent,largerFirst,1,2,54,,,,,,,,
,,,,,,,,,,,,,,,8116,2022-01-31_01h01.03.499,multiplicationStroop,2021.2.3,MacIntel,62.5,,,,,,,,,,,,,,,,,,,,,,,,,,,,,,,,,72,2.275,1,0,18,18,14,1,9,×,8,9 × 8,incongruent,largerFirst,1,2,72,,,,,,,,
,,,,,,,,,,,,,,,8116,2022-01-31_01h01.03.499,multiplicationStroop,2021.2.3,MacIntel,62.5,,,,,,,,,,,,,,,,,,,,,,,,,,,,,,,,,36,2.624,1,0,19,19,1,1,4,×,9,4 × 9,incongruent,smallerFirst,2,1,36,,,,,,,,
,,,,,,,,,,,,,,,8116,2022-01-31_01h01.03.499,multiplicationStroop,2021.2.3,MacIntel,62.5,,,,,,,,,,,,,,,,,,,,,,,,,,,,,,,,,24,1.618,1,0,20,20,23,1,8,×,3,8 × 3,incongruent,largerFirst,1,2,24,,,,,,,,
,,,,,,,,,,,,,,,8116,2022-01-31_01h01.03.499,multiplicationStroop,2021.2.3,MacIntel,62.5,,,,,,,,,,,,,,,,,,,,,,,,,,,,,,,,,28,2.061,1,0,21,21,2,1,4,×,7,4 × 7,incongruent,smallerFirst,2,1,28,,,,,,,,
,,,,,,,,,,,,,,,8116,2022-01-31_01h01.03.499,multiplicationStroop,2021.2.3,MacIntel,62.5,,,,,,,,,,,,,,,,,,,,,,,,,,,,,,,,,81,1.566,1,0,22,22,35,1,9,×,9,9 × 9,neutral,tie,2,1,81,,,,,,,,
,,,,,,,,,,,,,,,8116,2022-01-31_01h01.03.499,multiplicationStroop,2021.2.3,MacIntel,62.5,,,,,,,,,,,,,,,,,,,,,,,,,,,,,,,,,8,1.334,1,0,23,23,10,1,2,×,4,2 × 4,incongruent,smallerFirst,2,1,8,,,,,,,,
,,,,,,,,,,,,,,,8116,2022-01-31_01h01.03.499,multiplicationStroop,2021.2.3,MacIntel,62.5,,,,,,,,,,,,,,,,,,,,,,,,,,,,,,,,,25,1.528,1,0,24,24,31,1,5,×,5,5 × 5,neutral,tie,2,1,25,,,,,,,,
,,,,,,,,,,,,,,,8116,2022-01-31_01h01.03.499,multiplicationStroop,2021.2.3,MacIntel,62.5,,,,,,,,,,,,,,,,,,,,,,,,,,,,,,,,,18,1.367,1,0,25,25,16,1,9,×,2,9 × 2,incongruent,largerFirst,1,2,18,,,,,,,,
,,,,,,,,,,,,,,,8116,2022-01-31_01h01.03.499,multiplicationStroop,2021.2.3,MacIntel,62.5,,,,,,,,,,,,,,,,,,,,,,,,,,,,,,,,,14,1.151,1,0,26,26,18,1,7,×,2,7 × 2,incongruent,largerFirst,1,2,14,,,,,,,,
,,,,,,,,,,,,,,,8116,2022-01-31_01h01.03.499,multiplicationStroop,2021.2.3,MacIntel,62.5,,,,,,,,,,,,,,,,,,,,,,,,,,,,,,,,,27,2.885,1,0,27,27,4,1,3,×,9,3 × 9,incongruent,smallerFirst,2,1,27,,,,,,,,
,,,,,,,,,,,,,,,8116,2022-01-31_01h01.03.499,multiplicationStroop,2021.2.3,MacIntel,62.5,,,,,,,,,,,,,,,,,,,,,,,,,,,,,,,,,10,1.27,1,0,28,28,7,1,2,×,5,2 × 5,incongruent,smallerFirst,2,1,10,,,,,,,,
,,,,,,,,,,,,,,,8116,2022-01-31_01h01.03.499,multiplicationStroop,2021.2.3,MacIntel,62.5,,,,,,,,,,,,,,,,,,,,,,,,,,,,,,,,,35,1.657,1,0,29,29,26,1,7,×,5,7 × 5,incongruent,largerFirst,1,2,35,,,,,,,,
,,,,,,,,,,,,,,,8116,2022-01-31_01h01.03.499,multiplicationStroop,2021.2.3,MacIntel,62.5,,,,,,,,,,,,,,,,,,,,,,,,,,,,,,,,,48,2.223,1,0,30,30,15,1,8,×,6,8 × 6,incongruent,largerFirst,1,2,48,,,,,,,,
,,,,,,,,,,,,,,,8116,2022-01-31_01h01.03.499,multiplicationStroop,2021.2.3,MacIntel,62.5,,,,,,,,,,,,,,,,,,,,,,,,,,,,,,,,,16,1.367,1,0,31,31,30,1,4,×,4,4 × 4,neutral,tie,2,1,16,,,,,,,,
,,,,,,,,,,,,,,,8116,2022-01-31_01h01.03.499,multiplicationStroop,2021.2.3,MacIntel,62.5,,,,,,,,,,,,,,,,,,,,,,,,,,,,,,,,,12,1.25,1,0,32,32,19,1,4,×,3,4 × 3,incongruent,largerFirst,1,2,12,,,,,,,,
,,,,,,,,,,,,,,,8116,2022-01-31_01h01.03.499,multiplicationStroop,2021.2.3,MacIntel,62.5,,,,,,,,,,,,,,,,,,,,,,,,,,,,,,,,,36,4.504,0,0,33,33,21,1,8,×,4,8 × 4,incongruent,largerFirst,1,2,32,,,,,,,,
,,,,,,,,,,,,,,,8116,2022-01-31_01h01.03.499,multiplicationStroop,2021.2.3,MacIntel,62.5,,,,,,,,,,,,,,,,,,,,,,,,,,,,,,,,,15,1.943,1,0,34,34,24,1,5,×,3,5 × 3,incongruent,largerFirst,1,2,15,,,,,,,,
,,,,,,,,,,,,,,,8116,2022-01-31_01h01.03.499,multiplicationStroop,2021.2.3,MacIntel,62.5,,,,,,,,,,,,,,,,,,,,,,,,,,,,,,,,,45,1.738,1,0,35,35,8,1,5,×,9,5 × 9,incongruent,smallerFirst,2,1,45,,,,,,,,
,,,,,,,,,,,,,,,8116,2022-01-31_01h01.03.499,multiplicationStroop,2021.2.3,MacIntel,62.5,,,,,,,,,,,,,,,,,,,,,,,,,,,,,,,,,,,,,,,,,,,,,,,,,,0,3,3,4,1,stimulusFile/mult_blk5_INcongruent.xlsx,,
,,,,,,,,,,,,,,,8116,2022-01-31_01h01.03.499,multiplicationStroop,2021.2.3,MacIntel,62.5,,,,,,,,,,,,,,,,,,,,,,,,,,,,,,,space,1.075,12,1.193,1,0,0,0,19,1,6,×,2,6 × 2,incongruent,largerFirst,1,2,12,,,,,,,,
,,,,,,,,,,,,,,,8116,2022-01-31_01h01.03.499,multiplicationStroop,2021.2.3,MacIntel,62.5,,,,,,,,,,,,,,,,,,,,,,,,,,,,,,,,,54,1.533,1,0,1,1,6,1,6,×,9,6 × 9,incongruent,smallerFirst,2,1,54,,,,,,,,
,,,,,,,,,,,,,,,8116,2022-01-31_01h01.03.499,multiplicationStroop,2021.2.3,MacIntel,62.5,,,,,,,,,,,,,,,,,,,,,,,,,,,,,,,,,21,1.319,1,0,2,2,26,1,7,×,3,7 × 3,incongruent,largerFirst,1,2,21,,,,,,,,
,,,,,,,,,,,,,,,8116,2022-01-31_01h01.03.499,multiplicationStroop,2021.2.3,MacIntel,62.5,,,,,,,,,,,,,,,,,,,,,,,,,,,,,,,,,63,3.032,1,0,3,3,3,1,7,×,9,7 × 9,incongruent,smallerFirst,2,1,63,,,,,,,,
,,,,,,,,,,,,,,,8116,2022-01-31_01h01.03.499,multiplicationStroop,2021.2.3,MacIntel,62.5,,,,,,,,,,,,,,,,,,,,,,,,,,,,,,,,,10,1.406,1,0,4,4,21,1,5,×,2,5 × 2,incongruent,largerFirst,1,2,10,,,,,,,,
,,,,,,,,,,,,,,,8116,2022-01-31_01h01.03.499,multiplicationStroop,2021.2.3,MacIntel,62.5,,,,,,,,,,,,,,,,,,,,,,,,,,,,,,,,,24,1.549,1,0,5,5,9,1,3,×,8,3 × 8,incongruent,smallerFirst,2,1,24,,,,,,,,
,,,,,,,,,,,,,,,8116,2022-01-31_01h01.03.499,multiplicationStroop,2021.2.3,MacIntel,62.5,,,,,,,,,,,,,,,,,,,,,,,,,,,,,,,,,35,1.719,1,0,6,6,12,1,5,×,7,5 × 7,incongruent,smallerFirst,2,1,35,,,,,,,,
,,,,,,,,,,,,,,,8116,2022-01-31_01h01.03.499,multiplicationStroop,2021.2.3,MacIntel,62.5,,,,,,,,,,,,,,,,,,,,,,,,,,,,,,,,,18,1.496,1,0,7,7,2,1,2,×,9,2 × 9,incongruent,smallerFirst,2,1,18,,,,,,,,
,,,,,,,,,,,,,,,8116,2022-01-31_01h01.03.499,multiplicationStroop,2021.2.3,MacIntel,62.5,,,,,,,,,,,,,,,,,,,,,,,,,,,,,,,,,64,1.689,1,0,8,8,34,1,8,×,8,8 × 8,incongruent,tie,1,2,64,,,,,,,,
,,,,,,,,,,,,,,,8116,2022-01-31_01h01.03.499,multiplicationStroop,2021.2.3,MacIntel,62.5,,,,,,,,,,,,,,,,,,,,,,,,,,,,,,,,,28,1.883,1,0,9,9,16,1,7,×,4,7 × 4,incongruent,largerFirst,1,2,28,,,,,,,,
,,,,,,,,,,,,,,,8116,2022-01-31_01h01.03.499,multiplicationStroop,2021.2.3,MacIntel,62.5,,,,,,,,,,,,,,,,,,,,,,,,,,,,,,,,,4,1.281,1,0,10,10,28,1,2,×,2,2 × 2,incongruent,tie,1,2,4,,,,,,,,
,,,,,,,,,,,,,,,8116,2022-01-31_01h01.03.499,multiplicationStroop,2021.2.3,MacIntel,62.5,,,,,,,,,,,,,,,,,,,,,,,,,,,,,,,,,15,1.171,1,0,11,11,10,1,3,×,5,3 × 5,incongruent,smallerFirst,2,1,15,,,,,,,,
,,,,,,,,,,,,,,,8116,2022-01-31_01h01.03.499,multiplicationStroop,2021.2.3,MacIntel,62.5,,,,,,,,,,,,,,,,,,,,,,,,,,,,,,,,,56,2.005,1,0,12,12,14,1,8,×,7,8 × 7,incongruent,largerFirst,1,2,56,,,,,,,,
,,,,,,,,,,,,,,,8116,2022-01-31_01h01.03.499,multiplicationStroop,2021.2.3,MacIntel,62.5,,,,,,,,,,,,,,,,,,,,,,,,,,,,,,,,,45,1.393,1,0,13,13,22,1,9,×,5,9 × 5,incongruent,largerFirst,1,2,45,,,,,,,,
,,,,,,,,,,,,,,,8116,2022-01-31_01h01.03.499,multiplicationStroop,2021.2.3,MacIntel,62.5,,,,,,,,,,,,,,,,,,,,,,,,,,,,,,,,,18,1.486,1,0,14,14,8,1,3,×,6,3 × 6,incongruent,smallerFirst,2,1,18,,,,,,,,
,,,,,,,,,,,,,,,8116,2022-01-31_01h01.03.499,multiplicationStroop,2021.2.3,MacIntel,62.5,,,,,,,,,,,,,,,,,,,,,,,,,,,,,,,,,6,1.405,1,0,15,15,11,1,2,×,3,2 × 3,incongruent,smallerFirst,2,1,6,,,,,,,,
,,,,,,,,,,,,,,,8116,2022-01-31_01h01.03.499,multiplicationStroop,2021.2.3,MacIntel,62.5,,,,,,,,,,,,,,,,,,,,,,,,,,,,,,,,,48,2.168,1,0,16,16,1,1,6,×,8,6 × 8,incongruent,smallerFirst,2,1,48,,,,,,,,
,,,,,,,,,,,,,,,8116,2022-01-31_01h01.03.499,multiplicationStroop,2021.2.3,MacIntel,62.5,,,,,,,,,,,,,,,,,,,,,,,,,,,,,,,,,14,1.439,1,0,17,17,4,1,2,×,7,2 × 7,incongruent,smallerFirst,2,1,14,,,,,,,,
,,,,,,,,,,,,,,,8116,2022-01-31_01h01.03.499,multiplicationStroop,2021.2.3,MacIntel,62.5,,,,,,,,,,,,,,,,,,,,,,,,,,,,,,,,,36,1.799,1,0,18,18,15,1,9,×,4,9 × 4,incongruent,largerFirst,1,2,36,,,,,,,,
,,,,,,,,,,,,,,,8116,2022-01-31_01h01.03.499,multiplicationStroop,2021.2.3,MacIntel,62.5,,,,,,,,,,,,,,,,,,,,,,,,,,,,,,,,,16,1.293,1,0,19,19,23,1,8,×,2,8 × 2,incongruent,largerFirst,1,2,16,,,,,,,,
,,,,,,,,,,,,,,,8116,2022-01-31_01h01.03.499,multiplicationStroop,2021.2.3,MacIntel,62.5,,,,,,,,,,,,,,,,,,,,,,,,,,,,,,,,,32,1.665,0,0,20,20,32,1,6,×,6,6 × 6,incongruent,tie,1,2,36,,,,,,,,
,,,,,,,,,,,,,,,8116,2022-01-31_01h01.03.499,multiplicationStroop,2021.2.3,MacIntel,62.5,,,,,,,,,,,,,,,,,,,,,,,,,,,,,,,,,32,2.614,1,0,21,21,7,1,4,×,8,4 × 8,incongruent,smallerFirst,2,1,32,,,,,,,,
,,,,,,,,,,,,,,,8116,2022-01-31_01h01.03.499,multiplicationStroop,2021.2.3,MacIntel,62.5,,,,,,,,,,,,,,,,,,,,,,,,,,,,,,,,,,1.446,0,0,22,22,24,1,4,×,2,4 × 2,incongruent,largerFirst,1,2,8,,,,,,,,
,,,,,,,,,,,,,,,8116,2022-01-31_01h01.03.499,multiplicationStroop,2021.2.3,MacIntel,62.5,,,,,,,,,,,,,,,,,,,,,,,,,,,,,,,,,12,1.639,1,0,23,23,5,1,3,×,4,3 × 4,incongruent,smallerFirst,2,1,12,,,,,,,,
,,,,,,,,,,,,,,,8116,2022-01-31_01h01.03.499,multiplicationStroop,2021.2.3,MacIntel,62.5,,,,,,,,,,,,,,,,,,,,,,,,,,,,,,,,,28,1.6,0,0,24,24,20,1,6,×,4,6 × 4,incongruent,largerFirst,1,2,24,,,,,,,,
,,,,,,,,,,,,,,,8116,2022-01-31_01h01.03.499,multiplicationStroop,2021.2.3,MacIntel,62.5,,,,,,,,,,,,,,,,,,,,,,,,,,,,,,,,,25,1.803,1,0,25,25,31,1,5,×,5,5 × 5,incongruent,tie,1,2,25,,,,,,,,
,,,,,,,,,,,,,,,8116,2022-01-31_01h01.03.499,multiplicationStroop,2021.2.3,MacIntel,62.5,,,,,,,,,,,,,,,,,,,,,,,,,,,,,,,,,49,1.675,1,0,26,26,33,1,7,×,7,7 × 7,incongruent,tie,1,2,49,,,,,,,,
,,,,,,,,,,,,,,,8116,2022-01-31_01h01.03.499,multiplicationStroop,2021.2.3,MacIntel,62.5,,,,,,,,,,,,,,,,,,,,,,,,,,,,,,,,,9,1.339,1,0,27,27,29,1,3,×,3,3 × 3,incongruent,tie,1,2,9,,,,,,,,
,,,,,,,,,,,,,,,8116,2022-01-31_01h01.03.499,multiplicationStroop,2021.2.3,MacIntel,62.5,,,,,,,,,,,,,,,,,,,,,,,,,,,,,,,,,20,1.385,1,0,28,28,27,1,5,×,4,5 × 4,incongruent,largerFirst,1,2,20,,,,,,,,
,,,,,,,,,,,,,,,8116,2022-01-31_01h01.03.499,multiplicationStroop,2021.2.3,MacIntel,62.5,,,,,,,,,,,,,,,,,,,,,,,,,,,,,,,,,45,1.461,0,0,29,29,13,1,5,×,8,5 × 8,incongruent,smallerFirst,2,1,40,,,,,,,,
,,,,,,,,,,,,,,,8116,2022-01-31_01h01.03.499,multiplicationStroop,2021.2.3,MacIntel,62.5,,,,,,,,,,,,,,,,,,,,,,,,,,,,,,,,,27,2.919,1,0,30,30,18,1,9,×,3,9 × 3,incongruent,largerFirst,1,2,27,,,,,,,,
,,,,,,,,,,,,,,,8116,2022-01-31_01h01.03.499,multiplicationStroop,2021.2.3,MacIntel,62.5,,,,,,,,,,,,,,,,,,,,,,,,,,,,,,,,,42,2.183,1,0,31,31,17,1,7,×,6,7 × 6,incongruent,largerFirst,1,2,42,,,,,,,,
,,,,,,,,,,,,,,,8116,2022-01-31_01h01.03.499,multiplicationStroop,2021.2.3,MacIntel,62.5,,,,,,,,,,,,,,,,,,,,,,,,,,,,,,,,,16,1.484,1,0,32,32,30,1,4,×,4,4 × 4,incongruent,tie,1,2,16,,,,,,,,
,,,,,,,,,,,,,,,8116,2022-01-31_01h01.03.499,multiplicationStroop,2021.2.3,MacIntel,62.5,,,,,,,,,,,,,,,,,,,,,,,,,,,,,,,,,72,4.054,1,0,33,33,0,1,8,×,9,8 × 9,incongruent,smallerFirst,2,1,72,,,,,,,,
,,,,,,,,,,,,,,,8116,2022-01-31_01h01.03.499,multiplicationStroop,2021.2.3,MacIntel,62.5,,,,,,,,,,,,,,,,,,,,,,,,,,,,,,,,,30,1.552,1,0,34,34,25,1,6,×,5,6 × 5,incongruent,largerFirst,1,2,30,,,,,,,,
,,,,,,,,,,,,,,,8116,2022-01-31_01h01.03.499,multiplicationStroop,2021.2.3,MacIntel,62.5,,,,,,,,,,,,,,,,,,,,,,,,,,,,,,,,,81,2.338,1,0,35,35,35,1,9,×,9,9 × 9,incongruent,tie,1,2,81,,,,,,,,
,,,,,,,,,,,,,,,8116,2022-01-31_01h01.03.499,multiplicationStroop,2021.2.3,MacIntel,62.5,,,,,,,,,,,,,,,,,,,,,,,,,,,,,,,,,,,,,,,,,,,,,,,,,,0,4,4,5,1,stimulusFile/mult_blk6_INcongruent.xlsx,,
,,,,,,,,,,,,,,,8116,2022-01-31_01h01.03.499,multiplicationStroop,2021.2.3,MacIntel,62.5,,,,,,,,,,,,,,,,,,,,,,,,,,,,,,,space,0.813,4,1.256,1,0,0,0,28,1,2,×,2,2 × 2,neutral,tie,1,2,4,,,,,,,,
,,,,,,,,,,,,,,,8116,2022-01-31_01h01.03.499,multiplicationStroop,2021.2.3,MacIntel,62.5,,,,,,,,,,,,,,,,,,,,,,,,,,,,,,,,,25,1.289,1,0,1,1,31,1,5,×,5,5 × 5,neutral,tie,1,2,25,,,,,,,,
,,,,,,,,,,,,,,,8116,2022-01-31_01h01.03.499,multiplicationStroop,2021.2.3,MacIntel,62.5,,,,,,,,,,,,,,,,,,,,,,,,,,,,,,,,,12,1.154,1,0,2,2,5,1,2,×,6,2 × 6,congruent,smallerFirst,1,2,12,,,,,,,,
,,,,,,,,,,,,,,,8116,2022-01-31_01h01.03.499,multiplicationStroop,2021.2.3,MacIntel,62.5,,,,,,,,,,,,,,,,,,,,,,,,,,,,,,,,,16,1.471,1,0,3,3,30,1,4,×,4,4 × 4,neutral,tie,1,2,16,,,,,,,,
,,,,,,,,,,,,,,,8116,2022-01-31_01h01.03.499,multiplicationStroop,2021.2.3,MacIntel,62.5,,,,,,,,,,,,,,,,,,,,,,,,,,,,,,,,,9,1.321,1,0,4,4,29,1,3,×,3,3 × 3,neutral,tie,1,2,9,,,,,,,,
,,,,,,,,,,,,,,,8116,2022-01-31_01h01.03.499,multiplicationStroop,2021.2.3,MacIntel,62.5,,,,,,,,,,,,,,,,,,,,,,,,,,,,,,,,,28,1.782,1,0,5,5,13,1,4,×,7,4 × 7,congruent,smallerFirst,1,2,28,,,,,,,,
,,,,,,,,,,,,,,,8116,2022-01-31_01h01.03.499,multiplicationStroop,2021.2.3,MacIntel,62.5,,,,,,,,,,,,,,,,,,,,,,,,,,,,,,,,,35,1.708,1,0,6,6,15,1,7,×,5,7 × 5,congruent,largerFirst,2,1,35,,,,,,,,
,,,,,,,,,,,,,,,8116,2022-01-31_01h01.03.499,multiplicationStroop,2021.2.3,MacIntel,62.5,,,,,,,,,,,,,,,,,,,,,,,,,,,,,,,,,10,1.384,1,0,7,7,10,1,2,×,5,2 × 5,congruent,smallerFirst,1,2,10,,,,,,,,
,,,,,,,,,,,,,,,8116,2022-01-31_01h01.03.499,multiplicationStroop,2021.2.3,MacIntel,62.5,,,,,,,,,,,,,,,,,,,,,,,,,,,,,,,,,49,1.851,1,0,8,8,33,1,7,×,7,7 × 7,neutral,tie,1,2,49,,,,,,,,
,,,,,,,,,,,,,,,8116,2022-01-31_01h01.03.499,multiplicationStroop,2021.2.3,MacIntel,62.5,,,,,,,,,,,,,,,,,,,,,,,,,,,,,,,,,21,1.302,1,0,9,9,2,1,3,×,7,3 × 7,congruent,smallerFirst,1,2,21,,,,,,,,
,,,,,,,,,,,,,,,8116,2022-01-31_01h01.03.499,multiplicationStroop,2021.2.3,MacIntel,62.5,,,,,,,,,,,,,,,,,,,,,,,,,,,,,,,,,45,1.817,1,0,10,10,9,1,5,×,9,5 × 9,congruent,smallerFirst,1,2,45,,,,,,,,
,,,,,,,,,,,,,,,8116,2022-01-31_01h01.03.499,multiplicationStroop,2021.2.3,MacIntel,62.5,,,,,,,,,,,,,,,,,,,,,,,,,,,,,,,,,36,1.718,1,0,11,11,32,1,6,×,6,6 × 6,neutral,tie,1,2,36,,,,,,,,
,,,,,,,,,,,,,,,8116,2022-01-31_01h01.03.499,multiplicationStroop,2021.2.3,MacIntel,62.5,,,,,,,,,,,,,,,,,,,,,,,,,,,,,,,,,63,3.172,1,0,12,12,7,1,7,×,9,7 × 9,congruent,smallerFirst,1,2,63,,,,,,,,
,,,,,,,,,,,,,,,8116,2022-01-31_01h01.03.499,multiplicationStroop,2021.2.3,MacIntel,62.5,,,,,,,,,,,,,,,,,,,,,,,,,,,,,,,,,20,1.433,1,0,13,13,21,1,5,×,4,5 × 4,congruent,largerFirst,2,1,20,,,,,,,,
,,,,,,,,,,,,,,,8116,2022-01-31_01h01.03.499,multiplicationStroop,2021.2.3,MacIntel,62.5,,,,,,,,,,,,,,,,,,,,,,,,,,,,,,,,,48,3.406,0,0,14,14,17,1,7,×,6,7 × 6,congruent,largerFirst,2,1,42,,,,,,,,
,,,,,,,,,,,,,,,8116,2022-01-31_01h01.03.499,multiplicationStroop,2021.2.3,MacIntel,62.5,,,,,,,,,,,,,,,,,,,,,,,,,,,,,,,,,27,2.584,1,0,15,15,12,1,3,×,9,3 × 9,congruent,smallerFirst,1,2,27,,,,,,,,
,,,,,,,,,,,,,,,8116,2022-01-31_01h01.03.499,multiplicationStroop,2021.2.3,MacIntel,62.5,,,,,,,,,,,,,,,,,,,,,,,,,,,,,,,,,32,2.058,1,0,16,16,6,1,4,×,8,4 × 8,congruent,smallerFirst,1,2,32,,,,,,,,
,,,,,,,,,,,,,,,8116,2022-01-31_01h01.03.499,multiplicationStroop,2021.2.3,MacIntel,62.5,,,,,,,,,,,,,,,,,,,,,,,,,,,,,,,,,18,1.576,1,0,17,17,25,1,6,×,3,6 × 3,congruent,largerFirst,2,1,18,,,,,,,,
,,,,,,,,,,,,,,,8116,2022-01-31_01h01.03.499,multiplicationStroop,2021.2.3,MacIntel,62.5,,,,,,,,,,,,,,,,,,,,,,,,,,,,,,,,,81,1.518,1,0,18,18,35,1,9,×,9,9 × 9,neutral,tie,1,2,81,,,,,,,,
,,,,,,,,,,,,,,,8116,2022-01-31_01h01.03.499,multiplicationStroop,2021.2.3,MacIntel,62.5,,,,,,,,,,,,,,,,,,,,,,,,,,,,,,,,,15,1.296,1,0,19,19,18,1,5,×,3,5 × 3,congruent,largerFirst,2,1,15,,,,,,,,
,,,,,,,,,,,,,,,8116,2022-01-31_01h01.03.499,multiplicationStroop,2021.2.3,MacIntel,62.5,,,,,,,,,,,,,,,,,,,,,,,,,,,,,,,,,72,2.032,1,0,20,20,3,1,8,×,9,8 × 9,congruent,smallerFirst,1,2,72,,,,,,,,
,,,,,,,,,,,,,,,8116,2022-01-31_01h01.03.499,multiplicationStroop,2021.2.3,MacIntel,62.5,,,,,,,,,,,,,,,,,,,,,,,,,,,,,,,,,16,1.449,1,0,21,21,19,1,8,×,2,8 × 2,congruent,largerFirst,2,1,16,,,,,,,,
,,,,,,,,,,,,,,,8116,2022-01-31_01h01.03.499,multiplicationStroop,2021.2.3,MacIntel,62.5,,,,,,,,,,,,,,,,,,,,,,,,,,,,,,,,,18,1.56,1,0,22,22,8,1,2,×,9,2 × 9,congruent,smallerFirst,1,2,18,,,,,,,,
,,,,,,,,,,,,,,,8116,2022-01-31_01h01.03.499,multiplicationStroop,2021.2.3,MacIntel,62.5,,,,,,,,,,,,,,,,,,,,,,,,,,,,,,,,,14,1.166,1,0,23,23,0,1,2,×,7,2 × 7,congruent,smallerFirst,1,2,14,,,,,,,,
,,,,,,,,,,,,,,,8116,2022-01-31_01h01.03.499,multiplicationStroop,2021.2.3,MacIntel,62.5,,,,,,,,,,,,,,,,,,,,,,,,,,,,,,,,,30,1.376,1,0,24,24,1,1,5,×,6,5 × 6,congruent,smallerFirst,1,2,30,,,,,,,,
,,,,,,,,,,,,,,,8116,2022-01-31_01h01.03.499,multiplicationStroop,2021.2.3,MacIntel,62.5,,,,,,,,,,,,,,,,,,,,,,,,,,,,,,,,,54,1.522,1,0,25,25,26,1,9,×,6,9 × 6,congruent,largerFirst,2,1,54,,,,,,,,
,,,,,,,,,,,,,,,8116,2022-01-31_01h01.03.499,multiplicationStroop,2021.2.3,MacIntel,62.5,,,,,,,,,,,,,,,,,,,,,,,,,,,,,,,,,24,1.692,1,0,26,26,24,1,8,×,3,8 × 3,congruent,largerFirst,2,1,24,,,,,,,,
,,,,,,,,,,,,,,,8116,2022-01-31_01h01.03.499,multiplicationStroop,2021.2.3,MacIntel,62.5,,,,,,,,,,,,,,,,,,,,,,,,,,,,,,,,,24,3.573,1,0,27,27,11,1,4,×,6,4 × 6,congruent,smallerFirst,1,2,24,,,,,,,,
,,,,,,,,,,,,,,,8116,2022-01-31_01h01.03.499,multiplicationStroop,2021.2.3,MacIntel,62.5,,,,,,,,,,,,,,,,,,,,,,,,,,,,,,,,,8,1.419,1,0,28,28,23,1,4,×,2,4 × 2,congruent,largerFirst,2,1,8,,,,,,,,
,,,,,,,,,,,,,,,8116,2022-01-31_01h01.03.499,multiplicationStroop,2021.2.3,MacIntel,62.5,,,,,,,,,,,,,,,,,,,,,,,,,,,,,,,,,6,1.265,1,0,29,29,27,1,3,×,2,3 × 2,congruent,largerFirst,2,1,6,,,,,,,,
,,,,,,,,,,,,,,,8116,2022-01-31_01h01.03.499,multiplicationStroop,2021.2.3,MacIntel,62.5,,,,,,,,,,,,,,,,,,,,,,,,,,,,,,,,,56,3.272,1,0,30,30,22,1,8,×,7,8 × 7,congruent,largerFirst,2,1,56,,,,,,,,
,,,,,,,,,,,,,,,8116,2022-01-31_01h01.03.499,multiplicationStroop,2021.2.3,MacIntel,62.5,,,,,,,,,,,,,,,,,,,,,,,,,,,,,,,,,36,1.953,1,0,31,31,14,1,9,×,4,9 × 4,congruent,largerFirst,2,1,36,,,,,,,,
,,,,,,,,,,,,,,,8116,2022-01-31_01h01.03.499,multiplicationStroop,2021.2.3,MacIntel,62.5,,,,,,,,,,,,,,,,,,,,,,,,,,,,,,,,,40,1.954,1,0,32,32,20,1,8,×,5,8 × 5,congruent,largerFirst,2,1,40,,,,,,,,
,,,,,,,,,,,,,,,8116,2022-01-31_01h01.03.499,multiplicationStroop,2021.2.3,MacIntel,62.5,,,,,,,,,,,,,,,,,,,,,,,,,,,,,,,,,48,2.422,1,0,33,33,4,1,6,×,8,6 × 8,congruent,smallerFirst,1,2,48,,,,,,,,
,,,,,,,,,,,,,,,8116,2022-01-31_01h01.03.499,multiplicationStroop,2021.2.3,MacIntel,62.5,,,,,,,,,,,,,,,,,,,,,,,,,,,,,,,,,64,1.666,1,0,34,34,34,1,8,×,8,8 × 8,neutral,tie,1,2,64,,,,,,,,
,,,,,,,,,,,,,,,8116,2022-01-31_01h01.03.499,multiplicationStroop,2021.2.3,MacIntel,62.5,,,,,,,,,,,,,,,,,,,,,,,,,,,,,,,,,12,1.221,1,0,35,35,16,1,4,×,3,4 × 3,congruent,largerFirst,2,1,12,,,,,,,,
,,,,,,,,,,,,,,,8116,2022-01-31_01h01.03.499,multiplicationStroop,2021.2.3,MacIntel,62.5,,,,,,,,,,,,,,,,,,,,,,,,,,,,,,,,,,,,,,,,,,,,,,,,,,0,5,5,3,1,stimulusFile/mult_blk4_congruent.xlsx,,
,,,,,,,,,,,,,,,8116,2022-01-31_01h01.03.499,multiplicationStroop,2021.2.3,MacIntel,62.5,,,,,,,,,,,,,,,,,,,,,,,,,,,,,,,,,,,,,,,,,,,,,,,,,,,,,,,,space,1.792