welcomeKey_resp.keys,welcomeKey_resp.rt,X Scale,Y Scale,rt_resp_4.keys,rt_resp_4.corr,rt_resp_4.rt,speedtest_2.thisRepN,speedtest_2.thisTrialN,speedtest_2.thisN,speedtest_2.thisIndex,speedtest_2.ran,numberSc,posX,positionLayout,participant,date,expName,psychopyVersion,OS,frameRate,ct_instrresp.keys,ct_instrresp.rt,key_resp_2.keys,key_resp_2.rt,ct_keyResp.keys,ct_keyResp.corr,ct_keyResp.rt,trials.thisRepN,trials.thisTrialN,trials.thisN,trials.thisIndex,trials.ran,leftNo,rightNo,displayProblem,numDistance,leftNo_size,rightNo_size,Dims,keyAnswer,TS_Loop.thisRepN,TS_Loop.thisTrialN,TS_Loop.thisN,TS_Loop.thisIndex,TS_Loop.ran,Condition,ActionInst,instrImage,mltptaskInst_resp.keys,mltptaskInst_resp.rt,continue_resp_2.keys,continue_resp_2.rt,multp_Answer,multi_RT,multiplyCorr,LoopingMultiply.thisRepN,LoopingMultiply.thisTrialN,LoopingMultiply.thisN,LoopingMultiply.thisIndex,LoopingMultiply.ran,factor1,multiplySign,factor2,multliplyProblem,physicalSize,orderOperand,sizeF1,sizeF2,mult_answer,trials_stroop.thisRepN,trials_stroop.thisTrialN,trials_stroop.thisN,trials_stroop.thisIndex,trials_stroop.ran,multiplicationFile,esckey_resp_2.keys,esckey_resp_2.rt
y,10.0255,60,50.5,right,1,0.9716,0,0,0,11,1,4,200,right,811,2022-01-15_15h38.09.410,multiplicationStroop,2021.2.3,Win32,60.11060351,,,,,,,,,,,,,,,,,,,,,,,,,,,,,,,,,,,,,,,,,,,,,,,,,,,,,,,,,
,,,,left,1,0.4058,0,1,1,4,1,6,-200,left,811,2022-01-15_15h38.09.410,multiplicationStroop,2021.2.3,Win32,60.11060351,,,,,,,,,,,,,,,,,,,,,,,,,,,,,,,,,,,,,,,,,,,,,,,,,,,,,,,,,
,,,,left,1,0.3928,0,2,2,1,1,2,-200,left,811,2022-01-15_15h38.09.410,multiplicationStroop,2021.2.3,Win32,60.11060351,,,,,,,,,,,,,,,,,,,,,,,,,,,,,,,,,,,,,,,,,,,,,,,,,,,,,,,,,
,,,,right,1,0.352,0,3,3,12,1,6,200,right,811,2022-01-15_15h38.09.410,multiplicationStroop,2021.2.3,Win32,60.11060351,,,,,,,,,,,,,,,,,,,,,,,,,,,,,,,,,,,,,,,,,,,,,,,,,,,,,,,,,
,,,,right,1,0.3819,0,4,4,14,1,8,200,right,811,2022-01-15_15h38.09.410,multiplicationStroop,2021.2.3,Win32,60.11060351,,,,,,,,,,,,,,,,,,,,,,,,,,,,,,,,,,,,,,,,,,,,,,,,,,,,,,,,,
,,,,right,1,0.2856,0,5,5,9,1,2,200,right,811,2022-01-15_15h38.09.410,multiplicationStroop,2021.2.3,Win32,60.11060351,,,,,,,,,,,,,,,,,,,,,,,,,,,,,,,,,,,,,,,,,,,,,,,,,,,,,,,,,
,,,,right,1,0.2631,0,6,6,13,1,7,200,right,811,2022-01-15_15h38.09.410,multiplicationStroop,2021.2.3,Win32,60.11060351,,,,,,,,,,,,,,,,,,,,,,,,,,,,,,,,,,,,,,,,,,,,,,,,,,,,,,,,,
,,,,right,0,0.0947,0,7,7,0,1,1,-200,left,811,2022-01-15_15h38.09.410,multiplicationStroop,2021.2.3,Win32,60.11060351,,,,,,,,,,,,,,,,,,,,,,,,,,,,,,,,,,,,,,,,,,,,,,,,,,,,,,,,,
,,,,right,1,0.824,0,8,8,8,1,1,200,right,811,2022-01-15_15h38.09.410,multiplicationStroop,2021.2.3,Win32,60.11060351,,,,,,,,,,,,,,,,,,,,,,,,,,,,,,,,,,,,,,,,,,,,,,,,,,,,,,,,,
,,,,right,1,0.4182,0,9,9,15,1,9,200,right,811,2022-01-15_15h38.09.410,multiplicationStroop,2021.2.3,Win32,60.11060351,,,,,,,,,,,,,,,,,,,,,,,,,,,,,,,,,,,,,,,,,,,,,,,,,,,,,,,,,
,,,,left,1,0.4101,0,10,10,2,1,3,-200,left,811,2022-01-15_15h38.09.410,multiplicationStroop,2021.2.3,Win32,60.11060351,,,,,,,,,,,,,,,,,,,,,,,,,,,,,,,,,,,,,,,,,,,,,,,,,,,,,,,,,
,,,,left,1,0.4492,0,11,11,7,1,9,-200,left,811,2022-01-15_15h38.09.410,multiplicationStroop,2021.2.3,Win32,60.11060351,,,,,,,,,,,,,,,,,,,,,,,,,,,,,,,,,,,,,,,,,,,,,,,,,,,,,,,,,
,,,,left,1,0.3608,0,12,12,6,1,8,-200,left,811,2022-01-15_15h38.09.410,multiplicationStroop,2021.2.3,Win32,60.11060351,,,,,,,,,,,,,,,,,,,,,,,,,,,,,,,,,,,,,,,,,,,,,,,,,,,,,,,,,
,,,,left,1,0.3699,0,13,13,3,1,4,-200,left,811,2022-01-15_15h38.09.410,multiplicationStroop,2021.2.3,Win32,60.11060351,,,,,,,,,,,,,,,,,,,,,,,,,,,,,,,,,,,,,,,,,,,,,,,,,,,,,,,,,
,,,,right,1,0.3256,0,14,14,10,1,3,200,right,811,2022-01-15_15h38.09.410,multiplicationStroop,2021.2.3,Win32,60.11060351,,,,,,,,,,,,,,,,,,,,,,,,,,,,,,,,,,,,,,,,,,,,,,,,,,,,,,,,,
,,,,left,1,0.2958,0,15,15,5,1,7,-200,left,811,2022-01-15_15h38.09.410,multiplicationStroop,2021.2.3,Win32,60.11060351,,,,,,,,,,,,,,,,,,,,,,,,,,,,,,,,,,,,,,,,,,,,,,,,,,,,,,,,,
,,,,right,1,0.3495,1,0,16,9,1,2,200,right,811,2022-01-15_15h38.09.410,multiplicationStroop,2021.2.3,Win32,60.11060351,,,,,,,,,,,,,,,,,,,,,,,,,,,,,,,,,,,,,,,,,,,,,,,,,,,,,,,,,
,,,,left,1,0.2637,1,1,17,7,1,9,-200,left,811,2022-01-15_15h38.09.410,multiplicationStroop,2021.2.3,Win32,60.11060351,,,,,,,,,,,,,,,,,,,,,,,,,,,,,,,,,,,,,,,,,,,,,,,,,,,,,,,,,
,,,,left,1,0.4727,1,2,18,1,1,2,-200,left,811,2022-01-15_15h38.09.410,multiplicationStroop,2021.2.3,Win32,60.11060351,,,,,,,,,,,,,,,,,,,,,,,,,,,,,,,,,,,,,,,,,,,,,,,,,,,,,,,,,
,,,,left,1,0.3307,1,3,19,3,1,4,-200,left,811,2022-01-15_15h38.09.410,multiplicationStroop,2021.2.3,Win32,60.11060351,,,,,,,,,,,,,,,,,,,,,,,,,,,,,,,,,,,,,,,,,,,,,,,,,,,,,,,,,
,,,,right,1,0.3916,1,4,20,15,1,9,200,right,811,2022-01-15_15h38.09.410,multiplicationStroop,2021.2.3,Win32,60.11060351,,,,,,,,,,,,,,,,,,,,,,,,,,,,,,,,,,,,,,,,,,,,,,,,,,,,,,,,,
,,,,right,1,0.4248,1,5,21,8,1,1,200,right,811,2022-01-15_15h38.09.410,multiplicationStroop,2021.2.3,Win32,60.11060351,,,,,,,,,,,,,,,,,,,,,,,,,,,,,,,,,,,,,,,,,,,,,,,,,,,,,,,,,
,,,,left,1,0.3446,1,6,22,6,1,8,-200,left,811,2022-01-15_15h38.09.410,multiplicationStroop,2021.2.3,Win32,60.11060351,,,,,,,,,,,,,,,,,,,,,,,,,,,,,,,,,,,,,,,,,,,,,,,,,,,,,,,,,
,,,,right,1,0.2828,1,7,23,10,1,3,200,right,811,2022-01-15_15h38.09.410,multiplicationStroop,2021.2.3,Win32,60.11060351,,,,,,,,,,,,,,,,,,,,,,,,,,,,,,,,,,,,,,,,,,,,,,,,,,,,,,,,,
,,,,right,1,0.3819,1,8,24,11,1,4,200,right,811,2022-01-15_15h38.09.410,multiplicationStroop,2021.2.3,Win32,60.11060351,,,,,,,,,,,,,,,,,,,,,,,,,,,,,,,,,,,,,,,,,,,,,,,,,,,,,,,,,
,,,,right,1,0.3563,1,9,25,12,1,6,200,right,811,2022-01-15_15h38.09.410,multiplicationStroop,2021.2.3,Win32,60.11060351,,,,,,,,,,,,,,,,,,,,,,,,,,,,,,,,,,,,,,,,,,,,,,,,,,,,,,,,,
,,,,left,1,0.3859,1,10,26,4,1,6,-200,left,811,2022-01-15_15h38.09.410,multiplicationStroop,2021.2.3,Win32,60.11060351,,,,,,,,,,,,,,,,,,,,,,,,,,,,,,,,,,,,,,,,,,,,,,,,,,,,,,,,,
,,,,left,1,0.432,1,11,27,0,1,1,-200,left,811,2022-01-15_15h38.09.410,multiplicationStroop,2021.2.3,Win32,60.11060351,,,,,,,,,,,,,,,,,,,,,,,,,,,,,,,,,,,,,,,,,,,,,,,,,,,,,,,,,
,,,,left,1,0.3813,1,12,28,2,1,3,-200,left,811,2022-01-15_15h38.09.410,multiplicationStroop,2021.2.3,Win32,60.11060351,,,,,,,,,,,,,,,,,,,,,,,,,,,,,,,,,,,,,,,,,,,,,,,,,,,,,,,,,
,,,,left,1,0.4032,1,13,29,5,1,7,-200,left,811,2022-01-15_15h38.09.410,multiplicationStroop,2021.2.3,Win32,60.11060351,,,,,,,,,,,,,,,,,,,,,,,,,,,,,,,,,,,,,,,,,,,,,,,,,,,,,,,,,
,,,,right,1,0.4348,1,14,30,13,1,7,200,right,811,2022-01-15_15h38.09.410,multiplicationStroop,2021.2.3,Win32,60.11060351,,,,,,,,,,,,,,,,,,,,,,,,,,,,,,,,,,,,,,,,,,,,,,,,,,,,,,,,,
,,,,right,1,0.301,1,15,31,14,1,8,200,right,811,2022-01-15_15h38.09.410,multiplicationStroop,2021.2.3,Win32,60.11060351,,,,,,,,,,,,,,,,,,,,,,,,,,,,,,,,,,,,,,,,,,,,,,,,,,,,,,,,,
,,,,right,1,0.3629,2,0,32,8,1,1,200,right,811,2022-01-15_15h38.09.410,multiplicationStroop,2021.2.3,Win32,60.11060351,,,,,,,,,,,,,,,,,,,,,,,,,,,,,,,,,,,,,,,,,,,,,,,,,,,,,,,,,
,,,,left,1,0.4154,2,1,33,5,1,7,-200,left,811,2022-01-15_15h38.09.410,multiplicationStroop,2021.2.3,Win32,60.11060351,,,,,,,,,,,,,,,,,,,,,,,,,,,,,,,,,,,,,,,,,,,,,,,,,,,,,,,,,
,,,,right,1,0.4488,2,2,34,15,1,9,200,right,811,2022-01-15_15h38.09.410,multiplicationStroop,2021.2.3,Win32,60.11060351,,,,,,,,,,,,,,,,,,,,,,,,,,,,,,,,,,,,,,,,,,,,,,,,,,,,,,,,,
,,,,right,1,0.434,2,3,35,10,1,3,200,right,811,2022-01-15_15h38.09.410,multiplicationStroop,2021.2.3,Win32,60.11060351,,,,,,,,,,,,,,,,,,,,,,,,,,,,,,,,,,,,,,,,,,,,,,,,,,,,,,,,,
,,,,right,1,0.3419,2,4,36,14,1,8,200,right,811,2022-01-15_15h38.09.410,multiplicationStroop,2021.2.3,Win32,60.11060351,,,,,,,,,,,,,,,,,,,,,,,,,,,,,,,,,,,,,,,,,,,,,,,,,,,,,,,,,
,,,,left,1,0.4714,2,5,37,3,1,4,-200,left,811,2022-01-15_15h38.09.410,multiplicationStroop,2021.2.3,Win32,60.11060351,,,,,,,,,,,,,,,,,,,,,,,,,,,,,,,,,,,,,,,,,,,,,,,,,,,,,,,,,
,,,,left,1,0.4192,2,6,38,2,1,3,-200,left,811,2022-01-15_15h38.09.410,multiplicationStroop,2021.2.3,Win32,60.11060351,,,,,,,,,,,,,,,,,,,,,,,,,,,,,,,,,,,,,,,,,,,,,,,,,,,,,,,,,
,,,,left,1,0.3491,2,7,39,6,1,8,-200,left,811,2022-01-15_15h38.09.410,multiplicationStroop,2021.2.3,Win32,60.11060351,,,,,,,,,,,,,,,,,,,,,,,,,,,,,,,,,,,,,,,,,,,,,,,,,,,,,,,,,
,,,,left,1,0.3785,2,8,40,1,1,2,-200,left,811,2022-01-15_15h38.09.410,multiplicationStroop,2021.2.3,Win32,60.11060351,,,,,,,,,,,,,,,,,,,,,,,,,,,,,,,,,,,,,,,,,,,,,,,,,,,,,,,,,
,,,,right,1,0.3789,2,9,41,11,1,4,200,right,811,2022-01-15_15h38.09.410,multiplicationStroop,2021.2.3,Win32,60.11060351,,,,,,,,,,,,,,,,,,,,,,,,,,,,,,,,,,,,,,,,,,,,,,,,,,,,,,,,,
,,,,right,1,0.3531,2,10,42,9,1,2,200,right,811,2022-01-15_15h38.09.410,multiplicationStroop,2021.2.3,Win32,60.11060351,,,,,,,,,,,,,,,,,,,,,,,,,,,,,,,,,,,,,,,,,,,,,,,,,,,,,,,,,
,,,,right,1,0.379,2,11,43,12,1,6,200,right,811,2022-01-15_15h38.09.410,multiplicationStroop,2021.2.3,Win32,60.11060351,,,,,,,,,,,,,,,,,,,,,,,,,,,,,,,,,,,,,,,,,,,,,,,,,,,,,,,,,
,,,,left,1,0.4145,2,12,44,7,1,9,-200,left,811,2022-01-15_15h38.09.410,multiplicationStroop,2021.2.3,Win32,60.11060351,,,,,,,,,,,,,,,,,,,,,,,,,,,,,,,,,,,,,,,,,,,,,,,,,,,,,,,,,
,,,,left,1,0.5463,2,13,45,4,1,6,-200,left,811,2022-01-15_15h38.09.410,multiplicationStroop,2021.2.3,Win32,60.11060351,,,,,,,,,,,,,,,,,,,,,,,,,,,,,,,,,,,,,,,,,,,,,,,,,,,,,,,,,
,,,,left,1,0.2538,2,14,46,0,1,1,-200,left,811,2022-01-15_15h38.09.410,multiplicationStroop,2021.2.3,Win32,60.11060351,,,,,,,,,,,,,,,,,,,,,,,,,,,,,,,,,,,,,,,,,,,,,,,,,,,,,,,,,
,,,,right,1,0.3503,2,15,47,13,1,7,200,right,811,2022-01-15_15h38.09.410,multiplicationStroop,2021.2.3,Win32,60.11060351,,,,,,,,,,,,,,,,,,,,,,,,,,,,,,,,,,,,,,,,,,,,,,,,,,,,,,,,,
,,,,left,1,0.43,3,0,48,0,1,1,-200,left,811,2022-01-15_15h38.09.410,multiplicationStroop,2021.2.3,Win32,60.11060351,,,,,,,,,,,,,,,,,,,,,,,,,,,,,,,,,,,,,,,,,,,,,,,,,,,,,,,,,
,,,,left,1,0.4165,3,1,49,2,1,3,-200,left,811,2022-01-15_15h38.09.410,multiplicationStroop,2021.2.3,Win32,60.11060351,,,,,,,,,,,,,,,,,,,,,,,,,,,,,,,,,,,,,,,,,,,,,,,,,,,,,,,,,
,,,,left,1,0.385,3,2,50,5,1,7,-200,left,811,2022-01-15_15h38.09.410,multiplicationStroop,2021.2.3,Win32,60.11060351,,,,,,,,,,,,,,,,,,,,,,,,,,,,,,,,,,,,,,,,,,,,,,,,,,,,,,,,,
,,,,right,1,0.3238,3,3,51,13,1,7,200,right,811,2022-01-15_15h38.09.410,multiplicationStroop,2021.2.3,Win32,60.11060351,,,,,,,,,,,,,,,,,,,,,,,,,,,,,,,,,,,,,,,,,,,,,,,,,,,,,,,,,
,,,,right,1,0.4341,3,4,52,11,1,4,200,right,811,2022-01-15_15h38.09.410,multiplicationStroop,2021.2.3,Win32,60.11060351,,,,,,,,,,,,,,,,,,,,,,,,,,,,,,,,,,,,,,,,,,,,,,,,,,,,,,,,,
,,,,right,1,0.4006,3,5,53,9,1,2,200,right,811,2022-01-15_15h38.09.410,multiplicationStroop,2021.2.3,Win32,60.11060351,,,,,,,,,,,,,,,,,,,,,,,,,,,,,,,,,,,,,,,,,,,,,,,,,,,,,,,,,
,,,,left,1,0.4016,3,6,54,4,1,6,-200,left,811,2022-01-15_15h38.09.410,multiplicationStroop,2021.2.3,Win32,60.11060351,,,,,,,,,,,,,,,,,,,,,,,,,,,,,,,,,,,,,,,,,,,,,,,,,,,,,,,,,
,,,,right,1,0.4011,3,7,55,15,1,9,200,right,811,2022-01-15_15h38.09.410,multiplicationStroop,2021.2.3,Win32,60.11060351,,,,,,,,,,,,,,,,,,,,,,,,,,,,,,,,,,,,,,,,,,,,,,,,,,,,,,,,,
,,,,left,1,0.4,3,8,56,7,1,9,-200,left,811,2022-01-15_15h38.09.410,multiplicationStroop,2021.2.3,Win32,60.11060351,,,,,,,,,,,,,,,,,,,,,,,,,,,,,,,,,,,,,,,,,,,,,,,,,,,,,,,,,
,,,,left,1,0.4174,3,9,57,3,1,4,-200,left,811,2022-01-15_15h38.09.410,multiplicationStroop,2021.2.3,Win32,60.11060351,,,,,,,,,,,,,,,,,,,,,,,,,,,,,,,,,,,,,,,,,,,,,,,,,,,,,,,,,
,,,,left,1,0.4003,3,10,58,6,1,8,-200,left,811,2022-01-15_15h38.09.410,multiplicationStroop,2021.2.3,Win32,60.11060351,,,,,,,,,,,,,,,,,,,,,,,,,,,,,,,,,,,,,,,,,,,,,,,,,,,,,,,,,
,,,,right,1,0.3839,3,11,59,14,1,8,200,right,811,2022-01-15_15h38.09.410,multiplicationStroop,2021.2.3,Win32,60.11060351,,,,,,,,,,,,,,,,,,,,,,,,,,,,,,,,,,,,,,,,,,,,,,,,,,,,,,,,,
,,,,left,1,0.4837,3,12,60,1,1,2,-200,left,811,2022-01-15_15h38.09.410,multiplicationStroop,2021.2.3,Win32,60.11060351,,,,,,,,,,,,,,,,,,,,,,,,,,,,,,,,,,,,,,,,,,,,,,,,,,,,,,,,,
,,,,right,1,0.4674,3,13,61,10,1,3,200,right,811,2022-01-15_15h38.09.410,multiplicationStroop,2021.2.3,Win32,60.11060351,,,,,,,,,,,,,,,,,,,,,,,,,,,,,,,,,,,,,,,,,,,,,,,,,,,,,,,,,
,,,,right,1,0.4706,3,14,62,12,1,6,200,right,811,2022-01-15_15h38.09.410,multiplicationStroop,2021.2.3,Win32,60.11060351,,,,,,,,,,,,,,,,,,,,,,,,,,,,,,,,,,,,,,,,,,,,,,,,,,,,,,,,,
,,,,right,1,0.3496,3,15,63,8,1,1,200,right,811,2022-01-15_15h38.09.410,multiplicationStroop,2021.2.3,Win32,60.11060351,,,,,,,,,,,,,,,,,,,,,,,,,,,,,,,,,,,,,,,,,,,,,,,,,,,,,,,,,
,,,,,,,,,,,,,,,811,2022-01-15_15h38.09.410,multiplicationStroop,2021.2.3,Win32,60.11060351,space,7.452,space,6.148,left,1,0.6847,0,0,0,21,1,7,2,7 | 2,5,1.9756,1.4111,congruent,left,,,,,,stimulusFile/physical.xlsx,,,,,,,,,,,,,,,,,,,,,,,,,,,,,,,
,,,,,,,,,,,,,,,811,2022-01-15_15h38.09.410,multiplicationStroop,2021.2.3,Win32,60.11060351,,,,,right,0,0.5058,0,1,1,69,1,7,7,7 | 7,0,1.4111,1.9756,neutral,left,,,,,,stimulusFile/physical.xlsx,,,,,,,,,,,,,,,,,,,,,,,,,,,,,,,
,,,,,,,,,,,,,,,811,2022-01-15_15h38.09.410,multiplicationStroop,2021.2.3,Win32,60.11060351,,,,,right,1,0.5174,0,2,2,67,1,4,4,4 | 4,0,1.4111,1.9756,neutral,right,,,,,,stimulusFile/physical.xlsx,,,,,,,,,,,,,,,,,,,,,,,,,,,,,,,
,,,,,,,,,,,,,,,811,2022-01-15_15h38.09.410,multiplicationStroop,2021.2.3,Win32,60.11060351,,,,,right,1,0.5006,0,3,3,3,1,8,9,8 | 9,1,1.4111,1.9756,congruent,right,,,,,,stimulusFile/physical.xlsx,,,,,,,,,,,,,,,,,,,,,,,,,,,,,,,
,,,,,,,,,,,,,,,811,2022-01-15_15h38.09.410,multiplicationStroop,2021.2.3,Win32,60.11060351,,,,,left,1,0.4864,0,4,4,15,1,9,7,9 | 7,2,1.9756,1.4111,congruent,left,,,,,,stimulusFile/physical.xlsx,,,,,,,,,,,,,,,,,,,,,,,,,,,,,,,
,,,,,,,,,,,,,,,811,2022-01-15_15h38.09.410,multiplicationStroop,2021.2.3,Win32,60.11060351,,,,,left,0,0.5667,0,5,5,66,1,3,3,3 | 3,0,1.9756,1.4111,neutral,right,,,,,,stimulusFile/physical.xlsx,,,,,,,,,,,,,,,,,,,,,,,,,,,,,,,
,,,,,,,,,,,,,,,811,2022-01-15_15h38.09.410,multiplicationStroop,2021.2.3,Win32,60.11060351,,,,,left,1,0.533,0,6,6,55,1,9,9,9 | 9,0,1.9756,1.4111,neutral,left,,,,,,stimulusFile/physical.xlsx,,,,,,,,,,,,,,,,,,,,,,,,,,,,,,,
,,,,,,,,,,,,,,,811,2022-01-15_15h38.09.410,multiplicationStroop,2021.2.3,Win32,60.11060351,,,,,right,1,0.5761,0,7,7,36,1,3,1,3 | 1,2,1.4111,1.9756,incongruent,right,,,,,,stimulusFile/physical.xlsx,,,,,,,,,,,,,,,,,,,,,,,,,,,,,,,
,,,,,,,,,,,,,,,811,2022-01-15_15h38.09.410,multiplicationStroop,2021.2.3,Win32,60.11060351,,,,,left,1,0.5038,0,8,8,32,1,1,3,1 | 3,2,1.9756,1.4111,incongruent,left,,,,,,stimulusFile/physical.xlsx,,,,,,,,,,,,,,,,,,,,,,,,,,,,,,,
,,,,,,,,,,,,,,,811,2022-01-15_15h38.09.410,multiplicationStroop,2021.2.3,Win32,60.11060351,,,,,left,1,0.6677,0,9,9,20,1,6,1,6 | 1,5,1.9756,1.4111,congruent,left,,,,,,stimulusFile/physical.xlsx,,,,,,,,,,,,,,,,,,,,,,,,,,,,,,,
,,,,,,,,,,,,,,,811,2022-01-15_15h38.09.410,multiplicationStroop,2021.2.3,Win32,60.11060351,,,,,left,1,0.511,0,10,10,70,1,8,8,8 | 8,0,1.9756,1.4111,neutral,left,,,,,,stimulusFile/physical.xlsx,,,,,,,,,,,,,,,,,,,,,,,,,,,,,,,
,,,,,,,,,,,,,,,811,2022-01-15_15h38.09.410,multiplicationStroop,2021.2.3,Win32,60.11060351,,,,,right,1,0.5071,0,11,11,44,1,6,1,6 | 1,5,1.4111,1.9756,incongruent,right,,,,,,stimulusFile/physical.xlsx,,,,,,,,,,,,,,,,,,,,,,,,,,,,,,,
,,,,,,,,,,,,,,,811,2022-01-15_15h38.09.410,multiplicationStroop,2021.2.3,Win32,60.11060351,,,,,right,1,0.5936,0,12,12,0,1,1,2,1 | 2,1,1.4111,1.9756,congruent,right,,,,,,stimulusFile/physical.xlsx,,,,,,,,,,,,,,,,,,,,,,,,,,,,,,,
,,,,,,,,,,,,,,,811,2022-01-15_15h38.09.410,multiplicationStroop,2021.2.3,Win32,60.11060351,,,,,right,1,0.503,0,13,13,10,1,6,8,6 | 8,2,1.4111,1.9756,congruent,right,,,,,,stimulusFile/physical.xlsx,,,,,,,,,,,,,,,,,,,,,,,,,,,,,,,
,,,,,,,,,,,,,,,811,2022-01-15_15h38.09.410,multiplicationStroop,2021.2.3,Win32,60.11060351,,,,,right,1,0.5283,0,14,14,11,1,7,9,7 | 9,2,1.4111,1.9756,congruent,right,,,,,,stimulusFile/physical.xlsx,,,,,,,,,,,,,,,,,,,,,,,,,,,,,,,
,,,,,,,,,,,,,,,811,2022-01-15_15h38.09.410,multiplicationStroop,2021.2.3,Win32,60.11060351,,,,,left,1,0.5501,0,15,15,27,1,8,9,8 | 9,1,1.9756,1.4111,incongruent,left,,,,,,stimulusFile/physical.xlsx,,,,,,,,,,,,,,,,,,,,,,,,,,,,,,,
,,,,,,,,,,,,,,,811,2022-01-15_15h38.09.410,multiplicationStroop,2021.2.3,Win32,60.11060351,,,,,left,1,0.6372,0,16,16,24,1,1,2,1 | 2,1,1.9756,1.4111,incongruent,left,,,,,,stimulusFile/physical.xlsx,,,,,,,,,,,,,,,,,,,,,,,,,,,,,,,
,,,,,,,,,,,,,,,811,2022-01-15_15h38.09.410,multiplicationStroop,2021.2.3,Win32,60.11060351,,,,,left,1,0.4106,0,17,17,53,1,4,4,4 | 4,0,1.9756,1.4111,neutral,left,,,,,,stimulusFile/physical.xlsx,,,,,,,,,,,,,,,,,,,,,,,,,,,,,,,
,,,,,,,,,,,,,,,811,2022-01-15_15h38.09.410,multiplicationStroop,2021.2.3,Win32,60.11060351,,,,,left,1,0.7512,0,18,18,4,1,2,1,2 | 1,1,1.9756,1.4111,congruent,left,,,,,,stimulusFile/physical.xlsx,,,,,,,,,,,,,,,,,,,,,,,,,,,,,,,
,,,,,,,,,,,,,,,811,2022-01-15_15h38.09.410,multiplicationStroop,2021.2.3,Win32,60.11060351,,,,,left,1,0.4706,0,19,19,52,1,2,2,2 | 2,0,1.9756,1.4111,neutral,left,,,,,,stimulusFile/physical.xlsx,,,,,,,,,,,,,,,,,,,,,,,,,,,,,,,
,,,,,,,,,,,,,,,811,2022-01-15_15h38.09.410,multiplicationStroop,2021.2.3,Win32,60.11060351,,,,,left,1,0.4665,0,20,20,34,1,6,8,6 | 8,2,1.9756,1.4111,incongruent,left,,,,,,stimulusFile/physical.xlsx,,,,,,,,,,,,,,,,,,,,,,,,,,,,,,,
,,,,,,,,,,,,,,,811,2022-01-15_15h38.09.410,multiplicationStroop,2021.2.3,Win32,60.11060351,,,,,right,1,0.4668,0,21,21,63,1,9,9,9 | 9,0,1.4111,1.9756,neutral,right,,,,,,stimulusFile/physical.xlsx,,,,,,,,,,,,,,,,,,,,,,,,,,,,,,,
,,,,,,,,,,,,,,,811,2022-01-15_15h38.09.410,multiplicationStroop,2021.2.3,Win32,60.11060351,,,,,left,1,0.5166,0,22,22,68,1,6,6,6 | 6,0,1.9756,1.4111,neutral,left,,,,,,stimulusFile/physical.xlsx,,,,,,,,,,,,,,,,,,,,,,,,,,,,,,,
,,,,,,,,,,,,,,,811,2022-01-15_15h38.09.410,multiplicationStroop,2021.2.3,Win32,60.11060351,,,,,left,1,0.5553,0,23,23,40,1,1,6,1 | 6,5,1.9756,1.4111,incongruent,left,,,,,,stimulusFile/physical.xlsx,,,,,,,,,,,,,,,,,,,,,,,,,,,,,,,
,,,,,,,,,,,,,,,811,2022-01-15_15h38.09.410,multiplicationStroop,2021.2.3,Win32,60.11060351,,,,,left,1,0.4345,0,24,24,54,1,7,7,7 | 7,0,1.9756,1.4111,neutral,left,,,,,,stimulusFile/physical.xlsx,,,,,,,,,,,,,,,,,,,,,,,,,,,,,,,
,,,,,,,,,,,,,,,811,2022-01-15_15h38.09.410,multiplicationStroop,2021.2.3,Win32,60.11060351,,,,,right,1,0.6173,0,25,25,57,1,2,2,2 | 2,0,1.4111,1.9756,neutral,right,,,,,,stimulusFile/physical.xlsx,,,,,,,,,,,,,,,,,,,,,,,,,,,,,,,
,,,,,,,,,,,,,,,811,2022-01-15_15h38.09.410,multiplicationStroop,2021.2.3,Win32,60.11060351,,,,,right,1,0.7508,0,26,26,31,1,9,8,9 | 8,1,1.4111,1.9756,incongruent,right,,,,,,stimulusFile/physical.xlsx,,,,,,,,,,,,,,,,,,,,,,,,,,,,,,,
,,,,,,,,,,,,,,,811,2022-01-15_15h38.09.410,multiplicationStroop,2021.2.3,Win32,60.11060351,,,,,left,1,0.6317,0,27,27,12,1,3,1,3 | 1,2,1.9756,1.4111,congruent,left,,,,,,stimulusFile/physical.xlsx,,,,,,,,,,,,,,,,,,,,,,,,,,,,,,,
,,,,,,,,,,,,,,,811,2022-01-15_15h38.09.410,multiplicationStroop,2021.2.3,Win32,60.11060351,,,,,left,1,0.5168,0,28,28,33,1,2,4,2 | 4,2,1.9756,1.4111,incongruent,left,,,,,,stimulusFile/physical.xlsx,,,,,,,,,,,,,,,,,,,,,,,,,,,,,,,
,,,,,,,,,,,,,,,811,2022-01-15_15h38.09.410,multiplicationStroop,2021.2.3,Win32,60.11060351,,,,,right,0,0.567,0,29,29,71,1,9,9,9 | 9,0,1.4111,1.9756,neutral,left,,,,,,stimulusFile/physical.xlsx,,,,,,,,,,,,,,,,,,,,,,,,,,,,,,,
,,,,,,,,,,,,,,,811,2022-01-15_15h38.09.410,multiplicationStroop,2021.2.3,Win32,60.11060351,,,,,right,1,0.6431,0,30,30,18,1,3,8,3 | 8,5,1.4111,1.9756,congruent,right,,,,,,stimulusFile/physical.xlsx,,,,,,,,,,,,,,,,,,,,,,,,,,,,,,,
,,,,,,,,,,,,,,,811,2022-01-15_15h38.09.410,multiplicationStroop,2021.2.3,Win32,60.11060351,,,,,left,1,0.5834,0,31,31,42,1,3,8,3 | 8,5,1.9756,1.4111,incongruent,left,,,,,,stimulusFile/physical.xlsx,,,,,,,,,,,,,,,,,,,,,,,,,,,,,,,
,,,,,,,,,,,,,,,811,2022-01-15_15h38.09.410,multiplicationStroop,2021.2.3,Win32,60.11060351,,,,,right,1,0.4926,0,32,32,16,1,1,6,1 | 6,5,1.4111,1.9756,congruent,right,,,,,,stimulusFile/physical.xlsx,,,,,,,,,,,,,,,,,,,,,,,,,,,,,,,
,,,,,,,,,,,,,,,811,2022-01-15_15h38.09.410,multiplicationStroop,2021.2.3,Win32,60.11060351,,,,,right,1,0.5181,0,33,33,37,1,4,2,4 | 2,2,1.4111,1.9756,incongruent,right,,,,,,stimulusFile/physical.xlsx,,,,,,,,,,,,,,,,,,,,,,,,,,,,,,,
,,,,,,,,,,,,,,,811,2022-01-15_15h38.09.410,multiplicationStroop,2021.2.3,Win32,60.11060351,,,,,left,1,0.5003,0,34,34,26,1,6,7,6 | 7,1,1.9756,1.4111,incongruent,left,,,,,,stimulusFile/physical.xlsx,,,,,,,,,,,,,,,,,,,,,,,,,,,,,,,
,,,,,,,,,,,,,,,811,2022-01-15_15h38.09.410,multiplicationStroop,2021.2.3,Win32,60.11060351,,,,,right,1,0.5678,0,35,35,45,1,7,2,7 | 2,5,1.4111,1.9756,incongruent,right,,,,,,stimulusFile/physical.xlsx,,,,,,,,,,,,,,,,,,,,,,,,,,,,,,,
,,,,,,,,,,,,,,,811,2022-01-15_15h38.09.410,multiplicationStroop,2021.2.3,Win32,60.11060351,,,,,left,1,0.5749,0,36,36,25,1,3,4,3 | 4,1,1.9756,1.4111,incongruent,left,,,,,,stimulusFile/physical.xlsx,,,,,,,,,,,,,,,,,,,,,,,,,,,,,,,
,,,,,,,,,,,,,,,811,2022-01-15_15h38.09.410,multiplicationStroop,2021.2.3,Win32,60.11060351,,,,,right,1,0.4779,0,37,37,56,1,1,1,1 | 1,0,1.4111,1.9756,neutral,right,,,,,,stimulusFile/physical.xlsx,,,,,,,,,,,,,,,,,,,,,,,,,,,,,,,
,,,,,,,,,,,,,,,811,2022-01-15_15h38.09.410,multiplicationStroop,2021.2.3,Win32,60.11060351,,,,,right,1,0.9643,0,38,38,62,1,8,8,8 | 8,0,1.4111,1.9756,neutral,right,,,,,,stimulusFile/physical.xlsx,,,,,,,,,,,,,,,,,,,,,,,,,,,,,,,
,,,,,,,,,,,,,,,811,2022-01-15_15h38.09.410,multiplicationStroop,2021.2.3,Win32,60.11060351,,,,,left,1,0.5192,0,39,39,22,1,8,3,8 | 3,5,1.9756,1.4111,congruent,left,,,,,,stimulusFile/physical.xlsx,,,,,,,,,,,,,,,,,,,,,,,,,,,,,,,
,,,,,,,,,,,,,,,811,2022-01-15_15h38.09.410,multiplicationStroop,2021.2.3,Win32,60.11060351,,,,,right,1,0.4349,0,40,40,17,1,2,7,2 | 7,5,1.4111,1.9756,congruent,right,,,,,,stimulusFile/physical.xlsx,,,,,,,,,,,,,,,,,,,,,,,,,,,,,,,
,,,,,,,,,,,,,,,811,2022-01-15_15h38.09.410,multiplicationStroop,2021.2.3,Win32,60.11060351,,,,,left,1,0.506,0,41,41,13,1,4,2,4 | 2,2,1.9756,1.4111,congruent,left,,,,,,stimulusFile/physical.xlsx,,,,,,,,,,,,,,,,,,,,,,,,,,,,,,,
,,,,,,,,,,,,,,,811,2022-01-15_15h38.09.410,multiplicationStroop,2021.2.3,Win32,60.11060351,,,,,right,1,0.5506,0,42,42,28,1,2,1,2 | 1,1,1.4111,1.9756,incongruent,right,,,,,,stimulusFile/physical.xlsx,,,,,,,,,,,,,,,,,,,,,,,,,,,,,,,
,,,,,,,,,,,,,,,811,2022-01-15_15h38.09.410,multiplicationStroop,2021.2.3,Win32,60.11060351,,,,,right,1,0.5887,0,43,43,59,1,7,7,7 | 7,0,1.4111,1.9756,neutral,right,,,,,,stimulusFile/physical.xlsx,,,,,,,,,,,,,,,,,,,,,,,,,,,,,,,
,,,,,,,,,,,,,,,811,2022-01-15_15h38.09.410,multiplicationStroop,2021.2.3,Win32,60.11060351,,,,,left,1,0.7924,0,44,44,41,1,2,7,2 | 7,5,1.9756,1.4111,incongruent,left,,,,,,stimulusFile/physical.xlsx,,,,,,,,,,,,,,,,,,,,,,,,,,,,,,,
,,,,,,,,,,,,,,,811,2022-01-15_15h38.09.410,multiplicationStroop,2021.2.3,Win32,60.11060351,,,,,left,1,0.5654,0,45,45,50,1,6,6,6 | 6,0,1.9756,1.4111,neutral,left,,,,,,stimulusFile/physical.xlsx,,,,,,,,,,,,,,,,,,,,,,,,,,,,,,,
,,,,,,,,,,,,,,,811,2022-01-15_15h38.09.410,multiplicationStroop,2021.2.3,Win32,60.11060351,,,,,right,1,0.4516,0,46,46,1,1,3,4,3 | 4,1,1.4111,1.9756,congruent,right,,,,,,stimulusFile/physical.xlsx,,,,,,,,,,,,,,,,,,,,,,,,,,,,,,,
,,,,,,,,,,,,,,,811,2022-01-15_15h38.09.410,multiplicationStroop,2021.2.3,Win32,60.11060351,,,,,right,1,0.4802,0,47,47,61,1,4,4,4 | 4,0,1.4111,1.9756,neutral,right,,,,,,stimulusFile/physical.xlsx,,,,,,,,,,,,,,,,,,,,,,,,,,,,,,,
,,,,,,,,,,,,,,,811,2022-01-15_15h38.09.410,multiplicationStroop,2021.2.3,Win32,60.11060351,,,,,left,1,0.506,0,48,48,51,1,8,8,8 | 8,0,1.9756,1.4111,neutral,left,,,,,,stimulusFile/physical.xlsx,,,,,,,,,,,,,,,,,,,,,,,,,,,,,,,
,,,,,,,,,,,,,,,811,2022-01-15_15h38.09.410,multiplicationStroop,2021.2.3,Win32,60.11060351,,,,,left,1,0.4777,0,49,49,35,1,7,9,7 | 9,2,1.9756,1.4111,incongruent,left,,,,,,stimulusFile/physical.xlsx,,,,,,,,,,,,,,,,,,,,,,,,,,,,,,,
,,,,,,,,,,,,,,,811,2022-01-15_15h38.09.410,multiplicationStroop,2021.2.3,Win32,60.11060351,,,,,left,0,0.4267,0,50,50,64,1,1,1,1 | 1,0,1.9756,1.4111,neutral,right,,,,,,stimulusFile/physical.xlsx,,,,,,,,,,,,,,,,,,,,,,,,,,,,,,,
,,,,,,,,,,,,,,,811,2022-01-15_15h38.09.410,multiplicationStroop,2021.2.3,Win32,60.11060351,,,,,left,1,0.5592,0,51,51,6,1,7,6,7 | 6,1,1.9756,1.4111,congruent,left,,,,,,stimulusFile/physical.xlsx,,,,,,,,,,,,,,,,,,,,,,,,,,,,,,,
,,,,,,,,,,,,,,,811,2022-01-15_15h38.09.410,multiplicationStroop,2021.2.3,Win32,60.11060351,,,,,right,1,0.4465,0,52,52,58,1,6,6,6 | 6,0,1.4111,1.9756,neutral,right,,,,,,stimulusFile/physical.xlsx,,,,,,,,,,,,,,,,,,,,,,,,,,,,,,,
,,,,,,,,,,,,,,,811,2022-01-15_15h38.09.410,multiplicationStroop,2021.2.3,Win32,60.11060351,,,,,right,1,0.4745,0,53,53,60,1,3,3,3 | 3,0,1.4111,1.9756,neutral,right,,,,,,stimulusFile/physical.xlsx,,,,,,,,,,,,,,,,,,,,,,,,,,,,,,,
,,,,,,,,,,,,,,,811,2022-01-15_15h38.09.410,multiplicationStroop,2021.2.3,Win32,60.11060351,,,,,left,1,0.4495,0,54,54,7,1,9,8,9 | 8,1,1.9756,1.4111,congruent,left,,,,,,stimulusFile/physical.xlsx,,,,,,,,,,,,,,,,,,,,,,,,,,,,,,,
,,,,,,,,,,,,,,,811,2022-01-15_15h38.09.410,multiplicationStroop,2021.2.3,Win32,60.11060351,,,,,left,1,0.6218,0,55,55,14,1,8,6,8 | 6,2,1.9756,1.4111,congruent,left,,,,,,stimulusFile/physical.xlsx,,,,,,,,,,,,,,,,,,,,,,,,,,,,,,,
,,,,,,,,,,,,,,,811,2022-01-15_15h38.09.410,multiplicationStroop,2021.2.3,Win32,60.11060351,,,,,right,1,0.5307,0,56,56,9,1,2,4,2 | 4,2,1.4111,1.9756,congruent,right,,,,,,stimulusFile/physical.xlsx,,,,,,,,,,,,,,,,,,,,,,,,,,,,,,,
,,,,,,,,,,,,,,,811,2022-01-15_15h38.09.410,multiplicationStroop,2021.2.3,Win32,60.11060351,,,,,left,1,0.4379,0,57,57,43,1,4,9,4 | 9,5,1.9756,1.4111,incongruent,left,,,,,,stimulusFile/physical.xlsx,,,,,,,,,,,,,,,,,,,,,,,,,,,,,,,
,,,,,,,,,,,,,,,811,2022-01-15_15h38.09.410,multiplicationStroop,2021.2.3,Win32,60.11060351,,,,,right,1,0.6982,0,58,58,46,1,8,3,8 | 3,5,1.4111,1.9756,incongruent,right,,,,,,stimulusFile/physical.xlsx,,,,,,,,,,,,,,,,,,,,,,,,,,,,,,,
,,,,,,,,,,,,,,,811,2022-01-15_15h38.09.410,multiplicationStroop,2021.2.3,Win32,60.11060351,,,,,right,1,0.5418,0,59,59,65,1,2,2,2 | 2,0,1.4111,1.9756,neutral,right,,,,,,stimulusFile/physical.xlsx,,,,,,,,,,,,,,,,,,,,,,,,,,,,,,,
,,,,,,,,,,,,,,,811,2022-01-15_15h38.09.410,multiplicationStroop,2021.2.3,Win32,60.11060351,,,,,right,1,0.6184,0,60,60,30,1,7,6,7 | 6,1,1.4111,1.9756,incongruent,right,,,,,,stimulusFile/physical.xlsx,,,,,,,,,,,,,,,,,,,,,,,,,,,,,,,
,,,,,,,,,,,,,,,811,2022-01-15_15h38.09.410,multiplicationStroop,2021.2.3,Win32,60.11060351,,,,,left,1,0.5174,0,61,61,48,1,1,1,1 | 1,0,1.9756,1.4111,neutral,left,,,,,,stimulusFile/physical.xlsx,,,,,,,,,,,,,,,,,,,,,,,,,,,,,,,
,,,,,,,,,,,,,,,811,2022-01-15_15h38.09.410,multiplicationStroop,2021.2.3,Win32,60.11060351,,,,,left,1,0.5256,0,62,62,49,1,3,3,3 | 3,0,1.9756,1.4111,neutral,left,,,,,,stimulusFile/physical.xlsx,,,,,,,,,,,,,,,,,,,,,,,,,,,,,,,
,,,,,,,,,,,,,,,811,2022-01-15_15h38.09.410,multiplicationStroop,2021.2.3,Win32,60.11060351,,,,,right,1,0.5699,0,63,63,38,1,8,6,8 | 6,2,1.4111,1.9756,incongruent,right,,,,,,stimulusFile/physical.xlsx,,,,,,,,,,,,,,,,,,,,,,,,,,,,,,,
,,,,,,,,,,,,,,,811,2022-01-15_15h38.09.410,multiplicationStroop,2021.2.3,Win32,60.11060351,,,,,right,1,1.3567,0,64,64,47,1,9,4,9 | 4,5,1.4111,1.9756,incongruent,right,,,,,,stimulusFile/physical.xlsx,,,,,,,,,,,,,,,,,,,,,,,,,,,,,,,
,,,,,,,,,,,,,,,811,2022-01-15_15h38.09.410,multiplicationStroop,2021.2.3,Win32,60.11060351,,,,,left,1,0.8376,0,65,65,5,1,4,3,4 | 3,1,1.9756,1.4111,congruent,left,,,,,,stimulusFile/physical.xlsx,,,,,,,,,,,,,,,,,,,,,,,,,,,,,,,
,,,,,,,,,,,,,,,811,2022-01-15_15h38.09.410,multiplicationStroop,2021.2.3,Win32,60.11060351,,,,,right,1,0.5132,0,66,66,8,1,1,3,1 | 3,2,1.4111,1.9756,congruent,right,,,,,,stimulusFile/physical.xlsx,,,,,,,,,,,,,,,,,,,,,,,,,,,,,,,
,,,,,,,,,,,,,,,811,2022-01-15_15h38.09.410,multiplicationStroop,2021.2.3,Win32,60.11060351,,,,,right,1,0.5303,0,67,67,19,1,4,9,4 | 9,5,1.4111,1.9756,congruent,right,,,,,,stimulusFile/physical.xlsx,,,,,,,,,,,,,,,,,,,,,,,,,,,,,,,
,,,,,,,,,,,,,,,811,2022-01-15_15h38.09.410,multiplicationStroop,2021.2.3,Win32,60.11060351,,,,,left,1,0.5161,0,68,68,23,1,9,4,9 | 4,5,1.9756,1.4111,congruent,left,,,,,,stimulusFile/physical.xlsx,,,,,,,,,,,,,,,,,,,,,,,,,,,,,,,
,,,,,,,,,,,,,,,811,2022-01-15_15h38.09.410,multiplicationStroop,2021.2.3,Win32,60.11060351,,,,,right,1,0.5808,0,69,69,39,1,9,7,9 | 7,2,1.4111,1.9756,incongruent,right,,,,,,stimulusFile/physical.xlsx,,,,,,,,,,,,,,,,,,,,,,,,,,,,,,,
,,,,,,,,,,,,,,,811,2022-01-15_15h38.09.410,multiplicationStroop,2021.2.3,Win32,60.11060351,,,,,right,1,0.6498,0,70,70,29,1,4,3,4 | 3,1,1.4111,1.9756,incongruent,right,,,,,,stimulusFile/physical.xlsx,,,,,,,,,,,,,,,,,,,,,,,,,,,,,,,
,,,,,,,,,,,,,,,811,2022-01-15_15h38.09.410,multiplicationStroop,2021.2.3,Win32,60.11060351,,,,,right,1,0.6042,0,71,71,2,1,6,7,6 | 7,1,1.4111,1.9756,congruent,right,,,,,,stimulusFile/physical.xlsx,,,,,,,,,,,,,,,,,,,,,,,,,,,,,,,
,,,,,,,,,,,,,,,811,2022-01-15_15h38.09.410,multiplicationStroop,2021.2.3,Win32,60.11060351,,,,,,,,,,,,,,,,,,,,,0,0,0,1,1,stimulusFile/physical.xlsx,PHYSICALLY larger (larger font size).,images/physicallyLarger.png,,,,,,,,,,,,,,,,,,,,,,,,,,,,,
,,,,,,,,,,,,,,,811,2022-01-15_15h38.09.410,multiplicationStroop,2021.2.3,Win32,60.11060351,space,3.7595,space,5.4603,right,1,0.5074,0,0,0,18,1,3,8,3 | 8,5,1.4111,1.9756,congruent,right,,,,,,stimulusFile/magnitude.xlsx,,,,,,,,,,,,,,,,,,,,,,,,,,,,,,,
,,,,,,,,,,,,,,,811,2022-01-15_15h38.09.410,multiplicationStroop,2021.2.3,Win32,60.11060351,,,,,left,1,0.5085,0,1,1,70,1,8,3,8 | 3,5,1.6933,1.6933,neutral,left,,,,,,stimulusFile/magnitude.xlsx,,,,,,,,,,,,,,,,,,,,,,,,,,,,,,,
,,,,,,,,,,,,,,,811,2022-01-15_15h38.09.410,multiplicationStroop,2021.2.3,Win32,60.11060351,,,,,left,1,0.8049,0,2,2,44,1,6,1,6 | 1,5,1.4111,1.9756,incongruent,left,,,,,,stimulusFile/magnitude.xlsx,,,,,,,,,,,,,,,,,,,,,,,,,,,,,,,
,,,,,,,,,,,,,,,811,2022-01-15_15h38.09.410,multiplicationStroop,2021.2.3,Win32,60.11060351,,,,,left,1,1.2338,0,3,3,29,1,4,3,4 | 3,1,1.4111,1.9756,incongruent,left,,,,,,stimulusFile/magnitude.xlsx,,,,,,,,,,,,,,,,,,,,,,,,,,,,,,,
,,,,,,,,,,,,,,,811,2022-01-15_15h38.09.410,multiplicationStroop,2021.2.3,Win32,60.11060351,,,,,right,1,0.929,0,4,4,27,1,8,9,8 | 9,1,1.9756,1.4111,incongruent,right,,,,,,stimulusFile/magnitude.xlsx,,,,,,,,,,,,,,,,,,,,,,,,,,,,,,,
,,,,,,,,,,,,,,,811,2022-01-15_15h38.09.410,multiplicationStroop,2021.2.3,Win32,60.11060351,,,,,left,1,0.7453,0,5,5,12,1,3,1,3 | 1,2,1.9756,1.4111,congruent,left,,,,,,stimulusFile/magnitude.xlsx,,,,,,,,,,,,,,,,,,,,,,,,,,,,,,,
,,,,,,,,,,,,,,,811,2022-01-15_15h38.09.410,multiplicationStroop,2021.2.3,Win32,60.11060351,,,,,right,1,0.6201,0,6,6,32,1,1,3,1 | 3,2,1.9756,1.4111,incongruent,right,,,,,,stimulusFile/magnitude.xlsx,,,,,,,,,,,,,,,,,,,,,,,,,,,,,,,
,,,,,,,,,,,,,,,811,2022-01-15_15h38.09.410,multiplicationStroop,2021.2.3,Win32,60.11060351,,,,,left,1,0.7499,0,7,7,71,1,9,4,9 | 4,5,1.6933,1.6933,neutral,left,,,,,,stimulusFile/magnitude.xlsx,,,,,,,,,,,,,,,,,,,,,,,,,,,,,,,
,,,,,,,,,,,,,,,811,2022-01-15_15h38.09.410,multiplicationStroop,2021.2.3,Win32,60.11060351,,,,,left,1,0.7322,0,8,8,13,1,4,2,4 | 2,2,1.9756,1.4111,congruent,left,,,,,,stimulusFile/magnitude.xlsx,,,,,,,,,,,,,,,,,,,,,,,,,,,,,,,
,,,,,,,,,,,,,,,811,2022-01-15_15h38.09.410,multiplicationStroop,2021.2.3,Win32,60.11060351,,,,,left,1,0.54,0,9,9,21,1,7,2,7 | 2,5,1.9756,1.4111,congruent,left,,,,,,stimulusFile/magnitude.xlsx,,,,,,,,,,,,,,,,,,,,,,,,,,,,,,,
,,,,,,,,,,,,,,,811,2022-01-15_15h38.09.410,multiplicationStroop,2021.2.3,Win32,60.11060351,,,,,right,1,0.7486,0,10,10,48,1,1,2,1 | 2,1,1.6933,1.6933,neutral,right,,,,,,stimulusFile/magnitude.xlsx,,,,,,,,,,,,,,,,,,,,,,,,,,,,,,,
,,,,,,,,,,,,,,,811,2022-01-15_15h38.09.410,multiplicationStroop,2021.2.3,Win32,60.11060351,,,,,right,1,0.6675,0,11,11,57,1,2,4,2 | 4,2,1.6933,1.6933,neutral,right,,,,,,stimulusFile/magnitude.xlsx,,,,,,,,,,,,,,,,,,,,,,,,,,,,,,,
,,,,,,,,,,,,,,,811,2022-01-15_15h38.09.410,multiplicationStroop,2021.2.3,Win32,60.11060351,,,,,left,1,0.5608,0,12,12,20,1,6,1,6 | 1,5,1.9756,1.4111,congruent,left,,,,,,stimulusFile/magnitude.xlsx,,,,,,,,,,,,,,,,,,,,,,,,,,,,,,,
,,,,,,,,,,,,,,,811,2022-01-15_15h38.09.410,multiplicationStroop,2021.2.3,Win32,60.11060351,,,,,right,1,0.722,0,13,13,25,1,3,4,3 | 4,1,1.9756,1.4111,incongruent,right,,,,,,stimulusFile/magnitude.xlsx,,,,,,,,,,,,,,,,,,,,,,,,,,,,,,,
,,,,,,,,,,,,,,,811,2022-01-15_15h38.09.410,multiplicationStroop,2021.2.3,Win32,60.11060351,,,,,right,1,0.8646,0,14,14,35,1,7,9,7 | 9,2,1.9756,1.4111,incongruent,right,,,,,,stimulusFile/magnitude.xlsx,,,,,,,,,,,,,,,,,,,,,,,,,,,,,,,
,,,,,,,,,,,,,,,811,2022-01-15_15h38.09.410,multiplicationStroop,2021.2.3,Win32,60.11060351,,,,,right,1,0.7686,0,15,15,9,1,2,4,2 | 4,2,1.4111,1.9756,congruent,right,,,,,,stimulusFile/magnitude.xlsx,,,,,,,,,,,,,,,,,,,,,,,,,,,,,,,
,,,,,,,,,,,,,,,811,2022-01-15_15h38.09.410,multiplicationStroop,2021.2.3,Win32,60.11060351,,,,,left,1,0.6295,0,16,16,36,1,3,1,3 | 1,2,1.4111,1.9756,incongruent,left,,,,,,stimulusFile/magnitude.xlsx,,,,,,,,,,,,,,,,,,,,,,,,,,,,,,,
,,,,,,,,,,,,,,,811,2022-01-15_15h38.09.410,multiplicationStroop,2021.2.3,Win32,60.11060351,,,,,left,1,0.7478,0,17,17,61,1,4,2,4 | 2,2,1.6933,1.6933,neutral,left,,,,,,stimulusFile/magnitude.xlsx,,,,,,,,,,,,,,,,,,,,,,,,,,,,,,,
,,,,,,,,,,,,,,,811,2022-01-15_15h38.09.410,multiplicationStroop,2021.2.3,Win32,60.11060351,,,,,right,1,0.884,0,18,18,3,1,8,9,8 | 9,1,1.4111,1.9756,congruent,right,,,,,,stimulusFile/magnitude.xlsx,,,,,,,,,,,,,,,,,,,,,,,,,,,,,,,
,,,,,,,,,,,,,,,811,2022-01-15_15h38.09.410,multiplicationStroop,2021.2.3,Win32,60.11060351,,,,,left,1,0.9572,0,19,19,5,1,4,3,4 | 3,1,1.9756,1.4111,congruent,left,,,,,,stimulusFile/magnitude.xlsx,,,,,,,,,,,,,,,,,,,,,,,,,,,,,,,
,,,,,,,,,,,,,,,811,2022-01-15_15h38.09.410,multiplicationStroop,2021.2.3,Win32,60.11060351,,,,,left,1,0.6504,0,20,20,45,1,7,2,7 | 2,5,1.4111,1.9756,incongruent,left,,,,,,stimulusFile/magnitude.xlsx,,,,,,,,,,,,,,,,,,,,,,,,,,,,,,,
,,,,,,,,,,,,,,,811,2022-01-15_15h38.09.410,multiplicationStroop,2021.2.3,Win32,60.11060351,,,,,left,1,0.7214,0,21,21,55,1,9,8,9 | 8,1,1.6933,1.6933,neutral,left,,,,,,stimulusFile/magnitude.xlsx,,,,,,,,,,,,,,,,,,,,,,,,,,,,,,,
,,,,,,,,,,,,,,,811,2022-01-15_15h38.09.410,multiplicationStroop,2021.2.3,Win32,60.11060351,,,,,right,1,0.5691,0,22,22,50,1,6,7,6 | 7,1,1.6933,1.6933,neutral,right,,,,,,stimulusFile/magnitude.xlsx,,,,,,,,,,,,,,,,,,,,,,,,,,,,,,,
,,,,,,,,,,,,,,,811,2022-01-15_15h38.09.410,multiplicationStroop,2021.2.3,Win32,60.11060351,,,,,left,1,0.5613,0,23,23,23,1,9,4,9 | 4,5,1.9756,1.4111,congruent,left,,,,,,stimulusFile/magnitude.xlsx,,,,,,,,,,,,,,,,,,,,,,,,,,,,,,,
,,,,,,,,,,,,,,,811,2022-01-15_15h38.09.410,multiplicationStroop,2021.2.3,Win32,60.11060351,,,,,left,1,0.8664,0,24,24,53,1,4,3,4 | 3,1,1.6933,1.6933,neutral,left,,,,,,stimulusFile/magnitude.xlsx,,,,,,,,,,,,,,,,,,,,,,,,,,,,,,,
,,,,,,,,,,,,,,,811,2022-01-15_15h38.09.410,multiplicationStroop,2021.2.3,Win32,60.11060351,,,,,left,1,0.794,0,25,25,31,1,9,8,9 | 8,1,1.4111,1.9756,incongruent,left,,,,,,stimulusFile/magnitude.xlsx,,,,,,,,,,,,,,,,,,,,,,,,,,,,,,,
,,,,,,,,,,,,,,,811,2022-01-15_15h38.09.410,multiplicationStroop,2021.2.3,Win32,60.11060351,,,,,right,1,0.6166,0,26,26,51,1,8,9,8 | 9,1,1.6933,1.6933,neutral,right,,,,,,stimulusFile/magnitude.xlsx,,,,,,,,,,,,,,,,,,,,,,,,,,,,,,,
,,,,,,,,,,,,,,,811,2022-01-15_15h38.09.410,multiplicationStroop,2021.2.3,Win32,60.11060351,,,,,left,1,0.8005,0,27,27,38,1,8,6,8 | 6,2,1.4111,1.9756,incongruent,left,,,,,,stimulusFile/magnitude.xlsx,,,,,,,,,,,,,,,,,,,,,,,,,,,,,,,
,,,,,,,,,,,,,,,811,2022-01-15_15h38.09.410,multiplicationStroop,2021.2.3,Win32,60.11060351,,,,,right,1,0.7246,0,28,28,2,1,6,7,6 | 7,1,1.4111,1.9756,congruent,right,,,,,,stimulusFile/magnitude.xlsx,,,,,,,,,,,,,,,,,,,,,,,,,,,,,,,
,,,,,,,,,,,,,,,811,2022-01-15_15h38.09.410,multiplicationStroop,2021.2.3,Win32,60.11060351,,,,,right,1,0.6453,0,29,29,43,1,4,9,4 | 9,5,1.9756,1.4111,incongruent,right,,,,,,stimulusFile/magnitude.xlsx,,,,,,,,,,,,,,,,,,,,,,,,,,,,,,,
,,,,,,,,,,,,,,,811,2022-01-15_15h38.09.410,multiplicationStroop,2021.2.3,Win32,60.11060351,,,,,right,1,0.5583,0,30,30,41,1,2,7,2 | 7,5,1.9756,1.4111,incongruent,right,,,,,,stimulusFile/magnitude.xlsx,,,,,,,,,,,,,,,,,,,,,,,,,,,,,,,
,,,,,,,,,,,,,,,811,2022-01-15_15h38.09.410,multiplicationStroop,2021.2.3,Win32,60.11060351,,,,,left,1,0.8659,0,31,31,39,1,9,7,9 | 7,2,1.4111,1.9756,incongruent,left,,,,,,stimulusFile/magnitude.xlsx,,,,,,,,,,,,,,,,,,,,,,,,,,,,,,,
,,,,,,,,,,,,,,,811,2022-01-15_15h38.09.410,multiplicationStroop,2021.2.3,Win32,60.11060351,,,,,right,1,1.2505,0,32,32,0,1,1,2,1 | 2,1,1.4111,1.9756,congruent,right,,,,,,stimulusFile/magnitude.xlsx,,,,,,,,,,,,,,,,,,,,,,,,,,,,,,,
,,,,,,,,,,,,,,,811,2022-01-15_15h38.09.410,multiplicationStroop,2021.2.3,Win32,60.11060351,,,,,left,1,0.9335,0,33,33,52,1,2,1,2 | 1,1,1.6933,1.6933,neutral,left,,,,,,stimulusFile/magnitude.xlsx,,,,,,,,,,,,,,,,,,,,,,,,,,,,,,,
,,,,,,,,,,,,,,,811,2022-01-15_15h38.09.410,multiplicationStroop,2021.2.3,Win32,60.11060351,,,,,right,1,0.8447,0,34,34,65,1,2,7,2 | 7,5,1.6933,1.6933,neutral,right,,,,,,stimulusFile/magnitude.xlsx,,,,,,,,,,,,,,,,,,,,,,,,,,,,,,,
,,,,,,,,,,,,,,,811,2022-01-15_15h38.09.410,multiplicationStroop,2021.2.3,Win32,60.11060351,,,,,right,1,0.723,0,35,35,11,1,7,9,7 | 9,2,1.4111,1.9756,congruent,right,,,,,,stimulusFile/magnitude.xlsx,,,,,,,,,,,,,,,,,,,,,,,,,,,,,,,
,,,,,,,,,,,,,,,811,2022-01-15_15h38.09.410,multiplicationStroop,2021.2.3,Win32,60.11060351,,,,,right,1,0.9158,0,36,36,16,1,1,6,1 | 6,5,1.4111,1.9756,congruent,right,,,,,,stimulusFile/magnitude.xlsx,,,,,,,,,,,,,,,,,,,,,,,,,,,,,,,
,,,,,,,,,,,,,,,811,2022-01-15_15h38.09.410,multiplicationStroop,2021.2.3,Win32,60.11060351,,,,,left,1,0.5653,0,37,37,46,1,8,3,8 | 3,5,1.4111,1.9756,incongruent,left,,,,,,stimulusFile/magnitude.xlsx,,,,,,,,,,,,,,,,,,,,,,,,,,,,,,,
,,,,,,,,,,,,,,,811,2022-01-15_15h38.09.410,multiplicationStroop,2021.2.3,Win32,60.11060351,,,,,right,1,0.5567,0,38,38,42,1,3,8,3 | 8,5,1.9756,1.4111,incongruent,right,,,,,,stimulusFile/magnitude.xlsx,,,,,,,,,,,,,,,,,,,,,,,,,,,,,,,
,,,,,,,,,,,,,,,811,2022-01-15_15h38.09.410,multiplicationStroop,2021.2.3,Win32,60.11060351,,,,,right,1,0.8265,0,39,39,1,1,3,4,3 | 4,1,1.4111,1.9756,congruent,right,,,,,,stimulusFile/magnitude.xlsx,,,,,,,,,,,,,,,,,,,,,,,,,,,,,,,
,,,,,,,,,,,,,,,811,2022-01-15_15h38.09.410,multiplicationStroop,2021.2.3,Win32,60.11060351,,,,,right,1,0.6883,0,40,40,58,1,6,8,6 | 8,2,1.6933,1.6933,neutral,right,,,,,,stimulusFile/magnitude.xlsx,,,,,,,,,,,,,,,,,,,,,,,,,,,,,,,
,,,,,,,,,,,,,,,811,2022-01-15_15h38.09.410,multiplicationStroop,2021.2.3,Win32,60.11060351,,,,,right,1,0.6657,0,41,41,24,1,1,2,1 | 2,1,1.9756,1.4111,incongruent,right,,,,,,stimulusFile/magnitude.xlsx,,,,,,,,,,,,,,,,,,,,,,,,,,,,,,,
,,,,,,,,,,,,,,,811,2022-01-15_15h38.09.410,multiplicationStroop,2021.2.3,Win32,60.11060351,,,,,left,1,0.6173,0,42,42,4,1,2,1,2 | 1,1,1.9756,1.4111,congruent,left,,,,,,stimulusFile/magnitude.xlsx,,,,,,,,,,,,,,,,,,,,,,,,,,,,,,,
,,,,,,,,,,,,,,,811,2022-01-15_15h38.09.410,multiplicationStroop,2021.2.3,Win32,60.11060351,,,,,right,1,0.7793,0,43,43,17,1,2,7,2 | 7,5,1.4111,1.9756,congruent,right,,,,,,stimulusFile/magnitude.xlsx,,,,,,,,,,,,,,,,,,,,,,,,,,,,,,,
,,,,,,,,,,,,,,,811,2022-01-15_15h38.09.410,multiplicationStroop,2021.2.3,Win32,60.11060351,,,,,left,1,0.7424,0,44,44,6,1,7,6,7 | 6,1,1.9756,1.4111,congruent,left,,,,,,stimulusFile/magnitude.xlsx,,,,,,,,,,,,,,,,,,,,,,,,,,,,,,,
,,,,,,,,,,,,,,,811,2022-01-15_15h38.09.410,multiplicationStroop,2021.2.3,Win32,60.11060351,,,,,right,1,0.7454,0,45,45,8,1,1,3,1 | 3,2,1.4111,1.9756,congruent,right,,,,,,stimulusFile/magnitude.xlsx,,,,,,,,,,,,,,,,,,,,,,,,,,,,,,,
,,,,,,,,,,,,,,,811,2022-01-15_15h38.09.410,multiplicationStroop,2021.2.3,Win32,60.11060351,,,,,left,1,0.6851,0,46,46,7,1,9,8,9 | 8,1,1.9756,1.4111,congruent,left,,,,,,stimulusFile/magnitude.xlsx,,,,,,,,,,,,,,,,,,,,,,,,,,,,,,,
,,,,,,,,,,,,,,,811,2022-01-15_15h38.09.410,multiplicationStroop,2021.2.3,Win32,60.11060351,,,,,right,1,0.6616,0,47,47,10,1,6,8,6 | 8,2,1.4111,1.9756,congruent,right,,,,,,stimulusFile/magnitude.xlsx,,,,,,,,,,,,,,,,,,,,,,,,,,,,,,,
,,,,,,,,,,,,,,,811,2022-01-15_15h38.09.410,multiplicationStroop,2021.2.3,Win32,60.11060351,,,,,left,1,0.6556,0,48,48,14,1,8,6,8 | 6,2,1.9756,1.4111,congruent,left,,,,,,stimulusFile/magnitude.xlsx,,,,,,,,,,,,,,,,,,,,,,,,,,,,,,,
,,,,,,,,,,,,,,,811,2022-01-15_15h38.09.410,multiplicationStroop,2021.2.3,Win32,60.11060351,,,,,right,1,0.8239,0,49,49,26,1,6,7,6 | 7,1,1.9756,1.4111,incongruent,right,,,,,,stimulusFile/magnitude.xlsx,,,,,,,,,,,,,,,,,,,,,,,,,,,,,,,
,,,,,,,,,,,,,,,811,2022-01-15_15h38.09.410,multiplicationStroop,2021.2.3,Win32,60.11060351,,,,,right,1,0.9634,0,50,50,33,1,2,4,2 | 4,2,1.9756,1.4111,incongruent,right,,,,,,stimulusFile/magnitude.xlsx,,,,,,,,,,,,,,,,,,,,,,,,,,,,,,,
,,,,,,,,,,,,,,,811,2022-01-15_15h38.09.410,multiplicationStroop,2021.2.3,Win32,60.11060351,,,,,right,1,0.5602,0,51,51,64,1,1,6,1 | 6,5,1.6933,1.6933,neutral,right,,,,,,stimulusFile/magnitude.xlsx,,,,,,,,,,,,,,,,,,,,,,,,,,,,,,,
,,,,,,,,,,,,,,,811,2022-01-15_15h38.09.410,multiplicationStroop,2021.2.3,Win32,60.11060351,,,,,right,1,0.7146,0,52,52,34,1,6,8,6 | 8,2,1.9756,1.4111,incongruent,right,,,,,,stimulusFile/magnitude.xlsx,,,,,,,,,,,,,,,,,,,,,,,,,,,,,,,
,,,,,,,,,,,,,,,811,2022-01-15_15h38.09.410,multiplicationStroop,2021.2.3,Win32,60.11060351,,,,,left,1,0.6501,0,53,53,15,1,9,7,9 | 7,2,1.9756,1.4111,congruent,left,,,,,,stimulusFile/magnitude.xlsx,,,,,,,,,,,,,,,,,,,,,,,,,,,,,,,
,,,,,,,,,,,,,,,811,2022-01-15_15h38.09.410,multiplicationStroop,2021.2.3,Win32,60.11060351,,,,,left,1,0.7048,0,54,54,37,1,4,2,4 | 2,2,1.4111,1.9756,incongruent,left,,,,,,stimulusFile/magnitude.xlsx,,,,,,,,,,,,,,,,,,,,,,,,,,,,,,,
,,,,,,,,,,,,,,,811,2022-01-15_15h38.09.410,multiplicationStroop,2021.2.3,Win32,60.11060351,,,,,left,1,0.6323,0,55,55,68,1,6,1,6 | 1,5,1.6933,1.6933,neutral,left,,,,,,stimulusFile/magnitude.xlsx,,,,,,,,,,,,,,,,,,,,,,,,,,,,,,,
,,,,,,,,,,,,,,,811,2022-01-15_15h38.09.410,multiplicationStroop,2021.2.3,Win32,60.11060351,,,,,left,1,0.6834,0,56,56,54,1,7,6,7 | 6,1,1.6933,1.6933,neutral,left,,,,,,stimulusFile/magnitude.xlsx,,,,,,,,,,,,,,,,,,,,,,,,,,,,,,,
,,,,,,,,,,,,,,,811,2022-01-15_15h38.09.410,multiplicationStroop,2021.2.3,Win32,60.11060351,,,,,left,1,0.7315,0,57,57,63,1,9,7,9 | 7,2,1.6933,1.6933,neutral,left,,,,,,stimulusFile/magnitude.xlsx,,,,,,,,,,,,,,,,,,,,,,,,,,,,,,,
,,,,,,,,,,,,,,,811,2022-01-15_15h38.09.410,multiplicationStroop,2021.2.3,Win32,60.11060351,,,,,left,1,0.4828,0,58,58,47,1,9,4,9 | 4,5,1.4111,1.9756,incongruent,left,,,,,,stimulusFile/magnitude.xlsx,,,,,,,,,,,,,,,,,,,,,,,,,,,,,,,
,,,,,,,,,,,,,,,811,2022-01-15_15h38.09.410,multiplicationStroop,2021.2.3,Win32,60.11060351,,,,,right,1,0.6001,0,59,59,59,1,7,9,7 | 9,2,1.6933,1.6933,neutral,right,,,,,,stimulusFile/magnitude.xlsx,,,,,,,,,,,,,,,,,,,,,,,,,,,,,,,
,,,,,,,,,,,,,,,811,2022-01-15_15h38.09.410,multiplicationStroop,2021.2.3,Win32,60.11060351,,,,,left,1,0.6507,0,60,60,28,1,2,1,2 | 1,1,1.4111,1.9756,incongruent,left,,,,,,stimulusFile/magnitude.xlsx,,,,,,,,,,,,,,,,,,,,,,,,,,,,,,,
,,,,,,,,,,,,,,,811,2022-01-15_15h38.09.410,multiplicationStroop,2021.2.3,Win32,60.11060351,,,,,right,1,0.5854,0,61,61,67,1,4,9,4 | 9,5,1.6933,1.6933,neutral,right,,,,,,stimulusFile/magnitude.xlsx,,,,,,,,,,,,,,,,,,,,,,,,,,,,,,,
,,,,,,,,,,,,,,,811,2022-01-15_15h38.09.410,multiplicationStroop,2021.2.3,Win32,60.11060351,,,,,left,1,0.5339,0,62,62,22,1,8,3,8 | 3,5,1.9756,1.4111,congruent,left,,,,,,stimulusFile/magnitude.xlsx,,,,,,,,,,,,,,,,,,,,,,,,,,,,,,,
,,,,,,,,,,,,,,,811,2022-01-15_15h38.09.410,multiplicationStroop,2021.2.3,Win32,60.11060351,,,,,left,1,0.5304,0,63,63,69,1,7,2,7 | 2,5,1.6933,1.6933,neutral,left,,,,,,stimulusFile/magnitude.xlsx,,,,,,,,,,,,,,,,,,,,,,,,,,,,,,,
,,,,,,,,,,,,,,,811,2022-01-15_15h38.09.410,multiplicationStroop,2021.2.3,Win32,60.11060351,,,,,left,1,0.6141,0,64,64,62,1,8,6,8 | 6,2,1.6933,1.6933,neutral,left,,,,,,stimulusFile/magnitude.xlsx,,,,,,,,,,,,,,,,,,,,,,,,,,,,,,,
,,,,,,,,,,,,,,,811,2022-01-15_15h38.09.410,multiplicationStroop,2021.2.3,Win32,60.11060351,,,,,right,1,0.5427,0,65,65,19,1,4,9,4 | 9,5,1.4111,1.9756,congruent,right,,,,,,stimulusFile/magnitude.xlsx,,,,,,,,,,,,,,,,,,,,,,,,,,,,,,,
,,,,,,,,,,,,,,,811,2022-01-15_15h38.09.410,multiplicationStroop,2021.2.3,Win32,60.11060351,,,,,right,1,0.5757,0,66,66,40,1,1,6,1 | 6,5,1.9756,1.4111,incongruent,right,,,,,,stimulusFile/magnitude.xlsx,,,,,,,,,,,,,,,,,,,,,,,,,,,,,,,
,,,,,,,,,,,,,,,811,2022-01-15_15h38.09.410,multiplicationStroop,2021.2.3,Win32,60.11060351,,,,,right,1,0.6526,0,67,67,56,1,1,3,1 | 3,2,1.6933,1.6933,neutral,right,,,,,,stimulusFile/magnitude.xlsx,,,,,,,,,,,,,,,,,,,,,,,,,,,,,,,
,,,,,,,,,,,,,,,811,2022-01-15_15h38.09.410,multiplicationStroop,2021.2.3,Win32,60.11060351,,,,,left,1,0.5203,0,68,68,60,1,3,1,3 | 1,2,1.6933,1.6933,neutral,left,,,,,,stimulusFile/magnitude.xlsx,,,,,,,,,,,,,,,,,,,,,,,,,,,,,,,
,,,,,,,,,,,,,,,811,2022-01-15_15h38.09.410,multiplicationStroop,2021.2.3,Win32,60.11060351,,,,,right,0,1.0835,0,69,69,30,1,7,6,7 | 6,1,1.4111,1.9756,incongruent,left,,,,,,stimulusFile/magnitude.xlsx,,,,,,,,,,,,,,,,,,,,,,,,,,,,,,,
,,,,,,,,,,,,,,,811,2022-01-15_15h38.09.410,multiplicationStroop,2021.2.3,Win32,60.11060351,,,,,right,1,0.7188,0,70,70,49,1,3,4,3 | 4,1,1.6933,1.6933,neutral,right,,,,,,stimulusFile/magnitude.xlsx,,,,,,,,,,,,,,,,,,,,,,,,,,,,,,,
,,,,,,,,,,,,,,,811,2022-01-15_15h38.09.410,multiplicationStroop,2021.2.3,Win32,60.11060351,,,,,right,1,0.707,0,71,71,66,1,3,8,3 | 8,5,1.6933,1.6933,neutral,right,,,,,,stimulusFile/magnitude.xlsx,,,,,,,,,,,,,,,,,,,,,,,,,,,,,,,
,,,,,,,,,,,,,,,811,2022-01-15_15h38.09.410,multiplicationStroop,2021.2.3,Win32,60.11060351,,,,,,,,,,,,,,,,,,,,,0,1,1,0,1,stimulusFile/magnitude.xlsx,NUMERICALLY larger (larger coefficient).,images/numericallyLarger.png,,,,,,,,,,,,,,,,,,,,,,,,,,,,,
,,,,,,,,,,,,,,,811,2022-01-15_15h38.09.410,multiplicationStroop,2021.2.3,Win32,60.11060351,,,,,,,,,,,,,,,,,,,,,,,,,,,,,space,14.6741,space,3.3023,18,3.8066,1,0,0,0,11,1,3,×,6,3 × 6,congruent,smallerFirst,1,2,18,,,,,,,,
,,,,,,,,,,,,,,,811,2022-01-15_15h38.09.410,multiplicationStroop,2021.2.3,Win32,60.11060351,,,,,,,,,,,,,,,,,,,,,,,,,,,,,,,,,81,4.4838,1,0,1,1,35,1,9,×,9,9 × 9,neutral,tie,2,1,81,,,,,,,,
,,,,,,,,,,,,,,,811,2022-01-15_15h38.09.410,multiplicationStroop,2021.2.3,Win32,60.11060351,,,,,,,,,,,,,,,,,,,,,,,,,,,,,,,,,30,1.9033,1,0,2,2,15,1,6,×,5,6 × 5,congruent,largerFirst,2,1,30,,,,,,,,
,,,,,,,,,,,,,,,811,2022-01-15_15h38.09.410,multiplicationStroop,2021.2.3,Win32,60.11060351,,,,,,,,,,,,,,,,,,,,,,,,,,,,,,,,,28,2.0821,1,0,3,3,27,1,7,×,4,7 × 4,congruent,largerFirst,2,1,28,,,,,,,,
,,,,,,,,,,,,,,,811,2022-01-15_15h38.09.410,multiplicationStroop,2021.2.3,Win32,60.11060351,,,,,,,,,,,,,,,,,,,,,,,,,,,,,,,,,8,1.6486,1,0,4,4,9,1,2,×,4,2 × 4,congruent,smallerFirst,1,2,8,,,,,,,,
,,,,,,,,,,,,,,,811,2022-01-15_15h38.09.410,multiplicationStroop,2021.2.3,Win32,60.11060351,,,,,,,,,,,,,,,,,,,,,,,,,,,,,,,,,18,1.7547,1,0,5,5,22,1,9,×,2,9 × 2,congruent,largerFirst,2,1,18,,,,,,,,
,,,,,,,,,,,,,,,811,2022-01-15_15h38.09.410,multiplicationStroop,2021.2.3,Win32,60.11060351,,,,,,,,,,,,,,,,,,,,,,,,,,,,,,,,,45,1.6638,1,0,6,6,23,1,9,×,5,9 × 5,congruent,largerFirst,2,1,45,,,,,,,,
,,,,,,,,,,,,,,,811,2022-01-15_15h38.09.410,multiplicationStroop,2021.2.3,Win32,60.11060351,,,,,,,,,,,,,,,,,,,,,,,,,,,,,,,,,36,2.4762,0,0,7,7,25,1,6,×,4,6 × 4,congruent,largerFirst,2,1,24,,,,,,,,
,,,,,,,,,,,,,,,811,2022-01-15_15h38.09.410,multiplicationStroop,2021.2.3,Win32,60.11060351,,,,,,,,,,,,,,,,,,,,,,,,,,,,,,,,,12,1.9482,1,0,8,8,2,1,3,×,4,3 × 4,congruent,smallerFirst,1,2,12,,,,,,,,
,,,,,,,,,,,,,,,811,2022-01-15_15h38.09.410,multiplicationStroop,2021.2.3,Win32,60.11060351,,,,,,,,,,,,,,,,,,,,,,,,,,,,,,,,,35,2.3316,1,0,9,9,1,1,5,×,7,5 × 7,congruent,smallerFirst,1,2,35,,,,,,,,
,,,,,,,,,,,,,,,811,2022-01-15_15h38.09.410,multiplicationStroop,2021.2.3,Win32,60.11060351,,,,,,,,,,,,,,,,,,,,,,,,,,,,,,,,,36,2.1824,1,0,10,10,32,1,6,×,6,6 × 6,neutral,tie,2,1,36,,,,,,,,
,,,,,,,,,,,,,,,811,2022-01-15_15h38.09.410,multiplicationStroop,2021.2.3,Win32,60.11060351,,,,,,,,,,,,,,,,,,,,,,,,,,,,,,,,,36,2.1482,1,0,11,11,0,1,4,×,9,4 × 9,congruent,smallerFirst,1,2,36,,,,,,,,
,,,,,,,,,,,,,,,811,2022-01-15_15h38.09.410,multiplicationStroop,2021.2.3,Win32,60.11060351,,,,,,,,,,,,,,,,,,,,,,,,,,,,,,,,,14,2.0381,1,0,12,12,14,1,7,×,2,7 × 2,congruent,largerFirst,2,1,14,,,,,,,,
,,,,,,,,,,,,,,,811,2022-01-15_15h38.09.410,multiplicationStroop,2021.2.3,Win32,60.11060351,,,,,,,,,,,,,,,,,,,,,,,,,,,,,,,,,49,2.5149,1,0,13,13,33,1,7,×,7,7 × 7,neutral,tie,2,1,49,,,,,,,,
,,,,,,,,,,,,,,,811,2022-01-15_15h38.09.410,multiplicationStroop,2021.2.3,Win32,60.11060351,,,,,,,,,,,,,,,,,,,,,,,,,,,,,,,,,54,5.6793,0,0,14,14,3,1,6,×,7,6 × 7,congruent,smallerFirst,1,2,42,,,,,,,,
,,,,,,,,,,,,,,,811,2022-01-15_15h38.09.410,multiplicationStroop,2021.2.3,Win32,60.11060351,,,,,,,,,,,,,,,,,,,,,,,,,,,,,,,,,6,4.1233,1,0,15,15,13,1,2,×,3,2 × 3,congruent,smallerFirst,1,2,6,,,,,,,,
,,,,,,,,,,,,,,,811,2022-01-15_15h38.09.410,multiplicationStroop,2021.2.3,Win32,60.11060351,,,,,,,,,,,,,,,,,,,,,,,,,,,,,,,,,24,2.1356,1,0,16,16,10,1,3,×,8,3 × 8,congruent,smallerFirst,1,2,24,,,,,,,,
,,,,,,,,,,,,,,,811,2022-01-15_15h38.09.410,multiplicationStroop,2021.2.3,Win32,60.11060351,,,,,,,,,,,,,,,,,,,,,,,,,,,,,,,,,72,2.6815,1,0,17,17,17,1,9,×,8,9 × 8,congruent,largerFirst,2,1,72,,,,,,,,
,,,,,,,,,,,,,,,811,2022-01-15_15h38.09.410,multiplicationStroop,2021.2.3,Win32,60.11060351,,,,,,,,,,,,,,,,,,,,,,,,,,,,,,,,,25,4.242,1,0,18,18,31,1,5,×,5,5 × 5,neutral,tie,2,1,25,,,,,,,,
,,,,,,,,,,,,,,,811,2022-01-15_15h38.09.410,multiplicationStroop,2021.2.3,Win32,60.11060351,,,,,,,,,,,,,,,,,,,,,,,,,,,,,,,,,15,1.9182,1,0,19,19,4,1,3,×,5,3 × 5,congruent,smallerFirst,1,2,15,,,,,,,,
,,,,,,,,,,,,,,,811,2022-01-15_15h38.09.410,multiplicationStroop,2021.2.3,Win32,60.11060351,,,,,,,,,,,,,,,,,,,,,,,,,,,,,,,,,54,2.7153,1,0,20,20,12,1,6,×,9,6 × 9,congruent,smallerFirst,1,2,54,,,,,,,,
,,,,,,,,,,,,,,,811,2022-01-15_15h38.09.410,multiplicationStroop,2021.2.3,Win32,60.11060351,,,,,,,,,,,,,,,,,,,,,,,,,,,,,,,,,9,2.7522,1,0,21,21,29,1,3,×,3,3 × 3,neutral,tie,2,1,9,,,,,,,,
,,,,,,,,,,,,,,,811,2022-01-15_15h38.09.410,multiplicationStroop,2021.2.3,Win32,60.11060351,,,,,,,,,,,,,,,,,,,,,,,,,,,,,,,,,10,1.6131,1,0,22,22,24,1,5,×,2,5 × 2,congruent,largerFirst,2,1,10,,,,,,,,
,,,,,,,,,,,,,,,811,2022-01-15_15h38.09.410,multiplicationStroop,2021.2.3,Win32,60.11060351,,,,,,,,,,,,,,,,,,,,,,,,,,,,,,,,,27,3.9982,1,0,23,23,26,1,9,×,3,9 × 3,congruent,largerFirst,2,1,27,,,,,,,,
,,,,,,,,,,,,,,,811,2022-01-15_15h38.09.410,multiplicationStroop,2021.2.3,Win32,60.11060351,,,,,,,,,,,,,,,,,,,,,,,,,,,,,,,,,12,1.9162,1,0,24,24,19,1,6,×,2,6 × 2,congruent,largerFirst,2,1,12,,,,,,,,
,,,,,,,,,,,,,,,811,2022-01-15_15h38.09.410,multiplicationStroop,2021.2.3,Win32,60.11060351,,,,,,,,,,,,,,,,,,,,,,,,,,,,,,,,,56,2.5486,1,0,25,25,8,1,7,×,8,7 × 8,congruent,smallerFirst,1,2,56,,,,,,,,
,,,,,,,,,,,,,,,811,2022-01-15_15h38.09.410,multiplicationStroop,2021.2.3,Win32,60.11060351,,,,,,,,,,,,,,,,,,,,,,,,,,,,,,,,,4,1.4155,1,0,26,26,28,1,2,×,2,2 × 2,neutral,tie,2,1,4,,,,,,,,
,,,,,,,,,,,,,,,811,2022-01-15_15h38.09.410,multiplicationStroop,2021.2.3,Win32,60.11060351,,,,,,,,,,,,,,,,,,,,,,,,,,,,,,,,,63,2.6485,1,0,27,27,21,1,9,×,7,9 × 7,congruent,largerFirst,2,1,63,,,,,,,,
,,,,,,,,,,,,,,,811,2022-01-15_15h38.09.410,multiplicationStroop,2021.2.3,Win32,60.11060351,,,,,,,,,,,,,,,,,,,,,,,,,,,,,,,,,16,1.9157,1,0,28,28,30,1,4,×,4,4 × 4,neutral,tie,2,1,16,,,,,,,,
,,,,,,,,,,,,,,,811,2022-01-15_15h38.09.410,multiplicationStroop,2021.2.3,Win32,60.11060351,,,,,,,,,,,,,,,,,,,,,,,,,,,,,,,,,21,2.0987,1,0,29,29,16,1,7,×,3,7 × 3,congruent,largerFirst,2,1,21,,,,,,,,
,,,,,,,,,,,,,,,811,2022-01-15_15h38.09.410,multiplicationStroop,2021.2.3,Win32,60.11060351,,,,,,,,,,,,,,,,,,,,,,,,,,,,,,,,,48,2.3485,1,0,30,30,18,1,8,×,6,8 × 6,congruent,largerFirst,2,1,48,,,,,,,,
,,,,,,,,,,,,,,,811,2022-01-15_15h38.09.410,multiplicationStroop,2021.2.3,Win32,60.11060351,,,,,,,,,,,,,,,,,,,,,,,,,,,,,,,,,16,2.882,1,0,31,31,5,1,2,×,8,2 × 8,congruent,smallerFirst,1,2,16,,,,,,,,
,,,,,,,,,,,,,,,811,2022-01-15_15h38.09.410,multiplicationStroop,2021.2.3,Win32,60.11060351,,,,,,,,,,,,,,,,,,,,,,,,,,,,,,,,,40,2.1821,1,0,32,32,6,1,5,×,8,5 × 8,congruent,smallerFirst,1,2,40,,,,,,,,
,,,,,,,,,,,,,,,811,2022-01-15_15h38.09.410,multiplicationStroop,2021.2.3,Win32,60.11060351,,,,,,,,,,,,,,,,,,,,,,,,,,,,,,,,,20,2.0905,1,0,33,33,7,1,4,×,5,4 × 5,congruent,smallerFirst,1,2,20,,,,,,,,
,,,,,,,,,,,,,,,811,2022-01-15_15h38.09.410,multiplicationStroop,2021.2.3,Win32,60.11060351,,,,,,,,,,,,,,,,,,,,,,,,,,,,,,,,,64,3.0259,1,0,34,34,34,1,8,×,8,8 × 8,neutral,tie,2,1,64,,,,,,,,
,,,,,,,,,,,,,,,811,2022-01-15_15h38.09.410,multiplicationStroop,2021.2.3,Win32,60.11060351,,,,,,,,,,,,,,,,,,,,,,,,,,,,,,,,,32,2.586,1,0,35,35,20,1,8,×,4,8 × 4,congruent,largerFirst,2,1,32,,,,,,,,
,,,,,,,,,,,,,,,811,2022-01-15_15h38.09.410,multiplicationStroop,2021.2.3,Win32,60.11060351,,,,,,,,,,,,,,,,,,,,,,,,,,,,,,,,,,,,,,,,,,,,,,,,,,0,0,0,2,1,stimulusFile/mult_blk3_congruent.xlsx,,
,,,,,,,,,,,,,,,811,2022-01-15_15h38.09.410,multiplicationStroop,2021.2.3,Win32,60.11060351,,,,,,,,,,,,,,,,,,,,,,,,,,,,,,,space,2.3462,35,1.7107,1,0,0,0,15,1,7,×,5,7 × 5,congruent,largerFirst,2,1,35,,,,,,,,
,,,,,,,,,,,,,,,811,2022-01-15_15h38.09.410,multiplicationStroop,2021.2.3,Win32,60.11060351,,,,,,,,,,,,,,,,,,,,,,,,,,,,,,,,,30,1.9483,1,0,1,1,1,1,5,×,6,5 × 6,congruent,smallerFirst,1,2,30,,,,,,,,
,,,,,,,,,,,,,,,811,2022-01-15_15h38.09.410,multiplicationStroop,2021.2.3,Win32,60.11060351,,,,,,,,,,,,,,,,,,,,,,,,,,,,,,,,,24,1.8362,1,0,2,2,24,1,8,×,3,8 × 3,congruent,largerFirst,2,1,24,,,,,,,,
,,,,,,,,,,,,,,,811,2022-01-15_15h38.09.410,multiplicationStroop,2021.2.3,Win32,60.11060351,,,,,,,,,,,,,,,,,,,,,,,,,,,,,,,,,21,1.9494,1,0,3,3,2,1,3,×,7,3 × 7,congruent,smallerFirst,1,2,21,,,,,,,,
,,,,,,,,,,,,,,,811,2022-01-15_15h38.09.410,multiplicationStroop,2021.2.3,Win32,60.11060351,,,,,,,,,,,,,,,,,,,,,,,,,,,,,,,,,63,3.7488,1,0,4,4,7,1,7,×,9,7 × 9,congruent,smallerFirst,1,2,63,,,,,,,,
,,,,,,,,,,,,,,,811,2022-01-15_15h38.09.410,multiplicationStroop,2021.2.3,Win32,60.11060351,,,,,,,,,,,,,,,,,,,,,,,,,,,,,,,,,18,2.7845,1,0,5,5,8,1,2,×,9,2 × 9,congruent,smallerFirst,1,2,18,,,,,,,,
,,,,,,,,,,,,,,,811,2022-01-15_15h38.09.410,multiplicationStroop,2021.2.3,Win32,60.11060351,,,,,,,,,,,,,,,,,,,,,,,,,,,,,,,,,81,2.4003,1,0,6,6,35,1,9,×,9,9 × 9,neutral,tie,1,2,81,,,,,,,,
,,,,,,,,,,,,,,,811,2022-01-15_15h38.09.410,multiplicationStroop,2021.2.3,Win32,60.11060351,,,,,,,,,,,,,,,,,,,,,,,,,,,,,,,,,72,2.3615,1,0,7,7,3,1,8,×,9,8 × 9,congruent,smallerFirst,1,2,72,,,,,,,,
,,,,,,,,,,,,,,,811,2022-01-15_15h38.09.410,multiplicationStroop,2021.2.3,Win32,60.11060351,,,,,,,,,,,,,,,,,,,,,,,,,,,,,,,,,8,2.4365,1,0,8,8,23,1,4,×,2,4 × 2,congruent,largerFirst,2,1,8,,,,,,,,
,,,,,,,,,,,,,,,811,2022-01-15_15h38.09.410,multiplicationStroop,2021.2.3,Win32,60.11060351,,,,,,,,,,,,,,,,,,,,,,,,,,,,,,,,,40,2.0303,1,0,9,9,20,1,8,×,5,8 × 5,congruent,largerFirst,2,1,40,,,,,,,,
,,,,,,,,,,,,,,,811,2022-01-15_15h38.09.410,multiplicationStroop,2021.2.3,Win32,60.11060351,,,,,,,,,,,,,,,,,,,,,,,,,,,,,,,,,6,1.8658,1,0,10,10,27,1,3,×,2,3 × 2,congruent,largerFirst,2,1,6,,,,,,,,
,,,,,,,,,,,,,,,811,2022-01-15_15h38.09.410,multiplicationStroop,2021.2.3,Win32,60.11060351,,,,,,,,,,,,,,,,,,,,,,,,,,,,,,,,,4,1.4493,1,0,11,11,28,1,2,×,2,2 × 2,neutral,tie,1,2,4,,,,,,,,
,,,,,,,,,,,,,,,811,2022-01-15_15h38.09.410,multiplicationStroop,2021.2.3,Win32,60.11060351,,,,,,,,,,,,,,,,,,,,,,,,,,,,,,,,,16,3.4986,1,0,12,12,19,1,8,×,2,8 × 2,congruent,largerFirst,2,1,16,,,,,,,,
,,,,,,,,,,,,,,,811,2022-01-15_15h38.09.410,multiplicationStroop,2021.2.3,Win32,60.11060351,,,,,,,,,,,,,,,,,,,,,,,,,,,,,,,,,27,3.2495,1,0,13,13,12,1,3,×,9,3 × 9,congruent,smallerFirst,1,2,27,,,,,,,,
,,,,,,,,,,,,,,,811,2022-01-15_15h38.09.410,multiplicationStroop,2021.2.3,Win32,60.11060351,,,,,,,,,,,,,,,,,,,,,,,,,,,,,,,,,15,2.0329,1,0,14,14,18,1,5,×,3,5 × 3,congruent,largerFirst,2,1,15,,,,,,,,
,,,,,,,,,,,,,,,811,2022-01-15_15h38.09.410,multiplicationStroop,2021.2.3,Win32,60.11060351,,,,,,,,,,,,,,,,,,,,,,,,,,,,,,,,,64,1.8654,1,0,15,15,34,1,8,×,8,8 × 8,neutral,tie,1,2,64,,,,,,,,
,,,,,,,,,,,,,,,811,2022-01-15_15h38.09.410,multiplicationStroop,2021.2.3,Win32,60.11060351,,,,,,,,,,,,,,,,,,,,,,,,,,,,,,,,,45,2.048,1,0,16,16,9,1,5,×,9,5 × 9,congruent,smallerFirst,1,2,45,,,,,,,,
,,,,,,,,,,,,,,,811,2022-01-15_15h38.09.410,multiplicationStroop,2021.2.3,Win32,60.11060351,,,,,,,,,,,,,,,,,,,,,,,,,,,,,,,,,18,1.6487,1,0,17,17,25,1,6,×,3,6 × 3,congruent,largerFirst,2,1,18,,,,,,,,
,,,,,,,,,,,,,,,811,2022-01-15_15h38.09.410,multiplicationStroop,2021.2.3,Win32,60.11060351,,,,,,,,,,,,,,,,,,,,,,,,,,,,,,,,,36,1.8155,1,0,18,18,32,1,6,×,6,6 × 6,neutral,tie,1,2,36,,,,,,,,
,,,,,,,,,,,,,,,811,2022-01-15_15h38.09.410,multiplicationStroop,2021.2.3,Win32,60.11060351,,,,,,,,,,,,,,,,,,,,,,,,,,,,,,,,,24,3.5793,1,0,19,19,11,1,4,×,6,4 × 6,congruent,smallerFirst,1,2,24,,,,,,,,
,,,,,,,,,,,,,,,811,2022-01-15_15h38.09.410,multiplicationStroop,2021.2.3,Win32,60.11060351,,,,,,,,,,,,,,,,,,,,,,,,,,,,,,,,,49,2.5127,1,0,20,20,33,1,7,×,7,7 × 7,neutral,tie,1,2,49,,,,,,,,
,,,,,,,,,,,,,,,811,2022-01-15_15h38.09.410,multiplicationStroop,2021.2.3,Win32,60.11060351,,,,,,,,,,,,,,,,,,,,,,,,,,,,,,,,,10,1.602,1,0,21,21,10,1,2,×,5,2 × 5,congruent,smallerFirst,1,2,10,,,,,,,,
,,,,,,,,,,,,,,,811,2022-01-15_15h38.09.410,multiplicationStroop,2021.2.3,Win32,60.11060351,,,,,,,,,,,,,,,,,,,,,,,,,,,,,,,,,16,2.215,1,0,22,22,30,1,4,×,4,4 × 4,neutral,tie,1,2,16,,,,,,,,
,,,,,,,,,,,,,,,811,2022-01-15_15h38.09.410,multiplicationStroop,2021.2.3,Win32,60.11060351,,,,,,,,,,,,,,,,,,,,,,,,,,,,,,,,,56,3.2488,1,0,23,23,22,1,8,×,7,8 × 7,congruent,largerFirst,2,1,56,,,,,,,,
,,,,,,,,,,,,,,,811,2022-01-15_15h38.09.410,multiplicationStroop,2021.2.3,Win32,60.11060351,,,,,,,,,,,,,,,,,,,,,,,,,,,,,,,,,12,2.7321,1,0,24,24,5,1,2,×,6,2 × 6,congruent,smallerFirst,1,2,12,,,,,,,,
,,,,,,,,,,,,,,,811,2022-01-15_15h38.09.410,multiplicationStroop,2021.2.3,Win32,60.11060351,,,,,,,,,,,,,,,,,,,,,,,,,,,,,,,,,48,2.5518,0,0,25,25,17,1,7,×,6,7 × 6,congruent,largerFirst,2,1,42,,,,,,,,
,,,,,,,,,,,,,,,811,2022-01-15_15h38.09.410,multiplicationStroop,2021.2.3,Win32,60.11060351,,,,,,,,,,,,,,,,,,,,,,,,,,,,,,,,,23,2.9312,0,0,26,26,13,1,4,×,7,4 × 7,congruent,smallerFirst,1,2,28,,,,,,,,
,,,,,,,,,,,,,,,811,2022-01-15_15h38.09.410,multiplicationStroop,2021.2.3,Win32,60.11060351,,,,,,,,,,,,,,,,,,,,,,,,,,,,,,,,,14,2.0492,1,0,27,27,0,1,2,×,7,2 × 7,congruent,smallerFirst,1,2,14,,,,,,,,
,,,,,,,,,,,,,,,811,2022-01-15_15h38.09.410,multiplicationStroop,2021.2.3,Win32,60.11060351,,,,,,,,,,,,,,,,,,,,,,,,,,,,,,,,,48,2.2762,1,0,28,28,4,1,6,×,8,6 × 8,congruent,smallerFirst,1,2,48,,,,,,,,
,,,,,,,,,,,,,,,811,2022-01-15_15h38.09.410,multiplicationStroop,2021.2.3,Win32,60.11060351,,,,,,,,,,,,,,,,,,,,,,,,,,,,,,,,,32,2.2579,1,0,29,29,6,1,4,×,8,4 × 8,congruent,smallerFirst,1,2,32,,,,,,,,
,,,,,,,,,,,,,,,811,2022-01-15_15h38.09.410,multiplicationStroop,2021.2.3,Win32,60.11060351,,,,,,,,,,,,,,,,,,,,,,,,,,,,,,,,,36,2.2148,1,0,30,30,14,1,9,×,4,9 × 4,congruent,largerFirst,2,1,36,,,,,,,,
,,,,,,,,,,,,,,,811,2022-01-15_15h38.09.410,multiplicationStroop,2021.2.3,Win32,60.11060351,,,,,,,,,,,,,,,,,,,,,,,,,,,,,,,,,20,2.1095,1,0,31,31,21,1,5,×,4,5 × 4,congruent,largerFirst,2,1,20,,,,,,,,
,,,,,,,,,,,,,,,811,2022-01-15_15h38.09.410,multiplicationStroop,2021.2.3,Win32,60.11060351,,,,,,,,,,,,,,,,,,,,,,,,,,,,,,,,,9,1.6356,1,0,32,32,29,1,3,×,3,3 × 3,neutral,tie,1,2,9,,,,,,,,
,,,,,,,,,,,,,,,811,2022-01-15_15h38.09.410,multiplicationStroop,2021.2.3,Win32,60.11060351,,,,,,,,,,,,,,,,,,,,,,,,,,,,,,,,,12,1.499,1,0,33,33,16,1,4,×,3,4 × 3,congruent,largerFirst,2,1,12,,,,,,,,
,,,,,,,,,,,,,,,811,2022-01-15_15h38.09.410,multiplicationStroop,2021.2.3,Win32,60.11060351,,,,,,,,,,,,,,,,,,,,,,,,,,,,,,,,,25,2.0164,1,0,34,34,31,1,5,×,5,5 × 5,neutral,tie,1,2,25,,,,,,,,
,,,,,,,,,,,,,,,811,2022-01-15_15h38.09.410,multiplicationStroop,2021.2.3,Win32,60.11060351,,,,,,,,,,,,,,,,,,,,,,,,,,,,,,,,,54,2.081,1,0,35,35,26,1,9,×,6,9 × 6,congruent,largerFirst,2,1,54,,,,,,,,
,,,,,,,,,,,,,,,811,2022-01-15_15h38.09.410,multiplicationStroop,2021.2.3,Win32,60.11060351,,,,,,,,,,,,,,,,,,,,,,,,,,,,,,,,,,,,,,,,,,,,,,,,,,0,1,1,3,1,stimulusFile/mult_blk4_congruent.xlsx,,
,,,,,,,,,,,,,,,811,2022-01-15_15h38.09.410,multiplicationStroop,2021.2.3,Win32,60.11060351,,,,,,,,,,,,,,,,,,,,,,,,,,,,,,,space,1.5498,15,1.7618,1,0,0,0,19,1,5,×,3,5 × 3,neutral,largerFirst,1.5,1.5,15,,,,,,,,
,,,,,,,,,,,,,,,811,2022-01-15_15h38.09.410,multiplicationStroop,2021.2.3,Win32,60.11060351,,,,,,,,,,,,,,,,,,,,,,,,,,,,,,,,,81,5.4977,1,0,1,1,35,1,9,×,9,9 × 9,neutral,tie,1.5,1.5,81,,,,,,,,
,,,,,,,,,,,,,,,811,2022-01-15_15h38.09.410,multiplicationStroop,2021.2.3,Win32,60.11060351,,,,,,,,,,,,,,,,,,,,,,,,,,,,,,,,,49,2.6181,1,0,2,2,33,1,7,×,7,7 × 7,neutral,tie,1.5,1.5,49,,,,,,,,
,,,,,,,,,,,,,,,811,2022-01-15_15h38.09.410,multiplicationStroop,2021.2.3,Win32,60.11060351,,,,,,,,,,,,,,,,,,,,,,,,,,,,,,,,,40,2.2154,1,0,3,3,10,1,5,×,8,5 × 8,neutral,smallerFirst,1.5,1.5,40,,,,,,,,
,,,,,,,,,,,,,,,811,2022-01-15_15h38.09.410,multiplicationStroop,2021.2.3,Win32,60.11060351,,,,,,,,,,,,,,,,,,,,,,,,,,,,,,,,,36,3.0984,1,0,4,4,13,1,4,×,9,4 × 9,neutral,smallerFirst,1.5,1.5,36,,,,,,,,
,,,,,,,,,,,,,,,811,2022-01-15_15h38.09.410,multiplicationStroop,2021.2.3,Win32,60.11060351,,,,,,,,,,,,,,,,,,,,,,,,,,,,,,,,,56,2.2012,1,0,5,5,23,1,8,×,7,8 × 7,neutral,largerFirst,1.5,1.5,56,,,,,,,,
,,,,,,,,,,,,,,,811,2022-01-15_15h38.09.410,multiplicationStroop,2021.2.3,Win32,60.11060351,,,,,,,,,,,,,,,,,,,,,,,,,,,,,,,,,63,2.4487,1,0,6,6,26,1,9,×,7,9 × 7,neutral,largerFirst,1.5,1.5,63,,,,,,,,
,,,,,,,,,,,,,,,811,2022-01-15_15h38.09.410,multiplicationStroop,2021.2.3,Win32,60.11060351,,,,,,,,,,,,,,,,,,,,,,,,,,,,,,,,,10,1.7481,1,0,7,7,18,1,5,×,2,5 × 2,neutral,largerFirst,1.5,1.5,10,,,,,,,,
,,,,,,,,,,,,,,,811,2022-01-15_15h38.09.410,multiplicationStroop,2021.2.3,Win32,60.11060351,,,,,,,,,,,,,,,,,,,,,,,,,,,,,,,,,24,2.1474,1,0,8,8,8,1,3,×,8,3 × 8,neutral,smallerFirst,1.5,1.5,24,,,,,,,,
,,,,,,,,,,,,,,,811,2022-01-15_15h38.09.410,multiplicationStroop,2021.2.3,Win32,60.11060351,,,,,,,,,,,,,,,,,,,,,,,,,,,,,,,,,16,3.6151,1,0,9,9,27,1,8,×,2,8 × 2,neutral,largerFirst,1.5,1.5,16,,,,,,,,
,,,,,,,,,,,,,,,811,2022-01-15_15h38.09.410,multiplicationStroop,2021.2.3,Win32,60.11060351,,,,,,,,,,,,,,,,,,,,,,,,,,,,,,,,,45,2.4692,1,0,10,10,24,1,9,×,5,9 × 5,neutral,largerFirst,1.5,1.5,45,,,,,,,,
,,,,,,,,,,,,,,,811,2022-01-15_15h38.09.410,multiplicationStroop,2021.2.3,Win32,60.11060351,,,,,,,,,,,,,,,,,,,,,,,,,,,,,,,,,6,1.7327,1,0,11,11,12,1,2,×,3,2 × 3,neutral,smallerFirst,1.5,1.5,6,,,,,,,,
,,,,,,,,,,,,,,,811,2022-01-15_15h38.09.410,multiplicationStroop,2021.2.3,Win32,60.11060351,,,,,,,,,,,,,,,,,,,,,,,,,,,,,,,,,35,1.9652,1,0,12,12,15,1,7,×,5,7 × 5,neutral,largerFirst,1.5,1.5,35,,,,,,,,
,,,,,,,,,,,,,,,811,2022-01-15_15h38.09.410,multiplicationStroop,2021.2.3,Win32,60.11060351,,,,,,,,,,,,,,,,,,,,,,,,,,,,,,,,,14,1.7158,1,0,13,13,2,1,2,×,7,2 × 7,neutral,smallerFirst,1.5,1.5,14,,,,,,,,
,,,,,,,,,,,,,,,811,2022-01-15_15h38.09.410,multiplicationStroop,2021.2.3,Win32,60.11060351,,,,,,,,,,,,,,,,,,,,,,,,,,,,,,,,,32,2.1979,1,0,14,14,9,1,4,×,8,4 × 8,neutral,smallerFirst,1.5,1.5,32,,,,,,,,
,,,,,,,,,,,,,,,811,2022-01-15_15h38.09.410,multiplicationStroop,2021.2.3,Win32,60.11060351,,,,,,,,,,,,,,,,,,,,,,,,,,,,,,,,,21,1.8986,1,0,15,15,22,1,7,×,3,7 × 3,neutral,largerFirst,1.5,1.5,21,,,,,,,,
,,,,,,,,,,,,,,,811,2022-01-15_15h38.09.410,multiplicationStroop,2021.2.3,Win32,60.11060351,,,,,,,,,,,,,,,,,,,,,,,,,,,,,,,,,24,2.9153,1,0,16,16,16,1,6,×,4,6 × 4,neutral,largerFirst,1.5,1.5,24,,,,,,,,
,,,,,,,,,,,,,,,811,2022-01-15_15h38.09.410,multiplicationStroop,2021.2.3,Win32,60.11060351,,,,,,,,,,,,,,,,,,,,,,,,,,,,,,,,,8,1.6988,1,0,17,17,17,1,4,×,2,4 × 2,neutral,largerFirst,1.5,1.5,8,,,,,,,,
,,,,,,,,,,,,,,,811,2022-01-15_15h38.09.410,multiplicationStroop,2021.2.3,Win32,60.11060351,,,,,,,,,,,,,,,,,,,,,,,,,,,,,,,,,36,3.1315,0,0,18,18,3,1,4,×,7,4 × 7,neutral,smallerFirst,1.5,1.5,28,,,,,,,,
,,,,,,,,,,,,,,,811,2022-01-15_15h38.09.410,multiplicationStroop,2021.2.3,Win32,60.11060351,,,,,,,,,,,,,,,,,,,,,,,,,,,,,,,,,42,8.369,1,0,19,19,20,1,7,×,6,7 × 6,neutral,largerFirst,1.5,1.5,42,,,,,,,,
,,,,,,,,,,,,,,,811,2022-01-15_15h38.09.410,multiplicationStroop,2021.2.3,Win32,60.11060351,,,,,,,,,,,,,,,,,,,,,,,,,,,,,,,,,27,2.5525,1,0,20,20,0,1,3,×,9,3 × 9,neutral,smallerFirst,1.5,1.5,27,,,,,,,,
,,,,,,,,,,,,,,,811,2022-01-15_15h38.09.410,multiplicationStroop,2021.2.3,Win32,60.11060351,,,,,,,,,,,,,,,,,,,,,,,,,,,,,,,,,12,2.4819,1,0,21,21,11,1,2,×,6,2 × 6,neutral,smallerFirst,1.5,1.5,12,,,,,,,,
,,,,,,,,,,,,,,,811,2022-01-15_15h38.09.410,multiplicationStroop,2021.2.3,Win32,60.11060351,,,,,,,,,,,,,,,,,,,,,,,,,,,,,,,,,26,1.8204,0,0,22,22,32,1,6,×,6,6 × 6,neutral,tie,1.5,1.5,36,,,,,,,,
,,,,,,,,,,,,,,,811,2022-01-15_15h38.09.410,multiplicationStroop,2021.2.3,Win32,60.11060351,,,,,,,,,,,,,,,,,,,,,,,,,,,,,,,,,9,2.1988,1,0,23,23,29,1,3,×,3,3 × 3,neutral,tie,1.5,1.5,9,,,,,,,,
,,,,,,,,,,,,,,,811,2022-01-15_15h38.09.410,multiplicationStroop,2021.2.3,Win32,60.11060351,,,,,,,,,,,,,,,,,,,,,,,,,,,,,,,,,54,2.1298,1,0,24,24,21,1,9,×,6,9 × 6,neutral,largerFirst,1.5,1.5,54,,,,,,,,
,,,,,,,,,,,,,,,811,2022-01-15_15h38.09.410,multiplicationStroop,2021.2.3,Win32,60.11060351,,,,,,,,,,,,,,,,,,,,,,,,,,,,,,,,,18,2.0667,1,0,25,25,14,1,6,×,3,6 × 3,neutral,largerFirst,1.5,1.5,18,,,,,,,,
,,,,,,,,,,,,,,,811,2022-01-15_15h38.09.410,multiplicationStroop,2021.2.3,Win32,60.11060351,,,,,,,,,,,,,,,,,,,,,,,,,,,,,,,,,25,2.1148,1,0,26,26,31,1,5,×,5,5 × 5,neutral,tie,1.5,1.5,25,,,,,,,,
,,,,,,,,,,,,,,,811,2022-01-15_15h38.09.410,multiplicationStroop,2021.2.3,Win32,60.11060351,,,,,,,,,,,,,,,,,,,,,,,,,,,,,,,,,4,1.4107,1,0,27,27,28,1,2,×,2,2 × 2,neutral,tie,1.5,1.5,4,,,,,,,,
,,,,,,,,,,,,,,,811,2022-01-15_15h38.09.410,multiplicationStroop,2021.2.3,Win32,60.11060351,,,,,,,,,,,,,,,,,,,,,,,,,,,,,,,,,64,3.1352,1,0,28,28,34,1,8,×,8,8 × 8,neutral,tie,1.5,1.5,64,,,,,,,,
,,,,,,,,,,,,,,,811,2022-01-15_15h38.09.410,multiplicationStroop,2021.2.3,Win32,60.11060351,,,,,,,,,,,,,,,,,,,,,,,,,,,,,,,,,16,2.3853,1,0,29,29,30,1,4,×,4,4 × 4,neutral,tie,1.5,1.5,16,,,,,,,,
,,,,,,,,,,,,,,,811,2022-01-15_15h38.09.410,multiplicationStroop,2021.2.3,Win32,60.11060351,,,,,,,,,,,,,,,,,,,,,,,,,,,,,,,,,12,1.4655,1,0,30,30,7,1,3,×,4,3 × 4,neutral,smallerFirst,1.5,1.5,12,,,,,,,,
,,,,,,,,,,,,,,,811,2022-01-15_15h38.09.410,multiplicationStroop,2021.2.3,Win32,60.11060351,,,,,,,,,,,,,,,,,,,,,,,,,,,,,,,,,18,2.1159,1,0,31,31,4,1,2,×,9,2 × 9,neutral,smallerFirst,1.5,1.5,18,,,,,,,,
,,,,,,,,,,,,,,,811,2022-01-15_15h38.09.410,multiplicationStroop,2021.2.3,Win32,60.11060351,,,,,,,,,,,,,,,,,,,,,,,,,,,,,,,,,48,2.8653,1,0,32,32,1,1,6,×,8,6 × 8,neutral,smallerFirst,1.5,1.5,48,,,,,,,,
,,,,,,,,,,,,,,,811,2022-01-15_15h38.09.410,multiplicationStroop,2021.2.3,Win32,60.11060351,,,,,,,,,,,,,,,,,,,,,,,,,,,,,,,,,72,3.1932,1,0,33,33,25,1,9,×,8,9 × 8,neutral,largerFirst,1.5,1.5,72,,,,,,,,
,,,,,,,,,,,,,,,811,2022-01-15_15h38.09.410,multiplicationStroop,2021.2.3,Win32,60.11060351,,,,,,,,,,,,,,,,,,,,,,,,,,,,,,,,,20,2.2185,1,0,34,34,6,1,4,×,5,4 × 5,neutral,smallerFirst,1.5,1.5,20,,,,,,,,
,,,,,,,,,,,,,,,811,2022-01-15_15h38.09.410,multiplicationStroop,2021.2.3,Win32,60.11060351,,,,,,,,,,,,,,,,,,,,,,,,,,,,,,,,,30,2.3649,1,0,35,35,5,1,5,×,6,5 × 6,neutral,smallerFirst,1.5,1.5,30,,,,,,,,
,,,,,,,,,,,,,,,811,2022-01-15_15h38.09.410,multiplicationStroop,2021.2.3,Win32,60.11060351,,,,,,,,,,,,,,,,,,,,,,,,,,,,,,,,,,,,,,,,,,,,,,,,,,0,2,2,0,1,stimulusFile/mult_blk1.xlsx,,
,,,,,,,,,,,,,,,811,2022-01-15_15h38.09.410,multiplicationStroop,2021.2.3,Win32,60.11060351,,,,,,,,,,,,,,,,,,,,,,,,,,,,,,,space,1.45,40,2.3984,1,0,0,0,24,1,8,×,5,8 × 5,neutral,largerFirst,1.5,1.5,40,,,,,,,,
,,,,,,,,,,,,,,,811,2022-01-15_15h38.09.410,multiplicationStroop,2021.2.3,Win32,60.11060351,,,,,,,,,,,,,,,,,,,,,,,,,,,,,,,,,45,1.9771,1,0,1,1,10,1,5,×,9,5 × 9,neutral,smallerFirst,1.5,1.5,45,,,,,,,,
,,,,,,,,,,,,,,,811,2022-01-15_15h38.09.410,multiplicationStroop,2021.2.3,Win32,60.11060351,,,,,,,,,,,,,,,,,,,,,,,,,,,,,,,,,4,1.4627,1,0,2,2,28,1,2,×,2,2 × 2,neutral,tie,1.5,1.5,4,,,,,,,,
,,,,,,,,,,,,,,,811,2022-01-15_15h38.09.410,multiplicationStroop,2021.2.3,Win32,60.11060351,,,,,,,,,,,,,,,,,,,,,,,,,,,,,,,,,56,2.3378,1,0,3,3,9,1,7,×,8,7 × 8,neutral,smallerFirst,1.5,1.5,56,,,,,,,,
,,,,,,,,,,,,,,,811,2022-01-15_15h38.09.410,multiplicationStroop,2021.2.3,Win32,60.11060351,,,,,,,,,,,,,,,,,,,,,,,,,,,,,,,,,9,1.4155,1,0,4,4,29,1,3,×,3,3 × 3,neutral,tie,1.5,1.5,9,,,,,,,,
,,,,,,,,,,,,,,,811,2022-01-15_15h38.09.410,multiplicationStroop,2021.2.3,Win32,60.11060351,,,,,,,,,,,,,,,,,,,,,,,,,,,,,,,,,10,1.4822,1,0,5,5,4,1,2,×,5,2 × 5,neutral,smallerFirst,1.5,1.5,10,,,,,,,,
,,,,,,,,,,,,,,,811,2022-01-15_15h38.09.410,multiplicationStroop,2021.2.3,Win32,60.11060351,,,,,,,,,,,,,,,,,,,,,,,,,,,,,,,,,27,1.943,1,0,6,6,14,1,9,×,3,9 × 3,neutral,largerFirst,1.5,1.5,27,,,,,,,,
,,,,,,,,,,,,,,,811,2022-01-15_15h38.09.410,multiplicationStroop,2021.2.3,Win32,60.11060351,,,,,,,,,,,,,,,,,,,,,,,,,,,,,,,,,24,2.1704,1,0,7,7,2,1,4,×,6,4 × 6,neutral,smallerFirst,1.5,1.5,24,,,,,,,,
,,,,,,,,,,,,,,,811,2022-01-15_15h38.09.410,multiplicationStroop,2021.2.3,Win32,60.11060351,,,,,,,,,,,,,,,,,,,,,,,,,,,,,,,,,18,2.0315,1,0,8,8,0,1,3,×,6,3 × 6,neutral,smallerFirst,1.5,1.5,18,,,,,,,,
,,,,,,,,,,,,,,,811,2022-01-15_15h38.09.410,multiplicationStroop,2021.2.3,Win32,60.11060351,,,,,,,,,,,,,,,,,,,,,,,,,,,,,,,,,35,2.3764,1,0,9,9,1,1,5,×,7,5 × 7,neutral,smallerFirst,1.5,1.5,35,,,,,,,,
,,,,,,,,,,,,,,,811,2022-01-15_15h38.09.410,multiplicationStroop,2021.2.3,Win32,60.11060351,,,,,,,,,,,,,,,,,,,,,,,,,,,,,,,,,14,1.5705,1,0,10,10,16,1,7,×,2,7 × 2,neutral,largerFirst,1.5,1.5,14,,,,,,,,
,,,,,,,,,,,,,,,811,2022-01-15_15h38.09.410,multiplicationStroop,2021.2.3,Win32,60.11060351,,,,,,,,,,,,,,,,,,,,,,,,,,,,,,,,,36,2.4318,1,0,11,11,27,1,9,×,4,9 × 4,neutral,largerFirst,1.5,1.5,36,,,,,,,,
,,,,,,,,,,,,,,,811,2022-01-15_15h38.09.410,multiplicationStroop,2021.2.3,Win32,60.11060351,,,,,,,,,,,,,,,,,,,,,,,,,,,,,,,,,63,4.3263,1,0,12,12,12,1,7,×,9,7 × 9,neutral,smallerFirst,1.5,1.5,63,,,,,,,,
,,,,,,,,,,,,,,,811,2022-01-15_15h38.09.410,multiplicationStroop,2021.2.3,Win32,60.11060351,,,,,,,,,,,,,,,,,,,,,,,,,,,,,,,,,49,2.3186,1,0,13,13,33,1,7,×,7,7 × 7,neutral,tie,1.5,1.5,49,,,,,,,,
,,,,,,,,,,,,,,,811,2022-01-15_15h38.09.410,multiplicationStroop,2021.2.3,Win32,60.11060351,,,,,,,,,,,,,,,,,,,,,,,,,,,,,,,,,72,2.782,1,0,14,14,11,1,8,×,9,8 × 9,neutral,smallerFirst,1.5,1.5,72,,,,,,,,
,,,,,,,,,,,,,,,811,2022-01-15_15h38.09.410,multiplicationStroop,2021.2.3,Win32,60.11060351,,,,,,,,,,,,,,,,,,,,,,,,,,,,,,,,,12,2.5102,1,0,15,15,25,1,6,×,2,6 × 2,neutral,largerFirst,1.5,1.5,12,,,,,,,,
,,,,,,,,,,,,,,,811,2022-01-15_15h38.09.410,multiplicationStroop,2021.2.3,Win32,60.11060351,,,,,,,,,,,,,,,,,,,,,,,,,,,,,,,,,48,2.4821,1,0,16,16,15,1,8,×,6,8 × 6,neutral,largerFirst,1.5,1.5,48,,,,,,,,
,,,,,,,,,,,,,,,811,2022-01-15_15h38.09.410,multiplicationStroop,2021.2.3,Win32,60.11060351,,,,,,,,,,,,,,,,,,,,,,,,,,,,,,,,,16,1.9989,1,0,17,17,30,1,4,×,4,4 × 4,neutral,tie,1.5,1.5,16,,,,,,,,
,,,,,,,,,,,,,,,811,2022-01-15_15h38.09.410,multiplicationStroop,2021.2.3,Win32,60.11060351,,,,,,,,,,,,,,,,,,,,,,,,,,,,,,,,,42,6.9472,1,0,18,18,6,1,6,×,7,6 × 7,neutral,smallerFirst,1.5,1.5,42,,,,,,,,
,,,,,,,,,,,,,,,811,2022-01-15_15h38.09.410,multiplicationStroop,2021.2.3,Win32,60.11060351,,,,,,,,,,,,,,,,,,,,,,,,,,,,,,,,,30,1.935,1,0,19,19,19,1,6,×,5,6 × 5,neutral,largerFirst,1.5,1.5,30,,,,,,,,
,,,,,,,,,,,,,,,811,2022-01-15_15h38.09.410,multiplicationStroop,2021.2.3,Win32,60.11060351,,,,,,,,,,,,,,,,,,,,,,,,,,,,,,,,,8,2.0319,1,0,20,20,3,1,2,×,4,2 × 4,neutral,smallerFirst,1.5,1.5,8,,,,,,,,
,,,,,,,,,,,,,,,811,2022-01-15_15h38.09.410,multiplicationStroop,2021.2.3,Win32,60.11060351,,,,,,,,,,,,,,,,,,,,,,,,,,,,,,,,,28,5.4978,1,0,21,21,17,1,7,×,4,7 × 4,neutral,largerFirst,1.5,1.5,28,,,,,,,,
,,,,,,,,,,,,,,,811,2022-01-15_15h38.09.410,multiplicationStroop,2021.2.3,Win32,60.11060351,,,,,,,,,,,,,,,,,,,,,,,,,,,,,,,,,32,2.9808,1,0,22,22,23,1,8,×,4,8 × 4,neutral,largerFirst,1.5,1.5,32,,,,,,,,
,,,,,,,,,,,,,,,811,2022-01-15_15h38.09.410,multiplicationStroop,2021.2.3,Win32,60.11060351,,,,,,,,,,,,,,,,,,,,,,,,,,,,,,,,,24,2.6862,1,0,23,23,22,1,8,×,3,8 × 3,neutral,largerFirst,1.5,1.5,24,,,,,,,,
,,,,,,,,,,,,,,,811,2022-01-15_15h38.09.410,multiplicationStroop,2021.2.3,Win32,60.11060351,,,,,,,,,,,,,,,,,,,,,,,,,,,,,,,,,64,6.2143,1,0,24,24,34,1,8,×,8,8 × 8,neutral,tie,1.5,1.5,64,,,,,,,,
,,,,,,,,,,,,,,,811,2022-01-15_15h38.09.410,multiplicationStroop,2021.2.3,Win32,60.11060351,,,,,,,,,,,,,,,,,,,,,,,,,,,,,,,,,6,1.5202,1,0,25,25,26,1,3,×,2,3 × 2,neutral,largerFirst,1.5,1.5,6,,,,,,,,
,,,,,,,,,,,,,,,811,2022-01-15_15h38.09.410,multiplicationStroop,2021.2.3,Win32,60.11060351,,,,,,,,,,,,,,,,,,,,,,,,,,,,,,,,,25,1.7158,1,0,26,26,31,1,5,×,5,5 × 5,neutral,tie,1.5,1.5,25,,,,,,,,
,,,,,,,,,,,,,,,811,2022-01-15_15h38.09.410,multiplicationStroop,2021.2.3,Win32,60.11060351,,,,,,,,,,,,,,,,,,,,,,,,,,,,,,,,,36,2.4486,1,0,27,27,32,1,6,×,6,6 × 6,neutral,tie,1.5,1.5,36,,,,,,,,
,,,,,,,,,,,,,,,811,2022-01-15_15h38.09.410,multiplicationStroop,2021.2.3,Win32,60.11060351,,,,,,,,,,,,,,,,,,,,,,,,,,,,,,,,,20,1.8491,1,0,28,28,20,1,5,×,4,5 × 4,neutral,largerFirst,1.5,1.5,20,,,,,,,,
,,,,,,,,,,,,,,,811,2022-01-15_15h38.09.410,multiplicationStroop,2021.2.3,Win32,60.11060351,,,,,,,,,,,,,,,,,,,,,,,,,,,,,,,,,16,2.432,1,0,29,29,13,1,2,×,8,2 × 8,neutral,smallerFirst,1.5,1.5,16,,,,,,,,
,,,,,,,,,,,,,,,811,2022-01-15_15h38.09.410,multiplicationStroop,2021.2.3,Win32,60.11060351,,,,,,,,,,,,,,,,,,,,,,,,,,,,,,,,,21,1.8822,1,0,30,30,8,1,3,×,7,3 × 7,neutral,smallerFirst,1.5,1.5,21,,,,,,,,
,,,,,,,,,,,,,,,811,2022-01-15_15h38.09.410,multiplicationStroop,2021.2.3,Win32,60.11060351,,,,,,,,,,,,,,,,,,,,,,,,,,,,,,,,,15,2.2324,1,0,31,31,5,1,3,×,5,3 × 5,neutral,smallerFirst,1.5,1.5,15,,,,,,,,
,,,,,,,,,,,,,,,811,2022-01-15_15h38.09.410,multiplicationStroop,2021.2.3,Win32,60.11060351,,,,,,,,,,,,,,,,,,,,,,,,,,,,,,,,,12,2.1319,1,0,32,32,21,1,4,×,3,4 × 3,neutral,largerFirst,1.5,1.5,12,,,,,,,,
,,,,,,,,,,,,,,,811,2022-01-15_15h38.09.410,multiplicationStroop,2021.2.3,Win32,60.11060351,,,,,,,,,,,,,,,,,,,,,,,,,,,,,,,,,54,3.398,1,0,33,33,7,1,6,×,9,6 × 9,neutral,smallerFirst,1.5,1.5,54,,,,,,,,
,,,,,,,,,,,,,,,811,2022-01-15_15h38.09.410,multiplicationStroop,2021.2.3,Win32,60.11060351,,,,,,,,,,,,,,,,,,,,,,,,,,,,,,,,,18,1.7518,1,0,34,34,18,1,9,×,2,9 × 2,neutral,largerFirst,1.5,1.5,18,,,,,,,,
,,,,,,,,,,,,,,,811,2022-01-15_15h38.09.410,multiplicationStroop,2021.2.3,Win32,60.11060351,,,,,,,,,,,,,,,,,,,,,,,,,,,,,,,,,81,2.7819,1,0,35,35,35,1,9,×,9,9 × 9,neutral,tie,1.5,1.5,81,,,,,,,,
,,,,,,,,,,,,,,,811,2022-01-15_15h38.09.410,multiplicationStroop,2021.2.3,Win32,60.11060351,,,,,,,,,,,,,,,,,,,,,,,,,,,,,,,,,,,,,,,,,,,,,,,,,,0,3,3,1,1,stimulusFile/mult_blk2.xlsx,,
,,,,,,,,,,,,,,,811,2022-01-15_15h38.09.410,multiplicationStroop,2021.2.3,Win32,60.11060351,,,,,,,,,,,,,,,,,,,,,,,,,,,,,,,space,0.8484,32,3.3851,1,0,0,0,7,1,4,×,8,4 × 8,incongruent,smallerFirst,2,1,32,,,,,,,,
,,,,,,,,,,,,,,,811,2022-01-15_15h38.09.410,multiplicationStroop,2021.2.3,Win32,60.11060351,,,,,,,,,,,,,,,,,,,,,,,,,,,,,,,,,27,2.6485,1,0,1,1,18,1,9,×,3,9 × 3,incongruent,largerFirst,1,2,27,,,,,,,,
,,,,,,,,,,,,,,,811,2022-01-15_15h38.09.410,multiplicationStroop,2021.2.3,Win32,60.11060351,,,,,,,,,,,,,,,,,,,,,,,,,,,,,,,,,20,2.8699,1,0,2,2,27,1,5,×,4,5 × 4,incongruent,largerFirst,1,2,20,,,,,,,,
,,,,,,,,,,,,,,,811,2022-01-15_15h38.09.410,multiplicationStroop,2021.2.3,Win32,60.11060351,,,,,,,,,,,,,,,,,,,,,,,,,,,,,,,,,25,2.5989,1,0,3,3,31,1,5,×,5,5 × 5,incongruent,tie,1,2,25,,,,,,,,
,,,,,,,,,,,,,,,811,2022-01-15_15h38.09.410,multiplicationStroop,2021.2.3,Win32,60.11060351,,,,,,,,,,,,,,,,,,,,,,,,,,,,,,,,,36,4.0311,0,0,4,4,20,1,6,×,4,6 × 4,incongruent,largerFirst,1,2,24,,,,,,,,
,,,,,,,,,,,,,,,811,2022-01-15_15h38.09.410,multiplicationStroop,2021.2.3,Win32,60.11060351,,,,,,,,,,,,,,,,,,,,,,,,,,,,,,,,,28,2.6189,1,0,5,5,16,1,7,×,4,7 × 4,incongruent,largerFirst,1,2,28,,,,,,,,
,,,,,,,,,,,,,,,811,2022-01-15_15h38.09.410,multiplicationStroop,2021.2.3,Win32,60.11060351,,,,,,,,,,,,,,,,,,,,,,,,,,,,,,,,,81,2.3217,1,0,6,6,35,1,9,×,9,9 × 9,incongruent,tie,1,2,81,,,,,,,,
,,,,,,,,,,,,,,,811,2022-01-15_15h38.09.410,multiplicationStroop,2021.2.3,Win32,60.11060351,,,,,,,,,,,,,,,,,,,,,,,,,,,,,,,,,56,2.2654,1,0,7,7,14,1,8,×,7,8 × 7,incongruent,largerFirst,1,2,56,,,,,,,,
,,,,,,,,,,,,,,,811,2022-01-15_15h38.09.410,multiplicationStroop,2021.2.3,Win32,60.11060351,,,,,,,,,,,,,,,,,,,,,,,,,,,,,,,,,36,1.8824,1,0,8,8,32,1,6,×,6,6 × 6,incongruent,tie,1,2,36,,,,,,,,
,,,,,,,,,,,,,,,811,2022-01-15_15h38.09.410,multiplicationStroop,2021.2.3,Win32,60.11060351,,,,,,,,,,,,,,,,,,,,,,,,,,,,,,,,,63,2.5321,1,0,9,9,3,1,7,×,9,7 × 9,incongruent,smallerFirst,2,1,63,,,,,,,,
,,,,,,,,,,,,,,,811,2022-01-15_15h38.09.410,multiplicationStroop,2021.2.3,Win32,60.11060351,,,,,,,,,,,,,,,,,,,,,,,,,,,,,,,,,35,2.4984,1,0,10,10,12,1,5,×,7,5 × 7,incongruent,smallerFirst,2,1,35,,,,,,,,
,,,,,,,,,,,,,,,811,2022-01-15_15h38.09.410,multiplicationStroop,2021.2.3,Win32,60.11060351,,,,,,,,,,,,,,,,,,,,,,,,,,,,,,,,,14,1.9618,1,0,11,11,4,1,2,×,7,2 × 7,incongruent,smallerFirst,2,1,14,,,,,,,,
,,,,,,,,,,,,,,,811,2022-01-15_15h38.09.410,multiplicationStroop,2021.2.3,Win32,60.11060351,,,,,,,,,,,,,,,,,,,,,,,,,,,,,,,,,64,2.6323,1,0,12,12,34,1,8,×,8,8 × 8,incongruent,tie,1,2,64,,,,,,,,
,,,,,,,,,,,,,,,811,2022-01-15_15h38.09.410,multiplicationStroop,2021.2.3,Win32,60.11060351,,,,,,,,,,,,,,,,,,,,,,,,,,,,,,,,,72,3.4147,1,0,13,13,0,1,8,×,9,8 × 9,incongruent,smallerFirst,2,1,72,,,,,,,,
,,,,,,,,,,,,,,,811,2022-01-15_15h38.09.410,multiplicationStroop,2021.2.3,Win32,60.11060351,,,,,,,,,,,,,,,,,,,,,,,,,,,,,,,,,6,1.8037,1,0,14,14,11,1,2,×,3,2 × 3,incongruent,smallerFirst,2,1,6,,,,,,,,
,,,,,,,,,,,,,,,811,2022-01-15_15h38.09.410,multiplicationStroop,2021.2.3,Win32,60.11060351,,,,,,,,,,,,,,,,,,,,,,,,,,,,,,,,,9,1.4492,1,0,15,15,29,1,3,×,3,3 × 3,incongruent,tie,1,2,9,,,,,,,,
,,,,,,,,,,,,,,,811,2022-01-15_15h38.09.410,multiplicationStroop,2021.2.3,Win32,60.11060351,,,,,,,,,,,,,,,,,,,,,,,,,,,,,,,,,12,2.2496,1,0,16,16,19,1,6,×,2,6 × 2,incongruent,largerFirst,1,2,12,,,,,,,,
,,,,,,,,,,,,,,,811,2022-01-15_15h38.09.410,multiplicationStroop,2021.2.3,Win32,60.11060351,,,,,,,,,,,,,,,,,,,,,,,,,,,,,,,,,48,4.0617,0,0,17,17,17,1,7,×,6,7 × 6,incongruent,largerFirst,1,2,42,,,,,,,,
,,,,,,,,,,,,,,,811,2022-01-15_15h38.09.410,multiplicationStroop,2021.2.3,Win32,60.11060351,,,,,,,,,,,,,,,,,,,,,,,,,,,,,,,,,16,1.8599,1,0,18,18,23,1,8,×,2,8 × 2,incongruent,largerFirst,1,2,16,,,,,,,,
,,,,,,,,,,,,,,,811,2022-01-15_15h38.09.410,multiplicationStroop,2021.2.3,Win32,60.11060351,,,,,,,,,,,,,,,,,,,,,,,,,,,,,,,,,48,3.8647,1,0,19,19,1,1,6,×,8,6 × 8,incongruent,smallerFirst,2,1,48,,,,,,,,
,,,,,,,,,,,,,,,811,2022-01-15_15h38.09.410,multiplicationStroop,2021.2.3,Win32,60.11060351,,,,,,,,,,,,,,,,,,,,,,,,,,,,,,,,,8,1.8372,1,0,20,20,24,1,4,×,2,4 × 2,incongruent,largerFirst,1,2,8,,,,,,,,
,,,,,,,,,,,,,,,811,2022-01-15_15h38.09.410,multiplicationStroop,2021.2.3,Win32,60.11060351,,,,,,,,,,,,,,,,,,,,,,,,,,,,,,,,,40,2.1653,1,0,21,21,13,1,5,×,8,5 × 8,incongruent,smallerFirst,2,1,40,,,,,,,,
,,,,,,,,,,,,,,,811,2022-01-15_15h38.09.410,multiplicationStroop,2021.2.3,Win32,60.11060351,,,,,,,,,,,,,,,,,,,,,,,,,,,,,,,,,15,1.7658,1,0,22,22,10,1,3,×,5,3 × 5,incongruent,smallerFirst,2,1,15,,,,,,,,
,,,,,,,,,,,,,,,811,2022-01-15_15h38.09.410,multiplicationStroop,2021.2.3,Win32,60.11060351,,,,,,,,,,,,,,,,,,,,,,,,,,,,,,,,,32,2.5822,0,0,23,23,15,1,9,×,4,9 × 4,incongruent,largerFirst,1,2,36,,,,,,,,
,,,,,,,,,,,,,,,811,2022-01-15_15h38.09.410,multiplicationStroop,2021.2.3,Win32,60.11060351,,,,,,,,,,,,,,,,,,,,,,,,,,,,,,,,,12,7.247,1,0,24,24,5,1,3,×,4,3 × 4,incongruent,smallerFirst,2,1,12,,,,,,,,
,,,,,,,,,,,,,,,811,2022-01-15_15h38.09.410,multiplicationStroop,2021.2.3,Win32,60.11060351,,,,,,,,,,,,,,,,,,,,,,,,,,,,,,,,,4,1.421,1,0,25,25,28,1,2,×,2,2 × 2,incongruent,tie,1,2,4,,,,,,,,
,,,,,,,,,,,,,,,811,2022-01-15_15h38.09.410,multiplicationStroop,2021.2.3,Win32,60.11060351,,,,,,,,,,,,,,,,,,,,,,,,,,,,,,,,,16,2.0714,1,0,26,26,30,1,4,×,4,4 × 4,incongruent,tie,1,2,16,,,,,,,,
,,,,,,,,,,,,,,,811,2022-01-15_15h38.09.410,multiplicationStroop,2021.2.3,Win32,60.11060351,,,,,,,,,,,,,,,,,,,,,,,,,,,,,,,,,21,1.8317,1,0,27,27,26,1,7,×,3,7 × 3,incongruent,largerFirst,1,2,21,,,,,,,,
,,,,,,,,,,,,,,,811,2022-01-15_15h38.09.410,multiplicationStroop,2021.2.3,Win32,60.11060351,,,,,,,,,,,,,,,,,,,,,,,,,,,,,,,,,18,2.1321,1,0,28,28,2,1,2,×,9,2 × 9,incongruent,smallerFirst,2,1,18,,,,,,,,
,,,,,,,,,,,,,,,811,2022-01-15_15h38.09.410,multiplicationStroop,2021.2.3,Win32,60.11060351,,,,,,,,,,,,,,,,,,,,,,,,,,,,,,,,,49,2.0097,1,0,29,29,33,1,7,×,7,7 × 7,incongruent,tie,1,2,49,,,,,,,,
,,,,,,,,,,,,,,,811,2022-01-15_15h38.09.410,multiplicationStroop,2021.2.3,Win32,60.11060351,,,,,,,,,,,,,,,,,,,,,,,,,,,,,,,,,18,5.0124,1,0,30,30,8,1,3,×,6,3 × 6,incongruent,smallerFirst,2,1,18,,,,,,,,
,,,,,,,,,,,,,,,811,2022-01-15_15h38.09.410,multiplicationStroop,2021.2.3,Win32,60.11060351,,,,,,,,,,,,,,,,,,,,,,,,,,,,,,,,,18,1.6914,0,0,31,31,9,1,3,×,8,3 × 8,incongruent,smallerFirst,2,1,24,,,,,,,,
,,,,,,,,,,,,,,,811,2022-01-15_15h38.09.410,multiplicationStroop,2021.2.3,Win32,60.11060351,,,,,,,,,,,,,,,,,,,,,,,,,,,,,,,,,30,2.6437,1,0,32,32,25,1,6,×,5,6 × 5,incongruent,largerFirst,1,2,30,,,,,,,,
,,,,,,,,,,,,,,,811,2022-01-15_15h38.09.410,multiplicationStroop,2021.2.3,Win32,60.11060351,,,,,,,,,,,,,,,,,,,,,,,,,,,,,,,,,45,2.1028,1,0,33,33,22,1,9,×,5,9 × 5,incongruent,largerFirst,1,2,45,,,,,,,,
,,,,,,,,,,,,,,,811,2022-01-15_15h38.09.410,multiplicationStroop,2021.2.3,Win32,60.11060351,,,,,,,,,,,,,,,,,,,,,,,,,,,,,,,,,54,2.2491,1,0,34,34,6,1,6,×,9,6 × 9,incongruent,smallerFirst,2,1,54,,,,,,,,
,,,,,,,,,,,,,,,811,2022-01-15_15h38.09.410,multiplicationStroop,2021.2.3,Win32,60.11060351,,,,,,,,,,,,,,,,,,,,,,,,,,,,,,,,,10,2.7129,1,0,35,35,21,1,5,×,2,5 × 2,incongruent,largerFirst,1,2,10,,,,,,,,
,,,,,,,,,,,,,,,811,2022-01-15_15h38.09.410,multiplicationStroop,2021.2.3,Win32,60.11060351,,,,,,,,,,,,,,,,,,,,,,,,,,,,,,,,,,,,,,,,,,,,,,,,,,0,4,4,5,1,stimulusFile/mult_blk6_INcongruent.xlsx,,
,,,,,,,,,,,,,,,811,2022-01-15_15h38.09.410,multiplicationStroop,2021.2.3,Win32,60.11060351,,,,,,,,,,,,,,,,,,,,,,,,,,,,,,,space,1.0994,12,1.7493,1,0,0,0,19,1,4,×,3,4 × 3,incongruent,largerFirst,1,2,12,,,,,,,,
,,,,,,,,,,,,,,,811,2022-01-15_15h38.09.410,multiplicationStroop,2021.2.3,Win32,60.11060351,,,,,,,,,,,,,,,,,,,,,,,,,,,,,,,,,36,8.0472,0,0,1,1,21,1,8,×,4,8 × 4,incongruent,largerFirst,1,2,32,,,,,,,,
,,,,,,,,,,,,,,,811,2022-01-15_15h38.09.410,multiplicationStroop,2021.2.3,Win32,60.11060351,,,,,,,,,,,,,,,,,,,,,,,,,,,,,,,,,56,5.0003,1,0,2,2,0,1,7,×,8,7 × 8,incongruent,smallerFirst,2,1,56,,,,,,,,
,,,,,,,,,,,,,,,811,2022-01-15_15h38.09.410,multiplicationStroop,2021.2.3,Win32,60.11060351,,,,,,,,,,,,,,,,,,,,,,,,,,,,,,,,,15,2.1516,1,0,3,3,24,1,5,×,3,5 × 3,incongruent,largerFirst,1,2,15,,,,,,,,
,,,,,,,,,,,,,,,811,2022-01-15_15h38.09.410,multiplicationStroop,2021.2.3,Win32,60.11060351,,,,,,,,,,,,,,,,,,,,,,,,,,,,,,,,,48,5.315,1,0,4,4,15,1,8,×,6,8 × 6,incongruent,largerFirst,1,2,48,,,,,,,,
,,,,,,,,,,,,,,,811,2022-01-15_15h38.09.410,multiplicationStroop,2021.2.3,Win32,60.11060351,,,,,,,,,,,,,,,,,,,,,,,,,,,,,,,,,72,2.663,1,0,5,5,14,1,9,×,8,9 × 8,incongruent,largerFirst,1,2,72,,,,,,,,
,,,,,,,,,,,,,,,811,2022-01-15_15h38.09.410,multiplicationStroop,2021.2.3,Win32,60.11060351,,,,,,,,,,,,,,,,,,,,,,,,,,,,,,,,,24,3.2679,1,0,6,6,6,1,4,×,6,4 × 6,incongruent,smallerFirst,2,1,24,,,,,,,,
,,,,,,,,,,,,,,,811,2022-01-15_15h38.09.410,multiplicationStroop,2021.2.3,Win32,60.11060351,,,,,,,,,,,,,,,,,,,,,,,,,,,,,,,,,54,2.3623,1,0,7,7,20,1,9,×,6,9 × 6,incongruent,largerFirst,1,2,54,,,,,,,,
,,,,,,,,,,,,,,,811,2022-01-15_15h38.09.410,multiplicationStroop,2021.2.3,Win32,60.11060351,,,,,,,,,,,,,,,,,,,,,,,,,,,,,,,,,16,4.6974,1,0,8,8,9,1,2,×,8,2 × 8,incongruent,smallerFirst,2,1,16,,,,,,,,
,,,,,,,,,,,,,,,811,2022-01-15_15h38.09.410,multiplicationStroop,2021.2.3,Win32,60.11060351,,,,,,,,,,,,,,,,,,,,,,,,,,,,,,,,,28,2.2921,1,0,9,9,2,1,4,×,7,4 × 7,incongruent,smallerFirst,2,1,28,,,,,,,,
,,,,,,,,,,,,,,,811,2022-01-15_15h38.09.410,multiplicationStroop,2021.2.3,Win32,60.11060351,,,,,,,,,,,,,,,,,,,,,,,,,,,,,,,,,25,1.9989,1,0,10,10,31,1,5,×,5,5 × 5,neutral,tie,2,1,25,,,,,,,,
,,,,,,,,,,,,,,,811,2022-01-15_15h38.09.410,multiplicationStroop,2021.2.3,Win32,60.11060351,,,,,,,,,,,,,,,,,,,,,,,,,,,,,,,,,9,2.4657,1,0,11,11,29,1,3,×,3,3 × 3,neutral,tie,2,1,9,,,,,,,,
,,,,,,,,,,,,,,,811,2022-01-15_15h38.09.410,multiplicationStroop,2021.2.3,Win32,60.11060351,,,,,,,,,,,,,,,,,,,,,,,,,,,,,,,,,24,1.9761,1,0,12,12,23,1,8,×,3,8 × 3,incongruent,largerFirst,1,2,24,,,,,,,,
,,,,,,,,,,,,,,,811,2022-01-15_15h38.09.410,multiplicationStroop,2021.2.3,Win32,60.11060351,,,,,,,,,,,,,,,,,,,,,,,,,,,,,,,,,18,2.6519,1,0,13,13,16,1,9,×,2,9 × 2,incongruent,largerFirst,1,2,18,,,,,,,,
,,,,,,,,,,,,,,,811,2022-01-15_15h38.09.410,multiplicationStroop,2021.2.3,Win32,60.11060351,,,,,,,,,,,,,,,,,,,,,,,,,,,,,,,,,16,2.0534,1,0,14,14,30,1,4,×,4,4 × 4,neutral,tie,2,1,16,,,,,,,,
,,,,,,,,,,,,,,,811,2022-01-15_15h38.09.410,multiplicationStroop,2021.2.3,Win32,60.11060351,,,,,,,,,,,,,,,,,,,,,,,,,,,,,,,,,49,2.4296,1,0,15,15,33,1,7,×,7,7 × 7,neutral,tie,2,1,49,,,,,,,,
,,,,,,,,,,,,,,,811,2022-01-15_15h38.09.410,multiplicationStroop,2021.2.3,Win32,60.11060351,,,,,,,,,,,,,,,,,,,,,,,,,,,,,,,,,64,2.0758,1,0,16,16,34,1,8,×,8,8 × 8,neutral,tie,2,1,64,,,,,,,,
,,,,,,,,,,,,,,,811,2022-01-15_15h38.09.410,multiplicationStroop,2021.2.3,Win32,60.11060351,,,,,,,,,,,,,,,,,,,,,,,,,,,,,,,,,35,3.6202,1,0,17,17,26,1,7,×,5,7 × 5,incongruent,largerFirst,1,2,35,,,,,,,,
,,,,,,,,,,,,,,,811,2022-01-15_15h38.09.410,multiplicationStroop,2021.2.3,Win32,60.11060351,,,,,,,,,,,,,,,,,,,,,,,,,,,,,,,,,8,1.7016,1,0,18,18,10,1,2,×,4,2 × 4,incongruent,smallerFirst,2,1,8,,,,,,,,
,,,,,,,,,,,,,,,811,2022-01-15_15h38.09.410,multiplicationStroop,2021.2.3,Win32,60.11060351,,,,,,,,,,,,,,,,,,,,,,,,,,,,,,,,,63,2.9162,1,0,19,19,17,1,9,×,7,9 × 7,incongruent,largerFirst,1,2,63,,,,,,,,
,,,,,,,,,,,,,,,811,2022-01-15_15h38.09.410,multiplicationStroop,2021.2.3,Win32,60.11060351,,,,,,,,,,,,,,,,,,,,,,,,,,,,,,,,,42,2.7817,1,0,20,20,3,1,6,×,7,6 × 7,incongruent,smallerFirst,2,1,42,,,,,,,,
,,,,,,,,,,,,,,,811,2022-01-15_15h38.09.410,multiplicationStroop,2021.2.3,Win32,60.11060351,,,,,,,,,,,,,,,,,,,,,,,,,,,,,,,,,10,1.7983,1,0,21,21,7,1,2,×,5,2 × 5,incongruent,smallerFirst,2,1,10,,,,,,,,
,,,,,,,,,,,,,,,811,2022-01-15_15h38.09.410,multiplicationStroop,2021.2.3,Win32,60.11060351,,,,,,,,,,,,,,,,,,,,,,,,,,,,,,,,,18,1.898,1,0,22,22,22,1,6,×,3,6 × 3,incongruent,largerFirst,1,2,18,,,,,,,,
,,,,,,,,,,,,,,,811,2022-01-15_15h38.09.410,multiplicationStroop,2021.2.3,Win32,60.11060351,,,,,,,,,,,,,,,,,,,,,,,,,,,,,,,,,14,1.6487,1,0,23,23,18,1,7,×,2,7 × 2,incongruent,largerFirst,1,2,14,,,,,,,,
,,,,,,,,,,,,,,,811,2022-01-15_15h38.09.410,multiplicationStroop,2021.2.3,Win32,60.11060351,,,,,,,,,,,,,,,,,,,,,,,,,,,,,,,,,36,2.2433,1,0,24,24,32,1,6,×,6,6 × 6,neutral,tie,2,1,36,,,,,,,,
,,,,,,,,,,,,,,,811,2022-01-15_15h38.09.410,multiplicationStroop,2021.2.3,Win32,60.11060351,,,,,,,,,,,,,,,,,,,,,,,,,,,,,,,,,6,1.9642,1,0,25,25,25,1,3,×,2,3 × 2,incongruent,largerFirst,1,2,6,,,,,,,,
,,,,,,,,,,,,,,,811,2022-01-15_15h38.09.410,multiplicationStroop,2021.2.3,Win32,60.11060351,,,,,,,,,,,,,,,,,,,,,,,,,,,,,,,,,40,2.2885,1,0,26,26,27,1,8,×,5,8 × 5,incongruent,largerFirst,1,2,40,,,,,,,,
,,,,,,,,,,,,,,,811,2022-01-15_15h38.09.410,multiplicationStroop,2021.2.3,Win32,60.11060351,,,,,,,,,,,,,,,,,,,,,,,,,,,,,,,,,30,3.064,1,0,27,27,11,1,5,×,6,5 × 6,incongruent,smallerFirst,2,1,30,,,,,,,,
,,,,,,,,,,,,,,,811,2022-01-15_15h38.09.410,multiplicationStroop,2021.2.3,Win32,60.11060351,,,,,,,,,,,,,,,,,,,,,,,,,,,,,,,,,27,2.3362,1,0,28,28,4,1,3,×,9,3 × 9,incongruent,smallerFirst,2,1,27,,,,,,,,
,,,,,,,,,,,,,,,811,2022-01-15_15h38.09.410,multiplicationStroop,2021.2.3,Win32,60.11060351,,,,,,,,,,,,,,,,,,,,,,,,,,,,,,,,,36,2.577,1,0,29,29,1,1,4,×,9,4 × 9,incongruent,smallerFirst,2,1,36,,,,,,,,
,,,,,,,,,,,,,,,811,2022-01-15_15h38.09.410,multiplicationStroop,2021.2.3,Win32,60.11060351,,,,,,,,,,,,,,,,,,,,,,,,,,,,,,,,,4,1.4658,1,0,30,30,28,1,2,×,2,2 × 2,neutral,tie,2,1,4,,,,,,,,
,,,,,,,,,,,,,,,811,2022-01-15_15h38.09.410,multiplicationStroop,2021.2.3,Win32,60.11060351,,,,,,,,,,,,,,,,,,,,,,,,,,,,,,,,,21,1.7154,1,0,31,31,12,1,3,×,7,3 × 7,incongruent,smallerFirst,2,1,21,,,,,,,,
,,,,,,,,,,,,,,,811,2022-01-15_15h38.09.410,multiplicationStroop,2021.2.3,Win32,60.11060351,,,,,,,,,,,,,,,,,,,,,,,,,,,,,,,,,45,2.8318,1,0,32,32,8,1,5,×,9,5 × 9,incongruent,smallerFirst,2,1,45,,,,,,,,
,,,,,,,,,,,,,,,811,2022-01-15_15h38.09.410,multiplicationStroop,2021.2.3,Win32,60.11060351,,,,,,,,,,,,,,,,,,,,,,,,,,,,,,,,,81,3.7825,1,0,33,33,35,1,9,×,9,9 × 9,neutral,tie,2,1,81,,,,,,,,
,,,,,,,,,,,,,,,811,2022-01-15_15h38.09.410,multiplicationStroop,2021.2.3,Win32,60.11060351,,,,,,,,,,,,,,,,,,,,,,,,,,,,,,,,,20,3.4306,1,0,34,34,13,1,4,×,5,4 × 5,incongruent,smallerFirst,2,1,20,,,,,,,,
,,,,,,,,,,,,,,,811,2022-01-15_15h38.09.410,multiplicationStroop,2021.2.3,Win32,60.11060351,,,,,,,,,,,,,,,,,,,,,,,,,,,,,,,,,12,2.319,1,0,35,35,5,1,2,×,6,2 × 6,incongruent,smallerFirst,2,1,12,,,,,,,,
,,,,,,,,,,,,,,,811,2022-01-15_15h38.09.410,multiplicationStroop,2021.2.3,Win32,60.11060351,,,,,,,,,,,,,,,,,,,,,,,,,,,,,,,,,,,,,,,,,,,,,,,,,,0,5,5,4,1,stimulusFile/mult_blk5_INcongruent.xlsx,,
,,,,,,,,,,,,,,,811,2022-01-15_15h38.09.410,multiplicationStroop,2021.2.3,Win32,60.11060351,,,,,,,,,,,,,,,,,,,,,,,,,,,,,,,,,,,,,,,,,,,,,,,,,,,,,,,,space,4.0771