welcomeKey_resp.keys,welcomeKey_resp.rt,X Scale,Y Scale,rt_resp_4.keys,rt_resp_4.corr,rt_resp_4.rt,speedtest_2.thisRepN,speedtest_2.thisTrialN,speedtest_2.thisN,speedtest_2.thisIndex,speedtest_2.ran,numberSc,posX,positionLayout,participant,date,expName,psychopyVersion,OS,frameRate,ct_instrresp.keys,ct_instrresp.rt,key_resp_2.keys,key_resp_2.rt,ct_keyResp.keys,ct_keyResp.corr,ct_keyResp.rt,trials.thisRepN,trials.thisTrialN,trials.thisN,trials.thisIndex,trials.ran,leftNo,rightNo,displayProblem,numDistance,leftNo_size,rightNo_size,Dims,keyAnswer,TS_Loop.thisRepN,TS_Loop.thisTrialN,TS_Loop.thisN,TS_Loop.thisIndex,TS_Loop.ran,Condition,ActionInst,instrImage,mltptaskInst_resp.keys,mltptaskInst_resp.rt,continue_resp_2.keys,continue_resp_2.rt,multp_Answer,multi_RT,multiplyCorr,LoopingMultiply.thisRepN,LoopingMultiply.thisTrialN,LoopingMultiply.thisN,LoopingMultiply.thisIndex,LoopingMultiply.ran,factor1,multiplySign,factor2,multliplyProblem,physicalSize,orderOperand,sizeF1,sizeF2,mult_answer,trials_stroop.thisRepN,trials_stroop.thisTrialN,trials_stroop.thisN,trials_stroop.thisIndex,trials_stroop.ran,multiplicationFile,esckey_resp_2.keys,esckey_resp_2.rt
y,6.9214,62.2,62.7,right,1,0.755,0,0,0,9,1,2,200,right,8128,2022-01-20_21h29.19.148,multiplicationStroop,2021.2.3,Win32,59.96641881,,,,,,,,,,,,,,,,,,,,,,,,,,,,,,,,,,,,,,,,,,,,,,,,,,,,,,,,,
,,,,right,1,0.4281,0,1,1,11,1,4,200,right,8128,2022-01-20_21h29.19.148,multiplicationStroop,2021.2.3,Win32,59.96641881,,,,,,,,,,,,,,,,,,,,,,,,,,,,,,,,,,,,,,,,,,,,,,,,,,,,,,,,,
,,,,right,1,0.291,0,2,2,15,1,9,200,right,8128,2022-01-20_21h29.19.148,multiplicationStroop,2021.2.3,Win32,59.96641881,,,,,,,,,,,,,,,,,,,,,,,,,,,,,,,,,,,,,,,,,,,,,,,,,,,,,,,,,
,,,,left,1,0.3181,0,3,3,5,1,7,-200,left,8128,2022-01-20_21h29.19.148,multiplicationStroop,2021.2.3,Win32,59.96641881,,,,,,,,,,,,,,,,,,,,,,,,,,,,,,,,,,,,,,,,,,,,,,,,,,,,,,,,,
,,,,right,1,0.3339,0,4,4,10,1,3,200,right,8128,2022-01-20_21h29.19.148,multiplicationStroop,2021.2.3,Win32,59.96641881,,,,,,,,,,,,,,,,,,,,,,,,,,,,,,,,,,,,,,,,,,,,,,,,,,,,,,,,,
,,,,left,1,0.36,0,5,5,6,1,8,-200,left,8128,2022-01-20_21h29.19.148,multiplicationStroop,2021.2.3,Win32,59.96641881,,,,,,,,,,,,,,,,,,,,,,,,,,,,,,,,,,,,,,,,,,,,,,,,,,,,,,,,,
,,,,left,1,0.3269,0,6,6,7,1,9,-200,left,8128,2022-01-20_21h29.19.148,multiplicationStroop,2021.2.3,Win32,59.96641881,,,,,,,,,,,,,,,,,,,,,,,,,,,,,,,,,,,,,,,,,,,,,,,,,,,,,,,,,
,,,,right,1,0.3121,0,7,7,13,1,7,200,right,8128,2022-01-20_21h29.19.148,multiplicationStroop,2021.2.3,Win32,59.96641881,,,,,,,,,,,,,,,,,,,,,,,,,,,,,,,,,,,,,,,,,,,,,,,,,,,,,,,,,
,,,,left,1,0.3266,0,8,8,2,1,3,-200,left,8128,2022-01-20_21h29.19.148,multiplicationStroop,2021.2.3,Win32,59.96641881,,,,,,,,,,,,,,,,,,,,,,,,,,,,,,,,,,,,,,,,,,,,,,,,,,,,,,,,,
,,,,left,1,0.3295,0,9,9,1,1,2,-200,left,8128,2022-01-20_21h29.19.148,multiplicationStroop,2021.2.3,Win32,59.96641881,,,,,,,,,,,,,,,,,,,,,,,,,,,,,,,,,,,,,,,,,,,,,,,,,,,,,,,,,
,,,,right,1,0.3238,0,10,10,14,1,8,200,right,8128,2022-01-20_21h29.19.148,multiplicationStroop,2021.2.3,Win32,59.96641881,,,,,,,,,,,,,,,,,,,,,,,,,,,,,,,,,,,,,,,,,,,,,,,,,,,,,,,,,
,,,,left,1,0.3502,0,11,11,3,1,4,-200,left,8128,2022-01-20_21h29.19.148,multiplicationStroop,2021.2.3,Win32,59.96641881,,,,,,,,,,,,,,,,,,,,,,,,,,,,,,,,,,,,,,,,,,,,,,,,,,,,,,,,,
,,,,left,1,0.3188,0,12,12,0,1,1,-200,left,8128,2022-01-20_21h29.19.148,multiplicationStroop,2021.2.3,Win32,59.96641881,,,,,,,,,,,,,,,,,,,,,,,,,,,,,,,,,,,,,,,,,,,,,,,,,,,,,,,,,
,,,,right,1,0.3245,0,13,13,12,1,6,200,right,8128,2022-01-20_21h29.19.148,multiplicationStroop,2021.2.3,Win32,59.96641881,,,,,,,,,,,,,,,,,,,,,,,,,,,,,,,,,,,,,,,,,,,,,,,,,,,,,,,,,
,,,,right,1,0.3597,0,14,14,8,1,1,200,right,8128,2022-01-20_21h29.19.148,multiplicationStroop,2021.2.3,Win32,59.96641881,,,,,,,,,,,,,,,,,,,,,,,,,,,,,,,,,,,,,,,,,,,,,,,,,,,,,,,,,
,,,,left,1,0.3037,0,15,15,4,1,6,-200,left,8128,2022-01-20_21h29.19.148,multiplicationStroop,2021.2.3,Win32,59.96641881,,,,,,,,,,,,,,,,,,,,,,,,,,,,,,,,,,,,,,,,,,,,,,,,,,,,,,,,,
,,,,left,1,0.3385,1,0,16,3,1,4,-200,left,8128,2022-01-20_21h29.19.148,multiplicationStroop,2021.2.3,Win32,59.96641881,,,,,,,,,,,,,,,,,,,,,,,,,,,,,,,,,,,,,,,,,,,,,,,,,,,,,,,,,
,,,,right,1,0.2829,1,1,17,9,1,2,200,right,8128,2022-01-20_21h29.19.148,multiplicationStroop,2021.2.3,Win32,59.96641881,,,,,,,,,,,,,,,,,,,,,,,,,,,,,,,,,,,,,,,,,,,,,,,,,,,,,,,,,
,,,,right,1,0.393,1,2,18,15,1,9,200,right,8128,2022-01-20_21h29.19.148,multiplicationStroop,2021.2.3,Win32,59.96641881,,,,,,,,,,,,,,,,,,,,,,,,,,,,,,,,,,,,,,,,,,,,,,,,,,,,,,,,,
,,,,left,1,0.3232,1,3,19,1,1,2,-200,left,8128,2022-01-20_21h29.19.148,multiplicationStroop,2021.2.3,Win32,59.96641881,,,,,,,,,,,,,,,,,,,,,,,,,,,,,,,,,,,,,,,,,,,,,,,,,,,,,,,,,
,,,,left,1,0.2966,1,4,20,2,1,3,-200,left,8128,2022-01-20_21h29.19.148,multiplicationStroop,2021.2.3,Win32,59.96641881,,,,,,,,,,,,,,,,,,,,,,,,,,,,,,,,,,,,,,,,,,,,,,,,,,,,,,,,,
,,,,left,1,0.3748,1,5,21,0,1,1,-200,left,8128,2022-01-20_21h29.19.148,multiplicationStroop,2021.2.3,Win32,59.96641881,,,,,,,,,,,,,,,,,,,,,,,,,,,,,,,,,,,,,,,,,,,,,,,,,,,,,,,,,
,,,,right,1,0.3442,1,6,22,14,1,8,200,right,8128,2022-01-20_21h29.19.148,multiplicationStroop,2021.2.3,Win32,59.96641881,,,,,,,,,,,,,,,,,,,,,,,,,,,,,,,,,,,,,,,,,,,,,,,,,,,,,,,,,
,,,,right,1,0.2783,1,7,23,10,1,3,200,right,8128,2022-01-20_21h29.19.148,multiplicationStroop,2021.2.3,Win32,59.96641881,,,,,,,,,,,,,,,,,,,,,,,,,,,,,,,,,,,,,,,,,,,,,,,,,,,,,,,,,
,,,,right,0,0.3106,1,8,24,5,1,7,-200,left,8128,2022-01-20_21h29.19.148,multiplicationStroop,2021.2.3,Win32,59.96641881,,,,,,,,,,,,,,,,,,,,,,,,,,,,,,,,,,,,,,,,,,,,,,,,,,,,,,,,,
,,,,left,1,0.7607,1,9,25,7,1,9,-200,left,8128,2022-01-20_21h29.19.148,multiplicationStroop,2021.2.3,Win32,59.96641881,,,,,,,,,,,,,,,,,,,,,,,,,,,,,,,,,,,,,,,,,,,,,,,,,,,,,,,,,
,,,,right,1,0.4223,1,10,26,12,1,6,200,right,8128,2022-01-20_21h29.19.148,multiplicationStroop,2021.2.3,Win32,59.96641881,,,,,,,,,,,,,,,,,,,,,,,,,,,,,,,,,,,,,,,,,,,,,,,,,,,,,,,,,
,,,,right,1,0.3344,1,11,27,11,1,4,200,right,8128,2022-01-20_21h29.19.148,multiplicationStroop,2021.2.3,Win32,59.96641881,,,,,,,,,,,,,,,,,,,,,,,,,,,,,,,,,,,,,,,,,,,,,,,,,,,,,,,,,
,,,,right,1,0.2904,1,12,28,13,1,7,200,right,8128,2022-01-20_21h29.19.148,multiplicationStroop,2021.2.3,Win32,59.96641881,,,,,,,,,,,,,,,,,,,,,,,,,,,,,,,,,,,,,,,,,,,,,,,,,,,,,,,,,
,,,,left,1,0.2718,1,13,29,6,1,8,-200,left,8128,2022-01-20_21h29.19.148,multiplicationStroop,2021.2.3,Win32,59.96641881,,,,,,,,,,,,,,,,,,,,,,,,,,,,,,,,,,,,,,,,,,,,,,,,,,,,,,,,,
,,,,right,1,0.3504,1,14,30,8,1,1,200,right,8128,2022-01-20_21h29.19.148,multiplicationStroop,2021.2.3,Win32,59.96641881,,,,,,,,,,,,,,,,,,,,,,,,,,,,,,,,,,,,,,,,,,,,,,,,,,,,,,,,,
,,,,left,1,0.254,1,15,31,4,1,6,-200,left,8128,2022-01-20_21h29.19.148,multiplicationStroop,2021.2.3,Win32,59.96641881,,,,,,,,,,,,,,,,,,,,,,,,,,,,,,,,,,,,,,,,,,,,,,,,,,,,,,,,,
,,,,left,1,0.3229,2,0,32,3,1,4,-200,left,8128,2022-01-20_21h29.19.148,multiplicationStroop,2021.2.3,Win32,59.96641881,,,,,,,,,,,,,,,,,,,,,,,,,,,,,,,,,,,,,,,,,,,,,,,,,,,,,,,,,
,,,,left,1,0.3248,2,1,33,7,1,9,-200,left,8128,2022-01-20_21h29.19.148,multiplicationStroop,2021.2.3,Win32,59.96641881,,,,,,,,,,,,,,,,,,,,,,,,,,,,,,,,,,,,,,,,,,,,,,,,,,,,,,,,,
,,,,left,1,0.3092,2,2,34,0,1,1,-200,left,8128,2022-01-20_21h29.19.148,multiplicationStroop,2021.2.3,Win32,59.96641881,,,,,,,,,,,,,,,,,,,,,,,,,,,,,,,,,,,,,,,,,,,,,,,,,,,,,,,,,
,,,,left,1,0.3121,2,3,35,5,1,7,-200,left,8128,2022-01-20_21h29.19.148,multiplicationStroop,2021.2.3,Win32,59.96641881,,,,,,,,,,,,,,,,,,,,,,,,,,,,,,,,,,,,,,,,,,,,,,,,,,,,,,,,,
,,,,left,1,0.295,2,4,36,1,1,2,-200,left,8128,2022-01-20_21h29.19.148,multiplicationStroop,2021.2.3,Win32,59.96641881,,,,,,,,,,,,,,,,,,,,,,,,,,,,,,,,,,,,,,,,,,,,,,,,,,,,,,,,,
,,,,left,1,0.2979,2,5,37,6,1,8,-200,left,8128,2022-01-20_21h29.19.148,multiplicationStroop,2021.2.3,Win32,59.96641881,,,,,,,,,,,,,,,,,,,,,,,,,,,,,,,,,,,,,,,,,,,,,,,,,,,,,,,,,
,,,,right,1,0.4216,2,6,38,12,1,6,200,right,8128,2022-01-20_21h29.19.148,multiplicationStroop,2021.2.3,Win32,59.96641881,,,,,,,,,,,,,,,,,,,,,,,,,,,,,,,,,,,,,,,,,,,,,,,,,,,,,,,,,
,,,,right,0,0.3076,2,7,39,4,1,6,-200,left,8128,2022-01-20_21h29.19.148,multiplicationStroop,2021.2.3,Win32,59.96641881,,,,,,,,,,,,,,,,,,,,,,,,,,,,,,,,,,,,,,,,,,,,,,,,,,,,,,,,,
,,,,right,1,0.7223,2,8,40,13,1,7,200,right,8128,2022-01-20_21h29.19.148,multiplicationStroop,2021.2.3,Win32,59.96641881,,,,,,,,,,,,,,,,,,,,,,,,,,,,,,,,,,,,,,,,,,,,,,,,,,,,,,,,,
,,,,right,1,0.3832,2,9,41,10,1,3,200,right,8128,2022-01-20_21h29.19.148,multiplicationStroop,2021.2.3,Win32,59.96641881,,,,,,,,,,,,,,,,,,,,,,,,,,,,,,,,,,,,,,,,,,,,,,,,,,,,,,,,,
,,,,right,1,0.388,2,10,42,9,1,2,200,right,8128,2022-01-20_21h29.19.148,multiplicationStroop,2021.2.3,Win32,59.96641881,,,,,,,,,,,,,,,,,,,,,,,,,,,,,,,,,,,,,,,,,,,,,,,,,,,,,,,,,
,,,,right,1,0.295,2,11,43,11,1,4,200,right,8128,2022-01-20_21h29.19.148,multiplicationStroop,2021.2.3,Win32,59.96641881,,,,,,,,,,,,,,,,,,,,,,,,,,,,,,,,,,,,,,,,,,,,,,,,,,,,,,,,,
,,,,right,1,0.3023,2,12,44,15,1,9,200,right,8128,2022-01-20_21h29.19.148,multiplicationStroop,2021.2.3,Win32,59.96641881,,,,,,,,,,,,,,,,,,,,,,,,,,,,,,,,,,,,,,,,,,,,,,,,,,,,,,,,,
,,,,left,1,0.4219,2,13,45,2,1,3,-200,left,8128,2022-01-20_21h29.19.148,multiplicationStroop,2021.2.3,Win32,59.96641881,,,,,,,,,,,,,,,,,,,,,,,,,,,,,,,,,,,,,,,,,,,,,,,,,,,,,,,,,
,,,,right,1,0.4085,2,14,46,8,1,1,200,right,8128,2022-01-20_21h29.19.148,multiplicationStroop,2021.2.3,Win32,59.96641881,,,,,,,,,,,,,,,,,,,,,,,,,,,,,,,,,,,,,,,,,,,,,,,,,,,,,,,,,
,,,,right,1,0.6701,2,15,47,14,1,8,200,right,8128,2022-01-20_21h29.19.148,multiplicationStroop,2021.2.3,Win32,59.96641881,,,,,,,,,,,,,,,,,,,,,,,,,,,,,,,,,,,,,,,,,,,,,,,,,,,,,,,,,
,,,,right,1,0.3235,3,0,48,9,1,2,200,right,8128,2022-01-20_21h29.19.148,multiplicationStroop,2021.2.3,Win32,59.96641881,,,,,,,,,,,,,,,,,,,,,,,,,,,,,,,,,,,,,,,,,,,,,,,,,,,,,,,,,
,,,,right,1,0.3153,3,1,49,12,1,6,200,right,8128,2022-01-20_21h29.19.148,multiplicationStroop,2021.2.3,Win32,59.96641881,,,,,,,,,,,,,,,,,,,,,,,,,,,,,,,,,,,,,,,,,,,,,,,,,,,,,,,,,
,,,,left,1,1.0254,3,2,50,3,1,4,-200,left,8128,2022-01-20_21h29.19.148,multiplicationStroop,2021.2.3,Win32,59.96641881,,,,,,,,,,,,,,,,,,,,,,,,,,,,,,,,,,,,,,,,,,,,,,,,,,,,,,,,,
,,,,left,1,0.4255,3,3,51,7,1,9,-200,left,8128,2022-01-20_21h29.19.148,multiplicationStroop,2021.2.3,Win32,59.96641881,,,,,,,,,,,,,,,,,,,,,,,,,,,,,,,,,,,,,,,,,,,,,,,,,,,,,,,,,
,,,,left,1,0.2859,3,4,52,0,1,1,-200,left,8128,2022-01-20_21h29.19.148,multiplicationStroop,2021.2.3,Win32,59.96641881,,,,,,,,,,,,,,,,,,,,,,,,,,,,,,,,,,,,,,,,,,,,,,,,,,,,,,,,,
,,,,right,1,0.4446,3,5,53,8,1,1,200,right,8128,2022-01-20_21h29.19.148,multiplicationStroop,2021.2.3,Win32,59.96641881,,,,,,,,,,,,,,,,,,,,,,,,,,,,,,,,,,,,,,,,,,,,,,,,,,,,,,,,,
,,,,right,1,0.5904,3,6,54,10,1,3,200,right,8128,2022-01-20_21h29.19.148,multiplicationStroop,2021.2.3,Win32,59.96641881,,,,,,,,,,,,,,,,,,,,,,,,,,,,,,,,,,,,,,,,,,,,,,,,,,,,,,,,,
,,,,right,1,0.4264,3,7,55,11,1,4,200,right,8128,2022-01-20_21h29.19.148,multiplicationStroop,2021.2.3,Win32,59.96641881,,,,,,,,,,,,,,,,,,,,,,,,,,,,,,,,,,,,,,,,,,,,,,,,,,,,,,,,,
,,,,left,1,0.4121,3,8,56,4,1,6,-200,left,8128,2022-01-20_21h29.19.148,multiplicationStroop,2021.2.3,Win32,59.96641881,,,,,,,,,,,,,,,,,,,,,,,,,,,,,,,,,,,,,,,,,,,,,,,,,,,,,,,,,
,,,,left,1,0.2902,3,9,57,2,1,3,-200,left,8128,2022-01-20_21h29.19.148,multiplicationStroop,2021.2.3,Win32,59.96641881,,,,,,,,,,,,,,,,,,,,,,,,,,,,,,,,,,,,,,,,,,,,,,,,,,,,,,,,,
,,,,left,1,0.279,3,10,58,5,1,7,-200,left,8128,2022-01-20_21h29.19.148,multiplicationStroop,2021.2.3,Win32,59.96641881,,,,,,,,,,,,,,,,,,,,,,,,,,,,,,,,,,,,,,,,,,,,,,,,,,,,,,,,,
,,,,left,1,0.2708,3,11,59,6,1,8,-200,left,8128,2022-01-20_21h29.19.148,multiplicationStroop,2021.2.3,Win32,59.96641881,,,,,,,,,,,,,,,,,,,,,,,,,,,,,,,,,,,,,,,,,,,,,,,,,,,,,,,,,
,,,,left,1,0.2792,3,12,60,1,1,2,-200,left,8128,2022-01-20_21h29.19.148,multiplicationStroop,2021.2.3,Win32,59.96641881,,,,,,,,,,,,,,,,,,,,,,,,,,,,,,,,,,,,,,,,,,,,,,,,,,,,,,,,,
,,,,right,1,0.3901,3,13,61,13,1,7,200,right,8128,2022-01-20_21h29.19.148,multiplicationStroop,2021.2.3,Win32,59.96641881,,,,,,,,,,,,,,,,,,,,,,,,,,,,,,,,,,,,,,,,,,,,,,,,,,,,,,,,,
,,,,right,1,0.3628,3,14,62,14,1,8,200,right,8128,2022-01-20_21h29.19.148,multiplicationStroop,2021.2.3,Win32,59.96641881,,,,,,,,,,,,,,,,,,,,,,,,,,,,,,,,,,,,,,,,,,,,,,,,,,,,,,,,,
,,,,right,1,0.2806,3,15,63,15,1,9,200,right,8128,2022-01-20_21h29.19.148,multiplicationStroop,2021.2.3,Win32,59.96641881,,,,,,,,,,,,,,,,,,,,,,,,,,,,,,,,,,,,,,,,,,,,,,,,,,,,,,,,,
,,,,,,,,,,,,,,,8128,2022-01-20_21h29.19.148,multiplicationStroop,2021.2.3,Win32,59.96641881,space,14.4731,space,10.2498,left,1,0.9072,0,0,0,54,1,7,6,7 | 6,1,1.6933,1.6933,neutral,left,,,,,,stimulusFile/magnitude.xlsx,,,,,,,,,,,,,,,,,,,,,,,,,,,,,,,
,,,,,,,,,,,,,,,8128,2022-01-20_21h29.19.148,multiplicationStroop,2021.2.3,Win32,59.96641881,,,,,right,0,0.6969,0,1,1,29,1,4,3,4 | 3,1,1.4111,1.9756,incongruent,left,,,,,,stimulusFile/magnitude.xlsx,,,,,,,,,,,,,,,,,,,,,,,,,,,,,,,
,,,,,,,,,,,,,,,8128,2022-01-20_21h29.19.148,multiplicationStroop,2021.2.3,Win32,59.96641881,,,,,left,1,1.3383,0,2,2,63,1,9,7,9 | 7,2,1.6933,1.6933,neutral,left,,,,,,stimulusFile/magnitude.xlsx,,,,,,,,,,,,,,,,,,,,,,,,,,,,,,,
,,,,,,,,,,,,,,,8128,2022-01-20_21h29.19.148,multiplicationStroop,2021.2.3,Win32,59.96641881,,,,,right,1,1.1384,0,3,3,41,1,2,7,2 | 7,5,1.9756,1.4111,incongruent,right,,,,,,stimulusFile/magnitude.xlsx,,,,,,,,,,,,,,,,,,,,,,,,,,,,,,,
,,,,,,,,,,,,,,,8128,2022-01-20_21h29.19.148,multiplicationStroop,2021.2.3,Win32,59.96641881,,,,,right,1,1.0213,0,4,4,26,1,6,7,6 | 7,1,1.9756,1.4111,incongruent,right,,,,,,stimulusFile/magnitude.xlsx,,,,,,,,,,,,,,,,,,,,,,,,,,,,,,,
,,,,,,,,,,,,,,,8128,2022-01-20_21h29.19.148,multiplicationStroop,2021.2.3,Win32,59.96641881,,,,,right,1,0.8535,0,5,5,49,1,3,4,3 | 4,1,1.6933,1.6933,neutral,right,,,,,,stimulusFile/magnitude.xlsx,,,,,,,,,,,,,,,,,,,,,,,,,,,,,,,
,,,,,,,,,,,,,,,8128,2022-01-20_21h29.19.148,multiplicationStroop,2021.2.3,Win32,59.96641881,,,,,left,1,0.7012,0,6,6,69,1,7,2,7 | 2,5,1.6933,1.6933,neutral,left,,,,,,stimulusFile/magnitude.xlsx,,,,,,,,,,,,,,,,,,,,,,,,,,,,,,,
,,,,,,,,,,,,,,,8128,2022-01-20_21h29.19.148,multiplicationStroop,2021.2.3,Win32,59.96641881,,,,,left,1,0.9442,0,7,7,38,1,8,6,8 | 6,2,1.4111,1.9756,incongruent,left,,,,,,stimulusFile/magnitude.xlsx,,,,,,,,,,,,,,,,,,,,,,,,,,,,,,,
,,,,,,,,,,,,,,,8128,2022-01-20_21h29.19.148,multiplicationStroop,2021.2.3,Win32,59.96641881,,,,,right,1,0.8723,0,8,8,43,1,4,9,4 | 9,5,1.9756,1.4111,incongruent,right,,,,,,stimulusFile/magnitude.xlsx,,,,,,,,,,,,,,,,,,,,,,,,,,,,,,,
,,,,,,,,,,,,,,,8128,2022-01-20_21h29.19.148,multiplicationStroop,2021.2.3,Win32,59.96641881,,,,,left,1,0.8087,0,9,9,62,1,8,6,8 | 6,2,1.6933,1.6933,neutral,left,,,,,,stimulusFile/magnitude.xlsx,,,,,,,,,,,,,,,,,,,,,,,,,,,,,,,
,,,,,,,,,,,,,,,8128,2022-01-20_21h29.19.148,multiplicationStroop,2021.2.3,Win32,59.96641881,,,,,right,1,0.8434,0,10,10,35,1,7,9,7 | 9,2,1.9756,1.4111,incongruent,right,,,,,,stimulusFile/magnitude.xlsx,,,,,,,,,,,,,,,,,,,,,,,,,,,,,,,
,,,,,,,,,,,,,,,8128,2022-01-20_21h29.19.148,multiplicationStroop,2021.2.3,Win32,59.96641881,,,,,right,1,0.8424,0,11,11,2,1,6,7,6 | 7,1,1.4111,1.9756,congruent,right,,,,,,stimulusFile/magnitude.xlsx,,,,,,,,,,,,,,,,,,,,,,,,,,,,,,,
,,,,,,,,,,,,,,,8128,2022-01-20_21h29.19.148,multiplicationStroop,2021.2.3,Win32,59.96641881,,,,,right,1,0.7664,0,12,12,1,1,3,4,3 | 4,1,1.4111,1.9756,congruent,right,,,,,,stimulusFile/magnitude.xlsx,,,,,,,,,,,,,,,,,,,,,,,,,,,,,,,
,,,,,,,,,,,,,,,8128,2022-01-20_21h29.19.148,multiplicationStroop,2021.2.3,Win32,59.96641881,,,,,right,1,0.8761,0,13,13,57,1,2,4,2 | 4,2,1.6933,1.6933,neutral,right,,,,,,stimulusFile/magnitude.xlsx,,,,,,,,,,,,,,,,,,,,,,,,,,,,,,,
,,,,,,,,,,,,,,,8128,2022-01-20_21h29.19.148,multiplicationStroop,2021.2.3,Win32,59.96641881,,,,,left,1,0.7257,0,14,14,60,1,3,1,3 | 1,2,1.6933,1.6933,neutral,left,,,,,,stimulusFile/magnitude.xlsx,,,,,,,,,,,,,,,,,,,,,,,,,,,,,,,
,,,,,,,,,,,,,,,8128,2022-01-20_21h29.19.148,multiplicationStroop,2021.2.3,Win32,59.96641881,,,,,left,0,0.692,0,15,15,25,1,3,4,3 | 4,1,1.9756,1.4111,incongruent,right,,,,,,stimulusFile/magnitude.xlsx,,,,,,,,,,,,,,,,,,,,,,,,,,,,,,,
,,,,,,,,,,,,,,,8128,2022-01-20_21h29.19.148,multiplicationStroop,2021.2.3,Win32,59.96641881,,,,,right,1,0.8236,0,16,16,9,1,2,4,2 | 4,2,1.4111,1.9756,congruent,right,,,,,,stimulusFile/magnitude.xlsx,,,,,,,,,,,,,,,,,,,,,,,,,,,,,,,
,,,,,,,,,,,,,,,8128,2022-01-20_21h29.19.148,multiplicationStroop,2021.2.3,Win32,59.96641881,,,,,left,1,0.7515,0,17,17,21,1,7,2,7 | 2,5,1.9756,1.4111,congruent,left,,,,,,stimulusFile/magnitude.xlsx,,,,,,,,,,,,,,,,,,,,,,,,,,,,,,,
,,,,,,,,,,,,,,,8128,2022-01-20_21h29.19.148,multiplicationStroop,2021.2.3,Win32,59.96641881,,,,,left,1,0.7155,0,18,18,12,1,3,1,3 | 1,2,1.9756,1.4111,congruent,left,,,,,,stimulusFile/magnitude.xlsx,,,,,,,,,,,,,,,,,,,,,,,,,,,,,,,
,,,,,,,,,,,,,,,8128,2022-01-20_21h29.19.148,multiplicationStroop,2021.2.3,Win32,59.96641881,,,,,left,1,0.7342,0,19,19,53,1,4,3,4 | 3,1,1.6933,1.6933,neutral,left,,,,,,stimulusFile/magnitude.xlsx,,,,,,,,,,,,,,,,,,,,,,,,,,,,,,,
,,,,,,,,,,,,,,,8128,2022-01-20_21h29.19.148,multiplicationStroop,2021.2.3,Win32,59.96641881,,,,,right,1,0.6497,0,20,20,10,1,6,8,6 | 8,2,1.4111,1.9756,congruent,right,,,,,,stimulusFile/magnitude.xlsx,,,,,,,,,,,,,,,,,,,,,,,,,,,,,,,
,,,,,,,,,,,,,,,8128,2022-01-20_21h29.19.148,multiplicationStroop,2021.2.3,Win32,59.96641881,,,,,right,1,0.6387,0,21,21,66,1,3,8,3 | 8,5,1.6933,1.6933,neutral,right,,,,,,stimulusFile/magnitude.xlsx,,,,,,,,,,,,,,,,,,,,,,,,,,,,,,,
,,,,,,,,,,,,,,,8128,2022-01-20_21h29.19.148,multiplicationStroop,2021.2.3,Win32,59.96641881,,,,,left,1,0.8035,0,22,22,37,1,4,2,4 | 2,2,1.4111,1.9756,incongruent,left,,,,,,stimulusFile/magnitude.xlsx,,,,,,,,,,,,,,,,,,,,,,,,,,,,,,,
,,,,,,,,,,,,,,,8128,2022-01-20_21h29.19.148,multiplicationStroop,2021.2.3,Win32,59.96641881,,,,,right,1,0.6689,0,23,23,8,1,1,3,1 | 3,2,1.4111,1.9756,congruent,right,,,,,,stimulusFile/magnitude.xlsx,,,,,,,,,,,,,,,,,,,,,,,,,,,,,,,
,,,,,,,,,,,,,,,8128,2022-01-20_21h29.19.148,multiplicationStroop,2021.2.3,Win32,59.96641881,,,,,right,1,0.6238,0,24,24,65,1,2,7,2 | 7,5,1.6933,1.6933,neutral,right,,,,,,stimulusFile/magnitude.xlsx,,,,,,,,,,,,,,,,,,,,,,,,,,,,,,,
,,,,,,,,,,,,,,,8128,2022-01-20_21h29.19.148,multiplicationStroop,2021.2.3,Win32,59.96641881,,,,,right,1,0.7403,0,25,25,11,1,7,9,7 | 9,2,1.4111,1.9756,congruent,right,,,,,,stimulusFile/magnitude.xlsx,,,,,,,,,,,,,,,,,,,,,,,,,,,,,,,
,,,,,,,,,,,,,,,8128,2022-01-20_21h29.19.148,multiplicationStroop,2021.2.3,Win32,59.96641881,,,,,right,1,1.0125,0,26,26,33,1,2,4,2 | 4,2,1.9756,1.4111,incongruent,right,,,,,,stimulusFile/magnitude.xlsx,,,,,,,,,,,,,,,,,,,,,,,,,,,,,,,
,,,,,,,,,,,,,,,8128,2022-01-20_21h29.19.148,multiplicationStroop,2021.2.3,Win32,59.96641881,,,,,right,1,0.895,0,27,27,58,1,6,8,6 | 8,2,1.6933,1.6933,neutral,right,,,,,,stimulusFile/magnitude.xlsx,,,,,,,,,,,,,,,,,,,,,,,,,,,,,,,
,,,,,,,,,,,,,,,8128,2022-01-20_21h29.19.148,multiplicationStroop,2021.2.3,Win32,59.96641881,,,,,right,0,0.5969,0,28,28,31,1,9,8,9 | 8,1,1.4111,1.9756,incongruent,left,,,,,,stimulusFile/magnitude.xlsx,,,,,,,,,,,,,,,,,,,,,,,,,,,,,,,
,,,,,,,,,,,,,,,8128,2022-01-20_21h29.19.148,multiplicationStroop,2021.2.3,Win32,59.96641881,,,,,left,1,0.9056,0,29,29,55,1,9,8,9 | 8,1,1.6933,1.6933,neutral,left,,,,,,stimulusFile/magnitude.xlsx,,,,,,,,,,,,,,,,,,,,,,,,,,,,,,,
,,,,,,,,,,,,,,,8128,2022-01-20_21h29.19.148,multiplicationStroop,2021.2.3,Win32,59.96641881,,,,,left,1,0.8048,0,30,30,5,1,4,3,4 | 3,1,1.9756,1.4111,congruent,left,,,,,,stimulusFile/magnitude.xlsx,,,,,,,,,,,,,,,,,,,,,,,,,,,,,,,
,,,,,,,,,,,,,,,8128,2022-01-20_21h29.19.148,multiplicationStroop,2021.2.3,Win32,59.96641881,,,,,right,1,0.6877,0,31,31,18,1,3,8,3 | 8,5,1.4111,1.9756,congruent,right,,,,,,stimulusFile/magnitude.xlsx,,,,,,,,,,,,,,,,,,,,,,,,,,,,,,,
,,,,,,,,,,,,,,,8128,2022-01-20_21h29.19.148,multiplicationStroop,2021.2.3,Win32,59.96641881,,,,,left,1,0.6432,0,32,32,23,1,9,4,9 | 4,5,1.9756,1.4111,congruent,left,,,,,,stimulusFile/magnitude.xlsx,,,,,,,,,,,,,,,,,,,,,,,,,,,,,,,
,,,,,,,,,,,,,,,8128,2022-01-20_21h29.19.148,multiplicationStroop,2021.2.3,Win32,59.96641881,,,,,right,1,0.9737,0,33,33,24,1,1,2,1 | 2,1,1.9756,1.4111,incongruent,right,,,,,,stimulusFile/magnitude.xlsx,,,,,,,,,,,,,,,,,,,,,,,,,,,,,,,
,,,,,,,,,,,,,,,8128,2022-01-20_21h29.19.148,multiplicationStroop,2021.2.3,Win32,59.96641881,,,,,left,1,0.7893,0,34,34,6,1,7,6,7 | 6,1,1.9756,1.4111,congruent,left,,,,,,stimulusFile/magnitude.xlsx,,,,,,,,,,,,,,,,,,,,,,,,,,,,,,,
,,,,,,,,,,,,,,,8128,2022-01-20_21h29.19.148,multiplicationStroop,2021.2.3,Win32,59.96641881,,,,,left,1,0.7478,0,35,35,22,1,8,3,8 | 3,5,1.9756,1.4111,congruent,left,,,,,,stimulusFile/magnitude.xlsx,,,,,,,,,,,,,,,,,,,,,,,,,,,,,,,
,,,,,,,,,,,,,,,8128,2022-01-20_21h29.19.148,multiplicationStroop,2021.2.3,Win32,59.96641881,,,,,right,1,0.7538,0,36,36,3,1,8,9,8 | 9,1,1.4111,1.9756,congruent,right,,,,,,stimulusFile/magnitude.xlsx,,,,,,,,,,,,,,,,,,,,,,,,,,,,,,,
,,,,,,,,,,,,,,,8128,2022-01-20_21h29.19.148,multiplicationStroop,2021.2.3,Win32,59.96641881,,,,,right,1,0.976,0,37,37,59,1,7,9,7 | 9,2,1.6933,1.6933,neutral,right,,,,,,stimulusFile/magnitude.xlsx,,,,,,,,,,,,,,,,,,,,,,,,,,,,,,,
,,,,,,,,,,,,,,,8128,2022-01-20_21h29.19.148,multiplicationStroop,2021.2.3,Win32,59.96641881,,,,,left,1,0.7038,0,38,38,20,1,6,1,6 | 1,5,1.9756,1.4111,congruent,left,,,,,,stimulusFile/magnitude.xlsx,,,,,,,,,,,,,,,,,,,,,,,,,,,,,,,
,,,,,,,,,,,,,,,8128,2022-01-20_21h29.19.148,multiplicationStroop,2021.2.3,Win32,59.96641881,,,,,left,1,0.7507,0,39,39,15,1,9,7,9 | 7,2,1.9756,1.4111,congruent,left,,,,,,stimulusFile/magnitude.xlsx,,,,,,,,,,,,,,,,,,,,,,,,,,,,,,,
,,,,,,,,,,,,,,,8128,2022-01-20_21h29.19.148,multiplicationStroop,2021.2.3,Win32,59.96641881,,,,,right,1,0.861,0,40,40,27,1,8,9,8 | 9,1,1.9756,1.4111,incongruent,right,,,,,,stimulusFile/magnitude.xlsx,,,,,,,,,,,,,,,,,,,,,,,,,,,,,,,
,,,,,,,,,,,,,,,8128,2022-01-20_21h29.19.148,multiplicationStroop,2021.2.3,Win32,59.96641881,,,,,left,1,0.7741,0,41,41,44,1,6,1,6 | 1,5,1.4111,1.9756,incongruent,left,,,,,,stimulusFile/magnitude.xlsx,,,,,,,,,,,,,,,,,,,,,,,,,,,,,,,
,,,,,,,,,,,,,,,8128,2022-01-20_21h29.19.148,multiplicationStroop,2021.2.3,Win32,59.96641881,,,,,right,1,0.7502,0,42,42,32,1,1,3,1 | 3,2,1.9756,1.4111,incongruent,right,,,,,,stimulusFile/magnitude.xlsx,,,,,,,,,,,,,,,,,,,,,,,,,,,,,,,
,,,,,,,,,,,,,,,8128,2022-01-20_21h29.19.148,multiplicationStroop,2021.2.3,Win32,59.96641881,,,,,right,1,0.7739,0,43,43,16,1,1,6,1 | 6,5,1.4111,1.9756,congruent,right,,,,,,stimulusFile/magnitude.xlsx,,,,,,,,,,,,,,,,,,,,,,,,,,,,,,,
,,,,,,,,,,,,,,,8128,2022-01-20_21h29.19.148,multiplicationStroop,2021.2.3,Win32,59.96641881,,,,,left,1,0.6243,0,44,44,4,1,2,1,2 | 1,1,1.9756,1.4111,congruent,left,,,,,,stimulusFile/magnitude.xlsx,,,,,,,,,,,,,,,,,,,,,,,,,,,,,,,
,,,,,,,,,,,,,,,8128,2022-01-20_21h29.19.148,multiplicationStroop,2021.2.3,Win32,59.96641881,,,,,left,1,0.8932,0,45,45,47,1,9,4,9 | 4,5,1.4111,1.9756,incongruent,left,,,,,,stimulusFile/magnitude.xlsx,,,,,,,,,,,,,,,,,,,,,,,,,,,,,,,
,,,,,,,,,,,,,,,8128,2022-01-20_21h29.19.148,multiplicationStroop,2021.2.3,Win32,59.96641881,,,,,left,1,0.6228,0,46,46,68,1,6,1,6 | 1,5,1.6933,1.6933,neutral,left,,,,,,stimulusFile/magnitude.xlsx,,,,,,,,,,,,,,,,,,,,,,,,,,,,,,,
,,,,,,,,,,,,,,,8128,2022-01-20_21h29.19.148,multiplicationStroop,2021.2.3,Win32,59.96641881,,,,,right,1,0.7575,0,47,47,42,1,3,8,3 | 8,5,1.9756,1.4111,incongruent,right,,,,,,stimulusFile/magnitude.xlsx,,,,,,,,,,,,,,,,,,,,,,,,,,,,,,,
,,,,,,,,,,,,,,,8128,2022-01-20_21h29.19.148,multiplicationStroop,2021.2.3,Win32,59.96641881,,,,,left,1,0.7496,0,48,48,28,1,2,1,2 | 1,1,1.4111,1.9756,incongruent,left,,,,,,stimulusFile/magnitude.xlsx,,,,,,,,,,,,,,,,,,,,,,,,,,,,,,,
,,,,,,,,,,,,,,,8128,2022-01-20_21h29.19.148,multiplicationStroop,2021.2.3,Win32,59.96641881,,,,,left,1,0.8814,0,49,49,7,1,9,8,9 | 8,1,1.9756,1.4111,congruent,left,,,,,,stimulusFile/magnitude.xlsx,,,,,,,,,,,,,,,,,,,,,,,,,,,,,,,
,,,,,,,,,,,,,,,8128,2022-01-20_21h29.19.148,multiplicationStroop,2021.2.3,Win32,59.96641881,,,,,right,1,0.8394,0,50,50,19,1,4,9,4 | 9,5,1.4111,1.9756,congruent,right,,,,,,stimulusFile/magnitude.xlsx,,,,,,,,,,,,,,,,,,,,,,,,,,,,,,,
,,,,,,,,,,,,,,,8128,2022-01-20_21h29.19.148,multiplicationStroop,2021.2.3,Win32,59.96641881,,,,,left,1,0.8212,0,51,51,30,1,7,6,7 | 6,1,1.4111,1.9756,incongruent,left,,,,,,stimulusFile/magnitude.xlsx,,,,,,,,,,,,,,,,,,,,,,,,,,,,,,,
,,,,,,,,,,,,,,,8128,2022-01-20_21h29.19.148,multiplicationStroop,2021.2.3,Win32,59.96641881,,,,,left,1,0.7593,0,52,52,14,1,8,6,8 | 6,2,1.9756,1.4111,congruent,left,,,,,,stimulusFile/magnitude.xlsx,,,,,,,,,,,,,,,,,,,,,,,,,,,,,,,
,,,,,,,,,,,,,,,8128,2022-01-20_21h29.19.148,multiplicationStroop,2021.2.3,Win32,59.96641881,,,,,left,1,0.6603,0,53,53,45,1,7,2,7 | 2,5,1.4111,1.9756,incongruent,left,,,,,,stimulusFile/magnitude.xlsx,,,,,,,,,,,,,,,,,,,,,,,,,,,,,,,
,,,,,,,,,,,,,,,8128,2022-01-20_21h29.19.148,multiplicationStroop,2021.2.3,Win32,59.96641881,,,,,right,1,0.6385,0,54,54,64,1,1,6,1 | 6,5,1.6933,1.6933,neutral,right,,,,,,stimulusFile/magnitude.xlsx,,,,,,,,,,,,,,,,,,,,,,,,,,,,,,,
,,,,,,,,,,,,,,,8128,2022-01-20_21h29.19.148,multiplicationStroop,2021.2.3,Win32,59.96641881,,,,,left,1,0.7969,0,55,55,61,1,4,2,4 | 2,2,1.6933,1.6933,neutral,left,,,,,,stimulusFile/magnitude.xlsx,,,,,,,,,,,,,,,,,,,,,,,,,,,,,,,
,,,,,,,,,,,,,,,8128,2022-01-20_21h29.19.148,multiplicationStroop,2021.2.3,Win32,59.96641881,,,,,left,1,0.6072,0,56,56,13,1,4,2,4 | 2,2,1.9756,1.4111,congruent,left,,,,,,stimulusFile/magnitude.xlsx,,,,,,,,,,,,,,,,,,,,,,,,,,,,,,,
,,,,,,,,,,,,,,,8128,2022-01-20_21h29.19.148,multiplicationStroop,2021.2.3,Win32,59.96641881,,,,,right,1,0.6744,0,57,57,56,1,1,3,1 | 3,2,1.6933,1.6933,neutral,right,,,,,,stimulusFile/magnitude.xlsx,,,,,,,,,,,,,,,,,,,,,,,,,,,,,,,
,,,,,,,,,,,,,,,8128,2022-01-20_21h29.19.148,multiplicationStroop,2021.2.3,Win32,59.96641881,,,,,left,1,0.6471,0,58,58,70,1,8,3,8 | 3,5,1.6933,1.6933,neutral,left,,,,,,stimulusFile/magnitude.xlsx,,,,,,,,,,,,,,,,,,,,,,,,,,,,,,,
,,,,,,,,,,,,,,,8128,2022-01-20_21h29.19.148,multiplicationStroop,2021.2.3,Win32,59.96641881,,,,,left,1,0.6872,0,59,59,71,1,9,4,9 | 4,5,1.6933,1.6933,neutral,left,,,,,,stimulusFile/magnitude.xlsx,,,,,,,,,,,,,,,,,,,,,,,,,,,,,,,
,,,,,,,,,,,,,,,8128,2022-01-20_21h29.19.148,multiplicationStroop,2021.2.3,Win32,59.96641881,,,,,right,1,0.6373,0,60,60,67,1,4,9,4 | 9,5,1.6933,1.6933,neutral,right,,,,,,stimulusFile/magnitude.xlsx,,,,,,,,,,,,,,,,,,,,,,,,,,,,,,,
,,,,,,,,,,,,,,,8128,2022-01-20_21h29.19.148,multiplicationStroop,2021.2.3,Win32,59.96641881,,,,,left,1,0.7515,0,61,61,39,1,9,7,9 | 7,2,1.4111,1.9756,incongruent,left,,,,,,stimulusFile/magnitude.xlsx,,,,,,,,,,,,,,,,,,,,,,,,,,,,,,,
,,,,,,,,,,,,,,,8128,2022-01-20_21h29.19.148,multiplicationStroop,2021.2.3,Win32,59.96641881,,,,,left,1,0.6904,0,62,62,46,1,8,3,8 | 3,5,1.4111,1.9756,incongruent,left,,,,,,stimulusFile/magnitude.xlsx,,,,,,,,,,,,,,,,,,,,,,,,,,,,,,,
,,,,,,,,,,,,,,,8128,2022-01-20_21h29.19.148,multiplicationStroop,2021.2.3,Win32,59.96641881,,,,,right,1,0.7351,0,63,63,48,1,1,2,1 | 2,1,1.6933,1.6933,neutral,right,,,,,,stimulusFile/magnitude.xlsx,,,,,,,,,,,,,,,,,,,,,,,,,,,,,,,
,,,,,,,,,,,,,,,8128,2022-01-20_21h29.19.148,multiplicationStroop,2021.2.3,Win32,59.96641881,,,,,left,1,0.6601,0,64,64,52,1,2,1,2 | 1,1,1.6933,1.6933,neutral,left,,,,,,stimulusFile/magnitude.xlsx,,,,,,,,,,,,,,,,,,,,,,,,,,,,,,,
,,,,,,,,,,,,,,,8128,2022-01-20_21h29.19.148,multiplicationStroop,2021.2.3,Win32,59.96641881,,,,,left,1,0.7105,0,65,65,36,1,3,1,3 | 1,2,1.4111,1.9756,incongruent,left,,,,,,stimulusFile/magnitude.xlsx,,,,,,,,,,,,,,,,,,,,,,,,,,,,,,,
,,,,,,,,,,,,,,,8128,2022-01-20_21h29.19.148,multiplicationStroop,2021.2.3,Win32,59.96641881,,,,,right,1,0.8022,0,66,66,34,1,6,8,6 | 8,2,1.9756,1.4111,incongruent,right,,,,,,stimulusFile/magnitude.xlsx,,,,,,,,,,,,,,,,,,,,,,,,,,,,,,,
,,,,,,,,,,,,,,,8128,2022-01-20_21h29.19.148,multiplicationStroop,2021.2.3,Win32,59.96641881,,,,,right,1,0.8025,0,67,67,51,1,8,9,8 | 9,1,1.6933,1.6933,neutral,right,,,,,,stimulusFile/magnitude.xlsx,,,,,,,,,,,,,,,,,,,,,,,,,,,,,,,
,,,,,,,,,,,,,,,8128,2022-01-20_21h29.19.148,multiplicationStroop,2021.2.3,Win32,59.96641881,,,,,right,1,0.6337,0,68,68,40,1,1,6,1 | 6,5,1.9756,1.4111,incongruent,right,,,,,,stimulusFile/magnitude.xlsx,,,,,,,,,,,,,,,,,,,,,,,,,,,,,,,
,,,,,,,,,,,,,,,8128,2022-01-20_21h29.19.148,multiplicationStroop,2021.2.3,Win32,59.96641881,,,,,right,1,0.6011,0,69,69,17,1,2,7,2 | 7,5,1.4111,1.9756,congruent,right,,,,,,stimulusFile/magnitude.xlsx,,,,,,,,,,,,,,,,,,,,,,,,,,,,,,,
,,,,,,,,,,,,,,,8128,2022-01-20_21h29.19.148,multiplicationStroop,2021.2.3,Win32,59.96641881,,,,,right,1,1.7874,0,70,70,50,1,6,7,6 | 7,1,1.6933,1.6933,neutral,right,,,,,,stimulusFile/magnitude.xlsx,,,,,,,,,,,,,,,,,,,,,,,,,,,,,,,
,,,,,,,,,,,,,,,8128,2022-01-20_21h29.19.148,multiplicationStroop,2021.2.3,Win32,59.96641881,,,,,right,1,0.6984,0,71,71,0,1,1,2,1 | 2,1,1.4111,1.9756,congruent,right,,,,,,stimulusFile/magnitude.xlsx,,,,,,,,,,,,,,,,,,,,,,,,,,,,,,,
,,,,,,,,,,,,,,,8128,2022-01-20_21h29.19.148,multiplicationStroop,2021.2.3,Win32,59.96641881,,,,,,,,,,,,,,,,,,,,,0,0,0,0,1,stimulusFile/magnitude.xlsx,NUMERICALLY larger (larger coefficient).,images/numericallyLarger.png,,,,,,,,,,,,,,,,,,,,,,,,,,,,,
,,,,,,,,,,,,,,,8128,2022-01-20_21h29.19.148,multiplicationStroop,2021.2.3,Win32,59.96641881,space,4.6969,space,1.7486,right,1,0.7707,0,0,0,17,1,2,7,2 | 7,5,1.4111,1.9756,congruent,right,,,,,,stimulusFile/physical.xlsx,,,,,,,,,,,,,,,,,,,,,,,,,,,,,,,
,,,,,,,,,,,,,,,8128,2022-01-20_21h29.19.148,multiplicationStroop,2021.2.3,Win32,59.96641881,,,,,right,1,0.6204,0,1,1,46,1,8,3,8 | 3,5,1.4111,1.9756,incongruent,right,,,,,,stimulusFile/physical.xlsx,,,,,,,,,,,,,,,,,,,,,,,,,,,,,,,
,,,,,,,,,,,,,,,8128,2022-01-20_21h29.19.148,multiplicationStroop,2021.2.3,Win32,59.96641881,,,,,right,1,0.5584,0,2,2,60,1,3,3,3 | 3,0,1.4111,1.9756,neutral,right,,,,,,stimulusFile/physical.xlsx,,,,,,,,,,,,,,,,,,,,,,,,,,,,,,,
,,,,,,,,,,,,,,,8128,2022-01-20_21h29.19.148,multiplicationStroop,2021.2.3,Win32,59.96641881,,,,,left,1,0.5419,0,3,3,68,1,6,6,6 | 6,0,1.9756,1.4111,neutral,left,,,,,,stimulusFile/physical.xlsx,,,,,,,,,,,,,,,,,,,,,,,,,,,,,,,
,,,,,,,,,,,,,,,8128,2022-01-20_21h29.19.148,multiplicationStroop,2021.2.3,Win32,59.96641881,,,,,right,1,0.7891,0,4,4,36,1,3,1,3 | 1,2,1.4111,1.9756,incongruent,right,,,,,,stimulusFile/physical.xlsx,,,,,,,,,,,,,,,,,,,,,,,,,,,,,,,
,,,,,,,,,,,,,,,8128,2022-01-20_21h29.19.148,multiplicationStroop,2021.2.3,Win32,59.96641881,,,,,left,1,0.5906,0,5,5,4,1,2,1,2 | 1,1,1.9756,1.4111,congruent,left,,,,,,stimulusFile/physical.xlsx,,,,,,,,,,,,,,,,,,,,,,,,,,,,,,,
,,,,,,,,,,,,,,,8128,2022-01-20_21h29.19.148,multiplicationStroop,2021.2.3,Win32,59.96641881,,,,,left,1,0.5784,0,6,6,23,1,9,4,9 | 4,5,1.9756,1.4111,congruent,left,,,,,,stimulusFile/physical.xlsx,,,,,,,,,,,,,,,,,,,,,,,,,,,,,,,
,,,,,,,,,,,,,,,8128,2022-01-20_21h29.19.148,multiplicationStroop,2021.2.3,Win32,59.96641881,,,,,right,1,0.5578,0,7,7,39,1,9,7,9 | 7,2,1.4111,1.9756,incongruent,right,,,,,,stimulusFile/physical.xlsx,,,,,,,,,,,,,,,,,,,,,,,,,,,,,,,
,,,,,,,,,,,,,,,8128,2022-01-20_21h29.19.148,multiplicationStroop,2021.2.3,Win32,59.96641881,,,,,right,1,0.5185,0,8,8,61,1,4,4,4 | 4,0,1.4111,1.9756,neutral,right,,,,,,stimulusFile/physical.xlsx,,,,,,,,,,,,,,,,,,,,,,,,,,,,,,,
,,,,,,,,,,,,,,,8128,2022-01-20_21h29.19.148,multiplicationStroop,2021.2.3,Win32,59.96641881,,,,,left,1,0.5543,0,9,9,35,1,7,9,7 | 9,2,1.9756,1.4111,incongruent,left,,,,,,stimulusFile/physical.xlsx,,,,,,,,,,,,,,,,,,,,,,,,,,,,,,,
,,,,,,,,,,,,,,,8128,2022-01-20_21h29.19.148,multiplicationStroop,2021.2.3,Win32,59.96641881,,,,,left,1,0.523,0,10,10,21,1,7,2,7 | 2,5,1.9756,1.4111,congruent,left,,,,,,stimulusFile/physical.xlsx,,,,,,,,,,,,,,,,,,,,,,,,,,,,,,,
,,,,,,,,,,,,,,,8128,2022-01-20_21h29.19.148,multiplicationStroop,2021.2.3,Win32,59.96641881,,,,,right,1,0.493,0,11,11,56,1,1,1,1 | 1,0,1.4111,1.9756,neutral,right,,,,,,stimulusFile/physical.xlsx,,,,,,,,,,,,,,,,,,,,,,,,,,,,,,,
,,,,,,,,,,,,,,,8128,2022-01-20_21h29.19.148,multiplicationStroop,2021.2.3,Win32,59.96641881,,,,,left,1,0.4635,0,12,12,48,1,1,1,1 | 1,0,1.9756,1.4111,neutral,left,,,,,,stimulusFile/physical.xlsx,,,,,,,,,,,,,,,,,,,,,,,,,,,,,,,
,,,,,,,,,,,,,,,8128,2022-01-20_21h29.19.148,multiplicationStroop,2021.2.3,Win32,59.96641881,,,,,right,1,0.5567,0,13,13,8,1,1,3,1 | 3,2,1.4111,1.9756,congruent,right,,,,,,stimulusFile/physical.xlsx,,,,,,,,,,,,,,,,,,,,,,,,,,,,,,,
,,,,,,,,,,,,,,,8128,2022-01-20_21h29.19.148,multiplicationStroop,2021.2.3,Win32,59.96641881,,,,,right,1,0.4461,0,14,14,58,1,6,6,6 | 6,0,1.4111,1.9756,neutral,right,,,,,,stimulusFile/physical.xlsx,,,,,,,,,,,,,,,,,,,,,,,,,,,,,,,
,,,,,,,,,,,,,,,8128,2022-01-20_21h29.19.148,multiplicationStroop,2021.2.3,Win32,59.96641881,,,,,right,1,0.5065,0,15,15,3,1,8,9,8 | 9,1,1.4111,1.9756,congruent,right,,,,,,stimulusFile/physical.xlsx,,,,,,,,,,,,,,,,,,,,,,,,,,,,,,,
,,,,,,,,,,,,,,,8128,2022-01-20_21h29.19.148,multiplicationStroop,2021.2.3,Win32,59.96641881,,,,,left,1,0.4867,0,16,16,5,1,4,3,4 | 3,1,1.9756,1.4111,congruent,left,,,,,,stimulusFile/physical.xlsx,,,,,,,,,,,,,,,,,,,,,,,,,,,,,,,
,,,,,,,,,,,,,,,8128,2022-01-20_21h29.19.148,multiplicationStroop,2021.2.3,Win32,59.96641881,,,,,right,1,0.5918,0,17,17,28,1,2,1,2 | 1,1,1.4111,1.9756,incongruent,right,,,,,,stimulusFile/physical.xlsx,,,,,,,,,,,,,,,,,,,,,,,,,,,,,,,
,,,,,,,,,,,,,,,8128,2022-01-20_21h29.19.148,multiplicationStroop,2021.2.3,Win32,59.96641881,,,,,right,1,0.614,0,18,18,10,1,6,8,6 | 8,2,1.4111,1.9756,congruent,right,,,,,,stimulusFile/physical.xlsx,,,,,,,,,,,,,,,,,,,,,,,,,,,,,,,
,,,,,,,,,,,,,,,8128,2022-01-20_21h29.19.148,multiplicationStroop,2021.2.3,Win32,59.96641881,,,,,left,1,0.4864,0,19,19,15,1,9,7,9 | 7,2,1.9756,1.4111,congruent,left,,,,,,stimulusFile/physical.xlsx,,,,,,,,,,,,,,,,,,,,,,,,,,,,,,,
,,,,,,,,,,,,,,,8128,2022-01-20_21h29.19.148,multiplicationStroop,2021.2.3,Win32,59.96641881,,,,,left,1,0.5399,0,20,20,27,1,8,9,8 | 9,1,1.9756,1.4111,incongruent,left,,,,,,stimulusFile/physical.xlsx,,,,,,,,,,,,,,,,,,,,,,,,,,,,,,,
,,,,,,,,,,,,,,,8128,2022-01-20_21h29.19.148,multiplicationStroop,2021.2.3,Win32,59.96641881,,,,,right,1,0.4856,0,21,21,59,1,7,7,7 | 7,0,1.4111,1.9756,neutral,right,,,,,,stimulusFile/physical.xlsx,,,,,,,,,,,,,,,,,,,,,,,,,,,,,,,
,,,,,,,,,,,,,,,8128,2022-01-20_21h29.19.148,multiplicationStroop,2021.2.3,Win32,59.96641881,,,,,right,1,0.5511,0,22,22,67,1,4,4,4 | 4,0,1.4111,1.9756,neutral,right,,,,,,stimulusFile/physical.xlsx,,,,,,,,,,,,,,,,,,,,,,,,,,,,,,,
,,,,,,,,,,,,,,,8128,2022-01-20_21h29.19.148,multiplicationStroop,2021.2.3,Win32,59.96641881,,,,,left,0,0.5596,0,23,23,64,1,1,1,1 | 1,0,1.9756,1.4111,neutral,right,,,,,,stimulusFile/physical.xlsx,,,,,,,,,,,,,,,,,,,,,,,,,,,,,,,
,,,,,,,,,,,,,,,8128,2022-01-20_21h29.19.148,multiplicationStroop,2021.2.3,Win32,59.96641881,,,,,left,1,0.5547,0,24,24,70,1,8,8,8 | 8,0,1.9756,1.4111,neutral,left,,,,,,stimulusFile/physical.xlsx,,,,,,,,,,,,,,,,,,,,,,,,,,,,,,,
,,,,,,,,,,,,,,,8128,2022-01-20_21h29.19.148,multiplicationStroop,2021.2.3,Win32,59.96641881,,,,,right,1,0.722,0,25,25,11,1,7,9,7 | 9,2,1.4111,1.9756,congruent,right,,,,,,stimulusFile/physical.xlsx,,,,,,,,,,,,,,,,,,,,,,,,,,,,,,,
,,,,,,,,,,,,,,,8128,2022-01-20_21h29.19.148,multiplicationStroop,2021.2.3,Win32,59.96641881,,,,,right,1,0.5061,0,26,26,2,1,6,7,6 | 7,1,1.4111,1.9756,congruent,right,,,,,,stimulusFile/physical.xlsx,,,,,,,,,,,,,,,,,,,,,,,,,,,,,,,
,,,,,,,,,,,,,,,8128,2022-01-20_21h29.19.148,multiplicationStroop,2021.2.3,Win32,59.96641881,,,,,left,1,0.4535,0,27,27,13,1,4,2,4 | 2,2,1.9756,1.4111,congruent,left,,,,,,stimulusFile/physical.xlsx,,,,,,,,,,,,,,,,,,,,,,,,,,,,,,,
,,,,,,,,,,,,,,,8128,2022-01-20_21h29.19.148,multiplicationStroop,2021.2.3,Win32,59.96641881,,,,,left,1,0.5146,0,28,28,34,1,6,8,6 | 8,2,1.9756,1.4111,incongruent,left,,,,,,stimulusFile/physical.xlsx,,,,,,,,,,,,,,,,,,,,,,,,,,,,,,,
,,,,,,,,,,,,,,,8128,2022-01-20_21h29.19.148,multiplicationStroop,2021.2.3,Win32,59.96641881,,,,,left,1,0.5513,0,29,29,55,1,9,9,9 | 9,0,1.9756,1.4111,neutral,left,,,,,,stimulusFile/physical.xlsx,,,,,,,,,,,,,,,,,,,,,,,,,,,,,,,
,,,,,,,,,,,,,,,8128,2022-01-20_21h29.19.148,multiplicationStroop,2021.2.3,Win32,59.96641881,,,,,right,1,0.5385,0,30,30,38,1,8,6,8 | 6,2,1.4111,1.9756,incongruent,right,,,,,,stimulusFile/physical.xlsx,,,,,,,,,,,,,,,,,,,,,,,,,,,,,,,
,,,,,,,,,,,,,,,8128,2022-01-20_21h29.19.148,multiplicationStroop,2021.2.3,Win32,59.96641881,,,,,left,1,0.5261,0,31,31,50,1,6,6,6 | 6,0,1.9756,1.4111,neutral,left,,,,,,stimulusFile/physical.xlsx,,,,,,,,,,,,,,,,,,,,,,,,,,,,,,,
,,,,,,,,,,,,,,,8128,2022-01-20_21h29.19.148,multiplicationStroop,2021.2.3,Win32,59.96641881,,,,,left,0,0.4856,0,32,32,66,1,3,3,3 | 3,0,1.9756,1.4111,neutral,right,,,,,,stimulusFile/physical.xlsx,,,,,,,,,,,,,,,,,,,,,,,,,,,,,,,
,,,,,,,,,,,,,,,8128,2022-01-20_21h29.19.148,multiplicationStroop,2021.2.3,Win32,59.96641881,,,,,left,1,0.6064,0,33,33,24,1,1,2,1 | 2,1,1.9756,1.4111,incongruent,left,,,,,,stimulusFile/physical.xlsx,,,,,,,,,,,,,,,,,,,,,,,,,,,,,,,
,,,,,,,,,,,,,,,8128,2022-01-20_21h29.19.148,multiplicationStroop,2021.2.3,Win32,59.96641881,,,,,left,1,0.422,0,34,34,49,1,3,3,3 | 3,0,1.9756,1.4111,neutral,left,,,,,,stimulusFile/physical.xlsx,,,,,,,,,,,,,,,,,,,,,,,,,,,,,,,
,,,,,,,,,,,,,,,8128,2022-01-20_21h29.19.148,multiplicationStroop,2021.2.3,Win32,59.96641881,,,,,left,1,0.437,0,35,35,6,1,7,6,7 | 6,1,1.9756,1.4111,congruent,left,,,,,,stimulusFile/physical.xlsx,,,,,,,,,,,,,,,,,,,,,,,,,,,,,,,
,,,,,,,,,,,,,,,8128,2022-01-20_21h29.19.148,multiplicationStroop,2021.2.3,Win32,59.96641881,,,,,right,1,0.4947,0,36,36,45,1,7,2,7 | 2,5,1.4111,1.9756,incongruent,right,,,,,,stimulusFile/physical.xlsx,,,,,,,,,,,,,,,,,,,,,,,,,,,,,,,
,,,,,,,,,,,,,,,8128,2022-01-20_21h29.19.148,multiplicationStroop,2021.2.3,Win32,59.96641881,,,,,left,1,0.4551,0,37,37,53,1,4,4,4 | 4,0,1.9756,1.4111,neutral,left,,,,,,stimulusFile/physical.xlsx,,,,,,,,,,,,,,,,,,,,,,,,,,,,,,,
,,,,,,,,,,,,,,,8128,2022-01-20_21h29.19.148,multiplicationStroop,2021.2.3,Win32,59.96641881,,,,,right,1,0.4668,0,38,38,47,1,9,4,9 | 4,5,1.4111,1.9756,incongruent,right,,,,,,stimulusFile/physical.xlsx,,,,,,,,,,,,,,,,,,,,,,,,,,,,,,,
,,,,,,,,,,,,,,,8128,2022-01-20_21h29.19.148,multiplicationStroop,2021.2.3,Win32,59.96641881,,,,,right,0,0.5718,0,39,39,71,1,9,9,9 | 9,0,1.4111,1.9756,neutral,left,,,,,,stimulusFile/physical.xlsx,,,,,,,,,,,,,,,,,,,,,,,,,,,,,,,
,,,,,,,,,,,,,,,8128,2022-01-20_21h29.19.148,multiplicationStroop,2021.2.3,Win32,59.96641881,,,,,left,1,0.5819,0,40,40,26,1,6,7,6 | 7,1,1.9756,1.4111,incongruent,left,,,,,,stimulusFile/physical.xlsx,,,,,,,,,,,,,,,,,,,,,,,,,,,,,,,
,,,,,,,,,,,,,,,8128,2022-01-20_21h29.19.148,multiplicationStroop,2021.2.3,Win32,59.96641881,,,,,left,1,0.4988,0,41,41,32,1,1,3,1 | 3,2,1.9756,1.4111,incongruent,left,,,,,,stimulusFile/physical.xlsx,,,,,,,,,,,,,,,,,,,,,,,,,,,,,,,
,,,,,,,,,,,,,,,8128,2022-01-20_21h29.19.148,multiplicationStroop,2021.2.3,Win32,59.96641881,,,,,left,1,0.5185,0,42,42,40,1,1,6,1 | 6,5,1.9756,1.4111,incongruent,left,,,,,,stimulusFile/physical.xlsx,,,,,,,,,,,,,,,,,,,,,,,,,,,,,,,
,,,,,,,,,,,,,,,8128,2022-01-20_21h29.19.148,multiplicationStroop,2021.2.3,Win32,59.96641881,,,,,right,1,0.5861,0,43,43,9,1,2,4,2 | 4,2,1.4111,1.9756,congruent,right,,,,,,stimulusFile/physical.xlsx,,,,,,,,,,,,,,,,,,,,,,,,,,,,,,,
,,,,,,,,,,,,,,,8128,2022-01-20_21h29.19.148,multiplicationStroop,2021.2.3,Win32,59.96641881,,,,,right,1,0.569,0,44,44,18,1,3,8,3 | 8,5,1.4111,1.9756,congruent,right,,,,,,stimulusFile/physical.xlsx,,,,,,,,,,,,,,,,,,,,,,,,,,,,,,,
,,,,,,,,,,,,,,,8128,2022-01-20_21h29.19.148,multiplicationStroop,2021.2.3,Win32,59.96641881,,,,,left,1,0.5985,0,45,45,51,1,8,8,8 | 8,0,1.9756,1.4111,neutral,left,,,,,,stimulusFile/physical.xlsx,,,,,,,,,,,,,,,,,,,,,,,,,,,,,,,
,,,,,,,,,,,,,,,8128,2022-01-20_21h29.19.148,multiplicationStroop,2021.2.3,Win32,59.96641881,,,,,right,1,0.6054,0,46,46,44,1,6,1,6 | 1,5,1.4111,1.9756,incongruent,right,,,,,,stimulusFile/physical.xlsx,,,,,,,,,,,,,,,,,,,,,,,,,,,,,,,
,,,,,,,,,,,,,,,8128,2022-01-20_21h29.19.148,multiplicationStroop,2021.2.3,Win32,59.96641881,,,,,left,1,0.6188,0,47,47,52,1,2,2,2 | 2,0,1.9756,1.4111,neutral,left,,,,,,stimulusFile/physical.xlsx,,,,,,,,,,,,,,,,,,,,,,,,,,,,,,,
,,,,,,,,,,,,,,,8128,2022-01-20_21h29.19.148,multiplicationStroop,2021.2.3,Win32,59.96641881,,,,,left,1,0.5067,0,48,48,41,1,2,7,2 | 7,5,1.9756,1.4111,incongruent,left,,,,,,stimulusFile/physical.xlsx,,,,,,,,,,,,,,,,,,,,,,,,,,,,,,,
,,,,,,,,,,,,,,,8128,2022-01-20_21h29.19.148,multiplicationStroop,2021.2.3,Win32,59.96641881,,,,,right,1,0.5572,0,49,49,31,1,9,8,9 | 8,1,1.4111,1.9756,incongruent,right,,,,,,stimulusFile/physical.xlsx,,,,,,,,,,,,,,,,,,,,,,,,,,,,,,,
,,,,,,,,,,,,,,,8128,2022-01-20_21h29.19.148,multiplicationStroop,2021.2.3,Win32,59.96641881,,,,,left,1,0.5542,0,50,50,7,1,9,8,9 | 8,1,1.9756,1.4111,congruent,left,,,,,,stimulusFile/physical.xlsx,,,,,,,,,,,,,,,,,,,,,,,,,,,,,,,
,,,,,,,,,,,,,,,8128,2022-01-20_21h29.19.148,multiplicationStroop,2021.2.3,Win32,59.96641881,,,,,left,1,0.4939,0,51,51,12,1,3,1,3 | 1,2,1.9756,1.4111,congruent,left,,,,,,stimulusFile/physical.xlsx,,,,,,,,,,,,,,,,,,,,,,,,,,,,,,,
,,,,,,,,,,,,,,,8128,2022-01-20_21h29.19.148,multiplicationStroop,2021.2.3,Win32,59.96641881,,,,,left,0,0.5024,0,52,52,16,1,1,6,1 | 6,5,1.4111,1.9756,congruent,right,,,,,,stimulusFile/physical.xlsx,,,,,,,,,,,,,,,,,,,,,,,,,,,,,,,
,,,,,,,,,,,,,,,8128,2022-01-20_21h29.19.148,multiplicationStroop,2021.2.3,Win32,59.96641881,,,,,right,1,0.6673,0,53,53,0,1,1,2,1 | 2,1,1.4111,1.9756,congruent,right,,,,,,stimulusFile/physical.xlsx,,,,,,,,,,,,,,,,,,,,,,,,,,,,,,,
,,,,,,,,,,,,,,,8128,2022-01-20_21h29.19.148,multiplicationStroop,2021.2.3,Win32,59.96641881,,,,,right,1,0.535,0,54,54,63,1,9,9,9 | 9,0,1.4111,1.9756,neutral,right,,,,,,stimulusFile/physical.xlsx,,,,,,,,,,,,,,,,,,,,,,,,,,,,,,,
,,,,,,,,,,,,,,,8128,2022-01-20_21h29.19.148,multiplicationStroop,2021.2.3,Win32,59.96641881,,,,,right,1,0.5272,0,55,55,37,1,4,2,4 | 2,2,1.4111,1.9756,incongruent,right,,,,,,stimulusFile/physical.xlsx,,,,,,,,,,,,,,,,,,,,,,,,,,,,,,,
,,,,,,,,,,,,,,,8128,2022-01-20_21h29.19.148,multiplicationStroop,2021.2.3,Win32,59.96641881,,,,,right,0,0.5224,0,56,56,69,1,7,7,7 | 7,0,1.4111,1.9756,neutral,left,,,,,,stimulusFile/physical.xlsx,,,,,,,,,,,,,,,,,,,,,,,,,,,,,,,
,,,,,,,,,,,,,,,8128,2022-01-20_21h29.19.148,multiplicationStroop,2021.2.3,Win32,59.96641881,,,,,right,1,0.4543,0,57,57,29,1,4,3,4 | 3,1,1.4111,1.9756,incongruent,right,,,,,,stimulusFile/physical.xlsx,,,,,,,,,,,,,,,,,,,,,,,,,,,,,,,
,,,,,,,,,,,,,,,8128,2022-01-20_21h29.19.148,multiplicationStroop,2021.2.3,Win32,59.96641881,,,,,right,1,0.4336,0,58,58,62,1,8,8,8 | 8,0,1.4111,1.9756,neutral,right,,,,,,stimulusFile/physical.xlsx,,,,,,,,,,,,,,,,,,,,,,,,,,,,,,,
,,,,,,,,,,,,,,,8128,2022-01-20_21h29.19.148,multiplicationStroop,2021.2.3,Win32,59.96641881,,,,,left,1,0.509,0,59,59,20,1,6,1,6 | 1,5,1.9756,1.4111,congruent,left,,,,,,stimulusFile/physical.xlsx,,,,,,,,,,,,,,,,,,,,,,,,,,,,,,,
,,,,,,,,,,,,,,,8128,2022-01-20_21h29.19.148,multiplicationStroop,2021.2.3,Win32,59.96641881,,,,,left,1,0.3918,0,60,60,54,1,7,7,7 | 7,0,1.9756,1.4111,neutral,left,,,,,,stimulusFile/physical.xlsx,,,,,,,,,,,,,,,,,,,,,,,,,,,,,,,
,,,,,,,,,,,,,,,8128,2022-01-20_21h29.19.148,multiplicationStroop,2021.2.3,Win32,59.96641881,,,,,right,1,0.5783,0,61,61,19,1,4,9,4 | 9,5,1.4111,1.9756,congruent,right,,,,,,stimulusFile/physical.xlsx,,,,,,,,,,,,,,,,,,,,,,,,,,,,,,,
,,,,,,,,,,,,,,,8128,2022-01-20_21h29.19.148,multiplicationStroop,2021.2.3,Win32,59.96641881,,,,,right,1,0.486,0,62,62,65,1,2,2,2 | 2,0,1.4111,1.9756,neutral,right,,,,,,stimulusFile/physical.xlsx,,,,,,,,,,,,,,,,,,,,,,,,,,,,,,,
,,,,,,,,,,,,,,,8128,2022-01-20_21h29.19.148,multiplicationStroop,2021.2.3,Win32,59.96641881,,,,,right,1,0.4555,0,63,63,57,1,2,2,2 | 2,0,1.4111,1.9756,neutral,right,,,,,,stimulusFile/physical.xlsx,,,,,,,,,,,,,,,,,,,,,,,,,,,,,,,
,,,,,,,,,,,,,,,8128,2022-01-20_21h29.19.148,multiplicationStroop,2021.2.3,Win32,59.96641881,,,,,right,0,0.4178,0,64,64,25,1,3,4,3 | 4,1,1.9756,1.4111,incongruent,left,,,,,,stimulusFile/physical.xlsx,,,,,,,,,,,,,,,,,,,,,,,,,,,,,,,
,,,,,,,,,,,,,,,8128,2022-01-20_21h29.19.148,multiplicationStroop,2021.2.3,Win32,59.96641881,,,,,right,1,0.6383,0,65,65,30,1,7,6,7 | 6,1,1.4111,1.9756,incongruent,right,,,,,,stimulusFile/physical.xlsx,,,,,,,,,,,,,,,,,,,,,,,,,,,,,,,
,,,,,,,,,,,,,,,8128,2022-01-20_21h29.19.148,multiplicationStroop,2021.2.3,Win32,59.96641881,,,,,left,1,0.5224,0,66,66,14,1,8,6,8 | 6,2,1.9756,1.4111,congruent,left,,,,,,stimulusFile/physical.xlsx,,,,,,,,,,,,,,,,,,,,,,,,,,,,,,,
,,,,,,,,,,,,,,,8128,2022-01-20_21h29.19.148,multiplicationStroop,2021.2.3,Win32,59.96641881,,,,,right,1,0.4863,0,67,67,1,1,3,4,3 | 4,1,1.4111,1.9756,congruent,right,,,,,,stimulusFile/physical.xlsx,,,,,,,,,,,,,,,,,,,,,,,,,,,,,,,
,,,,,,,,,,,,,,,8128,2022-01-20_21h29.19.148,multiplicationStroop,2021.2.3,Win32,59.96641881,,,,,left,1,0.5349,0,68,68,43,1,4,9,4 | 9,5,1.9756,1.4111,incongruent,left,,,,,,stimulusFile/physical.xlsx,,,,,,,,,,,,,,,,,,,,,,,,,,,,,,,
,,,,,,,,,,,,,,,8128,2022-01-20_21h29.19.148,multiplicationStroop,2021.2.3,Win32,59.96641881,,,,,left,1,0.5284,0,69,69,42,1,3,8,3 | 8,5,1.9756,1.4111,incongruent,left,,,,,,stimulusFile/physical.xlsx,,,,,,,,,,,,,,,,,,,,,,,,,,,,,,,
,,,,,,,,,,,,,,,8128,2022-01-20_21h29.19.148,multiplicationStroop,2021.2.3,Win32,59.96641881,,,,,left,1,0.4589,0,70,70,22,1,8,3,8 | 3,5,1.9756,1.4111,congruent,left,,,,,,stimulusFile/physical.xlsx,,,,,,,,,,,,,,,,,,,,,,,,,,,,,,,
,,,,,,,,,,,,,,,8128,2022-01-20_21h29.19.148,multiplicationStroop,2021.2.3,Win32,59.96641881,,,,,left,1,0.5066,0,71,71,33,1,2,4,2 | 4,2,1.9756,1.4111,incongruent,left,,,,,,stimulusFile/physical.xlsx,,,,,,,,,,,,,,,,,,,,,,,,,,,,,,,
,,,,,,,,,,,,,,,8128,2022-01-20_21h29.19.148,multiplicationStroop,2021.2.3,Win32,59.96641881,,,,,,,,,,,,,,,,,,,,,0,1,1,1,1,stimulusFile/physical.xlsx,PHYSICALLY larger (larger font size).,images/physicallyLarger.png,,,,,,,,,,,,,,,,,,,,,,,,,,,,,
,,,,,,,,,,,,,,,8128,2022-01-20_21h29.19.148,multiplicationStroop,2021.2.3,Win32,59.96641881,,,,,,,,,,,,,,,,,,,,,,,,,,,,,space,14.8985,space,3.3896,63,4.8228,1,0,0,0,12,1,7,×,9,7 × 9,neutral,smallerFirst,1.5,1.5,63,,,,,,,,
,,,,,,,,,,,,,,,8128,2022-01-20_21h29.19.148,multiplicationStroop,2021.2.3,Win32,59.96641881,,,,,,,,,,,,,,,,,,,,,,,,,,,,,,,,,18,1.9125,1,0,1,1,18,1,9,×,2,9 × 2,neutral,largerFirst,1.5,1.5,18,,,,,,,,
,,,,,,,,,,,,,,,8128,2022-01-20_21h29.19.148,multiplicationStroop,2021.2.3,Win32,59.96641881,,,,,,,,,,,,,,,,,,,,,,,,,,,,,,,,,56,2.7767,1,0,2,2,9,1,7,×,8,7 × 8,neutral,smallerFirst,1.5,1.5,56,,,,,,,,
,,,,,,,,,,,,,,,8128,2022-01-20_21h29.19.148,multiplicationStroop,2021.2.3,Win32,59.96641881,,,,,,,,,,,,,,,,,,,,,,,,,,,,,,,,,9,1.8147,1,0,3,3,29,1,3,×,3,3 × 3,neutral,tie,1.5,1.5,9,,,,,,,,
,,,,,,,,,,,,,,,8128,2022-01-20_21h29.19.148,multiplicationStroop,2021.2.3,Win32,59.96641881,,,,,,,,,,,,,,,,,,,,,,,,,,,,,,,,,49,1.9716,1,0,4,4,33,1,7,×,7,7 × 7,neutral,tie,1.5,1.5,49,,,,,,,,
,,,,,,,,,,,,,,,8128,2022-01-20_21h29.19.148,multiplicationStroop,2021.2.3,Win32,59.96641881,,,,,,,,,,,,,,,,,,,,,,,,,,,,,,,,,40,2.0117,1,0,5,5,24,1,8,×,5,8 × 5,neutral,largerFirst,1.5,1.5,40,,,,,,,,
,,,,,,,,,,,,,,,8128,2022-01-20_21h29.19.148,multiplicationStroop,2021.2.3,Win32,59.96641881,,,,,,,,,,,,,,,,,,,,,,,,,,,,,,,,,14,1.5161,1,0,6,6,16,1,7,×,2,7 × 2,neutral,largerFirst,1.5,1.5,14,,,,,,,,
,,,,,,,,,,,,,,,8128,2022-01-20_21h29.19.148,multiplicationStroop,2021.2.3,Win32,59.96641881,,,,,,,,,,,,,,,,,,,,,,,,,,,,,,,,,10,1.7809,1,0,7,7,4,1,2,×,5,2 × 5,neutral,smallerFirst,1.5,1.5,10,,,,,,,,
,,,,,,,,,,,,,,,8128,2022-01-20_21h29.19.148,multiplicationStroop,2021.2.3,Win32,59.96641881,,,,,,,,,,,,,,,,,,,,,,,,,,,,,,,,,8,2.0678,1,0,8,8,3,1,2,×,4,2 × 4,neutral,smallerFirst,1.5,1.5,8,,,,,,,,
,,,,,,,,,,,,,,,8128,2022-01-20_21h29.19.148,multiplicationStroop,2021.2.3,Win32,59.96641881,,,,,,,,,,,,,,,,,,,,,,,,,,,,,,,,,24,1.8921,0,0,9,9,14,1,9,×,3,9 × 3,neutral,largerFirst,1.5,1.5,27,,,,,,,,
,,,,,,,,,,,,,,,8128,2022-01-20_21h29.19.148,multiplicationStroop,2021.2.3,Win32,59.96641881,,,,,,,,,,,,,,,,,,,,,,,,,,,,,,,,,20,1.8809,1,0,10,10,20,1,5,×,4,5 × 4,neutral,largerFirst,1.5,1.5,20,,,,,,,,
,,,,,,,,,,,,,,,8128,2022-01-20_21h29.19.148,multiplicationStroop,2021.2.3,Win32,59.96641881,,,,,,,,,,,,,,,,,,,,,,,,,,,,,,,,,16,1.7558,1,0,11,11,13,1,2,×,8,2 × 8,neutral,smallerFirst,1.5,1.5,16,,,,,,,,
,,,,,,,,,,,,,,,8128,2022-01-20_21h29.19.148,multiplicationStroop,2021.2.3,Win32,59.96641881,,,,,,,,,,,,,,,,,,,,,,,,,,,,,,,,,72,2.6437,1,0,12,12,11,1,8,×,9,8 × 9,neutral,smallerFirst,1.5,1.5,72,,,,,,,,
,,,,,,,,,,,,,,,8128,2022-01-20_21h29.19.148,multiplicationStroop,2021.2.3,Win32,59.96641881,,,,,,,,,,,,,,,,,,,,,,,,,,,,,,,,,25,1.6611,1,0,13,13,31,1,5,×,5,5 × 5,neutral,tie,1.5,1.5,25,,,,,,,,
,,,,,,,,,,,,,,,8128,2022-01-20_21h29.19.148,multiplicationStroop,2021.2.3,Win32,59.96641881,,,,,,,,,,,,,,,,,,,,,,,,,,,,,,,,,54,1.9643,1,0,14,14,7,1,6,×,9,6 × 9,neutral,smallerFirst,1.5,1.5,54,,,,,,,,
,,,,,,,,,,,,,,,8128,2022-01-20_21h29.19.148,multiplicationStroop,2021.2.3,Win32,59.96641881,,,,,,,,,,,,,,,,,,,,,,,,,,,,,,,,,12,1.8845,1,0,15,15,21,1,4,×,3,4 × 3,neutral,largerFirst,1.5,1.5,12,,,,,,,,
,,,,,,,,,,,,,,,8128,2022-01-20_21h29.19.148,multiplicationStroop,2021.2.3,Win32,59.96641881,,,,,,,,,,,,,,,,,,,,,,,,,,,,,,,,,48,2.013,1,0,16,16,15,1,8,×,6,8 × 6,neutral,largerFirst,1.5,1.5,48,,,,,,,,
,,,,,,,,,,,,,,,8128,2022-01-20_21h29.19.148,multiplicationStroop,2021.2.3,Win32,59.96641881,,,,,,,,,,,,,,,,,,,,,,,,,,,,,,,,,64,1.8517,1,0,17,17,34,1,8,×,8,8 × 8,neutral,tie,1.5,1.5,64,,,,,,,,
,,,,,,,,,,,,,,,8128,2022-01-20_21h29.19.148,multiplicationStroop,2021.2.3,Win32,59.96641881,,,,,,,,,,,,,,,,,,,,,,,,,,,,,,,,,81,2.4523,1,0,18,18,35,1,9,×,9,9 × 9,neutral,tie,1.5,1.5,81,,,,,,,,
,,,,,,,,,,,,,,,8128,2022-01-20_21h29.19.148,multiplicationStroop,2021.2.3,Win32,59.96641881,,,,,,,,,,,,,,,,,,,,,,,,,,,,,,,,,15,1.502,1,0,19,19,5,1,3,×,5,3 × 5,neutral,smallerFirst,1.5,1.5,15,,,,,,,,
,,,,,,,,,,,,,,,8128,2022-01-20_21h29.19.148,multiplicationStroop,2021.2.3,Win32,59.96641881,,,,,,,,,,,,,,,,,,,,,,,,,,,,,,,,,12,1.372,1,0,20,20,25,1,6,×,2,6 × 2,neutral,largerFirst,1.5,1.5,12,,,,,,,,
,,,,,,,,,,,,,,,8128,2022-01-20_21h29.19.148,multiplicationStroop,2021.2.3,Win32,59.96641881,,,,,,,,,,,,,,,,,,,,,,,,,,,,,,,,,36,1.8166,1,0,21,21,32,1,6,×,6,6 × 6,neutral,tie,1.5,1.5,36,,,,,,,,
,,,,,,,,,,,,,,,8128,2022-01-20_21h29.19.148,multiplicationStroop,2021.2.3,Win32,59.96641881,,,,,,,,,,,,,,,,,,,,,,,,,,,,,,,,,42,1.6802,1,0,22,22,6,1,6,×,7,6 × 7,neutral,smallerFirst,1.5,1.5,42,,,,,,,,
,,,,,,,,,,,,,,,8128,2022-01-20_21h29.19.148,multiplicationStroop,2021.2.3,Win32,59.96641881,,,,,,,,,,,,,,,,,,,,,,,,,,,,,,,,,18,1.9283,1,0,23,23,0,1,3,×,6,3 × 6,neutral,smallerFirst,1.5,1.5,18,,,,,,,,
,,,,,,,,,,,,,,,8128,2022-01-20_21h29.19.148,multiplicationStroop,2021.2.3,Win32,59.96641881,,,,,,,,,,,,,,,,,,,,,,,,,,,,,,,,,24,1.7399,1,0,24,24,2,1,4,×,6,4 × 6,neutral,smallerFirst,1.5,1.5,24,,,,,,,,
,,,,,,,,,,,,,,,8128,2022-01-20_21h29.19.148,multiplicationStroop,2021.2.3,Win32,59.96641881,,,,,,,,,,,,,,,,,,,,,,,,,,,,,,,,,21,1.5448,1,0,25,25,8,1,3,×,7,3 × 7,neutral,smallerFirst,1.5,1.5,21,,,,,,,,
,,,,,,,,,,,,,,,8128,2022-01-20_21h29.19.148,multiplicationStroop,2021.2.3,Win32,59.96641881,,,,,,,,,,,,,,,,,,,,,,,,,,,,,,,,,6,1.9153,1,0,26,26,26,1,3,×,2,3 × 2,neutral,largerFirst,1.5,1.5,6,,,,,,,,
,,,,,,,,,,,,,,,8128,2022-01-20_21h29.19.148,multiplicationStroop,2021.2.3,Win32,59.96641881,,,,,,,,,,,,,,,,,,,,,,,,,,,,,,,,,30,2.6673,1,0,27,27,19,1,6,×,5,6 × 5,neutral,largerFirst,1.5,1.5,30,,,,,,,,
,,,,,,,,,,,,,,,8128,2022-01-20_21h29.19.148,multiplicationStroop,2021.2.3,Win32,59.96641881,,,,,,,,,,,,,,,,,,,,,,,,,,,,,,,,,16,1.9556,1,0,28,28,30,1,4,×,4,4 × 4,neutral,tie,1.5,1.5,16,,,,,,,,
,,,,,,,,,,,,,,,8128,2022-01-20_21h29.19.148,multiplicationStroop,2021.2.3,Win32,59.96641881,,,,,,,,,,,,,,,,,,,,,,,,,,,,,,,,,24,1.5483,1,0,29,29,22,1,8,×,3,8 × 3,neutral,largerFirst,1.5,1.5,24,,,,,,,,
,,,,,,,,,,,,,,,8128,2022-01-20_21h29.19.148,multiplicationStroop,2021.2.3,Win32,59.96641881,,,,,,,,,,,,,,,,,,,,,,,,,,,,,,,,,36,2.0995,0,0,30,30,23,1,8,×,4,8 × 4,neutral,largerFirst,1.5,1.5,32,,,,,,,,
,,,,,,,,,,,,,,,8128,2022-01-20_21h29.19.148,multiplicationStroop,2021.2.3,Win32,59.96641881,,,,,,,,,,,,,,,,,,,,,,,,,,,,,,,,,4,3.1391,1,0,31,31,28,1,2,×,2,2 × 2,neutral,tie,1.5,1.5,4,,,,,,,,
,,,,,,,,,,,,,,,8128,2022-01-20_21h29.19.148,multiplicationStroop,2021.2.3,Win32,59.96641881,,,,,,,,,,,,,,,,,,,,,,,,,,,,,,,,,28,2.2582,1,0,32,32,17,1,7,×,4,7 × 4,neutral,largerFirst,1.5,1.5,28,,,,,,,,
,,,,,,,,,,,,,,,8128,2022-01-20_21h29.19.148,multiplicationStroop,2021.2.3,Win32,59.96641881,,,,,,,,,,,,,,,,,,,,,,,,,,,,,,,,,45,2.7968,1,0,33,33,10,1,5,×,9,5 × 9,neutral,smallerFirst,1.5,1.5,45,,,,,,,,
,,,,,,,,,,,,,,,8128,2022-01-20_21h29.19.148,multiplicationStroop,2021.2.3,Win32,59.96641881,,,,,,,,,,,,,,,,,,,,,,,,,,,,,,,,,35,1.8199,1,0,34,34,1,1,5,×,7,5 × 7,neutral,smallerFirst,1.5,1.5,35,,,,,,,,
,,,,,,,,,,,,,,,8128,2022-01-20_21h29.19.148,multiplicationStroop,2021.2.3,Win32,59.96641881,,,,,,,,,,,,,,,,,,,,,,,,,,,,,,,,,36,6.0154,1,0,35,35,27,1,9,×,4,9 × 4,neutral,largerFirst,1.5,1.5,36,,,,,,,,
,,,,,,,,,,,,,,,8128,2022-01-20_21h29.19.148,multiplicationStroop,2021.2.3,Win32,59.96641881,,,,,,,,,,,,,,,,,,,,,,,,,,,,,,,,,,,,,,,,,,,,,,,,,,0,0,0,1,1,stimulusFile/mult_blk2.xlsx,,
,,,,,,,,,,,,,,,8128,2022-01-20_21h29.19.148,multiplicationStroop,2021.2.3,Win32,59.96641881,,,,,,,,,,,,,,,,,,,,,,,,,,,,,,,space,1.6724,81,2.3014,1,0,0,0,35,1,9,×,9,9 × 9,neutral,tie,1.5,1.5,81,,,,,,,,
,,,,,,,,,,,,,,,8128,2022-01-20_21h29.19.148,multiplicationStroop,2021.2.3,Win32,59.96641881,,,,,,,,,,,,,,,,,,,,,,,,,,,,,,,,,15,1.416,1,0,1,1,19,1,5,×,3,5 × 3,neutral,largerFirst,1.5,1.5,15,,,,,,,,
,,,,,,,,,,,,,,,8128,2022-01-20_21h29.19.148,multiplicationStroop,2021.2.3,Win32,59.96641881,,,,,,,,,,,,,,,,,,,,,,,,,,,,,,,,,24,1.5713,1,0,2,2,8,1,3,×,8,3 × 8,neutral,smallerFirst,1.5,1.5,24,,,,,,,,
,,,,,,,,,,,,,,,8128,2022-01-20_21h29.19.148,multiplicationStroop,2021.2.3,Win32,59.96641881,,,,,,,,,,,,,,,,,,,,,,,,,,,,,,,,,18,2.3002,1,0,3,3,4,1,2,×,9,2 × 9,neutral,smallerFirst,1.5,1.5,18,,,,,,,,
,,,,,,,,,,,,,,,8128,2022-01-20_21h29.19.148,multiplicationStroop,2021.2.3,Win32,59.96641881,,,,,,,,,,,,,,,,,,,,,,,,,,,,,,,,,27,1.8646,1,0,4,4,0,1,3,×,9,3 × 9,neutral,smallerFirst,1.5,1.5,27,,,,,,,,
,,,,,,,,,,,,,,,8128,2022-01-20_21h29.19.148,multiplicationStroop,2021.2.3,Win32,59.96641881,,,,,,,,,,,,,,,,,,,,,,,,,,,,,,,,,54,5.8304,1,0,5,5,21,1,9,×,6,9 × 6,neutral,largerFirst,1.5,1.5,54,,,,,,,,
,,,,,,,,,,,,,,,8128,2022-01-20_21h29.19.148,multiplicationStroop,2021.2.3,Win32,59.96641881,,,,,,,,,,,,,,,,,,,,,,,,,,,,,,,,,18,2.829,1,0,6,6,14,1,6,×,3,6 × 3,neutral,largerFirst,1.5,1.5,18,,,,,,,,
,,,,,,,,,,,,,,,8128,2022-01-20_21h29.19.148,multiplicationStroop,2021.2.3,Win32,59.96641881,,,,,,,,,,,,,,,,,,,,,,,,,,,,,,,,,8,1.9475,1,0,7,7,17,1,4,×,2,4 × 2,neutral,largerFirst,1.5,1.5,8,,,,,,,,
,,,,,,,,,,,,,,,8128,2022-01-20_21h29.19.148,multiplicationStroop,2021.2.3,Win32,59.96641881,,,,,,,,,,,,,,,,,,,,,,,,,,,,,,,,,28,3.9474,1,0,8,8,3,1,4,×,7,4 × 7,neutral,smallerFirst,1.5,1.5,28,,,,,,,,
,,,,,,,,,,,,,,,8128,2022-01-20_21h29.19.148,multiplicationStroop,2021.2.3,Win32,59.96641881,,,,,,,,,,,,,,,,,,,,,,,,,,,,,,,,,56,2.4123,1,0,9,9,23,1,8,×,7,8 × 7,neutral,largerFirst,1.5,1.5,56,,,,,,,,
,,,,,,,,,,,,,,,8128,2022-01-20_21h29.19.148,multiplicationStroop,2021.2.3,Win32,59.96641881,,,,,,,,,,,,,,,,,,,,,,,,,,,,,,,,,25,1.6113,1,0,10,10,31,1,5,×,5,5 × 5,neutral,tie,1.5,1.5,25,,,,,,,,
,,,,,,,,,,,,,,,8128,2022-01-20_21h29.19.148,multiplicationStroop,2021.2.3,Win32,59.96641881,,,,,,,,,,,,,,,,,,,,,,,,,,,,,,,,,30,2.0998,1,0,11,11,5,1,5,×,6,5 × 6,neutral,smallerFirst,1.5,1.5,30,,,,,,,,
,,,,,,,,,,,,,,,8128,2022-01-20_21h29.19.148,multiplicationStroop,2021.2.3,Win32,59.96641881,,,,,,,,,,,,,,,,,,,,,,,,,,,,,,,,,10,2.1639,1,0,12,12,18,1,5,×,2,5 × 2,neutral,largerFirst,1.5,1.5,10,,,,,,,,
,,,,,,,,,,,,,,,8128,2022-01-20_21h29.19.148,multiplicationStroop,2021.2.3,Win32,59.96641881,,,,,,,,,,,,,,,,,,,,,,,,,,,,,,,,,42,1.7839,1,0,13,13,20,1,7,×,6,7 × 6,neutral,largerFirst,1.5,1.5,42,,,,,,,,
,,,,,,,,,,,,,,,8128,2022-01-20_21h29.19.148,multiplicationStroop,2021.2.3,Win32,59.96641881,,,,,,,,,,,,,,,,,,,,,,,,,,,,,,,,,64,1.9865,1,0,14,14,34,1,8,×,8,8 × 8,neutral,tie,1.5,1.5,64,,,,,,,,
,,,,,,,,,,,,,,,8128,2022-01-20_21h29.19.148,multiplicationStroop,2021.2.3,Win32,59.96641881,,,,,,,,,,,,,,,,,,,,,,,,,,,,,,,,,12,1.6445,1,0,15,15,11,1,2,×,6,2 × 6,neutral,smallerFirst,1.5,1.5,12,,,,,,,,
,,,,,,,,,,,,,,,8128,2022-01-20_21h29.19.148,multiplicationStroop,2021.2.3,Win32,59.96641881,,,,,,,,,,,,,,,,,,,,,,,,,,,,,,,,,49,1.8039,1,0,16,16,33,1,7,×,7,7 × 7,neutral,tie,1.5,1.5,49,,,,,,,,
,,,,,,,,,,,,,,,8128,2022-01-20_21h29.19.148,multiplicationStroop,2021.2.3,Win32,59.96641881,,,,,,,,,,,,,,,,,,,,,,,,,,,,,,,,,48,4.6764,1,0,17,17,1,1,6,×,8,6 × 8,neutral,smallerFirst,1.5,1.5,48,,,,,,,,
,,,,,,,,,,,,,,,8128,2022-01-20_21h29.19.148,multiplicationStroop,2021.2.3,Win32,59.96641881,,,,,,,,,,,,,,,,,,,,,,,,,,,,,,,,,63,3.0914,1,0,18,18,26,1,9,×,7,9 × 7,neutral,largerFirst,1.5,1.5,63,,,,,,,,
,,,,,,,,,,,,,,,8128,2022-01-20_21h29.19.148,multiplicationStroop,2021.2.3,Win32,59.96641881,,,,,,,,,,,,,,,,,,,,,,,,,,,,,,,,,40,2.0605,1,0,19,19,10,1,5,×,8,5 × 8,neutral,smallerFirst,1.5,1.5,40,,,,,,,,
,,,,,,,,,,,,,,,8128,2022-01-20_21h29.19.148,multiplicationStroop,2021.2.3,Win32,59.96641881,,,,,,,,,,,,,,,,,,,,,,,,,,,,,,,,,24,1.6306,1,0,20,20,16,1,6,×,4,6 × 4,neutral,largerFirst,1.5,1.5,24,,,,,,,,
,,,,,,,,,,,,,,,8128,2022-01-20_21h29.19.148,multiplicationStroop,2021.2.3,Win32,59.96641881,,,,,,,,,,,,,,,,,,,,,,,,,,,,,,,,,36,2.7052,1,0,21,21,13,1,4,×,9,4 × 9,neutral,smallerFirst,1.5,1.5,36,,,,,,,,
,,,,,,,,,,,,,,,8128,2022-01-20_21h29.19.148,multiplicationStroop,2021.2.3,Win32,59.96641881,,,,,,,,,,,,,,,,,,,,,,,,,,,,,,,,,35,2.0277,1,0,22,22,15,1,7,×,5,7 × 5,neutral,largerFirst,1.5,1.5,35,,,,,,,,
,,,,,,,,,,,,,,,8128,2022-01-20_21h29.19.148,multiplicationStroop,2021.2.3,Win32,59.96641881,,,,,,,,,,,,,,,,,,,,,,,,,,,,,,,,,4,1.9172,1,0,23,23,28,1,2,×,2,2 × 2,neutral,tie,1.5,1.5,4,,,,,,,,
,,,,,,,,,,,,,,,8128,2022-01-20_21h29.19.148,multiplicationStroop,2021.2.3,Win32,59.96641881,,,,,,,,,,,,,,,,,,,,,,,,,,,,,,,,,45,3.2627,1,0,24,24,24,1,9,×,5,9 × 5,neutral,largerFirst,1.5,1.5,45,,,,,,,,
,,,,,,,,,,,,,,,8128,2022-01-20_21h29.19.148,multiplicationStroop,2021.2.3,Win32,59.96641881,,,,,,,,,,,,,,,,,,,,,,,,,,,,,,,,,36,2.0914,1,0,25,25,32,1,6,×,6,6 × 6,neutral,tie,1.5,1.5,36,,,,,,,,
,,,,,,,,,,,,,,,8128,2022-01-20_21h29.19.148,multiplicationStroop,2021.2.3,Win32,59.96641881,,,,,,,,,,,,,,,,,,,,,,,,,,,,,,,,,21,1.9165,1,0,26,26,22,1,7,×,3,7 × 3,neutral,largerFirst,1.5,1.5,21,,,,,,,,
,,,,,,,,,,,,,,,8128,2022-01-20_21h29.19.148,multiplicationStroop,2021.2.3,Win32,59.96641881,,,,,,,,,,,,,,,,,,,,,,,,,,,,,,,,,32,2.1639,1,0,27,27,9,1,4,×,8,4 × 8,neutral,smallerFirst,1.5,1.5,32,,,,,,,,
,,,,,,,,,,,,,,,8128,2022-01-20_21h29.19.148,multiplicationStroop,2021.2.3,Win32,59.96641881,,,,,,,,,,,,,,,,,,,,,,,,,,,,,,,,,16,1.9399,1,0,28,28,27,1,8,×,2,8 × 2,neutral,largerFirst,1.5,1.5,16,,,,,,,,
,,,,,,,,,,,,,,,8128,2022-01-20_21h29.19.148,multiplicationStroop,2021.2.3,Win32,59.96641881,,,,,,,,,,,,,,,,,,,,,,,,,,,,,,,,,12,1.616,1,0,29,29,7,1,3,×,4,3 × 4,neutral,smallerFirst,1.5,1.5,12,,,,,,,,
,,,,,,,,,,,,,,,8128,2022-01-20_21h29.19.148,multiplicationStroop,2021.2.3,Win32,59.96641881,,,,,,,,,,,,,,,,,,,,,,,,,,,,,,,,,20,1.9646,1,0,30,30,6,1,4,×,5,4 × 5,neutral,smallerFirst,1.5,1.5,20,,,,,,,,
,,,,,,,,,,,,,,,8128,2022-01-20_21h29.19.148,multiplicationStroop,2021.2.3,Win32,59.96641881,,,,,,,,,,,,,,,,,,,,,,,,,,,,,,,,,6,2.0447,1,0,31,31,12,1,2,×,3,2 × 3,neutral,smallerFirst,1.5,1.5,6,,,,,,,,
,,,,,,,,,,,,,,,8128,2022-01-20_21h29.19.148,multiplicationStroop,2021.2.3,Win32,59.96641881,,,,,,,,,,,,,,,,,,,,,,,,,,,,,,,,,9,1.7163,1,0,32,32,29,1,3,×,3,3 × 3,neutral,tie,1.5,1.5,9,,,,,,,,
,,,,,,,,,,,,,,,8128,2022-01-20_21h29.19.148,multiplicationStroop,2021.2.3,Win32,59.96641881,,,,,,,,,,,,,,,,,,,,,,,,,,,,,,,,,16,1.6687,1,0,33,33,30,1,4,×,4,4 × 4,neutral,tie,1.5,1.5,16,,,,,,,,
,,,,,,,,,,,,,,,8128,2022-01-20_21h29.19.148,multiplicationStroop,2021.2.3,Win32,59.96641881,,,,,,,,,,,,,,,,,,,,,,,,,,,,,,,,,72,2.768,1,0,34,34,25,1,9,×,8,9 × 8,neutral,largerFirst,1.5,1.5,72,,,,,,,,
,,,,,,,,,,,,,,,8128,2022-01-20_21h29.19.148,multiplicationStroop,2021.2.3,Win32,59.96641881,,,,,,,,,,,,,,,,,,,,,,,,,,,,,,,,,14,1.5726,1,0,35,35,2,1,2,×,7,2 × 7,neutral,smallerFirst,1.5,1.5,14,,,,,,,,
,,,,,,,,,,,,,,,8128,2022-01-20_21h29.19.148,multiplicationStroop,2021.2.3,Win32,59.96641881,,,,,,,,,,,,,,,,,,,,,,,,,,,,,,,,,,,,,,,,,,,,,,,,,,0,1,1,0,1,stimulusFile/mult_blk1.xlsx,,
,,,,,,,,,,,,,,,8128,2022-01-20_21h29.19.148,multiplicationStroop,2021.2.3,Win32,59.96641881,,,,,,,,,,,,,,,,,,,,,,,,,,,,,,,space,12.489,72,3.4812,1,0,0,0,17,1,9,×,8,9 × 8,congruent,largerFirst,2,1,72,,,,,,,,
,,,,,,,,,,,,,,,8128,2022-01-20_21h29.19.148,multiplicationStroop,2021.2.3,Win32,59.96641881,,,,,,,,,,,,,,,,,,,,,,,,,,,,,,,,,25,1.652,1,0,1,1,31,1,5,×,5,5 × 5,neutral,tie,2,1,25,,,,,,,,
,,,,,,,,,,,,,,,8128,2022-01-20_21h29.19.148,multiplicationStroop,2021.2.3,Win32,59.96641881,,,,,,,,,,,,,,,,,,,,,,,,,,,,,,,,,15,1.7158,1,0,2,2,4,1,3,×,5,3 × 5,congruent,smallerFirst,1,2,15,,,,,,,,
,,,,,,,,,,,,,,,8128,2022-01-20_21h29.19.148,multiplicationStroop,2021.2.3,Win32,59.96641881,,,,,,,,,,,,,,,,,,,,,,,,,,,,,,,,,27,2.07,1,0,3,3,26,1,9,×,3,9 × 3,congruent,largerFirst,2,1,27,,,,,,,,
,,,,,,,,,,,,,,,8128,2022-01-20_21h29.19.148,multiplicationStroop,2021.2.3,Win32,59.96641881,,,,,,,,,,,,,,,,,,,,,,,,,,,,,,,,,40,2.8484,1,0,4,4,6,1,5,×,8,5 × 8,congruent,smallerFirst,1,2,40,,,,,,,,
,,,,,,,,,,,,,,,8128,2022-01-20_21h29.19.148,multiplicationStroop,2021.2.3,Win32,59.96641881,,,,,,,,,,,,,,,,,,,,,,,,,,,,,,,,,14,1.5157,1,0,5,5,14,1,7,×,2,7 × 2,congruent,largerFirst,2,1,14,,,,,,,,
,,,,,,,,,,,,,,,8128,2022-01-20_21h29.19.148,multiplicationStroop,2021.2.3,Win32,59.96641881,,,,,,,,,,,,,,,,,,,,,,,,,,,,,,,,,21,1.6604,1,0,6,6,16,1,7,×,3,7 × 3,congruent,largerFirst,2,1,21,,,,,,,,
,,,,,,,,,,,,,,,8128,2022-01-20_21h29.19.148,multiplicationStroop,2021.2.3,Win32,59.96641881,,,,,,,,,,,,,,,,,,,,,,,,,,,,,,,,,42,4.5847,1,0,7,7,3,1,6,×,7,6 × 7,congruent,smallerFirst,1,2,42,,,,,,,,
,,,,,,,,,,,,,,,8128,2022-01-20_21h29.19.148,multiplicationStroop,2021.2.3,Win32,59.96641881,,,,,,,,,,,,,,,,,,,,,,,,,,,,,,,,,24,1.7095,1,0,8,8,25,1,6,×,4,6 × 4,congruent,largerFirst,2,1,24,,,,,,,,
,,,,,,,,,,,,,,,8128,2022-01-20_21h29.19.148,multiplicationStroop,2021.2.3,Win32,59.96641881,,,,,,,,,,,,,,,,,,,,,,,,,,,,,,,,,81,1.966,1,0,9,9,35,1,9,×,9,9 × 9,neutral,tie,2,1,81,,,,,,,,
,,,,,,,,,,,,,,,8128,2022-01-20_21h29.19.148,multiplicationStroop,2021.2.3,Win32,59.96641881,,,,,,,,,,,,,,,,,,,,,,,,,,,,,,,,,18,1.8036,1,0,10,10,22,1,9,×,2,9 × 2,congruent,largerFirst,2,1,18,,,,,,,,
,,,,,,,,,,,,,,,8128,2022-01-20_21h29.19.148,multiplicationStroop,2021.2.3,Win32,59.96641881,,,,,,,,,,,,,,,,,,,,,,,,,,,,,,,,,49,2.5643,1,0,11,11,33,1,7,×,7,7 × 7,neutral,tie,2,1,49,,,,,,,,
,,,,,,,,,,,,,,,8128,2022-01-20_21h29.19.148,multiplicationStroop,2021.2.3,Win32,59.96641881,,,,,,,,,,,,,,,,,,,,,,,,,,,,,,,,,32,3.028,1,0,12,12,20,1,8,×,4,8 × 4,congruent,largerFirst,2,1,32,,,,,,,,
,,,,,,,,,,,,,,,8128,2022-01-20_21h29.19.148,multiplicationStroop,2021.2.3,Win32,59.96641881,,,,,,,,,,,,,,,,,,,,,,,,,,,,,,,,,10,1.8604,1,0,13,13,24,1,5,×,2,5 × 2,congruent,largerFirst,2,1,10,,,,,,,,
,,,,,,,,,,,,,,,8128,2022-01-20_21h29.19.148,multiplicationStroop,2021.2.3,Win32,59.96641881,,,,,,,,,,,,,,,,,,,,,,,,,,,,,,,,,6,1.7341,1,0,14,14,13,1,2,×,3,2 × 3,congruent,smallerFirst,1,2,6,,,,,,,,
,,,,,,,,,,,,,,,8128,2022-01-20_21h29.19.148,multiplicationStroop,2021.2.3,Win32,59.96641881,,,,,,,,,,,,,,,,,,,,,,,,,,,,,,,,,9,1.6284,1,0,15,15,29,1,3,×,3,3 × 3,neutral,tie,2,1,9,,,,,,,,
,,,,,,,,,,,,,,,8128,2022-01-20_21h29.19.148,multiplicationStroop,2021.2.3,Win32,59.96641881,,,,,,,,,,,,,,,,,,,,,,,,,,,,,,,,,16,1.9164,1,0,16,16,30,1,4,×,4,4 × 4,neutral,tie,2,1,16,,,,,,,,
,,,,,,,,,,,,,,,8128,2022-01-20_21h29.19.148,multiplicationStroop,2021.2.3,Win32,59.96641881,,,,,,,,,,,,,,,,,,,,,,,,,,,,,,,,,64,2.7696,1,0,17,17,34,1,8,×,8,8 × 8,neutral,tie,2,1,64,,,,,,,,
,,,,,,,,,,,,,,,8128,2022-01-20_21h29.19.148,multiplicationStroop,2021.2.3,Win32,59.96641881,,,,,,,,,,,,,,,,,,,,,,,,,,,,,,,,,8,1.8095,1,0,18,18,9,1,2,×,4,2 × 4,congruent,smallerFirst,1,2,8,,,,,,,,
,,,,,,,,,,,,,,,8128,2022-01-20_21h29.19.148,multiplicationStroop,2021.2.3,Win32,59.96641881,,,,,,,,,,,,,,,,,,,,,,,,,,,,,,,,,45,1.9002,1,0,19,19,23,1,9,×,5,9 × 5,congruent,largerFirst,2,1,45,,,,,,,,
,,,,,,,,,,,,,,,8128,2022-01-20_21h29.19.148,multiplicationStroop,2021.2.3,Win32,59.96641881,,,,,,,,,,,,,,,,,,,,,,,,,,,,,,,,,12,1.8435,1,0,20,20,2,1,3,×,4,3 × 4,congruent,smallerFirst,1,2,12,,,,,,,,
,,,,,,,,,,,,,,,8128,2022-01-20_21h29.19.148,multiplicationStroop,2021.2.3,Win32,59.96641881,,,,,,,,,,,,,,,,,,,,,,,,,,,,,,,,,18,3.2006,1,0,21,21,11,1,3,×,6,3 × 6,congruent,smallerFirst,1,2,18,,,,,,,,
,,,,,,,,,,,,,,,8128,2022-01-20_21h29.19.148,multiplicationStroop,2021.2.3,Win32,59.96641881,,,,,,,,,,,,,,,,,,,,,,,,,,,,,,,,,56,2.7605,1,0,22,22,8,1,7,×,8,7 × 8,congruent,smallerFirst,1,2,56,,,,,,,,
,,,,,,,,,,,,,,,8128,2022-01-20_21h29.19.148,multiplicationStroop,2021.2.3,Win32,59.96641881,,,,,,,,,,,,,,,,,,,,,,,,,,,,,,,,,12,2.1015,1,0,23,23,19,1,6,×,2,6 × 2,congruent,largerFirst,2,1,12,,,,,,,,
,,,,,,,,,,,,,,,8128,2022-01-20_21h29.19.148,multiplicationStroop,2021.2.3,Win32,59.96641881,,,,,,,,,,,,,,,,,,,,,,,,,,,,,,,,,4,1.3718,1,0,24,24,28,1,2,×,2,2 × 2,neutral,tie,2,1,4,,,,,,,,
,,,,,,,,,,,,,,,8128,2022-01-20_21h29.19.148,multiplicationStroop,2021.2.3,Win32,59.96641881,,,,,,,,,,,,,,,,,,,,,,,,,,,,,,,,,48,2.7532,1,0,25,25,18,1,8,×,6,8 × 6,congruent,largerFirst,2,1,48,,,,,,,,
,,,,,,,,,,,,,,,8128,2022-01-20_21h29.19.148,multiplicationStroop,2021.2.3,Win32,59.96641881,,,,,,,,,,,,,,,,,,,,,,,,,,,,,,,,,63,3.1405,1,0,26,26,21,1,9,×,7,9 × 7,congruent,largerFirst,2,1,63,,,,,,,,
,,,,,,,,,,,,,,,8128,2022-01-20_21h29.19.148,multiplicationStroop,2021.2.3,Win32,59.96641881,,,,,,,,,,,,,,,,,,,,,,,,,,,,,,,,,36,2.1637,1,0,27,27,32,1,6,×,6,6 × 6,neutral,tie,2,1,36,,,,,,,,
,,,,,,,,,,,,,,,8128,2022-01-20_21h29.19.148,multiplicationStroop,2021.2.3,Win32,59.96641881,,,,,,,,,,,,,,,,,,,,,,,,,,,,,,,,,35,2.4826,1,0,28,28,1,1,5,×,7,5 × 7,congruent,smallerFirst,1,2,35,,,,,,,,
,,,,,,,,,,,,,,,8128,2022-01-20_21h29.19.148,multiplicationStroop,2021.2.3,Win32,59.96641881,,,,,,,,,,,,,,,,,,,,,,,,,,,,,,,,,28,2.4175,1,0,29,29,27,1,7,×,4,7 × 4,congruent,largerFirst,2,1,28,,,,,,,,
,,,,,,,,,,,,,,,8128,2022-01-20_21h29.19.148,multiplicationStroop,2021.2.3,Win32,59.96641881,,,,,,,,,,,,,,,,,,,,,,,,,,,,,,,,,20,2.689,1,0,30,30,7,1,4,×,5,4 × 5,congruent,smallerFirst,1,2,20,,,,,,,,
,,,,,,,,,,,,,,,8128,2022-01-20_21h29.19.148,multiplicationStroop,2021.2.3,Win32,59.96641881,,,,,,,,,,,,,,,,,,,,,,,,,,,,,,,,,24,2.171,1,0,31,31,10,1,3,×,8,3 × 8,congruent,smallerFirst,1,2,24,,,,,,,,
,,,,,,,,,,,,,,,8128,2022-01-20_21h29.19.148,multiplicationStroop,2021.2.3,Win32,59.96641881,,,,,,,,,,,,,,,,,,,,,,,,,,,,,,,,,36,2.4295,1,0,32,32,0,1,4,×,9,4 × 9,congruent,smallerFirst,1,2,36,,,,,,,,
,,,,,,,,,,,,,,,8128,2022-01-20_21h29.19.148,multiplicationStroop,2021.2.3,Win32,59.96641881,,,,,,,,,,,,,,,,,,,,,,,,,,,,,,,,,16,2.013,1,0,33,33,5,1,2,×,8,2 × 8,congruent,smallerFirst,1,2,16,,,,,,,,
,,,,,,,,,,,,,,,8128,2022-01-20_21h29.19.148,multiplicationStroop,2021.2.3,Win32,59.96641881,,,,,,,,,,,,,,,,,,,,,,,,,,,,,,,,,30,1.804,1,0,34,34,15,1,6,×,5,6 × 5,congruent,largerFirst,2,1,30,,,,,,,,
,,,,,,,,,,,,,,,8128,2022-01-20_21h29.19.148,multiplicationStroop,2021.2.3,Win32,59.96641881,,,,,,,,,,,,,,,,,,,,,,,,,,,,,,,,,54,2.2845,1,0,35,35,12,1,6,×,9,6 × 9,congruent,smallerFirst,1,2,54,,,,,,,,
,,,,,,,,,,,,,,,8128,2022-01-20_21h29.19.148,multiplicationStroop,2021.2.3,Win32,59.96641881,,,,,,,,,,,,,,,,,,,,,,,,,,,,,,,,,,,,,,,,,,,,,,,,,,0,2,2,2,1,stimulusFile/mult_blk3_congruent.xlsx,,
,,,,,,,,,,,,,,,8128,2022-01-20_21h29.19.148,multiplicationStroop,2021.2.3,Win32,59.96641881,,,,,,,,,,,,,,,,,,,,,,,,,,,,,,,space,0.9705,25,1.6217,1,0,0,0,31,1,5,×,5,5 × 5,incongruent,tie,1,2,25,,,,,,,,
,,,,,,,,,,,,,,,8128,2022-01-20_21h29.19.148,multiplicationStroop,2021.2.3,Win32,59.96641881,,,,,,,,,,,,,,,,,,,,,,,,,,,,,,,,,24,1.6718,1,0,1,1,9,1,3,×,8,3 × 8,incongruent,smallerFirst,2,1,24,,,,,,,,
,,,,,,,,,,,,,,,8128,2022-01-20_21h29.19.148,multiplicationStroop,2021.2.3,Win32,59.96641881,,,,,,,,,,,,,,,,,,,,,,,,,,,,,,,,,20,1.6606,1,0,2,2,27,1,5,×,4,5 × 4,incongruent,largerFirst,1,2,20,,,,,,,,
,,,,,,,,,,,,,,,8128,2022-01-20_21h29.19.148,multiplicationStroop,2021.2.3,Win32,59.96641881,,,,,,,,,,,,,,,,,,,,,,,,,,,,,,,,,6,1.9215,1,0,3,3,11,1,2,×,3,2 × 3,incongruent,smallerFirst,2,1,6,,,,,,,,
,,,,,,,,,,,,,,,8128,2022-01-20_21h29.19.148,multiplicationStroop,2021.2.3,Win32,59.96641881,,,,,,,,,,,,,,,,,,,,,,,,,,,,,,,,,21,5.9594,1,0,4,4,26,1,7,×,3,7 × 3,incongruent,largerFirst,1,2,21,,,,,,,,
,,,,,,,,,,,,,,,8128,2022-01-20_21h29.19.148,multiplicationStroop,2021.2.3,Win32,59.96641881,,,,,,,,,,,,,,,,,,,,,,,,,,,,,,,,,48,2.1589,1,0,5,5,1,1,6,×,8,6 × 8,incongruent,smallerFirst,2,1,48,,,,,,,,
,,,,,,,,,,,,,,,8128,2022-01-20_21h29.19.148,multiplicationStroop,2021.2.3,Win32,59.96641881,,,,,,,,,,,,,,,,,,,,,,,,,,,,,,,,,72,3.3368,1,0,6,6,0,1,8,×,9,8 × 9,incongruent,smallerFirst,2,1,72,,,,,,,,
,,,,,,,,,,,,,,,8128,2022-01-20_21h29.19.148,multiplicationStroop,2021.2.3,Win32,59.96641881,,,,,,,,,,,,,,,,,,,,,,,,,,,,,,,,,64,2.053,1,0,7,7,34,1,8,×,8,8 × 8,incongruent,tie,1,2,64,,,,,,,,
,,,,,,,,,,,,,,,8128,2022-01-20_21h29.19.148,multiplicationStroop,2021.2.3,Win32,59.96641881,,,,,,,,,,,,,,,,,,,,,,,,,,,,,,,,,16,2.6201,1,0,8,8,23,1,8,×,2,8 × 2,incongruent,largerFirst,1,2,16,,,,,,,,
,,,,,,,,,,,,,,,8128,2022-01-20_21h29.19.148,multiplicationStroop,2021.2.3,Win32,59.96641881,,,,,,,,,,,,,,,,,,,,,,,,,,,,,,,,,28,2.3285,1,0,9,9,16,1,7,×,4,7 × 4,incongruent,largerFirst,1,2,28,,,,,,,,
,,,,,,,,,,,,,,,8128,2022-01-20_21h29.19.148,multiplicationStroop,2021.2.3,Win32,59.96641881,,,,,,,,,,,,,,,,,,,,,,,,,,,,,,,,,36,1.8039,1,0,10,10,32,1,6,×,6,6 × 6,incongruent,tie,1,2,36,,,,,,,,
,,,,,,,,,,,,,,,8128,2022-01-20_21h29.19.148,multiplicationStroop,2021.2.3,Win32,59.96641881,,,,,,,,,,,,,,,,,,,,,,,,,,,,,,,,,27,2.2446,1,0,11,11,18,1,9,×,3,9 × 3,incongruent,largerFirst,1,2,27,,,,,,,,
,,,,,,,,,,,,,,,8128,2022-01-20_21h29.19.148,multiplicationStroop,2021.2.3,Win32,59.96641881,,,,,,,,,,,,,,,,,,,,,,,,,,,,,,,,,54,2.2975,1,0,12,12,6,1,6,×,9,6 × 9,incongruent,smallerFirst,2,1,54,,,,,,,,
,,,,,,,,,,,,,,,8128,2022-01-20_21h29.19.148,multiplicationStroop,2021.2.3,Win32,59.96641881,,,,,,,,,,,,,,,,,,,,,,,,,,,,,,,,,45,1.745,1,0,13,13,22,1,9,×,5,9 × 5,incongruent,largerFirst,1,2,45,,,,,,,,
,,,,,,,,,,,,,,,8128,2022-01-20_21h29.19.148,multiplicationStroop,2021.2.3,Win32,59.96641881,,,,,,,,,,,,,,,,,,,,,,,,,,,,,,,,,12,2.1471,1,0,14,14,5,1,3,×,4,3 × 4,incongruent,smallerFirst,2,1,12,,,,,,,,
,,,,,,,,,,,,,,,8128,2022-01-20_21h29.19.148,multiplicationStroop,2021.2.3,Win32,59.96641881,,,,,,,,,,,,,,,,,,,,,,,,,,,,,,,,,32,3.0036,1,0,15,15,7,1,4,×,8,4 × 8,incongruent,smallerFirst,2,1,32,,,,,,,,
,,,,,,,,,,,,,,,8128,2022-01-20_21h29.19.148,multiplicationStroop,2021.2.3,Win32,59.96641881,,,,,,,,,,,,,,,,,,,,,,,,,,,,,,,,,56,2.1325,1,0,16,16,14,1,8,×,7,8 × 7,incongruent,largerFirst,1,2,56,,,,,,,,
,,,,,,,,,,,,,,,8128,2022-01-20_21h29.19.148,multiplicationStroop,2021.2.3,Win32,59.96641881,,,,,,,,,,,,,,,,,,,,,,,,,,,,,,,,,9,1.8521,1,0,17,17,29,1,3,×,3,3 × 3,incongruent,tie,1,2,9,,,,,,,,
,,,,,,,,,,,,,,,8128,2022-01-20_21h29.19.148,multiplicationStroop,2021.2.3,Win32,59.96641881,,,,,,,,,,,,,,,,,,,,,,,,,,,,,,,,,12,1.4112,1,0,18,18,19,1,6,×,2,6 × 2,incongruent,largerFirst,1,2,12,,,,,,,,
,,,,,,,,,,,,,,,8128,2022-01-20_21h29.19.148,multiplicationStroop,2021.2.3,Win32,59.96641881,,,,,,,,,,,,,,,,,,,,,,,,,,,,,,,,,14,3.0526,1,0,19,19,4,1,2,×,7,2 × 7,incongruent,smallerFirst,2,1,14,,,,,,,,
,,,,,,,,,,,,,,,8128,2022-01-20_21h29.19.148,multiplicationStroop,2021.2.3,Win32,59.96641881,,,,,,,,,,,,,,,,,,,,,,,,,,,,,,,,,24,1.5285,1,0,20,20,20,1,6,×,4,6 × 4,incongruent,largerFirst,1,2,24,,,,,,,,
,,,,,,,,,,,,,,,8128,2022-01-20_21h29.19.148,multiplicationStroop,2021.2.3,Win32,59.96641881,,,,,,,,,,,,,,,,,,,,,,,,,,,,,,,,,10,1.7323,1,0,21,21,21,1,5,×,2,5 × 2,incongruent,largerFirst,1,2,10,,,,,,,,
,,,,,,,,,,,,,,,8128,2022-01-20_21h29.19.148,multiplicationStroop,2021.2.3,Win32,59.96641881,,,,,,,,,,,,,,,,,,,,,,,,,,,,,,,,,36,2.3482,1,0,22,22,15,1,9,×,4,9 × 4,incongruent,largerFirst,1,2,36,,,,,,,,
,,,,,,,,,,,,,,,8128,2022-01-20_21h29.19.148,multiplicationStroop,2021.2.3,Win32,59.96641881,,,,,,,,,,,,,,,,,,,,,,,,,,,,,,,,,49,1.9322,1,0,23,23,33,1,7,×,7,7 × 7,incongruent,tie,1,2,49,,,,,,,,
,,,,,,,,,,,,,,,8128,2022-01-20_21h29.19.148,multiplicationStroop,2021.2.3,Win32,59.96641881,,,,,,,,,,,,,,,,,,,,,,,,,,,,,,,,,15,1.6196,1,0,24,24,10,1,3,×,5,3 × 5,incongruent,smallerFirst,2,1,15,,,,,,,,
,,,,,,,,,,,,,,,8128,2022-01-20_21h29.19.148,multiplicationStroop,2021.2.3,Win32,59.96641881,,,,,,,,,,,,,,,,,,,,,,,,,,,,,,,,,40,2.3154,1,0,25,25,13,1,5,×,8,5 × 8,incongruent,smallerFirst,2,1,40,,,,,,,,
,,,,,,,,,,,,,,,8128,2022-01-20_21h29.19.148,multiplicationStroop,2021.2.3,Win32,59.96641881,,,,,,,,,,,,,,,,,,,,,,,,,,,,,,,,,18,2.7796,1,0,26,26,8,1,3,×,6,3 × 6,incongruent,smallerFirst,2,1,18,,,,,,,,
,,,,,,,,,,,,,,,8128,2022-01-20_21h29.19.148,multiplicationStroop,2021.2.3,Win32,59.96641881,,,,,,,,,,,,,,,,,,,,,,,,,,,,,,,,,18,5.4037,1,0,27,27,2,1,2,×,9,2 × 9,incongruent,smallerFirst,2,1,18,,,,,,,,
,,,,,,,,,,,,,,,8128,2022-01-20_21h29.19.148,multiplicationStroop,2021.2.3,Win32,59.96641881,,,,,,,,,,,,,,,,,,,,,,,,,,,,,,,,,4,1.4209,1,0,28,28,28,1,2,×,2,2 × 2,incongruent,tie,1,2,4,,,,,,,,
,,,,,,,,,,,,,,,8128,2022-01-20_21h29.19.148,multiplicationStroop,2021.2.3,Win32,59.96641881,,,,,,,,,,,,,,,,,,,,,,,,,,,,,,,,,35,2.0681,1,0,29,29,12,1,5,×,7,5 × 7,incongruent,smallerFirst,2,1,35,,,,,,,,
,,,,,,,,,,,,,,,8128,2022-01-20_21h29.19.148,multiplicationStroop,2021.2.3,Win32,59.96641881,,,,,,,,,,,,,,,,,,,,,,,,,,,,,,,,,42,2.268,1,0,30,30,17,1,7,×,6,7 × 6,incongruent,largerFirst,1,2,42,,,,,,,,
,,,,,,,,,,,,,,,8128,2022-01-20_21h29.19.148,multiplicationStroop,2021.2.3,Win32,59.96641881,,,,,,,,,,,,,,,,,,,,,,,,,,,,,,,,,8,1.7005,1,0,31,31,24,1,4,×,2,4 × 2,incongruent,largerFirst,1,2,8,,,,,,,,
,,,,,,,,,,,,,,,8128,2022-01-20_21h29.19.148,multiplicationStroop,2021.2.3,Win32,59.96641881,,,,,,,,,,,,,,,,,,,,,,,,,,,,,,,,,81,3.0448,1,0,32,32,35,1,9,×,9,9 × 9,incongruent,tie,1,2,81,,,,,,,,
,,,,,,,,,,,,,,,8128,2022-01-20_21h29.19.148,multiplicationStroop,2021.2.3,Win32,59.96641881,,,,,,,,,,,,,,,,,,,,,,,,,,,,,,,,,30,1.8356,1,0,33,33,25,1,6,×,5,6 × 5,incongruent,largerFirst,1,2,30,,,,,,,,
,,,,,,,,,,,,,,,8128,2022-01-20_21h29.19.148,multiplicationStroop,2021.2.3,Win32,59.96641881,,,,,,,,,,,,,,,,,,,,,,,,,,,,,,,,,16,1.78,1,0,34,34,30,1,4,×,4,4 × 4,incongruent,tie,1,2,16,,,,,,,,
,,,,,,,,,,,,,,,8128,2022-01-20_21h29.19.148,multiplicationStroop,2021.2.3,Win32,59.96641881,,,,,,,,,,,,,,,,,,,,,,,,,,,,,,,,,63,2.9849,1,0,35,35,3,1,7,×,9,7 × 9,incongruent,smallerFirst,2,1,63,,,,,,,,
,,,,,,,,,,,,,,,8128,2022-01-20_21h29.19.148,multiplicationStroop,2021.2.3,Win32,59.96641881,,,,,,,,,,,,,,,,,,,,,,,,,,,,,,,,,,,,,,,,,,,,,,,,,,0,3,3,5,1,stimulusFile/mult_blk6_INcongruent.xlsx,,
,,,,,,,,,,,,,,,8128,2022-01-20_21h29.19.148,multiplicationStroop,2021.2.3,Win32,59.96641881,,,,,,,,,,,,,,,,,,,,,,,,,,,,,,,space,537.1304,30,2.0782,1,0,0,0,1,1,5,×,6,5 × 6,congruent,smallerFirst,1,2,30,,,,,,,,
,,,,,,,,,,,,,,,8128,2022-01-20_21h29.19.148,multiplicationStroop,2021.2.3,Win32,59.96641881,,,,,,,,,,,,,,,,,,,,,,,,,,,,,,,,,16,2.2967,1,0,1,1,30,1,4,×,4,4 × 4,neutral,tie,1,2,16,,,,,,,,
,,,,,,,,,,,,,,,8128,2022-01-20_21h29.19.148,multiplicationStroop,2021.2.3,Win32,59.96641881,,,,,,,,,,,,,,,,,,,,,,,,,,,,,,,,,6,2.7315,1,0,2,2,27,1,3,×,2,3 × 2,congruent,largerFirst,2,1,6,,,,,,,,
,,,,,,,,,,,,,,,8128,2022-01-20_21h29.19.148,multiplicationStroop,2021.2.3,Win32,59.96641881,,,,,,,,,,,,,,,,,,,,,,,,,,,,,,,,,48,1.8694,1,0,3,3,4,1,6,×,8,6 × 8,congruent,smallerFirst,1,2,48,,,,,,,,
,,,,,,,,,,,,,,,8128,2022-01-20_21h29.19.148,multiplicationStroop,2021.2.3,Win32,59.96641881,,,,,,,,,,,,,,,,,,,,,,,,,,,,,,,,,35,1.5153,1,0,4,4,15,1,7,×,5,7 × 5,congruent,largerFirst,2,1,35,,,,,,,,
,,,,,,,,,,,,,,,8128,2022-01-20_21h29.19.148,multiplicationStroop,2021.2.3,Win32,59.96641881,,,,,,,,,,,,,,,,,,,,,,,,,,,,,,,,,63,5.1962,1,0,5,5,7,1,7,×,9,7 × 9,congruent,smallerFirst,1,2,63,,,,,,,,
,,,,,,,,,,,,,,,8128,2022-01-20_21h29.19.148,multiplicationStroop,2021.2.3,Win32,59.96641881,,,,,,,,,,,,,,,,,,,,,,,,,,,,,,,,,16,1.8297,1,0,6,6,19,1,8,×,2,8 × 2,congruent,largerFirst,2,1,16,,,,,,,,
,,,,,,,,,,,,,,,8128,2022-01-20_21h29.19.148,multiplicationStroop,2021.2.3,Win32,59.96641881,,,,,,,,,,,,,,,,,,,,,,,,,,,,,,,,,18,2.5152,1,0,7,7,8,1,2,×,9,2 × 9,congruent,smallerFirst,1,2,18,,,,,,,,
,,,,,,,,,,,,,,,8128,2022-01-20_21h29.19.148,multiplicationStroop,2021.2.3,Win32,59.96641881,,,,,,,,,,,,,,,,,,,,,,,,,,,,,,,,,24,1.5874,1,0,8,8,11,1,4,×,6,4 × 6,congruent,smallerFirst,1,2,24,,,,,,,,
,,,,,,,,,,,,,,,8128,2022-01-20_21h29.19.148,multiplicationStroop,2021.2.3,Win32,59.96641881,,,,,,,,,,,,,,,,,,,,,,,,,,,,,,,,,45,1.5807,1,0,9,9,9,1,5,×,9,5 × 9,congruent,smallerFirst,1,2,45,,,,,,,,
,,,,,,,,,,,,,,,8128,2022-01-20_21h29.19.148,multiplicationStroop,2021.2.3,Win32,59.96641881,,,,,,,,,,,,,,,,,,,,,,,,,,,,,,,,,12,2.2023,1,0,10,10,5,1,2,×,6,2 × 6,congruent,smallerFirst,1,2,12,,,,,,,,
,,,,,,,,,,,,,,,8128,2022-01-20_21h29.19.148,multiplicationStroop,2021.2.3,Win32,59.96641881,,,,,,,,,,,,,,,,,,,,,,,,,,,,,,,,,10,1.9474,1,0,11,11,10,1,2,×,5,2 × 5,congruent,smallerFirst,1,2,10,,,,,,,,
,,,,,,,,,,,,,,,8128,2022-01-20_21h29.19.148,multiplicationStroop,2021.2.3,Win32,59.96641881,,,,,,,,,,,,,,,,,,,,,,,,,,,,,,,,,9,1.6039,1,0,12,12,29,1,3,×,3,3 × 3,neutral,tie,1,2,9,,,,,,,,
,,,,,,,,,,,,,,,8128,2022-01-20_21h29.19.148,multiplicationStroop,2021.2.3,Win32,59.96641881,,,,,,,,,,,,,,,,,,,,,,,,,,,,,,,,,24,1.5479,1,0,13,13,24,1,8,×,3,8 × 3,congruent,largerFirst,2,1,24,,,,,,,,
,,,,,,,,,,,,,,,8128,2022-01-20_21h29.19.148,multiplicationStroop,2021.2.3,Win32,59.96641881,,,,,,,,,,,,,,,,,,,,,,,,,,,,,,,,,28,2.0489,1,0,14,14,13,1,4,×,7,4 × 7,congruent,smallerFirst,1,2,28,,,,,,,,
,,,,,,,,,,,,,,,8128,2022-01-20_21h29.19.148,multiplicationStroop,2021.2.3,Win32,59.96641881,,,,,,,,,,,,,,,,,,,,,,,,,,,,,,,,,12,1.4827,1,0,15,15,16,1,4,×,3,4 × 3,congruent,largerFirst,2,1,12,,,,,,,,
,,,,,,,,,,,,,,,8128,2022-01-20_21h29.19.148,multiplicationStroop,2021.2.3,Win32,59.96641881,,,,,,,,,,,,,,,,,,,,,,,,,,,,,,,,,64,2.1005,1,0,16,16,34,1,8,×,8,8 × 8,neutral,tie,1,2,64,,,,,,,,
,,,,,,,,,,,,,,,8128,2022-01-20_21h29.19.148,multiplicationStroop,2021.2.3,Win32,59.96641881,,,,,,,,,,,,,,,,,,,,,,,,,,,,,,,,,20,1.9723,1,0,17,17,21,1,5,×,4,5 × 4,congruent,largerFirst,2,1,20,,,,,,,,
,,,,,,,,,,,,,,,8128,2022-01-20_21h29.19.148,multiplicationStroop,2021.2.3,Win32,59.96641881,,,,,,,,,,,,,,,,,,,,,,,,,,,,,,,,,18,1.7656,1,0,18,18,25,1,6,×,3,6 × 3,congruent,largerFirst,2,1,18,,,,,,,,
,,,,,,,,,,,,,,,8128,2022-01-20_21h29.19.148,multiplicationStroop,2021.2.3,Win32,59.96641881,,,,,,,,,,,,,,,,,,,,,,,,,,,,,,,,,42,2.3558,1,0,19,19,17,1,7,×,6,7 × 6,congruent,largerFirst,2,1,42,,,,,,,,
,,,,,,,,,,,,,,,8128,2022-01-20_21h29.19.148,multiplicationStroop,2021.2.3,Win32,59.96641881,,,,,,,,,,,,,,,,,,,,,,,,,,,,,,,,,8,1.7577,1,0,20,20,23,1,4,×,2,4 × 2,congruent,largerFirst,2,1,8,,,,,,,,
,,,,,,,,,,,,,,,8128,2022-01-20_21h29.19.148,multiplicationStroop,2021.2.3,Win32,59.96641881,,,,,,,,,,,,,,,,,,,,,,,,,,,,,,,,,14,2.3656,1,0,21,21,0,1,2,×,7,2 × 7,congruent,smallerFirst,1,2,14,,,,,,,,
,,,,,,,,,,,,,,,8128,2022-01-20_21h29.19.148,multiplicationStroop,2021.2.3,Win32,59.96641881,,,,,,,,,,,,,,,,,,,,,,,,,,,,,,,,,40,2.1218,1,0,22,22,20,1,8,×,5,8 × 5,congruent,largerFirst,2,1,40,,,,,,,,
,,,,,,,,,,,,,,,8128,2022-01-20_21h29.19.148,multiplicationStroop,2021.2.3,Win32,59.96641881,,,,,,,,,,,,,,,,,,,,,,,,,,,,,,,,,56,4.8005,1,0,23,23,22,1,8,×,7,8 × 7,congruent,largerFirst,2,1,56,,,,,,,,
,,,,,,,,,,,,,,,8128,2022-01-20_21h29.19.148,multiplicationStroop,2021.2.3,Win32,59.96641881,,,,,,,,,,,,,,,,,,,,,,,,,,,,,,,,,81,1.9581,1,0,24,24,35,1,9,×,9,9 × 9,neutral,tie,1,2,81,,,,,,,,
,,,,,,,,,,,,,,,8128,2022-01-20_21h29.19.148,multiplicationStroop,2021.2.3,Win32,59.96641881,,,,,,,,,,,,,,,,,,,,,,,,,,,,,,,,,4,1.4524,1,0,25,25,28,1,2,×,2,2 × 2,neutral,tie,1,2,4,,,,,,,,
,,,,,,,,,,,,,,,8128,2022-01-20_21h29.19.148,multiplicationStroop,2021.2.3,Win32,59.96641881,,,,,,,,,,,,,,,,,,,,,,,,,,,,,,,,,36,2.6805,1,0,26,26,14,1,9,×,4,9 × 4,congruent,largerFirst,2,1,36,,,,,,,,
,,,,,,,,,,,,,,,8128,2022-01-20_21h29.19.148,multiplicationStroop,2021.2.3,Win32,59.96641881,,,,,,,,,,,,,,,,,,,,,,,,,,,,,,,,,21,4.2665,1,0,27,27,2,1,3,×,7,3 × 7,congruent,smallerFirst,1,2,21,,,,,,,,
,,,,,,,,,,,,,,,8128,2022-01-20_21h29.19.148,multiplicationStroop,2021.2.3,Win32,59.96641881,,,,,,,,,,,,,,,,,,,,,,,,,,,,,,,,,32,2.7447,1,0,28,28,6,1,4,×,8,4 × 8,congruent,smallerFirst,1,2,32,,,,,,,,
,,,,,,,,,,,,,,,8128,2022-01-20_21h29.19.148,multiplicationStroop,2021.2.3,Win32,59.96641881,,,,,,,,,,,,,,,,,,,,,,,,,,,,,,,,,15,1.535,1,0,29,29,18,1,5,×,3,5 × 3,congruent,largerFirst,2,1,15,,,,,,,,
,,,,,,,,,,,,,,,8128,2022-01-20_21h29.19.148,multiplicationStroop,2021.2.3,Win32,59.96641881,,,,,,,,,,,,,,,,,,,,,,,,,,,,,,,,,27,3.5493,1,0,30,30,12,1,3,×,9,3 × 9,congruent,smallerFirst,1,2,27,,,,,,,,
,,,,,,,,,,,,,,,8128,2022-01-20_21h29.19.148,multiplicationStroop,2021.2.3,Win32,59.96641881,,,,,,,,,,,,,,,,,,,,,,,,,,,,,,,,,36,2.06,1,0,31,31,32,1,6,×,6,6 × 6,neutral,tie,1,2,36,,,,,,,,
,,,,,,,,,,,,,,,8128,2022-01-20_21h29.19.148,multiplicationStroop,2021.2.3,Win32,59.96641881,,,,,,,,,,,,,,,,,,,,,,,,,,,,,,,,,49,1.8813,1,0,32,32,33,1,7,×,7,7 × 7,neutral,tie,1,2,49,,,,,,,,
,,,,,,,,,,,,,,,8128,2022-01-20_21h29.19.148,multiplicationStroop,2021.2.3,Win32,59.96641881,,,,,,,,,,,,,,,,,,,,,,,,,,,,,,,,,54,1.7039,1,0,33,33,26,1,9,×,6,9 × 6,congruent,largerFirst,2,1,54,,,,,,,,
,,,,,,,,,,,,,,,8128,2022-01-20_21h29.19.148,multiplicationStroop,2021.2.3,Win32,59.96641881,,,,,,,,,,,,,,,,,,,,,,,,,,,,,,,,,25,1.8285,1,0,34,34,31,1,5,×,5,5 × 5,neutral,tie,1,2,25,,,,,,,,
,,,,,,,,,,,,,,,8128,2022-01-20_21h29.19.148,multiplicationStroop,2021.2.3,Win32,59.96641881,,,,,,,,,,,,,,,,,,,,,,,,,,,,,,,,,72,3.3694,1,0,35,35,3,1,8,×,9,8 × 9,congruent,smallerFirst,1,2,72,,,,,,,,
,,,,,,,,,,,,,,,8128,2022-01-20_21h29.19.148,multiplicationStroop,2021.2.3,Win32,59.96641881,,,,,,,,,,,,,,,,,,,,,,,,,,,,,,,,,,,,,,,,,,,,,,,,,,0,4,4,3,1,stimulusFile/mult_blk4_congruent.xlsx,,
,,,,,,,,,,,,,,,8128,2022-01-20_21h29.19.148,multiplicationStroop,2021.2.3,Win32,59.96641881,,,,,,,,,,,,,,,,,,,,,,,,,,,,,,,space,5.9112,16,1.5676,1,0,0,0,30,1,4,×,4,4 × 4,neutral,tie,2,1,16,,,,,,,,
,,,,,,,,,,,,,,,8128,2022-01-20_21h29.19.148,multiplicationStroop,2021.2.3,Win32,59.96641881,,,,,,,,,,,,,,,,,,,,,,,,,,,,,,,,,10,1.8513,1,0,1,1,7,1,2,×,5,2 × 5,incongruent,smallerFirst,2,1,10,,,,,,,,
,,,,,,,,,,,,,,,8128,2022-01-20_21h29.19.148,multiplicationStroop,2021.2.3,Win32,59.96641881,,,,,,,,,,,,,,,,,,,,,,,,,,,,,,,,,72,2.2523,1,0,2,2,14,1,9,×,8,9 × 8,incongruent,largerFirst,1,2,72,,,,,,,,
,,,,,,,,,,,,,,,8128,2022-01-20_21h29.19.148,multiplicationStroop,2021.2.3,Win32,59.96641881,,,,,,,,,,,,,,,,,,,,,,,,,,,,,,,,,20,2.3168,1,0,3,3,13,1,4,×,5,4 × 5,incongruent,smallerFirst,2,1,20,,,,,,,,
,,,,,,,,,,,,,,,8128,2022-01-20_21h29.19.148,multiplicationStroop,2021.2.3,Win32,59.96641881,,,,,,,,,,,,,,,,,,,,,,,,,,,,,,,,,81,1.6927,1,0,4,4,35,1,9,×,9,9 × 9,neutral,tie,2,1,81,,,,,,,,
,,,,,,,,,,,,,,,8128,2022-01-20_21h29.19.148,multiplicationStroop,2021.2.3,Win32,59.96641881,,,,,,,,,,,,,,,,,,,,,,,,,,,,,,,,,9,1.9298,1,0,5,5,29,1,3,×,3,3 × 3,neutral,tie,2,1,9,,,,,,,,
,,,,,,,,,,,,,,,8128,2022-01-20_21h29.19.148,multiplicationStroop,2021.2.3,Win32,59.96641881,,,,,,,,,,,,,,,,,,,,,,,,,,,,,,,,,16,1.783,1,0,6,6,9,1,2,×,8,2 × 8,incongruent,smallerFirst,2,1,16,,,,,,,,
,,,,,,,,,,,,,,,8128,2022-01-20_21h29.19.148,multiplicationStroop,2021.2.3,Win32,59.96641881,,,,,,,,,,,,,,,,,,,,,,,,,,,,,,,,,24,2.1645,1,0,7,7,23,1,8,×,3,8 × 3,incongruent,largerFirst,1,2,24,,,,,,,,
,,,,,,,,,,,,,,,8128,2022-01-20_21h29.19.148,multiplicationStroop,2021.2.3,Win32,59.96641881,,,,,,,,,,,,,,,,,,,,,,,,,,,,,,,,,4,1.7045,1,0,8,8,28,1,2,×,2,2 × 2,neutral,tie,2,1,4,,,,,,,,
,,,,,,,,,,,,,,,8128,2022-01-20_21h29.19.148,multiplicationStroop,2021.2.3,Win32,59.96641881,,,,,,,,,,,,,,,,,,,,,,,,,,,,,,,,,12,2.7973,1,0,9,9,5,1,2,×,6,2 × 6,incongruent,smallerFirst,2,1,12,,,,,,,,
,,,,,,,,,,,,,,,8128,2022-01-20_21h29.19.148,multiplicationStroop,2021.2.3,Win32,59.96641881,,,,,,,,,,,,,,,,,,,,,,,,,,,,,,,,,18,2.8411,1,0,10,10,16,1,9,×,2,9 × 2,incongruent,largerFirst,1,2,18,,,,,,,,
,,,,,,,,,,,,,,,8128,2022-01-20_21h29.19.148,multiplicationStroop,2021.2.3,Win32,59.96641881,,,,,,,,,,,,,,,,,,,,,,,,,,,,,,,,,54,5.7464,1,0,11,11,20,1,9,×,6,9 × 6,incongruent,largerFirst,1,2,54,,,,,,,,
,,,,,,,,,,,,,,,8128,2022-01-20_21h29.19.148,multiplicationStroop,2021.2.3,Win32,59.96641881,,,,,,,,,,,,,,,,,,,,,,,,,,,,,,,,,27,3.6803,1,0,12,12,4,1,3,×,9,3 × 9,incongruent,smallerFirst,2,1,27,,,,,,,,
,,,,,,,,,,,,,,,8128,2022-01-20_21h29.19.148,multiplicationStroop,2021.2.3,Win32,59.96641881,,,,,,,,,,,,,,,,,,,,,,,,,,,,,,,,,56,4.1532,1,0,13,13,0,1,7,×,8,7 × 8,incongruent,smallerFirst,2,1,56,,,,,,,,
,,,,,,,,,,,,,,,8128,2022-01-20_21h29.19.148,multiplicationStroop,2021.2.3,Win32,59.96641881,,,,,,,,,,,,,,,,,,,,,,,,,,,,,,,,,36,1.8255,1,0,14,14,32,1,6,×,6,6 × 6,neutral,tie,2,1,36,,,,,,,,
,,,,,,,,,,,,,,,8128,2022-01-20_21h29.19.148,multiplicationStroop,2021.2.3,Win32,59.96641881,,,,,,,,,,,,,,,,,,,,,,,,,,,,,,,,,8,2.0306,1,0,15,15,10,1,2,×,4,2 × 4,incongruent,smallerFirst,2,1,8,,,,,,,,
,,,,,,,,,,,,,,,8128,2022-01-20_21h29.19.148,multiplicationStroop,2021.2.3,Win32,59.96641881,,,,,,,,,,,,,,,,,,,,,,,,,,,,,,,,,6,2.1011,1,0,16,16,25,1,3,×,2,3 × 2,incongruent,largerFirst,1,2,6,,,,,,,,
,,,,,,,,,,,,,,,8128,2022-01-20_21h29.19.148,multiplicationStroop,2021.2.3,Win32,59.96641881,,,,,,,,,,,,,,,,,,,,,,,,,,,,,,,,,24,4.8853,1,0,17,17,6,1,4,×,6,4 × 6,incongruent,smallerFirst,2,1,24,,,,,,,,
,,,,,,,,,,,,,,,8128,2022-01-20_21h29.19.148,multiplicationStroop,2021.2.3,Win32,59.96641881,,,,,,,,,,,,,,,,,,,,,,,,,,,,,,,,,45,2.6216,1,0,18,18,8,1,5,×,9,5 × 9,incongruent,smallerFirst,2,1,45,,,,,,,,
,,,,,,,,,,,,,,,8128,2022-01-20_21h29.19.148,multiplicationStroop,2021.2.3,Win32,59.96641881,,,,,,,,,,,,,,,,,,,,,,,,,,,,,,,,,40,1.7233,1,0,19,19,27,1,8,×,5,8 × 5,incongruent,largerFirst,1,2,40,,,,,,,,
,,,,,,,,,,,,,,,8128,2022-01-20_21h29.19.148,multiplicationStroop,2021.2.3,Win32,59.96641881,,,,,,,,,,,,,,,,,,,,,,,,,,,,,,,,,14,1.6043,1,0,20,20,18,1,7,×,2,7 × 2,incongruent,largerFirst,1,2,14,,,,,,,,
,,,,,,,,,,,,,,,8128,2022-01-20_21h29.19.148,multiplicationStroop,2021.2.3,Win32,59.96641881,,,,,,,,,,,,,,,,,,,,,,,,,,,,,,,,,15,1.3643,1,0,21,21,24,1,5,×,3,5 × 3,incongruent,largerFirst,1,2,15,,,,,,,,
,,,,,,,,,,,,,,,8128,2022-01-20_21h29.19.148,multiplicationStroop,2021.2.3,Win32,59.96641881,,,,,,,,,,,,,,,,,,,,,,,,,,,,,,,,,49,1.7174,1,0,22,22,33,1,7,×,7,7 × 7,neutral,tie,2,1,49,,,,,,,,
,,,,,,,,,,,,,,,8128,2022-01-20_21h29.19.148,multiplicationStroop,2021.2.3,Win32,59.96641881,,,,,,,,,,,,,,,,,,,,,,,,,,,,,,,,,35,1.8122,1,0,23,23,26,1,7,×,5,7 × 5,incongruent,largerFirst,1,2,35,,,,,,,,
,,,,,,,,,,,,,,,8128,2022-01-20_21h29.19.148,multiplicationStroop,2021.2.3,Win32,59.96641881,,,,,,,,,,,,,,,,,,,,,,,,,,,,,,,,,25,1.5161,1,0,24,24,31,1,5,×,5,5 × 5,neutral,tie,2,1,25,,,,,,,,
,,,,,,,,,,,,,,,8128,2022-01-20_21h29.19.148,multiplicationStroop,2021.2.3,Win32,59.96641881,,,,,,,,,,,,,,,,,,,,,,,,,,,,,,,,,63,2.6029,1,0,25,25,17,1,9,×,7,9 × 7,incongruent,largerFirst,1,2,63,,,,,,,,
,,,,,,,,,,,,,,,8128,2022-01-20_21h29.19.148,multiplicationStroop,2021.2.3,Win32,59.96641881,,,,,,,,,,,,,,,,,,,,,,,,,,,,,,,,,30,1.6388,1,0,26,26,11,1,5,×,6,5 × 6,incongruent,smallerFirst,2,1,30,,,,,,,,
,,,,,,,,,,,,,,,8128,2022-01-20_21h29.19.148,multiplicationStroop,2021.2.3,Win32,59.96641881,,,,,,,,,,,,,,,,,,,,,,,,,,,,,,,,,36,1.7958,1,0,27,27,1,1,4,×,9,4 × 9,incongruent,smallerFirst,2,1,36,,,,,,,,
,,,,,,,,,,,,,,,8128,2022-01-20_21h29.19.148,multiplicationStroop,2021.2.3,Win32,59.96641881,,,,,,,,,,,,,,,,,,,,,,,,,,,,,,,,,32,3.1842,1,0,28,28,21,1,8,×,4,8 × 4,incongruent,largerFirst,1,2,32,,,,,,,,
,,,,,,,,,,,,,,,8128,2022-01-20_21h29.19.148,multiplicationStroop,2021.2.3,Win32,59.96641881,,,,,,,,,,,,,,,,,,,,,,,,,,,,,,,,,48,2.2141,1,0,29,29,15,1,8,×,6,8 × 6,incongruent,largerFirst,1,2,48,,,,,,,,
,,,,,,,,,,,,,,,8128,2022-01-20_21h29.19.148,multiplicationStroop,2021.2.3,Win32,59.96641881,,,,,,,,,,,,,,,,,,,,,,,,,,,,,,,,,12,1.564,1,0,30,30,19,1,4,×,3,4 × 3,incongruent,largerFirst,1,2,12,,,,,,,,
,,,,,,,,,,,,,,,8128,2022-01-20_21h29.19.148,multiplicationStroop,2021.2.3,Win32,59.96641881,,,,,,,,,,,,,,,,,,,,,,,,,,,,,,,,,42,4.0849,1,0,31,31,3,1,6,×,7,6 × 7,incongruent,smallerFirst,2,1,42,,,,,,,,
,,,,,,,,,,,,,,,8128,2022-01-20_21h29.19.148,multiplicationStroop,2021.2.3,Win32,59.96641881,,,,,,,,,,,,,,,,,,,,,,,,,,,,,,,,,18,2.2048,1,0,32,32,22,1,6,×,3,6 × 3,incongruent,largerFirst,1,2,18,,,,,,,,
,,,,,,,,,,,,,,,8128,2022-01-20_21h29.19.148,multiplicationStroop,2021.2.3,Win32,59.96641881,,,,,,,,,,,,,,,,,,,,,,,,,,,,,,,,,28,3.9198,1,0,33,33,2,1,4,×,7,4 × 7,incongruent,smallerFirst,2,1,28,,,,,,,,
,,,,,,,,,,,,,,,8128,2022-01-20_21h29.19.148,multiplicationStroop,2021.2.3,Win32,59.96641881,,,,,,,,,,,,,,,,,,,,,,,,,,,,,,,,,64,3.7376,1,0,34,34,34,1,8,×,8,8 × 8,neutral,tie,2,1,64,,,,,,,,
,,,,,,,,,,,,,,,8128,2022-01-20_21h29.19.148,multiplicationStroop,2021.2.3,Win32,59.96641881,,,,,,,,,,,,,,,,,,,,,,,,,,,,,,,,,21,2.0598,1,0,35,35,12,1,3,×,7,3 × 7,incongruent,smallerFirst,2,1,21,,,,,,,,
,,,,,,,,,,,,,,,8128,2022-01-20_21h29.19.148,multiplicationStroop,2021.2.3,Win32,59.96641881,,,,,,,,,,,,,,,,,,,,,,,,,,,,,,,,,,,,,,,,,,,,,,,,,,0,5,5,4,1,stimulusFile/mult_blk5_INcongruent.xlsx,,
,,,,,,,,,,,,,,,8128,2022-01-20_21h29.19.148,multiplicationStroop,2021.2.3,Win32,59.96641881,,,,,,,,,,,,,,,,,,,,,,,,,,,,,,,,,,,,,,,,,,,,,,,,,,,,,,,,space,12.8026