welcomeKey_resp.keys,welcomeKey_resp.rt,X Scale,Y Scale,rt_resp_4.keys,rt_resp_4.corr,rt_resp_4.rt,speedtest_2.thisRepN,speedtest_2.thisTrialN,speedtest_2.thisN,speedtest_2.thisIndex,speedtest_2.ran,numberSc,posX,positionLayout,participant,date,expName,psychopyVersion,OS,frameRate,ct_instrresp.keys,ct_instrresp.rt,key_resp_2.keys,key_resp_2.rt,ct_keyResp.keys,ct_keyResp.corr,ct_keyResp.rt,trials.thisRepN,trials.thisTrialN,trials.thisN,trials.thisIndex,trials.ran,leftNo,rightNo,displayProblem,numDistance,leftNo_size,rightNo_size,Dims,keyAnswer,TS_Loop.thisRepN,TS_Loop.thisTrialN,TS_Loop.thisN,TS_Loop.thisIndex,TS_Loop.ran,Condition,ActionInst,instrImage,mltptaskInst_resp.keys,mltptaskInst_resp.rt,continue_resp_2.keys,continue_resp_2.rt,multp_Answer,multi_RT,multiplyCorr,LoopingMultiply.thisRepN,LoopingMultiply.thisTrialN,LoopingMultiply.thisN,LoopingMultiply.thisIndex,LoopingMultiply.ran,factor1,multiplySign,factor2,multliplyProblem,physicalSize,orderOperand,sizeF1,sizeF2,mult_answer,trials_stroop.thisRepN,trials_stroop.thisTrialN,trials_stroop.thisN,trials_stroop.thisIndex,trials_stroop.ran,multiplicationFile,esckey_resp_2.keys,esckey_resp_2.rt
y,49.8485,45.1,45,right,1,1.3781,0,0,0,8,1,1,200,right,812,2022-01-15_10h31.50.000,multiplicationStroop,2021.2.3,Win32,60.20107158,,,,,,,,,,,,,,,,,,,,,,,,,,,,,,,,,,,,,,,,,,,,,,,,,,,,,,,,,
,,,,right,1,0.5187,0,1,1,14,1,8,200,right,812,2022-01-15_10h31.50.000,multiplicationStroop,2021.2.3,Win32,60.20107158,,,,,,,,,,,,,,,,,,,,,,,,,,,,,,,,,,,,,,,,,,,,,,,,,,,,,,,,,
,,,,left,1,0.3431,0,2,2,6,1,8,-200,left,812,2022-01-15_10h31.50.000,multiplicationStroop,2021.2.3,Win32,60.20107158,,,,,,,,,,,,,,,,,,,,,,,,,,,,,,,,,,,,,,,,,,,,,,,,,,,,,,,,,
,,,,right,1,0.3235,0,3,3,9,1,2,200,right,812,2022-01-15_10h31.50.000,multiplicationStroop,2021.2.3,Win32,60.20107158,,,,,,,,,,,,,,,,,,,,,,,,,,,,,,,,,,,,,,,,,,,,,,,,,,,,,,,,,
,,,,left,1,0.3346,0,4,4,0,1,1,-200,left,812,2022-01-15_10h31.50.000,multiplicationStroop,2021.2.3,Win32,60.20107158,,,,,,,,,,,,,,,,,,,,,,,,,,,,,,,,,,,,,,,,,,,,,,,,,,,,,,,,,
,,,,right,1,0.3005,0,5,5,10,1,3,200,right,812,2022-01-15_10h31.50.000,multiplicationStroop,2021.2.3,Win32,60.20107158,,,,,,,,,,,,,,,,,,,,,,,,,,,,,,,,,,,,,,,,,,,,,,,,,,,,,,,,,
,,,,right,1,0.4012,0,6,6,12,1,6,200,right,812,2022-01-15_10h31.50.000,multiplicationStroop,2021.2.3,Win32,60.20107158,,,,,,,,,,,,,,,,,,,,,,,,,,,,,,,,,,,,,,,,,,,,,,,,,,,,,,,,,
,,,,left,1,0.2961,0,7,7,5,1,7,-200,left,812,2022-01-15_10h31.50.000,multiplicationStroop,2021.2.3,Win32,60.20107158,,,,,,,,,,,,,,,,,,,,,,,,,,,,,,,,,,,,,,,,,,,,,,,,,,,,,,,,,
,,,,right,1,0.2676,0,8,8,15,1,9,200,right,812,2022-01-15_10h31.50.000,multiplicationStroop,2021.2.3,Win32,60.20107158,,,,,,,,,,,,,,,,,,,,,,,,,,,,,,,,,,,,,,,,,,,,,,,,,,,,,,,,,
,,,,left,1,0.2841,0,9,9,7,1,9,-200,left,812,2022-01-15_10h31.50.000,multiplicationStroop,2021.2.3,Win32,60.20107158,,,,,,,,,,,,,,,,,,,,,,,,,,,,,,,,,,,,,,,,,,,,,,,,,,,,,,,,,
,,,,left,1,0.4338,0,10,10,3,1,4,-200,left,812,2022-01-15_10h31.50.000,multiplicationStroop,2021.2.3,Win32,60.20107158,,,,,,,,,,,,,,,,,,,,,,,,,,,,,,,,,,,,,,,,,,,,,,,,,,,,,,,,,
,,,,left,1,0.3342,0,11,11,4,1,6,-200,left,812,2022-01-15_10h31.50.000,multiplicationStroop,2021.2.3,Win32,60.20107158,,,,,,,,,,,,,,,,,,,,,,,,,,,,,,,,,,,,,,,,,,,,,,,,,,,,,,,,,
,,,,right,1,0.5176,0,12,12,13,1,7,200,right,812,2022-01-15_10h31.50.000,multiplicationStroop,2021.2.3,Win32,60.20107158,,,,,,,,,,,,,,,,,,,,,,,,,,,,,,,,,,,,,,,,,,,,,,,,,,,,,,,,,
,,,,right,1,0.3958,0,13,13,11,1,4,200,right,812,2022-01-15_10h31.50.000,multiplicationStroop,2021.2.3,Win32,60.20107158,,,,,,,,,,,,,,,,,,,,,,,,,,,,,,,,,,,,,,,,,,,,,,,,,,,,,,,,,
,,,,left,1,0.324,0,14,14,2,1,3,-200,left,812,2022-01-15_10h31.50.000,multiplicationStroop,2021.2.3,Win32,60.20107158,,,,,,,,,,,,,,,,,,,,,,,,,,,,,,,,,,,,,,,,,,,,,,,,,,,,,,,,,
,,,,left,1,0.3686,0,15,15,1,1,2,-200,left,812,2022-01-15_10h31.50.000,multiplicationStroop,2021.2.3,Win32,60.20107158,,,,,,,,,,,,,,,,,,,,,,,,,,,,,,,,,,,,,,,,,,,,,,,,,,,,,,,,,
,,,,right,1,0.3339,1,0,16,13,1,7,200,right,812,2022-01-15_10h31.50.000,multiplicationStroop,2021.2.3,Win32,60.20107158,,,,,,,,,,,,,,,,,,,,,,,,,,,,,,,,,,,,,,,,,,,,,,,,,,,,,,,,,
,,,,left,1,0.4862,1,1,17,0,1,1,-200,left,812,2022-01-15_10h31.50.000,multiplicationStroop,2021.2.3,Win32,60.20107158,,,,,,,,,,,,,,,,,,,,,,,,,,,,,,,,,,,,,,,,,,,,,,,,,,,,,,,,,
,,,,right,1,0.3675,1,2,18,8,1,1,200,right,812,2022-01-15_10h31.50.000,multiplicationStroop,2021.2.3,Win32,60.20107158,,,,,,,,,,,,,,,,,,,,,,,,,,,,,,,,,,,,,,,,,,,,,,,,,,,,,,,,,
,,,,left,1,0.7678,1,3,19,6,1,8,-200,left,812,2022-01-15_10h31.50.000,multiplicationStroop,2021.2.3,Win32,60.20107158,,,,,,,,,,,,,,,,,,,,,,,,,,,,,,,,,,,,,,,,,,,,,,,,,,,,,,,,,
,,,,right,1,0.3452,1,4,20,14,1,8,200,right,812,2022-01-15_10h31.50.000,multiplicationStroop,2021.2.3,Win32,60.20107158,,,,,,,,,,,,,,,,,,,,,,,,,,,,,,,,,,,,,,,,,,,,,,,,,,,,,,,,,
,,,,right,1,0.4607,1,5,21,11,1,4,200,right,812,2022-01-15_10h31.50.000,multiplicationStroop,2021.2.3,Win32,60.20107158,,,,,,,,,,,,,,,,,,,,,,,,,,,,,,,,,,,,,,,,,,,,,,,,,,,,,,,,,
,,,,left,1,0.3868,1,6,22,2,1,3,-200,left,812,2022-01-15_10h31.50.000,multiplicationStroop,2021.2.3,Win32,60.20107158,,,,,,,,,,,,,,,,,,,,,,,,,,,,,,,,,,,,,,,,,,,,,,,,,,,,,,,,,
,,,,left,1,0.4073,1,7,23,1,1,2,-200,left,812,2022-01-15_10h31.50.000,multiplicationStroop,2021.2.3,Win32,60.20107158,,,,,,,,,,,,,,,,,,,,,,,,,,,,,,,,,,,,,,,,,,,,,,,,,,,,,,,,,
,,,,left,1,0.3872,1,8,24,4,1,6,-200,left,812,2022-01-15_10h31.50.000,multiplicationStroop,2021.2.3,Win32,60.20107158,,,,,,,,,,,,,,,,,,,,,,,,,,,,,,,,,,,,,,,,,,,,,,,,,,,,,,,,,
,,,,right,1,0.4531,1,9,25,12,1,6,200,right,812,2022-01-15_10h31.50.000,multiplicationStroop,2021.2.3,Win32,60.20107158,,,,,,,,,,,,,,,,,,,,,,,,,,,,,,,,,,,,,,,,,,,,,,,,,,,,,,,,,
,,,,right,1,0.378,1,10,26,15,1,9,200,right,812,2022-01-15_10h31.50.000,multiplicationStroop,2021.2.3,Win32,60.20107158,,,,,,,,,,,,,,,,,,,,,,,,,,,,,,,,,,,,,,,,,,,,,,,,,,,,,,,,,
,,,,left,1,0.3919,1,11,27,7,1,9,-200,left,812,2022-01-15_10h31.50.000,multiplicationStroop,2021.2.3,Win32,60.20107158,,,,,,,,,,,,,,,,,,,,,,,,,,,,,,,,,,,,,,,,,,,,,,,,,,,,,,,,,
,,,,right,1,0.3759,1,12,28,10,1,3,200,right,812,2022-01-15_10h31.50.000,multiplicationStroop,2021.2.3,Win32,60.20107158,,,,,,,,,,,,,,,,,,,,,,,,,,,,,,,,,,,,,,,,,,,,,,,,,,,,,,,,,
,,,,left,1,0.2695,1,13,29,3,1,4,-200,left,812,2022-01-15_10h31.50.000,multiplicationStroop,2021.2.3,Win32,60.20107158,,,,,,,,,,,,,,,,,,,,,,,,,,,,,,,,,,,,,,,,,,,,,,,,,,,,,,,,,
,,,,right,1,0.3021,1,14,30,9,1,2,200,right,812,2022-01-15_10h31.50.000,multiplicationStroop,2021.2.3,Win32,60.20107158,,,,,,,,,,,,,,,,,,,,,,,,,,,,,,,,,,,,,,,,,,,,,,,,,,,,,,,,,
,,,,left,1,0.3212,1,15,31,5,1,7,-200,left,812,2022-01-15_10h31.50.000,multiplicationStroop,2021.2.3,Win32,60.20107158,,,,,,,,,,,,,,,,,,,,,,,,,,,,,,,,,,,,,,,,,,,,,,,,,,,,,,,,,
,,,,right,1,0.2814,2,0,32,14,1,8,200,right,812,2022-01-15_10h31.50.000,multiplicationStroop,2021.2.3,Win32,60.20107158,,,,,,,,,,,,,,,,,,,,,,,,,,,,,,,,,,,,,,,,,,,,,,,,,,,,,,,,,
,,,,left,1,0.3155,2,1,33,4,1,6,-200,left,812,2022-01-15_10h31.50.000,multiplicationStroop,2021.2.3,Win32,60.20107158,,,,,,,,,,,,,,,,,,,,,,,,,,,,,,,,,,,,,,,,,,,,,,,,,,,,,,,,,
,,,,left,1,0.4814,2,2,34,6,1,8,-200,left,812,2022-01-15_10h31.50.000,multiplicationStroop,2021.2.3,Win32,60.20107158,,,,,,,,,,,,,,,,,,,,,,,,,,,,,,,,,,,,,,,,,,,,,,,,,,,,,,,,,
,,,,right,1,0.3278,2,3,35,9,1,2,200,right,812,2022-01-15_10h31.50.000,multiplicationStroop,2021.2.3,Win32,60.20107158,,,,,,,,,,,,,,,,,,,,,,,,,,,,,,,,,,,,,,,,,,,,,,,,,,,,,,,,,
,,,,left,1,0.3331,2,4,36,3,1,4,-200,left,812,2022-01-15_10h31.50.000,multiplicationStroop,2021.2.3,Win32,60.20107158,,,,,,,,,,,,,,,,,,,,,,,,,,,,,,,,,,,,,,,,,,,,,,,,,,,,,,,,,
,,,,left,1,0.2912,2,5,37,7,1,9,-200,left,812,2022-01-15_10h31.50.000,multiplicationStroop,2021.2.3,Win32,60.20107158,,,,,,,,,,,,,,,,,,,,,,,,,,,,,,,,,,,,,,,,,,,,,,,,,,,,,,,,,
,,,,left,1,0.299,2,6,38,1,1,2,-200,left,812,2022-01-15_10h31.50.000,multiplicationStroop,2021.2.3,Win32,60.20107158,,,,,,,,,,,,,,,,,,,,,,,,,,,,,,,,,,,,,,,,,,,,,,,,,,,,,,,,,
,,,,left,1,0.3258,2,7,39,0,1,1,-200,left,812,2022-01-15_10h31.50.000,multiplicationStroop,2021.2.3,Win32,60.20107158,,,,,,,,,,,,,,,,,,,,,,,,,,,,,,,,,,,,,,,,,,,,,,,,,,,,,,,,,
,,,,right,1,0.3143,2,8,40,15,1,9,200,right,812,2022-01-15_10h31.50.000,multiplicationStroop,2021.2.3,Win32,60.20107158,,,,,,,,,,,,,,,,,,,,,,,,,,,,,,,,,,,,,,,,,,,,,,,,,,,,,,,,,
,,,,right,1,0.414,2,9,41,12,1,6,200,right,812,2022-01-15_10h31.50.000,multiplicationStroop,2021.2.3,Win32,60.20107158,,,,,,,,,,,,,,,,,,,,,,,,,,,,,,,,,,,,,,,,,,,,,,,,,,,,,,,,,
,,,,right,1,0.3343,2,10,42,10,1,3,200,right,812,2022-01-15_10h31.50.000,multiplicationStroop,2021.2.3,Win32,60.20107158,,,,,,,,,,,,,,,,,,,,,,,,,,,,,,,,,,,,,,,,,,,,,,,,,,,,,,,,,
,,,,left,1,0.3843,2,11,43,2,1,3,-200,left,812,2022-01-15_10h31.50.000,multiplicationStroop,2021.2.3,Win32,60.20107158,,,,,,,,,,,,,,,,,,,,,,,,,,,,,,,,,,,,,,,,,,,,,,,,,,,,,,,,,
,,,,right,1,0.2842,2,12,44,11,1,4,200,right,812,2022-01-15_10h31.50.000,multiplicationStroop,2021.2.3,Win32,60.20107158,,,,,,,,,,,,,,,,,,,,,,,,,,,,,,,,,,,,,,,,,,,,,,,,,,,,,,,,,
,,,,left,1,0.284,2,13,45,5,1,7,-200,left,812,2022-01-15_10h31.50.000,multiplicationStroop,2021.2.3,Win32,60.20107158,,,,,,,,,,,,,,,,,,,,,,,,,,,,,,,,,,,,,,,,,,,,,,,,,,,,,,,,,
,,,,right,1,0.3009,2,14,46,13,1,7,200,right,812,2022-01-15_10h31.50.000,multiplicationStroop,2021.2.3,Win32,60.20107158,,,,,,,,,,,,,,,,,,,,,,,,,,,,,,,,,,,,,,,,,,,,,,,,,,,,,,,,,
,,,,right,1,0.3675,2,15,47,8,1,1,200,right,812,2022-01-15_10h31.50.000,multiplicationStroop,2021.2.3,Win32,60.20107158,,,,,,,,,,,,,,,,,,,,,,,,,,,,,,,,,,,,,,,,,,,,,,,,,,,,,,,,,
,,,,right,1,0.3337,3,0,48,11,1,4,200,right,812,2022-01-15_10h31.50.000,multiplicationStroop,2021.2.3,Win32,60.20107158,,,,,,,,,,,,,,,,,,,,,,,,,,,,,,,,,,,,,,,,,,,,,,,,,,,,,,,,,
,,,,right,1,0.3338,3,1,49,10,1,3,200,right,812,2022-01-15_10h31.50.000,multiplicationStroop,2021.2.3,Win32,60.20107158,,,,,,,,,,,,,,,,,,,,,,,,,,,,,,,,,,,,,,,,,,,,,,,,,,,,,,,,,
,,,,left,1,0.4596,3,2,50,5,1,7,-200,left,812,2022-01-15_10h31.50.000,multiplicationStroop,2021.2.3,Win32,60.20107158,,,,,,,,,,,,,,,,,,,,,,,,,,,,,,,,,,,,,,,,,,,,,,,,,,,,,,,,,
,,,,left,1,0.4175,3,3,51,4,1,6,-200,left,812,2022-01-15_10h31.50.000,multiplicationStroop,2021.2.3,Win32,60.20107158,,,,,,,,,,,,,,,,,,,,,,,,,,,,,,,,,,,,,,,,,,,,,,,,,,,,,,,,,
,,,,right,1,0.4506,3,4,52,9,1,2,200,right,812,2022-01-15_10h31.50.000,multiplicationStroop,2021.2.3,Win32,60.20107158,,,,,,,,,,,,,,,,,,,,,,,,,,,,,,,,,,,,,,,,,,,,,,,,,,,,,,,,,
,,,,left,1,0.2678,3,5,53,6,1,8,-200,left,812,2022-01-15_10h31.50.000,multiplicationStroop,2021.2.3,Win32,60.20107158,,,,,,,,,,,,,,,,,,,,,,,,,,,,,,,,,,,,,,,,,,,,,,,,,,,,,,,,,
,,,,left,1,0.3597,3,6,54,7,1,9,-200,left,812,2022-01-15_10h31.50.000,multiplicationStroop,2021.2.3,Win32,60.20107158,,,,,,,,,,,,,,,,,,,,,,,,,,,,,,,,,,,,,,,,,,,,,,,,,,,,,,,,,
,,,,right,1,0.5006,3,7,55,8,1,1,200,right,812,2022-01-15_10h31.50.000,multiplicationStroop,2021.2.3,Win32,60.20107158,,,,,,,,,,,,,,,,,,,,,,,,,,,,,,,,,,,,,,,,,,,,,,,,,,,,,,,,,
,,,,left,1,0.4239,3,8,56,1,1,2,-200,left,812,2022-01-15_10h31.50.000,multiplicationStroop,2021.2.3,Win32,60.20107158,,,,,,,,,,,,,,,,,,,,,,,,,,,,,,,,,,,,,,,,,,,,,,,,,,,,,,,,,
,,,,right,1,0.3254,3,9,57,15,1,9,200,right,812,2022-01-15_10h31.50.000,multiplicationStroop,2021.2.3,Win32,60.20107158,,,,,,,,,,,,,,,,,,,,,,,,,,,,,,,,,,,,,,,,,,,,,,,,,,,,,,,,,
,,,,left,1,0.2812,3,10,58,0,1,1,-200,left,812,2022-01-15_10h31.50.000,multiplicationStroop,2021.2.3,Win32,60.20107158,,,,,,,,,,,,,,,,,,,,,,,,,,,,,,,,,,,,,,,,,,,,,,,,,,,,,,,,,
,,,,right,1,0.3356,3,11,59,13,1,7,200,right,812,2022-01-15_10h31.50.000,multiplicationStroop,2021.2.3,Win32,60.20107158,,,,,,,,,,,,,,,,,,,,,,,,,,,,,,,,,,,,,,,,,,,,,,,,,,,,,,,,,
,,,,left,1,0.2745,3,12,60,3,1,4,-200,left,812,2022-01-15_10h31.50.000,multiplicationStroop,2021.2.3,Win32,60.20107158,,,,,,,,,,,,,,,,,,,,,,,,,,,,,,,,,,,,,,,,,,,,,,,,,,,,,,,,,
,,,,right,1,0.3061,3,13,61,12,1,6,200,right,812,2022-01-15_10h31.50.000,multiplicationStroop,2021.2.3,Win32,60.20107158,,,,,,,,,,,,,,,,,,,,,,,,,,,,,,,,,,,,,,,,,,,,,,,,,,,,,,,,,
,,,,right,1,0.4036,3,14,62,14,1,8,200,right,812,2022-01-15_10h31.50.000,multiplicationStroop,2021.2.3,Win32,60.20107158,,,,,,,,,,,,,,,,,,,,,,,,,,,,,,,,,,,,,,,,,,,,,,,,,,,,,,,,,
,,,,left,1,0.415,3,15,63,2,1,3,-200,left,812,2022-01-15_10h31.50.000,multiplicationStroop,2021.2.3,Win32,60.20107158,,,,,,,,,,,,,,,,,,,,,,,,,,,,,,,,,,,,,,,,,,,,,,,,,,,,,,,,,
,,,,,,,,,,,,,,,812,2022-01-15_10h31.50.000,multiplicationStroop,2021.2.3,Win32,60.20107158,space,14.9179,space,5.466,right,1,0.6923,0,0,0,57,1,2,4,2 | 4,2,1.6933,1.6933,neutral,right,,,,,,stimulusFile/magnitude.xlsx,,,,,,,,,,,,,,,,,,,,,,,,,,,,,,,
,,,,,,,,,,,,,,,812,2022-01-15_10h31.50.000,multiplicationStroop,2021.2.3,Win32,60.20107158,,,,,left,1,0.4765,0,1,1,36,1,3,1,3 | 1,2,1.4111,1.9756,incongruent,left,,,,,,stimulusFile/magnitude.xlsx,,,,,,,,,,,,,,,,,,,,,,,,,,,,,,,
,,,,,,,,,,,,,,,812,2022-01-15_10h31.50.000,multiplicationStroop,2021.2.3,Win32,60.20107158,,,,,right,1,0.5196,0,2,2,64,1,1,6,1 | 6,5,1.6933,1.6933,neutral,right,,,,,,stimulusFile/magnitude.xlsx,,,,,,,,,,,,,,,,,,,,,,,,,,,,,,,
,,,,,,,,,,,,,,,812,2022-01-15_10h31.50.000,multiplicationStroop,2021.2.3,Win32,60.20107158,,,,,right,1,0.7615,0,3,3,27,1,8,9,8 | 9,1,1.9756,1.4111,incongruent,right,,,,,,stimulusFile/magnitude.xlsx,,,,,,,,,,,,,,,,,,,,,,,,,,,,,,,
,,,,,,,,,,,,,,,812,2022-01-15_10h31.50.000,multiplicationStroop,2021.2.3,Win32,60.20107158,,,,,right,1,0.8026,0,4,4,35,1,7,9,7 | 9,2,1.9756,1.4111,incongruent,right,,,,,,stimulusFile/magnitude.xlsx,,,,,,,,,,,,,,,,,,,,,,,,,,,,,,,
,,,,,,,,,,,,,,,812,2022-01-15_10h31.50.000,multiplicationStroop,2021.2.3,Win32,60.20107158,,,,,left,1,0.5286,0,5,5,63,1,9,7,9 | 7,2,1.6933,1.6933,neutral,left,,,,,,stimulusFile/magnitude.xlsx,,,,,,,,,,,,,,,,,,,,,,,,,,,,,,,
,,,,,,,,,,,,,,,812,2022-01-15_10h31.50.000,multiplicationStroop,2021.2.3,Win32,60.20107158,,,,,right,1,0.4733,0,6,6,18,1,3,8,3 | 8,5,1.4111,1.9756,congruent,right,,,,,,stimulusFile/magnitude.xlsx,,,,,,,,,,,,,,,,,,,,,,,,,,,,,,,
,,,,,,,,,,,,,,,812,2022-01-15_10h31.50.000,multiplicationStroop,2021.2.3,Win32,60.20107158,,,,,right,1,0.6514,0,7,7,9,1,2,4,2 | 4,2,1.4111,1.9756,congruent,right,,,,,,stimulusFile/magnitude.xlsx,,,,,,,,,,,,,,,,,,,,,,,,,,,,,,,
,,,,,,,,,,,,,,,812,2022-01-15_10h31.50.000,multiplicationStroop,2021.2.3,Win32,60.20107158,,,,,left,1,0.5174,0,8,8,20,1,6,1,6 | 1,5,1.9756,1.4111,congruent,left,,,,,,stimulusFile/magnitude.xlsx,,,,,,,,,,,,,,,,,,,,,,,,,,,,,,,
,,,,,,,,,,,,,,,812,2022-01-15_10h31.50.000,multiplicationStroop,2021.2.3,Win32,60.20107158,,,,,left,1,0.8841,0,9,9,5,1,4,3,4 | 3,1,1.9756,1.4111,congruent,left,,,,,,stimulusFile/magnitude.xlsx,,,,,,,,,,,,,,,,,,,,,,,,,,,,,,,
,,,,,,,,,,,,,,,812,2022-01-15_10h31.50.000,multiplicationStroop,2021.2.3,Win32,60.20107158,,,,,left,1,0.6755,0,10,10,37,1,4,2,4 | 2,2,1.4111,1.9756,incongruent,left,,,,,,stimulusFile/magnitude.xlsx,,,,,,,,,,,,,,,,,,,,,,,,,,,,,,,
,,,,,,,,,,,,,,,812,2022-01-15_10h31.50.000,multiplicationStroop,2021.2.3,Win32,60.20107158,,,,,left,1,0.6886,0,11,11,44,1,6,1,6 | 1,5,1.4111,1.9756,incongruent,left,,,,,,stimulusFile/magnitude.xlsx,,,,,,,,,,,,,,,,,,,,,,,,,,,,,,,
,,,,,,,,,,,,,,,812,2022-01-15_10h31.50.000,multiplicationStroop,2021.2.3,Win32,60.20107158,,,,,left,1,0.8341,0,12,12,71,1,9,4,9 | 4,5,1.6933,1.6933,neutral,left,,,,,,stimulusFile/magnitude.xlsx,,,,,,,,,,,,,,,,,,,,,,,,,,,,,,,
,,,,,,,,,,,,,,,812,2022-01-15_10h31.50.000,multiplicationStroop,2021.2.3,Win32,60.20107158,,,,,left,1,0.5746,0,13,13,55,1,9,8,9 | 8,1,1.6933,1.6933,neutral,left,,,,,,stimulusFile/magnitude.xlsx,,,,,,,,,,,,,,,,,,,,,,,,,,,,,,,
,,,,,,,,,,,,,,,812,2022-01-15_10h31.50.000,multiplicationStroop,2021.2.3,Win32,60.20107158,,,,,left,1,0.8367,0,14,14,13,1,4,2,4 | 2,2,1.9756,1.4111,congruent,left,,,,,,stimulusFile/magnitude.xlsx,,,,,,,,,,,,,,,,,,,,,,,,,,,,,,,
,,,,,,,,,,,,,,,812,2022-01-15_10h31.50.000,multiplicationStroop,2021.2.3,Win32,60.20107158,,,,,left,1,0.6842,0,15,15,12,1,3,1,3 | 1,2,1.9756,1.4111,congruent,left,,,,,,stimulusFile/magnitude.xlsx,,,,,,,,,,,,,,,,,,,,,,,,,,,,,,,
,,,,,,,,,,,,,,,812,2022-01-15_10h31.50.000,multiplicationStroop,2021.2.3,Win32,60.20107158,,,,,right,1,0.5341,0,16,16,32,1,1,3,1 | 3,2,1.9756,1.4111,incongruent,right,,,,,,stimulusFile/magnitude.xlsx,,,,,,,,,,,,,,,,,,,,,,,,,,,,,,,
,,,,,,,,,,,,,,,812,2022-01-15_10h31.50.000,multiplicationStroop,2021.2.3,Win32,60.20107158,,,,,left,1,0.5678,0,17,17,61,1,4,2,4 | 2,2,1.6933,1.6933,neutral,left,,,,,,stimulusFile/magnitude.xlsx,,,,,,,,,,,,,,,,,,,,,,,,,,,,,,,
,,,,,,,,,,,,,,,812,2022-01-15_10h31.50.000,multiplicationStroop,2021.2.3,Win32,60.20107158,,,,,left,1,0.6008,0,18,18,28,1,2,1,2 | 1,1,1.4111,1.9756,incongruent,left,,,,,,stimulusFile/magnitude.xlsx,,,,,,,,,,,,,,,,,,,,,,,,,,,,,,,
,,,,,,,,,,,,,,,812,2022-01-15_10h31.50.000,multiplicationStroop,2021.2.3,Win32,60.20107158,,,,,left,1,0.5506,0,19,19,47,1,9,4,9 | 4,5,1.4111,1.9756,incongruent,left,,,,,,stimulusFile/magnitude.xlsx,,,,,,,,,,,,,,,,,,,,,,,,,,,,,,,
,,,,,,,,,,,,,,,812,2022-01-15_10h31.50.000,multiplicationStroop,2021.2.3,Win32,60.20107158,,,,,left,1,0.5352,0,20,20,39,1,9,7,9 | 7,2,1.4111,1.9756,incongruent,left,,,,,,stimulusFile/magnitude.xlsx,,,,,,,,,,,,,,,,,,,,,,,,,,,,,,,
,,,,,,,,,,,,,,,812,2022-01-15_10h31.50.000,multiplicationStroop,2021.2.3,Win32,60.20107158,,,,,right,1,0.6176,0,21,21,49,1,3,4,3 | 4,1,1.6933,1.6933,neutral,right,,,,,,stimulusFile/magnitude.xlsx,,,,,,,,,,,,,,,,,,,,,,,,,,,,,,,
,,,,,,,,,,,,,,,812,2022-01-15_10h31.50.000,multiplicationStroop,2021.2.3,Win32,60.20107158,,,,,right,1,0.6786,0,22,22,43,1,4,9,4 | 9,5,1.9756,1.4111,incongruent,right,,,,,,stimulusFile/magnitude.xlsx,,,,,,,,,,,,,,,,,,,,,,,,,,,,,,,
,,,,,,,,,,,,,,,812,2022-01-15_10h31.50.000,multiplicationStroop,2021.2.3,Win32,60.20107158,,,,,left,1,0.4675,0,23,23,22,1,8,3,8 | 3,5,1.9756,1.4111,congruent,left,,,,,,stimulusFile/magnitude.xlsx,,,,,,,,,,,,,,,,,,,,,,,,,,,,,,,
,,,,,,,,,,,,,,,812,2022-01-15_10h31.50.000,multiplicationStroop,2021.2.3,Win32,60.20107158,,,,,left,1,0.521,0,24,24,52,1,2,1,2 | 1,1,1.6933,1.6933,neutral,left,,,,,,stimulusFile/magnitude.xlsx,,,,,,,,,,,,,,,,,,,,,,,,,,,,,,,
,,,,,,,,,,,,,,,812,2022-01-15_10h31.50.000,multiplicationStroop,2021.2.3,Win32,60.20107158,,,,,right,1,0.5622,0,25,25,41,1,2,7,2 | 7,5,1.9756,1.4111,incongruent,right,,,,,,stimulusFile/magnitude.xlsx,,,,,,,,,,,,,,,,,,,,,,,,,,,,,,,
,,,,,,,,,,,,,,,812,2022-01-15_10h31.50.000,multiplicationStroop,2021.2.3,Win32,60.20107158,,,,,left,1,0.5212,0,26,26,62,1,8,6,8 | 6,2,1.6933,1.6933,neutral,left,,,,,,stimulusFile/magnitude.xlsx,,,,,,,,,,,,,,,,,,,,,,,,,,,,,,,
,,,,,,,,,,,,,,,812,2022-01-15_10h31.50.000,multiplicationStroop,2021.2.3,Win32,60.20107158,,,,,left,1,0.4937,0,27,27,70,1,8,3,8 | 3,5,1.6933,1.6933,neutral,left,,,,,,stimulusFile/magnitude.xlsx,,,,,,,,,,,,,,,,,,,,,,,,,,,,,,,
,,,,,,,,,,,,,,,812,2022-01-15_10h31.50.000,multiplicationStroop,2021.2.3,Win32,60.20107158,,,,,right,1,0.5713,0,28,28,3,1,8,9,8 | 9,1,1.4111,1.9756,congruent,right,,,,,,stimulusFile/magnitude.xlsx,,,,,,,,,,,,,,,,,,,,,,,,,,,,,,,
,,,,,,,,,,,,,,,812,2022-01-15_10h31.50.000,multiplicationStroop,2021.2.3,Win32,60.20107158,,,,,left,1,0.6175,0,29,29,38,1,8,6,8 | 6,2,1.4111,1.9756,incongruent,left,,,,,,stimulusFile/magnitude.xlsx,,,,,,,,,,,,,,,,,,,,,,,,,,,,,,,
,,,,,,,,,,,,,,,812,2022-01-15_10h31.50.000,multiplicationStroop,2021.2.3,Win32,60.20107158,,,,,right,1,0.5168,0,30,30,2,1,6,7,6 | 7,1,1.4111,1.9756,congruent,right,,,,,,stimulusFile/magnitude.xlsx,,,,,,,,,,,,,,,,,,,,,,,,,,,,,,,
,,,,,,,,,,,,,,,812,2022-01-15_10h31.50.000,multiplicationStroop,2021.2.3,Win32,60.20107158,,,,,right,1,0.5341,0,31,31,8,1,1,3,1 | 3,2,1.4111,1.9756,congruent,right,,,,,,stimulusFile/magnitude.xlsx,,,,,,,,,,,,,,,,,,,,,,,,,,,,,,,
,,,,,,,,,,,,,,,812,2022-01-15_10h31.50.000,multiplicationStroop,2021.2.3,Win32,60.20107158,,,,,left,1,0.5178,0,32,32,69,1,7,2,7 | 2,5,1.6933,1.6933,neutral,left,,,,,,stimulusFile/magnitude.xlsx,,,,,,,,,,,,,,,,,,,,,,,,,,,,,,,
,,,,,,,,,,,,,,,812,2022-01-15_10h31.50.000,multiplicationStroop,2021.2.3,Win32,60.20107158,,,,,right,1,0.5682,0,33,33,19,1,4,9,4 | 9,5,1.4111,1.9756,congruent,right,,,,,,stimulusFile/magnitude.xlsx,,,,,,,,,,,,,,,,,,,,,,,,,,,,,,,
,,,,,,,,,,,,,,,812,2022-01-15_10h31.50.000,multiplicationStroop,2021.2.3,Win32,60.20107158,,,,,left,1,0.6176,0,34,34,15,1,9,7,9 | 7,2,1.9756,1.4111,congruent,left,,,,,,stimulusFile/magnitude.xlsx,,,,,,,,,,,,,,,,,,,,,,,,,,,,,,,
,,,,,,,,,,,,,,,812,2022-01-15_10h31.50.000,multiplicationStroop,2021.2.3,Win32,60.20107158,,,,,left,1,0.5178,0,35,35,46,1,8,3,8 | 3,5,1.4111,1.9756,incongruent,left,,,,,,stimulusFile/magnitude.xlsx,,,,,,,,,,,,,,,,,,,,,,,,,,,,,,,
,,,,,,,,,,,,,,,812,2022-01-15_10h31.50.000,multiplicationStroop,2021.2.3,Win32,60.20107158,,,,,right,1,0.6512,0,36,36,59,1,7,9,7 | 9,2,1.6933,1.6933,neutral,right,,,,,,stimulusFile/magnitude.xlsx,,,,,,,,,,,,,,,,,,,,,,,,,,,,,,,
,,,,,,,,,,,,,,,812,2022-01-15_10h31.50.000,multiplicationStroop,2021.2.3,Win32,60.20107158,,,,,right,1,0.7176,0,37,37,0,1,1,2,1 | 2,1,1.4111,1.9756,congruent,right,,,,,,stimulusFile/magnitude.xlsx,,,,,,,,,,,,,,,,,,,,,,,,,,,,,,,
,,,,,,,,,,,,,,,812,2022-01-15_10h31.50.000,multiplicationStroop,2021.2.3,Win32,60.20107158,,,,,right,1,0.4841,0,38,38,66,1,3,8,3 | 8,5,1.6933,1.6933,neutral,right,,,,,,stimulusFile/magnitude.xlsx,,,,,,,,,,,,,,,,,,,,,,,,,,,,,,,
,,,,,,,,,,,,,,,812,2022-01-15_10h31.50.000,multiplicationStroop,2021.2.3,Win32,60.20107158,,,,,left,1,0.7181,0,39,39,6,1,7,6,7 | 6,1,1.9756,1.4111,congruent,left,,,,,,stimulusFile/magnitude.xlsx,,,,,,,,,,,,,,,,,,,,,,,,,,,,,,,
,,,,,,,,,,,,,,,812,2022-01-15_10h31.50.000,multiplicationStroop,2021.2.3,Win32,60.20107158,,,,,right,1,0.6013,0,40,40,25,1,3,4,3 | 4,1,1.9756,1.4111,incongruent,right,,,,,,stimulusFile/magnitude.xlsx,,,,,,,,,,,,,,,,,,,,,,,,,,,,,,,
,,,,,,,,,,,,,,,812,2022-01-15_10h31.50.000,multiplicationStroop,2021.2.3,Win32,60.20107158,,,,,right,1,0.6012,0,41,41,51,1,8,9,8 | 9,1,1.6933,1.6933,neutral,right,,,,,,stimulusFile/magnitude.xlsx,,,,,,,,,,,,,,,,,,,,,,,,,,,,,,,
,,,,,,,,,,,,,,,812,2022-01-15_10h31.50.000,multiplicationStroop,2021.2.3,Win32,60.20107158,,,,,left,1,0.5348,0,42,42,29,1,4,3,4 | 3,1,1.4111,1.9756,incongruent,left,,,,,,stimulusFile/magnitude.xlsx,,,,,,,,,,,,,,,,,,,,,,,,,,,,,,,
,,,,,,,,,,,,,,,812,2022-01-15_10h31.50.000,multiplicationStroop,2021.2.3,Win32,60.20107158,,,,,left,1,0.4843,0,43,43,4,1,2,1,2 | 1,1,1.9756,1.4111,congruent,left,,,,,,stimulusFile/magnitude.xlsx,,,,,,,,,,,,,,,,,,,,,,,,,,,,,,,
,,,,,,,,,,,,,,,812,2022-01-15_10h31.50.000,multiplicationStroop,2021.2.3,Win32,60.20107158,,,,,right,1,0.634,0,44,44,65,1,2,7,2 | 7,5,1.6933,1.6933,neutral,right,,,,,,stimulusFile/magnitude.xlsx,,,,,,,,,,,,,,,,,,,,,,,,,,,,,,,
,,,,,,,,,,,,,,,812,2022-01-15_10h31.50.000,multiplicationStroop,2021.2.3,Win32,60.20107158,,,,,right,1,0.6839,0,45,45,1,1,3,4,3 | 4,1,1.4111,1.9756,congruent,right,,,,,,stimulusFile/magnitude.xlsx,,,,,,,,,,,,,,,,,,,,,,,,,,,,,,,
,,,,,,,,,,,,,,,812,2022-01-15_10h31.50.000,multiplicationStroop,2021.2.3,Win32,60.20107158,,,,,right,1,0.5678,0,46,46,42,1,3,8,3 | 8,5,1.9756,1.4111,incongruent,right,,,,,,stimulusFile/magnitude.xlsx,,,,,,,,,,,,,,,,,,,,,,,,,,,,,,,
,,,,,,,,,,,,,,,812,2022-01-15_10h31.50.000,multiplicationStroop,2021.2.3,Win32,60.20107158,,,,,left,1,0.502,0,47,47,54,1,7,6,7 | 6,1,1.6933,1.6933,neutral,left,,,,,,stimulusFile/magnitude.xlsx,,,,,,,,,,,,,,,,,,,,,,,,,,,,,,,
,,,,,,,,,,,,,,,812,2022-01-15_10h31.50.000,multiplicationStroop,2021.2.3,Win32,60.20107158,,,,,right,1,0.5679,0,48,48,26,1,6,7,6 | 7,1,1.9756,1.4111,incongruent,right,,,,,,stimulusFile/magnitude.xlsx,,,,,,,,,,,,,,,,,,,,,,,,,,,,,,,
,,,,,,,,,,,,,,,812,2022-01-15_10h31.50.000,multiplicationStroop,2021.2.3,Win32,60.20107158,,,,,right,1,0.5675,0,49,49,33,1,2,4,2 | 4,2,1.9756,1.4111,incongruent,right,,,,,,stimulusFile/magnitude.xlsx,,,,,,,,,,,,,,,,,,,,,,,,,,,,,,,
,,,,,,,,,,,,,,,812,2022-01-15_10h31.50.000,multiplicationStroop,2021.2.3,Win32,60.20107158,,,,,left,1,0.4843,0,50,50,7,1,9,8,9 | 8,1,1.9756,1.4111,congruent,left,,,,,,stimulusFile/magnitude.xlsx,,,,,,,,,,,,,,,,,,,,,,,,,,,,,,,
,,,,,,,,,,,,,,,812,2022-01-15_10h31.50.000,multiplicationStroop,2021.2.3,Win32,60.20107158,,,,,left,1,0.5679,0,51,51,31,1,9,8,9 | 8,1,1.4111,1.9756,incongruent,left,,,,,,stimulusFile/magnitude.xlsx,,,,,,,,,,,,,,,,,,,,,,,,,,,,,,,
,,,,,,,,,,,,,,,812,2022-01-15_10h31.50.000,multiplicationStroop,2021.2.3,Win32,60.20107158,,,,,right,1,0.5844,0,52,52,17,1,2,7,2 | 7,5,1.4111,1.9756,congruent,right,,,,,,stimulusFile/magnitude.xlsx,,,,,,,,,,,,,,,,,,,,,,,,,,,,,,,
,,,,,,,,,,,,,,,812,2022-01-15_10h31.50.000,multiplicationStroop,2021.2.3,Win32,60.20107158,,,,,left,1,0.5513,0,53,53,53,1,4,3,4 | 3,1,1.6933,1.6933,neutral,left,,,,,,stimulusFile/magnitude.xlsx,,,,,,,,,,,,,,,,,,,,,,,,,,,,,,,
,,,,,,,,,,,,,,,812,2022-01-15_10h31.50.000,multiplicationStroop,2021.2.3,Win32,60.20107158,,,,,right,1,0.4844,0,54,54,50,1,6,7,6 | 7,1,1.6933,1.6933,neutral,right,,,,,,stimulusFile/magnitude.xlsx,,,,,,,,,,,,,,,,,,,,,,,,,,,,,,,
,,,,,,,,,,,,,,,812,2022-01-15_10h31.50.000,multiplicationStroop,2021.2.3,Win32,60.20107158,,,,,left,1,0.5178,0,55,55,30,1,7,6,7 | 6,1,1.4111,1.9756,incongruent,left,,,,,,stimulusFile/magnitude.xlsx,,,,,,,,,,,,,,,,,,,,,,,,,,,,,,,
,,,,,,,,,,,,,,,812,2022-01-15_10h31.50.000,multiplicationStroop,2021.2.3,Win32,60.20107158,,,,,left,1,0.4675,0,56,56,14,1,8,6,8 | 6,2,1.9756,1.4111,congruent,left,,,,,,stimulusFile/magnitude.xlsx,,,,,,,,,,,,,,,,,,,,,,,,,,,,,,,
,,,,,,,,,,,,,,,812,2022-01-15_10h31.50.000,multiplicationStroop,2021.2.3,Win32,60.20107158,,,,,right,1,0.4676,0,57,57,48,1,1,2,1 | 2,1,1.6933,1.6933,neutral,right,,,,,,stimulusFile/magnitude.xlsx,,,,,,,,,,,,,,,,,,,,,,,,,,,,,,,
,,,,,,,,,,,,,,,812,2022-01-15_10h31.50.000,multiplicationStroop,2021.2.3,Win32,60.20107158,,,,,left,1,0.4185,0,58,58,21,1,7,2,7 | 2,5,1.9756,1.4111,congruent,left,,,,,,stimulusFile/magnitude.xlsx,,,,,,,,,,,,,,,,,,,,,,,,,,,,,,,
,,,,,,,,,,,,,,,812,2022-01-15_10h31.50.000,multiplicationStroop,2021.2.3,Win32,60.20107158,,,,,right,1,0.5344,0,59,59,34,1,6,8,6 | 8,2,1.9756,1.4111,incongruent,right,,,,,,stimulusFile/magnitude.xlsx,,,,,,,,,,,,,,,,,,,,,,,,,,,,,,,
,,,,,,,,,,,,,,,812,2022-01-15_10h31.50.000,multiplicationStroop,2021.2.3,Win32,60.20107158,,,,,left,1,0.434,0,60,60,45,1,7,2,7 | 2,5,1.4111,1.9756,incongruent,left,,,,,,stimulusFile/magnitude.xlsx,,,,,,,,,,,,,,,,,,,,,,,,,,,,,,,
,,,,,,,,,,,,,,,812,2022-01-15_10h31.50.000,multiplicationStroop,2021.2.3,Win32,60.20107158,,,,,left,1,0.5178,0,61,61,68,1,6,1,6 | 1,5,1.6933,1.6933,neutral,left,,,,,,stimulusFile/magnitude.xlsx,,,,,,,,,,,,,,,,,,,,,,,,,,,,,,,
,,,,,,,,,,,,,,,812,2022-01-15_10h31.50.000,multiplicationStroop,2021.2.3,Win32,60.20107158,,,,,right,1,0.5345,0,62,62,10,1,6,8,6 | 8,2,1.4111,1.9756,congruent,right,,,,,,stimulusFile/magnitude.xlsx,,,,,,,,,,,,,,,,,,,,,,,,,,,,,,,
,,,,,,,,,,,,,,,812,2022-01-15_10h31.50.000,multiplicationStroop,2021.2.3,Win32,60.20107158,,,,,right,1,0.5671,0,63,63,40,1,1,6,1 | 6,5,1.9756,1.4111,incongruent,right,,,,,,stimulusFile/magnitude.xlsx,,,,,,,,,,,,,,,,,,,,,,,,,,,,,,,
,,,,,,,,,,,,,,,812,2022-01-15_10h31.50.000,multiplicationStroop,2021.2.3,Win32,60.20107158,,,,,right,1,0.6012,0,64,64,67,1,4,9,4 | 9,5,1.6933,1.6933,neutral,right,,,,,,stimulusFile/magnitude.xlsx,,,,,,,,,,,,,,,,,,,,,,,,,,,,,,,
,,,,,,,,,,,,,,,812,2022-01-15_10h31.50.000,multiplicationStroop,2021.2.3,Win32,60.20107158,,,,,right,1,0.418,0,65,65,24,1,1,2,1 | 2,1,1.9756,1.4111,incongruent,right,,,,,,stimulusFile/magnitude.xlsx,,,,,,,,,,,,,,,,,,,,,,,,,,,,,,,
,,,,,,,,,,,,,,,812,2022-01-15_10h31.50.000,multiplicationStroop,2021.2.3,Win32,60.20107158,,,,,right,1,0.5846,0,66,66,58,1,6,8,6 | 8,2,1.6933,1.6933,neutral,right,,,,,,stimulusFile/magnitude.xlsx,,,,,,,,,,,,,,,,,,,,,,,,,,,,,,,
,,,,,,,,,,,,,,,812,2022-01-15_10h31.50.000,multiplicationStroop,2021.2.3,Win32,60.20107158,,,,,right,1,0.6511,0,67,67,56,1,1,3,1 | 3,2,1.6933,1.6933,neutral,right,,,,,,stimulusFile/magnitude.xlsx,,,,,,,,,,,,,,,,,,,,,,,,,,,,,,,
,,,,,,,,,,,,,,,812,2022-01-15_10h31.50.000,multiplicationStroop,2021.2.3,Win32,60.20107158,,,,,right,1,0.4177,0,68,68,16,1,1,6,1 | 6,5,1.4111,1.9756,congruent,right,,,,,,stimulusFile/magnitude.xlsx,,,,,,,,,,,,,,,,,,,,,,,,,,,,,,,
,,,,,,,,,,,,,,,812,2022-01-15_10h31.50.000,multiplicationStroop,2021.2.3,Win32,60.20107158,,,,,left,1,0.6843,0,69,69,60,1,3,1,3 | 1,2,1.6933,1.6933,neutral,left,,,,,,stimulusFile/magnitude.xlsx,,,,,,,,,,,,,,,,,,,,,,,,,,,,,,,
,,,,,,,,,,,,,,,812,2022-01-15_10h31.50.000,multiplicationStroop,2021.2.3,Win32,60.20107158,,,,,right,1,0.4849,0,70,70,11,1,7,9,7 | 9,2,1.4111,1.9756,congruent,right,,,,,,stimulusFile/magnitude.xlsx,,,,,,,,,,,,,,,,,,,,,,,,,,,,,,,
,,,,,,,,,,,,,,,812,2022-01-15_10h31.50.000,multiplicationStroop,2021.2.3,Win32,60.20107158,,,,,left,1,0.3845,0,71,71,23,1,9,4,9 | 4,5,1.9756,1.4111,congruent,left,,,,,,stimulusFile/magnitude.xlsx,,,,,,,,,,,,,,,,,,,,,,,,,,,,,,,
,,,,,,,,,,,,,,,812,2022-01-15_10h31.50.000,multiplicationStroop,2021.2.3,Win32,60.20107158,,,,,,,,,,,,,,,,,,,,,0,0,0,0,1,stimulusFile/magnitude.xlsx,NUMERICALLY larger (larger coefficient).,images/numericallyLarger.png,,,,,,,,,,,,,,,,,,,,,,,,,,,,,
,,,,,,,,,,,,,,,812,2022-01-15_10h31.50.000,multiplicationStroop,2021.2.3,Win32,60.20107158,space,7.4844,space,4.0769,left,1,0.5302,0,0,0,49,1,3,3,3 | 3,0,1.9756,1.4111,neutral,left,,,,,,stimulusFile/physical.xlsx,,,,,,,,,,,,,,,,,,,,,,,,,,,,,,,
,,,,,,,,,,,,,,,812,2022-01-15_10h31.50.000,multiplicationStroop,2021.2.3,Win32,60.20107158,,,,,left,1,0.3871,0,1,1,20,1,6,1,6 | 1,5,1.9756,1.4111,congruent,left,,,,,,stimulusFile/physical.xlsx,,,,,,,,,,,,,,,,,,,,,,,,,,,,,,,
,,,,,,,,,,,,,,,812,2022-01-15_10h31.50.000,multiplicationStroop,2021.2.3,Win32,60.20107158,,,,,right,1,0.4253,0,2,2,9,1,2,4,2 | 4,2,1.4111,1.9756,congruent,right,,,,,,stimulusFile/physical.xlsx,,,,,,,,,,,,,,,,,,,,,,,,,,,,,,,
,,,,,,,,,,,,,,,812,2022-01-15_10h31.50.000,multiplicationStroop,2021.2.3,Win32,60.20107158,,,,,right,1,0.7352,0,3,3,39,1,9,7,9 | 7,2,1.4111,1.9756,incongruent,right,,,,,,stimulusFile/physical.xlsx,,,,,,,,,,,,,,,,,,,,,,,,,,,,,,,
,,,,,,,,,,,,,,,812,2022-01-15_10h31.50.000,multiplicationStroop,2021.2.3,Win32,60.20107158,,,,,right,1,0.47,0,4,4,37,1,4,2,4 | 2,2,1.4111,1.9756,incongruent,right,,,,,,stimulusFile/physical.xlsx,,,,,,,,,,,,,,,,,,,,,,,,,,,,,,,
,,,,,,,,,,,,,,,812,2022-01-15_10h31.50.000,multiplicationStroop,2021.2.3,Win32,60.20107158,,,,,right,1,0.5675,0,5,5,31,1,9,8,9 | 8,1,1.4111,1.9756,incongruent,right,,,,,,stimulusFile/physical.xlsx,,,,,,,,,,,,,,,,,,,,,,,,,,,,,,,
,,,,,,,,,,,,,,,812,2022-01-15_10h31.50.000,multiplicationStroop,2021.2.3,Win32,60.20107158,,,,,left,1,0.5005,0,6,6,14,1,8,6,8 | 6,2,1.9756,1.4111,congruent,left,,,,,,stimulusFile/physical.xlsx,,,,,,,,,,,,,,,,,,,,,,,,,,,,,,,
,,,,,,,,,,,,,,,812,2022-01-15_10h31.50.000,multiplicationStroop,2021.2.3,Win32,60.20107158,,,,,left,1,0.6566,0,7,7,43,1,4,9,4 | 9,5,1.9756,1.4111,incongruent,left,,,,,,stimulusFile/physical.xlsx,,,,,,,,,,,,,,,,,,,,,,,,,,,,,,,
,,,,,,,,,,,,,,,812,2022-01-15_10h31.50.000,multiplicationStroop,2021.2.3,Win32,60.20107158,,,,,left,1,0.4532,0,8,8,15,1,9,7,9 | 7,2,1.9756,1.4111,congruent,left,,,,,,stimulusFile/physical.xlsx,,,,,,,,,,,,,,,,,,,,,,,,,,,,,,,
,,,,,,,,,,,,,,,812,2022-01-15_10h31.50.000,multiplicationStroop,2021.2.3,Win32,60.20107158,,,,,right,1,0.5171,0,9,9,61,1,4,4,4 | 4,0,1.4111,1.9756,neutral,right,,,,,,stimulusFile/physical.xlsx,,,,,,,,,,,,,,,,,,,,,,,,,,,,,,,
,,,,,,,,,,,,,,,812,2022-01-15_10h31.50.000,multiplicationStroop,2021.2.3,Win32,60.20107158,,,,,right,1,0.478,0,10,10,18,1,3,8,3 | 8,5,1.4111,1.9756,congruent,right,,,,,,stimulusFile/physical.xlsx,,,,,,,,,,,,,,,,,,,,,,,,,,,,,,,
,,,,,,,,,,,,,,,812,2022-01-15_10h31.50.000,multiplicationStroop,2021.2.3,Win32,60.20107158,,,,,left,1,0.655,0,11,11,27,1,8,9,8 | 9,1,1.9756,1.4111,incongruent,left,,,,,,stimulusFile/physical.xlsx,,,,,,,,,,,,,,,,,,,,,,,,,,,,,,,
,,,,,,,,,,,,,,,812,2022-01-15_10h31.50.000,multiplicationStroop,2021.2.3,Win32,60.20107158,,,,,left,0,0.5773,0,12,12,30,1,7,6,7 | 6,1,1.4111,1.9756,incongruent,right,,,,,,stimulusFile/physical.xlsx,,,,,,,,,,,,,,,,,,,,,,,,,,,,,,,
,,,,,,,,,,,,,,,812,2022-01-15_10h31.50.000,multiplicationStroop,2021.2.3,Win32,60.20107158,,,,,right,1,1.6509,0,13,13,67,1,4,4,4 | 4,0,1.4111,1.9756,neutral,right,,,,,,stimulusFile/physical.xlsx,,,,,,,,,,,,,,,,,,,,,,,,,,,,,,,
,,,,,,,,,,,,,,,812,2022-01-15_10h31.50.000,multiplicationStroop,2021.2.3,Win32,60.20107158,,,,,left,1,0.6674,0,14,14,50,1,6,6,6 | 6,0,1.9756,1.4111,neutral,left,,,,,,stimulusFile/physical.xlsx,,,,,,,,,,,,,,,,,,,,,,,,,,,,,,,
,,,,,,,,,,,,,,,812,2022-01-15_10h31.50.000,multiplicationStroop,2021.2.3,Win32,60.20107158,,,,,right,0,0.5172,0,15,15,32,1,1,3,1 | 3,2,1.9756,1.4111,incongruent,left,,,,,,stimulusFile/physical.xlsx,,,,,,,,,,,,,,,,,,,,,,,,,,,,,,,
,,,,,,,,,,,,,,,812,2022-01-15_10h31.50.000,multiplicationStroop,2021.2.3,Win32,60.20107158,,,,,left,1,1.7009,0,16,16,21,1,7,2,7 | 2,5,1.9756,1.4111,congruent,left,,,,,,stimulusFile/physical.xlsx,,,,,,,,,,,,,,,,,,,,,,,,,,,,,,,
,,,,,,,,,,,,,,,812,2022-01-15_10h31.50.000,multiplicationStroop,2021.2.3,Win32,60.20107158,,,,,right,1,0.6009,0,17,17,59,1,7,7,7 | 7,0,1.4111,1.9756,neutral,right,,,,,,stimulusFile/physical.xlsx,,,,,,,,,,,,,,,,,,,,,,,,,,,,,,,
,,,,,,,,,,,,,,,812,2022-01-15_10h31.50.000,multiplicationStroop,2021.2.3,Win32,60.20107158,,,,,right,1,0.6676,0,18,18,56,1,1,1,1 | 1,0,1.4111,1.9756,neutral,right,,,,,,stimulusFile/physical.xlsx,,,,,,,,,,,,,,,,,,,,,,,,,,,,,,,
,,,,,,,,,,,,,,,812,2022-01-15_10h31.50.000,multiplicationStroop,2021.2.3,Win32,60.20107158,,,,,left,1,0.5005,0,19,19,12,1,3,1,3 | 1,2,1.9756,1.4111,congruent,left,,,,,,stimulusFile/physical.xlsx,,,,,,,,,,,,,,,,,,,,,,,,,,,,,,,
,,,,,,,,,,,,,,,812,2022-01-15_10h31.50.000,multiplicationStroop,2021.2.3,Win32,60.20107158,,,,,left,1,0.5005,0,20,20,23,1,9,4,9 | 4,5,1.9756,1.4111,congruent,left,,,,,,stimulusFile/physical.xlsx,,,,,,,,,,,,,,,,,,,,,,,,,,,,,,,
,,,,,,,,,,,,,,,812,2022-01-15_10h31.50.000,multiplicationStroop,2021.2.3,Win32,60.20107158,,,,,left,0,0.5367,0,21,21,66,1,3,3,3 | 3,0,1.9756,1.4111,neutral,right,,,,,,stimulusFile/physical.xlsx,,,,,,,,,,,,,,,,,,,,,,,,,,,,,,,
,,,,,,,,,,,,,,,812,2022-01-15_10h31.50.000,multiplicationStroop,2021.2.3,Win32,60.20107158,,,,,right,1,0.9178,0,22,22,28,1,2,1,2 | 1,1,1.4111,1.9756,incongruent,right,,,,,,stimulusFile/physical.xlsx,,,,,,,,,,,,,,,,,,,,,,,,,,,,,,,
,,,,,,,,,,,,,,,812,2022-01-15_10h31.50.000,multiplicationStroop,2021.2.3,Win32,60.20107158,,,,,left,1,0.601,0,23,23,41,1,2,7,2 | 7,5,1.9756,1.4111,incongruent,left,,,,,,stimulusFile/physical.xlsx,,,,,,,,,,,,,,,,,,,,,,,,,,,,,,,
,,,,,,,,,,,,,,,812,2022-01-15_10h31.50.000,multiplicationStroop,2021.2.3,Win32,60.20107158,,,,,left,1,0.6227,0,24,24,40,1,1,6,1 | 6,5,1.9756,1.4111,incongruent,left,,,,,,stimulusFile/physical.xlsx,,,,,,,,,,,,,,,,,,,,,,,,,,,,,,,
,,,,,,,,,,,,,,,812,2022-01-15_10h31.50.000,multiplicationStroop,2021.2.3,Win32,60.20107158,,,,,left,1,0.8339,0,25,25,35,1,7,9,7 | 9,2,1.9756,1.4111,incongruent,left,,,,,,stimulusFile/physical.xlsx,,,,,,,,,,,,,,,,,,,,,,,,,,,,,,,
,,,,,,,,,,,,,,,812,2022-01-15_10h31.50.000,multiplicationStroop,2021.2.3,Win32,60.20107158,,,,,right,1,0.4675,0,26,26,2,1,6,7,6 | 7,1,1.4111,1.9756,congruent,right,,,,,,stimulusFile/physical.xlsx,,,,,,,,,,,,,,,,,,,,,,,,,,,,,,,
,,,,,,,,,,,,,,,812,2022-01-15_10h31.50.000,multiplicationStroop,2021.2.3,Win32,60.20107158,,,,,left,1,0.5509,0,27,27,6,1,7,6,7 | 6,1,1.9756,1.4111,congruent,left,,,,,,stimulusFile/physical.xlsx,,,,,,,,,,,,,,,,,,,,,,,,,,,,,,,
,,,,,,,,,,,,,,,812,2022-01-15_10h31.50.000,multiplicationStroop,2021.2.3,Win32,60.20107158,,,,,left,1,0.5508,0,28,28,13,1,4,2,4 | 2,2,1.9756,1.4111,congruent,left,,,,,,stimulusFile/physical.xlsx,,,,,,,,,,,,,,,,,,,,,,,,,,,,,,,
,,,,,,,,,,,,,,,812,2022-01-15_10h31.50.000,multiplicationStroop,2021.2.3,Win32,60.20107158,,,,,right,1,0.4914,0,29,29,19,1,4,9,4 | 9,5,1.4111,1.9756,congruent,right,,,,,,stimulusFile/physical.xlsx,,,,,,,,,,,,,,,,,,,,,,,,,,,,,,,
,,,,,,,,,,,,,,,812,2022-01-15_10h31.50.000,multiplicationStroop,2021.2.3,Win32,60.20107158,,,,,right,1,0.5174,0,30,30,17,1,2,7,2 | 7,5,1.4111,1.9756,congruent,right,,,,,,stimulusFile/physical.xlsx,,,,,,,,,,,,,,,,,,,,,,,,,,,,,,,
,,,,,,,,,,,,,,,812,2022-01-15_10h31.50.000,multiplicationStroop,2021.2.3,Win32,60.20107158,,,,,left,1,0.5162,0,31,31,22,1,8,3,8 | 3,5,1.9756,1.4111,congruent,left,,,,,,stimulusFile/physical.xlsx,,,,,,,,,,,,,,,,,,,,,,,,,,,,,,,
,,,,,,,,,,,,,,,812,2022-01-15_10h31.50.000,multiplicationStroop,2021.2.3,Win32,60.20107158,,,,,right,1,0.6507,0,32,32,65,1,2,2,2 | 2,0,1.4111,1.9756,neutral,right,,,,,,stimulusFile/physical.xlsx,,,,,,,,,,,,,,,,,,,,,,,,,,,,,,,
,,,,,,,,,,,,,,,812,2022-01-15_10h31.50.000,multiplicationStroop,2021.2.3,Win32,60.20107158,,,,,left,1,0.5306,0,33,33,53,1,4,4,4 | 4,0,1.9756,1.4111,neutral,left,,,,,,stimulusFile/physical.xlsx,,,,,,,,,,,,,,,,,,,,,,,,,,,,,,,
,,,,,,,,,,,,,,,812,2022-01-15_10h31.50.000,multiplicationStroop,2021.2.3,Win32,60.20107158,,,,,left,1,0.6673,0,34,34,25,1,3,4,3 | 4,1,1.9756,1.4111,incongruent,left,,,,,,stimulusFile/physical.xlsx,,,,,,,,,,,,,,,,,,,,,,,,,,,,,,,
,,,,,,,,,,,,,,,812,2022-01-15_10h31.50.000,multiplicationStroop,2021.2.3,Win32,60.20107158,,,,,left,1,0.5509,0,35,35,54,1,7,7,7 | 7,0,1.9756,1.4111,neutral,left,,,,,,stimulusFile/physical.xlsx,,,,,,,,,,,,,,,,,,,,,,,,,,,,,,,
,,,,,,,,,,,,,,,812,2022-01-15_10h31.50.000,multiplicationStroop,2021.2.3,Win32,60.20107158,,,,,left,0,0.5881,0,36,36,64,1,1,1,1 | 1,0,1.9756,1.4111,neutral,right,,,,,,stimulusFile/physical.xlsx,,,,,,,,,,,,,,,,,,,,,,,,,,,,,,,
,,,,,,,,,,,,,,,812,2022-01-15_10h31.50.000,multiplicationStroop,2021.2.3,Win32,60.20107158,,,,,right,1,0.4874,0,37,37,10,1,6,8,6 | 8,2,1.4111,1.9756,congruent,right,,,,,,stimulusFile/physical.xlsx,,,,,,,,,,,,,,,,,,,,,,,,,,,,,,,
,,,,,,,,,,,,,,,812,2022-01-15_10h31.50.000,multiplicationStroop,2021.2.3,Win32,60.20107158,,,,,right,1,0.6009,0,38,38,45,1,7,2,7 | 2,5,1.4111,1.9756,incongruent,right,,,,,,stimulusFile/physical.xlsx,,,,,,,,,,,,,,,,,,,,,,,,,,,,,,,
,,,,,,,,,,,,,,,812,2022-01-15_10h31.50.000,multiplicationStroop,2021.2.3,Win32,60.20107158,,,,,right,1,0.6435,0,39,39,47,1,9,4,9 | 4,5,1.4111,1.9756,incongruent,right,,,,,,stimulusFile/physical.xlsx,,,,,,,,,,,,,,,,,,,,,,,,,,,,,,,
,,,,,,,,,,,,,,,812,2022-01-15_10h31.50.000,multiplicationStroop,2021.2.3,Win32,60.20107158,,,,,right,1,0.626,0,40,40,46,1,8,3,8 | 3,5,1.4111,1.9756,incongruent,right,,,,,,stimulusFile/physical.xlsx,,,,,,,,,,,,,,,,,,,,,,,,,,,,,,,
,,,,,,,,,,,,,,,812,2022-01-15_10h31.50.000,multiplicationStroop,2021.2.3,Win32,60.20107158,,,,,right,1,0.5998,0,41,41,60,1,3,3,3 | 3,0,1.4111,1.9756,neutral,right,,,,,,stimulusFile/physical.xlsx,,,,,,,,,,,,,,,,,,,,,,,,,,,,,,,
,,,,,,,,,,,,,,,812,2022-01-15_10h31.50.000,multiplicationStroop,2021.2.3,Win32,60.20107158,,,,,left,1,0.5177,0,42,42,55,1,9,9,9 | 9,0,1.9756,1.4111,neutral,left,,,,,,stimulusFile/physical.xlsx,,,,,,,,,,,,,,,,,,,,,,,,,,,,,,,
,,,,,,,,,,,,,,,812,2022-01-15_10h31.50.000,multiplicationStroop,2021.2.3,Win32,60.20107158,,,,,left,1,0.5172,0,43,43,24,1,1,2,1 | 2,1,1.9756,1.4111,incongruent,left,,,,,,stimulusFile/physical.xlsx,,,,,,,,,,,,,,,,,,,,,,,,,,,,,,,
,,,,,,,,,,,,,,,812,2022-01-15_10h31.50.000,multiplicationStroop,2021.2.3,Win32,60.20107158,,,,,right,1,0.5036,0,44,44,29,1,4,3,4 | 3,1,1.4111,1.9756,incongruent,right,,,,,,stimulusFile/physical.xlsx,,,,,,,,,,,,,,,,,,,,,,,,,,,,,,,
,,,,,,,,,,,,,,,812,2022-01-15_10h31.50.000,multiplicationStroop,2021.2.3,Win32,60.20107158,,,,,left,1,0.5174,0,45,45,33,1,2,4,2 | 4,2,1.9756,1.4111,incongruent,left,,,,,,stimulusFile/physical.xlsx,,,,,,,,,,,,,,,,,,,,,,,,,,,,,,,
,,,,,,,,,,,,,,,812,2022-01-15_10h31.50.000,multiplicationStroop,2021.2.3,Win32,60.20107158,,,,,left,1,0.584,0,46,46,42,1,3,8,3 | 8,5,1.9756,1.4111,incongruent,left,,,,,,stimulusFile/physical.xlsx,,,,,,,,,,,,,,,,,,,,,,,,,,,,,,,
,,,,,,,,,,,,,,,812,2022-01-15_10h31.50.000,multiplicationStroop,2021.2.3,Win32,60.20107158,,,,,right,1,0.4674,0,47,47,62,1,8,8,8 | 8,0,1.4111,1.9756,neutral,right,,,,,,stimulusFile/physical.xlsx,,,,,,,,,,,,,,,,,,,,,,,,,,,,,,,
,,,,,,,,,,,,,,,812,2022-01-15_10h31.50.000,multiplicationStroop,2021.2.3,Win32,60.20107158,,,,,right,1,0.5672,0,48,48,11,1,7,9,7 | 9,2,1.4111,1.9756,congruent,right,,,,,,stimulusFile/physical.xlsx,,,,,,,,,,,,,,,,,,,,,,,,,,,,,,,
,,,,,,,,,,,,,,,812,2022-01-15_10h31.50.000,multiplicationStroop,2021.2.3,Win32,60.20107158,,,,,left,1,0.5366,0,49,49,52,1,2,2,2 | 2,0,1.9756,1.4111,neutral,left,,,,,,stimulusFile/physical.xlsx,,,,,,,,,,,,,,,,,,,,,,,,,,,,,,,
,,,,,,,,,,,,,,,812,2022-01-15_10h31.50.000,multiplicationStroop,2021.2.3,Win32,60.20107158,,,,,left,1,0.5841,0,50,50,51,1,8,8,8 | 8,0,1.9756,1.4111,neutral,left,,,,,,stimulusFile/physical.xlsx,,,,,,,,,,,,,,,,,,,,,,,,,,,,,,,
,,,,,,,,,,,,,,,812,2022-01-15_10h31.50.000,multiplicationStroop,2021.2.3,Win32,60.20107158,,,,,right,1,0.5172,0,51,51,58,1,6,6,6 | 6,0,1.4111,1.9756,neutral,right,,,,,,stimulusFile/physical.xlsx,,,,,,,,,,,,,,,,,,,,,,,,,,,,,,,
,,,,,,,,,,,,,,,812,2022-01-15_10h31.50.000,multiplicationStroop,2021.2.3,Win32,60.20107158,,,,,right,1,0.7839,0,52,52,57,1,2,2,2 | 2,0,1.4111,1.9756,neutral,right,,,,,,stimulusFile/physical.xlsx,,,,,,,,,,,,,,,,,,,,,,,,,,,,,,,
,,,,,,,,,,,,,,,812,2022-01-15_10h31.50.000,multiplicationStroop,2021.2.3,Win32,60.20107158,,,,,left,1,0.4536,0,53,53,70,1,8,8,8 | 8,0,1.9756,1.4111,neutral,left,,,,,,stimulusFile/physical.xlsx,,,,,,,,,,,,,,,,,,,,,,,,,,,,,,,
,,,,,,,,,,,,,,,812,2022-01-15_10h31.50.000,multiplicationStroop,2021.2.3,Win32,60.20107158,,,,,left,1,0.4264,0,54,54,68,1,6,6,6 | 6,0,1.9756,1.4111,neutral,left,,,,,,stimulusFile/physical.xlsx,,,,,,,,,,,,,,,,,,,,,,,,,,,,,,,
,,,,,,,,,,,,,,,812,2022-01-15_10h31.50.000,multiplicationStroop,2021.2.3,Win32,60.20107158,,,,,right,1,0.4883,0,55,55,1,1,3,4,3 | 4,1,1.4111,1.9756,congruent,right,,,,,,stimulusFile/physical.xlsx,,,,,,,,,,,,,,,,,,,,,,,,,,,,,,,
,,,,,,,,,,,,,,,812,2022-01-15_10h31.50.000,multiplicationStroop,2021.2.3,Win32,60.20107158,,,,,right,1,0.5839,0,56,56,8,1,1,3,1 | 3,2,1.4111,1.9756,congruent,right,,,,,,stimulusFile/physical.xlsx,,,,,,,,,,,,,,,,,,,,,,,,,,,,,,,
,,,,,,,,,,,,,,,812,2022-01-15_10h31.50.000,multiplicationStroop,2021.2.3,Win32,60.20107158,,,,,right,1,0.5704,0,57,57,16,1,1,6,1 | 6,5,1.4111,1.9756,congruent,right,,,,,,stimulusFile/physical.xlsx,,,,,,,,,,,,,,,,,,,,,,,,,,,,,,,
,,,,,,,,,,,,,,,812,2022-01-15_10h31.50.000,multiplicationStroop,2021.2.3,Win32,60.20107158,,,,,left,1,0.4966,0,58,58,34,1,6,8,6 | 8,2,1.9756,1.4111,incongruent,left,,,,,,stimulusFile/physical.xlsx,,,,,,,,,,,,,,,,,,,,,,,,,,,,,,,
,,,,,,,,,,,,,,,812,2022-01-15_10h31.50.000,multiplicationStroop,2021.2.3,Win32,60.20107158,,,,,left,1,0.4644,0,59,59,5,1,4,3,4 | 3,1,1.9756,1.4111,congruent,left,,,,,,stimulusFile/physical.xlsx,,,,,,,,,,,,,,,,,,,,,,,,,,,,,,,
,,,,,,,,,,,,,,,812,2022-01-15_10h31.50.000,multiplicationStroop,2021.2.3,Win32,60.20107158,,,,,right,1,0.501,0,60,60,0,1,1,2,1 | 2,1,1.4111,1.9756,congruent,right,,,,,,stimulusFile/physical.xlsx,,,,,,,,,,,,,,,,,,,,,,,,,,,,,,,
,,,,,,,,,,,,,,,812,2022-01-15_10h31.50.000,multiplicationStroop,2021.2.3,Win32,60.20107158,,,,,right,0,0.5084,0,61,61,69,1,7,7,7 | 7,0,1.4111,1.9756,neutral,left,,,,,,stimulusFile/physical.xlsx,,,,,,,,,,,,,,,,,,,,,,,,,,,,,,,
,,,,,,,,,,,,,,,812,2022-01-15_10h31.50.000,multiplicationStroop,2021.2.3,Win32,60.20107158,,,,,left,1,0.5006,0,62,62,48,1,1,1,1 | 1,0,1.9756,1.4111,neutral,left,,,,,,stimulusFile/physical.xlsx,,,,,,,,,,,,,,,,,,,,,,,,,,,,,,,
,,,,,,,,,,,,,,,812,2022-01-15_10h31.50.000,multiplicationStroop,2021.2.3,Win32,60.20107158,,,,,left,1,0.5355,0,63,63,7,1,9,8,9 | 8,1,1.9756,1.4111,congruent,left,,,,,,stimulusFile/physical.xlsx,,,,,,,,,,,,,,,,,,,,,,,,,,,,,,,
,,,,,,,,,,,,,,,812,2022-01-15_10h31.50.000,multiplicationStroop,2021.2.3,Win32,60.20107158,,,,,right,1,0.5676,0,64,64,36,1,3,1,3 | 1,2,1.4111,1.9756,incongruent,right,,,,,,stimulusFile/physical.xlsx,,,,,,,,,,,,,,,,,,,,,,,,,,,,,,,
,,,,,,,,,,,,,,,812,2022-01-15_10h31.50.000,multiplicationStroop,2021.2.3,Win32,60.20107158,,,,,left,1,0.42,0,65,65,26,1,6,7,6 | 7,1,1.9756,1.4111,incongruent,left,,,,,,stimulusFile/physical.xlsx,,,,,,,,,,,,,,,,,,,,,,,,,,,,,,,
,,,,,,,,,,,,,,,812,2022-01-15_10h31.50.000,multiplicationStroop,2021.2.3,Win32,60.20107158,,,,,right,1,0.6283,0,66,66,44,1,6,1,6 | 1,5,1.4111,1.9756,incongruent,right,,,,,,stimulusFile/physical.xlsx,,,,,,,,,,,,,,,,,,,,,,,,,,,,,,,
,,,,,,,,,,,,,,,812,2022-01-15_10h31.50.000,multiplicationStroop,2021.2.3,Win32,60.20107158,,,,,right,0,0.5842,0,67,67,71,1,9,9,9 | 9,0,1.4111,1.9756,neutral,left,,,,,,stimulusFile/physical.xlsx,,,,,,,,,,,,,,,,,,,,,,,,,,,,,,,
,,,,,,,,,,,,,,,812,2022-01-15_10h31.50.000,multiplicationStroop,2021.2.3,Win32,60.20107158,,,,,right,1,0.4006,0,68,68,63,1,9,9,9 | 9,0,1.4111,1.9756,neutral,right,,,,,,stimulusFile/physical.xlsx,,,,,,,,,,,,,,,,,,,,,,,,,,,,,,,
,,,,,,,,,,,,,,,812,2022-01-15_10h31.50.000,multiplicationStroop,2021.2.3,Win32,60.20107158,,,,,right,1,0.534,0,69,69,3,1,8,9,8 | 9,1,1.4111,1.9756,congruent,right,,,,,,stimulusFile/physical.xlsx,,,,,,,,,,,,,,,,,,,,,,,,,,,,,,,
,,,,,,,,,,,,,,,812,2022-01-15_10h31.50.000,multiplicationStroop,2021.2.3,Win32,60.20107158,,,,,right,1,0.389,0,70,70,38,1,8,6,8 | 6,2,1.4111,1.9756,incongruent,right,,,,,,stimulusFile/physical.xlsx,,,,,,,,,,,,,,,,,,,,,,,,,,,,,,,
,,,,,,,,,,,,,,,812,2022-01-15_10h31.50.000,multiplicationStroop,2021.2.3,Win32,60.20107158,,,,,left,1,0.4706,0,71,71,4,1,2,1,2 | 1,1,1.9756,1.4111,congruent,left,,,,,,stimulusFile/physical.xlsx,,,,,,,,,,,,,,,,,,,,,,,,,,,,,,,
,,,,,,,,,,,,,,,812,2022-01-15_10h31.50.000,multiplicationStroop,2021.2.3,Win32,60.20107158,,,,,,,,,,,,,,,,,,,,,0,1,1,1,1,stimulusFile/physical.xlsx,PHYSICALLY larger (larger font size).,images/physicallyLarger.png,,,,,,,,,,,,,,,,,,,,,,,,,,,,,
,,,,,,,,,,,,,,,812,2022-01-15_10h31.50.000,multiplicationStroop,2021.2.3,Win32,60.20107158,,,,,,,,,,,,,,,,,,,,,,,,,,,,,space,12.3515,space,2.1782,8,3.1303,1,0,0,0,9,1,2,×,4,2 × 4,congruent,smallerFirst,1,2,8,,,,,,,,
,,,,,,,,,,,,,,,812,2022-01-15_10h31.50.000,multiplicationStroop,2021.2.3,Win32,60.20107158,,,,,,,,,,,,,,,,,,,,,,,,,,,,,,,,,24,2.1987,1,0,1,1,25,1,6,×,4,6 × 4,congruent,largerFirst,2,1,24,,,,,,,,
,,,,,,,,,,,,,,,812,2022-01-15_10h31.50.000,multiplicationStroop,2021.2.3,Win32,60.20107158,,,,,,,,,,,,,,,,,,,,,,,,,,,,,,,,,32,2.0985,1,0,2,2,20,1,8,×,4,8 × 4,congruent,largerFirst,2,1,32,,,,,,,,
,,,,,,,,,,,,,,,812,2022-01-15_10h31.50.000,multiplicationStroop,2021.2.3,Win32,60.20107158,,,,,,,,,,,,,,,,,,,,,,,,,,,,,,,,,35,2.2859,1,0,3,3,1,1,5,×,7,5 × 7,congruent,smallerFirst,1,2,35,,,,,,,,
,,,,,,,,,,,,,,,812,2022-01-15_10h31.50.000,multiplicationStroop,2021.2.3,Win32,60.20107158,,,,,,,,,,,,,,,,,,,,,,,,,,,,,,,,,63,2.8488,1,0,4,4,21,1,9,×,7,9 × 7,congruent,largerFirst,2,1,63,,,,,,,,
,,,,,,,,,,,,,,,812,2022-01-15_10h31.50.000,multiplicationStroop,2021.2.3,Win32,60.20107158,,,,,,,,,,,,,,,,,,,,,,,,,,,,,,,,,48,1.9326,1,0,5,5,18,1,8,×,6,8 × 6,congruent,largerFirst,2,1,48,,,,,,,,
,,,,,,,,,,,,,,,812,2022-01-15_10h31.50.000,multiplicationStroop,2021.2.3,Win32,60.20107158,,,,,,,,,,,,,,,,,,,,,,,,,,,,,,,,,14,1.5849,0,0,6,6,4,1,3,×,5,3 × 5,congruent,smallerFirst,1,2,15,,,,,,,,
,,,,,,,,,,,,,,,812,2022-01-15_10h31.50.000,multiplicationStroop,2021.2.3,Win32,60.20107158,,,,,,,,,,,,,,,,,,,,,,,,,,,,,,,,,12,1.8844,1,0,7,7,19,1,6,×,2,6 × 2,congruent,largerFirst,2,1,12,,,,,,,,
,,,,,,,,,,,,,,,812,2022-01-15_10h31.50.000,multiplicationStroop,2021.2.3,Win32,60.20107158,,,,,,,,,,,,,,,,,,,,,,,,,,,,,,,,,42,3.2453,1,0,8,8,3,1,6,×,7,6 × 7,congruent,smallerFirst,1,2,42,,,,,,,,
,,,,,,,,,,,,,,,812,2022-01-15_10h31.50.000,multiplicationStroop,2021.2.3,Win32,60.20107158,,,,,,,,,,,,,,,,,,,,,,,,,,,,,,,,,27,1.7988,1,0,9,9,26,1,9,×,3,9 × 3,congruent,largerFirst,2,1,27,,,,,,,,
,,,,,,,,,,,,,,,812,2022-01-15_10h31.50.000,multiplicationStroop,2021.2.3,Win32,60.20107158,,,,,,,,,,,,,,,,,,,,,,,,,,,,,,,,,28,2.849,1,0,10,10,27,1,7,×,4,7 × 4,congruent,largerFirst,2,1,28,,,,,,,,
,,,,,,,,,,,,,,,812,2022-01-15_10h31.50.000,multiplicationStroop,2021.2.3,Win32,60.20107158,,,,,,,,,,,,,,,,,,,,,,,,,,,,,,,,,4,1.3355,1,0,11,11,28,1,2,×,2,2 × 2,neutral,tie,2,1,4,,,,,,,,
,,,,,,,,,,,,,,,812,2022-01-15_10h31.50.000,multiplicationStroop,2021.2.3,Win32,60.20107158,,,,,,,,,,,,,,,,,,,,,,,,,,,,,,,,,30,2.1986,1,0,12,12,15,1,6,×,5,6 × 5,congruent,largerFirst,2,1,30,,,,,,,,
,,,,,,,,,,,,,,,812,2022-01-15_10h31.50.000,multiplicationStroop,2021.2.3,Win32,60.20107158,,,,,,,,,,,,,,,,,,,,,,,,,,,,,,,,,21,1.5661,1,0,13,13,16,1,7,×,3,7 × 3,congruent,largerFirst,2,1,21,,,,,,,,
,,,,,,,,,,,,,,,812,2022-01-15_10h31.50.000,multiplicationStroop,2021.2.3,Win32,60.20107158,,,,,,,,,,,,,,,,,,,,,,,,,,,,,,,,,10,1.4863,1,0,14,14,24,1,5,×,2,5 × 2,congruent,largerFirst,2,1,10,,,,,,,,
,,,,,,,,,,,,,,,812,2022-01-15_10h31.50.000,multiplicationStroop,2021.2.3,Win32,60.20107158,,,,,,,,,,,,,,,,,,,,,,,,,,,,,,,,,18,1.516,1,0,15,15,22,1,9,×,2,9 × 2,congruent,largerFirst,2,1,18,,,,,,,,
,,,,,,,,,,,,,,,812,2022-01-15_10h31.50.000,multiplicationStroop,2021.2.3,Win32,60.20107158,,,,,,,,,,,,,,,,,,,,,,,,,,,,,,,,,49,1.8992,1,0,16,16,33,1,7,×,7,7 × 7,neutral,tie,2,1,49,,,,,,,,
,,,,,,,,,,,,,,,812,2022-01-15_10h31.50.000,multiplicationStroop,2021.2.3,Win32,60.20107158,,,,,,,,,,,,,,,,,,,,,,,,,,,,,,,,,36,1.8625,1,0,17,17,32,1,6,×,6,6 × 6,neutral,tie,2,1,36,,,,,,,,
,,,,,,,,,,,,,,,812,2022-01-15_10h31.50.000,multiplicationStroop,2021.2.3,Win32,60.20107158,,,,,,,,,,,,,,,,,,,,,,,,,,,,,,,,,12,1.4819,1,0,18,18,2,1,3,×,4,3 × 4,congruent,smallerFirst,1,2,12,,,,,,,,
,,,,,,,,,,,,,,,812,2022-01-15_10h31.50.000,multiplicationStroop,2021.2.3,Win32,60.20107158,,,,,,,,,,,,,,,,,,,,,,,,,,,,,,,,,25,1.7327,1,0,19,19,31,1,5,×,5,5 × 5,neutral,tie,2,1,25,,,,,,,,
,,,,,,,,,,,,,,,812,2022-01-15_10h31.50.000,multiplicationStroop,2021.2.3,Win32,60.20107158,,,,,,,,,,,,,,,,,,,,,,,,,,,,,,,,,56,2.0527,1,0,20,20,8,1,7,×,8,7 × 8,congruent,smallerFirst,1,2,56,,,,,,,,
,,,,,,,,,,,,,,,812,2022-01-15_10h31.50.000,multiplicationStroop,2021.2.3,Win32,60.20107158,,,,,,,,,,,,,,,,,,,,,,,,,,,,,,,,,64,2.4492,1,0,21,21,34,1,8,×,8,8 × 8,neutral,tie,2,1,64,,,,,,,,
,,,,,,,,,,,,,,,812,2022-01-15_10h31.50.000,multiplicationStroop,2021.2.3,Win32,60.20107158,,,,,,,,,,,,,,,,,,,,,,,,,,,,,,,,,6,1.8825,1,0,22,22,13,1,2,×,3,2 × 3,congruent,smallerFirst,1,2,6,,,,,,,,
,,,,,,,,,,,,,,,812,2022-01-15_10h31.50.000,multiplicationStroop,2021.2.3,Win32,60.20107158,,,,,,,,,,,,,,,,,,,,,,,,,,,,,,,,,18,1.7662,1,0,23,23,11,1,3,×,6,3 × 6,congruent,smallerFirst,1,2,18,,,,,,,,
,,,,,,,,,,,,,,,812,2022-01-15_10h31.50.000,multiplicationStroop,2021.2.3,Win32,60.20107158,,,,,,,,,,,,,,,,,,,,,,,,,,,,,,,,,9,1.5122,1,0,24,24,29,1,3,×,3,3 × 3,neutral,tie,2,1,9,,,,,,,,
,,,,,,,,,,,,,,,812,2022-01-15_10h31.50.000,multiplicationStroop,2021.2.3,Win32,60.20107158,,,,,,,,,,,,,,,,,,,,,,,,,,,,,,,,,54,1.8355,1,0,25,25,12,1,6,×,9,6 × 9,congruent,smallerFirst,1,2,54,,,,,,,,
,,,,,,,,,,,,,,,812,2022-01-15_10h31.50.000,multiplicationStroop,2021.2.3,Win32,60.20107158,,,,,,,,,,,,,,,,,,,,,,,,,,,,,,,,,24,2.3333,1,0,26,26,10,1,3,×,8,3 × 8,congruent,smallerFirst,1,2,24,,,,,,,,
,,,,,,,,,,,,,,,812,2022-01-15_10h31.50.000,multiplicationStroop,2021.2.3,Win32,60.20107158,,,,,,,,,,,,,,,,,,,,,,,,,,,,,,,,,14,1.6657,1,0,27,27,14,1,7,×,2,7 × 2,congruent,largerFirst,2,1,14,,,,,,,,
,,,,,,,,,,,,,,,812,2022-01-15_10h31.50.000,multiplicationStroop,2021.2.3,Win32,60.20107158,,,,,,,,,,,,,,,,,,,,,,,,,,,,,,,,,16,1.5322,1,0,28,28,5,1,2,×,8,2 × 8,congruent,smallerFirst,1,2,16,,,,,,,,
,,,,,,,,,,,,,,,812,2022-01-15_10h31.50.000,multiplicationStroop,2021.2.3,Win32,60.20107158,,,,,,,,,,,,,,,,,,,,,,,,,,,,,,,,,40,1.8126,1,0,29,29,6,1,5,×,8,5 × 8,congruent,smallerFirst,1,2,40,,,,,,,,
,,,,,,,,,,,,,,,812,2022-01-15_10h31.50.000,multiplicationStroop,2021.2.3,Win32,60.20107158,,,,,,,,,,,,,,,,,,,,,,,,,,,,,,,,,45,1.4826,1,0,30,30,23,1,9,×,5,9 × 5,congruent,largerFirst,2,1,45,,,,,,,,
,,,,,,,,,,,,,,,812,2022-01-15_10h31.50.000,multiplicationStroop,2021.2.3,Win32,60.20107158,,,,,,,,,,,,,,,,,,,,,,,,,,,,,,,,,36,2.0192,1,0,31,31,0,1,4,×,9,4 × 9,congruent,smallerFirst,1,2,36,,,,,,,,
,,,,,,,,,,,,,,,812,2022-01-15_10h31.50.000,multiplicationStroop,2021.2.3,Win32,60.20107158,,,,,,,,,,,,,,,,,,,,,,,,,,,,,,,,,20,3.0496,1,0,32,32,7,1,4,×,5,4 × 5,congruent,smallerFirst,1,2,20,,,,,,,,
,,,,,,,,,,,,,,,812,2022-01-15_10h31.50.000,multiplicationStroop,2021.2.3,Win32,60.20107158,,,,,,,,,,,,,,,,,,,,,,,,,,,,,,,,,72,2.2822,1,0,33,33,17,1,9,×,8,9 × 8,congruent,largerFirst,2,1,72,,,,,,,,
,,,,,,,,,,,,,,,812,2022-01-15_10h31.50.000,multiplicationStroop,2021.2.3,Win32,60.20107158,,,,,,,,,,,,,,,,,,,,,,,,,,,,,,,,,16,1.603,1,0,34,34,30,1,4,×,4,4 × 4,neutral,tie,2,1,16,,,,,,,,
,,,,,,,,,,,,,,,812,2022-01-15_10h31.50.000,multiplicationStroop,2021.2.3,Win32,60.20107158,,,,,,,,,,,,,,,,,,,,,,,,,,,,,,,,,81,1.9487,1,0,35,35,35,1,9,×,9,9 × 9,neutral,tie,2,1,81,,,,,,,,
,,,,,,,,,,,,,,,812,2022-01-15_10h31.50.000,multiplicationStroop,2021.2.3,Win32,60.20107158,,,,,,,,,,,,,,,,,,,,,,,,,,,,,,,,,,,,,,,,,,,,,,,,,,0,0,0,2,1,stimulusFile/mult_blk3_congruent.xlsx,,
,,,,,,,,,,,,,,,812,2022-01-15_10h31.50.000,multiplicationStroop,2021.2.3,Win32,60.20107158,,,,,,,,,,,,,,,,,,,,,,,,,,,,,,,space,1.3617,27,1.7666,1,0,0,0,14,1,9,×,3,9 × 3,neutral,largerFirst,1.5,1.5,27,,,,,,,,
,,,,,,,,,,,,,,,812,2022-01-15_10h31.50.000,multiplicationStroop,2021.2.3,Win32,60.20107158,,,,,,,,,,,,,,,,,,,,,,,,,,,,,,,,,56,1.5662,1,0,1,1,9,1,7,×,8,7 × 8,neutral,smallerFirst,1.5,1.5,56,,,,,,,,
,,,,,,,,,,,,,,,812,2022-01-15_10h31.50.000,multiplicationStroop,2021.2.3,Win32,60.20107158,,,,,,,,,,,,,,,,,,,,,,,,,,,,,,,,,24,1.502,1,0,2,2,2,1,4,×,6,4 × 6,neutral,smallerFirst,1.5,1.5,24,,,,,,,,
,,,,,,,,,,,,,,,812,2022-01-15_10h31.50.000,multiplicationStroop,2021.2.3,Win32,60.20107158,,,,,,,,,,,,,,,,,,,,,,,,,,,,,,,,,10,1.4288,1,0,3,3,4,1,2,×,5,2 × 5,neutral,smallerFirst,1.5,1.5,10,,,,,,,,
,,,,,,,,,,,,,,,812,2022-01-15_10h31.50.000,multiplicationStroop,2021.2.3,Win32,60.20107158,,,,,,,,,,,,,,,,,,,,,,,,,,,,,,,,,36,2.67,1,0,4,4,27,1,9,×,4,9 × 4,neutral,largerFirst,1.5,1.5,36,,,,,,,,
,,,,,,,,,,,,,,,812,2022-01-15_10h31.50.000,multiplicationStroop,2021.2.3,Win32,60.20107158,,,,,,,,,,,,,,,,,,,,,,,,,,,,,,,,,20,2.8692,1,0,5,5,20,1,5,×,4,5 × 4,neutral,largerFirst,1.5,1.5,20,,,,,,,,
,,,,,,,,,,,,,,,812,2022-01-15_10h31.50.000,multiplicationStroop,2021.2.3,Win32,60.20107158,,,,,,,,,,,,,,,,,,,,,,,,,,,,,,,,,64,1.6158,1,0,6,6,34,1,8,×,8,8 × 8,neutral,tie,1.5,1.5,64,,,,,,,,
,,,,,,,,,,,,,,,812,2022-01-15_10h31.50.000,multiplicationStroop,2021.2.3,Win32,60.20107158,,,,,,,,,,,,,,,,,,,,,,,,,,,,,,,,,21,1.7658,1,0,7,7,8,1,3,×,7,3 × 7,neutral,smallerFirst,1.5,1.5,21,,,,,,,,
,,,,,,,,,,,,,,,812,2022-01-15_10h31.50.000,multiplicationStroop,2021.2.3,Win32,60.20107158,,,,,,,,,,,,,,,,,,,,,,,,,,,,,,,,,4,1.3328,1,0,8,8,28,1,2,×,2,2 × 2,neutral,tie,1.5,1.5,4,,,,,,,,
,,,,,,,,,,,,,,,812,2022-01-15_10h31.50.000,multiplicationStroop,2021.2.3,Win32,60.20107158,,,,,,,,,,,,,,,,,,,,,,,,,,,,,,,,,48,2.2287,1,0,9,9,15,1,8,×,6,8 × 6,neutral,largerFirst,1.5,1.5,48,,,,,,,,
,,,,,,,,,,,,,,,812,2022-01-15_10h31.50.000,multiplicationStroop,2021.2.3,Win32,60.20107158,,,,,,,,,,,,,,,,,,,,,,,,,,,,,,,,,36,1.8026,1,0,10,10,32,1,6,×,6,6 × 6,neutral,tie,1.5,1.5,36,,,,,,,,
,,,,,,,,,,,,,,,812,2022-01-15_10h31.50.000,multiplicationStroop,2021.2.3,Win32,60.20107158,,,,,,,,,,,,,,,,,,,,,,,,,,,,,,,,,16,1.4158,1,0,11,11,30,1,4,×,4,4 × 4,neutral,tie,1.5,1.5,16,,,,,,,,
,,,,,,,,,,,,,,,812,2022-01-15_10h31.50.000,multiplicationStroop,2021.2.3,Win32,60.20107158,,,,,,,,,,,,,,,,,,,,,,,,,,,,,,,,,15,1.3492,1,0,12,12,5,1,3,×,5,3 × 5,neutral,smallerFirst,1.5,1.5,15,,,,,,,,
,,,,,,,,,,,,,,,812,2022-01-15_10h31.50.000,multiplicationStroop,2021.2.3,Win32,60.20107158,,,,,,,,,,,,,,,,,,,,,,,,,,,,,,,,,9,1.8493,1,0,13,13,29,1,3,×,3,3 × 3,neutral,tie,1.5,1.5,9,,,,,,,,
,,,,,,,,,,,,,,,812,2022-01-15_10h31.50.000,multiplicationStroop,2021.2.3,Win32,60.20107158,,,,,,,,,,,,,,,,,,,,,,,,,,,,,,,,,12,1.2953,1,0,14,14,21,1,4,×,3,4 × 3,neutral,largerFirst,1.5,1.5,12,,,,,,,,
,,,,,,,,,,,,,,,812,2022-01-15_10h31.50.000,multiplicationStroop,2021.2.3,Win32,60.20107158,,,,,,,,,,,,,,,,,,,,,,,,,,,,,,,,,54,2.0361,1,0,15,15,7,1,6,×,9,6 × 9,neutral,smallerFirst,1.5,1.5,54,,,,,,,,
,,,,,,,,,,,,,,,812,2022-01-15_10h31.50.000,multiplicationStroop,2021.2.3,Win32,60.20107158,,,,,,,,,,,,,,,,,,,,,,,,,,,,,,,,,42,2.8622,1,0,16,16,6,1,6,×,7,6 × 7,neutral,smallerFirst,1.5,1.5,42,,,,,,,,
,,,,,,,,,,,,,,,812,2022-01-15_10h31.50.000,multiplicationStroop,2021.2.3,Win32,60.20107158,,,,,,,,,,,,,,,,,,,,,,,,,,,,,,,,,35,2.9367,1,0,17,17,1,1,5,×,7,5 × 7,neutral,smallerFirst,1.5,1.5,35,,,,,,,,
,,,,,,,,,,,,,,,812,2022-01-15_10h31.50.000,multiplicationStroop,2021.2.3,Win32,60.20107158,,,,,,,,,,,,,,,,,,,,,,,,,,,,,,,,,6,1.5157,1,0,18,18,26,1,3,×,2,3 × 2,neutral,largerFirst,1.5,1.5,6,,,,,,,,
,,,,,,,,,,,,,,,812,2022-01-15_10h31.50.000,multiplicationStroop,2021.2.3,Win32,60.20107158,,,,,,,,,,,,,,,,,,,,,,,,,,,,,,,,,32,2.2953,1,0,19,19,23,1,8,×,4,8 × 4,neutral,largerFirst,1.5,1.5,32,,,,,,,,
,,,,,,,,,,,,,,,812,2022-01-15_10h31.50.000,multiplicationStroop,2021.2.3,Win32,60.20107158,,,,,,,,,,,,,,,,,,,,,,,,,,,,,,,,,12,1.3188,1,0,20,20,25,1,6,×,2,6 × 2,neutral,largerFirst,1.5,1.5,12,,,,,,,,
,,,,,,,,,,,,,,,812,2022-01-15_10h31.50.000,multiplicationStroop,2021.2.3,Win32,60.20107158,,,,,,,,,,,,,,,,,,,,,,,,,,,,,,,,,49,1.7825,1,0,21,21,33,1,7,×,7,7 × 7,neutral,tie,1.5,1.5,49,,,,,,,,
,,,,,,,,,,,,,,,812,2022-01-15_10h31.50.000,multiplicationStroop,2021.2.3,Win32,60.20107158,,,,,,,,,,,,,,,,,,,,,,,,,,,,,,,,,72,2.2163,1,0,22,22,11,1,8,×,9,8 × 9,neutral,smallerFirst,1.5,1.5,72,,,,,,,,
,,,,,,,,,,,,,,,812,2022-01-15_10h31.50.000,multiplicationStroop,2021.2.3,Win32,60.20107158,,,,,,,,,,,,,,,,,,,,,,,,,,,,,,,,,18,1.8797,1,0,23,23,18,1,9,×,2,9 × 2,neutral,largerFirst,1.5,1.5,18,,,,,,,,
,,,,,,,,,,,,,,,812,2022-01-15_10h31.50.000,multiplicationStroop,2021.2.3,Win32,60.20107158,,,,,,,,,,,,,,,,,,,,,,,,,,,,,,,,,28,2.0329,1,0,24,24,17,1,7,×,4,7 × 4,neutral,largerFirst,1.5,1.5,28,,,,,,,,
,,,,,,,,,,,,,,,812,2022-01-15_10h31.50.000,multiplicationStroop,2021.2.3,Win32,60.20107158,,,,,,,,,,,,,,,,,,,,,,,,,,,,,,,,,81,2.516,1,0,25,25,35,1,9,×,9,9 × 9,neutral,tie,1.5,1.5,81,,,,,,,,
,,,,,,,,,,,,,,,812,2022-01-15_10h31.50.000,multiplicationStroop,2021.2.3,Win32,60.20107158,,,,,,,,,,,,,,,,,,,,,,,,,,,,,,,,,45,2.2826,1,0,26,26,10,1,5,×,9,5 × 9,neutral,smallerFirst,1.5,1.5,45,,,,,,,,
,,,,,,,,,,,,,,,812,2022-01-15_10h31.50.000,multiplicationStroop,2021.2.3,Win32,60.20107158,,,,,,,,,,,,,,,,,,,,,,,,,,,,,,,,,30,1.7993,1,0,27,27,19,1,6,×,5,6 × 5,neutral,largerFirst,1.5,1.5,30,,,,,,,,
,,,,,,,,,,,,,,,812,2022-01-15_10h31.50.000,multiplicationStroop,2021.2.3,Win32,60.20107158,,,,,,,,,,,,,,,,,,,,,,,,,,,,,,,,,24,1.8186,1,0,28,28,22,1,8,×,3,8 × 3,neutral,largerFirst,1.5,1.5,24,,,,,,,,
,,,,,,,,,,,,,,,812,2022-01-15_10h31.50.000,multiplicationStroop,2021.2.3,Win32,60.20107158,,,,,,,,,,,,,,,,,,,,,,,,,,,,,,,,,16,1.7499,1,0,29,29,13,1,2,×,8,2 × 8,neutral,smallerFirst,1.5,1.5,16,,,,,,,,
,,,,,,,,,,,,,,,812,2022-01-15_10h31.50.000,multiplicationStroop,2021.2.3,Win32,60.20107158,,,,,,,,,,,,,,,,,,,,,,,,,,,,,,,,,40,1.7996,1,0,30,30,24,1,8,×,5,8 × 5,neutral,largerFirst,1.5,1.5,40,,,,,,,,
,,,,,,,,,,,,,,,812,2022-01-15_10h31.50.000,multiplicationStroop,2021.2.3,Win32,60.20107158,,,,,,,,,,,,,,,,,,,,,,,,,,,,,,,,,25,1.8491,1,0,31,31,31,1,5,×,5,5 × 5,neutral,tie,1.5,1.5,25,,,,,,,,
,,,,,,,,,,,,,,,812,2022-01-15_10h31.50.000,multiplicationStroop,2021.2.3,Win32,60.20107158,,,,,,,,,,,,,,,,,,,,,,,,,,,,,,,,,18,1.9162,1,0,32,32,0,1,3,×,6,3 × 6,neutral,smallerFirst,1.5,1.5,18,,,,,,,,
,,,,,,,,,,,,,,,812,2022-01-15_10h31.50.000,multiplicationStroop,2021.2.3,Win32,60.20107158,,,,,,,,,,,,,,,,,,,,,,,,,,,,,,,,,14,1.6164,1,0,33,33,16,1,7,×,2,7 × 2,neutral,largerFirst,1.5,1.5,14,,,,,,,,
,,,,,,,,,,,,,,,812,2022-01-15_10h31.50.000,multiplicationStroop,2021.2.3,Win32,60.20107158,,,,,,,,,,,,,,,,,,,,,,,,,,,,,,,,,8,1.5826,1,0,34,34,3,1,2,×,4,2 × 4,neutral,smallerFirst,1.5,1.5,8,,,,,,,,
,,,,,,,,,,,,,,,812,2022-01-15_10h31.50.000,multiplicationStroop,2021.2.3,Win32,60.20107158,,,,,,,,,,,,,,,,,,,,,,,,,,,,,,,,,63,2.8495,1,0,35,35,12,1,7,×,9,7 × 9,neutral,smallerFirst,1.5,1.5,63,,,,,,,,
,,,,,,,,,,,,,,,812,2022-01-15_10h31.50.000,multiplicationStroop,2021.2.3,Win32,60.20107158,,,,,,,,,,,,,,,,,,,,,,,,,,,,,,,,,,,,,,,,,,,,,,,,,,0,1,1,1,1,stimulusFile/mult_blk2.xlsx,,
,,,,,,,,,,,,,,,812,2022-01-15_10h31.50.000,multiplicationStroop,2021.2.3,Win32,60.20107158,,,,,,,,,,,,,,,,,,,,,,,,,,,,,,,space,1.3073,32,2.4336,1,0,0,0,7,1,4,×,8,4 × 8,incongruent,smallerFirst,2,1,32,,,,,,,,
,,,,,,,,,,,,,,,812,2022-01-15_10h31.50.000,multiplicationStroop,2021.2.3,Win32,60.20107158,,,,,,,,,,,,,,,,,,,,,,,,,,,,,,,,,45,1.6173,1,0,1,1,22,1,9,×,5,9 × 5,incongruent,largerFirst,1,2,45,,,,,,,,
,,,,,,,,,,,,,,,812,2022-01-15_10h31.50.000,multiplicationStroop,2021.2.3,Win32,60.20107158,,,,,,,,,,,,,,,,,,,,,,,,,,,,,,,,,42,2.9829,1,0,2,2,17,1,7,×,6,7 × 6,incongruent,largerFirst,1,2,42,,,,,,,,
,,,,,,,,,,,,,,,812,2022-01-15_10h31.50.000,multiplicationStroop,2021.2.3,Win32,60.20107158,,,,,,,,,,,,,,,,,,,,,,,,,,,,,,,,,24,1.506,1,0,3,3,9,1,3,×,8,3 × 8,incongruent,smallerFirst,2,1,24,,,,,,,,
,,,,,,,,,,,,,,,812,2022-01-15_10h31.50.000,multiplicationStroop,2021.2.3,Win32,60.20107158,,,,,,,,,,,,,,,,,,,,,,,,,,,,,,,,,24,2.3837,1,0,4,4,20,1,6,×,4,6 × 4,incongruent,largerFirst,1,2,24,,,,,,,,
,,,,,,,,,,,,,,,812,2022-01-15_10h31.50.000,multiplicationStroop,2021.2.3,Win32,60.20107158,,,,,,,,,,,,,,,,,,,,,,,,,,,,,,,,,63,4.4289,1,0,5,5,3,1,7,×,9,7 × 9,incongruent,smallerFirst,2,1,63,,,,,,,,
,,,,,,,,,,,,,,,812,2022-01-15_10h31.50.000,multiplicationStroop,2021.2.3,Win32,60.20107158,,,,,,,,,,,,,,,,,,,,,,,,,,,,,,,,,32,13.9214,0,0,6,6,15,1,9,×,4,9 × 4,incongruent,largerFirst,1,2,36,,,,,,,,
,,,,,,,,,,,,,,,812,2022-01-15_10h31.50.000,multiplicationStroop,2021.2.3,Win32,60.20107158,,,,,,,,,,,,,,,,,,,,,,,,,,,,,,,,,45,1.6817,0,0,7,7,27,1,5,×,4,5 × 4,incongruent,largerFirst,1,2,20,,,,,,,,
,,,,,,,,,,,,,,,812,2022-01-15_10h31.50.000,multiplicationStroop,2021.2.3,Win32,60.20107158,,,,,,,,,,,,,,,,,,,,,,,,,,,,,,,,,18,1.7338,1,0,8,8,8,1,3,×,6,3 × 6,incongruent,smallerFirst,2,1,18,,,,,,,,
,,,,,,,,,,,,,,,812,2022-01-15_10h31.50.000,multiplicationStroop,2021.2.3,Win32,60.20107158,,,,,,,,,,,,,,,,,,,,,,,,,,,,,,,,,12,1.3454,1,0,9,9,5,1,3,×,4,3 × 4,incongruent,smallerFirst,2,1,12,,,,,,,,
,,,,,,,,,,,,,,,812,2022-01-15_10h31.50.000,multiplicationStroop,2021.2.3,Win32,60.20107158,,,,,,,,,,,,,,,,,,,,,,,,,,,,,,,,,16,1.5026,1,0,10,10,23,1,8,×,2,8 × 2,incongruent,largerFirst,1,2,16,,,,,,,,
,,,,,,,,,,,,,,,812,2022-01-15_10h31.50.000,multiplicationStroop,2021.2.3,Win32,60.20107158,,,,,,,,,,,,,,,,,,,,,,,,,,,,,,,,,81,1.8163,1,0,11,11,35,1,9,×,9,9 × 9,incongruent,tie,1,2,81,,,,,,,,
,,,,,,,,,,,,,,,812,2022-01-15_10h31.50.000,multiplicationStroop,2021.2.3,Win32,60.20107158,,,,,,,,,,,,,,,,,,,,,,,,,,,,,,,,,28,1.9122,1,0,12,12,16,1,7,×,4,7 × 4,incongruent,largerFirst,1,2,28,,,,,,,,
,,,,,,,,,,,,,,,812,2022-01-15_10h31.50.000,multiplicationStroop,2021.2.3,Win32,60.20107158,,,,,,,,,,,,,,,,,,,,,,,,,,,,,,,,,36,2.1691,1,0,13,13,32,1,6,×,6,6 × 6,incongruent,tie,1,2,36,,,,,,,,
,,,,,,,,,,,,,,,812,2022-01-15_10h31.50.000,multiplicationStroop,2021.2.3,Win32,60.20107158,,,,,,,,,,,,,,,,,,,,,,,,,,,,,,,,,4,1.3544,1,0,14,14,28,1,2,×,2,2 × 2,incongruent,tie,1,2,4,,,,,,,,
,,,,,,,,,,,,,,,812,2022-01-15_10h31.50.000,multiplicationStroop,2021.2.3,Win32,60.20107158,,,,,,,,,,,,,,,,,,,,,,,,,,,,,,,,,64,1.8775,1,0,15,15,34,1,8,×,8,8 × 8,incongruent,tie,1,2,64,,,,,,,,
,,,,,,,,,,,,,,,812,2022-01-15_10h31.50.000,multiplicationStroop,2021.2.3,Win32,60.20107158,,,,,,,,,,,,,,,,,,,,,,,,,,,,,,,,,35,3.5003,1,0,16,16,12,1,5,×,7,5 × 7,incongruent,smallerFirst,2,1,35,,,,,,,,
,,,,,,,,,,,,,,,812,2022-01-15_10h31.50.000,multiplicationStroop,2021.2.3,Win32,60.20107158,,,,,,,,,,,,,,,,,,,,,,,,,,,,,,,,,49,1.8871,1,0,17,17,33,1,7,×,7,7 × 7,incongruent,tie,1,2,49,,,,,,,,
,,,,,,,,,,,,,,,812,2022-01-15_10h31.50.000,multiplicationStroop,2021.2.3,Win32,60.20107158,,,,,,,,,,,,,,,,,,,,,,,,,,,,,,,,,30,1.7163,1,0,18,18,25,1,6,×,5,6 × 5,incongruent,largerFirst,1,2,30,,,,,,,,
,,,,,,,,,,,,,,,812,2022-01-15_10h31.50.000,multiplicationStroop,2021.2.3,Win32,60.20107158,,,,,,,,,,,,,,,,,,,,,,,,,,,,,,,,,16,3.0682,1,0,19,19,30,1,4,×,4,4 × 4,incongruent,tie,1,2,16,,,,,,,,
,,,,,,,,,,,,,,,812,2022-01-15_10h31.50.000,multiplicationStroop,2021.2.3,Win32,60.20107158,,,,,,,,,,,,,,,,,,,,,,,,,,,,,,,,,8,1.5495,1,0,20,20,24,1,4,×,2,4 × 2,incongruent,largerFirst,1,2,8,,,,,,,,
,,,,,,,,,,,,,,,812,2022-01-15_10h31.50.000,multiplicationStroop,2021.2.3,Win32,60.20107158,,,,,,,,,,,,,,,,,,,,,,,,,,,,,,,,,6,1.7668,1,0,21,21,11,1,2,×,3,2 × 3,incongruent,smallerFirst,2,1,6,,,,,,,,
,,,,,,,,,,,,,,,812,2022-01-15_10h31.50.000,multiplicationStroop,2021.2.3,Win32,60.20107158,,,,,,,,,,,,,,,,,,,,,,,,,,,,,,,,,12,1.449,1,0,22,22,19,1,6,×,2,6 × 2,incongruent,largerFirst,1,2,12,,,,,,,,
,,,,,,,,,,,,,,,812,2022-01-15_10h31.50.000,multiplicationStroop,2021.2.3,Win32,60.20107158,,,,,,,,,,,,,,,,,,,,,,,,,,,,,,,,,21,1.6668,1,0,23,23,26,1,7,×,3,7 × 3,incongruent,largerFirst,1,2,21,,,,,,,,
,,,,,,,,,,,,,,,812,2022-01-15_10h31.50.000,multiplicationStroop,2021.2.3,Win32,60.20107158,,,,,,,,,,,,,,,,,,,,,,,,,,,,,,,,,14,1.5656,1,0,24,24,4,1,2,×,7,2 × 7,incongruent,smallerFirst,2,1,14,,,,,,,,
,,,,,,,,,,,,,,,812,2022-01-15_10h31.50.000,multiplicationStroop,2021.2.3,Win32,60.20107158,,,,,,,,,,,,,,,,,,,,,,,,,,,,,,,,,15,1.5661,1,0,25,25,10,1,3,×,5,3 × 5,incongruent,smallerFirst,2,1,15,,,,,,,,
,,,,,,,,,,,,,,,812,2022-01-15_10h31.50.000,multiplicationStroop,2021.2.3,Win32,60.20107158,,,,,,,,,,,,,,,,,,,,,,,,,,,,,,,,,72,4.8668,1,0,26,26,0,1,8,×,9,8 × 9,incongruent,smallerFirst,2,1,72,,,,,,,,
,,,,,,,,,,,,,,,812,2022-01-15_10h31.50.000,multiplicationStroop,2021.2.3,Win32,60.20107158,,,,,,,,,,,,,,,,,,,,,,,,,,,,,,,,,40,1.9141,1,0,27,27,13,1,5,×,8,5 × 8,incongruent,smallerFirst,2,1,40,,,,,,,,
,,,,,,,,,,,,,,,812,2022-01-15_10h31.50.000,multiplicationStroop,2021.2.3,Win32,60.20107158,,,,,,,,,,,,,,,,,,,,,,,,,,,,,,,,,54,1.7025,1,0,28,28,6,1,6,×,9,6 × 9,incongruent,smallerFirst,2,1,54,,,,,,,,
,,,,,,,,,,,,,,,812,2022-01-15_10h31.50.000,multiplicationStroop,2021.2.3,Win32,60.20107158,,,,,,,,,,,,,,,,,,,,,,,,,,,,,,,,,9,1.6331,1,0,29,29,29,1,3,×,3,3 × 3,incongruent,tie,1,2,9,,,,,,,,
,,,,,,,,,,,,,,,812,2022-01-15_10h31.50.000,multiplicationStroop,2021.2.3,Win32,60.20107158,,,,,,,,,,,,,,,,,,,,,,,,,,,,,,,,,56,2.4996,1,0,30,30,14,1,8,×,7,8 × 7,incongruent,largerFirst,1,2,56,,,,,,,,
,,,,,,,,,,,,,,,812,2022-01-15_10h31.50.000,multiplicationStroop,2021.2.3,Win32,60.20107158,,,,,,,,,,,,,,,,,,,,,,,,,,,,,,,,,10,1.5661,1,0,31,31,21,1,5,×,2,5 × 2,incongruent,largerFirst,1,2,10,,,,,,,,
,,,,,,,,,,,,,,,812,2022-01-15_10h31.50.000,multiplicationStroop,2021.2.3,Win32,60.20107158,,,,,,,,,,,,,,,,,,,,,,,,,,,,,,,,,18,1.7322,1,0,32,32,2,1,2,×,9,2 × 9,incongruent,smallerFirst,2,1,18,,,,,,,,
,,,,,,,,,,,,,,,812,2022-01-15_10h31.50.000,multiplicationStroop,2021.2.3,Win32,60.20107158,,,,,,,,,,,,,,,,,,,,,,,,,,,,,,,,,48,1.9667,1,0,33,33,1,1,6,×,8,6 × 8,incongruent,smallerFirst,2,1,48,,,,,,,,
,,,,,,,,,,,,,,,812,2022-01-15_10h31.50.000,multiplicationStroop,2021.2.3,Win32,60.20107158,,,,,,,,,,,,,,,,,,,,,,,,,,,,,,,,,27,1.8991,1,0,34,34,18,1,9,×,3,9 × 3,incongruent,largerFirst,1,2,27,,,,,,,,
,,,,,,,,,,,,,,,812,2022-01-15_10h31.50.000,multiplicationStroop,2021.2.3,Win32,60.20107158,,,,,,,,,,,,,,,,,,,,,,,,,,,,,,,,,25,1.8997,1,0,35,35,31,1,5,×,5,5 × 5,incongruent,tie,1,2,25,,,,,,,,
,,,,,,,,,,,,,,,812,2022-01-15_10h31.50.000,multiplicationStroop,2021.2.3,Win32,60.20107158,,,,,,,,,,,,,,,,,,,,,,,,,,,,,,,,,,,,,,,,,,,,,,,,,,0,2,2,5,1,stimulusFile/mult_blk6_INcongruent.xlsx,,
,,,,,,,,,,,,,,,812,2022-01-15_10h31.50.000,multiplicationStroop,2021.2.3,Win32,60.20107158,,,,,,,,,,,,,,,,,,,,,,,,,,,,,,,space,19.5844,14,1.4941,1,0,0,0,2,1,2,×,7,2 × 7,neutral,smallerFirst,1.5,1.5,14,,,,,,,,
,,,,,,,,,,,,,,,812,2022-01-15_10h31.50.000,multiplicationStroop,2021.2.3,Win32,60.20107158,,,,,,,,,,,,,,,,,,,,,,,,,,,,,,,,,4,1.3309,1,0,1,1,28,1,2,×,2,2 × 2,neutral,tie,1.5,1.5,4,,,,,,,,
,,,,,,,,,,,,,,,812,2022-01-15_10h31.50.000,multiplicationStroop,2021.2.3,Win32,60.20107158,,,,,,,,,,,,,,,,,,,,,,,,,,,,,,,,,54,7.5527,1,0,2,2,21,1,9,×,6,9 × 6,neutral,largerFirst,1.5,1.5,54,,,,,,,,
,,,,,,,,,,,,,,,812,2022-01-15_10h31.50.000,multiplicationStroop,2021.2.3,Win32,60.20107158,,,,,,,,,,,,,,,,,,,,,,,,,,,,,,,,,24,1.8846,1,0,3,3,8,1,3,×,8,3 × 8,neutral,smallerFirst,1.5,1.5,24,,,,,,,,
,,,,,,,,,,,,,,,812,2022-01-15_10h31.50.000,multiplicationStroop,2021.2.3,Win32,60.20107158,,,,,,,,,,,,,,,,,,,,,,,,,,,,,,,,,16,2.0287,1,0,4,4,30,1,4,×,4,4 × 4,neutral,tie,1.5,1.5,16,,,,,,,,
,,,,,,,,,,,,,,,812,2022-01-15_10h31.50.000,multiplicationStroop,2021.2.3,Win32,60.20107158,,,,,,,,,,,,,,,,,,,,,,,,,,,,,,,,,48,1.9828,1,0,5,5,1,1,6,×,8,6 × 8,neutral,smallerFirst,1.5,1.5,48,,,,,,,,
,,,,,,,,,,,,,,,812,2022-01-15_10h31.50.000,multiplicationStroop,2021.2.3,Win32,60.20107158,,,,,,,,,,,,,,,,,,,,,,,,,,,,,,,,,72,2.8528,1,0,6,6,25,1,9,×,8,9 × 8,neutral,largerFirst,1.5,1.5,72,,,,,,,,
,,,,,,,,,,,,,,,812,2022-01-15_10h31.50.000,multiplicationStroop,2021.2.3,Win32,60.20107158,,,,,,,,,,,,,,,,,,,,,,,,,,,,,,,,,18,1.5496,1,0,7,7,14,1,6,×,3,6 × 3,neutral,largerFirst,1.5,1.5,18,,,,,,,,
,,,,,,,,,,,,,,,812,2022-01-15_10h31.50.000,multiplicationStroop,2021.2.3,Win32,60.20107158,,,,,,,,,,,,,,,,,,,,,,,,,,,,,,,,,45,1.4621,1,0,8,8,24,1,9,×,5,9 × 5,neutral,largerFirst,1.5,1.5,45,,,,,,,,
,,,,,,,,,,,,,,,812,2022-01-15_10h31.50.000,multiplicationStroop,2021.2.3,Win32,60.20107158,,,,,,,,,,,,,,,,,,,,,,,,,,,,,,,,,36,2.1861,1,0,9,9,13,1,4,×,9,4 × 9,neutral,smallerFirst,1.5,1.5,36,,,,,,,,
,,,,,,,,,,,,,,,812,2022-01-15_10h31.50.000,multiplicationStroop,2021.2.3,Win32,60.20107158,,,,,,,,,,,,,,,,,,,,,,,,,,,,,,,,,,0.2328,0,0,10,10,19,1,5,×,3,5 × 3,neutral,largerFirst,1.5,1.5,15,,,,,,,,
,,,,,,,,,,,,,,,812,2022-01-15_10h31.50.000,multiplicationStroop,2021.2.3,Win32,60.20107158,,,,,,,,,,,,,,,,,,,,,,,,,,,,,,,,,30,1.8157,1,0,11,11,5,1,5,×,6,5 × 6,neutral,smallerFirst,1.5,1.5,30,,,,,,,,
,,,,,,,,,,,,,,,812,2022-01-15_10h31.50.000,multiplicationStroop,2021.2.3,Win32,60.20107158,,,,,,,,,,,,,,,,,,,,,,,,,,,,,,,,,16,1.497,1,0,12,12,27,1,8,×,2,8 × 2,neutral,largerFirst,1.5,1.5,16,,,,,,,,
,,,,,,,,,,,,,,,812,2022-01-15_10h31.50.000,multiplicationStroop,2021.2.3,Win32,60.20107158,,,,,,,,,,,,,,,,,,,,,,,,,,,,,,,,,27,1.8979,1,0,13,13,0,1,3,×,9,3 × 9,neutral,smallerFirst,1.5,1.5,27,,,,,,,,
,,,,,,,,,,,,,,,812,2022-01-15_10h31.50.000,multiplicationStroop,2021.2.3,Win32,60.20107158,,,,,,,,,,,,,,,,,,,,,,,,,,,,,,,,,12,1.8194,1,0,14,14,11,1,2,×,6,2 × 6,neutral,smallerFirst,1.5,1.5,12,,,,,,,,
,,,,,,,,,,,,,,,812,2022-01-15_10h31.50.000,multiplicationStroop,2021.2.3,Win32,60.20107158,,,,,,,,,,,,,,,,,,,,,,,,,,,,,,,,,20,1.9115,1,0,15,15,6,1,4,×,5,4 × 5,neutral,smallerFirst,1.5,1.5,20,,,,,,,,
,,,,,,,,,,,,,,,812,2022-01-15_10h31.50.000,multiplicationStroop,2021.2.3,Win32,60.20107158,,,,,,,,,,,,,,,,,,,,,,,,,,,,,,,,,49,1.9494,1,0,16,16,33,1,7,×,7,7 × 7,neutral,tie,1.5,1.5,49,,,,,,,,
,,,,,,,,,,,,,,,812,2022-01-15_10h31.50.000,multiplicationStroop,2021.2.3,Win32,60.20107158,,,,,,,,,,,,,,,,,,,,,,,,,,,,,,,,,42,2.9526,1,0,17,17,20,1,7,×,6,7 × 6,neutral,largerFirst,1.5,1.5,42,,,,,,,,
,,,,,,,,,,,,,,,812,2022-01-15_10h31.50.000,multiplicationStroop,2021.2.3,Win32,60.20107158,,,,,,,,,,,,,,,,,,,,,,,,,,,,,,,,,12,1.2322,1,0,18,18,7,1,3,×,4,3 × 4,neutral,smallerFirst,1.5,1.5,12,,,,,,,,
,,,,,,,,,,,,,,,812,2022-01-15_10h31.50.000,multiplicationStroop,2021.2.3,Win32,60.20107158,,,,,,,,,,,,,,,,,,,,,,,,,,,,,,,,,32,1.884,1,0,19,19,9,1,4,×,8,4 × 8,neutral,smallerFirst,1.5,1.5,32,,,,,,,,
,,,,,,,,,,,,,,,812,2022-01-15_10h31.50.000,multiplicationStroop,2021.2.3,Win32,60.20107158,,,,,,,,,,,,,,,,,,,,,,,,,,,,,,,,,21,1.5518,1,0,20,20,22,1,7,×,3,7 × 3,neutral,largerFirst,1.5,1.5,21,,,,,,,,
,,,,,,,,,,,,,,,812,2022-01-15_10h31.50.000,multiplicationStroop,2021.2.3,Win32,60.20107158,,,,,,,,,,,,,,,,,,,,,,,,,,,,,,,,,24,1.4992,1,0,21,21,16,1,6,×,4,6 × 4,neutral,largerFirst,1.5,1.5,24,,,,,,,,
,,,,,,,,,,,,,,,812,2022-01-15_10h31.50.000,multiplicationStroop,2021.2.3,Win32,60.20107158,,,,,,,,,,,,,,,,,,,,,,,,,,,,,,,,,56,2.1319,1,0,22,22,23,1,8,×,7,8 × 7,neutral,largerFirst,1.5,1.5,56,,,,,,,,
,,,,,,,,,,,,,,,812,2022-01-15_10h31.50.000,multiplicationStroop,2021.2.3,Win32,60.20107158,,,,,,,,,,,,,,,,,,,,,,,,,,,,,,,,,63,2.2995,1,0,23,23,26,1,9,×,7,9 × 7,neutral,largerFirst,1.5,1.5,63,,,,,,,,
,,,,,,,,,,,,,,,812,2022-01-15_10h31.50.000,multiplicationStroop,2021.2.3,Win32,60.20107158,,,,,,,,,,,,,,,,,,,,,,,,,,,,,,,,,10,1.6832,1,0,24,24,18,1,5,×,2,5 × 2,neutral,largerFirst,1.5,1.5,10,,,,,,,,
,,,,,,,,,,,,,,,812,2022-01-15_10h31.50.000,multiplicationStroop,2021.2.3,Win32,60.20107158,,,,,,,,,,,,,,,,,,,,,,,,,,,,,,,,,18,2.2493,1,0,25,25,4,1,2,×,9,2 × 9,neutral,smallerFirst,1.5,1.5,18,,,,,,,,
,,,,,,,,,,,,,,,812,2022-01-15_10h31.50.000,multiplicationStroop,2021.2.3,Win32,60.20107158,,,,,,,,,,,,,,,,,,,,,,,,,,,,,,,,,8,1.6329,1,0,26,26,17,1,4,×,2,4 × 2,neutral,largerFirst,1.5,1.5,8,,,,,,,,
,,,,,,,,,,,,,,,812,2022-01-15_10h31.50.000,multiplicationStroop,2021.2.3,Win32,60.20107158,,,,,,,,,,,,,,,,,,,,,,,,,,,,,,,,,9,1.7324,1,0,27,27,29,1,3,×,3,3 × 3,neutral,tie,1.5,1.5,9,,,,,,,,
,,,,,,,,,,,,,,,812,2022-01-15_10h31.50.000,multiplicationStroop,2021.2.3,Win32,60.20107158,,,,,,,,,,,,,,,,,,,,,,,,,,,,,,,,,25,1.5999,1,0,28,28,31,1,5,×,5,5 × 5,neutral,tie,1.5,1.5,25,,,,,,,,
,,,,,,,,,,,,,,,812,2022-01-15_10h31.50.000,multiplicationStroop,2021.2.3,Win32,60.20107158,,,,,,,,,,,,,,,,,,,,,,,,,,,,,,,,,36,1.7673,1,0,29,29,32,1,6,×,6,6 × 6,neutral,tie,1.5,1.5,36,,,,,,,,
,,,,,,,,,,,,,,,812,2022-01-15_10h31.50.000,multiplicationStroop,2021.2.3,Win32,60.20107158,,,,,,,,,,,,,,,,,,,,,,,,,,,,,,,,,40,1.7483,1,0,30,30,10,1,5,×,8,5 × 8,neutral,smallerFirst,1.5,1.5,40,,,,,,,,
,,,,,,,,,,,,,,,812,2022-01-15_10h31.50.000,multiplicationStroop,2021.2.3,Win32,60.20107158,,,,,,,,,,,,,,,,,,,,,,,,,,,,,,,,,28,2.999,1,0,31,31,3,1,4,×,7,4 × 7,neutral,smallerFirst,1.5,1.5,28,,,,,,,,
,,,,,,,,,,,,,,,812,2022-01-15_10h31.50.000,multiplicationStroop,2021.2.3,Win32,60.20107158,,,,,,,,,,,,,,,,,,,,,,,,,,,,,,,,,6,1.7652,1,0,32,32,12,1,2,×,3,2 × 3,neutral,smallerFirst,1.5,1.5,6,,,,,,,,
,,,,,,,,,,,,,,,812,2022-01-15_10h31.50.000,multiplicationStroop,2021.2.3,Win32,60.20107158,,,,,,,,,,,,,,,,,,,,,,,,,,,,,,,,,35,1.7021,1,0,33,33,15,1,7,×,5,7 × 5,neutral,largerFirst,1.5,1.5,35,,,,,,,,
,,,,,,,,,,,,,,,812,2022-01-15_10h31.50.000,multiplicationStroop,2021.2.3,Win32,60.20107158,,,,,,,,,,,,,,,,,,,,,,,,,,,,,,,,,64,2.7958,1,0,34,34,34,1,8,×,8,8 × 8,neutral,tie,1.5,1.5,64,,,,,,,,
,,,,,,,,,,,,,,,812,2022-01-15_10h31.50.000,multiplicationStroop,2021.2.3,Win32,60.20107158,,,,,,,,,,,,,,,,,,,,,,,,,,,,,,,,,81,2.0227,1,0,35,35,35,1,9,×,9,9 × 9,neutral,tie,1.5,1.5,81,,,,,,,,
,,,,,,,,,,,,,,,812,2022-01-15_10h31.50.000,multiplicationStroop,2021.2.3,Win32,60.20107158,,,,,,,,,,,,,,,,,,,,,,,,,,,,,,,,,,,,,,,,,,,,,,,,,,0,3,3,0,1,stimulusFile/mult_blk1.xlsx,,
,,,,,,,,,,,,,,,812,2022-01-15_10h31.50.000,multiplicationStroop,2021.2.3,Win32,60.20107158,,,,,,,,,,,,,,,,,,,,,,,,,,,,,,,space,2.4506,20,1.744,1,0,0,0,21,1,5,×,4,5 × 4,congruent,largerFirst,2,1,20,,,,,,,,
,,,,,,,,,,,,,,,812,2022-01-15_10h31.50.000,multiplicationStroop,2021.2.3,Win32,60.20107158,,,,,,,,,,,,,,,,,,,,,,,,,,,,,,,,,16,1.6856,1,0,1,1,19,1,8,×,2,8 × 2,congruent,largerFirst,2,1,16,,,,,,,,
,,,,,,,,,,,,,,,812,2022-01-15_10h31.50.000,multiplicationStroop,2021.2.3,Win32,60.20107158,,,,,,,,,,,,,,,,,,,,,,,,,,,,,,,,,27,2.167,1,0,2,2,12,1,3,×,9,3 × 9,congruent,smallerFirst,1,2,27,,,,,,,,
,,,,,,,,,,,,,,,812,2022-01-15_10h31.50.000,multiplicationStroop,2021.2.3,Win32,60.20107158,,,,,,,,,,,,,,,,,,,,,,,,,,,,,,,,,42,1.9948,1,0,3,3,17,1,7,×,6,7 × 6,congruent,largerFirst,2,1,42,,,,,,,,
,,,,,,,,,,,,,,,812,2022-01-15_10h31.50.000,multiplicationStroop,2021.2.3,Win32,60.20107158,,,,,,,,,,,,,,,,,,,,,,,,,,,,,,,,,21,1.4026,1,0,4,4,2,1,3,×,7,3 × 7,congruent,smallerFirst,1,2,21,,,,,,,,
,,,,,,,,,,,,,,,812,2022-01-15_10h31.50.000,multiplicationStroop,2021.2.3,Win32,60.20107158,,,,,,,,,,,,,,,,,,,,,,,,,,,,,,,,,63,2.3159,1,0,5,5,7,1,7,×,9,7 × 9,congruent,smallerFirst,1,2,63,,,,,,,,
,,,,,,,,,,,,,,,812,2022-01-15_10h31.50.000,multiplicationStroop,2021.2.3,Win32,60.20107158,,,,,,,,,,,,,,,,,,,,,,,,,,,,,,,,,45,1.4164,1,0,6,6,9,1,5,×,9,5 × 9,congruent,smallerFirst,1,2,45,,,,,,,,
,,,,,,,,,,,,,,,812,2022-01-15_10h31.50.000,multiplicationStroop,2021.2.3,Win32,60.20107158,,,,,,,,,,,,,,,,,,,,,,,,,,,,,,,,,14,2.2817,1,0,7,7,0,1,2,×,7,2 × 7,congruent,smallerFirst,1,2,14,,,,,,,,
,,,,,,,,,,,,,,,812,2022-01-15_10h31.50.000,multiplicationStroop,2021.2.3,Win32,60.20107158,,,,,,,,,,,,,,,,,,,,,,,,,,,,,,,,,12,2.3523,1,0,8,8,5,1,2,×,6,2 × 6,congruent,smallerFirst,1,2,12,,,,,,,,
,,,,,,,,,,,,,,,812,2022-01-15_10h31.50.000,multiplicationStroop,2021.2.3,Win32,60.20107158,,,,,,,,,,,,,,,,,,,,,,,,,,,,,,,,,25,1.7656,1,0,9,9,31,1,5,×,5,5 × 5,neutral,tie,1,2,25,,,,,,,,
,,,,,,,,,,,,,,,812,2022-01-15_10h31.50.000,multiplicationStroop,2021.2.3,Win32,60.20107158,,,,,,,,,,,,,,,,,,,,,,,,,,,,,,,,,49,2.0695,1,0,10,10,33,1,7,×,7,7 × 7,neutral,tie,1,2,49,,,,,,,,
,,,,,,,,,,,,,,,812,2022-01-15_10h31.50.000,multiplicationStroop,2021.2.3,Win32,60.20107158,,,,,,,,,,,,,,,,,,,,,,,,,,,,,,,,,18,1.5822,1,0,11,11,8,1,2,×,9,2 × 9,congruent,smallerFirst,1,2,18,,,,,,,,
,,,,,,,,,,,,,,,812,2022-01-15_10h31.50.000,multiplicationStroop,2021.2.3,Win32,60.20107158,,,,,,,,,,,,,,,,,,,,,,,,,,,,,,,,,30,1.6496,1,0,12,12,1,1,5,×,6,5 × 6,congruent,smallerFirst,1,2,30,,,,,,,,
,,,,,,,,,,,,,,,812,2022-01-15_10h31.50.000,multiplicationStroop,2021.2.3,Win32,60.20107158,,,,,,,,,,,,,,,,,,,,,,,,,,,,,,,,,1,1.516,0,0,13,13,10,1,2,×,5,2 × 5,congruent,smallerFirst,1,2,10,,,,,,,,
,,,,,,,,,,,,,,,812,2022-01-15_10h31.50.000,multiplicationStroop,2021.2.3,Win32,60.20107158,,,,,,,,,,,,,,,,,,,,,,,,,,,,,,,,,40,2.5289,1,0,14,14,20,1,8,×,5,8 × 5,congruent,largerFirst,2,1,40,,,,,,,,
,,,,,,,,,,,,,,,812,2022-01-15_10h31.50.000,multiplicationStroop,2021.2.3,Win32,60.20107158,,,,,,,,,,,,,,,,,,,,,,,,,,,,,,,,,18,1.6861,1,0,15,15,25,1,6,×,3,6 × 3,congruent,largerFirst,2,1,18,,,,,,,,
,,,,,,,,,,,,,,,812,2022-01-15_10h31.50.000,multiplicationStroop,2021.2.3,Win32,60.20107158,,,,,,,,,,,,,,,,,,,,,,,,,,,,,,,,,32,1.7619,1,0,16,16,6,1,4,×,8,4 × 8,congruent,smallerFirst,1,2,32,,,,,,,,
,,,,,,,,,,,,,,,812,2022-01-15_10h31.50.000,multiplicationStroop,2021.2.3,Win32,60.20107158,,,,,,,,,,,,,,,,,,,,,,,,,,,,,,,,,35,2.0199,1,0,17,17,15,1,7,×,5,7 × 5,congruent,largerFirst,2,1,35,,,,,,,,
,,,,,,,,,,,,,,,812,2022-01-15_10h31.50.000,multiplicationStroop,2021.2.3,Win32,60.20107158,,,,,,,,,,,,,,,,,,,,,,,,,,,,,,,,,54,1.5152,1,0,18,18,26,1,9,×,6,9 × 6,congruent,largerFirst,2,1,54,,,,,,,,
,,,,,,,,,,,,,,,812,2022-01-15_10h31.50.000,multiplicationStroop,2021.2.3,Win32,60.20107158,,,,,,,,,,,,,,,,,,,,,,,,,,,,,,,,,72,1.8122,1,0,19,19,3,1,8,×,9,8 × 9,congruent,smallerFirst,1,2,72,,,,,,,,
,,,,,,,,,,,,,,,812,2022-01-15_10h31.50.000,multiplicationStroop,2021.2.3,Win32,60.20107158,,,,,,,,,,,,,,,,,,,,,,,,,,,,,,,,,8,1.4663,1,0,20,20,23,1,4,×,2,4 × 2,congruent,largerFirst,2,1,8,,,,,,,,
,,,,,,,,,,,,,,,812,2022-01-15_10h31.50.000,multiplicationStroop,2021.2.3,Win32,60.20107158,,,,,,,,,,,,,,,,,,,,,,,,,,,,,,,,,24,1.6686,1,0,21,21,24,1,8,×,3,8 × 3,congruent,largerFirst,2,1,24,,,,,,,,
,,,,,,,,,,,,,,,812,2022-01-15_10h31.50.000,multiplicationStroop,2021.2.3,Win32,60.20107158,,,,,,,,,,,,,,,,,,,,,,,,,,,,,,,,,81,1.7463,1,0,22,22,35,1,9,×,9,9 × 9,neutral,tie,1,2,81,,,,,,,,
,,,,,,,,,,,,,,,812,2022-01-15_10h31.50.000,multiplicationStroop,2021.2.3,Win32,60.20107158,,,,,,,,,,,,,,,,,,,,,,,,,,,,,,,,,24,1.5487,1,0,23,23,11,1,4,×,6,4 × 6,congruent,smallerFirst,1,2,24,,,,,,,,
,,,,,,,,,,,,,,,812,2022-01-15_10h31.50.000,multiplicationStroop,2021.2.3,Win32,60.20107158,,,,,,,,,,,,,,,,,,,,,,,,,,,,,,,,,47,1.7986,0,0,24,24,4,1,6,×,8,6 × 8,congruent,smallerFirst,1,2,48,,,,,,,,
,,,,,,,,,,,,,,,812,2022-01-15_10h31.50.000,multiplicationStroop,2021.2.3,Win32,60.20107158,,,,,,,,,,,,,,,,,,,,,,,,,,,,,,,,,9,1.7863,1,0,25,25,29,1,3,×,3,3 × 3,neutral,tie,1,2,9,,,,,,,,
,,,,,,,,,,,,,,,812,2022-01-15_10h31.50.000,multiplicationStroop,2021.2.3,Win32,60.20107158,,,,,,,,,,,,,,,,,,,,,,,,,,,,,,,,,16,2.1639,1,0,26,26,30,1,4,×,4,4 × 4,neutral,tie,1,2,16,,,,,,,,
,,,,,,,,,,,,,,,812,2022-01-15_10h31.50.000,multiplicationStroop,2021.2.3,Win32,60.20107158,,,,,,,,,,,,,,,,,,,,,,,,,,,,,,,,,6,1.4884,1,0,27,27,27,1,3,×,2,3 × 2,congruent,largerFirst,2,1,6,,,,,,,,
,,,,,,,,,,,,,,,812,2022-01-15_10h31.50.000,multiplicationStroop,2021.2.3,Win32,60.20107158,,,,,,,,,,,,,,,,,,,,,,,,,,,,,,,,,15,1.3966,1,0,28,28,18,1,5,×,3,5 × 3,congruent,largerFirst,2,1,15,,,,,,,,
,,,,,,,,,,,,,,,812,2022-01-15_10h31.50.000,multiplicationStroop,2021.2.3,Win32,60.20107158,,,,,,,,,,,,,,,,,,,,,,,,,,,,,,,,,64,1.6645,1,0,29,29,34,1,8,×,8,8 × 8,neutral,tie,1,2,64,,,,,,,,
,,,,,,,,,,,,,,,812,2022-01-15_10h31.50.000,multiplicationStroop,2021.2.3,Win32,60.20107158,,,,,,,,,,,,,,,,,,,,,,,,,,,,,,,,,12,1.7661,1,0,30,30,16,1,4,×,3,4 × 3,congruent,largerFirst,2,1,12,,,,,,,,
,,,,,,,,,,,,,,,812,2022-01-15_10h31.50.000,multiplicationStroop,2021.2.3,Win32,60.20107158,,,,,,,,,,,,,,,,,,,,,,,,,,,,,,,,,4,1.5652,1,0,31,31,28,1,2,×,2,2 × 2,neutral,tie,1,2,4,,,,,,,,
,,,,,,,,,,,,,,,812,2022-01-15_10h31.50.000,multiplicationStroop,2021.2.3,Win32,60.20107158,,,,,,,,,,,,,,,,,,,,,,,,,,,,,,,,,28,1.9323,1,0,32,32,13,1,4,×,7,4 × 7,congruent,smallerFirst,1,2,28,,,,,,,,
,,,,,,,,,,,,,,,812,2022-01-15_10h31.50.000,multiplicationStroop,2021.2.3,Win32,60.20107158,,,,,,,,,,,,,,,,,,,,,,,,,,,,,,,,,36,2.0154,1,0,33,33,32,1,6,×,6,6 × 6,neutral,tie,1,2,36,,,,,,,,
,,,,,,,,,,,,,,,812,2022-01-15_10h31.50.000,multiplicationStroop,2021.2.3,Win32,60.20107158,,,,,,,,,,,,,,,,,,,,,,,,,,,,,,,,,36,3.5157,1,0,34,34,14,1,9,×,4,9 × 4,congruent,largerFirst,2,1,36,,,,,,,,
,,,,,,,,,,,,,,,812,2022-01-15_10h31.50.000,multiplicationStroop,2021.2.3,Win32,60.20107158,,,,,,,,,,,,,,,,,,,,,,,,,,,,,,,,,56,1.9031,1,0,35,35,22,1,8,×,7,8 × 7,congruent,largerFirst,2,1,56,,,,,,,,
,,,,,,,,,,,,,,,812,2022-01-15_10h31.50.000,multiplicationStroop,2021.2.3,Win32,60.20107158,,,,,,,,,,,,,,,,,,,,,,,,,,,,,,,,,,,,,,,,,,,,,,,,,,0,4,4,3,1,stimulusFile/mult_blk4_congruent.xlsx,,
,,,,,,,,,,,,,,,812,2022-01-15_10h31.50.000,multiplicationStroop,2021.2.3,Win32,60.20107158,,,,,,,,,,,,,,,,,,,,,,,,,,,,,,,space,1.0841,10,1.4611,1,0,0,0,7,1,2,×,5,2 × 5,incongruent,smallerFirst,2,1,10,,,,,,,,
,,,,,,,,,,,,,,,812,2022-01-15_10h31.50.000,multiplicationStroop,2021.2.3,Win32,60.20107158,,,,,,,,,,,,,,,,,,,,,,,,,,,,,,,,,6,1.5289,1,0,1,1,25,1,3,×,2,3 × 2,incongruent,largerFirst,1,2,6,,,,,,,,
,,,,,,,,,,,,,,,812,2022-01-15_10h31.50.000,multiplicationStroop,2021.2.3,Win32,60.20107158,,,,,,,,,,,,,,,,,,,,,,,,,,,,,,,,,3,1.8356,0,0,2,2,21,1,8,×,4,8 × 4,incongruent,largerFirst,1,2,32,,,,,,,,
,,,,,,,,,,,,,,,812,2022-01-15_10h31.50.000,multiplicationStroop,2021.2.3,Win32,60.20107158,,,,,,,,,,,,,,,,,,,,,,,,,,,,,,,,,20,1.8789,1,0,3,3,13,1,4,×,5,4 × 5,incongruent,smallerFirst,2,1,20,,,,,,,,
,,,,,,,,,,,,,,,812,2022-01-15_10h31.50.000,multiplicationStroop,2021.2.3,Win32,60.20107158,,,,,,,,,,,,,,,,,,,,,,,,,,,,,,,,,48,2.4317,1,0,4,4,15,1,8,×,6,8 × 6,incongruent,largerFirst,1,2,48,,,,,,,,
,,,,,,,,,,,,,,,812,2022-01-15_10h31.50.000,multiplicationStroop,2021.2.3,Win32,60.20107158,,,,,,,,,,,,,,,,,,,,,,,,,,,,,,,,,35,2.1191,1,0,5,5,26,1,7,×,5,7 × 5,incongruent,largerFirst,1,2,35,,,,,,,,
,,,,,,,,,,,,,,,812,2022-01-15_10h31.50.000,multiplicationStroop,2021.2.3,Win32,60.20107158,,,,,,,,,,,,,,,,,,,,,,,,,,,,,,,,,28,1.8954,1,0,6,6,2,1,4,×,7,4 × 7,incongruent,smallerFirst,2,1,28,,,,,,,,
,,,,,,,,,,,,,,,812,2022-01-15_10h31.50.000,multiplicationStroop,2021.2.3,Win32,60.20107158,,,,,,,,,,,,,,,,,,,,,,,,,,,,,,,,,81,3.8328,1,0,7,7,35,1,9,×,9,9 × 9,neutral,tie,2,1,81,,,,,,,,
,,,,,,,,,,,,,,,812,2022-01-15_10h31.50.000,multiplicationStroop,2021.2.3,Win32,60.20107158,,,,,,,,,,,,,,,,,,,,,,,,,,,,,,,,,24,2.2227,1,0,8,8,23,1,8,×,3,8 × 3,incongruent,largerFirst,1,2,24,,,,,,,,
,,,,,,,,,,,,,,,812,2022-01-15_10h31.50.000,multiplicationStroop,2021.2.3,Win32,60.20107158,,,,,,,,,,,,,,,,,,,,,,,,,,,,,,,,,12,2.2495,1,0,9,9,5,1,2,×,6,2 × 6,incongruent,smallerFirst,2,1,12,,,,,,,,
,,,,,,,,,,,,,,,812,2022-01-15_10h31.50.000,multiplicationStroop,2021.2.3,Win32,60.20107158,,,,,,,,,,,,,,,,,,,,,,,,,,,,,,,,,36,1.7829,1,0,10,10,32,1,6,×,6,6 × 6,neutral,tie,2,1,36,,,,,,,,
,,,,,,,,,,,,,,,812,2022-01-15_10h31.50.000,multiplicationStroop,2021.2.3,Win32,60.20107158,,,,,,,,,,,,,,,,,,,,,,,,,,,,,,,,,25,2.6451,1,0,11,11,31,1,5,×,5,5 × 5,neutral,tie,2,1,25,,,,,,,,
,,,,,,,,,,,,,,,812,2022-01-15_10h31.50.000,multiplicationStroop,2021.2.3,Win32,60.20107158,,,,,,,,,,,,,,,,,,,,,,,,,,,,,,,,,72,1.8189,1,0,12,12,14,1,9,×,8,9 × 8,incongruent,largerFirst,1,2,72,,,,,,,,
,,,,,,,,,,,,,,,812,2022-01-15_10h31.50.000,multiplicationStroop,2021.2.3,Win32,60.20107158,,,,,,,,,,,,,,,,,,,,,,,,,,,,,,,,,24,1.3977,1,0,13,13,6,1,4,×,6,4 × 6,incongruent,smallerFirst,2,1,24,,,,,,,,
,,,,,,,,,,,,,,,812,2022-01-15_10h31.50.000,multiplicationStroop,2021.2.3,Win32,60.20107158,,,,,,,,,,,,,,,,,,,,,,,,,,,,,,,,,12,1.2154,1,0,14,14,19,1,4,×,3,4 × 3,incongruent,largerFirst,1,2,12,,,,,,,,
,,,,,,,,,,,,,,,812,2022-01-15_10h31.50.000,multiplicationStroop,2021.2.3,Win32,60.20107158,,,,,,,,,,,,,,,,,,,,,,,,,,,,,,,,,40,1.7322,1,0,15,15,27,1,8,×,5,8 × 5,incongruent,largerFirst,1,2,40,,,,,,,,
,,,,,,,,,,,,,,,812,2022-01-15_10h31.50.000,multiplicationStroop,2021.2.3,Win32,60.20107158,,,,,,,,,,,,,,,,,,,,,,,,,,,,,,,,,18,1.4984,1,0,16,16,16,1,9,×,2,9 × 2,incongruent,largerFirst,1,2,18,,,,,,,,
,,,,,,,,,,,,,,,812,2022-01-15_10h31.50.000,multiplicationStroop,2021.2.3,Win32,60.20107158,,,,,,,,,,,,,,,,,,,,,,,,,,,,,,,,,4,1.1996,1,0,17,17,28,1,2,×,2,2 × 2,neutral,tie,2,1,4,,,,,,,,
,,,,,,,,,,,,,,,812,2022-01-15_10h31.50.000,multiplicationStroop,2021.2.3,Win32,60.20107158,,,,,,,,,,,,,,,,,,,,,,,,,,,,,,,,,56,2.2978,1,0,18,18,0,1,7,×,8,7 × 8,incongruent,smallerFirst,2,1,56,,,,,,,,
,,,,,,,,,,,,,,,812,2022-01-15_10h31.50.000,multiplicationStroop,2021.2.3,Win32,60.20107158,,,,,,,,,,,,,,,,,,,,,,,,,,,,,,,,,16,2.0023,1,0,19,19,30,1,4,×,4,4 × 4,neutral,tie,2,1,16,,,,,,,,
,,,,,,,,,,,,,,,812,2022-01-15_10h31.50.000,multiplicationStroop,2021.2.3,Win32,60.20107158,,,,,,,,,,,,,,,,,,,,,,,,,,,,,,,,,54,1.4789,1,0,20,20,20,1,9,×,6,9 × 6,incongruent,largerFirst,1,2,54,,,,,,,,
,,,,,,,,,,,,,,,812,2022-01-15_10h31.50.000,multiplicationStroop,2021.2.3,Win32,60.20107158,,,,,,,,,,,,,,,,,,,,,,,,,,,,,,,,,42,5.5488,1,0,21,21,3,1,6,×,7,6 × 7,incongruent,smallerFirst,2,1,42,,,,,,,,
,,,,,,,,,,,,,,,812,2022-01-15_10h31.50.000,multiplicationStroop,2021.2.3,Win32,60.20107158,,,,,,,,,,,,,,,,,,,,,,,,,,,,,,,,,8,1.4856,1,0,22,22,10,1,2,×,4,2 × 4,incongruent,smallerFirst,2,1,8,,,,,,,,
,,,,,,,,,,,,,,,812,2022-01-15_10h31.50.000,multiplicationStroop,2021.2.3,Win32,60.20107158,,,,,,,,,,,,,,,,,,,,,,,,,,,,,,,,,27,2.7653,1,0,23,23,4,1,3,×,9,3 × 9,incongruent,smallerFirst,2,1,27,,,,,,,,
,,,,,,,,,,,,,,,812,2022-01-15_10h31.50.000,multiplicationStroop,2021.2.3,Win32,60.20107158,,,,,,,,,,,,,,,,,,,,,,,,,,,,,,,,,63,2.52,1,0,24,24,17,1,9,×,7,9 × 7,incongruent,largerFirst,1,2,63,,,,,,,,
,,,,,,,,,,,,,,,812,2022-01-15_10h31.50.000,multiplicationStroop,2021.2.3,Win32,60.20107158,,,,,,,,,,,,,,,,,,,,,,,,,,,,,,,,,14,1.9822,1,0,25,25,18,1,7,×,2,7 × 2,incongruent,largerFirst,1,2,14,,,,,,,,
,,,,,,,,,,,,,,,812,2022-01-15_10h31.50.000,multiplicationStroop,2021.2.3,Win32,60.20107158,,,,,,,,,,,,,,,,,,,,,,,,,,,,,,,,,45,1.4032,1,0,26,26,8,1,5,×,9,5 × 9,incongruent,smallerFirst,2,1,45,,,,,,,,
,,,,,,,,,,,,,,,812,2022-01-15_10h31.50.000,multiplicationStroop,2021.2.3,Win32,60.20107158,,,,,,,,,,,,,,,,,,,,,,,,,,,,,,,,,21,1.4454,1,0,27,27,12,1,3,×,7,3 × 7,incongruent,smallerFirst,2,1,21,,,,,,,,
,,,,,,,,,,,,,,,812,2022-01-15_10h31.50.000,multiplicationStroop,2021.2.3,Win32,60.20107158,,,,,,,,,,,,,,,,,,,,,,,,,,,,,,,,,64,2.769,1,0,28,28,34,1,8,×,8,8 × 8,neutral,tie,2,1,64,,,,,,,,
,,,,,,,,,,,,,,,812,2022-01-15_10h31.50.000,multiplicationStroop,2021.2.3,Win32,60.20107158,,,,,,,,,,,,,,,,,,,,,,,,,,,,,,,,,30,2.0831,1,0,29,29,11,1,5,×,6,5 × 6,incongruent,smallerFirst,2,1,30,,,,,,,,
,,,,,,,,,,,,,,,812,2022-01-15_10h31.50.000,multiplicationStroop,2021.2.3,Win32,60.20107158,,,,,,,,,,,,,,,,,,,,,,,,,,,,,,,,,18,1.5988,1,0,30,30,22,1,6,×,3,6 × 3,incongruent,largerFirst,1,2,18,,,,,,,,
,,,,,,,,,,,,,,,812,2022-01-15_10h31.50.000,multiplicationStroop,2021.2.3,Win32,60.20107158,,,,,,,,,,,,,,,,,,,,,,,,,,,,,,,,,49,1.8162,1,0,31,31,33,1,7,×,7,7 × 7,neutral,tie,2,1,49,,,,,,,,
,,,,,,,,,,,,,,,812,2022-01-15_10h31.50.000,multiplicationStroop,2021.2.3,Win32,60.20107158,,,,,,,,,,,,,,,,,,,,,,,,,,,,,,,,,9,1.8498,1,0,32,32,29,1,3,×,3,3 × 3,neutral,tie,2,1,9,,,,,,,,
,,,,,,,,,,,,,,,812,2022-01-15_10h31.50.000,multiplicationStroop,2021.2.3,Win32,60.20107158,,,,,,,,,,,,,,,,,,,,,,,,,,,,,,,,,16,1.5323,1,0,33,33,9,1,2,×,8,2 × 8,incongruent,smallerFirst,2,1,16,,,,,,,,
,,,,,,,,,,,,,,,812,2022-01-15_10h31.50.000,multiplicationStroop,2021.2.3,Win32,60.20107158,,,,,,,,,,,,,,,,,,,,,,,,,,,,,,,,,15,1.4831,1,0,34,34,24,1,5,×,3,5 × 3,incongruent,largerFirst,1,2,15,,,,,,,,
,,,,,,,,,,,,,,,812,2022-01-15_10h31.50.000,multiplicationStroop,2021.2.3,Win32,60.20107158,,,,,,,,,,,,,,,,,,,,,,,,,,,,,,,,,36,2.8787,1,0,35,35,1,1,4,×,9,4 × 9,incongruent,smallerFirst,2,1,36,,,,,,,,
,,,,,,,,,,,,,,,812,2022-01-15_10h31.50.000,multiplicationStroop,2021.2.3,Win32,60.20107158,,,,,,,,,,,,,,,,,,,,,,,,,,,,,,,,,,,,,,,,,,,,,,,,,,0,5,5,4,1,stimulusFile/mult_blk5_INcongruent.xlsx,,
,,,,,,,,,,,,,,,812,2022-01-15_10h31.50.000,multiplicationStroop,2021.2.3,Win32,60.20107158,,,,,,,,,,,,,,,,,,,,,,,,,,,,,,,,,,,,,,,,,,,,,,,,,,,,,,,,space,6.2053