welcomeKey_resp.keys,welcomeKey_resp.rt,X Scale,Y Scale,rt_resp_4.keys,rt_resp_4.corr,rt_resp_4.rt,speedtest_2.thisRepN,speedtest_2.thisTrialN,speedtest_2.thisN,speedtest_2.thisIndex,speedtest_2.ran,numberSc,posX,positionLayout,participant,date,expName,psychopyVersion,OS,frameRate,ct_instrresp.keys,ct_instrresp.rt,key_resp_2.keys,key_resp_2.rt,ct_keyResp.keys,ct_keyResp.corr,ct_keyResp.rt,trials.thisRepN,trials.thisTrialN,trials.thisN,trials.thisIndex,trials.ran,leftNo,rightNo,displayProblem,numDistance,leftNo_size,rightNo_size,Dims,keyAnswer,TS_Loop.thisRepN,TS_Loop.thisTrialN,TS_Loop.thisN,TS_Loop.thisIndex,TS_Loop.ran,Condition,ActionInst,instrImage,mltptaskInst_resp.keys,mltptaskInst_resp.rt,continue_resp_2.keys,continue_resp_2.rt,multp_Answer,multi_RT,multiplyCorr,LoopingMultiply.thisRepN,LoopingMultiply.thisTrialN,LoopingMultiply.thisN,LoopingMultiply.thisIndex,LoopingMultiply.ran,factor1,multiplySign,factor2,multliplyProblem,physicalSize,orderOperand,sizeF1,sizeF2,mult_answer,trials_stroop.thisRepN,trials_stroop.thisTrialN,trials_stroop.thisN,trials_stroop.thisIndex,trials_stroop.ran,multiplicationFile,esckey_resp_2.keys,esckey_resp_2.rt
y,18.8189,45.4,45.1,left,1,0.896,0,0,0,5,1,7,-200,left,813,2022-01-15_21h23.43.133,multiplicationStroop,2021.2.3,Win32,60.01680471,,,,,,,,,,,,,,,,,,,,,,,,,,,,,,,,,,,,,,,,,,,,,,,,,,,,,,,,,
,,,,right,1,0.6529,0,1,1,13,1,7,200,right,813,2022-01-15_21h23.43.133,multiplicationStroop,2021.2.3,Win32,60.01680471,,,,,,,,,,,,,,,,,,,,,,,,,,,,,,,,,,,,,,,,,,,,,,,,,,,,,,,,,
,,,,right,1,0.5865,0,2,2,8,1,1,200,right,813,2022-01-15_21h23.43.133,multiplicationStroop,2021.2.3,Win32,60.01680471,,,,,,,,,,,,,,,,,,,,,,,,,,,,,,,,,,,,,,,,,,,,,,,,,,,,,,,,,
,,,,left,1,0.515,0,3,3,2,1,3,-200,left,813,2022-01-15_21h23.43.133,multiplicationStroop,2021.2.3,Win32,60.01680471,,,,,,,,,,,,,,,,,,,,,,,,,,,,,,,,,,,,,,,,,,,,,,,,,,,,,,,,,
,,,,right,1,0.4062,0,4,4,9,1,2,200,right,813,2022-01-15_21h23.43.133,multiplicationStroop,2021.2.3,Win32,60.01680471,,,,,,,,,,,,,,,,,,,,,,,,,,,,,,,,,,,,,,,,,,,,,,,,,,,,,,,,,
,,,,right,1,0.5006,0,5,5,14,1,8,200,right,813,2022-01-15_21h23.43.133,multiplicationStroop,2021.2.3,Win32,60.01680471,,,,,,,,,,,,,,,,,,,,,,,,,,,,,,,,,,,,,,,,,,,,,,,,,,,,,,,,,
,,,,left,1,0.5679,0,6,6,0,1,1,-200,left,813,2022-01-15_21h23.43.133,multiplicationStroop,2021.2.3,Win32,60.01680471,,,,,,,,,,,,,,,,,,,,,,,,,,,,,,,,,,,,,,,,,,,,,,,,,,,,,,,,,
,,,,right,1,0.4335,0,7,7,11,1,4,200,right,813,2022-01-15_21h23.43.133,multiplicationStroop,2021.2.3,Win32,60.01680471,,,,,,,,,,,,,,,,,,,,,,,,,,,,,,,,,,,,,,,,,,,,,,,,,,,,,,,,,
,,,,left,1,0.4178,0,8,8,1,1,2,-200,left,813,2022-01-15_21h23.43.133,multiplicationStroop,2021.2.3,Win32,60.01680471,,,,,,,,,,,,,,,,,,,,,,,,,,,,,,,,,,,,,,,,,,,,,,,,,,,,,,,,,
,,,,left,1,0.4167,0,9,9,7,1,9,-200,left,813,2022-01-15_21h23.43.133,multiplicationStroop,2021.2.3,Win32,60.01680471,,,,,,,,,,,,,,,,,,,,,,,,,,,,,,,,,,,,,,,,,,,,,,,,,,,,,,,,,
,,,,right,1,0.4032,0,10,10,15,1,9,200,right,813,2022-01-15_21h23.43.133,multiplicationStroop,2021.2.3,Win32,60.01680471,,,,,,,,,,,,,,,,,,,,,,,,,,,,,,,,,,,,,,,,,,,,,,,,,,,,,,,,,
,,,,right,1,0.3553,0,11,11,12,1,6,200,right,813,2022-01-15_21h23.43.133,multiplicationStroop,2021.2.3,Win32,60.01680471,,,,,,,,,,,,,,,,,,,,,,,,,,,,,,,,,,,,,,,,,,,,,,,,,,,,,,,,,
,,,,right,1,0.3337,0,12,12,10,1,3,200,right,813,2022-01-15_21h23.43.133,multiplicationStroop,2021.2.3,Win32,60.01680471,,,,,,,,,,,,,,,,,,,,,,,,,,,,,,,,,,,,,,,,,,,,,,,,,,,,,,,,,
,,,,left,1,0.4666,0,13,13,3,1,4,-200,left,813,2022-01-15_21h23.43.133,multiplicationStroop,2021.2.3,Win32,60.01680471,,,,,,,,,,,,,,,,,,,,,,,,,,,,,,,,,,,,,,,,,,,,,,,,,,,,,,,,,
,,,,left,1,0.351,0,14,14,6,1,8,-200,left,813,2022-01-15_21h23.43.133,multiplicationStroop,2021.2.3,Win32,60.01680471,,,,,,,,,,,,,,,,,,,,,,,,,,,,,,,,,,,,,,,,,,,,,,,,,,,,,,,,,
,,,,left,1,0.3331,0,15,15,4,1,6,-200,left,813,2022-01-15_21h23.43.133,multiplicationStroop,2021.2.3,Win32,60.01680471,,,,,,,,,,,,,,,,,,,,,,,,,,,,,,,,,,,,,,,,,,,,,,,,,,,,,,,,,
,,,,left,1,0.3339,1,0,16,1,1,2,-200,left,813,2022-01-15_21h23.43.133,multiplicationStroop,2021.2.3,Win32,60.01680471,,,,,,,,,,,,,,,,,,,,,,,,,,,,,,,,,,,,,,,,,,,,,,,,,,,,,,,,,
,,,,right,1,0.4256,1,1,17,10,1,3,200,right,813,2022-01-15_21h23.43.133,multiplicationStroop,2021.2.3,Win32,60.01680471,,,,,,,,,,,,,,,,,,,,,,,,,,,,,,,,,,,,,,,,,,,,,,,,,,,,,,,,,
,,,,left,1,0.3339,1,2,18,7,1,9,-200,left,813,2022-01-15_21h23.43.133,multiplicationStroop,2021.2.3,Win32,60.01680471,,,,,,,,,,,,,,,,,,,,,,,,,,,,,,,,,,,,,,,,,,,,,,,,,,,,,,,,,
,,,,right,1,0.3513,1,3,19,8,1,1,200,right,813,2022-01-15_21h23.43.133,multiplicationStroop,2021.2.3,Win32,60.01680471,,,,,,,,,,,,,,,,,,,,,,,,,,,,,,,,,,,,,,,,,,,,,,,,,,,,,,,,,
,,,,left,1,0.3689,1,4,20,4,1,6,-200,left,813,2022-01-15_21h23.43.133,multiplicationStroop,2021.2.3,Win32,60.01680471,,,,,,,,,,,,,,,,,,,,,,,,,,,,,,,,,,,,,,,,,,,,,,,,,,,,,,,,,
,,,,right,1,0.3534,1,5,21,12,1,6,200,right,813,2022-01-15_21h23.43.133,multiplicationStroop,2021.2.3,Win32,60.01680471,,,,,,,,,,,,,,,,,,,,,,,,,,,,,,,,,,,,,,,,,,,,,,,,,,,,,,,,,
,,,,left,1,0.3842,1,6,22,3,1,4,-200,left,813,2022-01-15_21h23.43.133,multiplicationStroop,2021.2.3,Win32,60.01680471,,,,,,,,,,,,,,,,,,,,,,,,,,,,,,,,,,,,,,,,,,,,,,,,,,,,,,,,,
,,,,right,1,0.3546,1,7,23,13,1,7,200,right,813,2022-01-15_21h23.43.133,multiplicationStroop,2021.2.3,Win32,60.01680471,,,,,,,,,,,,,,,,,,,,,,,,,,,,,,,,,,,,,,,,,,,,,,,,,,,,,,,,,
,,,,right,1,0.4563,1,8,24,15,1,9,200,right,813,2022-01-15_21h23.43.133,multiplicationStroop,2021.2.3,Win32,60.01680471,,,,,,,,,,,,,,,,,,,,,,,,,,,,,,,,,,,,,,,,,,,,,,,,,,,,,,,,,
,,,,right,1,0.3343,1,9,25,14,1,8,200,right,813,2022-01-15_21h23.43.133,multiplicationStroop,2021.2.3,Win32,60.01680471,,,,,,,,,,,,,,,,,,,,,,,,,,,,,,,,,,,,,,,,,,,,,,,,,,,,,,,,,
,,,,right,1,0.3505,1,10,26,11,1,4,200,right,813,2022-01-15_21h23.43.133,multiplicationStroop,2021.2.3,Win32,60.01680471,,,,,,,,,,,,,,,,,,,,,,,,,,,,,,,,,,,,,,,,,,,,,,,,,,,,,,,,,
,,,,right,1,0.333,1,11,27,9,1,2,200,right,813,2022-01-15_21h23.43.133,multiplicationStroop,2021.2.3,Win32,60.01680471,,,,,,,,,,,,,,,,,,,,,,,,,,,,,,,,,,,,,,,,,,,,,,,,,,,,,,,,,
,,,,left,1,0.4238,1,12,28,6,1,8,-200,left,813,2022-01-15_21h23.43.133,multiplicationStroop,2021.2.3,Win32,60.01680471,,,,,,,,,,,,,,,,,,,,,,,,,,,,,,,,,,,,,,,,,,,,,,,,,,,,,,,,,
,,,,left,1,0.3676,1,13,29,2,1,3,-200,left,813,2022-01-15_21h23.43.133,multiplicationStroop,2021.2.3,Win32,60.01680471,,,,,,,,,,,,,,,,,,,,,,,,,,,,,,,,,,,,,,,,,,,,,,,,,,,,,,,,,
,,,,left,1,0.3218,1,14,30,5,1,7,-200,left,813,2022-01-15_21h23.43.133,multiplicationStroop,2021.2.3,Win32,60.01680471,,,,,,,,,,,,,,,,,,,,,,,,,,,,,,,,,,,,,,,,,,,,,,,,,,,,,,,,,
,,,,left,1,0.3548,1,15,31,0,1,1,-200,left,813,2022-01-15_21h23.43.133,multiplicationStroop,2021.2.3,Win32,60.01680471,,,,,,,,,,,,,,,,,,,,,,,,,,,,,,,,,,,,,,,,,,,,,,,,,,,,,,,,,
,,,,right,1,0.4833,2,0,32,8,1,1,200,right,813,2022-01-15_21h23.43.133,multiplicationStroop,2021.2.3,Win32,60.01680471,,,,,,,,,,,,,,,,,,,,,,,,,,,,,,,,,,,,,,,,,,,,,,,,,,,,,,,,,
,,,,right,1,0.3338,2,1,33,9,1,2,200,right,813,2022-01-15_21h23.43.133,multiplicationStroop,2021.2.3,Win32,60.01680471,,,,,,,,,,,,,,,,,,,,,,,,,,,,,,,,,,,,,,,,,,,,,,,,,,,,,,,,,
,,,,right,1,0.3495,2,2,34,14,1,8,200,right,813,2022-01-15_21h23.43.133,multiplicationStroop,2021.2.3,Win32,60.01680471,,,,,,,,,,,,,,,,,,,,,,,,,,,,,,,,,,,,,,,,,,,,,,,,,,,,,,,,,
,,,,right,1,0.3345,2,3,35,13,1,7,200,right,813,2022-01-15_21h23.43.133,multiplicationStroop,2021.2.3,Win32,60.01680471,,,,,,,,,,,,,,,,,,,,,,,,,,,,,,,,,,,,,,,,,,,,,,,,,,,,,,,,,
,,,,right,1,0.3837,2,4,36,15,1,9,200,right,813,2022-01-15_21h23.43.133,multiplicationStroop,2021.2.3,Win32,60.01680471,,,,,,,,,,,,,,,,,,,,,,,,,,,,,,,,,,,,,,,,,,,,,,,,,,,,,,,,,
,,,,right,0,0.2699,2,5,37,0,1,1,-200,left,813,2022-01-15_21h23.43.133,multiplicationStroop,2021.2.3,Win32,60.01680471,,,,,,,,,,,,,,,,,,,,,,,,,,,,,,,,,,,,,,,,,,,,,,,,,,,,,,,,,
,,,,left,1,0.2188,2,6,38,1,1,2,-200,left,813,2022-01-15_21h23.43.133,multiplicationStroop,2021.2.3,Win32,60.01680471,,,,,,,,,,,,,,,,,,,,,,,,,,,,,,,,,,,,,,,,,,,,,,,,,,,,,,,,,
,,,,left,1,0.3171,2,7,39,3,1,4,-200,left,813,2022-01-15_21h23.43.133,multiplicationStroop,2021.2.3,Win32,60.01680471,,,,,,,,,,,,,,,,,,,,,,,,,,,,,,,,,,,,,,,,,,,,,,,,,,,,,,,,,
,,,,right,1,0.5004,2,8,40,12,1,6,200,right,813,2022-01-15_21h23.43.133,multiplicationStroop,2021.2.3,Win32,60.01680471,,,,,,,,,,,,,,,,,,,,,,,,,,,,,,,,,,,,,,,,,,,,,,,,,,,,,,,,,
,,,,right,1,0.3513,2,9,41,11,1,4,200,right,813,2022-01-15_21h23.43.133,multiplicationStroop,2021.2.3,Win32,60.01680471,,,,,,,,,,,,,,,,,,,,,,,,,,,,,,,,,,,,,,,,,,,,,,,,,,,,,,,,,
,,,,left,1,0.4014,2,10,42,7,1,9,-200,left,813,2022-01-15_21h23.43.133,multiplicationStroop,2021.2.3,Win32,60.01680471,,,,,,,,,,,,,,,,,,,,,,,,,,,,,,,,,,,,,,,,,,,,,,,,,,,,,,,,,
,,,,right,1,0.3847,2,11,43,10,1,3,200,right,813,2022-01-15_21h23.43.133,multiplicationStroop,2021.2.3,Win32,60.01680471,,,,,,,,,,,,,,,,,,,,,,,,,,,,,,,,,,,,,,,,,,,,,,,,,,,,,,,,,
,,,,left,1,0.3401,2,12,44,4,1,6,-200,left,813,2022-01-15_21h23.43.133,multiplicationStroop,2021.2.3,Win32,60.01680471,,,,,,,,,,,,,,,,,,,,,,,,,,,,,,,,,,,,,,,,,,,,,,,,,,,,,,,,,
,,,,left,1,0.4513,2,13,45,5,1,7,-200,left,813,2022-01-15_21h23.43.133,multiplicationStroop,2021.2.3,Win32,60.01680471,,,,,,,,,,,,,,,,,,,,,,,,,,,,,,,,,,,,,,,,,,,,,,,,,,,,,,,,,
,,,,left,1,0.3507,2,14,46,2,1,3,-200,left,813,2022-01-15_21h23.43.133,multiplicationStroop,2021.2.3,Win32,60.01680471,,,,,,,,,,,,,,,,,,,,,,,,,,,,,,,,,,,,,,,,,,,,,,,,,,,,,,,,,
,,,,left,1,0.3405,2,15,47,6,1,8,-200,left,813,2022-01-15_21h23.43.133,multiplicationStroop,2021.2.3,Win32,60.01680471,,,,,,,,,,,,,,,,,,,,,,,,,,,,,,,,,,,,,,,,,,,,,,,,,,,,,,,,,
,,,,left,1,0.3332,3,0,48,0,1,1,-200,left,813,2022-01-15_21h23.43.133,multiplicationStroop,2021.2.3,Win32,60.01680471,,,,,,,,,,,,,,,,,,,,,,,,,,,,,,,,,,,,,,,,,,,,,,,,,,,,,,,,,
,,,,right,1,0.4176,3,1,49,10,1,3,200,right,813,2022-01-15_21h23.43.133,multiplicationStroop,2021.2.3,Win32,60.01680471,,,,,,,,,,,,,,,,,,,,,,,,,,,,,,,,,,,,,,,,,,,,,,,,,,,,,,,,,
,,,,right,1,0.3329,3,2,50,8,1,1,200,right,813,2022-01-15_21h23.43.133,multiplicationStroop,2021.2.3,Win32,60.01680471,,,,,,,,,,,,,,,,,,,,,,,,,,,,,,,,,,,,,,,,,,,,,,,,,,,,,,,,,
,,,,left,1,0.4054,3,3,51,1,1,2,-200,left,813,2022-01-15_21h23.43.133,multiplicationStroop,2021.2.3,Win32,60.01680471,,,,,,,,,,,,,,,,,,,,,,,,,,,,,,,,,,,,,,,,,,,,,,,,,,,,,,,,,
,,,,left,1,0.401,3,4,52,2,1,3,-200,left,813,2022-01-15_21h23.43.133,multiplicationStroop,2021.2.3,Win32,60.01680471,,,,,,,,,,,,,,,,,,,,,,,,,,,,,,,,,,,,,,,,,,,,,,,,,,,,,,,,,
,,,,right,1,0.4088,3,5,53,11,1,4,200,right,813,2022-01-15_21h23.43.133,multiplicationStroop,2021.2.3,Win32,60.01680471,,,,,,,,,,,,,,,,,,,,,,,,,,,,,,,,,,,,,,,,,,,,,,,,,,,,,,,,,
,,,,left,1,0.3373,3,6,54,3,1,4,-200,left,813,2022-01-15_21h23.43.133,multiplicationStroop,2021.2.3,Win32,60.01680471,,,,,,,,,,,,,,,,,,,,,,,,,,,,,,,,,,,,,,,,,,,,,,,,,,,,,,,,,
,,,,right,1,0.3853,3,7,55,12,1,6,200,right,813,2022-01-15_21h23.43.133,multiplicationStroop,2021.2.3,Win32,60.01680471,,,,,,,,,,,,,,,,,,,,,,,,,,,,,,,,,,,,,,,,,,,,,,,,,,,,,,,,,
,,,,left,1,0.308,3,8,56,7,1,9,-200,left,813,2022-01-15_21h23.43.133,multiplicationStroop,2021.2.3,Win32,60.01680471,,,,,,,,,,,,,,,,,,,,,,,,,,,,,,,,,,,,,,,,,,,,,,,,,,,,,,,,,
,,,,right,1,0.4342,3,9,57,9,1,2,200,right,813,2022-01-15_21h23.43.133,multiplicationStroop,2021.2.3,Win32,60.01680471,,,,,,,,,,,,,,,,,,,,,,,,,,,,,,,,,,,,,,,,,,,,,,,,,,,,,,,,,
,,,,right,1,0.4352,3,10,58,13,1,7,200,right,813,2022-01-15_21h23.43.133,multiplicationStroop,2021.2.3,Win32,60.01680471,,,,,,,,,,,,,,,,,,,,,,,,,,,,,,,,,,,,,,,,,,,,,,,,,,,,,,,,,
,,,,left,1,0.4195,3,11,59,6,1,8,-200,left,813,2022-01-15_21h23.43.133,multiplicationStroop,2021.2.3,Win32,60.01680471,,,,,,,,,,,,,,,,,,,,,,,,,,,,,,,,,,,,,,,,,,,,,,,,,,,,,,,,,
,,,,left,1,0.4171,3,12,60,5,1,7,-200,left,813,2022-01-15_21h23.43.133,multiplicationStroop,2021.2.3,Win32,60.01680471,,,,,,,,,,,,,,,,,,,,,,,,,,,,,,,,,,,,,,,,,,,,,,,,,,,,,,,,,
,,,,right,1,0.5511,3,13,61,14,1,8,200,right,813,2022-01-15_21h23.43.133,multiplicationStroop,2021.2.3,Win32,60.01680471,,,,,,,,,,,,,,,,,,,,,,,,,,,,,,,,,,,,,,,,,,,,,,,,,,,,,,,,,
,,,,right,1,0.2693,3,14,62,15,1,9,200,right,813,2022-01-15_21h23.43.133,multiplicationStroop,2021.2.3,Win32,60.01680471,,,,,,,,,,,,,,,,,,,,,,,,,,,,,,,,,,,,,,,,,,,,,,,,,,,,,,,,,
,,,,left,1,0.4013,3,15,63,4,1,6,-200,left,813,2022-01-15_21h23.43.133,multiplicationStroop,2021.2.3,Win32,60.01680471,,,,,,,,,,,,,,,,,,,,,,,,,,,,,,,,,,,,,,,,,,,,,,,,,,,,,,,,,
,,,,,,,,,,,,,,,813,2022-01-15_21h23.43.133,multiplicationStroop,2021.2.3,Win32,60.01680471,space,18.3962,space,13.114,right,1,1.1197,0,0,0,41,1,2,7,2 | 7,5,1.9756,1.4111,incongruent,right,,,,,,stimulusFile/magnitude.xlsx,,,,,,,,,,,,,,,,,,,,,,,,,,,,,,,
,,,,,,,,,,,,,,,813,2022-01-15_21h23.43.133,multiplicationStroop,2021.2.3,Win32,60.01680471,,,,,left,1,0.6039,0,1,1,20,1,6,1,6 | 1,5,1.9756,1.4111,congruent,left,,,,,,stimulusFile/magnitude.xlsx,,,,,,,,,,,,,,,,,,,,,,,,,,,,,,,
,,,,,,,,,,,,,,,813,2022-01-15_21h23.43.133,multiplicationStroop,2021.2.3,Win32,60.01680471,,,,,left,1,0.6766,0,2,2,53,1,4,3,4 | 3,1,1.6933,1.6933,neutral,left,,,,,,stimulusFile/magnitude.xlsx,,,,,,,,,,,,,,,,,,,,,,,,,,,,,,,
,,,,,,,,,,,,,,,813,2022-01-15_21h23.43.133,multiplicationStroop,2021.2.3,Win32,60.01680471,,,,,left,1,0.6021,0,3,3,46,1,8,3,8 | 3,5,1.4111,1.9756,incongruent,left,,,,,,stimulusFile/magnitude.xlsx,,,,,,,,,,,,,,,,,,,,,,,,,,,,,,,
,,,,,,,,,,,,,,,813,2022-01-15_21h23.43.133,multiplicationStroop,2021.2.3,Win32,60.01680471,,,,,right,1,1.6251,0,4,4,65,1,2,7,2 | 7,5,1.6933,1.6933,neutral,right,,,,,,stimulusFile/magnitude.xlsx,,,,,,,,,,,,,,,,,,,,,,,,,,,,,,,
,,,,,,,,,,,,,,,813,2022-01-15_21h23.43.133,multiplicationStroop,2021.2.3,Win32,60.01680471,,,,,left,1,0.7014,0,5,5,7,1,9,8,9 | 8,1,1.9756,1.4111,congruent,left,,,,,,stimulusFile/magnitude.xlsx,,,,,,,,,,,,,,,,,,,,,,,,,,,,,,,
,,,,,,,,,,,,,,,813,2022-01-15_21h23.43.133,multiplicationStroop,2021.2.3,Win32,60.01680471,,,,,right,1,1.1756,0,6,6,35,1,7,9,7 | 9,2,1.9756,1.4111,incongruent,right,,,,,,stimulusFile/magnitude.xlsx,,,,,,,,,,,,,,,,,,,,,,,,,,,,,,,
,,,,,,,,,,,,,,,813,2022-01-15_21h23.43.133,multiplicationStroop,2021.2.3,Win32,60.01680471,,,,,right,1,0.7921,0,7,7,58,1,6,8,6 | 8,2,1.6933,1.6933,neutral,right,,,,,,stimulusFile/magnitude.xlsx,,,,,,,,,,,,,,,,,,,,,,,,,,,,,,,
,,,,,,,,,,,,,,,813,2022-01-15_21h23.43.133,multiplicationStroop,2021.2.3,Win32,60.01680471,,,,,left,1,0.5342,0,8,8,21,1,7,2,7 | 2,5,1.9756,1.4111,congruent,left,,,,,,stimulusFile/magnitude.xlsx,,,,,,,,,,,,,,,,,,,,,,,,,,,,,,,
,,,,,,,,,,,,,,,813,2022-01-15_21h23.43.133,multiplicationStroop,2021.2.3,Win32,60.01680471,,,,,left,1,0.9978,0,9,9,47,1,9,4,9 | 4,5,1.4111,1.9756,incongruent,left,,,,,,stimulusFile/magnitude.xlsx,,,,,,,,,,,,,,,,,,,,,,,,,,,,,,,
,,,,,,,,,,,,,,,813,2022-01-15_21h23.43.133,multiplicationStroop,2021.2.3,Win32,60.01680471,,,,,left,1,0.6495,0,10,10,23,1,9,4,9 | 4,5,1.9756,1.4111,congruent,left,,,,,,stimulusFile/magnitude.xlsx,,,,,,,,,,,,,,,,,,,,,,,,,,,,,,,
,,,,,,,,,,,,,,,813,2022-01-15_21h23.43.133,multiplicationStroop,2021.2.3,Win32,60.01680471,,,,,left,1,1.0089,0,11,11,69,1,7,2,7 | 2,5,1.6933,1.6933,neutral,left,,,,,,stimulusFile/magnitude.xlsx,,,,,,,,,,,,,,,,,,,,,,,,,,,,,,,
,,,,,,,,,,,,,,,813,2022-01-15_21h23.43.133,multiplicationStroop,2021.2.3,Win32,60.01680471,,,,,right,1,0.6331,0,12,12,59,1,7,9,7 | 9,2,1.6933,1.6933,neutral,right,,,,,,stimulusFile/magnitude.xlsx,,,,,,,,,,,,,,,,,,,,,,,,,,,,,,,
,,,,,,,,,,,,,,,813,2022-01-15_21h23.43.133,multiplicationStroop,2021.2.3,Win32,60.01680471,,,,,left,1,0.5847,0,13,13,15,1,9,7,9 | 7,2,1.9756,1.4111,congruent,left,,,,,,stimulusFile/magnitude.xlsx,,,,,,,,,,,,,,,,,,,,,,,,,,,,,,,
,,,,,,,,,,,,,,,813,2022-01-15_21h23.43.133,multiplicationStroop,2021.2.3,Win32,60.01680471,,,,,left,1,0.6013,0,14,14,22,1,8,3,8 | 3,5,1.9756,1.4111,congruent,left,,,,,,stimulusFile/magnitude.xlsx,,,,,,,,,,,,,,,,,,,,,,,,,,,,,,,
,,,,,,,,,,,,,,,813,2022-01-15_21h23.43.133,multiplicationStroop,2021.2.3,Win32,60.01680471,,,,,left,1,0.6175,0,15,15,14,1,8,6,8 | 6,2,1.9756,1.4111,congruent,left,,,,,,stimulusFile/magnitude.xlsx,,,,,,,,,,,,,,,,,,,,,,,,,,,,,,,
,,,,,,,,,,,,,,,813,2022-01-15_21h23.43.133,multiplicationStroop,2021.2.3,Win32,60.01680471,,,,,right,1,0.6228,0,16,16,8,1,1,3,1 | 3,2,1.4111,1.9756,congruent,right,,,,,,stimulusFile/magnitude.xlsx,,,,,,,,,,,,,,,,,,,,,,,,,,,,,,,
,,,,,,,,,,,,,,,813,2022-01-15_21h23.43.133,multiplicationStroop,2021.2.3,Win32,60.01680471,,,,,right,1,0.8423,0,17,17,43,1,4,9,4 | 9,5,1.9756,1.4111,incongruent,right,,,,,,stimulusFile/magnitude.xlsx,,,,,,,,,,,,,,,,,,,,,,,,,,,,,,,
,,,,,,,,,,,,,,,813,2022-01-15_21h23.43.133,multiplicationStroop,2021.2.3,Win32,60.01680471,,,,,right,1,0.6176,0,18,18,3,1,8,9,8 | 9,1,1.4111,1.9756,congruent,right,,,,,,stimulusFile/magnitude.xlsx,,,,,,,,,,,,,,,,,,,,,,,,,,,,,,,
,,,,,,,,,,,,,,,813,2022-01-15_21h23.43.133,multiplicationStroop,2021.2.3,Win32,60.01680471,,,,,right,1,0.635,0,19,19,18,1,3,8,3 | 8,5,1.4111,1.9756,congruent,right,,,,,,stimulusFile/magnitude.xlsx,,,,,,,,,,,,,,,,,,,,,,,,,,,,,,,
,,,,,,,,,,,,,,,813,2022-01-15_21h23.43.133,multiplicationStroop,2021.2.3,Win32,60.01680471,,,,,right,1,0.768,0,20,20,49,1,3,4,3 | 4,1,1.6933,1.6933,neutral,right,,,,,,stimulusFile/magnitude.xlsx,,,,,,,,,,,,,,,,,,,,,,,,,,,,,,,
,,,,,,,,,,,,,,,813,2022-01-15_21h23.43.133,multiplicationStroop,2021.2.3,Win32,60.01680471,,,,,left,1,0.7829,0,21,21,30,1,7,6,7 | 6,1,1.4111,1.9756,incongruent,left,,,,,,stimulusFile/magnitude.xlsx,,,,,,,,,,,,,,,,,,,,,,,,,,,,,,,
,,,,,,,,,,,,,,,813,2022-01-15_21h23.43.133,multiplicationStroop,2021.2.3,Win32,60.01680471,,,,,right,1,0.8878,0,22,22,32,1,1,3,1 | 3,2,1.9756,1.4111,incongruent,right,,,,,,stimulusFile/magnitude.xlsx,,,,,,,,,,,,,,,,,,,,,,,,,,,,,,,
,,,,,,,,,,,,,,,813,2022-01-15_21h23.43.133,multiplicationStroop,2021.2.3,Win32,60.01680471,,,,,left,1,0.5759,0,23,23,68,1,6,1,6 | 1,5,1.6933,1.6933,neutral,left,,,,,,stimulusFile/magnitude.xlsx,,,,,,,,,,,,,,,,,,,,,,,,,,,,,,,
,,,,,,,,,,,,,,,813,2022-01-15_21h23.43.133,multiplicationStroop,2021.2.3,Win32,60.01680471,,,,,left,1,0.6663,0,24,24,37,1,4,2,4 | 2,2,1.4111,1.9756,incongruent,left,,,,,,stimulusFile/magnitude.xlsx,,,,,,,,,,,,,,,,,,,,,,,,,,,,,,,
,,,,,,,,,,,,,,,813,2022-01-15_21h23.43.133,multiplicationStroop,2021.2.3,Win32,60.01680471,,,,,left,1,0.5994,0,25,25,71,1,9,4,9 | 4,5,1.6933,1.6933,neutral,left,,,,,,stimulusFile/magnitude.xlsx,,,,,,,,,,,,,,,,,,,,,,,,,,,,,,,
,,,,,,,,,,,,,,,813,2022-01-15_21h23.43.133,multiplicationStroop,2021.2.3,Win32,60.01680471,,,,,right,1,0.6204,0,26,26,2,1,6,7,6 | 7,1,1.4111,1.9756,congruent,right,,,,,,stimulusFile/magnitude.xlsx,,,,,,,,,,,,,,,,,,,,,,,,,,,,,,,
,,,,,,,,,,,,,,,813,2022-01-15_21h23.43.133,multiplicationStroop,2021.2.3,Win32,60.01680471,,,,,right,1,0.85,0,27,27,24,1,1,2,1 | 2,1,1.9756,1.4111,incongruent,right,,,,,,stimulusFile/magnitude.xlsx,,,,,,,,,,,,,,,,,,,,,,,,,,,,,,,
,,,,,,,,,,,,,,,813,2022-01-15_21h23.43.133,multiplicationStroop,2021.2.3,Win32,60.01680471,,,,,left,1,0.5676,0,28,28,4,1,2,1,2 | 1,1,1.9756,1.4111,congruent,left,,,,,,stimulusFile/magnitude.xlsx,,,,,,,,,,,,,,,,,,,,,,,,,,,,,,,
,,,,,,,,,,,,,,,813,2022-01-15_21h23.43.133,multiplicationStroop,2021.2.3,Win32,60.01680471,,,,,right,1,0.8674,0,29,29,42,1,3,8,3 | 8,5,1.9756,1.4111,incongruent,right,,,,,,stimulusFile/magnitude.xlsx,,,,,,,,,,,,,,,,,,,,,,,,,,,,,,,
,,,,,,,,,,,,,,,813,2022-01-15_21h23.43.133,multiplicationStroop,2021.2.3,Win32,60.01680471,,,,,right,1,0.8083,0,30,30,50,1,6,7,6 | 7,1,1.6933,1.6933,neutral,right,,,,,,stimulusFile/magnitude.xlsx,,,,,,,,,,,,,,,,,,,,,,,,,,,,,,,
,,,,,,,,,,,,,,,813,2022-01-15_21h23.43.133,multiplicationStroop,2021.2.3,Win32,60.01680471,,,,,right,1,0.5801,0,31,31,11,1,7,9,7 | 9,2,1.4111,1.9756,congruent,right,,,,,,stimulusFile/magnitude.xlsx,,,,,,,,,,,,,,,,,,,,,,,,,,,,,,,
,,,,,,,,,,,,,,,813,2022-01-15_21h23.43.133,multiplicationStroop,2021.2.3,Win32,60.01680471,,,,,right,1,0.535,0,32,32,19,1,4,9,4 | 9,5,1.4111,1.9756,congruent,right,,,,,,stimulusFile/magnitude.xlsx,,,,,,,,,,,,,,,,,,,,,,,,,,,,,,,
,,,,,,,,,,,,,,,813,2022-01-15_21h23.43.133,multiplicationStroop,2021.2.3,Win32,60.01680471,,,,,right,1,0.5683,0,33,33,56,1,1,3,1 | 3,2,1.6933,1.6933,neutral,right,,,,,,stimulusFile/magnitude.xlsx,,,,,,,,,,,,,,,,,,,,,,,,,,,,,,,
,,,,,,,,,,,,,,,813,2022-01-15_21h23.43.133,multiplicationStroop,2021.2.3,Win32,60.01680471,,,,,right,1,0.8496,0,34,34,34,1,6,8,6 | 8,2,1.9756,1.4111,incongruent,right,,,,,,stimulusFile/magnitude.xlsx,,,,,,,,,,,,,,,,,,,,,,,,,,,,,,,
,,,,,,,,,,,,,,,813,2022-01-15_21h23.43.133,multiplicationStroop,2021.2.3,Win32,60.01680471,,,,,left,1,0.6209,0,35,35,60,1,3,1,3 | 1,2,1.6933,1.6933,neutral,left,,,,,,stimulusFile/magnitude.xlsx,,,,,,,,,,,,,,,,,,,,,,,,,,,,,,,
,,,,,,,,,,,,,,,813,2022-01-15_21h23.43.133,multiplicationStroop,2021.2.3,Win32,60.01680471,,,,,left,1,0.565,0,36,36,13,1,4,2,4 | 2,2,1.9756,1.4111,congruent,left,,,,,,stimulusFile/magnitude.xlsx,,,,,,,,,,,,,,,,,,,,,,,,,,,,,,,
,,,,,,,,,,,,,,,813,2022-01-15_21h23.43.133,multiplicationStroop,2021.2.3,Win32,60.01680471,,,,,left,1,0.701,0,37,37,54,1,7,6,7 | 6,1,1.6933,1.6933,neutral,left,,,,,,stimulusFile/magnitude.xlsx,,,,,,,,,,,,,,,,,,,,,,,,,,,,,,,
,,,,,,,,,,,,,,,813,2022-01-15_21h23.43.133,multiplicationStroop,2021.2.3,Win32,60.01680471,,,,,left,1,0.8333,0,38,38,38,1,8,6,8 | 6,2,1.4111,1.9756,incongruent,left,,,,,,stimulusFile/magnitude.xlsx,,,,,,,,,,,,,,,,,,,,,,,,,,,,,,,
,,,,,,,,,,,,,,,813,2022-01-15_21h23.43.133,multiplicationStroop,2021.2.3,Win32,60.01680471,,,,,left,1,0.5671,0,39,39,36,1,3,1,3 | 1,2,1.4111,1.9756,incongruent,left,,,,,,stimulusFile/magnitude.xlsx,,,,,,,,,,,,,,,,,,,,,,,,,,,,,,,
,,,,,,,,,,,,,,,813,2022-01-15_21h23.43.133,multiplicationStroop,2021.2.3,Win32,60.01680471,,,,,right,1,0.549,0,40,40,16,1,1,6,1 | 6,5,1.4111,1.9756,congruent,right,,,,,,stimulusFile/magnitude.xlsx,,,,,,,,,,,,,,,,,,,,,,,,,,,,,,,
,,,,,,,,,,,,,,,813,2022-01-15_21h23.43.133,multiplicationStroop,2021.2.3,Win32,60.01680471,,,,,left,1,0.6066,0,41,41,45,1,7,2,7 | 2,5,1.4111,1.9756,incongruent,left,,,,,,stimulusFile/magnitude.xlsx,,,,,,,,,,,,,,,,,,,,,,,,,,,,,,,
,,,,,,,,,,,,,,,813,2022-01-15_21h23.43.133,multiplicationStroop,2021.2.3,Win32,60.01680471,,,,,right,1,0.5713,0,42,42,67,1,4,9,4 | 9,5,1.6933,1.6933,neutral,right,,,,,,stimulusFile/magnitude.xlsx,,,,,,,,,,,,,,,,,,,,,,,,,,,,,,,
,,,,,,,,,,,,,,,813,2022-01-15_21h23.43.133,multiplicationStroop,2021.2.3,Win32,60.01680471,,,,,left,1,0.551,0,43,43,5,1,4,3,4 | 3,1,1.9756,1.4111,congruent,left,,,,,,stimulusFile/magnitude.xlsx,,,,,,,,,,,,,,,,,,,,,,,,,,,,,,,
,,,,,,,,,,,,,,,813,2022-01-15_21h23.43.133,multiplicationStroop,2021.2.3,Win32,60.01680471,,,,,right,1,0.4837,0,44,44,0,1,1,2,1 | 2,1,1.4111,1.9756,congruent,right,,,,,,stimulusFile/magnitude.xlsx,,,,,,,,,,,,,,,,,,,,,,,,,,,,,,,
,,,,,,,,,,,,,,,813,2022-01-15_21h23.43.133,multiplicationStroop,2021.2.3,Win32,60.01680471,,,,,right,1,0.5553,0,45,45,48,1,1,2,1 | 2,1,1.6933,1.6933,neutral,right,,,,,,stimulusFile/magnitude.xlsx,,,,,,,,,,,,,,,,,,,,,,,,,,,,,,,
,,,,,,,,,,,,,,,813,2022-01-15_21h23.43.133,multiplicationStroop,2021.2.3,Win32,60.01680471,,,,,left,1,0.6818,0,46,46,55,1,9,8,9 | 8,1,1.6933,1.6933,neutral,left,,,,,,stimulusFile/magnitude.xlsx,,,,,,,,,,,,,,,,,,,,,,,,,,,,,,,
,,,,,,,,,,,,,,,813,2022-01-15_21h23.43.133,multiplicationStroop,2021.2.3,Win32,60.01680471,,,,,left,1,0.6186,0,47,47,12,1,3,1,3 | 1,2,1.9756,1.4111,congruent,left,,,,,,stimulusFile/magnitude.xlsx,,,,,,,,,,,,,,,,,,,,,,,,,,,,,,,
,,,,,,,,,,,,,,,813,2022-01-15_21h23.43.133,multiplicationStroop,2021.2.3,Win32,60.01680471,,,,,right,1,0.585,0,48,48,57,1,2,4,2 | 4,2,1.6933,1.6933,neutral,right,,,,,,stimulusFile/magnitude.xlsx,,,,,,,,,,,,,,,,,,,,,,,,,,,,,,,
,,,,,,,,,,,,,,,813,2022-01-15_21h23.43.133,multiplicationStroop,2021.2.3,Win32,60.01680471,,,,,left,1,0.5993,0,49,49,44,1,6,1,6 | 1,5,1.4111,1.9756,incongruent,left,,,,,,stimulusFile/magnitude.xlsx,,,,,,,,,,,,,,,,,,,,,,,,,,,,,,,
,,,,,,,,,,,,,,,813,2022-01-15_21h23.43.133,multiplicationStroop,2021.2.3,Win32,60.01680471,,,,,right,1,0.6156,0,50,50,10,1,6,8,6 | 8,2,1.4111,1.9756,congruent,right,,,,,,stimulusFile/magnitude.xlsx,,,,,,,,,,,,,,,,,,,,,,,,,,,,,,,
,,,,,,,,,,,,,,,813,2022-01-15_21h23.43.133,multiplicationStroop,2021.2.3,Win32,60.01680471,,,,,left,1,0.6149,0,51,51,61,1,4,2,4 | 2,2,1.6933,1.6933,neutral,left,,,,,,stimulusFile/magnitude.xlsx,,,,,,,,,,,,,,,,,,,,,,,,,,,,,,,
,,,,,,,,,,,,,,,813,2022-01-15_21h23.43.133,multiplicationStroop,2021.2.3,Win32,60.01680471,,,,,left,1,0.5187,0,52,52,70,1,8,3,8 | 3,5,1.6933,1.6933,neutral,left,,,,,,stimulusFile/magnitude.xlsx,,,,,,,,,,,,,,,,,,,,,,,,,,,,,,,
,,,,,,,,,,,,,,,813,2022-01-15_21h23.43.133,multiplicationStroop,2021.2.3,Win32,60.01680471,,,,,left,1,0.7008,0,53,53,28,1,2,1,2 | 1,1,1.4111,1.9756,incongruent,left,,,,,,stimulusFile/magnitude.xlsx,,,,,,,,,,,,,,,,,,,,,,,,,,,,,,,
,,,,,,,,,,,,,,,813,2022-01-15_21h23.43.133,multiplicationStroop,2021.2.3,Win32,60.01680471,,,,,right,1,0.8844,0,54,54,27,1,8,9,8 | 9,1,1.9756,1.4111,incongruent,right,,,,,,stimulusFile/magnitude.xlsx,,,,,,,,,,,,,,,,,,,,,,,,,,,,,,,
,,,,,,,,,,,,,,,813,2022-01-15_21h23.43.133,multiplicationStroop,2021.2.3,Win32,60.01680471,,,,,left,1,0.8832,0,55,55,29,1,4,3,4 | 3,1,1.4111,1.9756,incongruent,left,,,,,,stimulusFile/magnitude.xlsx,,,,,,,,,,,,,,,,,,,,,,,,,,,,,,,
,,,,,,,,,,,,,,,813,2022-01-15_21h23.43.133,multiplicationStroop,2021.2.3,Win32,60.01680471,,,,,right,1,0.631,0,56,56,9,1,2,4,2 | 4,2,1.4111,1.9756,congruent,right,,,,,,stimulusFile/magnitude.xlsx,,,,,,,,,,,,,,,,,,,,,,,,,,,,,,,
,,,,,,,,,,,,,,,813,2022-01-15_21h23.43.133,multiplicationStroop,2021.2.3,Win32,60.01680471,,,,,right,1,0.8487,0,57,57,51,1,8,9,8 | 9,1,1.6933,1.6933,neutral,right,,,,,,stimulusFile/magnitude.xlsx,,,,,,,,,,,,,,,,,,,,,,,,,,,,,,,
,,,,,,,,,,,,,,,813,2022-01-15_21h23.43.133,multiplicationStroop,2021.2.3,Win32,60.01680471,,,,,left,1,0.6004,0,58,58,39,1,9,7,9 | 7,2,1.4111,1.9756,incongruent,left,,,,,,stimulusFile/magnitude.xlsx,,,,,,,,,,,,,,,,,,,,,,,,,,,,,,,
,,,,,,,,,,,,,,,813,2022-01-15_21h23.43.133,multiplicationStroop,2021.2.3,Win32,60.01680471,,,,,right,1,0.5552,0,59,59,40,1,1,6,1 | 6,5,1.9756,1.4111,incongruent,right,,,,,,stimulusFile/magnitude.xlsx,,,,,,,,,,,,,,,,,,,,,,,,,,,,,,,
,,,,,,,,,,,,,,,813,2022-01-15_21h23.43.133,multiplicationStroop,2021.2.3,Win32,60.01680471,,,,,left,1,0.6029,0,60,60,63,1,9,7,9 | 7,2,1.6933,1.6933,neutral,left,,,,,,stimulusFile/magnitude.xlsx,,,,,,,,,,,,,,,,,,,,,,,,,,,,,,,
,,,,,,,,,,,,,,,813,2022-01-15_21h23.43.133,multiplicationStroop,2021.2.3,Win32,60.01680471,,,,,right,1,0.8641,0,61,61,26,1,6,7,6 | 7,1,1.9756,1.4111,incongruent,right,,,,,,stimulusFile/magnitude.xlsx,,,,,,,,,,,,,,,,,,,,,,,,,,,,,,,
,,,,,,,,,,,,,,,813,2022-01-15_21h23.43.133,multiplicationStroop,2021.2.3,Win32,60.01680471,,,,,right,1,0.7326,0,62,62,25,1,3,4,3 | 4,1,1.9756,1.4111,incongruent,right,,,,,,stimulusFile/magnitude.xlsx,,,,,,,,,,,,,,,,,,,,,,,,,,,,,,,
,,,,,,,,,,,,,,,813,2022-01-15_21h23.43.133,multiplicationStroop,2021.2.3,Win32,60.01680471,,,,,right,1,0.6035,0,63,63,17,1,2,7,2 | 7,5,1.4111,1.9756,congruent,right,,,,,,stimulusFile/magnitude.xlsx,,,,,,,,,,,,,,,,,,,,,,,,,,,,,,,
,,,,,,,,,,,,,,,813,2022-01-15_21h23.43.133,multiplicationStroop,2021.2.3,Win32,60.01680471,,,,,right,1,0.5676,0,64,64,33,1,2,4,2 | 4,2,1.9756,1.4111,incongruent,right,,,,,,stimulusFile/magnitude.xlsx,,,,,,,,,,,,,,,,,,,,,,,,,,,,,,,
,,,,,,,,,,,,,,,813,2022-01-15_21h23.43.133,multiplicationStroop,2021.2.3,Win32,60.01680471,,,,,right,1,0.5981,0,65,65,66,1,3,8,3 | 8,5,1.6933,1.6933,neutral,right,,,,,,stimulusFile/magnitude.xlsx,,,,,,,,,,,,,,,,,,,,,,,,,,,,,,,
,,,,,,,,,,,,,,,813,2022-01-15_21h23.43.133,multiplicationStroop,2021.2.3,Win32,60.01680471,,,,,left,1,0.6973,0,66,66,62,1,8,6,8 | 6,2,1.6933,1.6933,neutral,left,,,,,,stimulusFile/magnitude.xlsx,,,,,,,,,,,,,,,,,,,,,,,,,,,,,,,
,,,,,,,,,,,,,,,813,2022-01-15_21h23.43.133,multiplicationStroop,2021.2.3,Win32,60.01680471,,,,,right,1,0.6007,0,67,67,64,1,1,6,1 | 6,5,1.6933,1.6933,neutral,right,,,,,,stimulusFile/magnitude.xlsx,,,,,,,,,,,,,,,,,,,,,,,,,,,,,,,
,,,,,,,,,,,,,,,813,2022-01-15_21h23.43.133,multiplicationStroop,2021.2.3,Win32,60.01680471,,,,,left,1,0.6186,0,68,68,6,1,7,6,7 | 6,1,1.9756,1.4111,congruent,left,,,,,,stimulusFile/magnitude.xlsx,,,,,,,,,,,,,,,,,,,,,,,,,,,,,,,
,,,,,,,,,,,,,,,813,2022-01-15_21h23.43.133,multiplicationStroop,2021.2.3,Win32,60.01680471,,,,,left,1,0.5844,0,69,69,52,1,2,1,2 | 1,1,1.6933,1.6933,neutral,left,,,,,,stimulusFile/magnitude.xlsx,,,,,,,,,,,,,,,,,,,,,,,,,,,,,,,
,,,,,,,,,,,,,,,813,2022-01-15_21h23.43.133,multiplicationStroop,2021.2.3,Win32,60.01680471,,,,,right,1,0.5174,0,70,70,1,1,3,4,3 | 4,1,1.4111,1.9756,congruent,right,,,,,,stimulusFile/magnitude.xlsx,,,,,,,,,,,,,,,,,,,,,,,,,,,,,,,
,,,,,,,,,,,,,,,813,2022-01-15_21h23.43.133,multiplicationStroop,2021.2.3,Win32,60.01680471,,,,,left,1,0.8715,0,71,71,31,1,9,8,9 | 8,1,1.4111,1.9756,incongruent,left,,,,,,stimulusFile/magnitude.xlsx,,,,,,,,,,,,,,,,,,,,,,,,,,,,,,,
,,,,,,,,,,,,,,,813,2022-01-15_21h23.43.133,multiplicationStroop,2021.2.3,Win32,60.01680471,,,,,,,,,,,,,,,,,,,,,0,0,0,0,1,stimulusFile/magnitude.xlsx,NUMERICALLY larger (larger coefficient).,images/numericallyLarger.png,,,,,,,,,,,,,,,,,,,,,,,,,,,,,
,,,,,,,,,,,,,,,813,2022-01-15_21h23.43.133,multiplicationStroop,2021.2.3,Win32,60.01680471,space,11.951,space,9.6955,left,1,0.9251,0,0,0,48,1,1,1,1 | 1,0,1.9756,1.4111,neutral,left,,,,,,stimulusFile/physical.xlsx,,,,,,,,,,,,,,,,,,,,,,,,,,,,,,,
,,,,,,,,,,,,,,,813,2022-01-15_21h23.43.133,multiplicationStroop,2021.2.3,Win32,60.01680471,,,,,right,1,0.524,0,1,1,63,1,9,9,9 | 9,0,1.4111,1.9756,neutral,right,,,,,,stimulusFile/physical.xlsx,,,,,,,,,,,,,,,,,,,,,,,,,,,,,,,
,,,,,,,,,,,,,,,813,2022-01-15_21h23.43.133,multiplicationStroop,2021.2.3,Win32,60.01680471,,,,,left,1,0.622,0,2,2,15,1,9,7,9 | 7,2,1.9756,1.4111,congruent,left,,,,,,stimulusFile/physical.xlsx,,,,,,,,,,,,,,,,,,,,,,,,,,,,,,,
,,,,,,,,,,,,,,,813,2022-01-15_21h23.43.133,multiplicationStroop,2021.2.3,Win32,60.01680471,,,,,left,1,0.623,0,3,3,34,1,6,8,6 | 8,2,1.9756,1.4111,incongruent,left,,,,,,stimulusFile/physical.xlsx,,,,,,,,,,,,,,,,,,,,,,,,,,,,,,,
,,,,,,,,,,,,,,,813,2022-01-15_21h23.43.133,multiplicationStroop,2021.2.3,Win32,60.01680471,,,,,right,1,0.4965,0,4,4,2,1,6,7,6 | 7,1,1.4111,1.9756,congruent,right,,,,,,stimulusFile/physical.xlsx,,,,,,,,,,,,,,,,,,,,,,,,,,,,,,,
,,,,,,,,,,,,,,,813,2022-01-15_21h23.43.133,multiplicationStroop,2021.2.3,Win32,60.01680471,,,,,right,1,0.5229,0,5,5,61,1,4,4,4 | 4,0,1.4111,1.9756,neutral,right,,,,,,stimulusFile/physical.xlsx,,,,,,,,,,,,,,,,,,,,,,,,,,,,,,,
,,,,,,,,,,,,,,,813,2022-01-15_21h23.43.133,multiplicationStroop,2021.2.3,Win32,60.01680471,,,,,left,1,0.5812,0,6,6,6,1,7,6,7 | 6,1,1.9756,1.4111,congruent,left,,,,,,stimulusFile/physical.xlsx,,,,,,,,,,,,,,,,,,,,,,,,,,,,,,,
,,,,,,,,,,,,,,,813,2022-01-15_21h23.43.133,multiplicationStroop,2021.2.3,Win32,60.01680471,,,,,left,1,0.6769,0,7,7,51,1,8,8,8 | 8,0,1.9756,1.4111,neutral,left,,,,,,stimulusFile/physical.xlsx,,,,,,,,,,,,,,,,,,,,,,,,,,,,,,,
,,,,,,,,,,,,,,,813,2022-01-15_21h23.43.133,multiplicationStroop,2021.2.3,Win32,60.01680471,,,,,right,1,0.5626,0,8,8,8,1,1,3,1 | 3,2,1.4111,1.9756,congruent,right,,,,,,stimulusFile/physical.xlsx,,,,,,,,,,,,,,,,,,,,,,,,,,,,,,,
,,,,,,,,,,,,,,,813,2022-01-15_21h23.43.133,multiplicationStroop,2021.2.3,Win32,60.01680471,,,,,right,1,0.6565,0,9,9,58,1,6,6,6 | 6,0,1.4111,1.9756,neutral,right,,,,,,stimulusFile/physical.xlsx,,,,,,,,,,,,,,,,,,,,,,,,,,,,,,,
,,,,,,,,,,,,,,,813,2022-01-15_21h23.43.133,multiplicationStroop,2021.2.3,Win32,60.01680471,,,,,left,1,0.4908,0,10,10,20,1,6,1,6 | 1,5,1.9756,1.4111,congruent,left,,,,,,stimulusFile/physical.xlsx,,,,,,,,,,,,,,,,,,,,,,,,,,,,,,,
,,,,,,,,,,,,,,,813,2022-01-15_21h23.43.133,multiplicationStroop,2021.2.3,Win32,60.01680471,,,,,left,1,0.529,0,11,11,4,1,2,1,2 | 1,1,1.9756,1.4111,congruent,left,,,,,,stimulusFile/physical.xlsx,,,,,,,,,,,,,,,,,,,,,,,,,,,,,,,
,,,,,,,,,,,,,,,813,2022-01-15_21h23.43.133,multiplicationStroop,2021.2.3,Win32,60.01680471,,,,,left,1,0.5763,0,12,12,54,1,7,7,7 | 7,0,1.9756,1.4111,neutral,left,,,,,,stimulusFile/physical.xlsx,,,,,,,,,,,,,,,,,,,,,,,,,,,,,,,
,,,,,,,,,,,,,,,813,2022-01-15_21h23.43.133,multiplicationStroop,2021.2.3,Win32,60.01680471,,,,,left,0,0.6187,0,13,13,64,1,1,1,1 | 1,0,1.9756,1.4111,neutral,right,,,,,,stimulusFile/physical.xlsx,,,,,,,,,,,,,,,,,,,,,,,,,,,,,,,
,,,,,,,,,,,,,,,813,2022-01-15_21h23.43.133,multiplicationStroop,2021.2.3,Win32,60.01680471,,,,,right,1,0.4928,0,14,14,10,1,6,8,6 | 8,2,1.4111,1.9756,congruent,right,,,,,,stimulusFile/physical.xlsx,,,,,,,,,,,,,,,,,,,,,,,,,,,,,,,
,,,,,,,,,,,,,,,813,2022-01-15_21h23.43.133,multiplicationStroop,2021.2.3,Win32,60.01680471,,,,,right,1,0.5255,0,15,15,11,1,7,9,7 | 9,2,1.4111,1.9756,congruent,right,,,,,,stimulusFile/physical.xlsx,,,,,,,,,,,,,,,,,,,,,,,,,,,,,,,
,,,,,,,,,,,,,,,813,2022-01-15_21h23.43.133,multiplicationStroop,2021.2.3,Win32,60.01680471,,,,,left,1,0.7872,0,16,16,50,1,6,6,6 | 6,0,1.9756,1.4111,neutral,left,,,,,,stimulusFile/physical.xlsx,,,,,,,,,,,,,,,,,,,,,,,,,,,,,,,
,,,,,,,,,,,,,,,813,2022-01-15_21h23.43.133,multiplicationStroop,2021.2.3,Win32,60.01680471,,,,,left,1,0.5232,0,17,17,13,1,4,2,4 | 2,2,1.9756,1.4111,congruent,left,,,,,,stimulusFile/physical.xlsx,,,,,,,,,,,,,,,,,,,,,,,,,,,,,,,
,,,,,,,,,,,,,,,813,2022-01-15_21h23.43.133,multiplicationStroop,2021.2.3,Win32,60.01680471,,,,,left,1,0.5379,0,18,18,7,1,9,8,9 | 8,1,1.9756,1.4111,congruent,left,,,,,,stimulusFile/physical.xlsx,,,,,,,,,,,,,,,,,,,,,,,,,,,,,,,
,,,,,,,,,,,,,,,813,2022-01-15_21h23.43.133,multiplicationStroop,2021.2.3,Win32,60.01680471,,,,,right,0,0.4923,0,19,19,71,1,9,9,9 | 9,0,1.4111,1.9756,neutral,left,,,,,,stimulusFile/physical.xlsx,,,,,,,,,,,,,,,,,,,,,,,,,,,,,,,
,,,,,,,,,,,,,,,813,2022-01-15_21h23.43.133,multiplicationStroop,2021.2.3,Win32,60.01680471,,,,,right,1,0.4755,0,20,20,16,1,1,6,1 | 6,5,1.4111,1.9756,congruent,right,,,,,,stimulusFile/physical.xlsx,,,,,,,,,,,,,,,,,,,,,,,,,,,,,,,
,,,,,,,,,,,,,,,813,2022-01-15_21h23.43.133,multiplicationStroop,2021.2.3,Win32,60.01680471,,,,,right,1,0.5285,0,21,21,56,1,1,1,1 | 1,0,1.4111,1.9756,neutral,right,,,,,,stimulusFile/physical.xlsx,,,,,,,,,,,,,,,,,,,,,,,,,,,,,,,
,,,,,,,,,,,,,,,813,2022-01-15_21h23.43.133,multiplicationStroop,2021.2.3,Win32,60.01680471,,,,,left,1,0.6259,0,22,22,41,1,2,7,2 | 7,5,1.9756,1.4111,incongruent,left,,,,,,stimulusFile/physical.xlsx,,,,,,,,,,,,,,,,,,,,,,,,,,,,,,,
,,,,,,,,,,,,,,,813,2022-01-15_21h23.43.133,multiplicationStroop,2021.2.3,Win32,60.01680471,,,,,left,1,0.563,0,23,23,26,1,6,7,6 | 7,1,1.9756,1.4111,incongruent,left,,,,,,stimulusFile/physical.xlsx,,,,,,,,,,,,,,,,,,,,,,,,,,,,,,,
,,,,,,,,,,,,,,,813,2022-01-15_21h23.43.133,multiplicationStroop,2021.2.3,Win32,60.01680471,,,,,right,1,0.5267,0,24,24,57,1,2,2,2 | 2,0,1.4111,1.9756,neutral,right,,,,,,stimulusFile/physical.xlsx,,,,,,,,,,,,,,,,,,,,,,,,,,,,,,,
,,,,,,,,,,,,,,,813,2022-01-15_21h23.43.133,multiplicationStroop,2021.2.3,Win32,60.01680471,,,,,left,1,0.5427,0,25,25,70,1,8,8,8 | 8,0,1.9756,1.4111,neutral,left,,,,,,stimulusFile/physical.xlsx,,,,,,,,,,,,,,,,,,,,,,,,,,,,,,,
,,,,,,,,,,,,,,,813,2022-01-15_21h23.43.133,multiplicationStroop,2021.2.3,Win32,60.01680471,,,,,right,1,0.4759,0,26,26,3,1,8,9,8 | 9,1,1.4111,1.9756,congruent,right,,,,,,stimulusFile/physical.xlsx,,,,,,,,,,,,,,,,,,,,,,,,,,,,,,,
,,,,,,,,,,,,,,,813,2022-01-15_21h23.43.133,multiplicationStroop,2021.2.3,Win32,60.01680471,,,,,right,1,0.6223,0,27,27,60,1,3,3,3 | 3,0,1.4111,1.9756,neutral,right,,,,,,stimulusFile/physical.xlsx,,,,,,,,,,,,,,,,,,,,,,,,,,,,,,,
,,,,,,,,,,,,,,,813,2022-01-15_21h23.43.133,multiplicationStroop,2021.2.3,Win32,60.01680471,,,,,right,0,0.5589,0,28,28,69,1,7,7,7 | 7,0,1.4111,1.9756,neutral,left,,,,,,stimulusFile/physical.xlsx,,,,,,,,,,,,,,,,,,,,,,,,,,,,,,,
,,,,,,,,,,,,,,,813,2022-01-15_21h23.43.133,multiplicationStroop,2021.2.3,Win32,60.01680471,,,,,right,1,0.7977,0,29,29,29,1,4,3,4 | 3,1,1.4111,1.9756,incongruent,right,,,,,,stimulusFile/physical.xlsx,,,,,,,,,,,,,,,,,,,,,,,,,,,,,,,
,,,,,,,,,,,,,,,813,2022-01-15_21h23.43.133,multiplicationStroop,2021.2.3,Win32,60.01680471,,,,,right,1,0.533,0,30,30,37,1,4,2,4 | 2,2,1.4111,1.9756,incongruent,right,,,,,,stimulusFile/physical.xlsx,,,,,,,,,,,,,,,,,,,,,,,,,,,,,,,
,,,,,,,,,,,,,,,813,2022-01-15_21h23.43.133,multiplicationStroop,2021.2.3,Win32,60.01680471,,,,,left,1,0.5972,0,31,31,43,1,4,9,4 | 9,5,1.9756,1.4111,incongruent,left,,,,,,stimulusFile/physical.xlsx,,,,,,,,,,,,,,,,,,,,,,,,,,,,,,,
,,,,,,,,,,,,,,,813,2022-01-15_21h23.43.133,multiplicationStroop,2021.2.3,Win32,60.01680471,,,,,left,1,0.4967,0,32,32,53,1,4,4,4 | 4,0,1.9756,1.4111,neutral,left,,,,,,stimulusFile/physical.xlsx,,,,,,,,,,,,,,,,,,,,,,,,,,,,,,,
,,,,,,,,,,,,,,,813,2022-01-15_21h23.43.133,multiplicationStroop,2021.2.3,Win32,60.01680471,,,,,right,1,0.6748,0,33,33,47,1,9,4,9 | 4,5,1.4111,1.9756,incongruent,right,,,,,,stimulusFile/physical.xlsx,,,,,,,,,,,,,,,,,,,,,,,,,,,,,,,
,,,,,,,,,,,,,,,813,2022-01-15_21h23.43.133,multiplicationStroop,2021.2.3,Win32,60.01680471,,,,,left,1,0.5747,0,34,34,27,1,8,9,8 | 9,1,1.9756,1.4111,incongruent,left,,,,,,stimulusFile/physical.xlsx,,,,,,,,,,,,,,,,,,,,,,,,,,,,,,,
,,,,,,,,,,,,,,,813,2022-01-15_21h23.43.133,multiplicationStroop,2021.2.3,Win32,60.01680471,,,,,right,1,0.5578,0,35,35,36,1,3,1,3 | 1,2,1.4111,1.9756,incongruent,right,,,,,,stimulusFile/physical.xlsx,,,,,,,,,,,,,,,,,,,,,,,,,,,,,,,
,,,,,,,,,,,,,,,813,2022-01-15_21h23.43.133,multiplicationStroop,2021.2.3,Win32,60.01680471,,,,,left,1,0.5418,0,36,36,5,1,4,3,4 | 3,1,1.9756,1.4111,congruent,left,,,,,,stimulusFile/physical.xlsx,,,,,,,,,,,,,,,,,,,,,,,,,,,,,,,
,,,,,,,,,,,,,,,813,2022-01-15_21h23.43.133,multiplicationStroop,2021.2.3,Win32,60.01680471,,,,,right,1,0.4389,0,37,37,9,1,2,4,2 | 4,2,1.4111,1.9756,congruent,right,,,,,,stimulusFile/physical.xlsx,,,,,,,,,,,,,,,,,,,,,,,,,,,,,,,
,,,,,,,,,,,,,,,813,2022-01-15_21h23.43.133,multiplicationStroop,2021.2.3,Win32,60.01680471,,,,,left,1,0.5428,0,38,38,55,1,9,9,9 | 9,0,1.9756,1.4111,neutral,left,,,,,,stimulusFile/physical.xlsx,,,,,,,,,,,,,,,,,,,,,,,,,,,,,,,
,,,,,,,,,,,,,,,813,2022-01-15_21h23.43.133,multiplicationStroop,2021.2.3,Win32,60.01680471,,,,,left,1,0.5795,0,39,39,23,1,9,4,9 | 4,5,1.9756,1.4111,congruent,left,,,,,,stimulusFile/physical.xlsx,,,,,,,,,,,,,,,,,,,,,,,,,,,,,,,
,,,,,,,,,,,,,,,813,2022-01-15_21h23.43.133,multiplicationStroop,2021.2.3,Win32,60.01680471,,,,,left,1,0.6925,0,40,40,24,1,1,2,1 | 2,1,1.9756,1.4111,incongruent,left,,,,,,stimulusFile/physical.xlsx,,,,,,,,,,,,,,,,,,,,,,,,,,,,,,,
,,,,,,,,,,,,,,,813,2022-01-15_21h23.43.133,multiplicationStroop,2021.2.3,Win32,60.01680471,,,,,right,1,0.6711,0,41,41,31,1,9,8,9 | 8,1,1.4111,1.9756,incongruent,right,,,,,,stimulusFile/physical.xlsx,,,,,,,,,,,,,,,,,,,,,,,,,,,,,,,
,,,,,,,,,,,,,,,813,2022-01-15_21h23.43.133,multiplicationStroop,2021.2.3,Win32,60.01680471,,,,,left,1,0.6548,0,42,42,40,1,1,6,1 | 6,5,1.9756,1.4111,incongruent,left,,,,,,stimulusFile/physical.xlsx,,,,,,,,,,,,,,,,,,,,,,,,,,,,,,,
,,,,,,,,,,,,,,,813,2022-01-15_21h23.43.133,multiplicationStroop,2021.2.3,Win32,60.01680471,,,,,left,1,0.6969,0,43,43,14,1,8,6,8 | 6,2,1.9756,1.4111,congruent,left,,,,,,stimulusFile/physical.xlsx,,,,,,,,,,,,,,,,,,,,,,,,,,,,,,,
,,,,,,,,,,,,,,,813,2022-01-15_21h23.43.133,multiplicationStroop,2021.2.3,Win32,60.01680471,,,,,left,1,0.6438,0,44,44,33,1,2,4,2 | 4,2,1.9756,1.4111,incongruent,left,,,,,,stimulusFile/physical.xlsx,,,,,,,,,,,,,,,,,,,,,,,,,,,,,,,
,,,,,,,,,,,,,,,813,2022-01-15_21h23.43.133,multiplicationStroop,2021.2.3,Win32,60.01680471,,,,,right,1,0.4932,0,45,45,67,1,4,4,4 | 4,0,1.4111,1.9756,neutral,right,,,,,,stimulusFile/physical.xlsx,,,,,,,,,,,,,,,,,,,,,,,,,,,,,,,
,,,,,,,,,,,,,,,813,2022-01-15_21h23.43.133,multiplicationStroop,2021.2.3,Win32,60.01680471,,,,,left,1,0.6459,0,46,46,32,1,1,3,1 | 3,2,1.9756,1.4111,incongruent,left,,,,,,stimulusFile/physical.xlsx,,,,,,,,,,,,,,,,,,,,,,,,,,,,,,,
,,,,,,,,,,,,,,,813,2022-01-15_21h23.43.133,multiplicationStroop,2021.2.3,Win32,60.01680471,,,,,left,1,0.4599,0,47,47,21,1,7,2,7 | 2,5,1.9756,1.4111,congruent,left,,,,,,stimulusFile/physical.xlsx,,,,,,,,,,,,,,,,,,,,,,,,,,,,,,,
,,,,,,,,,,,,,,,813,2022-01-15_21h23.43.133,multiplicationStroop,2021.2.3,Win32,60.01680471,,,,,right,1,0.544,0,48,48,45,1,7,2,7 | 2,5,1.4111,1.9756,incongruent,right,,,,,,stimulusFile/physical.xlsx,,,,,,,,,,,,,,,,,,,,,,,,,,,,,,,
,,,,,,,,,,,,,,,813,2022-01-15_21h23.43.133,multiplicationStroop,2021.2.3,Win32,60.01680471,,,,,right,1,0.6762,0,49,49,28,1,2,1,2 | 1,1,1.4111,1.9756,incongruent,right,,,,,,stimulusFile/physical.xlsx,,,,,,,,,,,,,,,,,,,,,,,,,,,,,,,
,,,,,,,,,,,,,,,813,2022-01-15_21h23.43.133,multiplicationStroop,2021.2.3,Win32,60.01680471,,,,,right,1,0.5121,0,50,50,59,1,7,7,7 | 7,0,1.4111,1.9756,neutral,right,,,,,,stimulusFile/physical.xlsx,,,,,,,,,,,,,,,,,,,,,,,,,,,,,,,
,,,,,,,,,,,,,,,813,2022-01-15_21h23.43.133,multiplicationStroop,2021.2.3,Win32,60.01680471,,,,,right,1,0.5396,0,51,51,19,1,4,9,4 | 9,5,1.4111,1.9756,congruent,right,,,,,,stimulusFile/physical.xlsx,,,,,,,,,,,,,,,,,,,,,,,,,,,,,,,
,,,,,,,,,,,,,,,813,2022-01-15_21h23.43.133,multiplicationStroop,2021.2.3,Win32,60.01680471,,,,,right,1,0.5604,0,52,52,39,1,9,7,9 | 7,2,1.4111,1.9756,incongruent,right,,,,,,stimulusFile/physical.xlsx,,,,,,,,,,,,,,,,,,,,,,,,,,,,,,,
,,,,,,,,,,,,,,,813,2022-01-15_21h23.43.133,multiplicationStroop,2021.2.3,Win32,60.01680471,,,,,left,1,0.6419,0,53,53,25,1,3,4,3 | 4,1,1.9756,1.4111,incongruent,left,,,,,,stimulusFile/physical.xlsx,,,,,,,,,,,,,,,,,,,,,,,,,,,,,,,
,,,,,,,,,,,,,,,813,2022-01-15_21h23.43.133,multiplicationStroop,2021.2.3,Win32,60.01680471,,,,,left,1,0.5499,0,54,54,42,1,3,8,3 | 8,5,1.9756,1.4111,incongruent,left,,,,,,stimulusFile/physical.xlsx,,,,,,,,,,,,,,,,,,,,,,,,,,,,,,,
,,,,,,,,,,,,,,,813,2022-01-15_21h23.43.133,multiplicationStroop,2021.2.3,Win32,60.01680471,,,,,right,1,0.5586,0,55,55,1,1,3,4,3 | 4,1,1.4111,1.9756,congruent,right,,,,,,stimulusFile/physical.xlsx,,,,,,,,,,,,,,,,,,,,,,,,,,,,,,,
,,,,,,,,,,,,,,,813,2022-01-15_21h23.43.133,multiplicationStroop,2021.2.3,Win32,60.01680471,,,,,left,1,0.5391,0,56,56,22,1,8,3,8 | 3,5,1.9756,1.4111,congruent,left,,,,,,stimulusFile/physical.xlsx,,,,,,,,,,,,,,,,,,,,,,,,,,,,,,,
,,,,,,,,,,,,,,,813,2022-01-15_21h23.43.133,multiplicationStroop,2021.2.3,Win32,60.01680471,,,,,right,1,0.7649,0,57,57,46,1,8,3,8 | 3,5,1.4111,1.9756,incongruent,right,,,,,,stimulusFile/physical.xlsx,,,,,,,,,,,,,,,,,,,,,,,,,,,,,,,
,,,,,,,,,,,,,,,813,2022-01-15_21h23.43.133,multiplicationStroop,2021.2.3,Win32,60.01680471,,,,,right,1,0.6257,0,58,58,38,1,8,6,8 | 6,2,1.4111,1.9756,incongruent,right,,,,,,stimulusFile/physical.xlsx,,,,,,,,,,,,,,,,,,,,,,,,,,,,,,,
,,,,,,,,,,,,,,,813,2022-01-15_21h23.43.133,multiplicationStroop,2021.2.3,Win32,60.01680471,,,,,right,1,0.5093,0,59,59,0,1,1,2,1 | 2,1,1.4111,1.9756,congruent,right,,,,,,stimulusFile/physical.xlsx,,,,,,,,,,,,,,,,,,,,,,,,,,,,,,,
,,,,,,,,,,,,,,,813,2022-01-15_21h23.43.133,multiplicationStroop,2021.2.3,Win32,60.01680471,,,,,right,1,0.9263,0,60,60,44,1,6,1,6 | 1,5,1.4111,1.9756,incongruent,right,,,,,,stimulusFile/physical.xlsx,,,,,,,,,,,,,,,,,,,,,,,,,,,,,,,
,,,,,,,,,,,,,,,813,2022-01-15_21h23.43.133,multiplicationStroop,2021.2.3,Win32,60.01680471,,,,,left,1,0.6521,0,61,61,35,1,7,9,7 | 9,2,1.9756,1.4111,incongruent,left,,,,,,stimulusFile/physical.xlsx,,,,,,,,,,,,,,,,,,,,,,,,,,,,,,,
,,,,,,,,,,,,,,,813,2022-01-15_21h23.43.133,multiplicationStroop,2021.2.3,Win32,60.01680471,,,,,right,1,0.5246,0,62,62,62,1,8,8,8 | 8,0,1.4111,1.9756,neutral,right,,,,,,stimulusFile/physical.xlsx,,,,,,,,,,,,,,,,,,,,,,,,,,,,,,,
,,,,,,,,,,,,,,,813,2022-01-15_21h23.43.133,multiplicationStroop,2021.2.3,Win32,60.01680471,,,,,left,1,0.5758,0,63,63,49,1,3,3,3 | 3,0,1.9756,1.4111,neutral,left,,,,,,stimulusFile/physical.xlsx,,,,,,,,,,,,,,,,,,,,,,,,,,,,,,,
,,,,,,,,,,,,,,,813,2022-01-15_21h23.43.133,multiplicationStroop,2021.2.3,Win32,60.01680471,,,,,right,1,0.5241,0,64,64,30,1,7,6,7 | 6,1,1.4111,1.9756,incongruent,right,,,,,,stimulusFile/physical.xlsx,,,,,,,,,,,,,,,,,,,,,,,,,,,,,,,
,,,,,,,,,,,,,,,813,2022-01-15_21h23.43.133,multiplicationStroop,2021.2.3,Win32,60.01680471,,,,,left,1,0.624,0,65,65,68,1,6,6,6 | 6,0,1.9756,1.4111,neutral,left,,,,,,stimulusFile/physical.xlsx,,,,,,,,,,,,,,,,,,,,,,,,,,,,,,,
,,,,,,,,,,,,,,,813,2022-01-15_21h23.43.133,multiplicationStroop,2021.2.3,Win32,60.01680471,,,,,right,1,0.4574,0,66,66,18,1,3,8,3 | 8,5,1.4111,1.9756,congruent,right,,,,,,stimulusFile/physical.xlsx,,,,,,,,,,,,,,,,,,,,,,,,,,,,,,,
,,,,,,,,,,,,,,,813,2022-01-15_21h23.43.133,multiplicationStroop,2021.2.3,Win32,60.01680471,,,,,right,1,0.5412,0,67,67,65,1,2,2,2 | 2,0,1.4111,1.9756,neutral,right,,,,,,stimulusFile/physical.xlsx,,,,,,,,,,,,,,,,,,,,,,,,,,,,,,,
,,,,,,,,,,,,,,,813,2022-01-15_21h23.43.133,multiplicationStroop,2021.2.3,Win32,60.01680471,,,,,right,1,0.5342,0,68,68,17,1,2,7,2 | 7,5,1.4111,1.9756,congruent,right,,,,,,stimulusFile/physical.xlsx,,,,,,,,,,,,,,,,,,,,,,,,,,,,,,,
,,,,,,,,,,,,,,,813,2022-01-15_21h23.43.133,multiplicationStroop,2021.2.3,Win32,60.01680471,,,,,left,0,0.5446,0,69,69,66,1,3,3,3 | 3,0,1.9756,1.4111,neutral,right,,,,,,stimulusFile/physical.xlsx,,,,,,,,,,,,,,,,,,,,,,,,,,,,,,,
,,,,,,,,,,,,,,,813,2022-01-15_21h23.43.133,multiplicationStroop,2021.2.3,Win32,60.01680471,,,,,left,1,0.4742,0,70,70,52,1,2,2,2 | 2,0,1.9756,1.4111,neutral,left,,,,,,stimulusFile/physical.xlsx,,,,,,,,,,,,,,,,,,,,,,,,,,,,,,,
,,,,,,,,,,,,,,,813,2022-01-15_21h23.43.133,multiplicationStroop,2021.2.3,Win32,60.01680471,,,,,left,1,0.4299,0,71,71,12,1,3,1,3 | 1,2,1.9756,1.4111,congruent,left,,,,,,stimulusFile/physical.xlsx,,,,,,,,,,,,,,,,,,,,,,,,,,,,,,,
,,,,,,,,,,,,,,,813,2022-01-15_21h23.43.133,multiplicationStroop,2021.2.3,Win32,60.01680471,,,,,,,,,,,,,,,,,,,,,0,1,1,1,1,stimulusFile/physical.xlsx,PHYSICALLY larger (larger font size).,images/physicallyLarger.png,,,,,,,,,,,,,,,,,,,,,,,,,,,,,
,,,,,,,,,,,,,,,813,2022-01-15_21h23.43.133,multiplicationStroop,2021.2.3,Win32,60.01680471,,,,,,,,,,,,,,,,,,,,,,,,,,,,,space,14.3957,space,2.6185,18,3.2412,1,0,0,0,8,1,2,×,9,2 × 9,congruent,smallerFirst,1,2,18,,,,,,,,
,,,,,,,,,,,,,,,813,2022-01-15_21h23.43.133,multiplicationStroop,2021.2.3,Win32,60.01680471,,,,,,,,,,,,,,,,,,,,,,,,,,,,,,,,,42,2.7634,1,0,1,1,17,1,7,×,6,7 × 6,congruent,largerFirst,2,1,42,,,,,,,,
,,,,,,,,,,,,,,,813,2022-01-15_21h23.43.133,multiplicationStroop,2021.2.3,Win32,60.01680471,,,,,,,,,,,,,,,,,,,,,,,,,,,,,,,,,54,1.9523,1,0,2,2,26,1,9,×,6,9 × 6,congruent,largerFirst,2,1,54,,,,,,,,
,,,,,,,,,,,,,,,813,2022-01-15_21h23.43.133,multiplicationStroop,2021.2.3,Win32,60.01680471,,,,,,,,,,,,,,,,,,,,,,,,,,,,,,,,,36,2.1647,1,0,3,3,32,1,6,×,6,6 × 6,neutral,tie,1,2,36,,,,,,,,
,,,,,,,,,,,,,,,813,2022-01-15_21h23.43.133,multiplicationStroop,2021.2.3,Win32,60.01680471,,,,,,,,,,,,,,,,,,,,,,,,,,,,,,,,,48,2.2978,1,0,4,4,4,1,6,×,8,6 × 8,congruent,smallerFirst,1,2,48,,,,,,,,
,,,,,,,,,,,,,,,813,2022-01-15_21h23.43.133,multiplicationStroop,2021.2.3,Win32,60.01680471,,,,,,,,,,,,,,,,,,,,,,,,,,,,,,,,,9,1.7148,1,0,5,5,29,1,3,×,3,3 × 3,neutral,tie,1,2,9,,,,,,,,
,,,,,,,,,,,,,,,813,2022-01-15_21h23.43.133,multiplicationStroop,2021.2.3,Win32,60.01680471,,,,,,,,,,,,,,,,,,,,,,,,,,,,,,,,,14,1.7815,1,0,6,6,0,1,2,×,7,2 × 7,congruent,smallerFirst,1,2,14,,,,,,,,
,,,,,,,,,,,,,,,813,2022-01-15_21h23.43.133,multiplicationStroop,2021.2.3,Win32,60.01680471,,,,,,,,,,,,,,,,,,,,,,,,,,,,,,,,,40,2.1814,1,0,7,7,20,1,8,×,5,8 × 5,congruent,largerFirst,2,1,40,,,,,,,,
,,,,,,,,,,,,,,,813,2022-01-15_21h23.43.133,multiplicationStroop,2021.2.3,Win32,60.01680471,,,,,,,,,,,,,,,,,,,,,,,,,,,,,,,,,24,2.2481,1,0,8,8,24,1,8,×,3,8 × 3,congruent,largerFirst,2,1,24,,,,,,,,
,,,,,,,,,,,,,,,813,2022-01-15_21h23.43.133,multiplicationStroop,2021.2.3,Win32,60.01680471,,,,,,,,,,,,,,,,,,,,,,,,,,,,,,,,,10,1.9482,1,0,9,9,10,1,2,×,5,2 × 5,congruent,smallerFirst,1,2,10,,,,,,,,
,,,,,,,,,,,,,,,813,2022-01-15_21h23.43.133,multiplicationStroop,2021.2.3,Win32,60.01680471,,,,,,,,,,,,,,,,,,,,,,,,,,,,,,,,,18,1.9654,1,0,10,10,25,1,6,×,3,6 × 3,congruent,largerFirst,2,1,18,,,,,,,,
,,,,,,,,,,,,,,,813,2022-01-15_21h23.43.133,multiplicationStroop,2021.2.3,Win32,60.01680471,,,,,,,,,,,,,,,,,,,,,,,,,,,,,,,,,25,2.4462,1,0,11,11,31,1,5,×,5,5 × 5,neutral,tie,1,2,25,,,,,,,,
,,,,,,,,,,,,,,,813,2022-01-15_21h23.43.133,multiplicationStroop,2021.2.3,Win32,60.01680471,,,,,,,,,,,,,,,,,,,,,,,,,,,,,,,,,21,1.9315,1,0,12,12,2,1,3,×,7,3 × 7,congruent,smallerFirst,1,2,21,,,,,,,,
,,,,,,,,,,,,,,,813,2022-01-15_21h23.43.133,multiplicationStroop,2021.2.3,Win32,60.01680471,,,,,,,,,,,,,,,,,,,,,,,,,,,,,,,,,32,1.856,1,0,13,13,6,1,4,×,8,4 × 8,congruent,smallerFirst,1,2,32,,,,,,,,
,,,,,,,,,,,,,,,813,2022-01-15_21h23.43.133,multiplicationStroop,2021.2.3,Win32,60.01680471,,,,,,,,,,,,,,,,,,,,,,,,,,,,,,,,,4,1.6649,1,0,14,14,28,1,2,×,2,2 × 2,neutral,tie,1,2,4,,,,,,,,
,,,,,,,,,,,,,,,813,2022-01-15_21h23.43.133,multiplicationStroop,2021.2.3,Win32,60.01680471,,,,,,,,,,,,,,,,,,,,,,,,,,,,,,,,,56,1.9332,1,0,15,15,22,1,8,×,7,8 × 7,congruent,largerFirst,2,1,56,,,,,,,,
,,,,,,,,,,,,,,,813,2022-01-15_21h23.43.133,multiplicationStroop,2021.2.3,Win32,60.01680471,,,,,,,,,,,,,,,,,,,,,,,,,,,,,,,,,15,1.9069,1,0,16,16,18,1,5,×,3,5 × 3,congruent,largerFirst,2,1,15,,,,,,,,
,,,,,,,,,,,,,,,813,2022-01-15_21h23.43.133,multiplicationStroop,2021.2.3,Win32,60.01680471,,,,,,,,,,,,,,,,,,,,,,,,,,,,,,,,,72,1.9878,1,0,17,17,3,1,8,×,9,8 × 9,congruent,smallerFirst,1,2,72,,,,,,,,
,,,,,,,,,,,,,,,813,2022-01-15_21h23.43.133,multiplicationStroop,2021.2.3,Win32,60.01680471,,,,,,,,,,,,,,,,,,,,,,,,,,,,,,,,,30,2.0315,1,0,18,18,1,1,5,×,6,5 × 6,congruent,smallerFirst,1,2,30,,,,,,,,
,,,,,,,,,,,,,,,813,2022-01-15_21h23.43.133,multiplicationStroop,2021.2.3,Win32,60.01680471,,,,,,,,,,,,,,,,,,,,,,,,,,,,,,,,,16,1.9816,1,0,19,19,30,1,4,×,4,4 × 4,neutral,tie,1,2,16,,,,,,,,
,,,,,,,,,,,,,,,813,2022-01-15_21h23.43.133,multiplicationStroop,2021.2.3,Win32,60.01680471,,,,,,,,,,,,,,,,,,,,,,,,,,,,,,,,,8,1.6481,1,0,20,20,23,1,4,×,2,4 × 2,congruent,largerFirst,2,1,8,,,,,,,,
,,,,,,,,,,,,,,,813,2022-01-15_21h23.43.133,multiplicationStroop,2021.2.3,Win32,60.01680471,,,,,,,,,,,,,,,,,,,,,,,,,,,,,,,,,12,1.7486,1,0,21,21,16,1,4,×,3,4 × 3,congruent,largerFirst,2,1,12,,,,,,,,
,,,,,,,,,,,,,,,813,2022-01-15_21h23.43.133,multiplicationStroop,2021.2.3,Win32,60.01680471,,,,,,,,,,,,,,,,,,,,,,,,,,,,,,,,,6,1.8743,1,0,22,22,27,1,3,×,2,3 × 2,congruent,largerFirst,2,1,6,,,,,,,,
,,,,,,,,,,,,,,,813,2022-01-15_21h23.43.133,multiplicationStroop,2021.2.3,Win32,60.01680471,,,,,,,,,,,,,,,,,,,,,,,,,,,,,,,,,12,1.9537,1,0,23,23,5,1,2,×,6,2 × 6,congruent,smallerFirst,1,2,12,,,,,,,,
,,,,,,,,,,,,,,,813,2022-01-15_21h23.43.133,multiplicationStroop,2021.2.3,Win32,60.01680471,,,,,,,,,,,,,,,,,,,,,,,,,,,,,,,,,20,1.7755,1,0,24,24,21,1,5,×,4,5 × 4,congruent,largerFirst,2,1,20,,,,,,,,
,,,,,,,,,,,,,,,813,2022-01-15_21h23.43.133,multiplicationStroop,2021.2.3,Win32,60.01680471,,,,,,,,,,,,,,,,,,,,,,,,,,,,,,,,,45,1.9871,1,0,25,25,9,1,5,×,9,5 × 9,congruent,smallerFirst,1,2,45,,,,,,,,
,,,,,,,,,,,,,,,813,2022-01-15_21h23.43.133,multiplicationStroop,2021.2.3,Win32,60.01680471,,,,,,,,,,,,,,,,,,,,,,,,,,,,,,,,,49,1.9578,1,0,26,26,33,1,7,×,7,7 × 7,neutral,tie,1,2,49,,,,,,,,
,,,,,,,,,,,,,,,813,2022-01-15_21h23.43.133,multiplicationStroop,2021.2.3,Win32,60.01680471,,,,,,,,,,,,,,,,,,,,,,,,,,,,,,,,,81,2.0871,1,0,27,27,35,1,9,×,9,9 × 9,neutral,tie,1,2,81,,,,,,,,
,,,,,,,,,,,,,,,813,2022-01-15_21h23.43.133,multiplicationStroop,2021.2.3,Win32,60.01680471,,,,,,,,,,,,,,,,,,,,,,,,,,,,,,,,,24,2.199,1,0,28,28,11,1,4,×,6,4 × 6,congruent,smallerFirst,1,2,24,,,,,,,,
,,,,,,,,,,,,,,,813,2022-01-15_21h23.43.133,multiplicationStroop,2021.2.3,Win32,60.01680471,,,,,,,,,,,,,,,,,,,,,,,,,,,,,,,,,36,2.0071,1,0,29,29,14,1,9,×,4,9 × 4,congruent,largerFirst,2,1,36,,,,,,,,
,,,,,,,,,,,,,,,813,2022-01-15_21h23.43.133,multiplicationStroop,2021.2.3,Win32,60.01680471,,,,,,,,,,,,,,,,,,,,,,,,,,,,,,,,,28,2.17,1,0,30,30,13,1,4,×,7,4 × 7,congruent,smallerFirst,1,2,28,,,,,,,,
,,,,,,,,,,,,,,,813,2022-01-15_21h23.43.133,multiplicationStroop,2021.2.3,Win32,60.01680471,,,,,,,,,,,,,,,,,,,,,,,,,,,,,,,,,63,2.1989,1,0,31,31,7,1,7,×,9,7 × 9,congruent,smallerFirst,1,2,63,,,,,,,,
,,,,,,,,,,,,,,,813,2022-01-15_21h23.43.133,multiplicationStroop,2021.2.3,Win32,60.01680471,,,,,,,,,,,,,,,,,,,,,,,,,,,,,,,,,27,5.3508,1,0,32,32,12,1,3,×,9,3 × 9,congruent,smallerFirst,1,2,27,,,,,,,,
,,,,,,,,,,,,,,,813,2022-01-15_21h23.43.133,multiplicationStroop,2021.2.3,Win32,60.01680471,,,,,,,,,,,,,,,,,,,,,,,,,,,,,,,,,64,2.3177,1,0,33,33,34,1,8,×,8,8 × 8,neutral,tie,1,2,64,,,,,,,,
,,,,,,,,,,,,,,,813,2022-01-15_21h23.43.133,multiplicationStroop,2021.2.3,Win32,60.01680471,,,,,,,,,,,,,,,,,,,,,,,,,,,,,,,,,16,2.0155,1,0,34,34,19,1,8,×,2,8 × 2,congruent,largerFirst,2,1,16,,,,,,,,
,,,,,,,,,,,,,,,813,2022-01-15_21h23.43.133,multiplicationStroop,2021.2.3,Win32,60.01680471,,,,,,,,,,,,,,,,,,,,,,,,,,,,,,,,,35,1.7745,1,0,35,35,15,1,7,×,5,7 × 5,congruent,largerFirst,2,1,35,,,,,,,,
,,,,,,,,,,,,,,,813,2022-01-15_21h23.43.133,multiplicationStroop,2021.2.3,Win32,60.01680471,,,,,,,,,,,,,,,,,,,,,,,,,,,,,,,,,,,,,,,,,,,,,,,,,,0,0,0,3,1,stimulusFile/mult_blk4_congruent.xlsx,,
,,,,,,,,,,,,,,,813,2022-01-15_21h23.43.133,multiplicationStroop,2021.2.3,Win32,60.01680471,,,,,,,,,,,,,,,,,,,,,,,,,,,,,,,space,3.1499,20,1.8372,1,0,0,0,6,1,4,×,5,4 × 5,neutral,smallerFirst,1.5,1.5,20,,,,,,,,
,,,,,,,,,,,,,,,813,2022-01-15_21h23.43.133,multiplicationStroop,2021.2.3,Win32,60.01680471,,,,,,,,,,,,,,,,,,,,,,,,,,,,,,,,,18,1.6818,1,0,1,1,4,1,2,×,9,2 × 9,neutral,smallerFirst,1.5,1.5,18,,,,,,,,
,,,,,,,,,,,,,,,813,2022-01-15_21h23.43.133,multiplicationStroop,2021.2.3,Win32,60.01680471,,,,,,,,,,,,,,,,,,,,,,,,,,,,,,,,,49,2.0481,1,0,2,2,33,1,7,×,7,7 × 7,neutral,tie,1.5,1.5,49,,,,,,,,
,,,,,,,,,,,,,,,813,2022-01-15_21h23.43.133,multiplicationStroop,2021.2.3,Win32,60.01680471,,,,,,,,,,,,,,,,,,,,,,,,,,,,,,,,,16,1.8479,1,0,3,3,27,1,8,×,2,8 × 2,neutral,largerFirst,1.5,1.5,16,,,,,,,,
,,,,,,,,,,,,,,,813,2022-01-15_21h23.43.133,multiplicationStroop,2021.2.3,Win32,60.01680471,,,,,,,,,,,,,,,,,,,,,,,,,,,,,,,,,8,1.7151,1,0,4,4,17,1,4,×,2,4 × 2,neutral,largerFirst,1.5,1.5,8,,,,,,,,
,,,,,,,,,,,,,,,813,2022-01-15_21h23.43.133,multiplicationStroop,2021.2.3,Win32,60.01680471,,,,,,,,,,,,,,,,,,,,,,,,,,,,,,,,,35,1.9483,1,0,5,5,15,1,7,×,5,7 × 5,neutral,largerFirst,1.5,1.5,35,,,,,,,,
,,,,,,,,,,,,,,,813,2022-01-15_21h23.43.133,multiplicationStroop,2021.2.3,Win32,60.01680471,,,,,,,,,,,,,,,,,,,,,,,,,,,,,,,,,48,2.0816,1,0,6,6,1,1,6,×,8,6 × 8,neutral,smallerFirst,1.5,1.5,48,,,,,,,,
,,,,,,,,,,,,,,,813,2022-01-15_21h23.43.133,multiplicationStroop,2021.2.3,Win32,60.01680471,,,,,,,,,,,,,,,,,,,,,,,,,,,,,,,,,63,2.2482,1,0,7,7,26,1,9,×,7,9 × 7,neutral,largerFirst,1.5,1.5,63,,,,,,,,
,,,,,,,,,,,,,,,813,2022-01-15_21h23.43.133,multiplicationStroop,2021.2.3,Win32,60.01680471,,,,,,,,,,,,,,,,,,,,,,,,,,,,,,,,,27,3.0503,1,0,8,8,0,1,3,×,9,3 × 9,neutral,smallerFirst,1.5,1.5,27,,,,,,,,
,,,,,,,,,,,,,,,813,2022-01-15_21h23.43.133,multiplicationStroop,2021.2.3,Win32,60.01680471,,,,,,,,,,,,,,,,,,,,,,,,,,,,,,,,,45,2.3647,1,0,9,9,24,1,9,×,5,9 × 5,neutral,largerFirst,1.5,1.5,45,,,,,,,,
,,,,,,,,,,,,,,,813,2022-01-15_21h23.43.133,multiplicationStroop,2021.2.3,Win32,60.01680471,,,,,,,,,,,,,,,,,,,,,,,,,,,,,,,,,42,3.1979,1,0,10,10,20,1,7,×,6,7 × 6,neutral,largerFirst,1.5,1.5,42,,,,,,,,
,,,,,,,,,,,,,,,813,2022-01-15_21h23.43.133,multiplicationStroop,2021.2.3,Win32,60.01680471,,,,,,,,,,,,,,,,,,,,,,,,,,,,,,,,,12,1.602,1,0,11,11,7,1,3,×,4,3 × 4,neutral,smallerFirst,1.5,1.5,12,,,,,,,,
,,,,,,,,,,,,,,,813,2022-01-15_21h23.43.133,multiplicationStroop,2021.2.3,Win32,60.01680471,,,,,,,,,,,,,,,,,,,,,,,,,,,,,,,,,36,1.9982,1,0,12,12,32,1,6,×,6,6 × 6,neutral,tie,1.5,1.5,36,,,,,,,,
,,,,,,,,,,,,,,,813,2022-01-15_21h23.43.133,multiplicationStroop,2021.2.3,Win32,60.01680471,,,,,,,,,,,,,,,,,,,,,,,,,,,,,,,,,36,2.3309,1,0,13,13,13,1,4,×,9,4 × 9,neutral,smallerFirst,1.5,1.5,36,,,,,,,,
,,,,,,,,,,,,,,,813,2022-01-15_21h23.43.133,multiplicationStroop,2021.2.3,Win32,60.01680471,,,,,,,,,,,,,,,,,,,,,,,,,,,,,,,,,9,1.7148,1,0,14,14,29,1,3,×,3,3 × 3,neutral,tie,1.5,1.5,9,,,,,,,,
,,,,,,,,,,,,,,,813,2022-01-15_21h23.43.133,multiplicationStroop,2021.2.3,Win32,60.01680471,,,,,,,,,,,,,,,,,,,,,,,,,,,,,,,,,40,1.9818,1,0,15,15,10,1,5,×,8,5 × 8,neutral,smallerFirst,1.5,1.5,40,,,,,,,,
,,,,,,,,,,,,,,,813,2022-01-15_21h23.43.133,multiplicationStroop,2021.2.3,Win32,60.01680471,,,,,,,,,,,,,,,,,,,,,,,,,,,,,,,,,28,2.014,1,0,16,16,3,1,4,×,7,4 × 7,neutral,smallerFirst,1.5,1.5,28,,,,,,,,
,,,,,,,,,,,,,,,813,2022-01-15_21h23.43.133,multiplicationStroop,2021.2.3,Win32,60.01680471,,,,,,,,,,,,,,,,,,,,,,,,,,,,,,,,,56,2.2143,1,0,17,17,23,1,8,×,7,8 × 7,neutral,largerFirst,1.5,1.5,56,,,,,,,,
,,,,,,,,,,,,,,,813,2022-01-15_21h23.43.133,multiplicationStroop,2021.2.3,Win32,60.01680471,,,,,,,,,,,,,,,,,,,,,,,,,,,,,,,,,72,2.4312,1,0,18,18,25,1,9,×,8,9 × 8,neutral,largerFirst,1.5,1.5,72,,,,,,,,
,,,,,,,,,,,,,,,813,2022-01-15_21h23.43.133,multiplicationStroop,2021.2.3,Win32,60.01680471,,,,,,,,,,,,,,,,,,,,,,,,,,,,,,,,,18,1.8986,1,0,19,19,14,1,6,×,3,6 × 3,neutral,largerFirst,1.5,1.5,18,,,,,,,,
,,,,,,,,,,,,,,,813,2022-01-15_21h23.43.133,multiplicationStroop,2021.2.3,Win32,60.01680471,,,,,,,,,,,,,,,,,,,,,,,,,,,,,,,,,10,2.2809,1,0,20,20,18,1,5,×,2,5 × 2,neutral,largerFirst,1.5,1.5,10,,,,,,,,
,,,,,,,,,,,,,,,813,2022-01-15_21h23.43.133,multiplicationStroop,2021.2.3,Win32,60.01680471,,,,,,,,,,,,,,,,,,,,,,,,,,,,,,,,,15,2.3315,1,0,21,21,19,1,5,×,3,5 × 3,neutral,largerFirst,1.5,1.5,15,,,,,,,,
,,,,,,,,,,,,,,,813,2022-01-15_21h23.43.133,multiplicationStroop,2021.2.3,Win32,60.01680471,,,,,,,,,,,,,,,,,,,,,,,,,,,,,,,,,24,1.9482,1,0,22,22,16,1,6,×,4,6 × 4,neutral,largerFirst,1.5,1.5,24,,,,,,,,
,,,,,,,,,,,,,,,813,2022-01-15_21h23.43.133,multiplicationStroop,2021.2.3,Win32,60.01680471,,,,,,,,,,,,,,,,,,,,,,,,,,,,,,,,,16,2.2314,1,0,23,23,30,1,4,×,4,4 × 4,neutral,tie,1.5,1.5,16,,,,,,,,
,,,,,,,,,,,,,,,813,2022-01-15_21h23.43.133,multiplicationStroop,2021.2.3,Win32,60.01680471,,,,,,,,,,,,,,,,,,,,,,,,,,,,,,,,,21,1.7647,1,0,24,24,22,1,7,×,3,7 × 3,neutral,largerFirst,1.5,1.5,21,,,,,,,,
,,,,,,,,,,,,,,,813,2022-01-15_21h23.43.133,multiplicationStroop,2021.2.3,Win32,60.01680471,,,,,,,,,,,,,,,,,,,,,,,,,,,,,,,,,24,2.0318,1,0,25,25,8,1,3,×,8,3 × 8,neutral,smallerFirst,1.5,1.5,24,,,,,,,,
,,,,,,,,,,,,,,,813,2022-01-15_21h23.43.133,multiplicationStroop,2021.2.3,Win32,60.01680471,,,,,,,,,,,,,,,,,,,,,,,,,,,,,,,,,25,2.0645,1,0,26,26,31,1,5,×,5,5 × 5,neutral,tie,1.5,1.5,25,,,,,,,,
,,,,,,,,,,,,,,,813,2022-01-15_21h23.43.133,multiplicationStroop,2021.2.3,Win32,60.01680471,,,,,,,,,,,,,,,,,,,,,,,,,,,,,,,,,6,1.9315,1,0,27,27,12,1,2,×,3,2 × 3,neutral,smallerFirst,1.5,1.5,6,,,,,,,,
,,,,,,,,,,,,,,,813,2022-01-15_21h23.43.133,multiplicationStroop,2021.2.3,Win32,60.01680471,,,,,,,,,,,,,,,,,,,,,,,,,,,,,,,,,32,2.2815,1,0,28,28,9,1,4,×,8,4 × 8,neutral,smallerFirst,1.5,1.5,32,,,,,,,,
,,,,,,,,,,,,,,,813,2022-01-15_21h23.43.133,multiplicationStroop,2021.2.3,Win32,60.01680471,,,,,,,,,,,,,,,,,,,,,,,,,,,,,,,,,54,2.0147,1,0,29,29,21,1,9,×,6,9 × 6,neutral,largerFirst,1.5,1.5,54,,,,,,,,
,,,,,,,,,,,,,,,813,2022-01-15_21h23.43.133,multiplicationStroop,2021.2.3,Win32,60.01680471,,,,,,,,,,,,,,,,,,,,,,,,,,,,,,,,,30,2.0772,1,0,30,30,5,1,5,×,6,5 × 6,neutral,smallerFirst,1.5,1.5,30,,,,,,,,
,,,,,,,,,,,,,,,813,2022-01-15_21h23.43.133,multiplicationStroop,2021.2.3,Win32,60.01680471,,,,,,,,,,,,,,,,,,,,,,,,,,,,,,,,,64,2.0147,1,0,31,31,34,1,8,×,8,8 × 8,neutral,tie,1.5,1.5,64,,,,,,,,
,,,,,,,,,,,,,,,813,2022-01-15_21h23.43.133,multiplicationStroop,2021.2.3,Win32,60.01680471,,,,,,,,,,,,,,,,,,,,,,,,,,,,,,,,,81,2.3978,1,0,32,32,35,1,9,×,9,9 × 9,neutral,tie,1.5,1.5,81,,,,,,,,
,,,,,,,,,,,,,,,813,2022-01-15_21h23.43.133,multiplicationStroop,2021.2.3,Win32,60.01680471,,,,,,,,,,,,,,,,,,,,,,,,,,,,,,,,,4,1.5357,1,0,33,33,28,1,2,×,2,2 × 2,neutral,tie,1.5,1.5,4,,,,,,,,
,,,,,,,,,,,,,,,813,2022-01-15_21h23.43.133,multiplicationStroop,2021.2.3,Win32,60.01680471,,,,,,,,,,,,,,,,,,,,,,,,,,,,,,,,,12,1.898,1,0,34,34,11,1,2,×,6,2 × 6,neutral,smallerFirst,1.5,1.5,12,,,,,,,,
,,,,,,,,,,,,,,,813,2022-01-15_21h23.43.133,multiplicationStroop,2021.2.3,Win32,60.01680471,,,,,,,,,,,,,,,,,,,,,,,,,,,,,,,,,14,1.765,1,0,35,35,2,1,2,×,7,2 × 7,neutral,smallerFirst,1.5,1.5,14,,,,,,,,
,,,,,,,,,,,,,,,813,2022-01-15_21h23.43.133,multiplicationStroop,2021.2.3,Win32,60.01680471,,,,,,,,,,,,,,,,,,,,,,,,,,,,,,,,,,,,,,,,,,,,,,,,,,0,1,1,0,1,stimulusFile/mult_blk1.xlsx,,
,,,,,,,,,,,,,,,813,2022-01-15_21h23.43.133,multiplicationStroop,2021.2.3,Win32,60.01680471,,,,,,,,,,,,,,,,,,,,,,,,,,,,,,,space,3.0001,18,2.3827,1,0,0,0,22,1,9,×,2,9 × 2,congruent,largerFirst,2,1,18,,,,,,,,
,,,,,,,,,,,,,,,813,2022-01-15_21h23.43.133,multiplicationStroop,2021.2.3,Win32,60.01680471,,,,,,,,,,,,,,,,,,,,,,,,,,,,,,,,,54,2.2309,1,0,1,1,12,1,6,×,9,6 × 9,congruent,smallerFirst,1,2,54,,,,,,,,
,,,,,,,,,,,,,,,813,2022-01-15_21h23.43.133,multiplicationStroop,2021.2.3,Win32,60.01680471,,,,,,,,,,,,,,,,,,,,,,,,,,,,,,,,,36,2.1992,1,0,2,2,0,1,4,×,9,4 × 9,congruent,smallerFirst,1,2,36,,,,,,,,
,,,,,,,,,,,,,,,813,2022-01-15_21h23.43.133,multiplicationStroop,2021.2.3,Win32,60.01680471,,,,,,,,,,,,,,,,,,,,,,,,,,,,,,,,,28,1.9979,0,0,3,3,11,1,3,×,6,3 × 6,congruent,smallerFirst,1,2,18,,,,,,,,
,,,,,,,,,,,,,,,813,2022-01-15_21h23.43.133,multiplicationStroop,2021.2.3,Win32,60.01680471,,,,,,,,,,,,,,,,,,,,,,,,,,,,,,,,,25,2.2318,1,0,4,4,31,1,5,×,5,5 × 5,neutral,tie,2,1,25,,,,,,,,
,,,,,,,,,,,,,,,813,2022-01-15_21h23.43.133,multiplicationStroop,2021.2.3,Win32,60.01680471,,,,,,,,,,,,,,,,,,,,,,,,,,,,,,,,,12,1.7496,1,0,5,5,19,1,6,×,2,6 × 2,congruent,largerFirst,2,1,12,,,,,,,,
,,,,,,,,,,,,,,,813,2022-01-15_21h23.43.133,multiplicationStroop,2021.2.3,Win32,60.01680471,,,,,,,,,,,,,,,,,,,,,,,,,,,,,,,,,20,2.3237,1,0,6,6,7,1,4,×,5,4 × 5,congruent,smallerFirst,1,2,20,,,,,,,,
,,,,,,,,,,,,,,,813,2022-01-15_21h23.43.133,multiplicationStroop,2021.2.3,Win32,60.01680471,,,,,,,,,,,,,,,,,,,,,,,,,,,,,,,,,24,1.9375,1,0,7,7,25,1,6,×,4,6 × 4,congruent,largerFirst,2,1,24,,,,,,,,
,,,,,,,,,,,,,,,813,2022-01-15_21h23.43.133,multiplicationStroop,2021.2.3,Win32,60.01680471,,,,,,,,,,,,,,,,,,,,,,,,,,,,,,,,,42,2.7315,1,0,8,8,3,1,6,×,7,6 × 7,congruent,smallerFirst,1,2,42,,,,,,,,
,,,,,,,,,,,,,,,813,2022-01-15_21h23.43.133,multiplicationStroop,2021.2.3,Win32,60.01680471,,,,,,,,,,,,,,,,,,,,,,,,,,,,,,,,,15,2.0513,1,0,9,9,4,1,3,×,5,3 × 5,congruent,smallerFirst,1,2,15,,,,,,,,
,,,,,,,,,,,,,,,813,2022-01-15_21h23.43.133,multiplicationStroop,2021.2.3,Win32,60.01680471,,,,,,,,,,,,,,,,,,,,,,,,,,,,,,,,,27,2.2319,1,0,10,10,26,1,9,×,3,9 × 3,congruent,largerFirst,2,1,27,,,,,,,,
,,,,,,,,,,,,,,,813,2022-01-15_21h23.43.133,multiplicationStroop,2021.2.3,Win32,60.01680471,,,,,,,,,,,,,,,,,,,,,,,,,,,,,,,,,49,2.7572,1,0,11,11,33,1,7,×,7,7 × 7,neutral,tie,2,1,49,,,,,,,,
,,,,,,,,,,,,,,,813,2022-01-15_21h23.43.133,multiplicationStroop,2021.2.3,Win32,60.01680471,,,,,,,,,,,,,,,,,,,,,,,,,,,,,,,,,21,2.113,1,0,12,12,16,1,7,×,3,7 × 3,congruent,largerFirst,2,1,21,,,,,,,,
,,,,,,,,,,,,,,,813,2022-01-15_21h23.43.133,multiplicationStroop,2021.2.3,Win32,60.01680471,,,,,,,,,,,,,,,,,,,,,,,,,,,,,,,,,32,2.1875,1,0,13,13,20,1,8,×,4,8 × 4,congruent,largerFirst,2,1,32,,,,,,,,
,,,,,,,,,,,,,,,813,2022-01-15_21h23.43.133,multiplicationStroop,2021.2.3,Win32,60.01680471,,,,,,,,,,,,,,,,,,,,,,,,,,,,,,,,,40,2.448,1,0,14,14,6,1,5,×,8,5 × 8,congruent,smallerFirst,1,2,40,,,,,,,,
,,,,,,,,,,,,,,,813,2022-01-15_21h23.43.133,multiplicationStroop,2021.2.3,Win32,60.01680471,,,,,,,,,,,,,,,,,,,,,,,,,,,,,,,,,14,2.2155,1,0,15,15,14,1,7,×,2,7 × 2,congruent,largerFirst,2,1,14,,,,,,,,
,,,,,,,,,,,,,,,813,2022-01-15_21h23.43.133,multiplicationStroop,2021.2.3,Win32,60.01680471,,,,,,,,,,,,,,,,,,,,,,,,,,,,,,,,,28,2.2478,1,0,16,16,27,1,7,×,4,7 × 4,congruent,largerFirst,2,1,28,,,,,,,,
,,,,,,,,,,,,,,,813,2022-01-15_21h23.43.133,multiplicationStroop,2021.2.3,Win32,60.01680471,,,,,,,,,,,,,,,,,,,,,,,,,,,,,,,,,12,2.0013,1,0,17,17,2,1,3,×,4,3 × 4,congruent,smallerFirst,1,2,12,,,,,,,,
,,,,,,,,,,,,,,,813,2022-01-15_21h23.43.133,multiplicationStroop,2021.2.3,Win32,60.01680471,,,,,,,,,,,,,,,,,,,,,,,,,,,,,,,,,72,2.0905,1,0,18,18,17,1,9,×,8,9 × 8,congruent,largerFirst,2,1,72,,,,,,,,
,,,,,,,,,,,,,,,813,2022-01-15_21h23.43.133,multiplicationStroop,2021.2.3,Win32,60.01680471,,,,,,,,,,,,,,,,,,,,,,,,,,,,,,,,,56,2.5377,1,0,19,19,8,1,7,×,8,7 × 8,congruent,smallerFirst,1,2,56,,,,,,,,
,,,,,,,,,,,,,,,813,2022-01-15_21h23.43.133,multiplicationStroop,2021.2.3,Win32,60.01680471,,,,,,,,,,,,,,,,,,,,,,,,,,,,,,,,,8,1.8148,1,0,20,20,9,1,2,×,4,2 × 4,congruent,smallerFirst,1,2,8,,,,,,,,
,,,,,,,,,,,,,,,813,2022-01-15_21h23.43.133,multiplicationStroop,2021.2.3,Win32,60.01680471,,,,,,,,,,,,,,,,,,,,,,,,,,,,,,,,,16,2.216,1,0,21,21,5,1,2,×,8,2 × 8,congruent,smallerFirst,1,2,16,,,,,,,,
,,,,,,,,,,,,,,,813,2022-01-15_21h23.43.133,multiplicationStroop,2021.2.3,Win32,60.01680471,,,,,,,,,,,,,,,,,,,,,,,,,,,,,,,,,10,1.9976,1,0,22,22,24,1,5,×,2,5 × 2,congruent,largerFirst,2,1,10,,,,,,,,
,,,,,,,,,,,,,,,813,2022-01-15_21h23.43.133,multiplicationStroop,2021.2.3,Win32,60.01680471,,,,,,,,,,,,,,,,,,,,,,,,,,,,,,,,,36,2.149,1,0,23,23,32,1,6,×,6,6 × 6,neutral,tie,2,1,36,,,,,,,,
,,,,,,,,,,,,,,,813,2022-01-15_21h23.43.133,multiplicationStroop,2021.2.3,Win32,60.01680471,,,,,,,,,,,,,,,,,,,,,,,,,,,,,,,,,16,2.0318,1,0,24,24,30,1,4,×,4,4 × 4,neutral,tie,2,1,16,,,,,,,,
,,,,,,,,,,,,,,,813,2022-01-15_21h23.43.133,multiplicationStroop,2021.2.3,Win32,60.01680471,,,,,,,,,,,,,,,,,,,,,,,,,,,,,,,,,30,2.1819,1,0,25,25,15,1,6,×,5,6 × 5,congruent,largerFirst,2,1,30,,,,,,,,
,,,,,,,,,,,,,,,813,2022-01-15_21h23.43.133,multiplicationStroop,2021.2.3,Win32,60.01680471,,,,,,,,,,,,,,,,,,,,,,,,,,,,,,,,,4,1.7318,1,0,26,26,28,1,2,×,2,2 × 2,neutral,tie,2,1,4,,,,,,,,
,,,,,,,,,,,,,,,813,2022-01-15_21h23.43.133,multiplicationStroop,2021.2.3,Win32,60.01680471,,,,,,,,,,,,,,,,,,,,,,,,,,,,,,,,,64,2.3318,1,0,27,27,34,1,8,×,8,8 × 8,neutral,tie,2,1,64,,,,,,,,
,,,,,,,,,,,,,,,813,2022-01-15_21h23.43.133,multiplicationStroop,2021.2.3,Win32,60.01680471,,,,,,,,,,,,,,,,,,,,,,,,,,,,,,,,,81,2.0987,1,0,28,28,35,1,9,×,9,9 × 9,neutral,tie,2,1,81,,,,,,,,
,,,,,,,,,,,,,,,813,2022-01-15_21h23.43.133,multiplicationStroop,2021.2.3,Win32,60.01680471,,,,,,,,,,,,,,,,,,,,,,,,,,,,,,,,,45,2.2162,1,0,29,29,23,1,9,×,5,9 × 5,congruent,largerFirst,2,1,45,,,,,,,,
,,,,,,,,,,,,,,,813,2022-01-15_21h23.43.133,multiplicationStroop,2021.2.3,Win32,60.01680471,,,,,,,,,,,,,,,,,,,,,,,,,,,,,,,,,35,2.3568,1,0,30,30,1,1,5,×,7,5 × 7,congruent,smallerFirst,1,2,35,,,,,,,,
,,,,,,,,,,,,,,,813,2022-01-15_21h23.43.133,multiplicationStroop,2021.2.3,Win32,60.01680471,,,,,,,,,,,,,,,,,,,,,,,,,,,,,,,,,48,2.3842,1,0,31,31,18,1,8,×,6,8 × 6,congruent,largerFirst,2,1,48,,,,,,,,
,,,,,,,,,,,,,,,813,2022-01-15_21h23.43.133,multiplicationStroop,2021.2.3,Win32,60.01680471,,,,,,,,,,,,,,,,,,,,,,,,,,,,,,,,,9,1.6546,1,0,32,32,29,1,3,×,3,3 × 3,neutral,tie,2,1,9,,,,,,,,
,,,,,,,,,,,,,,,813,2022-01-15_21h23.43.133,multiplicationStroop,2021.2.3,Win32,60.01680471,,,,,,,,,,,,,,,,,,,,,,,,,,,,,,,,,6,1.7151,1,0,33,33,13,1,2,×,3,2 × 3,congruent,smallerFirst,1,2,6,,,,,,,,
,,,,,,,,,,,,,,,813,2022-01-15_21h23.43.133,multiplicationStroop,2021.2.3,Win32,60.01680471,,,,,,,,,,,,,,,,,,,,,,,,,,,,,,,,,24,2.6482,1,0,34,34,10,1,3,×,8,3 × 8,congruent,smallerFirst,1,2,24,,,,,,,,
,,,,,,,,,,,,,,,813,2022-01-15_21h23.43.133,multiplicationStroop,2021.2.3,Win32,60.01680471,,,,,,,,,,,,,,,,,,,,,,,,,,,,,,,,,63,2.701,1,0,35,35,21,1,9,×,7,9 × 7,congruent,largerFirst,2,1,63,,,,,,,,
,,,,,,,,,,,,,,,813,2022-01-15_21h23.43.133,multiplicationStroop,2021.2.3,Win32,60.01680471,,,,,,,,,,,,,,,,,,,,,,,,,,,,,,,,,,,,,,,,,,,,,,,,,,0,2,2,2,1,stimulusFile/mult_blk3_congruent.xlsx,,
,,,,,,,,,,,,,,,813,2022-01-15_21h23.43.133,multiplicationStroop,2021.2.3,Win32,60.01680471,,,,,,,,,,,,,,,,,,,,,,,,,,,,,,,space,1.2179,40,2.2539,1,0,0,0,27,1,8,×,5,8 × 5,incongruent,largerFirst,1,2,40,,,,,,,,
,,,,,,,,,,,,,,,813,2022-01-15_21h23.43.133,multiplicationStroop,2021.2.3,Win32,60.01680471,,,,,,,,,,,,,,,,,,,,,,,,,,,,,,,,,48,2.4483,1,0,1,1,15,1,8,×,6,8 × 6,incongruent,largerFirst,1,2,48,,,,,,,,
,,,,,,,,,,,,,,,813,2022-01-15_21h23.43.133,multiplicationStroop,2021.2.3,Win32,60.01680471,,,,,,,,,,,,,,,,,,,,,,,,,,,,,,,,,8,2.3479,1,0,2,2,10,1,2,×,4,2 × 4,incongruent,smallerFirst,2,1,8,,,,,,,,
,,,,,,,,,,,,,,,813,2022-01-15_21h23.43.133,multiplicationStroop,2021.2.3,Win32,60.01680471,,,,,,,,,,,,,,,,,,,,,,,,,,,,,,,,,9,1.7469,1,0,3,3,29,1,3,×,3,3 × 3,neutral,tie,2,1,9,,,,,,,,
,,,,,,,,,,,,,,,813,2022-01-15_21h23.43.133,multiplicationStroop,2021.2.3,Win32,60.01680471,,,,,,,,,,,,,,,,,,,,,,,,,,,,,,,,,36,2.4149,1,0,4,4,1,1,4,×,9,4 × 9,incongruent,smallerFirst,2,1,36,,,,,,,,
,,,,,,,,,,,,,,,813,2022-01-15_21h23.43.133,multiplicationStroop,2021.2.3,Win32,60.01680471,,,,,,,,,,,,,,,,,,,,,,,,,,,,,,,,,32,1.8312,1,0,5,5,21,1,8,×,4,8 × 4,incongruent,largerFirst,1,2,32,,,,,,,,
,,,,,,,,,,,,,,,813,2022-01-15_21h23.43.133,multiplicationStroop,2021.2.3,Win32,60.01680471,,,,,,,,,,,,,,,,,,,,,,,,,,,,,,,,,81,2.0648,1,0,6,6,35,1,9,×,9,9 × 9,neutral,tie,2,1,81,,,,,,,,
,,,,,,,,,,,,,,,813,2022-01-15_21h23.43.133,multiplicationStroop,2021.2.3,Win32,60.01680471,,,,,,,,,,,,,,,,,,,,,,,,,,,,,,,,,35,2.2307,1,0,7,7,26,1,7,×,5,7 × 5,incongruent,largerFirst,1,2,35,,,,,,,,
,,,,,,,,,,,,,,,813,2022-01-15_21h23.43.133,multiplicationStroop,2021.2.3,Win32,60.01680471,,,,,,,,,,,,,,,,,,,,,,,,,,,,,,,,,49,2.6647,1,0,8,8,33,1,7,×,7,7 × 7,neutral,tie,2,1,49,,,,,,,,
,,,,,,,,,,,,,,,813,2022-01-15_21h23.43.133,multiplicationStroop,2021.2.3,Win32,60.01680471,,,,,,,,,,,,,,,,,,,,,,,,,,,,,,,,,27,2.585,1,0,9,9,4,1,3,×,9,3 × 9,incongruent,smallerFirst,2,1,27,,,,,,,,
,,,,,,,,,,,,,,,813,2022-01-15_21h23.43.133,multiplicationStroop,2021.2.3,Win32,60.01680471,,,,,,,,,,,,,,,,,,,,,,,,,,,,,,,,,20,2.2482,1,0,10,10,13,1,4,×,5,4 × 5,incongruent,smallerFirst,2,1,20,,,,,,,,
,,,,,,,,,,,,,,,813,2022-01-15_21h23.43.133,multiplicationStroop,2021.2.3,Win32,60.01680471,,,,,,,,,,,,,,,,,,,,,,,,,,,,,,,,,42,2.5479,1,0,11,11,3,1,6,×,7,6 × 7,incongruent,smallerFirst,2,1,42,,,,,,,,
,,,,,,,,,,,,,,,813,2022-01-15_21h23.43.133,multiplicationStroop,2021.2.3,Win32,60.01680471,,,,,,,,,,,,,,,,,,,,,,,,,,,,,,,,,24,2.6142,1,0,12,12,23,1,8,×,3,8 × 3,incongruent,largerFirst,1,2,24,,,,,,,,
,,,,,,,,,,,,,,,813,2022-01-15_21h23.43.133,multiplicationStroop,2021.2.3,Win32,60.01680471,,,,,,,,,,,,,,,,,,,,,,,,,,,,,,,,,72,2.2013,1,0,13,13,14,1,9,×,8,9 × 8,incongruent,largerFirst,1,2,72,,,,,,,,
,,,,,,,,,,,,,,,813,2022-01-15_21h23.43.133,multiplicationStroop,2021.2.3,Win32,60.01680471,,,,,,,,,,,,,,,,,,,,,,,,,,,,,,,,,12,2.2318,1,0,14,14,5,1,2,×,6,2 × 6,incongruent,smallerFirst,2,1,12,,,,,,,,
,,,,,,,,,,,,,,,813,2022-01-15_21h23.43.133,multiplicationStroop,2021.2.3,Win32,60.01680471,,,,,,,,,,,,,,,,,,,,,,,,,,,,,,,,,18,2.1479,1,0,15,15,16,1,9,×,2,9 × 2,incongruent,largerFirst,1,2,18,,,,,,,,
,,,,,,,,,,,,,,,813,2022-01-15_21h23.43.133,multiplicationStroop,2021.2.3,Win32,60.01680471,,,,,,,,,,,,,,,,,,,,,,,,,,,,,,,,,14,2.1814,1,0,16,16,18,1,7,×,2,7 × 2,incongruent,largerFirst,1,2,14,,,,,,,,
,,,,,,,,,,,,,,,813,2022-01-15_21h23.43.133,multiplicationStroop,2021.2.3,Win32,60.01680471,,,,,,,,,,,,,,,,,,,,,,,,,,,,,,,,,18,2.9479,1,0,17,17,22,1,6,×,3,6 × 3,incongruent,largerFirst,1,2,18,,,,,,,,
,,,,,,,,,,,,,,,813,2022-01-15_21h23.43.133,multiplicationStroop,2021.2.3,Win32,60.01680471,,,,,,,,,,,,,,,,,,,,,,,,,,,,,,,,,36,2.4344,1,0,18,18,32,1,6,×,6,6 × 6,neutral,tie,2,1,36,,,,,,,,
,,,,,,,,,,,,,,,813,2022-01-15_21h23.43.133,multiplicationStroop,2021.2.3,Win32,60.01680471,,,,,,,,,,,,,,,,,,,,,,,,,,,,,,,,,54,2.3646,1,0,19,19,20,1,9,×,6,9 × 6,incongruent,largerFirst,1,2,54,,,,,,,,
,,,,,,,,,,,,,,,813,2022-01-15_21h23.43.133,multiplicationStroop,2021.2.3,Win32,60.01680471,,,,,,,,,,,,,,,,,,,,,,,,,,,,,,,,,6,1.649,1,0,20,20,25,1,3,×,2,3 × 2,incongruent,largerFirst,1,2,6,,,,,,,,
,,,,,,,,,,,,,,,813,2022-01-15_21h23.43.133,multiplicationStroop,2021.2.3,Win32,60.01680471,,,,,,,,,,,,,,,,,,,,,,,,,,,,,,,,,10,2.2476,1,0,21,21,7,1,2,×,5,2 × 5,incongruent,smallerFirst,2,1,10,,,,,,,,
,,,,,,,,,,,,,,,813,2022-01-15_21h23.43.133,multiplicationStroop,2021.2.3,Win32,60.01680471,,,,,,,,,,,,,,,,,,,,,,,,,,,,,,,,,12,1.7818,1,0,22,22,19,1,4,×,3,4 × 3,incongruent,largerFirst,1,2,12,,,,,,,,
,,,,,,,,,,,,,,,813,2022-01-15_21h23.43.133,multiplicationStroop,2021.2.3,Win32,60.01680471,,,,,,,,,,,,,,,,,,,,,,,,,,,,,,,,,73,2.2639,0,0,23,23,17,1,9,×,7,9 × 7,incongruent,largerFirst,1,2,63,,,,,,,,
,,,,,,,,,,,,,,,813,2022-01-15_21h23.43.133,multiplicationStroop,2021.2.3,Win32,60.01680471,,,,,,,,,,,,,,,,,,,,,,,,,,,,,,,,,64,2.2812,1,0,24,24,34,1,8,×,8,8 × 8,neutral,tie,2,1,64,,,,,,,,
,,,,,,,,,,,,,,,813,2022-01-15_21h23.43.133,multiplicationStroop,2021.2.3,Win32,60.01680471,,,,,,,,,,,,,,,,,,,,,,,,,,,,,,,,,21,2.0651,1,0,25,25,12,1,3,×,7,3 × 7,incongruent,smallerFirst,2,1,21,,,,,,,,
,,,,,,,,,,,,,,,813,2022-01-15_21h23.43.133,multiplicationStroop,2021.2.3,Win32,60.01680471,,,,,,,,,,,,,,,,,,,,,,,,,,,,,,,,,4,1.6811,1,0,26,26,28,1,2,×,2,2 × 2,neutral,tie,2,1,4,,,,,,,,
,,,,,,,,,,,,,,,813,2022-01-15_21h23.43.133,multiplicationStroop,2021.2.3,Win32,60.01680471,,,,,,,,,,,,,,,,,,,,,,,,,,,,,,,,,25,1.9651,1,0,27,27,31,1,5,×,5,5 × 5,neutral,tie,2,1,25,,,,,,,,
,,,,,,,,,,,,,,,813,2022-01-15_21h23.43.133,multiplicationStroop,2021.2.3,Win32,60.01680471,,,,,,,,,,,,,,,,,,,,,,,,,,,,,,,,,45,2.3475,1,0,28,28,8,1,5,×,9,5 × 9,incongruent,smallerFirst,2,1,45,,,,,,,,
,,,,,,,,,,,,,,,813,2022-01-15_21h23.43.133,multiplicationStroop,2021.2.3,Win32,60.01680471,,,,,,,,,,,,,,,,,,,,,,,,,,,,,,,,,28,2.5471,1,0,29,29,2,1,4,×,7,4 × 7,incongruent,smallerFirst,2,1,28,,,,,,,,
,,,,,,,,,,,,,,,813,2022-01-15_21h23.43.133,multiplicationStroop,2021.2.3,Win32,60.01680471,,,,,,,,,,,,,,,,,,,,,,,,,,,,,,,,,16,2.1151,1,0,30,30,9,1,2,×,8,2 × 8,incongruent,smallerFirst,2,1,16,,,,,,,,
,,,,,,,,,,,,,,,813,2022-01-15_21h23.43.133,multiplicationStroop,2021.2.3,Win32,60.01680471,,,,,,,,,,,,,,,,,,,,,,,,,,,,,,,,,16,2.1316,1,0,31,31,30,1,4,×,4,4 × 4,neutral,tie,2,1,16,,,,,,,,
,,,,,,,,,,,,,,,813,2022-01-15_21h23.43.133,multiplicationStroop,2021.2.3,Win32,60.01680471,,,,,,,,,,,,,,,,,,,,,,,,,,,,,,,,,24,2.2064,1,0,32,32,6,1,4,×,6,4 × 6,incongruent,smallerFirst,2,1,24,,,,,,,,
,,,,,,,,,,,,,,,813,2022-01-15_21h23.43.133,multiplicationStroop,2021.2.3,Win32,60.01680471,,,,,,,,,,,,,,,,,,,,,,,,,,,,,,,,,30,2.2846,1,0,33,33,11,1,5,×,6,5 × 6,incongruent,smallerFirst,2,1,30,,,,,,,,
,,,,,,,,,,,,,,,813,2022-01-15_21h23.43.133,multiplicationStroop,2021.2.3,Win32,60.01680471,,,,,,,,,,,,,,,,,,,,,,,,,,,,,,,,,56,2.2914,1,0,34,34,0,1,7,×,8,7 × 8,incongruent,smallerFirst,2,1,56,,,,,,,,
,,,,,,,,,,,,,,,813,2022-01-15_21h23.43.133,multiplicationStroop,2021.2.3,Win32,60.01680471,,,,,,,,,,,,,,,,,,,,,,,,,,,,,,,,,15,2.0291,1,0,35,35,24,1,5,×,3,5 × 3,incongruent,largerFirst,1,2,15,,,,,,,,
,,,,,,,,,,,,,,,813,2022-01-15_21h23.43.133,multiplicationStroop,2021.2.3,Win32,60.01680471,,,,,,,,,,,,,,,,,,,,,,,,,,,,,,,,,,,,,,,,,,,,,,,,,,0,3,3,4,1,stimulusFile/mult_blk5_INcongruent.xlsx,,
,,,,,,,,,,,,,,,813,2022-01-15_21h23.43.133,multiplicationStroop,2021.2.3,Win32,60.01680471,,,,,,,,,,,,,,,,,,,,,,,,,,,,,,,space,12.3969,14,2.6968,1,0,0,0,16,1,7,×,2,7 × 2,neutral,largerFirst,1.5,1.5,14,,,,,,,,
,,,,,,,,,,,,,,,813,2022-01-15_21h23.43.133,multiplicationStroop,2021.2.3,Win32,60.01680471,,,,,,,,,,,,,,,,,,,,,,,,,,,,,,,,,56,2.0478,1,0,1,1,9,1,7,×,8,7 × 8,neutral,smallerFirst,1.5,1.5,56,,,,,,,,
,,,,,,,,,,,,,,,813,2022-01-15_21h23.43.133,multiplicationStroop,2021.2.3,Win32,60.01680471,,,,,,,,,,,,,,,,,,,,,,,,,,,,,,,,,24,1.765,1,0,2,2,22,1,8,×,3,8 × 3,neutral,largerFirst,1.5,1.5,24,,,,,,,,
,,,,,,,,,,,,,,,813,2022-01-15_21h23.43.133,multiplicationStroop,2021.2.3,Win32,60.01680471,,,,,,,,,,,,,,,,,,,,,,,,,,,,,,,,,25,1.8982,1,0,3,3,31,1,5,×,5,5 × 5,neutral,tie,1.5,1.5,25,,,,,,,,
,,,,,,,,,,,,,,,813,2022-01-15_21h23.43.133,multiplicationStroop,2021.2.3,Win32,60.01680471,,,,,,,,,,,,,,,,,,,,,,,,,,,,,,,,,9,1.7369,1,0,4,4,29,1,3,×,3,3 × 3,neutral,tie,1.5,1.5,9,,,,,,,,
,,,,,,,,,,,,,,,813,2022-01-15_21h23.43.133,multiplicationStroop,2021.2.3,Win32,60.01680471,,,,,,,,,,,,,,,,,,,,,,,,,,,,,,,,,20,1.6492,1,0,5,5,20,1,5,×,4,5 × 4,neutral,largerFirst,1.5,1.5,20,,,,,,,,
,,,,,,,,,,,,,,,813,2022-01-15_21h23.43.133,multiplicationStroop,2021.2.3,Win32,60.01680471,,,,,,,,,,,,,,,,,,,,,,,,,,,,,,,,,48,2.4649,1,0,6,6,15,1,8,×,6,8 × 6,neutral,largerFirst,1.5,1.5,48,,,,,,,,
,,,,,,,,,,,,,,,813,2022-01-15_21h23.43.133,multiplicationStroop,2021.2.3,Win32,60.01680471,,,,,,,,,,,,,,,,,,,,,,,,,,,,,,,,,54,2.0011,1,0,7,7,7,1,6,×,9,6 × 9,neutral,smallerFirst,1.5,1.5,54,,,,,,,,
,,,,,,,,,,,,,,,813,2022-01-15_21h23.43.133,multiplicationStroop,2021.2.3,Win32,60.01680471,,,,,,,,,,,,,,,,,,,,,,,,,,,,,,,,,32,2.3316,1,0,8,8,23,1,8,×,4,8 × 4,neutral,largerFirst,1.5,1.5,32,,,,,,,,
,,,,,,,,,,,,,,,813,2022-01-15_21h23.43.133,multiplicationStroop,2021.2.3,Win32,60.01680471,,,,,,,,,,,,,,,,,,,,,,,,,,,,,,,,,40,2.0986,1,0,9,9,24,1,8,×,5,8 × 5,neutral,largerFirst,1.5,1.5,40,,,,,,,,
,,,,,,,,,,,,,,,813,2022-01-15_21h23.43.133,multiplicationStroop,2021.2.3,Win32,60.01680471,,,,,,,,,,,,,,,,,,,,,,,,,,,,,,,,,36,2.0578,1,0,10,10,27,1,9,×,4,9 × 4,neutral,largerFirst,1.5,1.5,36,,,,,,,,
,,,,,,,,,,,,,,,813,2022-01-15_21h23.43.133,multiplicationStroop,2021.2.3,Win32,60.01680471,,,,,,,,,,,,,,,,,,,,,,,,,,,,,,,,,64,2.303,1,0,11,11,34,1,8,×,8,8 × 8,neutral,tie,1.5,1.5,64,,,,,,,,
,,,,,,,,,,,,,,,813,2022-01-15_21h23.43.133,multiplicationStroop,2021.2.3,Win32,60.01680471,,,,,,,,,,,,,,,,,,,,,,,,,,,,,,,,,18,2.1241,1,0,12,12,18,1,9,×,2,9 × 2,neutral,largerFirst,1.5,1.5,18,,,,,,,,
,,,,,,,,,,,,,,,813,2022-01-15_21h23.43.133,multiplicationStroop,2021.2.3,Win32,60.01680471,,,,,,,,,,,,,,,,,,,,,,,,,,,,,,,,,81,2.3375,1,0,13,13,35,1,9,×,9,9 × 9,neutral,tie,1.5,1.5,81,,,,,,,,
,,,,,,,,,,,,,,,813,2022-01-15_21h23.43.133,multiplicationStroop,2021.2.3,Win32,60.01680471,,,,,,,,,,,,,,,,,,,,,,,,,,,,,,,,,12,1.716,1,0,14,14,25,1,6,×,2,6 × 2,neutral,largerFirst,1.5,1.5,12,,,,,,,,
,,,,,,,,,,,,,,,813,2022-01-15_21h23.43.133,multiplicationStroop,2021.2.3,Win32,60.01680471,,,,,,,,,,,,,,,,,,,,,,,,,,,,,,,,,24,2.3896,1,0,15,15,2,1,4,×,6,4 × 6,neutral,smallerFirst,1.5,1.5,24,,,,,,,,
,,,,,,,,,,,,,,,813,2022-01-15_21h23.43.133,multiplicationStroop,2021.2.3,Win32,60.01680471,,,,,,,,,,,,,,,,,,,,,,,,,,,,,,,,,6,1.8541,1,0,16,16,26,1,3,×,2,3 × 2,neutral,largerFirst,1.5,1.5,6,,,,,,,,
,,,,,,,,,,,,,,,813,2022-01-15_21h23.43.133,multiplicationStroop,2021.2.3,Win32,60.01680471,,,,,,,,,,,,,,,,,,,,,,,,,,,,,,,,,15,2.0485,1,0,17,17,5,1,3,×,5,3 × 5,neutral,smallerFirst,1.5,1.5,15,,,,,,,,
,,,,,,,,,,,,,,,813,2022-01-15_21h23.43.133,multiplicationStroop,2021.2.3,Win32,60.01680471,,,,,,,,,,,,,,,,,,,,,,,,,,,,,,,,,36,1.9742,1,0,18,18,32,1,6,×,6,6 × 6,neutral,tie,1.5,1.5,36,,,,,,,,
,,,,,,,,,,,,,,,813,2022-01-15_21h23.43.133,multiplicationStroop,2021.2.3,Win32,60.01680471,,,,,,,,,,,,,,,,,,,,,,,,,,,,,,,,,16,2.0218,1,0,19,19,13,1,2,×,8,2 × 8,neutral,smallerFirst,1.5,1.5,16,,,,,,,,
,,,,,,,,,,,,,,,813,2022-01-15_21h23.43.133,multiplicationStroop,2021.2.3,Win32,60.01680471,,,,,,,,,,,,,,,,,,,,,,,,,,,,,,,,,45,2.1317,1,0,20,20,10,1,5,×,9,5 × 9,neutral,smallerFirst,1.5,1.5,45,,,,,,,,
,,,,,,,,,,,,,,,813,2022-01-15_21h23.43.133,multiplicationStroop,2021.2.3,Win32,60.01680471,,,,,,,,,,,,,,,,,,,,,,,,,,,,,,,,,63,2.9646,1,0,21,21,12,1,7,×,9,7 × 9,neutral,smallerFirst,1.5,1.5,63,,,,,,,,
,,,,,,,,,,,,,,,813,2022-01-15_21h23.43.133,multiplicationStroop,2021.2.3,Win32,60.01680471,,,,,,,,,,,,,,,,,,,,,,,,,,,,,,,,,18,1.9599,1,0,22,22,0,1,3,×,6,3 × 6,neutral,smallerFirst,1.5,1.5,18,,,,,,,,
,,,,,,,,,,,,,,,813,2022-01-15_21h23.43.133,multiplicationStroop,2021.2.3,Win32,60.01680471,,,,,,,,,,,,,,,,,,,,,,,,,,,,,,,,,8,1.7543,1,0,23,23,3,1,2,×,4,2 × 4,neutral,smallerFirst,1.5,1.5,8,,,,,,,,
,,,,,,,,,,,,,,,813,2022-01-15_21h23.43.133,multiplicationStroop,2021.2.3,Win32,60.01680471,,,,,,,,,,,,,,,,,,,,,,,,,,,,,,,,,4,1.9317,1,0,24,24,28,1,2,×,2,2 × 2,neutral,tie,1.5,1.5,4,,,,,,,,
,,,,,,,,,,,,,,,813,2022-01-15_21h23.43.133,multiplicationStroop,2021.2.3,Win32,60.01680471,,,,,,,,,,,,,,,,,,,,,,,,,,,,,,,,,28,2.2161,1,0,25,25,17,1,7,×,4,7 × 4,neutral,largerFirst,1.5,1.5,28,,,,,,,,
,,,,,,,,,,,,,,,813,2022-01-15_21h23.43.133,multiplicationStroop,2021.2.3,Win32,60.01680471,,,,,,,,,,,,,,,,,,,,,,,,,,,,,,,,,42,2.3261,1,0,26,26,6,1,6,×,7,6 × 7,neutral,smallerFirst,1.5,1.5,42,,,,,,,,
,,,,,,,,,,,,,,,813,2022-01-15_21h23.43.133,multiplicationStroop,2021.2.3,Win32,60.01680471,,,,,,,,,,,,,,,,,,,,,,,,,,,,,,,,,35,2.254,1,0,27,27,1,1,5,×,7,5 × 7,neutral,smallerFirst,1.5,1.5,35,,,,,,,,
,,,,,,,,,,,,,,,813,2022-01-15_21h23.43.133,multiplicationStroop,2021.2.3,Win32,60.01680471,,,,,,,,,,,,,,,,,,,,,,,,,,,,,,,,,72,2.724,1,0,28,28,11,1,8,×,9,8 × 9,neutral,smallerFirst,1.5,1.5,72,,,,,,,,
,,,,,,,,,,,,,,,813,2022-01-15_21h23.43.133,multiplicationStroop,2021.2.3,Win32,60.01680471,,,,,,,,,,,,,,,,,,,,,,,,,,,,,,,,,30,2.4196,1,0,29,29,19,1,6,×,5,6 × 5,neutral,largerFirst,1.5,1.5,30,,,,,,,,
,,,,,,,,,,,,,,,813,2022-01-15_21h23.43.133,multiplicationStroop,2021.2.3,Win32,60.01680471,,,,,,,,,,,,,,,,,,,,,,,,,,,,,,,,,12,1.7825,1,0,30,30,21,1,4,×,3,4 × 3,neutral,largerFirst,1.5,1.5,12,,,,,,,,
,,,,,,,,,,,,,,,813,2022-01-15_21h23.43.133,multiplicationStroop,2021.2.3,Win32,60.01680471,,,,,,,,,,,,,,,,,,,,,,,,,,,,,,,,,16,1.8146,1,0,31,31,30,1,4,×,4,4 × 4,neutral,tie,1.5,1.5,16,,,,,,,,
,,,,,,,,,,,,,,,813,2022-01-15_21h23.43.133,multiplicationStroop,2021.2.3,Win32,60.01680471,,,,,,,,,,,,,,,,,,,,,,,,,,,,,,,,,10,2.0827,1,0,32,32,4,1,2,×,5,2 × 5,neutral,smallerFirst,1.5,1.5,10,,,,,,,,
,,,,,,,,,,,,,,,813,2022-01-15_21h23.43.133,multiplicationStroop,2021.2.3,Win32,60.01680471,,,,,,,,,,,,,,,,,,,,,,,,,,,,,,,,,27,3.1817,1,0,33,33,14,1,9,×,3,9 × 3,neutral,largerFirst,1.5,1.5,27,,,,,,,,
,,,,,,,,,,,,,,,813,2022-01-15_21h23.43.133,multiplicationStroop,2021.2.3,Win32,60.01680471,,,,,,,,,,,,,,,,,,,,,,,,,,,,,,,,,21,2.1844,1,0,34,34,8,1,3,×,7,3 × 7,neutral,smallerFirst,1.5,1.5,21,,,,,,,,
,,,,,,,,,,,,,,,813,2022-01-15_21h23.43.133,multiplicationStroop,2021.2.3,Win32,60.01680471,,,,,,,,,,,,,,,,,,,,,,,,,,,,,,,,,49,2.4488,1,0,35,35,33,1,7,×,7,7 × 7,neutral,tie,1.5,1.5,49,,,,,,,,
,,,,,,,,,,,,,,,813,2022-01-15_21h23.43.133,multiplicationStroop,2021.2.3,Win32,60.01680471,,,,,,,,,,,,,,,,,,,,,,,,,,,,,,,,,,,,,,,,,,,,,,,,,,0,4,4,1,1,stimulusFile/mult_blk2.xlsx,,
,,,,,,,,,,,,,,,813,2022-01-15_21h23.43.133,multiplicationStroop,2021.2.3,Win32,60.01680471,,,,,,,,,,,,,,,,,,,,,,,,,,,,,,,space,3.1834,12,2.1146,1,0,0,0,19,1,6,×,2,6 × 2,incongruent,largerFirst,1,2,12,,,,,,,,
,,,,,,,,,,,,,,,813,2022-01-15_21h23.43.133,multiplicationStroop,2021.2.3,Win32,60.01680471,,,,,,,,,,,,,,,,,,,,,,,,,,,,,,,,,21,2.0148,1,0,1,1,26,1,7,×,3,7 × 3,incongruent,largerFirst,1,2,21,,,,,,,,
,,,,,,,,,,,,,,,813,2022-01-15_21h23.43.133,multiplicationStroop,2021.2.3,Win32,60.01680471,,,,,,,,,,,,,,,,,,,,,,,,,,,,,,,,,36,2.5476,1,0,2,2,32,1,6,×,6,6 × 6,incongruent,tie,1,2,36,,,,,,,,
,,,,,,,,,,,,,,,813,2022-01-15_21h23.43.133,multiplicationStroop,2021.2.3,Win32,60.01680471,,,,,,,,,,,,,,,,,,,,,,,,,,,,,,,,,18,1.8984,1,0,3,3,2,1,2,×,9,2 × 9,incongruent,smallerFirst,2,1,18,,,,,,,,
,,,,,,,,,,,,,,,813,2022-01-15_21h23.43.133,multiplicationStroop,2021.2.3,Win32,60.01680471,,,,,,,,,,,,,,,,,,,,,,,,,,,,,,,,,48,2.3486,1,0,4,4,1,1,6,×,8,6 × 8,incongruent,smallerFirst,2,1,48,,,,,,,,
,,,,,,,,,,,,,,,813,2022-01-15_21h23.43.133,multiplicationStroop,2021.2.3,Win32,60.01680471,,,,,,,,,,,,,,,,,,,,,,,,,,,,,,,,,20,2.4143,1,0,5,5,27,1,5,×,4,5 × 4,incongruent,largerFirst,1,2,20,,,,,,,,
,,,,,,,,,,,,,,,813,2022-01-15_21h23.43.133,multiplicationStroop,2021.2.3,Win32,60.01680471,,,,,,,,,,,,,,,,,,,,,,,,,,,,,,,,,10,2.2982,1,0,6,6,21,1,5,×,2,5 × 2,incongruent,largerFirst,1,2,10,,,,,,,,
,,,,,,,,,,,,,,,813,2022-01-15_21h23.43.133,multiplicationStroop,2021.2.3,Win32,60.01680471,,,,,,,,,,,,,,,,,,,,,,,,,,,,,,,,,15,1.7359,1,0,7,7,10,1,3,×,5,3 × 5,incongruent,smallerFirst,2,1,15,,,,,,,,
,,,,,,,,,,,,,,,813,2022-01-15_21h23.43.133,multiplicationStroop,2021.2.3,Win32,60.01680471,,,,,,,,,,,,,,,,,,,,,,,,,,,,,,,,,12,1.6316,1,0,8,8,5,1,3,×,4,3 × 4,incongruent,smallerFirst,2,1,12,,,,,,,,
,,,,,,,,,,,,,,,813,2022-01-15_21h23.43.133,multiplicationStroop,2021.2.3,Win32,60.01680471,,,,,,,,,,,,,,,,,,,,,,,,,,,,,,,,,35,1.8644,1,0,9,9,12,1,5,×,7,5 × 7,incongruent,smallerFirst,2,1,35,,,,,,,,
,,,,,,,,,,,,,,,813,2022-01-15_21h23.43.133,multiplicationStroop,2021.2.3,Win32,60.01680471,,,,,,,,,,,,,,,,,,,,,,,,,,,,,,,,,64,2.2481,1,0,10,10,34,1,8,×,8,8 × 8,incongruent,tie,1,2,64,,,,,,,,
,,,,,,,,,,,,,,,813,2022-01-15_21h23.43.133,multiplicationStroop,2021.2.3,Win32,60.01680471,,,,,,,,,,,,,,,,,,,,,,,,,,,,,,,,,16,2.0304,1,0,11,11,30,1,4,×,4,4 × 4,incongruent,tie,1,2,16,,,,,,,,
,,,,,,,,,,,,,,,813,2022-01-15_21h23.43.133,multiplicationStroop,2021.2.3,Win32,60.01680471,,,,,,,,,,,,,,,,,,,,,,,,,,,,,,,,,4,1.8647,1,0,12,12,28,1,2,×,2,2 × 2,incongruent,tie,1,2,4,,,,,,,,
,,,,,,,,,,,,,,,813,2022-01-15_21h23.43.133,multiplicationStroop,2021.2.3,Win32,60.01680471,,,,,,,,,,,,,,,,,,,,,,,,,,,,,,,,,6,1.7987,1,0,13,13,11,1,2,×,3,2 × 3,incongruent,smallerFirst,2,1,6,,,,,,,,
,,,,,,,,,,,,,,,813,2022-01-15_21h23.43.133,multiplicationStroop,2021.2.3,Win32,60.01680471,,,,,,,,,,,,,,,,,,,,,,,,,,,,,,,,,24,2.0817,1,0,14,14,20,1,6,×,4,6 × 4,incongruent,largerFirst,1,2,24,,,,,,,,
,,,,,,,,,,,,,,,813,2022-01-15_21h23.43.133,multiplicationStroop,2021.2.3,Win32,60.01680471,,,,,,,,,,,,,,,,,,,,,,,,,,,,,,,,,81,1.8482,1,0,15,15,35,1,9,×,9,9 × 9,incongruent,tie,1,2,81,,,,,,,,
,,,,,,,,,,,,,,,813,2022-01-15_21h23.43.133,multiplicationStroop,2021.2.3,Win32,60.01680471,,,,,,,,,,,,,,,,,,,,,,,,,,,,,,,,,72,2.381,1,0,16,16,0,1,8,×,9,8 × 9,incongruent,smallerFirst,2,1,72,,,,,,,,
,,,,,,,,,,,,,,,813,2022-01-15_21h23.43.133,multiplicationStroop,2021.2.3,Win32,60.01680471,,,,,,,,,,,,,,,,,,,,,,,,,,,,,,,,,8,1.8649,1,0,17,17,24,1,4,×,2,4 × 2,incongruent,largerFirst,1,2,8,,,,,,,,
,,,,,,,,,,,,,,,813,2022-01-15_21h23.43.133,multiplicationStroop,2021.2.3,Win32,60.01680471,,,,,,,,,,,,,,,,,,,,,,,,,,,,,,,,,32,2.2147,1,0,18,18,7,1,4,×,8,4 × 8,incongruent,smallerFirst,2,1,32,,,,,,,,
,,,,,,,,,,,,,,,813,2022-01-15_21h23.43.133,multiplicationStroop,2021.2.3,Win32,60.01680471,,,,,,,,,,,,,,,,,,,,,,,,,,,,,,,,,16,2.2315,1,0,19,19,23,1,8,×,2,8 × 2,incongruent,largerFirst,1,2,16,,,,,,,,
,,,,,,,,,,,,,,,813,2022-01-15_21h23.43.133,multiplicationStroop,2021.2.3,Win32,60.01680471,,,,,,,,,,,,,,,,,,,,,,,,,,,,,,,,,9,1.5317,1,0,20,20,29,1,3,×,3,3 × 3,incongruent,tie,1,2,9,,,,,,,,
,,,,,,,,,,,,,,,813,2022-01-15_21h23.43.133,multiplicationStroop,2021.2.3,Win32,60.01680471,,,,,,,,,,,,,,,,,,,,,,,,,,,,,,,,,25,2.2311,1,0,21,21,31,1,5,×,5,5 × 5,incongruent,tie,1,2,25,,,,,,,,
,,,,,,,,,,,,,,,813,2022-01-15_21h23.43.133,multiplicationStroop,2021.2.3,Win32,60.01680471,,,,,,,,,,,,,,,,,,,,,,,,,,,,,,,,,36,2.082,1,0,22,22,15,1,9,×,4,9 × 4,incongruent,largerFirst,1,2,36,,,,,,,,
,,,,,,,,,,,,,,,813,2022-01-15_21h23.43.133,multiplicationStroop,2021.2.3,Win32,60.01680471,,,,,,,,,,,,,,,,,,,,,,,,,,,,,,,,,56,5.163,1,0,23,23,14,1,8,×,7,8 × 7,incongruent,largerFirst,1,2,56,,,,,,,,
,,,,,,,,,,,,,,,813,2022-01-15_21h23.43.133,multiplicationStroop,2021.2.3,Win32,60.01680471,,,,,,,,,,,,,,,,,,,,,,,,,,,,,,,,,28,2.3024,1,0,24,24,16,1,7,×,4,7 × 4,incongruent,largerFirst,1,2,28,,,,,,,,
,,,,,,,,,,,,,,,813,2022-01-15_21h23.43.133,multiplicationStroop,2021.2.3,Win32,60.01680471,,,,,,,,,,,,,,,,,,,,,,,,,,,,,,,,,49,2.3649,1,0,25,25,33,1,7,×,7,7 × 7,incongruent,tie,1,2,49,,,,,,,,
,,,,,,,,,,,,,,,813,2022-01-15_21h23.43.133,multiplicationStroop,2021.2.3,Win32,60.01680471,,,,,,,,,,,,,,,,,,,,,,,,,,,,,,,,,54,2.0478,1,0,26,26,6,1,6,×,9,6 × 9,incongruent,smallerFirst,2,1,54,,,,,,,,
,,,,,,,,,,,,,,,813,2022-01-15_21h23.43.133,multiplicationStroop,2021.2.3,Win32,60.01680471,,,,,,,,,,,,,,,,,,,,,,,,,,,,,,,,,14,1.9975,1,0,27,27,4,1,2,×,7,2 × 7,incongruent,smallerFirst,2,1,14,,,,,,,,
,,,,,,,,,,,,,,,813,2022-01-15_21h23.43.133,multiplicationStroop,2021.2.3,Win32,60.01680471,,,,,,,,,,,,,,,,,,,,,,,,,,,,,,,,,24,2.0482,1,0,28,28,9,1,3,×,8,3 × 8,incongruent,smallerFirst,2,1,24,,,,,,,,
,,,,,,,,,,,,,,,813,2022-01-15_21h23.43.133,multiplicationStroop,2021.2.3,Win32,60.01680471,,,,,,,,,,,,,,,,,,,,,,,,,,,,,,,,,18,2.2979,1,0,29,29,8,1,3,×,6,3 × 6,incongruent,smallerFirst,2,1,18,,,,,,,,
,,,,,,,,,,,,,,,813,2022-01-15_21h23.43.133,multiplicationStroop,2021.2.3,Win32,60.01680471,,,,,,,,,,,,,,,,,,,,,,,,,,,,,,,,,63,2.465,1,0,30,30,3,1,7,×,9,7 × 9,incongruent,smallerFirst,2,1,63,,,,,,,,
,,,,,,,,,,,,,,,813,2022-01-15_21h23.43.133,multiplicationStroop,2021.2.3,Win32,60.01680471,,,,,,,,,,,,,,,,,,,,,,,,,,,,,,,,,27,3.0349,1,0,31,31,18,1,9,×,3,9 × 3,incongruent,largerFirst,1,2,27,,,,,,,,
,,,,,,,,,,,,,,,813,2022-01-15_21h23.43.133,multiplicationStroop,2021.2.3,Win32,60.01680471,,,,,,,,,,,,,,,,,,,,,,,,,,,,,,,,,45,2.4815,1,0,32,32,22,1,9,×,5,9 × 5,incongruent,largerFirst,1,2,45,,,,,,,,
,,,,,,,,,,,,,,,813,2022-01-15_21h23.43.133,multiplicationStroop,2021.2.3,Win32,60.01680471,,,,,,,,,,,,,,,,,,,,,,,,,,,,,,,,,40,2.2477,1,0,33,33,13,1,5,×,8,5 × 8,incongruent,smallerFirst,2,1,40,,,,,,,,
,,,,,,,,,,,,,,,813,2022-01-15_21h23.43.133,multiplicationStroop,2021.2.3,Win32,60.01680471,,,,,,,,,,,,,,,,,,,,,,,,,,,,,,,,,30,1.935,1,0,34,34,25,1,6,×,5,6 × 5,incongruent,largerFirst,1,2,30,,,,,,,,
,,,,,,,,,,,,,,,813,2022-01-15_21h23.43.133,multiplicationStroop,2021.2.3,Win32,60.01680471,,,,,,,,,,,,,,,,,,,,,,,,,,,,,,,,,42,2.0645,1,0,35,35,17,1,7,×,6,7 × 6,incongruent,largerFirst,1,2,42,,,,,,,,
,,,,,,,,,,,,,,,813,2022-01-15_21h23.43.133,multiplicationStroop,2021.2.3,Win32,60.01680471,,,,,,,,,,,,,,,,,,,,,,,,,,,,,,,,,,,,,,,,,,,,,,,,,,0,5,5,5,1,stimulusFile/mult_blk6_INcongruent.xlsx,,
,,,,,,,,,,,,,,,813,2022-01-15_21h23.43.133,multiplicationStroop,2021.2.3,Win32,60.01680471,,,,,,,,,,,,,,,,,,,,,,,,,,,,,,,,,,,,,,,,,,,,,,,,,,,,,,,,space,15.0553