welcomeKey_resp.keys,welcomeKey_resp.rt,X Scale,Y Scale,rt_resp_4.keys,rt_resp_4.corr,rt_resp_4.rt,speedtest_2.thisRepN,speedtest_2.thisTrialN,speedtest_2.thisN,speedtest_2.thisIndex,speedtest_2.ran,numberSc,posX,positionLayout,participant,date,expName,psychopyVersion,OS,frameRate,ct_instrresp.keys,ct_instrresp.rt,key_resp_2.keys,key_resp_2.rt,ct_keyResp.keys,ct_keyResp.corr,ct_keyResp.rt,trials.thisRepN,trials.thisTrialN,trials.thisN,trials.thisIndex,trials.ran,leftNo,rightNo,displayProblem,numDistance,leftNo_size,rightNo_size,Dims,keyAnswer,TS_Loop.thisRepN,TS_Loop.thisTrialN,TS_Loop.thisN,TS_Loop.thisIndex,TS_Loop.ran,Condition,ActionInst,instrImage,mltptaskInst_resp.keys,mltptaskInst_resp.rt,continue_resp_2.keys,continue_resp_2.rt,multp_Answer,multi_RT,multiplyCorr,LoopingMultiply.thisRepN,LoopingMultiply.thisTrialN,LoopingMultiply.thisN,LoopingMultiply.thisIndex,LoopingMultiply.ran,factor1,multiplySign,factor2,multliplyProblem,physicalSize,orderOperand,sizeF1,sizeF2,mult_answer,trials_stroop.thisRepN,trials_stroop.thisTrialN,trials_stroop.thisN,trials_stroop.thisIndex,trials_stroop.ran,multiplicationFile,esckey_resp_2.keys,esckey_resp_2.rt
y,13.9043,45.1,44.3,right,1,0.8717,0,0,0,13,1,7,200,right,814,2022-01-19_12h13.30.647,multiplicationStroop,2021.2.3,Win32,60.09615385,,,,,,,,,,,,,,,,,,,,,,,,,,,,,,,,,,,,,,,,,,,,,,,,,,,,,,,,,
,,,,right,1,0.6217,0,1,1,9,1,2,200,right,814,2022-01-19_12h13.30.647,multiplicationStroop,2021.2.3,Win32,60.09615385,,,,,,,,,,,,,,,,,,,,,,,,,,,,,,,,,,,,,,,,,,,,,,,,,,,,,,,,,
,,,,left,1,0.4411,0,2,2,1,1,2,-200,left,814,2022-01-19_12h13.30.647,multiplicationStroop,2021.2.3,Win32,60.09615385,,,,,,,,,,,,,,,,,,,,,,,,,,,,,,,,,,,,,,,,,,,,,,,,,,,,,,,,,
,,,,right,1,0.3442,0,3,3,15,1,9,200,right,814,2022-01-19_12h13.30.647,multiplicationStroop,2021.2.3,Win32,60.09615385,,,,,,,,,,,,,,,,,,,,,,,,,,,,,,,,,,,,,,,,,,,,,,,,,,,,,,,,,
,,,,left,1,0.3409,0,4,4,7,1,9,-200,left,814,2022-01-19_12h13.30.647,multiplicationStroop,2021.2.3,Win32,60.09615385,,,,,,,,,,,,,,,,,,,,,,,,,,,,,,,,,,,,,,,,,,,,,,,,,,,,,,,,,
,,,,right,1,0.3297,0,5,5,10,1,3,200,right,814,2022-01-19_12h13.30.647,multiplicationStroop,2021.2.3,Win32,60.09615385,,,,,,,,,,,,,,,,,,,,,,,,,,,,,,,,,,,,,,,,,,,,,,,,,,,,,,,,,
,,,,right,1,0.5182,0,6,6,14,1,8,200,right,814,2022-01-19_12h13.30.647,multiplicationStroop,2021.2.3,Win32,60.09615385,,,,,,,,,,,,,,,,,,,,,,,,,,,,,,,,,,,,,,,,,,,,,,,,,,,,,,,,,
,,,,left,1,0.432,0,7,7,0,1,1,-200,left,814,2022-01-19_12h13.30.647,multiplicationStroop,2021.2.3,Win32,60.09615385,,,,,,,,,,,,,,,,,,,,,,,,,,,,,,,,,,,,,,,,,,,,,,,,,,,,,,,,,
,,,,left,1,0.5663,0,8,8,3,1,4,-200,left,814,2022-01-19_12h13.30.647,multiplicationStroop,2021.2.3,Win32,60.09615385,,,,,,,,,,,,,,,,,,,,,,,,,,,,,,,,,,,,,,,,,,,,,,,,,,,,,,,,,
,,,,left,1,0.4578,0,9,9,4,1,6,-200,left,814,2022-01-19_12h13.30.647,multiplicationStroop,2021.2.3,Win32,60.09615385,,,,,,,,,,,,,,,,,,,,,,,,,,,,,,,,,,,,,,,,,,,,,,,,,,,,,,,,,
,,,,left,1,0.4085,0,10,10,2,1,3,-200,left,814,2022-01-19_12h13.30.647,multiplicationStroop,2021.2.3,Win32,60.09615385,,,,,,,,,,,,,,,,,,,,,,,,,,,,,,,,,,,,,,,,,,,,,,,,,,,,,,,,,
,,,,right,1,0.3865,0,11,11,12,1,6,200,right,814,2022-01-19_12h13.30.647,multiplicationStroop,2021.2.3,Win32,60.09615385,,,,,,,,,,,,,,,,,,,,,,,,,,,,,,,,,,,,,,,,,,,,,,,,,,,,,,,,,
,,,,right,1,0.3829,0,12,12,11,1,4,200,right,814,2022-01-19_12h13.30.647,multiplicationStroop,2021.2.3,Win32,60.09615385,,,,,,,,,,,,,,,,,,,,,,,,,,,,,,,,,,,,,,,,,,,,,,,,,,,,,,,,,
,,,,left,1,0.4117,0,13,13,5,1,7,-200,left,814,2022-01-19_12h13.30.647,multiplicationStroop,2021.2.3,Win32,60.09615385,,,,,,,,,,,,,,,,,,,,,,,,,,,,,,,,,,,,,,,,,,,,,,,,,,,,,,,,,
,,,,left,1,0.4638,0,14,14,6,1,8,-200,left,814,2022-01-19_12h13.30.647,multiplicationStroop,2021.2.3,Win32,60.09615385,,,,,,,,,,,,,,,,,,,,,,,,,,,,,,,,,,,,,,,,,,,,,,,,,,,,,,,,,
,,,,right,1,0.379,0,15,15,8,1,1,200,right,814,2022-01-19_12h13.30.647,multiplicationStroop,2021.2.3,Win32,60.09615385,,,,,,,,,,,,,,,,,,,,,,,,,,,,,,,,,,,,,,,,,,,,,,,,,,,,,,,,,
,,,,right,1,0.4153,1,0,16,15,1,9,200,right,814,2022-01-19_12h13.30.647,multiplicationStroop,2021.2.3,Win32,60.09615385,,,,,,,,,,,,,,,,,,,,,,,,,,,,,,,,,,,,,,,,,,,,,,,,,,,,,,,,,
,,,,left,1,0.3802,1,1,17,2,1,3,-200,left,814,2022-01-19_12h13.30.647,multiplicationStroop,2021.2.3,Win32,60.09615385,,,,,,,,,,,,,,,,,,,,,,,,,,,,,,,,,,,,,,,,,,,,,,,,,,,,,,,,,
,,,,right,1,0.3362,1,2,18,9,1,2,200,right,814,2022-01-19_12h13.30.647,multiplicationStroop,2021.2.3,Win32,60.09615385,,,,,,,,,,,,,,,,,,,,,,,,,,,,,,,,,,,,,,,,,,,,,,,,,,,,,,,,,
,,,,left,1,0.3469,1,3,19,5,1,7,-200,left,814,2022-01-19_12h13.30.647,multiplicationStroop,2021.2.3,Win32,60.09615385,,,,,,,,,,,,,,,,,,,,,,,,,,,,,,,,,,,,,,,,,,,,,,,,,,,,,,,,,
,,,,right,1,0.3116,1,4,20,10,1,3,200,right,814,2022-01-19_12h13.30.647,multiplicationStroop,2021.2.3,Win32,60.09615385,,,,,,,,,,,,,,,,,,,,,,,,,,,,,,,,,,,,,,,,,,,,,,,,,,,,,,,,,
,,,,left,1,0.3649,1,5,21,3,1,4,-200,left,814,2022-01-19_12h13.30.647,multiplicationStroop,2021.2.3,Win32,60.09615385,,,,,,,,,,,,,,,,,,,,,,,,,,,,,,,,,,,,,,,,,,,,,,,,,,,,,,,,,
,,,,right,0,0.336,1,6,22,4,1,6,-200,left,814,2022-01-19_12h13.30.647,multiplicationStroop,2021.2.3,Win32,60.09615385,,,,,,,,,,,,,,,,,,,,,,,,,,,,,,,,,,,,,,,,,,,,,,,,,,,,,,,,,
,,,,right,1,0.8316,1,7,23,8,1,1,200,right,814,2022-01-19_12h13.30.647,multiplicationStroop,2021.2.3,Win32,60.09615385,,,,,,,,,,,,,,,,,,,,,,,,,,,,,,,,,,,,,,,,,,,,,,,,,,,,,,,,,
,,,,right,1,0.4161,1,8,24,14,1,8,200,right,814,2022-01-19_12h13.30.647,multiplicationStroop,2021.2.3,Win32,60.09615385,,,,,,,,,,,,,,,,,,,,,,,,,,,,,,,,,,,,,,,,,,,,,,,,,,,,,,,,,
,,,,right,1,0.3836,1,9,25,12,1,6,200,right,814,2022-01-19_12h13.30.647,multiplicationStroop,2021.2.3,Win32,60.09615385,,,,,,,,,,,,,,,,,,,,,,,,,,,,,,,,,,,,,,,,,,,,,,,,,,,,,,,,,
,,,,left,1,0.3463,1,10,26,6,1,8,-200,left,814,2022-01-19_12h13.30.647,multiplicationStroop,2021.2.3,Win32,60.09615385,,,,,,,,,,,,,,,,,,,,,,,,,,,,,,,,,,,,,,,,,,,,,,,,,,,,,,,,,
,,,,right,1,0.4815,1,11,27,11,1,4,200,right,814,2022-01-19_12h13.30.647,multiplicationStroop,2021.2.3,Win32,60.09615385,,,,,,,,,,,,,,,,,,,,,,,,,,,,,,,,,,,,,,,,,,,,,,,,,,,,,,,,,
,,,,left,1,0.4205,1,12,28,7,1,9,-200,left,814,2022-01-19_12h13.30.647,multiplicationStroop,2021.2.3,Win32,60.09615385,,,,,,,,,,,,,,,,,,,,,,,,,,,,,,,,,,,,,,,,,,,,,,,,,,,,,,,,,
,,,,left,1,0.4321,1,13,29,0,1,1,-200,left,814,2022-01-19_12h13.30.647,multiplicationStroop,2021.2.3,Win32,60.09615385,,,,,,,,,,,,,,,,,,,,,,,,,,,,,,,,,,,,,,,,,,,,,,,,,,,,,,,,,
,,,,left,1,0.3769,1,14,30,1,1,2,-200,left,814,2022-01-19_12h13.30.647,multiplicationStroop,2021.2.3,Win32,60.09615385,,,,,,,,,,,,,,,,,,,,,,,,,,,,,,,,,,,,,,,,,,,,,,,,,,,,,,,,,
,,,,right,1,0.3429,1,15,31,13,1,7,200,right,814,2022-01-19_12h13.30.647,multiplicationStroop,2021.2.3,Win32,60.09615385,,,,,,,,,,,,,,,,,,,,,,,,,,,,,,,,,,,,,,,,,,,,,,,,,,,,,,,,,
,,,,right,1,0.4188,2,0,32,12,1,6,200,right,814,2022-01-19_12h13.30.647,multiplicationStroop,2021.2.3,Win32,60.09615385,,,,,,,,,,,,,,,,,,,,,,,,,,,,,,,,,,,,,,,,,,,,,,,,,,,,,,,,,
,,,,right,1,0.424,2,1,33,13,1,7,200,right,814,2022-01-19_12h13.30.647,multiplicationStroop,2021.2.3,Win32,60.09615385,,,,,,,,,,,,,,,,,,,,,,,,,,,,,,,,,,,,,,,,,,,,,,,,,,,,,,,,,
,,,,left,1,0.364,2,2,34,4,1,6,-200,left,814,2022-01-19_12h13.30.647,multiplicationStroop,2021.2.3,Win32,60.09615385,,,,,,,,,,,,,,,,,,,,,,,,,,,,,,,,,,,,,,,,,,,,,,,,,,,,,,,,,
,,,,left,1,0.3821,2,3,35,3,1,4,-200,left,814,2022-01-19_12h13.30.647,multiplicationStroop,2021.2.3,Win32,60.09615385,,,,,,,,,,,,,,,,,,,,,,,,,,,,,,,,,,,,,,,,,,,,,,,,,,,,,,,,,
,,,,right,1,0.3376,2,4,36,9,1,2,200,right,814,2022-01-19_12h13.30.647,multiplicationStroop,2021.2.3,Win32,60.09615385,,,,,,,,,,,,,,,,,,,,,,,,,,,,,,,,,,,,,,,,,,,,,,,,,,,,,,,,,
,,,,left,1,0.2658,2,5,37,5,1,7,-200,left,814,2022-01-19_12h13.30.647,multiplicationStroop,2021.2.3,Win32,60.09615385,,,,,,,,,,,,,,,,,,,,,,,,,,,,,,,,,,,,,,,,,,,,,,,,,,,,,,,,,
,,,,right,1,0.3094,2,6,38,11,1,4,200,right,814,2022-01-19_12h13.30.647,multiplicationStroop,2021.2.3,Win32,60.09615385,,,,,,,,,,,,,,,,,,,,,,,,,,,,,,,,,,,,,,,,,,,,,,,,,,,,,,,,,
,,,,left,1,0.2687,2,7,39,0,1,1,-200,left,814,2022-01-19_12h13.30.647,multiplicationStroop,2021.2.3,Win32,60.09615385,,,,,,,,,,,,,,,,,,,,,,,,,,,,,,,,,,,,,,,,,,,,,,,,,,,,,,,,,
,,,,left,1,0.433,2,8,40,6,1,8,-200,left,814,2022-01-19_12h13.30.647,multiplicationStroop,2021.2.3,Win32,60.09615385,,,,,,,,,,,,,,,,,,,,,,,,,,,,,,,,,,,,,,,,,,,,,,,,,,,,,,,,,
,,,,left,1,0.3794,2,9,41,1,1,2,-200,left,814,2022-01-19_12h13.30.647,multiplicationStroop,2021.2.3,Win32,60.09615385,,,,,,,,,,,,,,,,,,,,,,,,,,,,,,,,,,,,,,,,,,,,,,,,,,,,,,,,,
,,,,right,1,0.4155,2,10,42,10,1,3,200,right,814,2022-01-19_12h13.30.647,multiplicationStroop,2021.2.3,Win32,60.09615385,,,,,,,,,,,,,,,,,,,,,,,,,,,,,,,,,,,,,,,,,,,,,,,,,,,,,,,,,
,,,,right,1,0.3423,2,11,43,15,1,9,200,right,814,2022-01-19_12h13.30.647,multiplicationStroop,2021.2.3,Win32,60.09615385,,,,,,,,,,,,,,,,,,,,,,,,,,,,,,,,,,,,,,,,,,,,,,,,,,,,,,,,,
,,,,left,1,0.3408,2,12,44,7,1,9,-200,left,814,2022-01-19_12h13.30.647,multiplicationStroop,2021.2.3,Win32,60.09615385,,,,,,,,,,,,,,,,,,,,,,,,,,,,,,,,,,,,,,,,,,,,,,,,,,,,,,,,,
,,,,right,1,0.3095,2,13,45,8,1,1,200,right,814,2022-01-19_12h13.30.647,multiplicationStroop,2021.2.3,Win32,60.09615385,,,,,,,,,,,,,,,,,,,,,,,,,,,,,,,,,,,,,,,,,,,,,,,,,,,,,,,,,
,,,,left,1,0.277,2,14,46,2,1,3,-200,left,814,2022-01-19_12h13.30.647,multiplicationStroop,2021.2.3,Win32,60.09615385,,,,,,,,,,,,,,,,,,,,,,,,,,,,,,,,,,,,,,,,,,,,,,,,,,,,,,,,,
,,,,right,1,0.3798,2,15,47,14,1,8,200,right,814,2022-01-19_12h13.30.647,multiplicationStroop,2021.2.3,Win32,60.09615385,,,,,,,,,,,,,,,,,,,,,,,,,,,,,,,,,,,,,,,,,,,,,,,,,,,,,,,,,
,,,,left,1,0.2213,3,0,48,1,1,2,-200,left,814,2022-01-19_12h13.30.647,multiplicationStroop,2021.2.3,Win32,60.09615385,,,,,,,,,,,,,,,,,,,,,,,,,,,,,,,,,,,,,,,,,,,,,,,,,,,,,,,,,
,,,,right,1,0.3342,3,1,49,10,1,3,200,right,814,2022-01-19_12h13.30.647,multiplicationStroop,2021.2.3,Win32,60.09615385,,,,,,,,,,,,,,,,,,,,,,,,,,,,,,,,,,,,,,,,,,,,,,,,,,,,,,,,,
,,,,left,0,0.2398,3,2,50,12,1,6,200,right,814,2022-01-19_12h13.30.647,multiplicationStroop,2021.2.3,Win32,60.09615385,,,,,,,,,,,,,,,,,,,,,,,,,,,,,,,,,,,,,,,,,,,,,,,,,,,,,,,,,
,,,,right,1,0.5179,3,3,51,11,1,4,200,right,814,2022-01-19_12h13.30.647,multiplicationStroop,2021.2.3,Win32,60.09615385,,,,,,,,,,,,,,,,,,,,,,,,,,,,,,,,,,,,,,,,,,,,,,,,,,,,,,,,,
,,,,right,1,0.3187,3,4,52,13,1,7,200,right,814,2022-01-19_12h13.30.647,multiplicationStroop,2021.2.3,Win32,60.09615385,,,,,,,,,,,,,,,,,,,,,,,,,,,,,,,,,,,,,,,,,,,,,,,,,,,,,,,,,
,,,,left,1,0.5265,3,5,53,0,1,1,-200,left,814,2022-01-19_12h13.30.647,multiplicationStroop,2021.2.3,Win32,60.09615385,,,,,,,,,,,,,,,,,,,,,,,,,,,,,,,,,,,,,,,,,,,,,,,,,,,,,,,,,
,,,,left,1,0.4257,3,6,54,7,1,9,-200,left,814,2022-01-19_12h13.30.647,multiplicationStroop,2021.2.3,Win32,60.09615385,,,,,,,,,,,,,,,,,,,,,,,,,,,,,,,,,,,,,,,,,,,,,,,,,,,,,,,,,
,,,,left,1,0.339,3,7,55,4,1,6,-200,left,814,2022-01-19_12h13.30.647,multiplicationStroop,2021.2.3,Win32,60.09615385,,,,,,,,,,,,,,,,,,,,,,,,,,,,,,,,,,,,,,,,,,,,,,,,,,,,,,,,,
,,,,right,1,0.4165,3,8,56,9,1,2,200,right,814,2022-01-19_12h13.30.647,multiplicationStroop,2021.2.3,Win32,60.09615385,,,,,,,,,,,,,,,,,,,,,,,,,,,,,,,,,,,,,,,,,,,,,,,,,,,,,,,,,
,,,,right,1,0.3814,3,9,57,15,1,9,200,right,814,2022-01-19_12h13.30.647,multiplicationStroop,2021.2.3,Win32,60.09615385,,,,,,,,,,,,,,,,,,,,,,,,,,,,,,,,,,,,,,,,,,,,,,,,,,,,,,,,,
,,,,right,1,0.3631,3,10,58,8,1,1,200,right,814,2022-01-19_12h13.30.647,multiplicationStroop,2021.2.3,Win32,60.09615385,,,,,,,,,,,,,,,,,,,,,,,,,,,,,,,,,,,,,,,,,,,,,,,,,,,,,,,,,
,,,,left,1,0.5362,3,11,59,2,1,3,-200,left,814,2022-01-19_12h13.30.647,multiplicationStroop,2021.2.3,Win32,60.09615385,,,,,,,,,,,,,,,,,,,,,,,,,,,,,,,,,,,,,,,,,,,,,,,,,,,,,,,,,
,,,,right,1,0.4868,3,12,60,14,1,8,200,right,814,2022-01-19_12h13.30.647,multiplicationStroop,2021.2.3,Win32,60.09615385,,,,,,,,,,,,,,,,,,,,,,,,,,,,,,,,,,,,,,,,,,,,,,,,,,,,,,,,,
,,,,left,1,0.366,3,13,61,3,1,4,-200,left,814,2022-01-19_12h13.30.647,multiplicationStroop,2021.2.3,Win32,60.09615385,,,,,,,,,,,,,,,,,,,,,,,,,,,,,,,,,,,,,,,,,,,,,,,,,,,,,,,,,
,,,,right,0,0.3083,3,14,62,5,1,7,-200,left,814,2022-01-19_12h13.30.647,multiplicationStroop,2021.2.3,Win32,60.09615385,,,,,,,,,,,,,,,,,,,,,,,,,,,,,,,,,,,,,,,,,,,,,,,,,,,,,,,,,
,,,,left,1,0.6892,3,15,63,6,1,8,-200,left,814,2022-01-19_12h13.30.647,multiplicationStroop,2021.2.3,Win32,60.09615385,,,,,,,,,,,,,,,,,,,,,,,,,,,,,,,,,,,,,,,,,,,,,,,,,,,,,,,,,
,,,,,,,,,,,,,,,814,2022-01-19_12h13.30.647,multiplicationStroop,2021.2.3,Win32,60.09615385,space,28.3957,space,15.6049,right,1,0.9688,0,0,0,59,1,7,9,7 | 9,2,1.6933,1.6933,neutral,right,,,,,,stimulusFile/magnitude.xlsx,,,,,,,,,,,,,,,,,,,,,,,,,,,,,,,
,,,,,,,,,,,,,,,814,2022-01-19_12h13.30.647,multiplicationStroop,2021.2.3,Win32,60.09615385,,,,,right,1,0.7521,0,1,1,27,1,8,9,8 | 9,1,1.9756,1.4111,incongruent,right,,,,,,stimulusFile/magnitude.xlsx,,,,,,,,,,,,,,,,,,,,,,,,,,,,,,,
,,,,,,,,,,,,,,,814,2022-01-19_12h13.30.647,multiplicationStroop,2021.2.3,Win32,60.09615385,,,,,left,0,0.8012,0,2,2,10,1,6,8,6 | 8,2,1.4111,1.9756,congruent,right,,,,,,stimulusFile/magnitude.xlsx,,,,,,,,,,,,,,,,,,,,,,,,,,,,,,,
,,,,,,,,,,,,,,,814,2022-01-19_12h13.30.647,multiplicationStroop,2021.2.3,Win32,60.09615385,,,,,left,1,1.1672,0,3,3,36,1,3,1,3 | 1,2,1.4111,1.9756,incongruent,left,,,,,,stimulusFile/magnitude.xlsx,,,,,,,,,,,,,,,,,,,,,,,,,,,,,,,
,,,,,,,,,,,,,,,814,2022-01-19_12h13.30.647,multiplicationStroop,2021.2.3,Win32,60.09615385,,,,,right,1,0.7446,0,4,4,18,1,3,8,3 | 8,5,1.4111,1.9756,congruent,right,,,,,,stimulusFile/magnitude.xlsx,,,,,,,,,,,,,,,,,,,,,,,,,,,,,,,
,,,,,,,,,,,,,,,814,2022-01-19_12h13.30.647,multiplicationStroop,2021.2.3,Win32,60.09615385,,,,,right,1,0.7203,0,5,5,48,1,1,2,1 | 2,1,1.6933,1.6933,neutral,right,,,,,,stimulusFile/magnitude.xlsx,,,,,,,,,,,,,,,,,,,,,,,,,,,,,,,
,,,,,,,,,,,,,,,814,2022-01-19_12h13.30.647,multiplicationStroop,2021.2.3,Win32,60.09615385,,,,,left,1,0.7694,0,6,6,38,1,8,6,8 | 6,2,1.4111,1.9756,incongruent,left,,,,,,stimulusFile/magnitude.xlsx,,,,,,,,,,,,,,,,,,,,,,,,,,,,,,,
,,,,,,,,,,,,,,,814,2022-01-19_12h13.30.647,multiplicationStroop,2021.2.3,Win32,60.09615385,,,,,left,1,0.9439,0,7,7,71,1,9,4,9 | 4,5,1.6933,1.6933,neutral,left,,,,,,stimulusFile/magnitude.xlsx,,,,,,,,,,,,,,,,,,,,,,,,,,,,,,,
,,,,,,,,,,,,,,,814,2022-01-19_12h13.30.647,multiplicationStroop,2021.2.3,Win32,60.09615385,,,,,left,1,0.9306,0,8,8,55,1,9,8,9 | 8,1,1.6933,1.6933,neutral,left,,,,,,stimulusFile/magnitude.xlsx,,,,,,,,,,,,,,,,,,,,,,,,,,,,,,,
,,,,,,,,,,,,,,,814,2022-01-19_12h13.30.647,multiplicationStroop,2021.2.3,Win32,60.09615385,,,,,right,1,0.7165,0,9,9,1,1,3,4,3 | 4,1,1.4111,1.9756,congruent,right,,,,,,stimulusFile/magnitude.xlsx,,,,,,,,,,,,,,,,,,,,,,,,,,,,,,,
,,,,,,,,,,,,,,,814,2022-01-19_12h13.30.647,multiplicationStroop,2021.2.3,Win32,60.09615385,,,,,right,1,0.615,0,10,10,41,1,2,7,2 | 7,5,1.9756,1.4111,incongruent,right,,,,,,stimulusFile/magnitude.xlsx,,,,,,,,,,,,,,,,,,,,,,,,,,,,,,,
,,,,,,,,,,,,,,,814,2022-01-19_12h13.30.647,multiplicationStroop,2021.2.3,Win32,60.09615385,,,,,left,1,0.6683,0,11,11,37,1,4,2,4 | 2,2,1.4111,1.9756,incongruent,left,,,,,,stimulusFile/magnitude.xlsx,,,,,,,,,,,,,,,,,,,,,,,,,,,,,,,
,,,,,,,,,,,,,,,814,2022-01-19_12h13.30.647,multiplicationStroop,2021.2.3,Win32,60.09615385,,,,,left,1,0.6492,0,12,12,5,1,4,3,4 | 3,1,1.9756,1.4111,congruent,left,,,,,,stimulusFile/magnitude.xlsx,,,,,,,,,,,,,,,,,,,,,,,,,,,,,,,
,,,,,,,,,,,,,,,814,2022-01-19_12h13.30.647,multiplicationStroop,2021.2.3,Win32,60.09615385,,,,,right,1,0.7073,0,13,13,11,1,7,9,7 | 9,2,1.4111,1.9756,congruent,right,,,,,,stimulusFile/magnitude.xlsx,,,,,,,,,,,,,,,,,,,,,,,,,,,,,,,
,,,,,,,,,,,,,,,814,2022-01-19_12h13.30.647,multiplicationStroop,2021.2.3,Win32,60.09615385,,,,,left,1,0.5713,0,14,14,21,1,7,2,7 | 2,5,1.9756,1.4111,congruent,left,,,,,,stimulusFile/magnitude.xlsx,,,,,,,,,,,,,,,,,,,,,,,,,,,,,,,
,,,,,,,,,,,,,,,814,2022-01-19_12h13.30.647,multiplicationStroop,2021.2.3,Win32,60.09615385,,,,,right,1,0.6323,0,15,15,9,1,2,4,2 | 4,2,1.4111,1.9756,congruent,right,,,,,,stimulusFile/magnitude.xlsx,,,,,,,,,,,,,,,,,,,,,,,,,,,,,,,
,,,,,,,,,,,,,,,814,2022-01-19_12h13.30.647,multiplicationStroop,2021.2.3,Win32,60.09615385,,,,,left,1,0.7022,0,16,16,23,1,9,4,9 | 4,5,1.9756,1.4111,congruent,left,,,,,,stimulusFile/magnitude.xlsx,,,,,,,,,,,,,,,,,,,,,,,,,,,,,,,
,,,,,,,,,,,,,,,814,2022-01-19_12h13.30.647,multiplicationStroop,2021.2.3,Win32,60.09615385,,,,,right,1,0.7831,0,17,17,56,1,1,3,1 | 3,2,1.6933,1.6933,neutral,right,,,,,,stimulusFile/magnitude.xlsx,,,,,,,,,,,,,,,,,,,,,,,,,,,,,,,
,,,,,,,,,,,,,,,814,2022-01-19_12h13.30.647,multiplicationStroop,2021.2.3,Win32,60.09615385,,,,,left,1,0.6407,0,18,18,46,1,8,3,8 | 3,5,1.4111,1.9756,incongruent,left,,,,,,stimulusFile/magnitude.xlsx,,,,,,,,,,,,,,,,,,,,,,,,,,,,,,,
,,,,,,,,,,,,,,,814,2022-01-19_12h13.30.647,multiplicationStroop,2021.2.3,Win32,60.09615385,,,,,left,1,0.9144,0,19,19,7,1,9,8,9 | 8,1,1.9756,1.4111,congruent,left,,,,,,stimulusFile/magnitude.xlsx,,,,,,,,,,,,,,,,,,,,,,,,,,,,,,,
,,,,,,,,,,,,,,,814,2022-01-19_12h13.30.647,multiplicationStroop,2021.2.3,Win32,60.09615385,,,,,left,1,0.6895,0,20,20,63,1,9,7,9 | 7,2,1.6933,1.6933,neutral,left,,,,,,stimulusFile/magnitude.xlsx,,,,,,,,,,,,,,,,,,,,,,,,,,,,,,,
,,,,,,,,,,,,,,,814,2022-01-19_12h13.30.647,multiplicationStroop,2021.2.3,Win32,60.09615385,,,,,right,1,0.593,0,21,21,17,1,2,7,2 | 7,5,1.4111,1.9756,congruent,right,,,,,,stimulusFile/magnitude.xlsx,,,,,,,,,,,,,,,,,,,,,,,,,,,,,,,
,,,,,,,,,,,,,,,814,2022-01-19_12h13.30.647,multiplicationStroop,2021.2.3,Win32,60.09615385,,,,,left,1,0.5192,0,22,22,60,1,3,1,3 | 1,2,1.6933,1.6933,neutral,left,,,,,,stimulusFile/magnitude.xlsx,,,,,,,,,,,,,,,,,,,,,,,,,,,,,,,
,,,,,,,,,,,,,,,814,2022-01-19_12h13.30.647,multiplicationStroop,2021.2.3,Win32,60.09615385,,,,,right,1,0.79,0,23,23,25,1,3,4,3 | 4,1,1.9756,1.4111,incongruent,right,,,,,,stimulusFile/magnitude.xlsx,,,,,,,,,,,,,,,,,,,,,,,,,,,,,,,
,,,,,,,,,,,,,,,814,2022-01-19_12h13.30.647,multiplicationStroop,2021.2.3,Win32,60.09615385,,,,,right,1,0.5649,0,24,24,8,1,1,3,1 | 3,2,1.4111,1.9756,congruent,right,,,,,,stimulusFile/magnitude.xlsx,,,,,,,,,,,,,,,,,,,,,,,,,,,,,,,
,,,,,,,,,,,,,,,814,2022-01-19_12h13.30.647,multiplicationStroop,2021.2.3,Win32,60.09615385,,,,,left,1,0.5611,0,25,25,44,1,6,1,6 | 1,5,1.4111,1.9756,incongruent,left,,,,,,stimulusFile/magnitude.xlsx,,,,,,,,,,,,,,,,,,,,,,,,,,,,,,,
,,,,,,,,,,,,,,,814,2022-01-19_12h13.30.647,multiplicationStroop,2021.2.3,Win32,60.09615385,,,,,left,1,0.6898,0,26,26,4,1,2,1,2 | 1,1,1.9756,1.4111,congruent,left,,,,,,stimulusFile/magnitude.xlsx,,,,,,,,,,,,,,,,,,,,,,,,,,,,,,,
,,,,,,,,,,,,,,,814,2022-01-19_12h13.30.647,multiplicationStroop,2021.2.3,Win32,60.09615385,,,,,left,1,0.547,0,27,27,52,1,2,1,2 | 1,1,1.6933,1.6933,neutral,left,,,,,,stimulusFile/magnitude.xlsx,,,,,,,,,,,,,,,,,,,,,,,,,,,,,,,
,,,,,,,,,,,,,,,814,2022-01-19_12h13.30.647,multiplicationStroop,2021.2.3,Win32,60.09615385,,,,,left,1,0.7701,0,28,28,14,1,8,6,8 | 6,2,1.9756,1.4111,congruent,left,,,,,,stimulusFile/magnitude.xlsx,,,,,,,,,,,,,,,,,,,,,,,,,,,,,,,
,,,,,,,,,,,,,,,814,2022-01-19_12h13.30.647,multiplicationStroop,2021.2.3,Win32,60.09615385,,,,,right,1,0.6409,0,29,29,33,1,2,4,2 | 4,2,1.9756,1.4111,incongruent,right,,,,,,stimulusFile/magnitude.xlsx,,,,,,,,,,,,,,,,,,,,,,,,,,,,,,,
,,,,,,,,,,,,,,,814,2022-01-19_12h13.30.647,multiplicationStroop,2021.2.3,Win32,60.09615385,,,,,right,1,0.5336,0,30,30,67,1,4,9,4 | 9,5,1.6933,1.6933,neutral,right,,,,,,stimulusFile/magnitude.xlsx,,,,,,,,,,,,,,,,,,,,,,,,,,,,,,,
,,,,,,,,,,,,,,,814,2022-01-19_12h13.30.647,multiplicationStroop,2021.2.3,Win32,60.09615385,,,,,left,1,0.5931,0,31,31,61,1,4,2,4 | 2,2,1.6933,1.6933,neutral,left,,,,,,stimulusFile/magnitude.xlsx,,,,,,,,,,,,,,,,,,,,,,,,,,,,,,,
,,,,,,,,,,,,,,,814,2022-01-19_12h13.30.647,multiplicationStroop,2021.2.3,Win32,60.09615385,,,,,right,1,0.6955,0,32,32,66,1,3,8,3 | 8,5,1.6933,1.6933,neutral,right,,,,,,stimulusFile/magnitude.xlsx,,,,,,,,,,,,,,,,,,,,,,,,,,,,,,,
,,,,,,,,,,,,,,,814,2022-01-19_12h13.30.647,multiplicationStroop,2021.2.3,Win32,60.09615385,,,,,left,1,0.5204,0,33,33,45,1,7,2,7 | 2,5,1.4111,1.9756,incongruent,left,,,,,,stimulusFile/magnitude.xlsx,,,,,,,,,,,,,,,,,,,,,,,,,,,,,,,
,,,,,,,,,,,,,,,814,2022-01-19_12h13.30.647,multiplicationStroop,2021.2.3,Win32,60.09615385,,,,,right,1,0.5494,0,34,34,40,1,1,6,1 | 6,5,1.9756,1.4111,incongruent,right,,,,,,stimulusFile/magnitude.xlsx,,,,,,,,,,,,,,,,,,,,,,,,,,,,,,,
,,,,,,,,,,,,,,,814,2022-01-19_12h13.30.647,multiplicationStroop,2021.2.3,Win32,60.09615385,,,,,left,1,0.556,0,35,35,47,1,9,4,9 | 4,5,1.4111,1.9756,incongruent,left,,,,,,stimulusFile/magnitude.xlsx,,,,,,,,,,,,,,,,,,,,,,,,,,,,,,,
,,,,,,,,,,,,,,,814,2022-01-19_12h13.30.647,multiplicationStroop,2021.2.3,Win32,60.09615385,,,,,right,1,0.634,0,36,36,2,1,6,7,6 | 7,1,1.4111,1.9756,congruent,right,,,,,,stimulusFile/magnitude.xlsx,,,,,,,,,,,,,,,,,,,,,,,,,,,,,,,
,,,,,,,,,,,,,,,814,2022-01-19_12h13.30.647,multiplicationStroop,2021.2.3,Win32,60.09615385,,,,,left,1,0.5687,0,37,37,20,1,6,1,6 | 1,5,1.9756,1.4111,congruent,left,,,,,,stimulusFile/magnitude.xlsx,,,,,,,,,,,,,,,,,,,,,,,,,,,,,,,
,,,,,,,,,,,,,,,814,2022-01-19_12h13.30.647,multiplicationStroop,2021.2.3,Win32,60.09615385,,,,,right,1,0.4921,0,38,38,51,1,8,9,8 | 9,1,1.6933,1.6933,neutral,right,,,,,,stimulusFile/magnitude.xlsx,,,,,,,,,,,,,,,,,,,,,,,,,,,,,,,
,,,,,,,,,,,,,,,814,2022-01-19_12h13.30.647,multiplicationStroop,2021.2.3,Win32,60.09615385,,,,,right,0,0.6806,0,39,39,30,1,7,6,7 | 6,1,1.4111,1.9756,incongruent,left,,,,,,stimulusFile/magnitude.xlsx,,,,,,,,,,,,,,,,,,,,,,,,,,,,,,,
,,,,,,,,,,,,,,,814,2022-01-19_12h13.30.647,multiplicationStroop,2021.2.3,Win32,60.09615385,,,,,right,1,0.9165,0,40,40,34,1,6,8,6 | 8,2,1.9756,1.4111,incongruent,right,,,,,,stimulusFile/magnitude.xlsx,,,,,,,,,,,,,,,,,,,,,,,,,,,,,,,
,,,,,,,,,,,,,,,814,2022-01-19_12h13.30.647,multiplicationStroop,2021.2.3,Win32,60.09615385,,,,,right,1,0.7791,0,41,41,42,1,3,8,3 | 8,5,1.9756,1.4111,incongruent,right,,,,,,stimulusFile/magnitude.xlsx,,,,,,,,,,,,,,,,,,,,,,,,,,,,,,,
,,,,,,,,,,,,,,,814,2022-01-19_12h13.30.647,multiplicationStroop,2021.2.3,Win32,60.09615385,,,,,left,1,0.9839,0,42,42,31,1,9,8,9 | 8,1,1.4111,1.9756,incongruent,left,,,,,,stimulusFile/magnitude.xlsx,,,,,,,,,,,,,,,,,,,,,,,,,,,,,,,
,,,,,,,,,,,,,,,814,2022-01-19_12h13.30.647,multiplicationStroop,2021.2.3,Win32,60.09615385,,,,,right,1,0.9054,0,43,43,19,1,4,9,4 | 9,5,1.4111,1.9756,congruent,right,,,,,,stimulusFile/magnitude.xlsx,,,,,,,,,,,,,,,,,,,,,,,,,,,,,,,
,,,,,,,,,,,,,,,814,2022-01-19_12h13.30.647,multiplicationStroop,2021.2.3,Win32,60.09615385,,,,,right,1,0.721,0,44,44,65,1,2,7,2 | 7,5,1.6933,1.6933,neutral,right,,,,,,stimulusFile/magnitude.xlsx,,,,,,,,,,,,,,,,,,,,,,,,,,,,,,,
,,,,,,,,,,,,,,,814,2022-01-19_12h13.30.647,multiplicationStroop,2021.2.3,Win32,60.09615385,,,,,left,1,0.6201,0,45,45,54,1,7,6,7 | 6,1,1.6933,1.6933,neutral,left,,,,,,stimulusFile/magnitude.xlsx,,,,,,,,,,,,,,,,,,,,,,,,,,,,,,,
,,,,,,,,,,,,,,,814,2022-01-19_12h13.30.647,multiplicationStroop,2021.2.3,Win32,60.09615385,,,,,right,1,0.6068,0,46,46,49,1,3,4,3 | 4,1,1.6933,1.6933,neutral,right,,,,,,stimulusFile/magnitude.xlsx,,,,,,,,,,,,,,,,,,,,,,,,,,,,,,,
,,,,,,,,,,,,,,,814,2022-01-19_12h13.30.647,multiplicationStroop,2021.2.3,Win32,60.09615385,,,,,left,1,0.4649,0,47,47,13,1,4,2,4 | 2,2,1.9756,1.4111,congruent,left,,,,,,stimulusFile/magnitude.xlsx,,,,,,,,,,,,,,,,,,,,,,,,,,,,,,,
,,,,,,,,,,,,,,,814,2022-01-19_12h13.30.647,multiplicationStroop,2021.2.3,Win32,60.09615385,,,,,right,1,0.5623,0,48,48,64,1,1,6,1 | 6,5,1.6933,1.6933,neutral,right,,,,,,stimulusFile/magnitude.xlsx,,,,,,,,,,,,,,,,,,,,,,,,,,,,,,,
,,,,,,,,,,,,,,,814,2022-01-19_12h13.30.647,multiplicationStroop,2021.2.3,Win32,60.09615385,,,,,left,1,0.6731,0,49,49,6,1,7,6,7 | 6,1,1.9756,1.4111,congruent,left,,,,,,stimulusFile/magnitude.xlsx,,,,,,,,,,,,,,,,,,,,,,,,,,,,,,,
,,,,,,,,,,,,,,,814,2022-01-19_12h13.30.647,multiplicationStroop,2021.2.3,Win32,60.09615385,,,,,right,1,0.4662,0,50,50,50,1,6,7,6 | 7,1,1.6933,1.6933,neutral,right,,,,,,stimulusFile/magnitude.xlsx,,,,,,,,,,,,,,,,,,,,,,,,,,,,,,,
,,,,,,,,,,,,,,,814,2022-01-19_12h13.30.647,multiplicationStroop,2021.2.3,Win32,60.09615385,,,,,left,1,0.5305,0,51,51,29,1,4,3,4 | 3,1,1.4111,1.9756,incongruent,left,,,,,,stimulusFile/magnitude.xlsx,,,,,,,,,,,,,,,,,,,,,,,,,,,,,,,
,,,,,,,,,,,,,,,814,2022-01-19_12h13.30.647,multiplicationStroop,2021.2.3,Win32,60.09615385,,,,,right,1,0.6537,0,52,52,58,1,6,8,6 | 8,2,1.6933,1.6933,neutral,right,,,,,,stimulusFile/magnitude.xlsx,,,,,,,,,,,,,,,,,,,,,,,,,,,,,,,
,,,,,,,,,,,,,,,814,2022-01-19_12h13.30.647,multiplicationStroop,2021.2.3,Win32,60.09615385,,,,,left,1,0.6623,0,53,53,15,1,9,7,9 | 7,2,1.9756,1.4111,congruent,left,,,,,,stimulusFile/magnitude.xlsx,,,,,,,,,,,,,,,,,,,,,,,,,,,,,,,
,,,,,,,,,,,,,,,814,2022-01-19_12h13.30.647,multiplicationStroop,2021.2.3,Win32,60.09615385,,,,,right,1,0.6348,0,54,54,57,1,2,4,2 | 4,2,1.6933,1.6933,neutral,right,,,,,,stimulusFile/magnitude.xlsx,,,,,,,,,,,,,,,,,,,,,,,,,,,,,,,
,,,,,,,,,,,,,,,814,2022-01-19_12h13.30.647,multiplicationStroop,2021.2.3,Win32,60.09615385,,,,,left,1,0.4957,0,55,55,68,1,6,1,6 | 1,5,1.6933,1.6933,neutral,left,,,,,,stimulusFile/magnitude.xlsx,,,,,,,,,,,,,,,,,,,,,,,,,,,,,,,
,,,,,,,,,,,,,,,814,2022-01-19_12h13.30.647,multiplicationStroop,2021.2.3,Win32,60.09615385,,,,,right,1,0.9685,0,56,56,26,1,6,7,6 | 7,1,1.9756,1.4111,incongruent,right,,,,,,stimulusFile/magnitude.xlsx,,,,,,,,,,,,,,,,,,,,,,,,,,,,,,,
,,,,,,,,,,,,,,,814,2022-01-19_12h13.30.647,multiplicationStroop,2021.2.3,Win32,60.09615385,,,,,right,1,0.6164,0,57,57,24,1,1,2,1 | 2,1,1.9756,1.4111,incongruent,right,,,,,,stimulusFile/magnitude.xlsx,,,,,,,,,,,,,,,,,,,,,,,,,,,,,,,
,,,,,,,,,,,,,,,814,2022-01-19_12h13.30.647,multiplicationStroop,2021.2.3,Win32,60.09615385,,,,,right,1,0.5688,0,58,58,43,1,4,9,4 | 9,5,1.9756,1.4111,incongruent,right,,,,,,stimulusFile/magnitude.xlsx,,,,,,,,,,,,,,,,,,,,,,,,,,,,,,,
,,,,,,,,,,,,,,,814,2022-01-19_12h13.30.647,multiplicationStroop,2021.2.3,Win32,60.09615385,,,,,left,1,0.5261,0,59,59,28,1,2,1,2 | 1,1,1.4111,1.9756,incongruent,left,,,,,,stimulusFile/magnitude.xlsx,,,,,,,,,,,,,,,,,,,,,,,,,,,,,,,
,,,,,,,,,,,,,,,814,2022-01-19_12h13.30.647,multiplicationStroop,2021.2.3,Win32,60.09615385,,,,,right,1,0.5386,0,60,60,32,1,1,3,1 | 3,2,1.9756,1.4111,incongruent,right,,,,,,stimulusFile/magnitude.xlsx,,,,,,,,,,,,,,,,,,,,,,,,,,,,,,,
,,,,,,,,,,,,,,,814,2022-01-19_12h13.30.647,multiplicationStroop,2021.2.3,Win32,60.09615385,,,,,right,1,0.712,0,61,61,3,1,8,9,8 | 9,1,1.4111,1.9756,congruent,right,,,,,,stimulusFile/magnitude.xlsx,,,,,,,,,,,,,,,,,,,,,,,,,,,,,,,
,,,,,,,,,,,,,,,814,2022-01-19_12h13.30.647,multiplicationStroop,2021.2.3,Win32,60.09615385,,,,,left,1,0.6017,0,62,62,70,1,8,3,8 | 3,5,1.6933,1.6933,neutral,left,,,,,,stimulusFile/magnitude.xlsx,,,,,,,,,,,,,,,,,,,,,,,,,,,,,,,
,,,,,,,,,,,,,,,814,2022-01-19_12h13.30.647,multiplicationStroop,2021.2.3,Win32,60.09615385,,,,,right,1,0.5311,0,63,63,16,1,1,6,1 | 6,5,1.4111,1.9756,congruent,right,,,,,,stimulusFile/magnitude.xlsx,,,,,,,,,,,,,,,,,,,,,,,,,,,,,,,
,,,,,,,,,,,,,,,814,2022-01-19_12h13.30.647,multiplicationStroop,2021.2.3,Win32,60.09615385,,,,,left,1,0.5456,0,64,64,62,1,8,6,8 | 6,2,1.6933,1.6933,neutral,left,,,,,,stimulusFile/magnitude.xlsx,,,,,,,,,,,,,,,,,,,,,,,,,,,,,,,
,,,,,,,,,,,,,,,814,2022-01-19_12h13.30.647,multiplicationStroop,2021.2.3,Win32,60.09615385,,,,,left,1,0.6966,0,65,65,22,1,8,3,8 | 3,5,1.9756,1.4111,congruent,left,,,,,,stimulusFile/magnitude.xlsx,,,,,,,,,,,,,,,,,,,,,,,,,,,,,,,
,,,,,,,,,,,,,,,814,2022-01-19_12h13.30.647,multiplicationStroop,2021.2.3,Win32,60.09615385,,,,,right,0,0.6566,0,66,66,53,1,4,3,4 | 3,1,1.6933,1.6933,neutral,left,,,,,,stimulusFile/magnitude.xlsx,,,,,,,,,,,,,,,,,,,,,,,,,,,,,,,
,,,,,,,,,,,,,,,814,2022-01-19_12h13.30.647,multiplicationStroop,2021.2.3,Win32,60.09615385,,,,,right,1,1.1492,0,67,67,35,1,7,9,7 | 9,2,1.9756,1.4111,incongruent,right,,,,,,stimulusFile/magnitude.xlsx,,,,,,,,,,,,,,,,,,,,,,,,,,,,,,,
,,,,,,,,,,,,,,,814,2022-01-19_12h13.30.647,multiplicationStroop,2021.2.3,Win32,60.09615385,,,,,left,1,0.5919,0,68,68,12,1,3,1,3 | 1,2,1.9756,1.4111,congruent,left,,,,,,stimulusFile/magnitude.xlsx,,,,,,,,,,,,,,,,,,,,,,,,,,,,,,,
,,,,,,,,,,,,,,,814,2022-01-19_12h13.30.647,multiplicationStroop,2021.2.3,Win32,60.09615385,,,,,left,1,0.5863,0,69,69,69,1,7,2,7 | 2,5,1.6933,1.6933,neutral,left,,,,,,stimulusFile/magnitude.xlsx,,,,,,,,,,,,,,,,,,,,,,,,,,,,,,,
,,,,,,,,,,,,,,,814,2022-01-19_12h13.30.647,multiplicationStroop,2021.2.3,Win32,60.09615385,,,,,left,1,0.5582,0,70,70,39,1,9,7,9 | 7,2,1.4111,1.9756,incongruent,left,,,,,,stimulusFile/magnitude.xlsx,,,,,,,,,,,,,,,,,,,,,,,,,,,,,,,
,,,,,,,,,,,,,,,814,2022-01-19_12h13.30.647,multiplicationStroop,2021.2.3,Win32,60.09615385,,,,,right,1,0.713,0,71,71,0,1,1,2,1 | 2,1,1.4111,1.9756,congruent,right,,,,,,stimulusFile/magnitude.xlsx,,,,,,,,,,,,,,,,,,,,,,,,,,,,,,,
,,,,,,,,,,,,,,,814,2022-01-19_12h13.30.647,multiplicationStroop,2021.2.3,Win32,60.09615385,,,,,,,,,,,,,,,,,,,,,0,0,0,0,1,stimulusFile/magnitude.xlsx,NUMERICALLY larger (larger coefficient).,images/numericallyLarger.png,,,,,,,,,,,,,,,,,,,,,,,,,,,,,
,,,,,,,,,,,,,,,814,2022-01-19_12h13.30.647,multiplicationStroop,2021.2.3,Win32,60.09615385,space,2.681,space,2.4261,left,1,0.9577,0,0,0,6,1,7,6,7 | 6,1,1.9756,1.4111,congruent,left,,,,,,stimulusFile/physical.xlsx,,,,,,,,,,,,,,,,,,,,,,,,,,,,,,,
,,,,,,,,,,,,,,,814,2022-01-19_12h13.30.647,multiplicationStroop,2021.2.3,Win32,60.09615385,,,,,right,1,0.6032,0,1,1,38,1,8,6,8 | 6,2,1.4111,1.9756,incongruent,right,,,,,,stimulusFile/physical.xlsx,,,,,,,,,,,,,,,,,,,,,,,,,,,,,,,
,,,,,,,,,,,,,,,814,2022-01-19_12h13.30.647,multiplicationStroop,2021.2.3,Win32,60.09615385,,,,,left,0,0.4894,0,2,2,56,1,1,1,1 | 1,0,1.4111,1.9756,neutral,right,,,,,,stimulusFile/physical.xlsx,,,,,,,,,,,,,,,,,,,,,,,,,,,,,,,
,,,,,,,,,,,,,,,814,2022-01-19_12h13.30.647,multiplicationStroop,2021.2.3,Win32,60.09615385,,,,,left,1,0.7004,0,3,3,12,1,3,1,3 | 1,2,1.9756,1.4111,congruent,left,,,,,,stimulusFile/physical.xlsx,,,,,,,,,,,,,,,,,,,,,,,,,,,,,,,
,,,,,,,,,,,,,,,814,2022-01-19_12h13.30.647,multiplicationStroop,2021.2.3,Win32,60.09615385,,,,,right,1,0.6002,0,4,4,39,1,9,7,9 | 7,2,1.4111,1.9756,incongruent,right,,,,,,stimulusFile/physical.xlsx,,,,,,,,,,,,,,,,,,,,,,,,,,,,,,,
,,,,,,,,,,,,,,,814,2022-01-19_12h13.30.647,multiplicationStroop,2021.2.3,Win32,60.09615385,,,,,left,0,0.5573,0,5,5,44,1,6,1,6 | 1,5,1.4111,1.9756,incongruent,right,,,,,,stimulusFile/physical.xlsx,,,,,,,,,,,,,,,,,,,,,,,,,,,,,,,
,,,,,,,,,,,,,,,814,2022-01-19_12h13.30.647,multiplicationStroop,2021.2.3,Win32,60.09615385,,,,,right,1,1.1201,0,6,6,18,1,3,8,3 | 8,5,1.4111,1.9756,congruent,right,,,,,,stimulusFile/physical.xlsx,,,,,,,,,,,,,,,,,,,,,,,,,,,,,,,
,,,,,,,,,,,,,,,814,2022-01-19_12h13.30.647,multiplicationStroop,2021.2.3,Win32,60.09615385,,,,,left,1,0.6943,0,7,7,26,1,6,7,6 | 7,1,1.9756,1.4111,incongruent,left,,,,,,stimulusFile/physical.xlsx,,,,,,,,,,,,,,,,,,,,,,,,,,,,,,,
,,,,,,,,,,,,,,,814,2022-01-19_12h13.30.647,multiplicationStroop,2021.2.3,Win32,60.09615385,,,,,right,1,0.6862,0,8,8,31,1,9,8,9 | 8,1,1.4111,1.9756,incongruent,right,,,,,,stimulusFile/physical.xlsx,,,,,,,,,,,,,,,,,,,,,,,,,,,,,,,
,,,,,,,,,,,,,,,814,2022-01-19_12h13.30.647,multiplicationStroop,2021.2.3,Win32,60.09615385,,,,,left,1,1.1262,0,9,9,70,1,8,8,8 | 8,0,1.9756,1.4111,neutral,left,,,,,,stimulusFile/physical.xlsx,,,,,,,,,,,,,,,,,,,,,,,,,,,,,,,
,,,,,,,,,,,,,,,814,2022-01-19_12h13.30.647,multiplicationStroop,2021.2.3,Win32,60.09615385,,,,,right,0,0.5442,0,10,10,43,1,4,9,4 | 9,5,1.9756,1.4111,incongruent,left,,,,,,stimulusFile/physical.xlsx,,,,,,,,,,,,,,,,,,,,,,,,,,,,,,,
,,,,,,,,,,,,,,,814,2022-01-19_12h13.30.647,multiplicationStroop,2021.2.3,Win32,60.09615385,,,,,left,1,0.7697,0,11,11,22,1,8,3,8 | 3,5,1.9756,1.4111,congruent,left,,,,,,stimulusFile/physical.xlsx,,,,,,,,,,,,,,,,,,,,,,,,,,,,,,,
,,,,,,,,,,,,,,,814,2022-01-19_12h13.30.647,multiplicationStroop,2021.2.3,Win32,60.09615385,,,,,left,1,1.0162,0,12,12,34,1,6,8,6 | 8,2,1.9756,1.4111,incongruent,left,,,,,,stimulusFile/physical.xlsx,,,,,,,,,,,,,,,,,,,,,,,,,,,,,,,
,,,,,,,,,,,,,,,814,2022-01-19_12h13.30.647,multiplicationStroop,2021.2.3,Win32,60.09615385,,,,,left,1,0.6366,0,13,13,5,1,4,3,4 | 3,1,1.9756,1.4111,congruent,left,,,,,,stimulusFile/physical.xlsx,,,,,,,,,,,,,,,,,,,,,,,,,,,,,,,
,,,,,,,,,,,,,,,814,2022-01-19_12h13.30.647,multiplicationStroop,2021.2.3,Win32,60.09615385,,,,,left,1,0.6006,0,14,14,68,1,6,6,6 | 6,0,1.9756,1.4111,neutral,left,,,,,,stimulusFile/physical.xlsx,,,,,,,,,,,,,,,,,,,,,,,,,,,,,,,
,,,,,,,,,,,,,,,814,2022-01-19_12h13.30.647,multiplicationStroop,2021.2.3,Win32,60.09615385,,,,,left,1,0.6217,0,15,15,54,1,7,7,7 | 7,0,1.9756,1.4111,neutral,left,,,,,,stimulusFile/physical.xlsx,,,,,,,,,,,,,,,,,,,,,,,,,,,,,,,
,,,,,,,,,,,,,,,814,2022-01-19_12h13.30.647,multiplicationStroop,2021.2.3,Win32,60.09615385,,,,,left,1,0.6221,0,16,16,13,1,4,2,4 | 2,2,1.9756,1.4111,congruent,left,,,,,,stimulusFile/physical.xlsx,,,,,,,,,,,,,,,,,,,,,,,,,,,,,,,
,,,,,,,,,,,,,,,814,2022-01-19_12h13.30.647,multiplicationStroop,2021.2.3,Win32,60.09615385,,,,,left,1,1.1742,0,17,17,40,1,1,6,1 | 6,5,1.9756,1.4111,incongruent,left,,,,,,stimulusFile/physical.xlsx,,,,,,,,,,,,,,,,,,,,,,,,,,,,,,,
,,,,,,,,,,,,,,,814,2022-01-19_12h13.30.647,multiplicationStroop,2021.2.3,Win32,60.09615385,,,,,right,1,0.8005,0,18,18,47,1,9,4,9 | 4,5,1.4111,1.9756,incongruent,right,,,,,,stimulusFile/physical.xlsx,,,,,,,,,,,,,,,,,,,,,,,,,,,,,,,
,,,,,,,,,,,,,,,814,2022-01-19_12h13.30.647,multiplicationStroop,2021.2.3,Win32,60.09615385,,,,,right,1,0.7953,0,19,19,67,1,4,4,4 | 4,0,1.4111,1.9756,neutral,right,,,,,,stimulusFile/physical.xlsx,,,,,,,,,,,,,,,,,,,,,,,,,,,,,,,
,,,,,,,,,,,,,,,814,2022-01-19_12h13.30.647,multiplicationStroop,2021.2.3,Win32,60.09615385,,,,,right,1,0.6836,0,20,20,58,1,6,6,6 | 6,0,1.4111,1.9756,neutral,right,,,,,,stimulusFile/physical.xlsx,,,,,,,,,,,,,,,,,,,,,,,,,,,,,,,
,,,,,,,,,,,,,,,814,2022-01-19_12h13.30.647,multiplicationStroop,2021.2.3,Win32,60.09615385,,,,,left,1,0.6924,0,21,21,21,1,7,2,7 | 2,5,1.9756,1.4111,congruent,left,,,,,,stimulusFile/physical.xlsx,,,,,,,,,,,,,,,,,,,,,,,,,,,,,,,
,,,,,,,,,,,,,,,814,2022-01-19_12h13.30.647,multiplicationStroop,2021.2.3,Win32,60.09615385,,,,,right,1,0.6719,0,22,22,9,1,2,4,2 | 4,2,1.4111,1.9756,congruent,right,,,,,,stimulusFile/physical.xlsx,,,,,,,,,,,,,,,,,,,,,,,,,,,,,,,
,,,,,,,,,,,,,,,814,2022-01-19_12h13.30.647,multiplicationStroop,2021.2.3,Win32,60.09615385,,,,,left,1,0.6706,0,23,23,4,1,2,1,2 | 1,1,1.9756,1.4111,congruent,left,,,,,,stimulusFile/physical.xlsx,,,,,,,,,,,,,,,,,,,,,,,,,,,,,,,
,,,,,,,,,,,,,,,814,2022-01-19_12h13.30.647,multiplicationStroop,2021.2.3,Win32,60.09615385,,,,,left,1,1.5706,0,24,24,7,1,9,8,9 | 8,1,1.9756,1.4111,congruent,left,,,,,,stimulusFile/physical.xlsx,,,,,,,,,,,,,,,,,,,,,,,,,,,,,,,
,,,,,,,,,,,,,,,814,2022-01-19_12h13.30.647,multiplicationStroop,2021.2.3,Win32,60.09615385,,,,,right,1,0.6517,0,25,25,16,1,1,6,1 | 6,5,1.4111,1.9756,congruent,right,,,,,,stimulusFile/physical.xlsx,,,,,,,,,,,,,,,,,,,,,,,,,,,,,,,
,,,,,,,,,,,,,,,814,2022-01-19_12h13.30.647,multiplicationStroop,2021.2.3,Win32,60.09615385,,,,,left,1,0.726,0,26,26,49,1,3,3,3 | 3,0,1.9756,1.4111,neutral,left,,,,,,stimulusFile/physical.xlsx,,,,,,,,,,,,,,,,,,,,,,,,,,,,,,,
,,,,,,,,,,,,,,,814,2022-01-19_12h13.30.647,multiplicationStroop,2021.2.3,Win32,60.09615385,,,,,right,1,0.8003,0,27,27,65,1,2,2,2 | 2,0,1.4111,1.9756,neutral,right,,,,,,stimulusFile/physical.xlsx,,,,,,,,,,,,,,,,,,,,,,,,,,,,,,,
,,,,,,,,,,,,,,,814,2022-01-19_12h13.30.647,multiplicationStroop,2021.2.3,Win32,60.09615385,,,,,left,0,0.6503,0,28,28,66,1,3,3,3 | 3,0,1.9756,1.4111,neutral,right,,,,,,stimulusFile/physical.xlsx,,,,,,,,,,,,,,,,,,,,,,,,,,,,,,,
,,,,,,,,,,,,,,,814,2022-01-19_12h13.30.647,multiplicationStroop,2021.2.3,Win32,60.09615385,,,,,right,1,0.6005,0,29,29,17,1,2,7,2 | 7,5,1.4111,1.9756,congruent,right,,,,,,stimulusFile/physical.xlsx,,,,,,,,,,,,,,,,,,,,,,,,,,,,,,,
,,,,,,,,,,,,,,,814,2022-01-19_12h13.30.647,multiplicationStroop,2021.2.3,Win32,60.09615385,,,,,left,1,0.8734,0,30,30,42,1,3,8,3 | 8,5,1.9756,1.4111,incongruent,left,,,,,,stimulusFile/physical.xlsx,,,,,,,,,,,,,,,,,,,,,,,,,,,,,,,
,,,,,,,,,,,,,,,814,2022-01-19_12h13.30.647,multiplicationStroop,2021.2.3,Win32,60.09615385,,,,,right,0,0.6668,0,31,31,69,1,7,7,7 | 7,0,1.4111,1.9756,neutral,left,,,,,,stimulusFile/physical.xlsx,,,,,,,,,,,,,,,,,,,,,,,,,,,,,,,
,,,,,,,,,,,,,,,814,2022-01-19_12h13.30.647,multiplicationStroop,2021.2.3,Win32,60.09615385,,,,,left,1,1.4343,0,32,32,27,1,8,9,8 | 9,1,1.9756,1.4111,incongruent,left,,,,,,stimulusFile/physical.xlsx,,,,,,,,,,,,,,,,,,,,,,,,,,,,,,,
,,,,,,,,,,,,,,,814,2022-01-19_12h13.30.647,multiplicationStroop,2021.2.3,Win32,60.09615385,,,,,right,1,0.7526,0,33,33,29,1,4,3,4 | 3,1,1.4111,1.9756,incongruent,right,,,,,,stimulusFile/physical.xlsx,,,,,,,,,,,,,,,,,,,,,,,,,,,,,,,
,,,,,,,,,,,,,,,814,2022-01-19_12h13.30.647,multiplicationStroop,2021.2.3,Win32,60.09615385,,,,,left,1,0.6267,0,34,34,33,1,2,4,2 | 4,2,1.9756,1.4111,incongruent,left,,,,,,stimulusFile/physical.xlsx,,,,,,,,,,,,,,,,,,,,,,,,,,,,,,,
,,,,,,,,,,,,,,,814,2022-01-19_12h13.30.647,multiplicationStroop,2021.2.3,Win32,60.09615385,,,,,left,1,0.7044,0,35,35,23,1,9,4,9 | 4,5,1.9756,1.4111,congruent,left,,,,,,stimulusFile/physical.xlsx,,,,,,,,,,,,,,,,,,,,,,,,,,,,,,,
,,,,,,,,,,,,,,,814,2022-01-19_12h13.30.647,multiplicationStroop,2021.2.3,Win32,60.09615385,,,,,left,1,0.6835,0,36,36,53,1,4,4,4 | 4,0,1.9756,1.4111,neutral,left,,,,,,stimulusFile/physical.xlsx,,,,,,,,,,,,,,,,,,,,,,,,,,,,,,,
,,,,,,,,,,,,,,,814,2022-01-19_12h13.30.647,multiplicationStroop,2021.2.3,Win32,60.09615385,,,,,right,1,0.8103,0,37,37,62,1,8,8,8 | 8,0,1.4111,1.9756,neutral,right,,,,,,stimulusFile/physical.xlsx,,,,,,,,,,,,,,,,,,,,,,,,,,,,,,,
,,,,,,,,,,,,,,,814,2022-01-19_12h13.30.647,multiplicationStroop,2021.2.3,Win32,60.09615385,,,,,left,1,0.9019,0,38,38,24,1,1,2,1 | 2,1,1.9756,1.4111,incongruent,left,,,,,,stimulusFile/physical.xlsx,,,,,,,,,,,,,,,,,,,,,,,,,,,,,,,
,,,,,,,,,,,,,,,814,2022-01-19_12h13.30.647,multiplicationStroop,2021.2.3,Win32,60.09615385,,,,,left,1,0.5849,0,39,39,52,1,2,2,2 | 2,0,1.9756,1.4111,neutral,left,,,,,,stimulusFile/physical.xlsx,,,,,,,,,,,,,,,,,,,,,,,,,,,,,,,
,,,,,,,,,,,,,,,814,2022-01-19_12h13.30.647,multiplicationStroop,2021.2.3,Win32,60.09615385,,,,,left,1,0.7931,0,40,40,41,1,2,7,2 | 7,5,1.9756,1.4111,incongruent,left,,,,,,stimulusFile/physical.xlsx,,,,,,,,,,,,,,,,,,,,,,,,,,,,,,,
,,,,,,,,,,,,,,,814,2022-01-19_12h13.30.647,multiplicationStroop,2021.2.3,Win32,60.09615385,,,,,left,0,0.5551,0,41,41,64,1,1,1,1 | 1,0,1.9756,1.4111,neutral,right,,,,,,stimulusFile/physical.xlsx,,,,,,,,,,,,,,,,,,,,,,,,,,,,,,,
,,,,,,,,,,,,,,,814,2022-01-19_12h13.30.647,multiplicationStroop,2021.2.3,Win32,60.09615385,,,,,right,1,0.6012,0,42,42,3,1,8,9,8 | 9,1,1.4111,1.9756,congruent,right,,,,,,stimulusFile/physical.xlsx,,,,,,,,,,,,,,,,,,,,,,,,,,,,,,,
,,,,,,,,,,,,,,,814,2022-01-19_12h13.30.647,multiplicationStroop,2021.2.3,Win32,60.09615385,,,,,right,1,0.4344,0,43,43,63,1,9,9,9 | 9,0,1.4111,1.9756,neutral,right,,,,,,stimulusFile/physical.xlsx,,,,,,,,,,,,,,,,,,,,,,,,,,,,,,,
,,,,,,,,,,,,,,,814,2022-01-19_12h13.30.647,multiplicationStroop,2021.2.3,Win32,60.09615385,,,,,right,1,0.6019,0,44,44,11,1,7,9,7 | 9,2,1.4111,1.9756,congruent,right,,,,,,stimulusFile/physical.xlsx,,,,,,,,,,,,,,,,,,,,,,,,,,,,,,,
,,,,,,,,,,,,,,,814,2022-01-19_12h13.30.647,multiplicationStroop,2021.2.3,Win32,60.09615385,,,,,right,1,0.6596,0,45,45,37,1,4,2,4 | 2,2,1.4111,1.9756,incongruent,right,,,,,,stimulusFile/physical.xlsx,,,,,,,,,,,,,,,,,,,,,,,,,,,,,,,
,,,,,,,,,,,,,,,814,2022-01-19_12h13.30.647,multiplicationStroop,2021.2.3,Win32,60.09615385,,,,,left,1,0.7179,0,46,46,55,1,9,9,9 | 9,0,1.9756,1.4111,neutral,left,,,,,,stimulusFile/physical.xlsx,,,,,,,,,,,,,,,,,,,,,,,,,,,,,,,
,,,,,,,,,,,,,,,814,2022-01-19_12h13.30.647,multiplicationStroop,2021.2.3,Win32,60.09615385,,,,,right,1,0.5752,0,47,47,28,1,2,1,2 | 1,1,1.4111,1.9756,incongruent,right,,,,,,stimulusFile/physical.xlsx,,,,,,,,,,,,,,,,,,,,,,,,,,,,,,,
,,,,,,,,,,,,,,,814,2022-01-19_12h13.30.647,multiplicationStroop,2021.2.3,Win32,60.09615385,,,,,right,0,0.5105,0,48,48,71,1,9,9,9 | 9,0,1.4111,1.9756,neutral,left,,,,,,stimulusFile/physical.xlsx,,,,,,,,,,,,,,,,,,,,,,,,,,,,,,,
,,,,,,,,,,,,,,,814,2022-01-19_12h13.30.647,multiplicationStroop,2021.2.3,Win32,60.09615385,,,,,right,1,0.4427,0,49,49,2,1,6,7,6 | 7,1,1.4111,1.9756,congruent,right,,,,,,stimulusFile/physical.xlsx,,,,,,,,,,,,,,,,,,,,,,,,,,,,,,,
,,,,,,,,,,,,,,,814,2022-01-19_12h13.30.647,multiplicationStroop,2021.2.3,Win32,60.09615385,,,,,right,1,0.5062,0,50,50,45,1,7,2,7 | 2,5,1.4111,1.9756,incongruent,right,,,,,,stimulusFile/physical.xlsx,,,,,,,,,,,,,,,,,,,,,,,,,,,,,,,
,,,,,,,,,,,,,,,814,2022-01-19_12h13.30.647,multiplicationStroop,2021.2.3,Win32,60.09615385,,,,,right,1,0.5869,0,51,51,46,1,8,3,8 | 3,5,1.4111,1.9756,incongruent,right,,,,,,stimulusFile/physical.xlsx,,,,,,,,,,,,,,,,,,,,,,,,,,,,,,,
,,,,,,,,,,,,,,,814,2022-01-19_12h13.30.647,multiplicationStroop,2021.2.3,Win32,60.09615385,,,,,right,1,0.4685,0,52,52,57,1,2,2,2 | 2,0,1.4111,1.9756,neutral,right,,,,,,stimulusFile/physical.xlsx,,,,,,,,,,,,,,,,,,,,,,,,,,,,,,,
,,,,,,,,,,,,,,,814,2022-01-19_12h13.30.647,multiplicationStroop,2021.2.3,Win32,60.09615385,,,,,right,1,0.4231,0,53,53,30,1,7,6,7 | 6,1,1.4111,1.9756,incongruent,right,,,,,,stimulusFile/physical.xlsx,,,,,,,,,,,,,,,,,,,,,,,,,,,,,,,
,,,,,,,,,,,,,,,814,2022-01-19_12h13.30.647,multiplicationStroop,2021.2.3,Win32,60.09615385,,,,,left,1,0.5909,0,54,54,25,1,3,4,3 | 4,1,1.9756,1.4111,incongruent,left,,,,,,stimulusFile/physical.xlsx,,,,,,,,,,,,,,,,,,,,,,,,,,,,,,,
,,,,,,,,,,,,,,,814,2022-01-19_12h13.30.647,multiplicationStroop,2021.2.3,Win32,60.09615385,,,,,left,1,0.8902,0,55,55,20,1,6,1,6 | 1,5,1.9756,1.4111,congruent,left,,,,,,stimulusFile/physical.xlsx,,,,,,,,,,,,,,,,,,,,,,,,,,,,,,,
,,,,,,,,,,,,,,,814,2022-01-19_12h13.30.647,multiplicationStroop,2021.2.3,Win32,60.09615385,,,,,right,1,0.6955,0,56,56,59,1,7,7,7 | 7,0,1.4111,1.9756,neutral,right,,,,,,stimulusFile/physical.xlsx,,,,,,,,,,,,,,,,,,,,,,,,,,,,,,,
,,,,,,,,,,,,,,,814,2022-01-19_12h13.30.647,multiplicationStroop,2021.2.3,Win32,60.09615385,,,,,right,1,0.5613,0,57,57,8,1,1,3,1 | 3,2,1.4111,1.9756,congruent,right,,,,,,stimulusFile/physical.xlsx,,,,,,,,,,,,,,,,,,,,,,,,,,,,,,,
,,,,,,,,,,,,,,,814,2022-01-19_12h13.30.647,multiplicationStroop,2021.2.3,Win32,60.09615385,,,,,right,1,0.6045,0,58,58,61,1,4,4,4 | 4,0,1.4111,1.9756,neutral,right,,,,,,stimulusFile/physical.xlsx,,,,,,,,,,,,,,,,,,,,,,,,,,,,,,,
,,,,,,,,,,,,,,,814,2022-01-19_12h13.30.647,multiplicationStroop,2021.2.3,Win32,60.09615385,,,,,left,1,0.6078,0,59,59,32,1,1,3,1 | 3,2,1.9756,1.4111,incongruent,left,,,,,,stimulusFile/physical.xlsx,,,,,,,,,,,,,,,,,,,,,,,,,,,,,,,
,,,,,,,,,,,,,,,814,2022-01-19_12h13.30.647,multiplicationStroop,2021.2.3,Win32,60.09615385,,,,,right,1,0.4077,0,60,60,19,1,4,9,4 | 9,5,1.4111,1.9756,congruent,right,,,,,,stimulusFile/physical.xlsx,,,,,,,,,,,,,,,,,,,,,,,,,,,,,,,
,,,,,,,,,,,,,,,814,2022-01-19_12h13.30.647,multiplicationStroop,2021.2.3,Win32,60.09615385,,,,,right,1,0.91,0,61,61,60,1,3,3,3 | 3,0,1.4111,1.9756,neutral,right,,,,,,stimulusFile/physical.xlsx,,,,,,,,,,,,,,,,,,,,,,,,,,,,,,,
,,,,,,,,,,,,,,,814,2022-01-19_12h13.30.647,multiplicationStroop,2021.2.3,Win32,60.09615385,,,,,right,1,0.6095,0,62,62,10,1,6,8,6 | 8,2,1.4111,1.9756,congruent,right,,,,,,stimulusFile/physical.xlsx,,,,,,,,,,,,,,,,,,,,,,,,,,,,,,,
,,,,,,,,,,,,,,,814,2022-01-19_12h13.30.647,multiplicationStroop,2021.2.3,Win32,60.09615385,,,,,right,1,0.9178,0,63,63,0,1,1,2,1 | 2,1,1.4111,1.9756,congruent,right,,,,,,stimulusFile/physical.xlsx,,,,,,,,,,,,,,,,,,,,,,,,,,,,,,,
,,,,,,,,,,,,,,,814,2022-01-19_12h13.30.647,multiplicationStroop,2021.2.3,Win32,60.09615385,,,,,left,1,0.555,0,64,64,48,1,1,1,1 | 1,0,1.9756,1.4111,neutral,left,,,,,,stimulusFile/physical.xlsx,,,,,,,,,,,,,,,,,,,,,,,,,,,,,,,
,,,,,,,,,,,,,,,814,2022-01-19_12h13.30.647,multiplicationStroop,2021.2.3,Win32,60.09615385,,,,,left,1,0.7508,0,65,65,51,1,8,8,8 | 8,0,1.9756,1.4111,neutral,left,,,,,,stimulusFile/physical.xlsx,,,,,,,,,,,,,,,,,,,,,,,,,,,,,,,
,,,,,,,,,,,,,,,814,2022-01-19_12h13.30.647,multiplicationStroop,2021.2.3,Win32,60.09615385,,,,,left,1,0.6458,0,66,66,15,1,9,7,9 | 7,2,1.9756,1.4111,congruent,left,,,,,,stimulusFile/physical.xlsx,,,,,,,,,,,,,,,,,,,,,,,,,,,,,,,
,,,,,,,,,,,,,,,814,2022-01-19_12h13.30.647,multiplicationStroop,2021.2.3,Win32,60.09615385,,,,,right,1,0.6166,0,67,67,1,1,3,4,3 | 4,1,1.4111,1.9756,congruent,right,,,,,,stimulusFile/physical.xlsx,,,,,,,,,,,,,,,,,,,,,,,,,,,,,,,
,,,,,,,,,,,,,,,814,2022-01-19_12h13.30.647,multiplicationStroop,2021.2.3,Win32,60.09615385,,,,,left,1,0.674,0,68,68,50,1,6,6,6 | 6,0,1.9756,1.4111,neutral,left,,,,,,stimulusFile/physical.xlsx,,,,,,,,,,,,,,,,,,,,,,,,,,,,,,,
,,,,,,,,,,,,,,,814,2022-01-19_12h13.30.647,multiplicationStroop,2021.2.3,Win32,60.09615385,,,,,left,1,0.7448,0,69,69,14,1,8,6,8 | 6,2,1.9756,1.4111,congruent,left,,,,,,stimulusFile/physical.xlsx,,,,,,,,,,,,,,,,,,,,,,,,,,,,,,,
,,,,,,,,,,,,,,,814,2022-01-19_12h13.30.647,multiplicationStroop,2021.2.3,Win32,60.09615385,,,,,right,1,0.5207,0,70,70,36,1,3,1,3 | 1,2,1.4111,1.9756,incongruent,right,,,,,,stimulusFile/physical.xlsx,,,,,,,,,,,,,,,,,,,,,,,,,,,,,,,
,,,,,,,,,,,,,,,814,2022-01-19_12h13.30.647,multiplicationStroop,2021.2.3,Win32,60.09615385,,,,,left,1,0.5061,0,71,71,35,1,7,9,7 | 9,2,1.9756,1.4111,incongruent,left,,,,,,stimulusFile/physical.xlsx,,,,,,,,,,,,,,,,,,,,,,,,,,,,,,,
,,,,,,,,,,,,,,,814,2022-01-19_12h13.30.647,multiplicationStroop,2021.2.3,Win32,60.09615385,,,,,,,,,,,,,,,,,,,,,0,1,1,1,1,stimulusFile/physical.xlsx,PHYSICALLY larger (larger font size).,images/physicallyLarger.png,,,,,,,,,,,,,,,,,,,,,,,,,,,,,
,,,,,,,,,,,,,,,814,2022-01-19_12h13.30.647,multiplicationStroop,2021.2.3,Win32,60.09615385,,,,,,,,,,,,,,,,,,,,,,,,,,,,,space,2.549,space,5.1321,30,4.3091,1,0,0,0,11,1,5,×,6,5 × 6,incongruent,smallerFirst,2,1,30,,,,,,,,
,,,,,,,,,,,,,,,814,2022-01-19_12h13.30.647,multiplicationStroop,2021.2.3,Win32,60.09615385,,,,,,,,,,,,,,,,,,,,,,,,,,,,,,,,,40,3.8476,0,0,1,1,15,1,8,×,6,8 × 6,incongruent,largerFirst,1,2,48,,,,,,,,
,,,,,,,,,,,,,,,814,2022-01-19_12h13.30.647,multiplicationStroop,2021.2.3,Win32,60.09615385,,,,,,,,,,,,,,,,,,,,,,,,,,,,,,,,,27,3.4356,0,0,2,2,2,1,4,×,7,4 × 7,incongruent,smallerFirst,2,1,28,,,,,,,,
,,,,,,,,,,,,,,,814,2022-01-19_12h13.30.647,multiplicationStroop,2021.2.3,Win32,60.09615385,,,,,,,,,,,,,,,,,,,,,,,,,,,,,,,,,23,5.8148,0,0,3,3,23,1,8,×,3,8 × 3,incongruent,largerFirst,1,2,24,,,,,,,,
,,,,,,,,,,,,,,,814,2022-01-19_12h13.30.647,multiplicationStroop,2021.2.3,Win32,60.09615385,,,,,,,,,,,,,,,,,,,,,,,,,,,,,,,,,18,2.0836,1,0,4,4,16,1,9,×,2,9 × 2,incongruent,largerFirst,1,2,18,,,,,,,,
,,,,,,,,,,,,,,,814,2022-01-19_12h13.30.647,multiplicationStroop,2021.2.3,Win32,60.09615385,,,,,,,,,,,,,,,,,,,,,,,,,,,,,,,,,18,3.7812,1,0,5,5,22,1,6,×,3,6 × 3,incongruent,largerFirst,1,2,18,,,,,,,,
,,,,,,,,,,,,,,,814,2022-01-19_12h13.30.647,multiplicationStroop,2021.2.3,Win32,60.09615385,,,,,,,,,,,,,,,,,,,,,,,,,,,,,,,,,25,2.7333,1,0,6,6,31,1,5,×,5,5 × 5,neutral,tie,2,1,25,,,,,,,,
,,,,,,,,,,,,,,,814,2022-01-19_12h13.30.647,multiplicationStroop,2021.2.3,Win32,60.09615385,,,,,,,,,,,,,,,,,,,,,,,,,,,,,,,,,9,2.1486,0,0,7,7,25,1,3,×,2,3 × 2,incongruent,largerFirst,1,2,6,,,,,,,,
,,,,,,,,,,,,,,,814,2022-01-19_12h13.30.647,multiplicationStroop,2021.2.3,Win32,60.09615385,,,,,,,,,,,,,,,,,,,,,,,,,,,,,,,,,64,12.1272,0,0,8,8,17,1,9,×,7,9 × 7,incongruent,largerFirst,1,2,63,,,,,,,,
,,,,,,,,,,,,,,,814,2022-01-19_12h13.30.647,multiplicationStroop,2021.2.3,Win32,60.09615385,,,,,,,,,,,,,,,,,,,,,,,,,,,,,,,,,64,15.6603,1,0,9,9,34,1,8,×,8,8 × 8,neutral,tie,2,1,64,,,,,,,,
,,,,,,,,,,,,,,,814,2022-01-19_12h13.30.647,multiplicationStroop,2021.2.3,Win32,60.09615385,,,,,,,,,,,,,,,,,,,,,,,,,,,,,,,,,40,2.6209,1,0,10,10,27,1,8,×,5,8 × 5,incongruent,largerFirst,1,2,40,,,,,,,,
,,,,,,,,,,,,,,,814,2022-01-19_12h13.30.647,multiplicationStroop,2021.2.3,Win32,60.09615385,,,,,,,,,,,,,,,,,,,,,,,,,,,,,,,,,35,11.9776,1,0,11,11,26,1,7,×,5,7 × 5,incongruent,largerFirst,1,2,35,,,,,,,,
,,,,,,,,,,,,,,,814,2022-01-19_12h13.30.647,multiplicationStroop,2021.2.3,Win32,60.09615385,,,,,,,,,,,,,,,,,,,,,,,,,,,,,,,,,9,2.7492,1,0,12,12,29,1,3,×,3,3 × 3,neutral,tie,2,1,9,,,,,,,,
,,,,,,,,,,,,,,,814,2022-01-19_12h13.30.647,multiplicationStroop,2021.2.3,Win32,60.09615385,,,,,,,,,,,,,,,,,,,,,,,,,,,,,,,,,21,2.7812,1,0,13,13,12,1,3,×,7,3 × 7,incongruent,smallerFirst,2,1,21,,,,,,,,
,,,,,,,,,,,,,,,814,2022-01-19_12h13.30.647,multiplicationStroop,2021.2.3,Win32,60.09615385,,,,,,,,,,,,,,,,,,,,,,,,,,,,,,,,,12,1.9486,1,0,14,14,5,1,2,×,6,2 × 6,incongruent,smallerFirst,2,1,12,,,,,,,,
,,,,,,,,,,,,,,,814,2022-01-19_12h13.30.647,multiplicationStroop,2021.2.3,Win32,60.09615385,,,,,,,,,,,,,,,,,,,,,,,,,,,,,,,,,4,1.5654,1,0,15,15,28,1,2,×,2,2 × 2,neutral,tie,2,1,4,,,,,,,,
,,,,,,,,,,,,,,,814,2022-01-19_12h13.30.647,multiplicationStroop,2021.2.3,Win32,60.09615385,,,,,,,,,,,,,,,,,,,,,,,,,,,,,,,,,10,2.0153,1,0,16,16,7,1,2,×,5,2 × 5,incongruent,smallerFirst,2,1,10,,,,,,,,
,,,,,,,,,,,,,,,814,2022-01-19_12h13.30.647,multiplicationStroop,2021.2.3,Win32,60.09615385,,,,,,,,,,,,,,,,,,,,,,,,,,,,,,,,,45,2.4316,0,0,17,17,20,1,9,×,6,9 × 6,incongruent,largerFirst,1,2,54,,,,,,,,
,,,,,,,,,,,,,,,814,2022-01-19_12h13.30.647,multiplicationStroop,2021.2.3,Win32,60.09615385,,,,,,,,,,,,,,,,,,,,,,,,,,,,,,,,,8,2.4649,1,0,18,18,10,1,2,×,4,2 × 4,incongruent,smallerFirst,2,1,8,,,,,,,,
,,,,,,,,,,,,,,,814,2022-01-19_12h13.30.647,multiplicationStroop,2021.2.3,Win32,60.09615385,,,,,,,,,,,,,,,,,,,,,,,,,,,,,,,,,27,5.5637,1,0,19,19,4,1,3,×,9,3 × 9,incongruent,smallerFirst,2,1,27,,,,,,,,
,,,,,,,,,,,,,,,814,2022-01-19_12h13.30.647,multiplicationStroop,2021.2.3,Win32,60.09615385,,,,,,,,,,,,,,,,,,,,,,,,,,,,,,,,,35,4.8861,0,0,20,20,3,1,6,×,7,6 × 7,incongruent,smallerFirst,2,1,42,,,,,,,,
,,,,,,,,,,,,,,,814,2022-01-19_12h13.30.647,multiplicationStroop,2021.2.3,Win32,60.09615385,,,,,,,,,,,,,,,,,,,,,,,,,,,,,,,,,16,2.3171,0,0,21,21,19,1,4,×,3,4 × 3,incongruent,largerFirst,1,2,12,,,,,,,,
,,,,,,,,,,,,,,,814,2022-01-19_12h13.30.647,multiplicationStroop,2021.2.3,Win32,60.09615385,,,,,,,,,,,,,,,,,,,,,,,,,,,,,,,,,32,4.5642,0,0,22,22,1,1,4,×,9,4 × 9,incongruent,smallerFirst,2,1,36,,,,,,,,
,,,,,,,,,,,,,,,814,2022-01-19_12h13.30.647,multiplicationStroop,2021.2.3,Win32,60.09615385,,,,,,,,,,,,,,,,,,,,,,,,,,,,,,,,,56,4.2659,1,0,23,23,0,1,7,×,8,7 × 8,incongruent,smallerFirst,2,1,56,,,,,,,,
,,,,,,,,,,,,,,,814,2022-01-19_12h13.30.647,multiplicationStroop,2021.2.3,Win32,60.09615385,,,,,,,,,,,,,,,,,,,,,,,,,,,,,,,,,24,6.6319,1,0,24,24,6,1,4,×,6,4 × 6,incongruent,smallerFirst,2,1,24,,,,,,,,
,,,,,,,,,,,,,,,814,2022-01-19_12h13.30.647,multiplicationStroop,2021.2.3,Win32,60.09615385,,,,,,,,,,,,,,,,,,,,,,,,,,,,,,,,,72,2.7164,1,0,25,25,14,1,9,×,8,9 × 8,incongruent,largerFirst,1,2,72,,,,,,,,
,,,,,,,,,,,,,,,814,2022-01-19_12h13.30.647,multiplicationStroop,2021.2.3,Win32,60.09615385,,,,,,,,,,,,,,,,,,,,,,,,,,,,,,,,,45,3.4645,1,0,26,26,8,1,5,×,9,5 × 9,incongruent,smallerFirst,2,1,45,,,,,,,,
,,,,,,,,,,,,,,,814,2022-01-19_12h13.30.647,multiplicationStroop,2021.2.3,Win32,60.09615385,,,,,,,,,,,,,,,,,,,,,,,,,,,,,,,,,36,2.4519,1,0,27,27,32,1,6,×,6,6 × 6,neutral,tie,2,1,36,,,,,,,,
,,,,,,,,,,,,,,,814,2022-01-19_12h13.30.647,multiplicationStroop,2021.2.3,Win32,60.09615385,,,,,,,,,,,,,,,,,,,,,,,,,,,,,,,,,15,2.0483,1,0,28,28,24,1,5,×,3,5 × 3,incongruent,largerFirst,1,2,15,,,,,,,,
,,,,,,,,,,,,,,,814,2022-01-19_12h13.30.647,multiplicationStroop,2021.2.3,Win32,60.09615385,,,,,,,,,,,,,,,,,,,,,,,,,,,,,,,,,16,1.9989,1,0,29,29,30,1,4,×,4,4 × 4,neutral,tie,2,1,16,,,,,,,,
,,,,,,,,,,,,,,,814,2022-01-19_12h13.30.647,multiplicationStroop,2021.2.3,Win32,60.09615385,,,,,,,,,,,,,,,,,,,,,,,,,,,,,,,,,24,2.8147,0,0,30,30,21,1,8,×,4,8 × 4,incongruent,largerFirst,1,2,32,,,,,,,,
,,,,,,,,,,,,,,,814,2022-01-19_12h13.30.647,multiplicationStroop,2021.2.3,Win32,60.09615385,,,,,,,,,,,,,,,,,,,,,,,,,,,,,,,,,20,4.6975,1,0,31,31,13,1,4,×,5,4 × 5,incongruent,smallerFirst,2,1,20,,,,,,,,
,,,,,,,,,,,,,,,814,2022-01-19_12h13.30.647,multiplicationStroop,2021.2.3,Win32,60.09615385,,,,,,,,,,,,,,,,,,,,,,,,,,,,,,,,,14,2.9014,1,0,32,32,18,1,7,×,2,7 × 2,incongruent,largerFirst,1,2,14,,,,,,,,
,,,,,,,,,,,,,,,814,2022-01-19_12h13.30.647,multiplicationStroop,2021.2.3,Win32,60.09615385,,,,,,,,,,,,,,,,,,,,,,,,,,,,,,,,,16,2.8819,1,0,33,33,9,1,2,×,8,2 × 8,incongruent,smallerFirst,2,1,16,,,,,,,,
,,,,,,,,,,,,,,,814,2022-01-19_12h13.30.647,multiplicationStroop,2021.2.3,Win32,60.09615385,,,,,,,,,,,,,,,,,,,,,,,,,,,,,,,,,72,7.0439,0,0,34,34,35,1,9,×,9,9 × 9,neutral,tie,2,1,81,,,,,,,,
,,,,,,,,,,,,,,,814,2022-01-19_12h13.30.647,multiplicationStroop,2021.2.3,Win32,60.09615385,,,,,,,,,,,,,,,,,,,,,,,,,,,,,,,,,49,3.5492,1,0,35,35,33,1,7,×,7,7 × 7,neutral,tie,2,1,49,,,,,,,,
,,,,,,,,,,,,,,,814,2022-01-19_12h13.30.647,multiplicationStroop,2021.2.3,Win32,60.09615385,,,,,,,,,,,,,,,,,,,,,,,,,,,,,,,,,,,,,,,,,,,,,,,,,,0,0,0,4,1,stimulusFile/mult_blk5_INcongruent.xlsx,,
,,,,,,,,,,,,,,,814,2022-01-19_12h13.30.647,multiplicationStroop,2021.2.3,Win32,60.09615385,,,,,,,,,,,,,,,,,,,,,,,,,,,,,,,space,77.1263,56,4.5832,0,0,0,0,11,1,8,×,9,8 × 9,neutral,smallerFirst,1.5,1.5,72,,,,,,,,
,,,,,,,,,,,,,,,814,2022-01-19_12h13.30.647,multiplicationStroop,2021.2.3,Win32,60.09615385,,,,,,,,,,,,,,,,,,,,,,,,,,,,,,,,,32,5.9202,0,0,1,1,27,1,9,×,4,9 × 4,neutral,largerFirst,1.5,1.5,36,,,,,,,,
,,,,,,,,,,,,,,,814,2022-01-19_12h13.30.647,multiplicationStroop,2021.2.3,Win32,60.09615385,,,,,,,,,,,,,,,,,,,,,,,,,,,,,,,,,81,2.5349,1,0,2,2,35,1,9,×,9,9 × 9,neutral,tie,1.5,1.5,81,,,,,,,,
,,,,,,,,,,,,,,,814,2022-01-19_12h13.30.647,multiplicationStroop,2021.2.3,Win32,60.09615385,,,,,,,,,,,,,,,,,,,,,,,,,,,,,,,,,14,3.298,1,0,3,3,16,1,7,×,2,7 × 2,neutral,largerFirst,1.5,1.5,14,,,,,,,,
,,,,,,,,,,,,,,,814,2022-01-19_12h13.30.647,multiplicationStroop,2021.2.3,Win32,60.09615385,,,,,,,,,,,,,,,,,,,,,,,,,,,,,,,,,25,4.9031,1,0,4,4,31,1,5,×,5,5 × 5,neutral,tie,1.5,1.5,25,,,,,,,,
,,,,,,,,,,,,,,,814,2022-01-19_12h13.30.647,multiplicationStroop,2021.2.3,Win32,60.09615385,,,,,,,,,,,,,,,,,,,,,,,,,,,,,,,,,16,2.8016,1,0,5,5,30,1,4,×,4,4 × 4,neutral,tie,1.5,1.5,16,,,,,,,,
,,,,,,,,,,,,,,,814,2022-01-19_12h13.30.647,multiplicationStroop,2021.2.3,Win32,60.09615385,,,,,,,,,,,,,,,,,,,,,,,,,,,,,,,,,21,4.9652,1,0,6,6,8,1,3,×,7,3 × 7,neutral,smallerFirst,1.5,1.5,21,,,,,,,,
,,,,,,,,,,,,,,,814,2022-01-19_12h13.30.647,multiplicationStroop,2021.2.3,Win32,60.09615385,,,,,,,,,,,,,,,,,,,,,,,,,,,,,,,,,32,10.1634,1,0,7,7,23,1,8,×,4,8 × 4,neutral,largerFirst,1.5,1.5,32,,,,,,,,
,,,,,,,,,,,,,,,814,2022-01-19_12h13.30.647,multiplicationStroop,2021.2.3,Win32,60.09615385,,,,,,,,,,,,,,,,,,,,,,,,,,,,,,,,,64,2.9163,1,0,8,8,34,1,8,×,8,8 × 8,neutral,tie,1.5,1.5,64,,,,,,,,
,,,,,,,,,,,,,,,814,2022-01-19_12h13.30.647,multiplicationStroop,2021.2.3,Win32,60.09615385,,,,,,,,,,,,,,,,,,,,,,,,,,,,,,,,,40,7.2462,1,0,9,9,24,1,8,×,5,8 × 5,neutral,largerFirst,1.5,1.5,40,,,,,,,,
,,,,,,,,,,,,,,,814,2022-01-19_12h13.30.647,multiplicationStroop,2021.2.3,Win32,60.09615385,,,,,,,,,,,,,,,,,,,,,,,,,,,,,,,,,8,3.0156,1,0,10,10,3,1,2,×,4,2 × 4,neutral,smallerFirst,1.5,1.5,8,,,,,,,,
,,,,,,,,,,,,,,,814,2022-01-19_12h13.30.647,multiplicationStroop,2021.2.3,Win32,60.09615385,,,,,,,,,,,,,,,,,,,,,,,,,,,,,,,,,42,5.9467,1,0,11,11,6,1,6,×,7,6 × 7,neutral,smallerFirst,1.5,1.5,42,,,,,,,,
,,,,,,,,,,,,,,,814,2022-01-19_12h13.30.647,multiplicationStroop,2021.2.3,Win32,60.09615385,,,,,,,,,,,,,,,,,,,,,,,,,,,,,,,,,56,6.3848,0,0,12,12,12,1,7,×,9,7 × 9,neutral,smallerFirst,1.5,1.5,63,,,,,,,,
,,,,,,,,,,,,,,,814,2022-01-19_12h13.30.647,multiplicationStroop,2021.2.3,Win32,60.09615385,,,,,,,,,,,,,,,,,,,,,,,,,,,,,,,,,6,6.4315,1,0,13,13,26,1,3,×,2,3 × 2,neutral,largerFirst,1.5,1.5,6,,,,,,,,
,,,,,,,,,,,,,,,814,2022-01-19_12h13.30.647,multiplicationStroop,2021.2.3,Win32,60.09615385,,,,,,,,,,,,,,,,,,,,,,,,,,,,,,,,,14,2.8001,0,0,14,14,13,1,2,×,8,2 × 8,neutral,smallerFirst,1.5,1.5,16,,,,,,,,
,,,,,,,,,,,,,,,814,2022-01-19_12h13.30.647,multiplicationStroop,2021.2.3,Win32,60.09615385,,,,,,,,,,,,,,,,,,,,,,,,,,,,,,,,,12,5.8817,1,0,15,15,21,1,4,×,3,4 × 3,neutral,largerFirst,1.5,1.5,12,,,,,,,,
,,,,,,,,,,,,,,,814,2022-01-19_12h13.30.647,multiplicationStroop,2021.2.3,Win32,60.09615385,,,,,,,,,,,,,,,,,,,,,,,,,,,,,,,,,30,7.7972,1,0,16,16,19,1,6,×,5,6 × 5,neutral,largerFirst,1.5,1.5,30,,,,,,,,
,,,,,,,,,,,,,,,814,2022-01-19_12h13.30.647,multiplicationStroop,2021.2.3,Win32,60.09615385,,,,,,,,,,,,,,,,,,,,,,,,,,,,,,,,,21,2.066,0,0,17,17,0,1,3,×,6,3 × 6,neutral,smallerFirst,1.5,1.5,18,,,,,,,,
,,,,,,,,,,,,,,,814,2022-01-19_12h13.30.647,multiplicationStroop,2021.2.3,Win32,60.09615385,,,,,,,,,,,,,,,,,,,,,,,,,,,,,,,,,64,2.9813,0,0,18,18,32,1,6,×,6,6 × 6,neutral,tie,1.5,1.5,36,,,,,,,,
,,,,,,,,,,,,,,,814,2022-01-19_12h13.30.647,multiplicationStroop,2021.2.3,Win32,60.09615385,,,,,,,,,,,,,,,,,,,,,,,,,,,,,,,,,48,11.2613,1,0,19,19,15,1,8,×,6,8 × 6,neutral,largerFirst,1.5,1.5,48,,,,,,,,
,,,,,,,,,,,,,,,814,2022-01-19_12h13.30.647,multiplicationStroop,2021.2.3,Win32,60.09615385,,,,,,,,,,,,,,,,,,,,,,,,,,,,,,,,,4,1.7494,1,0,20,20,28,1,2,×,2,2 × 2,neutral,tie,1.5,1.5,4,,,,,,,,
,,,,,,,,,,,,,,,814,2022-01-19_12h13.30.647,multiplicationStroop,2021.2.3,Win32,60.09615385,,,,,,,,,,,,,,,,,,,,,,,,,,,,,,,,,24,2.5149,0,0,21,21,17,1,7,×,4,7 × 4,neutral,largerFirst,1.5,1.5,28,,,,,,,,
,,,,,,,,,,,,,,,814,2022-01-19_12h13.30.647,multiplicationStroop,2021.2.3,Win32,60.09615385,,,,,,,,,,,,,,,,,,,,,,,,,,,,,,,,,48,5.1821,0,0,22,22,33,1,7,×,7,7 × 7,neutral,tie,1.5,1.5,49,,,,,,,,
,,,,,,,,,,,,,,,814,2022-01-19_12h13.30.647,multiplicationStroop,2021.2.3,Win32,60.09615385,,,,,,,,,,,,,,,,,,,,,,,,,,,,,,,,,20,2.8334,1,0,23,23,20,1,5,×,4,5 × 4,neutral,largerFirst,1.5,1.5,20,,,,,,,,
,,,,,,,,,,,,,,,814,2022-01-19_12h13.30.647,multiplicationStroop,2021.2.3,Win32,60.09615385,,,,,,,,,,,,,,,,,,,,,,,,,,,,,,,,,15,2.4667,1,0,24,24,5,1,3,×,5,3 × 5,neutral,smallerFirst,1.5,1.5,15,,,,,,,,
,,,,,,,,,,,,,,,814,2022-01-19_12h13.30.647,multiplicationStroop,2021.2.3,Win32,60.09615385,,,,,,,,,,,,,,,,,,,,,,,,,,,,,,,,,24,6.7291,1,0,25,25,2,1,4,×,6,4 × 6,neutral,smallerFirst,1.5,1.5,24,,,,,,,,
,,,,,,,,,,,,,,,814,2022-01-19_12h13.30.647,multiplicationStroop,2021.2.3,Win32,60.09615385,,,,,,,,,,,,,,,,,,,,,,,,,,,,,,,,,9,1.8198,1,0,26,26,29,1,3,×,3,3 × 3,neutral,tie,1.5,1.5,9,,,,,,,,
,,,,,,,,,,,,,,,814,2022-01-19_12h13.30.647,multiplicationStroop,2021.2.3,Win32,60.09615385,,,,,,,,,,,,,,,,,,,,,,,,,,,,,,,,,24,3.9983,0,0,27,27,14,1,9,×,3,9 × 3,neutral,largerFirst,1.5,1.5,27,,,,,,,,
,,,,,,,,,,,,,,,814,2022-01-19_12h13.30.647,multiplicationStroop,2021.2.3,Win32,60.09615385,,,,,,,,,,,,,,,,,,,,,,,,,,,,,,,,,35,20.4916,1,0,28,28,1,1,5,×,7,5 × 7,neutral,smallerFirst,1.5,1.5,35,,,,,,,,
,,,,,,,,,,,,,,,814,2022-01-19_12h13.30.647,multiplicationStroop,2021.2.3,Win32,60.09615385,,,,,,,,,,,,,,,,,,,,,,,,,,,,,,,,,10,3.4485,1,0,29,29,4,1,2,×,5,2 × 5,neutral,smallerFirst,1.5,1.5,10,,,,,,,,
,,,,,,,,,,,,,,,814,2022-01-19_12h13.30.647,multiplicationStroop,2021.2.3,Win32,60.09615385,,,,,,,,,,,,,,,,,,,,,,,,,,,,,,,,,45,5.2973,1,0,30,30,10,1,5,×,9,5 × 9,neutral,smallerFirst,1.5,1.5,45,,,,,,,,
,,,,,,,,,,,,,,,814,2022-01-19_12h13.30.647,multiplicationStroop,2021.2.3,Win32,60.09615385,,,,,,,,,,,,,,,,,,,,,,,,,,,,,,,,,12,1.6838,1,0,31,31,25,1,6,×,2,6 × 2,neutral,largerFirst,1.5,1.5,12,,,,,,,,
,,,,,,,,,,,,,,,814,2022-01-19_12h13.30.647,multiplicationStroop,2021.2.3,Win32,60.09615385,,,,,,,,,,,,,,,,,,,,,,,,,,,,,,,,,56,10.1448,1,0,32,32,9,1,7,×,8,7 × 8,neutral,smallerFirst,1.5,1.5,56,,,,,,,,
,,,,,,,,,,,,,,,814,2022-01-19_12h13.30.647,multiplicationStroop,2021.2.3,Win32,60.09615385,,,,,,,,,,,,,,,,,,,,,,,,,,,,,,,,,24,11.0459,1,0,33,33,22,1,8,×,3,8 × 3,neutral,largerFirst,1.5,1.5,24,,,,,,,,
,,,,,,,,,,,,,,,814,2022-01-19_12h13.30.647,multiplicationStroop,2021.2.3,Win32,60.09615385,,,,,,,,,,,,,,,,,,,,,,,,,,,,,,,,,48,10.312,0,0,34,34,7,1,6,×,9,6 × 9,neutral,smallerFirst,1.5,1.5,54,,,,,,,,
,,,,,,,,,,,,,,,814,2022-01-19_12h13.30.647,multiplicationStroop,2021.2.3,Win32,60.09615385,,,,,,,,,,,,,,,,,,,,,,,,,,,,,,,,,19,2.1494,0,0,35,35,18,1,9,×,2,9 × 2,neutral,largerFirst,1.5,1.5,18,,,,,,,,
,,,,,,,,,,,,,,,814,2022-01-19_12h13.30.647,multiplicationStroop,2021.2.3,Win32,60.09615385,,,,,,,,,,,,,,,,,,,,,,,,,,,,,,,,,,,,,,,,,,,,,,,,,,0,1,1,1,1,stimulusFile/mult_blk2.xlsx,,
,,,,,,,,,,,,,,,814,2022-01-19_12h13.30.647,multiplicationStroop,2021.2.3,Win32,60.09615385,,,,,,,,,,,,,,,,,,,,,,,,,,,,,,,space,1.2724,4,2.5573,1,0,0,0,28,1,2,×,2,2 × 2,incongruent,tie,1,2,4,,,,,,,,
,,,,,,,,,,,,,,,814,2022-01-19_12h13.30.647,multiplicationStroop,2021.2.3,Win32,60.09615385,,,,,,,,,,,,,,,,,,,,,,,,,,,,,,,,,24,3.6822,1,0,1,1,20,1,6,×,4,6 × 4,incongruent,largerFirst,1,2,24,,,,,,,,
,,,,,,,,,,,,,,,814,2022-01-19_12h13.30.647,multiplicationStroop,2021.2.3,Win32,60.09615385,,,,,,,,,,,,,,,,,,,,,,,,,,,,,,,,,24,5.4466,1,0,2,2,9,1,3,×,8,3 × 8,incongruent,smallerFirst,2,1,24,,,,,,,,
,,,,,,,,,,,,,,,814,2022-01-19_12h13.30.647,multiplicationStroop,2021.2.3,Win32,60.09615385,,,,,,,,,,,,,,,,,,,,,,,,,,,,,,,,,48,6.116,1,0,3,3,1,1,6,×,8,6 × 8,incongruent,smallerFirst,2,1,48,,,,,,,,
,,,,,,,,,,,,,,,814,2022-01-19_12h13.30.647,multiplicationStroop,2021.2.3,Win32,60.09615385,,,,,,,,,,,,,,,,,,,,,,,,,,,,,,,,,81,3.205,1,0,4,4,35,1,9,×,9,9 × 9,incongruent,tie,1,2,81,,,,,,,,
,,,,,,,,,,,,,,,814,2022-01-19_12h13.30.647,multiplicationStroop,2021.2.3,Win32,60.09615385,,,,,,,,,,,,,,,,,,,,,,,,,,,,,,,,,20,3.5348,1,0,5,5,27,1,5,×,4,5 × 4,incongruent,largerFirst,1,2,20,,,,,,,,
,,,,,,,,,,,,,,,814,2022-01-19_12h13.30.647,multiplicationStroop,2021.2.3,Win32,60.09615385,,,,,,,,,,,,,,,,,,,,,,,,,,,,,,,,,72,7.1986,0,0,6,6,3,1,7,×,9,7 × 9,incongruent,smallerFirst,2,1,63,,,,,,,,
,,,,,,,,,,,,,,,814,2022-01-19_12h13.30.647,multiplicationStroop,2021.2.3,Win32,60.09615385,,,,,,,,,,,,,,,,,,,,,,,,,,,,,,,,,12,4.4822,1,0,7,7,5,1,3,×,4,3 × 4,incongruent,smallerFirst,2,1,12,,,,,,,,
,,,,,,,,,,,,,,,814,2022-01-19_12h13.30.647,multiplicationStroop,2021.2.3,Win32,60.09615385,,,,,,,,,,,,,,,,,,,,,,,,,,,,,,,,,65,6.7645,0,0,8,8,0,1,8,×,9,8 × 9,incongruent,smallerFirst,2,1,72,,,,,,,,
,,,,,,,,,,,,,,,814,2022-01-19_12h13.30.647,multiplicationStroop,2021.2.3,Win32,60.09615385,,,,,,,,,,,,,,,,,,,,,,,,,,,,,,,,,18,5.0137,1,0,9,9,8,1,3,×,6,3 × 6,incongruent,smallerFirst,2,1,18,,,,,,,,
,,,,,,,,,,,,,,,814,2022-01-19_12h13.30.647,multiplicationStroop,2021.2.3,Win32,60.09615385,,,,,,,,,,,,,,,,,,,,,,,,,,,,,,,,,15,2.9336,1,0,10,10,10,1,3,×,5,3 × 5,incongruent,smallerFirst,2,1,15,,,,,,,,
,,,,,,,,,,,,,,,814,2022-01-19_12h13.30.647,multiplicationStroop,2021.2.3,Win32,60.09615385,,,,,,,,,,,,,,,,,,,,,,,,,,,,,,,,,24,26.0557,0,0,11,11,7,1,4,×,8,4 × 8,incongruent,smallerFirst,2,1,32,,,,,,,,
,,,,,,,,,,,,,,,814,2022-01-19_12h13.30.647,multiplicationStroop,2021.2.3,Win32,60.09615385,,,,,,,,,,,,,,,,,,,,,,,,,,,,,,,,,36,3.1011,1,0,12,12,32,1,6,×,6,6 × 6,incongruent,tie,1,2,36,,,,,,,,
,,,,,,,,,,,,,,,814,2022-01-19_12h13.30.647,multiplicationStroop,2021.2.3,Win32,60.09615385,,,,,,,,,,,,,,,,,,,,,,,,,,,,,,,,,56,5.0302,1,0,13,13,14,1,8,×,7,8 × 7,incongruent,largerFirst,1,2,56,,,,,,,,
,,,,,,,,,,,,,,,814,2022-01-19_12h13.30.647,multiplicationStroop,2021.2.3,Win32,60.09615385,,,,,,,,,,,,,,,,,,,,,,,,,,,,,,,,,12,2.1663,1,0,14,14,19,1,6,×,2,6 × 2,incongruent,largerFirst,1,2,12,,,,,,,,
,,,,,,,,,,,,,,,814,2022-01-19_12h13.30.647,multiplicationStroop,2021.2.3,Win32,60.09615385,,,,,,,,,,,,,,,,,,,,,,,,,,,,,,,,,9,1.9481,1,0,15,15,29,1,3,×,3,3 × 3,incongruent,tie,1,2,9,,,,,,,,
,,,,,,,,,,,,,,,814,2022-01-19_12h13.30.647,multiplicationStroop,2021.2.3,Win32,60.09615385,,,,,,,,,,,,,,,,,,,,,,,,,,,,,,,,,64,2.531,1,0,16,16,34,1,8,×,8,8 × 8,incongruent,tie,1,2,64,,,,,,,,
,,,,,,,,,,,,,,,814,2022-01-19_12h13.30.647,multiplicationStroop,2021.2.3,Win32,60.09615385,,,,,,,,,,,,,,,,,,,,,,,,,,,,,,,,,10,2.1647,1,0,17,17,21,1,5,×,2,5 × 2,incongruent,largerFirst,1,2,10,,,,,,,,
,,,,,,,,,,,,,,,814,2022-01-19_12h13.30.647,multiplicationStroop,2021.2.3,Win32,60.09615385,,,,,,,,,,,,,,,,,,,,,,,,,,,,,,,,,27,21.1397,1,0,18,18,18,1,9,×,3,9 × 3,incongruent,largerFirst,1,2,27,,,,,,,,
,,,,,,,,,,,,,,,814,2022-01-19_12h13.30.647,multiplicationStroop,2021.2.3,Win32,60.09615385,,,,,,,,,,,,,,,,,,,,,,,,,,,,,,,,,45,3.2806,1,0,19,19,22,1,9,×,5,9 × 5,incongruent,largerFirst,1,2,45,,,,,,,,
,,,,,,,,,,,,,,,814,2022-01-19_12h13.30.647,multiplicationStroop,2021.2.3,Win32,60.09615385,,,,,,,,,,,,,,,,,,,,,,,,,,,,,,,,,40,2.9978,1,0,20,20,13,1,5,×,8,5 × 8,incongruent,smallerFirst,2,1,40,,,,,,,,
,,,,,,,,,,,,,,,814,2022-01-19_12h13.30.647,multiplicationStroop,2021.2.3,Win32,60.09615385,,,,,,,,,,,,,,,,,,,,,,,,,,,,,,,,,16,2.4318,1,0,21,21,30,1,4,×,4,4 × 4,incongruent,tie,1,2,16,,,,,,,,
,,,,,,,,,,,,,,,814,2022-01-19_12h13.30.647,multiplicationStroop,2021.2.3,Win32,60.09615385,,,,,,,,,,,,,,,,,,,,,,,,,,,,,,,,,35,6.1297,1,0,22,22,12,1,5,×,7,5 × 7,incongruent,smallerFirst,2,1,35,,,,,,,,
,,,,,,,,,,,,,,,814,2022-01-19_12h13.30.647,multiplicationStroop,2021.2.3,Win32,60.09615385,,,,,,,,,,,,,,,,,,,,,,,,,,,,,,,,,42,7.631,1,0,23,23,17,1,7,×,6,7 × 6,incongruent,largerFirst,1,2,42,,,,,,,,
,,,,,,,,,,,,,,,814,2022-01-19_12h13.30.647,multiplicationStroop,2021.2.3,Win32,60.09615385,,,,,,,,,,,,,,,,,,,,,,,,,,,,,,,,,6,1.865,1,0,24,24,11,1,2,×,3,2 × 3,incongruent,smallerFirst,2,1,6,,,,,,,,
,,,,,,,,,,,,,,,814,2022-01-19_12h13.30.647,multiplicationStroop,2021.2.3,Win32,60.09615385,,,,,,,,,,,,,,,,,,,,,,,,,,,,,,,,,46,3.5968,0,0,25,25,33,1,7,×,7,7 × 7,incongruent,tie,1,2,49,,,,,,,,
,,,,,,,,,,,,,,,814,2022-01-19_12h13.30.647,multiplicationStroop,2021.2.3,Win32,60.09615385,,,,,,,,,,,,,,,,,,,,,,,,,,,,,,,,,30,4.5474,1,0,26,26,25,1,6,×,5,6 × 5,incongruent,largerFirst,1,2,30,,,,,,,,
,,,,,,,,,,,,,,,814,2022-01-19_12h13.30.647,multiplicationStroop,2021.2.3,Win32,60.09615385,,,,,,,,,,,,,,,,,,,,,,,,,,,,,,,,,21,5.7983,1,0,27,27,26,1,7,×,3,7 × 3,incongruent,largerFirst,1,2,21,,,,,,,,
,,,,,,,,,,,,,,,814,2022-01-19_12h13.30.647,multiplicationStroop,2021.2.3,Win32,60.09615385,,,,,,,,,,,,,,,,,,,,,,,,,,,,,,,,,28,2.2494,1,0,28,28,16,1,7,×,4,7 × 4,incongruent,largerFirst,1,2,28,,,,,,,,
,,,,,,,,,,,,,,,814,2022-01-19_12h13.30.647,multiplicationStroop,2021.2.3,Win32,60.09615385,,,,,,,,,,,,,,,,,,,,,,,,,,,,,,,,,48,6.963,0,0,29,29,6,1,6,×,9,6 × 9,incongruent,smallerFirst,2,1,54,,,,,,,,
,,,,,,,,,,,,,,,814,2022-01-19_12h13.30.647,multiplicationStroop,2021.2.3,Win32,60.09615385,,,,,,,,,,,,,,,,,,,,,,,,,,,,,,,,,20,2.1,0,0,30,30,31,1,5,×,5,5 × 5,incongruent,tie,1,2,25,,,,,,,,
,,,,,,,,,,,,,,,814,2022-01-19_12h13.30.647,multiplicationStroop,2021.2.3,Win32,60.09615385,,,,,,,,,,,,,,,,,,,,,,,,,,,,,,,,,14,3.181,1,0,31,31,4,1,2,×,7,2 × 7,incongruent,smallerFirst,2,1,14,,,,,,,,
,,,,,,,,,,,,,,,814,2022-01-19_12h13.30.647,multiplicationStroop,2021.2.3,Win32,60.09615385,,,,,,,,,,,,,,,,,,,,,,,,,,,,,,,,,8,2.333,1,0,32,32,24,1,4,×,2,4 × 2,incongruent,largerFirst,1,2,8,,,,,,,,
,,,,,,,,,,,,,,,814,2022-01-19_12h13.30.647,multiplicationStroop,2021.2.3,Win32,60.09615385,,,,,,,,,,,,,,,,,,,,,,,,,,,,,,,,,27,6.2296,0,0,33,33,15,1,9,×,4,9 × 4,incongruent,largerFirst,1,2,36,,,,,,,,
,,,,,,,,,,,,,,,814,2022-01-19_12h13.30.647,multiplicationStroop,2021.2.3,Win32,60.09615385,,,,,,,,,,,,,,,,,,,,,,,,,,,,,,,,,16,2.9333,1,0,34,34,23,1,8,×,2,8 × 2,incongruent,largerFirst,1,2,16,,,,,,,,
,,,,,,,,,,,,,,,814,2022-01-19_12h13.30.647,multiplicationStroop,2021.2.3,Win32,60.09615385,,,,,,,,,,,,,,,,,,,,,,,,,,,,,,,,,18,3.7893,1,0,35,35,2,1,2,×,9,2 × 9,incongruent,smallerFirst,2,1,18,,,,,,,,
,,,,,,,,,,,,,,,814,2022-01-19_12h13.30.647,multiplicationStroop,2021.2.3,Win32,60.09615385,,,,,,,,,,,,,,,,,,,,,,,,,,,,,,,,,,,,,,,,,,,,,,,,,,0,2,2,5,1,stimulusFile/mult_blk6_INcongruent.xlsx,,
,,,,,,,,,,,,,,,814,2022-01-19_12h13.30.647,multiplicationStroop,2021.2.3,Win32,60.09615385,,,,,,,,,,,,,,,,,,,,,,,,,,,,,,,space,8.904,16,15.4638,1,0,0,0,27,1,8,×,2,8 × 2,neutral,largerFirst,1.5,1.5,16,,,,,,,,
,,,,,,,,,,,,,,,814,2022-01-19_12h13.30.647,multiplicationStroop,2021.2.3,Win32,60.09615385,,,,,,,,,,,,,,,,,,,,,,,,,,,,,,,,,35,5.9488,0,0,1,1,20,1,7,×,6,7 × 6,neutral,largerFirst,1.5,1.5,42,,,,,,,,
,,,,,,,,,,,,,,,814,2022-01-19_12h13.30.647,multiplicationStroop,2021.2.3,Win32,60.09615385,,,,,,,,,,,,,,,,,,,,,,,,,,,,,,,,,48,10.9128,0,0,2,2,23,1,8,×,7,8 × 7,neutral,largerFirst,1.5,1.5,56,,,,,,,,
,,,,,,,,,,,,,,,814,2022-01-19_12h13.30.647,multiplicationStroop,2021.2.3,Win32,60.09615385,,,,,,,,,,,,,,,,,,,,,,,,,,,,,,,,,14,3.515,1,0,3,3,2,1,2,×,7,2 × 7,neutral,smallerFirst,1.5,1.5,14,,,,,,,,
,,,,,,,,,,,,,,,814,2022-01-19_12h13.30.647,multiplicationStroop,2021.2.3,Win32,60.09615385,,,,,,,,,,,,,,,,,,,,,,,,,,,,,,,,,40,8.679,1,0,4,4,10,1,5,×,8,5 × 8,neutral,smallerFirst,1.5,1.5,40,,,,,,,,
,,,,,,,,,,,,,,,814,2022-01-19_12h13.30.647,multiplicationStroop,2021.2.3,Win32,60.09615385,,,,,,,,,,,,,,,,,,,,,,,,,,,,,,,,,16,2.8155,1,0,5,5,30,1,4,×,4,4 × 4,neutral,tie,1.5,1.5,16,,,,,,,,
,,,,,,,,,,,,,,,814,2022-01-19_12h13.30.647,multiplicationStroop,2021.2.3,Win32,60.09615385,,,,,,,,,,,,,,,,,,,,,,,,,,,,,,,,,27,7.6794,0,0,6,6,26,1,9,×,7,9 × 7,neutral,largerFirst,1.5,1.5,63,,,,,,,,
,,,,,,,,,,,,,,,814,2022-01-19_12h13.30.647,multiplicationStroop,2021.2.3,Win32,60.09615385,,,,,,,,,,,,,,,,,,,,,,,,,,,,,,,,,81,3.837,1,0,7,7,35,1,9,×,9,9 × 9,neutral,tie,1.5,1.5,81,,,,,,,,
,,,,,,,,,,,,,,,814,2022-01-19_12h13.30.647,multiplicationStroop,2021.2.3,Win32,60.09615385,,,,,,,,,,,,,,,,,,,,,,,,,,,,,,,,,18,2.5032,1,0,8,8,4,1,2,×,9,2 × 9,neutral,smallerFirst,1.5,1.5,18,,,,,,,,
,,,,,,,,,,,,,,,814,2022-01-19_12h13.30.647,multiplicationStroop,2021.2.3,Win32,60.09615385,,,,,,,,,,,,,,,,,,,,,,,,,,,,,,,,,16,2.6484,0,0,9,9,7,1,3,×,4,3 × 4,neutral,smallerFirst,1.5,1.5,12,,,,,,,,
,,,,,,,,,,,,,,,814,2022-01-19_12h13.30.647,multiplicationStroop,2021.2.3,Win32,60.09615385,,,,,,,,,,,,,,,,,,,,,,,,,,,,,,,,,9,1.7819,1,0,10,10,29,1,3,×,3,3 × 3,neutral,tie,1.5,1.5,9,,,,,,,,
,,,,,,,,,,,,,,,814,2022-01-19_12h13.30.647,multiplicationStroop,2021.2.3,Win32,60.09615385,,,,,,,,,,,,,,,,,,,,,,,,,,,,,,,,,20,2.0817,0,0,11,11,31,1,5,×,5,5 × 5,neutral,tie,1.5,1.5,25,,,,,,,,
,,,,,,,,,,,,,,,814,2022-01-19_12h13.30.647,multiplicationStroop,2021.2.3,Win32,60.09615385,,,,,,,,,,,,,,,,,,,,,,,,,,,,,,,,,28,11.611,1,0,12,12,3,1,4,×,7,4 × 7,neutral,smallerFirst,1.5,1.5,28,,,,,,,,
,,,,,,,,,,,,,,,814,2022-01-19_12h13.30.647,multiplicationStroop,2021.2.3,Win32,60.09615385,,,,,,,,,,,,,,,,,,,,,,,,,,,,,,,,,6,2.6682,1,0,13,13,12,1,2,×,3,2 × 3,neutral,smallerFirst,1.5,1.5,6,,,,,,,,
,,,,,,,,,,,,,,,814,2022-01-19_12h13.30.647,multiplicationStroop,2021.2.3,Win32,60.09615385,,,,,,,,,,,,,,,,,,,,,,,,,,,,,,,,,36,2.4317,1,0,14,14,32,1,6,×,6,6 × 6,neutral,tie,1.5,1.5,36,,,,,,,,
,,,,,,,,,,,,,,,814,2022-01-19_12h13.30.647,multiplicationStroop,2021.2.3,Win32,60.09615385,,,,,,,,,,,,,,,,,,,,,,,,,,,,,,,,,45,11.161,1,0,15,15,24,1,9,×,5,9 × 5,neutral,largerFirst,1.5,1.5,45,,,,,,,,
,,,,,,,,,,,,,,,814,2022-01-19_12h13.30.647,multiplicationStroop,2021.2.3,Win32,60.09615385,,,,,,,,,,,,,,,,,,,,,,,,,,,,,,,,,8,4.6477,1,0,16,16,17,1,4,×,2,4 × 2,neutral,largerFirst,1.5,1.5,8,,,,,,,,
,,,,,,,,,,,,,,,814,2022-01-19_12h13.30.647,multiplicationStroop,2021.2.3,Win32,60.09615385,,,,,,,,,,,,,,,,,,,,,,,,,,,,,,,,,27,8.6972,1,0,17,17,0,1,3,×,9,3 × 9,neutral,smallerFirst,1.5,1.5,27,,,,,,,,
,,,,,,,,,,,,,,,814,2022-01-19_12h13.30.647,multiplicationStroop,2021.2.3,Win32,60.09615385,,,,,,,,,,,,,,,,,,,,,,,,,,,,,,,,,21,4.0476,1,0,18,18,22,1,7,×,3,7 × 3,neutral,largerFirst,1.5,1.5,21,,,,,,,,
,,,,,,,,,,,,,,,814,2022-01-19_12h13.30.647,multiplicationStroop,2021.2.3,Win32,60.09615385,,,,,,,,,,,,,,,,,,,,,,,,,,,,,,,,,24,17.4439,1,0,19,19,8,1,3,×,8,3 × 8,neutral,smallerFirst,1.5,1.5,24,,,,,,,,
,,,,,,,,,,,,,,,814,2022-01-19_12h13.30.647,multiplicationStroop,2021.2.3,Win32,60.09615385,,,,,,,,,,,,,,,,,,,,,,,,,,,,,,,,,12,9.1117,1,0,20,20,11,1,2,×,6,2 × 6,neutral,smallerFirst,1.5,1.5,12,,,,,,,,
,,,,,,,,,,,,,,,814,2022-01-19_12h13.30.647,multiplicationStroop,2021.2.3,Win32,60.09615385,,,,,,,,,,,,,,,,,,,,,,,,,,,,,,,,,24,2.6968,0,0,21,21,9,1,4,×,8,4 × 8,neutral,smallerFirst,1.5,1.5,32,,,,,,,,
,,,,,,,,,,,,,,,814,2022-01-19_12h13.30.647,multiplicationStroop,2021.2.3,Win32,60.09615385,,,,,,,,,,,,,,,,,,,,,,,,,,,,,,,,,18,2.8641,1,0,22,22,14,1,6,×,3,6 × 3,neutral,largerFirst,1.5,1.5,18,,,,,,,,
,,,,,,,,,,,,,,,814,2022-01-19_12h13.30.647,multiplicationStroop,2021.2.3,Win32,60.09615385,,,,,,,,,,,,,,,,,,,,,,,,,,,,,,,,,72,11.4293,1,0,23,23,25,1,9,×,8,9 × 8,neutral,largerFirst,1.5,1.5,72,,,,,,,,
,,,,,,,,,,,,,,,814,2022-01-19_12h13.30.647,multiplicationStroop,2021.2.3,Win32,60.09615385,,,,,,,,,,,,,,,,,,,,,,,,,,,,,,,,,32,2.8966,0,0,24,24,13,1,4,×,9,4 × 9,neutral,smallerFirst,1.5,1.5,36,,,,,,,,
,,,,,,,,,,,,,,,814,2022-01-19_12h13.30.647,multiplicationStroop,2021.2.3,Win32,60.09615385,,,,,,,,,,,,,,,,,,,,,,,,,,,,,,,,,24,5.6301,1,0,25,25,16,1,6,×,4,6 × 4,neutral,largerFirst,1.5,1.5,24,,,,,,,,
,,,,,,,,,,,,,,,814,2022-01-19_12h13.30.647,multiplicationStroop,2021.2.3,Win32,60.09615385,,,,,,,,,,,,,,,,,,,,,,,,,,,,,,,,,49,2.7755,1,0,26,26,33,1,7,×,7,7 × 7,neutral,tie,1.5,1.5,49,,,,,,,,
,,,,,,,,,,,,,,,814,2022-01-19_12h13.30.647,multiplicationStroop,2021.2.3,Win32,60.09615385,,,,,,,,,,,,,,,,,,,,,,,,,,,,,,,,,15,1.9987,1,0,27,27,19,1,5,×,3,5 × 3,neutral,largerFirst,1.5,1.5,15,,,,,,,,
,,,,,,,,,,,,,,,814,2022-01-19_12h13.30.647,multiplicationStroop,2021.2.3,Win32,60.09615385,,,,,,,,,,,,,,,,,,,,,,,,,,,,,,,,,20,2.8493,1,0,28,28,6,1,4,×,5,4 × 5,neutral,smallerFirst,1.5,1.5,20,,,,,,,,
,,,,,,,,,,,,,,,814,2022-01-19_12h13.30.647,multiplicationStroop,2021.2.3,Win32,60.09615385,,,,,,,,,,,,,,,,,,,,,,,,,,,,,,,,,4,1.8272,1,0,29,29,28,1,2,×,2,2 × 2,neutral,tie,1.5,1.5,4,,,,,,,,
,,,,,,,,,,,,,,,814,2022-01-19_12h13.30.647,multiplicationStroop,2021.2.3,Win32,60.09615385,,,,,,,,,,,,,,,,,,,,,,,,,,,,,,,,,48,5.3471,1,0,30,30,1,1,6,×,8,6 × 8,neutral,smallerFirst,1.5,1.5,48,,,,,,,,
,,,,,,,,,,,,,,,814,2022-01-19_12h13.30.647,multiplicationStroop,2021.2.3,Win32,60.09615385,,,,,,,,,,,,,,,,,,,,,,,,,,,,,,,,,35,3.7151,1,0,31,31,15,1,7,×,5,7 × 5,neutral,largerFirst,1.5,1.5,35,,,,,,,,
,,,,,,,,,,,,,,,814,2022-01-19_12h13.30.647,multiplicationStroop,2021.2.3,Win32,60.09615385,,,,,,,,,,,,,,,,,,,,,,,,,,,,,,,,,30,2.9036,1,0,32,32,5,1,5,×,6,5 × 6,neutral,smallerFirst,1.5,1.5,30,,,,,,,,
,,,,,,,,,,,,,,,814,2022-01-19_12h13.30.647,multiplicationStroop,2021.2.3,Win32,60.09615385,,,,,,,,,,,,,,,,,,,,,,,,,,,,,,,,,48,4.0298,0,0,33,33,21,1,9,×,6,9 × 6,neutral,largerFirst,1.5,1.5,54,,,,,,,,
,,,,,,,,,,,,,,,814,2022-01-19_12h13.30.647,multiplicationStroop,2021.2.3,Win32,60.09615385,,,,,,,,,,,,,,,,,,,,,,,,,,,,,,,,,64,3.2377,1,0,34,34,34,1,8,×,8,8 × 8,neutral,tie,1.5,1.5,64,,,,,,,,
,,,,,,,,,,,,,,,814,2022-01-19_12h13.30.647,multiplicationStroop,2021.2.3,Win32,60.09615385,,,,,,,,,,,,,,,,,,,,,,,,,,,,,,,,,20,6.0656,0,0,35,35,18,1,5,×,2,5 × 2,neutral,largerFirst,1.5,1.5,10,,,,,,,,
,,,,,,,,,,,,,,,814,2022-01-19_12h13.30.647,multiplicationStroop,2021.2.3,Win32,60.09615385,,,,,,,,,,,,,,,,,,,,,,,,,,,,,,,,,,,,,,,,,,,,,,,,,,0,3,3,0,1,stimulusFile/mult_blk1.xlsx,,
,,,,,,,,,,,,,,,814,2022-01-19_12h13.30.647,multiplicationStroop,2021.2.3,Win32,60.09615385,,,,,,,,,,,,,,,,,,,,,,,,,,,,,,,space,282.4581,42,2.5594,1,0,0,0,17,1,7,×,6,7 × 6,congruent,largerFirst,2,1,42,,,,,,,,
,,,,,,,,,,,,,,,814,2022-01-19_12h13.30.647,multiplicationStroop,2021.2.3,Win32,60.09615385,,,,,,,,,,,,,,,,,,,,,,,,,,,,,,,,,24,5.7469,1,0,1,1,24,1,8,×,3,8 × 3,congruent,largerFirst,2,1,24,,,,,,,,
,,,,,,,,,,,,,,,814,2022-01-19_12h13.30.647,multiplicationStroop,2021.2.3,Win32,60.09615385,,,,,,,,,,,,,,,,,,,,,,,,,,,,,,,,,32,9.0638,1,0,2,2,6,1,4,×,8,4 × 8,congruent,smallerFirst,1,2,32,,,,,,,,
,,,,,,,,,,,,,,,814,2022-01-19_12h13.30.647,multiplicationStroop,2021.2.3,Win32,60.09615385,,,,,,,,,,,,,,,,,,,,,,,,,,,,,,,,,16,3.1997,0,0,3,3,0,1,2,×,7,2 × 7,congruent,smallerFirst,1,2,14,,,,,,,,
,,,,,,,,,,,,,,,814,2022-01-19_12h13.30.647,multiplicationStroop,2021.2.3,Win32,60.09615385,,,,,,,,,,,,,,,,,,,,,,,,,,,,,,,,,30,3.3329,0,0,4,4,32,1,6,×,6,6 × 6,neutral,tie,1,2,36,,,,,,,,
,,,,,,,,,,,,,,,814,2022-01-19_12h13.30.647,multiplicationStroop,2021.2.3,Win32,60.09615385,,,,,,,,,,,,,,,,,,,,,,,,,,,,,,,,,10,2.4317,1,0,5,5,10,1,2,×,5,2 × 5,congruent,smallerFirst,1,2,10,,,,,,,,
,,,,,,,,,,,,,,,814,2022-01-19_12h13.30.647,multiplicationStroop,2021.2.3,Win32,60.09615385,,,,,,,,,,,,,,,,,,,,,,,,,,,,,,,,,49,2.6506,1,0,6,6,33,1,7,×,7,7 × 7,neutral,tie,1,2,49,,,,,,,,
,,,,,,,,,,,,,,,814,2022-01-19_12h13.30.647,multiplicationStroop,2021.2.3,Win32,60.09615385,,,,,,,,,,,,,,,,,,,,,,,,,,,,,,,,,15,2.8144,1,0,7,7,18,1,5,×,3,5 × 3,congruent,largerFirst,2,1,15,,,,,,,,
,,,,,,,,,,,,,,,814,2022-01-19_12h13.30.647,multiplicationStroop,2021.2.3,Win32,60.09615385,,,,,,,,,,,,,,,,,,,,,,,,,,,,,,,,,49,4.5311,0,0,8,8,9,1,5,×,9,5 × 9,congruent,smallerFirst,1,2,45,,,,,,,,
,,,,,,,,,,,,,,,814,2022-01-19_12h13.30.647,multiplicationStroop,2021.2.3,Win32,60.09615385,,,,,,,,,,,,,,,,,,,,,,,,,,,,,,,,,9,2.6338,1,0,9,9,29,1,3,×,3,3 × 3,neutral,tie,1,2,9,,,,,,,,
,,,,,,,,,,,,,,,814,2022-01-19_12h13.30.647,multiplicationStroop,2021.2.3,Win32,60.09615385,,,,,,,,,,,,,,,,,,,,,,,,,,,,,,,,,32,5.4298,0,0,10,10,14,1,9,×,4,9 × 4,congruent,largerFirst,2,1,36,,,,,,,,
,,,,,,,,,,,,,,,814,2022-01-19_12h13.30.647,multiplicationStroop,2021.2.3,Win32,60.09615385,,,,,,,,,,,,,,,,,,,,,,,,,,,,,,,,,20,8.715,1,0,11,11,21,1,5,×,4,5 × 4,congruent,largerFirst,2,1,20,,,,,,,,
,,,,,,,,,,,,,,,814,2022-01-19_12h13.30.647,multiplicationStroop,2021.2.3,Win32,60.09615385,,,,,,,,,,,,,,,,,,,,,,,,,,,,,,,,,16,5.0315,1,0,12,12,30,1,4,×,4,4 × 4,neutral,tie,1,2,16,,,,,,,,
,,,,,,,,,,,,,,,814,2022-01-19_12h13.30.647,multiplicationStroop,2021.2.3,Win32,60.09615385,,,,,,,,,,,,,,,,,,,,,,,,,,,,,,,,,18,4.3158,1,0,13,13,25,1,6,×,3,6 × 3,congruent,largerFirst,2,1,18,,,,,,,,
,,,,,,,,,,,,,,,814,2022-01-19_12h13.30.647,multiplicationStroop,2021.2.3,Win32,60.09615385,,,,,,,,,,,,,,,,,,,,,,,,,,,,,,,,,24,12.8462,1,0,14,14,11,1,4,×,6,4 × 6,congruent,smallerFirst,1,2,24,,,,,,,,
,,,,,,,,,,,,,,,814,2022-01-19_12h13.30.647,multiplicationStroop,2021.2.3,Win32,60.09615385,,,,,,,,,,,,,,,,,,,,,,,,,,,,,,,,,30,2.5488,1,0,15,15,1,1,5,×,6,5 × 6,congruent,smallerFirst,1,2,30,,,,,,,,
,,,,,,,,,,,,,,,814,2022-01-19_12h13.30.647,multiplicationStroop,2021.2.3,Win32,60.09615385,,,,,,,,,,,,,,,,,,,,,,,,,,,,,,,,,56,3.2481,0,0,16,16,34,1,8,×,8,8 × 8,neutral,tie,1,2,64,,,,,,,,
,,,,,,,,,,,,,,,814,2022-01-19_12h13.30.647,multiplicationStroop,2021.2.3,Win32,60.09615385,,,,,,,,,,,,,,,,,,,,,,,,,,,,,,,,,65,8.0129,0,0,17,17,7,1,7,×,9,7 × 9,congruent,smallerFirst,1,2,63,,,,,,,,
,,,,,,,,,,,,,,,814,2022-01-19_12h13.30.647,multiplicationStroop,2021.2.3,Win32,60.09615385,,,,,,,,,,,,,,,,,,,,,,,,,,,,,,,,,6,3.7644,1,0,18,18,27,1,3,×,2,3 × 2,congruent,largerFirst,2,1,6,,,,,,,,
,,,,,,,,,,,,,,,814,2022-01-19_12h13.30.647,multiplicationStroop,2021.2.3,Win32,60.09615385,,,,,,,,,,,,,,,,,,,,,,,,,,,,,,,,,27,6.5317,1,0,19,19,12,1,3,×,9,3 × 9,congruent,smallerFirst,1,2,27,,,,,,,,
,,,,,,,,,,,,,,,814,2022-01-19_12h13.30.647,multiplicationStroop,2021.2.3,Win32,60.09615385,,,,,,,,,,,,,,,,,,,,,,,,,,,,,,,,,8,3.7328,1,0,20,20,23,1,4,×,2,4 × 2,congruent,largerFirst,2,1,8,,,,,,,,
,,,,,,,,,,,,,,,814,2022-01-19_12h13.30.647,multiplicationStroop,2021.2.3,Win32,60.09615385,,,,,,,,,,,,,,,,,,,,,,,,,,,,,,,,,12,1.8486,1,0,21,21,5,1,2,×,6,2 × 6,congruent,smallerFirst,1,2,12,,,,,,,,
,,,,,,,,,,,,,,,814,2022-01-19_12h13.30.647,multiplicationStroop,2021.2.3,Win32,60.09615385,,,,,,,,,,,,,,,,,,,,,,,,,,,,,,,,,16,3.5643,1,0,22,22,19,1,8,×,2,8 × 2,congruent,largerFirst,2,1,16,,,,,,,,
,,,,,,,,,,,,,,,814,2022-01-19_12h13.30.647,multiplicationStroop,2021.2.3,Win32,60.09615385,,,,,,,,,,,,,,,,,,,,,,,,,,,,,,,,,40,3.0667,1,0,23,23,20,1,8,×,5,8 × 5,congruent,largerFirst,2,1,40,,,,,,,,
,,,,,,,,,,,,,,,814,2022-01-19_12h13.30.647,multiplicationStroop,2021.2.3,Win32,60.09615385,,,,,,,,,,,,,,,,,,,,,,,,,,,,,,,,,18,2.0003,1,0,24,24,8,1,2,×,9,2 × 9,congruent,smallerFirst,1,2,18,,,,,,,,
,,,,,,,,,,,,,,,814,2022-01-19_12h13.30.647,multiplicationStroop,2021.2.3,Win32,60.09615385,,,,,,,,,,,,,,,,,,,,,,,,,,,,,,,,,56,5.0806,1,0,25,25,22,1,8,×,7,8 × 7,congruent,largerFirst,2,1,56,,,,,,,,
,,,,,,,,,,,,,,,814,2022-01-19_12h13.30.647,multiplicationStroop,2021.2.3,Win32,60.09615385,,,,,,,,,,,,,,,,,,,,,,,,,,,,,,,,,12,3.5001,1,0,26,26,16,1,4,×,3,4 × 3,congruent,largerFirst,2,1,12,,,,,,,,
,,,,,,,,,,,,,,,814,2022-01-19_12h13.30.647,multiplicationStroop,2021.2.3,Win32,60.09615385,,,,,,,,,,,,,,,,,,,,,,,,,,,,,,,,,28,12.7121,1,0,27,27,13,1,4,×,7,4 × 7,congruent,smallerFirst,1,2,28,,,,,,,,
,,,,,,,,,,,,,,,814,2022-01-19_12h13.30.647,multiplicationStroop,2021.2.3,Win32,60.09615385,,,,,,,,,,,,,,,,,,,,,,,,,,,,,,,,,3,4.2659,0,0,28,28,28,1,2,×,2,2 × 2,neutral,tie,1,2,4,,,,,,,,
,,,,,,,,,,,,,,,814,2022-01-19_12h13.30.647,multiplicationStroop,2021.2.3,Win32,60.09615385,,,,,,,,,,,,,,,,,,,,,,,,,,,,,,,,,72,9.8966,1,0,29,29,3,1,8,×,9,8 × 9,congruent,smallerFirst,1,2,72,,,,,,,,
,,,,,,,,,,,,,,,814,2022-01-19_12h13.30.647,multiplicationStroop,2021.2.3,Win32,60.09615385,,,,,,,,,,,,,,,,,,,,,,,,,,,,,,,,,30,2.2999,0,0,30,30,15,1,7,×,5,7 × 5,congruent,largerFirst,2,1,35,,,,,,,,
,,,,,,,,,,,,,,,814,2022-01-19_12h13.30.647,multiplicationStroop,2021.2.3,Win32,60.09615385,,,,,,,,,,,,,,,,,,,,,,,,,,,,,,,,,48,6.0623,1,0,31,31,4,1,6,×,8,6 × 8,congruent,smallerFirst,1,2,48,,,,,,,,
,,,,,,,,,,,,,,,814,2022-01-19_12h13.30.647,multiplicationStroop,2021.2.3,Win32,60.09615385,,,,,,,,,,,,,,,,,,,,,,,,,,,,,,,,,21,2.5001,1,0,32,32,2,1,3,×,7,3 × 7,congruent,smallerFirst,1,2,21,,,,,,,,
,,,,,,,,,,,,,,,814,2022-01-19_12h13.30.647,multiplicationStroop,2021.2.3,Win32,60.09615385,,,,,,,,,,,,,,,,,,,,,,,,,,,,,,,,,52,6.1801,0,0,33,33,26,1,9,×,6,9 × 6,congruent,largerFirst,2,1,54,,,,,,,,
,,,,,,,,,,,,,,,814,2022-01-19_12h13.30.647,multiplicationStroop,2021.2.3,Win32,60.09615385,,,,,,,,,,,,,,,,,,,,,,,,,,,,,,,,,81,2.6515,1,0,34,34,35,1,9,×,9,9 × 9,neutral,tie,1,2,81,,,,,,,,
,,,,,,,,,,,,,,,814,2022-01-19_12h13.30.647,multiplicationStroop,2021.2.3,Win32,60.09615385,,,,,,,,,,,,,,,,,,,,,,,,,,,,,,,,,25,2.4816,1,0,35,35,31,1,5,×,5,5 × 5,neutral,tie,1,2,25,,,,,,,,
,,,,,,,,,,,,,,,814,2022-01-19_12h13.30.647,multiplicationStroop,2021.2.3,Win32,60.09615385,,,,,,,,,,,,,,,,,,,,,,,,,,,,,,,,,,,,,,,,,,,,,,,,,,0,4,4,3,1,stimulusFile/mult_blk4_congruent.xlsx,,
,,,,,,,,,,,,,,,814,2022-01-19_12h13.30.647,multiplicationStroop,2021.2.3,Win32,60.09615385,,,,,,,,,,,,,,,,,,,,,,,,,,,,,,,space,1.9192,16,2.3617,1,0,0,0,30,1,4,×,4,4 × 4,neutral,tie,2,1,16,,,,,,,,
,,,,,,,,,,,,,,,814,2022-01-19_12h13.30.647,multiplicationStroop,2021.2.3,Win32,60.09615385,,,,,,,,,,,,,,,,,,,,,,,,,,,,,,,,,6,2.2816,1,0,1,1,13,1,2,×,3,2 × 3,congruent,smallerFirst,1,2,6,,,,,,,,
,,,,,,,,,,,,,,,814,2022-01-19_12h13.30.647,multiplicationStroop,2021.2.3,Win32,60.09615385,,,,,,,,,,,,,,,,,,,,,,,,,,,,,,,,,30,5.3971,1,0,2,2,15,1,6,×,5,6 × 5,congruent,largerFirst,2,1,30,,,,,,,,
,,,,,,,,,,,,,,,814,2022-01-19_12h13.30.647,multiplicationStroop,2021.2.3,Win32,60.09615385,,,,,,,,,,,,,,,,,,,,,,,,,,,,,,,,,56,6.2989,1,0,3,3,8,1,7,×,8,7 × 8,congruent,smallerFirst,1,2,56,,,,,,,,
,,,,,,,,,,,,,,,814,2022-01-19_12h13.30.647,multiplicationStroop,2021.2.3,Win32,60.09615385,,,,,,,,,,,,,,,,,,,,,,,,,,,,,,,,,12,1.6838,1,0,4,4,19,1,6,×,2,6 × 2,congruent,largerFirst,2,1,12,,,,,,,,
,,,,,,,,,,,,,,,814,2022-01-19_12h13.30.647,multiplicationStroop,2021.2.3,Win32,60.09615385,,,,,,,,,,,,,,,,,,,,,,,,,,,,,,,,,16,5.1472,1,0,5,5,5,1,2,×,8,2 × 8,congruent,smallerFirst,1,2,16,,,,,,,,
,,,,,,,,,,,,,,,814,2022-01-19_12h13.30.647,multiplicationStroop,2021.2.3,Win32,60.09615385,,,,,,,,,,,,,,,,,,,,,,,,,,,,,,,,,65,4.3162,0,0,6,6,21,1,9,×,7,9 × 7,congruent,largerFirst,2,1,63,,,,,,,,
,,,,,,,,,,,,,,,814,2022-01-19_12h13.30.647,multiplicationStroop,2021.2.3,Win32,60.09615385,,,,,,,,,,,,,,,,,,,,,,,,,,,,,,,,,28,3.1333,1,0,7,7,27,1,7,×,4,7 × 4,congruent,largerFirst,2,1,28,,,,,,,,
,,,,,,,,,,,,,,,814,2022-01-19_12h13.30.647,multiplicationStroop,2021.2.3,Win32,60.09615385,,,,,,,,,,,,,,,,,,,,,,,,,,,,,,,,,42,2.7168,0,0,8,8,12,1,6,×,9,6 × 9,congruent,smallerFirst,1,2,54,,,,,,,,
,,,,,,,,,,,,,,,814,2022-01-19_12h13.30.647,multiplicationStroop,2021.2.3,Win32,60.09615385,,,,,,,,,,,,,,,,,,,,,,,,,,,,,,,,,20,8.5123,1,0,9,9,7,1,4,×,5,4 × 5,congruent,smallerFirst,1,2,20,,,,,,,,
,,,,,,,,,,,,,,,814,2022-01-19_12h13.30.647,multiplicationStroop,2021.2.3,Win32,60.09615385,,,,,,,,,,,,,,,,,,,,,,,,,,,,,,,,,40,6.9478,1,0,10,10,6,1,5,×,8,5 × 8,congruent,smallerFirst,1,2,40,,,,,,,,
,,,,,,,,,,,,,,,814,2022-01-19_12h13.30.647,multiplicationStroop,2021.2.3,Win32,60.09615385,,,,,,,,,,,,,,,,,,,,,,,,,,,,,,,,,28,4.6152,0,0,11,11,20,1,8,×,4,8 × 4,congruent,largerFirst,2,1,32,,,,,,,,
,,,,,,,,,,,,,,,814,2022-01-19_12h13.30.647,multiplicationStroop,2021.2.3,Win32,60.09615385,,,,,,,,,,,,,,,,,,,,,,,,,,,,,,,,,64,4.0328,1,0,12,12,34,1,8,×,8,8 × 8,neutral,tie,2,1,64,,,,,,,,
,,,,,,,,,,,,,,,814,2022-01-19_12h13.30.647,multiplicationStroop,2021.2.3,Win32,60.09615385,,,,,,,,,,,,,,,,,,,,,,,,,,,,,,,,,21,3.0494,1,0,13,13,16,1,7,×,3,7 × 3,congruent,largerFirst,2,1,21,,,,,,,,
,,,,,,,,,,,,,,,814,2022-01-19_12h13.30.647,multiplicationStroop,2021.2.3,Win32,60.09615385,,,,,,,,,,,,,,,,,,,,,,,,,,,,,,,,,36,3.3665,1,0,14,14,32,1,6,×,6,6 × 6,neutral,tie,2,1,36,,,,,,,,
,,,,,,,,,,,,,,,814,2022-01-19_12h13.30.647,multiplicationStroop,2021.2.3,Win32,60.09615385,,,,,,,,,,,,,,,,,,,,,,,,,,,,,,,,,18,8.3146,1,0,15,15,11,1,3,×,6,3 × 6,congruent,smallerFirst,1,2,18,,,,,,,,
,,,,,,,,,,,,,,,814,2022-01-19_12h13.30.647,multiplicationStroop,2021.2.3,Win32,60.09615385,,,,,,,,,,,,,,,,,,,,,,,,,,,,,,,,,23,5.2649,0,0,16,16,10,1,3,×,8,3 × 8,congruent,smallerFirst,1,2,24,,,,,,,,
,,,,,,,,,,,,,,,814,2022-01-19_12h13.30.647,multiplicationStroop,2021.2.3,Win32,60.09615385,,,,,,,,,,,,,,,,,,,,,,,,,,,,,,,,,35,10.6301,1,0,17,17,1,1,5,×,7,5 × 7,congruent,smallerFirst,1,2,35,,,,,,,,
,,,,,,,,,,,,,,,814,2022-01-19_12h13.30.647,multiplicationStroop,2021.2.3,Win32,60.09615385,,,,,,,,,,,,,,,,,,,,,,,,,,,,,,,,,72,3.7819,1,0,18,18,17,1,9,×,8,9 × 8,congruent,largerFirst,2,1,72,,,,,,,,
,,,,,,,,,,,,,,,814,2022-01-19_12h13.30.647,multiplicationStroop,2021.2.3,Win32,60.09615385,,,,,,,,,,,,,,,,,,,,,,,,,,,,,,,,,36,4.731,1,0,19,19,0,1,4,×,9,4 × 9,congruent,smallerFirst,1,2,36,,,,,,,,
,,,,,,,,,,,,,,,814,2022-01-19_12h13.30.647,multiplicationStroop,2021.2.3,Win32,60.09615385,,,,,,,,,,,,,,,,,,,,,,,,,,,,,,,,,81,3.0662,1,0,20,20,35,1,9,×,9,9 × 9,neutral,tie,2,1,81,,,,,,,,
,,,,,,,,,,,,,,,814,2022-01-19_12h13.30.647,multiplicationStroop,2021.2.3,Win32,60.09615385,,,,,,,,,,,,,,,,,,,,,,,,,,,,,,,,,12,2.8814,1,0,21,21,2,1,3,×,4,3 × 4,congruent,smallerFirst,1,2,12,,,,,,,,
,,,,,,,,,,,,,,,814,2022-01-19_12h13.30.647,multiplicationStroop,2021.2.3,Win32,60.09615385,,,,,,,,,,,,,,,,,,,,,,,,,,,,,,,,,24,3.2005,1,0,22,22,25,1,6,×,4,6 × 4,congruent,largerFirst,2,1,24,,,,,,,,
,,,,,,,,,,,,,,,814,2022-01-19_12h13.30.647,multiplicationStroop,2021.2.3,Win32,60.09615385,,,,,,,,,,,,,,,,,,,,,,,,,,,,,,,,,9,1.6153,1,0,23,23,29,1,3,×,3,3 × 3,neutral,tie,2,1,9,,,,,,,,
,,,,,,,,,,,,,,,814,2022-01-19_12h13.30.647,multiplicationStroop,2021.2.3,Win32,60.09615385,,,,,,,,,,,,,,,,,,,,,,,,,,,,,,,,,8,6.1131,1,0,24,24,9,1,2,×,4,2 × 4,congruent,smallerFirst,1,2,8,,,,,,,,
,,,,,,,,,,,,,,,814,2022-01-19_12h13.30.647,multiplicationStroop,2021.2.3,Win32,60.09615385,,,,,,,,,,,,,,,,,,,,,,,,,,,,,,,,,49,2.8003,1,0,25,25,33,1,7,×,7,7 × 7,neutral,tie,2,1,49,,,,,,,,
,,,,,,,,,,,,,,,814,2022-01-19_12h13.30.647,multiplicationStroop,2021.2.3,Win32,60.09615385,,,,,,,,,,,,,,,,,,,,,,,,,,,,,,,,,18,4.2489,1,0,26,26,22,1,9,×,2,9 × 2,congruent,largerFirst,2,1,18,,,,,,,,
,,,,,,,,,,,,,,,814,2022-01-19_12h13.30.647,multiplicationStroop,2021.2.3,Win32,60.09615385,,,,,,,,,,,,,,,,,,,,,,,,,,,,,,,,,14,5.5873,1,0,27,27,14,1,7,×,2,7 × 2,congruent,largerFirst,2,1,14,,,,,,,,
,,,,,,,,,,,,,,,814,2022-01-19_12h13.30.647,multiplicationStroop,2021.2.3,Win32,60.09615385,,,,,,,,,,,,,,,,,,,,,,,,,,,,,,,,,20,2.2003,0,0,28,28,31,1,5,×,5,5 × 5,neutral,tie,2,1,25,,,,,,,,
,,,,,,,,,,,,,,,814,2022-01-19_12h13.30.647,multiplicationStroop,2021.2.3,Win32,60.09615385,,,,,,,,,,,,,,,,,,,,,,,,,,,,,,,,,4,1.4321,1,0,29,29,28,1,2,×,2,2 × 2,neutral,tie,2,1,4,,,,,,,,
,,,,,,,,,,,,,,,814,2022-01-19_12h13.30.647,multiplicationStroop,2021.2.3,Win32,60.09615385,,,,,,,,,,,,,,,,,,,,,,,,,,,,,,,,,23,5.5971,0,0,30,30,26,1,9,×,3,9 × 3,congruent,largerFirst,2,1,27,,,,,,,,
,,,,,,,,,,,,,,,814,2022-01-19_12h13.30.647,multiplicationStroop,2021.2.3,Win32,60.09615385,,,,,,,,,,,,,,,,,,,,,,,,,,,,,,,,,15,3.483,1,0,31,31,4,1,3,×,5,3 × 5,congruent,smallerFirst,1,2,15,,,,,,,,
,,,,,,,,,,,,,,,814,2022-01-19_12h13.30.647,multiplicationStroop,2021.2.3,Win32,60.09615385,,,,,,,,,,,,,,,,,,,,,,,,,,,,,,,,,10,5.1327,1,0,32,32,24,1,5,×,2,5 × 2,congruent,largerFirst,2,1,10,,,,,,,,
,,,,,,,,,,,,,,,814,2022-01-19_12h13.30.647,multiplicationStroop,2021.2.3,Win32,60.09615385,,,,,,,,,,,,,,,,,,,,,,,,,,,,,,,,,42,4.5491,0,0,33,33,18,1,8,×,6,8 × 6,congruent,largerFirst,2,1,48,,,,,,,,
,,,,,,,,,,,,,,,814,2022-01-19_12h13.30.647,multiplicationStroop,2021.2.3,Win32,60.09615385,,,,,,,,,,,,,,,,,,,,,,,,,,,,,,,,,45,7.6146,1,0,34,34,23,1,9,×,5,9 × 5,congruent,largerFirst,2,1,45,,,,,,,,
,,,,,,,,,,,,,,,814,2022-01-19_12h13.30.647,multiplicationStroop,2021.2.3,Win32,60.09615385,,,,,,,,,,,,,,,,,,,,,,,,,,,,,,,,,42,3.0502,1,0,35,35,3,1,6,×,7,6 × 7,congruent,smallerFirst,1,2,42,,,,,,,,
,,,,,,,,,,,,,,,814,2022-01-19_12h13.30.647,multiplicationStroop,2021.2.3,Win32,60.09615385,,,,,,,,,,,,,,,,,,,,,,,,,,,,,,,,,,,,,,,,,,,,,,,,,,0,5,5,2,1,stimulusFile/mult_blk3_congruent.xlsx,,
,,,,,,,,,,,,,,,814,2022-01-19_12h13.30.647,multiplicationStroop,2021.2.3,Win32,60.09615385,,,,,,,,,,,,,,,,,,,,,,,,,,,,,,,,,,,,,,,,,,,,,,,,,,,,,,,,space,1.6395