welcomeKey_resp.keys,welcomeKey_resp.rt,X Scale,Y Scale,rt_resp_4.keys,rt_resp_4.corr,rt_resp_4.rt,speedtest_2.thisRepN,speedtest_2.thisTrialN,speedtest_2.thisN,speedtest_2.thisIndex,speedtest_2.ran,numberSc,posX,positionLayout,participant,date,expName,psychopyVersion,OS,frameRate,ct_instrresp.keys,ct_instrresp.rt,key_resp_2.keys,key_resp_2.rt,ct_keyResp.keys,ct_keyResp.corr,ct_keyResp.rt,trials.thisRepN,trials.thisTrialN,trials.thisN,trials.thisIndex,trials.ran,leftNo,rightNo,displayProblem,numDistance,leftNo_size,rightNo_size,Dims,keyAnswer,TS_Loop.thisRepN,TS_Loop.thisTrialN,TS_Loop.thisN,TS_Loop.thisIndex,TS_Loop.ran,Condition,ActionInst,instrImage,mltptaskInst_resp.keys,mltptaskInst_resp.rt,continue_resp_2.keys,continue_resp_2.rt,multp_Answer,multi_RT,multiplyCorr,LoopingMultiply.thisRepN,LoopingMultiply.thisTrialN,LoopingMultiply.thisN,LoopingMultiply.thisIndex,LoopingMultiply.ran,factor1,multiplySign,factor2,multliplyProblem,physicalSize,orderOperand,sizeF1,sizeF2,mult_answer,trials_stroop.thisRepN,trials_stroop.thisTrialN,trials_stroop.thisN,trials_stroop.thisIndex,trials_stroop.ran,multiplicationFile,esckey_resp_2.keys,esckey_resp_2.rt
y,13.4875,45,44.9,right,1,0.5312,0,0,0,12,1,6,200,right,8158,2022-02-23_21h59.07.478,multiplicationStroop,2021.2.3,Win32,59.38947618,,,,,,,,,,,,,,,,,,,,,,,,,,,,,,,,,,,,,,,,,,,,,,,,,,,,,,,,,
,,,,left,1,0.4412,0,1,1,1,1,2,-200,left,8158,2022-02-23_21h59.07.478,multiplicationStroop,2021.2.3,Win32,59.38947618,,,,,,,,,,,,,,,,,,,,,,,,,,,,,,,,,,,,,,,,,,,,,,,,,,,,,,,,,
,,,,left,1,0.3685,0,2,2,7,1,9,-200,left,8158,2022-02-23_21h59.07.478,multiplicationStroop,2021.2.3,Win32,59.38947618,,,,,,,,,,,,,,,,,,,,,,,,,,,,,,,,,,,,,,,,,,,,,,,,,,,,,,,,,
,,,,right,1,0.3489,0,3,3,10,1,3,200,right,8158,2022-02-23_21h59.07.478,multiplicationStroop,2021.2.3,Win32,59.38947618,,,,,,,,,,,,,,,,,,,,,,,,,,,,,,,,,,,,,,,,,,,,,,,,,,,,,,,,,
,,,,right,1,0.3839,0,4,4,15,1,9,200,right,8158,2022-02-23_21h59.07.478,multiplicationStroop,2021.2.3,Win32,59.38947618,,,,,,,,,,,,,,,,,,,,,,,,,,,,,,,,,,,,,,,,,,,,,,,,,,,,,,,,,
,,,,left,1,0.386,0,5,5,2,1,3,-200,left,8158,2022-02-23_21h59.07.478,multiplicationStroop,2021.2.3,Win32,59.38947618,,,,,,,,,,,,,,,,,,,,,,,,,,,,,,,,,,,,,,,,,,,,,,,,,,,,,,,,,
,,,,right,1,0.3514,0,6,6,14,1,8,200,right,8158,2022-02-23_21h59.07.478,multiplicationStroop,2021.2.3,Win32,59.38947618,,,,,,,,,,,,,,,,,,,,,,,,,,,,,,,,,,,,,,,,,,,,,,,,,,,,,,,,,
,,,,left,1,0.3442,0,7,7,4,1,6,-200,left,8158,2022-02-23_21h59.07.478,multiplicationStroop,2021.2.3,Win32,59.38947618,,,,,,,,,,,,,,,,,,,,,,,,,,,,,,,,,,,,,,,,,,,,,,,,,,,,,,,,,
,,,,left,1,0.3868,0,8,8,3,1,4,-200,left,8158,2022-02-23_21h59.07.478,multiplicationStroop,2021.2.3,Win32,59.38947618,,,,,,,,,,,,,,,,,,,,,,,,,,,,,,,,,,,,,,,,,,,,,,,,,,,,,,,,,
,,,,right,1,0.3518,0,9,9,9,1,2,200,right,8158,2022-02-23_21h59.07.478,multiplicationStroop,2021.2.3,Win32,59.38947618,,,,,,,,,,,,,,,,,,,,,,,,,,,,,,,,,,,,,,,,,,,,,,,,,,,,,,,,,
,,,,left,0,0.8754,0,10,10,8,1,1,200,right,8158,2022-02-23_21h59.07.478,multiplicationStroop,2021.2.3,Win32,59.38947618,,,,,,,,,,,,,,,,,,,,,,,,,,,,,,,,,,,,,,,,,,,,,,,,,,,,,,,,,
,,,,left,1,0.6055,0,11,11,6,1,8,-200,left,8158,2022-02-23_21h59.07.478,multiplicationStroop,2021.2.3,Win32,59.38947618,,,,,,,,,,,,,,,,,,,,,,,,,,,,,,,,,,,,,,,,,,,,,,,,,,,,,,,,,
,,,,left,1,0.3883,0,12,12,0,1,1,-200,left,8158,2022-02-23_21h59.07.478,multiplicationStroop,2021.2.3,Win32,59.38947618,,,,,,,,,,,,,,,,,,,,,,,,,,,,,,,,,,,,,,,,,,,,,,,,,,,,,,,,,
,,,,left,1,0.3358,0,13,13,5,1,7,-200,left,8158,2022-02-23_21h59.07.478,multiplicationStroop,2021.2.3,Win32,59.38947618,,,,,,,,,,,,,,,,,,,,,,,,,,,,,,,,,,,,,,,,,,,,,,,,,,,,,,,,,
,,,,right,1,0.3846,0,14,14,11,1,4,200,right,8158,2022-02-23_21h59.07.478,multiplicationStroop,2021.2.3,Win32,59.38947618,,,,,,,,,,,,,,,,,,,,,,,,,,,,,,,,,,,,,,,,,,,,,,,,,,,,,,,,,
,,,,right,1,0.3683,0,15,15,13,1,7,200,right,8158,2022-02-23_21h59.07.478,multiplicationStroop,2021.2.3,Win32,59.38947618,,,,,,,,,,,,,,,,,,,,,,,,,,,,,,,,,,,,,,,,,,,,,,,,,,,,,,,,,
,,,,left,1,0.3072,1,0,16,0,1,1,-200,left,8158,2022-02-23_21h59.07.478,multiplicationStroop,2021.2.3,Win32,59.38947618,,,,,,,,,,,,,,,,,,,,,,,,,,,,,,,,,,,,,,,,,,,,,,,,,,,,,,,,,
,,,,right,1,0.3267,1,1,17,12,1,6,200,right,8158,2022-02-23_21h59.07.478,multiplicationStroop,2021.2.3,Win32,59.38947618,,,,,,,,,,,,,,,,,,,,,,,,,,,,,,,,,,,,,,,,,,,,,,,,,,,,,,,,,
,,,,left,1,0.3012,1,2,18,6,1,8,-200,left,8158,2022-02-23_21h59.07.478,multiplicationStroop,2021.2.3,Win32,59.38947618,,,,,,,,,,,,,,,,,,,,,,,,,,,,,,,,,,,,,,,,,,,,,,,,,,,,,,,,,
,,,,left,1,0.3432,1,3,19,1,1,2,-200,left,8158,2022-02-23_21h59.07.478,multiplicationStroop,2021.2.3,Win32,59.38947618,,,,,,,,,,,,,,,,,,,,,,,,,,,,,,,,,,,,,,,,,,,,,,,,,,,,,,,,,
,,,,right,1,0.3068,1,4,20,8,1,1,200,right,8158,2022-02-23_21h59.07.478,multiplicationStroop,2021.2.3,Win32,59.38947618,,,,,,,,,,,,,,,,,,,,,,,,,,,,,,,,,,,,,,,,,,,,,,,,,,,,,,,,,
,,,,right,1,0.3527,1,5,21,11,1,4,200,right,8158,2022-02-23_21h59.07.478,multiplicationStroop,2021.2.3,Win32,59.38947618,,,,,,,,,,,,,,,,,,,,,,,,,,,,,,,,,,,,,,,,,,,,,,,,,,,,,,,,,
,,,,left,1,0.2837,1,6,22,7,1,9,-200,left,8158,2022-02-23_21h59.07.478,multiplicationStroop,2021.2.3,Win32,59.38947618,,,,,,,,,,,,,,,,,,,,,,,,,,,,,,,,,,,,,,,,,,,,,,,,,,,,,,,,,
,,,,right,1,0.2721,1,7,23,9,1,2,200,right,8158,2022-02-23_21h59.07.478,multiplicationStroop,2021.2.3,Win32,59.38947618,,,,,,,,,,,,,,,,,,,,,,,,,,,,,,,,,,,,,,,,,,,,,,,,,,,,,,,,,
,,,,right,1,0.3305,1,8,24,14,1,8,200,right,8158,2022-02-23_21h59.07.478,multiplicationStroop,2021.2.3,Win32,59.38947618,,,,,,,,,,,,,,,,,,,,,,,,,,,,,,,,,,,,,,,,,,,,,,,,,,,,,,,,,
,,,,right,1,0.3356,1,9,25,13,1,7,200,right,8158,2022-02-23_21h59.07.478,multiplicationStroop,2021.2.3,Win32,59.38947618,,,,,,,,,,,,,,,,,,,,,,,,,,,,,,,,,,,,,,,,,,,,,,,,,,,,,,,,,
,,,,right,1,0.3063,1,10,26,10,1,3,200,right,8158,2022-02-23_21h59.07.478,multiplicationStroop,2021.2.3,Win32,59.38947618,,,,,,,,,,,,,,,,,,,,,,,,,,,,,,,,,,,,,,,,,,,,,,,,,,,,,,,,,
,,,,right,1,0.2775,1,11,27,15,1,9,200,right,8158,2022-02-23_21h59.07.478,multiplicationStroop,2021.2.3,Win32,59.38947618,,,,,,,,,,,,,,,,,,,,,,,,,,,,,,,,,,,,,,,,,,,,,,,,,,,,,,,,,
,,,,left,1,0.3719,1,12,28,4,1,6,-200,left,8158,2022-02-23_21h59.07.478,multiplicationStroop,2021.2.3,Win32,59.38947618,,,,,,,,,,,,,,,,,,,,,,,,,,,,,,,,,,,,,,,,,,,,,,,,,,,,,,,,,
,,,,left,1,0.3356,1,13,29,2,1,3,-200,left,8158,2022-02-23_21h59.07.478,multiplicationStroop,2021.2.3,Win32,59.38947618,,,,,,,,,,,,,,,,,,,,,,,,,,,,,,,,,,,,,,,,,,,,,,,,,,,,,,,,,
,,,,left,1,0.2744,1,14,30,5,1,7,-200,left,8158,2022-02-23_21h59.07.478,multiplicationStroop,2021.2.3,Win32,59.38947618,,,,,,,,,,,,,,,,,,,,,,,,,,,,,,,,,,,,,,,,,,,,,,,,,,,,,,,,,
,,,,left,1,0.3023,1,15,31,3,1,4,-200,left,8158,2022-02-23_21h59.07.478,multiplicationStroop,2021.2.3,Win32,59.38947618,,,,,,,,,,,,,,,,,,,,,,,,,,,,,,,,,,,,,,,,,,,,,,,,,,,,,,,,,
,,,,left,1,0.3017,2,0,32,5,1,7,-200,left,8158,2022-02-23_21h59.07.478,multiplicationStroop,2021.2.3,Win32,59.38947618,,,,,,,,,,,,,,,,,,,,,,,,,,,,,,,,,,,,,,,,,,,,,,,,,,,,,,,,,
,,,,right,1,0.406,2,1,33,8,1,1,200,right,8158,2022-02-23_21h59.07.478,multiplicationStroop,2021.2.3,Win32,59.38947618,,,,,,,,,,,,,,,,,,,,,,,,,,,,,,,,,,,,,,,,,,,,,,,,,,,,,,,,,
,,,,left,1,0.2603,2,2,34,2,1,3,-200,left,8158,2022-02-23_21h59.07.478,multiplicationStroop,2021.2.3,Win32,59.38947618,,,,,,,,,,,,,,,,,,,,,,,,,,,,,,,,,,,,,,,,,,,,,,,,,,,,,,,,,
,,,,left,1,0.3232,2,3,35,7,1,9,-200,left,8158,2022-02-23_21h59.07.478,multiplicationStroop,2021.2.3,Win32,59.38947618,,,,,,,,,,,,,,,,,,,,,,,,,,,,,,,,,,,,,,,,,,,,,,,,,,,,,,,,,
,,,,left,1,0.2775,2,4,36,0,1,1,-200,left,8158,2022-02-23_21h59.07.478,multiplicationStroop,2021.2.3,Win32,59.38947618,,,,,,,,,,,,,,,,,,,,,,,,,,,,,,,,,,,,,,,,,,,,,,,,,,,,,,,,,
,,,,right,1,0.3364,2,5,37,9,1,2,200,right,8158,2022-02-23_21h59.07.478,multiplicationStroop,2021.2.3,Win32,59.38947618,,,,,,,,,,,,,,,,,,,,,,,,,,,,,,,,,,,,,,,,,,,,,,,,,,,,,,,,,
,,,,right,1,0.324,2,6,38,12,1,6,200,right,8158,2022-02-23_21h59.07.478,multiplicationStroop,2021.2.3,Win32,59.38947618,,,,,,,,,,,,,,,,,,,,,,,,,,,,,,,,,,,,,,,,,,,,,,,,,,,,,,,,,
,,,,right,1,0.2723,2,7,39,15,1,9,200,right,8158,2022-02-23_21h59.07.478,multiplicationStroop,2021.2.3,Win32,59.38947618,,,,,,,,,,,,,,,,,,,,,,,,,,,,,,,,,,,,,,,,,,,,,,,,,,,,,,,,,
,,,,left,1,0.3344,2,8,40,4,1,6,-200,left,8158,2022-02-23_21h59.07.478,multiplicationStroop,2021.2.3,Win32,59.38947618,,,,,,,,,,,,,,,,,,,,,,,,,,,,,,,,,,,,,,,,,,,,,,,,,,,,,,,,,
,,,,right,0,0.1751,2,9,41,3,1,4,-200,left,8158,2022-02-23_21h59.07.478,multiplicationStroop,2021.2.3,Win32,59.38947618,,,,,,,,,,,,,,,,,,,,,,,,,,,,,,,,,,,,,,,,,,,,,,,,,,,,,,,,,
,,,,left,1,0.4676,2,10,42,1,1,2,-200,left,8158,2022-02-23_21h59.07.478,multiplicationStroop,2021.2.3,Win32,59.38947618,,,,,,,,,,,,,,,,,,,,,,,,,,,,,,,,,,,,,,,,,,,,,,,,,,,,,,,,,
,,,,right,1,0.4015,2,11,43,10,1,3,200,right,8158,2022-02-23_21h59.07.478,multiplicationStroop,2021.2.3,Win32,59.38947618,,,,,,,,,,,,,,,,,,,,,,,,,,,,,,,,,,,,,,,,,,,,,,,,,,,,,,,,,
,,,,right,1,0.3619,2,12,44,14,1,8,200,right,8158,2022-02-23_21h59.07.478,multiplicationStroop,2021.2.3,Win32,59.38947618,,,,,,,,,,,,,,,,,,,,,,,,,,,,,,,,,,,,,,,,,,,,,,,,,,,,,,,,,
,,,,left,1,0.3273,2,13,45,6,1,8,-200,left,8158,2022-02-23_21h59.07.478,multiplicationStroop,2021.2.3,Win32,59.38947618,,,,,,,,,,,,,,,,,,,,,,,,,,,,,,,,,,,,,,,,,,,,,,,,,,,,,,,,,
,,,,right,1,0.3105,2,14,46,13,1,7,200,right,8158,2022-02-23_21h59.07.478,multiplicationStroop,2021.2.3,Win32,59.38947618,,,,,,,,,,,,,,,,,,,,,,,,,,,,,,,,,,,,,,,,,,,,,,,,,,,,,,,,,
,,,,right,1,0.3682,2,15,47,11,1,4,200,right,8158,2022-02-23_21h59.07.478,multiplicationStroop,2021.2.3,Win32,59.38947618,,,,,,,,,,,,,,,,,,,,,,,,,,,,,,,,,,,,,,,,,,,,,,,,,,,,,,,,,
,,,,left,1,0.2765,3,0,48,5,1,7,-200,left,8158,2022-02-23_21h59.07.478,multiplicationStroop,2021.2.3,Win32,59.38947618,,,,,,,,,,,,,,,,,,,,,,,,,,,,,,,,,,,,,,,,,,,,,,,,,,,,,,,,,
,,,,left,1,0.3427,3,1,49,7,1,9,-200,left,8158,2022-02-23_21h59.07.478,multiplicationStroop,2021.2.3,Win32,59.38947618,,,,,,,,,,,,,,,,,,,,,,,,,,,,,,,,,,,,,,,,,,,,,,,,,,,,,,,,,
,,,,right,1,0.3048,3,2,50,9,1,2,200,right,8158,2022-02-23_21h59.07.478,multiplicationStroop,2021.2.3,Win32,59.38947618,,,,,,,,,,,,,,,,,,,,,,,,,,,,,,,,,,,,,,,,,,,,,,,,,,,,,,,,,
,,,,right,1,0.32,3,3,51,8,1,1,200,right,8158,2022-02-23_21h59.07.478,multiplicationStroop,2021.2.3,Win32,59.38947618,,,,,,,,,,,,,,,,,,,,,,,,,,,,,,,,,,,,,,,,,,,,,,,,,,,,,,,,,
,,,,left,1,0.2689,3,4,52,2,1,3,-200,left,8158,2022-02-23_21h59.07.478,multiplicationStroop,2021.2.3,Win32,59.38947618,,,,,,,,,,,,,,,,,,,,,,,,,,,,,,,,,,,,,,,,,,,,,,,,,,,,,,,,,
,,,,right,1,0.2936,3,5,53,13,1,7,200,right,8158,2022-02-23_21h59.07.478,multiplicationStroop,2021.2.3,Win32,59.38947618,,,,,,,,,,,,,,,,,,,,,,,,,,,,,,,,,,,,,,,,,,,,,,,,,,,,,,,,,
,,,,right,1,0.2914,3,6,54,15,1,9,200,right,8158,2022-02-23_21h59.07.478,multiplicationStroop,2021.2.3,Win32,59.38947618,,,,,,,,,,,,,,,,,,,,,,,,,,,,,,,,,,,,,,,,,,,,,,,,,,,,,,,,,
,,,,right,1,0.3184,3,7,55,10,1,3,200,right,8158,2022-02-23_21h59.07.478,multiplicationStroop,2021.2.3,Win32,59.38947618,,,,,,,,,,,,,,,,,,,,,,,,,,,,,,,,,,,,,,,,,,,,,,,,,,,,,,,,,
,,,,left,1,0.3049,3,8,56,3,1,4,-200,left,8158,2022-02-23_21h59.07.478,multiplicationStroop,2021.2.3,Win32,59.38947618,,,,,,,,,,,,,,,,,,,,,,,,,,,,,,,,,,,,,,,,,,,,,,,,,,,,,,,,,
,,,,left,1,0.3682,3,9,57,4,1,6,-200,left,8158,2022-02-23_21h59.07.478,multiplicationStroop,2021.2.3,Win32,59.38947618,,,,,,,,,,,,,,,,,,,,,,,,,,,,,,,,,,,,,,,,,,,,,,,,,,,,,,,,,
,,,,right,1,0.3076,3,10,58,12,1,6,200,right,8158,2022-02-23_21h59.07.478,multiplicationStroop,2021.2.3,Win32,59.38947618,,,,,,,,,,,,,,,,,,,,,,,,,,,,,,,,,,,,,,,,,,,,,,,,,,,,,,,,,
,,,,left,1,0.2613,3,11,59,6,1,8,-200,left,8158,2022-02-23_21h59.07.478,multiplicationStroop,2021.2.3,Win32,59.38947618,,,,,,,,,,,,,,,,,,,,,,,,,,,,,,,,,,,,,,,,,,,,,,,,,,,,,,,,,
,,,,right,1,0.326,3,12,60,14,1,8,200,right,8158,2022-02-23_21h59.07.478,multiplicationStroop,2021.2.3,Win32,59.38947618,,,,,,,,,,,,,,,,,,,,,,,,,,,,,,,,,,,,,,,,,,,,,,,,,,,,,,,,,
,,,,right,1,0.4008,3,13,61,11,1,4,200,right,8158,2022-02-23_21h59.07.478,multiplicationStroop,2021.2.3,Win32,59.38947618,,,,,,,,,,,,,,,,,,,,,,,,,,,,,,,,,,,,,,,,,,,,,,,,,,,,,,,,,
,,,,left,1,0.302,3,14,62,1,1,2,-200,left,8158,2022-02-23_21h59.07.478,multiplicationStroop,2021.2.3,Win32,59.38947618,,,,,,,,,,,,,,,,,,,,,,,,,,,,,,,,,,,,,,,,,,,,,,,,,,,,,,,,,
,,,,left,1,0.4373,3,15,63,0,1,1,-200,left,8158,2022-02-23_21h59.07.478,multiplicationStroop,2021.2.3,Win32,59.38947618,,,,,,,,,,,,,,,,,,,,,,,,,,,,,,,,,,,,,,,,,,,,,,,,,,,,,,,,,
,,,,,,,,,,,,,,,8158,2022-02-23_21h59.07.478,multiplicationStroop,2021.2.3,Win32,59.38947618,space,26.5951,space,7.8773,right,1,0.7923,0,0,0,10,1,6,8,6 | 8,2,1.4111,1.9756,congruent,right,,,,,,stimulusFile/magnitude.xlsx,,,,,,,,,,,,,,,,,,,,,,,,,,,,,,,
,,,,,,,,,,,,,,,8158,2022-02-23_21h59.07.478,multiplicationStroop,2021.2.3,Win32,59.38947618,,,,,right,1,0.6696,0,1,1,50,1,6,7,6 | 7,1,1.6933,1.6933,neutral,right,,,,,,stimulusFile/magnitude.xlsx,,,,,,,,,,,,,,,,,,,,,,,,,,,,,,,
,,,,,,,,,,,,,,,8158,2022-02-23_21h59.07.478,multiplicationStroop,2021.2.3,Win32,59.38947618,,,,,right,1,0.5917,0,2,2,66,1,3,8,3 | 8,5,1.6933,1.6933,neutral,right,,,,,,stimulusFile/magnitude.xlsx,,,,,,,,,,,,,,,,,,,,,,,,,,,,,,,
,,,,,,,,,,,,,,,8158,2022-02-23_21h59.07.478,multiplicationStroop,2021.2.3,Win32,59.38947618,,,,,left,1,0.4863,0,3,3,61,1,4,2,4 | 2,2,1.6933,1.6933,neutral,left,,,,,,stimulusFile/magnitude.xlsx,,,,,,,,,,,,,,,,,,,,,,,,,,,,,,,
,,,,,,,,,,,,,,,8158,2022-02-23_21h59.07.478,multiplicationStroop,2021.2.3,Win32,59.38947618,,,,,left,1,0.5378,0,4,4,62,1,8,6,8 | 6,2,1.6933,1.6933,neutral,left,,,,,,stimulusFile/magnitude.xlsx,,,,,,,,,,,,,,,,,,,,,,,,,,,,,,,
,,,,,,,,,,,,,,,8158,2022-02-23_21h59.07.478,multiplicationStroop,2021.2.3,Win32,59.38947618,,,,,right,1,0.4851,0,5,5,58,1,6,8,6 | 8,2,1.6933,1.6933,neutral,right,,,,,,stimulusFile/magnitude.xlsx,,,,,,,,,,,,,,,,,,,,,,,,,,,,,,,
,,,,,,,,,,,,,,,8158,2022-02-23_21h59.07.478,multiplicationStroop,2021.2.3,Win32,59.38947618,,,,,left,1,0.5751,0,6,6,36,1,3,1,3 | 1,2,1.4111,1.9756,incongruent,left,,,,,,stimulusFile/magnitude.xlsx,,,,,,,,,,,,,,,,,,,,,,,,,,,,,,,
,,,,,,,,,,,,,,,8158,2022-02-23_21h59.07.478,multiplicationStroop,2021.2.3,Win32,59.38947618,,,,,right,1,0.5737,0,7,7,41,1,2,7,2 | 7,5,1.9756,1.4111,incongruent,right,,,,,,stimulusFile/magnitude.xlsx,,,,,,,,,,,,,,,,,,,,,,,,,,,,,,,
,,,,,,,,,,,,,,,8158,2022-02-23_21h59.07.478,multiplicationStroop,2021.2.3,Win32,59.38947618,,,,,left,1,0.4946,0,8,8,69,1,7,2,7 | 2,5,1.6933,1.6933,neutral,left,,,,,,stimulusFile/magnitude.xlsx,,,,,,,,,,,,,,,,,,,,,,,,,,,,,,,
,,,,,,,,,,,,,,,8158,2022-02-23_21h59.07.478,multiplicationStroop,2021.2.3,Win32,59.38947618,,,,,left,1,0.4877,0,9,9,13,1,4,2,4 | 2,2,1.9756,1.4111,congruent,left,,,,,,stimulusFile/magnitude.xlsx,,,,,,,,,,,,,,,,,,,,,,,,,,,,,,,
,,,,,,,,,,,,,,,8158,2022-02-23_21h59.07.478,multiplicationStroop,2021.2.3,Win32,59.38947618,,,,,left,1,0.726,0,10,10,47,1,9,4,9 | 4,5,1.4111,1.9756,incongruent,left,,,,,,stimulusFile/magnitude.xlsx,,,,,,,,,,,,,,,,,,,,,,,,,,,,,,,
,,,,,,,,,,,,,,,8158,2022-02-23_21h59.07.478,multiplicationStroop,2021.2.3,Win32,59.38947618,,,,,left,1,0.4911,0,11,11,53,1,4,3,4 | 3,1,1.6933,1.6933,neutral,left,,,,,,stimulusFile/magnitude.xlsx,,,,,,,,,,,,,,,,,,,,,,,,,,,,,,,
,,,,,,,,,,,,,,,8158,2022-02-23_21h59.07.478,multiplicationStroop,2021.2.3,Win32,59.38947618,,,,,right,1,0.5233,0,12,12,49,1,3,4,3 | 4,1,1.6933,1.6933,neutral,right,,,,,,stimulusFile/magnitude.xlsx,,,,,,,,,,,,,,,,,,,,,,,,,,,,,,,
,,,,,,,,,,,,,,,8158,2022-02-23_21h59.07.478,multiplicationStroop,2021.2.3,Win32,59.38947618,,,,,right,1,0.5356,0,13,13,34,1,6,8,6 | 8,2,1.9756,1.4111,incongruent,right,,,,,,stimulusFile/magnitude.xlsx,,,,,,,,,,,,,,,,,,,,,,,,,,,,,,,
,,,,,,,,,,,,,,,8158,2022-02-23_21h59.07.478,multiplicationStroop,2021.2.3,Win32,59.38947618,,,,,left,1,0.451,0,14,14,14,1,8,6,8 | 6,2,1.9756,1.4111,congruent,left,,,,,,stimulusFile/magnitude.xlsx,,,,,,,,,,,,,,,,,,,,,,,,,,,,,,,
,,,,,,,,,,,,,,,8158,2022-02-23_21h59.07.478,multiplicationStroop,2021.2.3,Win32,59.38947618,,,,,left,1,0.6595,0,15,15,38,1,8,6,8 | 6,2,1.4111,1.9756,incongruent,left,,,,,,stimulusFile/magnitude.xlsx,,,,,,,,,,,,,,,,,,,,,,,,,,,,,,,
,,,,,,,,,,,,,,,8158,2022-02-23_21h59.07.478,multiplicationStroop,2021.2.3,Win32,59.38947618,,,,,left,1,0.4827,0,16,16,23,1,9,4,9 | 4,5,1.9756,1.4111,congruent,left,,,,,,stimulusFile/magnitude.xlsx,,,,,,,,,,,,,,,,,,,,,,,,,,,,,,,
,,,,,,,,,,,,,,,8158,2022-02-23_21h59.07.478,multiplicationStroop,2021.2.3,Win32,59.38947618,,,,,right,1,0.5338,0,17,17,24,1,1,2,1 | 2,1,1.9756,1.4111,incongruent,right,,,,,,stimulusFile/magnitude.xlsx,,,,,,,,,,,,,,,,,,,,,,,,,,,,,,,
,,,,,,,,,,,,,,,8158,2022-02-23_21h59.07.478,multiplicationStroop,2021.2.3,Win32,59.38947618,,,,,right,1,0.501,0,18,18,16,1,1,6,1 | 6,5,1.4111,1.9756,congruent,right,,,,,,stimulusFile/magnitude.xlsx,,,,,,,,,,,,,,,,,,,,,,,,,,,,,,,
,,,,,,,,,,,,,,,8158,2022-02-23_21h59.07.478,multiplicationStroop,2021.2.3,Win32,59.38947618,,,,,left,1,0.4688,0,19,19,28,1,2,1,2 | 1,1,1.4111,1.9756,incongruent,left,,,,,,stimulusFile/magnitude.xlsx,,,,,,,,,,,,,,,,,,,,,,,,,,,,,,,
,,,,,,,,,,,,,,,8158,2022-02-23_21h59.07.478,multiplicationStroop,2021.2.3,Win32,59.38947618,,,,,left,1,0.5438,0,20,20,54,1,7,6,7 | 6,1,1.6933,1.6933,neutral,left,,,,,,stimulusFile/magnitude.xlsx,,,,,,,,,,,,,,,,,,,,,,,,,,,,,,,
,,,,,,,,,,,,,,,8158,2022-02-23_21h59.07.478,multiplicationStroop,2021.2.3,Win32,59.38947618,,,,,right,1,0.5342,0,21,21,9,1,2,4,2 | 4,2,1.4111,1.9756,congruent,right,,,,,,stimulusFile/magnitude.xlsx,,,,,,,,,,,,,,,,,,,,,,,,,,,,,,,
,,,,,,,,,,,,,,,8158,2022-02-23_21h59.07.478,multiplicationStroop,2021.2.3,Win32,59.38947618,,,,,left,0,0.5518,0,22,22,26,1,6,7,6 | 7,1,1.9756,1.4111,incongruent,right,,,,,,stimulusFile/magnitude.xlsx,,,,,,,,,,,,,,,,,,,,,,,,,,,,,,,
,,,,,,,,,,,,,,,8158,2022-02-23_21h59.07.478,multiplicationStroop,2021.2.3,Win32,59.38947618,,,,,left,1,0.7683,0,23,23,31,1,9,8,9 | 8,1,1.4111,1.9756,incongruent,left,,,,,,stimulusFile/magnitude.xlsx,,,,,,,,,,,,,,,,,,,,,,,,,,,,,,,
,,,,,,,,,,,,,,,8158,2022-02-23_21h59.07.478,multiplicationStroop,2021.2.3,Win32,59.38947618,,,,,left,0,0.6032,0,24,24,51,1,8,9,8 | 9,1,1.6933,1.6933,neutral,right,,,,,,stimulusFile/magnitude.xlsx,,,,,,,,,,,,,,,,,,,,,,,,,,,,,,,
,,,,,,,,,,,,,,,8158,2022-02-23_21h59.07.478,multiplicationStroop,2021.2.3,Win32,59.38947618,,,,,right,1,0.6021,0,25,25,48,1,1,2,1 | 2,1,1.6933,1.6933,neutral,right,,,,,,stimulusFile/magnitude.xlsx,,,,,,,,,,,,,,,,,,,,,,,,,,,,,,,
,,,,,,,,,,,,,,,8158,2022-02-23_21h59.07.478,multiplicationStroop,2021.2.3,Win32,59.38947618,,,,,left,1,0.568,0,26,26,60,1,3,1,3 | 1,2,1.6933,1.6933,neutral,left,,,,,,stimulusFile/magnitude.xlsx,,,,,,,,,,,,,,,,,,,,,,,,,,,,,,,
,,,,,,,,,,,,,,,8158,2022-02-23_21h59.07.478,multiplicationStroop,2021.2.3,Win32,59.38947618,,,,,left,1,0.5852,0,27,27,12,1,3,1,3 | 1,2,1.9756,1.4111,congruent,left,,,,,,stimulusFile/magnitude.xlsx,,,,,,,,,,,,,,,,,,,,,,,,,,,,,,,
,,,,,,,,,,,,,,,8158,2022-02-23_21h59.07.478,multiplicationStroop,2021.2.3,Win32,59.38947618,,,,,left,1,0.5363,0,28,28,70,1,8,3,8 | 3,5,1.6933,1.6933,neutral,left,,,,,,stimulusFile/magnitude.xlsx,,,,,,,,,,,,,,,,,,,,,,,,,,,,,,,
,,,,,,,,,,,,,,,8158,2022-02-23_21h59.07.478,multiplicationStroop,2021.2.3,Win32,59.38947618,,,,,right,1,0.5349,0,29,29,42,1,3,8,3 | 8,5,1.9756,1.4111,incongruent,right,,,,,,stimulusFile/magnitude.xlsx,,,,,,,,,,,,,,,,,,,,,,,,,,,,,,,
,,,,,,,,,,,,,,,8158,2022-02-23_21h59.07.478,multiplicationStroop,2021.2.3,Win32,59.38947618,,,,,left,1,0.5681,0,30,30,71,1,9,4,9 | 4,5,1.6933,1.6933,neutral,left,,,,,,stimulusFile/magnitude.xlsx,,,,,,,,,,,,,,,,,,,,,,,,,,,,,,,
,,,,,,,,,,,,,,,8158,2022-02-23_21h59.07.478,multiplicationStroop,2021.2.3,Win32,59.38947618,,,,,right,1,0.5419,0,31,31,40,1,1,6,1 | 6,5,1.9756,1.4111,incongruent,right,,,,,,stimulusFile/magnitude.xlsx,,,,,,,,,,,,,,,,,,,,,,,,,,,,,,,
,,,,,,,,,,,,,,,8158,2022-02-23_21h59.07.478,multiplicationStroop,2021.2.3,Win32,59.38947618,,,,,right,1,0.6183,0,32,32,17,1,2,7,2 | 7,5,1.4111,1.9756,congruent,right,,,,,,stimulusFile/magnitude.xlsx,,,,,,,,,,,,,,,,,,,,,,,,,,,,,,,
,,,,,,,,,,,,,,,8158,2022-02-23_21h59.07.478,multiplicationStroop,2021.2.3,Win32,59.38947618,,,,,left,1,0.5411,0,33,33,7,1,9,8,9 | 8,1,1.9756,1.4111,congruent,left,,,,,,stimulusFile/magnitude.xlsx,,,,,,,,,,,,,,,,,,,,,,,,,,,,,,,
,,,,,,,,,,,,,,,8158,2022-02-23_21h59.07.478,multiplicationStroop,2021.2.3,Win32,59.38947618,,,,,right,1,0.6019,0,34,34,43,1,4,9,4 | 9,5,1.9756,1.4111,incongruent,right,,,,,,stimulusFile/magnitude.xlsx,,,,,,,,,,,,,,,,,,,,,,,,,,,,,,,
,,,,,,,,,,,,,,,8158,2022-02-23_21h59.07.478,multiplicationStroop,2021.2.3,Win32,59.38947618,,,,,right,1,0.5745,0,35,35,35,1,7,9,7 | 9,2,1.9756,1.4111,incongruent,right,,,,,,stimulusFile/magnitude.xlsx,,,,,,,,,,,,,,,,,,,,,,,,,,,,,,,
,,,,,,,,,,,,,,,8158,2022-02-23_21h59.07.478,multiplicationStroop,2021.2.3,Win32,59.38947618,,,,,right,1,1.2896,0,36,36,8,1,1,3,1 | 3,2,1.4111,1.9756,congruent,right,,,,,,stimulusFile/magnitude.xlsx,,,,,,,,,,,,,,,,,,,,,,,,,,,,,,,
,,,,,,,,,,,,,,,8158,2022-02-23_21h59.07.478,multiplicationStroop,2021.2.3,Win32,59.38947618,,,,,left,1,1.2439,0,37,37,46,1,8,3,8 | 3,5,1.4111,1.9756,incongruent,left,,,,,,stimulusFile/magnitude.xlsx,,,,,,,,,,,,,,,,,,,,,,,,,,,,,,,
,,,,,,,,,,,,,,,8158,2022-02-23_21h59.07.478,multiplicationStroop,2021.2.3,Win32,59.38947618,,,,,left,1,0.8039,0,38,38,6,1,7,6,7 | 6,1,1.9756,1.4111,congruent,left,,,,,,stimulusFile/magnitude.xlsx,,,,,,,,,,,,,,,,,,,,,,,,,,,,,,,
,,,,,,,,,,,,,,,8158,2022-02-23_21h59.07.478,multiplicationStroop,2021.2.3,Win32,59.38947618,,,,,left,1,0.6015,0,39,39,20,1,6,1,6 | 1,5,1.9756,1.4111,congruent,left,,,,,,stimulusFile/magnitude.xlsx,,,,,,,,,,,,,,,,,,,,,,,,,,,,,,,
,,,,,,,,,,,,,,,8158,2022-02-23_21h59.07.478,multiplicationStroop,2021.2.3,Win32,59.38947618,,,,,right,1,0.5381,0,40,40,57,1,2,4,2 | 4,2,1.6933,1.6933,neutral,right,,,,,,stimulusFile/magnitude.xlsx,,,,,,,,,,,,,,,,,,,,,,,,,,,,,,,
,,,,,,,,,,,,,,,8158,2022-02-23_21h59.07.478,multiplicationStroop,2021.2.3,Win32,59.38947618,,,,,left,1,0.4593,0,41,41,37,1,4,2,4 | 2,2,1.4111,1.9756,incongruent,left,,,,,,stimulusFile/magnitude.xlsx,,,,,,,,,,,,,,,,,,,,,,,,,,,,,,,
,,,,,,,,,,,,,,,8158,2022-02-23_21h59.07.478,multiplicationStroop,2021.2.3,Win32,59.38947618,,,,,left,1,0.5785,0,42,42,39,1,9,7,9 | 7,2,1.4111,1.9756,incongruent,left,,,,,,stimulusFile/magnitude.xlsx,,,,,,,,,,,,,,,,,,,,,,,,,,,,,,,
,,,,,,,,,,,,,,,8158,2022-02-23_21h59.07.478,multiplicationStroop,2021.2.3,Win32,59.38947618,,,,,right,1,0.6185,0,43,43,3,1,8,9,8 | 9,1,1.4111,1.9756,congruent,right,,,,,,stimulusFile/magnitude.xlsx,,,,,,,,,,,,,,,,,,,,,,,,,,,,,,,
,,,,,,,,,,,,,,,8158,2022-02-23_21h59.07.478,multiplicationStroop,2021.2.3,Win32,59.38947618,,,,,right,1,0.5208,0,44,44,64,1,1,6,1 | 6,5,1.6933,1.6933,neutral,right,,,,,,stimulusFile/magnitude.xlsx,,,,,,,,,,,,,,,,,,,,,,,,,,,,,,,
,,,,,,,,,,,,,,,8158,2022-02-23_21h59.07.478,multiplicationStroop,2021.2.3,Win32,59.38947618,,,,,left,1,0.419,0,45,45,44,1,6,1,6 | 1,5,1.4111,1.9756,incongruent,left,,,,,,stimulusFile/magnitude.xlsx,,,,,,,,,,,,,,,,,,,,,,,,,,,,,,,
,,,,,,,,,,,,,,,8158,2022-02-23_21h59.07.478,multiplicationStroop,2021.2.3,Win32,59.38947618,,,,,right,1,0.4709,0,46,46,19,1,4,9,4 | 9,5,1.4111,1.9756,congruent,right,,,,,,stimulusFile/magnitude.xlsx,,,,,,,,,,,,,,,,,,,,,,,,,,,,,,,
,,,,,,,,,,,,,,,8158,2022-02-23_21h59.07.478,multiplicationStroop,2021.2.3,Win32,59.38947618,,,,,left,1,0.6216,0,47,47,30,1,7,6,7 | 6,1,1.4111,1.9756,incongruent,left,,,,,,stimulusFile/magnitude.xlsx,,,,,,,,,,,,,,,,,,,,,,,,,,,,,,,
,,,,,,,,,,,,,,,8158,2022-02-23_21h59.07.478,multiplicationStroop,2021.2.3,Win32,59.38947618,,,,,right,1,0.6202,0,48,48,27,1,8,9,8 | 9,1,1.9756,1.4111,incongruent,right,,,,,,stimulusFile/magnitude.xlsx,,,,,,,,,,,,,,,,,,,,,,,,,,,,,,,
,,,,,,,,,,,,,,,8158,2022-02-23_21h59.07.478,multiplicationStroop,2021.2.3,Win32,59.38947618,,,,,right,1,0.4872,0,49,49,2,1,6,7,6 | 7,1,1.4111,1.9756,congruent,right,,,,,,stimulusFile/magnitude.xlsx,,,,,,,,,,,,,,,,,,,,,,,,,,,,,,,
,,,,,,,,,,,,,,,8158,2022-02-23_21h59.07.478,multiplicationStroop,2021.2.3,Win32,59.38947618,,,,,right,1,0.518,0,50,50,25,1,3,4,3 | 4,1,1.9756,1.4111,incongruent,right,,,,,,stimulusFile/magnitude.xlsx,,,,,,,,,,,,,,,,,,,,,,,,,,,,,,,
,,,,,,,,,,,,,,,8158,2022-02-23_21h59.07.478,multiplicationStroop,2021.2.3,Win32,59.38947618,,,,,left,1,0.495,0,51,51,68,1,6,1,6 | 1,5,1.6933,1.6933,neutral,left,,,,,,stimulusFile/magnitude.xlsx,,,,,,,,,,,,,,,,,,,,,,,,,,,,,,,
,,,,,,,,,,,,,,,8158,2022-02-23_21h59.07.478,multiplicationStroop,2021.2.3,Win32,59.38947618,,,,,right,1,0.5035,0,52,52,11,1,7,9,7 | 9,2,1.4111,1.9756,congruent,right,,,,,,stimulusFile/magnitude.xlsx,,,,,,,,,,,,,,,,,,,,,,,,,,,,,,,
,,,,,,,,,,,,,,,8158,2022-02-23_21h59.07.478,multiplicationStroop,2021.2.3,Win32,59.38947618,,,,,right,1,0.5303,0,53,53,18,1,3,8,3 | 8,5,1.4111,1.9756,congruent,right,,,,,,stimulusFile/magnitude.xlsx,,,,,,,,,,,,,,,,,,,,,,,,,,,,,,,
,,,,,,,,,,,,,,,8158,2022-02-23_21h59.07.478,multiplicationStroop,2021.2.3,Win32,59.38947618,,,,,right,1,0.6093,0,54,54,67,1,4,9,4 | 9,5,1.6933,1.6933,neutral,right,,,,,,stimulusFile/magnitude.xlsx,,,,,,,,,,,,,,,,,,,,,,,,,,,,,,,
,,,,,,,,,,,,,,,8158,2022-02-23_21h59.07.478,multiplicationStroop,2021.2.3,Win32,59.38947618,,,,,left,1,0.5963,0,55,55,4,1,2,1,2 | 1,1,1.9756,1.4111,congruent,left,,,,,,stimulusFile/magnitude.xlsx,,,,,,,,,,,,,,,,,,,,,,,,,,,,,,,
,,,,,,,,,,,,,,,8158,2022-02-23_21h59.07.478,multiplicationStroop,2021.2.3,Win32,59.38947618,,,,,left,1,0.7123,0,56,56,45,1,7,2,7 | 2,5,1.4111,1.9756,incongruent,left,,,,,,stimulusFile/magnitude.xlsx,,,,,,,,,,,,,,,,,,,,,,,,,,,,,,,
,,,,,,,,,,,,,,,8158,2022-02-23_21h59.07.478,multiplicationStroop,2021.2.3,Win32,59.38947618,,,,,left,1,0.4798,0,57,57,55,1,9,8,9 | 8,1,1.6933,1.6933,neutral,left,,,,,,stimulusFile/magnitude.xlsx,,,,,,,,,,,,,,,,,,,,,,,,,,,,,,,
,,,,,,,,,,,,,,,8158,2022-02-23_21h59.07.478,multiplicationStroop,2021.2.3,Win32,59.38947618,,,,,left,1,0.5759,0,58,58,15,1,9,7,9 | 7,2,1.9756,1.4111,congruent,left,,,,,,stimulusFile/magnitude.xlsx,,,,,,,,,,,,,,,,,,,,,,,,,,,,,,,
,,,,,,,,,,,,,,,8158,2022-02-23_21h59.07.478,multiplicationStroop,2021.2.3,Win32,59.38947618,,,,,right,1,0.584,0,59,59,1,1,3,4,3 | 4,1,1.4111,1.9756,congruent,right,,,,,,stimulusFile/magnitude.xlsx,,,,,,,,,,,,,,,,,,,,,,,,,,,,,,,
,,,,,,,,,,,,,,,8158,2022-02-23_21h59.07.478,multiplicationStroop,2021.2.3,Win32,59.38947618,,,,,left,1,0.4405,0,60,60,21,1,7,2,7 | 2,5,1.9756,1.4111,congruent,left,,,,,,stimulusFile/magnitude.xlsx,,,,,,,,,,,,,,,,,,,,,,,,,,,,,,,
,,,,,,,,,,,,,,,8158,2022-02-23_21h59.07.478,multiplicationStroop,2021.2.3,Win32,59.38947618,,,,,left,1,0.4227,0,61,61,22,1,8,3,8 | 3,5,1.9756,1.4111,congruent,left,,,,,,stimulusFile/magnitude.xlsx,,,,,,,,,,,,,,,,,,,,,,,,,,,,,,,
,,,,,,,,,,,,,,,8158,2022-02-23_21h59.07.478,multiplicationStroop,2021.2.3,Win32,59.38947618,,,,,left,1,0.483,0,62,62,52,1,2,1,2 | 1,1,1.6933,1.6933,neutral,left,,,,,,stimulusFile/magnitude.xlsx,,,,,,,,,,,,,,,,,,,,,,,,,,,,,,,
,,,,,,,,,,,,,,,8158,2022-02-23_21h59.07.478,multiplicationStroop,2021.2.3,Win32,59.38947618,,,,,right,1,0.4486,0,63,63,32,1,1,3,1 | 3,2,1.9756,1.4111,incongruent,right,,,,,,stimulusFile/magnitude.xlsx,,,,,,,,,,,,,,,,,,,,,,,,,,,,,,,
,,,,,,,,,,,,,,,8158,2022-02-23_21h59.07.478,multiplicationStroop,2021.2.3,Win32,59.38947618,,,,,right,1,0.4201,0,64,64,56,1,1,3,1 | 3,2,1.6933,1.6933,neutral,right,,,,,,stimulusFile/magnitude.xlsx,,,,,,,,,,,,,,,,,,,,,,,,,,,,,,,
,,,,,,,,,,,,,,,8158,2022-02-23_21h59.07.478,multiplicationStroop,2021.2.3,Win32,59.38947618,,,,,right,1,0.592,0,65,65,33,1,2,4,2 | 4,2,1.9756,1.4111,incongruent,right,,,,,,stimulusFile/magnitude.xlsx,,,,,,,,,,,,,,,,,,,,,,,,,,,,,,,
,,,,,,,,,,,,,,,8158,2022-02-23_21h59.07.478,multiplicationStroop,2021.2.3,Win32,59.38947618,,,,,left,1,0.5732,0,66,66,29,1,4,3,4 | 3,1,1.4111,1.9756,incongruent,left,,,,,,stimulusFile/magnitude.xlsx,,,,,,,,,,,,,,,,,,,,,,,,,,,,,,,
,,,,,,,,,,,,,,,8158,2022-02-23_21h59.07.478,multiplicationStroop,2021.2.3,Win32,59.38947618,,,,,left,1,0.5639,0,67,67,5,1,4,3,4 | 3,1,1.9756,1.4111,congruent,left,,,,,,stimulusFile/magnitude.xlsx,,,,,,,,,,,,,,,,,,,,,,,,,,,,,,,
,,,,,,,,,,,,,,,8158,2022-02-23_21h59.07.478,multiplicationStroop,2021.2.3,Win32,59.38947618,,,,,right,1,0.5956,0,68,68,59,1,7,9,7 | 9,2,1.6933,1.6933,neutral,right,,,,,,stimulusFile/magnitude.xlsx,,,,,,,,,,,,,,,,,,,,,,,,,,,,,,,
,,,,,,,,,,,,,,,8158,2022-02-23_21h59.07.478,multiplicationStroop,2021.2.3,Win32,59.38947618,,,,,left,1,0.4495,0,69,69,63,1,9,7,9 | 7,2,1.6933,1.6933,neutral,left,,,,,,stimulusFile/magnitude.xlsx,,,,,,,,,,,,,,,,,,,,,,,,,,,,,,,
,,,,,,,,,,,,,,,8158,2022-02-23_21h59.07.478,multiplicationStroop,2021.2.3,Win32,59.38947618,,,,,right,1,0.4215,0,70,70,0,1,1,2,1 | 2,1,1.4111,1.9756,congruent,right,,,,,,stimulusFile/magnitude.xlsx,,,,,,,,,,,,,,,,,,,,,,,,,,,,,,,
,,,,,,,,,,,,,,,8158,2022-02-23_21h59.07.478,multiplicationStroop,2021.2.3,Win32,59.38947618,,,,,right,1,0.4847,0,71,71,65,1,2,7,2 | 7,5,1.6933,1.6933,neutral,right,,,,,,stimulusFile/magnitude.xlsx,,,,,,,,,,,,,,,,,,,,,,,,,,,,,,,
,,,,,,,,,,,,,,,8158,2022-02-23_21h59.07.478,multiplicationStroop,2021.2.3,Win32,59.38947618,,,,,,,,,,,,,,,,,,,,,0,0,0,0,1,stimulusFile/magnitude.xlsx,NUMERICALLY larger (larger coefficient).,images/numericallyLarger.png,,,,,,,,,,,,,,,,,,,,,,,,,,,,,
,,,,,,,,,,,,,,,8158,2022-02-23_21h59.07.478,multiplicationStroop,2021.2.3,Win32,59.38947618,space,7.0195,space,1.3238,left,0,1.0389,0,0,0,66,1,3,3,3 | 3,0,1.9756,1.4111,neutral,right,,,,,,stimulusFile/physical.xlsx,,,,,,,,,,,,,,,,,,,,,,,,,,,,,,,
,,,,,,,,,,,,,,,8158,2022-02-23_21h59.07.478,multiplicationStroop,2021.2.3,Win32,59.38947618,,,,,left,1,0.4845,0,1,1,14,1,8,6,8 | 6,2,1.9756,1.4111,congruent,left,,,,,,stimulusFile/physical.xlsx,,,,,,,,,,,,,,,,,,,,,,,,,,,,,,,
,,,,,,,,,,,,,,,8158,2022-02-23_21h59.07.478,multiplicationStroop,2021.2.3,Win32,59.38947618,,,,,left,1,0.536,0,2,2,55,1,9,9,9 | 9,0,1.9756,1.4111,neutral,left,,,,,,stimulusFile/physical.xlsx,,,,,,,,,,,,,,,,,,,,,,,,,,,,,,,
,,,,,,,,,,,,,,,8158,2022-02-23_21h59.07.478,multiplicationStroop,2021.2.3,Win32,59.38947618,,,,,left,1,0.4844,0,3,3,4,1,2,1,2 | 1,1,1.9756,1.4111,congruent,left,,,,,,stimulusFile/physical.xlsx,,,,,,,,,,,,,,,,,,,,,,,,,,,,,,,
,,,,,,,,,,,,,,,8158,2022-02-23_21h59.07.478,multiplicationStroop,2021.2.3,Win32,59.38947618,,,,,right,1,0.4723,0,4,4,61,1,4,4,4 | 4,0,1.4111,1.9756,neutral,right,,,,,,stimulusFile/physical.xlsx,,,,,,,,,,,,,,,,,,,,,,,,,,,,,,,
,,,,,,,,,,,,,,,8158,2022-02-23_21h59.07.478,multiplicationStroop,2021.2.3,Win32,59.38947618,,,,,left,0,0.5846,0,5,5,28,1,2,1,2 | 1,1,1.4111,1.9756,incongruent,right,,,,,,stimulusFile/physical.xlsx,,,,,,,,,,,,,,,,,,,,,,,,,,,,,,,
,,,,,,,,,,,,,,,8158,2022-02-23_21h59.07.478,multiplicationStroop,2021.2.3,Win32,59.38947618,,,,,right,1,0.6513,0,6,6,58,1,6,6,6 | 6,0,1.4111,1.9756,neutral,right,,,,,,stimulusFile/physical.xlsx,,,,,,,,,,,,,,,,,,,,,,,,,,,,,,,
,,,,,,,,,,,,,,,8158,2022-02-23_21h59.07.478,multiplicationStroop,2021.2.3,Win32,59.38947618,,,,,right,1,0.7341,0,7,7,45,1,7,2,7 | 2,5,1.4111,1.9756,incongruent,right,,,,,,stimulusFile/physical.xlsx,,,,,,,,,,,,,,,,,,,,,,,,,,,,,,,
,,,,,,,,,,,,,,,8158,2022-02-23_21h59.07.478,multiplicationStroop,2021.2.3,Win32,59.38947618,,,,,left,1,0.4701,0,8,8,70,1,8,8,8 | 8,0,1.9756,1.4111,neutral,left,,,,,,stimulusFile/physical.xlsx,,,,,,,,,,,,,,,,,,,,,,,,,,,,,,,
,,,,,,,,,,,,,,,8158,2022-02-23_21h59.07.478,multiplicationStroop,2021.2.3,Win32,59.38947618,,,,,left,0,0.5014,0,9,9,64,1,1,1,1 | 1,0,1.9756,1.4111,neutral,right,,,,,,stimulusFile/physical.xlsx,,,,,,,,,,,,,,,,,,,,,,,,,,,,,,,
,,,,,,,,,,,,,,,8158,2022-02-23_21h59.07.478,multiplicationStroop,2021.2.3,Win32,59.38947618,,,,,right,1,0.4438,0,10,10,1,1,3,4,3 | 4,1,1.4111,1.9756,congruent,right,,,,,,stimulusFile/physical.xlsx,,,,,,,,,,,,,,,,,,,,,,,,,,,,,,,
,,,,,,,,,,,,,,,8158,2022-02-23_21h59.07.478,multiplicationStroop,2021.2.3,Win32,59.38947618,,,,,right,1,0.5397,0,11,11,60,1,3,3,3 | 3,0,1.4111,1.9756,neutral,right,,,,,,stimulusFile/physical.xlsx,,,,,,,,,,,,,,,,,,,,,,,,,,,,,,,
,,,,,,,,,,,,,,,8158,2022-02-23_21h59.07.478,multiplicationStroop,2021.2.3,Win32,59.38947618,,,,,left,1,0.4538,0,12,12,15,1,9,7,9 | 7,2,1.9756,1.4111,congruent,left,,,,,,stimulusFile/physical.xlsx,,,,,,,,,,,,,,,,,,,,,,,,,,,,,,,
,,,,,,,,,,,,,,,8158,2022-02-23_21h59.07.478,multiplicationStroop,2021.2.3,Win32,59.38947618,,,,,right,1,0.6008,0,13,13,47,1,9,4,9 | 4,5,1.4111,1.9756,incongruent,right,,,,,,stimulusFile/physical.xlsx,,,,,,,,,,,,,,,,,,,,,,,,,,,,,,,
,,,,,,,,,,,,,,,8158,2022-02-23_21h59.07.478,multiplicationStroop,2021.2.3,Win32,59.38947618,,,,,left,1,0.4603,0,14,14,21,1,7,2,7 | 2,5,1.9756,1.4111,congruent,left,,,,,,stimulusFile/physical.xlsx,,,,,,,,,,,,,,,,,,,,,,,,,,,,,,,
,,,,,,,,,,,,,,,8158,2022-02-23_21h59.07.478,multiplicationStroop,2021.2.3,Win32,59.38947618,,,,,right,1,0.4409,0,15,15,65,1,2,2,2 | 2,0,1.4111,1.9756,neutral,right,,,,,,stimulusFile/physical.xlsx,,,,,,,,,,,,,,,,,,,,,,,,,,,,,,,
,,,,,,,,,,,,,,,8158,2022-02-23_21h59.07.478,multiplicationStroop,2021.2.3,Win32,59.38947618,,,,,left,1,0.4684,0,16,16,7,1,9,8,9 | 8,1,1.9756,1.4111,congruent,left,,,,,,stimulusFile/physical.xlsx,,,,,,,,,,,,,,,,,,,,,,,,,,,,,,,
,,,,,,,,,,,,,,,8158,2022-02-23_21h59.07.478,multiplicationStroop,2021.2.3,Win32,59.38947618,,,,,left,1,0.4175,0,17,17,52,1,2,2,2 | 2,0,1.9756,1.4111,neutral,left,,,,,,stimulusFile/physical.xlsx,,,,,,,,,,,,,,,,,,,,,,,,,,,,,,,
,,,,,,,,,,,,,,,8158,2022-02-23_21h59.07.478,multiplicationStroop,2021.2.3,Win32,59.38947618,,,,,right,1,0.4603,0,18,18,9,1,2,4,2 | 4,2,1.4111,1.9756,congruent,right,,,,,,stimulusFile/physical.xlsx,,,,,,,,,,,,,,,,,,,,,,,,,,,,,,,
,,,,,,,,,,,,,,,8158,2022-02-23_21h59.07.478,multiplicationStroop,2021.2.3,Win32,59.38947618,,,,,left,1,0.3793,0,19,19,23,1,9,4,9 | 4,5,1.9756,1.4111,congruent,left,,,,,,stimulusFile/physical.xlsx,,,,,,,,,,,,,,,,,,,,,,,,,,,,,,,
,,,,,,,,,,,,,,,8158,2022-02-23_21h59.07.478,multiplicationStroop,2021.2.3,Win32,59.38947618,,,,,right,1,0.4388,0,20,20,18,1,3,8,3 | 8,5,1.4111,1.9756,congruent,right,,,,,,stimulusFile/physical.xlsx,,,,,,,,,,,,,,,,,,,,,,,,,,,,,,,
,,,,,,,,,,,,,,,8158,2022-02-23_21h59.07.478,multiplicationStroop,2021.2.3,Win32,59.38947618,,,,,left,1,0.4103,0,21,21,25,1,3,4,3 | 4,1,1.9756,1.4111,incongruent,left,,,,,,stimulusFile/physical.xlsx,,,,,,,,,,,,,,,,,,,,,,,,,,,,,,,
,,,,,,,,,,,,,,,8158,2022-02-23_21h59.07.478,multiplicationStroop,2021.2.3,Win32,59.38947618,,,,,left,1,0.4298,0,22,22,42,1,3,8,3 | 8,5,1.9756,1.4111,incongruent,left,,,,,,stimulusFile/physical.xlsx,,,,,,,,,,,,,,,,,,,,,,,,,,,,,,,
,,,,,,,,,,,,,,,8158,2022-02-23_21h59.07.478,multiplicationStroop,2021.2.3,Win32,59.38947618,,,,,right,1,0.4106,0,23,23,67,1,4,4,4 | 4,0,1.4111,1.9756,neutral,right,,,,,,stimulusFile/physical.xlsx,,,,,,,,,,,,,,,,,,,,,,,,,,,,,,,
,,,,,,,,,,,,,,,8158,2022-02-23_21h59.07.478,multiplicationStroop,2021.2.3,Win32,59.38947618,,,,,left,1,0.3768,0,24,24,54,1,7,7,7 | 7,0,1.9756,1.4111,neutral,left,,,,,,stimulusFile/physical.xlsx,,,,,,,,,,,,,,,,,,,,,,,,,,,,,,,
,,,,,,,,,,,,,,,8158,2022-02-23_21h59.07.478,multiplicationStroop,2021.2.3,Win32,59.38947618,,,,,left,1,0.5335,0,25,25,33,1,2,4,2 | 4,2,1.9756,1.4111,incongruent,left,,,,,,stimulusFile/physical.xlsx,,,,,,,,,,,,,,,,,,,,,,,,,,,,,,,
,,,,,,,,,,,,,,,8158,2022-02-23_21h59.07.478,multiplicationStroop,2021.2.3,Win32,59.38947618,,,,,right,1,0.3859,0,26,26,2,1,6,7,6 | 7,1,1.4111,1.9756,congruent,right,,,,,,stimulusFile/physical.xlsx,,,,,,,,,,,,,,,,,,,,,,,,,,,,,,,
,,,,,,,,,,,,,,,8158,2022-02-23_21h59.07.478,multiplicationStroop,2021.2.3,Win32,59.38947618,,,,,left,1,0.3875,0,27,27,5,1,4,3,4 | 3,1,1.9756,1.4111,congruent,left,,,,,,stimulusFile/physical.xlsx,,,,,,,,,,,,,,,,,,,,,,,,,,,,,,,
,,,,,,,,,,,,,,,8158,2022-02-23_21h59.07.478,multiplicationStroop,2021.2.3,Win32,59.38947618,,,,,left,1,0.4018,0,28,28,50,1,6,6,6 | 6,0,1.9756,1.4111,neutral,left,,,,,,stimulusFile/physical.xlsx,,,,,,,,,,,,,,,,,,,,,,,,,,,,,,,
,,,,,,,,,,,,,,,8158,2022-02-23_21h59.07.478,multiplicationStroop,2021.2.3,Win32,59.38947618,,,,,left,1,0.5218,0,29,29,48,1,1,1,1 | 1,0,1.9756,1.4111,neutral,left,,,,,,stimulusFile/physical.xlsx,,,,,,,,,,,,,,,,,,,,,,,,,,,,,,,
,,,,,,,,,,,,,,,8158,2022-02-23_21h59.07.478,multiplicationStroop,2021.2.3,Win32,59.38947618,,,,,left,1,0.5066,0,30,30,27,1,8,9,8 | 9,1,1.9756,1.4111,incongruent,left,,,,,,stimulusFile/physical.xlsx,,,,,,,,,,,,,,,,,,,,,,,,,,,,,,,
,,,,,,,,,,,,,,,8158,2022-02-23_21h59.07.478,multiplicationStroop,2021.2.3,Win32,59.38947618,,,,,right,1,0.5081,0,31,31,29,1,4,3,4 | 3,1,1.4111,1.9756,incongruent,right,,,,,,stimulusFile/physical.xlsx,,,,,,,,,,,,,,,,,,,,,,,,,,,,,,,
,,,,,,,,,,,,,,,8158,2022-02-23_21h59.07.478,multiplicationStroop,2021.2.3,Win32,59.38947618,,,,,right,1,0.5838,0,32,32,38,1,8,6,8 | 6,2,1.4111,1.9756,incongruent,right,,,,,,stimulusFile/physical.xlsx,,,,,,,,,,,,,,,,,,,,,,,,,,,,,,,
,,,,,,,,,,,,,,,8158,2022-02-23_21h59.07.478,multiplicationStroop,2021.2.3,Win32,59.38947618,,,,,left,1,0.4198,0,33,33,6,1,7,6,7 | 6,1,1.9756,1.4111,congruent,left,,,,,,stimulusFile/physical.xlsx,,,,,,,,,,,,,,,,,,,,,,,,,,,,,,,
,,,,,,,,,,,,,,,8158,2022-02-23_21h59.07.478,multiplicationStroop,2021.2.3,Win32,59.38947618,,,,,right,1,0.7012,0,34,34,56,1,1,1,1 | 1,0,1.4111,1.9756,neutral,right,,,,,,stimulusFile/physical.xlsx,,,,,,,,,,,,,,,,,,,,,,,,,,,,,,,
,,,,,,,,,,,,,,,8158,2022-02-23_21h59.07.478,multiplicationStroop,2021.2.3,Win32,59.38947618,,,,,left,1,0.5096,0,35,35,40,1,1,6,1 | 6,5,1.9756,1.4111,incongruent,left,,,,,,stimulusFile/physical.xlsx,,,,,,,,,,,,,,,,,,,,,,,,,,,,,,,
,,,,,,,,,,,,,,,8158,2022-02-23_21h59.07.478,multiplicationStroop,2021.2.3,Win32,59.38947618,,,,,left,1,0.4688,0,36,36,22,1,8,3,8 | 3,5,1.9756,1.4111,congruent,left,,,,,,stimulusFile/physical.xlsx,,,,,,,,,,,,,,,,,,,,,,,,,,,,,,,
,,,,,,,,,,,,,,,8158,2022-02-23_21h59.07.478,multiplicationStroop,2021.2.3,Win32,59.38947618,,,,,right,1,0.4225,0,37,37,63,1,9,9,9 | 9,0,1.4111,1.9756,neutral,right,,,,,,stimulusFile/physical.xlsx,,,,,,,,,,,,,,,,,,,,,,,,,,,,,,,
,,,,,,,,,,,,,,,8158,2022-02-23_21h59.07.478,multiplicationStroop,2021.2.3,Win32,59.38947618,,,,,left,1,0.5546,0,38,38,35,1,7,9,7 | 9,2,1.9756,1.4111,incongruent,left,,,,,,stimulusFile/physical.xlsx,,,,,,,,,,,,,,,,,,,,,,,,,,,,,,,
,,,,,,,,,,,,,,,8158,2022-02-23_21h59.07.478,multiplicationStroop,2021.2.3,Win32,59.38947618,,,,,left,1,0.4922,0,39,39,12,1,3,1,3 | 1,2,1.9756,1.4111,congruent,left,,,,,,stimulusFile/physical.xlsx,,,,,,,,,,,,,,,,,,,,,,,,,,,,,,,
,,,,,,,,,,,,,,,8158,2022-02-23_21h59.07.478,multiplicationStroop,2021.2.3,Win32,59.38947618,,,,,right,1,0.4179,0,40,40,30,1,7,6,7 | 6,1,1.4111,1.9756,incongruent,right,,,,,,stimulusFile/physical.xlsx,,,,,,,,,,,,,,,,,,,,,,,,,,,,,,,
,,,,,,,,,,,,,,,8158,2022-02-23_21h59.07.478,multiplicationStroop,2021.2.3,Win32,59.38947618,,,,,left,1,0.4034,0,41,41,26,1,6,7,6 | 7,1,1.9756,1.4111,incongruent,left,,,,,,stimulusFile/physical.xlsx,,,,,,,,,,,,,,,,,,,,,,,,,,,,,,,
,,,,,,,,,,,,,,,8158,2022-02-23_21h59.07.478,multiplicationStroop,2021.2.3,Win32,59.38947618,,,,,right,1,0.534,0,42,42,37,1,4,2,4 | 2,2,1.4111,1.9756,incongruent,right,,,,,,stimulusFile/physical.xlsx,,,,,,,,,,,,,,,,,,,,,,,,,,,,,,,
,,,,,,,,,,,,,,,8158,2022-02-23_21h59.07.478,multiplicationStroop,2021.2.3,Win32,59.38947618,,,,,right,1,0.5231,0,43,43,59,1,7,7,7 | 7,0,1.4111,1.9756,neutral,right,,,,,,stimulusFile/physical.xlsx,,,,,,,,,,,,,,,,,,,,,,,,,,,,,,,
,,,,,,,,,,,,,,,8158,2022-02-23_21h59.07.478,multiplicationStroop,2021.2.3,Win32,59.38947618,,,,,right,1,0.5217,0,44,44,46,1,8,3,8 | 3,5,1.4111,1.9756,incongruent,right,,,,,,stimulusFile/physical.xlsx,,,,,,,,,,,,,,,,,,,,,,,,,,,,,,,
,,,,,,,,,,,,,,,8158,2022-02-23_21h59.07.478,multiplicationStroop,2021.2.3,Win32,59.38947618,,,,,right,1,0.4511,0,45,45,3,1,8,9,8 | 9,1,1.4111,1.9756,congruent,right,,,,,,stimulusFile/physical.xlsx,,,,,,,,,,,,,,,,,,,,,,,,,,,,,,,
,,,,,,,,,,,,,,,8158,2022-02-23_21h59.07.478,multiplicationStroop,2021.2.3,Win32,59.38947618,,,,,right,1,0.5341,0,46,46,10,1,6,8,6 | 8,2,1.4111,1.9756,congruent,right,,,,,,stimulusFile/physical.xlsx,,,,,,,,,,,,,,,,,,,,,,,,,,,,,,,
,,,,,,,,,,,,,,,8158,2022-02-23_21h59.07.478,multiplicationStroop,2021.2.3,Win32,59.38947618,,,,,right,1,0.4789,0,47,47,19,1,4,9,4 | 9,5,1.4111,1.9756,congruent,right,,,,,,stimulusFile/physical.xlsx,,,,,,,,,,,,,,,,,,,,,,,,,,,,,,,
,,,,,,,,,,,,,,,8158,2022-02-23_21h59.07.478,multiplicationStroop,2021.2.3,Win32,59.38947618,,,,,right,1,0.4417,0,48,48,16,1,1,6,1 | 6,5,1.4111,1.9756,congruent,right,,,,,,stimulusFile/physical.xlsx,,,,,,,,,,,,,,,,,,,,,,,,,,,,,,,
,,,,,,,,,,,,,,,8158,2022-02-23_21h59.07.478,multiplicationStroop,2021.2.3,Win32,59.38947618,,,,,left,0,0.4237,0,49,49,44,1,6,1,6 | 1,5,1.4111,1.9756,incongruent,right,,,,,,stimulusFile/physical.xlsx,,,,,,,,,,,,,,,,,,,,,,,,,,,,,,,
,,,,,,,,,,,,,,,8158,2022-02-23_21h59.07.478,multiplicationStroop,2021.2.3,Win32,59.38947618,,,,,left,1,0.7516,0,50,50,34,1,6,8,6 | 8,2,1.9756,1.4111,incongruent,left,,,,,,stimulusFile/physical.xlsx,,,,,,,,,,,,,,,,,,,,,,,,,,,,,,,
,,,,,,,,,,,,,,,8158,2022-02-23_21h59.07.478,multiplicationStroop,2021.2.3,Win32,59.38947618,,,,,right,1,0.4557,0,51,51,11,1,7,9,7 | 9,2,1.4111,1.9756,congruent,right,,,,,,stimulusFile/physical.xlsx,,,,,,,,,,,,,,,,,,,,,,,,,,,,,,,
,,,,,,,,,,,,,,,8158,2022-02-23_21h59.07.478,multiplicationStroop,2021.2.3,Win32,59.38947618,,,,,left,1,0.434,0,52,52,53,1,4,4,4 | 4,0,1.9756,1.4111,neutral,left,,,,,,stimulusFile/physical.xlsx,,,,,,,,,,,,,,,,,,,,,,,,,,,,,,,
,,,,,,,,,,,,,,,8158,2022-02-23_21h59.07.478,multiplicationStroop,2021.2.3,Win32,59.38947618,,,,,left,1,0.5517,0,53,53,41,1,2,7,2 | 7,5,1.9756,1.4111,incongruent,left,,,,,,stimulusFile/physical.xlsx,,,,,,,,,,,,,,,,,,,,,,,,,,,,,,,
,,,,,,,,,,,,,,,8158,2022-02-23_21h59.07.478,multiplicationStroop,2021.2.3,Win32,59.38947618,,,,,right,1,0.457,0,54,54,57,1,2,2,2 | 2,0,1.4111,1.9756,neutral,right,,,,,,stimulusFile/physical.xlsx,,,,,,,,,,,,,,,,,,,,,,,,,,,,,,,
,,,,,,,,,,,,,,,8158,2022-02-23_21h59.07.478,multiplicationStroop,2021.2.3,Win32,59.38947618,,,,,left,1,0.4036,0,55,55,20,1,6,1,6 | 1,5,1.9756,1.4111,congruent,left,,,,,,stimulusFile/physical.xlsx,,,,,,,,,,,,,,,,,,,,,,,,,,,,,,,
,,,,,,,,,,,,,,,8158,2022-02-23_21h59.07.478,multiplicationStroop,2021.2.3,Win32,59.38947618,,,,,left,1,0.5178,0,56,56,51,1,8,8,8 | 8,0,1.9756,1.4111,neutral,left,,,,,,stimulusFile/physical.xlsx,,,,,,,,,,,,,,,,,,,,,,,,,,,,,,,
,,,,,,,,,,,,,,,8158,2022-02-23_21h59.07.478,multiplicationStroop,2021.2.3,Win32,59.38947618,,,,,right,0,0.3929,0,57,57,71,1,9,9,9 | 9,0,1.4111,1.9756,neutral,left,,,,,,stimulusFile/physical.xlsx,,,,,,,,,,,,,,,,,,,,,,,,,,,,,,,
,,,,,,,,,,,,,,,8158,2022-02-23_21h59.07.478,multiplicationStroop,2021.2.3,Win32,59.38947618,,,,,right,1,0.4016,0,58,58,0,1,1,2,1 | 2,1,1.4111,1.9756,congruent,right,,,,,,stimulusFile/physical.xlsx,,,,,,,,,,,,,,,,,,,,,,,,,,,,,,,
,,,,,,,,,,,,,,,8158,2022-02-23_21h59.07.478,multiplicationStroop,2021.2.3,Win32,59.38947618,,,,,left,1,0.4195,0,59,59,32,1,1,3,1 | 3,2,1.9756,1.4111,incongruent,left,,,,,,stimulusFile/physical.xlsx,,,,,,,,,,,,,,,,,,,,,,,,,,,,,,,
,,,,,,,,,,,,,,,8158,2022-02-23_21h59.07.478,multiplicationStroop,2021.2.3,Win32,59.38947618,,,,,right,0,0.5173,0,60,60,69,1,7,7,7 | 7,0,1.4111,1.9756,neutral,left,,,,,,stimulusFile/physical.xlsx,,,,,,,,,,,,,,,,,,,,,,,,,,,,,,,
,,,,,,,,,,,,,,,8158,2022-02-23_21h59.07.478,multiplicationStroop,2021.2.3,Win32,59.38947618,,,,,right,1,0.5578,0,61,61,8,1,1,3,1 | 3,2,1.4111,1.9756,congruent,right,,,,,,stimulusFile/physical.xlsx,,,,,,,,,,,,,,,,,,,,,,,,,,,,,,,
,,,,,,,,,,,,,,,8158,2022-02-23_21h59.07.478,multiplicationStroop,2021.2.3,Win32,59.38947618,,,,,right,1,0.6063,0,62,62,62,1,8,8,8 | 8,0,1.4111,1.9756,neutral,right,,,,,,stimulusFile/physical.xlsx,,,,,,,,,,,,,,,,,,,,,,,,,,,,,,,
,,,,,,,,,,,,,,,8158,2022-02-23_21h59.07.478,multiplicationStroop,2021.2.3,Win32,59.38947618,,,,,right,1,0.4521,0,63,63,17,1,2,7,2 | 7,5,1.4111,1.9756,congruent,right,,,,,,stimulusFile/physical.xlsx,,,,,,,,,,,,,,,,,,,,,,,,,,,,,,,
,,,,,,,,,,,,,,,8158,2022-02-23_21h59.07.478,multiplicationStroop,2021.2.3,Win32,59.38947618,,,,,left,1,0.4368,0,64,64,68,1,6,6,6 | 6,0,1.9756,1.4111,neutral,left,,,,,,stimulusFile/physical.xlsx,,,,,,,,,,,,,,,,,,,,,,,,,,,,,,,
,,,,,,,,,,,,,,,8158,2022-02-23_21h59.07.478,multiplicationStroop,2021.2.3,Win32,59.38947618,,,,,right,1,0.4515,0,65,65,31,1,9,8,9 | 8,1,1.4111,1.9756,incongruent,right,,,,,,stimulusFile/physical.xlsx,,,,,,,,,,,,,,,,,,,,,,,,,,,,,,,
,,,,,,,,,,,,,,,8158,2022-02-23_21h59.07.478,multiplicationStroop,2021.2.3,Win32,59.38947618,,,,,left,1,0.4597,0,66,66,24,1,1,2,1 | 2,1,1.9756,1.4111,incongruent,left,,,,,,stimulusFile/physical.xlsx,,,,,,,,,,,,,,,,,,,,,,,,,,,,,,,
,,,,,,,,,,,,,,,8158,2022-02-23_21h59.07.478,multiplicationStroop,2021.2.3,Win32,59.38947618,,,,,right,1,0.5506,0,67,67,36,1,3,1,3 | 1,2,1.4111,1.9756,incongruent,right,,,,,,stimulusFile/physical.xlsx,,,,,,,,,,,,,,,,,,,,,,,,,,,,,,,
,,,,,,,,,,,,,,,8158,2022-02-23_21h59.07.478,multiplicationStroop,2021.2.3,Win32,59.38947618,,,,,left,1,0.5266,0,68,68,49,1,3,3,3 | 3,0,1.9756,1.4111,neutral,left,,,,,,stimulusFile/physical.xlsx,,,,,,,,,,,,,,,,,,,,,,,,,,,,,,,
,,,,,,,,,,,,,,,8158,2022-02-23_21h59.07.478,multiplicationStroop,2021.2.3,Win32,59.38947618,,,,,right,1,0.4856,0,69,69,39,1,9,7,9 | 7,2,1.4111,1.9756,incongruent,right,,,,,,stimulusFile/physical.xlsx,,,,,,,,,,,,,,,,,,,,,,,,,,,,,,,
,,,,,,,,,,,,,,,8158,2022-02-23_21h59.07.478,multiplicationStroop,2021.2.3,Win32,59.38947618,,,,,left,1,0.4695,0,70,70,13,1,4,2,4 | 2,2,1.9756,1.4111,congruent,left,,,,,,stimulusFile/physical.xlsx,,,,,,,,,,,,,,,,,,,,,,,,,,,,,,,
,,,,,,,,,,,,,,,8158,2022-02-23_21h59.07.478,multiplicationStroop,2021.2.3,Win32,59.38947618,,,,,left,1,0.5016,0,71,71,43,1,4,9,4 | 9,5,1.9756,1.4111,incongruent,left,,,,,,stimulusFile/physical.xlsx,,,,,,,,,,,,,,,,,,,,,,,,,,,,,,,
,,,,,,,,,,,,,,,8158,2022-02-23_21h59.07.478,multiplicationStroop,2021.2.3,Win32,59.38947618,,,,,,,,,,,,,,,,,,,,,0,1,1,1,1,stimulusFile/physical.xlsx,PHYSICALLY larger (larger font size).,images/physicallyLarger.png,,,,,,,,,,,,,,,,,,,,,,,,,,,,,
,,,,,,,,,,,,,,,8158,2022-02-23_21h59.07.478,multiplicationStroop,2021.2.3,Win32,59.38947618,,,,,,,,,,,,,,,,,,,,,,,,,,,,,space,9.38,space,2.1091,30,3.3636,1,0,0,0,11,1,5,×,6,5 × 6,incongruent,smallerFirst,2,1,30,,,,,,,,
,,,,,,,,,,,,,,,8158,2022-02-23_21h59.07.478,multiplicationStroop,2021.2.3,Win32,59.38947618,,,,,,,,,,,,,,,,,,,,,,,,,,,,,,,,,35,1.9148,1,0,1,1,26,1,7,×,5,7 × 5,incongruent,largerFirst,1,2,35,,,,,,,,
,,,,,,,,,,,,,,,8158,2022-02-23_21h59.07.478,multiplicationStroop,2021.2.3,Win32,59.38947618,,,,,,,,,,,,,,,,,,,,,,,,,,,,,,,,,48,2.2651,1,0,2,2,15,1,8,×,6,8 × 6,incongruent,largerFirst,1,2,48,,,,,,,,
,,,,,,,,,,,,,,,8158,2022-02-23_21h59.07.478,multiplicationStroop,2021.2.3,Win32,59.38947618,,,,,,,,,,,,,,,,,,,,,,,,,,,,,,,,,49,2.8982,1,0,3,3,33,1,7,×,7,7 × 7,neutral,tie,2,1,49,,,,,,,,
,,,,,,,,,,,,,,,8158,2022-02-23_21h59.07.478,multiplicationStroop,2021.2.3,Win32,59.38947618,,,,,,,,,,,,,,,,,,,,,,,,,,,,,,,,,25,2.1169,1,0,4,4,31,1,5,×,5,5 × 5,neutral,tie,2,1,25,,,,,,,,
,,,,,,,,,,,,,,,8158,2022-02-23_21h59.07.478,multiplicationStroop,2021.2.3,Win32,59.38947618,,,,,,,,,,,,,,,,,,,,,,,,,,,,,,,,,36,2.0484,1,0,5,5,1,1,4,×,9,4 × 9,incongruent,smallerFirst,2,1,36,,,,,,,,
,,,,,,,,,,,,,,,8158,2022-02-23_21h59.07.478,multiplicationStroop,2021.2.3,Win32,59.38947618,,,,,,,,,,,,,,,,,,,,,,,,,,,,,,,,,81,1.9316,1,0,6,6,35,1,9,×,9,9 × 9,neutral,tie,2,1,81,,,,,,,,
,,,,,,,,,,,,,,,8158,2022-02-23_21h59.07.478,multiplicationStroop,2021.2.3,Win32,59.38947618,,,,,,,,,,,,,,,,,,,,,,,,,,,,,,,,,72,2.7984,1,0,7,7,14,1,9,×,8,9 × 8,incongruent,largerFirst,1,2,72,,,,,,,,
,,,,,,,,,,,,,,,8158,2022-02-23_21h59.07.478,multiplicationStroop,2021.2.3,Win32,59.38947618,,,,,,,,,,,,,,,,,,,,,,,,,,,,,,,,,43,3.2981,0,0,8,8,3,1,6,×,7,6 × 7,incongruent,smallerFirst,2,1,42,,,,,,,,
,,,,,,,,,,,,,,,8158,2022-02-23_21h59.07.478,multiplicationStroop,2021.2.3,Win32,59.38947618,,,,,,,,,,,,,,,,,,,,,,,,,,,,,,,,,28,3.7995,1,0,9,9,2,1,4,×,7,4 × 7,incongruent,smallerFirst,2,1,28,,,,,,,,
,,,,,,,,,,,,,,,8158,2022-02-23_21h59.07.478,multiplicationStroop,2021.2.3,Win32,59.38947618,,,,,,,,,,,,,,,,,,,,,,,,,,,,,,,,,10,1.8337,1,0,10,10,7,1,2,×,5,2 × 5,incongruent,smallerFirst,2,1,10,,,,,,,,
,,,,,,,,,,,,,,,8158,2022-02-23_21h59.07.478,multiplicationStroop,2021.2.3,Win32,59.38947618,,,,,,,,,,,,,,,,,,,,,,,,,,,,,,,,,14,1.6485,1,0,11,11,18,1,7,×,2,7 × 2,incongruent,largerFirst,1,2,14,,,,,,,,
,,,,,,,,,,,,,,,8158,2022-02-23_21h59.07.478,multiplicationStroop,2021.2.3,Win32,59.38947618,,,,,,,,,,,,,,,,,,,,,,,,,,,,,,,,,56,2.1322,1,0,12,12,0,1,7,×,8,7 × 8,incongruent,smallerFirst,2,1,56,,,,,,,,
,,,,,,,,,,,,,,,8158,2022-02-23_21h59.07.478,multiplicationStroop,2021.2.3,Win32,59.38947618,,,,,,,,,,,,,,,,,,,,,,,,,,,,,,,,,4,1.6651,1,0,13,13,28,1,2,×,2,2 × 2,neutral,tie,2,1,4,,,,,,,,
,,,,,,,,,,,,,,,8158,2022-02-23_21h59.07.478,multiplicationStroop,2021.2.3,Win32,59.38947618,,,,,,,,,,,,,,,,,,,,,,,,,,,,,,,,,21,1.7986,1,0,14,14,12,1,3,×,7,3 × 7,incongruent,smallerFirst,2,1,21,,,,,,,,
,,,,,,,,,,,,,,,8158,2022-02-23_21h59.07.478,multiplicationStroop,2021.2.3,Win32,59.38947618,,,,,,,,,,,,,,,,,,,,,,,,,,,,,,,,,24,1.7487,1,0,15,15,6,1,4,×,6,4 × 6,incongruent,smallerFirst,2,1,24,,,,,,,,
,,,,,,,,,,,,,,,8158,2022-02-23_21h59.07.478,multiplicationStroop,2021.2.3,Win32,59.38947618,,,,,,,,,,,,,,,,,,,,,,,,,,,,,,,,,15,2.1151,1,0,16,16,24,1,5,×,3,5 × 3,incongruent,largerFirst,1,2,15,,,,,,,,
,,,,,,,,,,,,,,,8158,2022-02-23_21h59.07.478,multiplicationStroop,2021.2.3,Win32,59.38947618,,,,,,,,,,,,,,,,,,,,,,,,,,,,,,,,,24,1.7151,1,0,17,17,23,1,8,×,3,8 × 3,incongruent,largerFirst,1,2,24,,,,,,,,
,,,,,,,,,,,,,,,8158,2022-02-23_21h59.07.478,multiplicationStroop,2021.2.3,Win32,59.38947618,,,,,,,,,,,,,,,,,,,,,,,,,,,,,,,,,12,2.5141,1,0,18,18,5,1,2,×,6,2 × 6,incongruent,smallerFirst,2,1,12,,,,,,,,
,,,,,,,,,,,,,,,8158,2022-02-23_21h59.07.478,multiplicationStroop,2021.2.3,Win32,59.38947618,,,,,,,,,,,,,,,,,,,,,,,,,,,,,,,,,54,3.2811,1,0,19,19,20,1,9,×,6,9 × 6,incongruent,largerFirst,1,2,54,,,,,,,,
,,,,,,,,,,,,,,,8158,2022-02-23_21h59.07.478,multiplicationStroop,2021.2.3,Win32,59.38947618,,,,,,,,,,,,,,,,,,,,,,,,,,,,,,,,,12,1.6492,1,0,20,20,19,1,4,×,3,4 × 3,incongruent,largerFirst,1,2,12,,,,,,,,
,,,,,,,,,,,,,,,8158,2022-02-23_21h59.07.478,multiplicationStroop,2021.2.3,Win32,59.38947618,,,,,,,,,,,,,,,,,,,,,,,,,,,,,,,,,27,4.381,1,0,21,21,4,1,3,×,9,3 × 9,incongruent,smallerFirst,2,1,27,,,,,,,,
,,,,,,,,,,,,,,,8158,2022-02-23_21h59.07.478,multiplicationStroop,2021.2.3,Win32,59.38947618,,,,,,,,,,,,,,,,,,,,,,,,,,,,,,,,,63,2.7667,1,0,22,22,17,1,9,×,7,9 × 7,incongruent,largerFirst,1,2,63,,,,,,,,
,,,,,,,,,,,,,,,8158,2022-02-23_21h59.07.478,multiplicationStroop,2021.2.3,Win32,59.38947618,,,,,,,,,,,,,,,,,,,,,,,,,,,,,,,,,32,3.0314,1,0,23,23,21,1,8,×,4,8 × 4,incongruent,largerFirst,1,2,32,,,,,,,,
,,,,,,,,,,,,,,,8158,2022-02-23_21h59.07.478,multiplicationStroop,2021.2.3,Win32,59.38947618,,,,,,,,,,,,,,,,,,,,,,,,,,,,,,,,,18,1.9504,1,0,24,24,16,1,9,×,2,9 × 2,incongruent,largerFirst,1,2,18,,,,,,,,
,,,,,,,,,,,,,,,8158,2022-02-23_21h59.07.478,multiplicationStroop,2021.2.3,Win32,59.38947618,,,,,,,,,,,,,,,,,,,,,,,,,,,,,,,,,9,2.0315,1,0,25,25,29,1,3,×,3,3 × 3,neutral,tie,2,1,9,,,,,,,,
,,,,,,,,,,,,,,,8158,2022-02-23_21h59.07.478,multiplicationStroop,2021.2.3,Win32,59.38947618,,,,,,,,,,,,,,,,,,,,,,,,,,,,,,,,,8,2.1322,1,0,26,26,10,1,2,×,4,2 × 4,incongruent,smallerFirst,2,1,8,,,,,,,,
,,,,,,,,,,,,,,,8158,2022-02-23_21h59.07.478,multiplicationStroop,2021.2.3,Win32,59.38947618,,,,,,,,,,,,,,,,,,,,,,,,,,,,,,,,,45,2.3648,1,0,27,27,8,1,5,×,9,5 × 9,incongruent,smallerFirst,2,1,45,,,,,,,,
,,,,,,,,,,,,,,,8158,2022-02-23_21h59.07.478,multiplicationStroop,2021.2.3,Win32,59.38947618,,,,,,,,,,,,,,,,,,,,,,,,,,,,,,,,,18,2.8486,1,0,28,28,22,1,6,×,3,6 × 3,incongruent,largerFirst,1,2,18,,,,,,,,
,,,,,,,,,,,,,,,8158,2022-02-23_21h59.07.478,multiplicationStroop,2021.2.3,Win32,59.38947618,,,,,,,,,,,,,,,,,,,,,,,,,,,,,,,,,40,2.3005,1,0,29,29,27,1,8,×,5,8 × 5,incongruent,largerFirst,1,2,40,,,,,,,,
,,,,,,,,,,,,,,,8158,2022-02-23_21h59.07.478,multiplicationStroop,2021.2.3,Win32,59.38947618,,,,,,,,,,,,,,,,,,,,,,,,,,,,,,,,,16,2.3646,1,0,30,30,9,1,2,×,8,2 × 8,incongruent,smallerFirst,2,1,16,,,,,,,,
,,,,,,,,,,,,,,,8158,2022-02-23_21h59.07.478,multiplicationStroop,2021.2.3,Win32,59.38947618,,,,,,,,,,,,,,,,,,,,,,,,,,,,,,,,,36,2.5481,1,0,31,31,32,1,6,×,6,6 × 6,neutral,tie,2,1,36,,,,,,,,
,,,,,,,,,,,,,,,8158,2022-02-23_21h59.07.478,multiplicationStroop,2021.2.3,Win32,59.38947618,,,,,,,,,,,,,,,,,,,,,,,,,,,,,,,,,64,2.9481,1,0,32,32,34,1,8,×,8,8 × 8,neutral,tie,2,1,64,,,,,,,,
,,,,,,,,,,,,,,,8158,2022-02-23_21h59.07.478,multiplicationStroop,2021.2.3,Win32,59.38947618,,,,,,,,,,,,,,,,,,,,,,,,,,,,,,,,,6,1.8958,1,0,33,33,25,1,3,×,2,3 × 2,incongruent,largerFirst,1,2,6,,,,,,,,
,,,,,,,,,,,,,,,8158,2022-02-23_21h59.07.478,multiplicationStroop,2021.2.3,Win32,59.38947618,,,,,,,,,,,,,,,,,,,,,,,,,,,,,,,,,16,2.1305,1,0,34,34,30,1,4,×,4,4 × 4,neutral,tie,2,1,16,,,,,,,,
,,,,,,,,,,,,,,,8158,2022-02-23_21h59.07.478,multiplicationStroop,2021.2.3,Win32,59.38947618,,,,,,,,,,,,,,,,,,,,,,,,,,,,,,,,,20,1.931,1,0,35,35,13,1,4,×,5,4 × 5,incongruent,smallerFirst,2,1,20,,,,,,,,
,,,,,,,,,,,,,,,8158,2022-02-23_21h59.07.478,multiplicationStroop,2021.2.3,Win32,59.38947618,,,,,,,,,,,,,,,,,,,,,,,,,,,,,,,,,,,,,,,,,,,,,,,,,,0,0,0,4,1,stimulusFile/mult_blk5_INcongruent.xlsx,,
,,,,,,,,,,,,,,,8158,2022-02-23_21h59.07.478,multiplicationStroop,2021.2.3,Win32,59.38947618,,,,,,,,,,,,,,,,,,,,,,,,,,,,,,,space,2.1509,63,2.7149,1,0,0,0,7,1,7,×,9,7 × 9,congruent,smallerFirst,1,2,63,,,,,,,,
,,,,,,,,,,,,,,,8158,2022-02-23_21h59.07.478,multiplicationStroop,2021.2.3,Win32,59.38947618,,,,,,,,,,,,,,,,,,,,,,,,,,,,,,,,,28,1.949,1,0,1,1,13,1,4,×,7,4 × 7,congruent,smallerFirst,1,2,28,,,,,,,,
,,,,,,,,,,,,,,,8158,2022-02-23_21h59.07.478,multiplicationStroop,2021.2.3,Win32,59.38947618,,,,,,,,,,,,,,,,,,,,,,,,,,,,,,,,,42,3.4807,1,0,2,2,17,1,7,×,6,7 × 6,congruent,largerFirst,2,1,42,,,,,,,,
,,,,,,,,,,,,,,,8158,2022-02-23_21h59.07.478,multiplicationStroop,2021.2.3,Win32,59.38947618,,,,,,,,,,,,,,,,,,,,,,,,,,,,,,,,,25,1.6175,1,0,3,3,31,1,5,×,5,5 × 5,neutral,tie,1,2,25,,,,,,,,
,,,,,,,,,,,,,,,8158,2022-02-23_21h59.07.478,multiplicationStroop,2021.2.3,Win32,59.38947618,,,,,,,,,,,,,,,,,,,,,,,,,,,,,,,,,14,1.6489,1,0,4,4,0,1,2,×,7,2 × 7,congruent,smallerFirst,1,2,14,,,,,,,,
,,,,,,,,,,,,,,,8158,2022-02-23_21h59.07.478,multiplicationStroop,2021.2.3,Win32,59.38947618,,,,,,,,,,,,,,,,,,,,,,,,,,,,,,,,,35,1.8316,1,0,5,5,15,1,7,×,5,7 × 5,congruent,largerFirst,2,1,35,,,,,,,,
,,,,,,,,,,,,,,,8158,2022-02-23_21h59.07.478,multiplicationStroop,2021.2.3,Win32,59.38947618,,,,,,,,,,,,,,,,,,,,,,,,,,,,,,,,,2,1.599,0,0,6,6,2,1,3,×,7,3 × 7,congruent,smallerFirst,1,2,21,,,,,,,,
,,,,,,,,,,,,,,,8158,2022-02-23_21h59.07.478,multiplicationStroop,2021.2.3,Win32,59.38947618,,,,,,,,,,,,,,,,,,,,,,,,,,,,,,,,,16,4.7799,1,0,7,7,19,1,8,×,2,8 × 2,congruent,largerFirst,2,1,16,,,,,,,,
,,,,,,,,,,,,,,,8158,2022-02-23_21h59.07.478,multiplicationStroop,2021.2.3,Win32,59.38947618,,,,,,,,,,,,,,,,,,,,,,,,,,,,,,,,,45,1.9176,1,0,8,8,9,1,5,×,9,5 × 9,congruent,smallerFirst,1,2,45,,,,,,,,
,,,,,,,,,,,,,,,8158,2022-02-23_21h59.07.478,multiplicationStroop,2021.2.3,Win32,59.38947618,,,,,,,,,,,,,,,,,,,,,,,,,,,,,,,,,72,2.1313,1,0,9,9,3,1,8,×,9,8 × 9,congruent,smallerFirst,1,2,72,,,,,,,,
,,,,,,,,,,,,,,,8158,2022-02-23_21h59.07.478,multiplicationStroop,2021.2.3,Win32,59.38947618,,,,,,,,,,,,,,,,,,,,,,,,,,,,,,,,,8,1.8821,1,0,10,10,23,1,4,×,2,4 × 2,congruent,largerFirst,2,1,8,,,,,,,,
,,,,,,,,,,,,,,,8158,2022-02-23_21h59.07.478,multiplicationStroop,2021.2.3,Win32,59.38947618,,,,,,,,,,,,,,,,,,,,,,,,,,,,,,,,,54,3.5976,1,0,11,11,26,1,9,×,6,9 × 6,congruent,largerFirst,2,1,54,,,,,,,,
,,,,,,,,,,,,,,,8158,2022-02-23_21h59.07.478,multiplicationStroop,2021.2.3,Win32,59.38947618,,,,,,,,,,,,,,,,,,,,,,,,,,,,,,,,,48,2.3815,1,0,12,12,4,1,6,×,8,6 × 8,congruent,smallerFirst,1,2,48,,,,,,,,
,,,,,,,,,,,,,,,8158,2022-02-23_21h59.07.478,multiplicationStroop,2021.2.3,Win32,59.38947618,,,,,,,,,,,,,,,,,,,,,,,,,,,,,,,,,4,1.5016,1,0,13,13,28,1,2,×,2,2 × 2,neutral,tie,1,2,4,,,,,,,,
,,,,,,,,,,,,,,,8158,2022-02-23_21h59.07.478,multiplicationStroop,2021.2.3,Win32,59.38947618,,,,,,,,,,,,,,,,,,,,,,,,,,,,,,,,,56,3.4476,1,0,14,14,22,1,8,×,7,8 × 7,congruent,largerFirst,2,1,56,,,,,,,,
,,,,,,,,,,,,,,,8158,2022-02-23_21h59.07.478,multiplicationStroop,2021.2.3,Win32,59.38947618,,,,,,,,,,,,,,,,,,,,,,,,,,,,,,,,,9,1.6346,1,0,15,15,29,1,3,×,3,3 × 3,neutral,tie,1,2,9,,,,,,,,
,,,,,,,,,,,,,,,8158,2022-02-23_21h59.07.478,multiplicationStroop,2021.2.3,Win32,59.38947618,,,,,,,,,,,,,,,,,,,,,,,,,,,,,,,,,6,1.8814,1,0,16,16,27,1,3,×,2,3 × 2,congruent,largerFirst,2,1,6,,,,,,,,
,,,,,,,,,,,,,,,8158,2022-02-23_21h59.07.478,multiplicationStroop,2021.2.3,Win32,59.38947618,,,,,,,,,,,,,,,,,,,,,,,,,,,,,,,,,64,2.2817,1,0,17,17,34,1,8,×,8,8 × 8,neutral,tie,1,2,64,,,,,,,,
,,,,,,,,,,,,,,,8158,2022-02-23_21h59.07.478,multiplicationStroop,2021.2.3,Win32,59.38947618,,,,,,,,,,,,,,,,,,,,,,,,,,,,,,,,,24,2.8314,1,0,18,18,24,1,8,×,3,8 × 3,congruent,largerFirst,2,1,24,,,,,,,,
,,,,,,,,,,,,,,,8158,2022-02-23_21h59.07.478,multiplicationStroop,2021.2.3,Win32,59.38947618,,,,,,,,,,,,,,,,,,,,,,,,,,,,,,,,,12,2.265,1,0,19,19,5,1,2,×,6,2 × 6,congruent,smallerFirst,1,2,12,,,,,,,,
,,,,,,,,,,,,,,,8158,2022-02-23_21h59.07.478,multiplicationStroop,2021.2.3,Win32,59.38947618,,,,,,,,,,,,,,,,,,,,,,,,,,,,,,,,,10,1.7488,1,0,20,20,10,1,2,×,5,2 × 5,congruent,smallerFirst,1,2,10,,,,,,,,
,,,,,,,,,,,,,,,8158,2022-02-23_21h59.07.478,multiplicationStroop,2021.2.3,Win32,59.38947618,,,,,,,,,,,,,,,,,,,,,,,,,,,,,,,,,81,2.132,1,0,21,21,35,1,9,×,9,9 × 9,neutral,tie,1,2,81,,,,,,,,
,,,,,,,,,,,,,,,8158,2022-02-23_21h59.07.478,multiplicationStroop,2021.2.3,Win32,59.38947618,,,,,,,,,,,,,,,,,,,,,,,,,,,,,,,,,27,3.1313,1,0,22,22,12,1,3,×,9,3 × 9,congruent,smallerFirst,1,2,27,,,,,,,,
,,,,,,,,,,,,,,,8158,2022-02-23_21h59.07.478,multiplicationStroop,2021.2.3,Win32,59.38947618,,,,,,,,,,,,,,,,,,,,,,,,,,,,,,,,,16,2.0175,1,0,23,23,30,1,4,×,4,4 × 4,neutral,tie,1,2,16,,,,,,,,
,,,,,,,,,,,,,,,8158,2022-02-23_21h59.07.478,multiplicationStroop,2021.2.3,Win32,59.38947618,,,,,,,,,,,,,,,,,,,,,,,,,,,,,,,,,40,2.0808,1,0,24,24,20,1,8,×,5,8 × 5,congruent,largerFirst,2,1,40,,,,,,,,
,,,,,,,,,,,,,,,8158,2022-02-23_21h59.07.478,multiplicationStroop,2021.2.3,Win32,59.38947618,,,,,,,,,,,,,,,,,,,,,,,,,,,,,,,,,35,3.014,0,0,25,25,33,1,7,×,7,7 × 7,neutral,tie,1,2,49,,,,,,,,
,,,,,,,,,,,,,,,8158,2022-02-23_21h59.07.478,multiplicationStroop,2021.2.3,Win32,59.38947618,,,,,,,,,,,,,,,,,,,,,,,,,,,,,,,,,32,2.5332,1,0,26,26,6,1,4,×,8,4 × 8,congruent,smallerFirst,1,2,32,,,,,,,,
,,,,,,,,,,,,,,,8158,2022-02-23_21h59.07.478,multiplicationStroop,2021.2.3,Win32,59.38947618,,,,,,,,,,,,,,,,,,,,,,,,,,,,,,,,,18,2.0641,1,0,27,27,8,1,2,×,9,2 × 9,congruent,smallerFirst,1,2,18,,,,,,,,
,,,,,,,,,,,,,,,8158,2022-02-23_21h59.07.478,multiplicationStroop,2021.2.3,Win32,59.38947618,,,,,,,,,,,,,,,,,,,,,,,,,,,,,,,,,12,1.5318,1,0,28,28,16,1,4,×,3,4 × 3,congruent,largerFirst,2,1,12,,,,,,,,
,,,,,,,,,,,,,,,8158,2022-02-23_21h59.07.478,multiplicationStroop,2021.2.3,Win32,59.38947618,,,,,,,,,,,,,,,,,,,,,,,,,,,,,,,,,15,1.8315,1,0,29,29,18,1,5,×,3,5 × 3,congruent,largerFirst,2,1,15,,,,,,,,
,,,,,,,,,,,,,,,8158,2022-02-23_21h59.07.478,multiplicationStroop,2021.2.3,Win32,59.38947618,,,,,,,,,,,,,,,,,,,,,,,,,,,,,,,,,36,2.1688,1,0,30,30,32,1,6,×,6,6 × 6,neutral,tie,1,2,36,,,,,,,,
,,,,,,,,,,,,,,,8158,2022-02-23_21h59.07.478,multiplicationStroop,2021.2.3,Win32,59.38947618,,,,,,,,,,,,,,,,,,,,,,,,,,,,,,,,,36,2.4759,1,0,31,31,14,1,9,×,4,9 × 4,congruent,largerFirst,2,1,36,,,,,,,,
,,,,,,,,,,,,,,,8158,2022-02-23_21h59.07.478,multiplicationStroop,2021.2.3,Win32,59.38947618,,,,,,,,,,,,,,,,,,,,,,,,,,,,,,,,,30,2.7473,1,0,32,32,1,1,5,×,6,5 × 6,congruent,smallerFirst,1,2,30,,,,,,,,
,,,,,,,,,,,,,,,8158,2022-02-23_21h59.07.478,multiplicationStroop,2021.2.3,Win32,59.38947618,,,,,,,,,,,,,,,,,,,,,,,,,,,,,,,,,24,2.714,1,0,33,33,11,1,4,×,6,4 × 6,congruent,smallerFirst,1,2,24,,,,,,,,
,,,,,,,,,,,,,,,8158,2022-02-23_21h59.07.478,multiplicationStroop,2021.2.3,Win32,59.38947618,,,,,,,,,,,,,,,,,,,,,,,,,,,,,,,,,20,2.6498,1,0,34,34,21,1,5,×,4,5 × 4,congruent,largerFirst,2,1,20,,,,,,,,
,,,,,,,,,,,,,,,8158,2022-02-23_21h59.07.478,multiplicationStroop,2021.2.3,Win32,59.38947618,,,,,,,,,,,,,,,,,,,,,,,,,,,,,,,,,18,1.8651,1,0,35,35,25,1,6,×,3,6 × 3,congruent,largerFirst,2,1,18,,,,,,,,
,,,,,,,,,,,,,,,8158,2022-02-23_21h59.07.478,multiplicationStroop,2021.2.3,Win32,59.38947618,,,,,,,,,,,,,,,,,,,,,,,,,,,,,,,,,,,,,,,,,,,,,,,,,,0,1,1,3,1,stimulusFile/mult_blk4_congruent.xlsx,,
,,,,,,,,,,,,,,,8158,2022-02-23_21h59.07.478,multiplicationStroop,2021.2.3,Win32,59.38947618,,,,,,,,,,,,,,,,,,,,,,,,,,,,,,,space,20.2087,36,2.3989,1,0,0,0,32,1,6,×,6,6 × 6,incongruent,tie,1,2,36,,,,,,,,
,,,,,,,,,,,,,,,8158,2022-02-23_21h59.07.478,multiplicationStroop,2021.2.3,Win32,59.38947618,,,,,,,,,,,,,,,,,,,,,,,,,,,,,,,,,8,2.1318,1,0,1,1,24,1,4,×,2,4 × 2,incongruent,largerFirst,1,2,8,,,,,,,,
,,,,,,,,,,,,,,,8158,2022-02-23_21h59.07.478,multiplicationStroop,2021.2.3,Win32,59.38947618,,,,,,,,,,,,,,,,,,,,,,,,,,,,,,,,,27,2.2485,1,0,2,2,18,1,9,×,3,9 × 3,incongruent,largerFirst,1,2,27,,,,,,,,
,,,,,,,,,,,,,,,8158,2022-02-23_21h59.07.478,multiplicationStroop,2021.2.3,Win32,59.38947618,,,,,,,,,,,,,,,,,,,,,,,,,,,,,,,,,45,2.2149,1,0,3,3,22,1,9,×,5,9 × 5,incongruent,largerFirst,1,2,45,,,,,,,,
,,,,,,,,,,,,,,,8158,2022-02-23_21h59.07.478,multiplicationStroop,2021.2.3,Win32,59.38947618,,,,,,,,,,,,,,,,,,,,,,,,,,,,,,,,,9,1.7819,1,0,4,4,29,1,3,×,3,3 × 3,incongruent,tie,1,2,9,,,,,,,,
,,,,,,,,,,,,,,,8158,2022-02-23_21h59.07.478,multiplicationStroop,2021.2.3,Win32,59.38947618,,,,,,,,,,,,,,,,,,,,,,,,,,,,,,,,,36,3.148,1,0,5,5,15,1,9,×,4,9 × 4,incongruent,largerFirst,1,2,36,,,,,,,,
,,,,,,,,,,,,,,,8158,2022-02-23_21h59.07.478,multiplicationStroop,2021.2.3,Win32,59.38947618,,,,,,,,,,,,,,,,,,,,,,,,,,,,,,,,,40,2.1986,1,0,6,6,13,1,5,×,8,5 × 8,incongruent,smallerFirst,2,1,40,,,,,,,,
,,,,,,,,,,,,,,,8158,2022-02-23_21h59.07.478,multiplicationStroop,2021.2.3,Win32,59.38947618,,,,,,,,,,,,,,,,,,,,,,,,,,,,,,,,,10,1.8,1,0,7,7,21,1,5,×,2,5 × 2,incongruent,largerFirst,1,2,10,,,,,,,,
,,,,,,,,,,,,,,,8158,2022-02-23_21h59.07.478,multiplicationStroop,2021.2.3,Win32,59.38947618,,,,,,,,,,,,,,,,,,,,,,,,,,,,,,,,,30,1.8486,1,0,8,8,25,1,6,×,5,6 × 5,incongruent,largerFirst,1,2,30,,,,,,,,
,,,,,,,,,,,,,,,8158,2022-02-23_21h59.07.478,multiplicationStroop,2021.2.3,Win32,59.38947618,,,,,,,,,,,,,,,,,,,,,,,,,,,,,,,,,20,1.8989,1,0,9,9,27,1,5,×,4,5 × 4,incongruent,largerFirst,1,2,20,,,,,,,,
,,,,,,,,,,,,,,,8158,2022-02-23_21h59.07.478,multiplicationStroop,2021.2.3,Win32,59.38947618,,,,,,,,,,,,,,,,,,,,,,,,,,,,,,,,,63,3.3478,1,0,10,10,3,1,7,×,9,7 × 9,incongruent,smallerFirst,2,1,63,,,,,,,,
,,,,,,,,,,,,,,,8158,2022-02-23_21h59.07.478,multiplicationStroop,2021.2.3,Win32,59.38947618,,,,,,,,,,,,,,,,,,,,,,,,,,,,,,,,,16,1.8508,1,0,11,11,30,1,4,×,4,4 × 4,incongruent,tie,1,2,16,,,,,,,,
,,,,,,,,,,,,,,,8158,2022-02-23_21h59.07.478,multiplicationStroop,2021.2.3,Win32,59.38947618,,,,,,,,,,,,,,,,,,,,,,,,,,,,,,,,,18,1.7651,1,0,12,12,8,1,3,×,6,3 × 6,incongruent,smallerFirst,2,1,18,,,,,,,,
,,,,,,,,,,,,,,,8158,2022-02-23_21h59.07.478,multiplicationStroop,2021.2.3,Win32,59.38947618,,,,,,,,,,,,,,,,,,,,,,,,,,,,,,,,,24,1.4988,1,0,13,13,20,1,6,×,4,6 × 4,incongruent,largerFirst,1,2,24,,,,,,,,
,,,,,,,,,,,,,,,8158,2022-02-23_21h59.07.478,multiplicationStroop,2021.2.3,Win32,59.38947618,,,,,,,,,,,,,,,,,,,,,,,,,,,,,,,,,56,1.865,1,0,14,14,14,1,8,×,7,8 × 7,incongruent,largerFirst,1,2,56,,,,,,,,
,,,,,,,,,,,,,,,8158,2022-02-23_21h59.07.478,multiplicationStroop,2021.2.3,Win32,59.38947618,,,,,,,,,,,,,,,,,,,,,,,,,,,,,,,,,14,1.6824,1,0,15,15,4,1,2,×,7,2 × 7,incongruent,smallerFirst,2,1,14,,,,,,,,
,,,,,,,,,,,,,,,8158,2022-02-23_21h59.07.478,multiplicationStroop,2021.2.3,Win32,59.38947618,,,,,,,,,,,,,,,,,,,,,,,,,,,,,,,,,72,3.0477,1,0,16,16,0,1,8,×,9,8 × 9,incongruent,smallerFirst,2,1,72,,,,,,,,
,,,,,,,,,,,,,,,8158,2022-02-23_21h59.07.478,multiplicationStroop,2021.2.3,Win32,59.38947618,,,,,,,,,,,,,,,,,,,,,,,,,,,,,,,,,24,1.8331,1,0,17,17,9,1,3,×,8,3 × 8,incongruent,smallerFirst,2,1,24,,,,,,,,
,,,,,,,,,,,,,,,8158,2022-02-23_21h59.07.478,multiplicationStroop,2021.2.3,Win32,59.38947618,,,,,,,,,,,,,,,,,,,,,,,,,,,,,,,,,49,3.8646,1,0,18,18,33,1,7,×,7,7 × 7,incongruent,tie,1,2,49,,,,,,,,
,,,,,,,,,,,,,,,8158,2022-02-23_21h59.07.478,multiplicationStroop,2021.2.3,Win32,59.38947618,,,,,,,,,,,,,,,,,,,,,,,,,,,,,,,,,18,1.8164,1,0,19,19,2,1,2,×,9,2 × 9,incongruent,smallerFirst,2,1,18,,,,,,,,
,,,,,,,,,,,,,,,8158,2022-02-23_21h59.07.478,multiplicationStroop,2021.2.3,Win32,59.38947618,,,,,,,,,,,,,,,,,,,,,,,,,,,,,,,,,15,1.8151,1,0,20,20,10,1,3,×,5,3 × 5,incongruent,smallerFirst,2,1,15,,,,,,,,
,,,,,,,,,,,,,,,8158,2022-02-23_21h59.07.478,multiplicationStroop,2021.2.3,Win32,59.38947618,,,,,,,,,,,,,,,,,,,,,,,,,,,,,,,,,14,2.3981,0,0,21,21,23,1,8,×,2,8 × 2,incongruent,largerFirst,1,2,16,,,,,,,,
,,,,,,,,,,,,,,,8158,2022-02-23_21h59.07.478,multiplicationStroop,2021.2.3,Win32,59.38947618,,,,,,,,,,,,,,,,,,,,,,,,,,,,,,,,,54,7.4628,1,0,22,22,6,1,6,×,9,6 × 9,incongruent,smallerFirst,2,1,54,,,,,,,,
,,,,,,,,,,,,,,,8158,2022-02-23_21h59.07.478,multiplicationStroop,2021.2.3,Win32,59.38947618,,,,,,,,,,,,,,,,,,,,,,,,,,,,,,,,,48,1.9505,1,0,23,23,1,1,6,×,8,6 × 8,incongruent,smallerFirst,2,1,48,,,,,,,,
,,,,,,,,,,,,,,,8158,2022-02-23_21h59.07.478,multiplicationStroop,2021.2.3,Win32,59.38947618,,,,,,,,,,,,,,,,,,,,,,,,,,,,,,,,,64,1.8984,1,0,24,24,34,1,8,×,8,8 × 8,incongruent,tie,1,2,64,,,,,,,,
,,,,,,,,,,,,,,,8158,2022-02-23_21h59.07.478,multiplicationStroop,2021.2.3,Win32,59.38947618,,,,,,,,,,,,,,,,,,,,,,,,,,,,,,,,,32,3.4643,1,0,25,25,7,1,4,×,8,4 × 8,incongruent,smallerFirst,2,1,32,,,,,,,,
,,,,,,,,,,,,,,,8158,2022-02-23_21h59.07.478,multiplicationStroop,2021.2.3,Win32,59.38947618,,,,,,,,,,,,,,,,,,,,,,,,,,,,,,,,,28,6.0484,1,0,26,26,16,1,7,×,4,7 × 4,incongruent,largerFirst,1,2,28,,,,,,,,
,,,,,,,,,,,,,,,8158,2022-02-23_21h59.07.478,multiplicationStroop,2021.2.3,Win32,59.38947618,,,,,,,,,,,,,,,,,,,,,,,,,,,,,,,,,25,1.8157,1,0,27,27,31,1,5,×,5,5 × 5,incongruent,tie,1,2,25,,,,,,,,
,,,,,,,,,,,,,,,8158,2022-02-23_21h59.07.478,multiplicationStroop,2021.2.3,Win32,59.38947618,,,,,,,,,,,,,,,,,,,,,,,,,,,,,,,,,4,1.7986,1,0,28,28,28,1,2,×,2,2 × 2,incongruent,tie,1,2,4,,,,,,,,
,,,,,,,,,,,,,,,8158,2022-02-23_21h59.07.478,multiplicationStroop,2021.2.3,Win32,59.38947618,,,,,,,,,,,,,,,,,,,,,,,,,,,,,,,,,12,1.8476,1,0,29,29,5,1,3,×,4,3 × 4,incongruent,smallerFirst,2,1,12,,,,,,,,
,,,,,,,,,,,,,,,8158,2022-02-23_21h59.07.478,multiplicationStroop,2021.2.3,Win32,59.38947618,,,,,,,,,,,,,,,,,,,,,,,,,,,,,,,,,42,5.4958,1,0,30,30,17,1,7,×,6,7 × 6,incongruent,largerFirst,1,2,42,,,,,,,,
,,,,,,,,,,,,,,,8158,2022-02-23_21h59.07.478,multiplicationStroop,2021.2.3,Win32,59.38947618,,,,,,,,,,,,,,,,,,,,,,,,,,,,,,,,,6,2.9168,1,0,31,31,11,1,2,×,3,2 × 3,incongruent,smallerFirst,2,1,6,,,,,,,,
,,,,,,,,,,,,,,,8158,2022-02-23_21h59.07.478,multiplicationStroop,2021.2.3,Win32,59.38947618,,,,,,,,,,,,,,,,,,,,,,,,,,,,,,,,,81,2.0813,1,0,32,32,35,1,9,×,9,9 × 9,incongruent,tie,1,2,81,,,,,,,,
,,,,,,,,,,,,,,,8158,2022-02-23_21h59.07.478,multiplicationStroop,2021.2.3,Win32,59.38947618,,,,,,,,,,,,,,,,,,,,,,,,,,,,,,,,,21,3.0641,1,0,33,33,26,1,7,×,3,7 × 3,incongruent,largerFirst,1,2,21,,,,,,,,
,,,,,,,,,,,,,,,8158,2022-02-23_21h59.07.478,multiplicationStroop,2021.2.3,Win32,59.38947618,,,,,,,,,,,,,,,,,,,,,,,,,,,,,,,,,35,2.1336,1,0,34,34,12,1,5,×,7,5 × 7,incongruent,smallerFirst,2,1,35,,,,,,,,
,,,,,,,,,,,,,,,8158,2022-02-23_21h59.07.478,multiplicationStroop,2021.2.3,Win32,59.38947618,,,,,,,,,,,,,,,,,,,,,,,,,,,,,,,,,12,1.6978,1,0,35,35,19,1,6,×,2,6 × 2,incongruent,largerFirst,1,2,12,,,,,,,,
,,,,,,,,,,,,,,,8158,2022-02-23_21h59.07.478,multiplicationStroop,2021.2.3,Win32,59.38947618,,,,,,,,,,,,,,,,,,,,,,,,,,,,,,,,,,,,,,,,,,,,,,,,,,0,2,2,5,1,stimulusFile/mult_blk6_INcongruent.xlsx,,
,,,,,,,,,,,,,,,8158,2022-02-23_21h59.07.478,multiplicationStroop,2021.2.3,Win32,59.38947618,,,,,,,,,,,,,,,,,,,,,,,,,,,,,,,space,2.0083,20,1.8809,1,0,0,0,6,1,4,×,5,4 × 5,neutral,smallerFirst,1.5,1.5,20,,,,,,,,
,,,,,,,,,,,,,,,8158,2022-02-23_21h59.07.478,multiplicationStroop,2021.2.3,Win32,59.38947618,,,,,,,,,,,,,,,,,,,,,,,,,,,,,,,,,12,1.5321,1,0,1,1,11,1,2,×,6,2 × 6,neutral,smallerFirst,1.5,1.5,12,,,,,,,,
,,,,,,,,,,,,,,,8158,2022-02-23_21h59.07.478,multiplicationStroop,2021.2.3,Win32,59.38947618,,,,,,,,,,,,,,,,,,,,,,,,,,,,,,,,,6,1.6653,1,0,2,2,12,1,2,×,3,2 × 3,neutral,smallerFirst,1.5,1.5,6,,,,,,,,
,,,,,,,,,,,,,,,8158,2022-02-23_21h59.07.478,multiplicationStroop,2021.2.3,Win32,59.38947618,,,,,,,,,,,,,,,,,,,,,,,,,,,,,,,,,10,1.8489,1,0,3,3,18,1,5,×,2,5 × 2,neutral,largerFirst,1.5,1.5,10,,,,,,,,
,,,,,,,,,,,,,,,8158,2022-02-23_21h59.07.478,multiplicationStroop,2021.2.3,Win32,59.38947618,,,,,,,,,,,,,,,,,,,,,,,,,,,,,,,,,32,1.9467,1,0,4,4,9,1,4,×,8,4 × 8,neutral,smallerFirst,1.5,1.5,32,,,,,,,,
,,,,,,,,,,,,,,,8158,2022-02-23_21h59.07.478,multiplicationStroop,2021.2.3,Win32,59.38947618,,,,,,,,,,,,,,,,,,,,,,,,,,,,,,,,,21,1.6648,1,0,5,5,22,1,7,×,3,7 × 3,neutral,largerFirst,1.5,1.5,21,,,,,,,,
,,,,,,,,,,,,,,,8158,2022-02-23_21h59.07.478,multiplicationStroop,2021.2.3,Win32,59.38947618,,,,,,,,,,,,,,,,,,,,,,,,,,,,,,,,,16,1.8479,1,0,6,6,30,1,4,×,4,4 × 4,neutral,tie,1.5,1.5,16,,,,,,,,
,,,,,,,,,,,,,,,8158,2022-02-23_21h59.07.478,multiplicationStroop,2021.2.3,Win32,59.38947618,,,,,,,,,,,,,,,,,,,,,,,,,,,,,,,,,12,1.4651,1,0,7,7,7,1,3,×,4,3 × 4,neutral,smallerFirst,1.5,1.5,12,,,,,,,,
,,,,,,,,,,,,,,,8158,2022-02-23_21h59.07.478,multiplicationStroop,2021.2.3,Win32,59.38947618,,,,,,,,,,,,,,,,,,,,,,,,,,,,,,,,,8,2.8146,1,0,8,8,17,1,4,×,2,4 × 2,neutral,largerFirst,1.5,1.5,8,,,,,,,,
,,,,,,,,,,,,,,,8158,2022-02-23_21h59.07.478,multiplicationStroop,2021.2.3,Win32,59.38947618,,,,,,,,,,,,,,,,,,,,,,,,,,,,,,,,,72,2.6136,1,0,9,9,25,1,9,×,8,9 × 8,neutral,largerFirst,1.5,1.5,72,,,,,,,,
,,,,,,,,,,,,,,,8158,2022-02-23_21h59.07.478,multiplicationStroop,2021.2.3,Win32,59.38947618,,,,,,,,,,,,,,,,,,,,,,,,,,,,,,,,,30,1.7807,1,0,10,10,5,1,5,×,6,5 × 6,neutral,smallerFirst,1.5,1.5,30,,,,,,,,
,,,,,,,,,,,,,,,8158,2022-02-23_21h59.07.478,multiplicationStroop,2021.2.3,Win32,59.38947618,,,,,,,,,,,,,,,,,,,,,,,,,,,,,,,,,4,1.6646,1,0,11,11,28,1,2,×,2,2 × 2,neutral,tie,1.5,1.5,4,,,,,,,,
,,,,,,,,,,,,,,,8158,2022-02-23_21h59.07.478,multiplicationStroop,2021.2.3,Win32,59.38947618,,,,,,,,,,,,,,,,,,,,,,,,,,,,,,,,,49,2.7639,1,0,12,12,33,1,7,×,7,7 × 7,neutral,tie,1.5,1.5,49,,,,,,,,
,,,,,,,,,,,,,,,8158,2022-02-23_21h59.07.478,multiplicationStroop,2021.2.3,Win32,59.38947618,,,,,,,,,,,,,,,,,,,,,,,,,,,,,,,,,18,1.9979,1,0,13,13,4,1,2,×,9,2 × 9,neutral,smallerFirst,1.5,1.5,18,,,,,,,,
,,,,,,,,,,,,,,,8158,2022-02-23_21h59.07.478,multiplicationStroop,2021.2.3,Win32,59.38947618,,,,,,,,,,,,,,,,,,,,,,,,,,,,,,,,,36,1.6815,1,0,14,14,32,1,6,×,6,6 × 6,neutral,tie,1.5,1.5,36,,,,,,,,
,,,,,,,,,,,,,,,8158,2022-02-23_21h59.07.478,multiplicationStroop,2021.2.3,Win32,59.38947618,,,,,,,,,,,,,,,,,,,,,,,,,,,,,,,,,81,1.8651,1,0,15,15,35,1,9,×,9,9 × 9,neutral,tie,1.5,1.5,81,,,,,,,,
,,,,,,,,,,,,,,,8158,2022-02-23_21h59.07.478,multiplicationStroop,2021.2.3,Win32,59.38947618,,,,,,,,,,,,,,,,,,,,,,,,,,,,,,,,,27,4.7288,1,0,16,16,0,1,3,×,9,3 × 9,neutral,smallerFirst,1.5,1.5,27,,,,,,,,
,,,,,,,,,,,,,,,8158,2022-02-23_21h59.07.478,multiplicationStroop,2021.2.3,Win32,59.38947618,,,,,,,,,,,,,,,,,,,,,,,,,,,,,,,,,25,2.1668,1,0,17,17,31,1,5,×,5,5 × 5,neutral,tie,1.5,1.5,25,,,,,,,,
,,,,,,,,,,,,,,,8158,2022-02-23_21h59.07.478,multiplicationStroop,2021.2.3,Win32,59.38947618,,,,,,,,,,,,,,,,,,,,,,,,,,,,,,,,,63,2.5499,1,0,18,18,26,1,9,×,7,9 × 7,neutral,largerFirst,1.5,1.5,63,,,,,,,,
,,,,,,,,,,,,,,,8158,2022-02-23_21h59.07.478,multiplicationStroop,2021.2.3,Win32,59.38947618,,,,,,,,,,,,,,,,,,,,,,,,,,,,,,,,,16,1.8982,1,0,19,19,27,1,8,×,2,8 × 2,neutral,largerFirst,1.5,1.5,16,,,,,,,,
,,,,,,,,,,,,,,,8158,2022-02-23_21h59.07.478,multiplicationStroop,2021.2.3,Win32,59.38947618,,,,,,,,,,,,,,,,,,,,,,,,,,,,,,,,,14,1.5979,1,0,20,20,2,1,2,×,7,2 × 7,neutral,smallerFirst,1.5,1.5,14,,,,,,,,
,,,,,,,,,,,,,,,8158,2022-02-23_21h59.07.478,multiplicationStroop,2021.2.3,Win32,59.38947618,,,,,,,,,,,,,,,,,,,,,,,,,,,,,,,,,5,2.4971,0,0,21,21,23,1,8,×,7,8 × 7,neutral,largerFirst,1.5,1.5,56,,,,,,,,
,,,,,,,,,,,,,,,8158,2022-02-23_21h59.07.478,multiplicationStroop,2021.2.3,Win32,59.38947618,,,,,,,,,,,,,,,,,,,,,,,,,,,,,,,,,15,3.7468,1,0,22,22,19,1,5,×,3,5 × 3,neutral,largerFirst,1.5,1.5,15,,,,,,,,
,,,,,,,,,,,,,,,8158,2022-02-23_21h59.07.478,multiplicationStroop,2021.2.3,Win32,59.38947618,,,,,,,,,,,,,,,,,,,,,,,,,,,,,,,,,28,4.5824,1,0,23,23,3,1,4,×,7,4 × 7,neutral,smallerFirst,1.5,1.5,28,,,,,,,,
,,,,,,,,,,,,,,,8158,2022-02-23_21h59.07.478,multiplicationStroop,2021.2.3,Win32,59.38947618,,,,,,,,,,,,,,,,,,,,,,,,,,,,,,,,,18,2.0007,1,0,24,24,14,1,6,×,3,6 × 3,neutral,largerFirst,1.5,1.5,18,,,,,,,,
,,,,,,,,,,,,,,,8158,2022-02-23_21h59.07.478,multiplicationStroop,2021.2.3,Win32,59.38947618,,,,,,,,,,,,,,,,,,,,,,,,,,,,,,,,,36,3.8459,1,0,25,25,13,1,4,×,9,4 × 9,neutral,smallerFirst,1.5,1.5,36,,,,,,,,
,,,,,,,,,,,,,,,8158,2022-02-23_21h59.07.478,multiplicationStroop,2021.2.3,Win32,59.38947618,,,,,,,,,,,,,,,,,,,,,,,,,,,,,,,,,42,2.2504,1,0,26,26,20,1,7,×,6,7 × 6,neutral,largerFirst,1.5,1.5,42,,,,,,,,
,,,,,,,,,,,,,,,8158,2022-02-23_21h59.07.478,multiplicationStroop,2021.2.3,Win32,59.38947618,,,,,,,,,,,,,,,,,,,,,,,,,,,,,,,,,48,4.8967,1,0,27,27,1,1,6,×,8,6 × 8,neutral,smallerFirst,1.5,1.5,48,,,,,,,,
,,,,,,,,,,,,,,,8158,2022-02-23_21h59.07.478,multiplicationStroop,2021.2.3,Win32,59.38947618,,,,,,,,,,,,,,,,,,,,,,,,,,,,,,,,,64,1.9791,1,0,28,28,34,1,8,×,8,8 × 8,neutral,tie,1.5,1.5,64,,,,,,,,
,,,,,,,,,,,,,,,8158,2022-02-23_21h59.07.478,multiplicationStroop,2021.2.3,Win32,59.38947618,,,,,,,,,,,,,,,,,,,,,,,,,,,,,,,,,9,1.7473,1,0,29,29,29,1,3,×,3,3 × 3,neutral,tie,1.5,1.5,9,,,,,,,,
,,,,,,,,,,,,,,,8158,2022-02-23_21h59.07.478,multiplicationStroop,2021.2.3,Win32,59.38947618,,,,,,,,,,,,,,,,,,,,,,,,,,,,,,,,,40,2.5479,1,0,30,30,10,1,5,×,8,5 × 8,neutral,smallerFirst,1.5,1.5,40,,,,,,,,
,,,,,,,,,,,,,,,8158,2022-02-23_21h59.07.478,multiplicationStroop,2021.2.3,Win32,59.38947618,,,,,,,,,,,,,,,,,,,,,,,,,,,,,,,,,24,3.633,1,0,31,31,8,1,3,×,8,3 × 8,neutral,smallerFirst,1.5,1.5,24,,,,,,,,
,,,,,,,,,,,,,,,8158,2022-02-23_21h59.07.478,multiplicationStroop,2021.2.3,Win32,59.38947618,,,,,,,,,,,,,,,,,,,,,,,,,,,,,,,,,35,1.9811,1,0,32,32,15,1,7,×,5,7 × 5,neutral,largerFirst,1.5,1.5,35,,,,,,,,
,,,,,,,,,,,,,,,8158,2022-02-23_21h59.07.478,multiplicationStroop,2021.2.3,Win32,59.38947618,,,,,,,,,,,,,,,,,,,,,,,,,,,,,,,,,24,3.9967,1,0,33,33,16,1,6,×,4,6 × 4,neutral,largerFirst,1.5,1.5,24,,,,,,,,
,,,,,,,,,,,,,,,8158,2022-02-23_21h59.07.478,multiplicationStroop,2021.2.3,Win32,59.38947618,,,,,,,,,,,,,,,,,,,,,,,,,,,,,,,,,45,2.5667,1,0,34,34,24,1,9,×,5,9 × 5,neutral,largerFirst,1.5,1.5,45,,,,,,,,
,,,,,,,,,,,,,,,8158,2022-02-23_21h59.07.478,multiplicationStroop,2021.2.3,Win32,59.38947618,,,,,,,,,,,,,,,,,,,,,,,,,,,,,,,,,54,3.0164,1,0,35,35,21,1,9,×,6,9 × 6,neutral,largerFirst,1.5,1.5,54,,,,,,,,
,,,,,,,,,,,,,,,8158,2022-02-23_21h59.07.478,multiplicationStroop,2021.2.3,Win32,59.38947618,,,,,,,,,,,,,,,,,,,,,,,,,,,,,,,,,,,,,,,,,,,,,,,,,,0,3,3,0,1,stimulusFile/mult_blk1.xlsx,,
,,,,,,,,,,,,,,,8158,2022-02-23_21h59.07.478,multiplicationStroop,2021.2.3,Win32,59.38947618,,,,,,,,,,,,,,,,,,,,,,,,,,,,,,,space,440.7919,20,2.0441,1,0,0,0,7,1,4,×,5,4 × 5,congruent,smallerFirst,1,2,20,,,,,,,,
,,,,,,,,,,,,,,,8158,2022-02-23_21h59.07.478,multiplicationStroop,2021.2.3,Win32,59.38947618,,,,,,,,,,,,,,,,,,,,,,,,,,,,,,,,,54,1.9475,1,0,1,1,12,1,6,×,9,6 × 9,congruent,smallerFirst,1,2,54,,,,,,,,
,,,,,,,,,,,,,,,8158,2022-02-23_21h59.07.478,multiplicationStroop,2021.2.3,Win32,59.38947618,,,,,,,,,,,,,,,,,,,,,,,,,,,,,,,,,48,1.8308,1,0,2,2,18,1,8,×,6,8 × 6,congruent,largerFirst,2,1,48,,,,,,,,
,,,,,,,,,,,,,,,8158,2022-02-23_21h59.07.478,multiplicationStroop,2021.2.3,Win32,59.38947618,,,,,,,,,,,,,,,,,,,,,,,,,,,,,,,,,12,1.5145,1,0,3,3,19,1,6,×,2,6 × 2,congruent,largerFirst,2,1,12,,,,,,,,
,,,,,,,,,,,,,,,8158,2022-02-23_21h59.07.478,multiplicationStroop,2021.2.3,Win32,59.38947618,,,,,,,,,,,,,,,,,,,,,,,,,,,,,,,,,9,1.8483,1,0,4,4,29,1,3,×,3,3 × 3,neutral,tie,2,1,9,,,,,,,,
,,,,,,,,,,,,,,,8158,2022-02-23_21h59.07.478,multiplicationStroop,2021.2.3,Win32,59.38947618,,,,,,,,,,,,,,,,,,,,,,,,,,,,,,,,,42,2.2806,1,0,5,5,3,1,6,×,7,6 × 7,congruent,smallerFirst,1,2,42,,,,,,,,
,,,,,,,,,,,,,,,8158,2022-02-23_21h59.07.478,multiplicationStroop,2021.2.3,Win32,59.38947618,,,,,,,,,,,,,,,,,,,,,,,,,,,,,,,,,72,2.1637,1,0,6,6,17,1,9,×,8,9 × 8,congruent,largerFirst,2,1,72,,,,,,,,
,,,,,,,,,,,,,,,8158,2022-02-23_21h59.07.478,multiplicationStroop,2021.2.3,Win32,59.38947618,,,,,,,,,,,,,,,,,,,,,,,,,,,,,,,,,18,2.0314,1,0,7,7,22,1,9,×,2,9 × 2,congruent,largerFirst,2,1,18,,,,,,,,
,,,,,,,,,,,,,,,8158,2022-02-23_21h59.07.478,multiplicationStroop,2021.2.3,Win32,59.38947618,,,,,,,,,,,,,,,,,,,,,,,,,,,,,,,,,10,2.2145,1,0,8,8,24,1,5,×,2,5 × 2,congruent,largerFirst,2,1,10,,,,,,,,
,,,,,,,,,,,,,,,8158,2022-02-23_21h59.07.478,multiplicationStroop,2021.2.3,Win32,59.38947618,,,,,,,,,,,,,,,,,,,,,,,,,,,,,,,,,56,4.7466,1,0,9,9,8,1,7,×,8,7 × 8,congruent,smallerFirst,1,2,56,,,,,,,,
,,,,,,,,,,,,,,,8158,2022-02-23_21h59.07.478,multiplicationStroop,2021.2.3,Win32,59.38947618,,,,,,,,,,,,,,,,,,,,,,,,,,,,,,,,,16,1.7134,1,0,10,10,5,1,2,×,8,2 × 8,congruent,smallerFirst,1,2,16,,,,,,,,
,,,,,,,,,,,,,,,8158,2022-02-23_21h59.07.478,multiplicationStroop,2021.2.3,Win32,59.38947618,,,,,,,,,,,,,,,,,,,,,,,,,,,,,,,,,4,1.4815,1,0,11,11,28,1,2,×,2,2 × 2,neutral,tie,2,1,4,,,,,,,,
,,,,,,,,,,,,,,,8158,2022-02-23_21h59.07.478,multiplicationStroop,2021.2.3,Win32,59.38947618,,,,,,,,,,,,,,,,,,,,,,,,,,,,,,,,,12,1.9135,1,0,12,12,2,1,3,×,4,3 × 4,congruent,smallerFirst,1,2,12,,,,,,,,
,,,,,,,,,,,,,,,8158,2022-02-23_21h59.07.478,multiplicationStroop,2021.2.3,Win32,59.38947618,,,,,,,,,,,,,,,,,,,,,,,,,,,,,,,,,21,4.4302,1,0,13,13,16,1,7,×,3,7 × 3,congruent,largerFirst,2,1,21,,,,,,,,
,,,,,,,,,,,,,,,8158,2022-02-23_21h59.07.478,multiplicationStroop,2021.2.3,Win32,59.38947618,,,,,,,,,,,,,,,,,,,,,,,,,,,,,,,,,32,5.5485,1,0,14,14,20,1,8,×,4,8 × 4,congruent,largerFirst,2,1,32,,,,,,,,
,,,,,,,,,,,,,,,8158,2022-02-23_21h59.07.478,multiplicationStroop,2021.2.3,Win32,59.38947618,,,,,,,,,,,,,,,,,,,,,,,,,,,,,,,,,8,2.2497,1,0,15,15,9,1,2,×,4,2 × 4,congruent,smallerFirst,1,2,8,,,,,,,,
,,,,,,,,,,,,,,,8158,2022-02-23_21h59.07.478,multiplicationStroop,2021.2.3,Win32,59.38947618,,,,,,,,,,,,,,,,,,,,,,,,,,,,,,,,,49,2.2651,1,0,16,16,33,1,7,×,7,7 × 7,neutral,tie,2,1,49,,,,,,,,
,,,,,,,,,,,,,,,8158,2022-02-23_21h59.07.478,multiplicationStroop,2021.2.3,Win32,59.38947618,,,,,,,,,,,,,,,,,,,,,,,,,,,,,,,,,36,2.1639,1,0,17,17,32,1,6,×,6,6 × 6,neutral,tie,2,1,36,,,,,,,,
,,,,,,,,,,,,,,,8158,2022-02-23_21h59.07.478,multiplicationStroop,2021.2.3,Win32,59.38947618,,,,,,,,,,,,,,,,,,,,,,,,,,,,,,,,,36,3.7304,1,0,18,18,0,1,4,×,9,4 × 9,congruent,smallerFirst,1,2,36,,,,,,,,
,,,,,,,,,,,,,,,8158,2022-02-23_21h59.07.478,multiplicationStroop,2021.2.3,Win32,59.38947618,,,,,,,,,,,,,,,,,,,,,,,,,,,,,,,,,24,2.3842,1,0,19,19,10,1,3,×,8,3 × 8,congruent,smallerFirst,1,2,24,,,,,,,,
,,,,,,,,,,,,,,,8158,2022-02-23_21h59.07.478,multiplicationStroop,2021.2.3,Win32,59.38947618,,,,,,,,,,,,,,,,,,,,,,,,,,,,,,,,,16,2.0297,1,0,20,20,30,1,4,×,4,4 × 4,neutral,tie,2,1,16,,,,,,,,
,,,,,,,,,,,,,,,8158,2022-02-23_21h59.07.478,multiplicationStroop,2021.2.3,Win32,59.38947618,,,,,,,,,,,,,,,,,,,,,,,,,,,,,,,,,18,2.2647,1,0,21,21,11,1,3,×,6,3 × 6,congruent,smallerFirst,1,2,18,,,,,,,,
,,,,,,,,,,,,,,,8158,2022-02-23_21h59.07.478,multiplicationStroop,2021.2.3,Win32,59.38947618,,,,,,,,,,,,,,,,,,,,,,,,,,,,,,,,,64,2.101,1,0,22,22,34,1,8,×,8,8 × 8,neutral,tie,2,1,64,,,,,,,,
,,,,,,,,,,,,,,,8158,2022-02-23_21h59.07.478,multiplicationStroop,2021.2.3,Win32,59.38947618,,,,,,,,,,,,,,,,,,,,,,,,,,,,,,,,,15,1.9802,1,0,23,23,4,1,3,×,5,3 × 5,congruent,smallerFirst,1,2,15,,,,,,,,
,,,,,,,,,,,,,,,8158,2022-02-23_21h59.07.478,multiplicationStroop,2021.2.3,Win32,59.38947618,,,,,,,,,,,,,,,,,,,,,,,,,,,,,,,,,27,4.2795,1,0,24,24,26,1,9,×,3,9 × 3,congruent,largerFirst,2,1,27,,,,,,,,
,,,,,,,,,,,,,,,8158,2022-02-23_21h59.07.478,multiplicationStroop,2021.2.3,Win32,59.38947618,,,,,,,,,,,,,,,,,,,,,,,,,,,,,,,,,35,2.0842,1,0,25,25,1,1,5,×,7,5 × 7,congruent,smallerFirst,1,2,35,,,,,,,,
,,,,,,,,,,,,,,,8158,2022-02-23_21h59.07.478,multiplicationStroop,2021.2.3,Win32,59.38947618,,,,,,,,,,,,,,,,,,,,,,,,,,,,,,,,,81,3.0632,1,0,26,26,35,1,9,×,9,9 × 9,neutral,tie,2,1,81,,,,,,,,
,,,,,,,,,,,,,,,8158,2022-02-23_21h59.07.478,multiplicationStroop,2021.2.3,Win32,59.38947618,,,,,,,,,,,,,,,,,,,,,,,,,,,,,,,,,63,11.3098,1,0,27,27,21,1,9,×,7,9 × 7,congruent,largerFirst,2,1,63,,,,,,,,
,,,,,,,,,,,,,,,8158,2022-02-23_21h59.07.478,multiplicationStroop,2021.2.3,Win32,59.38947618,,,,,,,,,,,,,,,,,,,,,,,,,,,,,,,,,6,46.3565,1,0,28,28,13,1,2,×,3,2 × 3,congruent,smallerFirst,1,2,6,,,,,,,,
,,,,,,,,,,,,,,,8158,2022-02-23_21h59.07.478,multiplicationStroop,2021.2.3,Win32,59.38947618,,,,,,,,,,,,,,,,,,,,,,,,,,,,,,,,,25,1.73,1,0,29,29,31,1,5,×,5,5 × 5,neutral,tie,2,1,25,,,,,,,,
,,,,,,,,,,,,,,,8158,2022-02-23_21h59.07.478,multiplicationStroop,2021.2.3,Win32,59.38947618,,,,,,,,,,,,,,,,,,,,,,,,,,,,,,,,,45,2.681,1,0,30,30,23,1,9,×,5,9 × 5,congruent,largerFirst,2,1,45,,,,,,,,
,,,,,,,,,,,,,,,8158,2022-02-23_21h59.07.478,multiplicationStroop,2021.2.3,Win32,59.38947618,,,,,,,,,,,,,,,,,,,,,,,,,,,,,,,,,14,1.6842,1,0,31,31,14,1,7,×,2,7 × 2,congruent,largerFirst,2,1,14,,,,,,,,
,,,,,,,,,,,,,,,8158,2022-02-23_21h59.07.478,multiplicationStroop,2021.2.3,Win32,59.38947618,,,,,,,,,,,,,,,,,,,,,,,,,,,,,,,,,28,3.0968,1,0,32,32,27,1,7,×,4,7 × 4,congruent,largerFirst,2,1,28,,,,,,,,
,,,,,,,,,,,,,,,8158,2022-02-23_21h59.07.478,multiplicationStroop,2021.2.3,Win32,59.38947618,,,,,,,,,,,,,,,,,,,,,,,,,,,,,,,,,30,1.6483,1,0,33,33,15,1,6,×,5,6 × 5,congruent,largerFirst,2,1,30,,,,,,,,
,,,,,,,,,,,,,,,8158,2022-02-23_21h59.07.478,multiplicationStroop,2021.2.3,Win32,59.38947618,,,,,,,,,,,,,,,,,,,,,,,,,,,,,,,,,24,2.1143,1,0,34,34,25,1,6,×,4,6 × 4,congruent,largerFirst,2,1,24,,,,,,,,
,,,,,,,,,,,,,,,8158,2022-02-23_21h59.07.478,multiplicationStroop,2021.2.3,Win32,59.38947618,,,,,,,,,,,,,,,,,,,,,,,,,,,,,,,,,40,2.547,1,0,35,35,6,1,5,×,8,5 × 8,congruent,smallerFirst,1,2,40,,,,,,,,
,,,,,,,,,,,,,,,8158,2022-02-23_21h59.07.478,multiplicationStroop,2021.2.3,Win32,59.38947618,,,,,,,,,,,,,,,,,,,,,,,,,,,,,,,,,,,,,,,,,,,,,,,,,,0,4,4,2,1,stimulusFile/mult_blk3_congruent.xlsx,,
,,,,,,,,,,,,,,,8158,2022-02-23_21h59.07.478,multiplicationStroop,2021.2.3,Win32,59.38947618,,,,,,,,,,,,,,,,,,,,,,,,,,,,,,,space,0.9943,16,2.4872,1,0,0,0,30,1,4,×,4,4 × 4,neutral,tie,1.5,1.5,16,,,,,,,,
,,,,,,,,,,,,,,,8158,2022-02-23_21h59.07.478,multiplicationStroop,2021.2.3,Win32,59.38947618,,,,,,,,,,,,,,,,,,,,,,,,,,,,,,,,,14,1.5155,1,0,1,1,16,1,7,×,2,7 × 2,neutral,largerFirst,1.5,1.5,14,,,,,,,,
,,,,,,,,,,,,,,,8158,2022-02-23_21h59.07.478,multiplicationStroop,2021.2.3,Win32,59.38947618,,,,,,,,,,,,,,,,,,,,,,,,,,,,,,,,,36,2.4646,1,0,2,2,32,1,6,×,6,6 × 6,neutral,tie,1.5,1.5,36,,,,,,,,
,,,,,,,,,,,,,,,8158,2022-02-23_21h59.07.478,multiplicationStroop,2021.2.3,Win32,59.38947618,,,,,,,,,,,,,,,,,,,,,,,,,,,,,,,,,18,1.9656,1,0,3,3,0,1,3,×,6,3 × 6,neutral,smallerFirst,1.5,1.5,18,,,,,,,,
,,,,,,,,,,,,,,,8158,2022-02-23_21h59.07.478,multiplicationStroop,2021.2.3,Win32,59.38947618,,,,,,,,,,,,,,,,,,,,,,,,,,,,,,,,,48,2.5478,1,0,4,4,15,1,8,×,6,8 × 6,neutral,largerFirst,1.5,1.5,48,,,,,,,,
,,,,,,,,,,,,,,,8158,2022-02-23_21h59.07.478,multiplicationStroop,2021.2.3,Win32,59.38947618,,,,,,,,,,,,,,,,,,,,,,,,,,,,,,,,,25,1.5488,1,0,5,5,31,1,5,×,5,5 × 5,neutral,tie,1.5,1.5,25,,,,,,,,
,,,,,,,,,,,,,,,8158,2022-02-23_21h59.07.478,multiplicationStroop,2021.2.3,Win32,59.38947618,,,,,,,,,,,,,,,,,,,,,,,,,,,,,,,,,12,1.3323,1,0,6,6,21,1,4,×,3,4 × 3,neutral,largerFirst,1.5,1.5,12,,,,,,,,
,,,,,,,,,,,,,,,8158,2022-02-23_21h59.07.478,multiplicationStroop,2021.2.3,Win32,59.38947618,,,,,,,,,,,,,,,,,,,,,,,,,,,,,,,,,72,2.3315,1,0,7,7,11,1,8,×,9,8 × 9,neutral,smallerFirst,1.5,1.5,72,,,,,,,,
,,,,,,,,,,,,,,,8158,2022-02-23_21h59.07.478,multiplicationStroop,2021.2.3,Win32,59.38947618,,,,,,,,,,,,,,,,,,,,,,,,,,,,,,,,,24,3.3983,1,0,8,8,22,1,8,×,3,8 × 3,neutral,largerFirst,1.5,1.5,24,,,,,,,,
,,,,,,,,,,,,,,,8158,2022-02-23_21h59.07.478,multiplicationStroop,2021.2.3,Win32,59.38947618,,,,,,,,,,,,,,,,,,,,,,,,,,,,,,,,,16,5.3651,1,0,9,9,13,1,2,×,8,2 × 8,neutral,smallerFirst,1.5,1.5,16,,,,,,,,
,,,,,,,,,,,,,,,8158,2022-02-23_21h59.07.478,multiplicationStroop,2021.2.3,Win32,59.38947618,,,,,,,,,,,,,,,,,,,,,,,,,,,,,,,,,81,2.0173,1,0,10,10,35,1,9,×,9,9 × 9,neutral,tie,1.5,1.5,81,,,,,,,,
,,,,,,,,,,,,,,,8158,2022-02-23_21h59.07.478,multiplicationStroop,2021.2.3,Win32,59.38947618,,,,,,,,,,,,,,,,,,,,,,,,,,,,,,,,,63,2.8819,1,0,11,11,12,1,7,×,9,7 × 9,neutral,smallerFirst,1.5,1.5,63,,,,,,,,
,,,,,,,,,,,,,,,8158,2022-02-23_21h59.07.478,multiplicationStroop,2021.2.3,Win32,59.38947618,,,,,,,,,,,,,,,,,,,,,,,,,,,,,,,,,21,2.1338,1,0,12,12,8,1,3,×,7,3 × 7,neutral,smallerFirst,1.5,1.5,21,,,,,,,,
,,,,,,,,,,,,,,,8158,2022-02-23_21h59.07.478,multiplicationStroop,2021.2.3,Win32,59.38947618,,,,,,,,,,,,,,,,,,,,,,,,,,,,,,,,,4,1.4814,1,0,13,13,28,1,2,×,2,2 × 2,neutral,tie,1.5,1.5,4,,,,,,,,
,,,,,,,,,,,,,,,8158,2022-02-23_21h59.07.478,multiplicationStroop,2021.2.3,Win32,59.38947618,,,,,,,,,,,,,,,,,,,,,,,,,,,,,,,,,49,2.6983,1,0,14,14,33,1,7,×,7,7 × 7,neutral,tie,1.5,1.5,49,,,,,,,,
,,,,,,,,,,,,,,,8158,2022-02-23_21h59.07.478,multiplicationStroop,2021.2.3,Win32,59.38947618,,,,,,,,,,,,,,,,,,,,,,,,,,,,,,,,,35,2.5502,1,0,15,15,1,1,5,×,7,5 × 7,neutral,smallerFirst,1.5,1.5,35,,,,,,,,
,,,,,,,,,,,,,,,8158,2022-02-23_21h59.07.478,multiplicationStroop,2021.2.3,Win32,59.38947618,,,,,,,,,,,,,,,,,,,,,,,,,,,,,,,,,42,2.4317,1,0,16,16,6,1,6,×,7,6 × 7,neutral,smallerFirst,1.5,1.5,42,,,,,,,,
,,,,,,,,,,,,,,,8158,2022-02-23_21h59.07.478,multiplicationStroop,2021.2.3,Win32,59.38947618,,,,,,,,,,,,,,,,,,,,,,,,,,,,,,,,,28,2.5318,1,0,17,17,17,1,7,×,4,7 × 4,neutral,largerFirst,1.5,1.5,28,,,,,,,,
,,,,,,,,,,,,,,,8158,2022-02-23_21h59.07.478,multiplicationStroop,2021.2.3,Win32,59.38947618,,,,,,,,,,,,,,,,,,,,,,,,,,,,,,,,,18,1.8674,1,0,18,18,18,1,9,×,2,9 × 2,neutral,largerFirst,1.5,1.5,18,,,,,,,,
,,,,,,,,,,,,,,,8158,2022-02-23_21h59.07.478,multiplicationStroop,2021.2.3,Win32,59.38947618,,,,,,,,,,,,,,,,,,,,,,,,,,,,,,,,,20,1.6491,1,0,19,19,20,1,5,×,4,5 × 4,neutral,largerFirst,1.5,1.5,20,,,,,,,,
,,,,,,,,,,,,,,,8158,2022-02-23_21h59.07.478,multiplicationStroop,2021.2.3,Win32,59.38947618,,,,,,,,,,,,,,,,,,,,,,,,,,,,,,,,,6,1.6983,1,0,20,20,26,1,3,×,2,3 × 2,neutral,largerFirst,1.5,1.5,6,,,,,,,,
,,,,,,,,,,,,,,,8158,2022-02-23_21h59.07.478,multiplicationStroop,2021.2.3,Win32,59.38947618,,,,,,,,,,,,,,,,,,,,,,,,,,,,,,,,,24,1.7654,1,0,21,21,2,1,4,×,6,4 × 6,neutral,smallerFirst,1.5,1.5,24,,,,,,,,
,,,,,,,,,,,,,,,8158,2022-02-23_21h59.07.478,multiplicationStroop,2021.2.3,Win32,59.38947618,,,,,,,,,,,,,,,,,,,,,,,,,,,,,,,,,9,1.5153,1,0,22,22,29,1,3,×,3,3 × 3,neutral,tie,1.5,1.5,9,,,,,,,,
,,,,,,,,,,,,,,,8158,2022-02-23_21h59.07.478,multiplicationStroop,2021.2.3,Win32,59.38947618,,,,,,,,,,,,,,,,,,,,,,,,,,,,,,,,,15,1.8986,1,0,23,23,5,1,3,×,5,3 × 5,neutral,smallerFirst,1.5,1.5,15,,,,,,,,
,,,,,,,,,,,,,,,8158,2022-02-23_21h59.07.478,multiplicationStroop,2021.2.3,Win32,59.38947618,,,,,,,,,,,,,,,,,,,,,,,,,,,,,,,,,64,1.9154,1,0,24,24,34,1,8,×,8,8 × 8,neutral,tie,1.5,1.5,64,,,,,,,,
,,,,,,,,,,,,,,,8158,2022-02-23_21h59.07.478,multiplicationStroop,2021.2.3,Win32,59.38947618,,,,,,,,,,,,,,,,,,,,,,,,,,,,,,,,,27,2.0981,1,0,25,25,14,1,9,×,3,9 × 3,neutral,largerFirst,1.5,1.5,27,,,,,,,,
,,,,,,,,,,,,,,,8158,2022-02-23_21h59.07.478,multiplicationStroop,2021.2.3,Win32,59.38947618,,,,,,,,,,,,,,,,,,,,,,,,,,,,,,,,,10,1.6821,1,0,26,26,4,1,2,×,5,2 × 5,neutral,smallerFirst,1.5,1.5,10,,,,,,,,
,,,,,,,,,,,,,,,8158,2022-02-23_21h59.07.478,multiplicationStroop,2021.2.3,Win32,59.38947618,,,,,,,,,,,,,,,,,,,,,,,,,,,,,,,,,30,1.6988,1,0,27,27,19,1,6,×,5,6 × 5,neutral,largerFirst,1.5,1.5,30,,,,,,,,
,,,,,,,,,,,,,,,8158,2022-02-23_21h59.07.478,multiplicationStroop,2021.2.3,Win32,59.38947618,,,,,,,,,,,,,,,,,,,,,,,,,,,,,,,,,56,2.082,1,0,28,28,9,1,7,×,8,7 × 8,neutral,smallerFirst,1.5,1.5,56,,,,,,,,
,,,,,,,,,,,,,,,8158,2022-02-23_21h59.07.478,multiplicationStroop,2021.2.3,Win32,59.38947618,,,,,,,,,,,,,,,,,,,,,,,,,,,,,,,,,54,1.8175,1,0,29,29,7,1,6,×,9,6 × 9,neutral,smallerFirst,1.5,1.5,54,,,,,,,,
,,,,,,,,,,,,,,,8158,2022-02-23_21h59.07.478,multiplicationStroop,2021.2.3,Win32,59.38947618,,,,,,,,,,,,,,,,,,,,,,,,,,,,,,,,,4,1.7819,0,0,30,30,24,1,8,×,5,8 × 5,neutral,largerFirst,1.5,1.5,40,,,,,,,,
,,,,,,,,,,,,,,,8158,2022-02-23_21h59.07.478,multiplicationStroop,2021.2.3,Win32,59.38947618,,,,,,,,,,,,,,,,,,,,,,,,,,,,,,,,,12,2.265,1,0,31,31,25,1,6,×,2,6 × 2,neutral,largerFirst,1.5,1.5,12,,,,,,,,
,,,,,,,,,,,,,,,8158,2022-02-23_21h59.07.478,multiplicationStroop,2021.2.3,Win32,59.38947618,,,,,,,,,,,,,,,,,,,,,,,,,,,,,,,,,32,4.5807,1,0,32,32,23,1,8,×,4,8 × 4,neutral,largerFirst,1.5,1.5,32,,,,,,,,
,,,,,,,,,,,,,,,8158,2022-02-23_21h59.07.478,multiplicationStroop,2021.2.3,Win32,59.38947618,,,,,,,,,,,,,,,,,,,,,,,,,,,,,,,,,36,2.184,1,0,33,33,27,1,9,×,4,9 × 4,neutral,largerFirst,1.5,1.5,36,,,,,,,,
,,,,,,,,,,,,,,,8158,2022-02-23_21h59.07.478,multiplicationStroop,2021.2.3,Win32,59.38947618,,,,,,,,,,,,,,,,,,,,,,,,,,,,,,,,,8,1.8822,1,0,34,34,3,1,2,×,4,2 × 4,neutral,smallerFirst,1.5,1.5,8,,,,,,,,
,,,,,,,,,,,,,,,8158,2022-02-23_21h59.07.478,multiplicationStroop,2021.2.3,Win32,59.38947618,,,,,,,,,,,,,,,,,,,,,,,,,,,,,,,,,45,1.9485,1,0,35,35,10,1,5,×,9,5 × 9,neutral,smallerFirst,1.5,1.5,45,,,,,,,,
,,,,,,,,,,,,,,,8158,2022-02-23_21h59.07.478,multiplicationStroop,2021.2.3,Win32,59.38947618,,,,,,,,,,,,,,,,,,,,,,,,,,,,,,,,,,,,,,,,,,,,,,,,,,0,5,5,1,1,stimulusFile/mult_blk2.xlsx,,
,,,,,,,,,,,,,,,8158,2022-02-23_21h59.07.478,multiplicationStroop,2021.2.3,Win32,59.38947618,,,,,,,,,,,,,,,,,,,,,,,,,,,,,,,,,,,,,,,,,,,,,,,,,,,,,,,,space,3.5593