welcomeKey_resp.keys,welcomeKey_resp.rt,X Scale,Y Scale,rt_resp_4.keys,rt_resp_4.corr,rt_resp_4.rt,speedtest_2.thisRepN,speedtest_2.thisTrialN,speedtest_2.thisN,speedtest_2.thisIndex,speedtest_2.ran,numberSc,posX,positionLayout,participant,date,expName,psychopyVersion,OS,frameRate,ct_instrresp.keys,ct_instrresp.rt,key_resp_2.keys,key_resp_2.rt,ct_keyResp.keys,ct_keyResp.corr,ct_keyResp.rt,trials.thisRepN,trials.thisTrialN,trials.thisN,trials.thisIndex,trials.ran,leftNo,rightNo,displayProblem,numDistance,leftNo_size,rightNo_size,Dims,keyAnswer,TS_Loop.thisRepN,TS_Loop.thisTrialN,TS_Loop.thisN,TS_Loop.thisIndex,TS_Loop.ran,Condition,ActionInst,instrImage,mltptaskInst_resp.keys,mltptaskInst_resp.rt,continue_resp_2.keys,continue_resp_2.rt,multp_Answer,multi_RT,multiplyCorr,LoopingMultiply.thisRepN,LoopingMultiply.thisTrialN,LoopingMultiply.thisN,LoopingMultiply.thisIndex,LoopingMultiply.ran,factor1,multiplySign,factor2,multliplyProblem,physicalSize,orderOperand,sizeF1,sizeF2,mult_answer,trials_stroop.thisRepN,trials_stroop.thisTrialN,trials_stroop.thisN,trials_stroop.thisIndex,trials_stroop.ran,multiplicationFile,esckey_resp_2.keys,esckey_resp_2.rt
y,10.4948,49.8,49.4,left,1,0.4663,0,0,0,6,1,8,-200,left,815,2022-01-23_19h39.53.120,multiplicationStroop,2021.2.3,Win32,60.0240096,,,,,,,,,,,,,,,,,,,,,,,,,,,,,,,,,,,,,,,,,,,,,,,,,,,,,,,,,
,,,,right,1,0.3027,0,1,1,11,1,4,200,right,815,2022-01-23_19h39.53.120,multiplicationStroop,2021.2.3,Win32,60.0240096,,,,,,,,,,,,,,,,,,,,,,,,,,,,,,,,,,,,,,,,,,,,,,,,,,,,,,,,,
,,,,left,1,0.2987,0,2,2,5,1,7,-200,left,815,2022-01-23_19h39.53.120,multiplicationStroop,2021.2.3,Win32,60.0240096,,,,,,,,,,,,,,,,,,,,,,,,,,,,,,,,,,,,,,,,,,,,,,,,,,,,,,,,,
,,,,right,1,0.3059,0,3,3,13,1,7,200,right,815,2022-01-23_19h39.53.120,multiplicationStroop,2021.2.3,Win32,60.0240096,,,,,,,,,,,,,,,,,,,,,,,,,,,,,,,,,,,,,,,,,,,,,,,,,,,,,,,,,
,,,,left,1,0.2734,0,4,4,2,1,3,-200,left,815,2022-01-23_19h39.53.120,multiplicationStroop,2021.2.3,Win32,60.0240096,,,,,,,,,,,,,,,,,,,,,,,,,,,,,,,,,,,,,,,,,,,,,,,,,,,,,,,,,
,,,,right,1,0.2837,0,5,5,10,1,3,200,right,815,2022-01-23_19h39.53.120,multiplicationStroop,2021.2.3,Win32,60.0240096,,,,,,,,,,,,,,,,,,,,,,,,,,,,,,,,,,,,,,,,,,,,,,,,,,,,,,,,,
,,,,right,1,0.3202,0,6,6,8,1,1,200,right,815,2022-01-23_19h39.53.120,multiplicationStroop,2021.2.3,Win32,60.0240096,,,,,,,,,,,,,,,,,,,,,,,,,,,,,,,,,,,,,,,,,,,,,,,,,,,,,,,,,
,,,,right,1,0.3052,0,7,7,12,1,6,200,right,815,2022-01-23_19h39.53.120,multiplicationStroop,2021.2.3,Win32,60.0240096,,,,,,,,,,,,,,,,,,,,,,,,,,,,,,,,,,,,,,,,,,,,,,,,,,,,,,,,,
,,,,left,1,0.2652,0,8,8,7,1,9,-200,left,815,2022-01-23_19h39.53.120,multiplicationStroop,2021.2.3,Win32,60.0240096,,,,,,,,,,,,,,,,,,,,,,,,,,,,,,,,,,,,,,,,,,,,,,,,,,,,,,,,,
,,,,left,1,0.3405,0,9,9,3,1,4,-200,left,815,2022-01-23_19h39.53.120,multiplicationStroop,2021.2.3,Win32,60.0240096,,,,,,,,,,,,,,,,,,,,,,,,,,,,,,,,,,,,,,,,,,,,,,,,,,,,,,,,,
,,,,left,1,0.3246,0,10,10,4,1,6,-200,left,815,2022-01-23_19h39.53.120,multiplicationStroop,2021.2.3,Win32,60.0240096,,,,,,,,,,,,,,,,,,,,,,,,,,,,,,,,,,,,,,,,,,,,,,,,,,,,,,,,,
,,,,right,1,0.3568,0,11,11,14,1,8,200,right,815,2022-01-23_19h39.53.120,multiplicationStroop,2021.2.3,Win32,60.0240096,,,,,,,,,,,,,,,,,,,,,,,,,,,,,,,,,,,,,,,,,,,,,,,,,,,,,,,,,
,,,,right,1,0.3377,0,12,12,9,1,2,200,right,815,2022-01-23_19h39.53.120,multiplicationStroop,2021.2.3,Win32,60.0240096,,,,,,,,,,,,,,,,,,,,,,,,,,,,,,,,,,,,,,,,,,,,,,,,,,,,,,,,,
,,,,right,1,0.3153,0,13,13,15,1,9,200,right,815,2022-01-23_19h39.53.120,multiplicationStroop,2021.2.3,Win32,60.0240096,,,,,,,,,,,,,,,,,,,,,,,,,,,,,,,,,,,,,,,,,,,,,,,,,,,,,,,,,
,,,,left,1,0.2996,0,14,14,0,1,1,-200,left,815,2022-01-23_19h39.53.120,multiplicationStroop,2021.2.3,Win32,60.0240096,,,,,,,,,,,,,,,,,,,,,,,,,,,,,,,,,,,,,,,,,,,,,,,,,,,,,,,,,
,,,,left,1,0.3175,0,15,15,1,1,2,-200,left,815,2022-01-23_19h39.53.120,multiplicationStroop,2021.2.3,Win32,60.0240096,,,,,,,,,,,,,,,,,,,,,,,,,,,,,,,,,,,,,,,,,,,,,,,,,,,,,,,,,
,,,,left,1,0.3044,1,0,16,5,1,7,-200,left,815,2022-01-23_19h39.53.120,multiplicationStroop,2021.2.3,Win32,60.0240096,,,,,,,,,,,,,,,,,,,,,,,,,,,,,,,,,,,,,,,,,,,,,,,,,,,,,,,,,
,,,,left,1,0.3057,1,1,17,6,1,8,-200,left,815,2022-01-23_19h39.53.120,multiplicationStroop,2021.2.3,Win32,60.0240096,,,,,,,,,,,,,,,,,,,,,,,,,,,,,,,,,,,,,,,,,,,,,,,,,,,,,,,,,
,,,,left,1,0.2989,1,2,18,7,1,9,-200,left,815,2022-01-23_19h39.53.120,multiplicationStroop,2021.2.3,Win32,60.0240096,,,,,,,,,,,,,,,,,,,,,,,,,,,,,,,,,,,,,,,,,,,,,,,,,,,,,,,,,
,,,,left,1,0.2669,1,3,19,4,1,6,-200,left,815,2022-01-23_19h39.53.120,multiplicationStroop,2021.2.3,Win32,60.0240096,,,,,,,,,,,,,,,,,,,,,,,,,,,,,,,,,,,,,,,,,,,,,,,,,,,,,,,,,
,,,,right,1,0.3193,1,4,20,13,1,7,200,right,815,2022-01-23_19h39.53.120,multiplicationStroop,2021.2.3,Win32,60.0240096,,,,,,,,,,,,,,,,,,,,,,,,,,,,,,,,,,,,,,,,,,,,,,,,,,,,,,,,,
,,,,right,1,0.2905,1,5,21,15,1,9,200,right,815,2022-01-23_19h39.53.120,multiplicationStroop,2021.2.3,Win32,60.0240096,,,,,,,,,,,,,,,,,,,,,,,,,,,,,,,,,,,,,,,,,,,,,,,,,,,,,,,,,
,,,,right,1,0.2659,1,6,22,11,1,4,200,right,815,2022-01-23_19h39.53.120,multiplicationStroop,2021.2.3,Win32,60.0240096,,,,,,,,,,,,,,,,,,,,,,,,,,,,,,,,,,,,,,,,,,,,,,,,,,,,,,,,,
,,,,right,1,0.4653,1,7,23,12,1,6,200,right,815,2022-01-23_19h39.53.120,multiplicationStroop,2021.2.3,Win32,60.0240096,,,,,,,,,,,,,,,,,,,,,,,,,,,,,,,,,,,,,,,,,,,,,,,,,,,,,,,,,
,,,,right,1,0.2413,1,8,24,14,1,8,200,right,815,2022-01-23_19h39.53.120,multiplicationStroop,2021.2.3,Win32,60.0240096,,,,,,,,,,,,,,,,,,,,,,,,,,,,,,,,,,,,,,,,,,,,,,,,,,,,,,,,,
,,,,right,1,0.321,1,9,25,9,1,2,200,right,815,2022-01-23_19h39.53.120,multiplicationStroop,2021.2.3,Win32,60.0240096,,,,,,,,,,,,,,,,,,,,,,,,,,,,,,,,,,,,,,,,,,,,,,,,,,,,,,,,,
,,,,left,1,0.4838,1,10,26,2,1,3,-200,left,815,2022-01-23_19h39.53.120,multiplicationStroop,2021.2.3,Win32,60.0240096,,,,,,,,,,,,,,,,,,,,,,,,,,,,,,,,,,,,,,,,,,,,,,,,,,,,,,,,,
,,,,left,1,0.2788,1,11,27,0,1,1,-200,left,815,2022-01-23_19h39.53.120,multiplicationStroop,2021.2.3,Win32,60.0240096,,,,,,,,,,,,,,,,,,,,,,,,,,,,,,,,,,,,,,,,,,,,,,,,,,,,,,,,,
,,,,left,1,0.2512,1,12,28,1,1,2,-200,left,815,2022-01-23_19h39.53.120,multiplicationStroop,2021.2.3,Win32,60.0240096,,,,,,,,,,,,,,,,,,,,,,,,,,,,,,,,,,,,,,,,,,,,,,,,,,,,,,,,,
,,,,left,0,0.3298,1,13,29,8,1,1,200,right,815,2022-01-23_19h39.53.120,multiplicationStroop,2021.2.3,Win32,60.0240096,,,,,,,,,,,,,,,,,,,,,,,,,,,,,,,,,,,,,,,,,,,,,,,,,,,,,,,,,
,,,,left,1,0.4186,1,14,30,3,1,4,-200,left,815,2022-01-23_19h39.53.120,multiplicationStroop,2021.2.3,Win32,60.0240096,,,,,,,,,,,,,,,,,,,,,,,,,,,,,,,,,,,,,,,,,,,,,,,,,,,,,,,,,
,,,,right,1,0.2328,1,15,31,10,1,3,200,right,815,2022-01-23_19h39.53.120,multiplicationStroop,2021.2.3,Win32,60.0240096,,,,,,,,,,,,,,,,,,,,,,,,,,,,,,,,,,,,,,,,,,,,,,,,,,,,,,,,,
,,,,right,1,0.4042,2,0,32,10,1,3,200,right,815,2022-01-23_19h39.53.120,multiplicationStroop,2021.2.3,Win32,60.0240096,,,,,,,,,,,,,,,,,,,,,,,,,,,,,,,,,,,,,,,,,,,,,,,,,,,,,,,,,
,,,,left,1,0.3354,2,1,33,7,1,9,-200,left,815,2022-01-23_19h39.53.120,multiplicationStroop,2021.2.3,Win32,60.0240096,,,,,,,,,,,,,,,,,,,,,,,,,,,,,,,,,,,,,,,,,,,,,,,,,,,,,,,,,
,,,,left,1,0.3748,2,2,34,5,1,7,-200,left,815,2022-01-23_19h39.53.120,multiplicationStroop,2021.2.3,Win32,60.0240096,,,,,,,,,,,,,,,,,,,,,,,,,,,,,,,,,,,,,,,,,,,,,,,,,,,,,,,,,
,,,,right,1,0.2888,2,3,35,12,1,6,200,right,815,2022-01-23_19h39.53.120,multiplicationStroop,2021.2.3,Win32,60.0240096,,,,,,,,,,,,,,,,,,,,,,,,,,,,,,,,,,,,,,,,,,,,,,,,,,,,,,,,,
,,,,right,1,0.4075,2,4,36,8,1,1,200,right,815,2022-01-23_19h39.53.120,multiplicationStroop,2021.2.3,Win32,60.0240096,,,,,,,,,,,,,,,,,,,,,,,,,,,,,,,,,,,,,,,,,,,,,,,,,,,,,,,,,
,,,,right,1,0.356,2,5,37,9,1,2,200,right,815,2022-01-23_19h39.53.120,multiplicationStroop,2021.2.3,Win32,60.0240096,,,,,,,,,,,,,,,,,,,,,,,,,,,,,,,,,,,,,,,,,,,,,,,,,,,,,,,,,
,,,,right,1,0.5576,2,6,38,15,1,9,200,right,815,2022-01-23_19h39.53.120,multiplicationStroop,2021.2.3,Win32,60.0240096,,,,,,,,,,,,,,,,,,,,,,,,,,,,,,,,,,,,,,,,,,,,,,,,,,,,,,,,,
,,,,right,1,0.2794,2,7,39,13,1,7,200,right,815,2022-01-23_19h39.53.120,multiplicationStroop,2021.2.3,Win32,60.0240096,,,,,,,,,,,,,,,,,,,,,,,,,,,,,,,,,,,,,,,,,,,,,,,,,,,,,,,,,
,,,,right,1,0.2667,2,8,40,14,1,8,200,right,815,2022-01-23_19h39.53.120,multiplicationStroop,2021.2.3,Win32,60.0240096,,,,,,,,,,,,,,,,,,,,,,,,,,,,,,,,,,,,,,,,,,,,,,,,,,,,,,,,,
,,,,left,1,0.3493,2,9,41,1,1,2,-200,left,815,2022-01-23_19h39.53.120,multiplicationStroop,2021.2.3,Win32,60.0240096,,,,,,,,,,,,,,,,,,,,,,,,,,,,,,,,,,,,,,,,,,,,,,,,,,,,,,,,,
,,,,left,1,0.2994,2,10,42,2,1,3,-200,left,815,2022-01-23_19h39.53.120,multiplicationStroop,2021.2.3,Win32,60.0240096,,,,,,,,,,,,,,,,,,,,,,,,,,,,,,,,,,,,,,,,,,,,,,,,,,,,,,,,,
,,,,right,1,0.4654,2,11,43,11,1,4,200,right,815,2022-01-23_19h39.53.120,multiplicationStroop,2021.2.3,Win32,60.0240096,,,,,,,,,,,,,,,,,,,,,,,,,,,,,,,,,,,,,,,,,,,,,,,,,,,,,,,,,
,,,,left,1,0.2079,2,12,44,6,1,8,-200,left,815,2022-01-23_19h39.53.120,multiplicationStroop,2021.2.3,Win32,60.0240096,,,,,,,,,,,,,,,,,,,,,,,,,,,,,,,,,,,,,,,,,,,,,,,,,,,,,,,,,
,,,,left,1,0.3239,2,13,45,0,1,1,-200,left,815,2022-01-23_19h39.53.120,multiplicationStroop,2021.2.3,Win32,60.0240096,,,,,,,,,,,,,,,,,,,,,,,,,,,,,,,,,,,,,,,,,,,,,,,,,,,,,,,,,
,,,,left,1,0.2714,2,14,46,4,1,6,-200,left,815,2022-01-23_19h39.53.120,multiplicationStroop,2021.2.3,Win32,60.0240096,,,,,,,,,,,,,,,,,,,,,,,,,,,,,,,,,,,,,,,,,,,,,,,,,,,,,,,,,
,,,,left,1,0.2894,2,15,47,3,1,4,-200,left,815,2022-01-23_19h39.53.120,multiplicationStroop,2021.2.3,Win32,60.0240096,,,,,,,,,,,,,,,,,,,,,,,,,,,,,,,,,,,,,,,,,,,,,,,,,,,,,,,,,
,,,,right,1,0.3389,3,0,48,11,1,4,200,right,815,2022-01-23_19h39.53.120,multiplicationStroop,2021.2.3,Win32,60.0240096,,,,,,,,,,,,,,,,,,,,,,,,,,,,,,,,,,,,,,,,,,,,,,,,,,,,,,,,,
,,,,left,1,0.3136,3,1,49,2,1,3,-200,left,815,2022-01-23_19h39.53.120,multiplicationStroop,2021.2.3,Win32,60.0240096,,,,,,,,,,,,,,,,,,,,,,,,,,,,,,,,,,,,,,,,,,,,,,,,,,,,,,,,,
,,,,right,1,0.275,3,2,50,13,1,7,200,right,815,2022-01-23_19h39.53.120,multiplicationStroop,2021.2.3,Win32,60.0240096,,,,,,,,,,,,,,,,,,,,,,,,,,,,,,,,,,,,,,,,,,,,,,,,,,,,,,,,,
,,,,left,1,0.2659,3,3,51,1,1,2,-200,left,815,2022-01-23_19h39.53.120,multiplicationStroop,2021.2.3,Win32,60.0240096,,,,,,,,,,,,,,,,,,,,,,,,,,,,,,,,,,,,,,,,,,,,,,,,,,,,,,,,,
,,,,left,1,0.3161,3,4,52,3,1,4,-200,left,815,2022-01-23_19h39.53.120,multiplicationStroop,2021.2.3,Win32,60.0240096,,,,,,,,,,,,,,,,,,,,,,,,,,,,,,,,,,,,,,,,,,,,,,,,,,,,,,,,,
,,,,left,0,0.2573,3,5,53,15,1,9,200,right,815,2022-01-23_19h39.53.120,multiplicationStroop,2021.2.3,Win32,60.0240096,,,,,,,,,,,,,,,,,,,,,,,,,,,,,,,,,,,,,,,,,,,,,,,,,,,,,,,,,
,,,,right,1,0.4345,3,6,54,9,1,2,200,right,815,2022-01-23_19h39.53.120,multiplicationStroop,2021.2.3,Win32,60.0240096,,,,,,,,,,,,,,,,,,,,,,,,,,,,,,,,,,,,,,,,,,,,,,,,,,,,,,,,,
,,,,right,0,0.3016,3,7,55,7,1,9,-200,left,815,2022-01-23_19h39.53.120,multiplicationStroop,2021.2.3,Win32,60.0240096,,,,,,,,,,,,,,,,,,,,,,,,,,,,,,,,,,,,,,,,,,,,,,,,,,,,,,,,,
,,,,right,1,0.4176,3,8,56,10,1,3,200,right,815,2022-01-23_19h39.53.120,multiplicationStroop,2021.2.3,Win32,60.0240096,,,,,,,,,,,,,,,,,,,,,,,,,,,,,,,,,,,,,,,,,,,,,,,,,,,,,,,,,
,,,,right,1,0.3079,3,9,57,8,1,1,200,right,815,2022-01-23_19h39.53.120,multiplicationStroop,2021.2.3,Win32,60.0240096,,,,,,,,,,,,,,,,,,,,,,,,,,,,,,,,,,,,,,,,,,,,,,,,,,,,,,,,,
,,,,left,1,0.2813,3,10,58,0,1,1,-200,left,815,2022-01-23_19h39.53.120,multiplicationStroop,2021.2.3,Win32,60.0240096,,,,,,,,,,,,,,,,,,,,,,,,,,,,,,,,,,,,,,,,,,,,,,,,,,,,,,,,,
,,,,right,1,0.2582,3,11,59,14,1,8,200,right,815,2022-01-23_19h39.53.120,multiplicationStroop,2021.2.3,Win32,60.0240096,,,,,,,,,,,,,,,,,,,,,,,,,,,,,,,,,,,,,,,,,,,,,,,,,,,,,,,,,
,,,,left,1,0.2726,3,12,60,6,1,8,-200,left,815,2022-01-23_19h39.53.120,multiplicationStroop,2021.2.3,Win32,60.0240096,,,,,,,,,,,,,,,,,,,,,,,,,,,,,,,,,,,,,,,,,,,,,,,,,,,,,,,,,
,,,,left,1,0.3164,3,13,61,5,1,7,-200,left,815,2022-01-23_19h39.53.120,multiplicationStroop,2021.2.3,Win32,60.0240096,,,,,,,,,,,,,,,,,,,,,,,,,,,,,,,,,,,,,,,,,,,,,,,,,,,,,,,,,
,,,,left,1,0.2793,3,14,62,4,1,6,-200,left,815,2022-01-23_19h39.53.120,multiplicationStroop,2021.2.3,Win32,60.0240096,,,,,,,,,,,,,,,,,,,,,,,,,,,,,,,,,,,,,,,,,,,,,,,,,,,,,,,,,
,,,,right,1,0.3331,3,15,63,12,1,6,200,right,815,2022-01-23_19h39.53.120,multiplicationStroop,2021.2.3,Win32,60.0240096,,,,,,,,,,,,,,,,,,,,,,,,,,,,,,,,,,,,,,,,,,,,,,,,,,,,,,,,,
,,,,,,,,,,,,,,,815,2022-01-23_19h39.53.120,multiplicationStroop,2021.2.3,Win32,60.0240096,space,14.2465,space,3.7926,right,1,0.8379,0,0,0,18,1,3,8,3 | 8,5,1.4111,1.9756,congruent,right,,,,,,stimulusFile/physical.xlsx,,,,,,,,,,,,,,,,,,,,,,,,,,,,,,,
,,,,,,,,,,,,,,,815,2022-01-23_19h39.53.120,multiplicationStroop,2021.2.3,Win32,60.0240096,,,,,left,1,0.6216,0,1,1,24,1,1,2,1 | 2,1,1.9756,1.4111,incongruent,left,,,,,,stimulusFile/physical.xlsx,,,,,,,,,,,,,,,,,,,,,,,,,,,,,,,
,,,,,,,,,,,,,,,815,2022-01-23_19h39.53.120,multiplicationStroop,2021.2.3,Win32,60.0240096,,,,,left,1,0.4586,0,2,2,6,1,7,6,7 | 6,1,1.9756,1.4111,congruent,left,,,,,,stimulusFile/physical.xlsx,,,,,,,,,,,,,,,,,,,,,,,,,,,,,,,
,,,,,,,,,,,,,,,815,2022-01-23_19h39.53.120,multiplicationStroop,2021.2.3,Win32,60.0240096,,,,,left,1,0.5321,0,3,3,40,1,1,6,1 | 6,5,1.9756,1.4111,incongruent,left,,,,,,stimulusFile/physical.xlsx,,,,,,,,,,,,,,,,,,,,,,,,,,,,,,,
,,,,,,,,,,,,,,,815,2022-01-23_19h39.53.120,multiplicationStroop,2021.2.3,Win32,60.0240096,,,,,right,1,0.4044,0,4,4,11,1,7,9,7 | 9,2,1.4111,1.9756,congruent,right,,,,,,stimulusFile/physical.xlsx,,,,,,,,,,,,,,,,,,,,,,,,,,,,,,,
,,,,,,,,,,,,,,,815,2022-01-23_19h39.53.120,multiplicationStroop,2021.2.3,Win32,60.0240096,,,,,right,1,0.4206,0,5,5,3,1,8,9,8 | 9,1,1.4111,1.9756,congruent,right,,,,,,stimulusFile/physical.xlsx,,,,,,,,,,,,,,,,,,,,,,,,,,,,,,,
,,,,,,,,,,,,,,,815,2022-01-23_19h39.53.120,multiplicationStroop,2021.2.3,Win32,60.0240096,,,,,right,1,0.4873,0,6,6,60,1,3,3,3 | 3,0,1.4111,1.9756,neutral,right,,,,,,stimulusFile/physical.xlsx,,,,,,,,,,,,,,,,,,,,,,,,,,,,,,,
,,,,,,,,,,,,,,,815,2022-01-23_19h39.53.120,multiplicationStroop,2021.2.3,Win32,60.0240096,,,,,right,1,0.4367,0,7,7,58,1,6,6,6 | 6,0,1.4111,1.9756,neutral,right,,,,,,stimulusFile/physical.xlsx,,,,,,,,,,,,,,,,,,,,,,,,,,,,,,,
,,,,,,,,,,,,,,,815,2022-01-23_19h39.53.120,multiplicationStroop,2021.2.3,Win32,60.0240096,,,,,right,1,0.4197,0,8,8,39,1,9,7,9 | 7,2,1.4111,1.9756,incongruent,right,,,,,,stimulusFile/physical.xlsx,,,,,,,,,,,,,,,,,,,,,,,,,,,,,,,
,,,,,,,,,,,,,,,815,2022-01-23_19h39.53.120,multiplicationStroop,2021.2.3,Win32,60.0240096,,,,,right,1,0.5798,0,9,9,57,1,2,2,2 | 2,0,1.4111,1.9756,neutral,right,,,,,,stimulusFile/physical.xlsx,,,,,,,,,,,,,,,,,,,,,,,,,,,,,,,
,,,,,,,,,,,,,,,815,2022-01-23_19h39.53.120,multiplicationStroop,2021.2.3,Win32,60.0240096,,,,,left,1,0.4356,0,10,10,26,1,6,7,6 | 7,1,1.9756,1.4111,incongruent,left,,,,,,stimulusFile/physical.xlsx,,,,,,,,,,,,,,,,,,,,,,,,,,,,,,,
,,,,,,,,,,,,,,,815,2022-01-23_19h39.53.120,multiplicationStroop,2021.2.3,Win32,60.0240096,,,,,left,1,0.5327,0,11,11,27,1,8,9,8 | 9,1,1.9756,1.4111,incongruent,left,,,,,,stimulusFile/physical.xlsx,,,,,,,,,,,,,,,,,,,,,,,,,,,,,,,
,,,,,,,,,,,,,,,815,2022-01-23_19h39.53.120,multiplicationStroop,2021.2.3,Win32,60.0240096,,,,,right,1,0.385,0,12,12,9,1,2,4,2 | 4,2,1.4111,1.9756,congruent,right,,,,,,stimulusFile/physical.xlsx,,,,,,,,,,,,,,,,,,,,,,,,,,,,,,,
,,,,,,,,,,,,,,,815,2022-01-23_19h39.53.120,multiplicationStroop,2021.2.3,Win32,60.0240096,,,,,left,1,0.4298,0,13,13,50,1,6,6,6 | 6,0,1.9756,1.4111,neutral,left,,,,,,stimulusFile/physical.xlsx,,,,,,,,,,,,,,,,,,,,,,,,,,,,,,,
,,,,,,,,,,,,,,,815,2022-01-23_19h39.53.120,multiplicationStroop,2021.2.3,Win32,60.0240096,,,,,right,1,0.4668,0,14,14,61,1,4,4,4 | 4,0,1.4111,1.9756,neutral,right,,,,,,stimulusFile/physical.xlsx,,,,,,,,,,,,,,,,,,,,,,,,,,,,,,,
,,,,,,,,,,,,,,,815,2022-01-23_19h39.53.120,multiplicationStroop,2021.2.3,Win32,60.0240096,,,,,right,1,0.6236,0,15,15,28,1,2,1,2 | 1,1,1.4111,1.9756,incongruent,right,,,,,,stimulusFile/physical.xlsx,,,,,,,,,,,,,,,,,,,,,,,,,,,,,,,
,,,,,,,,,,,,,,,815,2022-01-23_19h39.53.120,multiplicationStroop,2021.2.3,Win32,60.0240096,,,,,left,0,0.4185,0,16,16,44,1,6,1,6 | 1,5,1.4111,1.9756,incongruent,right,,,,,,stimulusFile/physical.xlsx,,,,,,,,,,,,,,,,,,,,,,,,,,,,,,,
,,,,,,,,,,,,,,,815,2022-01-23_19h39.53.120,multiplicationStroop,2021.2.3,Win32,60.0240096,,,,,right,0,0.5004,0,17,17,71,1,9,9,9 | 9,0,1.4111,1.9756,neutral,left,,,,,,stimulusFile/physical.xlsx,,,,,,,,,,,,,,,,,,,,,,,,,,,,,,,
,,,,,,,,,,,,,,,815,2022-01-23_19h39.53.120,multiplicationStroop,2021.2.3,Win32,60.0240096,,,,,left,1,0.44,0,18,18,41,1,2,7,2 | 7,5,1.9756,1.4111,incongruent,left,,,,,,stimulusFile/physical.xlsx,,,,,,,,,,,,,,,,,,,,,,,,,,,,,,,
,,,,,,,,,,,,,,,815,2022-01-23_19h39.53.120,multiplicationStroop,2021.2.3,Win32,60.0240096,,,,,right,1,0.5723,0,19,19,47,1,9,4,9 | 4,5,1.4111,1.9756,incongruent,right,,,,,,stimulusFile/physical.xlsx,,,,,,,,,,,,,,,,,,,,,,,,,,,,,,,
,,,,,,,,,,,,,,,815,2022-01-23_19h39.53.120,multiplicationStroop,2021.2.3,Win32,60.0240096,,,,,left,1,0.3814,0,20,20,42,1,3,8,3 | 8,5,1.9756,1.4111,incongruent,left,,,,,,stimulusFile/physical.xlsx,,,,,,,,,,,,,,,,,,,,,,,,,,,,,,,
,,,,,,,,,,,,,,,815,2022-01-23_19h39.53.120,multiplicationStroop,2021.2.3,Win32,60.0240096,,,,,left,1,0.5607,0,21,21,33,1,2,4,2 | 4,2,1.9756,1.4111,incongruent,left,,,,,,stimulusFile/physical.xlsx,,,,,,,,,,,,,,,,,,,,,,,,,,,,,,,
,,,,,,,,,,,,,,,815,2022-01-23_19h39.53.120,multiplicationStroop,2021.2.3,Win32,60.0240096,,,,,right,1,0.4682,0,22,22,36,1,3,1,3 | 1,2,1.4111,1.9756,incongruent,right,,,,,,stimulusFile/physical.xlsx,,,,,,,,,,,,,,,,,,,,,,,,,,,,,,,
,,,,,,,,,,,,,,,815,2022-01-23_19h39.53.120,multiplicationStroop,2021.2.3,Win32,60.0240096,,,,,left,1,0.4941,0,23,23,21,1,7,2,7 | 2,5,1.9756,1.4111,congruent,left,,,,,,stimulusFile/physical.xlsx,,,,,,,,,,,,,,,,,,,,,,,,,,,,,,,
,,,,,,,,,,,,,,,815,2022-01-23_19h39.53.120,multiplicationStroop,2021.2.3,Win32,60.0240096,,,,,right,1,0.4329,0,24,24,17,1,2,7,2 | 7,5,1.4111,1.9756,congruent,right,,,,,,stimulusFile/physical.xlsx,,,,,,,,,,,,,,,,,,,,,,,,,,,,,,,
,,,,,,,,,,,,,,,815,2022-01-23_19h39.53.120,multiplicationStroop,2021.2.3,Win32,60.0240096,,,,,left,1,0.4794,0,25,25,22,1,8,3,8 | 3,5,1.9756,1.4111,congruent,left,,,,,,stimulusFile/physical.xlsx,,,,,,,,,,,,,,,,,,,,,,,,,,,,,,,
,,,,,,,,,,,,,,,815,2022-01-23_19h39.53.120,multiplicationStroop,2021.2.3,Win32,60.0240096,,,,,right,1,0.4161,0,26,26,65,1,2,2,2 | 2,0,1.4111,1.9756,neutral,right,,,,,,stimulusFile/physical.xlsx,,,,,,,,,,,,,,,,,,,,,,,,,,,,,,,
,,,,,,,,,,,,,,,815,2022-01-23_19h39.53.120,multiplicationStroop,2021.2.3,Win32,60.0240096,,,,,right,1,0.5672,0,27,27,59,1,7,7,7 | 7,0,1.4111,1.9756,neutral,right,,,,,,stimulusFile/physical.xlsx,,,,,,,,,,,,,,,,,,,,,,,,,,,,,,,
,,,,,,,,,,,,,,,815,2022-01-23_19h39.53.120,multiplicationStroop,2021.2.3,Win32,60.0240096,,,,,left,0,0.4779,0,28,28,8,1,1,3,1 | 3,2,1.4111,1.9756,congruent,right,,,,,,stimulusFile/physical.xlsx,,,,,,,,,,,,,,,,,,,,,,,,,,,,,,,
,,,,,,,,,,,,,,,815,2022-01-23_19h39.53.120,multiplicationStroop,2021.2.3,Win32,60.0240096,,,,,left,1,0.5031,0,29,29,4,1,2,1,2 | 1,1,1.9756,1.4111,congruent,left,,,,,,stimulusFile/physical.xlsx,,,,,,,,,,,,,,,,,,,,,,,,,,,,,,,
,,,,,,,,,,,,,,,815,2022-01-23_19h39.53.120,multiplicationStroop,2021.2.3,Win32,60.0240096,,,,,left,1,0.4631,0,30,30,5,1,4,3,4 | 3,1,1.9756,1.4111,congruent,left,,,,,,stimulusFile/physical.xlsx,,,,,,,,,,,,,,,,,,,,,,,,,,,,,,,
,,,,,,,,,,,,,,,815,2022-01-23_19h39.53.120,multiplicationStroop,2021.2.3,Win32,60.0240096,,,,,left,1,0.406,0,31,31,12,1,3,1,3 | 1,2,1.9756,1.4111,congruent,left,,,,,,stimulusFile/physical.xlsx,,,,,,,,,,,,,,,,,,,,,,,,,,,,,,,
,,,,,,,,,,,,,,,815,2022-01-23_19h39.53.120,multiplicationStroop,2021.2.3,Win32,60.0240096,,,,,left,1,0.4212,0,32,32,25,1,3,4,3 | 4,1,1.9756,1.4111,incongruent,left,,,,,,stimulusFile/physical.xlsx,,,,,,,,,,,,,,,,,,,,,,,,,,,,,,,
,,,,,,,,,,,,,,,815,2022-01-23_19h39.53.120,multiplicationStroop,2021.2.3,Win32,60.0240096,,,,,right,1,0.4471,0,33,33,10,1,6,8,6 | 8,2,1.4111,1.9756,congruent,right,,,,,,stimulusFile/physical.xlsx,,,,,,,,,,,,,,,,,,,,,,,,,,,,,,,
,,,,,,,,,,,,,,,815,2022-01-23_19h39.53.120,multiplicationStroop,2021.2.3,Win32,60.0240096,,,,,right,1,0.448,0,34,34,19,1,4,9,4 | 9,5,1.4111,1.9756,congruent,right,,,,,,stimulusFile/physical.xlsx,,,,,,,,,,,,,,,,,,,,,,,,,,,,,,,
,,,,,,,,,,,,,,,815,2022-01-23_19h39.53.120,multiplicationStroop,2021.2.3,Win32,60.0240096,,,,,right,1,0.4489,0,35,35,2,1,6,7,6 | 7,1,1.4111,1.9756,congruent,right,,,,,,stimulusFile/physical.xlsx,,,,,,,,,,,,,,,,,,,,,,,,,,,,,,,
,,,,,,,,,,,,,,,815,2022-01-23_19h39.53.120,multiplicationStroop,2021.2.3,Win32,60.0240096,,,,,left,1,0.3847,0,36,36,15,1,9,7,9 | 7,2,1.9756,1.4111,congruent,left,,,,,,stimulusFile/physical.xlsx,,,,,,,,,,,,,,,,,,,,,,,,,,,,,,,
,,,,,,,,,,,,,,,815,2022-01-23_19h39.53.120,multiplicationStroop,2021.2.3,Win32,60.0240096,,,,,left,1,0.4044,0,37,37,14,1,8,6,8 | 6,2,1.9756,1.4111,congruent,left,,,,,,stimulusFile/physical.xlsx,,,,,,,,,,,,,,,,,,,,,,,,,,,,,,,
,,,,,,,,,,,,,,,815,2022-01-23_19h39.53.120,multiplicationStroop,2021.2.3,Win32,60.0240096,,,,,left,1,0.4396,0,38,38,23,1,9,4,9 | 4,5,1.9756,1.4111,congruent,left,,,,,,stimulusFile/physical.xlsx,,,,,,,,,,,,,,,,,,,,,,,,,,,,,,,
,,,,,,,,,,,,,,,815,2022-01-23_19h39.53.120,multiplicationStroop,2021.2.3,Win32,60.0240096,,,,,left,0,0.4202,0,39,39,64,1,1,1,1 | 1,0,1.9756,1.4111,neutral,right,,,,,,stimulusFile/physical.xlsx,,,,,,,,,,,,,,,,,,,,,,,,,,,,,,,
,,,,,,,,,,,,,,,815,2022-01-23_19h39.53.120,multiplicationStroop,2021.2.3,Win32,60.0240096,,,,,right,1,0.4735,0,40,40,45,1,7,2,7 | 2,5,1.4111,1.9756,incongruent,right,,,,,,stimulusFile/physical.xlsx,,,,,,,,,,,,,,,,,,,,,,,,,,,,,,,
,,,,,,,,,,,,,,,815,2022-01-23_19h39.53.120,multiplicationStroop,2021.2.3,Win32,60.0240096,,,,,right,1,0.4822,0,41,41,30,1,7,6,7 | 6,1,1.4111,1.9756,incongruent,right,,,,,,stimulusFile/physical.xlsx,,,,,,,,,,,,,,,,,,,,,,,,,,,,,,,
,,,,,,,,,,,,,,,815,2022-01-23_19h39.53.120,multiplicationStroop,2021.2.3,Win32,60.0240096,,,,,left,1,0.4144,0,42,42,34,1,6,8,6 | 8,2,1.9756,1.4111,incongruent,left,,,,,,stimulusFile/physical.xlsx,,,,,,,,,,,,,,,,,,,,,,,,,,,,,,,
,,,,,,,,,,,,,,,815,2022-01-23_19h39.53.120,multiplicationStroop,2021.2.3,Win32,60.0240096,,,,,left,0,0.429,0,43,43,66,1,3,3,3 | 3,0,1.9756,1.4111,neutral,right,,,,,,stimulusFile/physical.xlsx,,,,,,,,,,,,,,,,,,,,,,,,,,,,,,,
,,,,,,,,,,,,,,,815,2022-01-23_19h39.53.120,multiplicationStroop,2021.2.3,Win32,60.0240096,,,,,right,1,0.418,0,44,44,31,1,9,8,9 | 8,1,1.4111,1.9756,incongruent,right,,,,,,stimulusFile/physical.xlsx,,,,,,,,,,,,,,,,,,,,,,,,,,,,,,,
,,,,,,,,,,,,,,,815,2022-01-23_19h39.53.120,multiplicationStroop,2021.2.3,Win32,60.0240096,,,,,left,1,0.382,0,45,45,20,1,6,1,6 | 1,5,1.9756,1.4111,congruent,left,,,,,,stimulusFile/physical.xlsx,,,,,,,,,,,,,,,,,,,,,,,,,,,,,,,
,,,,,,,,,,,,,,,815,2022-01-23_19h39.53.120,multiplicationStroop,2021.2.3,Win32,60.0240096,,,,,right,1,0.4505,0,46,46,37,1,4,2,4 | 2,2,1.4111,1.9756,incongruent,right,,,,,,stimulusFile/physical.xlsx,,,,,,,,,,,,,,,,,,,,,,,,,,,,,,,
,,,,,,,,,,,,,,,815,2022-01-23_19h39.53.120,multiplicationStroop,2021.2.3,Win32,60.0240096,,,,,left,1,0.5135,0,47,47,13,1,4,2,4 | 2,2,1.9756,1.4111,congruent,left,,,,,,stimulusFile/physical.xlsx,,,,,,,,,,,,,,,,,,,,,,,,,,,,,,,
,,,,,,,,,,,,,,,815,2022-01-23_19h39.53.120,multiplicationStroop,2021.2.3,Win32,60.0240096,,,,,right,1,0.4284,0,48,48,1,1,3,4,3 | 4,1,1.4111,1.9756,congruent,right,,,,,,stimulusFile/physical.xlsx,,,,,,,,,,,,,,,,,,,,,,,,,,,,,,,
,,,,,,,,,,,,,,,815,2022-01-23_19h39.53.120,multiplicationStroop,2021.2.3,Win32,60.0240096,,,,,right,1,0.4225,0,49,49,38,1,8,6,8 | 6,2,1.4111,1.9756,incongruent,right,,,,,,stimulusFile/physical.xlsx,,,,,,,,,,,,,,,,,,,,,,,,,,,,,,,
,,,,,,,,,,,,,,,815,2022-01-23_19h39.53.120,multiplicationStroop,2021.2.3,Win32,60.0240096,,,,,right,1,0.53,0,50,50,29,1,4,3,4 | 3,1,1.4111,1.9756,incongruent,right,,,,,,stimulusFile/physical.xlsx,,,,,,,,,,,,,,,,,,,,,,,,,,,,,,,
,,,,,,,,,,,,,,,815,2022-01-23_19h39.53.120,multiplicationStroop,2021.2.3,Win32,60.0240096,,,,,left,1,0.4482,0,51,51,70,1,8,8,8 | 8,0,1.9756,1.4111,neutral,left,,,,,,stimulusFile/physical.xlsx,,,,,,,,,,,,,,,,,,,,,,,,,,,,,,,
,,,,,,,,,,,,,,,815,2022-01-23_19h39.53.120,multiplicationStroop,2021.2.3,Win32,60.0240096,,,,,right,1,0.3851,0,52,52,63,1,9,9,9 | 9,0,1.4111,1.9756,neutral,right,,,,,,stimulusFile/physical.xlsx,,,,,,,,,,,,,,,,,,,,,,,,,,,,,,,
,,,,,,,,,,,,,,,815,2022-01-23_19h39.53.120,multiplicationStroop,2021.2.3,Win32,60.0240096,,,,,left,0,0.3468,0,53,53,56,1,1,1,1 | 1,0,1.4111,1.9756,neutral,right,,,,,,stimulusFile/physical.xlsx,,,,,,,,,,,,,,,,,,,,,,,,,,,,,,,
,,,,,,,,,,,,,,,815,2022-01-23_19h39.53.120,multiplicationStroop,2021.2.3,Win32,60.0240096,,,,,right,1,0.4778,0,54,54,67,1,4,4,4 | 4,0,1.4111,1.9756,neutral,right,,,,,,stimulusFile/physical.xlsx,,,,,,,,,,,,,,,,,,,,,,,,,,,,,,,
,,,,,,,,,,,,,,,815,2022-01-23_19h39.53.120,multiplicationStroop,2021.2.3,Win32,60.0240096,,,,,left,1,0.4658,0,55,55,52,1,2,2,2 | 2,0,1.9756,1.4111,neutral,left,,,,,,stimulusFile/physical.xlsx,,,,,,,,,,,,,,,,,,,,,,,,,,,,,,,
,,,,,,,,,,,,,,,815,2022-01-23_19h39.53.120,multiplicationStroop,2021.2.3,Win32,60.0240096,,,,,right,0,0.4279,0,56,56,43,1,4,9,4 | 9,5,1.9756,1.4111,incongruent,left,,,,,,stimulusFile/physical.xlsx,,,,,,,,,,,,,,,,,,,,,,,,,,,,,,,
,,,,,,,,,,,,,,,815,2022-01-23_19h39.53.120,multiplicationStroop,2021.2.3,Win32,60.0240096,,,,,left,1,0.5834,0,57,57,68,1,6,6,6 | 6,0,1.9756,1.4111,neutral,left,,,,,,stimulusFile/physical.xlsx,,,,,,,,,,,,,,,,,,,,,,,,,,,,,,,
,,,,,,,,,,,,,,,815,2022-01-23_19h39.53.120,multiplicationStroop,2021.2.3,Win32,60.0240096,,,,,right,0,0.3807,0,58,58,69,1,7,7,7 | 7,0,1.4111,1.9756,neutral,left,,,,,,stimulusFile/physical.xlsx,,,,,,,,,,,,,,,,,,,,,,,,,,,,,,,
,,,,,,,,,,,,,,,815,2022-01-23_19h39.53.120,multiplicationStroop,2021.2.3,Win32,60.0240096,,,,,right,1,0.4061,0,59,59,16,1,1,6,1 | 6,5,1.4111,1.9756,congruent,right,,,,,,stimulusFile/physical.xlsx,,,,,,,,,,,,,,,,,,,,,,,,,,,,,,,
,,,,,,,,,,,,,,,815,2022-01-23_19h39.53.120,multiplicationStroop,2021.2.3,Win32,60.0240096,,,,,left,1,0.4185,0,60,60,7,1,9,8,9 | 8,1,1.9756,1.4111,congruent,left,,,,,,stimulusFile/physical.xlsx,,,,,,,,,,,,,,,,,,,,,,,,,,,,,,,
,,,,,,,,,,,,,,,815,2022-01-23_19h39.53.120,multiplicationStroop,2021.2.3,Win32,60.0240096,,,,,left,1,0.3847,0,61,61,35,1,7,9,7 | 9,2,1.9756,1.4111,incongruent,left,,,,,,stimulusFile/physical.xlsx,,,,,,,,,,,,,,,,,,,,,,,,,,,,,,,
,,,,,,,,,,,,,,,815,2022-01-23_19h39.53.120,multiplicationStroop,2021.2.3,Win32,60.0240096,,,,,left,1,0.5015,0,62,62,49,1,3,3,3 | 3,0,1.9756,1.4111,neutral,left,,,,,,stimulusFile/physical.xlsx,,,,,,,,,,,,,,,,,,,,,,,,,,,,,,,
,,,,,,,,,,,,,,,815,2022-01-23_19h39.53.120,multiplicationStroop,2021.2.3,Win32,60.0240096,,,,,right,1,0.3966,0,63,63,62,1,8,8,8 | 8,0,1.4111,1.9756,neutral,right,,,,,,stimulusFile/physical.xlsx,,,,,,,,,,,,,,,,,,,,,,,,,,,,,,,
,,,,,,,,,,,,,,,815,2022-01-23_19h39.53.120,multiplicationStroop,2021.2.3,Win32,60.0240096,,,,,left,1,0.4319,0,64,64,48,1,1,1,1 | 1,0,1.9756,1.4111,neutral,left,,,,,,stimulusFile/physical.xlsx,,,,,,,,,,,,,,,,,,,,,,,,,,,,,,,
,,,,,,,,,,,,,,,815,2022-01-23_19h39.53.120,multiplicationStroop,2021.2.3,Win32,60.0240096,,,,,right,1,0.3879,0,65,65,46,1,8,3,8 | 3,5,1.4111,1.9756,incongruent,right,,,,,,stimulusFile/physical.xlsx,,,,,,,,,,,,,,,,,,,,,,,,,,,,,,,
,,,,,,,,,,,,,,,815,2022-01-23_19h39.53.120,multiplicationStroop,2021.2.3,Win32,60.0240096,,,,,left,1,0.4524,0,66,66,51,1,8,8,8 | 8,0,1.9756,1.4111,neutral,left,,,,,,stimulusFile/physical.xlsx,,,,,,,,,,,,,,,,,,,,,,,,,,,,,,,
,,,,,,,,,,,,,,,815,2022-01-23_19h39.53.120,multiplicationStroop,2021.2.3,Win32,60.0240096,,,,,left,1,0.4823,0,67,67,32,1,1,3,1 | 3,2,1.9756,1.4111,incongruent,left,,,,,,stimulusFile/physical.xlsx,,,,,,,,,,,,,,,,,,,,,,,,,,,,,,,
,,,,,,,,,,,,,,,815,2022-01-23_19h39.53.120,multiplicationStroop,2021.2.3,Win32,60.0240096,,,,,right,1,0.3777,0,68,68,0,1,1,2,1 | 2,1,1.4111,1.9756,congruent,right,,,,,,stimulusFile/physical.xlsx,,,,,,,,,,,,,,,,,,,,,,,,,,,,,,,
,,,,,,,,,,,,,,,815,2022-01-23_19h39.53.120,multiplicationStroop,2021.2.3,Win32,60.0240096,,,,,left,1,0.4472,0,69,69,55,1,9,9,9 | 9,0,1.9756,1.4111,neutral,left,,,,,,stimulusFile/physical.xlsx,,,,,,,,,,,,,,,,,,,,,,,,,,,,,,,
,,,,,,,,,,,,,,,815,2022-01-23_19h39.53.120,multiplicationStroop,2021.2.3,Win32,60.0240096,,,,,left,1,0.3997,0,70,70,53,1,4,4,4 | 4,0,1.9756,1.4111,neutral,left,,,,,,stimulusFile/physical.xlsx,,,,,,,,,,,,,,,,,,,,,,,,,,,,,,,
,,,,,,,,,,,,,,,815,2022-01-23_19h39.53.120,multiplicationStroop,2021.2.3,Win32,60.0240096,,,,,left,1,0.3984,0,71,71,54,1,7,7,7 | 7,0,1.9756,1.4111,neutral,left,,,,,,stimulusFile/physical.xlsx,,,,,,,,,,,,,,,,,,,,,,,,,,,,,,,
,,,,,,,,,,,,,,,815,2022-01-23_19h39.53.120,multiplicationStroop,2021.2.3,Win32,60.0240096,,,,,,,,,,,,,,,,,,,,,0,0,0,1,1,stimulusFile/physical.xlsx,PHYSICALLY larger (larger font size).,images/physicallyLarger.png,,,,,,,,,,,,,,,,,,,,,,,,,,,,,
,,,,,,,,,,,,,,,815,2022-01-23_19h39.53.120,multiplicationStroop,2021.2.3,Win32,60.0240096,space,4.8606,space,4.5995,left,1,0.6192,0,0,0,47,1,9,4,9 | 4,5,1.4111,1.9756,incongruent,left,,,,,,stimulusFile/magnitude.xlsx,,,,,,,,,,,,,,,,,,,,,,,,,,,,,,,
,,,,,,,,,,,,,,,815,2022-01-23_19h39.53.120,multiplicationStroop,2021.2.3,Win32,60.0240096,,,,,right,1,0.5609,0,1,1,32,1,1,3,1 | 3,2,1.9756,1.4111,incongruent,right,,,,,,stimulusFile/magnitude.xlsx,,,,,,,,,,,,,,,,,,,,,,,,,,,,,,,
,,,,,,,,,,,,,,,815,2022-01-23_19h39.53.120,multiplicationStroop,2021.2.3,Win32,60.0240096,,,,,left,1,0.5991,0,2,2,4,1,2,1,2 | 1,1,1.9756,1.4111,congruent,left,,,,,,stimulusFile/magnitude.xlsx,,,,,,,,,,,,,,,,,,,,,,,,,,,,,,,
,,,,,,,,,,,,,,,815,2022-01-23_19h39.53.120,multiplicationStroop,2021.2.3,Win32,60.0240096,,,,,right,1,0.4997,0,3,3,43,1,4,9,4 | 9,5,1.9756,1.4111,incongruent,right,,,,,,stimulusFile/magnitude.xlsx,,,,,,,,,,,,,,,,,,,,,,,,,,,,,,,
,,,,,,,,,,,,,,,815,2022-01-23_19h39.53.120,multiplicationStroop,2021.2.3,Win32,60.0240096,,,,,left,1,0.598,0,4,4,68,1,6,1,6 | 1,5,1.6933,1.6933,neutral,left,,,,,,stimulusFile/magnitude.xlsx,,,,,,,,,,,,,,,,,,,,,,,,,,,,,,,
,,,,,,,,,,,,,,,815,2022-01-23_19h39.53.120,multiplicationStroop,2021.2.3,Win32,60.0240096,,,,,left,1,0.6068,0,5,5,14,1,8,6,8 | 6,2,1.9756,1.4111,congruent,left,,,,,,stimulusFile/magnitude.xlsx,,,,,,,,,,,,,,,,,,,,,,,,,,,,,,,
,,,,,,,,,,,,,,,815,2022-01-23_19h39.53.120,multiplicationStroop,2021.2.3,Win32,60.0240096,,,,,left,1,0.5663,0,6,6,22,1,8,3,8 | 3,5,1.9756,1.4111,congruent,left,,,,,,stimulusFile/magnitude.xlsx,,,,,,,,,,,,,,,,,,,,,,,,,,,,,,,
,,,,,,,,,,,,,,,815,2022-01-23_19h39.53.120,multiplicationStroop,2021.2.3,Win32,60.0240096,,,,,right,1,0.5854,0,7,7,65,1,2,7,2 | 7,5,1.6933,1.6933,neutral,right,,,,,,stimulusFile/magnitude.xlsx,,,,,,,,,,,,,,,,,,,,,,,,,,,,,,,
,,,,,,,,,,,,,,,815,2022-01-23_19h39.53.120,multiplicationStroop,2021.2.3,Win32,60.0240096,,,,,right,1,0.6549,0,8,8,66,1,3,8,3 | 8,5,1.6933,1.6933,neutral,right,,,,,,stimulusFile/magnitude.xlsx,,,,,,,,,,,,,,,,,,,,,,,,,,,,,,,
,,,,,,,,,,,,,,,815,2022-01-23_19h39.53.120,multiplicationStroop,2021.2.3,Win32,60.0240096,,,,,right,1,0.6892,0,9,9,10,1,6,8,6 | 8,2,1.4111,1.9756,congruent,right,,,,,,stimulusFile/magnitude.xlsx,,,,,,,,,,,,,,,,,,,,,,,,,,,,,,,
,,,,,,,,,,,,,,,815,2022-01-23_19h39.53.120,multiplicationStroop,2021.2.3,Win32,60.0240096,,,,,left,1,0.6494,0,10,10,29,1,4,3,4 | 3,1,1.4111,1.9756,incongruent,left,,,,,,stimulusFile/magnitude.xlsx,,,,,,,,,,,,,,,,,,,,,,,,,,,,,,,
,,,,,,,,,,,,,,,815,2022-01-23_19h39.53.120,multiplicationStroop,2021.2.3,Win32,60.0240096,,,,,right,1,0.6787,0,11,11,9,1,2,4,2 | 4,2,1.4111,1.9756,congruent,right,,,,,,stimulusFile/magnitude.xlsx,,,,,,,,,,,,,,,,,,,,,,,,,,,,,,,
,,,,,,,,,,,,,,,815,2022-01-23_19h39.53.120,multiplicationStroop,2021.2.3,Win32,60.0240096,,,,,right,1,0.6452,0,12,12,41,1,2,7,2 | 7,5,1.9756,1.4111,incongruent,right,,,,,,stimulusFile/magnitude.xlsx,,,,,,,,,,,,,,,,,,,,,,,,,,,,,,,
,,,,,,,,,,,,,,,815,2022-01-23_19h39.53.120,multiplicationStroop,2021.2.3,Win32,60.0240096,,,,,right,1,0.5707,0,13,13,25,1,3,4,3 | 4,1,1.9756,1.4111,incongruent,right,,,,,,stimulusFile/magnitude.xlsx,,,,,,,,,,,,,,,,,,,,,,,,,,,,,,,
,,,,,,,,,,,,,,,815,2022-01-23_19h39.53.120,multiplicationStroop,2021.2.3,Win32,60.0240096,,,,,left,1,0.5646,0,14,14,55,1,9,8,9 | 8,1,1.6933,1.6933,neutral,left,,,,,,stimulusFile/magnitude.xlsx,,,,,,,,,,,,,,,,,,,,,,,,,,,,,,,
,,,,,,,,,,,,,,,815,2022-01-23_19h39.53.120,multiplicationStroop,2021.2.3,Win32,60.0240096,,,,,left,1,0.6301,0,15,15,31,1,9,8,9 | 8,1,1.4111,1.9756,incongruent,left,,,,,,stimulusFile/magnitude.xlsx,,,,,,,,,,,,,,,,,,,,,,,,,,,,,,,
,,,,,,,,,,,,,,,815,2022-01-23_19h39.53.120,multiplicationStroop,2021.2.3,Win32,60.0240096,,,,,left,0,0.8479,0,16,16,8,1,1,3,1 | 3,2,1.4111,1.9756,congruent,right,,,,,,stimulusFile/magnitude.xlsx,,,,,,,,,,,,,,,,,,,,,,,,,,,,,,,
,,,,,,,,,,,,,,,815,2022-01-23_19h39.53.120,multiplicationStroop,2021.2.3,Win32,60.0240096,,,,,right,1,1.3029,0,17,17,57,1,2,4,2 | 4,2,1.6933,1.6933,neutral,right,,,,,,stimulusFile/magnitude.xlsx,,,,,,,,,,,,,,,,,,,,,,,,,,,,,,,
,,,,,,,,,,,,,,,815,2022-01-23_19h39.53.120,multiplicationStroop,2021.2.3,Win32,60.0240096,,,,,left,0,0.848,0,18,18,24,1,1,2,1 | 2,1,1.9756,1.4111,incongruent,right,,,,,,stimulusFile/magnitude.xlsx,,,,,,,,,,,,,,,,,,,,,,,,,,,,,,,
,,,,,,,,,,,,,,,815,2022-01-23_19h39.53.120,multiplicationStroop,2021.2.3,Win32,60.0240096,,,,,right,1,0.4822,0,19,19,48,1,1,2,1 | 2,1,1.6933,1.6933,neutral,right,,,,,,stimulusFile/magnitude.xlsx,,,,,,,,,,,,,,,,,,,,,,,,,,,,,,,
,,,,,,,,,,,,,,,815,2022-01-23_19h39.53.120,multiplicationStroop,2021.2.3,Win32,60.0240096,,,,,right,1,0.6352,0,20,20,49,1,3,4,3 | 4,1,1.6933,1.6933,neutral,right,,,,,,stimulusFile/magnitude.xlsx,,,,,,,,,,,,,,,,,,,,,,,,,,,,,,,
,,,,,,,,,,,,,,,815,2022-01-23_19h39.53.120,multiplicationStroop,2021.2.3,Win32,60.0240096,,,,,right,1,0.5176,0,21,21,51,1,8,9,8 | 9,1,1.6933,1.6933,neutral,right,,,,,,stimulusFile/magnitude.xlsx,,,,,,,,,,,,,,,,,,,,,,,,,,,,,,,
,,,,,,,,,,,,,,,815,2022-01-23_19h39.53.120,multiplicationStroop,2021.2.3,Win32,60.0240096,,,,,left,1,0.6265,0,22,22,52,1,2,1,2 | 1,1,1.6933,1.6933,neutral,left,,,,,,stimulusFile/magnitude.xlsx,,,,,,,,,,,,,,,,,,,,,,,,,,,,,,,
,,,,,,,,,,,,,,,815,2022-01-23_19h39.53.120,multiplicationStroop,2021.2.3,Win32,60.0240096,,,,,right,1,0.5538,0,23,23,33,1,2,4,2 | 4,2,1.9756,1.4111,incongruent,right,,,,,,stimulusFile/magnitude.xlsx,,,,,,,,,,,,,,,,,,,,,,,,,,,,,,,
,,,,,,,,,,,,,,,815,2022-01-23_19h39.53.120,multiplicationStroop,2021.2.3,Win32,60.0240096,,,,,left,1,0.5354,0,24,24,46,1,8,3,8 | 3,5,1.4111,1.9756,incongruent,left,,,,,,stimulusFile/magnitude.xlsx,,,,,,,,,,,,,,,,,,,,,,,,,,,,,,,
,,,,,,,,,,,,,,,815,2022-01-23_19h39.53.120,multiplicationStroop,2021.2.3,Win32,60.0240096,,,,,left,1,0.7325,0,25,25,30,1,7,6,7 | 6,1,1.4111,1.9756,incongruent,left,,,,,,stimulusFile/magnitude.xlsx,,,,,,,,,,,,,,,,,,,,,,,,,,,,,,,
,,,,,,,,,,,,,,,815,2022-01-23_19h39.53.120,multiplicationStroop,2021.2.3,Win32,60.0240096,,,,,right,1,0.6201,0,26,26,58,1,6,8,6 | 8,2,1.6933,1.6933,neutral,right,,,,,,stimulusFile/magnitude.xlsx,,,,,,,,,,,,,,,,,,,,,,,,,,,,,,,
,,,,,,,,,,,,,,,815,2022-01-23_19h39.53.120,multiplicationStroop,2021.2.3,Win32,60.0240096,,,,,left,1,0.4895,0,27,27,5,1,4,3,4 | 3,1,1.9756,1.4111,congruent,left,,,,,,stimulusFile/magnitude.xlsx,,,,,,,,,,,,,,,,,,,,,,,,,,,,,,,
,,,,,,,,,,,,,,,815,2022-01-23_19h39.53.120,multiplicationStroop,2021.2.3,Win32,60.0240096,,,,,right,1,0.5199,0,28,28,56,1,1,3,1 | 3,2,1.6933,1.6933,neutral,right,,,,,,stimulusFile/magnitude.xlsx,,,,,,,,,,,,,,,,,,,,,,,,,,,,,,,
,,,,,,,,,,,,,,,815,2022-01-23_19h39.53.120,multiplicationStroop,2021.2.3,Win32,60.0240096,,,,,left,1,0.6719,0,29,29,38,1,8,6,8 | 6,2,1.4111,1.9756,incongruent,left,,,,,,stimulusFile/magnitude.xlsx,,,,,,,,,,,,,,,,,,,,,,,,,,,,,,,
,,,,,,,,,,,,,,,815,2022-01-23_19h39.53.120,multiplicationStroop,2021.2.3,Win32,60.0240096,,,,,left,1,0.5108,0,30,30,15,1,9,7,9 | 7,2,1.9756,1.4111,congruent,left,,,,,,stimulusFile/magnitude.xlsx,,,,,,,,,,,,,,,,,,,,,,,,,,,,,,,
,,,,,,,,,,,,,,,815,2022-01-23_19h39.53.120,multiplicationStroop,2021.2.3,Win32,60.0240096,,,,,left,1,0.4965,0,31,31,12,1,3,1,3 | 1,2,1.9756,1.4111,congruent,left,,,,,,stimulusFile/magnitude.xlsx,,,,,,,,,,,,,,,,,,,,,,,,,,,,,,,
,,,,,,,,,,,,,,,815,2022-01-23_19h39.53.120,multiplicationStroop,2021.2.3,Win32,60.0240096,,,,,left,1,0.49,0,32,32,60,1,3,1,3 | 1,2,1.6933,1.6933,neutral,left,,,,,,stimulusFile/magnitude.xlsx,,,,,,,,,,,,,,,,,,,,,,,,,,,,,,,
,,,,,,,,,,,,,,,815,2022-01-23_19h39.53.120,multiplicationStroop,2021.2.3,Win32,60.0240096,,,,,right,1,0.5025,0,33,33,3,1,8,9,8 | 9,1,1.4111,1.9756,congruent,right,,,,,,stimulusFile/magnitude.xlsx,,,,,,,,,,,,,,,,,,,,,,,,,,,,,,,
,,,,,,,,,,,,,,,815,2022-01-23_19h39.53.120,multiplicationStroop,2021.2.3,Win32,60.0240096,,,,,right,1,0.5978,0,34,34,34,1,6,8,6 | 8,2,1.9756,1.4111,incongruent,right,,,,,,stimulusFile/magnitude.xlsx,,,,,,,,,,,,,,,,,,,,,,,,,,,,,,,
,,,,,,,,,,,,,,,815,2022-01-23_19h39.53.120,multiplicationStroop,2021.2.3,Win32,60.0240096,,,,,right,0,0.6046,0,35,35,44,1,6,1,6 | 1,5,1.4111,1.9756,incongruent,left,,,,,,stimulusFile/magnitude.xlsx,,,,,,,,,,,,,,,,,,,,,,,,,,,,,,,
,,,,,,,,,,,,,,,815,2022-01-23_19h39.53.120,multiplicationStroop,2021.2.3,Win32,60.0240096,,,,,left,1,0.582,0,36,36,20,1,6,1,6 | 1,5,1.9756,1.4111,congruent,left,,,,,,stimulusFile/magnitude.xlsx,,,,,,,,,,,,,,,,,,,,,,,,,,,,,,,
,,,,,,,,,,,,,,,815,2022-01-23_19h39.53.120,multiplicationStroop,2021.2.3,Win32,60.0240096,,,,,right,1,0.5895,0,37,37,26,1,6,7,6 | 7,1,1.9756,1.4111,incongruent,right,,,,,,stimulusFile/magnitude.xlsx,,,,,,,,,,,,,,,,,,,,,,,,,,,,,,,
,,,,,,,,,,,,,,,815,2022-01-23_19h39.53.120,multiplicationStroop,2021.2.3,Win32,60.0240096,,,,,left,1,0.5451,0,38,38,7,1,9,8,9 | 8,1,1.9756,1.4111,congruent,left,,,,,,stimulusFile/magnitude.xlsx,,,,,,,,,,,,,,,,,,,,,,,,,,,,,,,
,,,,,,,,,,,,,,,815,2022-01-23_19h39.53.120,multiplicationStroop,2021.2.3,Win32,60.0240096,,,,,right,1,0.5008,0,39,39,59,1,7,9,7 | 9,2,1.6933,1.6933,neutral,right,,,,,,stimulusFile/magnitude.xlsx,,,,,,,,,,,,,,,,,,,,,,,,,,,,,,,
,,,,,,,,,,,,,,,815,2022-01-23_19h39.53.120,multiplicationStroop,2021.2.3,Win32,60.0240096,,,,,right,1,0.4479,0,40,40,16,1,1,6,1 | 6,5,1.4111,1.9756,congruent,right,,,,,,stimulusFile/magnitude.xlsx,,,,,,,,,,,,,,,,,,,,,,,,,,,,,,,
,,,,,,,,,,,,,,,815,2022-01-23_19h39.53.120,multiplicationStroop,2021.2.3,Win32,60.0240096,,,,,left,1,0.6184,0,41,41,45,1,7,2,7 | 2,5,1.4111,1.9756,incongruent,left,,,,,,stimulusFile/magnitude.xlsx,,,,,,,,,,,,,,,,,,,,,,,,,,,,,,,
,,,,,,,,,,,,,,,815,2022-01-23_19h39.53.120,multiplicationStroop,2021.2.3,Win32,60.0240096,,,,,left,1,0.6338,0,42,42,61,1,4,2,4 | 2,2,1.6933,1.6933,neutral,left,,,,,,stimulusFile/magnitude.xlsx,,,,,,,,,,,,,,,,,,,,,,,,,,,,,,,
,,,,,,,,,,,,,,,815,2022-01-23_19h39.53.120,multiplicationStroop,2021.2.3,Win32,60.0240096,,,,,right,1,0.4461,0,43,43,0,1,1,2,1 | 2,1,1.4111,1.9756,congruent,right,,,,,,stimulusFile/magnitude.xlsx,,,,,,,,,,,,,,,,,,,,,,,,,,,,,,,
,,,,,,,,,,,,,,,815,2022-01-23_19h39.53.120,multiplicationStroop,2021.2.3,Win32,60.0240096,,,,,right,1,0.5662,0,44,44,2,1,6,7,6 | 7,1,1.4111,1.9756,congruent,right,,,,,,stimulusFile/magnitude.xlsx,,,,,,,,,,,,,,,,,,,,,,,,,,,,,,,
,,,,,,,,,,,,,,,815,2022-01-23_19h39.53.120,multiplicationStroop,2021.2.3,Win32,60.0240096,,,,,left,1,0.4812,0,45,45,6,1,7,6,7 | 6,1,1.9756,1.4111,congruent,left,,,,,,stimulusFile/magnitude.xlsx,,,,,,,,,,,,,,,,,,,,,,,,,,,,,,,
,,,,,,,,,,,,,,,815,2022-01-23_19h39.53.120,multiplicationStroop,2021.2.3,Win32,60.0240096,,,,,left,1,0.4959,0,46,46,71,1,9,4,9 | 4,5,1.6933,1.6933,neutral,left,,,,,,stimulusFile/magnitude.xlsx,,,,,,,,,,,,,,,,,,,,,,,,,,,,,,,
,,,,,,,,,,,,,,,815,2022-01-23_19h39.53.120,multiplicationStroop,2021.2.3,Win32,60.0240096,,,,,left,1,0.7029,0,47,47,39,1,9,7,9 | 7,2,1.4111,1.9756,incongruent,left,,,,,,stimulusFile/magnitude.xlsx,,,,,,,,,,,,,,,,,,,,,,,,,,,,,,,
,,,,,,,,,,,,,,,815,2022-01-23_19h39.53.120,multiplicationStroop,2021.2.3,Win32,60.0240096,,,,,right,1,0.4442,0,48,48,35,1,7,9,7 | 9,2,1.9756,1.4111,incongruent,right,,,,,,stimulusFile/magnitude.xlsx,,,,,,,,,,,,,,,,,,,,,,,,,,,,,,,
,,,,,,,,,,,,,,,815,2022-01-23_19h39.53.120,multiplicationStroop,2021.2.3,Win32,60.0240096,,,,,left,1,0.6258,0,49,49,54,1,7,6,7 | 6,1,1.6933,1.6933,neutral,left,,,,,,stimulusFile/magnitude.xlsx,,,,,,,,,,,,,,,,,,,,,,,,,,,,,,,
,,,,,,,,,,,,,,,815,2022-01-23_19h39.53.120,multiplicationStroop,2021.2.3,Win32,60.0240096,,,,,left,1,0.54,0,50,50,70,1,8,3,8 | 3,5,1.6933,1.6933,neutral,left,,,,,,stimulusFile/magnitude.xlsx,,,,,,,,,,,,,,,,,,,,,,,,,,,,,,,
,,,,,,,,,,,,,,,815,2022-01-23_19h39.53.120,multiplicationStroop,2021.2.3,Win32,60.0240096,,,,,right,1,0.5945,0,51,51,27,1,8,9,8 | 9,1,1.9756,1.4111,incongruent,right,,,,,,stimulusFile/magnitude.xlsx,,,,,,,,,,,,,,,,,,,,,,,,,,,,,,,
,,,,,,,,,,,,,,,815,2022-01-23_19h39.53.120,multiplicationStroop,2021.2.3,Win32,60.0240096,,,,,left,1,0.5292,0,52,52,53,1,4,3,4 | 3,1,1.6933,1.6933,neutral,left,,,,,,stimulusFile/magnitude.xlsx,,,,,,,,,,,,,,,,,,,,,,,,,,,,,,,
,,,,,,,,,,,,,,,815,2022-01-23_19h39.53.120,multiplicationStroop,2021.2.3,Win32,60.0240096,,,,,left,1,0.5449,0,53,53,63,1,9,7,9 | 7,2,1.6933,1.6933,neutral,left,,,,,,stimulusFile/magnitude.xlsx,,,,,,,,,,,,,,,,,,,,,,,,,,,,,,,
,,,,,,,,,,,,,,,815,2022-01-23_19h39.53.120,multiplicationStroop,2021.2.3,Win32,60.0240096,,,,,left,1,0.4364,0,54,54,37,1,4,2,4 | 2,2,1.4111,1.9756,incongruent,left,,,,,,stimulusFile/magnitude.xlsx,,,,,,,,,,,,,,,,,,,,,,,,,,,,,,,
,,,,,,,,,,,,,,,815,2022-01-23_19h39.53.120,multiplicationStroop,2021.2.3,Win32,60.0240096,,,,,left,1,0.4373,0,55,55,23,1,9,4,9 | 4,5,1.9756,1.4111,congruent,left,,,,,,stimulusFile/magnitude.xlsx,,,,,,,,,,,,,,,,,,,,,,,,,,,,,,,
,,,,,,,,,,,,,,,815,2022-01-23_19h39.53.120,multiplicationStroop,2021.2.3,Win32,60.0240096,,,,,left,1,0.5214,0,56,56,21,1,7,2,7 | 2,5,1.9756,1.4111,congruent,left,,,,,,stimulusFile/magnitude.xlsx,,,,,,,,,,,,,,,,,,,,,,,,,,,,,,,
,,,,,,,,,,,,,,,815,2022-01-23_19h39.53.120,multiplicationStroop,2021.2.3,Win32,60.0240096,,,,,right,1,0.4387,0,57,57,50,1,6,7,6 | 7,1,1.6933,1.6933,neutral,right,,,,,,stimulusFile/magnitude.xlsx,,,,,,,,,,,,,,,,,,,,,,,,,,,,,,,
,,,,,,,,,,,,,,,815,2022-01-23_19h39.53.120,multiplicationStroop,2021.2.3,Win32,60.0240096,,,,,right,1,0.5836,0,58,58,11,1,7,9,7 | 9,2,1.4111,1.9756,congruent,right,,,,,,stimulusFile/magnitude.xlsx,,,,,,,,,,,,,,,,,,,,,,,,,,,,,,,
,,,,,,,,,,,,,,,815,2022-01-23_19h39.53.120,multiplicationStroop,2021.2.3,Win32,60.0240096,,,,,right,1,0.5179,0,59,59,40,1,1,6,1 | 6,5,1.9756,1.4111,incongruent,right,,,,,,stimulusFile/magnitude.xlsx,,,,,,,,,,,,,,,,,,,,,,,,,,,,,,,
,,,,,,,,,,,,,,,815,2022-01-23_19h39.53.120,multiplicationStroop,2021.2.3,Win32,60.0240096,,,,,left,1,0.6514,0,60,60,69,1,7,2,7 | 2,5,1.6933,1.6933,neutral,left,,,,,,stimulusFile/magnitude.xlsx,,,,,,,,,,,,,,,,,,,,,,,,,,,,,,,
,,,,,,,,,,,,,,,815,2022-01-23_19h39.53.120,multiplicationStroop,2021.2.3,Win32,60.0240096,,,,,left,1,0.5859,0,61,61,28,1,2,1,2 | 1,1,1.4111,1.9756,incongruent,left,,,,,,stimulusFile/magnitude.xlsx,,,,,,,,,,,,,,,,,,,,,,,,,,,,,,,
,,,,,,,,,,,,,,,815,2022-01-23_19h39.53.120,multiplicationStroop,2021.2.3,Win32,60.0240096,,,,,right,1,0.6204,0,62,62,17,1,2,7,2 | 7,5,1.4111,1.9756,congruent,right,,,,,,stimulusFile/magnitude.xlsx,,,,,,,,,,,,,,,,,,,,,,,,,,,,,,,
,,,,,,,,,,,,,,,815,2022-01-23_19h39.53.120,multiplicationStroop,2021.2.3,Win32,60.0240096,,,,,right,1,0.4977,0,63,63,19,1,4,9,4 | 9,5,1.4111,1.9756,congruent,right,,,,,,stimulusFile/magnitude.xlsx,,,,,,,,,,,,,,,,,,,,,,,,,,,,,,,
,,,,,,,,,,,,,,,815,2022-01-23_19h39.53.120,multiplicationStroop,2021.2.3,Win32,60.0240096,,,,,right,1,0.5709,0,64,64,64,1,1,6,1 | 6,5,1.6933,1.6933,neutral,right,,,,,,stimulusFile/magnitude.xlsx,,,,,,,,,,,,,,,,,,,,,,,,,,,,,,,
,,,,,,,,,,,,,,,815,2022-01-23_19h39.53.120,multiplicationStroop,2021.2.3,Win32,60.0240096,,,,,right,1,0.4981,0,65,65,42,1,3,8,3 | 8,5,1.9756,1.4111,incongruent,right,,,,,,stimulusFile/magnitude.xlsx,,,,,,,,,,,,,,,,,,,,,,,,,,,,,,,
,,,,,,,,,,,,,,,815,2022-01-23_19h39.53.120,multiplicationStroop,2021.2.3,Win32,60.0240096,,,,,left,1,0.5177,0,66,66,36,1,3,1,3 | 1,2,1.4111,1.9756,incongruent,left,,,,,,stimulusFile/magnitude.xlsx,,,,,,,,,,,,,,,,,,,,,,,,,,,,,,,
,,,,,,,,,,,,,,,815,2022-01-23_19h39.53.120,multiplicationStroop,2021.2.3,Win32,60.0240096,,,,,right,1,0.465,0,67,67,1,1,3,4,3 | 4,1,1.4111,1.9756,congruent,right,,,,,,stimulusFile/magnitude.xlsx,,,,,,,,,,,,,,,,,,,,,,,,,,,,,,,
,,,,,,,,,,,,,,,815,2022-01-23_19h39.53.120,multiplicationStroop,2021.2.3,Win32,60.0240096,,,,,right,1,0.5327,0,68,68,18,1,3,8,3 | 8,5,1.4111,1.9756,congruent,right,,,,,,stimulusFile/magnitude.xlsx,,,,,,,,,,,,,,,,,,,,,,,,,,,,,,,
,,,,,,,,,,,,,,,815,2022-01-23_19h39.53.120,multiplicationStroop,2021.2.3,Win32,60.0240096,,,,,left,1,0.5105,0,69,69,62,1,8,6,8 | 6,2,1.6933,1.6933,neutral,left,,,,,,stimulusFile/magnitude.xlsx,,,,,,,,,,,,,,,,,,,,,,,,,,,,,,,
,,,,,,,,,,,,,,,815,2022-01-23_19h39.53.120,multiplicationStroop,2021.2.3,Win32,60.0240096,,,,,left,1,0.4811,0,70,70,13,1,4,2,4 | 2,2,1.9756,1.4111,congruent,left,,,,,,stimulusFile/magnitude.xlsx,,,,,,,,,,,,,,,,,,,,,,,,,,,,,,,
,,,,,,,,,,,,,,,815,2022-01-23_19h39.53.120,multiplicationStroop,2021.2.3,Win32,60.0240096,,,,,right,1,0.4371,0,71,71,67,1,4,9,4 | 9,5,1.6933,1.6933,neutral,right,,,,,,stimulusFile/magnitude.xlsx,,,,,,,,,,,,,,,,,,,,,,,,,,,,,,,
,,,,,,,,,,,,,,,815,2022-01-23_19h39.53.120,multiplicationStroop,2021.2.3,Win32,60.0240096,,,,,,,,,,,,,,,,,,,,,0,1,1,0,1,stimulusFile/magnitude.xlsx,NUMERICALLY larger (larger coefficient).,images/numericallyLarger.png,,,,,,,,,,,,,,,,,,,,,,,,,,,,,
,,,,,,,,,,,,,,,815,2022-01-23_19h39.53.120,multiplicationStroop,2021.2.3,Win32,60.0240096,,,,,,,,,,,,,,,,,,,,,,,,,,,,,space,12.1234,space,1.5658,8,2.5891,1,0,0,0,3,1,2,×,4,2 × 4,neutral,smallerFirst,1.5,1.5,8,,,,,,,,
,,,,,,,,,,,,,,,815,2022-01-23_19h39.53.120,multiplicationStroop,2021.2.3,Win32,60.0240096,,,,,,,,,,,,,,,,,,,,,,,,,,,,,,,,,40,1.796,1,0,1,1,24,1,8,×,5,8 × 5,neutral,largerFirst,1.5,1.5,40,,,,,,,,
,,,,,,,,,,,,,,,815,2022-01-23_19h39.53.120,multiplicationStroop,2021.2.3,Win32,60.0240096,,,,,,,,,,,,,,,,,,,,,,,,,,,,,,,,,64,2.6357,1,0,2,2,34,1,8,×,8,8 × 8,neutral,tie,1.5,1.5,64,,,,,,,,
,,,,,,,,,,,,,,,815,2022-01-23_19h39.53.120,multiplicationStroop,2021.2.3,Win32,60.0240096,,,,,,,,,,,,,,,,,,,,,,,,,,,,,,,,,21,1.5574,1,0,3,3,8,1,3,×,7,3 × 7,neutral,smallerFirst,1.5,1.5,21,,,,,,,,
,,,,,,,,,,,,,,,815,2022-01-23_19h39.53.120,multiplicationStroop,2021.2.3,Win32,60.0240096,,,,,,,,,,,,,,,,,,,,,,,,,,,,,,,,,25,1.71,1,0,4,4,31,1,5,×,5,5 × 5,neutral,tie,1.5,1.5,25,,,,,,,,
,,,,,,,,,,,,,,,815,2022-01-23_19h39.53.120,multiplicationStroop,2021.2.3,Win32,60.0240096,,,,,,,,,,,,,,,,,,,,,,,,,,,,,,,,,24,2.1128,1,0,5,5,2,1,4,×,6,4 × 6,neutral,smallerFirst,1.5,1.5,24,,,,,,,,
,,,,,,,,,,,,,,,815,2022-01-23_19h39.53.120,multiplicationStroop,2021.2.3,Win32,60.0240096,,,,,,,,,,,,,,,,,,,,,,,,,,,,,,,,,9,1.4523,1,0,6,6,29,1,3,×,3,3 × 3,neutral,tie,1.5,1.5,9,,,,,,,,
,,,,,,,,,,,,,,,815,2022-01-23_19h39.53.120,multiplicationStroop,2021.2.3,Win32,60.0240096,,,,,,,,,,,,,,,,,,,,,,,,,,,,,,,,,48,2.3323,1,0,7,7,15,1,8,×,6,8 × 6,neutral,largerFirst,1.5,1.5,48,,,,,,,,
,,,,,,,,,,,,,,,815,2022-01-23_19h39.53.120,multiplicationStroop,2021.2.3,Win32,60.0240096,,,,,,,,,,,,,,,,,,,,,,,,,,,,,,,,,15,1.5833,1,0,8,8,5,1,3,×,5,3 × 5,neutral,smallerFirst,1.5,1.5,15,,,,,,,,
,,,,,,,,,,,,,,,815,2022-01-23_19h39.53.120,multiplicationStroop,2021.2.3,Win32,60.0240096,,,,,,,,,,,,,,,,,,,,,,,,,,,,,,,,,72,2.7985,1,0,9,9,11,1,8,×,9,8 × 9,neutral,smallerFirst,1.5,1.5,72,,,,,,,,
,,,,,,,,,,,,,,,815,2022-01-23_19h39.53.120,multiplicationStroop,2021.2.3,Win32,60.0240096,,,,,,,,,,,,,,,,,,,,,,,,,,,,,,,,,36,1.8411,1,0,10,10,27,1,9,×,4,9 × 4,neutral,largerFirst,1.5,1.5,36,,,,,,,,
,,,,,,,,,,,,,,,815,2022-01-23_19h39.53.120,multiplicationStroop,2021.2.3,Win32,60.0240096,,,,,,,,,,,,,,,,,,,,,,,,,,,,,,,,,18,1.6104,1,0,11,11,18,1,9,×,2,9 × 2,neutral,largerFirst,1.5,1.5,18,,,,,,,,
,,,,,,,,,,,,,,,815,2022-01-23_19h39.53.120,multiplicationStroop,2021.2.3,Win32,60.0240096,,,,,,,,,,,,,,,,,,,,,,,,,,,,,,,,,27,1.7855,1,0,12,12,14,1,9,×,3,9 × 3,neutral,largerFirst,1.5,1.5,27,,,,,,,,
,,,,,,,,,,,,,,,815,2022-01-23_19h39.53.120,multiplicationStroop,2021.2.3,Win32,60.0240096,,,,,,,,,,,,,,,,,,,,,,,,,,,,,,,,,56,2.0822,1,0,13,13,9,1,7,×,8,7 × 8,neutral,smallerFirst,1.5,1.5,56,,,,,,,,
,,,,,,,,,,,,,,,815,2022-01-23_19h39.53.120,multiplicationStroop,2021.2.3,Win32,60.0240096,,,,,,,,,,,,,,,,,,,,,,,,,,,,,,,,,42,1.4773,1,0,14,14,6,1,6,×,7,6 × 7,neutral,smallerFirst,1.5,1.5,42,,,,,,,,
,,,,,,,,,,,,,,,815,2022-01-23_19h39.53.120,multiplicationStroop,2021.2.3,Win32,60.0240096,,,,,,,,,,,,,,,,,,,,,,,,,,,,,,,,,12,1.3692,1,0,15,15,25,1,6,×,2,6 × 2,neutral,largerFirst,1.5,1.5,12,,,,,,,,
,,,,,,,,,,,,,,,815,2022-01-23_19h39.53.120,multiplicationStroop,2021.2.3,Win32,60.0240096,,,,,,,,,,,,,,,,,,,,,,,,,,,,,,,,,4,1.299,1,0,16,16,28,1,2,×,2,2 × 2,neutral,tie,1.5,1.5,4,,,,,,,,
,,,,,,,,,,,,,,,815,2022-01-23_19h39.53.120,multiplicationStroop,2021.2.3,Win32,60.0240096,,,,,,,,,,,,,,,,,,,,,,,,,,,,,,,,,16,2.4767,1,0,17,17,30,1,4,×,4,4 × 4,neutral,tie,1.5,1.5,16,,,,,,,,
,,,,,,,,,,,,,,,815,2022-01-23_19h39.53.120,multiplicationStroop,2021.2.3,Win32,60.0240096,,,,,,,,,,,,,,,,,,,,,,,,,,,,,,,,,14,1.5521,1,0,18,18,16,1,7,×,2,7 × 2,neutral,largerFirst,1.5,1.5,14,,,,,,,,
,,,,,,,,,,,,,,,815,2022-01-23_19h39.53.120,multiplicationStroop,2021.2.3,Win32,60.0240096,,,,,,,,,,,,,,,,,,,,,,,,,,,,,,,,,36,1.7484,1,0,19,19,32,1,6,×,6,6 × 6,neutral,tie,1.5,1.5,36,,,,,,,,
,,,,,,,,,,,,,,,815,2022-01-23_19h39.53.120,multiplicationStroop,2021.2.3,Win32,60.0240096,,,,,,,,,,,,,,,,,,,,,,,,,,,,,,,,,16,1.9937,1,0,20,20,13,1,2,×,8,2 × 8,neutral,smallerFirst,1.5,1.5,16,,,,,,,,
,,,,,,,,,,,,,,,815,2022-01-23_19h39.53.120,multiplicationStroop,2021.2.3,Win32,60.0240096,,,,,,,,,,,,,,,,,,,,,,,,,,,,,,,,,28,1.6855,1,0,21,21,17,1,7,×,4,7 × 4,neutral,largerFirst,1.5,1.5,28,,,,,,,,
,,,,,,,,,,,,,,,815,2022-01-23_19h39.53.120,multiplicationStroop,2021.2.3,Win32,60.0240096,,,,,,,,,,,,,,,,,,,,,,,,,,,,,,,,,54,1.8484,1,0,22,22,7,1,6,×,9,6 × 9,neutral,smallerFirst,1.5,1.5,54,,,,,,,,
,,,,,,,,,,,,,,,815,2022-01-23_19h39.53.120,multiplicationStroop,2021.2.3,Win32,60.0240096,,,,,,,,,,,,,,,,,,,,,,,,,,,,,,,,,63,2.1497,1,0,23,23,12,1,7,×,9,7 × 9,neutral,smallerFirst,1.5,1.5,63,,,,,,,,
,,,,,,,,,,,,,,,815,2022-01-23_19h39.53.120,multiplicationStroop,2021.2.3,Win32,60.0240096,,,,,,,,,,,,,,,,,,,,,,,,,,,,,,,,,12,1.3827,1,0,24,24,21,1,4,×,3,4 × 3,neutral,largerFirst,1.5,1.5,12,,,,,,,,
,,,,,,,,,,,,,,,815,2022-01-23_19h39.53.120,multiplicationStroop,2021.2.3,Win32,60.0240096,,,,,,,,,,,,,,,,,,,,,,,,,,,,,,,,,81,2.5823,1,0,25,25,35,1,9,×,9,9 × 9,neutral,tie,1.5,1.5,81,,,,,,,,
,,,,,,,,,,,,,,,815,2022-01-23_19h39.53.120,multiplicationStroop,2021.2.3,Win32,60.0240096,,,,,,,,,,,,,,,,,,,,,,,,,,,,,,,,,49,2.0936,1,0,26,26,33,1,7,×,7,7 × 7,neutral,tie,1.5,1.5,49,,,,,,,,
,,,,,,,,,,,,,,,815,2022-01-23_19h39.53.120,multiplicationStroop,2021.2.3,Win32,60.0240096,,,,,,,,,,,,,,,,,,,,,,,,,,,,,,,,,20,1.7184,1,0,27,27,20,1,5,×,4,5 × 4,neutral,largerFirst,1.5,1.5,20,,,,,,,,
,,,,,,,,,,,,,,,815,2022-01-23_19h39.53.120,multiplicationStroop,2021.2.3,Win32,60.0240096,,,,,,,,,,,,,,,,,,,,,,,,,,,,,,,,,18,1.7271,1,0,28,28,0,1,3,×,6,3 × 6,neutral,smallerFirst,1.5,1.5,18,,,,,,,,
,,,,,,,,,,,,,,,815,2022-01-23_19h39.53.120,multiplicationStroop,2021.2.3,Win32,60.0240096,,,,,,,,,,,,,,,,,,,,,,,,,,,,,,,,,6,2.4018,1,0,29,29,26,1,3,×,2,3 × 2,neutral,largerFirst,1.5,1.5,6,,,,,,,,
,,,,,,,,,,,,,,,815,2022-01-23_19h39.53.120,multiplicationStroop,2021.2.3,Win32,60.0240096,,,,,,,,,,,,,,,,,,,,,,,,,,,,,,,,,35,2.516,1,0,30,30,1,1,5,×,7,5 × 7,neutral,smallerFirst,1.5,1.5,35,,,,,,,,
,,,,,,,,,,,,,,,815,2022-01-23_19h39.53.120,multiplicationStroop,2021.2.3,Win32,60.0240096,,,,,,,,,,,,,,,,,,,,,,,,,,,,,,,,,32,1.4131,1,0,31,31,23,1,8,×,4,8 × 4,neutral,largerFirst,1.5,1.5,32,,,,,,,,
,,,,,,,,,,,,,,,815,2022-01-23_19h39.53.120,multiplicationStroop,2021.2.3,Win32,60.0240096,,,,,,,,,,,,,,,,,,,,,,,,,,,,,,,,,30,1.796,1,0,32,32,19,1,6,×,5,6 × 5,neutral,largerFirst,1.5,1.5,30,,,,,,,,
,,,,,,,,,,,,,,,815,2022-01-23_19h39.53.120,multiplicationStroop,2021.2.3,Win32,60.0240096,,,,,,,,,,,,,,,,,,,,,,,,,,,,,,,,,10,1.6685,1,0,33,33,4,1,2,×,5,2 × 5,neutral,smallerFirst,1.5,1.5,10,,,,,,,,
,,,,,,,,,,,,,,,815,2022-01-23_19h39.53.120,multiplicationStroop,2021.2.3,Win32,60.0240096,,,,,,,,,,,,,,,,,,,,,,,,,,,,,,,,,24,1.5995,1,0,34,34,22,1,8,×,3,8 × 3,neutral,largerFirst,1.5,1.5,24,,,,,,,,
,,,,,,,,,,,,,,,815,2022-01-23_19h39.53.120,multiplicationStroop,2021.2.3,Win32,60.0240096,,,,,,,,,,,,,,,,,,,,,,,,,,,,,,,,,45,1.4603,1,0,35,35,10,1,5,×,9,5 × 9,neutral,smallerFirst,1.5,1.5,45,,,,,,,,
,,,,,,,,,,,,,,,815,2022-01-23_19h39.53.120,multiplicationStroop,2021.2.3,Win32,60.0240096,,,,,,,,,,,,,,,,,,,,,,,,,,,,,,,,,,,,,,,,,,,,,,,,,,0,0,0,1,1,stimulusFile/mult_blk2.xlsx,,
,,,,,,,,,,,,,,,815,2022-01-23_19h39.53.120,multiplicationStroop,2021.2.3,Win32,60.0240096,,,,,,,,,,,,,,,,,,,,,,,,,,,,,,,space,3.0329,14,3.2244,1,0,0,0,14,1,7,×,2,7 × 2,congruent,largerFirst,2,1,14,,,,,,,,
,,,,,,,,,,,,,,,815,2022-01-23_19h39.53.120,multiplicationStroop,2021.2.3,Win32,60.0240096,,,,,,,,,,,,,,,,,,,,,,,,,,,,,,,,,20,1.6772,1,0,1,1,7,1,4,×,5,4 × 5,congruent,smallerFirst,1,2,20,,,,,,,,
,,,,,,,,,,,,,,,815,2022-01-23_19h39.53.120,multiplicationStroop,2021.2.3,Win32,60.0240096,,,,,,,,,,,,,,,,,,,,,,,,,,,,,,,,,25,1.4521,1,0,2,2,31,1,5,×,5,5 × 5,neutral,tie,2,1,25,,,,,,,,
,,,,,,,,,,,,,,,815,2022-01-23_19h39.53.120,multiplicationStroop,2021.2.3,Win32,60.0240096,,,,,,,,,,,,,,,,,,,,,,,,,,,,,,,,,18,2.7159,1,0,3,3,11,1,3,×,6,3 × 6,congruent,smallerFirst,1,2,18,,,,,,,,
,,,,,,,,,,,,,,,815,2022-01-23_19h39.53.120,multiplicationStroop,2021.2.3,Win32,60.0240096,,,,,,,,,,,,,,,,,,,,,,,,,,,,,,,,,40,2.0655,1,0,4,4,6,1,5,×,8,5 × 8,congruent,smallerFirst,1,2,40,,,,,,,,
,,,,,,,,,,,,,,,815,2022-01-23_19h39.53.120,multiplicationStroop,2021.2.3,Win32,60.0240096,,,,,,,,,,,,,,,,,,,,,,,,,,,,,,,,,21,1.2994,1,0,5,5,16,1,7,×,3,7 × 3,congruent,largerFirst,2,1,21,,,,,,,,
,,,,,,,,,,,,,,,815,2022-01-23_19h39.53.120,multiplicationStroop,2021.2.3,Win32,60.0240096,,,,,,,,,,,,,,,,,,,,,,,,,,,,,,,,,15,1.6159,1,0,6,6,4,1,3,×,5,3 × 5,congruent,smallerFirst,1,2,15,,,,,,,,
,,,,,,,,,,,,,,,815,2022-01-23_19h39.53.120,multiplicationStroop,2021.2.3,Win32,60.0240096,,,,,,,,,,,,,,,,,,,,,,,,,,,,,,,,,35,1.8331,1,0,7,7,1,1,5,×,7,5 × 7,congruent,smallerFirst,1,2,35,,,,,,,,
,,,,,,,,,,,,,,,815,2022-01-23_19h39.53.120,multiplicationStroop,2021.2.3,Win32,60.0240096,,,,,,,,,,,,,,,,,,,,,,,,,,,,,,,,,4,1.3482,1,0,8,8,28,1,2,×,2,2 × 2,neutral,tie,2,1,4,,,,,,,,
,,,,,,,,,,,,,,,815,2022-01-23_19h39.53.120,multiplicationStroop,2021.2.3,Win32,60.0240096,,,,,,,,,,,,,,,,,,,,,,,,,,,,,,,,,9,1.4163,1,0,9,9,29,1,3,×,3,3 × 3,neutral,tie,2,1,9,,,,,,,,
,,,,,,,,,,,,,,,815,2022-01-23_19h39.53.120,multiplicationStroop,2021.2.3,Win32,60.0240096,,,,,,,,,,,,,,,,,,,,,,,,,,,,,,,,,8,1.5158,1,0,10,10,9,1,2,×,4,2 × 4,congruent,smallerFirst,1,2,8,,,,,,,,
,,,,,,,,,,,,,,,815,2022-01-23_19h39.53.120,multiplicationStroop,2021.2.3,Win32,60.0240096,,,,,,,,,,,,,,,,,,,,,,,,,,,,,,,,,63,2.0769,1,0,11,11,21,1,9,×,7,9 × 7,congruent,largerFirst,2,1,63,,,,,,,,
,,,,,,,,,,,,,,,815,2022-01-23_19h39.53.120,multiplicationStroop,2021.2.3,Win32,60.0240096,,,,,,,,,,,,,,,,,,,,,,,,,,,,,,,,,56,1.4699,1,0,12,12,8,1,7,×,8,7 × 8,congruent,smallerFirst,1,2,56,,,,,,,,
,,,,,,,,,,,,,,,815,2022-01-23_19h39.53.120,multiplicationStroop,2021.2.3,Win32,60.0240096,,,,,,,,,,,,,,,,,,,,,,,,,,,,,,,,,12,1.2491,1,0,13,13,19,1,6,×,2,6 × 2,congruent,largerFirst,2,1,12,,,,,,,,
,,,,,,,,,,,,,,,815,2022-01-23_19h39.53.120,multiplicationStroop,2021.2.3,Win32,60.0240096,,,,,,,,,,,,,,,,,,,,,,,,,,,,,,,,,30,1.6159,1,0,14,14,15,1,6,×,5,6 × 5,congruent,largerFirst,2,1,30,,,,,,,,
,,,,,,,,,,,,,,,815,2022-01-23_19h39.53.120,multiplicationStroop,2021.2.3,Win32,60.0240096,,,,,,,,,,,,,,,,,,,,,,,,,,,,,,,,,32,1.4165,1,0,15,15,20,1,8,×,4,8 × 4,congruent,largerFirst,2,1,32,,,,,,,,
,,,,,,,,,,,,,,,815,2022-01-23_19h39.53.120,multiplicationStroop,2021.2.3,Win32,60.0240096,,,,,,,,,,,,,,,,,,,,,,,,,,,,,,,,,72,2.4428,1,0,16,16,17,1,9,×,8,9 × 8,congruent,largerFirst,2,1,72,,,,,,,,
,,,,,,,,,,,,,,,815,2022-01-23_19h39.53.120,multiplicationStroop,2021.2.3,Win32,60.0240096,,,,,,,,,,,,,,,,,,,,,,,,,,,,,,,,,28,1.6182,1,0,17,17,27,1,7,×,4,7 × 4,congruent,largerFirst,2,1,28,,,,,,,,
,,,,,,,,,,,,,,,815,2022-01-23_19h39.53.120,multiplicationStroop,2021.2.3,Win32,60.0240096,,,,,,,,,,,,,,,,,,,,,,,,,,,,,,,,,10,1.6997,1,0,18,18,24,1,5,×,2,5 × 2,congruent,largerFirst,2,1,10,,,,,,,,
,,,,,,,,,,,,,,,815,2022-01-23_19h39.53.120,multiplicationStroop,2021.2.3,Win32,60.0240096,,,,,,,,,,,,,,,,,,,,,,,,,,,,,,,,,24,1.7607,1,0,19,19,25,1,6,×,4,6 × 4,congruent,largerFirst,2,1,24,,,,,,,,
,,,,,,,,,,,,,,,815,2022-01-23_19h39.53.120,multiplicationStroop,2021.2.3,Win32,60.0240096,,,,,,,,,,,,,,,,,,,,,,,,,,,,,,,,,36,2.0464,1,0,20,20,0,1,4,×,9,4 × 9,congruent,smallerFirst,1,2,36,,,,,,,,
,,,,,,,,,,,,,,,815,2022-01-23_19h39.53.120,multiplicationStroop,2021.2.3,Win32,60.0240096,,,,,,,,,,,,,,,,,,,,,,,,,,,,,,,,,64,2.4683,1,0,21,21,34,1,8,×,8,8 × 8,neutral,tie,2,1,64,,,,,,,,
,,,,,,,,,,,,,,,815,2022-01-23_19h39.53.120,multiplicationStroop,2021.2.3,Win32,60.0240096,,,,,,,,,,,,,,,,,,,,,,,,,,,,,,,,,36,1.6255,1,0,22,22,32,1,6,×,6,6 × 6,neutral,tie,2,1,36,,,,,,,,
,,,,,,,,,,,,,,,815,2022-01-23_19h39.53.120,multiplicationStroop,2021.2.3,Win32,60.0240096,,,,,,,,,,,,,,,,,,,,,,,,,,,,,,,,,24,1.6158,1,0,23,23,10,1,3,×,8,3 × 8,congruent,smallerFirst,1,2,24,,,,,,,,
,,,,,,,,,,,,,,,815,2022-01-23_19h39.53.120,multiplicationStroop,2021.2.3,Win32,60.0240096,,,,,,,,,,,,,,,,,,,,,,,,,,,,,,,,,81,3.0324,1,0,24,24,35,1,9,×,9,9 × 9,neutral,tie,2,1,81,,,,,,,,
,,,,,,,,,,,,,,,815,2022-01-23_19h39.53.120,multiplicationStroop,2021.2.3,Win32,60.0240096,,,,,,,,,,,,,,,,,,,,,,,,,,,,,,,,,12,1.2865,1,0,25,25,2,1,3,×,4,3 × 4,congruent,smallerFirst,1,2,12,,,,,,,,
,,,,,,,,,,,,,,,815,2022-01-23_19h39.53.120,multiplicationStroop,2021.2.3,Win32,60.0240096,,,,,,,,,,,,,,,,,,,,,,,,,,,,,,,,,49,2.1133,1,0,26,26,33,1,7,×,7,7 × 7,neutral,tie,2,1,49,,,,,,,,
,,,,,,,,,,,,,,,815,2022-01-23_19h39.53.120,multiplicationStroop,2021.2.3,Win32,60.0240096,,,,,,,,,,,,,,,,,,,,,,,,,,,,,,,,,54,1.4708,1,0,27,27,12,1,6,×,9,6 × 9,congruent,smallerFirst,1,2,54,,,,,,,,
,,,,,,,,,,,,,,,815,2022-01-23_19h39.53.120,multiplicationStroop,2021.2.3,Win32,60.0240096,,,,,,,,,,,,,,,,,,,,,,,,,,,,,,,,,6,1.8248,1,0,28,28,13,1,2,×,3,2 × 3,congruent,smallerFirst,1,2,6,,,,,,,,
,,,,,,,,,,,,,,,815,2022-01-23_19h39.53.120,multiplicationStroop,2021.2.3,Win32,60.0240096,,,,,,,,,,,,,,,,,,,,,,,,,,,,,,,,,18,1.6679,1,0,29,29,22,1,9,×,2,9 × 2,congruent,largerFirst,2,1,18,,,,,,,,
,,,,,,,,,,,,,,,815,2022-01-23_19h39.53.120,multiplicationStroop,2021.2.3,Win32,60.0240096,,,,,,,,,,,,,,,,,,,,,,,,,,,,,,,,,45,1.9791,1,0,30,30,23,1,9,×,5,9 × 5,congruent,largerFirst,2,1,45,,,,,,,,
,,,,,,,,,,,,,,,815,2022-01-23_19h39.53.120,multiplicationStroop,2021.2.3,Win32,60.0240096,,,,,,,,,,,,,,,,,,,,,,,,,,,,,,,,,63,2.0807,0,0,31,31,3,1,6,×,7,6 × 7,congruent,smallerFirst,1,2,42,,,,,,,,
,,,,,,,,,,,,,,,815,2022-01-23_19h39.53.120,multiplicationStroop,2021.2.3,Win32,60.0240096,,,,,,,,,,,,,,,,,,,,,,,,,,,,,,,,,48,1.8197,1,0,32,32,18,1,8,×,6,8 × 6,congruent,largerFirst,2,1,48,,,,,,,,
,,,,,,,,,,,,,,,815,2022-01-23_19h39.53.120,multiplicationStroop,2021.2.3,Win32,60.0240096,,,,,,,,,,,,,,,,,,,,,,,,,,,,,,,,,21,4.3595,0,0,33,33,26,1,9,×,3,9 × 3,congruent,largerFirst,2,1,27,,,,,,,,
,,,,,,,,,,,,,,,815,2022-01-23_19h39.53.120,multiplicationStroop,2021.2.3,Win32,60.0240096,,,,,,,,,,,,,,,,,,,,,,,,,,,,,,,,,16,1.924,1,0,34,34,30,1,4,×,4,4 × 4,neutral,tie,2,1,16,,,,,,,,
,,,,,,,,,,,,,,,815,2022-01-23_19h39.53.120,multiplicationStroop,2021.2.3,Win32,60.0240096,,,,,,,,,,,,,,,,,,,,,,,,,,,,,,,,,16,1.5482,1,0,35,35,5,1,2,×,8,2 × 8,congruent,smallerFirst,1,2,16,,,,,,,,
,,,,,,,,,,,,,,,815,2022-01-23_19h39.53.120,multiplicationStroop,2021.2.3,Win32,60.0240096,,,,,,,,,,,,,,,,,,,,,,,,,,,,,,,,,,,,,,,,,,,,,,,,,,0,1,1,2,1,stimulusFile/mult_blk3_congruent.xlsx,,
,,,,,,,,,,,,,,,815,2022-01-23_19h39.53.120,multiplicationStroop,2021.2.3,Win32,60.0240096,,,,,,,,,,,,,,,,,,,,,,,,,,,,,,,space,1.2343,64,2.1094,1,0,0,0,34,1,8,×,8,8 × 8,incongruent,tie,1,2,64,,,,,,,,
,,,,,,,,,,,,,,,815,2022-01-23_19h39.53.120,multiplicationStroop,2021.2.3,Win32,60.0240096,,,,,,,,,,,,,,,,,,,,,,,,,,,,,,,,,35,2.2943,1,0,1,1,12,1,5,×,7,5 × 7,incongruent,smallerFirst,2,1,35,,,,,,,,
,,,,,,,,,,,,,,,815,2022-01-23_19h39.53.120,multiplicationStroop,2021.2.3,Win32,60.0240096,,,,,,,,,,,,,,,,,,,,,,,,,,,,,,,,,6,1.7296,1,0,2,2,11,1,2,×,3,2 × 3,incongruent,smallerFirst,2,1,6,,,,,,,,
,,,,,,,,,,,,,,,815,2022-01-23_19h39.53.120,multiplicationStroop,2021.2.3,Win32,60.0240096,,,,,,,,,,,,,,,,,,,,,,,,,,,,,,,,,63,2.3436,1,0,3,3,3,1,7,×,9,7 × 9,incongruent,smallerFirst,2,1,63,,,,,,,,
,,,,,,,,,,,,,,,815,2022-01-23_19h39.53.120,multiplicationStroop,2021.2.3,Win32,60.0240096,,,,,,,,,,,,,,,,,,,,,,,,,,,,,,,,,10,1.5914,1,0,4,4,21,1,5,×,2,5 × 2,incongruent,largerFirst,1,2,10,,,,,,,,
,,,,,,,,,,,,,,,815,2022-01-23_19h39.53.120,multiplicationStroop,2021.2.3,Win32,60.0240096,,,,,,,,,,,,,,,,,,,,,,,,,,,,,,,,,45,1.3979,1,0,5,5,22,1,9,×,5,9 × 5,incongruent,largerFirst,1,2,45,,,,,,,,
,,,,,,,,,,,,,,,815,2022-01-23_19h39.53.120,multiplicationStroop,2021.2.3,Win32,60.0240096,,,,,,,,,,,,,,,,,,,,,,,,,,,,,,,,,12,1.5148,1,0,6,6,19,1,6,×,2,6 × 2,incongruent,largerFirst,1,2,12,,,,,,,,
,,,,,,,,,,,,,,,815,2022-01-23_19h39.53.120,multiplicationStroop,2021.2.3,Win32,60.0240096,,,,,,,,,,,,,,,,,,,,,,,,,,,,,,,,,14,1.7309,1,0,7,7,4,1,2,×,7,2 × 7,incongruent,smallerFirst,2,1,14,,,,,,,,
,,,,,,,,,,,,,,,815,2022-01-23_19h39.53.120,multiplicationStroop,2021.2.3,Win32,60.0240096,,,,,,,,,,,,,,,,,,,,,,,,,,,,,,,,,48,1.9976,1,0,8,8,1,1,6,×,8,6 × 8,incongruent,smallerFirst,2,1,48,,,,,,,,
,,,,,,,,,,,,,,,815,2022-01-23_19h39.53.120,multiplicationStroop,2021.2.3,Win32,60.0240096,,,,,,,,,,,,,,,,,,,,,,,,,,,,,,,,,36,1.6309,1,0,9,9,32,1,6,×,6,6 × 6,incongruent,tie,1,2,36,,,,,,,,
,,,,,,,,,,,,,,,815,2022-01-23_19h39.53.120,multiplicationStroop,2021.2.3,Win32,60.0240096,,,,,,,,,,,,,,,,,,,,,,,,,,,,,,,,,9,1.465,1,0,10,10,29,1,3,×,3,3 × 3,incongruent,tie,1,2,9,,,,,,,,
,,,,,,,,,,,,,,,815,2022-01-23_19h39.53.120,multiplicationStroop,2021.2.3,Win32,60.0240096,,,,,,,,,,,,,,,,,,,,,,,,,,,,,,,,,72,2.3812,1,0,11,11,0,1,8,×,9,8 × 9,incongruent,smallerFirst,2,1,72,,,,,,,,
,,,,,,,,,,,,,,,815,2022-01-23_19h39.53.120,multiplicationStroop,2021.2.3,Win32,60.0240096,,,,,,,,,,,,,,,,,,,,,,,,,,,,,,,,,81,2.0977,1,0,12,12,35,1,9,×,9,9 × 9,incongruent,tie,1,2,81,,,,,,,,
,,,,,,,,,,,,,,,815,2022-01-23_19h39.53.120,multiplicationStroop,2021.2.3,Win32,60.0240096,,,,,,,,,,,,,,,,,,,,,,,,,,,,,,,,,4,1.4982,1,0,13,13,28,1,2,×,2,2 × 2,incongruent,tie,1,2,4,,,,,,,,
,,,,,,,,,,,,,,,815,2022-01-23_19h39.53.120,multiplicationStroop,2021.2.3,Win32,60.0240096,,,,,,,,,,,,,,,,,,,,,,,,,,,,,,,,,40,1.9357,1,0,14,14,13,1,5,×,8,5 × 8,incongruent,smallerFirst,2,1,40,,,,,,,,
,,,,,,,,,,,,,,,815,2022-01-23_19h39.53.120,multiplicationStroop,2021.2.3,Win32,60.0240096,,,,,,,,,,,,,,,,,,,,,,,,,,,,,,,,,30,1.8993,1,0,15,15,25,1,6,×,5,6 × 5,incongruent,largerFirst,1,2,30,,,,,,,,
,,,,,,,,,,,,,,,815,2022-01-23_19h39.53.120,multiplicationStroop,2021.2.3,Win32,60.0240096,,,,,,,,,,,,,,,,,,,,,,,,,,,,,,,,,45,1.4771,0,0,16,16,6,1,6,×,9,6 × 9,incongruent,smallerFirst,2,1,54,,,,,,,,
,,,,,,,,,,,,,,,815,2022-01-23_19h39.53.120,multiplicationStroop,2021.2.3,Win32,60.0240096,,,,,,,,,,,,,,,,,,,,,,,,,,,,,,,,,18,2.1522,1,0,17,17,8,1,3,×,6,3 × 6,incongruent,smallerFirst,2,1,18,,,,,,,,
,,,,,,,,,,,,,,,815,2022-01-23_19h39.53.120,multiplicationStroop,2021.2.3,Win32,60.0240096,,,,,,,,,,,,,,,,,,,,,,,,,,,,,,,,,16,3.0265,1,0,18,18,30,1,4,×,4,4 × 4,incongruent,tie,1,2,16,,,,,,,,
,,,,,,,,,,,,,,,815,2022-01-23_19h39.53.120,multiplicationStroop,2021.2.3,Win32,60.0240096,,,,,,,,,,,,,,,,,,,,,,,,,,,,,,,,,32,1.6149,1,0,19,19,7,1,4,×,8,4 × 8,incongruent,smallerFirst,2,1,32,,,,,,,,
,,,,,,,,,,,,,,,815,2022-01-23_19h39.53.120,multiplicationStroop,2021.2.3,Win32,60.0240096,,,,,,,,,,,,,,,,,,,,,,,,,,,,,,,,,18,1.781,1,0,20,20,2,1,2,×,9,2 × 9,incongruent,smallerFirst,2,1,18,,,,,,,,
,,,,,,,,,,,,,,,815,2022-01-23_19h39.53.120,multiplicationStroop,2021.2.3,Win32,60.0240096,,,,,,,,,,,,,,,,,,,,,,,,,,,,,,,,,24,1.6631,1,0,21,21,9,1,3,×,8,3 × 8,incongruent,smallerFirst,2,1,24,,,,,,,,
,,,,,,,,,,,,,,,815,2022-01-23_19h39.53.120,multiplicationStroop,2021.2.3,Win32,60.0240096,,,,,,,,,,,,,,,,,,,,,,,,,,,,,,,,,28,2.3464,1,0,22,22,16,1,7,×,4,7 × 4,incongruent,largerFirst,1,2,28,,,,,,,,
,,,,,,,,,,,,,,,815,2022-01-23_19h39.53.120,multiplicationStroop,2021.2.3,Win32,60.0240096,,,,,,,,,,,,,,,,,,,,,,,,,,,,,,,,,21,1.4968,1,0,23,23,26,1,7,×,3,7 × 3,incongruent,largerFirst,1,2,21,,,,,,,,
,,,,,,,,,,,,,,,815,2022-01-23_19h39.53.120,multiplicationStroop,2021.2.3,Win32,60.0240096,,,,,,,,,,,,,,,,,,,,,,,,,,,,,,,,,24,1.5519,1,0,24,24,20,1,6,×,4,6 × 4,incongruent,largerFirst,1,2,24,,,,,,,,
,,,,,,,,,,,,,,,815,2022-01-23_19h39.53.120,multiplicationStroop,2021.2.3,Win32,60.0240096,,,,,,,,,,,,,,,,,,,,,,,,,,,,,,,,,49,2.2104,1,0,25,25,33,1,7,×,7,7 × 7,incongruent,tie,1,2,49,,,,,,,,
,,,,,,,,,,,,,,,815,2022-01-23_19h39.53.120,multiplicationStroop,2021.2.3,Win32,60.0240096,,,,,,,,,,,,,,,,,,,,,,,,,,,,,,,,,8,1.5966,1,0,26,26,24,1,4,×,2,4 × 2,incongruent,largerFirst,1,2,8,,,,,,,,
,,,,,,,,,,,,,,,815,2022-01-23_19h39.53.120,multiplicationStroop,2021.2.3,Win32,60.0240096,,,,,,,,,,,,,,,,,,,,,,,,,,,,,,,,,15,1.4475,1,0,27,27,10,1,3,×,5,3 × 5,incongruent,smallerFirst,2,1,15,,,,,,,,
,,,,,,,,,,,,,,,815,2022-01-23_19h39.53.120,multiplicationStroop,2021.2.3,Win32,60.0240096,,,,,,,,,,,,,,,,,,,,,,,,,,,,,,,,,56,1.6299,1,0,28,28,14,1,8,×,7,8 × 7,incongruent,largerFirst,1,2,56,,,,,,,,
,,,,,,,,,,,,,,,815,2022-01-23_19h39.53.120,multiplicationStroop,2021.2.3,Win32,60.0240096,,,,,,,,,,,,,,,,,,,,,,,,,,,,,,,,,42,1.4801,1,0,29,29,17,1,7,×,6,7 × 6,incongruent,largerFirst,1,2,42,,,,,,,,
,,,,,,,,,,,,,,,815,2022-01-23_19h39.53.120,multiplicationStroop,2021.2.3,Win32,60.0240096,,,,,,,,,,,,,,,,,,,,,,,,,,,,,,,,,18,2.0299,0,0,30,30,18,1,9,×,3,9 × 3,incongruent,largerFirst,1,2,27,,,,,,,,
,,,,,,,,,,,,,,,815,2022-01-23_19h39.53.120,multiplicationStroop,2021.2.3,Win32,60.0240096,,,,,,,,,,,,,,,,,,,,,,,,,,,,,,,,,16,3.068,1,0,31,31,23,1,8,×,2,8 × 2,incongruent,largerFirst,1,2,16,,,,,,,,
,,,,,,,,,,,,,,,815,2022-01-23_19h39.53.120,multiplicationStroop,2021.2.3,Win32,60.0240096,,,,,,,,,,,,,,,,,,,,,,,,,,,,,,,,,36,3.9156,1,0,32,32,15,1,9,×,4,9 × 4,incongruent,largerFirst,1,2,36,,,,,,,,
,,,,,,,,,,,,,,,815,2022-01-23_19h39.53.120,multiplicationStroop,2021.2.3,Win32,60.0240096,,,,,,,,,,,,,,,,,,,,,,,,,,,,,,,,,20,1.8033,1,0,33,33,27,1,5,×,4,5 × 4,incongruent,largerFirst,1,2,20,,,,,,,,
,,,,,,,,,,,,,,,815,2022-01-23_19h39.53.120,multiplicationStroop,2021.2.3,Win32,60.0240096,,,,,,,,,,,,,,,,,,,,,,,,,,,,,,,,,12,1.4465,1,0,34,34,5,1,3,×,4,3 × 4,incongruent,smallerFirst,2,1,12,,,,,,,,
,,,,,,,,,,,,,,,815,2022-01-23_19h39.53.120,multiplicationStroop,2021.2.3,Win32,60.0240096,,,,,,,,,,,,,,,,,,,,,,,,,,,,,,,,,25,1.9824,1,0,35,35,31,1,5,×,5,5 × 5,incongruent,tie,1,2,25,,,,,,,,
,,,,,,,,,,,,,,,815,2022-01-23_19h39.53.120,multiplicationStroop,2021.2.3,Win32,60.0240096,,,,,,,,,,,,,,,,,,,,,,,,,,,,,,,,,,,,,,,,,,,,,,,,,,0,2,2,5,1,stimulusFile/mult_blk6_INcongruent.xlsx,,
,,,,,,,,,,,,,,,815,2022-01-23_19h39.53.120,multiplicationStroop,2021.2.3,Win32,60.0240096,,,,,,,,,,,,,,,,,,,,,,,,,,,,,,,space,1.1264,15,2.2902,1,0,0,0,24,1,5,×,3,5 × 3,incongruent,largerFirst,1,2,15,,,,,,,,
,,,,,,,,,,,,,,,815,2022-01-23_19h39.53.120,multiplicationStroop,2021.2.3,Win32,60.0240096,,,,,,,,,,,,,,,,,,,,,,,,,,,,,,,,,20,1.6467,1,0,1,1,13,1,4,×,5,4 × 5,incongruent,smallerFirst,2,1,20,,,,,,,,
,,,,,,,,,,,,,,,815,2022-01-23_19h39.53.120,multiplicationStroop,2021.2.3,Win32,60.0240096,,,,,,,,,,,,,,,,,,,,,,,,,,,,,,,,,48,1.9132,1,0,2,2,15,1,8,×,6,8 × 6,incongruent,largerFirst,1,2,48,,,,,,,,
,,,,,,,,,,,,,,,815,2022-01-23_19h39.53.120,multiplicationStroop,2021.2.3,Win32,60.0240096,,,,,,,,,,,,,,,,,,,,,,,,,,,,,,,,,42,1.7133,1,0,3,3,3,1,6,×,7,6 × 7,incongruent,smallerFirst,2,1,42,,,,,,,,
,,,,,,,,,,,,,,,815,2022-01-23_19h39.53.120,multiplicationStroop,2021.2.3,Win32,60.0240096,,,,,,,,,,,,,,,,,,,,,,,,,,,,,,,,,10,1.6631,1,0,4,4,7,1,2,×,5,2 × 5,incongruent,smallerFirst,2,1,10,,,,,,,,
,,,,,,,,,,,,,,,815,2022-01-23_19h39.53.120,multiplicationStroop,2021.2.3,Win32,60.0240096,,,,,,,,,,,,,,,,,,,,,,,,,,,,,,,,,12,1.3466,1,0,5,5,19,1,4,×,3,4 × 3,incongruent,largerFirst,1,2,12,,,,,,,,
,,,,,,,,,,,,,,,815,2022-01-23_19h39.53.120,multiplicationStroop,2021.2.3,Win32,60.0240096,,,,,,,,,,,,,,,,,,,,,,,,,,,,,,,,,54,2.1145,1,0,6,6,20,1,9,×,6,9 × 6,incongruent,largerFirst,1,2,54,,,,,,,,
,,,,,,,,,,,,,,,815,2022-01-23_19h39.53.120,multiplicationStroop,2021.2.3,Win32,60.0240096,,,,,,,,,,,,,,,,,,,,,,,,,,,,,,,,,16,1.8351,1,0,7,7,30,1,4,×,4,4 × 4,neutral,tie,2,1,16,,,,,,,,
,,,,,,,,,,,,,,,815,2022-01-23_19h39.53.120,multiplicationStroop,2021.2.3,Win32,60.0240096,,,,,,,,,,,,,,,,,,,,,,,,,,,,,,,,,25,1.9988,1,0,8,8,31,1,5,×,5,5 × 5,neutral,tie,2,1,25,,,,,,,,
,,,,,,,,,,,,,,,815,2022-01-23_19h39.53.120,multiplicationStroop,2021.2.3,Win32,60.0240096,,,,,,,,,,,,,,,,,,,,,,,,,,,,,,,,,36,1.9109,1,0,9,9,32,1,6,×,6,6 × 6,neutral,tie,2,1,36,,,,,,,,
,,,,,,,,,,,,,,,815,2022-01-23_19h39.53.120,multiplicationStroop,2021.2.3,Win32,60.0240096,,,,,,,,,,,,,,,,,,,,,,,,,,,,,,,,,56,1.6131,1,0,10,10,0,1,7,×,8,7 × 8,incongruent,smallerFirst,2,1,56,,,,,,,,
,,,,,,,,,,,,,,,815,2022-01-23_19h39.53.120,multiplicationStroop,2021.2.3,Win32,60.0240096,,,,,,,,,,,,,,,,,,,,,,,,,,,,,,,,,6,1.4805,1,0,11,11,25,1,3,×,2,3 × 2,incongruent,largerFirst,1,2,6,,,,,,,,
,,,,,,,,,,,,,,,815,2022-01-23_19h39.53.120,multiplicationStroop,2021.2.3,Win32,60.0240096,,,,,,,,,,,,,,,,,,,,,,,,,,,,,,,,,8,1.4469,1,0,12,12,10,1,2,×,4,2 × 4,incongruent,smallerFirst,2,1,8,,,,,,,,
,,,,,,,,,,,,,,,815,2022-01-23_19h39.53.120,multiplicationStroop,2021.2.3,Win32,60.0240096,,,,,,,,,,,,,,,,,,,,,,,,,,,,,,,,,40,1.819,1,0,13,13,27,1,8,×,5,8 × 5,incongruent,largerFirst,1,2,40,,,,,,,,
,,,,,,,,,,,,,,,815,2022-01-23_19h39.53.120,multiplicationStroop,2021.2.3,Win32,60.0240096,,,,,,,,,,,,,,,,,,,,,,,,,,,,,,,,,63,2.5444,0,0,14,14,34,1,8,×,8,8 × 8,neutral,tie,2,1,64,,,,,,,,
,,,,,,,,,,,,,,,815,2022-01-23_19h39.53.120,multiplicationStroop,2021.2.3,Win32,60.0240096,,,,,,,,,,,,,,,,,,,,,,,,,,,,,,,,,18,2.0172,1,0,15,15,22,1,6,×,3,6 × 3,incongruent,largerFirst,1,2,18,,,,,,,,
,,,,,,,,,,,,,,,815,2022-01-23_19h39.53.120,multiplicationStroop,2021.2.3,Win32,60.0240096,,,,,,,,,,,,,,,,,,,,,,,,,,,,,,,,,32,1.5344,1,0,16,16,21,1,8,×,4,8 × 4,incongruent,largerFirst,1,2,32,,,,,,,,
,,,,,,,,,,,,,,,815,2022-01-23_19h39.53.120,multiplicationStroop,2021.2.3,Win32,60.0240096,,,,,,,,,,,,,,,,,,,,,,,,,,,,,,,,,72,2.7155,1,0,17,17,14,1,9,×,8,9 × 8,incongruent,largerFirst,1,2,72,,,,,,,,
,,,,,,,,,,,,,,,815,2022-01-23_19h39.53.120,multiplicationStroop,2021.2.3,Win32,60.0240096,,,,,,,,,,,,,,,,,,,,,,,,,,,,,,,,,63,2.1604,1,0,18,18,17,1,9,×,7,9 × 7,incongruent,largerFirst,1,2,63,,,,,,,,
,,,,,,,,,,,,,,,815,2022-01-23_19h39.53.120,multiplicationStroop,2021.2.3,Win32,60.0240096,,,,,,,,,,,,,,,,,,,,,,,,,,,,,,,,,35,2.0809,1,0,19,19,26,1,7,×,5,7 × 5,incongruent,largerFirst,1,2,35,,,,,,,,
,,,,,,,,,,,,,,,815,2022-01-23_19h39.53.120,multiplicationStroop,2021.2.3,Win32,60.0240096,,,,,,,,,,,,,,,,,,,,,,,,,,,,,,,,,18,1.8571,1,0,20,20,16,1,9,×,2,9 × 2,incongruent,largerFirst,1,2,18,,,,,,,,
,,,,,,,,,,,,,,,815,2022-01-23_19h39.53.120,multiplicationStroop,2021.2.3,Win32,60.0240096,,,,,,,,,,,,,,,,,,,,,,,,,,,,,,,,,24,1.7966,1,0,21,21,6,1,4,×,6,4 × 6,incongruent,smallerFirst,2,1,24,,,,,,,,
,,,,,,,,,,,,,,,815,2022-01-23_19h39.53.120,multiplicationStroop,2021.2.3,Win32,60.0240096,,,,,,,,,,,,,,,,,,,,,,,,,,,,,,,,,45,2.1631,1,0,22,22,8,1,5,×,9,5 × 9,incongruent,smallerFirst,2,1,45,,,,,,,,
,,,,,,,,,,,,,,,815,2022-01-23_19h39.53.120,multiplicationStroop,2021.2.3,Win32,60.0240096,,,,,,,,,,,,,,,,,,,,,,,,,,,,,,,,,49,2.1639,1,0,23,23,33,1,7,×,7,7 × 7,neutral,tie,2,1,49,,,,,,,,
,,,,,,,,,,,,,,,815,2022-01-23_19h39.53.120,multiplicationStroop,2021.2.3,Win32,60.0240096,,,,,,,,,,,,,,,,,,,,,,,,,,,,,,,,,12,1.2726,1,0,24,24,5,1,2,×,6,2 × 6,incongruent,smallerFirst,2,1,12,,,,,,,,
,,,,,,,,,,,,,,,815,2022-01-23_19h39.53.120,multiplicationStroop,2021.2.3,Win32,60.0240096,,,,,,,,,,,,,,,,,,,,,,,,,,,,,,,,,14,1.5188,1,0,25,25,18,1,7,×,2,7 × 2,incongruent,largerFirst,1,2,14,,,,,,,,
,,,,,,,,,,,,,,,815,2022-01-23_19h39.53.120,multiplicationStroop,2021.2.3,Win32,60.0240096,,,,,,,,,,,,,,,,,,,,,,,,,,,,,,,,,81,1.5108,1,0,26,26,35,1,9,×,9,9 × 9,neutral,tie,2,1,81,,,,,,,,
,,,,,,,,,,,,,,,815,2022-01-23_19h39.53.120,multiplicationStroop,2021.2.3,Win32,60.0240096,,,,,,,,,,,,,,,,,,,,,,,,,,,,,,,,,30,1.5633,1,0,27,27,11,1,5,×,6,5 × 6,incongruent,smallerFirst,2,1,30,,,,,,,,
,,,,,,,,,,,,,,,815,2022-01-23_19h39.53.120,multiplicationStroop,2021.2.3,Win32,60.0240096,,,,,,,,,,,,,,,,,,,,,,,,,,,,,,,,,18,2.7305,0,0,28,28,4,1,3,×,9,3 × 9,incongruent,smallerFirst,2,1,27,,,,,,,,
,,,,,,,,,,,,,,,815,2022-01-23_19h39.53.120,multiplicationStroop,2021.2.3,Win32,60.0240096,,,,,,,,,,,,,,,,,,,,,,,,,,,,,,,,,16,1.8068,1,0,29,29,9,1,2,×,8,2 × 8,incongruent,smallerFirst,2,1,16,,,,,,,,
,,,,,,,,,,,,,,,815,2022-01-23_19h39.53.120,multiplicationStroop,2021.2.3,Win32,60.0240096,,,,,,,,,,,,,,,,,,,,,,,,,,,,,,,,,4,1.3965,1,0,30,30,28,1,2,×,2,2 × 2,neutral,tie,2,1,4,,,,,,,,
,,,,,,,,,,,,,,,815,2022-01-23_19h39.53.120,multiplicationStroop,2021.2.3,Win32,60.0240096,,,,,,,,,,,,,,,,,,,,,,,,,,,,,,,,,9,2.0633,1,0,31,31,29,1,3,×,3,3 × 3,neutral,tie,2,1,9,,,,,,,,
,,,,,,,,,,,,,,,815,2022-01-23_19h39.53.120,multiplicationStroop,2021.2.3,Win32,60.0240096,,,,,,,,,,,,,,,,,,,,,,,,,,,,,,,,,36,3.4293,1,0,32,32,1,1,4,×,9,4 × 9,incongruent,smallerFirst,2,1,36,,,,,,,,
,,,,,,,,,,,,,,,815,2022-01-23_19h39.53.120,multiplicationStroop,2021.2.3,Win32,60.0240096,,,,,,,,,,,,,,,,,,,,,,,,,,,,,,,,,28,2.7777,1,0,33,33,2,1,4,×,7,4 × 7,incongruent,smallerFirst,2,1,28,,,,,,,,
,,,,,,,,,,,,,,,815,2022-01-23_19h39.53.120,multiplicationStroop,2021.2.3,Win32,60.0240096,,,,,,,,,,,,,,,,,,,,,,,,,,,,,,,,,24,1.8925,1,0,34,34,23,1,8,×,3,8 × 3,incongruent,largerFirst,1,2,24,,,,,,,,
,,,,,,,,,,,,,,,815,2022-01-23_19h39.53.120,multiplicationStroop,2021.2.3,Win32,60.0240096,,,,,,,,,,,,,,,,,,,,,,,,,,,,,,,,,21,1.4589,1,0,35,35,12,1,3,×,7,3 × 7,incongruent,smallerFirst,2,1,21,,,,,,,,
,,,,,,,,,,,,,,,815,2022-01-23_19h39.53.120,multiplicationStroop,2021.2.3,Win32,60.0240096,,,,,,,,,,,,,,,,,,,,,,,,,,,,,,,,,,,,,,,,,,,,,,,,,,0,3,3,4,1,stimulusFile/mult_blk5_INcongruent.xlsx,,
,,,,,,,,,,,,,,,815,2022-01-23_19h39.53.120,multiplicationStroop,2021.2.3,Win32,60.0240096,,,,,,,,,,,,,,,,,,,,,,,,,,,,,,,space,1.1843,25,2.2226,1,0,0,0,31,1,5,×,5,5 × 5,neutral,tie,1.5,1.5,25,,,,,,,,
,,,,,,,,,,,,,,,815,2022-01-23_19h39.53.120,multiplicationStroop,2021.2.3,Win32,60.0240096,,,,,,,,,,,,,,,,,,,,,,,,,,,,,,,,,6,1.486,1,0,1,1,12,1,2,×,3,2 × 3,neutral,smallerFirst,1.5,1.5,6,,,,,,,,
,,,,,,,,,,,,,,,815,2022-01-23_19h39.53.120,multiplicationStroop,2021.2.3,Win32,60.0240096,,,,,,,,,,,,,,,,,,,,,,,,,,,,,,,,,20,1.6765,1,0,2,2,6,1,4,×,5,4 × 5,neutral,smallerFirst,1.5,1.5,20,,,,,,,,
,,,,,,,,,,,,,,,815,2022-01-23_19h39.53.120,multiplicationStroop,2021.2.3,Win32,60.0240096,,,,,,,,,,,,,,,,,,,,,,,,,,,,,,,,,24,1.6479,1,0,3,3,16,1,6,×,4,6 × 4,neutral,largerFirst,1.5,1.5,24,,,,,,,,
,,,,,,,,,,,,,,,815,2022-01-23_19h39.53.120,multiplicationStroop,2021.2.3,Win32,60.0240096,,,,,,,,,,,,,,,,,,,,,,,,,,,,,,,,,72,1.6853,1,0,4,4,25,1,9,×,8,9 × 8,neutral,largerFirst,1.5,1.5,72,,,,,,,,
,,,,,,,,,,,,,,,815,2022-01-23_19h39.53.120,multiplicationStroop,2021.2.3,Win32,60.0240096,,,,,,,,,,,,,,,,,,,,,,,,,,,,,,,,,16,1.8106,1,0,5,5,27,1,8,×,2,8 × 2,neutral,largerFirst,1.5,1.5,16,,,,,,,,
,,,,,,,,,,,,,,,815,2022-01-23_19h39.53.120,multiplicationStroop,2021.2.3,Win32,60.0240096,,,,,,,,,,,,,,,,,,,,,,,,,,,,,,,,,18,1.6137,1,0,6,6,4,1,2,×,9,2 × 9,neutral,smallerFirst,1.5,1.5,18,,,,,,,,
,,,,,,,,,,,,,,,815,2022-01-23_19h39.53.120,multiplicationStroop,2021.2.3,Win32,60.0240096,,,,,,,,,,,,,,,,,,,,,,,,,,,,,,,,,16,1.7632,1,0,7,7,30,1,4,×,4,4 × 4,neutral,tie,1.5,1.5,16,,,,,,,,
,,,,,,,,,,,,,,,815,2022-01-23_19h39.53.120,multiplicationStroop,2021.2.3,Win32,60.0240096,,,,,,,,,,,,,,,,,,,,,,,,,,,,,,,,,4,1.2974,1,0,8,8,28,1,2,×,2,2 × 2,neutral,tie,1.5,1.5,4,,,,,,,,
,,,,,,,,,,,,,,,815,2022-01-23_19h39.53.120,multiplicationStroop,2021.2.3,Win32,60.0240096,,,,,,,,,,,,,,,,,,,,,,,,,,,,,,,,,30,1.9464,1,0,9,9,5,1,5,×,6,5 × 6,neutral,smallerFirst,1.5,1.5,30,,,,,,,,
,,,,,,,,,,,,,,,815,2022-01-23_19h39.53.120,multiplicationStroop,2021.2.3,Win32,60.0240096,,,,,,,,,,,,,,,,,,,,,,,,,,,,,,,,,56,2.0131,1,0,10,10,23,1,8,×,7,8 × 7,neutral,largerFirst,1.5,1.5,56,,,,,,,,
,,,,,,,,,,,,,,,815,2022-01-23_19h39.53.120,multiplicationStroop,2021.2.3,Win32,60.0240096,,,,,,,,,,,,,,,,,,,,,,,,,,,,,,,,,8,1.6474,1,0,11,11,17,1,4,×,2,4 × 2,neutral,largerFirst,1.5,1.5,8,,,,,,,,
,,,,,,,,,,,,,,,815,2022-01-23_19h39.53.120,multiplicationStroop,2021.2.3,Win32,60.0240096,,,,,,,,,,,,,,,,,,,,,,,,,,,,,,,,,64,1.8298,1,0,12,12,34,1,8,×,8,8 × 8,neutral,tie,1.5,1.5,64,,,,,,,,
,,,,,,,,,,,,,,,815,2022-01-23_19h39.53.120,multiplicationStroop,2021.2.3,Win32,60.0240096,,,,,,,,,,,,,,,,,,,,,,,,,,,,,,,,,24,2.3131,1,0,13,13,8,1,3,×,8,3 × 8,neutral,smallerFirst,1.5,1.5,24,,,,,,,,
,,,,,,,,,,,,,,,815,2022-01-23_19h39.53.120,multiplicationStroop,2021.2.3,Win32,60.0240096,,,,,,,,,,,,,,,,,,,,,,,,,,,,,,,,,27,1.9468,1,0,14,14,0,1,3,×,9,3 × 9,neutral,smallerFirst,1.5,1.5,27,,,,,,,,
,,,,,,,,,,,,,,,815,2022-01-23_19h39.53.120,multiplicationStroop,2021.2.3,Win32,60.0240096,,,,,,,,,,,,,,,,,,,,,,,,,,,,,,,,,9,1.6631,1,0,15,15,29,1,3,×,3,3 × 3,neutral,tie,1.5,1.5,9,,,,,,,,
,,,,,,,,,,,,,,,815,2022-01-23_19h39.53.120,multiplicationStroop,2021.2.3,Win32,60.0240096,,,,,,,,,,,,,,,,,,,,,,,,,,,,,,,,,21,2.2804,1,0,16,16,22,1,7,×,3,7 × 3,neutral,largerFirst,1.5,1.5,21,,,,,,,,
,,,,,,,,,,,,,,,815,2022-01-23_19h39.53.120,multiplicationStroop,2021.2.3,Win32,60.0240096,,,,,,,,,,,,,,,,,,,,,,,,,,,,,,,,,40,3.7351,1,0,17,17,10,1,5,×,8,5 × 8,neutral,smallerFirst,1.5,1.5,40,,,,,,,,
,,,,,,,,,,,,,,,815,2022-01-23_19h39.53.120,multiplicationStroop,2021.2.3,Win32,60.0240096,,,,,,,,,,,,,,,,,,,,,,,,,,,,,,,,,28,1.7695,1,0,18,18,3,1,4,×,7,4 × 7,neutral,smallerFirst,1.5,1.5,28,,,,,,,,
,,,,,,,,,,,,,,,815,2022-01-23_19h39.53.120,multiplicationStroop,2021.2.3,Win32,60.0240096,,,,,,,,,,,,,,,,,,,,,,,,,,,,,,,,,36,2.0299,1,0,19,19,32,1,6,×,6,6 × 6,neutral,tie,1.5,1.5,36,,,,,,,,
,,,,,,,,,,,,,,,815,2022-01-23_19h39.53.120,multiplicationStroop,2021.2.3,Win32,60.0240096,,,,,,,,,,,,,,,,,,,,,,,,,,,,,,,,,48,1.7967,1,0,20,20,1,1,6,×,8,6 × 8,neutral,smallerFirst,1.5,1.5,48,,,,,,,,
,,,,,,,,,,,,,,,815,2022-01-23_19h39.53.120,multiplicationStroop,2021.2.3,Win32,60.0240096,,,,,,,,,,,,,,,,,,,,,,,,,,,,,,,,,81,1.9796,1,0,21,21,35,1,9,×,9,9 × 9,neutral,tie,1.5,1.5,81,,,,,,,,
,,,,,,,,,,,,,,,815,2022-01-23_19h39.53.120,multiplicationStroop,2021.2.3,Win32,60.0240096,,,,,,,,,,,,,,,,,,,,,,,,,,,,,,,,,49,2.6305,1,0,22,22,33,1,7,×,7,7 × 7,neutral,tie,1.5,1.5,49,,,,,,,,
,,,,,,,,,,,,,,,815,2022-01-23_19h39.53.120,multiplicationStroop,2021.2.3,Win32,60.0240096,,,,,,,,,,,,,,,,,,,,,,,,,,,,,,,,,15,1.8468,1,0,23,23,19,1,5,×,3,5 × 3,neutral,largerFirst,1.5,1.5,15,,,,,,,,
,,,,,,,,,,,,,,,815,2022-01-23_19h39.53.120,multiplicationStroop,2021.2.3,Win32,60.0240096,,,,,,,,,,,,,,,,,,,,,,,,,,,,,,,,,14,1.6644,1,0,24,24,2,1,2,×,7,2 × 7,neutral,smallerFirst,1.5,1.5,14,,,,,,,,
,,,,,,,,,,,,,,,815,2022-01-23_19h39.53.120,multiplicationStroop,2021.2.3,Win32,60.0240096,,,,,,,,,,,,,,,,,,,,,,,,,,,,,,,,,45,1.6966,1,0,25,25,24,1,9,×,5,9 × 5,neutral,largerFirst,1.5,1.5,45,,,,,,,,
,,,,,,,,,,,,,,,815,2022-01-23_19h39.53.120,multiplicationStroop,2021.2.3,Win32,60.0240096,,,,,,,,,,,,,,,,,,,,,,,,,,,,,,,,,10,1.5133,1,0,26,26,18,1,5,×,2,5 × 2,neutral,largerFirst,1.5,1.5,10,,,,,,,,
,,,,,,,,,,,,,,,815,2022-01-23_19h39.53.120,multiplicationStroop,2021.2.3,Win32,60.0240096,,,,,,,,,,,,,,,,,,,,,,,,,,,,,,,,,12,1.4637,1,0,27,27,7,1,3,×,4,3 × 4,neutral,smallerFirst,1.5,1.5,12,,,,,,,,
,,,,,,,,,,,,,,,815,2022-01-23_19h39.53.120,multiplicationStroop,2021.2.3,Win32,60.0240096,,,,,,,,,,,,,,,,,,,,,,,,,,,,,,,,,36,3.0683,1,0,28,28,13,1,4,×,9,4 × 9,neutral,smallerFirst,1.5,1.5,36,,,,,,,,
,,,,,,,,,,,,,,,815,2022-01-23_19h39.53.120,multiplicationStroop,2021.2.3,Win32,60.0240096,,,,,,,,,,,,,,,,,,,,,,,,,,,,,,,,,35,1.8707,1,0,29,29,15,1,7,×,5,7 × 5,neutral,largerFirst,1.5,1.5,35,,,,,,,,
,,,,,,,,,,,,,,,815,2022-01-23_19h39.53.120,multiplicationStroop,2021.2.3,Win32,60.0240096,,,,,,,,,,,,,,,,,,,,,,,,,,,,,,,,,32,1.4681,1,0,30,30,9,1,4,×,8,4 × 8,neutral,smallerFirst,1.5,1.5,32,,,,,,,,
,,,,,,,,,,,,,,,815,2022-01-23_19h39.53.120,multiplicationStroop,2021.2.3,Win32,60.0240096,,,,,,,,,,,,,,,,,,,,,,,,,,,,,,,,,54,1.9111,1,0,31,31,21,1,9,×,6,9 × 6,neutral,largerFirst,1.5,1.5,54,,,,,,,,
,,,,,,,,,,,,,,,815,2022-01-23_19h39.53.120,multiplicationStroop,2021.2.3,Win32,60.0240096,,,,,,,,,,,,,,,,,,,,,,,,,,,,,,,,,63,2.7139,1,0,32,32,26,1,9,×,7,9 × 7,neutral,largerFirst,1.5,1.5,63,,,,,,,,
,,,,,,,,,,,,,,,815,2022-01-23_19h39.53.120,multiplicationStroop,2021.2.3,Win32,60.0240096,,,,,,,,,,,,,,,,,,,,,,,,,,,,,,,,,18,2.1575,1,0,33,33,14,1,6,×,3,6 × 3,neutral,largerFirst,1.5,1.5,18,,,,,,,,
,,,,,,,,,,,,,,,815,2022-01-23_19h39.53.120,multiplicationStroop,2021.2.3,Win32,60.0240096,,,,,,,,,,,,,,,,,,,,,,,,,,,,,,,,,42,2.8142,1,0,34,34,20,1,7,×,6,7 × 6,neutral,largerFirst,1.5,1.5,42,,,,,,,,
,,,,,,,,,,,,,,,815,2022-01-23_19h39.53.120,multiplicationStroop,2021.2.3,Win32,60.0240096,,,,,,,,,,,,,,,,,,,,,,,,,,,,,,,,,12,1.4645,1,0,35,35,11,1,2,×,6,2 × 6,neutral,smallerFirst,1.5,1.5,12,,,,,,,,
,,,,,,,,,,,,,,,815,2022-01-23_19h39.53.120,multiplicationStroop,2021.2.3,Win32,60.0240096,,,,,,,,,,,,,,,,,,,,,,,,,,,,,,,,,,,,,,,,,,,,,,,,,,0,4,4,0,1,stimulusFile/mult_blk1.xlsx,,
,,,,,,,,,,,,,,,815,2022-01-23_19h39.53.120,multiplicationStroop,2021.2.3,Win32,60.0240096,,,,,,,,,,,,,,,,,,,,,,,,,,,,,,,space,4.459,45,1.7724,1,0,0,0,9,1,5,×,9,5 × 9,congruent,smallerFirst,1,2,45,,,,,,,,
,,,,,,,,,,,,,,,815,2022-01-23_19h39.53.120,multiplicationStroop,2021.2.3,Win32,60.0240096,,,,,,,,,,,,,,,,,,,,,,,,,,,,,,,,,54,1.4776,1,0,1,1,26,1,9,×,6,9 × 6,congruent,largerFirst,2,1,54,,,,,,,,
,,,,,,,,,,,,,,,815,2022-01-23_19h39.53.120,multiplicationStroop,2021.2.3,Win32,60.0240096,,,,,,,,,,,,,,,,,,,,,,,,,,,,,,,,,49,2.9312,1,0,2,2,33,1,7,×,7,7 × 7,neutral,tie,1,2,49,,,,,,,,
,,,,,,,,,,,,,,,815,2022-01-23_19h39.53.120,multiplicationStroop,2021.2.3,Win32,60.0240096,,,,,,,,,,,,,,,,,,,,,,,,,,,,,,,,,36,2.2635,1,0,3,3,32,1,6,×,6,6 × 6,neutral,tie,1,2,36,,,,,,,,
,,,,,,,,,,,,,,,815,2022-01-23_19h39.53.120,multiplicationStroop,2021.2.3,Win32,60.0240096,,,,,,,,,,,,,,,,,,,,,,,,,,,,,,,,,9,1.5553,1,0,4,4,29,1,3,×,3,3 × 3,neutral,tie,1,2,9,,,,,,,,
,,,,,,,,,,,,,,,815,2022-01-23_19h39.53.120,multiplicationStroop,2021.2.3,Win32,60.0240096,,,,,,,,,,,,,,,,,,,,,,,,,,,,,,,,,35,1.6637,1,0,5,5,15,1,7,×,5,7 × 5,congruent,largerFirst,2,1,35,,,,,,,,
,,,,,,,,,,,,,,,815,2022-01-23_19h39.53.120,multiplicationStroop,2021.2.3,Win32,60.0240096,,,,,,,,,,,,,,,,,,,,,,,,,,,,,,,,,18,2.1799,1,0,6,6,25,1,6,×,3,6 × 3,congruent,largerFirst,2,1,18,,,,,,,,
,,,,,,,,,,,,,,,815,2022-01-23_19h39.53.120,multiplicationStroop,2021.2.3,Win32,60.0240096,,,,,,,,,,,,,,,,,,,,,,,,,,,,,,,,,40,1.7303,1,0,7,7,20,1,8,×,5,8 × 5,congruent,largerFirst,2,1,40,,,,,,,,
,,,,,,,,,,,,,,,815,2022-01-23_19h39.53.120,multiplicationStroop,2021.2.3,Win32,60.0240096,,,,,,,,,,,,,,,,,,,,,,,,,,,,,,,,,16,1.798,1,0,8,8,30,1,4,×,4,4 × 4,neutral,tie,1,2,16,,,,,,,,
,,,,,,,,,,,,,,,815,2022-01-23_19h39.53.120,multiplicationStroop,2021.2.3,Win32,60.0240096,,,,,,,,,,,,,,,,,,,,,,,,,,,,,,,,,72,2.236,1,0,9,9,3,1,8,×,9,8 × 9,congruent,smallerFirst,1,2,72,,,,,,,,
,,,,,,,,,,,,,,,815,2022-01-23_19h39.53.120,multiplicationStroop,2021.2.3,Win32,60.0240096,,,,,,,,,,,,,,,,,,,,,,,,,,,,,,,,,56,1.5938,1,0,10,10,22,1,8,×,7,8 × 7,congruent,largerFirst,2,1,56,,,,,,,,
,,,,,,,,,,,,,,,815,2022-01-23_19h39.53.120,multiplicationStroop,2021.2.3,Win32,60.0240096,,,,,,,,,,,,,,,,,,,,,,,,,,,,,,,,,28,9.4299,1,0,11,11,13,1,4,×,7,4 × 7,congruent,smallerFirst,1,2,28,,,,,,,,
,,,,,,,,,,,,,,,815,2022-01-23_19h39.53.120,multiplicationStroop,2021.2.3,Win32,60.0240096,,,,,,,,,,,,,,,,,,,,,,,,,,,,,,,,,10,1.4399,1,0,12,12,10,1,2,×,5,2 × 5,congruent,smallerFirst,1,2,10,,,,,,,,
,,,,,,,,,,,,,,,815,2022-01-23_19h39.53.120,multiplicationStroop,2021.2.3,Win32,60.0240096,,,,,,,,,,,,,,,,,,,,,,,,,,,,,,,,,25,1.8649,1,0,13,13,31,1,5,×,5,5 × 5,neutral,tie,1,2,25,,,,,,,,
,,,,,,,,,,,,,,,815,2022-01-23_19h39.53.120,multiplicationStroop,2021.2.3,Win32,60.0240096,,,,,,,,,,,,,,,,,,,,,,,,,,,,,,,,,15,1.5817,1,0,14,14,18,1,5,×,3,5 × 3,congruent,largerFirst,2,1,15,,,,,,,,
,,,,,,,,,,,,,,,815,2022-01-23_19h39.53.120,multiplicationStroop,2021.2.3,Win32,60.0240096,,,,,,,,,,,,,,,,,,,,,,,,,,,,,,,,,36,2.1816,1,0,15,15,14,1,9,×,4,9 × 4,congruent,largerFirst,2,1,36,,,,,,,,
,,,,,,,,,,,,,,,815,2022-01-23_19h39.53.120,multiplicationStroop,2021.2.3,Win32,60.0240096,,,,,,,,,,,,,,,,,,,,,,,,,,,,,,,,,30,1.8316,1,0,16,16,1,1,5,×,6,5 × 6,congruent,smallerFirst,1,2,30,,,,,,,,
,,,,,,,,,,,,,,,815,2022-01-23_19h39.53.120,multiplicationStroop,2021.2.3,Win32,60.0240096,,,,,,,,,,,,,,,,,,,,,,,,,,,,,,,,,24,1.6867,1,0,17,17,11,1,4,×,6,4 × 6,congruent,smallerFirst,1,2,24,,,,,,,,
,,,,,,,,,,,,,,,815,2022-01-23_19h39.53.120,multiplicationStroop,2021.2.3,Win32,60.0240096,,,,,,,,,,,,,,,,,,,,,,,,,,,,,,,,,8,1.6941,1,0,18,18,23,1,4,×,2,4 × 2,congruent,largerFirst,2,1,8,,,,,,,,
,,,,,,,,,,,,,,,815,2022-01-23_19h39.53.120,multiplicationStroop,2021.2.3,Win32,60.0240096,,,,,,,,,,,,,,,,,,,,,,,,,,,,,,,,,63,2.5813,1,0,19,19,7,1,7,×,9,7 × 9,congruent,smallerFirst,1,2,63,,,,,,,,
,,,,,,,,,,,,,,,815,2022-01-23_19h39.53.120,multiplicationStroop,2021.2.3,Win32,60.0240096,,,,,,,,,,,,,,,,,,,,,,,,,,,,,,,,,4,1.465,1,0,20,20,28,1,2,×,2,2 × 2,neutral,tie,1,2,4,,,,,,,,
,,,,,,,,,,,,,,,815,2022-01-23_19h39.53.120,multiplicationStroop,2021.2.3,Win32,60.0240096,,,,,,,,,,,,,,,,,,,,,,,,,,,,,,,,,12,1.3483,1,0,21,21,16,1,4,×,3,4 × 3,congruent,largerFirst,2,1,12,,,,,,,,
,,,,,,,,,,,,,,,815,2022-01-23_19h39.53.120,multiplicationStroop,2021.2.3,Win32,60.0240096,,,,,,,,,,,,,,,,,,,,,,,,,,,,,,,,,64,2.048,1,0,22,22,34,1,8,×,8,8 × 8,neutral,tie,1,2,64,,,,,,,,
,,,,,,,,,,,,,,,815,2022-01-23_19h39.53.120,multiplicationStroop,2021.2.3,Win32,60.0240096,,,,,,,,,,,,,,,,,,,,,,,,,,,,,,,,,24,2.5539,1,0,23,23,24,1,8,×,3,8 × 3,congruent,largerFirst,2,1,24,,,,,,,,
,,,,,,,,,,,,,,,815,2022-01-23_19h39.53.120,multiplicationStroop,2021.2.3,Win32,60.0240096,,,,,,,,,,,,,,,,,,,,,,,,,,,,,,,,,20,1.7375,1,0,24,24,21,1,5,×,4,5 × 4,congruent,largerFirst,2,1,20,,,,,,,,
,,,,,,,,,,,,,,,815,2022-01-23_19h39.53.120,multiplicationStroop,2021.2.3,Win32,60.0240096,,,,,,,,,,,,,,,,,,,,,,,,,,,,,,,,,81,1.5483,1,0,25,25,35,1,9,×,9,9 × 9,neutral,tie,1,2,81,,,,,,,,
,,,,,,,,,,,,,,,815,2022-01-23_19h39.53.120,multiplicationStroop,2021.2.3,Win32,60.0240096,,,,,,,,,,,,,,,,,,,,,,,,,,,,,,,,,18,2.0816,0,0,26,26,12,1,3,×,9,3 × 9,congruent,smallerFirst,1,2,27,,,,,,,,
,,,,,,,,,,,,,,,815,2022-01-23_19h39.53.120,multiplicationStroop,2021.2.3,Win32,60.0240096,,,,,,,,,,,,,,,,,,,,,,,,,,,,,,,,,48,2.2151,1,0,27,27,4,1,6,×,8,6 × 8,congruent,smallerFirst,1,2,48,,,,,,,,
,,,,,,,,,,,,,,,815,2022-01-23_19h39.53.120,multiplicationStroop,2021.2.3,Win32,60.0240096,,,,,,,,,,,,,,,,,,,,,,,,,,,,,,,,,18,1.7981,1,0,28,28,8,1,2,×,9,2 × 9,congruent,smallerFirst,1,2,18,,,,,,,,
,,,,,,,,,,,,,,,815,2022-01-23_19h39.53.120,multiplicationStroop,2021.2.3,Win32,60.0240096,,,,,,,,,,,,,,,,,,,,,,,,,,,,,,,,,16,1.8647,1,0,29,29,19,1,8,×,2,8 × 2,congruent,largerFirst,2,1,16,,,,,,,,
,,,,,,,,,,,,,,,815,2022-01-23_19h39.53.120,multiplicationStroop,2021.2.3,Win32,60.0240096,,,,,,,,,,,,,,,,,,,,,,,,,,,,,,,,,21,1.5149,1,0,30,30,2,1,3,×,7,3 × 7,congruent,smallerFirst,1,2,21,,,,,,,,
,,,,,,,,,,,,,,,815,2022-01-23_19h39.53.120,multiplicationStroop,2021.2.3,Win32,60.0240096,,,,,,,,,,,,,,,,,,,,,,,,,,,,,,,,,32,3.0029,1,0,31,31,6,1,4,×,8,4 × 8,congruent,smallerFirst,1,2,32,,,,,,,,
,,,,,,,,,,,,,,,815,2022-01-23_19h39.53.120,multiplicationStroop,2021.2.3,Win32,60.0240096,,,,,,,,,,,,,,,,,,,,,,,,,,,,,,,,,14,2.2708,1,0,32,32,0,1,2,×,7,2 × 7,congruent,smallerFirst,1,2,14,,,,,,,,
,,,,,,,,,,,,,,,815,2022-01-23_19h39.53.120,multiplicationStroop,2021.2.3,Win32,60.0240096,,,,,,,,,,,,,,,,,,,,,,,,,,,,,,,,,12,1.4815,1,0,33,33,5,1,2,×,6,2 × 6,congruent,smallerFirst,1,2,12,,,,,,,,
,,,,,,,,,,,,,,,815,2022-01-23_19h39.53.120,multiplicationStroop,2021.2.3,Win32,60.0240096,,,,,,,,,,,,,,,,,,,,,,,,,,,,,,,,,42,3.6646,1,0,34,34,17,1,7,×,6,7 × 6,congruent,largerFirst,2,1,42,,,,,,,,
,,,,,,,,,,,,,,,815,2022-01-23_19h39.53.120,multiplicationStroop,2021.2.3,Win32,60.0240096,,,,,,,,,,,,,,,,,,,,,,,,,,,,,,,,,6,1.8795,1,0,35,35,27,1,3,×,2,3 × 2,congruent,largerFirst,2,1,6,,,,,,,,
,,,,,,,,,,,,,,,815,2022-01-23_19h39.53.120,multiplicationStroop,2021.2.3,Win32,60.0240096,,,,,,,,,,,,,,,,,,,,,,,,,,,,,,,,,,,,,,,,,,,,,,,,,,0,5,5,3,1,stimulusFile/mult_blk4_congruent.xlsx,,
,,,,,,,,,,,,,,,815,2022-01-23_19h39.53.120,multiplicationStroop,2021.2.3,Win32,60.0240096,,,,,,,,,,,,,,,,,,,,,,,,,,,,,,,,,,,,,,,,,,,,,,,,,,,,,,,,space,6.6924