welcomeKey_resp.keys,welcomeKey_resp.rt,X Scale,Y Scale,rt_resp_4.keys,rt_resp_4.corr,rt_resp_4.rt,speedtest_2.thisRepN,speedtest_2.thisTrialN,speedtest_2.thisN,speedtest_2.thisIndex,speedtest_2.ran,numberSc,posX,positionLayout,participant,date,expName,psychopyVersion,OS,frameRate,ct_instrresp.keys,ct_instrresp.rt,key_resp_2.keys,key_resp_2.rt,ct_keyResp.keys,ct_keyResp.corr,ct_keyResp.rt,trials.thisRepN,trials.thisTrialN,trials.thisN,trials.thisIndex,trials.ran,leftNo,rightNo,displayProblem,numDistance,leftNo_size,rightNo_size,Dims,keyAnswer,TS_Loop.thisRepN,TS_Loop.thisTrialN,TS_Loop.thisN,TS_Loop.thisIndex,TS_Loop.ran,Condition,ActionInst,instrImage,mltptaskInst_resp.keys,mltptaskInst_resp.rt,continue_resp_2.keys,continue_resp_2.rt,multp_Answer,multi_RT,multiplyCorr,LoopingMultiply.thisRepN,LoopingMultiply.thisTrialN,LoopingMultiply.thisN,LoopingMultiply.thisIndex,LoopingMultiply.ran,factor1,multiplySign,factor2,multliplyProblem,physicalSize,orderOperand,sizeF1,sizeF2,mult_answer,trials_stroop.thisRepN,trials_stroop.thisTrialN,trials_stroop.thisN,trials_stroop.thisIndex,trials_stroop.ran,multiplicationFile,esckey_resp_2.keys,esckey_resp_2.rt
y,19.7584,44.9,44.7,right,1,1.0415,0,0,0,10,1,3,200,right,816,2022-01-23_22h28.33.052,multiplicationStroop,2021.2.3,Win32,59.94485074,,,,,,,,,,,,,,,,,,,,,,,,,,,,,,,,,,,,,,,,,,,,,,,,,,,,,,,,,
,,,,right,1,0.3825,0,1,1,9,1,2,200,right,816,2022-01-23_22h28.33.052,multiplicationStroop,2021.2.3,Win32,59.94485074,,,,,,,,,,,,,,,,,,,,,,,,,,,,,,,,,,,,,,,,,,,,,,,,,,,,,,,,,
,,,,left,1,0.4937,0,2,2,2,1,3,-200,left,816,2022-01-23_22h28.33.052,multiplicationStroop,2021.2.3,Win32,59.94485074,,,,,,,,,,,,,,,,,,,,,,,,,,,,,,,,,,,,,,,,,,,,,,,,,,,,,,,,,
,,,,left,1,0.3917,0,3,3,6,1,8,-200,left,816,2022-01-23_22h28.33.052,multiplicationStroop,2021.2.3,Win32,59.94485074,,,,,,,,,,,,,,,,,,,,,,,,,,,,,,,,,,,,,,,,,,,,,,,,,,,,,,,,,
,,,,left,1,0.4227,0,4,4,0,1,1,-200,left,816,2022-01-23_22h28.33.052,multiplicationStroop,2021.2.3,Win32,59.94485074,,,,,,,,,,,,,,,,,,,,,,,,,,,,,,,,,,,,,,,,,,,,,,,,,,,,,,,,,
,,,,left,1,0.3289,0,5,5,1,1,2,-200,left,816,2022-01-23_22h28.33.052,multiplicationStroop,2021.2.3,Win32,59.94485074,,,,,,,,,,,,,,,,,,,,,,,,,,,,,,,,,,,,,,,,,,,,,,,,,,,,,,,,,
,,,,right,1,0.3883,0,6,6,11,1,4,200,right,816,2022-01-23_22h28.33.052,multiplicationStroop,2021.2.3,Win32,59.94485074,,,,,,,,,,,,,,,,,,,,,,,,,,,,,,,,,,,,,,,,,,,,,,,,,,,,,,,,,
,,,,right,1,0.3882,0,7,7,8,1,1,200,right,816,2022-01-23_22h28.33.052,multiplicationStroop,2021.2.3,Win32,59.94485074,,,,,,,,,,,,,,,,,,,,,,,,,,,,,,,,,,,,,,,,,,,,,,,,,,,,,,,,,
,,,,right,1,0.3512,0,8,8,15,1,9,200,right,816,2022-01-23_22h28.33.052,multiplicationStroop,2021.2.3,Win32,59.94485074,,,,,,,,,,,,,,,,,,,,,,,,,,,,,,,,,,,,,,,,,,,,,,,,,,,,,,,,,
,,,,right,1,0.3062,0,9,9,12,1,6,200,right,816,2022-01-23_22h28.33.052,multiplicationStroop,2021.2.3,Win32,59.94485074,,,,,,,,,,,,,,,,,,,,,,,,,,,,,,,,,,,,,,,,,,,,,,,,,,,,,,,,,
,,,,right,1,0.347,0,10,10,13,1,7,200,right,816,2022-01-23_22h28.33.052,multiplicationStroop,2021.2.3,Win32,59.94485074,,,,,,,,,,,,,,,,,,,,,,,,,,,,,,,,,,,,,,,,,,,,,,,,,,,,,,,,,
,,,,right,1,0.3044,0,11,11,14,1,8,200,right,816,2022-01-23_22h28.33.052,multiplicationStroop,2021.2.3,Win32,59.94485074,,,,,,,,,,,,,,,,,,,,,,,,,,,,,,,,,,,,,,,,,,,,,,,,,,,,,,,,,
,,,,left,1,0.3296,0,12,12,4,1,6,-200,left,816,2022-01-23_22h28.33.052,multiplicationStroop,2021.2.3,Win32,59.94485074,,,,,,,,,,,,,,,,,,,,,,,,,,,,,,,,,,,,,,,,,,,,,,,,,,,,,,,,,
,,,,left,1,0.4007,0,13,13,5,1,7,-200,left,816,2022-01-23_22h28.33.052,multiplicationStroop,2021.2.3,Win32,59.94485074,,,,,,,,,,,,,,,,,,,,,,,,,,,,,,,,,,,,,,,,,,,,,,,,,,,,,,,,,
,,,,left,1,0.3329,0,14,14,3,1,4,-200,left,816,2022-01-23_22h28.33.052,multiplicationStroop,2021.2.3,Win32,59.94485074,,,,,,,,,,,,,,,,,,,,,,,,,,,,,,,,,,,,,,,,,,,,,,,,,,,,,,,,,
,,,,left,1,0.316,0,15,15,7,1,9,-200,left,816,2022-01-23_22h28.33.052,multiplicationStroop,2021.2.3,Win32,59.94485074,,,,,,,,,,,,,,,,,,,,,,,,,,,,,,,,,,,,,,,,,,,,,,,,,,,,,,,,,
,,,,right,1,0.301,1,0,16,12,1,6,200,right,816,2022-01-23_22h28.33.052,multiplicationStroop,2021.2.3,Win32,59.94485074,,,,,,,,,,,,,,,,,,,,,,,,,,,,,,,,,,,,,,,,,,,,,,,,,,,,,,,,,
,,,,right,1,0.3225,1,1,17,11,1,4,200,right,816,2022-01-23_22h28.33.052,multiplicationStroop,2021.2.3,Win32,59.94485074,,,,,,,,,,,,,,,,,,,,,,,,,,,,,,,,,,,,,,,,,,,,,,,,,,,,,,,,,
,,,,right,1,0.313,1,2,18,14,1,8,200,right,816,2022-01-23_22h28.33.052,multiplicationStroop,2021.2.3,Win32,59.94485074,,,,,,,,,,,,,,,,,,,,,,,,,,,,,,,,,,,,,,,,,,,,,,,,,,,,,,,,,
,,,,right,1,0.3152,1,3,19,15,1,9,200,right,816,2022-01-23_22h28.33.052,multiplicationStroop,2021.2.3,Win32,59.94485074,,,,,,,,,,,,,,,,,,,,,,,,,,,,,,,,,,,,,,,,,,,,,,,,,,,,,,,,,
,,,,left,1,0.3149,1,4,20,5,1,7,-200,left,816,2022-01-23_22h28.33.052,multiplicationStroop,2021.2.3,Win32,59.94485074,,,,,,,,,,,,,,,,,,,,,,,,,,,,,,,,,,,,,,,,,,,,,,,,,,,,,,,,,
,,,,left,1,0.3876,1,5,21,3,1,4,-200,left,816,2022-01-23_22h28.33.052,multiplicationStroop,2021.2.3,Win32,59.94485074,,,,,,,,,,,,,,,,,,,,,,,,,,,,,,,,,,,,,,,,,,,,,,,,,,,,,,,,,
,,,,right,1,0.333,1,6,22,8,1,1,200,right,816,2022-01-23_22h28.33.052,multiplicationStroop,2021.2.3,Win32,59.94485074,,,,,,,,,,,,,,,,,,,,,,,,,,,,,,,,,,,,,,,,,,,,,,,,,,,,,,,,,
,,,,left,1,0.316,1,7,23,1,1,2,-200,left,816,2022-01-23_22h28.33.052,multiplicationStroop,2021.2.3,Win32,59.94485074,,,,,,,,,,,,,,,,,,,,,,,,,,,,,,,,,,,,,,,,,,,,,,,,,,,,,,,,,
,,,,left,1,0.4254,1,8,24,7,1,9,-200,left,816,2022-01-23_22h28.33.052,multiplicationStroop,2021.2.3,Win32,59.94485074,,,,,,,,,,,,,,,,,,,,,,,,,,,,,,,,,,,,,,,,,,,,,,,,,,,,,,,,,
,,,,left,1,0.3319,1,9,25,2,1,3,-200,left,816,2022-01-23_22h28.33.052,multiplicationStroop,2021.2.3,Win32,59.94485074,,,,,,,,,,,,,,,,,,,,,,,,,,,,,,,,,,,,,,,,,,,,,,,,,,,,,,,,,
,,,,right,1,0.3042,1,10,26,10,1,3,200,right,816,2022-01-23_22h28.33.052,multiplicationStroop,2021.2.3,Win32,59.94485074,,,,,,,,,,,,,,,,,,,,,,,,,,,,,,,,,,,,,,,,,,,,,,,,,,,,,,,,,
,,,,left,1,0.3155,1,11,27,6,1,8,-200,left,816,2022-01-23_22h28.33.052,multiplicationStroop,2021.2.3,Win32,59.94485074,,,,,,,,,,,,,,,,,,,,,,,,,,,,,,,,,,,,,,,,,,,,,,,,,,,,,,,,,
,,,,left,1,0.4768,1,12,28,4,1,6,-200,left,816,2022-01-23_22h28.33.052,multiplicationStroop,2021.2.3,Win32,59.94485074,,,,,,,,,,,,,,,,,,,,,,,,,,,,,,,,,,,,,,,,,,,,,,,,,,,,,,,,,
,,,,right,1,0.3383,1,13,29,13,1,7,200,right,816,2022-01-23_22h28.33.052,multiplicationStroop,2021.2.3,Win32,59.94485074,,,,,,,,,,,,,,,,,,,,,,,,,,,,,,,,,,,,,,,,,,,,,,,,,,,,,,,,,
,,,,left,1,0.3375,1,14,30,0,1,1,-200,left,816,2022-01-23_22h28.33.052,multiplicationStroop,2021.2.3,Win32,59.94485074,,,,,,,,,,,,,,,,,,,,,,,,,,,,,,,,,,,,,,,,,,,,,,,,,,,,,,,,,
,,,,right,1,0.3097,1,15,31,9,1,2,200,right,816,2022-01-23_22h28.33.052,multiplicationStroop,2021.2.3,Win32,59.94485074,,,,,,,,,,,,,,,,,,,,,,,,,,,,,,,,,,,,,,,,,,,,,,,,,,,,,,,,,
,,,,left,1,0.3473,2,0,32,1,1,2,-200,left,816,2022-01-23_22h28.33.052,multiplicationStroop,2021.2.3,Win32,59.94485074,,,,,,,,,,,,,,,,,,,,,,,,,,,,,,,,,,,,,,,,,,,,,,,,,,,,,,,,,
,,,,right,1,0.3112,2,1,33,12,1,6,200,right,816,2022-01-23_22h28.33.052,multiplicationStroop,2021.2.3,Win32,59.94485074,,,,,,,,,,,,,,,,,,,,,,,,,,,,,,,,,,,,,,,,,,,,,,,,,,,,,,,,,
,,,,left,1,0.3348,2,2,34,3,1,4,-200,left,816,2022-01-23_22h28.33.052,multiplicationStroop,2021.2.3,Win32,59.94485074,,,,,,,,,,,,,,,,,,,,,,,,,,,,,,,,,,,,,,,,,,,,,,,,,,,,,,,,,
,,,,left,1,0.4347,2,3,35,2,1,3,-200,left,816,2022-01-23_22h28.33.052,multiplicationStroop,2021.2.3,Win32,59.94485074,,,,,,,,,,,,,,,,,,,,,,,,,,,,,,,,,,,,,,,,,,,,,,,,,,,,,,,,,
,,,,right,1,0.4277,2,4,36,10,1,3,200,right,816,2022-01-23_22h28.33.052,multiplicationStroop,2021.2.3,Win32,59.94485074,,,,,,,,,,,,,,,,,,,,,,,,,,,,,,,,,,,,,,,,,,,,,,,,,,,,,,,,,
,,,,left,1,0.3347,2,5,37,0,1,1,-200,left,816,2022-01-23_22h28.33.052,multiplicationStroop,2021.2.3,Win32,59.94485074,,,,,,,,,,,,,,,,,,,,,,,,,,,,,,,,,,,,,,,,,,,,,,,,,,,,,,,,,
,,,,right,1,0.3523,2,6,38,14,1,8,200,right,816,2022-01-23_22h28.33.052,multiplicationStroop,2021.2.3,Win32,59.94485074,,,,,,,,,,,,,,,,,,,,,,,,,,,,,,,,,,,,,,,,,,,,,,,,,,,,,,,,,
,,,,right,1,0.4015,2,7,39,15,1,9,200,right,816,2022-01-23_22h28.33.052,multiplicationStroop,2021.2.3,Win32,59.94485074,,,,,,,,,,,,,,,,,,,,,,,,,,,,,,,,,,,,,,,,,,,,,,,,,,,,,,,,,
,,,,left,1,0.3671,2,8,40,5,1,7,-200,left,816,2022-01-23_22h28.33.052,multiplicationStroop,2021.2.3,Win32,59.94485074,,,,,,,,,,,,,,,,,,,,,,,,,,,,,,,,,,,,,,,,,,,,,,,,,,,,,,,,,
,,,,right,1,0.3275,2,9,41,9,1,2,200,right,816,2022-01-23_22h28.33.052,multiplicationStroop,2021.2.3,Win32,59.94485074,,,,,,,,,,,,,,,,,,,,,,,,,,,,,,,,,,,,,,,,,,,,,,,,,,,,,,,,,
,,,,left,1,0.3239,2,10,42,6,1,8,-200,left,816,2022-01-23_22h28.33.052,multiplicationStroop,2021.2.3,Win32,59.94485074,,,,,,,,,,,,,,,,,,,,,,,,,,,,,,,,,,,,,,,,,,,,,,,,,,,,,,,,,
,,,,right,1,0.3396,2,11,43,13,1,7,200,right,816,2022-01-23_22h28.33.052,multiplicationStroop,2021.2.3,Win32,59.94485074,,,,,,,,,,,,,,,,,,,,,,,,,,,,,,,,,,,,,,,,,,,,,,,,,,,,,,,,,
,,,,right,1,0.3518,2,12,44,8,1,1,200,right,816,2022-01-23_22h28.33.052,multiplicationStroop,2021.2.3,Win32,59.94485074,,,,,,,,,,,,,,,,,,,,,,,,,,,,,,,,,,,,,,,,,,,,,,,,,,,,,,,,,
,,,,right,1,0.3274,2,13,45,11,1,4,200,right,816,2022-01-23_22h28.33.052,multiplicationStroop,2021.2.3,Win32,59.94485074,,,,,,,,,,,,,,,,,,,,,,,,,,,,,,,,,,,,,,,,,,,,,,,,,,,,,,,,,
,,,,left,1,0.3722,2,14,46,4,1,6,-200,left,816,2022-01-23_22h28.33.052,multiplicationStroop,2021.2.3,Win32,59.94485074,,,,,,,,,,,,,,,,,,,,,,,,,,,,,,,,,,,,,,,,,,,,,,,,,,,,,,,,,
,,,,left,1,0.3691,2,15,47,7,1,9,-200,left,816,2022-01-23_22h28.33.052,multiplicationStroop,2021.2.3,Win32,59.94485074,,,,,,,,,,,,,,,,,,,,,,,,,,,,,,,,,,,,,,,,,,,,,,,,,,,,,,,,,
,,,,left,1,0.3377,3,0,48,4,1,6,-200,left,816,2022-01-23_22h28.33.052,multiplicationStroop,2021.2.3,Win32,59.94485074,,,,,,,,,,,,,,,,,,,,,,,,,,,,,,,,,,,,,,,,,,,,,,,,,,,,,,,,,
,,,,left,1,0.3433,3,1,49,0,1,1,-200,left,816,2022-01-23_22h28.33.052,multiplicationStroop,2021.2.3,Win32,59.94485074,,,,,,,,,,,,,,,,,,,,,,,,,,,,,,,,,,,,,,,,,,,,,,,,,,,,,,,,,
,,,,right,1,0.3225,3,2,50,8,1,1,200,right,816,2022-01-23_22h28.33.052,multiplicationStroop,2021.2.3,Win32,59.94485074,,,,,,,,,,,,,,,,,,,,,,,,,,,,,,,,,,,,,,,,,,,,,,,,,,,,,,,,,
,,,,left,1,0.3285,3,3,51,5,1,7,-200,left,816,2022-01-23_22h28.33.052,multiplicationStroop,2021.2.3,Win32,59.94485074,,,,,,,,,,,,,,,,,,,,,,,,,,,,,,,,,,,,,,,,,,,,,,,,,,,,,,,,,
,,,,right,1,0.3277,3,4,52,11,1,4,200,right,816,2022-01-23_22h28.33.052,multiplicationStroop,2021.2.3,Win32,59.94485074,,,,,,,,,,,,,,,,,,,,,,,,,,,,,,,,,,,,,,,,,,,,,,,,,,,,,,,,,
,,,,left,1,0.3685,3,5,53,3,1,4,-200,left,816,2022-01-23_22h28.33.052,multiplicationStroop,2021.2.3,Win32,59.94485074,,,,,,,,,,,,,,,,,,,,,,,,,,,,,,,,,,,,,,,,,,,,,,,,,,,,,,,,,
,,,,left,1,0.3705,3,6,54,6,1,8,-200,left,816,2022-01-23_22h28.33.052,multiplicationStroop,2021.2.3,Win32,59.94485074,,,,,,,,,,,,,,,,,,,,,,,,,,,,,,,,,,,,,,,,,,,,,,,,,,,,,,,,,
,,,,right,1,0.4077,3,7,55,14,1,8,200,right,816,2022-01-23_22h28.33.052,multiplicationStroop,2021.2.3,Win32,59.94485074,,,,,,,,,,,,,,,,,,,,,,,,,,,,,,,,,,,,,,,,,,,,,,,,,,,,,,,,,
,,,,left,1,0.3192,3,8,56,1,1,2,-200,left,816,2022-01-23_22h28.33.052,multiplicationStroop,2021.2.3,Win32,59.94485074,,,,,,,,,,,,,,,,,,,,,,,,,,,,,,,,,,,,,,,,,,,,,,,,,,,,,,,,,
,,,,right,1,0.3192,3,9,57,13,1,7,200,right,816,2022-01-23_22h28.33.052,multiplicationStroop,2021.2.3,Win32,59.94485074,,,,,,,,,,,,,,,,,,,,,,,,,,,,,,,,,,,,,,,,,,,,,,,,,,,,,,,,,
,,,,left,1,0.3545,3,10,58,7,1,9,-200,left,816,2022-01-23_22h28.33.052,multiplicationStroop,2021.2.3,Win32,59.94485074,,,,,,,,,,,,,,,,,,,,,,,,,,,,,,,,,,,,,,,,,,,,,,,,,,,,,,,,,
,,,,right,1,0.3429,3,11,59,12,1,6,200,right,816,2022-01-23_22h28.33.052,multiplicationStroop,2021.2.3,Win32,59.94485074,,,,,,,,,,,,,,,,,,,,,,,,,,,,,,,,,,,,,,,,,,,,,,,,,,,,,,,,,
,,,,right,1,0.3869,3,12,60,15,1,9,200,right,816,2022-01-23_22h28.33.052,multiplicationStroop,2021.2.3,Win32,59.94485074,,,,,,,,,,,,,,,,,,,,,,,,,,,,,,,,,,,,,,,,,,,,,,,,,,,,,,,,,
,,,,left,1,0.3763,3,13,61,2,1,3,-200,left,816,2022-01-23_22h28.33.052,multiplicationStroop,2021.2.3,Win32,59.94485074,,,,,,,,,,,,,,,,,,,,,,,,,,,,,,,,,,,,,,,,,,,,,,,,,,,,,,,,,
,,,,right,1,0.3525,3,14,62,10,1,3,200,right,816,2022-01-23_22h28.33.052,multiplicationStroop,2021.2.3,Win32,59.94485074,,,,,,,,,,,,,,,,,,,,,,,,,,,,,,,,,,,,,,,,,,,,,,,,,,,,,,,,,
,,,,right,1,0.3688,3,15,63,9,1,2,200,right,816,2022-01-23_22h28.33.052,multiplicationStroop,2021.2.3,Win32,59.94485074,,,,,,,,,,,,,,,,,,,,,,,,,,,,,,,,,,,,,,,,,,,,,,,,,,,,,,,,,
,,,,,,,,,,,,,,,816,2022-01-23_22h28.33.052,multiplicationStroop,2021.2.3,Win32,59.94485074,space,30.5685,space,16.9275,right,1,0.7781,0,0,0,67,1,4,4,4 | 4,0,1.4111,1.9756,neutral,right,,,,,,stimulusFile/physical.xlsx,,,,,,,,,,,,,,,,,,,,,,,,,,,,,,,
,,,,,,,,,,,,,,,816,2022-01-23_22h28.33.052,multiplicationStroop,2021.2.3,Win32,59.94485074,,,,,right,1,0.487,0,1,1,1,1,3,4,3 | 4,1,1.4111,1.9756,congruent,right,,,,,,stimulusFile/physical.xlsx,,,,,,,,,,,,,,,,,,,,,,,,,,,,,,,
,,,,,,,,,,,,,,,816,2022-01-23_22h28.33.052,multiplicationStroop,2021.2.3,Win32,59.94485074,,,,,left,1,0.4256,0,2,2,4,1,2,1,2 | 1,1,1.9756,1.4111,congruent,left,,,,,,stimulusFile/physical.xlsx,,,,,,,,,,,,,,,,,,,,,,,,,,,,,,,
,,,,,,,,,,,,,,,816,2022-01-23_22h28.33.052,multiplicationStroop,2021.2.3,Win32,59.94485074,,,,,right,1,0.3829,0,3,3,57,1,2,2,2 | 2,0,1.4111,1.9756,neutral,right,,,,,,stimulusFile/physical.xlsx,,,,,,,,,,,,,,,,,,,,,,,,,,,,,,,
,,,,,,,,,,,,,,,816,2022-01-23_22h28.33.052,multiplicationStroop,2021.2.3,Win32,59.94485074,,,,,left,1,0.4085,0,4,4,50,1,6,6,6 | 6,0,1.9756,1.4111,neutral,left,,,,,,stimulusFile/physical.xlsx,,,,,,,,,,,,,,,,,,,,,,,,,,,,,,,
,,,,,,,,,,,,,,,816,2022-01-23_22h28.33.052,multiplicationStroop,2021.2.3,Win32,59.94485074,,,,,left,1,0.4387,0,5,5,22,1,8,3,8 | 3,5,1.9756,1.4111,congruent,left,,,,,,stimulusFile/physical.xlsx,,,,,,,,,,,,,,,,,,,,,,,,,,,,,,,
,,,,,,,,,,,,,,,816,2022-01-23_22h28.33.052,multiplicationStroop,2021.2.3,Win32,59.94485074,,,,,right,1,0.3809,0,6,6,56,1,1,1,1 | 1,0,1.4111,1.9756,neutral,right,,,,,,stimulusFile/physical.xlsx,,,,,,,,,,,,,,,,,,,,,,,,,,,,,,,
,,,,,,,,,,,,,,,816,2022-01-23_22h28.33.052,multiplicationStroop,2021.2.3,Win32,59.94485074,,,,,right,1,0.5415,0,7,7,37,1,4,2,4 | 2,2,1.4111,1.9756,incongruent,right,,,,,,stimulusFile/physical.xlsx,,,,,,,,,,,,,,,,,,,,,,,,,,,,,,,
,,,,,,,,,,,,,,,816,2022-01-23_22h28.33.052,multiplicationStroop,2021.2.3,Win32,59.94485074,,,,,left,1,0.529,0,8,8,13,1,4,2,4 | 2,2,1.9756,1.4111,congruent,left,,,,,,stimulusFile/physical.xlsx,,,,,,,,,,,,,,,,,,,,,,,,,,,,,,,
,,,,,,,,,,,,,,,816,2022-01-23_22h28.33.052,multiplicationStroop,2021.2.3,Win32,59.94485074,,,,,right,1,0.4646,0,9,9,61,1,4,4,4 | 4,0,1.4111,1.9756,neutral,right,,,,,,stimulusFile/physical.xlsx,,,,,,,,,,,,,,,,,,,,,,,,,,,,,,,
,,,,,,,,,,,,,,,816,2022-01-23_22h28.33.052,multiplicationStroop,2021.2.3,Win32,59.94485074,,,,,right,1,0.5269,0,10,10,10,1,6,8,6 | 8,2,1.4111,1.9756,congruent,right,,,,,,stimulusFile/physical.xlsx,,,,,,,,,,,,,,,,,,,,,,,,,,,,,,,
,,,,,,,,,,,,,,,816,2022-01-23_22h28.33.052,multiplicationStroop,2021.2.3,Win32,59.94485074,,,,,right,1,0.5884,0,11,11,17,1,2,7,2 | 7,5,1.4111,1.9756,congruent,right,,,,,,stimulusFile/physical.xlsx,,,,,,,,,,,,,,,,,,,,,,,,,,,,,,,
,,,,,,,,,,,,,,,816,2022-01-23_22h28.33.052,multiplicationStroop,2021.2.3,Win32,59.94485074,,,,,left,1,0.4781,0,12,12,48,1,1,1,1 | 1,0,1.9756,1.4111,neutral,left,,,,,,stimulusFile/physical.xlsx,,,,,,,,,,,,,,,,,,,,,,,,,,,,,,,
,,,,,,,,,,,,,,,816,2022-01-23_22h28.33.052,multiplicationStroop,2021.2.3,Win32,59.94485074,,,,,left,1,0.463,0,13,13,70,1,8,8,8 | 8,0,1.9756,1.4111,neutral,left,,,,,,stimulusFile/physical.xlsx,,,,,,,,,,,,,,,,,,,,,,,,,,,,,,,
,,,,,,,,,,,,,,,816,2022-01-23_22h28.33.052,multiplicationStroop,2021.2.3,Win32,59.94485074,,,,,right,0,0.4151,0,14,14,40,1,1,6,1 | 6,5,1.9756,1.4111,incongruent,left,,,,,,stimulusFile/physical.xlsx,,,,,,,,,,,,,,,,,,,,,,,,,,,,,,,
,,,,,,,,,,,,,,,816,2022-01-23_22h28.33.052,multiplicationStroop,2021.2.3,Win32,59.94485074,,,,,left,1,0.5379,0,15,15,12,1,3,1,3 | 1,2,1.9756,1.4111,congruent,left,,,,,,stimulusFile/physical.xlsx,,,,,,,,,,,,,,,,,,,,,,,,,,,,,,,
,,,,,,,,,,,,,,,816,2022-01-23_22h28.33.052,multiplicationStroop,2021.2.3,Win32,59.94485074,,,,,left,1,0.727,0,16,16,35,1,7,9,7 | 9,2,1.9756,1.4111,incongruent,left,,,,,,stimulusFile/physical.xlsx,,,,,,,,,,,,,,,,,,,,,,,,,,,,,,,
,,,,,,,,,,,,,,,816,2022-01-23_22h28.33.052,multiplicationStroop,2021.2.3,Win32,59.94485074,,,,,left,1,0.434,0,17,17,34,1,6,8,6 | 8,2,1.9756,1.4111,incongruent,left,,,,,,stimulusFile/physical.xlsx,,,,,,,,,,,,,,,,,,,,,,,,,,,,,,,
,,,,,,,,,,,,,,,816,2022-01-23_22h28.33.052,multiplicationStroop,2021.2.3,Win32,59.94485074,,,,,right,1,0.5271,0,18,18,59,1,7,7,7 | 7,0,1.4111,1.9756,neutral,right,,,,,,stimulusFile/physical.xlsx,,,,,,,,,,,,,,,,,,,,,,,,,,,,,,,
,,,,,,,,,,,,,,,816,2022-01-23_22h28.33.052,multiplicationStroop,2021.2.3,Win32,59.94485074,,,,,left,1,0.477,0,19,19,68,1,6,6,6 | 6,0,1.9756,1.4111,neutral,left,,,,,,stimulusFile/physical.xlsx,,,,,,,,,,,,,,,,,,,,,,,,,,,,,,,
,,,,,,,,,,,,,,,816,2022-01-23_22h28.33.052,multiplicationStroop,2021.2.3,Win32,59.94485074,,,,,right,1,0.4436,0,20,20,58,1,6,6,6 | 6,0,1.4111,1.9756,neutral,right,,,,,,stimulusFile/physical.xlsx,,,,,,,,,,,,,,,,,,,,,,,,,,,,,,,
,,,,,,,,,,,,,,,816,2022-01-23_22h28.33.052,multiplicationStroop,2021.2.3,Win32,59.94485074,,,,,left,1,0.5051,0,21,21,33,1,2,4,2 | 4,2,1.9756,1.4111,incongruent,left,,,,,,stimulusFile/physical.xlsx,,,,,,,,,,,,,,,,,,,,,,,,,,,,,,,
,,,,,,,,,,,,,,,816,2022-01-23_22h28.33.052,multiplicationStroop,2021.2.3,Win32,59.94485074,,,,,right,1,0.4456,0,22,22,63,1,9,9,9 | 9,0,1.4111,1.9756,neutral,right,,,,,,stimulusFile/physical.xlsx,,,,,,,,,,,,,,,,,,,,,,,,,,,,,,,
,,,,,,,,,,,,,,,816,2022-01-23_22h28.33.052,multiplicationStroop,2021.2.3,Win32,59.94485074,,,,,right,0,0.5464,0,23,23,71,1,9,9,9 | 9,0,1.4111,1.9756,neutral,left,,,,,,stimulusFile/physical.xlsx,,,,,,,,,,,,,,,,,,,,,,,,,,,,,,,
,,,,,,,,,,,,,,,816,2022-01-23_22h28.33.052,multiplicationStroop,2021.2.3,Win32,59.94485074,,,,,right,1,0.5311,0,24,24,62,1,8,8,8 | 8,0,1.4111,1.9756,neutral,right,,,,,,stimulusFile/physical.xlsx,,,,,,,,,,,,,,,,,,,,,,,,,,,,,,,
,,,,,,,,,,,,,,,816,2022-01-23_22h28.33.052,multiplicationStroop,2021.2.3,Win32,59.94485074,,,,,left,1,0.5111,0,25,25,43,1,4,9,4 | 9,5,1.9756,1.4111,incongruent,left,,,,,,stimulusFile/physical.xlsx,,,,,,,,,,,,,,,,,,,,,,,,,,,,,,,
,,,,,,,,,,,,,,,816,2022-01-23_22h28.33.052,multiplicationStroop,2021.2.3,Win32,59.94485074,,,,,right,0,0.5133,0,26,26,69,1,7,7,7 | 7,0,1.4111,1.9756,neutral,left,,,,,,stimulusFile/physical.xlsx,,,,,,,,,,,,,,,,,,,,,,,,,,,,,,,
,,,,,,,,,,,,,,,816,2022-01-23_22h28.33.052,multiplicationStroop,2021.2.3,Win32,59.94485074,,,,,right,1,0.5825,0,27,27,30,1,7,6,7 | 6,1,1.4111,1.9756,incongruent,right,,,,,,stimulusFile/physical.xlsx,,,,,,,,,,,,,,,,,,,,,,,,,,,,,,,
,,,,,,,,,,,,,,,816,2022-01-23_22h28.33.052,multiplicationStroop,2021.2.3,Win32,59.94485074,,,,,right,1,0.5679,0,28,28,46,1,8,3,8 | 3,5,1.4111,1.9756,incongruent,right,,,,,,stimulusFile/physical.xlsx,,,,,,,,,,,,,,,,,,,,,,,,,,,,,,,
,,,,,,,,,,,,,,,816,2022-01-23_22h28.33.052,multiplicationStroop,2021.2.3,Win32,59.94485074,,,,,right,1,0.5413,0,29,29,2,1,6,7,6 | 7,1,1.4111,1.9756,congruent,right,,,,,,stimulusFile/physical.xlsx,,,,,,,,,,,,,,,,,,,,,,,,,,,,,,,
,,,,,,,,,,,,,,,816,2022-01-23_22h28.33.052,multiplicationStroop,2021.2.3,Win32,59.94485074,,,,,right,1,1.0742,0,30,30,45,1,7,2,7 | 2,5,1.4111,1.9756,incongruent,right,,,,,,stimulusFile/physical.xlsx,,,,,,,,,,,,,,,,,,,,,,,,,,,,,,,
,,,,,,,,,,,,,,,816,2022-01-23_22h28.33.052,multiplicationStroop,2021.2.3,Win32,59.94485074,,,,,right,1,0.5164,0,31,31,8,1,1,3,1 | 3,2,1.4111,1.9756,congruent,right,,,,,,stimulusFile/physical.xlsx,,,,,,,,,,,,,,,,,,,,,,,,,,,,,,,
,,,,,,,,,,,,,,,816,2022-01-23_22h28.33.052,multiplicationStroop,2021.2.3,Win32,59.94485074,,,,,left,1,0.4724,0,32,32,21,1,7,2,7 | 2,5,1.9756,1.4111,congruent,left,,,,,,stimulusFile/physical.xlsx,,,,,,,,,,,,,,,,,,,,,,,,,,,,,,,
,,,,,,,,,,,,,,,816,2022-01-23_22h28.33.052,multiplicationStroop,2021.2.3,Win32,59.94485074,,,,,right,1,0.416,0,33,33,3,1,8,9,8 | 9,1,1.4111,1.9756,congruent,right,,,,,,stimulusFile/physical.xlsx,,,,,,,,,,,,,,,,,,,,,,,,,,,,,,,
,,,,,,,,,,,,,,,816,2022-01-23_22h28.33.052,multiplicationStroop,2021.2.3,Win32,59.94485074,,,,,left,1,0.4855,0,34,34,14,1,8,6,8 | 6,2,1.9756,1.4111,congruent,left,,,,,,stimulusFile/physical.xlsx,,,,,,,,,,,,,,,,,,,,,,,,,,,,,,,
,,,,,,,,,,,,,,,816,2022-01-23_22h28.33.052,multiplicationStroop,2021.2.3,Win32,59.94485074,,,,,left,1,0.545,0,35,35,7,1,9,8,9 | 8,1,1.9756,1.4111,congruent,left,,,,,,stimulusFile/physical.xlsx,,,,,,,,,,,,,,,,,,,,,,,,,,,,,,,
,,,,,,,,,,,,,,,816,2022-01-23_22h28.33.052,multiplicationStroop,2021.2.3,Win32,59.94485074,,,,,right,1,0.4654,0,36,36,28,1,2,1,2 | 1,1,1.4111,1.9756,incongruent,right,,,,,,stimulusFile/physical.xlsx,,,,,,,,,,,,,,,,,,,,,,,,,,,,,,,
,,,,,,,,,,,,,,,816,2022-01-23_22h28.33.052,multiplicationStroop,2021.2.3,Win32,59.94485074,,,,,left,1,0.4607,0,37,37,5,1,4,3,4 | 3,1,1.9756,1.4111,congruent,left,,,,,,stimulusFile/physical.xlsx,,,,,,,,,,,,,,,,,,,,,,,,,,,,,,,
,,,,,,,,,,,,,,,816,2022-01-23_22h28.33.052,multiplicationStroop,2021.2.3,Win32,59.94485074,,,,,left,0,0.5343,0,38,38,66,1,3,3,3 | 3,0,1.9756,1.4111,neutral,right,,,,,,stimulusFile/physical.xlsx,,,,,,,,,,,,,,,,,,,,,,,,,,,,,,,
,,,,,,,,,,,,,,,816,2022-01-23_22h28.33.052,multiplicationStroop,2021.2.3,Win32,59.94485074,,,,,left,1,0.4798,0,39,39,23,1,9,4,9 | 4,5,1.9756,1.4111,congruent,left,,,,,,stimulusFile/physical.xlsx,,,,,,,,,,,,,,,,,,,,,,,,,,,,,,,
,,,,,,,,,,,,,,,816,2022-01-23_22h28.33.052,multiplicationStroop,2021.2.3,Win32,59.94485074,,,,,right,1,0.4951,0,40,40,38,1,8,6,8 | 6,2,1.4111,1.9756,incongruent,right,,,,,,stimulusFile/physical.xlsx,,,,,,,,,,,,,,,,,,,,,,,,,,,,,,,
,,,,,,,,,,,,,,,816,2022-01-23_22h28.33.052,multiplicationStroop,2021.2.3,Win32,59.94485074,,,,,left,1,0.5085,0,41,41,54,1,7,7,7 | 7,0,1.9756,1.4111,neutral,left,,,,,,stimulusFile/physical.xlsx,,,,,,,,,,,,,,,,,,,,,,,,,,,,,,,
,,,,,,,,,,,,,,,816,2022-01-23_22h28.33.052,multiplicationStroop,2021.2.3,Win32,59.94485074,,,,,left,1,0.4948,0,42,42,49,1,3,3,3 | 3,0,1.9756,1.4111,neutral,left,,,,,,stimulusFile/physical.xlsx,,,,,,,,,,,,,,,,,,,,,,,,,,,,,,,
,,,,,,,,,,,,,,,816,2022-01-23_22h28.33.052,multiplicationStroop,2021.2.3,Win32,59.94485074,,,,,right,1,0.4626,0,43,43,60,1,3,3,3 | 3,0,1.4111,1.9756,neutral,right,,,,,,stimulusFile/physical.xlsx,,,,,,,,,,,,,,,,,,,,,,,,,,,,,,,
,,,,,,,,,,,,,,,816,2022-01-23_22h28.33.052,multiplicationStroop,2021.2.3,Win32,59.94485074,,,,,left,1,0.4411,0,44,44,51,1,8,8,8 | 8,0,1.9756,1.4111,neutral,left,,,,,,stimulusFile/physical.xlsx,,,,,,,,,,,,,,,,,,,,,,,,,,,,,,,
,,,,,,,,,,,,,,,816,2022-01-23_22h28.33.052,multiplicationStroop,2021.2.3,Win32,59.94485074,,,,,left,1,0.4851,0,45,45,25,1,3,4,3 | 4,1,1.9756,1.4111,incongruent,left,,,,,,stimulusFile/physical.xlsx,,,,,,,,,,,,,,,,,,,,,,,,,,,,,,,
,,,,,,,,,,,,,,,816,2022-01-23_22h28.33.052,multiplicationStroop,2021.2.3,Win32,59.94485074,,,,,left,1,0.5156,0,46,46,52,1,2,2,2 | 2,0,1.9756,1.4111,neutral,left,,,,,,stimulusFile/physical.xlsx,,,,,,,,,,,,,,,,,,,,,,,,,,,,,,,
,,,,,,,,,,,,,,,816,2022-01-23_22h28.33.052,multiplicationStroop,2021.2.3,Win32,59.94485074,,,,,right,1,0.4729,0,47,47,47,1,9,4,9 | 4,5,1.4111,1.9756,incongruent,right,,,,,,stimulusFile/physical.xlsx,,,,,,,,,,,,,,,,,,,,,,,,,,,,,,,
,,,,,,,,,,,,,,,816,2022-01-23_22h28.33.052,multiplicationStroop,2021.2.3,Win32,59.94485074,,,,,right,1,0.6395,0,48,48,44,1,6,1,6 | 1,5,1.4111,1.9756,incongruent,right,,,,,,stimulusFile/physical.xlsx,,,,,,,,,,,,,,,,,,,,,,,,,,,,,,,
,,,,,,,,,,,,,,,816,2022-01-23_22h28.33.052,multiplicationStroop,2021.2.3,Win32,59.94485074,,,,,right,1,0.4953,0,49,49,36,1,3,1,3 | 1,2,1.4111,1.9756,incongruent,right,,,,,,stimulusFile/physical.xlsx,,,,,,,,,,,,,,,,,,,,,,,,,,,,,,,
,,,,,,,,,,,,,,,816,2022-01-23_22h28.33.052,multiplicationStroop,2021.2.3,Win32,59.94485074,,,,,right,1,0.5285,0,50,50,18,1,3,8,3 | 8,5,1.4111,1.9756,congruent,right,,,,,,stimulusFile/physical.xlsx,,,,,,,,,,,,,,,,,,,,,,,,,,,,,,,
,,,,,,,,,,,,,,,816,2022-01-23_22h28.33.052,multiplicationStroop,2021.2.3,Win32,59.94485074,,,,,left,1,0.3951,0,51,51,15,1,9,7,9 | 7,2,1.9756,1.4111,congruent,left,,,,,,stimulusFile/physical.xlsx,,,,,,,,,,,,,,,,,,,,,,,,,,,,,,,
,,,,,,,,,,,,,,,816,2022-01-23_22h28.33.052,multiplicationStroop,2021.2.3,Win32,59.94485074,,,,,left,1,0.4553,0,52,52,41,1,2,7,2 | 7,5,1.9756,1.4111,incongruent,left,,,,,,stimulusFile/physical.xlsx,,,,,,,,,,,,,,,,,,,,,,,,,,,,,,,
,,,,,,,,,,,,,,,816,2022-01-23_22h28.33.052,multiplicationStroop,2021.2.3,Win32,59.94485074,,,,,left,1,0.4728,0,53,53,53,1,4,4,4 | 4,0,1.9756,1.4111,neutral,left,,,,,,stimulusFile/physical.xlsx,,,,,,,,,,,,,,,,,,,,,,,,,,,,,,,
,,,,,,,,,,,,,,,816,2022-01-23_22h28.33.052,multiplicationStroop,2021.2.3,Win32,59.94485074,,,,,left,1,0.6777,0,54,54,24,1,1,2,1 | 2,1,1.9756,1.4111,incongruent,left,,,,,,stimulusFile/physical.xlsx,,,,,,,,,,,,,,,,,,,,,,,,,,,,,,,
,,,,,,,,,,,,,,,816,2022-01-23_22h28.33.052,multiplicationStroop,2021.2.3,Win32,59.94485074,,,,,left,1,0.9439,0,55,55,42,1,3,8,3 | 8,5,1.9756,1.4111,incongruent,left,,,,,,stimulusFile/physical.xlsx,,,,,,,,,,,,,,,,,,,,,,,,,,,,,,,
,,,,,,,,,,,,,,,816,2022-01-23_22h28.33.052,multiplicationStroop,2021.2.3,Win32,59.94485074,,,,,left,1,0.468,0,56,56,20,1,6,1,6 | 1,5,1.9756,1.4111,congruent,left,,,,,,stimulusFile/physical.xlsx,,,,,,,,,,,,,,,,,,,,,,,,,,,,,,,
,,,,,,,,,,,,,,,816,2022-01-23_22h28.33.052,multiplicationStroop,2021.2.3,Win32,59.94485074,,,,,right,1,0.4454,0,57,57,0,1,1,2,1 | 2,1,1.4111,1.9756,congruent,right,,,,,,stimulusFile/physical.xlsx,,,,,,,,,,,,,,,,,,,,,,,,,,,,,,,
,,,,,,,,,,,,,,,816,2022-01-23_22h28.33.052,multiplicationStroop,2021.2.3,Win32,59.94485074,,,,,right,1,0.4641,0,58,58,11,1,7,9,7 | 9,2,1.4111,1.9756,congruent,right,,,,,,stimulusFile/physical.xlsx,,,,,,,,,,,,,,,,,,,,,,,,,,,,,,,
,,,,,,,,,,,,,,,816,2022-01-23_22h28.33.052,multiplicationStroop,2021.2.3,Win32,59.94485074,,,,,right,1,0.5979,0,59,59,9,1,2,4,2 | 4,2,1.4111,1.9756,congruent,right,,,,,,stimulusFile/physical.xlsx,,,,,,,,,,,,,,,,,,,,,,,,,,,,,,,
,,,,,,,,,,,,,,,816,2022-01-23_22h28.33.052,multiplicationStroop,2021.2.3,Win32,59.94485074,,,,,right,1,0.5938,0,60,60,29,1,4,3,4 | 3,1,1.4111,1.9756,incongruent,right,,,,,,stimulusFile/physical.xlsx,,,,,,,,,,,,,,,,,,,,,,,,,,,,,,,
,,,,,,,,,,,,,,,816,2022-01-23_22h28.33.052,multiplicationStroop,2021.2.3,Win32,59.94485074,,,,,left,0,0.4977,0,61,61,64,1,1,1,1 | 1,0,1.9756,1.4111,neutral,right,,,,,,stimulusFile/physical.xlsx,,,,,,,,,,,,,,,,,,,,,,,,,,,,,,,
,,,,,,,,,,,,,,,816,2022-01-23_22h28.33.052,multiplicationStroop,2021.2.3,Win32,59.94485074,,,,,right,1,0.4242,0,62,62,19,1,4,9,4 | 9,5,1.4111,1.9756,congruent,right,,,,,,stimulusFile/physical.xlsx,,,,,,,,,,,,,,,,,,,,,,,,,,,,,,,
,,,,,,,,,,,,,,,816,2022-01-23_22h28.33.052,multiplicationStroop,2021.2.3,Win32,59.94485074,,,,,right,1,0.5323,0,63,63,65,1,2,2,2 | 2,0,1.4111,1.9756,neutral,right,,,,,,stimulusFile/physical.xlsx,,,,,,,,,,,,,,,,,,,,,,,,,,,,,,,
,,,,,,,,,,,,,,,816,2022-01-23_22h28.33.052,multiplicationStroop,2021.2.3,Win32,59.94485074,,,,,left,1,0.4735,0,64,64,55,1,9,9,9 | 9,0,1.9756,1.4111,neutral,left,,,,,,stimulusFile/physical.xlsx,,,,,,,,,,,,,,,,,,,,,,,,,,,,,,,
,,,,,,,,,,,,,,,816,2022-01-23_22h28.33.052,multiplicationStroop,2021.2.3,Win32,59.94485074,,,,,right,1,0.4315,0,65,65,16,1,1,6,1 | 6,5,1.4111,1.9756,congruent,right,,,,,,stimulusFile/physical.xlsx,,,,,,,,,,,,,,,,,,,,,,,,,,,,,,,
,,,,,,,,,,,,,,,816,2022-01-23_22h28.33.052,multiplicationStroop,2021.2.3,Win32,59.94485074,,,,,left,1,0.5141,0,66,66,6,1,7,6,7 | 6,1,1.9756,1.4111,congruent,left,,,,,,stimulusFile/physical.xlsx,,,,,,,,,,,,,,,,,,,,,,,,,,,,,,,
,,,,,,,,,,,,,,,816,2022-01-23_22h28.33.052,multiplicationStroop,2021.2.3,Win32,59.94485074,,,,,right,1,0.3855,0,67,67,39,1,9,7,9 | 7,2,1.4111,1.9756,incongruent,right,,,,,,stimulusFile/physical.xlsx,,,,,,,,,,,,,,,,,,,,,,,,,,,,,,,
,,,,,,,,,,,,,,,816,2022-01-23_22h28.33.052,multiplicationStroop,2021.2.3,Win32,59.94485074,,,,,left,1,0.5162,0,68,68,26,1,6,7,6 | 7,1,1.9756,1.4111,incongruent,left,,,,,,stimulusFile/physical.xlsx,,,,,,,,,,,,,,,,,,,,,,,,,,,,,,,
,,,,,,,,,,,,,,,816,2022-01-23_22h28.33.052,multiplicationStroop,2021.2.3,Win32,59.94485074,,,,,left,1,0.5457,0,69,69,27,1,8,9,8 | 9,1,1.9756,1.4111,incongruent,left,,,,,,stimulusFile/physical.xlsx,,,,,,,,,,,,,,,,,,,,,,,,,,,,,,,
,,,,,,,,,,,,,,,816,2022-01-23_22h28.33.052,multiplicationStroop,2021.2.3,Win32,59.94485074,,,,,left,1,0.8122,0,70,70,32,1,1,3,1 | 3,2,1.9756,1.4111,incongruent,left,,,,,,stimulusFile/physical.xlsx,,,,,,,,,,,,,,,,,,,,,,,,,,,,,,,
,,,,,,,,,,,,,,,816,2022-01-23_22h28.33.052,multiplicationStroop,2021.2.3,Win32,59.94485074,,,,,right,1,0.4175,0,71,71,31,1,9,8,9 | 8,1,1.4111,1.9756,incongruent,right,,,,,,stimulusFile/physical.xlsx,,,,,,,,,,,,,,,,,,,,,,,,,,,,,,,
,,,,,,,,,,,,,,,816,2022-01-23_22h28.33.052,multiplicationStroop,2021.2.3,Win32,59.94485074,,,,,,,,,,,,,,,,,,,,,0,0,0,1,1,stimulusFile/physical.xlsx,PHYSICALLY larger (larger font size).,images/physicallyLarger.png,,,,,,,,,,,,,,,,,,,,,,,,,,,,,
,,,,,,,,,,,,,,,816,2022-01-23_22h28.33.052,multiplicationStroop,2021.2.3,Win32,59.94485074,space,10.0533,space,3.8925,right,1,0.7018,0,0,0,17,1,2,7,2 | 7,5,1.4111,1.9756,congruent,right,,,,,,stimulusFile/magnitude.xlsx,,,,,,,,,,,,,,,,,,,,,,,,,,,,,,,
,,,,,,,,,,,,,,,816,2022-01-23_22h28.33.052,multiplicationStroop,2021.2.3,Win32,59.94485074,,,,,right,1,0.7176,0,1,1,26,1,6,7,6 | 7,1,1.9756,1.4111,incongruent,right,,,,,,stimulusFile/magnitude.xlsx,,,,,,,,,,,,,,,,,,,,,,,,,,,,,,,
,,,,,,,,,,,,,,,816,2022-01-23_22h28.33.052,multiplicationStroop,2021.2.3,Win32,59.94485074,,,,,right,1,0.7556,0,2,2,1,1,3,4,3 | 4,1,1.4111,1.9756,congruent,right,,,,,,stimulusFile/magnitude.xlsx,,,,,,,,,,,,,,,,,,,,,,,,,,,,,,,
,,,,,,,,,,,,,,,816,2022-01-23_22h28.33.052,multiplicationStroop,2021.2.3,Win32,59.94485074,,,,,left,1,0.8081,0,3,3,71,1,9,4,9 | 4,5,1.6933,1.6933,neutral,left,,,,,,stimulusFile/magnitude.xlsx,,,,,,,,,,,,,,,,,,,,,,,,,,,,,,,
,,,,,,,,,,,,,,,816,2022-01-23_22h28.33.052,multiplicationStroop,2021.2.3,Win32,59.94485074,,,,,right,1,0.5909,0,4,4,64,1,1,6,1 | 6,5,1.6933,1.6933,neutral,right,,,,,,stimulusFile/magnitude.xlsx,,,,,,,,,,,,,,,,,,,,,,,,,,,,,,,
,,,,,,,,,,,,,,,816,2022-01-23_22h28.33.052,multiplicationStroop,2021.2.3,Win32,59.94485074,,,,,left,1,0.5182,0,5,5,52,1,2,1,2 | 1,1,1.6933,1.6933,neutral,left,,,,,,stimulusFile/magnitude.xlsx,,,,,,,,,,,,,,,,,,,,,,,,,,,,,,,
,,,,,,,,,,,,,,,816,2022-01-23_22h28.33.052,multiplicationStroop,2021.2.3,Win32,59.94485074,,,,,left,1,1.0578,0,6,6,62,1,8,6,8 | 6,2,1.6933,1.6933,neutral,left,,,,,,stimulusFile/magnitude.xlsx,,,,,,,,,,,,,,,,,,,,,,,,,,,,,,,
,,,,,,,,,,,,,,,816,2022-01-23_22h28.33.052,multiplicationStroop,2021.2.3,Win32,59.94485074,,,,,right,1,0.6557,0,7,7,67,1,4,9,4 | 9,5,1.6933,1.6933,neutral,right,,,,,,stimulusFile/magnitude.xlsx,,,,,,,,,,,,,,,,,,,,,,,,,,,,,,,
,,,,,,,,,,,,,,,816,2022-01-23_22h28.33.052,multiplicationStroop,2021.2.3,Win32,59.94485074,,,,,left,1,0.8686,0,8,8,31,1,9,8,9 | 8,1,1.4111,1.9756,incongruent,left,,,,,,stimulusFile/magnitude.xlsx,,,,,,,,,,,,,,,,,,,,,,,,,,,,,,,
,,,,,,,,,,,,,,,816,2022-01-23_22h28.33.052,multiplicationStroop,2021.2.3,Win32,59.94485074,,,,,right,1,1.0048,0,9,9,11,1,7,9,7 | 9,2,1.4111,1.9756,congruent,right,,,,,,stimulusFile/magnitude.xlsx,,,,,,,,,,,,,,,,,,,,,,,,,,,,,,,
,,,,,,,,,,,,,,,816,2022-01-23_22h28.33.052,multiplicationStroop,2021.2.3,Win32,59.94485074,,,,,right,1,0.7182,0,10,10,48,1,1,2,1 | 2,1,1.6933,1.6933,neutral,right,,,,,,stimulusFile/magnitude.xlsx,,,,,,,,,,,,,,,,,,,,,,,,,,,,,,,
,,,,,,,,,,,,,,,816,2022-01-23_22h28.33.052,multiplicationStroop,2021.2.3,Win32,59.94485074,,,,,left,1,0.8092,0,11,11,45,1,7,2,7 | 2,5,1.4111,1.9756,incongruent,left,,,,,,stimulusFile/magnitude.xlsx,,,,,,,,,,,,,,,,,,,,,,,,,,,,,,,
,,,,,,,,,,,,,,,816,2022-01-23_22h28.33.052,multiplicationStroop,2021.2.3,Win32,59.94485074,,,,,left,1,0.6581,0,12,12,36,1,3,1,3 | 1,2,1.4111,1.9756,incongruent,left,,,,,,stimulusFile/magnitude.xlsx,,,,,,,,,,,,,,,,,,,,,,,,,,,,,,,
,,,,,,,,,,,,,,,816,2022-01-23_22h28.33.052,multiplicationStroop,2021.2.3,Win32,59.94485074,,,,,right,1,0.7007,0,13,13,9,1,2,4,2 | 4,2,1.4111,1.9756,congruent,right,,,,,,stimulusFile/magnitude.xlsx,,,,,,,,,,,,,,,,,,,,,,,,,,,,,,,
,,,,,,,,,,,,,,,816,2022-01-23_22h28.33.052,multiplicationStroop,2021.2.3,Win32,59.94485074,,,,,right,1,0.8265,0,14,14,33,1,2,4,2 | 4,2,1.9756,1.4111,incongruent,right,,,,,,stimulusFile/magnitude.xlsx,,,,,,,,,,,,,,,,,,,,,,,,,,,,,,,
,,,,,,,,,,,,,,,816,2022-01-23_22h28.33.052,multiplicationStroop,2021.2.3,Win32,59.94485074,,,,,left,1,0.5173,0,15,15,21,1,7,2,7 | 2,5,1.9756,1.4111,congruent,left,,,,,,stimulusFile/magnitude.xlsx,,,,,,,,,,,,,,,,,,,,,,,,,,,,,,,
,,,,,,,,,,,,,,,816,2022-01-23_22h28.33.052,multiplicationStroop,2021.2.3,Win32,59.94485074,,,,,left,1,0.6677,0,16,16,14,1,8,6,8 | 6,2,1.9756,1.4111,congruent,left,,,,,,stimulusFile/magnitude.xlsx,,,,,,,,,,,,,,,,,,,,,,,,,,,,,,,
,,,,,,,,,,,,,,,816,2022-01-23_22h28.33.052,multiplicationStroop,2021.2.3,Win32,59.94485074,,,,,left,1,0.7603,0,17,17,28,1,2,1,2 | 1,1,1.4111,1.9756,incongruent,left,,,,,,stimulusFile/magnitude.xlsx,,,,,,,,,,,,,,,,,,,,,,,,,,,,,,,
,,,,,,,,,,,,,,,816,2022-01-23_22h28.33.052,multiplicationStroop,2021.2.3,Win32,59.94485074,,,,,right,1,0.7319,0,18,18,50,1,6,7,6 | 7,1,1.6933,1.6933,neutral,right,,,,,,stimulusFile/magnitude.xlsx,,,,,,,,,,,,,,,,,,,,,,,,,,,,,,,
,,,,,,,,,,,,,,,816,2022-01-23_22h28.33.052,multiplicationStroop,2021.2.3,Win32,59.94485074,,,,,left,1,1.0384,0,19,19,37,1,4,2,4 | 2,2,1.4111,1.9756,incongruent,left,,,,,,stimulusFile/magnitude.xlsx,,,,,,,,,,,,,,,,,,,,,,,,,,,,,,,
,,,,,,,,,,,,,,,816,2022-01-23_22h28.33.052,multiplicationStroop,2021.2.3,Win32,59.94485074,,,,,left,1,0.7075,0,20,20,12,1,3,1,3 | 1,2,1.9756,1.4111,congruent,left,,,,,,stimulusFile/magnitude.xlsx,,,,,,,,,,,,,,,,,,,,,,,,,,,,,,,
,,,,,,,,,,,,,,,816,2022-01-23_22h28.33.052,multiplicationStroop,2021.2.3,Win32,59.94485074,,,,,right,1,0.6688,0,21,21,34,1,6,8,6 | 8,2,1.9756,1.4111,incongruent,right,,,,,,stimulusFile/magnitude.xlsx,,,,,,,,,,,,,,,,,,,,,,,,,,,,,,,
,,,,,,,,,,,,,,,816,2022-01-23_22h28.33.052,multiplicationStroop,2021.2.3,Win32,59.94485074,,,,,left,1,0.6683,0,22,22,20,1,6,1,6 | 1,5,1.9756,1.4111,congruent,left,,,,,,stimulusFile/magnitude.xlsx,,,,,,,,,,,,,,,,,,,,,,,,,,,,,,,
,,,,,,,,,,,,,,,816,2022-01-23_22h28.33.052,multiplicationStroop,2021.2.3,Win32,59.94485074,,,,,right,1,0.8515,0,23,23,41,1,2,7,2 | 7,5,1.9756,1.4111,incongruent,right,,,,,,stimulusFile/magnitude.xlsx,,,,,,,,,,,,,,,,,,,,,,,,,,,,,,,
,,,,,,,,,,,,,,,816,2022-01-23_22h28.33.052,multiplicationStroop,2021.2.3,Win32,59.94485074,,,,,left,1,0.6146,0,24,24,70,1,8,3,8 | 3,5,1.6933,1.6933,neutral,left,,,,,,stimulusFile/magnitude.xlsx,,,,,,,,,,,,,,,,,,,,,,,,,,,,,,,
,,,,,,,,,,,,,,,816,2022-01-23_22h28.33.052,multiplicationStroop,2021.2.3,Win32,59.94485074,,,,,left,1,0.5111,0,25,25,22,1,8,3,8 | 3,5,1.9756,1.4111,congruent,left,,,,,,stimulusFile/magnitude.xlsx,,,,,,,,,,,,,,,,,,,,,,,,,,,,,,,
,,,,,,,,,,,,,,,816,2022-01-23_22h28.33.052,multiplicationStroop,2021.2.3,Win32,59.94485074,,,,,right,1,0.5537,0,26,26,51,1,8,9,8 | 9,1,1.6933,1.6933,neutral,right,,,,,,stimulusFile/magnitude.xlsx,,,,,,,,,,,,,,,,,,,,,,,,,,,,,,,
,,,,,,,,,,,,,,,816,2022-01-23_22h28.33.052,multiplicationStroop,2021.2.3,Win32,59.94485074,,,,,left,1,0.7277,0,27,27,68,1,6,1,6 | 1,5,1.6933,1.6933,neutral,left,,,,,,stimulusFile/magnitude.xlsx,,,,,,,,,,,,,,,,,,,,,,,,,,,,,,,
,,,,,,,,,,,,,,,816,2022-01-23_22h28.33.052,multiplicationStroop,2021.2.3,Win32,59.94485074,,,,,right,1,0.4924,0,28,28,16,1,1,6,1 | 6,5,1.4111,1.9756,congruent,right,,,,,,stimulusFile/magnitude.xlsx,,,,,,,,,,,,,,,,,,,,,,,,,,,,,,,
,,,,,,,,,,,,,,,816,2022-01-23_22h28.33.052,multiplicationStroop,2021.2.3,Win32,59.94485074,,,,,right,1,0.722,0,29,29,49,1,3,4,3 | 4,1,1.6933,1.6933,neutral,right,,,,,,stimulusFile/magnitude.xlsx,,,,,,,,,,,,,,,,,,,,,,,,,,,,,,,
,,,,,,,,,,,,,,,816,2022-01-23_22h28.33.052,multiplicationStroop,2021.2.3,Win32,59.94485074,,,,,right,1,0.9933,0,30,30,32,1,1,3,1 | 3,2,1.9756,1.4111,incongruent,right,,,,,,stimulusFile/magnitude.xlsx,,,,,,,,,,,,,,,,,,,,,,,,,,,,,,,
,,,,,,,,,,,,,,,816,2022-01-23_22h28.33.052,multiplicationStroop,2021.2.3,Win32,59.94485074,,,,,right,1,0.6381,0,31,31,10,1,6,8,6 | 8,2,1.4111,1.9756,congruent,right,,,,,,stimulusFile/magnitude.xlsx,,,,,,,,,,,,,,,,,,,,,,,,,,,,,,,
,,,,,,,,,,,,,,,816,2022-01-23_22h28.33.052,multiplicationStroop,2021.2.3,Win32,59.94485074,,,,,right,1,0.7522,0,32,32,0,1,1,2,1 | 2,1,1.4111,1.9756,congruent,right,,,,,,stimulusFile/magnitude.xlsx,,,,,,,,,,,,,,,,,,,,,,,,,,,,,,,
,,,,,,,,,,,,,,,816,2022-01-23_22h28.33.052,multiplicationStroop,2021.2.3,Win32,59.94485074,,,,,left,1,0.7343,0,33,33,60,1,3,1,3 | 1,2,1.6933,1.6933,neutral,left,,,,,,stimulusFile/magnitude.xlsx,,,,,,,,,,,,,,,,,,,,,,,,,,,,,,,
,,,,,,,,,,,,,,,816,2022-01-23_22h28.33.052,multiplicationStroop,2021.2.3,Win32,59.94485074,,,,,left,1,0.5192,0,34,34,4,1,2,1,2 | 1,1,1.9756,1.4111,congruent,left,,,,,,stimulusFile/magnitude.xlsx,,,,,,,,,,,,,,,,,,,,,,,,,,,,,,,
,,,,,,,,,,,,,,,816,2022-01-23_22h28.33.052,multiplicationStroop,2021.2.3,Win32,59.94485074,,,,,left,1,0.7566,0,35,35,54,1,7,6,7 | 6,1,1.6933,1.6933,neutral,left,,,,,,stimulusFile/magnitude.xlsx,,,,,,,,,,,,,,,,,,,,,,,,,,,,,,,
,,,,,,,,,,,,,,,816,2022-01-23_22h28.33.052,multiplicationStroop,2021.2.3,Win32,59.94485074,,,,,right,1,0.8734,0,36,36,42,1,3,8,3 | 8,5,1.9756,1.4111,incongruent,right,,,,,,stimulusFile/magnitude.xlsx,,,,,,,,,,,,,,,,,,,,,,,,,,,,,,,
,,,,,,,,,,,,,,,816,2022-01-23_22h28.33.052,multiplicationStroop,2021.2.3,Win32,59.94485074,,,,,left,1,1.1214,0,37,37,29,1,4,3,4 | 3,1,1.4111,1.9756,incongruent,left,,,,,,stimulusFile/magnitude.xlsx,,,,,,,,,,,,,,,,,,,,,,,,,,,,,,,
,,,,,,,,,,,,,,,816,2022-01-23_22h28.33.052,multiplicationStroop,2021.2.3,Win32,59.94485074,,,,,right,1,0.7617,0,38,38,43,1,4,9,4 | 9,5,1.9756,1.4111,incongruent,right,,,,,,stimulusFile/magnitude.xlsx,,,,,,,,,,,,,,,,,,,,,,,,,,,,,,,
,,,,,,,,,,,,,,,816,2022-01-23_22h28.33.052,multiplicationStroop,2021.2.3,Win32,59.94485074,,,,,right,1,0.6548,0,39,39,65,1,2,7,2 | 7,5,1.6933,1.6933,neutral,right,,,,,,stimulusFile/magnitude.xlsx,,,,,,,,,,,,,,,,,,,,,,,,,,,,,,,
,,,,,,,,,,,,,,,816,2022-01-23_22h28.33.052,multiplicationStroop,2021.2.3,Win32,59.94485074,,,,,left,1,0.7522,0,40,40,53,1,4,3,4 | 3,1,1.6933,1.6933,neutral,left,,,,,,stimulusFile/magnitude.xlsx,,,,,,,,,,,,,,,,,,,,,,,,,,,,,,,
,,,,,,,,,,,,,,,816,2022-01-23_22h28.33.052,multiplicationStroop,2021.2.3,Win32,59.94485074,,,,,right,1,0.7701,0,41,41,58,1,6,8,6 | 8,2,1.6933,1.6933,neutral,right,,,,,,stimulusFile/magnitude.xlsx,,,,,,,,,,,,,,,,,,,,,,,,,,,,,,,
,,,,,,,,,,,,,,,816,2022-01-23_22h28.33.052,multiplicationStroop,2021.2.3,Win32,59.94485074,,,,,right,1,0.7346,0,42,42,25,1,3,4,3 | 4,1,1.9756,1.4111,incongruent,right,,,,,,stimulusFile/magnitude.xlsx,,,,,,,,,,,,,,,,,,,,,,,,,,,,,,,
,,,,,,,,,,,,,,,816,2022-01-23_22h28.33.052,multiplicationStroop,2021.2.3,Win32,59.94485074,,,,,right,1,0.7607,0,43,43,2,1,6,7,6 | 7,1,1.4111,1.9756,congruent,right,,,,,,stimulusFile/magnitude.xlsx,,,,,,,,,,,,,,,,,,,,,,,,,,,,,,,
,,,,,,,,,,,,,,,816,2022-01-23_22h28.33.052,multiplicationStroop,2021.2.3,Win32,59.94485074,,,,,right,1,0.8393,0,44,44,57,1,2,4,2 | 4,2,1.6933,1.6933,neutral,right,,,,,,stimulusFile/magnitude.xlsx,,,,,,,,,,,,,,,,,,,,,,,,,,,,,,,
,,,,,,,,,,,,,,,816,2022-01-23_22h28.33.052,multiplicationStroop,2021.2.3,Win32,59.94485074,,,,,left,1,0.6432,0,45,45,5,1,4,3,4 | 3,1,1.9756,1.4111,congruent,left,,,,,,stimulusFile/magnitude.xlsx,,,,,,,,,,,,,,,,,,,,,,,,,,,,,,,
,,,,,,,,,,,,,,,816,2022-01-23_22h28.33.052,multiplicationStroop,2021.2.3,Win32,59.94485074,,,,,right,1,0.5592,0,46,46,19,1,4,9,4 | 9,5,1.4111,1.9756,congruent,right,,,,,,stimulusFile/magnitude.xlsx,,,,,,,,,,,,,,,,,,,,,,,,,,,,,,,
,,,,,,,,,,,,,,,816,2022-01-23_22h28.33.052,multiplicationStroop,2021.2.3,Win32,59.94485074,,,,,right,1,0.8349,0,47,47,66,1,3,8,3 | 8,5,1.6933,1.6933,neutral,right,,,,,,stimulusFile/magnitude.xlsx,,,,,,,,,,,,,,,,,,,,,,,,,,,,,,,
,,,,,,,,,,,,,,,816,2022-01-23_22h28.33.052,multiplicationStroop,2021.2.3,Win32,59.94485074,,,,,left,1,0.6953,0,48,48,47,1,9,4,9 | 4,5,1.4111,1.9756,incongruent,left,,,,,,stimulusFile/magnitude.xlsx,,,,,,,,,,,,,,,,,,,,,,,,,,,,,,,
,,,,,,,,,,,,,,,816,2022-01-23_22h28.33.052,multiplicationStroop,2021.2.3,Win32,59.94485074,,,,,left,1,0.7844,0,49,49,13,1,4,2,4 | 2,2,1.9756,1.4111,congruent,left,,,,,,stimulusFile/magnitude.xlsx,,,,,,,,,,,,,,,,,,,,,,,,,,,,,,,
,,,,,,,,,,,,,,,816,2022-01-23_22h28.33.052,multiplicationStroop,2021.2.3,Win32,59.94485074,,,,,left,1,1.1242,0,50,50,61,1,4,2,4 | 2,2,1.6933,1.6933,neutral,left,,,,,,stimulusFile/magnitude.xlsx,,,,,,,,,,,,,,,,,,,,,,,,,,,,,,,
,,,,,,,,,,,,,,,816,2022-01-23_22h28.33.052,multiplicationStroop,2021.2.3,Win32,59.94485074,,,,,right,1,0.7557,0,51,51,3,1,8,9,8 | 9,1,1.4111,1.9756,congruent,right,,,,,,stimulusFile/magnitude.xlsx,,,,,,,,,,,,,,,,,,,,,,,,,,,,,,,
,,,,,,,,,,,,,,,816,2022-01-23_22h28.33.052,multiplicationStroop,2021.2.3,Win32,59.94485074,,,,,right,1,0.9676,0,52,52,24,1,1,2,1 | 2,1,1.9756,1.4111,incongruent,right,,,,,,stimulusFile/magnitude.xlsx,,,,,,,,,,,,,,,,,,,,,,,,,,,,,,,
,,,,,,,,,,,,,,,816,2022-01-23_22h28.33.052,multiplicationStroop,2021.2.3,Win32,59.94485074,,,,,left,1,0.9398,0,53,53,63,1,9,7,9 | 7,2,1.6933,1.6933,neutral,left,,,,,,stimulusFile/magnitude.xlsx,,,,,,,,,,,,,,,,,,,,,,,,,,,,,,,
,,,,,,,,,,,,,,,816,2022-01-23_22h28.33.052,multiplicationStroop,2021.2.3,Win32,59.94485074,,,,,left,1,0.7948,0,54,54,6,1,7,6,7 | 6,1,1.9756,1.4111,congruent,left,,,,,,stimulusFile/magnitude.xlsx,,,,,,,,,,,,,,,,,,,,,,,,,,,,,,,
,,,,,,,,,,,,,,,816,2022-01-23_22h28.33.052,multiplicationStroop,2021.2.3,Win32,59.94485074,,,,,left,1,0.8186,0,55,55,30,1,7,6,7 | 6,1,1.4111,1.9756,incongruent,left,,,,,,stimulusFile/magnitude.xlsx,,,,,,,,,,,,,,,,,,,,,,,,,,,,,,,
,,,,,,,,,,,,,,,816,2022-01-23_22h28.33.052,multiplicationStroop,2021.2.3,Win32,59.94485074,,,,,right,1,0.5709,0,56,56,40,1,1,6,1 | 6,5,1.9756,1.4111,incongruent,right,,,,,,stimulusFile/magnitude.xlsx,,,,,,,,,,,,,,,,,,,,,,,,,,,,,,,
,,,,,,,,,,,,,,,816,2022-01-23_22h28.33.052,multiplicationStroop,2021.2.3,Win32,59.94485074,,,,,left,1,1.2842,0,57,57,55,1,9,8,9 | 8,1,1.6933,1.6933,neutral,left,,,,,,stimulusFile/magnitude.xlsx,,,,,,,,,,,,,,,,,,,,,,,,,,,,,,,
,,,,,,,,,,,,,,,816,2022-01-23_22h28.33.052,multiplicationStroop,2021.2.3,Win32,59.94485074,,,,,right,1,0.9639,0,58,58,59,1,7,9,7 | 9,2,1.6933,1.6933,neutral,right,,,,,,stimulusFile/magnitude.xlsx,,,,,,,,,,,,,,,,,,,,,,,,,,,,,,,
,,,,,,,,,,,,,,,816,2022-01-23_22h28.33.052,multiplicationStroop,2021.2.3,Win32,59.94485074,,,,,left,1,0.5918,0,59,59,15,1,9,7,9 | 7,2,1.9756,1.4111,congruent,left,,,,,,stimulusFile/magnitude.xlsx,,,,,,,,,,,,,,,,,,,,,,,,,,,,,,,
,,,,,,,,,,,,,,,816,2022-01-23_22h28.33.052,multiplicationStroop,2021.2.3,Win32,59.94485074,,,,,right,1,0.6021,0,60,60,35,1,7,9,7 | 9,2,1.9756,1.4111,incongruent,right,,,,,,stimulusFile/magnitude.xlsx,,,,,,,,,,,,,,,,,,,,,,,,,,,,,,,
,,,,,,,,,,,,,,,816,2022-01-23_22h28.33.052,multiplicationStroop,2021.2.3,Win32,59.94485074,,,,,left,1,0.6019,0,61,61,39,1,9,7,9 | 7,2,1.4111,1.9756,incongruent,left,,,,,,stimulusFile/magnitude.xlsx,,,,,,,,,,,,,,,,,,,,,,,,,,,,,,,
,,,,,,,,,,,,,,,816,2022-01-23_22h28.33.052,multiplicationStroop,2021.2.3,Win32,59.94485074,,,,,left,1,0.5928,0,62,62,7,1,9,8,9 | 8,1,1.9756,1.4111,congruent,left,,,,,,stimulusFile/magnitude.xlsx,,,,,,,,,,,,,,,,,,,,,,,,,,,,,,,
,,,,,,,,,,,,,,,816,2022-01-23_22h28.33.052,multiplicationStroop,2021.2.3,Win32,59.94485074,,,,,left,1,0.8872,0,63,63,38,1,8,6,8 | 6,2,1.4111,1.9756,incongruent,left,,,,,,stimulusFile/magnitude.xlsx,,,,,,,,,,,,,,,,,,,,,,,,,,,,,,,
,,,,,,,,,,,,,,,816,2022-01-23_22h28.33.052,multiplicationStroop,2021.2.3,Win32,59.94485074,,,,,right,1,1.0791,0,64,64,56,1,1,3,1 | 3,2,1.6933,1.6933,neutral,right,,,,,,stimulusFile/magnitude.xlsx,,,,,,,,,,,,,,,,,,,,,,,,,,,,,,,
,,,,,,,,,,,,,,,816,2022-01-23_22h28.33.052,multiplicationStroop,2021.2.3,Win32,59.94485074,,,,,right,1,0.7849,0,65,65,27,1,8,9,8 | 9,1,1.9756,1.4111,incongruent,right,,,,,,stimulusFile/magnitude.xlsx,,,,,,,,,,,,,,,,,,,,,,,,,,,,,,,
,,,,,,,,,,,,,,,816,2022-01-23_22h28.33.052,multiplicationStroop,2021.2.3,Win32,59.94485074,,,,,left,1,0.8427,0,66,66,44,1,6,1,6 | 1,5,1.4111,1.9756,incongruent,left,,,,,,stimulusFile/magnitude.xlsx,,,,,,,,,,,,,,,,,,,,,,,,,,,,,,,
,,,,,,,,,,,,,,,816,2022-01-23_22h28.33.052,multiplicationStroop,2021.2.3,Win32,59.94485074,,,,,right,1,0.6394,0,67,67,18,1,3,8,3 | 8,5,1.4111,1.9756,congruent,right,,,,,,stimulusFile/magnitude.xlsx,,,,,,,,,,,,,,,,,,,,,,,,,,,,,,,
,,,,,,,,,,,,,,,816,2022-01-23_22h28.33.052,multiplicationStroop,2021.2.3,Win32,59.94485074,,,,,left,1,0.5363,0,68,68,69,1,7,2,7 | 2,5,1.6933,1.6933,neutral,left,,,,,,stimulusFile/magnitude.xlsx,,,,,,,,,,,,,,,,,,,,,,,,,,,,,,,
,,,,,,,,,,,,,,,816,2022-01-23_22h28.33.052,multiplicationStroop,2021.2.3,Win32,59.94485074,,,,,right,1,0.541,0,69,69,8,1,1,3,1 | 3,2,1.4111,1.9756,congruent,right,,,,,,stimulusFile/magnitude.xlsx,,,,,,,,,,,,,,,,,,,,,,,,,,,,,,,
,,,,,,,,,,,,,,,816,2022-01-23_22h28.33.052,multiplicationStroop,2021.2.3,Win32,59.94485074,,,,,left,1,0.5402,0,70,70,23,1,9,4,9 | 4,5,1.9756,1.4111,congruent,left,,,,,,stimulusFile/magnitude.xlsx,,,,,,,,,,,,,,,,,,,,,,,,,,,,,,,
,,,,,,,,,,,,,,,816,2022-01-23_22h28.33.052,multiplicationStroop,2021.2.3,Win32,59.94485074,,,,,left,1,0.7356,0,71,71,46,1,8,3,8 | 3,5,1.4111,1.9756,incongruent,left,,,,,,stimulusFile/magnitude.xlsx,,,,,,,,,,,,,,,,,,,,,,,,,,,,,,,
,,,,,,,,,,,,,,,816,2022-01-23_22h28.33.052,multiplicationStroop,2021.2.3,Win32,59.94485074,,,,,,,,,,,,,,,,,,,,,0,1,1,0,1,stimulusFile/magnitude.xlsx,NUMERICALLY larger (larger coefficient).,images/numericallyLarger.png,,,,,,,,,,,,,,,,,,,,,,,,,,,,,
,,,,,,,,,,,,,,,816,2022-01-23_22h28.33.052,multiplicationStroop,2021.2.3,Win32,59.94485074,,,,,,,,,,,,,,,,,,,,,,,,,,,,,space,9.6204,space,2.9476,25,1.9932,1,0,0,0,31,1,5,×,5,5 × 5,neutral,tie,1.5,1.5,25,,,,,,,,
,,,,,,,,,,,,,,,816,2022-01-23_22h28.33.052,multiplicationStroop,2021.2.3,Win32,59.94485074,,,,,,,,,,,,,,,,,,,,,,,,,,,,,,,,,6,2.1997,1,0,1,1,26,1,3,×,2,3 × 2,neutral,largerFirst,1.5,1.5,6,,,,,,,,
,,,,,,,,,,,,,,,816,2022-01-23_22h28.33.052,multiplicationStroop,2021.2.3,Win32,59.94485074,,,,,,,,,,,,,,,,,,,,,,,,,,,,,,,,,45,1.8002,1,0,2,2,10,1,5,×,9,5 × 9,neutral,smallerFirst,1.5,1.5,45,,,,,,,,
,,,,,,,,,,,,,,,816,2022-01-23_22h28.33.052,multiplicationStroop,2021.2.3,Win32,59.94485074,,,,,,,,,,,,,,,,,,,,,,,,,,,,,,,,,56,1.9001,1,0,3,3,9,1,7,×,8,7 × 8,neutral,smallerFirst,1.5,1.5,56,,,,,,,,
,,,,,,,,,,,,,,,816,2022-01-23_22h28.33.052,multiplicationStroop,2021.2.3,Win32,59.94485074,,,,,,,,,,,,,,,,,,,,,,,,,,,,,,,,,16,1.7167,1,0,4,4,30,1,4,×,4,4 × 4,neutral,tie,1.5,1.5,16,,,,,,,,
,,,,,,,,,,,,,,,816,2022-01-23_22h28.33.052,multiplicationStroop,2021.2.3,Win32,59.94485074,,,,,,,,,,,,,,,,,,,,,,,,,,,,,,,,,32,1.8167,1,0,5,5,23,1,8,×,4,8 × 4,neutral,largerFirst,1.5,1.5,32,,,,,,,,
,,,,,,,,,,,,,,,816,2022-01-23_22h28.33.052,multiplicationStroop,2021.2.3,Win32,59.94485074,,,,,,,,,,,,,,,,,,,,,,,,,,,,,,,,,16,1.5666,1,0,6,6,13,1,2,×,8,2 × 8,neutral,smallerFirst,1.5,1.5,16,,,,,,,,
,,,,,,,,,,,,,,,816,2022-01-23_22h28.33.052,multiplicationStroop,2021.2.3,Win32,59.94485074,,,,,,,,,,,,,,,,,,,,,,,,,,,,,,,,,42,3.2839,1,0,7,7,6,1,6,×,7,6 × 7,neutral,smallerFirst,1.5,1.5,42,,,,,,,,
,,,,,,,,,,,,,,,816,2022-01-23_22h28.33.052,multiplicationStroop,2021.2.3,Win32,59.94485074,,,,,,,,,,,,,,,,,,,,,,,,,,,,,,,,,28,2.2839,1,0,8,8,17,1,7,×,4,7 × 4,neutral,largerFirst,1.5,1.5,28,,,,,,,,
,,,,,,,,,,,,,,,816,2022-01-23_22h28.33.052,multiplicationStroop,2021.2.3,Win32,59.94485074,,,,,,,,,,,,,,,,,,,,,,,,,,,,,,,,,40,2.05,1,0,9,9,24,1,8,×,5,8 × 5,neutral,largerFirst,1.5,1.5,40,,,,,,,,
,,,,,,,,,,,,,,,816,2022-01-23_22h28.33.052,multiplicationStroop,2021.2.3,Win32,59.94485074,,,,,,,,,,,,,,,,,,,,,,,,,,,,,,,,,8,1.75,1,0,10,10,3,1,2,×,4,2 × 4,neutral,smallerFirst,1.5,1.5,8,,,,,,,,
,,,,,,,,,,,,,,,816,2022-01-23_22h28.33.052,multiplicationStroop,2021.2.3,Win32,59.94485074,,,,,,,,,,,,,,,,,,,,,,,,,,,,,,,,,64,1.6166,1,0,11,11,34,1,8,×,8,8 × 8,neutral,tie,1.5,1.5,64,,,,,,,,
,,,,,,,,,,,,,,,816,2022-01-23_22h28.33.052,multiplicationStroop,2021.2.3,Win32,59.94485074,,,,,,,,,,,,,,,,,,,,,,,,,,,,,,,,,10,4.4179,1,0,12,12,4,1,2,×,5,2 × 5,neutral,smallerFirst,1.5,1.5,10,,,,,,,,
,,,,,,,,,,,,,,,816,2022-01-23_22h28.33.052,multiplicationStroop,2021.2.3,Win32,59.94485074,,,,,,,,,,,,,,,,,,,,,,,,,,,,,,,,,54,4.7039,1,0,13,13,7,1,6,×,9,6 × 9,neutral,smallerFirst,1.5,1.5,54,,,,,,,,
,,,,,,,,,,,,,,,816,2022-01-23_22h28.33.052,multiplicationStroop,2021.2.3,Win32,59.94485074,,,,,,,,,,,,,,,,,,,,,,,,,,,,,,,,,48,2.5364,1,0,14,14,15,1,8,×,6,8 × 6,neutral,largerFirst,1.5,1.5,48,,,,,,,,
,,,,,,,,,,,,,,,816,2022-01-23_22h28.33.052,multiplicationStroop,2021.2.3,Win32,59.94485074,,,,,,,,,,,,,,,,,,,,,,,,,,,,,,,,,35,1.6507,1,0,15,15,1,1,5,×,7,5 × 7,neutral,smallerFirst,1.5,1.5,35,,,,,,,,
,,,,,,,,,,,,,,,816,2022-01-23_22h28.33.052,multiplicationStroop,2021.2.3,Win32,59.94485074,,,,,,,,,,,,,,,,,,,,,,,,,,,,,,,,,36,1.7333,1,0,16,16,32,1,6,×,6,6 × 6,neutral,tie,1.5,1.5,36,,,,,,,,
,,,,,,,,,,,,,,,816,2022-01-23_22h28.33.052,multiplicationStroop,2021.2.3,Win32,59.94485074,,,,,,,,,,,,,,,,,,,,,,,,,,,,,,,,,12,1.6167,1,0,17,17,21,1,4,×,3,4 × 3,neutral,largerFirst,1.5,1.5,12,,,,,,,,
,,,,,,,,,,,,,,,816,2022-01-23_22h28.33.052,multiplicationStroop,2021.2.3,Win32,59.94485074,,,,,,,,,,,,,,,,,,,,,,,,,,,,,,,,,24,1.5665,1,0,18,18,2,1,4,×,6,4 × 6,neutral,smallerFirst,1.5,1.5,24,,,,,,,,
,,,,,,,,,,,,,,,816,2022-01-23_22h28.33.052,multiplicationStroop,2021.2.3,Win32,59.94485074,,,,,,,,,,,,,,,,,,,,,,,,,,,,,,,,,49,1.7002,1,0,19,19,33,1,7,×,7,7 × 7,neutral,tie,1.5,1.5,49,,,,,,,,
,,,,,,,,,,,,,,,816,2022-01-23_22h28.33.052,multiplicationStroop,2021.2.3,Win32,59.94485074,,,,,,,,,,,,,,,,,,,,,,,,,,,,,,,,,4,1.3163,1,0,20,20,28,1,2,×,2,2 × 2,neutral,tie,1.5,1.5,4,,,,,,,,
,,,,,,,,,,,,,,,816,2022-01-23_22h28.33.052,multiplicationStroop,2021.2.3,Win32,59.94485074,,,,,,,,,,,,,,,,,,,,,,,,,,,,,,,,,18,1.8003,1,0,21,21,0,1,3,×,6,3 × 6,neutral,smallerFirst,1.5,1.5,18,,,,,,,,
,,,,,,,,,,,,,,,816,2022-01-23_22h28.33.052,multiplicationStroop,2021.2.3,Win32,59.94485074,,,,,,,,,,,,,,,,,,,,,,,,,,,,,,,,,36,1.7002,1,0,22,22,27,1,9,×,4,9 × 4,neutral,largerFirst,1.5,1.5,36,,,,,,,,
,,,,,,,,,,,,,,,816,2022-01-23_22h28.33.052,multiplicationStroop,2021.2.3,Win32,59.94485074,,,,,,,,,,,,,,,,,,,,,,,,,,,,,,,,,12,1.3832,1,0,23,23,25,1,6,×,2,6 × 2,neutral,largerFirst,1.5,1.5,12,,,,,,,,
,,,,,,,,,,,,,,,816,2022-01-23_22h28.33.052,multiplicationStroop,2021.2.3,Win32,59.94485074,,,,,,,,,,,,,,,,,,,,,,,,,,,,,,,,,14,1.5169,1,0,24,24,16,1,7,×,2,7 × 2,neutral,largerFirst,1.5,1.5,14,,,,,,,,
,,,,,,,,,,,,,,,816,2022-01-23_22h28.33.052,multiplicationStroop,2021.2.3,Win32,59.94485074,,,,,,,,,,,,,,,,,,,,,,,,,,,,,,,,,81,1.8167,1,0,25,25,35,1,9,×,9,9 × 9,neutral,tie,1.5,1.5,81,,,,,,,,
,,,,,,,,,,,,,,,816,2022-01-23_22h28.33.052,multiplicationStroop,2021.2.3,Win32,59.94485074,,,,,,,,,,,,,,,,,,,,,,,,,,,,,,,,,18,1.7833,1,0,26,26,18,1,9,×,2,9 × 2,neutral,largerFirst,1.5,1.5,18,,,,,,,,
,,,,,,,,,,,,,,,816,2022-01-23_22h28.33.052,multiplicationStroop,2021.2.3,Win32,59.94485074,,,,,,,,,,,,,,,,,,,,,,,,,,,,,,,,,24,1.4502,1,0,27,27,22,1,8,×,3,8 × 3,neutral,largerFirst,1.5,1.5,24,,,,,,,,
,,,,,,,,,,,,,,,816,2022-01-23_22h28.33.052,multiplicationStroop,2021.2.3,Win32,59.94485074,,,,,,,,,,,,,,,,,,,,,,,,,,,,,,,,,27,1.8499,1,0,28,28,14,1,9,×,3,9 × 3,neutral,largerFirst,1.5,1.5,27,,,,,,,,
,,,,,,,,,,,,,,,816,2022-01-23_22h28.33.052,multiplicationStroop,2021.2.3,Win32,59.94485074,,,,,,,,,,,,,,,,,,,,,,,,,,,,,,,,,9,1.5002,1,0,29,29,29,1,3,×,3,3 × 3,neutral,tie,1.5,1.5,9,,,,,,,,
,,,,,,,,,,,,,,,816,2022-01-23_22h28.33.052,multiplicationStroop,2021.2.3,Win32,59.94485074,,,,,,,,,,,,,,,,,,,,,,,,,,,,,,,,,20,2.1335,1,0,30,30,20,1,5,×,4,5 × 4,neutral,largerFirst,1.5,1.5,20,,,,,,,,
,,,,,,,,,,,,,,,816,2022-01-23_22h28.33.052,multiplicationStroop,2021.2.3,Win32,59.94485074,,,,,,,,,,,,,,,,,,,,,,,,,,,,,,,,,72,3.184,1,0,31,31,11,1,8,×,9,8 × 9,neutral,smallerFirst,1.5,1.5,72,,,,,,,,
,,,,,,,,,,,,,,,816,2022-01-23_22h28.33.052,multiplicationStroop,2021.2.3,Win32,59.94485074,,,,,,,,,,,,,,,,,,,,,,,,,,,,,,,,,63,5.8203,1,0,32,32,12,1,7,×,9,7 × 9,neutral,smallerFirst,1.5,1.5,63,,,,,,,,
,,,,,,,,,,,,,,,816,2022-01-23_22h28.33.052,multiplicationStroop,2021.2.3,Win32,59.94485074,,,,,,,,,,,,,,,,,,,,,,,,,,,,,,,,,30,1.6861,1,0,33,33,19,1,6,×,5,6 × 5,neutral,largerFirst,1.5,1.5,30,,,,,,,,
,,,,,,,,,,,,,,,816,2022-01-23_22h28.33.052,multiplicationStroop,2021.2.3,Win32,59.94485074,,,,,,,,,,,,,,,,,,,,,,,,,,,,,,,,,15,1.4671,1,0,34,34,5,1,3,×,5,3 × 5,neutral,smallerFirst,1.5,1.5,15,,,,,,,,
,,,,,,,,,,,,,,,816,2022-01-23_22h28.33.052,multiplicationStroop,2021.2.3,Win32,59.94485074,,,,,,,,,,,,,,,,,,,,,,,,,,,,,,,,,21,1.5166,1,0,35,35,8,1,3,×,7,3 × 7,neutral,smallerFirst,1.5,1.5,21,,,,,,,,
,,,,,,,,,,,,,,,816,2022-01-23_22h28.33.052,multiplicationStroop,2021.2.3,Win32,59.94485074,,,,,,,,,,,,,,,,,,,,,,,,,,,,,,,,,,,,,,,,,,,,,,,,,,0,0,0,1,1,stimulusFile/mult_blk2.xlsx,,
,,,,,,,,,,,,,,,816,2022-01-23_22h28.33.052,multiplicationStroop,2021.2.3,Win32,59.94485074,,,,,,,,,,,,,,,,,,,,,,,,,,,,,,,space,286.662,54,8.053,1,0,0,0,12,1,6,×,9,6 × 9,congruent,smallerFirst,1,2,54,,,,,,,,
,,,,,,,,,,,,,,,816,2022-01-23_22h28.33.052,multiplicationStroop,2021.2.3,Win32,59.94485074,,,,,,,,,,,,,,,,,,,,,,,,,,,,,,,,,24,2.134,1,0,1,1,10,1,3,×,8,3 × 8,congruent,smallerFirst,1,2,24,,,,,,,,
,,,,,,,,,,,,,,,816,2022-01-23_22h28.33.052,multiplicationStroop,2021.2.3,Win32,59.94485074,,,,,,,,,,,,,,,,,,,,,,,,,,,,,,,,,12,1.6829,1,0,2,2,19,1,6,×,2,6 × 2,congruent,largerFirst,2,1,12,,,,,,,,
,,,,,,,,,,,,,,,816,2022-01-23_22h28.33.052,multiplicationStroop,2021.2.3,Win32,59.94485074,,,,,,,,,,,,,,,,,,,,,,,,,,,,,,,,,72,4.3174,1,0,3,3,17,1,9,×,8,9 × 8,congruent,largerFirst,2,1,72,,,,,,,,
,,,,,,,,,,,,,,,816,2022-01-23_22h28.33.052,multiplicationStroop,2021.2.3,Win32,59.94485074,,,,,,,,,,,,,,,,,,,,,,,,,,,,,,,,,35,2.1026,1,0,4,4,1,1,5,×,7,5 × 7,congruent,smallerFirst,1,2,35,,,,,,,,
,,,,,,,,,,,,,,,816,2022-01-23_22h28.33.052,multiplicationStroop,2021.2.3,Win32,59.94485074,,,,,,,,,,,,,,,,,,,,,,,,,,,,,,,,,27,1.9836,1,0,5,5,26,1,9,×,3,9 × 3,congruent,largerFirst,2,1,27,,,,,,,,
,,,,,,,,,,,,,,,816,2022-01-23_22h28.33.052,multiplicationStroop,2021.2.3,Win32,59.94485074,,,,,,,,,,,,,,,,,,,,,,,,,,,,,,,,,24,1.5499,1,0,6,6,25,1,6,×,4,6 × 4,congruent,largerFirst,2,1,24,,,,,,,,
,,,,,,,,,,,,,,,816,2022-01-23_22h28.33.052,multiplicationStroop,2021.2.3,Win32,59.94485074,,,,,,,,,,,,,,,,,,,,,,,,,,,,,,,,,9,1.4828,1,0,7,7,29,1,3,×,3,3 × 3,neutral,tie,2,1,9,,,,,,,,
,,,,,,,,,,,,,,,816,2022-01-23_22h28.33.052,multiplicationStroop,2021.2.3,Win32,59.94485074,,,,,,,,,,,,,,,,,,,,,,,,,,,,,,,,,14,1.3655,1,0,8,8,14,1,7,×,2,7 × 2,congruent,largerFirst,2,1,14,,,,,,,,
,,,,,,,,,,,,,,,816,2022-01-23_22h28.33.052,multiplicationStroop,2021.2.3,Win32,59.94485074,,,,,,,,,,,,,,,,,,,,,,,,,,,,,,,,,8,1.6497,1,0,9,9,9,1,2,×,4,2 × 4,congruent,smallerFirst,1,2,8,,,,,,,,
,,,,,,,,,,,,,,,816,2022-01-23_22h28.33.052,multiplicationStroop,2021.2.3,Win32,59.94485074,,,,,,,,,,,,,,,,,,,,,,,,,,,,,,,,,28,1.817,1,0,10,10,27,1,7,×,4,7 × 4,congruent,largerFirst,2,1,28,,,,,,,,
,,,,,,,,,,,,,,,816,2022-01-23_22h28.33.052,multiplicationStroop,2021.2.3,Win32,59.94485074,,,,,,,,,,,,,,,,,,,,,,,,,,,,,,,,,16,2.1164,1,0,11,11,5,1,2,×,8,2 × 8,congruent,smallerFirst,1,2,16,,,,,,,,
,,,,,,,,,,,,,,,816,2022-01-23_22h28.33.052,multiplicationStroop,2021.2.3,Win32,59.94485074,,,,,,,,,,,,,,,,,,,,,,,,,,,,,,,,,36,1.9334,1,0,12,12,0,1,4,×,9,4 × 9,congruent,smallerFirst,1,2,36,,,,,,,,
,,,,,,,,,,,,,,,816,2022-01-23_22h28.33.052,multiplicationStroop,2021.2.3,Win32,59.94485074,,,,,,,,,,,,,,,,,,,,,,,,,,,,,,,,,20,1.833,1,0,13,13,7,1,4,×,5,4 × 5,congruent,smallerFirst,1,2,20,,,,,,,,
,,,,,,,,,,,,,,,816,2022-01-23_22h28.33.052,multiplicationStroop,2021.2.3,Win32,59.94485074,,,,,,,,,,,,,,,,,,,,,,,,,,,,,,,,,18,1.55,1,0,14,14,11,1,3,×,6,3 × 6,congruent,smallerFirst,1,2,18,,,,,,,,
,,,,,,,,,,,,,,,816,2022-01-23_22h28.33.052,multiplicationStroop,2021.2.3,Win32,59.94485074,,,,,,,,,,,,,,,,,,,,,,,,,,,,,,,,,42,2.9501,1,0,15,15,3,1,6,×,7,6 × 7,congruent,smallerFirst,1,2,42,,,,,,,,
,,,,,,,,,,,,,,,816,2022-01-23_22h28.33.052,multiplicationStroop,2021.2.3,Win32,59.94485074,,,,,,,,,,,,,,,,,,,,,,,,,,,,,,,,,12,1.7227,1,0,16,16,2,1,3,×,4,3 × 4,congruent,smallerFirst,1,2,12,,,,,,,,
,,,,,,,,,,,,,,,816,2022-01-23_22h28.33.052,multiplicationStroop,2021.2.3,Win32,59.94485074,,,,,,,,,,,,,,,,,,,,,,,,,,,,,,,,,48,2.2998,1,0,17,17,18,1,8,×,6,8 × 6,congruent,largerFirst,2,1,48,,,,,,,,
,,,,,,,,,,,,,,,816,2022-01-23_22h28.33.052,multiplicationStroop,2021.2.3,Win32,59.94485074,,,,,,,,,,,,,,,,,,,,,,,,,,,,,,,,,15,1.5667,1,0,18,18,4,1,3,×,5,3 × 5,congruent,smallerFirst,1,2,15,,,,,,,,
,,,,,,,,,,,,,,,816,2022-01-23_22h28.33.052,multiplicationStroop,2021.2.3,Win32,59.94485074,,,,,,,,,,,,,,,,,,,,,,,,,,,,,,,,,21,1.6496,1,0,19,19,16,1,7,×,3,7 × 3,congruent,largerFirst,2,1,21,,,,,,,,
,,,,,,,,,,,,,,,816,2022-01-23_22h28.33.052,multiplicationStroop,2021.2.3,Win32,59.94485074,,,,,,,,,,,,,,,,,,,,,,,,,,,,,,,,,36,1.5998,1,0,20,20,32,1,6,×,6,6 × 6,neutral,tie,2,1,36,,,,,,,,
,,,,,,,,,,,,,,,816,2022-01-23_22h28.33.052,multiplicationStroop,2021.2.3,Win32,59.94485074,,,,,,,,,,,,,,,,,,,,,,,,,,,,,,,,,6,1.6498,1,0,21,21,13,1,2,×,3,2 × 3,congruent,smallerFirst,1,2,6,,,,,,,,
,,,,,,,,,,,,,,,816,2022-01-23_22h28.33.052,multiplicationStroop,2021.2.3,Win32,59.94485074,,,,,,,,,,,,,,,,,,,,,,,,,,,,,,,,,4,1.3668,1,0,22,22,28,1,2,×,2,2 × 2,neutral,tie,2,1,4,,,,,,,,
,,,,,,,,,,,,,,,816,2022-01-23_22h28.33.052,multiplicationStroop,2021.2.3,Win32,59.94485074,,,,,,,,,,,,,,,,,,,,,,,,,,,,,,,,,30,2.4999,1,0,23,23,15,1,6,×,5,6 × 5,congruent,largerFirst,2,1,30,,,,,,,,
,,,,,,,,,,,,,,,816,2022-01-23_22h28.33.052,multiplicationStroop,2021.2.3,Win32,59.94485074,,,,,,,,,,,,,,,,,,,,,,,,,,,,,,,,,25,1.5998,1,0,24,24,31,1,5,×,5,5 × 5,neutral,tie,2,1,25,,,,,,,,
,,,,,,,,,,,,,,,816,2022-01-23_22h28.33.052,multiplicationStroop,2021.2.3,Win32,59.94485074,,,,,,,,,,,,,,,,,,,,,,,,,,,,,,,,,56,3.0006,1,0,25,25,8,1,7,×,8,7 × 8,congruent,smallerFirst,1,2,56,,,,,,,,
,,,,,,,,,,,,,,,816,2022-01-23_22h28.33.052,multiplicationStroop,2021.2.3,Win32,59.94485074,,,,,,,,,,,,,,,,,,,,,,,,,,,,,,,,,63,2.8833,1,0,26,26,21,1,9,×,7,9 × 7,congruent,largerFirst,2,1,63,,,,,,,,
,,,,,,,,,,,,,,,816,2022-01-23_22h28.33.052,multiplicationStroop,2021.2.3,Win32,59.94485074,,,,,,,,,,,,,,,,,,,,,,,,,,,,,,,,,49,2.0193,1,0,27,27,33,1,7,×,7,7 × 7,neutral,tie,2,1,49,,,,,,,,
,,,,,,,,,,,,,,,816,2022-01-23_22h28.33.052,multiplicationStroop,2021.2.3,Win32,59.94485074,,,,,,,,,,,,,,,,,,,,,,,,,,,,,,,,,81,1.9333,1,0,28,28,35,1,9,×,9,9 × 9,neutral,tie,2,1,81,,,,,,,,
,,,,,,,,,,,,,,,816,2022-01-23_22h28.33.052,multiplicationStroop,2021.2.3,Win32,59.94485074,,,,,,,,,,,,,,,,,,,,,,,,,,,,,,,,,32,1.7666,1,0,29,29,20,1,8,×,4,8 × 4,congruent,largerFirst,2,1,32,,,,,,,,
,,,,,,,,,,,,,,,816,2022-01-23_22h28.33.052,multiplicationStroop,2021.2.3,Win32,59.94485074,,,,,,,,,,,,,,,,,,,,,,,,,,,,,,,,,18,1.6156,1,0,30,30,22,1,9,×,2,9 × 2,congruent,largerFirst,2,1,18,,,,,,,,
,,,,,,,,,,,,,,,816,2022-01-23_22h28.33.052,multiplicationStroop,2021.2.3,Win32,59.94485074,,,,,,,,,,,,,,,,,,,,,,,,,,,,,,,,,16,1.6166,1,0,31,31,30,1,4,×,4,4 × 4,neutral,tie,2,1,16,,,,,,,,
,,,,,,,,,,,,,,,816,2022-01-23_22h28.33.052,multiplicationStroop,2021.2.3,Win32,59.94485074,,,,,,,,,,,,,,,,,,,,,,,,,,,,,,,,,40,2.7501,1,0,32,32,6,1,5,×,8,5 × 8,congruent,smallerFirst,1,2,40,,,,,,,,
,,,,,,,,,,,,,,,816,2022-01-23_22h28.33.052,multiplicationStroop,2021.2.3,Win32,59.94485074,,,,,,,,,,,,,,,,,,,,,,,,,,,,,,,,,64,1.769,1,0,33,33,34,1,8,×,8,8 × 8,neutral,tie,2,1,64,,,,,,,,
,,,,,,,,,,,,,,,816,2022-01-23_22h28.33.052,multiplicationStroop,2021.2.3,Win32,59.94485074,,,,,,,,,,,,,,,,,,,,,,,,,,,,,,,,,10,1.7838,1,0,34,34,24,1,5,×,2,5 × 2,congruent,largerFirst,2,1,10,,,,,,,,
,,,,,,,,,,,,,,,816,2022-01-23_22h28.33.052,multiplicationStroop,2021.2.3,Win32,59.94485074,,,,,,,,,,,,,,,,,,,,,,,,,,,,,,,,,45,1.6491,1,0,35,35,23,1,9,×,5,9 × 5,congruent,largerFirst,2,1,45,,,,,,,,
,,,,,,,,,,,,,,,816,2022-01-23_22h28.33.052,multiplicationStroop,2021.2.3,Win32,59.94485074,,,,,,,,,,,,,,,,,,,,,,,,,,,,,,,,,,,,,,,,,,,,,,,,,,0,1,1,2,1,stimulusFile/mult_blk3_congruent.xlsx,,
,,,,,,,,,,,,,,,816,2022-01-23_22h28.33.052,multiplicationStroop,2021.2.3,Win32,59.94485074,,,,,,,,,,,,,,,,,,,,,,,,,,,,,,,space,0.978,27,2.9562,1,0,0,0,18,1,9,×,3,9 × 3,incongruent,largerFirst,1,2,27,,,,,,,,
,,,,,,,,,,,,,,,816,2022-01-23_22h28.33.052,multiplicationStroop,2021.2.3,Win32,59.94485074,,,,,,,,,,,,,,,,,,,,,,,,,,,,,,,,,4,1.25,1,0,1,1,28,1,2,×,2,2 × 2,incongruent,tie,1,2,4,,,,,,,,
,,,,,,,,,,,,,,,816,2022-01-23_22h28.33.052,multiplicationStroop,2021.2.3,Win32,59.94485074,,,,,,,,,,,,,,,,,,,,,,,,,,,,,,,,,18,1.7167,1,0,2,2,2,1,2,×,9,2 × 9,incongruent,smallerFirst,2,1,18,,,,,,,,
,,,,,,,,,,,,,,,816,2022-01-23_22h28.33.052,multiplicationStroop,2021.2.3,Win32,59.94485074,,,,,,,,,,,,,,,,,,,,,,,,,,,,,,,,,20,1.9338,1,0,3,3,27,1,5,×,4,5 × 4,incongruent,largerFirst,1,2,20,,,,,,,,
,,,,,,,,,,,,,,,816,2022-01-23_22h28.33.052,multiplicationStroop,2021.2.3,Win32,59.94485074,,,,,,,,,,,,,,,,,,,,,,,,,,,,,,,,,36,1.4997,1,0,4,4,32,1,6,×,6,6 × 6,incongruent,tie,1,2,36,,,,,,,,
,,,,,,,,,,,,,,,816,2022-01-23_22h28.33.052,multiplicationStroop,2021.2.3,Win32,59.94485074,,,,,,,,,,,,,,,,,,,,,,,,,,,,,,,,,54,1.9336,1,0,5,5,6,1,6,×,9,6 × 9,incongruent,smallerFirst,2,1,54,,,,,,,,
,,,,,,,,,,,,,,,816,2022-01-23_22h28.33.052,multiplicationStroop,2021.2.3,Win32,59.94485074,,,,,,,,,,,,,,,,,,,,,,,,,,,,,,,,,25,3.9178,1,0,6,6,31,1,5,×,5,5 × 5,incongruent,tie,1,2,25,,,,,,,,
,,,,,,,,,,,,,,,816,2022-01-23_22h28.33.052,multiplicationStroop,2021.2.3,Win32,59.94485074,,,,,,,,,,,,,,,,,,,,,,,,,,,,,,,,,63,1.9867,1,0,7,7,3,1,7,×,9,7 × 9,incongruent,smallerFirst,2,1,63,,,,,,,,
,,,,,,,,,,,,,,,816,2022-01-23_22h28.33.052,multiplicationStroop,2021.2.3,Win32,59.94485074,,,,,,,,,,,,,,,,,,,,,,,,,,,,,,,,,35,3.0839,1,0,8,8,12,1,5,×,7,5 × 7,incongruent,smallerFirst,2,1,35,,,,,,,,
,,,,,,,,,,,,,,,816,2022-01-23_22h28.33.052,multiplicationStroop,2021.2.3,Win32,59.94485074,,,,,,,,,,,,,,,,,,,,,,,,,,,,,,,,,72,3.6706,1,0,9,9,0,1,8,×,9,8 × 9,incongruent,smallerFirst,2,1,72,,,,,,,,
,,,,,,,,,,,,,,,816,2022-01-23_22h28.33.052,multiplicationStroop,2021.2.3,Win32,59.94485074,,,,,,,,,,,,,,,,,,,,,,,,,,,,,,,,,15,1.5195,1,0,10,10,10,1,3,×,5,3 × 5,incongruent,smallerFirst,2,1,15,,,,,,,,
,,,,,,,,,,,,,,,816,2022-01-23_22h28.33.052,multiplicationStroop,2021.2.3,Win32,59.94485074,,,,,,,,,,,,,,,,,,,,,,,,,,,,,,,,,18,2.0669,1,0,11,11,8,1,3,×,6,3 × 6,incongruent,smallerFirst,2,1,18,,,,,,,,
,,,,,,,,,,,,,,,816,2022-01-23_22h28.33.052,multiplicationStroop,2021.2.3,Win32,59.94485074,,,,,,,,,,,,,,,,,,,,,,,,,,,,,,,,,16,1.5163,1,0,12,12,30,1,4,×,4,4 × 4,incongruent,tie,1,2,16,,,,,,,,
,,,,,,,,,,,,,,,816,2022-01-23_22h28.33.052,multiplicationStroop,2021.2.3,Win32,59.94485074,,,,,,,,,,,,,,,,,,,,,,,,,,,,,,,,,56,3.2176,1,0,13,13,14,1,8,×,7,8 × 7,incongruent,largerFirst,1,2,56,,,,,,,,
,,,,,,,,,,,,,,,816,2022-01-23_22h28.33.052,multiplicationStroop,2021.2.3,Win32,59.94485074,,,,,,,,,,,,,,,,,,,,,,,,,,,,,,,,,49,1.5523,1,0,14,14,33,1,7,×,7,7 × 7,incongruent,tie,1,2,49,,,,,,,,
,,,,,,,,,,,,,,,816,2022-01-23_22h28.33.052,multiplicationStroop,2021.2.3,Win32,59.94485074,,,,,,,,,,,,,,,,,,,,,,,,,,,,,,,,,40,1.7168,1,0,15,15,13,1,5,×,8,5 × 8,incongruent,smallerFirst,2,1,40,,,,,,,,
,,,,,,,,,,,,,,,816,2022-01-23_22h28.33.052,multiplicationStroop,2021.2.3,Win32,59.94485074,,,,,,,,,,,,,,,,,,,,,,,,,,,,,,,,,21,1.4497,1,0,16,16,26,1,7,×,3,7 × 3,incongruent,largerFirst,1,2,21,,,,,,,,
,,,,,,,,,,,,,,,816,2022-01-23_22h28.33.052,multiplicationStroop,2021.2.3,Win32,59.94485074,,,,,,,,,,,,,,,,,,,,,,,,,,,,,,,,,81,1.7826,1,0,17,17,35,1,9,×,9,9 × 9,incongruent,tie,1,2,81,,,,,,,,
,,,,,,,,,,,,,,,816,2022-01-23_22h28.33.052,multiplicationStroop,2021.2.3,Win32,59.94485074,,,,,,,,,,,,,,,,,,,,,,,,,,,,,,,,,6,1.9503,1,0,18,18,11,1,2,×,3,2 × 3,incongruent,smallerFirst,2,1,6,,,,,,,,
,,,,,,,,,,,,,,,816,2022-01-23_22h28.33.052,multiplicationStroop,2021.2.3,Win32,59.94485074,,,,,,,,,,,,,,,,,,,,,,,,,,,,,,,,,16,2.267,1,0,19,19,23,1,8,×,2,8 × 2,incongruent,largerFirst,1,2,16,,,,,,,,
,,,,,,,,,,,,,,,816,2022-01-23_22h28.33.052,multiplicationStroop,2021.2.3,Win32,59.94485074,,,,,,,,,,,,,,,,,,,,,,,,,,,,,,,,,24,1.4835,1,0,20,20,20,1,6,×,4,6 × 4,incongruent,largerFirst,1,2,24,,,,,,,,
,,,,,,,,,,,,,,,816,2022-01-23_22h28.33.052,multiplicationStroop,2021.2.3,Win32,59.94485074,,,,,,,,,,,,,,,,,,,,,,,,,,,,,,,,,30,1.6835,1,0,21,21,25,1,6,×,5,6 × 5,incongruent,largerFirst,1,2,30,,,,,,,,
,,,,,,,,,,,,,,,816,2022-01-23_22h28.33.052,multiplicationStroop,2021.2.3,Win32,59.94485074,,,,,,,,,,,,,,,,,,,,,,,,,,,,,,,,,8,1.4837,1,0,22,22,24,1,4,×,2,4 × 2,incongruent,largerFirst,1,2,8,,,,,,,,
,,,,,,,,,,,,,,,816,2022-01-23_22h28.33.052,multiplicationStroop,2021.2.3,Win32,59.94485074,,,,,,,,,,,,,,,,,,,,,,,,,,,,,,,,,12,1.5002,1,0,23,23,5,1,3,×,4,3 × 4,incongruent,smallerFirst,2,1,12,,,,,,,,
,,,,,,,,,,,,,,,816,2022-01-23_22h28.33.052,multiplicationStroop,2021.2.3,Win32,59.94485074,,,,,,,,,,,,,,,,,,,,,,,,,,,,,,,,,14,1.6498,1,0,24,24,4,1,2,×,7,2 × 7,incongruent,smallerFirst,2,1,14,,,,,,,,
,,,,,,,,,,,,,,,816,2022-01-23_22h28.33.052,multiplicationStroop,2021.2.3,Win32,59.94485074,,,,,,,,,,,,,,,,,,,,,,,,,,,,,,,,,45,3.0341,1,0,25,25,22,1,9,×,5,9 × 5,incongruent,largerFirst,1,2,45,,,,,,,,
,,,,,,,,,,,,,,,816,2022-01-23_22h28.33.052,multiplicationStroop,2021.2.3,Win32,59.94485074,,,,,,,,,,,,,,,,,,,,,,,,,,,,,,,,,9,1.353,1,0,26,26,29,1,3,×,3,3 × 3,incongruent,tie,1,2,9,,,,,,,,
,,,,,,,,,,,,,,,816,2022-01-23_22h28.33.052,multiplicationStroop,2021.2.3,Win32,59.94485074,,,,,,,,,,,,,,,,,,,,,,,,,,,,,,,,,42,2.8335,1,0,27,27,17,1,7,×,6,7 × 6,incongruent,largerFirst,1,2,42,,,,,,,,
,,,,,,,,,,,,,,,816,2022-01-23_22h28.33.052,multiplicationStroop,2021.2.3,Win32,59.94485074,,,,,,,,,,,,,,,,,,,,,,,,,,,,,,,,,32,1.7196,1,0,28,28,7,1,4,×,8,4 × 8,incongruent,smallerFirst,2,1,32,,,,,,,,
,,,,,,,,,,,,,,,816,2022-01-23_22h28.33.052,multiplicationStroop,2021.2.3,Win32,59.94485074,,,,,,,,,,,,,,,,,,,,,,,,,,,,,,,,,24,1.5334,1,0,29,29,9,1,3,×,8,3 × 8,incongruent,smallerFirst,2,1,24,,,,,,,,
,,,,,,,,,,,,,,,816,2022-01-23_22h28.33.052,multiplicationStroop,2021.2.3,Win32,59.94485074,,,,,,,,,,,,,,,,,,,,,,,,,,,,,,,,,36,1.9004,1,0,30,30,15,1,9,×,4,9 × 4,incongruent,largerFirst,1,2,36,,,,,,,,
,,,,,,,,,,,,,,,816,2022-01-23_22h28.33.052,multiplicationStroop,2021.2.3,Win32,59.94485074,,,,,,,,,,,,,,,,,,,,,,,,,,,,,,,,,10,1.6001,1,0,31,31,21,1,5,×,2,5 × 2,incongruent,largerFirst,1,2,10,,,,,,,,
,,,,,,,,,,,,,,,816,2022-01-23_22h28.33.052,multiplicationStroop,2021.2.3,Win32,59.94485074,,,,,,,,,,,,,,,,,,,,,,,,,,,,,,,,,12,1.4169,1,0,32,32,19,1,6,×,2,6 × 2,incongruent,largerFirst,1,2,12,,,,,,,,
,,,,,,,,,,,,,,,816,2022-01-23_22h28.33.052,multiplicationStroop,2021.2.3,Win32,59.94485074,,,,,,,,,,,,,,,,,,,,,,,,,,,,,,,,,28,2.0332,1,0,33,33,16,1,7,×,4,7 × 4,incongruent,largerFirst,1,2,28,,,,,,,,
,,,,,,,,,,,,,,,816,2022-01-23_22h28.33.052,multiplicationStroop,2021.2.3,Win32,59.94485074,,,,,,,,,,,,,,,,,,,,,,,,,,,,,,,,,48,2.9673,1,0,34,34,1,1,6,×,8,6 × 8,incongruent,smallerFirst,2,1,48,,,,,,,,
,,,,,,,,,,,,,,,816,2022-01-23_22h28.33.052,multiplicationStroop,2021.2.3,Win32,59.94485074,,,,,,,,,,,,,,,,,,,,,,,,,,,,,,,,,64,1.9837,1,0,35,35,34,1,8,×,8,8 × 8,incongruent,tie,1,2,64,,,,,,,,
,,,,,,,,,,,,,,,816,2022-01-23_22h28.33.052,multiplicationStroop,2021.2.3,Win32,59.94485074,,,,,,,,,,,,,,,,,,,,,,,,,,,,,,,,,,,,,,,,,,,,,,,,,,0,2,2,5,1,stimulusFile/mult_blk6_INcongruent.xlsx,,
,,,,,,,,,,,,,,,816,2022-01-23_22h28.33.052,multiplicationStroop,2021.2.3,Win32,59.94485074,,,,,,,,,,,,,,,,,,,,,,,,,,,,,,,space,1.0965,72,3.2773,1,0,0,0,3,1,8,×,9,8 × 9,congruent,smallerFirst,1,2,72,,,,,,,,
,,,,,,,,,,,,,,,816,2022-01-23_22h28.33.052,multiplicationStroop,2021.2.3,Win32,59.94485074,,,,,,,,,,,,,,,,,,,,,,,,,,,,,,,,,42,2.5361,1,0,1,1,17,1,7,×,6,7 × 6,congruent,largerFirst,2,1,42,,,,,,,,
,,,,,,,,,,,,,,,816,2022-01-23_22h28.33.052,multiplicationStroop,2021.2.3,Win32,59.94485074,,,,,,,,,,,,,,,,,,,,,,,,,,,,,,,,,16,1.5167,1,0,2,2,19,1,8,×,2,8 × 2,congruent,largerFirst,2,1,16,,,,,,,,
,,,,,,,,,,,,,,,816,2022-01-23_22h28.33.052,multiplicationStroop,2021.2.3,Win32,59.94485074,,,,,,,,,,,,,,,,,,,,,,,,,,,,,,,,,6,2.0334,1,0,3,3,27,1,3,×,2,3 × 2,congruent,largerFirst,2,1,6,,,,,,,,
,,,,,,,,,,,,,,,816,2022-01-23_22h28.33.052,multiplicationStroop,2021.2.3,Win32,59.94485074,,,,,,,,,,,,,,,,,,,,,,,,,,,,,,,,,35,2.0831,1,0,4,4,15,1,7,×,5,7 × 5,congruent,largerFirst,2,1,35,,,,,,,,
,,,,,,,,,,,,,,,816,2022-01-23_22h28.33.052,multiplicationStroop,2021.2.3,Win32,59.94485074,,,,,,,,,,,,,,,,,,,,,,,,,,,,,,,,,81,2.3809,1,0,5,5,35,1,9,×,9,9 × 9,neutral,tie,1,2,81,,,,,,,,
,,,,,,,,,,,,,,,816,2022-01-23_22h28.33.052,multiplicationStroop,2021.2.3,Win32,59.94485074,,,,,,,,,,,,,,,,,,,,,,,,,,,,,,,,,54,2.3668,1,0,6,6,26,1,9,×,6,9 × 6,congruent,largerFirst,2,1,54,,,,,,,,
,,,,,,,,,,,,,,,816,2022-01-23_22h28.33.052,multiplicationStroop,2021.2.3,Win32,59.94485074,,,,,,,,,,,,,,,,,,,,,,,,,,,,,,,,,4,1.6501,1,0,7,7,28,1,2,×,2,2 × 2,neutral,tie,1,2,4,,,,,,,,
,,,,,,,,,,,,,,,816,2022-01-23_22h28.33.052,multiplicationStroop,2021.2.3,Win32,59.94485074,,,,,,,,,,,,,,,,,,,,,,,,,,,,,,,,,30,3.7668,1,0,8,8,1,1,5,×,6,5 × 6,congruent,smallerFirst,1,2,30,,,,,,,,
,,,,,,,,,,,,,,,816,2022-01-23_22h28.33.052,multiplicationStroop,2021.2.3,Win32,59.94485074,,,,,,,,,,,,,,,,,,,,,,,,,,,,,,,,,8,1.7862,1,0,9,9,23,1,4,×,2,4 × 2,congruent,largerFirst,2,1,8,,,,,,,,
,,,,,,,,,,,,,,,816,2022-01-23_22h28.33.052,multiplicationStroop,2021.2.3,Win32,59.94485074,,,,,,,,,,,,,,,,,,,,,,,,,,,,,,,,,63,1.8996,1,0,10,10,7,1,7,×,9,7 × 9,congruent,smallerFirst,1,2,63,,,,,,,,
,,,,,,,,,,,,,,,816,2022-01-23_22h28.33.052,multiplicationStroop,2021.2.3,Win32,59.94485074,,,,,,,,,,,,,,,,,,,,,,,,,,,,,,,,,12,1.9671,1,0,11,11,5,1,2,×,6,2 × 6,congruent,smallerFirst,1,2,12,,,,,,,,
,,,,,,,,,,,,,,,816,2022-01-23_22h28.33.052,multiplicationStroop,2021.2.3,Win32,59.94485074,,,,,,,,,,,,,,,,,,,,,,,,,,,,,,,,,9,1.4663,1,0,12,12,29,1,3,×,3,3 × 3,neutral,tie,1,2,9,,,,,,,,
,,,,,,,,,,,,,,,816,2022-01-23_22h28.33.052,multiplicationStroop,2021.2.3,Win32,59.94485074,,,,,,,,,,,,,,,,,,,,,,,,,,,,,,,,,16,1.5664,1,0,13,13,30,1,4,×,4,4 × 4,neutral,tie,1,2,16,,,,,,,,
,,,,,,,,,,,,,,,816,2022-01-23_22h28.33.052,multiplicationStroop,2021.2.3,Win32,59.94485074,,,,,,,,,,,,,,,,,,,,,,,,,,,,,,,,,27,2.0501,1,0,14,14,12,1,3,×,9,3 × 9,congruent,smallerFirst,1,2,27,,,,,,,,
,,,,,,,,,,,,,,,816,2022-01-23_22h28.33.052,multiplicationStroop,2021.2.3,Win32,59.94485074,,,,,,,,,,,,,,,,,,,,,,,,,,,,,,,,,40,1.6163,1,0,15,15,20,1,8,×,5,8 × 5,congruent,largerFirst,2,1,40,,,,,,,,
,,,,,,,,,,,,,,,816,2022-01-23_22h28.33.052,multiplicationStroop,2021.2.3,Win32,59.94485074,,,,,,,,,,,,,,,,,,,,,,,,,,,,,,,,,24,1.5834,1,0,16,16,11,1,4,×,6,4 × 6,congruent,smallerFirst,1,2,24,,,,,,,,
,,,,,,,,,,,,,,,816,2022-01-23_22h28.33.052,multiplicationStroop,2021.2.3,Win32,59.94485074,,,,,,,,,,,,,,,,,,,,,,,,,,,,,,,,,15,1.3996,1,0,17,17,18,1,5,×,3,5 × 3,congruent,largerFirst,2,1,15,,,,,,,,
,,,,,,,,,,,,,,,816,2022-01-23_22h28.33.052,multiplicationStroop,2021.2.3,Win32,59.94485074,,,,,,,,,,,,,,,,,,,,,,,,,,,,,,,,,21,1.4164,1,0,18,18,2,1,3,×,7,3 × 7,congruent,smallerFirst,1,2,21,,,,,,,,
,,,,,,,,,,,,,,,816,2022-01-23_22h28.33.052,multiplicationStroop,2021.2.3,Win32,59.94485074,,,,,,,,,,,,,,,,,,,,,,,,,,,,,,,,,45,2.2333,1,0,19,19,9,1,5,×,9,5 × 9,congruent,smallerFirst,1,2,45,,,,,,,,
,,,,,,,,,,,,,,,816,2022-01-23_22h28.33.052,multiplicationStroop,2021.2.3,Win32,59.94485074,,,,,,,,,,,,,,,,,,,,,,,,,,,,,,,,,24,1.533,1,0,20,20,24,1,8,×,3,8 × 3,congruent,largerFirst,2,1,24,,,,,,,,
,,,,,,,,,,,,,,,816,2022-01-23_22h28.33.052,multiplicationStroop,2021.2.3,Win32,59.94485074,,,,,,,,,,,,,,,,,,,,,,,,,,,,,,,,,49,2.4669,1,0,21,21,33,1,7,×,7,7 × 7,neutral,tie,1,2,49,,,,,,,,
,,,,,,,,,,,,,,,816,2022-01-23_22h28.33.052,multiplicationStroop,2021.2.3,Win32,59.94485074,,,,,,,,,,,,,,,,,,,,,,,,,,,,,,,,,20,1.6998,1,0,22,22,21,1,5,×,4,5 × 4,congruent,largerFirst,2,1,20,,,,,,,,
,,,,,,,,,,,,,,,816,2022-01-23_22h28.33.052,multiplicationStroop,2021.2.3,Win32,59.94485074,,,,,,,,,,,,,,,,,,,,,,,,,,,,,,,,,18,1.8832,1,0,23,23,8,1,2,×,9,2 × 9,congruent,smallerFirst,1,2,18,,,,,,,,
,,,,,,,,,,,,,,,816,2022-01-23_22h28.33.052,multiplicationStroop,2021.2.3,Win32,59.94485074,,,,,,,,,,,,,,,,,,,,,,,,,,,,,,,,,25,1.6832,1,0,24,24,31,1,5,×,5,5 × 5,neutral,tie,1,2,25,,,,,,,,
,,,,,,,,,,,,,,,816,2022-01-23_22h28.33.052,multiplicationStroop,2021.2.3,Win32,59.94485074,,,,,,,,,,,,,,,,,,,,,,,,,,,,,,,,,36,1.5164,1,0,25,25,32,1,6,×,6,6 × 6,neutral,tie,1,2,36,,,,,,,,
,,,,,,,,,,,,,,,816,2022-01-23_22h28.33.052,multiplicationStroop,2021.2.3,Win32,59.94485074,,,,,,,,,,,,,,,,,,,,,,,,,,,,,,,,,32,1.9334,1,0,26,26,6,1,4,×,8,4 × 8,congruent,smallerFirst,1,2,32,,,,,,,,
,,,,,,,,,,,,,,,816,2022-01-23_22h28.33.052,multiplicationStroop,2021.2.3,Win32,59.94485074,,,,,,,,,,,,,,,,,,,,,,,,,,,,,,,,,10,1.6497,1,0,27,27,10,1,2,×,5,2 × 5,congruent,smallerFirst,1,2,10,,,,,,,,
,,,,,,,,,,,,,,,816,2022-01-23_22h28.33.052,multiplicationStroop,2021.2.3,Win32,59.94485074,,,,,,,,,,,,,,,,,,,,,,,,,,,,,,,,,14,1.5661,1,0,28,28,0,1,2,×,7,2 × 7,congruent,smallerFirst,1,2,14,,,,,,,,
,,,,,,,,,,,,,,,816,2022-01-23_22h28.33.052,multiplicationStroop,2021.2.3,Win32,59.94485074,,,,,,,,,,,,,,,,,,,,,,,,,,,,,,,,,12,1.6499,1,0,29,29,16,1,4,×,3,4 × 3,congruent,largerFirst,2,1,12,,,,,,,,
,,,,,,,,,,,,,,,816,2022-01-23_22h28.33.052,multiplicationStroop,2021.2.3,Win32,59.94485074,,,,,,,,,,,,,,,,,,,,,,,,,,,,,,,,,56,2.7669,1,0,30,30,22,1,8,×,7,8 × 7,congruent,largerFirst,2,1,56,,,,,,,,
,,,,,,,,,,,,,,,816,2022-01-23_22h28.33.052,multiplicationStroop,2021.2.3,Win32,59.94485074,,,,,,,,,,,,,,,,,,,,,,,,,,,,,,,,,18,8.3856,1,0,31,31,25,1,6,×,3,6 × 3,congruent,largerFirst,2,1,18,,,,,,,,
,,,,,,,,,,,,,,,816,2022-01-23_22h28.33.052,multiplicationStroop,2021.2.3,Win32,59.94485074,,,,,,,,,,,,,,,,,,,,,,,,,,,,,,,,,28,1.6164,1,0,32,32,13,1,4,×,7,4 × 7,congruent,smallerFirst,1,2,28,,,,,,,,
,,,,,,,,,,,,,,,816,2022-01-23_22h28.33.052,multiplicationStroop,2021.2.3,Win32,59.94485074,,,,,,,,,,,,,,,,,,,,,,,,,,,,,,,,,36,2.7006,1,0,33,33,14,1,9,×,4,9 × 4,congruent,largerFirst,2,1,36,,,,,,,,
,,,,,,,,,,,,,,,816,2022-01-23_22h28.33.052,multiplicationStroop,2021.2.3,Win32,59.94485074,,,,,,,,,,,,,,,,,,,,,,,,,,,,,,,,,64,2.0524,1,0,34,34,34,1,8,×,8,8 × 8,neutral,tie,1,2,64,,,,,,,,
,,,,,,,,,,,,,,,816,2022-01-23_22h28.33.052,multiplicationStroop,2021.2.3,Win32,59.94485074,,,,,,,,,,,,,,,,,,,,,,,,,,,,,,,,,48,1.9665,1,0,35,35,4,1,6,×,8,6 × 8,congruent,smallerFirst,1,2,48,,,,,,,,
,,,,,,,,,,,,,,,816,2022-01-23_22h28.33.052,multiplicationStroop,2021.2.3,Win32,59.94485074,,,,,,,,,,,,,,,,,,,,,,,,,,,,,,,,,,,,,,,,,,,,,,,,,,0,3,3,3,1,stimulusFile/mult_blk4_congruent.xlsx,,
,,,,,,,,,,,,,,,816,2022-01-23_22h28.33.052,multiplicationStroop,2021.2.3,Win32,59.94485074,,,,,,,,,,,,,,,,,,,,,,,,,,,,,,,space,0.903,15,1.4689,1,0,0,0,19,1,5,×,3,5 × 3,neutral,largerFirst,1.5,1.5,15,,,,,,,,
,,,,,,,,,,,,,,,816,2022-01-23_22h28.33.052,multiplicationStroop,2021.2.3,Win32,59.94485074,,,,,,,,,,,,,,,,,,,,,,,,,,,,,,,,,30,2.0165,1,0,1,1,5,1,5,×,6,5 × 6,neutral,smallerFirst,1.5,1.5,30,,,,,,,,
,,,,,,,,,,,,,,,816,2022-01-23_22h28.33.052,multiplicationStroop,2021.2.3,Win32,59.94485074,,,,,,,,,,,,,,,,,,,,,,,,,,,,,,,,,42,1.967,1,0,2,2,20,1,7,×,6,7 × 6,neutral,largerFirst,1.5,1.5,42,,,,,,,,
,,,,,,,,,,,,,,,816,2022-01-23_22h28.33.052,multiplicationStroop,2021.2.3,Win32,59.94485074,,,,,,,,,,,,,,,,,,,,,,,,,,,,,,,,,45,2.7006,1,0,3,3,24,1,9,×,5,9 × 5,neutral,largerFirst,1.5,1.5,45,,,,,,,,
,,,,,,,,,,,,,,,816,2022-01-23_22h28.33.052,multiplicationStroop,2021.2.3,Win32,59.94485074,,,,,,,,,,,,,,,,,,,,,,,,,,,,,,,,,54,1.667,1,0,4,4,21,1,9,×,6,9 × 6,neutral,largerFirst,1.5,1.5,54,,,,,,,,
,,,,,,,,,,,,,,,816,2022-01-23_22h28.33.052,multiplicationStroop,2021.2.3,Win32,59.94485074,,,,,,,,,,,,,,,,,,,,,,,,,,,,,,,,,6,1.5665,1,0,5,5,12,1,2,×,3,2 × 3,neutral,smallerFirst,1.5,1.5,6,,,,,,,,
,,,,,,,,,,,,,,,816,2022-01-23_22h28.33.052,multiplicationStroop,2021.2.3,Win32,59.94485074,,,,,,,,,,,,,,,,,,,,,,,,,,,,,,,,,56,2.6504,1,0,6,6,23,1,8,×,7,8 × 7,neutral,largerFirst,1.5,1.5,56,,,,,,,,
,,,,,,,,,,,,,,,816,2022-01-23_22h28.33.052,multiplicationStroop,2021.2.3,Win32,59.94485074,,,,,,,,,,,,,,,,,,,,,,,,,,,,,,,,,4,1.2669,1,0,7,7,28,1,2,×,2,2 × 2,neutral,tie,1.5,1.5,4,,,,,,,,
,,,,,,,,,,,,,,,816,2022-01-23_22h28.33.052,multiplicationStroop,2021.2.3,Win32,59.94485074,,,,,,,,,,,,,,,,,,,,,,,,,,,,,,,,,18,2.2835,1,0,8,8,4,1,2,×,9,2 × 9,neutral,smallerFirst,1.5,1.5,18,,,,,,,,
,,,,,,,,,,,,,,,816,2022-01-23_22h28.33.052,multiplicationStroop,2021.2.3,Win32,59.94485074,,,,,,,,,,,,,,,,,,,,,,,,,,,,,,,,,20,1.5667,1,0,9,9,6,1,4,×,5,4 × 5,neutral,smallerFirst,1.5,1.5,20,,,,,,,,
,,,,,,,,,,,,,,,816,2022-01-23_22h28.33.052,multiplicationStroop,2021.2.3,Win32,59.94485074,,,,,,,,,,,,,,,,,,,,,,,,,,,,,,,,,35,1.9836,1,0,10,10,15,1,7,×,5,7 × 5,neutral,largerFirst,1.5,1.5,35,,,,,,,,
,,,,,,,,,,,,,,,816,2022-01-23_22h28.33.052,multiplicationStroop,2021.2.3,Win32,59.94485074,,,,,,,,,,,,,,,,,,,,,,,,,,,,,,,,,48,2.317,1,0,11,11,1,1,6,×,8,6 × 8,neutral,smallerFirst,1.5,1.5,48,,,,,,,,
,,,,,,,,,,,,,,,816,2022-01-23_22h28.33.052,multiplicationStroop,2021.2.3,Win32,59.94485074,,,,,,,,,,,,,,,,,,,,,,,,,,,,,,,,,14,1.5167,1,0,12,12,2,1,2,×,7,2 × 7,neutral,smallerFirst,1.5,1.5,14,,,,,,,,
,,,,,,,,,,,,,,,816,2022-01-23_22h28.33.052,multiplicationStroop,2021.2.3,Win32,59.94485074,,,,,,,,,,,,,,,,,,,,,,,,,,,,,,,,,28,2.5338,1,0,13,13,3,1,4,×,7,4 × 7,neutral,smallerFirst,1.5,1.5,28,,,,,,,,
,,,,,,,,,,,,,,,816,2022-01-23_22h28.33.052,multiplicationStroop,2021.2.3,Win32,59.94485074,,,,,,,,,,,,,,,,,,,,,,,,,,,,,,,,,12,1.9336,1,0,14,14,11,1,2,×,6,2 × 6,neutral,smallerFirst,1.5,1.5,12,,,,,,,,
,,,,,,,,,,,,,,,816,2022-01-23_22h28.33.052,multiplicationStroop,2021.2.3,Win32,59.94485074,,,,,,,,,,,,,,,,,,,,,,,,,,,,,,,,,21,1.6168,1,0,15,15,22,1,7,×,3,7 × 3,neutral,largerFirst,1.5,1.5,21,,,,,,,,
,,,,,,,,,,,,,,,816,2022-01-23_22h28.33.052,multiplicationStroop,2021.2.3,Win32,59.94485074,,,,,,,,,,,,,,,,,,,,,,,,,,,,,,,,,40,1.9169,1,0,16,16,10,1,5,×,8,5 × 8,neutral,smallerFirst,1.5,1.5,40,,,,,,,,
,,,,,,,,,,,,,,,816,2022-01-23_22h28.33.052,multiplicationStroop,2021.2.3,Win32,59.94485074,,,,,,,,,,,,,,,,,,,,,,,,,,,,,,,,,72,2.9503,1,0,17,17,25,1,9,×,8,9 × 8,neutral,largerFirst,1.5,1.5,72,,,,,,,,
,,,,,,,,,,,,,,,816,2022-01-23_22h28.33.052,multiplicationStroop,2021.2.3,Win32,59.94485074,,,,,,,,,,,,,,,,,,,,,,,,,,,,,,,,,24,1.5168,1,0,18,18,8,1,3,×,8,3 × 8,neutral,smallerFirst,1.5,1.5,24,,,,,,,,
,,,,,,,,,,,,,,,816,2022-01-23_22h28.33.052,multiplicationStroop,2021.2.3,Win32,59.94485074,,,,,,,,,,,,,,,,,,,,,,,,,,,,,,,,,32,2.0671,1,0,19,19,9,1,4,×,8,4 × 8,neutral,smallerFirst,1.5,1.5,32,,,,,,,,
,,,,,,,,,,,,,,,816,2022-01-23_22h28.33.052,multiplicationStroop,2021.2.3,Win32,59.94485074,,,,,,,,,,,,,,,,,,,,,,,,,,,,,,,,,12,1.5499,1,0,20,20,7,1,3,×,4,3 × 4,neutral,smallerFirst,1.5,1.5,12,,,,,,,,
,,,,,,,,,,,,,,,816,2022-01-23_22h28.33.052,multiplicationStroop,2021.2.3,Win32,59.94485074,,,,,,,,,,,,,,,,,,,,,,,,,,,,,,,,,63,1.9837,1,0,21,21,26,1,9,×,7,9 × 7,neutral,largerFirst,1.5,1.5,63,,,,,,,,
,,,,,,,,,,,,,,,816,2022-01-23_22h28.33.052,multiplicationStroop,2021.2.3,Win32,59.94485074,,,,,,,,,,,,,,,,,,,,,,,,,,,,,,,,,64,2.8338,1,0,22,22,34,1,8,×,8,8 × 8,neutral,tie,1.5,1.5,64,,,,,,,,
,,,,,,,,,,,,,,,816,2022-01-23_22h28.33.052,multiplicationStroop,2021.2.3,Win32,59.94485074,,,,,,,,,,,,,,,,,,,,,,,,,,,,,,,,,16,1.8166,1,0,23,23,27,1,8,×,2,8 × 2,neutral,largerFirst,1.5,1.5,16,,,,,,,,
,,,,,,,,,,,,,,,816,2022-01-23_22h28.33.052,multiplicationStroop,2021.2.3,Win32,59.94485074,,,,,,,,,,,,,,,,,,,,,,,,,,,,,,,,,16,1.6502,1,0,24,24,30,1,4,×,4,4 × 4,neutral,tie,1.5,1.5,16,,,,,,,,
,,,,,,,,,,,,,,,816,2022-01-23_22h28.33.052,multiplicationStroop,2021.2.3,Win32,59.94485074,,,,,,,,,,,,,,,,,,,,,,,,,,,,,,,,,36,2.067,1,0,25,25,13,1,4,×,9,4 × 9,neutral,smallerFirst,1.5,1.5,36,,,,,,,,
,,,,,,,,,,,,,,,816,2022-01-23_22h28.33.052,multiplicationStroop,2021.2.3,Win32,59.94485074,,,,,,,,,,,,,,,,,,,,,,,,,,,,,,,,,18,1.7669,1,0,26,26,14,1,6,×,3,6 × 3,neutral,largerFirst,1.5,1.5,18,,,,,,,,
,,,,,,,,,,,,,,,816,2022-01-23_22h28.33.052,multiplicationStroop,2021.2.3,Win32,59.94485074,,,,,,,,,,,,,,,,,,,,,,,,,,,,,,,,,36,1.6167,1,0,27,27,32,1,6,×,6,6 × 6,neutral,tie,1.5,1.5,36,,,,,,,,
,,,,,,,,,,,,,,,816,2022-01-23_22h28.33.052,multiplicationStroop,2021.2.3,Win32,59.94485074,,,,,,,,,,,,,,,,,,,,,,,,,,,,,,,,,27,1.9838,1,0,28,28,0,1,3,×,9,3 × 9,neutral,smallerFirst,1.5,1.5,27,,,,,,,,
,,,,,,,,,,,,,,,816,2022-01-23_22h28.33.052,multiplicationStroop,2021.2.3,Win32,59.94485074,,,,,,,,,,,,,,,,,,,,,,,,,,,,,,,,,81,1.867,1,0,29,29,35,1,9,×,9,9 × 9,neutral,tie,1.5,1.5,81,,,,,,,,
,,,,,,,,,,,,,,,816,2022-01-23_22h28.33.052,multiplicationStroop,2021.2.3,Win32,59.94485074,,,,,,,,,,,,,,,,,,,,,,,,,,,,,,,,,49,1.917,1,0,30,30,33,1,7,×,7,7 × 7,neutral,tie,1.5,1.5,49,,,,,,,,
,,,,,,,,,,,,,,,816,2022-01-23_22h28.33.052,multiplicationStroop,2021.2.3,Win32,59.94485074,,,,,,,,,,,,,,,,,,,,,,,,,,,,,,,,,8,1.6661,1,0,31,31,17,1,4,×,2,4 × 2,neutral,largerFirst,1.5,1.5,8,,,,,,,,
,,,,,,,,,,,,,,,816,2022-01-23_22h28.33.052,multiplicationStroop,2021.2.3,Win32,59.94485074,,,,,,,,,,,,,,,,,,,,,,,,,,,,,,,,,25,1.7339,1,0,32,32,31,1,5,×,5,5 × 5,neutral,tie,1.5,1.5,25,,,,,,,,
,,,,,,,,,,,,,,,816,2022-01-23_22h28.33.052,multiplicationStroop,2021.2.3,Win32,59.94485074,,,,,,,,,,,,,,,,,,,,,,,,,,,,,,,,,24,1.5332,1,0,33,33,16,1,6,×,4,6 × 4,neutral,largerFirst,1.5,1.5,24,,,,,,,,
,,,,,,,,,,,,,,,816,2022-01-23_22h28.33.052,multiplicationStroop,2021.2.3,Win32,59.94485074,,,,,,,,,,,,,,,,,,,,,,,,,,,,,,,,,9,1.4334,1,0,34,34,29,1,3,×,3,3 × 3,neutral,tie,1.5,1.5,9,,,,,,,,
,,,,,,,,,,,,,,,816,2022-01-23_22h28.33.052,multiplicationStroop,2021.2.3,Win32,59.94485074,,,,,,,,,,,,,,,,,,,,,,,,,,,,,,,,,10,1.4334,1,0,35,35,18,1,5,×,2,5 × 2,neutral,largerFirst,1.5,1.5,10,,,,,,,,
,,,,,,,,,,,,,,,816,2022-01-23_22h28.33.052,multiplicationStroop,2021.2.3,Win32,59.94485074,,,,,,,,,,,,,,,,,,,,,,,,,,,,,,,,,,,,,,,,,,,,,,,,,,0,4,4,0,1,stimulusFile/mult_blk1.xlsx,,
,,,,,,,,,,,,,,,816,2022-01-23_22h28.33.052,multiplicationStroop,2021.2.3,Win32,59.94485074,,,,,,,,,,,,,,,,,,,,,,,,,,,,,,,space,0.788,6,1.7834,1,0,0,0,25,1,3,×,2,3 × 2,incongruent,largerFirst,1,2,6,,,,,,,,
,,,,,,,,,,,,,,,816,2022-01-23_22h28.33.052,multiplicationStroop,2021.2.3,Win32,59.94485074,,,,,,,,,,,,,,,,,,,,,,,,,,,,,,,,,12,1.9502,1,0,1,1,5,1,2,×,6,2 × 6,incongruent,smallerFirst,2,1,12,,,,,,,,
,,,,,,,,,,,,,,,816,2022-01-23_22h28.33.052,multiplicationStroop,2021.2.3,Win32,59.94485074,,,,,,,,,,,,,,,,,,,,,,,,,,,,,,,,,64,1.6005,1,0,2,2,34,1,8,×,8,8 × 8,neutral,tie,2,1,64,,,,,,,,
,,,,,,,,,,,,,,,816,2022-01-23_22h28.33.052,multiplicationStroop,2021.2.3,Win32,59.94485074,,,,,,,,,,,,,,,,,,,,,,,,,,,,,,,,,10,2.5,1,0,3,3,7,1,2,×,5,2 × 5,incongruent,smallerFirst,2,1,10,,,,,,,,
,,,,,,,,,,,,,,,816,2022-01-23_22h28.33.052,multiplicationStroop,2021.2.3,Win32,59.94485074,,,,,,,,,,,,,,,,,,,,,,,,,,,,,,,,,24,1.6196,1,0,4,4,6,1,4,×,6,4 × 6,incongruent,smallerFirst,2,1,24,,,,,,,,
,,,,,,,,,,,,,,,816,2022-01-23_22h28.33.052,multiplicationStroop,2021.2.3,Win32,59.94485074,,,,,,,,,,,,,,,,,,,,,,,,,,,,,,,,,35,1.5834,1,0,5,5,26,1,7,×,5,7 × 5,incongruent,largerFirst,1,2,35,,,,,,,,
,,,,,,,,,,,,,,,816,2022-01-23_22h28.33.052,multiplicationStroop,2021.2.3,Win32,59.94485074,,,,,,,,,,,,,,,,,,,,,,,,,,,,,,,,,21,1.7166,1,0,6,6,12,1,3,×,7,3 × 7,incongruent,smallerFirst,2,1,21,,,,,,,,
,,,,,,,,,,,,,,,816,2022-01-23_22h28.33.052,multiplicationStroop,2021.2.3,Win32,59.94485074,,,,,,,,,,,,,,,,,,,,,,,,,,,,,,,,,49,1.9667,1,0,7,7,33,1,7,×,7,7 × 7,neutral,tie,2,1,49,,,,,,,,
,,,,,,,,,,,,,,,816,2022-01-23_22h28.33.052,multiplicationStroop,2021.2.3,Win32,59.94485074,,,,,,,,,,,,,,,,,,,,,,,,,,,,,,,,,25,1.6833,1,0,8,8,31,1,5,×,5,5 × 5,neutral,tie,2,1,25,,,,,,,,
,,,,,,,,,,,,,,,816,2022-01-23_22h28.33.052,multiplicationStroop,2021.2.3,Win32,59.94485074,,,,,,,,,,,,,,,,,,,,,,,,,,,,,,,,,32,2.9842,1,0,9,9,21,1,8,×,4,8 × 4,incongruent,largerFirst,1,2,32,,,,,,,,
,,,,,,,,,,,,,,,816,2022-01-23_22h28.33.052,multiplicationStroop,2021.2.3,Win32,59.94485074,,,,,,,,,,,,,,,,,,,,,,,,,,,,,,,,,14,1.6164,1,0,10,10,18,1,7,×,2,7 × 2,incongruent,largerFirst,1,2,14,,,,,,,,
,,,,,,,,,,,,,,,816,2022-01-23_22h28.33.052,multiplicationStroop,2021.2.3,Win32,59.94485074,,,,,,,,,,,,,,,,,,,,,,,,,,,,,,,,,48,2.1171,1,0,11,11,15,1,8,×,6,8 × 6,incongruent,largerFirst,1,2,48,,,,,,,,
,,,,,,,,,,,,,,,816,2022-01-23_22h28.33.052,multiplicationStroop,2021.2.3,Win32,59.94485074,,,,,,,,,,,,,,,,,,,,,,,,,,,,,,,,,54,2.0338,1,0,12,12,20,1,9,×,6,9 × 6,incongruent,largerFirst,1,2,54,,,,,,,,
,,,,,,,,,,,,,,,816,2022-01-23_22h28.33.052,multiplicationStroop,2021.2.3,Win32,59.94485074,,,,,,,,,,,,,,,,,,,,,,,,,,,,,,,,,56,2.6002,1,0,13,13,0,1,7,×,8,7 × 8,incongruent,smallerFirst,2,1,56,,,,,,,,
,,,,,,,,,,,,,,,816,2022-01-23_22h28.33.052,multiplicationStroop,2021.2.3,Win32,59.94485074,,,,,,,,,,,,,,,,,,,,,,,,,,,,,,,,,81,1.6193,1,0,14,14,35,1,9,×,9,9 × 9,neutral,tie,2,1,81,,,,,,,,
,,,,,,,,,,,,,,,816,2022-01-23_22h28.33.052,multiplicationStroop,2021.2.3,Win32,59.94485074,,,,,,,,,,,,,,,,,,,,,,,,,,,,,,,,,18,1.583,1,0,15,15,22,1,6,×,3,6 × 3,incongruent,largerFirst,1,2,18,,,,,,,,
,,,,,,,,,,,,,,,816,2022-01-23_22h28.33.052,multiplicationStroop,2021.2.3,Win32,59.94485074,,,,,,,,,,,,,,,,,,,,,,,,,,,,,,,,,42,2.684,1,0,16,16,3,1,6,×,7,6 × 7,incongruent,smallerFirst,2,1,42,,,,,,,,
,,,,,,,,,,,,,,,816,2022-01-23_22h28.33.052,multiplicationStroop,2021.2.3,Win32,59.94485074,,,,,,,,,,,,,,,,,,,,,,,,,,,,,,,,,4,1.3193,1,0,17,17,28,1,2,×,2,2 × 2,neutral,tie,2,1,4,,,,,,,,
,,,,,,,,,,,,,,,816,2022-01-23_22h28.33.052,multiplicationStroop,2021.2.3,Win32,59.94485074,,,,,,,,,,,,,,,,,,,,,,,,,,,,,,,,,45,1.967,1,0,18,18,8,1,5,×,9,5 × 9,incongruent,smallerFirst,2,1,45,,,,,,,,
,,,,,,,,,,,,,,,816,2022-01-23_22h28.33.052,multiplicationStroop,2021.2.3,Win32,59.94485074,,,,,,,,,,,,,,,,,,,,,,,,,,,,,,,,,12,1.4333,1,0,19,19,19,1,4,×,3,4 × 3,incongruent,largerFirst,1,2,12,,,,,,,,
,,,,,,,,,,,,,,,816,2022-01-23_22h28.33.052,multiplicationStroop,2021.2.3,Win32,59.94485074,,,,,,,,,,,,,,,,,,,,,,,,,,,,,,,,,27,2.0839,1,0,20,20,4,1,3,×,9,3 × 9,incongruent,smallerFirst,2,1,27,,,,,,,,
,,,,,,,,,,,,,,,816,2022-01-23_22h28.33.052,multiplicationStroop,2021.2.3,Win32,59.94485074,,,,,,,,,,,,,,,,,,,,,,,,,,,,,,,,,63,4.4677,1,0,21,21,17,1,9,×,7,9 × 7,incongruent,largerFirst,1,2,63,,,,,,,,
,,,,,,,,,,,,,,,816,2022-01-23_22h28.33.052,multiplicationStroop,2021.2.3,Win32,59.94485074,,,,,,,,,,,,,,,,,,,,,,,,,,,,,,,,,15,1.4537,1,0,22,22,24,1,5,×,3,5 × 3,incongruent,largerFirst,1,2,15,,,,,,,,
,,,,,,,,,,,,,,,816,2022-01-23_22h28.33.052,multiplicationStroop,2021.2.3,Win32,59.94485074,,,,,,,,,,,,,,,,,,,,,,,,,,,,,,,,,30,1.6333,1,0,23,23,11,1,5,×,6,5 × 6,incongruent,smallerFirst,2,1,30,,,,,,,,
,,,,,,,,,,,,,,,816,2022-01-23_22h28.33.052,multiplicationStroop,2021.2.3,Win32,59.94485074,,,,,,,,,,,,,,,,,,,,,,,,,,,,,,,,,8,1.7665,1,0,24,24,10,1,2,×,4,2 × 4,incongruent,smallerFirst,2,1,8,,,,,,,,
,,,,,,,,,,,,,,,816,2022-01-23_22h28.33.052,multiplicationStroop,2021.2.3,Win32,59.94485074,,,,,,,,,,,,,,,,,,,,,,,,,,,,,,,,,24,1.4166,1,0,25,25,23,1,8,×,3,8 × 3,incongruent,largerFirst,1,2,24,,,,,,,,
,,,,,,,,,,,,,,,816,2022-01-23_22h28.33.052,multiplicationStroop,2021.2.3,Win32,59.94485074,,,,,,,,,,,,,,,,,,,,,,,,,,,,,,,,,16,2.1337,1,0,26,26,9,1,2,×,8,2 × 8,incongruent,smallerFirst,2,1,16,,,,,,,,
,,,,,,,,,,,,,,,816,2022-01-23_22h28.33.052,multiplicationStroop,2021.2.3,Win32,59.94485074,,,,,,,,,,,,,,,,,,,,,,,,,,,,,,,,,28,2.2336,1,0,27,27,2,1,4,×,7,4 × 7,incongruent,smallerFirst,2,1,28,,,,,,,,
,,,,,,,,,,,,,,,816,2022-01-23_22h28.33.052,multiplicationStroop,2021.2.3,Win32,59.94485074,,,,,,,,,,,,,,,,,,,,,,,,,,,,,,,,,40,1.7694,1,0,28,28,27,1,8,×,5,8 × 5,incongruent,largerFirst,1,2,40,,,,,,,,
,,,,,,,,,,,,,,,816,2022-01-23_22h28.33.052,multiplicationStroop,2021.2.3,Win32,59.94485074,,,,,,,,,,,,,,,,,,,,,,,,,,,,,,,,,16,1.5667,1,0,29,29,30,1,4,×,4,4 × 4,neutral,tie,2,1,16,,,,,,,,
,,,,,,,,,,,,,,,816,2022-01-23_22h28.33.052,multiplicationStroop,2021.2.3,Win32,59.94485074,,,,,,,,,,,,,,,,,,,,,,,,,,,,,,,,,72,3.8342,1,0,30,30,14,1,9,×,8,9 × 8,incongruent,largerFirst,1,2,72,,,,,,,,
,,,,,,,,,,,,,,,816,2022-01-23_22h28.33.052,multiplicationStroop,2021.2.3,Win32,59.94485074,,,,,,,,,,,,,,,,,,,,,,,,,,,,,,,,,9,1.4194,1,0,31,31,29,1,3,×,3,3 × 3,neutral,tie,2,1,9,,,,,,,,
,,,,,,,,,,,,,,,816,2022-01-23_22h28.33.052,multiplicationStroop,2021.2.3,Win32,59.94485074,,,,,,,,,,,,,,,,,,,,,,,,,,,,,,,,,20,1.6001,1,0,32,32,13,1,4,×,5,4 × 5,incongruent,smallerFirst,2,1,20,,,,,,,,
,,,,,,,,,,,,,,,816,2022-01-23_22h28.33.052,multiplicationStroop,2021.2.3,Win32,59.94485074,,,,,,,,,,,,,,,,,,,,,,,,,,,,,,,,,36,1.9502,1,0,33,33,32,1,6,×,6,6 × 6,neutral,tie,2,1,36,,,,,,,,
,,,,,,,,,,,,,,,816,2022-01-23_22h28.33.052,multiplicationStroop,2021.2.3,Win32,59.94485074,,,,,,,,,,,,,,,,,,,,,,,,,,,,,,,,,36,1.8502,1,0,34,34,1,1,4,×,9,4 × 9,incongruent,smallerFirst,2,1,36,,,,,,,,
,,,,,,,,,,,,,,,816,2022-01-23_22h28.33.052,multiplicationStroop,2021.2.3,Win32,59.94485074,,,,,,,,,,,,,,,,,,,,,,,,,,,,,,,,,18,1.5167,1,0,35,35,16,1,9,×,2,9 × 2,incongruent,largerFirst,1,2,18,,,,,,,,
,,,,,,,,,,,,,,,816,2022-01-23_22h28.33.052,multiplicationStroop,2021.2.3,Win32,59.94485074,,,,,,,,,,,,,,,,,,,,,,,,,,,,,,,,,,,,,,,,,,,,,,,,,,0,5,5,4,1,stimulusFile/mult_blk5_INcongruent.xlsx,,
,,,,,,,,,,,,,,,816,2022-01-23_22h28.33.052,multiplicationStroop,2021.2.3,Win32,59.94485074,,,,,,,,,,,,,,,,,,,,,,,,,,,,,,,,,,,,,,,,,,,,,,,,,,,,,,,,space,9.3486