welcomeKey_resp.keys,welcomeKey_resp.rt,X Scale,Y Scale,rt_resp_4.keys,rt_resp_4.corr,rt_resp_4.rt,speedtest_2.thisRepN,speedtest_2.thisTrialN,speedtest_2.thisN,speedtest_2.thisIndex,speedtest_2.ran,numberSc,posX,positionLayout,participant,date,expName,psychopyVersion,OS,frameRate,ct_instrresp.keys,ct_instrresp.rt,key_resp_2.keys,key_resp_2.rt,ct_keyResp.keys,ct_keyResp.corr,ct_keyResp.rt,trials.thisRepN,trials.thisTrialN,trials.thisN,trials.thisIndex,trials.ran,leftNo,rightNo,displayProblem,numDistance,leftNo_size,rightNo_size,Dims,keyAnswer,TS_Loop.thisRepN,TS_Loop.thisTrialN,TS_Loop.thisN,TS_Loop.thisIndex,TS_Loop.ran,Condition,ActionInst,instrImage,mltptaskInst_resp.keys,mltptaskInst_resp.rt,continue_resp_2.keys,continue_resp_2.rt,multp_Answer,multi_RT,multiplyCorr,LoopingMultiply.thisRepN,LoopingMultiply.thisTrialN,LoopingMultiply.thisN,LoopingMultiply.thisIndex,LoopingMultiply.ran,factor1,multiplySign,factor2,multliplyProblem,physicalSize,orderOperand,sizeF1,sizeF2,mult_answer,trials_stroop.thisRepN,trials_stroop.thisTrialN,trials_stroop.thisN,trials_stroop.thisIndex,trials_stroop.ran,multiplicationFile,esckey_resp_2.keys,esckey_resp_2.rt
y,19.6767,50.4,49.5,right,1,0.906,0,0,0,9,1,2,200,right,817,2022-01-14_16h30.42.533,multiplicationStroop,2021.2.3,Win32,59.84798612,,,,,,,,,,,,,,,,,,,,,,,,,,,,,,,,,,,,,,,,,,,,,,,,,,,,,,,,,
,,,,left,1,0.4499,0,1,1,6,1,8,-200,left,817,2022-01-14_16h30.42.533,multiplicationStroop,2021.2.3,Win32,59.84798612,,,,,,,,,,,,,,,,,,,,,,,,,,,,,,,,,,,,,,,,,,,,,,,,,,,,,,,,,
,,,,right,1,0.7993,0,2,2,11,1,4,200,right,817,2022-01-14_16h30.42.533,multiplicationStroop,2021.2.3,Win32,59.84798612,,,,,,,,,,,,,,,,,,,,,,,,,,,,,,,,,,,,,,,,,,,,,,,,,,,,,,,,,
,,,,left,1,0.3856,0,3,3,5,1,7,-200,left,817,2022-01-14_16h30.42.533,multiplicationStroop,2021.2.3,Win32,59.84798612,,,,,,,,,,,,,,,,,,,,,,,,,,,,,,,,,,,,,,,,,,,,,,,,,,,,,,,,,
,,,,right,1,0.3193,0,4,4,15,1,9,200,right,817,2022-01-14_16h30.42.533,multiplicationStroop,2021.2.3,Win32,59.84798612,,,,,,,,,,,,,,,,,,,,,,,,,,,,,,,,,,,,,,,,,,,,,,,,,,,,,,,,,
,,,,right,1,0.3959,0,5,5,13,1,7,200,right,817,2022-01-14_16h30.42.533,multiplicationStroop,2021.2.3,Win32,59.84798612,,,,,,,,,,,,,,,,,,,,,,,,,,,,,,,,,,,,,,,,,,,,,,,,,,,,,,,,,
,,,,right,1,0.5271,0,6,6,8,1,1,200,right,817,2022-01-14_16h30.42.533,multiplicationStroop,2021.2.3,Win32,59.84798612,,,,,,,,,,,,,,,,,,,,,,,,,,,,,,,,,,,,,,,,,,,,,,,,,,,,,,,,,
,,,,left,1,0.3902,0,7,7,0,1,1,-200,left,817,2022-01-14_16h30.42.533,multiplicationStroop,2021.2.3,Win32,59.84798612,,,,,,,,,,,,,,,,,,,,,,,,,,,,,,,,,,,,,,,,,,,,,,,,,,,,,,,,,
,,,,right,1,0.3421,0,8,8,10,1,3,200,right,817,2022-01-14_16h30.42.533,multiplicationStroop,2021.2.3,Win32,59.84798612,,,,,,,,,,,,,,,,,,,,,,,,,,,,,,,,,,,,,,,,,,,,,,,,,,,,,,,,,
,,,,left,1,0.3589,0,9,9,1,1,2,-200,left,817,2022-01-14_16h30.42.533,multiplicationStroop,2021.2.3,Win32,59.84798612,,,,,,,,,,,,,,,,,,,,,,,,,,,,,,,,,,,,,,,,,,,,,,,,,,,,,,,,,
,,,,left,1,0.4911,0,10,10,2,1,3,-200,left,817,2022-01-14_16h30.42.533,multiplicationStroop,2021.2.3,Win32,59.84798612,,,,,,,,,,,,,,,,,,,,,,,,,,,,,,,,,,,,,,,,,,,,,,,,,,,,,,,,,
,,,,left,1,0.3365,0,11,11,3,1,4,-200,left,817,2022-01-14_16h30.42.533,multiplicationStroop,2021.2.3,Win32,59.84798612,,,,,,,,,,,,,,,,,,,,,,,,,,,,,,,,,,,,,,,,,,,,,,,,,,,,,,,,,
,,,,left,1,0.3167,0,12,12,7,1,9,-200,left,817,2022-01-14_16h30.42.533,multiplicationStroop,2021.2.3,Win32,59.84798612,,,,,,,,,,,,,,,,,,,,,,,,,,,,,,,,,,,,,,,,,,,,,,,,,,,,,,,,,
,,,,left,1,0.2985,0,13,13,4,1,6,-200,left,817,2022-01-14_16h30.42.533,multiplicationStroop,2021.2.3,Win32,59.84798612,,,,,,,,,,,,,,,,,,,,,,,,,,,,,,,,,,,,,,,,,,,,,,,,,,,,,,,,,
,,,,right,1,0.5847,0,14,14,12,1,6,200,right,817,2022-01-14_16h30.42.533,multiplicationStroop,2021.2.3,Win32,59.84798612,,,,,,,,,,,,,,,,,,,,,,,,,,,,,,,,,,,,,,,,,,,,,,,,,,,,,,,,,
,,,,right,1,0.3825,0,15,15,14,1,8,200,right,817,2022-01-14_16h30.42.533,multiplicationStroop,2021.2.3,Win32,59.84798612,,,,,,,,,,,,,,,,,,,,,,,,,,,,,,,,,,,,,,,,,,,,,,,,,,,,,,,,,
,,,,right,1,0.299,1,0,16,11,1,4,200,right,817,2022-01-14_16h30.42.533,multiplicationStroop,2021.2.3,Win32,59.84798612,,,,,,,,,,,,,,,,,,,,,,,,,,,,,,,,,,,,,,,,,,,,,,,,,,,,,,,,,
,,,,left,1,0.3609,1,1,17,3,1,4,-200,left,817,2022-01-14_16h30.42.533,multiplicationStroop,2021.2.3,Win32,59.84798612,,,,,,,,,,,,,,,,,,,,,,,,,,,,,,,,,,,,,,,,,,,,,,,,,,,,,,,,,
,,,,left,1,0.3704,1,2,18,2,1,3,-200,left,817,2022-01-14_16h30.42.533,multiplicationStroop,2021.2.3,Win32,59.84798612,,,,,,,,,,,,,,,,,,,,,,,,,,,,,,,,,,,,,,,,,,,,,,,,,,,,,,,,,
,,,,right,1,0.349,1,3,19,13,1,7,200,right,817,2022-01-14_16h30.42.533,multiplicationStroop,2021.2.3,Win32,59.84798612,,,,,,,,,,,,,,,,,,,,,,,,,,,,,,,,,,,,,,,,,,,,,,,,,,,,,,,,,
,,,,left,1,0.3317,1,4,20,0,1,1,-200,left,817,2022-01-14_16h30.42.533,multiplicationStroop,2021.2.3,Win32,59.84798612,,,,,,,,,,,,,,,,,,,,,,,,,,,,,,,,,,,,,,,,,,,,,,,,,,,,,,,,,
,,,,right,1,0.3523,1,5,21,10,1,3,200,right,817,2022-01-14_16h30.42.533,multiplicationStroop,2021.2.3,Win32,59.84798612,,,,,,,,,,,,,,,,,,,,,,,,,,,,,,,,,,,,,,,,,,,,,,,,,,,,,,,,,
,,,,right,1,0.4001,1,6,22,12,1,6,200,right,817,2022-01-14_16h30.42.533,multiplicationStroop,2021.2.3,Win32,59.84798612,,,,,,,,,,,,,,,,,,,,,,,,,,,,,,,,,,,,,,,,,,,,,,,,,,,,,,,,,
,,,,left,1,0.3766,1,7,23,7,1,9,-200,left,817,2022-01-14_16h30.42.533,multiplicationStroop,2021.2.3,Win32,59.84798612,,,,,,,,,,,,,,,,,,,,,,,,,,,,,,,,,,,,,,,,,,,,,,,,,,,,,,,,,
,,,,right,1,0.3898,1,8,24,9,1,2,200,right,817,2022-01-14_16h30.42.533,multiplicationStroop,2021.2.3,Win32,59.84798612,,,,,,,,,,,,,,,,,,,,,,,,,,,,,,,,,,,,,,,,,,,,,,,,,,,,,,,,,
,,,,right,1,0.3995,1,9,25,8,1,1,200,right,817,2022-01-14_16h30.42.533,multiplicationStroop,2021.2.3,Win32,59.84798612,,,,,,,,,,,,,,,,,,,,,,,,,,,,,,,,,,,,,,,,,,,,,,,,,,,,,,,,,
,,,,left,1,0.3756,1,10,26,4,1,6,-200,left,817,2022-01-14_16h30.42.533,multiplicationStroop,2021.2.3,Win32,59.84798612,,,,,,,,,,,,,,,,,,,,,,,,,,,,,,,,,,,,,,,,,,,,,,,,,,,,,,,,,
,,,,left,1,0.3806,1,11,27,5,1,7,-200,left,817,2022-01-14_16h30.42.533,multiplicationStroop,2021.2.3,Win32,59.84798612,,,,,,,,,,,,,,,,,,,,,,,,,,,,,,,,,,,,,,,,,,,,,,,,,,,,,,,,,
,,,,right,1,0.3903,1,12,28,15,1,9,200,right,817,2022-01-14_16h30.42.533,multiplicationStroop,2021.2.3,Win32,59.84798612,,,,,,,,,,,,,,,,,,,,,,,,,,,,,,,,,,,,,,,,,,,,,,,,,,,,,,,,,
,,,,right,1,0.352,1,13,29,14,1,8,200,right,817,2022-01-14_16h30.42.533,multiplicationStroop,2021.2.3,Win32,59.84798612,,,,,,,,,,,,,,,,,,,,,,,,,,,,,,,,,,,,,,,,,,,,,,,,,,,,,,,,,
,,,,left,1,0.3798,1,14,30,6,1,8,-200,left,817,2022-01-14_16h30.42.533,multiplicationStroop,2021.2.3,Win32,59.84798612,,,,,,,,,,,,,,,,,,,,,,,,,,,,,,,,,,,,,,,,,,,,,,,,,,,,,,,,,
,,,,left,1,0.3826,1,15,31,1,1,2,-200,left,817,2022-01-14_16h30.42.533,multiplicationStroop,2021.2.3,Win32,59.84798612,,,,,,,,,,,,,,,,,,,,,,,,,,,,,,,,,,,,,,,,,,,,,,,,,,,,,,,,,
,,,,right,1,0.317,2,0,32,11,1,4,200,right,817,2022-01-14_16h30.42.533,multiplicationStroop,2021.2.3,Win32,59.84798612,,,,,,,,,,,,,,,,,,,,,,,,,,,,,,,,,,,,,,,,,,,,,,,,,,,,,,,,,
,,,,left,1,0.3051,2,1,33,4,1,6,-200,left,817,2022-01-14_16h30.42.533,multiplicationStroop,2021.2.3,Win32,59.84798612,,,,,,,,,,,,,,,,,,,,,,,,,,,,,,,,,,,,,,,,,,,,,,,,,,,,,,,,,
,,,,left,1,0.3535,2,2,34,7,1,9,-200,left,817,2022-01-14_16h30.42.533,multiplicationStroop,2021.2.3,Win32,59.84798612,,,,,,,,,,,,,,,,,,,,,,,,,,,,,,,,,,,,,,,,,,,,,,,,,,,,,,,,,
,,,,left,1,0.3164,2,3,35,1,1,2,-200,left,817,2022-01-14_16h30.42.533,multiplicationStroop,2021.2.3,Win32,59.84798612,,,,,,,,,,,,,,,,,,,,,,,,,,,,,,,,,,,,,,,,,,,,,,,,,,,,,,,,,
,,,,left,1,0.3019,2,4,36,2,1,3,-200,left,817,2022-01-14_16h30.42.533,multiplicationStroop,2021.2.3,Win32,59.84798612,,,,,,,,,,,,,,,,,,,,,,,,,,,,,,,,,,,,,,,,,,,,,,,,,,,,,,,,,
,,,,right,1,0.3622,2,5,37,13,1,7,200,right,817,2022-01-14_16h30.42.533,multiplicationStroop,2021.2.3,Win32,59.84798612,,,,,,,,,,,,,,,,,,,,,,,,,,,,,,,,,,,,,,,,,,,,,,,,,,,,,,,,,
,,,,right,1,0.2822,2,6,38,9,1,2,200,right,817,2022-01-14_16h30.42.533,multiplicationStroop,2021.2.3,Win32,59.84798612,,,,,,,,,,,,,,,,,,,,,,,,,,,,,,,,,,,,,,,,,,,,,,,,,,,,,,,,,
,,,,right,1,0.266,2,7,39,10,1,3,200,right,817,2022-01-14_16h30.42.533,multiplicationStroop,2021.2.3,Win32,59.84798612,,,,,,,,,,,,,,,,,,,,,,,,,,,,,,,,,,,,,,,,,,,,,,,,,,,,,,,,,
,,,,right,1,0.2782,2,8,40,14,1,8,200,right,817,2022-01-14_16h30.42.533,multiplicationStroop,2021.2.3,Win32,59.84798612,,,,,,,,,,,,,,,,,,,,,,,,,,,,,,,,,,,,,,,,,,,,,,,,,,,,,,,,,
,,,,right,1,0.294,2,9,41,15,1,9,200,right,817,2022-01-14_16h30.42.533,multiplicationStroop,2021.2.3,Win32,59.84798612,,,,,,,,,,,,,,,,,,,,,,,,,,,,,,,,,,,,,,,,,,,,,,,,,,,,,,,,,
,,,,right,1,0.302,2,10,42,12,1,6,200,right,817,2022-01-14_16h30.42.533,multiplicationStroop,2021.2.3,Win32,59.84798612,,,,,,,,,,,,,,,,,,,,,,,,,,,,,,,,,,,,,,,,,,,,,,,,,,,,,,,,,
,,,,left,1,0.4231,2,11,43,0,1,1,-200,left,817,2022-01-14_16h30.42.533,multiplicationStroop,2021.2.3,Win32,59.84798612,,,,,,,,,,,,,,,,,,,,,,,,,,,,,,,,,,,,,,,,,,,,,,,,,,,,,,,,,
,,,,right,1,0.2445,2,12,44,8,1,1,200,right,817,2022-01-14_16h30.42.533,multiplicationStroop,2021.2.3,Win32,59.84798612,,,,,,,,,,,,,,,,,,,,,,,,,,,,,,,,,,,,,,,,,,,,,,,,,,,,,,,,,
,,,,left,1,0.3124,2,13,45,5,1,7,-200,left,817,2022-01-14_16h30.42.533,multiplicationStroop,2021.2.3,Win32,59.84798612,,,,,,,,,,,,,,,,,,,,,,,,,,,,,,,,,,,,,,,,,,,,,,,,,,,,,,,,,
,,,,left,1,0.4147,2,14,46,6,1,8,-200,left,817,2022-01-14_16h30.42.533,multiplicationStroop,2021.2.3,Win32,59.84798612,,,,,,,,,,,,,,,,,,,,,,,,,,,,,,,,,,,,,,,,,,,,,,,,,,,,,,,,,
,,,,left,1,0.1817,2,15,47,3,1,4,-200,left,817,2022-01-14_16h30.42.533,multiplicationStroop,2021.2.3,Win32,59.84798612,,,,,,,,,,,,,,,,,,,,,,,,,,,,,,,,,,,,,,,,,,,,,,,,,,,,,,,,,
,,,,left,0,0.1415,3,0,48,12,1,6,200,right,817,2022-01-14_16h30.42.533,multiplicationStroop,2021.2.3,Win32,59.84798612,,,,,,,,,,,,,,,,,,,,,,,,,,,,,,,,,,,,,,,,,,,,,,,,,,,,,,,,,
,,,,left,1,0.6278,3,1,49,3,1,4,-200,left,817,2022-01-14_16h30.42.533,multiplicationStroop,2021.2.3,Win32,59.84798612,,,,,,,,,,,,,,,,,,,,,,,,,,,,,,,,,,,,,,,,,,,,,,,,,,,,,,,,,
,,,,left,1,0.3357,3,2,50,4,1,6,-200,left,817,2022-01-14_16h30.42.533,multiplicationStroop,2021.2.3,Win32,59.84798612,,,,,,,,,,,,,,,,,,,,,,,,,,,,,,,,,,,,,,,,,,,,,,,,,,,,,,,,,
,,,,left,1,0.3229,3,3,51,1,1,2,-200,left,817,2022-01-14_16h30.42.533,multiplicationStroop,2021.2.3,Win32,59.84798612,,,,,,,,,,,,,,,,,,,,,,,,,,,,,,,,,,,,,,,,,,,,,,,,,,,,,,,,,
,,,,right,1,0.3344,3,4,52,9,1,2,200,right,817,2022-01-14_16h30.42.533,multiplicationStroop,2021.2.3,Win32,59.84798612,,,,,,,,,,,,,,,,,,,,,,,,,,,,,,,,,,,,,,,,,,,,,,,,,,,,,,,,,
,,,,right,1,0.3031,3,5,53,10,1,3,200,right,817,2022-01-14_16h30.42.533,multiplicationStroop,2021.2.3,Win32,59.84798612,,,,,,,,,,,,,,,,,,,,,,,,,,,,,,,,,,,,,,,,,,,,,,,,,,,,,,,,,
,,,,right,1,0.2826,3,6,54,11,1,4,200,right,817,2022-01-14_16h30.42.533,multiplicationStroop,2021.2.3,Win32,59.84798612,,,,,,,,,,,,,,,,,,,,,,,,,,,,,,,,,,,,,,,,,,,,,,,,,,,,,,,,,
,,,,left,1,0.5241,3,7,55,0,1,1,-200,left,817,2022-01-14_16h30.42.533,multiplicationStroop,2021.2.3,Win32,59.84798612,,,,,,,,,,,,,,,,,,,,,,,,,,,,,,,,,,,,,,,,,,,,,,,,,,,,,,,,,
,,,,left,1,0.3576,3,8,56,7,1,9,-200,left,817,2022-01-14_16h30.42.533,multiplicationStroop,2021.2.3,Win32,59.84798612,,,,,,,,,,,,,,,,,,,,,,,,,,,,,,,,,,,,,,,,,,,,,,,,,,,,,,,,,
,,,,left,1,0.3199,3,9,57,6,1,8,-200,left,817,2022-01-14_16h30.42.533,multiplicationStroop,2021.2.3,Win32,59.84798612,,,,,,,,,,,,,,,,,,,,,,,,,,,,,,,,,,,,,,,,,,,,,,,,,,,,,,,,,
,,,,right,1,0.3486,3,10,58,8,1,1,200,right,817,2022-01-14_16h30.42.533,multiplicationStroop,2021.2.3,Win32,59.84798612,,,,,,,,,,,,,,,,,,,,,,,,,,,,,,,,,,,,,,,,,,,,,,,,,,,,,,,,,
,,,,right,1,0.3312,3,11,59,15,1,9,200,right,817,2022-01-14_16h30.42.533,multiplicationStroop,2021.2.3,Win32,59.84798612,,,,,,,,,,,,,,,,,,,,,,,,,,,,,,,,,,,,,,,,,,,,,,,,,,,,,,,,,
,,,,left,1,0.3749,3,12,60,2,1,3,-200,left,817,2022-01-14_16h30.42.533,multiplicationStroop,2021.2.3,Win32,59.84798612,,,,,,,,,,,,,,,,,,,,,,,,,,,,,,,,,,,,,,,,,,,,,,,,,,,,,,,,,
,,,,left,1,0.3485,3,13,61,5,1,7,-200,left,817,2022-01-14_16h30.42.533,multiplicationStroop,2021.2.3,Win32,59.84798612,,,,,,,,,,,,,,,,,,,,,,,,,,,,,,,,,,,,,,,,,,,,,,,,,,,,,,,,,
,,,,right,1,0.334,3,14,62,13,1,7,200,right,817,2022-01-14_16h30.42.533,multiplicationStroop,2021.2.3,Win32,59.84798612,,,,,,,,,,,,,,,,,,,,,,,,,,,,,,,,,,,,,,,,,,,,,,,,,,,,,,,,,
,,,,right,1,0.326,3,15,63,14,1,8,200,right,817,2022-01-14_16h30.42.533,multiplicationStroop,2021.2.3,Win32,59.84798612,,,,,,,,,,,,,,,,,,,,,,,,,,,,,,,,,,,,,,,,,,,,,,,,,,,,,,,,,
,,,,,,,,,,,,,,,817,2022-01-14_16h30.42.533,multiplicationStroop,2021.2.3,Win32,59.84798612,space,12.1634,space,9.8036,right,1,1.3038,0,0,0,8,1,1,3,1 | 3,2,1.4111,1.9756,congruent,right,,,,,,stimulusFile/magnitude.xlsx,,,,,,,,,,,,,,,,,,,,,,,,,,,,,,,
,,,,,,,,,,,,,,,817,2022-01-14_16h30.42.533,multiplicationStroop,2021.2.3,Win32,59.84798612,,,,,left,1,0.8469,0,1,1,63,1,9,7,9 | 7,2,1.6933,1.6933,neutral,left,,,,,,stimulusFile/magnitude.xlsx,,,,,,,,,,,,,,,,,,,,,,,,,,,,,,,
,,,,,,,,,,,,,,,817,2022-01-14_16h30.42.533,multiplicationStroop,2021.2.3,Win32,59.84798612,,,,,right,1,0.5717,0,2,2,0,1,1,2,1 | 2,1,1.4111,1.9756,congruent,right,,,,,,stimulusFile/magnitude.xlsx,,,,,,,,,,,,,,,,,,,,,,,,,,,,,,,
,,,,,,,,,,,,,,,817,2022-01-14_16h30.42.533,multiplicationStroop,2021.2.3,Win32,59.84798612,,,,,right,1,0.5062,0,3,3,16,1,1,6,1 | 6,5,1.4111,1.9756,congruent,right,,,,,,stimulusFile/magnitude.xlsx,,,,,,,,,,,,,,,,,,,,,,,,,,,,,,,
,,,,,,,,,,,,,,,817,2022-01-14_16h30.42.533,multiplicationStroop,2021.2.3,Win32,59.84798612,,,,,left,1,0.5158,0,4,4,5,1,4,3,4 | 3,1,1.9756,1.4111,congruent,left,,,,,,stimulusFile/magnitude.xlsx,,,,,,,,,,,,,,,,,,,,,,,,,,,,,,,
,,,,,,,,,,,,,,,817,2022-01-14_16h30.42.533,multiplicationStroop,2021.2.3,Win32,59.84798612,,,,,left,0,0.6487,0,5,5,41,1,2,7,2 | 7,5,1.9756,1.4111,incongruent,right,,,,,,stimulusFile/magnitude.xlsx,,,,,,,,,,,,,,,,,,,,,,,,,,,,,,,
,,,,,,,,,,,,,,,817,2022-01-14_16h30.42.533,multiplicationStroop,2021.2.3,Win32,59.84798612,,,,,left,0,0.5216,0,6,6,24,1,1,2,1 | 2,1,1.9756,1.4111,incongruent,right,,,,,,stimulusFile/magnitude.xlsx,,,,,,,,,,,,,,,,,,,,,,,,,,,,,,,
,,,,,,,,,,,,,,,817,2022-01-14_16h30.42.533,multiplicationStroop,2021.2.3,Win32,59.84798612,,,,,left,0,2.1133,0,7,7,58,1,6,8,6 | 8,2,1.6933,1.6933,neutral,right,,,,,,stimulusFile/magnitude.xlsx,,,,,,,,,,,,,,,,,,,,,,,,,,,,,,,
,,,,,,,,,,,,,,,817,2022-01-14_16h30.42.533,multiplicationStroop,2021.2.3,Win32,59.84798612,,,,,left,1,0.5492,0,8,8,23,1,9,4,9 | 4,5,1.9756,1.4111,congruent,left,,,,,,stimulusFile/magnitude.xlsx,,,,,,,,,,,,,,,,,,,,,,,,,,,,,,,
,,,,,,,,,,,,,,,817,2022-01-14_16h30.42.533,multiplicationStroop,2021.2.3,Win32,59.84798612,,,,,right,0,0.8409,0,9,9,29,1,4,3,4 | 3,1,1.4111,1.9756,incongruent,left,,,,,,stimulusFile/magnitude.xlsx,,,,,,,,,,,,,,,,,,,,,,,,,,,,,,,
,,,,,,,,,,,,,,,817,2022-01-14_16h30.42.533,multiplicationStroop,2021.2.3,Win32,59.84798612,,,,,right,1,0.4786,0,10,10,18,1,3,8,3 | 8,5,1.4111,1.9756,congruent,right,,,,,,stimulusFile/magnitude.xlsx,,,,,,,,,,,,,,,,,,,,,,,,,,,,,,,
,,,,,,,,,,,,,,,817,2022-01-14_16h30.42.533,multiplicationStroop,2021.2.3,Win32,59.84798612,,,,,right,1,1.3778,0,11,11,51,1,8,9,8 | 9,1,1.6933,1.6933,neutral,right,,,,,,stimulusFile/magnitude.xlsx,,,,,,,,,,,,,,,,,,,,,,,,,,,,,,,
,,,,,,,,,,,,,,,817,2022-01-14_16h30.42.533,multiplicationStroop,2021.2.3,Win32,59.84798612,,,,,right,1,0.7854,0,12,12,9,1,2,4,2 | 4,2,1.4111,1.9756,congruent,right,,,,,,stimulusFile/magnitude.xlsx,,,,,,,,,,,,,,,,,,,,,,,,,,,,,,,
,,,,,,,,,,,,,,,817,2022-01-14_16h30.42.533,multiplicationStroop,2021.2.3,Win32,59.84798612,,,,,right,0,4.3811,0,13,13,54,1,7,6,7 | 6,1,1.6933,1.6933,neutral,left,,,,,,stimulusFile/magnitude.xlsx,,,,,,,,,,,,,,,,,,,,,,,,,,,,,,,
,,,,,,,,,,,,,,,817,2022-01-14_16h30.42.533,multiplicationStroop,2021.2.3,Win32,59.84798612,,,,,left,0,0.9488,0,14,14,32,1,1,3,1 | 3,2,1.9756,1.4111,incongruent,right,,,,,,stimulusFile/magnitude.xlsx,,,,,,,,,,,,,,,,,,,,,,,,,,,,,,,
,,,,,,,,,,,,,,,817,2022-01-14_16h30.42.533,multiplicationStroop,2021.2.3,Win32,59.84798612,,,,,left,0,0.9424,0,15,15,66,1,3,8,3 | 8,5,1.6933,1.6933,neutral,right,,,,,,stimulusFile/magnitude.xlsx,,,,,,,,,,,,,,,,,,,,,,,,,,,,,,,
,,,,,,,,,,,,,,,817,2022-01-14_16h30.42.533,multiplicationStroop,2021.2.3,Win32,59.84798612,,,,,left,1,1.0814,0,16,16,69,1,7,2,7 | 2,5,1.6933,1.6933,neutral,left,,,,,,stimulusFile/magnitude.xlsx,,,,,,,,,,,,,,,,,,,,,,,,,,,,,,,
,,,,,,,,,,,,,,,817,2022-01-14_16h30.42.533,multiplicationStroop,2021.2.3,Win32,59.84798612,,,,,left,1,0.6265,0,17,17,4,1,2,1,2 | 1,1,1.9756,1.4111,congruent,left,,,,,,stimulusFile/magnitude.xlsx,,,,,,,,,,,,,,,,,,,,,,,,,,,,,,,
,,,,,,,,,,,,,,,817,2022-01-14_16h30.42.533,multiplicationStroop,2021.2.3,Win32,59.84798612,,,,,left,1,1.5496,0,18,18,60,1,3,1,3 | 1,2,1.6933,1.6933,neutral,left,,,,,,stimulusFile/magnitude.xlsx,,,,,,,,,,,,,,,,,,,,,,,,,,,,,,,
,,,,,,,,,,,,,,,817,2022-01-14_16h30.42.533,multiplicationStroop,2021.2.3,Win32,59.84798612,,,,,right,0,0.6512,0,19,19,31,1,9,8,9 | 8,1,1.4111,1.9756,incongruent,left,,,,,,stimulusFile/magnitude.xlsx,,,,,,,,,,,,,,,,,,,,,,,,,,,,,,,
,,,,,,,,,,,,,,,817,2022-01-14_16h30.42.533,multiplicationStroop,2021.2.3,Win32,59.84798612,,,,,right,1,0.5377,0,20,20,3,1,8,9,8 | 9,1,1.4111,1.9756,congruent,right,,,,,,stimulusFile/magnitude.xlsx,,,,,,,,,,,,,,,,,,,,,,,,,,,,,,,
,,,,,,,,,,,,,,,817,2022-01-14_16h30.42.533,multiplicationStroop,2021.2.3,Win32,59.84798612,,,,,right,1,1.7068,0,21,21,65,1,2,7,2 | 7,5,1.6933,1.6933,neutral,right,,,,,,stimulusFile/magnitude.xlsx,,,,,,,,,,,,,,,,,,,,,,,,,,,,,,,
,,,,,,,,,,,,,,,817,2022-01-14_16h30.42.533,multiplicationStroop,2021.2.3,Win32,59.84798612,,,,,left,0,0.7181,0,22,22,40,1,1,6,1 | 6,5,1.9756,1.4111,incongruent,right,,,,,,stimulusFile/magnitude.xlsx,,,,,,,,,,,,,,,,,,,,,,,,,,,,,,,
,,,,,,,,,,,,,,,817,2022-01-14_16h30.42.533,multiplicationStroop,2021.2.3,Win32,59.84798612,,,,,right,1,0.5803,0,23,23,17,1,2,7,2 | 7,5,1.4111,1.9756,congruent,right,,,,,,stimulusFile/magnitude.xlsx,,,,,,,,,,,,,,,,,,,,,,,,,,,,,,,
,,,,,,,,,,,,,,,817,2022-01-14_16h30.42.533,multiplicationStroop,2021.2.3,Win32,59.84798612,,,,,right,0,0.8809,0,24,24,44,1,6,1,6 | 1,5,1.4111,1.9756,incongruent,left,,,,,,stimulusFile/magnitude.xlsx,,,,,,,,,,,,,,,,,,,,,,,,,,,,,,,
,,,,,,,,,,,,,,,817,2022-01-14_16h30.42.533,multiplicationStroop,2021.2.3,Win32,59.84798612,,,,,right,0,0.7354,0,25,25,38,1,8,6,8 | 6,2,1.4111,1.9756,incongruent,left,,,,,,stimulusFile/magnitude.xlsx,,,,,,,,,,,,,,,,,,,,,,,,,,,,,,,
,,,,,,,,,,,,,,,817,2022-01-14_16h30.42.533,multiplicationStroop,2021.2.3,Win32,59.84798612,,,,,left,1,0.947,0,26,26,70,1,8,3,8 | 3,5,1.6933,1.6933,neutral,left,,,,,,stimulusFile/magnitude.xlsx,,,,,,,,,,,,,,,,,,,,,,,,,,,,,,,
,,,,,,,,,,,,,,,817,2022-01-14_16h30.42.533,multiplicationStroop,2021.2.3,Win32,59.84798612,,,,,right,1,1.1787,0,27,27,56,1,1,3,1 | 3,2,1.6933,1.6933,neutral,right,,,,,,stimulusFile/magnitude.xlsx,,,,,,,,,,,,,,,,,,,,,,,,,,,,,,,
,,,,,,,,,,,,,,,817,2022-01-14_16h30.42.533,multiplicationStroop,2021.2.3,Win32,59.84798612,,,,,left,0,0.9394,0,28,28,26,1,6,7,6 | 7,1,1.9756,1.4111,incongruent,right,,,,,,stimulusFile/magnitude.xlsx,,,,,,,,,,,,,,,,,,,,,,,,,,,,,,,
,,,,,,,,,,,,,,,817,2022-01-14_16h30.42.533,multiplicationStroop,2021.2.3,Win32,59.84798612,,,,,right,0,0.5418,0,29,29,45,1,7,2,7 | 2,5,1.4111,1.9756,incongruent,left,,,,,,stimulusFile/magnitude.xlsx,,,,,,,,,,,,,,,,,,,,,,,,,,,,,,,
,,,,,,,,,,,,,,,817,2022-01-14_16h30.42.533,multiplicationStroop,2021.2.3,Win32,59.84798612,,,,,right,0,0.6588,0,30,30,36,1,3,1,3 | 1,2,1.4111,1.9756,incongruent,left,,,,,,stimulusFile/magnitude.xlsx,,,,,,,,,,,,,,,,,,,,,,,,,,,,,,,
,,,,,,,,,,,,,,,817,2022-01-14_16h30.42.533,multiplicationStroop,2021.2.3,Win32,59.84798612,,,,,left,1,1.1021,0,31,31,61,1,4,2,4 | 2,2,1.6933,1.6933,neutral,left,,,,,,stimulusFile/magnitude.xlsx,,,,,,,,,,,,,,,,,,,,,,,,,,,,,,,
,,,,,,,,,,,,,,,817,2022-01-14_16h30.42.533,multiplicationStroop,2021.2.3,Win32,59.84798612,,,,,right,0,0.6499,0,32,32,30,1,7,6,7 | 6,1,1.4111,1.9756,incongruent,left,,,,,,stimulusFile/magnitude.xlsx,,,,,,,,,,,,,,,,,,,,,,,,,,,,,,,
,,,,,,,,,,,,,,,817,2022-01-14_16h30.42.533,multiplicationStroop,2021.2.3,Win32,59.84798612,,,,,left,0,0.6335,0,33,33,34,1,6,8,6 | 8,2,1.9756,1.4111,incongruent,right,,,,,,stimulusFile/magnitude.xlsx,,,,,,,,,,,,,,,,,,,,,,,,,,,,,,,
,,,,,,,,,,,,,,,817,2022-01-14_16h30.42.533,multiplicationStroop,2021.2.3,Win32,59.84798612,,,,,left,0,2.4941,0,34,34,59,1,7,9,7 | 9,2,1.6933,1.6933,neutral,right,,,,,,stimulusFile/magnitude.xlsx,,,,,,,,,,,,,,,,,,,,,,,,,,,,,,,
,,,,,,,,,,,,,,,817,2022-01-14_16h30.42.533,multiplicationStroop,2021.2.3,Win32,59.84798612,,,,,left,1,1.5827,0,35,35,52,1,2,1,2 | 1,1,1.6933,1.6933,neutral,left,,,,,,stimulusFile/magnitude.xlsx,,,,,,,,,,,,,,,,,,,,,,,,,,,,,,,
,,,,,,,,,,,,,,,817,2022-01-14_16h30.42.533,multiplicationStroop,2021.2.3,Win32,59.84798612,,,,,left,0,0.5483,0,36,36,33,1,2,4,2 | 4,2,1.9756,1.4111,incongruent,right,,,,,,stimulusFile/magnitude.xlsx,,,,,,,,,,,,,,,,,,,,,,,,,,,,,,,
,,,,,,,,,,,,,,,817,2022-01-14_16h30.42.533,multiplicationStroop,2021.2.3,Win32,59.84798612,,,,,right,0,0.5398,0,37,37,39,1,9,7,9 | 7,2,1.4111,1.9756,incongruent,left,,,,,,stimulusFile/magnitude.xlsx,,,,,,,,,,,,,,,,,,,,,,,,,,,,,,,
,,,,,,,,,,,,,,,817,2022-01-14_16h30.42.533,multiplicationStroop,2021.2.3,Win32,59.84798612,,,,,right,1,0.6239,0,38,38,48,1,1,2,1 | 2,1,1.6933,1.6933,neutral,right,,,,,,stimulusFile/magnitude.xlsx,,,,,,,,,,,,,,,,,,,,,,,,,,,,,,,
,,,,,,,,,,,,,,,817,2022-01-14_16h30.42.533,multiplicationStroop,2021.2.3,Win32,59.84798612,,,,,left,1,0.9151,0,39,39,62,1,8,6,8 | 6,2,1.6933,1.6933,neutral,left,,,,,,stimulusFile/magnitude.xlsx,,,,,,,,,,,,,,,,,,,,,,,,,,,,,,,
,,,,,,,,,,,,,,,817,2022-01-14_16h30.42.533,multiplicationStroop,2021.2.3,Win32,59.84798612,,,,,left,0,1.6552,0,40,40,67,1,4,9,4 | 9,5,1.6933,1.6933,neutral,right,,,,,,stimulusFile/magnitude.xlsx,,,,,,,,,,,,,,,,,,,,,,,,,,,,,,,
,,,,,,,,,,,,,,,817,2022-01-14_16h30.42.533,multiplicationStroop,2021.2.3,Win32,59.84798612,,,,,right,1,0.5807,0,41,41,19,1,4,9,4 | 9,5,1.4111,1.9756,congruent,right,,,,,,stimulusFile/magnitude.xlsx,,,,,,,,,,,,,,,,,,,,,,,,,,,,,,,
,,,,,,,,,,,,,,,817,2022-01-14_16h30.42.533,multiplicationStroop,2021.2.3,Win32,59.84798612,,,,,left,0,0.668,0,42,42,43,1,4,9,4 | 9,5,1.9756,1.4111,incongruent,right,,,,,,stimulusFile/magnitude.xlsx,,,,,,,,,,,,,,,,,,,,,,,,,,,,,,,
,,,,,,,,,,,,,,,817,2022-01-14_16h30.42.533,multiplicationStroop,2021.2.3,Win32,59.84798612,,,,,right,1,0.5385,0,43,43,64,1,1,6,1 | 6,5,1.6933,1.6933,neutral,right,,,,,,stimulusFile/magnitude.xlsx,,,,,,,,,,,,,,,,,,,,,,,,,,,,,,,
,,,,,,,,,,,,,,,817,2022-01-14_16h30.42.533,multiplicationStroop,2021.2.3,Win32,59.84798612,,,,,left,1,0.5565,0,44,44,68,1,6,1,6 | 1,5,1.6933,1.6933,neutral,left,,,,,,stimulusFile/magnitude.xlsx,,,,,,,,,,,,,,,,,,,,,,,,,,,,,,,
,,,,,,,,,,,,,,,817,2022-01-14_16h30.42.533,multiplicationStroop,2021.2.3,Win32,59.84798612,,,,,left,1,1.4206,0,45,45,55,1,9,8,9 | 8,1,1.6933,1.6933,neutral,left,,,,,,stimulusFile/magnitude.xlsx,,,,,,,,,,,,,,,,,,,,,,,,,,,,,,,
,,,,,,,,,,,,,,,817,2022-01-14_16h30.42.533,multiplicationStroop,2021.2.3,Win32,59.84798612,,,,,left,0,0.5602,0,46,46,35,1,7,9,7 | 9,2,1.9756,1.4111,incongruent,right,,,,,,stimulusFile/magnitude.xlsx,,,,,,,,,,,,,,,,,,,,,,,,,,,,,,,
,,,,,,,,,,,,,,,817,2022-01-14_16h30.42.533,multiplicationStroop,2021.2.3,Win32,59.84798612,,,,,left,1,0.5205,0,47,47,20,1,6,1,6 | 1,5,1.9756,1.4111,congruent,left,,,,,,stimulusFile/magnitude.xlsx,,,,,,,,,,,,,,,,,,,,,,,,,,,,,,,
,,,,,,,,,,,,,,,817,2022-01-14_16h30.42.533,multiplicationStroop,2021.2.3,Win32,59.84798612,,,,,right,1,0.5433,0,48,48,11,1,7,9,7 | 9,2,1.4111,1.9756,congruent,right,,,,,,stimulusFile/magnitude.xlsx,,,,,,,,,,,,,,,,,,,,,,,,,,,,,,,
,,,,,,,,,,,,,,,817,2022-01-14_16h30.42.533,multiplicationStroop,2021.2.3,Win32,59.84798612,,,,,left,1,2.4424,0,49,49,71,1,9,4,9 | 4,5,1.6933,1.6933,neutral,left,,,,,,stimulusFile/magnitude.xlsx,,,,,,,,,,,,,,,,,,,,,,,,,,,,,,,
,,,,,,,,,,,,,,,817,2022-01-14_16h30.42.533,multiplicationStroop,2021.2.3,Win32,59.84798612,,,,,left,1,0.5249,0,50,50,12,1,3,1,3 | 1,2,1.9756,1.4111,congruent,left,,,,,,stimulusFile/magnitude.xlsx,,,,,,,,,,,,,,,,,,,,,,,,,,,,,,,
,,,,,,,,,,,,,,,817,2022-01-14_16h30.42.533,multiplicationStroop,2021.2.3,Win32,59.84798612,,,,,left,1,0.4867,0,51,51,13,1,4,2,4 | 2,2,1.9756,1.4111,congruent,left,,,,,,stimulusFile/magnitude.xlsx,,,,,,,,,,,,,,,,,,,,,,,,,,,,,,,
,,,,,,,,,,,,,,,817,2022-01-14_16h30.42.533,multiplicationStroop,2021.2.3,Win32,59.84798612,,,,,right,1,0.5867,0,52,52,2,1,6,7,6 | 7,1,1.4111,1.9756,congruent,right,,,,,,stimulusFile/magnitude.xlsx,,,,,,,,,,,,,,,,,,,,,,,,,,,,,,,
,,,,,,,,,,,,,,,817,2022-01-14_16h30.42.533,multiplicationStroop,2021.2.3,Win32,59.84798612,,,,,left,1,1.1557,0,53,53,53,1,4,3,4 | 3,1,1.6933,1.6933,neutral,left,,,,,,stimulusFile/magnitude.xlsx,,,,,,,,,,,,,,,,,,,,,,,,,,,,,,,
,,,,,,,,,,,,,,,817,2022-01-14_16h30.42.533,multiplicationStroop,2021.2.3,Win32,59.84798612,,,,,right,0,0.6844,0,54,54,37,1,4,2,4 | 2,2,1.4111,1.9756,incongruent,left,,,,,,stimulusFile/magnitude.xlsx,,,,,,,,,,,,,,,,,,,,,,,,,,,,,,,
,,,,,,,,,,,,,,,817,2022-01-14_16h30.42.533,multiplicationStroop,2021.2.3,Win32,59.84798612,,,,,left,1,0.54,0,55,55,7,1,9,8,9 | 8,1,1.9756,1.4111,congruent,left,,,,,,stimulusFile/magnitude.xlsx,,,,,,,,,,,,,,,,,,,,,,,,,,,,,,,
,,,,,,,,,,,,,,,817,2022-01-14_16h30.42.533,multiplicationStroop,2021.2.3,Win32,59.84798612,,,,,left,0,2.1447,0,56,56,57,1,2,4,2 | 4,2,1.6933,1.6933,neutral,right,,,,,,stimulusFile/magnitude.xlsx,,,,,,,,,,,,,,,,,,,,,,,,,,,,,,,
,,,,,,,,,,,,,,,817,2022-01-14_16h30.42.533,multiplicationStroop,2021.2.3,Win32,59.84798612,,,,,left,0,0.5473,0,57,57,42,1,3,8,3 | 8,5,1.9756,1.4111,incongruent,right,,,,,,stimulusFile/magnitude.xlsx,,,,,,,,,,,,,,,,,,,,,,,,,,,,,,,
,,,,,,,,,,,,,,,817,2022-01-14_16h30.42.533,multiplicationStroop,2021.2.3,Win32,59.84798612,,,,,left,0,0.4731,0,58,58,27,1,8,9,8 | 9,1,1.9756,1.4111,incongruent,right,,,,,,stimulusFile/magnitude.xlsx,,,,,,,,,,,,,,,,,,,,,,,,,,,,,,,
,,,,,,,,,,,,,,,817,2022-01-14_16h30.42.533,multiplicationStroop,2021.2.3,Win32,59.84798612,,,,,right,0,0.5689,0,59,59,28,1,2,1,2 | 1,1,1.4111,1.9756,incongruent,left,,,,,,stimulusFile/magnitude.xlsx,,,,,,,,,,,,,,,,,,,,,,,,,,,,,,,
,,,,,,,,,,,,,,,817,2022-01-14_16h30.42.533,multiplicationStroop,2021.2.3,Win32,59.84798612,,,,,right,1,0.8911,0,60,60,1,1,3,4,3 | 4,1,1.4111,1.9756,congruent,right,,,,,,stimulusFile/magnitude.xlsx,,,,,,,,,,,,,,,,,,,,,,,,,,,,,,,
,,,,,,,,,,,,,,,817,2022-01-14_16h30.42.533,multiplicationStroop,2021.2.3,Win32,59.84798612,,,,,left,0,2.832,0,61,61,50,1,6,7,6 | 7,1,1.6933,1.6933,neutral,right,,,,,,stimulusFile/magnitude.xlsx,,,,,,,,,,,,,,,,,,,,,,,,,,,,,,,
,,,,,,,,,,,,,,,817,2022-01-14_16h30.42.533,multiplicationStroop,2021.2.3,Win32,59.84798612,,,,,left,1,0.5715,0,62,62,21,1,7,2,7 | 2,5,1.9756,1.4111,congruent,left,,,,,,stimulusFile/magnitude.xlsx,,,,,,,,,,,,,,,,,,,,,,,,,,,,,,,
,,,,,,,,,,,,,,,817,2022-01-14_16h30.42.533,multiplicationStroop,2021.2.3,Win32,59.84798612,,,,,left,0,1.8092,0,63,63,49,1,3,4,3 | 4,1,1.6933,1.6933,neutral,right,,,,,,stimulusFile/magnitude.xlsx,,,,,,,,,,,,,,,,,,,,,,,,,,,,,,,
,,,,,,,,,,,,,,,817,2022-01-14_16h30.42.533,multiplicationStroop,2021.2.3,Win32,59.84798612,,,,,left,0,0.483,0,64,64,25,1,3,4,3 | 4,1,1.9756,1.4111,incongruent,right,,,,,,stimulusFile/magnitude.xlsx,,,,,,,,,,,,,,,,,,,,,,,,,,,,,,,
,,,,,,,,,,,,,,,817,2022-01-14_16h30.42.533,multiplicationStroop,2021.2.3,Win32,59.84798612,,,,,right,1,0.5719,0,65,65,10,1,6,8,6 | 8,2,1.4111,1.9756,congruent,right,,,,,,stimulusFile/magnitude.xlsx,,,,,,,,,,,,,,,,,,,,,,,,,,,,,,,
,,,,,,,,,,,,,,,817,2022-01-14_16h30.42.533,multiplicationStroop,2021.2.3,Win32,59.84798612,,,,,right,0,0.6246,0,66,66,47,1,9,4,9 | 4,5,1.4111,1.9756,incongruent,left,,,,,,stimulusFile/magnitude.xlsx,,,,,,,,,,,,,,,,,,,,,,,,,,,,,,,
,,,,,,,,,,,,,,,817,2022-01-14_16h30.42.533,multiplicationStroop,2021.2.3,Win32,59.84798612,,,,,right,0,0.6039,0,67,67,46,1,8,3,8 | 3,5,1.4111,1.9756,incongruent,left,,,,,,stimulusFile/magnitude.xlsx,,,,,,,,,,,,,,,,,,,,,,,,,,,,,,,
,,,,,,,,,,,,,,,817,2022-01-14_16h30.42.533,multiplicationStroop,2021.2.3,Win32,59.84798612,,,,,left,1,0.5425,0,68,68,22,1,8,3,8 | 3,5,1.9756,1.4111,congruent,left,,,,,,stimulusFile/magnitude.xlsx,,,,,,,,,,,,,,,,,,,,,,,,,,,,,,,
,,,,,,,,,,,,,,,817,2022-01-14_16h30.42.533,multiplicationStroop,2021.2.3,Win32,59.84798612,,,,,left,1,0.4972,0,69,69,6,1,7,6,7 | 6,1,1.9756,1.4111,congruent,left,,,,,,stimulusFile/magnitude.xlsx,,,,,,,,,,,,,,,,,,,,,,,,,,,,,,,
,,,,,,,,,,,,,,,817,2022-01-14_16h30.42.533,multiplicationStroop,2021.2.3,Win32,59.84798612,,,,,left,1,0.5688,0,70,70,15,1,9,7,9 | 7,2,1.9756,1.4111,congruent,left,,,,,,stimulusFile/magnitude.xlsx,,,,,,,,,,,,,,,,,,,,,,,,,,,,,,,
,,,,,,,,,,,,,,,817,2022-01-14_16h30.42.533,multiplicationStroop,2021.2.3,Win32,59.84798612,,,,,left,1,0.4605,0,71,71,14,1,8,6,8 | 6,2,1.9756,1.4111,congruent,left,,,,,,stimulusFile/magnitude.xlsx,,,,,,,,,,,,,,,,,,,,,,,,,,,,,,,
,,,,,,,,,,,,,,,817,2022-01-14_16h30.42.533,multiplicationStroop,2021.2.3,Win32,59.84798612,,,,,,,,,,,,,,,,,,,,,0,0,0,0,1,stimulusFile/magnitude.xlsx,NUMERICALLY larger (larger coefficient).,images/numericallyLarger.png,,,,,,,,,,,,,,,,,,,,,,,,,,,,,
,,,,,,,,,,,,,,,817,2022-01-14_16h30.42.533,multiplicationStroop,2021.2.3,Win32,59.84798612,space,22.2752,space,5.3286,right,0,0.6824,0,0,0,71,1,9,9,9 | 9,0,1.4111,1.9756,neutral,left,,,,,,stimulusFile/physical.xlsx,,,,,,,,,,,,,,,,,,,,,,,,,,,,,,,
,,,,,,,,,,,,,,,817,2022-01-14_16h30.42.533,multiplicationStroop,2021.2.3,Win32,59.84798612,,,,,right,1,0.3732,0,1,1,63,1,9,9,9 | 9,0,1.4111,1.9756,neutral,right,,,,,,stimulusFile/physical.xlsx,,,,,,,,,,,,,,,,,,,,,,,,,,,,,,,
,,,,,,,,,,,,,,,817,2022-01-14_16h30.42.533,multiplicationStroop,2021.2.3,Win32,59.84798612,,,,,right,1,0.7247,0,2,2,10,1,6,8,6 | 8,2,1.4111,1.9756,congruent,right,,,,,,stimulusFile/physical.xlsx,,,,,,,,,,,,,,,,,,,,,,,,,,,,,,,
,,,,,,,,,,,,,,,817,2022-01-14_16h30.42.533,multiplicationStroop,2021.2.3,Win32,59.84798612,,,,,right,1,0.4209,0,3,3,59,1,7,7,7 | 7,0,1.4111,1.9756,neutral,right,,,,,,stimulusFile/physical.xlsx,,,,,,,,,,,,,,,,,,,,,,,,,,,,,,,
,,,,,,,,,,,,,,,817,2022-01-14_16h30.42.533,multiplicationStroop,2021.2.3,Win32,59.84798612,,,,,right,1,0.832,0,4,4,28,1,2,1,2 | 1,1,1.4111,1.9756,incongruent,right,,,,,,stimulusFile/physical.xlsx,,,,,,,,,,,,,,,,,,,,,,,,,,,,,,,
,,,,,,,,,,,,,,,817,2022-01-14_16h30.42.533,multiplicationStroop,2021.2.3,Win32,59.84798612,,,,,right,1,0.4723,0,5,5,11,1,7,9,7 | 9,2,1.4111,1.9756,congruent,right,,,,,,stimulusFile/physical.xlsx,,,,,,,,,,,,,,,,,,,,,,,,,,,,,,,
,,,,,,,,,,,,,,,817,2022-01-14_16h30.42.533,multiplicationStroop,2021.2.3,Win32,59.84798612,,,,,right,0,0.9539,0,6,6,69,1,7,7,7 | 7,0,1.4111,1.9756,neutral,left,,,,,,stimulusFile/physical.xlsx,,,,,,,,,,,,,,,,,,,,,,,,,,,,,,,
,,,,,,,,,,,,,,,817,2022-01-14_16h30.42.533,multiplicationStroop,2021.2.3,Win32,59.84798612,,,,,left,1,0.5141,0,7,7,54,1,7,7,7 | 7,0,1.9756,1.4111,neutral,left,,,,,,stimulusFile/physical.xlsx,,,,,,,,,,,,,,,,,,,,,,,,,,,,,,,
,,,,,,,,,,,,,,,817,2022-01-14_16h30.42.533,multiplicationStroop,2021.2.3,Win32,59.84798612,,,,,right,1,0.4689,0,8,8,65,1,2,2,2 | 2,0,1.4111,1.9756,neutral,right,,,,,,stimulusFile/physical.xlsx,,,,,,,,,,,,,,,,,,,,,,,,,,,,,,,
,,,,,,,,,,,,,,,817,2022-01-14_16h30.42.533,multiplicationStroop,2021.2.3,Win32,59.84798612,,,,,left,1,0.3899,0,9,9,70,1,8,8,8 | 8,0,1.9756,1.4111,neutral,left,,,,,,stimulusFile/physical.xlsx,,,,,,,,,,,,,,,,,,,,,,,,,,,,,,,
,,,,,,,,,,,,,,,817,2022-01-14_16h30.42.533,multiplicationStroop,2021.2.3,Win32,59.84798612,,,,,left,1,0.4976,0,10,10,15,1,9,7,9 | 7,2,1.9756,1.4111,congruent,left,,,,,,stimulusFile/physical.xlsx,,,,,,,,,,,,,,,,,,,,,,,,,,,,,,,
,,,,,,,,,,,,,,,817,2022-01-14_16h30.42.533,multiplicationStroop,2021.2.3,Win32,59.84798612,,,,,left,1,0.3824,0,11,11,23,1,9,4,9 | 4,5,1.9756,1.4111,congruent,left,,,,,,stimulusFile/physical.xlsx,,,,,,,,,,,,,,,,,,,,,,,,,,,,,,,
,,,,,,,,,,,,,,,817,2022-01-14_16h30.42.533,multiplicationStroop,2021.2.3,Win32,59.84798612,,,,,right,1,0.4681,0,12,12,30,1,7,6,7 | 6,1,1.4111,1.9756,incongruent,right,,,,,,stimulusFile/physical.xlsx,,,,,,,,,,,,,,,,,,,,,,,,,,,,,,,
,,,,,,,,,,,,,,,817,2022-01-14_16h30.42.533,multiplicationStroop,2021.2.3,Win32,59.84798612,,,,,right,1,0.5473,0,13,13,47,1,9,4,9 | 4,5,1.4111,1.9756,incongruent,right,,,,,,stimulusFile/physical.xlsx,,,,,,,,,,,,,,,,,,,,,,,,,,,,,,,
,,,,,,,,,,,,,,,817,2022-01-14_16h30.42.533,multiplicationStroop,2021.2.3,Win32,59.84798612,,,,,left,1,0.5026,0,14,14,22,1,8,3,8 | 3,5,1.9756,1.4111,congruent,left,,,,,,stimulusFile/physical.xlsx,,,,,,,,,,,,,,,,,,,,,,,,,,,,,,,
,,,,,,,,,,,,,,,817,2022-01-14_16h30.42.533,multiplicationStroop,2021.2.3,Win32,59.84798612,,,,,left,1,0.6157,0,15,15,7,1,9,8,9 | 8,1,1.9756,1.4111,congruent,left,,,,,,stimulusFile/physical.xlsx,,,,,,,,,,,,,,,,,,,,,,,,,,,,,,,
,,,,,,,,,,,,,,,817,2022-01-14_16h30.42.533,multiplicationStroop,2021.2.3,Win32,59.84798612,,,,,right,1,0.4809,0,16,16,58,1,6,6,6 | 6,0,1.4111,1.9756,neutral,right,,,,,,stimulusFile/physical.xlsx,,,,,,,,,,,,,,,,,,,,,,,,,,,,,,,
,,,,,,,,,,,,,,,817,2022-01-14_16h30.42.533,multiplicationStroop,2021.2.3,Win32,59.84798612,,,,,right,1,0.5829,0,17,17,44,1,6,1,6 | 1,5,1.4111,1.9756,incongruent,right,,,,,,stimulusFile/physical.xlsx,,,,,,,,,,,,,,,,,,,,,,,,,,,,,,,
,,,,,,,,,,,,,,,817,2022-01-14_16h30.42.533,multiplicationStroop,2021.2.3,Win32,59.84798612,,,,,left,1,0.4169,0,18,18,49,1,3,3,3 | 3,0,1.9756,1.4111,neutral,left,,,,,,stimulusFile/physical.xlsx,,,,,,,,,,,,,,,,,,,,,,,,,,,,,,,
,,,,,,,,,,,,,,,817,2022-01-14_16h30.42.533,multiplicationStroop,2021.2.3,Win32,59.84798612,,,,,right,1,0.4495,0,19,19,60,1,3,3,3 | 3,0,1.4111,1.9756,neutral,right,,,,,,stimulusFile/physical.xlsx,,,,,,,,,,,,,,,,,,,,,,,,,,,,,,,
,,,,,,,,,,,,,,,817,2022-01-14_16h30.42.533,multiplicationStroop,2021.2.3,Win32,59.84798612,,,,,left,1,0.3406,0,20,20,34,1,6,8,6 | 8,2,1.9756,1.4111,incongruent,left,,,,,,stimulusFile/physical.xlsx,,,,,,,,,,,,,,,,,,,,,,,,,,,,,,,
,,,,,,,,,,,,,,,817,2022-01-14_16h30.42.533,multiplicationStroop,2021.2.3,Win32,59.84798612,,,,,right,1,0.3562,0,21,21,61,1,4,4,4 | 4,0,1.4111,1.9756,neutral,right,,,,,,stimulusFile/physical.xlsx,,,,,,,,,,,,,,,,,,,,,,,,,,,,,,,
,,,,,,,,,,,,,,,817,2022-01-14_16h30.42.533,multiplicationStroop,2021.2.3,Win32,59.84798612,,,,,left,1,0.3516,0,22,22,6,1,7,6,7 | 6,1,1.9756,1.4111,congruent,left,,,,,,stimulusFile/physical.xlsx,,,,,,,,,,,,,,,,,,,,,,,,,,,,,,,
,,,,,,,,,,,,,,,817,2022-01-14_16h30.42.533,multiplicationStroop,2021.2.3,Win32,59.84798612,,,,,right,1,0.329,0,23,23,31,1,9,8,9 | 8,1,1.4111,1.9756,incongruent,right,,,,,,stimulusFile/physical.xlsx,,,,,,,,,,,,,,,,,,,,,,,,,,,,,,,
,,,,,,,,,,,,,,,817,2022-01-14_16h30.42.533,multiplicationStroop,2021.2.3,Win32,59.84798612,,,,,left,1,0.4831,0,24,24,48,1,1,1,1 | 1,0,1.9756,1.4111,neutral,left,,,,,,stimulusFile/physical.xlsx,,,,,,,,,,,,,,,,,,,,,,,,,,,,,,,
,,,,,,,,,,,,,,,817,2022-01-14_16h30.42.533,multiplicationStroop,2021.2.3,Win32,59.84798612,,,,,right,1,0.3366,0,25,25,18,1,3,8,3 | 8,5,1.4111,1.9756,congruent,right,,,,,,stimulusFile/physical.xlsx,,,,,,,,,,,,,,,,,,,,,,,,,,,,,,,
,,,,,,,,,,,,,,,817,2022-01-14_16h30.42.533,multiplicationStroop,2021.2.3,Win32,59.84798612,,,,,right,1,0.6175,0,26,26,46,1,8,3,8 | 3,5,1.4111,1.9756,incongruent,right,,,,,,stimulusFile/physical.xlsx,,,,,,,,,,,,,,,,,,,,,,,,,,,,,,,
,,,,,,,,,,,,,,,817,2022-01-14_16h30.42.533,multiplicationStroop,2021.2.3,Win32,59.84798612,,,,,left,1,0.5276,0,27,27,25,1,3,4,3 | 4,1,1.9756,1.4111,incongruent,left,,,,,,stimulusFile/physical.xlsx,,,,,,,,,,,,,,,,,,,,,,,,,,,,,,,
,,,,,,,,,,,,,,,817,2022-01-14_16h30.42.533,multiplicationStroop,2021.2.3,Win32,59.84798612,,,,,left,1,0.572,0,28,28,21,1,7,2,7 | 2,5,1.9756,1.4111,congruent,left,,,,,,stimulusFile/physical.xlsx,,,,,,,,,,,,,,,,,,,,,,,,,,,,,,,
,,,,,,,,,,,,,,,817,2022-01-14_16h30.42.533,multiplicationStroop,2021.2.3,Win32,59.84798612,,,,,left,1,0.5484,0,29,29,5,1,4,3,4 | 3,1,1.9756,1.4111,congruent,left,,,,,,stimulusFile/physical.xlsx,,,,,,,,,,,,,,,,,,,,,,,,,,,,,,,
,,,,,,,,,,,,,,,817,2022-01-14_16h30.42.533,multiplicationStroop,2021.2.3,Win32,59.84798612,,,,,left,1,0.5175,0,30,30,55,1,9,9,9 | 9,0,1.9756,1.4111,neutral,left,,,,,,stimulusFile/physical.xlsx,,,,,,,,,,,,,,,,,,,,,,,,,,,,,,,
,,,,,,,,,,,,,,,817,2022-01-14_16h30.42.533,multiplicationStroop,2021.2.3,Win32,59.84798612,,,,,left,1,0.684,0,31,31,43,1,4,9,4 | 9,5,1.9756,1.4111,incongruent,left,,,,,,stimulusFile/physical.xlsx,,,,,,,,,,,,,,,,,,,,,,,,,,,,,,,
,,,,,,,,,,,,,,,817,2022-01-14_16h30.42.533,multiplicationStroop,2021.2.3,Win32,59.84798612,,,,,left,1,0.3826,0,32,32,27,1,8,9,8 | 9,1,1.9756,1.4111,incongruent,left,,,,,,stimulusFile/physical.xlsx,,,,,,,,,,,,,,,,,,,,,,,,,,,,,,,
,,,,,,,,,,,,,,,817,2022-01-14_16h30.42.533,multiplicationStroop,2021.2.3,Win32,59.84798612,,,,,left,1,0.3997,0,33,33,40,1,1,6,1 | 6,5,1.9756,1.4111,incongruent,left,,,,,,stimulusFile/physical.xlsx,,,,,,,,,,,,,,,,,,,,,,,,,,,,,,,
,,,,,,,,,,,,,,,817,2022-01-14_16h30.42.533,multiplicationStroop,2021.2.3,Win32,59.84798612,,,,,left,1,0.477,0,34,34,13,1,4,2,4 | 2,2,1.9756,1.4111,congruent,left,,,,,,stimulusFile/physical.xlsx,,,,,,,,,,,,,,,,,,,,,,,,,,,,,,,
,,,,,,,,,,,,,,,817,2022-01-14_16h30.42.533,multiplicationStroop,2021.2.3,Win32,59.84798612,,,,,left,1,0.3635,0,35,35,33,1,2,4,2 | 4,2,1.9756,1.4111,incongruent,left,,,,,,stimulusFile/physical.xlsx,,,,,,,,,,,,,,,,,,,,,,,,,,,,,,,
,,,,,,,,,,,,,,,817,2022-01-14_16h30.42.533,multiplicationStroop,2021.2.3,Win32,59.84798612,,,,,left,1,0.354,0,36,36,52,1,2,2,2 | 2,0,1.9756,1.4111,neutral,left,,,,,,stimulusFile/physical.xlsx,,,,,,,,,,,,,,,,,,,,,,,,,,,,,,,
,,,,,,,,,,,,,,,817,2022-01-14_16h30.42.533,multiplicationStroop,2021.2.3,Win32,59.84798612,,,,,right,1,0.7138,0,37,37,56,1,1,1,1 | 1,0,1.4111,1.9756,neutral,right,,,,,,stimulusFile/physical.xlsx,,,,,,,,,,,,,,,,,,,,,,,,,,,,,,,
,,,,,,,,,,,,,,,817,2022-01-14_16h30.42.533,multiplicationStroop,2021.2.3,Win32,59.84798612,,,,,right,1,0.5019,0,38,38,29,1,4,3,4 | 3,1,1.4111,1.9756,incongruent,right,,,,,,stimulusFile/physical.xlsx,,,,,,,,,,,,,,,,,,,,,,,,,,,,,,,
,,,,,,,,,,,,,,,817,2022-01-14_16h30.42.533,multiplicationStroop,2021.2.3,Win32,59.84798612,,,,,right,1,0.4636,0,39,39,62,1,8,8,8 | 8,0,1.4111,1.9756,neutral,right,,,,,,stimulusFile/physical.xlsx,,,,,,,,,,,,,,,,,,,,,,,,,,,,,,,
,,,,,,,,,,,,,,,817,2022-01-14_16h30.42.533,multiplicationStroop,2021.2.3,Win32,59.84798612,,,,,left,1,0.5409,0,40,40,26,1,6,7,6 | 7,1,1.9756,1.4111,incongruent,left,,,,,,stimulusFile/physical.xlsx,,,,,,,,,,,,,,,,,,,,,,,,,,,,,,,
,,,,,,,,,,,,,,,817,2022-01-14_16h30.42.533,multiplicationStroop,2021.2.3,Win32,59.84798612,,,,,right,1,0.5177,0,41,41,38,1,8,6,8 | 6,2,1.4111,1.9756,incongruent,right,,,,,,stimulusFile/physical.xlsx,,,,,,,,,,,,,,,,,,,,,,,,,,,,,,,
,,,,,,,,,,,,,,,817,2022-01-14_16h30.42.533,multiplicationStroop,2021.2.3,Win32,59.84798612,,,,,left,1,0.4906,0,42,42,24,1,1,2,1 | 2,1,1.9756,1.4111,incongruent,left,,,,,,stimulusFile/physical.xlsx,,,,,,,,,,,,,,,,,,,,,,,,,,,,,,,
,,,,,,,,,,,,,,,817,2022-01-14_16h30.42.533,multiplicationStroop,2021.2.3,Win32,59.84798612,,,,,left,1,0.47,0,43,43,32,1,1,3,1 | 3,2,1.9756,1.4111,incongruent,left,,,,,,stimulusFile/physical.xlsx,,,,,,,,,,,,,,,,,,,,,,,,,,,,,,,
,,,,,,,,,,,,,,,817,2022-01-14_16h30.42.533,multiplicationStroop,2021.2.3,Win32,59.84798612,,,,,left,1,0.4984,0,44,44,20,1,6,1,6 | 1,5,1.9756,1.4111,congruent,left,,,,,,stimulusFile/physical.xlsx,,,,,,,,,,,,,,,,,,,,,,,,,,,,,,,
,,,,,,,,,,,,,,,817,2022-01-14_16h30.42.533,multiplicationStroop,2021.2.3,Win32,59.84798612,,,,,right,1,0.5262,0,45,45,19,1,4,9,4 | 9,5,1.4111,1.9756,congruent,right,,,,,,stimulusFile/physical.xlsx,,,,,,,,,,,,,,,,,,,,,,,,,,,,,,,
,,,,,,,,,,,,,,,817,2022-01-14_16h30.42.533,multiplicationStroop,2021.2.3,Win32,59.84798612,,,,,left,1,0.464,0,46,46,35,1,7,9,7 | 9,2,1.9756,1.4111,incongruent,left,,,,,,stimulusFile/physical.xlsx,,,,,,,,,,,,,,,,,,,,,,,,,,,,,,,
,,,,,,,,,,,,,,,817,2022-01-14_16h30.42.533,multiplicationStroop,2021.2.3,Win32,59.84798612,,,,,right,1,0.4093,0,47,47,16,1,1,6,1 | 6,5,1.4111,1.9756,congruent,right,,,,,,stimulusFile/physical.xlsx,,,,,,,,,,,,,,,,,,,,,,,,,,,,,,,
,,,,,,,,,,,,,,,817,2022-01-14_16h30.42.533,multiplicationStroop,2021.2.3,Win32,59.84798612,,,,,left,1,0.3398,0,48,48,68,1,6,6,6 | 6,0,1.9756,1.4111,neutral,left,,,,,,stimulusFile/physical.xlsx,,,,,,,,,,,,,,,,,,,,,,,,,,,,,,,
,,,,,,,,,,,,,,,817,2022-01-14_16h30.42.533,multiplicationStroop,2021.2.3,Win32,59.84798612,,,,,right,1,0.4342,0,49,49,36,1,3,1,3 | 1,2,1.4111,1.9756,incongruent,right,,,,,,stimulusFile/physical.xlsx,,,,,,,,,,,,,,,,,,,,,,,,,,,,,,,
,,,,,,,,,,,,,,,817,2022-01-14_16h30.42.533,multiplicationStroop,2021.2.3,Win32,59.84798612,,,,,left,0,0.3215,0,50,50,66,1,3,3,3 | 3,0,1.9756,1.4111,neutral,right,,,,,,stimulusFile/physical.xlsx,,,,,,,,,,,,,,,,,,,,,,,,,,,,,,,
,,,,,,,,,,,,,,,817,2022-01-14_16h30.42.533,multiplicationStroop,2021.2.3,Win32,59.84798612,,,,,right,1,0.4412,0,51,51,3,1,8,9,8 | 9,1,1.4111,1.9756,congruent,right,,,,,,stimulusFile/physical.xlsx,,,,,,,,,,,,,,,,,,,,,,,,,,,,,,,
,,,,,,,,,,,,,,,817,2022-01-14_16h30.42.533,multiplicationStroop,2021.2.3,Win32,59.84798612,,,,,left,0,0.3403,0,52,52,0,1,1,2,1 | 2,1,1.4111,1.9756,congruent,right,,,,,,stimulusFile/physical.xlsx,,,,,,,,,,,,,,,,,,,,,,,,,,,,,,,
,,,,,,,,,,,,,,,817,2022-01-14_16h30.42.533,multiplicationStroop,2021.2.3,Win32,59.84798612,,,,,left,1,0.7708,0,53,53,51,1,8,8,8 | 8,0,1.9756,1.4111,neutral,left,,,,,,stimulusFile/physical.xlsx,,,,,,,,,,,,,,,,,,,,,,,,,,,,,,,
,,,,,,,,,,,,,,,817,2022-01-14_16h30.42.533,multiplicationStroop,2021.2.3,Win32,59.84798612,,,,,right,1,0.4618,0,54,54,45,1,7,2,7 | 2,5,1.4111,1.9756,incongruent,right,,,,,,stimulusFile/physical.xlsx,,,,,,,,,,,,,,,,,,,,,,,,,,,,,,,
,,,,,,,,,,,,,,,817,2022-01-14_16h30.42.533,multiplicationStroop,2021.2.3,Win32,59.84798612,,,,,right,1,0.5495,0,55,55,9,1,2,4,2 | 4,2,1.4111,1.9756,congruent,right,,,,,,stimulusFile/physical.xlsx,,,,,,,,,,,,,,,,,,,,,,,,,,,,,,,
,,,,,,,,,,,,,,,817,2022-01-14_16h30.42.533,multiplicationStroop,2021.2.3,Win32,59.84798612,,,,,left,1,0.457,0,56,56,4,1,2,1,2 | 1,1,1.9756,1.4111,congruent,left,,,,,,stimulusFile/physical.xlsx,,,,,,,,,,,,,,,,,,,,,,,,,,,,,,,
,,,,,,,,,,,,,,,817,2022-01-14_16h30.42.533,multiplicationStroop,2021.2.3,Win32,59.84798612,,,,,left,1,0.5742,0,57,57,53,1,4,4,4 | 4,0,1.9756,1.4111,neutral,left,,,,,,stimulusFile/physical.xlsx,,,,,,,,,,,,,,,,,,,,,,,,,,,,,,,
,,,,,,,,,,,,,,,817,2022-01-14_16h30.42.533,multiplicationStroop,2021.2.3,Win32,59.84798612,,,,,left,0,0.551,0,58,58,64,1,1,1,1 | 1,0,1.9756,1.4111,neutral,right,,,,,,stimulusFile/physical.xlsx,,,,,,,,,,,,,,,,,,,,,,,,,,,,,,,
,,,,,,,,,,,,,,,817,2022-01-14_16h30.42.533,multiplicationStroop,2021.2.3,Win32,59.84798612,,,,,right,1,0.445,0,59,59,1,1,3,4,3 | 4,1,1.4111,1.9756,congruent,right,,,,,,stimulusFile/physical.xlsx,,,,,,,,,,,,,,,,,,,,,,,,,,,,,,,
,,,,,,,,,,,,,,,817,2022-01-14_16h30.42.533,multiplicationStroop,2021.2.3,Win32,59.84798612,,,,,left,1,0.6641,0,60,60,14,1,8,6,8 | 6,2,1.9756,1.4111,congruent,left,,,,,,stimulusFile/physical.xlsx,,,,,,,,,,,,,,,,,,,,,,,,,,,,,,,
,,,,,,,,,,,,,,,817,2022-01-14_16h30.42.533,multiplicationStroop,2021.2.3,Win32,59.84798612,,,,,right,1,0.4315,0,61,61,8,1,1,3,1 | 3,2,1.4111,1.9756,congruent,right,,,,,,stimulusFile/physical.xlsx,,,,,,,,,,,,,,,,,,,,,,,,,,,,,,,
,,,,,,,,,,,,,,,817,2022-01-14_16h30.42.533,multiplicationStroop,2021.2.3,Win32,59.84798612,,,,,left,1,0.3363,0,62,62,41,1,2,7,2 | 7,5,1.9756,1.4111,incongruent,left,,,,,,stimulusFile/physical.xlsx,,,,,,,,,,,,,,,,,,,,,,,,,,,,,,,
,,,,,,,,,,,,,,,817,2022-01-14_16h30.42.533,multiplicationStroop,2021.2.3,Win32,59.84798612,,,,,left,1,0.5817,0,63,63,42,1,3,8,3 | 8,5,1.9756,1.4111,incongruent,left,,,,,,stimulusFile/physical.xlsx,,,,,,,,,,,,,,,,,,,,,,,,,,,,,,,
,,,,,,,,,,,,,,,817,2022-01-14_16h30.42.533,multiplicationStroop,2021.2.3,Win32,59.84798612,,,,,right,1,0.4025,0,64,64,2,1,6,7,6 | 7,1,1.4111,1.9756,congruent,right,,,,,,stimulusFile/physical.xlsx,,,,,,,,,,,,,,,,,,,,,,,,,,,,,,,
,,,,,,,,,,,,,,,817,2022-01-14_16h30.42.533,multiplicationStroop,2021.2.3,Win32,59.84798612,,,,,left,1,0.4135,0,65,65,50,1,6,6,6 | 6,0,1.9756,1.4111,neutral,left,,,,,,stimulusFile/physical.xlsx,,,,,,,,,,,,,,,,,,,,,,,,,,,,,,,
,,,,,,,,,,,,,,,817,2022-01-14_16h30.42.533,multiplicationStroop,2021.2.3,Win32,59.84798612,,,,,right,0,0.3364,0,66,66,12,1,3,1,3 | 1,2,1.9756,1.4111,congruent,left,,,,,,stimulusFile/physical.xlsx,,,,,,,,,,,,,,,,,,,,,,,,,,,,,,,
,,,,,,,,,,,,,,,817,2022-01-14_16h30.42.533,multiplicationStroop,2021.2.3,Win32,59.84798612,,,,,right,1,0.8713,0,67,67,57,1,2,2,2 | 2,0,1.4111,1.9756,neutral,right,,,,,,stimulusFile/physical.xlsx,,,,,,,,,,,,,,,,,,,,,,,,,,,,,,,
,,,,,,,,,,,,,,,817,2022-01-14_16h30.42.533,multiplicationStroop,2021.2.3,Win32,59.84798612,,,,,right,1,0.5074,0,68,68,67,1,4,4,4 | 4,0,1.4111,1.9756,neutral,right,,,,,,stimulusFile/physical.xlsx,,,,,,,,,,,,,,,,,,,,,,,,,,,,,,,
,,,,,,,,,,,,,,,817,2022-01-14_16h30.42.533,multiplicationStroop,2021.2.3,Win32,59.84798612,,,,,right,1,0.4983,0,69,69,17,1,2,7,2 | 7,5,1.4111,1.9756,congruent,right,,,,,,stimulusFile/physical.xlsx,,,,,,,,,,,,,,,,,,,,,,,,,,,,,,,
,,,,,,,,,,,,,,,817,2022-01-14_16h30.42.533,multiplicationStroop,2021.2.3,Win32,59.84798612,,,,,right,1,0.6414,0,70,70,37,1,4,2,4 | 2,2,1.4111,1.9756,incongruent,right,,,,,,stimulusFile/physical.xlsx,,,,,,,,,,,,,,,,,,,,,,,,,,,,,,,
,,,,,,,,,,,,,,,817,2022-01-14_16h30.42.533,multiplicationStroop,2021.2.3,Win32,59.84798612,,,,,right,1,0.9914,0,71,71,39,1,9,7,9 | 7,2,1.4111,1.9756,incongruent,right,,,,,,stimulusFile/physical.xlsx,,,,,,,,,,,,,,,,,,,,,,,,,,,,,,,
,,,,,,,,,,,,,,,817,2022-01-14_16h30.42.533,multiplicationStroop,2021.2.3,Win32,59.84798612,,,,,,,,,,,,,,,,,,,,,0,1,1,1,1,stimulusFile/physical.xlsx,PHYSICALLY larger (larger font size).,images/physicallyLarger.png,,,,,,,,,,,,,,,,,,,,,,,,,,,,,
,,,,,,,,,,,,,,,817,2022-01-14_16h30.42.533,multiplicationStroop,2021.2.3,Win32,59.84798612,,,,,,,,,,,,,,,,,,,,,,,,,,,,,space,9.7261,space,1.7185,42,8.3427,1,0,0,0,17,1,7,×,6,7 × 6,congruent,largerFirst,2,1,42,,,,,,,,
,,,,,,,,,,,,,,,817,2022-01-14_16h30.42.533,multiplicationStroop,2021.2.3,Win32,59.84798612,,,,,,,,,,,,,,,,,,,,,,,,,,,,,,,,,72,5.9535,1,0,1,1,3,1,8,×,9,8 × 9,congruent,smallerFirst,1,2,72,,,,,,,,
,,,,,,,,,,,,,,,817,2022-01-14_16h30.42.533,multiplicationStroop,2021.2.3,Win32,59.84798612,,,,,,,,,,,,,,,,,,,,,,,,,,,,,,,,,10,2.0967,1,0,2,2,10,1,2,×,5,2 × 5,congruent,smallerFirst,1,2,10,,,,,,,,
,,,,,,,,,,,,,,,817,2022-01-14_16h30.42.533,multiplicationStroop,2021.2.3,Win32,59.84798612,,,,,,,,,,,,,,,,,,,,,,,,,,,,,,,,,30,1.9696,1,0,3,3,1,1,5,×,6,5 × 6,congruent,smallerFirst,1,2,30,,,,,,,,
,,,,,,,,,,,,,,,817,2022-01-14_16h30.42.533,multiplicationStroop,2021.2.3,Win32,59.84798612,,,,,,,,,,,,,,,,,,,,,,,,,,,,,,,,,36,7.6294,1,0,4,4,14,1,9,×,4,9 × 4,congruent,largerFirst,2,1,36,,,,,,,,
,,,,,,,,,,,,,,,817,2022-01-14_16h30.42.533,multiplicationStroop,2021.2.3,Win32,59.84798612,,,,,,,,,,,,,,,,,,,,,,,,,,,,,,,,,49,2.5311,1,0,5,5,33,1,7,×,7,7 × 7,neutral,tie,1,2,49,,,,,,,,
,,,,,,,,,,,,,,,817,2022-01-14_16h30.42.533,multiplicationStroop,2021.2.3,Win32,59.84798612,,,,,,,,,,,,,,,,,,,,,,,,,,,,,,,,,12,6.4547,1,0,6,6,16,1,4,×,3,4 × 3,congruent,largerFirst,2,1,12,,,,,,,,
,,,,,,,,,,,,,,,817,2022-01-14_16h30.42.533,multiplicationStroop,2021.2.3,Win32,59.84798612,,,,,,,,,,,,,,,,,,,,,,,,,,,,,,,,,56,12.8159,1,0,7,7,22,1,8,×,7,8 × 7,congruent,largerFirst,2,1,56,,,,,,,,
,,,,,,,,,,,,,,,817,2022-01-14_16h30.42.533,multiplicationStroop,2021.2.3,Win32,59.84798612,,,,,,,,,,,,,,,,,,,,,,,,,,,,,,,,,4,1.8143,1,0,8,8,28,1,2,×,2,2 × 2,neutral,tie,1,2,4,,,,,,,,
,,,,,,,,,,,,,,,817,2022-01-14_16h30.42.533,multiplicationStroop,2021.2.3,Win32,59.84798612,,,,,,,,,,,,,,,,,,,,,,,,,,,,,,,,,81,2.8542,1,0,9,9,35,1,9,×,9,9 × 9,neutral,tie,1,2,81,,,,,,,,
,,,,,,,,,,,,,,,817,2022-01-14_16h30.42.533,multiplicationStroop,2021.2.3,Win32,59.84798612,,,,,,,,,,,,,,,,,,,,,,,,,,,,,,,,,18,2.9157,1,0,10,10,8,1,2,×,9,2 × 9,congruent,smallerFirst,1,2,18,,,,,,,,
,,,,,,,,,,,,,,,817,2022-01-14_16h30.42.533,multiplicationStroop,2021.2.3,Win32,59.84798612,,,,,,,,,,,,,,,,,,,,,,,,,,,,,,,,,28,3.3385,1,0,11,11,13,1,4,×,7,4 × 7,congruent,smallerFirst,1,2,28,,,,,,,,
,,,,,,,,,,,,,,,817,2022-01-14_16h30.42.533,multiplicationStroop,2021.2.3,Win32,59.84798612,,,,,,,,,,,,,,,,,,,,,,,,,,,,,,,,,27,5.5196,1,0,12,12,12,1,3,×,9,3 × 9,congruent,smallerFirst,1,2,27,,,,,,,,
,,,,,,,,,,,,,,,817,2022-01-14_16h30.42.533,multiplicationStroop,2021.2.3,Win32,59.84798612,,,,,,,,,,,,,,,,,,,,,,,,,,,,,,,,,18,2.7144,1,0,13,13,25,1,6,×,3,6 × 3,congruent,largerFirst,2,1,18,,,,,,,,
,,,,,,,,,,,,,,,817,2022-01-14_16h30.42.533,multiplicationStroop,2021.2.3,Win32,59.84798612,,,,,,,,,,,,,,,,,,,,,,,,,,,,,,,,,24,2.0869,1,0,14,14,11,1,4,×,6,4 × 6,congruent,smallerFirst,1,2,24,,,,,,,,
,,,,,,,,,,,,,,,817,2022-01-14_16h30.42.533,multiplicationStroop,2021.2.3,Win32,59.84798612,,,,,,,,,,,,,,,,,,,,,,,,,,,,,,,,,6,2.1692,1,0,15,15,27,1,3,×,2,3 × 2,congruent,largerFirst,2,1,6,,,,,,,,
,,,,,,,,,,,,,,,817,2022-01-14_16h30.42.533,multiplicationStroop,2021.2.3,Win32,59.84798612,,,,,,,,,,,,,,,,,,,,,,,,,,,,,,,,,20,5.2922,1,0,16,16,21,1,5,×,4,5 × 4,congruent,largerFirst,2,1,20,,,,,,,,
,,,,,,,,,,,,,,,817,2022-01-14_16h30.42.533,multiplicationStroop,2021.2.3,Win32,59.84798612,,,,,,,,,,,,,,,,,,,,,,,,,,,,,,,,,24,2.0971,1,0,17,17,24,1,8,×,3,8 × 3,congruent,largerFirst,2,1,24,,,,,,,,
,,,,,,,,,,,,,,,817,2022-01-14_16h30.42.533,multiplicationStroop,2021.2.3,Win32,59.84798612,,,,,,,,,,,,,,,,,,,,,,,,,,,,,,,,,63,5.1924,1,0,18,18,7,1,7,×,9,7 × 9,congruent,smallerFirst,1,2,63,,,,,,,,
,,,,,,,,,,,,,,,817,2022-01-14_16h30.42.533,multiplicationStroop,2021.2.3,Win32,59.84798612,,,,,,,,,,,,,,,,,,,,,,,,,,,,,,,,,12,2.0969,1,0,19,19,5,1,2,×,6,2 × 6,congruent,smallerFirst,1,2,12,,,,,,,,
,,,,,,,,,,,,,,,817,2022-01-14_16h30.42.533,multiplicationStroop,2021.2.3,Win32,59.84798612,,,,,,,,,,,,,,,,,,,,,,,,,,,,,,,,,8,2.7882,1,0,20,20,23,1,4,×,2,4 × 2,congruent,largerFirst,2,1,8,,,,,,,,
,,,,,,,,,,,,,,,817,2022-01-14_16h30.42.533,multiplicationStroop,2021.2.3,Win32,59.84798612,,,,,,,,,,,,,,,,,,,,,,,,,,,,,,,,,40,2.1031,1,0,21,21,20,1,8,×,5,8 × 5,congruent,largerFirst,2,1,40,,,,,,,,
,,,,,,,,,,,,,,,817,2022-01-14_16h30.42.533,multiplicationStroop,2021.2.3,Win32,59.84798612,,,,,,,,,,,,,,,,,,,,,,,,,,,,,,,,,64,6.9277,1,0,22,22,34,1,8,×,8,8 × 8,neutral,tie,1,2,64,,,,,,,,
,,,,,,,,,,,,,,,817,2022-01-14_16h30.42.533,multiplicationStroop,2021.2.3,Win32,59.84798612,,,,,,,,,,,,,,,,,,,,,,,,,,,,,,,,,32,2.5992,1,0,23,23,6,1,4,×,8,4 × 8,congruent,smallerFirst,1,2,32,,,,,,,,
,,,,,,,,,,,,,,,817,2022-01-14_16h30.42.533,multiplicationStroop,2021.2.3,Win32,59.84798612,,,,,,,,,,,,,,,,,,,,,,,,,,,,,,,,,35,2.1641,1,0,24,24,15,1,7,×,5,7 × 5,congruent,largerFirst,2,1,35,,,,,,,,
,,,,,,,,,,,,,,,817,2022-01-14_16h30.42.533,multiplicationStroop,2021.2.3,Win32,59.84798612,,,,,,,,,,,,,,,,,,,,,,,,,,,,,,,,,21,2.8711,1,0,25,25,2,1,3,×,7,3 × 7,congruent,smallerFirst,1,2,21,,,,,,,,
,,,,,,,,,,,,,,,817,2022-01-14_16h30.42.533,multiplicationStroop,2021.2.3,Win32,59.84798612,,,,,,,,,,,,,,,,,,,,,,,,,,,,,,,,,45,3.122,1,0,26,26,9,1,5,×,9,5 × 9,congruent,smallerFirst,1,2,45,,,,,,,,
,,,,,,,,,,,,,,,817,2022-01-14_16h30.42.533,multiplicationStroop,2021.2.3,Win32,59.84798612,,,,,,,,,,,,,,,,,,,,,,,,,,,,,,,,,25,2.9486,1,0,27,27,31,1,5,×,5,5 × 5,neutral,tie,1,2,25,,,,,,,,
,,,,,,,,,,,,,,,817,2022-01-14_16h30.42.533,multiplicationStroop,2021.2.3,Win32,59.84798612,,,,,,,,,,,,,,,,,,,,,,,,,,,,,,,,,16,5.0581,1,0,28,28,19,1,8,×,2,8 × 2,congruent,largerFirst,2,1,16,,,,,,,,
,,,,,,,,,,,,,,,817,2022-01-14_16h30.42.533,multiplicationStroop,2021.2.3,Win32,59.84798612,,,,,,,,,,,,,,,,,,,,,,,,,,,,,,,,,16,4.0176,1,0,29,29,30,1,4,×,4,4 × 4,neutral,tie,1,2,16,,,,,,,,
,,,,,,,,,,,,,,,817,2022-01-14_16h30.42.533,multiplicationStroop,2021.2.3,Win32,59.84798612,,,,,,,,,,,,,,,,,,,,,,,,,,,,,,,,,48,3.5005,1,0,30,30,4,1,6,×,8,6 × 8,congruent,smallerFirst,1,2,48,,,,,,,,
,,,,,,,,,,,,,,,817,2022-01-14_16h30.42.533,multiplicationStroop,2021.2.3,Win32,59.84798612,,,,,,,,,,,,,,,,,,,,,,,,,,,,,,,,,9,1.6462,1,0,31,31,29,1,3,×,3,3 × 3,neutral,tie,1,2,9,,,,,,,,
,,,,,,,,,,,,,,,817,2022-01-14_16h30.42.533,multiplicationStroop,2021.2.3,Win32,59.84798612,,,,,,,,,,,,,,,,,,,,,,,,,,,,,,,,,14,3.6055,1,0,32,32,0,1,2,×,7,2 × 7,congruent,smallerFirst,1,2,14,,,,,,,,
,,,,,,,,,,,,,,,817,2022-01-14_16h30.42.533,multiplicationStroop,2021.2.3,Win32,59.84798612,,,,,,,,,,,,,,,,,,,,,,,,,,,,,,,,,54,3.6833,1,0,33,33,26,1,9,×,6,9 × 6,congruent,largerFirst,2,1,54,,,,,,,,
,,,,,,,,,,,,,,,817,2022-01-14_16h30.42.533,multiplicationStroop,2021.2.3,Win32,59.84798612,,,,,,,,,,,,,,,,,,,,,,,,,,,,,,,,,36,2.1478,1,0,34,34,32,1,6,×,6,6 × 6,neutral,tie,1,2,36,,,,,,,,
,,,,,,,,,,,,,,,817,2022-01-14_16h30.42.533,multiplicationStroop,2021.2.3,Win32,59.84798612,,,,,,,,,,,,,,,,,,,,,,,,,,,,,,,,,15,2.0028,1,0,35,35,18,1,5,×,3,5 × 3,congruent,largerFirst,2,1,15,,,,,,,,
,,,,,,,,,,,,,,,817,2022-01-14_16h30.42.533,multiplicationStroop,2021.2.3,Win32,59.84798612,,,,,,,,,,,,,,,,,,,,,,,,,,,,,,,,,,,,,,,,,,,,,,,,,,0,0,0,3,1,stimulusFile/mult_blk4_congruent.xlsx,,
,,,,,,,,,,,,,,,817,2022-01-14_16h30.42.533,multiplicationStroop,2021.2.3,Win32,59.84798612,,,,,,,,,,,,,,,,,,,,,,,,,,,,,,,space,1.7239,49,3.1319,1,0,0,0,33,1,7,×,7,7 × 7,neutral,tie,1.5,1.5,49,,,,,,,,
,,,,,,,,,,,,,,,817,2022-01-14_16h30.42.533,multiplicationStroop,2021.2.3,Win32,59.84798612,,,,,,,,,,,,,,,,,,,,,,,,,,,,,,,,,25,2.0134,1,0,1,1,31,1,5,×,5,5 × 5,neutral,tie,1.5,1.5,25,,,,,,,,
,,,,,,,,,,,,,,,817,2022-01-14_16h30.42.533,multiplicationStroop,2021.2.3,Win32,59.84798612,,,,,,,,,,,,,,,,,,,,,,,,,,,,,,,,,64,2.9039,1,0,2,2,34,1,8,×,8,8 × 8,neutral,tie,1.5,1.5,64,,,,,,,,
,,,,,,,,,,,,,,,817,2022-01-14_16h30.42.533,multiplicationStroop,2021.2.3,Win32,59.84798612,,,,,,,,,,,,,,,,,,,,,,,,,,,,,,,,,72,5.8269,1,0,3,3,11,1,8,×,9,8 × 9,neutral,smallerFirst,1.5,1.5,72,,,,,,,,
,,,,,,,,,,,,,,,817,2022-01-14_16h30.42.533,multiplicationStroop,2021.2.3,Win32,59.84798612,,,,,,,,,,,,,,,,,,,,,,,,,,,,,,,,,8,2.2816,1,0,4,4,3,1,2,×,4,2 × 4,neutral,smallerFirst,1.5,1.5,8,,,,,,,,
,,,,,,,,,,,,,,,817,2022-01-14_16h30.42.533,multiplicationStroop,2021.2.3,Win32,59.84798612,,,,,,,,,,,,,,,,,,,,,,,,,,,,,,,,,42,10.6509,1,0,5,5,6,1,6,×,7,6 × 7,neutral,smallerFirst,1.5,1.5,42,,,,,,,,
,,,,,,,,,,,,,,,817,2022-01-14_16h30.42.533,multiplicationStroop,2021.2.3,Win32,59.84798612,,,,,,,,,,,,,,,,,,,,,,,,,,,,,,,,,36,2.8647,1,0,6,6,27,1,9,×,4,9 × 4,neutral,largerFirst,1.5,1.5,36,,,,,,,,
,,,,,,,,,,,,,,,817,2022-01-14_16h30.42.533,multiplicationStroop,2021.2.3,Win32,59.84798612,,,,,,,,,,,,,,,,,,,,,,,,,,,,,,,,,15,1.8021,1,0,7,7,5,1,3,×,5,3 × 5,neutral,smallerFirst,1.5,1.5,15,,,,,,,,
,,,,,,,,,,,,,,,817,2022-01-14_16h30.42.533,multiplicationStroop,2021.2.3,Win32,59.84798612,,,,,,,,,,,,,,,,,,,,,,,,,,,,,,,,,12,3.7394,1,0,8,8,21,1,4,×,3,4 × 3,neutral,largerFirst,1.5,1.5,12,,,,,,,,
,,,,,,,,,,,,,,,817,2022-01-14_16h30.42.533,multiplicationStroop,2021.2.3,Win32,59.84798612,,,,,,,,,,,,,,,,,,,,,,,,,,,,,,,,,63,8.4915,1,0,9,9,12,1,7,×,9,7 × 9,neutral,smallerFirst,1.5,1.5,63,,,,,,,,
,,,,,,,,,,,,,,,817,2022-01-14_16h30.42.533,multiplicationStroop,2021.2.3,Win32,59.84798612,,,,,,,,,,,,,,,,,,,,,,,,,,,,,,,,,16,3.1665,1,0,10,10,30,1,4,×,4,4 × 4,neutral,tie,1.5,1.5,16,,,,,,,,
,,,,,,,,,,,,,,,817,2022-01-14_16h30.42.533,multiplicationStroop,2021.2.3,Win32,59.84798612,,,,,,,,,,,,,,,,,,,,,,,,,,,,,,,,,81,2.7314,1,0,11,11,35,1,9,×,9,9 × 9,neutral,tie,1.5,1.5,81,,,,,,,,
,,,,,,,,,,,,,,,817,2022-01-14_16h30.42.533,multiplicationStroop,2021.2.3,Win32,59.84798612,,,,,,,,,,,,,,,,,,,,,,,,,,,,,,,,,6,3.0387,1,0,12,12,26,1,3,×,2,3 × 2,neutral,largerFirst,1.5,1.5,6,,,,,,,,
,,,,,,,,,,,,,,,817,2022-01-14_16h30.42.533,multiplicationStroop,2021.2.3,Win32,59.84798612,,,,,,,,,,,,,,,,,,,,,,,,,,,,,,,,,18,2.6204,0,0,13,13,14,1,9,×,3,9 × 3,neutral,largerFirst,1.5,1.5,27,,,,,,,,
,,,,,,,,,,,,,,,817,2022-01-14_16h30.42.533,multiplicationStroop,2021.2.3,Win32,59.84798612,,,,,,,,,,,,,,,,,,,,,,,,,,,,,,,,,20,2.0135,1,0,14,14,20,1,5,×,4,5 × 4,neutral,largerFirst,1.5,1.5,20,,,,,,,,
,,,,,,,,,,,,,,,817,2022-01-14_16h30.42.533,multiplicationStroop,2021.2.3,Win32,59.84798612,,,,,,,,,,,,,,,,,,,,,,,,,,,,,,,,,35,2.754,1,0,15,15,1,1,5,×,7,5 × 7,neutral,smallerFirst,1.5,1.5,35,,,,,,,,
,,,,,,,,,,,,,,,817,2022-01-14_16h30.42.533,multiplicationStroop,2021.2.3,Win32,59.84798612,,,,,,,,,,,,,,,,,,,,,,,,,,,,,,,,,18,3.1542,1,0,16,16,0,1,3,×,6,3 × 6,neutral,smallerFirst,1.5,1.5,18,,,,,,,,
,,,,,,,,,,,,,,,817,2022-01-14_16h30.42.533,multiplicationStroop,2021.2.3,Win32,59.84798612,,,,,,,,,,,,,,,,,,,,,,,,,,,,,,,,,14,2.0473,1,0,17,17,16,1,7,×,2,7 × 2,neutral,largerFirst,1.5,1.5,14,,,,,,,,
,,,,,,,,,,,,,,,817,2022-01-14_16h30.42.533,multiplicationStroop,2021.2.3,Win32,59.84798612,,,,,,,,,,,,,,,,,,,,,,,,,,,,,,,,,16,2.4873,1,0,18,18,13,1,2,×,8,2 × 8,neutral,smallerFirst,1.5,1.5,16,,,,,,,,
,,,,,,,,,,,,,,,817,2022-01-14_16h30.42.533,multiplicationStroop,2021.2.3,Win32,59.84798612,,,,,,,,,,,,,,,,,,,,,,,,,,,,,,,,,24,2.0868,1,0,19,19,22,1,8,×,3,8 × 3,neutral,largerFirst,1.5,1.5,24,,,,,,,,
,,,,,,,,,,,,,,,817,2022-01-14_16h30.42.533,multiplicationStroop,2021.2.3,Win32,59.84798612,,,,,,,,,,,,,,,,,,,,,,,,,,,,,,,,,32,2.5037,1,0,20,20,23,1,8,×,4,8 × 4,neutral,largerFirst,1.5,1.5,32,,,,,,,,
,,,,,,,,,,,,,,,817,2022-01-14_16h30.42.533,multiplicationStroop,2021.2.3,Win32,59.84798612,,,,,,,,,,,,,,,,,,,,,,,,,,,,,,,,,45,2.5371,1,0,21,21,10,1,5,×,9,5 × 9,neutral,smallerFirst,1.5,1.5,45,,,,,,,,
,,,,,,,,,,,,,,,817,2022-01-14_16h30.42.533,multiplicationStroop,2021.2.3,Win32,59.84798612,,,,,,,,,,,,,,,,,,,,,,,,,,,,,,,,,4,1.8135,1,0,22,22,28,1,2,×,2,2 × 2,neutral,tie,1.5,1.5,4,,,,,,,,
,,,,,,,,,,,,,,,817,2022-01-14_16h30.42.533,multiplicationStroop,2021.2.3,Win32,59.84798612,,,,,,,,,,,,,,,,,,,,,,,,,,,,,,,,,36,3.2889,1,0,23,23,32,1,6,×,6,6 × 6,neutral,tie,1.5,1.5,36,,,,,,,,
,,,,,,,,,,,,,,,817,2022-01-14_16h30.42.533,multiplicationStroop,2021.2.3,Win32,59.84798612,,,,,,,,,,,,,,,,,,,,,,,,,,,,,,,,,24,2.5647,1,0,24,24,2,1,4,×,6,4 × 6,neutral,smallerFirst,1.5,1.5,24,,,,,,,,
,,,,,,,,,,,,,,,817,2022-01-14_16h30.42.533,multiplicationStroop,2021.2.3,Win32,59.84798612,,,,,,,,,,,,,,,,,,,,,,,,,,,,,,,,,56,5.1919,1,0,25,25,9,1,7,×,8,7 × 8,neutral,smallerFirst,1.5,1.5,56,,,,,,,,
,,,,,,,,,,,,,,,817,2022-01-14_16h30.42.533,multiplicationStroop,2021.2.3,Win32,59.84798612,,,,,,,,,,,,,,,,,,,,,,,,,,,,,,,,,54,2.3643,1,0,26,26,7,1,6,×,9,6 × 9,neutral,smallerFirst,1.5,1.5,54,,,,,,,,
,,,,,,,,,,,,,,,817,2022-01-14_16h30.42.533,multiplicationStroop,2021.2.3,Win32,59.84798612,,,,,,,,,,,,,,,,,,,,,,,,,,,,,,,,,21,3.5724,1,0,27,27,8,1,3,×,7,3 × 7,neutral,smallerFirst,1.5,1.5,21,,,,,,,,
,,,,,,,,,,,,,,,817,2022-01-14_16h30.42.533,multiplicationStroop,2021.2.3,Win32,59.84798612,,,,,,,,,,,,,,,,,,,,,,,,,,,,,,,,,9,1.8296,1,0,28,28,29,1,3,×,3,3 × 3,neutral,tie,1.5,1.5,9,,,,,,,,
,,,,,,,,,,,,,,,817,2022-01-14_16h30.42.533,multiplicationStroop,2021.2.3,Win32,59.84798612,,,,,,,,,,,,,,,,,,,,,,,,,,,,,,,,,48,9.2824,1,0,29,29,15,1,8,×,6,8 × 6,neutral,largerFirst,1.5,1.5,48,,,,,,,,
,,,,,,,,,,,,,,,817,2022-01-14_16h30.42.533,multiplicationStroop,2021.2.3,Win32,59.84798612,,,,,,,,,,,,,,,,,,,,,,,,,,,,,,,,,18,3.5332,1,0,30,30,18,1,9,×,2,9 × 2,neutral,largerFirst,1.5,1.5,18,,,,,,,,
,,,,,,,,,,,,,,,817,2022-01-14_16h30.42.533,multiplicationStroop,2021.2.3,Win32,59.84798612,,,,,,,,,,,,,,,,,,,,,,,,,,,,,,,,,40,2.2143,1,0,31,31,24,1,8,×,5,8 × 5,neutral,largerFirst,1.5,1.5,40,,,,,,,,
,,,,,,,,,,,,,,,817,2022-01-14_16h30.42.533,multiplicationStroop,2021.2.3,Win32,59.84798612,,,,,,,,,,,,,,,,,,,,,,,,,,,,,,,,,12,2.0363,1,0,32,32,25,1,6,×,2,6 × 2,neutral,largerFirst,1.5,1.5,12,,,,,,,,
,,,,,,,,,,,,,,,817,2022-01-14_16h30.42.533,multiplicationStroop,2021.2.3,Win32,59.84798612,,,,,,,,,,,,,,,,,,,,,,,,,,,,,,,,,10,1.9357,1,0,33,33,4,1,2,×,5,2 × 5,neutral,smallerFirst,1.5,1.5,10,,,,,,,,
,,,,,,,,,,,,,,,817,2022-01-14_16h30.42.533,multiplicationStroop,2021.2.3,Win32,59.84798612,,,,,,,,,,,,,,,,,,,,,,,,,,,,,,,,,28,4.7597,1,0,34,34,17,1,7,×,4,7 × 4,neutral,largerFirst,1.5,1.5,28,,,,,,,,
,,,,,,,,,,,,,,,817,2022-01-14_16h30.42.533,multiplicationStroop,2021.2.3,Win32,59.84798612,,,,,,,,,,,,,,,,,,,,,,,,,,,,,,,,,30,2.5472,1,0,35,35,19,1,6,×,5,6 × 5,neutral,largerFirst,1.5,1.5,30,,,,,,,,
,,,,,,,,,,,,,,,817,2022-01-14_16h30.42.533,multiplicationStroop,2021.2.3,Win32,59.84798612,,,,,,,,,,,,,,,,,,,,,,,,,,,,,,,,,,,,,,,,,,,,,,,,,,0,1,1,1,1,stimulusFile/mult_blk2.xlsx,,
,,,,,,,,,,,,,,,817,2022-01-14_16h30.42.533,multiplicationStroop,2021.2.3,Win32,59.84798612,,,,,,,,,,,,,,,,,,,,,,,,,,,,,,,space,1.2837,18,2.4707,1,0,0,0,22,1,6,×,3,6 × 3,incongruent,largerFirst,1,2,18,,,,,,,,
,,,,,,,,,,,,,,,817,2022-01-14_16h30.42.533,multiplicationStroop,2021.2.3,Win32,59.84798612,,,,,,,,,,,,,,,,,,,,,,,,,,,,,,,,,12,2.1362,1,0,1,1,19,1,4,×,3,4 × 3,incongruent,largerFirst,1,2,12,,,,,,,,
,,,,,,,,,,,,,,,817,2022-01-14_16h30.42.533,multiplicationStroop,2021.2.3,Win32,59.84798612,,,,,,,,,,,,,,,,,,,,,,,,,,,,,,,,,30,1.8355,1,0,2,2,11,1,5,×,6,5 × 6,incongruent,smallerFirst,2,1,30,,,,,,,,
,,,,,,,,,,,,,,,817,2022-01-14_16h30.42.533,multiplicationStroop,2021.2.3,Win32,59.84798612,,,,,,,,,,,,,,,,,,,,,,,,,,,,,,,,,14,2.0193,1,0,3,3,18,1,7,×,2,7 × 2,incongruent,largerFirst,1,2,14,,,,,,,,
,,,,,,,,,,,,,,,817,2022-01-14_16h30.42.533,multiplicationStroop,2021.2.3,Win32,59.84798612,,,,,,,,,,,,,,,,,,,,,,,,,,,,,,,,,49,2.8044,1,0,4,4,33,1,7,×,7,7 × 7,neutral,tie,2,1,49,,,,,,,,
,,,,,,,,,,,,,,,817,2022-01-14_16h30.42.533,multiplicationStroop,2021.2.3,Win32,59.84798612,,,,,,,,,,,,,,,,,,,,,,,,,,,,,,,,,20,2.6875,1,0,5,5,13,1,4,×,5,4 × 5,incongruent,smallerFirst,2,1,20,,,,,,,,
,,,,,,,,,,,,,,,817,2022-01-14_16h30.42.533,multiplicationStroop,2021.2.3,Win32,59.84798612,,,,,,,,,,,,,,,,,,,,,,,,,,,,,,,,,18,2.1476,1,0,6,6,16,1,9,×,2,9 × 2,incongruent,largerFirst,1,2,18,,,,,,,,
,,,,,,,,,,,,,,,817,2022-01-14_16h30.42.533,multiplicationStroop,2021.2.3,Win32,59.84798612,,,,,,,,,,,,,,,,,,,,,,,,,,,,,,,,,32,1.9865,1,0,7,7,21,1,8,×,4,8 × 4,incongruent,largerFirst,1,2,32,,,,,,,,
,,,,,,,,,,,,,,,817,2022-01-14_16h30.42.533,multiplicationStroop,2021.2.3,Win32,59.84798612,,,,,,,,,,,,,,,,,,,,,,,,,,,,,,,,,27,5.4253,1,0,8,8,4,1,3,×,9,3 × 9,incongruent,smallerFirst,2,1,27,,,,,,,,
,,,,,,,,,,,,,,,817,2022-01-14_16h30.42.533,multiplicationStroop,2021.2.3,Win32,59.84798612,,,,,,,,,,,,,,,,,,,,,,,,,,,,,,,,,42,2.6974,0,0,9,9,0,1,7,×,8,7 × 8,incongruent,smallerFirst,2,1,56,,,,,,,,
,,,,,,,,,,,,,,,817,2022-01-14_16h30.42.533,multiplicationStroop,2021.2.3,Win32,59.84798612,,,,,,,,,,,,,,,,,,,,,,,,,,,,,,,,,24,2.0465,1,0,10,10,23,1,8,×,3,8 × 3,incongruent,largerFirst,1,2,24,,,,,,,,
,,,,,,,,,,,,,,,817,2022-01-14_16h30.42.533,multiplicationStroop,2021.2.3,Win32,59.84798612,,,,,,,,,,,,,,,,,,,,,,,,,,,,,,,,,28,11.3031,1,0,11,11,2,1,4,×,7,4 × 7,incongruent,smallerFirst,2,1,28,,,,,,,,
,,,,,,,,,,,,,,,817,2022-01-14_16h30.42.533,multiplicationStroop,2021.2.3,Win32,59.84798612,,,,,,,,,,,,,,,,,,,,,,,,,,,,,,,,,48,11.5803,1,0,12,12,15,1,8,×,6,8 × 6,incongruent,largerFirst,1,2,48,,,,,,,,
,,,,,,,,,,,,,,,817,2022-01-14_16h30.42.533,multiplicationStroop,2021.2.3,Win32,59.84798612,,,,,,,,,,,,,,,,,,,,,,,,,,,,,,,,,36,2.5646,1,0,13,13,32,1,6,×,6,6 × 6,neutral,tie,2,1,36,,,,,,,,
,,,,,,,,,,,,,,,817,2022-01-14_16h30.42.533,multiplicationStroop,2021.2.3,Win32,59.84798612,,,,,,,,,,,,,,,,,,,,,,,,,,,,,,,,,21,2.17,1,0,14,14,12,1,3,×,7,3 × 7,incongruent,smallerFirst,2,1,21,,,,,,,,
,,,,,,,,,,,,,,,817,2022-01-14_16h30.42.533,multiplicationStroop,2021.2.3,Win32,59.84798612,,,,,,,,,,,,,,,,,,,,,,,,,,,,,,,,,6,1.8855,1,0,15,15,25,1,3,×,2,3 × 2,incongruent,largerFirst,1,2,6,,,,,,,,
,,,,,,,,,,,,,,,817,2022-01-14_16h30.42.533,multiplicationStroop,2021.2.3,Win32,59.84798612,,,,,,,,,,,,,,,,,,,,,,,,,,,,,,,,,15,2.0202,1,0,16,16,24,1,5,×,3,5 × 3,incongruent,largerFirst,1,2,15,,,,,,,,
,,,,,,,,,,,,,,,817,2022-01-14_16h30.42.533,multiplicationStroop,2021.2.3,Win32,59.84798612,,,,,,,,,,,,,,,,,,,,,,,,,,,,,,,,,35,2.0527,1,0,17,17,26,1,7,×,5,7 × 5,incongruent,largerFirst,1,2,35,,,,,,,,
,,,,,,,,,,,,,,,817,2022-01-14_16h30.42.533,multiplicationStroop,2021.2.3,Win32,59.84798612,,,,,,,,,,,,,,,,,,,,,,,,,,,,,,,,,54,16.6118,1,0,18,18,20,1,9,×,6,9 × 6,incongruent,largerFirst,1,2,54,,,,,,,,
,,,,,,,,,,,,,,,817,2022-01-14_16h30.42.533,multiplicationStroop,2021.2.3,Win32,59.84798612,,,,,,,,,,,,,,,,,,,,,,,,,,,,,,,,,40,2.4146,1,0,19,19,27,1,8,×,5,8 × 5,incongruent,largerFirst,1,2,40,,,,,,,,
,,,,,,,,,,,,,,,817,2022-01-14_16h30.42.533,multiplicationStroop,2021.2.3,Win32,59.84798612,,,,,,,,,,,,,,,,,,,,,,,,,,,,,,,,,64,6.6279,1,0,20,20,34,1,8,×,8,8 × 8,neutral,tie,2,1,64,,,,,,,,
,,,,,,,,,,,,,,,817,2022-01-14_16h30.42.533,multiplicationStroop,2021.2.3,Win32,59.84798612,,,,,,,,,,,,,,,,,,,,,,,,,,,,,,,,,4,1.7641,1,0,21,21,28,1,2,×,2,2 × 2,neutral,tie,2,1,4,,,,,,,,
,,,,,,,,,,,,,,,817,2022-01-14_16h30.42.533,multiplicationStroop,2021.2.3,Win32,59.84798612,,,,,,,,,,,,,,,,,,,,,,,,,,,,,,,,,16,2.4038,1,0,22,22,9,1,2,×,8,2 × 8,incongruent,smallerFirst,2,1,16,,,,,,,,
,,,,,,,,,,,,,,,817,2022-01-14_16h30.42.533,multiplicationStroop,2021.2.3,Win32,59.84798612,,,,,,,,,,,,,,,,,,,,,,,,,,,,,,,,,12,2.2026,1,0,23,23,5,1,2,×,6,2 × 6,incongruent,smallerFirst,2,1,12,,,,,,,,
,,,,,,,,,,,,,,,817,2022-01-14_16h30.42.533,multiplicationStroop,2021.2.3,Win32,59.84798612,,,,,,,,,,,,,,,,,,,,,,,,,,,,,,,,,81,1.9033,1,0,24,24,35,1,9,×,9,9 × 9,neutral,tie,2,1,81,,,,,,,,
,,,,,,,,,,,,,,,817,2022-01-14_16h30.42.533,multiplicationStroop,2021.2.3,Win32,59.84798612,,,,,,,,,,,,,,,,,,,,,,,,,,,,,,,,,8,2.1535,1,0,25,25,10,1,2,×,4,2 × 4,incongruent,smallerFirst,2,1,8,,,,,,,,
,,,,,,,,,,,,,,,817,2022-01-14_16h30.42.533,multiplicationStroop,2021.2.3,Win32,59.84798612,,,,,,,,,,,,,,,,,,,,,,,,,,,,,,,,,45,3.2549,1,0,26,26,8,1,5,×,9,5 × 9,incongruent,smallerFirst,2,1,45,,,,,,,,
,,,,,,,,,,,,,,,817,2022-01-14_16h30.42.533,multiplicationStroop,2021.2.3,Win32,59.84798612,,,,,,,,,,,,,,,,,,,,,,,,,,,,,,,,,25,1.8134,1,0,27,27,31,1,5,×,5,5 × 5,neutral,tie,2,1,25,,,,,,,,
,,,,,,,,,,,,,,,817,2022-01-14_16h30.42.533,multiplicationStroop,2021.2.3,Win32,59.84798612,,,,,,,,,,,,,,,,,,,,,,,,,,,,,,,,,63,2.5044,1,0,28,28,17,1,9,×,7,9 × 7,incongruent,largerFirst,1,2,63,,,,,,,,
,,,,,,,,,,,,,,,817,2022-01-14_16h30.42.533,multiplicationStroop,2021.2.3,Win32,59.84798612,,,,,,,,,,,,,,,,,,,,,,,,,,,,,,,,,24,6.2097,1,0,29,29,6,1,4,×,6,4 × 6,incongruent,smallerFirst,2,1,24,,,,,,,,
,,,,,,,,,,,,,,,817,2022-01-14_16h30.42.533,multiplicationStroop,2021.2.3,Win32,59.84798612,,,,,,,,,,,,,,,,,,,,,,,,,,,,,,,,,9,1.6127,1,0,30,30,29,1,3,×,3,3 × 3,neutral,tie,2,1,9,,,,,,,,
,,,,,,,,,,,,,,,817,2022-01-14_16h30.42.533,multiplicationStroop,2021.2.3,Win32,59.84798612,,,,,,,,,,,,,,,,,,,,,,,,,,,,,,,,,10,2.0028,1,0,31,31,7,1,2,×,5,2 × 5,incongruent,smallerFirst,2,1,10,,,,,,,,
,,,,,,,,,,,,,,,817,2022-01-14_16h30.42.533,multiplicationStroop,2021.2.3,Win32,59.84798612,,,,,,,,,,,,,,,,,,,,,,,,,,,,,,,,,16,2.0537,1,0,32,32,30,1,4,×,4,4 × 4,neutral,tie,2,1,16,,,,,,,,
,,,,,,,,,,,,,,,817,2022-01-14_16h30.42.533,multiplicationStroop,2021.2.3,Win32,59.84798612,,,,,,,,,,,,,,,,,,,,,,,,,,,,,,,,,72,3.2385,1,0,33,33,14,1,9,×,8,9 × 8,incongruent,largerFirst,1,2,72,,,,,,,,
,,,,,,,,,,,,,,,817,2022-01-14_16h30.42.533,multiplicationStroop,2021.2.3,Win32,59.84798612,,,,,,,,,,,,,,,,,,,,,,,,,,,,,,,,,36,4.3508,1,0,34,34,1,1,4,×,9,4 × 9,incongruent,smallerFirst,2,1,36,,,,,,,,
,,,,,,,,,,,,,,,817,2022-01-14_16h30.42.533,multiplicationStroop,2021.2.3,Win32,59.84798612,,,,,,,,,,,,,,,,,,,,,,,,,,,,,,,,,42,2.5309,1,0,35,35,3,1,6,×,7,6 × 7,incongruent,smallerFirst,2,1,42,,,,,,,,
,,,,,,,,,,,,,,,817,2022-01-14_16h30.42.533,multiplicationStroop,2021.2.3,Win32,59.84798612,,,,,,,,,,,,,,,,,,,,,,,,,,,,,,,,,,,,,,,,,,,,,,,,,,0,2,2,4,1,stimulusFile/mult_blk5_INcongruent.xlsx,,
,,,,,,,,,,,,,,,817,2022-01-14_16h30.42.533,multiplicationStroop,2021.2.3,Win32,59.84798612,,,,,,,,,,,,,,,,,,,,,,,,,,,,,,,space,1.927,48,3.906,1,0,0,0,1,1,6,×,8,6 × 8,neutral,smallerFirst,1.5,1.5,48,,,,,,,,
,,,,,,,,,,,,,,,817,2022-01-14_16h30.42.533,multiplicationStroop,2021.2.3,Win32,59.84798612,,,,,,,,,,,,,,,,,,,,,,,,,,,,,,,,,16,3.7336,1,0,1,1,27,1,8,×,2,8 × 2,neutral,largerFirst,1.5,1.5,16,,,,,,,,
,,,,,,,,,,,,,,,817,2022-01-14_16h30.42.533,multiplicationStroop,2021.2.3,Win32,59.84798612,,,,,,,,,,,,,,,,,,,,,,,,,,,,,,,,,15,1.9641,1,0,2,2,19,1,5,×,3,5 × 3,neutral,largerFirst,1.5,1.5,15,,,,,,,,
,,,,,,,,,,,,,,,817,2022-01-14_16h30.42.533,multiplicationStroop,2021.2.3,Win32,59.84798612,,,,,,,,,,,,,,,,,,,,,,,,,,,,,,,,,20,2.6379,1,0,3,3,6,1,4,×,5,4 × 5,neutral,smallerFirst,1.5,1.5,20,,,,,,,,
,,,,,,,,,,,,,,,817,2022-01-14_16h30.42.533,multiplicationStroop,2021.2.3,Win32,59.84798612,,,,,,,,,,,,,,,,,,,,,,,,,,,,,,,,,28,6.0934,1,0,4,4,3,1,4,×,7,4 × 7,neutral,smallerFirst,1.5,1.5,28,,,,,,,,
,,,,,,,,,,,,,,,817,2022-01-14_16h30.42.533,multiplicationStroop,2021.2.3,Win32,59.84798612,,,,,,,,,,,,,,,,,,,,,,,,,,,,,,,,,36,4.2005,1,0,5,5,13,1,4,×,9,4 × 9,neutral,smallerFirst,1.5,1.5,36,,,,,,,,
,,,,,,,,,,,,,,,817,2022-01-14_16h30.42.533,multiplicationStroop,2021.2.3,Win32,59.84798612,,,,,,,,,,,,,,,,,,,,,,,,,,,,,,,,,49,2.5826,1,0,6,6,33,1,7,×,7,7 × 7,neutral,tie,1.5,1.5,49,,,,,,,,
,,,,,,,,,,,,,,,817,2022-01-14_16h30.42.533,multiplicationStroop,2021.2.3,Win32,59.84798612,,,,,,,,,,,,,,,,,,,,,,,,,,,,,,,,,27,5.5028,1,0,7,7,0,1,3,×,9,3 × 9,neutral,smallerFirst,1.5,1.5,27,,,,,,,,
,,,,,,,,,,,,,,,817,2022-01-14_16h30.42.533,multiplicationStroop,2021.2.3,Win32,59.84798612,,,,,,,,,,,,,,,,,,,,,,,,,,,,,,,,,25,2.3817,1,0,8,8,31,1,5,×,5,5 × 5,neutral,tie,1.5,1.5,25,,,,,,,,
,,,,,,,,,,,,,,,817,2022-01-14_16h30.42.533,multiplicationStroop,2021.2.3,Win32,59.84798612,,,,,,,,,,,,,,,,,,,,,,,,,,,,,,,,,24,1.9474,1,0,9,9,16,1,6,×,4,6 × 4,neutral,largerFirst,1.5,1.5,24,,,,,,,,
,,,,,,,,,,,,,,,817,2022-01-14_16h30.42.533,multiplicationStroop,2021.2.3,Win32,59.84798612,,,,,,,,,,,,,,,,,,,,,,,,,,,,,,,,,42,2.9546,1,0,10,10,20,1,7,×,6,7 × 6,neutral,largerFirst,1.5,1.5,42,,,,,,,,
,,,,,,,,,,,,,,,817,2022-01-14_16h30.42.533,multiplicationStroop,2021.2.3,Win32,59.84798612,,,,,,,,,,,,,,,,,,,,,,,,,,,,,,,,,63,3.6499,1,0,11,11,26,1,9,×,7,9 × 7,neutral,largerFirst,1.5,1.5,63,,,,,,,,
,,,,,,,,,,,,,,,817,2022-01-14_16h30.42.533,multiplicationStroop,2021.2.3,Win32,59.84798612,,,,,,,,,,,,,,,,,,,,,,,,,,,,,,,,,18,2.4979,1,0,12,12,14,1,6,×,3,6 × 3,neutral,largerFirst,1.5,1.5,18,,,,,,,,
,,,,,,,,,,,,,,,817,2022-01-14_16h30.42.533,multiplicationStroop,2021.2.3,Win32,59.84798612,,,,,,,,,,,,,,,,,,,,,,,,,,,,,,,,,18,2.6378,1,0,13,13,4,1,2,×,9,2 × 9,neutral,smallerFirst,1.5,1.5,18,,,,,,,,
,,,,,,,,,,,,,,,817,2022-01-14_16h30.42.533,multiplicationStroop,2021.2.3,Win32,59.84798612,,,,,,,,,,,,,,,,,,,,,,,,,,,,,,,,,36,2.7708,1,0,14,14,32,1,6,×,6,6 × 6,neutral,tie,1.5,1.5,36,,,,,,,,
,,,,,,,,,,,,,,,817,2022-01-14_16h30.42.533,multiplicationStroop,2021.2.3,Win32,59.84798612,,,,,,,,,,,,,,,,,,,,,,,,,,,,,,,,,64,2.682,1,0,15,15,34,1,8,×,8,8 × 8,neutral,tie,1.5,1.5,64,,,,,,,,
,,,,,,,,,,,,,,,817,2022-01-14_16h30.42.533,multiplicationStroop,2021.2.3,Win32,59.84798612,,,,,,,,,,,,,,,,,,,,,,,,,,,,,,,,,45,2.3536,1,0,16,16,24,1,9,×,5,9 × 5,neutral,largerFirst,1.5,1.5,45,,,,,,,,
,,,,,,,,,,,,,,,817,2022-01-14_16h30.42.533,multiplicationStroop,2021.2.3,Win32,59.84798612,,,,,,,,,,,,,,,,,,,,,,,,,,,,,,,,,40,6.677,1,0,17,17,10,1,5,×,8,5 × 8,neutral,smallerFirst,1.5,1.5,40,,,,,,,,
,,,,,,,,,,,,,,,817,2022-01-14_16h30.42.533,multiplicationStroop,2021.2.3,Win32,59.84798612,,,,,,,,,,,,,,,,,,,,,,,,,,,,,,,,,81,2.4486,1,0,18,18,35,1,9,×,9,9 × 9,neutral,tie,1.5,1.5,81,,,,,,,,
,,,,,,,,,,,,,,,817,2022-01-14_16h30.42.533,multiplicationStroop,2021.2.3,Win32,59.84798612,,,,,,,,,,,,,,,,,,,,,,,,,,,,,,,,,12,2.6374,1,0,19,19,7,1,3,×,4,3 × 4,neutral,smallerFirst,1.5,1.5,12,,,,,,,,
,,,,,,,,,,,,,,,817,2022-01-14_16h30.42.533,multiplicationStroop,2021.2.3,Win32,59.84798612,,,,,,,,,,,,,,,,,,,,,,,,,,,,,,,,,9,2.0024,1,0,20,20,29,1,3,×,3,3 × 3,neutral,tie,1.5,1.5,9,,,,,,,,
,,,,,,,,,,,,,,,817,2022-01-14_16h30.42.533,multiplicationStroop,2021.2.3,Win32,59.84798612,,,,,,,,,,,,,,,,,,,,,,,,,,,,,,,,,35,1.9531,1,0,21,21,15,1,7,×,5,7 × 5,neutral,largerFirst,1.5,1.5,35,,,,,,,,
,,,,,,,,,,,,,,,817,2022-01-14_16h30.42.533,multiplicationStroop,2021.2.3,Win32,59.84798612,,,,,,,,,,,,,,,,,,,,,,,,,,,,,,,,,24,2.7376,1,0,22,22,8,1,3,×,8,3 × 8,neutral,smallerFirst,1.5,1.5,24,,,,,,,,
,,,,,,,,,,,,,,,817,2022-01-14_16h30.42.533,multiplicationStroop,2021.2.3,Win32,59.84798612,,,,,,,,,,,,,,,,,,,,,,,,,,,,,,,,,16,2.0135,1,0,23,23,30,1,4,×,4,4 × 4,neutral,tie,1.5,1.5,16,,,,,,,,
,,,,,,,,,,,,,,,817,2022-01-14_16h30.42.533,multiplicationStroop,2021.2.3,Win32,59.84798612,,,,,,,,,,,,,,,,,,,,,,,,,,,,,,,,,30,1.903,1,0,24,24,5,1,5,×,6,5 × 6,neutral,smallerFirst,1.5,1.5,30,,,,,,,,
,,,,,,,,,,,,,,,817,2022-01-14_16h30.42.533,multiplicationStroop,2021.2.3,Win32,59.84798612,,,,,,,,,,,,,,,,,,,,,,,,,,,,,,,,,32,2.4544,1,0,25,25,9,1,4,×,8,4 × 8,neutral,smallerFirst,1.5,1.5,32,,,,,,,,
,,,,,,,,,,,,,,,817,2022-01-14_16h30.42.533,multiplicationStroop,2021.2.3,Win32,59.84798612,,,,,,,,,,,,,,,,,,,,,,,,,,,,,,,,,21,2.0473,1,0,26,26,22,1,7,×,3,7 × 3,neutral,largerFirst,1.5,1.5,21,,,,,,,,
,,,,,,,,,,,,,,,817,2022-01-14_16h30.42.533,multiplicationStroop,2021.2.3,Win32,59.84798612,,,,,,,,,,,,,,,,,,,,,,,,,,,,,,,,,56,5.4419,1,0,27,27,23,1,8,×,7,8 × 7,neutral,largerFirst,1.5,1.5,56,,,,,,,,
,,,,,,,,,,,,,,,817,2022-01-14_16h30.42.533,multiplicationStroop,2021.2.3,Win32,59.84798612,,,,,,,,,,,,,,,,,,,,,,,,,,,,,,,,,72,4.9024,1,0,28,28,25,1,9,×,8,9 × 8,neutral,largerFirst,1.5,1.5,72,,,,,,,,
,,,,,,,,,,,,,,,817,2022-01-14_16h30.42.533,multiplicationStroop,2021.2.3,Win32,59.84798612,,,,,,,,,,,,,,,,,,,,,,,,,,,,,,,,,54,3.4661,1,0,29,29,21,1,9,×,6,9 × 6,neutral,largerFirst,1.5,1.5,54,,,,,,,,
,,,,,,,,,,,,,,,817,2022-01-14_16h30.42.533,multiplicationStroop,2021.2.3,Win32,59.84798612,,,,,,,,,,,,,,,,,,,,,,,,,,,,,,,,,6,2.0811,1,0,30,30,12,1,2,×,3,2 × 3,neutral,smallerFirst,1.5,1.5,6,,,,,,,,
,,,,,,,,,,,,,,,817,2022-01-14_16h30.42.533,multiplicationStroop,2021.2.3,Win32,59.84798612,,,,,,,,,,,,,,,,,,,,,,,,,,,,,,,,,10,1.9526,1,0,31,31,18,1,5,×,2,5 × 2,neutral,largerFirst,1.5,1.5,10,,,,,,,,
,,,,,,,,,,,,,,,817,2022-01-14_16h30.42.533,multiplicationStroop,2021.2.3,Win32,59.84798612,,,,,,,,,,,,,,,,,,,,,,,,,,,,,,,,,8,2.4534,1,0,32,32,17,1,4,×,2,4 × 2,neutral,largerFirst,1.5,1.5,8,,,,,,,,
,,,,,,,,,,,,,,,817,2022-01-14_16h30.42.533,multiplicationStroop,2021.2.3,Win32,59.84798612,,,,,,,,,,,,,,,,,,,,,,,,,,,,,,,,,12,2.2866,1,0,33,33,11,1,2,×,6,2 × 6,neutral,smallerFirst,1.5,1.5,12,,,,,,,,
,,,,,,,,,,,,,,,817,2022-01-14_16h30.42.533,multiplicationStroop,2021.2.3,Win32,59.84798612,,,,,,,,,,,,,,,,,,,,,,,,,,,,,,,,,14,1.9865,1,0,34,34,2,1,2,×,7,2 × 7,neutral,smallerFirst,1.5,1.5,14,,,,,,,,
,,,,,,,,,,,,,,,817,2022-01-14_16h30.42.533,multiplicationStroop,2021.2.3,Win32,59.84798612,,,,,,,,,,,,,,,,,,,,,,,,,,,,,,,,,4,1.5684,1,0,35,35,28,1,2,×,2,2 × 2,neutral,tie,1.5,1.5,4,,,,,,,,
,,,,,,,,,,,,,,,817,2022-01-14_16h30.42.533,multiplicationStroop,2021.2.3,Win32,59.84798612,,,,,,,,,,,,,,,,,,,,,,,,,,,,,,,,,,,,,,,,,,,,,,,,,,0,3,3,0,1,stimulusFile/mult_blk1.xlsx,,
,,,,,,,,,,,,,,,817,2022-01-14_16h30.42.533,multiplicationStroop,2021.2.3,Win32,59.84798612,,,,,,,,,,,,,,,,,,,,,,,,,,,,,,,space,0.9231,24,2.2024,1,0,0,0,25,1,6,×,4,6 × 4,congruent,largerFirst,2,1,24,,,,,,,,
,,,,,,,,,,,,,,,817,2022-01-14_16h30.42.533,multiplicationStroop,2021.2.3,Win32,59.84798612,,,,,,,,,,,,,,,,,,,,,,,,,,,,,,,,,18,2.153,1,0,1,1,22,1,9,×,2,9 × 2,congruent,largerFirst,2,1,18,,,,,,,,
,,,,,,,,,,,,,,,817,2022-01-14_16h30.42.533,multiplicationStroop,2021.2.3,Win32,59.84798612,,,,,,,,,,,,,,,,,,,,,,,,,,,,,,,,,27,2.5873,1,0,2,2,26,1,9,×,3,9 × 3,congruent,largerFirst,2,1,27,,,,,,,,
,,,,,,,,,,,,,,,817,2022-01-14_16h30.42.533,multiplicationStroop,2021.2.3,Win32,59.84798612,,,,,,,,,,,,,,,,,,,,,,,,,,,,,,,,,40,2.2645,1,0,3,3,6,1,5,×,8,5 × 8,congruent,smallerFirst,1,2,40,,,,,,,,
,,,,,,,,,,,,,,,817,2022-01-14_16h30.42.533,multiplicationStroop,2021.2.3,Win32,59.84798612,,,,,,,,,,,,,,,,,,,,,,,,,,,,,,,,,6,3.2552,1,0,4,4,13,1,2,×,3,2 × 3,congruent,smallerFirst,1,2,6,,,,,,,,
,,,,,,,,,,,,,,,817,2022-01-14_16h30.42.533,multiplicationStroop,2021.2.3,Win32,59.84798612,,,,,,,,,,,,,,,,,,,,,,,,,,,,,,,,,49,2.2862,1,0,5,5,33,1,7,×,7,7 × 7,neutral,tie,2,1,49,,,,,,,,
,,,,,,,,,,,,,,,817,2022-01-14_16h30.42.533,multiplicationStroop,2021.2.3,Win32,59.84798612,,,,,,,,,,,,,,,,,,,,,,,,,,,,,,,,,81,2.1477,1,0,6,6,35,1,9,×,9,9 × 9,neutral,tie,2,1,81,,,,,,,,
,,,,,,,,,,,,,,,817,2022-01-14_16h30.42.533,multiplicationStroop,2021.2.3,Win32,59.84798612,,,,,,,,,,,,,,,,,,,,,,,,,,,,,,,,,42,2.2706,1,0,7,7,3,1,6,×,7,6 × 7,congruent,smallerFirst,1,2,42,,,,,,,,
,,,,,,,,,,,,,,,817,2022-01-14_16h30.42.533,multiplicationStroop,2021.2.3,Win32,59.84798612,,,,,,,,,,,,,,,,,,,,,,,,,,,,,,,,,63,2.9545,1,0,8,8,21,1,9,×,7,9 × 7,congruent,largerFirst,2,1,63,,,,,,,,
,,,,,,,,,,,,,,,817,2022-01-14_16h30.42.533,multiplicationStroop,2021.2.3,Win32,59.84798612,,,,,,,,,,,,,,,,,,,,,,,,,,,,,,,,,18,3.3882,1,0,9,9,11,1,3,×,6,3 × 6,congruent,smallerFirst,1,2,18,,,,,,,,
,,,,,,,,,,,,,,,817,2022-01-14_16h30.42.533,multiplicationStroop,2021.2.3,Win32,59.84798612,,,,,,,,,,,,,,,,,,,,,,,,,,,,,,,,,25,1.9144,1,0,10,10,31,1,5,×,5,5 × 5,neutral,tie,2,1,25,,,,,,,,
,,,,,,,,,,,,,,,817,2022-01-14_16h30.42.533,multiplicationStroop,2021.2.3,Win32,59.84798612,,,,,,,,,,,,,,,,,,,,,,,,,,,,,,,,,16,2.754,1,0,11,11,5,1,2,×,8,2 × 8,congruent,smallerFirst,1,2,16,,,,,,,,
,,,,,,,,,,,,,,,817,2022-01-14_16h30.42.533,multiplicationStroop,2021.2.3,Win32,59.84798612,,,,,,,,,,,,,,,,,,,,,,,,,,,,,,,,,15,1.8545,1,0,12,12,4,1,3,×,5,3 × 5,congruent,smallerFirst,1,2,15,,,,,,,,
,,,,,,,,,,,,,,,817,2022-01-14_16h30.42.533,multiplicationStroop,2021.2.3,Win32,59.84798612,,,,,,,,,,,,,,,,,,,,,,,,,,,,,,,,,56,5.0407,1,0,13,13,8,1,7,×,8,7 × 8,congruent,smallerFirst,1,2,56,,,,,,,,
,,,,,,,,,,,,,,,817,2022-01-14_16h30.42.533,multiplicationStroop,2021.2.3,Win32,59.84798612,,,,,,,,,,,,,,,,,,,,,,,,,,,,,,,,,30,2.1809,1,0,14,14,15,1,6,×,5,6 × 5,congruent,largerFirst,2,1,30,,,,,,,,
,,,,,,,,,,,,,,,817,2022-01-14_16h30.42.533,multiplicationStroop,2021.2.3,Win32,59.84798612,,,,,,,,,,,,,,,,,,,,,,,,,,,,,,,,,36,2.2197,1,0,15,15,32,1,6,×,6,6 × 6,neutral,tie,2,1,36,,,,,,,,
,,,,,,,,,,,,,,,817,2022-01-14_16h30.42.533,multiplicationStroop,2021.2.3,Win32,59.84798612,,,,,,,,,,,,,,,,,,,,,,,,,,,,,,,,,28,6.2604,1,0,16,16,27,1,7,×,4,7 × 4,congruent,largerFirst,2,1,28,,,,,,,,
,,,,,,,,,,,,,,,817,2022-01-14_16h30.42.533,multiplicationStroop,2021.2.3,Win32,59.84798612,,,,,,,,,,,,,,,,,,,,,,,,,,,,,,,,,24,1.9475,1,0,17,17,10,1,3,×,8,3 × 8,congruent,smallerFirst,1,2,24,,,,,,,,
,,,,,,,,,,,,,,,817,2022-01-14_16h30.42.533,multiplicationStroop,2021.2.3,Win32,59.84798612,,,,,,,,,,,,,,,,,,,,,,,,,,,,,,,,,45,1.7854,1,0,18,18,23,1,9,×,5,9 × 5,congruent,largerFirst,2,1,45,,,,,,,,
,,,,,,,,,,,,,,,817,2022-01-14_16h30.42.533,multiplicationStroop,2021.2.3,Win32,59.84798612,,,,,,,,,,,,,,,,,,,,,,,,,,,,,,,,,9,1.6528,1,0,19,19,29,1,3,×,3,3 × 3,neutral,tie,2,1,9,,,,,,,,
,,,,,,,,,,,,,,,817,2022-01-14_16h30.42.533,multiplicationStroop,2021.2.3,Win32,59.84798612,,,,,,,,,,,,,,,,,,,,,,,,,,,,,,,,,8,2.2534,1,0,20,20,9,1,2,×,4,2 × 4,congruent,smallerFirst,1,2,8,,,,,,,,
,,,,,,,,,,,,,,,817,2022-01-14_16h30.42.533,multiplicationStroop,2021.2.3,Win32,59.84798612,,,,,,,,,,,,,,,,,,,,,,,,,,,,,,,,,12,1.6859,1,0,21,21,2,1,3,×,4,3 × 4,congruent,smallerFirst,1,2,12,,,,,,,,
,,,,,,,,,,,,,,,817,2022-01-14_16h30.42.533,multiplicationStroop,2021.2.3,Win32,59.84798612,,,,,,,,,,,,,,,,,,,,,,,,,,,,,,,,,54,2.2203,1,0,22,22,12,1,6,×,9,6 × 9,congruent,smallerFirst,1,2,54,,,,,,,,
,,,,,,,,,,,,,,,817,2022-01-14_16h30.42.533,multiplicationStroop,2021.2.3,Win32,59.84798612,,,,,,,,,,,,,,,,,,,,,,,,,,,,,,,,,16,3.1049,1,0,23,23,30,1,4,×,4,4 × 4,neutral,tie,2,1,16,,,,,,,,
,,,,,,,,,,,,,,,817,2022-01-14_16h30.42.533,multiplicationStroop,2021.2.3,Win32,59.84798612,,,,,,,,,,,,,,,,,,,,,,,,,,,,,,,,,36,6.5276,1,0,24,24,0,1,4,×,9,4 × 9,congruent,smallerFirst,1,2,36,,,,,,,,
,,,,,,,,,,,,,,,817,2022-01-14_16h30.42.533,multiplicationStroop,2021.2.3,Win32,59.84798612,,,,,,,,,,,,,,,,,,,,,,,,,,,,,,,,,48,11.2448,1,0,25,25,18,1,8,×,6,8 × 6,congruent,largerFirst,2,1,48,,,,,,,,
,,,,,,,,,,,,,,,817,2022-01-14_16h30.42.533,multiplicationStroop,2021.2.3,Win32,59.84798612,,,,,,,,,,,,,,,,,,,,,,,,,,,,,,,,,14,2.2816,1,0,26,26,14,1,7,×,2,7 × 2,congruent,largerFirst,2,1,14,,,,,,,,
,,,,,,,,,,,,,,,817,2022-01-14_16h30.42.533,multiplicationStroop,2021.2.3,Win32,59.84798612,,,,,,,,,,,,,,,,,,,,,,,,,,,,,,,,,12,3.1549,1,0,27,27,19,1,6,×,2,6 × 2,congruent,largerFirst,2,1,12,,,,,,,,
,,,,,,,,,,,,,,,817,2022-01-14_16h30.42.533,multiplicationStroop,2021.2.3,Win32,59.84798612,,,,,,,,,,,,,,,,,,,,,,,,,,,,,,,,,4,1.6353,1,0,28,28,28,1,2,×,2,2 × 2,neutral,tie,2,1,4,,,,,,,,
,,,,,,,,,,,,,,,817,2022-01-14_16h30.42.533,multiplicationStroop,2021.2.3,Win32,59.84798612,,,,,,,,,,,,,,,,,,,,,,,,,,,,,,,,,72,2.4203,1,0,29,29,17,1,9,×,8,9 × 8,congruent,largerFirst,2,1,72,,,,,,,,
,,,,,,,,,,,,,,,817,2022-01-14_16h30.42.533,multiplicationStroop,2021.2.3,Win32,59.84798612,,,,,,,,,,,,,,,,,,,,,,,,,,,,,,,,,35,2.3876,1,0,30,30,1,1,5,×,7,5 × 7,congruent,smallerFirst,1,2,35,,,,,,,,
,,,,,,,,,,,,,,,817,2022-01-14_16h30.42.533,multiplicationStroop,2021.2.3,Win32,59.84798612,,,,,,,,,,,,,,,,,,,,,,,,,,,,,,,,,32,2.1196,1,0,31,31,20,1,8,×,4,8 × 4,congruent,largerFirst,2,1,32,,,,,,,,
,,,,,,,,,,,,,,,817,2022-01-14_16h30.42.533,multiplicationStroop,2021.2.3,Win32,59.84798612,,,,,,,,,,,,,,,,,,,,,,,,,,,,,,,,,10,1.7185,1,0,32,32,24,1,5,×,2,5 × 2,congruent,largerFirst,2,1,10,,,,,,,,
,,,,,,,,,,,,,,,817,2022-01-14_16h30.42.533,multiplicationStroop,2021.2.3,Win32,59.84798612,,,,,,,,,,,,,,,,,,,,,,,,,,,,,,,,,64,5.994,1,0,33,33,34,1,8,×,8,8 × 8,neutral,tie,2,1,64,,,,,,,,
,,,,,,,,,,,,,,,817,2022-01-14_16h30.42.533,multiplicationStroop,2021.2.3,Win32,59.84798612,,,,,,,,,,,,,,,,,,,,,,,,,,,,,,,,,21,2.4647,1,0,34,34,16,1,7,×,3,7 × 3,congruent,largerFirst,2,1,21,,,,,,,,
,,,,,,,,,,,,,,,817,2022-01-14_16h30.42.533,multiplicationStroop,2021.2.3,Win32,59.84798612,,,,,,,,,,,,,,,,,,,,,,,,,,,,,,,,,20,2.0305,1,0,35,35,7,1,4,×,5,4 × 5,congruent,smallerFirst,1,2,20,,,,,,,,
,,,,,,,,,,,,,,,817,2022-01-14_16h30.42.533,multiplicationStroop,2021.2.3,Win32,59.84798612,,,,,,,,,,,,,,,,,,,,,,,,,,,,,,,,,,,,,,,,,,,,,,,,,,0,4,4,2,1,stimulusFile/mult_blk3_congruent.xlsx,,
,,,,,,,,,,,,,,,817,2022-01-14_16h30.42.533,multiplicationStroop,2021.2.3,Win32,59.84798612,,,,,,,,,,,,,,,,,,,,,,,,,,,,,,,space,1.0611,42,4.1731,1,0,0,0,17,1,7,×,6,7 × 6,incongruent,largerFirst,1,2,42,,,,,,,,
,,,,,,,,,,,,,,,817,2022-01-14_16h30.42.533,multiplicationStroop,2021.2.3,Win32,59.84798612,,,,,,,,,,,,,,,,,,,,,,,,,,,,,,,,,54,2.8654,1,0,1,1,6,1,6,×,9,6 × 9,incongruent,smallerFirst,2,1,54,,,,,,,,
,,,,,,,,,,,,,,,817,2022-01-14_16h30.42.533,multiplicationStroop,2021.2.3,Win32,59.84798612,,,,,,,,,,,,,,,,,,,,,,,,,,,,,,,,,81,2.0477,1,0,2,2,35,1,9,×,9,9 × 9,incongruent,tie,1,2,81,,,,,,,,
,,,,,,,,,,,,,,,817,2022-01-14_16h30.42.533,multiplicationStroop,2021.2.3,Win32,59.84798612,,,,,,,,,,,,,,,,,,,,,,,,,,,,,,,,,12,2.8543,1,0,3,3,19,1,6,×,2,6 × 2,incongruent,largerFirst,1,2,12,,,,,,,,
,,,,,,,,,,,,,,,817,2022-01-14_16h30.42.533,multiplicationStroop,2021.2.3,Win32,59.84798612,,,,,,,,,,,,,,,,,,,,,,,,,,,,,,,,,15,1.702,1,0,4,4,10,1,3,×,5,3 × 5,incongruent,smallerFirst,2,1,15,,,,,,,,
,,,,,,,,,,,,,,,817,2022-01-14_16h30.42.533,multiplicationStroop,2021.2.3,Win32,59.84798612,,,,,,,,,,,,,,,,,,,,,,,,,,,,,,,,,48,2.5707,1,0,5,5,1,1,6,×,8,6 × 8,incongruent,smallerFirst,2,1,48,,,,,,,,
,,,,,,,,,,,,,,,817,2022-01-14_16h30.42.533,multiplicationStroop,2021.2.3,Win32,59.84798612,,,,,,,,,,,,,,,,,,,,,,,,,,,,,,,,,35,2.1538,1,0,6,6,12,1,5,×,7,5 × 7,incongruent,smallerFirst,2,1,35,,,,,,,,
,,,,,,,,,,,,,,,817,2022-01-14_16h30.42.533,multiplicationStroop,2021.2.3,Win32,59.84798612,,,,,,,,,,,,,,,,,,,,,,,,,,,,,,,,,64,6.5939,1,0,7,7,34,1,8,×,8,8 × 8,incongruent,tie,1,2,64,,,,,,,,
,,,,,,,,,,,,,,,817,2022-01-14_16h30.42.533,multiplicationStroop,2021.2.3,Win32,59.84798612,,,,,,,,,,,,,,,,,,,,,,,,,,,,,,,,,24,2.3135,1,0,8,8,20,1,6,×,4,6 × 4,incongruent,largerFirst,1,2,24,,,,,,,,
,,,,,,,,,,,,,,,817,2022-01-14_16h30.42.533,multiplicationStroop,2021.2.3,Win32,59.84798612,,,,,,,,,,,,,,,,,,,,,,,,,,,,,,,,,45,2.203,1,0,9,9,22,1,9,×,5,9 × 5,incongruent,largerFirst,1,2,45,,,,,,,,
,,,,,,,,,,,,,,,817,2022-01-14_16h30.42.533,multiplicationStroop,2021.2.3,Win32,59.84798612,,,,,,,,,,,,,,,,,,,,,,,,,,,,,,,,,10,1.8862,1,0,10,10,21,1,5,×,2,5 × 2,incongruent,largerFirst,1,2,10,,,,,,,,
,,,,,,,,,,,,,,,817,2022-01-14_16h30.42.533,multiplicationStroop,2021.2.3,Win32,59.84798612,,,,,,,,,,,,,,,,,,,,,,,,,,,,,,,,,72,2.3364,1,0,11,11,0,1,8,×,9,8 × 9,incongruent,smallerFirst,2,1,72,,,,,,,,
,,,,,,,,,,,,,,,817,2022-01-14_16h30.42.533,multiplicationStroop,2021.2.3,Win32,59.84798612,,,,,,,,,,,,,,,,,,,,,,,,,,,,,,,,,56,5.1919,1,0,12,12,14,1,8,×,7,8 × 7,incongruent,largerFirst,1,2,56,,,,,,,,
,,,,,,,,,,,,,,,817,2022-01-14_16h30.42.533,multiplicationStroop,2021.2.3,Win32,59.84798612,,,,,,,,,,,,,,,,,,,,,,,,,,,,,,,,,18,4.3846,1,0,13,13,8,1,3,×,6,3 × 6,incongruent,smallerFirst,2,1,18,,,,,,,,
,,,,,,,,,,,,,,,817,2022-01-14_16h30.42.533,multiplicationStroop,2021.2.3,Win32,59.84798612,,,,,,,,,,,,,,,,,,,,,,,,,,,,,,,,,4,1.63,1,0,14,14,28,1,2,×,2,2 × 2,incongruent,tie,1,2,4,,,,,,,,
,,,,,,,,,,,,,,,817,2022-01-14_16h30.42.533,multiplicationStroop,2021.2.3,Win32,59.84798612,,,,,,,,,,,,,,,,,,,,,,,,,,,,,,,,,36,3.4053,1,0,15,15,15,1,9,×,4,9 × 4,incongruent,largerFirst,1,2,36,,,,,,,,
,,,,,,,,,,,,,,,817,2022-01-14_16h30.42.533,multiplicationStroop,2021.2.3,Win32,59.84798612,,,,,,,,,,,,,,,,,,,,,,,,,,,,,,,,,63,4.2406,1,0,16,16,3,1,7,×,9,7 × 9,incongruent,smallerFirst,2,1,63,,,,,,,,
,,,,,,,,,,,,,,,817,2022-01-14_16h30.42.533,multiplicationStroop,2021.2.3,Win32,59.84798612,,,,,,,,,,,,,,,,,,,,,,,,,,,,,,,,,18,3.6164,1,0,17,17,2,1,2,×,9,2 × 9,incongruent,smallerFirst,2,1,18,,,,,,,,
,,,,,,,,,,,,,,,817,2022-01-14_16h30.42.533,multiplicationStroop,2021.2.3,Win32,59.84798612,,,,,,,,,,,,,,,,,,,,,,,,,,,,,,,,,20,2.5315,1,0,18,18,27,1,5,×,4,5 × 4,incongruent,largerFirst,1,2,20,,,,,,,,
,,,,,,,,,,,,,,,817,2022-01-14_16h30.42.533,multiplicationStroop,2021.2.3,Win32,59.84798612,,,,,,,,,,,,,,,,,,,,,,,,,,,,,,,,,27,2.949,1,0,19,19,18,1,9,×,3,9 × 3,incongruent,largerFirst,1,2,27,,,,,,,,
,,,,,,,,,,,,,,,817,2022-01-14_16h30.42.533,multiplicationStroop,2021.2.3,Win32,59.84798612,,,,,,,,,,,,,,,,,,,,,,,,,,,,,,,,,14,2.3365,1,0,20,20,4,1,2,×,7,2 × 7,incongruent,smallerFirst,2,1,14,,,,,,,,
,,,,,,,,,,,,,,,817,2022-01-14_16h30.42.533,multiplicationStroop,2021.2.3,Win32,59.84798612,,,,,,,,,,,,,,,,,,,,,,,,,,,,,,,,,25,2.1541,1,0,21,21,31,1,5,×,5,5 × 5,incongruent,tie,1,2,25,,,,,,,,
,,,,,,,,,,,,,,,817,2022-01-14_16h30.42.533,multiplicationStroop,2021.2.3,Win32,59.84798612,,,,,,,,,,,,,,,,,,,,,,,,,,,,,,,,,24,2.1529,1,0,22,22,9,1,3,×,8,3 × 8,incongruent,smallerFirst,2,1,24,,,,,,,,
,,,,,,,,,,,,,,,817,2022-01-14_16h30.42.533,multiplicationStroop,2021.2.3,Win32,59.84798612,,,,,,,,,,,,,,,,,,,,,,,,,,,,,,,,,8,2.1707,1,0,23,23,24,1,4,×,2,4 × 2,incongruent,largerFirst,1,2,8,,,,,,,,
,,,,,,,,,,,,,,,817,2022-01-14_16h30.42.533,multiplicationStroop,2021.2.3,Win32,59.84798612,,,,,,,,,,,,,,,,,,,,,,,,,,,,,,,,,9,1.7351,1,0,24,24,29,1,3,×,3,3 × 3,incongruent,tie,1,2,9,,,,,,,,
,,,,,,,,,,,,,,,817,2022-01-14_16h30.42.533,multiplicationStroop,2021.2.3,Win32,59.84798612,,,,,,,,,,,,,,,,,,,,,,,,,,,,,,,,,32,5.6265,1,0,25,25,7,1,4,×,8,4 × 8,incongruent,smallerFirst,2,1,32,,,,,,,,
,,,,,,,,,,,,,,,817,2022-01-14_16h30.42.533,multiplicationStroop,2021.2.3,Win32,59.84798612,,,,,,,,,,,,,,,,,,,,,,,,,,,,,,,,,16,5.1855,1,0,26,26,23,1,8,×,2,8 × 2,incongruent,largerFirst,1,2,16,,,,,,,,
,,,,,,,,,,,,,,,817,2022-01-14_16h30.42.533,multiplicationStroop,2021.2.3,Win32,59.84798612,,,,,,,,,,,,,,,,,,,,,,,,,,,,,,,,,36,2.2135,1,0,27,27,32,1,6,×,6,6 × 6,incongruent,tie,1,2,36,,,,,,,,
,,,,,,,,,,,,,,,817,2022-01-14_16h30.42.533,multiplicationStroop,2021.2.3,Win32,59.84798612,,,,,,,,,,,,,,,,,,,,,,,,,,,,,,,,,30,2.0704,1,0,28,28,25,1,6,×,5,6 × 5,incongruent,largerFirst,1,2,30,,,,,,,,
,,,,,,,,,,,,,,,817,2022-01-14_16h30.42.533,multiplicationStroop,2021.2.3,Win32,59.84798612,,,,,,,,,,,,,,,,,,,,,,,,,,,,,,,,,16,2.2863,1,0,29,29,30,1,4,×,4,4 × 4,incongruent,tie,1,2,16,,,,,,,,
,,,,,,,,,,,,,,,817,2022-01-14_16h30.42.533,multiplicationStroop,2021.2.3,Win32,59.84798612,,,,,,,,,,,,,,,,,,,,,,,,,,,,,,,,,6,3.973,1,0,30,30,11,1,2,×,3,2 × 3,incongruent,smallerFirst,2,1,6,,,,,,,,
,,,,,,,,,,,,,,,817,2022-01-14_16h30.42.533,multiplicationStroop,2021.2.3,Win32,59.84798612,,,,,,,,,,,,,,,,,,,,,,,,,,,,,,,,,40,2.3157,1,0,31,31,13,1,5,×,8,5 × 8,incongruent,smallerFirst,2,1,40,,,,,,,,
,,,,,,,,,,,,,,,817,2022-01-14_16h30.42.533,multiplicationStroop,2021.2.3,Win32,59.84798612,,,,,,,,,,,,,,,,,,,,,,,,,,,,,,,,,12,2.2524,1,0,32,32,5,1,3,×,4,3 × 4,incongruent,smallerFirst,2,1,12,,,,,,,,
,,,,,,,,,,,,,,,817,2022-01-14_16h30.42.533,multiplicationStroop,2021.2.3,Win32,59.84798612,,,,,,,,,,,,,,,,,,,,,,,,,,,,,,,,,21,5.2774,1,0,33,33,26,1,7,×,3,7 × 3,incongruent,largerFirst,1,2,21,,,,,,,,
,,,,,,,,,,,,,,,817,2022-01-14_16h30.42.533,multiplicationStroop,2021.2.3,Win32,59.84798612,,,,,,,,,,,,,,,,,,,,,,,,,,,,,,,,,49,2.3298,1,0,34,34,33,1,7,×,7,7 × 7,incongruent,tie,1,2,49,,,,,,,,
,,,,,,,,,,,,,,,817,2022-01-14_16h30.42.533,multiplicationStroop,2021.2.3,Win32,59.84798612,,,,,,,,,,,,,,,,,,,,,,,,,,,,,,,,,28,6.1097,1,0,35,35,16,1,7,×,4,7 × 4,incongruent,largerFirst,1,2,28,,,,,,,,
,,,,,,,,,,,,,,,817,2022-01-14_16h30.42.533,multiplicationStroop,2021.2.3,Win32,59.84798612,,,,,,,,,,,,,,,,,,,,,,,,,,,,,,,,,,,,,,,,,,,,,,,,,,0,5,5,5,1,stimulusFile/mult_blk6_INcongruent.xlsx,,
,,,,,,,,,,,,,,,817,2022-01-14_16h30.42.533,multiplicationStroop,2021.2.3,Win32,59.84798612,,,,,,,,,,,,,,,,,,,,,,,,,,,,,,,,,,,,,,,,,,,,,,,,,,,,,,,,space,3.1077