welcomeKey_resp.keys,welcomeKey_resp.rt,X Scale,Y Scale,rt_resp_4.keys,rt_resp_4.corr,rt_resp_4.rt,speedtest_2.thisRepN,speedtest_2.thisTrialN,speedtest_2.thisN,speedtest_2.thisIndex,speedtest_2.ran,numberSc,posX,positionLayout,participant,date,expName,psychopyVersion,OS,frameRate,ct_instrresp.keys,ct_instrresp.rt,key_resp_2.keys,key_resp_2.rt,ct_keyResp.keys,ct_keyResp.corr,ct_keyResp.rt,trials.thisRepN,trials.thisTrialN,trials.thisN,trials.thisIndex,trials.ran,leftNo,rightNo,displayProblem,numDistance,leftNo_size,rightNo_size,Dims,keyAnswer,TS_Loop.thisRepN,TS_Loop.thisTrialN,TS_Loop.thisN,TS_Loop.thisIndex,TS_Loop.ran,Condition,ActionInst,instrImage,mltptaskInst_resp.keys,mltptaskInst_resp.rt,continue_resp_2.keys,continue_resp_2.rt,multp_Answer,multi_RT,multiplyCorr,LoopingMultiply.thisRepN,LoopingMultiply.thisTrialN,LoopingMultiply.thisN,LoopingMultiply.thisIndex,LoopingMultiply.ran,factor1,multiplySign,factor2,multliplyProblem,physicalSize,orderOperand,sizeF1,sizeF2,mult_answer,trials_stroop.thisRepN,trials_stroop.thisTrialN,trials_stroop.thisN,trials_stroop.thisIndex,trials_stroop.ran,multiplicationFile,esckey_resp_2.keys,esckey_resp_2.rt
y,6.3661,59.9,55.1,left,1,0.442,0,0,0,4,1,6,-200,left,818,2022-01-18_14h34.44.258,multiplicationStroop,2021.2.3,MacIntel,59.99880002,,,,,,,,,,,,,,,,,,,,,,,,,,,,,,,,,,,,,,,,,,,,,,,,,,,,,,,,,
,,,,right,1,0.3664,0,1,1,8,1,1,200,right,818,2022-01-18_14h34.44.258,multiplicationStroop,2021.2.3,MacIntel,59.99880002,,,,,,,,,,,,,,,,,,,,,,,,,,,,,,,,,,,,,,,,,,,,,,,,,,,,,,,,,
,,,,right,1,0.3726,0,2,2,13,1,7,200,right,818,2022-01-18_14h34.44.258,multiplicationStroop,2021.2.3,MacIntel,59.99880002,,,,,,,,,,,,,,,,,,,,,,,,,,,,,,,,,,,,,,,,,,,,,,,,,,,,,,,,,
,,,,right,1,0.3513,0,3,3,10,1,3,200,right,818,2022-01-18_14h34.44.258,multiplicationStroop,2021.2.3,MacIntel,59.99880002,,,,,,,,,,,,,,,,,,,,,,,,,,,,,,,,,,,,,,,,,,,,,,,,,,,,,,,,,
,,,,right,1,0.3055,0,4,4,15,1,9,200,right,818,2022-01-18_14h34.44.258,multiplicationStroop,2021.2.3,MacIntel,59.99880002,,,,,,,,,,,,,,,,,,,,,,,,,,,,,,,,,,,,,,,,,,,,,,,,,,,,,,,,,
,,,,left,1,0.4521,0,5,5,7,1,9,-200,left,818,2022-01-18_14h34.44.258,multiplicationStroop,2021.2.3,MacIntel,59.99880002,,,,,,,,,,,,,,,,,,,,,,,,,,,,,,,,,,,,,,,,,,,,,,,,,,,,,,,,,
,,,,right,1,0.3359,0,6,6,14,1,8,200,right,818,2022-01-18_14h34.44.258,multiplicationStroop,2021.2.3,MacIntel,59.99880002,,,,,,,,,,,,,,,,,,,,,,,,,,,,,,,,,,,,,,,,,,,,,,,,,,,,,,,,,
,,,,left,1,0.3801,0,7,7,2,1,3,-200,left,818,2022-01-18_14h34.44.258,multiplicationStroop,2021.2.3,MacIntel,59.99880002,,,,,,,,,,,,,,,,,,,,,,,,,,,,,,,,,,,,,,,,,,,,,,,,,,,,,,,,,
,,,,right,1,0.4653,0,8,8,9,1,2,200,right,818,2022-01-18_14h34.44.258,multiplicationStroop,2021.2.3,MacIntel,59.99880002,,,,,,,,,,,,,,,,,,,,,,,,,,,,,,,,,,,,,,,,,,,,,,,,,,,,,,,,,
,,,,left,1,0.3688,0,9,9,1,1,2,-200,left,818,2022-01-18_14h34.44.258,multiplicationStroop,2021.2.3,MacIntel,59.99880002,,,,,,,,,,,,,,,,,,,,,,,,,,,,,,,,,,,,,,,,,,,,,,,,,,,,,,,,,
,,,,left,1,0.3969,0,10,10,0,1,1,-200,left,818,2022-01-18_14h34.44.258,multiplicationStroop,2021.2.3,MacIntel,59.99880002,,,,,,,,,,,,,,,,,,,,,,,,,,,,,,,,,,,,,,,,,,,,,,,,,,,,,,,,,
,,,,right,1,0.3549,0,11,11,12,1,6,200,right,818,2022-01-18_14h34.44.258,multiplicationStroop,2021.2.3,MacIntel,59.99880002,,,,,,,,,,,,,,,,,,,,,,,,,,,,,,,,,,,,,,,,,,,,,,,,,,,,,,,,,
,,,,right,1,0.4169,0,12,12,11,1,4,200,right,818,2022-01-18_14h34.44.258,multiplicationStroop,2021.2.3,MacIntel,59.99880002,,,,,,,,,,,,,,,,,,,,,,,,,,,,,,,,,,,,,,,,,,,,,,,,,,,,,,,,,
,,,,left,1,0.3741,0,13,13,5,1,7,-200,left,818,2022-01-18_14h34.44.258,multiplicationStroop,2021.2.3,MacIntel,59.99880002,,,,,,,,,,,,,,,,,,,,,,,,,,,,,,,,,,,,,,,,,,,,,,,,,,,,,,,,,
,,,,left,1,0.4159,0,14,14,6,1,8,-200,left,818,2022-01-18_14h34.44.258,multiplicationStroop,2021.2.3,MacIntel,59.99880002,,,,,,,,,,,,,,,,,,,,,,,,,,,,,,,,,,,,,,,,,,,,,,,,,,,,,,,,,
,,,,left,1,0.3466,0,15,15,3,1,4,-200,left,818,2022-01-18_14h34.44.258,multiplicationStroop,2021.2.3,MacIntel,59.99880002,,,,,,,,,,,,,,,,,,,,,,,,,,,,,,,,,,,,,,,,,,,,,,,,,,,,,,,,,
,,,,right,1,0.3825,1,0,16,13,1,7,200,right,818,2022-01-18_14h34.44.258,multiplicationStroop,2021.2.3,MacIntel,59.99880002,,,,,,,,,,,,,,,,,,,,,,,,,,,,,,,,,,,,,,,,,,,,,,,,,,,,,,,,,
,,,,left,1,0.3675,1,1,17,1,1,2,-200,left,818,2022-01-18_14h34.44.258,multiplicationStroop,2021.2.3,MacIntel,59.99880002,,,,,,,,,,,,,,,,,,,,,,,,,,,,,,,,,,,,,,,,,,,,,,,,,,,,,,,,,
,,,,left,1,0.3822,1,2,18,3,1,4,-200,left,818,2022-01-18_14h34.44.258,multiplicationStroop,2021.2.3,MacIntel,59.99880002,,,,,,,,,,,,,,,,,,,,,,,,,,,,,,,,,,,,,,,,,,,,,,,,,,,,,,,,,
,,,,right,1,0.3747,1,3,19,14,1,8,200,right,818,2022-01-18_14h34.44.258,multiplicationStroop,2021.2.3,MacIntel,59.99880002,,,,,,,,,,,,,,,,,,,,,,,,,,,,,,,,,,,,,,,,,,,,,,,,,,,,,,,,,
,,,,left,1,0.3198,1,4,20,0,1,1,-200,left,818,2022-01-18_14h34.44.258,multiplicationStroop,2021.2.3,MacIntel,59.99880002,,,,,,,,,,,,,,,,,,,,,,,,,,,,,,,,,,,,,,,,,,,,,,,,,,,,,,,,,
,,,,left,1,0.3532,1,5,21,5,1,7,-200,left,818,2022-01-18_14h34.44.258,multiplicationStroop,2021.2.3,MacIntel,59.99880002,,,,,,,,,,,,,,,,,,,,,,,,,,,,,,,,,,,,,,,,,,,,,,,,,,,,,,,,,
,,,,right,1,0.3476,1,6,22,8,1,1,200,right,818,2022-01-18_14h34.44.258,multiplicationStroop,2021.2.3,MacIntel,59.99880002,,,,,,,,,,,,,,,,,,,,,,,,,,,,,,,,,,,,,,,,,,,,,,,,,,,,,,,,,
,,,,left,1,0.3055,1,7,23,6,1,8,-200,left,818,2022-01-18_14h34.44.258,multiplicationStroop,2021.2.3,MacIntel,59.99880002,,,,,,,,,,,,,,,,,,,,,,,,,,,,,,,,,,,,,,,,,,,,,,,,,,,,,,,,,
,,,,left,1,0.3317,1,8,24,2,1,3,-200,left,818,2022-01-18_14h34.44.258,multiplicationStroop,2021.2.3,MacIntel,59.99880002,,,,,,,,,,,,,,,,,,,,,,,,,,,,,,,,,,,,,,,,,,,,,,,,,,,,,,,,,
,,,,right,1,0.3014,1,9,25,11,1,4,200,right,818,2022-01-18_14h34.44.258,multiplicationStroop,2021.2.3,MacIntel,59.99880002,,,,,,,,,,,,,,,,,,,,,,,,,,,,,,,,,,,,,,,,,,,,,,,,,,,,,,,,,
,,,,right,1,0.4154,1,10,26,12,1,6,200,right,818,2022-01-18_14h34.44.258,multiplicationStroop,2021.2.3,MacIntel,59.99880002,,,,,,,,,,,,,,,,,,,,,,,,,,,,,,,,,,,,,,,,,,,,,,,,,,,,,,,,,
,,,,left,1,0.3994,1,11,27,7,1,9,-200,left,818,2022-01-18_14h34.44.258,multiplicationStroop,2021.2.3,MacIntel,59.99880002,,,,,,,,,,,,,,,,,,,,,,,,,,,,,,,,,,,,,,,,,,,,,,,,,,,,,,,,,
,,,,right,1,0.3646,1,12,28,9,1,2,200,right,818,2022-01-18_14h34.44.258,multiplicationStroop,2021.2.3,MacIntel,59.99880002,,,,,,,,,,,,,,,,,,,,,,,,,,,,,,,,,,,,,,,,,,,,,,,,,,,,,,,,,
,,,,right,1,0.3988,1,13,29,10,1,3,200,right,818,2022-01-18_14h34.44.258,multiplicationStroop,2021.2.3,MacIntel,59.99880002,,,,,,,,,,,,,,,,,,,,,,,,,,,,,,,,,,,,,,,,,,,,,,,,,,,,,,,,,
,,,,left,1,0.367,1,14,30,4,1,6,-200,left,818,2022-01-18_14h34.44.258,multiplicationStroop,2021.2.3,MacIntel,59.99880002,,,,,,,,,,,,,,,,,,,,,,,,,,,,,,,,,,,,,,,,,,,,,,,,,,,,,,,,,
,,,,right,1,0.3325,1,15,31,15,1,9,200,right,818,2022-01-18_14h34.44.258,multiplicationStroop,2021.2.3,MacIntel,59.99880002,,,,,,,,,,,,,,,,,,,,,,,,,,,,,,,,,,,,,,,,,,,,,,,,,,,,,,,,,
,,,,right,1,0.3307,2,0,32,10,1,3,200,right,818,2022-01-18_14h34.44.258,multiplicationStroop,2021.2.3,MacIntel,59.99880002,,,,,,,,,,,,,,,,,,,,,,,,,,,,,,,,,,,,,,,,,,,,,,,,,,,,,,,,,
,,,,right,1,0.4056,2,1,33,14,1,8,200,right,818,2022-01-18_14h34.44.258,multiplicationStroop,2021.2.3,MacIntel,59.99880002,,,,,,,,,,,,,,,,,,,,,,,,,,,,,,,,,,,,,,,,,,,,,,,,,,,,,,,,,
,,,,right,1,0.3514,2,2,34,13,1,7,200,right,818,2022-01-18_14h34.44.258,multiplicationStroop,2021.2.3,MacIntel,59.99880002,,,,,,,,,,,,,,,,,,,,,,,,,,,,,,,,,,,,,,,,,,,,,,,,,,,,,,,,,
,,,,right,1,0.2992,2,3,35,11,1,4,200,right,818,2022-01-18_14h34.44.258,multiplicationStroop,2021.2.3,MacIntel,59.99880002,,,,,,,,,,,,,,,,,,,,,,,,,,,,,,,,,,,,,,,,,,,,,,,,,,,,,,,,,
,,,,left,1,0.5649,2,4,36,7,1,9,-200,left,818,2022-01-18_14h34.44.258,multiplicationStroop,2021.2.3,MacIntel,59.99880002,,,,,,,,,,,,,,,,,,,,,,,,,,,,,,,,,,,,,,,,,,,,,,,,,,,,,,,,,
,,,,right,1,0.45,2,5,37,8,1,1,200,right,818,2022-01-18_14h34.44.258,multiplicationStroop,2021.2.3,MacIntel,59.99880002,,,,,,,,,,,,,,,,,,,,,,,,,,,,,,,,,,,,,,,,,,,,,,,,,,,,,,,,,
,,,,left,1,0.3473,2,6,38,3,1,4,-200,left,818,2022-01-18_14h34.44.258,multiplicationStroop,2021.2.3,MacIntel,59.99880002,,,,,,,,,,,,,,,,,,,,,,,,,,,,,,,,,,,,,,,,,,,,,,,,,,,,,,,,,
,,,,right,1,0.3368,2,7,39,15,1,9,200,right,818,2022-01-18_14h34.44.258,multiplicationStroop,2021.2.3,MacIntel,59.99880002,,,,,,,,,,,,,,,,,,,,,,,,,,,,,,,,,,,,,,,,,,,,,,,,,,,,,,,,,
,,,,right,1,0.4011,2,8,40,12,1,6,200,right,818,2022-01-18_14h34.44.258,multiplicationStroop,2021.2.3,MacIntel,59.99880002,,,,,,,,,,,,,,,,,,,,,,,,,,,,,,,,,,,,,,,,,,,,,,,,,,,,,,,,,
,,,,right,0,0.4013,2,9,41,2,1,3,-200,left,818,2022-01-18_14h34.44.258,multiplicationStroop,2021.2.3,MacIntel,59.99880002,,,,,,,,,,,,,,,,,,,,,,,,,,,,,,,,,,,,,,,,,,,,,,,,,,,,,,,,,
,,,,right,1,0.9136,2,10,42,9,1,2,200,right,818,2022-01-18_14h34.44.258,multiplicationStroop,2021.2.3,MacIntel,59.99880002,,,,,,,,,,,,,,,,,,,,,,,,,,,,,,,,,,,,,,,,,,,,,,,,,,,,,,,,,
,,,,left,1,0.3312,2,11,43,6,1,8,-200,left,818,2022-01-18_14h34.44.258,multiplicationStroop,2021.2.3,MacIntel,59.99880002,,,,,,,,,,,,,,,,,,,,,,,,,,,,,,,,,,,,,,,,,,,,,,,,,,,,,,,,,
,,,,left,1,0.4347,2,12,44,1,1,2,-200,left,818,2022-01-18_14h34.44.258,multiplicationStroop,2021.2.3,MacIntel,59.99880002,,,,,,,,,,,,,,,,,,,,,,,,,,,,,,,,,,,,,,,,,,,,,,,,,,,,,,,,,
,,,,left,1,0.3906,2,13,45,4,1,6,-200,left,818,2022-01-18_14h34.44.258,multiplicationStroop,2021.2.3,MacIntel,59.99880002,,,,,,,,,,,,,,,,,,,,,,,,,,,,,,,,,,,,,,,,,,,,,,,,,,,,,,,,,
,,,,left,1,0.3794,2,14,46,0,1,1,-200,left,818,2022-01-18_14h34.44.258,multiplicationStroop,2021.2.3,MacIntel,59.99880002,,,,,,,,,,,,,,,,,,,,,,,,,,,,,,,,,,,,,,,,,,,,,,,,,,,,,,,,,
,,,,left,1,0.3317,2,15,47,5,1,7,-200,left,818,2022-01-18_14h34.44.258,multiplicationStroop,2021.2.3,MacIntel,59.99880002,,,,,,,,,,,,,,,,,,,,,,,,,,,,,,,,,,,,,,,,,,,,,,,,,,,,,,,,,
,,,,right,1,0.399,3,0,48,14,1,8,200,right,818,2022-01-18_14h34.44.258,multiplicationStroop,2021.2.3,MacIntel,59.99880002,,,,,,,,,,,,,,,,,,,,,,,,,,,,,,,,,,,,,,,,,,,,,,,,,,,,,,,,,
,,,,left,1,0.3312,3,1,49,1,1,2,-200,left,818,2022-01-18_14h34.44.258,multiplicationStroop,2021.2.3,MacIntel,59.99880002,,,,,,,,,,,,,,,,,,,,,,,,,,,,,,,,,,,,,,,,,,,,,,,,,,,,,,,,,
,,,,right,1,0.3013,3,2,50,13,1,7,200,right,818,2022-01-18_14h34.44.258,multiplicationStroop,2021.2.3,MacIntel,59.99880002,,,,,,,,,,,,,,,,,,,,,,,,,,,,,,,,,,,,,,,,,,,,,,,,,,,,,,,,,
,,,,right,1,0.4225,3,3,51,12,1,6,200,right,818,2022-01-18_14h34.44.258,multiplicationStroop,2021.2.3,MacIntel,59.99880002,,,,,,,,,,,,,,,,,,,,,,,,,,,,,,,,,,,,,,,,,,,,,,,,,,,,,,,,,
,,,,left,1,0.535,3,4,52,6,1,8,-200,left,818,2022-01-18_14h34.44.258,multiplicationStroop,2021.2.3,MacIntel,59.99880002,,,,,,,,,,,,,,,,,,,,,,,,,,,,,,,,,,,,,,,,,,,,,,,,,,,,,,,,,
,,,,left,1,0.4543,3,5,53,4,1,6,-200,left,818,2022-01-18_14h34.44.258,multiplicationStroop,2021.2.3,MacIntel,59.99880002,,,,,,,,,,,,,,,,,,,,,,,,,,,,,,,,,,,,,,,,,,,,,,,,,,,,,,,,,
,,,,left,1,0.3712,3,6,54,2,1,3,-200,left,818,2022-01-18_14h34.44.258,multiplicationStroop,2021.2.3,MacIntel,59.99880002,,,,,,,,,,,,,,,,,,,,,,,,,,,,,,,,,,,,,,,,,,,,,,,,,,,,,,,,,
,,,,left,1,0.3824,3,7,55,5,1,7,-200,left,818,2022-01-18_14h34.44.258,multiplicationStroop,2021.2.3,MacIntel,59.99880002,,,,,,,,,,,,,,,,,,,,,,,,,,,,,,,,,,,,,,,,,,,,,,,,,,,,,,,,,
,,,,left,1,0.3197,3,8,56,3,1,4,-200,left,818,2022-01-18_14h34.44.258,multiplicationStroop,2021.2.3,MacIntel,59.99880002,,,,,,,,,,,,,,,,,,,,,,,,,,,,,,,,,,,,,,,,,,,,,,,,,,,,,,,,,
,,,,left,1,0.2659,3,9,57,0,1,1,-200,left,818,2022-01-18_14h34.44.258,multiplicationStroop,2021.2.3,MacIntel,59.99880002,,,,,,,,,,,,,,,,,,,,,,,,,,,,,,,,,,,,,,,,,,,,,,,,,,,,,,,,,
,,,,right,1,0.4827,3,10,58,10,1,3,200,right,818,2022-01-18_14h34.44.258,multiplicationStroop,2021.2.3,MacIntel,59.99880002,,,,,,,,,,,,,,,,,,,,,,,,,,,,,,,,,,,,,,,,,,,,,,,,,,,,,,,,,
,,,,right,1,0.3478,3,11,59,11,1,4,200,right,818,2022-01-18_14h34.44.258,multiplicationStroop,2021.2.3,MacIntel,59.99880002,,,,,,,,,,,,,,,,,,,,,,,,,,,,,,,,,,,,,,,,,,,,,,,,,,,,,,,,,
,,,,right,1,0.3382,3,12,60,8,1,1,200,right,818,2022-01-18_14h34.44.258,multiplicationStroop,2021.2.3,MacIntel,59.99880002,,,,,,,,,,,,,,,,,,,,,,,,,,,,,,,,,,,,,,,,,,,,,,,,,,,,,,,,,
,,,,right,1,0.3826,3,13,61,15,1,9,200,right,818,2022-01-18_14h34.44.258,multiplicationStroop,2021.2.3,MacIntel,59.99880002,,,,,,,,,,,,,,,,,,,,,,,,,,,,,,,,,,,,,,,,,,,,,,,,,,,,,,,,,
,,,,right,1,0.3661,3,14,62,9,1,2,200,right,818,2022-01-18_14h34.44.258,multiplicationStroop,2021.2.3,MacIntel,59.99880002,,,,,,,,,,,,,,,,,,,,,,,,,,,,,,,,,,,,,,,,,,,,,,,,,,,,,,,,,
,,,,left,1,0.721,3,15,63,7,1,9,-200,left,818,2022-01-18_14h34.44.258,multiplicationStroop,2021.2.3,MacIntel,59.99880002,,,,,,,,,,,,,,,,,,,,,,,,,,,,,,,,,,,,,,,,,,,,,,,,,,,,,,,,,
,,,,,,,,,,,,,,,818,2022-01-18_14h34.44.258,multiplicationStroop,2021.2.3,MacIntel,59.99880002,space,9.4388,space,3.5468,right,1,0.5551,0,0,0,10,1,6,8,6 | 8,2,1.4111,1.9756,congruent,right,,,,,,stimulusFile/physical.xlsx,,,,,,,,,,,,,,,,,,,,,,,,,,,,,,,
,,,,,,,,,,,,,,,818,2022-01-18_14h34.44.258,multiplicationStroop,2021.2.3,MacIntel,59.99880002,,,,,right,1,0.5844,0,1,1,57,1,2,2,2 | 2,0,1.4111,1.9756,neutral,right,,,,,,stimulusFile/physical.xlsx,,,,,,,,,,,,,,,,,,,,,,,,,,,,,,,
,,,,,,,,,,,,,,,818,2022-01-18_14h34.44.258,multiplicationStroop,2021.2.3,MacIntel,59.99880002,,,,,right,1,0.8371,0,2,2,45,1,7,2,7 | 2,5,1.4111,1.9756,incongruent,right,,,,,,stimulusFile/physical.xlsx,,,,,,,,,,,,,,,,,,,,,,,,,,,,,,,
,,,,,,,,,,,,,,,818,2022-01-18_14h34.44.258,multiplicationStroop,2021.2.3,MacIntel,59.99880002,,,,,right,1,0.6176,0,3,3,3,1,8,9,8 | 9,1,1.4111,1.9756,congruent,right,,,,,,stimulusFile/physical.xlsx,,,,,,,,,,,,,,,,,,,,,,,,,,,,,,,
,,,,,,,,,,,,,,,818,2022-01-18_14h34.44.258,multiplicationStroop,2021.2.3,MacIntel,59.99880002,,,,,left,1,0.488,0,4,4,33,1,2,4,2 | 4,2,1.9756,1.4111,incongruent,left,,,,,,stimulusFile/physical.xlsx,,,,,,,,,,,,,,,,,,,,,,,,,,,,,,,
,,,,,,,,,,,,,,,818,2022-01-18_14h34.44.258,multiplicationStroop,2021.2.3,MacIntel,59.99880002,,,,,left,1,0.4922,0,5,5,48,1,1,1,1 | 1,0,1.9756,1.4111,neutral,left,,,,,,stimulusFile/physical.xlsx,,,,,,,,,,,,,,,,,,,,,,,,,,,,,,,
,,,,,,,,,,,,,,,818,2022-01-18_14h34.44.258,multiplicationStroop,2021.2.3,MacIntel,59.99880002,,,,,left,1,0.4838,0,6,6,52,1,2,2,2 | 2,0,1.9756,1.4111,neutral,left,,,,,,stimulusFile/physical.xlsx,,,,,,,,,,,,,,,,,,,,,,,,,,,,,,,
,,,,,,,,,,,,,,,818,2022-01-18_14h34.44.258,multiplicationStroop,2021.2.3,MacIntel,59.99880002,,,,,left,1,0.4527,0,7,7,21,1,7,2,7 | 2,5,1.9756,1.4111,congruent,left,,,,,,stimulusFile/physical.xlsx,,,,,,,,,,,,,,,,,,,,,,,,,,,,,,,
,,,,,,,,,,,,,,,818,2022-01-18_14h34.44.258,multiplicationStroop,2021.2.3,MacIntel,59.99880002,,,,,right,1,0.516,0,8,8,38,1,8,6,8 | 6,2,1.4111,1.9756,incongruent,right,,,,,,stimulusFile/physical.xlsx,,,,,,,,,,,,,,,,,,,,,,,,,,,,,,,
,,,,,,,,,,,,,,,818,2022-01-18_14h34.44.258,multiplicationStroop,2021.2.3,MacIntel,59.99880002,,,,,right,1,0.6938,0,9,9,29,1,4,3,4 | 3,1,1.4111,1.9756,incongruent,right,,,,,,stimulusFile/physical.xlsx,,,,,,,,,,,,,,,,,,,,,,,,,,,,,,,
,,,,,,,,,,,,,,,818,2022-01-18_14h34.44.258,multiplicationStroop,2021.2.3,MacIntel,59.99880002,,,,,left,1,0.4845,0,10,10,23,1,9,4,9 | 4,5,1.9756,1.4111,congruent,left,,,,,,stimulusFile/physical.xlsx,,,,,,,,,,,,,,,,,,,,,,,,,,,,,,,
,,,,,,,,,,,,,,,818,2022-01-18_14h34.44.258,multiplicationStroop,2021.2.3,MacIntel,59.99880002,,,,,right,1,0.6145,0,11,11,63,1,9,9,9 | 9,0,1.4111,1.9756,neutral,right,,,,,,stimulusFile/physical.xlsx,,,,,,,,,,,,,,,,,,,,,,,,,,,,,,,
,,,,,,,,,,,,,,,818,2022-01-18_14h34.44.258,multiplicationStroop,2021.2.3,MacIntel,59.99880002,,,,,left,1,0.3969,0,12,12,51,1,8,8,8 | 8,0,1.9756,1.4111,neutral,left,,,,,,stimulusFile/physical.xlsx,,,,,,,,,,,,,,,,,,,,,,,,,,,,,,,
,,,,,,,,,,,,,,,818,2022-01-18_14h34.44.258,multiplicationStroop,2021.2.3,MacIntel,59.99880002,,,,,left,1,0.614,0,13,13,5,1,4,3,4 | 3,1,1.9756,1.4111,congruent,left,,,,,,stimulusFile/physical.xlsx,,,,,,,,,,,,,,,,,,,,,,,,,,,,,,,
,,,,,,,,,,,,,,,818,2022-01-18_14h34.44.258,multiplicationStroop,2021.2.3,MacIntel,59.99880002,,,,,right,1,0.5014,0,14,14,2,1,6,7,6 | 7,1,1.4111,1.9756,congruent,right,,,,,,stimulusFile/physical.xlsx,,,,,,,,,,,,,,,,,,,,,,,,,,,,,,,
,,,,,,,,,,,,,,,818,2022-01-18_14h34.44.258,multiplicationStroop,2021.2.3,MacIntel,59.99880002,,,,,left,1,0.5493,0,15,15,50,1,6,6,6 | 6,0,1.9756,1.4111,neutral,left,,,,,,stimulusFile/physical.xlsx,,,,,,,,,,,,,,,,,,,,,,,,,,,,,,,
,,,,,,,,,,,,,,,818,2022-01-18_14h34.44.258,multiplicationStroop,2021.2.3,MacIntel,59.99880002,,,,,right,1,0.4111,0,16,16,16,1,1,6,1 | 6,5,1.4111,1.9756,congruent,right,,,,,,stimulusFile/physical.xlsx,,,,,,,,,,,,,,,,,,,,,,,,,,,,,,,
,,,,,,,,,,,,,,,818,2022-01-18_14h34.44.258,multiplicationStroop,2021.2.3,MacIntel,59.99880002,,,,,left,1,0.3807,0,17,17,40,1,1,6,1 | 6,5,1.9756,1.4111,incongruent,left,,,,,,stimulusFile/physical.xlsx,,,,,,,,,,,,,,,,,,,,,,,,,,,,,,,
,,,,,,,,,,,,,,,818,2022-01-18_14h34.44.258,multiplicationStroop,2021.2.3,MacIntel,59.99880002,,,,,right,0,0.4508,0,18,18,71,1,9,9,9 | 9,0,1.4111,1.9756,neutral,left,,,,,,stimulusFile/physical.xlsx,,,,,,,,,,,,,,,,,,,,,,,,,,,,,,,
,,,,,,,,,,,,,,,818,2022-01-18_14h34.44.258,multiplicationStroop,2021.2.3,MacIntel,59.99880002,,,,,right,1,0.7212,0,19,19,8,1,1,3,1 | 3,2,1.4111,1.9756,congruent,right,,,,,,stimulusFile/physical.xlsx,,,,,,,,,,,,,,,,,,,,,,,,,,,,,,,
,,,,,,,,,,,,,,,818,2022-01-18_14h34.44.258,multiplicationStroop,2021.2.3,MacIntel,59.99880002,,,,,right,1,0.6136,0,20,20,1,1,3,4,3 | 4,1,1.4111,1.9756,congruent,right,,,,,,stimulusFile/physical.xlsx,,,,,,,,,,,,,,,,,,,,,,,,,,,,,,,
,,,,,,,,,,,,,,,818,2022-01-18_14h34.44.258,multiplicationStroop,2021.2.3,MacIntel,59.99880002,,,,,left,1,0.6211,0,21,21,24,1,1,2,1 | 2,1,1.9756,1.4111,incongruent,left,,,,,,stimulusFile/physical.xlsx,,,,,,,,,,,,,,,,,,,,,,,,,,,,,,,
,,,,,,,,,,,,,,,818,2022-01-18_14h34.44.258,multiplicationStroop,2021.2.3,MacIntel,59.99880002,,,,,left,1,0.3964,0,22,22,35,1,7,9,7 | 9,2,1.9756,1.4111,incongruent,left,,,,,,stimulusFile/physical.xlsx,,,,,,,,,,,,,,,,,,,,,,,,,,,,,,,
,,,,,,,,,,,,,,,818,2022-01-18_14h34.44.258,multiplicationStroop,2021.2.3,MacIntel,59.99880002,,,,,left,1,0.4018,0,23,23,42,1,3,8,3 | 8,5,1.9756,1.4111,incongruent,left,,,,,,stimulusFile/physical.xlsx,,,,,,,,,,,,,,,,,,,,,,,,,,,,,,,
,,,,,,,,,,,,,,,818,2022-01-18_14h34.44.258,multiplicationStroop,2021.2.3,MacIntel,59.99880002,,,,,right,1,0.5461,0,24,24,56,1,1,1,1 | 1,0,1.4111,1.9756,neutral,right,,,,,,stimulusFile/physical.xlsx,,,,,,,,,,,,,,,,,,,,,,,,,,,,,,,
,,,,,,,,,,,,,,,818,2022-01-18_14h34.44.258,multiplicationStroop,2021.2.3,MacIntel,59.99880002,,,,,left,1,0.4159,0,25,25,22,1,8,3,8 | 3,5,1.9756,1.4111,congruent,left,,,,,,stimulusFile/physical.xlsx,,,,,,,,,,,,,,,,,,,,,,,,,,,,,,,
,,,,,,,,,,,,,,,818,2022-01-18_14h34.44.258,multiplicationStroop,2021.2.3,MacIntel,59.99880002,,,,,right,1,0.4648,0,26,26,67,1,4,4,4 | 4,0,1.4111,1.9756,neutral,right,,,,,,stimulusFile/physical.xlsx,,,,,,,,,,,,,,,,,,,,,,,,,,,,,,,
,,,,,,,,,,,,,,,818,2022-01-18_14h34.44.258,multiplicationStroop,2021.2.3,MacIntel,59.99880002,,,,,right,1,0.6996,0,27,27,9,1,2,4,2 | 4,2,1.4111,1.9756,congruent,right,,,,,,stimulusFile/physical.xlsx,,,,,,,,,,,,,,,,,,,,,,,,,,,,,,,
,,,,,,,,,,,,,,,818,2022-01-18_14h34.44.258,multiplicationStroop,2021.2.3,MacIntel,59.99880002,,,,,left,1,0.6629,0,28,28,15,1,9,7,9 | 7,2,1.9756,1.4111,congruent,left,,,,,,stimulusFile/physical.xlsx,,,,,,,,,,,,,,,,,,,,,,,,,,,,,,,
,,,,,,,,,,,,,,,818,2022-01-18_14h34.44.258,multiplicationStroop,2021.2.3,MacIntel,59.99880002,,,,,left,1,0.4615,0,29,29,6,1,7,6,7 | 6,1,1.9756,1.4111,congruent,left,,,,,,stimulusFile/physical.xlsx,,,,,,,,,,,,,,,,,,,,,,,,,,,,,,,
,,,,,,,,,,,,,,,818,2022-01-18_14h34.44.258,multiplicationStroop,2021.2.3,MacIntel,59.99880002,,,,,left,0,0.4327,0,30,30,46,1,8,3,8 | 3,5,1.4111,1.9756,incongruent,right,,,,,,stimulusFile/physical.xlsx,,,,,,,,,,,,,,,,,,,,,,,,,,,,,,,
,,,,,,,,,,,,,,,818,2022-01-18_14h34.44.258,multiplicationStroop,2021.2.3,MacIntel,59.99880002,,,,,right,1,1.3829,0,31,31,44,1,6,1,6 | 1,5,1.4111,1.9756,incongruent,right,,,,,,stimulusFile/physical.xlsx,,,,,,,,,,,,,,,,,,,,,,,,,,,,,,,
,,,,,,,,,,,,,,,818,2022-01-18_14h34.44.258,multiplicationStroop,2021.2.3,MacIntel,59.99880002,,,,,left,1,0.4507,0,32,32,70,1,8,8,8 | 8,0,1.9756,1.4111,neutral,left,,,,,,stimulusFile/physical.xlsx,,,,,,,,,,,,,,,,,,,,,,,,,,,,,,,
,,,,,,,,,,,,,,,818,2022-01-18_14h34.44.258,multiplicationStroop,2021.2.3,MacIntel,59.99880002,,,,,right,1,0.4963,0,33,33,59,1,7,7,7 | 7,0,1.4111,1.9756,neutral,right,,,,,,stimulusFile/physical.xlsx,,,,,,,,,,,,,,,,,,,,,,,,,,,,,,,
,,,,,,,,,,,,,,,818,2022-01-18_14h34.44.258,multiplicationStroop,2021.2.3,MacIntel,59.99880002,,,,,right,1,0.4833,0,34,34,65,1,2,2,2 | 2,0,1.4111,1.9756,neutral,right,,,,,,stimulusFile/physical.xlsx,,,,,,,,,,,,,,,,,,,,,,,,,,,,,,,
,,,,,,,,,,,,,,,818,2022-01-18_14h34.44.258,multiplicationStroop,2021.2.3,MacIntel,59.99880002,,,,,right,1,0.5647,0,35,35,60,1,3,3,3 | 3,0,1.4111,1.9756,neutral,right,,,,,,stimulusFile/physical.xlsx,,,,,,,,,,,,,,,,,,,,,,,,,,,,,,,
,,,,,,,,,,,,,,,818,2022-01-18_14h34.44.258,multiplicationStroop,2021.2.3,MacIntel,59.99880002,,,,,right,1,0.6616,0,36,36,37,1,4,2,4 | 2,2,1.4111,1.9756,incongruent,right,,,,,,stimulusFile/physical.xlsx,,,,,,,,,,,,,,,,,,,,,,,,,,,,,,,
,,,,,,,,,,,,,,,818,2022-01-18_14h34.44.258,multiplicationStroop,2021.2.3,MacIntel,59.99880002,,,,,left,1,0.611,0,37,37,4,1,2,1,2 | 1,1,1.9756,1.4111,congruent,left,,,,,,stimulusFile/physical.xlsx,,,,,,,,,,,,,,,,,,,,,,,,,,,,,,,
,,,,,,,,,,,,,,,818,2022-01-18_14h34.44.258,multiplicationStroop,2021.2.3,MacIntel,59.99880002,,,,,left,1,0.4733,0,38,38,55,1,9,9,9 | 9,0,1.9756,1.4111,neutral,left,,,,,,stimulusFile/physical.xlsx,,,,,,,,,,,,,,,,,,,,,,,,,,,,,,,
,,,,,,,,,,,,,,,818,2022-01-18_14h34.44.258,multiplicationStroop,2021.2.3,MacIntel,59.99880002,,,,,left,1,0.4469,0,39,39,14,1,8,6,8 | 6,2,1.9756,1.4111,congruent,left,,,,,,stimulusFile/physical.xlsx,,,,,,,,,,,,,,,,,,,,,,,,,,,,,,,
,,,,,,,,,,,,,,,818,2022-01-18_14h34.44.258,multiplicationStroop,2021.2.3,MacIntel,59.99880002,,,,,right,1,0.5937,0,40,40,31,1,9,8,9 | 8,1,1.4111,1.9756,incongruent,right,,,,,,stimulusFile/physical.xlsx,,,,,,,,,,,,,,,,,,,,,,,,,,,,,,,
,,,,,,,,,,,,,,,818,2022-01-18_14h34.44.258,multiplicationStroop,2021.2.3,MacIntel,59.99880002,,,,,right,1,0.545,0,41,41,19,1,4,9,4 | 9,5,1.4111,1.9756,congruent,right,,,,,,stimulusFile/physical.xlsx,,,,,,,,,,,,,,,,,,,,,,,,,,,,,,,
,,,,,,,,,,,,,,,818,2022-01-18_14h34.44.258,multiplicationStroop,2021.2.3,MacIntel,59.99880002,,,,,right,1,0.569,0,42,42,18,1,3,8,3 | 8,5,1.4111,1.9756,congruent,right,,,,,,stimulusFile/physical.xlsx,,,,,,,,,,,,,,,,,,,,,,,,,,,,,,,
,,,,,,,,,,,,,,,818,2022-01-18_14h34.44.258,multiplicationStroop,2021.2.3,MacIntel,59.99880002,,,,,right,1,0.5637,0,43,43,28,1,2,1,2 | 1,1,1.4111,1.9756,incongruent,right,,,,,,stimulusFile/physical.xlsx,,,,,,,,,,,,,,,,,,,,,,,,,,,,,,,
,,,,,,,,,,,,,,,818,2022-01-18_14h34.44.258,multiplicationStroop,2021.2.3,MacIntel,59.99880002,,,,,right,1,0.4178,0,44,44,61,1,4,4,4 | 4,0,1.4111,1.9756,neutral,right,,,,,,stimulusFile/physical.xlsx,,,,,,,,,,,,,,,,,,,,,,,,,,,,,,,
,,,,,,,,,,,,,,,818,2022-01-18_14h34.44.258,multiplicationStroop,2021.2.3,MacIntel,59.99880002,,,,,left,1,0.5461,0,45,45,32,1,1,3,1 | 3,2,1.9756,1.4111,incongruent,left,,,,,,stimulusFile/physical.xlsx,,,,,,,,,,,,,,,,,,,,,,,,,,,,,,,
,,,,,,,,,,,,,,,818,2022-01-18_14h34.44.258,multiplicationStroop,2021.2.3,MacIntel,59.99880002,,,,,left,1,0.4298,0,46,46,20,1,6,1,6 | 1,5,1.9756,1.4111,congruent,left,,,,,,stimulusFile/physical.xlsx,,,,,,,,,,,,,,,,,,,,,,,,,,,,,,,
,,,,,,,,,,,,,,,818,2022-01-18_14h34.44.258,multiplicationStroop,2021.2.3,MacIntel,59.99880002,,,,,left,1,0.3972,0,47,47,26,1,6,7,6 | 7,1,1.9756,1.4111,incongruent,left,,,,,,stimulusFile/physical.xlsx,,,,,,,,,,,,,,,,,,,,,,,,,,,,,,,
,,,,,,,,,,,,,,,818,2022-01-18_14h34.44.258,multiplicationStroop,2021.2.3,MacIntel,59.99880002,,,,,left,0,0.3684,0,48,48,66,1,3,3,3 | 3,0,1.9756,1.4111,neutral,right,,,,,,stimulusFile/physical.xlsx,,,,,,,,,,,,,,,,,,,,,,,,,,,,,,,
,,,,,,,,,,,,,,,818,2022-01-18_14h34.44.258,multiplicationStroop,2021.2.3,MacIntel,59.99880002,,,,,right,1,0.5276,0,49,49,58,1,6,6,6 | 6,0,1.4111,1.9756,neutral,right,,,,,,stimulusFile/physical.xlsx,,,,,,,,,,,,,,,,,,,,,,,,,,,,,,,
,,,,,,,,,,,,,,,818,2022-01-18_14h34.44.258,multiplicationStroop,2021.2.3,MacIntel,59.99880002,,,,,right,1,0.6515,0,50,50,47,1,9,4,9 | 4,5,1.4111,1.9756,incongruent,right,,,,,,stimulusFile/physical.xlsx,,,,,,,,,,,,,,,,,,,,,,,,,,,,,,,
,,,,,,,,,,,,,,,818,2022-01-18_14h34.44.258,multiplicationStroop,2021.2.3,MacIntel,59.99880002,,,,,left,1,0.8967,0,51,51,13,1,4,2,4 | 2,2,1.9756,1.4111,congruent,left,,,,,,stimulusFile/physical.xlsx,,,,,,,,,,,,,,,,,,,,,,,,,,,,,,,
,,,,,,,,,,,,,,,818,2022-01-18_14h34.44.258,multiplicationStroop,2021.2.3,MacIntel,59.99880002,,,,,left,1,1.0448,0,52,52,27,1,8,9,8 | 9,1,1.9756,1.4111,incongruent,left,,,,,,stimulusFile/physical.xlsx,,,,,,,,,,,,,,,,,,,,,,,,,,,,,,,
,,,,,,,,,,,,,,,818,2022-01-18_14h34.44.258,multiplicationStroop,2021.2.3,MacIntel,59.99880002,,,,,left,1,0.6683,0,53,53,7,1,9,8,9 | 8,1,1.9756,1.4111,congruent,left,,,,,,stimulusFile/physical.xlsx,,,,,,,,,,,,,,,,,,,,,,,,,,,,,,,
,,,,,,,,,,,,,,,818,2022-01-18_14h34.44.258,multiplicationStroop,2021.2.3,MacIntel,59.99880002,,,,,left,1,0.6003,0,54,54,49,1,3,3,3 | 3,0,1.9756,1.4111,neutral,left,,,,,,stimulusFile/physical.xlsx,,,,,,,,,,,,,,,,,,,,,,,,,,,,,,,
,,,,,,,,,,,,,,,818,2022-01-18_14h34.44.258,multiplicationStroop,2021.2.3,MacIntel,59.99880002,,,,,left,1,0.4215,0,55,55,25,1,3,4,3 | 4,1,1.9756,1.4111,incongruent,left,,,,,,stimulusFile/physical.xlsx,,,,,,,,,,,,,,,,,,,,,,,,,,,,,,,
,,,,,,,,,,,,,,,818,2022-01-18_14h34.44.258,multiplicationStroop,2021.2.3,MacIntel,59.99880002,,,,,right,0,0.5478,0,56,56,69,1,7,7,7 | 7,0,1.4111,1.9756,neutral,left,,,,,,stimulusFile/physical.xlsx,,,,,,,,,,,,,,,,,,,,,,,,,,,,,,,
,,,,,,,,,,,,,,,818,2022-01-18_14h34.44.258,multiplicationStroop,2021.2.3,MacIntel,59.99880002,,,,,left,1,0.5947,0,57,57,43,1,4,9,4 | 9,5,1.9756,1.4111,incongruent,left,,,,,,stimulusFile/physical.xlsx,,,,,,,,,,,,,,,,,,,,,,,,,,,,,,,
,,,,,,,,,,,,,,,818,2022-01-18_14h34.44.258,multiplicationStroop,2021.2.3,MacIntel,59.99880002,,,,,right,1,0.4947,0,58,58,39,1,9,7,9 | 7,2,1.4111,1.9756,incongruent,right,,,,,,stimulusFile/physical.xlsx,,,,,,,,,,,,,,,,,,,,,,,,,,,,,,,
,,,,,,,,,,,,,,,818,2022-01-18_14h34.44.258,multiplicationStroop,2021.2.3,MacIntel,59.99880002,,,,,right,1,0.6293,0,59,59,0,1,1,2,1 | 2,1,1.4111,1.9756,congruent,right,,,,,,stimulusFile/physical.xlsx,,,,,,,,,,,,,,,,,,,,,,,,,,,,,,,
,,,,,,,,,,,,,,,818,2022-01-18_14h34.44.258,multiplicationStroop,2021.2.3,MacIntel,59.99880002,,,,,left,1,0.4135,0,60,60,68,1,6,6,6 | 6,0,1.9756,1.4111,neutral,left,,,,,,stimulusFile/physical.xlsx,,,,,,,,,,,,,,,,,,,,,,,,,,,,,,,
,,,,,,,,,,,,,,,818,2022-01-18_14h34.44.258,multiplicationStroop,2021.2.3,MacIntel,59.99880002,,,,,left,1,0.4764,0,61,61,53,1,4,4,4 | 4,0,1.9756,1.4111,neutral,left,,,,,,stimulusFile/physical.xlsx,,,,,,,,,,,,,,,,,,,,,,,,,,,,,,,
,,,,,,,,,,,,,,,818,2022-01-18_14h34.44.258,multiplicationStroop,2021.2.3,MacIntel,59.99880002,,,,,right,1,0.4281,0,62,62,11,1,7,9,7 | 9,2,1.4111,1.9756,congruent,right,,,,,,stimulusFile/physical.xlsx,,,,,,,,,,,,,,,,,,,,,,,,,,,,,,,
,,,,,,,,,,,,,,,818,2022-01-18_14h34.44.258,multiplicationStroop,2021.2.3,MacIntel,59.99880002,,,,,right,1,0.6464,0,63,63,17,1,2,7,2 | 7,5,1.4111,1.9756,congruent,right,,,,,,stimulusFile/physical.xlsx,,,,,,,,,,,,,,,,,,,,,,,,,,,,,,,
,,,,,,,,,,,,,,,818,2022-01-18_14h34.44.258,multiplicationStroop,2021.2.3,MacIntel,59.99880002,,,,,left,1,0.4809,0,64,64,34,1,6,8,6 | 8,2,1.9756,1.4111,incongruent,left,,,,,,stimulusFile/physical.xlsx,,,,,,,,,,,,,,,,,,,,,,,,,,,,,,,
,,,,,,,,,,,,,,,818,2022-01-18_14h34.44.258,multiplicationStroop,2021.2.3,MacIntel,59.99880002,,,,,left,1,0.9142,0,65,65,41,1,2,7,2 | 7,5,1.9756,1.4111,incongruent,left,,,,,,stimulusFile/physical.xlsx,,,,,,,,,,,,,,,,,,,,,,,,,,,,,,,
,,,,,,,,,,,,,,,818,2022-01-18_14h34.44.258,multiplicationStroop,2021.2.3,MacIntel,59.99880002,,,,,left,0,0.5817,0,66,66,64,1,1,1,1 | 1,0,1.9756,1.4111,neutral,right,,,,,,stimulusFile/physical.xlsx,,,,,,,,,,,,,,,,,,,,,,,,,,,,,,,
,,,,,,,,,,,,,,,818,2022-01-18_14h34.44.258,multiplicationStroop,2021.2.3,MacIntel,59.99880002,,,,,right,1,0.6357,0,67,67,62,1,8,8,8 | 8,0,1.4111,1.9756,neutral,right,,,,,,stimulusFile/physical.xlsx,,,,,,,,,,,,,,,,,,,,,,,,,,,,,,,
,,,,,,,,,,,,,,,818,2022-01-18_14h34.44.258,multiplicationStroop,2021.2.3,MacIntel,59.99880002,,,,,left,1,0.5787,0,68,68,54,1,7,7,7 | 7,0,1.9756,1.4111,neutral,left,,,,,,stimulusFile/physical.xlsx,,,,,,,,,,,,,,,,,,,,,,,,,,,,,,,
,,,,,,,,,,,,,,,818,2022-01-18_14h34.44.258,multiplicationStroop,2021.2.3,MacIntel,59.99880002,,,,,left,1,0.448,0,69,69,12,1,3,1,3 | 1,2,1.9756,1.4111,congruent,left,,,,,,stimulusFile/physical.xlsx,,,,,,,,,,,,,,,,,,,,,,,,,,,,,,,
,,,,,,,,,,,,,,,818,2022-01-18_14h34.44.258,multiplicationStroop,2021.2.3,MacIntel,59.99880002,,,,,right,1,0.5957,0,70,70,36,1,3,1,3 | 1,2,1.4111,1.9756,incongruent,right,,,,,,stimulusFile/physical.xlsx,,,,,,,,,,,,,,,,,,,,,,,,,,,,,,,
,,,,,,,,,,,,,,,818,2022-01-18_14h34.44.258,multiplicationStroop,2021.2.3,MacIntel,59.99880002,,,,,right,1,0.5868,0,71,71,30,1,7,6,7 | 6,1,1.4111,1.9756,incongruent,right,,,,,,stimulusFile/physical.xlsx,,,,,,,,,,,,,,,,,,,,,,,,,,,,,,,
,,,,,,,,,,,,,,,818,2022-01-18_14h34.44.258,multiplicationStroop,2021.2.3,MacIntel,59.99880002,,,,,,,,,,,,,,,,,,,,,0,0,0,1,1,stimulusFile/physical.xlsx,PHYSICALLY larger (larger font size).,images/physicallyLarger.png,,,,,,,,,,,,,,,,,,,,,,,,,,,,,
,,,,,,,,,,,,,,,818,2022-01-18_14h34.44.258,multiplicationStroop,2021.2.3,MacIntel,59.99880002,space,4.3153,space,2.537,right,1,0.8345,0,0,0,25,1,3,4,3 | 4,1,1.9756,1.4111,incongruent,right,,,,,,stimulusFile/magnitude.xlsx,,,,,,,,,,,,,,,,,,,,,,,,,,,,,,,
,,,,,,,,,,,,,,,818,2022-01-18_14h34.44.258,multiplicationStroop,2021.2.3,MacIntel,59.99880002,,,,,left,1,0.7269,0,1,1,61,1,4,2,4 | 2,2,1.6933,1.6933,neutral,left,,,,,,stimulusFile/magnitude.xlsx,,,,,,,,,,,,,,,,,,,,,,,,,,,,,,,
,,,,,,,,,,,,,,,818,2022-01-18_14h34.44.258,multiplicationStroop,2021.2.3,MacIntel,59.99880002,,,,,left,1,0.687,0,2,2,71,1,9,4,9 | 4,5,1.6933,1.6933,neutral,left,,,,,,stimulusFile/magnitude.xlsx,,,,,,,,,,,,,,,,,,,,,,,,,,,,,,,
,,,,,,,,,,,,,,,818,2022-01-18_14h34.44.258,multiplicationStroop,2021.2.3,MacIntel,59.99880002,,,,,right,1,0.8847,0,3,3,35,1,7,9,7 | 9,2,1.9756,1.4111,incongruent,right,,,,,,stimulusFile/magnitude.xlsx,,,,,,,,,,,,,,,,,,,,,,,,,,,,,,,
,,,,,,,,,,,,,,,818,2022-01-18_14h34.44.258,multiplicationStroop,2021.2.3,MacIntel,59.99880002,,,,,left,1,0.6123,0,4,4,46,1,8,3,8 | 3,5,1.4111,1.9756,incongruent,left,,,,,,stimulusFile/magnitude.xlsx,,,,,,,,,,,,,,,,,,,,,,,,,,,,,,,
,,,,,,,,,,,,,,,818,2022-01-18_14h34.44.258,multiplicationStroop,2021.2.3,MacIntel,59.99880002,,,,,left,1,0.6542,0,5,5,22,1,8,3,8 | 3,5,1.9756,1.4111,congruent,left,,,,,,stimulusFile/magnitude.xlsx,,,,,,,,,,,,,,,,,,,,,,,,,,,,,,,
,,,,,,,,,,,,,,,818,2022-01-18_14h34.44.258,multiplicationStroop,2021.2.3,MacIntel,59.99880002,,,,,right,1,0.5175,0,6,6,49,1,3,4,3 | 4,1,1.6933,1.6933,neutral,right,,,,,,stimulusFile/magnitude.xlsx,,,,,,,,,,,,,,,,,,,,,,,,,,,,,,,
,,,,,,,,,,,,,,,818,2022-01-18_14h34.44.258,multiplicationStroop,2021.2.3,MacIntel,59.99880002,,,,,left,1,0.644,0,7,7,45,1,7,2,7 | 2,5,1.4111,1.9756,incongruent,left,,,,,,stimulusFile/magnitude.xlsx,,,,,,,,,,,,,,,,,,,,,,,,,,,,,,,
,,,,,,,,,,,,,,,818,2022-01-18_14h34.44.258,multiplicationStroop,2021.2.3,MacIntel,59.99880002,,,,,right,1,0.5616,0,8,8,1,1,3,4,3 | 4,1,1.4111,1.9756,congruent,right,,,,,,stimulusFile/magnitude.xlsx,,,,,,,,,,,,,,,,,,,,,,,,,,,,,,,
,,,,,,,,,,,,,,,818,2022-01-18_14h34.44.258,multiplicationStroop,2021.2.3,MacIntel,59.99880002,,,,,left,1,0.4496,0,9,9,4,1,2,1,2 | 1,1,1.9756,1.4111,congruent,left,,,,,,stimulusFile/magnitude.xlsx,,,,,,,,,,,,,,,,,,,,,,,,,,,,,,,
,,,,,,,,,,,,,,,818,2022-01-18_14h34.44.258,multiplicationStroop,2021.2.3,MacIntel,59.99880002,,,,,right,1,0.9559,0,10,10,10,1,6,8,6 | 8,2,1.4111,1.9756,congruent,right,,,,,,stimulusFile/magnitude.xlsx,,,,,,,,,,,,,,,,,,,,,,,,,,,,,,,
,,,,,,,,,,,,,,,818,2022-01-18_14h34.44.258,multiplicationStroop,2021.2.3,MacIntel,59.99880002,,,,,left,1,0.7619,0,11,11,70,1,8,3,8 | 3,5,1.6933,1.6933,neutral,left,,,,,,stimulusFile/magnitude.xlsx,,,,,,,,,,,,,,,,,,,,,,,,,,,,,,,
,,,,,,,,,,,,,,,818,2022-01-18_14h34.44.258,multiplicationStroop,2021.2.3,MacIntel,59.99880002,,,,,left,1,0.666,0,12,12,47,1,9,4,9 | 4,5,1.4111,1.9756,incongruent,left,,,,,,stimulusFile/magnitude.xlsx,,,,,,,,,,,,,,,,,,,,,,,,,,,,,,,
,,,,,,,,,,,,,,,818,2022-01-18_14h34.44.258,multiplicationStroop,2021.2.3,MacIntel,59.99880002,,,,,right,1,1.0114,0,13,13,33,1,2,4,2 | 4,2,1.9756,1.4111,incongruent,right,,,,,,stimulusFile/magnitude.xlsx,,,,,,,,,,,,,,,,,,,,,,,,,,,,,,,
,,,,,,,,,,,,,,,818,2022-01-18_14h34.44.258,multiplicationStroop,2021.2.3,MacIntel,59.99880002,,,,,left,1,0.58,0,14,14,60,1,3,1,3 | 1,2,1.6933,1.6933,neutral,left,,,,,,stimulusFile/magnitude.xlsx,,,,,,,,,,,,,,,,,,,,,,,,,,,,,,,
,,,,,,,,,,,,,,,818,2022-01-18_14h34.44.258,multiplicationStroop,2021.2.3,MacIntel,59.99880002,,,,,right,1,0.8634,0,15,15,51,1,8,9,8 | 9,1,1.6933,1.6933,neutral,right,,,,,,stimulusFile/magnitude.xlsx,,,,,,,,,,,,,,,,,,,,,,,,,,,,,,,
,,,,,,,,,,,,,,,818,2022-01-18_14h34.44.258,multiplicationStroop,2021.2.3,MacIntel,59.99880002,,,,,right,1,0.7326,0,16,16,24,1,1,2,1 | 2,1,1.9756,1.4111,incongruent,right,,,,,,stimulusFile/magnitude.xlsx,,,,,,,,,,,,,,,,,,,,,,,,,,,,,,,
,,,,,,,,,,,,,,,818,2022-01-18_14h34.44.258,multiplicationStroop,2021.2.3,MacIntel,59.99880002,,,,,right,1,0.7139,0,17,17,40,1,1,6,1 | 6,5,1.9756,1.4111,incongruent,right,,,,,,stimulusFile/magnitude.xlsx,,,,,,,,,,,,,,,,,,,,,,,,,,,,,,,
,,,,,,,,,,,,,,,818,2022-01-18_14h34.44.258,multiplicationStroop,2021.2.3,MacIntel,59.99880002,,,,,right,1,0.6166,0,18,18,59,1,7,9,7 | 9,2,1.6933,1.6933,neutral,right,,,,,,stimulusFile/magnitude.xlsx,,,,,,,,,,,,,,,,,,,,,,,,,,,,,,,
,,,,,,,,,,,,,,,818,2022-01-18_14h34.44.258,multiplicationStroop,2021.2.3,MacIntel,59.99880002,,,,,right,1,0.9491,0,19,19,58,1,6,8,6 | 8,2,1.6933,1.6933,neutral,right,,,,,,stimulusFile/magnitude.xlsx,,,,,,,,,,,,,,,,,,,,,,,,,,,,,,,
,,,,,,,,,,,,,,,818,2022-01-18_14h34.44.258,multiplicationStroop,2021.2.3,MacIntel,59.99880002,,,,,right,0,0.7131,0,20,20,52,1,2,1,2 | 1,1,1.6933,1.6933,neutral,left,,,,,,stimulusFile/magnitude.xlsx,,,,,,,,,,,,,,,,,,,,,,,,,,,,,,,
,,,,,,,,,,,,,,,818,2022-01-18_14h34.44.258,multiplicationStroop,2021.2.3,MacIntel,59.99880002,,,,,left,1,1.0644,0,21,21,39,1,9,7,9 | 7,2,1.4111,1.9756,incongruent,left,,,,,,stimulusFile/magnitude.xlsx,,,,,,,,,,,,,,,,,,,,,,,,,,,,,,,
,,,,,,,,,,,,,,,818,2022-01-18_14h34.44.258,multiplicationStroop,2021.2.3,MacIntel,59.99880002,,,,,right,1,0.7624,0,22,22,57,1,2,4,2 | 4,2,1.6933,1.6933,neutral,right,,,,,,stimulusFile/magnitude.xlsx,,,,,,,,,,,,,,,,,,,,,,,,,,,,,,,
,,,,,,,,,,,,,,,818,2022-01-18_14h34.44.258,multiplicationStroop,2021.2.3,MacIntel,59.99880002,,,,,right,1,0.9096,0,23,23,41,1,2,7,2 | 7,5,1.9756,1.4111,incongruent,right,,,,,,stimulusFile/magnitude.xlsx,,,,,,,,,,,,,,,,,,,,,,,,,,,,,,,
,,,,,,,,,,,,,,,818,2022-01-18_14h34.44.258,multiplicationStroop,2021.2.3,MacIntel,59.99880002,,,,,left,1,0.6855,0,24,24,15,1,9,7,9 | 7,2,1.9756,1.4111,congruent,left,,,,,,stimulusFile/magnitude.xlsx,,,,,,,,,,,,,,,,,,,,,,,,,,,,,,,
,,,,,,,,,,,,,,,818,2022-01-18_14h34.44.258,multiplicationStroop,2021.2.3,MacIntel,59.99880002,,,,,left,1,1.1185,0,25,25,62,1,8,6,8 | 6,2,1.6933,1.6933,neutral,left,,,,,,stimulusFile/magnitude.xlsx,,,,,,,,,,,,,,,,,,,,,,,,,,,,,,,
,,,,,,,,,,,,,,,818,2022-01-18_14h34.44.258,multiplicationStroop,2021.2.3,MacIntel,59.99880002,,,,,left,1,0.7896,0,26,26,53,1,4,3,4 | 3,1,1.6933,1.6933,neutral,left,,,,,,stimulusFile/magnitude.xlsx,,,,,,,,,,,,,,,,,,,,,,,,,,,,,,,
,,,,,,,,,,,,,,,818,2022-01-18_14h34.44.258,multiplicationStroop,2021.2.3,MacIntel,59.99880002,,,,,left,1,0.962,0,27,27,55,1,9,8,9 | 8,1,1.6933,1.6933,neutral,left,,,,,,stimulusFile/magnitude.xlsx,,,,,,,,,,,,,,,,,,,,,,,,,,,,,,,
,,,,,,,,,,,,,,,818,2022-01-18_14h34.44.258,multiplicationStroop,2021.2.3,MacIntel,59.99880002,,,,,left,1,0.8031,0,28,28,44,1,6,1,6 | 1,5,1.4111,1.9756,incongruent,left,,,,,,stimulusFile/magnitude.xlsx,,,,,,,,,,,,,,,,,,,,,,,,,,,,,,,
,,,,,,,,,,,,,,,818,2022-01-18_14h34.44.258,multiplicationStroop,2021.2.3,MacIntel,59.99880002,,,,,left,1,0.8595,0,29,29,31,1,9,8,9 | 8,1,1.4111,1.9756,incongruent,left,,,,,,stimulusFile/magnitude.xlsx,,,,,,,,,,,,,,,,,,,,,,,,,,,,,,,
,,,,,,,,,,,,,,,818,2022-01-18_14h34.44.258,multiplicationStroop,2021.2.3,MacIntel,59.99880002,,,,,right,1,0.6358,0,30,30,17,1,2,7,2 | 7,5,1.4111,1.9756,congruent,right,,,,,,stimulusFile/magnitude.xlsx,,,,,,,,,,,,,,,,,,,,,,,,,,,,,,,
,,,,,,,,,,,,,,,818,2022-01-18_14h34.44.258,multiplicationStroop,2021.2.3,MacIntel,59.99880002,,,,,left,1,0.5973,0,31,31,69,1,7,2,7 | 2,5,1.6933,1.6933,neutral,left,,,,,,stimulusFile/magnitude.xlsx,,,,,,,,,,,,,,,,,,,,,,,,,,,,,,,
,,,,,,,,,,,,,,,818,2022-01-18_14h34.44.258,multiplicationStroop,2021.2.3,MacIntel,59.99880002,,,,,left,1,0.6457,0,32,32,5,1,4,3,4 | 3,1,1.9756,1.4111,congruent,left,,,,,,stimulusFile/magnitude.xlsx,,,,,,,,,,,,,,,,,,,,,,,,,,,,,,,
,,,,,,,,,,,,,,,818,2022-01-18_14h34.44.258,multiplicationStroop,2021.2.3,MacIntel,59.99880002,,,,,right,0,0.5966,0,33,33,30,1,7,6,7 | 6,1,1.4111,1.9756,incongruent,left,,,,,,stimulusFile/magnitude.xlsx,,,,,,,,,,,,,,,,,,,,,,,,,,,,,,,
,,,,,,,,,,,,,,,818,2022-01-18_14h34.44.258,multiplicationStroop,2021.2.3,MacIntel,59.99880002,,,,,right,1,1.2132,0,34,34,19,1,4,9,4 | 9,5,1.4111,1.9756,congruent,right,,,,,,stimulusFile/magnitude.xlsx,,,,,,,,,,,,,,,,,,,,,,,,,,,,,,,
,,,,,,,,,,,,,,,818,2022-01-18_14h34.44.258,multiplicationStroop,2021.2.3,MacIntel,59.99880002,,,,,left,0,1.0143,0,35,35,64,1,1,6,1 | 6,5,1.6933,1.6933,neutral,right,,,,,,stimulusFile/magnitude.xlsx,,,,,,,,,,,,,,,,,,,,,,,,,,,,,,,
,,,,,,,,,,,,,,,818,2022-01-18_14h34.44.258,multiplicationStroop,2021.2.3,MacIntel,59.99880002,,,,,right,1,1.1282,0,36,36,67,1,4,9,4 | 9,5,1.6933,1.6933,neutral,right,,,,,,stimulusFile/magnitude.xlsx,,,,,,,,,,,,,,,,,,,,,,,,,,,,,,,
,,,,,,,,,,,,,,,818,2022-01-18_14h34.44.258,multiplicationStroop,2021.2.3,MacIntel,59.99880002,,,,,right,1,0.8322,0,37,37,16,1,1,6,1 | 6,5,1.4111,1.9756,congruent,right,,,,,,stimulusFile/magnitude.xlsx,,,,,,,,,,,,,,,,,,,,,,,,,,,,,,,
,,,,,,,,,,,,,,,818,2022-01-18_14h34.44.258,multiplicationStroop,2021.2.3,MacIntel,59.99880002,,,,,left,1,1.2294,0,38,38,54,1,7,6,7 | 6,1,1.6933,1.6933,neutral,left,,,,,,stimulusFile/magnitude.xlsx,,,,,,,,,,,,,,,,,,,,,,,,,,,,,,,
,,,,,,,,,,,,,,,818,2022-01-18_14h34.44.258,multiplicationStroop,2021.2.3,MacIntel,59.99880002,,,,,left,1,0.9131,0,39,39,29,1,4,3,4 | 3,1,1.4111,1.9756,incongruent,left,,,,,,stimulusFile/magnitude.xlsx,,,,,,,,,,,,,,,,,,,,,,,,,,,,,,,
,,,,,,,,,,,,,,,818,2022-01-18_14h34.44.258,multiplicationStroop,2021.2.3,MacIntel,59.99880002,,,,,right,1,0.6293,0,40,40,18,1,3,8,3 | 8,5,1.4111,1.9756,congruent,right,,,,,,stimulusFile/magnitude.xlsx,,,,,,,,,,,,,,,,,,,,,,,,,,,,,,,
,,,,,,,,,,,,,,,818,2022-01-18_14h34.44.258,multiplicationStroop,2021.2.3,MacIntel,59.99880002,,,,,right,1,0.7376,0,41,41,11,1,7,9,7 | 9,2,1.4111,1.9756,congruent,right,,,,,,stimulusFile/magnitude.xlsx,,,,,,,,,,,,,,,,,,,,,,,,,,,,,,,
,,,,,,,,,,,,,,,818,2022-01-18_14h34.44.258,multiplicationStroop,2021.2.3,MacIntel,59.99880002,,,,,right,1,0.864,0,42,42,8,1,1,3,1 | 3,2,1.4111,1.9756,congruent,right,,,,,,stimulusFile/magnitude.xlsx,,,,,,,,,,,,,,,,,,,,,,,,,,,,,,,
,,,,,,,,,,,,,,,818,2022-01-18_14h34.44.258,multiplicationStroop,2021.2.3,MacIntel,59.99880002,,,,,left,0,1.1283,0,43,43,27,1,8,9,8 | 9,1,1.9756,1.4111,incongruent,right,,,,,,stimulusFile/magnitude.xlsx,,,,,,,,,,,,,,,,,,,,,,,,,,,,,,,
,,,,,,,,,,,,,,,818,2022-01-18_14h34.44.258,multiplicationStroop,2021.2.3,MacIntel,59.99880002,,,,,right,1,0.796,0,44,44,0,1,1,2,1 | 2,1,1.4111,1.9756,congruent,right,,,,,,stimulusFile/magnitude.xlsx,,,,,,,,,,,,,,,,,,,,,,,,,,,,,,,
,,,,,,,,,,,,,,,818,2022-01-18_14h34.44.258,multiplicationStroop,2021.2.3,MacIntel,59.99880002,,,,,left,1,2.0933,0,45,45,6,1,7,6,7 | 6,1,1.9756,1.4111,congruent,left,,,,,,stimulusFile/magnitude.xlsx,,,,,,,,,,,,,,,,,,,,,,,,,,,,,,,
,,,,,,,,,,,,,,,818,2022-01-18_14h34.44.258,multiplicationStroop,2021.2.3,MacIntel,59.99880002,,,,,right,1,0.8781,0,46,46,50,1,6,7,6 | 7,1,1.6933,1.6933,neutral,right,,,,,,stimulusFile/magnitude.xlsx,,,,,,,,,,,,,,,,,,,,,,,,,,,,,,,
,,,,,,,,,,,,,,,818,2022-01-18_14h34.44.258,multiplicationStroop,2021.2.3,MacIntel,59.99880002,,,,,right,1,0.9189,0,47,47,34,1,6,8,6 | 8,2,1.9756,1.4111,incongruent,right,,,,,,stimulusFile/magnitude.xlsx,,,,,,,,,,,,,,,,,,,,,,,,,,,,,,,
,,,,,,,,,,,,,,,818,2022-01-18_14h34.44.258,multiplicationStroop,2021.2.3,MacIntel,59.99880002,,,,,left,1,2.7327,0,48,48,36,1,3,1,3 | 1,2,1.4111,1.9756,incongruent,left,,,,,,stimulusFile/magnitude.xlsx,,,,,,,,,,,,,,,,,,,,,,,,,,,,,,,
,,,,,,,,,,,,,,,818,2022-01-18_14h34.44.258,multiplicationStroop,2021.2.3,MacIntel,59.99880002,,,,,right,1,0.9449,0,49,49,56,1,1,3,1 | 3,2,1.6933,1.6933,neutral,right,,,,,,stimulusFile/magnitude.xlsx,,,,,,,,,,,,,,,,,,,,,,,,,,,,,,,
,,,,,,,,,,,,,,,818,2022-01-18_14h34.44.258,multiplicationStroop,2021.2.3,MacIntel,59.99880002,,,,,left,1,0.9507,0,50,50,37,1,4,2,4 | 2,2,1.4111,1.9756,incongruent,left,,,,,,stimulusFile/magnitude.xlsx,,,,,,,,,,,,,,,,,,,,,,,,,,,,,,,
,,,,,,,,,,,,,,,818,2022-01-18_14h34.44.258,multiplicationStroop,2021.2.3,MacIntel,59.99880002,,,,,left,1,0.5979,0,51,51,20,1,6,1,6 | 1,5,1.9756,1.4111,congruent,left,,,,,,stimulusFile/magnitude.xlsx,,,,,,,,,,,,,,,,,,,,,,,,,,,,,,,
,,,,,,,,,,,,,,,818,2022-01-18_14h34.44.258,multiplicationStroop,2021.2.3,MacIntel,59.99880002,,,,,right,1,0.6526,0,52,52,2,1,6,7,6 | 7,1,1.4111,1.9756,congruent,right,,,,,,stimulusFile/magnitude.xlsx,,,,,,,,,,,,,,,,,,,,,,,,,,,,,,,
,,,,,,,,,,,,,,,818,2022-01-18_14h34.44.258,multiplicationStroop,2021.2.3,MacIntel,59.99880002,,,,,left,1,0.6,0,53,53,14,1,8,6,8 | 6,2,1.9756,1.4111,congruent,left,,,,,,stimulusFile/magnitude.xlsx,,,,,,,,,,,,,,,,,,,,,,,,,,,,,,,
,,,,,,,,,,,,,,,818,2022-01-18_14h34.44.258,multiplicationStroop,2021.2.3,MacIntel,59.99880002,,,,,right,1,0.7785,0,54,54,48,1,1,2,1 | 2,1,1.6933,1.6933,neutral,right,,,,,,stimulusFile/magnitude.xlsx,,,,,,,,,,,,,,,,,,,,,,,,,,,,,,,
,,,,,,,,,,,,,,,818,2022-01-18_14h34.44.258,multiplicationStroop,2021.2.3,MacIntel,59.99880002,,,,,left,1,0.5892,0,55,55,23,1,9,4,9 | 4,5,1.9756,1.4111,congruent,left,,,,,,stimulusFile/magnitude.xlsx,,,,,,,,,,,,,,,,,,,,,,,,,,,,,,,
,,,,,,,,,,,,,,,818,2022-01-18_14h34.44.258,multiplicationStroop,2021.2.3,MacIntel,59.99880002,,,,,right,1,1.0713,0,56,56,32,1,1,3,1 | 3,2,1.9756,1.4111,incongruent,right,,,,,,stimulusFile/magnitude.xlsx,,,,,,,,,,,,,,,,,,,,,,,,,,,,,,,
,,,,,,,,,,,,,,,818,2022-01-18_14h34.44.258,multiplicationStroop,2021.2.3,MacIntel,59.99880002,,,,,left,1,1.6338,0,57,57,63,1,9,7,9 | 7,2,1.6933,1.6933,neutral,left,,,,,,stimulusFile/magnitude.xlsx,,,,,,,,,,,,,,,,,,,,,,,,,,,,,,,
,,,,,,,,,,,,,,,818,2022-01-18_14h34.44.258,multiplicationStroop,2021.2.3,MacIntel,59.99880002,,,,,right,1,0.6502,0,58,58,9,1,2,4,2 | 4,2,1.4111,1.9756,congruent,right,,,,,,stimulusFile/magnitude.xlsx,,,,,,,,,,,,,,,,,,,,,,,,,,,,,,,
,,,,,,,,,,,,,,,818,2022-01-18_14h34.44.258,multiplicationStroop,2021.2.3,MacIntel,59.99880002,,,,,left,1,1.2004,0,59,59,68,1,6,1,6 | 1,5,1.6933,1.6933,neutral,left,,,,,,stimulusFile/magnitude.xlsx,,,,,,,,,,,,,,,,,,,,,,,,,,,,,,,
,,,,,,,,,,,,,,,818,2022-01-18_14h34.44.258,multiplicationStroop,2021.2.3,MacIntel,59.99880002,,,,,left,1,1.297,0,60,60,28,1,2,1,2 | 1,1,1.4111,1.9756,incongruent,left,,,,,,stimulusFile/magnitude.xlsx,,,,,,,,,,,,,,,,,,,,,,,,,,,,,,,
,,,,,,,,,,,,,,,818,2022-01-18_14h34.44.258,multiplicationStroop,2021.2.3,MacIntel,59.99880002,,,,,right,1,1.1225,0,61,61,26,1,6,7,6 | 7,1,1.9756,1.4111,incongruent,right,,,,,,stimulusFile/magnitude.xlsx,,,,,,,,,,,,,,,,,,,,,,,,,,,,,,,
,,,,,,,,,,,,,,,818,2022-01-18_14h34.44.258,multiplicationStroop,2021.2.3,MacIntel,59.99880002,,,,,right,1,0.7476,0,62,62,43,1,4,9,4 | 9,5,1.9756,1.4111,incongruent,right,,,,,,stimulusFile/magnitude.xlsx,,,,,,,,,,,,,,,,,,,,,,,,,,,,,,,
,,,,,,,,,,,,,,,818,2022-01-18_14h34.44.258,multiplicationStroop,2021.2.3,MacIntel,59.99880002,,,,,left,1,1.0631,0,63,63,12,1,3,1,3 | 1,2,1.9756,1.4111,congruent,left,,,,,,stimulusFile/magnitude.xlsx,,,,,,,,,,,,,,,,,,,,,,,,,,,,,,,
,,,,,,,,,,,,,,,818,2022-01-18_14h34.44.258,multiplicationStroop,2021.2.3,MacIntel,59.99880002,,,,,left,1,1.0943,0,64,64,38,1,8,6,8 | 6,2,1.4111,1.9756,incongruent,left,,,,,,stimulusFile/magnitude.xlsx,,,,,,,,,,,,,,,,,,,,,,,,,,,,,,,
,,,,,,,,,,,,,,,818,2022-01-18_14h34.44.258,multiplicationStroop,2021.2.3,MacIntel,59.99880002,,,,,right,1,0.8843,0,65,65,66,1,3,8,3 | 8,5,1.6933,1.6933,neutral,right,,,,,,stimulusFile/magnitude.xlsx,,,,,,,,,,,,,,,,,,,,,,,,,,,,,,,
,,,,,,,,,,,,,,,818,2022-01-18_14h34.44.258,multiplicationStroop,2021.2.3,MacIntel,59.99880002,,,,,left,0,1.0797,0,66,66,3,1,8,9,8 | 9,1,1.4111,1.9756,congruent,right,,,,,,stimulusFile/magnitude.xlsx,,,,,,,,,,,,,,,,,,,,,,,,,,,,,,,
,,,,,,,,,,,,,,,818,2022-01-18_14h34.44.258,multiplicationStroop,2021.2.3,MacIntel,59.99880002,,,,,left,1,1.1298,0,67,67,13,1,4,2,4 | 2,2,1.9756,1.4111,congruent,left,,,,,,stimulusFile/magnitude.xlsx,,,,,,,,,,,,,,,,,,,,,,,,,,,,,,,
,,,,,,,,,,,,,,,818,2022-01-18_14h34.44.258,multiplicationStroop,2021.2.3,MacIntel,59.99880002,,,,,right,1,0.9116,0,68,68,42,1,3,8,3 | 8,5,1.9756,1.4111,incongruent,right,,,,,,stimulusFile/magnitude.xlsx,,,,,,,,,,,,,,,,,,,,,,,,,,,,,,,
,,,,,,,,,,,,,,,818,2022-01-18_14h34.44.258,multiplicationStroop,2021.2.3,MacIntel,59.99880002,,,,,right,1,0.6696,0,69,69,65,1,2,7,2 | 7,5,1.6933,1.6933,neutral,right,,,,,,stimulusFile/magnitude.xlsx,,,,,,,,,,,,,,,,,,,,,,,,,,,,,,,
,,,,,,,,,,,,,,,818,2022-01-18_14h34.44.258,multiplicationStroop,2021.2.3,MacIntel,59.99880002,,,,,left,1,0.7318,0,70,70,21,1,7,2,7 | 2,5,1.9756,1.4111,congruent,left,,,,,,stimulusFile/magnitude.xlsx,,,,,,,,,,,,,,,,,,,,,,,,,,,,,,,
,,,,,,,,,,,,,,,818,2022-01-18_14h34.44.258,multiplicationStroop,2021.2.3,MacIntel,59.99880002,,,,,left,1,0.955,0,71,71,7,1,9,8,9 | 8,1,1.9756,1.4111,congruent,left,,,,,,stimulusFile/magnitude.xlsx,,,,,,,,,,,,,,,,,,,,,,,,,,,,,,,
,,,,,,,,,,,,,,,818,2022-01-18_14h34.44.258,multiplicationStroop,2021.2.3,MacIntel,59.99880002,,,,,,,,,,,,,,,,,,,,,0,1,1,0,1,stimulusFile/magnitude.xlsx,NUMERICALLY larger (larger coefficient).,images/numericallyLarger.png,,,,,,,,,,,,,,,,,,,,,,,,,,,,,
,,,,,,,,,,,,,,,818,2022-01-18_14h34.44.258,multiplicationStroop,2021.2.3,MacIntel,59.99880002,,,,,,,,,,,,,,,,,,,,,,,,,,,,,space,4.9337,space,1.3396,14,2.9377,0,0,0,0,23,1,8,×,2,8 × 2,incongruent,largerFirst,1,2,16,,,,,,,,
,,,,,,,,,,,,,,,818,2022-01-18_14h34.44.258,multiplicationStroop,2021.2.3,MacIntel,59.99880002,,,,,,,,,,,,,,,,,,,,,,,,,,,,,,,,,30,4.3982,1,0,1,1,25,1,6,×,5,6 × 5,incongruent,largerFirst,1,2,30,,,,,,,,
,,,,,,,,,,,,,,,818,2022-01-18_14h34.44.258,multiplicationStroop,2021.2.3,MacIntel,59.99880002,,,,,,,,,,,,,,,,,,,,,,,,,,,,,,,,,24,2.2665,0,0,2,2,7,1,4,×,8,4 × 8,incongruent,smallerFirst,2,1,32,,,,,,,,
,,,,,,,,,,,,,,,818,2022-01-18_14h34.44.258,multiplicationStroop,2021.2.3,MacIntel,59.99880002,,,,,,,,,,,,,,,,,,,,,,,,,,,,,,,,,42,2.2504,1,0,3,3,17,1,7,×,6,7 × 6,incongruent,largerFirst,1,2,42,,,,,,,,
,,,,,,,,,,,,,,,818,2022-01-18_14h34.44.258,multiplicationStroop,2021.2.3,MacIntel,59.99880002,,,,,,,,,,,,,,,,,,,,,,,,,,,,,,,,,36,2.049,1,0,4,4,32,1,6,×,6,6 × 6,incongruent,tie,1,2,36,,,,,,,,
,,,,,,,,,,,,,,,818,2022-01-18_14h34.44.258,multiplicationStroop,2021.2.3,MacIntel,59.99880002,,,,,,,,,,,,,,,,,,,,,,,,,,,,,,,,,12,1.3155,1,0,5,5,19,1,6,×,2,6 × 2,incongruent,largerFirst,1,2,12,,,,,,,,
,,,,,,,,,,,,,,,818,2022-01-18_14h34.44.258,multiplicationStroop,2021.2.3,MacIntel,59.99880002,,,,,,,,,,,,,,,,,,,,,,,,,,,,,,,,,18,2.4486,1,0,6,6,8,1,3,×,6,3 × 6,incongruent,smallerFirst,2,1,18,,,,,,,,
,,,,,,,,,,,,,,,818,2022-01-18_14h34.44.258,multiplicationStroop,2021.2.3,MacIntel,59.99880002,,,,,,,,,,,,,,,,,,,,,,,,,,,,,,,,,48,2.3493,1,0,7,7,1,1,6,×,8,6 × 8,incongruent,smallerFirst,2,1,48,,,,,,,,
,,,,,,,,,,,,,,,818,2022-01-18_14h34.44.258,multiplicationStroop,2021.2.3,MacIntel,59.99880002,,,,,,,,,,,,,,,,,,,,,,,,,,,,,,,,,25,2.9995,1,0,8,8,31,1,5,×,5,5 × 5,incongruent,tie,1,2,25,,,,,,,,
,,,,,,,,,,,,,,,818,2022-01-18_14h34.44.258,multiplicationStroop,2021.2.3,MacIntel,59.99880002,,,,,,,,,,,,,,,,,,,,,,,,,,,,,,,,,10,1.5176,1,0,9,9,21,1,5,×,2,5 × 2,incongruent,largerFirst,1,2,10,,,,,,,,
,,,,,,,,,,,,,,,818,2022-01-18_14h34.44.258,multiplicationStroop,2021.2.3,MacIntel,59.99880002,,,,,,,,,,,,,,,,,,,,,,,,,,,,,,,,,21,2.2141,1,0,10,10,26,1,7,×,3,7 × 3,incongruent,largerFirst,1,2,21,,,,,,,,
,,,,,,,,,,,,,,,818,2022-01-18_14h34.44.258,multiplicationStroop,2021.2.3,MacIntel,59.99880002,,,,,,,,,,,,,,,,,,,,,,,,,,,,,,,,,63,4.9332,1,0,11,11,3,1,7,×,9,7 × 9,incongruent,smallerFirst,2,1,63,,,,,,,,
,,,,,,,,,,,,,,,818,2022-01-18_14h34.44.258,multiplicationStroop,2021.2.3,MacIntel,59.99880002,,,,,,,,,,,,,,,,,,,,,,,,,,,,,,,,,49,2.4556,0,0,12,12,35,1,9,×,9,9 × 9,incongruent,tie,1,2,81,,,,,,,,
,,,,,,,,,,,,,,,818,2022-01-18_14h34.44.258,multiplicationStroop,2021.2.3,MacIntel,59.99880002,,,,,,,,,,,,,,,,,,,,,,,,,,,,,,,,,8,4.5653,1,0,13,13,24,1,4,×,2,4 × 2,incongruent,largerFirst,1,2,8,,,,,,,,
,,,,,,,,,,,,,,,818,2022-01-18_14h34.44.258,multiplicationStroop,2021.2.3,MacIntel,59.99880002,,,,,,,,,,,,,,,,,,,,,,,,,,,,,,,,,12,1.3726,0,0,14,14,4,1,2,×,7,2 × 7,incongruent,smallerFirst,2,1,14,,,,,,,,
,,,,,,,,,,,,,,,818,2022-01-18_14h34.44.258,multiplicationStroop,2021.2.3,MacIntel,59.99880002,,,,,,,,,,,,,,,,,,,,,,,,,,,,,,,,,15,1.6309,1,0,15,15,10,1,3,×,5,3 × 5,incongruent,smallerFirst,2,1,15,,,,,,,,
,,,,,,,,,,,,,,,818,2022-01-18_14h34.44.258,multiplicationStroop,2021.2.3,MacIntel,59.99880002,,,,,,,,,,,,,,,,,,,,,,,,,,,,,,,,,6,1.8832,1,0,16,16,11,1,2,×,3,2 × 3,incongruent,smallerFirst,2,1,6,,,,,,,,
,,,,,,,,,,,,,,,818,2022-01-18_14h34.44.258,multiplicationStroop,2021.2.3,MacIntel,59.99880002,,,,,,,,,,,,,,,,,,,,,,,,,,,,,,,,,20,1.798,1,0,17,17,27,1,5,×,4,5 × 4,incongruent,largerFirst,1,2,20,,,,,,,,
,,,,,,,,,,,,,,,818,2022-01-18_14h34.44.258,multiplicationStroop,2021.2.3,MacIntel,59.99880002,,,,,,,,,,,,,,,,,,,,,,,,,,,,,,,,,27,2.0509,1,0,18,18,18,1,9,×,3,9 × 3,incongruent,largerFirst,1,2,27,,,,,,,,
,,,,,,,,,,,,,,,818,2022-01-18_14h34.44.258,multiplicationStroop,2021.2.3,MacIntel,59.99880002,,,,,,,,,,,,,,,,,,,,,,,,,,,,,,,,,54,2.6316,1,0,19,19,6,1,6,×,9,6 × 9,incongruent,smallerFirst,2,1,54,,,,,,,,
,,,,,,,,,,,,,,,818,2022-01-18_14h34.44.258,multiplicationStroop,2021.2.3,MacIntel,59.99880002,,,,,,,,,,,,,,,,,,,,,,,,,,,,,,,,,49,2.4168,1,0,20,20,33,1,7,×,7,7 × 7,incongruent,tie,1,2,49,,,,,,,,
,,,,,,,,,,,,,,,818,2022-01-18_14h34.44.258,multiplicationStroop,2021.2.3,MacIntel,59.99880002,,,,,,,,,,,,,,,,,,,,,,,,,,,,,,,,,35,1.7675,1,0,21,21,12,1,5,×,7,5 × 7,incongruent,smallerFirst,2,1,35,,,,,,,,
,,,,,,,,,,,,,,,818,2022-01-18_14h34.44.258,multiplicationStroop,2021.2.3,MacIntel,59.99880002,,,,,,,,,,,,,,,,,,,,,,,,,,,,,,,,,16,1.7988,1,0,22,22,30,1,4,×,4,4 × 4,incongruent,tie,1,2,16,,,,,,,,
,,,,,,,,,,,,,,,818,2022-01-18_14h34.44.258,multiplicationStroop,2021.2.3,MacIntel,59.99880002,,,,,,,,,,,,,,,,,,,,,,,,,,,,,,,,,24,1.731,1,0,23,23,20,1,6,×,4,6 × 4,incongruent,largerFirst,1,2,24,,,,,,,,
,,,,,,,,,,,,,,,818,2022-01-18_14h34.44.258,multiplicationStroop,2021.2.3,MacIntel,59.99880002,,,,,,,,,,,,,,,,,,,,,,,,,,,,,,,,,12,1.366,1,0,24,24,5,1,3,×,4,3 × 4,incongruent,smallerFirst,2,1,12,,,,,,,,
,,,,,,,,,,,,,,,818,2022-01-18_14h34.44.258,multiplicationStroop,2021.2.3,MacIntel,59.99880002,,,,,,,,,,,,,,,,,,,,,,,,,,,,,,,,,40,2.0146,1,0,25,25,13,1,5,×,8,5 × 8,incongruent,smallerFirst,2,1,40,,,,,,,,
,,,,,,,,,,,,,,,818,2022-01-18_14h34.44.258,multiplicationStroop,2021.2.3,MacIntel,59.99880002,,,,,,,,,,,,,,,,,,,,,,,,,,,,,,,,,4,1.3646,1,0,26,26,28,1,2,×,2,2 × 2,incongruent,tie,1,2,4,,,,,,,,
,,,,,,,,,,,,,,,818,2022-01-18_14h34.44.258,multiplicationStroop,2021.2.3,MacIntel,59.99880002,,,,,,,,,,,,,,,,,,,,,,,,,,,,,,,,,36,3.2502,1,0,27,27,15,1,9,×,4,9 × 4,incongruent,largerFirst,1,2,36,,,,,,,,
,,,,,,,,,,,,,,,818,2022-01-18_14h34.44.258,multiplicationStroop,2021.2.3,MacIntel,59.99880002,,,,,,,,,,,,,,,,,,,,,,,,,,,,,,,,,24,1.8158,1,0,28,28,9,1,3,×,8,3 × 8,incongruent,smallerFirst,2,1,24,,,,,,,,
,,,,,,,,,,,,,,,818,2022-01-18_14h34.44.258,multiplicationStroop,2021.2.3,MacIntel,59.99880002,,,,,,,,,,,,,,,,,,,,,,,,,,,,,,,,,64,3.7313,1,0,29,29,34,1,8,×,8,8 × 8,incongruent,tie,1,2,64,,,,,,,,
,,,,,,,,,,,,,,,818,2022-01-18_14h34.44.258,multiplicationStroop,2021.2.3,MacIntel,59.99880002,,,,,,,,,,,,,,,,,,,,,,,,,,,,,,,,,56,3.2183,1,0,30,30,14,1,8,×,7,8 × 7,incongruent,largerFirst,1,2,56,,,,,,,,
,,,,,,,,,,,,,,,818,2022-01-18_14h34.44.258,multiplicationStroop,2021.2.3,MacIntel,59.99880002,,,,,,,,,,,,,,,,,,,,,,,,,,,,,,,,,28,2.6339,1,0,31,31,16,1,7,×,4,7 × 4,incongruent,largerFirst,1,2,28,,,,,,,,
,,,,,,,,,,,,,,,818,2022-01-18_14h34.44.258,multiplicationStroop,2021.2.3,MacIntel,59.99880002,,,,,,,,,,,,,,,,,,,,,,,,,,,,,,,,,9,2.198,1,0,32,32,29,1,3,×,3,3 × 3,incongruent,tie,1,2,9,,,,,,,,
,,,,,,,,,,,,,,,818,2022-01-18_14h34.44.258,multiplicationStroop,2021.2.3,MacIntel,59.99880002,,,,,,,,,,,,,,,,,,,,,,,,,,,,,,,,,72,3.3162,1,0,33,33,0,1,8,×,9,8 × 9,incongruent,smallerFirst,2,1,72,,,,,,,,
,,,,,,,,,,,,,,,818,2022-01-18_14h34.44.258,multiplicationStroop,2021.2.3,MacIntel,59.99880002,,,,,,,,,,,,,,,,,,,,,,,,,,,,,,,,,18,2.5458,1,0,34,34,2,1,2,×,9,2 × 9,incongruent,smallerFirst,2,1,18,,,,,,,,
,,,,,,,,,,,,,,,818,2022-01-18_14h34.44.258,multiplicationStroop,2021.2.3,MacIntel,59.99880002,,,,,,,,,,,,,,,,,,,,,,,,,,,,,,,,,35,1.8163,0,0,35,35,22,1,9,×,5,9 × 5,incongruent,largerFirst,1,2,45,,,,,,,,
,,,,,,,,,,,,,,,818,2022-01-18_14h34.44.258,multiplicationStroop,2021.2.3,MacIntel,59.99880002,,,,,,,,,,,,,,,,,,,,,,,,,,,,,,,,,,,,,,,,,,,,,,,,,,0,0,0,5,1,stimulusFile/mult_blk6_INcongruent.xlsx,,
,,,,,,,,,,,,,,,818,2022-01-18_14h34.44.258,multiplicationStroop,2021.2.3,MacIntel,59.99880002,,,,,,,,,,,,,,,,,,,,,,,,,,,,,,,space,1.2533,14,1.5172,1,0,0,0,18,1,7,×,2,7 × 2,incongruent,largerFirst,1,2,14,,,,,,,,
,,,,,,,,,,,,,,,818,2022-01-18_14h34.44.258,multiplicationStroop,2021.2.3,MacIntel,59.99880002,,,,,,,,,,,,,,,,,,,,,,,,,,,,,,,,,40,1.8476,1,0,1,1,27,1,8,×,5,8 × 5,incongruent,largerFirst,1,2,40,,,,,,,,
,,,,,,,,,,,,,,,818,2022-01-18_14h34.44.258,multiplicationStroop,2021.2.3,MacIntel,59.99880002,,,,,,,,,,,,,,,,,,,,,,,,,,,,,,,,,28,1.9505,1,0,2,2,2,1,4,×,7,4 × 7,incongruent,smallerFirst,2,1,28,,,,,,,,
,,,,,,,,,,,,,,,818,2022-01-18_14h34.44.258,multiplicationStroop,2021.2.3,MacIntel,59.99880002,,,,,,,,,,,,,,,,,,,,,,,,,,,,,,,,,15,1.6495,1,0,3,3,24,1,5,×,3,5 × 3,incongruent,largerFirst,1,2,15,,,,,,,,
,,,,,,,,,,,,,,,818,2022-01-18_14h34.44.258,multiplicationStroop,2021.2.3,MacIntel,59.99880002,,,,,,,,,,,,,,,,,,,,,,,,,,,,,,,,,63,6.6145,0,0,4,4,33,1,7,×,7,7 × 7,neutral,tie,2,1,49,,,,,,,,
,,,,,,,,,,,,,,,818,2022-01-18_14h34.44.258,multiplicationStroop,2021.2.3,MacIntel,59.99880002,,,,,,,,,,,,,,,,,,,,,,,,,,,,,,,,,24,7.8936,1,0,5,5,6,1,4,×,6,4 × 6,incongruent,smallerFirst,2,1,24,,,,,,,,
,,,,,,,,,,,,,,,818,2022-01-18_14h34.44.258,multiplicationStroop,2021.2.3,MacIntel,59.99880002,,,,,,,,,,,,,,,,,,,,,,,,,,,,,,,,,18,2.715,1,0,6,6,22,1,6,×,3,6 × 3,incongruent,largerFirst,1,2,18,,,,,,,,
,,,,,,,,,,,,,,,818,2022-01-18_14h34.44.258,multiplicationStroop,2021.2.3,MacIntel,59.99880002,,,,,,,,,,,,,,,,,,,,,,,,,,,,,,,,,45,2.0144,1,0,7,7,8,1,5,×,9,5 × 9,incongruent,smallerFirst,2,1,45,,,,,,,,
,,,,,,,,,,,,,,,818,2022-01-18_14h34.44.258,multiplicationStroop,2021.2.3,MacIntel,59.99880002,,,,,,,,,,,,,,,,,,,,,,,,,,,,,,,,,32,1.8664,1,0,8,8,21,1,8,×,4,8 × 4,incongruent,largerFirst,1,2,32,,,,,,,,
,,,,,,,,,,,,,,,818,2022-01-18_14h34.44.258,multiplicationStroop,2021.2.3,MacIntel,59.99880002,,,,,,,,,,,,,,,,,,,,,,,,,,,,,,,,,10,1.5816,1,0,9,9,7,1,2,×,5,2 × 5,incongruent,smallerFirst,2,1,10,,,,,,,,
,,,,,,,,,,,,,,,818,2022-01-18_14h34.44.258,multiplicationStroop,2021.2.3,MacIntel,59.99880002,,,,,,,,,,,,,,,,,,,,,,,,,,,,,,,,,12,1.5009,1,0,10,10,5,1,2,×,6,2 × 6,incongruent,smallerFirst,2,1,12,,,,,,,,
,,,,,,,,,,,,,,,818,2022-01-18_14h34.44.258,multiplicationStroop,2021.2.3,MacIntel,59.99880002,,,,,,,,,,,,,,,,,,,,,,,,,,,,,,,,,56,5.5465,1,0,11,11,0,1,7,×,8,7 × 8,incongruent,smallerFirst,2,1,56,,,,,,,,
,,,,,,,,,,,,,,,818,2022-01-18_14h34.44.258,multiplicationStroop,2021.2.3,MacIntel,59.99880002,,,,,,,,,,,,,,,,,,,,,,,,,,,,,,,,,6,1.6098,1,0,12,12,25,1,3,×,2,3 × 2,incongruent,largerFirst,1,2,6,,,,,,,,
,,,,,,,,,,,,,,,818,2022-01-18_14h34.44.258,multiplicationStroop,2021.2.3,MacIntel,59.99880002,,,,,,,,,,,,,,,,,,,,,,,,,,,,,,,,,42,7.3649,1,0,13,13,3,1,6,×,7,6 × 7,incongruent,smallerFirst,2,1,42,,,,,,,,
,,,,,,,,,,,,,,,818,2022-01-18_14h34.44.258,multiplicationStroop,2021.2.3,MacIntel,59.99880002,,,,,,,,,,,,,,,,,,,,,,,,,,,,,,,,,8,2.028,1,0,14,14,10,1,2,×,4,2 × 4,incongruent,smallerFirst,2,1,8,,,,,,,,
,,,,,,,,,,,,,,,818,2022-01-18_14h34.44.258,multiplicationStroop,2021.2.3,MacIntel,59.99880002,,,,,,,,,,,,,,,,,,,,,,,,,,,,,,,,,12,1.7994,1,0,15,15,19,1,4,×,3,4 × 3,incongruent,largerFirst,1,2,12,,,,,,,,
,,,,,,,,,,,,,,,818,2022-01-18_14h34.44.258,multiplicationStroop,2021.2.3,MacIntel,59.99880002,,,,,,,,,,,,,,,,,,,,,,,,,,,,,,,,,16,3.149,1,0,16,16,9,1,2,×,8,2 × 8,incongruent,smallerFirst,2,1,16,,,,,,,,
,,,,,,,,,,,,,,,818,2022-01-18_14h34.44.258,multiplicationStroop,2021.2.3,MacIntel,59.99880002,,,,,,,,,,,,,,,,,,,,,,,,,,,,,,,,,9,2.2342,1,0,17,17,29,1,3,×,3,3 × 3,neutral,tie,2,1,9,,,,,,,,
,,,,,,,,,,,,,,,818,2022-01-18_14h34.44.258,multiplicationStroop,2021.2.3,MacIntel,59.99880002,,,,,,,,,,,,,,,,,,,,,,,,,,,,,,,,,24,1.6491,1,0,18,18,23,1,8,×,3,8 × 3,incongruent,largerFirst,1,2,24,,,,,,,,
,,,,,,,,,,,,,,,818,2022-01-18_14h34.44.258,multiplicationStroop,2021.2.3,MacIntel,59.99880002,,,,,,,,,,,,,,,,,,,,,,,,,,,,,,,,,4,1.7162,1,0,19,19,28,1,2,×,2,2 × 2,neutral,tie,2,1,4,,,,,,,,
,,,,,,,,,,,,,,,818,2022-01-18_14h34.44.258,multiplicationStroop,2021.2.3,MacIntel,59.99880002,,,,,,,,,,,,,,,,,,,,,,,,,,,,,,,,,49,2.5485,0,0,20,20,17,1,9,×,7,9 × 7,incongruent,largerFirst,1,2,63,,,,,,,,
,,,,,,,,,,,,,,,818,2022-01-18_14h34.44.258,multiplicationStroop,2021.2.3,MacIntel,59.99880002,,,,,,,,,,,,,,,,,,,,,,,,,,,,,,,,,35,2.2157,0,0,21,21,31,1,5,×,5,5 × 5,neutral,tie,2,1,25,,,,,,,,
,,,,,,,,,,,,,,,818,2022-01-18_14h34.44.258,multiplicationStroop,2021.2.3,MacIntel,59.99880002,,,,,,,,,,,,,,,,,,,,,,,,,,,,,,,,,30,3.8002,1,0,22,22,11,1,5,×,6,5 × 6,incongruent,smallerFirst,2,1,30,,,,,,,,
,,,,,,,,,,,,,,,818,2022-01-18_14h34.44.258,multiplicationStroop,2021.2.3,MacIntel,59.99880002,,,,,,,,,,,,,,,,,,,,,,,,,,,,,,,,,72,14.9881,1,0,23,23,14,1,9,×,8,9 × 8,incongruent,largerFirst,1,2,72,,,,,,,,
,,,,,,,,,,,,,,,818,2022-01-18_14h34.44.258,multiplicationStroop,2021.2.3,MacIntel,59.99880002,,,,,,,,,,,,,,,,,,,,,,,,,,,,,,,,,21,1.7161,1,0,24,24,12,1,3,×,7,3 × 7,incongruent,smallerFirst,2,1,21,,,,,,,,
,,,,,,,,,,,,,,,818,2022-01-18_14h34.44.258,multiplicationStroop,2021.2.3,MacIntel,59.99880002,,,,,,,,,,,,,,,,,,,,,,,,,,,,,,,,,16,1.6985,1,0,25,25,30,1,4,×,4,4 × 4,neutral,tie,2,1,16,,,,,,,,
,,,,,,,,,,,,,,,818,2022-01-18_14h34.44.258,multiplicationStroop,2021.2.3,MacIntel,59.99880002,,,,,,,,,,,,,,,,,,,,,,,,,,,,,,,,,81,6.1678,1,0,26,26,35,1,9,×,9,9 × 9,neutral,tie,2,1,81,,,,,,,,
,,,,,,,,,,,,,,,818,2022-01-18_14h34.44.258,multiplicationStroop,2021.2.3,MacIntel,59.99880002,,,,,,,,,,,,,,,,,,,,,,,,,,,,,,,,,54,5.5536,1,0,27,27,20,1,9,×,6,9 × 6,incongruent,largerFirst,1,2,54,,,,,,,,
,,,,,,,,,,,,,,,818,2022-01-18_14h34.44.258,multiplicationStroop,2021.2.3,MacIntel,59.99880002,,,,,,,,,,,,,,,,,,,,,,,,,,,,,,,,,18,1.5375,1,0,28,28,16,1,9,×,2,9 × 2,incongruent,largerFirst,1,2,18,,,,,,,,
,,,,,,,,,,,,,,,818,2022-01-18_14h34.44.258,multiplicationStroop,2021.2.3,MacIntel,59.99880002,,,,,,,,,,,,,,,,,,,,,,,,,,,,,,,,,48,9.0993,1,0,29,29,15,1,8,×,6,8 × 6,incongruent,largerFirst,1,2,48,,,,,,,,
,,,,,,,,,,,,,,,818,2022-01-18_14h34.44.258,multiplicationStroop,2021.2.3,MacIntel,59.99880002,,,,,,,,,,,,,,,,,,,,,,,,,,,,,,,,,64,5.269,1,0,30,30,34,1,8,×,8,8 × 8,neutral,tie,2,1,64,,,,,,,,
,,,,,,,,,,,,,,,818,2022-01-18_14h34.44.258,multiplicationStroop,2021.2.3,MacIntel,59.99880002,,,,,,,,,,,,,,,,,,,,,,,,,,,,,,,,,20,1.6134,1,0,31,31,13,1,4,×,5,4 × 5,incongruent,smallerFirst,2,1,20,,,,,,,,
,,,,,,,,,,,,,,,818,2022-01-18_14h34.44.258,multiplicationStroop,2021.2.3,MacIntel,59.99880002,,,,,,,,,,,,,,,,,,,,,,,,,,,,,,,,,35,2.5163,1,0,32,32,26,1,7,×,5,7 × 5,incongruent,largerFirst,1,2,35,,,,,,,,
,,,,,,,,,,,,,,,818,2022-01-18_14h34.44.258,multiplicationStroop,2021.2.3,MacIntel,59.99880002,,,,,,,,,,,,,,,,,,,,,,,,,,,,,,,,,36,8.0837,1,0,33,33,1,1,4,×,9,4 × 9,incongruent,smallerFirst,2,1,36,,,,,,,,
,,,,,,,,,,,,,,,818,2022-01-18_14h34.44.258,multiplicationStroop,2021.2.3,MacIntel,59.99880002,,,,,,,,,,,,,,,,,,,,,,,,,,,,,,,,,36,2.0227,1,0,34,34,32,1,6,×,6,6 × 6,neutral,tie,2,1,36,,,,,,,,
,,,,,,,,,,,,,,,818,2022-01-18_14h34.44.258,multiplicationStroop,2021.2.3,MacIntel,59.99880002,,,,,,,,,,,,,,,,,,,,,,,,,,,,,,,,,27,2.2811,1,0,35,35,4,1,3,×,9,3 × 9,incongruent,smallerFirst,2,1,27,,,,,,,,
,,,,,,,,,,,,,,,818,2022-01-18_14h34.44.258,multiplicationStroop,2021.2.3,MacIntel,59.99880002,,,,,,,,,,,,,,,,,,,,,,,,,,,,,,,,,,,,,,,,,,,,,,,,,,0,1,1,4,1,stimulusFile/mult_blk5_INcongruent.xlsx,,
,,,,,,,,,,,,,,,818,2022-01-18_14h34.44.258,multiplicationStroop,2021.2.3,MacIntel,59.99880002,,,,,,,,,,,,,,,,,,,,,,,,,,,,,,,space,0.9992,9,2.7847,1,0,0,0,29,1,3,×,3,3 × 3,neutral,tie,2,1,9,,,,,,,,
,,,,,,,,,,,,,,,818,2022-01-18_14h34.44.258,multiplicationStroop,2021.2.3,MacIntel,59.99880002,,,,,,,,,,,,,,,,,,,,,,,,,,,,,,,,,20,1.5741,1,0,1,1,7,1,4,×,5,4 × 5,congruent,smallerFirst,1,2,20,,,,,,,,
,,,,,,,,,,,,,,,818,2022-01-18_14h34.44.258,multiplicationStroop,2021.2.3,MacIntel,59.99880002,,,,,,,,,,,,,,,,,,,,,,,,,,,,,,,,,24,1.716,1,0,2,2,25,1,6,×,4,6 × 4,congruent,largerFirst,2,1,24,,,,,,,,
,,,,,,,,,,,,,,,818,2022-01-18_14h34.44.258,multiplicationStroop,2021.2.3,MacIntel,59.99880002,,,,,,,,,,,,,,,,,,,,,,,,,,,,,,,,,12,1.3498,1,0,3,3,2,1,3,×,4,3 × 4,congruent,smallerFirst,1,2,12,,,,,,,,
,,,,,,,,,,,,,,,818,2022-01-18_14h34.44.258,multiplicationStroop,2021.2.3,MacIntel,59.99880002,,,,,,,,,,,,,,,,,,,,,,,,,,,,,,,,,14,1.3492,1,0,4,4,14,1,7,×,2,7 × 2,congruent,largerFirst,2,1,14,,,,,,,,
,,,,,,,,,,,,,,,818,2022-01-18_14h34.44.258,multiplicationStroop,2021.2.3,MacIntel,59.99880002,,,,,,,,,,,,,,,,,,,,,,,,,,,,,,,,,16,2.0798,1,0,5,5,5,1,2,×,8,2 × 8,congruent,smallerFirst,1,2,16,,,,,,,,
,,,,,,,,,,,,,,,818,2022-01-18_14h34.44.258,multiplicationStroop,2021.2.3,MacIntel,59.99880002,,,,,,,,,,,,,,,,,,,,,,,,,,,,,,,,,35,2.1988,1,0,6,6,1,1,5,×,7,5 × 7,congruent,smallerFirst,1,2,35,,,,,,,,
,,,,,,,,,,,,,,,818,2022-01-18_14h34.44.258,multiplicationStroop,2021.2.3,MacIntel,59.99880002,,,,,,,,,,,,,,,,,,,,,,,,,,,,,,,,,64,4.0498,1,0,7,7,34,1,8,×,8,8 × 8,neutral,tie,2,1,64,,,,,,,,
,,,,,,,,,,,,,,,818,2022-01-18_14h34.44.258,multiplicationStroop,2021.2.3,MacIntel,59.99880002,,,,,,,,,,,,,,,,,,,,,,,,,,,,,,,,,36,3.0486,1,0,8,8,0,1,4,×,9,4 × 9,congruent,smallerFirst,1,2,36,,,,,,,,
,,,,,,,,,,,,,,,818,2022-01-18_14h34.44.258,multiplicationStroop,2021.2.3,MacIntel,59.99880002,,,,,,,,,,,,,,,,,,,,,,,,,,,,,,,,,45,3.2822,1,0,9,9,23,1,9,×,5,9 × 5,congruent,largerFirst,2,1,45,,,,,,,,
,,,,,,,,,,,,,,,818,2022-01-18_14h34.44.258,multiplicationStroop,2021.2.3,MacIntel,59.99880002,,,,,,,,,,,,,,,,,,,,,,,,,,,,,,,,,27,2.3177,0,0,10,10,27,1,7,×,4,7 × 4,congruent,largerFirst,2,1,28,,,,,,,,
,,,,,,,,,,,,,,,818,2022-01-18_14h34.44.258,multiplicationStroop,2021.2.3,MacIntel,59.99880002,,,,,,,,,,,,,,,,,,,,,,,,,,,,,,,,,63,9.2995,1,0,11,11,21,1,9,×,7,9 × 7,congruent,largerFirst,2,1,63,,,,,,,,
,,,,,,,,,,,,,,,818,2022-01-18_14h34.44.258,multiplicationStroop,2021.2.3,MacIntel,59.99880002,,,,,,,,,,,,,,,,,,,,,,,,,,,,,,,,,24,1.9481,1,0,12,12,10,1,3,×,8,3 × 8,congruent,smallerFirst,1,2,24,,,,,,,,
,,,,,,,,,,,,,,,818,2022-01-18_14h34.44.258,multiplicationStroop,2021.2.3,MacIntel,59.99880002,,,,,,,,,,,,,,,,,,,,,,,,,,,,,,,,,24,1.5326,0,0,13,13,20,1,8,×,4,8 × 4,congruent,largerFirst,2,1,32,,,,,,,,
,,,,,,,,,,,,,,,818,2022-01-18_14h34.44.258,multiplicationStroop,2021.2.3,MacIntel,59.99880002,,,,,,,,,,,,,,,,,,,,,,,,,,,,,,,,,36,1.8985,1,0,14,14,32,1,6,×,6,6 × 6,neutral,tie,2,1,36,,,,,,,,
,,,,,,,,,,,,,,,818,2022-01-18_14h34.44.258,multiplicationStroop,2021.2.3,MacIntel,59.99880002,,,,,,,,,,,,,,,,,,,,,,,,,,,,,,,,,56,5.899,1,0,15,15,8,1,7,×,8,7 × 8,congruent,smallerFirst,1,2,56,,,,,,,,
,,,,,,,,,,,,,,,818,2022-01-18_14h34.44.258,multiplicationStroop,2021.2.3,MacIntel,59.99880002,,,,,,,,,,,,,,,,,,,,,,,,,,,,,,,,,12,1.4672,1,0,16,16,19,1,6,×,2,6 × 2,congruent,largerFirst,2,1,12,,,,,,,,
,,,,,,,,,,,,,,,818,2022-01-18_14h34.44.258,multiplicationStroop,2021.2.3,MacIntel,59.99880002,,,,,,,,,,,,,,,,,,,,,,,,,,,,,,,,,15,1.5332,1,0,17,17,4,1,3,×,5,3 × 5,congruent,smallerFirst,1,2,15,,,,,,,,
,,,,,,,,,,,,,,,818,2022-01-18_14h34.44.258,multiplicationStroop,2021.2.3,MacIntel,59.99880002,,,,,,,,,,,,,,,,,,,,,,,,,,,,,,,,,72,5.1635,1,0,18,18,17,1,9,×,8,9 × 8,congruent,largerFirst,2,1,72,,,,,,,,
,,,,,,,,,,,,,,,818,2022-01-18_14h34.44.258,multiplicationStroop,2021.2.3,MacIntel,59.99880002,,,,,,,,,,,,,,,,,,,,,,,,,,,,,,,,,16,1.8134,1,0,19,19,30,1,4,×,4,4 × 4,neutral,tie,2,1,16,,,,,,,,
,,,,,,,,,,,,,,,818,2022-01-18_14h34.44.258,multiplicationStroop,2021.2.3,MacIntel,59.99880002,,,,,,,,,,,,,,,,,,,,,,,,,,,,,,,,,30,1.9164,1,0,20,20,15,1,6,×,5,6 × 5,congruent,largerFirst,2,1,30,,,,,,,,
,,,,,,,,,,,,,,,818,2022-01-18_14h34.44.258,multiplicationStroop,2021.2.3,MacIntel,59.99880002,,,,,,,,,,,,,,,,,,,,,,,,,,,,,,,,,6,1.8813,1,0,21,21,13,1,2,×,3,2 × 3,congruent,smallerFirst,1,2,6,,,,,,,,
,,,,,,,,,,,,,,,818,2022-01-18_14h34.44.258,multiplicationStroop,2021.2.3,MacIntel,59.99880002,,,,,,,,,,,,,,,,,,,,,,,,,,,,,,,,,18,2.2161,1,0,22,22,11,1,3,×,6,3 × 6,congruent,smallerFirst,1,2,18,,,,,,,,
,,,,,,,,,,,,,,,818,2022-01-18_14h34.44.258,multiplicationStroop,2021.2.3,MacIntel,59.99880002,,,,,,,,,,,,,,,,,,,,,,,,,,,,,,,,,81,5.1665,1,0,23,23,35,1,9,×,9,9 × 9,neutral,tie,2,1,81,,,,,,,,
,,,,,,,,,,,,,,,818,2022-01-18_14h34.44.258,multiplicationStroop,2021.2.3,MacIntel,59.99880002,,,,,,,,,,,,,,,,,,,,,,,,,,,,,,,,,49,9.1493,1,0,24,24,33,1,7,×,7,7 × 7,neutral,tie,2,1,49,,,,,,,,
,,,,,,,,,,,,,,,818,2022-01-18_14h34.44.258,multiplicationStroop,2021.2.3,MacIntel,59.99880002,,,,,,,,,,,,,,,,,,,,,,,,,,,,,,,,,54,8.2163,1,0,25,25,12,1,6,×,9,6 × 9,congruent,smallerFirst,1,2,54,,,,,,,,
,,,,,,,,,,,,,,,818,2022-01-18_14h34.44.258,multiplicationStroop,2021.2.3,MacIntel,59.99880002,,,,,,,,,,,,,,,,,,,,,,,,,,,,,,,,,10,1.5217,1,0,26,26,24,1,5,×,2,5 × 2,congruent,largerFirst,2,1,10,,,,,,,,
,,,,,,,,,,,,,,,818,2022-01-18_14h34.44.258,multiplicationStroop,2021.2.3,MacIntel,59.99880002,,,,,,,,,,,,,,,,,,,,,,,,,,,,,,,,,27,2.0166,1,0,27,27,26,1,9,×,3,9 × 3,congruent,largerFirst,2,1,27,,,,,,,,
,,,,,,,,,,,,,,,818,2022-01-18_14h34.44.258,multiplicationStroop,2021.2.3,MacIntel,59.99880002,,,,,,,,,,,,,,,,,,,,,,,,,,,,,,,,,40,2.1488,1,0,28,28,6,1,5,×,8,5 × 8,congruent,smallerFirst,1,2,40,,,,,,,,
,,,,,,,,,,,,,,,818,2022-01-18_14h34.44.258,multiplicationStroop,2021.2.3,MacIntel,59.99880002,,,,,,,,,,,,,,,,,,,,,,,,,,,,,,,,,4,2.0158,1,0,29,29,28,1,2,×,2,2 × 2,neutral,tie,2,1,4,,,,,,,,
,,,,,,,,,,,,,,,818,2022-01-18_14h34.44.258,multiplicationStroop,2021.2.3,MacIntel,59.99880002,,,,,,,,,,,,,,,,,,,,,,,,,,,,,,,,,21,1.4836,1,0,30,30,16,1,7,×,3,7 × 3,congruent,largerFirst,2,1,21,,,,,,,,
,,,,,,,,,,,,,,,818,2022-01-18_14h34.44.258,multiplicationStroop,2021.2.3,MacIntel,59.99880002,,,,,,,,,,,,,,,,,,,,,,,,,,,,,,,,,25,2.382,1,0,31,31,31,1,5,×,5,5 × 5,neutral,tie,2,1,25,,,,,,,,
,,,,,,,,,,,,,,,818,2022-01-18_14h34.44.258,multiplicationStroop,2021.2.3,MacIntel,59.99880002,,,,,,,,,,,,,,,,,,,,,,,,,,,,,,,,,42,1.9337,1,0,32,32,3,1,6,×,7,6 × 7,congruent,smallerFirst,1,2,42,,,,,,,,
,,,,,,,,,,,,,,,818,2022-01-18_14h34.44.258,multiplicationStroop,2021.2.3,MacIntel,59.99880002,,,,,,,,,,,,,,,,,,,,,,,,,,,,,,,,,18,1.7488,1,0,33,33,22,1,9,×,2,9 × 2,congruent,largerFirst,2,1,18,,,,,,,,
,,,,,,,,,,,,,,,818,2022-01-18_14h34.44.258,multiplicationStroop,2021.2.3,MacIntel,59.99880002,,,,,,,,,,,,,,,,,,,,,,,,,,,,,,,,,48,2.5987,1,0,34,34,18,1,8,×,6,8 × 6,congruent,largerFirst,2,1,48,,,,,,,,
,,,,,,,,,,,,,,,818,2022-01-18_14h34.44.258,multiplicationStroop,2021.2.3,MacIntel,59.99880002,,,,,,,,,,,,,,,,,,,,,,,,,,,,,,,,,8,2.0837,1,0,35,35,9,1,2,×,4,2 × 4,congruent,smallerFirst,1,2,8,,,,,,,,
,,,,,,,,,,,,,,,818,2022-01-18_14h34.44.258,multiplicationStroop,2021.2.3,MacIntel,59.99880002,,,,,,,,,,,,,,,,,,,,,,,,,,,,,,,,,,,,,,,,,,,,,,,,,,0,2,2,2,1,stimulusFile/mult_blk3_congruent.xlsx,,
,,,,,,,,,,,,,,,818,2022-01-18_14h34.44.258,multiplicationStroop,2021.2.3,MacIntel,59.99880002,,,,,,,,,,,,,,,,,,,,,,,,,,,,,,,space,0.904,28,10.2335,1,0,0,0,3,1,4,×,7,4 × 7,neutral,smallerFirst,1.5,1.5,28,,,,,,,,
,,,,,,,,,,,,,,,818,2022-01-18_14h34.44.258,multiplicationStroop,2021.2.3,MacIntel,59.99880002,,,,,,,,,,,,,,,,,,,,,,,,,,,,,,,,,48,2.8378,1,0,1,1,1,1,6,×,8,6 × 8,neutral,smallerFirst,1.5,1.5,48,,,,,,,,
,,,,,,,,,,,,,,,818,2022-01-18_14h34.44.258,multiplicationStroop,2021.2.3,MacIntel,59.99880002,,,,,,,,,,,,,,,,,,,,,,,,,,,,,,,,,35,3.5983,1,0,2,2,15,1,7,×,5,7 × 5,neutral,largerFirst,1.5,1.5,35,,,,,,,,
,,,,,,,,,,,,,,,818,2022-01-18_14h34.44.258,multiplicationStroop,2021.2.3,MacIntel,59.99880002,,,,,,,,,,,,,,,,,,,,,,,,,,,,,,,,,18,2.836,1,0,3,3,14,1,6,×,3,6 × 3,neutral,largerFirst,1.5,1.5,18,,,,,,,,
,,,,,,,,,,,,,,,818,2022-01-18_14h34.44.258,multiplicationStroop,2021.2.3,MacIntel,59.99880002,,,,,,,,,,,,,,,,,,,,,,,,,,,,,,,,,49,2.366,0,0,4,4,35,1,9,×,9,9 × 9,neutral,tie,1.5,1.5,81,,,,,,,,
,,,,,,,,,,,,,,,818,2022-01-18_14h34.44.258,multiplicationStroop,2021.2.3,MacIntel,59.99880002,,,,,,,,,,,,,,,,,,,,,,,,,,,,,,,,,10,1.7663,1,0,5,5,18,1,5,×,2,5 × 2,neutral,largerFirst,1.5,1.5,10,,,,,,,,
,,,,,,,,,,,,,,,818,2022-01-18_14h34.44.258,multiplicationStroop,2021.2.3,MacIntel,59.99880002,,,,,,,,,,,,,,,,,,,,,,,,,,,,,,,,,30,3.131,1,0,6,6,5,1,5,×,6,5 × 6,neutral,smallerFirst,1.5,1.5,30,,,,,,,,
,,,,,,,,,,,,,,,818,2022-01-18_14h34.44.258,multiplicationStroop,2021.2.3,MacIntel,59.99880002,,,,,,,,,,,,,,,,,,,,,,,,,,,,,,,,,8,1.5857,1,0,7,7,17,1,4,×,2,4 × 2,neutral,largerFirst,1.5,1.5,8,,,,,,,,
,,,,,,,,,,,,,,,818,2022-01-18_14h34.44.258,multiplicationStroop,2021.2.3,MacIntel,59.99880002,,,,,,,,,,,,,,,,,,,,,,,,,,,,,,,,,24,2.4332,1,0,8,8,16,1,6,×,4,6 × 4,neutral,largerFirst,1.5,1.5,24,,,,,,,,
,,,,,,,,,,,,,,,818,2022-01-18_14h34.44.258,multiplicationStroop,2021.2.3,MacIntel,59.99880002,,,,,,,,,,,,,,,,,,,,,,,,,,,,,,,,,36,2.9491,1,0,9,9,13,1,4,×,9,4 × 9,neutral,smallerFirst,1.5,1.5,36,,,,,,,,
,,,,,,,,,,,,,,,818,2022-01-18_14h34.44.258,multiplicationStroop,2021.2.3,MacIntel,59.99880002,,,,,,,,,,,,,,,,,,,,,,,,,,,,,,,,,12,2.2325,1,0,10,10,11,1,2,×,6,2 × 6,neutral,smallerFirst,1.5,1.5,12,,,,,,,,
,,,,,,,,,,,,,,,818,2022-01-18_14h34.44.258,multiplicationStroop,2021.2.3,MacIntel,59.99880002,,,,,,,,,,,,,,,,,,,,,,,,,,,,,,,,,72,5.251,1,0,11,11,25,1,9,×,8,9 × 8,neutral,largerFirst,1.5,1.5,72,,,,,,,,
,,,,,,,,,,,,,,,818,2022-01-18_14h34.44.258,multiplicationStroop,2021.2.3,MacIntel,59.99880002,,,,,,,,,,,,,,,,,,,,,,,,,,,,,,,,,20,1.6641,1,0,12,12,6,1,4,×,5,4 × 5,neutral,smallerFirst,1.5,1.5,20,,,,,,,,
,,,,,,,,,,,,,,,818,2022-01-18_14h34.44.258,multiplicationStroop,2021.2.3,MacIntel,59.99880002,,,,,,,,,,,,,,,,,,,,,,,,,,,,,,,,,56,5.6815,1,0,13,13,23,1,8,×,7,8 × 7,neutral,largerFirst,1.5,1.5,56,,,,,,,,
,,,,,,,,,,,,,,,818,2022-01-18_14h34.44.258,multiplicationStroop,2021.2.3,MacIntel,59.99880002,,,,,,,,,,,,,,,,,,,,,,,,,,,,,,,,,6,2.4644,1,0,14,14,12,1,2,×,3,2 × 3,neutral,smallerFirst,1.5,1.5,6,,,,,,,,
,,,,,,,,,,,,,,,818,2022-01-18_14h34.44.258,multiplicationStroop,2021.2.3,MacIntel,59.99880002,,,,,,,,,,,,,,,,,,,,,,,,,,,,,,,,,14,2.4673,1,0,15,15,2,1,2,×,7,2 × 7,neutral,smallerFirst,1.5,1.5,14,,,,,,,,
,,,,,,,,,,,,,,,818,2022-01-18_14h34.44.258,multiplicationStroop,2021.2.3,MacIntel,59.99880002,,,,,,,,,,,,,,,,,,,,,,,,,,,,,,,,,49,1.964,1,0,16,16,33,1,7,×,7,7 × 7,neutral,tie,1.5,1.5,49,,,,,,,,
,,,,,,,,,,,,,,,818,2022-01-18_14h34.44.258,multiplicationStroop,2021.2.3,MacIntel,59.99880002,,,,,,,,,,,,,,,,,,,,,,,,,,,,,,,,,27,3.449,1,0,17,17,0,1,3,×,9,3 × 9,neutral,smallerFirst,1.5,1.5,27,,,,,,,,
,,,,,,,,,,,,,,,818,2022-01-18_14h34.44.258,multiplicationStroop,2021.2.3,MacIntel,59.99880002,,,,,,,,,,,,,,,,,,,,,,,,,,,,,,,,,15,1.5064,1,0,18,18,19,1,5,×,3,5 × 3,neutral,largerFirst,1.5,1.5,15,,,,,,,,
,,,,,,,,,,,,,,,818,2022-01-18_14h34.44.258,multiplicationStroop,2021.2.3,MacIntel,59.99880002,,,,,,,,,,,,,,,,,,,,,,,,,,,,,,,,,9,1.7153,1,0,19,19,29,1,3,×,3,3 × 3,neutral,tie,1.5,1.5,9,,,,,,,,
,,,,,,,,,,,,,,,818,2022-01-18_14h34.44.258,multiplicationStroop,2021.2.3,MacIntel,59.99880002,,,,,,,,,,,,,,,,,,,,,,,,,,,,,,,,,45,3.2501,1,0,20,20,24,1,9,×,5,9 × 5,neutral,largerFirst,1.5,1.5,45,,,,,,,,
,,,,,,,,,,,,,,,818,2022-01-18_14h34.44.258,multiplicationStroop,2021.2.3,MacIntel,59.99880002,,,,,,,,,,,,,,,,,,,,,,,,,,,,,,,,,24,2.4658,1,0,21,21,8,1,3,×,8,3 × 8,neutral,smallerFirst,1.5,1.5,24,,,,,,,,
,,,,,,,,,,,,,,,818,2022-01-18_14h34.44.258,multiplicationStroop,2021.2.3,MacIntel,59.99880002,,,,,,,,,,,,,,,,,,,,,,,,,,,,,,,,,21,1.5329,1,0,22,22,22,1,7,×,3,7 × 3,neutral,largerFirst,1.5,1.5,21,,,,,,,,
,,,,,,,,,,,,,,,818,2022-01-18_14h34.44.258,multiplicationStroop,2021.2.3,MacIntel,59.99880002,,,,,,,,,,,,,,,,,,,,,,,,,,,,,,,,,4,1.4122,1,0,23,23,28,1,2,×,2,2 × 2,neutral,tie,1.5,1.5,4,,,,,,,,
,,,,,,,,,,,,,,,818,2022-01-18_14h34.44.258,multiplicationStroop,2021.2.3,MacIntel,59.99880002,,,,,,,,,,,,,,,,,,,,,,,,,,,,,,,,,12,1.3996,1,0,24,24,7,1,3,×,4,3 × 4,neutral,smallerFirst,1.5,1.5,12,,,,,,,,
,,,,,,,,,,,,,,,818,2022-01-18_14h34.44.258,multiplicationStroop,2021.2.3,MacIntel,59.99880002,,,,,,,,,,,,,,,,,,,,,,,,,,,,,,,,,64,3.9327,1,0,25,25,34,1,8,×,8,8 × 8,neutral,tie,1.5,1.5,64,,,,,,,,
,,,,,,,,,,,,,,,818,2022-01-18_14h34.44.258,multiplicationStroop,2021.2.3,MacIntel,59.99880002,,,,,,,,,,,,,,,,,,,,,,,,,,,,,,,,,16,1.9173,1,0,26,26,27,1,8,×,2,8 × 2,neutral,largerFirst,1.5,1.5,16,,,,,,,,
,,,,,,,,,,,,,,,818,2022-01-18_14h34.44.258,multiplicationStroop,2021.2.3,MacIntel,59.99880002,,,,,,,,,,,,,,,,,,,,,,,,,,,,,,,,,63,6.5161,1,0,27,27,26,1,9,×,7,9 × 7,neutral,largerFirst,1.5,1.5,63,,,,,,,,
,,,,,,,,,,,,,,,818,2022-01-18_14h34.44.258,multiplicationStroop,2021.2.3,MacIntel,59.99880002,,,,,,,,,,,,,,,,,,,,,,,,,,,,,,,,,54,2.4117,1,0,28,28,21,1,9,×,6,9 × 6,neutral,largerFirst,1.5,1.5,54,,,,,,,,
,,,,,,,,,,,,,,,818,2022-01-18_14h34.44.258,multiplicationStroop,2021.2.3,MacIntel,59.99880002,,,,,,,,,,,,,,,,,,,,,,,,,,,,,,,,,18,1.916,1,0,29,29,4,1,2,×,9,2 × 9,neutral,smallerFirst,1.5,1.5,18,,,,,,,,
,,,,,,,,,,,,,,,818,2022-01-18_14h34.44.258,multiplicationStroop,2021.2.3,MacIntel,59.99880002,,,,,,,,,,,,,,,,,,,,,,,,,,,,,,,,,36,2.1663,1,0,30,30,32,1,6,×,6,6 × 6,neutral,tie,1.5,1.5,36,,,,,,,,
,,,,,,,,,,,,,,,818,2022-01-18_14h34.44.258,multiplicationStroop,2021.2.3,MacIntel,59.99880002,,,,,,,,,,,,,,,,,,,,,,,,,,,,,,,,,25,3.6488,1,0,31,31,31,1,5,×,5,5 × 5,neutral,tie,1.5,1.5,25,,,,,,,,
,,,,,,,,,,,,,,,818,2022-01-18_14h34.44.258,multiplicationStroop,2021.2.3,MacIntel,59.99880002,,,,,,,,,,,,,,,,,,,,,,,,,,,,,,,,,40,1.9282,1,0,32,32,10,1,5,×,8,5 × 8,neutral,smallerFirst,1.5,1.5,40,,,,,,,,
,,,,,,,,,,,,,,,818,2022-01-18_14h34.44.258,multiplicationStroop,2021.2.3,MacIntel,59.99880002,,,,,,,,,,,,,,,,,,,,,,,,,,,,,,,,,16,1.7975,1,0,33,33,30,1,4,×,4,4 × 4,neutral,tie,1.5,1.5,16,,,,,,,,
,,,,,,,,,,,,,,,818,2022-01-18_14h34.44.258,multiplicationStroop,2021.2.3,MacIntel,59.99880002,,,,,,,,,,,,,,,,,,,,,,,,,,,,,,,,,42,2.3981,1,0,34,34,20,1,7,×,6,7 × 6,neutral,largerFirst,1.5,1.5,42,,,,,,,,
,,,,,,,,,,,,,,,818,2022-01-18_14h34.44.258,multiplicationStroop,2021.2.3,MacIntel,59.99880002,,,,,,,,,,,,,,,,,,,,,,,,,,,,,,,,,32,2.8351,1,0,35,35,9,1,4,×,8,4 × 8,neutral,smallerFirst,1.5,1.5,32,,,,,,,,
,,,,,,,,,,,,,,,818,2022-01-18_14h34.44.258,multiplicationStroop,2021.2.3,MacIntel,59.99880002,,,,,,,,,,,,,,,,,,,,,,,,,,,,,,,,,,,,,,,,,,,,,,,,,,0,3,3,0,1,stimulusFile/mult_blk1.xlsx,,
,,,,,,,,,,,,,,,818,2022-01-18_14h34.44.258,multiplicationStroop,2021.2.3,MacIntel,59.99880002,,,,,,,,,,,,,,,,,,,,,,,,,,,,,,,space,1.257,8,1.8708,1,0,0,0,23,1,4,×,2,4 × 2,congruent,largerFirst,2,1,8,,,,,,,,
,,,,,,,,,,,,,,,818,2022-01-18_14h34.44.258,multiplicationStroop,2021.2.3,MacIntel,59.99880002,,,,,,,,,,,,,,,,,,,,,,,,,,,,,,,,,12,1.4006,1,0,1,1,5,1,2,×,6,2 × 6,congruent,smallerFirst,1,2,12,,,,,,,,
,,,,,,,,,,,,,,,818,2022-01-18_14h34.44.258,multiplicationStroop,2021.2.3,MacIntel,59.99880002,,,,,,,,,,,,,,,,,,,,,,,,,,,,,,,,,10,1.5815,1,0,2,2,10,1,2,×,5,2 × 5,congruent,smallerFirst,1,2,10,,,,,,,,
,,,,,,,,,,,,,,,818,2022-01-18_14h34.44.258,multiplicationStroop,2021.2.3,MacIntel,59.99880002,,,,,,,,,,,,,,,,,,,,,,,,,,,,,,,,,24,2.4495,1,0,3,3,11,1,4,×,6,4 × 6,congruent,smallerFirst,1,2,24,,,,,,,,
,,,,,,,,,,,,,,,818,2022-01-18_14h34.44.258,multiplicationStroop,2021.2.3,MacIntel,59.99880002,,,,,,,,,,,,,,,,,,,,,,,,,,,,,,,,,63,18.9013,1,0,4,4,7,1,7,×,9,7 × 9,congruent,smallerFirst,1,2,63,,,,,,,,
,,,,,,,,,,,,,,,818,2022-01-18_14h34.44.258,multiplicationStroop,2021.2.3,MacIntel,59.99880002,,,,,,,,,,,,,,,,,,,,,,,,,,,,,,,,,18,3.6299,1,0,5,5,25,1,6,×,3,6 × 3,congruent,largerFirst,2,1,18,,,,,,,,
,,,,,,,,,,,,,,,818,2022-01-18_14h34.44.258,multiplicationStroop,2021.2.3,MacIntel,59.99880002,,,,,,,,,,,,,,,,,,,,,,,,,,,,,,,,,64,2.9478,1,0,6,6,34,1,8,×,8,8 × 8,neutral,tie,1,2,64,,,,,,,,
,,,,,,,,,,,,,,,818,2022-01-18_14h34.44.258,multiplicationStroop,2021.2.3,MacIntel,59.99880002,,,,,,,,,,,,,,,,,,,,,,,,,,,,,,,,,56,9.9473,1,0,7,7,22,1,8,×,7,8 × 7,congruent,largerFirst,2,1,56,,,,,,,,
,,,,,,,,,,,,,,,818,2022-01-18_14h34.44.258,multiplicationStroop,2021.2.3,MacIntel,59.99880002,,,,,,,,,,,,,,,,,,,,,,,,,,,,,,,,,25,2.6031,1,0,8,8,31,1,5,×,5,5 × 5,neutral,tie,1,2,25,,,,,,,,
,,,,,,,,,,,,,,,818,2022-01-18_14h34.44.258,multiplicationStroop,2021.2.3,MacIntel,59.99880002,,,,,,,,,,,,,,,,,,,,,,,,,,,,,,,,,54,2.963,1,0,9,9,26,1,9,×,6,9 × 6,congruent,largerFirst,2,1,54,,,,,,,,
,,,,,,,,,,,,,,,818,2022-01-18_14h34.44.258,multiplicationStroop,2021.2.3,MacIntel,59.99880002,,,,,,,,,,,,,,,,,,,,,,,,,,,,,,,,,16,2.1328,1,0,10,10,30,1,4,×,4,4 × 4,neutral,tie,1,2,16,,,,,,,,
,,,,,,,,,,,,,,,818,2022-01-18_14h34.44.258,multiplicationStroop,2021.2.3,MacIntel,59.99880002,,,,,,,,,,,,,,,,,,,,,,,,,,,,,,,,,21,2.0164,1,0,11,11,2,1,3,×,7,3 × 7,congruent,smallerFirst,1,2,21,,,,,,,,
,,,,,,,,,,,,,,,818,2022-01-18_14h34.44.258,multiplicationStroop,2021.2.3,MacIntel,59.99880002,,,,,,,,,,,,,,,,,,,,,,,,,,,,,,,,,16,1.9656,1,0,12,12,19,1,8,×,2,8 × 2,congruent,largerFirst,2,1,16,,,,,,,,
,,,,,,,,,,,,,,,818,2022-01-18_14h34.44.258,multiplicationStroop,2021.2.3,MacIntel,59.99880002,,,,,,,,,,,,,,,,,,,,,,,,,,,,,,,,,36,2.3826,1,0,13,13,32,1,6,×,6,6 × 6,neutral,tie,1,2,36,,,,,,,,
,,,,,,,,,,,,,,,818,2022-01-18_14h34.44.258,multiplicationStroop,2021.2.3,MacIntel,59.99880002,,,,,,,,,,,,,,,,,,,,,,,,,,,,,,,,,14,2.2891,1,0,14,14,0,1,2,×,7,2 × 7,congruent,smallerFirst,1,2,14,,,,,,,,
,,,,,,,,,,,,,,,818,2022-01-18_14h34.44.258,multiplicationStroop,2021.2.3,MacIntel,59.99880002,,,,,,,,,,,,,,,,,,,,,,,,,,,,,,,,,12,2.0162,1,0,15,15,16,1,4,×,3,4 × 3,congruent,largerFirst,2,1,12,,,,,,,,
,,,,,,,,,,,,,,,818,2022-01-18_14h34.44.258,multiplicationStroop,2021.2.3,MacIntel,59.99880002,,,,,,,,,,,,,,,,,,,,,,,,,,,,,,,,,15,1.8995,1,0,16,16,18,1,5,×,3,5 × 3,congruent,largerFirst,2,1,15,,,,,,,,
,,,,,,,,,,,,,,,818,2022-01-18_14h34.44.258,multiplicationStroop,2021.2.3,MacIntel,59.99880002,,,,,,,,,,,,,,,,,,,,,,,,,,,,,,,,,48,3.2006,1,0,17,17,4,1,6,×,8,6 × 8,congruent,smallerFirst,1,2,48,,,,,,,,
,,,,,,,,,,,,,,,818,2022-01-18_14h34.44.258,multiplicationStroop,2021.2.3,MacIntel,59.99880002,,,,,,,,,,,,,,,,,,,,,,,,,,,,,,,,,35,2.1314,1,0,18,18,15,1,7,×,5,7 × 5,congruent,largerFirst,2,1,35,,,,,,,,
,,,,,,,,,,,,,,,818,2022-01-18_14h34.44.258,multiplicationStroop,2021.2.3,MacIntel,59.99880002,,,,,,,,,,,,,,,,,,,,,,,,,,,,,,,,,24,2.0339,1,0,19,19,24,1,8,×,3,8 × 3,congruent,largerFirst,2,1,24,,,,,,,,
,,,,,,,,,,,,,,,818,2022-01-18_14h34.44.258,multiplicationStroop,2021.2.3,MacIntel,59.99880002,,,,,,,,,,,,,,,,,,,,,,,,,,,,,,,,,27,4.5165,1,0,20,20,12,1,3,×,9,3 × 9,congruent,smallerFirst,1,2,27,,,,,,,,
,,,,,,,,,,,,,,,818,2022-01-18_14h34.44.258,multiplicationStroop,2021.2.3,MacIntel,59.99880002,,,,,,,,,,,,,,,,,,,,,,,,,,,,,,,,,4,2.0813,1,0,21,21,28,1,2,×,2,2 × 2,neutral,tie,1,2,4,,,,,,,,
,,,,,,,,,,,,,,,818,2022-01-18_14h34.44.258,multiplicationStroop,2021.2.3,MacIntel,59.99880002,,,,,,,,,,,,,,,,,,,,,,,,,,,,,,,,,20,2.5482,1,0,22,22,21,1,5,×,4,5 × 4,congruent,largerFirst,2,1,20,,,,,,,,
,,,,,,,,,,,,,,,818,2022-01-18_14h34.44.258,multiplicationStroop,2021.2.3,MacIntel,59.99880002,,,,,,,,,,,,,,,,,,,,,,,,,,,,,,,,,6,1.8994,1,0,23,23,27,1,3,×,2,3 × 2,congruent,largerFirst,2,1,6,,,,,,,,
,,,,,,,,,,,,,,,818,2022-01-18_14h34.44.258,multiplicationStroop,2021.2.3,MacIntel,59.99880002,,,,,,,,,,,,,,,,,,,,,,,,,,,,,,,,,45,2.0995,1,0,24,24,9,1,5,×,9,5 × 9,congruent,smallerFirst,1,2,45,,,,,,,,
,,,,,,,,,,,,,,,818,2022-01-18_14h34.44.258,multiplicationStroop,2021.2.3,MacIntel,59.99880002,,,,,,,,,,,,,,,,,,,,,,,,,,,,,,,,,49,2.1326,0,0,25,25,35,1,9,×,9,9 × 9,neutral,tie,1,2,81,,,,,,,,
,,,,,,,,,,,,,,,818,2022-01-18_14h34.44.258,multiplicationStroop,2021.2.3,MacIntel,59.99880002,,,,,,,,,,,,,,,,,,,,,,,,,,,,,,,,,32,2.8829,1,0,26,26,6,1,4,×,8,4 × 8,congruent,smallerFirst,1,2,32,,,,,,,,
,,,,,,,,,,,,,,,818,2022-01-18_14h34.44.258,multiplicationStroop,2021.2.3,MacIntel,59.99880002,,,,,,,,,,,,,,,,,,,,,,,,,,,,,,,,,9,2.0828,1,0,27,27,29,1,3,×,3,3 × 3,neutral,tie,1,2,9,,,,,,,,
,,,,,,,,,,,,,,,818,2022-01-18_14h34.44.258,multiplicationStroop,2021.2.3,MacIntel,59.99880002,,,,,,,,,,,,,,,,,,,,,,,,,,,,,,,,,72,7.151,1,0,28,28,3,1,8,×,9,8 × 9,congruent,smallerFirst,1,2,72,,,,,,,,
,,,,,,,,,,,,,,,818,2022-01-18_14h34.44.258,multiplicationStroop,2021.2.3,MacIntel,59.99880002,,,,,,,,,,,,,,,,,,,,,,,,,,,,,,,,,36,2.6135,1,0,29,29,14,1,9,×,4,9 × 4,congruent,largerFirst,2,1,36,,,,,,,,
,,,,,,,,,,,,,,,818,2022-01-18_14h34.44.258,multiplicationStroop,2021.2.3,MacIntel,59.99880002,,,,,,,,,,,,,,,,,,,,,,,,,,,,,,,,,42,2.4328,1,0,30,30,17,1,7,×,6,7 × 6,congruent,largerFirst,2,1,42,,,,,,,,
,,,,,,,,,,,,,,,818,2022-01-18_14h34.44.258,multiplicationStroop,2021.2.3,MacIntel,59.99880002,,,,,,,,,,,,,,,,,,,,,,,,,,,,,,,,,28,2.5638,1,0,31,31,13,1,4,×,7,4 × 7,congruent,smallerFirst,1,2,28,,,,,,,,
,,,,,,,,,,,,,,,818,2022-01-18_14h34.44.258,multiplicationStroop,2021.2.3,MacIntel,59.99880002,,,,,,,,,,,,,,,,,,,,,,,,,,,,,,,,,49,2.1491,1,0,32,32,33,1,7,×,7,7 × 7,neutral,tie,1,2,49,,,,,,,,
,,,,,,,,,,,,,,,818,2022-01-18_14h34.44.258,multiplicationStroop,2021.2.3,MacIntel,59.99880002,,,,,,,,,,,,,,,,,,,,,,,,,,,,,,,,,30,2.5319,1,0,33,33,1,1,5,×,6,5 × 6,congruent,smallerFirst,1,2,30,,,,,,,,
,,,,,,,,,,,,,,,818,2022-01-18_14h34.44.258,multiplicationStroop,2021.2.3,MacIntel,59.99880002,,,,,,,,,,,,,,,,,,,,,,,,,,,,,,,,,40,1.8845,1,0,34,34,20,1,8,×,5,8 × 5,congruent,largerFirst,2,1,40,,,,,,,,
,,,,,,,,,,,,,,,818,2022-01-18_14h34.44.258,multiplicationStroop,2021.2.3,MacIntel,59.99880002,,,,,,,,,,,,,,,,,,,,,,,,,,,,,,,,,18,2.1983,1,0,35,35,8,1,2,×,9,2 × 9,congruent,smallerFirst,1,2,18,,,,,,,,
,,,,,,,,,,,,,,,818,2022-01-18_14h34.44.258,multiplicationStroop,2021.2.3,MacIntel,59.99880002,,,,,,,,,,,,,,,,,,,,,,,,,,,,,,,,,,,,,,,,,,,,,,,,,,0,4,4,3,1,stimulusFile/mult_blk4_congruent.xlsx,,
,,,,,,,,,,,,,,,818,2022-01-18_14h34.44.258,multiplicationStroop,2021.2.3,MacIntel,59.99880002,,,,,,,,,,,,,,,,,,,,,,,,,,,,,,,space,387.811,48,2.4627,1,0,0,0,15,1,8,×,6,8 × 6,neutral,largerFirst,1.5,1.5,48,,,,,,,,
,,,,,,,,,,,,,,,818,2022-01-18_14h34.44.258,multiplicationStroop,2021.2.3,MacIntel,59.99880002,,,,,,,,,,,,,,,,,,,,,,,,,,,,,,,,,4,1.3976,1,0,1,1,28,1,2,×,2,2 × 2,neutral,tie,1.5,1.5,4,,,,,,,,
,,,,,,,,,,,,,,,818,2022-01-18_14h34.44.258,multiplicationStroop,2021.2.3,MacIntel,59.99880002,,,,,,,,,,,,,,,,,,,,,,,,,,,,,,,,,27,2.4338,1,0,2,2,14,1,9,×,3,9 × 3,neutral,largerFirst,1.5,1.5,27,,,,,,,,
,,,,,,,,,,,,,,,818,2022-01-18_14h34.44.258,multiplicationStroop,2021.2.3,MacIntel,59.99880002,,,,,,,,,,,,,,,,,,,,,,,,,,,,,,,,,6,1.4973,1,0,3,3,26,1,3,×,2,3 × 2,neutral,largerFirst,1.5,1.5,6,,,,,,,,
,,,,,,,,,,,,,,,818,2022-01-18_14h34.44.258,multiplicationStroop,2021.2.3,MacIntel,59.99880002,,,,,,,,,,,,,,,,,,,,,,,,,,,,,,,,,12,1.3833,1,0,4,4,21,1,4,×,3,4 × 3,neutral,largerFirst,1.5,1.5,12,,,,,,,,
,,,,,,,,,,,,,,,818,2022-01-18_14h34.44.258,multiplicationStroop,2021.2.3,MacIntel,59.99880002,,,,,,,,,,,,,,,,,,,,,,,,,,,,,,,,,27,1.9483,0,0,5,5,8,1,3,×,7,3 × 7,neutral,smallerFirst,1.5,1.5,21,,,,,,,,
,,,,,,,,,,,,,,,818,2022-01-18_14h34.44.258,multiplicationStroop,2021.2.3,MacIntel,59.99880002,,,,,,,,,,,,,,,,,,,,,,,,,,,,,,,,,36,2.1323,0,0,6,6,2,1,4,×,6,4 × 6,neutral,smallerFirst,1.5,1.5,24,,,,,,,,
,,,,,,,,,,,,,,,818,2022-01-18_14h34.44.258,multiplicationStroop,2021.2.3,MacIntel,59.99880002,,,,,,,,,,,,,,,,,,,,,,,,,,,,,,,,,46,3.9167,0,0,7,7,32,1,6,×,6,6 × 6,neutral,tie,1.5,1.5,36,,,,,,,,
,,,,,,,,,,,,,,,818,2022-01-18_14h34.44.258,multiplicationStroop,2021.2.3,MacIntel,59.99880002,,,,,,,,,,,,,,,,,,,,,,,,,,,,,,,,,20,1.702,1,0,8,8,20,1,5,×,4,5 × 4,neutral,largerFirst,1.5,1.5,20,,,,,,,,
,,,,,,,,,,,,,,,818,2022-01-18_14h34.44.258,multiplicationStroop,2021.2.3,MacIntel,59.99880002,,,,,,,,,,,,,,,,,,,,,,,,,,,,,,,,,36,2.3157,1,0,9,9,27,1,9,×,4,9 × 4,neutral,largerFirst,1.5,1.5,36,,,,,,,,
,,,,,,,,,,,,,,,818,2022-01-18_14h34.44.258,multiplicationStroop,2021.2.3,MacIntel,59.99880002,,,,,,,,,,,,,,,,,,,,,,,,,,,,,,,,,49,4.265,1,0,10,10,33,1,7,×,7,7 × 7,neutral,tie,1.5,1.5,49,,,,,,,,
,,,,,,,,,,,,,,,818,2022-01-18_14h34.44.258,multiplicationStroop,2021.2.3,MacIntel,59.99880002,,,,,,,,,,,,,,,,,,,,,,,,,,,,,,,,,35,2.2646,1,0,11,11,1,1,5,×,7,5 × 7,neutral,smallerFirst,1.5,1.5,35,,,,,,,,
,,,,,,,,,,,,,,,818,2022-01-18_14h34.44.258,multiplicationStroop,2021.2.3,MacIntel,59.99880002,,,,,,,,,,,,,,,,,,,,,,,,,,,,,,,,,18,2.1499,1,0,12,12,0,1,3,×,6,3 × 6,neutral,smallerFirst,1.5,1.5,18,,,,,,,,
,,,,,,,,,,,,,,,818,2022-01-18_14h34.44.258,multiplicationStroop,2021.2.3,MacIntel,59.99880002,,,,,,,,,,,,,,,,,,,,,,,,,,,,,,,,,16,2.1468,1,0,13,13,30,1,4,×,4,4 × 4,neutral,tie,1.5,1.5,16,,,,,,,,
,,,,,,,,,,,,,,,818,2022-01-18_14h34.44.258,multiplicationStroop,2021.2.3,MacIntel,59.99880002,,,,,,,,,,,,,,,,,,,,,,,,,,,,,,,,,25,1.9048,1,0,14,14,31,1,5,×,5,5 × 5,neutral,tie,1.5,1.5,25,,,,,,,,
,,,,,,,,,,,,,,,818,2022-01-18_14h34.44.258,multiplicationStroop,2021.2.3,MacIntel,59.99880002,,,,,,,,,,,,,,,,,,,,,,,,,,,,,,,,,28,2.7823,1,0,15,15,17,1,7,×,4,7 × 4,neutral,largerFirst,1.5,1.5,28,,,,,,,,
,,,,,,,,,,,,,,,818,2022-01-18_14h34.44.258,multiplicationStroop,2021.2.3,MacIntel,59.99880002,,,,,,,,,,,,,,,,,,,,,,,,,,,,,,,,,12,1.4658,1,0,16,16,25,1,6,×,2,6 × 2,neutral,largerFirst,1.5,1.5,12,,,,,,,,
,,,,,,,,,,,,,,,818,2022-01-18_14h34.44.258,multiplicationStroop,2021.2.3,MacIntel,59.99880002,,,,,,,,,,,,,,,,,,,,,,,,,,,,,,,,,45,2.5675,1,0,17,17,10,1,5,×,9,5 × 9,neutral,smallerFirst,1.5,1.5,45,,,,,,,,
,,,,,,,,,,,,,,,818,2022-01-18_14h34.44.258,multiplicationStroop,2021.2.3,MacIntel,59.99880002,,,,,,,,,,,,,,,,,,,,,,,,,,,,,,,,,63,4.315,1,0,18,18,12,1,7,×,9,7 × 9,neutral,smallerFirst,1.5,1.5,63,,,,,,,,
,,,,,,,,,,,,,,,818,2022-01-18_14h34.44.258,multiplicationStroop,2021.2.3,MacIntel,59.99880002,,,,,,,,,,,,,,,,,,,,,,,,,,,,,,,,,42,2.7623,1,0,19,19,6,1,6,×,7,6 × 7,neutral,smallerFirst,1.5,1.5,42,,,,,,,,
,,,,,,,,,,,,,,,818,2022-01-18_14h34.44.258,multiplicationStroop,2021.2.3,MacIntel,59.99880002,,,,,,,,,,,,,,,,,,,,,,,,,,,,,,,,,14,1.5501,1,0,20,20,16,1,7,×,2,7 × 2,neutral,largerFirst,1.5,1.5,14,,,,,,,,
,,,,,,,,,,,,,,,818,2022-01-18_14h34.44.258,multiplicationStroop,2021.2.3,MacIntel,59.99880002,,,,,,,,,,,,,,,,,,,,,,,,,,,,,,,,,18,2.0494,1,0,21,21,18,1,9,×,2,9 × 2,neutral,largerFirst,1.5,1.5,18,,,,,,,,
,,,,,,,,,,,,,,,818,2022-01-18_14h34.44.258,multiplicationStroop,2021.2.3,MacIntel,59.99880002,,,,,,,,,,,,,,,,,,,,,,,,,,,,,,,,,8,2.048,1,0,22,22,3,1,2,×,4,2 × 4,neutral,smallerFirst,1.5,1.5,8,,,,,,,,
,,,,,,,,,,,,,,,818,2022-01-18_14h34.44.258,multiplicationStroop,2021.2.3,MacIntel,59.99880002,,,,,,,,,,,,,,,,,,,,,,,,,,,,,,,,,54,92.2058,0,0,23,23,9,1,7,×,8,7 × 8,neutral,smallerFirst,1.5,1.5,56,,,,,,,,
,,,,,,,,,,,,,,,818,2022-01-18_14h34.44.258,multiplicationStroop,2021.2.3,MacIntel,59.99880002,,,,,,,,,,,,,,,,,,,,,,,,,,,,,,,,,72,3.5478,1,0,24,24,11,1,8,×,9,8 × 9,neutral,smallerFirst,1.5,1.5,72,,,,,,,,
,,,,,,,,,,,,,,,818,2022-01-18_14h34.44.258,multiplicationStroop,2021.2.3,MacIntel,59.99880002,,,,,,,,,,,,,,,,,,,,,,,,,,,,,,,,,15,1.5156,1,0,25,25,5,1,3,×,5,3 × 5,neutral,smallerFirst,1.5,1.5,15,,,,,,,,
,,,,,,,,,,,,,,,818,2022-01-18_14h34.44.258,multiplicationStroop,2021.2.3,MacIntel,59.99880002,,,,,,,,,,,,,,,,,,,,,,,,,,,,,,,,,81,2.0503,1,0,26,26,35,1,9,×,9,9 × 9,neutral,tie,1.5,1.5,81,,,,,,,,
,,,,,,,,,,,,,,,818,2022-01-18_14h34.44.258,multiplicationStroop,2021.2.3,MacIntel,59.99880002,,,,,,,,,,,,,,,,,,,,,,,,,,,,,,,,,10,1.648,1,0,27,27,4,1,2,×,5,2 × 5,neutral,smallerFirst,1.5,1.5,10,,,,,,,,
,,,,,,,,,,,,,,,818,2022-01-18_14h34.44.258,multiplicationStroop,2021.2.3,MacIntel,59.99880002,,,,,,,,,,,,,,,,,,,,,,,,,,,,,,,,,24,1.8174,0,0,28,28,23,1,8,×,4,8 × 4,neutral,largerFirst,1.5,1.5,32,,,,,,,,
,,,,,,,,,,,,,,,818,2022-01-18_14h34.44.258,multiplicationStroop,2021.2.3,MacIntel,59.99880002,,,,,,,,,,,,,,,,,,,,,,,,,,,,,,,,,24,1.564,1,0,29,29,22,1,8,×,3,8 × 3,neutral,largerFirst,1.5,1.5,24,,,,,,,,
,,,,,,,,,,,,,,,818,2022-01-18_14h34.44.258,multiplicationStroop,2021.2.3,MacIntel,59.99880002,,,,,,,,,,,,,,,,,,,,,,,,,,,,,,,,,16,1.9332,1,0,30,30,13,1,2,×,8,2 × 8,neutral,smallerFirst,1.5,1.5,16,,,,,,,,
,,,,,,,,,,,,,,,818,2022-01-18_14h34.44.258,multiplicationStroop,2021.2.3,MacIntel,59.99880002,,,,,,,,,,,,,,,,,,,,,,,,,,,,,,,,,64,3.1158,1,0,31,31,34,1,8,×,8,8 × 8,neutral,tie,1.5,1.5,64,,,,,,,,
,,,,,,,,,,,,,,,818,2022-01-18_14h34.44.258,multiplicationStroop,2021.2.3,MacIntel,59.99880002,,,,,,,,,,,,,,,,,,,,,,,,,,,,,,,,,40,2.267,1,0,32,32,24,1,8,×,5,8 × 5,neutral,largerFirst,1.5,1.5,40,,,,,,,,
,,,,,,,,,,,,,,,818,2022-01-18_14h34.44.258,multiplicationStroop,2021.2.3,MacIntel,59.99880002,,,,,,,,,,,,,,,,,,,,,,,,,,,,,,,,,30,3.4817,1,0,33,33,19,1,6,×,5,6 × 5,neutral,largerFirst,1.5,1.5,30,,,,,,,,
,,,,,,,,,,,,,,,818,2022-01-18_14h34.44.258,multiplicationStroop,2021.2.3,MacIntel,59.99880002,,,,,,,,,,,,,,,,,,,,,,,,,,,,,,,,,42,2.5397,0,0,34,34,7,1,6,×,9,6 × 9,neutral,smallerFirst,1.5,1.5,54,,,,,,,,
,,,,,,,,,,,,,,,818,2022-01-18_14h34.44.258,multiplicationStroop,2021.2.3,MacIntel,59.99880002,,,,,,,,,,,,,,,,,,,,,,,,,,,,,,,,,18,2.0153,0,0,35,35,29,1,3,×,3,3 × 3,neutral,tie,1.5,1.5,9,,,,,,,,
,,,,,,,,,,,,,,,818,2022-01-18_14h34.44.258,multiplicationStroop,2021.2.3,MacIntel,59.99880002,,,,,,,,,,,,,,,,,,,,,,,,,,,,,,,,,,,,,,,,,,,,,,,,,,0,5,5,1,1,stimulusFile/mult_blk2.xlsx,,
,,,,,,,,,,,,,,,818,2022-01-18_14h34.44.258,multiplicationStroop,2021.2.3,MacIntel,59.99880002,,,,,,,,,,,,,,,,,,,,,,,,,,,,,,,,,,,,,,,,,,,,,,,,,,,,,,,,space,1.4023