welcomeKey_resp.keys,welcomeKey_resp.rt,X Scale,Y Scale,rt_resp_4.keys,rt_resp_4.corr,rt_resp_4.rt,speedtest_2.thisRepN,speedtest_2.thisTrialN,speedtest_2.thisN,speedtest_2.thisIndex,speedtest_2.ran,numberSc,posX,positionLayout,participant,date,expName,psychopyVersion,OS,frameRate,ct_instrresp.keys,ct_instrresp.rt,key_resp_2.keys,key_resp_2.rt,ct_keyResp.keys,ct_keyResp.corr,ct_keyResp.rt,trials.thisRepN,trials.thisTrialN,trials.thisN,trials.thisIndex,trials.ran,leftNo,rightNo,displayProblem,numDistance,leftNo_size,rightNo_size,Dims,keyAnswer,TS_Loop.thisRepN,TS_Loop.thisTrialN,TS_Loop.thisN,TS_Loop.thisIndex,TS_Loop.ran,Condition,ActionInst,instrImage,mltptaskInst_resp.keys,mltptaskInst_resp.rt,continue_resp_2.keys,continue_resp_2.rt,multp_Answer,multi_RT,multiplyCorr,LoopingMultiply.thisRepN,LoopingMultiply.thisTrialN,LoopingMultiply.thisN,LoopingMultiply.thisIndex,LoopingMultiply.ran,factor1,multiplySign,factor2,multliplyProblem,physicalSize,orderOperand,sizeF1,sizeF2,mult_answer,trials_stroop.thisRepN,trials_stroop.thisTrialN,trials_stroop.thisN,trials_stroop.thisIndex,trials_stroop.ran,multiplicationFile,esckey_resp_2.keys,esckey_resp_2.rt
y,17.9978,44.6,45.7,left,1,3.131,0,0,0,4,1,6,-200,left,819,2022-01-14_14h14.06.455,multiplicationStroop,2021.2.3,Win32,60.17209218,,,,,,,,,,,,,,,,,,,,,,,,,,,,,,,,,,,,,,,,,,,,,,,,,,,,,,,,,
,,,,right,1,0.5486,0,1,1,15,1,9,200,right,819,2022-01-14_14h14.06.455,multiplicationStroop,2021.2.3,Win32,60.17209218,,,,,,,,,,,,,,,,,,,,,,,,,,,,,,,,,,,,,,,,,,,,,,,,,,,,,,,,,
,,,,left,1,0.4458,0,2,2,1,1,2,-200,left,819,2022-01-14_14h14.06.455,multiplicationStroop,2021.2.3,Win32,60.17209218,,,,,,,,,,,,,,,,,,,,,,,,,,,,,,,,,,,,,,,,,,,,,,,,,,,,,,,,,
,,,,right,1,0.3559,0,3,3,10,1,3,200,right,819,2022-01-14_14h14.06.455,multiplicationStroop,2021.2.3,Win32,60.17209218,,,,,,,,,,,,,,,,,,,,,,,,,,,,,,,,,,,,,,,,,,,,,,,,,,,,,,,,,
,,,,right,1,0.391,0,4,4,12,1,6,200,right,819,2022-01-14_14h14.06.455,multiplicationStroop,2021.2.3,Win32,60.17209218,,,,,,,,,,,,,,,,,,,,,,,,,,,,,,,,,,,,,,,,,,,,,,,,,,,,,,,,,
,,,,right,1,0.5654,0,5,5,8,1,1,200,right,819,2022-01-14_14h14.06.455,multiplicationStroop,2021.2.3,Win32,60.17209218,,,,,,,,,,,,,,,,,,,,,,,,,,,,,,,,,,,,,,,,,,,,,,,,,,,,,,,,,
,,,,left,1,0.3294,0,6,6,6,1,8,-200,left,819,2022-01-14_14h14.06.455,multiplicationStroop,2021.2.3,Win32,60.17209218,,,,,,,,,,,,,,,,,,,,,,,,,,,,,,,,,,,,,,,,,,,,,,,,,,,,,,,,,
,,,,left,1,0.4202,0,7,7,2,1,3,-200,left,819,2022-01-14_14h14.06.455,multiplicationStroop,2021.2.3,Win32,60.17209218,,,,,,,,,,,,,,,,,,,,,,,,,,,,,,,,,,,,,,,,,,,,,,,,,,,,,,,,,
,,,,left,1,0.4454,0,8,8,7,1,9,-200,left,819,2022-01-14_14h14.06.455,multiplicationStroop,2021.2.3,Win32,60.17209218,,,,,,,,,,,,,,,,,,,,,,,,,,,,,,,,,,,,,,,,,,,,,,,,,,,,,,,,,
,,,,left,1,0.4152,0,9,9,5,1,7,-200,left,819,2022-01-14_14h14.06.455,multiplicationStroop,2021.2.3,Win32,60.17209218,,,,,,,,,,,,,,,,,,,,,,,,,,,,,,,,,,,,,,,,,,,,,,,,,,,,,,,,,
,,,,right,1,0.3322,0,10,10,14,1,8,200,right,819,2022-01-14_14h14.06.455,multiplicationStroop,2021.2.3,Win32,60.17209218,,,,,,,,,,,,,,,,,,,,,,,,,,,,,,,,,,,,,,,,,,,,,,,,,,,,,,,,,
,,,,left,1,0.3796,0,11,11,0,1,1,-200,left,819,2022-01-14_14h14.06.455,multiplicationStroop,2021.2.3,Win32,60.17209218,,,,,,,,,,,,,,,,,,,,,,,,,,,,,,,,,,,,,,,,,,,,,,,,,,,,,,,,,
,,,,left,1,0.3855,0,12,12,3,1,4,-200,left,819,2022-01-14_14h14.06.455,multiplicationStroop,2021.2.3,Win32,60.17209218,,,,,,,,,,,,,,,,,,,,,,,,,,,,,,,,,,,,,,,,,,,,,,,,,,,,,,,,,
,,,,right,1,0.3883,0,13,13,11,1,4,200,right,819,2022-01-14_14h14.06.455,multiplicationStroop,2021.2.3,Win32,60.17209218,,,,,,,,,,,,,,,,,,,,,,,,,,,,,,,,,,,,,,,,,,,,,,,,,,,,,,,,,
,,,,right,1,0.3792,0,14,14,13,1,7,200,right,819,2022-01-14_14h14.06.455,multiplicationStroop,2021.2.3,Win32,60.17209218,,,,,,,,,,,,,,,,,,,,,,,,,,,,,,,,,,,,,,,,,,,,,,,,,,,,,,,,,
,,,,right,1,0.348,0,15,15,9,1,2,200,right,819,2022-01-14_14h14.06.455,multiplicationStroop,2021.2.3,Win32,60.17209218,,,,,,,,,,,,,,,,,,,,,,,,,,,,,,,,,,,,,,,,,,,,,,,,,,,,,,,,,
,,,,right,1,0.4158,1,0,16,8,1,1,200,right,819,2022-01-14_14h14.06.455,multiplicationStroop,2021.2.3,Win32,60.17209218,,,,,,,,,,,,,,,,,,,,,,,,,,,,,,,,,,,,,,,,,,,,,,,,,,,,,,,,,
,,,,right,1,0.3534,1,1,17,12,1,6,200,right,819,2022-01-14_14h14.06.455,multiplicationStroop,2021.2.3,Win32,60.17209218,,,,,,,,,,,,,,,,,,,,,,,,,,,,,,,,,,,,,,,,,,,,,,,,,,,,,,,,,
,,,,left,1,0.3777,1,2,18,7,1,9,-200,left,819,2022-01-14_14h14.06.455,multiplicationStroop,2021.2.3,Win32,60.17209218,,,,,,,,,,,,,,,,,,,,,,,,,,,,,,,,,,,,,,,,,,,,,,,,,,,,,,,,,
,,,,right,1,0.3382,1,3,19,13,1,7,200,right,819,2022-01-14_14h14.06.455,multiplicationStroop,2021.2.3,Win32,60.17209218,,,,,,,,,,,,,,,,,,,,,,,,,,,,,,,,,,,,,,,,,,,,,,,,,,,,,,,,,
,,,,left,1,0.3312,1,4,20,3,1,4,-200,left,819,2022-01-14_14h14.06.455,multiplicationStroop,2021.2.3,Win32,60.17209218,,,,,,,,,,,,,,,,,,,,,,,,,,,,,,,,,,,,,,,,,,,,,,,,,,,,,,,,,
,,,,right,0,0.3955,1,5,21,4,1,6,-200,left,819,2022-01-14_14h14.06.455,multiplicationStroop,2021.2.3,Win32,60.17209218,,,,,,,,,,,,,,,,,,,,,,,,,,,,,,,,,,,,,,,,,,,,,,,,,,,,,,,,,
,,,,right,1,0.4323,1,6,22,15,1,9,200,right,819,2022-01-14_14h14.06.455,multiplicationStroop,2021.2.3,Win32,60.17209218,,,,,,,,,,,,,,,,,,,,,,,,,,,,,,,,,,,,,,,,,,,,,,,,,,,,,,,,,
,,,,left,1,0.3786,1,7,23,6,1,8,-200,left,819,2022-01-14_14h14.06.455,multiplicationStroop,2021.2.3,Win32,60.17209218,,,,,,,,,,,,,,,,,,,,,,,,,,,,,,,,,,,,,,,,,,,,,,,,,,,,,,,,,
,,,,left,1,0.4209,1,8,24,1,1,2,-200,left,819,2022-01-14_14h14.06.455,multiplicationStroop,2021.2.3,Win32,60.17209218,,,,,,,,,,,,,,,,,,,,,,,,,,,,,,,,,,,,,,,,,,,,,,,,,,,,,,,,,
,,,,right,1,0.4953,1,9,25,11,1,4,200,right,819,2022-01-14_14h14.06.455,multiplicationStroop,2021.2.3,Win32,60.17209218,,,,,,,,,,,,,,,,,,,,,,,,,,,,,,,,,,,,,,,,,,,,,,,,,,,,,,,,,
,,,,right,1,1.1428,1,10,26,9,1,2,200,right,819,2022-01-14_14h14.06.455,multiplicationStroop,2021.2.3,Win32,60.17209218,,,,,,,,,,,,,,,,,,,,,,,,,,,,,,,,,,,,,,,,,,,,,,,,,,,,,,,,,
,,,,right,1,0.6523,1,11,27,10,1,3,200,right,819,2022-01-14_14h14.06.455,multiplicationStroop,2021.2.3,Win32,60.17209218,,,,,,,,,,,,,,,,,,,,,,,,,,,,,,,,,,,,,,,,,,,,,,,,,,,,,,,,,
,,,,right,0,0.3889,1,12,28,5,1,7,-200,left,819,2022-01-14_14h14.06.455,multiplicationStroop,2021.2.3,Win32,60.17209218,,,,,,,,,,,,,,,,,,,,,,,,,,,,,,,,,,,,,,,,,,,,,,,,,,,,,,,,,
,,,,left,1,0.4747,1,13,29,0,1,1,-200,left,819,2022-01-14_14h14.06.455,multiplicationStroop,2021.2.3,Win32,60.17209218,,,,,,,,,,,,,,,,,,,,,,,,,,,,,,,,,,,,,,,,,,,,,,,,,,,,,,,,,
,,,,left,1,0.3626,1,14,30,2,1,3,-200,left,819,2022-01-14_14h14.06.455,multiplicationStroop,2021.2.3,Win32,60.17209218,,,,,,,,,,,,,,,,,,,,,,,,,,,,,,,,,,,,,,,,,,,,,,,,,,,,,,,,,
,,,,right,1,0.3988,1,15,31,14,1,8,200,right,819,2022-01-14_14h14.06.455,multiplicationStroop,2021.2.3,Win32,60.17209218,,,,,,,,,,,,,,,,,,,,,,,,,,,,,,,,,,,,,,,,,,,,,,,,,,,,,,,,,
,,,,right,1,0.3715,2,0,32,10,1,3,200,right,819,2022-01-14_14h14.06.455,multiplicationStroop,2021.2.3,Win32,60.17209218,,,,,,,,,,,,,,,,,,,,,,,,,,,,,,,,,,,,,,,,,,,,,,,,,,,,,,,,,
,,,,left,1,0.4392,2,1,33,3,1,4,-200,left,819,2022-01-14_14h14.06.455,multiplicationStroop,2021.2.3,Win32,60.17209218,,,,,,,,,,,,,,,,,,,,,,,,,,,,,,,,,,,,,,,,,,,,,,,,,,,,,,,,,
,,,,right,1,0.3351,2,2,34,13,1,7,200,right,819,2022-01-14_14h14.06.455,multiplicationStroop,2021.2.3,Win32,60.17209218,,,,,,,,,,,,,,,,,,,,,,,,,,,,,,,,,,,,,,,,,,,,,,,,,,,,,,,,,
,,,,right,1,0.4117,2,3,35,14,1,8,200,right,819,2022-01-14_14h14.06.455,multiplicationStroop,2021.2.3,Win32,60.17209218,,,,,,,,,,,,,,,,,,,,,,,,,,,,,,,,,,,,,,,,,,,,,,,,,,,,,,,,,
,,,,left,1,0.3514,2,4,36,7,1,9,-200,left,819,2022-01-14_14h14.06.455,multiplicationStroop,2021.2.3,Win32,60.17209218,,,,,,,,,,,,,,,,,,,,,,,,,,,,,,,,,,,,,,,,,,,,,,,,,,,,,,,,,
,,,,left,1,0.4153,2,5,37,4,1,6,-200,left,819,2022-01-14_14h14.06.455,multiplicationStroop,2021.2.3,Win32,60.17209218,,,,,,,,,,,,,,,,,,,,,,,,,,,,,,,,,,,,,,,,,,,,,,,,,,,,,,,,,
,,,,right,1,0.38,2,6,38,11,1,4,200,right,819,2022-01-14_14h14.06.455,multiplicationStroop,2021.2.3,Win32,60.17209218,,,,,,,,,,,,,,,,,,,,,,,,,,,,,,,,,,,,,,,,,,,,,,,,,,,,,,,,,
,,,,left,1,0.3685,2,7,39,2,1,3,-200,left,819,2022-01-14_14h14.06.455,multiplicationStroop,2021.2.3,Win32,60.17209218,,,,,,,,,,,,,,,,,,,,,,,,,,,,,,,,,,,,,,,,,,,,,,,,,,,,,,,,,
,,,,right,1,0.3144,2,8,40,9,1,2,200,right,819,2022-01-14_14h14.06.455,multiplicationStroop,2021.2.3,Win32,60.17209218,,,,,,,,,,,,,,,,,,,,,,,,,,,,,,,,,,,,,,,,,,,,,,,,,,,,,,,,,
,,,,right,1,0.3969,2,9,41,15,1,9,200,right,819,2022-01-14_14h14.06.455,multiplicationStroop,2021.2.3,Win32,60.17209218,,,,,,,,,,,,,,,,,,,,,,,,,,,,,,,,,,,,,,,,,,,,,,,,,,,,,,,,,
,,,,left,1,0.3459,2,10,42,0,1,1,-200,left,819,2022-01-14_14h14.06.455,multiplicationStroop,2021.2.3,Win32,60.17209218,,,,,,,,,,,,,,,,,,,,,,,,,,,,,,,,,,,,,,,,,,,,,,,,,,,,,,,,,
,,,,right,1,0.3329,2,11,43,12,1,6,200,right,819,2022-01-14_14h14.06.455,multiplicationStroop,2021.2.3,Win32,60.17209218,,,,,,,,,,,,,,,,,,,,,,,,,,,,,,,,,,,,,,,,,,,,,,,,,,,,,,,,,
,,,,left,1,0.3192,2,12,44,1,1,2,-200,left,819,2022-01-14_14h14.06.455,multiplicationStroop,2021.2.3,Win32,60.17209218,,,,,,,,,,,,,,,,,,,,,,,,,,,,,,,,,,,,,,,,,,,,,,,,,,,,,,,,,
,,,,left,1,0.7245,2,13,45,6,1,8,-200,left,819,2022-01-14_14h14.06.455,multiplicationStroop,2021.2.3,Win32,60.17209218,,,,,,,,,,,,,,,,,,,,,,,,,,,,,,,,,,,,,,,,,,,,,,,,,,,,,,,,,
,,,,right,1,0.3924,2,14,46,8,1,1,200,right,819,2022-01-14_14h14.06.455,multiplicationStroop,2021.2.3,Win32,60.17209218,,,,,,,,,,,,,,,,,,,,,,,,,,,,,,,,,,,,,,,,,,,,,,,,,,,,,,,,,
,,,,left,1,0.296,2,15,47,5,1,7,-200,left,819,2022-01-14_14h14.06.455,multiplicationStroop,2021.2.3,Win32,60.17209218,,,,,,,,,,,,,,,,,,,,,,,,,,,,,,,,,,,,,,,,,,,,,,,,,,,,,,,,,
,,,,right,1,0.3265,3,0,48,14,1,8,200,right,819,2022-01-14_14h14.06.455,multiplicationStroop,2021.2.3,Win32,60.17209218,,,,,,,,,,,,,,,,,,,,,,,,,,,,,,,,,,,,,,,,,,,,,,,,,,,,,,,,,
,,,,right,1,0.3296,3,1,49,11,1,4,200,right,819,2022-01-14_14h14.06.455,multiplicationStroop,2021.2.3,Win32,60.17209218,,,,,,,,,,,,,,,,,,,,,,,,,,,,,,,,,,,,,,,,,,,,,,,,,,,,,,,,,
,,,,left,1,0.3249,3,2,50,4,1,6,-200,left,819,2022-01-14_14h14.06.455,multiplicationStroop,2021.2.3,Win32,60.17209218,,,,,,,,,,,,,,,,,,,,,,,,,,,,,,,,,,,,,,,,,,,,,,,,,,,,,,,,,
,,,,left,1,0.3791,3,3,51,2,1,3,-200,left,819,2022-01-14_14h14.06.455,multiplicationStroop,2021.2.3,Win32,60.17209218,,,,,,,,,,,,,,,,,,,,,,,,,,,,,,,,,,,,,,,,,,,,,,,,,,,,,,,,,
,,,,left,1,0.3129,3,4,52,7,1,9,-200,left,819,2022-01-14_14h14.06.455,multiplicationStroop,2021.2.3,Win32,60.17209218,,,,,,,,,,,,,,,,,,,,,,,,,,,,,,,,,,,,,,,,,,,,,,,,,,,,,,,,,
,,,,left,1,0.3372,3,5,53,6,1,8,-200,left,819,2022-01-14_14h14.06.455,multiplicationStroop,2021.2.3,Win32,60.17209218,,,,,,,,,,,,,,,,,,,,,,,,,,,,,,,,,,,,,,,,,,,,,,,,,,,,,,,,,
,,,,left,1,0.318,3,6,54,3,1,4,-200,left,819,2022-01-14_14h14.06.455,multiplicationStroop,2021.2.3,Win32,60.17209218,,,,,,,,,,,,,,,,,,,,,,,,,,,,,,,,,,,,,,,,,,,,,,,,,,,,,,,,,
,,,,right,1,0.6887,3,7,55,9,1,2,200,right,819,2022-01-14_14h14.06.455,multiplicationStroop,2021.2.3,Win32,60.17209218,,,,,,,,,,,,,,,,,,,,,,,,,,,,,,,,,,,,,,,,,,,,,,,,,,,,,,,,,
,,,,left,1,0.3408,3,8,56,5,1,7,-200,left,819,2022-01-14_14h14.06.455,multiplicationStroop,2021.2.3,Win32,60.17209218,,,,,,,,,,,,,,,,,,,,,,,,,,,,,,,,,,,,,,,,,,,,,,,,,,,,,,,,,
,,,,left,1,0.3348,3,9,57,1,1,2,-200,left,819,2022-01-14_14h14.06.455,multiplicationStroop,2021.2.3,Win32,60.17209218,,,,,,,,,,,,,,,,,,,,,,,,,,,,,,,,,,,,,,,,,,,,,,,,,,,,,,,,,
,,,,right,1,0.3993,3,10,58,8,1,1,200,right,819,2022-01-14_14h14.06.455,multiplicationStroop,2021.2.3,Win32,60.17209218,,,,,,,,,,,,,,,,,,,,,,,,,,,,,,,,,,,,,,,,,,,,,,,,,,,,,,,,,
,,,,right,1,0.5229,3,11,59,13,1,7,200,right,819,2022-01-14_14h14.06.455,multiplicationStroop,2021.2.3,Win32,60.17209218,,,,,,,,,,,,,,,,,,,,,,,,,,,,,,,,,,,,,,,,,,,,,,,,,,,,,,,,,
,,,,right,1,0.3813,3,12,60,15,1,9,200,right,819,2022-01-14_14h14.06.455,multiplicationStroop,2021.2.3,Win32,60.17209218,,,,,,,,,,,,,,,,,,,,,,,,,,,,,,,,,,,,,,,,,,,,,,,,,,,,,,,,,
,,,,right,1,0.3355,3,13,61,12,1,6,200,right,819,2022-01-14_14h14.06.455,multiplicationStroop,2021.2.3,Win32,60.17209218,,,,,,,,,,,,,,,,,,,,,,,,,,,,,,,,,,,,,,,,,,,,,,,,,,,,,,,,,
,,,,left,1,0.3166,3,14,62,0,1,1,-200,left,819,2022-01-14_14h14.06.455,multiplicationStroop,2021.2.3,Win32,60.17209218,,,,,,,,,,,,,,,,,,,,,,,,,,,,,,,,,,,,,,,,,,,,,,,,,,,,,,,,,
,,,,right,1,0.3087,3,15,63,10,1,3,200,right,819,2022-01-14_14h14.06.455,multiplicationStroop,2021.2.3,Win32,60.17209218,,,,,,,,,,,,,,,,,,,,,,,,,,,,,,,,,,,,,,,,,,,,,,,,,,,,,,,,,
,,,,,,,,,,,,,,,819,2022-01-14_14h14.06.455,multiplicationStroop,2021.2.3,Win32,60.17209218,space,31.2646,space,6.0614,right,1,1.047,0,0,0,58,1,6,6,6 | 6,0,1.4111,1.9756,neutral,right,,,,,,stimulusFile/physical.xlsx,,,,,,,,,,,,,,,,,,,,,,,,,,,,,,,
,,,,,,,,,,,,,,,819,2022-01-14_14h14.06.455,multiplicationStroop,2021.2.3,Win32,60.17209218,,,,,right,1,0.4481,0,1,1,60,1,3,3,3 | 3,0,1.4111,1.9756,neutral,right,,,,,,stimulusFile/physical.xlsx,,,,,,,,,,,,,,,,,,,,,,,,,,,,,,,
,,,,,,,,,,,,,,,819,2022-01-14_14h14.06.455,multiplicationStroop,2021.2.3,Win32,60.17209218,,,,,right,1,0.6588,0,2,2,31,1,9,8,9 | 8,1,1.4111,1.9756,incongruent,right,,,,,,stimulusFile/physical.xlsx,,,,,,,,,,,,,,,,,,,,,,,,,,,,,,,
,,,,,,,,,,,,,,,819,2022-01-14_14h14.06.455,multiplicationStroop,2021.2.3,Win32,60.17209218,,,,,left,1,0.6836,0,3,3,49,1,3,3,3 | 3,0,1.9756,1.4111,neutral,left,,,,,,stimulusFile/physical.xlsx,,,,,,,,,,,,,,,,,,,,,,,,,,,,,,,
,,,,,,,,,,,,,,,819,2022-01-14_14h14.06.455,multiplicationStroop,2021.2.3,Win32,60.17209218,,,,,left,1,0.9778,0,4,4,34,1,6,8,6 | 8,2,1.9756,1.4111,incongruent,left,,,,,,stimulusFile/physical.xlsx,,,,,,,,,,,,,,,,,,,,,,,,,,,,,,,
,,,,,,,,,,,,,,,819,2022-01-14_14h14.06.455,multiplicationStroop,2021.2.3,Win32,60.17209218,,,,,right,1,0.5987,0,5,5,67,1,4,4,4 | 4,0,1.4111,1.9756,neutral,right,,,,,,stimulusFile/physical.xlsx,,,,,,,,,,,,,,,,,,,,,,,,,,,,,,,
,,,,,,,,,,,,,,,819,2022-01-14_14h14.06.455,multiplicationStroop,2021.2.3,Win32,60.17209218,,,,,right,1,0.5711,0,6,6,61,1,4,4,4 | 4,0,1.4111,1.9756,neutral,right,,,,,,stimulusFile/physical.xlsx,,,,,,,,,,,,,,,,,,,,,,,,,,,,,,,
,,,,,,,,,,,,,,,819,2022-01-14_14h14.06.455,multiplicationStroop,2021.2.3,Win32,60.17209218,,,,,right,1,0.5544,0,7,7,30,1,7,6,7 | 6,1,1.4111,1.9756,incongruent,right,,,,,,stimulusFile/physical.xlsx,,,,,,,,,,,,,,,,,,,,,,,,,,,,,,,
,,,,,,,,,,,,,,,819,2022-01-14_14h14.06.455,multiplicationStroop,2021.2.3,Win32,60.17209218,,,,,left,1,0.7366,0,8,8,41,1,2,7,2 | 7,5,1.9756,1.4111,incongruent,left,,,,,,stimulusFile/physical.xlsx,,,,,,,,,,,,,,,,,,,,,,,,,,,,,,,
,,,,,,,,,,,,,,,819,2022-01-14_14h14.06.455,multiplicationStroop,2021.2.3,Win32,60.17209218,,,,,left,1,0.6186,0,9,9,70,1,8,8,8 | 8,0,1.9756,1.4111,neutral,left,,,,,,stimulusFile/physical.xlsx,,,,,,,,,,,,,,,,,,,,,,,,,,,,,,,
,,,,,,,,,,,,,,,819,2022-01-14_14h14.06.455,multiplicationStroop,2021.2.3,Win32,60.17209218,,,,,left,1,0.7198,0,10,10,33,1,2,4,2 | 4,2,1.9756,1.4111,incongruent,left,,,,,,stimulusFile/physical.xlsx,,,,,,,,,,,,,,,,,,,,,,,,,,,,,,,
,,,,,,,,,,,,,,,819,2022-01-14_14h14.06.455,multiplicationStroop,2021.2.3,Win32,60.17209218,,,,,right,1,0.5081,0,11,11,63,1,9,9,9 | 9,0,1.4111,1.9756,neutral,right,,,,,,stimulusFile/physical.xlsx,,,,,,,,,,,,,,,,,,,,,,,,,,,,,,,
,,,,,,,,,,,,,,,819,2022-01-14_14h14.06.455,multiplicationStroop,2021.2.3,Win32,60.17209218,,,,,left,1,0.7266,0,12,12,40,1,1,6,1 | 6,5,1.9756,1.4111,incongruent,left,,,,,,stimulusFile/physical.xlsx,,,,,,,,,,,,,,,,,,,,,,,,,,,,,,,
,,,,,,,,,,,,,,,819,2022-01-14_14h14.06.455,multiplicationStroop,2021.2.3,Win32,60.17209218,,,,,right,1,0.5632,0,13,13,57,1,2,2,2 | 2,0,1.4111,1.9756,neutral,right,,,,,,stimulusFile/physical.xlsx,,,,,,,,,,,,,,,,,,,,,,,,,,,,,,,
,,,,,,,,,,,,,,,819,2022-01-14_14h14.06.455,multiplicationStroop,2021.2.3,Win32,60.17209218,,,,,right,1,0.5974,0,14,14,47,1,9,4,9 | 4,5,1.4111,1.9756,incongruent,right,,,,,,stimulusFile/physical.xlsx,,,,,,,,,,,,,,,,,,,,,,,,,,,,,,,
,,,,,,,,,,,,,,,819,2022-01-14_14h14.06.455,multiplicationStroop,2021.2.3,Win32,60.17209218,,,,,left,1,0.7499,0,15,15,24,1,1,2,1 | 2,1,1.9756,1.4111,incongruent,left,,,,,,stimulusFile/physical.xlsx,,,,,,,,,,,,,,,,,,,,,,,,,,,,,,,
,,,,,,,,,,,,,,,819,2022-01-14_14h14.06.455,multiplicationStroop,2021.2.3,Win32,60.17209218,,,,,left,1,0.4855,0,16,16,13,1,4,2,4 | 2,2,1.9756,1.4111,congruent,left,,,,,,stimulusFile/physical.xlsx,,,,,,,,,,,,,,,,,,,,,,,,,,,,,,,
,,,,,,,,,,,,,,,819,2022-01-14_14h14.06.455,multiplicationStroop,2021.2.3,Win32,60.17209218,,,,,right,1,0.5448,0,17,17,1,1,3,4,3 | 4,1,1.4111,1.9756,congruent,right,,,,,,stimulusFile/physical.xlsx,,,,,,,,,,,,,,,,,,,,,,,,,,,,,,,
,,,,,,,,,,,,,,,819,2022-01-14_14h14.06.455,multiplicationStroop,2021.2.3,Win32,60.17209218,,,,,left,1,0.6937,0,18,18,53,1,4,4,4 | 4,0,1.9756,1.4111,neutral,left,,,,,,stimulusFile/physical.xlsx,,,,,,,,,,,,,,,,,,,,,,,,,,,,,,,
,,,,,,,,,,,,,,,819,2022-01-14_14h14.06.455,multiplicationStroop,2021.2.3,Win32,60.17209218,,,,,left,1,0.5775,0,19,19,51,1,8,8,8 | 8,0,1.9756,1.4111,neutral,left,,,,,,stimulusFile/physical.xlsx,,,,,,,,,,,,,,,,,,,,,,,,,,,,,,,
,,,,,,,,,,,,,,,819,2022-01-14_14h14.06.455,multiplicationStroop,2021.2.3,Win32,60.17209218,,,,,left,1,0.4939,0,20,20,55,1,9,9,9 | 9,0,1.9756,1.4111,neutral,left,,,,,,stimulusFile/physical.xlsx,,,,,,,,,,,,,,,,,,,,,,,,,,,,,,,
,,,,,,,,,,,,,,,819,2022-01-14_14h14.06.455,multiplicationStroop,2021.2.3,Win32,60.17209218,,,,,left,0,0.6251,0,21,21,66,1,3,3,3 | 3,0,1.9756,1.4111,neutral,right,,,,,,stimulusFile/physical.xlsx,,,,,,,,,,,,,,,,,,,,,,,,,,,,,,,
,,,,,,,,,,,,,,,819,2022-01-14_14h14.06.455,multiplicationStroop,2021.2.3,Win32,60.17209218,,,,,right,1,0.5559,0,22,22,2,1,6,7,6 | 7,1,1.4111,1.9756,congruent,right,,,,,,stimulusFile/physical.xlsx,,,,,,,,,,,,,,,,,,,,,,,,,,,,,,,
,,,,,,,,,,,,,,,819,2022-01-14_14h14.06.455,multiplicationStroop,2021.2.3,Win32,60.17209218,,,,,left,1,0.693,0,23,23,27,1,8,9,8 | 9,1,1.9756,1.4111,incongruent,left,,,,,,stimulusFile/physical.xlsx,,,,,,,,,,,,,,,,,,,,,,,,,,,,,,,
,,,,,,,,,,,,,,,819,2022-01-14_14h14.06.455,multiplicationStroop,2021.2.3,Win32,60.17209218,,,,,left,1,0.5284,0,24,24,68,1,6,6,6 | 6,0,1.9756,1.4111,neutral,left,,,,,,stimulusFile/physical.xlsx,,,,,,,,,,,,,,,,,,,,,,,,,,,,,,,
,,,,,,,,,,,,,,,819,2022-01-14_14h14.06.455,multiplicationStroop,2021.2.3,Win32,60.17209218,,,,,left,1,0.6259,0,25,25,50,1,6,6,6 | 6,0,1.9756,1.4111,neutral,left,,,,,,stimulusFile/physical.xlsx,,,,,,,,,,,,,,,,,,,,,,,,,,,,,,,
,,,,,,,,,,,,,,,819,2022-01-14_14h14.06.455,multiplicationStroop,2021.2.3,Win32,60.17209218,,,,,right,1,0.6841,0,26,26,36,1,3,1,3 | 1,2,1.4111,1.9756,incongruent,right,,,,,,stimulusFile/physical.xlsx,,,,,,,,,,,,,,,,,,,,,,,,,,,,,,,
,,,,,,,,,,,,,,,819,2022-01-14_14h14.06.455,multiplicationStroop,2021.2.3,Win32,60.17209218,,,,,right,1,0.6139,0,27,27,16,1,1,6,1 | 6,5,1.4111,1.9756,congruent,right,,,,,,stimulusFile/physical.xlsx,,,,,,,,,,,,,,,,,,,,,,,,,,,,,,,
,,,,,,,,,,,,,,,819,2022-01-14_14h14.06.455,multiplicationStroop,2021.2.3,Win32,60.17209218,,,,,left,1,0.4594,0,28,28,12,1,3,1,3 | 1,2,1.9756,1.4111,congruent,left,,,,,,stimulusFile/physical.xlsx,,,,,,,,,,,,,,,,,,,,,,,,,,,,,,,
,,,,,,,,,,,,,,,819,2022-01-14_14h14.06.455,multiplicationStroop,2021.2.3,Win32,60.17209218,,,,,right,1,0.5045,0,29,29,37,1,4,2,4 | 2,2,1.4111,1.9756,incongruent,right,,,,,,stimulusFile/physical.xlsx,,,,,,,,,,,,,,,,,,,,,,,,,,,,,,,
,,,,,,,,,,,,,,,819,2022-01-14_14h14.06.455,multiplicationStroop,2021.2.3,Win32,60.17209218,,,,,right,1,0.51,0,30,30,17,1,2,7,2 | 7,5,1.4111,1.9756,congruent,right,,,,,,stimulusFile/physical.xlsx,,,,,,,,,,,,,,,,,,,,,,,,,,,,,,,
,,,,,,,,,,,,,,,819,2022-01-14_14h14.06.455,multiplicationStroop,2021.2.3,Win32,60.17209218,,,,,right,1,0.4936,0,31,31,19,1,4,9,4 | 9,5,1.4111,1.9756,congruent,right,,,,,,stimulusFile/physical.xlsx,,,,,,,,,,,,,,,,,,,,,,,,,,,,,,,
,,,,,,,,,,,,,,,819,2022-01-14_14h14.06.455,multiplicationStroop,2021.2.3,Win32,60.17209218,,,,,left,0,0.4679,0,32,32,64,1,1,1,1 | 1,0,1.9756,1.4111,neutral,right,,,,,,stimulusFile/physical.xlsx,,,,,,,,,,,,,,,,,,,,,,,,,,,,,,,
,,,,,,,,,,,,,,,819,2022-01-14_14h14.06.455,multiplicationStroop,2021.2.3,Win32,60.17209218,,,,,right,1,0.7037,0,33,33,56,1,1,1,1 | 1,0,1.4111,1.9756,neutral,right,,,,,,stimulusFile/physical.xlsx,,,,,,,,,,,,,,,,,,,,,,,,,,,,,,,
,,,,,,,,,,,,,,,819,2022-01-14_14h14.06.455,multiplicationStroop,2021.2.3,Win32,60.17209218,,,,,left,1,0.4729,0,34,34,21,1,7,2,7 | 2,5,1.9756,1.4111,congruent,left,,,,,,stimulusFile/physical.xlsx,,,,,,,,,,,,,,,,,,,,,,,,,,,,,,,
,,,,,,,,,,,,,,,819,2022-01-14_14h14.06.455,multiplicationStroop,2021.2.3,Win32,60.17209218,,,,,left,1,0.5265,0,35,35,14,1,8,6,8 | 6,2,1.9756,1.4111,congruent,left,,,,,,stimulusFile/physical.xlsx,,,,,,,,,,,,,,,,,,,,,,,,,,,,,,,
,,,,,,,,,,,,,,,819,2022-01-14_14h14.06.455,multiplicationStroop,2021.2.3,Win32,60.17209218,,,,,left,1,0.5058,0,36,36,26,1,6,7,6 | 7,1,1.9756,1.4111,incongruent,left,,,,,,stimulusFile/physical.xlsx,,,,,,,,,,,,,,,,,,,,,,,,,,,,,,,
,,,,,,,,,,,,,,,819,2022-01-14_14h14.06.455,multiplicationStroop,2021.2.3,Win32,60.17209218,,,,,left,1,0.5681,0,37,37,22,1,8,3,8 | 3,5,1.9756,1.4111,congruent,left,,,,,,stimulusFile/physical.xlsx,,,,,,,,,,,,,,,,,,,,,,,,,,,,,,,
,,,,,,,,,,,,,,,819,2022-01-14_14h14.06.455,multiplicationStroop,2021.2.3,Win32,60.17209218,,,,,right,1,0.462,0,38,38,8,1,1,3,1 | 3,2,1.4111,1.9756,congruent,right,,,,,,stimulusFile/physical.xlsx,,,,,,,,,,,,,,,,,,,,,,,,,,,,,,,
,,,,,,,,,,,,,,,819,2022-01-14_14h14.06.455,multiplicationStroop,2021.2.3,Win32,60.17209218,,,,,right,1,0.5279,0,39,39,38,1,8,6,8 | 6,2,1.4111,1.9756,incongruent,right,,,,,,stimulusFile/physical.xlsx,,,,,,,,,,,,,,,,,,,,,,,,,,,,,,,
,,,,,,,,,,,,,,,819,2022-01-14_14h14.06.455,multiplicationStroop,2021.2.3,Win32,60.17209218,,,,,left,1,0.4672,0,40,40,5,1,4,3,4 | 3,1,1.9756,1.4111,congruent,left,,,,,,stimulusFile/physical.xlsx,,,,,,,,,,,,,,,,,,,,,,,,,,,,,,,
,,,,,,,,,,,,,,,819,2022-01-14_14h14.06.455,multiplicationStroop,2021.2.3,Win32,60.17209218,,,,,left,1,0.48,0,41,41,35,1,7,9,7 | 9,2,1.9756,1.4111,incongruent,left,,,,,,stimulusFile/physical.xlsx,,,,,,,,,,,,,,,,,,,,,,,,,,,,,,,
,,,,,,,,,,,,,,,819,2022-01-14_14h14.06.455,multiplicationStroop,2021.2.3,Win32,60.17209218,,,,,right,0,0.5697,0,42,42,71,1,9,9,9 | 9,0,1.4111,1.9756,neutral,left,,,,,,stimulusFile/physical.xlsx,,,,,,,,,,,,,,,,,,,,,,,,,,,,,,,
,,,,,,,,,,,,,,,819,2022-01-14_14h14.06.455,multiplicationStroop,2021.2.3,Win32,60.17209218,,,,,left,1,0.5359,0,43,43,48,1,1,1,1 | 1,0,1.9756,1.4111,neutral,left,,,,,,stimulusFile/physical.xlsx,,,,,,,,,,,,,,,,,,,,,,,,,,,,,,,
,,,,,,,,,,,,,,,819,2022-01-14_14h14.06.455,multiplicationStroop,2021.2.3,Win32,60.17209218,,,,,left,1,0.4953,0,44,44,20,1,6,1,6 | 1,5,1.9756,1.4111,congruent,left,,,,,,stimulusFile/physical.xlsx,,,,,,,,,,,,,,,,,,,,,,,,,,,,,,,
,,,,,,,,,,,,,,,819,2022-01-14_14h14.06.455,multiplicationStroop,2021.2.3,Win32,60.17209218,,,,,left,1,0.6428,0,45,45,43,1,4,9,4 | 9,5,1.9756,1.4111,incongruent,left,,,,,,stimulusFile/physical.xlsx,,,,,,,,,,,,,,,,,,,,,,,,,,,,,,,
,,,,,,,,,,,,,,,819,2022-01-14_14h14.06.455,multiplicationStroop,2021.2.3,Win32,60.17209218,,,,,left,1,0.5136,0,46,46,52,1,2,2,2 | 2,0,1.9756,1.4111,neutral,left,,,,,,stimulusFile/physical.xlsx,,,,,,,,,,,,,,,,,,,,,,,,,,,,,,,
,,,,,,,,,,,,,,,819,2022-01-14_14h14.06.455,multiplicationStroop,2021.2.3,Win32,60.17209218,,,,,right,1,0.4961,0,47,47,9,1,2,4,2 | 4,2,1.4111,1.9756,congruent,right,,,,,,stimulusFile/physical.xlsx,,,,,,,,,,,,,,,,,,,,,,,,,,,,,,,
,,,,,,,,,,,,,,,819,2022-01-14_14h14.06.455,multiplicationStroop,2021.2.3,Win32,60.17209218,,,,,left,1,0.427,0,48,48,7,1,9,8,9 | 8,1,1.9756,1.4111,congruent,left,,,,,,stimulusFile/physical.xlsx,,,,,,,,,,,,,,,,,,,,,,,,,,,,,,,
,,,,,,,,,,,,,,,819,2022-01-14_14h14.06.455,multiplicationStroop,2021.2.3,Win32,60.17209218,,,,,right,1,0.4698,0,49,49,18,1,3,8,3 | 8,5,1.4111,1.9756,congruent,right,,,,,,stimulusFile/physical.xlsx,,,,,,,,,,,,,,,,,,,,,,,,,,,,,,,
,,,,,,,,,,,,,,,819,2022-01-14_14h14.06.455,multiplicationStroop,2021.2.3,Win32,60.17209218,,,,,right,1,0.5022,0,50,50,28,1,2,1,2 | 1,1,1.4111,1.9756,incongruent,right,,,,,,stimulusFile/physical.xlsx,,,,,,,,,,,,,,,,,,,,,,,,,,,,,,,
,,,,,,,,,,,,,,,819,2022-01-14_14h14.06.455,multiplicationStroop,2021.2.3,Win32,60.17209218,,,,,left,1,0.4765,0,51,51,6,1,7,6,7 | 6,1,1.9756,1.4111,congruent,left,,,,,,stimulusFile/physical.xlsx,,,,,,,,,,,,,,,,,,,,,,,,,,,,,,,
,,,,,,,,,,,,,,,819,2022-01-14_14h14.06.455,multiplicationStroop,2021.2.3,Win32,60.17209218,,,,,left,1,0.5027,0,52,52,54,1,7,7,7 | 7,0,1.9756,1.4111,neutral,left,,,,,,stimulusFile/physical.xlsx,,,,,,,,,,,,,,,,,,,,,,,,,,,,,,,
,,,,,,,,,,,,,,,819,2022-01-14_14h14.06.455,multiplicationStroop,2021.2.3,Win32,60.17209218,,,,,left,1,0.5101,0,53,53,23,1,9,4,9 | 4,5,1.9756,1.4111,congruent,left,,,,,,stimulusFile/physical.xlsx,,,,,,,,,,,,,,,,,,,,,,,,,,,,,,,
,,,,,,,,,,,,,,,819,2022-01-14_14h14.06.455,multiplicationStroop,2021.2.3,Win32,60.17209218,,,,,left,1,0.7284,0,54,54,15,1,9,7,9 | 7,2,1.9756,1.4111,congruent,left,,,,,,stimulusFile/physical.xlsx,,,,,,,,,,,,,,,,,,,,,,,,,,,,,,,
,,,,,,,,,,,,,,,819,2022-01-14_14h14.06.455,multiplicationStroop,2021.2.3,Win32,60.17209218,,,,,right,1,0.6439,0,55,55,44,1,6,1,6 | 1,5,1.4111,1.9756,incongruent,right,,,,,,stimulusFile/physical.xlsx,,,,,,,,,,,,,,,,,,,,,,,,,,,,,,,
,,,,,,,,,,,,,,,819,2022-01-14_14h14.06.455,multiplicationStroop,2021.2.3,Win32,60.17209218,,,,,right,1,0.5064,0,56,56,10,1,6,8,6 | 8,2,1.4111,1.9756,congruent,right,,,,,,stimulusFile/physical.xlsx,,,,,,,,,,,,,,,,,,,,,,,,,,,,,,,
,,,,,,,,,,,,,,,819,2022-01-14_14h14.06.455,multiplicationStroop,2021.2.3,Win32,60.17209218,,,,,right,1,0.5298,0,57,57,0,1,1,2,1 | 2,1,1.4111,1.9756,congruent,right,,,,,,stimulusFile/physical.xlsx,,,,,,,,,,,,,,,,,,,,,,,,,,,,,,,
,,,,,,,,,,,,,,,819,2022-01-14_14h14.06.455,multiplicationStroop,2021.2.3,Win32,60.17209218,,,,,right,1,0.5121,0,58,58,65,1,2,2,2 | 2,0,1.4111,1.9756,neutral,right,,,,,,stimulusFile/physical.xlsx,,,,,,,,,,,,,,,,,,,,,,,,,,,,,,,
,,,,,,,,,,,,,,,819,2022-01-14_14h14.06.455,multiplicationStroop,2021.2.3,Win32,60.17209218,,,,,right,1,0.5,0,59,59,62,1,8,8,8 | 8,0,1.4111,1.9756,neutral,right,,,,,,stimulusFile/physical.xlsx,,,,,,,,,,,,,,,,,,,,,,,,,,,,,,,
,,,,,,,,,,,,,,,819,2022-01-14_14h14.06.455,multiplicationStroop,2021.2.3,Win32,60.17209218,,,,,left,1,0.4445,0,60,60,4,1,2,1,2 | 1,1,1.9756,1.4111,congruent,left,,,,,,stimulusFile/physical.xlsx,,,,,,,,,,,,,,,,,,,,,,,,,,,,,,,
,,,,,,,,,,,,,,,819,2022-01-14_14h14.06.455,multiplicationStroop,2021.2.3,Win32,60.17209218,,,,,right,1,0.4865,0,61,61,11,1,7,9,7 | 9,2,1.4111,1.9756,congruent,right,,,,,,stimulusFile/physical.xlsx,,,,,,,,,,,,,,,,,,,,,,,,,,,,,,,
,,,,,,,,,,,,,,,819,2022-01-14_14h14.06.455,multiplicationStroop,2021.2.3,Win32,60.17209218,,,,,left,1,0.4874,0,62,62,42,1,3,8,3 | 8,5,1.9756,1.4111,incongruent,left,,,,,,stimulusFile/physical.xlsx,,,,,,,,,,,,,,,,,,,,,,,,,,,,,,,
,,,,,,,,,,,,,,,819,2022-01-14_14h14.06.455,multiplicationStroop,2021.2.3,Win32,60.17209218,,,,,left,1,0.5925,0,63,63,32,1,1,3,1 | 3,2,1.9756,1.4111,incongruent,left,,,,,,stimulusFile/physical.xlsx,,,,,,,,,,,,,,,,,,,,,,,,,,,,,,,
,,,,,,,,,,,,,,,819,2022-01-14_14h14.06.455,multiplicationStroop,2021.2.3,Win32,60.17209218,,,,,right,1,0.4712,0,64,64,3,1,8,9,8 | 9,1,1.4111,1.9756,congruent,right,,,,,,stimulusFile/physical.xlsx,,,,,,,,,,,,,,,,,,,,,,,,,,,,,,,
,,,,,,,,,,,,,,,819,2022-01-14_14h14.06.455,multiplicationStroop,2021.2.3,Win32,60.17209218,,,,,right,1,0.4835,0,65,65,39,1,9,7,9 | 7,2,1.4111,1.9756,incongruent,right,,,,,,stimulusFile/physical.xlsx,,,,,,,,,,,,,,,,,,,,,,,,,,,,,,,
,,,,,,,,,,,,,,,819,2022-01-14_14h14.06.455,multiplicationStroop,2021.2.3,Win32,60.17209218,,,,,right,1,0.9817,0,66,66,45,1,7,2,7 | 2,5,1.4111,1.9756,incongruent,right,,,,,,stimulusFile/physical.xlsx,,,,,,,,,,,,,,,,,,,,,,,,,,,,,,,
,,,,,,,,,,,,,,,819,2022-01-14_14h14.06.455,multiplicationStroop,2021.2.3,Win32,60.17209218,,,,,right,1,0.5881,0,67,67,29,1,4,3,4 | 3,1,1.4111,1.9756,incongruent,right,,,,,,stimulusFile/physical.xlsx,,,,,,,,,,,,,,,,,,,,,,,,,,,,,,,
,,,,,,,,,,,,,,,819,2022-01-14_14h14.06.455,multiplicationStroop,2021.2.3,Win32,60.17209218,,,,,left,1,0.4535,0,68,68,25,1,3,4,3 | 4,1,1.9756,1.4111,incongruent,left,,,,,,stimulusFile/physical.xlsx,,,,,,,,,,,,,,,,,,,,,,,,,,,,,,,
,,,,,,,,,,,,,,,819,2022-01-14_14h14.06.455,multiplicationStroop,2021.2.3,Win32,60.17209218,,,,,right,0,0.4973,0,69,69,69,1,7,7,7 | 7,0,1.4111,1.9756,neutral,left,,,,,,stimulusFile/physical.xlsx,,,,,,,,,,,,,,,,,,,,,,,,,,,,,,,
,,,,,,,,,,,,,,,819,2022-01-14_14h14.06.455,multiplicationStroop,2021.2.3,Win32,60.17209218,,,,,right,1,0.4934,0,70,70,46,1,8,3,8 | 3,5,1.4111,1.9756,incongruent,right,,,,,,stimulusFile/physical.xlsx,,,,,,,,,,,,,,,,,,,,,,,,,,,,,,,
,,,,,,,,,,,,,,,819,2022-01-14_14h14.06.455,multiplicationStroop,2021.2.3,Win32,60.17209218,,,,,right,1,0.45,0,71,71,59,1,7,7,7 | 7,0,1.4111,1.9756,neutral,right,,,,,,stimulusFile/physical.xlsx,,,,,,,,,,,,,,,,,,,,,,,,,,,,,,,
,,,,,,,,,,,,,,,819,2022-01-14_14h14.06.455,multiplicationStroop,2021.2.3,Win32,60.17209218,,,,,,,,,,,,,,,,,,,,,0,0,0,1,1,stimulusFile/physical.xlsx,PHYSICALLY larger (larger font size).,images/physicallyLarger.png,,,,,,,,,,,,,,,,,,,,,,,,,,,,,
,,,,,,,,,,,,,,,819,2022-01-14_14h14.06.455,multiplicationStroop,2021.2.3,Win32,60.17209218,space,6.616,space,1.9727,right,0,0.6999,0,0,0,36,1,3,1,3 | 1,2,1.4111,1.9756,incongruent,left,,,,,,stimulusFile/magnitude.xlsx,,,,,,,,,,,,,,,,,,,,,,,,,,,,,,,
,,,,,,,,,,,,,,,819,2022-01-14_14h14.06.455,multiplicationStroop,2021.2.3,Win32,60.17209218,,,,,left,1,0.482,0,1,1,13,1,4,2,4 | 2,2,1.9756,1.4111,congruent,left,,,,,,stimulusFile/magnitude.xlsx,,,,,,,,,,,,,,,,,,,,,,,,,,,,,,,
,,,,,,,,,,,,,,,819,2022-01-14_14h14.06.455,multiplicationStroop,2021.2.3,Win32,60.17209218,,,,,left,1,0.4484,0,2,2,20,1,6,1,6 | 1,5,1.9756,1.4111,congruent,left,,,,,,stimulusFile/magnitude.xlsx,,,,,,,,,,,,,,,,,,,,,,,,,,,,,,,
,,,,,,,,,,,,,,,819,2022-01-14_14h14.06.455,multiplicationStroop,2021.2.3,Win32,60.17209218,,,,,right,0,0.9407,0,3,3,44,1,6,1,6 | 1,5,1.4111,1.9756,incongruent,left,,,,,,stimulusFile/magnitude.xlsx,,,,,,,,,,,,,,,,,,,,,,,,,,,,,,,
,,,,,,,,,,,,,,,819,2022-01-14_14h14.06.455,multiplicationStroop,2021.2.3,Win32,60.17209218,,,,,right,1,0.4505,0,4,4,8,1,1,3,1 | 3,2,1.4111,1.9756,congruent,right,,,,,,stimulusFile/magnitude.xlsx,,,,,,,,,,,,,,,,,,,,,,,,,,,,,,,
,,,,,,,,,,,,,,,819,2022-01-14_14h14.06.455,multiplicationStroop,2021.2.3,Win32,60.17209218,,,,,left,1,0.5491,0,5,5,69,1,7,2,7 | 2,5,1.6933,1.6933,neutral,left,,,,,,stimulusFile/magnitude.xlsx,,,,,,,,,,,,,,,,,,,,,,,,,,,,,,,
,,,,,,,,,,,,,,,819,2022-01-14_14h14.06.455,multiplicationStroop,2021.2.3,Win32,60.17209218,,,,,left,0,0.5089,0,6,6,41,1,2,7,2 | 7,5,1.9756,1.4111,incongruent,right,,,,,,stimulusFile/magnitude.xlsx,,,,,,,,,,,,,,,,,,,,,,,,,,,,,,,
,,,,,,,,,,,,,,,819,2022-01-14_14h14.06.455,multiplicationStroop,2021.2.3,Win32,60.17209218,,,,,right,0,0.4858,0,7,7,31,1,9,8,9 | 8,1,1.4111,1.9756,incongruent,left,,,,,,stimulusFile/magnitude.xlsx,,,,,,,,,,,,,,,,,,,,,,,,,,,,,,,
,,,,,,,,,,,,,,,819,2022-01-14_14h14.06.455,multiplicationStroop,2021.2.3,Win32,60.17209218,,,,,right,1,0.5391,0,8,8,66,1,3,8,3 | 8,5,1.6933,1.6933,neutral,right,,,,,,stimulusFile/magnitude.xlsx,,,,,,,,,,,,,,,,,,,,,,,,,,,,,,,
,,,,,,,,,,,,,,,819,2022-01-14_14h14.06.455,multiplicationStroop,2021.2.3,Win32,60.17209218,,,,,left,1,0.5666,0,9,9,5,1,4,3,4 | 3,1,1.9756,1.4111,congruent,left,,,,,,stimulusFile/magnitude.xlsx,,,,,,,,,,,,,,,,,,,,,,,,,,,,,,,
,,,,,,,,,,,,,,,819,2022-01-14_14h14.06.455,multiplicationStroop,2021.2.3,Win32,60.17209218,,,,,left,1,2.2345,0,10,10,55,1,9,8,9 | 8,1,1.6933,1.6933,neutral,left,,,,,,stimulusFile/magnitude.xlsx,,,,,,,,,,,,,,,,,,,,,,,,,,,,,,,
,,,,,,,,,,,,,,,819,2022-01-14_14h14.06.455,multiplicationStroop,2021.2.3,Win32,60.17209218,,,,,left,0,1.8456,0,11,11,59,1,7,9,7 | 9,2,1.6933,1.6933,neutral,right,,,,,,stimulusFile/magnitude.xlsx,,,,,,,,,,,,,,,,,,,,,,,,,,,,,,,
,,,,,,,,,,,,,,,819,2022-01-14_14h14.06.455,multiplicationStroop,2021.2.3,Win32,60.17209218,,,,,right,1,0.5196,0,12,12,0,1,1,2,1 | 2,1,1.4111,1.9756,congruent,right,,,,,,stimulusFile/magnitude.xlsx,,,,,,,,,,,,,,,,,,,,,,,,,,,,,,,
,,,,,,,,,,,,,,,819,2022-01-14_14h14.06.455,multiplicationStroop,2021.2.3,Win32,60.17209218,,,,,right,1,0.7498,0,13,13,9,1,2,4,2 | 4,2,1.4111,1.9756,congruent,right,,,,,,stimulusFile/magnitude.xlsx,,,,,,,,,,,,,,,,,,,,,,,,,,,,,,,
,,,,,,,,,,,,,,,819,2022-01-14_14h14.06.455,multiplicationStroop,2021.2.3,Win32,60.17209218,,,,,left,1,0.5763,0,14,14,60,1,3,1,3 | 1,2,1.6933,1.6933,neutral,left,,,,,,stimulusFile/magnitude.xlsx,,,,,,,,,,,,,,,,,,,,,,,,,,,,,,,
,,,,,,,,,,,,,,,819,2022-01-14_14h14.06.455,multiplicationStroop,2021.2.3,Win32,60.17209218,,,,,right,0,0.5418,0,15,15,45,1,7,2,7 | 2,5,1.4111,1.9756,incongruent,left,,,,,,stimulusFile/magnitude.xlsx,,,,,,,,,,,,,,,,,,,,,,,,,,,,,,,
,,,,,,,,,,,,,,,819,2022-01-14_14h14.06.455,multiplicationStroop,2021.2.3,Win32,60.17209218,,,,,left,0,0.5203,0,16,16,33,1,2,4,2 | 4,2,1.9756,1.4111,incongruent,right,,,,,,stimulusFile/magnitude.xlsx,,,,,,,,,,,,,,,,,,,,,,,,,,,,,,,
,,,,,,,,,,,,,,,819,2022-01-14_14h14.06.455,multiplicationStroop,2021.2.3,Win32,60.17209218,,,,,left,0,0.6498,0,17,17,34,1,6,8,6 | 8,2,1.9756,1.4111,incongruent,right,,,,,,stimulusFile/magnitude.xlsx,,,,,,,,,,,,,,,,,,,,,,,,,,,,,,,
,,,,,,,,,,,,,,,819,2022-01-14_14h14.06.455,multiplicationStroop,2021.2.3,Win32,60.17209218,,,,,left,0,0.6993,0,18,18,26,1,6,7,6 | 7,1,1.9756,1.4111,incongruent,right,,,,,,stimulusFile/magnitude.xlsx,,,,,,,,,,,,,,,,,,,,,,,,,,,,,,,
,,,,,,,,,,,,,,,819,2022-01-14_14h14.06.455,multiplicationStroop,2021.2.3,Win32,60.17209218,,,,,left,0,0.5392,0,19,19,42,1,3,8,3 | 8,5,1.9756,1.4111,incongruent,right,,,,,,stimulusFile/magnitude.xlsx,,,,,,,,,,,,,,,,,,,,,,,,,,,,,,,
,,,,,,,,,,,,,,,819,2022-01-14_14h14.06.455,multiplicationStroop,2021.2.3,Win32,60.17209218,,,,,right,0,0.5388,0,20,20,28,1,2,1,2 | 1,1,1.4111,1.9756,incongruent,left,,,,,,stimulusFile/magnitude.xlsx,,,,,,,,,,,,,,,,,,,,,,,,,,,,,,,
,,,,,,,,,,,,,,,819,2022-01-14_14h14.06.455,multiplicationStroop,2021.2.3,Win32,60.17209218,,,,,left,0,0.7653,0,21,21,43,1,4,9,4 | 9,5,1.9756,1.4111,incongruent,right,,,,,,stimulusFile/magnitude.xlsx,,,,,,,,,,,,,,,,,,,,,,,,,,,,,,,
,,,,,,,,,,,,,,,819,2022-01-14_14h14.06.455,multiplicationStroop,2021.2.3,Win32,60.17209218,,,,,right,0,3.6409,0,22,22,71,1,9,4,9 | 4,5,1.6933,1.6933,neutral,left,,,,,,stimulusFile/magnitude.xlsx,,,,,,,,,,,,,,,,,,,,,,,,,,,,,,,
,,,,,,,,,,,,,,,819,2022-01-14_14h14.06.455,multiplicationStroop,2021.2.3,Win32,60.17209218,,,,,left,0,0.9649,0,23,23,40,1,1,6,1 | 6,5,1.9756,1.4111,incongruent,right,,,,,,stimulusFile/magnitude.xlsx,,,,,,,,,,,,,,,,,,,,,,,,,,,,,,,
,,,,,,,,,,,,,,,819,2022-01-14_14h14.06.455,multiplicationStroop,2021.2.3,Win32,60.17209218,,,,,left,0,4.4218,0,24,24,27,1,8,9,8 | 9,1,1.9756,1.4111,incongruent,right,,,,,,stimulusFile/magnitude.xlsx,,,,,,,,,,,,,,,,,,,,,,,,,,,,,,,
,,,,,,,,,,,,,,,819,2022-01-14_14h14.06.455,multiplicationStroop,2021.2.3,Win32,60.17209218,,,,,right,1,0.561,0,25,25,3,1,8,9,8 | 9,1,1.4111,1.9756,congruent,right,,,,,,stimulusFile/magnitude.xlsx,,,,,,,,,,,,,,,,,,,,,,,,,,,,,,,
,,,,,,,,,,,,,,,819,2022-01-14_14h14.06.455,multiplicationStroop,2021.2.3,Win32,60.17209218,,,,,right,1,0.583,0,26,26,19,1,4,9,4 | 9,5,1.4111,1.9756,congruent,right,,,,,,stimulusFile/magnitude.xlsx,,,,,,,,,,,,,,,,,,,,,,,,,,,,,,,
,,,,,,,,,,,,,,,819,2022-01-14_14h14.06.455,multiplicationStroop,2021.2.3,Win32,60.17209218,,,,,left,0,0.4659,0,27,27,24,1,1,2,1 | 2,1,1.9756,1.4111,incongruent,right,,,,,,stimulusFile/magnitude.xlsx,,,,,,,,,,,,,,,,,,,,,,,,,,,,,,,
,,,,,,,,,,,,,,,819,2022-01-14_14h14.06.455,multiplicationStroop,2021.2.3,Win32,60.17209218,,,,,right,1,0.4531,0,28,28,11,1,7,9,7 | 9,2,1.4111,1.9756,congruent,right,,,,,,stimulusFile/magnitude.xlsx,,,,,,,,,,,,,,,,,,,,,,,,,,,,,,,
,,,,,,,,,,,,,,,819,2022-01-14_14h14.06.455,multiplicationStroop,2021.2.3,Win32,60.17209218,,,,,left,1,0.4329,0,29,29,6,1,7,6,7 | 6,1,1.9756,1.4111,congruent,left,,,,,,stimulusFile/magnitude.xlsx,,,,,,,,,,,,,,,,,,,,,,,,,,,,,,,
,,,,,,,,,,,,,,,819,2022-01-14_14h14.06.455,multiplicationStroop,2021.2.3,Win32,60.17209218,,,,,right,0,0.417,0,30,30,39,1,9,7,9 | 7,2,1.4111,1.9756,incongruent,left,,,,,,stimulusFile/magnitude.xlsx,,,,,,,,,,,,,,,,,,,,,,,,,,,,,,,
,,,,,,,,,,,,,,,819,2022-01-14_14h14.06.455,multiplicationStroop,2021.2.3,Win32,60.17209218,,,,,right,0,0.4668,0,31,31,46,1,8,3,8 | 3,5,1.4111,1.9756,incongruent,left,,,,,,stimulusFile/magnitude.xlsx,,,,,,,,,,,,,,,,,,,,,,,,,,,,,,,
,,,,,,,,,,,,,,,819,2022-01-14_14h14.06.455,multiplicationStroop,2021.2.3,Win32,60.17209218,,,,,right,1,1.8184,0,32,32,56,1,1,3,1 | 3,2,1.6933,1.6933,neutral,right,,,,,,stimulusFile/magnitude.xlsx,,,,,,,,,,,,,,,,,,,,,,,,,,,,,,,
,,,,,,,,,,,,,,,819,2022-01-14_14h14.06.455,multiplicationStroop,2021.2.3,Win32,60.17209218,,,,,right,1,0.7716,0,33,33,64,1,1,6,1 | 6,5,1.6933,1.6933,neutral,right,,,,,,stimulusFile/magnitude.xlsx,,,,,,,,,,,,,,,,,,,,,,,,,,,,,,,
,,,,,,,,,,,,,,,819,2022-01-14_14h14.06.455,multiplicationStroop,2021.2.3,Win32,60.17209218,,,,,left,1,0.9316,0,34,34,23,1,9,4,9 | 4,5,1.9756,1.4111,congruent,left,,,,,,stimulusFile/magnitude.xlsx,,,,,,,,,,,,,,,,,,,,,,,,,,,,,,,
,,,,,,,,,,,,,,,819,2022-01-14_14h14.06.455,multiplicationStroop,2021.2.3,Win32,60.17209218,,,,,left,1,0.9407,0,35,35,14,1,8,6,8 | 6,2,1.9756,1.4111,congruent,left,,,,,,stimulusFile/magnitude.xlsx,,,,,,,,,,,,,,,,,,,,,,,,,,,,,,,
,,,,,,,,,,,,,,,819,2022-01-14_14h14.06.455,multiplicationStroop,2021.2.3,Win32,60.17209218,,,,,right,1,0.4899,0,36,36,67,1,4,9,4 | 9,5,1.6933,1.6933,neutral,right,,,,,,stimulusFile/magnitude.xlsx,,,,,,,,,,,,,,,,,,,,,,,,,,,,,,,
,,,,,,,,,,,,,,,819,2022-01-14_14h14.06.455,multiplicationStroop,2021.2.3,Win32,60.17209218,,,,,right,1,0.6532,0,37,37,10,1,6,8,6 | 8,2,1.4111,1.9756,congruent,right,,,,,,stimulusFile/magnitude.xlsx,,,,,,,,,,,,,,,,,,,,,,,,,,,,,,,
,,,,,,,,,,,,,,,819,2022-01-14_14h14.06.455,multiplicationStroop,2021.2.3,Win32,60.17209218,,,,,left,1,0.7899,0,38,38,7,1,9,8,9 | 8,1,1.9756,1.4111,congruent,left,,,,,,stimulusFile/magnitude.xlsx,,,,,,,,,,,,,,,,,,,,,,,,,,,,,,,
,,,,,,,,,,,,,,,819,2022-01-14_14h14.06.455,multiplicationStroop,2021.2.3,Win32,60.17209218,,,,,left,1,1.181,0,39,39,52,1,2,1,2 | 1,1,1.6933,1.6933,neutral,left,,,,,,stimulusFile/magnitude.xlsx,,,,,,,,,,,,,,,,,,,,,,,,,,,,,,,
,,,,,,,,,,,,,,,819,2022-01-14_14h14.06.455,multiplicationStroop,2021.2.3,Win32,60.17209218,,,,,left,1,0.6077,0,40,40,12,1,3,1,3 | 1,2,1.9756,1.4111,congruent,left,,,,,,stimulusFile/magnitude.xlsx,,,,,,,,,,,,,,,,,,,,,,,,,,,,,,,
,,,,,,,,,,,,,,,819,2022-01-14_14h14.06.455,multiplicationStroop,2021.2.3,Win32,60.17209218,,,,,right,1,0.5241,0,41,41,32,1,1,3,1 | 3,2,1.9756,1.4111,incongruent,right,,,,,,stimulusFile/magnitude.xlsx,,,,,,,,,,,,,,,,,,,,,,,,,,,,,,,
,,,,,,,,,,,,,,,819,2022-01-14_14h14.06.455,multiplicationStroop,2021.2.3,Win32,60.17209218,,,,,right,1,1.3219,0,42,42,50,1,6,7,6 | 7,1,1.6933,1.6933,neutral,right,,,,,,stimulusFile/magnitude.xlsx,,,,,,,,,,,,,,,,,,,,,,,,,,,,,,,
,,,,,,,,,,,,,,,819,2022-01-14_14h14.06.455,multiplicationStroop,2021.2.3,Win32,60.17209218,,,,,right,1,1.0535,0,43,43,51,1,8,9,8 | 9,1,1.6933,1.6933,neutral,right,,,,,,stimulusFile/magnitude.xlsx,,,,,,,,,,,,,,,,,,,,,,,,,,,,,,,
,,,,,,,,,,,,,,,819,2022-01-14_14h14.06.455,multiplicationStroop,2021.2.3,Win32,60.17209218,,,,,right,1,0.9811,0,44,44,58,1,6,8,6 | 8,2,1.6933,1.6933,neutral,right,,,,,,stimulusFile/magnitude.xlsx,,,,,,,,,,,,,,,,,,,,,,,,,,,,,,,
,,,,,,,,,,,,,,,819,2022-01-14_14h14.06.455,multiplicationStroop,2021.2.3,Win32,60.17209218,,,,,left,1,1.5875,0,45,45,38,1,8,6,8 | 6,2,1.4111,1.9756,incongruent,left,,,,,,stimulusFile/magnitude.xlsx,,,,,,,,,,,,,,,,,,,,,,,,,,,,,,,
,,,,,,,,,,,,,,,819,2022-01-14_14h14.06.455,multiplicationStroop,2021.2.3,Win32,60.17209218,,,,,right,1,1.4016,0,46,46,18,1,3,8,3 | 8,5,1.4111,1.9756,congruent,right,,,,,,stimulusFile/magnitude.xlsx,,,,,,,,,,,,,,,,,,,,,,,,,,,,,,,
,,,,,,,,,,,,,,,819,2022-01-14_14h14.06.455,multiplicationStroop,2021.2.3,Win32,60.17209218,,,,,left,1,0.5162,0,47,47,4,1,2,1,2 | 1,1,1.9756,1.4111,congruent,left,,,,,,stimulusFile/magnitude.xlsx,,,,,,,,,,,,,,,,,,,,,,,,,,,,,,,
,,,,,,,,,,,,,,,819,2022-01-14_14h14.06.455,multiplicationStroop,2021.2.3,Win32,60.17209218,,,,,right,1,1.1746,0,48,48,48,1,1,2,1 | 2,1,1.6933,1.6933,neutral,right,,,,,,stimulusFile/magnitude.xlsx,,,,,,,,,,,,,,,,,,,,,,,,,,,,,,,
,,,,,,,,,,,,,,,819,2022-01-14_14h14.06.455,multiplicationStroop,2021.2.3,Win32,60.17209218,,,,,left,0,0.5269,0,49,49,35,1,7,9,7 | 9,2,1.9756,1.4111,incongruent,right,,,,,,stimulusFile/magnitude.xlsx,,,,,,,,,,,,,,,,,,,,,,,,,,,,,,,
,,,,,,,,,,,,,,,819,2022-01-14_14h14.06.455,multiplicationStroop,2021.2.3,Win32,60.17209218,,,,,left,1,2.311,0,50,50,54,1,7,6,7 | 6,1,1.6933,1.6933,neutral,left,,,,,,stimulusFile/magnitude.xlsx,,,,,,,,,,,,,,,,,,,,,,,,,,,,,,,
,,,,,,,,,,,,,,,819,2022-01-14_14h14.06.455,multiplicationStroop,2021.2.3,Win32,60.17209218,,,,,right,1,0.6824,0,51,51,65,1,2,7,2 | 7,5,1.6933,1.6933,neutral,right,,,,,,stimulusFile/magnitude.xlsx,,,,,,,,,,,,,,,,,,,,,,,,,,,,,,,
,,,,,,,,,,,,,,,819,2022-01-14_14h14.06.455,multiplicationStroop,2021.2.3,Win32,60.17209218,,,,,left,1,1.3967,0,52,52,30,1,7,6,7 | 6,1,1.4111,1.9756,incongruent,left,,,,,,stimulusFile/magnitude.xlsx,,,,,,,,,,,,,,,,,,,,,,,,,,,,,,,
,,,,,,,,,,,,,,,819,2022-01-14_14h14.06.455,multiplicationStroop,2021.2.3,Win32,60.17209218,,,,,right,1,2.976,0,53,53,16,1,1,6,1 | 6,5,1.4111,1.9756,congruent,right,,,,,,stimulusFile/magnitude.xlsx,,,,,,,,,,,,,,,,,,,,,,,,,,,,,,,
,,,,,,,,,,,,,,,819,2022-01-14_14h14.06.455,multiplicationStroop,2021.2.3,Win32,60.17209218,,,,,left,1,0.4899,0,54,54,70,1,8,3,8 | 3,5,1.6933,1.6933,neutral,left,,,,,,stimulusFile/magnitude.xlsx,,,,,,,,,,,,,,,,,,,,,,,,,,,,,,,
,,,,,,,,,,,,,,,819,2022-01-14_14h14.06.455,multiplicationStroop,2021.2.3,Win32,60.17209218,,,,,right,1,0.5432,0,55,55,1,1,3,4,3 | 4,1,1.4111,1.9756,congruent,right,,,,,,stimulusFile/magnitude.xlsx,,,,,,,,,,,,,,,,,,,,,,,,,,,,,,,
,,,,,,,,,,,,,,,819,2022-01-14_14h14.06.455,multiplicationStroop,2021.2.3,Win32,60.17209218,,,,,left,1,1.0022,0,56,56,37,1,4,2,4 | 2,2,1.4111,1.9756,incongruent,left,,,,,,stimulusFile/magnitude.xlsx,,,,,,,,,,,,,,,,,,,,,,,,,,,,,,,
,,,,,,,,,,,,,,,819,2022-01-14_14h14.06.455,multiplicationStroop,2021.2.3,Win32,60.17209218,,,,,left,1,0.7984,0,57,57,63,1,9,7,9 | 7,2,1.6933,1.6933,neutral,left,,,,,,stimulusFile/magnitude.xlsx,,,,,,,,,,,,,,,,,,,,,,,,,,,,,,,
,,,,,,,,,,,,,,,819,2022-01-14_14h14.06.455,multiplicationStroop,2021.2.3,Win32,60.17209218,,,,,right,1,0.5656,0,58,58,17,1,2,7,2 | 7,5,1.4111,1.9756,congruent,right,,,,,,stimulusFile/magnitude.xlsx,,,,,,,,,,,,,,,,,,,,,,,,,,,,,,,
,,,,,,,,,,,,,,,819,2022-01-14_14h14.06.455,multiplicationStroop,2021.2.3,Win32,60.17209218,,,,,left,1,1.6837,0,59,59,53,1,4,3,4 | 3,1,1.6933,1.6933,neutral,left,,,,,,stimulusFile/magnitude.xlsx,,,,,,,,,,,,,,,,,,,,,,,,,,,,,,,
,,,,,,,,,,,,,,,819,2022-01-14_14h14.06.455,multiplicationStroop,2021.2.3,Win32,60.17209218,,,,,left,1,0.9689,0,60,60,47,1,9,4,9 | 4,5,1.4111,1.9756,incongruent,left,,,,,,stimulusFile/magnitude.xlsx,,,,,,,,,,,,,,,,,,,,,,,,,,,,,,,
,,,,,,,,,,,,,,,819,2022-01-14_14h14.06.455,multiplicationStroop,2021.2.3,Win32,60.17209218,,,,,right,1,0.9105,0,61,61,2,1,6,7,6 | 7,1,1.4111,1.9756,congruent,right,,,,,,stimulusFile/magnitude.xlsx,,,,,,,,,,,,,,,,,,,,,,,,,,,,,,,
,,,,,,,,,,,,,,,819,2022-01-14_14h14.06.455,multiplicationStroop,2021.2.3,Win32,60.17209218,,,,,right,1,0.8817,0,62,62,49,1,3,4,3 | 4,1,1.6933,1.6933,neutral,right,,,,,,stimulusFile/magnitude.xlsx,,,,,,,,,,,,,,,,,,,,,,,,,,,,,,,
,,,,,,,,,,,,,,,819,2022-01-14_14h14.06.455,multiplicationStroop,2021.2.3,Win32,60.17209218,,,,,left,1,0.6706,0,63,63,15,1,9,7,9 | 7,2,1.9756,1.4111,congruent,left,,,,,,stimulusFile/magnitude.xlsx,,,,,,,,,,,,,,,,,,,,,,,,,,,,,,,
,,,,,,,,,,,,,,,819,2022-01-14_14h14.06.455,multiplicationStroop,2021.2.3,Win32,60.17209218,,,,,left,1,0.7257,0,64,64,29,1,4,3,4 | 3,1,1.4111,1.9756,incongruent,left,,,,,,stimulusFile/magnitude.xlsx,,,,,,,,,,,,,,,,,,,,,,,,,,,,,,,
,,,,,,,,,,,,,,,819,2022-01-14_14h14.06.455,multiplicationStroop,2021.2.3,Win32,60.17209218,,,,,left,1,0.5363,0,65,65,22,1,8,3,8 | 3,5,1.9756,1.4111,congruent,left,,,,,,stimulusFile/magnitude.xlsx,,,,,,,,,,,,,,,,,,,,,,,,,,,,,,,
,,,,,,,,,,,,,,,819,2022-01-14_14h14.06.455,multiplicationStroop,2021.2.3,Win32,60.17209218,,,,,right,1,0.6151,0,66,66,57,1,2,4,2 | 4,2,1.6933,1.6933,neutral,right,,,,,,stimulusFile/magnitude.xlsx,,,,,,,,,,,,,,,,,,,,,,,,,,,,,,,
,,,,,,,,,,,,,,,819,2022-01-14_14h14.06.455,multiplicationStroop,2021.2.3,Win32,60.17209218,,,,,left,1,0.6594,0,67,67,61,1,4,2,4 | 2,2,1.6933,1.6933,neutral,left,,,,,,stimulusFile/magnitude.xlsx,,,,,,,,,,,,,,,,,,,,,,,,,,,,,,,
,,,,,,,,,,,,,,,819,2022-01-14_14h14.06.455,multiplicationStroop,2021.2.3,Win32,60.17209218,,,,,right,1,0.9812,0,68,68,25,1,3,4,3 | 4,1,1.9756,1.4111,incongruent,right,,,,,,stimulusFile/magnitude.xlsx,,,,,,,,,,,,,,,,,,,,,,,,,,,,,,,
,,,,,,,,,,,,,,,819,2022-01-14_14h14.06.455,multiplicationStroop,2021.2.3,Win32,60.17209218,,,,,left,1,0.6822,0,69,69,62,1,8,6,8 | 6,2,1.6933,1.6933,neutral,left,,,,,,stimulusFile/magnitude.xlsx,,,,,,,,,,,,,,,,,,,,,,,,,,,,,,,
,,,,,,,,,,,,,,,819,2022-01-14_14h14.06.455,multiplicationStroop,2021.2.3,Win32,60.17209218,,,,,left,1,0.6587,0,70,70,21,1,7,2,7 | 2,5,1.9756,1.4111,congruent,left,,,,,,stimulusFile/magnitude.xlsx,,,,,,,,,,,,,,,,,,,,,,,,,,,,,,,
,,,,,,,,,,,,,,,819,2022-01-14_14h14.06.455,multiplicationStroop,2021.2.3,Win32,60.17209218,,,,,left,1,0.5557,0,71,71,68,1,6,1,6 | 1,5,1.6933,1.6933,neutral,left,,,,,,stimulusFile/magnitude.xlsx,,,,,,,,,,,,,,,,,,,,,,,,,,,,,,,
,,,,,,,,,,,,,,,819,2022-01-14_14h14.06.455,multiplicationStroop,2021.2.3,Win32,60.17209218,,,,,,,,,,,,,,,,,,,,,0,1,1,0,1,stimulusFile/magnitude.xlsx,NUMERICALLY larger (larger coefficient).,images/numericallyLarger.png,,,,,,,,,,,,,,,,,,,,,,,,,,,,,
,,,,,,,,,,,,,,,819,2022-01-14_14h14.06.455,multiplicationStroop,2021.2.3,Win32,60.17209218,,,,,,,,,,,,,,,,,,,,,,,,,,,,,space,20.628,space,1.7103,24,3.8955,1,0,0,0,23,1,8,×,3,8 × 3,incongruent,largerFirst,1,2,24,,,,,,,,
,,,,,,,,,,,,,,,819,2022-01-14_14h14.06.455,multiplicationStroop,2021.2.3,Win32,60.17209218,,,,,,,,,,,,,,,,,,,,,,,,,,,,,,,,,45,2.6412,1,0,1,1,8,1,5,×,9,5 × 9,incongruent,smallerFirst,2,1,45,,,,,,,,
,,,,,,,,,,,,,,,819,2022-01-14_14h14.06.455,multiplicationStroop,2021.2.3,Win32,60.17209218,,,,,,,,,,,,,,,,,,,,,,,,,,,,,,,,,10,2.4287,1,0,2,2,7,1,2,×,5,2 × 5,incongruent,smallerFirst,2,1,10,,,,,,,,
,,,,,,,,,,,,,,,819,2022-01-14_14h14.06.455,multiplicationStroop,2021.2.3,Win32,60.17209218,,,,,,,,,,,,,,,,,,,,,,,,,,,,,,,,,64,4.5042,1,0,3,3,34,1,8,×,8,8 × 8,neutral,tie,2,1,64,,,,,,,,
,,,,,,,,,,,,,,,819,2022-01-14_14h14.06.455,multiplicationStroop,2021.2.3,Win32,60.17209218,,,,,,,,,,,,,,,,,,,,,,,,,,,,,,,,,21,1.8804,1,0,4,4,12,1,3,×,7,3 × 7,incongruent,smallerFirst,2,1,21,,,,,,,,
,,,,,,,,,,,,,,,819,2022-01-14_14h14.06.455,multiplicationStroop,2021.2.3,Win32,60.17209218,,,,,,,,,,,,,,,,,,,,,,,,,,,,,,,,,6,1.8442,1,0,5,5,25,1,3,×,2,3 × 2,incongruent,largerFirst,1,2,6,,,,,,,,
,,,,,,,,,,,,,,,819,2022-01-14_14h14.06.455,multiplicationStroop,2021.2.3,Win32,60.17209218,,,,,,,,,,,,,,,,,,,,,,,,,,,,,,,,,36,2.16,1,0,6,6,32,1,6,×,6,6 × 6,neutral,tie,2,1,36,,,,,,,,
,,,,,,,,,,,,,,,819,2022-01-14_14h14.06.455,multiplicationStroop,2021.2.3,Win32,60.17209218,,,,,,,,,,,,,,,,,,,,,,,,,,,,,,,,,16,1.8779,1,0,7,7,9,1,2,×,8,2 × 8,incongruent,smallerFirst,2,1,16,,,,,,,,
,,,,,,,,,,,,,,,819,2022-01-14_14h14.06.455,multiplicationStroop,2021.2.3,Win32,60.17209218,,,,,,,,,,,,,,,,,,,,,,,,,,,,,,,,,30,6.5809,1,0,8,8,11,1,5,×,6,5 × 6,incongruent,smallerFirst,2,1,30,,,,,,,,
,,,,,,,,,,,,,,,819,2022-01-14_14h14.06.455,multiplicationStroop,2021.2.3,Win32,60.17209218,,,,,,,,,,,,,,,,,,,,,,,,,,,,,,,,,28,3.0937,1,0,9,9,2,1,4,×,7,4 × 7,incongruent,smallerFirst,2,1,28,,,,,,,,
,,,,,,,,,,,,,,,819,2022-01-14_14h14.06.455,multiplicationStroop,2021.2.3,Win32,60.17209218,,,,,,,,,,,,,,,,,,,,,,,,,,,,,,,,,14,1.7347,1,0,10,10,18,1,7,×,2,7 × 2,incongruent,largerFirst,1,2,14,,,,,,,,
,,,,,,,,,,,,,,,819,2022-01-14_14h14.06.455,multiplicationStroop,2021.2.3,Win32,60.17209218,,,,,,,,,,,,,,,,,,,,,,,,,,,,,,,,,18,1.8276,1,0,11,11,22,1,6,×,3,6 × 3,incongruent,largerFirst,1,2,18,,,,,,,,
,,,,,,,,,,,,,,,819,2022-01-14_14h14.06.455,multiplicationStroop,2021.2.3,Win32,60.17209218,,,,,,,,,,,,,,,,,,,,,,,,,,,,,,,,,40,1.928,1,0,12,12,27,1,8,×,5,8 × 5,incongruent,largerFirst,1,2,40,,,,,,,,
,,,,,,,,,,,,,,,819,2022-01-14_14h14.06.455,multiplicationStroop,2021.2.3,Win32,60.17209218,,,,,,,,,,,,,,,,,,,,,,,,,,,,,,,,,9,1.7951,1,0,13,13,29,1,3,×,3,3 × 3,neutral,tie,2,1,9,,,,,,,,
,,,,,,,,,,,,,,,819,2022-01-14_14h14.06.455,multiplicationStroop,2021.2.3,Win32,60.17209218,,,,,,,,,,,,,,,,,,,,,,,,,,,,,,,,,48,1.9603,1,0,14,14,15,1,8,×,6,8 × 6,incongruent,largerFirst,1,2,48,,,,,,,,
,,,,,,,,,,,,,,,819,2022-01-14_14h14.06.455,multiplicationStroop,2021.2.3,Win32,60.17209218,,,,,,,,,,,,,,,,,,,,,,,,,,,,,,,,,81,2.9414,1,0,15,15,35,1,9,×,9,9 × 9,neutral,tie,2,1,81,,,,,,,,
,,,,,,,,,,,,,,,819,2022-01-14_14h14.06.455,multiplicationStroop,2021.2.3,Win32,60.17209218,,,,,,,,,,,,,,,,,,,,,,,,,,,,,,,,,32,1.9826,1,0,16,16,21,1,8,×,4,8 × 4,incongruent,largerFirst,1,2,32,,,,,,,,
,,,,,,,,,,,,,,,819,2022-01-14_14h14.06.455,multiplicationStroop,2021.2.3,Win32,60.17209218,,,,,,,,,,,,,,,,,,,,,,,,,,,,,,,,,49,2.3428,1,0,17,17,33,1,7,×,7,7 × 7,neutral,tie,2,1,49,,,,,,,,
,,,,,,,,,,,,,,,819,2022-01-14_14h14.06.455,multiplicationStroop,2021.2.3,Win32,60.17209218,,,,,,,,,,,,,,,,,,,,,,,,,,,,,,,,,16,1.8117,1,0,18,18,30,1,4,×,4,4 × 4,neutral,tie,2,1,16,,,,,,,,
,,,,,,,,,,,,,,,819,2022-01-14_14h14.06.455,multiplicationStroop,2021.2.3,Win32,60.17209218,,,,,,,,,,,,,,,,,,,,,,,,,,,,,,,,,12,1.7943,1,0,19,19,19,1,4,×,3,4 × 3,incongruent,largerFirst,1,2,12,,,,,,,,
,,,,,,,,,,,,,,,819,2022-01-14_14h14.06.455,multiplicationStroop,2021.2.3,Win32,60.17209218,,,,,,,,,,,,,,,,,,,,,,,,,,,,,,,,,56,2.0605,1,0,20,20,0,1,7,×,8,7 × 8,incongruent,smallerFirst,2,1,56,,,,,,,,
,,,,,,,,,,,,,,,819,2022-01-14_14h14.06.455,multiplicationStroop,2021.2.3,Win32,60.17209218,,,,,,,,,,,,,,,,,,,,,,,,,,,,,,,,,27,3.224,1,0,21,21,4,1,3,×,9,3 × 9,incongruent,smallerFirst,2,1,27,,,,,,,,
,,,,,,,,,,,,,,,819,2022-01-14_14h14.06.455,multiplicationStroop,2021.2.3,Win32,60.17209218,,,,,,,,,,,,,,,,,,,,,,,,,,,,,,,,,36,1.8957,1,0,22,22,1,1,4,×,9,4 × 9,incongruent,smallerFirst,2,1,36,,,,,,,,
,,,,,,,,,,,,,,,819,2022-01-14_14h14.06.455,multiplicationStroop,2021.2.3,Win32,60.17209218,,,,,,,,,,,,,,,,,,,,,,,,,,,,,,,,,18,2.2103,1,0,23,23,16,1,9,×,2,9 × 2,incongruent,largerFirst,1,2,18,,,,,,,,
,,,,,,,,,,,,,,,819,2022-01-14_14h14.06.455,multiplicationStroop,2021.2.3,Win32,60.17209218,,,,,,,,,,,,,,,,,,,,,,,,,,,,,,,,,35,1.947,1,0,24,24,26,1,7,×,5,7 × 5,incongruent,largerFirst,1,2,35,,,,,,,,
,,,,,,,,,,,,,,,819,2022-01-14_14h14.06.455,multiplicationStroop,2021.2.3,Win32,60.17209218,,,,,,,,,,,,,,,,,,,,,,,,,,,,,,,,,24,2.1768,1,0,25,25,6,1,4,×,6,4 × 6,incongruent,smallerFirst,2,1,24,,,,,,,,
,,,,,,,,,,,,,,,819,2022-01-14_14h14.06.455,multiplicationStroop,2021.2.3,Win32,60.17209218,,,,,,,,,,,,,,,,,,,,,,,,,,,,,,,,,15,1.7441,1,0,26,26,24,1,5,×,3,5 × 3,incongruent,largerFirst,1,2,15,,,,,,,,
,,,,,,,,,,,,,,,819,2022-01-14_14h14.06.455,multiplicationStroop,2021.2.3,Win32,60.17209218,,,,,,,,,,,,,,,,,,,,,,,,,,,,,,,,,4,1.6789,1,0,27,27,28,1,2,×,2,2 × 2,neutral,tie,2,1,4,,,,,,,,
,,,,,,,,,,,,,,,819,2022-01-14_14h14.06.455,multiplicationStroop,2021.2.3,Win32,60.17209218,,,,,,,,,,,,,,,,,,,,,,,,,,,,,,,,,8,1.8772,1,0,28,28,10,1,2,×,4,2 × 4,incongruent,smallerFirst,2,1,8,,,,,,,,
,,,,,,,,,,,,,,,819,2022-01-14_14h14.06.455,multiplicationStroop,2021.2.3,Win32,60.17209218,,,,,,,,,,,,,,,,,,,,,,,,,,,,,,,,,25,2.8417,1,0,29,29,31,1,5,×,5,5 × 5,neutral,tie,2,1,25,,,,,,,,
,,,,,,,,,,,,,,,819,2022-01-14_14h14.06.455,multiplicationStroop,2021.2.3,Win32,60.17209218,,,,,,,,,,,,,,,,,,,,,,,,,,,,,,,,,63,3.1108,1,0,30,30,17,1,9,×,7,9 × 7,incongruent,largerFirst,1,2,63,,,,,,,,
,,,,,,,,,,,,,,,819,2022-01-14_14h14.06.455,multiplicationStroop,2021.2.3,Win32,60.17209218,,,,,,,,,,,,,,,,,,,,,,,,,,,,,,,,,72,2.5919,1,0,31,31,14,1,9,×,8,9 × 8,incongruent,largerFirst,1,2,72,,,,,,,,
,,,,,,,,,,,,,,,819,2022-01-14_14h14.06.455,multiplicationStroop,2021.2.3,Win32,60.17209218,,,,,,,,,,,,,,,,,,,,,,,,,,,,,,,,,42,2.1126,1,0,32,32,3,1,6,×,7,6 × 7,incongruent,smallerFirst,2,1,42,,,,,,,,
,,,,,,,,,,,,,,,819,2022-01-14_14h14.06.455,multiplicationStroop,2021.2.3,Win32,60.17209218,,,,,,,,,,,,,,,,,,,,,,,,,,,,,,,,,20,2.4928,1,0,33,33,13,1,4,×,5,4 × 5,incongruent,smallerFirst,2,1,20,,,,,,,,
,,,,,,,,,,,,,,,819,2022-01-14_14h14.06.455,multiplicationStroop,2021.2.3,Win32,60.17209218,,,,,,,,,,,,,,,,,,,,,,,,,,,,,,,,,54,2.2598,1,0,34,34,20,1,9,×,6,9 × 6,incongruent,largerFirst,1,2,54,,,,,,,,
,,,,,,,,,,,,,,,819,2022-01-14_14h14.06.455,multiplicationStroop,2021.2.3,Win32,60.17209218,,,,,,,,,,,,,,,,,,,,,,,,,,,,,,,,,12,2.3764,1,0,35,35,5,1,2,×,6,2 × 6,incongruent,smallerFirst,2,1,12,,,,,,,,
,,,,,,,,,,,,,,,819,2022-01-14_14h14.06.455,multiplicationStroop,2021.2.3,Win32,60.17209218,,,,,,,,,,,,,,,,,,,,,,,,,,,,,,,,,,,,,,,,,,,,,,,,,,0,0,0,4,1,stimulusFile/mult_blk5_INcongruent.xlsx,,
,,,,,,,,,,,,,,,819,2022-01-14_14h14.06.455,multiplicationStroop,2021.2.3,Win32,60.17209218,,,,,,,,,,,,,,,,,,,,,,,,,,,,,,,space,1.6297,8,1.9823,1,0,0,0,24,1,4,×,2,4 × 2,incongruent,largerFirst,1,2,8,,,,,,,,
,,,,,,,,,,,,,,,819,2022-01-14_14h14.06.455,multiplicationStroop,2021.2.3,Win32,60.17209218,,,,,,,,,,,,,,,,,,,,,,,,,,,,,,,,,35,2.1769,1,0,1,1,12,1,5,×,7,5 × 7,incongruent,smallerFirst,2,1,35,,,,,,,,
,,,,,,,,,,,,,,,819,2022-01-14_14h14.06.455,multiplicationStroop,2021.2.3,Win32,60.17209218,,,,,,,,,,,,,,,,,,,,,,,,,,,,,,,,,28,1.8779,1,0,2,2,16,1,7,×,4,7 × 4,incongruent,largerFirst,1,2,28,,,,,,,,
,,,,,,,,,,,,,,,819,2022-01-14_14h14.06.455,multiplicationStroop,2021.2.3,Win32,60.17209218,,,,,,,,,,,,,,,,,,,,,,,,,,,,,,,,,14,1.7283,1,0,3,3,4,1,2,×,7,2 × 7,incongruent,smallerFirst,2,1,14,,,,,,,,
,,,,,,,,,,,,,,,819,2022-01-14_14h14.06.455,multiplicationStroop,2021.2.3,Win32,60.17209218,,,,,,,,,,,,,,,,,,,,,,,,,,,,,,,,,30,1.7112,1,0,4,4,25,1,6,×,5,6 × 5,incongruent,largerFirst,1,2,30,,,,,,,,
,,,,,,,,,,,,,,,819,2022-01-14_14h14.06.455,multiplicationStroop,2021.2.3,Win32,60.17209218,,,,,,,,,,,,,,,,,,,,,,,,,,,,,,,,,27,2.3764,1,0,5,5,18,1,9,×,3,9 × 3,incongruent,largerFirst,1,2,27,,,,,,,,
,,,,,,,,,,,,,,,819,2022-01-14_14h14.06.455,multiplicationStroop,2021.2.3,Win32,60.17209218,,,,,,,,,,,,,,,,,,,,,,,,,,,,,,,,,54,2.5926,1,0,6,6,6,1,6,×,9,6 × 9,incongruent,smallerFirst,2,1,54,,,,,,,,
,,,,,,,,,,,,,,,819,2022-01-14_14h14.06.455,multiplicationStroop,2021.2.3,Win32,60.17209218,,,,,,,,,,,,,,,,,,,,,,,,,,,,,,,,,25,1.7282,1,0,7,7,31,1,5,×,5,5 × 5,incongruent,tie,1,2,25,,,,,,,,
,,,,,,,,,,,,,,,819,2022-01-14_14h14.06.455,multiplicationStroop,2021.2.3,Win32,60.17209218,,,,,,,,,,,,,,,,,,,,,,,,,,,,,,,,,32,2.1933,1,0,8,8,7,1,4,×,8,4 × 8,incongruent,smallerFirst,2,1,32,,,,,,,,
,,,,,,,,,,,,,,,819,2022-01-14_14h14.06.455,multiplicationStroop,2021.2.3,Win32,60.17209218,,,,,,,,,,,,,,,,,,,,,,,,,,,,,,,,,18,2.1438,1,0,9,9,8,1,3,×,6,3 × 6,incongruent,smallerFirst,2,1,18,,,,,,,,
,,,,,,,,,,,,,,,819,2022-01-14_14h14.06.455,multiplicationStroop,2021.2.3,Win32,60.17209218,,,,,,,,,,,,,,,,,,,,,,,,,,,,,,,,,49,2.6757,1,0,10,10,33,1,7,×,7,7 × 7,incongruent,tie,1,2,49,,,,,,,,
,,,,,,,,,,,,,,,819,2022-01-14_14h14.06.455,multiplicationStroop,2021.2.3,Win32,60.17209218,,,,,,,,,,,,,,,,,,,,,,,,,,,,,,,,,12,2.0959,1,0,11,11,19,1,6,×,2,6 × 2,incongruent,largerFirst,1,2,12,,,,,,,,
,,,,,,,,,,,,,,,819,2022-01-14_14h14.06.455,multiplicationStroop,2021.2.3,Win32,60.17209218,,,,,,,,,,,,,,,,,,,,,,,,,,,,,,,,,16,1.7777,1,0,12,12,30,1,4,×,4,4 × 4,incongruent,tie,1,2,16,,,,,,,,
,,,,,,,,,,,,,,,819,2022-01-14_14h14.06.455,multiplicationStroop,2021.2.3,Win32,60.17209218,,,,,,,,,,,,,,,,,,,,,,,,,,,,,,,,,9,1.778,1,0,13,13,29,1,3,×,3,3 × 3,incongruent,tie,1,2,9,,,,,,,,
,,,,,,,,,,,,,,,819,2022-01-14_14h14.06.455,multiplicationStroop,2021.2.3,Win32,60.17209218,,,,,,,,,,,,,,,,,,,,,,,,,,,,,,,,,64,3.0741,1,0,14,14,34,1,8,×,8,8 × 8,incongruent,tie,1,2,64,,,,,,,,
,,,,,,,,,,,,,,,819,2022-01-14_14h14.06.455,multiplicationStroop,2021.2.3,Win32,60.17209218,,,,,,,,,,,,,,,,,,,,,,,,,,,,,,,,,21,1.5674,1,0,15,15,26,1,7,×,3,7 × 3,incongruent,largerFirst,1,2,21,,,,,,,,
,,,,,,,,,,,,,,,819,2022-01-14_14h14.06.455,multiplicationStroop,2021.2.3,Win32,60.17209218,,,,,,,,,,,,,,,,,,,,,,,,,,,,,,,,,56,2.2433,1,0,16,16,14,1,8,×,7,8 × 7,incongruent,largerFirst,1,2,56,,,,,,,,
,,,,,,,,,,,,,,,819,2022-01-14_14h14.06.455,multiplicationStroop,2021.2.3,Win32,60.17209218,,,,,,,,,,,,,,,,,,,,,,,,,,,,,,,,,10,2.0273,1,0,17,17,21,1,5,×,2,5 × 2,incongruent,largerFirst,1,2,10,,,,,,,,
,,,,,,,,,,,,,,,819,2022-01-14_14h14.06.455,multiplicationStroop,2021.2.3,Win32,60.17209218,,,,,,,,,,,,,,,,,,,,,,,,,,,,,,,,,36,2.0109,1,0,18,18,32,1,6,×,6,6 × 6,incongruent,tie,1,2,36,,,,,,,,
,,,,,,,,,,,,,,,819,2022-01-14_14h14.06.455,multiplicationStroop,2021.2.3,Win32,60.17209218,,,,,,,,,,,,,,,,,,,,,,,,,,,,,,,,,6,2.0438,1,0,19,19,11,1,2,×,3,2 × 3,incongruent,smallerFirst,2,1,6,,,,,,,,
,,,,,,,,,,,,,,,819,2022-01-14_14h14.06.455,multiplicationStroop,2021.2.3,Win32,60.17209218,,,,,,,,,,,,,,,,,,,,,,,,,,,,,,,,,81,2.6424,1,0,20,20,35,1,9,×,9,9 × 9,incongruent,tie,1,2,81,,,,,,,,
,,,,,,,,,,,,,,,819,2022-01-14_14h14.06.455,multiplicationStroop,2021.2.3,Win32,60.17209218,,,,,,,,,,,,,,,,,,,,,,,,,,,,,,,,,15,1.9276,1,0,21,21,10,1,3,×,5,3 × 5,incongruent,smallerFirst,2,1,15,,,,,,,,
,,,,,,,,,,,,,,,819,2022-01-14_14h14.06.455,multiplicationStroop,2021.2.3,Win32,60.17209218,,,,,,,,,,,,,,,,,,,,,,,,,,,,,,,,,18,2.2269,1,0,22,22,2,1,2,×,9,2 × 9,incongruent,smallerFirst,2,1,18,,,,,,,,
,,,,,,,,,,,,,,,819,2022-01-14_14h14.06.455,multiplicationStroop,2021.2.3,Win32,60.17209218,,,,,,,,,,,,,,,,,,,,,,,,,,,,,,,,,16,1.9608,1,0,23,23,23,1,8,×,2,8 × 2,incongruent,largerFirst,1,2,16,,,,,,,,
,,,,,,,,,,,,,,,819,2022-01-14_14h14.06.455,multiplicationStroop,2021.2.3,Win32,60.17209218,,,,,,,,,,,,,,,,,,,,,,,,,,,,,,,,,4,1.6619,1,0,24,24,28,1,2,×,2,2 × 2,incongruent,tie,1,2,4,,,,,,,,
,,,,,,,,,,,,,,,819,2022-01-14_14h14.06.455,multiplicationStroop,2021.2.3,Win32,60.17209218,,,,,,,,,,,,,,,,,,,,,,,,,,,,,,,,,20,1.8611,1,0,25,25,27,1,5,×,4,5 × 4,incongruent,largerFirst,1,2,20,,,,,,,,
,,,,,,,,,,,,,,,819,2022-01-14_14h14.06.455,multiplicationStroop,2021.2.3,Win32,60.17209218,,,,,,,,,,,,,,,,,,,,,,,,,,,,,,,,,36,2.5093,1,0,26,26,15,1,9,×,4,9 × 4,incongruent,largerFirst,1,2,36,,,,,,,,
,,,,,,,,,,,,,,,819,2022-01-14_14h14.06.455,multiplicationStroop,2021.2.3,Win32,60.17209218,,,,,,,,,,,,,,,,,,,,,,,,,,,,,,,,,24,1.9276,1,0,27,27,9,1,3,×,8,3 × 8,incongruent,smallerFirst,2,1,24,,,,,,,,
,,,,,,,,,,,,,,,819,2022-01-14_14h14.06.455,multiplicationStroop,2021.2.3,Win32,60.17209218,,,,,,,,,,,,,,,,,,,,,,,,,,,,,,,,,40,2.31,1,0,28,28,13,1,5,×,8,5 × 8,incongruent,smallerFirst,2,1,40,,,,,,,,
,,,,,,,,,,,,,,,819,2022-01-14_14h14.06.455,multiplicationStroop,2021.2.3,Win32,60.17209218,,,,,,,,,,,,,,,,,,,,,,,,,,,,,,,,,42,1.861,1,0,29,29,17,1,7,×,6,7 × 6,incongruent,largerFirst,1,2,42,,,,,,,,
,,,,,,,,,,,,,,,819,2022-01-14_14h14.06.455,multiplicationStroop,2021.2.3,Win32,60.17209218,,,,,,,,,,,,,,,,,,,,,,,,,,,,,,,,,63,4.2712,1,0,30,30,3,1,7,×,9,7 × 9,incongruent,smallerFirst,2,1,63,,,,,,,,
,,,,,,,,,,,,,,,819,2022-01-14_14h14.06.455,multiplicationStroop,2021.2.3,Win32,60.17209218,,,,,,,,,,,,,,,,,,,,,,,,,,,,,,,,,45,1.9801,1,0,31,31,22,1,9,×,5,9 × 5,incongruent,largerFirst,1,2,45,,,,,,,,
,,,,,,,,,,,,,,,819,2022-01-14_14h14.06.455,multiplicationStroop,2021.2.3,Win32,60.17209218,,,,,,,,,,,,,,,,,,,,,,,,,,,,,,,,,48,2.5093,1,0,32,32,1,1,6,×,8,6 × 8,incongruent,smallerFirst,2,1,48,,,,,,,,
,,,,,,,,,,,,,,,819,2022-01-14_14h14.06.455,multiplicationStroop,2021.2.3,Win32,60.17209218,,,,,,,,,,,,,,,,,,,,,,,,,,,,,,,,,72,2.1627,1,0,33,33,0,1,8,×,9,8 × 9,incongruent,smallerFirst,2,1,72,,,,,,,,
,,,,,,,,,,,,,,,819,2022-01-14_14h14.06.455,multiplicationStroop,2021.2.3,Win32,60.17209218,,,,,,,,,,,,,,,,,,,,,,,,,,,,,,,,,24,1.7614,1,0,34,34,20,1,6,×,4,6 × 4,incongruent,largerFirst,1,2,24,,,,,,,,
,,,,,,,,,,,,,,,819,2022-01-14_14h14.06.455,multiplicationStroop,2021.2.3,Win32,60.17209218,,,,,,,,,,,,,,,,,,,,,,,,,,,,,,,,,12,1.5952,1,0,35,35,5,1,3,×,4,3 × 4,incongruent,smallerFirst,2,1,12,,,,,,,,
,,,,,,,,,,,,,,,819,2022-01-14_14h14.06.455,multiplicationStroop,2021.2.3,Win32,60.17209218,,,,,,,,,,,,,,,,,,,,,,,,,,,,,,,,,,,,,,,,,,,,,,,,,,0,1,1,5,1,stimulusFile/mult_blk6_INcongruent.xlsx,,
,,,,,,,,,,,,,,,819,2022-01-14_14h14.06.455,multiplicationStroop,2021.2.3,Win32,60.17209218,,,,,,,,,,,,,,,,,,,,,,,,,,,,,,,space,1.2816,25,1.8749,1,0,0,0,31,1,5,×,5,5 × 5,neutral,tie,1,2,25,,,,,,,,
,,,,,,,,,,,,,,,819,2022-01-14_14h14.06.455,multiplicationStroop,2021.2.3,Win32,60.17209218,,,,,,,,,,,,,,,,,,,,,,,,,,,,,,,,,81,2.0773,1,0,1,1,35,1,9,×,9,9 × 9,neutral,tie,1,2,81,,,,,,,,
,,,,,,,,,,,,,,,819,2022-01-14_14h14.06.455,multiplicationStroop,2021.2.3,Win32,60.17209218,,,,,,,,,,,,,,,,,,,,,,,,,,,,,,,,,4,1.5623,1,0,2,2,28,1,2,×,2,2 × 2,neutral,tie,1,2,4,,,,,,,,
,,,,,,,,,,,,,,,819,2022-01-14_14h14.06.455,multiplicationStroop,2021.2.3,Win32,60.17209218,,,,,,,,,,,,,,,,,,,,,,,,,,,,,,,,,27,2.3598,1,0,3,3,12,1,3,×,9,3 × 9,congruent,smallerFirst,1,2,27,,,,,,,,
,,,,,,,,,,,,,,,819,2022-01-14_14h14.06.455,multiplicationStroop,2021.2.3,Win32,60.17209218,,,,,,,,,,,,,,,,,,,,,,,,,,,,,,,,,18,1.9775,1,0,4,4,25,1,6,×,3,6 × 3,congruent,largerFirst,2,1,18,,,,,,,,
,,,,,,,,,,,,,,,819,2022-01-14_14h14.06.455,multiplicationStroop,2021.2.3,Win32,60.17209218,,,,,,,,,,,,,,,,,,,,,,,,,,,,,,,,,16,2.5094,1,0,5,5,19,1,8,×,2,8 × 2,congruent,largerFirst,2,1,16,,,,,,,,
,,,,,,,,,,,,,,,819,2022-01-14_14h14.06.455,multiplicationStroop,2021.2.3,Win32,60.17209218,,,,,,,,,,,,,,,,,,,,,,,,,,,,,,,,,72,2.3597,1,0,6,6,3,1,8,×,9,8 × 9,congruent,smallerFirst,1,2,72,,,,,,,,
,,,,,,,,,,,,,,,819,2022-01-14_14h14.06.455,multiplicationStroop,2021.2.3,Win32,60.17209218,,,,,,,,,,,,,,,,,,,,,,,,,,,,,,,,,32,1.8613,1,0,7,7,6,1,4,×,8,4 × 8,congruent,smallerFirst,1,2,32,,,,,,,,
,,,,,,,,,,,,,,,819,2022-01-14_14h14.06.455,multiplicationStroop,2021.2.3,Win32,60.17209218,,,,,,,,,,,,,,,,,,,,,,,,,,,,,,,,,40,2.0106,1,0,8,8,20,1,8,×,5,8 × 5,congruent,largerFirst,2,1,40,,,,,,,,
,,,,,,,,,,,,,,,819,2022-01-14_14h14.06.455,multiplicationStroop,2021.2.3,Win32,60.17209218,,,,,,,,,,,,,,,,,,,,,,,,,,,,,,,,,63,2.9578,1,0,9,9,7,1,7,×,9,7 × 9,congruent,smallerFirst,1,2,63,,,,,,,,
,,,,,,,,,,,,,,,819,2022-01-14_14h14.06.455,multiplicationStroop,2021.2.3,Win32,60.17209218,,,,,,,,,,,,,,,,,,,,,,,,,,,,,,,,,8,1.8678,1,0,10,10,23,1,4,×,2,4 × 2,congruent,largerFirst,2,1,8,,,,,,,,
,,,,,,,,,,,,,,,819,2022-01-14_14h14.06.455,multiplicationStroop,2021.2.3,Win32,60.17209218,,,,,,,,,,,,,,,,,,,,,,,,,,,,,,,,,48,2.177,1,0,11,11,4,1,6,×,8,6 × 8,congruent,smallerFirst,1,2,48,,,,,,,,
,,,,,,,,,,,,,,,819,2022-01-14_14h14.06.455,multiplicationStroop,2021.2.3,Win32,60.17209218,,,,,,,,,,,,,,,,,,,,,,,,,,,,,,,,,6,2.2766,1,0,12,12,27,1,3,×,2,3 × 2,congruent,largerFirst,2,1,6,,,,,,,,
,,,,,,,,,,,,,,,819,2022-01-14_14h14.06.455,multiplicationStroop,2021.2.3,Win32,60.17209218,,,,,,,,,,,,,,,,,,,,,,,,,,,,,,,,,12,1.7448,1,0,13,13,16,1,4,×,3,4 × 3,congruent,largerFirst,2,1,12,,,,,,,,
,,,,,,,,,,,,,,,819,2022-01-14_14h14.06.455,multiplicationStroop,2021.2.3,Win32,60.17209218,,,,,,,,,,,,,,,,,,,,,,,,,,,,,,,,,24,2.127,1,0,14,14,24,1,8,×,3,8 × 3,congruent,largerFirst,2,1,24,,,,,,,,
,,,,,,,,,,,,,,,819,2022-01-14_14h14.06.455,multiplicationStroop,2021.2.3,Win32,60.17209218,,,,,,,,,,,,,,,,,,,,,,,,,,,,,,,,,9,1.8279,1,0,15,15,29,1,3,×,3,3 × 3,neutral,tie,1,2,9,,,,,,,,
,,,,,,,,,,,,,,,819,2022-01-14_14h14.06.455,multiplicationStroop,2021.2.3,Win32,60.17209218,,,,,,,,,,,,,,,,,,,,,,,,,,,,,,,,,36,2.2267,1,0,16,16,14,1,9,×,4,9 × 4,congruent,largerFirst,2,1,36,,,,,,,,
,,,,,,,,,,,,,,,819,2022-01-14_14h14.06.455,multiplicationStroop,2021.2.3,Win32,60.17209218,,,,,,,,,,,,,,,,,,,,,,,,,,,,,,,,,12,1.6619,1,0,17,17,5,1,2,×,6,2 × 6,congruent,smallerFirst,1,2,12,,,,,,,,
,,,,,,,,,,,,,,,819,2022-01-14_14h14.06.455,multiplicationStroop,2021.2.3,Win32,60.17209218,,,,,,,,,,,,,,,,,,,,,,,,,,,,,,,,,45,3.4734,1,0,18,18,9,1,5,×,9,5 × 9,congruent,smallerFirst,1,2,45,,,,,,,,
,,,,,,,,,,,,,,,819,2022-01-14_14h14.06.455,multiplicationStroop,2021.2.3,Win32,60.17209218,,,,,,,,,,,,,,,,,,,,,,,,,,,,,,,,,54,2.3617,1,0,19,19,26,1,9,×,6,9 × 6,congruent,largerFirst,2,1,54,,,,,,,,
,,,,,,,,,,,,,,,819,2022-01-14_14h14.06.455,multiplicationStroop,2021.2.3,Win32,60.17209218,,,,,,,,,,,,,,,,,,,,,,,,,,,,,,,,,42,3.0081,1,0,20,20,17,1,7,×,6,7 × 6,congruent,largerFirst,2,1,42,,,,,,,,
,,,,,,,,,,,,,,,819,2022-01-14_14h14.06.455,multiplicationStroop,2021.2.3,Win32,60.17209218,,,,,,,,,,,,,,,,,,,,,,,,,,,,,,,,,64,2.659,1,0,21,21,34,1,8,×,8,8 × 8,neutral,tie,1,2,64,,,,,,,,
,,,,,,,,,,,,,,,819,2022-01-14_14h14.06.455,multiplicationStroop,2021.2.3,Win32,60.17209218,,,,,,,,,,,,,,,,,,,,,,,,,,,,,,,,,36,1.8299,1,0,22,22,32,1,6,×,6,6 × 6,neutral,tie,1,2,36,,,,,,,,
,,,,,,,,,,,,,,,819,2022-01-14_14h14.06.455,multiplicationStroop,2021.2.3,Win32,60.17209218,,,,,,,,,,,,,,,,,,,,,,,,,,,,,,,,,18,2.0604,1,0,23,23,8,1,2,×,9,2 × 9,congruent,smallerFirst,1,2,18,,,,,,,,
,,,,,,,,,,,,,,,819,2022-01-14_14h14.06.455,multiplicationStroop,2021.2.3,Win32,60.17209218,,,,,,,,,,,,,,,,,,,,,,,,,,,,,,,,,56,2.4098,1,0,24,24,22,1,8,×,7,8 × 7,congruent,largerFirst,2,1,56,,,,,,,,
,,,,,,,,,,,,,,,819,2022-01-14_14h14.06.455,multiplicationStroop,2021.2.3,Win32,60.17209218,,,,,,,,,,,,,,,,,,,,,,,,,,,,,,,,,16,2.3266,1,0,25,25,30,1,4,×,4,4 × 4,neutral,tie,1,2,16,,,,,,,,
,,,,,,,,,,,,,,,819,2022-01-14_14h14.06.455,multiplicationStroop,2021.2.3,Win32,60.17209218,,,,,,,,,,,,,,,,,,,,,,,,,,,,,,,,,49,2.0439,1,0,26,26,33,1,7,×,7,7 × 7,neutral,tie,1,2,49,,,,,,,,
,,,,,,,,,,,,,,,819,2022-01-14_14h14.06.455,multiplicationStroop,2021.2.3,Win32,60.17209218,,,,,,,,,,,,,,,,,,,,,,,,,,,,,,,,,30,2.3433,1,0,27,27,1,1,5,×,6,5 × 6,congruent,smallerFirst,1,2,30,,,,,,,,
,,,,,,,,,,,,,,,819,2022-01-14_14h14.06.455,multiplicationStroop,2021.2.3,Win32,60.17209218,,,,,,,,,,,,,,,,,,,,,,,,,,,,,,,,,35,2.7254,1,0,28,28,15,1,7,×,5,7 × 5,congruent,largerFirst,2,1,35,,,,,,,,
,,,,,,,,,,,,,,,819,2022-01-14_14h14.06.455,multiplicationStroop,2021.2.3,Win32,60.17209218,,,,,,,,,,,,,,,,,,,,,,,,,,,,,,,,,14,2.1106,1,0,29,29,0,1,2,×,7,2 × 7,congruent,smallerFirst,1,2,14,,,,,,,,
,,,,,,,,,,,,,,,819,2022-01-14_14h14.06.455,multiplicationStroop,2021.2.3,Win32,60.17209218,,,,,,,,,,,,,,,,,,,,,,,,,,,,,,,,,28,2.1134,1,0,30,30,13,1,4,×,7,4 × 7,congruent,smallerFirst,1,2,28,,,,,,,,
,,,,,,,,,,,,,,,819,2022-01-14_14h14.06.455,multiplicationStroop,2021.2.3,Win32,60.17209218,,,,,,,,,,,,,,,,,,,,,,,,,,,,,,,,,21,1.8772,1,0,31,31,2,1,3,×,7,3 × 7,congruent,smallerFirst,1,2,21,,,,,,,,
,,,,,,,,,,,,,,,819,2022-01-14_14h14.06.455,multiplicationStroop,2021.2.3,Win32,60.17209218,,,,,,,,,,,,,,,,,,,,,,,,,,,,,,,,,24,1.8279,1,0,32,32,11,1,4,×,6,4 × 6,congruent,smallerFirst,1,2,24,,,,,,,,
,,,,,,,,,,,,,,,819,2022-01-14_14h14.06.455,multiplicationStroop,2021.2.3,Win32,60.17209218,,,,,,,,,,,,,,,,,,,,,,,,,,,,,,,,,20,1.9278,1,0,33,33,21,1,5,×,4,5 × 4,congruent,largerFirst,2,1,20,,,,,,,,
,,,,,,,,,,,,,,,819,2022-01-14_14h14.06.455,multiplicationStroop,2021.2.3,Win32,60.17209218,,,,,,,,,,,,,,,,,,,,,,,,,,,,,,,,,15,1.6948,1,0,34,34,18,1,5,×,3,5 × 3,congruent,largerFirst,2,1,15,,,,,,,,
,,,,,,,,,,,,,,,819,2022-01-14_14h14.06.455,multiplicationStroop,2021.2.3,Win32,60.17209218,,,,,,,,,,,,,,,,,,,,,,,,,,,,,,,,,10,1.828,1,0,35,35,10,1,2,×,5,2 × 5,congruent,smallerFirst,1,2,10,,,,,,,,
,,,,,,,,,,,,,,,819,2022-01-14_14h14.06.455,multiplicationStroop,2021.2.3,Win32,60.17209218,,,,,,,,,,,,,,,,,,,,,,,,,,,,,,,,,,,,,,,,,,,,,,,,,,0,2,2,3,1,stimulusFile/mult_blk4_congruent.xlsx,,
,,,,,,,,,,,,,,,819,2022-01-14_14h14.06.455,multiplicationStroop,2021.2.3,Win32,60.17209218,,,,,,,,,,,,,,,,,,,,,,,,,,,,,,,space,9.0785,24,3.0983,1,0,0,0,22,1,8,×,3,8 × 3,neutral,largerFirst,1.5,1.5,24,,,,,,,,
,,,,,,,,,,,,,,,819,2022-01-14_14h14.06.455,multiplicationStroop,2021.2.3,Win32,60.17209218,,,,,,,,,,,,,,,,,,,,,,,,,,,,,,,,,35,1.9106,1,0,1,1,1,1,5,×,7,5 × 7,neutral,smallerFirst,1.5,1.5,35,,,,,,,,
,,,,,,,,,,,,,,,819,2022-01-14_14h14.06.455,multiplicationStroop,2021.2.3,Win32,60.17209218,,,,,,,,,,,,,,,,,,,,,,,,,,,,,,,,,15,1.8436,1,0,2,2,5,1,3,×,5,3 × 5,neutral,smallerFirst,1.5,1.5,15,,,,,,,,
,,,,,,,,,,,,,,,819,2022-01-14_14h14.06.455,multiplicationStroop,2021.2.3,Win32,60.17209218,,,,,,,,,,,,,,,,,,,,,,,,,,,,,,,,,16,2.1269,1,0,3,3,13,1,2,×,8,2 × 8,neutral,smallerFirst,1.5,1.5,16,,,,,,,,
,,,,,,,,,,,,,,,819,2022-01-14_14h14.06.455,multiplicationStroop,2021.2.3,Win32,60.17209218,,,,,,,,,,,,,,,,,,,,,,,,,,,,,,,,,8,1.9608,1,0,4,4,3,1,2,×,4,2 × 4,neutral,smallerFirst,1.5,1.5,8,,,,,,,,
,,,,,,,,,,,,,,,819,2022-01-14_14h14.06.455,multiplicationStroop,2021.2.3,Win32,60.17209218,,,,,,,,,,,,,,,,,,,,,,,,,,,,,,,,,63,5.4512,1,0,5,5,12,1,7,×,9,7 × 9,neutral,smallerFirst,1.5,1.5,63,,,,,,,,
,,,,,,,,,,,,,,,819,2022-01-14_14h14.06.455,multiplicationStroop,2021.2.3,Win32,60.17209218,,,,,,,,,,,,,,,,,,,,,,,,,,,,,,,,,81,2.478,1,0,6,6,35,1,9,×,9,9 × 9,neutral,tie,1.5,1.5,81,,,,,,,,
,,,,,,,,,,,,,,,819,2022-01-14_14h14.06.455,multiplicationStroop,2021.2.3,Win32,60.17209218,,,,,,,,,,,,,,,,,,,,,,,,,,,,,,,,,18,2.1106,1,0,7,7,0,1,3,×,6,3 × 6,neutral,smallerFirst,1.5,1.5,18,,,,,,,,
,,,,,,,,,,,,,,,819,2022-01-14_14h14.06.455,multiplicationStroop,2021.2.3,Win32,60.17209218,,,,,,,,,,,,,,,,,,,,,,,,,,,,,,,,,25,1.9276,1,0,8,8,31,1,5,×,5,5 × 5,neutral,tie,1.5,1.5,25,,,,,,,,
,,,,,,,,,,,,,,,819,2022-01-14_14h14.06.455,multiplicationStroop,2021.2.3,Win32,60.17209218,,,,,,,,,,,,,,,,,,,,,,,,,,,,,,,,,64,2.1765,1,0,9,9,34,1,8,×,8,8 × 8,neutral,tie,1.5,1.5,64,,,,,,,,
,,,,,,,,,,,,,,,819,2022-01-14_14h14.06.455,multiplicationStroop,2021.2.3,Win32,60.17209218,,,,,,,,,,,,,,,,,,,,,,,,,,,,,,,,,9,1.6944,1,0,10,10,29,1,3,×,3,3 × 3,neutral,tie,1.5,1.5,9,,,,,,,,
,,,,,,,,,,,,,,,819,2022-01-14_14h14.06.455,multiplicationStroop,2021.2.3,Win32,60.17209218,,,,,,,,,,,,,,,,,,,,,,,,,,,,,,,,,20,2.8914,1,0,11,11,20,1,5,×,4,5 × 4,neutral,largerFirst,1.5,1.5,20,,,,,,,,
,,,,,,,,,,,,,,,819,2022-01-14_14h14.06.455,multiplicationStroop,2021.2.3,Win32,60.17209218,,,,,,,,,,,,,,,,,,,,,,,,,,,,,,,,,27,2.5095,1,0,12,12,14,1,9,×,3,9 × 3,neutral,largerFirst,1.5,1.5,27,,,,,,,,
,,,,,,,,,,,,,,,819,2022-01-14_14h14.06.455,multiplicationStroop,2021.2.3,Win32,60.17209218,,,,,,,,,,,,,,,,,,,,,,,,,,,,,,,,,40,1.8486,1,0,13,13,24,1,8,×,5,8 × 5,neutral,largerFirst,1.5,1.5,40,,,,,,,,
,,,,,,,,,,,,,,,819,2022-01-14_14h14.06.455,multiplicationStroop,2021.2.3,Win32,60.17209218,,,,,,,,,,,,,,,,,,,,,,,,,,,,,,,,,4,1.8275,1,0,14,14,28,1,2,×,2,2 × 2,neutral,tie,1.5,1.5,4,,,,,,,,
,,,,,,,,,,,,,,,819,2022-01-14_14h14.06.455,multiplicationStroop,2021.2.3,Win32,60.17209218,,,,,,,,,,,,,,,,,,,,,,,,,,,,,,,,,21,2.1817,1,0,15,15,8,1,3,×,7,3 × 7,neutral,smallerFirst,1.5,1.5,21,,,,,,,,
,,,,,,,,,,,,,,,819,2022-01-14_14h14.06.455,multiplicationStroop,2021.2.3,Win32,60.17209218,,,,,,,,,,,,,,,,,,,,,,,,,,,,,,,,,12,1.8915,1,0,16,16,25,1,6,×,2,6 × 2,neutral,largerFirst,1.5,1.5,12,,,,,,,,
,,,,,,,,,,,,,,,819,2022-01-14_14h14.06.455,multiplicationStroop,2021.2.3,Win32,60.17209218,,,,,,,,,,,,,,,,,,,,,,,,,,,,,,,,,54,3.3237,1,0,17,17,7,1,6,×,9,6 × 9,neutral,smallerFirst,1.5,1.5,54,,,,,,,,
,,,,,,,,,,,,,,,819,2022-01-14_14h14.06.455,multiplicationStroop,2021.2.3,Win32,60.17209218,,,,,,,,,,,,,,,,,,,,,,,,,,,,,,,,,12,2.6443,1,0,18,18,21,1,4,×,3,4 × 3,neutral,largerFirst,1.5,1.5,12,,,,,,,,
,,,,,,,,,,,,,,,819,2022-01-14_14h14.06.455,multiplicationStroop,2021.2.3,Win32,60.17209218,,,,,,,,,,,,,,,,,,,,,,,,,,,,,,,,,28,1.8774,1,0,19,19,17,1,7,×,4,7 × 4,neutral,largerFirst,1.5,1.5,28,,,,,,,,
,,,,,,,,,,,,,,,819,2022-01-14_14h14.06.455,multiplicationStroop,2021.2.3,Win32,60.17209218,,,,,,,,,,,,,,,,,,,,,,,,,,,,,,,,,10,1.7614,1,0,20,20,4,1,2,×,5,2 × 5,neutral,smallerFirst,1.5,1.5,10,,,,,,,,
,,,,,,,,,,,,,,,819,2022-01-14_14h14.06.455,multiplicationStroop,2021.2.3,Win32,60.17209218,,,,,,,,,,,,,,,,,,,,,,,,,,,,,,,,,14,1.6948,1,0,21,21,16,1,7,×,2,7 × 2,neutral,largerFirst,1.5,1.5,14,,,,,,,,
,,,,,,,,,,,,,,,819,2022-01-14_14h14.06.455,multiplicationStroop,2021.2.3,Win32,60.17209218,,,,,,,,,,,,,,,,,,,,,,,,,,,,,,,,,48,2.3595,1,0,22,22,15,1,8,×,6,8 × 6,neutral,largerFirst,1.5,1.5,48,,,,,,,,
,,,,,,,,,,,,,,,819,2022-01-14_14h14.06.455,multiplicationStroop,2021.2.3,Win32,60.17209218,,,,,,,,,,,,,,,,,,,,,,,,,,,,,,,,,18,1.8944,1,0,23,23,18,1,9,×,2,9 × 2,neutral,largerFirst,1.5,1.5,18,,,,,,,,
,,,,,,,,,,,,,,,819,2022-01-14_14h14.06.455,multiplicationStroop,2021.2.3,Win32,60.17209218,,,,,,,,,,,,,,,,,,,,,,,,,,,,,,,,,72,2.3759,1,0,24,24,11,1,8,×,9,8 × 9,neutral,smallerFirst,1.5,1.5,72,,,,,,,,
,,,,,,,,,,,,,,,819,2022-01-14_14h14.06.455,multiplicationStroop,2021.2.3,Win32,60.17209218,,,,,,,,,,,,,,,,,,,,,,,,,,,,,,,,,30,2.0103,1,0,25,25,19,1,6,×,5,6 × 5,neutral,largerFirst,1.5,1.5,30,,,,,,,,
,,,,,,,,,,,,,,,819,2022-01-14_14h14.06.455,multiplicationStroop,2021.2.3,Win32,60.17209218,,,,,,,,,,,,,,,,,,,,,,,,,,,,,,,,,42,2.1609,1,0,26,26,6,1,6,×,7,6 × 7,neutral,smallerFirst,1.5,1.5,42,,,,,,,,
,,,,,,,,,,,,,,,819,2022-01-14_14h14.06.455,multiplicationStroop,2021.2.3,Win32,60.17209218,,,,,,,,,,,,,,,,,,,,,,,,,,,,,,,,,36,2.5783,1,0,27,27,27,1,9,×,4,9 × 4,neutral,largerFirst,1.5,1.5,36,,,,,,,,
,,,,,,,,,,,,,,,819,2022-01-14_14h14.06.455,multiplicationStroop,2021.2.3,Win32,60.17209218,,,,,,,,,,,,,,,,,,,,,,,,,,,,,,,,,32,1.927,1,0,28,28,23,1,8,×,4,8 × 4,neutral,largerFirst,1.5,1.5,32,,,,,,,,
,,,,,,,,,,,,,,,819,2022-01-14_14h14.06.455,multiplicationStroop,2021.2.3,Win32,60.17209218,,,,,,,,,,,,,,,,,,,,,,,,,,,,,,,,,45,1.8774,1,0,29,29,10,1,5,×,9,5 × 9,neutral,smallerFirst,1.5,1.5,45,,,,,,,,
,,,,,,,,,,,,,,,819,2022-01-14_14h14.06.455,multiplicationStroop,2021.2.3,Win32,60.17209218,,,,,,,,,,,,,,,,,,,,,,,,,,,,,,,,,16,1.7945,1,0,30,30,30,1,4,×,4,4 × 4,neutral,tie,1.5,1.5,16,,,,,,,,
,,,,,,,,,,,,,,,819,2022-01-14_14h14.06.455,multiplicationStroop,2021.2.3,Win32,60.17209218,,,,,,,,,,,,,,,,,,,,,,,,,,,,,,,,,6,1.8444,1,0,31,31,26,1,3,×,2,3 × 2,neutral,largerFirst,1.5,1.5,6,,,,,,,,
,,,,,,,,,,,,,,,819,2022-01-14_14h14.06.455,multiplicationStroop,2021.2.3,Win32,60.17209218,,,,,,,,,,,,,,,,,,,,,,,,,,,,,,,,,24,2.5424,1,0,32,32,2,1,4,×,6,4 × 6,neutral,smallerFirst,1.5,1.5,24,,,,,,,,
,,,,,,,,,,,,,,,819,2022-01-14_14h14.06.455,multiplicationStroop,2021.2.3,Win32,60.17209218,,,,,,,,,,,,,,,,,,,,,,,,,,,,,,,,,36,2.9417,1,0,33,33,32,1,6,×,6,6 × 6,neutral,tie,1.5,1.5,36,,,,,,,,
,,,,,,,,,,,,,,,819,2022-01-14_14h14.06.455,multiplicationStroop,2021.2.3,Win32,60.17209218,,,,,,,,,,,,,,,,,,,,,,,,,,,,,,,,,49,2.1096,1,0,34,34,33,1,7,×,7,7 × 7,neutral,tie,1.5,1.5,49,,,,,,,,
,,,,,,,,,,,,,,,819,2022-01-14_14h14.06.455,multiplicationStroop,2021.2.3,Win32,60.17209218,,,,,,,,,,,,,,,,,,,,,,,,,,,,,,,,,56,2.0766,1,0,35,35,9,1,7,×,8,7 × 8,neutral,smallerFirst,1.5,1.5,56,,,,,,,,
,,,,,,,,,,,,,,,819,2022-01-14_14h14.06.455,multiplicationStroop,2021.2.3,Win32,60.17209218,,,,,,,,,,,,,,,,,,,,,,,,,,,,,,,,,,,,,,,,,,,,,,,,,,0,3,3,1,1,stimulusFile/mult_blk2.xlsx,,
,,,,,,,,,,,,,,,819,2022-01-14_14h14.06.455,multiplicationStroop,2021.2.3,Win32,60.17209218,,,,,,,,,,,,,,,,,,,,,,,,,,,,,,,space,1.9333,24,1.7644,1,0,0,0,16,1,6,×,4,6 × 4,neutral,largerFirst,1.5,1.5,24,,,,,,,,
,,,,,,,,,,,,,,,819,2022-01-14_14h14.06.455,multiplicationStroop,2021.2.3,Win32,60.17209218,,,,,,,,,,,,,,,,,,,,,,,,,,,,,,,,,81,2.2094,1,0,1,1,35,1,9,×,9,9 × 9,neutral,tie,1.5,1.5,81,,,,,,,,
,,,,,,,,,,,,,,,819,2022-01-14_14h14.06.455,multiplicationStroop,2021.2.3,Win32,60.17209218,,,,,,,,,,,,,,,,,,,,,,,,,,,,,,,,,49,1.9604,1,0,2,2,33,1,7,×,7,7 × 7,neutral,tie,1.5,1.5,49,,,,,,,,
,,,,,,,,,,,,,,,819,2022-01-14_14h14.06.455,multiplicationStroop,2021.2.3,Win32,60.17209218,,,,,,,,,,,,,,,,,,,,,,,,,,,,,,,,,14,1.7107,1,0,3,3,2,1,2,×,7,2 × 7,neutral,smallerFirst,1.5,1.5,14,,,,,,,,
,,,,,,,,,,,,,,,819,2022-01-14_14h14.06.455,multiplicationStroop,2021.2.3,Win32,60.17209218,,,,,,,,,,,,,,,,,,,,,,,,,,,,,,,,,36,4.3209,1,0,4,4,13,1,4,×,9,4 × 9,neutral,smallerFirst,1.5,1.5,36,,,,,,,,
,,,,,,,,,,,,,,,819,2022-01-14_14h14.06.455,multiplicationStroop,2021.2.3,Win32,60.17209218,,,,,,,,,,,,,,,,,,,,,,,,,,,,,,,,,42,2.3116,1,0,5,5,20,1,7,×,6,7 × 6,neutral,largerFirst,1.5,1.5,42,,,,,,,,
,,,,,,,,,,,,,,,819,2022-01-14_14h14.06.455,multiplicationStroop,2021.2.3,Win32,60.17209218,,,,,,,,,,,,,,,,,,,,,,,,,,,,,,,,,18,1.9273,1,0,6,6,14,1,6,×,3,6 × 3,neutral,largerFirst,1.5,1.5,18,,,,,,,,
,,,,,,,,,,,,,,,819,2022-01-14_14h14.06.455,multiplicationStroop,2021.2.3,Win32,60.17209218,,,,,,,,,,,,,,,,,,,,,,,,,,,,,,,,,35,1.7777,1,0,7,7,15,1,7,×,5,7 × 5,neutral,largerFirst,1.5,1.5,35,,,,,,,,
,,,,,,,,,,,,,,,819,2022-01-14_14h14.06.455,multiplicationStroop,2021.2.3,Win32,60.17209218,,,,,,,,,,,,,,,,,,,,,,,,,,,,,,,,,27,2.5929,1,0,8,8,0,1,3,×,9,3 × 9,neutral,smallerFirst,1.5,1.5,27,,,,,,,,
,,,,,,,,,,,,,,,819,2022-01-14_14h14.06.455,multiplicationStroop,2021.2.3,Win32,60.17209218,,,,,,,,,,,,,,,,,,,,,,,,,,,,,,,,,24,2.2951,1,0,9,9,8,1,3,×,8,3 × 8,neutral,smallerFirst,1.5,1.5,24,,,,,,,,
,,,,,,,,,,,,,,,819,2022-01-14_14h14.06.455,multiplicationStroop,2021.2.3,Win32,60.17209218,,,,,,,,,,,,,,,,,,,,,,,,,,,,,,,,,8,1.8273,1,0,10,10,17,1,4,×,2,4 × 2,neutral,largerFirst,1.5,1.5,8,,,,,,,,
,,,,,,,,,,,,,,,819,2022-01-14_14h14.06.455,multiplicationStroop,2021.2.3,Win32,60.17209218,,,,,,,,,,,,,,,,,,,,,,,,,,,,,,,,,54,2.1593,1,0,11,11,21,1,9,×,6,9 × 6,neutral,largerFirst,1.5,1.5,54,,,,,,,,
,,,,,,,,,,,,,,,819,2022-01-14_14h14.06.455,multiplicationStroop,2021.2.3,Win32,60.17209218,,,,,,,,,,,,,,,,,,,,,,,,,,,,,,,,,64,4.5705,1,0,12,12,34,1,8,×,8,8 × 8,neutral,tie,1.5,1.5,64,,,,,,,,
,,,,,,,,,,,,,,,819,2022-01-14_14h14.06.455,multiplicationStroop,2021.2.3,Win32,60.17209218,,,,,,,,,,,,,,,,,,,,,,,,,,,,,,,,,4,1.6493,1,0,13,13,28,1,2,×,2,2 × 2,neutral,tie,1.5,1.5,4,,,,,,,,
,,,,,,,,,,,,,,,819,2022-01-14_14h14.06.455,multiplicationStroop,2021.2.3,Win32,60.17209218,,,,,,,,,,,,,,,,,,,,,,,,,,,,,,,,,12,1.6783,1,0,14,14,11,1,2,×,6,2 × 6,neutral,smallerFirst,1.5,1.5,12,,,,,,,,
,,,,,,,,,,,,,,,819,2022-01-14_14h14.06.455,multiplicationStroop,2021.2.3,Win32,60.17209218,,,,,,,,,,,,,,,,,,,,,,,,,,,,,,,,,16,1.761,1,0,15,15,27,1,8,×,2,8 × 2,neutral,largerFirst,1.5,1.5,16,,,,,,,,
,,,,,,,,,,,,,,,819,2022-01-14_14h14.06.455,multiplicationStroop,2021.2.3,Win32,60.17209218,,,,,,,,,,,,,,,,,,,,,,,,,,,,,,,,,15,1.562,1,0,16,16,19,1,5,×,3,5 × 3,neutral,largerFirst,1.5,1.5,15,,,,,,,,
,,,,,,,,,,,,,,,819,2022-01-14_14h14.06.455,multiplicationStroop,2021.2.3,Win32,60.17209218,,,,,,,,,,,,,,,,,,,,,,,,,,,,,,,,,40,2.0438,1,0,17,17,10,1,5,×,8,5 × 8,neutral,smallerFirst,1.5,1.5,40,,,,,,,,
,,,,,,,,,,,,,,,819,2022-01-14_14h14.06.455,multiplicationStroop,2021.2.3,Win32,60.17209218,,,,,,,,,,,,,,,,,,,,,,,,,,,,,,,,,10,1.6335,1,0,18,18,18,1,5,×,2,5 × 2,neutral,largerFirst,1.5,1.5,10,,,,,,,,
,,,,,,,,,,,,,,,819,2022-01-14_14h14.06.455,multiplicationStroop,2021.2.3,Win32,60.17209218,,,,,,,,,,,,,,,,,,,,,,,,,,,,,,,,,32,3.0199,1,0,19,19,9,1,4,×,8,4 × 8,neutral,smallerFirst,1.5,1.5,32,,,,,,,,
,,,,,,,,,,,,,,,819,2022-01-14_14h14.06.455,multiplicationStroop,2021.2.3,Win32,60.17209218,,,,,,,,,,,,,,,,,,,,,,,,,,,,,,,,,12,2.3444,1,0,20,20,7,1,3,×,4,3 × 4,neutral,smallerFirst,1.5,1.5,12,,,,,,,,
,,,,,,,,,,,,,,,819,2022-01-14_14h14.06.455,multiplicationStroop,2021.2.3,Win32,60.17209218,,,,,,,,,,,,,,,,,,,,,,,,,,,,,,,,,48,2.4427,1,0,21,21,1,1,6,×,8,6 × 8,neutral,smallerFirst,1.5,1.5,48,,,,,,,,
,,,,,,,,,,,,,,,819,2022-01-14_14h14.06.455,multiplicationStroop,2021.2.3,Win32,60.17209218,,,,,,,,,,,,,,,,,,,,,,,,,,,,,,,,,63,2.7921,1,0,22,22,26,1,9,×,7,9 × 7,neutral,largerFirst,1.5,1.5,63,,,,,,,,
,,,,,,,,,,,,,,,819,2022-01-14_14h14.06.455,multiplicationStroop,2021.2.3,Win32,60.17209218,,,,,,,,,,,,,,,,,,,,,,,,,,,,,,,,,30,2.7258,1,0,23,23,5,1,5,×,6,5 × 6,neutral,smallerFirst,1.5,1.5,30,,,,,,,,
,,,,,,,,,,,,,,,819,2022-01-14_14h14.06.455,multiplicationStroop,2021.2.3,Win32,60.17209218,,,,,,,,,,,,,,,,,,,,,,,,,,,,,,,,,20,1.8588,1,0,24,24,6,1,4,×,5,4 × 5,neutral,smallerFirst,1.5,1.5,20,,,,,,,,
,,,,,,,,,,,,,,,819,2022-01-14_14h14.06.455,multiplicationStroop,2021.2.3,Win32,60.17209218,,,,,,,,,,,,,,,,,,,,,,,,,,,,,,,,,25,2.095,1,0,25,25,31,1,5,×,5,5 × 5,neutral,tie,1.5,1.5,25,,,,,,,,
,,,,,,,,,,,,,,,819,2022-01-14_14h14.06.455,multiplicationStroop,2021.2.3,Win32,60.17209218,,,,,,,,,,,,,,,,,,,,,,,,,,,,,,,,,36,2.2083,1,0,26,26,32,1,6,×,6,6 × 6,neutral,tie,1.5,1.5,36,,,,,,,,
,,,,,,,,,,,,,,,819,2022-01-14_14h14.06.455,multiplicationStroop,2021.2.3,Win32,60.17209218,,,,,,,,,,,,,,,,,,,,,,,,,,,,,,,,,18,2.0933,1,0,27,27,4,1,2,×,9,2 × 9,neutral,smallerFirst,1.5,1.5,18,,,,,,,,
,,,,,,,,,,,,,,,819,2022-01-14_14h14.06.455,multiplicationStroop,2021.2.3,Win32,60.17209218,,,,,,,,,,,,,,,,,,,,,,,,,,,,,,,,,56,2.0095,1,0,28,28,23,1,8,×,7,8 × 7,neutral,largerFirst,1.5,1.5,56,,,,,,,,
,,,,,,,,,,,,,,,819,2022-01-14_14h14.06.455,multiplicationStroop,2021.2.3,Win32,60.17209218,,,,,,,,,,,,,,,,,,,,,,,,,,,,,,,,,16,1.8926,1,0,29,29,30,1,4,×,4,4 × 4,neutral,tie,1.5,1.5,16,,,,,,,,
,,,,,,,,,,,,,,,819,2022-01-14_14h14.06.455,multiplicationStroop,2021.2.3,Win32,60.17209218,,,,,,,,,,,,,,,,,,,,,,,,,,,,,,,,,21,1.8432,1,0,30,30,22,1,7,×,3,7 × 3,neutral,largerFirst,1.5,1.5,21,,,,,,,,
,,,,,,,,,,,,,,,819,2022-01-14_14h14.06.455,multiplicationStroop,2021.2.3,Win32,60.17209218,,,,,,,,,,,,,,,,,,,,,,,,,,,,,,,,,45,2.658,1,0,31,31,24,1,9,×,5,9 × 5,neutral,largerFirst,1.5,1.5,45,,,,,,,,
,,,,,,,,,,,,,,,819,2022-01-14_14h14.06.455,multiplicationStroop,2021.2.3,Win32,60.17209218,,,,,,,,,,,,,,,,,,,,,,,,,,,,,,,,,28,2.1254,1,0,32,32,3,1,4,×,7,4 × 7,neutral,smallerFirst,1.5,1.5,28,,,,,,,,
,,,,,,,,,,,,,,,819,2022-01-14_14h14.06.455,multiplicationStroop,2021.2.3,Win32,60.17209218,,,,,,,,,,,,,,,,,,,,,,,,,,,,,,,,,6,1.9101,1,0,33,33,12,1,2,×,3,2 × 3,neutral,smallerFirst,1.5,1.5,6,,,,,,,,
,,,,,,,,,,,,,,,819,2022-01-14_14h14.06.455,multiplicationStroop,2021.2.3,Win32,60.17209218,,,,,,,,,,,,,,,,,,,,,,,,,,,,,,,,,72,2.3575,1,0,34,34,25,1,9,×,8,9 × 8,neutral,largerFirst,1.5,1.5,72,,,,,,,,
,,,,,,,,,,,,,,,819,2022-01-14_14h14.06.455,multiplicationStroop,2021.2.3,Win32,60.17209218,,,,,,,,,,,,,,,,,,,,,,,,,,,,,,,,,9,1.8437,1,0,35,35,29,1,3,×,3,3 × 3,neutral,tie,1.5,1.5,9,,,,,,,,
,,,,,,,,,,,,,,,819,2022-01-14_14h14.06.455,multiplicationStroop,2021.2.3,Win32,60.17209218,,,,,,,,,,,,,,,,,,,,,,,,,,,,,,,,,,,,,,,,,,,,,,,,,,0,4,4,0,1,stimulusFile/mult_blk1.xlsx,,
,,,,,,,,,,,,,,,819,2022-01-14_14h14.06.455,multiplicationStroop,2021.2.3,Win32,60.17209218,,,,,,,,,,,,,,,,,,,,,,,,,,,,,,,space,1.4201,48,2.6994,1,0,0,0,18,1,8,×,6,8 × 6,congruent,largerFirst,2,1,48,,,,,,,,
,,,,,,,,,,,,,,,819,2022-01-14_14h14.06.455,multiplicationStroop,2021.2.3,Win32,60.17209218,,,,,,,,,,,,,,,,,,,,,,,,,,,,,,,,,81,3.5882,1,0,1,1,35,1,9,×,9,9 × 9,neutral,tie,2,1,81,,,,,,,,
,,,,,,,,,,,,,,,819,2022-01-14_14h14.06.455,multiplicationStroop,2021.2.3,Win32,60.17209218,,,,,,,,,,,,,,,,,,,,,,,,,,,,,,,,,28,3.0393,1,0,2,2,27,1,7,×,4,7 × 4,congruent,largerFirst,2,1,28,,,,,,,,
,,,,,,,,,,,,,,,819,2022-01-14_14h14.06.455,multiplicationStroop,2021.2.3,Win32,60.17209218,,,,,,,,,,,,,,,,,,,,,,,,,,,,,,,,,4,1.394,1,0,3,3,28,1,2,×,2,2 × 2,neutral,tie,2,1,4,,,,,,,,
,,,,,,,,,,,,,,,819,2022-01-14_14h14.06.455,multiplicationStroop,2021.2.3,Win32,60.17209218,,,,,,,,,,,,,,,,,,,,,,,,,,,,,,,,,24,1.8928,1,0,4,4,25,1,6,×,4,6 × 4,congruent,largerFirst,2,1,24,,,,,,,,
,,,,,,,,,,,,,,,819,2022-01-14_14h14.06.455,multiplicationStroop,2021.2.3,Win32,60.17209218,,,,,,,,,,,,,,,,,,,,,,,,,,,,,,,,,30,1.8597,1,0,5,5,15,1,6,×,5,6 × 5,congruent,largerFirst,2,1,30,,,,,,,,
,,,,,,,,,,,,,,,819,2022-01-14_14h14.06.455,multiplicationStroop,2021.2.3,Win32,60.17209218,,,,,,,,,,,,,,,,,,,,,,,,,,,,,,,,,8,1.8937,1,0,6,6,9,1,2,×,4,2 × 4,congruent,smallerFirst,1,2,8,,,,,,,,
,,,,,,,,,,,,,,,819,2022-01-14_14h14.06.455,multiplicationStroop,2021.2.3,Win32,60.17209218,,,,,,,,,,,,,,,,,,,,,,,,,,,,,,,,,32,2.5747,1,0,7,7,20,1,8,×,4,8 × 4,congruent,largerFirst,2,1,32,,,,,,,,
,,,,,,,,,,,,,,,819,2022-01-14_14h14.06.455,multiplicationStroop,2021.2.3,Win32,60.17209218,,,,,,,,,,,,,,,,,,,,,,,,,,,,,,,,,16,1.8932,1,0,8,8,30,1,4,×,4,4 × 4,neutral,tie,2,1,16,,,,,,,,
,,,,,,,,,,,,,,,819,2022-01-14_14h14.06.455,multiplicationStroop,2021.2.3,Win32,60.17209218,,,,,,,,,,,,,,,,,,,,,,,,,,,,,,,,,16,2.3087,1,0,9,9,5,1,2,×,8,2 × 8,congruent,smallerFirst,1,2,16,,,,,,,,
,,,,,,,,,,,,,,,819,2022-01-14_14h14.06.455,multiplicationStroop,2021.2.3,Win32,60.17209218,,,,,,,,,,,,,,,,,,,,,,,,,,,,,,,,,24,4.1698,1,0,10,10,10,1,3,×,8,3 × 8,congruent,smallerFirst,1,2,24,,,,,,,,
,,,,,,,,,,,,,,,819,2022-01-14_14h14.06.455,multiplicationStroop,2021.2.3,Win32,60.17209218,,,,,,,,,,,,,,,,,,,,,,,,,,,,,,,,,35,1.9581,1,0,11,11,1,1,5,×,7,5 × 7,congruent,smallerFirst,1,2,35,,,,,,,,
,,,,,,,,,,,,,,,819,2022-01-14_14h14.06.455,multiplicationStroop,2021.2.3,Win32,60.17209218,,,,,,,,,,,,,,,,,,,,,,,,,,,,,,,,,64,2.7071,1,0,12,12,34,1,8,×,8,8 × 8,neutral,tie,2,1,64,,,,,,,,
,,,,,,,,,,,,,,,819,2022-01-14_14h14.06.455,multiplicationStroop,2021.2.3,Win32,60.17209218,,,,,,,,,,,,,,,,,,,,,,,,,,,,,,,,,63,2.5924,1,0,13,13,21,1,9,×,7,9 × 7,congruent,largerFirst,2,1,63,,,,,,,,
,,,,,,,,,,,,,,,819,2022-01-14_14h14.06.455,multiplicationStroop,2021.2.3,Win32,60.17209218,,,,,,,,,,,,,,,,,,,,,,,,,,,,,,,,,18,2.0598,1,0,14,14,11,1,3,×,6,3 × 6,congruent,smallerFirst,1,2,18,,,,,,,,
,,,,,,,,,,,,,,,819,2022-01-14_14h14.06.455,multiplicationStroop,2021.2.3,Win32,60.17209218,,,,,,,,,,,,,,,,,,,,,,,,,,,,,,,,,21,1.8096,1,0,15,15,16,1,7,×,3,7 × 3,congruent,largerFirst,2,1,21,,,,,,,,
,,,,,,,,,,,,,,,819,2022-01-14_14h14.06.455,multiplicationStroop,2021.2.3,Win32,60.17209218,,,,,,,,,,,,,,,,,,,,,,,,,,,,,,,,,27,2.1757,1,0,16,16,26,1,9,×,3,9 × 3,congruent,largerFirst,2,1,27,,,,,,,,
,,,,,,,,,,,,,,,819,2022-01-14_14h14.06.455,multiplicationStroop,2021.2.3,Win32,60.17209218,,,,,,,,,,,,,,,,,,,,,,,,,,,,,,,,,12,1.7934,1,0,17,17,2,1,3,×,4,3 × 4,congruent,smallerFirst,1,2,12,,,,,,,,
,,,,,,,,,,,,,,,819,2022-01-14_14h14.06.455,multiplicationStroop,2021.2.3,Win32,60.17209218,,,,,,,,,,,,,,,,,,,,,,,,,,,,,,,,,18,2.0088,1,0,18,18,22,1,9,×,2,9 × 2,congruent,largerFirst,2,1,18,,,,,,,,
,,,,,,,,,,,,,,,819,2022-01-14_14h14.06.455,multiplicationStroop,2021.2.3,Win32,60.17209218,,,,,,,,,,,,,,,,,,,,,,,,,,,,,,,,,10,1.9608,1,0,19,19,24,1,5,×,2,5 × 2,congruent,largerFirst,2,1,10,,,,,,,,
,,,,,,,,,,,,,,,819,2022-01-14_14h14.06.455,multiplicationStroop,2021.2.3,Win32,60.17209218,,,,,,,,,,,,,,,,,,,,,,,,,,,,,,,,,56,2.1754,1,0,20,20,8,1,7,×,8,7 × 8,congruent,smallerFirst,1,2,56,,,,,,,,
,,,,,,,,,,,,,,,819,2022-01-14_14h14.06.455,multiplicationStroop,2021.2.3,Win32,60.17209218,,,,,,,,,,,,,,,,,,,,,,,,,,,,,,,,,54,2.1427,1,0,21,21,12,1,6,×,9,6 × 9,congruent,smallerFirst,1,2,54,,,,,,,,
,,,,,,,,,,,,,,,819,2022-01-14_14h14.06.455,multiplicationStroop,2021.2.3,Win32,60.17209218,,,,,,,,,,,,,,,,,,,,,,,,,,,,,,,,,6,2.0092,1,0,22,22,13,1,2,×,3,2 × 3,congruent,smallerFirst,1,2,6,,,,,,,,
,,,,,,,,,,,,,,,819,2022-01-14_14h14.06.455,multiplicationStroop,2021.2.3,Win32,60.17209218,,,,,,,,,,,,,,,,,,,,,,,,,,,,,,,,,36,3.7546,1,0,23,23,0,1,4,×,9,4 × 9,congruent,smallerFirst,1,2,36,,,,,,,,
,,,,,,,,,,,,,,,819,2022-01-14_14h14.06.455,multiplicationStroop,2021.2.3,Win32,60.17209218,,,,,,,,,,,,,,,,,,,,,,,,,,,,,,,,,9,1.8593,1,0,24,24,29,1,3,×,3,3 × 3,neutral,tie,2,1,9,,,,,,,,
,,,,,,,,,,,,,,,819,2022-01-14_14h14.06.455,multiplicationStroop,2021.2.3,Win32,60.17209218,,,,,,,,,,,,,,,,,,,,,,,,,,,,,,,,,15,2.0941,1,0,25,25,4,1,3,×,5,3 × 5,congruent,smallerFirst,1,2,15,,,,,,,,
,,,,,,,,,,,,,,,819,2022-01-14_14h14.06.455,multiplicationStroop,2021.2.3,Win32,60.17209218,,,,,,,,,,,,,,,,,,,,,,,,,,,,,,,,,72,3.1396,1,0,26,26,17,1,9,×,8,9 × 8,congruent,largerFirst,2,1,72,,,,,,,,
,,,,,,,,,,,,,,,819,2022-01-14_14h14.06.455,multiplicationStroop,2021.2.3,Win32,60.17209218,,,,,,,,,,,,,,,,,,,,,,,,,,,,,,,,,45,2.7741,1,0,27,27,23,1,9,×,5,9 × 5,congruent,largerFirst,2,1,45,,,,,,,,
,,,,,,,,,,,,,,,819,2022-01-14_14h14.06.455,multiplicationStroop,2021.2.3,Win32,60.17209218,,,,,,,,,,,,,,,,,,,,,,,,,,,,,,,,,36,2.1751,1,0,28,28,32,1,6,×,6,6 × 6,neutral,tie,2,1,36,,,,,,,,
,,,,,,,,,,,,,,,819,2022-01-14_14h14.06.455,multiplicationStroop,2021.2.3,Win32,60.17209218,,,,,,,,,,,,,,,,,,,,,,,,,,,,,,,,,12,1.81,1,0,29,29,19,1,6,×,2,6 × 2,congruent,largerFirst,2,1,12,,,,,,,,
,,,,,,,,,,,,,,,819,2022-01-14_14h14.06.455,multiplicationStroop,2021.2.3,Win32,60.17209218,,,,,,,,,,,,,,,,,,,,,,,,,,,,,,,,,20,2.0132,1,0,30,30,7,1,4,×,5,4 × 5,congruent,smallerFirst,1,2,20,,,,,,,,
,,,,,,,,,,,,,,,819,2022-01-14_14h14.06.455,multiplicationStroop,2021.2.3,Win32,60.17209218,,,,,,,,,,,,,,,,,,,,,,,,,,,,,,,,,49,2.0568,1,0,31,31,33,1,7,×,7,7 × 7,neutral,tie,2,1,49,,,,,,,,
,,,,,,,,,,,,,,,819,2022-01-14_14h14.06.455,multiplicationStroop,2021.2.3,Win32,60.17209218,,,,,,,,,,,,,,,,,,,,,,,,,,,,,,,,,25,1.8101,1,0,32,32,31,1,5,×,5,5 × 5,neutral,tie,2,1,25,,,,,,,,
,,,,,,,,,,,,,,,819,2022-01-14_14h14.06.455,multiplicationStroop,2021.2.3,Win32,60.17209218,,,,,,,,,,,,,,,,,,,,,,,,,,,,,,,,,40,1.8932,1,0,33,33,6,1,5,×,8,5 × 8,congruent,smallerFirst,1,2,40,,,,,,,,
,,,,,,,,,,,,,,,819,2022-01-14_14h14.06.455,multiplicationStroop,2021.2.3,Win32,60.17209218,,,,,,,,,,,,,,,,,,,,,,,,,,,,,,,,,12,1.8096,0,0,34,34,14,1,7,×,2,7 × 2,congruent,largerFirst,2,1,14,,,,,,,,
,,,,,,,,,,,,,,,819,2022-01-14_14h14.06.455,multiplicationStroop,2021.2.3,Win32,60.17209218,,,,,,,,,,,,,,,,,,,,,,,,,,,,,,,,,42,1.8927,1,0,35,35,3,1,6,×,7,6 × 7,congruent,smallerFirst,1,2,42,,,,,,,,
,,,,,,,,,,,,,,,819,2022-01-14_14h14.06.455,multiplicationStroop,2021.2.3,Win32,60.17209218,,,,,,,,,,,,,,,,,,,,,,,,,,,,,,,,,,,,,,,,,,,,,,,,,,0,5,5,2,1,stimulusFile/mult_blk3_congruent.xlsx,,
,,,,,,,,,,,,,,,819,2022-01-14_14h14.06.455,multiplicationStroop,2021.2.3,Win32,60.17209218,,,,,,,,,,,,,,,,,,,,,,,,,,,,,,,,,,,,,,,,,,,,,,,,,,,,,,,,space,10.8018