welcomeKey_resp.keys,welcomeKey_resp.rt,X Scale,Y Scale,rt_resp_4.keys,rt_resp_4.corr,rt_resp_4.rt,speedtest_2.thisRepN,speedtest_2.thisTrialN,speedtest_2.thisN,speedtest_2.thisIndex,speedtest_2.ran,numberSc,posX,positionLayout,participant,date,expName,psychopyVersion,OS,frameRate,ct_instrresp.keys,ct_instrresp.rt,key_resp_2.keys,key_resp_2.rt,ct_keyResp.keys,ct_keyResp.corr,ct_keyResp.rt,trials.thisRepN,trials.thisTrialN,trials.thisN,trials.thisIndex,trials.ran,leftNo,rightNo,displayProblem,numDistance,leftNo_size,rightNo_size,Dims,keyAnswer,TS_Loop.thisRepN,TS_Loop.thisTrialN,TS_Loop.thisN,TS_Loop.thisIndex,TS_Loop.ran,Condition,ActionInst,instrImage,mltptaskInst_resp.keys,mltptaskInst_resp.rt,continue_resp_2.keys,continue_resp_2.rt,multp_Answer,multi_RT,multiplyCorr,LoopingMultiply.thisRepN,LoopingMultiply.thisTrialN,LoopingMultiply.thisN,LoopingMultiply.thisIndex,LoopingMultiply.ran,factor1,multiplySign,factor2,multliplyProblem,physicalSize,orderOperand,sizeF1,sizeF2,mult_answer,trials_stroop.thisRepN,trials_stroop.thisTrialN,trials_stroop.thisN,trials_stroop.thisIndex,trials_stroop.ran,multiplicationFile,esckey_resp_2.keys,esckey_resp_2.rt
y,5.869,54.3,52.9,left,1,0.4776,0,0,0,5,1,7,-200,left,820,2022-01-15_09h53.36.632,multiplicationStroop,2021.2.3,Win32,57.2672088,,,,,,,,,,,,,,,,,,,,,,,,,,,,,,,,,,,,,,,,,,,,,,,,,,,,,,,,,
,,,,left,1,0.4529,0,1,1,3,1,4,-200,left,820,2022-01-15_09h53.36.632,multiplicationStroop,2021.2.3,Win32,57.2672088,,,,,,,,,,,,,,,,,,,,,,,,,,,,,,,,,,,,,,,,,,,,,,,,,,,,,,,,,
,,,,right,1,0.3421,0,2,2,15,1,9,200,right,820,2022-01-15_09h53.36.632,multiplicationStroop,2021.2.3,Win32,57.2672088,,,,,,,,,,,,,,,,,,,,,,,,,,,,,,,,,,,,,,,,,,,,,,,,,,,,,,,,,
,,,,left,1,0.3411,0,3,3,1,1,2,-200,left,820,2022-01-15_09h53.36.632,multiplicationStroop,2021.2.3,Win32,57.2672088,,,,,,,,,,,,,,,,,,,,,,,,,,,,,,,,,,,,,,,,,,,,,,,,,,,,,,,,,
,,,,right,1,0.3154,0,4,4,14,1,8,200,right,820,2022-01-15_09h53.36.632,multiplicationStroop,2021.2.3,Win32,57.2672088,,,,,,,,,,,,,,,,,,,,,,,,,,,,,,,,,,,,,,,,,,,,,,,,,,,,,,,,,
,,,,left,1,0.3482,0,5,5,0,1,1,-200,left,820,2022-01-15_09h53.36.632,multiplicationStroop,2021.2.3,Win32,57.2672088,,,,,,,,,,,,,,,,,,,,,,,,,,,,,,,,,,,,,,,,,,,,,,,,,,,,,,,,,
,,,,left,1,0.3329,0,6,6,6,1,8,-200,left,820,2022-01-15_09h53.36.632,multiplicationStroop,2021.2.3,Win32,57.2672088,,,,,,,,,,,,,,,,,,,,,,,,,,,,,,,,,,,,,,,,,,,,,,,,,,,,,,,,,
,,,,left,1,0.3006,0,7,7,7,1,9,-200,left,820,2022-01-15_09h53.36.632,multiplicationStroop,2021.2.3,Win32,57.2672088,,,,,,,,,,,,,,,,,,,,,,,,,,,,,,,,,,,,,,,,,,,,,,,,,,,,,,,,,
,,,,right,1,0.334,0,8,8,11,1,4,200,right,820,2022-01-15_09h53.36.632,multiplicationStroop,2021.2.3,Win32,57.2672088,,,,,,,,,,,,,,,,,,,,,,,,,,,,,,,,,,,,,,,,,,,,,,,,,,,,,,,,,
,,,,right,1,0.3519,0,9,9,12,1,6,200,right,820,2022-01-15_09h53.36.632,multiplicationStroop,2021.2.3,Win32,57.2672088,,,,,,,,,,,,,,,,,,,,,,,,,,,,,,,,,,,,,,,,,,,,,,,,,,,,,,,,,
,,,,right,1,0.3174,0,10,10,8,1,1,200,right,820,2022-01-15_09h53.36.632,multiplicationStroop,2021.2.3,Win32,57.2672088,,,,,,,,,,,,,,,,,,,,,,,,,,,,,,,,,,,,,,,,,,,,,,,,,,,,,,,,,
,,,,left,1,0.3215,0,11,11,4,1,6,-200,left,820,2022-01-15_09h53.36.632,multiplicationStroop,2021.2.3,Win32,57.2672088,,,,,,,,,,,,,,,,,,,,,,,,,,,,,,,,,,,,,,,,,,,,,,,,,,,,,,,,,
,,,,right,1,0.2996,0,12,12,13,1,7,200,right,820,2022-01-15_09h53.36.632,multiplicationStroop,2021.2.3,Win32,57.2672088,,,,,,,,,,,,,,,,,,,,,,,,,,,,,,,,,,,,,,,,,,,,,,,,,,,,,,,,,
,,,,right,1,0.3855,0,13,13,9,1,2,200,right,820,2022-01-15_09h53.36.632,multiplicationStroop,2021.2.3,Win32,57.2672088,,,,,,,,,,,,,,,,,,,,,,,,,,,,,,,,,,,,,,,,,,,,,,,,,,,,,,,,,
,,,,right,1,0.3511,0,14,14,10,1,3,200,right,820,2022-01-15_09h53.36.632,multiplicationStroop,2021.2.3,Win32,57.2672088,,,,,,,,,,,,,,,,,,,,,,,,,,,,,,,,,,,,,,,,,,,,,,,,,,,,,,,,,
,,,,left,1,0.3192,0,15,15,2,1,3,-200,left,820,2022-01-15_09h53.36.632,multiplicationStroop,2021.2.3,Win32,57.2672088,,,,,,,,,,,,,,,,,,,,,,,,,,,,,,,,,,,,,,,,,,,,,,,,,,,,,,,,,
,,,,right,1,0.289,1,0,16,14,1,8,200,right,820,2022-01-15_09h53.36.632,multiplicationStroop,2021.2.3,Win32,57.2672088,,,,,,,,,,,,,,,,,,,,,,,,,,,,,,,,,,,,,,,,,,,,,,,,,,,,,,,,,
,,,,left,1,0.2829,1,1,17,3,1,4,-200,left,820,2022-01-15_09h53.36.632,multiplicationStroop,2021.2.3,Win32,57.2672088,,,,,,,,,,,,,,,,,,,,,,,,,,,,,,,,,,,,,,,,,,,,,,,,,,,,,,,,,
,,,,right,1,0.2336,1,2,18,12,1,6,200,right,820,2022-01-15_09h53.36.632,multiplicationStroop,2021.2.3,Win32,57.2672088,,,,,,,,,,,,,,,,,,,,,,,,,,,,,,,,,,,,,,,,,,,,,,,,,,,,,,,,,
,,,,left,1,0.3003,1,3,19,2,1,3,-200,left,820,2022-01-15_09h53.36.632,multiplicationStroop,2021.2.3,Win32,57.2672088,,,,,,,,,,,,,,,,,,,,,,,,,,,,,,,,,,,,,,,,,,,,,,,,,,,,,,,,,
,,,,right,1,0.2819,1,4,20,10,1,3,200,right,820,2022-01-15_09h53.36.632,multiplicationStroop,2021.2.3,Win32,57.2672088,,,,,,,,,,,,,,,,,,,,,,,,,,,,,,,,,,,,,,,,,,,,,,,,,,,,,,,,,
,,,,right,1,0.3541,1,5,21,15,1,9,200,right,820,2022-01-15_09h53.36.632,multiplicationStroop,2021.2.3,Win32,57.2672088,,,,,,,,,,,,,,,,,,,,,,,,,,,,,,,,,,,,,,,,,,,,,,,,,,,,,,,,,
,,,,left,1,0.2978,1,6,22,5,1,7,-200,left,820,2022-01-15_09h53.36.632,multiplicationStroop,2021.2.3,Win32,57.2672088,,,,,,,,,,,,,,,,,,,,,,,,,,,,,,,,,,,,,,,,,,,,,,,,,,,,,,,,,
,,,,right,1,0.286,1,7,23,13,1,7,200,right,820,2022-01-15_09h53.36.632,multiplicationStroop,2021.2.3,Win32,57.2672088,,,,,,,,,,,,,,,,,,,,,,,,,,,,,,,,,,,,,,,,,,,,,,,,,,,,,,,,,
,,,,left,1,0.2679,1,8,24,1,1,2,-200,left,820,2022-01-15_09h53.36.632,multiplicationStroop,2021.2.3,Win32,57.2672088,,,,,,,,,,,,,,,,,,,,,,,,,,,,,,,,,,,,,,,,,,,,,,,,,,,,,,,,,
,,,,right,1,0.2908,1,9,25,9,1,2,200,right,820,2022-01-15_09h53.36.632,multiplicationStroop,2021.2.3,Win32,57.2672088,,,,,,,,,,,,,,,,,,,,,,,,,,,,,,,,,,,,,,,,,,,,,,,,,,,,,,,,,
,,,,left,1,0.2997,1,10,26,4,1,6,-200,left,820,2022-01-15_09h53.36.632,multiplicationStroop,2021.2.3,Win32,57.2672088,,,,,,,,,,,,,,,,,,,,,,,,,,,,,,,,,,,,,,,,,,,,,,,,,,,,,,,,,
,,,,left,1,0.4389,1,11,27,6,1,8,-200,left,820,2022-01-15_09h53.36.632,multiplicationStroop,2021.2.3,Win32,57.2672088,,,,,,,,,,,,,,,,,,,,,,,,,,,,,,,,,,,,,,,,,,,,,,,,,,,,,,,,,
,,,,left,1,0.283,1,12,28,0,1,1,-200,left,820,2022-01-15_09h53.36.632,multiplicationStroop,2021.2.3,Win32,57.2672088,,,,,,,,,,,,,,,,,,,,,,,,,,,,,,,,,,,,,,,,,,,,,,,,,,,,,,,,,
,,,,right,1,0.3313,1,13,29,8,1,1,200,right,820,2022-01-15_09h53.36.632,multiplicationStroop,2021.2.3,Win32,57.2672088,,,,,,,,,,,,,,,,,,,,,,,,,,,,,,,,,,,,,,,,,,,,,,,,,,,,,,,,,
,,,,right,1,0.3552,1,14,30,11,1,4,200,right,820,2022-01-15_09h53.36.632,multiplicationStroop,2021.2.3,Win32,57.2672088,,,,,,,,,,,,,,,,,,,,,,,,,,,,,,,,,,,,,,,,,,,,,,,,,,,,,,,,,
,,,,left,1,0.266,1,15,31,7,1,9,-200,left,820,2022-01-15_09h53.36.632,multiplicationStroop,2021.2.3,Win32,57.2672088,,,,,,,,,,,,,,,,,,,,,,,,,,,,,,,,,,,,,,,,,,,,,,,,,,,,,,,,,
,,,,left,1,0.373,2,0,32,0,1,1,-200,left,820,2022-01-15_09h53.36.632,multiplicationStroop,2021.2.3,Win32,57.2672088,,,,,,,,,,,,,,,,,,,,,,,,,,,,,,,,,,,,,,,,,,,,,,,,,,,,,,,,,
,,,,left,1,0.2809,2,1,33,3,1,4,-200,left,820,2022-01-15_09h53.36.632,multiplicationStroop,2021.2.3,Win32,57.2672088,,,,,,,,,,,,,,,,,,,,,,,,,,,,,,,,,,,,,,,,,,,,,,,,,,,,,,,,,
,,,,right,1,0.2977,2,2,34,13,1,7,200,right,820,2022-01-15_09h53.36.632,multiplicationStroop,2021.2.3,Win32,57.2672088,,,,,,,,,,,,,,,,,,,,,,,,,,,,,,,,,,,,,,,,,,,,,,,,,,,,,,,,,
,,,,right,1,0.358,2,3,35,9,1,2,200,right,820,2022-01-15_09h53.36.632,multiplicationStroop,2021.2.3,Win32,57.2672088,,,,,,,,,,,,,,,,,,,,,,,,,,,,,,,,,,,,,,,,,,,,,,,,,,,,,,,,,
,,,,right,1,0.2838,2,4,36,14,1,8,200,right,820,2022-01-15_09h53.36.632,multiplicationStroop,2021.2.3,Win32,57.2672088,,,,,,,,,,,,,,,,,,,,,,,,,,,,,,,,,,,,,,,,,,,,,,,,,,,,,,,,,
,,,,left,1,0.3153,2,5,37,2,1,3,-200,left,820,2022-01-15_09h53.36.632,multiplicationStroop,2021.2.3,Win32,57.2672088,,,,,,,,,,,,,,,,,,,,,,,,,,,,,,,,,,,,,,,,,,,,,,,,,,,,,,,,,
,,,,left,1,0.2992,2,6,38,7,1,9,-200,left,820,2022-01-15_09h53.36.632,multiplicationStroop,2021.2.3,Win32,57.2672088,,,,,,,,,,,,,,,,,,,,,,,,,,,,,,,,,,,,,,,,,,,,,,,,,,,,,,,,,
,,,,left,1,0.2823,2,7,39,4,1,6,-200,left,820,2022-01-15_09h53.36.632,multiplicationStroop,2021.2.3,Win32,57.2672088,,,,,,,,,,,,,,,,,,,,,,,,,,,,,,,,,,,,,,,,,,,,,,,,,,,,,,,,,
,,,,right,1,0.3303,2,8,40,10,1,3,200,right,820,2022-01-15_09h53.36.632,multiplicationStroop,2021.2.3,Win32,57.2672088,,,,,,,,,,,,,,,,,,,,,,,,,,,,,,,,,,,,,,,,,,,,,,,,,,,,,,,,,
,,,,right,1,0.385,2,9,41,15,1,9,200,right,820,2022-01-15_09h53.36.632,multiplicationStroop,2021.2.3,Win32,57.2672088,,,,,,,,,,,,,,,,,,,,,,,,,,,,,,,,,,,,,,,,,,,,,,,,,,,,,,,,,
,,,,left,1,0.2703,2,10,42,1,1,2,-200,left,820,2022-01-15_09h53.36.632,multiplicationStroop,2021.2.3,Win32,57.2672088,,,,,,,,,,,,,,,,,,,,,,,,,,,,,,,,,,,,,,,,,,,,,,,,,,,,,,,,,
,,,,right,1,0.2685,2,11,43,12,1,6,200,right,820,2022-01-15_09h53.36.632,multiplicationStroop,2021.2.3,Win32,57.2672088,,,,,,,,,,,,,,,,,,,,,,,,,,,,,,,,,,,,,,,,,,,,,,,,,,,,,,,,,
,,,,right,1,0.3998,2,12,44,8,1,1,200,right,820,2022-01-15_09h53.36.632,multiplicationStroop,2021.2.3,Win32,57.2672088,,,,,,,,,,,,,,,,,,,,,,,,,,,,,,,,,,,,,,,,,,,,,,,,,,,,,,,,,
,,,,right,1,0.3191,2,13,45,11,1,4,200,right,820,2022-01-15_09h53.36.632,multiplicationStroop,2021.2.3,Win32,57.2672088,,,,,,,,,,,,,,,,,,,,,,,,,,,,,,,,,,,,,,,,,,,,,,,,,,,,,,,,,
,,,,left,1,0.3009,2,14,46,5,1,7,-200,left,820,2022-01-15_09h53.36.632,multiplicationStroop,2021.2.3,Win32,57.2672088,,,,,,,,,,,,,,,,,,,,,,,,,,,,,,,,,,,,,,,,,,,,,,,,,,,,,,,,,
,,,,left,1,0.3172,2,15,47,6,1,8,-200,left,820,2022-01-15_09h53.36.632,multiplicationStroop,2021.2.3,Win32,57.2672088,,,,,,,,,,,,,,,,,,,,,,,,,,,,,,,,,,,,,,,,,,,,,,,,,,,,,,,,,
,,,,right,1,0.3071,3,0,48,11,1,4,200,right,820,2022-01-15_09h53.36.632,multiplicationStroop,2021.2.3,Win32,57.2672088,,,,,,,,,,,,,,,,,,,,,,,,,,,,,,,,,,,,,,,,,,,,,,,,,,,,,,,,,
,,,,left,1,0.2713,3,1,49,6,1,8,-200,left,820,2022-01-15_09h53.36.632,multiplicationStroop,2021.2.3,Win32,57.2672088,,,,,,,,,,,,,,,,,,,,,,,,,,,,,,,,,,,,,,,,,,,,,,,,,,,,,,,,,
,,,,left,1,0.317,3,2,50,5,1,7,-200,left,820,2022-01-15_09h53.36.632,multiplicationStroop,2021.2.3,Win32,57.2672088,,,,,,,,,,,,,,,,,,,,,,,,,,,,,,,,,,,,,,,,,,,,,,,,,,,,,,,,,
,,,,right,1,0.2838,3,3,51,10,1,3,200,right,820,2022-01-15_09h53.36.632,multiplicationStroop,2021.2.3,Win32,57.2672088,,,,,,,,,,,,,,,,,,,,,,,,,,,,,,,,,,,,,,,,,,,,,,,,,,,,,,,,,
,,,,left,1,0.2999,3,4,52,1,1,2,-200,left,820,2022-01-15_09h53.36.632,multiplicationStroop,2021.2.3,Win32,57.2672088,,,,,,,,,,,,,,,,,,,,,,,,,,,,,,,,,,,,,,,,,,,,,,,,,,,,,,,,,
,,,,left,1,0.2711,3,5,53,7,1,9,-200,left,820,2022-01-15_09h53.36.632,multiplicationStroop,2021.2.3,Win32,57.2672088,,,,,,,,,,,,,,,,,,,,,,,,,,,,,,,,,,,,,,,,,,,,,,,,,,,,,,,,,
,,,,right,1,0.2984,3,6,54,12,1,6,200,right,820,2022-01-15_09h53.36.632,multiplicationStroop,2021.2.3,Win32,57.2672088,,,,,,,,,,,,,,,,,,,,,,,,,,,,,,,,,,,,,,,,,,,,,,,,,,,,,,,,,
,,,,left,1,0.2532,3,7,55,2,1,3,-200,left,820,2022-01-15_09h53.36.632,multiplicationStroop,2021.2.3,Win32,57.2672088,,,,,,,,,,,,,,,,,,,,,,,,,,,,,,,,,,,,,,,,,,,,,,,,,,,,,,,,,
,,,,right,1,0.3015,3,8,56,9,1,2,200,right,820,2022-01-15_09h53.36.632,multiplicationStroop,2021.2.3,Win32,57.2672088,,,,,,,,,,,,,,,,,,,,,,,,,,,,,,,,,,,,,,,,,,,,,,,,,,,,,,,,,
,,,,right,1,0.3231,3,9,57,13,1,7,200,right,820,2022-01-15_09h53.36.632,multiplicationStroop,2021.2.3,Win32,57.2672088,,,,,,,,,,,,,,,,,,,,,,,,,,,,,,,,,,,,,,,,,,,,,,,,,,,,,,,,,
,,,,left,1,0.2836,3,10,58,3,1,4,-200,left,820,2022-01-15_09h53.36.632,multiplicationStroop,2021.2.3,Win32,57.2672088,,,,,,,,,,,,,,,,,,,,,,,,,,,,,,,,,,,,,,,,,,,,,,,,,,,,,,,,,
,,,,left,1,0.3169,3,11,59,4,1,6,-200,left,820,2022-01-15_09h53.36.632,multiplicationStroop,2021.2.3,Win32,57.2672088,,,,,,,,,,,,,,,,,,,,,,,,,,,,,,,,,,,,,,,,,,,,,,,,,,,,,,,,,
,,,,left,1,0.2832,3,12,60,0,1,1,-200,left,820,2022-01-15_09h53.36.632,multiplicationStroop,2021.2.3,Win32,57.2672088,,,,,,,,,,,,,,,,,,,,,,,,,,,,,,,,,,,,,,,,,,,,,,,,,,,,,,,,,
,,,,right,1,0.281,3,13,61,14,1,8,200,right,820,2022-01-15_09h53.36.632,multiplicationStroop,2021.2.3,Win32,57.2672088,,,,,,,,,,,,,,,,,,,,,,,,,,,,,,,,,,,,,,,,,,,,,,,,,,,,,,,,,
,,,,right,1,0.3513,3,14,62,15,1,9,200,right,820,2022-01-15_09h53.36.632,multiplicationStroop,2021.2.3,Win32,57.2672088,,,,,,,,,,,,,,,,,,,,,,,,,,,,,,,,,,,,,,,,,,,,,,,,,,,,,,,,,
,,,,right,1,0.2704,3,15,63,8,1,1,200,right,820,2022-01-15_09h53.36.632,multiplicationStroop,2021.2.3,Win32,57.2672088,,,,,,,,,,,,,,,,,,,,,,,,,,,,,,,,,,,,,,,,,,,,,,,,,,,,,,,,,
,,,,,,,,,,,,,,,820,2022-01-15_09h53.36.632,multiplicationStroop,2021.2.3,Win32,57.2672088,space,10.7854,space,4.2904,left,1,0.6893,0,0,0,25,1,3,4,3 | 4,1,1.9756,1.4111,incongruent,left,,,,,,stimulusFile/physical.xlsx,,,,,,,,,,,,,,,,,,,,,,,,,,,,,,,
,,,,,,,,,,,,,,,820,2022-01-15_09h53.36.632,multiplicationStroop,2021.2.3,Win32,57.2672088,,,,,left,1,0.4216,0,1,1,23,1,9,4,9 | 4,5,1.9756,1.4111,congruent,left,,,,,,stimulusFile/physical.xlsx,,,,,,,,,,,,,,,,,,,,,,,,,,,,,,,
,,,,,,,,,,,,,,,820,2022-01-15_09h53.36.632,multiplicationStroop,2021.2.3,Win32,57.2672088,,,,,left,1,0.4805,0,2,2,7,1,9,8,9 | 8,1,1.9756,1.4111,congruent,left,,,,,,stimulusFile/physical.xlsx,,,,,,,,,,,,,,,,,,,,,,,,,,,,,,,
,,,,,,,,,,,,,,,820,2022-01-15_09h53.36.632,multiplicationStroop,2021.2.3,Win32,57.2672088,,,,,left,1,0.4659,0,3,3,68,1,6,6,6 | 6,0,1.9756,1.4111,neutral,left,,,,,,stimulusFile/physical.xlsx,,,,,,,,,,,,,,,,,,,,,,,,,,,,,,,
,,,,,,,,,,,,,,,820,2022-01-15_09h53.36.632,multiplicationStroop,2021.2.3,Win32,57.2672088,,,,,right,0,0.5693,0,4,4,41,1,2,7,2 | 7,5,1.9756,1.4111,incongruent,left,,,,,,stimulusFile/physical.xlsx,,,,,,,,,,,,,,,,,,,,,,,,,,,,,,,
,,,,,,,,,,,,,,,820,2022-01-15_09h53.36.632,multiplicationStroop,2021.2.3,Win32,57.2672088,,,,,right,1,0.5549,0,5,5,63,1,9,9,9 | 9,0,1.4111,1.9756,neutral,right,,,,,,stimulusFile/physical.xlsx,,,,,,,,,,,,,,,,,,,,,,,,,,,,,,,
,,,,,,,,,,,,,,,820,2022-01-15_09h53.36.632,multiplicationStroop,2021.2.3,Win32,57.2672088,,,,,left,1,0.4934,0,6,6,22,1,8,3,8 | 3,5,1.9756,1.4111,congruent,left,,,,,,stimulusFile/physical.xlsx,,,,,,,,,,,,,,,,,,,,,,,,,,,,,,,
,,,,,,,,,,,,,,,820,2022-01-15_09h53.36.632,multiplicationStroop,2021.2.3,Win32,57.2672088,,,,,right,1,0.4687,0,7,7,56,1,1,1,1 | 1,0,1.4111,1.9756,neutral,right,,,,,,stimulusFile/physical.xlsx,,,,,,,,,,,,,,,,,,,,,,,,,,,,,,,
,,,,,,,,,,,,,,,820,2022-01-15_09h53.36.632,multiplicationStroop,2021.2.3,Win32,57.2672088,,,,,right,1,0.4864,0,8,8,59,1,7,7,7 | 7,0,1.4111,1.9756,neutral,right,,,,,,stimulusFile/physical.xlsx,,,,,,,,,,,,,,,,,,,,,,,,,,,,,,,
,,,,,,,,,,,,,,,820,2022-01-15_09h53.36.632,multiplicationStroop,2021.2.3,Win32,57.2672088,,,,,left,1,0.5161,0,9,9,55,1,9,9,9 | 9,0,1.9756,1.4111,neutral,left,,,,,,stimulusFile/physical.xlsx,,,,,,,,,,,,,,,,,,,,,,,,,,,,,,,
,,,,,,,,,,,,,,,820,2022-01-15_09h53.36.632,multiplicationStroop,2021.2.3,Win32,57.2672088,,,,,right,1,0.5083,0,10,10,17,1,2,7,2 | 7,5,1.4111,1.9756,congruent,right,,,,,,stimulusFile/physical.xlsx,,,,,,,,,,,,,,,,,,,,,,,,,,,,,,,
,,,,,,,,,,,,,,,820,2022-01-15_09h53.36.632,multiplicationStroop,2021.2.3,Win32,57.2672088,,,,,left,1,0.4987,0,11,11,24,1,1,2,1 | 2,1,1.9756,1.4111,incongruent,left,,,,,,stimulusFile/physical.xlsx,,,,,,,,,,,,,,,,,,,,,,,,,,,,,,,
,,,,,,,,,,,,,,,820,2022-01-15_09h53.36.632,multiplicationStroop,2021.2.3,Win32,57.2672088,,,,,left,1,0.3996,0,12,12,20,1,6,1,6 | 1,5,1.9756,1.4111,congruent,left,,,,,,stimulusFile/physical.xlsx,,,,,,,,,,,,,,,,,,,,,,,,,,,,,,,
,,,,,,,,,,,,,,,820,2022-01-15_09h53.36.632,multiplicationStroop,2021.2.3,Win32,57.2672088,,,,,right,1,0.4581,0,13,13,16,1,1,6,1 | 6,5,1.4111,1.9756,congruent,right,,,,,,stimulusFile/physical.xlsx,,,,,,,,,,,,,,,,,,,,,,,,,,,,,,,
,,,,,,,,,,,,,,,820,2022-01-15_09h53.36.632,multiplicationStroop,2021.2.3,Win32,57.2672088,,,,,right,1,0.5434,0,14,14,65,1,2,2,2 | 2,0,1.4111,1.9756,neutral,right,,,,,,stimulusFile/physical.xlsx,,,,,,,,,,,,,,,,,,,,,,,,,,,,,,,
,,,,,,,,,,,,,,,820,2022-01-15_09h53.36.632,multiplicationStroop,2021.2.3,Win32,57.2672088,,,,,left,1,0.4387,0,15,15,53,1,4,4,4 | 4,0,1.9756,1.4111,neutral,left,,,,,,stimulusFile/physical.xlsx,,,,,,,,,,,,,,,,,,,,,,,,,,,,,,,
,,,,,,,,,,,,,,,820,2022-01-15_09h53.36.632,multiplicationStroop,2021.2.3,Win32,57.2672088,,,,,right,1,0.6861,0,16,16,61,1,4,4,4 | 4,0,1.4111,1.9756,neutral,right,,,,,,stimulusFile/physical.xlsx,,,,,,,,,,,,,,,,,,,,,,,,,,,,,,,
,,,,,,,,,,,,,,,820,2022-01-15_09h53.36.632,multiplicationStroop,2021.2.3,Win32,57.2672088,,,,,right,1,0.5802,0,17,17,39,1,9,7,9 | 7,2,1.4111,1.9756,incongruent,right,,,,,,stimulusFile/physical.xlsx,,,,,,,,,,,,,,,,,,,,,,,,,,,,,,,
,,,,,,,,,,,,,,,820,2022-01-15_09h53.36.632,multiplicationStroop,2021.2.3,Win32,57.2672088,,,,,left,0,0.4821,0,18,18,64,1,1,1,1 | 1,0,1.9756,1.4111,neutral,right,,,,,,stimulusFile/physical.xlsx,,,,,,,,,,,,,,,,,,,,,,,,,,,,,,,
,,,,,,,,,,,,,,,820,2022-01-15_09h53.36.632,multiplicationStroop,2021.2.3,Win32,57.2672088,,,,,left,0,0.5353,0,19,19,66,1,3,3,3 | 3,0,1.9756,1.4111,neutral,right,,,,,,stimulusFile/physical.xlsx,,,,,,,,,,,,,,,,,,,,,,,,,,,,,,,
,,,,,,,,,,,,,,,820,2022-01-15_09h53.36.632,multiplicationStroop,2021.2.3,Win32,57.2672088,,,,,left,1,0.5528,0,20,20,43,1,4,9,4 | 9,5,1.9756,1.4111,incongruent,left,,,,,,stimulusFile/physical.xlsx,,,,,,,,,,,,,,,,,,,,,,,,,,,,,,,
,,,,,,,,,,,,,,,820,2022-01-15_09h53.36.632,multiplicationStroop,2021.2.3,Win32,57.2672088,,,,,right,1,0.4825,0,21,21,9,1,2,4,2 | 4,2,1.4111,1.9756,congruent,right,,,,,,stimulusFile/physical.xlsx,,,,,,,,,,,,,,,,,,,,,,,,,,,,,,,
,,,,,,,,,,,,,,,820,2022-01-15_09h53.36.632,multiplicationStroop,2021.2.3,Win32,57.2672088,,,,,right,1,0.5199,0,22,22,67,1,4,4,4 | 4,0,1.4111,1.9756,neutral,right,,,,,,stimulusFile/physical.xlsx,,,,,,,,,,,,,,,,,,,,,,,,,,,,,,,
,,,,,,,,,,,,,,,820,2022-01-15_09h53.36.632,multiplicationStroop,2021.2.3,Win32,57.2672088,,,,,right,1,0.4991,0,23,23,0,1,1,2,1 | 2,1,1.4111,1.9756,congruent,right,,,,,,stimulusFile/physical.xlsx,,,,,,,,,,,,,,,,,,,,,,,,,,,,,,,
,,,,,,,,,,,,,,,820,2022-01-15_09h53.36.632,multiplicationStroop,2021.2.3,Win32,57.2672088,,,,,right,1,0.5002,0,24,24,8,1,1,3,1 | 3,2,1.4111,1.9756,congruent,right,,,,,,stimulusFile/physical.xlsx,,,,,,,,,,,,,,,,,,,,,,,,,,,,,,,
,,,,,,,,,,,,,,,820,2022-01-15_09h53.36.632,multiplicationStroop,2021.2.3,Win32,57.2672088,,,,,left,1,0.4232,0,25,25,6,1,7,6,7 | 6,1,1.9756,1.4111,congruent,left,,,,,,stimulusFile/physical.xlsx,,,,,,,,,,,,,,,,,,,,,,,,,,,,,,,
,,,,,,,,,,,,,,,820,2022-01-15_09h53.36.632,multiplicationStroop,2021.2.3,Win32,57.2672088,,,,,left,1,0.5645,0,26,26,70,1,8,8,8 | 8,0,1.9756,1.4111,neutral,left,,,,,,stimulusFile/physical.xlsx,,,,,,,,,,,,,,,,,,,,,,,,,,,,,,,
,,,,,,,,,,,,,,,820,2022-01-15_09h53.36.632,multiplicationStroop,2021.2.3,Win32,57.2672088,,,,,right,1,0.5818,0,27,27,46,1,8,3,8 | 3,5,1.4111,1.9756,incongruent,right,,,,,,stimulusFile/physical.xlsx,,,,,,,,,,,,,,,,,,,,,,,,,,,,,,,
,,,,,,,,,,,,,,,820,2022-01-15_09h53.36.632,multiplicationStroop,2021.2.3,Win32,57.2672088,,,,,right,1,0.4945,0,28,28,45,1,7,2,7 | 2,5,1.4111,1.9756,incongruent,right,,,,,,stimulusFile/physical.xlsx,,,,,,,,,,,,,,,,,,,,,,,,,,,,,,,
,,,,,,,,,,,,,,,820,2022-01-15_09h53.36.632,multiplicationStroop,2021.2.3,Win32,57.2672088,,,,,left,1,0.5467,0,29,29,54,1,7,7,7 | 7,0,1.9756,1.4111,neutral,left,,,,,,stimulusFile/physical.xlsx,,,,,,,,,,,,,,,,,,,,,,,,,,,,,,,
,,,,,,,,,,,,,,,820,2022-01-15_09h53.36.632,multiplicationStroop,2021.2.3,Win32,57.2672088,,,,,left,1,0.4596,0,30,30,5,1,4,3,4 | 3,1,1.9756,1.4111,congruent,left,,,,,,stimulusFile/physical.xlsx,,,,,,,,,,,,,,,,,,,,,,,,,,,,,,,
,,,,,,,,,,,,,,,820,2022-01-15_09h53.36.632,multiplicationStroop,2021.2.3,Win32,57.2672088,,,,,right,1,0.555,0,31,31,29,1,4,3,4 | 3,1,1.4111,1.9756,incongruent,right,,,,,,stimulusFile/physical.xlsx,,,,,,,,,,,,,,,,,,,,,,,,,,,,,,,
,,,,,,,,,,,,,,,820,2022-01-15_09h53.36.632,multiplicationStroop,2021.2.3,Win32,57.2672088,,,,,right,1,0.6168,0,32,32,47,1,9,4,9 | 4,5,1.4111,1.9756,incongruent,right,,,,,,stimulusFile/physical.xlsx,,,,,,,,,,,,,,,,,,,,,,,,,,,,,,,
,,,,,,,,,,,,,,,820,2022-01-15_09h53.36.632,multiplicationStroop,2021.2.3,Win32,57.2672088,,,,,left,1,0.4653,0,33,33,50,1,6,6,6 | 6,0,1.9756,1.4111,neutral,left,,,,,,stimulusFile/physical.xlsx,,,,,,,,,,,,,,,,,,,,,,,,,,,,,,,
,,,,,,,,,,,,,,,820,2022-01-15_09h53.36.632,multiplicationStroop,2021.2.3,Win32,57.2672088,,,,,right,1,0.5113,0,34,34,2,1,6,7,6 | 7,1,1.4111,1.9756,congruent,right,,,,,,stimulusFile/physical.xlsx,,,,,,,,,,,,,,,,,,,,,,,,,,,,,,,
,,,,,,,,,,,,,,,820,2022-01-15_09h53.36.632,multiplicationStroop,2021.2.3,Win32,57.2672088,,,,,right,1,0.486,0,35,35,10,1,6,8,6 | 8,2,1.4111,1.9756,congruent,right,,,,,,stimulusFile/physical.xlsx,,,,,,,,,,,,,,,,,,,,,,,,,,,,,,,
,,,,,,,,,,,,,,,820,2022-01-15_09h53.36.632,multiplicationStroop,2021.2.3,Win32,57.2672088,,,,,right,1,0.5103,0,36,36,37,1,4,2,4 | 2,2,1.4111,1.9756,incongruent,right,,,,,,stimulusFile/physical.xlsx,,,,,,,,,,,,,,,,,,,,,,,,,,,,,,,
,,,,,,,,,,,,,,,820,2022-01-15_09h53.36.632,multiplicationStroop,2021.2.3,Win32,57.2672088,,,,,left,1,0.897,0,37,37,52,1,2,2,2 | 2,0,1.9756,1.4111,neutral,left,,,,,,stimulusFile/physical.xlsx,,,,,,,,,,,,,,,,,,,,,,,,,,,,,,,
,,,,,,,,,,,,,,,820,2022-01-15_09h53.36.632,multiplicationStroop,2021.2.3,Win32,57.2672088,,,,,right,1,0.4779,0,38,38,31,1,9,8,9 | 8,1,1.4111,1.9756,incongruent,right,,,,,,stimulusFile/physical.xlsx,,,,,,,,,,,,,,,,,,,,,,,,,,,,,,,
,,,,,,,,,,,,,,,820,2022-01-15_09h53.36.632,multiplicationStroop,2021.2.3,Win32,57.2672088,,,,,right,1,0.6508,0,39,39,36,1,3,1,3 | 1,2,1.4111,1.9756,incongruent,right,,,,,,stimulusFile/physical.xlsx,,,,,,,,,,,,,,,,,,,,,,,,,,,,,,,
,,,,,,,,,,,,,,,820,2022-01-15_09h53.36.632,multiplicationStroop,2021.2.3,Win32,57.2672088,,,,,left,1,0.4765,0,40,40,27,1,8,9,8 | 9,1,1.9756,1.4111,incongruent,left,,,,,,stimulusFile/physical.xlsx,,,,,,,,,,,,,,,,,,,,,,,,,,,,,,,
,,,,,,,,,,,,,,,820,2022-01-15_09h53.36.632,multiplicationStroop,2021.2.3,Win32,57.2672088,,,,,right,1,0.4217,0,41,41,1,1,3,4,3 | 4,1,1.4111,1.9756,congruent,right,,,,,,stimulusFile/physical.xlsx,,,,,,,,,,,,,,,,,,,,,,,,,,,,,,,
,,,,,,,,,,,,,,,820,2022-01-15_09h53.36.632,multiplicationStroop,2021.2.3,Win32,57.2672088,,,,,left,1,0.4405,0,42,42,34,1,6,8,6 | 8,2,1.9756,1.4111,incongruent,left,,,,,,stimulusFile/physical.xlsx,,,,,,,,,,,,,,,,,,,,,,,,,,,,,,,
,,,,,,,,,,,,,,,820,2022-01-15_09h53.36.632,multiplicationStroop,2021.2.3,Win32,57.2672088,,,,,right,1,0.4772,0,43,43,44,1,6,1,6 | 1,5,1.4111,1.9756,incongruent,right,,,,,,stimulusFile/physical.xlsx,,,,,,,,,,,,,,,,,,,,,,,,,,,,,,,
,,,,,,,,,,,,,,,820,2022-01-15_09h53.36.632,multiplicationStroop,2021.2.3,Win32,57.2672088,,,,,left,1,0.4026,0,44,44,15,1,9,7,9 | 7,2,1.9756,1.4111,congruent,left,,,,,,stimulusFile/physical.xlsx,,,,,,,,,,,,,,,,,,,,,,,,,,,,,,,
,,,,,,,,,,,,,,,820,2022-01-15_09h53.36.632,multiplicationStroop,2021.2.3,Win32,57.2672088,,,,,left,1,0.6458,0,45,45,12,1,3,1,3 | 1,2,1.9756,1.4111,congruent,left,,,,,,stimulusFile/physical.xlsx,,,,,,,,,,,,,,,,,,,,,,,,,,,,,,,
,,,,,,,,,,,,,,,820,2022-01-15_09h53.36.632,multiplicationStroop,2021.2.3,Win32,57.2672088,,,,,right,1,0.4138,0,46,46,19,1,4,9,4 | 9,5,1.4111,1.9756,congruent,right,,,,,,stimulusFile/physical.xlsx,,,,,,,,,,,,,,,,,,,,,,,,,,,,,,,
,,,,,,,,,,,,,,,820,2022-01-15_09h53.36.632,multiplicationStroop,2021.2.3,Win32,57.2672088,,,,,left,1,0.3992,0,47,47,4,1,2,1,2 | 1,1,1.9756,1.4111,congruent,left,,,,,,stimulusFile/physical.xlsx,,,,,,,,,,,,,,,,,,,,,,,,,,,,,,,
,,,,,,,,,,,,,,,820,2022-01-15_09h53.36.632,multiplicationStroop,2021.2.3,Win32,57.2672088,,,,,left,1,0.5207,0,48,48,21,1,7,2,7 | 2,5,1.9756,1.4111,congruent,left,,,,,,stimulusFile/physical.xlsx,,,,,,,,,,,,,,,,,,,,,,,,,,,,,,,
,,,,,,,,,,,,,,,820,2022-01-15_09h53.36.632,multiplicationStroop,2021.2.3,Win32,57.2672088,,,,,left,1,0.4405,0,49,49,32,1,1,3,1 | 3,2,1.9756,1.4111,incongruent,left,,,,,,stimulusFile/physical.xlsx,,,,,,,,,,,,,,,,,,,,,,,,,,,,,,,
,,,,,,,,,,,,,,,820,2022-01-15_09h53.36.632,multiplicationStroop,2021.2.3,Win32,57.2672088,,,,,left,1,0.5941,0,50,50,14,1,8,6,8 | 6,2,1.9756,1.4111,congruent,left,,,,,,stimulusFile/physical.xlsx,,,,,,,,,,,,,,,,,,,,,,,,,,,,,,,
,,,,,,,,,,,,,,,820,2022-01-15_09h53.36.632,multiplicationStroop,2021.2.3,Win32,57.2672088,,,,,right,1,0.5161,0,51,51,28,1,2,1,2 | 1,1,1.4111,1.9756,incongruent,right,,,,,,stimulusFile/physical.xlsx,,,,,,,,,,,,,,,,,,,,,,,,,,,,,,,
,,,,,,,,,,,,,,,820,2022-01-15_09h53.36.632,multiplicationStroop,2021.2.3,Win32,57.2672088,,,,,right,1,0.4794,0,52,52,62,1,8,8,8 | 8,0,1.4111,1.9756,neutral,right,,,,,,stimulusFile/physical.xlsx,,,,,,,,,,,,,,,,,,,,,,,,,,,,,,,
,,,,,,,,,,,,,,,820,2022-01-15_09h53.36.632,multiplicationStroop,2021.2.3,Win32,57.2672088,,,,,right,1,0.497,0,53,53,58,1,6,6,6 | 6,0,1.4111,1.9756,neutral,right,,,,,,stimulusFile/physical.xlsx,,,,,,,,,,,,,,,,,,,,,,,,,,,,,,,
,,,,,,,,,,,,,,,820,2022-01-15_09h53.36.632,multiplicationStroop,2021.2.3,Win32,57.2672088,,,,,right,1,0.5457,0,54,54,30,1,7,6,7 | 6,1,1.4111,1.9756,incongruent,right,,,,,,stimulusFile/physical.xlsx,,,,,,,,,,,,,,,,,,,,,,,,,,,,,,,
,,,,,,,,,,,,,,,820,2022-01-15_09h53.36.632,multiplicationStroop,2021.2.3,Win32,57.2672088,,,,,left,1,0.4128,0,55,55,49,1,3,3,3 | 3,0,1.9756,1.4111,neutral,left,,,,,,stimulusFile/physical.xlsx,,,,,,,,,,,,,,,,,,,,,,,,,,,,,,,
,,,,,,,,,,,,,,,820,2022-01-15_09h53.36.632,multiplicationStroop,2021.2.3,Win32,57.2672088,,,,,left,1,0.4474,0,56,56,48,1,1,1,1 | 1,0,1.9756,1.4111,neutral,left,,,,,,stimulusFile/physical.xlsx,,,,,,,,,,,,,,,,,,,,,,,,,,,,,,,
,,,,,,,,,,,,,,,820,2022-01-15_09h53.36.632,multiplicationStroop,2021.2.3,Win32,57.2672088,,,,,left,1,0.5489,0,57,57,26,1,6,7,6 | 7,1,1.9756,1.4111,incongruent,left,,,,,,stimulusFile/physical.xlsx,,,,,,,,,,,,,,,,,,,,,,,,,,,,,,,
,,,,,,,,,,,,,,,820,2022-01-15_09h53.36.632,multiplicationStroop,2021.2.3,Win32,57.2672088,,,,,left,1,0.6179,0,58,58,51,1,8,8,8 | 8,0,1.9756,1.4111,neutral,left,,,,,,stimulusFile/physical.xlsx,,,,,,,,,,,,,,,,,,,,,,,,,,,,,,,
,,,,,,,,,,,,,,,820,2022-01-15_09h53.36.632,multiplicationStroop,2021.2.3,Win32,57.2672088,,,,,left,1,0.5555,0,59,59,42,1,3,8,3 | 8,5,1.9756,1.4111,incongruent,left,,,,,,stimulusFile/physical.xlsx,,,,,,,,,,,,,,,,,,,,,,,,,,,,,,,
,,,,,,,,,,,,,,,820,2022-01-15_09h53.36.632,multiplicationStroop,2021.2.3,Win32,57.2672088,,,,,left,1,0.5385,0,60,60,13,1,4,2,4 | 2,2,1.9756,1.4111,congruent,left,,,,,,stimulusFile/physical.xlsx,,,,,,,,,,,,,,,,,,,,,,,,,,,,,,,
,,,,,,,,,,,,,,,820,2022-01-15_09h53.36.632,multiplicationStroop,2021.2.3,Win32,57.2672088,,,,,right,1,0.4502,0,61,61,18,1,3,8,3 | 8,5,1.4111,1.9756,congruent,right,,,,,,stimulusFile/physical.xlsx,,,,,,,,,,,,,,,,,,,,,,,,,,,,,,,
,,,,,,,,,,,,,,,820,2022-01-15_09h53.36.632,multiplicationStroop,2021.2.3,Win32,57.2672088,,,,,left,1,0.4052,0,62,62,35,1,7,9,7 | 9,2,1.9756,1.4111,incongruent,left,,,,,,stimulusFile/physical.xlsx,,,,,,,,,,,,,,,,,,,,,,,,,,,,,,,
,,,,,,,,,,,,,,,820,2022-01-15_09h53.36.632,multiplicationStroop,2021.2.3,Win32,57.2672088,,,,,right,1,0.4748,0,63,63,11,1,7,9,7 | 9,2,1.4111,1.9756,congruent,right,,,,,,stimulusFile/physical.xlsx,,,,,,,,,,,,,,,,,,,,,,,,,,,,,,,
,,,,,,,,,,,,,,,820,2022-01-15_09h53.36.632,multiplicationStroop,2021.2.3,Win32,57.2672088,,,,,right,1,0.5497,0,64,64,38,1,8,6,8 | 6,2,1.4111,1.9756,incongruent,right,,,,,,stimulusFile/physical.xlsx,,,,,,,,,,,,,,,,,,,,,,,,,,,,,,,
,,,,,,,,,,,,,,,820,2022-01-15_09h53.36.632,multiplicationStroop,2021.2.3,Win32,57.2672088,,,,,right,0,0.4255,0,65,65,69,1,7,7,7 | 7,0,1.4111,1.9756,neutral,left,,,,,,stimulusFile/physical.xlsx,,,,,,,,,,,,,,,,,,,,,,,,,,,,,,,
,,,,,,,,,,,,,,,820,2022-01-15_09h53.36.632,multiplicationStroop,2021.2.3,Win32,57.2672088,,,,,left,1,0.3538,0,66,66,33,1,2,4,2 | 4,2,1.9756,1.4111,incongruent,left,,,,,,stimulusFile/physical.xlsx,,,,,,,,,,,,,,,,,,,,,,,,,,,,,,,
,,,,,,,,,,,,,,,820,2022-01-15_09h53.36.632,multiplicationStroop,2021.2.3,Win32,57.2672088,,,,,left,1,0.688,0,67,67,40,1,1,6,1 | 6,5,1.9756,1.4111,incongruent,left,,,,,,stimulusFile/physical.xlsx,,,,,,,,,,,,,,,,,,,,,,,,,,,,,,,
,,,,,,,,,,,,,,,820,2022-01-15_09h53.36.632,multiplicationStroop,2021.2.3,Win32,57.2672088,,,,,right,0,0.4401,0,68,68,71,1,9,9,9 | 9,0,1.4111,1.9756,neutral,left,,,,,,stimulusFile/physical.xlsx,,,,,,,,,,,,,,,,,,,,,,,,,,,,,,,
,,,,,,,,,,,,,,,820,2022-01-15_09h53.36.632,multiplicationStroop,2021.2.3,Win32,57.2672088,,,,,right,1,0.669,0,69,69,60,1,3,3,3 | 3,0,1.4111,1.9756,neutral,right,,,,,,stimulusFile/physical.xlsx,,,,,,,,,,,,,,,,,,,,,,,,,,,,,,,
,,,,,,,,,,,,,,,820,2022-01-15_09h53.36.632,multiplicationStroop,2021.2.3,Win32,57.2672088,,,,,right,1,0.6411,0,70,70,3,1,8,9,8 | 9,1,1.4111,1.9756,congruent,right,,,,,,stimulusFile/physical.xlsx,,,,,,,,,,,,,,,,,,,,,,,,,,,,,,,
,,,,,,,,,,,,,,,820,2022-01-15_09h53.36.632,multiplicationStroop,2021.2.3,Win32,57.2672088,,,,,right,1,0.5816,0,71,71,57,1,2,2,2 | 2,0,1.4111,1.9756,neutral,right,,,,,,stimulusFile/physical.xlsx,,,,,,,,,,,,,,,,,,,,,,,,,,,,,,,
,,,,,,,,,,,,,,,820,2022-01-15_09h53.36.632,multiplicationStroop,2021.2.3,Win32,57.2672088,,,,,,,,,,,,,,,,,,,,,0,0,0,1,1,stimulusFile/physical.xlsx,PHYSICALLY larger (larger font size).,images/physicallyLarger.png,,,,,,,,,,,,,,,,,,,,,,,,,,,,,
,,,,,,,,,,,,,,,820,2022-01-15_09h53.36.632,multiplicationStroop,2021.2.3,Win32,57.2672088,space,4.4657,space,6.9536,right,1,1.2245,0,0,0,26,1,6,7,6 | 7,1,1.9756,1.4111,incongruent,right,,,,,,stimulusFile/magnitude.xlsx,,,,,,,,,,,,,,,,,,,,,,,,,,,,,,,
,,,,,,,,,,,,,,,820,2022-01-15_09h53.36.632,multiplicationStroop,2021.2.3,Win32,57.2672088,,,,,left,1,0.9614,0,1,1,60,1,3,1,3 | 1,2,1.6933,1.6933,neutral,left,,,,,,stimulusFile/magnitude.xlsx,,,,,,,,,,,,,,,,,,,,,,,,,,,,,,,
,,,,,,,,,,,,,,,820,2022-01-15_09h53.36.632,multiplicationStroop,2021.2.3,Win32,57.2672088,,,,,right,1,1.083,0,2,2,1,1,3,4,3 | 4,1,1.4111,1.9756,congruent,right,,,,,,stimulusFile/magnitude.xlsx,,,,,,,,,,,,,,,,,,,,,,,,,,,,,,,
,,,,,,,,,,,,,,,820,2022-01-15_09h53.36.632,multiplicationStroop,2021.2.3,Win32,57.2672088,,,,,left,1,0.8228,0,3,3,39,1,9,7,9 | 7,2,1.4111,1.9756,incongruent,left,,,,,,stimulusFile/magnitude.xlsx,,,,,,,,,,,,,,,,,,,,,,,,,,,,,,,
,,,,,,,,,,,,,,,820,2022-01-15_09h53.36.632,multiplicationStroop,2021.2.3,Win32,57.2672088,,,,,left,1,0.8253,0,4,4,37,1,4,2,4 | 2,2,1.4111,1.9756,incongruent,left,,,,,,stimulusFile/magnitude.xlsx,,,,,,,,,,,,,,,,,,,,,,,,,,,,,,,
,,,,,,,,,,,,,,,820,2022-01-15_09h53.36.632,multiplicationStroop,2021.2.3,Win32,57.2672088,,,,,right,1,0.563,0,5,5,65,1,2,7,2 | 7,5,1.6933,1.6933,neutral,right,,,,,,stimulusFile/magnitude.xlsx,,,,,,,,,,,,,,,,,,,,,,,,,,,,,,,
,,,,,,,,,,,,,,,820,2022-01-15_09h53.36.632,multiplicationStroop,2021.2.3,Win32,57.2672088,,,,,right,1,0.9876,0,6,6,2,1,6,7,6 | 7,1,1.4111,1.9756,congruent,right,,,,,,stimulusFile/magnitude.xlsx,,,,,,,,,,,,,,,,,,,,,,,,,,,,,,,
,,,,,,,,,,,,,,,820,2022-01-15_09h53.36.632,multiplicationStroop,2021.2.3,Win32,57.2672088,,,,,left,1,0.629,0,7,7,61,1,4,2,4 | 2,2,1.6933,1.6933,neutral,left,,,,,,stimulusFile/magnitude.xlsx,,,,,,,,,,,,,,,,,,,,,,,,,,,,,,,
,,,,,,,,,,,,,,,820,2022-01-15_09h53.36.632,multiplicationStroop,2021.2.3,Win32,57.2672088,,,,,right,1,0.5607,0,8,8,11,1,7,9,7 | 9,2,1.4111,1.9756,congruent,right,,,,,,stimulusFile/magnitude.xlsx,,,,,,,,,,,,,,,,,,,,,,,,,,,,,,,
,,,,,,,,,,,,,,,820,2022-01-15_09h53.36.632,multiplicationStroop,2021.2.3,Win32,57.2672088,,,,,left,1,1.0566,0,9,9,28,1,2,1,2 | 1,1,1.4111,1.9756,incongruent,left,,,,,,stimulusFile/magnitude.xlsx,,,,,,,,,,,,,,,,,,,,,,,,,,,,,,,
,,,,,,,,,,,,,,,820,2022-01-15_09h53.36.632,multiplicationStroop,2021.2.3,Win32,57.2672088,,,,,left,1,0.737,0,10,10,44,1,6,1,6 | 1,5,1.4111,1.9756,incongruent,left,,,,,,stimulusFile/magnitude.xlsx,,,,,,,,,,,,,,,,,,,,,,,,,,,,,,,
,,,,,,,,,,,,,,,820,2022-01-15_09h53.36.632,multiplicationStroop,2021.2.3,Win32,57.2672088,,,,,right,1,0.4907,0,11,11,16,1,1,6,1 | 6,5,1.4111,1.9756,congruent,right,,,,,,stimulusFile/magnitude.xlsx,,,,,,,,,,,,,,,,,,,,,,,,,,,,,,,
,,,,,,,,,,,,,,,820,2022-01-15_09h53.36.632,multiplicationStroop,2021.2.3,Win32,57.2672088,,,,,left,1,0.6064,0,12,12,68,1,6,1,6 | 1,5,1.6933,1.6933,neutral,left,,,,,,stimulusFile/magnitude.xlsx,,,,,,,,,,,,,,,,,,,,,,,,,,,,,,,
,,,,,,,,,,,,,,,820,2022-01-15_09h53.36.632,multiplicationStroop,2021.2.3,Win32,57.2672088,,,,,right,1,0.7692,0,13,13,10,1,6,8,6 | 8,2,1.4111,1.9756,congruent,right,,,,,,stimulusFile/magnitude.xlsx,,,,,,,,,,,,,,,,,,,,,,,,,,,,,,,
,,,,,,,,,,,,,,,820,2022-01-15_09h53.36.632,multiplicationStroop,2021.2.3,Win32,57.2672088,,,,,left,1,0.9576,0,14,14,62,1,8,6,8 | 6,2,1.6933,1.6933,neutral,left,,,,,,stimulusFile/magnitude.xlsx,,,,,,,,,,,,,,,,,,,,,,,,,,,,,,,
,,,,,,,,,,,,,,,820,2022-01-15_09h53.36.632,multiplicationStroop,2021.2.3,Win32,57.2672088,,,,,left,1,0.854,0,15,15,23,1,9,4,9 | 4,5,1.9756,1.4111,congruent,left,,,,,,stimulusFile/magnitude.xlsx,,,,,,,,,,,,,,,,,,,,,,,,,,,,,,,
,,,,,,,,,,,,,,,820,2022-01-15_09h53.36.632,multiplicationStroop,2021.2.3,Win32,57.2672088,,,,,left,1,0.6237,0,16,16,14,1,8,6,8 | 6,2,1.9756,1.4111,congruent,left,,,,,,stimulusFile/magnitude.xlsx,,,,,,,,,,,,,,,,,,,,,,,,,,,,,,,
,,,,,,,,,,,,,,,820,2022-01-15_09h53.36.632,multiplicationStroop,2021.2.3,Win32,57.2672088,,,,,right,1,0.7161,0,17,17,48,1,1,2,1 | 2,1,1.6933,1.6933,neutral,right,,,,,,stimulusFile/magnitude.xlsx,,,,,,,,,,,,,,,,,,,,,,,,,,,,,,,
,,,,,,,,,,,,,,,820,2022-01-15_09h53.36.632,multiplicationStroop,2021.2.3,Win32,57.2672088,,,,,right,1,0.6174,0,18,18,56,1,1,3,1 | 3,2,1.6933,1.6933,neutral,right,,,,,,stimulusFile/magnitude.xlsx,,,,,,,,,,,,,,,,,,,,,,,,,,,,,,,
,,,,,,,,,,,,,,,820,2022-01-15_09h53.36.632,multiplicationStroop,2021.2.3,Win32,57.2672088,,,,,left,1,0.7173,0,19,19,52,1,2,1,2 | 1,1,1.6933,1.6933,neutral,left,,,,,,stimulusFile/magnitude.xlsx,,,,,,,,,,,,,,,,,,,,,,,,,,,,,,,
,,,,,,,,,,,,,,,820,2022-01-15_09h53.36.632,multiplicationStroop,2021.2.3,Win32,57.2672088,,,,,right,1,0.8167,0,20,20,59,1,7,9,7 | 9,2,1.6933,1.6933,neutral,right,,,,,,stimulusFile/magnitude.xlsx,,,,,,,,,,,,,,,,,,,,,,,,,,,,,,,
,,,,,,,,,,,,,,,820,2022-01-15_09h53.36.632,multiplicationStroop,2021.2.3,Win32,57.2672088,,,,,right,1,0.5457,0,21,21,8,1,1,3,1 | 3,2,1.4111,1.9756,congruent,right,,,,,,stimulusFile/magnitude.xlsx,,,,,,,,,,,,,,,,,,,,,,,,,,,,,,,
,,,,,,,,,,,,,,,820,2022-01-15_09h53.36.632,multiplicationStroop,2021.2.3,Win32,57.2672088,,,,,right,1,0.5762,0,22,22,66,1,3,8,3 | 8,5,1.6933,1.6933,neutral,right,,,,,,stimulusFile/magnitude.xlsx,,,,,,,,,,,,,,,,,,,,,,,,,,,,,,,
,,,,,,,,,,,,,,,820,2022-01-15_09h53.36.632,multiplicationStroop,2021.2.3,Win32,57.2672088,,,,,left,1,0.6135,0,23,23,12,1,3,1,3 | 1,2,1.9756,1.4111,congruent,left,,,,,,stimulusFile/magnitude.xlsx,,,,,,,,,,,,,,,,,,,,,,,,,,,,,,,
,,,,,,,,,,,,,,,820,2022-01-15_09h53.36.632,multiplicationStroop,2021.2.3,Win32,57.2672088,,,,,left,1,0.5921,0,24,24,13,1,4,2,4 | 2,2,1.9756,1.4111,congruent,left,,,,,,stimulusFile/magnitude.xlsx,,,,,,,,,,,,,,,,,,,,,,,,,,,,,,,
,,,,,,,,,,,,,,,820,2022-01-15_09h53.36.632,multiplicationStroop,2021.2.3,Win32,57.2672088,,,,,right,1,0.6043,0,25,25,40,1,1,6,1 | 6,5,1.9756,1.4111,incongruent,right,,,,,,stimulusFile/magnitude.xlsx,,,,,,,,,,,,,,,,,,,,,,,,,,,,,,,
,,,,,,,,,,,,,,,820,2022-01-15_09h53.36.632,multiplicationStroop,2021.2.3,Win32,57.2672088,,,,,left,1,0.6734,0,26,26,36,1,3,1,3 | 1,2,1.4111,1.9756,incongruent,left,,,,,,stimulusFile/magnitude.xlsx,,,,,,,,,,,,,,,,,,,,,,,,,,,,,,,
,,,,,,,,,,,,,,,820,2022-01-15_09h53.36.632,multiplicationStroop,2021.2.3,Win32,57.2672088,,,,,left,1,0.6248,0,27,27,63,1,9,7,9 | 7,2,1.6933,1.6933,neutral,left,,,,,,stimulusFile/magnitude.xlsx,,,,,,,,,,,,,,,,,,,,,,,,,,,,,,,
,,,,,,,,,,,,,,,820,2022-01-15_09h53.36.632,multiplicationStroop,2021.2.3,Win32,57.2672088,,,,,left,1,0.474,0,28,28,7,1,9,8,9 | 8,1,1.9756,1.4111,congruent,left,,,,,,stimulusFile/magnitude.xlsx,,,,,,,,,,,,,,,,,,,,,,,,,,,,,,,
,,,,,,,,,,,,,,,820,2022-01-15_09h53.36.632,multiplicationStroop,2021.2.3,Win32,57.2672088,,,,,left,1,1.168,0,29,29,30,1,7,6,7 | 6,1,1.4111,1.9756,incongruent,left,,,,,,stimulusFile/magnitude.xlsx,,,,,,,,,,,,,,,,,,,,,,,,,,,,,,,
,,,,,,,,,,,,,,,820,2022-01-15_09h53.36.632,multiplicationStroop,2021.2.3,Win32,57.2672088,,,,,left,1,0.4263,0,30,30,22,1,8,3,8 | 3,5,1.9756,1.4111,congruent,left,,,,,,stimulusFile/magnitude.xlsx,,,,,,,,,,,,,,,,,,,,,,,,,,,,,,,
,,,,,,,,,,,,,,,820,2022-01-15_09h53.36.632,multiplicationStroop,2021.2.3,Win32,57.2672088,,,,,right,1,0.6196,0,31,31,0,1,1,2,1 | 2,1,1.4111,1.9756,congruent,right,,,,,,stimulusFile/magnitude.xlsx,,,,,,,,,,,,,,,,,,,,,,,,,,,,,,,
,,,,,,,,,,,,,,,820,2022-01-15_09h53.36.632,multiplicationStroop,2021.2.3,Win32,57.2672088,,,,,right,1,0.8565,0,32,32,27,1,8,9,8 | 9,1,1.9756,1.4111,incongruent,right,,,,,,stimulusFile/magnitude.xlsx,,,,,,,,,,,,,,,,,,,,,,,,,,,,,,,
,,,,,,,,,,,,,,,820,2022-01-15_09h53.36.632,multiplicationStroop,2021.2.3,Win32,57.2672088,,,,,right,1,0.5087,0,33,33,51,1,8,9,8 | 9,1,1.6933,1.6933,neutral,right,,,,,,stimulusFile/magnitude.xlsx,,,,,,,,,,,,,,,,,,,,,,,,,,,,,,,
,,,,,,,,,,,,,,,820,2022-01-15_09h53.36.632,multiplicationStroop,2021.2.3,Win32,57.2672088,,,,,left,1,1.078,0,34,34,29,1,4,3,4 | 3,1,1.4111,1.9756,incongruent,left,,,,,,stimulusFile/magnitude.xlsx,,,,,,,,,,,,,,,,,,,,,,,,,,,,,,,
,,,,,,,,,,,,,,,820,2022-01-15_09h53.36.632,multiplicationStroop,2021.2.3,Win32,57.2672088,,,,,left,1,0.5722,0,35,35,21,1,7,2,7 | 2,5,1.9756,1.4111,congruent,left,,,,,,stimulusFile/magnitude.xlsx,,,,,,,,,,,,,,,,,,,,,,,,,,,,,,,
,,,,,,,,,,,,,,,820,2022-01-15_09h53.36.632,multiplicationStroop,2021.2.3,Win32,57.2672088,,,,,right,1,0.5429,0,36,36,57,1,2,4,2 | 4,2,1.6933,1.6933,neutral,right,,,,,,stimulusFile/magnitude.xlsx,,,,,,,,,,,,,,,,,,,,,,,,,,,,,,,
,,,,,,,,,,,,,,,820,2022-01-15_09h53.36.632,multiplicationStroop,2021.2.3,Win32,57.2672088,,,,,right,1,0.7167,0,37,37,43,1,4,9,4 | 9,5,1.9756,1.4111,incongruent,right,,,,,,stimulusFile/magnitude.xlsx,,,,,,,,,,,,,,,,,,,,,,,,,,,,,,,
,,,,,,,,,,,,,,,820,2022-01-15_09h53.36.632,multiplicationStroop,2021.2.3,Win32,57.2672088,,,,,left,1,0.5605,0,38,38,69,1,7,2,7 | 2,5,1.6933,1.6933,neutral,left,,,,,,stimulusFile/magnitude.xlsx,,,,,,,,,,,,,,,,,,,,,,,,,,,,,,,
,,,,,,,,,,,,,,,820,2022-01-15_09h53.36.632,multiplicationStroop,2021.2.3,Win32,57.2672088,,,,,right,1,0.6361,0,39,39,58,1,6,8,6 | 8,2,1.6933,1.6933,neutral,right,,,,,,stimulusFile/magnitude.xlsx,,,,,,,,,,,,,,,,,,,,,,,,,,,,,,,
,,,,,,,,,,,,,,,820,2022-01-15_09h53.36.632,multiplicationStroop,2021.2.3,Win32,57.2672088,,,,,right,1,0.9124,0,40,40,25,1,3,4,3 | 4,1,1.9756,1.4111,incongruent,right,,,,,,stimulusFile/magnitude.xlsx,,,,,,,,,,,,,,,,,,,,,,,,,,,,,,,
,,,,,,,,,,,,,,,820,2022-01-15_09h53.36.632,multiplicationStroop,2021.2.3,Win32,57.2672088,,,,,left,1,0.4796,0,41,41,15,1,9,7,9 | 7,2,1.9756,1.4111,congruent,left,,,,,,stimulusFile/magnitude.xlsx,,,,,,,,,,,,,,,,,,,,,,,,,,,,,,,
,,,,,,,,,,,,,,,820,2022-01-15_09h53.36.632,multiplicationStroop,2021.2.3,Win32,57.2672088,,,,,right,1,0.597,0,42,42,35,1,7,9,7 | 9,2,1.9756,1.4111,incongruent,right,,,,,,stimulusFile/magnitude.xlsx,,,,,,,,,,,,,,,,,,,,,,,,,,,,,,,
,,,,,,,,,,,,,,,820,2022-01-15_09h53.36.632,multiplicationStroop,2021.2.3,Win32,57.2672088,,,,,right,1,0.4916,0,43,43,19,1,4,9,4 | 9,5,1.4111,1.9756,congruent,right,,,,,,stimulusFile/magnitude.xlsx,,,,,,,,,,,,,,,,,,,,,,,,,,,,,,,
,,,,,,,,,,,,,,,820,2022-01-15_09h53.36.632,multiplicationStroop,2021.2.3,Win32,57.2672088,,,,,left,1,0.4784,0,44,44,46,1,8,3,8 | 3,5,1.4111,1.9756,incongruent,left,,,,,,stimulusFile/magnitude.xlsx,,,,,,,,,,,,,,,,,,,,,,,,,,,,,,,
,,,,,,,,,,,,,,,820,2022-01-15_09h53.36.632,multiplicationStroop,2021.2.3,Win32,57.2672088,,,,,left,1,0.4402,0,45,45,47,1,9,4,9 | 4,5,1.4111,1.9756,incongruent,left,,,,,,stimulusFile/magnitude.xlsx,,,,,,,,,,,,,,,,,,,,,,,,,,,,,,,
,,,,,,,,,,,,,,,820,2022-01-15_09h53.36.632,multiplicationStroop,2021.2.3,Win32,57.2672088,,,,,right,1,0.4667,0,46,46,18,1,3,8,3 | 8,5,1.4111,1.9756,congruent,right,,,,,,stimulusFile/magnitude.xlsx,,,,,,,,,,,,,,,,,,,,,,,,,,,,,,,
,,,,,,,,,,,,,,,820,2022-01-15_09h53.36.632,multiplicationStroop,2021.2.3,Win32,57.2672088,,,,,right,1,0.5343,0,47,47,17,1,2,7,2 | 7,5,1.4111,1.9756,congruent,right,,,,,,stimulusFile/magnitude.xlsx,,,,,,,,,,,,,,,,,,,,,,,,,,,,,,,
,,,,,,,,,,,,,,,820,2022-01-15_09h53.36.632,multiplicationStroop,2021.2.3,Win32,57.2672088,,,,,left,1,0.6855,0,48,48,20,1,6,1,6 | 1,5,1.9756,1.4111,congruent,left,,,,,,stimulusFile/magnitude.xlsx,,,,,,,,,,,,,,,,,,,,,,,,,,,,,,,
,,,,,,,,,,,,,,,820,2022-01-15_09h53.36.632,multiplicationStroop,2021.2.3,Win32,57.2672088,,,,,left,1,0.5123,0,49,49,45,1,7,2,7 | 2,5,1.4111,1.9756,incongruent,left,,,,,,stimulusFile/magnitude.xlsx,,,,,,,,,,,,,,,,,,,,,,,,,,,,,,,
,,,,,,,,,,,,,,,820,2022-01-15_09h53.36.632,multiplicationStroop,2021.2.3,Win32,57.2672088,,,,,right,1,0.7248,0,50,50,9,1,2,4,2 | 4,2,1.4111,1.9756,congruent,right,,,,,,stimulusFile/magnitude.xlsx,,,,,,,,,,,,,,,,,,,,,,,,,,,,,,,
,,,,,,,,,,,,,,,820,2022-01-15_09h53.36.632,multiplicationStroop,2021.2.3,Win32,57.2672088,,,,,right,1,0.7419,0,51,51,50,1,6,7,6 | 7,1,1.6933,1.6933,neutral,right,,,,,,stimulusFile/magnitude.xlsx,,,,,,,,,,,,,,,,,,,,,,,,,,,,,,,
,,,,,,,,,,,,,,,820,2022-01-15_09h53.36.632,multiplicationStroop,2021.2.3,Win32,57.2672088,,,,,right,1,0.5125,0,52,52,64,1,1,6,1 | 6,5,1.6933,1.6933,neutral,right,,,,,,stimulusFile/magnitude.xlsx,,,,,,,,,,,,,,,,,,,,,,,,,,,,,,,
,,,,,,,,,,,,,,,820,2022-01-15_09h53.36.632,multiplicationStroop,2021.2.3,Win32,57.2672088,,,,,left,1,0.6621,0,53,53,54,1,7,6,7 | 6,1,1.6933,1.6933,neutral,left,,,,,,stimulusFile/magnitude.xlsx,,,,,,,,,,,,,,,,,,,,,,,,,,,,,,,
,,,,,,,,,,,,,,,820,2022-01-15_09h53.36.632,multiplicationStroop,2021.2.3,Win32,57.2672088,,,,,right,1,0.5114,0,54,54,67,1,4,9,4 | 9,5,1.6933,1.6933,neutral,right,,,,,,stimulusFile/magnitude.xlsx,,,,,,,,,,,,,,,,,,,,,,,,,,,,,,,
,,,,,,,,,,,,,,,820,2022-01-15_09h53.36.632,multiplicationStroop,2021.2.3,Win32,57.2672088,,,,,right,1,0.6012,0,55,55,41,1,2,7,2 | 7,5,1.9756,1.4111,incongruent,right,,,,,,stimulusFile/magnitude.xlsx,,,,,,,,,,,,,,,,,,,,,,,,,,,,,,,
,,,,,,,,,,,,,,,820,2022-01-15_09h53.36.632,multiplicationStroop,2021.2.3,Win32,57.2672088,,,,,left,1,0.4989,0,56,56,70,1,8,3,8 | 3,5,1.6933,1.6933,neutral,left,,,,,,stimulusFile/magnitude.xlsx,,,,,,,,,,,,,,,,,,,,,,,,,,,,,,,
,,,,,,,,,,,,,,,820,2022-01-15_09h53.36.632,multiplicationStroop,2021.2.3,Win32,57.2672088,,,,,right,1,0.5826,0,57,57,33,1,2,4,2 | 4,2,1.9756,1.4111,incongruent,right,,,,,,stimulusFile/magnitude.xlsx,,,,,,,,,,,,,,,,,,,,,,,,,,,,,,,
,,,,,,,,,,,,,,,820,2022-01-15_09h53.36.632,multiplicationStroop,2021.2.3,Win32,57.2672088,,,,,left,1,0.6347,0,58,58,38,1,8,6,8 | 6,2,1.4111,1.9756,incongruent,left,,,,,,stimulusFile/magnitude.xlsx,,,,,,,,,,,,,,,,,,,,,,,,,,,,,,,
,,,,,,,,,,,,,,,820,2022-01-15_09h53.36.632,multiplicationStroop,2021.2.3,Win32,57.2672088,,,,,right,1,0.8143,0,59,59,32,1,1,3,1 | 3,2,1.9756,1.4111,incongruent,right,,,,,,stimulusFile/magnitude.xlsx,,,,,,,,,,,,,,,,,,,,,,,,,,,,,,,
,,,,,,,,,,,,,,,820,2022-01-15_09h53.36.632,multiplicationStroop,2021.2.3,Win32,57.2672088,,,,,left,1,0.5558,0,60,60,5,1,4,3,4 | 3,1,1.9756,1.4111,congruent,left,,,,,,stimulusFile/magnitude.xlsx,,,,,,,,,,,,,,,,,,,,,,,,,,,,,,,
,,,,,,,,,,,,,,,820,2022-01-15_09h53.36.632,multiplicationStroop,2021.2.3,Win32,57.2672088,,,,,right,1,0.5799,0,61,61,49,1,3,4,3 | 4,1,1.6933,1.6933,neutral,right,,,,,,stimulusFile/magnitude.xlsx,,,,,,,,,,,,,,,,,,,,,,,,,,,,,,,
,,,,,,,,,,,,,,,820,2022-01-15_09h53.36.632,multiplicationStroop,2021.2.3,Win32,57.2672088,,,,,left,1,0.6457,0,62,62,71,1,9,4,9 | 4,5,1.6933,1.6933,neutral,left,,,,,,stimulusFile/magnitude.xlsx,,,,,,,,,,,,,,,,,,,,,,,,,,,,,,,
,,,,,,,,,,,,,,,820,2022-01-15_09h53.36.632,multiplicationStroop,2021.2.3,Win32,57.2672088,,,,,left,1,0.6999,0,63,63,55,1,9,8,9 | 8,1,1.6933,1.6933,neutral,left,,,,,,stimulusFile/magnitude.xlsx,,,,,,,,,,,,,,,,,,,,,,,,,,,,,,,
,,,,,,,,,,,,,,,820,2022-01-15_09h53.36.632,multiplicationStroop,2021.2.3,Win32,57.2672088,,,,,right,1,0.5478,0,64,64,34,1,6,8,6 | 8,2,1.9756,1.4111,incongruent,right,,,,,,stimulusFile/magnitude.xlsx,,,,,,,,,,,,,,,,,,,,,,,,,,,,,,,
,,,,,,,,,,,,,,,820,2022-01-15_09h53.36.632,multiplicationStroop,2021.2.3,Win32,57.2672088,,,,,right,1,0.5714,0,65,65,42,1,3,8,3 | 8,5,1.9756,1.4111,incongruent,right,,,,,,stimulusFile/magnitude.xlsx,,,,,,,,,,,,,,,,,,,,,,,,,,,,,,,
,,,,,,,,,,,,,,,820,2022-01-15_09h53.36.632,multiplicationStroop,2021.2.3,Win32,57.2672088,,,,,right,1,0.8268,0,66,66,24,1,1,2,1 | 2,1,1.9756,1.4111,incongruent,right,,,,,,stimulusFile/magnitude.xlsx,,,,,,,,,,,,,,,,,,,,,,,,,,,,,,,
,,,,,,,,,,,,,,,820,2022-01-15_09h53.36.632,multiplicationStroop,2021.2.3,Win32,57.2672088,,,,,left,1,0.6846,0,67,67,31,1,9,8,9 | 8,1,1.4111,1.9756,incongruent,left,,,,,,stimulusFile/magnitude.xlsx,,,,,,,,,,,,,,,,,,,,,,,,,,,,,,,
,,,,,,,,,,,,,,,820,2022-01-15_09h53.36.632,multiplicationStroop,2021.2.3,Win32,57.2672088,,,,,right,1,0.4957,0,68,68,3,1,8,9,8 | 9,1,1.4111,1.9756,congruent,right,,,,,,stimulusFile/magnitude.xlsx,,,,,,,,,,,,,,,,,,,,,,,,,,,,,,,
,,,,,,,,,,,,,,,820,2022-01-15_09h53.36.632,multiplicationStroop,2021.2.3,Win32,57.2672088,,,,,left,1,0.5612,0,69,69,53,1,4,3,4 | 3,1,1.6933,1.6933,neutral,left,,,,,,stimulusFile/magnitude.xlsx,,,,,,,,,,,,,,,,,,,,,,,,,,,,,,,
,,,,,,,,,,,,,,,820,2022-01-15_09h53.36.632,multiplicationStroop,2021.2.3,Win32,57.2672088,,,,,left,1,0.5025,0,70,70,6,1,7,6,7 | 6,1,1.9756,1.4111,congruent,left,,,,,,stimulusFile/magnitude.xlsx,,,,,,,,,,,,,,,,,,,,,,,,,,,,,,,
,,,,,,,,,,,,,,,820,2022-01-15_09h53.36.632,multiplicationStroop,2021.2.3,Win32,57.2672088,,,,,left,1,0.4804,0,71,71,4,1,2,1,2 | 1,1,1.9756,1.4111,congruent,left,,,,,,stimulusFile/magnitude.xlsx,,,,,,,,,,,,,,,,,,,,,,,,,,,,,,,
,,,,,,,,,,,,,,,820,2022-01-15_09h53.36.632,multiplicationStroop,2021.2.3,Win32,57.2672088,,,,,,,,,,,,,,,,,,,,,0,1,1,0,1,stimulusFile/magnitude.xlsx,NUMERICALLY larger (larger coefficient).,images/numericallyLarger.png,,,,,,,,,,,,,,,,,,,,,,,,,,,,,
,,,,,,,,,,,,,,,820,2022-01-15_09h53.36.632,multiplicationStroop,2021.2.3,Win32,57.2672088,,,,,,,,,,,,,,,,,,,,,,,,,,,,,space,6.9886,space,1.0864,56,2.2195,1,0,0,0,14,1,8,×,7,8 × 7,incongruent,largerFirst,1,2,56,,,,,,,,
,,,,,,,,,,,,,,,820,2022-01-15_09h53.36.632,multiplicationStroop,2021.2.3,Win32,57.2672088,,,,,,,,,,,,,,,,,,,,,,,,,,,,,,,,,6,1.936,1,0,1,1,11,1,2,×,3,2 × 3,incongruent,smallerFirst,2,1,6,,,,,,,,
,,,,,,,,,,,,,,,820,2022-01-15_09h53.36.632,multiplicationStroop,2021.2.3,Win32,57.2672088,,,,,,,,,,,,,,,,,,,,,,,,,,,,,,,,,10,1.8473,1,0,2,2,21,1,5,×,2,5 × 2,incongruent,largerFirst,1,2,10,,,,,,,,
,,,,,,,,,,,,,,,820,2022-01-15_09h53.36.632,multiplicationStroop,2021.2.3,Win32,57.2672088,,,,,,,,,,,,,,,,,,,,,,,,,,,,,,,,,63,2.8238,1,0,3,3,3,1,7,×,9,7 × 9,incongruent,smallerFirst,2,1,63,,,,,,,,
,,,,,,,,,,,,,,,820,2022-01-15_09h53.36.632,multiplicationStroop,2021.2.3,Win32,57.2672088,,,,,,,,,,,,,,,,,,,,,,,,,,,,,,,,,81,1.9597,1,0,4,4,35,1,9,×,9,9 × 9,incongruent,tie,1,2,81,,,,,,,,
,,,,,,,,,,,,,,,820,2022-01-15_09h53.36.632,multiplicationStroop,2021.2.3,Win32,57.2672088,,,,,,,,,,,,,,,,,,,,,,,,,,,,,,,,,36,1.7076,1,0,5,5,32,1,6,×,6,6 × 6,incongruent,tie,1,2,36,,,,,,,,
,,,,,,,,,,,,,,,820,2022-01-15_09h53.36.632,multiplicationStroop,2021.2.3,Win32,57.2672088,,,,,,,,,,,,,,,,,,,,,,,,,,,,,,,,,54,1.7249,1,0,6,6,6,1,6,×,9,6 × 9,incongruent,smallerFirst,2,1,54,,,,,,,,
,,,,,,,,,,,,,,,820,2022-01-15_09h53.36.632,multiplicationStroop,2021.2.3,Win32,57.2672088,,,,,,,,,,,,,,,,,,,,,,,,,,,,,,,,,4,1.6722,0,0,7,7,17,1,7,×,6,7 × 6,incongruent,largerFirst,1,2,42,,,,,,,,
,,,,,,,,,,,,,,,820,2022-01-15_09h53.36.632,multiplicationStroop,2021.2.3,Win32,57.2672088,,,,,,,,,,,,,,,,,,,,,,,,,,,,,,,,,25,1.498,1,0,8,8,31,1,5,×,5,5 × 5,incongruent,tie,1,2,25,,,,,,,,
,,,,,,,,,,,,,,,820,2022-01-15_09h53.36.632,multiplicationStroop,2021.2.3,Win32,57.2672088,,,,,,,,,,,,,,,,,,,,,,,,,,,,,,,,,9,1.3115,1,0,9,9,29,1,3,×,3,3 × 3,incongruent,tie,1,2,9,,,,,,,,
,,,,,,,,,,,,,,,820,2022-01-15_09h53.36.632,multiplicationStroop,2021.2.3,Win32,57.2672088,,,,,,,,,,,,,,,,,,,,,,,,,,,,,,,,,49,2.7391,1,0,10,10,33,1,7,×,7,7 × 7,incongruent,tie,1,2,49,,,,,,,,
,,,,,,,,,,,,,,,820,2022-01-15_09h53.36.632,multiplicationStroop,2021.2.3,Win32,57.2672088,,,,,,,,,,,,,,,,,,,,,,,,,,,,,,,,,14,1.3692,1,0,11,11,4,1,2,×,7,2 × 7,incongruent,smallerFirst,2,1,14,,,,,,,,
,,,,,,,,,,,,,,,820,2022-01-15_09h53.36.632,multiplicationStroop,2021.2.3,Win32,57.2672088,,,,,,,,,,,,,,,,,,,,,,,,,,,,,,,,,36,1.5004,1,0,12,12,15,1,9,×,4,9 × 4,incongruent,largerFirst,1,2,36,,,,,,,,
,,,,,,,,,,,,,,,820,2022-01-15_09h53.36.632,multiplicationStroop,2021.2.3,Win32,57.2672088,,,,,,,,,,,,,,,,,,,,,,,,,,,,,,,,,1,1.343,0,0,13,13,19,1,6,×,2,6 × 2,incongruent,largerFirst,1,2,12,,,,,,,,
,,,,,,,,,,,,,,,820,2022-01-15_09h53.36.632,multiplicationStroop,2021.2.3,Win32,57.2672088,,,,,,,,,,,,,,,,,,,,,,,,,,,,,,,,,30,1.5479,1,0,14,14,25,1,6,×,5,6 × 5,incongruent,largerFirst,1,2,30,,,,,,,,
,,,,,,,,,,,,,,,820,2022-01-15_09h53.36.632,multiplicationStroop,2021.2.3,Win32,57.2672088,,,,,,,,,,,,,,,,,,,,,,,,,,,,,,,,,48,2.1786,1,0,15,15,1,1,6,×,8,6 × 8,incongruent,smallerFirst,2,1,48,,,,,,,,
,,,,,,,,,,,,,,,820,2022-01-15_09h53.36.632,multiplicationStroop,2021.2.3,Win32,57.2672088,,,,,,,,,,,,,,,,,,,,,,,,,,,,,,,,,18,1.5672,1,0,16,16,2,1,2,×,9,2 × 9,incongruent,smallerFirst,2,1,18,,,,,,,,
,,,,,,,,,,,,,,,820,2022-01-15_09h53.36.632,multiplicationStroop,2021.2.3,Win32,57.2672088,,,,,,,,,,,,,,,,,,,,,,,,,,,,,,,,,64,1.8477,1,0,17,17,34,1,8,×,8,8 × 8,incongruent,tie,1,2,64,,,,,,,,
,,,,,,,,,,,,,,,820,2022-01-15_09h53.36.632,multiplicationStroop,2021.2.3,Win32,57.2672088,,,,,,,,,,,,,,,,,,,,,,,,,,,,,,,,,20,1.6027,1,0,18,18,27,1,5,×,4,5 × 4,incongruent,largerFirst,1,2,20,,,,,,,,
,,,,,,,,,,,,,,,820,2022-01-15_09h53.36.632,multiplicationStroop,2021.2.3,Win32,57.2672088,,,,,,,,,,,,,,,,,,,,,,,,,,,,,,,,,4,1.8994,1,0,19,19,28,1,2,×,2,2 × 2,incongruent,tie,1,2,4,,,,,,,,
,,,,,,,,,,,,,,,820,2022-01-15_09h53.36.632,multiplicationStroop,2021.2.3,Win32,57.2672088,,,,,,,,,,,,,,,,,,,,,,,,,,,,,,,,,45,2.4629,1,0,20,20,22,1,9,×,5,9 × 5,incongruent,largerFirst,1,2,45,,,,,,,,
,,,,,,,,,,,,,,,820,2022-01-15_09h53.36.632,multiplicationStroop,2021.2.3,Win32,57.2672088,,,,,,,,,,,,,,,,,,,,,,,,,,,,,,,,,16,1.4777,1,0,21,21,23,1,8,×,2,8 × 2,incongruent,largerFirst,1,2,16,,,,,,,,
,,,,,,,,,,,,,,,820,2022-01-15_09h53.36.632,multiplicationStroop,2021.2.3,Win32,57.2672088,,,,,,,,,,,,,,,,,,,,,,,,,,,,,,,,,18,1.5213,1,0,22,22,8,1,3,×,6,3 × 6,incongruent,smallerFirst,2,1,18,,,,,,,,
,,,,,,,,,,,,,,,820,2022-01-15_09h53.36.632,multiplicationStroop,2021.2.3,Win32,57.2672088,,,,,,,,,,,,,,,,,,,,,,,,,,,,,,,,,15,1.4257,1,0,23,23,10,1,3,×,5,3 × 5,incongruent,smallerFirst,2,1,15,,,,,,,,
,,,,,,,,,,,,,,,820,2022-01-15_09h53.36.632,multiplicationStroop,2021.2.3,Win32,57.2672088,,,,,,,,,,,,,,,,,,,,,,,,,,,,,,,,,24,1.7422,1,0,24,24,9,1,3,×,8,3 × 8,incongruent,smallerFirst,2,1,24,,,,,,,,
,,,,,,,,,,,,,,,820,2022-01-15_09h53.36.632,multiplicationStroop,2021.2.3,Win32,57.2672088,,,,,,,,,,,,,,,,,,,,,,,,,,,,,,,,,27,6.9248,1,0,25,25,18,1,9,×,3,9 × 3,incongruent,largerFirst,1,2,27,,,,,,,,
,,,,,,,,,,,,,,,820,2022-01-15_09h53.36.632,multiplicationStroop,2021.2.3,Win32,57.2672088,,,,,,,,,,,,,,,,,,,,,,,,,,,,,,,,,21,2.3852,1,0,26,26,26,1,7,×,3,7 × 3,incongruent,largerFirst,1,2,21,,,,,,,,
,,,,,,,,,,,,,,,820,2022-01-15_09h53.36.632,multiplicationStroop,2021.2.3,Win32,57.2672088,,,,,,,,,,,,,,,,,,,,,,,,,,,,,,,,,40,1.861,1,0,27,27,13,1,5,×,8,5 × 8,incongruent,smallerFirst,2,1,40,,,,,,,,
,,,,,,,,,,,,,,,820,2022-01-15_09h53.36.632,multiplicationStroop,2021.2.3,Win32,57.2672088,,,,,,,,,,,,,,,,,,,,,,,,,,,,,,,,,8,1.3585,1,0,28,28,24,1,4,×,2,4 × 2,incongruent,largerFirst,1,2,8,,,,,,,,
,,,,,,,,,,,,,,,820,2022-01-15_09h53.36.632,multiplicationStroop,2021.2.3,Win32,57.2672088,,,,,,,,,,,,,,,,,,,,,,,,,,,,,,,,,12,1.2238,1,0,29,29,5,1,3,×,4,3 × 4,incongruent,smallerFirst,2,1,12,,,,,,,,
,,,,,,,,,,,,,,,820,2022-01-15_09h53.36.632,multiplicationStroop,2021.2.3,Win32,57.2672088,,,,,,,,,,,,,,,,,,,,,,,,,,,,,,,,,72,2.6295,1,0,30,30,0,1,8,×,9,8 × 9,incongruent,smallerFirst,2,1,72,,,,,,,,
,,,,,,,,,,,,,,,820,2022-01-15_09h53.36.632,multiplicationStroop,2021.2.3,Win32,57.2672088,,,,,,,,,,,,,,,,,,,,,,,,,,,,,,,,,32,1.9955,1,0,31,31,7,1,4,×,8,4 × 8,incongruent,smallerFirst,2,1,32,,,,,,,,
,,,,,,,,,,,,,,,820,2022-01-15_09h53.36.632,multiplicationStroop,2021.2.3,Win32,57.2672088,,,,,,,,,,,,,,,,,,,,,,,,,,,,,,,,,28,2.7944,1,0,32,32,16,1,7,×,4,7 × 4,incongruent,largerFirst,1,2,28,,,,,,,,
,,,,,,,,,,,,,,,820,2022-01-15_09h53.36.632,multiplicationStroop,2021.2.3,Win32,57.2672088,,,,,,,,,,,,,,,,,,,,,,,,,,,,,,,,,35,1.6396,1,0,33,33,12,1,5,×,7,5 × 7,incongruent,smallerFirst,2,1,35,,,,,,,,
,,,,,,,,,,,,,,,820,2022-01-15_09h53.36.632,multiplicationStroop,2021.2.3,Win32,57.2672088,,,,,,,,,,,,,,,,,,,,,,,,,,,,,,,,,24,2.0887,1,0,34,34,20,1,6,×,4,6 × 4,incongruent,largerFirst,1,2,24,,,,,,,,
,,,,,,,,,,,,,,,820,2022-01-15_09h53.36.632,multiplicationStroop,2021.2.3,Win32,57.2672088,,,,,,,,,,,,,,,,,,,,,,,,,,,,,,,,,16,1.8867,1,0,35,35,30,1,4,×,4,4 × 4,incongruent,tie,1,2,16,,,,,,,,
,,,,,,,,,,,,,,,820,2022-01-15_09h53.36.632,multiplicationStroop,2021.2.3,Win32,57.2672088,,,,,,,,,,,,,,,,,,,,,,,,,,,,,,,,,,,,,,,,,,,,,,,,,,0,0,0,5,1,stimulusFile/mult_blk6_INcongruent.xlsx,,
,,,,,,,,,,,,,,,820,2022-01-15_09h53.36.632,multiplicationStroop,2021.2.3,Win32,57.2672088,,,,,,,,,,,,,,,,,,,,,,,,,,,,,,,space,1.0758,18,1.3401,1,0,0,0,14,1,6,×,3,6 × 3,neutral,largerFirst,1.5,1.5,18,,,,,,,,
,,,,,,,,,,,,,,,820,2022-01-15_09h53.36.632,multiplicationStroop,2021.2.3,Win32,57.2672088,,,,,,,,,,,,,,,,,,,,,,,,,,,,,,,,,1,1.3455,0,0,1,1,7,1,3,×,4,3 × 4,neutral,smallerFirst,1.5,1.5,12,,,,,,,,
,,,,,,,,,,,,,,,820,2022-01-15_09h53.36.632,multiplicationStroop,2021.2.3,Win32,57.2672088,,,,,,,,,,,,,,,,,,,,,,,,,,,,,,,,,35,1.7047,1,0,2,2,15,1,7,×,5,7 × 5,neutral,largerFirst,1.5,1.5,35,,,,,,,,
,,,,,,,,,,,,,,,820,2022-01-15_09h53.36.632,multiplicationStroop,2021.2.3,Win32,57.2672088,,,,,,,,,,,,,,,,,,,,,,,,,,,,,,,,,6,1.5156,1,0,3,3,12,1,2,×,3,2 × 3,neutral,smallerFirst,1.5,1.5,6,,,,,,,,
,,,,,,,,,,,,,,,820,2022-01-15_09h53.36.632,multiplicationStroop,2021.2.3,Win32,57.2672088,,,,,,,,,,,,,,,,,,,,,,,,,,,,,,,,,8,1.3291,1,0,4,4,17,1,4,×,2,4 × 2,neutral,largerFirst,1.5,1.5,8,,,,,,,,
,,,,,,,,,,,,,,,820,2022-01-15_09h53.36.632,multiplicationStroop,2021.2.3,Win32,57.2672088,,,,,,,,,,,,,,,,,,,,,,,,,,,,,,,,,64,2.0226,1,0,5,5,34,1,8,×,8,8 × 8,neutral,tie,1.5,1.5,64,,,,,,,,
,,,,,,,,,,,,,,,820,2022-01-15_09h53.36.632,multiplicationStroop,2021.2.3,Win32,57.2672088,,,,,,,,,,,,,,,,,,,,,,,,,,,,,,,,,42,2.3505,1,0,6,6,20,1,7,×,6,7 × 6,neutral,largerFirst,1.5,1.5,42,,,,,,,,
,,,,,,,,,,,,,,,820,2022-01-15_09h53.36.632,multiplicationStroop,2021.2.3,Win32,57.2672088,,,,,,,,,,,,,,,,,,,,,,,,,,,,,,,,,56,1.9004,1,0,7,7,23,1,8,×,7,8 × 7,neutral,largerFirst,1.5,1.5,56,,,,,,,,
,,,,,,,,,,,,,,,820,2022-01-15_09h53.36.632,multiplicationStroop,2021.2.3,Win32,57.2672088,,,,,,,,,,,,,,,,,,,,,,,,,,,,,,,,,14,1.4329,1,0,8,8,2,1,2,×,7,2 × 7,neutral,smallerFirst,1.5,1.5,14,,,,,,,,
,,,,,,,,,,,,,,,820,2022-01-15_09h53.36.632,multiplicationStroop,2021.2.3,Win32,57.2672088,,,,,,,,,,,,,,,,,,,,,,,,,,,,,,,,,54,2.8043,1,0,9,9,21,1,9,×,6,9 × 6,neutral,largerFirst,1.5,1.5,54,,,,,,,,
,,,,,,,,,,,,,,,820,2022-01-15_09h53.36.632,multiplicationStroop,2021.2.3,Win32,57.2672088,,,,,,,,,,,,,,,,,,,,,,,,,,,,,,,,,32,1.6729,1,0,10,10,9,1,4,×,8,4 × 8,neutral,smallerFirst,1.5,1.5,32,,,,,,,,
,,,,,,,,,,,,,,,820,2022-01-15_09h53.36.632,multiplicationStroop,2021.2.3,Win32,57.2672088,,,,,,,,,,,,,,,,,,,,,,,,,,,,,,,,,16,1.406,1,0,11,11,27,1,8,×,2,8 × 2,neutral,largerFirst,1.5,1.5,16,,,,,,,,
,,,,,,,,,,,,,,,820,2022-01-15_09h53.36.632,multiplicationStroop,2021.2.3,Win32,57.2672088,,,,,,,,,,,,,,,,,,,,,,,,,,,,,,,,,49,1.7149,1,0,12,12,33,1,7,×,7,7 × 7,neutral,tie,1.5,1.5,49,,,,,,,,
,,,,,,,,,,,,,,,820,2022-01-15_09h53.36.632,multiplicationStroop,2021.2.3,Win32,57.2672088,,,,,,,,,,,,,,,,,,,,,,,,,,,,,,,,,40,1.5847,1,0,13,13,10,1,5,×,8,5 × 8,neutral,smallerFirst,1.5,1.5,40,,,,,,,,
,,,,,,,,,,,,,,,820,2022-01-15_09h53.36.632,multiplicationStroop,2021.2.3,Win32,57.2672088,,,,,,,,,,,,,,,,,,,,,,,,,,,,,,,,,9,1.4463,1,0,14,14,29,1,3,×,3,3 × 3,neutral,tie,1.5,1.5,9,,,,,,,,
,,,,,,,,,,,,,,,820,2022-01-15_09h53.36.632,multiplicationStroop,2021.2.3,Win32,57.2672088,,,,,,,,,,,,,,,,,,,,,,,,,,,,,,,,,24,3.1726,1,0,15,15,8,1,3,×,8,3 × 8,neutral,smallerFirst,1.5,1.5,24,,,,,,,,
,,,,,,,,,,,,,,,820,2022-01-15_09h53.36.632,multiplicationStroop,2021.2.3,Win32,57.2672088,,,,,,,,,,,,,,,,,,,,,,,,,,,,,,,,,36,1.4897,1,0,16,16,13,1,4,×,9,4 × 9,neutral,smallerFirst,1.5,1.5,36,,,,,,,,
,,,,,,,,,,,,,,,820,2022-01-15_09h53.36.632,multiplicationStroop,2021.2.3,Win32,57.2672088,,,,,,,,,,,,,,,,,,,,,,,,,,,,,,,,,36,1.9168,1,0,17,17,32,1,6,×,6,6 × 6,neutral,tie,1.5,1.5,36,,,,,,,,
,,,,,,,,,,,,,,,820,2022-01-15_09h53.36.632,multiplicationStroop,2021.2.3,Win32,57.2672088,,,,,,,,,,,,,,,,,,,,,,,,,,,,,,,,,48,2.1446,1,0,18,18,1,1,6,×,8,6 × 8,neutral,smallerFirst,1.5,1.5,48,,,,,,,,
,,,,,,,,,,,,,,,820,2022-01-15_09h53.36.632,multiplicationStroop,2021.2.3,Win32,57.2672088,,,,,,,,,,,,,,,,,,,,,,,,,,,,,,,,,21,1.6995,1,0,19,19,22,1,7,×,3,7 × 3,neutral,largerFirst,1.5,1.5,21,,,,,,,,
,,,,,,,,,,,,,,,820,2022-01-15_09h53.36.632,multiplicationStroop,2021.2.3,Win32,57.2672088,,,,,,,,,,,,,,,,,,,,,,,,,,,,,,,,,4,1.1493,1,0,20,20,28,1,2,×,2,2 × 2,neutral,tie,1.5,1.5,4,,,,,,,,
,,,,,,,,,,,,,,,820,2022-01-15_09h53.36.632,multiplicationStroop,2021.2.3,Win32,57.2672088,,,,,,,,,,,,,,,,,,,,,,,,,,,,,,,,,10,1.4975,1,0,21,21,18,1,5,×,2,5 × 2,neutral,largerFirst,1.5,1.5,10,,,,,,,,
,,,,,,,,,,,,,,,820,2022-01-15_09h53.36.632,multiplicationStroop,2021.2.3,Win32,57.2672088,,,,,,,,,,,,,,,,,,,,,,,,,,,,,,,,,63,2.0409,1,0,22,22,26,1,9,×,7,9 × 7,neutral,largerFirst,1.5,1.5,63,,,,,,,,
,,,,,,,,,,,,,,,820,2022-01-15_09h53.36.632,multiplicationStroop,2021.2.3,Win32,57.2672088,,,,,,,,,,,,,,,,,,,,,,,,,,,,,,,,,18,1.5873,1,0,23,23,4,1,2,×,9,2 × 9,neutral,smallerFirst,1.5,1.5,18,,,,,,,,
,,,,,,,,,,,,,,,820,2022-01-15_09h53.36.632,multiplicationStroop,2021.2.3,Win32,57.2672088,,,,,,,,,,,,,,,,,,,,,,,,,,,,,,,,,27,1.9361,1,0,24,24,0,1,3,×,9,3 × 9,neutral,smallerFirst,1.5,1.5,27,,,,,,,,
,,,,,,,,,,,,,,,820,2022-01-15_09h53.36.632,multiplicationStroop,2021.2.3,Win32,57.2672088,,,,,,,,,,,,,,,,,,,,,,,,,,,,,,,,,20,1.6045,1,0,25,25,6,1,4,×,5,4 × 5,neutral,smallerFirst,1.5,1.5,20,,,,,,,,
,,,,,,,,,,,,,,,820,2022-01-15_09h53.36.632,multiplicationStroop,2021.2.3,Win32,57.2672088,,,,,,,,,,,,,,,,,,,,,,,,,,,,,,,,,15,1.9017,1,0,26,26,19,1,5,×,3,5 × 3,neutral,largerFirst,1.5,1.5,15,,,,,,,,
,,,,,,,,,,,,,,,820,2022-01-15_09h53.36.632,multiplicationStroop,2021.2.3,Win32,57.2672088,,,,,,,,,,,,,,,,,,,,,,,,,,,,,,,,,12,1.5175,1,0,27,27,11,1,2,×,6,2 × 6,neutral,smallerFirst,1.5,1.5,12,,,,,,,,
,,,,,,,,,,,,,,,820,2022-01-15_09h53.36.632,multiplicationStroop,2021.2.3,Win32,57.2672088,,,,,,,,,,,,,,,,,,,,,,,,,,,,,,,,,24,2.2679,1,0,28,28,16,1,6,×,4,6 × 4,neutral,largerFirst,1.5,1.5,24,,,,,,,,
,,,,,,,,,,,,,,,820,2022-01-15_09h53.36.632,multiplicationStroop,2021.2.3,Win32,57.2672088,,,,,,,,,,,,,,,,,,,,,,,,,,,,,,,,,28,3.1577,1,0,29,29,3,1,4,×,7,4 × 7,neutral,smallerFirst,1.5,1.5,28,,,,,,,,
,,,,,,,,,,,,,,,820,2022-01-15_09h53.36.632,multiplicationStroop,2021.2.3,Win32,57.2672088,,,,,,,,,,,,,,,,,,,,,,,,,,,,,,,,,81,1.4903,1,0,30,30,35,1,9,×,9,9 × 9,neutral,tie,1.5,1.5,81,,,,,,,,
,,,,,,,,,,,,,,,820,2022-01-15_09h53.36.632,multiplicationStroop,2021.2.3,Win32,57.2672088,,,,,,,,,,,,,,,,,,,,,,,,,,,,,,,,,72,1.6222,1,0,31,31,25,1,9,×,8,9 × 8,neutral,largerFirst,1.5,1.5,72,,,,,,,,
,,,,,,,,,,,,,,,820,2022-01-15_09h53.36.632,multiplicationStroop,2021.2.3,Win32,57.2672088,,,,,,,,,,,,,,,,,,,,,,,,,,,,,,,,,30,1.3606,1,0,32,32,5,1,5,×,6,5 × 6,neutral,smallerFirst,1.5,1.5,30,,,,,,,,
,,,,,,,,,,,,,,,820,2022-01-15_09h53.36.632,multiplicationStroop,2021.2.3,Win32,57.2672088,,,,,,,,,,,,,,,,,,,,,,,,,,,,,,,,,52,2.4249,0,0,33,33,31,1,5,×,5,5 × 5,neutral,tie,1.5,1.5,25,,,,,,,,
,,,,,,,,,,,,,,,820,2022-01-15_09h53.36.632,multiplicationStroop,2021.2.3,Win32,57.2672088,,,,,,,,,,,,,,,,,,,,,,,,,,,,,,,,,45,2.7041,1,0,34,34,24,1,9,×,5,9 × 5,neutral,largerFirst,1.5,1.5,45,,,,,,,,
,,,,,,,,,,,,,,,820,2022-01-15_09h53.36.632,multiplicationStroop,2021.2.3,Win32,57.2672088,,,,,,,,,,,,,,,,,,,,,,,,,,,,,,,,,16,1.5602,1,0,35,35,30,1,4,×,4,4 × 4,neutral,tie,1.5,1.5,16,,,,,,,,
,,,,,,,,,,,,,,,820,2022-01-15_09h53.36.632,multiplicationStroop,2021.2.3,Win32,57.2672088,,,,,,,,,,,,,,,,,,,,,,,,,,,,,,,,,,,,,,,,,,,,,,,,,,0,1,1,0,1,stimulusFile/mult_blk1.xlsx,,
,,,,,,,,,,,,,,,820,2022-01-15_09h53.36.632,multiplicationStroop,2021.2.3,Win32,57.2672088,,,,,,,,,,,,,,,,,,,,,,,,,,,,,,,space,0.8286,20,1.7115,1,0,0,0,20,1,5,×,4,5 × 4,neutral,largerFirst,1.5,1.5,20,,,,,,,,
,,,,,,,,,,,,,,,820,2022-01-15_09h53.36.632,multiplicationStroop,2021.2.3,Win32,57.2672088,,,,,,,,,,,,,,,,,,,,,,,,,,,,,,,,,48,2.3376,1,0,1,1,15,1,8,×,6,8 × 6,neutral,largerFirst,1.5,1.5,48,,,,,,,,
,,,,,,,,,,,,,,,820,2022-01-15_09h53.36.632,multiplicationStroop,2021.2.3,Win32,57.2672088,,,,,,,,,,,,,,,,,,,,,,,,,,,,,,,,,32,2.0409,1,0,2,2,23,1,8,×,4,8 × 4,neutral,largerFirst,1.5,1.5,32,,,,,,,,
,,,,,,,,,,,,,,,820,2022-01-15_09h53.36.632,multiplicationStroop,2021.2.3,Win32,57.2672088,,,,,,,,,,,,,,,,,,,,,,,,,,,,,,,,,9,1.4826,1,0,3,3,29,1,3,×,3,3 × 3,neutral,tie,1.5,1.5,9,,,,,,,,
,,,,,,,,,,,,,,,820,2022-01-15_09h53.36.632,multiplicationStroop,2021.2.3,Win32,57.2672088,,,,,,,,,,,,,,,,,,,,,,,,,,,,,,,,,42,2.8963,1,0,4,4,6,1,6,×,7,6 × 7,neutral,smallerFirst,1.5,1.5,42,,,,,,,,
,,,,,,,,,,,,,,,820,2022-01-15_09h53.36.632,multiplicationStroop,2021.2.3,Win32,57.2672088,,,,,,,,,,,,,,,,,,,,,,,,,,,,,,,,,56,4.0824,1,0,5,5,9,1,7,×,8,7 × 8,neutral,smallerFirst,1.5,1.5,56,,,,,,,,
,,,,,,,,,,,,,,,820,2022-01-15_09h53.36.632,multiplicationStroop,2021.2.3,Win32,57.2672088,,,,,,,,,,,,,,,,,,,,,,,,,,,,,,,,,40,1.4899,1,0,6,6,24,1,8,×,5,8 × 5,neutral,largerFirst,1.5,1.5,40,,,,,,,,
,,,,,,,,,,,,,,,820,2022-01-15_09h53.36.632,multiplicationStroop,2021.2.3,Win32,57.2672088,,,,,,,,,,,,,,,,,,,,,,,,,,,,,,,,,72,1.6223,1,0,7,7,11,1,8,×,9,8 × 9,neutral,smallerFirst,1.5,1.5,72,,,,,,,,
,,,,,,,,,,,,,,,820,2022-01-15_09h53.36.632,multiplicationStroop,2021.2.3,Win32,57.2672088,,,,,,,,,,,,,,,,,,,,,,,,,,,,,,,,,24,2.0234,1,0,8,8,2,1,4,×,6,4 × 6,neutral,smallerFirst,1.5,1.5,24,,,,,,,,
,,,,,,,,,,,,,,,820,2022-01-15_09h53.36.632,multiplicationStroop,2021.2.3,Win32,57.2672088,,,,,,,,,,,,,,,,,,,,,,,,,,,,,,,,,54,2.7913,1,0,9,9,7,1,6,×,9,6 × 9,neutral,smallerFirst,1.5,1.5,54,,,,,,,,
,,,,,,,,,,,,,,,820,2022-01-15_09h53.36.632,multiplicationStroop,2021.2.3,Win32,57.2672088,,,,,,,,,,,,,,,,,,,,,,,,,,,,,,,,,8,1.4303,1,0,10,10,3,1,2,×,4,2 × 4,neutral,smallerFirst,1.5,1.5,8,,,,,,,,
,,,,,,,,,,,,,,,820,2022-01-15_09h53.36.632,multiplicationStroop,2021.2.3,Win32,57.2672088,,,,,,,,,,,,,,,,,,,,,,,,,,,,,,,,,28,2.3901,1,0,11,11,17,1,7,×,4,7 × 4,neutral,largerFirst,1.5,1.5,28,,,,,,,,
,,,,,,,,,,,,,,,820,2022-01-15_09h53.36.632,multiplicationStroop,2021.2.3,Win32,57.2672088,,,,,,,,,,,,,,,,,,,,,,,,,,,,,,,,,14,1.5176,1,0,12,12,16,1,7,×,2,7 × 2,neutral,largerFirst,1.5,1.5,14,,,,,,,,
,,,,,,,,,,,,,,,820,2022-01-15_09h53.36.632,multiplicationStroop,2021.2.3,Win32,57.2672088,,,,,,,,,,,,,,,,,,,,,,,,,,,,,,,,,64,1.7094,1,0,13,13,34,1,8,×,8,8 × 8,neutral,tie,1.5,1.5,64,,,,,,,,
,,,,,,,,,,,,,,,820,2022-01-15_09h53.36.632,multiplicationStroop,2021.2.3,Win32,57.2672088,,,,,,,,,,,,,,,,,,,,,,,,,,,,,,,,,36,1.8318,1,0,14,14,32,1,6,×,6,6 × 6,neutral,tie,1.5,1.5,36,,,,,,,,
,,,,,,,,,,,,,,,820,2022-01-15_09h53.36.632,multiplicationStroop,2021.2.3,Win32,57.2672088,,,,,,,,,,,,,,,,,,,,,,,,,,,,,,,,,16,1.6744,1,0,15,15,13,1,2,×,8,2 × 8,neutral,smallerFirst,1.5,1.5,16,,,,,,,,
,,,,,,,,,,,,,,,820,2022-01-15_09h53.36.632,multiplicationStroop,2021.2.3,Win32,57.2672088,,,,,,,,,,,,,,,,,,,,,,,,,,,,,,,,,15,1.4829,1,0,16,16,5,1,3,×,5,3 × 5,neutral,smallerFirst,1.5,1.5,15,,,,,,,,
,,,,,,,,,,,,,,,820,2022-01-15_09h53.36.632,multiplicationStroop,2021.2.3,Win32,57.2672088,,,,,,,,,,,,,,,,,,,,,,,,,,,,,,,,,16,1.5176,1,0,17,17,30,1,4,×,4,4 × 4,neutral,tie,1.5,1.5,16,,,,,,,,
,,,,,,,,,,,,,,,820,2022-01-15_09h53.36.632,multiplicationStroop,2021.2.3,Win32,57.2672088,,,,,,,,,,,,,,,,,,,,,,,,,,,,,,,,,12,2.0585,1,0,18,18,21,1,4,×,3,4 × 3,neutral,largerFirst,1.5,1.5,12,,,,,,,,
,,,,,,,,,,,,,,,820,2022-01-15_09h53.36.632,multiplicationStroop,2021.2.3,Win32,57.2672088,,,,,,,,,,,,,,,,,,,,,,,,,,,,,,,,,6,1.7792,1,0,19,19,26,1,3,×,2,3 × 2,neutral,largerFirst,1.5,1.5,6,,,,,,,,
,,,,,,,,,,,,,,,820,2022-01-15_09h53.36.632,multiplicationStroop,2021.2.3,Win32,57.2672088,,,,,,,,,,,,,,,,,,,,,,,,,,,,,,,,,27,2.3899,1,0,20,20,14,1,9,×,3,9 × 3,neutral,largerFirst,1.5,1.5,27,,,,,,,,
,,,,,,,,,,,,,,,820,2022-01-15_09h53.36.632,multiplicationStroop,2021.2.3,Win32,57.2672088,,,,,,,,,,,,,,,,,,,,,,,,,,,,,,,,,18,1.6049,1,0,21,21,18,1,9,×,2,9 × 2,neutral,largerFirst,1.5,1.5,18,,,,,,,,
,,,,,,,,,,,,,,,820,2022-01-15_09h53.36.632,multiplicationStroop,2021.2.3,Win32,57.2672088,,,,,,,,,,,,,,,,,,,,,,,,,,,,,,,,,12,1.5177,1,0,22,22,25,1,6,×,2,6 × 2,neutral,largerFirst,1.5,1.5,12,,,,,,,,
,,,,,,,,,,,,,,,820,2022-01-15_09h53.36.632,multiplicationStroop,2021.2.3,Win32,57.2672088,,,,,,,,,,,,,,,,,,,,,,,,,,,,,,,,,24,1.8839,1,0,23,23,22,1,8,×,3,8 × 3,neutral,largerFirst,1.5,1.5,24,,,,,,,,
,,,,,,,,,,,,,,,820,2022-01-15_09h53.36.632,multiplicationStroop,2021.2.3,Win32,57.2672088,,,,,,,,,,,,,,,,,,,,,,,,,,,,,,,,,30,1.3955,1,0,24,24,19,1,6,×,5,6 × 5,neutral,largerFirst,1.5,1.5,30,,,,,,,,
,,,,,,,,,,,,,,,820,2022-01-15_09h53.36.632,multiplicationStroop,2021.2.3,Win32,57.2672088,,,,,,,,,,,,,,,,,,,,,,,,,,,,,,,,,81,1.378,1,0,25,25,35,1,9,×,9,9 × 9,neutral,tie,1.5,1.5,81,,,,,,,,
,,,,,,,,,,,,,,,820,2022-01-15_09h53.36.632,multiplicationStroop,2021.2.3,Win32,57.2672088,,,,,,,,,,,,,,,,,,,,,,,,,,,,,,,,,10,1.2906,1,0,26,26,4,1,2,×,5,2 × 5,neutral,smallerFirst,1.5,1.5,10,,,,,,,,
,,,,,,,,,,,,,,,820,2022-01-15_09h53.36.632,multiplicationStroop,2021.2.3,Win32,57.2672088,,,,,,,,,,,,,,,,,,,,,,,,,,,,,,,,,63,2.0062,1,0,27,27,12,1,7,×,9,7 × 9,neutral,smallerFirst,1.5,1.5,63,,,,,,,,
,,,,,,,,,,,,,,,820,2022-01-15_09h53.36.632,multiplicationStroop,2021.2.3,Win32,57.2672088,,,,,,,,,,,,,,,,,,,,,,,,,,,,,,,,,35,1.6746,1,0,28,28,1,1,5,×,7,5 × 7,neutral,smallerFirst,1.5,1.5,35,,,,,,,,
,,,,,,,,,,,,,,,820,2022-01-15_09h53.36.632,multiplicationStroop,2021.2.3,Win32,57.2672088,,,,,,,,,,,,,,,,,,,,,,,,,,,,,,,,,4,1.3257,1,0,29,29,28,1,2,×,2,2 × 2,neutral,tie,1.5,1.5,4,,,,,,,,
,,,,,,,,,,,,,,,820,2022-01-15_09h53.36.632,multiplicationStroop,2021.2.3,Win32,57.2672088,,,,,,,,,,,,,,,,,,,,,,,,,,,,,,,,,25,1.6397,1,0,30,30,31,1,5,×,5,5 × 5,neutral,tie,1.5,1.5,25,,,,,,,,
,,,,,,,,,,,,,,,820,2022-01-15_09h53.36.632,multiplicationStroop,2021.2.3,Win32,57.2672088,,,,,,,,,,,,,,,,,,,,,,,,,,,,,,,,,49,1.8838,1,0,31,31,33,1,7,×,7,7 × 7,neutral,tie,1.5,1.5,49,,,,,,,,
,,,,,,,,,,,,,,,820,2022-01-15_09h53.36.632,multiplicationStroop,2021.2.3,Win32,57.2672088,,,,,,,,,,,,,,,,,,,,,,,,,,,,,,,,,45,1.535,1,0,32,32,10,1,5,×,9,5 × 9,neutral,smallerFirst,1.5,1.5,45,,,,,,,,
,,,,,,,,,,,,,,,820,2022-01-15_09h53.36.632,multiplicationStroop,2021.2.3,Win32,57.2672088,,,,,,,,,,,,,,,,,,,,,,,,,,,,,,,,,21,2.0936,1,0,33,33,8,1,3,×,7,3 × 7,neutral,smallerFirst,1.5,1.5,21,,,,,,,,
,,,,,,,,,,,,,,,820,2022-01-15_09h53.36.632,multiplicationStroop,2021.2.3,Win32,57.2672088,,,,,,,,,,,,,,,,,,,,,,,,,,,,,,,,,18,1.3954,1,0,34,34,0,1,3,×,6,3 × 6,neutral,smallerFirst,1.5,1.5,18,,,,,,,,
,,,,,,,,,,,,,,,820,2022-01-15_09h53.36.632,multiplicationStroop,2021.2.3,Win32,57.2672088,,,,,,,,,,,,,,,,,,,,,,,,,,,,,,,,,36,1.9059,1,0,35,35,27,1,9,×,4,9 × 4,neutral,largerFirst,1.5,1.5,36,,,,,,,,
,,,,,,,,,,,,,,,820,2022-01-15_09h53.36.632,multiplicationStroop,2021.2.3,Win32,57.2672088,,,,,,,,,,,,,,,,,,,,,,,,,,,,,,,,,,,,,,,,,,,,,,,,,,0,2,2,1,1,stimulusFile/mult_blk2.xlsx,,
,,,,,,,,,,,,,,,820,2022-01-15_09h53.36.632,multiplicationStroop,2021.2.3,Win32,57.2672088,,,,,,,,,,,,,,,,,,,,,,,,,,,,,,,space,0.8262,45,2.1982,1,0,0,0,23,1,9,×,5,9 × 5,congruent,largerFirst,2,1,45,,,,,,,,
,,,,,,,,,,,,,,,820,2022-01-15_09h53.36.632,multiplicationStroop,2021.2.3,Win32,57.2672088,,,,,,,,,,,,,,,,,,,,,,,,,,,,,,,,,64,2.1319,1,0,1,1,34,1,8,×,8,8 × 8,neutral,tie,2,1,64,,,,,,,,
,,,,,,,,,,,,,,,820,2022-01-15_09h53.36.632,multiplicationStroop,2021.2.3,Win32,57.2672088,,,,,,,,,,,,,,,,,,,,,,,,,,,,,,,,,14,1.3458,1,0,2,2,14,1,7,×,2,7 × 2,congruent,largerFirst,2,1,14,,,,,,,,
,,,,,,,,,,,,,,,820,2022-01-15_09h53.36.632,multiplicationStroop,2021.2.3,Win32,57.2672088,,,,,,,,,,,,,,,,,,,,,,,,,,,,,,,,,48,2.5076,1,0,3,3,18,1,8,×,6,8 × 6,congruent,largerFirst,2,1,48,,,,,,,,
,,,,,,,,,,,,,,,820,2022-01-15_09h53.36.632,multiplicationStroop,2021.2.3,Win32,57.2672088,,,,,,,,,,,,,,,,,,,,,,,,,,,,,,,,,21,1.5646,1,0,4,4,16,1,7,×,3,7 × 3,congruent,largerFirst,2,1,21,,,,,,,,
,,,,,,,,,,,,,,,820,2022-01-15_09h53.36.632,multiplicationStroop,2021.2.3,Win32,57.2672088,,,,,,,,,,,,,,,,,,,,,,,,,,,,,,,,,40,1.896,1,0,5,5,6,1,5,×,8,5 × 8,congruent,smallerFirst,1,2,40,,,,,,,,
,,,,,,,,,,,,,,,820,2022-01-15_09h53.36.632,multiplicationStroop,2021.2.3,Win32,57.2672088,,,,,,,,,,,,,,,,,,,,,,,,,,,,,,,,,16,1.5026,1,0,6,6,5,1,2,×,8,2 × 8,congruent,smallerFirst,1,2,16,,,,,,,,
,,,,,,,,,,,,,,,820,2022-01-15_09h53.36.632,multiplicationStroop,2021.2.3,Win32,57.2672088,,,,,,,,,,,,,,,,,,,,,,,,,,,,,,,,,1,1.2037,0,0,7,7,19,1,6,×,2,6 × 2,congruent,largerFirst,2,1,12,,,,,,,,
,,,,,,,,,,,,,,,820,2022-01-15_09h53.36.632,multiplicationStroop,2021.2.3,Win32,57.2672088,,,,,,,,,,,,,,,,,,,,,,,,,,,,,,,,,24,2.281,1,0,8,8,10,1,3,×,8,3 × 8,congruent,smallerFirst,1,2,24,,,,,,,,
,,,,,,,,,,,,,,,820,2022-01-15_09h53.36.632,multiplicationStroop,2021.2.3,Win32,57.2672088,,,,,,,,,,,,,,,,,,,,,,,,,,,,,,,,,28,2.009,1,0,9,9,27,1,7,×,4,7 × 4,congruent,largerFirst,2,1,28,,,,,,,,
,,,,,,,,,,,,,,,820,2022-01-15_09h53.36.632,multiplicationStroop,2021.2.3,Win32,57.2672088,,,,,,,,,,,,,,,,,,,,,,,,,,,,,,,,,4,2.0186,1,0,10,10,28,1,2,×,2,2 × 2,neutral,tie,2,1,4,,,,,,,,
,,,,,,,,,,,,,,,820,2022-01-15_09h53.36.632,multiplicationStroop,2021.2.3,Win32,57.2672088,,,,,,,,,,,,,,,,,,,,,,,,,,,,,,,,,63,2.1267,1,0,11,11,21,1,9,×,7,9 × 7,congruent,largerFirst,2,1,63,,,,,,,,
,,,,,,,,,,,,,,,820,2022-01-15_09h53.36.632,multiplicationStroop,2021.2.3,Win32,57.2672088,,,,,,,,,,,,,,,,,,,,,,,,,,,,,,,,,10,1.3954,1,0,12,12,24,1,5,×,2,5 × 2,congruent,largerFirst,2,1,10,,,,,,,,
,,,,,,,,,,,,,,,820,2022-01-15_09h53.36.632,multiplicationStroop,2021.2.3,Win32,57.2672088,,,,,,,,,,,,,,,,,,,,,,,,,,,,,,,,,25,1.8666,1,0,13,13,31,1,5,×,5,5 × 5,neutral,tie,2,1,25,,,,,,,,
,,,,,,,,,,,,,,,820,2022-01-15_09h53.36.632,multiplicationStroop,2021.2.3,Win32,57.2672088,,,,,,,,,,,,,,,,,,,,,,,,,,,,,,,,,72,1.8491,1,0,14,14,17,1,9,×,8,9 × 8,congruent,largerFirst,2,1,72,,,,,,,,
,,,,,,,,,,,,,,,820,2022-01-15_09h53.36.632,multiplicationStroop,2021.2.3,Win32,57.2672088,,,,,,,,,,,,,,,,,,,,,,,,,,,,,,,,,30,1.4477,1,0,15,15,15,1,6,×,5,6 × 5,congruent,largerFirst,2,1,30,,,,,,,,
,,,,,,,,,,,,,,,820,2022-01-15_09h53.36.632,multiplicationStroop,2021.2.3,Win32,57.2672088,,,,,,,,,,,,,,,,,,,,,,,,,,,,,,,,,9,1.3778,1,0,16,16,29,1,3,×,3,3 × 3,neutral,tie,2,1,9,,,,,,,,
,,,,,,,,,,,,,,,820,2022-01-15_09h53.36.632,multiplicationStroop,2021.2.3,Win32,57.2672088,,,,,,,,,,,,,,,,,,,,,,,,,,,,,,,,,36,1.5874,1,0,17,17,32,1,6,×,6,6 × 6,neutral,tie,2,1,36,,,,,,,,
,,,,,,,,,,,,,,,820,2022-01-15_09h53.36.632,multiplicationStroop,2021.2.3,Win32,57.2672088,,,,,,,,,,,,,,,,,,,,,,,,,,,,,,,,,49,1.8316,1,0,18,18,33,1,7,×,7,7 × 7,neutral,tie,2,1,49,,,,,,,,
,,,,,,,,,,,,,,,820,2022-01-15_09h53.36.632,multiplicationStroop,2021.2.3,Win32,57.2672088,,,,,,,,,,,,,,,,,,,,,,,,,,,,,,,,,20,1.7616,1,0,19,19,7,1,4,×,5,4 × 5,congruent,smallerFirst,1,2,20,,,,,,,,
,,,,,,,,,,,,,,,820,2022-01-15_09h53.36.632,multiplicationStroop,2021.2.3,Win32,57.2672088,,,,,,,,,,,,,,,,,,,,,,,,,,,,,,,,,18,1.4303,1,0,20,20,22,1,9,×,2,9 × 2,congruent,largerFirst,2,1,18,,,,,,,,
,,,,,,,,,,,,,,,820,2022-01-15_09h53.36.632,multiplicationStroop,2021.2.3,Win32,57.2672088,,,,,,,,,,,,,,,,,,,,,,,,,,,,,,,,,15,1.2558,1,0,21,21,4,1,3,×,5,3 × 5,congruent,smallerFirst,1,2,15,,,,,,,,
,,,,,,,,,,,,,,,820,2022-01-15_09h53.36.632,multiplicationStroop,2021.2.3,Win32,57.2672088,,,,,,,,,,,,,,,,,,,,,,,,,,,,,,,,,36,1.6921,1,0,22,22,0,1,4,×,9,4 × 9,congruent,smallerFirst,1,2,36,,,,,,,,
,,,,,,,,,,,,,,,820,2022-01-15_09h53.36.632,multiplicationStroop,2021.2.3,Win32,57.2672088,,,,,,,,,,,,,,,,,,,,,,,,,,,,,,,,,16,1.6049,1,0,23,23,30,1,4,×,4,4 × 4,neutral,tie,2,1,16,,,,,,,,
,,,,,,,,,,,,,,,820,2022-01-15_09h53.36.632,multiplicationStroop,2021.2.3,Win32,57.2672088,,,,,,,,,,,,,,,,,,,,,,,,,,,,,,,,,6,1.4651,1,0,24,24,13,1,2,×,3,2 × 3,congruent,smallerFirst,1,2,6,,,,,,,,
,,,,,,,,,,,,,,,820,2022-01-15_09h53.36.632,multiplicationStroop,2021.2.3,Win32,57.2672088,,,,,,,,,,,,,,,,,,,,,,,,,,,,,,,,,24,2.1106,1,0,25,25,25,1,6,×,4,6 × 4,congruent,largerFirst,2,1,24,,,,,,,,
,,,,,,,,,,,,,,,820,2022-01-15_09h53.36.632,multiplicationStroop,2021.2.3,Win32,57.2672088,,,,,,,,,,,,,,,,,,,,,,,,,,,,,,,,,81,1.5699,1,0,26,26,35,1,9,×,9,9 × 9,neutral,tie,2,1,81,,,,,,,,
,,,,,,,,,,,,,,,820,2022-01-15_09h53.36.632,multiplicationStroop,2021.2.3,Win32,57.2672088,,,,,,,,,,,,,,,,,,,,,,,,,,,,,,,,,54,1.8665,1,0,27,27,12,1,6,×,9,6 × 9,congruent,smallerFirst,1,2,54,,,,,,,,
,,,,,,,,,,,,,,,820,2022-01-15_09h53.36.632,multiplicationStroop,2021.2.3,Win32,57.2672088,,,,,,,,,,,,,,,,,,,,,,,,,,,,,,,,,32,2.1807,1,0,28,28,20,1,8,×,4,8 × 4,congruent,largerFirst,2,1,32,,,,,,,,
,,,,,,,,,,,,,,,820,2022-01-15_09h53.36.632,multiplicationStroop,2021.2.3,Win32,57.2672088,,,,,,,,,,,,,,,,,,,,,,,,,,,,,,,,,56,1.9364,1,0,29,29,8,1,7,×,8,7 × 8,congruent,smallerFirst,1,2,56,,,,,,,,
,,,,,,,,,,,,,,,820,2022-01-15_09h53.36.632,multiplicationStroop,2021.2.3,Win32,57.2672088,,,,,,,,,,,,,,,,,,,,,,,,,,,,,,,,,8,2.1276,1,0,30,30,9,1,2,×,4,2 × 4,congruent,smallerFirst,1,2,8,,,,,,,,
,,,,,,,,,,,,,,,820,2022-01-15_09h53.36.632,multiplicationStroop,2021.2.3,Win32,57.2672088,,,,,,,,,,,,,,,,,,,,,,,,,,,,,,,,,27,2.3202,1,0,31,31,26,1,9,×,3,9 × 3,congruent,largerFirst,2,1,27,,,,,,,,
,,,,,,,,,,,,,,,820,2022-01-15_09h53.36.632,multiplicationStroop,2021.2.3,Win32,57.2672088,,,,,,,,,,,,,,,,,,,,,,,,,,,,,,,,,35,1.7269,1,0,32,32,1,1,5,×,7,5 × 7,congruent,smallerFirst,1,2,35,,,,,,,,
,,,,,,,,,,,,,,,820,2022-01-15_09h53.36.632,multiplicationStroop,2021.2.3,Win32,57.2672088,,,,,,,,,,,,,,,,,,,,,,,,,,,,,,,,,12,2.0583,1,0,33,33,2,1,3,×,4,3 × 4,congruent,smallerFirst,1,2,12,,,,,,,,
,,,,,,,,,,,,,,,820,2022-01-15_09h53.36.632,multiplicationStroop,2021.2.3,Win32,57.2672088,,,,,,,,,,,,,,,,,,,,,,,,,,,,,,,,,4,2.2327,0,0,34,34,3,1,6,×,7,6 × 7,congruent,smallerFirst,1,2,42,,,,,,,,
,,,,,,,,,,,,,,,820,2022-01-15_09h53.36.632,multiplicationStroop,2021.2.3,Win32,57.2672088,,,,,,,,,,,,,,,,,,,,,,,,,,,,,,,,,18,1.9016,1,0,35,35,11,1,3,×,6,3 × 6,congruent,smallerFirst,1,2,18,,,,,,,,
,,,,,,,,,,,,,,,820,2022-01-15_09h53.36.632,multiplicationStroop,2021.2.3,Win32,57.2672088,,,,,,,,,,,,,,,,,,,,,,,,,,,,,,,,,,,,,,,,,,,,,,,,,,0,3,3,2,1,stimulusFile/mult_blk3_congruent.xlsx,,
,,,,,,,,,,,,,,,820,2022-01-15_09h53.36.632,multiplicationStroop,2021.2.3,Win32,57.2672088,,,,,,,,,,,,,,,,,,,,,,,,,,,,,,,space,0.8579,30,1.4941,1,0,0,0,11,1,5,×,6,5 × 6,incongruent,smallerFirst,2,1,30,,,,,,,,
,,,,,,,,,,,,,,,820,2022-01-15_09h53.36.632,multiplicationStroop,2021.2.3,Win32,57.2672088,,,,,,,,,,,,,,,,,,,,,,,,,,,,,,,,,72,1.8492,1,0,1,1,14,1,9,×,8,9 × 8,incongruent,largerFirst,1,2,72,,,,,,,,
,,,,,,,,,,,,,,,820,2022-01-15_09h53.36.632,multiplicationStroop,2021.2.3,Win32,57.2672088,,,,,,,,,,,,,,,,,,,,,,,,,,,,,,,,,64,1.7443,1,0,2,2,34,1,8,×,8,8 × 8,neutral,tie,2,1,64,,,,,,,,
,,,,,,,,,,,,,,,820,2022-01-15_09h53.36.632,multiplicationStroop,2021.2.3,Win32,57.2672088,,,,,,,,,,,,,,,,,,,,,,,,,,,,,,,,,15,1.4304,1,0,3,3,24,1,5,×,3,5 × 3,incongruent,largerFirst,1,2,15,,,,,,,,
,,,,,,,,,,,,,,,820,2022-01-15_09h53.36.632,multiplicationStroop,2021.2.3,Win32,57.2672088,,,,,,,,,,,,,,,,,,,,,,,,,,,,,,,,,63,1.9537,1,0,4,4,17,1,9,×,7,9 × 7,incongruent,largerFirst,1,2,63,,,,,,,,
,,,,,,,,,,,,,,,820,2022-01-15_09h53.36.632,multiplicationStroop,2021.2.3,Win32,57.2672088,,,,,,,,,,,,,,,,,,,,,,,,,,,,,,,,,20,1.605,1,0,5,5,13,1,4,×,5,4 × 5,incongruent,smallerFirst,2,1,20,,,,,,,,
,,,,,,,,,,,,,,,820,2022-01-15_09h53.36.632,multiplicationStroop,2021.2.3,Win32,57.2672088,,,,,,,,,,,,,,,,,,,,,,,,,,,,,,,,,25,1.5352,1,0,6,6,31,1,5,×,5,5 × 5,neutral,tie,2,1,25,,,,,,,,
,,,,,,,,,,,,,,,820,2022-01-15_09h53.36.632,multiplicationStroop,2021.2.3,Win32,57.2672088,,,,,,,,,,,,,,,,,,,,,,,,,,,,,,,,,28,2.3374,1,0,7,7,2,1,4,×,7,4 × 7,incongruent,smallerFirst,2,1,28,,,,,,,,
,,,,,,,,,,,,,,,820,2022-01-15_09h53.36.632,multiplicationStroop,2021.2.3,Win32,57.2672088,,,,,,,,,,,,,,,,,,,,,,,,,,,,,,,,,9,1.4381,1,0,8,8,29,1,3,×,3,3 × 3,neutral,tie,2,1,9,,,,,,,,
,,,,,,,,,,,,,,,820,2022-01-15_09h53.36.632,multiplicationStroop,2021.2.3,Win32,57.2672088,,,,,,,,,,,,,,,,,,,,,,,,,,,,,,,,,35,1.535,1,0,9,9,26,1,7,×,5,7 × 5,incongruent,largerFirst,1,2,35,,,,,,,,
,,,,,,,,,,,,,,,820,2022-01-15_09h53.36.632,multiplicationStroop,2021.2.3,Win32,57.2672088,,,,,,,,,,,,,,,,,,,,,,,,,,,,,,,,,10,1.5179,1,0,10,10,7,1,2,×,5,2 × 5,incongruent,smallerFirst,2,1,10,,,,,,,,
,,,,,,,,,,,,,,,820,2022-01-15_09h53.36.632,multiplicationStroop,2021.2.3,Win32,57.2672088,,,,,,,,,,,,,,,,,,,,,,,,,,,,,,,,,6,1.4805,1,0,11,11,25,1,3,×,2,3 × 2,incongruent,largerFirst,1,2,6,,,,,,,,
,,,,,,,,,,,,,,,820,2022-01-15_09h53.36.632,multiplicationStroop,2021.2.3,Win32,57.2672088,,,,,,,,,,,,,,,,,,,,,,,,,,,,,,,,,36,1.9233,1,0,12,12,32,1,6,×,6,6 × 6,neutral,tie,2,1,36,,,,,,,,
,,,,,,,,,,,,,,,820,2022-01-15_09h53.36.632,multiplicationStroop,2021.2.3,Win32,57.2672088,,,,,,,,,,,,,,,,,,,,,,,,,,,,,,,,,24,4.1111,1,0,13,13,23,1,8,×,3,8 × 3,incongruent,largerFirst,1,2,24,,,,,,,,
,,,,,,,,,,,,,,,820,2022-01-15_09h53.36.632,multiplicationStroop,2021.2.3,Win32,57.2672088,,,,,,,,,,,,,,,,,,,,,,,,,,,,,,,,,56,2.1174,1,0,14,14,0,1,7,×,8,7 × 8,incongruent,smallerFirst,2,1,56,,,,,,,,
,,,,,,,,,,,,,,,820,2022-01-15_09h53.36.632,multiplicationStroop,2021.2.3,Win32,57.2672088,,,,,,,,,,,,,,,,,,,,,,,,,,,,,,,,,21,1.9305,1,0,15,15,12,1,3,×,7,3 × 7,incongruent,smallerFirst,2,1,21,,,,,,,,
,,,,,,,,,,,,,,,820,2022-01-15_09h53.36.632,multiplicationStroop,2021.2.3,Win32,57.2672088,,,,,,,,,,,,,,,,,,,,,,,,,,,,,,,,,27,2.5772,1,0,16,16,4,1,3,×,9,3 × 9,incongruent,smallerFirst,2,1,27,,,,,,,,
,,,,,,,,,,,,,,,820,2022-01-15_09h53.36.632,multiplicationStroop,2021.2.3,Win32,57.2672088,,,,,,,,,,,,,,,,,,,,,,,,,,,,,,,,,12,2.0912,1,0,17,17,19,1,4,×,3,4 × 3,incongruent,largerFirst,1,2,12,,,,,,,,
,,,,,,,,,,,,,,,820,2022-01-15_09h53.36.632,multiplicationStroop,2021.2.3,Win32,57.2672088,,,,,,,,,,,,,,,,,,,,,,,,,,,,,,,,,81,1.4988,1,0,18,18,35,1,9,×,9,9 × 9,neutral,tie,2,1,81,,,,,,,,
,,,,,,,,,,,,,,,820,2022-01-15_09h53.36.632,multiplicationStroop,2021.2.3,Win32,57.2672088,,,,,,,,,,,,,,,,,,,,,,,,,,,,,,,,,49,1.8355,1,0,19,19,33,1,7,×,7,7 × 7,neutral,tie,2,1,49,,,,,,,,
,,,,,,,,,,,,,,,820,2022-01-15_09h53.36.632,multiplicationStroop,2021.2.3,Win32,57.2672088,,,,,,,,,,,,,,,,,,,,,,,,,,,,,,,,,18,1.6348,1,0,20,20,16,1,9,×,2,9 × 2,incongruent,largerFirst,1,2,18,,,,,,,,
,,,,,,,,,,,,,,,820,2022-01-15_09h53.36.632,multiplicationStroop,2021.2.3,Win32,57.2672088,,,,,,,,,,,,,,,,,,,,,,,,,,,,,,,,,45,1.8472,1,0,21,21,8,1,5,×,9,5 × 9,incongruent,smallerFirst,2,1,45,,,,,,,,
,,,,,,,,,,,,,,,820,2022-01-15_09h53.36.632,multiplicationStroop,2021.2.3,Win32,57.2672088,,,,,,,,,,,,,,,,,,,,,,,,,,,,,,,,,48,3.4882,1,0,22,22,15,1,8,×,6,8 × 6,incongruent,largerFirst,1,2,48,,,,,,,,
,,,,,,,,,,,,,,,820,2022-01-15_09h53.36.632,multiplicationStroop,2021.2.3,Win32,57.2672088,,,,,,,,,,,,,,,,,,,,,,,,,,,,,,,,,24,1.9439,1,0,23,23,6,1,4,×,6,4 × 6,incongruent,smallerFirst,2,1,24,,,,,,,,
,,,,,,,,,,,,,,,820,2022-01-15_09h53.36.632,multiplicationStroop,2021.2.3,Win32,57.2672088,,,,,,,,,,,,,,,,,,,,,,,,,,,,,,,,,16,2.685,1,0,24,24,30,1,4,×,4,4 × 4,neutral,tie,2,1,16,,,,,,,,
,,,,,,,,,,,,,,,820,2022-01-15_09h53.36.632,multiplicationStroop,2021.2.3,Win32,57.2672088,,,,,,,,,,,,,,,,,,,,,,,,,,,,,,,,,4,1.552,1,0,25,25,28,1,2,×,2,2 × 2,neutral,tie,2,1,4,,,,,,,,
,,,,,,,,,,,,,,,820,2022-01-15_09h53.36.632,multiplicationStroop,2021.2.3,Win32,57.2672088,,,,,,,,,,,,,,,,,,,,,,,,,,,,,,,,,32,1.9691,1,0,26,26,21,1,8,×,4,8 × 4,incongruent,largerFirst,1,2,32,,,,,,,,
,,,,,,,,,,,,,,,820,2022-01-15_09h53.36.632,multiplicationStroop,2021.2.3,Win32,57.2672088,,,,,,,,,,,,,,,,,,,,,,,,,,,,,,,,,8,1.8004,1,0,27,27,10,1,2,×,4,2 × 4,incongruent,smallerFirst,2,1,8,,,,,,,,
,,,,,,,,,,,,,,,820,2022-01-15_09h53.36.632,multiplicationStroop,2021.2.3,Win32,57.2672088,,,,,,,,,,,,,,,,,,,,,,,,,,,,,,,,,42,2.8385,1,0,28,28,3,1,6,×,7,6 × 7,incongruent,smallerFirst,2,1,42,,,,,,,,
,,,,,,,,,,,,,,,820,2022-01-15_09h53.36.632,multiplicationStroop,2021.2.3,Win32,57.2672088,,,,,,,,,,,,,,,,,,,,,,,,,,,,,,,,,16,2.0094,1,0,29,29,9,1,2,×,8,2 × 8,incongruent,smallerFirst,2,1,16,,,,,,,,
,,,,,,,,,,,,,,,820,2022-01-15_09h53.36.632,multiplicationStroop,2021.2.3,Win32,57.2672088,,,,,,,,,,,,,,,,,,,,,,,,,,,,,,,,,36,2.0013,1,0,30,30,1,1,4,×,9,4 × 9,incongruent,smallerFirst,2,1,36,,,,,,,,
,,,,,,,,,,,,,,,820,2022-01-15_09h53.36.632,multiplicationStroop,2021.2.3,Win32,57.2672088,,,,,,,,,,,,,,,,,,,,,,,,,,,,,,,,,40,1.5159,1,0,31,31,27,1,8,×,5,8 × 5,incongruent,largerFirst,1,2,40,,,,,,,,
,,,,,,,,,,,,,,,820,2022-01-15_09h53.36.632,multiplicationStroop,2021.2.3,Win32,57.2672088,,,,,,,,,,,,,,,,,,,,,,,,,,,,,,,,,12,2.0613,1,0,32,32,5,1,2,×,6,2 × 6,incongruent,smallerFirst,2,1,12,,,,,,,,
,,,,,,,,,,,,,,,820,2022-01-15_09h53.36.632,multiplicationStroop,2021.2.3,Win32,57.2672088,,,,,,,,,,,,,,,,,,,,,,,,,,,,,,,,,54,2.0361,1,0,33,33,20,1,9,×,6,9 × 6,incongruent,largerFirst,1,2,54,,,,,,,,
,,,,,,,,,,,,,,,820,2022-01-15_09h53.36.632,multiplicationStroop,2021.2.3,Win32,57.2672088,,,,,,,,,,,,,,,,,,,,,,,,,,,,,,,,,18,2.0919,1,0,34,34,22,1,6,×,3,6 × 3,incongruent,largerFirst,1,2,18,,,,,,,,
,,,,,,,,,,,,,,,820,2022-01-15_09h53.36.632,multiplicationStroop,2021.2.3,Win32,57.2672088,,,,,,,,,,,,,,,,,,,,,,,,,,,,,,,,,14,1.3772,1,0,35,35,18,1,7,×,2,7 × 2,incongruent,largerFirst,1,2,14,,,,,,,,
,,,,,,,,,,,,,,,820,2022-01-15_09h53.36.632,multiplicationStroop,2021.2.3,Win32,57.2672088,,,,,,,,,,,,,,,,,,,,,,,,,,,,,,,,,,,,,,,,,,,,,,,,,,0,4,4,4,1,stimulusFile/mult_blk5_INcongruent.xlsx,,
,,,,,,,,,,,,,,,820,2022-01-15_09h53.36.632,multiplicationStroop,2021.2.3,Win32,57.2672088,,,,,,,,,,,,,,,,,,,,,,,,,,,,,,,space,0.8485,81,1.7493,1,0,0,0,35,1,9,×,9,9 × 9,neutral,tie,1,2,81,,,,,,,,
,,,,,,,,,,,,,,,820,2022-01-15_09h53.36.632,multiplicationStroop,2021.2.3,Win32,57.2672088,,,,,,,,,,,,,,,,,,,,,,,,,,,,,,,,,18,1.5698,1,0,1,1,8,1,2,×,9,2 × 9,congruent,smallerFirst,1,2,18,,,,,,,,
,,,,,,,,,,,,,,,820,2022-01-15_09h53.36.632,multiplicationStroop,2021.2.3,Win32,57.2672088,,,,,,,,,,,,,,,,,,,,,,,,,,,,,,,,,64,2.2155,1,0,2,2,34,1,8,×,8,8 × 8,neutral,tie,1,2,64,,,,,,,,
,,,,,,,,,,,,,,,820,2022-01-15_09h53.36.632,multiplicationStroop,2021.2.3,Win32,57.2672088,,,,,,,,,,,,,,,,,,,,,,,,,,,,,,,,,6,1.4828,1,0,3,3,27,1,3,×,2,3 × 2,congruent,largerFirst,2,1,6,,,,,,,,
,,,,,,,,,,,,,,,820,2022-01-15_09h53.36.632,multiplicationStroop,2021.2.3,Win32,57.2672088,,,,,,,,,,,,,,,,,,,,,,,,,,,,,,,,,8,1.3954,1,0,4,4,23,1,4,×,2,4 × 2,congruent,largerFirst,2,1,8,,,,,,,,
,,,,,,,,,,,,,,,820,2022-01-15_09h53.36.632,multiplicationStroop,2021.2.3,Win32,57.2672088,,,,,,,,,,,,,,,,,,,,,,,,,,,,,,,,,12,1.8841,1,0,5,5,5,1,2,×,6,2 × 6,congruent,smallerFirst,1,2,12,,,,,,,,
,,,,,,,,,,,,,,,820,2022-01-15_09h53.36.632,multiplicationStroop,2021.2.3,Win32,57.2672088,,,,,,,,,,,,,,,,,,,,,,,,,,,,,,,,,36,1.57,1,0,6,6,14,1,9,×,4,9 × 4,congruent,largerFirst,2,1,36,,,,,,,,
,,,,,,,,,,,,,,,820,2022-01-15_09h53.36.632,multiplicationStroop,2021.2.3,Win32,57.2672088,,,,,,,,,,,,,,,,,,,,,,,,,,,,,,,,,49,1.6746,1,0,7,7,33,1,7,×,7,7 × 7,neutral,tie,1,2,49,,,,,,,,
,,,,,,,,,,,,,,,820,2022-01-15_09h53.36.632,multiplicationStroop,2021.2.3,Win32,57.2672088,,,,,,,,,,,,,,,,,,,,,,,,,,,,,,,,,10,1.3258,1,0,8,8,10,1,2,×,5,2 × 5,congruent,smallerFirst,1,2,10,,,,,,,,
,,,,,,,,,,,,,,,820,2022-01-15_09h53.36.632,multiplicationStroop,2021.2.3,Win32,57.2672088,,,,,,,,,,,,,,,,,,,,,,,,,,,,,,,,,24,2.6693,1,0,9,9,24,1,8,×,3,8 × 3,congruent,largerFirst,2,1,24,,,,,,,,
,,,,,,,,,,,,,,,820,2022-01-15_09h53.36.632,multiplicationStroop,2021.2.3,Win32,57.2672088,,,,,,,,,,,,,,,,,,,,,,,,,,,,,,,,,16,1.6571,1,0,10,10,30,1,4,×,4,4 × 4,neutral,tie,1,2,16,,,,,,,,
,,,,,,,,,,,,,,,820,2022-01-15_09h53.36.632,multiplicationStroop,2021.2.3,Win32,57.2672088,,,,,,,,,,,,,,,,,,,,,,,,,,,,,,,,,54,2.46,1,0,11,11,26,1,9,×,6,9 × 6,congruent,largerFirst,2,1,54,,,,,,,,
,,,,,,,,,,,,,,,820,2022-01-15_09h53.36.632,multiplicationStroop,2021.2.3,Win32,57.2672088,,,,,,,,,,,,,,,,,,,,,,,,,,,,,,,,,32,2.2852,1,0,12,12,6,1,4,×,8,4 × 8,congruent,smallerFirst,1,2,32,,,,,,,,
,,,,,,,,,,,,,,,820,2022-01-15_09h53.36.632,multiplicationStroop,2021.2.3,Win32,57.2672088,,,,,,,,,,,,,,,,,,,,,,,,,,,,,,,,,35,1.884,1,0,13,13,15,1,7,×,5,7 × 5,congruent,largerFirst,2,1,35,,,,,,,,
,,,,,,,,,,,,,,,820,2022-01-15_09h53.36.632,multiplicationStroop,2021.2.3,Win32,57.2672088,,,,,,,,,,,,,,,,,,,,,,,,,,,,,,,,,72,1.9714,1,0,14,14,3,1,8,×,9,8 × 9,congruent,smallerFirst,1,2,72,,,,,,,,
,,,,,,,,,,,,,,,820,2022-01-15_09h53.36.632,multiplicationStroop,2021.2.3,Win32,57.2672088,,,,,,,,,,,,,,,,,,,,,,,,,,,,,,,,,9,1.5001,1,0,15,15,29,1,3,×,3,3 × 3,neutral,tie,1,2,9,,,,,,,,
,,,,,,,,,,,,,,,820,2022-01-15_09h53.36.632,multiplicationStroop,2021.2.3,Win32,57.2672088,,,,,,,,,,,,,,,,,,,,,,,,,,,,,,,,,20,2.0235,1,0,16,16,21,1,5,×,4,5 × 4,congruent,largerFirst,2,1,20,,,,,,,,
,,,,,,,,,,,,,,,820,2022-01-15_09h53.36.632,multiplicationStroop,2021.2.3,Win32,57.2672088,,,,,,,,,,,,,,,,,,,,,,,,,,,,,,,,,28,2.041,1,0,17,17,13,1,4,×,7,4 × 7,congruent,smallerFirst,1,2,28,,,,,,,,
,,,,,,,,,,,,,,,820,2022-01-15_09h53.36.632,multiplicationStroop,2021.2.3,Win32,57.2672088,,,,,,,,,,,,,,,,,,,,,,,,,,,,,,,,,30,1.3955,1,0,18,18,1,1,5,×,6,5 × 6,congruent,smallerFirst,1,2,30,,,,,,,,
,,,,,,,,,,,,,,,820,2022-01-15_09h53.36.632,multiplicationStroop,2021.2.3,Win32,57.2672088,,,,,,,,,,,,,,,,,,,,,,,,,,,,,,,,,56,1.849,1,0,19,19,22,1,8,×,7,8 × 7,congruent,largerFirst,2,1,56,,,,,,,,
,,,,,,,,,,,,,,,820,2022-01-15_09h53.36.632,multiplicationStroop,2021.2.3,Win32,57.2672088,,,,,,,,,,,,,,,,,,,,,,,,,,,,,,,,,24,2.2331,1,0,20,20,11,1,4,×,6,4 × 6,congruent,smallerFirst,1,2,24,,,,,,,,
,,,,,,,,,,,,,,,820,2022-01-15_09h53.36.632,multiplicationStroop,2021.2.3,Win32,57.2672088,,,,,,,,,,,,,,,,,,,,,,,,,,,,,,,,,36,1.8168,1,0,21,21,32,1,6,×,6,6 × 6,neutral,tie,1,2,36,,,,,,,,
,,,,,,,,,,,,,,,820,2022-01-15_09h53.36.632,multiplicationStroop,2021.2.3,Win32,57.2672088,,,,,,,,,,,,,,,,,,,,,,,,,,,,,,,,,21,1.6355,1,0,22,22,2,1,3,×,7,3 × 7,congruent,smallerFirst,1,2,21,,,,,,,,
,,,,,,,,,,,,,,,820,2022-01-15_09h53.36.632,multiplicationStroop,2021.2.3,Win32,57.2672088,,,,,,,,,,,,,,,,,,,,,,,,,,,,,,,,,25,1.655,1,0,23,23,31,1,5,×,5,5 × 5,neutral,tie,1,2,25,,,,,,,,
,,,,,,,,,,,,,,,820,2022-01-15_09h53.36.632,multiplicationStroop,2021.2.3,Win32,57.2672088,,,,,,,,,,,,,,,,,,,,,,,,,,,,,,,,,36,2.6543,0,0,24,24,7,1,7,×,9,7 × 9,congruent,smallerFirst,1,2,63,,,,,,,,
,,,,,,,,,,,,,,,820,2022-01-15_09h53.36.632,multiplicationStroop,2021.2.3,Win32,57.2672088,,,,,,,,,,,,,,,,,,,,,,,,,,,,,,,,,27,3.9345,1,0,25,25,12,1,3,×,9,3 × 9,congruent,smallerFirst,1,2,27,,,,,,,,
,,,,,,,,,,,,,,,820,2022-01-15_09h53.36.632,multiplicationStroop,2021.2.3,Win32,57.2672088,,,,,,,,,,,,,,,,,,,,,,,,,,,,,,,,,45,1.6262,1,0,26,26,9,1,5,×,9,5 × 9,congruent,smallerFirst,1,2,45,,,,,,,,
,,,,,,,,,,,,,,,820,2022-01-15_09h53.36.632,multiplicationStroop,2021.2.3,Win32,57.2672088,,,,,,,,,,,,,,,,,,,,,,,,,,,,,,,,,42,2.375,1,0,27,27,17,1,7,×,6,7 × 6,congruent,largerFirst,2,1,42,,,,,,,,
,,,,,,,,,,,,,,,820,2022-01-15_09h53.36.632,multiplicationStroop,2021.2.3,Win32,57.2672088,,,,,,,,,,,,,,,,,,,,,,,,,,,,,,,,,16,1.8938,1,0,28,28,19,1,8,×,2,8 × 2,congruent,largerFirst,2,1,16,,,,,,,,
,,,,,,,,,,,,,,,820,2022-01-15_09h53.36.632,multiplicationStroop,2021.2.3,Win32,57.2672088,,,,,,,,,,,,,,,,,,,,,,,,,,,,,,,,,1,1.4425,0,0,29,29,16,1,4,×,3,4 × 3,congruent,largerFirst,2,1,12,,,,,,,,
,,,,,,,,,,,,,,,820,2022-01-15_09h53.36.632,multiplicationStroop,2021.2.3,Win32,57.2672088,,,,,,,,,,,,,,,,,,,,,,,,,,,,,,,,,14,1.7645,1,0,30,30,0,1,2,×,7,2 × 7,congruent,smallerFirst,1,2,14,,,,,,,,
,,,,,,,,,,,,,,,820,2022-01-15_09h53.36.632,multiplicationStroop,2021.2.3,Win32,57.2672088,,,,,,,,,,,,,,,,,,,,,,,,,,,,,,,,,40,1.7225,1,0,31,31,20,1,8,×,5,8 × 5,congruent,largerFirst,2,1,40,,,,,,,,
,,,,,,,,,,,,,,,820,2022-01-15_09h53.36.632,multiplicationStroop,2021.2.3,Win32,57.2672088,,,,,,,,,,,,,,,,,,,,,,,,,,,,,,,,,48,2.3924,1,0,32,32,4,1,6,×,8,6 × 8,congruent,smallerFirst,1,2,48,,,,,,,,
,,,,,,,,,,,,,,,820,2022-01-15_09h53.36.632,multiplicationStroop,2021.2.3,Win32,57.2672088,,,,,,,,,,,,,,,,,,,,,,,,,,,,,,,,,18,1.6349,1,0,33,33,25,1,6,×,3,6 × 3,congruent,largerFirst,2,1,18,,,,,,,,
,,,,,,,,,,,,,,,820,2022-01-15_09h53.36.632,multiplicationStroop,2021.2.3,Win32,57.2672088,,,,,,,,,,,,,,,,,,,,,,,,,,,,,,,,,4,1.4827,1,0,34,34,28,1,2,×,2,2 × 2,neutral,tie,1,2,4,,,,,,,,
,,,,,,,,,,,,,,,820,2022-01-15_09h53.36.632,multiplicationStroop,2021.2.3,Win32,57.2672088,,,,,,,,,,,,,,,,,,,,,,,,,,,,,,,,,15,1.3606,1,0,35,35,18,1,5,×,3,5 × 3,congruent,largerFirst,2,1,15,,,,,,,,
,,,,,,,,,,,,,,,820,2022-01-15_09h53.36.632,multiplicationStroop,2021.2.3,Win32,57.2672088,,,,,,,,,,,,,,,,,,,,,,,,,,,,,,,,,,,,,,,,,,,,,,,,,,0,5,5,3,1,stimulusFile/mult_blk4_congruent.xlsx,,
,,,,,,,,,,,,,,,820,2022-01-15_09h53.36.632,multiplicationStroop,2021.2.3,Win32,57.2672088,,,,,,,,,,,,,,,,,,,,,,,,,,,,,,,,,,,,,,,,,,,,,,,,,,,,,,,,space,2.5841