welcomeKey_resp.keys,welcomeKey_resp.rt,X Scale,Y Scale,rt_resp_4.keys,rt_resp_4.corr,rt_resp_4.rt,speedtest_2.thisRepN,speedtest_2.thisTrialN,speedtest_2.thisN,speedtest_2.thisIndex,speedtest_2.ran,numberSc,posX,positionLayout,participant,date,expName,psychopyVersion,OS,frameRate,ct_instrresp.keys,ct_instrresp.rt,key_resp_2.keys,key_resp_2.rt,ct_keyResp.keys,ct_keyResp.corr,ct_keyResp.rt,trials.thisRepN,trials.thisTrialN,trials.thisN,trials.thisIndex,trials.ran,leftNo,rightNo,displayProblem,numDistance,leftNo_size,rightNo_size,Dims,keyAnswer,TS_Loop.thisRepN,TS_Loop.thisTrialN,TS_Loop.thisN,TS_Loop.thisIndex,TS_Loop.ran,Condition,ActionInst,instrImage,mltptaskInst_resp.keys,mltptaskInst_resp.rt,continue_resp_2.keys,continue_resp_2.rt,multp_Answer,multi_RT,multiplyCorr,LoopingMultiply.thisRepN,LoopingMultiply.thisTrialN,LoopingMultiply.thisN,LoopingMultiply.thisIndex,LoopingMultiply.ran,factor1,multiplySign,factor2,multliplyProblem,physicalSize,orderOperand,sizeF1,sizeF2,mult_answer,trials_stroop.thisRepN,trials_stroop.thisTrialN,trials_stroop.thisN,trials_stroop.thisIndex,trials_stroop.ran,multiplicationFile,esckey_resp_2.keys,esckey_resp_2.rt
y,6.0656,50.2,50.4,left,1,0.5031,0,0,0,3,1,4,-200,left,823,2022-01-14_03h57.56.526,multiplicationStroop,2021.2.3,Win32,59.82650314,,,,,,,,,,,,,,,,,,,,,,,,,,,,,,,,,,,,,,,,,,,,,,,,,,,,,,,,,
,,,,right,1,0.3957,0,1,1,8,1,1,200,right,823,2022-01-14_03h57.56.526,multiplicationStroop,2021.2.3,Win32,59.82650314,,,,,,,,,,,,,,,,,,,,,,,,,,,,,,,,,,,,,,,,,,,,,,,,,,,,,,,,,
,,,,left,1,0.3849,0,2,2,0,1,1,-200,left,823,2022-01-14_03h57.56.526,multiplicationStroop,2021.2.3,Win32,59.82650314,,,,,,,,,,,,,,,,,,,,,,,,,,,,,,,,,,,,,,,,,,,,,,,,,,,,,,,,,
,,,,left,1,0.4263,0,3,3,7,1,9,-200,left,823,2022-01-14_03h57.56.526,multiplicationStroop,2021.2.3,Win32,59.82650314,,,,,,,,,,,,,,,,,,,,,,,,,,,,,,,,,,,,,,,,,,,,,,,,,,,,,,,,,
,,,,right,1,0.3625,0,4,4,12,1,6,200,right,823,2022-01-14_03h57.56.526,multiplicationStroop,2021.2.3,Win32,59.82650314,,,,,,,,,,,,,,,,,,,,,,,,,,,,,,,,,,,,,,,,,,,,,,,,,,,,,,,,,
,,,,right,1,0.4278,0,5,5,13,1,7,200,right,823,2022-01-14_03h57.56.526,multiplicationStroop,2021.2.3,Win32,59.82650314,,,,,,,,,,,,,,,,,,,,,,,,,,,,,,,,,,,,,,,,,,,,,,,,,,,,,,,,,
,,,,left,1,0.3944,0,6,6,1,1,2,-200,left,823,2022-01-14_03h57.56.526,multiplicationStroop,2021.2.3,Win32,59.82650314,,,,,,,,,,,,,,,,,,,,,,,,,,,,,,,,,,,,,,,,,,,,,,,,,,,,,,,,,
,,,,left,1,0.4189,0,7,7,2,1,3,-200,left,823,2022-01-14_03h57.56.526,multiplicationStroop,2021.2.3,Win32,59.82650314,,,,,,,,,,,,,,,,,,,,,,,,,,,,,,,,,,,,,,,,,,,,,,,,,,,,,,,,,
,,,,right,1,0.398,0,8,8,11,1,4,200,right,823,2022-01-14_03h57.56.526,multiplicationStroop,2021.2.3,Win32,59.82650314,,,,,,,,,,,,,,,,,,,,,,,,,,,,,,,,,,,,,,,,,,,,,,,,,,,,,,,,,
,,,,left,1,0.3618,0,9,9,6,1,8,-200,left,823,2022-01-14_03h57.56.526,multiplicationStroop,2021.2.3,Win32,59.82650314,,,,,,,,,,,,,,,,,,,,,,,,,,,,,,,,,,,,,,,,,,,,,,,,,,,,,,,,,
,,,,left,1,0.416,0,10,10,5,1,7,-200,left,823,2022-01-14_03h57.56.526,multiplicationStroop,2021.2.3,Win32,59.82650314,,,,,,,,,,,,,,,,,,,,,,,,,,,,,,,,,,,,,,,,,,,,,,,,,,,,,,,,,
,,,,right,1,0.3439,0,11,11,15,1,9,200,right,823,2022-01-14_03h57.56.526,multiplicationStroop,2021.2.3,Win32,59.82650314,,,,,,,,,,,,,,,,,,,,,,,,,,,,,,,,,,,,,,,,,,,,,,,,,,,,,,,,,
,,,,left,1,0.3864,0,12,12,4,1,6,-200,left,823,2022-01-14_03h57.56.526,multiplicationStroop,2021.2.3,Win32,59.82650314,,,,,,,,,,,,,,,,,,,,,,,,,,,,,,,,,,,,,,,,,,,,,,,,,,,,,,,,,
,,,,right,1,0.3361,0,13,13,9,1,2,200,right,823,2022-01-14_03h57.56.526,multiplicationStroop,2021.2.3,Win32,59.82650314,,,,,,,,,,,,,,,,,,,,,,,,,,,,,,,,,,,,,,,,,,,,,,,,,,,,,,,,,
,,,,right,1,0.4653,0,14,14,10,1,3,200,right,823,2022-01-14_03h57.56.526,multiplicationStroop,2021.2.3,Win32,59.82650314,,,,,,,,,,,,,,,,,,,,,,,,,,,,,,,,,,,,,,,,,,,,,,,,,,,,,,,,,
,,,,right,1,0.4488,0,15,15,14,1,8,200,right,823,2022-01-14_03h57.56.526,multiplicationStroop,2021.2.3,Win32,59.82650314,,,,,,,,,,,,,,,,,,,,,,,,,,,,,,,,,,,,,,,,,,,,,,,,,,,,,,,,,
,,,,left,1,0.397,1,0,16,0,1,1,-200,left,823,2022-01-14_03h57.56.526,multiplicationStroop,2021.2.3,Win32,59.82650314,,,,,,,,,,,,,,,,,,,,,,,,,,,,,,,,,,,,,,,,,,,,,,,,,,,,,,,,,
,,,,left,1,0.4455,1,1,17,3,1,4,-200,left,823,2022-01-14_03h57.56.526,multiplicationStroop,2021.2.3,Win32,59.82650314,,,,,,,,,,,,,,,,,,,,,,,,,,,,,,,,,,,,,,,,,,,,,,,,,,,,,,,,,
,,,,right,1,0.3645,1,2,18,14,1,8,200,right,823,2022-01-14_03h57.56.526,multiplicationStroop,2021.2.3,Win32,59.82650314,,,,,,,,,,,,,,,,,,,,,,,,,,,,,,,,,,,,,,,,,,,,,,,,,,,,,,,,,
,,,,left,1,0.4992,1,3,19,4,1,6,-200,left,823,2022-01-14_03h57.56.526,multiplicationStroop,2021.2.3,Win32,59.82650314,,,,,,,,,,,,,,,,,,,,,,,,,,,,,,,,,,,,,,,,,,,,,,,,,,,,,,,,,
,,,,right,1,0.3484,1,4,20,8,1,1,200,right,823,2022-01-14_03h57.56.526,multiplicationStroop,2021.2.3,Win32,59.82650314,,,,,,,,,,,,,,,,,,,,,,,,,,,,,,,,,,,,,,,,,,,,,,,,,,,,,,,,,
,,,,right,1,0.4638,1,5,21,13,1,7,200,right,823,2022-01-14_03h57.56.526,multiplicationStroop,2021.2.3,Win32,59.82650314,,,,,,,,,,,,,,,,,,,,,,,,,,,,,,,,,,,,,,,,,,,,,,,,,,,,,,,,,
,,,,left,1,0.4122,1,6,22,1,1,2,-200,left,823,2022-01-14_03h57.56.526,multiplicationStroop,2021.2.3,Win32,59.82650314,,,,,,,,,,,,,,,,,,,,,,,,,,,,,,,,,,,,,,,,,,,,,,,,,,,,,,,,,
,,,,right,1,0.3663,1,7,23,9,1,2,200,right,823,2022-01-14_03h57.56.526,multiplicationStroop,2021.2.3,Win32,59.82650314,,,,,,,,,,,,,,,,,,,,,,,,,,,,,,,,,,,,,,,,,,,,,,,,,,,,,,,,,
,,,,left,1,0.3955,1,8,24,7,1,9,-200,left,823,2022-01-14_03h57.56.526,multiplicationStroop,2021.2.3,Win32,59.82650314,,,,,,,,,,,,,,,,,,,,,,,,,,,,,,,,,,,,,,,,,,,,,,,,,,,,,,,,,
,,,,right,1,0.3189,1,9,25,10,1,3,200,right,823,2022-01-14_03h57.56.526,multiplicationStroop,2021.2.3,Win32,59.82650314,,,,,,,,,,,,,,,,,,,,,,,,,,,,,,,,,,,,,,,,,,,,,,,,,,,,,,,,,
,,,,left,1,0.3326,1,10,26,6,1,8,-200,left,823,2022-01-14_03h57.56.526,multiplicationStroop,2021.2.3,Win32,59.82650314,,,,,,,,,,,,,,,,,,,,,,,,,,,,,,,,,,,,,,,,,,,,,,,,,,,,,,,,,
,,,,right,1,0.3291,1,11,27,15,1,9,200,right,823,2022-01-14_03h57.56.526,multiplicationStroop,2021.2.3,Win32,59.82650314,,,,,,,,,,,,,,,,,,,,,,,,,,,,,,,,,,,,,,,,,,,,,,,,,,,,,,,,,
,,,,right,1,0.4957,1,12,28,11,1,4,200,right,823,2022-01-14_03h57.56.526,multiplicationStroop,2021.2.3,Win32,59.82650314,,,,,,,,,,,,,,,,,,,,,,,,,,,,,,,,,,,,,,,,,,,,,,,,,,,,,,,,,
,,,,left,1,0.3468,1,13,29,2,1,3,-200,left,823,2022-01-14_03h57.56.526,multiplicationStroop,2021.2.3,Win32,59.82650314,,,,,,,,,,,,,,,,,,,,,,,,,,,,,,,,,,,,,,,,,,,,,,,,,,,,,,,,,
,,,,right,1,0.3306,1,14,30,12,1,6,200,right,823,2022-01-14_03h57.56.526,multiplicationStroop,2021.2.3,Win32,59.82650314,,,,,,,,,,,,,,,,,,,,,,,,,,,,,,,,,,,,,,,,,,,,,,,,,,,,,,,,,
,,,,left,1,0.3643,1,15,31,5,1,7,-200,left,823,2022-01-14_03h57.56.526,multiplicationStroop,2021.2.3,Win32,59.82650314,,,,,,,,,,,,,,,,,,,,,,,,,,,,,,,,,,,,,,,,,,,,,,,,,,,,,,,,,
,,,,right,1,0.2975,2,0,32,12,1,6,200,right,823,2022-01-14_03h57.56.526,multiplicationStroop,2021.2.3,Win32,59.82650314,,,,,,,,,,,,,,,,,,,,,,,,,,,,,,,,,,,,,,,,,,,,,,,,,,,,,,,,,
,,,,left,1,0.3008,2,1,33,1,1,2,-200,left,823,2022-01-14_03h57.56.526,multiplicationStroop,2021.2.3,Win32,59.82650314,,,,,,,,,,,,,,,,,,,,,,,,,,,,,,,,,,,,,,,,,,,,,,,,,,,,,,,,,
,,,,right,1,0.3162,2,2,34,11,1,4,200,right,823,2022-01-14_03h57.56.526,multiplicationStroop,2021.2.3,Win32,59.82650314,,,,,,,,,,,,,,,,,,,,,,,,,,,,,,,,,,,,,,,,,,,,,,,,,,,,,,,,,
,,,,right,1,0.4144,2,3,35,14,1,8,200,right,823,2022-01-14_03h57.56.526,multiplicationStroop,2021.2.3,Win32,59.82650314,,,,,,,,,,,,,,,,,,,,,,,,,,,,,,,,,,,,,,,,,,,,,,,,,,,,,,,,,
,,,,left,1,0.362,2,4,36,3,1,4,-200,left,823,2022-01-14_03h57.56.526,multiplicationStroop,2021.2.3,Win32,59.82650314,,,,,,,,,,,,,,,,,,,,,,,,,,,,,,,,,,,,,,,,,,,,,,,,,,,,,,,,,
,,,,left,1,0.3803,2,5,37,7,1,9,-200,left,823,2022-01-14_03h57.56.526,multiplicationStroop,2021.2.3,Win32,59.82650314,,,,,,,,,,,,,,,,,,,,,,,,,,,,,,,,,,,,,,,,,,,,,,,,,,,,,,,,,
,,,,right,1,0.2892,2,6,38,8,1,1,200,right,823,2022-01-14_03h57.56.526,multiplicationStroop,2021.2.3,Win32,59.82650314,,,,,,,,,,,,,,,,,,,,,,,,,,,,,,,,,,,,,,,,,,,,,,,,,,,,,,,,,
,,,,left,1,0.3671,2,7,39,0,1,1,-200,left,823,2022-01-14_03h57.56.526,multiplicationStroop,2021.2.3,Win32,59.82650314,,,,,,,,,,,,,,,,,,,,,,,,,,,,,,,,,,,,,,,,,,,,,,,,,,,,,,,,,
,,,,right,1,0.2979,2,8,40,10,1,3,200,right,823,2022-01-14_03h57.56.526,multiplicationStroop,2021.2.3,Win32,59.82650314,,,,,,,,,,,,,,,,,,,,,,,,,,,,,,,,,,,,,,,,,,,,,,,,,,,,,,,,,
,,,,left,1,0.3377,2,9,41,2,1,3,-200,left,823,2022-01-14_03h57.56.526,multiplicationStroop,2021.2.3,Win32,59.82650314,,,,,,,,,,,,,,,,,,,,,,,,,,,,,,,,,,,,,,,,,,,,,,,,,,,,,,,,,
,,,,right,1,0.2633,2,10,42,15,1,9,200,right,823,2022-01-14_03h57.56.526,multiplicationStroop,2021.2.3,Win32,59.82650314,,,,,,,,,,,,,,,,,,,,,,,,,,,,,,,,,,,,,,,,,,,,,,,,,,,,,,,,,
,,,,left,1,0.2819,2,11,43,4,1,6,-200,left,823,2022-01-14_03h57.56.526,multiplicationStroop,2021.2.3,Win32,59.82650314,,,,,,,,,,,,,,,,,,,,,,,,,,,,,,,,,,,,,,,,,,,,,,,,,,,,,,,,,
,,,,right,1,0.2994,2,12,44,13,1,7,200,right,823,2022-01-14_03h57.56.526,multiplicationStroop,2021.2.3,Win32,59.82650314,,,,,,,,,,,,,,,,,,,,,,,,,,,,,,,,,,,,,,,,,,,,,,,,,,,,,,,,,
,,,,left,1,0.2815,2,13,45,6,1,8,-200,left,823,2022-01-14_03h57.56.526,multiplicationStroop,2021.2.3,Win32,59.82650314,,,,,,,,,,,,,,,,,,,,,,,,,,,,,,,,,,,,,,,,,,,,,,,,,,,,,,,,,
,,,,right,1,0.2955,2,14,46,9,1,2,200,right,823,2022-01-14_03h57.56.526,multiplicationStroop,2021.2.3,Win32,59.82650314,,,,,,,,,,,,,,,,,,,,,,,,,,,,,,,,,,,,,,,,,,,,,,,,,,,,,,,,,
,,,,left,1,0.3312,2,15,47,5,1,7,-200,left,823,2022-01-14_03h57.56.526,multiplicationStroop,2021.2.3,Win32,59.82650314,,,,,,,,,,,,,,,,,,,,,,,,,,,,,,,,,,,,,,,,,,,,,,,,,,,,,,,,,
,,,,right,1,0.28,3,0,48,14,1,8,200,right,823,2022-01-14_03h57.56.526,multiplicationStroop,2021.2.3,Win32,59.82650314,,,,,,,,,,,,,,,,,,,,,,,,,,,,,,,,,,,,,,,,,,,,,,,,,,,,,,,,,
,,,,left,1,0.2984,3,1,49,4,1,6,-200,left,823,2022-01-14_03h57.56.526,multiplicationStroop,2021.2.3,Win32,59.82650314,,,,,,,,,,,,,,,,,,,,,,,,,,,,,,,,,,,,,,,,,,,,,,,,,,,,,,,,,
,,,,left,1,0.4803,3,2,50,0,1,1,-200,left,823,2022-01-14_03h57.56.526,multiplicationStroop,2021.2.3,Win32,59.82650314,,,,,,,,,,,,,,,,,,,,,,,,,,,,,,,,,,,,,,,,,,,,,,,,,,,,,,,,,
,,,,left,1,0.4191,3,3,51,5,1,7,-200,left,823,2022-01-14_03h57.56.526,multiplicationStroop,2021.2.3,Win32,59.82650314,,,,,,,,,,,,,,,,,,,,,,,,,,,,,,,,,,,,,,,,,,,,,,,,,,,,,,,,,
,,,,right,1,0.365,3,4,52,15,1,9,200,right,823,2022-01-14_03h57.56.526,multiplicationStroop,2021.2.3,Win32,59.82650314,,,,,,,,,,,,,,,,,,,,,,,,,,,,,,,,,,,,,,,,,,,,,,,,,,,,,,,,,
,,,,right,1,0.4815,3,5,53,10,1,3,200,right,823,2022-01-14_03h57.56.526,multiplicationStroop,2021.2.3,Win32,59.82650314,,,,,,,,,,,,,,,,,,,,,,,,,,,,,,,,,,,,,,,,,,,,,,,,,,,,,,,,,
,,,,left,1,0.3615,3,6,54,7,1,9,-200,left,823,2022-01-14_03h57.56.526,multiplicationStroop,2021.2.3,Win32,59.82650314,,,,,,,,,,,,,,,,,,,,,,,,,,,,,,,,,,,,,,,,,,,,,,,,,,,,,,,,,
,,,,left,1,0.4129,3,7,55,1,1,2,-200,left,823,2022-01-14_03h57.56.526,multiplicationStroop,2021.2.3,Win32,59.82650314,,,,,,,,,,,,,,,,,,,,,,,,,,,,,,,,,,,,,,,,,,,,,,,,,,,,,,,,,
,,,,right,1,0.3292,3,8,56,8,1,1,200,right,823,2022-01-14_03h57.56.526,multiplicationStroop,2021.2.3,Win32,59.82650314,,,,,,,,,,,,,,,,,,,,,,,,,,,,,,,,,,,,,,,,,,,,,,,,,,,,,,,,,
,,,,right,1,0.4481,3,9,57,11,1,4,200,right,823,2022-01-14_03h57.56.526,multiplicationStroop,2021.2.3,Win32,59.82650314,,,,,,,,,,,,,,,,,,,,,,,,,,,,,,,,,,,,,,,,,,,,,,,,,,,,,,,,,
,,,,left,1,0.3865,3,10,58,6,1,8,-200,left,823,2022-01-14_03h57.56.526,multiplicationStroop,2021.2.3,Win32,59.82650314,,,,,,,,,,,,,,,,,,,,,,,,,,,,,,,,,,,,,,,,,,,,,,,,,,,,,,,,,
,,,,left,1,0.3459,3,11,59,3,1,4,-200,left,823,2022-01-14_03h57.56.526,multiplicationStroop,2021.2.3,Win32,59.82650314,,,,,,,,,,,,,,,,,,,,,,,,,,,,,,,,,,,,,,,,,,,,,,,,,,,,,,,,,
,,,,left,1,0.3682,3,12,60,2,1,3,-200,left,823,2022-01-14_03h57.56.526,multiplicationStroop,2021.2.3,Win32,59.82650314,,,,,,,,,,,,,,,,,,,,,,,,,,,,,,,,,,,,,,,,,,,,,,,,,,,,,,,,,
,,,,right,1,0.3286,3,13,61,9,1,2,200,right,823,2022-01-14_03h57.56.526,multiplicationStroop,2021.2.3,Win32,59.82650314,,,,,,,,,,,,,,,,,,,,,,,,,,,,,,,,,,,,,,,,,,,,,,,,,,,,,,,,,
,,,,right,1,0.3981,3,14,62,13,1,7,200,right,823,2022-01-14_03h57.56.526,multiplicationStroop,2021.2.3,Win32,59.82650314,,,,,,,,,,,,,,,,,,,,,,,,,,,,,,,,,,,,,,,,,,,,,,,,,,,,,,,,,
,,,,right,1,0.3633,3,15,63,12,1,6,200,right,823,2022-01-14_03h57.56.526,multiplicationStroop,2021.2.3,Win32,59.82650314,,,,,,,,,,,,,,,,,,,,,,,,,,,,,,,,,,,,,,,,,,,,,,,,,,,,,,,,,
,,,,,,,,,,,,,,,823,2022-01-14_03h57.56.526,multiplicationStroop,2021.2.3,Win32,59.82650314,space,8.1196,space,18.5917,right,1,0.8292,0,0,0,48,1,1,2,1 | 2,1,1.6933,1.6933,neutral,right,,,,,,stimulusFile/magnitude.xlsx,,,,,,,,,,,,,,,,,,,,,,,,,,,,,,,
,,,,,,,,,,,,,,,823,2022-01-14_03h57.56.526,multiplicationStroop,2021.2.3,Win32,59.82650314,,,,,left,1,0.7611,0,1,1,52,1,2,1,2 | 1,1,1.6933,1.6933,neutral,left,,,,,,stimulusFile/magnitude.xlsx,,,,,,,,,,,,,,,,,,,,,,,,,,,,,,,
,,,,,,,,,,,,,,,823,2022-01-14_03h57.56.526,multiplicationStroop,2021.2.3,Win32,59.82650314,,,,,left,1,0.7416,0,2,2,71,1,9,4,9 | 4,5,1.6933,1.6933,neutral,left,,,,,,stimulusFile/magnitude.xlsx,,,,,,,,,,,,,,,,,,,,,,,,,,,,,,,
,,,,,,,,,,,,,,,823,2022-01-14_03h57.56.526,multiplicationStroop,2021.2.3,Win32,59.82650314,,,,,left,1,0.8496,0,3,3,53,1,4,3,4 | 3,1,1.6933,1.6933,neutral,left,,,,,,stimulusFile/magnitude.xlsx,,,,,,,,,,,,,,,,,,,,,,,,,,,,,,,
,,,,,,,,,,,,,,,823,2022-01-14_03h57.56.526,multiplicationStroop,2021.2.3,Win32,59.82650314,,,,,right,1,0.7863,0,4,4,40,1,1,6,1 | 6,5,1.9756,1.4111,incongruent,right,,,,,,stimulusFile/magnitude.xlsx,,,,,,,,,,,,,,,,,,,,,,,,,,,,,,,
,,,,,,,,,,,,,,,823,2022-01-14_03h57.56.526,multiplicationStroop,2021.2.3,Win32,59.82650314,,,,,right,1,0.694,0,5,5,58,1,6,8,6 | 8,2,1.6933,1.6933,neutral,right,,,,,,stimulusFile/magnitude.xlsx,,,,,,,,,,,,,,,,,,,,,,,,,,,,,,,
,,,,,,,,,,,,,,,823,2022-01-14_03h57.56.526,multiplicationStroop,2021.2.3,Win32,59.82650314,,,,,left,1,0.6503,0,6,6,30,1,7,6,7 | 6,1,1.4111,1.9756,incongruent,left,,,,,,stimulusFile/magnitude.xlsx,,,,,,,,,,,,,,,,,,,,,,,,,,,,,,,
,,,,,,,,,,,,,,,823,2022-01-14_03h57.56.526,multiplicationStroop,2021.2.3,Win32,59.82650314,,,,,right,1,0.5937,0,7,7,26,1,6,7,6 | 7,1,1.9756,1.4111,incongruent,right,,,,,,stimulusFile/magnitude.xlsx,,,,,,,,,,,,,,,,,,,,,,,,,,,,,,,
,,,,,,,,,,,,,,,823,2022-01-14_03h57.56.526,multiplicationStroop,2021.2.3,Win32,59.82650314,,,,,left,1,0.6727,0,8,8,36,1,3,1,3 | 1,2,1.4111,1.9756,incongruent,left,,,,,,stimulusFile/magnitude.xlsx,,,,,,,,,,,,,,,,,,,,,,,,,,,,,,,
,,,,,,,,,,,,,,,823,2022-01-14_03h57.56.526,multiplicationStroop,2021.2.3,Win32,59.82650314,,,,,left,1,0.6418,0,9,9,38,1,8,6,8 | 6,2,1.4111,1.9756,incongruent,left,,,,,,stimulusFile/magnitude.xlsx,,,,,,,,,,,,,,,,,,,,,,,,,,,,,,,
,,,,,,,,,,,,,,,823,2022-01-14_03h57.56.526,multiplicationStroop,2021.2.3,Win32,59.82650314,,,,,right,1,0.6047,0,10,10,9,1,2,4,2 | 4,2,1.4111,1.9756,congruent,right,,,,,,stimulusFile/magnitude.xlsx,,,,,,,,,,,,,,,,,,,,,,,,,,,,,,,
,,,,,,,,,,,,,,,823,2022-01-14_03h57.56.526,multiplicationStroop,2021.2.3,Win32,59.82650314,,,,,left,1,0.7259,0,11,11,63,1,9,7,9 | 7,2,1.6933,1.6933,neutral,left,,,,,,stimulusFile/magnitude.xlsx,,,,,,,,,,,,,,,,,,,,,,,,,,,,,,,
,,,,,,,,,,,,,,,823,2022-01-14_03h57.56.526,multiplicationStroop,2021.2.3,Win32,59.82650314,,,,,left,1,0.5597,0,12,12,44,1,6,1,6 | 1,5,1.4111,1.9756,incongruent,left,,,,,,stimulusFile/magnitude.xlsx,,,,,,,,,,,,,,,,,,,,,,,,,,,,,,,
,,,,,,,,,,,,,,,823,2022-01-14_03h57.56.526,multiplicationStroop,2021.2.3,Win32,59.82650314,,,,,left,1,0.5721,0,13,13,23,1,9,4,9 | 4,5,1.9756,1.4111,congruent,left,,,,,,stimulusFile/magnitude.xlsx,,,,,,,,,,,,,,,,,,,,,,,,,,,,,,,
,,,,,,,,,,,,,,,823,2022-01-14_03h57.56.526,multiplicationStroop,2021.2.3,Win32,59.82650314,,,,,right,1,0.7855,0,14,14,25,1,3,4,3 | 4,1,1.9756,1.4111,incongruent,right,,,,,,stimulusFile/magnitude.xlsx,,,,,,,,,,,,,,,,,,,,,,,,,,,,,,,
,,,,,,,,,,,,,,,823,2022-01-14_03h57.56.526,multiplicationStroop,2021.2.3,Win32,59.82650314,,,,,left,1,0.5948,0,15,15,12,1,3,1,3 | 1,2,1.9756,1.4111,congruent,left,,,,,,stimulusFile/magnitude.xlsx,,,,,,,,,,,,,,,,,,,,,,,,,,,,,,,
,,,,,,,,,,,,,,,823,2022-01-14_03h57.56.526,multiplicationStroop,2021.2.3,Win32,59.82650314,,,,,right,1,0.6584,0,16,16,34,1,6,8,6 | 8,2,1.9756,1.4111,incongruent,right,,,,,,stimulusFile/magnitude.xlsx,,,,,,,,,,,,,,,,,,,,,,,,,,,,,,,
,,,,,,,,,,,,,,,823,2022-01-14_03h57.56.526,multiplicationStroop,2021.2.3,Win32,59.82650314,,,,,left,1,0.9278,0,17,17,28,1,2,1,2 | 1,1,1.4111,1.9756,incongruent,left,,,,,,stimulusFile/magnitude.xlsx,,,,,,,,,,,,,,,,,,,,,,,,,,,,,,,
,,,,,,,,,,,,,,,823,2022-01-14_03h57.56.526,multiplicationStroop,2021.2.3,Win32,59.82650314,,,,,left,1,0.5579,0,18,18,13,1,4,2,4 | 2,2,1.9756,1.4111,congruent,left,,,,,,stimulusFile/magnitude.xlsx,,,,,,,,,,,,,,,,,,,,,,,,,,,,,,,
,,,,,,,,,,,,,,,823,2022-01-14_03h57.56.526,multiplicationStroop,2021.2.3,Win32,59.82650314,,,,,left,1,1.1678,0,19,19,31,1,9,8,9 | 8,1,1.4111,1.9756,incongruent,left,,,,,,stimulusFile/magnitude.xlsx,,,,,,,,,,,,,,,,,,,,,,,,,,,,,,,
,,,,,,,,,,,,,,,823,2022-01-14_03h57.56.526,multiplicationStroop,2021.2.3,Win32,59.82650314,,,,,right,1,0.5805,0,20,20,19,1,4,9,4 | 9,5,1.4111,1.9756,congruent,right,,,,,,stimulusFile/magnitude.xlsx,,,,,,,,,,,,,,,,,,,,,,,,,,,,,,,
,,,,,,,,,,,,,,,823,2022-01-14_03h57.56.526,multiplicationStroop,2021.2.3,Win32,59.82650314,,,,,left,1,0.9282,0,21,21,14,1,8,6,8 | 6,2,1.9756,1.4111,congruent,left,,,,,,stimulusFile/magnitude.xlsx,,,,,,,,,,,,,,,,,,,,,,,,,,,,,,,
,,,,,,,,,,,,,,,823,2022-01-14_03h57.56.526,multiplicationStroop,2021.2.3,Win32,59.82650314,,,,,left,1,1.4753,0,22,22,39,1,9,7,9 | 7,2,1.4111,1.9756,incongruent,left,,,,,,stimulusFile/magnitude.xlsx,,,,,,,,,,,,,,,,,,,,,,,,,,,,,,,
,,,,,,,,,,,,,,,823,2022-01-14_03h57.56.526,multiplicationStroop,2021.2.3,Win32,59.82650314,,,,,left,1,0.5899,0,23,23,4,1,2,1,2 | 1,1,1.9756,1.4111,congruent,left,,,,,,stimulusFile/magnitude.xlsx,,,,,,,,,,,,,,,,,,,,,,,,,,,,,,,
,,,,,,,,,,,,,,,823,2022-01-14_03h57.56.526,multiplicationStroop,2021.2.3,Win32,59.82650314,,,,,right,1,0.4985,0,24,24,64,1,1,6,1 | 6,5,1.6933,1.6933,neutral,right,,,,,,stimulusFile/magnitude.xlsx,,,,,,,,,,,,,,,,,,,,,,,,,,,,,,,
,,,,,,,,,,,,,,,823,2022-01-14_03h57.56.526,multiplicationStroop,2021.2.3,Win32,59.82650314,,,,,right,1,0.6302,0,25,25,3,1,8,9,8 | 9,1,1.4111,1.9756,congruent,right,,,,,,stimulusFile/magnitude.xlsx,,,,,,,,,,,,,,,,,,,,,,,,,,,,,,,
,,,,,,,,,,,,,,,823,2022-01-14_03h57.56.526,multiplicationStroop,2021.2.3,Win32,59.82650314,,,,,right,1,0.6757,0,26,26,65,1,2,7,2 | 7,5,1.6933,1.6933,neutral,right,,,,,,stimulusFile/magnitude.xlsx,,,,,,,,,,,,,,,,,,,,,,,,,,,,,,,
,,,,,,,,,,,,,,,823,2022-01-14_03h57.56.526,multiplicationStroop,2021.2.3,Win32,59.82650314,,,,,right,1,0.7962,0,27,27,24,1,1,2,1 | 2,1,1.9756,1.4111,incongruent,right,,,,,,stimulusFile/magnitude.xlsx,,,,,,,,,,,,,,,,,,,,,,,,,,,,,,,
,,,,,,,,,,,,,,,823,2022-01-14_03h57.56.526,multiplicationStroop,2021.2.3,Win32,59.82650314,,,,,left,1,0.6087,0,28,28,29,1,4,3,4 | 3,1,1.4111,1.9756,incongruent,left,,,,,,stimulusFile/magnitude.xlsx,,,,,,,,,,,,,,,,,,,,,,,,,,,,,,,
,,,,,,,,,,,,,,,823,2022-01-14_03h57.56.526,multiplicationStroop,2021.2.3,Win32,59.82650314,,,,,left,1,0.4676,0,29,29,46,1,8,3,8 | 3,5,1.4111,1.9756,incongruent,left,,,,,,stimulusFile/magnitude.xlsx,,,,,,,,,,,,,,,,,,,,,,,,,,,,,,,
,,,,,,,,,,,,,,,823,2022-01-14_03h57.56.526,multiplicationStroop,2021.2.3,Win32,59.82650314,,,,,right,1,0.6297,0,30,30,18,1,3,8,3 | 8,5,1.4111,1.9756,congruent,right,,,,,,stimulusFile/magnitude.xlsx,,,,,,,,,,,,,,,,,,,,,,,,,,,,,,,
,,,,,,,,,,,,,,,823,2022-01-14_03h57.56.526,multiplicationStroop,2021.2.3,Win32,59.82650314,,,,,left,1,0.7438,0,31,31,54,1,7,6,7 | 6,1,1.6933,1.6933,neutral,left,,,,,,stimulusFile/magnitude.xlsx,,,,,,,,,,,,,,,,,,,,,,,,,,,,,,,
,,,,,,,,,,,,,,,823,2022-01-14_03h57.56.526,multiplicationStroop,2021.2.3,Win32,59.82650314,,,,,right,1,0.7406,0,32,32,33,1,2,4,2 | 4,2,1.9756,1.4111,incongruent,right,,,,,,stimulusFile/magnitude.xlsx,,,,,,,,,,,,,,,,,,,,,,,,,,,,,,,
,,,,,,,,,,,,,,,823,2022-01-14_03h57.56.526,multiplicationStroop,2021.2.3,Win32,59.82650314,,,,,right,1,0.6369,0,33,33,11,1,7,9,7 | 9,2,1.4111,1.9756,congruent,right,,,,,,stimulusFile/magnitude.xlsx,,,,,,,,,,,,,,,,,,,,,,,,,,,,,,,
,,,,,,,,,,,,,,,823,2022-01-14_03h57.56.526,multiplicationStroop,2021.2.3,Win32,59.82650314,,,,,left,1,0.5288,0,34,34,7,1,9,8,9 | 8,1,1.9756,1.4111,congruent,left,,,,,,stimulusFile/magnitude.xlsx,,,,,,,,,,,,,,,,,,,,,,,,,,,,,,,
,,,,,,,,,,,,,,,823,2022-01-14_03h57.56.526,multiplicationStroop,2021.2.3,Win32,59.82650314,,,,,left,1,0.8945,0,35,35,37,1,4,2,4 | 2,2,1.4111,1.9756,incongruent,left,,,,,,stimulusFile/magnitude.xlsx,,,,,,,,,,,,,,,,,,,,,,,,,,,,,,,
,,,,,,,,,,,,,,,823,2022-01-14_03h57.56.526,multiplicationStroop,2021.2.3,Win32,59.82650314,,,,,left,1,0.5626,0,36,36,60,1,3,1,3 | 1,2,1.6933,1.6933,neutral,left,,,,,,stimulusFile/magnitude.xlsx,,,,,,,,,,,,,,,,,,,,,,,,,,,,,,,
,,,,,,,,,,,,,,,823,2022-01-14_03h57.56.526,multiplicationStroop,2021.2.3,Win32,59.82650314,,,,,right,1,1.1238,0,37,37,27,1,8,9,8 | 9,1,1.9756,1.4111,incongruent,right,,,,,,stimulusFile/magnitude.xlsx,,,,,,,,,,,,,,,,,,,,,,,,,,,,,,,
,,,,,,,,,,,,,,,823,2022-01-14_03h57.56.526,multiplicationStroop,2021.2.3,Win32,59.82650314,,,,,right,1,0.7649,0,38,38,35,1,7,9,7 | 9,2,1.9756,1.4111,incongruent,right,,,,,,stimulusFile/magnitude.xlsx,,,,,,,,,,,,,,,,,,,,,,,,,,,,,,,
,,,,,,,,,,,,,,,823,2022-01-14_03h57.56.526,multiplicationStroop,2021.2.3,Win32,59.82650314,,,,,left,1,0.5764,0,39,39,70,1,8,3,8 | 3,5,1.6933,1.6933,neutral,left,,,,,,stimulusFile/magnitude.xlsx,,,,,,,,,,,,,,,,,,,,,,,,,,,,,,,
,,,,,,,,,,,,,,,823,2022-01-14_03h57.56.526,multiplicationStroop,2021.2.3,Win32,59.82650314,,,,,left,1,0.5639,0,40,40,62,1,8,6,8 | 6,2,1.6933,1.6933,neutral,left,,,,,,stimulusFile/magnitude.xlsx,,,,,,,,,,,,,,,,,,,,,,,,,,,,,,,
,,,,,,,,,,,,,,,823,2022-01-14_03h57.56.526,multiplicationStroop,2021.2.3,Win32,59.82650314,,,,,right,1,0.5741,0,41,41,56,1,1,3,1 | 3,2,1.6933,1.6933,neutral,right,,,,,,stimulusFile/magnitude.xlsx,,,,,,,,,,,,,,,,,,,,,,,,,,,,,,,
,,,,,,,,,,,,,,,823,2022-01-14_03h57.56.526,multiplicationStroop,2021.2.3,Win32,59.82650314,,,,,right,1,0.5841,0,42,42,10,1,6,8,6 | 8,2,1.4111,1.9756,congruent,right,,,,,,stimulusFile/magnitude.xlsx,,,,,,,,,,,,,,,,,,,,,,,,,,,,,,,
,,,,,,,,,,,,,,,823,2022-01-14_03h57.56.526,multiplicationStroop,2021.2.3,Win32,59.82650314,,,,,right,1,0.5315,0,43,43,17,1,2,7,2 | 7,5,1.4111,1.9756,congruent,right,,,,,,stimulusFile/magnitude.xlsx,,,,,,,,,,,,,,,,,,,,,,,,,,,,,,,
,,,,,,,,,,,,,,,823,2022-01-14_03h57.56.526,multiplicationStroop,2021.2.3,Win32,59.82650314,,,,,right,1,0.5285,0,44,44,8,1,1,3,1 | 3,2,1.4111,1.9756,congruent,right,,,,,,stimulusFile/magnitude.xlsx,,,,,,,,,,,,,,,,,,,,,,,,,,,,,,,
,,,,,,,,,,,,,,,823,2022-01-14_03h57.56.526,multiplicationStroop,2021.2.3,Win32,59.82650314,,,,,left,1,0.4827,0,45,45,68,1,6,1,6 | 1,5,1.6933,1.6933,neutral,left,,,,,,stimulusFile/magnitude.xlsx,,,,,,,,,,,,,,,,,,,,,,,,,,,,,,,
,,,,,,,,,,,,,,,823,2022-01-14_03h57.56.526,multiplicationStroop,2021.2.3,Win32,59.82650314,,,,,right,1,0.6084,0,46,46,59,1,7,9,7 | 9,2,1.6933,1.6933,neutral,right,,,,,,stimulusFile/magnitude.xlsx,,,,,,,,,,,,,,,,,,,,,,,,,,,,,,,
,,,,,,,,,,,,,,,823,2022-01-14_03h57.56.526,multiplicationStroop,2021.2.3,Win32,59.82650314,,,,,right,1,0.5281,0,47,47,50,1,6,7,6 | 7,1,1.6933,1.6933,neutral,right,,,,,,stimulusFile/magnitude.xlsx,,,,,,,,,,,,,,,,,,,,,,,,,,,,,,,
,,,,,,,,,,,,,,,823,2022-01-14_03h57.56.526,multiplicationStroop,2021.2.3,Win32,59.82650314,,,,,left,1,0.5675,0,48,48,55,1,9,8,9 | 8,1,1.6933,1.6933,neutral,left,,,,,,stimulusFile/magnitude.xlsx,,,,,,,,,,,,,,,,,,,,,,,,,,,,,,,
,,,,,,,,,,,,,,,823,2022-01-14_03h57.56.526,multiplicationStroop,2021.2.3,Win32,59.82650314,,,,,right,1,0.566,0,49,49,51,1,8,9,8 | 9,1,1.6933,1.6933,neutral,right,,,,,,stimulusFile/magnitude.xlsx,,,,,,,,,,,,,,,,,,,,,,,,,,,,,,,
,,,,,,,,,,,,,,,823,2022-01-14_03h57.56.526,multiplicationStroop,2021.2.3,Win32,59.82650314,,,,,left,1,0.5254,0,50,50,6,1,7,6,7 | 6,1,1.9756,1.4111,congruent,left,,,,,,stimulusFile/magnitude.xlsx,,,,,,,,,,,,,,,,,,,,,,,,,,,,,,,
,,,,,,,,,,,,,,,823,2022-01-14_03h57.56.526,multiplicationStroop,2021.2.3,Win32,59.82650314,,,,,left,1,0.6178,0,51,51,15,1,9,7,9 | 7,2,1.9756,1.4111,congruent,left,,,,,,stimulusFile/magnitude.xlsx,,,,,,,,,,,,,,,,,,,,,,,,,,,,,,,
,,,,,,,,,,,,,,,823,2022-01-14_03h57.56.526,multiplicationStroop,2021.2.3,Win32,59.82650314,,,,,right,1,0.5478,0,52,52,66,1,3,8,3 | 8,5,1.6933,1.6933,neutral,right,,,,,,stimulusFile/magnitude.xlsx,,,,,,,,,,,,,,,,,,,,,,,,,,,,,,,
,,,,,,,,,,,,,,,823,2022-01-14_03h57.56.526,multiplicationStroop,2021.2.3,Win32,59.82650314,,,,,right,1,0.5909,0,53,53,57,1,2,4,2 | 4,2,1.6933,1.6933,neutral,right,,,,,,stimulusFile/magnitude.xlsx,,,,,,,,,,,,,,,,,,,,,,,,,,,,,,,
,,,,,,,,,,,,,,,823,2022-01-14_03h57.56.526,multiplicationStroop,2021.2.3,Win32,59.82650314,,,,,left,1,0.4942,0,54,54,69,1,7,2,7 | 2,5,1.6933,1.6933,neutral,left,,,,,,stimulusFile/magnitude.xlsx,,,,,,,,,,,,,,,,,,,,,,,,,,,,,,,
,,,,,,,,,,,,,,,823,2022-01-14_03h57.56.526,multiplicationStroop,2021.2.3,Win32,59.82650314,,,,,left,1,0.5426,0,55,55,22,1,8,3,8 | 3,5,1.9756,1.4111,congruent,left,,,,,,stimulusFile/magnitude.xlsx,,,,,,,,,,,,,,,,,,,,,,,,,,,,,,,
,,,,,,,,,,,,,,,823,2022-01-14_03h57.56.526,multiplicationStroop,2021.2.3,Win32,59.82650314,,,,,right,1,0.4972,0,56,56,42,1,3,8,3 | 8,5,1.9756,1.4111,incongruent,right,,,,,,stimulusFile/magnitude.xlsx,,,,,,,,,,,,,,,,,,,,,,,,,,,,,,,
,,,,,,,,,,,,,,,823,2022-01-14_03h57.56.526,multiplicationStroop,2021.2.3,Win32,59.82650314,,,,,right,1,0.6243,0,57,57,67,1,4,9,4 | 9,5,1.6933,1.6933,neutral,right,,,,,,stimulusFile/magnitude.xlsx,,,,,,,,,,,,,,,,,,,,,,,,,,,,,,,
,,,,,,,,,,,,,,,823,2022-01-14_03h57.56.526,multiplicationStroop,2021.2.3,Win32,59.82650314,,,,,right,1,0.5621,0,58,58,0,1,1,2,1 | 2,1,1.4111,1.9756,congruent,right,,,,,,stimulusFile/magnitude.xlsx,,,,,,,,,,,,,,,,,,,,,,,,,,,,,,,
,,,,,,,,,,,,,,,823,2022-01-14_03h57.56.526,multiplicationStroop,2021.2.3,Win32,59.82650314,,,,,left,1,0.5237,0,59,59,21,1,7,2,7 | 2,5,1.9756,1.4111,congruent,left,,,,,,stimulusFile/magnitude.xlsx,,,,,,,,,,,,,,,,,,,,,,,,,,,,,,,
,,,,,,,,,,,,,,,823,2022-01-14_03h57.56.526,multiplicationStroop,2021.2.3,Win32,59.82650314,,,,,right,1,0.5577,0,60,60,2,1,6,7,6 | 7,1,1.4111,1.9756,congruent,right,,,,,,stimulusFile/magnitude.xlsx,,,,,,,,,,,,,,,,,,,,,,,,,,,,,,,
,,,,,,,,,,,,,,,823,2022-01-14_03h57.56.526,multiplicationStroop,2021.2.3,Win32,59.82650314,,,,,right,1,0.507,0,61,61,1,1,3,4,3 | 4,1,1.4111,1.9756,congruent,right,,,,,,stimulusFile/magnitude.xlsx,,,,,,,,,,,,,,,,,,,,,,,,,,,,,,,
,,,,,,,,,,,,,,,823,2022-01-14_03h57.56.526,multiplicationStroop,2021.2.3,Win32,59.82650314,,,,,right,1,0.526,0,62,62,41,1,2,7,2 | 7,5,1.9756,1.4111,incongruent,right,,,,,,stimulusFile/magnitude.xlsx,,,,,,,,,,,,,,,,,,,,,,,,,,,,,,,
,,,,,,,,,,,,,,,823,2022-01-14_03h57.56.526,multiplicationStroop,2021.2.3,Win32,59.82650314,,,,,right,1,0.6585,0,63,63,49,1,3,4,3 | 4,1,1.6933,1.6933,neutral,right,,,,,,stimulusFile/magnitude.xlsx,,,,,,,,,,,,,,,,,,,,,,,,,,,,,,,
,,,,,,,,,,,,,,,823,2022-01-14_03h57.56.526,multiplicationStroop,2021.2.3,Win32,59.82650314,,,,,left,1,0.5411,0,64,64,20,1,6,1,6 | 1,5,1.9756,1.4111,congruent,left,,,,,,stimulusFile/magnitude.xlsx,,,,,,,,,,,,,,,,,,,,,,,,,,,,,,,
,,,,,,,,,,,,,,,823,2022-01-14_03h57.56.526,multiplicationStroop,2021.2.3,Win32,59.82650314,,,,,left,1,0.5979,0,65,65,47,1,9,4,9 | 4,5,1.4111,1.9756,incongruent,left,,,,,,stimulusFile/magnitude.xlsx,,,,,,,,,,,,,,,,,,,,,,,,,,,,,,,
,,,,,,,,,,,,,,,823,2022-01-14_03h57.56.526,multiplicationStroop,2021.2.3,Win32,59.82650314,,,,,left,1,0.6001,0,66,66,61,1,4,2,4 | 2,2,1.6933,1.6933,neutral,left,,,,,,stimulusFile/magnitude.xlsx,,,,,,,,,,,,,,,,,,,,,,,,,,,,,,,
,,,,,,,,,,,,,,,823,2022-01-14_03h57.56.526,multiplicationStroop,2021.2.3,Win32,59.82650314,,,,,left,1,0.5253,0,67,67,5,1,4,3,4 | 3,1,1.9756,1.4111,congruent,left,,,,,,stimulusFile/magnitude.xlsx,,,,,,,,,,,,,,,,,,,,,,,,,,,,,,,
,,,,,,,,,,,,,,,823,2022-01-14_03h57.56.526,multiplicationStroop,2021.2.3,Win32,59.82650314,,,,,right,1,0.5813,0,68,68,32,1,1,3,1 | 3,2,1.9756,1.4111,incongruent,right,,,,,,stimulusFile/magnitude.xlsx,,,,,,,,,,,,,,,,,,,,,,,,,,,,,,,
,,,,,,,,,,,,,,,823,2022-01-14_03h57.56.526,multiplicationStroop,2021.2.3,Win32,59.82650314,,,,,right,1,0.6295,0,69,69,43,1,4,9,4 | 9,5,1.9756,1.4111,incongruent,right,,,,,,stimulusFile/magnitude.xlsx,,,,,,,,,,,,,,,,,,,,,,,,,,,,,,,
,,,,,,,,,,,,,,,823,2022-01-14_03h57.56.526,multiplicationStroop,2021.2.3,Win32,59.82650314,,,,,right,1,0.579,0,70,70,16,1,1,6,1 | 6,5,1.4111,1.9756,congruent,right,,,,,,stimulusFile/magnitude.xlsx,,,,,,,,,,,,,,,,,,,,,,,,,,,,,,,
,,,,,,,,,,,,,,,823,2022-01-14_03h57.56.526,multiplicationStroop,2021.2.3,Win32,59.82650314,,,,,left,1,0.6248,0,71,71,45,1,7,2,7 | 2,5,1.4111,1.9756,incongruent,left,,,,,,stimulusFile/magnitude.xlsx,,,,,,,,,,,,,,,,,,,,,,,,,,,,,,,
,,,,,,,,,,,,,,,823,2022-01-14_03h57.56.526,multiplicationStroop,2021.2.3,Win32,59.82650314,,,,,,,,,,,,,,,,,,,,,0,0,0,0,1,stimulusFile/magnitude.xlsx,NUMERICALLY larger.,images/numericallyLarger.png,,,,,,,,,,,,,,,,,,,,,,,,,,,,,
,,,,,,,,,,,,,,,823,2022-01-14_03h57.56.526,multiplicationStroop,2021.2.3,Win32,59.82650314,space,3.9912,space,2.6864,right,1,0.6682,0,0,0,45,1,7,2,7 | 2,5,1.4111,1.9756,incongruent,right,,,,,,stimulusFile/physical.xlsx,,,,,,,,,,,,,,,,,,,,,,,,,,,,,,,
,,,,,,,,,,,,,,,823,2022-01-14_03h57.56.526,multiplicationStroop,2021.2.3,Win32,59.82650314,,,,,right,1,0.4594,0,1,1,29,1,4,3,4 | 3,1,1.4111,1.9756,incongruent,right,,,,,,stimulusFile/physical.xlsx,,,,,,,,,,,,,,,,,,,,,,,,,,,,,,,
,,,,,,,,,,,,,,,823,2022-01-14_03h57.56.526,multiplicationStroop,2021.2.3,Win32,59.82650314,,,,,left,1,0.5936,0,2,2,70,1,8,8,8 | 8,0,1.9756,1.4111,neutral,left,,,,,,stimulusFile/physical.xlsx,,,,,,,,,,,,,,,,,,,,,,,,,,,,,,,
,,,,,,,,,,,,,,,823,2022-01-14_03h57.56.526,multiplicationStroop,2021.2.3,Win32,59.82650314,,,,,right,1,0.8428,0,3,3,44,1,6,1,6 | 1,5,1.4111,1.9756,incongruent,right,,,,,,stimulusFile/physical.xlsx,,,,,,,,,,,,,,,,,,,,,,,,,,,,,,,
,,,,,,,,,,,,,,,823,2022-01-14_03h57.56.526,multiplicationStroop,2021.2.3,Win32,59.82650314,,,,,left,1,0.7857,0,4,4,41,1,2,7,2 | 7,5,1.9756,1.4111,incongruent,left,,,,,,stimulusFile/physical.xlsx,,,,,,,,,,,,,,,,,,,,,,,,,,,,,,,
,,,,,,,,,,,,,,,823,2022-01-14_03h57.56.526,multiplicationStroop,2021.2.3,Win32,59.82650314,,,,,right,1,0.4516,0,5,5,3,1,8,9,8 | 9,1,1.4111,1.9756,congruent,right,,,,,,stimulusFile/physical.xlsx,,,,,,,,,,,,,,,,,,,,,,,,,,,,,,,
,,,,,,,,,,,,,,,823,2022-01-14_03h57.56.526,multiplicationStroop,2021.2.3,Win32,59.82650314,,,,,right,1,0.4678,0,6,6,1,1,3,4,3 | 4,1,1.4111,1.9756,congruent,right,,,,,,stimulusFile/physical.xlsx,,,,,,,,,,,,,,,,,,,,,,,,,,,,,,,
,,,,,,,,,,,,,,,823,2022-01-14_03h57.56.526,multiplicationStroop,2021.2.3,Win32,59.82650314,,,,,left,1,0.5842,0,7,7,12,1,3,1,3 | 1,2,1.9756,1.4111,congruent,left,,,,,,stimulusFile/physical.xlsx,,,,,,,,,,,,,,,,,,,,,,,,,,,,,,,
,,,,,,,,,,,,,,,823,2022-01-14_03h57.56.526,multiplicationStroop,2021.2.3,Win32,59.82650314,,,,,left,1,0.5977,0,8,8,52,1,2,2,2 | 2,0,1.9756,1.4111,neutral,left,,,,,,stimulusFile/physical.xlsx,,,,,,,,,,,,,,,,,,,,,,,,,,,,,,,
,,,,,,,,,,,,,,,823,2022-01-14_03h57.56.526,multiplicationStroop,2021.2.3,Win32,59.82650314,,,,,right,1,0.7261,0,9,9,47,1,9,4,9 | 4,5,1.4111,1.9756,incongruent,right,,,,,,stimulusFile/physical.xlsx,,,,,,,,,,,,,,,,,,,,,,,,,,,,,,,
,,,,,,,,,,,,,,,823,2022-01-14_03h57.56.526,multiplicationStroop,2021.2.3,Win32,59.82650314,,,,,left,1,0.8089,0,10,10,24,1,1,2,1 | 2,1,1.9756,1.4111,incongruent,left,,,,,,stimulusFile/physical.xlsx,,,,,,,,,,,,,,,,,,,,,,,,,,,,,,,
,,,,,,,,,,,,,,,823,2022-01-14_03h57.56.526,multiplicationStroop,2021.2.3,Win32,59.82650314,,,,,right,1,0.6658,0,11,11,8,1,1,3,1 | 3,2,1.4111,1.9756,congruent,right,,,,,,stimulusFile/physical.xlsx,,,,,,,,,,,,,,,,,,,,,,,,,,,,,,,
,,,,,,,,,,,,,,,823,2022-01-14_03h57.56.526,multiplicationStroop,2021.2.3,Win32,59.82650314,,,,,right,1,0.6047,0,12,12,56,1,1,1,1 | 1,0,1.4111,1.9756,neutral,right,,,,,,stimulusFile/physical.xlsx,,,,,,,,,,,,,,,,,,,,,,,,,,,,,,,
,,,,,,,,,,,,,,,823,2022-01-14_03h57.56.526,multiplicationStroop,2021.2.3,Win32,59.82650314,,,,,right,1,0.5903,0,13,13,46,1,8,3,8 | 3,5,1.4111,1.9756,incongruent,right,,,,,,stimulusFile/physical.xlsx,,,,,,,,,,,,,,,,,,,,,,,,,,,,,,,
,,,,,,,,,,,,,,,823,2022-01-14_03h57.56.526,multiplicationStroop,2021.2.3,Win32,59.82650314,,,,,right,0,0.8575,0,14,14,69,1,7,7,7 | 7,0,1.4111,1.9756,neutral,left,,,,,,stimulusFile/physical.xlsx,,,,,,,,,,,,,,,,,,,,,,,,,,,,,,,
,,,,,,,,,,,,,,,823,2022-01-14_03h57.56.526,multiplicationStroop,2021.2.3,Win32,59.82650314,,,,,left,1,0.5197,0,15,15,68,1,6,6,6 | 6,0,1.9756,1.4111,neutral,left,,,,,,stimulusFile/physical.xlsx,,,,,,,,,,,,,,,,,,,,,,,,,,,,,,,
,,,,,,,,,,,,,,,823,2022-01-14_03h57.56.526,multiplicationStroop,2021.2.3,Win32,59.82650314,,,,,right,1,0.5072,0,16,16,39,1,9,7,9 | 7,2,1.4111,1.9756,incongruent,right,,,,,,stimulusFile/physical.xlsx,,,,,,,,,,,,,,,,,,,,,,,,,,,,,,,
,,,,,,,,,,,,,,,823,2022-01-14_03h57.56.526,multiplicationStroop,2021.2.3,Win32,59.82650314,,,,,left,1,0.4735,0,17,17,20,1,6,1,6 | 1,5,1.9756,1.4111,congruent,left,,,,,,stimulusFile/physical.xlsx,,,,,,,,,,,,,,,,,,,,,,,,,,,,,,,
,,,,,,,,,,,,,,,823,2022-01-14_03h57.56.526,multiplicationStroop,2021.2.3,Win32,59.82650314,,,,,right,1,0.5585,0,18,18,11,1,7,9,7 | 9,2,1.4111,1.9756,congruent,right,,,,,,stimulusFile/physical.xlsx,,,,,,,,,,,,,,,,,,,,,,,,,,,,,,,
,,,,,,,,,,,,,,,823,2022-01-14_03h57.56.526,multiplicationStroop,2021.2.3,Win32,59.82650314,,,,,left,0,0.539,0,19,19,66,1,3,3,3 | 3,0,1.9756,1.4111,neutral,right,,,,,,stimulusFile/physical.xlsx,,,,,,,,,,,,,,,,,,,,,,,,,,,,,,,
,,,,,,,,,,,,,,,823,2022-01-14_03h57.56.526,multiplicationStroop,2021.2.3,Win32,59.82650314,,,,,right,0,0.6499,0,20,20,42,1,3,8,3 | 8,5,1.9756,1.4111,incongruent,left,,,,,,stimulusFile/physical.xlsx,,,,,,,,,,,,,,,,,,,,,,,,,,,,,,,
,,,,,,,,,,,,,,,823,2022-01-14_03h57.56.526,multiplicationStroop,2021.2.3,Win32,59.82650314,,,,,left,1,0.6069,0,21,21,48,1,1,1,1 | 1,0,1.9756,1.4111,neutral,left,,,,,,stimulusFile/physical.xlsx,,,,,,,,,,,,,,,,,,,,,,,,,,,,,,,
,,,,,,,,,,,,,,,823,2022-01-14_03h57.56.526,multiplicationStroop,2021.2.3,Win32,59.82650314,,,,,right,1,0.64,0,22,22,36,1,3,1,3 | 1,2,1.4111,1.9756,incongruent,right,,,,,,stimulusFile/physical.xlsx,,,,,,,,,,,,,,,,,,,,,,,,,,,,,,,
,,,,,,,,,,,,,,,823,2022-01-14_03h57.56.526,multiplicationStroop,2021.2.3,Win32,59.82650314,,,,,left,1,0.6228,0,23,23,32,1,1,3,1 | 3,2,1.9756,1.4111,incongruent,left,,,,,,stimulusFile/physical.xlsx,,,,,,,,,,,,,,,,,,,,,,,,,,,,,,,
,,,,,,,,,,,,,,,823,2022-01-14_03h57.56.526,multiplicationStroop,2021.2.3,Win32,59.82650314,,,,,left,0,0.5785,0,24,24,64,1,1,1,1 | 1,0,1.9756,1.4111,neutral,right,,,,,,stimulusFile/physical.xlsx,,,,,,,,,,,,,,,,,,,,,,,,,,,,,,,
,,,,,,,,,,,,,,,823,2022-01-14_03h57.56.526,multiplicationStroop,2021.2.3,Win32,59.82650314,,,,,left,1,0.6412,0,25,25,14,1,8,6,8 | 6,2,1.9756,1.4111,congruent,left,,,,,,stimulusFile/physical.xlsx,,,,,,,,,,,,,,,,,,,,,,,,,,,,,,,
,,,,,,,,,,,,,,,823,2022-01-14_03h57.56.526,multiplicationStroop,2021.2.3,Win32,59.82650314,,,,,right,1,0.5278,0,26,26,0,1,1,2,1 | 2,1,1.4111,1.9756,congruent,right,,,,,,stimulusFile/physical.xlsx,,,,,,,,,,,,,,,,,,,,,,,,,,,,,,,
,,,,,,,,,,,,,,,823,2022-01-14_03h57.56.526,multiplicationStroop,2021.2.3,Win32,59.82650314,,,,,right,1,0.6072,0,27,27,19,1,4,9,4 | 9,5,1.4111,1.9756,congruent,right,,,,,,stimulusFile/physical.xlsx,,,,,,,,,,,,,,,,,,,,,,,,,,,,,,,
,,,,,,,,,,,,,,,823,2022-01-14_03h57.56.526,multiplicationStroop,2021.2.3,Win32,59.82650314,,,,,right,1,0.5732,0,28,28,58,1,6,6,6 | 6,0,1.4111,1.9756,neutral,right,,,,,,stimulusFile/physical.xlsx,,,,,,,,,,,,,,,,,,,,,,,,,,,,,,,
,,,,,,,,,,,,,,,823,2022-01-14_03h57.56.526,multiplicationStroop,2021.2.3,Win32,59.82650314,,,,,right,1,0.6066,0,29,29,63,1,9,9,9 | 9,0,1.4111,1.9756,neutral,right,,,,,,stimulusFile/physical.xlsx,,,,,,,,,,,,,,,,,,,,,,,,,,,,,,,
,,,,,,,,,,,,,,,823,2022-01-14_03h57.56.526,multiplicationStroop,2021.2.3,Win32,59.82650314,,,,,left,1,1.0073,0,30,30,25,1,3,4,3 | 4,1,1.9756,1.4111,incongruent,left,,,,,,stimulusFile/physical.xlsx,,,,,,,,,,,,,,,,,,,,,,,,,,,,,,,
,,,,,,,,,,,,,,,823,2022-01-14_03h57.56.526,multiplicationStroop,2021.2.3,Win32,59.82650314,,,,,right,1,0.5082,0,31,31,62,1,8,8,8 | 8,0,1.4111,1.9756,neutral,right,,,,,,stimulusFile/physical.xlsx,,,,,,,,,,,,,,,,,,,,,,,,,,,,,,,
,,,,,,,,,,,,,,,823,2022-01-14_03h57.56.526,multiplicationStroop,2021.2.3,Win32,59.82650314,,,,,right,1,0.5553,0,32,32,2,1,6,7,6 | 7,1,1.4111,1.9756,congruent,right,,,,,,stimulusFile/physical.xlsx,,,,,,,,,,,,,,,,,,,,,,,,,,,,,,,
,,,,,,,,,,,,,,,823,2022-01-14_03h57.56.526,multiplicationStroop,2021.2.3,Win32,59.82650314,,,,,right,1,0.5759,0,33,33,9,1,2,4,2 | 4,2,1.4111,1.9756,congruent,right,,,,,,stimulusFile/physical.xlsx,,,,,,,,,,,,,,,,,,,,,,,,,,,,,,,
,,,,,,,,,,,,,,,823,2022-01-14_03h57.56.526,multiplicationStroop,2021.2.3,Win32,59.82650314,,,,,left,1,0.5733,0,34,34,26,1,6,7,6 | 7,1,1.9756,1.4111,incongruent,left,,,,,,stimulusFile/physical.xlsx,,,,,,,,,,,,,,,,,,,,,,,,,,,,,,,
,,,,,,,,,,,,,,,823,2022-01-14_03h57.56.526,multiplicationStroop,2021.2.3,Win32,59.82650314,,,,,right,1,0.9614,0,35,35,57,1,2,2,2 | 2,0,1.4111,1.9756,neutral,right,,,,,,stimulusFile/physical.xlsx,,,,,,,,,,,,,,,,,,,,,,,,,,,,,,,
,,,,,,,,,,,,,,,823,2022-01-14_03h57.56.526,multiplicationStroop,2021.2.3,Win32,59.82650314,,,,,left,1,0.46,0,36,36,15,1,9,7,9 | 7,2,1.9756,1.4111,congruent,left,,,,,,stimulusFile/physical.xlsx,,,,,,,,,,,,,,,,,,,,,,,,,,,,,,,
,,,,,,,,,,,,,,,823,2022-01-14_03h57.56.526,multiplicationStroop,2021.2.3,Win32,59.82650314,,,,,left,1,0.5141,0,37,37,49,1,3,3,3 | 3,0,1.9756,1.4111,neutral,left,,,,,,stimulusFile/physical.xlsx,,,,,,,,,,,,,,,,,,,,,,,,,,,,,,,
,,,,,,,,,,,,,,,823,2022-01-14_03h57.56.526,multiplicationStroop,2021.2.3,Win32,59.82650314,,,,,right,0,0.815,0,38,38,27,1,8,9,8 | 9,1,1.9756,1.4111,incongruent,left,,,,,,stimulusFile/physical.xlsx,,,,,,,,,,,,,,,,,,,,,,,,,,,,,,,
,,,,,,,,,,,,,,,823,2022-01-14_03h57.56.526,multiplicationStroop,2021.2.3,Win32,59.82650314,,,,,left,1,0.951,0,39,39,23,1,9,4,9 | 4,5,1.9756,1.4111,congruent,left,,,,,,stimulusFile/physical.xlsx,,,,,,,,,,,,,,,,,,,,,,,,,,,,,,,
,,,,,,,,,,,,,,,823,2022-01-14_03h57.56.526,multiplicationStroop,2021.2.3,Win32,59.82650314,,,,,right,1,1.0302,0,40,40,31,1,9,8,9 | 8,1,1.4111,1.9756,incongruent,right,,,,,,stimulusFile/physical.xlsx,,,,,,,,,,,,,,,,,,,,,,,,,,,,,,,
,,,,,,,,,,,,,,,823,2022-01-14_03h57.56.526,multiplicationStroop,2021.2.3,Win32,59.82650314,,,,,right,1,0.5411,0,41,41,38,1,8,6,8 | 6,2,1.4111,1.9756,incongruent,right,,,,,,stimulusFile/physical.xlsx,,,,,,,,,,,,,,,,,,,,,,,,,,,,,,,
,,,,,,,,,,,,,,,823,2022-01-14_03h57.56.526,multiplicationStroop,2021.2.3,Win32,59.82650314,,,,,left,1,0.7321,0,42,42,55,1,9,9,9 | 9,0,1.9756,1.4111,neutral,left,,,,,,stimulusFile/physical.xlsx,,,,,,,,,,,,,,,,,,,,,,,,,,,,,,,
,,,,,,,,,,,,,,,823,2022-01-14_03h57.56.526,multiplicationStroop,2021.2.3,Win32,59.82650314,,,,,left,1,0.4914,0,43,43,5,1,4,3,4 | 3,1,1.9756,1.4111,congruent,left,,,,,,stimulusFile/physical.xlsx,,,,,,,,,,,,,,,,,,,,,,,,,,,,,,,
,,,,,,,,,,,,,,,823,2022-01-14_03h57.56.526,multiplicationStroop,2021.2.3,Win32,59.82650314,,,,,right,1,0.5307,0,44,44,10,1,6,8,6 | 8,2,1.4111,1.9756,congruent,right,,,,,,stimulusFile/physical.xlsx,,,,,,,,,,,,,,,,,,,,,,,,,,,,,,,
,,,,,,,,,,,,,,,823,2022-01-14_03h57.56.526,multiplicationStroop,2021.2.3,Win32,59.82650314,,,,,left,1,0.5491,0,45,45,54,1,7,7,7 | 7,0,1.9756,1.4111,neutral,left,,,,,,stimulusFile/physical.xlsx,,,,,,,,,,,,,,,,,,,,,,,,,,,,,,,
,,,,,,,,,,,,,,,823,2022-01-14_03h57.56.526,multiplicationStroop,2021.2.3,Win32,59.82650314,,,,,right,1,0.7084,0,46,46,59,1,7,7,7 | 7,0,1.4111,1.9756,neutral,right,,,,,,stimulusFile/physical.xlsx,,,,,,,,,,,,,,,,,,,,,,,,,,,,,,,
,,,,,,,,,,,,,,,823,2022-01-14_03h57.56.526,multiplicationStroop,2021.2.3,Win32,59.82650314,,,,,left,0,0.5089,0,47,47,28,1,2,1,2 | 1,1,1.4111,1.9756,incongruent,right,,,,,,stimulusFile/physical.xlsx,,,,,,,,,,,,,,,,,,,,,,,,,,,,,,,
,,,,,,,,,,,,,,,823,2022-01-14_03h57.56.526,multiplicationStroop,2021.2.3,Win32,59.82650314,,,,,left,1,2.0903,0,48,48,21,1,7,2,7 | 2,5,1.9756,1.4111,congruent,left,,,,,,stimulusFile/physical.xlsx,,,,,,,,,,,,,,,,,,,,,,,,,,,,,,,
,,,,,,,,,,,,,,,823,2022-01-14_03h57.56.526,multiplicationStroop,2021.2.3,Win32,59.82650314,,,,,right,1,0.442,0,49,49,16,1,1,6,1 | 6,5,1.4111,1.9756,congruent,right,,,,,,stimulusFile/physical.xlsx,,,,,,,,,,,,,,,,,,,,,,,,,,,,,,,
,,,,,,,,,,,,,,,823,2022-01-14_03h57.56.526,multiplicationStroop,2021.2.3,Win32,59.82650314,,,,,right,1,0.6318,0,50,50,30,1,7,6,7 | 6,1,1.4111,1.9756,incongruent,right,,,,,,stimulusFile/physical.xlsx,,,,,,,,,,,,,,,,,,,,,,,,,,,,,,,
,,,,,,,,,,,,,,,823,2022-01-14_03h57.56.526,multiplicationStroop,2021.2.3,Win32,59.82650314,,,,,left,1,0.5633,0,51,51,34,1,6,8,6 | 8,2,1.9756,1.4111,incongruent,left,,,,,,stimulusFile/physical.xlsx,,,,,,,,,,,,,,,,,,,,,,,,,,,,,,,
,,,,,,,,,,,,,,,823,2022-01-14_03h57.56.526,multiplicationStroop,2021.2.3,Win32,59.82650314,,,,,left,1,0.5419,0,52,52,40,1,1,6,1 | 6,5,1.9756,1.4111,incongruent,left,,,,,,stimulusFile/physical.xlsx,,,,,,,,,,,,,,,,,,,,,,,,,,,,,,,
,,,,,,,,,,,,,,,823,2022-01-14_03h57.56.526,multiplicationStroop,2021.2.3,Win32,59.82650314,,,,,right,0,0.6154,0,53,53,71,1,9,9,9 | 9,0,1.4111,1.9756,neutral,left,,,,,,stimulusFile/physical.xlsx,,,,,,,,,,,,,,,,,,,,,,,,,,,,,,,
,,,,,,,,,,,,,,,823,2022-01-14_03h57.56.526,multiplicationStroop,2021.2.3,Win32,59.82650314,,,,,left,1,0.4504,0,54,54,33,1,2,4,2 | 4,2,1.9756,1.4111,incongruent,left,,,,,,stimulusFile/physical.xlsx,,,,,,,,,,,,,,,,,,,,,,,,,,,,,,,
,,,,,,,,,,,,,,,823,2022-01-14_03h57.56.526,multiplicationStroop,2021.2.3,Win32,59.82650314,,,,,right,1,0.8416,0,55,55,37,1,4,2,4 | 2,2,1.4111,1.9756,incongruent,right,,,,,,stimulusFile/physical.xlsx,,,,,,,,,,,,,,,,,,,,,,,,,,,,,,,
,,,,,,,,,,,,,,,823,2022-01-14_03h57.56.526,multiplicationStroop,2021.2.3,Win32,59.82650314,,,,,right,1,0.5261,0,56,56,17,1,2,7,2 | 7,5,1.4111,1.9756,congruent,right,,,,,,stimulusFile/physical.xlsx,,,,,,,,,,,,,,,,,,,,,,,,,,,,,,,
,,,,,,,,,,,,,,,823,2022-01-14_03h57.56.526,multiplicationStroop,2021.2.3,Win32,59.82650314,,,,,left,1,0.6462,0,57,57,43,1,4,9,4 | 9,5,1.9756,1.4111,incongruent,left,,,,,,stimulusFile/physical.xlsx,,,,,,,,,,,,,,,,,,,,,,,,,,,,,,,
,,,,,,,,,,,,,,,823,2022-01-14_03h57.56.526,multiplicationStroop,2021.2.3,Win32,59.82650314,,,,,right,1,0.5926,0,58,58,18,1,3,8,3 | 8,5,1.4111,1.9756,congruent,right,,,,,,stimulusFile/physical.xlsx,,,,,,,,,,,,,,,,,,,,,,,,,,,,,,,
,,,,,,,,,,,,,,,823,2022-01-14_03h57.56.526,multiplicationStroop,2021.2.3,Win32,59.82650314,,,,,left,1,0.7443,0,59,59,22,1,8,3,8 | 3,5,1.9756,1.4111,congruent,left,,,,,,stimulusFile/physical.xlsx,,,,,,,,,,,,,,,,,,,,,,,,,,,,,,,
,,,,,,,,,,,,,,,823,2022-01-14_03h57.56.526,multiplicationStroop,2021.2.3,Win32,59.82650314,,,,,left,1,0.5395,0,60,60,13,1,4,2,4 | 2,2,1.9756,1.4111,congruent,left,,,,,,stimulusFile/physical.xlsx,,,,,,,,,,,,,,,,,,,,,,,,,,,,,,,
,,,,,,,,,,,,,,,823,2022-01-14_03h57.56.526,multiplicationStroop,2021.2.3,Win32,59.82650314,,,,,left,1,0.7091,0,61,61,35,1,7,9,7 | 9,2,1.9756,1.4111,incongruent,left,,,,,,stimulusFile/physical.xlsx,,,,,,,,,,,,,,,,,,,,,,,,,,,,,,,
,,,,,,,,,,,,,,,823,2022-01-14_03h57.56.526,multiplicationStroop,2021.2.3,Win32,59.82650314,,,,,left,1,0.5069,0,62,62,50,1,6,6,6 | 6,0,1.9756,1.4111,neutral,left,,,,,,stimulusFile/physical.xlsx,,,,,,,,,,,,,,,,,,,,,,,,,,,,,,,
,,,,,,,,,,,,,,,823,2022-01-14_03h57.56.526,multiplicationStroop,2021.2.3,Win32,59.82650314,,,,,left,1,0.5125,0,63,63,4,1,2,1,2 | 1,1,1.9756,1.4111,congruent,left,,,,,,stimulusFile/physical.xlsx,,,,,,,,,,,,,,,,,,,,,,,,,,,,,,,
,,,,,,,,,,,,,,,823,2022-01-14_03h57.56.526,multiplicationStroop,2021.2.3,Win32,59.82650314,,,,,left,1,0.551,0,64,64,51,1,8,8,8 | 8,0,1.9756,1.4111,neutral,left,,,,,,stimulusFile/physical.xlsx,,,,,,,,,,,,,,,,,,,,,,,,,,,,,,,
,,,,,,,,,,,,,,,823,2022-01-14_03h57.56.526,multiplicationStroop,2021.2.3,Win32,59.82650314,,,,,left,1,0.5417,0,65,65,53,1,4,4,4 | 4,0,1.9756,1.4111,neutral,left,,,,,,stimulusFile/physical.xlsx,,,,,,,,,,,,,,,,,,,,,,,,,,,,,,,
,,,,,,,,,,,,,,,823,2022-01-14_03h57.56.526,multiplicationStroop,2021.2.3,Win32,59.82650314,,,,,right,1,0.6646,0,66,66,67,1,4,4,4 | 4,0,1.4111,1.9756,neutral,right,,,,,,stimulusFile/physical.xlsx,,,,,,,,,,,,,,,,,,,,,,,,,,,,,,,
,,,,,,,,,,,,,,,823,2022-01-14_03h57.56.526,multiplicationStroop,2021.2.3,Win32,59.82650314,,,,,right,1,0.5904,0,67,67,65,1,2,2,2 | 2,0,1.4111,1.9756,neutral,right,,,,,,stimulusFile/physical.xlsx,,,,,,,,,,,,,,,,,,,,,,,,,,,,,,,
,,,,,,,,,,,,,,,823,2022-01-14_03h57.56.526,multiplicationStroop,2021.2.3,Win32,59.82650314,,,,,left,1,0.5869,0,68,68,6,1,7,6,7 | 6,1,1.9756,1.4111,congruent,left,,,,,,stimulusFile/physical.xlsx,,,,,,,,,,,,,,,,,,,,,,,,,,,,,,,
,,,,,,,,,,,,,,,823,2022-01-14_03h57.56.526,multiplicationStroop,2021.2.3,Win32,59.82650314,,,,,right,1,0.6599,0,69,69,60,1,3,3,3 | 3,0,1.4111,1.9756,neutral,right,,,,,,stimulusFile/physical.xlsx,,,,,,,,,,,,,,,,,,,,,,,,,,,,,,,
,,,,,,,,,,,,,,,823,2022-01-14_03h57.56.526,multiplicationStroop,2021.2.3,Win32,59.82650314,,,,,left,1,0.5316,0,70,70,7,1,9,8,9 | 8,1,1.9756,1.4111,congruent,left,,,,,,stimulusFile/physical.xlsx,,,,,,,,,,,,,,,,,,,,,,,,,,,,,,,
,,,,,,,,,,,,,,,823,2022-01-14_03h57.56.526,multiplicationStroop,2021.2.3,Win32,59.82650314,,,,,right,1,0.5702,0,71,71,61,1,4,4,4 | 4,0,1.4111,1.9756,neutral,right,,,,,,stimulusFile/physical.xlsx,,,,,,,,,,,,,,,,,,,,,,,,,,,,,,,
,,,,,,,,,,,,,,,823,2022-01-14_03h57.56.526,multiplicationStroop,2021.2.3,Win32,59.82650314,,,,,,,,,,,,,,,,,,,,,0,1,1,1,1,stimulusFile/physical.xlsx,PHYSICALLY larger.,images/physicallyLarger.png,,,,,,,,,,,,,,,,,,,,,,,,,,,,,
,,,,,,,,,,,,,,,823,2022-01-14_03h57.56.526,multiplicationStroop,2021.2.3,Win32,59.82650314,,,,,,,,,,,,,,,,,,,,,,,,,,,,,space,5.8074,space,1.7658,16,3.2425,1,0,0,0,30,1,4,×,4,4 × 4,neutral,tie,2,1,16,,,,,,,,
,,,,,,,,,,,,,,,823,2022-01-14_03h57.56.526,multiplicationStroop,2021.2.3,Win32,59.82650314,,,,,,,,,,,,,,,,,,,,,,,,,,,,,,,,,28,2.8818,1,0,1,1,2,1,4,×,7,4 × 7,incongruent,smallerFirst,2,1,28,,,,,,,,
,,,,,,,,,,,,,,,823,2022-01-14_03h57.56.526,multiplicationStroop,2021.2.3,Win32,59.82650314,,,,,,,,,,,,,,,,,,,,,,,,,,,,,,,,,25,1.8544,1,0,2,2,31,1,5,×,5,5 × 5,neutral,tie,2,1,25,,,,,,,,
,,,,,,,,,,,,,,,823,2022-01-14_03h57.56.526,multiplicationStroop,2021.2.3,Win32,59.82650314,,,,,,,,,,,,,,,,,,,,,,,,,,,,,,,,,16,1.749,1,0,3,3,9,1,2,×,8,2 × 8,incongruent,smallerFirst,2,1,16,,,,,,,,
,,,,,,,,,,,,,,,823,2022-01-14_03h57.56.526,multiplicationStroop,2021.2.3,Win32,59.82650314,,,,,,,,,,,,,,,,,,,,,,,,,,,,,,,,,15,1.8156,1,0,4,4,24,1,5,×,3,5 × 3,incongruent,largerFirst,1,2,15,,,,,,,,
,,,,,,,,,,,,,,,823,2022-01-14_03h57.56.526,multiplicationStroop,2021.2.3,Win32,59.82650314,,,,,,,,,,,,,,,,,,,,,,,,,,,,,,,,,30,1.749,1,0,5,5,11,1,5,×,6,5 × 6,incongruent,smallerFirst,2,1,30,,,,,,,,
,,,,,,,,,,,,,,,823,2022-01-14_03h57.56.526,multiplicationStroop,2021.2.3,Win32,59.82650314,,,,,,,,,,,,,,,,,,,,,,,,,,,,,,,,,56,5.5481,1,0,6,6,0,1,7,×,8,7 × 8,incongruent,smallerFirst,2,1,56,,,,,,,,
,,,,,,,,,,,,,,,823,2022-01-14_03h57.56.526,multiplicationStroop,2021.2.3,Win32,59.82650314,,,,,,,,,,,,,,,,,,,,,,,,,,,,,,,,,18,1.8214,1,0,7,7,16,1,9,×,2,9 × 2,incongruent,largerFirst,1,2,18,,,,,,,,
,,,,,,,,,,,,,,,823,2022-01-14_03h57.56.526,multiplicationStroop,2021.2.3,Win32,59.82650314,,,,,,,,,,,,,,,,,,,,,,,,,,,,,,,,,72,2.4655,0,0,8,8,35,1,9,×,9,9 × 9,neutral,tie,2,1,81,,,,,,,,
,,,,,,,,,,,,,,,823,2022-01-14_03h57.56.526,multiplicationStroop,2021.2.3,Win32,59.82650314,,,,,,,,,,,,,,,,,,,,,,,,,,,,,,,,,54,1.8157,1,0,9,9,20,1,9,×,6,9 × 6,incongruent,largerFirst,1,2,54,,,,,,,,
,,,,,,,,,,,,,,,823,2022-01-14_03h57.56.526,multiplicationStroop,2021.2.3,Win32,59.82650314,,,,,,,,,,,,,,,,,,,,,,,,,,,,,,,,,14,2.1822,1,0,10,10,18,1,7,×,2,7 × 2,incongruent,largerFirst,1,2,14,,,,,,,,
,,,,,,,,,,,,,,,823,2022-01-14_03h57.56.526,multiplicationStroop,2021.2.3,Win32,59.82650314,,,,,,,,,,,,,,,,,,,,,,,,,,,,,,,,,64,2.1489,1,0,11,11,34,1,8,×,8,8 × 8,neutral,tie,2,1,64,,,,,,,,
,,,,,,,,,,,,,,,823,2022-01-14_03h57.56.526,multiplicationStroop,2021.2.3,Win32,59.82650314,,,,,,,,,,,,,,,,,,,,,,,,,,,,,,,,,32,1.649,1,0,12,12,21,1,8,×,4,8 × 4,incongruent,largerFirst,1,2,32,,,,,,,,
,,,,,,,,,,,,,,,823,2022-01-14_03h57.56.526,multiplicationStroop,2021.2.3,Win32,59.82650314,,,,,,,,,,,,,,,,,,,,,,,,,,,,,,,,,49,1.8823,1,0,13,13,33,1,7,×,7,7 × 7,neutral,tie,2,1,49,,,,,,,,
,,,,,,,,,,,,,,,823,2022-01-14_03h57.56.526,multiplicationStroop,2021.2.3,Win32,59.82650314,,,,,,,,,,,,,,,,,,,,,,,,,,,,,,,,,12,1.4822,1,0,14,14,5,1,2,×,6,2 × 6,incongruent,smallerFirst,2,1,12,,,,,,,,
,,,,,,,,,,,,,,,823,2022-01-14_03h57.56.526,multiplicationStroop,2021.2.3,Win32,59.82650314,,,,,,,,,,,,,,,,,,,,,,,,,,,,,,,,,42,1.7152,1,0,15,15,3,1,6,×,7,6 × 7,incongruent,smallerFirst,2,1,42,,,,,,,,
,,,,,,,,,,,,,,,823,2022-01-14_03h57.56.526,multiplicationStroop,2021.2.3,Win32,59.82650314,,,,,,,,,,,,,,,,,,,,,,,,,,,,,,,,,36,2.9819,1,0,16,16,32,1,6,×,6,6 × 6,neutral,tie,2,1,36,,,,,,,,
,,,,,,,,,,,,,,,823,2022-01-14_03h57.56.526,multiplicationStroop,2021.2.3,Win32,59.82650314,,,,,,,,,,,,,,,,,,,,,,,,,,,,,,,,,16,1.9321,0,0,17,17,22,1,6,×,3,6 × 3,incongruent,largerFirst,1,2,18,,,,,,,,
,,,,,,,,,,,,,,,823,2022-01-14_03h57.56.526,multiplicationStroop,2021.2.3,Win32,59.82650314,,,,,,,,,,,,,,,,,,,,,,,,,,,,,,,,,20,1.6652,1,0,18,18,13,1,4,×,5,4 × 5,incongruent,smallerFirst,2,1,20,,,,,,,,
,,,,,,,,,,,,,,,823,2022-01-14_03h57.56.526,multiplicationStroop,2021.2.3,Win32,59.82650314,,,,,,,,,,,,,,,,,,,,,,,,,,,,,,,,,35,1.7819,1,0,19,19,26,1,7,×,5,7 × 5,incongruent,largerFirst,1,2,35,,,,,,,,
,,,,,,,,,,,,,,,823,2022-01-14_03h57.56.526,multiplicationStroop,2021.2.3,Win32,59.82650314,,,,,,,,,,,,,,,,,,,,,,,,,,,,,,,,,8,1.6325,1,0,20,20,10,1,2,×,4,2 × 4,incongruent,smallerFirst,2,1,8,,,,,,,,
,,,,,,,,,,,,,,,823,2022-01-14_03h57.56.526,multiplicationStroop,2021.2.3,Win32,59.82650314,,,,,,,,,,,,,,,,,,,,,,,,,,,,,,,,,24,1.932,1,0,21,21,23,1,8,×,3,8 × 3,incongruent,largerFirst,1,2,24,,,,,,,,
,,,,,,,,,,,,,,,823,2022-01-14_03h57.56.526,multiplicationStroop,2021.2.3,Win32,59.82650314,,,,,,,,,,,,,,,,,,,,,,,,,,,,,,,,,27,1.8986,1,0,22,22,4,1,3,×,9,3 × 9,incongruent,smallerFirst,2,1,27,,,,,,,,
,,,,,,,,,,,,,,,823,2022-01-14_03h57.56.526,multiplicationStroop,2021.2.3,Win32,59.82650314,,,,,,,,,,,,,,,,,,,,,,,,,,,,,,,,,6,1.8153,1,0,23,23,25,1,3,×,2,3 × 2,incongruent,largerFirst,1,2,6,,,,,,,,
,,,,,,,,,,,,,,,823,2022-01-14_03h57.56.526,multiplicationStroop,2021.2.3,Win32,59.82650314,,,,,,,,,,,,,,,,,,,,,,,,,,,,,,,,,72,2.1988,1,0,24,24,14,1,9,×,8,9 × 8,incongruent,largerFirst,1,2,72,,,,,,,,
,,,,,,,,,,,,,,,823,2022-01-14_03h57.56.526,multiplicationStroop,2021.2.3,Win32,59.82650314,,,,,,,,,,,,,,,,,,,,,,,,,,,,,,,,,4,2.3034,1,0,25,25,28,1,2,×,2,2 × 2,neutral,tie,2,1,4,,,,,,,,
,,,,,,,,,,,,,,,823,2022-01-14_03h57.56.526,multiplicationStroop,2021.2.3,Win32,59.82650314,,,,,,,,,,,,,,,,,,,,,,,,,,,,,,,,,10,3.2153,1,0,26,26,7,1,2,×,5,2 × 5,incongruent,smallerFirst,2,1,10,,,,,,,,
,,,,,,,,,,,,,,,823,2022-01-14_03h57.56.526,multiplicationStroop,2021.2.3,Win32,59.82650314,,,,,,,,,,,,,,,,,,,,,,,,,,,,,,,,,9,1.4155,1,0,27,27,29,1,3,×,3,3 × 3,neutral,tie,2,1,9,,,,,,,,
,,,,,,,,,,,,,,,823,2022-01-14_03h57.56.526,multiplicationStroop,2021.2.3,Win32,59.82650314,,,,,,,,,,,,,,,,,,,,,,,,,,,,,,,,,36,3.4151,1,0,28,28,1,1,4,×,9,4 × 9,incongruent,smallerFirst,2,1,36,,,,,,,,
,,,,,,,,,,,,,,,823,2022-01-14_03h57.56.526,multiplicationStroop,2021.2.3,Win32,59.82650314,,,,,,,,,,,,,,,,,,,,,,,,,,,,,,,,,12,1.4037,1,0,29,29,19,1,4,×,3,4 × 3,incongruent,largerFirst,1,2,12,,,,,,,,
,,,,,,,,,,,,,,,823,2022-01-14_03h57.56.526,multiplicationStroop,2021.2.3,Win32,59.82650314,,,,,,,,,,,,,,,,,,,,,,,,,,,,,,,,,24,1.7472,1,0,30,30,6,1,4,×,6,4 × 6,incongruent,smallerFirst,2,1,24,,,,,,,,
,,,,,,,,,,,,,,,823,2022-01-14_03h57.56.526,multiplicationStroop,2021.2.3,Win32,59.82650314,,,,,,,,,,,,,,,,,,,,,,,,,,,,,,,,,48,2.2647,1,0,31,31,15,1,8,×,6,8 × 6,incongruent,largerFirst,1,2,48,,,,,,,,
,,,,,,,,,,,,,,,823,2022-01-14_03h57.56.526,multiplicationStroop,2021.2.3,Win32,59.82650314,,,,,,,,,,,,,,,,,,,,,,,,,,,,,,,,,40,3.0649,1,0,32,32,27,1,8,×,5,8 × 5,incongruent,largerFirst,1,2,40,,,,,,,,
,,,,,,,,,,,,,,,823,2022-01-14_03h57.56.526,multiplicationStroop,2021.2.3,Win32,59.82650314,,,,,,,,,,,,,,,,,,,,,,,,,,,,,,,,,42,1.9539,0,0,33,33,17,1,9,×,7,9 × 7,incongruent,largerFirst,1,2,63,,,,,,,,
,,,,,,,,,,,,,,,823,2022-01-14_03h57.56.526,multiplicationStroop,2021.2.3,Win32,59.82650314,,,,,,,,,,,,,,,,,,,,,,,,,,,,,,,,,45,1.7983,1,0,34,34,8,1,5,×,9,5 × 9,incongruent,smallerFirst,2,1,45,,,,,,,,
,,,,,,,,,,,,,,,823,2022-01-14_03h57.56.526,multiplicationStroop,2021.2.3,Win32,59.82650314,,,,,,,,,,,,,,,,,,,,,,,,,,,,,,,,,21,1.4991,1,0,35,35,12,1,3,×,7,3 × 7,incongruent,smallerFirst,2,1,21,,,,,,,,
,,,,,,,,,,,,,,,823,2022-01-14_03h57.56.526,multiplicationStroop,2021.2.3,Win32,59.82650314,,,,,,,,,,,,,,,,,,,,,,,,,,,,,,,,,,,,,,,,,,,,,,,,,,0,0,0,4,1,stimulusFile/mult_blk5_INcongruent.xlsx,,
,,,,,,,,,,,,,,,823,2022-01-14_03h57.56.526,multiplicationStroop,2021.2.3,Win32,59.82650314,,,,,,,,,,,,,,,,,,,,,,,,,,,,,,,space,38.9898,72,3.6863,0,0,0,0,35,1,9,×,9,9 × 9,neutral,tie,1.5,1.5,81,,,,,,,,
,,,,,,,,,,,,,,,823,2022-01-14_03h57.56.526,multiplicationStroop,2021.2.3,Win32,59.82650314,,,,,,,,,,,,,,,,,,,,,,,,,,,,,,,,,25,1.5158,1,0,1,1,31,1,5,×,5,5 × 5,neutral,tie,1.5,1.5,25,,,,,,,,
,,,,,,,,,,,,,,,823,2022-01-14_03h57.56.526,multiplicationStroop,2021.2.3,Win32,59.82650314,,,,,,,,,,,,,,,,,,,,,,,,,,,,,,,,,30,1.6489,1,0,2,2,19,1,6,×,5,6 × 5,neutral,largerFirst,1.5,1.5,30,,,,,,,,
,,,,,,,,,,,,,,,823,2022-01-14_03h57.56.526,multiplicationStroop,2021.2.3,Win32,59.82650314,,,,,,,,,,,,,,,,,,,,,,,,,,,,,,,,,36,1.5989,1,0,3,3,32,1,6,×,6,6 × 6,neutral,tie,1.5,1.5,36,,,,,,,,
,,,,,,,,,,,,,,,823,2022-01-14_03h57.56.526,multiplicationStroop,2021.2.3,Win32,59.82650314,,,,,,,,,,,,,,,,,,,,,,,,,,,,,,,,,64,10.3642,1,0,4,4,34,1,8,×,8,8 × 8,neutral,tie,1.5,1.5,64,,,,,,,,
,,,,,,,,,,,,,,,823,2022-01-14_03h57.56.526,multiplicationStroop,2021.2.3,Win32,59.82650314,,,,,,,,,,,,,,,,,,,,,,,,,,,,,,,,,22,1.4373,0,0,5,5,8,1,3,×,7,3 × 7,neutral,smallerFirst,1.5,1.5,21,,,,,,,,
,,,,,,,,,,,,,,,823,2022-01-14_03h57.56.526,multiplicationStroop,2021.2.3,Win32,59.82650314,,,,,,,,,,,,,,,,,,,,,,,,,,,,,,,,,9,1.7156,1,0,6,6,29,1,3,×,3,3 × 3,neutral,tie,1.5,1.5,9,,,,,,,,
,,,,,,,,,,,,,,,823,2022-01-14_03h57.56.526,multiplicationStroop,2021.2.3,Win32,59.82650314,,,,,,,,,,,,,,,,,,,,,,,,,,,,,,,,,15,1.5823,1,0,7,7,5,1,3,×,5,3 × 5,neutral,smallerFirst,1.5,1.5,15,,,,,,,,
,,,,,,,,,,,,,,,823,2022-01-14_03h57.56.526,multiplicationStroop,2021.2.3,Win32,59.82650314,,,,,,,,,,,,,,,,,,,,,,,,,,,,,,,,,14,1.6152,1,0,8,8,16,1,7,×,2,7 × 2,neutral,largerFirst,1.5,1.5,14,,,,,,,,
,,,,,,,,,,,,,,,823,2022-01-14_03h57.56.526,multiplicationStroop,2021.2.3,Win32,59.82650314,,,,,,,,,,,,,,,,,,,,,,,,,,,,,,,,,54,2.8824,1,0,9,9,7,1,6,×,9,6 × 9,neutral,smallerFirst,1.5,1.5,54,,,,,,,,
,,,,,,,,,,,,,,,823,2022-01-14_03h57.56.526,multiplicationStroop,2021.2.3,Win32,59.82650314,,,,,,,,,,,,,,,,,,,,,,,,,,,,,,,,,12,1.3326,1,0,10,10,21,1,4,×,3,4 × 3,neutral,largerFirst,1.5,1.5,12,,,,,,,,
,,,,,,,,,,,,,,,823,2022-01-14_03h57.56.526,multiplicationStroop,2021.2.3,Win32,59.82650314,,,,,,,,,,,,,,,,,,,,,,,,,,,,,,,,,56,1.6823,1,0,11,11,9,1,7,×,8,7 × 8,neutral,smallerFirst,1.5,1.5,56,,,,,,,,
,,,,,,,,,,,,,,,823,2022-01-14_03h57.56.526,multiplicationStroop,2021.2.3,Win32,59.82650314,,,,,,,,,,,,,,,,,,,,,,,,,,,,,,,,,35,1.9158,1,0,12,12,1,1,5,×,7,5 × 7,neutral,smallerFirst,1.5,1.5,35,,,,,,,,
,,,,,,,,,,,,,,,823,2022-01-14_03h57.56.526,multiplicationStroop,2021.2.3,Win32,59.82650314,,,,,,,,,,,,,,,,,,,,,,,,,,,,,,,,,49,1.5823,1,0,13,13,33,1,7,×,7,7 × 7,neutral,tie,1.5,1.5,49,,,,,,,,
,,,,,,,,,,,,,,,823,2022-01-14_03h57.56.526,multiplicationStroop,2021.2.3,Win32,59.82650314,,,,,,,,,,,,,,,,,,,,,,,,,,,,,,,,,28,1.7485,1,0,14,14,17,1,7,×,4,7 × 4,neutral,largerFirst,1.5,1.5,28,,,,,,,,
,,,,,,,,,,,,,,,823,2022-01-14_03h57.56.526,multiplicationStroop,2021.2.3,Win32,59.82650314,,,,,,,,,,,,,,,,,,,,,,,,,,,,,,,,,36,2.3492,1,0,15,15,27,1,9,×,4,9 × 4,neutral,largerFirst,1.5,1.5,36,,,,,,,,
,,,,,,,,,,,,,,,823,2022-01-14_03h57.56.526,multiplicationStroop,2021.2.3,Win32,59.82650314,,,,,,,,,,,,,,,,,,,,,,,,,,,,,,,,,27,2.2487,1,0,16,16,14,1,9,×,3,9 × 3,neutral,largerFirst,1.5,1.5,27,,,,,,,,
,,,,,,,,,,,,,,,823,2022-01-14_03h57.56.526,multiplicationStroop,2021.2.3,Win32,59.82650314,,,,,,,,,,,,,,,,,,,,,,,,,,,,,,,,,6,1.5707,1,0,17,17,26,1,3,×,2,3 × 2,neutral,largerFirst,1.5,1.5,6,,,,,,,,
,,,,,,,,,,,,,,,823,2022-01-14_03h57.56.526,multiplicationStroop,2021.2.3,Win32,59.82650314,,,,,,,,,,,,,,,,,,,,,,,,,,,,,,,,,4,1.482,1,0,18,18,28,1,2,×,2,2 × 2,neutral,tie,1.5,1.5,4,,,,,,,,
,,,,,,,,,,,,,,,823,2022-01-14_03h57.56.526,multiplicationStroop,2021.2.3,Win32,59.82650314,,,,,,,,,,,,,,,,,,,,,,,,,,,,,,,,,45,1.6987,1,0,19,19,10,1,5,×,9,5 × 9,neutral,smallerFirst,1.5,1.5,45,,,,,,,,
,,,,,,,,,,,,,,,823,2022-01-14_03h57.56.526,multiplicationStroop,2021.2.3,Win32,59.82650314,,,,,,,,,,,,,,,,,,,,,,,,,,,,,,,,,12,1.3317,1,0,20,20,25,1,6,×,2,6 × 2,neutral,largerFirst,1.5,1.5,12,,,,,,,,
,,,,,,,,,,,,,,,823,2022-01-14_03h57.56.526,multiplicationStroop,2021.2.3,Win32,59.82650314,,,,,,,,,,,,,,,,,,,,,,,,,,,,,,,,,72,2.099,1,0,21,21,11,1,8,×,9,8 × 9,neutral,smallerFirst,1.5,1.5,72,,,,,,,,
,,,,,,,,,,,,,,,823,2022-01-14_03h57.56.526,multiplicationStroop,2021.2.3,Win32,59.82650314,,,,,,,,,,,,,,,,,,,,,,,,,,,,,,,,,42,2.5821,1,0,22,22,6,1,6,×,7,6 × 7,neutral,smallerFirst,1.5,1.5,42,,,,,,,,
,,,,,,,,,,,,,,,823,2022-01-14_03h57.56.526,multiplicationStroop,2021.2.3,Win32,59.82650314,,,,,,,,,,,,,,,,,,,,,,,,,,,,,,,,,16,1.932,1,0,23,23,30,1,4,×,4,4 × 4,neutral,tie,1.5,1.5,16,,,,,,,,
,,,,,,,,,,,,,,,823,2022-01-14_03h57.56.526,multiplicationStroop,2021.2.3,Win32,59.82650314,,,,,,,,,,,,,,,,,,,,,,,,,,,,,,,,,64,4.531,0,0,24,24,12,1,7,×,9,7 × 9,neutral,smallerFirst,1.5,1.5,63,,,,,,,,
,,,,,,,,,,,,,,,823,2022-01-14_03h57.56.526,multiplicationStroop,2021.2.3,Win32,59.82650314,,,,,,,,,,,,,,,,,,,,,,,,,,,,,,,,,10,1.7713,1,0,25,25,4,1,2,×,5,2 × 5,neutral,smallerFirst,1.5,1.5,10,,,,,,,,
,,,,,,,,,,,,,,,823,2022-01-14_03h57.56.526,multiplicationStroop,2021.2.3,Win32,59.82650314,,,,,,,,,,,,,,,,,,,,,,,,,,,,,,,,,48,1.8319,1,0,26,26,15,1,8,×,6,8 × 6,neutral,largerFirst,1.5,1.5,48,,,,,,,,
,,,,,,,,,,,,,,,823,2022-01-14_03h57.56.526,multiplicationStroop,2021.2.3,Win32,59.82650314,,,,,,,,,,,,,,,,,,,,,,,,,,,,,,,,,24,2.4317,1,0,27,27,22,1,8,×,3,8 × 3,neutral,largerFirst,1.5,1.5,24,,,,,,,,
,,,,,,,,,,,,,,,823,2022-01-14_03h57.56.526,multiplicationStroop,2021.2.3,Win32,59.82650314,,,,,,,,,,,,,,,,,,,,,,,,,,,,,,,,,24,1.7821,1,0,28,28,2,1,4,×,6,4 × 6,neutral,smallerFirst,1.5,1.5,24,,,,,,,,
,,,,,,,,,,,,,,,823,2022-01-14_03h57.56.526,multiplicationStroop,2021.2.3,Win32,59.82650314,,,,,,,,,,,,,,,,,,,,,,,,,,,,,,,,,40,1.8654,1,0,29,29,24,1,8,×,5,8 × 5,neutral,largerFirst,1.5,1.5,40,,,,,,,,
,,,,,,,,,,,,,,,823,2022-01-14_03h57.56.526,multiplicationStroop,2021.2.3,Win32,59.82650314,,,,,,,,,,,,,,,,,,,,,,,,,,,,,,,,,16,1.7491,1,0,30,30,13,1,2,×,8,2 × 8,neutral,smallerFirst,1.5,1.5,16,,,,,,,,
,,,,,,,,,,,,,,,823,2022-01-14_03h57.56.526,multiplicationStroop,2021.2.3,Win32,59.82650314,,,,,,,,,,,,,,,,,,,,,,,,,,,,,,,,,18,4.2313,1,0,31,31,0,1,3,×,6,3 × 6,neutral,smallerFirst,1.5,1.5,18,,,,,,,,
,,,,,,,,,,,,,,,823,2022-01-14_03h57.56.526,multiplicationStroop,2021.2.3,Win32,59.82650314,,,,,,,,,,,,,,,,,,,,,,,,,,,,,,,,,18,1.7874,1,0,32,32,18,1,9,×,2,9 × 2,neutral,largerFirst,1.5,1.5,18,,,,,,,,
,,,,,,,,,,,,,,,823,2022-01-14_03h57.56.526,multiplicationStroop,2021.2.3,Win32,59.82650314,,,,,,,,,,,,,,,,,,,,,,,,,,,,,,,,,20,1.7155,1,0,33,33,20,1,5,×,4,5 × 4,neutral,largerFirst,1.5,1.5,20,,,,,,,,
,,,,,,,,,,,,,,,823,2022-01-14_03h57.56.526,multiplicationStroop,2021.2.3,Win32,59.82650314,,,,,,,,,,,,,,,,,,,,,,,,,,,,,,,,,8,2.6179,1,0,34,34,3,1,2,×,4,2 × 4,neutral,smallerFirst,1.5,1.5,8,,,,,,,,
,,,,,,,,,,,,,,,823,2022-01-14_03h57.56.526,multiplicationStroop,2021.2.3,Win32,59.82650314,,,,,,,,,,,,,,,,,,,,,,,,,,,,,,,,,32,1.6796,1,0,35,35,23,1,8,×,4,8 × 4,neutral,largerFirst,1.5,1.5,32,,,,,,,,
,,,,,,,,,,,,,,,823,2022-01-14_03h57.56.526,multiplicationStroop,2021.2.3,Win32,59.82650314,,,,,,,,,,,,,,,,,,,,,,,,,,,,,,,,,,,,,,,,,,,,,,,,,,0,1,1,1,1,stimulusFile/mult_blk2.xlsx,,
,,,,,,,,,,,,,,,823,2022-01-14_03h57.56.526,multiplicationStroop,2021.2.3,Win32,59.82650314,,,,,,,,,,,,,,,,,,,,,,,,,,,,,,,space,14.6482,8,1.7584,1,0,0,0,24,1,4,×,2,4 × 2,incongruent,largerFirst,1,2,8,,,,,,,,
,,,,,,,,,,,,,,,823,2022-01-14_03h57.56.526,multiplicationStroop,2021.2.3,Win32,59.82650314,,,,,,,,,,,,,,,,,,,,,,,,,,,,,,,,,4,1.5489,1,0,1,1,28,1,2,×,2,2 × 2,incongruent,tie,1,2,4,,,,,,,,
,,,,,,,,,,,,,,,823,2022-01-14_03h57.56.526,multiplicationStroop,2021.2.3,Win32,59.82650314,,,,,,,,,,,,,,,,,,,,,,,,,,,,,,,,,28,1.7989,1,0,2,2,16,1,7,×,4,7 × 4,incongruent,largerFirst,1,2,28,,,,,,,,
,,,,,,,,,,,,,,,823,2022-01-14_03h57.56.526,multiplicationStroop,2021.2.3,Win32,59.82650314,,,,,,,,,,,,,,,,,,,,,,,,,,,,,,,,,72,2.6814,0,0,3,3,35,1,9,×,9,9 × 9,incongruent,tie,1,2,81,,,,,,,,
,,,,,,,,,,,,,,,823,2022-01-14_03h57.56.526,multiplicationStroop,2021.2.3,Win32,59.82650314,,,,,,,,,,,,,,,,,,,,,,,,,,,,,,,,,48,1.7815,1,0,4,4,1,1,6,×,8,6 × 8,incongruent,smallerFirst,2,1,48,,,,,,,,
,,,,,,,,,,,,,,,823,2022-01-14_03h57.56.526,multiplicationStroop,2021.2.3,Win32,59.82650314,,,,,,,,,,,,,,,,,,,,,,,,,,,,,,,,,21,1.415,1,0,5,5,26,1,7,×,3,7 × 3,incongruent,largerFirst,1,2,21,,,,,,,,
,,,,,,,,,,,,,,,823,2022-01-14_03h57.56.526,multiplicationStroop,2021.2.3,Win32,59.82650314,,,,,,,,,,,,,,,,,,,,,,,,,,,,,,,,,45,1.6988,1,0,6,6,22,1,9,×,5,9 × 5,incongruent,largerFirst,1,2,45,,,,,,,,
,,,,,,,,,,,,,,,823,2022-01-14_03h57.56.526,multiplicationStroop,2021.2.3,Win32,59.82650314,,,,,,,,,,,,,,,,,,,,,,,,,,,,,,,,,35,2.1652,1,0,7,7,12,1,5,×,7,5 × 7,incongruent,smallerFirst,2,1,35,,,,,,,,
,,,,,,,,,,,,,,,823,2022-01-14_03h57.56.526,multiplicationStroop,2021.2.3,Win32,59.82650314,,,,,,,,,,,,,,,,,,,,,,,,,,,,,,,,,18,1.899,1,0,8,8,8,1,3,×,6,3 × 6,incongruent,smallerFirst,2,1,18,,,,,,,,
,,,,,,,,,,,,,,,823,2022-01-14_03h57.56.526,multiplicationStroop,2021.2.3,Win32,59.82650314,,,,,,,,,,,,,,,,,,,,,,,,,,,,,,,,,14,1.632,1,0,9,9,4,1,2,×,7,2 × 7,incongruent,smallerFirst,2,1,14,,,,,,,,
,,,,,,,,,,,,,,,823,2022-01-14_03h57.56.526,multiplicationStroop,2021.2.3,Win32,59.82650314,,,,,,,,,,,,,,,,,,,,,,,,,,,,,,,,,36,1.6822,1,0,10,10,32,1,6,×,6,6 × 6,incongruent,tie,1,2,36,,,,,,,,
,,,,,,,,,,,,,,,823,2022-01-14_03h57.56.526,multiplicationStroop,2021.2.3,Win32,59.82650314,,,,,,,,,,,,,,,,,,,,,,,,,,,,,,,,,18,1.6819,1,0,11,11,2,1,2,×,9,2 × 9,incongruent,smallerFirst,2,1,18,,,,,,,,
,,,,,,,,,,,,,,,823,2022-01-14_03h57.56.526,multiplicationStroop,2021.2.3,Win32,59.82650314,,,,,,,,,,,,,,,,,,,,,,,,,,,,,,,,,30,1.7654,1,0,12,12,25,1,6,×,5,6 × 5,incongruent,largerFirst,1,2,30,,,,,,,,
,,,,,,,,,,,,,,,823,2022-01-14_03h57.56.526,multiplicationStroop,2021.2.3,Win32,59.82650314,,,,,,,,,,,,,,,,,,,,,,,,,,,,,,,,,20,1.6489,1,0,13,13,27,1,5,×,4,5 × 4,incongruent,largerFirst,1,2,20,,,,,,,,
,,,,,,,,,,,,,,,823,2022-01-14_03h57.56.526,multiplicationStroop,2021.2.3,Win32,59.82650314,,,,,,,,,,,,,,,,,,,,,,,,,,,,,,,,,42,1.9153,1,0,14,14,17,1,7,×,6,7 × 6,incongruent,largerFirst,1,2,42,,,,,,,,
,,,,,,,,,,,,,,,823,2022-01-14_03h57.56.526,multiplicationStroop,2021.2.3,Win32,59.82650314,,,,,,,,,,,,,,,,,,,,,,,,,,,,,,,,,15,1.5987,1,0,15,15,10,1,3,×,5,3 × 5,incongruent,smallerFirst,2,1,15,,,,,,,,
,,,,,,,,,,,,,,,823,2022-01-14_03h57.56.526,multiplicationStroop,2021.2.3,Win32,59.82650314,,,,,,,,,,,,,,,,,,,,,,,,,,,,,,,,,40,1.8654,1,0,16,16,13,1,5,×,8,5 × 8,incongruent,smallerFirst,2,1,40,,,,,,,,
,,,,,,,,,,,,,,,823,2022-01-14_03h57.56.526,multiplicationStroop,2021.2.3,Win32,59.82650314,,,,,,,,,,,,,,,,,,,,,,,,,,,,,,,,,72,2.1651,1,0,17,17,0,1,8,×,9,8 × 9,incongruent,smallerFirst,2,1,72,,,,,,,,
,,,,,,,,,,,,,,,823,2022-01-14_03h57.56.526,multiplicationStroop,2021.2.3,Win32,59.82650314,,,,,,,,,,,,,,,,,,,,,,,,,,,,,,,,,48,2.3487,0,0,18,18,34,1,8,×,8,8 × 8,incongruent,tie,1,2,64,,,,,,,,
,,,,,,,,,,,,,,,823,2022-01-14_03h57.56.526,multiplicationStroop,2021.2.3,Win32,59.82650314,,,,,,,,,,,,,,,,,,,,,,,,,,,,,,,,,16,1.832,1,0,19,19,23,1,8,×,2,8 × 2,incongruent,largerFirst,1,2,16,,,,,,,,
,,,,,,,,,,,,,,,823,2022-01-14_03h57.56.526,multiplicationStroop,2021.2.3,Win32,59.82650314,,,,,,,,,,,,,,,,,,,,,,,,,,,,,,,,,12,1.5154,1,0,20,20,5,1,3,×,4,3 × 4,incongruent,smallerFirst,2,1,12,,,,,,,,
,,,,,,,,,,,,,,,823,2022-01-14_03h57.56.526,multiplicationStroop,2021.2.3,Win32,59.82650314,,,,,,,,,,,,,,,,,,,,,,,,,,,,,,,,,32,2.2986,1,0,21,21,7,1,4,×,8,4 × 8,incongruent,smallerFirst,2,1,32,,,,,,,,
,,,,,,,,,,,,,,,823,2022-01-14_03h57.56.526,multiplicationStroop,2021.2.3,Win32,59.82650314,,,,,,,,,,,,,,,,,,,,,,,,,,,,,,,,,6,1.5988,1,0,22,22,11,1,2,×,3,2 × 3,incongruent,smallerFirst,2,1,6,,,,,,,,
,,,,,,,,,,,,,,,823,2022-01-14_03h57.56.526,multiplicationStroop,2021.2.3,Win32,59.82650314,,,,,,,,,,,,,,,,,,,,,,,,,,,,,,,,,25,1.6153,1,0,23,23,31,1,5,×,5,5 × 5,incongruent,tie,1,2,25,,,,,,,,
,,,,,,,,,,,,,,,823,2022-01-14_03h57.56.526,multiplicationStroop,2021.2.3,Win32,59.82650314,,,,,,,,,,,,,,,,,,,,,,,,,,,,,,,,,10,1.5821,1,0,24,24,21,1,5,×,2,5 × 2,incongruent,largerFirst,1,2,10,,,,,,,,
,,,,,,,,,,,,,,,823,2022-01-14_03h57.56.526,multiplicationStroop,2021.2.3,Win32,59.82650314,,,,,,,,,,,,,,,,,,,,,,,,,,,,,,,,,16,1.6488,1,0,25,25,30,1,4,×,4,4 × 4,incongruent,tie,1,2,16,,,,,,,,
,,,,,,,,,,,,,,,823,2022-01-14_03h57.56.526,multiplicationStroop,2021.2.3,Win32,59.82650314,,,,,,,,,,,,,,,,,,,,,,,,,,,,,,,,,9,1.382,1,0,26,26,29,1,3,×,3,3 × 3,incongruent,tie,1,2,9,,,,,,,,
,,,,,,,,,,,,,,,823,2022-01-14_03h57.56.526,multiplicationStroop,2021.2.3,Win32,59.82650314,,,,,,,,,,,,,,,,,,,,,,,,,,,,,,,,,24,1.9655,1,0,27,27,9,1,3,×,8,3 × 8,incongruent,smallerFirst,2,1,24,,,,,,,,
,,,,,,,,,,,,,,,823,2022-01-14_03h57.56.526,multiplicationStroop,2021.2.3,Win32,59.82650314,,,,,,,,,,,,,,,,,,,,,,,,,,,,,,,,,12,1.5154,1,0,28,28,19,1,6,×,2,6 × 2,incongruent,largerFirst,1,2,12,,,,,,,,
,,,,,,,,,,,,,,,823,2022-01-14_03h57.56.526,multiplicationStroop,2021.2.3,Win32,59.82650314,,,,,,,,,,,,,,,,,,,,,,,,,,,,,,,,,27,2.1987,1,0,29,29,18,1,9,×,3,9 × 3,incongruent,largerFirst,1,2,27,,,,,,,,
,,,,,,,,,,,,,,,823,2022-01-14_03h57.56.526,multiplicationStroop,2021.2.3,Win32,59.82650314,,,,,,,,,,,,,,,,,,,,,,,,,,,,,,,,,72,2.8701,0,0,30,30,3,1,7,×,9,7 × 9,incongruent,smallerFirst,2,1,63,,,,,,,,
,,,,,,,,,,,,,,,823,2022-01-14_03h57.56.526,multiplicationStroop,2021.2.3,Win32,59.82650314,,,,,,,,,,,,,,,,,,,,,,,,,,,,,,,,,36,2.0658,1,0,31,31,15,1,9,×,4,9 × 4,incongruent,largerFirst,1,2,36,,,,,,,,
,,,,,,,,,,,,,,,823,2022-01-14_03h57.56.526,multiplicationStroop,2021.2.3,Win32,59.82650314,,,,,,,,,,,,,,,,,,,,,,,,,,,,,,,,,56,2.7985,1,0,32,32,14,1,8,×,7,8 × 7,incongruent,largerFirst,1,2,56,,,,,,,,
,,,,,,,,,,,,,,,823,2022-01-14_03h57.56.526,multiplicationStroop,2021.2.3,Win32,59.82650314,,,,,,,,,,,,,,,,,,,,,,,,,,,,,,,,,54,3.2317,1,0,33,33,6,1,6,×,9,6 × 9,incongruent,smallerFirst,2,1,54,,,,,,,,
,,,,,,,,,,,,,,,823,2022-01-14_03h57.56.526,multiplicationStroop,2021.2.3,Win32,59.82650314,,,,,,,,,,,,,,,,,,,,,,,,,,,,,,,,,24,2.1533,1,0,34,34,20,1,6,×,4,6 × 4,incongruent,largerFirst,1,2,24,,,,,,,,
,,,,,,,,,,,,,,,823,2022-01-14_03h57.56.526,multiplicationStroop,2021.2.3,Win32,59.82650314,,,,,,,,,,,,,,,,,,,,,,,,,,,,,,,,,49,1.7161,1,0,35,35,33,1,7,×,7,7 × 7,incongruent,tie,1,2,49,,,,,,,,
,,,,,,,,,,,,,,,823,2022-01-14_03h57.56.526,multiplicationStroop,2021.2.3,Win32,59.82650314,,,,,,,,,,,,,,,,,,,,,,,,,,,,,,,,,,,,,,,,,,,,,,,,,,0,2,2,5,1,stimulusFile/mult_blk6_INcongruent.xlsx,,
,,,,,,,,,,,,,,,823,2022-01-14_03h57.56.526,multiplicationStroop,2021.2.3,Win32,59.82650314,,,,,,,,,,,,,,,,,,,,,,,,,,,,,,,space,1.067,21,1.4423,1,0,0,0,16,1,7,×,3,7 × 3,congruent,largerFirst,2,1,21,,,,,,,,
,,,,,,,,,,,,,,,823,2022-01-14_03h57.56.526,multiplicationStroop,2021.2.3,Win32,59.82650314,,,,,,,,,,,,,,,,,,,,,,,,,,,,,,,,,36,1.6089,1,0,1,1,32,1,6,×,6,6 × 6,neutral,tie,2,1,36,,,,,,,,
,,,,,,,,,,,,,,,823,2022-01-14_03h57.56.526,multiplicationStroop,2021.2.3,Win32,59.82650314,,,,,,,,,,,,,,,,,,,,,,,,,,,,,,,,,6,1.6151,1,0,2,2,13,1,2,×,3,2 × 3,congruent,smallerFirst,1,2,6,,,,,,,,
,,,,,,,,,,,,,,,823,2022-01-14_03h57.56.526,multiplicationStroop,2021.2.3,Win32,59.82650314,,,,,,,,,,,,,,,,,,,,,,,,,,,,,,,,,27,1.6826,1,0,3,3,26,1,9,×,3,9 × 3,congruent,largerFirst,2,1,27,,,,,,,,
,,,,,,,,,,,,,,,823,2022-01-14_03h57.56.526,multiplicationStroop,2021.2.3,Win32,59.82650314,,,,,,,,,,,,,,,,,,,,,,,,,,,,,,,,,35,1.6994,1,0,4,4,1,1,5,×,7,5 × 7,congruent,smallerFirst,1,2,35,,,,,,,,
,,,,,,,,,,,,,,,823,2022-01-14_03h57.56.526,multiplicationStroop,2021.2.3,Win32,59.82650314,,,,,,,,,,,,,,,,,,,,,,,,,,,,,,,,,36,3.7636,1,0,5,5,0,1,4,×,9,4 × 9,congruent,smallerFirst,1,2,36,,,,,,,,
,,,,,,,,,,,,,,,823,2022-01-14_03h57.56.526,multiplicationStroop,2021.2.3,Win32,59.82650314,,,,,,,,,,,,,,,,,,,,,,,,,,,,,,,,,32,1.4488,1,0,6,6,20,1,8,×,4,8 × 4,congruent,largerFirst,2,1,32,,,,,,,,
,,,,,,,,,,,,,,,823,2022-01-14_03h57.56.526,multiplicationStroop,2021.2.3,Win32,59.82650314,,,,,,,,,,,,,,,,,,,,,,,,,,,,,,,,,49,1.6987,1,0,7,7,33,1,7,×,7,7 × 7,neutral,tie,2,1,49,,,,,,,,
,,,,,,,,,,,,,,,823,2022-01-14_03h57.56.526,multiplicationStroop,2021.2.3,Win32,59.82650314,,,,,,,,,,,,,,,,,,,,,,,,,,,,,,,,,56,3.3815,1,0,8,8,8,1,7,×,8,7 × 8,congruent,smallerFirst,1,2,56,,,,,,,,
,,,,,,,,,,,,,,,823,2022-01-14_03h57.56.526,multiplicationStroop,2021.2.3,Win32,59.82650314,,,,,,,,,,,,,,,,,,,,,,,,,,,,,,,,,9,1.387,1,0,9,9,29,1,3,×,3,3 × 3,neutral,tie,2,1,9,,,,,,,,
,,,,,,,,,,,,,,,823,2022-01-14_03h57.56.526,multiplicationStroop,2021.2.3,Win32,59.82650314,,,,,,,,,,,,,,,,,,,,,,,,,,,,,,,,,20,1.5828,1,0,10,10,7,1,4,×,5,4 × 5,congruent,smallerFirst,1,2,20,,,,,,,,
,,,,,,,,,,,,,,,823,2022-01-14_03h57.56.526,multiplicationStroop,2021.2.3,Win32,59.82650314,,,,,,,,,,,,,,,,,,,,,,,,,,,,,,,,,18,1.5817,1,0,11,11,22,1,9,×,2,9 × 2,congruent,largerFirst,2,1,18,,,,,,,,
,,,,,,,,,,,,,,,823,2022-01-14_03h57.56.526,multiplicationStroop,2021.2.3,Win32,59.82650314,,,,,,,,,,,,,,,,,,,,,,,,,,,,,,,,,12,1.2489,1,0,12,12,2,1,3,×,4,3 × 4,congruent,smallerFirst,1,2,12,,,,,,,,
,,,,,,,,,,,,,,,823,2022-01-14_03h57.56.526,multiplicationStroop,2021.2.3,Win32,59.82650314,,,,,,,,,,,,,,,,,,,,,,,,,,,,,,,,,25,1.5654,1,0,13,13,31,1,5,×,5,5 × 5,neutral,tie,2,1,25,,,,,,,,
,,,,,,,,,,,,,,,823,2022-01-14_03h57.56.526,multiplicationStroop,2021.2.3,Win32,59.82650314,,,,,,,,,,,,,,,,,,,,,,,,,,,,,,,,,81,2.1652,1,0,14,14,35,1,9,×,9,9 × 9,neutral,tie,2,1,81,,,,,,,,
,,,,,,,,,,,,,,,823,2022-01-14_03h57.56.526,multiplicationStroop,2021.2.3,Win32,59.82650314,,,,,,,,,,,,,,,,,,,,,,,,,,,,,,,,,40,1.7989,1,0,15,15,6,1,5,×,8,5 × 8,congruent,smallerFirst,1,2,40,,,,,,,,
,,,,,,,,,,,,,,,823,2022-01-14_03h57.56.526,multiplicationStroop,2021.2.3,Win32,59.82650314,,,,,,,,,,,,,,,,,,,,,,,,,,,,,,,,,18,1.9319,1,0,16,16,11,1,3,×,6,3 × 6,congruent,smallerFirst,1,2,18,,,,,,,,
,,,,,,,,,,,,,,,823,2022-01-14_03h57.56.526,multiplicationStroop,2021.2.3,Win32,59.82650314,,,,,,,,,,,,,,,,,,,,,,,,,,,,,,,,,10,1.7321,1,0,17,17,24,1,5,×,2,5 × 2,congruent,largerFirst,2,1,10,,,,,,,,
,,,,,,,,,,,,,,,823,2022-01-14_03h57.56.526,multiplicationStroop,2021.2.3,Win32,59.82650314,,,,,,,,,,,,,,,,,,,,,,,,,,,,,,,,,24,1.4151,1,0,18,18,25,1,6,×,4,6 × 4,congruent,largerFirst,2,1,24,,,,,,,,
,,,,,,,,,,,,,,,823,2022-01-14_03h57.56.526,multiplicationStroop,2021.2.3,Win32,59.82650314,,,,,,,,,,,,,,,,,,,,,,,,,,,,,,,,,28,2.0493,1,0,19,19,27,1,7,×,4,7 × 4,congruent,largerFirst,2,1,28,,,,,,,,
,,,,,,,,,,,,,,,823,2022-01-14_03h57.56.526,multiplicationStroop,2021.2.3,Win32,59.82650314,,,,,,,,,,,,,,,,,,,,,,,,,,,,,,,,,8,1.4651,1,0,20,20,9,1,2,×,4,2 × 4,congruent,smallerFirst,1,2,8,,,,,,,,
,,,,,,,,,,,,,,,823,2022-01-14_03h57.56.526,multiplicationStroop,2021.2.3,Win32,59.82650314,,,,,,,,,,,,,,,,,,,,,,,,,,,,,,,,,24,2.5155,1,0,21,21,10,1,3,×,8,3 × 8,congruent,smallerFirst,1,2,24,,,,,,,,
,,,,,,,,,,,,,,,823,2022-01-14_03h57.56.526,multiplicationStroop,2021.2.3,Win32,59.82650314,,,,,,,,,,,,,,,,,,,,,,,,,,,,,,,,,72,2.0153,1,0,22,22,17,1,9,×,8,9 × 8,congruent,largerFirst,2,1,72,,,,,,,,
,,,,,,,,,,,,,,,823,2022-01-14_03h57.56.526,multiplicationStroop,2021.2.3,Win32,59.82650314,,,,,,,,,,,,,,,,,,,,,,,,,,,,,,,,,4,1.3988,1,0,23,23,28,1,2,×,2,2 × 2,neutral,tie,2,1,4,,,,,,,,
,,,,,,,,,,,,,,,823,2022-01-14_03h57.56.526,multiplicationStroop,2021.2.3,Win32,59.82650314,,,,,,,,,,,,,,,,,,,,,,,,,,,,,,,,,48,1.8487,1,0,24,24,18,1,8,×,6,8 × 6,congruent,largerFirst,2,1,48,,,,,,,,
,,,,,,,,,,,,,,,823,2022-01-14_03h57.56.526,multiplicationStroop,2021.2.3,Win32,59.82650314,,,,,,,,,,,,,,,,,,,,,,,,,,,,,,,,,12,1.8819,1,0,25,25,19,1,6,×,2,6 × 2,congruent,largerFirst,2,1,12,,,,,,,,
,,,,,,,,,,,,,,,823,2022-01-14_03h57.56.526,multiplicationStroop,2021.2.3,Win32,59.82650314,,,,,,,,,,,,,,,,,,,,,,,,,,,,,,,,,54,3.0652,1,0,26,26,12,1,6,×,9,6 × 9,congruent,smallerFirst,1,2,54,,,,,,,,
,,,,,,,,,,,,,,,823,2022-01-14_03h57.56.526,multiplicationStroop,2021.2.3,Win32,59.82650314,,,,,,,,,,,,,,,,,,,,,,,,,,,,,,,,,30,1.9036,1,0,27,27,15,1,6,×,5,6 × 5,congruent,largerFirst,2,1,30,,,,,,,,
,,,,,,,,,,,,,,,823,2022-01-14_03h57.56.526,multiplicationStroop,2021.2.3,Win32,59.82650314,,,,,,,,,,,,,,,,,,,,,,,,,,,,,,,,,15,1.6986,1,0,28,28,4,1,3,×,5,3 × 5,congruent,smallerFirst,1,2,15,,,,,,,,
,,,,,,,,,,,,,,,823,2022-01-14_03h57.56.526,multiplicationStroop,2021.2.3,Win32,59.82650314,,,,,,,,,,,,,,,,,,,,,,,,,,,,,,,,,16,2.3181,1,0,29,29,30,1,4,×,4,4 × 4,neutral,tie,2,1,16,,,,,,,,
,,,,,,,,,,,,,,,823,2022-01-14_03h57.56.526,multiplicationStroop,2021.2.3,Win32,59.82650314,,,,,,,,,,,,,,,,,,,,,,,,,,,,,,,,,40,1.8116,0,0,30,30,23,1,9,×,5,9 × 5,congruent,largerFirst,2,1,45,,,,,,,,
,,,,,,,,,,,,,,,823,2022-01-14_03h57.56.526,multiplicationStroop,2021.2.3,Win32,59.82650314,,,,,,,,,,,,,,,,,,,,,,,,,,,,,,,,,14,1.732,1,0,31,31,14,1,7,×,2,7 × 2,congruent,largerFirst,2,1,14,,,,,,,,
,,,,,,,,,,,,,,,823,2022-01-14_03h57.56.526,multiplicationStroop,2021.2.3,Win32,59.82650314,,,,,,,,,,,,,,,,,,,,,,,,,,,,,,,,,48,1.8153,0,0,32,32,34,1,8,×,8,8 × 8,neutral,tie,2,1,64,,,,,,,,
,,,,,,,,,,,,,,,823,2022-01-14_03h57.56.526,multiplicationStroop,2021.2.3,Win32,59.82650314,,,,,,,,,,,,,,,,,,,,,,,,,,,,,,,,,56,1.7488,0,0,33,33,21,1,9,×,7,9 × 7,congruent,largerFirst,2,1,63,,,,,,,,
,,,,,,,,,,,,,,,823,2022-01-14_03h57.56.526,multiplicationStroop,2021.2.3,Win32,59.82650314,,,,,,,,,,,,,,,,,,,,,,,,,,,,,,,,,42,1.732,1,0,34,34,3,1,6,×,7,6 × 7,congruent,smallerFirst,1,2,42,,,,,,,,
,,,,,,,,,,,,,,,823,2022-01-14_03h57.56.526,multiplicationStroop,2021.2.3,Win32,59.82650314,,,,,,,,,,,,,,,,,,,,,,,,,,,,,,,,,16,2.5988,1,0,35,35,5,1,2,×,8,2 × 8,congruent,smallerFirst,1,2,16,,,,,,,,
,,,,,,,,,,,,,,,823,2022-01-14_03h57.56.526,multiplicationStroop,2021.2.3,Win32,59.82650314,,,,,,,,,,,,,,,,,,,,,,,,,,,,,,,,,,,,,,,,,,,,,,,,,,0,3,3,2,1,stimulusFile/mult_blk3_congruent.xlsx,,
,,,,,,,,,,,,,,,823,2022-01-14_03h57.56.526,multiplicationStroop,2021.2.3,Win32,59.82650314,,,,,,,,,,,,,,,,,,,,,,,,,,,,,,,space,1.2772,21,1.6061,1,0,0,0,22,1,7,×,3,7 × 3,neutral,largerFirst,1.5,1.5,21,,,,,,,,
,,,,,,,,,,,,,,,823,2022-01-14_03h57.56.526,multiplicationStroop,2021.2.3,Win32,59.82650314,,,,,,,,,,,,,,,,,,,,,,,,,,,,,,,,,32,3.0814,1,0,1,1,9,1,4,×,8,4 × 8,neutral,smallerFirst,1.5,1.5,32,,,,,,,,
,,,,,,,,,,,,,,,823,2022-01-14_03h57.56.526,multiplicationStroop,2021.2.3,Win32,59.82650314,,,,,,,,,,,,,,,,,,,,,,,,,,,,,,,,,24,1.5542,1,0,2,2,16,1,6,×,4,6 × 4,neutral,largerFirst,1.5,1.5,24,,,,,,,,
,,,,,,,,,,,,,,,823,2022-01-14_03h57.56.526,multiplicationStroop,2021.2.3,Win32,59.82650314,,,,,,,,,,,,,,,,,,,,,,,,,,,,,,,,,24,2.6486,1,0,3,3,8,1,3,×,8,3 × 8,neutral,smallerFirst,1.5,1.5,24,,,,,,,,
,,,,,,,,,,,,,,,823,2022-01-14_03h57.56.526,multiplicationStroop,2021.2.3,Win32,59.82650314,,,,,,,,,,,,,,,,,,,,,,,,,,,,,,,,,18,1.7373,1,0,4,4,4,1,2,×,9,2 × 9,neutral,smallerFirst,1.5,1.5,18,,,,,,,,
,,,,,,,,,,,,,,,823,2022-01-14_03h57.56.526,multiplicationStroop,2021.2.3,Win32,59.82650314,,,,,,,,,,,,,,,,,,,,,,,,,,,,,,,,,30,1.7821,1,0,5,5,5,1,5,×,6,5 × 6,neutral,smallerFirst,1.5,1.5,30,,,,,,,,
,,,,,,,,,,,,,,,823,2022-01-14_03h57.56.526,multiplicationStroop,2021.2.3,Win32,59.82650314,,,,,,,,,,,,,,,,,,,,,,,,,,,,,,,,,40,1.6817,1,0,6,6,10,1,5,×,8,5 × 8,neutral,smallerFirst,1.5,1.5,40,,,,,,,,
,,,,,,,,,,,,,,,823,2022-01-14_03h57.56.526,multiplicationStroop,2021.2.3,Win32,59.82650314,,,,,,,,,,,,,,,,,,,,,,,,,,,,,,,,,35,2.1823,1,0,7,7,15,1,7,×,5,7 × 5,neutral,largerFirst,1.5,1.5,35,,,,,,,,
,,,,,,,,,,,,,,,823,2022-01-14_03h57.56.526,multiplicationStroop,2021.2.3,Win32,59.82650314,,,,,,,,,,,,,,,,,,,,,,,,,,,,,,,,,6,2.0153,1,0,8,8,12,1,2,×,3,2 × 3,neutral,smallerFirst,1.5,1.5,6,,,,,,,,
,,,,,,,,,,,,,,,823,2022-01-14_03h57.56.526,multiplicationStroop,2021.2.3,Win32,59.82650314,,,,,,,,,,,,,,,,,,,,,,,,,,,,,,,,,48,2.2653,1,0,9,9,1,1,6,×,8,6 × 8,neutral,smallerFirst,1.5,1.5,48,,,,,,,,
,,,,,,,,,,,,,,,823,2022-01-14_03h57.56.526,multiplicationStroop,2021.2.3,Win32,59.82650314,,,,,,,,,,,,,,,,,,,,,,,,,,,,,,,,,14,1.5369,1,0,10,10,2,1,2,×,7,2 × 7,neutral,smallerFirst,1.5,1.5,14,,,,,,,,
,,,,,,,,,,,,,,,823,2022-01-14_03h57.56.526,multiplicationStroop,2021.2.3,Win32,59.82650314,,,,,,,,,,,,,,,,,,,,,,,,,,,,,,,,,9,1.3822,1,0,11,11,29,1,3,×,3,3 × 3,neutral,tie,1.5,1.5,9,,,,,,,,
,,,,,,,,,,,,,,,823,2022-01-14_03h57.56.526,multiplicationStroop,2021.2.3,Win32,59.82650314,,,,,,,,,,,,,,,,,,,,,,,,,,,,,,,,,36,1.7653,1,0,12,12,13,1,4,×,9,4 × 9,neutral,smallerFirst,1.5,1.5,36,,,,,,,,
,,,,,,,,,,,,,,,823,2022-01-14_03h57.56.526,multiplicationStroop,2021.2.3,Win32,59.82650314,,,,,,,,,,,,,,,,,,,,,,,,,,,,,,,,,18,1.7296,1,0,13,13,14,1,6,×,3,6 × 3,neutral,largerFirst,1.5,1.5,18,,,,,,,,
,,,,,,,,,,,,,,,823,2022-01-14_03h57.56.526,multiplicationStroop,2021.2.3,Win32,59.82650314,,,,,,,,,,,,,,,,,,,,,,,,,,,,,,,,,8,1.382,1,0,14,14,17,1,4,×,2,4 × 2,neutral,largerFirst,1.5,1.5,8,,,,,,,,
,,,,,,,,,,,,,,,823,2022-01-14_03h57.56.526,multiplicationStroop,2021.2.3,Win32,59.82650314,,,,,,,,,,,,,,,,,,,,,,,,,,,,,,,,,10,1.5488,1,0,15,15,18,1,5,×,2,5 × 2,neutral,largerFirst,1.5,1.5,10,,,,,,,,
,,,,,,,,,,,,,,,823,2022-01-14_03h57.56.526,multiplicationStroop,2021.2.3,Win32,59.82650314,,,,,,,,,,,,,,,,,,,,,,,,,,,,,,,,,36,2.0324,1,0,16,16,32,1,6,×,6,6 × 6,neutral,tie,1.5,1.5,36,,,,,,,,
,,,,,,,,,,,,,,,823,2022-01-14_03h57.56.526,multiplicationStroop,2021.2.3,Win32,59.82650314,,,,,,,,,,,,,,,,,,,,,,,,,,,,,,,,,42,1.848,1,0,17,17,20,1,7,×,6,7 × 6,neutral,largerFirst,1.5,1.5,42,,,,,,,,
,,,,,,,,,,,,,,,823,2022-01-14_03h57.56.526,multiplicationStroop,2021.2.3,Win32,59.82650314,,,,,,,,,,,,,,,,,,,,,,,,,,,,,,,,,81,1.8984,1,0,18,18,35,1,9,×,9,9 × 9,neutral,tie,1.5,1.5,81,,,,,,,,
,,,,,,,,,,,,,,,823,2022-01-14_03h57.56.526,multiplicationStroop,2021.2.3,Win32,59.82650314,,,,,,,,,,,,,,,,,,,,,,,,,,,,,,,,,12,1.3158,1,0,19,19,7,1,3,×,4,3 × 4,neutral,smallerFirst,1.5,1.5,12,,,,,,,,
,,,,,,,,,,,,,,,823,2022-01-14_03h57.56.526,multiplicationStroop,2021.2.3,Win32,59.82650314,,,,,,,,,,,,,,,,,,,,,,,,,,,,,,,,,45,1.682,1,0,20,20,24,1,9,×,5,9 × 5,neutral,largerFirst,1.5,1.5,45,,,,,,,,
,,,,,,,,,,,,,,,823,2022-01-14_03h57.56.526,multiplicationStroop,2021.2.3,Win32,59.82650314,,,,,,,,,,,,,,,,,,,,,,,,,,,,,,,,,28,2.6318,1,0,21,21,3,1,4,×,7,4 × 7,neutral,smallerFirst,1.5,1.5,28,,,,,,,,
,,,,,,,,,,,,,,,823,2022-01-14_03h57.56.526,multiplicationStroop,2021.2.3,Win32,59.82650314,,,,,,,,,,,,,,,,,,,,,,,,,,,,,,,,,25,1.7988,1,0,22,22,31,1,5,×,5,5 × 5,neutral,tie,1.5,1.5,25,,,,,,,,
,,,,,,,,,,,,,,,823,2022-01-14_03h57.56.526,multiplicationStroop,2021.2.3,Win32,59.82650314,,,,,,,,,,,,,,,,,,,,,,,,,,,,,,,,,54,1.5821,1,0,23,23,21,1,9,×,6,9 × 6,neutral,largerFirst,1.5,1.5,54,,,,,,,,
,,,,,,,,,,,,,,,823,2022-01-14_03h57.56.526,multiplicationStroop,2021.2.3,Win32,59.82650314,,,,,,,,,,,,,,,,,,,,,,,,,,,,,,,,,20,1.8486,1,0,24,24,6,1,4,×,5,4 × 5,neutral,smallerFirst,1.5,1.5,20,,,,,,,,
,,,,,,,,,,,,,,,823,2022-01-14_03h57.56.526,multiplicationStroop,2021.2.3,Win32,59.82650314,,,,,,,,,,,,,,,,,,,,,,,,,,,,,,,,,15,1.6486,1,0,25,25,19,1,5,×,3,5 × 3,neutral,largerFirst,1.5,1.5,15,,,,,,,,
,,,,,,,,,,,,,,,823,2022-01-14_03h57.56.526,multiplicationStroop,2021.2.3,Win32,59.82650314,,,,,,,,,,,,,,,,,,,,,,,,,,,,,,,,,49,1.8653,1,0,26,26,33,1,7,×,7,7 × 7,neutral,tie,1.5,1.5,49,,,,,,,,
,,,,,,,,,,,,,,,823,2022-01-14_03h57.56.526,multiplicationStroop,2021.2.3,Win32,59.82650314,,,,,,,,,,,,,,,,,,,,,,,,,,,,,,,,,64,2.8486,1,0,27,27,34,1,8,×,8,8 × 8,neutral,tie,1.5,1.5,64,,,,,,,,
,,,,,,,,,,,,,,,823,2022-01-14_03h57.56.526,multiplicationStroop,2021.2.3,Win32,59.82650314,,,,,,,,,,,,,,,,,,,,,,,,,,,,,,,,,16,3.0701,1,0,28,28,27,1,8,×,2,8 × 2,neutral,largerFirst,1.5,1.5,16,,,,,,,,
,,,,,,,,,,,,,,,823,2022-01-14_03h57.56.526,multiplicationStroop,2021.2.3,Win32,59.82650314,,,,,,,,,,,,,,,,,,,,,,,,,,,,,,,,,4,1.4987,1,0,29,29,28,1,2,×,2,2 × 2,neutral,tie,1.5,1.5,4,,,,,,,,
,,,,,,,,,,,,,,,823,2022-01-14_03h57.56.526,multiplicationStroop,2021.2.3,Win32,59.82650314,,,,,,,,,,,,,,,,,,,,,,,,,,,,,,,,,12,1.4821,1,0,30,30,11,1,2,×,6,2 × 6,neutral,smallerFirst,1.5,1.5,12,,,,,,,,
,,,,,,,,,,,,,,,823,2022-01-14_03h57.56.526,multiplicationStroop,2021.2.3,Win32,59.82650314,,,,,,,,,,,,,,,,,,,,,,,,,,,,,,,,,72,1.982,1,0,31,31,25,1,9,×,8,9 × 8,neutral,largerFirst,1.5,1.5,72,,,,,,,,
,,,,,,,,,,,,,,,823,2022-01-14_03h57.56.526,multiplicationStroop,2021.2.3,Win32,59.82650314,,,,,,,,,,,,,,,,,,,,,,,,,,,,,,,,,54,1.6155,0,0,32,32,26,1,9,×,7,9 × 7,neutral,largerFirst,1.5,1.5,63,,,,,,,,
,,,,,,,,,,,,,,,823,2022-01-14_03h57.56.526,multiplicationStroop,2021.2.3,Win32,59.82650314,,,,,,,,,,,,,,,,,,,,,,,,,,,,,,,,,27,2.0485,1,0,33,33,0,1,3,×,9,3 × 9,neutral,smallerFirst,1.5,1.5,27,,,,,,,,
,,,,,,,,,,,,,,,823,2022-01-14_03h57.56.526,multiplicationStroop,2021.2.3,Win32,59.82650314,,,,,,,,,,,,,,,,,,,,,,,,,,,,,,,,,16,1.6321,1,0,34,34,30,1,4,×,4,4 × 4,neutral,tie,1.5,1.5,16,,,,,,,,
,,,,,,,,,,,,,,,823,2022-01-14_03h57.56.526,multiplicationStroop,2021.2.3,Win32,59.82650314,,,,,,,,,,,,,,,,,,,,,,,,,,,,,,,,,56,1.715,1,0,35,35,23,1,8,×,7,8 × 7,neutral,largerFirst,1.5,1.5,56,,,,,,,,
,,,,,,,,,,,,,,,823,2022-01-14_03h57.56.526,multiplicationStroop,2021.2.3,Win32,59.82650314,,,,,,,,,,,,,,,,,,,,,,,,,,,,,,,,,,,,,,,,,,,,,,,,,,0,4,4,0,1,stimulusFile/mult_blk1.xlsx,,
,,,,,,,,,,,,,,,823,2022-01-14_03h57.56.526,multiplicationStroop,2021.2.3,Win32,59.82650314,,,,,,,,,,,,,,,,,,,,,,,,,,,,,,,space,1.1512,9,1.468,1,0,0,0,29,1,3,×,3,3 × 3,neutral,tie,1,2,9,,,,,,,,
,,,,,,,,,,,,,,,823,2022-01-14_03h57.56.526,multiplicationStroop,2021.2.3,Win32,59.82650314,,,,,,,,,,,,,,,,,,,,,,,,,,,,,,,,,81,2.2161,1,0,1,1,35,1,9,×,9,9 × 9,neutral,tie,1,2,81,,,,,,,,
,,,,,,,,,,,,,,,823,2022-01-14_03h57.56.526,multiplicationStroop,2021.2.3,Win32,59.82650314,,,,,,,,,,,,,,,,,,,,,,,,,,,,,,,,,32,2.6651,1,0,2,2,6,1,4,×,8,4 × 8,congruent,smallerFirst,1,2,32,,,,,,,,
,,,,,,,,,,,,,,,823,2022-01-14_03h57.56.526,multiplicationStroop,2021.2.3,Win32,59.82650314,,,,,,,,,,,,,,,,,,,,,,,,,,,,,,,,,14,1.4663,1,0,3,3,0,1,2,×,7,2 × 7,congruent,smallerFirst,1,2,14,,,,,,,,
,,,,,,,,,,,,,,,823,2022-01-14_03h57.56.526,multiplicationStroop,2021.2.3,Win32,59.82650314,,,,,,,,,,,,,,,,,,,,,,,,,,,,,,,,,16,1.8157,1,0,4,4,19,1,8,×,2,8 × 2,congruent,largerFirst,2,1,16,,,,,,,,
,,,,,,,,,,,,,,,823,2022-01-14_03h57.56.526,multiplicationStroop,2021.2.3,Win32,59.82650314,,,,,,,,,,,,,,,,,,,,,,,,,,,,,,,,,35,2.7655,1,0,5,5,15,1,7,×,5,7 × 5,congruent,largerFirst,2,1,35,,,,,,,,
,,,,,,,,,,,,,,,823,2022-01-14_03h57.56.526,multiplicationStroop,2021.2.3,Win32,59.82650314,,,,,,,,,,,,,,,,,,,,,,,,,,,,,,,,,21,1.3656,1,0,6,6,2,1,3,×,7,3 × 7,congruent,smallerFirst,1,2,21,,,,,,,,
,,,,,,,,,,,,,,,823,2022-01-14_03h57.56.526,multiplicationStroop,2021.2.3,Win32,59.82650314,,,,,,,,,,,,,,,,,,,,,,,,,,,,,,,,,20,2.099,1,0,7,7,21,1,5,×,4,5 × 4,congruent,largerFirst,2,1,20,,,,,,,,
,,,,,,,,,,,,,,,823,2022-01-14_03h57.56.526,multiplicationStroop,2021.2.3,Win32,59.82650314,,,,,,,,,,,,,,,,,,,,,,,,,,,,,,,,,42,2.3156,1,0,8,8,17,1,7,×,6,7 × 6,congruent,largerFirst,2,1,42,,,,,,,,
,,,,,,,,,,,,,,,823,2022-01-14_03h57.56.526,multiplicationStroop,2021.2.3,Win32,59.82650314,,,,,,,,,,,,,,,,,,,,,,,,,,,,,,,,,54,1.7486,0,0,9,9,7,1,7,×,9,7 × 9,congruent,smallerFirst,1,2,63,,,,,,,,
,,,,,,,,,,,,,,,823,2022-01-14_03h57.56.526,multiplicationStroop,2021.2.3,Win32,59.82650314,,,,,,,,,,,,,,,,,,,,,,,,,,,,,,,,,27,2.3656,1,0,10,10,12,1,3,×,9,3 × 9,congruent,smallerFirst,1,2,27,,,,,,,,
,,,,,,,,,,,,,,,823,2022-01-14_03h57.56.526,multiplicationStroop,2021.2.3,Win32,59.82650314,,,,,,,,,,,,,,,,,,,,,,,,,,,,,,,,,24,1.7009,1,0,11,11,24,1,8,×,3,8 × 3,congruent,largerFirst,2,1,24,,,,,,,,
,,,,,,,,,,,,,,,823,2022-01-14_03h57.56.526,multiplicationStroop,2021.2.3,Win32,59.82650314,,,,,,,,,,,,,,,,,,,,,,,,,,,,,,,,,30,1.7628,1,0,12,12,1,1,5,×,6,5 × 6,congruent,smallerFirst,1,2,30,,,,,,,,
,,,,,,,,,,,,,,,823,2022-01-14_03h57.56.526,multiplicationStroop,2021.2.3,Win32,59.82650314,,,,,,,,,,,,,,,,,,,,,,,,,,,,,,,,,64,1.932,1,0,13,13,34,1,8,×,8,8 × 8,neutral,tie,1,2,64,,,,,,,,
,,,,,,,,,,,,,,,823,2022-01-14_03h57.56.526,multiplicationStroop,2021.2.3,Win32,59.82650314,,,,,,,,,,,,,,,,,,,,,,,,,,,,,,,,,6,1.565,1,0,14,14,27,1,3,×,2,3 × 2,congruent,largerFirst,2,1,6,,,,,,,,
,,,,,,,,,,,,,,,823,2022-01-14_03h57.56.526,multiplicationStroop,2021.2.3,Win32,59.82650314,,,,,,,,,,,,,,,,,,,,,,,,,,,,,,,,,12,1.2991,1,0,15,15,5,1,2,×,6,2 × 6,congruent,smallerFirst,1,2,12,,,,,,,,
,,,,,,,,,,,,,,,823,2022-01-14_03h57.56.526,multiplicationStroop,2021.2.3,Win32,59.82650314,,,,,,,,,,,,,,,,,,,,,,,,,,,,,,,,,4,1.3988,1,0,16,16,28,1,2,×,2,2 × 2,neutral,tie,1,2,4,,,,,,,,
,,,,,,,,,,,,,,,823,2022-01-14_03h57.56.526,multiplicationStroop,2021.2.3,Win32,59.82650314,,,,,,,,,,,,,,,,,,,,,,,,,,,,,,,,,40,1.7825,1,0,17,17,20,1,8,×,5,8 × 5,congruent,largerFirst,2,1,40,,,,,,,,
,,,,,,,,,,,,,,,823,2022-01-14_03h57.56.526,multiplicationStroop,2021.2.3,Win32,59.82650314,,,,,,,,,,,,,,,,,,,,,,,,,,,,,,,,,18,1.8986,1,0,18,18,25,1,6,×,3,6 × 3,congruent,largerFirst,2,1,18,,,,,,,,
,,,,,,,,,,,,,,,823,2022-01-14_03h57.56.526,multiplicationStroop,2021.2.3,Win32,59.82650314,,,,,,,,,,,,,,,,,,,,,,,,,,,,,,,,,36,1.7321,1,0,19,19,32,1,6,×,6,6 × 6,neutral,tie,1,2,36,,,,,,,,
,,,,,,,,,,,,,,,823,2022-01-14_03h57.56.526,multiplicationStroop,2021.2.3,Win32,59.82650314,,,,,,,,,,,,,,,,,,,,,,,,,,,,,,,,,12,1.3489,1,0,20,20,16,1,4,×,3,4 × 3,congruent,largerFirst,2,1,12,,,,,,,,
,,,,,,,,,,,,,,,823,2022-01-14_03h57.56.526,multiplicationStroop,2021.2.3,Win32,59.82650314,,,,,,,,,,,,,,,,,,,,,,,,,,,,,,,,,49,1.8655,1,0,21,21,33,1,7,×,7,7 × 7,neutral,tie,1,2,49,,,,,,,,
,,,,,,,,,,,,,,,823,2022-01-14_03h57.56.526,multiplicationStroop,2021.2.3,Win32,59.82650314,,,,,,,,,,,,,,,,,,,,,,,,,,,,,,,,,10,1.6987,1,0,22,22,10,1,2,×,5,2 × 5,congruent,smallerFirst,1,2,10,,,,,,,,
,,,,,,,,,,,,,,,823,2022-01-14_03h57.56.526,multiplicationStroop,2021.2.3,Win32,59.82650314,,,,,,,,,,,,,,,,,,,,,,,,,,,,,,,,,25,1.5983,1,0,23,23,31,1,5,×,5,5 × 5,neutral,tie,1,2,25,,,,,,,,
,,,,,,,,,,,,,,,823,2022-01-14_03h57.56.526,multiplicationStroop,2021.2.3,Win32,59.82650314,,,,,,,,,,,,,,,,,,,,,,,,,,,,,,,,,72,3.0155,1,0,24,24,3,1,8,×,9,8 × 9,congruent,smallerFirst,1,2,72,,,,,,,,
,,,,,,,,,,,,,,,823,2022-01-14_03h57.56.526,multiplicationStroop,2021.2.3,Win32,59.82650314,,,,,,,,,,,,,,,,,,,,,,,,,,,,,,,,,18,1.9315,1,0,25,25,8,1,2,×,9,2 × 9,congruent,smallerFirst,1,2,18,,,,,,,,
,,,,,,,,,,,,,,,823,2022-01-14_03h57.56.526,multiplicationStroop,2021.2.3,Win32,59.82650314,,,,,,,,,,,,,,,,,,,,,,,,,,,,,,,,,48,1.8989,1,0,26,26,4,1,6,×,8,6 × 8,congruent,smallerFirst,1,2,48,,,,,,,,
,,,,,,,,,,,,,,,823,2022-01-14_03h57.56.526,multiplicationStroop,2021.2.3,Win32,59.82650314,,,,,,,,,,,,,,,,,,,,,,,,,,,,,,,,,15,1.5332,1,0,27,27,18,1,5,×,3,5 × 3,congruent,largerFirst,2,1,15,,,,,,,,
,,,,,,,,,,,,,,,823,2022-01-14_03h57.56.526,multiplicationStroop,2021.2.3,Win32,59.82650314,,,,,,,,,,,,,,,,,,,,,,,,,,,,,,,,,36,1.7648,1,0,28,28,14,1,9,×,4,9 × 4,congruent,largerFirst,2,1,36,,,,,,,,
,,,,,,,,,,,,,,,823,2022-01-14_03h57.56.526,multiplicationStroop,2021.2.3,Win32,59.82650314,,,,,,,,,,,,,,,,,,,,,,,,,,,,,,,,,16,1.7829,1,0,29,29,30,1,4,×,4,4 × 4,neutral,tie,1,2,16,,,,,,,,
,,,,,,,,,,,,,,,823,2022-01-14_03h57.56.526,multiplicationStroop,2021.2.3,Win32,59.82650314,,,,,,,,,,,,,,,,,,,,,,,,,,,,,,,,,56,2.6317,1,0,30,30,22,1,8,×,7,8 × 7,congruent,largerFirst,2,1,56,,,,,,,,
,,,,,,,,,,,,,,,823,2022-01-14_03h57.56.526,multiplicationStroop,2021.2.3,Win32,59.82650314,,,,,,,,,,,,,,,,,,,,,,,,,,,,,,,,,45,3.0152,1,0,31,31,9,1,5,×,9,5 × 9,congruent,smallerFirst,1,2,45,,,,,,,,
,,,,,,,,,,,,,,,823,2022-01-14_03h57.56.526,multiplicationStroop,2021.2.3,Win32,59.82650314,,,,,,,,,,,,,,,,,,,,,,,,,,,,,,,,,54,1.9039,1,0,32,32,26,1,9,×,6,9 × 6,congruent,largerFirst,2,1,54,,,,,,,,
,,,,,,,,,,,,,,,823,2022-01-14_03h57.56.526,multiplicationStroop,2021.2.3,Win32,59.82650314,,,,,,,,,,,,,,,,,,,,,,,,,,,,,,,,,8,2.8484,1,0,33,33,23,1,4,×,2,4 × 2,congruent,largerFirst,2,1,8,,,,,,,,
,,,,,,,,,,,,,,,823,2022-01-14_03h57.56.526,multiplicationStroop,2021.2.3,Win32,59.82650314,,,,,,,,,,,,,,,,,,,,,,,,,,,,,,,,,24,1.6872,1,0,34,34,11,1,4,×,6,4 × 6,congruent,smallerFirst,1,2,24,,,,,,,,
,,,,,,,,,,,,,,,823,2022-01-14_03h57.56.526,multiplicationStroop,2021.2.3,Win32,59.82650314,,,,,,,,,,,,,,,,,,,,,,,,,,,,,,,,,28,2.8653,1,0,35,35,13,1,4,×,7,4 × 7,congruent,smallerFirst,1,2,28,,,,,,,,
,,,,,,,,,,,,,,,823,2022-01-14_03h57.56.526,multiplicationStroop,2021.2.3,Win32,59.82650314,,,,,,,,,,,,,,,,,,,,,,,,,,,,,,,,,,,,,,,,,,,,,,,,,,0,5,5,3,1,stimulusFile/mult_blk4_congruent.xlsx,,
,,,,,,,,,,,,,,,823,2022-01-14_03h57.56.526,multiplicationStroop,2021.2.3,Win32,59.82650314,,,,,,,,,,,,,,,,,,,,,,,,,,,,,,,,,,,,,,,,,,,,,,,,,,,,,,,,space,2.6308