welcomeKey_resp.keys,welcomeKey_resp.rt,X Scale,Y Scale,rt_resp_4.keys,rt_resp_4.corr,rt_resp_4.rt,speedtest_2.thisRepN,speedtest_2.thisTrialN,speedtest_2.thisN,speedtest_2.thisIndex,speedtest_2.ran,numberSc,posX,positionLayout,participant,date,expName,psychopyVersion,OS,frameRate,ct_instrresp.keys,ct_instrresp.rt,key_resp_2.keys,key_resp_2.rt,ct_keyResp.keys,ct_keyResp.corr,ct_keyResp.rt,trials.thisRepN,trials.thisTrialN,trials.thisN,trials.thisIndex,trials.ran,leftNo,rightNo,displayProblem,numDistance,leftNo_size,rightNo_size,Dims,keyAnswer,TS_Loop.thisRepN,TS_Loop.thisTrialN,TS_Loop.thisN,TS_Loop.thisIndex,TS_Loop.ran,Condition,ActionInst,instrImage,mltptaskInst_resp.keys,mltptaskInst_resp.rt,continue_resp_2.keys,continue_resp_2.rt,multp_Answer,multi_RT,multiplyCorr,LoopingMultiply.thisRepN,LoopingMultiply.thisTrialN,LoopingMultiply.thisN,LoopingMultiply.thisIndex,LoopingMultiply.ran,factor1,multiplySign,factor2,multliplyProblem,physicalSize,orderOperand,sizeF1,sizeF2,mult_answer,trials_stroop.thisRepN,trials_stroop.thisTrialN,trials_stroop.thisN,trials_stroop.thisIndex,trials_stroop.ran,multiplicationFile,esckey_resp_2.keys,esckey_resp_2.rt
y,8.715,44.6,44.2,right,1,0.7111,0,0,0,13,1,7,200,right,824,2022-01-13_12h34.01.594,multiplicationStroop,2021.2.3,Win32,30.02552169,,,,,,,,,,,,,,,,,,,,,,,,,,,,,,,,,,,,,,,,,,,,,,,,,,,,,,,,,
,,,,right,1,0.4073,0,1,1,14,1,8,200,right,824,2022-01-13_12h34.01.594,multiplicationStroop,2021.2.3,Win32,30.02552169,,,,,,,,,,,,,,,,,,,,,,,,,,,,,,,,,,,,,,,,,,,,,,,,,,,,,,,,,
,,,,left,1,0.4365,0,2,2,7,1,9,-200,left,824,2022-01-13_12h34.01.594,multiplicationStroop,2021.2.3,Win32,30.02552169,,,,,,,,,,,,,,,,,,,,,,,,,,,,,,,,,,,,,,,,,,,,,,,,,,,,,,,,,
,,,,right,1,0.5252,0,3,3,8,1,1,200,right,824,2022-01-13_12h34.01.594,multiplicationStroop,2021.2.3,Win32,30.02552169,,,,,,,,,,,,,,,,,,,,,,,,,,,,,,,,,,,,,,,,,,,,,,,,,,,,,,,,,
,,,,left,1,0.3788,0,4,4,1,1,2,-200,left,824,2022-01-13_12h34.01.594,multiplicationStroop,2021.2.3,Win32,30.02552169,,,,,,,,,,,,,,,,,,,,,,,,,,,,,,,,,,,,,,,,,,,,,,,,,,,,,,,,,
,,,,right,1,0.3724,0,5,5,12,1,6,200,right,824,2022-01-13_12h34.01.594,multiplicationStroop,2021.2.3,Win32,30.02552169,,,,,,,,,,,,,,,,,,,,,,,,,,,,,,,,,,,,,,,,,,,,,,,,,,,,,,,,,
,,,,right,1,0.4205,0,6,6,15,1,9,200,right,824,2022-01-13_12h34.01.594,multiplicationStroop,2021.2.3,Win32,30.02552169,,,,,,,,,,,,,,,,,,,,,,,,,,,,,,,,,,,,,,,,,,,,,,,,,,,,,,,,,
,,,,left,1,0.387,0,7,7,2,1,3,-200,left,824,2022-01-13_12h34.01.594,multiplicationStroop,2021.2.3,Win32,30.02552169,,,,,,,,,,,,,,,,,,,,,,,,,,,,,,,,,,,,,,,,,,,,,,,,,,,,,,,,,
,,,,left,1,0.4866,0,8,8,4,1,6,-200,left,824,2022-01-13_12h34.01.594,multiplicationStroop,2021.2.3,Win32,30.02552169,,,,,,,,,,,,,,,,,,,,,,,,,,,,,,,,,,,,,,,,,,,,,,,,,,,,,,,,,
,,,,left,1,0.3918,0,9,9,0,1,1,-200,left,824,2022-01-13_12h34.01.594,multiplicationStroop,2021.2.3,Win32,30.02552169,,,,,,,,,,,,,,,,,,,,,,,,,,,,,,,,,,,,,,,,,,,,,,,,,,,,,,,,,
,,,,right,1,0.4027,0,10,10,10,1,3,200,right,824,2022-01-13_12h34.01.594,multiplicationStroop,2021.2.3,Win32,30.02552169,,,,,,,,,,,,,,,,,,,,,,,,,,,,,,,,,,,,,,,,,,,,,,,,,,,,,,,,,
,,,,right,1,0.4211,0,11,11,9,1,2,200,right,824,2022-01-13_12h34.01.594,multiplicationStroop,2021.2.3,Win32,30.02552169,,,,,,,,,,,,,,,,,,,,,,,,,,,,,,,,,,,,,,,,,,,,,,,,,,,,,,,,,
,,,,left,1,0.3739,0,12,12,3,1,4,-200,left,824,2022-01-13_12h34.01.594,multiplicationStroop,2021.2.3,Win32,30.02552169,,,,,,,,,,,,,,,,,,,,,,,,,,,,,,,,,,,,,,,,,,,,,,,,,,,,,,,,,
,,,,left,1,0.4708,0,13,13,6,1,8,-200,left,824,2022-01-13_12h34.01.594,multiplicationStroop,2021.2.3,Win32,30.02552169,,,,,,,,,,,,,,,,,,,,,,,,,,,,,,,,,,,,,,,,,,,,,,,,,,,,,,,,,
,,,,left,1,0.3775,0,14,14,5,1,7,-200,left,824,2022-01-13_12h34.01.594,multiplicationStroop,2021.2.3,Win32,30.02552169,,,,,,,,,,,,,,,,,,,,,,,,,,,,,,,,,,,,,,,,,,,,,,,,,,,,,,,,,
,,,,right,1,0.467,0,15,15,11,1,4,200,right,824,2022-01-13_12h34.01.594,multiplicationStroop,2021.2.3,Win32,30.02552169,,,,,,,,,,,,,,,,,,,,,,,,,,,,,,,,,,,,,,,,,,,,,,,,,,,,,,,,,
,,,,left,1,0.3569,1,0,16,2,1,3,-200,left,824,2022-01-13_12h34.01.594,multiplicationStroop,2021.2.3,Win32,30.02552169,,,,,,,,,,,,,,,,,,,,,,,,,,,,,,,,,,,,,,,,,,,,,,,,,,,,,,,,,
,,,,left,1,0.4221,1,1,17,1,1,2,-200,left,824,2022-01-13_12h34.01.594,multiplicationStroop,2021.2.3,Win32,30.02552169,,,,,,,,,,,,,,,,,,,,,,,,,,,,,,,,,,,,,,,,,,,,,,,,,,,,,,,,,
,,,,left,1,0.4127,1,2,18,4,1,6,-200,left,824,2022-01-13_12h34.01.594,multiplicationStroop,2021.2.3,Win32,30.02552169,,,,,,,,,,,,,,,,,,,,,,,,,,,,,,,,,,,,,,,,,,,,,,,,,,,,,,,,,
,,,,right,1,0.3826,1,3,19,14,1,8,200,right,824,2022-01-13_12h34.01.594,multiplicationStroop,2021.2.3,Win32,30.02552169,,,,,,,,,,,,,,,,,,,,,,,,,,,,,,,,,,,,,,,,,,,,,,,,,,,,,,,,,
,,,,right,1,0.4703,1,4,20,9,1,2,200,right,824,2022-01-13_12h34.01.594,multiplicationStroop,2021.2.3,Win32,30.02552169,,,,,,,,,,,,,,,,,,,,,,,,,,,,,,,,,,,,,,,,,,,,,,,,,,,,,,,,,
,,,,right,1,0.4223,1,5,21,15,1,9,200,right,824,2022-01-13_12h34.01.594,multiplicationStroop,2021.2.3,Win32,30.02552169,,,,,,,,,,,,,,,,,,,,,,,,,,,,,,,,,,,,,,,,,,,,,,,,,,,,,,,,,
,,,,left,1,0.4005,1,6,22,5,1,7,-200,left,824,2022-01-13_12h34.01.594,multiplicationStroop,2021.2.3,Win32,30.02552169,,,,,,,,,,,,,,,,,,,,,,,,,,,,,,,,,,,,,,,,,,,,,,,,,,,,,,,,,
,,,,right,1,0.3666,1,7,23,8,1,1,200,right,824,2022-01-13_12h34.01.594,multiplicationStroop,2021.2.3,Win32,30.02552169,,,,,,,,,,,,,,,,,,,,,,,,,,,,,,,,,,,,,,,,,,,,,,,,,,,,,,,,,
,,,,left,1,0.4366,1,8,24,6,1,8,-200,left,824,2022-01-13_12h34.01.594,multiplicationStroop,2021.2.3,Win32,30.02552169,,,,,,,,,,,,,,,,,,,,,,,,,,,,,,,,,,,,,,,,,,,,,,,,,,,,,,,,,
,,,,left,1,0.4875,1,9,25,0,1,1,-200,left,824,2022-01-13_12h34.01.594,multiplicationStroop,2021.2.3,Win32,30.02552169,,,,,,,,,,,,,,,,,,,,,,,,,,,,,,,,,,,,,,,,,,,,,,,,,,,,,,,,,
,,,,right,1,0.4046,1,10,26,13,1,7,200,right,824,2022-01-13_12h34.01.594,multiplicationStroop,2021.2.3,Win32,30.02552169,,,,,,,,,,,,,,,,,,,,,,,,,,,,,,,,,,,,,,,,,,,,,,,,,,,,,,,,,
,,,,right,1,0.3665,1,11,27,12,1,6,200,right,824,2022-01-13_12h34.01.594,multiplicationStroop,2021.2.3,Win32,30.02552169,,,,,,,,,,,,,,,,,,,,,,,,,,,,,,,,,,,,,,,,,,,,,,,,,,,,,,,,,
,,,,left,1,0.3898,1,12,28,3,1,4,-200,left,824,2022-01-13_12h34.01.594,multiplicationStroop,2021.2.3,Win32,30.02552169,,,,,,,,,,,,,,,,,,,,,,,,,,,,,,,,,,,,,,,,,,,,,,,,,,,,,,,,,
,,,,left,1,0.407,1,13,29,7,1,9,-200,left,824,2022-01-13_12h34.01.594,multiplicationStroop,2021.2.3,Win32,30.02552169,,,,,,,,,,,,,,,,,,,,,,,,,,,,,,,,,,,,,,,,,,,,,,,,,,,,,,,,,
,,,,right,1,0.4179,1,14,30,11,1,4,200,right,824,2022-01-13_12h34.01.594,multiplicationStroop,2021.2.3,Win32,30.02552169,,,,,,,,,,,,,,,,,,,,,,,,,,,,,,,,,,,,,,,,,,,,,,,,,,,,,,,,,
,,,,right,1,0.4037,1,15,31,10,1,3,200,right,824,2022-01-13_12h34.01.594,multiplicationStroop,2021.2.3,Win32,30.02552169,,,,,,,,,,,,,,,,,,,,,,,,,,,,,,,,,,,,,,,,,,,,,,,,,,,,,,,,,
,,,,right,1,0.3826,2,0,32,8,1,1,200,right,824,2022-01-13_12h34.01.594,multiplicationStroop,2021.2.3,Win32,30.02552169,,,,,,,,,,,,,,,,,,,,,,,,,,,,,,,,,,,,,,,,,,,,,,,,,,,,,,,,,
,,,,left,1,0.4072,2,1,33,4,1,6,-200,left,824,2022-01-13_12h34.01.594,multiplicationStroop,2021.2.3,Win32,30.02552169,,,,,,,,,,,,,,,,,,,,,,,,,,,,,,,,,,,,,,,,,,,,,,,,,,,,,,,,,
,,,,left,1,0.4135,2,2,34,5,1,7,-200,left,824,2022-01-13_12h34.01.594,multiplicationStroop,2021.2.3,Win32,30.02552169,,,,,,,,,,,,,,,,,,,,,,,,,,,,,,,,,,,,,,,,,,,,,,,,,,,,,,,,,
,,,,left,1,0.3803,2,3,35,3,1,4,-200,left,824,2022-01-13_12h34.01.594,multiplicationStroop,2021.2.3,Win32,30.02552169,,,,,,,,,,,,,,,,,,,,,,,,,,,,,,,,,,,,,,,,,,,,,,,,,,,,,,,,,
,,,,right,1,0.4452,2,4,36,15,1,9,200,right,824,2022-01-13_12h34.01.594,multiplicationStroop,2021.2.3,Win32,30.02552169,,,,,,,,,,,,,,,,,,,,,,,,,,,,,,,,,,,,,,,,,,,,,,,,,,,,,,,,,
,,,,left,1,0.4128,2,5,37,1,1,2,-200,left,824,2022-01-13_12h34.01.594,multiplicationStroop,2021.2.3,Win32,30.02552169,,,,,,,,,,,,,,,,,,,,,,,,,,,,,,,,,,,,,,,,,,,,,,,,,,,,,,,,,
,,,,left,1,0.4664,2,6,38,7,1,9,-200,left,824,2022-01-13_12h34.01.594,multiplicationStroop,2021.2.3,Win32,30.02552169,,,,,,,,,,,,,,,,,,,,,,,,,,,,,,,,,,,,,,,,,,,,,,,,,,,,,,,,,
,,,,right,1,0.3984,2,7,39,13,1,7,200,right,824,2022-01-13_12h34.01.594,multiplicationStroop,2021.2.3,Win32,30.02552169,,,,,,,,,,,,,,,,,,,,,,,,,,,,,,,,,,,,,,,,,,,,,,,,,,,,,,,,,
,,,,left,1,0.3767,2,8,40,2,1,3,-200,left,824,2022-01-13_12h34.01.594,multiplicationStroop,2021.2.3,Win32,30.02552169,,,,,,,,,,,,,,,,,,,,,,,,,,,,,,,,,,,,,,,,,,,,,,,,,,,,,,,,,
,,,,right,1,0.4099,2,9,41,11,1,4,200,right,824,2022-01-13_12h34.01.594,multiplicationStroop,2021.2.3,Win32,30.02552169,,,,,,,,,,,,,,,,,,,,,,,,,,,,,,,,,,,,,,,,,,,,,,,,,,,,,,,,,
,,,,left,1,0.3954,2,10,42,0,1,1,-200,left,824,2022-01-13_12h34.01.594,multiplicationStroop,2021.2.3,Win32,30.02552169,,,,,,,,,,,,,,,,,,,,,,,,,,,,,,,,,,,,,,,,,,,,,,,,,,,,,,,,,
,,,,left,1,0.5088,2,11,43,6,1,8,-200,left,824,2022-01-13_12h34.01.594,multiplicationStroop,2021.2.3,Win32,30.02552169,,,,,,,,,,,,,,,,,,,,,,,,,,,,,,,,,,,,,,,,,,,,,,,,,,,,,,,,,
,,,,right,1,0.4485,2,12,44,9,1,2,200,right,824,2022-01-13_12h34.01.594,multiplicationStroop,2021.2.3,Win32,30.02552169,,,,,,,,,,,,,,,,,,,,,,,,,,,,,,,,,,,,,,,,,,,,,,,,,,,,,,,,,
,,,,right,1,0.4777,2,13,45,10,1,3,200,right,824,2022-01-13_12h34.01.594,multiplicationStroop,2021.2.3,Win32,30.02552169,,,,,,,,,,,,,,,,,,,,,,,,,,,,,,,,,,,,,,,,,,,,,,,,,,,,,,,,,
,,,,right,1,0.3775,2,14,46,14,1,8,200,right,824,2022-01-13_12h34.01.594,multiplicationStroop,2021.2.3,Win32,30.02552169,,,,,,,,,,,,,,,,,,,,,,,,,,,,,,,,,,,,,,,,,,,,,,,,,,,,,,,,,
,,,,right,1,0.3594,2,15,47,12,1,6,200,right,824,2022-01-13_12h34.01.594,multiplicationStroop,2021.2.3,Win32,30.02552169,,,,,,,,,,,,,,,,,,,,,,,,,,,,,,,,,,,,,,,,,,,,,,,,,,,,,,,,,
,,,,left,1,0.4403,3,0,48,6,1,8,-200,left,824,2022-01-13_12h34.01.594,multiplicationStroop,2021.2.3,Win32,30.02552169,,,,,,,,,,,,,,,,,,,,,,,,,,,,,,,,,,,,,,,,,,,,,,,,,,,,,,,,,
,,,,left,1,0.418,3,1,49,0,1,1,-200,left,824,2022-01-13_12h34.01.594,multiplicationStroop,2021.2.3,Win32,30.02552169,,,,,,,,,,,,,,,,,,,,,,,,,,,,,,,,,,,,,,,,,,,,,,,,,,,,,,,,,
,,,,left,1,0.397,3,2,50,5,1,7,-200,left,824,2022-01-13_12h34.01.594,multiplicationStroop,2021.2.3,Win32,30.02552169,,,,,,,,,,,,,,,,,,,,,,,,,,,,,,,,,,,,,,,,,,,,,,,,,,,,,,,,,
,,,,left,1,0.3527,3,3,51,7,1,9,-200,left,824,2022-01-13_12h34.01.594,multiplicationStroop,2021.2.3,Win32,30.02552169,,,,,,,,,,,,,,,,,,,,,,,,,,,,,,,,,,,,,,,,,,,,,,,,,,,,,,,,,
,,,,right,1,0.4375,3,4,52,9,1,2,200,right,824,2022-01-13_12h34.01.594,multiplicationStroop,2021.2.3,Win32,30.02552169,,,,,,,,,,,,,,,,,,,,,,,,,,,,,,,,,,,,,,,,,,,,,,,,,,,,,,,,,
,,,,right,1,0.45,3,5,53,10,1,3,200,right,824,2022-01-13_12h34.01.594,multiplicationStroop,2021.2.3,Win32,30.02552169,,,,,,,,,,,,,,,,,,,,,,,,,,,,,,,,,,,,,,,,,,,,,,,,,,,,,,,,,
,,,,right,1,0.3835,3,6,54,14,1,8,200,right,824,2022-01-13_12h34.01.594,multiplicationStroop,2021.2.3,Win32,30.02552169,,,,,,,,,,,,,,,,,,,,,,,,,,,,,,,,,,,,,,,,,,,,,,,,,,,,,,,,,
,,,,left,1,0.4881,3,7,55,3,1,4,-200,left,824,2022-01-13_12h34.01.594,multiplicationStroop,2021.2.3,Win32,30.02552169,,,,,,,,,,,,,,,,,,,,,,,,,,,,,,,,,,,,,,,,,,,,,,,,,,,,,,,,,
,,,,right,1,0.3561,3,8,56,15,1,9,200,right,824,2022-01-13_12h34.01.594,multiplicationStroop,2021.2.3,Win32,30.02552169,,,,,,,,,,,,,,,,,,,,,,,,,,,,,,,,,,,,,,,,,,,,,,,,,,,,,,,,,
,,,,right,1,0.4667,3,9,57,13,1,7,200,right,824,2022-01-13_12h34.01.594,multiplicationStroop,2021.2.3,Win32,30.02552169,,,,,,,,,,,,,,,,,,,,,,,,,,,,,,,,,,,,,,,,,,,,,,,,,,,,,,,,,
,,,,left,1,0.4325,3,10,58,2,1,3,-200,left,824,2022-01-13_12h34.01.594,multiplicationStroop,2021.2.3,Win32,30.02552169,,,,,,,,,,,,,,,,,,,,,,,,,,,,,,,,,,,,,,,,,,,,,,,,,,,,,,,,,
,,,,right,1,0.3895,3,11,59,11,1,4,200,right,824,2022-01-13_12h34.01.594,multiplicationStroop,2021.2.3,Win32,30.02552169,,,,,,,,,,,,,,,,,,,,,,,,,,,,,,,,,,,,,,,,,,,,,,,,,,,,,,,,,
,,,,right,1,0.3561,3,12,60,8,1,1,200,right,824,2022-01-13_12h34.01.594,multiplicationStroop,2021.2.3,Win32,30.02552169,,,,,,,,,,,,,,,,,,,,,,,,,,,,,,,,,,,,,,,,,,,,,,,,,,,,,,,,,
,,,,right,1,0.3844,3,13,61,12,1,6,200,right,824,2022-01-13_12h34.01.594,multiplicationStroop,2021.2.3,Win32,30.02552169,,,,,,,,,,,,,,,,,,,,,,,,,,,,,,,,,,,,,,,,,,,,,,,,,,,,,,,,,
,,,,left,1,0.4013,3,14,62,4,1,6,-200,left,824,2022-01-13_12h34.01.594,multiplicationStroop,2021.2.3,Win32,30.02552169,,,,,,,,,,,,,,,,,,,,,,,,,,,,,,,,,,,,,,,,,,,,,,,,,,,,,,,,,
,,,,left,1,0.4377,3,15,63,1,1,2,-200,left,824,2022-01-13_12h34.01.594,multiplicationStroop,2021.2.3,Win32,30.02552169,,,,,,,,,,,,,,,,,,,,,,,,,,,,,,,,,,,,,,,,,,,,,,,,,,,,,,,,,
,,,,,,,,,,,,,,,824,2022-01-13_12h34.01.594,multiplicationStroop,2021.2.3,Win32,30.02552169,space,14.1001,space,3.0316,left,1,5.1274,0,0,0,41,1,2,7,2 | 7,5,1.9756,1.4111,incongruent,left,,,,,,stimulusFile/physical.xlsx,,,,,,,,,,,,,,,,,,,,,,,,,,,,,,,
,,,,,,,,,,,,,,,824,2022-01-13_12h34.01.594,multiplicationStroop,2021.2.3,Win32,30.02552169,,,,,right,1,0.8123,0,1,1,65,1,2,2,2 | 2,0,1.4111,1.9756,neutral,right,,,,,,stimulusFile/physical.xlsx,,,,,,,,,,,,,,,,,,,,,,,,,,,,,,,
,,,,,,,,,,,,,,,824,2022-01-13_12h34.01.594,multiplicationStroop,2021.2.3,Win32,30.02552169,,,,,right,1,0.631,0,2,2,0,1,1,2,1 | 2,1,1.4111,1.9756,congruent,right,,,,,,stimulusFile/physical.xlsx,,,,,,,,,,,,,,,,,,,,,,,,,,,,,,,
,,,,,,,,,,,,,,,824,2022-01-13_12h34.01.594,multiplicationStroop,2021.2.3,Win32,30.02552169,,,,,left,1,0.5666,0,3,3,23,1,9,4,9 | 4,5,1.9756,1.4111,congruent,left,,,,,,stimulusFile/physical.xlsx,,,,,,,,,,,,,,,,,,,,,,,,,,,,,,,
,,,,,,,,,,,,,,,824,2022-01-13_12h34.01.594,multiplicationStroop,2021.2.3,Win32,30.02552169,,,,,right,1,0.6368,0,4,4,58,1,6,6,6 | 6,0,1.4111,1.9756,neutral,right,,,,,,stimulusFile/physical.xlsx,,,,,,,,,,,,,,,,,,,,,,,,,,,,,,,
,,,,,,,,,,,,,,,824,2022-01-13_12h34.01.594,multiplicationStroop,2021.2.3,Win32,30.02552169,,,,,left,0,0.7444,0,5,5,64,1,1,1,1 | 1,0,1.9756,1.4111,neutral,right,,,,,,stimulusFile/physical.xlsx,,,,,,,,,,,,,,,,,,,,,,,,,,,,,,,
,,,,,,,,,,,,,,,824,2022-01-13_12h34.01.594,multiplicationStroop,2021.2.3,Win32,30.02552169,,,,,left,1,0.6674,0,6,6,53,1,4,4,4 | 4,0,1.9756,1.4111,neutral,left,,,,,,stimulusFile/physical.xlsx,,,,,,,,,,,,,,,,,,,,,,,,,,,,,,,
,,,,,,,,,,,,,,,824,2022-01-13_12h34.01.594,multiplicationStroop,2021.2.3,Win32,30.02552169,,,,,right,1,0.5445,0,7,7,63,1,9,9,9 | 9,0,1.4111,1.9756,neutral,right,,,,,,stimulusFile/physical.xlsx,,,,,,,,,,,,,,,,,,,,,,,,,,,,,,,
,,,,,,,,,,,,,,,824,2022-01-13_12h34.01.594,multiplicationStroop,2021.2.3,Win32,30.02552169,,,,,left,0,0.6464,0,8,8,66,1,3,3,3 | 3,0,1.9756,1.4111,neutral,right,,,,,,stimulusFile/physical.xlsx,,,,,,,,,,,,,,,,,,,,,,,,,,,,,,,
,,,,,,,,,,,,,,,824,2022-01-13_12h34.01.594,multiplicationStroop,2021.2.3,Win32,30.02552169,,,,,left,1,0.7783,0,9,9,50,1,6,6,6 | 6,0,1.9756,1.4111,neutral,left,,,,,,stimulusFile/physical.xlsx,,,,,,,,,,,,,,,,,,,,,,,,,,,,,,,
,,,,,,,,,,,,,,,824,2022-01-13_12h34.01.594,multiplicationStroop,2021.2.3,Win32,30.02552169,,,,,right,1,0.6098,0,10,10,1,1,3,4,3 | 4,1,1.4111,1.9756,congruent,right,,,,,,stimulusFile/physical.xlsx,,,,,,,,,,,,,,,,,,,,,,,,,,,,,,,
,,,,,,,,,,,,,,,824,2022-01-13_12h34.01.594,multiplicationStroop,2021.2.3,Win32,30.02552169,,,,,right,0,0.6126,0,11,11,71,1,9,9,9 | 9,0,1.4111,1.9756,neutral,left,,,,,,stimulusFile/physical.xlsx,,,,,,,,,,,,,,,,,,,,,,,,,,,,,,,
,,,,,,,,,,,,,,,824,2022-01-13_12h34.01.594,multiplicationStroop,2021.2.3,Win32,30.02552169,,,,,left,1,0.6077,0,12,12,6,1,7,6,7 | 6,1,1.9756,1.4111,congruent,left,,,,,,stimulusFile/physical.xlsx,,,,,,,,,,,,,,,,,,,,,,,,,,,,,,,
,,,,,,,,,,,,,,,824,2022-01-13_12h34.01.594,multiplicationStroop,2021.2.3,Win32,30.02552169,,,,,right,1,0.5543,0,13,13,60,1,3,3,3 | 3,0,1.4111,1.9756,neutral,right,,,,,,stimulusFile/physical.xlsx,,,,,,,,,,,,,,,,,,,,,,,,,,,,,,,
,,,,,,,,,,,,,,,824,2022-01-13_12h34.01.594,multiplicationStroop,2021.2.3,Win32,30.02552169,,,,,left,1,0.5589,0,14,14,33,1,2,4,2 | 4,2,1.9756,1.4111,incongruent,left,,,,,,stimulusFile/physical.xlsx,,,,,,,,,,,,,,,,,,,,,,,,,,,,,,,
,,,,,,,,,,,,,,,824,2022-01-13_12h34.01.594,multiplicationStroop,2021.2.3,Win32,30.02552169,,,,,right,1,0.5975,0,15,15,47,1,9,4,9 | 4,5,1.4111,1.9756,incongruent,right,,,,,,stimulusFile/physical.xlsx,,,,,,,,,,,,,,,,,,,,,,,,,,,,,,,
,,,,,,,,,,,,,,,824,2022-01-13_12h34.01.594,multiplicationStroop,2021.2.3,Win32,30.02552169,,,,,left,1,0.6725,0,16,16,48,1,1,1,1 | 1,0,1.9756,1.4111,neutral,left,,,,,,stimulusFile/physical.xlsx,,,,,,,,,,,,,,,,,,,,,,,,,,,,,,,
,,,,,,,,,,,,,,,824,2022-01-13_12h34.01.594,multiplicationStroop,2021.2.3,Win32,30.02552169,,,,,right,1,0.5982,0,17,17,38,1,8,6,8 | 6,2,1.4111,1.9756,incongruent,right,,,,,,stimulusFile/physical.xlsx,,,,,,,,,,,,,,,,,,,,,,,,,,,,,,,
,,,,,,,,,,,,,,,824,2022-01-13_12h34.01.594,multiplicationStroop,2021.2.3,Win32,30.02552169,,,,,left,1,0.7881,0,18,18,68,1,6,6,6 | 6,0,1.9756,1.4111,neutral,left,,,,,,stimulusFile/physical.xlsx,,,,,,,,,,,,,,,,,,,,,,,,,,,,,,,
,,,,,,,,,,,,,,,824,2022-01-13_12h34.01.594,multiplicationStroop,2021.2.3,Win32,30.02552169,,,,,right,1,0.5486,0,19,19,17,1,2,7,2 | 7,5,1.4111,1.9756,congruent,right,,,,,,stimulusFile/physical.xlsx,,,,,,,,,,,,,,,,,,,,,,,,,,,,,,,
,,,,,,,,,,,,,,,824,2022-01-13_12h34.01.594,multiplicationStroop,2021.2.3,Win32,30.02552169,,,,,right,1,0.6296,0,20,20,62,1,8,8,8 | 8,0,1.4111,1.9756,neutral,right,,,,,,stimulusFile/physical.xlsx,,,,,,,,,,,,,,,,,,,,,,,,,,,,,,,
,,,,,,,,,,,,,,,824,2022-01-13_12h34.01.594,multiplicationStroop,2021.2.3,Win32,30.02552169,,,,,left,1,0.5818,0,21,21,5,1,4,3,4 | 3,1,1.9756,1.4111,congruent,left,,,,,,stimulusFile/physical.xlsx,,,,,,,,,,,,,,,,,,,,,,,,,,,,,,,
,,,,,,,,,,,,,,,824,2022-01-13_12h34.01.594,multiplicationStroop,2021.2.3,Win32,30.02552169,,,,,left,1,0.6683,0,22,22,24,1,1,2,1 | 2,1,1.9756,1.4111,incongruent,left,,,,,,stimulusFile/physical.xlsx,,,,,,,,,,,,,,,,,,,,,,,,,,,,,,,
,,,,,,,,,,,,,,,824,2022-01-13_12h34.01.594,multiplicationStroop,2021.2.3,Win32,30.02552169,,,,,left,1,0.488,0,23,23,22,1,8,3,8 | 3,5,1.9756,1.4111,congruent,left,,,,,,stimulusFile/physical.xlsx,,,,,,,,,,,,,,,,,,,,,,,,,,,,,,,
,,,,,,,,,,,,,,,824,2022-01-13_12h34.01.594,multiplicationStroop,2021.2.3,Win32,30.02552169,,,,,left,1,0.6646,0,24,24,52,1,2,2,2 | 2,0,1.9756,1.4111,neutral,left,,,,,,stimulusFile/physical.xlsx,,,,,,,,,,,,,,,,,,,,,,,,,,,,,,,
,,,,,,,,,,,,,,,824,2022-01-13_12h34.01.594,multiplicationStroop,2021.2.3,Win32,30.02552169,,,,,right,1,0.5685,0,25,25,11,1,7,9,7 | 9,2,1.4111,1.9756,congruent,right,,,,,,stimulusFile/physical.xlsx,,,,,,,,,,,,,,,,,,,,,,,,,,,,,,,
,,,,,,,,,,,,,,,824,2022-01-13_12h34.01.594,multiplicationStroop,2021.2.3,Win32,30.02552169,,,,,right,1,0.7185,0,26,26,31,1,9,8,9 | 8,1,1.4111,1.9756,incongruent,right,,,,,,stimulusFile/physical.xlsx,,,,,,,,,,,,,,,,,,,,,,,,,,,,,,,
,,,,,,,,,,,,,,,824,2022-01-13_12h34.01.594,multiplicationStroop,2021.2.3,Win32,30.02552169,,,,,right,1,0.83,0,27,27,9,1,2,4,2 | 4,2,1.4111,1.9756,congruent,right,,,,,,stimulusFile/physical.xlsx,,,,,,,,,,,,,,,,,,,,,,,,,,,,,,,
,,,,,,,,,,,,,,,824,2022-01-13_12h34.01.594,multiplicationStroop,2021.2.3,Win32,30.02552169,,,,,left,1,0.658,0,28,28,13,1,4,2,4 | 2,2,1.9756,1.4111,congruent,left,,,,,,stimulusFile/physical.xlsx,,,,,,,,,,,,,,,,,,,,,,,,,,,,,,,
,,,,,,,,,,,,,,,824,2022-01-13_12h34.01.594,multiplicationStroop,2021.2.3,Win32,30.02552169,,,,,right,1,0.6876,0,29,29,36,1,3,1,3 | 1,2,1.4111,1.9756,incongruent,right,,,,,,stimulusFile/physical.xlsx,,,,,,,,,,,,,,,,,,,,,,,,,,,,,,,
,,,,,,,,,,,,,,,824,2022-01-13_12h34.01.594,multiplicationStroop,2021.2.3,Win32,30.02552169,,,,,left,1,0.8613,0,30,30,40,1,1,6,1 | 6,5,1.9756,1.4111,incongruent,left,,,,,,stimulusFile/physical.xlsx,,,,,,,,,,,,,,,,,,,,,,,,,,,,,,,
,,,,,,,,,,,,,,,824,2022-01-13_12h34.01.594,multiplicationStroop,2021.2.3,Win32,30.02552169,,,,,right,1,0.6107,0,31,31,39,1,9,7,9 | 7,2,1.4111,1.9756,incongruent,right,,,,,,stimulusFile/physical.xlsx,,,,,,,,,,,,,,,,,,,,,,,,,,,,,,,
,,,,,,,,,,,,,,,824,2022-01-13_12h34.01.594,multiplicationStroop,2021.2.3,Win32,30.02552169,,,,,left,1,0.6752,0,32,32,14,1,8,6,8 | 6,2,1.9756,1.4111,congruent,left,,,,,,stimulusFile/physical.xlsx,,,,,,,,,,,,,,,,,,,,,,,,,,,,,,,
,,,,,,,,,,,,,,,824,2022-01-13_12h34.01.594,multiplicationStroop,2021.2.3,Win32,30.02552169,,,,,right,1,0.7261,0,33,33,30,1,7,6,7 | 6,1,1.4111,1.9756,incongruent,right,,,,,,stimulusFile/physical.xlsx,,,,,,,,,,,,,,,,,,,,,,,,,,,,,,,
,,,,,,,,,,,,,,,824,2022-01-13_12h34.01.594,multiplicationStroop,2021.2.3,Win32,30.02552169,,,,,right,1,0.7336,0,34,34,67,1,4,4,4 | 4,0,1.4111,1.9756,neutral,right,,,,,,stimulusFile/physical.xlsx,,,,,,,,,,,,,,,,,,,,,,,,,,,,,,,
,,,,,,,,,,,,,,,824,2022-01-13_12h34.01.594,multiplicationStroop,2021.2.3,Win32,30.02552169,,,,,left,1,0.6115,0,35,35,34,1,6,8,6 | 8,2,1.9756,1.4111,incongruent,left,,,,,,stimulusFile/physical.xlsx,,,,,,,,,,,,,,,,,,,,,,,,,,,,,,,
,,,,,,,,,,,,,,,824,2022-01-13_12h34.01.594,multiplicationStroop,2021.2.3,Win32,30.02552169,,,,,left,1,0.6128,0,36,36,70,1,8,8,8 | 8,0,1.9756,1.4111,neutral,left,,,,,,stimulusFile/physical.xlsx,,,,,,,,,,,,,,,,,,,,,,,,,,,,,,,
,,,,,,,,,,,,,,,824,2022-01-13_12h34.01.594,multiplicationStroop,2021.2.3,Win32,30.02552169,,,,,right,1,0.5347,0,37,37,10,1,6,8,6 | 8,2,1.4111,1.9756,congruent,right,,,,,,stimulusFile/physical.xlsx,,,,,,,,,,,,,,,,,,,,,,,,,,,,,,,
,,,,,,,,,,,,,,,824,2022-01-13_12h34.01.594,multiplicationStroop,2021.2.3,Win32,30.02552169,,,,,right,0,0.5922,0,38,38,69,1,7,7,7 | 7,0,1.4111,1.9756,neutral,left,,,,,,stimulusFile/physical.xlsx,,,,,,,,,,,,,,,,,,,,,,,,,,,,,,,
,,,,,,,,,,,,,,,824,2022-01-13_12h34.01.594,multiplicationStroop,2021.2.3,Win32,30.02552169,,,,,right,1,0.6213,0,39,39,56,1,1,1,1 | 1,0,1.4111,1.9756,neutral,right,,,,,,stimulusFile/physical.xlsx,,,,,,,,,,,,,,,,,,,,,,,,,,,,,,,
,,,,,,,,,,,,,,,824,2022-01-13_12h34.01.594,multiplicationStroop,2021.2.3,Win32,30.02552169,,,,,left,1,0.5966,0,40,40,51,1,8,8,8 | 8,0,1.9756,1.4111,neutral,left,,,,,,stimulusFile/physical.xlsx,,,,,,,,,,,,,,,,,,,,,,,,,,,,,,,
,,,,,,,,,,,,,,,824,2022-01-13_12h34.01.594,multiplicationStroop,2021.2.3,Win32,30.02552169,,,,,left,1,0.6841,0,41,41,42,1,3,8,3 | 8,5,1.9756,1.4111,incongruent,left,,,,,,stimulusFile/physical.xlsx,,,,,,,,,,,,,,,,,,,,,,,,,,,,,,,
,,,,,,,,,,,,,,,824,2022-01-13_12h34.01.594,multiplicationStroop,2021.2.3,Win32,30.02552169,,,,,right,1,0.6422,0,42,42,28,1,2,1,2 | 1,1,1.4111,1.9756,incongruent,right,,,,,,stimulusFile/physical.xlsx,,,,,,,,,,,,,,,,,,,,,,,,,,,,,,,
,,,,,,,,,,,,,,,824,2022-01-13_12h34.01.594,multiplicationStroop,2021.2.3,Win32,30.02552169,,,,,left,1,0.5854,0,43,43,4,1,2,1,2 | 1,1,1.9756,1.4111,congruent,left,,,,,,stimulusFile/physical.xlsx,,,,,,,,,,,,,,,,,,,,,,,,,,,,,,,
,,,,,,,,,,,,,,,824,2022-01-13_12h34.01.594,multiplicationStroop,2021.2.3,Win32,30.02552169,,,,,left,1,0.6058,0,44,44,32,1,1,3,1 | 3,2,1.9756,1.4111,incongruent,left,,,,,,stimulusFile/physical.xlsx,,,,,,,,,,,,,,,,,,,,,,,,,,,,,,,
,,,,,,,,,,,,,,,824,2022-01-13_12h34.01.594,multiplicationStroop,2021.2.3,Win32,30.02552169,,,,,left,1,0.5642,0,45,45,12,1,3,1,3 | 1,2,1.9756,1.4111,congruent,left,,,,,,stimulusFile/physical.xlsx,,,,,,,,,,,,,,,,,,,,,,,,,,,,,,,
,,,,,,,,,,,,,,,824,2022-01-13_12h34.01.594,multiplicationStroop,2021.2.3,Win32,30.02552169,,,,,left,1,0.6569,0,46,46,55,1,9,9,9 | 9,0,1.9756,1.4111,neutral,left,,,,,,stimulusFile/physical.xlsx,,,,,,,,,,,,,,,,,,,,,,,,,,,,,,,
,,,,,,,,,,,,,,,824,2022-01-13_12h34.01.594,multiplicationStroop,2021.2.3,Win32,30.02552169,,,,,right,1,0.6568,0,47,47,37,1,4,2,4 | 2,2,1.4111,1.9756,incongruent,right,,,,,,stimulusFile/physical.xlsx,,,,,,,,,,,,,,,,,,,,,,,,,,,,,,,
,,,,,,,,,,,,,,,824,2022-01-13_12h34.01.594,multiplicationStroop,2021.2.3,Win32,30.02552169,,,,,left,1,0.6092,0,48,48,7,1,9,8,9 | 8,1,1.9756,1.4111,congruent,left,,,,,,stimulusFile/physical.xlsx,,,,,,,,,,,,,,,,,,,,,,,,,,,,,,,
,,,,,,,,,,,,,,,824,2022-01-13_12h34.01.594,multiplicationStroop,2021.2.3,Win32,30.02552169,,,,,left,1,0.5046,0,49,49,49,1,3,3,3 | 3,0,1.9756,1.4111,neutral,left,,,,,,stimulusFile/physical.xlsx,,,,,,,,,,,,,,,,,,,,,,,,,,,,,,,
,,,,,,,,,,,,,,,824,2022-01-13_12h34.01.594,multiplicationStroop,2021.2.3,Win32,30.02552169,,,,,left,1,0.754,0,50,50,54,1,7,7,7 | 7,0,1.9756,1.4111,neutral,left,,,,,,stimulusFile/physical.xlsx,,,,,,,,,,,,,,,,,,,,,,,,,,,,,,,
,,,,,,,,,,,,,,,824,2022-01-13_12h34.01.594,multiplicationStroop,2021.2.3,Win32,30.02552169,,,,,right,1,0.5914,0,51,51,61,1,4,4,4 | 4,0,1.4111,1.9756,neutral,right,,,,,,stimulusFile/physical.xlsx,,,,,,,,,,,,,,,,,,,,,,,,,,,,,,,
,,,,,,,,,,,,,,,824,2022-01-13_12h34.01.594,multiplicationStroop,2021.2.3,Win32,30.02552169,,,,,right,1,0.6342,0,52,52,57,1,2,2,2 | 2,0,1.4111,1.9756,neutral,right,,,,,,stimulusFile/physical.xlsx,,,,,,,,,,,,,,,,,,,,,,,,,,,,,,,
,,,,,,,,,,,,,,,824,2022-01-13_12h34.01.594,multiplicationStroop,2021.2.3,Win32,30.02552169,,,,,right,1,0.6921,0,53,53,46,1,8,3,8 | 3,5,1.4111,1.9756,incongruent,right,,,,,,stimulusFile/physical.xlsx,,,,,,,,,,,,,,,,,,,,,,,,,,,,,,,
,,,,,,,,,,,,,,,824,2022-01-13_12h34.01.594,multiplicationStroop,2021.2.3,Win32,30.02552169,,,,,right,1,0.5325,0,54,54,3,1,8,9,8 | 9,1,1.4111,1.9756,congruent,right,,,,,,stimulusFile/physical.xlsx,,,,,,,,,,,,,,,,,,,,,,,,,,,,,,,
,,,,,,,,,,,,,,,824,2022-01-13_12h34.01.594,multiplicationStroop,2021.2.3,Win32,30.02552169,,,,,right,1,0.6403,0,55,55,16,1,1,6,1 | 6,5,1.4111,1.9756,congruent,right,,,,,,stimulusFile/physical.xlsx,,,,,,,,,,,,,,,,,,,,,,,,,,,,,,,
,,,,,,,,,,,,,,,824,2022-01-13_12h34.01.594,multiplicationStroop,2021.2.3,Win32,30.02552169,,,,,right,1,0.4991,0,56,56,8,1,1,3,1 | 3,2,1.4111,1.9756,congruent,right,,,,,,stimulusFile/physical.xlsx,,,,,,,,,,,,,,,,,,,,,,,,,,,,,,,
,,,,,,,,,,,,,,,824,2022-01-13_12h34.01.594,multiplicationStroop,2021.2.3,Win32,30.02552169,,,,,left,1,0.6166,0,57,57,26,1,6,7,6 | 7,1,1.9756,1.4111,incongruent,left,,,,,,stimulusFile/physical.xlsx,,,,,,,,,,,,,,,,,,,,,,,,,,,,,,,
,,,,,,,,,,,,,,,824,2022-01-13_12h34.01.594,multiplicationStroop,2021.2.3,Win32,30.02552169,,,,,left,1,0.6785,0,58,58,43,1,4,9,4 | 9,5,1.9756,1.4111,incongruent,left,,,,,,stimulusFile/physical.xlsx,,,,,,,,,,,,,,,,,,,,,,,,,,,,,,,
,,,,,,,,,,,,,,,824,2022-01-13_12h34.01.594,multiplicationStroop,2021.2.3,Win32,30.02552169,,,,,right,1,0.5827,0,59,59,19,1,4,9,4 | 9,5,1.4111,1.9756,congruent,right,,,,,,stimulusFile/physical.xlsx,,,,,,,,,,,,,,,,,,,,,,,,,,,,,,,
,,,,,,,,,,,,,,,824,2022-01-13_12h34.01.594,multiplicationStroop,2021.2.3,Win32,30.02552169,,,,,left,1,0.569,0,60,60,15,1,9,7,9 | 7,2,1.9756,1.4111,congruent,left,,,,,,stimulusFile/physical.xlsx,,,,,,,,,,,,,,,,,,,,,,,,,,,,,,,
,,,,,,,,,,,,,,,824,2022-01-13_12h34.01.594,multiplicationStroop,2021.2.3,Win32,30.02552169,,,,,right,1,0.7088,0,61,61,45,1,7,2,7 | 2,5,1.4111,1.9756,incongruent,right,,,,,,stimulusFile/physical.xlsx,,,,,,,,,,,,,,,,,,,,,,,,,,,,,,,
,,,,,,,,,,,,,,,824,2022-01-13_12h34.01.594,multiplicationStroop,2021.2.3,Win32,30.02552169,,,,,left,1,0.4874,0,62,62,21,1,7,2,7 | 2,5,1.9756,1.4111,congruent,left,,,,,,stimulusFile/physical.xlsx,,,,,,,,,,,,,,,,,,,,,,,,,,,,,,,
,,,,,,,,,,,,,,,824,2022-01-13_12h34.01.594,multiplicationStroop,2021.2.3,Win32,30.02552169,,,,,left,1,0.6386,0,63,63,27,1,8,9,8 | 9,1,1.9756,1.4111,incongruent,left,,,,,,stimulusFile/physical.xlsx,,,,,,,,,,,,,,,,,,,,,,,,,,,,,,,
,,,,,,,,,,,,,,,824,2022-01-13_12h34.01.594,multiplicationStroop,2021.2.3,Win32,30.02552169,,,,,right,1,0.5655,0,64,64,44,1,6,1,6 | 1,5,1.4111,1.9756,incongruent,right,,,,,,stimulusFile/physical.xlsx,,,,,,,,,,,,,,,,,,,,,,,,,,,,,,,
,,,,,,,,,,,,,,,824,2022-01-13_12h34.01.594,multiplicationStroop,2021.2.3,Win32,30.02552169,,,,,left,1,0.5727,0,65,65,25,1,3,4,3 | 4,1,1.9756,1.4111,incongruent,left,,,,,,stimulusFile/physical.xlsx,,,,,,,,,,,,,,,,,,,,,,,,,,,,,,,
,,,,,,,,,,,,,,,824,2022-01-13_12h34.01.594,multiplicationStroop,2021.2.3,Win32,30.02552169,,,,,right,1,0.5898,0,66,66,59,1,7,7,7 | 7,0,1.4111,1.9756,neutral,right,,,,,,stimulusFile/physical.xlsx,,,,,,,,,,,,,,,,,,,,,,,,,,,,,,,
,,,,,,,,,,,,,,,824,2022-01-13_12h34.01.594,multiplicationStroop,2021.2.3,Win32,30.02552169,,,,,right,1,0.6131,0,67,67,18,1,3,8,3 | 8,5,1.4111,1.9756,congruent,right,,,,,,stimulusFile/physical.xlsx,,,,,,,,,,,,,,,,,,,,,,,,,,,,,,,
,,,,,,,,,,,,,,,824,2022-01-13_12h34.01.594,multiplicationStroop,2021.2.3,Win32,30.02552169,,,,,right,1,0.541,0,68,68,29,1,4,3,4 | 3,1,1.4111,1.9756,incongruent,right,,,,,,stimulusFile/physical.xlsx,,,,,,,,,,,,,,,,,,,,,,,,,,,,,,,
,,,,,,,,,,,,,,,824,2022-01-13_12h34.01.594,multiplicationStroop,2021.2.3,Win32,30.02552169,,,,,left,1,0.6242,0,69,69,20,1,6,1,6 | 1,5,1.9756,1.4111,congruent,left,,,,,,stimulusFile/physical.xlsx,,,,,,,,,,,,,,,,,,,,,,,,,,,,,,,
,,,,,,,,,,,,,,,824,2022-01-13_12h34.01.594,multiplicationStroop,2021.2.3,Win32,30.02552169,,,,,left,1,0.6362,0,70,70,35,1,7,9,7 | 9,2,1.9756,1.4111,incongruent,left,,,,,,stimulusFile/physical.xlsx,,,,,,,,,,,,,,,,,,,,,,,,,,,,,,,
,,,,,,,,,,,,,,,824,2022-01-13_12h34.01.594,multiplicationStroop,2021.2.3,Win32,30.02552169,,,,,right,1,0.5277,0,71,71,2,1,6,7,6 | 7,1,1.4111,1.9756,congruent,right,,,,,,stimulusFile/physical.xlsx,,,,,,,,,,,,,,,,,,,,,,,,,,,,,,,
,,,,,,,,,,,,,,,824,2022-01-13_12h34.01.594,multiplicationStroop,2021.2.3,Win32,30.02552169,,,,,,,,,,,,,,,,,,,,,0,0,0,1,1,stimulusFile/physical.xlsx,PHYSICALLY larger.,images/physicallyLarger.png,,,,,,,,,,,,,,,,,,,,,,,,,,,,,
,,,,,,,,,,,,,,,824,2022-01-13_12h34.01.594,multiplicationStroop,2021.2.3,Win32,30.02552169,space,4.9832,space,2.5732,right,1,1.0764,0,0,0,35,1,7,9,7 | 9,2,1.9756,1.4111,incongruent,right,,,,,,stimulusFile/magnitude.xlsx,,,,,,,,,,,,,,,,,,,,,,,,,,,,,,,
,,,,,,,,,,,,,,,824,2022-01-13_12h34.01.594,multiplicationStroop,2021.2.3,Win32,30.02552169,,,,,right,1,0.7864,0,1,1,33,1,2,4,2 | 4,2,1.9756,1.4111,incongruent,right,,,,,,stimulusFile/magnitude.xlsx,,,,,,,,,,,,,,,,,,,,,,,,,,,,,,,
,,,,,,,,,,,,,,,824,2022-01-13_12h34.01.594,multiplicationStroop,2021.2.3,Win32,30.02552169,,,,,right,1,0.6475,0,2,2,10,1,6,8,6 | 8,2,1.4111,1.9756,congruent,right,,,,,,stimulusFile/magnitude.xlsx,,,,,,,,,,,,,,,,,,,,,,,,,,,,,,,
,,,,,,,,,,,,,,,824,2022-01-13_12h34.01.594,multiplicationStroop,2021.2.3,Win32,30.02552169,,,,,left,1,0.6652,0,3,3,62,1,8,6,8 | 6,2,1.6933,1.6933,neutral,left,,,,,,stimulusFile/magnitude.xlsx,,,,,,,,,,,,,,,,,,,,,,,,,,,,,,,
,,,,,,,,,,,,,,,824,2022-01-13_12h34.01.594,multiplicationStroop,2021.2.3,Win32,30.02552169,,,,,right,1,0.529,0,4,4,66,1,3,8,3 | 8,5,1.6933,1.6933,neutral,right,,,,,,stimulusFile/magnitude.xlsx,,,,,,,,,,,,,,,,,,,,,,,,,,,,,,,
,,,,,,,,,,,,,,,824,2022-01-13_12h34.01.594,multiplicationStroop,2021.2.3,Win32,30.02552169,,,,,left,1,0.627,0,5,5,31,1,9,8,9 | 8,1,1.4111,1.9756,incongruent,left,,,,,,stimulusFile/magnitude.xlsx,,,,,,,,,,,,,,,,,,,,,,,,,,,,,,,
,,,,,,,,,,,,,,,824,2022-01-13_12h34.01.594,multiplicationStroop,2021.2.3,Win32,30.02552169,,,,,left,1,0.5513,0,6,6,7,1,9,8,9 | 8,1,1.9756,1.4111,congruent,left,,,,,,stimulusFile/magnitude.xlsx,,,,,,,,,,,,,,,,,,,,,,,,,,,,,,,
,,,,,,,,,,,,,,,824,2022-01-13_12h34.01.594,multiplicationStroop,2021.2.3,Win32,30.02552169,,,,,left,1,0.6613,0,7,7,29,1,4,3,4 | 3,1,1.4111,1.9756,incongruent,left,,,,,,stimulusFile/magnitude.xlsx,,,,,,,,,,,,,,,,,,,,,,,,,,,,,,,
,,,,,,,,,,,,,,,824,2022-01-13_12h34.01.594,multiplicationStroop,2021.2.3,Win32,30.02552169,,,,,left,1,0.6369,0,8,8,52,1,2,1,2 | 1,1,1.6933,1.6933,neutral,left,,,,,,stimulusFile/magnitude.xlsx,,,,,,,,,,,,,,,,,,,,,,,,,,,,,,,
,,,,,,,,,,,,,,,824,2022-01-13_12h34.01.594,multiplicationStroop,2021.2.3,Win32,30.02552169,,,,,left,1,0.7121,0,9,9,63,1,9,7,9 | 7,2,1.6933,1.6933,neutral,left,,,,,,stimulusFile/magnitude.xlsx,,,,,,,,,,,,,,,,,,,,,,,,,,,,,,,
,,,,,,,,,,,,,,,824,2022-01-13_12h34.01.594,multiplicationStroop,2021.2.3,Win32,30.02552169,,,,,right,1,0.6335,0,10,10,43,1,4,9,4 | 9,5,1.9756,1.4111,incongruent,right,,,,,,stimulusFile/magnitude.xlsx,,,,,,,,,,,,,,,,,,,,,,,,,,,,,,,
,,,,,,,,,,,,,,,824,2022-01-13_12h34.01.594,multiplicationStroop,2021.2.3,Win32,30.02552169,,,,,right,1,0.6182,0,11,11,18,1,3,8,3 | 8,5,1.4111,1.9756,congruent,right,,,,,,stimulusFile/magnitude.xlsx,,,,,,,,,,,,,,,,,,,,,,,,,,,,,,,
,,,,,,,,,,,,,,,824,2022-01-13_12h34.01.594,multiplicationStroop,2021.2.3,Win32,30.02552169,,,,,left,1,0.6884,0,12,12,14,1,8,6,8 | 6,2,1.9756,1.4111,congruent,left,,,,,,stimulusFile/magnitude.xlsx,,,,,,,,,,,,,,,,,,,,,,,,,,,,,,,
,,,,,,,,,,,,,,,824,2022-01-13_12h34.01.594,multiplicationStroop,2021.2.3,Win32,30.02552169,,,,,right,1,0.5723,0,13,13,3,1,8,9,8 | 9,1,1.4111,1.9756,congruent,right,,,,,,stimulusFile/magnitude.xlsx,,,,,,,,,,,,,,,,,,,,,,,,,,,,,,,
,,,,,,,,,,,,,,,824,2022-01-13_12h34.01.594,multiplicationStroop,2021.2.3,Win32,30.02552169,,,,,left,1,0.6021,0,14,14,37,1,4,2,4 | 2,2,1.4111,1.9756,incongruent,left,,,,,,stimulusFile/magnitude.xlsx,,,,,,,,,,,,,,,,,,,,,,,,,,,,,,,
,,,,,,,,,,,,,,,824,2022-01-13_12h34.01.594,multiplicationStroop,2021.2.3,Win32,30.02552169,,,,,right,1,0.6097,0,15,15,17,1,2,7,2 | 7,5,1.4111,1.9756,congruent,right,,,,,,stimulusFile/magnitude.xlsx,,,,,,,,,,,,,,,,,,,,,,,,,,,,,,,
,,,,,,,,,,,,,,,824,2022-01-13_12h34.01.594,multiplicationStroop,2021.2.3,Win32,30.02552169,,,,,left,1,0.6031,0,16,16,44,1,6,1,6 | 1,5,1.4111,1.9756,incongruent,left,,,,,,stimulusFile/magnitude.xlsx,,,,,,,,,,,,,,,,,,,,,,,,,,,,,,,
,,,,,,,,,,,,,,,824,2022-01-13_12h34.01.594,multiplicationStroop,2021.2.3,Win32,30.02552169,,,,,right,1,0.5754,0,17,17,67,1,4,9,4 | 9,5,1.6933,1.6933,neutral,right,,,,,,stimulusFile/magnitude.xlsx,,,,,,,,,,,,,,,,,,,,,,,,,,,,,,,
,,,,,,,,,,,,,,,824,2022-01-13_12h34.01.594,multiplicationStroop,2021.2.3,Win32,30.02552169,,,,,left,1,0.5696,0,18,18,23,1,9,4,9 | 4,5,1.9756,1.4111,congruent,left,,,,,,stimulusFile/magnitude.xlsx,,,,,,,,,,,,,,,,,,,,,,,,,,,,,,,
,,,,,,,,,,,,,,,824,2022-01-13_12h34.01.594,multiplicationStroop,2021.2.3,Win32,30.02552169,,,,,right,1,0.5177,0,19,19,19,1,4,9,4 | 9,5,1.4111,1.9756,congruent,right,,,,,,stimulusFile/magnitude.xlsx,,,,,,,,,,,,,,,,,,,,,,,,,,,,,,,
,,,,,,,,,,,,,,,824,2022-01-13_12h34.01.594,multiplicationStroop,2021.2.3,Win32,30.02552169,,,,,left,1,0.7154,0,20,20,28,1,2,1,2 | 1,1,1.4111,1.9756,incongruent,left,,,,,,stimulusFile/magnitude.xlsx,,,,,,,,,,,,,,,,,,,,,,,,,,,,,,,
,,,,,,,,,,,,,,,824,2022-01-13_12h34.01.594,multiplicationStroop,2021.2.3,Win32,30.02552169,,,,,left,1,0.6757,0,21,21,55,1,9,8,9 | 8,1,1.6933,1.6933,neutral,left,,,,,,stimulusFile/magnitude.xlsx,,,,,,,,,,,,,,,,,,,,,,,,,,,,,,,
,,,,,,,,,,,,,,,824,2022-01-13_12h34.01.594,multiplicationStroop,2021.2.3,Win32,30.02552169,,,,,left,1,0.5979,0,22,22,53,1,4,3,4 | 3,1,1.6933,1.6933,neutral,left,,,,,,stimulusFile/magnitude.xlsx,,,,,,,,,,,,,,,,,,,,,,,,,,,,,,,
,,,,,,,,,,,,,,,824,2022-01-13_12h34.01.594,multiplicationStroop,2021.2.3,Win32,30.02552169,,,,,left,1,0.5952,0,23,23,12,1,3,1,3 | 1,2,1.9756,1.4111,congruent,left,,,,,,stimulusFile/magnitude.xlsx,,,,,,,,,,,,,,,,,,,,,,,,,,,,,,,
,,,,,,,,,,,,,,,824,2022-01-13_12h34.01.594,multiplicationStroop,2021.2.3,Win32,30.02552169,,,,,left,1,0.6999,0,24,24,47,1,9,4,9 | 4,5,1.4111,1.9756,incongruent,left,,,,,,stimulusFile/magnitude.xlsx,,,,,,,,,,,,,,,,,,,,,,,,,,,,,,,
,,,,,,,,,,,,,,,824,2022-01-13_12h34.01.594,multiplicationStroop,2021.2.3,Win32,30.02552169,,,,,right,1,0.7053,0,25,25,34,1,6,8,6 | 8,2,1.9756,1.4111,incongruent,right,,,,,,stimulusFile/magnitude.xlsx,,,,,,,,,,,,,,,,,,,,,,,,,,,,,,,
,,,,,,,,,,,,,,,824,2022-01-13_12h34.01.594,multiplicationStroop,2021.2.3,Win32,30.02552169,,,,,left,1,0.5455,0,26,26,20,1,6,1,6 | 1,5,1.9756,1.4111,congruent,left,,,,,,stimulusFile/magnitude.xlsx,,,,,,,,,,,,,,,,,,,,,,,,,,,,,,,
,,,,,,,,,,,,,,,824,2022-01-13_12h34.01.594,multiplicationStroop,2021.2.3,Win32,30.02552169,,,,,left,1,0.861,0,27,27,15,1,9,7,9 | 7,2,1.9756,1.4111,congruent,left,,,,,,stimulusFile/magnitude.xlsx,,,,,,,,,,,,,,,,,,,,,,,,,,,,,,,
,,,,,,,,,,,,,,,824,2022-01-13_12h34.01.594,multiplicationStroop,2021.2.3,Win32,30.02552169,,,,,left,1,0.6528,0,28,28,36,1,3,1,3 | 1,2,1.4111,1.9756,incongruent,left,,,,,,stimulusFile/magnitude.xlsx,,,,,,,,,,,,,,,,,,,,,,,,,,,,,,,
,,,,,,,,,,,,,,,824,2022-01-13_12h34.01.594,multiplicationStroop,2021.2.3,Win32,30.02552169,,,,,left,1,0.5668,0,29,29,4,1,2,1,2 | 1,1,1.9756,1.4111,congruent,left,,,,,,stimulusFile/magnitude.xlsx,,,,,,,,,,,,,,,,,,,,,,,,,,,,,,,
,,,,,,,,,,,,,,,824,2022-01-13_12h34.01.594,multiplicationStroop,2021.2.3,Win32,30.02552169,,,,,right,1,0.7404,0,30,30,40,1,1,6,1 | 6,5,1.9756,1.4111,incongruent,right,,,,,,stimulusFile/magnitude.xlsx,,,,,,,,,,,,,,,,,,,,,,,,,,,,,,,
,,,,,,,,,,,,,,,824,2022-01-13_12h34.01.594,multiplicationStroop,2021.2.3,Win32,30.02552169,,,,,right,1,0.6604,0,31,31,59,1,7,9,7 | 9,2,1.6933,1.6933,neutral,right,,,,,,stimulusFile/magnitude.xlsx,,,,,,,,,,,,,,,,,,,,,,,,,,,,,,,
,,,,,,,,,,,,,,,824,2022-01-13_12h34.01.594,multiplicationStroop,2021.2.3,Win32,30.02552169,,,,,left,1,0.6382,0,32,32,61,1,4,2,4 | 2,2,1.6933,1.6933,neutral,left,,,,,,stimulusFile/magnitude.xlsx,,,,,,,,,,,,,,,,,,,,,,,,,,,,,,,
,,,,,,,,,,,,,,,824,2022-01-13_12h34.01.594,multiplicationStroop,2021.2.3,Win32,30.02552169,,,,,left,1,0.5424,0,33,33,69,1,7,2,7 | 2,5,1.6933,1.6933,neutral,left,,,,,,stimulusFile/magnitude.xlsx,,,,,,,,,,,,,,,,,,,,,,,,,,,,,,,
,,,,,,,,,,,,,,,824,2022-01-13_12h34.01.594,multiplicationStroop,2021.2.3,Win32,30.02552169,,,,,left,1,0.5557,0,34,34,21,1,7,2,7 | 2,5,1.9756,1.4111,congruent,left,,,,,,stimulusFile/magnitude.xlsx,,,,,,,,,,,,,,,,,,,,,,,,,,,,,,,
,,,,,,,,,,,,,,,824,2022-01-13_12h34.01.594,multiplicationStroop,2021.2.3,Win32,30.02552169,,,,,right,1,0.5613,0,35,35,64,1,1,6,1 | 6,5,1.6933,1.6933,neutral,right,,,,,,stimulusFile/magnitude.xlsx,,,,,,,,,,,,,,,,,,,,,,,,,,,,,,,
,,,,,,,,,,,,,,,824,2022-01-13_12h34.01.594,multiplicationStroop,2021.2.3,Win32,30.02552169,,,,,right,1,0.576,0,36,36,1,1,3,4,3 | 4,1,1.4111,1.9756,congruent,right,,,,,,stimulusFile/magnitude.xlsx,,,,,,,,,,,,,,,,,,,,,,,,,,,,,,,
,,,,,,,,,,,,,,,824,2022-01-13_12h34.01.594,multiplicationStroop,2021.2.3,Win32,30.02552169,,,,,left,1,0.6095,0,37,37,54,1,7,6,7 | 6,1,1.6933,1.6933,neutral,left,,,,,,stimulusFile/magnitude.xlsx,,,,,,,,,,,,,,,,,,,,,,,,,,,,,,,
,,,,,,,,,,,,,,,824,2022-01-13_12h34.01.594,multiplicationStroop,2021.2.3,Win32,30.02552169,,,,,right,1,0.8163,0,38,38,25,1,3,4,3 | 4,1,1.9756,1.4111,incongruent,right,,,,,,stimulusFile/magnitude.xlsx,,,,,,,,,,,,,,,,,,,,,,,,,,,,,,,
,,,,,,,,,,,,,,,824,2022-01-13_12h34.01.594,multiplicationStroop,2021.2.3,Win32,30.02552169,,,,,right,1,0.6916,0,39,39,27,1,8,9,8 | 9,1,1.9756,1.4111,incongruent,right,,,,,,stimulusFile/magnitude.xlsx,,,,,,,,,,,,,,,,,,,,,,,,,,,,,,,
,,,,,,,,,,,,,,,824,2022-01-13_12h34.01.594,multiplicationStroop,2021.2.3,Win32,30.02552169,,,,,left,1,0.553,0,40,40,30,1,7,6,7 | 6,1,1.4111,1.9756,incongruent,left,,,,,,stimulusFile/magnitude.xlsx,,,,,,,,,,,,,,,,,,,,,,,,,,,,,,,
,,,,,,,,,,,,,,,824,2022-01-13_12h34.01.594,multiplicationStroop,2021.2.3,Win32,30.02552169,,,,,right,1,0.5557,0,41,41,11,1,7,9,7 | 9,2,1.4111,1.9756,congruent,right,,,,,,stimulusFile/magnitude.xlsx,,,,,,,,,,,,,,,,,,,,,,,,,,,,,,,
,,,,,,,,,,,,,,,824,2022-01-13_12h34.01.594,multiplicationStroop,2021.2.3,Win32,30.02552169,,,,,left,1,0.5517,0,42,42,13,1,4,2,4 | 2,2,1.9756,1.4111,congruent,left,,,,,,stimulusFile/magnitude.xlsx,,,,,,,,,,,,,,,,,,,,,,,,,,,,,,,
,,,,,,,,,,,,,,,824,2022-01-13_12h34.01.594,multiplicationStroop,2021.2.3,Win32,30.02552169,,,,,right,1,0.6498,0,43,43,26,1,6,7,6 | 7,1,1.9756,1.4111,incongruent,right,,,,,,stimulusFile/magnitude.xlsx,,,,,,,,,,,,,,,,,,,,,,,,,,,,,,,
,,,,,,,,,,,,,,,824,2022-01-13_12h34.01.594,multiplicationStroop,2021.2.3,Win32,30.02552169,,,,,left,1,0.65,0,44,44,68,1,6,1,6 | 1,5,1.6933,1.6933,neutral,left,,,,,,stimulusFile/magnitude.xlsx,,,,,,,,,,,,,,,,,,,,,,,,,,,,,,,
,,,,,,,,,,,,,,,824,2022-01-13_12h34.01.594,multiplicationStroop,2021.2.3,Win32,30.02552169,,,,,right,1,0.5951,0,45,45,2,1,6,7,6 | 7,1,1.4111,1.9756,congruent,right,,,,,,stimulusFile/magnitude.xlsx,,,,,,,,,,,,,,,,,,,,,,,,,,,,,,,
,,,,,,,,,,,,,,,824,2022-01-13_12h34.01.594,multiplicationStroop,2021.2.3,Win32,30.02552169,,,,,right,1,0.681,0,46,46,8,1,1,3,1 | 3,2,1.4111,1.9756,congruent,right,,,,,,stimulusFile/magnitude.xlsx,,,,,,,,,,,,,,,,,,,,,,,,,,,,,,,
,,,,,,,,,,,,,,,824,2022-01-13_12h34.01.594,multiplicationStroop,2021.2.3,Win32,30.02552169,,,,,left,1,0.53,0,47,47,5,1,4,3,4 | 3,1,1.9756,1.4111,congruent,left,,,,,,stimulusFile/magnitude.xlsx,,,,,,,,,,,,,,,,,,,,,,,,,,,,,,,
,,,,,,,,,,,,,,,824,2022-01-13_12h34.01.594,multiplicationStroop,2021.2.3,Win32,30.02552169,,,,,left,1,0.6344,0,48,48,46,1,8,3,8 | 3,5,1.4111,1.9756,incongruent,left,,,,,,stimulusFile/magnitude.xlsx,,,,,,,,,,,,,,,,,,,,,,,,,,,,,,,
,,,,,,,,,,,,,,,824,2022-01-13_12h34.01.594,multiplicationStroop,2021.2.3,Win32,30.02552169,,,,,left,1,0.7223,0,49,49,39,1,9,7,9 | 7,2,1.4111,1.9756,incongruent,left,,,,,,stimulusFile/magnitude.xlsx,,,,,,,,,,,,,,,,,,,,,,,,,,,,,,,
,,,,,,,,,,,,,,,824,2022-01-13_12h34.01.594,multiplicationStroop,2021.2.3,Win32,30.02552169,,,,,right,1,0.6246,0,50,50,42,1,3,8,3 | 8,5,1.9756,1.4111,incongruent,right,,,,,,stimulusFile/magnitude.xlsx,,,,,,,,,,,,,,,,,,,,,,,,,,,,,,,
,,,,,,,,,,,,,,,824,2022-01-13_12h34.01.594,multiplicationStroop,2021.2.3,Win32,30.02552169,,,,,right,1,0.5718,0,51,51,16,1,1,6,1 | 6,5,1.4111,1.9756,congruent,right,,,,,,stimulusFile/magnitude.xlsx,,,,,,,,,,,,,,,,,,,,,,,,,,,,,,,
,,,,,,,,,,,,,,,824,2022-01-13_12h34.01.594,multiplicationStroop,2021.2.3,Win32,30.02552169,,,,,right,1,0.8284,0,52,52,24,1,1,2,1 | 2,1,1.9756,1.4111,incongruent,right,,,,,,stimulusFile/magnitude.xlsx,,,,,,,,,,,,,,,,,,,,,,,,,,,,,,,
,,,,,,,,,,,,,,,824,2022-01-13_12h34.01.594,multiplicationStroop,2021.2.3,Win32,30.02552169,,,,,left,1,0.5167,0,53,53,22,1,8,3,8 | 3,5,1.9756,1.4111,congruent,left,,,,,,stimulusFile/magnitude.xlsx,,,,,,,,,,,,,,,,,,,,,,,,,,,,,,,
,,,,,,,,,,,,,,,824,2022-01-13_12h34.01.594,multiplicationStroop,2021.2.3,Win32,30.02552169,,,,,right,1,0.5943,0,54,54,32,1,1,3,1 | 3,2,1.9756,1.4111,incongruent,right,,,,,,stimulusFile/magnitude.xlsx,,,,,,,,,,,,,,,,,,,,,,,,,,,,,,,
,,,,,,,,,,,,,,,824,2022-01-13_12h34.01.594,multiplicationStroop,2021.2.3,Win32,30.02552169,,,,,right,1,0.6055,0,55,55,56,1,1,3,1 | 3,2,1.6933,1.6933,neutral,right,,,,,,stimulusFile/magnitude.xlsx,,,,,,,,,,,,,,,,,,,,,,,,,,,,,,,
,,,,,,,,,,,,,,,824,2022-01-13_12h34.01.594,multiplicationStroop,2021.2.3,Win32,30.02552169,,,,,right,1,0.6349,0,56,56,50,1,6,7,6 | 7,1,1.6933,1.6933,neutral,right,,,,,,stimulusFile/magnitude.xlsx,,,,,,,,,,,,,,,,,,,,,,,,,,,,,,,
,,,,,,,,,,,,,,,824,2022-01-13_12h34.01.594,multiplicationStroop,2021.2.3,Win32,30.02552169,,,,,left,1,0.6257,0,57,57,70,1,8,3,8 | 3,5,1.6933,1.6933,neutral,left,,,,,,stimulusFile/magnitude.xlsx,,,,,,,,,,,,,,,,,,,,,,,,,,,,,,,
,,,,,,,,,,,,,,,824,2022-01-13_12h34.01.594,multiplicationStroop,2021.2.3,Win32,30.02552169,,,,,right,1,0.6167,0,58,58,0,1,1,2,1 | 2,1,1.4111,1.9756,congruent,right,,,,,,stimulusFile/magnitude.xlsx,,,,,,,,,,,,,,,,,,,,,,,,,,,,,,,
,,,,,,,,,,,,,,,824,2022-01-13_12h34.01.594,multiplicationStroop,2021.2.3,Win32,30.02552169,,,,,right,1,0.522,0,59,59,48,1,1,2,1 | 2,1,1.6933,1.6933,neutral,right,,,,,,stimulusFile/magnitude.xlsx,,,,,,,,,,,,,,,,,,,,,,,,,,,,,,,
,,,,,,,,,,,,,,,824,2022-01-13_12h34.01.594,multiplicationStroop,2021.2.3,Win32,30.02552169,,,,,right,1,0.7905,0,60,60,49,1,3,4,3 | 4,1,1.6933,1.6933,neutral,right,,,,,,stimulusFile/magnitude.xlsx,,,,,,,,,,,,,,,,,,,,,,,,,,,,,,,
,,,,,,,,,,,,,,,824,2022-01-13_12h34.01.594,multiplicationStroop,2021.2.3,Win32,30.02552169,,,,,right,1,0.5517,0,61,61,65,1,2,7,2 | 7,5,1.6933,1.6933,neutral,right,,,,,,stimulusFile/magnitude.xlsx,,,,,,,,,,,,,,,,,,,,,,,,,,,,,,,
,,,,,,,,,,,,,,,824,2022-01-13_12h34.01.594,multiplicationStroop,2021.2.3,Win32,30.02552169,,,,,left,1,0.6497,0,62,62,60,1,3,1,3 | 1,2,1.6933,1.6933,neutral,left,,,,,,stimulusFile/magnitude.xlsx,,,,,,,,,,,,,,,,,,,,,,,,,,,,,,,
,,,,,,,,,,,,,,,824,2022-01-13_12h34.01.594,multiplicationStroop,2021.2.3,Win32,30.02552169,,,,,left,1,0.5708,0,63,63,71,1,9,4,9 | 4,5,1.6933,1.6933,neutral,left,,,,,,stimulusFile/magnitude.xlsx,,,,,,,,,,,,,,,,,,,,,,,,,,,,,,,
,,,,,,,,,,,,,,,824,2022-01-13_12h34.01.594,multiplicationStroop,2021.2.3,Win32,30.02552169,,,,,left,1,0.5985,0,64,64,6,1,7,6,7 | 6,1,1.9756,1.4111,congruent,left,,,,,,stimulusFile/magnitude.xlsx,,,,,,,,,,,,,,,,,,,,,,,,,,,,,,,
,,,,,,,,,,,,,,,824,2022-01-13_12h34.01.594,multiplicationStroop,2021.2.3,Win32,30.02552169,,,,,right,1,0.5778,0,65,65,9,1,2,4,2 | 4,2,1.4111,1.9756,congruent,right,,,,,,stimulusFile/magnitude.xlsx,,,,,,,,,,,,,,,,,,,,,,,,,,,,,,,
,,,,,,,,,,,,,,,824,2022-01-13_12h34.01.594,multiplicationStroop,2021.2.3,Win32,30.02552169,,,,,left,1,0.6529,0,66,66,38,1,8,6,8 | 6,2,1.4111,1.9756,incongruent,left,,,,,,stimulusFile/magnitude.xlsx,,,,,,,,,,,,,,,,,,,,,,,,,,,,,,,
,,,,,,,,,,,,,,,824,2022-01-13_12h34.01.594,multiplicationStroop,2021.2.3,Win32,30.02552169,,,,,right,1,0.6251,0,67,67,57,1,2,4,2 | 4,2,1.6933,1.6933,neutral,right,,,,,,stimulusFile/magnitude.xlsx,,,,,,,,,,,,,,,,,,,,,,,,,,,,,,,
,,,,,,,,,,,,,,,824,2022-01-13_12h34.01.594,multiplicationStroop,2021.2.3,Win32,30.02552169,,,,,right,1,0.6148,0,68,68,41,1,2,7,2 | 7,5,1.9756,1.4111,incongruent,right,,,,,,stimulusFile/magnitude.xlsx,,,,,,,,,,,,,,,,,,,,,,,,,,,,,,,
,,,,,,,,,,,,,,,824,2022-01-13_12h34.01.594,multiplicationStroop,2021.2.3,Win32,30.02552169,,,,,right,1,0.5439,0,69,69,58,1,6,8,6 | 8,2,1.6933,1.6933,neutral,right,,,,,,stimulusFile/magnitude.xlsx,,,,,,,,,,,,,,,,,,,,,,,,,,,,,,,
,,,,,,,,,,,,,,,824,2022-01-13_12h34.01.594,multiplicationStroop,2021.2.3,Win32,30.02552169,,,,,right,1,0.6829,0,70,70,51,1,8,9,8 | 9,1,1.6933,1.6933,neutral,right,,,,,,stimulusFile/magnitude.xlsx,,,,,,,,,,,,,,,,,,,,,,,,,,,,,,,
,,,,,,,,,,,,,,,824,2022-01-13_12h34.01.594,multiplicationStroop,2021.2.3,Win32,30.02552169,,,,,left,1,0.5739,0,71,71,45,1,7,2,7 | 2,5,1.4111,1.9756,incongruent,left,,,,,,stimulusFile/magnitude.xlsx,,,,,,,,,,,,,,,,,,,,,,,,,,,,,,,
,,,,,,,,,,,,,,,824,2022-01-13_12h34.01.594,multiplicationStroop,2021.2.3,Win32,30.02552169,,,,,,,,,,,,,,,,,,,,,0,1,1,0,1,stimulusFile/magnitude.xlsx,NUMERICALLY larger.,images/numericallyLarger.png,,,,,,,,,,,,,,,,,,,,,,,,,,,,,
,,,,,,,,,,,,,,,824,2022-01-13_12h34.01.594,multiplicationStroop,2021.2.3,Win32,30.02552169,,,,,,,,,,,,,,,,,,,,,,,,,,,,,space,7.9661,space,2.2448,8,3.4159,1,0,0,0,10,1,2,×,4,2 × 4,incongruent,smallerFirst,2,1,8,,,,,,,,
,,,,,,,,,,,,,,,824,2022-01-13_12h34.01.594,multiplicationStroop,2021.2.3,Win32,30.02552169,,,,,,,,,,,,,,,,,,,,,,,,,,,,,,,,,16,3.4629,1,0,1,1,9,1,2,×,8,2 × 8,incongruent,smallerFirst,2,1,16,,,,,,,,
,,,,,,,,,,,,,,,824,2022-01-13_12h34.01.594,multiplicationStroop,2021.2.3,Win32,30.02552169,,,,,,,,,,,,,,,,,,,,,,,,,,,,,,,,,32,2.4307,1,0,2,2,21,1,8,×,4,8 × 4,incongruent,largerFirst,1,2,32,,,,,,,,
,,,,,,,,,,,,,,,824,2022-01-13_12h34.01.594,multiplicationStroop,2021.2.3,Win32,30.02552169,,,,,,,,,,,,,,,,,,,,,,,,,,,,,,,,,48,10.5862,1,0,3,3,15,1,8,×,6,8 × 6,incongruent,largerFirst,1,2,48,,,,,,,,
,,,,,,,,,,,,,,,824,2022-01-13_12h34.01.594,multiplicationStroop,2021.2.3,Win32,30.02552169,,,,,,,,,,,,,,,,,,,,,,,,,,,,,,,,,27,2.8267,1,0,4,4,4,1,3,×,9,3 × 9,incongruent,smallerFirst,2,1,27,,,,,,,,
,,,,,,,,,,,,,,,824,2022-01-13_12h34.01.594,multiplicationStroop,2021.2.3,Win32,30.02552169,,,,,,,,,,,,,,,,,,,,,,,,,,,,,,,,,54,20.2408,1,0,5,5,20,1,9,×,6,9 × 6,incongruent,largerFirst,1,2,54,,,,,,,,
,,,,,,,,,,,,,,,824,2022-01-13_12h34.01.594,multiplicationStroop,2021.2.3,Win32,30.02552169,,,,,,,,,,,,,,,,,,,,,,,,,,,,,,,,,30,2.343,1,0,6,6,11,1,5,×,6,5 × 6,incongruent,smallerFirst,2,1,30,,,,,,,,
,,,,,,,,,,,,,,,824,2022-01-13_12h34.01.594,multiplicationStroop,2021.2.3,Win32,30.02552169,,,,,,,,,,,,,,,,,,,,,,,,,,,,,,,,,42,3.8636,1,0,7,7,3,1,6,×,7,6 × 7,incongruent,smallerFirst,2,1,42,,,,,,,,
,,,,,,,,,,,,,,,824,2022-01-13_12h34.01.594,multiplicationStroop,2021.2.3,Win32,30.02552169,,,,,,,,,,,,,,,,,,,,,,,,,,,,,,,,,4,1.6393,1,0,8,8,28,1,2,×,2,2 × 2,neutral,tie,2,1,4,,,,,,,,
,,,,,,,,,,,,,,,824,2022-01-13_12h34.01.594,multiplicationStroop,2021.2.3,Win32,30.02552169,,,,,,,,,,,,,,,,,,,,,,,,,,,,,,,,,24,2.0069,1,0,9,9,23,1,8,×,3,8 × 3,incongruent,largerFirst,1,2,24,,,,,,,,
,,,,,,,,,,,,,,,824,2022-01-13_12h34.01.594,multiplicationStroop,2021.2.3,Win32,30.02552169,,,,,,,,,,,,,,,,,,,,,,,,,,,,,,,,,6,1.7821,1,0,10,10,25,1,3,×,2,3 × 2,incongruent,largerFirst,1,2,6,,,,,,,,
,,,,,,,,,,,,,,,824,2022-01-13_12h34.01.594,multiplicationStroop,2021.2.3,Win32,30.02552169,,,,,,,,,,,,,,,,,,,,,,,,,,,,,,,,,12,2.3682,1,0,11,11,5,1,2,×,6,2 × 6,incongruent,smallerFirst,2,1,12,,,,,,,,
,,,,,,,,,,,,,,,824,2022-01-13_12h34.01.594,multiplicationStroop,2021.2.3,Win32,30.02552169,,,,,,,,,,,,,,,,,,,,,,,,,,,,,,,,,14,1.7414,1,0,12,12,18,1,7,×,2,7 × 2,incongruent,largerFirst,1,2,14,,,,,,,,
,,,,,,,,,,,,,,,824,2022-01-13_12h34.01.594,multiplicationStroop,2021.2.3,Win32,30.02552169,,,,,,,,,,,,,,,,,,,,,,,,,,,,,,,,,81,2.4411,1,0,13,13,35,1,9,×,9,9 × 9,neutral,tie,2,1,81,,,,,,,,
,,,,,,,,,,,,,,,824,2022-01-13_12h34.01.594,multiplicationStroop,2021.2.3,Win32,30.02552169,,,,,,,,,,,,,,,,,,,,,,,,,,,,,,,,,56,4.0732,1,0,14,14,0,1,7,×,8,7 × 8,incongruent,smallerFirst,2,1,56,,,,,,,,
,,,,,,,,,,,,,,,824,2022-01-13_12h34.01.594,multiplicationStroop,2021.2.3,Win32,30.02552169,,,,,,,,,,,,,,,,,,,,,,,,,,,,,,,,,18,3.8295,1,0,15,15,16,1,9,×,2,9 × 2,incongruent,largerFirst,1,2,18,,,,,,,,
,,,,,,,,,,,,,,,824,2022-01-13_12h34.01.594,multiplicationStroop,2021.2.3,Win32,30.02552169,,,,,,,,,,,,,,,,,,,,,,,,,,,,,,,,,36,2.1782,1,0,16,16,32,1,6,×,6,6 × 6,neutral,tie,2,1,36,,,,,,,,
,,,,,,,,,,,,,,,824,2022-01-13_12h34.01.594,multiplicationStroop,2021.2.3,Win32,30.02552169,,,,,,,,,,,,,,,,,,,,,,,,,,,,,,,,,10,1.721,1,0,17,17,7,1,2,×,5,2 × 5,incongruent,smallerFirst,2,1,10,,,,,,,,
,,,,,,,,,,,,,,,824,2022-01-13_12h34.01.594,multiplicationStroop,2021.2.3,Win32,30.02552169,,,,,,,,,,,,,,,,,,,,,,,,,,,,,,,,,25,1.8707,1,0,18,18,31,1,5,×,5,5 × 5,neutral,tie,2,1,25,,,,,,,,
,,,,,,,,,,,,,,,824,2022-01-13_12h34.01.594,multiplicationStroop,2021.2.3,Win32,30.02552169,,,,,,,,,,,,,,,,,,,,,,,,,,,,,,,,,45,2.1329,1,0,19,19,8,1,5,×,9,5 × 9,incongruent,smallerFirst,2,1,45,,,,,,,,
,,,,,,,,,,,,,,,824,2022-01-13_12h34.01.594,multiplicationStroop,2021.2.3,Win32,30.02552169,,,,,,,,,,,,,,,,,,,,,,,,,,,,,,,,,35,3.1475,1,0,20,20,26,1,7,×,5,7 × 5,incongruent,largerFirst,1,2,35,,,,,,,,
,,,,,,,,,,,,,,,824,2022-01-13_12h34.01.594,multiplicationStroop,2021.2.3,Win32,30.02552169,,,,,,,,,,,,,,,,,,,,,,,,,,,,,,,,,21,2.0424,1,0,21,21,12,1,3,×,7,3 × 7,incongruent,smallerFirst,2,1,21,,,,,,,,
,,,,,,,,,,,,,,,824,2022-01-13_12h34.01.594,multiplicationStroop,2021.2.3,Win32,30.02552169,,,,,,,,,,,,,,,,,,,,,,,,,,,,,,,,,18,3.0997,1,0,22,22,22,1,6,×,3,6 × 3,incongruent,largerFirst,1,2,18,,,,,,,,
,,,,,,,,,,,,,,,824,2022-01-13_12h34.01.594,multiplicationStroop,2021.2.3,Win32,30.02552169,,,,,,,,,,,,,,,,,,,,,,,,,,,,,,,,,72,2.8087,1,0,23,23,14,1,9,×,8,9 × 8,incongruent,largerFirst,1,2,72,,,,,,,,
,,,,,,,,,,,,,,,824,2022-01-13_12h34.01.594,multiplicationStroop,2021.2.3,Win32,30.02552169,,,,,,,,,,,,,,,,,,,,,,,,,,,,,,,,,49,2.4532,1,0,24,24,33,1,7,×,7,7 × 7,neutral,tie,2,1,49,,,,,,,,
,,,,,,,,,,,,,,,824,2022-01-13_12h34.01.594,multiplicationStroop,2021.2.3,Win32,30.02552169,,,,,,,,,,,,,,,,,,,,,,,,,,,,,,,,,9,1.8748,1,0,25,25,29,1,3,×,3,3 × 3,neutral,tie,2,1,9,,,,,,,,
,,,,,,,,,,,,,,,824,2022-01-13_12h34.01.594,multiplicationStroop,2021.2.3,Win32,30.02552169,,,,,,,,,,,,,,,,,,,,,,,,,,,,,,,,,12,1.5641,1,0,26,26,19,1,4,×,3,4 × 3,incongruent,largerFirst,1,2,12,,,,,,,,
,,,,,,,,,,,,,,,824,2022-01-13_12h34.01.594,multiplicationStroop,2021.2.3,Win32,30.02552169,,,,,,,,,,,,,,,,,,,,,,,,,,,,,,,,,64,2.1112,1,0,27,27,34,1,8,×,8,8 × 8,neutral,tie,2,1,64,,,,,,,,
,,,,,,,,,,,,,,,824,2022-01-13_12h34.01.594,multiplicationStroop,2021.2.3,Win32,30.02552169,,,,,,,,,,,,,,,,,,,,,,,,,,,,,,,,,28,3.461,1,0,28,28,2,1,4,×,7,4 × 7,incongruent,smallerFirst,2,1,28,,,,,,,,
,,,,,,,,,,,,,,,824,2022-01-13_12h34.01.594,multiplicationStroop,2021.2.3,Win32,30.02552169,,,,,,,,,,,,,,,,,,,,,,,,,,,,,,,,,15,1.5581,1,0,29,29,24,1,5,×,3,5 × 3,incongruent,largerFirst,1,2,15,,,,,,,,
,,,,,,,,,,,,,,,824,2022-01-13_12h34.01.594,multiplicationStroop,2021.2.3,Win32,30.02552169,,,,,,,,,,,,,,,,,,,,,,,,,,,,,,,,,36,4.8878,1,0,30,30,1,1,4,×,9,4 × 9,incongruent,smallerFirst,2,1,36,,,,,,,,
,,,,,,,,,,,,,,,824,2022-01-13_12h34.01.594,multiplicationStroop,2021.2.3,Win32,30.02552169,,,,,,,,,,,,,,,,,,,,,,,,,,,,,,,,,40,1.9965,1,0,31,31,27,1,8,×,5,8 × 5,incongruent,largerFirst,1,2,40,,,,,,,,
,,,,,,,,,,,,,,,824,2022-01-13_12h34.01.594,multiplicationStroop,2021.2.3,Win32,30.02552169,,,,,,,,,,,,,,,,,,,,,,,,,,,,,,,,,24,2.0527,1,0,32,32,6,1,4,×,6,4 × 6,incongruent,smallerFirst,2,1,24,,,,,,,,
,,,,,,,,,,,,,,,824,2022-01-13_12h34.01.594,multiplicationStroop,2021.2.3,Win32,30.02552169,,,,,,,,,,,,,,,,,,,,,,,,,,,,,,,,,16,2.6085,1,0,33,33,30,1,4,×,4,4 × 4,neutral,tie,2,1,16,,,,,,,,
,,,,,,,,,,,,,,,824,2022-01-13_12h34.01.594,multiplicationStroop,2021.2.3,Win32,30.02552169,,,,,,,,,,,,,,,,,,,,,,,,,,,,,,,,,63,4.1653,1,0,34,34,17,1,9,×,7,9 × 7,incongruent,largerFirst,1,2,63,,,,,,,,
,,,,,,,,,,,,,,,824,2022-01-13_12h34.01.594,multiplicationStroop,2021.2.3,Win32,30.02552169,,,,,,,,,,,,,,,,,,,,,,,,,,,,,,,,,20,1.8832,1,0,35,35,13,1,4,×,5,4 × 5,incongruent,smallerFirst,2,1,20,,,,,,,,
,,,,,,,,,,,,,,,824,2022-01-13_12h34.01.594,multiplicationStroop,2021.2.3,Win32,30.02552169,,,,,,,,,,,,,,,,,,,,,,,,,,,,,,,,,,,,,,,,,,,,,,,,,,0,0,0,4,1,stimulusFile/mult_blk5_INcongruent.xlsx,,
,,,,,,,,,,,,,,,824,2022-01-13_12h34.01.594,multiplicationStroop,2021.2.3,Win32,30.02552169,,,,,,,,,,,,,,,,,,,,,,,,,,,,,,,space,2.4045,15,1.5835,1,0,0,0,19,1,5,×,3,5 × 3,neutral,largerFirst,1.5,1.5,15,,,,,,,,
,,,,,,,,,,,,,,,824,2022-01-13_12h34.01.594,multiplicationStroop,2021.2.3,Win32,30.02552169,,,,,,,,,,,,,,,,,,,,,,,,,,,,,,,,,45,2.4801,1,0,1,1,24,1,9,×,5,9 × 5,neutral,largerFirst,1.5,1.5,45,,,,,,,,
,,,,,,,,,,,,,,,824,2022-01-13_12h34.01.594,multiplicationStroop,2021.2.3,Win32,30.02552169,,,,,,,,,,,,,,,,,,,,,,,,,,,,,,,,,36,5.2218,1,0,2,2,13,1,4,×,9,4 × 9,neutral,smallerFirst,1.5,1.5,36,,,,,,,,
,,,,,,,,,,,,,,,824,2022-01-13_12h34.01.594,multiplicationStroop,2021.2.3,Win32,30.02552169,,,,,,,,,,,,,,,,,,,,,,,,,,,,,,,,,9,1.5031,1,0,3,3,29,1,3,×,3,3 × 3,neutral,tie,1.5,1.5,9,,,,,,,,
,,,,,,,,,,,,,,,824,2022-01-13_12h34.01.594,multiplicationStroop,2021.2.3,Win32,30.02552169,,,,,,,,,,,,,,,,,,,,,,,,,,,,,,,,,18,2.5373,1,0,4,4,14,1,6,×,3,6 × 3,neutral,largerFirst,1.5,1.5,18,,,,,,,,
,,,,,,,,,,,,,,,824,2022-01-13_12h34.01.594,multiplicationStroop,2021.2.3,Win32,30.02552169,,,,,,,,,,,,,,,,,,,,,,,,,,,,,,,,,16,2.1042,0,0,5,5,4,1,2,×,9,2 × 9,neutral,smallerFirst,1.5,1.5,18,,,,,,,,
,,,,,,,,,,,,,,,824,2022-01-13_12h34.01.594,multiplicationStroop,2021.2.3,Win32,30.02552169,,,,,,,,,,,,,,,,,,,,,,,,,,,,,,,,,56,8.6219,1,0,6,6,23,1,8,×,7,8 × 7,neutral,largerFirst,1.5,1.5,56,,,,,,,,
,,,,,,,,,,,,,,,824,2022-01-13_12h34.01.594,multiplicationStroop,2021.2.3,Win32,30.02552169,,,,,,,,,,,,,,,,,,,,,,,,,,,,,,,,,6,1.7378,1,0,7,7,12,1,2,×,3,2 × 3,neutral,smallerFirst,1.5,1.5,6,,,,,,,,
,,,,,,,,,,,,,,,824,2022-01-13_12h34.01.594,multiplicationStroop,2021.2.3,Win32,30.02552169,,,,,,,,,,,,,,,,,,,,,,,,,,,,,,,,,24,5.367,1,0,8,8,8,1,3,×,8,3 × 8,neutral,smallerFirst,1.5,1.5,24,,,,,,,,
,,,,,,,,,,,,,,,824,2022-01-13_12h34.01.594,multiplicationStroop,2021.2.3,Win32,30.02552169,,,,,,,,,,,,,,,,,,,,,,,,,,,,,,,,,4,2.7477,1,0,9,9,28,1,2,×,2,2 × 2,neutral,tie,1.5,1.5,4,,,,,,,,
,,,,,,,,,,,,,,,824,2022-01-13_12h34.01.594,multiplicationStroop,2021.2.3,Win32,30.02552169,,,,,,,,,,,,,,,,,,,,,,,,,,,,,,,,,14,1.7096,1,0,10,10,2,1,2,×,7,2 × 7,neutral,smallerFirst,1.5,1.5,14,,,,,,,,
,,,,,,,,,,,,,,,824,2022-01-13_12h34.01.594,multiplicationStroop,2021.2.3,Win32,30.02552169,,,,,,,,,,,,,,,,,,,,,,,,,,,,,,,,,40,3.1743,1,0,11,11,10,1,5,×,8,5 × 8,neutral,smallerFirst,1.5,1.5,40,,,,,,,,
,,,,,,,,,,,,,,,824,2022-01-13_12h34.01.594,multiplicationStroop,2021.2.3,Win32,30.02552169,,,,,,,,,,,,,,,,,,,,,,,,,,,,,,,,,10,1.5573,1,0,12,12,18,1,5,×,2,5 × 2,neutral,largerFirst,1.5,1.5,10,,,,,,,,
,,,,,,,,,,,,,,,824,2022-01-13_12h34.01.594,multiplicationStroop,2021.2.3,Win32,30.02552169,,,,,,,,,,,,,,,,,,,,,,,,,,,,,,,,,48,11.16,1,0,13,13,1,1,6,×,8,6 × 8,neutral,smallerFirst,1.5,1.5,48,,,,,,,,
,,,,,,,,,,,,,,,824,2022-01-13_12h34.01.594,multiplicationStroop,2021.2.3,Win32,30.02552169,,,,,,,,,,,,,,,,,,,,,,,,,,,,,,,,,8,1.6927,1,0,14,14,17,1,4,×,2,4 × 2,neutral,largerFirst,1.5,1.5,8,,,,,,,,
,,,,,,,,,,,,,,,824,2022-01-13_12h34.01.594,multiplicationStroop,2021.2.3,Win32,30.02552169,,,,,,,,,,,,,,,,,,,,,,,,,,,,,,,,,20,1.5943,1,0,15,15,6,1,4,×,5,4 × 5,neutral,smallerFirst,1.5,1.5,20,,,,,,,,
,,,,,,,,,,,,,,,824,2022-01-13_12h34.01.594,multiplicationStroop,2021.2.3,Win32,30.02552169,,,,,,,,,,,,,,,,,,,,,,,,,,,,,,,,,81,1.7042,1,0,16,16,35,1,9,×,9,9 × 9,neutral,tie,1.5,1.5,81,,,,,,,,
,,,,,,,,,,,,,,,824,2022-01-13_12h34.01.594,multiplicationStroop,2021.2.3,Win32,30.02552169,,,,,,,,,,,,,,,,,,,,,,,,,,,,,,,,,21,1.94,1,0,17,17,22,1,7,×,3,7 × 3,neutral,largerFirst,1.5,1.5,21,,,,,,,,
,,,,,,,,,,,,,,,824,2022-01-13_12h34.01.594,multiplicationStroop,2021.2.3,Win32,30.02552169,,,,,,,,,,,,,,,,,,,,,,,,,,,,,,,,,42,2.8439,1,0,18,18,20,1,7,×,6,7 × 6,neutral,largerFirst,1.5,1.5,42,,,,,,,,
,,,,,,,,,,,,,,,824,2022-01-13_12h34.01.594,multiplicationStroop,2021.2.3,Win32,30.02552169,,,,,,,,,,,,,,,,,,,,,,,,,,,,,,,,,72,10.1586,1,0,19,19,25,1,9,×,8,9 × 8,neutral,largerFirst,1.5,1.5,72,,,,,,,,
,,,,,,,,,,,,,,,824,2022-01-13_12h34.01.594,multiplicationStroop,2021.2.3,Win32,30.02552169,,,,,,,,,,,,,,,,,,,,,,,,,,,,,,,,,28,2.0825,1,0,20,20,3,1,4,×,7,4 × 7,neutral,smallerFirst,1.5,1.5,28,,,,,,,,
,,,,,,,,,,,,,,,824,2022-01-13_12h34.01.594,multiplicationStroop,2021.2.3,Win32,30.02552169,,,,,,,,,,,,,,,,,,,,,,,,,,,,,,,,,12,1.7334,1,0,21,21,11,1,2,×,6,2 × 6,neutral,smallerFirst,1.5,1.5,12,,,,,,,,
,,,,,,,,,,,,,,,824,2022-01-13_12h34.01.594,multiplicationStroop,2021.2.3,Win32,30.02552169,,,,,,,,,,,,,,,,,,,,,,,,,,,,,,,,,49,2.6195,1,0,22,22,33,1,7,×,7,7 × 7,neutral,tie,1.5,1.5,49,,,,,,,,
,,,,,,,,,,,,,,,824,2022-01-13_12h34.01.594,multiplicationStroop,2021.2.3,Win32,30.02552169,,,,,,,,,,,,,,,,,,,,,,,,,,,,,,,,,64,2.9535,1,0,23,23,34,1,8,×,8,8 × 8,neutral,tie,1.5,1.5,64,,,,,,,,
,,,,,,,,,,,,,,,824,2022-01-13_12h34.01.594,multiplicationStroop,2021.2.3,Win32,30.02552169,,,,,,,,,,,,,,,,,,,,,,,,,,,,,,,,,27,2.4797,1,0,24,24,0,1,3,×,9,3 × 9,neutral,smallerFirst,1.5,1.5,27,,,,,,,,
,,,,,,,,,,,,,,,824,2022-01-13_12h34.01.594,multiplicationStroop,2021.2.3,Win32,30.02552169,,,,,,,,,,,,,,,,,,,,,,,,,,,,,,,,,16,2.8478,1,0,25,25,27,1,8,×,2,8 × 2,neutral,largerFirst,1.5,1.5,16,,,,,,,,
,,,,,,,,,,,,,,,824,2022-01-13_12h34.01.594,multiplicationStroop,2021.2.3,Win32,30.02552169,,,,,,,,,,,,,,,,,,,,,,,,,,,,,,,,,12,1.6087,1,0,26,26,7,1,3,×,4,3 × 4,neutral,smallerFirst,1.5,1.5,12,,,,,,,,
,,,,,,,,,,,,,,,824,2022-01-13_12h34.01.594,multiplicationStroop,2021.2.3,Win32,30.02552169,,,,,,,,,,,,,,,,,,,,,,,,,,,,,,,,,32,5.1649,1,0,27,27,9,1,4,×,8,4 × 8,neutral,smallerFirst,1.5,1.5,32,,,,,,,,
,,,,,,,,,,,,,,,824,2022-01-13_12h34.01.594,multiplicationStroop,2021.2.3,Win32,30.02552169,,,,,,,,,,,,,,,,,,,,,,,,,,,,,,,,,30,2.8181,1,0,28,28,5,1,5,×,6,5 × 6,neutral,smallerFirst,1.5,1.5,30,,,,,,,,
,,,,,,,,,,,,,,,824,2022-01-13_12h34.01.594,multiplicationStroop,2021.2.3,Win32,30.02552169,,,,,,,,,,,,,,,,,,,,,,,,,,,,,,,,,60,19.1746,0,0,29,29,26,1,9,×,7,9 × 7,neutral,largerFirst,1.5,1.5,63,,,,,,,,
,,,,,,,,,,,,,,,824,2022-01-13_12h34.01.594,multiplicationStroop,2021.2.3,Win32,30.02552169,,,,,,,,,,,,,,,,,,,,,,,,,,,,,,,,,35,4.1342,1,0,30,30,15,1,7,×,5,7 × 5,neutral,largerFirst,1.5,1.5,35,,,,,,,,
,,,,,,,,,,,,,,,824,2022-01-13_12h34.01.594,multiplicationStroop,2021.2.3,Win32,30.02552169,,,,,,,,,,,,,,,,,,,,,,,,,,,,,,,,,24,2.8084,1,0,31,31,16,1,6,×,4,6 × 4,neutral,largerFirst,1.5,1.5,24,,,,,,,,
,,,,,,,,,,,,,,,824,2022-01-13_12h34.01.594,multiplicationStroop,2021.2.3,Win32,30.02552169,,,,,,,,,,,,,,,,,,,,,,,,,,,,,,,,,36,2.2135,1,0,32,32,32,1,6,×,6,6 × 6,neutral,tie,1.5,1.5,36,,,,,,,,
,,,,,,,,,,,,,,,824,2022-01-13_12h34.01.594,multiplicationStroop,2021.2.3,Win32,30.02552169,,,,,,,,,,,,,,,,,,,,,,,,,,,,,,,,,16,1.6236,1,0,33,33,30,1,4,×,4,4 × 4,neutral,tie,1.5,1.5,16,,,,,,,,
,,,,,,,,,,,,,,,824,2022-01-13_12h34.01.594,multiplicationStroop,2021.2.3,Win32,30.02552169,,,,,,,,,,,,,,,,,,,,,,,,,,,,,,,,,25,1.8582,1,0,34,34,31,1,5,×,5,5 × 5,neutral,tie,1.5,1.5,25,,,,,,,,
,,,,,,,,,,,,,,,824,2022-01-13_12h34.01.594,multiplicationStroop,2021.2.3,Win32,30.02552169,,,,,,,,,,,,,,,,,,,,,,,,,,,,,,,,,36,3.4133,0,0,35,35,21,1,9,×,6,9 × 6,neutral,largerFirst,1.5,1.5,54,,,,,,,,
,,,,,,,,,,,,,,,824,2022-01-13_12h34.01.594,multiplicationStroop,2021.2.3,Win32,30.02552169,,,,,,,,,,,,,,,,,,,,,,,,,,,,,,,,,,,,,,,,,,,,,,,,,,0,1,1,0,1,stimulusFile/mult_blk1.xlsx,,
,,,,,,,,,,,,,,,824,2022-01-13_12h34.01.594,multiplicationStroop,2021.2.3,Win32,30.02552169,,,,,,,,,,,,,,,,,,,,,,,,,,,,,,,space,1.7795,25,2.0661,1,0,0,0,31,1,5,×,5,5 × 5,neutral,tie,2,1,25,,,,,,,,
,,,,,,,,,,,,,,,824,2022-01-13_12h34.01.594,multiplicationStroop,2021.2.3,Win32,30.02552169,,,,,,,,,,,,,,,,,,,,,,,,,,,,,,,,,18,2.2795,1,0,1,1,11,1,3,×,6,3 × 6,congruent,smallerFirst,1,2,18,,,,,,,,
,,,,,,,,,,,,,,,824,2022-01-13_12h34.01.594,multiplicationStroop,2021.2.3,Win32,30.02552169,,,,,,,,,,,,,,,,,,,,,,,,,,,,,,,,,48,3.2339,1,0,2,2,18,1,8,×,6,8 × 6,congruent,largerFirst,2,1,48,,,,,,,,
,,,,,,,,,,,,,,,824,2022-01-13_12h34.01.594,multiplicationStroop,2021.2.3,Win32,30.02552169,,,,,,,,,,,,,,,,,,,,,,,,,,,,,,,,,16,1.7855,1,0,3,3,5,1,2,×,8,2 × 8,congruent,smallerFirst,1,2,16,,,,,,,,
,,,,,,,,,,,,,,,824,2022-01-13_12h34.01.594,multiplicationStroop,2021.2.3,Win32,30.02552169,,,,,,,,,,,,,,,,,,,,,,,,,,,,,,,,,56,4.4943,1,0,4,4,8,1,7,×,8,7 × 8,congruent,smallerFirst,1,2,56,,,,,,,,
,,,,,,,,,,,,,,,824,2022-01-13_12h34.01.594,multiplicationStroop,2021.2.3,Win32,30.02552169,,,,,,,,,,,,,,,,,,,,,,,,,,,,,,,,,42,15.9266,1,0,5,5,3,1,6,×,7,6 × 7,congruent,smallerFirst,1,2,42,,,,,,,,
,,,,,,,,,,,,,,,824,2022-01-13_12h34.01.594,multiplicationStroop,2021.2.3,Win32,30.02552169,,,,,,,,,,,,,,,,,,,,,,,,,,,,,,,,,36,3.9395,1,0,6,6,0,1,4,×,9,4 × 9,congruent,smallerFirst,1,2,36,,,,,,,,
,,,,,,,,,,,,,,,824,2022-01-13_12h34.01.594,multiplicationStroop,2021.2.3,Win32,30.02552169,,,,,,,,,,,,,,,,,,,,,,,,,,,,,,,,,4,1.343,1,0,7,7,28,1,2,×,2,2 × 2,neutral,tie,2,1,4,,,,,,,,
,,,,,,,,,,,,,,,824,2022-01-13_12h34.01.594,multiplicationStroop,2021.2.3,Win32,30.02552169,,,,,,,,,,,,,,,,,,,,,,,,,,,,,,,,,6,1.6069,1,0,8,8,13,1,2,×,3,2 × 3,congruent,smallerFirst,1,2,6,,,,,,,,
,,,,,,,,,,,,,,,824,2022-01-13_12h34.01.594,multiplicationStroop,2021.2.3,Win32,30.02552169,,,,,,,,,,,,,,,,,,,,,,,,,,,,,,,,,20,2.1382,1,0,9,9,7,1,4,×,5,4 × 5,congruent,smallerFirst,1,2,20,,,,,,,,
,,,,,,,,,,,,,,,824,2022-01-13_12h34.01.594,multiplicationStroop,2021.2.3,Win32,30.02552169,,,,,,,,,,,,,,,,,,,,,,,,,,,,,,,,,40,1.8745,1,0,10,10,6,1,5,×,8,5 × 8,congruent,smallerFirst,1,2,40,,,,,,,,
,,,,,,,,,,,,,,,824,2022-01-13_12h34.01.594,multiplicationStroop,2021.2.3,Win32,30.02552169,,,,,,,,,,,,,,,,,,,,,,,,,,,,,,,,,45,2.8296,1,0,11,11,23,1,9,×,5,9 × 5,congruent,largerFirst,2,1,45,,,,,,,,
,,,,,,,,,,,,,,,824,2022-01-13_12h34.01.594,multiplicationStroop,2021.2.3,Win32,30.02552169,,,,,,,,,,,,,,,,,,,,,,,,,,,,,,,,,10,1.5436,1,0,12,12,24,1,5,×,2,5 × 2,congruent,largerFirst,2,1,10,,,,,,,,
,,,,,,,,,,,,,,,824,2022-01-13_12h34.01.594,multiplicationStroop,2021.2.3,Win32,30.02552169,,,,,,,,,,,,,,,,,,,,,,,,,,,,,,,,,24,1.8762,1,0,13,13,25,1,6,×,4,6 × 4,congruent,largerFirst,2,1,24,,,,,,,,
,,,,,,,,,,,,,,,824,2022-01-13_12h34.01.594,multiplicationStroop,2021.2.3,Win32,30.02552169,,,,,,,,,,,,,,,,,,,,,,,,,,,,,,,,,14,1.5606,1,0,14,14,14,1,7,×,2,7 × 2,congruent,largerFirst,2,1,14,,,,,,,,
,,,,,,,,,,,,,,,824,2022-01-13_12h34.01.594,multiplicationStroop,2021.2.3,Win32,30.02552169,,,,,,,,,,,,,,,,,,,,,,,,,,,,,,,,,56,2.751,0,0,15,15,34,1,8,×,8,8 × 8,neutral,tie,2,1,64,,,,,,,,
,,,,,,,,,,,,,,,824,2022-01-13_12h34.01.594,multiplicationStroop,2021.2.3,Win32,30.02552169,,,,,,,,,,,,,,,,,,,,,,,,,,,,,,,,,32,4.8267,1,0,16,16,20,1,8,×,4,8 × 4,congruent,largerFirst,2,1,32,,,,,,,,
,,,,,,,,,,,,,,,824,2022-01-13_12h34.01.594,multiplicationStroop,2021.2.3,Win32,30.02552169,,,,,,,,,,,,,,,,,,,,,,,,,,,,,,,,,30,1.8864,1,0,17,17,15,1,6,×,5,6 × 5,congruent,largerFirst,2,1,30,,,,,,,,
,,,,,,,,,,,,,,,824,2022-01-13_12h34.01.594,multiplicationStroop,2021.2.3,Win32,30.02552169,,,,,,,,,,,,,,,,,,,,,,,,,,,,,,,,,26,2.101,0,0,18,18,32,1,6,×,6,6 × 6,neutral,tie,2,1,36,,,,,,,,
,,,,,,,,,,,,,,,824,2022-01-13_12h34.01.594,multiplicationStroop,2021.2.3,Win32,30.02552169,,,,,,,,,,,,,,,,,,,,,,,,,,,,,,,,,61,8.4439,0,0,19,19,21,1,9,×,7,9 × 7,congruent,largerFirst,2,1,63,,,,,,,,
,,,,,,,,,,,,,,,824,2022-01-13_12h34.01.594,multiplicationStroop,2021.2.3,Win32,30.02552169,,,,,,,,,,,,,,,,,,,,,,,,,,,,,,,,,49,3.6199,1,0,20,20,33,1,7,×,7,7 × 7,neutral,tie,2,1,49,,,,,,,,
,,,,,,,,,,,,,,,824,2022-01-13_12h34.01.594,multiplicationStroop,2021.2.3,Win32,30.02552169,,,,,,,,,,,,,,,,,,,,,,,,,,,,,,,,,15,1.5714,1,0,21,21,4,1,3,×,5,3 × 5,congruent,smallerFirst,1,2,15,,,,,,,,
,,,,,,,,,,,,,,,824,2022-01-13_12h34.01.594,multiplicationStroop,2021.2.3,Win32,30.02552169,,,,,,,,,,,,,,,,,,,,,,,,,,,,,,,,,35,2.8853,1,0,22,22,1,1,5,×,7,5 × 7,congruent,smallerFirst,1,2,35,,,,,,,,
,,,,,,,,,,,,,,,824,2022-01-13_12h34.01.594,multiplicationStroop,2021.2.3,Win32,30.02552169,,,,,,,,,,,,,,,,,,,,,,,,,,,,,,,,,81,1.8699,1,0,23,23,35,1,9,×,9,9 × 9,neutral,tie,2,1,81,,,,,,,,
,,,,,,,,,,,,,,,824,2022-01-13_12h34.01.594,multiplicationStroop,2021.2.3,Win32,30.02552169,,,,,,,,,,,,,,,,,,,,,,,,,,,,,,,,,27,2.51,1,0,24,24,26,1,9,×,3,9 × 3,congruent,largerFirst,2,1,27,,,,,,,,
,,,,,,,,,,,,,,,824,2022-01-13_12h34.01.594,multiplicationStroop,2021.2.3,Win32,30.02552169,,,,,,,,,,,,,,,,,,,,,,,,,,,,,,,,,24,2.0262,1,0,25,25,10,1,3,×,8,3 × 8,congruent,smallerFirst,1,2,24,,,,,,,,
,,,,,,,,,,,,,,,824,2022-01-13_12h34.01.594,multiplicationStroop,2021.2.3,Win32,30.02552169,,,,,,,,,,,,,,,,,,,,,,,,,,,,,,,,,9,1.5912,1,0,26,26,29,1,3,×,3,3 × 3,neutral,tie,2,1,9,,,,,,,,
,,,,,,,,,,,,,,,824,2022-01-13_12h34.01.594,multiplicationStroop,2021.2.3,Win32,30.02552169,,,,,,,,,,,,,,,,,,,,,,,,,,,,,,,,,21,2.8203,1,0,27,27,16,1,7,×,3,7 × 3,congruent,largerFirst,2,1,21,,,,,,,,
,,,,,,,,,,,,,,,824,2022-01-13_12h34.01.594,multiplicationStroop,2021.2.3,Win32,30.02552169,,,,,,,,,,,,,,,,,,,,,,,,,,,,,,,,,16,1.8181,1,0,28,28,30,1,4,×,4,4 × 4,neutral,tie,2,1,16,,,,,,,,
,,,,,,,,,,,,,,,824,2022-01-13_12h34.01.594,multiplicationStroop,2021.2.3,Win32,30.02552169,,,,,,,,,,,,,,,,,,,,,,,,,,,,,,,,,18,2.0603,1,0,29,29,22,1,9,×,2,9 × 2,congruent,largerFirst,2,1,18,,,,,,,,
,,,,,,,,,,,,,,,824,2022-01-13_12h34.01.594,multiplicationStroop,2021.2.3,Win32,30.02552169,,,,,,,,,,,,,,,,,,,,,,,,,,,,,,,,,8,2.0909,1,0,30,30,9,1,2,×,4,2 × 4,congruent,smallerFirst,1,2,8,,,,,,,,
,,,,,,,,,,,,,,,824,2022-01-13_12h34.01.594,multiplicationStroop,2021.2.3,Win32,30.02552169,,,,,,,,,,,,,,,,,,,,,,,,,,,,,,,,,72,2.8714,1,0,31,31,17,1,9,×,8,9 × 8,congruent,largerFirst,2,1,72,,,,,,,,
,,,,,,,,,,,,,,,824,2022-01-13_12h34.01.594,multiplicationStroop,2021.2.3,Win32,30.02552169,,,,,,,,,,,,,,,,,,,,,,,,,,,,,,,,,16,1.8542,0,0,32,32,2,1,3,×,4,3 × 4,congruent,smallerFirst,1,2,12,,,,,,,,
,,,,,,,,,,,,,,,824,2022-01-13_12h34.01.594,multiplicationStroop,2021.2.3,Win32,30.02552169,,,,,,,,,,,,,,,,,,,,,,,,,,,,,,,,,28,5.4028,1,0,33,33,27,1,7,×,4,7 × 4,congruent,largerFirst,2,1,28,,,,,,,,
,,,,,,,,,,,,,,,824,2022-01-13_12h34.01.594,multiplicationStroop,2021.2.3,Win32,30.02552169,,,,,,,,,,,,,,,,,,,,,,,,,,,,,,,,,12,1.9104,1,0,34,34,19,1,6,×,2,6 × 2,congruent,largerFirst,2,1,12,,,,,,,,
,,,,,,,,,,,,,,,824,2022-01-13_12h34.01.594,multiplicationStroop,2021.2.3,Win32,30.02552169,,,,,,,,,,,,,,,,,,,,,,,,,,,,,,,,,54,9.8109,1,0,35,35,12,1,6,×,9,6 × 9,congruent,smallerFirst,1,2,54,,,,,,,,
,,,,,,,,,,,,,,,824,2022-01-13_12h34.01.594,multiplicationStroop,2021.2.3,Win32,30.02552169,,,,,,,,,,,,,,,,,,,,,,,,,,,,,,,,,,,,,,,,,,,,,,,,,,0,2,2,2,1,stimulusFile/mult_blk3_congruent.xlsx,,
,,,,,,,,,,,,,,,824,2022-01-13_12h34.01.594,multiplicationStroop,2021.2.3,Win32,30.02552169,,,,,,,,,,,,,,,,,,,,,,,,,,,,,,,space,1.4476,4,1.5258,1,0,0,0,28,1,2,×,2,2 × 2,neutral,tie,1.5,1.5,4,,,,,,,,
,,,,,,,,,,,,,,,824,2022-01-13_12h34.01.594,multiplicationStroop,2021.2.3,Win32,30.02552169,,,,,,,,,,,,,,,,,,,,,,,,,,,,,,,,,36,4.1318,1,0,1,1,27,1,9,×,4,9 × 4,neutral,largerFirst,1.5,1.5,36,,,,,,,,
,,,,,,,,,,,,,,,824,2022-01-13_12h34.01.594,multiplicationStroop,2021.2.3,Win32,30.02552169,,,,,,,,,,,,,,,,,,,,,,,,,,,,,,,,,8,1.7786,1,0,2,2,3,1,2,×,4,2 × 4,neutral,smallerFirst,1.5,1.5,8,,,,,,,,
,,,,,,,,,,,,,,,824,2022-01-13_12h34.01.594,multiplicationStroop,2021.2.3,Win32,30.02552169,,,,,,,,,,,,,,,,,,,,,,,,,,,,,,,,,24,2.5182,1,0,3,3,22,1,8,×,3,8 × 3,neutral,largerFirst,1.5,1.5,24,,,,,,,,
,,,,,,,,,,,,,,,824,2022-01-13_12h34.01.594,multiplicationStroop,2021.2.3,Win32,30.02552169,,,,,,,,,,,,,,,,,,,,,,,,,,,,,,,,,9,1.5336,1,0,4,4,29,1,3,×,3,3 × 3,neutral,tie,1.5,1.5,9,,,,,,,,
,,,,,,,,,,,,,,,824,2022-01-13_12h34.01.594,multiplicationStroop,2021.2.3,Win32,30.02552169,,,,,,,,,,,,,,,,,,,,,,,,,,,,,,,,,16,2.2654,1,0,5,5,30,1,4,×,4,4 × 4,neutral,tie,1.5,1.5,16,,,,,,,,
,,,,,,,,,,,,,,,824,2022-01-13_12h34.01.594,multiplicationStroop,2021.2.3,Win32,30.02552169,,,,,,,,,,,,,,,,,,,,,,,,,,,,,,,,,30,1.8541,1,0,6,6,19,1,6,×,5,6 × 5,neutral,largerFirst,1.5,1.5,30,,,,,,,,
,,,,,,,,,,,,,,,824,2022-01-13_12h34.01.594,multiplicationStroop,2021.2.3,Win32,30.02552169,,,,,,,,,,,,,,,,,,,,,,,,,,,,,,,,,20,2.0029,1,0,7,7,20,1,5,×,4,5 × 4,neutral,largerFirst,1.5,1.5,20,,,,,,,,
,,,,,,,,,,,,,,,824,2022-01-13_12h34.01.594,multiplicationStroop,2021.2.3,Win32,30.02552169,,,,,,,,,,,,,,,,,,,,,,,,,,,,,,,,,16,1.811,1,0,8,8,13,1,2,×,8,2 × 8,neutral,smallerFirst,1.5,1.5,16,,,,,,,,
,,,,,,,,,,,,,,,824,2022-01-13_12h34.01.594,multiplicationStroop,2021.2.3,Win32,30.02552169,,,,,,,,,,,,,,,,,,,,,,,,,,,,,,,,,12,1.5451,1,0,9,9,21,1,4,×,3,4 × 3,neutral,largerFirst,1.5,1.5,12,,,,,,,,
,,,,,,,,,,,,,,,824,2022-01-13_12h34.01.594,multiplicationStroop,2021.2.3,Win32,30.02552169,,,,,,,,,,,,,,,,,,,,,,,,,,,,,,,,,14,1.5598,1,0,10,10,16,1,7,×,2,7 × 2,neutral,largerFirst,1.5,1.5,14,,,,,,,,
,,,,,,,,,,,,,,,824,2022-01-13_12h34.01.594,multiplicationStroop,2021.2.3,Win32,30.02552169,,,,,,,,,,,,,,,,,,,,,,,,,,,,,,,,,35,4.0038,1,0,11,11,1,1,5,×,7,5 × 7,neutral,smallerFirst,1.5,1.5,35,,,,,,,,
,,,,,,,,,,,,,,,824,2022-01-13_12h34.01.594,multiplicationStroop,2021.2.3,Win32,30.02552169,,,,,,,,,,,,,,,,,,,,,,,,,,,,,,,,,49,3.2927,1,0,12,12,33,1,7,×,7,7 × 7,neutral,tie,1.5,1.5,49,,,,,,,,
,,,,,,,,,,,,,,,824,2022-01-13_12h34.01.594,multiplicationStroop,2021.2.3,Win32,30.02552169,,,,,,,,,,,,,,,,,,,,,,,,,,,,,,,,,72,2.3384,1,0,13,13,11,1,8,×,9,8 × 9,neutral,smallerFirst,1.5,1.5,72,,,,,,,,
,,,,,,,,,,,,,,,824,2022-01-13_12h34.01.594,multiplicationStroop,2021.2.3,Win32,30.02552169,,,,,,,,,,,,,,,,,,,,,,,,,,,,,,,,,15,1.6473,1,0,14,14,5,1,3,×,5,3 × 5,neutral,smallerFirst,1.5,1.5,15,,,,,,,,
,,,,,,,,,,,,,,,824,2022-01-13_12h34.01.594,multiplicationStroop,2021.2.3,Win32,30.02552169,,,,,,,,,,,,,,,,,,,,,,,,,,,,,,,,,54,4.8672,1,0,15,15,7,1,6,×,9,6 × 9,neutral,smallerFirst,1.5,1.5,54,,,,,,,,
,,,,,,,,,,,,,,,824,2022-01-13_12h34.01.594,multiplicationStroop,2021.2.3,Win32,30.02552169,,,,,,,,,,,,,,,,,,,,,,,,,,,,,,,,,25,2.297,1,0,16,16,31,1,5,×,5,5 × 5,neutral,tie,1.5,1.5,25,,,,,,,,
,,,,,,,,,,,,,,,824,2022-01-13_12h34.01.594,multiplicationStroop,2021.2.3,Win32,30.02552169,,,,,,,,,,,,,,,,,,,,,,,,,,,,,,,,,21,2.4363,1,0,17,17,8,1,3,×,7,3 × 7,neutral,smallerFirst,1.5,1.5,21,,,,,,,,
,,,,,,,,,,,,,,,824,2022-01-13_12h34.01.594,multiplicationStroop,2021.2.3,Win32,30.02552169,,,,,,,,,,,,,,,,,,,,,,,,,,,,,,,,,18,2.0155,1,0,18,18,18,1,9,×,2,9 × 2,neutral,largerFirst,1.5,1.5,18,,,,,,,,
,,,,,,,,,,,,,,,824,2022-01-13_12h34.01.594,multiplicationStroop,2021.2.3,Win32,30.02552169,,,,,,,,,,,,,,,,,,,,,,,,,,,,,,,,,42,3.7949,1,0,19,19,6,1,6,×,7,6 × 7,neutral,smallerFirst,1.5,1.5,42,,,,,,,,
,,,,,,,,,,,,,,,824,2022-01-13_12h34.01.594,multiplicationStroop,2021.2.3,Win32,30.02552169,,,,,,,,,,,,,,,,,,,,,,,,,,,,,,,,,64,2.9374,1,0,20,20,34,1,8,×,8,8 × 8,neutral,tie,1.5,1.5,64,,,,,,,,
,,,,,,,,,,,,,,,824,2022-01-13_12h34.01.594,multiplicationStroop,2021.2.3,Win32,30.02552169,,,,,,,,,,,,,,,,,,,,,,,,,,,,,,,,,40,1.9175,1,0,21,21,24,1,8,×,5,8 × 5,neutral,largerFirst,1.5,1.5,40,,,,,,,,
,,,,,,,,,,,,,,,824,2022-01-13_12h34.01.594,multiplicationStroop,2021.2.3,Win32,30.02552169,,,,,,,,,,,,,,,,,,,,,,,,,,,,,,,,,10,1.4654,1,0,22,22,4,1,2,×,5,2 × 5,neutral,smallerFirst,1.5,1.5,10,,,,,,,,
,,,,,,,,,,,,,,,824,2022-01-13_12h34.01.594,multiplicationStroop,2021.2.3,Win32,30.02552169,,,,,,,,,,,,,,,,,,,,,,,,,,,,,,,,,45,3.2798,1,0,23,23,10,1,5,×,9,5 × 9,neutral,smallerFirst,1.5,1.5,45,,,,,,,,
,,,,,,,,,,,,,,,824,2022-01-13_12h34.01.594,multiplicationStroop,2021.2.3,Win32,30.02552169,,,,,,,,,,,,,,,,,,,,,,,,,,,,,,,,,18,2.8656,1,0,24,24,0,1,3,×,6,3 × 6,neutral,smallerFirst,1.5,1.5,18,,,,,,,,
,,,,,,,,,,,,,,,824,2022-01-13_12h34.01.594,multiplicationStroop,2021.2.3,Win32,30.02552169,,,,,,,,,,,,,,,,,,,,,,,,,,,,,,,,,36,2.6503,1,0,25,25,32,1,6,×,6,6 × 6,neutral,tie,1.5,1.5,36,,,,,,,,
,,,,,,,,,,,,,,,824,2022-01-13_12h34.01.594,multiplicationStroop,2021.2.3,Win32,30.02552169,,,,,,,,,,,,,,,,,,,,,,,,,,,,,,,,,61,10.8091,0,0,26,26,12,1,7,×,9,7 × 9,neutral,smallerFirst,1.5,1.5,63,,,,,,,,
,,,,,,,,,,,,,,,824,2022-01-13_12h34.01.594,multiplicationStroop,2021.2.3,Win32,30.02552169,,,,,,,,,,,,,,,,,,,,,,,,,,,,,,,,,32,3.2301,1,0,27,27,23,1,8,×,4,8 × 4,neutral,largerFirst,1.5,1.5,32,,,,,,,,
,,,,,,,,,,,,,,,824,2022-01-13_12h34.01.594,multiplicationStroop,2021.2.3,Win32,30.02552169,,,,,,,,,,,,,,,,,,,,,,,,,,,,,,,,,81,1.707,1,0,28,28,35,1,9,×,9,9 × 9,neutral,tie,1.5,1.5,81,,,,,,,,
,,,,,,,,,,,,,,,824,2022-01-13_12h34.01.594,multiplicationStroop,2021.2.3,Win32,30.02552169,,,,,,,,,,,,,,,,,,,,,,,,,,,,,,,,,56,3.1541,1,0,29,29,9,1,7,×,8,7 × 8,neutral,smallerFirst,1.5,1.5,56,,,,,,,,
,,,,,,,,,,,,,,,824,2022-01-13_12h34.01.594,multiplicationStroop,2021.2.3,Win32,30.02552169,,,,,,,,,,,,,,,,,,,,,,,,,,,,,,,,,12,2.133,1,0,30,30,25,1,6,×,2,6 × 2,neutral,largerFirst,1.5,1.5,12,,,,,,,,
,,,,,,,,,,,,,,,824,2022-01-13_12h34.01.594,multiplicationStroop,2021.2.3,Win32,30.02552169,,,,,,,,,,,,,,,,,,,,,,,,,,,,,,,,,48,2.68,1,0,31,31,15,1,8,×,6,8 × 6,neutral,largerFirst,1.5,1.5,48,,,,,,,,
,,,,,,,,,,,,,,,824,2022-01-13_12h34.01.594,multiplicationStroop,2021.2.3,Win32,30.02552169,,,,,,,,,,,,,,,,,,,,,,,,,,,,,,,,,24,3.5906,1,0,32,32,2,1,4,×,6,4 × 6,neutral,smallerFirst,1.5,1.5,24,,,,,,,,
,,,,,,,,,,,,,,,824,2022-01-13_12h34.01.594,multiplicationStroop,2021.2.3,Win32,30.02552169,,,,,,,,,,,,,,,,,,,,,,,,,,,,,,,,,6,1.7323,1,0,33,33,26,1,3,×,2,3 × 2,neutral,largerFirst,1.5,1.5,6,,,,,,,,
,,,,,,,,,,,,,,,824,2022-01-13_12h34.01.594,multiplicationStroop,2021.2.3,Win32,30.02552169,,,,,,,,,,,,,,,,,,,,,,,,,,,,,,,,,27,5.4666,1,0,34,34,14,1,9,×,3,9 × 3,neutral,largerFirst,1.5,1.5,27,,,,,,,,
,,,,,,,,,,,,,,,824,2022-01-13_12h34.01.594,multiplicationStroop,2021.2.3,Win32,30.02552169,,,,,,,,,,,,,,,,,,,,,,,,,,,,,,,,,28,2.9267,1,0,35,35,17,1,7,×,4,7 × 4,neutral,largerFirst,1.5,1.5,28,,,,,,,,
,,,,,,,,,,,,,,,824,2022-01-13_12h34.01.594,multiplicationStroop,2021.2.3,Win32,30.02552169,,,,,,,,,,,,,,,,,,,,,,,,,,,,,,,,,,,,,,,,,,,,,,,,,,0,3,3,1,1,stimulusFile/mult_blk2.xlsx,,
,,,,,,,,,,,,,,,824,2022-01-13_12h34.01.594,multiplicationStroop,2021.2.3,Win32,30.02552169,,,,,,,,,,,,,,,,,,,,,,,,,,,,,,,space,1.2571,54,9.895,1,0,0,0,26,1,9,×,6,9 × 6,congruent,largerFirst,2,1,54,,,,,,,,
,,,,,,,,,,,,,,,824,2022-01-13_12h34.01.594,multiplicationStroop,2021.2.3,Win32,30.02552169,,,,,,,,,,,,,,,,,,,,,,,,,,,,,,,,,4,1.5873,1,0,1,1,28,1,2,×,2,2 × 2,neutral,tie,1,2,4,,,,,,,,
,,,,,,,,,,,,,,,824,2022-01-13_12h34.01.594,multiplicationStroop,2021.2.3,Win32,30.02552169,,,,,,,,,,,,,,,,,,,,,,,,,,,,,,,,,21,1.726,1,0,2,2,2,1,3,×,7,3 × 7,congruent,smallerFirst,1,2,21,,,,,,,,
,,,,,,,,,,,,,,,824,2022-01-13_12h34.01.594,multiplicationStroop,2021.2.3,Win32,30.02552169,,,,,,,,,,,,,,,,,,,,,,,,,,,,,,,,,9,1.6609,1,0,3,3,29,1,3,×,3,3 × 3,neutral,tie,1,2,9,,,,,,,,
,,,,,,,,,,,,,,,824,2022-01-13_12h34.01.594,multiplicationStroop,2021.2.3,Win32,30.02552169,,,,,,,,,,,,,,,,,,,,,,,,,,,,,,,,,20,3.4376,1,0,4,4,21,1,5,×,4,5 × 4,congruent,largerFirst,2,1,20,,,,,,,,
,,,,,,,,,,,,,,,824,2022-01-13_12h34.01.594,multiplicationStroop,2021.2.3,Win32,30.02552169,,,,,,,,,,,,,,,,,,,,,,,,,,,,,,,,,10,2.8649,1,0,5,5,10,1,2,×,5,2 × 5,congruent,smallerFirst,1,2,10,,,,,,,,
,,,,,,,,,,,,,,,824,2022-01-13_12h34.01.594,multiplicationStroop,2021.2.3,Win32,30.02552169,,,,,,,,,,,,,,,,,,,,,,,,,,,,,,,,,45,2.7012,1,0,6,6,9,1,5,×,9,5 × 9,congruent,smallerFirst,1,2,45,,,,,,,,
,,,,,,,,,,,,,,,824,2022-01-13_12h34.01.594,multiplicationStroop,2021.2.3,Win32,30.02552169,,,,,,,,,,,,,,,,,,,,,,,,,,,,,,,,,27,2.233,1,0,7,7,12,1,3,×,9,3 × 9,congruent,smallerFirst,1,2,27,,,,,,,,
,,,,,,,,,,,,,,,824,2022-01-13_12h34.01.594,multiplicationStroop,2021.2.3,Win32,30.02552169,,,,,,,,,,,,,,,,,,,,,,,,,,,,,,,,,49,2.3326,1,0,8,8,33,1,7,×,7,7 × 7,neutral,tie,1,2,49,,,,,,,,
,,,,,,,,,,,,,,,824,2022-01-13_12h34.01.594,multiplicationStroop,2021.2.3,Win32,30.02552169,,,,,,,,,,,,,,,,,,,,,,,,,,,,,,,,,40,1.6666,1,0,9,9,20,1,8,×,5,8 × 5,congruent,largerFirst,2,1,40,,,,,,,,
,,,,,,,,,,,,,,,824,2022-01-13_12h34.01.594,multiplicationStroop,2021.2.3,Win32,30.02552169,,,,,,,,,,,,,,,,,,,,,,,,,,,,,,,,,12,1.7077,1,0,10,10,5,1,2,×,6,2 × 6,congruent,smallerFirst,1,2,12,,,,,,,,
,,,,,,,,,,,,,,,824,2022-01-13_12h34.01.594,multiplicationStroop,2021.2.3,Win32,30.02552169,,,,,,,,,,,,,,,,,,,,,,,,,,,,,,,,,14,1.5745,1,0,11,11,0,1,2,×,7,2 × 7,congruent,smallerFirst,1,2,14,,,,,,,,
,,,,,,,,,,,,,,,824,2022-01-13_12h34.01.594,multiplicationStroop,2021.2.3,Win32,30.02552169,,,,,,,,,,,,,,,,,,,,,,,,,,,,,,,,,6,1.6428,1,0,12,12,27,1,3,×,2,3 × 2,congruent,largerFirst,2,1,6,,,,,,,,
,,,,,,,,,,,,,,,824,2022-01-13_12h34.01.594,multiplicationStroop,2021.2.3,Win32,30.02552169,,,,,,,,,,,,,,,,,,,,,,,,,,,,,,,,,25,1.967,1,0,13,13,31,1,5,×,5,5 × 5,neutral,tie,1,2,25,,,,,,,,
,,,,,,,,,,,,,,,824,2022-01-13_12h34.01.594,multiplicationStroop,2021.2.3,Win32,30.02552169,,,,,,,,,,,,,,,,,,,,,,,,,,,,,,,,,61,3.597,0,0,14,14,7,1,7,×,9,7 × 9,congruent,smallerFirst,1,2,63,,,,,,,,
,,,,,,,,,,,,,,,824,2022-01-13_12h34.01.594,multiplicationStroop,2021.2.3,Win32,30.02552169,,,,,,,,,,,,,,,,,,,,,,,,,,,,,,,,,16,1.7262,1,0,15,15,19,1,8,×,2,8 × 2,congruent,largerFirst,2,1,16,,,,,,,,
,,,,,,,,,,,,,,,824,2022-01-13_12h34.01.594,multiplicationStroop,2021.2.3,Win32,30.02552169,,,,,,,,,,,,,,,,,,,,,,,,,,,,,,,,,16,1.8433,1,0,16,16,30,1,4,×,4,4 × 4,neutral,tie,1,2,16,,,,,,,,
,,,,,,,,,,,,,,,824,2022-01-13_12h34.01.594,multiplicationStroop,2021.2.3,Win32,30.02552169,,,,,,,,,,,,,,,,,,,,,,,,,,,,,,,,,30,4.0344,1,0,17,17,1,1,5,×,6,5 × 6,congruent,smallerFirst,1,2,30,,,,,,,,
,,,,,,,,,,,,,,,824,2022-01-13_12h34.01.594,multiplicationStroop,2021.2.3,Win32,30.02552169,,,,,,,,,,,,,,,,,,,,,,,,,,,,,,,,,81,1.5731,1,0,18,18,35,1,9,×,9,9 × 9,neutral,tie,1,2,81,,,,,,,,
,,,,,,,,,,,,,,,824,2022-01-13_12h34.01.594,multiplicationStroop,2021.2.3,Win32,30.02552169,,,,,,,,,,,,,,,,,,,,,,,,,,,,,,,,,48,4.1271,1,0,19,19,4,1,6,×,8,6 × 8,congruent,smallerFirst,1,2,48,,,,,,,,
,,,,,,,,,,,,,,,824,2022-01-13_12h34.01.594,multiplicationStroop,2021.2.3,Win32,30.02552169,,,,,,,,,,,,,,,,,,,,,,,,,,,,,,,,,56,2.5535,1,0,20,20,22,1,8,×,7,8 × 7,congruent,largerFirst,2,1,56,,,,,,,,
,,,,,,,,,,,,,,,824,2022-01-13_12h34.01.594,multiplicationStroop,2021.2.3,Win32,30.02552169,,,,,,,,,,,,,,,,,,,,,,,,,,,,,,,,,24,2.2552,1,0,21,21,11,1,4,×,6,4 × 6,congruent,smallerFirst,1,2,24,,,,,,,,
,,,,,,,,,,,,,,,824,2022-01-13_12h34.01.594,multiplicationStroop,2021.2.3,Win32,30.02552169,,,,,,,,,,,,,,,,,,,,,,,,,,,,,,,,,8,1.7888,1,0,22,22,23,1,4,×,2,4 × 2,congruent,largerFirst,2,1,8,,,,,,,,
,,,,,,,,,,,,,,,824,2022-01-13_12h34.01.594,multiplicationStroop,2021.2.3,Win32,30.02552169,,,,,,,,,,,,,,,,,,,,,,,,,,,,,,,,,12,1.5598,1,0,23,23,16,1,4,×,3,4 × 3,congruent,largerFirst,2,1,12,,,,,,,,
,,,,,,,,,,,,,,,824,2022-01-13_12h34.01.594,multiplicationStroop,2021.2.3,Win32,30.02552169,,,,,,,,,,,,,,,,,,,,,,,,,,,,,,,,,18,2.9603,1,0,24,24,8,1,2,×,9,2 × 9,congruent,smallerFirst,1,2,18,,,,,,,,
,,,,,,,,,,,,,,,824,2022-01-13_12h34.01.594,multiplicationStroop,2021.2.3,Win32,30.02552169,,,,,,,,,,,,,,,,,,,,,,,,,,,,,,,,,64,3.1293,1,0,25,25,34,1,8,×,8,8 × 8,neutral,tie,1,2,64,,,,,,,,
,,,,,,,,,,,,,,,824,2022-01-13_12h34.01.594,multiplicationStroop,2021.2.3,Win32,30.02552169,,,,,,,,,,,,,,,,,,,,,,,,,,,,,,,,,72,1.8274,1,0,26,26,3,1,8,×,9,8 × 9,congruent,smallerFirst,1,2,72,,,,,,,,
,,,,,,,,,,,,,,,824,2022-01-13_12h34.01.594,multiplicationStroop,2021.2.3,Win32,30.02552169,,,,,,,,,,,,,,,,,,,,,,,,,,,,,,,,,32,2.2039,1,0,27,27,6,1,4,×,8,4 × 8,congruent,smallerFirst,1,2,32,,,,,,,,
,,,,,,,,,,,,,,,824,2022-01-13_12h34.01.594,multiplicationStroop,2021.2.3,Win32,30.02552169,,,,,,,,,,,,,,,,,,,,,,,,,,,,,,,,,15,1.6991,1,0,28,28,18,1,5,×,3,5 × 3,congruent,largerFirst,2,1,15,,,,,,,,
,,,,,,,,,,,,,,,824,2022-01-13_12h34.01.594,multiplicationStroop,2021.2.3,Win32,30.02552169,,,,,,,,,,,,,,,,,,,,,,,,,,,,,,,,,24,6.9715,1,0,29,29,24,1,8,×,3,8 × 3,congruent,largerFirst,2,1,24,,,,,,,,
,,,,,,,,,,,,,,,824,2022-01-13_12h34.01.594,multiplicationStroop,2021.2.3,Win32,30.02552169,,,,,,,,,,,,,,,,,,,,,,,,,,,,,,,,,36,2.4889,1,0,30,30,32,1,6,×,6,6 × 6,neutral,tie,1,2,36,,,,,,,,
,,,,,,,,,,,,,,,824,2022-01-13_12h34.01.594,multiplicationStroop,2021.2.3,Win32,30.02552169,,,,,,,,,,,,,,,,,,,,,,,,,,,,,,,,,42,3.1079,1,0,31,31,17,1,7,×,6,7 × 6,congruent,largerFirst,2,1,42,,,,,,,,
,,,,,,,,,,,,,,,824,2022-01-13_12h34.01.594,multiplicationStroop,2021.2.3,Win32,30.02552169,,,,,,,,,,,,,,,,,,,,,,,,,,,,,,,,,35,2.263,1,0,32,32,15,1,7,×,5,7 × 5,congruent,largerFirst,2,1,35,,,,,,,,
,,,,,,,,,,,,,,,824,2022-01-13_12h34.01.594,multiplicationStroop,2021.2.3,Win32,30.02552169,,,,,,,,,,,,,,,,,,,,,,,,,,,,,,,,,36,5.6562,1,0,33,33,14,1,9,×,4,9 × 4,congruent,largerFirst,2,1,36,,,,,,,,
,,,,,,,,,,,,,,,824,2022-01-13_12h34.01.594,multiplicationStroop,2021.2.3,Win32,30.02552169,,,,,,,,,,,,,,,,,,,,,,,,,,,,,,,,,18,1.8945,1,0,34,34,25,1,6,×,3,6 × 3,congruent,largerFirst,2,1,18,,,,,,,,
,,,,,,,,,,,,,,,824,2022-01-13_12h34.01.594,multiplicationStroop,2021.2.3,Win32,30.02552169,,,,,,,,,,,,,,,,,,,,,,,,,,,,,,,,,28,2.1958,1,0,35,35,13,1,4,×,7,4 × 7,congruent,smallerFirst,1,2,28,,,,,,,,
,,,,,,,,,,,,,,,824,2022-01-13_12h34.01.594,multiplicationStroop,2021.2.3,Win32,30.02552169,,,,,,,,,,,,,,,,,,,,,,,,,,,,,,,,,,,,,,,,,,,,,,,,,,0,4,4,3,1,stimulusFile/mult_blk4_congruent.xlsx,,
,,,,,,,,,,,,,,,824,2022-01-13_12h34.01.594,multiplicationStroop,2021.2.3,Win32,30.02552169,,,,,,,,,,,,,,,,,,,,,,,,,,,,,,,space,0.9708,48,4.0306,1,0,0,0,1,1,6,×,8,6 × 8,incongruent,smallerFirst,2,1,48,,,,,,,,
,,,,,,,,,,,,,,,824,2022-01-13_12h34.01.594,multiplicationStroop,2021.2.3,Win32,30.02552169,,,,,,,,,,,,,,,,,,,,,,,,,,,,,,,,,12,1.7695,1,0,1,1,19,1,6,×,2,6 × 2,incongruent,largerFirst,1,2,12,,,,,,,,
,,,,,,,,,,,,,,,824,2022-01-13_12h34.01.594,multiplicationStroop,2021.2.3,Win32,30.02552169,,,,,,,,,,,,,,,,,,,,,,,,,,,,,,,,,24,2.1879,1,0,2,2,9,1,3,×,8,3 × 8,incongruent,smallerFirst,2,1,24,,,,,,,,
,,,,,,,,,,,,,,,824,2022-01-13_12h34.01.594,multiplicationStroop,2021.2.3,Win32,30.02552169,,,,,,,,,,,,,,,,,,,,,,,,,,,,,,,,,24,3.8734,1,0,3,3,20,1,6,×,4,6 × 4,incongruent,largerFirst,1,2,24,,,,,,,,
,,,,,,,,,,,,,,,824,2022-01-13_12h34.01.594,multiplicationStroop,2021.2.3,Win32,30.02552169,,,,,,,,,,,,,,,,,,,,,,,,,,,,,,,,,8,2.1004,1,0,4,4,24,1,4,×,2,4 × 2,incongruent,largerFirst,1,2,8,,,,,,,,
,,,,,,,,,,,,,,,824,2022-01-13_12h34.01.594,multiplicationStroop,2021.2.3,Win32,30.02552169,,,,,,,,,,,,,,,,,,,,,,,,,,,,,,,,,32,2.1743,1,0,5,5,7,1,4,×,8,4 × 8,incongruent,smallerFirst,2,1,32,,,,,,,,
,,,,,,,,,,,,,,,824,2022-01-13_12h34.01.594,multiplicationStroop,2021.2.3,Win32,30.02552169,,,,,,,,,,,,,,,,,,,,,,,,,,,,,,,,,21,2.7055,1,0,6,6,26,1,7,×,3,7 × 3,incongruent,largerFirst,1,2,21,,,,,,,,
,,,,,,,,,,,,,,,824,2022-01-13_12h34.01.594,multiplicationStroop,2021.2.3,Win32,30.02552169,,,,,,,,,,,,,,,,,,,,,,,,,,,,,,,,,36,1.9212,1,0,7,7,32,1,6,×,6,6 × 6,incongruent,tie,1,2,36,,,,,,,,
,,,,,,,,,,,,,,,824,2022-01-13_12h34.01.594,multiplicationStroop,2021.2.3,Win32,30.02552169,,,,,,,,,,,,,,,,,,,,,,,,,,,,,,,,,36,6.6381,1,0,8,8,15,1,9,×,4,9 × 4,incongruent,largerFirst,1,2,36,,,,,,,,
,,,,,,,,,,,,,,,824,2022-01-13_12h34.01.594,multiplicationStroop,2021.2.3,Win32,30.02552169,,,,,,,,,,,,,,,,,,,,,,,,,,,,,,,,,25,1.7668,1,0,9,9,31,1,5,×,5,5 × 5,incongruent,tie,1,2,25,,,,,,,,
,,,,,,,,,,,,,,,824,2022-01-13_12h34.01.594,multiplicationStroop,2021.2.3,Win32,30.02552169,,,,,,,,,,,,,,,,,,,,,,,,,,,,,,,,,18,1.8855,1,0,10,10,2,1,2,×,9,2 × 9,incongruent,smallerFirst,2,1,18,,,,,,,,
,,,,,,,,,,,,,,,824,2022-01-13_12h34.01.594,multiplicationStroop,2021.2.3,Win32,30.02552169,,,,,,,,,,,,,,,,,,,,,,,,,,,,,,,,,56,8.1656,1,0,11,11,14,1,8,×,7,8 × 7,incongruent,largerFirst,1,2,56,,,,,,,,
,,,,,,,,,,,,,,,824,2022-01-13_12h34.01.594,multiplicationStroop,2021.2.3,Win32,30.02552169,,,,,,,,,,,,,,,,,,,,,,,,,,,,,,,,,40,2.2371,1,0,12,12,13,1,5,×,8,5 × 8,incongruent,smallerFirst,2,1,40,,,,,,,,
,,,,,,,,,,,,,,,824,2022-01-13_12h34.01.594,multiplicationStroop,2021.2.3,Win32,30.02552169,,,,,,,,,,,,,,,,,,,,,,,,,,,,,,,,,16,1.7536,1,0,13,13,23,1,8,×,2,8 × 2,incongruent,largerFirst,1,2,16,,,,,,,,
,,,,,,,,,,,,,,,824,2022-01-13_12h34.01.594,multiplicationStroop,2021.2.3,Win32,30.02552169,,,,,,,,,,,,,,,,,,,,,,,,,,,,,,,,,16,1.6224,1,0,14,14,30,1,4,×,4,4 × 4,incongruent,tie,1,2,16,,,,,,,,
,,,,,,,,,,,,,,,824,2022-01-13_12h34.01.594,multiplicationStroop,2021.2.3,Win32,30.02552169,,,,,,,,,,,,,,,,,,,,,,,,,,,,,,,,,49,2.1521,1,0,15,15,33,1,7,×,7,7 × 7,incongruent,tie,1,2,49,,,,,,,,
,,,,,,,,,,,,,,,824,2022-01-13_12h34.01.594,multiplicationStroop,2021.2.3,Win32,30.02552169,,,,,,,,,,,,,,,,,,,,,,,,,,,,,,,,,28,2.2485,1,0,16,16,16,1,7,×,4,7 × 4,incongruent,largerFirst,1,2,28,,,,,,,,
,,,,,,,,,,,,,,,824,2022-01-13_12h34.01.594,multiplicationStroop,2021.2.3,Win32,30.02552169,,,,,,,,,,,,,,,,,,,,,,,,,,,,,,,,,54,3.1771,1,0,17,17,6,1,6,×,9,6 × 9,incongruent,smallerFirst,2,1,54,,,,,,,,
,,,,,,,,,,,,,,,824,2022-01-13_12h34.01.594,multiplicationStroop,2021.2.3,Win32,30.02552169,,,,,,,,,,,,,,,,,,,,,,,,,,,,,,,,,6,1.8764,1,0,18,18,11,1,2,×,3,2 × 3,incongruent,smallerFirst,2,1,6,,,,,,,,
,,,,,,,,,,,,,,,824,2022-01-13_12h34.01.594,multiplicationStroop,2021.2.3,Win32,30.02552169,,,,,,,,,,,,,,,,,,,,,,,,,,,,,,,,,64,3.0382,1,0,19,19,34,1,8,×,8,8 × 8,incongruent,tie,1,2,64,,,,,,,,
,,,,,,,,,,,,,,,824,2022-01-13_12h34.01.594,multiplicationStroop,2021.2.3,Win32,30.02552169,,,,,,,,,,,,,,,,,,,,,,,,,,,,,,,,,9,1.5121,1,0,20,20,29,1,3,×,3,3 × 3,incongruent,tie,1,2,9,,,,,,,,
,,,,,,,,,,,,,,,824,2022-01-13_12h34.01.594,multiplicationStroop,2021.2.3,Win32,30.02552169,,,,,,,,,,,,,,,,,,,,,,,,,,,,,,,,,20,2.0372,1,0,21,21,27,1,5,×,4,5 × 4,incongruent,largerFirst,1,2,20,,,,,,,,
,,,,,,,,,,,,,,,824,2022-01-13_12h34.01.594,multiplicationStroop,2021.2.3,Win32,30.02552169,,,,,,,,,,,,,,,,,,,,,,,,,,,,,,,,,42,20.1114,1,0,22,22,17,1,7,×,6,7 × 6,incongruent,largerFirst,1,2,42,,,,,,,,
,,,,,,,,,,,,,,,824,2022-01-13_12h34.01.594,multiplicationStroop,2021.2.3,Win32,30.02552169,,,,,,,,,,,,,,,,,,,,,,,,,,,,,,,,,72,7.2404,1,0,23,23,0,1,8,×,9,8 × 9,incongruent,smallerFirst,2,1,72,,,,,,,,
,,,,,,,,,,,,,,,824,2022-01-13_12h34.01.594,multiplicationStroop,2021.2.3,Win32,30.02552169,,,,,,,,,,,,,,,,,,,,,,,,,,,,,,,,,35,2.5295,1,0,24,24,12,1,5,×,7,5 × 7,incongruent,smallerFirst,2,1,35,,,,,,,,
,,,,,,,,,,,,,,,824,2022-01-13_12h34.01.594,multiplicationStroop,2021.2.3,Win32,30.02552169,,,,,,,,,,,,,,,,,,,,,,,,,,,,,,,,,14,1.6398,1,0,25,25,4,1,2,×,7,2 × 7,incongruent,smallerFirst,2,1,14,,,,,,,,
,,,,,,,,,,,,,,,824,2022-01-13_12h34.01.594,multiplicationStroop,2021.2.3,Win32,30.02552169,,,,,,,,,,,,,,,,,,,,,,,,,,,,,,,,,81,4.6518,1,0,26,26,35,1,9,×,9,9 × 9,incongruent,tie,1,2,81,,,,,,,,
,,,,,,,,,,,,,,,824,2022-01-13_12h34.01.594,multiplicationStroop,2021.2.3,Win32,30.02552169,,,,,,,,,,,,,,,,,,,,,,,,,,,,,,,,,4,1.3391,1,0,27,27,28,1,2,×,2,2 × 2,incongruent,tie,1,2,4,,,,,,,,
,,,,,,,,,,,,,,,824,2022-01-13_12h34.01.594,multiplicationStroop,2021.2.3,Win32,30.02552169,,,,,,,,,,,,,,,,,,,,,,,,,,,,,,,,,17,2.0115,0,0,28,28,18,1,9,×,3,9 × 3,incongruent,largerFirst,1,2,27,,,,,,,,
,,,,,,,,,,,,,,,824,2022-01-13_12h34.01.594,multiplicationStroop,2021.2.3,Win32,30.02552169,,,,,,,,,,,,,,,,,,,,,,,,,,,,,,,,,18,2.73,1,0,29,29,8,1,3,×,6,3 × 6,incongruent,smallerFirst,2,1,18,,,,,,,,
,,,,,,,,,,,,,,,824,2022-01-13_12h34.01.594,multiplicationStroop,2021.2.3,Win32,30.02552169,,,,,,,,,,,,,,,,,,,,,,,,,,,,,,,,,12,2.0387,1,0,30,30,5,1,3,×,4,3 × 4,incongruent,smallerFirst,2,1,12,,,,,,,,
,,,,,,,,,,,,,,,824,2022-01-13_12h34.01.594,multiplicationStroop,2021.2.3,Win32,30.02552169,,,,,,,,,,,,,,,,,,,,,,,,,,,,,,,,,45,1.7387,1,0,31,31,22,1,9,×,5,9 × 5,incongruent,largerFirst,1,2,45,,,,,,,,
,,,,,,,,,,,,,,,824,2022-01-13_12h34.01.594,multiplicationStroop,2021.2.3,Win32,30.02552169,,,,,,,,,,,,,,,,,,,,,,,,,,,,,,,,,3,2.7595,0,0,32,32,25,1,6,×,5,6 × 5,incongruent,largerFirst,1,2,30,,,,,,,,
,,,,,,,,,,,,,,,824,2022-01-13_12h34.01.594,multiplicationStroop,2021.2.3,Win32,30.02552169,,,,,,,,,,,,,,,,,,,,,,,,,,,,,,,,,61,7.1497,0,0,33,33,3,1,7,×,9,7 × 9,incongruent,smallerFirst,2,1,63,,,,,,,,
,,,,,,,,,,,,,,,824,2022-01-13_12h34.01.594,multiplicationStroop,2021.2.3,Win32,30.02552169,,,,,,,,,,,,,,,,,,,,,,,,,,,,,,,,,15,1.897,1,0,34,34,10,1,3,×,5,3 × 5,incongruent,smallerFirst,2,1,15,,,,,,,,
,,,,,,,,,,,,,,,824,2022-01-13_12h34.01.594,multiplicationStroop,2021.2.3,Win32,30.02552169,,,,,,,,,,,,,,,,,,,,,,,,,,,,,,,,,10,2.0103,1,0,35,35,21,1,5,×,2,5 × 2,incongruent,largerFirst,1,2,10,,,,,,,,
,,,,,,,,,,,,,,,824,2022-01-13_12h34.01.594,multiplicationStroop,2021.2.3,Win32,30.02552169,,,,,,,,,,,,,,,,,,,,,,,,,,,,,,,,,,,,,,,,,,,,,,,,,,0,5,5,5,1,stimulusFile/mult_blk6_INcongruent.xlsx,,
,,,,,,,,,,,,,,,824,2022-01-13_12h34.01.594,multiplicationStroop,2021.2.3,Win32,30.02552169,,,,,,,,,,,,,,,,,,,,,,,,,,,,,,,,,,,,,,,,,,,,,,,,,,,,,,,,space,2.9223