welcomeKey_resp.keys,welcomeKey_resp.rt,X Scale,Y Scale,rt_resp_4.keys,rt_resp_4.corr,rt_resp_4.rt,speedtest_2.thisRepN,speedtest_2.thisTrialN,speedtest_2.thisN,speedtest_2.thisIndex,speedtest_2.ran,numberSc,posX,positionLayout,participant,date,expName,psychopyVersion,OS,frameRate,ct_instrresp.keys,ct_instrresp.rt,key_resp_2.keys,key_resp_2.rt,ct_keyResp.keys,ct_keyResp.corr,ct_keyResp.rt,trials.thisRepN,trials.thisTrialN,trials.thisN,trials.thisIndex,trials.ran,leftNo,rightNo,displayProblem,numDistance,leftNo_size,rightNo_size,Dims,keyAnswer,TS_Loop.thisRepN,TS_Loop.thisTrialN,TS_Loop.thisN,TS_Loop.thisIndex,TS_Loop.ran,Condition,ActionInst,instrImage,mltptaskInst_resp.keys,mltptaskInst_resp.rt,continue_resp_2.keys,continue_resp_2.rt,multp_Answer,multi_RT,multiplyCorr,LoopingMultiply.thisRepN,LoopingMultiply.thisTrialN,LoopingMultiply.thisN,LoopingMultiply.thisIndex,LoopingMultiply.ran,factor1,multiplySign,factor2,multliplyProblem,physicalSize,orderOperand,sizeF1,sizeF2,mult_answer,trials_stroop.thisRepN,trials_stroop.thisTrialN,trials_stroop.thisN,trials_stroop.thisIndex,trials_stroop.ran,multiplicationFile,esckey_resp_2.keys,esckey_resp_2.rt
y,16.7899,59.5,40.4,right,1,0.5172,0,0,0,15,1,9,200,right,8254,2022-01-26_11h26.41.110,multiplicationStroop,2021.2.3,Win32,60.17571308,,,,,,,,,,,,,,,,,,,,,,,,,,,,,,,,,,,,,,,,,,,,,,,,,,,,,,,,,
,,,,left,1,0.4245,0,1,1,0,1,1,-200,left,8254,2022-01-26_11h26.41.110,multiplicationStroop,2021.2.3,Win32,60.17571308,,,,,,,,,,,,,,,,,,,,,,,,,,,,,,,,,,,,,,,,,,,,,,,,,,,,,,,,,
,,,,left,1,0.4306,0,2,2,4,1,6,-200,left,8254,2022-01-26_11h26.41.110,multiplicationStroop,2021.2.3,Win32,60.17571308,,,,,,,,,,,,,,,,,,,,,,,,,,,,,,,,,,,,,,,,,,,,,,,,,,,,,,,,,
,,,,left,1,0.3022,0,3,3,6,1,8,-200,left,8254,2022-01-26_11h26.41.110,multiplicationStroop,2021.2.3,Win32,60.17571308,,,,,,,,,,,,,,,,,,,,,,,,,,,,,,,,,,,,,,,,,,,,,,,,,,,,,,,,,
,,,,left,1,0.3078,0,4,4,2,1,3,-200,left,8254,2022-01-26_11h26.41.110,multiplicationStroop,2021.2.3,Win32,60.17571308,,,,,,,,,,,,,,,,,,,,,,,,,,,,,,,,,,,,,,,,,,,,,,,,,,,,,,,,,
,,,,right,1,0.3009,0,5,5,13,1,7,200,right,8254,2022-01-26_11h26.41.110,multiplicationStroop,2021.2.3,Win32,60.17571308,,,,,,,,,,,,,,,,,,,,,,,,,,,,,,,,,,,,,,,,,,,,,,,,,,,,,,,,,
,,,,right,1,0.3118,0,6,6,12,1,6,200,right,8254,2022-01-26_11h26.41.110,multiplicationStroop,2021.2.3,Win32,60.17571308,,,,,,,,,,,,,,,,,,,,,,,,,,,,,,,,,,,,,,,,,,,,,,,,,,,,,,,,,
,,,,right,1,0.2799,0,7,7,8,1,1,200,right,8254,2022-01-26_11h26.41.110,multiplicationStroop,2021.2.3,Win32,60.17571308,,,,,,,,,,,,,,,,,,,,,,,,,,,,,,,,,,,,,,,,,,,,,,,,,,,,,,,,,
,,,,right,1,0.3727,0,8,8,9,1,2,200,right,8254,2022-01-26_11h26.41.110,multiplicationStroop,2021.2.3,Win32,60.17571308,,,,,,,,,,,,,,,,,,,,,,,,,,,,,,,,,,,,,,,,,,,,,,,,,,,,,,,,,
,,,,right,1,0.3466,0,9,9,10,1,3,200,right,8254,2022-01-26_11h26.41.110,multiplicationStroop,2021.2.3,Win32,60.17571308,,,,,,,,,,,,,,,,,,,,,,,,,,,,,,,,,,,,,,,,,,,,,,,,,,,,,,,,,
,,,,right,1,0.3291,0,10,10,14,1,8,200,right,8254,2022-01-26_11h26.41.110,multiplicationStroop,2021.2.3,Win32,60.17571308,,,,,,,,,,,,,,,,,,,,,,,,,,,,,,,,,,,,,,,,,,,,,,,,,,,,,,,,,
,,,,left,1,0.3462,0,11,11,5,1,7,-200,left,8254,2022-01-26_11h26.41.110,multiplicationStroop,2021.2.3,Win32,60.17571308,,,,,,,,,,,,,,,,,,,,,,,,,,,,,,,,,,,,,,,,,,,,,,,,,,,,,,,,,
,,,,left,1,0.3024,0,12,12,7,1,9,-200,left,8254,2022-01-26_11h26.41.110,multiplicationStroop,2021.2.3,Win32,60.17571308,,,,,,,,,,,,,,,,,,,,,,,,,,,,,,,,,,,,,,,,,,,,,,,,,,,,,,,,,
,,,,left,1,0.3206,0,13,13,1,1,2,-200,left,8254,2022-01-26_11h26.41.110,multiplicationStroop,2021.2.3,Win32,60.17571308,,,,,,,,,,,,,,,,,,,,,,,,,,,,,,,,,,,,,,,,,,,,,,,,,,,,,,,,,
,,,,right,1,0.2913,0,14,14,11,1,4,200,right,8254,2022-01-26_11h26.41.110,multiplicationStroop,2021.2.3,Win32,60.17571308,,,,,,,,,,,,,,,,,,,,,,,,,,,,,,,,,,,,,,,,,,,,,,,,,,,,,,,,,
,,,,left,1,0.3504,0,15,15,3,1,4,-200,left,8254,2022-01-26_11h26.41.110,multiplicationStroop,2021.2.3,Win32,60.17571308,,,,,,,,,,,,,,,,,,,,,,,,,,,,,,,,,,,,,,,,,,,,,,,,,,,,,,,,,
,,,,left,1,0.4149,1,0,16,7,1,9,-200,left,8254,2022-01-26_11h26.41.110,multiplicationStroop,2021.2.3,Win32,60.17571308,,,,,,,,,,,,,,,,,,,,,,,,,,,,,,,,,,,,,,,,,,,,,,,,,,,,,,,,,
,,,,left,1,0.3255,1,1,17,0,1,1,-200,left,8254,2022-01-26_11h26.41.110,multiplicationStroop,2021.2.3,Win32,60.17571308,,,,,,,,,,,,,,,,,,,,,,,,,,,,,,,,,,,,,,,,,,,,,,,,,,,,,,,,,
,,,,right,1,0.3562,1,2,18,14,1,8,200,right,8254,2022-01-26_11h26.41.110,multiplicationStroop,2021.2.3,Win32,60.17571308,,,,,,,,,,,,,,,,,,,,,,,,,,,,,,,,,,,,,,,,,,,,,,,,,,,,,,,,,
,,,,left,1,0.3803,1,3,19,3,1,4,-200,left,8254,2022-01-26_11h26.41.110,multiplicationStroop,2021.2.3,Win32,60.17571308,,,,,,,,,,,,,,,,,,,,,,,,,,,,,,,,,,,,,,,,,,,,,,,,,,,,,,,,,
,,,,left,1,0.3516,1,4,20,4,1,6,-200,left,8254,2022-01-26_11h26.41.110,multiplicationStroop,2021.2.3,Win32,60.17571308,,,,,,,,,,,,,,,,,,,,,,,,,,,,,,,,,,,,,,,,,,,,,,,,,,,,,,,,,
,,,,left,1,0.3257,1,5,21,2,1,3,-200,left,8254,2022-01-26_11h26.41.110,multiplicationStroop,2021.2.3,Win32,60.17571308,,,,,,,,,,,,,,,,,,,,,,,,,,,,,,,,,,,,,,,,,,,,,,,,,,,,,,,,,
,,,,left,1,0.3397,1,6,22,1,1,2,-200,left,8254,2022-01-26_11h26.41.110,multiplicationStroop,2021.2.3,Win32,60.17571308,,,,,,,,,,,,,,,,,,,,,,,,,,,,,,,,,,,,,,,,,,,,,,,,,,,,,,,,,
,,,,right,1,0.3504,1,7,23,9,1,2,200,right,8254,2022-01-26_11h26.41.110,multiplicationStroop,2021.2.3,Win32,60.17571308,,,,,,,,,,,,,,,,,,,,,,,,,,,,,,,,,,,,,,,,,,,,,,,,,,,,,,,,,
,,,,left,1,0.3609,1,8,24,5,1,7,-200,left,8254,2022-01-26_11h26.41.110,multiplicationStroop,2021.2.3,Win32,60.17571308,,,,,,,,,,,,,,,,,,,,,,,,,,,,,,,,,,,,,,,,,,,,,,,,,,,,,,,,,
,,,,right,1,0.3012,1,9,25,15,1,9,200,right,8254,2022-01-26_11h26.41.110,multiplicationStroop,2021.2.3,Win32,60.17571308,,,,,,,,,,,,,,,,,,,,,,,,,,,,,,,,,,,,,,,,,,,,,,,,,,,,,,,,,
,,,,right,1,0.377,1,10,26,10,1,3,200,right,8254,2022-01-26_11h26.41.110,multiplicationStroop,2021.2.3,Win32,60.17571308,,,,,,,,,,,,,,,,,,,,,,,,,,,,,,,,,,,,,,,,,,,,,,,,,,,,,,,,,
,,,,right,1,0.1909,1,11,27,13,1,7,200,right,8254,2022-01-26_11h26.41.110,multiplicationStroop,2021.2.3,Win32,60.17571308,,,,,,,,,,,,,,,,,,,,,,,,,,,,,,,,,,,,,,,,,,,,,,,,,,,,,,,,,
,,,,right,1,0.2133,1,12,28,8,1,1,200,right,8254,2022-01-26_11h26.41.110,multiplicationStroop,2021.2.3,Win32,60.17571308,,,,,,,,,,,,,,,,,,,,,,,,,,,,,,,,,,,,,,,,,,,,,,,,,,,,,,,,,
,,,,left,1,0.4368,1,13,29,6,1,8,-200,left,8254,2022-01-26_11h26.41.110,multiplicationStroop,2021.2.3,Win32,60.17571308,,,,,,,,,,,,,,,,,,,,,,,,,,,,,,,,,,,,,,,,,,,,,,,,,,,,,,,,,
,,,,right,1,0.3253,1,14,30,11,1,4,200,right,8254,2022-01-26_11h26.41.110,multiplicationStroop,2021.2.3,Win32,60.17571308,,,,,,,,,,,,,,,,,,,,,,,,,,,,,,,,,,,,,,,,,,,,,,,,,,,,,,,,,
,,,,right,1,0.4734,1,15,31,12,1,6,200,right,8254,2022-01-26_11h26.41.110,multiplicationStroop,2021.2.3,Win32,60.17571308,,,,,,,,,,,,,,,,,,,,,,,,,,,,,,,,,,,,,,,,,,,,,,,,,,,,,,,,,
,,,,right,1,0.3243,2,0,32,10,1,3,200,right,8254,2022-01-26_11h26.41.110,multiplicationStroop,2021.2.3,Win32,60.17571308,,,,,,,,,,,,,,,,,,,,,,,,,,,,,,,,,,,,,,,,,,,,,,,,,,,,,,,,,
,,,,right,1,0.3175,2,1,33,15,1,9,200,right,8254,2022-01-26_11h26.41.110,multiplicationStroop,2021.2.3,Win32,60.17571308,,,,,,,,,,,,,,,,,,,,,,,,,,,,,,,,,,,,,,,,,,,,,,,,,,,,,,,,,
,,,,right,1,0.3346,2,2,34,14,1,8,200,right,8254,2022-01-26_11h26.41.110,multiplicationStroop,2021.2.3,Win32,60.17571308,,,,,,,,,,,,,,,,,,,,,,,,,,,,,,,,,,,,,,,,,,,,,,,,,,,,,,,,,
,,,,right,1,0.2747,2,3,35,11,1,4,200,right,8254,2022-01-26_11h26.41.110,multiplicationStroop,2021.2.3,Win32,60.17571308,,,,,,,,,,,,,,,,,,,,,,,,,,,,,,,,,,,,,,,,,,,,,,,,,,,,,,,,,
,,,,right,1,0.3027,2,4,36,9,1,2,200,right,8254,2022-01-26_11h26.41.110,multiplicationStroop,2021.2.3,Win32,60.17571308,,,,,,,,,,,,,,,,,,,,,,,,,,,,,,,,,,,,,,,,,,,,,,,,,,,,,,,,,
,,,,left,1,0.3222,2,5,37,6,1,8,-200,left,8254,2022-01-26_11h26.41.110,multiplicationStroop,2021.2.3,Win32,60.17571308,,,,,,,,,,,,,,,,,,,,,,,,,,,,,,,,,,,,,,,,,,,,,,,,,,,,,,,,,
,,,,left,1,0.3383,2,6,38,0,1,1,-200,left,8254,2022-01-26_11h26.41.110,multiplicationStroop,2021.2.3,Win32,60.17571308,,,,,,,,,,,,,,,,,,,,,,,,,,,,,,,,,,,,,,,,,,,,,,,,,,,,,,,,,
,,,,left,1,0.2813,2,7,39,5,1,7,-200,left,8254,2022-01-26_11h26.41.110,multiplicationStroop,2021.2.3,Win32,60.17571308,,,,,,,,,,,,,,,,,,,,,,,,,,,,,,,,,,,,,,,,,,,,,,,,,,,,,,,,,
,,,,left,1,0.2922,2,8,40,2,1,3,-200,left,8254,2022-01-26_11h26.41.110,multiplicationStroop,2021.2.3,Win32,60.17571308,,,,,,,,,,,,,,,,,,,,,,,,,,,,,,,,,,,,,,,,,,,,,,,,,,,,,,,,,
,,,,left,1,0.3037,2,9,41,1,1,2,-200,left,8254,2022-01-26_11h26.41.110,multiplicationStroop,2021.2.3,Win32,60.17571308,,,,,,,,,,,,,,,,,,,,,,,,,,,,,,,,,,,,,,,,,,,,,,,,,,,,,,,,,
,,,,left,1,0.341,2,10,42,4,1,6,-200,left,8254,2022-01-26_11h26.41.110,multiplicationStroop,2021.2.3,Win32,60.17571308,,,,,,,,,,,,,,,,,,,,,,,,,,,,,,,,,,,,,,,,,,,,,,,,,,,,,,,,,
,,,,right,1,0.3399,2,11,43,8,1,1,200,right,8254,2022-01-26_11h26.41.110,multiplicationStroop,2021.2.3,Win32,60.17571308,,,,,,,,,,,,,,,,,,,,,,,,,,,,,,,,,,,,,,,,,,,,,,,,,,,,,,,,,
,,,,right,1,0.3163,2,12,44,13,1,7,200,right,8254,2022-01-26_11h26.41.110,multiplicationStroop,2021.2.3,Win32,60.17571308,,,,,,,,,,,,,,,,,,,,,,,,,,,,,,,,,,,,,,,,,,,,,,,,,,,,,,,,,
,,,,right,1,0.3261,2,13,45,12,1,6,200,right,8254,2022-01-26_11h26.41.110,multiplicationStroop,2021.2.3,Win32,60.17571308,,,,,,,,,,,,,,,,,,,,,,,,,,,,,,,,,,,,,,,,,,,,,,,,,,,,,,,,,
,,,,left,1,0.3416,2,14,46,7,1,9,-200,left,8254,2022-01-26_11h26.41.110,multiplicationStroop,2021.2.3,Win32,60.17571308,,,,,,,,,,,,,,,,,,,,,,,,,,,,,,,,,,,,,,,,,,,,,,,,,,,,,,,,,
,,,,left,1,0.3891,2,15,47,3,1,4,-200,left,8254,2022-01-26_11h26.41.110,multiplicationStroop,2021.2.3,Win32,60.17571308,,,,,,,,,,,,,,,,,,,,,,,,,,,,,,,,,,,,,,,,,,,,,,,,,,,,,,,,,
,,,,left,1,0.3753,3,0,48,1,1,2,-200,left,8254,2022-01-26_11h26.41.110,multiplicationStroop,2021.2.3,Win32,60.17571308,,,,,,,,,,,,,,,,,,,,,,,,,,,,,,,,,,,,,,,,,,,,,,,,,,,,,,,,,
,,,,left,0,0.2199,3,1,49,8,1,1,200,right,8254,2022-01-26_11h26.41.110,multiplicationStroop,2021.2.3,Win32,60.17571308,,,,,,,,,,,,,,,,,,,,,,,,,,,,,,,,,,,,,,,,,,,,,,,,,,,,,,,,,
,,,,left,1,0.8078,3,2,50,6,1,8,-200,left,8254,2022-01-26_11h26.41.110,multiplicationStroop,2021.2.3,Win32,60.17571308,,,,,,,,,,,,,,,,,,,,,,,,,,,,,,,,,,,,,,,,,,,,,,,,,,,,,,,,,
,,,,left,1,0.3661,3,3,51,4,1,6,-200,left,8254,2022-01-26_11h26.41.110,multiplicationStroop,2021.2.3,Win32,60.17571308,,,,,,,,,,,,,,,,,,,,,,,,,,,,,,,,,,,,,,,,,,,,,,,,,,,,,,,,,
,,,,left,1,0.3199,3,4,52,5,1,7,-200,left,8254,2022-01-26_11h26.41.110,multiplicationStroop,2021.2.3,Win32,60.17571308,,,,,,,,,,,,,,,,,,,,,,,,,,,,,,,,,,,,,,,,,,,,,,,,,,,,,,,,,
,,,,right,1,0.3393,3,5,53,12,1,6,200,right,8254,2022-01-26_11h26.41.110,multiplicationStroop,2021.2.3,Win32,60.17571308,,,,,,,,,,,,,,,,,,,,,,,,,,,,,,,,,,,,,,,,,,,,,,,,,,,,,,,,,
,,,,left,1,0.3828,3,6,54,7,1,9,-200,left,8254,2022-01-26_11h26.41.110,multiplicationStroop,2021.2.3,Win32,60.17571308,,,,,,,,,,,,,,,,,,,,,,,,,,,,,,,,,,,,,,,,,,,,,,,,,,,,,,,,,
,,,,right,1,0.3006,3,7,55,15,1,9,200,right,8254,2022-01-26_11h26.41.110,multiplicationStroop,2021.2.3,Win32,60.17571308,,,,,,,,,,,,,,,,,,,,,,,,,,,,,,,,,,,,,,,,,,,,,,,,,,,,,,,,,
,,,,left,1,0.3381,3,8,56,3,1,4,-200,left,8254,2022-01-26_11h26.41.110,multiplicationStroop,2021.2.3,Win32,60.17571308,,,,,,,,,,,,,,,,,,,,,,,,,,,,,,,,,,,,,,,,,,,,,,,,,,,,,,,,,
,,,,left,1,0.4132,3,9,57,2,1,3,-200,left,8254,2022-01-26_11h26.41.110,multiplicationStroop,2021.2.3,Win32,60.17571308,,,,,,,,,,,,,,,,,,,,,,,,,,,,,,,,,,,,,,,,,,,,,,,,,,,,,,,,,
,,,,right,1,0.3471,3,10,58,9,1,2,200,right,8254,2022-01-26_11h26.41.110,multiplicationStroop,2021.2.3,Win32,60.17571308,,,,,,,,,,,,,,,,,,,,,,,,,,,,,,,,,,,,,,,,,,,,,,,,,,,,,,,,,
,,,,right,1,0.3872,3,11,59,11,1,4,200,right,8254,2022-01-26_11h26.41.110,multiplicationStroop,2021.2.3,Win32,60.17571308,,,,,,,,,,,,,,,,,,,,,,,,,,,,,,,,,,,,,,,,,,,,,,,,,,,,,,,,,
,,,,right,1,0.3304,3,12,60,13,1,7,200,right,8254,2022-01-26_11h26.41.110,multiplicationStroop,2021.2.3,Win32,60.17571308,,,,,,,,,,,,,,,,,,,,,,,,,,,,,,,,,,,,,,,,,,,,,,,,,,,,,,,,,
,,,,right,1,0.3425,3,13,61,14,1,8,200,right,8254,2022-01-26_11h26.41.110,multiplicationStroop,2021.2.3,Win32,60.17571308,,,,,,,,,,,,,,,,,,,,,,,,,,,,,,,,,,,,,,,,,,,,,,,,,,,,,,,,,
,,,,right,1,0.32,3,14,62,10,1,3,200,right,8254,2022-01-26_11h26.41.110,multiplicationStroop,2021.2.3,Win32,60.17571308,,,,,,,,,,,,,,,,,,,,,,,,,,,,,,,,,,,,,,,,,,,,,,,,,,,,,,,,,
,,,,left,1,0.3257,3,15,63,0,1,1,-200,left,8254,2022-01-26_11h26.41.110,multiplicationStroop,2021.2.3,Win32,60.17571308,,,,,,,,,,,,,,,,,,,,,,,,,,,,,,,,,,,,,,,,,,,,,,,,,,,,,,,,,
,,,,,,,,,,,,,,,8254,2022-01-26_11h26.41.110,multiplicationStroop,2021.2.3,Win32,60.17571308,space,28.5348,space,29.9011,right,1,1.3777,0,0,0,49,1,3,4,3 | 4,1,1.6933,1.6933,neutral,right,,,,,,stimulusFile/magnitude.xlsx,,,,,,,,,,,,,,,,,,,,,,,,,,,,,,,
,,,,,,,,,,,,,,,8254,2022-01-26_11h26.41.110,multiplicationStroop,2021.2.3,Win32,60.17571308,,,,,right,1,0.6156,0,1,1,40,1,1,6,1 | 6,5,1.9756,1.4111,incongruent,right,,,,,,stimulusFile/magnitude.xlsx,,,,,,,,,,,,,,,,,,,,,,,,,,,,,,,
,,,,,,,,,,,,,,,8254,2022-01-26_11h26.41.110,multiplicationStroop,2021.2.3,Win32,60.17571308,,,,,right,1,0.5982,0,2,2,11,1,7,9,7 | 9,2,1.4111,1.9756,congruent,right,,,,,,stimulusFile/magnitude.xlsx,,,,,,,,,,,,,,,,,,,,,,,,,,,,,,,
,,,,,,,,,,,,,,,8254,2022-01-26_11h26.41.110,multiplicationStroop,2021.2.3,Win32,60.17571308,,,,,left,0,0.579,0,3,3,26,1,6,7,6 | 7,1,1.9756,1.4111,incongruent,right,,,,,,stimulusFile/magnitude.xlsx,,,,,,,,,,,,,,,,,,,,,,,,,,,,,,,
,,,,,,,,,,,,,,,8254,2022-01-26_11h26.41.110,multiplicationStroop,2021.2.3,Win32,60.17571308,,,,,right,0,0.4934,0,4,4,30,1,7,6,7 | 6,1,1.4111,1.9756,incongruent,left,,,,,,stimulusFile/magnitude.xlsx,,,,,,,,,,,,,,,,,,,,,,,,,,,,,,,
,,,,,,,,,,,,,,,8254,2022-01-26_11h26.41.110,multiplicationStroop,2021.2.3,Win32,60.17571308,,,,,right,1,1.052,0,5,5,34,1,6,8,6 | 8,2,1.9756,1.4111,incongruent,right,,,,,,stimulusFile/magnitude.xlsx,,,,,,,,,,,,,,,,,,,,,,,,,,,,,,,
,,,,,,,,,,,,,,,8254,2022-01-26_11h26.41.110,multiplicationStroop,2021.2.3,Win32,60.17571308,,,,,left,1,0.7982,0,6,6,68,1,6,1,6 | 1,5,1.6933,1.6933,neutral,left,,,,,,stimulusFile/magnitude.xlsx,,,,,,,,,,,,,,,,,,,,,,,,,,,,,,,
,,,,,,,,,,,,,,,8254,2022-01-26_11h26.41.110,multiplicationStroop,2021.2.3,Win32,60.17571308,,,,,left,1,0.8485,0,7,7,15,1,9,7,9 | 7,2,1.9756,1.4111,congruent,left,,,,,,stimulusFile/magnitude.xlsx,,,,,,,,,,,,,,,,,,,,,,,,,,,,,,,
,,,,,,,,,,,,,,,8254,2022-01-26_11h26.41.110,multiplicationStroop,2021.2.3,Win32,60.17571308,,,,,right,1,0.6254,0,8,8,19,1,4,9,4 | 9,5,1.4111,1.9756,congruent,right,,,,,,stimulusFile/magnitude.xlsx,,,,,,,,,,,,,,,,,,,,,,,,,,,,,,,
,,,,,,,,,,,,,,,8254,2022-01-26_11h26.41.110,multiplicationStroop,2021.2.3,Win32,60.17571308,,,,,left,1,0.6711,0,9,9,4,1,2,1,2 | 1,1,1.9756,1.4111,congruent,left,,,,,,stimulusFile/magnitude.xlsx,,,,,,,,,,,,,,,,,,,,,,,,,,,,,,,
,,,,,,,,,,,,,,,8254,2022-01-26_11h26.41.110,multiplicationStroop,2021.2.3,Win32,60.17571308,,,,,left,1,0.5978,0,10,10,23,1,9,4,9 | 4,5,1.9756,1.4111,congruent,left,,,,,,stimulusFile/magnitude.xlsx,,,,,,,,,,,,,,,,,,,,,,,,,,,,,,,
,,,,,,,,,,,,,,,8254,2022-01-26_11h26.41.110,multiplicationStroop,2021.2.3,Win32,60.17571308,,,,,right,1,0.7171,0,11,11,33,1,2,4,2 | 4,2,1.9756,1.4111,incongruent,right,,,,,,stimulusFile/magnitude.xlsx,,,,,,,,,,,,,,,,,,,,,,,,,,,,,,,
,,,,,,,,,,,,,,,8254,2022-01-26_11h26.41.110,multiplicationStroop,2021.2.3,Win32,60.17571308,,,,,right,1,0.877,0,12,12,66,1,3,8,3 | 8,5,1.6933,1.6933,neutral,right,,,,,,stimulusFile/magnitude.xlsx,,,,,,,,,,,,,,,,,,,,,,,,,,,,,,,
,,,,,,,,,,,,,,,8254,2022-01-26_11h26.41.110,multiplicationStroop,2021.2.3,Win32,60.17571308,,,,,right,1,0.5362,0,13,13,8,1,1,3,1 | 3,2,1.4111,1.9756,congruent,right,,,,,,stimulusFile/magnitude.xlsx,,,,,,,,,,,,,,,,,,,,,,,,,,,,,,,
,,,,,,,,,,,,,,,8254,2022-01-26_11h26.41.110,multiplicationStroop,2021.2.3,Win32,60.17571308,,,,,left,1,0.6311,0,14,14,20,1,6,1,6 | 1,5,1.9756,1.4111,congruent,left,,,,,,stimulusFile/magnitude.xlsx,,,,,,,,,,,,,,,,,,,,,,,,,,,,,,,
,,,,,,,,,,,,,,,8254,2022-01-26_11h26.41.110,multiplicationStroop,2021.2.3,Win32,60.17571308,,,,,right,1,0.6006,0,15,15,65,1,2,7,2 | 7,5,1.6933,1.6933,neutral,right,,,,,,stimulusFile/magnitude.xlsx,,,,,,,,,,,,,,,,,,,,,,,,,,,,,,,
,,,,,,,,,,,,,,,8254,2022-01-26_11h26.41.110,multiplicationStroop,2021.2.3,Win32,60.17571308,,,,,right,1,0.9438,0,16,16,2,1,6,7,6 | 7,1,1.4111,1.9756,congruent,right,,,,,,stimulusFile/magnitude.xlsx,,,,,,,,,,,,,,,,,,,,,,,,,,,,,,,
,,,,,,,,,,,,,,,8254,2022-01-26_11h26.41.110,multiplicationStroop,2021.2.3,Win32,60.17571308,,,,,left,1,0.7677,0,17,17,37,1,4,2,4 | 2,2,1.4111,1.9756,incongruent,left,,,,,,stimulusFile/magnitude.xlsx,,,,,,,,,,,,,,,,,,,,,,,,,,,,,,,
,,,,,,,,,,,,,,,8254,2022-01-26_11h26.41.110,multiplicationStroop,2021.2.3,Win32,60.17571308,,,,,left,1,0.6035,0,18,18,21,1,7,2,7 | 2,5,1.9756,1.4111,congruent,left,,,,,,stimulusFile/magnitude.xlsx,,,,,,,,,,,,,,,,,,,,,,,,,,,,,,,
,,,,,,,,,,,,,,,8254,2022-01-26_11h26.41.110,multiplicationStroop,2021.2.3,Win32,60.17571308,,,,,right,1,0.676,0,19,19,17,1,2,7,2 | 7,5,1.4111,1.9756,congruent,right,,,,,,stimulusFile/magnitude.xlsx,,,,,,,,,,,,,,,,,,,,,,,,,,,,,,,
,,,,,,,,,,,,,,,8254,2022-01-26_11h26.41.110,multiplicationStroop,2021.2.3,Win32,60.17571308,,,,,right,1,0.8568,0,20,20,64,1,1,6,1 | 6,5,1.6933,1.6933,neutral,right,,,,,,stimulusFile/magnitude.xlsx,,,,,,,,,,,,,,,,,,,,,,,,,,,,,,,
,,,,,,,,,,,,,,,8254,2022-01-26_11h26.41.110,multiplicationStroop,2021.2.3,Win32,60.17571308,,,,,left,1,0.6691,0,21,21,12,1,3,1,3 | 1,2,1.9756,1.4111,congruent,left,,,,,,stimulusFile/magnitude.xlsx,,,,,,,,,,,,,,,,,,,,,,,,,,,,,,,
,,,,,,,,,,,,,,,8254,2022-01-26_11h26.41.110,multiplicationStroop,2021.2.3,Win32,60.17571308,,,,,right,1,0.7332,0,22,22,50,1,6,7,6 | 7,1,1.6933,1.6933,neutral,right,,,,,,stimulusFile/magnitude.xlsx,,,,,,,,,,,,,,,,,,,,,,,,,,,,,,,
,,,,,,,,,,,,,,,8254,2022-01-26_11h26.41.110,multiplicationStroop,2021.2.3,Win32,60.17571308,,,,,left,1,0.5864,0,23,23,70,1,8,3,8 | 3,5,1.6933,1.6933,neutral,left,,,,,,stimulusFile/magnitude.xlsx,,,,,,,,,,,,,,,,,,,,,,,,,,,,,,,
,,,,,,,,,,,,,,,8254,2022-01-26_11h26.41.110,multiplicationStroop,2021.2.3,Win32,60.17571308,,,,,right,1,0.5552,0,24,24,16,1,1,6,1 | 6,5,1.4111,1.9756,congruent,right,,,,,,stimulusFile/magnitude.xlsx,,,,,,,,,,,,,,,,,,,,,,,,,,,,,,,
,,,,,,,,,,,,,,,8254,2022-01-26_11h26.41.110,multiplicationStroop,2021.2.3,Win32,60.17571308,,,,,right,1,0.8993,0,25,25,27,1,8,9,8 | 9,1,1.9756,1.4111,incongruent,right,,,,,,stimulusFile/magnitude.xlsx,,,,,,,,,,,,,,,,,,,,,,,,,,,,,,,
,,,,,,,,,,,,,,,8254,2022-01-26_11h26.41.110,multiplicationStroop,2021.2.3,Win32,60.17571308,,,,,left,1,0.7911,0,26,26,36,1,3,1,3 | 1,2,1.4111,1.9756,incongruent,left,,,,,,stimulusFile/magnitude.xlsx,,,,,,,,,,,,,,,,,,,,,,,,,,,,,,,
,,,,,,,,,,,,,,,8254,2022-01-26_11h26.41.110,multiplicationStroop,2021.2.3,Win32,60.17571308,,,,,left,1,0.7957,0,27,27,6,1,7,6,7 | 6,1,1.9756,1.4111,congruent,left,,,,,,stimulusFile/magnitude.xlsx,,,,,,,,,,,,,,,,,,,,,,,,,,,,,,,
,,,,,,,,,,,,,,,8254,2022-01-26_11h26.41.110,multiplicationStroop,2021.2.3,Win32,60.17571308,,,,,left,1,0.7333,0,28,28,46,1,8,3,8 | 3,5,1.4111,1.9756,incongruent,left,,,,,,stimulusFile/magnitude.xlsx,,,,,,,,,,,,,,,,,,,,,,,,,,,,,,,
,,,,,,,,,,,,,,,8254,2022-01-26_11h26.41.110,multiplicationStroop,2021.2.3,Win32,60.17571308,,,,,right,1,0.829,0,29,29,41,1,2,7,2 | 7,5,1.9756,1.4111,incongruent,right,,,,,,stimulusFile/magnitude.xlsx,,,,,,,,,,,,,,,,,,,,,,,,,,,,,,,
,,,,,,,,,,,,,,,8254,2022-01-26_11h26.41.110,multiplicationStroop,2021.2.3,Win32,60.17571308,,,,,right,0,1.405,0,30,30,55,1,9,8,9 | 8,1,1.6933,1.6933,neutral,left,,,,,,stimulusFile/magnitude.xlsx,,,,,,,,,,,,,,,,,,,,,,,,,,,,,,,
,,,,,,,,,,,,,,,8254,2022-01-26_11h26.41.110,multiplicationStroop,2021.2.3,Win32,60.17571308,,,,,right,0,1.1145,0,31,31,31,1,9,8,9 | 8,1,1.4111,1.9756,incongruent,left,,,,,,stimulusFile/magnitude.xlsx,,,,,,,,,,,,,,,,,,,,,,,,,,,,,,,
,,,,,,,,,,,,,,,8254,2022-01-26_11h26.41.110,multiplicationStroop,2021.2.3,Win32,60.17571308,,,,,left,1,2.1709,0,32,32,39,1,9,7,9 | 7,2,1.4111,1.9756,incongruent,left,,,,,,stimulusFile/magnitude.xlsx,,,,,,,,,,,,,,,,,,,,,,,,,,,,,,,
,,,,,,,,,,,,,,,8254,2022-01-26_11h26.41.110,multiplicationStroop,2021.2.3,Win32,60.17571308,,,,,right,1,0.7887,0,33,33,67,1,4,9,4 | 9,5,1.6933,1.6933,neutral,right,,,,,,stimulusFile/magnitude.xlsx,,,,,,,,,,,,,,,,,,,,,,,,,,,,,,,
,,,,,,,,,,,,,,,8254,2022-01-26_11h26.41.110,multiplicationStroop,2021.2.3,Win32,60.17571308,,,,,right,1,0.8444,0,34,34,24,1,1,2,1 | 2,1,1.9756,1.4111,incongruent,right,,,,,,stimulusFile/magnitude.xlsx,,,,,,,,,,,,,,,,,,,,,,,,,,,,,,,
,,,,,,,,,,,,,,,8254,2022-01-26_11h26.41.110,multiplicationStroop,2021.2.3,Win32,60.17571308,,,,,left,1,0.5976,0,35,35,71,1,9,4,9 | 4,5,1.6933,1.6933,neutral,left,,,,,,stimulusFile/magnitude.xlsx,,,,,,,,,,,,,,,,,,,,,,,,,,,,,,,
,,,,,,,,,,,,,,,8254,2022-01-26_11h26.41.110,multiplicationStroop,2021.2.3,Win32,60.17571308,,,,,right,1,0.7622,0,36,36,25,1,3,4,3 | 4,1,1.9756,1.4111,incongruent,right,,,,,,stimulusFile/magnitude.xlsx,,,,,,,,,,,,,,,,,,,,,,,,,,,,,,,
,,,,,,,,,,,,,,,8254,2022-01-26_11h26.41.110,multiplicationStroop,2021.2.3,Win32,60.17571308,,,,,left,1,0.9102,0,37,37,52,1,2,1,2 | 1,1,1.6933,1.6933,neutral,left,,,,,,stimulusFile/magnitude.xlsx,,,,,,,,,,,,,,,,,,,,,,,,,,,,,,,
,,,,,,,,,,,,,,,8254,2022-01-26_11h26.41.110,multiplicationStroop,2021.2.3,Win32,60.17571308,,,,,left,1,0.8678,0,38,38,47,1,9,4,9 | 4,5,1.4111,1.9756,incongruent,left,,,,,,stimulusFile/magnitude.xlsx,,,,,,,,,,,,,,,,,,,,,,,,,,,,,,,
,,,,,,,,,,,,,,,8254,2022-01-26_11h26.41.110,multiplicationStroop,2021.2.3,Win32,60.17571308,,,,,right,1,0.6676,0,39,39,48,1,1,2,1 | 2,1,1.6933,1.6933,neutral,right,,,,,,stimulusFile/magnitude.xlsx,,,,,,,,,,,,,,,,,,,,,,,,,,,,,,,
,,,,,,,,,,,,,,,8254,2022-01-26_11h26.41.110,multiplicationStroop,2021.2.3,Win32,60.17571308,,,,,right,1,0.7304,0,40,40,59,1,7,9,7 | 9,2,1.6933,1.6933,neutral,right,,,,,,stimulusFile/magnitude.xlsx,,,,,,,,,,,,,,,,,,,,,,,,,,,,,,,
,,,,,,,,,,,,,,,8254,2022-01-26_11h26.41.110,multiplicationStroop,2021.2.3,Win32,60.17571308,,,,,left,1,0.6387,0,41,41,13,1,4,2,4 | 2,2,1.9756,1.4111,congruent,left,,,,,,stimulusFile/magnitude.xlsx,,,,,,,,,,,,,,,,,,,,,,,,,,,,,,,
,,,,,,,,,,,,,,,8254,2022-01-26_11h26.41.110,multiplicationStroop,2021.2.3,Win32,60.17571308,,,,,left,1,0.7816,0,42,42,14,1,8,6,8 | 6,2,1.9756,1.4111,congruent,left,,,,,,stimulusFile/magnitude.xlsx,,,,,,,,,,,,,,,,,,,,,,,,,,,,,,,
,,,,,,,,,,,,,,,8254,2022-01-26_11h26.41.110,multiplicationStroop,2021.2.3,Win32,60.17571308,,,,,right,1,0.6524,0,43,43,42,1,3,8,3 | 8,5,1.9756,1.4111,incongruent,right,,,,,,stimulusFile/magnitude.xlsx,,,,,,,,,,,,,,,,,,,,,,,,,,,,,,,
,,,,,,,,,,,,,,,8254,2022-01-26_11h26.41.110,multiplicationStroop,2021.2.3,Win32,60.17571308,,,,,right,1,0.695,0,44,44,43,1,4,9,4 | 9,5,1.9756,1.4111,incongruent,right,,,,,,stimulusFile/magnitude.xlsx,,,,,,,,,,,,,,,,,,,,,,,,,,,,,,,
,,,,,,,,,,,,,,,8254,2022-01-26_11h26.41.110,multiplicationStroop,2021.2.3,Win32,60.17571308,,,,,right,1,0.9145,0,45,45,10,1,6,8,6 | 8,2,1.4111,1.9756,congruent,right,,,,,,stimulusFile/magnitude.xlsx,,,,,,,,,,,,,,,,,,,,,,,,,,,,,,,
,,,,,,,,,,,,,,,8254,2022-01-26_11h26.41.110,multiplicationStroop,2021.2.3,Win32,60.17571308,,,,,left,1,0.6235,0,46,46,28,1,2,1,2 | 1,1,1.4111,1.9756,incongruent,left,,,,,,stimulusFile/magnitude.xlsx,,,,,,,,,,,,,,,,,,,,,,,,,,,,,,,
,,,,,,,,,,,,,,,8254,2022-01-26_11h26.41.110,multiplicationStroop,2021.2.3,Win32,60.17571308,,,,,right,1,0.6578,0,47,47,9,1,2,4,2 | 4,2,1.4111,1.9756,congruent,right,,,,,,stimulusFile/magnitude.xlsx,,,,,,,,,,,,,,,,,,,,,,,,,,,,,,,
,,,,,,,,,,,,,,,8254,2022-01-26_11h26.41.110,multiplicationStroop,2021.2.3,Win32,60.17571308,,,,,right,0,1.4118,0,48,48,61,1,4,2,4 | 2,2,1.6933,1.6933,neutral,left,,,,,,stimulusFile/magnitude.xlsx,,,,,,,,,,,,,,,,,,,,,,,,,,,,,,,
,,,,,,,,,,,,,,,8254,2022-01-26_11h26.41.110,multiplicationStroop,2021.2.3,Win32,60.17571308,,,,,right,1,1.3132,0,49,49,56,1,1,3,1 | 3,2,1.6933,1.6933,neutral,right,,,,,,stimulusFile/magnitude.xlsx,,,,,,,,,,,,,,,,,,,,,,,,,,,,,,,
,,,,,,,,,,,,,,,8254,2022-01-26_11h26.41.110,multiplicationStroop,2021.2.3,Win32,60.17571308,,,,,right,1,0.7099,0,50,50,18,1,3,8,3 | 8,5,1.4111,1.9756,congruent,right,,,,,,stimulusFile/magnitude.xlsx,,,,,,,,,,,,,,,,,,,,,,,,,,,,,,,
,,,,,,,,,,,,,,,8254,2022-01-26_11h26.41.110,multiplicationStroop,2021.2.3,Win32,60.17571308,,,,,left,1,0.5972,0,51,51,44,1,6,1,6 | 1,5,1.4111,1.9756,incongruent,left,,,,,,stimulusFile/magnitude.xlsx,,,,,,,,,,,,,,,,,,,,,,,,,,,,,,,
,,,,,,,,,,,,,,,8254,2022-01-26_11h26.41.110,multiplicationStroop,2021.2.3,Win32,60.17571308,,,,,right,1,0.6124,0,52,52,0,1,1,2,1 | 2,1,1.4111,1.9756,congruent,right,,,,,,stimulusFile/magnitude.xlsx,,,,,,,,,,,,,,,,,,,,,,,,,,,,,,,
,,,,,,,,,,,,,,,8254,2022-01-26_11h26.41.110,multiplicationStroop,2021.2.3,Win32,60.17571308,,,,,right,1,0.6685,0,53,53,35,1,7,9,7 | 9,2,1.9756,1.4111,incongruent,right,,,,,,stimulusFile/magnitude.xlsx,,,,,,,,,,,,,,,,,,,,,,,,,,,,,,,
,,,,,,,,,,,,,,,8254,2022-01-26_11h26.41.110,multiplicationStroop,2021.2.3,Win32,60.17571308,,,,,left,1,0.6001,0,54,54,53,1,4,3,4 | 3,1,1.6933,1.6933,neutral,left,,,,,,stimulusFile/magnitude.xlsx,,,,,,,,,,,,,,,,,,,,,,,,,,,,,,,
,,,,,,,,,,,,,,,8254,2022-01-26_11h26.41.110,multiplicationStroop,2021.2.3,Win32,60.17571308,,,,,left,1,0.9987,0,55,55,54,1,7,6,7 | 6,1,1.6933,1.6933,neutral,left,,,,,,stimulusFile/magnitude.xlsx,,,,,,,,,,,,,,,,,,,,,,,,,,,,,,,
,,,,,,,,,,,,,,,8254,2022-01-26_11h26.41.110,multiplicationStroop,2021.2.3,Win32,60.17571308,,,,,right,1,0.6605,0,56,56,58,1,6,8,6 | 8,2,1.6933,1.6933,neutral,right,,,,,,stimulusFile/magnitude.xlsx,,,,,,,,,,,,,,,,,,,,,,,,,,,,,,,
,,,,,,,,,,,,,,,8254,2022-01-26_11h26.41.110,multiplicationStroop,2021.2.3,Win32,60.17571308,,,,,left,1,1.043,0,57,57,45,1,7,2,7 | 2,5,1.4111,1.9756,incongruent,left,,,,,,stimulusFile/magnitude.xlsx,,,,,,,,,,,,,,,,,,,,,,,,,,,,,,,
,,,,,,,,,,,,,,,8254,2022-01-26_11h26.41.110,multiplicationStroop,2021.2.3,Win32,60.17571308,,,,,left,1,0.777,0,58,58,29,1,4,3,4 | 3,1,1.4111,1.9756,incongruent,left,,,,,,stimulusFile/magnitude.xlsx,,,,,,,,,,,,,,,,,,,,,,,,,,,,,,,
,,,,,,,,,,,,,,,8254,2022-01-26_11h26.41.110,multiplicationStroop,2021.2.3,Win32,60.17571308,,,,,left,1,0.6218,0,59,59,5,1,4,3,4 | 3,1,1.9756,1.4111,congruent,left,,,,,,stimulusFile/magnitude.xlsx,,,,,,,,,,,,,,,,,,,,,,,,,,,,,,,
,,,,,,,,,,,,,,,8254,2022-01-26_11h26.41.110,multiplicationStroop,2021.2.3,Win32,60.17571308,,,,,left,1,0.7237,0,60,60,63,1,9,7,9 | 7,2,1.6933,1.6933,neutral,left,,,,,,stimulusFile/magnitude.xlsx,,,,,,,,,,,,,,,,,,,,,,,,,,,,,,,
,,,,,,,,,,,,,,,8254,2022-01-26_11h26.41.110,multiplicationStroop,2021.2.3,Win32,60.17571308,,,,,right,1,0.4949,0,61,61,32,1,1,3,1 | 3,2,1.9756,1.4111,incongruent,right,,,,,,stimulusFile/magnitude.xlsx,,,,,,,,,,,,,,,,,,,,,,,,,,,,,,,
,,,,,,,,,,,,,,,8254,2022-01-26_11h26.41.110,multiplicationStroop,2021.2.3,Win32,60.17571308,,,,,right,1,0.5929,0,62,62,57,1,2,4,2 | 4,2,1.6933,1.6933,neutral,right,,,,,,stimulusFile/magnitude.xlsx,,,,,,,,,,,,,,,,,,,,,,,,,,,,,,,
,,,,,,,,,,,,,,,8254,2022-01-26_11h26.41.110,multiplicationStroop,2021.2.3,Win32,60.17571308,,,,,left,1,0.6813,0,63,63,62,1,8,6,8 | 6,2,1.6933,1.6933,neutral,left,,,,,,stimulusFile/magnitude.xlsx,,,,,,,,,,,,,,,,,,,,,,,,,,,,,,,
,,,,,,,,,,,,,,,8254,2022-01-26_11h26.41.110,multiplicationStroop,2021.2.3,Win32,60.17571308,,,,,right,1,0.6207,0,64,64,51,1,8,9,8 | 9,1,1.6933,1.6933,neutral,right,,,,,,stimulusFile/magnitude.xlsx,,,,,,,,,,,,,,,,,,,,,,,,,,,,,,,
,,,,,,,,,,,,,,,8254,2022-01-26_11h26.41.110,multiplicationStroop,2021.2.3,Win32,60.17571308,,,,,right,1,0.6332,0,65,65,1,1,3,4,3 | 4,1,1.4111,1.9756,congruent,right,,,,,,stimulusFile/magnitude.xlsx,,,,,,,,,,,,,,,,,,,,,,,,,,,,,,,
,,,,,,,,,,,,,,,8254,2022-01-26_11h26.41.110,multiplicationStroop,2021.2.3,Win32,60.17571308,,,,,left,1,0.801,0,66,66,38,1,8,6,8 | 6,2,1.4111,1.9756,incongruent,left,,,,,,stimulusFile/magnitude.xlsx,,,,,,,,,,,,,,,,,,,,,,,,,,,,,,,
,,,,,,,,,,,,,,,8254,2022-01-26_11h26.41.110,multiplicationStroop,2021.2.3,Win32,60.17571308,,,,,left,1,0.528,0,67,67,7,1,9,8,9 | 8,1,1.9756,1.4111,congruent,left,,,,,,stimulusFile/magnitude.xlsx,,,,,,,,,,,,,,,,,,,,,,,,,,,,,,,
,,,,,,,,,,,,,,,8254,2022-01-26_11h26.41.110,multiplicationStroop,2021.2.3,Win32,60.17571308,,,,,left,1,0.548,0,68,68,69,1,7,2,7 | 2,5,1.6933,1.6933,neutral,left,,,,,,stimulusFile/magnitude.xlsx,,,,,,,,,,,,,,,,,,,,,,,,,,,,,,,
,,,,,,,,,,,,,,,8254,2022-01-26_11h26.41.110,multiplicationStroop,2021.2.3,Win32,60.17571308,,,,,left,1,0.5527,0,69,69,60,1,3,1,3 | 1,2,1.6933,1.6933,neutral,left,,,,,,stimulusFile/magnitude.xlsx,,,,,,,,,,,,,,,,,,,,,,,,,,,,,,,
,,,,,,,,,,,,,,,8254,2022-01-26_11h26.41.110,multiplicationStroop,2021.2.3,Win32,60.17571308,,,,,left,1,0.6112,0,70,70,22,1,8,3,8 | 3,5,1.9756,1.4111,congruent,left,,,,,,stimulusFile/magnitude.xlsx,,,,,,,,,,,,,,,,,,,,,,,,,,,,,,,
,,,,,,,,,,,,,,,8254,2022-01-26_11h26.41.110,multiplicationStroop,2021.2.3,Win32,60.17571308,,,,,right,1,0.571,0,71,71,3,1,8,9,8 | 9,1,1.4111,1.9756,congruent,right,,,,,,stimulusFile/magnitude.xlsx,,,,,,,,,,,,,,,,,,,,,,,,,,,,,,,
,,,,,,,,,,,,,,,8254,2022-01-26_11h26.41.110,multiplicationStroop,2021.2.3,Win32,60.17571308,,,,,,,,,,,,,,,,,,,,,0,0,0,0,1,stimulusFile/magnitude.xlsx,NUMERICALLY larger (larger coefficient).,images/numericallyLarger.png,,,,,,,,,,,,,,,,,,,,,,,,,,,,,
,,,,,,,,,,,,,,,8254,2022-01-26_11h26.41.110,multiplicationStroop,2021.2.3,Win32,60.17571308,space,10.772,space,13.4695,right,1,0.8632,0,0,0,31,1,9,8,9 | 8,1,1.4111,1.9756,incongruent,right,,,,,,stimulusFile/physical.xlsx,,,,,,,,,,,,,,,,,,,,,,,,,,,,,,,
,,,,,,,,,,,,,,,8254,2022-01-26_11h26.41.110,multiplicationStroop,2021.2.3,Win32,60.17571308,,,,,right,1,0.6681,0,1,1,18,1,3,8,3 | 8,5,1.4111,1.9756,congruent,right,,,,,,stimulusFile/physical.xlsx,,,,,,,,,,,,,,,,,,,,,,,,,,,,,,,
,,,,,,,,,,,,,,,8254,2022-01-26_11h26.41.110,multiplicationStroop,2021.2.3,Win32,60.17571308,,,,,right,1,0.5705,0,2,2,1,1,3,4,3 | 4,1,1.4111,1.9756,congruent,right,,,,,,stimulusFile/physical.xlsx,,,,,,,,,,,,,,,,,,,,,,,,,,,,,,,
,,,,,,,,,,,,,,,8254,2022-01-26_11h26.41.110,multiplicationStroop,2021.2.3,Win32,60.17571308,,,,,right,1,0.6264,0,3,3,10,1,6,8,6 | 8,2,1.4111,1.9756,congruent,right,,,,,,stimulusFile/physical.xlsx,,,,,,,,,,,,,,,,,,,,,,,,,,,,,,,
,,,,,,,,,,,,,,,8254,2022-01-26_11h26.41.110,multiplicationStroop,2021.2.3,Win32,60.17571308,,,,,right,1,0.5981,0,4,4,56,1,1,1,1 | 1,0,1.4111,1.9756,neutral,right,,,,,,stimulusFile/physical.xlsx,,,,,,,,,,,,,,,,,,,,,,,,,,,,,,,
,,,,,,,,,,,,,,,8254,2022-01-26_11h26.41.110,multiplicationStroop,2021.2.3,Win32,60.17571308,,,,,left,1,0.5598,0,5,5,33,1,2,4,2 | 4,2,1.9756,1.4111,incongruent,left,,,,,,stimulusFile/physical.xlsx,,,,,,,,,,,,,,,,,,,,,,,,,,,,,,,
,,,,,,,,,,,,,,,8254,2022-01-26_11h26.41.110,multiplicationStroop,2021.2.3,Win32,60.17571308,,,,,right,1,0.7101,0,6,6,37,1,4,2,4 | 2,2,1.4111,1.9756,incongruent,right,,,,,,stimulusFile/physical.xlsx,,,,,,,,,,,,,,,,,,,,,,,,,,,,,,,
,,,,,,,,,,,,,,,8254,2022-01-26_11h26.41.110,multiplicationStroop,2021.2.3,Win32,60.17571308,,,,,left,1,0.5674,0,7,7,49,1,3,3,3 | 3,0,1.9756,1.4111,neutral,left,,,,,,stimulusFile/physical.xlsx,,,,,,,,,,,,,,,,,,,,,,,,,,,,,,,
,,,,,,,,,,,,,,,8254,2022-01-26_11h26.41.110,multiplicationStroop,2021.2.3,Win32,60.17571308,,,,,left,1,0.726,0,8,8,43,1,4,9,4 | 9,5,1.9756,1.4111,incongruent,left,,,,,,stimulusFile/physical.xlsx,,,,,,,,,,,,,,,,,,,,,,,,,,,,,,,
,,,,,,,,,,,,,,,8254,2022-01-26_11h26.41.110,multiplicationStroop,2021.2.3,Win32,60.17571308,,,,,right,1,0.5302,0,9,9,8,1,1,3,1 | 3,2,1.4111,1.9756,congruent,right,,,,,,stimulusFile/physical.xlsx,,,,,,,,,,,,,,,,,,,,,,,,,,,,,,,
,,,,,,,,,,,,,,,8254,2022-01-26_11h26.41.110,multiplicationStroop,2021.2.3,Win32,60.17571308,,,,,left,1,0.883,0,10,10,68,1,6,6,6 | 6,0,1.9756,1.4111,neutral,left,,,,,,stimulusFile/physical.xlsx,,,,,,,,,,,,,,,,,,,,,,,,,,,,,,,
,,,,,,,,,,,,,,,8254,2022-01-26_11h26.41.110,multiplicationStroop,2021.2.3,Win32,60.17571308,,,,,right,1,0.5691,0,11,11,3,1,8,9,8 | 9,1,1.4111,1.9756,congruent,right,,,,,,stimulusFile/physical.xlsx,,,,,,,,,,,,,,,,,,,,,,,,,,,,,,,
,,,,,,,,,,,,,,,8254,2022-01-26_11h26.41.110,multiplicationStroop,2021.2.3,Win32,60.17571308,,,,,left,1,0.8787,0,12,12,42,1,3,8,3 | 8,5,1.9756,1.4111,incongruent,left,,,,,,stimulusFile/physical.xlsx,,,,,,,,,,,,,,,,,,,,,,,,,,,,,,,
,,,,,,,,,,,,,,,8254,2022-01-26_11h26.41.110,multiplicationStroop,2021.2.3,Win32,60.17571308,,,,,left,1,0.6725,0,13,13,32,1,1,3,1 | 3,2,1.9756,1.4111,incongruent,left,,,,,,stimulusFile/physical.xlsx,,,,,,,,,,,,,,,,,,,,,,,,,,,,,,,
,,,,,,,,,,,,,,,8254,2022-01-26_11h26.41.110,multiplicationStroop,2021.2.3,Win32,60.17571308,,,,,right,0,0.4752,0,14,14,71,1,9,9,9 | 9,0,1.4111,1.9756,neutral,left,,,,,,stimulusFile/physical.xlsx,,,,,,,,,,,,,,,,,,,,,,,,,,,,,,,
,,,,,,,,,,,,,,,8254,2022-01-26_11h26.41.110,multiplicationStroop,2021.2.3,Win32,60.17571308,,,,,left,1,0.5447,0,15,15,53,1,4,4,4 | 4,0,1.9756,1.4111,neutral,left,,,,,,stimulusFile/physical.xlsx,,,,,,,,,,,,,,,,,,,,,,,,,,,,,,,
,,,,,,,,,,,,,,,8254,2022-01-26_11h26.41.110,multiplicationStroop,2021.2.3,Win32,60.17571308,,,,,left,1,0.6198,0,16,16,14,1,8,6,8 | 6,2,1.9756,1.4111,congruent,left,,,,,,stimulusFile/physical.xlsx,,,,,,,,,,,,,,,,,,,,,,,,,,,,,,,
,,,,,,,,,,,,,,,8254,2022-01-26_11h26.41.110,multiplicationStroop,2021.2.3,Win32,60.17571308,,,,,left,1,0.5221,0,17,17,12,1,3,1,3 | 1,2,1.9756,1.4111,congruent,left,,,,,,stimulusFile/physical.xlsx,,,,,,,,,,,,,,,,,,,,,,,,,,,,,,,
,,,,,,,,,,,,,,,8254,2022-01-26_11h26.41.110,multiplicationStroop,2021.2.3,Win32,60.17571308,,,,,right,1,0.4467,0,18,18,16,1,1,6,1 | 6,5,1.4111,1.9756,congruent,right,,,,,,stimulusFile/physical.xlsx,,,,,,,,,,,,,,,,,,,,,,,,,,,,,,,
,,,,,,,,,,,,,,,8254,2022-01-26_11h26.41.110,multiplicationStroop,2021.2.3,Win32,60.17571308,,,,,left,1,0.6194,0,19,19,34,1,6,8,6 | 8,2,1.9756,1.4111,incongruent,left,,,,,,stimulusFile/physical.xlsx,,,,,,,,,,,,,,,,,,,,,,,,,,,,,,,
,,,,,,,,,,,,,,,8254,2022-01-26_11h26.41.110,multiplicationStroop,2021.2.3,Win32,60.17571308,,,,,left,1,0.7182,0,20,20,51,1,8,8,8 | 8,0,1.9756,1.4111,neutral,left,,,,,,stimulusFile/physical.xlsx,,,,,,,,,,,,,,,,,,,,,,,,,,,,,,,
,,,,,,,,,,,,,,,8254,2022-01-26_11h26.41.110,multiplicationStroop,2021.2.3,Win32,60.17571308,,,,,right,1,0.5409,0,21,21,59,1,7,7,7 | 7,0,1.4111,1.9756,neutral,right,,,,,,stimulusFile/physical.xlsx,,,,,,,,,,,,,,,,,,,,,,,,,,,,,,,
,,,,,,,,,,,,,,,8254,2022-01-26_11h26.41.110,multiplicationStroop,2021.2.3,Win32,60.17571308,,,,,right,1,0.5878,0,22,22,57,1,2,2,2 | 2,0,1.4111,1.9756,neutral,right,,,,,,stimulusFile/physical.xlsx,,,,,,,,,,,,,,,,,,,,,,,,,,,,,,,
,,,,,,,,,,,,,,,8254,2022-01-26_11h26.41.110,multiplicationStroop,2021.2.3,Win32,60.17571308,,,,,right,1,0.5966,0,23,23,63,1,9,9,9 | 9,0,1.4111,1.9756,neutral,right,,,,,,stimulusFile/physical.xlsx,,,,,,,,,,,,,,,,,,,,,,,,,,,,,,,
,,,,,,,,,,,,,,,8254,2022-01-26_11h26.41.110,multiplicationStroop,2021.2.3,Win32,60.17571308,,,,,right,1,0.529,0,24,24,9,1,2,4,2 | 4,2,1.4111,1.9756,congruent,right,,,,,,stimulusFile/physical.xlsx,,,,,,,,,,,,,,,,,,,,,,,,,,,,,,,
,,,,,,,,,,,,,,,8254,2022-01-26_11h26.41.110,multiplicationStroop,2021.2.3,Win32,60.17571308,,,,,left,0,0.4988,0,25,25,36,1,3,1,3 | 1,2,1.4111,1.9756,incongruent,right,,,,,,stimulusFile/physical.xlsx,,,,,,,,,,,,,,,,,,,,,,,,,,,,,,,
,,,,,,,,,,,,,,,8254,2022-01-26_11h26.41.110,multiplicationStroop,2021.2.3,Win32,60.17571308,,,,,left,1,1.4064,0,26,26,35,1,7,9,7 | 9,2,1.9756,1.4111,incongruent,left,,,,,,stimulusFile/physical.xlsx,,,,,,,,,,,,,,,,,,,,,,,,,,,,,,,
,,,,,,,,,,,,,,,8254,2022-01-26_11h26.41.110,multiplicationStroop,2021.2.3,Win32,60.17571308,,,,,right,1,0.5493,0,27,27,38,1,8,6,8 | 6,2,1.4111,1.9756,incongruent,right,,,,,,stimulusFile/physical.xlsx,,,,,,,,,,,,,,,,,,,,,,,,,,,,,,,
,,,,,,,,,,,,,,,8254,2022-01-26_11h26.41.110,multiplicationStroop,2021.2.3,Win32,60.17571308,,,,,left,1,0.9449,0,28,28,50,1,6,6,6 | 6,0,1.9756,1.4111,neutral,left,,,,,,stimulusFile/physical.xlsx,,,,,,,,,,,,,,,,,,,,,,,,,,,,,,,
,,,,,,,,,,,,,,,8254,2022-01-26_11h26.41.110,multiplicationStroop,2021.2.3,Win32,60.17571308,,,,,right,1,0.5188,0,29,29,39,1,9,7,9 | 7,2,1.4111,1.9756,incongruent,right,,,,,,stimulusFile/physical.xlsx,,,,,,,,,,,,,,,,,,,,,,,,,,,,,,,
,,,,,,,,,,,,,,,8254,2022-01-26_11h26.41.110,multiplicationStroop,2021.2.3,Win32,60.17571308,,,,,right,1,0.6068,0,30,30,67,1,4,4,4 | 4,0,1.4111,1.9756,neutral,right,,,,,,stimulusFile/physical.xlsx,,,,,,,,,,,,,,,,,,,,,,,,,,,,,,,
,,,,,,,,,,,,,,,8254,2022-01-26_11h26.41.110,multiplicationStroop,2021.2.3,Win32,60.17571308,,,,,right,1,0.4831,0,31,31,0,1,1,2,1 | 2,1,1.4111,1.9756,congruent,right,,,,,,stimulusFile/physical.xlsx,,,,,,,,,,,,,,,,,,,,,,,,,,,,,,,
,,,,,,,,,,,,,,,8254,2022-01-26_11h26.41.110,multiplicationStroop,2021.2.3,Win32,60.17571308,,,,,left,1,0.6742,0,32,32,70,1,8,8,8 | 8,0,1.9756,1.4111,neutral,left,,,,,,stimulusFile/physical.xlsx,,,,,,,,,,,,,,,,,,,,,,,,,,,,,,,
,,,,,,,,,,,,,,,8254,2022-01-26_11h26.41.110,multiplicationStroop,2021.2.3,Win32,60.17571308,,,,,left,1,0.5775,0,33,33,6,1,7,6,7 | 6,1,1.9756,1.4111,congruent,left,,,,,,stimulusFile/physical.xlsx,,,,,,,,,,,,,,,,,,,,,,,,,,,,,,,
,,,,,,,,,,,,,,,8254,2022-01-26_11h26.41.110,multiplicationStroop,2021.2.3,Win32,60.17571308,,,,,left,1,0.444,0,34,34,4,1,2,1,2 | 1,1,1.9756,1.4111,congruent,left,,,,,,stimulusFile/physical.xlsx,,,,,,,,,,,,,,,,,,,,,,,,,,,,,,,
,,,,,,,,,,,,,,,8254,2022-01-26_11h26.41.110,multiplicationStroop,2021.2.3,Win32,60.17571308,,,,,left,1,0.4656,0,35,35,21,1,7,2,7 | 2,5,1.9756,1.4111,congruent,left,,,,,,stimulusFile/physical.xlsx,,,,,,,,,,,,,,,,,,,,,,,,,,,,,,,
,,,,,,,,,,,,,,,8254,2022-01-26_11h26.41.110,multiplicationStroop,2021.2.3,Win32,60.17571308,,,,,right,1,0.4638,0,36,36,61,1,4,4,4 | 4,0,1.4111,1.9756,neutral,right,,,,,,stimulusFile/physical.xlsx,,,,,,,,,,,,,,,,,,,,,,,,,,,,,,,
,,,,,,,,,,,,,,,8254,2022-01-26_11h26.41.110,multiplicationStroop,2021.2.3,Win32,60.17571308,,,,,left,1,0.5481,0,37,37,5,1,4,3,4 | 3,1,1.9756,1.4111,congruent,left,,,,,,stimulusFile/physical.xlsx,,,,,,,,,,,,,,,,,,,,,,,,,,,,,,,
,,,,,,,,,,,,,,,8254,2022-01-26_11h26.41.110,multiplicationStroop,2021.2.3,Win32,60.17571308,,,,,right,1,0.4397,0,38,38,65,1,2,2,2 | 2,0,1.4111,1.9756,neutral,right,,,,,,stimulusFile/physical.xlsx,,,,,,,,,,,,,,,,,,,,,,,,,,,,,,,
,,,,,,,,,,,,,,,8254,2022-01-26_11h26.41.110,multiplicationStroop,2021.2.3,Win32,60.17571308,,,,,left,1,0.5119,0,39,39,41,1,2,7,2 | 7,5,1.9756,1.4111,incongruent,left,,,,,,stimulusFile/physical.xlsx,,,,,,,,,,,,,,,,,,,,,,,,,,,,,,,
,,,,,,,,,,,,,,,8254,2022-01-26_11h26.41.110,multiplicationStroop,2021.2.3,Win32,60.17571308,,,,,right,1,0.4117,0,40,40,60,1,3,3,3 | 3,0,1.4111,1.9756,neutral,right,,,,,,stimulusFile/physical.xlsx,,,,,,,,,,,,,,,,,,,,,,,,,,,,,,,
,,,,,,,,,,,,,,,8254,2022-01-26_11h26.41.110,multiplicationStroop,2021.2.3,Win32,60.17571308,,,,,left,1,0.4288,0,41,41,55,1,9,9,9 | 9,0,1.9756,1.4111,neutral,left,,,,,,stimulusFile/physical.xlsx,,,,,,,,,,,,,,,,,,,,,,,,,,,,,,,
,,,,,,,,,,,,,,,8254,2022-01-26_11h26.41.110,multiplicationStroop,2021.2.3,Win32,60.17571308,,,,,left,1,0.7725,0,42,42,20,1,6,1,6 | 1,5,1.9756,1.4111,congruent,left,,,,,,stimulusFile/physical.xlsx,,,,,,,,,,,,,,,,,,,,,,,,,,,,,,,
,,,,,,,,,,,,,,,8254,2022-01-26_11h26.41.110,multiplicationStroop,2021.2.3,Win32,60.17571308,,,,,right,0,0.502,0,43,43,52,1,2,2,2 | 2,0,1.9756,1.4111,neutral,left,,,,,,stimulusFile/physical.xlsx,,,,,,,,,,,,,,,,,,,,,,,,,,,,,,,
,,,,,,,,,,,,,,,8254,2022-01-26_11h26.41.110,multiplicationStroop,2021.2.3,Win32,60.17571308,,,,,left,0,0.8825,0,44,44,66,1,3,3,3 | 3,0,1.9756,1.4111,neutral,right,,,,,,stimulusFile/physical.xlsx,,,,,,,,,,,,,,,,,,,,,,,,,,,,,,,
,,,,,,,,,,,,,,,8254,2022-01-26_11h26.41.110,multiplicationStroop,2021.2.3,Win32,60.17571308,,,,,left,1,1.3621,0,45,45,22,1,8,3,8 | 3,5,1.9756,1.4111,congruent,left,,,,,,stimulusFile/physical.xlsx,,,,,,,,,,,,,,,,,,,,,,,,,,,,,,,
,,,,,,,,,,,,,,,8254,2022-01-26_11h26.41.110,multiplicationStroop,2021.2.3,Win32,60.17571308,,,,,right,1,0.4984,0,46,46,58,1,6,6,6 | 6,0,1.4111,1.9756,neutral,right,,,,,,stimulusFile/physical.xlsx,,,,,,,,,,,,,,,,,,,,,,,,,,,,,,,
,,,,,,,,,,,,,,,8254,2022-01-26_11h26.41.110,multiplicationStroop,2021.2.3,Win32,60.17571308,,,,,right,1,0.6759,0,47,47,17,1,2,7,2 | 7,5,1.4111,1.9756,congruent,right,,,,,,stimulusFile/physical.xlsx,,,,,,,,,,,,,,,,,,,,,,,,,,,,,,,
,,,,,,,,,,,,,,,8254,2022-01-26_11h26.41.110,multiplicationStroop,2021.2.3,Win32,60.17571308,,,,,left,1,0.5572,0,48,48,15,1,9,7,9 | 7,2,1.9756,1.4111,congruent,left,,,,,,stimulusFile/physical.xlsx,,,,,,,,,,,,,,,,,,,,,,,,,,,,,,,
,,,,,,,,,,,,,,,8254,2022-01-26_11h26.41.110,multiplicationStroop,2021.2.3,Win32,60.17571308,,,,,left,1,0.4887,0,49,49,26,1,6,7,6 | 7,1,1.9756,1.4111,incongruent,left,,,,,,stimulusFile/physical.xlsx,,,,,,,,,,,,,,,,,,,,,,,,,,,,,,,
,,,,,,,,,,,,,,,8254,2022-01-26_11h26.41.110,multiplicationStroop,2021.2.3,Win32,60.17571308,,,,,left,1,0.4883,0,50,50,23,1,9,4,9 | 4,5,1.9756,1.4111,congruent,left,,,,,,stimulusFile/physical.xlsx,,,,,,,,,,,,,,,,,,,,,,,,,,,,,,,
,,,,,,,,,,,,,,,8254,2022-01-26_11h26.41.110,multiplicationStroop,2021.2.3,Win32,60.17571308,,,,,right,1,0.4486,0,51,51,45,1,7,2,7 | 2,5,1.4111,1.9756,incongruent,right,,,,,,stimulusFile/physical.xlsx,,,,,,,,,,,,,,,,,,,,,,,,,,,,,,,
,,,,,,,,,,,,,,,8254,2022-01-26_11h26.41.110,multiplicationStroop,2021.2.3,Win32,60.17571308,,,,,left,1,0.5972,0,52,52,7,1,9,8,9 | 8,1,1.9756,1.4111,congruent,left,,,,,,stimulusFile/physical.xlsx,,,,,,,,,,,,,,,,,,,,,,,,,,,,,,,
,,,,,,,,,,,,,,,8254,2022-01-26_11h26.41.110,multiplicationStroop,2021.2.3,Win32,60.17571308,,,,,left,1,0.7996,0,53,53,25,1,3,4,3 | 4,1,1.9756,1.4111,incongruent,left,,,,,,stimulusFile/physical.xlsx,,,,,,,,,,,,,,,,,,,,,,,,,,,,,,,
,,,,,,,,,,,,,,,8254,2022-01-26_11h26.41.110,multiplicationStroop,2021.2.3,Win32,60.17571308,,,,,right,1,0.4122,0,54,54,19,1,4,9,4 | 9,5,1.4111,1.9756,congruent,right,,,,,,stimulusFile/physical.xlsx,,,,,,,,,,,,,,,,,,,,,,,,,,,,,,,
,,,,,,,,,,,,,,,8254,2022-01-26_11h26.41.110,multiplicationStroop,2021.2.3,Win32,60.17571308,,,,,right,1,0.653,0,55,55,28,1,2,1,2 | 1,1,1.4111,1.9756,incongruent,right,,,,,,stimulusFile/physical.xlsx,,,,,,,,,,,,,,,,,,,,,,,,,,,,,,,
,,,,,,,,,,,,,,,8254,2022-01-26_11h26.41.110,multiplicationStroop,2021.2.3,Win32,60.17571308,,,,,left,1,0.4611,0,56,56,27,1,8,9,8 | 9,1,1.9756,1.4111,incongruent,left,,,,,,stimulusFile/physical.xlsx,,,,,,,,,,,,,,,,,,,,,,,,,,,,,,,
,,,,,,,,,,,,,,,8254,2022-01-26_11h26.41.110,multiplicationStroop,2021.2.3,Win32,60.17571308,,,,,right,1,0.477,0,57,57,46,1,8,3,8 | 3,5,1.4111,1.9756,incongruent,right,,,,,,stimulusFile/physical.xlsx,,,,,,,,,,,,,,,,,,,,,,,,,,,,,,,
,,,,,,,,,,,,,,,8254,2022-01-26_11h26.41.110,multiplicationStroop,2021.2.3,Win32,60.17571308,,,,,left,1,1.0575,0,58,58,24,1,1,2,1 | 2,1,1.9756,1.4111,incongruent,left,,,,,,stimulusFile/physical.xlsx,,,,,,,,,,,,,,,,,,,,,,,,,,,,,,,
,,,,,,,,,,,,,,,8254,2022-01-26_11h26.41.110,multiplicationStroop,2021.2.3,Win32,60.17571308,,,,,right,1,0.5805,0,59,59,47,1,9,4,9 | 4,5,1.4111,1.9756,incongruent,right,,,,,,stimulusFile/physical.xlsx,,,,,,,,,,,,,,,,,,,,,,,,,,,,,,,
,,,,,,,,,,,,,,,8254,2022-01-26_11h26.41.110,multiplicationStroop,2021.2.3,Win32,60.17571308,,,,,left,0,0.7787,0,60,60,64,1,1,1,1 | 1,0,1.9756,1.4111,neutral,right,,,,,,stimulusFile/physical.xlsx,,,,,,,,,,,,,,,,,,,,,,,,,,,,,,,
,,,,,,,,,,,,,,,8254,2022-01-26_11h26.41.110,multiplicationStroop,2021.2.3,Win32,60.17571308,,,,,right,0,0.4807,0,61,61,69,1,7,7,7 | 7,0,1.4111,1.9756,neutral,left,,,,,,stimulusFile/physical.xlsx,,,,,,,,,,,,,,,,,,,,,,,,,,,,,,,
,,,,,,,,,,,,,,,8254,2022-01-26_11h26.41.110,multiplicationStroop,2021.2.3,Win32,60.17571308,,,,,left,0,0.5706,0,62,62,44,1,6,1,6 | 1,5,1.4111,1.9756,incongruent,right,,,,,,stimulusFile/physical.xlsx,,,,,,,,,,,,,,,,,,,,,,,,,,,,,,,
,,,,,,,,,,,,,,,8254,2022-01-26_11h26.41.110,multiplicationStroop,2021.2.3,Win32,60.17571308,,,,,left,1,1.5246,0,63,63,40,1,1,6,1 | 6,5,1.9756,1.4111,incongruent,left,,,,,,stimulusFile/physical.xlsx,,,,,,,,,,,,,,,,,,,,,,,,,,,,,,,
,,,,,,,,,,,,,,,8254,2022-01-26_11h26.41.110,multiplicationStroop,2021.2.3,Win32,60.17571308,,,,,left,1,0.5439,0,64,64,54,1,7,7,7 | 7,0,1.9756,1.4111,neutral,left,,,,,,stimulusFile/physical.xlsx,,,,,,,,,,,,,,,,,,,,,,,,,,,,,,,
,,,,,,,,,,,,,,,8254,2022-01-26_11h26.41.110,multiplicationStroop,2021.2.3,Win32,60.17571308,,,,,right,1,0.4825,0,65,65,2,1,6,7,6 | 7,1,1.4111,1.9756,congruent,right,,,,,,stimulusFile/physical.xlsx,,,,,,,,,,,,,,,,,,,,,,,,,,,,,,,
,,,,,,,,,,,,,,,8254,2022-01-26_11h26.41.110,multiplicationStroop,2021.2.3,Win32,60.17571308,,,,,left,1,0.5206,0,66,66,13,1,4,2,4 | 2,2,1.9756,1.4111,congruent,left,,,,,,stimulusFile/physical.xlsx,,,,,,,,,,,,,,,,,,,,,,,,,,,,,,,
,,,,,,,,,,,,,,,8254,2022-01-26_11h26.41.110,multiplicationStroop,2021.2.3,Win32,60.17571308,,,,,right,1,0.4909,0,67,67,62,1,8,8,8 | 8,0,1.4111,1.9756,neutral,right,,,,,,stimulusFile/physical.xlsx,,,,,,,,,,,,,,,,,,,,,,,,,,,,,,,
,,,,,,,,,,,,,,,8254,2022-01-26_11h26.41.110,multiplicationStroop,2021.2.3,Win32,60.17571308,,,,,left,1,0.7761,0,68,68,48,1,1,1,1 | 1,0,1.9756,1.4111,neutral,left,,,,,,stimulusFile/physical.xlsx,,,,,,,,,,,,,,,,,,,,,,,,,,,,,,,
,,,,,,,,,,,,,,,8254,2022-01-26_11h26.41.110,multiplicationStroop,2021.2.3,Win32,60.17571308,,,,,right,1,0.4911,0,69,69,29,1,4,3,4 | 3,1,1.4111,1.9756,incongruent,right,,,,,,stimulusFile/physical.xlsx,,,,,,,,,,,,,,,,,,,,,,,,,,,,,,,
,,,,,,,,,,,,,,,8254,2022-01-26_11h26.41.110,multiplicationStroop,2021.2.3,Win32,60.17571308,,,,,right,1,0.5351,0,70,70,11,1,7,9,7 | 9,2,1.4111,1.9756,congruent,right,,,,,,stimulusFile/physical.xlsx,,,,,,,,,,,,,,,,,,,,,,,,,,,,,,,
,,,,,,,,,,,,,,,8254,2022-01-26_11h26.41.110,multiplicationStroop,2021.2.3,Win32,60.17571308,,,,,right,1,0.7796,0,71,71,30,1,7,6,7 | 6,1,1.4111,1.9756,incongruent,right,,,,,,stimulusFile/physical.xlsx,,,,,,,,,,,,,,,,,,,,,,,,,,,,,,,
,,,,,,,,,,,,,,,8254,2022-01-26_11h26.41.110,multiplicationStroop,2021.2.3,Win32,60.17571308,,,,,,,,,,,,,,,,,,,,,0,1,1,1,1,stimulusFile/physical.xlsx,PHYSICALLY larger (larger font size).,images/physicallyLarger.png,,,,,,,,,,,,,,,,,,,,,,,,,,,,,
,,,,,,,,,,,,,,,8254,2022-01-26_11h26.41.110,multiplicationStroop,2021.2.3,Win32,60.17571308,,,,,,,,,,,,,,,,,,,,,,,,,,,,,space,67.0996,space,2.957,12,2.4659,1,0,0,0,5,1,2,×,6,2 × 6,congruent,smallerFirst,1,2,12,,,,,,,,
,,,,,,,,,,,,,,,8254,2022-01-26_11h26.41.110,multiplicationStroop,2021.2.3,Win32,60.17571308,,,,,,,,,,,,,,,,,,,,,,,,,,,,,,,,,24,1.8148,1,0,1,1,11,1,4,×,6,4 × 6,congruent,smallerFirst,1,2,24,,,,,,,,
,,,,,,,,,,,,,,,8254,2022-01-26_11h26.41.110,multiplicationStroop,2021.2.3,Win32,60.17571308,,,,,,,,,,,,,,,,,,,,,,,,,,,,,,,,,48,4.3637,1,0,2,2,4,1,6,×,8,6 × 8,congruent,smallerFirst,1,2,48,,,,,,,,
,,,,,,,,,,,,,,,8254,2022-01-26_11h26.41.110,multiplicationStroop,2021.2.3,Win32,60.17571308,,,,,,,,,,,,,,,,,,,,,,,,,,,,,,,,,63,6.4986,1,0,3,3,7,1,7,×,9,7 × 9,congruent,smallerFirst,1,2,63,,,,,,,,
,,,,,,,,,,,,,,,8254,2022-01-26_11h26.41.110,multiplicationStroop,2021.2.3,Win32,60.17571308,,,,,,,,,,,,,,,,,,,,,,,,,,,,,,,,,36,3.633,1,0,4,4,14,1,9,×,4,9 × 4,congruent,largerFirst,2,1,36,,,,,,,,
,,,,,,,,,,,,,,,8254,2022-01-26_11h26.41.110,multiplicationStroop,2021.2.3,Win32,60.17571308,,,,,,,,,,,,,,,,,,,,,,,,,,,,,,,,,9,1.7153,1,0,5,5,29,1,3,×,3,3 × 3,neutral,tie,1,2,9,,,,,,,,
,,,,,,,,,,,,,,,8254,2022-01-26_11h26.41.110,multiplicationStroop,2021.2.3,Win32,60.17571308,,,,,,,,,,,,,,,,,,,,,,,,,,,,,,,,,15,2.9645,1,0,6,6,18,1,5,×,3,5 × 3,congruent,largerFirst,2,1,15,,,,,,,,
,,,,,,,,,,,,,,,8254,2022-01-26_11h26.41.110,multiplicationStroop,2021.2.3,Win32,60.17571308,,,,,,,,,,,,,,,,,,,,,,,,,,,,,,,,,49,3.5003,1,0,7,7,33,1,7,×,7,7 × 7,neutral,tie,1,2,49,,,,,,,,
,,,,,,,,,,,,,,,8254,2022-01-26_11h26.41.110,multiplicationStroop,2021.2.3,Win32,60.17571308,,,,,,,,,,,,,,,,,,,,,,,,,,,,,,,,,25,2.0317,1,0,8,8,31,1,5,×,5,5 × 5,neutral,tie,1,2,25,,,,,,,,
,,,,,,,,,,,,,,,8254,2022-01-26_11h26.41.110,multiplicationStroop,2021.2.3,Win32,60.17571308,,,,,,,,,,,,,,,,,,,,,,,,,,,,,,,,,28,5.1467,1,0,9,9,13,1,4,×,7,4 × 7,congruent,smallerFirst,1,2,28,,,,,,,,
,,,,,,,,,,,,,,,8254,2022-01-26_11h26.41.110,multiplicationStroop,2021.2.3,Win32,60.17571308,,,,,,,,,,,,,,,,,,,,,,,,,,,,,,,,,64,2.7171,1,0,10,10,34,1,8,×,8,8 × 8,neutral,tie,1,2,64,,,,,,,,
,,,,,,,,,,,,,,,8254,2022-01-26_11h26.41.110,multiplicationStroop,2021.2.3,Win32,60.17571308,,,,,,,,,,,,,,,,,,,,,,,,,,,,,,,,,72,3.431,1,0,11,11,3,1,8,×,9,8 × 9,congruent,smallerFirst,1,2,72,,,,,,,,
,,,,,,,,,,,,,,,8254,2022-01-26_11h26.41.110,multiplicationStroop,2021.2.3,Win32,60.17571308,,,,,,,,,,,,,,,,,,,,,,,,,,,,,,,,,24,2.2509,1,0,12,12,24,1,8,×,3,8 × 3,congruent,largerFirst,2,1,24,,,,,,,,
,,,,,,,,,,,,,,,8254,2022-01-26_11h26.41.110,multiplicationStroop,2021.2.3,Win32,60.17571308,,,,,,,,,,,,,,,,,,,,,,,,,,,,,,,,,21,1.7653,1,0,13,13,2,1,3,×,7,3 × 7,congruent,smallerFirst,1,2,21,,,,,,,,
,,,,,,,,,,,,,,,8254,2022-01-26_11h26.41.110,multiplicationStroop,2021.2.3,Win32,60.17571308,,,,,,,,,,,,,,,,,,,,,,,,,,,,,,,,,16,1.8986,1,0,14,14,19,1,8,×,2,8 × 2,congruent,largerFirst,2,1,16,,,,,,,,
,,,,,,,,,,,,,,,8254,2022-01-26_11h26.41.110,multiplicationStroop,2021.2.3,Win32,60.17571308,,,,,,,,,,,,,,,,,,,,,,,,,,,,,,,,,8,2.1484,1,0,15,15,23,1,4,×,2,4 × 2,congruent,largerFirst,2,1,8,,,,,,,,
,,,,,,,,,,,,,,,8254,2022-01-26_11h26.41.110,multiplicationStroop,2021.2.3,Win32,60.17571308,,,,,,,,,,,,,,,,,,,,,,,,,,,,,,,,,45,3.5642,1,0,16,16,9,1,5,×,9,5 × 9,congruent,smallerFirst,1,2,45,,,,,,,,
,,,,,,,,,,,,,,,8254,2022-01-26_11h26.41.110,multiplicationStroop,2021.2.3,Win32,60.17571308,,,,,,,,,,,,,,,,,,,,,,,,,,,,,,,,,16,1.8177,1,0,17,17,30,1,4,×,4,4 × 4,neutral,tie,1,2,16,,,,,,,,
,,,,,,,,,,,,,,,8254,2022-01-26_11h26.41.110,multiplicationStroop,2021.2.3,Win32,60.17571308,,,,,,,,,,,,,,,,,,,,,,,,,,,,,,,,,20,1.8153,1,0,18,18,21,1,5,×,4,5 × 4,congruent,largerFirst,2,1,20,,,,,,,,
,,,,,,,,,,,,,,,8254,2022-01-26_11h26.41.110,multiplicationStroop,2021.2.3,Win32,60.17571308,,,,,,,,,,,,,,,,,,,,,,,,,,,,,,,,,14,2.2651,1,0,19,19,0,1,2,×,7,2 × 7,congruent,smallerFirst,1,2,14,,,,,,,,
,,,,,,,,,,,,,,,8254,2022-01-26_11h26.41.110,multiplicationStroop,2021.2.3,Win32,60.17571308,,,,,,,,,,,,,,,,,,,,,,,,,,,,,,,,,12,1.5487,1,0,20,20,16,1,4,×,3,4 × 3,congruent,largerFirst,2,1,12,,,,,,,,
,,,,,,,,,,,,,,,8254,2022-01-26_11h26.41.110,multiplicationStroop,2021.2.3,Win32,60.17571308,,,,,,,,,,,,,,,,,,,,,,,,,,,,,,,,,35,2.2648,1,0,21,21,15,1,7,×,5,7 × 5,congruent,largerFirst,2,1,35,,,,,,,,
,,,,,,,,,,,,,,,8254,2022-01-26_11h26.41.110,multiplicationStroop,2021.2.3,Win32,60.17571308,,,,,,,,,,,,,,,,,,,,,,,,,,,,,,,,,54,4.4307,1,0,22,22,26,1,9,×,6,9 × 6,congruent,largerFirst,2,1,54,,,,,,,,
,,,,,,,,,,,,,,,8254,2022-01-26_11h26.41.110,multiplicationStroop,2021.2.3,Win32,60.17571308,,,,,,,,,,,,,,,,,,,,,,,,,,,,,,,,,18,2.0343,1,0,23,23,8,1,2,×,9,2 × 9,congruent,smallerFirst,1,2,18,,,,,,,,
,,,,,,,,,,,,,,,8254,2022-01-26_11h26.41.110,multiplicationStroop,2021.2.3,Win32,60.17571308,,,,,,,,,,,,,,,,,,,,,,,,,,,,,,,,,18,2.4982,1,0,24,24,25,1,6,×,3,6 × 3,congruent,largerFirst,2,1,18,,,,,,,,
,,,,,,,,,,,,,,,8254,2022-01-26_11h26.41.110,multiplicationStroop,2021.2.3,Win32,60.17571308,,,,,,,,,,,,,,,,,,,,,,,,,,,,,,,,,32,3.7309,1,0,25,25,6,1,4,×,8,4 × 8,congruent,smallerFirst,1,2,32,,,,,,,,
,,,,,,,,,,,,,,,8254,2022-01-26_11h26.41.110,multiplicationStroop,2021.2.3,Win32,60.17571308,,,,,,,,,,,,,,,,,,,,,,,,,,,,,,,,,6,1.7686,1,0,26,26,27,1,3,×,2,3 × 2,congruent,largerFirst,2,1,6,,,,,,,,
,,,,,,,,,,,,,,,8254,2022-01-26_11h26.41.110,multiplicationStroop,2021.2.3,Win32,60.17571308,,,,,,,,,,,,,,,,,,,,,,,,,,,,,,,,,10,2.0643,1,0,27,27,10,1,2,×,5,2 × 5,congruent,smallerFirst,1,2,10,,,,,,,,
,,,,,,,,,,,,,,,8254,2022-01-26_11h26.41.110,multiplicationStroop,2021.2.3,Win32,60.17571308,,,,,,,,,,,,,,,,,,,,,,,,,,,,,,,,,56,4.2306,1,0,28,28,22,1,8,×,7,8 × 7,congruent,largerFirst,2,1,56,,,,,,,,
,,,,,,,,,,,,,,,8254,2022-01-26_11h26.41.110,multiplicationStroop,2021.2.3,Win32,60.17571308,,,,,,,,,,,,,,,,,,,,,,,,,,,,,,,,,4,1.2848,1,0,29,29,28,1,2,×,2,2 × 2,neutral,tie,1,2,4,,,,,,,,
,,,,,,,,,,,,,,,8254,2022-01-26_11h26.41.110,multiplicationStroop,2021.2.3,Win32,60.17571308,,,,,,,,,,,,,,,,,,,,,,,,,,,,,,,,,30,1.7818,1,0,30,30,1,1,5,×,6,5 × 6,congruent,smallerFirst,1,2,30,,,,,,,,
,,,,,,,,,,,,,,,8254,2022-01-26_11h26.41.110,multiplicationStroop,2021.2.3,Win32,60.17571308,,,,,,,,,,,,,,,,,,,,,,,,,,,,,,,,,12,1.5985,0,0,31,31,32,1,6,×,6,6 × 6,neutral,tie,1,2,36,,,,,,,,
,,,,,,,,,,,,,,,8254,2022-01-26_11h26.41.110,multiplicationStroop,2021.2.3,Win32,60.17571308,,,,,,,,,,,,,,,,,,,,,,,,,,,,,,,,,40,3.3477,1,0,32,32,20,1,8,×,5,8 × 5,congruent,largerFirst,2,1,40,,,,,,,,
,,,,,,,,,,,,,,,8254,2022-01-26_11h26.41.110,multiplicationStroop,2021.2.3,Win32,60.17571308,,,,,,,,,,,,,,,,,,,,,,,,,,,,,,,,,81,2.2672,1,0,33,33,35,1,9,×,9,9 × 9,neutral,tie,1,2,81,,,,,,,,
,,,,,,,,,,,,,,,8254,2022-01-26_11h26.41.110,multiplicationStroop,2021.2.3,Win32,60.17571308,,,,,,,,,,,,,,,,,,,,,,,,,,,,,,,,,27,5.3969,1,0,34,34,12,1,3,×,9,3 × 9,congruent,smallerFirst,1,2,27,,,,,,,,
,,,,,,,,,,,,,,,8254,2022-01-26_11h26.41.110,multiplicationStroop,2021.2.3,Win32,60.17571308,,,,,,,,,,,,,,,,,,,,,,,,,,,,,,,,,42,5.0503,1,0,35,35,17,1,7,×,6,7 × 6,congruent,largerFirst,2,1,42,,,,,,,,
,,,,,,,,,,,,,,,8254,2022-01-26_11h26.41.110,multiplicationStroop,2021.2.3,Win32,60.17571308,,,,,,,,,,,,,,,,,,,,,,,,,,,,,,,,,,,,,,,,,,,,,,,,,,0,0,0,3,1,stimulusFile/mult_blk4_congruent.xlsx,,
,,,,,,,,,,,,,,,8254,2022-01-26_11h26.41.110,multiplicationStroop,2021.2.3,Win32,60.17571308,,,,,,,,,,,,,,,,,,,,,,,,,,,,,,,space,185.6332,18,3.3931,1,0,0,0,16,1,9,×,2,9 × 2,incongruent,largerFirst,1,2,18,,,,,,,,
,,,,,,,,,,,,,,,8254,2022-01-26_11h26.41.110,multiplicationStroop,2021.2.3,Win32,60.17571308,,,,,,,,,,,,,,,,,,,,,,,,,,,,,,,,,36,2.2148,1,0,1,1,1,1,4,×,9,4 × 9,incongruent,smallerFirst,2,1,36,,,,,,,,
,,,,,,,,,,,,,,,8254,2022-01-26_11h26.41.110,multiplicationStroop,2021.2.3,Win32,60.17571308,,,,,,,,,,,,,,,,,,,,,,,,,,,,,,,,,40,2.515,1,0,2,2,27,1,8,×,5,8 × 5,incongruent,largerFirst,1,2,40,,,,,,,,
,,,,,,,,,,,,,,,8254,2022-01-26_11h26.41.110,multiplicationStroop,2021.2.3,Win32,60.17571308,,,,,,,,,,,,,,,,,,,,,,,,,,,,,,,,,72,5.2828,1,0,3,3,14,1,9,×,8,9 × 8,incongruent,largerFirst,1,2,72,,,,,,,,
,,,,,,,,,,,,,,,8254,2022-01-26_11h26.41.110,multiplicationStroop,2021.2.3,Win32,60.17571308,,,,,,,,,,,,,,,,,,,,,,,,,,,,,,,,,18,2.8839,1,0,4,4,22,1,6,×,3,6 × 3,incongruent,largerFirst,1,2,18,,,,,,,,
,,,,,,,,,,,,,,,8254,2022-01-26_11h26.41.110,multiplicationStroop,2021.2.3,Win32,60.17571308,,,,,,,,,,,,,,,,,,,,,,,,,,,,,,,,,25,1.8012,1,0,5,5,31,1,5,×,5,5 × 5,neutral,tie,2,1,25,,,,,,,,
,,,,,,,,,,,,,,,8254,2022-01-26_11h26.41.110,multiplicationStroop,2021.2.3,Win32,60.17571308,,,,,,,,,,,,,,,,,,,,,,,,,,,,,,,,,49,3.3477,1,0,6,6,33,1,7,×,7,7 × 7,neutral,tie,2,1,49,,,,,,,,
,,,,,,,,,,,,,,,8254,2022-01-26_11h26.41.110,multiplicationStroop,2021.2.3,Win32,60.17571308,,,,,,,,,,,,,,,,,,,,,,,,,,,,,,,,,63,4.1639,1,0,7,7,17,1,9,×,7,9 × 7,incongruent,largerFirst,1,2,63,,,,,,,,
,,,,,,,,,,,,,,,8254,2022-01-26_11h26.41.110,multiplicationStroop,2021.2.3,Win32,60.17571308,,,,,,,,,,,,,,,,,,,,,,,,,,,,,,,,,56,3.8324,1,0,8,8,0,1,7,×,8,7 × 8,incongruent,smallerFirst,2,1,56,,,,,,,,
,,,,,,,,,,,,,,,8254,2022-01-26_11h26.41.110,multiplicationStroop,2021.2.3,Win32,60.17571308,,,,,,,,,,,,,,,,,,,,,,,,,,,,,,,,,32,5.1491,1,0,9,9,21,1,8,×,4,8 × 4,incongruent,largerFirst,1,2,32,,,,,,,,
,,,,,,,,,,,,,,,8254,2022-01-26_11h26.41.110,multiplicationStroop,2021.2.3,Win32,60.17571308,,,,,,,,,,,,,,,,,,,,,,,,,,,,,,,,,9,1.7016,1,0,10,10,29,1,3,×,3,3 × 3,neutral,tie,2,1,9,,,,,,,,
,,,,,,,,,,,,,,,8254,2022-01-26_11h26.41.110,multiplicationStroop,2021.2.3,Win32,60.17571308,,,,,,,,,,,,,,,,,,,,,,,,,,,,,,,,,48,3.7807,1,0,11,11,15,1,8,×,6,8 × 6,incongruent,largerFirst,1,2,48,,,,,,,,
,,,,,,,,,,,,,,,8254,2022-01-26_11h26.41.110,multiplicationStroop,2021.2.3,Win32,60.17571308,,,,,,,,,,,,,,,,,,,,,,,,,,,,,,,,,24,1.8177,1,0,12,12,23,1,8,×,3,8 × 3,incongruent,largerFirst,1,2,24,,,,,,,,
,,,,,,,,,,,,,,,8254,2022-01-26_11h26.41.110,multiplicationStroop,2021.2.3,Win32,60.17571308,,,,,,,,,,,,,,,,,,,,,,,,,,,,,,,,,27,3.4643,1,0,13,13,4,1,3,×,9,3 × 9,incongruent,smallerFirst,2,1,27,,,,,,,,
,,,,,,,,,,,,,,,8254,2022-01-26_11h26.41.110,multiplicationStroop,2021.2.3,Win32,60.17571308,,,,,,,,,,,,,,,,,,,,,,,,,,,,,,,,,42,2.6007,1,0,14,14,3,1,6,×,7,6 × 7,incongruent,smallerFirst,2,1,42,,,,,,,,
,,,,,,,,,,,,,,,8254,2022-01-26_11h26.41.110,multiplicationStroop,2021.2.3,Win32,60.17571308,,,,,,,,,,,,,,,,,,,,,,,,,,,,,,,,,81,2.2006,1,0,15,15,35,1,9,×,9,9 × 9,neutral,tie,2,1,81,,,,,,,,
,,,,,,,,,,,,,,,8254,2022-01-26_11h26.41.110,multiplicationStroop,2021.2.3,Win32,60.17571308,,,,,,,,,,,,,,,,,,,,,,,,,,,,,,,,,10,1.6818,1,0,16,16,7,1,2,×,5,2 × 5,incongruent,smallerFirst,2,1,10,,,,,,,,
,,,,,,,,,,,,,,,8254,2022-01-26_11h26.41.110,multiplicationStroop,2021.2.3,Win32,60.17571308,,,,,,,,,,,,,,,,,,,,,,,,,,,,,,,,,28,3.5309,1,0,17,17,2,1,4,×,7,4 × 7,incongruent,smallerFirst,2,1,28,,,,,,,,
,,,,,,,,,,,,,,,8254,2022-01-26_11h26.41.110,multiplicationStroop,2021.2.3,Win32,60.17571308,,,,,,,,,,,,,,,,,,,,,,,,,,,,,,,,,14,2.2677,1,0,18,18,18,1,7,×,2,7 × 2,incongruent,largerFirst,1,2,14,,,,,,,,
,,,,,,,,,,,,,,,8254,2022-01-26_11h26.41.110,multiplicationStroop,2021.2.3,Win32,60.17571308,,,,,,,,,,,,,,,,,,,,,,,,,,,,,,,,,45,2.3314,1,0,19,19,8,1,5,×,9,5 × 9,incongruent,smallerFirst,2,1,45,,,,,,,,
,,,,,,,,,,,,,,,8254,2022-01-26_11h26.41.110,multiplicationStroop,2021.2.3,Win32,60.17571308,,,,,,,,,,,,,,,,,,,,,,,,,,,,,,,,,4,2.3045,1,0,20,20,28,1,2,×,2,2 × 2,neutral,tie,2,1,4,,,,,,,,
,,,,,,,,,,,,,,,8254,2022-01-26_11h26.41.110,multiplicationStroop,2021.2.3,Win32,60.17571308,,,,,,,,,,,,,,,,,,,,,,,,,,,,,,,,,16,1.7488,1,0,21,21,30,1,4,×,4,4 × 4,neutral,tie,2,1,16,,,,,,,,
,,,,,,,,,,,,,,,8254,2022-01-26_11h26.41.110,multiplicationStroop,2021.2.3,Win32,60.17571308,,,,,,,,,,,,,,,,,,,,,,,,,,,,,,,,,20,2.3648,1,0,22,22,13,1,4,×,5,4 × 5,incongruent,smallerFirst,2,1,20,,,,,,,,
,,,,,,,,,,,,,,,8254,2022-01-26_11h26.41.110,multiplicationStroop,2021.2.3,Win32,60.17571308,,,,,,,,,,,,,,,,,,,,,,,,,,,,,,,,,12,1.5819,1,0,23,23,5,1,2,×,6,2 × 6,incongruent,smallerFirst,2,1,12,,,,,,,,
,,,,,,,,,,,,,,,8254,2022-01-26_11h26.41.110,multiplicationStroop,2021.2.3,Win32,60.17571308,,,,,,,,,,,,,,,,,,,,,,,,,,,,,,,,,6,1.5488,1,0,24,24,25,1,3,×,2,3 × 2,incongruent,largerFirst,1,2,6,,,,,,,,
,,,,,,,,,,,,,,,8254,2022-01-26_11h26.41.110,multiplicationStroop,2021.2.3,Win32,60.17571308,,,,,,,,,,,,,,,,,,,,,,,,,,,,,,,,,54,4.4968,1,0,25,25,20,1,9,×,6,9 × 6,incongruent,largerFirst,1,2,54,,,,,,,,
,,,,,,,,,,,,,,,8254,2022-01-26_11h26.41.110,multiplicationStroop,2021.2.3,Win32,60.17571308,,,,,,,,,,,,,,,,,,,,,,,,,,,,,,,,,36,3.2172,0,0,26,26,26,1,7,×,5,7 × 5,incongruent,largerFirst,1,2,35,,,,,,,,
,,,,,,,,,,,,,,,8254,2022-01-26_11h26.41.110,multiplicationStroop,2021.2.3,Win32,60.17571308,,,,,,,,,,,,,,,,,,,,,,,,,,,,,,,,,15,2.4817,1,0,27,27,24,1,5,×,3,5 × 3,incongruent,largerFirst,1,2,15,,,,,,,,
,,,,,,,,,,,,,,,8254,2022-01-26_11h26.41.110,multiplicationStroop,2021.2.3,Win32,60.17571308,,,,,,,,,,,,,,,,,,,,,,,,,,,,,,,,,24,2.5479,1,0,28,28,6,1,4,×,6,4 × 6,incongruent,smallerFirst,2,1,24,,,,,,,,
,,,,,,,,,,,,,,,8254,2022-01-26_11h26.41.110,multiplicationStroop,2021.2.3,Win32,60.17571308,,,,,,,,,,,,,,,,,,,,,,,,,,,,,,,,,12,1.7512,1,0,29,29,19,1,4,×,3,4 × 3,incongruent,largerFirst,1,2,12,,,,,,,,
,,,,,,,,,,,,,,,8254,2022-01-26_11h26.41.110,multiplicationStroop,2021.2.3,Win32,60.17571308,,,,,,,,,,,,,,,,,,,,,,,,,,,,,,,,,36,2.0818,1,0,30,30,32,1,6,×,6,6 × 6,neutral,tie,2,1,36,,,,,,,,
,,,,,,,,,,,,,,,8254,2022-01-26_11h26.41.110,multiplicationStroop,2021.2.3,Win32,60.17571308,,,,,,,,,,,,,,,,,,,,,,,,,,,,,,,,,8,2.0153,1,0,31,31,10,1,2,×,4,2 × 4,incongruent,smallerFirst,2,1,8,,,,,,,,
,,,,,,,,,,,,,,,8254,2022-01-26_11h26.41.110,multiplicationStroop,2021.2.3,Win32,60.17571308,,,,,,,,,,,,,,,,,,,,,,,,,,,,,,,,,30,2.0317,1,0,32,32,11,1,5,×,6,5 × 6,incongruent,smallerFirst,2,1,30,,,,,,,,
,,,,,,,,,,,,,,,8254,2022-01-26_11h26.41.110,multiplicationStroop,2021.2.3,Win32,60.17571308,,,,,,,,,,,,,,,,,,,,,,,,,,,,,,,,,64,2.3151,1,0,33,33,34,1,8,×,8,8 × 8,neutral,tie,2,1,64,,,,,,,,
,,,,,,,,,,,,,,,8254,2022-01-26_11h26.41.110,multiplicationStroop,2021.2.3,Win32,60.17571308,,,,,,,,,,,,,,,,,,,,,,,,,,,,,,,,,21,2.2316,1,0,34,34,12,1,3,×,7,3 × 7,incongruent,smallerFirst,2,1,21,,,,,,,,
,,,,,,,,,,,,,,,8254,2022-01-26_11h26.41.110,multiplicationStroop,2021.2.3,Win32,60.17571308,,,,,,,,,,,,,,,,,,,,,,,,,,,,,,,,,16,1.7652,1,0,35,35,9,1,2,×,8,2 × 8,incongruent,smallerFirst,2,1,16,,,,,,,,
,,,,,,,,,,,,,,,8254,2022-01-26_11h26.41.110,multiplicationStroop,2021.2.3,Win32,60.17571308,,,,,,,,,,,,,,,,,,,,,,,,,,,,,,,,,,,,,,,,,,,,,,,,,,0,1,1,4,1,stimulusFile/mult_blk5_INcongruent.xlsx,,
,,,,,,,,,,,,,,,8254,2022-01-26_11h26.41.110,multiplicationStroop,2021.2.3,Win32,60.17571308,,,,,,,,,,,,,,,,,,,,,,,,,,,,,,,space,131.4314,72,3.6751,1,0,0,0,11,1,8,×,9,8 × 9,neutral,smallerFirst,1.5,1.5,72,,,,,,,,
,,,,,,,,,,,,,,,8254,2022-01-26_11h26.41.110,multiplicationStroop,2021.2.3,Win32,60.17571308,,,,,,,,,,,,,,,,,,,,,,,,,,,,,,,,,54,3.6809,1,0,1,1,7,1,6,×,9,6 × 9,neutral,smallerFirst,1.5,1.5,54,,,,,,,,
,,,,,,,,,,,,,,,8254,2022-01-26_11h26.41.110,multiplicationStroop,2021.2.3,Win32,60.17571308,,,,,,,,,,,,,,,,,,,,,,,,,,,,,,,,,49,2.1175,1,0,2,2,33,1,7,×,7,7 × 7,neutral,tie,1.5,1.5,49,,,,,,,,
,,,,,,,,,,,,,,,8254,2022-01-26_11h26.41.110,multiplicationStroop,2021.2.3,Win32,60.17571308,,,,,,,,,,,,,,,,,,,,,,,,,,,,,,,,,12,1.3829,1,0,3,3,21,1,4,×,3,4 × 3,neutral,largerFirst,1.5,1.5,12,,,,,,,,
,,,,,,,,,,,,,,,8254,2022-01-26_11h26.41.110,multiplicationStroop,2021.2.3,Win32,60.17571308,,,,,,,,,,,,,,,,,,,,,,,,,,,,,,,,,27,2.1977,1,0,4,4,14,1,9,×,3,9 × 3,neutral,largerFirst,1.5,1.5,27,,,,,,,,
,,,,,,,,,,,,,,,8254,2022-01-26_11h26.41.110,multiplicationStroop,2021.2.3,Win32,60.17571308,,,,,,,,,,,,,,,,,,,,,,,,,,,,,,,,,16,1.6654,1,0,5,5,13,1,2,×,8,2 × 8,neutral,smallerFirst,1.5,1.5,16,,,,,,,,
,,,,,,,,,,,,,,,8254,2022-01-26_11h26.41.110,multiplicationStroop,2021.2.3,Win32,60.17571308,,,,,,,,,,,,,,,,,,,,,,,,,,,,,,,,,16,1.9817,1,0,6,6,30,1,4,×,4,4 × 4,neutral,tie,1.5,1.5,16,,,,,,,,
,,,,,,,,,,,,,,,8254,2022-01-26_11h26.41.110,multiplicationStroop,2021.2.3,Win32,60.17571308,,,,,,,,,,,,,,,,,,,,,,,,,,,,,,,,,42,2.4151,1,0,7,7,6,1,6,×,7,6 × 7,neutral,smallerFirst,1.5,1.5,42,,,,,,,,
,,,,,,,,,,,,,,,8254,2022-01-26_11h26.41.110,multiplicationStroop,2021.2.3,Win32,60.17571308,,,,,,,,,,,,,,,,,,,,,,,,,,,,,,,,,18,2.2483,1,0,8,8,0,1,3,×,6,3 × 6,neutral,smallerFirst,1.5,1.5,18,,,,,,,,
,,,,,,,,,,,,,,,8254,2022-01-26_11h26.41.110,multiplicationStroop,2021.2.3,Win32,60.17571308,,,,,,,,,,,,,,,,,,,,,,,,,,,,,,,,,12,1.4819,1,0,9,9,25,1,6,×,2,6 × 2,neutral,largerFirst,1.5,1.5,12,,,,,,,,
,,,,,,,,,,,,,,,8254,2022-01-26_11h26.41.110,multiplicationStroop,2021.2.3,Win32,60.17571308,,,,,,,,,,,,,,,,,,,,,,,,,,,,,,,,,20,1.8984,1,0,10,10,20,1,5,×,4,5 × 4,neutral,largerFirst,1.5,1.5,20,,,,,,,,
,,,,,,,,,,,,,,,8254,2022-01-26_11h26.41.110,multiplicationStroop,2021.2.3,Win32,60.17571308,,,,,,,,,,,,,,,,,,,,,,,,,,,,,,,,,36,2.2984,1,0,11,11,27,1,9,×,4,9 × 4,neutral,largerFirst,1.5,1.5,36,,,,,,,,
,,,,,,,,,,,,,,,8254,2022-01-26_11h26.41.110,multiplicationStroop,2021.2.3,Win32,60.17571308,,,,,,,,,,,,,,,,,,,,,,,,,,,,,,,,,64,1.9652,1,0,12,12,34,1,8,×,8,8 × 8,neutral,tie,1.5,1.5,64,,,,,,,,
,,,,,,,,,,,,,,,8254,2022-01-26_11h26.41.110,multiplicationStroop,2021.2.3,Win32,60.17571308,,,,,,,,,,,,,,,,,,,,,,,,,,,,,,,,,32,4.0141,1,0,13,13,23,1,8,×,4,8 × 4,neutral,largerFirst,1.5,1.5,32,,,,,,,,
,,,,,,,,,,,,,,,8254,2022-01-26_11h26.41.110,multiplicationStroop,2021.2.3,Win32,60.17571308,,,,,,,,,,,,,,,,,,,,,,,,,,,,,,,,,9,1.6514,1,0,14,14,29,1,3,×,3,3 × 3,neutral,tie,1.5,1.5,9,,,,,,,,
,,,,,,,,,,,,,,,8254,2022-01-26_11h26.41.110,multiplicationStroop,2021.2.3,Win32,60.17571308,,,,,,,,,,,,,,,,,,,,,,,,,,,,,,,,,36,2.4316,1,0,15,15,32,1,6,×,6,6 × 6,neutral,tie,1.5,1.5,36,,,,,,,,
,,,,,,,,,,,,,,,8254,2022-01-26_11h26.41.110,multiplicationStroop,2021.2.3,Win32,60.17571308,,,,,,,,,,,,,,,,,,,,,,,,,,,,,,,,,6,1.6154,1,0,16,16,26,1,3,×,2,3 × 2,neutral,largerFirst,1.5,1.5,6,,,,,,,,
,,,,,,,,,,,,,,,8254,2022-01-26_11h26.41.110,multiplicationStroop,2021.2.3,Win32,60.17571308,,,,,,,,,,,,,,,,,,,,,,,,,,,,,,,,,7,1.6986,0,0,17,17,3,1,2,×,4,2 × 4,neutral,smallerFirst,1.5,1.5,8,,,,,,,,
,,,,,,,,,,,,,,,8254,2022-01-26_11h26.41.110,multiplicationStroop,2021.2.3,Win32,60.17571308,,,,,,,,,,,,,,,,,,,,,,,,,,,,,,,,,30,4.3473,1,0,18,18,19,1,6,×,5,6 × 5,neutral,largerFirst,1.5,1.5,30,,,,,,,,
,,,,,,,,,,,,,,,8254,2022-01-26_11h26.41.110,multiplicationStroop,2021.2.3,Win32,60.17571308,,,,,,,,,,,,,,,,,,,,,,,,,,,,,,,,,45,1.618,1,0,19,19,10,1,5,×,9,5 × 9,neutral,smallerFirst,1.5,1.5,45,,,,,,,,
,,,,,,,,,,,,,,,8254,2022-01-26_11h26.41.110,multiplicationStroop,2021.2.3,Win32,60.17571308,,,,,,,,,,,,,,,,,,,,,,,,,,,,,,,,,24,2.7648,1,0,20,20,2,1,4,×,6,4 × 6,neutral,smallerFirst,1.5,1.5,24,,,,,,,,
,,,,,,,,,,,,,,,8254,2022-01-26_11h26.41.110,multiplicationStroop,2021.2.3,Win32,60.17571308,,,,,,,,,,,,,,,,,,,,,,,,,,,,,,,,,56,5.2466,1,0,21,21,9,1,7,×,8,7 × 8,neutral,smallerFirst,1.5,1.5,56,,,,,,,,
,,,,,,,,,,,,,,,8254,2022-01-26_11h26.41.110,multiplicationStroop,2021.2.3,Win32,60.17571308,,,,,,,,,,,,,,,,,,,,,,,,,,,,,,,,,14,2.5508,1,0,22,22,16,1,7,×,2,7 × 2,neutral,largerFirst,1.5,1.5,14,,,,,,,,
,,,,,,,,,,,,,,,8254,2022-01-26_11h26.41.110,multiplicationStroop,2021.2.3,Win32,60.17571308,,,,,,,,,,,,,,,,,,,,,,,,,,,,,,,,,10,1.9484,1,0,23,23,4,1,2,×,5,2 × 5,neutral,smallerFirst,1.5,1.5,10,,,,,,,,
,,,,,,,,,,,,,,,8254,2022-01-26_11h26.41.110,multiplicationStroop,2021.2.3,Win32,60.17571308,,,,,,,,,,,,,,,,,,,,,,,,,,,,,,,,,40,2.4317,1,0,24,24,24,1,8,×,5,8 × 5,neutral,largerFirst,1.5,1.5,40,,,,,,,,
,,,,,,,,,,,,,,,8254,2022-01-26_11h26.41.110,multiplicationStroop,2021.2.3,Win32,60.17571308,,,,,,,,,,,,,,,,,,,,,,,,,,,,,,,,,63,4.9968,1,0,25,25,12,1,7,×,9,7 × 9,neutral,smallerFirst,1.5,1.5,63,,,,,,,,
,,,,,,,,,,,,,,,8254,2022-01-26_11h26.41.110,multiplicationStroop,2021.2.3,Win32,60.17571308,,,,,,,,,,,,,,,,,,,,,,,,,,,,,,,,,24,1.9342,1,0,26,26,22,1,8,×,3,8 × 3,neutral,largerFirst,1.5,1.5,24,,,,,,,,
,,,,,,,,,,,,,,,8254,2022-01-26_11h26.41.110,multiplicationStroop,2021.2.3,Win32,60.17571308,,,,,,,,,,,,,,,,,,,,,,,,,,,,,,,,,81,1.9651,1,0,27,27,35,1,9,×,9,9 × 9,neutral,tie,1.5,1.5,81,,,,,,,,
,,,,,,,,,,,,,,,8254,2022-01-26_11h26.41.110,multiplicationStroop,2021.2.3,Win32,60.17571308,,,,,,,,,,,,,,,,,,,,,,,,,,,,,,,,,28,3.7144,1,0,28,28,17,1,7,×,4,7 × 4,neutral,largerFirst,1.5,1.5,28,,,,,,,,
,,,,,,,,,,,,,,,8254,2022-01-26_11h26.41.110,multiplicationStroop,2021.2.3,Win32,60.17571308,,,,,,,,,,,,,,,,,,,,,,,,,,,,,,,,,35,3.0811,1,0,29,29,1,1,5,×,7,5 × 7,neutral,smallerFirst,1.5,1.5,35,,,,,,,,
,,,,,,,,,,,,,,,8254,2022-01-26_11h26.41.110,multiplicationStroop,2021.2.3,Win32,60.17571308,,,,,,,,,,,,,,,,,,,,,,,,,,,,,,,,,48,4.1665,1,0,30,30,15,1,8,×,6,8 × 6,neutral,largerFirst,1.5,1.5,48,,,,,,,,
,,,,,,,,,,,,,,,8254,2022-01-26_11h26.41.110,multiplicationStroop,2021.2.3,Win32,60.17571308,,,,,,,,,,,,,,,,,,,,,,,,,,,,,,,,,21,2.8702,1,0,31,31,8,1,3,×,7,3 × 7,neutral,smallerFirst,1.5,1.5,21,,,,,,,,
,,,,,,,,,,,,,,,8254,2022-01-26_11h26.41.110,multiplicationStroop,2021.2.3,Win32,60.17571308,,,,,,,,,,,,,,,,,,,,,,,,,,,,,,,,,4,1.3015,1,0,32,32,28,1,2,×,2,2 × 2,neutral,tie,1.5,1.5,4,,,,,,,,
,,,,,,,,,,,,,,,8254,2022-01-26_11h26.41.110,multiplicationStroop,2021.2.3,Win32,60.17571308,,,,,,,,,,,,,,,,,,,,,,,,,,,,,,,,,18,1.9152,1,0,33,33,18,1,9,×,2,9 × 2,neutral,largerFirst,1.5,1.5,18,,,,,,,,
,,,,,,,,,,,,,,,8254,2022-01-26_11h26.41.110,multiplicationStroop,2021.2.3,Win32,60.17571308,,,,,,,,,,,,,,,,,,,,,,,,,,,,,,,,,25,1.7486,1,0,34,34,31,1,5,×,5,5 × 5,neutral,tie,1.5,1.5,25,,,,,,,,
,,,,,,,,,,,,,,,8254,2022-01-26_11h26.41.110,multiplicationStroop,2021.2.3,Win32,60.17571308,,,,,,,,,,,,,,,,,,,,,,,,,,,,,,,,,15,2.2484,1,0,35,35,5,1,3,×,5,3 × 5,neutral,smallerFirst,1.5,1.5,15,,,,,,,,
,,,,,,,,,,,,,,,8254,2022-01-26_11h26.41.110,multiplicationStroop,2021.2.3,Win32,60.17571308,,,,,,,,,,,,,,,,,,,,,,,,,,,,,,,,,,,,,,,,,,,,,,,,,,0,2,2,1,1,stimulusFile/mult_blk2.xlsx,,
,,,,,,,,,,,,,,,8254,2022-01-26_11h26.41.110,multiplicationStroop,2021.2.3,Win32,60.17571308,,,,,,,,,,,,,,,,,,,,,,,,,,,,,,,space,107.1972,10,1.9807,1,0,0,0,18,1,5,×,2,5 × 2,neutral,largerFirst,1.5,1.5,10,,,,,,,,
,,,,,,,,,,,,,,,8254,2022-01-26_11h26.41.110,multiplicationStroop,2021.2.3,Win32,60.17571308,,,,,,,,,,,,,,,,,,,,,,,,,,,,,,,,,6,1.9984,1,0,1,1,12,1,2,×,3,2 × 3,neutral,smallerFirst,1.5,1.5,6,,,,,,,,
,,,,,,,,,,,,,,,8254,2022-01-26_11h26.41.110,multiplicationStroop,2021.2.3,Win32,60.17571308,,,,,,,,,,,,,,,,,,,,,,,,,,,,,,,,,64,1.7819,1,0,2,2,34,1,8,×,8,8 × 8,neutral,tie,1.5,1.5,64,,,,,,,,
,,,,,,,,,,,,,,,8254,2022-01-26_11h26.41.110,multiplicationStroop,2021.2.3,Win32,60.17571308,,,,,,,,,,,,,,,,,,,,,,,,,,,,,,,,,56,6.7459,1,0,3,3,23,1,8,×,7,8 × 7,neutral,largerFirst,1.5,1.5,56,,,,,,,,
,,,,,,,,,,,,,,,8254,2022-01-26_11h26.41.110,multiplicationStroop,2021.2.3,Win32,60.17571308,,,,,,,,,,,,,,,,,,,,,,,,,,,,,,,,,16,2.6834,1,0,4,4,27,1,8,×,2,8 × 2,neutral,largerFirst,1.5,1.5,16,,,,,,,,
,,,,,,,,,,,,,,,8254,2022-01-26_11h26.41.110,multiplicationStroop,2021.2.3,Win32,60.17571308,,,,,,,,,,,,,,,,,,,,,,,,,,,,,,,,,63,4.8134,1,0,5,5,26,1,9,×,7,9 × 7,neutral,largerFirst,1.5,1.5,63,,,,,,,,
,,,,,,,,,,,,,,,8254,2022-01-26_11h26.41.110,multiplicationStroop,2021.2.3,Win32,60.17571308,,,,,,,,,,,,,,,,,,,,,,,,,,,,,,,,,12,2.0676,1,0,6,6,11,1,2,×,6,2 × 6,neutral,smallerFirst,1.5,1.5,12,,,,,,,,
,,,,,,,,,,,,,,,8254,2022-01-26_11h26.41.110,multiplicationStroop,2021.2.3,Win32,60.17571308,,,,,,,,,,,,,,,,,,,,,,,,,,,,,,,,,81,1.7654,1,0,7,7,35,1,9,×,9,9 × 9,neutral,tie,1.5,1.5,81,,,,,,,,
,,,,,,,,,,,,,,,8254,2022-01-26_11h26.41.110,multiplicationStroop,2021.2.3,Win32,60.17571308,,,,,,,,,,,,,,,,,,,,,,,,,,,,,,,,,24,2.7315,1,0,8,8,16,1,6,×,4,6 × 4,neutral,largerFirst,1.5,1.5,24,,,,,,,,
,,,,,,,,,,,,,,,8254,2022-01-26_11h26.41.110,multiplicationStroop,2021.2.3,Win32,60.17571308,,,,,,,,,,,,,,,,,,,,,,,,,,,,,,,,,28,2.2009,1,0,9,9,3,1,4,×,7,4 × 7,neutral,smallerFirst,1.5,1.5,28,,,,,,,,
,,,,,,,,,,,,,,,8254,2022-01-26_11h26.41.110,multiplicationStroop,2021.2.3,Win32,60.17571308,,,,,,,,,,,,,,,,,,,,,,,,,,,,,,,,,36,1.9485,1,0,10,10,32,1,6,×,6,6 × 6,neutral,tie,1.5,1.5,36,,,,,,,,
,,,,,,,,,,,,,,,8254,2022-01-26_11h26.41.110,multiplicationStroop,2021.2.3,Win32,60.17571308,,,,,,,,,,,,,,,,,,,,,,,,,,,,,,,,,42,2.5481,1,0,11,11,20,1,7,×,6,7 × 6,neutral,largerFirst,1.5,1.5,42,,,,,,,,
,,,,,,,,,,,,,,,8254,2022-01-26_11h26.41.110,multiplicationStroop,2021.2.3,Win32,60.17571308,,,,,,,,,,,,,,,,,,,,,,,,,,,,,,,,,12,1.4988,1,0,12,12,7,1,3,×,4,3 × 4,neutral,smallerFirst,1.5,1.5,12,,,,,,,,
,,,,,,,,,,,,,,,8254,2022-01-26_11h26.41.110,multiplicationStroop,2021.2.3,Win32,60.17571308,,,,,,,,,,,,,,,,,,,,,,,,,,,,,,,,,21,2.7801,1,0,13,13,22,1,7,×,3,7 × 3,neutral,largerFirst,1.5,1.5,21,,,,,,,,
,,,,,,,,,,,,,,,8254,2022-01-26_11h26.41.110,multiplicationStroop,2021.2.3,Win32,60.17571308,,,,,,,,,,,,,,,,,,,,,,,,,,,,,,,,,18,1.9484,1,0,14,14,14,1,6,×,3,6 × 3,neutral,largerFirst,1.5,1.5,18,,,,,,,,
,,,,,,,,,,,,,,,8254,2022-01-26_11h26.41.110,multiplicationStroop,2021.2.3,Win32,60.17571308,,,,,,,,,,,,,,,,,,,,,,,,,,,,,,,,,15,1.7985,1,0,15,15,19,1,5,×,3,5 × 3,neutral,largerFirst,1.5,1.5,15,,,,,,,,
,,,,,,,,,,,,,,,8254,2022-01-26_11h26.41.110,multiplicationStroop,2021.2.3,Win32,60.17571308,,,,,,,,,,,,,,,,,,,,,,,,,,,,,,,,,9,1.6153,1,0,16,16,29,1,3,×,3,3 × 3,neutral,tie,1.5,1.5,9,,,,,,,,
,,,,,,,,,,,,,,,8254,2022-01-26_11h26.41.110,multiplicationStroop,2021.2.3,Win32,60.17571308,,,,,,,,,,,,,,,,,,,,,,,,,,,,,,,,,25,2.1482,1,0,17,17,31,1,5,×,5,5 × 5,neutral,tie,1.5,1.5,25,,,,,,,,
,,,,,,,,,,,,,,,8254,2022-01-26_11h26.41.110,multiplicationStroop,2021.2.3,Win32,60.17571308,,,,,,,,,,,,,,,,,,,,,,,,,,,,,,,,,30,1.6987,1,0,18,18,5,1,5,×,6,5 × 6,neutral,smallerFirst,1.5,1.5,30,,,,,,,,
,,,,,,,,,,,,,,,8254,2022-01-26_11h26.41.110,multiplicationStroop,2021.2.3,Win32,60.17571308,,,,,,,,,,,,,,,,,,,,,,,,,,,,,,,,,16,1.8484,1,0,19,19,30,1,4,×,4,4 × 4,neutral,tie,1.5,1.5,16,,,,,,,,
,,,,,,,,,,,,,,,8254,2022-01-26_11h26.41.110,multiplicationStroop,2021.2.3,Win32,60.17571308,,,,,,,,,,,,,,,,,,,,,,,,,,,,,,,,,20,1.7985,1,0,20,20,6,1,4,×,5,4 × 5,neutral,smallerFirst,1.5,1.5,20,,,,,,,,
,,,,,,,,,,,,,,,8254,2022-01-26_11h26.41.110,multiplicationStroop,2021.2.3,Win32,60.17571308,,,,,,,,,,,,,,,,,,,,,,,,,,,,,,,,,40,1.8818,1,0,21,21,10,1,5,×,8,5 × 8,neutral,smallerFirst,1.5,1.5,40,,,,,,,,
,,,,,,,,,,,,,,,8254,2022-01-26_11h26.41.110,multiplicationStroop,2021.2.3,Win32,60.17571308,,,,,,,,,,,,,,,,,,,,,,,,,,,,,,,,,48,2.6481,1,0,22,22,1,1,6,×,8,6 × 8,neutral,smallerFirst,1.5,1.5,48,,,,,,,,
,,,,,,,,,,,,,,,8254,2022-01-26_11h26.41.110,multiplicationStroop,2021.2.3,Win32,60.17571308,,,,,,,,,,,,,,,,,,,,,,,,,,,,,,,,,24,3.1673,1,0,23,23,8,1,3,×,8,3 × 8,neutral,smallerFirst,1.5,1.5,24,,,,,,,,
,,,,,,,,,,,,,,,8254,2022-01-26_11h26.41.110,multiplicationStroop,2021.2.3,Win32,60.17571308,,,,,,,,,,,,,,,,,,,,,,,,,,,,,,,,,49,3.1478,1,0,24,24,33,1,7,×,7,7 × 7,neutral,tie,1.5,1.5,49,,,,,,,,
,,,,,,,,,,,,,,,8254,2022-01-26_11h26.41.110,multiplicationStroop,2021.2.3,Win32,60.17571308,,,,,,,,,,,,,,,,,,,,,,,,,,,,,,,,,35,3.1671,1,0,25,25,15,1,7,×,5,7 × 5,neutral,largerFirst,1.5,1.5,35,,,,,,,,
,,,,,,,,,,,,,,,8254,2022-01-26_11h26.41.110,multiplicationStroop,2021.2.3,Win32,60.17571308,,,,,,,,,,,,,,,,,,,,,,,,,,,,,,,,,27,2.1317,1,0,26,26,0,1,3,×,9,3 × 9,neutral,smallerFirst,1.5,1.5,27,,,,,,,,
,,,,,,,,,,,,,,,8254,2022-01-26_11h26.41.110,multiplicationStroop,2021.2.3,Win32,60.17571308,,,,,,,,,,,,,,,,,,,,,,,,,,,,,,,,,14,2.1011,1,0,27,27,2,1,2,×,7,2 × 7,neutral,smallerFirst,1.5,1.5,14,,,,,,,,
,,,,,,,,,,,,,,,8254,2022-01-26_11h26.41.110,multiplicationStroop,2021.2.3,Win32,60.17571308,,,,,,,,,,,,,,,,,,,,,,,,,,,,,,,,,36,4.6304,1,0,28,28,13,1,4,×,9,4 × 9,neutral,smallerFirst,1.5,1.5,36,,,,,,,,
,,,,,,,,,,,,,,,8254,2022-01-26_11h26.41.110,multiplicationStroop,2021.2.3,Win32,60.17571308,,,,,,,,,,,,,,,,,,,,,,,,,,,,,,,,,45,2.0184,1,0,29,29,24,1,9,×,5,9 × 5,neutral,largerFirst,1.5,1.5,45,,,,,,,,
,,,,,,,,,,,,,,,8254,2022-01-26_11h26.41.110,multiplicationStroop,2021.2.3,Win32,60.17571308,,,,,,,,,,,,,,,,,,,,,,,,,,,,,,,,,32,4.997,1,0,30,30,9,1,4,×,8,4 × 8,neutral,smallerFirst,1.5,1.5,32,,,,,,,,
,,,,,,,,,,,,,,,8254,2022-01-26_11h26.41.110,multiplicationStroop,2021.2.3,Win32,60.17571308,,,,,,,,,,,,,,,,,,,,,,,,,,,,,,,,,8,2.4508,1,0,31,31,17,1,4,×,2,4 × 2,neutral,largerFirst,1.5,1.5,8,,,,,,,,
,,,,,,,,,,,,,,,8254,2022-01-26_11h26.41.110,multiplicationStroop,2021.2.3,Win32,60.17571308,,,,,,,,,,,,,,,,,,,,,,,,,,,,,,,,,4,1.3182,1,0,32,32,28,1,2,×,2,2 × 2,neutral,tie,1.5,1.5,4,,,,,,,,
,,,,,,,,,,,,,,,8254,2022-01-26_11h26.41.110,multiplicationStroop,2021.2.3,Win32,60.17571308,,,,,,,,,,,,,,,,,,,,,,,,,,,,,,,,,54,7.829,1,0,33,33,21,1,9,×,6,9 × 6,neutral,largerFirst,1.5,1.5,54,,,,,,,,
,,,,,,,,,,,,,,,8254,2022-01-26_11h26.41.110,multiplicationStroop,2021.2.3,Win32,60.17571308,,,,,,,,,,,,,,,,,,,,,,,,,,,,,,,,,18,1.7505,1,0,34,34,4,1,2,×,9,2 × 9,neutral,smallerFirst,1.5,1.5,18,,,,,,,,
,,,,,,,,,,,,,,,8254,2022-01-26_11h26.41.110,multiplicationStroop,2021.2.3,Win32,60.17571308,,,,,,,,,,,,,,,,,,,,,,,,,,,,,,,,,72,5.0467,1,0,35,35,25,1,9,×,8,9 × 8,neutral,largerFirst,1.5,1.5,72,,,,,,,,
,,,,,,,,,,,,,,,8254,2022-01-26_11h26.41.110,multiplicationStroop,2021.2.3,Win32,60.17571308,,,,,,,,,,,,,,,,,,,,,,,,,,,,,,,,,,,,,,,,,,,,,,,,,,0,3,3,0,1,stimulusFile/mult_blk1.xlsx,,
,,,,,,,,,,,,,,,8254,2022-01-26_11h26.41.110,multiplicationStroop,2021.2.3,Win32,60.17571308,,,,,,,,,,,,,,,,,,,,,,,,,,,,,,,space,1.1151,32,2.9815,1,0,0,0,20,1,8,×,4,8 × 4,congruent,largerFirst,2,1,32,,,,,,,,
,,,,,,,,,,,,,,,8254,2022-01-26_11h26.41.110,multiplicationStroop,2021.2.3,Win32,60.17571308,,,,,,,,,,,,,,,,,,,,,,,,,,,,,,,,,54,5.2657,1,0,1,1,12,1,6,×,9,6 × 9,congruent,smallerFirst,1,2,54,,,,,,,,
,,,,,,,,,,,,,,,8254,2022-01-26_11h26.41.110,multiplicationStroop,2021.2.3,Win32,60.17571308,,,,,,,,,,,,,,,,,,,,,,,,,,,,,,,,,24,1.768,1,0,2,2,10,1,3,×,8,3 × 8,congruent,smallerFirst,1,2,24,,,,,,,,
,,,,,,,,,,,,,,,8254,2022-01-26_11h26.41.110,multiplicationStroop,2021.2.3,Win32,60.17571308,,,,,,,,,,,,,,,,,,,,,,,,,,,,,,,,,49,3.0311,1,0,3,3,33,1,7,×,7,7 × 7,neutral,tie,2,1,49,,,,,,,,
,,,,,,,,,,,,,,,8254,2022-01-26_11h26.41.110,multiplicationStroop,2021.2.3,Win32,60.17571308,,,,,,,,,,,,,,,,,,,,,,,,,,,,,,,,,12,2.7674,1,0,4,4,19,1,6,×,2,6 × 2,congruent,largerFirst,2,1,12,,,,,,,,
,,,,,,,,,,,,,,,8254,2022-01-26_11h26.41.110,multiplicationStroop,2021.2.3,Win32,60.17571308,,,,,,,,,,,,,,,,,,,,,,,,,,,,,,,,,14,1.682,1,0,5,5,14,1,7,×,2,7 × 2,congruent,largerFirst,2,1,14,,,,,,,,
,,,,,,,,,,,,,,,8254,2022-01-26_11h26.41.110,multiplicationStroop,2021.2.3,Win32,60.17571308,,,,,,,,,,,,,,,,,,,,,,,,,,,,,,,,,28,2.3482,1,0,6,6,27,1,7,×,4,7 × 4,congruent,largerFirst,2,1,28,,,,,,,,
,,,,,,,,,,,,,,,8254,2022-01-26_11h26.41.110,multiplicationStroop,2021.2.3,Win32,60.17571308,,,,,,,,,,,,,,,,,,,,,,,,,,,,,,,,,25,1.8153,1,0,7,7,31,1,5,×,5,5 × 5,neutral,tie,2,1,25,,,,,,,,
,,,,,,,,,,,,,,,8254,2022-01-26_11h26.41.110,multiplicationStroop,2021.2.3,Win32,60.17571308,,,,,,,,,,,,,,,,,,,,,,,,,,,,,,,,,27,2.9128,1,0,8,8,26,1,9,×,3,9 × 3,congruent,largerFirst,2,1,27,,,,,,,,
,,,,,,,,,,,,,,,8254,2022-01-26_11h26.41.110,multiplicationStroop,2021.2.3,Win32,60.17571308,,,,,,,,,,,,,,,,,,,,,,,,,,,,,,,,,12,1.4348,1,0,9,9,2,1,3,×,4,3 × 4,congruent,smallerFirst,1,2,12,,,,,,,,
,,,,,,,,,,,,,,,8254,2022-01-26_11h26.41.110,multiplicationStroop,2021.2.3,Win32,60.17571308,,,,,,,,,,,,,,,,,,,,,,,,,,,,,,,,,42,1.8319,1,0,10,10,3,1,6,×,7,6 × 7,congruent,smallerFirst,1,2,42,,,,,,,,
,,,,,,,,,,,,,,,8254,2022-01-26_11h26.41.110,multiplicationStroop,2021.2.3,Win32,60.17571308,,,,,,,,,,,,,,,,,,,,,,,,,,,,,,,,,81,1.6486,1,0,11,11,35,1,9,×,9,9 × 9,neutral,tie,2,1,81,,,,,,,,
,,,,,,,,,,,,,,,8254,2022-01-26_11h26.41.110,multiplicationStroop,2021.2.3,Win32,60.17571308,,,,,,,,,,,,,,,,,,,,,,,,,,,,,,,,,9,1.5985,1,0,12,12,29,1,3,×,3,3 × 3,neutral,tie,2,1,9,,,,,,,,
,,,,,,,,,,,,,,,8254,2022-01-26_11h26.41.110,multiplicationStroop,2021.2.3,Win32,60.17571308,,,,,,,,,,,,,,,,,,,,,,,,,,,,,,,,,15,2.5481,1,0,13,13,4,1,3,×,5,3 × 5,congruent,smallerFirst,1,2,15,,,,,,,,
,,,,,,,,,,,,,,,8254,2022-01-26_11h26.41.110,multiplicationStroop,2021.2.3,Win32,60.17571308,,,,,,,,,,,,,,,,,,,,,,,,,,,,,,,,,45,1.8819,1,0,14,14,23,1,9,×,5,9 × 5,congruent,largerFirst,2,1,45,,,,,,,,
,,,,,,,,,,,,,,,8254,2022-01-26_11h26.41.110,multiplicationStroop,2021.2.3,Win32,60.17571308,,,,,,,,,,,,,,,,,,,,,,,,,,,,,,,,,20,1.9817,1,0,15,15,7,1,4,×,5,4 × 5,congruent,smallerFirst,1,2,20,,,,,,,,
,,,,,,,,,,,,,,,8254,2022-01-26_11h26.41.110,multiplicationStroop,2021.2.3,Win32,60.17571308,,,,,,,,,,,,,,,,,,,,,,,,,,,,,,,,,35,2.1984,1,0,16,16,1,1,5,×,7,5 × 7,congruent,smallerFirst,1,2,35,,,,,,,,
,,,,,,,,,,,,,,,8254,2022-01-26_11h26.41.110,multiplicationStroop,2021.2.3,Win32,60.17571308,,,,,,,,,,,,,,,,,,,,,,,,,,,,,,,,,18,1.9817,1,0,17,17,11,1,3,×,6,3 × 6,congruent,smallerFirst,1,2,18,,,,,,,,
,,,,,,,,,,,,,,,8254,2022-01-26_11h26.41.110,multiplicationStroop,2021.2.3,Win32,60.17571308,,,,,,,,,,,,,,,,,,,,,,,,,,,,,,,,,18,2.0317,1,0,18,18,22,1,9,×,2,9 × 2,congruent,largerFirst,2,1,18,,,,,,,,
,,,,,,,,,,,,,,,8254,2022-01-26_11h26.41.110,multiplicationStroop,2021.2.3,Win32,60.17571308,,,,,,,,,,,,,,,,,,,,,,,,,,,,,,,,,8,1.9485,1,0,19,19,9,1,2,×,4,2 × 4,congruent,smallerFirst,1,2,8,,,,,,,,
,,,,,,,,,,,,,,,8254,2022-01-26_11h26.41.110,multiplicationStroop,2021.2.3,Win32,60.17571308,,,,,,,,,,,,,,,,,,,,,,,,,,,,,,,,,56,7.3444,1,0,20,20,8,1,7,×,8,7 × 8,congruent,smallerFirst,1,2,56,,,,,,,,
,,,,,,,,,,,,,,,8254,2022-01-26_11h26.41.110,multiplicationStroop,2021.2.3,Win32,60.17571308,,,,,,,,,,,,,,,,,,,,,,,,,,,,,,,,,24,2.3836,1,0,21,21,25,1,6,×,4,6 × 4,congruent,largerFirst,2,1,24,,,,,,,,
,,,,,,,,,,,,,,,8254,2022-01-26_11h26.41.110,multiplicationStroop,2021.2.3,Win32,60.17571308,,,,,,,,,,,,,,,,,,,,,,,,,,,,,,,,,21,2.9478,1,0,22,22,16,1,7,×,3,7 × 3,congruent,largerFirst,2,1,21,,,,,,,,
,,,,,,,,,,,,,,,8254,2022-01-26_11h26.41.110,multiplicationStroop,2021.2.3,Win32,60.17571308,,,,,,,,,,,,,,,,,,,,,,,,,,,,,,,,,64,1.6153,1,0,23,23,34,1,8,×,8,8 × 8,neutral,tie,2,1,64,,,,,,,,
,,,,,,,,,,,,,,,8254,2022-01-26_11h26.41.110,multiplicationStroop,2021.2.3,Win32,60.17571308,,,,,,,,,,,,,,,,,,,,,,,,,,,,,,,,,4,1.3654,1,0,24,24,28,1,2,×,2,2 × 2,neutral,tie,2,1,4,,,,,,,,
,,,,,,,,,,,,,,,8254,2022-01-26_11h26.41.110,multiplicationStroop,2021.2.3,Win32,60.17571308,,,,,,,,,,,,,,,,,,,,,,,,,,,,,,,,,10,1.5319,1,0,25,25,24,1,5,×,2,5 × 2,congruent,largerFirst,2,1,10,,,,,,,,
,,,,,,,,,,,,,,,8254,2022-01-26_11h26.41.110,multiplicationStroop,2021.2.3,Win32,60.17571308,,,,,,,,,,,,,,,,,,,,,,,,,,,,,,,,,30,1.9654,1,0,26,26,15,1,6,×,5,6 × 5,congruent,largerFirst,2,1,30,,,,,,,,
,,,,,,,,,,,,,,,8254,2022-01-26_11h26.41.110,multiplicationStroop,2021.2.3,Win32,60.17571308,,,,,,,,,,,,,,,,,,,,,,,,,,,,,,,,,6,1.3642,1,0,27,27,13,1,2,×,3,2 × 3,congruent,smallerFirst,1,2,6,,,,,,,,
,,,,,,,,,,,,,,,8254,2022-01-26_11h26.41.110,multiplicationStroop,2021.2.3,Win32,60.17571308,,,,,,,,,,,,,,,,,,,,,,,,,,,,,,,,,16,1.6652,1,0,28,28,30,1,4,×,4,4 × 4,neutral,tie,2,1,16,,,,,,,,
,,,,,,,,,,,,,,,8254,2022-01-26_11h26.41.110,multiplicationStroop,2021.2.3,Win32,60.17571308,,,,,,,,,,,,,,,,,,,,,,,,,,,,,,,,,36,2.1984,1,0,29,29,32,1,6,×,6,6 × 6,neutral,tie,2,1,36,,,,,,,,
,,,,,,,,,,,,,,,8254,2022-01-26_11h26.41.110,multiplicationStroop,2021.2.3,Win32,60.17571308,,,,,,,,,,,,,,,,,,,,,,,,,,,,,,,,,48,2.215,1,0,30,30,18,1,8,×,6,8 × 6,congruent,largerFirst,2,1,48,,,,,,,,
,,,,,,,,,,,,,,,8254,2022-01-26_11h26.41.110,multiplicationStroop,2021.2.3,Win32,60.17571308,,,,,,,,,,,,,,,,,,,,,,,,,,,,,,,,,36,2.4482,1,0,31,31,0,1,4,×,9,4 × 9,congruent,smallerFirst,1,2,36,,,,,,,,
,,,,,,,,,,,,,,,8254,2022-01-26_11h26.41.110,multiplicationStroop,2021.2.3,Win32,60.17571308,,,,,,,,,,,,,,,,,,,,,,,,,,,,,,,,,63,4.7137,1,0,32,32,21,1,9,×,7,9 × 7,congruent,largerFirst,2,1,63,,,,,,,,
,,,,,,,,,,,,,,,8254,2022-01-26_11h26.41.110,multiplicationStroop,2021.2.3,Win32,60.17571308,,,,,,,,,,,,,,,,,,,,,,,,,,,,,,,,,40,1.8011,1,0,33,33,6,1,5,×,8,5 × 8,congruent,smallerFirst,1,2,40,,,,,,,,
,,,,,,,,,,,,,,,8254,2022-01-26_11h26.41.110,multiplicationStroop,2021.2.3,Win32,60.17571308,,,,,,,,,,,,,,,,,,,,,,,,,,,,,,,,,16,1.6986,1,0,34,34,5,1,2,×,8,2 × 8,congruent,smallerFirst,1,2,16,,,,,,,,
,,,,,,,,,,,,,,,8254,2022-01-26_11h26.41.110,multiplicationStroop,2021.2.3,Win32,60.17571308,,,,,,,,,,,,,,,,,,,,,,,,,,,,,,,,,72,7.229,1,0,35,35,17,1,9,×,8,9 × 8,congruent,largerFirst,2,1,72,,,,,,,,
,,,,,,,,,,,,,,,8254,2022-01-26_11h26.41.110,multiplicationStroop,2021.2.3,Win32,60.17571308,,,,,,,,,,,,,,,,,,,,,,,,,,,,,,,,,,,,,,,,,,,,,,,,,,0,4,4,2,1,stimulusFile/mult_blk3_congruent.xlsx,,
,,,,,,,,,,,,,,,8254,2022-01-26_11h26.41.110,multiplicationStroop,2021.2.3,Win32,60.17571308,,,,,,,,,,,,,,,,,,,,,,,,,,,,,,,space,4.365,14,2.211,1,0,0,0,4,1,2,×,7,2 × 7,incongruent,smallerFirst,2,1,14,,,,,,,,
,,,,,,,,,,,,,,,8254,2022-01-26_11h26.41.110,multiplicationStroop,2021.2.3,Win32,60.17571308,,,,,,,,,,,,,,,,,,,,,,,,,,,,,,,,,49,2.165,1,0,1,1,33,1,7,×,7,7 × 7,incongruent,tie,1,2,49,,,,,,,,
,,,,,,,,,,,,,,,8254,2022-01-26_11h26.41.110,multiplicationStroop,2021.2.3,Win32,60.17571308,,,,,,,,,,,,,,,,,,,,,,,,,,,,,,,,,81,1.8485,1,0,2,2,35,1,9,×,9,9 × 9,incongruent,tie,1,2,81,,,,,,,,
,,,,,,,,,,,,,,,8254,2022-01-26_11h26.41.110,multiplicationStroop,2021.2.3,Win32,60.17571308,,,,,,,,,,,,,,,,,,,,,,,,,,,,,,,,,25,2.2817,1,0,3,3,31,1,5,×,5,5 × 5,incongruent,tie,1,2,25,,,,,,,,
,,,,,,,,,,,,,,,8254,2022-01-26_11h26.41.110,multiplicationStroop,2021.2.3,Win32,60.17571308,,,,,,,,,,,,,,,,,,,,,,,,,,,,,,,,,4,1.2655,1,0,4,4,28,1,2,×,2,2 × 2,incongruent,tie,1,2,4,,,,,,,,
,,,,,,,,,,,,,,,8254,2022-01-26_11h26.41.110,multiplicationStroop,2021.2.3,Win32,60.17571308,,,,,,,,,,,,,,,,,,,,,,,,,,,,,,,,,12,1.5151,1,0,5,5,5,1,3,×,4,3 × 4,incongruent,smallerFirst,2,1,12,,,,,,,,
,,,,,,,,,,,,,,,8254,2022-01-26_11h26.41.110,multiplicationStroop,2021.2.3,Win32,60.17571308,,,,,,,,,,,,,,,,,,,,,,,,,,,,,,,,,8,2.8317,1,0,6,6,24,1,4,×,2,4 × 2,incongruent,largerFirst,1,2,8,,,,,,,,
,,,,,,,,,,,,,,,8254,2022-01-26_11h26.41.110,multiplicationStroop,2021.2.3,Win32,60.17571308,,,,,,,,,,,,,,,,,,,,,,,,,,,,,,,,,42,2.0843,1,0,7,7,17,1,7,×,6,7 × 6,incongruent,largerFirst,1,2,42,,,,,,,,
,,,,,,,,,,,,,,,8254,2022-01-26_11h26.41.110,multiplicationStroop,2021.2.3,Win32,60.17571308,,,,,,,,,,,,,,,,,,,,,,,,,,,,,,,,,9,1.582,1,0,8,8,29,1,3,×,3,3 × 3,incongruent,tie,1,2,9,,,,,,,,
,,,,,,,,,,,,,,,8254,2022-01-26_11h26.41.110,multiplicationStroop,2021.2.3,Win32,60.17571308,,,,,,,,,,,,,,,,,,,,,,,,,,,,,,,,,32,3.0146,1,0,9,9,7,1,4,×,8,4 × 8,incongruent,smallerFirst,2,1,32,,,,,,,,
,,,,,,,,,,,,,,,8254,2022-01-26_11h26.41.110,multiplicationStroop,2021.2.3,Win32,60.17571308,,,,,,,,,,,,,,,,,,,,,,,,,,,,,,,,,21,1.6819,1,0,10,10,26,1,7,×,3,7 × 3,incongruent,largerFirst,1,2,21,,,,,,,,
,,,,,,,,,,,,,,,8254,2022-01-26_11h26.41.110,multiplicationStroop,2021.2.3,Win32,60.17571308,,,,,,,,,,,,,,,,,,,,,,,,,,,,,,,,,6,1.7817,1,0,11,11,11,1,2,×,3,2 × 3,incongruent,smallerFirst,2,1,6,,,,,,,,
,,,,,,,,,,,,,,,8254,2022-01-26_11h26.41.110,multiplicationStroop,2021.2.3,Win32,60.17571308,,,,,,,,,,,,,,,,,,,,,,,,,,,,,,,,,15,2.3983,1,0,12,12,10,1,3,×,5,3 × 5,incongruent,smallerFirst,2,1,15,,,,,,,,
,,,,,,,,,,,,,,,8254,2022-01-26_11h26.41.110,multiplicationStroop,2021.2.3,Win32,60.17571308,,,,,,,,,,,,,,,,,,,,,,,,,,,,,,,,,45,2.0984,1,0,13,13,22,1,9,×,5,9 × 5,incongruent,largerFirst,1,2,45,,,,,,,,
,,,,,,,,,,,,,,,8254,2022-01-26_11h26.41.110,multiplicationStroop,2021.2.3,Win32,60.17571308,,,,,,,,,,,,,,,,,,,,,,,,,,,,,,,,,64,2.0817,1,0,14,14,34,1,8,×,8,8 × 8,incongruent,tie,1,2,64,,,,,,,,
,,,,,,,,,,,,,,,8254,2022-01-26_11h26.41.110,multiplicationStroop,2021.2.3,Win32,60.17571308,,,,,,,,,,,,,,,,,,,,,,,,,,,,,,,,,16,1.9985,1,0,15,15,23,1,8,×,2,8 × 2,incongruent,largerFirst,1,2,16,,,,,,,,
,,,,,,,,,,,,,,,8254,2022-01-26_11h26.41.110,multiplicationStroop,2021.2.3,Win32,60.17571308,,,,,,,,,,,,,,,,,,,,,,,,,,,,,,,,,12,1.7653,1,0,16,16,19,1,6,×,2,6 × 2,incongruent,largerFirst,1,2,12,,,,,,,,
,,,,,,,,,,,,,,,8254,2022-01-26_11h26.41.110,multiplicationStroop,2021.2.3,Win32,60.17571308,,,,,,,,,,,,,,,,,,,,,,,,,,,,,,,,,56,6.3959,1,0,17,17,14,1,8,×,7,8 × 7,incongruent,largerFirst,1,2,56,,,,,,,,
,,,,,,,,,,,,,,,8254,2022-01-26_11h26.41.110,multiplicationStroop,2021.2.3,Win32,60.17571308,,,,,,,,,,,,,,,,,,,,,,,,,,,,,,,,,30,1.8013,1,0,18,18,25,1,6,×,5,6 × 5,incongruent,largerFirst,1,2,30,,,,,,,,
,,,,,,,,,,,,,,,8254,2022-01-26_11h26.41.110,multiplicationStroop,2021.2.3,Win32,60.17571308,,,,,,,,,,,,,,,,,,,,,,,,,,,,,,,,,28,2.1317,1,0,19,19,16,1,7,×,4,7 × 4,incongruent,largerFirst,1,2,28,,,,,,,,
,,,,,,,,,,,,,,,8254,2022-01-26_11h26.41.110,multiplicationStroop,2021.2.3,Win32,60.17571308,,,,,,,,,,,,,,,,,,,,,,,,,,,,,,,,,35,2.5314,1,0,20,20,12,1,5,×,7,5 × 7,incongruent,smallerFirst,2,1,35,,,,,,,,
,,,,,,,,,,,,,,,8254,2022-01-26_11h26.41.110,multiplicationStroop,2021.2.3,Win32,60.17571308,,,,,,,,,,,,,,,,,,,,,,,,,,,,,,,,,72,10.2106,1,0,21,21,0,1,8,×,9,8 × 9,incongruent,smallerFirst,2,1,72,,,,,,,,
,,,,,,,,,,,,,,,8254,2022-01-26_11h26.41.110,multiplicationStroop,2021.2.3,Win32,60.17571308,,,,,,,,,,,,,,,,,,,,,,,,,,,,,,,,,24,2.0839,1,0,22,22,9,1,3,×,8,3 × 8,incongruent,smallerFirst,2,1,24,,,,,,,,
,,,,,,,,,,,,,,,8254,2022-01-26_11h26.41.110,multiplicationStroop,2021.2.3,Win32,60.17571308,,,,,,,,,,,,,,,,,,,,,,,,,,,,,,,,,36,3.6142,1,0,23,23,15,1,9,×,4,9 × 4,incongruent,largerFirst,1,2,36,,,,,,,,
,,,,,,,,,,,,,,,8254,2022-01-26_11h26.41.110,multiplicationStroop,2021.2.3,Win32,60.17571308,,,,,,,,,,,,,,,,,,,,,,,,,,,,,,,,,20,1.6651,1,0,24,24,27,1,5,×,4,5 × 4,incongruent,largerFirst,1,2,20,,,,,,,,
,,,,,,,,,,,,,,,8254,2022-01-26_11h26.41.110,multiplicationStroop,2021.2.3,Win32,60.17571308,,,,,,,,,,,,,,,,,,,,,,,,,,,,,,,,,24,1.9819,1,0,25,25,20,1,6,×,4,6 × 4,incongruent,largerFirst,1,2,24,,,,,,,,
,,,,,,,,,,,,,,,8254,2022-01-26_11h26.41.110,multiplicationStroop,2021.2.3,Win32,60.17571308,,,,,,,,,,,,,,,,,,,,,,,,,,,,,,,,,287,4.497,0,0,26,26,18,1,9,×,3,9 × 3,incongruent,largerFirst,1,2,27,,,,,,,,
,,,,,,,,,,,,,,,8254,2022-01-26_11h26.41.110,multiplicationStroop,2021.2.3,Win32,60.17571308,,,,,,,,,,,,,,,,,,,,,,,,,,,,,,,,,16,2.7673,1,0,27,27,30,1,4,×,4,4 × 4,incongruent,tie,1,2,16,,,,,,,,
,,,,,,,,,,,,,,,8254,2022-01-26_11h26.41.110,multiplicationStroop,2021.2.3,Win32,60.17571308,,,,,,,,,,,,,,,,,,,,,,,,,,,,,,,,,54,5.3325,1,0,28,28,6,1,6,×,9,6 × 9,incongruent,smallerFirst,2,1,54,,,,,,,,
,,,,,,,,,,,,,,,8254,2022-01-26_11h26.41.110,multiplicationStroop,2021.2.3,Win32,60.17571308,,,,,,,,,,,,,,,,,,,,,,,,,,,,,,,,,63,5.749,1,0,29,29,3,1,7,×,9,7 × 9,incongruent,smallerFirst,2,1,63,,,,,,,,
,,,,,,,,,,,,,,,8254,2022-01-26_11h26.41.110,multiplicationStroop,2021.2.3,Win32,60.17571308,,,,,,,,,,,,,,,,,,,,,,,,,,,,,,,,,48,5.2994,1,0,30,30,1,1,6,×,8,6 × 8,incongruent,smallerFirst,2,1,48,,,,,,,,
,,,,,,,,,,,,,,,8254,2022-01-26_11h26.41.110,multiplicationStroop,2021.2.3,Win32,60.17571308,,,,,,,,,,,,,,,,,,,,,,,,,,,,,,,,,10,2.4674,1,0,31,31,21,1,5,×,2,5 × 2,incongruent,largerFirst,1,2,10,,,,,,,,
,,,,,,,,,,,,,,,8254,2022-01-26_11h26.41.110,multiplicationStroop,2021.2.3,Win32,60.17571308,,,,,,,,,,,,,,,,,,,,,,,,,,,,,,,,,36,2.0984,1,0,32,32,32,1,6,×,6,6 × 6,incongruent,tie,1,2,36,,,,,,,,
,,,,,,,,,,,,,,,8254,2022-01-26_11h26.41.110,multiplicationStroop,2021.2.3,Win32,60.17571308,,,,,,,,,,,,,,,,,,,,,,,,,,,,,,,,,40,1.732,1,0,33,33,13,1,5,×,8,5 × 8,incongruent,smallerFirst,2,1,40,,,,,,,,
,,,,,,,,,,,,,,,8254,2022-01-26_11h26.41.110,multiplicationStroop,2021.2.3,Win32,60.17571308,,,,,,,,,,,,,,,,,,,,,,,,,,,,,,,,,18,2.3816,1,0,34,34,2,1,2,×,9,2 × 9,incongruent,smallerFirst,2,1,18,,,,,,,,
,,,,,,,,,,,,,,,8254,2022-01-26_11h26.41.110,multiplicationStroop,2021.2.3,Win32,60.17571308,,,,,,,,,,,,,,,,,,,,,,,,,,,,,,,,,18,4.3971,1,0,35,35,8,1,3,×,6,3 × 6,incongruent,smallerFirst,2,1,18,,,,,,,,
,,,,,,,,,,,,,,,8254,2022-01-26_11h26.41.110,multiplicationStroop,2021.2.3,Win32,60.17571308,,,,,,,,,,,,,,,,,,,,,,,,,,,,,,,,,,,,,,,,,,,,,,,,,,0,5,5,5,1,stimulusFile/mult_blk6_INcongruent.xlsx,,
,,,,,,,,,,,,,,,8254,2022-01-26_11h26.41.110,multiplicationStroop,2021.2.3,Win32,60.17571308,,,,,,,,,,,,,,,,,,,,,,,,,,,,,,,,,,,,,,,,,,,,,,,,,,,,,,,,space,11.5917