welcomeKey_resp.keys,welcomeKey_resp.rt,X Scale,Y Scale,rt_resp_4.keys,rt_resp_4.corr,rt_resp_4.rt,speedtest_2.thisRepN,speedtest_2.thisTrialN,speedtest_2.thisN,speedtest_2.thisIndex,speedtest_2.ran,numberSc,posX,positionLayout,participant,date,expName,psychopyVersion,OS,frameRate,ct_instrresp.keys,ct_instrresp.rt,key_resp_2.keys,key_resp_2.rt,ct_keyResp.keys,ct_keyResp.corr,ct_keyResp.rt,trials.thisRepN,trials.thisTrialN,trials.thisN,trials.thisIndex,trials.ran,leftNo,rightNo,displayProblem,numDistance,leftNo_size,rightNo_size,Dims,keyAnswer,TS_Loop.thisRepN,TS_Loop.thisTrialN,TS_Loop.thisN,TS_Loop.thisIndex,TS_Loop.ran,Condition,ActionInst,instrImage,mltptaskInst_resp.keys,mltptaskInst_resp.rt,continue_resp_2.keys,continue_resp_2.rt,multp_Answer,multi_RT,multiplyCorr,LoopingMultiply.thisRepN,LoopingMultiply.thisTrialN,LoopingMultiply.thisN,LoopingMultiply.thisIndex,LoopingMultiply.ran,factor1,multiplySign,factor2,multliplyProblem,physicalSize,orderOperand,sizeF1,sizeF2,mult_answer,trials_stroop.thisRepN,trials_stroop.thisTrialN,trials_stroop.thisN,trials_stroop.thisIndex,trials_stroop.ran,multiplicationFile,esckey_resp_2.keys,esckey_resp_2.rt
y,9.8233,44.8,44.7,right,1,0.8633,0,0,0,9,1,2,200,right,8257,2022-01-26_11h28.21.827,multiplicationStroop,2021.2.3,Win32,61.0724319,,,,,,,,,,,,,,,,,,,,,,,,,,,,,,,,,,,,,,,,,,,,,,,,,,,,,,,,,
,,,,right,1,0.7766,0,1,1,8,1,1,200,right,8257,2022-01-26_11h28.21.827,multiplicationStroop,2021.2.3,Win32,61.0724319,,,,,,,,,,,,,,,,,,,,,,,,,,,,,,,,,,,,,,,,,,,,,,,,,,,,,,,,,
,,,,right,1,0.4629,0,2,2,14,1,8,200,right,8257,2022-01-26_11h28.21.827,multiplicationStroop,2021.2.3,Win32,61.0724319,,,,,,,,,,,,,,,,,,,,,,,,,,,,,,,,,,,,,,,,,,,,,,,,,,,,,,,,,
,,,,right,1,0.3222,0,3,3,11,1,4,200,right,8257,2022-01-26_11h28.21.827,multiplicationStroop,2021.2.3,Win32,61.0724319,,,,,,,,,,,,,,,,,,,,,,,,,,,,,,,,,,,,,,,,,,,,,,,,,,,,,,,,,
,,,,right,1,0.3013,0,4,4,12,1,6,200,right,8257,2022-01-26_11h28.21.827,multiplicationStroop,2021.2.3,Win32,61.0724319,,,,,,,,,,,,,,,,,,,,,,,,,,,,,,,,,,,,,,,,,,,,,,,,,,,,,,,,,
,,,,left,1,0.5209,0,5,5,0,1,1,-200,left,8257,2022-01-26_11h28.21.827,multiplicationStroop,2021.2.3,Win32,61.0724319,,,,,,,,,,,,,,,,,,,,,,,,,,,,,,,,,,,,,,,,,,,,,,,,,,,,,,,,,
,,,,left,1,0.3516,0,6,6,6,1,8,-200,left,8257,2022-01-26_11h28.21.827,multiplicationStroop,2021.2.3,Win32,61.0724319,,,,,,,,,,,,,,,,,,,,,,,,,,,,,,,,,,,,,,,,,,,,,,,,,,,,,,,,,
,,,,left,1,0.2715,0,7,7,4,1,6,-200,left,8257,2022-01-26_11h28.21.827,multiplicationStroop,2021.2.3,Win32,61.0724319,,,,,,,,,,,,,,,,,,,,,,,,,,,,,,,,,,,,,,,,,,,,,,,,,,,,,,,,,
,,,,right,1,0.5754,0,8,8,13,1,7,200,right,8257,2022-01-26_11h28.21.827,multiplicationStroop,2021.2.3,Win32,61.0724319,,,,,,,,,,,,,,,,,,,,,,,,,,,,,,,,,,,,,,,,,,,,,,,,,,,,,,,,,
,,,,left,1,0.4373,0,9,9,1,1,2,-200,left,8257,2022-01-26_11h28.21.827,multiplicationStroop,2021.2.3,Win32,61.0724319,,,,,,,,,,,,,,,,,,,,,,,,,,,,,,,,,,,,,,,,,,,,,,,,,,,,,,,,,
,,,,left,1,0.5103,0,10,10,7,1,9,-200,left,8257,2022-01-26_11h28.21.827,multiplicationStroop,2021.2.3,Win32,61.0724319,,,,,,,,,,,,,,,,,,,,,,,,,,,,,,,,,,,,,,,,,,,,,,,,,,,,,,,,,
,,,,right,1,0.3163,0,11,11,15,1,9,200,right,8257,2022-01-26_11h28.21.827,multiplicationStroop,2021.2.3,Win32,61.0724319,,,,,,,,,,,,,,,,,,,,,,,,,,,,,,,,,,,,,,,,,,,,,,,,,,,,,,,,,
,,,,right,1,0.3631,0,12,12,10,1,3,200,right,8257,2022-01-26_11h28.21.827,multiplicationStroop,2021.2.3,Win32,61.0724319,,,,,,,,,,,,,,,,,,,,,,,,,,,,,,,,,,,,,,,,,,,,,,,,,,,,,,,,,
,,,,left,1,0.3711,0,13,13,2,1,3,-200,left,8257,2022-01-26_11h28.21.827,multiplicationStroop,2021.2.3,Win32,61.0724319,,,,,,,,,,,,,,,,,,,,,,,,,,,,,,,,,,,,,,,,,,,,,,,,,,,,,,,,,
,,,,left,1,0.3944,0,14,14,5,1,7,-200,left,8257,2022-01-26_11h28.21.827,multiplicationStroop,2021.2.3,Win32,61.0724319,,,,,,,,,,,,,,,,,,,,,,,,,,,,,,,,,,,,,,,,,,,,,,,,,,,,,,,,,
,,,,left,1,0.4197,0,15,15,3,1,4,-200,left,8257,2022-01-26_11h28.21.827,multiplicationStroop,2021.2.3,Win32,61.0724319,,,,,,,,,,,,,,,,,,,,,,,,,,,,,,,,,,,,,,,,,,,,,,,,,,,,,,,,,
,,,,left,1,0.384,1,0,16,0,1,1,-200,left,8257,2022-01-26_11h28.21.827,multiplicationStroop,2021.2.3,Win32,61.0724319,,,,,,,,,,,,,,,,,,,,,,,,,,,,,,,,,,,,,,,,,,,,,,,,,,,,,,,,,
,,,,right,1,0.3073,1,1,17,8,1,1,200,right,8257,2022-01-26_11h28.21.827,multiplicationStroop,2021.2.3,Win32,61.0724319,,,,,,,,,,,,,,,,,,,,,,,,,,,,,,,,,,,,,,,,,,,,,,,,,,,,,,,,,
,,,,right,1,0.5901,1,2,18,11,1,4,200,right,8257,2022-01-26_11h28.21.827,multiplicationStroop,2021.2.3,Win32,61.0724319,,,,,,,,,,,,,,,,,,,,,,,,,,,,,,,,,,,,,,,,,,,,,,,,,,,,,,,,,
,,,,right,1,0.3025,1,3,19,15,1,9,200,right,8257,2022-01-26_11h28.21.827,multiplicationStroop,2021.2.3,Win32,61.0724319,,,,,,,,,,,,,,,,,,,,,,,,,,,,,,,,,,,,,,,,,,,,,,,,,,,,,,,,,
,,,,right,1,0.3326,1,4,20,9,1,2,200,right,8257,2022-01-26_11h28.21.827,multiplicationStroop,2021.2.3,Win32,61.0724319,,,,,,,,,,,,,,,,,,,,,,,,,,,,,,,,,,,,,,,,,,,,,,,,,,,,,,,,,
,,,,right,1,0.3672,1,5,21,14,1,8,200,right,8257,2022-01-26_11h28.21.827,multiplicationStroop,2021.2.3,Win32,61.0724319,,,,,,,,,,,,,,,,,,,,,,,,,,,,,,,,,,,,,,,,,,,,,,,,,,,,,,,,,
,,,,left,1,0.6159,1,6,22,7,1,9,-200,left,8257,2022-01-26_11h28.21.827,multiplicationStroop,2021.2.3,Win32,61.0724319,,,,,,,,,,,,,,,,,,,,,,,,,,,,,,,,,,,,,,,,,,,,,,,,,,,,,,,,,
,,,,left,1,0.311,1,7,23,2,1,3,-200,left,8257,2022-01-26_11h28.21.827,multiplicationStroop,2021.2.3,Win32,61.0724319,,,,,,,,,,,,,,,,,,,,,,,,,,,,,,,,,,,,,,,,,,,,,,,,,,,,,,,,,
,,,,left,1,0.3285,1,8,24,5,1,7,-200,left,8257,2022-01-26_11h28.21.827,multiplicationStroop,2021.2.3,Win32,61.0724319,,,,,,,,,,,,,,,,,,,,,,,,,,,,,,,,,,,,,,,,,,,,,,,,,,,,,,,,,
,,,,right,1,0.4674,1,9,25,12,1,6,200,right,8257,2022-01-26_11h28.21.827,multiplicationStroop,2021.2.3,Win32,61.0724319,,,,,,,,,,,,,,,,,,,,,,,,,,,,,,,,,,,,,,,,,,,,,,,,,,,,,,,,,
,,,,left,1,0.314,1,10,26,1,1,2,-200,left,8257,2022-01-26_11h28.21.827,multiplicationStroop,2021.2.3,Win32,61.0724319,,,,,,,,,,,,,,,,,,,,,,,,,,,,,,,,,,,,,,,,,,,,,,,,,,,,,,,,,
,,,,right,1,0.2777,1,11,27,10,1,3,200,right,8257,2022-01-26_11h28.21.827,multiplicationStroop,2021.2.3,Win32,61.0724319,,,,,,,,,,,,,,,,,,,,,,,,,,,,,,,,,,,,,,,,,,,,,,,,,,,,,,,,,
,,,,left,0,0.079,1,12,28,13,1,7,200,right,8257,2022-01-26_11h28.21.827,multiplicationStroop,2021.2.3,Win32,61.0724319,,,,,,,,,,,,,,,,,,,,,,,,,,,,,,,,,,,,,,,,,,,,,,,,,,,,,,,,,
,,,,left,1,0.6074,1,13,29,3,1,4,-200,left,8257,2022-01-26_11h28.21.827,multiplicationStroop,2021.2.3,Win32,61.0724319,,,,,,,,,,,,,,,,,,,,,,,,,,,,,,,,,,,,,,,,,,,,,,,,,,,,,,,,,
,,,,left,1,0.4782,1,14,30,6,1,8,-200,left,8257,2022-01-26_11h28.21.827,multiplicationStroop,2021.2.3,Win32,61.0724319,,,,,,,,,,,,,,,,,,,,,,,,,,,,,,,,,,,,,,,,,,,,,,,,,,,,,,,,,
,,,,left,1,0.3233,1,15,31,4,1,6,-200,left,8257,2022-01-26_11h28.21.827,multiplicationStroop,2021.2.3,Win32,61.0724319,,,,,,,,,,,,,,,,,,,,,,,,,,,,,,,,,,,,,,,,,,,,,,,,,,,,,,,,,
,,,,left,1,0.3304,2,0,32,3,1,4,-200,left,8257,2022-01-26_11h28.21.827,multiplicationStroop,2021.2.3,Win32,61.0724319,,,,,,,,,,,,,,,,,,,,,,,,,,,,,,,,,,,,,,,,,,,,,,,,,,,,,,,,,
,,,,right,1,0.4132,2,1,33,9,1,2,200,right,8257,2022-01-26_11h28.21.827,multiplicationStroop,2021.2.3,Win32,61.0724319,,,,,,,,,,,,,,,,,,,,,,,,,,,,,,,,,,,,,,,,,,,,,,,,,,,,,,,,,
,,,,right,1,0.4872,2,2,34,12,1,6,200,right,8257,2022-01-26_11h28.21.827,multiplicationStroop,2021.2.3,Win32,61.0724319,,,,,,,,,,,,,,,,,,,,,,,,,,,,,,,,,,,,,,,,,,,,,,,,,,,,,,,,,
,,,,left,1,0.4507,2,3,35,4,1,6,-200,left,8257,2022-01-26_11h28.21.827,multiplicationStroop,2021.2.3,Win32,61.0724319,,,,,,,,,,,,,,,,,,,,,,,,,,,,,,,,,,,,,,,,,,,,,,,,,,,,,,,,,
,,,,right,1,0.3947,2,4,36,15,1,9,200,right,8257,2022-01-26_11h28.21.827,multiplicationStroop,2021.2.3,Win32,61.0724319,,,,,,,,,,,,,,,,,,,,,,,,,,,,,,,,,,,,,,,,,,,,,,,,,,,,,,,,,
,,,,left,1,0.2455,2,5,37,5,1,7,-200,left,8257,2022-01-26_11h28.21.827,multiplicationStroop,2021.2.3,Win32,61.0724319,,,,,,,,,,,,,,,,,,,,,,,,,,,,,,,,,,,,,,,,,,,,,,,,,,,,,,,,,
,,,,left,1,0.4788,2,6,38,7,1,9,-200,left,8257,2022-01-26_11h28.21.827,multiplicationStroop,2021.2.3,Win32,61.0724319,,,,,,,,,,,,,,,,,,,,,,,,,,,,,,,,,,,,,,,,,,,,,,,,,,,,,,,,,
,,,,left,1,0.3341,2,7,39,2,1,3,-200,left,8257,2022-01-26_11h28.21.827,multiplicationStroop,2021.2.3,Win32,61.0724319,,,,,,,,,,,,,,,,,,,,,,,,,,,,,,,,,,,,,,,,,,,,,,,,,,,,,,,,,
,,,,right,1,0.4947,2,8,40,10,1,3,200,right,8257,2022-01-26_11h28.21.827,multiplicationStroop,2021.2.3,Win32,61.0724319,,,,,,,,,,,,,,,,,,,,,,,,,,,,,,,,,,,,,,,,,,,,,,,,,,,,,,,,,
,,,,left,1,0.3848,2,9,41,0,1,1,-200,left,8257,2022-01-26_11h28.21.827,multiplicationStroop,2021.2.3,Win32,61.0724319,,,,,,,,,,,,,,,,,,,,,,,,,,,,,,,,,,,,,,,,,,,,,,,,,,,,,,,,,
,,,,left,1,0.4141,2,10,42,1,1,2,-200,left,8257,2022-01-26_11h28.21.827,multiplicationStroop,2021.2.3,Win32,61.0724319,,,,,,,,,,,,,,,,,,,,,,,,,,,,,,,,,,,,,,,,,,,,,,,,,,,,,,,,,
,,,,right,1,0.3534,2,11,43,13,1,7,200,right,8257,2022-01-26_11h28.21.827,multiplicationStroop,2021.2.3,Win32,61.0724319,,,,,,,,,,,,,,,,,,,,,,,,,,,,,,,,,,,,,,,,,,,,,,,,,,,,,,,,,
,,,,left,1,0.2984,2,12,44,6,1,8,-200,left,8257,2022-01-26_11h28.21.827,multiplicationStroop,2021.2.3,Win32,61.0724319,,,,,,,,,,,,,,,,,,,,,,,,,,,,,,,,,,,,,,,,,,,,,,,,,,,,,,,,,
,,,,right,1,0.3498,2,13,45,8,1,1,200,right,8257,2022-01-26_11h28.21.827,multiplicationStroop,2021.2.3,Win32,61.0724319,,,,,,,,,,,,,,,,,,,,,,,,,,,,,,,,,,,,,,,,,,,,,,,,,,,,,,,,,
,,,,right,1,0.4837,2,14,46,14,1,8,200,right,8257,2022-01-26_11h28.21.827,multiplicationStroop,2021.2.3,Win32,61.0724319,,,,,,,,,,,,,,,,,,,,,,,,,,,,,,,,,,,,,,,,,,,,,,,,,,,,,,,,,
,,,,right,1,0.4671,2,15,47,11,1,4,200,right,8257,2022-01-26_11h28.21.827,multiplicationStroop,2021.2.3,Win32,61.0724319,,,,,,,,,,,,,,,,,,,,,,,,,,,,,,,,,,,,,,,,,,,,,,,,,,,,,,,,,
,,,,right,1,0.4121,3,0,48,9,1,2,200,right,8257,2022-01-26_11h28.21.827,multiplicationStroop,2021.2.3,Win32,61.0724319,,,,,,,,,,,,,,,,,,,,,,,,,,,,,,,,,,,,,,,,,,,,,,,,,,,,,,,,,
,,,,right,1,0.3329,3,1,49,12,1,6,200,right,8257,2022-01-26_11h28.21.827,multiplicationStroop,2021.2.3,Win32,61.0724319,,,,,,,,,,,,,,,,,,,,,,,,,,,,,,,,,,,,,,,,,,,,,,,,,,,,,,,,,
,,,,left,1,0.3288,3,2,50,4,1,6,-200,left,8257,2022-01-26_11h28.21.827,multiplicationStroop,2021.2.3,Win32,61.0724319,,,,,,,,,,,,,,,,,,,,,,,,,,,,,,,,,,,,,,,,,,,,,,,,,,,,,,,,,
,,,,left,1,0.3525,3,3,51,5,1,7,-200,left,8257,2022-01-26_11h28.21.827,multiplicationStroop,2021.2.3,Win32,61.0724319,,,,,,,,,,,,,,,,,,,,,,,,,,,,,,,,,,,,,,,,,,,,,,,,,,,,,,,,,
,,,,right,1,0.3818,3,4,52,15,1,9,200,right,8257,2022-01-26_11h28.21.827,multiplicationStroop,2021.2.3,Win32,61.0724319,,,,,,,,,,,,,,,,,,,,,,,,,,,,,,,,,,,,,,,,,,,,,,,,,,,,,,,,,
,,,,left,1,0.305,3,5,53,3,1,4,-200,left,8257,2022-01-26_11h28.21.827,multiplicationStroop,2021.2.3,Win32,61.0724319,,,,,,,,,,,,,,,,,,,,,,,,,,,,,,,,,,,,,,,,,,,,,,,,,,,,,,,,,
,,,,left,1,0.3322,3,6,54,2,1,3,-200,left,8257,2022-01-26_11h28.21.827,multiplicationStroop,2021.2.3,Win32,61.0724319,,,,,,,,,,,,,,,,,,,,,,,,,,,,,,,,,,,,,,,,,,,,,,,,,,,,,,,,,
,,,,right,1,0.3957,3,7,55,11,1,4,200,right,8257,2022-01-26_11h28.21.827,multiplicationStroop,2021.2.3,Win32,61.0724319,,,,,,,,,,,,,,,,,,,,,,,,,,,,,,,,,,,,,,,,,,,,,,,,,,,,,,,,,
,,,,right,1,0.5129,3,8,56,14,1,8,200,right,8257,2022-01-26_11h28.21.827,multiplicationStroop,2021.2.3,Win32,61.0724319,,,,,,,,,,,,,,,,,,,,,,,,,,,,,,,,,,,,,,,,,,,,,,,,,,,,,,,,,
,,,,left,1,0.3923,3,9,57,6,1,8,-200,left,8257,2022-01-26_11h28.21.827,multiplicationStroop,2021.2.3,Win32,61.0724319,,,,,,,,,,,,,,,,,,,,,,,,,,,,,,,,,,,,,,,,,,,,,,,,,,,,,,,,,
,,,,left,1,0.3155,3,10,58,7,1,9,-200,left,8257,2022-01-26_11h28.21.827,multiplicationStroop,2021.2.3,Win32,61.0724319,,,,,,,,,,,,,,,,,,,,,,,,,,,,,,,,,,,,,,,,,,,,,,,,,,,,,,,,,
,,,,left,1,0.408,3,11,59,0,1,1,-200,left,8257,2022-01-26_11h28.21.827,multiplicationStroop,2021.2.3,Win32,61.0724319,,,,,,,,,,,,,,,,,,,,,,,,,,,,,,,,,,,,,,,,,,,,,,,,,,,,,,,,,
,,,,right,1,0.2911,3,12,60,13,1,7,200,right,8257,2022-01-26_11h28.21.827,multiplicationStroop,2021.2.3,Win32,61.0724319,,,,,,,,,,,,,,,,,,,,,,,,,,,,,,,,,,,,,,,,,,,,,,,,,,,,,,,,,
,,,,right,1,0.3942,3,13,61,10,1,3,200,right,8257,2022-01-26_11h28.21.827,multiplicationStroop,2021.2.3,Win32,61.0724319,,,,,,,,,,,,,,,,,,,,,,,,,,,,,,,,,,,,,,,,,,,,,,,,,,,,,,,,,
,,,,right,1,0.272,3,14,62,8,1,1,200,right,8257,2022-01-26_11h28.21.827,multiplicationStroop,2021.2.3,Win32,61.0724319,,,,,,,,,,,,,,,,,,,,,,,,,,,,,,,,,,,,,,,,,,,,,,,,,,,,,,,,,
,,,,left,1,0.3455,3,15,63,1,1,2,-200,left,8257,2022-01-26_11h28.21.827,multiplicationStroop,2021.2.3,Win32,61.0724319,,,,,,,,,,,,,,,,,,,,,,,,,,,,,,,,,,,,,,,,,,,,,,,,,,,,,,,,,
,,,,,,,,,,,,,,,8257,2022-01-26_11h28.21.827,multiplicationStroop,2021.2.3,Win32,61.0724319,space,18.8451,space,18.8961,left,1,0.9946,0,0,0,5,1,4,3,4 | 3,1,1.9756,1.4111,congruent,left,,,,,,stimulusFile/magnitude.xlsx,,,,,,,,,,,,,,,,,,,,,,,,,,,,,,,
,,,,,,,,,,,,,,,8257,2022-01-26_11h28.21.827,multiplicationStroop,2021.2.3,Win32,61.0724319,,,,,right,1,0.7455,0,1,1,58,1,6,8,6 | 8,2,1.6933,1.6933,neutral,right,,,,,,stimulusFile/magnitude.xlsx,,,,,,,,,,,,,,,,,,,,,,,,,,,,,,,
,,,,,,,,,,,,,,,8257,2022-01-26_11h28.21.827,multiplicationStroop,2021.2.3,Win32,61.0724319,,,,,left,1,0.6949,0,2,2,44,1,6,1,6 | 1,5,1.4111,1.9756,incongruent,left,,,,,,stimulusFile/magnitude.xlsx,,,,,,,,,,,,,,,,,,,,,,,,,,,,,,,
,,,,,,,,,,,,,,,8257,2022-01-26_11h28.21.827,multiplicationStroop,2021.2.3,Win32,61.0724319,,,,,left,1,0.6148,0,3,3,71,1,9,4,9 | 4,5,1.6933,1.6933,neutral,left,,,,,,stimulusFile/magnitude.xlsx,,,,,,,,,,,,,,,,,,,,,,,,,,,,,,,
,,,,,,,,,,,,,,,8257,2022-01-26_11h28.21.827,multiplicationStroop,2021.2.3,Win32,61.0724319,,,,,left,0,0.5718,0,4,4,24,1,1,2,1 | 2,1,1.9756,1.4111,incongruent,right,,,,,,stimulusFile/magnitude.xlsx,,,,,,,,,,,,,,,,,,,,,,,,,,,,,,,
,,,,,,,,,,,,,,,8257,2022-01-26_11h28.21.827,multiplicationStroop,2021.2.3,Win32,61.0724319,,,,,right,1,1.0696,0,5,5,16,1,1,6,1 | 6,5,1.4111,1.9756,congruent,right,,,,,,stimulusFile/magnitude.xlsx,,,,,,,,,,,,,,,,,,,,,,,,,,,,,,,
,,,,,,,,,,,,,,,8257,2022-01-26_11h28.21.827,multiplicationStroop,2021.2.3,Win32,61.0724319,,,,,left,1,0.7414,0,6,6,36,1,3,1,3 | 1,2,1.4111,1.9756,incongruent,left,,,,,,stimulusFile/magnitude.xlsx,,,,,,,,,,,,,,,,,,,,,,,,,,,,,,,
,,,,,,,,,,,,,,,8257,2022-01-26_11h28.21.827,multiplicationStroop,2021.2.3,Win32,61.0724319,,,,,left,1,0.57,0,7,7,23,1,9,4,9 | 4,5,1.9756,1.4111,congruent,left,,,,,,stimulusFile/magnitude.xlsx,,,,,,,,,,,,,,,,,,,,,,,,,,,,,,,
,,,,,,,,,,,,,,,8257,2022-01-26_11h28.21.827,multiplicationStroop,2021.2.3,Win32,61.0724319,,,,,left,1,1.2347,0,8,8,61,1,4,2,4 | 2,2,1.6933,1.6933,neutral,left,,,,,,stimulusFile/magnitude.xlsx,,,,,,,,,,,,,,,,,,,,,,,,,,,,,,,
,,,,,,,,,,,,,,,8257,2022-01-26_11h28.21.827,multiplicationStroop,2021.2.3,Win32,61.0724319,,,,,left,1,1.2276,0,9,9,7,1,9,8,9 | 8,1,1.9756,1.4111,congruent,left,,,,,,stimulusFile/magnitude.xlsx,,,,,,,,,,,,,,,,,,,,,,,,,,,,,,,
,,,,,,,,,,,,,,,8257,2022-01-26_11h28.21.827,multiplicationStroop,2021.2.3,Win32,61.0724319,,,,,right,1,0.8831,0,10,10,56,1,1,3,1 | 3,2,1.6933,1.6933,neutral,right,,,,,,stimulusFile/magnitude.xlsx,,,,,,,,,,,,,,,,,,,,,,,,,,,,,,,
,,,,,,,,,,,,,,,8257,2022-01-26_11h28.21.827,multiplicationStroop,2021.2.3,Win32,61.0724319,,,,,right,1,0.8675,0,11,11,66,1,3,8,3 | 8,5,1.6933,1.6933,neutral,right,,,,,,stimulusFile/magnitude.xlsx,,,,,,,,,,,,,,,,,,,,,,,,,,,,,,,
,,,,,,,,,,,,,,,8257,2022-01-26_11h28.21.827,multiplicationStroop,2021.2.3,Win32,61.0724319,,,,,left,1,0.6876,0,12,12,37,1,4,2,4 | 2,2,1.4111,1.9756,incongruent,left,,,,,,stimulusFile/magnitude.xlsx,,,,,,,,,,,,,,,,,,,,,,,,,,,,,,,
,,,,,,,,,,,,,,,8257,2022-01-26_11h28.21.827,multiplicationStroop,2021.2.3,Win32,61.0724319,,,,,left,0,0.6314,0,13,13,34,1,6,8,6 | 8,2,1.9756,1.4111,incongruent,right,,,,,,stimulusFile/magnitude.xlsx,,,,,,,,,,,,,,,,,,,,,,,,,,,,,,,
,,,,,,,,,,,,,,,8257,2022-01-26_11h28.21.827,multiplicationStroop,2021.2.3,Win32,61.0724319,,,,,left,1,0.4983,0,14,14,21,1,7,2,7 | 2,5,1.9756,1.4111,congruent,left,,,,,,stimulusFile/magnitude.xlsx,,,,,,,,,,,,,,,,,,,,,,,,,,,,,,,
,,,,,,,,,,,,,,,8257,2022-01-26_11h28.21.827,multiplicationStroop,2021.2.3,Win32,61.0724319,,,,,right,1,0.6848,0,15,15,43,1,4,9,4 | 9,5,1.9756,1.4111,incongruent,right,,,,,,stimulusFile/magnitude.xlsx,,,,,,,,,,,,,,,,,,,,,,,,,,,,,,,
,,,,,,,,,,,,,,,8257,2022-01-26_11h28.21.827,multiplicationStroop,2021.2.3,Win32,61.0724319,,,,,left,1,0.8207,0,16,16,13,1,4,2,4 | 2,2,1.9756,1.4111,congruent,left,,,,,,stimulusFile/magnitude.xlsx,,,,,,,,,,,,,,,,,,,,,,,,,,,,,,,
,,,,,,,,,,,,,,,8257,2022-01-26_11h28.21.827,multiplicationStroop,2021.2.3,Win32,61.0724319,,,,,right,1,0.6105,0,17,17,42,1,3,8,3 | 8,5,1.9756,1.4111,incongruent,right,,,,,,stimulusFile/magnitude.xlsx,,,,,,,,,,,,,,,,,,,,,,,,,,,,,,,
,,,,,,,,,,,,,,,8257,2022-01-26_11h28.21.827,multiplicationStroop,2021.2.3,Win32,61.0724319,,,,,right,1,0.8219,0,18,18,11,1,7,9,7 | 9,2,1.4111,1.9756,congruent,right,,,,,,stimulusFile/magnitude.xlsx,,,,,,,,,,,,,,,,,,,,,,,,,,,,,,,
,,,,,,,,,,,,,,,8257,2022-01-26_11h28.21.827,multiplicationStroop,2021.2.3,Win32,61.0724319,,,,,left,1,0.7591,0,19,19,31,1,9,8,9 | 8,1,1.4111,1.9756,incongruent,left,,,,,,stimulusFile/magnitude.xlsx,,,,,,,,,,,,,,,,,,,,,,,,,,,,,,,
,,,,,,,,,,,,,,,8257,2022-01-26_11h28.21.827,multiplicationStroop,2021.2.3,Win32,61.0724319,,,,,left,1,0.7151,0,20,20,45,1,7,2,7 | 2,5,1.4111,1.9756,incongruent,left,,,,,,stimulusFile/magnitude.xlsx,,,,,,,,,,,,,,,,,,,,,,,,,,,,,,,
,,,,,,,,,,,,,,,8257,2022-01-26_11h28.21.827,multiplicationStroop,2021.2.3,Win32,61.0724319,,,,,right,1,0.5449,0,21,21,8,1,1,3,1 | 3,2,1.4111,1.9756,congruent,right,,,,,,stimulusFile/magnitude.xlsx,,,,,,,,,,,,,,,,,,,,,,,,,,,,,,,
,,,,,,,,,,,,,,,8257,2022-01-26_11h28.21.827,multiplicationStroop,2021.2.3,Win32,61.0724319,,,,,right,1,0.6809,0,22,22,65,1,2,7,2 | 7,5,1.6933,1.6933,neutral,right,,,,,,stimulusFile/magnitude.xlsx,,,,,,,,,,,,,,,,,,,,,,,,,,,,,,,
,,,,,,,,,,,,,,,8257,2022-01-26_11h28.21.827,multiplicationStroop,2021.2.3,Win32,61.0724319,,,,,right,1,0.5781,0,23,23,64,1,1,6,1 | 6,5,1.6933,1.6933,neutral,right,,,,,,stimulusFile/magnitude.xlsx,,,,,,,,,,,,,,,,,,,,,,,,,,,,,,,
,,,,,,,,,,,,,,,8257,2022-01-26_11h28.21.827,multiplicationStroop,2021.2.3,Win32,61.0724319,,,,,left,1,0.4798,0,24,24,22,1,8,3,8 | 3,5,1.9756,1.4111,congruent,left,,,,,,stimulusFile/magnitude.xlsx,,,,,,,,,,,,,,,,,,,,,,,,,,,,,,,
,,,,,,,,,,,,,,,8257,2022-01-26_11h28.21.827,multiplicationStroop,2021.2.3,Win32,61.0724319,,,,,right,1,0.506,0,25,25,0,1,1,2,1 | 2,1,1.4111,1.9756,congruent,right,,,,,,stimulusFile/magnitude.xlsx,,,,,,,,,,,,,,,,,,,,,,,,,,,,,,,
,,,,,,,,,,,,,,,8257,2022-01-26_11h28.21.827,multiplicationStroop,2021.2.3,Win32,61.0724319,,,,,right,1,0.6278,0,26,26,19,1,4,9,4 | 9,5,1.4111,1.9756,congruent,right,,,,,,stimulusFile/magnitude.xlsx,,,,,,,,,,,,,,,,,,,,,,,,,,,,,,,
,,,,,,,,,,,,,,,8257,2022-01-26_11h28.21.827,multiplicationStroop,2021.2.3,Win32,61.0724319,,,,,right,1,1.0992,0,27,27,48,1,1,2,1 | 2,1,1.6933,1.6933,neutral,right,,,,,,stimulusFile/magnitude.xlsx,,,,,,,,,,,,,,,,,,,,,,,,,,,,,,,
,,,,,,,,,,,,,,,8257,2022-01-26_11h28.21.827,multiplicationStroop,2021.2.3,Win32,61.0724319,,,,,left,1,0.6281,0,28,28,70,1,8,3,8 | 3,5,1.6933,1.6933,neutral,left,,,,,,stimulusFile/magnitude.xlsx,,,,,,,,,,,,,,,,,,,,,,,,,,,,,,,
,,,,,,,,,,,,,,,8257,2022-01-26_11h28.21.827,multiplicationStroop,2021.2.3,Win32,61.0724319,,,,,right,1,0.5176,0,29,29,10,1,6,8,6 | 8,2,1.4111,1.9756,congruent,right,,,,,,stimulusFile/magnitude.xlsx,,,,,,,,,,,,,,,,,,,,,,,,,,,,,,,
,,,,,,,,,,,,,,,8257,2022-01-26_11h28.21.827,multiplicationStroop,2021.2.3,Win32,61.0724319,,,,,left,1,0.646,0,30,30,39,1,9,7,9 | 7,2,1.4111,1.9756,incongruent,left,,,,,,stimulusFile/magnitude.xlsx,,,,,,,,,,,,,,,,,,,,,,,,,,,,,,,
,,,,,,,,,,,,,,,8257,2022-01-26_11h28.21.827,multiplicationStroop,2021.2.3,Win32,61.0724319,,,,,right,1,0.785,0,31,31,35,1,7,9,7 | 9,2,1.9756,1.4111,incongruent,right,,,,,,stimulusFile/magnitude.xlsx,,,,,,,,,,,,,,,,,,,,,,,,,,,,,,,
,,,,,,,,,,,,,,,8257,2022-01-26_11h28.21.827,multiplicationStroop,2021.2.3,Win32,61.0724319,,,,,right,1,0.6612,0,32,32,18,1,3,8,3 | 8,5,1.4111,1.9756,congruent,right,,,,,,stimulusFile/magnitude.xlsx,,,,,,,,,,,,,,,,,,,,,,,,,,,,,,,
,,,,,,,,,,,,,,,8257,2022-01-26_11h28.21.827,multiplicationStroop,2021.2.3,Win32,61.0724319,,,,,right,0,0.5157,0,33,33,30,1,7,6,7 | 6,1,1.4111,1.9756,incongruent,left,,,,,,stimulusFile/magnitude.xlsx,,,,,,,,,,,,,,,,,,,,,,,,,,,,,,,
,,,,,,,,,,,,,,,8257,2022-01-26_11h28.21.827,multiplicationStroop,2021.2.3,Win32,61.0724319,,,,,left,1,0.8439,0,34,34,69,1,7,2,7 | 2,5,1.6933,1.6933,neutral,left,,,,,,stimulusFile/magnitude.xlsx,,,,,,,,,,,,,,,,,,,,,,,,,,,,,,,
,,,,,,,,,,,,,,,8257,2022-01-26_11h28.21.827,multiplicationStroop,2021.2.3,Win32,61.0724319,,,,,left,1,0.59,0,35,35,4,1,2,1,2 | 1,1,1.9756,1.4111,congruent,left,,,,,,stimulusFile/magnitude.xlsx,,,,,,,,,,,,,,,,,,,,,,,,,,,,,,,
,,,,,,,,,,,,,,,8257,2022-01-26_11h28.21.827,multiplicationStroop,2021.2.3,Win32,61.0724319,,,,,left,1,0.7488,0,36,36,38,1,8,6,8 | 6,2,1.4111,1.9756,incongruent,left,,,,,,stimulusFile/magnitude.xlsx,,,,,,,,,,,,,,,,,,,,,,,,,,,,,,,
,,,,,,,,,,,,,,,8257,2022-01-26_11h28.21.827,multiplicationStroop,2021.2.3,Win32,61.0724319,,,,,right,1,0.6744,0,37,37,33,1,2,4,2 | 4,2,1.9756,1.4111,incongruent,right,,,,,,stimulusFile/magnitude.xlsx,,,,,,,,,,,,,,,,,,,,,,,,,,,,,,,
,,,,,,,,,,,,,,,8257,2022-01-26_11h28.21.827,multiplicationStroop,2021.2.3,Win32,61.0724319,,,,,left,1,0.6477,0,38,38,52,1,2,1,2 | 1,1,1.6933,1.6933,neutral,left,,,,,,stimulusFile/magnitude.xlsx,,,,,,,,,,,,,,,,,,,,,,,,,,,,,,,
,,,,,,,,,,,,,,,8257,2022-01-26_11h28.21.827,multiplicationStroop,2021.2.3,Win32,61.0724319,,,,,left,1,0.5537,0,39,39,20,1,6,1,6 | 1,5,1.9756,1.4111,congruent,left,,,,,,stimulusFile/magnitude.xlsx,,,,,,,,,,,,,,,,,,,,,,,,,,,,,,,
,,,,,,,,,,,,,,,8257,2022-01-26_11h28.21.827,multiplicationStroop,2021.2.3,Win32,61.0724319,,,,,right,1,0.6031,0,40,40,51,1,8,9,8 | 9,1,1.6933,1.6933,neutral,right,,,,,,stimulusFile/magnitude.xlsx,,,,,,,,,,,,,,,,,,,,,,,,,,,,,,,
,,,,,,,,,,,,,,,8257,2022-01-26_11h28.21.827,multiplicationStroop,2021.2.3,Win32,61.0724319,,,,,left,1,0.4599,0,41,41,12,1,3,1,3 | 1,2,1.9756,1.4111,congruent,left,,,,,,stimulusFile/magnitude.xlsx,,,,,,,,,,,,,,,,,,,,,,,,,,,,,,,
,,,,,,,,,,,,,,,8257,2022-01-26_11h28.21.827,multiplicationStroop,2021.2.3,Win32,61.0724319,,,,,right,1,0.5554,0,42,42,25,1,3,4,3 | 4,1,1.9756,1.4111,incongruent,right,,,,,,stimulusFile/magnitude.xlsx,,,,,,,,,,,,,,,,,,,,,,,,,,,,,,,
,,,,,,,,,,,,,,,8257,2022-01-26_11h28.21.827,multiplicationStroop,2021.2.3,Win32,61.0724319,,,,,left,1,0.6742,0,43,43,62,1,8,6,8 | 6,2,1.6933,1.6933,neutral,left,,,,,,stimulusFile/magnitude.xlsx,,,,,,,,,,,,,,,,,,,,,,,,,,,,,,,
,,,,,,,,,,,,,,,8257,2022-01-26_11h28.21.827,multiplicationStroop,2021.2.3,Win32,61.0724319,,,,,right,1,0.6905,0,44,44,49,1,3,4,3 | 4,1,1.6933,1.6933,neutral,right,,,,,,stimulusFile/magnitude.xlsx,,,,,,,,,,,,,,,,,,,,,,,,,,,,,,,
,,,,,,,,,,,,,,,8257,2022-01-26_11h28.21.827,multiplicationStroop,2021.2.3,Win32,61.0724319,,,,,right,1,0.5911,0,45,45,1,1,3,4,3 | 4,1,1.4111,1.9756,congruent,right,,,,,,stimulusFile/magnitude.xlsx,,,,,,,,,,,,,,,,,,,,,,,,,,,,,,,
,,,,,,,,,,,,,,,8257,2022-01-26_11h28.21.827,multiplicationStroop,2021.2.3,Win32,61.0724319,,,,,right,1,0.5902,0,46,46,59,1,7,9,7 | 9,2,1.6933,1.6933,neutral,right,,,,,,stimulusFile/magnitude.xlsx,,,,,,,,,,,,,,,,,,,,,,,,,,,,,,,
,,,,,,,,,,,,,,,8257,2022-01-26_11h28.21.827,multiplicationStroop,2021.2.3,Win32,61.0724319,,,,,right,1,0.5456,0,47,47,17,1,2,7,2 | 7,5,1.4111,1.9756,congruent,right,,,,,,stimulusFile/magnitude.xlsx,,,,,,,,,,,,,,,,,,,,,,,,,,,,,,,
,,,,,,,,,,,,,,,8257,2022-01-26_11h28.21.827,multiplicationStroop,2021.2.3,Win32,61.0724319,,,,,left,1,0.4833,0,48,48,53,1,4,3,4 | 3,1,1.6933,1.6933,neutral,left,,,,,,stimulusFile/magnitude.xlsx,,,,,,,,,,,,,,,,,,,,,,,,,,,,,,,
,,,,,,,,,,,,,,,8257,2022-01-26_11h28.21.827,multiplicationStroop,2021.2.3,Win32,61.0724319,,,,,right,1,0.4837,0,49,49,50,1,6,7,6 | 7,1,1.6933,1.6933,neutral,right,,,,,,stimulusFile/magnitude.xlsx,,,,,,,,,,,,,,,,,,,,,,,,,,,,,,,
,,,,,,,,,,,,,,,8257,2022-01-26_11h28.21.827,multiplicationStroop,2021.2.3,Win32,61.0724319,,,,,right,1,0.5912,0,50,50,40,1,1,6,1 | 6,5,1.9756,1.4111,incongruent,right,,,,,,stimulusFile/magnitude.xlsx,,,,,,,,,,,,,,,,,,,,,,,,,,,,,,,
,,,,,,,,,,,,,,,8257,2022-01-26_11h28.21.827,multiplicationStroop,2021.2.3,Win32,61.0724319,,,,,left,1,0.5813,0,51,51,14,1,8,6,8 | 6,2,1.9756,1.4111,congruent,left,,,,,,stimulusFile/magnitude.xlsx,,,,,,,,,,,,,,,,,,,,,,,,,,,,,,,
,,,,,,,,,,,,,,,8257,2022-01-26_11h28.21.827,multiplicationStroop,2021.2.3,Win32,61.0724319,,,,,right,0,0.7745,0,52,52,29,1,4,3,4 | 3,1,1.4111,1.9756,incongruent,left,,,,,,stimulusFile/magnitude.xlsx,,,,,,,,,,,,,,,,,,,,,,,,,,,,,,,
,,,,,,,,,,,,,,,8257,2022-01-26_11h28.21.827,multiplicationStroop,2021.2.3,Win32,61.0724319,,,,,right,1,0.8456,0,53,53,26,1,6,7,6 | 7,1,1.9756,1.4111,incongruent,right,,,,,,stimulusFile/magnitude.xlsx,,,,,,,,,,,,,,,,,,,,,,,,,,,,,,,
,,,,,,,,,,,,,,,8257,2022-01-26_11h28.21.827,multiplicationStroop,2021.2.3,Win32,61.0724319,,,,,right,1,0.994,0,54,54,27,1,8,9,8 | 9,1,1.9756,1.4111,incongruent,right,,,,,,stimulusFile/magnitude.xlsx,,,,,,,,,,,,,,,,,,,,,,,,,,,,,,,
,,,,,,,,,,,,,,,8257,2022-01-26_11h28.21.827,multiplicationStroop,2021.2.3,Win32,61.0724319,,,,,right,1,0.4694,0,55,55,9,1,2,4,2 | 4,2,1.4111,1.9756,congruent,right,,,,,,stimulusFile/magnitude.xlsx,,,,,,,,,,,,,,,,,,,,,,,,,,,,,,,
,,,,,,,,,,,,,,,8257,2022-01-26_11h28.21.827,multiplicationStroop,2021.2.3,Win32,61.0724319,,,,,left,1,0.4576,0,56,56,63,1,9,7,9 | 7,2,1.6933,1.6933,neutral,left,,,,,,stimulusFile/magnitude.xlsx,,,,,,,,,,,,,,,,,,,,,,,,,,,,,,,
,,,,,,,,,,,,,,,8257,2022-01-26_11h28.21.827,multiplicationStroop,2021.2.3,Win32,61.0724319,,,,,left,1,0.4174,0,57,57,15,1,9,7,9 | 7,2,1.9756,1.4111,congruent,left,,,,,,stimulusFile/magnitude.xlsx,,,,,,,,,,,,,,,,,,,,,,,,,,,,,,,
,,,,,,,,,,,,,,,8257,2022-01-26_11h28.21.827,multiplicationStroop,2021.2.3,Win32,61.0724319,,,,,left,1,0.8341,0,58,58,54,1,7,6,7 | 6,1,1.6933,1.6933,neutral,left,,,,,,stimulusFile/magnitude.xlsx,,,,,,,,,,,,,,,,,,,,,,,,,,,,,,,
,,,,,,,,,,,,,,,8257,2022-01-26_11h28.21.827,multiplicationStroop,2021.2.3,Win32,61.0724319,,,,,left,1,0.5738,0,59,59,46,1,8,3,8 | 3,5,1.4111,1.9756,incongruent,left,,,,,,stimulusFile/magnitude.xlsx,,,,,,,,,,,,,,,,,,,,,,,,,,,,,,,
,,,,,,,,,,,,,,,8257,2022-01-26_11h28.21.827,multiplicationStroop,2021.2.3,Win32,61.0724319,,,,,right,1,0.5742,0,60,60,57,1,2,4,2 | 4,2,1.6933,1.6933,neutral,right,,,,,,stimulusFile/magnitude.xlsx,,,,,,,,,,,,,,,,,,,,,,,,,,,,,,,
,,,,,,,,,,,,,,,8257,2022-01-26_11h28.21.827,multiplicationStroop,2021.2.3,Win32,61.0724319,,,,,right,1,0.5795,0,61,61,67,1,4,9,4 | 9,5,1.6933,1.6933,neutral,right,,,,,,stimulusFile/magnitude.xlsx,,,,,,,,,,,,,,,,,,,,,,,,,,,,,,,
,,,,,,,,,,,,,,,8257,2022-01-26_11h28.21.827,multiplicationStroop,2021.2.3,Win32,61.0724319,,,,,left,1,0.4843,0,62,62,55,1,9,8,9 | 8,1,1.6933,1.6933,neutral,left,,,,,,stimulusFile/magnitude.xlsx,,,,,,,,,,,,,,,,,,,,,,,,,,,,,,,
,,,,,,,,,,,,,,,8257,2022-01-26_11h28.21.827,multiplicationStroop,2021.2.3,Win32,61.0724319,,,,,left,1,0.4943,0,63,63,68,1,6,1,6 | 1,5,1.6933,1.6933,neutral,left,,,,,,stimulusFile/magnitude.xlsx,,,,,,,,,,,,,,,,,,,,,,,,,,,,,,,
,,,,,,,,,,,,,,,8257,2022-01-26_11h28.21.827,multiplicationStroop,2021.2.3,Win32,61.0724319,,,,,right,1,0.4405,0,64,64,2,1,6,7,6 | 7,1,1.4111,1.9756,congruent,right,,,,,,stimulusFile/magnitude.xlsx,,,,,,,,,,,,,,,,,,,,,,,,,,,,,,,
,,,,,,,,,,,,,,,8257,2022-01-26_11h28.21.827,multiplicationStroop,2021.2.3,Win32,61.0724319,,,,,left,1,0.5898,0,65,65,28,1,2,1,2 | 1,1,1.4111,1.9756,incongruent,left,,,,,,stimulusFile/magnitude.xlsx,,,,,,,,,,,,,,,,,,,,,,,,,,,,,,,
,,,,,,,,,,,,,,,8257,2022-01-26_11h28.21.827,multiplicationStroop,2021.2.3,Win32,61.0724319,,,,,right,1,0.4762,0,66,66,3,1,8,9,8 | 9,1,1.4111,1.9756,congruent,right,,,,,,stimulusFile/magnitude.xlsx,,,,,,,,,,,,,,,,,,,,,,,,,,,,,,,
,,,,,,,,,,,,,,,8257,2022-01-26_11h28.21.827,multiplicationStroop,2021.2.3,Win32,61.0724319,,,,,left,1,0.6628,0,67,67,47,1,9,4,9 | 4,5,1.4111,1.9756,incongruent,left,,,,,,stimulusFile/magnitude.xlsx,,,,,,,,,,,,,,,,,,,,,,,,,,,,,,,
,,,,,,,,,,,,,,,8257,2022-01-26_11h28.21.827,multiplicationStroop,2021.2.3,Win32,61.0724319,,,,,left,1,0.6948,0,68,68,6,1,7,6,7 | 6,1,1.9756,1.4111,congruent,left,,,,,,stimulusFile/magnitude.xlsx,,,,,,,,,,,,,,,,,,,,,,,,,,,,,,,
,,,,,,,,,,,,,,,8257,2022-01-26_11h28.21.827,multiplicationStroop,2021.2.3,Win32,61.0724319,,,,,right,1,0.5682,0,69,69,32,1,1,3,1 | 3,2,1.9756,1.4111,incongruent,right,,,,,,stimulusFile/magnitude.xlsx,,,,,,,,,,,,,,,,,,,,,,,,,,,,,,,
,,,,,,,,,,,,,,,8257,2022-01-26_11h28.21.827,multiplicationStroop,2021.2.3,Win32,61.0724319,,,,,right,1,0.7885,0,70,70,41,1,2,7,2 | 7,5,1.9756,1.4111,incongruent,right,,,,,,stimulusFile/magnitude.xlsx,,,,,,,,,,,,,,,,,,,,,,,,,,,,,,,
,,,,,,,,,,,,,,,8257,2022-01-26_11h28.21.827,multiplicationStroop,2021.2.3,Win32,61.0724319,,,,,left,1,0.4763,0,71,71,60,1,3,1,3 | 1,2,1.6933,1.6933,neutral,left,,,,,,stimulusFile/magnitude.xlsx,,,,,,,,,,,,,,,,,,,,,,,,,,,,,,,
,,,,,,,,,,,,,,,8257,2022-01-26_11h28.21.827,multiplicationStroop,2021.2.3,Win32,61.0724319,,,,,,,,,,,,,,,,,,,,,0,0,0,0,1,stimulusFile/magnitude.xlsx,NUMERICALLY larger (larger coefficient).,images/numericallyLarger.png,,,,,,,,,,,,,,,,,,,,,,,,,,,,,
,,,,,,,,,,,,,,,8257,2022-01-26_11h28.21.827,multiplicationStroop,2021.2.3,Win32,61.0724319,space,9.084,space,11.3478,right,1,1.3953,0,0,0,18,1,3,8,3 | 8,5,1.4111,1.9756,congruent,right,,,,,,stimulusFile/physical.xlsx,,,,,,,,,,,,,,,,,,,,,,,,,,,,,,,
,,,,,,,,,,,,,,,8257,2022-01-26_11h28.21.827,multiplicationStroop,2021.2.3,Win32,61.0724319,,,,,right,1,0.5837,0,1,1,11,1,7,9,7 | 9,2,1.4111,1.9756,congruent,right,,,,,,stimulusFile/physical.xlsx,,,,,,,,,,,,,,,,,,,,,,,,,,,,,,,
,,,,,,,,,,,,,,,8257,2022-01-26_11h28.21.827,multiplicationStroop,2021.2.3,Win32,61.0724319,,,,,left,1,0.6868,0,2,2,51,1,8,8,8 | 8,0,1.9756,1.4111,neutral,left,,,,,,stimulusFile/physical.xlsx,,,,,,,,,,,,,,,,,,,,,,,,,,,,,,,
,,,,,,,,,,,,,,,8257,2022-01-26_11h28.21.827,multiplicationStroop,2021.2.3,Win32,61.0724319,,,,,right,0,0.5679,0,3,3,69,1,7,7,7 | 7,0,1.4111,1.9756,neutral,left,,,,,,stimulusFile/physical.xlsx,,,,,,,,,,,,,,,,,,,,,,,,,,,,,,,
,,,,,,,,,,,,,,,8257,2022-01-26_11h28.21.827,multiplicationStroop,2021.2.3,Win32,61.0724319,,,,,right,1,0.5194,0,4,4,16,1,1,6,1 | 6,5,1.4111,1.9756,congruent,right,,,,,,stimulusFile/physical.xlsx,,,,,,,,,,,,,,,,,,,,,,,,,,,,,,,
,,,,,,,,,,,,,,,8257,2022-01-26_11h28.21.827,multiplicationStroop,2021.2.3,Win32,61.0724319,,,,,left,1,0.46,0,5,5,55,1,9,9,9 | 9,0,1.9756,1.4111,neutral,left,,,,,,stimulusFile/physical.xlsx,,,,,,,,,,,,,,,,,,,,,,,,,,,,,,,
,,,,,,,,,,,,,,,8257,2022-01-26_11h28.21.827,multiplicationStroop,2021.2.3,Win32,61.0724319,,,,,right,1,0.476,0,6,6,0,1,1,2,1 | 2,1,1.4111,1.9756,congruent,right,,,,,,stimulusFile/physical.xlsx,,,,,,,,,,,,,,,,,,,,,,,,,,,,,,,
,,,,,,,,,,,,,,,8257,2022-01-26_11h28.21.827,multiplicationStroop,2021.2.3,Win32,61.0724319,,,,,right,1,0.8805,0,7,7,31,1,9,8,9 | 8,1,1.4111,1.9756,incongruent,right,,,,,,stimulusFile/physical.xlsx,,,,,,,,,,,,,,,,,,,,,,,,,,,,,,,
,,,,,,,,,,,,,,,8257,2022-01-26_11h28.21.827,multiplicationStroop,2021.2.3,Win32,61.0724319,,,,,left,1,0.5583,0,8,8,27,1,8,9,8 | 9,1,1.9756,1.4111,incongruent,left,,,,,,stimulusFile/physical.xlsx,,,,,,,,,,,,,,,,,,,,,,,,,,,,,,,
,,,,,,,,,,,,,,,8257,2022-01-26_11h28.21.827,multiplicationStroop,2021.2.3,Win32,61.0724319,,,,,right,1,0.8309,0,9,9,36,1,3,1,3 | 1,2,1.4111,1.9756,incongruent,right,,,,,,stimulusFile/physical.xlsx,,,,,,,,,,,,,,,,,,,,,,,,,,,,,,,
,,,,,,,,,,,,,,,8257,2022-01-26_11h28.21.827,multiplicationStroop,2021.2.3,Win32,61.0724319,,,,,right,1,0.8717,0,10,10,65,1,2,2,2 | 2,0,1.4111,1.9756,neutral,right,,,,,,stimulusFile/physical.xlsx,,,,,,,,,,,,,,,,,,,,,,,,,,,,,,,
,,,,,,,,,,,,,,,8257,2022-01-26_11h28.21.827,multiplicationStroop,2021.2.3,Win32,61.0724319,,,,,left,1,0.4435,0,11,11,20,1,6,1,6 | 1,5,1.9756,1.4111,congruent,left,,,,,,stimulusFile/physical.xlsx,,,,,,,,,,,,,,,,,,,,,,,,,,,,,,,
,,,,,,,,,,,,,,,8257,2022-01-26_11h28.21.827,multiplicationStroop,2021.2.3,Win32,61.0724319,,,,,left,1,0.629,0,12,12,14,1,8,6,8 | 6,2,1.9756,1.4111,congruent,left,,,,,,stimulusFile/physical.xlsx,,,,,,,,,,,,,,,,,,,,,,,,,,,,,,,
,,,,,,,,,,,,,,,8257,2022-01-26_11h28.21.827,multiplicationStroop,2021.2.3,Win32,61.0724319,,,,,left,1,0.4576,0,13,13,7,1,9,8,9 | 8,1,1.9756,1.4111,congruent,left,,,,,,stimulusFile/physical.xlsx,,,,,,,,,,,,,,,,,,,,,,,,,,,,,,,
,,,,,,,,,,,,,,,8257,2022-01-26_11h28.21.827,multiplicationStroop,2021.2.3,Win32,61.0724319,,,,,left,1,0.4779,0,14,14,26,1,6,7,6 | 7,1,1.9756,1.4111,incongruent,left,,,,,,stimulusFile/physical.xlsx,,,,,,,,,,,,,,,,,,,,,,,,,,,,,,,
,,,,,,,,,,,,,,,8257,2022-01-26_11h28.21.827,multiplicationStroop,2021.2.3,Win32,61.0724319,,,,,left,1,0.4759,0,15,15,4,1,2,1,2 | 1,1,1.9756,1.4111,congruent,left,,,,,,stimulusFile/physical.xlsx,,,,,,,,,,,,,,,,,,,,,,,,,,,,,,,
,,,,,,,,,,,,,,,8257,2022-01-26_11h28.21.827,multiplicationStroop,2021.2.3,Win32,61.0724319,,,,,left,1,0.5236,0,16,16,21,1,7,2,7 | 2,5,1.9756,1.4111,congruent,left,,,,,,stimulusFile/physical.xlsx,,,,,,,,,,,,,,,,,,,,,,,,,,,,,,,
,,,,,,,,,,,,,,,8257,2022-01-26_11h28.21.827,multiplicationStroop,2021.2.3,Win32,61.0724319,,,,,right,1,0.4307,0,17,17,2,1,6,7,6 | 7,1,1.4111,1.9756,congruent,right,,,,,,stimulusFile/physical.xlsx,,,,,,,,,,,,,,,,,,,,,,,,,,,,,,,
,,,,,,,,,,,,,,,8257,2022-01-26_11h28.21.827,multiplicationStroop,2021.2.3,Win32,61.0724319,,,,,right,1,0.5392,0,18,18,10,1,6,8,6 | 8,2,1.4111,1.9756,congruent,right,,,,,,stimulusFile/physical.xlsx,,,,,,,,,,,,,,,,,,,,,,,,,,,,,,,
,,,,,,,,,,,,,,,8257,2022-01-26_11h28.21.827,multiplicationStroop,2021.2.3,Win32,61.0724319,,,,,left,1,0.5284,0,19,19,34,1,6,8,6 | 8,2,1.9756,1.4111,incongruent,left,,,,,,stimulusFile/physical.xlsx,,,,,,,,,,,,,,,,,,,,,,,,,,,,,,,
,,,,,,,,,,,,,,,8257,2022-01-26_11h28.21.827,multiplicationStroop,2021.2.3,Win32,61.0724319,,,,,left,0,1.0006,0,20,20,61,1,4,4,4 | 4,0,1.4111,1.9756,neutral,right,,,,,,stimulusFile/physical.xlsx,,,,,,,,,,,,,,,,,,,,,,,,,,,,,,,
,,,,,,,,,,,,,,,8257,2022-01-26_11h28.21.827,multiplicationStroop,2021.2.3,Win32,61.0724319,,,,,left,1,0.557,0,21,21,49,1,3,3,3 | 3,0,1.9756,1.4111,neutral,left,,,,,,stimulusFile/physical.xlsx,,,,,,,,,,,,,,,,,,,,,,,,,,,,,,,
,,,,,,,,,,,,,,,8257,2022-01-26_11h28.21.827,multiplicationStroop,2021.2.3,Win32,61.0724319,,,,,right,1,0.7291,0,22,22,62,1,8,8,8 | 8,0,1.4111,1.9756,neutral,right,,,,,,stimulusFile/physical.xlsx,,,,,,,,,,,,,,,,,,,,,,,,,,,,,,,
,,,,,,,,,,,,,,,8257,2022-01-26_11h28.21.827,multiplicationStroop,2021.2.3,Win32,61.0724319,,,,,left,1,0.491,0,23,23,53,1,4,4,4 | 4,0,1.9756,1.4111,neutral,left,,,,,,stimulusFile/physical.xlsx,,,,,,,,,,,,,,,,,,,,,,,,,,,,,,,
,,,,,,,,,,,,,,,8257,2022-01-26_11h28.21.827,multiplicationStroop,2021.2.3,Win32,61.0724319,,,,,right,1,0.7078,0,24,24,57,1,2,2,2 | 2,0,1.4111,1.9756,neutral,right,,,,,,stimulusFile/physical.xlsx,,,,,,,,,,,,,,,,,,,,,,,,,,,,,,,
,,,,,,,,,,,,,,,8257,2022-01-26_11h28.21.827,multiplicationStroop,2021.2.3,Win32,61.0724319,,,,,right,1,0.5829,0,25,25,56,1,1,1,1 | 1,0,1.4111,1.9756,neutral,right,,,,,,stimulusFile/physical.xlsx,,,,,,,,,,,,,,,,,,,,,,,,,,,,,,,
,,,,,,,,,,,,,,,8257,2022-01-26_11h28.21.827,multiplicationStroop,2021.2.3,Win32,61.0724319,,,,,right,1,0.4967,0,26,26,28,1,2,1,2 | 1,1,1.4111,1.9756,incongruent,right,,,,,,stimulusFile/physical.xlsx,,,,,,,,,,,,,,,,,,,,,,,,,,,,,,,
,,,,,,,,,,,,,,,8257,2022-01-26_11h28.21.827,multiplicationStroop,2021.2.3,Win32,61.0724319,,,,,right,0,0.8304,0,27,27,71,1,9,9,9 | 9,0,1.4111,1.9756,neutral,left,,,,,,stimulusFile/physical.xlsx,,,,,,,,,,,,,,,,,,,,,,,,,,,,,,,
,,,,,,,,,,,,,,,8257,2022-01-26_11h28.21.827,multiplicationStroop,2021.2.3,Win32,61.0724319,,,,,right,1,0.4644,0,28,28,3,1,8,9,8 | 9,1,1.4111,1.9756,congruent,right,,,,,,stimulusFile/physical.xlsx,,,,,,,,,,,,,,,,,,,,,,,,,,,,,,,
,,,,,,,,,,,,,,,8257,2022-01-26_11h28.21.827,multiplicationStroop,2021.2.3,Win32,61.0724319,,,,,left,1,0.5446,0,29,29,33,1,2,4,2 | 4,2,1.9756,1.4111,incongruent,left,,,,,,stimulusFile/physical.xlsx,,,,,,,,,,,,,,,,,,,,,,,,,,,,,,,
,,,,,,,,,,,,,,,8257,2022-01-26_11h28.21.827,multiplicationStroop,2021.2.3,Win32,61.0724319,,,,,right,1,0.641,0,30,30,8,1,1,3,1 | 3,2,1.4111,1.9756,congruent,right,,,,,,stimulusFile/physical.xlsx,,,,,,,,,,,,,,,,,,,,,,,,,,,,,,,
,,,,,,,,,,,,,,,8257,2022-01-26_11h28.21.827,multiplicationStroop,2021.2.3,Win32,61.0724319,,,,,right,1,0.6992,0,31,31,29,1,4,3,4 | 3,1,1.4111,1.9756,incongruent,right,,,,,,stimulusFile/physical.xlsx,,,,,,,,,,,,,,,,,,,,,,,,,,,,,,,
,,,,,,,,,,,,,,,8257,2022-01-26_11h28.21.827,multiplicationStroop,2021.2.3,Win32,61.0724319,,,,,right,1,0.7447,0,32,32,19,1,4,9,4 | 9,5,1.4111,1.9756,congruent,right,,,,,,stimulusFile/physical.xlsx,,,,,,,,,,,,,,,,,,,,,,,,,,,,,,,
,,,,,,,,,,,,,,,8257,2022-01-26_11h28.21.827,multiplicationStroop,2021.2.3,Win32,61.0724319,,,,,left,1,0.4103,0,33,33,22,1,8,3,8 | 3,5,1.9756,1.4111,congruent,left,,,,,,stimulusFile/physical.xlsx,,,,,,,,,,,,,,,,,,,,,,,,,,,,,,,
,,,,,,,,,,,,,,,8257,2022-01-26_11h28.21.827,multiplicationStroop,2021.2.3,Win32,61.0724319,,,,,right,1,0.7469,0,34,34,59,1,7,7,7 | 7,0,1.4111,1.9756,neutral,right,,,,,,stimulusFile/physical.xlsx,,,,,,,,,,,,,,,,,,,,,,,,,,,,,,,
,,,,,,,,,,,,,,,8257,2022-01-26_11h28.21.827,multiplicationStroop,2021.2.3,Win32,61.0724319,,,,,left,1,0.5436,0,35,35,12,1,3,1,3 | 1,2,1.9756,1.4111,congruent,left,,,,,,stimulusFile/physical.xlsx,,,,,,,,,,,,,,,,,,,,,,,,,,,,,,,
,,,,,,,,,,,,,,,8257,2022-01-26_11h28.21.827,multiplicationStroop,2021.2.3,Win32,61.0724319,,,,,left,1,0.7475,0,36,36,40,1,1,6,1 | 6,5,1.9756,1.4111,incongruent,left,,,,,,stimulusFile/physical.xlsx,,,,,,,,,,,,,,,,,,,,,,,,,,,,,,,
,,,,,,,,,,,,,,,8257,2022-01-26_11h28.21.827,multiplicationStroop,2021.2.3,Win32,61.0724319,,,,,left,1,0.7799,0,37,37,13,1,4,2,4 | 2,2,1.9756,1.4111,congruent,left,,,,,,stimulusFile/physical.xlsx,,,,,,,,,,,,,,,,,,,,,,,,,,,,,,,
,,,,,,,,,,,,,,,8257,2022-01-26_11h28.21.827,multiplicationStroop,2021.2.3,Win32,61.0724319,,,,,right,1,0.6898,0,38,38,38,1,8,6,8 | 6,2,1.4111,1.9756,incongruent,right,,,,,,stimulusFile/physical.xlsx,,,,,,,,,,,,,,,,,,,,,,,,,,,,,,,
,,,,,,,,,,,,,,,8257,2022-01-26_11h28.21.827,multiplicationStroop,2021.2.3,Win32,61.0724319,,,,,left,1,0.7891,0,39,39,42,1,3,8,3 | 8,5,1.9756,1.4111,incongruent,left,,,,,,stimulusFile/physical.xlsx,,,,,,,,,,,,,,,,,,,,,,,,,,,,,,,
,,,,,,,,,,,,,,,8257,2022-01-26_11h28.21.827,multiplicationStroop,2021.2.3,Win32,61.0724319,,,,,left,1,0.6445,0,40,40,70,1,8,8,8 | 8,0,1.9756,1.4111,neutral,left,,,,,,stimulusFile/physical.xlsx,,,,,,,,,,,,,,,,,,,,,,,,,,,,,,,
,,,,,,,,,,,,,,,8257,2022-01-26_11h28.21.827,multiplicationStroop,2021.2.3,Win32,61.0724319,,,,,left,1,0.9077,0,41,41,24,1,1,2,1 | 2,1,1.9756,1.4111,incongruent,left,,,,,,stimulusFile/physical.xlsx,,,,,,,,,,,,,,,,,,,,,,,,,,,,,,,
,,,,,,,,,,,,,,,8257,2022-01-26_11h28.21.827,multiplicationStroop,2021.2.3,Win32,61.0724319,,,,,left,1,0.7414,0,42,42,15,1,9,7,9 | 7,2,1.9756,1.4111,congruent,left,,,,,,stimulusFile/physical.xlsx,,,,,,,,,,,,,,,,,,,,,,,,,,,,,,,
,,,,,,,,,,,,,,,8257,2022-01-26_11h28.21.827,multiplicationStroop,2021.2.3,Win32,61.0724319,,,,,left,1,0.644,0,43,43,6,1,7,6,7 | 6,1,1.9756,1.4111,congruent,left,,,,,,stimulusFile/physical.xlsx,,,,,,,,,,,,,,,,,,,,,,,,,,,,,,,
,,,,,,,,,,,,,,,8257,2022-01-26_11h28.21.827,multiplicationStroop,2021.2.3,Win32,61.0724319,,,,,right,1,0.5018,0,44,44,60,1,3,3,3 | 3,0,1.4111,1.9756,neutral,right,,,,,,stimulusFile/physical.xlsx,,,,,,,,,,,,,,,,,,,,,,,,,,,,,,,
,,,,,,,,,,,,,,,8257,2022-01-26_11h28.21.827,multiplicationStroop,2021.2.3,Win32,61.0724319,,,,,right,1,0.7013,0,45,45,46,1,8,3,8 | 3,5,1.4111,1.9756,incongruent,right,,,,,,stimulusFile/physical.xlsx,,,,,,,,,,,,,,,,,,,,,,,,,,,,,,,
,,,,,,,,,,,,,,,8257,2022-01-26_11h28.21.827,multiplicationStroop,2021.2.3,Win32,61.0724319,,,,,left,1,0.5509,0,46,46,25,1,3,4,3 | 4,1,1.9756,1.4111,incongruent,left,,,,,,stimulusFile/physical.xlsx,,,,,,,,,,,,,,,,,,,,,,,,,,,,,,,
,,,,,,,,,,,,,,,8257,2022-01-26_11h28.21.827,multiplicationStroop,2021.2.3,Win32,61.0724319,,,,,left,1,0.5847,0,47,47,5,1,4,3,4 | 3,1,1.9756,1.4111,congruent,left,,,,,,stimulusFile/physical.xlsx,,,,,,,,,,,,,,,,,,,,,,,,,,,,,,,
,,,,,,,,,,,,,,,8257,2022-01-26_11h28.21.827,multiplicationStroop,2021.2.3,Win32,61.0724319,,,,,left,1,0.573,0,48,48,35,1,7,9,7 | 9,2,1.9756,1.4111,incongruent,left,,,,,,stimulusFile/physical.xlsx,,,,,,,,,,,,,,,,,,,,,,,,,,,,,,,
,,,,,,,,,,,,,,,8257,2022-01-26_11h28.21.827,multiplicationStroop,2021.2.3,Win32,61.0724319,,,,,right,1,0.4406,0,49,49,39,1,9,7,9 | 7,2,1.4111,1.9756,incongruent,right,,,,,,stimulusFile/physical.xlsx,,,,,,,,,,,,,,,,,,,,,,,,,,,,,,,
,,,,,,,,,,,,,,,8257,2022-01-26_11h28.21.827,multiplicationStroop,2021.2.3,Win32,61.0724319,,,,,right,1,0.9069,0,50,50,30,1,7,6,7 | 6,1,1.4111,1.9756,incongruent,right,,,,,,stimulusFile/physical.xlsx,,,,,,,,,,,,,,,,,,,,,,,,,,,,,,,
,,,,,,,,,,,,,,,8257,2022-01-26_11h28.21.827,multiplicationStroop,2021.2.3,Win32,61.0724319,,,,,left,1,0.4597,0,51,51,48,1,1,1,1 | 1,0,1.9756,1.4111,neutral,left,,,,,,stimulusFile/physical.xlsx,,,,,,,,,,,,,,,,,,,,,,,,,,,,,,,
,,,,,,,,,,,,,,,8257,2022-01-26_11h28.21.827,multiplicationStroop,2021.2.3,Win32,61.0724319,,,,,left,1,0.7574,0,52,52,43,1,4,9,4 | 9,5,1.9756,1.4111,incongruent,left,,,,,,stimulusFile/physical.xlsx,,,,,,,,,,,,,,,,,,,,,,,,,,,,,,,
,,,,,,,,,,,,,,,8257,2022-01-26_11h28.21.827,multiplicationStroop,2021.2.3,Win32,61.0724319,,,,,left,1,0.6911,0,53,53,50,1,6,6,6 | 6,0,1.9756,1.4111,neutral,left,,,,,,stimulusFile/physical.xlsx,,,,,,,,,,,,,,,,,,,,,,,,,,,,,,,
,,,,,,,,,,,,,,,8257,2022-01-26_11h28.21.827,multiplicationStroop,2021.2.3,Win32,61.0724319,,,,,right,1,0.5004,0,54,54,44,1,6,1,6 | 1,5,1.4111,1.9756,incongruent,right,,,,,,stimulusFile/physical.xlsx,,,,,,,,,,,,,,,,,,,,,,,,,,,,,,,
,,,,,,,,,,,,,,,8257,2022-01-26_11h28.21.827,multiplicationStroop,2021.2.3,Win32,61.0724319,,,,,right,1,0.5395,0,55,55,63,1,9,9,9 | 9,0,1.4111,1.9756,neutral,right,,,,,,stimulusFile/physical.xlsx,,,,,,,,,,,,,,,,,,,,,,,,,,,,,,,
,,,,,,,,,,,,,,,8257,2022-01-26_11h28.21.827,multiplicationStroop,2021.2.3,Win32,61.0724319,,,,,right,1,0.5419,0,56,56,1,1,3,4,3 | 4,1,1.4111,1.9756,congruent,right,,,,,,stimulusFile/physical.xlsx,,,,,,,,,,,,,,,,,,,,,,,,,,,,,,,
,,,,,,,,,,,,,,,8257,2022-01-26_11h28.21.827,multiplicationStroop,2021.2.3,Win32,61.0724319,,,,,right,1,0.6711,0,57,57,47,1,9,4,9 | 4,5,1.4111,1.9756,incongruent,right,,,,,,stimulusFile/physical.xlsx,,,,,,,,,,,,,,,,,,,,,,,,,,,,,,,
,,,,,,,,,,,,,,,8257,2022-01-26_11h28.21.827,multiplicationStroop,2021.2.3,Win32,61.0724319,,,,,left,0,0.469,0,58,58,66,1,3,3,3 | 3,0,1.9756,1.4111,neutral,right,,,,,,stimulusFile/physical.xlsx,,,,,,,,,,,,,,,,,,,,,,,,,,,,,,,
,,,,,,,,,,,,,,,8257,2022-01-26_11h28.21.827,multiplicationStroop,2021.2.3,Win32,61.0724319,,,,,left,1,0.5462,0,59,59,32,1,1,3,1 | 3,2,1.9756,1.4111,incongruent,left,,,,,,stimulusFile/physical.xlsx,,,,,,,,,,,,,,,,,,,,,,,,,,,,,,,
,,,,,,,,,,,,,,,8257,2022-01-26_11h28.21.827,multiplicationStroop,2021.2.3,Win32,61.0724319,,,,,left,1,0.35,0,60,60,52,1,2,2,2 | 2,0,1.9756,1.4111,neutral,left,,,,,,stimulusFile/physical.xlsx,,,,,,,,,,,,,,,,,,,,,,,,,,,,,,,
,,,,,,,,,,,,,,,8257,2022-01-26_11h28.21.827,multiplicationStroop,2021.2.3,Win32,61.0724319,,,,,right,1,0.5076,0,61,61,17,1,2,7,2 | 7,5,1.4111,1.9756,congruent,right,,,,,,stimulusFile/physical.xlsx,,,,,,,,,,,,,,,,,,,,,,,,,,,,,,,
,,,,,,,,,,,,,,,8257,2022-01-26_11h28.21.827,multiplicationStroop,2021.2.3,Win32,61.0724319,,,,,left,1,0.4463,0,62,62,68,1,6,6,6 | 6,0,1.9756,1.4111,neutral,left,,,,,,stimulusFile/physical.xlsx,,,,,,,,,,,,,,,,,,,,,,,,,,,,,,,
,,,,,,,,,,,,,,,8257,2022-01-26_11h28.21.827,multiplicationStroop,2021.2.3,Win32,61.0724319,,,,,right,1,0.4848,0,63,63,67,1,4,4,4 | 4,0,1.4111,1.9756,neutral,right,,,,,,stimulusFile/physical.xlsx,,,,,,,,,,,,,,,,,,,,,,,,,,,,,,,
,,,,,,,,,,,,,,,8257,2022-01-26_11h28.21.827,multiplicationStroop,2021.2.3,Win32,61.0724319,,,,,right,1,0.5573,0,64,64,58,1,6,6,6 | 6,0,1.4111,1.9756,neutral,right,,,,,,stimulusFile/physical.xlsx,,,,,,,,,,,,,,,,,,,,,,,,,,,,,,,
,,,,,,,,,,,,,,,8257,2022-01-26_11h28.21.827,multiplicationStroop,2021.2.3,Win32,61.0724319,,,,,right,1,0.5413,0,65,65,9,1,2,4,2 | 4,2,1.4111,1.9756,congruent,right,,,,,,stimulusFile/physical.xlsx,,,,,,,,,,,,,,,,,,,,,,,,,,,,,,,
,,,,,,,,,,,,,,,8257,2022-01-26_11h28.21.827,multiplicationStroop,2021.2.3,Win32,61.0724319,,,,,right,1,0.6577,0,66,66,37,1,4,2,4 | 2,2,1.4111,1.9756,incongruent,right,,,,,,stimulusFile/physical.xlsx,,,,,,,,,,,,,,,,,,,,,,,,,,,,,,,
,,,,,,,,,,,,,,,8257,2022-01-26_11h28.21.827,multiplicationStroop,2021.2.3,Win32,61.0724319,,,,,left,1,0.4737,0,67,67,41,1,2,7,2 | 7,5,1.9756,1.4111,incongruent,left,,,,,,stimulusFile/physical.xlsx,,,,,,,,,,,,,,,,,,,,,,,,,,,,,,,
,,,,,,,,,,,,,,,8257,2022-01-26_11h28.21.827,multiplicationStroop,2021.2.3,Win32,61.0724319,,,,,left,1,0.4468,0,68,68,23,1,9,4,9 | 4,5,1.9756,1.4111,congruent,left,,,,,,stimulusFile/physical.xlsx,,,,,,,,,,,,,,,,,,,,,,,,,,,,,,,
,,,,,,,,,,,,,,,8257,2022-01-26_11h28.21.827,multiplicationStroop,2021.2.3,Win32,61.0724319,,,,,left,0,0.4752,0,69,69,64,1,1,1,1 | 1,0,1.9756,1.4111,neutral,right,,,,,,stimulusFile/physical.xlsx,,,,,,,,,,,,,,,,,,,,,,,,,,,,,,,
,,,,,,,,,,,,,,,8257,2022-01-26_11h28.21.827,multiplicationStroop,2021.2.3,Win32,61.0724319,,,,,right,1,0.5117,0,70,70,45,1,7,2,7 | 2,5,1.4111,1.9756,incongruent,right,,,,,,stimulusFile/physical.xlsx,,,,,,,,,,,,,,,,,,,,,,,,,,,,,,,
,,,,,,,,,,,,,,,8257,2022-01-26_11h28.21.827,multiplicationStroop,2021.2.3,Win32,61.0724319,,,,,left,1,0.4999,0,71,71,54,1,7,7,7 | 7,0,1.9756,1.4111,neutral,left,,,,,,stimulusFile/physical.xlsx,,,,,,,,,,,,,,,,,,,,,,,,,,,,,,,
,,,,,,,,,,,,,,,8257,2022-01-26_11h28.21.827,multiplicationStroop,2021.2.3,Win32,61.0724319,,,,,,,,,,,,,,,,,,,,,0,1,1,1,1,stimulusFile/physical.xlsx,PHYSICALLY larger (larger font size).,images/physicallyLarger.png,,,,,,,,,,,,,,,,,,,,,,,,,,,,,
,,,,,,,,,,,,,,,8257,2022-01-26_11h28.21.827,multiplicationStroop,2021.2.3,Win32,61.0724319,,,,,,,,,,,,,,,,,,,,,,,,,,,,,space,167.281,space,1.9817,12,2.9533,1,0,0,0,2,1,3,×,4,3 × 4,congruent,smallerFirst,1,2,12,,,,,,,,
,,,,,,,,,,,,,,,8257,2022-01-26_11h28.21.827,multiplicationStroop,2021.2.3,Win32,61.0724319,,,,,,,,,,,,,,,,,,,,,,,,,,,,,,,,,24,3.5136,1,0,1,1,25,1,6,×,4,6 × 4,congruent,largerFirst,2,1,24,,,,,,,,
,,,,,,,,,,,,,,,8257,2022-01-26_11h28.21.827,multiplicationStroop,2021.2.3,Win32,61.0724319,,,,,,,,,,,,,,,,,,,,,,,,,,,,,,,,,72,4.7156,1,0,2,2,17,1,9,×,8,9 × 8,congruent,largerFirst,2,1,72,,,,,,,,
,,,,,,,,,,,,,,,8257,2022-01-26_11h28.21.827,multiplicationStroop,2021.2.3,Win32,61.0724319,,,,,,,,,,,,,,,,,,,,,,,,,,,,,,,,,18,2.2838,1,0,3,3,22,1,9,×,2,9 × 2,congruent,largerFirst,2,1,18,,,,,,,,
,,,,,,,,,,,,,,,8257,2022-01-26_11h28.21.827,multiplicationStroop,2021.2.3,Win32,61.0724319,,,,,,,,,,,,,,,,,,,,,,,,,,,,,,,,,63,5.1966,1,0,4,4,21,1,9,×,7,9 × 7,congruent,largerFirst,2,1,63,,,,,,,,
,,,,,,,,,,,,,,,8257,2022-01-26_11h28.21.827,multiplicationStroop,2021.2.3,Win32,61.0724319,,,,,,,,,,,,,,,,,,,,,,,,,,,,,,,,,16,3.2166,1,0,5,5,5,1,2,×,8,2 × 8,congruent,smallerFirst,1,2,16,,,,,,,,
,,,,,,,,,,,,,,,8257,2022-01-26_11h28.21.827,multiplicationStroop,2021.2.3,Win32,61.0724319,,,,,,,,,,,,,,,,,,,,,,,,,,,,,,,,,45,1.9982,1,0,6,6,23,1,9,×,5,9 × 5,congruent,largerFirst,2,1,45,,,,,,,,
,,,,,,,,,,,,,,,8257,2022-01-26_11h28.21.827,multiplicationStroop,2021.2.3,Win32,61.0724319,,,,,,,,,,,,,,,,,,,,,,,,,,,,,,,,,14,1.5988,1,0,7,7,14,1,7,×,2,7 × 2,congruent,largerFirst,2,1,14,,,,,,,,
,,,,,,,,,,,,,,,8257,2022-01-26_11h28.21.827,multiplicationStroop,2021.2.3,Win32,61.0724319,,,,,,,,,,,,,,,,,,,,,,,,,,,,,,,,,30,2.398,1,0,8,8,15,1,6,×,5,6 × 5,congruent,largerFirst,2,1,30,,,,,,,,
,,,,,,,,,,,,,,,8257,2022-01-26_11h28.21.827,multiplicationStroop,2021.2.3,Win32,61.0724319,,,,,,,,,,,,,,,,,,,,,,,,,,,,,,,,,20,2.0153,1,0,9,9,7,1,4,×,5,4 × 5,congruent,smallerFirst,1,2,20,,,,,,,,
,,,,,,,,,,,,,,,8257,2022-01-26_11h28.21.827,multiplicationStroop,2021.2.3,Win32,61.0724319,,,,,,,,,,,,,,,,,,,,,,,,,,,,,,,,,48,2.7979,1,0,10,10,18,1,8,×,6,8 × 6,congruent,largerFirst,2,1,48,,,,,,,,
,,,,,,,,,,,,,,,8257,2022-01-26_11h28.21.827,multiplicationStroop,2021.2.3,Win32,61.0724319,,,,,,,,,,,,,,,,,,,,,,,,,,,,,,,,,28,2.5333,1,0,11,11,27,1,7,×,4,7 × 4,congruent,largerFirst,2,1,28,,,,,,,,
,,,,,,,,,,,,,,,8257,2022-01-26_11h28.21.827,multiplicationStroop,2021.2.3,Win32,61.0724319,,,,,,,,,,,,,,,,,,,,,,,,,,,,,,,,,6,1.9485,1,0,12,12,13,1,2,×,3,2 × 3,congruent,smallerFirst,1,2,6,,,,,,,,
,,,,,,,,,,,,,,,8257,2022-01-26_11h28.21.827,multiplicationStroop,2021.2.3,Win32,61.0724319,,,,,,,,,,,,,,,,,,,,,,,,,,,,,,,,,16,2.1151,1,0,13,13,30,1,4,×,4,4 × 4,neutral,tie,2,1,16,,,,,,,,
,,,,,,,,,,,,,,,8257,2022-01-26_11h28.21.827,multiplicationStroop,2021.2.3,Win32,61.0724319,,,,,,,,,,,,,,,,,,,,,,,,,,,,,,,,,21,1.9316,1,0,14,14,16,1,7,×,3,7 × 3,congruent,largerFirst,2,1,21,,,,,,,,
,,,,,,,,,,,,,,,8257,2022-01-26_11h28.21.827,multiplicationStroop,2021.2.3,Win32,61.0724319,,,,,,,,,,,,,,,,,,,,,,,,,,,,,,,,,27,7.1954,1,0,15,15,26,1,9,×,3,9 × 3,congruent,largerFirst,2,1,27,,,,,,,,
,,,,,,,,,,,,,,,8257,2022-01-26_11h28.21.827,multiplicationStroop,2021.2.3,Win32,61.0724319,,,,,,,,,,,,,,,,,,,,,,,,,,,,,,,,,18,5.7643,1,0,16,16,11,1,3,×,6,3 × 6,congruent,smallerFirst,1,2,18,,,,,,,,
,,,,,,,,,,,,,,,8257,2022-01-26_11h28.21.827,multiplicationStroop,2021.2.3,Win32,61.0724319,,,,,,,,,,,,,,,,,,,,,,,,,,,,,,,,,54,20.2902,1,0,17,17,12,1,6,×,9,6 × 9,congruent,smallerFirst,1,2,54,,,,,,,,
,,,,,,,,,,,,,,,8257,2022-01-26_11h28.21.827,multiplicationStroop,2021.2.3,Win32,61.0724319,,,,,,,,,,,,,,,,,,,,,,,,,,,,,,,,,36,1.9168,1,0,18,18,32,1,6,×,6,6 × 6,neutral,tie,2,1,36,,,,,,,,
,,,,,,,,,,,,,,,8257,2022-01-26_11h28.21.827,multiplicationStroop,2021.2.3,Win32,61.0724319,,,,,,,,,,,,,,,,,,,,,,,,,,,,,,,,,32,2.698,1,0,19,19,20,1,8,×,4,8 × 4,congruent,largerFirst,2,1,32,,,,,,,,
,,,,,,,,,,,,,,,8257,2022-01-26_11h28.21.827,multiplicationStroop,2021.2.3,Win32,61.0724319,,,,,,,,,,,,,,,,,,,,,,,,,,,,,,,,,40,1.8173,1,0,20,20,6,1,5,×,8,5 × 8,congruent,smallerFirst,1,2,40,,,,,,,,
,,,,,,,,,,,,,,,8257,2022-01-26_11h28.21.827,multiplicationStroop,2021.2.3,Win32,61.0724319,,,,,,,,,,,,,,,,,,,,,,,,,,,,,,,,,36,3.2141,1,0,21,21,0,1,4,×,9,4 × 9,congruent,smallerFirst,1,2,36,,,,,,,,
,,,,,,,,,,,,,,,8257,2022-01-26_11h28.21.827,multiplicationStroop,2021.2.3,Win32,61.0724319,,,,,,,,,,,,,,,,,,,,,,,,,,,,,,,,,35,1.8984,1,0,22,22,1,1,5,×,7,5 × 7,congruent,smallerFirst,1,2,35,,,,,,,,
,,,,,,,,,,,,,,,8257,2022-01-26_11h28.21.827,multiplicationStroop,2021.2.3,Win32,61.0724319,,,,,,,,,,,,,,,,,,,,,,,,,,,,,,,,,4,1.3487,1,0,23,23,28,1,2,×,2,2 × 2,neutral,tie,2,1,4,,,,,,,,
,,,,,,,,,,,,,,,8257,2022-01-26_11h28.21.827,multiplicationStroop,2021.2.3,Win32,61.0724319,,,,,,,,,,,,,,,,,,,,,,,,,,,,,,,,,8,2.0483,1,0,24,24,9,1,2,×,4,2 × 4,congruent,smallerFirst,1,2,8,,,,,,,,
,,,,,,,,,,,,,,,8257,2022-01-26_11h28.21.827,multiplicationStroop,2021.2.3,Win32,61.0724319,,,,,,,,,,,,,,,,,,,,,,,,,,,,,,,,,10,1.9481,1,0,25,25,24,1,5,×,2,5 × 2,congruent,largerFirst,2,1,10,,,,,,,,
,,,,,,,,,,,,,,,8257,2022-01-26_11h28.21.827,multiplicationStroop,2021.2.3,Win32,61.0724319,,,,,,,,,,,,,,,,,,,,,,,,,,,,,,,,,64,2.2133,1,0,26,26,34,1,8,×,8,8 × 8,neutral,tie,2,1,64,,,,,,,,
,,,,,,,,,,,,,,,8257,2022-01-26_11h28.21.827,multiplicationStroop,2021.2.3,Win32,61.0724319,,,,,,,,,,,,,,,,,,,,,,,,,,,,,,,,,49,1.9317,1,0,27,27,33,1,7,×,7,7 × 7,neutral,tie,2,1,49,,,,,,,,
,,,,,,,,,,,,,,,8257,2022-01-26_11h28.21.827,multiplicationStroop,2021.2.3,Win32,61.0724319,,,,,,,,,,,,,,,,,,,,,,,,,,,,,,,,,56,2.4483,1,0,28,28,8,1,7,×,8,7 × 8,congruent,smallerFirst,1,2,56,,,,,,,,
,,,,,,,,,,,,,,,8257,2022-01-26_11h28.21.827,multiplicationStroop,2021.2.3,Win32,61.0724319,,,,,,,,,,,,,,,,,,,,,,,,,,,,,,,,,2,5.3133,0,0,29,29,10,1,3,×,8,3 × 8,congruent,smallerFirst,1,2,24,,,,,,,,
,,,,,,,,,,,,,,,8257,2022-01-26_11h28.21.827,multiplicationStroop,2021.2.3,Win32,61.0724319,,,,,,,,,,,,,,,,,,,,,,,,,,,,,,,,,25,2.7,1,0,30,30,31,1,5,×,5,5 × 5,neutral,tie,2,1,25,,,,,,,,
,,,,,,,,,,,,,,,8257,2022-01-26_11h28.21.827,multiplicationStroop,2021.2.3,Win32,61.0724319,,,,,,,,,,,,,,,,,,,,,,,,,,,,,,,,,81,5.6464,1,0,31,31,35,1,9,×,9,9 × 9,neutral,tie,2,1,81,,,,,,,,
,,,,,,,,,,,,,,,8257,2022-01-26_11h28.21.827,multiplicationStroop,2021.2.3,Win32,61.0724319,,,,,,,,,,,,,,,,,,,,,,,,,,,,,,,,,42,2.5003,1,0,32,32,3,1,6,×,7,6 × 7,congruent,smallerFirst,1,2,42,,,,,,,,
,,,,,,,,,,,,,,,8257,2022-01-26_11h28.21.827,multiplicationStroop,2021.2.3,Win32,61.0724319,,,,,,,,,,,,,,,,,,,,,,,,,,,,,,,,,9,1.682,1,0,33,33,29,1,3,×,3,3 × 3,neutral,tie,2,1,9,,,,,,,,
,,,,,,,,,,,,,,,8257,2022-01-26_11h28.21.827,multiplicationStroop,2021.2.3,Win32,61.0724319,,,,,,,,,,,,,,,,,,,,,,,,,,,,,,,,,15,2.0981,1,0,34,34,4,1,3,×,5,3 × 5,congruent,smallerFirst,1,2,15,,,,,,,,
,,,,,,,,,,,,,,,8257,2022-01-26_11h28.21.827,multiplicationStroop,2021.2.3,Win32,61.0724319,,,,,,,,,,,,,,,,,,,,,,,,,,,,,,,,,12,4.0804,1,0,35,35,19,1,6,×,2,6 × 2,congruent,largerFirst,2,1,12,,,,,,,,
,,,,,,,,,,,,,,,8257,2022-01-26_11h28.21.827,multiplicationStroop,2021.2.3,Win32,61.0724319,,,,,,,,,,,,,,,,,,,,,,,,,,,,,,,,,,,,,,,,,,,,,,,,,,0,0,0,2,1,stimulusFile/mult_blk3_congruent.xlsx,,
,,,,,,,,,,,,,,,8257,2022-01-26_11h28.21.827,multiplicationStroop,2021.2.3,Win32,61.0724319,,,,,,,,,,,,,,,,,,,,,,,,,,,,,,,space,156.43,64,2.6226,1,0,0,0,34,1,8,×,8,8 × 8,neutral,tie,1,2,64,,,,,,,,
,,,,,,,,,,,,,,,8257,2022-01-26_11h28.21.827,multiplicationStroop,2021.2.3,Win32,61.0724319,,,,,,,,,,,,,,,,,,,,,,,,,,,,,,,,,16,1.6984,1,0,1,1,30,1,4,×,4,4 × 4,neutral,tie,1,2,16,,,,,,,,
,,,,,,,,,,,,,,,8257,2022-01-26_11h28.21.827,multiplicationStroop,2021.2.3,Win32,61.0724319,,,,,,,,,,,,,,,,,,,,,,,,,,,,,,,,,30,2.065,1,0,2,2,1,1,5,×,6,5 × 6,congruent,smallerFirst,1,2,30,,,,,,,,
,,,,,,,,,,,,,,,8257,2022-01-26_11h28.21.827,multiplicationStroop,2021.2.3,Win32,61.0724319,,,,,,,,,,,,,,,,,,,,,,,,,,,,,,,,,15,1.6318,1,0,3,3,18,1,5,×,3,5 × 3,congruent,largerFirst,2,1,15,,,,,,,,
,,,,,,,,,,,,,,,8257,2022-01-26_11h28.21.827,multiplicationStroop,2021.2.3,Win32,61.0724319,,,,,,,,,,,,,,,,,,,,,,,,,,,,,,,,,63,3.5974,1,0,4,4,7,1,7,×,9,7 × 9,congruent,smallerFirst,1,2,63,,,,,,,,
,,,,,,,,,,,,,,,8257,2022-01-26_11h28.21.827,multiplicationStroop,2021.2.3,Win32,61.0724319,,,,,,,,,,,,,,,,,,,,,,,,,,,,,,,,,54,3.6141,1,0,5,5,26,1,9,×,6,9 × 6,congruent,largerFirst,2,1,54,,,,,,,,
,,,,,,,,,,,,,,,8257,2022-01-26_11h28.21.827,multiplicationStroop,2021.2.3,Win32,61.0724319,,,,,,,,,,,,,,,,,,,,,,,,,,,,,,,,,56,3.9502,1,0,6,6,22,1,8,×,7,8 × 7,congruent,largerFirst,2,1,56,,,,,,,,
,,,,,,,,,,,,,,,8257,2022-01-26_11h28.21.827,multiplicationStroop,2021.2.3,Win32,61.0724319,,,,,,,,,,,,,,,,,,,,,,,,,,,,,,,,,6,1.7182,1,0,7,7,27,1,3,×,2,3 × 2,congruent,largerFirst,2,1,6,,,,,,,,
,,,,,,,,,,,,,,,8257,2022-01-26_11h28.21.827,multiplicationStroop,2021.2.3,Win32,61.0724319,,,,,,,,,,,,,,,,,,,,,,,,,,,,,,,,,81,2.6637,1,0,8,8,35,1,9,×,9,9 × 9,neutral,tie,1,2,81,,,,,,,,
,,,,,,,,,,,,,,,8257,2022-01-26_11h28.21.827,multiplicationStroop,2021.2.3,Win32,61.0724319,,,,,,,,,,,,,,,,,,,,,,,,,,,,,,,,,45,1.9478,1,0,9,9,9,1,5,×,9,5 × 9,congruent,smallerFirst,1,2,45,,,,,,,,
,,,,,,,,,,,,,,,8257,2022-01-26_11h28.21.827,multiplicationStroop,2021.2.3,Win32,61.0724319,,,,,,,,,,,,,,,,,,,,,,,,,,,,,,,,,14,1.6334,1,0,10,10,0,1,2,×,7,2 × 7,congruent,smallerFirst,1,2,14,,,,,,,,
,,,,,,,,,,,,,,,8257,2022-01-26_11h28.21.827,multiplicationStroop,2021.2.3,Win32,61.0724319,,,,,,,,,,,,,,,,,,,,,,,,,,,,,,,,,32,2.3132,1,0,11,11,6,1,4,×,8,4 × 8,congruent,smallerFirst,1,2,32,,,,,,,,
,,,,,,,,,,,,,,,8257,2022-01-26_11h28.21.827,multiplicationStroop,2021.2.3,Win32,61.0724319,,,,,,,,,,,,,,,,,,,,,,,,,,,,,,,,,4,1.3988,1,0,12,12,28,1,2,×,2,2 × 2,neutral,tie,1,2,4,,,,,,,,
,,,,,,,,,,,,,,,8257,2022-01-26_11h28.21.827,multiplicationStroop,2021.2.3,Win32,61.0724319,,,,,,,,,,,,,,,,,,,,,,,,,,,,,,,,,16,1.8151,1,0,13,13,19,1,8,×,2,8 × 2,congruent,largerFirst,2,1,16,,,,,,,,
,,,,,,,,,,,,,,,8257,2022-01-26_11h28.21.827,multiplicationStroop,2021.2.3,Win32,61.0724319,,,,,,,,,,,,,,,,,,,,,,,,,,,,,,,,,49,3.2644,1,0,14,14,33,1,7,×,7,7 × 7,neutral,tie,1,2,49,,,,,,,,
,,,,,,,,,,,,,,,8257,2022-01-26_11h28.21.827,multiplicationStroop,2021.2.3,Win32,61.0724319,,,,,,,,,,,,,,,,,,,,,,,,,,,,,,,,,8,3.1145,1,0,15,15,23,1,4,×,2,4 × 2,congruent,largerFirst,2,1,8,,,,,,,,
,,,,,,,,,,,,,,,8257,2022-01-26_11h28.21.827,multiplicationStroop,2021.2.3,Win32,61.0724319,,,,,,,,,,,,,,,,,,,,,,,,,,,,,,,,,35,2.167,1,0,16,16,15,1,7,×,5,7 × 5,congruent,largerFirst,2,1,35,,,,,,,,
,,,,,,,,,,,,,,,8257,2022-01-26_11h28.21.827,multiplicationStroop,2021.2.3,Win32,61.0724319,,,,,,,,,,,,,,,,,,,,,,,,,,,,,,,,,21,1.7651,1,0,17,17,2,1,3,×,7,3 × 7,congruent,smallerFirst,1,2,21,,,,,,,,
,,,,,,,,,,,,,,,8257,2022-01-26_11h28.21.827,multiplicationStroop,2021.2.3,Win32,61.0724319,,,,,,,,,,,,,,,,,,,,,,,,,,,,,,,,,25,1.8318,1,0,18,18,31,1,5,×,5,5 × 5,neutral,tie,1,2,25,,,,,,,,
,,,,,,,,,,,,,,,8257,2022-01-26_11h28.21.827,multiplicationStroop,2021.2.3,Win32,61.0724319,,,,,,,,,,,,,,,,,,,,,,,,,,,,,,,,,36,4.5473,1,0,19,19,14,1,9,×,4,9 × 4,congruent,largerFirst,2,1,36,,,,,,,,
,,,,,,,,,,,,,,,8257,2022-01-26_11h28.21.827,multiplicationStroop,2021.2.3,Win32,61.0724319,,,,,,,,,,,,,,,,,,,,,,,,,,,,,,,,,28,3.9159,1,0,20,20,13,1,4,×,7,4 × 7,congruent,smallerFirst,1,2,28,,,,,,,,
,,,,,,,,,,,,,,,8257,2022-01-26_11h28.21.827,multiplicationStroop,2021.2.3,Win32,61.0724319,,,,,,,,,,,,,,,,,,,,,,,,,,,,,,,,,12,1.5343,1,0,21,21,16,1,4,×,3,4 × 3,congruent,largerFirst,2,1,12,,,,,,,,
,,,,,,,,,,,,,,,8257,2022-01-26_11h28.21.827,multiplicationStroop,2021.2.3,Win32,61.0724319,,,,,,,,,,,,,,,,,,,,,,,,,,,,,,,,,27,3.3645,1,0,22,22,12,1,3,×,9,3 × 9,congruent,smallerFirst,1,2,27,,,,,,,,
,,,,,,,,,,,,,,,8257,2022-01-26_11h28.21.827,multiplicationStroop,2021.2.3,Win32,61.0724319,,,,,,,,,,,,,,,,,,,,,,,,,,,,,,,,,20,2.1674,1,0,23,23,21,1,5,×,4,5 × 4,congruent,largerFirst,2,1,20,,,,,,,,
,,,,,,,,,,,,,,,8257,2022-01-26_11h28.21.827,multiplicationStroop,2021.2.3,Win32,61.0724319,,,,,,,,,,,,,,,,,,,,,,,,,,,,,,,,,40,3.6972,1,0,24,24,20,1,8,×,5,8 × 5,congruent,largerFirst,2,1,40,,,,,,,,
,,,,,,,,,,,,,,,8257,2022-01-26_11h28.21.827,multiplicationStroop,2021.2.3,Win32,61.0724319,,,,,,,,,,,,,,,,,,,,,,,,,,,,,,,,,24,2.5172,1,0,25,25,11,1,4,×,6,4 × 6,congruent,smallerFirst,1,2,24,,,,,,,,
,,,,,,,,,,,,,,,8257,2022-01-26_11h28.21.827,multiplicationStroop,2021.2.3,Win32,61.0724319,,,,,,,,,,,,,,,,,,,,,,,,,,,,,,,,,48,2.6479,1,0,26,26,4,1,6,×,8,6 × 8,congruent,smallerFirst,1,2,48,,,,,,,,
,,,,,,,,,,,,,,,8257,2022-01-26_11h28.21.827,multiplicationStroop,2021.2.3,Win32,61.0724319,,,,,,,,,,,,,,,,,,,,,,,,,,,,,,,,,36,2.1483,1,0,27,27,32,1,6,×,6,6 × 6,neutral,tie,1,2,36,,,,,,,,
,,,,,,,,,,,,,,,8257,2022-01-26_11h28.21.827,multiplicationStroop,2021.2.3,Win32,61.0724319,,,,,,,,,,,,,,,,,,,,,,,,,,,,,,,,,12,1.5151,1,0,28,28,5,1,2,×,6,2 × 6,congruent,smallerFirst,1,2,12,,,,,,,,
,,,,,,,,,,,,,,,8257,2022-01-26_11h28.21.827,multiplicationStroop,2021.2.3,Win32,61.0724319,,,,,,,,,,,,,,,,,,,,,,,,,,,,,,,,,10,1.8154,1,0,29,29,10,1,2,×,5,2 × 5,congruent,smallerFirst,1,2,10,,,,,,,,
,,,,,,,,,,,,,,,8257,2022-01-26_11h28.21.827,multiplicationStroop,2021.2.3,Win32,61.0724319,,,,,,,,,,,,,,,,,,,,,,,,,,,,,,,,,18,2.9975,1,0,30,30,25,1,6,×,3,6 × 3,congruent,largerFirst,2,1,18,,,,,,,,
,,,,,,,,,,,,,,,8257,2022-01-26_11h28.21.827,multiplicationStroop,2021.2.3,Win32,61.0724319,,,,,,,,,,,,,,,,,,,,,,,,,,,,,,,,,18,2.7315,1,0,31,31,8,1,2,×,9,2 × 9,congruent,smallerFirst,1,2,18,,,,,,,,
,,,,,,,,,,,,,,,8257,2022-01-26_11h28.21.827,multiplicationStroop,2021.2.3,Win32,61.0724319,,,,,,,,,,,,,,,,,,,,,,,,,,,,,,,,,42,3.0665,1,0,32,32,17,1,7,×,6,7 × 6,congruent,largerFirst,2,1,42,,,,,,,,
,,,,,,,,,,,,,,,8257,2022-01-26_11h28.21.827,multiplicationStroop,2021.2.3,Win32,61.0724319,,,,,,,,,,,,,,,,,,,,,,,,,,,,,,,,,24,2.3313,1,0,33,33,24,1,8,×,3,8 × 3,congruent,largerFirst,2,1,24,,,,,,,,
,,,,,,,,,,,,,,,8257,2022-01-26_11h28.21.827,multiplicationStroop,2021.2.3,Win32,61.0724319,,,,,,,,,,,,,,,,,,,,,,,,,,,,,,,,,72,2.9149,1,0,34,34,3,1,8,×,9,8 × 9,congruent,smallerFirst,1,2,72,,,,,,,,
,,,,,,,,,,,,,,,8257,2022-01-26_11h28.21.827,multiplicationStroop,2021.2.3,Win32,61.0724319,,,,,,,,,,,,,,,,,,,,,,,,,,,,,,,,,9,1.967,1,0,35,35,29,1,3,×,3,3 × 3,neutral,tie,1,2,9,,,,,,,,
,,,,,,,,,,,,,,,8257,2022-01-26_11h28.21.827,multiplicationStroop,2021.2.3,Win32,61.0724319,,,,,,,,,,,,,,,,,,,,,,,,,,,,,,,,,,,,,,,,,,,,,,,,,,0,1,1,3,1,stimulusFile/mult_blk4_congruent.xlsx,,
,,,,,,,,,,,,,,,8257,2022-01-26_11h28.21.827,multiplicationStroop,2021.2.3,Win32,61.0724319,,,,,,,,,,,,,,,,,,,,,,,,,,,,,,,space,123.753,9,1.9381,1,0,0,0,29,1,3,×,3,3 × 3,neutral,tie,2,1,9,,,,,,,,
,,,,,,,,,,,,,,,8257,2022-01-26_11h28.21.827,multiplicationStroop,2021.2.3,Win32,61.0724319,,,,,,,,,,,,,,,,,,,,,,,,,,,,,,,,,4,1.3322,1,0,1,1,28,1,2,×,2,2 × 2,neutral,tie,2,1,4,,,,,,,,
,,,,,,,,,,,,,,,8257,2022-01-26_11h28.21.827,multiplicationStroop,2021.2.3,Win32,61.0724319,,,,,,,,,,,,,,,,,,,,,,,,,,,,,,,,,64,2.8811,1,0,2,2,34,1,8,×,8,8 × 8,neutral,tie,2,1,64,,,,,,,,
,,,,,,,,,,,,,,,8257,2022-01-26_11h28.21.827,multiplicationStroop,2021.2.3,Win32,61.0724319,,,,,,,,,,,,,,,,,,,,,,,,,,,,,,,,,12,1.3677,1,0,3,3,5,1,2,×,6,2 × 6,incongruent,smallerFirst,2,1,12,,,,,,,,
,,,,,,,,,,,,,,,8257,2022-01-26_11h28.21.827,multiplicationStroop,2021.2.3,Win32,61.0724319,,,,,,,,,,,,,,,,,,,,,,,,,,,,,,,,,25,1.6485,1,0,4,4,31,1,5,×,5,5 × 5,neutral,tie,2,1,25,,,,,,,,
,,,,,,,,,,,,,,,8257,2022-01-26_11h28.21.827,multiplicationStroop,2021.2.3,Win32,61.0724319,,,,,,,,,,,,,,,,,,,,,,,,,,,,,,,,,30,1.5986,1,0,5,5,11,1,5,×,6,5 × 6,incongruent,smallerFirst,2,1,30,,,,,,,,
,,,,,,,,,,,,,,,8257,2022-01-26_11h28.21.827,multiplicationStroop,2021.2.3,Win32,61.0724319,,,,,,,,,,,,,,,,,,,,,,,,,,,,,,,,,18,2.0981,1,0,6,6,16,1,9,×,2,9 × 2,incongruent,largerFirst,1,2,18,,,,,,,,
,,,,,,,,,,,,,,,8257,2022-01-26_11h28.21.827,multiplicationStroop,2021.2.3,Win32,61.0724319,,,,,,,,,,,,,,,,,,,,,,,,,,,,,,,,,18,2.598,1,0,7,7,22,1,6,×,3,6 × 3,incongruent,largerFirst,1,2,18,,,,,,,,
,,,,,,,,,,,,,,,8257,2022-01-26_11h28.21.827,multiplicationStroop,2021.2.3,Win32,61.0724319,,,,,,,,,,,,,,,,,,,,,,,,,,,,,,,,,16,2.5322,1,0,8,8,9,1,2,×,8,2 × 8,incongruent,smallerFirst,2,1,16,,,,,,,,
,,,,,,,,,,,,,,,8257,2022-01-26_11h28.21.827,multiplicationStroop,2021.2.3,Win32,61.0724319,,,,,,,,,,,,,,,,,,,,,,,,,,,,,,,,,49,1.8505,1,0,9,9,33,1,7,×,7,7 × 7,neutral,tie,2,1,49,,,,,,,,
,,,,,,,,,,,,,,,8257,2022-01-26_11h28.21.827,multiplicationStroop,2021.2.3,Win32,61.0724319,,,,,,,,,,,,,,,,,,,,,,,,,,,,,,,,,35,2.198,1,0,10,10,26,1,7,×,5,7 × 5,incongruent,largerFirst,1,2,35,,,,,,,,
,,,,,,,,,,,,,,,8257,2022-01-26_11h28.21.827,multiplicationStroop,2021.2.3,Win32,61.0724319,,,,,,,,,,,,,,,,,,,,,,,,,,,,,,,,,20,2.3007,1,0,11,11,13,1,4,×,5,4 × 5,incongruent,smallerFirst,2,1,20,,,,,,,,
,,,,,,,,,,,,,,,8257,2022-01-26_11h28.21.827,multiplicationStroop,2021.2.3,Win32,61.0724319,,,,,,,,,,,,,,,,,,,,,,,,,,,,,,,,,28,2.0487,1,0,12,12,2,1,4,×,7,4 × 7,incongruent,smallerFirst,2,1,28,,,,,,,,
,,,,,,,,,,,,,,,8257,2022-01-26_11h28.21.827,multiplicationStroop,2021.2.3,Win32,61.0724319,,,,,,,,,,,,,,,,,,,,,,,,,,,,,,,,,54,3.3144,1,0,13,13,20,1,9,×,6,9 × 6,incongruent,largerFirst,1,2,54,,,,,,,,
,,,,,,,,,,,,,,,8257,2022-01-26_11h28.21.827,multiplicationStroop,2021.2.3,Win32,61.0724319,,,,,,,,,,,,,,,,,,,,,,,,,,,,,,,,,14,1.4988,1,0,14,14,18,1,7,×,2,7 × 2,incongruent,largerFirst,1,2,14,,,,,,,,
,,,,,,,,,,,,,,,8257,2022-01-26_11h28.21.827,multiplicationStroop,2021.2.3,Win32,61.0724319,,,,,,,,,,,,,,,,,,,,,,,,,,,,,,,,,10,1.7486,1,0,15,15,7,1,2,×,5,2 × 5,incongruent,smallerFirst,2,1,10,,,,,,,,
,,,,,,,,,,,,,,,8257,2022-01-26_11h28.21.827,multiplicationStroop,2021.2.3,Win32,61.0724319,,,,,,,,,,,,,,,,,,,,,,,,,,,,,,,,,27,3.764,1,0,16,16,4,1,3,×,9,3 × 9,incongruent,smallerFirst,2,1,27,,,,,,,,
,,,,,,,,,,,,,,,8257,2022-01-26_11h28.21.827,multiplicationStroop,2021.2.3,Win32,61.0724319,,,,,,,,,,,,,,,,,,,,,,,,,,,,,,,,,21,1.7176,1,0,17,17,12,1,3,×,7,3 × 7,incongruent,smallerFirst,2,1,21,,,,,,,,
,,,,,,,,,,,,,,,8257,2022-01-26_11h28.21.827,multiplicationStroop,2021.2.3,Win32,61.0724319,,,,,,,,,,,,,,,,,,,,,,,,,,,,,,,,,15,1.5152,1,0,18,18,24,1,5,×,3,5 × 3,incongruent,largerFirst,1,2,15,,,,,,,,
,,,,,,,,,,,,,,,8257,2022-01-26_11h28.21.827,multiplicationStroop,2021.2.3,Win32,61.0724319,,,,,,,,,,,,,,,,,,,,,,,,,,,,,,,,,24,1.6653,1,0,19,19,6,1,4,×,6,4 × 6,incongruent,smallerFirst,2,1,24,,,,,,,,
,,,,,,,,,,,,,,,8257,2022-01-26_11h28.21.827,multiplicationStroop,2021.2.3,Win32,61.0724319,,,,,,,,,,,,,,,,,,,,,,,,,,,,,,,,,36,3.5644,1,0,20,20,1,1,4,×,9,4 × 9,incongruent,smallerFirst,2,1,36,,,,,,,,
,,,,,,,,,,,,,,,8257,2022-01-26_11h28.21.827,multiplicationStroop,2021.2.3,Win32,61.0724319,,,,,,,,,,,,,,,,,,,,,,,,,,,,,,,,,40,1.8009,1,0,21,21,27,1,8,×,5,8 × 5,incongruent,largerFirst,1,2,40,,,,,,,,
,,,,,,,,,,,,,,,8257,2022-01-26_11h28.21.827,multiplicationStroop,2021.2.3,Win32,61.0724319,,,,,,,,,,,,,,,,,,,,,,,,,,,,,,,,,12,1.9983,1,0,22,22,19,1,4,×,3,4 × 3,incongruent,largerFirst,1,2,12,,,,,,,,
,,,,,,,,,,,,,,,8257,2022-01-26_11h28.21.827,multiplicationStroop,2021.2.3,Win32,61.0724319,,,,,,,,,,,,,,,,,,,,,,,,,,,,,,,,,8,1.8648,1,0,23,23,10,1,2,×,4,2 × 4,incongruent,smallerFirst,2,1,8,,,,,,,,
,,,,,,,,,,,,,,,8257,2022-01-26_11h28.21.827,multiplicationStroop,2021.2.3,Win32,61.0724319,,,,,,,,,,,,,,,,,,,,,,,,,,,,,,,,,48,1.8654,1,0,24,24,15,1,8,×,6,8 × 6,incongruent,largerFirst,1,2,48,,,,,,,,
,,,,,,,,,,,,,,,8257,2022-01-26_11h28.21.827,multiplicationStroop,2021.2.3,Win32,61.0724319,,,,,,,,,,,,,,,,,,,,,,,,,,,,,,,,,32,2.4977,1,0,25,25,21,1,8,×,4,8 × 4,incongruent,largerFirst,1,2,32,,,,,,,,
,,,,,,,,,,,,,,,8257,2022-01-26_11h28.21.827,multiplicationStroop,2021.2.3,Win32,61.0724319,,,,,,,,,,,,,,,,,,,,,,,,,,,,,,,,,56,4.0308,1,0,26,26,0,1,7,×,8,7 × 8,incongruent,smallerFirst,2,1,56,,,,,,,,
,,,,,,,,,,,,,,,8257,2022-01-26_11h28.21.827,multiplicationStroop,2021.2.3,Win32,61.0724319,,,,,,,,,,,,,,,,,,,,,,,,,,,,,,,,,45,2.0177,1,0,27,27,8,1,5,×,9,5 × 9,incongruent,smallerFirst,2,1,45,,,,,,,,
,,,,,,,,,,,,,,,8257,2022-01-26_11h28.21.827,multiplicationStroop,2021.2.3,Win32,61.0724319,,,,,,,,,,,,,,,,,,,,,,,,,,,,,,,,,81,2.2648,1,0,28,28,35,1,9,×,9,9 × 9,neutral,tie,2,1,81,,,,,,,,
,,,,,,,,,,,,,,,8257,2022-01-26_11h28.21.827,multiplicationStroop,2021.2.3,Win32,61.0724319,,,,,,,,,,,,,,,,,,,,,,,,,,,,,,,,,6,1.6818,1,0,29,29,25,1,3,×,2,3 × 2,incongruent,largerFirst,1,2,6,,,,,,,,
,,,,,,,,,,,,,,,8257,2022-01-26_11h28.21.827,multiplicationStroop,2021.2.3,Win32,61.0724319,,,,,,,,,,,,,,,,,,,,,,,,,,,,,,,,,24,2.7147,1,0,30,30,23,1,8,×,3,8 × 3,incongruent,largerFirst,1,2,24,,,,,,,,
,,,,,,,,,,,,,,,8257,2022-01-26_11h28.21.827,multiplicationStroop,2021.2.3,Win32,61.0724319,,,,,,,,,,,,,,,,,,,,,,,,,,,,,,,,,16,1.6489,1,0,31,31,30,1,4,×,4,4 × 4,neutral,tie,2,1,16,,,,,,,,
,,,,,,,,,,,,,,,8257,2022-01-26_11h28.21.827,multiplicationStroop,2021.2.3,Win32,61.0724319,,,,,,,,,,,,,,,,,,,,,,,,,,,,,,,,,49,2.2645,0,0,32,32,17,1,9,×,7,9 × 7,incongruent,largerFirst,1,2,63,,,,,,,,
,,,,,,,,,,,,,,,8257,2022-01-26_11h28.21.827,multiplicationStroop,2021.2.3,Win32,61.0724319,,,,,,,,,,,,,,,,,,,,,,,,,,,,,,,,,36,4.1643,1,0,33,33,32,1,6,×,6,6 × 6,neutral,tie,2,1,36,,,,,,,,
,,,,,,,,,,,,,,,8257,2022-01-26_11h28.21.827,multiplicationStroop,2021.2.3,Win32,61.0724319,,,,,,,,,,,,,,,,,,,,,,,,,,,,,,,,,72,14.3605,1,0,34,34,14,1,9,×,8,9 × 8,incongruent,largerFirst,1,2,72,,,,,,,,
,,,,,,,,,,,,,,,8257,2022-01-26_11h28.21.827,multiplicationStroop,2021.2.3,Win32,61.0724319,,,,,,,,,,,,,,,,,,,,,,,,,,,,,,,,,42,1.7164,1,0,35,35,3,1,6,×,7,6 × 7,incongruent,smallerFirst,2,1,42,,,,,,,,
,,,,,,,,,,,,,,,8257,2022-01-26_11h28.21.827,multiplicationStroop,2021.2.3,Win32,61.0724319,,,,,,,,,,,,,,,,,,,,,,,,,,,,,,,,,,,,,,,,,,,,,,,,,,0,2,2,4,1,stimulusFile/mult_blk5_INcongruent.xlsx,,
,,,,,,,,,,,,,,,8257,2022-01-26_11h28.21.827,multiplicationStroop,2021.2.3,Win32,61.0724319,,,,,,,,,,,,,,,,,,,,,,,,,,,,,,,space,5.374,18,2.8639,1,0,0,0,14,1,6,×,3,6 × 3,neutral,largerFirst,1.5,1.5,18,,,,,,,,
,,,,,,,,,,,,,,,8257,2022-01-26_11h28.21.827,multiplicationStroop,2021.2.3,Win32,61.0724319,,,,,,,,,,,,,,,,,,,,,,,,,,,,,,,,,36,3.3473,1,0,1,1,13,1,4,×,9,4 × 9,neutral,smallerFirst,1.5,1.5,36,,,,,,,,
,,,,,,,,,,,,,,,8257,2022-01-26_11h28.21.827,multiplicationStroop,2021.2.3,Win32,61.0724319,,,,,,,,,,,,,,,,,,,,,,,,,,,,,,,,,8,1.7012,1,0,2,2,17,1,4,×,2,4 × 2,neutral,largerFirst,1.5,1.5,8,,,,,,,,
,,,,,,,,,,,,,,,8257,2022-01-26_11h28.21.827,multiplicationStroop,2021.2.3,Win32,61.0724319,,,,,,,,,,,,,,,,,,,,,,,,,,,,,,,,,9,1.4988,1,0,3,3,29,1,3,×,3,3 × 3,neutral,tie,1.5,1.5,9,,,,,,,,
,,,,,,,,,,,,,,,8257,2022-01-26_11h28.21.827,multiplicationStroop,2021.2.3,Win32,61.0724319,,,,,,,,,,,,,,,,,,,,,,,,,,,,,,,,,16,1.5651,1,0,4,4,27,1,8,×,2,8 × 2,neutral,largerFirst,1.5,1.5,16,,,,,,,,
,,,,,,,,,,,,,,,8257,2022-01-26_11h28.21.827,multiplicationStroop,2021.2.3,Win32,61.0724319,,,,,,,,,,,,,,,,,,,,,,,,,,,,,,,,,12,1.3654,1,0,5,5,7,1,3,×,4,3 × 4,neutral,smallerFirst,1.5,1.5,12,,,,,,,,
,,,,,,,,,,,,,,,8257,2022-01-26_11h28.21.827,multiplicationStroop,2021.2.3,Win32,61.0724319,,,,,,,,,,,,,,,,,,,,,,,,,,,,,,,,,20,1.732,1,0,6,6,6,1,4,×,5,4 × 5,neutral,smallerFirst,1.5,1.5,20,,,,,,,,
,,,,,,,,,,,,,,,8257,2022-01-26_11h28.21.827,multiplicationStroop,2021.2.3,Win32,61.0724319,,,,,,,,,,,,,,,,,,,,,,,,,,,,,,,,,36,1.7318,1,0,7,7,32,1,6,×,6,6 × 6,neutral,tie,1.5,1.5,36,,,,,,,,
,,,,,,,,,,,,,,,8257,2022-01-26_11h28.21.827,multiplicationStroop,2021.2.3,Win32,61.0724319,,,,,,,,,,,,,,,,,,,,,,,,,,,,,,,,,28,2.9646,1,0,8,8,3,1,4,×,7,4 × 7,neutral,smallerFirst,1.5,1.5,28,,,,,,,,
,,,,,,,,,,,,,,,8257,2022-01-26_11h28.21.827,multiplicationStroop,2021.2.3,Win32,61.0724319,,,,,,,,,,,,,,,,,,,,,,,,,,,,,,,,,18,2.0982,1,0,9,9,4,1,2,×,9,2 × 9,neutral,smallerFirst,1.5,1.5,18,,,,,,,,
,,,,,,,,,,,,,,,8257,2022-01-26_11h28.21.827,multiplicationStroop,2021.2.3,Win32,61.0724319,,,,,,,,,,,,,,,,,,,,,,,,,,,,,,,,,56,3.7472,0,0,10,10,26,1,9,×,7,9 × 7,neutral,largerFirst,1.5,1.5,63,,,,,,,,
,,,,,,,,,,,,,,,8257,2022-01-26_11h28.21.827,multiplicationStroop,2021.2.3,Win32,61.0724319,,,,,,,,,,,,,,,,,,,,,,,,,,,,,,,,,18,4.616,0,0,11,11,0,1,3,×,9,3 × 9,neutral,smallerFirst,1.5,1.5,27,,,,,,,,
,,,,,,,,,,,,,,,8257,2022-01-26_11h28.21.827,multiplicationStroop,2021.2.3,Win32,61.0724319,,,,,,,,,,,,,,,,,,,,,,,,,,,,,,,,,25,3.4665,1,0,12,12,31,1,5,×,5,5 × 5,neutral,tie,1.5,1.5,25,,,,,,,,
,,,,,,,,,,,,,,,8257,2022-01-26_11h28.21.827,multiplicationStroop,2021.2.3,Win32,61.0724319,,,,,,,,,,,,,,,,,,,,,,,,,,,,,,,,,24,2.9644,1,0,13,13,16,1,6,×,4,6 × 4,neutral,largerFirst,1.5,1.5,24,,,,,,,,
,,,,,,,,,,,,,,,8257,2022-01-26_11h28.21.827,multiplicationStroop,2021.2.3,Win32,61.0724319,,,,,,,,,,,,,,,,,,,,,,,,,,,,,,,,,10,1.5004,1,0,14,14,18,1,5,×,2,5 × 2,neutral,largerFirst,1.5,1.5,10,,,,,,,,
,,,,,,,,,,,,,,,8257,2022-01-26_11h28.21.827,multiplicationStroop,2021.2.3,Win32,61.0724319,,,,,,,,,,,,,,,,,,,,,,,,,,,,,,,,,21,1.765,1,0,15,15,22,1,7,×,3,7 × 3,neutral,largerFirst,1.5,1.5,21,,,,,,,,
,,,,,,,,,,,,,,,8257,2022-01-26_11h28.21.827,multiplicationStroop,2021.2.3,Win32,61.0724319,,,,,,,,,,,,,,,,,,,,,,,,,,,,,,,,,30,1.7654,1,0,16,16,5,1,5,×,6,5 × 6,neutral,smallerFirst,1.5,1.5,30,,,,,,,,
,,,,,,,,,,,,,,,8257,2022-01-26_11h28.21.827,multiplicationStroop,2021.2.3,Win32,61.0724319,,,,,,,,,,,,,,,,,,,,,,,,,,,,,,,,,42,1.965,1,0,17,17,20,1,7,×,6,7 × 6,neutral,largerFirst,1.5,1.5,42,,,,,,,,
,,,,,,,,,,,,,,,8257,2022-01-26_11h28.21.827,multiplicationStroop,2021.2.3,Win32,61.0724319,,,,,,,,,,,,,,,,,,,,,,,,,,,,,,,,,54,2.5147,1,0,18,18,21,1,9,×,6,9 × 6,neutral,largerFirst,1.5,1.5,54,,,,,,,,
,,,,,,,,,,,,,,,8257,2022-01-26_11h28.21.827,multiplicationStroop,2021.2.3,Win32,61.0724319,,,,,,,,,,,,,,,,,,,,,,,,,,,,,,,,,56,2.3836,1,0,19,19,23,1,8,×,7,8 × 7,neutral,largerFirst,1.5,1.5,56,,,,,,,,
,,,,,,,,,,,,,,,8257,2022-01-26_11h28.21.827,multiplicationStroop,2021.2.3,Win32,61.0724319,,,,,,,,,,,,,,,,,,,,,,,,,,,,,,,,,15,1.8653,1,0,20,20,19,1,5,×,3,5 × 3,neutral,largerFirst,1.5,1.5,15,,,,,,,,
,,,,,,,,,,,,,,,8257,2022-01-26_11h28.21.827,multiplicationStroop,2021.2.3,Win32,61.0724319,,,,,,,,,,,,,,,,,,,,,,,,,,,,,,,,,6,1.7316,1,0,21,21,12,1,2,×,3,2 × 3,neutral,smallerFirst,1.5,1.5,6,,,,,,,,
,,,,,,,,,,,,,,,8257,2022-01-26_11h28.21.827,multiplicationStroop,2021.2.3,Win32,61.0724319,,,,,,,,,,,,,,,,,,,,,,,,,,,,,,,,,12,3.0644,1,0,22,22,11,1,2,×,6,2 × 6,neutral,smallerFirst,1.5,1.5,12,,,,,,,,
,,,,,,,,,,,,,,,8257,2022-01-26_11h28.21.827,multiplicationStroop,2021.2.3,Win32,61.0724319,,,,,,,,,,,,,,,,,,,,,,,,,,,,,,,,,16,3.8141,1,0,23,23,30,1,4,×,4,4 × 4,neutral,tie,1.5,1.5,16,,,,,,,,
,,,,,,,,,,,,,,,8257,2022-01-26_11h28.21.827,multiplicationStroop,2021.2.3,Win32,61.0724319,,,,,,,,,,,,,,,,,,,,,,,,,,,,,,,,,45,1.9178,1,0,24,24,24,1,9,×,5,9 × 5,neutral,largerFirst,1.5,1.5,45,,,,,,,,
,,,,,,,,,,,,,,,8257,2022-01-26_11h28.21.827,multiplicationStroop,2021.2.3,Win32,61.0724319,,,,,,,,,,,,,,,,,,,,,,,,,,,,,,,,,72,9.3944,1,0,25,25,25,1,9,×,8,9 × 8,neutral,largerFirst,1.5,1.5,72,,,,,,,,
,,,,,,,,,,,,,,,8257,2022-01-26_11h28.21.827,multiplicationStroop,2021.2.3,Win32,61.0724319,,,,,,,,,,,,,,,,,,,,,,,,,,,,,,,,,4,1.35,1,0,26,26,28,1,2,×,2,2 × 2,neutral,tie,1.5,1.5,4,,,,,,,,
,,,,,,,,,,,,,,,8257,2022-01-26_11h28.21.827,multiplicationStroop,2021.2.3,Win32,61.0724319,,,,,,,,,,,,,,,,,,,,,,,,,,,,,,,,,40,1.7653,1,0,27,27,10,1,5,×,8,5 × 8,neutral,smallerFirst,1.5,1.5,40,,,,,,,,
,,,,,,,,,,,,,,,8257,2022-01-26_11h28.21.827,multiplicationStroop,2021.2.3,Win32,61.0724319,,,,,,,,,,,,,,,,,,,,,,,,,,,,,,,,,49,2.2653,1,0,28,28,33,1,7,×,7,7 × 7,neutral,tie,1.5,1.5,49,,,,,,,,
,,,,,,,,,,,,,,,8257,2022-01-26_11h28.21.827,multiplicationStroop,2021.2.3,Win32,61.0724319,,,,,,,,,,,,,,,,,,,,,,,,,,,,,,,,,32,1.9646,1,0,29,29,9,1,4,×,8,4 × 8,neutral,smallerFirst,1.5,1.5,32,,,,,,,,
,,,,,,,,,,,,,,,8257,2022-01-26_11h28.21.827,multiplicationStroop,2021.2.3,Win32,61.0724319,,,,,,,,,,,,,,,,,,,,,,,,,,,,,,,,,24,3.2645,1,0,30,30,8,1,3,×,8,3 × 8,neutral,smallerFirst,1.5,1.5,24,,,,,,,,
,,,,,,,,,,,,,,,8257,2022-01-26_11h28.21.827,multiplicationStroop,2021.2.3,Win32,61.0724319,,,,,,,,,,,,,,,,,,,,,,,,,,,,,,,,,64,2.5671,1,0,31,31,34,1,8,×,8,8 × 8,neutral,tie,1.5,1.5,64,,,,,,,,
,,,,,,,,,,,,,,,8257,2022-01-26_11h28.21.827,multiplicationStroop,2021.2.3,Win32,61.0724319,,,,,,,,,,,,,,,,,,,,,,,,,,,,,,,,,35,2.4816,1,0,32,32,15,1,7,×,5,7 × 5,neutral,largerFirst,1.5,1.5,35,,,,,,,,
,,,,,,,,,,,,,,,8257,2022-01-26_11h28.21.827,multiplicationStroop,2021.2.3,Win32,61.0724319,,,,,,,,,,,,,,,,,,,,,,,,,,,,,,,,,81,2.2321,1,0,33,33,35,1,9,×,9,9 × 9,neutral,tie,1.5,1.5,81,,,,,,,,
,,,,,,,,,,,,,,,8257,2022-01-26_11h28.21.827,multiplicationStroop,2021.2.3,Win32,61.0724319,,,,,,,,,,,,,,,,,,,,,,,,,,,,,,,,,48,2.3981,1,0,34,34,1,1,6,×,8,6 × 8,neutral,smallerFirst,1.5,1.5,48,,,,,,,,
,,,,,,,,,,,,,,,8257,2022-01-26_11h28.21.827,multiplicationStroop,2021.2.3,Win32,61.0724319,,,,,,,,,,,,,,,,,,,,,,,,,,,,,,,,,14,1.9673,1,0,35,35,2,1,2,×,7,2 × 7,neutral,smallerFirst,1.5,1.5,14,,,,,,,,
,,,,,,,,,,,,,,,8257,2022-01-26_11h28.21.827,multiplicationStroop,2021.2.3,Win32,61.0724319,,,,,,,,,,,,,,,,,,,,,,,,,,,,,,,,,,,,,,,,,,,,,,,,,,0,3,3,0,1,stimulusFile/mult_blk1.xlsx,,
,,,,,,,,,,,,,,,8257,2022-01-26_11h28.21.827,multiplicationStroop,2021.2.3,Win32,61.0724319,,,,,,,,,,,,,,,,,,,,,,,,,,,,,,,space,1.1148,16,1.5723,1,0,0,0,30,1,4,×,4,4 × 4,neutral,tie,1.5,1.5,16,,,,,,,,
,,,,,,,,,,,,,,,8257,2022-01-26_11h28.21.827,multiplicationStroop,2021.2.3,Win32,61.0724319,,,,,,,,,,,,,,,,,,,,,,,,,,,,,,,,,49,1.9479,1,0,1,1,33,1,7,×,7,7 × 7,neutral,tie,1.5,1.5,49,,,,,,,,
,,,,,,,,,,,,,,,8257,2022-01-26_11h28.21.827,multiplicationStroop,2021.2.3,Win32,61.0724319,,,,,,,,,,,,,,,,,,,,,,,,,,,,,,,,,32,2.1319,1,0,2,2,23,1,8,×,4,8 × 4,neutral,largerFirst,1.5,1.5,32,,,,,,,,
,,,,,,,,,,,,,,,8257,2022-01-26_11h28.21.827,multiplicationStroop,2021.2.3,Win32,61.0724319,,,,,,,,,,,,,,,,,,,,,,,,,,,,,,,,,72,5.3799,1,0,3,3,11,1,8,×,9,8 × 9,neutral,smallerFirst,1.5,1.5,72,,,,,,,,
,,,,,,,,,,,,,,,8257,2022-01-26_11h28.21.827,multiplicationStroop,2021.2.3,Win32,61.0724319,,,,,,,,,,,,,,,,,,,,,,,,,,,,,,,,,64,2.3,1,0,4,4,34,1,8,×,8,8 × 8,neutral,tie,1.5,1.5,64,,,,,,,,
,,,,,,,,,,,,,,,8257,2022-01-26_11h28.21.827,multiplicationStroop,2021.2.3,Win32,61.0724319,,,,,,,,,,,,,,,,,,,,,,,,,,,,,,,,,30,1.6656,1,0,5,5,19,1,6,×,5,6 × 5,neutral,largerFirst,1.5,1.5,30,,,,,,,,
,,,,,,,,,,,,,,,8257,2022-01-26_11h28.21.827,multiplicationStroop,2021.2.3,Win32,61.0724319,,,,,,,,,,,,,,,,,,,,,,,,,,,,,,,,,15,1.6818,1,0,6,6,5,1,3,×,5,3 × 5,neutral,smallerFirst,1.5,1.5,15,,,,,,,,
,,,,,,,,,,,,,,,8257,2022-01-26_11h28.21.827,multiplicationStroop,2021.2.3,Win32,61.0724319,,,,,,,,,,,,,,,,,,,,,,,,,,,,,,,,,45,2.1981,1,0,7,7,10,1,5,×,9,5 × 9,neutral,smallerFirst,1.5,1.5,45,,,,,,,,
,,,,,,,,,,,,,,,8257,2022-01-26_11h28.21.827,multiplicationStroop,2021.2.3,Win32,61.0724319,,,,,,,,,,,,,,,,,,,,,,,,,,,,,,,,,4,1.4989,1,0,8,8,28,1,2,×,2,2 × 2,neutral,tie,1.5,1.5,4,,,,,,,,
,,,,,,,,,,,,,,,8257,2022-01-26_11h28.21.827,multiplicationStroop,2021.2.3,Win32,61.0724319,,,,,,,,,,,,,,,,,,,,,,,,,,,,,,,,,42,1.8318,1,0,9,9,6,1,6,×,7,6 × 7,neutral,smallerFirst,1.5,1.5,42,,,,,,,,
,,,,,,,,,,,,,,,8257,2022-01-26_11h28.21.827,multiplicationStroop,2021.2.3,Win32,61.0724319,,,,,,,,,,,,,,,,,,,,,,,,,,,,,,,,,18,2.4814,0,0,10,10,25,1,6,×,2,6 × 2,neutral,largerFirst,1.5,1.5,12,,,,,,,,
,,,,,,,,,,,,,,,8257,2022-01-26_11h28.21.827,multiplicationStroop,2021.2.3,Win32,61.0724319,,,,,,,,,,,,,,,,,,,,,,,,,,,,,,,,,27,3.6664,1,0,11,11,14,1,9,×,3,9 × 3,neutral,largerFirst,1.5,1.5,27,,,,,,,,
,,,,,,,,,,,,,,,8257,2022-01-26_11h28.21.827,multiplicationStroop,2021.2.3,Win32,61.0724319,,,,,,,,,,,,,,,,,,,,,,,,,,,,,,,,,20,2.981,1,0,12,12,20,1,5,×,4,5 × 4,neutral,largerFirst,1.5,1.5,20,,,,,,,,
,,,,,,,,,,,,,,,8257,2022-01-26_11h28.21.827,multiplicationStroop,2021.2.3,Win32,61.0724319,,,,,,,,,,,,,,,,,,,,,,,,,,,,,,,,,21,1.9492,1,0,13,13,8,1,3,×,7,3 × 7,neutral,smallerFirst,1.5,1.5,21,,,,,,,,
,,,,,,,,,,,,,,,8257,2022-01-26_11h28.21.827,multiplicationStroop,2021.2.3,Win32,61.0724319,,,,,,,,,,,,,,,,,,,,,,,,,,,,,,,,,14,1.4653,1,0,14,14,16,1,7,×,2,7 × 2,neutral,largerFirst,1.5,1.5,14,,,,,,,,
,,,,,,,,,,,,,,,8257,2022-01-26_11h28.21.827,multiplicationStroop,2021.2.3,Win32,61.0724319,,,,,,,,,,,,,,,,,,,,,,,,,,,,,,,,,25,1.7151,1,0,15,15,31,1,5,×,5,5 × 5,neutral,tie,1.5,1.5,25,,,,,,,,
,,,,,,,,,,,,,,,8257,2022-01-26_11h28.21.827,multiplicationStroop,2021.2.3,Win32,61.0724319,,,,,,,,,,,,,,,,,,,,,,,,,,,,,,,,,36,3.8146,1,0,16,16,27,1,9,×,4,9 × 4,neutral,largerFirst,1.5,1.5,36,,,,,,,,
,,,,,,,,,,,,,,,8257,2022-01-26_11h28.21.827,multiplicationStroop,2021.2.3,Win32,61.0724319,,,,,,,,,,,,,,,,,,,,,,,,,,,,,,,,,6,1.5176,1,0,17,17,26,1,3,×,2,3 × 2,neutral,largerFirst,1.5,1.5,6,,,,,,,,
,,,,,,,,,,,,,,,8257,2022-01-26_11h28.21.827,multiplicationStroop,2021.2.3,Win32,61.0724319,,,,,,,,,,,,,,,,,,,,,,,,,,,,,,,,,9,1.8652,1,0,18,18,29,1,3,×,3,3 × 3,neutral,tie,1.5,1.5,9,,,,,,,,
,,,,,,,,,,,,,,,8257,2022-01-26_11h28.21.827,multiplicationStroop,2021.2.3,Win32,61.0724319,,,,,,,,,,,,,,,,,,,,,,,,,,,,,,,,,12,1.3487,1,0,19,19,21,1,4,×,3,4 × 3,neutral,largerFirst,1.5,1.5,12,,,,,,,,
,,,,,,,,,,,,,,,8257,2022-01-26_11h28.21.827,multiplicationStroop,2021.2.3,Win32,61.0724319,,,,,,,,,,,,,,,,,,,,,,,,,,,,,,,,,18,1.981,1,0,20,20,18,1,9,×,2,9 × 2,neutral,largerFirst,1.5,1.5,18,,,,,,,,
,,,,,,,,,,,,,,,8257,2022-01-26_11h28.21.827,multiplicationStroop,2021.2.3,Win32,61.0724319,,,,,,,,,,,,,,,,,,,,,,,,,,,,,,,,,24,1.8487,1,0,21,21,2,1,4,×,6,4 × 6,neutral,smallerFirst,1.5,1.5,24,,,,,,,,
,,,,,,,,,,,,,,,8257,2022-01-26_11h28.21.827,multiplicationStroop,2021.2.3,Win32,61.0724319,,,,,,,,,,,,,,,,,,,,,,,,,,,,,,,,,18,4.1638,1,0,22,22,0,1,3,×,6,3 × 6,neutral,smallerFirst,1.5,1.5,18,,,,,,,,
,,,,,,,,,,,,,,,8257,2022-01-26_11h28.21.827,multiplicationStroop,2021.2.3,Win32,61.0724319,,,,,,,,,,,,,,,,,,,,,,,,,,,,,,,,,35,3.8331,1,0,23,23,1,1,5,×,7,5 × 7,neutral,smallerFirst,1.5,1.5,35,,,,,,,,
,,,,,,,,,,,,,,,8257,2022-01-26_11h28.21.827,multiplicationStroop,2021.2.3,Win32,61.0724319,,,,,,,,,,,,,,,,,,,,,,,,,,,,,,,,,40,2.3669,1,0,24,24,24,1,8,×,5,8 × 5,neutral,largerFirst,1.5,1.5,40,,,,,,,,
,,,,,,,,,,,,,,,8257,2022-01-26_11h28.21.827,multiplicationStroop,2021.2.3,Win32,61.0724319,,,,,,,,,,,,,,,,,,,,,,,,,,,,,,,,,8,1.832,1,0,25,25,3,1,2,×,4,2 × 4,neutral,smallerFirst,1.5,1.5,8,,,,,,,,
,,,,,,,,,,,,,,,8257,2022-01-26_11h28.21.827,multiplicationStroop,2021.2.3,Win32,61.0724319,,,,,,,,,,,,,,,,,,,,,,,,,,,,,,,,,63,2.4977,1,0,26,26,12,1,7,×,9,7 × 9,neutral,smallerFirst,1.5,1.5,63,,,,,,,,
,,,,,,,,,,,,,,,8257,2022-01-26_11h28.21.827,multiplicationStroop,2021.2.3,Win32,61.0724319,,,,,,,,,,,,,,,,,,,,,,,,,,,,,,,,,448,2.1651,0,0,27,27,15,1,8,×,6,8 × 6,neutral,largerFirst,1.5,1.5,48,,,,,,,,
,,,,,,,,,,,,,,,8257,2022-01-26_11h28.21.827,multiplicationStroop,2021.2.3,Win32,61.0724319,,,,,,,,,,,,,,,,,,,,,,,,,,,,,,,,,36,4.0473,1,0,28,28,32,1,6,×,6,6 × 6,neutral,tie,1.5,1.5,36,,,,,,,,
,,,,,,,,,,,,,,,8257,2022-01-26_11h28.21.827,multiplicationStroop,2021.2.3,Win32,61.0724319,,,,,,,,,,,,,,,,,,,,,,,,,,,,,,,,,81,2.2503,1,0,29,29,35,1,9,×,9,9 × 9,neutral,tie,1.5,1.5,81,,,,,,,,
,,,,,,,,,,,,,,,8257,2022-01-26_11h28.21.827,multiplicationStroop,2021.2.3,Win32,61.0724319,,,,,,,,,,,,,,,,,,,,,,,,,,,,,,,,,10,2.615,1,0,30,30,4,1,2,×,5,2 × 5,neutral,smallerFirst,1.5,1.5,10,,,,,,,,
,,,,,,,,,,,,,,,8257,2022-01-26_11h28.21.827,multiplicationStroop,2021.2.3,Win32,61.0724319,,,,,,,,,,,,,,,,,,,,,,,,,,,,,,,,,56,9.3106,1,0,31,31,9,1,7,×,8,7 × 8,neutral,smallerFirst,1.5,1.5,56,,,,,,,,
,,,,,,,,,,,,,,,8257,2022-01-26_11h28.21.827,multiplicationStroop,2021.2.3,Win32,61.0724319,,,,,,,,,,,,,,,,,,,,,,,,,,,,,,,,,16,2.0164,1,0,32,32,13,1,2,×,8,2 × 8,neutral,smallerFirst,1.5,1.5,16,,,,,,,,
,,,,,,,,,,,,,,,8257,2022-01-26_11h28.21.827,multiplicationStroop,2021.2.3,Win32,61.0724319,,,,,,,,,,,,,,,,,,,,,,,,,,,,,,,,,28,4.647,1,0,33,33,17,1,7,×,4,7 × 4,neutral,largerFirst,1.5,1.5,28,,,,,,,,
,,,,,,,,,,,,,,,8257,2022-01-26_11h28.21.827,multiplicationStroop,2021.2.3,Win32,61.0724319,,,,,,,,,,,,,,,,,,,,,,,,,,,,,,,,,24,2.6161,1,0,34,34,22,1,8,×,3,8 × 3,neutral,largerFirst,1.5,1.5,24,,,,,,,,
,,,,,,,,,,,,,,,8257,2022-01-26_11h28.21.827,multiplicationStroop,2021.2.3,Win32,61.0724319,,,,,,,,,,,,,,,,,,,,,,,,,,,,,,,,,54,3.931,1,0,35,35,7,1,6,×,9,6 × 9,neutral,smallerFirst,1.5,1.5,54,,,,,,,,
,,,,,,,,,,,,,,,8257,2022-01-26_11h28.21.827,multiplicationStroop,2021.2.3,Win32,61.0724319,,,,,,,,,,,,,,,,,,,,,,,,,,,,,,,,,,,,,,,,,,,,,,,,,,0,4,4,1,1,stimulusFile/mult_blk2.xlsx,,
,,,,,,,,,,,,,,,8257,2022-01-26_11h28.21.827,multiplicationStroop,2021.2.3,Win32,61.0724319,,,,,,,,,,,,,,,,,,,,,,,,,,,,,,,space,0.9509,42,6.4533,1,0,0,0,17,1,7,×,6,7 × 6,incongruent,largerFirst,1,2,42,,,,,,,,
,,,,,,,,,,,,,,,8257,2022-01-26_11h28.21.827,multiplicationStroop,2021.2.3,Win32,61.0724319,,,,,,,,,,,,,,,,,,,,,,,,,,,,,,,,,49,2.4007,1,0,1,1,33,1,7,×,7,7 × 7,incongruent,tie,1,2,49,,,,,,,,
,,,,,,,,,,,,,,,8257,2022-01-26_11h28.21.827,multiplicationStroop,2021.2.3,Win32,61.0724319,,,,,,,,,,,,,,,,,,,,,,,,,,,,,,,,,54,4.597,1,0,2,2,6,1,6,×,9,6 × 9,incongruent,smallerFirst,2,1,54,,,,,,,,
,,,,,,,,,,,,,,,8257,2022-01-26_11h28.21.827,multiplicationStroop,2021.2.3,Win32,61.0724319,,,,,,,,,,,,,,,,,,,,,,,,,,,,,,,,,36,3.2997,1,0,3,3,15,1,9,×,4,9 × 4,incongruent,largerFirst,1,2,36,,,,,,,,
,,,,,,,,,,,,,,,8257,2022-01-26_11h28.21.827,multiplicationStroop,2021.2.3,Win32,61.0724319,,,,,,,,,,,,,,,,,,,,,,,,,,,,,,,,,21,3.2834,1,0,4,4,26,1,7,×,3,7 × 3,incongruent,largerFirst,1,2,21,,,,,,,,
,,,,,,,,,,,,,,,8257,2022-01-26_11h28.21.827,multiplicationStroop,2021.2.3,Win32,61.0724319,,,,,,,,,,,,,,,,,,,,,,,,,,,,,,,,,45,1.734,1,0,5,5,22,1,9,×,5,9 × 5,incongruent,largerFirst,1,2,45,,,,,,,,
,,,,,,,,,,,,,,,8257,2022-01-26_11h28.21.827,multiplicationStroop,2021.2.3,Win32,61.0724319,,,,,,,,,,,,,,,,,,,,,,,,,,,,,,,,,48,2.1149,1,0,6,6,1,1,6,×,8,6 × 8,incongruent,smallerFirst,2,1,48,,,,,,,,
,,,,,,,,,,,,,,,8257,2022-01-26_11h28.21.827,multiplicationStroop,2021.2.3,Win32,61.0724319,,,,,,,,,,,,,,,,,,,,,,,,,,,,,,,,,56,3.2169,1,0,7,7,14,1,8,×,7,8 × 7,incongruent,largerFirst,1,2,56,,,,,,,,
,,,,,,,,,,,,,,,8257,2022-01-26_11h28.21.827,multiplicationStroop,2021.2.3,Win32,61.0724319,,,,,,,,,,,,,,,,,,,,,,,,,,,,,,,,,64,2.8146,1,0,8,8,34,1,8,×,8,8 × 8,incongruent,tie,1,2,64,,,,,,,,
,,,,,,,,,,,,,,,8257,2022-01-26_11h28.21.827,multiplicationStroop,2021.2.3,Win32,61.0724319,,,,,,,,,,,,,,,,,,,,,,,,,,,,,,,,,6,1.5509,1,0,9,9,11,1,2,×,3,2 × 3,incongruent,smallerFirst,2,1,6,,,,,,,,
,,,,,,,,,,,,,,,8257,2022-01-26_11h28.21.827,multiplicationStroop,2021.2.3,Win32,61.0724319,,,,,,,,,,,,,,,,,,,,,,,,,,,,,,,,,32,2.3316,1,0,10,10,7,1,4,×,8,4 × 8,incongruent,smallerFirst,2,1,32,,,,,,,,
,,,,,,,,,,,,,,,8257,2022-01-26_11h28.21.827,multiplicationStroop,2021.2.3,Win32,61.0724319,,,,,,,,,,,,,,,,,,,,,,,,,,,,,,,,,63,3.6831,1,0,11,11,3,1,7,×,9,7 × 9,incongruent,smallerFirst,2,1,63,,,,,,,,
,,,,,,,,,,,,,,,8257,2022-01-26_11h28.21.827,multiplicationStroop,2021.2.3,Win32,61.0724319,,,,,,,,,,,,,,,,,,,,,,,,,,,,,,,,,72,5.2133,1,0,12,12,0,1,8,×,9,8 × 9,incongruent,smallerFirst,2,1,72,,,,,,,,
,,,,,,,,,,,,,,,8257,2022-01-26_11h28.21.827,multiplicationStroop,2021.2.3,Win32,61.0724319,,,,,,,,,,,,,,,,,,,,,,,,,,,,,,,,,9,1.6509,1,0,13,13,29,1,3,×,3,3 × 3,incongruent,tie,1,2,9,,,,,,,,
,,,,,,,,,,,,,,,8257,2022-01-26_11h28.21.827,multiplicationStroop,2021.2.3,Win32,61.0724319,,,,,,,,,,,,,,,,,,,,,,,,,,,,,,,,,35,2.6648,1,0,14,14,12,1,5,×,7,5 × 7,incongruent,smallerFirst,2,1,35,,,,,,,,
,,,,,,,,,,,,,,,8257,2022-01-26_11h28.21.827,multiplicationStroop,2021.2.3,Win32,61.0724319,,,,,,,,,,,,,,,,,,,,,,,,,,,,,,,,,16,1.6819,1,0,15,15,23,1,8,×,2,8 × 2,incongruent,largerFirst,1,2,16,,,,,,,,
,,,,,,,,,,,,,,,8257,2022-01-26_11h28.21.827,multiplicationStroop,2021.2.3,Win32,61.0724319,,,,,,,,,,,,,,,,,,,,,,,,,,,,,,,,,4,1.3655,1,0,16,16,28,1,2,×,2,2 × 2,incongruent,tie,1,2,4,,,,,,,,
,,,,,,,,,,,,,,,8257,2022-01-26_11h28.21.827,multiplicationStroop,2021.2.3,Win32,61.0724319,,,,,,,,,,,,,,,,,,,,,,,,,,,,,,,,,8,1.6819,1,0,17,17,24,1,4,×,2,4 × 2,incongruent,largerFirst,1,2,8,,,,,,,,
,,,,,,,,,,,,,,,8257,2022-01-26_11h28.21.827,multiplicationStroop,2021.2.3,Win32,61.0724319,,,,,,,,,,,,,,,,,,,,,,,,,,,,,,,,,24,2.8313,1,0,18,18,20,1,6,×,4,6 × 4,incongruent,largerFirst,1,2,24,,,,,,,,
,,,,,,,,,,,,,,,8257,2022-01-26_11h28.21.827,multiplicationStroop,2021.2.3,Win32,61.0724319,,,,,,,,,,,,,,,,,,,,,,,,,,,,,,,,,40,1.8673,1,0,19,19,13,1,5,×,8,5 × 8,incongruent,smallerFirst,2,1,40,,,,,,,,
,,,,,,,,,,,,,,,8257,2022-01-26_11h28.21.827,multiplicationStroop,2021.2.3,Win32,61.0724319,,,,,,,,,,,,,,,,,,,,,,,,,,,,,,,,,36,1.732,1,0,20,20,32,1,6,×,6,6 × 6,incongruent,tie,1,2,36,,,,,,,,
,,,,,,,,,,,,,,,8257,2022-01-26_11h28.21.827,multiplicationStroop,2021.2.3,Win32,61.0724319,,,,,,,,,,,,,,,,,,,,,,,,,,,,,,,,,12,1.4654,1,0,21,21,19,1,6,×,2,6 × 2,incongruent,largerFirst,1,2,12,,,,,,,,
,,,,,,,,,,,,,,,8257,2022-01-26_11h28.21.827,multiplicationStroop,2021.2.3,Win32,61.0724319,,,,,,,,,,,,,,,,,,,,,,,,,,,,,,,,,10,1.6319,1,0,22,22,21,1,5,×,2,5 × 2,incongruent,largerFirst,1,2,10,,,,,,,,
,,,,,,,,,,,,,,,8257,2022-01-26_11h28.21.827,multiplicationStroop,2021.2.3,Win32,61.0724319,,,,,,,,,,,,,,,,,,,,,,,,,,,,,,,,,16,1.5986,1,0,23,23,30,1,4,×,4,4 × 4,incongruent,tie,1,2,16,,,,,,,,
,,,,,,,,,,,,,,,8257,2022-01-26_11h28.21.827,multiplicationStroop,2021.2.3,Win32,61.0724319,,,,,,,,,,,,,,,,,,,,,,,,,,,,,,,,,28,3.1974,1,0,24,24,16,1,7,×,4,7 × 4,incongruent,largerFirst,1,2,28,,,,,,,,
,,,,,,,,,,,,,,,8257,2022-01-26_11h28.21.827,multiplicationStroop,2021.2.3,Win32,61.0724319,,,,,,,,,,,,,,,,,,,,,,,,,,,,,,,,,14,2.4007,1,0,25,25,4,1,2,×,7,2 × 7,incongruent,smallerFirst,2,1,14,,,,,,,,
,,,,,,,,,,,,,,,8257,2022-01-26_11h28.21.827,multiplicationStroop,2021.2.3,Win32,61.0724319,,,,,,,,,,,,,,,,,,,,,,,,,,,,,,,,,25,1.6489,1,0,26,26,31,1,5,×,5,5 × 5,incongruent,tie,1,2,25,,,,,,,,
,,,,,,,,,,,,,,,8257,2022-01-26_11h28.21.827,multiplicationStroop,2021.2.3,Win32,61.0724319,,,,,,,,,,,,,,,,,,,,,,,,,,,,,,,,,81,1.8652,1,0,27,27,35,1,9,×,9,9 × 9,incongruent,tie,1,2,81,,,,,,,,
,,,,,,,,,,,,,,,8257,2022-01-26_11h28.21.827,multiplicationStroop,2021.2.3,Win32,61.0724319,,,,,,,,,,,,,,,,,,,,,,,,,,,,,,,,,18,3.4474,1,0,28,28,2,1,2,×,9,2 × 9,incongruent,smallerFirst,2,1,18,,,,,,,,
,,,,,,,,,,,,,,,8257,2022-01-26_11h28.21.827,multiplicationStroop,2021.2.3,Win32,61.0724319,,,,,,,,,,,,,,,,,,,,,,,,,,,,,,,,,30,3.0646,1,0,29,29,25,1,6,×,5,6 × 5,incongruent,largerFirst,1,2,30,,,,,,,,
,,,,,,,,,,,,,,,8257,2022-01-26_11h28.21.827,multiplicationStroop,2021.2.3,Win32,61.0724319,,,,,,,,,,,,,,,,,,,,,,,,,,,,,,,,,18,2.6837,1,0,30,30,8,1,3,×,6,3 × 6,incongruent,smallerFirst,2,1,18,,,,,,,,
,,,,,,,,,,,,,,,8257,2022-01-26_11h28.21.827,multiplicationStroop,2021.2.3,Win32,61.0724319,,,,,,,,,,,,,,,,,,,,,,,,,,,,,,,,,24,1.6482,1,0,31,31,9,1,3,×,8,3 × 8,incongruent,smallerFirst,2,1,24,,,,,,,,
,,,,,,,,,,,,,,,8257,2022-01-26_11h28.21.827,multiplicationStroop,2021.2.3,Win32,61.0724319,,,,,,,,,,,,,,,,,,,,,,,,,,,,,,,,,12,2.5817,1,0,32,32,5,1,3,×,4,3 × 4,incongruent,smallerFirst,2,1,12,,,,,,,,
,,,,,,,,,,,,,,,8257,2022-01-26_11h28.21.827,multiplicationStroop,2021.2.3,Win32,61.0724319,,,,,,,,,,,,,,,,,,,,,,,,,,,,,,,,,20,1.9314,1,0,33,33,27,1,5,×,4,5 × 4,incongruent,largerFirst,1,2,20,,,,,,,,
,,,,,,,,,,,,,,,8257,2022-01-26_11h28.21.827,multiplicationStroop,2021.2.3,Win32,61.0724319,,,,,,,,,,,,,,,,,,,,,,,,,,,,,,,,,27,5.2137,1,0,34,34,18,1,9,×,3,9 × 3,incongruent,largerFirst,1,2,27,,,,,,,,
,,,,,,,,,,,,,,,8257,2022-01-26_11h28.21.827,multiplicationStroop,2021.2.3,Win32,61.0724319,,,,,,,,,,,,,,,,,,,,,,,,,,,,,,,,,15,3.1667,1,0,35,35,10,1,3,×,5,3 × 5,incongruent,smallerFirst,2,1,15,,,,,,,,
,,,,,,,,,,,,,,,8257,2022-01-26_11h28.21.827,multiplicationStroop,2021.2.3,Win32,61.0724319,,,,,,,,,,,,,,,,,,,,,,,,,,,,,,,,,,,,,,,,,,,,,,,,,,0,5,5,5,1,stimulusFile/mult_blk6_INcongruent.xlsx,,
,,,,,,,,,,,,,,,8257,2022-01-26_11h28.21.827,multiplicationStroop,2021.2.3,Win32,61.0724319,,,,,,,,,,,,,,,,,,,,,,,,,,,,,,,,,,,,,,,,,,,,,,,,,,,,,,,,space,5.553