welcomeKey_resp.keys,welcomeKey_resp.rt,X Scale,Y Scale,rt_resp_4.keys,rt_resp_4.corr,rt_resp_4.rt,speedtest_2.thisRepN,speedtest_2.thisTrialN,speedtest_2.thisN,speedtest_2.thisIndex,speedtest_2.ran,numberSc,posX,positionLayout,participant,date,expName,psychopyVersion,OS,frameRate,ct_instrresp.keys,ct_instrresp.rt,key_resp_2.keys,key_resp_2.rt,ct_keyResp.keys,ct_keyResp.corr,ct_keyResp.rt,trials.thisRepN,trials.thisTrialN,trials.thisN,trials.thisIndex,trials.ran,leftNo,rightNo,displayProblem,numDistance,leftNo_size,rightNo_size,Dims,keyAnswer,TS_Loop.thisRepN,TS_Loop.thisTrialN,TS_Loop.thisN,TS_Loop.thisIndex,TS_Loop.ran,Condition,ActionInst,instrImage,mltptaskInst_resp.keys,mltptaskInst_resp.rt,continue_resp_2.keys,continue_resp_2.rt,multp_Answer,multi_RT,multiplyCorr,LoopingMultiply.thisRepN,LoopingMultiply.thisTrialN,LoopingMultiply.thisN,LoopingMultiply.thisIndex,LoopingMultiply.ran,factor1,multiplySign,factor2,multliplyProblem,physicalSize,orderOperand,sizeF1,sizeF2,mult_answer,trials_stroop.thisRepN,trials_stroop.thisTrialN,trials_stroop.thisN,trials_stroop.thisIndex,trials_stroop.ran,multiplicationFile,esckey_resp_2.keys,esckey_resp_2.rt
y,12.207,43.7,39.9,left,1,0.8816,0,0,0,4,1,6,-200,left,825,2022-01-13_15h34.03.937,multiplicationStroop,2021.2.3,Win32,59.94125757,,,,,,,,,,,,,,,,,,,,,,,,,,,,,,,,,,,,,,,,,,,,,,,,,,,,,,,,,
,,,,left,1,0.5379,0,1,1,1,1,2,-200,left,825,2022-01-13_15h34.03.937,multiplicationStroop,2021.2.3,Win32,59.94125757,,,,,,,,,,,,,,,,,,,,,,,,,,,,,,,,,,,,,,,,,,,,,,,,,,,,,,,,,
,,,,right,1,0.4257,0,2,2,13,1,7,200,right,825,2022-01-13_15h34.03.937,multiplicationStroop,2021.2.3,Win32,59.94125757,,,,,,,,,,,,,,,,,,,,,,,,,,,,,,,,,,,,,,,,,,,,,,,,,,,,,,,,,
,,,,right,1,0.4683,0,3,3,10,1,3,200,right,825,2022-01-13_15h34.03.937,multiplicationStroop,2021.2.3,Win32,59.94125757,,,,,,,,,,,,,,,,,,,,,,,,,,,,,,,,,,,,,,,,,,,,,,,,,,,,,,,,,
,,,,left,1,0.3901,0,4,4,5,1,7,-200,left,825,2022-01-13_15h34.03.937,multiplicationStroop,2021.2.3,Win32,59.94125757,,,,,,,,,,,,,,,,,,,,,,,,,,,,,,,,,,,,,,,,,,,,,,,,,,,,,,,,,
,,,,right,1,0.3349,0,5,5,14,1,8,200,right,825,2022-01-13_15h34.03.937,multiplicationStroop,2021.2.3,Win32,59.94125757,,,,,,,,,,,,,,,,,,,,,,,,,,,,,,,,,,,,,,,,,,,,,,,,,,,,,,,,,
,,,,right,1,0.403,0,6,6,9,1,2,200,right,825,2022-01-13_15h34.03.937,multiplicationStroop,2021.2.3,Win32,59.94125757,,,,,,,,,,,,,,,,,,,,,,,,,,,,,,,,,,,,,,,,,,,,,,,,,,,,,,,,,
,,,,right,1,0.4018,0,7,7,11,1,4,200,right,825,2022-01-13_15h34.03.937,multiplicationStroop,2021.2.3,Win32,59.94125757,,,,,,,,,,,,,,,,,,,,,,,,,,,,,,,,,,,,,,,,,,,,,,,,,,,,,,,,,
,,,,left,1,0.4514,0,8,8,7,1,9,-200,left,825,2022-01-13_15h34.03.937,multiplicationStroop,2021.2.3,Win32,59.94125757,,,,,,,,,,,,,,,,,,,,,,,,,,,,,,,,,,,,,,,,,,,,,,,,,,,,,,,,,
,,,,left,1,0.4189,0,9,9,3,1,4,-200,left,825,2022-01-13_15h34.03.937,multiplicationStroop,2021.2.3,Win32,59.94125757,,,,,,,,,,,,,,,,,,,,,,,,,,,,,,,,,,,,,,,,,,,,,,,,,,,,,,,,,
,,,,left,1,0.3874,0,10,10,0,1,1,-200,left,825,2022-01-13_15h34.03.937,multiplicationStroop,2021.2.3,Win32,59.94125757,,,,,,,,,,,,,,,,,,,,,,,,,,,,,,,,,,,,,,,,,,,,,,,,,,,,,,,,,
,,,,right,1,0.2948,0,11,11,12,1,6,200,right,825,2022-01-13_15h34.03.937,multiplicationStroop,2021.2.3,Win32,59.94125757,,,,,,,,,,,,,,,,,,,,,,,,,,,,,,,,,,,,,,,,,,,,,,,,,,,,,,,,,
,,,,left,1,0.3849,0,12,12,2,1,3,-200,left,825,2022-01-13_15h34.03.937,multiplicationStroop,2021.2.3,Win32,59.94125757,,,,,,,,,,,,,,,,,,,,,,,,,,,,,,,,,,,,,,,,,,,,,,,,,,,,,,,,,
,,,,left,1,0.4355,0,13,13,6,1,8,-200,left,825,2022-01-13_15h34.03.937,multiplicationStroop,2021.2.3,Win32,59.94125757,,,,,,,,,,,,,,,,,,,,,,,,,,,,,,,,,,,,,,,,,,,,,,,,,,,,,,,,,
,,,,right,1,0.4116,0,14,14,8,1,1,200,right,825,2022-01-13_15h34.03.937,multiplicationStroop,2021.2.3,Win32,59.94125757,,,,,,,,,,,,,,,,,,,,,,,,,,,,,,,,,,,,,,,,,,,,,,,,,,,,,,,,,
,,,,right,1,0.4059,0,15,15,15,1,9,200,right,825,2022-01-13_15h34.03.937,multiplicationStroop,2021.2.3,Win32,59.94125757,,,,,,,,,,,,,,,,,,,,,,,,,,,,,,,,,,,,,,,,,,,,,,,,,,,,,,,,,
,,,,right,1,0.3684,1,0,16,13,1,7,200,right,825,2022-01-13_15h34.03.937,multiplicationStroop,2021.2.3,Win32,59.94125757,,,,,,,,,,,,,,,,,,,,,,,,,,,,,,,,,,,,,,,,,,,,,,,,,,,,,,,,,
,,,,right,1,0.3743,1,1,17,14,1,8,200,right,825,2022-01-13_15h34.03.937,multiplicationStroop,2021.2.3,Win32,59.94125757,,,,,,,,,,,,,,,,,,,,,,,,,,,,,,,,,,,,,,,,,,,,,,,,,,,,,,,,,
,,,,left,1,0.3518,1,2,18,0,1,1,-200,left,825,2022-01-13_15h34.03.937,multiplicationStroop,2021.2.3,Win32,59.94125757,,,,,,,,,,,,,,,,,,,,,,,,,,,,,,,,,,,,,,,,,,,,,,,,,,,,,,,,,
,,,,left,1,0.4395,1,3,19,4,1,6,-200,left,825,2022-01-13_15h34.03.937,multiplicationStroop,2021.2.3,Win32,59.94125757,,,,,,,,,,,,,,,,,,,,,,,,,,,,,,,,,,,,,,,,,,,,,,,,,,,,,,,,,
,,,,right,1,0.4378,1,4,20,9,1,2,200,right,825,2022-01-13_15h34.03.937,multiplicationStroop,2021.2.3,Win32,59.94125757,,,,,,,,,,,,,,,,,,,,,,,,,,,,,,,,,,,,,,,,,,,,,,,,,,,,,,,,,
,,,,right,1,0.3385,1,5,21,15,1,9,200,right,825,2022-01-13_15h34.03.937,multiplicationStroop,2021.2.3,Win32,59.94125757,,,,,,,,,,,,,,,,,,,,,,,,,,,,,,,,,,,,,,,,,,,,,,,,,,,,,,,,,
,,,,right,1,0.3224,1,6,22,11,1,4,200,right,825,2022-01-13_15h34.03.937,multiplicationStroop,2021.2.3,Win32,59.94125757,,,,,,,,,,,,,,,,,,,,,,,,,,,,,,,,,,,,,,,,,,,,,,,,,,,,,,,,,
,,,,left,1,0.3838,1,7,23,5,1,7,-200,left,825,2022-01-13_15h34.03.937,multiplicationStroop,2021.2.3,Win32,59.94125757,,,,,,,,,,,,,,,,,,,,,,,,,,,,,,,,,,,,,,,,,,,,,,,,,,,,,,,,,
,,,,right,1,0.2933,1,8,24,12,1,6,200,right,825,2022-01-13_15h34.03.937,multiplicationStroop,2021.2.3,Win32,59.94125757,,,,,,,,,,,,,,,,,,,,,,,,,,,,,,,,,,,,,,,,,,,,,,,,,,,,,,,,,
,,,,right,1,0.3349,1,9,25,10,1,3,200,right,825,2022-01-13_15h34.03.937,multiplicationStroop,2021.2.3,Win32,59.94125757,,,,,,,,,,,,,,,,,,,,,,,,,,,,,,,,,,,,,,,,,,,,,,,,,,,,,,,,,
,,,,left,1,0.3592,1,10,26,6,1,8,-200,left,825,2022-01-13_15h34.03.937,multiplicationStroop,2021.2.3,Win32,59.94125757,,,,,,,,,,,,,,,,,,,,,,,,,,,,,,,,,,,,,,,,,,,,,,,,,,,,,,,,,
,,,,left,1,0.3687,1,11,27,1,1,2,-200,left,825,2022-01-13_15h34.03.937,multiplicationStroop,2021.2.3,Win32,59.94125757,,,,,,,,,,,,,,,,,,,,,,,,,,,,,,,,,,,,,,,,,,,,,,,,,,,,,,,,,
,,,,left,1,0.3555,1,12,28,7,1,9,-200,left,825,2022-01-13_15h34.03.937,multiplicationStroop,2021.2.3,Win32,59.94125757,,,,,,,,,,,,,,,,,,,,,,,,,,,,,,,,,,,,,,,,,,,,,,,,,,,,,,,,,
,,,,left,1,0.3346,1,13,29,3,1,4,-200,left,825,2022-01-13_15h34.03.937,multiplicationStroop,2021.2.3,Win32,59.94125757,,,,,,,,,,,,,,,,,,,,,,,,,,,,,,,,,,,,,,,,,,,,,,,,,,,,,,,,,
,,,,left,1,0.3521,1,14,30,2,1,3,-200,left,825,2022-01-13_15h34.03.937,multiplicationStroop,2021.2.3,Win32,59.94125757,,,,,,,,,,,,,,,,,,,,,,,,,,,,,,,,,,,,,,,,,,,,,,,,,,,,,,,,,
,,,,right,1,0.3684,1,15,31,8,1,1,200,right,825,2022-01-13_15h34.03.937,multiplicationStroop,2021.2.3,Win32,59.94125757,,,,,,,,,,,,,,,,,,,,,,,,,,,,,,,,,,,,,,,,,,,,,,,,,,,,,,,,,
,,,,right,1,0.3545,2,0,32,15,1,9,200,right,825,2022-01-13_15h34.03.937,multiplicationStroop,2021.2.3,Win32,59.94125757,,,,,,,,,,,,,,,,,,,,,,,,,,,,,,,,,,,,,,,,,,,,,,,,,,,,,,,,,
,,,,left,1,0.4427,2,1,33,0,1,1,-200,left,825,2022-01-13_15h34.03.937,multiplicationStroop,2021.2.3,Win32,59.94125757,,,,,,,,,,,,,,,,,,,,,,,,,,,,,,,,,,,,,,,,,,,,,,,,,,,,,,,,,
,,,,right,1,0.4021,2,2,34,8,1,1,200,right,825,2022-01-13_15h34.03.937,multiplicationStroop,2021.2.3,Win32,59.94125757,,,,,,,,,,,,,,,,,,,,,,,,,,,,,,,,,,,,,,,,,,,,,,,,,,,,,,,,,
,,,,right,1,0.3356,2,3,35,11,1,4,200,right,825,2022-01-13_15h34.03.937,multiplicationStroop,2021.2.3,Win32,59.94125757,,,,,,,,,,,,,,,,,,,,,,,,,,,,,,,,,,,,,,,,,,,,,,,,,,,,,,,,,
,,,,left,1,0.4189,2,4,36,4,1,6,-200,left,825,2022-01-13_15h34.03.937,multiplicationStroop,2021.2.3,Win32,59.94125757,,,,,,,,,,,,,,,,,,,,,,,,,,,,,,,,,,,,,,,,,,,,,,,,,,,,,,,,,
,,,,left,1,0.4883,2,5,37,5,1,7,-200,left,825,2022-01-13_15h34.03.937,multiplicationStroop,2021.2.3,Win32,59.94125757,,,,,,,,,,,,,,,,,,,,,,,,,,,,,,,,,,,,,,,,,,,,,,,,,,,,,,,,,
,,,,left,1,0.3351,2,6,38,7,1,9,-200,left,825,2022-01-13_15h34.03.937,multiplicationStroop,2021.2.3,Win32,59.94125757,,,,,,,,,,,,,,,,,,,,,,,,,,,,,,,,,,,,,,,,,,,,,,,,,,,,,,,,,
,,,,left,1,0.3209,2,7,39,2,1,3,-200,left,825,2022-01-13_15h34.03.937,multiplicationStroop,2021.2.3,Win32,59.94125757,,,,,,,,,,,,,,,,,,,,,,,,,,,,,,,,,,,,,,,,,,,,,,,,,,,,,,,,,
,,,,left,1,0.3233,2,8,40,3,1,4,-200,left,825,2022-01-13_15h34.03.937,multiplicationStroop,2021.2.3,Win32,59.94125757,,,,,,,,,,,,,,,,,,,,,,,,,,,,,,,,,,,,,,,,,,,,,,,,,,,,,,,,,
,,,,left,1,0.3194,2,9,41,6,1,8,-200,left,825,2022-01-13_15h34.03.937,multiplicationStroop,2021.2.3,Win32,59.94125757,,,,,,,,,,,,,,,,,,,,,,,,,,,,,,,,,,,,,,,,,,,,,,,,,,,,,,,,,
,,,,left,1,0.3451,2,10,42,1,1,2,-200,left,825,2022-01-13_15h34.03.937,multiplicationStroop,2021.2.3,Win32,59.94125757,,,,,,,,,,,,,,,,,,,,,,,,,,,,,,,,,,,,,,,,,,,,,,,,,,,,,,,,,
,,,,right,1,0.4178,2,11,43,10,1,3,200,right,825,2022-01-13_15h34.03.937,multiplicationStroop,2021.2.3,Win32,59.94125757,,,,,,,,,,,,,,,,,,,,,,,,,,,,,,,,,,,,,,,,,,,,,,,,,,,,,,,,,
,,,,right,1,0.3355,2,12,44,12,1,6,200,right,825,2022-01-13_15h34.03.937,multiplicationStroop,2021.2.3,Win32,59.94125757,,,,,,,,,,,,,,,,,,,,,,,,,,,,,,,,,,,,,,,,,,,,,,,,,,,,,,,,,
,,,,right,1,0.2919,2,13,45,9,1,2,200,right,825,2022-01-13_15h34.03.937,multiplicationStroop,2021.2.3,Win32,59.94125757,,,,,,,,,,,,,,,,,,,,,,,,,,,,,,,,,,,,,,,,,,,,,,,,,,,,,,,,,
,,,,right,1,0.3718,2,14,46,13,1,7,200,right,825,2022-01-13_15h34.03.937,multiplicationStroop,2021.2.3,Win32,59.94125757,,,,,,,,,,,,,,,,,,,,,,,,,,,,,,,,,,,,,,,,,,,,,,,,,,,,,,,,,
,,,,right,1,0.3098,2,15,47,14,1,8,200,right,825,2022-01-13_15h34.03.937,multiplicationStroop,2021.2.3,Win32,59.94125757,,,,,,,,,,,,,,,,,,,,,,,,,,,,,,,,,,,,,,,,,,,,,,,,,,,,,,,,,
,,,,right,1,0.3209,3,0,48,15,1,9,200,right,825,2022-01-13_15h34.03.937,multiplicationStroop,2021.2.3,Win32,59.94125757,,,,,,,,,,,,,,,,,,,,,,,,,,,,,,,,,,,,,,,,,,,,,,,,,,,,,,,,,
,,,,left,1,0.4391,3,1,49,4,1,6,-200,left,825,2022-01-13_15h34.03.937,multiplicationStroop,2021.2.3,Win32,59.94125757,,,,,,,,,,,,,,,,,,,,,,,,,,,,,,,,,,,,,,,,,,,,,,,,,,,,,,,,,
,,,,left,1,0.3522,3,2,50,7,1,9,-200,left,825,2022-01-13_15h34.03.937,multiplicationStroop,2021.2.3,Win32,59.94125757,,,,,,,,,,,,,,,,,,,,,,,,,,,,,,,,,,,,,,,,,,,,,,,,,,,,,,,,,
,,,,right,1,0.4353,3,3,51,10,1,3,200,right,825,2022-01-13_15h34.03.937,multiplicationStroop,2021.2.3,Win32,59.94125757,,,,,,,,,,,,,,,,,,,,,,,,,,,,,,,,,,,,,,,,,,,,,,,,,,,,,,,,,
,,,,left,1,0.3529,3,4,52,2,1,3,-200,left,825,2022-01-13_15h34.03.937,multiplicationStroop,2021.2.3,Win32,59.94125757,,,,,,,,,,,,,,,,,,,,,,,,,,,,,,,,,,,,,,,,,,,,,,,,,,,,,,,,,
,,,,right,1,0.3505,3,5,53,13,1,7,200,right,825,2022-01-13_15h34.03.937,multiplicationStroop,2021.2.3,Win32,59.94125757,,,,,,,,,,,,,,,,,,,,,,,,,,,,,,,,,,,,,,,,,,,,,,,,,,,,,,,,,
,,,,right,1,0.3587,3,6,54,11,1,4,200,right,825,2022-01-13_15h34.03.937,multiplicationStroop,2021.2.3,Win32,59.94125757,,,,,,,,,,,,,,,,,,,,,,,,,,,,,,,,,,,,,,,,,,,,,,,,,,,,,,,,,
,,,,right,1,0.3005,3,7,55,9,1,2,200,right,825,2022-01-13_15h34.03.937,multiplicationStroop,2021.2.3,Win32,59.94125757,,,,,,,,,,,,,,,,,,,,,,,,,,,,,,,,,,,,,,,,,,,,,,,,,,,,,,,,,
,,,,right,0,0.31,3,8,56,5,1,7,-200,left,825,2022-01-13_15h34.03.937,multiplicationStroop,2021.2.3,Win32,59.94125757,,,,,,,,,,,,,,,,,,,,,,,,,,,,,,,,,,,,,,,,,,,,,,,,,,,,,,,,,
,,,,right,1,1.0688,3,9,57,8,1,1,200,right,825,2022-01-13_15h34.03.937,multiplicationStroop,2021.2.3,Win32,59.94125757,,,,,,,,,,,,,,,,,,,,,,,,,,,,,,,,,,,,,,,,,,,,,,,,,,,,,,,,,
,,,,right,1,0.4016,3,10,58,12,1,6,200,right,825,2022-01-13_15h34.03.937,multiplicationStroop,2021.2.3,Win32,59.94125757,,,,,,,,,,,,,,,,,,,,,,,,,,,,,,,,,,,,,,,,,,,,,,,,,,,,,,,,,
,,,,left,1,0.4353,3,11,59,6,1,8,-200,left,825,2022-01-13_15h34.03.937,multiplicationStroop,2021.2.3,Win32,59.94125757,,,,,,,,,,,,,,,,,,,,,,,,,,,,,,,,,,,,,,,,,,,,,,,,,,,,,,,,,
,,,,left,1,0.3855,3,12,60,0,1,1,-200,left,825,2022-01-13_15h34.03.937,multiplicationStroop,2021.2.3,Win32,59.94125757,,,,,,,,,,,,,,,,,,,,,,,,,,,,,,,,,,,,,,,,,,,,,,,,,,,,,,,,,
,,,,right,1,0.4538,3,13,61,14,1,8,200,right,825,2022-01-13_15h34.03.937,multiplicationStroop,2021.2.3,Win32,59.94125757,,,,,,,,,,,,,,,,,,,,,,,,,,,,,,,,,,,,,,,,,,,,,,,,,,,,,,,,,
,,,,left,1,0.4923,3,14,62,1,1,2,-200,left,825,2022-01-13_15h34.03.937,multiplicationStroop,2021.2.3,Win32,59.94125757,,,,,,,,,,,,,,,,,,,,,,,,,,,,,,,,,,,,,,,,,,,,,,,,,,,,,,,,,
,,,,left,1,0.3921,3,15,63,3,1,4,-200,left,825,2022-01-13_15h34.03.937,multiplicationStroop,2021.2.3,Win32,59.94125757,,,,,,,,,,,,,,,,,,,,,,,,,,,,,,,,,,,,,,,,,,,,,,,,,,,,,,,,,
,,,,,,,,,,,,,,,825,2022-01-13_15h34.03.937,multiplicationStroop,2021.2.3,Win32,59.94125757,space,14.1693,space,5.1658,right,1,1.4352,0,0,0,47,1,9,4,9 | 4,5,1.4111,1.9756,incongruent,right,,,,,,stimulusFile/physical.xlsx,,,,,,,,,,,,,,,,,,,,,,,,,,,,,,,
,,,,,,,,,,,,,,,825,2022-01-13_15h34.03.937,multiplicationStroop,2021.2.3,Win32,59.94125757,,,,,right,1,1.0095,0,1,1,29,1,4,3,4 | 3,1,1.4111,1.9756,incongruent,right,,,,,,stimulusFile/physical.xlsx,,,,,,,,,,,,,,,,,,,,,,,,,,,,,,,
,,,,,,,,,,,,,,,825,2022-01-13_15h34.03.937,multiplicationStroop,2021.2.3,Win32,59.94125757,,,,,left,1,0.6232,0,2,2,4,1,2,1,2 | 1,1,1.9756,1.4111,congruent,left,,,,,,stimulusFile/physical.xlsx,,,,,,,,,,,,,,,,,,,,,,,,,,,,,,,
,,,,,,,,,,,,,,,825,2022-01-13_15h34.03.937,multiplicationStroop,2021.2.3,Win32,59.94125757,,,,,left,1,0.6184,0,3,3,49,1,3,3,3 | 3,0,1.9756,1.4111,neutral,left,,,,,,stimulusFile/physical.xlsx,,,,,,,,,,,,,,,,,,,,,,,,,,,,,,,
,,,,,,,,,,,,,,,825,2022-01-13_15h34.03.937,multiplicationStroop,2021.2.3,Win32,59.94125757,,,,,right,1,0.5522,0,4,4,60,1,3,3,3 | 3,0,1.4111,1.9756,neutral,right,,,,,,stimulusFile/physical.xlsx,,,,,,,,,,,,,,,,,,,,,,,,,,,,,,,
,,,,,,,,,,,,,,,825,2022-01-13_15h34.03.937,multiplicationStroop,2021.2.3,Win32,59.94125757,,,,,left,1,0.5181,0,5,5,70,1,8,8,8 | 8,0,1.9756,1.4111,neutral,left,,,,,,stimulusFile/physical.xlsx,,,,,,,,,,,,,,,,,,,,,,,,,,,,,,,
,,,,,,,,,,,,,,,825,2022-01-13_15h34.03.937,multiplicationStroop,2021.2.3,Win32,59.94125757,,,,,left,1,0.5188,0,6,6,52,1,2,2,2 | 2,0,1.9756,1.4111,neutral,left,,,,,,stimulusFile/physical.xlsx,,,,,,,,,,,,,,,,,,,,,,,,,,,,,,,
,,,,,,,,,,,,,,,825,2022-01-13_15h34.03.937,multiplicationStroop,2021.2.3,Win32,59.94125757,,,,,right,0,0.4669,0,7,7,69,1,7,7,7 | 7,0,1.4111,1.9756,neutral,left,,,,,,stimulusFile/physical.xlsx,,,,,,,,,,,,,,,,,,,,,,,,,,,,,,,
,,,,,,,,,,,,,,,825,2022-01-13_15h34.03.937,multiplicationStroop,2021.2.3,Win32,59.94125757,,,,,right,1,0.5167,0,8,8,39,1,9,7,9 | 7,2,1.4111,1.9756,incongruent,right,,,,,,stimulusFile/physical.xlsx,,,,,,,,,,,,,,,,,,,,,,,,,,,,,,,
,,,,,,,,,,,,,,,825,2022-01-13_15h34.03.937,multiplicationStroop,2021.2.3,Win32,59.94125757,,,,,left,1,0.5851,0,9,9,23,1,9,4,9 | 4,5,1.9756,1.4111,congruent,left,,,,,,stimulusFile/physical.xlsx,,,,,,,,,,,,,,,,,,,,,,,,,,,,,,,
,,,,,,,,,,,,,,,825,2022-01-13_15h34.03.937,multiplicationStroop,2021.2.3,Win32,59.94125757,,,,,left,1,0.7421,0,10,10,40,1,1,6,1 | 6,5,1.9756,1.4111,incongruent,left,,,,,,stimulusFile/physical.xlsx,,,,,,,,,,,,,,,,,,,,,,,,,,,,,,,
,,,,,,,,,,,,,,,825,2022-01-13_15h34.03.937,multiplicationStroop,2021.2.3,Win32,59.94125757,,,,,right,1,0.5375,0,11,11,61,1,4,4,4 | 4,0,1.4111,1.9756,neutral,right,,,,,,stimulusFile/physical.xlsx,,,,,,,,,,,,,,,,,,,,,,,,,,,,,,,
,,,,,,,,,,,,,,,825,2022-01-13_15h34.03.937,multiplicationStroop,2021.2.3,Win32,59.94125757,,,,,right,1,0.5071,0,12,12,57,1,2,2,2 | 2,0,1.4111,1.9756,neutral,right,,,,,,stimulusFile/physical.xlsx,,,,,,,,,,,,,,,,,,,,,,,,,,,,,,,
,,,,,,,,,,,,,,,825,2022-01-13_15h34.03.937,multiplicationStroop,2021.2.3,Win32,59.94125757,,,,,left,1,0.4871,0,13,13,6,1,7,6,7 | 6,1,1.9756,1.4111,congruent,left,,,,,,stimulusFile/physical.xlsx,,,,,,,,,,,,,,,,,,,,,,,,,,,,,,,
,,,,,,,,,,,,,,,825,2022-01-13_15h34.03.937,multiplicationStroop,2021.2.3,Win32,59.94125757,,,,,right,1,0.5246,0,14,14,19,1,4,9,4 | 9,5,1.4111,1.9756,congruent,right,,,,,,stimulusFile/physical.xlsx,,,,,,,,,,,,,,,,,,,,,,,,,,,,,,,
,,,,,,,,,,,,,,,825,2022-01-13_15h34.03.937,multiplicationStroop,2021.2.3,Win32,59.94125757,,,,,right,1,0.5448,0,15,15,67,1,4,4,4 | 4,0,1.4111,1.9756,neutral,right,,,,,,stimulusFile/physical.xlsx,,,,,,,,,,,,,,,,,,,,,,,,,,,,,,,
,,,,,,,,,,,,,,,825,2022-01-13_15h34.03.937,multiplicationStroop,2021.2.3,Win32,59.94125757,,,,,right,1,0.8246,0,16,16,45,1,7,2,7 | 2,5,1.4111,1.9756,incongruent,right,,,,,,stimulusFile/physical.xlsx,,,,,,,,,,,,,,,,,,,,,,,,,,,,,,,
,,,,,,,,,,,,,,,825,2022-01-13_15h34.03.937,multiplicationStroop,2021.2.3,Win32,59.94125757,,,,,right,1,0.4899,0,17,17,0,1,1,2,1 | 2,1,1.4111,1.9756,congruent,right,,,,,,stimulusFile/physical.xlsx,,,,,,,,,,,,,,,,,,,,,,,,,,,,,,,
,,,,,,,,,,,,,,,825,2022-01-13_15h34.03.937,multiplicationStroop,2021.2.3,Win32,59.94125757,,,,,right,1,0.5682,0,18,18,2,1,6,7,6 | 7,1,1.4111,1.9756,congruent,right,,,,,,stimulusFile/physical.xlsx,,,,,,,,,,,,,,,,,,,,,,,,,,,,,,,
,,,,,,,,,,,,,,,825,2022-01-13_15h34.03.937,multiplicationStroop,2021.2.3,Win32,59.94125757,,,,,right,1,0.7204,0,19,19,65,1,2,2,2 | 2,0,1.4111,1.9756,neutral,right,,,,,,stimulusFile/physical.xlsx,,,,,,,,,,,,,,,,,,,,,,,,,,,,,,,
,,,,,,,,,,,,,,,825,2022-01-13_15h34.03.937,multiplicationStroop,2021.2.3,Win32,59.94125757,,,,,left,1,0.6181,0,20,20,24,1,1,2,1 | 2,1,1.9756,1.4111,incongruent,left,,,,,,stimulusFile/physical.xlsx,,,,,,,,,,,,,,,,,,,,,,,,,,,,,,,
,,,,,,,,,,,,,,,825,2022-01-13_15h34.03.937,multiplicationStroop,2021.2.3,Win32,59.94125757,,,,,left,0,0.5842,0,21,21,66,1,3,3,3 | 3,0,1.9756,1.4111,neutral,right,,,,,,stimulusFile/physical.xlsx,,,,,,,,,,,,,,,,,,,,,,,,,,,,,,,
,,,,,,,,,,,,,,,825,2022-01-13_15h34.03.937,multiplicationStroop,2021.2.3,Win32,59.94125757,,,,,right,1,0.6197,0,22,22,10,1,6,8,6 | 8,2,1.4111,1.9756,congruent,right,,,,,,stimulusFile/physical.xlsx,,,,,,,,,,,,,,,,,,,,,,,,,,,,,,,
,,,,,,,,,,,,,,,825,2022-01-13_15h34.03.937,multiplicationStroop,2021.2.3,Win32,59.94125757,,,,,left,1,0.534,0,23,23,20,1,6,1,6 | 1,5,1.9756,1.4111,congruent,left,,,,,,stimulusFile/physical.xlsx,,,,,,,,,,,,,,,,,,,,,,,,,,,,,,,
,,,,,,,,,,,,,,,825,2022-01-13_15h34.03.937,multiplicationStroop,2021.2.3,Win32,59.94125757,,,,,right,1,0.6358,0,24,24,31,1,9,8,9 | 8,1,1.4111,1.9756,incongruent,right,,,,,,stimulusFile/physical.xlsx,,,,,,,,,,,,,,,,,,,,,,,,,,,,,,,
,,,,,,,,,,,,,,,825,2022-01-13_15h34.03.937,multiplicationStroop,2021.2.3,Win32,59.94125757,,,,,right,1,0.5894,0,25,25,1,1,3,4,3 | 4,1,1.4111,1.9756,congruent,right,,,,,,stimulusFile/physical.xlsx,,,,,,,,,,,,,,,,,,,,,,,,,,,,,,,
,,,,,,,,,,,,,,,825,2022-01-13_15h34.03.937,multiplicationStroop,2021.2.3,Win32,59.94125757,,,,,left,1,0.4893,0,26,26,5,1,4,3,4 | 3,1,1.9756,1.4111,congruent,left,,,,,,stimulusFile/physical.xlsx,,,,,,,,,,,,,,,,,,,,,,,,,,,,,,,
,,,,,,,,,,,,,,,825,2022-01-13_15h34.03.937,multiplicationStroop,2021.2.3,Win32,59.94125757,,,,,right,1,0.4864,0,27,27,16,1,1,6,1 | 6,5,1.4111,1.9756,congruent,right,,,,,,stimulusFile/physical.xlsx,,,,,,,,,,,,,,,,,,,,,,,,,,,,,,,
,,,,,,,,,,,,,,,825,2022-01-13_15h34.03.937,multiplicationStroop,2021.2.3,Win32,59.94125757,,,,,left,1,0.4738,0,28,28,13,1,4,2,4 | 2,2,1.9756,1.4111,congruent,left,,,,,,stimulusFile/physical.xlsx,,,,,,,,,,,,,,,,,,,,,,,,,,,,,,,
,,,,,,,,,,,,,,,825,2022-01-13_15h34.03.937,multiplicationStroop,2021.2.3,Win32,59.94125757,,,,,left,1,0.6186,0,29,29,51,1,8,8,8 | 8,0,1.9756,1.4111,neutral,left,,,,,,stimulusFile/physical.xlsx,,,,,,,,,,,,,,,,,,,,,,,,,,,,,,,
,,,,,,,,,,,,,,,825,2022-01-13_15h34.03.937,multiplicationStroop,2021.2.3,Win32,59.94125757,,,,,left,1,0.5355,0,30,30,54,1,7,7,7 | 7,0,1.9756,1.4111,neutral,left,,,,,,stimulusFile/physical.xlsx,,,,,,,,,,,,,,,,,,,,,,,,,,,,,,,
,,,,,,,,,,,,,,,825,2022-01-13_15h34.03.937,multiplicationStroop,2021.2.3,Win32,59.94125757,,,,,left,1,0.5335,0,31,31,33,1,2,4,2 | 4,2,1.9756,1.4111,incongruent,left,,,,,,stimulusFile/physical.xlsx,,,,,,,,,,,,,,,,,,,,,,,,,,,,,,,
,,,,,,,,,,,,,,,825,2022-01-13_15h34.03.937,multiplicationStroop,2021.2.3,Win32,59.94125757,,,,,left,1,0.4844,0,32,32,68,1,6,6,6 | 6,0,1.9756,1.4111,neutral,left,,,,,,stimulusFile/physical.xlsx,,,,,,,,,,,,,,,,,,,,,,,,,,,,,,,
,,,,,,,,,,,,,,,825,2022-01-13_15h34.03.937,multiplicationStroop,2021.2.3,Win32,59.94125757,,,,,left,1,0.5277,0,33,33,15,1,9,7,9 | 7,2,1.9756,1.4111,congruent,left,,,,,,stimulusFile/physical.xlsx,,,,,,,,,,,,,,,,,,,,,,,,,,,,,,,
,,,,,,,,,,,,,,,825,2022-01-13_15h34.03.937,multiplicationStroop,2021.2.3,Win32,59.94125757,,,,,left,1,0.5352,0,34,34,21,1,7,2,7 | 2,5,1.9756,1.4111,congruent,left,,,,,,stimulusFile/physical.xlsx,,,,,,,,,,,,,,,,,,,,,,,,,,,,,,,
,,,,,,,,,,,,,,,825,2022-01-13_15h34.03.937,multiplicationStroop,2021.2.3,Win32,59.94125757,,,,,left,1,0.5508,0,35,35,55,1,9,9,9 | 9,0,1.9756,1.4111,neutral,left,,,,,,stimulusFile/physical.xlsx,,,,,,,,,,,,,,,,,,,,,,,,,,,,,,,
,,,,,,,,,,,,,,,825,2022-01-13_15h34.03.937,multiplicationStroop,2021.2.3,Win32,59.94125757,,,,,left,1,0.4689,0,36,36,12,1,3,1,3 | 1,2,1.9756,1.4111,congruent,left,,,,,,stimulusFile/physical.xlsx,,,,,,,,,,,,,,,,,,,,,,,,,,,,,,,
,,,,,,,,,,,,,,,825,2022-01-13_15h34.03.937,multiplicationStroop,2021.2.3,Win32,59.94125757,,,,,right,1,0.6391,0,37,37,30,1,7,6,7 | 6,1,1.4111,1.9756,incongruent,right,,,,,,stimulusFile/physical.xlsx,,,,,,,,,,,,,,,,,,,,,,,,,,,,,,,
,,,,,,,,,,,,,,,825,2022-01-13_15h34.03.937,multiplicationStroop,2021.2.3,Win32,59.94125757,,,,,right,1,0.5915,0,38,38,8,1,1,3,1 | 3,2,1.4111,1.9756,congruent,right,,,,,,stimulusFile/physical.xlsx,,,,,,,,,,,,,,,,,,,,,,,,,,,,,,,
,,,,,,,,,,,,,,,825,2022-01-13_15h34.03.937,multiplicationStroop,2021.2.3,Win32,59.94125757,,,,,right,1,0.7516,0,39,39,17,1,2,7,2 | 7,5,1.4111,1.9756,congruent,right,,,,,,stimulusFile/physical.xlsx,,,,,,,,,,,,,,,,,,,,,,,,,,,,,,,
,,,,,,,,,,,,,,,825,2022-01-13_15h34.03.937,multiplicationStroop,2021.2.3,Win32,59.94125757,,,,,right,1,0.5062,0,40,40,63,1,9,9,9 | 9,0,1.4111,1.9756,neutral,right,,,,,,stimulusFile/physical.xlsx,,,,,,,,,,,,,,,,,,,,,,,,,,,,,,,
,,,,,,,,,,,,,,,825,2022-01-13_15h34.03.937,multiplicationStroop,2021.2.3,Win32,59.94125757,,,,,left,1,0.5845,0,41,41,27,1,8,9,8 | 9,1,1.9756,1.4111,incongruent,left,,,,,,stimulusFile/physical.xlsx,,,,,,,,,,,,,,,,,,,,,,,,,,,,,,,
,,,,,,,,,,,,,,,825,2022-01-13_15h34.03.937,multiplicationStroop,2021.2.3,Win32,59.94125757,,,,,left,1,0.7201,0,42,42,48,1,1,1,1 | 1,0,1.9756,1.4111,neutral,left,,,,,,stimulusFile/physical.xlsx,,,,,,,,,,,,,,,,,,,,,,,,,,,,,,,
,,,,,,,,,,,,,,,825,2022-01-13_15h34.03.937,multiplicationStroop,2021.2.3,Win32,59.94125757,,,,,left,1,0.5186,0,43,43,7,1,9,8,9 | 8,1,1.9756,1.4111,congruent,left,,,,,,stimulusFile/physical.xlsx,,,,,,,,,,,,,,,,,,,,,,,,,,,,,,,
,,,,,,,,,,,,,,,825,2022-01-13_15h34.03.937,multiplicationStroop,2021.2.3,Win32,59.94125757,,,,,left,1,0.4953,0,44,44,43,1,4,9,4 | 9,5,1.9756,1.4111,incongruent,left,,,,,,stimulusFile/physical.xlsx,,,,,,,,,,,,,,,,,,,,,,,,,,,,,,,
,,,,,,,,,,,,,,,825,2022-01-13_15h34.03.937,multiplicationStroop,2021.2.3,Win32,59.94125757,,,,,right,1,0.6926,0,45,45,18,1,3,8,3 | 8,5,1.4111,1.9756,congruent,right,,,,,,stimulusFile/physical.xlsx,,,,,,,,,,,,,,,,,,,,,,,,,,,,,,,
,,,,,,,,,,,,,,,825,2022-01-13_15h34.03.937,multiplicationStroop,2021.2.3,Win32,59.94125757,,,,,right,0,0.5665,0,46,46,22,1,8,3,8 | 3,5,1.9756,1.4111,congruent,left,,,,,,stimulusFile/physical.xlsx,,,,,,,,,,,,,,,,,,,,,,,,,,,,,,,
,,,,,,,,,,,,,,,825,2022-01-13_15h34.03.937,multiplicationStroop,2021.2.3,Win32,59.94125757,,,,,right,1,0.7735,0,47,47,37,1,4,2,4 | 2,2,1.4111,1.9756,incongruent,right,,,,,,stimulusFile/physical.xlsx,,,,,,,,,,,,,,,,,,,,,,,,,,,,,,,
,,,,,,,,,,,,,,,825,2022-01-13_15h34.03.937,multiplicationStroop,2021.2.3,Win32,59.94125757,,,,,left,1,0.4884,0,48,48,41,1,2,7,2 | 7,5,1.9756,1.4111,incongruent,left,,,,,,stimulusFile/physical.xlsx,,,,,,,,,,,,,,,,,,,,,,,,,,,,,,,
,,,,,,,,,,,,,,,825,2022-01-13_15h34.03.937,multiplicationStroop,2021.2.3,Win32,59.94125757,,,,,left,1,0.6556,0,49,49,53,1,4,4,4 | 4,0,1.9756,1.4111,neutral,left,,,,,,stimulusFile/physical.xlsx,,,,,,,,,,,,,,,,,,,,,,,,,,,,,,,
,,,,,,,,,,,,,,,825,2022-01-13_15h34.03.937,multiplicationStroop,2021.2.3,Win32,59.94125757,,,,,left,1,0.9101,0,50,50,32,1,1,3,1 | 3,2,1.9756,1.4111,incongruent,left,,,,,,stimulusFile/physical.xlsx,,,,,,,,,,,,,,,,,,,,,,,,,,,,,,,
,,,,,,,,,,,,,,,825,2022-01-13_15h34.03.937,multiplicationStroop,2021.2.3,Win32,59.94125757,,,,,right,1,0.869,0,51,51,36,1,3,1,3 | 1,2,1.4111,1.9756,incongruent,right,,,,,,stimulusFile/physical.xlsx,,,,,,,,,,,,,,,,,,,,,,,,,,,,,,,
,,,,,,,,,,,,,,,825,2022-01-13_15h34.03.937,multiplicationStroop,2021.2.3,Win32,59.94125757,,,,,left,1,0.569,0,52,52,26,1,6,7,6 | 7,1,1.9756,1.4111,incongruent,left,,,,,,stimulusFile/physical.xlsx,,,,,,,,,,,,,,,,,,,,,,,,,,,,,,,
,,,,,,,,,,,,,,,825,2022-01-13_15h34.03.937,multiplicationStroop,2021.2.3,Win32,59.94125757,,,,,left,1,0.6677,0,53,53,50,1,6,6,6 | 6,0,1.9756,1.4111,neutral,left,,,,,,stimulusFile/physical.xlsx,,,,,,,,,,,,,,,,,,,,,,,,,,,,,,,
,,,,,,,,,,,,,,,825,2022-01-13_15h34.03.937,multiplicationStroop,2021.2.3,Win32,59.94125757,,,,,left,0,0.5894,0,54,54,64,1,1,1,1 | 1,0,1.9756,1.4111,neutral,right,,,,,,stimulusFile/physical.xlsx,,,,,,,,,,,,,,,,,,,,,,,,,,,,,,,
,,,,,,,,,,,,,,,825,2022-01-13_15h34.03.937,multiplicationStroop,2021.2.3,Win32,59.94125757,,,,,right,1,0.5521,0,55,55,28,1,2,1,2 | 1,1,1.4111,1.9756,incongruent,right,,,,,,stimulusFile/physical.xlsx,,,,,,,,,,,,,,,,,,,,,,,,,,,,,,,
,,,,,,,,,,,,,,,825,2022-01-13_15h34.03.937,multiplicationStroop,2021.2.3,Win32,59.94125757,,,,,right,1,0.5856,0,56,56,58,1,6,6,6 | 6,0,1.4111,1.9756,neutral,right,,,,,,stimulusFile/physical.xlsx,,,,,,,,,,,,,,,,,,,,,,,,,,,,,,,
,,,,,,,,,,,,,,,825,2022-01-13_15h34.03.937,multiplicationStroop,2021.2.3,Win32,59.94125757,,,,,right,1,0.7522,0,57,57,46,1,8,3,8 | 3,5,1.4111,1.9756,incongruent,right,,,,,,stimulusFile/physical.xlsx,,,,,,,,,,,,,,,,,,,,,,,,,,,,,,,
,,,,,,,,,,,,,,,825,2022-01-13_15h34.03.937,multiplicationStroop,2021.2.3,Win32,59.94125757,,,,,left,1,0.4865,0,58,58,42,1,3,8,3 | 8,5,1.9756,1.4111,incongruent,left,,,,,,stimulusFile/physical.xlsx,,,,,,,,,,,,,,,,,,,,,,,,,,,,,,,
,,,,,,,,,,,,,,,825,2022-01-13_15h34.03.937,multiplicationStroop,2021.2.3,Win32,59.94125757,,,,,right,1,0.5205,0,59,59,59,1,7,7,7 | 7,0,1.4111,1.9756,neutral,right,,,,,,stimulusFile/physical.xlsx,,,,,,,,,,,,,,,,,,,,,,,,,,,,,,,
,,,,,,,,,,,,,,,825,2022-01-13_15h34.03.937,multiplicationStroop,2021.2.3,Win32,59.94125757,,,,,right,1,0.5863,0,60,60,9,1,2,4,2 | 4,2,1.4111,1.9756,congruent,right,,,,,,stimulusFile/physical.xlsx,,,,,,,,,,,,,,,,,,,,,,,,,,,,,,,
,,,,,,,,,,,,,,,825,2022-01-13_15h34.03.937,multiplicationStroop,2021.2.3,Win32,59.94125757,,,,,right,1,0.6372,0,61,61,62,1,8,8,8 | 8,0,1.4111,1.9756,neutral,right,,,,,,stimulusFile/physical.xlsx,,,,,,,,,,,,,,,,,,,,,,,,,,,,,,,
,,,,,,,,,,,,,,,825,2022-01-13_15h34.03.937,multiplicationStroop,2021.2.3,Win32,59.94125757,,,,,right,1,0.586,0,62,62,56,1,1,1,1 | 1,0,1.4111,1.9756,neutral,right,,,,,,stimulusFile/physical.xlsx,,,,,,,,,,,,,,,,,,,,,,,,,,,,,,,
,,,,,,,,,,,,,,,825,2022-01-13_15h34.03.937,multiplicationStroop,2021.2.3,Win32,59.94125757,,,,,left,1,0.4894,0,63,63,34,1,6,8,6 | 8,2,1.9756,1.4111,incongruent,left,,,,,,stimulusFile/physical.xlsx,,,,,,,,,,,,,,,,,,,,,,,,,,,,,,,
,,,,,,,,,,,,,,,825,2022-01-13_15h34.03.937,multiplicationStroop,2021.2.3,Win32,59.94125757,,,,,left,1,0.6342,0,64,64,35,1,7,9,7 | 9,2,1.9756,1.4111,incongruent,left,,,,,,stimulusFile/physical.xlsx,,,,,,,,,,,,,,,,,,,,,,,,,,,,,,,
,,,,,,,,,,,,,,,825,2022-01-13_15h34.03.937,multiplicationStroop,2021.2.3,Win32,59.94125757,,,,,right,1,0.502,0,65,65,3,1,8,9,8 | 9,1,1.4111,1.9756,congruent,right,,,,,,stimulusFile/physical.xlsx,,,,,,,,,,,,,,,,,,,,,,,,,,,,,,,
,,,,,,,,,,,,,,,825,2022-01-13_15h34.03.937,multiplicationStroop,2021.2.3,Win32,59.94125757,,,,,right,1,0.6193,0,66,66,38,1,8,6,8 | 6,2,1.4111,1.9756,incongruent,right,,,,,,stimulusFile/physical.xlsx,,,,,,,,,,,,,,,,,,,,,,,,,,,,,,,
,,,,,,,,,,,,,,,825,2022-01-13_15h34.03.937,multiplicationStroop,2021.2.3,Win32,59.94125757,,,,,left,1,0.5521,0,67,67,14,1,8,6,8 | 6,2,1.9756,1.4111,congruent,left,,,,,,stimulusFile/physical.xlsx,,,,,,,,,,,,,,,,,,,,,,,,,,,,,,,
,,,,,,,,,,,,,,,825,2022-01-13_15h34.03.937,multiplicationStroop,2021.2.3,Win32,59.94125757,,,,,left,1,0.5445,0,68,68,25,1,3,4,3 | 4,1,1.9756,1.4111,incongruent,left,,,,,,stimulusFile/physical.xlsx,,,,,,,,,,,,,,,,,,,,,,,,,,,,,,,
,,,,,,,,,,,,,,,825,2022-01-13_15h34.03.937,multiplicationStroop,2021.2.3,Win32,59.94125757,,,,,right,1,0.5344,0,69,69,44,1,6,1,6 | 1,5,1.4111,1.9756,incongruent,right,,,,,,stimulusFile/physical.xlsx,,,,,,,,,,,,,,,,,,,,,,,,,,,,,,,
,,,,,,,,,,,,,,,825,2022-01-13_15h34.03.937,multiplicationStroop,2021.2.3,Win32,59.94125757,,,,,right,1,0.585,0,70,70,11,1,7,9,7 | 9,2,1.4111,1.9756,congruent,right,,,,,,stimulusFile/physical.xlsx,,,,,,,,,,,,,,,,,,,,,,,,,,,,,,,
,,,,,,,,,,,,,,,825,2022-01-13_15h34.03.937,multiplicationStroop,2021.2.3,Win32,59.94125757,,,,,right,0,0.5558,0,71,71,71,1,9,9,9 | 9,0,1.4111,1.9756,neutral,left,,,,,,stimulusFile/physical.xlsx,,,,,,,,,,,,,,,,,,,,,,,,,,,,,,,
,,,,,,,,,,,,,,,825,2022-01-13_15h34.03.937,multiplicationStroop,2021.2.3,Win32,59.94125757,,,,,,,,,,,,,,,,,,,,,0,0,0,1,1,stimulusFile/physical.xlsx,PHYSICALLY larger.,images/physicallyLarger.png,,,,,,,,,,,,,,,,,,,,,,,,,,,,,
,,,,,,,,,,,,,,,825,2022-01-13_15h34.03.937,multiplicationStroop,2021.2.3,Win32,59.94125757,space,5.6227,space,7.7461,left,1,0.8779,0,0,0,62,1,8,6,8 | 6,2,1.6933,1.6933,neutral,left,,,,,,stimulusFile/magnitude.xlsx,,,,,,,,,,,,,,,,,,,,,,,,,,,,,,,
,,,,,,,,,,,,,,,825,2022-01-13_15h34.03.937,multiplicationStroop,2021.2.3,Win32,59.94125757,,,,,right,1,0.6503,0,1,1,64,1,1,6,1 | 6,5,1.6933,1.6933,neutral,right,,,,,,stimulusFile/magnitude.xlsx,,,,,,,,,,,,,,,,,,,,,,,,,,,,,,,
,,,,,,,,,,,,,,,825,2022-01-13_15h34.03.937,multiplicationStroop,2021.2.3,Win32,59.94125757,,,,,right,1,0.5134,0,2,2,40,1,1,6,1 | 6,5,1.9756,1.4111,incongruent,right,,,,,,stimulusFile/magnitude.xlsx,,,,,,,,,,,,,,,,,,,,,,,,,,,,,,,
,,,,,,,,,,,,,,,825,2022-01-13_15h34.03.937,multiplicationStroop,2021.2.3,Win32,59.94125757,,,,,right,1,0.7045,0,3,3,59,1,7,9,7 | 9,2,1.6933,1.6933,neutral,right,,,,,,stimulusFile/magnitude.xlsx,,,,,,,,,,,,,,,,,,,,,,,,,,,,,,,
,,,,,,,,,,,,,,,825,2022-01-13_15h34.03.937,multiplicationStroop,2021.2.3,Win32,59.94125757,,,,,right,1,0.5156,0,4,4,16,1,1,6,1 | 6,5,1.4111,1.9756,congruent,right,,,,,,stimulusFile/magnitude.xlsx,,,,,,,,,,,,,,,,,,,,,,,,,,,,,,,
,,,,,,,,,,,,,,,825,2022-01-13_15h34.03.937,multiplicationStroop,2021.2.3,Win32,59.94125757,,,,,right,1,0.5217,0,5,5,17,1,2,7,2 | 7,5,1.4111,1.9756,congruent,right,,,,,,stimulusFile/magnitude.xlsx,,,,,,,,,,,,,,,,,,,,,,,,,,,,,,,
,,,,,,,,,,,,,,,825,2022-01-13_15h34.03.937,multiplicationStroop,2021.2.3,Win32,59.94125757,,,,,left,1,0.5614,0,6,6,52,1,2,1,2 | 1,1,1.6933,1.6933,neutral,left,,,,,,stimulusFile/magnitude.xlsx,,,,,,,,,,,,,,,,,,,,,,,,,,,,,,,
,,,,,,,,,,,,,,,825,2022-01-13_15h34.03.937,multiplicationStroop,2021.2.3,Win32,59.94125757,,,,,right,1,0.587,0,7,7,58,1,6,8,6 | 8,2,1.6933,1.6933,neutral,right,,,,,,stimulusFile/magnitude.xlsx,,,,,,,,,,,,,,,,,,,,,,,,,,,,,,,
,,,,,,,,,,,,,,,825,2022-01-13_15h34.03.937,multiplicationStroop,2021.2.3,Win32,59.94125757,,,,,left,1,0.8052,0,8,8,7,1,9,8,9 | 8,1,1.9756,1.4111,congruent,left,,,,,,stimulusFile/magnitude.xlsx,,,,,,,,,,,,,,,,,,,,,,,,,,,,,,,
,,,,,,,,,,,,,,,825,2022-01-13_15h34.03.937,multiplicationStroop,2021.2.3,Win32,59.94125757,,,,,right,1,0.742,0,9,9,26,1,6,7,6 | 7,1,1.9756,1.4111,incongruent,right,,,,,,stimulusFile/magnitude.xlsx,,,,,,,,,,,,,,,,,,,,,,,,,,,,,,,
,,,,,,,,,,,,,,,825,2022-01-13_15h34.03.937,multiplicationStroop,2021.2.3,Win32,59.94125757,,,,,left,1,0.6954,0,10,10,63,1,9,7,9 | 7,2,1.6933,1.6933,neutral,left,,,,,,stimulusFile/magnitude.xlsx,,,,,,,,,,,,,,,,,,,,,,,,,,,,,,,
,,,,,,,,,,,,,,,825,2022-01-13_15h34.03.937,multiplicationStroop,2021.2.3,Win32,59.94125757,,,,,right,1,0.4896,0,11,11,19,1,4,9,4 | 9,5,1.4111,1.9756,congruent,right,,,,,,stimulusFile/magnitude.xlsx,,,,,,,,,,,,,,,,,,,,,,,,,,,,,,,
,,,,,,,,,,,,,,,825,2022-01-13_15h34.03.937,multiplicationStroop,2021.2.3,Win32,59.94125757,,,,,right,1,0.555,0,12,12,10,1,6,8,6 | 8,2,1.4111,1.9756,congruent,right,,,,,,stimulusFile/magnitude.xlsx,,,,,,,,,,,,,,,,,,,,,,,,,,,,,,,
,,,,,,,,,,,,,,,825,2022-01-13_15h34.03.937,multiplicationStroop,2021.2.3,Win32,59.94125757,,,,,left,0,0.4978,0,13,13,43,1,4,9,4 | 9,5,1.9756,1.4111,incongruent,right,,,,,,stimulusFile/magnitude.xlsx,,,,,,,,,,,,,,,,,,,,,,,,,,,,,,,
,,,,,,,,,,,,,,,825,2022-01-13_15h34.03.937,multiplicationStroop,2021.2.3,Win32,59.94125757,,,,,left,1,2.1244,0,14,14,28,1,2,1,2 | 1,1,1.4111,1.9756,incongruent,left,,,,,,stimulusFile/magnitude.xlsx,,,,,,,,,,,,,,,,,,,,,,,,,,,,,,,
,,,,,,,,,,,,,,,825,2022-01-13_15h34.03.937,multiplicationStroop,2021.2.3,Win32,59.94125757,,,,,left,1,0.7279,0,15,15,4,1,2,1,2 | 1,1,1.9756,1.4111,congruent,left,,,,,,stimulusFile/magnitude.xlsx,,,,,,,,,,,,,,,,,,,,,,,,,,,,,,,
,,,,,,,,,,,,,,,825,2022-01-13_15h34.03.937,multiplicationStroop,2021.2.3,Win32,59.94125757,,,,,right,1,1.0282,0,16,16,25,1,3,4,3 | 4,1,1.9756,1.4111,incongruent,right,,,,,,stimulusFile/magnitude.xlsx,,,,,,,,,,,,,,,,,,,,,,,,,,,,,,,
,,,,,,,,,,,,,,,825,2022-01-13_15h34.03.937,multiplicationStroop,2021.2.3,Win32,59.94125757,,,,,left,0,0.7139,0,17,17,27,1,8,9,8 | 9,1,1.9756,1.4111,incongruent,right,,,,,,stimulusFile/magnitude.xlsx,,,,,,,,,,,,,,,,,,,,,,,,,,,,,,,
,,,,,,,,,,,,,,,825,2022-01-13_15h34.03.937,multiplicationStroop,2021.2.3,Win32,59.94125757,,,,,right,1,0.728,0,18,18,2,1,6,7,6 | 7,1,1.4111,1.9756,congruent,right,,,,,,stimulusFile/magnitude.xlsx,,,,,,,,,,,,,,,,,,,,,,,,,,,,,,,
,,,,,,,,,,,,,,,825,2022-01-13_15h34.03.937,multiplicationStroop,2021.2.3,Win32,59.94125757,,,,,left,1,0.5762,0,19,19,13,1,4,2,4 | 2,2,1.9756,1.4111,congruent,left,,,,,,stimulusFile/magnitude.xlsx,,,,,,,,,,,,,,,,,,,,,,,,,,,,,,,
,,,,,,,,,,,,,,,825,2022-01-13_15h34.03.937,multiplicationStroop,2021.2.3,Win32,59.94125757,,,,,right,0,0.5078,0,20,20,38,1,8,6,8 | 6,2,1.4111,1.9756,incongruent,left,,,,,,stimulusFile/magnitude.xlsx,,,,,,,,,,,,,,,,,,,,,,,,,,,,,,,
,,,,,,,,,,,,,,,825,2022-01-13_15h34.03.937,multiplicationStroop,2021.2.3,Win32,59.94125757,,,,,left,1,1.0729,0,21,21,69,1,7,2,7 | 2,5,1.6933,1.6933,neutral,left,,,,,,stimulusFile/magnitude.xlsx,,,,,,,,,,,,,,,,,,,,,,,,,,,,,,,
,,,,,,,,,,,,,,,825,2022-01-13_15h34.03.937,multiplicationStroop,2021.2.3,Win32,59.94125757,,,,,left,1,0.7118,0,22,22,36,1,3,1,3 | 1,2,1.4111,1.9756,incongruent,left,,,,,,stimulusFile/magnitude.xlsx,,,,,,,,,,,,,,,,,,,,,,,,,,,,,,,
,,,,,,,,,,,,,,,825,2022-01-13_15h34.03.937,multiplicationStroop,2021.2.3,Win32,59.94125757,,,,,right,1,0.64,0,23,23,8,1,1,3,1 | 3,2,1.4111,1.9756,congruent,right,,,,,,stimulusFile/magnitude.xlsx,,,,,,,,,,,,,,,,,,,,,,,,,,,,,,,
,,,,,,,,,,,,,,,825,2022-01-13_15h34.03.937,multiplicationStroop,2021.2.3,Win32,59.94125757,,,,,right,1,0.8257,0,24,24,1,1,3,4,3 | 4,1,1.4111,1.9756,congruent,right,,,,,,stimulusFile/magnitude.xlsx,,,,,,,,,,,,,,,,,,,,,,,,,,,,,,,
,,,,,,,,,,,,,,,825,2022-01-13_15h34.03.937,multiplicationStroop,2021.2.3,Win32,59.94125757,,,,,right,1,0.762,0,25,25,33,1,2,4,2 | 4,2,1.9756,1.4111,incongruent,right,,,,,,stimulusFile/magnitude.xlsx,,,,,,,,,,,,,,,,,,,,,,,,,,,,,,,
,,,,,,,,,,,,,,,825,2022-01-13_15h34.03.937,multiplicationStroop,2021.2.3,Win32,59.94125757,,,,,left,1,0.5832,0,26,26,20,1,6,1,6 | 1,5,1.9756,1.4111,congruent,left,,,,,,stimulusFile/magnitude.xlsx,,,,,,,,,,,,,,,,,,,,,,,,,,,,,,,
,,,,,,,,,,,,,,,825,2022-01-13_15h34.03.937,multiplicationStroop,2021.2.3,Win32,59.94125757,,,,,right,1,0.6332,0,27,27,0,1,1,2,1 | 2,1,1.4111,1.9756,congruent,right,,,,,,stimulusFile/magnitude.xlsx,,,,,,,,,,,,,,,,,,,,,,,,,,,,,,,
,,,,,,,,,,,,,,,825,2022-01-13_15h34.03.937,multiplicationStroop,2021.2.3,Win32,59.94125757,,,,,left,1,0.823,0,28,28,39,1,9,7,9 | 7,2,1.4111,1.9756,incongruent,left,,,,,,stimulusFile/magnitude.xlsx,,,,,,,,,,,,,,,,,,,,,,,,,,,,,,,
,,,,,,,,,,,,,,,825,2022-01-13_15h34.03.937,multiplicationStroop,2021.2.3,Win32,59.94125757,,,,,left,1,0.6805,0,29,29,71,1,9,4,9 | 4,5,1.6933,1.6933,neutral,left,,,,,,stimulusFile/magnitude.xlsx,,,,,,,,,,,,,,,,,,,,,,,,,,,,,,,
,,,,,,,,,,,,,,,825,2022-01-13_15h34.03.937,multiplicationStroop,2021.2.3,Win32,59.94125757,,,,,left,1,0.5878,0,30,30,60,1,3,1,3 | 1,2,1.6933,1.6933,neutral,left,,,,,,stimulusFile/magnitude.xlsx,,,,,,,,,,,,,,,,,,,,,,,,,,,,,,,
,,,,,,,,,,,,,,,825,2022-01-13_15h34.03.937,multiplicationStroop,2021.2.3,Win32,59.94125757,,,,,left,1,0.5892,0,31,31,21,1,7,2,7 | 2,5,1.9756,1.4111,congruent,left,,,,,,stimulusFile/magnitude.xlsx,,,,,,,,,,,,,,,,,,,,,,,,,,,,,,,
,,,,,,,,,,,,,,,825,2022-01-13_15h34.03.937,multiplicationStroop,2021.2.3,Win32,59.94125757,,,,,right,0,0.7596,0,32,32,29,1,4,3,4 | 3,1,1.4111,1.9756,incongruent,left,,,,,,stimulusFile/magnitude.xlsx,,,,,,,,,,,,,,,,,,,,,,,,,,,,,,,
,,,,,,,,,,,,,,,825,2022-01-13_15h34.03.937,multiplicationStroop,2021.2.3,Win32,59.94125757,,,,,left,0,0.8987,0,33,33,66,1,3,8,3 | 8,5,1.6933,1.6933,neutral,right,,,,,,stimulusFile/magnitude.xlsx,,,,,,,,,,,,,,,,,,,,,,,,,,,,,,,
,,,,,,,,,,,,,,,825,2022-01-13_15h34.03.937,multiplicationStroop,2021.2.3,Win32,59.94125757,,,,,left,1,2.4071,0,34,34,12,1,3,1,3 | 1,2,1.9756,1.4111,congruent,left,,,,,,stimulusFile/magnitude.xlsx,,,,,,,,,,,,,,,,,,,,,,,,,,,,,,,
,,,,,,,,,,,,,,,825,2022-01-13_15h34.03.937,multiplicationStroop,2021.2.3,Win32,59.94125757,,,,,left,1,0.6066,0,35,35,61,1,4,2,4 | 2,2,1.6933,1.6933,neutral,left,,,,,,stimulusFile/magnitude.xlsx,,,,,,,,,,,,,,,,,,,,,,,,,,,,,,,
,,,,,,,,,,,,,,,825,2022-01-13_15h34.03.937,multiplicationStroop,2021.2.3,Win32,59.94125757,,,,,right,1,0.7792,0,36,36,11,1,7,9,7 | 9,2,1.4111,1.9756,congruent,right,,,,,,stimulusFile/magnitude.xlsx,,,,,,,,,,,,,,,,,,,,,,,,,,,,,,,
,,,,,,,,,,,,,,,825,2022-01-13_15h34.03.937,multiplicationStroop,2021.2.3,Win32,59.94125757,,,,,right,1,1.978,0,37,37,3,1,8,9,8 | 9,1,1.4111,1.9756,congruent,right,,,,,,stimulusFile/magnitude.xlsx,,,,,,,,,,,,,,,,,,,,,,,,,,,,,,,
,,,,,,,,,,,,,,,825,2022-01-13_15h34.03.937,multiplicationStroop,2021.2.3,Win32,59.94125757,,,,,left,1,0.8104,0,38,38,23,1,9,4,9 | 4,5,1.9756,1.4111,congruent,left,,,,,,stimulusFile/magnitude.xlsx,,,,,,,,,,,,,,,,,,,,,,,,,,,,,,,
,,,,,,,,,,,,,,,825,2022-01-13_15h34.03.937,multiplicationStroop,2021.2.3,Win32,59.94125757,,,,,left,1,0.6476,0,39,39,5,1,4,3,4 | 3,1,1.9756,1.4111,congruent,left,,,,,,stimulusFile/magnitude.xlsx,,,,,,,,,,,,,,,,,,,,,,,,,,,,,,,
,,,,,,,,,,,,,,,825,2022-01-13_15h34.03.937,multiplicationStroop,2021.2.3,Win32,59.94125757,,,,,right,1,0.7181,0,40,40,56,1,1,3,1 | 3,2,1.6933,1.6933,neutral,right,,,,,,stimulusFile/magnitude.xlsx,,,,,,,,,,,,,,,,,,,,,,,,,,,,,,,
,,,,,,,,,,,,,,,825,2022-01-13_15h34.03.937,multiplicationStroop,2021.2.3,Win32,59.94125757,,,,,left,1,0.9614,0,41,41,55,1,9,8,9 | 8,1,1.6933,1.6933,neutral,left,,,,,,stimulusFile/magnitude.xlsx,,,,,,,,,,,,,,,,,,,,,,,,,,,,,,,
,,,,,,,,,,,,,,,825,2022-01-13_15h34.03.937,multiplicationStroop,2021.2.3,Win32,59.94125757,,,,,left,1,0.6771,0,42,42,6,1,7,6,7 | 6,1,1.9756,1.4111,congruent,left,,,,,,stimulusFile/magnitude.xlsx,,,,,,,,,,,,,,,,,,,,,,,,,,,,,,,
,,,,,,,,,,,,,,,825,2022-01-13_15h34.03.937,multiplicationStroop,2021.2.3,Win32,59.94125757,,,,,right,1,1.257,0,43,43,32,1,1,3,1 | 3,2,1.9756,1.4111,incongruent,right,,,,,,stimulusFile/magnitude.xlsx,,,,,,,,,,,,,,,,,,,,,,,,,,,,,,,
,,,,,,,,,,,,,,,825,2022-01-13_15h34.03.937,multiplicationStroop,2021.2.3,Win32,59.94125757,,,,,left,1,0.589,0,44,44,44,1,6,1,6 | 1,5,1.4111,1.9756,incongruent,left,,,,,,stimulusFile/magnitude.xlsx,,,,,,,,,,,,,,,,,,,,,,,,,,,,,,,
,,,,,,,,,,,,,,,825,2022-01-13_15h34.03.937,multiplicationStroop,2021.2.3,Win32,59.94125757,,,,,right,1,0.7733,0,45,45,48,1,1,2,1 | 2,1,1.6933,1.6933,neutral,right,,,,,,stimulusFile/magnitude.xlsx,,,,,,,,,,,,,,,,,,,,,,,,,,,,,,,
,,,,,,,,,,,,,,,825,2022-01-13_15h34.03.937,multiplicationStroop,2021.2.3,Win32,59.94125757,,,,,left,1,1.0057,0,46,46,47,1,9,4,9 | 4,5,1.4111,1.9756,incongruent,left,,,,,,stimulusFile/magnitude.xlsx,,,,,,,,,,,,,,,,,,,,,,,,,,,,,,,
,,,,,,,,,,,,,,,825,2022-01-13_15h34.03.937,multiplicationStroop,2021.2.3,Win32,59.94125757,,,,,left,1,0.6317,0,47,47,37,1,4,2,4 | 2,2,1.4111,1.9756,incongruent,left,,,,,,stimulusFile/magnitude.xlsx,,,,,,,,,,,,,,,,,,,,,,,,,,,,,,,
,,,,,,,,,,,,,,,825,2022-01-13_15h34.03.937,multiplicationStroop,2021.2.3,Win32,59.94125757,,,,,right,1,0.6892,0,48,48,18,1,3,8,3 | 8,5,1.4111,1.9756,congruent,right,,,,,,stimulusFile/magnitude.xlsx,,,,,,,,,,,,,,,,,,,,,,,,,,,,,,,
,,,,,,,,,,,,,,,825,2022-01-13_15h34.03.937,multiplicationStroop,2021.2.3,Win32,59.94125757,,,,,left,1,1.0557,0,49,49,31,1,9,8,9 | 8,1,1.4111,1.9756,incongruent,left,,,,,,stimulusFile/magnitude.xlsx,,,,,,,,,,,,,,,,,,,,,,,,,,,,,,,
,,,,,,,,,,,,,,,825,2022-01-13_15h34.03.937,multiplicationStroop,2021.2.3,Win32,59.94125757,,,,,right,1,0.8353,0,50,50,51,1,8,9,8 | 9,1,1.6933,1.6933,neutral,right,,,,,,stimulusFile/magnitude.xlsx,,,,,,,,,,,,,,,,,,,,,,,,,,,,,,,
,,,,,,,,,,,,,,,825,2022-01-13_15h34.03.937,multiplicationStroop,2021.2.3,Win32,59.94125757,,,,,right,1,1.1079,0,51,51,49,1,3,4,3 | 4,1,1.6933,1.6933,neutral,right,,,,,,stimulusFile/magnitude.xlsx,,,,,,,,,,,,,,,,,,,,,,,,,,,,,,,
,,,,,,,,,,,,,,,825,2022-01-13_15h34.03.937,multiplicationStroop,2021.2.3,Win32,59.94125757,,,,,right,1,0.8608,0,52,52,50,1,6,7,6 | 7,1,1.6933,1.6933,neutral,right,,,,,,stimulusFile/magnitude.xlsx,,,,,,,,,,,,,,,,,,,,,,,,,,,,,,,
,,,,,,,,,,,,,,,825,2022-01-13_15h34.03.937,multiplicationStroop,2021.2.3,Win32,59.94125757,,,,,left,1,0.6504,0,53,53,22,1,8,3,8 | 3,5,1.9756,1.4111,congruent,left,,,,,,stimulusFile/magnitude.xlsx,,,,,,,,,,,,,,,,,,,,,,,,,,,,,,,
,,,,,,,,,,,,,,,825,2022-01-13_15h34.03.937,multiplicationStroop,2021.2.3,Win32,59.94125757,,,,,right,1,0.6761,0,54,54,57,1,2,4,2 | 4,2,1.6933,1.6933,neutral,right,,,,,,stimulusFile/magnitude.xlsx,,,,,,,,,,,,,,,,,,,,,,,,,,,,,,,
,,,,,,,,,,,,,,,825,2022-01-13_15h34.03.937,multiplicationStroop,2021.2.3,Win32,59.94125757,,,,,right,1,0.9294,0,55,55,34,1,6,8,6 | 8,2,1.9756,1.4111,incongruent,right,,,,,,stimulusFile/magnitude.xlsx,,,,,,,,,,,,,,,,,,,,,,,,,,,,,,,
,,,,,,,,,,,,,,,825,2022-01-13_15h34.03.937,multiplicationStroop,2021.2.3,Win32,59.94125757,,,,,right,1,0.601,0,56,56,42,1,3,8,3 | 8,5,1.9756,1.4111,incongruent,right,,,,,,stimulusFile/magnitude.xlsx,,,,,,,,,,,,,,,,,,,,,,,,,,,,,,,
,,,,,,,,,,,,,,,825,2022-01-13_15h34.03.937,multiplicationStroop,2021.2.3,Win32,59.94125757,,,,,left,1,1.0595,0,57,57,53,1,4,3,4 | 3,1,1.6933,1.6933,neutral,left,,,,,,stimulusFile/magnitude.xlsx,,,,,,,,,,,,,,,,,,,,,,,,,,,,,,,
,,,,,,,,,,,,,,,825,2022-01-13_15h34.03.937,multiplicationStroop,2021.2.3,Win32,59.94125757,,,,,right,1,0.6593,0,58,58,65,1,2,7,2 | 7,5,1.6933,1.6933,neutral,right,,,,,,stimulusFile/magnitude.xlsx,,,,,,,,,,,,,,,,,,,,,,,,,,,,,,,
,,,,,,,,,,,,,,,825,2022-01-13_15h34.03.937,multiplicationStroop,2021.2.3,Win32,59.94125757,,,,,left,1,0.7961,0,59,59,14,1,8,6,8 | 6,2,1.9756,1.4111,congruent,left,,,,,,stimulusFile/magnitude.xlsx,,,,,,,,,,,,,,,,,,,,,,,,,,,,,,,
,,,,,,,,,,,,,,,825,2022-01-13_15h34.03.937,multiplicationStroop,2021.2.3,Win32,59.94125757,,,,,left,1,0.6899,0,60,60,70,1,8,3,8 | 3,5,1.6933,1.6933,neutral,left,,,,,,stimulusFile/magnitude.xlsx,,,,,,,,,,,,,,,,,,,,,,,,,,,,,,,
,,,,,,,,,,,,,,,825,2022-01-13_15h34.03.937,multiplicationStroop,2021.2.3,Win32,59.94125757,,,,,right,1,0.596,0,61,61,67,1,4,9,4 | 9,5,1.6933,1.6933,neutral,right,,,,,,stimulusFile/magnitude.xlsx,,,,,,,,,,,,,,,,,,,,,,,,,,,,,,,
,,,,,,,,,,,,,,,825,2022-01-13_15h34.03.937,multiplicationStroop,2021.2.3,Win32,59.94125757,,,,,left,1,0.5449,0,62,62,68,1,6,1,6 | 1,5,1.6933,1.6933,neutral,left,,,,,,stimulusFile/magnitude.xlsx,,,,,,,,,,,,,,,,,,,,,,,,,,,,,,,
,,,,,,,,,,,,,,,825,2022-01-13_15h34.03.937,multiplicationStroop,2021.2.3,Win32,59.94125757,,,,,left,1,0.7049,0,63,63,46,1,8,3,8 | 3,5,1.4111,1.9756,incongruent,left,,,,,,stimulusFile/magnitude.xlsx,,,,,,,,,,,,,,,,,,,,,,,,,,,,,,,
,,,,,,,,,,,,,,,825,2022-01-13_15h34.03.937,multiplicationStroop,2021.2.3,Win32,59.94125757,,,,,right,1,0.7265,0,64,64,24,1,1,2,1 | 2,1,1.9756,1.4111,incongruent,right,,,,,,stimulusFile/magnitude.xlsx,,,,,,,,,,,,,,,,,,,,,,,,,,,,,,,
,,,,,,,,,,,,,,,825,2022-01-13_15h34.03.937,multiplicationStroop,2021.2.3,Win32,59.94125757,,,,,left,1,1.1728,0,65,65,54,1,7,6,7 | 6,1,1.6933,1.6933,neutral,left,,,,,,stimulusFile/magnitude.xlsx,,,,,,,,,,,,,,,,,,,,,,,,,,,,,,,
,,,,,,,,,,,,,,,825,2022-01-13_15h34.03.937,multiplicationStroop,2021.2.3,Win32,59.94125757,,,,,left,1,0.8052,0,66,66,15,1,9,7,9 | 7,2,1.9756,1.4111,congruent,left,,,,,,stimulusFile/magnitude.xlsx,,,,,,,,,,,,,,,,,,,,,,,,,,,,,,,
,,,,,,,,,,,,,,,825,2022-01-13_15h34.03.937,multiplicationStroop,2021.2.3,Win32,59.94125757,,,,,right,1,0.8041,0,67,67,41,1,2,7,2 | 7,5,1.9756,1.4111,incongruent,right,,,,,,stimulusFile/magnitude.xlsx,,,,,,,,,,,,,,,,,,,,,,,,,,,,,,,
,,,,,,,,,,,,,,,825,2022-01-13_15h34.03.937,multiplicationStroop,2021.2.3,Win32,59.94125757,,,,,left,1,0.9174,0,68,68,30,1,7,6,7 | 6,1,1.4111,1.9756,incongruent,left,,,,,,stimulusFile/magnitude.xlsx,,,,,,,,,,,,,,,,,,,,,,,,,,,,,,,
,,,,,,,,,,,,,,,825,2022-01-13_15h34.03.937,multiplicationStroop,2021.2.3,Win32,59.94125757,,,,,left,1,0.5868,0,69,69,45,1,7,2,7 | 2,5,1.4111,1.9756,incongruent,left,,,,,,stimulusFile/magnitude.xlsx,,,,,,,,,,,,,,,,,,,,,,,,,,,,,,,
,,,,,,,,,,,,,,,825,2022-01-13_15h34.03.937,multiplicationStroop,2021.2.3,Win32,59.94125757,,,,,right,1,0.855,0,70,70,35,1,7,9,7 | 9,2,1.9756,1.4111,incongruent,right,,,,,,stimulusFile/magnitude.xlsx,,,,,,,,,,,,,,,,,,,,,,,,,,,,,,,
,,,,,,,,,,,,,,,825,2022-01-13_15h34.03.937,multiplicationStroop,2021.2.3,Win32,59.94125757,,,,,left,0,0.8381,0,71,71,9,1,2,4,2 | 4,2,1.4111,1.9756,congruent,right,,,,,,stimulusFile/magnitude.xlsx,,,,,,,,,,,,,,,,,,,,,,,,,,,,,,,
,,,,,,,,,,,,,,,825,2022-01-13_15h34.03.937,multiplicationStroop,2021.2.3,Win32,59.94125757,,,,,,,,,,,,,,,,,,,,,0,1,1,0,1,stimulusFile/magnitude.xlsx,NUMERICALLY larger.,images/numericallyLarger.png,,,,,,,,,,,,,,,,,,,,,,,,,,,,,
,,,,,,,,,,,,,,,825,2022-01-13_15h34.03.937,multiplicationStroop,2021.2.3,Win32,59.94125757,,,,,,,,,,,,,,,,,,,,,,,,,,,,,space,14.9188,space,4.4178,18,2.3779,1,0,0,0,22,1,9,×,2,9 × 2,congruent,largerFirst,2,1,18,,,,,,,,
,,,,,,,,,,,,,,,825,2022-01-13_15h34.03.937,multiplicationStroop,2021.2.3,Win32,59.94125757,,,,,,,,,,,,,,,,,,,,,,,,,,,,,,,,,30,2.5831,1,0,1,1,15,1,6,×,5,6 × 5,congruent,largerFirst,2,1,30,,,,,,,,
,,,,,,,,,,,,,,,825,2022-01-13_15h34.03.937,multiplicationStroop,2021.2.3,Win32,59.94125757,,,,,,,,,,,,,,,,,,,,,,,,,,,,,,,,,24,3.8689,1,0,2,2,10,1,3,×,8,3 × 8,congruent,smallerFirst,1,2,24,,,,,,,,
,,,,,,,,,,,,,,,825,2022-01-13_15h34.03.937,multiplicationStroop,2021.2.3,Win32,59.94125757,,,,,,,,,,,,,,,,,,,,,,,,,,,,,,,,,56,2.491,1,0,3,3,8,1,7,×,8,7 × 8,congruent,smallerFirst,1,2,56,,,,,,,,
,,,,,,,,,,,,,,,825,2022-01-13_15h34.03.937,multiplicationStroop,2021.2.3,Win32,59.94125757,,,,,,,,,,,,,,,,,,,,,,,,,,,,,,,,,25,2.2007,1,0,4,4,31,1,5,×,5,5 × 5,neutral,tie,2,1,25,,,,,,,,
,,,,,,,,,,,,,,,825,2022-01-13_15h34.03.937,multiplicationStroop,2021.2.3,Win32,59.94125757,,,,,,,,,,,,,,,,,,,,,,,,,,,,,,,,,40,2.1243,1,0,5,5,6,1,5,×,8,5 × 8,congruent,smallerFirst,1,2,40,,,,,,,,
,,,,,,,,,,,,,,,825,2022-01-13_15h34.03.937,multiplicationStroop,2021.2.3,Win32,59.94125757,,,,,,,,,,,,,,,,,,,,,,,,,,,,,,,,,12,1.5169,1,0,6,6,2,1,3,×,4,3 × 4,congruent,smallerFirst,1,2,12,,,,,,,,
,,,,,,,,,,,,,,,825,2022-01-13_15h34.03.937,multiplicationStroop,2021.2.3,Win32,59.94125757,,,,,,,,,,,,,,,,,,,,,,,,,,,,,,,,,28,2.2509,1,0,7,7,27,1,7,×,4,7 × 4,congruent,largerFirst,2,1,28,,,,,,,,
,,,,,,,,,,,,,,,825,2022-01-13_15h34.03.937,multiplicationStroop,2021.2.3,Win32,59.94125757,,,,,,,,,,,,,,,,,,,,,,,,,,,,,,,,,42,3.3854,1,0,8,8,3,1,6,×,7,6 × 7,congruent,smallerFirst,1,2,42,,,,,,,,
,,,,,,,,,,,,,,,825,2022-01-13_15h34.03.937,multiplicationStroop,2021.2.3,Win32,59.94125757,,,,,,,,,,,,,,,,,,,,,,,,,,,,,,,,,10,1.9911,1,0,9,9,24,1,5,×,2,5 × 2,congruent,largerFirst,2,1,10,,,,,,,,
,,,,,,,,,,,,,,,825,2022-01-13_15h34.03.937,multiplicationStroop,2021.2.3,Win32,59.94125757,,,,,,,,,,,,,,,,,,,,,,,,,,,,,,,,,27,2.3845,1,0,10,10,26,1,9,×,3,9 × 3,congruent,largerFirst,2,1,27,,,,,,,,
,,,,,,,,,,,,,,,825,2022-01-13_15h34.03.937,multiplicationStroop,2021.2.3,Win32,59.94125757,,,,,,,,,,,,,,,,,,,,,,,,,,,,,,,,,4,1.8338,1,0,11,11,28,1,2,×,2,2 × 2,neutral,tie,2,1,4,,,,,,,,
,,,,,,,,,,,,,,,825,2022-01-13_15h34.03.937,multiplicationStroop,2021.2.3,Win32,59.94125757,,,,,,,,,,,,,,,,,,,,,,,,,,,,,,,,,36,3.2349,1,0,12,12,32,1,6,×,6,6 × 6,neutral,tie,2,1,36,,,,,,,,
,,,,,,,,,,,,,,,825,2022-01-13_15h34.03.937,multiplicationStroop,2021.2.3,Win32,59.94125757,,,,,,,,,,,,,,,,,,,,,,,,,,,,,,,,,18,2.0908,1,0,13,13,11,1,3,×,6,3 × 6,congruent,smallerFirst,1,2,18,,,,,,,,
,,,,,,,,,,,,,,,825,2022-01-13_15h34.03.937,multiplicationStroop,2021.2.3,Win32,59.94125757,,,,,,,,,,,,,,,,,,,,,,,,,,,,,,,,,35,2.468,1,0,14,14,1,1,5,×,7,5 × 7,congruent,smallerFirst,1,2,35,,,,,,,,
,,,,,,,,,,,,,,,825,2022-01-13_15h34.03.937,multiplicationStroop,2021.2.3,Win32,59.94125757,,,,,,,,,,,,,,,,,,,,,,,,,,,,,,,,,63,4.6201,1,0,15,15,21,1,9,×,7,9 × 7,congruent,largerFirst,2,1,63,,,,,,,,
,,,,,,,,,,,,,,,825,2022-01-13_15h34.03.937,multiplicationStroop,2021.2.3,Win32,59.94125757,,,,,,,,,,,,,,,,,,,,,,,,,,,,,,,,,49,2.1574,1,0,16,16,33,1,7,×,7,7 × 7,neutral,tie,2,1,49,,,,,,,,
,,,,,,,,,,,,,,,825,2022-01-13_15h34.03.937,multiplicationStroop,2021.2.3,Win32,59.94125757,,,,,,,,,,,,,,,,,,,,,,,,,,,,,,,,,40,2.2413,0,0,17,17,23,1,9,×,5,9 × 5,congruent,largerFirst,2,1,45,,,,,,,,
,,,,,,,,,,,,,,,825,2022-01-13_15h34.03.937,multiplicationStroop,2021.2.3,Win32,59.94125757,,,,,,,,,,,,,,,,,,,,,,,,,,,,,,,,,14,3.5188,1,0,18,18,14,1,7,×,2,7 × 2,congruent,largerFirst,2,1,14,,,,,,,,
,,,,,,,,,,,,,,,825,2022-01-13_15h34.03.937,multiplicationStroop,2021.2.3,Win32,59.94125757,,,,,,,,,,,,,,,,,,,,,,,,,,,,,,,,,48,4.5863,1,0,19,19,18,1,8,×,6,8 × 6,congruent,largerFirst,2,1,48,,,,,,,,
,,,,,,,,,,,,,,,825,2022-01-13_15h34.03.937,multiplicationStroop,2021.2.3,Win32,59.94125757,,,,,,,,,,,,,,,,,,,,,,,,,,,,,,,,,24,2.524,1,0,20,20,25,1,6,×,4,6 × 4,congruent,largerFirst,2,1,24,,,,,,,,
,,,,,,,,,,,,,,,825,2022-01-13_15h34.03.937,multiplicationStroop,2021.2.3,Win32,59.94125757,,,,,,,,,,,,,,,,,,,,,,,,,,,,,,,,,32,1.8157,1,0,21,21,20,1,8,×,4,8 × 4,congruent,largerFirst,2,1,32,,,,,,,,
,,,,,,,,,,,,,,,825,2022-01-13_15h34.03.937,multiplicationStroop,2021.2.3,Win32,59.94125757,,,,,,,,,,,,,,,,,,,,,,,,,,,,,,,,,54,2.6069,1,0,22,22,12,1,6,×,9,6 × 9,congruent,smallerFirst,1,2,54,,,,,,,,
,,,,,,,,,,,,,,,825,2022-01-13_15h34.03.937,multiplicationStroop,2021.2.3,Win32,59.94125757,,,,,,,,,,,,,,,,,,,,,,,,,,,,,,,,,21,2.2793,1,0,23,23,16,1,7,×,3,7 × 3,congruent,largerFirst,2,1,21,,,,,,,,
,,,,,,,,,,,,,,,825,2022-01-13_15h34.03.937,multiplicationStroop,2021.2.3,Win32,59.94125757,,,,,,,,,,,,,,,,,,,,,,,,,,,,,,,,,81,5.6041,1,0,24,24,35,1,9,×,9,9 × 9,neutral,tie,2,1,81,,,,,,,,
,,,,,,,,,,,,,,,825,2022-01-13_15h34.03.937,multiplicationStroop,2021.2.3,Win32,59.94125757,,,,,,,,,,,,,,,,,,,,,,,,,,,,,,,,,6,3.6919,1,0,25,25,13,1,2,×,3,2 × 3,congruent,smallerFirst,1,2,6,,,,,,,,
,,,,,,,,,,,,,,,825,2022-01-13_15h34.03.937,multiplicationStroop,2021.2.3,Win32,59.94125757,,,,,,,,,,,,,,,,,,,,,,,,,,,,,,,,,8,1.9742,1,0,26,26,9,1,2,×,4,2 × 4,congruent,smallerFirst,1,2,8,,,,,,,,
,,,,,,,,,,,,,,,825,2022-01-13_15h34.03.937,multiplicationStroop,2021.2.3,Win32,59.94125757,,,,,,,,,,,,,,,,,,,,,,,,,,,,,,,,,20,1.7506,1,0,27,27,7,1,4,×,5,4 × 5,congruent,smallerFirst,1,2,20,,,,,,,,
,,,,,,,,,,,,,,,825,2022-01-13_15h34.03.937,multiplicationStroop,2021.2.3,Win32,59.94125757,,,,,,,,,,,,,,,,,,,,,,,,,,,,,,,,,36,3.0683,1,0,28,28,0,1,4,×,9,4 × 9,congruent,smallerFirst,1,2,36,,,,,,,,
,,,,,,,,,,,,,,,825,2022-01-13_15h34.03.937,multiplicationStroop,2021.2.3,Win32,59.94125757,,,,,,,,,,,,,,,,,,,,,,,,,,,,,,,,,16,2.8678,1,0,29,29,5,1,2,×,8,2 × 8,congruent,smallerFirst,1,2,16,,,,,,,,
,,,,,,,,,,,,,,,825,2022-01-13_15h34.03.937,multiplicationStroop,2021.2.3,Win32,59.94125757,,,,,,,,,,,,,,,,,,,,,,,,,,,,,,,,,64,2.4744,1,0,30,30,34,1,8,×,8,8 × 8,neutral,tie,2,1,64,,,,,,,,
,,,,,,,,,,,,,,,825,2022-01-13_15h34.03.937,multiplicationStroop,2021.2.3,Win32,59.94125757,,,,,,,,,,,,,,,,,,,,,,,,,,,,,,,,,15,2.3174,1,0,31,31,4,1,3,×,5,3 × 5,congruent,smallerFirst,1,2,15,,,,,,,,
,,,,,,,,,,,,,,,825,2022-01-13_15h34.03.937,multiplicationStroop,2021.2.3,Win32,59.94125757,,,,,,,,,,,,,,,,,,,,,,,,,,,,,,,,,9,1.55,1,0,32,32,29,1,3,×,3,3 × 3,neutral,tie,2,1,9,,,,,,,,
,,,,,,,,,,,,,,,825,2022-01-13_15h34.03.937,multiplicationStroop,2021.2.3,Win32,59.94125757,,,,,,,,,,,,,,,,,,,,,,,,,,,,,,,,,12,1.567,1,0,33,33,19,1,6,×,2,6 × 2,congruent,largerFirst,2,1,12,,,,,,,,
,,,,,,,,,,,,,,,825,2022-01-13_15h34.03.937,multiplicationStroop,2021.2.3,Win32,59.94125757,,,,,,,,,,,,,,,,,,,,,,,,,,,,,,,,,72,2.4512,1,0,34,34,17,1,9,×,8,9 × 8,congruent,largerFirst,2,1,72,,,,,,,,
,,,,,,,,,,,,,,,825,2022-01-13_15h34.03.937,multiplicationStroop,2021.2.3,Win32,59.94125757,,,,,,,,,,,,,,,,,,,,,,,,,,,,,,,,,16,2.1175,1,0,35,35,30,1,4,×,4,4 × 4,neutral,tie,2,1,16,,,,,,,,
,,,,,,,,,,,,,,,825,2022-01-13_15h34.03.937,multiplicationStroop,2021.2.3,Win32,59.94125757,,,,,,,,,,,,,,,,,,,,,,,,,,,,,,,,,,,,,,,,,,,,,,,,,,0,0,0,2,1,stimulusFile/mult_blk3_congruent.xlsx,,
,,,,,,,,,,,,,,,825,2022-01-13_15h34.03.937,multiplicationStroop,2021.2.3,Win32,59.94125757,,,,,,,,,,,,,,,,,,,,,,,,,,,,,,,space,3.2425,35,2.566,1,0,0,0,12,1,5,×,7,5 × 7,incongruent,smallerFirst,2,1,35,,,,,,,,
,,,,,,,,,,,,,,,825,2022-01-13_15h34.03.937,multiplicationStroop,2021.2.3,Win32,59.94125757,,,,,,,,,,,,,,,,,,,,,,,,,,,,,,,,,45,2.752,1,0,1,1,22,1,9,×,5,9 × 5,incongruent,largerFirst,1,2,45,,,,,,,,
,,,,,,,,,,,,,,,825,2022-01-13_15h34.03.937,multiplicationStroop,2021.2.3,Win32,59.94125757,,,,,,,,,,,,,,,,,,,,,,,,,,,,,,,,,16,2.6021,1,0,2,2,30,1,4,×,4,4 × 4,incongruent,tie,1,2,16,,,,,,,,
,,,,,,,,,,,,,,,825,2022-01-13_15h34.03.937,multiplicationStroop,2021.2.3,Win32,59.94125757,,,,,,,,,,,,,,,,,,,,,,,,,,,,,,,,,24,2.6421,1,0,3,3,9,1,3,×,8,3 × 8,incongruent,smallerFirst,2,1,24,,,,,,,,
,,,,,,,,,,,,,,,825,2022-01-13_15h34.03.937,multiplicationStroop,2021.2.3,Win32,59.94125757,,,,,,,,,,,,,,,,,,,,,,,,,,,,,,,,,32,2.0514,1,0,4,4,7,1,4,×,8,4 × 8,incongruent,smallerFirst,2,1,32,,,,,,,,
,,,,,,,,,,,,,,,825,2022-01-13_15h34.03.937,multiplicationStroop,2021.2.3,Win32,59.94125757,,,,,,,,,,,,,,,,,,,,,,,,,,,,,,,,,36,2.8185,1,0,5,5,15,1,9,×,4,9 × 4,incongruent,largerFirst,1,2,36,,,,,,,,
,,,,,,,,,,,,,,,825,2022-01-13_15h34.03.937,multiplicationStroop,2021.2.3,Win32,59.94125757,,,,,,,,,,,,,,,,,,,,,,,,,,,,,,,,,18,2.2349,1,0,6,6,8,1,3,×,6,3 × 6,incongruent,smallerFirst,2,1,18,,,,,,,,
,,,,,,,,,,,,,,,825,2022-01-13_15h34.03.937,multiplicationStroop,2021.2.3,Win32,59.94125757,,,,,,,,,,,,,,,,,,,,,,,,,,,,,,,,,9,1.9584,1,0,7,7,29,1,3,×,3,3 × 3,incongruent,tie,1,2,9,,,,,,,,
,,,,,,,,,,,,,,,825,2022-01-13_15h34.03.937,multiplicationStroop,2021.2.3,Win32,59.94125757,,,,,,,,,,,,,,,,,,,,,,,,,,,,,,,,,12,1.6676,1,0,8,8,19,1,6,×,2,6 × 2,incongruent,largerFirst,1,2,12,,,,,,,,
,,,,,,,,,,,,,,,825,2022-01-13_15h34.03.937,multiplicationStroop,2021.2.3,Win32,59.94125757,,,,,,,,,,,,,,,,,,,,,,,,,,,,,,,,,21,2.6519,1,0,9,9,26,1,7,×,3,7 × 3,incongruent,largerFirst,1,2,21,,,,,,,,
,,,,,,,,,,,,,,,825,2022-01-13_15h34.03.937,multiplicationStroop,2021.2.3,Win32,59.94125757,,,,,,,,,,,,,,,,,,,,,,,,,,,,,,,,,64,2.2585,1,0,10,10,34,1,8,×,8,8 × 8,incongruent,tie,1,2,64,,,,,,,,
,,,,,,,,,,,,,,,825,2022-01-13_15h34.03.937,multiplicationStroop,2021.2.3,Win32,59.94125757,,,,,,,,,,,,,,,,,,,,,,,,,,,,,,,,,46,3.6696,0,0,11,11,1,1,6,×,8,6 × 8,incongruent,smallerFirst,2,1,48,,,,,,,,
,,,,,,,,,,,,,,,825,2022-01-13_15h34.03.937,multiplicationStroop,2021.2.3,Win32,59.94125757,,,,,,,,,,,,,,,,,,,,,,,,,,,,,,,,,28,3.6265,1,0,12,12,16,1,7,×,4,7 × 4,incongruent,largerFirst,1,2,28,,,,,,,,
,,,,,,,,,,,,,,,825,2022-01-13_15h34.03.937,multiplicationStroop,2021.2.3,Win32,59.94125757,,,,,,,,,,,,,,,,,,,,,,,,,,,,,,,,,25,2.1683,1,0,13,13,31,1,5,×,5,5 × 5,incongruent,tie,1,2,25,,,,,,,,
,,,,,,,,,,,,,,,825,2022-01-13_15h34.03.937,multiplicationStroop,2021.2.3,Win32,59.94125757,,,,,,,,,,,,,,,,,,,,,,,,,,,,,,,,,81,2.3253,1,0,14,14,35,1,9,×,9,9 × 9,incongruent,tie,1,2,81,,,,,,,,
,,,,,,,,,,,,,,,825,2022-01-13_15h34.03.937,multiplicationStroop,2021.2.3,Win32,59.94125757,,,,,,,,,,,,,,,,,,,,,,,,,,,,,,,,,24,2.3682,1,0,15,15,20,1,6,×,4,6 × 4,incongruent,largerFirst,1,2,24,,,,,,,,
,,,,,,,,,,,,,,,825,2022-01-13_15h34.03.937,multiplicationStroop,2021.2.3,Win32,59.94125757,,,,,,,,,,,,,,,,,,,,,,,,,,,,,,,,,6,1.8178,1,0,16,16,11,1,2,×,3,2 × 3,incongruent,smallerFirst,2,1,6,,,,,,,,
,,,,,,,,,,,,,,,825,2022-01-13_15h34.03.937,multiplicationStroop,2021.2.3,Win32,59.94125757,,,,,,,,,,,,,,,,,,,,,,,,,,,,,,,,,36,3.8365,1,0,17,17,32,1,6,×,6,6 × 6,incongruent,tie,1,2,36,,,,,,,,
,,,,,,,,,,,,,,,825,2022-01-13_15h34.03.937,multiplicationStroop,2021.2.3,Win32,59.94125757,,,,,,,,,,,,,,,,,,,,,,,,,,,,,,,,,72,3.6598,1,0,18,18,0,1,8,×,9,8 × 9,incongruent,smallerFirst,2,1,72,,,,,,,,
,,,,,,,,,,,,,,,825,2022-01-13_15h34.03.937,multiplicationStroop,2021.2.3,Win32,59.94125757,,,,,,,,,,,,,,,,,,,,,,,,,,,,,,,,,54,3.4599,1,0,19,19,6,1,6,×,9,6 × 9,incongruent,smallerFirst,2,1,54,,,,,,,,
,,,,,,,,,,,,,,,825,2022-01-13_15h34.03.937,multiplicationStroop,2021.2.3,Win32,59.94125757,,,,,,,,,,,,,,,,,,,,,,,,,,,,,,,,,56,2.1847,1,0,20,20,14,1,8,×,7,8 × 7,incongruent,largerFirst,1,2,56,,,,,,,,
,,,,,,,,,,,,,,,825,2022-01-13_15h34.03.937,multiplicationStroop,2021.2.3,Win32,59.94125757,,,,,,,,,,,,,,,,,,,,,,,,,,,,,,,,,42,2.385,1,0,21,21,17,1,7,×,6,7 × 6,incongruent,largerFirst,1,2,42,,,,,,,,
,,,,,,,,,,,,,,,825,2022-01-13_15h34.03.937,multiplicationStroop,2021.2.3,Win32,59.94125757,,,,,,,,,,,,,,,,,,,,,,,,,,,,,,,,,10,1.7747,1,0,22,22,21,1,5,×,2,5 × 2,incongruent,largerFirst,1,2,10,,,,,,,,
,,,,,,,,,,,,,,,825,2022-01-13_15h34.03.937,multiplicationStroop,2021.2.3,Win32,59.94125757,,,,,,,,,,,,,,,,,,,,,,,,,,,,,,,,,27,2.502,1,0,23,23,18,1,9,×,3,9 × 3,incongruent,largerFirst,1,2,27,,,,,,,,
,,,,,,,,,,,,,,,825,2022-01-13_15h34.03.937,multiplicationStroop,2021.2.3,Win32,59.94125757,,,,,,,,,,,,,,,,,,,,,,,,,,,,,,,,,49,3.0928,1,0,24,24,33,1,7,×,7,7 × 7,incongruent,tie,1,2,49,,,,,,,,
,,,,,,,,,,,,,,,825,2022-01-13_15h34.03.937,multiplicationStroop,2021.2.3,Win32,59.94125757,,,,,,,,,,,,,,,,,,,,,,,,,,,,,,,,,12,1.4677,1,0,25,25,5,1,3,×,4,3 × 4,incongruent,smallerFirst,2,1,12,,,,,,,,
,,,,,,,,,,,,,,,825,2022-01-13_15h34.03.937,multiplicationStroop,2021.2.3,Win32,59.94125757,,,,,,,,,,,,,,,,,,,,,,,,,,,,,,,,,8,1.8512,1,0,26,26,24,1,4,×,2,4 × 2,incongruent,largerFirst,1,2,8,,,,,,,,
,,,,,,,,,,,,,,,825,2022-01-13_15h34.03.937,multiplicationStroop,2021.2.3,Win32,59.94125757,,,,,,,,,,,,,,,,,,,,,,,,,,,,,,,,,15,1.7179,1,0,27,27,10,1,3,×,5,3 × 5,incongruent,smallerFirst,2,1,15,,,,,,,,
,,,,,,,,,,,,,,,825,2022-01-13_15h34.03.937,multiplicationStroop,2021.2.3,Win32,59.94125757,,,,,,,,,,,,,,,,,,,,,,,,,,,,,,,,,14,1.918,1,0,28,28,4,1,2,×,7,2 × 7,incongruent,smallerFirst,2,1,14,,,,,,,,
,,,,,,,,,,,,,,,825,2022-01-13_15h34.03.937,multiplicationStroop,2021.2.3,Win32,59.94125757,,,,,,,,,,,,,,,,,,,,,,,,,,,,,,,,,4,1.6343,1,0,29,29,28,1,2,×,2,2 × 2,incongruent,tie,1,2,4,,,,,,,,
,,,,,,,,,,,,,,,825,2022-01-13_15h34.03.937,multiplicationStroop,2021.2.3,Win32,59.94125757,,,,,,,,,,,,,,,,,,,,,,,,,,,,,,,,,30,1.9181,1,0,30,30,25,1,6,×,5,6 × 5,incongruent,largerFirst,1,2,30,,,,,,,,
,,,,,,,,,,,,,,,825,2022-01-13_15h34.03.937,multiplicationStroop,2021.2.3,Win32,59.94125757,,,,,,,,,,,,,,,,,,,,,,,,,,,,,,,,,40,3.3193,1,0,31,31,13,1,5,×,8,5 × 8,incongruent,smallerFirst,2,1,40,,,,,,,,
,,,,,,,,,,,,,,,825,2022-01-13_15h34.03.937,multiplicationStroop,2021.2.3,Win32,59.94125757,,,,,,,,,,,,,,,,,,,,,,,,,,,,,,,,,63,2.8855,1,0,32,32,3,1,7,×,9,7 × 9,incongruent,smallerFirst,2,1,63,,,,,,,,
,,,,,,,,,,,,,,,825,2022-01-13_15h34.03.937,multiplicationStroop,2021.2.3,Win32,59.94125757,,,,,,,,,,,,,,,,,,,,,,,,,,,,,,,,,16,2.5089,1,0,33,33,23,1,8,×,2,8 × 2,incongruent,largerFirst,1,2,16,,,,,,,,
,,,,,,,,,,,,,,,825,2022-01-13_15h34.03.937,multiplicationStroop,2021.2.3,Win32,59.94125757,,,,,,,,,,,,,,,,,,,,,,,,,,,,,,,,,18,1.9181,1,0,34,34,2,1,2,×,9,2 × 9,incongruent,smallerFirst,2,1,18,,,,,,,,
,,,,,,,,,,,,,,,825,2022-01-13_15h34.03.937,multiplicationStroop,2021.2.3,Win32,59.94125757,,,,,,,,,,,,,,,,,,,,,,,,,,,,,,,,,20,1.7679,1,0,35,35,27,1,5,×,4,5 × 4,incongruent,largerFirst,1,2,20,,,,,,,,
,,,,,,,,,,,,,,,825,2022-01-13_15h34.03.937,multiplicationStroop,2021.2.3,Win32,59.94125757,,,,,,,,,,,,,,,,,,,,,,,,,,,,,,,,,,,,,,,,,,,,,,,,,,0,1,1,5,1,stimulusFile/mult_blk6_INcongruent.xlsx,,
,,,,,,,,,,,,,,,825,2022-01-13_15h34.03.937,multiplicationStroop,2021.2.3,Win32,59.94125757,,,,,,,,,,,,,,,,,,,,,,,,,,,,,,,space,2.9991,6,1.7819,1,0,0,0,25,1,3,×,2,3 × 2,incongruent,largerFirst,1,2,6,,,,,,,,
,,,,,,,,,,,,,,,825,2022-01-13_15h34.03.937,multiplicationStroop,2021.2.3,Win32,59.94125757,,,,,,,,,,,,,,,,,,,,,,,,,,,,,,,,,54,5.0875,1,0,1,1,20,1,9,×,6,9 × 6,incongruent,largerFirst,1,2,54,,,,,,,,
,,,,,,,,,,,,,,,825,2022-01-13_15h34.03.937,multiplicationStroop,2021.2.3,Win32,59.94125757,,,,,,,,,,,,,,,,,,,,,,,,,,,,,,,,,28,1.9078,1,0,2,2,2,1,4,×,7,4 × 7,incongruent,smallerFirst,2,1,28,,,,,,,,
,,,,,,,,,,,,,,,825,2022-01-13_15h34.03.937,multiplicationStroop,2021.2.3,Win32,59.94125757,,,,,,,,,,,,,,,,,,,,,,,,,,,,,,,,,81,1.8011,1,0,3,3,35,1,9,×,9,9 × 9,neutral,tie,2,1,81,,,,,,,,
,,,,,,,,,,,,,,,825,2022-01-13_15h34.03.937,multiplicationStroop,2021.2.3,Win32,59.94125757,,,,,,,,,,,,,,,,,,,,,,,,,,,,,,,,,32,1.7679,1,0,4,4,21,1,8,×,4,8 × 4,incongruent,largerFirst,1,2,32,,,,,,,,
,,,,,,,,,,,,,,,825,2022-01-13_15h34.03.937,multiplicationStroop,2021.2.3,Win32,59.94125757,,,,,,,,,,,,,,,,,,,,,,,,,,,,,,,,,16,2.5185,1,0,5,5,30,1,4,×,4,4 × 4,neutral,tie,2,1,16,,,,,,,,
,,,,,,,,,,,,,,,825,2022-01-13_15h34.03.937,multiplicationStroop,2021.2.3,Win32,59.94125757,,,,,,,,,,,,,,,,,,,,,,,,,,,,,,,,,49,2.592,1,0,6,6,33,1,7,×,7,7 × 7,neutral,tie,2,1,49,,,,,,,,
,,,,,,,,,,,,,,,825,2022-01-13_15h34.03.937,multiplicationStroop,2021.2.3,Win32,59.94125757,,,,,,,,,,,,,,,,,,,,,,,,,,,,,,,,,24,1.8179,1,0,7,7,6,1,4,×,6,4 × 6,incongruent,smallerFirst,2,1,24,,,,,,,,
,,,,,,,,,,,,,,,825,2022-01-13_15h34.03.937,multiplicationStroop,2021.2.3,Win32,59.94125757,,,,,,,,,,,,,,,,,,,,,,,,,,,,,,,,,56,2.3015,1,0,8,8,0,1,7,×,8,7 × 8,incongruent,smallerFirst,2,1,56,,,,,,,,
,,,,,,,,,,,,,,,825,2022-01-13_15h34.03.937,multiplicationStroop,2021.2.3,Win32,59.94125757,,,,,,,,,,,,,,,,,,,,,,,,,,,,,,,,,8,1.7179,1,0,9,9,10,1,2,×,4,2 × 4,incongruent,smallerFirst,2,1,8,,,,,,,,
,,,,,,,,,,,,,,,825,2022-01-13_15h34.03.937,multiplicationStroop,2021.2.3,Win32,59.94125757,,,,,,,,,,,,,,,,,,,,,,,,,,,,,,,,,45,4.0032,1,0,10,10,8,1,5,×,9,5 × 9,incongruent,smallerFirst,2,1,45,,,,,,,,
,,,,,,,,,,,,,,,825,2022-01-13_15h34.03.937,multiplicationStroop,2021.2.3,Win32,59.94125757,,,,,,,,,,,,,,,,,,,,,,,,,,,,,,,,,63,3.0924,1,0,11,11,17,1,9,×,7,9 × 7,incongruent,largerFirst,1,2,63,,,,,,,,
,,,,,,,,,,,,,,,825,2022-01-13_15h34.03.937,multiplicationStroop,2021.2.3,Win32,59.94125757,,,,,,,,,,,,,,,,,,,,,,,,,,,,,,,,,36,2.3333,1,0,12,12,32,1,6,×,6,6 × 6,neutral,tie,2,1,36,,,,,,,,
,,,,,,,,,,,,,,,825,2022-01-13_15h34.03.937,multiplicationStroop,2021.2.3,Win32,59.94125757,,,,,,,,,,,,,,,,,,,,,,,,,,,,,,,,,36,3.3428,1,0,13,13,1,1,4,×,9,4 × 9,incongruent,smallerFirst,2,1,36,,,,,,,,
,,,,,,,,,,,,,,,825,2022-01-13_15h34.03.937,multiplicationStroop,2021.2.3,Win32,59.94125757,,,,,,,,,,,,,,,,,,,,,,,,,,,,,,,,,10,1.7011,1,0,14,14,7,1,2,×,5,2 × 5,incongruent,smallerFirst,2,1,10,,,,,,,,
,,,,,,,,,,,,,,,825,2022-01-13_15h34.03.937,multiplicationStroop,2021.2.3,Win32,59.94125757,,,,,,,,,,,,,,,,,,,,,,,,,,,,,,,,,42,2.6352,1,0,15,15,3,1,6,×,7,6 × 7,incongruent,smallerFirst,2,1,42,,,,,,,,
,,,,,,,,,,,,,,,825,2022-01-13_15h34.03.937,multiplicationStroop,2021.2.3,Win32,59.94125757,,,,,,,,,,,,,,,,,,,,,,,,,,,,,,,,,64,5.3378,1,0,16,16,34,1,8,×,8,8 × 8,neutral,tie,2,1,64,,,,,,,,
,,,,,,,,,,,,,,,825,2022-01-13_15h34.03.937,multiplicationStroop,2021.2.3,Win32,59.94125757,,,,,,,,,,,,,,,,,,,,,,,,,,,,,,,,,42,5.7119,0,0,17,17,15,1,8,×,6,8 × 6,incongruent,largerFirst,1,2,48,,,,,,,,
,,,,,,,,,,,,,,,825,2022-01-13_15h34.03.937,multiplicationStroop,2021.2.3,Win32,59.94125757,,,,,,,,,,,,,,,,,,,,,,,,,,,,,,,,,4,1.8914,1,0,18,18,28,1,2,×,2,2 × 2,neutral,tie,2,1,4,,,,,,,,
,,,,,,,,,,,,,,,825,2022-01-13_15h34.03.937,multiplicationStroop,2021.2.3,Win32,59.94125757,,,,,,,,,,,,,,,,,,,,,,,,,,,,,,,,,72,2.602,1,0,19,19,14,1,9,×,8,9 × 8,incongruent,largerFirst,1,2,72,,,,,,,,
,,,,,,,,,,,,,,,825,2022-01-13_15h34.03.937,multiplicationStroop,2021.2.3,Win32,59.94125757,,,,,,,,,,,,,,,,,,,,,,,,,,,,,,,,,24,2.1016,1,0,20,20,23,1,8,×,3,8 × 3,incongruent,largerFirst,1,2,24,,,,,,,,
,,,,,,,,,,,,,,,825,2022-01-13_15h34.03.937,multiplicationStroop,2021.2.3,Win32,59.94125757,,,,,,,,,,,,,,,,,,,,,,,,,,,,,,,,,12,1.4676,1,0,21,21,5,1,2,×,6,2 × 6,incongruent,smallerFirst,2,1,12,,,,,,,,
,,,,,,,,,,,,,,,825,2022-01-13_15h34.03.937,multiplicationStroop,2021.2.3,Win32,59.94125757,,,,,,,,,,,,,,,,,,,,,,,,,,,,,,,,,30,1.9848,1,0,22,22,11,1,5,×,6,5 × 6,incongruent,smallerFirst,2,1,30,,,,,,,,
,,,,,,,,,,,,,,,825,2022-01-13_15h34.03.937,multiplicationStroop,2021.2.3,Win32,59.94125757,,,,,,,,,,,,,,,,,,,,,,,,,,,,,,,,,40,2.5853,1,0,23,23,27,1,8,×,5,8 × 5,incongruent,largerFirst,1,2,40,,,,,,,,
,,,,,,,,,,,,,,,825,2022-01-13_15h34.03.937,multiplicationStroop,2021.2.3,Win32,59.94125757,,,,,,,,,,,,,,,,,,,,,,,,,,,,,,,,,21,2.0181,1,0,24,24,12,1,3,×,7,3 × 7,incongruent,smallerFirst,2,1,21,,,,,,,,
,,,,,,,,,,,,,,,825,2022-01-13_15h34.03.937,multiplicationStroop,2021.2.3,Win32,59.94125757,,,,,,,,,,,,,,,,,,,,,,,,,,,,,,,,,18,1.8345,1,0,25,25,22,1,6,×,3,6 × 3,incongruent,largerFirst,1,2,18,,,,,,,,
,,,,,,,,,,,,,,,825,2022-01-13_15h34.03.937,multiplicationStroop,2021.2.3,Win32,59.94125757,,,,,,,,,,,,,,,,,,,,,,,,,,,,,,,,,12,1.451,1,0,26,26,19,1,4,×,3,4 × 3,incongruent,largerFirst,1,2,12,,,,,,,,
,,,,,,,,,,,,,,,825,2022-01-13_15h34.03.937,multiplicationStroop,2021.2.3,Win32,59.94125757,,,,,,,,,,,,,,,,,,,,,,,,,,,,,,,,,16,2.7689,1,0,27,27,9,1,2,×,8,2 × 8,incongruent,smallerFirst,2,1,16,,,,,,,,
,,,,,,,,,,,,,,,825,2022-01-13_15h34.03.937,multiplicationStroop,2021.2.3,Win32,59.94125757,,,,,,,,,,,,,,,,,,,,,,,,,,,,,,,,,9,1.6176,1,0,28,28,29,1,3,×,3,3 × 3,neutral,tie,2,1,9,,,,,,,,
,,,,,,,,,,,,,,,825,2022-01-13_15h34.03.937,multiplicationStroop,2021.2.3,Win32,59.94125757,,,,,,,,,,,,,,,,,,,,,,,,,,,,,,,,,27,3.7031,1,0,29,29,4,1,3,×,9,3 × 9,incongruent,smallerFirst,2,1,27,,,,,,,,
,,,,,,,,,,,,,,,825,2022-01-13_15h34.03.937,multiplicationStroop,2021.2.3,Win32,59.94125757,,,,,,,,,,,,,,,,,,,,,,,,,,,,,,,,,18,2.392,1,0,30,30,16,1,9,×,2,9 × 2,incongruent,largerFirst,1,2,18,,,,,,,,
,,,,,,,,,,,,,,,825,2022-01-13_15h34.03.937,multiplicationStroop,2021.2.3,Win32,59.94125757,,,,,,,,,,,,,,,,,,,,,,,,,,,,,,,,,14,2.0847,1,0,31,31,18,1,7,×,2,7 × 2,incongruent,largerFirst,1,2,14,,,,,,,,
,,,,,,,,,,,,,,,825,2022-01-13_15h34.03.937,multiplicationStroop,2021.2.3,Win32,59.94125757,,,,,,,,,,,,,,,,,,,,,,,,,,,,,,,,,25,2.0681,1,0,32,32,31,1,5,×,5,5 × 5,neutral,tie,2,1,25,,,,,,,,
,,,,,,,,,,,,,,,825,2022-01-13_15h34.03.937,multiplicationStroop,2021.2.3,Win32,59.94125757,,,,,,,,,,,,,,,,,,,,,,,,,,,,,,,,,15,1.9848,1,0,33,33,24,1,5,×,3,5 × 3,incongruent,largerFirst,1,2,15,,,,,,,,
,,,,,,,,,,,,,,,825,2022-01-13_15h34.03.937,multiplicationStroop,2021.2.3,Win32,59.94125757,,,,,,,,,,,,,,,,,,,,,,,,,,,,,,,,,20,1.7011,1,0,34,34,13,1,4,×,5,4 × 5,incongruent,smallerFirst,2,1,20,,,,,,,,
,,,,,,,,,,,,,,,825,2022-01-13_15h34.03.937,multiplicationStroop,2021.2.3,Win32,59.94125757,,,,,,,,,,,,,,,,,,,,,,,,,,,,,,,,,35,2.352,1,0,35,35,26,1,7,×,5,7 × 5,incongruent,largerFirst,1,2,35,,,,,,,,
,,,,,,,,,,,,,,,825,2022-01-13_15h34.03.937,multiplicationStroop,2021.2.3,Win32,59.94125757,,,,,,,,,,,,,,,,,,,,,,,,,,,,,,,,,,,,,,,,,,,,,,,,,,0,2,2,4,1,stimulusFile/mult_blk5_INcongruent.xlsx,,
,,,,,,,,,,,,,,,825,2022-01-13_15h34.03.937,multiplicationStroop,2021.2.3,Win32,59.94125757,,,,,,,,,,,,,,,,,,,,,,,,,,,,,,,space,3.0515,8,1.9805,1,0,0,0,3,1,2,×,4,2 × 4,neutral,smallerFirst,1.5,1.5,8,,,,,,,,
,,,,,,,,,,,,,,,825,2022-01-13_15h34.03.937,multiplicationStroop,2021.2.3,Win32,59.94125757,,,,,,,,,,,,,,,,,,,,,,,,,,,,,,,,,27,2.2348,1,0,1,1,14,1,9,×,3,9 × 3,neutral,largerFirst,1.5,1.5,27,,,,,,,,
,,,,,,,,,,,,,,,825,2022-01-13_15h34.03.937,multiplicationStroop,2021.2.3,Win32,59.94125757,,,,,,,,,,,,,,,,,,,,,,,,,,,,,,,,,25,1.9179,1,0,2,2,31,1,5,×,5,5 × 5,neutral,tie,1.5,1.5,25,,,,,,,,
,,,,,,,,,,,,,,,825,2022-01-13_15h34.03.937,multiplicationStroop,2021.2.3,Win32,59.94125757,,,,,,,,,,,,,,,,,,,,,,,,,,,,,,,,,16,3.286,1,0,3,3,13,1,2,×,8,2 × 8,neutral,smallerFirst,1.5,1.5,16,,,,,,,,
,,,,,,,,,,,,,,,825,2022-01-13_15h34.03.937,multiplicationStroop,2021.2.3,Win32,59.94125757,,,,,,,,,,,,,,,,,,,,,,,,,,,,,,,,,12,1.3243,1,0,4,4,21,1,4,×,3,4 × 3,neutral,largerFirst,1.5,1.5,12,,,,,,,,
,,,,,,,,,,,,,,,825,2022-01-13_15h34.03.937,multiplicationStroop,2021.2.3,Win32,59.94125757,,,,,,,,,,,,,,,,,,,,,,,,,,,,,,,,,14,1.9347,1,0,5,5,16,1,7,×,2,7 × 2,neutral,largerFirst,1.5,1.5,14,,,,,,,,
,,,,,,,,,,,,,,,825,2022-01-13_15h34.03.937,multiplicationStroop,2021.2.3,Win32,59.94125757,,,,,,,,,,,,,,,,,,,,,,,,,,,,,,,,,36,2.1515,1,0,6,6,32,1,6,×,6,6 × 6,neutral,tie,1.5,1.5,36,,,,,,,,
,,,,,,,,,,,,,,,825,2022-01-13_15h34.03.937,multiplicationStroop,2021.2.3,Win32,59.94125757,,,,,,,,,,,,,,,,,,,,,,,,,,,,,,,,,12,1.3008,1,0,7,7,25,1,6,×,2,6 × 2,neutral,largerFirst,1.5,1.5,12,,,,,,,,
,,,,,,,,,,,,,,,825,2022-01-13_15h34.03.937,multiplicationStroop,2021.2.3,Win32,59.94125757,,,,,,,,,,,,,,,,,,,,,,,,,,,,,,,,,24,2.7855,1,0,8,8,22,1,8,×,3,8 × 3,neutral,largerFirst,1.5,1.5,24,,,,,,,,
,,,,,,,,,,,,,,,825,2022-01-13_15h34.03.937,multiplicationStroop,2021.2.3,Win32,59.94125757,,,,,,,,,,,,,,,,,,,,,,,,,,,,,,,,,10,1.7345,1,0,9,9,4,1,2,×,5,2 × 5,neutral,smallerFirst,1.5,1.5,10,,,,,,,,
,,,,,,,,,,,,,,,825,2022-01-13_15h34.03.937,multiplicationStroop,2021.2.3,Win32,59.94125757,,,,,,,,,,,,,,,,,,,,,,,,,,,,,,,,,21,1.7345,1,0,10,10,8,1,3,×,7,3 × 7,neutral,smallerFirst,1.5,1.5,21,,,,,,,,
,,,,,,,,,,,,,,,825,2022-01-13_15h34.03.937,multiplicationStroop,2021.2.3,Win32,59.94125757,,,,,,,,,,,,,,,,,,,,,,,,,,,,,,,,,24,2.185,1,0,11,11,2,1,4,×,6,4 × 6,neutral,smallerFirst,1.5,1.5,24,,,,,,,,
,,,,,,,,,,,,,,,825,2022-01-13_15h34.03.937,multiplicationStroop,2021.2.3,Win32,59.94125757,,,,,,,,,,,,,,,,,,,,,,,,,,,,,,,,,40,2.1515,1,0,12,12,24,1,8,×,5,8 × 5,neutral,largerFirst,1.5,1.5,40,,,,,,,,
,,,,,,,,,,,,,,,825,2022-01-13_15h34.03.937,multiplicationStroop,2021.2.3,Win32,59.94125757,,,,,,,,,,,,,,,,,,,,,,,,,,,,,,,,,81,2.7355,1,0,13,13,35,1,9,×,9,9 × 9,neutral,tie,1.5,1.5,81,,,,,,,,
,,,,,,,,,,,,,,,825,2022-01-13_15h34.03.937,multiplicationStroop,2021.2.3,Win32,59.94125757,,,,,,,,,,,,,,,,,,,,,,,,,,,,,,,,,48,3.8433,1,0,14,14,15,1,8,×,6,8 × 6,neutral,largerFirst,1.5,1.5,48,,,,,,,,
,,,,,,,,,,,,,,,825,2022-01-13_15h34.03.937,multiplicationStroop,2021.2.3,Win32,59.94125757,,,,,,,,,,,,,,,,,,,,,,,,,,,,,,,,,15,1.9248,1,0,15,15,5,1,3,×,5,3 × 5,neutral,smallerFirst,1.5,1.5,15,,,,,,,,
,,,,,,,,,,,,,,,825,2022-01-13_15h34.03.937,multiplicationStroop,2021.2.3,Win32,59.94125757,,,,,,,,,,,,,,,,,,,,,,,,,,,,,,,,,32,1.9846,1,0,16,16,23,1,8,×,4,8 × 4,neutral,largerFirst,1.5,1.5,32,,,,,,,,
,,,,,,,,,,,,,,,825,2022-01-13_15h34.03.937,multiplicationStroop,2021.2.3,Win32,59.94125757,,,,,,,,,,,,,,,,,,,,,,,,,,,,,,,,,42,2.3183,1,0,17,17,6,1,6,×,7,6 × 7,neutral,smallerFirst,1.5,1.5,42,,,,,,,,
,,,,,,,,,,,,,,,825,2022-01-13_15h34.03.937,multiplicationStroop,2021.2.3,Win32,59.94125757,,,,,,,,,,,,,,,,,,,,,,,,,,,,,,,,,45,3.275,1,0,18,18,10,1,5,×,9,5 × 9,neutral,smallerFirst,1.5,1.5,45,,,,,,,,
,,,,,,,,,,,,,,,825,2022-01-13_15h34.03.937,multiplicationStroop,2021.2.3,Win32,59.94125757,,,,,,,,,,,,,,,,,,,,,,,,,,,,,,,,,36,2.6686,1,0,19,19,27,1,9,×,4,9 × 4,neutral,largerFirst,1.5,1.5,36,,,,,,,,
,,,,,,,,,,,,,,,825,2022-01-13_15h34.03.937,multiplicationStroop,2021.2.3,Win32,59.94125757,,,,,,,,,,,,,,,,,,,,,,,,,,,,,,,,,56,2.042,1,0,20,20,9,1,7,×,8,7 × 8,neutral,smallerFirst,1.5,1.5,56,,,,,,,,
,,,,,,,,,,,,,,,825,2022-01-13_15h34.03.937,multiplicationStroop,2021.2.3,Win32,59.94125757,,,,,,,,,,,,,,,,,,,,,,,,,,,,,,,,,4,1.6179,1,0,21,21,28,1,2,×,2,2 × 2,neutral,tie,1.5,1.5,4,,,,,,,,
,,,,,,,,,,,,,,,825,2022-01-13_15h34.03.937,multiplicationStroop,2021.2.3,Win32,59.94125757,,,,,,,,,,,,,,,,,,,,,,,,,,,,,,,,,9,1.5839,1,0,22,22,29,1,3,×,3,3 × 3,neutral,tie,1.5,1.5,9,,,,,,,,
,,,,,,,,,,,,,,,825,2022-01-13_15h34.03.937,multiplicationStroop,2021.2.3,Win32,59.94125757,,,,,,,,,,,,,,,,,,,,,,,,,,,,,,,,,16,1.9347,1,0,23,23,30,1,4,×,4,4 × 4,neutral,tie,1.5,1.5,16,,,,,,,,
,,,,,,,,,,,,,,,825,2022-01-13_15h34.03.937,multiplicationStroop,2021.2.3,Win32,59.94125757,,,,,,,,,,,,,,,,,,,,,,,,,,,,,,,,,72,2.8522,1,0,24,24,11,1,8,×,9,8 × 9,neutral,smallerFirst,1.5,1.5,72,,,,,,,,
,,,,,,,,,,,,,,,825,2022-01-13_15h34.03.937,multiplicationStroop,2021.2.3,Win32,59.94125757,,,,,,,,,,,,,,,,,,,,,,,,,,,,,,,,,64,2.9421,1,0,25,25,34,1,8,×,8,8 × 8,neutral,tie,1.5,1.5,64,,,,,,,,
,,,,,,,,,,,,,,,825,2022-01-13_15h34.03.937,multiplicationStroop,2021.2.3,Win32,59.94125757,,,,,,,,,,,,,,,,,,,,,,,,,,,,,,,,,20,1.7679,1,0,26,26,20,1,5,×,4,5 × 4,neutral,largerFirst,1.5,1.5,20,,,,,,,,
,,,,,,,,,,,,,,,825,2022-01-13_15h34.03.937,multiplicationStroop,2021.2.3,Win32,59.94125757,,,,,,,,,,,,,,,,,,,,,,,,,,,,,,,,,18,3.0356,1,0,27,27,0,1,3,×,6,3 × 6,neutral,smallerFirst,1.5,1.5,18,,,,,,,,
,,,,,,,,,,,,,,,825,2022-01-13_15h34.03.937,multiplicationStroop,2021.2.3,Win32,59.94125757,,,,,,,,,,,,,,,,,,,,,,,,,,,,,,,,,30,4.6038,1,0,28,28,19,1,6,×,5,6 × 5,neutral,largerFirst,1.5,1.5,30,,,,,,,,
,,,,,,,,,,,,,,,825,2022-01-13_15h34.03.937,multiplicationStroop,2021.2.3,Win32,59.94125757,,,,,,,,,,,,,,,,,,,,,,,,,,,,,,,,,18,1.7584,1,0,29,29,18,1,9,×,2,9 × 2,neutral,largerFirst,1.5,1.5,18,,,,,,,,
,,,,,,,,,,,,,,,825,2022-01-13_15h34.03.937,multiplicationStroop,2021.2.3,Win32,59.94125757,,,,,,,,,,,,,,,,,,,,,,,,,,,,,,,,,35,2.5519,1,0,30,30,1,1,5,×,7,5 × 7,neutral,smallerFirst,1.5,1.5,35,,,,,,,,
,,,,,,,,,,,,,,,825,2022-01-13_15h34.03.937,multiplicationStroop,2021.2.3,Win32,59.94125757,,,,,,,,,,,,,,,,,,,,,,,,,,,,,,,,,6,1.9346,1,0,31,31,26,1,3,×,2,3 × 2,neutral,largerFirst,1.5,1.5,6,,,,,,,,
,,,,,,,,,,,,,,,825,2022-01-13_15h34.03.937,multiplicationStroop,2021.2.3,Win32,59.94125757,,,,,,,,,,,,,,,,,,,,,,,,,,,,,,,,,49,2.385,1,0,32,32,33,1,7,×,7,7 × 7,neutral,tie,1.5,1.5,49,,,,,,,,
,,,,,,,,,,,,,,,825,2022-01-13_15h34.03.937,multiplicationStroop,2021.2.3,Win32,59.94125757,,,,,,,,,,,,,,,,,,,,,,,,,,,,,,,,,54,2.4184,1,0,33,33,7,1,6,×,9,6 × 9,neutral,smallerFirst,1.5,1.5,54,,,,,,,,
,,,,,,,,,,,,,,,825,2022-01-13_15h34.03.937,multiplicationStroop,2021.2.3,Win32,59.94125757,,,,,,,,,,,,,,,,,,,,,,,,,,,,,,,,,63,2.6855,1,0,34,34,12,1,7,×,9,7 × 9,neutral,smallerFirst,1.5,1.5,63,,,,,,,,
,,,,,,,,,,,,,,,825,2022-01-13_15h34.03.937,multiplicationStroop,2021.2.3,Win32,59.94125757,,,,,,,,,,,,,,,,,,,,,,,,,,,,,,,,,28,2.6087,1,0,35,35,17,1,7,×,4,7 × 4,neutral,largerFirst,1.5,1.5,28,,,,,,,,
,,,,,,,,,,,,,,,825,2022-01-13_15h34.03.937,multiplicationStroop,2021.2.3,Win32,59.94125757,,,,,,,,,,,,,,,,,,,,,,,,,,,,,,,,,,,,,,,,,,,,,,,,,,0,3,3,1,1,stimulusFile/mult_blk2.xlsx,,
,,,,,,,,,,,,,,,825,2022-01-13_15h34.03.937,multiplicationStroop,2021.2.3,Win32,59.94125757,,,,,,,,,,,,,,,,,,,,,,,,,,,,,,,space,3.8197,64,2.251,1,0,0,0,34,1,8,×,8,8 × 8,neutral,tie,1.5,1.5,64,,,,,,,,
,,,,,,,,,,,,,,,825,2022-01-13_15h34.03.937,multiplicationStroop,2021.2.3,Win32,59.94125757,,,,,,,,,,,,,,,,,,,,,,,,,,,,,,,,,54,2.2849,1,0,1,1,21,1,9,×,6,9 × 6,neutral,largerFirst,1.5,1.5,54,,,,,,,,
,,,,,,,,,,,,,,,825,2022-01-13_15h34.03.937,multiplicationStroop,2021.2.3,Win32,59.94125757,,,,,,,,,,,,,,,,,,,,,,,,,,,,,,,,,14,2.0493,1,0,2,2,2,1,2,×,7,2 × 7,neutral,smallerFirst,1.5,1.5,14,,,,,,,,
,,,,,,,,,,,,,,,825,2022-01-13_15h34.03.937,multiplicationStroop,2021.2.3,Win32,59.94125757,,,,,,,,,,,,,,,,,,,,,,,,,,,,,,,,,25,2.0847,1,0,3,3,31,1,5,×,5,5 × 5,neutral,tie,1.5,1.5,25,,,,,,,,
,,,,,,,,,,,,,,,825,2022-01-13_15h34.03.937,multiplicationStroop,2021.2.3,Win32,59.94125757,,,,,,,,,,,,,,,,,,,,,,,,,,,,,,,,,20,1.601,1,0,4,4,6,1,4,×,5,4 × 5,neutral,smallerFirst,1.5,1.5,20,,,,,,,,
,,,,,,,,,,,,,,,825,2022-01-13_15h34.03.937,multiplicationStroop,2021.2.3,Win32,59.94125757,,,,,,,,,,,,,,,,,,,,,,,,,,,,,,,,,9,1.5342,1,0,5,5,29,1,3,×,3,3 × 3,neutral,tie,1.5,1.5,9,,,,,,,,
,,,,,,,,,,,,,,,825,2022-01-13_15h34.03.937,multiplicationStroop,2021.2.3,Win32,59.94125757,,,,,,,,,,,,,,,,,,,,,,,,,,,,,,,,,12,1.3508,1,0,6,6,7,1,3,×,4,3 × 4,neutral,smallerFirst,1.5,1.5,12,,,,,,,,
,,,,,,,,,,,,,,,825,2022-01-13_15h34.03.937,multiplicationStroop,2021.2.3,Win32,59.94125757,,,,,,,,,,,,,,,,,,,,,,,,,,,,,,,,,21,1.5009,1,0,7,7,22,1,7,×,3,7 × 3,neutral,largerFirst,1.5,1.5,21,,,,,,,,
,,,,,,,,,,,,,,,825,2022-01-13_15h34.03.937,multiplicationStroop,2021.2.3,Win32,59.94125757,,,,,,,,,,,,,,,,,,,,,,,,,,,,,,,,,18,2.552,1,0,8,8,14,1,6,×,3,6 × 3,neutral,largerFirst,1.5,1.5,18,,,,,,,,
,,,,,,,,,,,,,,,825,2022-01-13_15h34.03.937,multiplicationStroop,2021.2.3,Win32,59.94125757,,,,,,,,,,,,,,,,,,,,,,,,,,,,,,,,,72,4.6276,1,0,9,9,25,1,9,×,8,9 × 8,neutral,largerFirst,1.5,1.5,72,,,,,,,,
,,,,,,,,,,,,,,,825,2022-01-13_15h34.03.937,multiplicationStroop,2021.2.3,Win32,59.94125757,,,,,,,,,,,,,,,,,,,,,,,,,,,,,,,,,16,2.3249,1,0,10,10,27,1,8,×,2,8 × 2,neutral,largerFirst,1.5,1.5,16,,,,,,,,
,,,,,,,,,,,,,,,825,2022-01-13_15h34.03.937,multiplicationStroop,2021.2.3,Win32,59.94125757,,,,,,,,,,,,,,,,,,,,,,,,,,,,,,,,,12,1.4509,1,0,11,11,11,1,2,×,6,2 × 6,neutral,smallerFirst,1.5,1.5,12,,,,,,,,
,,,,,,,,,,,,,,,825,2022-01-13_15h34.03.937,multiplicationStroop,2021.2.3,Win32,59.94125757,,,,,,,,,,,,,,,,,,,,,,,,,,,,,,,,,30,1.8847,1,0,12,12,5,1,5,×,6,5 × 6,neutral,smallerFirst,1.5,1.5,30,,,,,,,,
,,,,,,,,,,,,,,,825,2022-01-13_15h34.03.937,multiplicationStroop,2021.2.3,Win32,59.94125757,,,,,,,,,,,,,,,,,,,,,,,,,,,,,,,,,8,2.0181,1,0,13,13,17,1,4,×,2,4 × 2,neutral,largerFirst,1.5,1.5,8,,,,,,,,
,,,,,,,,,,,,,,,825,2022-01-13_15h34.03.937,multiplicationStroop,2021.2.3,Win32,59.94125757,,,,,,,,,,,,,,,,,,,,,,,,,,,,,,,,,16,1.8514,1,0,14,14,30,1,4,×,4,4 × 4,neutral,tie,1.5,1.5,16,,,,,,,,
,,,,,,,,,,,,,,,825,2022-01-13_15h34.03.937,multiplicationStroop,2021.2.3,Win32,59.94125757,,,,,,,,,,,,,,,,,,,,,,,,,,,,,,,,,63,2.4018,1,0,15,15,26,1,9,×,7,9 × 7,neutral,largerFirst,1.5,1.5,63,,,,,,,,
,,,,,,,,,,,,,,,825,2022-01-13_15h34.03.937,multiplicationStroop,2021.2.3,Win32,59.94125757,,,,,,,,,,,,,,,,,,,,,,,,,,,,,,,,,32,1.9181,1,0,16,16,9,1,4,×,8,4 × 8,neutral,smallerFirst,1.5,1.5,32,,,,,,,,
,,,,,,,,,,,,,,,825,2022-01-13_15h34.03.937,multiplicationStroop,2021.2.3,Win32,59.94125757,,,,,,,,,,,,,,,,,,,,,,,,,,,,,,,,,24,5.1207,1,0,17,17,8,1,3,×,8,3 × 8,neutral,smallerFirst,1.5,1.5,24,,,,,,,,
,,,,,,,,,,,,,,,825,2022-01-13_15h34.03.937,multiplicationStroop,2021.2.3,Win32,59.94125757,,,,,,,,,,,,,,,,,,,,,,,,,,,,,,,,,48,5.278,1,0,18,18,1,1,6,×,8,6 × 8,neutral,smallerFirst,1.5,1.5,48,,,,,,,,
,,,,,,,,,,,,,,,825,2022-01-13_15h34.03.937,multiplicationStroop,2021.2.3,Win32,59.94125757,,,,,,,,,,,,,,,,,,,,,,,,,,,,,,,,,36,2.3917,1,0,19,19,32,1,6,×,6,6 × 6,neutral,tie,1.5,1.5,36,,,,,,,,
,,,,,,,,,,,,,,,825,2022-01-13_15h34.03.937,multiplicationStroop,2021.2.3,Win32,59.94125757,,,,,,,,,,,,,,,,,,,,,,,,,,,,,,,,,32,2.2349,0,0,20,20,13,1,4,×,9,4 × 9,neutral,smallerFirst,1.5,1.5,36,,,,,,,,
,,,,,,,,,,,,,,,825,2022-01-13_15h34.03.937,multiplicationStroop,2021.2.3,Win32,59.94125757,,,,,,,,,,,,,,,,,,,,,,,,,,,,,,,,,27,3.5862,1,0,21,21,0,1,3,×,9,3 × 9,neutral,smallerFirst,1.5,1.5,27,,,,,,,,
,,,,,,,,,,,,,,,825,2022-01-13_15h34.03.937,multiplicationStroop,2021.2.3,Win32,59.94125757,,,,,,,,,,,,,,,,,,,,,,,,,,,,,,,,,15,2.1416,1,0,22,22,19,1,5,×,3,5 × 3,neutral,largerFirst,1.5,1.5,15,,,,,,,,
,,,,,,,,,,,,,,,825,2022-01-13_15h34.03.937,multiplicationStroop,2021.2.3,Win32,59.94125757,,,,,,,,,,,,,,,,,,,,,,,,,,,,,,,,,81,2.3018,1,0,23,23,35,1,9,×,9,9 × 9,neutral,tie,1.5,1.5,81,,,,,,,,
,,,,,,,,,,,,,,,825,2022-01-13_15h34.03.937,multiplicationStroop,2021.2.3,Win32,59.94125757,,,,,,,,,,,,,,,,,,,,,,,,,,,,,,,,,35,2.3016,1,0,24,24,15,1,7,×,5,7 × 5,neutral,largerFirst,1.5,1.5,35,,,,,,,,
,,,,,,,,,,,,,,,825,2022-01-13_15h34.03.937,multiplicationStroop,2021.2.3,Win32,59.94125757,,,,,,,,,,,,,,,,,,,,,,,,,,,,,,,,,56,2.018,1,0,25,25,23,1,8,×,7,8 × 7,neutral,largerFirst,1.5,1.5,56,,,,,,,,
,,,,,,,,,,,,,,,825,2022-01-13_15h34.03.937,multiplicationStroop,2021.2.3,Win32,59.94125757,,,,,,,,,,,,,,,,,,,,,,,,,,,,,,,,,40,2.5019,0,0,26,26,24,1,9,×,5,9 × 5,neutral,largerFirst,1.5,1.5,45,,,,,,,,
,,,,,,,,,,,,,,,825,2022-01-13_15h34.03.937,multiplicationStroop,2021.2.3,Win32,59.94125757,,,,,,,,,,,,,,,,,,,,,,,,,,,,,,,,,42,3.5764,1,0,27,27,20,1,7,×,6,7 × 6,neutral,largerFirst,1.5,1.5,42,,,,,,,,
,,,,,,,,,,,,,,,825,2022-01-13_15h34.03.937,multiplicationStroop,2021.2.3,Win32,59.94125757,,,,,,,,,,,,,,,,,,,,,,,,,,,,,,,,,18,1.8513,1,0,28,28,4,1,2,×,9,2 × 9,neutral,smallerFirst,1.5,1.5,18,,,,,,,,
,,,,,,,,,,,,,,,825,2022-01-13_15h34.03.937,multiplicationStroop,2021.2.3,Win32,59.94125757,,,,,,,,,,,,,,,,,,,,,,,,,,,,,,,,,28,2.6188,1,0,29,29,3,1,4,×,7,4 × 7,neutral,smallerFirst,1.5,1.5,28,,,,,,,,
,,,,,,,,,,,,,,,825,2022-01-13_15h34.03.937,multiplicationStroop,2021.2.3,Win32,59.94125757,,,,,,,,,,,,,,,,,,,,,,,,,,,,,,,,,40,2.4252,1,0,30,30,10,1,5,×,8,5 × 8,neutral,smallerFirst,1.5,1.5,40,,,,,,,,
,,,,,,,,,,,,,,,825,2022-01-13_15h34.03.937,multiplicationStroop,2021.2.3,Win32,59.94125757,,,,,,,,,,,,,,,,,,,,,,,,,,,,,,,,,6,2.2517,1,0,31,31,12,1,2,×,3,2 × 3,neutral,smallerFirst,1.5,1.5,6,,,,,,,,
,,,,,,,,,,,,,,,825,2022-01-13_15h34.03.937,multiplicationStroop,2021.2.3,Win32,59.94125757,,,,,,,,,,,,,,,,,,,,,,,,,,,,,,,,,24,2.2684,1,0,32,32,16,1,6,×,4,6 × 4,neutral,largerFirst,1.5,1.5,24,,,,,,,,
,,,,,,,,,,,,,,,825,2022-01-13_15h34.03.937,multiplicationStroop,2021.2.3,Win32,59.94125757,,,,,,,,,,,,,,,,,,,,,,,,,,,,,,,,,10,1.651,1,0,33,33,18,1,5,×,2,5 × 2,neutral,largerFirst,1.5,1.5,10,,,,,,,,
,,,,,,,,,,,,,,,825,2022-01-13_15h34.03.937,multiplicationStroop,2021.2.3,Win32,59.94125757,,,,,,,,,,,,,,,,,,,,,,,,,,,,,,,,,49,2.2016,1,0,34,34,33,1,7,×,7,7 × 7,neutral,tie,1.5,1.5,49,,,,,,,,
,,,,,,,,,,,,,,,825,2022-01-13_15h34.03.937,multiplicationStroop,2021.2.3,Win32,59.94125757,,,,,,,,,,,,,,,,,,,,,,,,,,,,,,,,,4,2.4853,1,0,35,35,28,1,2,×,2,2 × 2,neutral,tie,1.5,1.5,4,,,,,,,,
,,,,,,,,,,,,,,,825,2022-01-13_15h34.03.937,multiplicationStroop,2021.2.3,Win32,59.94125757,,,,,,,,,,,,,,,,,,,,,,,,,,,,,,,,,,,,,,,,,,,,,,,,,,0,4,4,0,1,stimulusFile/mult_blk1.xlsx,,
,,,,,,,,,,,,,,,825,2022-01-13_15h34.03.937,multiplicationStroop,2021.2.3,Win32,59.94125757,,,,,,,,,,,,,,,,,,,,,,,,,,,,,,,space,3.3175,54,4.0117,1,0,0,0,26,1,9,×,6,9 × 6,congruent,largerFirst,2,1,54,,,,,,,,
,,,,,,,,,,,,,,,825,2022-01-13_15h34.03.937,multiplicationStroop,2021.2.3,Win32,59.94125757,,,,,,,,,,,,,,,,,,,,,,,,,,,,,,,,,27,2.2577,1,0,1,1,12,1,3,×,9,3 × 9,congruent,smallerFirst,1,2,27,,,,,,,,
,,,,,,,,,,,,,,,825,2022-01-13_15h34.03.937,multiplicationStroop,2021.2.3,Win32,59.94125757,,,,,,,,,,,,,,,,,,,,,,,,,,,,,,,,,36,2.4009,1,0,2,2,32,1,6,×,6,6 × 6,neutral,tie,1,2,36,,,,,,,,
,,,,,,,,,,,,,,,825,2022-01-13_15h34.03.937,multiplicationStroop,2021.2.3,Win32,59.94125757,,,,,,,,,,,,,,,,,,,,,,,,,,,,,,,,,25,2.1172,1,0,3,3,31,1,5,×,5,5 × 5,neutral,tie,1,2,25,,,,,,,,
,,,,,,,,,,,,,,,825,2022-01-13_15h34.03.937,multiplicationStroop,2021.2.3,Win32,59.94125757,,,,,,,,,,,,,,,,,,,,,,,,,,,,,,,,,15,1.8673,1,0,4,4,18,1,5,×,3,5 × 3,congruent,largerFirst,2,1,15,,,,,,,,
,,,,,,,,,,,,,,,825,2022-01-13_15h34.03.937,multiplicationStroop,2021.2.3,Win32,59.94125757,,,,,,,,,,,,,,,,,,,,,,,,,,,,,,,,,40,2.201,1,0,5,5,20,1,8,×,5,8 × 5,congruent,largerFirst,2,1,40,,,,,,,,
,,,,,,,,,,,,,,,825,2022-01-13_15h34.03.937,multiplicationStroop,2021.2.3,Win32,59.94125757,,,,,,,,,,,,,,,,,,,,,,,,,,,,,,,,,6,1.8507,1,0,6,6,27,1,3,×,2,3 × 2,congruent,largerFirst,2,1,6,,,,,,,,
,,,,,,,,,,,,,,,825,2022-01-13_15h34.03.937,multiplicationStroop,2021.2.3,Win32,59.94125757,,,,,,,,,,,,,,,,,,,,,,,,,,,,,,,,,24,1.9241,1,0,7,7,24,1,8,×,3,8 × 3,congruent,largerFirst,2,1,24,,,,,,,,
,,,,,,,,,,,,,,,825,2022-01-13_15h34.03.937,multiplicationStroop,2021.2.3,Win32,59.94125757,,,,,,,,,,,,,,,,,,,,,,,,,,,,,,,,,56,2.1615,1,0,8,8,22,1,8,×,7,8 × 7,congruent,largerFirst,2,1,56,,,,,,,,
,,,,,,,,,,,,,,,825,2022-01-13_15h34.03.937,multiplicationStroop,2021.2.3,Win32,59.94125757,,,,,,,,,,,,,,,,,,,,,,,,,,,,,,,,,16,2.2511,1,0,9,9,30,1,4,×,4,4 × 4,neutral,tie,1,2,16,,,,,,,,
,,,,,,,,,,,,,,,825,2022-01-13_15h34.03.937,multiplicationStroop,2021.2.3,Win32,59.94125757,,,,,,,,,,,,,,,,,,,,,,,,,,,,,,,,,64,2.5916,1,0,10,10,34,1,8,×,8,8 × 8,neutral,tie,1,2,64,,,,,,,,
,,,,,,,,,,,,,,,825,2022-01-13_15h34.03.937,multiplicationStroop,2021.2.3,Win32,59.94125757,,,,,,,,,,,,,,,,,,,,,,,,,,,,,,,,,45,4.3699,1,0,11,11,9,1,5,×,9,5 × 9,congruent,smallerFirst,1,2,45,,,,,,,,
,,,,,,,,,,,,,,,825,2022-01-13_15h34.03.937,multiplicationStroop,2021.2.3,Win32,59.94125757,,,,,,,,,,,,,,,,,,,,,,,,,,,,,,,,,24,1.9238,1,0,12,12,11,1,4,×,6,4 × 6,congruent,smallerFirst,1,2,24,,,,,,,,
,,,,,,,,,,,,,,,825,2022-01-13_15h34.03.937,multiplicationStroop,2021.2.3,Win32,59.94125757,,,,,,,,,,,,,,,,,,,,,,,,,,,,,,,,,42,2.6511,1,0,13,13,17,1,7,×,6,7 × 6,congruent,largerFirst,2,1,42,,,,,,,,
,,,,,,,,,,,,,,,825,2022-01-13_15h34.03.937,multiplicationStroop,2021.2.3,Win32,59.94125757,,,,,,,,,,,,,,,,,,,,,,,,,,,,,,,,,24,3.8026,0,0,14,14,25,1,6,×,3,6 × 3,congruent,largerFirst,2,1,18,,,,,,,,
,,,,,,,,,,,,,,,825,2022-01-13_15h34.03.937,multiplicationStroop,2021.2.3,Win32,59.94125757,,,,,,,,,,,,,,,,,,,,,,,,,,,,,,,,,49,2.6312,1,0,15,15,33,1,7,×,7,7 × 7,neutral,tie,1,2,49,,,,,,,,
,,,,,,,,,,,,,,,825,2022-01-13_15h34.03.937,multiplicationStroop,2021.2.3,Win32,59.94125757,,,,,,,,,,,,,,,,,,,,,,,,,,,,,,,,,18,2.9704,1,0,16,16,8,1,2,×,9,2 × 9,congruent,smallerFirst,1,2,18,,,,,,,,
,,,,,,,,,,,,,,,825,2022-01-13_15h34.03.937,multiplicationStroop,2021.2.3,Win32,59.94125757,,,,,,,,,,,,,,,,,,,,,,,,,,,,,,,,,48,4.3687,1,0,17,17,4,1,6,×,8,6 × 8,congruent,smallerFirst,1,2,48,,,,,,,,
,,,,,,,,,,,,,,,825,2022-01-13_15h34.03.937,multiplicationStroop,2021.2.3,Win32,59.94125757,,,,,,,,,,,,,,,,,,,,,,,,,,,,,,,,,30,4.2094,1,0,18,18,1,1,5,×,6,5 × 6,congruent,smallerFirst,1,2,30,,,,,,,,
,,,,,,,,,,,,,,,825,2022-01-13_15h34.03.937,multiplicationStroop,2021.2.3,Win32,59.94125757,,,,,,,,,,,,,,,,,,,,,,,,,,,,,,,,,81,1.7572,1,0,19,19,35,1,9,×,9,9 × 9,neutral,tie,1,2,81,,,,,,,,
,,,,,,,,,,,,,,,825,2022-01-13_15h34.03.937,multiplicationStroop,2021.2.3,Win32,59.94125757,,,,,,,,,,,,,,,,,,,,,,,,,,,,,,,,,12,1.9674,1,0,20,20,16,1,4,×,3,4 × 3,congruent,largerFirst,2,1,12,,,,,,,,
,,,,,,,,,,,,,,,825,2022-01-13_15h34.03.937,multiplicationStroop,2021.2.3,Win32,59.94125757,,,,,,,,,,,,,,,,,,,,,,,,,,,,,,,,,10,1.7172,1,0,21,21,10,1,2,×,5,2 × 5,congruent,smallerFirst,1,2,10,,,,,,,,
,,,,,,,,,,,,,,,825,2022-01-13_15h34.03.937,multiplicationStroop,2021.2.3,Win32,59.94125757,,,,,,,,,,,,,,,,,,,,,,,,,,,,,,,,,9,1.6062,1,0,22,22,29,1,3,×,3,3 × 3,neutral,tie,1,2,9,,,,,,,,
,,,,,,,,,,,,,,,825,2022-01-13_15h34.03.937,multiplicationStroop,2021.2.3,Win32,59.94125757,,,,,,,,,,,,,,,,,,,,,,,,,,,,,,,,,21,1.5957,1,0,23,23,2,1,3,×,7,3 × 7,congruent,smallerFirst,1,2,21,,,,,,,,
,,,,,,,,,,,,,,,825,2022-01-13_15h34.03.937,multiplicationStroop,2021.2.3,Win32,59.94125757,,,,,,,,,,,,,,,,,,,,,,,,,,,,,,,,,16,2.2901,1,0,24,24,19,1,8,×,2,8 × 2,congruent,largerFirst,2,1,16,,,,,,,,
,,,,,,,,,,,,,,,825,2022-01-13_15h34.03.937,multiplicationStroop,2021.2.3,Win32,59.94125757,,,,,,,,,,,,,,,,,,,,,,,,,,,,,,,,,4,1.711,1,0,25,25,28,1,2,×,2,2 × 2,neutral,tie,1,2,4,,,,,,,,
,,,,,,,,,,,,,,,825,2022-01-13_15h34.03.937,multiplicationStroop,2021.2.3,Win32,59.94125757,,,,,,,,,,,,,,,,,,,,,,,,,,,,,,,,,14,2.4346,1,0,26,26,0,1,2,×,7,2 × 7,congruent,smallerFirst,1,2,14,,,,,,,,
,,,,,,,,,,,,,,,825,2022-01-13_15h34.03.937,multiplicationStroop,2021.2.3,Win32,59.94125757,,,,,,,,,,,,,,,,,,,,,,,,,,,,,,,,,32,2.3343,1,0,27,27,6,1,4,×,8,4 × 8,congruent,smallerFirst,1,2,32,,,,,,,,
,,,,,,,,,,,,,,,825,2022-01-13_15h34.03.937,multiplicationStroop,2021.2.3,Win32,59.94125757,,,,,,,,,,,,,,,,,,,,,,,,,,,,,,,,,72,2.2338,1,0,28,28,3,1,8,×,9,8 × 9,congruent,smallerFirst,1,2,72,,,,,,,,
,,,,,,,,,,,,,,,825,2022-01-13_15h34.03.937,multiplicationStroop,2021.2.3,Win32,59.94125757,,,,,,,,,,,,,,,,,,,,,,,,,,,,,,,,,35,2.4011,1,0,29,29,15,1,7,×,5,7 × 5,congruent,largerFirst,2,1,35,,,,,,,,
,,,,,,,,,,,,,,,825,2022-01-13_15h34.03.937,multiplicationStroop,2021.2.3,Win32,59.94125757,,,,,,,,,,,,,,,,,,,,,,,,,,,,,,,,,28,2.6348,1,0,30,30,13,1,4,×,7,4 × 7,congruent,smallerFirst,1,2,28,,,,,,,,
,,,,,,,,,,,,,,,825,2022-01-13_15h34.03.937,multiplicationStroop,2021.2.3,Win32,59.94125757,,,,,,,,,,,,,,,,,,,,,,,,,,,,,,,,,20,2.2078,1,0,31,31,21,1,5,×,4,5 × 4,congruent,largerFirst,2,1,20,,,,,,,,
,,,,,,,,,,,,,,,825,2022-01-13_15h34.03.937,multiplicationStroop,2021.2.3,Win32,59.94125757,,,,,,,,,,,,,,,,,,,,,,,,,,,,,,,,,8,1.9506,1,0,32,32,23,1,4,×,2,4 × 2,congruent,largerFirst,2,1,8,,,,,,,,
,,,,,,,,,,,,,,,825,2022-01-13_15h34.03.937,multiplicationStroop,2021.2.3,Win32,59.94125757,,,,,,,,,,,,,,,,,,,,,,,,,,,,,,,,,63,6.6885,1,0,33,33,7,1,7,×,9,7 × 9,congruent,smallerFirst,1,2,63,,,,,,,,
,,,,,,,,,,,,,,,825,2022-01-13_15h34.03.937,multiplicationStroop,2021.2.3,Win32,59.94125757,,,,,,,,,,,,,,,,,,,,,,,,,,,,,,,,,12,2.675,1,0,34,34,5,1,2,×,6,2 × 6,congruent,smallerFirst,1,2,12,,,,,,,,
,,,,,,,,,,,,,,,825,2022-01-13_15h34.03.937,multiplicationStroop,2021.2.3,Win32,59.94125757,,,,,,,,,,,,,,,,,,,,,,,,,,,,,,,,,32,2.1175,0,0,35,35,14,1,9,×,4,9 × 4,congruent,largerFirst,2,1,36,,,,,,,,
,,,,,,,,,,,,,,,825,2022-01-13_15h34.03.937,multiplicationStroop,2021.2.3,Win32,59.94125757,,,,,,,,,,,,,,,,,,,,,,,,,,,,,,,,,,,,,,,,,,,,,,,,,,0,5,5,3,1,stimulusFile/mult_blk4_congruent.xlsx,,
,,,,,,,,,,,,,,,825,2022-01-13_15h34.03.937,multiplicationStroop,2021.2.3,Win32,59.94125757,,,,,,,,,,,,,,,,,,,,,,,,,,,,,,,,,,,,,,,,,,,,,,,,,,,,,,,,space,5.8892